onset	duration	sample	trial_type	response_time	stim_file	item_name	serialpos	list	test	answer	experiment	session	subject
0.0	0.0	849730	INSTRUCT_START	n/a	n/a	n/a	-999	-999	[0, 0, 0]	n/a	FR1	0	R1207J
0.0	10.943	849730	INSTRUCT_END	n/a	n/a	n/a	-999	-999	[0, 0, 0]	n/a	FR1	0	R1207J
10.943	0.0	860673	SESS_START	n/a	n/a	n/a	-999	-999	[0, 0, 0]	n/a	FR1	0	R1207J
10.943	27.501	860673	MIC_TEST	n/a	n/a	n/a	-999	-999	[0, 0, 0]	n/a	FR1	0	R1207J
38.444	9.763	888174	PRACTICE_TRIAL	n/a	n/a	n/a	-999	-1	[0, 0, 0]	n/a	FR1	0	R1207J
48.207	10.428	897937	COUNTDOWN_START	n/a	n/a	n/a	-999	-1	[0, 0, 0]	n/a	FR1	0	R1207J
58.635	0.008	908365	COUNTDOWN_END	n/a	n/a	n/a	-999	-1	[0, 0, 0]	n/a	FR1	0	R1207J
58.643	1.617	908373	PRACTICE_ORIENT	n/a	n/a	n/a	-999	-1	[0, 0, 0]	n/a	FR1	0	R1207J
60.26	2.25	909990	PRACTICE_ORIENT_OFF	n/a	n/a	n/a	-999	-1	[0, 0, 0]	n/a	FR1	0	R1207J
62.51	1.617	912240	PRACTICE_WORD	n/a	n/a	WAGON	1	-1	[0, 0, 0]	n/a	FR1	0	R1207J
64.127	0.799	913857	PRACTICE_WORD_OFF	n/a	n/a	WAGON	-999	-1	[0, 0, 0]	n/a	FR1	0	R1207J
64.926	1.618	914656	PRACTICE_WORD	n/a	n/a	BEAM	2	-1	[0, 0, 0]	n/a	FR1	0	R1207J
66.544	0.984	916274	PRACTICE_WORD_OFF	n/a	n/a	BEAM	-999	-1	[0, 0, 0]	n/a	FR1	0	R1207J
67.528	1.616	917258	PRACTICE_WORD	n/a	n/a	TONGUE	3	-1	[0, 0, 0]	n/a	FR1	0	R1207J
69.144	0.85	918874	PRACTICE_WORD_OFF	n/a	n/a	TONGUE	-999	-1	[0, 0, 0]	n/a	FR1	0	R1207J
69.994	1.617	919724	PRACTICE_WORD	n/a	n/a	FLOOD	4	-1	[0, 0, 0]	n/a	FR1	0	R1207J
71.611	0.934	921341	PRACTICE_WORD_OFF	n/a	n/a	FLOOD	-999	-1	[0, 0, 0]	n/a	FR1	0	R1207J
72.545	1.616	922275	PRACTICE_WORD	n/a	n/a	COTTON	5	-1	[0, 0, 0]	n/a	FR1	0	R1207J
74.161	0.951	923891	PRACTICE_WORD_OFF	n/a	n/a	COTTON	-999	-1	[0, 0, 0]	n/a	FR1	0	R1207J
75.112	1.616	924842	PRACTICE_WORD	n/a	n/a	ATTIC	6	-1	[0, 0, 0]	n/a	FR1	0	R1207J
76.728	0.834	926458	PRACTICE_WORD_OFF	n/a	n/a	ATTIC	-999	-1	[0, 0, 0]	n/a	FR1	0	R1207J
77.562	1.617	927292	PRACTICE_WORD	n/a	n/a	RING	7	-1	[0, 0, 0]	n/a	FR1	0	R1207J
79.179	1.0	928909	PRACTICE_WORD_OFF	n/a	n/a	RING	-999	-1	[0, 0, 0]	n/a	FR1	0	R1207J
80.179	1.616	929909	PRACTICE_WORD	n/a	n/a	RHINO	8	-1	[0, 0, 0]	n/a	FR1	0	R1207J
81.795	0.966	931525	PRACTICE_WORD_OFF	n/a	n/a	RHINO	-999	-1	[0, 0, 0]	n/a	FR1	0	R1207J
82.761	1.602	932491	PRACTICE_WORD	n/a	n/a	IRON	9	-1	[0, 0, 0]	n/a	FR1	0	R1207J
84.363	0.867	934093	PRACTICE_WORD_OFF	n/a	n/a	IRON	-999	-1	[0, 0, 0]	n/a	FR1	0	R1207J
85.23	1.616	934960	PRACTICE_WORD	n/a	n/a	CHEST	10	-1	[0, 0, 0]	n/a	FR1	0	R1207J
86.846	0.801	936576	PRACTICE_WORD_OFF	n/a	n/a	CHEST	-999	-1	[0, 0, 0]	n/a	FR1	0	R1207J
87.647	1.617	937377	PRACTICE_WORD	n/a	n/a	CAMEL	11	-1	[0, 0, 0]	n/a	FR1	0	R1207J
89.264	0.8	938994	PRACTICE_WORD_OFF	n/a	n/a	CAMEL	-999	-1	[0, 0, 0]	n/a	FR1	0	R1207J
90.064	1.615	939794	PRACTICE_WORD	n/a	n/a	WATCH	12	-1	[0, 0, 0]	n/a	FR1	0	R1207J
91.679	0.0	941409	PRACTICE_WORD_OFF	n/a	n/a	WATCH	-999	-1	[0, 0, 0]	n/a	FR1	0	R1207J
91.679	0.001	941409	DISTRACT_START	n/a	n/a	n/a	-999	-1	[0, 0, 0]	n/a	FR1	0	R1207J
91.68	0.016	941410	START	n/a	n/a	n/a	-999	-1	[-999, -999, -999]	n/a	FR1	0	R1207J
91.696	5.552	941426	PROB	5.552	n/a	n/a	-999	-1	[2, 9, 1]	12	FR1	0	R1207J
97.248	4.25	946978	PROB	4.25	n/a	n/a	-999	-1	[6, 7, 3]	16	FR1	0	R1207J
101.498	2.867	951228	PROB	2.867	n/a	n/a	-999	-1	[6, 5, 5]	16	FR1	0	R1207J
104.365	2.834	954095	PROB	2.834	n/a	n/a	-999	-1	[4, 1, 1]	6	FR1	0	R1207J
107.199	11.806	956929	PROB	11.806	n/a	n/a	-999	-1	[8, 5, 7]	20	FR1	0	R1207J
119.005	0.011	968734	STOP	n/a	n/a	n/a	-999	-1	[-999, -999, -999]	n/a	FR1	0	R1207J
119.016	0.667	968745	DISTRACT_END	n/a	n/a	n/a	-999	-1	[0, 0, 0]	n/a	FR1	0	R1207J
119.683	0.519	969412	RETRIEVAL_ORIENT	n/a	n/a	n/a	-999	-1	[0, 0, 0]	n/a	FR1	0	R1207J
120.202	30.011	969931	PRACTICE_REC_START	n/a	n/a	n/a	-999	-1	[0, 0, 0]	n/a	FR1	0	R1207J
150.213	9.21	999942	PRACTICE_REC_END	n/a	n/a	n/a	-999	-1	[0, 0, 0]	n/a	FR1	0	R1207J
159.423	0.5	1009152	TRIAL	n/a	n/a	n/a	-999	1	[0, 0, 0]	n/a	FR1	0	R1207J
159.923	10.428	1009652	COUNTDOWN_START	n/a	n/a	n/a	-999	1	[0, 0, 0]	n/a	FR1	0	R1207J
170.351	0.007	1020080	COUNTDOWN_END	n/a	n/a	n/a	-999	1	[0, 0, 0]	n/a	FR1	0	R1207J
170.358	1.615	1020087	ORIENT	n/a	n/a	n/a	-999	1	[0, 0, 0]	n/a	FR1	0	R1207J
171.973	1.851	1021702	ORIENT_OFF	n/a	n/a	n/a	-999	1	[0, 0, 0]	n/a	FR1	0	R1207J
173.824	1.617	1023553	WORD	n/a	wordpools/wordpool_EN.txt	HAWK	1	1	[0, 0, 0]	n/a	FR1	0	R1207J
175.441	0.934	1025170	WORD_OFF	n/a	n/a	HAWK	1	1	[0, 0, 0]	n/a	FR1	0	R1207J
176.375	1.616	1026104	WORD	n/a	wordpools/wordpool_EN.txt	HAT	2	1	[0, 0, 0]	n/a	FR1	0	R1207J
177.991	0.817	1027720	WORD_OFF	n/a	n/a	HAT	2	1	[0, 0, 0]	n/a	FR1	0	R1207J
178.808	1.618	1028537	WORD	n/a	wordpools/wordpool_EN.txt	FAN	3	1	[0, 0, 0]	n/a	FR1	0	R1207J
180.426	0.783	1030155	WORD_OFF	n/a	n/a	FAN	3	1	[0, 0, 0]	n/a	FR1	0	R1207J
181.209	1.616	1030938	WORD	n/a	wordpools/wordpool_EN.txt	COUCH	4	1	[0, 0, 0]	n/a	FR1	0	R1207J
182.825	0.768	1032554	WORD_OFF	n/a	n/a	COUCH	4	1	[0, 0, 0]	n/a	FR1	0	R1207J
183.593	1.617	1033322	WORD	n/a	wordpools/wordpool_EN.txt	SNOW	5	1	[0, 0, 0]	n/a	FR1	0	R1207J
185.21	0.95	1034939	WORD_OFF	n/a	n/a	SNOW	5	1	[0, 0, 0]	n/a	FR1	0	R1207J
186.16	1.616	1035889	WORD	n/a	wordpools/wordpool_EN.txt	TEA	6	1	[0, 0, 0]	n/a	FR1	0	R1207J
187.776	0.9	1037505	WORD_OFF	n/a	n/a	TEA	6	1	[0, 0, 0]	n/a	FR1	0	R1207J
188.676	1.601	1038405	WORD	n/a	wordpools/wordpool_EN.txt	DRUM	7	1	[0, 0, 0]	n/a	FR1	0	R1207J
190.277	0.934	1040006	WORD_OFF	n/a	n/a	DRUM	7	1	[0, 0, 0]	n/a	FR1	0	R1207J
191.211	1.615	1040940	WORD	n/a	wordpools/wordpool_EN.txt	STEM	8	1	[0, 0, 0]	n/a	FR1	0	R1207J
192.826	0.802	1042555	WORD_OFF	n/a	n/a	STEM	8	1	[0, 0, 0]	n/a	FR1	0	R1207J
193.628	1.616	1043357	WORD	n/a	wordpools/wordpool_EN.txt	PIE	9	1	[0, 0, 0]	n/a	FR1	0	R1207J
195.244	0.917	1044973	WORD_OFF	n/a	n/a	PIE	9	1	[0, 0, 0]	n/a	FR1	0	R1207J
196.161	1.616	1045890	WORD	n/a	wordpools/wordpool_EN.txt	VINE	10	1	[0, 0, 0]	n/a	FR1	0	R1207J
197.777	0.917	1047506	WORD_OFF	n/a	n/a	VINE	10	1	[0, 0, 0]	n/a	FR1	0	R1207J
198.694	1.618	1048423	WORD	n/a	wordpools/wordpool_EN.txt	FUR	11	1	[0, 0, 0]	n/a	FR1	0	R1207J
200.312	0.95	1050041	WORD_OFF	n/a	n/a	FUR	11	1	[0, 0, 0]	n/a	FR1	0	R1207J
201.262	1.616	1050991	WORD	n/a	wordpools/wordpool_EN.txt	EEL	12	1	[0, 0, 0]	n/a	FR1	0	R1207J
202.878	0.0	1052607	WORD_OFF	n/a	n/a	EEL	12	1	[0, 0, 0]	n/a	FR1	0	R1207J
202.878	0.001	1052607	DISTRACT_START	n/a	n/a	n/a	-999	1	[0, 0, 0]	n/a	FR1	0	R1207J
202.879	0.015	1052608	START	n/a	n/a	n/a	-999	1	[-999, -999, -999]	n/a	FR1	0	R1207J
202.894	2.468	1052623	PROB	2.468	n/a	n/a	-999	1	[1, 1, 1]	3	FR1	0	R1207J
205.362	2.151	1055091	PROB	2.151	n/a	n/a	-999	1	[4, 6, 1]	11	FR1	0	R1207J
207.513	3.05	1057242	PROB	3.05	n/a	n/a	-999	1	[7, 3, 6]	16	FR1	0	R1207J
210.563	3.266	1060292	PROB	3.266	n/a	n/a	-999	1	[8, 1, 4]	13	FR1	0	R1207J
213.829	3.818	1063558	PROB	3.818	n/a	n/a	-999	1	[1, 8, 8]	17	FR1	0	R1207J
217.647	3.618	1067376	PROB	3.618	n/a	n/a	-999	1	[2, 2, 3]	7	FR1	0	R1207J
221.265	4.098	1070994	PROB	4.098	n/a	n/a	-999	1	[7, 9, 2]	18	FR1	0	R1207J
225.363	0.019	1075092	STOP	n/a	n/a	n/a	-999	1	[-999, -999, -999]	n/a	FR1	0	R1207J
225.382	0.599	1075111	DISTRACT_END	n/a	n/a	n/a	-999	1	[0, 0, 0]	n/a	FR1	0	R1207J
225.981	0.518	1075710	RETRIEVAL_ORIENT	n/a	n/a	n/a	-999	1	[0, 0, 0]	n/a	FR1	0	R1207J
226.499	1.18	1076228	REC_START	n/a	n/a	n/a	-999	1	[0, 0, 0]	n/a	FR1	0	R1207J
227.679	1.482	1077408	REC_WORD	1.482	n/a	EEL	-999	1	[0, 0, 0]	n/a	FR1	0	R1207J
229.161	3.714	1078890	REC_WORD	3.714	n/a	VINE	-999	1	[0, 0, 0]	n/a	FR1	0	R1207J
232.875	2.619	1082604	REC_WORD	2.619	n/a	SNOW	-999	1	[0, 0, 0]	n/a	FR1	0	R1207J
235.494	7.534	1085223	REC_WORD	7.534	n/a	WATCH	-999	1	[0, 0, 0]	n/a	FR1	0	R1207J
243.028	8.525	1092757	REC_WORD	8.525	n/a	GRAPE	-999	1	[0, 0, 0]	n/a	FR1	0	R1207J
251.553	4.956	1101282	REC_WORD	4.956	n/a	HAT	-999	1	[0, 0, 0]	n/a	FR1	0	R1207J
256.509	4.444	1106238	REC_END	n/a	n/a	n/a	-999	1	[0, 0, 0]	n/a	FR1	0	R1207J
260.953	0.5	1110682	TRIAL	n/a	n/a	n/a	-999	2	[0, 0, 0]	n/a	FR1	0	R1207J
261.453	10.428	1111182	COUNTDOWN_START	n/a	n/a	n/a	-999	2	[0, 0, 0]	n/a	FR1	0	R1207J
271.881	0.006	1121610	COUNTDOWN_END	n/a	n/a	n/a	-999	2	[0, 0, 0]	n/a	FR1	0	R1207J
271.887	1.618	1121616	ORIENT	n/a	n/a	n/a	-999	2	[0, 0, 0]	n/a	FR1	0	R1207J
273.505	2.05	1123234	ORIENT_OFF	n/a	n/a	n/a	-999	2	[0, 0, 0]	n/a	FR1	0	R1207J
275.555	1.617	1125284	WORD	n/a	wordpools/wordpool_EN.txt	LEAF	1	2	[0, 0, 0]	n/a	FR1	0	R1207J
277.172	0.9	1126901	WORD_OFF	n/a	n/a	LEAF	1	2	[0, 0, 0]	n/a	FR1	0	R1207J
278.072	1.616	1127801	WORD	n/a	wordpools/wordpool_EN.txt	GOLD	2	2	[0, 0, 0]	n/a	FR1	0	R1207J
279.688	0.951	1129417	WORD_OFF	n/a	n/a	GOLD	2	2	[0, 0, 0]	n/a	FR1	0	R1207J
280.639	1.617	1130368	WORD	n/a	wordpools/wordpool_EN.txt	KEY	3	2	[0, 0, 0]	n/a	FR1	0	R1207J
282.256	1.017	1131985	WORD_OFF	n/a	n/a	KEY	3	2	[0, 0, 0]	n/a	FR1	0	R1207J
283.273	1.616	1133002	WORD	n/a	wordpools/wordpool_EN.txt	TRASH	4	2	[0, 0, 0]	n/a	FR1	0	R1207J
284.889	0.966	1134618	WORD_OFF	n/a	n/a	TRASH	4	2	[0, 0, 0]	n/a	FR1	0	R1207J
285.855	1.618	1135584	WORD	n/a	wordpools/wordpool_EN.txt	MOLE	5	2	[0, 0, 0]	n/a	FR1	0	R1207J
287.473	0.967	1137202	WORD_OFF	n/a	n/a	MOLE	5	2	[0, 0, 0]	n/a	FR1	0	R1207J
288.44	1.617	1138169	WORD	n/a	wordpools/wordpool_EN.txt	PEARL	6	2	[0, 0, 0]	n/a	FR1	0	R1207J
290.057	0.916	1139786	WORD_OFF	n/a	n/a	PEARL	6	2	[0, 0, 0]	n/a	FR1	0	R1207J
290.973	1.617	1140702	WORD	n/a	wordpools/wordpool_EN.txt	TEETH	7	2	[0, 0, 0]	n/a	FR1	0	R1207J
292.59	0.901	1142319	WORD_OFF	n/a	n/a	TEETH	7	2	[0, 0, 0]	n/a	FR1	0	R1207J
293.491	1.617	1143220	WORD	n/a	wordpools/wordpool_EN.txt	DART	8	2	[0, 0, 0]	n/a	FR1	0	R1207J
295.108	0.832	1144837	WORD_OFF	n/a	n/a	DART	8	2	[0, 0, 0]	n/a	FR1	0	R1207J
295.94	1.601	1145669	WORD	n/a	wordpools/wordpool_EN.txt	ZOO	9	2	[0, 0, 0]	n/a	FR1	0	R1207J
297.541	0.934	1147270	WORD_OFF	n/a	n/a	ZOO	9	2	[0, 0, 0]	n/a	FR1	0	R1207J
298.475	1.617	1148204	WORD	n/a	wordpools/wordpool_EN.txt	CHEEK	10	2	[0, 0, 0]	n/a	FR1	0	R1207J
300.092	0.967	1149821	WORD_OFF	n/a	n/a	CHEEK	10	2	[0, 0, 0]	n/a	FR1	0	R1207J
301.059	1.615	1150788	WORD	n/a	wordpools/wordpool_EN.txt	TOAST	11	2	[0, 0, 0]	n/a	FR1	0	R1207J
302.674	0.768	1152403	WORD_OFF	n/a	n/a	TOAST	11	2	[0, 0, 0]	n/a	FR1	0	R1207J
303.442	1.617	1153171	WORD	n/a	wordpools/wordpool_EN.txt	SHEEP	12	2	[0, 0, 0]	n/a	FR1	0	R1207J
305.059	0.0	1154788	DISTRACT_START	n/a	n/a	n/a	-999	2	[0, 0, 0]	n/a	FR1	0	R1207J
305.059	0.001	1154788	WORD_OFF	n/a	n/a	SHEEP	12	2	[0, 0, 0]	n/a	FR1	0	R1207J
305.06	0.016	1154789	START	n/a	n/a	n/a	-999	2	[-999, -999, -999]	n/a	FR1	0	R1207J
305.076	4.301	1154805	PROB	4.301	n/a	n/a	-999	2	[7, 7, 6]	20	FR1	0	R1207J
309.377	2.699	1159106	PROB	2.699	n/a	n/a	-999	2	[2, 4, 6]	12	FR1	0	R1207J
312.076	2.534	1161805	PROB	2.534	n/a	n/a	-999	2	[5, 3, 3]	11	FR1	0	R1207J
314.61	6.001	1164339	PROB	6.001	n/a	n/a	-999	2	[4, 9, 5]	18	FR1	0	R1207J
320.611	3.701	1170340	PROB	3.701	n/a	n/a	-999	2	[8, 4, 4]	16	FR1	0	R1207J
324.312	5.16	1174041	PROB	5.16	n/a	n/a	-999	2	[9, 6, 6]	21	FR1	0	R1207J
329.472	0.007	1179201	STOP	n/a	n/a	n/a	-999	2	[-999, -999, -999]	n/a	FR1	0	R1207J
329.479	0.567	1179208	DISTRACT_END	n/a	n/a	n/a	-999	2	[0, 0, 0]	n/a	FR1	0	R1207J
330.046	0.518	1179775	RETRIEVAL_ORIENT	n/a	n/a	n/a	-999	2	[0, 0, 0]	n/a	FR1	0	R1207J
330.564	1.666	1180293	REC_START	n/a	n/a	n/a	-999	2	[0, 0, 0]	n/a	FR1	0	R1207J
332.23	4.054	1181959	REC_WORD	4.054	n/a	TRASH	-999	2	[0, 0, 0]	n/a	FR1	0	R1207J
336.284	1.925	1186013	REC_WORD	1.925	n/a	PEARL	-999	2	[0, 0, 0]	n/a	FR1	0	R1207J
338.209	7.849	1187938	REC_WORD	7.849	n/a	TEETH	-999	2	[0, 0, 0]	n/a	FR1	0	R1207J
346.058	13.283	1195787	REC_WORD	13.283	n/a	ZOO	-999	2	[0, 0, 0]	n/a	FR1	0	R1207J
359.341	1.234	1209070	REC_WORD	1.234	n/a	TABLE	-999	2	[0, 0, 0]	n/a	FR1	0	R1207J
360.575	4.509	1210304	REC_END	n/a	n/a	n/a	-999	2	[0, 0, 0]	n/a	FR1	0	R1207J
365.084	0.5	1214813	TRIAL	n/a	n/a	n/a	-999	3	[0, 0, 0]	n/a	FR1	0	R1207J
365.584	10.428	1215313	COUNTDOWN_START	n/a	n/a	n/a	-999	3	[0, 0, 0]	n/a	FR1	0	R1207J
376.012	0.006	1225741	COUNTDOWN_END	n/a	n/a	n/a	-999	3	[0, 0, 0]	n/a	FR1	0	R1207J
376.018	1.601	1225747	ORIENT	n/a	n/a	n/a	-999	3	[0, 0, 0]	n/a	FR1	0	R1207J
377.619	1.984	1227348	ORIENT_OFF	n/a	n/a	n/a	-999	3	[0, 0, 0]	n/a	FR1	0	R1207J
379.603	1.617	1229332	WORD	n/a	wordpools/wordpool_EN.txt	PLATE	1	3	[0, 0, 0]	n/a	FR1	0	R1207J
381.22	0.765	1230949	WORD_OFF	n/a	n/a	PLATE	1	3	[0, 0, 0]	n/a	FR1	0	R1207J
381.985	1.601	1231714	WORD	n/a	wordpools/wordpool_EN.txt	SQUARE	2	3	[0, 0, 0]	n/a	FR1	0	R1207J
383.586	0.984	1233315	WORD_OFF	n/a	n/a	SQUARE	2	3	[0, 0, 0]	n/a	FR1	0	R1207J
384.57	1.617	1234299	WORD	n/a	wordpools/wordpool_EN.txt	HOSE	3	3	[0, 0, 0]	n/a	FR1	0	R1207J
386.187	0.799	1235916	WORD_OFF	n/a	n/a	HOSE	3	3	[0, 0, 0]	n/a	FR1	0	R1207J
386.986	1.618	1236715	WORD	n/a	wordpools/wordpool_EN.txt	CUP	4	3	[0, 0, 0]	n/a	FR1	0	R1207J
388.604	0.967	1238333	WORD_OFF	n/a	n/a	CUP	4	3	[0, 0, 0]	n/a	FR1	0	R1207J
389.571	1.617	1239300	WORD	n/a	wordpools/wordpool_EN.txt	BATH	5	3	[0, 0, 0]	n/a	FR1	0	R1207J
391.188	0.866	1240917	WORD_OFF	n/a	n/a	BATH	5	3	[0, 0, 0]	n/a	FR1	0	R1207J
392.054	1.616	1241783	WORD	n/a	wordpools/wordpool_EN.txt	BLUSH	6	3	[0, 0, 0]	n/a	FR1	0	R1207J
393.67	0.818	1243398	WORD_OFF	n/a	n/a	BLUSH	6	3	[0, 0, 0]	n/a	FR1	0	R1207J
394.488	1.617	1244216	WORD	n/a	wordpools/wordpool_EN.txt	NAIL	7	3	[0, 0, 0]	n/a	FR1	0	R1207J
396.105	0.816	1245833	WORD_OFF	n/a	n/a	NAIL	7	3	[0, 0, 0]	n/a	FR1	0	R1207J
396.921	1.617	1246649	WORD	n/a	wordpools/wordpool_EN.txt	PIN	8	3	[0, 0, 0]	n/a	FR1	0	R1207J
398.538	0.817	1248266	WORD_OFF	n/a	n/a	PIN	8	3	[0, 0, 0]	n/a	FR1	0	R1207J
399.355	1.616	1249083	WORD	n/a	wordpools/wordpool_EN.txt	BED	9	3	[0, 0, 0]	n/a	FR1	0	R1207J
400.971	0.967	1250699	WORD_OFF	n/a	n/a	BED	9	3	[0, 0, 0]	n/a	FR1	0	R1207J
401.938	1.618	1251666	WORD	n/a	wordpools/wordpool_EN.txt	PIPE	10	3	[0, 0, 0]	n/a	FR1	0	R1207J
403.556	0.866	1253284	WORD_OFF	n/a	n/a	PIPE	10	3	[0, 0, 0]	n/a	FR1	0	R1207J
404.422	1.617	1254150	WORD	n/a	wordpools/wordpool_EN.txt	JUDGE	11	3	[0, 0, 0]	n/a	FR1	0	R1207J
406.039	0.916	1255767	WORD_OFF	n/a	n/a	JUDGE	11	3	[0, 0, 0]	n/a	FR1	0	R1207J
406.955	1.618	1256683	WORD	n/a	wordpools/wordpool_EN.txt	SHIELD	12	3	[0, 0, 0]	n/a	FR1	0	R1207J
408.573	0.0	1258301	WORD_OFF	n/a	n/a	SHIELD	12	3	[0, 0, 0]	n/a	FR1	0	R1207J
408.573	0.001	1258301	DISTRACT_START	n/a	n/a	n/a	-999	3	[0, 0, 0]	n/a	FR1	0	R1207J
408.574	0.016	1258302	START	n/a	n/a	n/a	-999	3	[-999, -999, -999]	n/a	FR1	0	R1207J
408.59	3.5	1258318	PROB	3.5	n/a	n/a	-999	3	[4, 7, 2]	13	FR1	0	R1207J
412.09	2.916	1261818	PROB	2.916	n/a	n/a	-999	3	[1, 7, 4]	12	FR1	0	R1207J
415.006	2.701	1264734	PROB	2.701	n/a	n/a	-999	3	[1, 1, 9]	11	FR1	0	R1207J
417.707	5.435	1267435	PROB	5.435	n/a	n/a	-999	3	[9, 4, 3]	16	FR1	0	R1207J
423.142	5.384	1272870	PROB	5.384	n/a	n/a	-999	3	[5, 6, 3]	14	FR1	0	R1207J
428.526	6.646	1278254	PROB	6.646	n/a	n/a	-999	3	[7, 9, 6]	15	FR1	0	R1207J
435.172	0.021	1284900	STOP	n/a	n/a	n/a	-999	3	[-999, -999, -999]	n/a	FR1	0	R1207J
435.193	0.683	1284921	DISTRACT_END	n/a	n/a	n/a	-999	3	[0, 0, 0]	n/a	FR1	0	R1207J
435.876	0.518	1285604	RETRIEVAL_ORIENT	n/a	n/a	n/a	-999	3	[0, 0, 0]	n/a	FR1	0	R1207J
436.394	4.09	1286122	REC_START	n/a	n/a	n/a	-999	3	[0, 0, 0]	n/a	FR1	0	R1207J
440.484	2.309	1290212	REC_WORD_VV	2.309	n/a	<>	-999	3	[0, 0, 0]	n/a	FR1	0	R1207J
442.793	6.611	1292521	REC_WORD	6.611	n/a	VINE	-999	3	[0, 0, 0]	n/a	FR1	0	R1207J
449.404	11.635	1299132	REC_WORD	11.635	n/a	SQUARE	-999	3	[0, 0, 0]	n/a	FR1	0	R1207J
461.039	5.366	1310767	REC_WORD	5.366	n/a	COUCH	-999	3	[0, 0, 0]	n/a	FR1	0	R1207J
466.405	4.376	1316133	REC_END	n/a	n/a	n/a	-999	3	[0, 0, 0]	n/a	FR1	0	R1207J
470.781	0.5	1320509	TRIAL	n/a	n/a	n/a	-999	4	[0, 0, 0]	n/a	FR1	0	R1207J
471.281	10.428	1321009	COUNTDOWN_START	n/a	n/a	n/a	-999	4	[0, 0, 0]	n/a	FR1	0	R1207J
481.709	0.006	1331437	COUNTDOWN_END	n/a	n/a	n/a	-999	4	[0, 0, 0]	n/a	FR1	0	R1207J
481.715	1.618	1331443	ORIENT	n/a	n/a	n/a	-999	4	[0, 0, 0]	n/a	FR1	0	R1207J
483.333	2.184	1333061	ORIENT_OFF	n/a	n/a	n/a	-999	4	[0, 0, 0]	n/a	FR1	0	R1207J
485.517	1.617	1335245	WORD	n/a	wordpools/wordpool_EN.txt	POLE	1	4	[0, 0, 0]	n/a	FR1	0	R1207J
487.134	0.766	1336862	WORD_OFF	n/a	n/a	POLE	1	4	[0, 0, 0]	n/a	FR1	0	R1207J
487.9	1.618	1337628	WORD	n/a	wordpools/wordpool_EN.txt	STRING	2	4	[0, 0, 0]	n/a	FR1	0	R1207J
489.518	0.799	1339246	WORD_OFF	n/a	n/a	STRING	2	4	[0, 0, 0]	n/a	FR1	0	R1207J
490.317	1.616	1340045	WORD	n/a	wordpools/wordpool_EN.txt	SUIT	3	4	[0, 0, 0]	n/a	FR1	0	R1207J
491.933	0.967	1341661	WORD_OFF	n/a	n/a	SUIT	3	4	[0, 0, 0]	n/a	FR1	0	R1207J
492.9	1.618	1342628	WORD	n/a	wordpools/wordpool_EN.txt	BADGE	4	4	[0, 0, 0]	n/a	FR1	0	R1207J
494.518	0.883	1344246	WORD_OFF	n/a	n/a	BADGE	4	4	[0, 0, 0]	n/a	FR1	0	R1207J
495.401	1.616	1345129	WORD	n/a	wordpools/wordpool_EN.txt	RUG	5	4	[0, 0, 0]	n/a	FR1	0	R1207J
497.017	1.001	1346745	WORD_OFF	n/a	n/a	RUG	5	4	[0, 0, 0]	n/a	FR1	0	R1207J
498.018	1.618	1347746	WORD	n/a	wordpools/wordpool_EN.txt	WORLD	6	4	[0, 0, 0]	n/a	FR1	0	R1207J
499.636	0.966	1349364	WORD_OFF	n/a	n/a	WORLD	6	4	[0, 0, 0]	n/a	FR1	0	R1207J
500.602	1.617	1350330	WORD	n/a	wordpools/wordpool_EN.txt	LAMB	7	4	[0, 0, 0]	n/a	FR1	0	R1207J
502.219	0.983	1351947	WORD_OFF	n/a	n/a	LAMB	7	4	[0, 0, 0]	n/a	FR1	0	R1207J
503.202	1.616	1352930	WORD	n/a	wordpools/wordpool_EN.txt	RAKE	8	4	[0, 0, 0]	n/a	FR1	0	R1207J
504.818	1.017	1354546	WORD_OFF	n/a	n/a	RAKE	8	4	[0, 0, 0]	n/a	FR1	0	R1207J
505.835	1.618	1355563	WORD	n/a	wordpools/wordpool_EN.txt	CAR	9	4	[0, 0, 0]	n/a	FR1	0	R1207J
507.453	0.867	1357181	WORD_OFF	n/a	n/a	CAR	9	4	[0, 0, 0]	n/a	FR1	0	R1207J
508.32	1.616	1358048	WORD	n/a	wordpools/wordpool_EN.txt	STAR	10	4	[0, 0, 0]	n/a	FR1	0	R1207J
509.936	0.933	1359664	WORD_OFF	n/a	n/a	STAR	10	4	[0, 0, 0]	n/a	FR1	0	R1207J
510.869	1.618	1360597	WORD	n/a	wordpools/wordpool_EN.txt	MOON	11	4	[0, 0, 0]	n/a	FR1	0	R1207J
512.487	0.917	1362215	WORD_OFF	n/a	n/a	MOON	11	4	[0, 0, 0]	n/a	FR1	0	R1207J
513.404	1.616	1363132	WORD	n/a	wordpools/wordpool_EN.txt	CORN	12	4	[0, 0, 0]	n/a	FR1	0	R1207J
515.02	0.0	1364748	WORD_OFF	n/a	n/a	CORN	12	4	[0, 0, 0]	n/a	FR1	0	R1207J
515.02	0.0	1364748	DISTRACT_START	n/a	n/a	n/a	-999	4	[0, 0, 0]	n/a	FR1	0	R1207J
515.02	0.017	1364748	START	n/a	n/a	n/a	-999	4	[-999, -999, -999]	n/a	FR1	0	R1207J
515.037	9.101	1364765	PROB	9.101	n/a	n/a	-999	4	[7, 8, 7]	22	FR1	0	R1207J
524.138	4.7	1373866	PROB	4.7	n/a	n/a	-999	4	[7, 7, 6]	20	FR1	0	R1207J
528.838	3.785	1378566	PROB	3.785	n/a	n/a	-999	4	[8, 1, 5]	14	FR1	0	R1207J
532.623	3.336	1382351	PROB	3.336	n/a	n/a	-999	4	[3, 6, 1]	10	FR1	0	R1207J
535.959	0.013	1385687	STOP	n/a	n/a	n/a	-999	4	[-999, -999, -999]	n/a	FR1	0	R1207J
535.972	0.701	1385700	DISTRACT_END	n/a	n/a	n/a	-999	4	[0, 0, 0]	n/a	FR1	0	R1207J
536.673	0.518	1386401	RETRIEVAL_ORIENT	n/a	n/a	n/a	-999	4	[0, 0, 0]	n/a	FR1	0	R1207J
537.191	2.068	1386919	REC_START	n/a	n/a	n/a	-999	4	[0, 0, 0]	n/a	FR1	0	R1207J
539.259	2.209	1388987	REC_WORD_VV	2.209	n/a	<>	-999	4	[0, 0, 0]	n/a	FR1	0	R1207J
541.468	2.289	1391196	REC_WORD	2.289	n/a	HOSE	-999	4	[0, 0, 0]	n/a	FR1	0	R1207J
543.757	5.563	1393485	REC_WORD	5.563	n/a	WATCH	-999	4	[0, 0, 0]	n/a	FR1	0	R1207J
549.32	8.003	1399048	REC_WORD	8.003	n/a	HOLE	-999	4	[0, 0, 0]	n/a	FR1	0	R1207J
557.323	9.878	1407051	REC_WORD	9.878	n/a	CORN	-999	4	[0, 0, 0]	n/a	FR1	0	R1207J
567.201	4.094	1416929	REC_END	n/a	n/a	n/a	-999	4	[0, 0, 0]	n/a	FR1	0	R1207J
571.295	0.5	1421023	TRIAL	n/a	n/a	n/a	-999	5	[0, 0, 0]	n/a	FR1	0	R1207J
571.795	10.428	1421523	COUNTDOWN_START	n/a	n/a	n/a	-999	5	[0, 0, 0]	n/a	FR1	0	R1207J
582.223	0.007	1431951	COUNTDOWN_END	n/a	n/a	n/a	-999	5	[0, 0, 0]	n/a	FR1	0	R1207J
582.23	1.616	1431958	ORIENT	n/a	n/a	n/a	-999	5	[0, 0, 0]	n/a	FR1	0	R1207J
583.846	1.883	1433574	ORIENT_OFF	n/a	n/a	n/a	-999	5	[0, 0, 0]	n/a	FR1	0	R1207J
585.729	1.618	1435457	WORD	n/a	wordpools/wordpool_EN.txt	CROWN	1	5	[0, 0, 0]	n/a	FR1	0	R1207J
587.347	0.934	1437075	WORD_OFF	n/a	n/a	CROWN	1	5	[0, 0, 0]	n/a	FR1	0	R1207J
588.281	1.616	1438009	WORD	n/a	wordpools/wordpool_EN.txt	WEED	2	5	[0, 0, 0]	n/a	FR1	0	R1207J
589.897	0.783	1439625	WORD_OFF	n/a	n/a	WEED	2	5	[0, 0, 0]	n/a	FR1	0	R1207J
590.68	1.618	1440408	WORD	n/a	wordpools/wordpool_EN.txt	PIG	3	5	[0, 0, 0]	n/a	FR1	0	R1207J
592.298	1.0	1442026	WORD_OFF	n/a	n/a	PIG	3	5	[0, 0, 0]	n/a	FR1	0	R1207J
593.298	1.616	1443026	WORD	n/a	wordpools/wordpool_EN.txt	CRANE	4	5	[0, 0, 0]	n/a	FR1	0	R1207J
594.914	0.916	1444642	WORD_OFF	n/a	n/a	CRANE	4	5	[0, 0, 0]	n/a	FR1	0	R1207J
595.83	1.618	1445558	WORD	n/a	wordpools/wordpool_EN.txt	CAT	5	5	[0, 0, 0]	n/a	FR1	0	R1207J
597.448	0.884	1447176	WORD_OFF	n/a	n/a	CAT	5	5	[0, 0, 0]	n/a	FR1	0	R1207J
598.332	1.616	1448060	WORD	n/a	wordpools/wordpool_EN.txt	CAPE	6	5	[0, 0, 0]	n/a	FR1	0	R1207J
599.948	0.817	1449676	WORD_OFF	n/a	n/a	CAPE	6	5	[0, 0, 0]	n/a	FR1	0	R1207J
600.765	1.618	1450493	WORD	n/a	wordpools/wordpool_EN.txt	CALF	7	5	[0, 0, 0]	n/a	FR1	0	R1207J
602.383	0.916	1452111	WORD_OFF	n/a	n/a	CALF	7	5	[0, 0, 0]	n/a	FR1	0	R1207J
603.299	1.616	1453027	WORD	n/a	wordpools/wordpool_EN.txt	CLIFF	8	5	[0, 0, 0]	n/a	FR1	0	R1207J
604.915	0.834	1454643	WORD_OFF	n/a	n/a	CLIFF	8	5	[0, 0, 0]	n/a	FR1	0	R1207J
605.749	1.618	1455477	WORD	n/a	wordpools/wordpool_EN.txt	CLOUD	9	5	[0, 0, 0]	n/a	FR1	0	R1207J
607.367	0.833	1457095	WORD_OFF	n/a	n/a	CLOUD	9	5	[0, 0, 0]	n/a	FR1	0	R1207J
608.2	1.616	1457928	WORD	n/a	wordpools/wordpool_EN.txt	HEN	10	5	[0, 0, 0]	n/a	FR1	0	R1207J
609.816	0.785	1459544	WORD_OFF	n/a	n/a	HEN	10	5	[0, 0, 0]	n/a	FR1	0	R1207J
610.601	1.616	1460329	WORD	n/a	wordpools/wordpool_EN.txt	BEAN	11	5	[0, 0, 0]	n/a	FR1	0	R1207J
612.217	0.884	1461945	WORD_OFF	n/a	n/a	BEAN	11	5	[0, 0, 0]	n/a	FR1	0	R1207J
613.101	1.616	1462829	WORD	n/a	wordpools/wordpool_EN.txt	WOLF	12	5	[0, 0, 0]	n/a	FR1	0	R1207J
614.717	0.0	1464445	WORD_OFF	n/a	n/a	WOLF	12	5	[0, 0, 0]	n/a	FR1	0	R1207J
614.717	0.0	1464445	DISTRACT_START	n/a	n/a	n/a	-999	5	[0, 0, 0]	n/a	FR1	0	R1207J
614.717	0.016	1464445	START	n/a	n/a	n/a	-999	5	[-999, -999, -999]	n/a	FR1	0	R1207J
614.733	4.934	1464461	PROB	4.934	n/a	n/a	-999	5	[8, 8, 4]	20	FR1	0	R1207J
619.667	3.217	1469395	PROB	3.217	n/a	n/a	-999	5	[7, 1, 4]	12	FR1	0	R1207J
622.884	5.369	1472612	PROB	5.369	n/a	n/a	-999	5	[3, 2, 9]	15	FR1	0	R1207J
628.253	6.455	1477981	PROB	6.455	n/a	n/a	-999	5	[5, 3, 9]	17	FR1	0	R1207J
634.708	0.011	1484436	STOP	n/a	n/a	n/a	-999	5	[-999, -999, -999]	n/a	FR1	0	R1207J
634.719	0.568	1484447	DISTRACT_END	n/a	n/a	n/a	-999	5	[0, 0, 0]	n/a	FR1	0	R1207J
635.287	0.517	1485015	RETRIEVAL_ORIENT	n/a	n/a	n/a	-999	5	[0, 0, 0]	n/a	FR1	0	R1207J
635.804	1.238	1485532	REC_START	n/a	n/a	n/a	-999	5	[0, 0, 0]	n/a	FR1	0	R1207J
637.042	1.942	1486770	REC_WORD	1.942	n/a	CLOUD	-999	5	[0, 0, 0]	n/a	FR1	0	R1207J
638.984	16.725	1488712	REC_WORD	16.725	n/a	BEAM	-999	5	[0, 0, 0]	n/a	FR1	0	R1207J
655.709	7.749	1505437	REC_WORD	7.749	n/a	WATCH	-999	5	[0, 0, 0]	n/a	FR1	0	R1207J
663.458	2.357	1513186	REC_WORD	2.357	n/a	HOSE	-999	5	[0, 0, 0]	n/a	FR1	0	R1207J
665.815	4.827	1515543	REC_END	n/a	n/a	n/a	-999	5	[0, 0, 0]	n/a	FR1	0	R1207J
670.642	0.5	1520370	TRIAL	n/a	n/a	n/a	-999	6	[0, 0, 0]	n/a	FR1	0	R1207J
671.142	10.428	1520869	COUNTDOWN_START	n/a	n/a	n/a	-999	6	[0, 0, 0]	n/a	FR1	0	R1207J
681.57	0.007	1531297	COUNTDOWN_END	n/a	n/a	n/a	-999	6	[0, 0, 0]	n/a	FR1	0	R1207J
681.577	1.616	1531304	ORIENT	n/a	n/a	n/a	-999	6	[0, 0, 0]	n/a	FR1	0	R1207J
683.193	2.084	1532920	ORIENT_OFF	n/a	n/a	n/a	-999	6	[0, 0, 0]	n/a	FR1	0	R1207J
685.277	1.616	1535004	WORD	n/a	wordpools/wordpool_EN.txt	SEED	1	6	[0, 0, 0]	n/a	FR1	0	R1207J
686.893	0.817	1536620	WORD_OFF	n/a	n/a	SEED	1	6	[0, 0, 0]	n/a	FR1	0	R1207J
687.71	1.601	1537437	WORD	n/a	wordpools/wordpool_EN.txt	BEAK	2	6	[0, 0, 0]	n/a	FR1	0	R1207J
689.311	0.767	1539038	WORD_OFF	n/a	n/a	BEAK	2	6	[0, 0, 0]	n/a	FR1	0	R1207J
690.078	1.615	1539805	WORD	n/a	wordpools/wordpool_EN.txt	TRAIN	3	6	[0, 0, 0]	n/a	FR1	0	R1207J
691.693	1.001	1541420	WORD_OFF	n/a	n/a	TRAIN	3	6	[0, 0, 0]	n/a	FR1	0	R1207J
692.694	1.618	1542421	WORD	n/a	wordpools/wordpool_EN.txt	ROOT	4	6	[0, 0, 0]	n/a	FR1	0	R1207J
694.312	0.783	1544039	WORD_OFF	n/a	n/a	ROOT	4	6	[0, 0, 0]	n/a	FR1	0	R1207J
695.095	1.616	1544822	WORD	n/a	wordpools/wordpool_EN.txt	JAIL	5	6	[0, 0, 0]	n/a	FR1	0	R1207J
696.711	0.884	1546438	WORD_OFF	n/a	n/a	JAIL	5	6	[0, 0, 0]	n/a	FR1	0	R1207J
697.595	1.617	1547322	WORD	n/a	wordpools/wordpool_EN.txt	FOX	6	6	[0, 0, 0]	n/a	FR1	0	R1207J
699.212	0.851	1548939	WORD_OFF	n/a	n/a	FOX	6	6	[0, 0, 0]	n/a	FR1	0	R1207J
700.063	1.615	1549790	WORD	n/a	wordpools/wordpool_EN.txt	JAR	7	6	[0, 0, 0]	n/a	FR1	0	R1207J
701.678	0.851	1551405	WORD_OFF	n/a	n/a	JAR	7	6	[0, 0, 0]	n/a	FR1	0	R1207J
702.529	1.617	1552256	WORD	n/a	wordpools/wordpool_EN.txt	COW	8	6	[0, 0, 0]	n/a	FR1	0	R1207J
704.146	0.816	1553873	WORD_OFF	n/a	n/a	COW	8	6	[0, 0, 0]	n/a	FR1	0	R1207J
704.962	1.618	1554689	WORD	n/a	wordpools/wordpool_EN.txt	ICE	9	6	[0, 0, 0]	n/a	FR1	0	R1207J
706.58	0.967	1556307	WORD_OFF	n/a	n/a	ICE	9	6	[0, 0, 0]	n/a	FR1	0	R1207J
707.547	1.617	1557274	WORD	n/a	wordpools/wordpool_EN.txt	SHRIMP	10	6	[0, 0, 0]	n/a	FR1	0	R1207J
709.164	1.0	1558891	WORD_OFF	n/a	n/a	SHRIMP	10	6	[0, 0, 0]	n/a	FR1	0	R1207J
710.164	1.615	1559891	WORD	n/a	wordpools/wordpool_EN.txt	PEAR	11	6	[0, 0, 0]	n/a	FR1	0	R1207J
711.779	0.917	1561506	WORD_OFF	n/a	n/a	PEAR	11	6	[0, 0, 0]	n/a	FR1	0	R1207J
712.696	1.618	1562423	WORD	n/a	wordpools/wordpool_EN.txt	EGG	12	6	[0, 0, 0]	n/a	FR1	0	R1207J
714.314	0.0	1564041	WORD_OFF	n/a	n/a	EGG	12	6	[0, 0, 0]	n/a	FR1	0	R1207J
714.314	0.001	1564041	DISTRACT_START	n/a	n/a	n/a	-999	6	[0, 0, 0]	n/a	FR1	0	R1207J
714.315	0.016	1564042	START	n/a	n/a	n/a	-999	6	[-999, -999, -999]	n/a	FR1	0	R1207J
714.331	12.501	1564058	PROB	12.501	n/a	n/a	-999	6	[6, 7, 5]	18	FR1	0	R1207J
726.832	3.884	1576559	PROB	3.884	n/a	n/a	-999	6	[7, 6, 2]	15	FR1	0	R1207J
730.716	4.574	1580443	PROB	4.574	n/a	n/a	-999	6	[4, 7, 2]	13	FR1	0	R1207J
735.29	0.011	1585017	STOP	n/a	n/a	n/a	-999	6	[-999, -999, -999]	n/a	FR1	0	R1207J
735.301	0.582	1585028	DISTRACT_END	n/a	n/a	n/a	-999	6	[0, 0, 0]	n/a	FR1	0	R1207J
735.883	0.518	1585610	RETRIEVAL_ORIENT	n/a	n/a	n/a	-999	6	[0, 0, 0]	n/a	FR1	0	R1207J
736.401	1.379	1586128	REC_START	n/a	n/a	n/a	-999	6	[0, 0, 0]	n/a	FR1	0	R1207J
737.78	1.263	1587507	REC_WORD	1.263	n/a	SHRIMP	-999	6	[0, 0, 0]	n/a	FR1	0	R1207J
739.043	7.554	1588770	REC_WORD	7.554	n/a	COW	-999	6	[0, 0, 0]	n/a	FR1	0	R1207J
746.597	4.462	1596324	REC_WORD	4.462	n/a	BEAN	-999	6	[0, 0, 0]	n/a	FR1	0	R1207J
751.059	6.584	1600786	REC_WORD	6.584	n/a	ICE	-999	6	[0, 0, 0]	n/a	FR1	0	R1207J
757.643	8.769	1607370	REC_WORD	8.769	n/a	COTTON	-999	6	[0, 0, 0]	n/a	FR1	0	R1207J
766.412	4.743	1616139	REC_END	n/a	n/a	n/a	-999	6	[0, 0, 0]	n/a	FR1	0	R1207J
771.155	0.5	1620882	TRIAL	n/a	n/a	n/a	-999	7	[0, 0, 0]	n/a	FR1	0	R1207J
771.655	10.428	1621382	COUNTDOWN_START	n/a	n/a	n/a	-999	7	[0, 0, 0]	n/a	FR1	0	R1207J
782.083	0.007	1631810	COUNTDOWN_END	n/a	n/a	n/a	-999	7	[0, 0, 0]	n/a	FR1	0	R1207J
782.09	1.616	1631817	ORIENT	n/a	n/a	n/a	-999	7	[0, 0, 0]	n/a	FR1	0	R1207J
783.706	2.034	1633433	ORIENT_OFF	n/a	n/a	n/a	-999	7	[0, 0, 0]	n/a	FR1	0	R1207J
785.74	1.618	1635467	WORD	n/a	wordpools/wordpool_EN.txt	WEB	1	7	[0, 0, 0]	n/a	FR1	0	R1207J
787.358	0.833	1637085	WORD_OFF	n/a	n/a	WEB	1	7	[0, 0, 0]	n/a	FR1	0	R1207J
788.191	1.616	1637918	WORD	n/a	wordpools/wordpool_EN.txt	TANK	2	7	[0, 0, 0]	n/a	FR1	0	R1207J
789.807	0.934	1639534	WORD_OFF	n/a	n/a	TANK	2	7	[0, 0, 0]	n/a	FR1	0	R1207J
790.741	1.617	1640468	WORD	n/a	wordpools/wordpool_EN.txt	STREET	3	7	[0, 0, 0]	n/a	FR1	0	R1207J
792.358	0.784	1642085	WORD_OFF	n/a	n/a	STREET	3	7	[0, 0, 0]	n/a	FR1	0	R1207J
793.142	1.616	1642869	WORD	n/a	wordpools/wordpool_EN.txt	GRASS	4	7	[0, 0, 0]	n/a	FR1	0	R1207J
794.758	0.867	1644485	WORD_OFF	n/a	n/a	GRASS	4	7	[0, 0, 0]	n/a	FR1	0	R1207J
795.625	1.617	1645352	WORD	n/a	wordpools/wordpool_EN.txt	MAP	5	7	[0, 0, 0]	n/a	FR1	0	R1207J
797.242	0.85	1646969	WORD_OFF	n/a	n/a	MAP	5	7	[0, 0, 0]	n/a	FR1	0	R1207J
798.092	1.616	1647819	WORD	n/a	wordpools/wordpool_EN.txt	SUN	6	7	[0, 0, 0]	n/a	FR1	0	R1207J
799.708	0.868	1649435	WORD_OFF	n/a	n/a	SUN	6	7	[0, 0, 0]	n/a	FR1	0	R1207J
800.576	1.617	1650303	WORD	n/a	wordpools/wordpool_EN.txt	MAIL	7	7	[0, 0, 0]	n/a	FR1	0	R1207J
802.193	0.983	1651920	WORD_OFF	n/a	n/a	MAIL	7	7	[0, 0, 0]	n/a	FR1	0	R1207J
803.176	1.616	1652903	WORD	n/a	wordpools/wordpool_EN.txt	RAIN	8	7	[0, 0, 0]	n/a	FR1	0	R1207J
804.792	0.801	1654519	WORD_OFF	n/a	n/a	RAIN	8	7	[0, 0, 0]	n/a	FR1	0	R1207J
805.593	1.617	1655320	WORD	n/a	wordpools/wordpool_EN.txt	SHARK	9	7	[0, 0, 0]	n/a	FR1	0	R1207J
807.21	0.967	1656937	WORD_OFF	n/a	n/a	SHARK	9	7	[0, 0, 0]	n/a	FR1	0	R1207J
808.177	1.616	1657904	WORD	n/a	wordpools/wordpool_EN.txt	FLAG	10	7	[0, 0, 0]	n/a	FR1	0	R1207J
809.793	0.784	1659520	WORD_OFF	n/a	n/a	FLAG	10	7	[0, 0, 0]	n/a	FR1	0	R1207J
810.577	1.617	1660304	WORD	n/a	wordpools/wordpool_EN.txt	WAVE	11	7	[0, 0, 0]	n/a	FR1	0	R1207J
812.194	0.782	1661921	WORD_OFF	n/a	n/a	WAVE	11	7	[0, 0, 0]	n/a	FR1	0	R1207J
812.976	1.601	1662703	WORD	n/a	wordpools/wordpool_EN.txt	PLANE	12	7	[0, 0, 0]	n/a	FR1	0	R1207J
814.577	0.0	1664304	WORD_OFF	n/a	n/a	PLANE	12	7	[0, 0, 0]	n/a	FR1	0	R1207J
814.577	0.001	1664304	DISTRACT_START	n/a	n/a	n/a	-999	7	[0, 0, 0]	n/a	FR1	0	R1207J
814.578	0.016	1664305	START	n/a	n/a	n/a	-999	7	[-999, -999, -999]	n/a	FR1	0	R1207J
814.594	4.15	1664321	PROB	4.15	n/a	n/a	-999	7	[8, 9, 1]	18	FR1	0	R1207J
818.744	3.468	1668471	PROB	3.468	n/a	n/a	-999	7	[5, 9, 5]	19	FR1	0	R1207J
822.212	4.367	1671939	PROB	4.367	n/a	n/a	-999	7	[1, 7, 8]	16	FR1	0	R1207J
826.579	2.918	1676306	PROB	2.918	n/a	n/a	-999	7	[7, 3, 6]	16	FR1	0	R1207J
829.497	2.666	1679224	PROB	2.666	n/a	n/a	-999	7	[2, 3, 7]	12	FR1	0	R1207J
832.163	2.723	1681890	PROB	2.723	n/a	n/a	-999	7	[5, 5, 5]	15	FR1	0	R1207J
834.886	0.01	1684613	STOP	n/a	n/a	n/a	-999	7	[-999, -999, -999]	n/a	FR1	0	R1207J
834.896	0.601	1684623	DISTRACT_END	n/a	n/a	n/a	-999	7	[0, 0, 0]	n/a	FR1	0	R1207J
835.497	0.517	1685224	RETRIEVAL_ORIENT	n/a	n/a	n/a	-999	7	[0, 0, 0]	n/a	FR1	0	R1207J
836.014	0.87	1685741	REC_START	n/a	n/a	n/a	-999	7	[0, 0, 0]	n/a	FR1	0	R1207J
836.884	0.897	1686611	REC_WORD_VV	0.897	n/a	<>	-999	7	[0, 0, 0]	n/a	FR1	0	R1207J
837.781	1.769	1687508	REC_WORD	1.769	n/a	RAIN	-999	7	[0, 0, 0]	n/a	FR1	0	R1207J
839.55	6.102	1689277	REC_WORD	6.102	n/a	SNOW	-999	7	[0, 0, 0]	n/a	FR1	0	R1207J
845.652	7.153	1695379	REC_WORD	7.153	n/a	WIND	-999	7	[0, 0, 0]	n/a	FR1	0	R1207J
852.805	5.074	1702532	REC_WORD	5.074	n/a	MAIL	-999	7	[0, 0, 0]	n/a	FR1	0	R1207J
857.879	5.432	1707606	REC_WORD	5.432	n/a	SUN	-999	7	[0, 0, 0]	n/a	FR1	0	R1207J
863.311	2.713	1713038	REC_WORD	2.713	n/a	MOON	-999	7	[0, 0, 0]	n/a	FR1	0	R1207J
866.024	4.228	1715751	REC_END	n/a	n/a	n/a	-999	7	[0, 0, 0]	n/a	FR1	0	R1207J
870.252	0.5	1719979	TRIAL	n/a	n/a	n/a	-999	8	[0, 0, 0]	n/a	FR1	0	R1207J
870.752	10.428	1720479	COUNTDOWN_START	n/a	n/a	n/a	-999	8	[0, 0, 0]	n/a	FR1	0	R1207J
881.18	0.007	1730907	COUNTDOWN_END	n/a	n/a	n/a	-999	8	[0, 0, 0]	n/a	FR1	0	R1207J
881.187	1.615	1730914	ORIENT	n/a	n/a	n/a	-999	8	[0, 0, 0]	n/a	FR1	0	R1207J
882.802	1.852	1732529	ORIENT_OFF	n/a	n/a	n/a	-999	8	[0, 0, 0]	n/a	FR1	0	R1207J
884.654	1.617	1734381	WORD	n/a	wordpools/wordpool_EN.txt	FOOD	1	8	[0, 0, 0]	n/a	FR1	0	R1207J
886.271	0.8	1735998	WORD_OFF	n/a	n/a	FOOD	1	8	[0, 0, 0]	n/a	FR1	0	R1207J
887.071	1.616	1736798	WORD	n/a	wordpools/wordpool_EN.txt	PARK	2	8	[0, 0, 0]	n/a	FR1	0	R1207J
888.687	0.784	1738414	WORD_OFF	n/a	n/a	PARK	2	8	[0, 0, 0]	n/a	FR1	0	R1207J
889.471	1.617	1739198	WORD	n/a	wordpools/wordpool_EN.txt	ANT	3	8	[0, 0, 0]	n/a	FR1	0	R1207J
891.088	0.882	1740815	WORD_OFF	n/a	n/a	ANT	3	8	[0, 0, 0]	n/a	FR1	0	R1207J
891.97	1.618	1741697	WORD	n/a	wordpools/wordpool_EN.txt	PHONE	4	8	[0, 0, 0]	n/a	FR1	0	R1207J
893.588	0.9	1743315	WORD_OFF	n/a	n/a	PHONE	4	8	[0, 0, 0]	n/a	FR1	0	R1207J
894.488	1.617	1744215	WORD	n/a	wordpools/wordpool_EN.txt	HOOF	5	8	[0, 0, 0]	n/a	FR1	0	R1207J
896.105	0.899	1745832	WORD_OFF	n/a	n/a	HOOF	5	8	[0, 0, 0]	n/a	FR1	0	R1207J
897.004	1.602	1746731	WORD	n/a	wordpools/wordpool_EN.txt	TAIL	6	8	[0, 0, 0]	n/a	FR1	0	R1207J
898.606	0.95	1748333	WORD_OFF	n/a	n/a	TAIL	6	8	[0, 0, 0]	n/a	FR1	0	R1207J
899.556	1.617	1749283	WORD	n/a	wordpools/wordpool_EN.txt	BREAD	7	8	[0, 0, 0]	n/a	FR1	0	R1207J
901.173	0.916	1750900	WORD_OFF	n/a	n/a	BREAD	7	8	[0, 0, 0]	n/a	FR1	0	R1207J
902.089	1.616	1751816	WORD	n/a	wordpools/wordpool_EN.txt	LOCK	8	8	[0, 0, 0]	n/a	FR1	0	R1207J
903.705	0.885	1753432	WORD_OFF	n/a	n/a	LOCK	8	8	[0, 0, 0]	n/a	FR1	0	R1207J
904.59	1.617	1754317	WORD	n/a	wordpools/wordpool_EN.txt	ROCK	9	8	[0, 0, 0]	n/a	FR1	0	R1207J
906.207	0.833	1755934	WORD_OFF	n/a	n/a	ROCK	9	8	[0, 0, 0]	n/a	FR1	0	R1207J
907.04	1.617	1756767	WORD	n/a	wordpools/wordpool_EN.txt	SEAL	10	8	[0, 0, 0]	n/a	FR1	0	R1207J
908.657	0.9	1758384	WORD_OFF	n/a	n/a	SEAL	10	8	[0, 0, 0]	n/a	FR1	0	R1207J
909.557	1.617	1759284	WORD	n/a	wordpools/wordpool_EN.txt	BEE	11	8	[0, 0, 0]	n/a	FR1	0	R1207J
911.174	0.917	1760901	WORD_OFF	n/a	n/a	BEE	11	8	[0, 0, 0]	n/a	FR1	0	R1207J
912.091	1.615	1761818	WORD	n/a	wordpools/wordpool_EN.txt	WING	12	8	[0, 0, 0]	n/a	FR1	0	R1207J
913.706	0.0	1763433	DISTRACT_START	n/a	n/a	n/a	-999	8	[0, 0, 0]	n/a	FR1	0	R1207J
913.706	0.001	1763433	WORD_OFF	n/a	n/a	WING	12	8	[0, 0, 0]	n/a	FR1	0	R1207J
913.707	0.016	1763434	START	n/a	n/a	n/a	-999	8	[-999, -999, -999]	n/a	FR1	0	R1207J
913.723	7.386	1763450	PROB	7.386	n/a	n/a	-999	8	[7, 7, 4]	16	FR1	0	R1207J
921.109	5.699	1770836	PROB	5.699	n/a	n/a	-999	8	[2, 7, 2]	11	FR1	0	R1207J
926.808	5.319	1776535	PROB	5.319	n/a	n/a	-999	8	[5, 5, 6]	16	FR1	0	R1207J
932.127	17.874	1781854	PROB	17.874	n/a	n/a	-999	8	[7, 5, 6]	20	FR1	0	R1207J
950.001	0.01	1799727	STOP	n/a	n/a	n/a	-999	8	[-999, -999, -999]	n/a	FR1	0	R1207J
950.011	0.651	1799737	DISTRACT_END	n/a	n/a	n/a	-999	8	[0, 0, 0]	n/a	FR1	0	R1207J
950.662	0.518	1800388	RETRIEVAL_ORIENT	n/a	n/a	n/a	-999	8	[0, 0, 0]	n/a	FR1	0	R1207J
951.18	2.128	1800906	REC_START	n/a	n/a	n/a	-999	8	[0, 0, 0]	n/a	FR1	0	R1207J
953.308	5.162	1803034	REC_WORD	5.162	n/a	FOOD	-999	8	[0, 0, 0]	n/a	FR1	0	R1207J
958.47	1.801	1808196	REC_WORD	1.801	n/a	BEE	-999	8	[0, 0, 0]	n/a	FR1	0	R1207J
960.271	11.658	1809997	REC_WORD	11.658	n/a	WING	-999	8	[0, 0, 0]	n/a	FR1	0	R1207J
971.929	9.26	1821655	REC_WORD	9.26	n/a	ANT	-999	8	[0, 0, 0]	n/a	FR1	0	R1207J
981.189	4.261	1830915	REC_END	n/a	n/a	n/a	-999	8	[0, 0, 0]	n/a	FR1	0	R1207J
985.45	0.5	1835176	TRIAL	n/a	n/a	n/a	-999	9	[0, 0, 0]	n/a	FR1	0	R1207J
985.95	10.428	1835676	COUNTDOWN_START	n/a	n/a	n/a	-999	9	[0, 0, 0]	n/a	FR1	0	R1207J
996.378	0.007	1846104	COUNTDOWN_END	n/a	n/a	n/a	-999	9	[0, 0, 0]	n/a	FR1	0	R1207J
996.385	1.616	1846111	ORIENT	n/a	n/a	n/a	-999	9	[0, 0, 0]	n/a	FR1	0	R1207J
998.001	1.984	1847727	ORIENT_OFF	n/a	n/a	n/a	-999	9	[0, 0, 0]	n/a	FR1	0	R1207J
999.985	1.617	1849711	WORD	n/a	wordpools/wordpool_EN.txt	FOOT	1	9	[0, 0, 0]	n/a	FR1	0	R1207J
1001.602	0.967	1851328	WORD_OFF	n/a	n/a	FOOT	1	9	[0, 0, 0]	n/a	FR1	0	R1207J
1002.569	1.617	1852295	WORD	n/a	wordpools/wordpool_EN.txt	CHIN	2	9	[0, 0, 0]	n/a	FR1	0	R1207J
1004.186	0.85	1853912	WORD_OFF	n/a	n/a	CHIN	2	9	[0, 0, 0]	n/a	FR1	0	R1207J
1005.036	1.617	1854762	WORD	n/a	wordpools/wordpool_EN.txt	BUSH	3	9	[0, 0, 0]	n/a	FR1	0	R1207J
1006.653	0.934	1856379	WORD_OFF	n/a	n/a	BUSH	3	9	[0, 0, 0]	n/a	FR1	0	R1207J
1007.587	1.617	1857313	WORD	n/a	wordpools/wordpool_EN.txt	LEG	4	9	[0, 0, 0]	n/a	FR1	0	R1207J
1009.204	0.782	1858930	WORD_OFF	n/a	n/a	LEG	4	9	[0, 0, 0]	n/a	FR1	0	R1207J
1009.986	1.618	1859712	WORD	n/a	wordpools/wordpool_EN.txt	BROOM	5	9	[0, 0, 0]	n/a	FR1	0	R1207J
1011.604	0.8	1861330	WORD_OFF	n/a	n/a	BROOM	5	9	[0, 0, 0]	n/a	FR1	0	R1207J
1012.404	1.616	1862130	WORD	n/a	wordpools/wordpool_EN.txt	JEEP	6	9	[0, 0, 0]	n/a	FR1	0	R1207J
1014.02	0.983	1863746	WORD_OFF	n/a	n/a	JEEP	6	9	[0, 0, 0]	n/a	FR1	0	R1207J
1015.003	1.618	1864729	WORD	n/a	wordpools/wordpool_EN.txt	HEART	7	9	[0, 0, 0]	n/a	FR1	0	R1207J
1016.621	1.017	1866347	WORD_OFF	n/a	n/a	HEART	7	9	[0, 0, 0]	n/a	FR1	0	R1207J
1017.638	1.617	1867364	WORD	n/a	wordpools/wordpool_EN.txt	PEN	8	9	[0, 0, 0]	n/a	FR1	0	R1207J
1019.255	0.967	1868981	WORD_OFF	n/a	n/a	PEN	8	9	[0, 0, 0]	n/a	FR1	0	R1207J
1020.222	1.616	1869948	WORD	n/a	wordpools/wordpool_EN.txt	HORSE	9	9	[0, 0, 0]	n/a	FR1	0	R1207J
1021.838	0.9	1871564	WORD_OFF	n/a	n/a	HORSE	9	9	[0, 0, 0]	n/a	FR1	0	R1207J
1022.738	1.618	1872464	WORD	n/a	wordpools/wordpool_EN.txt	ARM	10	9	[0, 0, 0]	n/a	FR1	0	R1207J
1024.356	0.883	1874082	WORD_OFF	n/a	n/a	ARM	10	9	[0, 0, 0]	n/a	FR1	0	R1207J
1025.239	1.616	1874965	WORD	n/a	wordpools/wordpool_EN.txt	CHALK	11	9	[0, 0, 0]	n/a	FR1	0	R1207J
1026.855	1.0	1876581	WORD_OFF	n/a	n/a	CHALK	11	9	[0, 0, 0]	n/a	FR1	0	R1207J
1027.855	1.601	1877581	WORD	n/a	wordpools/wordpool_EN.txt	APE	12	9	[0, 0, 0]	n/a	FR1	0	R1207J
1029.456	0.0	1879182	WORD_OFF	n/a	n/a	APE	12	9	[0, 0, 0]	n/a	FR1	0	R1207J
1029.456	0.001	1879182	DISTRACT_START	n/a	n/a	n/a	-999	9	[0, 0, 0]	n/a	FR1	0	R1207J
1029.457	0.016	1879183	START	n/a	n/a	n/a	-999	9	[-999, -999, -999]	n/a	FR1	0	R1207J
1029.473	4.751	1879199	PROB	4.751	n/a	n/a	-999	9	[9, 6, 2]	17	FR1	0	R1207J
1034.224	3.0	1883950	PROB	3.0	n/a	n/a	-999	9	[1, 1, 5]	7	FR1	0	R1207J
1037.224	4.318	1886950	PROB	4.318	n/a	n/a	-999	9	[7, 7, 4]	18	FR1	0	R1207J
1041.542	2.265	1891268	PROB	2.265	n/a	n/a	-999	9	[8, 1, 2]	11	FR1	0	R1207J
1043.807	6.56	1893533	PROB	6.56	n/a	n/a	-999	9	[6, 9, 9]	24	FR1	0	R1207J
1050.367	0.009	1900093	STOP	n/a	n/a	n/a	-999	9	[-999, -999, -999]	n/a	FR1	0	R1207J
1050.376	0.566	1900102	DISTRACT_END	n/a	n/a	n/a	-999	9	[0, 0, 0]	n/a	FR1	0	R1207J
1050.942	0.519	1900668	RETRIEVAL_ORIENT	n/a	n/a	n/a	-999	9	[0, 0, 0]	n/a	FR1	0	R1207J
1051.461	1.221	1901187	REC_START	n/a	n/a	n/a	-999	9	[0, 0, 0]	n/a	FR1	0	R1207J
1052.682	1.302	1902408	REC_WORD	1.302	n/a	FOOT	-999	9	[0, 0, 0]	n/a	FR1	0	R1207J
1053.984	1.564	1903710	REC_WORD	1.564	n/a	BUG	-999	9	[0, 0, 0]	n/a	FR1	0	R1207J
1055.548	8.049	1905274	REC_WORD	8.049	n/a	ARM	-999	9	[0, 0, 0]	n/a	FR1	0	R1207J
1063.597	16.292	1913323	REC_WORD	16.292	n/a	HORSE	-999	9	[0, 0, 0]	n/a	FR1	0	R1207J
1079.889	1.581	1929615	REC_WORD_VV	1.581	n/a	<>	-999	9	[0, 0, 0]	n/a	FR1	0	R1207J
1081.47	9.427	1931196	REC_END	n/a	n/a	n/a	-999	9	[0, 0, 0]	n/a	FR1	0	R1207J
1090.897	0.5	1940623	TRIAL	n/a	n/a	n/a	-999	10	[0, 0, 0]	n/a	FR1	0	R1207J
1091.397	10.428	1941123	COUNTDOWN_START	n/a	n/a	n/a	-999	10	[0, 0, 0]	n/a	FR1	0	R1207J
1101.825	0.007	1951551	COUNTDOWN_END	n/a	n/a	n/a	-999	10	[0, 0, 0]	n/a	FR1	0	R1207J
1101.832	1.618	1951558	ORIENT	n/a	n/a	n/a	-999	10	[0, 0, 0]	n/a	FR1	0	R1207J
1103.45	2.2	1953176	ORIENT_OFF	n/a	n/a	n/a	-999	10	[0, 0, 0]	n/a	FR1	0	R1207J
1105.65	1.617	1955376	WORD	n/a	wordpools/wordpool_EN.txt	STEAK	1	10	[0, 0, 0]	n/a	FR1	0	R1207J
1107.267	1.017	1956993	WORD_OFF	n/a	n/a	STEAK	1	10	[0, 0, 0]	n/a	FR1	0	R1207J
1108.284	1.616	1958010	WORD	n/a	wordpools/wordpool_EN.txt	CLOCK	2	10	[0, 0, 0]	n/a	FR1	0	R1207J
1109.9	0.9	1959626	WORD_OFF	n/a	n/a	CLOCK	2	10	[0, 0, 0]	n/a	FR1	0	R1207J
1110.8	1.618	1960526	WORD	n/a	wordpools/wordpool_EN.txt	SLUSH	3	10	[0, 0, 0]	n/a	FR1	0	R1207J
1112.418	0.833	1962144	WORD_OFF	n/a	n/a	SLUSH	3	10	[0, 0, 0]	n/a	FR1	0	R1207J
1113.251	1.616	1962977	WORD	n/a	wordpools/wordpool_EN.txt	BOY	4	10	[0, 0, 0]	n/a	FR1	0	R1207J
1114.867	0.85	1964593	WORD_OFF	n/a	n/a	BOY	4	10	[0, 0, 0]	n/a	FR1	0	R1207J
1115.717	1.618	1965443	WORD	n/a	wordpools/wordpool_EN.txt	BOAT	5	10	[0, 0, 0]	n/a	FR1	0	R1207J
1117.335	0.85	1967061	WORD_OFF	n/a	n/a	BOAT	5	10	[0, 0, 0]	n/a	FR1	0	R1207J
1118.185	1.616	1967911	WORD	n/a	wordpools/wordpool_EN.txt	LAKE	6	10	[0, 0, 0]	n/a	FR1	0	R1207J
1119.801	0.801	1969527	WORD_OFF	n/a	n/a	LAKE	6	10	[0, 0, 0]	n/a	FR1	0	R1207J
1120.602	1.617	1970328	WORD	n/a	wordpools/wordpool_EN.txt	JUICE	7	10	[0, 0, 0]	n/a	FR1	0	R1207J
1122.219	0.867	1971945	WORD_OFF	n/a	n/a	JUICE	7	10	[0, 0, 0]	n/a	FR1	0	R1207J
1123.086	1.615	1972812	WORD	n/a	wordpools/wordpool_EN.txt	BAND	8	10	[0, 0, 0]	n/a	FR1	0	R1207J
1124.701	0.984	1974427	WORD_OFF	n/a	n/a	BAND	8	10	[0, 0, 0]	n/a	FR1	0	R1207J
1125.685	1.618	1975411	WORD	n/a	wordpools/wordpool_EN.txt	BOARD	9	10	[0, 0, 0]	n/a	FR1	0	R1207J
1127.303	0.833	1977029	WORD_OFF	n/a	n/a	BOARD	9	10	[0, 0, 0]	n/a	FR1	0	R1207J
1128.136	1.616	1977862	WORD	n/a	wordpools/wordpool_EN.txt	SHIRT	10	10	[0, 0, 0]	n/a	FR1	0	R1207J
1129.752	0.768	1979478	WORD_OFF	n/a	n/a	SHIRT	10	10	[0, 0, 0]	n/a	FR1	0	R1207J
1130.52	1.617	1980246	WORD	n/a	wordpools/wordpool_EN.txt	SHEET	11	10	[0, 0, 0]	n/a	FR1	0	R1207J
1132.137	0.95	1981863	WORD_OFF	n/a	n/a	SHEET	11	10	[0, 0, 0]	n/a	FR1	0	R1207J
1133.087	1.616	1982813	WORD	n/a	wordpools/wordpool_EN.txt	PASTE	12	10	[0, 0, 0]	n/a	FR1	0	R1207J
1134.703	0.0	1984429	DISTRACT_START	n/a	n/a	n/a	-999	10	[0, 0, 0]	n/a	FR1	0	R1207J
1134.703	0.0	1984429	WORD_OFF	n/a	n/a	PASTE	12	10	[0, 0, 0]	n/a	FR1	0	R1207J
1134.703	0.016	1984429	START	n/a	n/a	n/a	-999	10	[-999, -999, -999]	n/a	FR1	0	R1207J
1134.719	5.552	1984445	PROB	5.552	n/a	n/a	-999	10	[5, 8, 8]	20	FR1	0	R1207J
1140.271	9.085	1989997	PROB	9.085	n/a	n/a	-999	10	[8, 9, 8]	25	FR1	0	R1207J
1149.356	4.583	1999082	PROB	4.583	n/a	n/a	-999	10	[7, 8, 3]	18	FR1	0	R1207J
1153.939	13.038	2003665	PROB	13.038	n/a	n/a	-999	10	[7, 6, 8]	22	FR1	0	R1207J
1166.977	0.014	2016703	STOP	n/a	n/a	n/a	-999	10	[-999, -999, -999]	n/a	FR1	0	R1207J
1166.991	0.667	2016717	DISTRACT_END	n/a	n/a	n/a	-999	10	[0, 0, 0]	n/a	FR1	0	R1207J
1167.658	0.518	2017384	RETRIEVAL_ORIENT	n/a	n/a	n/a	-999	10	[0, 0, 0]	n/a	FR1	0	R1207J
1168.176	2.473	2017902	REC_START	n/a	n/a	n/a	-999	10	[0, 0, 0]	n/a	FR1	0	R1207J
1170.649	1.909	2020375	REC_WORD	1.909	n/a	STEAK	-999	10	[0, 0, 0]	n/a	FR1	0	R1207J
1172.558	2.242	2022284	REC_WORD	2.242	n/a	SUSHI	-999	10	[0, 0, 0]	n/a	FR1	0	R1207J
1174.8	1.951	2024526	REC_WORD	1.951	n/a	BOARD	-999	10	[0, 0, 0]	n/a	FR1	0	R1207J
1176.751	2.27	2026477	REC_WORD	2.27	n/a	BOY	-999	10	[0, 0, 0]	n/a	FR1	0	R1207J
1179.021	9.206	2028747	REC_WORD	9.206	n/a	BAND	-999	10	[0, 0, 0]	n/a	FR1	0	R1207J
1188.227	9.959	2037953	REC_WORD	9.959	n/a	WATCH	-999	10	[0, 0, 0]	n/a	FR1	0	R1207J
1198.186	5.144	2047912	REC_END	n/a	n/a	n/a	-999	10	[0, 0, 0]	n/a	FR1	0	R1207J
1203.33	0.5	2053056	TRIAL	n/a	n/a	n/a	-999	11	[0, 0, 0]	n/a	FR1	0	R1207J
1203.83	10.428	2053556	COUNTDOWN_START	n/a	n/a	n/a	-999	11	[0, 0, 0]	n/a	FR1	0	R1207J
1214.258	0.007	2063984	COUNTDOWN_END	n/a	n/a	n/a	-999	11	[0, 0, 0]	n/a	FR1	0	R1207J
1214.265	1.616	2063991	ORIENT	n/a	n/a	n/a	-999	11	[0, 0, 0]	n/a	FR1	0	R1207J
1215.881	2.201	2065607	ORIENT_OFF	n/a	n/a	n/a	-999	11	[0, 0, 0]	n/a	FR1	0	R1207J
1218.082	1.616	2067808	WORD	n/a	wordpools/wordpool_EN.txt	FLEA	1	11	[0, 0, 0]	n/a	FR1	0	R1207J
1219.698	0.967	2069424	WORD_OFF	n/a	n/a	FLEA	1	11	[0, 0, 0]	n/a	FR1	0	R1207J
1220.665	1.617	2070391	WORD	n/a	wordpools/wordpool_EN.txt	INK	2	11	[0, 0, 0]	n/a	FR1	0	R1207J
1222.282	0.934	2072008	WORD_OFF	n/a	n/a	INK	2	11	[0, 0, 0]	n/a	FR1	0	R1207J
1223.216	1.616	2072942	WORD	n/a	wordpools/wordpool_EN.txt	CHAIR	3	11	[0, 0, 0]	n/a	FR1	0	R1207J
1224.832	0.801	2074558	WORD_OFF	n/a	n/a	CHAIR	3	11	[0, 0, 0]	n/a	FR1	0	R1207J
1225.633	1.617	2075358	WORD	n/a	wordpools/wordpool_EN.txt	SWORD	4	11	[0, 0, 0]	n/a	FR1	0	R1207J
1227.25	0.783	2076975	WORD_OFF	n/a	n/a	SWORD	4	11	[0, 0, 0]	n/a	FR1	0	R1207J
1228.033	1.617	2077758	WORD	n/a	wordpools/wordpool_EN.txt	STONE	5	11	[0, 0, 0]	n/a	FR1	0	R1207J
1229.65	0.85	2079375	WORD_OFF	n/a	n/a	STONE	5	11	[0, 0, 0]	n/a	FR1	0	R1207J
1230.5	1.617	2080225	WORD	n/a	wordpools/wordpool_EN.txt	WALL	6	11	[0, 0, 0]	n/a	FR1	0	R1207J
1232.117	0.799	2081842	WORD_OFF	n/a	n/a	WALL	6	11	[0, 0, 0]	n/a	FR1	0	R1207J
1232.916	1.618	2082641	WORD	n/a	wordpools/wordpool_EN.txt	TENT	7	11	[0, 0, 0]	n/a	FR1	0	R1207J
1234.534	0.967	2084259	WORD_OFF	n/a	n/a	TENT	7	11	[0, 0, 0]	n/a	FR1	0	R1207J
1235.501	1.617	2085226	WORD	n/a	wordpools/wordpool_EN.txt	CANE	8	11	[0, 0, 0]	n/a	FR1	0	R1207J
1237.118	0.799	2086843	WORD_OFF	n/a	n/a	CANE	8	11	[0, 0, 0]	n/a	FR1	0	R1207J
1237.917	1.618	2087642	WORD	n/a	wordpools/wordpool_EN.txt	STOOL	9	11	[0, 0, 0]	n/a	FR1	0	R1207J
1239.535	0.767	2089260	WORD_OFF	n/a	n/a	STOOL	9	11	[0, 0, 0]	n/a	FR1	0	R1207J
1240.302	1.615	2090027	WORD	n/a	wordpools/wordpool_EN.txt	FLUTE	10	11	[0, 0, 0]	n/a	FR1	0	R1207J
1241.917	0.85	2091642	WORD_OFF	n/a	n/a	FLUTE	10	11	[0, 0, 0]	n/a	FR1	0	R1207J
1242.767	1.618	2092492	WORD	n/a	wordpools/wordpool_EN.txt	STORE	11	11	[0, 0, 0]	n/a	FR1	0	R1207J
1244.385	0.817	2094110	WORD_OFF	n/a	n/a	STORE	11	11	[0, 0, 0]	n/a	FR1	0	R1207J
1245.202	1.616	2094927	WORD	n/a	wordpools/wordpool_EN.txt	DITCH	12	11	[0, 0, 0]	n/a	FR1	0	R1207J
1246.818	0.0	2096543	WORD_OFF	n/a	n/a	DITCH	12	11	[0, 0, 0]	n/a	FR1	0	R1207J
1246.818	0.001	2096543	DISTRACT_START	n/a	n/a	n/a	-999	11	[0, 0, 0]	n/a	FR1	0	R1207J
1246.819	0.016	2096544	START	n/a	n/a	n/a	-999	11	[-999, -999, -999]	n/a	FR1	0	R1207J
1246.835	3.751	2096560	PROB	3.751	n/a	n/a	-999	11	[7, 3, 5]	15	FR1	0	R1207J
1250.586	9.451	2100311	PROB	9.451	n/a	n/a	-999	11	[6, 7, 5]	18	FR1	0	R1207J
1260.037	5.085	2109762	PROB	5.085	n/a	n/a	-999	11	[9, 6, 3]	18	FR1	0	R1207J
1265.122	5.805	2114847	PROB	5.805	n/a	n/a	-999	11	[4, 5, 9]	18	FR1	0	R1207J
1270.927	0.011	2120652	STOP	n/a	n/a	n/a	-999	11	[-999, -999, -999]	n/a	FR1	0	R1207J
1270.938	0.552	2120663	DISTRACT_END	n/a	n/a	n/a	-999	11	[0, 0, 0]	n/a	FR1	0	R1207J
1271.49	0.516	2121215	RETRIEVAL_ORIENT	n/a	n/a	n/a	-999	11	[0, 0, 0]	n/a	FR1	0	R1207J
1272.006	5.146	2121731	REC_START	n/a	n/a	n/a	-999	11	[0, 0, 0]	n/a	FR1	0	R1207J
1277.152	2.341	2126877	REC_WORD_VV	2.341	n/a	<>	-999	11	[0, 0, 0]	n/a	FR1	0	R1207J
1279.493	2.919	2129218	REC_WORD	2.919	n/a	STONE	-999	11	[0, 0, 0]	n/a	FR1	0	R1207J
1282.412	0.836	2132137	REC_WORD	0.836	n/a	RAIN	-999	11	[0, 0, 0]	n/a	FR1	0	R1207J
1283.248	1.327	2132973	REC_WORD	1.327	n/a	COLD	-999	11	[0, 0, 0]	n/a	FR1	0	R1207J
1284.575	2.839	2134300	REC_WORD	2.839	n/a	ROW	-999	11	[0, 0, 0]	n/a	FR1	0	R1207J
1287.414	11.608	2137139	REC_WORD_VV	11.608	n/a	<>	-999	11	[0, 0, 0]	n/a	FR1	0	R1207J
1299.022	2.995	2148747	REC_WORD	2.995	n/a	TRASH	-999	11	[0, 0, 0]	n/a	FR1	0	R1207J
1302.017	4.443	2151742	REC_END	n/a	n/a	n/a	-999	11	[0, 0, 0]	n/a	FR1	0	R1207J
1306.46	0.5	2156185	TRIAL	n/a	n/a	n/a	-999	12	[0, 0, 0]	n/a	FR1	0	R1207J
1306.96	10.428	2156685	COUNTDOWN_START	n/a	n/a	n/a	-999	12	[0, 0, 0]	n/a	FR1	0	R1207J
1317.388	0.007	2167113	COUNTDOWN_END	n/a	n/a	n/a	-999	12	[0, 0, 0]	n/a	FR1	0	R1207J
1317.395	1.616	2167120	ORIENT	n/a	n/a	n/a	-999	12	[0, 0, 0]	n/a	FR1	0	R1207J
1319.011	2.185	2168736	ORIENT_OFF	n/a	n/a	n/a	-999	12	[0, 0, 0]	n/a	FR1	0	R1207J
1321.196	1.616	2170921	WORD	n/a	wordpools/wordpool_EN.txt	TOE	1	12	[0, 0, 0]	n/a	FR1	0	R1207J
1322.812	0.818	2172537	WORD_OFF	n/a	n/a	TOE	1	12	[0, 0, 0]	n/a	FR1	0	R1207J
1323.63	1.616	2173355	WORD	n/a	wordpools/wordpool_EN.txt	BLOOM	2	12	[0, 0, 0]	n/a	FR1	0	R1207J
1325.246	0.801	2174971	WORD_OFF	n/a	n/a	BLOOM	2	12	[0, 0, 0]	n/a	FR1	0	R1207J
1326.047	1.616	2175772	WORD	n/a	wordpools/wordpool_EN.txt	SEAT	3	12	[0, 0, 0]	n/a	FR1	0	R1207J
1327.663	0.951	2177388	WORD_OFF	n/a	n/a	SEAT	3	12	[0, 0, 0]	n/a	FR1	0	R1207J
1328.614	1.617	2178339	WORD	n/a	wordpools/wordpool_EN.txt	LAMP	4	12	[0, 0, 0]	n/a	FR1	0	R1207J
1330.231	0.866	2179956	WORD_OFF	n/a	n/a	LAMP	4	12	[0, 0, 0]	n/a	FR1	0	R1207J
1331.097	1.616	2180822	WORD	n/a	wordpools/wordpool_EN.txt	TIE	5	12	[0, 0, 0]	n/a	FR1	0	R1207J
1332.713	1.0	2182438	WORD_OFF	n/a	n/a	TIE	5	12	[0, 0, 0]	n/a	FR1	0	R1207J
1333.713	1.618	2183438	WORD	n/a	wordpools/wordpool_EN.txt	AXE	6	12	[0, 0, 0]	n/a	FR1	0	R1207J
1335.331	0.85	2185056	WORD_OFF	n/a	n/a	AXE	6	12	[0, 0, 0]	n/a	FR1	0	R1207J
1336.181	1.616	2185906	WORD	n/a	wordpools/wordpool_EN.txt	BOWL	7	12	[0, 0, 0]	n/a	FR1	0	R1207J
1337.797	0.9	2187522	WORD_OFF	n/a	n/a	BOWL	7	12	[0, 0, 0]	n/a	FR1	0	R1207J
1338.697	1.601	2188422	WORD	n/a	wordpools/wordpool_EN.txt	VAN	8	12	[0, 0, 0]	n/a	FR1	0	R1207J
1340.298	0.867	2190023	WORD_OFF	n/a	n/a	VAN	8	12	[0, 0, 0]	n/a	FR1	0	R1207J
1341.165	1.616	2190890	WORD	n/a	wordpools/wordpool_EN.txt	BOOT	9	12	[0, 0, 0]	n/a	FR1	0	R1207J
1342.781	0.934	2192506	WORD_OFF	n/a	n/a	BOOT	9	12	[0, 0, 0]	n/a	FR1	0	R1207J
1343.715	1.617	2193440	WORD	n/a	wordpools/wordpool_EN.txt	FLOOR	10	12	[0, 0, 0]	n/a	FR1	0	R1207J
1345.332	1.001	2195057	WORD_OFF	n/a	n/a	FLOOR	10	12	[0, 0, 0]	n/a	FR1	0	R1207J
1346.333	1.615	2196058	WORD	n/a	wordpools/wordpool_EN.txt	FACE	11	12	[0, 0, 0]	n/a	FR1	0	R1207J
1347.948	0.867	2197673	WORD_OFF	n/a	n/a	FACE	11	12	[0, 0, 0]	n/a	FR1	0	R1207J
1348.815	1.618	2198540	WORD	n/a	wordpools/wordpool_EN.txt	SLIME	12	12	[0, 0, 0]	n/a	FR1	0	R1207J
1350.433	0.0	2200158	WORD_OFF	n/a	n/a	SLIME	12	12	[0, 0, 0]	n/a	FR1	0	R1207J
1350.433	0.001	2200158	DISTRACT_START	n/a	n/a	n/a	-999	12	[0, 0, 0]	n/a	FR1	0	R1207J
1350.434	0.016	2200159	START	n/a	n/a	n/a	-999	12	[-999, -999, -999]	n/a	FR1	0	R1207J
1350.45	4.6	2200175	PROB	4.6	n/a	n/a	-999	12	[8, 1, 4]	13	FR1	0	R1207J
1355.05	4.301	2204775	PROB	4.301	n/a	n/a	-999	12	[1, 9, 2]	12	FR1	0	R1207J
1359.351	4.399	2209076	PROB	4.399	n/a	n/a	-999	12	[6, 2, 6]	14	FR1	0	R1207J
1363.75	5.035	2213475	PROB	5.035	n/a	n/a	-999	12	[1, 6, 4]	11	FR1	0	R1207J
1368.785	12.001	2218510	PROB	12.001	n/a	n/a	-999	12	[9, 7, 7]	23	FR1	0	R1207J
1380.786	0.017	2230511	STOP	n/a	n/a	n/a	-999	12	[-999, -999, -999]	n/a	FR1	0	R1207J
1380.803	0.668	2230528	DISTRACT_END	n/a	n/a	n/a	-999	12	[0, 0, 0]	n/a	FR1	0	R1207J
1381.471	0.516	2231196	RETRIEVAL_ORIENT	n/a	n/a	n/a	-999	12	[0, 0, 0]	n/a	FR1	0	R1207J
1381.987	2.408	2231712	REC_START	n/a	n/a	n/a	-999	12	[0, 0, 0]	n/a	FR1	0	R1207J
1384.395	4.872	2234120	REC_WORD	4.872	n/a	TOE	-999	12	[0, 0, 0]	n/a	FR1	0	R1207J
1389.267	10.388	2238992	REC_WORD	10.388	n/a	CLOCK	-999	12	[0, 0, 0]	n/a	FR1	0	R1207J
1399.655	12.34	2249380	REC_WORD	12.34	n/a	SAND	-999	12	[0, 0, 0]	n/a	FR1	0	R1207J
1411.995	15.847	2261720	REC_END	n/a	n/a	n/a	-999	12	[0, 0, 0]	n/a	FR1	0	R1207J
1427.842	0.5	2277567	TRIAL	n/a	n/a	n/a	-999	13	[0, 0, 0]	n/a	FR1	0	R1207J
1428.342	10.428	2278067	COUNTDOWN_START	n/a	n/a	n/a	-999	13	[0, 0, 0]	n/a	FR1	0	R1207J
1438.77	0.007	2288495	COUNTDOWN_END	n/a	n/a	n/a	-999	13	[0, 0, 0]	n/a	FR1	0	R1207J
1438.777	1.602	2288502	ORIENT	n/a	n/a	n/a	-999	13	[0, 0, 0]	n/a	FR1	0	R1207J
1440.379	2.05	2290104	ORIENT_OFF	n/a	n/a	n/a	-999	13	[0, 0, 0]	n/a	FR1	0	R1207J
1442.429	1.617	2292154	WORD	n/a	wordpools/wordpool_EN.txt	SINK	1	13	[0, 0, 0]	n/a	FR1	0	R1207J
1444.046	0.932	2293771	WORD_OFF	n/a	n/a	SINK	1	13	[0, 0, 0]	n/a	FR1	0	R1207J
1444.978	1.618	2294703	WORD	n/a	wordpools/wordpool_EN.txt	HAND	2	13	[0, 0, 0]	n/a	FR1	0	R1207J
1446.596	0.767	2296321	WORD_OFF	n/a	n/a	HAND	2	13	[0, 0, 0]	n/a	FR1	0	R1207J
1447.363	1.616	2297088	WORD	n/a	wordpools/wordpool_EN.txt	SPONGE	3	13	[0, 0, 0]	n/a	FR1	0	R1207J
1448.979	0.9	2298704	WORD_OFF	n/a	n/a	SPONGE	3	13	[0, 0, 0]	n/a	FR1	0	R1207J
1449.879	1.618	2299604	WORD	n/a	wordpools/wordpool_EN.txt	GUARD	4	13	[0, 0, 0]	n/a	FR1	0	R1207J
1451.497	0.883	2301222	WORD_OFF	n/a	n/a	GUARD	4	13	[0, 0, 0]	n/a	FR1	0	R1207J
1452.38	1.616	2302105	WORD	n/a	wordpools/wordpool_EN.txt	STOVE	5	13	[0, 0, 0]	n/a	FR1	0	R1207J
1453.996	0.917	2303721	WORD_OFF	n/a	n/a	STOVE	5	13	[0, 0, 0]	n/a	FR1	0	R1207J
1454.913	1.618	2304638	WORD	n/a	wordpools/wordpool_EN.txt	ROSE	6	13	[0, 0, 0]	n/a	FR1	0	R1207J
1456.531	0.8	2306256	WORD_OFF	n/a	n/a	ROSE	6	13	[0, 0, 0]	n/a	FR1	0	R1207J
1457.331	1.616	2307056	WORD	n/a	wordpools/wordpool_EN.txt	VASE	7	13	[0, 0, 0]	n/a	FR1	0	R1207J
1458.947	0.767	2308672	WORD_OFF	n/a	n/a	VASE	7	13	[0, 0, 0]	n/a	FR1	0	R1207J
1459.714	1.618	2309439	WORD	n/a	wordpools/wordpool_EN.txt	CROW	8	13	[0, 0, 0]	n/a	FR1	0	R1207J
1461.332	0.95	2311057	WORD_OFF	n/a	n/a	CROW	8	13	[0, 0, 0]	n/a	FR1	0	R1207J
1462.282	1.615	2312007	WORD	n/a	wordpools/wordpool_EN.txt	THREAD	9	13	[0, 0, 0]	n/a	FR1	0	R1207J
1463.897	0.951	2313622	WORD_OFF	n/a	n/a	THREAD	9	13	[0, 0, 0]	n/a	FR1	0	R1207J
1464.848	1.617	2314573	WORD	n/a	wordpools/wordpool_EN.txt	TRUCK	10	13	[0, 0, 0]	n/a	FR1	0	R1207J
1466.465	0.967	2316190	WORD_OFF	n/a	n/a	TRUCK	10	13	[0, 0, 0]	n/a	FR1	0	R1207J
1467.432	1.617	2317157	WORD	n/a	wordpools/wordpool_EN.txt	ROAD	11	13	[0, 0, 0]	n/a	FR1	0	R1207J
1469.049	0.916	2318774	WORD_OFF	n/a	n/a	ROAD	11	13	[0, 0, 0]	n/a	FR1	0	R1207J
1469.965	1.618	2319690	WORD	n/a	wordpools/wordpool_EN.txt	WAND	12	13	[0, 0, 0]	n/a	FR1	0	R1207J
1471.583	0.0	2321308	WORD_OFF	n/a	n/a	WAND	12	13	[0, 0, 0]	n/a	FR1	0	R1207J
1471.583	0.0	2321308	DISTRACT_START	n/a	n/a	n/a	-999	13	[0, 0, 0]	n/a	FR1	0	R1207J
1471.583	0.016	2321308	START	n/a	n/a	n/a	-999	13	[-999, -999, -999]	n/a	FR1	0	R1207J
1471.599	11.819	2321324	PROB	11.819	n/a	n/a	-999	13	[9, 7, 4]	19	FR1	0	R1207J
1483.418	3.75	2333143	PROB	3.75	n/a	n/a	-999	13	[9, 1, 2]	12	FR1	0	R1207J
1487.168	3.484	2336893	PROB	3.484	n/a	n/a	-999	13	[2, 1, 3]	6	FR1	0	R1207J
1490.652	4.13	2340377	PROB	4.13	n/a	n/a	-999	13	[2, 8, 9]	19	FR1	0	R1207J
1494.782	0.019	2344507	STOP	n/a	n/a	n/a	-999	13	[-999, -999, -999]	n/a	FR1	0	R1207J
1494.801	0.518	2344526	DISTRACT_END	n/a	n/a	n/a	-999	13	[0, 0, 0]	n/a	FR1	0	R1207J
1495.319	0.517	2345044	RETRIEVAL_ORIENT	n/a	n/a	n/a	-999	13	[0, 0, 0]	n/a	FR1	0	R1207J
1495.836	2.077	2345561	REC_START	n/a	n/a	n/a	-999	13	[0, 0, 0]	n/a	FR1	0	R1207J
1497.913	1.505	2347638	REC_WORD	1.505	n/a	WAND	-999	13	[0, 0, 0]	n/a	FR1	0	R1207J
1499.418	10.759	2349143	REC_WORD	10.759	n/a	TOE	-999	13	[0, 0, 0]	n/a	FR1	0	R1207J
1510.177	3.493	2359901	REC_WORD	3.493	n/a	SINK	-999	13	[0, 0, 0]	n/a	FR1	0	R1207J
1513.67	11.524	2363394	REC_WORD	11.524	n/a	ROSE	-999	13	[0, 0, 0]	n/a	FR1	0	R1207J
1525.194	0.653	2374918	REC_WORD	0.653	n/a	WIND	-999	13	[0, 0, 0]	n/a	FR1	0	R1207J
1525.847	5.227	2375571	REC_END	n/a	n/a	n/a	-999	13	[0, 0, 0]	n/a	FR1	0	R1207J
1531.074	0.5	2380798	TRIAL	n/a	n/a	n/a	-999	14	[0, 0, 0]	n/a	FR1	0	R1207J
1531.574	10.428	2381298	COUNTDOWN_START	n/a	n/a	n/a	-999	14	[0, 0, 0]	n/a	FR1	0	R1207J
1542.002	0.006	2391726	COUNTDOWN_END	n/a	n/a	n/a	-999	14	[0, 0, 0]	n/a	FR1	0	R1207J
1542.008	1.618	2391732	ORIENT	n/a	n/a	n/a	-999	14	[0, 0, 0]	n/a	FR1	0	R1207J
1543.626	2.182	2393350	ORIENT_OFF	n/a	n/a	n/a	-999	14	[0, 0, 0]	n/a	FR1	0	R1207J
1545.808	1.618	2395532	WORD	n/a	wordpools/wordpool_EN.txt	CAGE	1	14	[0, 0, 0]	n/a	FR1	0	R1207J
1547.426	0.834	2397150	WORD_OFF	n/a	n/a	CAGE	1	14	[0, 0, 0]	n/a	FR1	0	R1207J
1548.26	1.616	2397984	WORD	n/a	wordpools/wordpool_EN.txt	TREE	2	14	[0, 0, 0]	n/a	FR1	0	R1207J
1549.876	0.833	2399600	WORD_OFF	n/a	n/a	TREE	2	14	[0, 0, 0]	n/a	FR1	0	R1207J
1550.709	1.618	2400433	WORD	n/a	wordpools/wordpool_EN.txt	TRAY	3	14	[0, 0, 0]	n/a	FR1	0	R1207J
1552.327	0.933	2402051	WORD_OFF	n/a	n/a	TRAY	3	14	[0, 0, 0]	n/a	FR1	0	R1207J
1553.26	1.616	2402984	WORD	n/a	wordpools/wordpool_EN.txt	LIP	4	14	[0, 0, 0]	n/a	FR1	0	R1207J
1554.876	0.8	2404600	WORD_OFF	n/a	n/a	LIP	4	14	[0, 0, 0]	n/a	FR1	0	R1207J
1555.676	1.618	2405400	WORD	n/a	wordpools/wordpool_EN.txt	BENCH	5	14	[0, 0, 0]	n/a	FR1	0	R1207J
1557.294	0.884	2407018	WORD_OFF	n/a	n/a	BENCH	5	14	[0, 0, 0]	n/a	FR1	0	R1207J
1558.178	1.616	2407902	WORD	n/a	wordpools/wordpool_EN.txt	ROOM	6	14	[0, 0, 0]	n/a	FR1	0	R1207J
1559.794	0.834	2409518	WORD_OFF	n/a	n/a	ROOM	6	14	[0, 0, 0]	n/a	FR1	0	R1207J
1560.628	1.617	2410352	WORD	n/a	wordpools/wordpool_EN.txt	SHOE	7	14	[0, 0, 0]	n/a	FR1	0	R1207J
1562.245	0.9	2411969	WORD_OFF	n/a	n/a	SHOE	7	14	[0, 0, 0]	n/a	FR1	0	R1207J
1563.145	1.616	2412869	WORD	n/a	wordpools/wordpool_EN.txt	OAR	8	14	[0, 0, 0]	n/a	FR1	0	R1207J
1564.761	0.885	2414485	WORD_OFF	n/a	n/a	OAR	8	14	[0, 0, 0]	n/a	FR1	0	R1207J
1565.646	1.616	2415370	WORD	n/a	wordpools/wordpool_EN.txt	SPOON	9	14	[0, 0, 0]	n/a	FR1	0	R1207J
1567.262	0.934	2416986	WORD_OFF	n/a	n/a	SPOON	9	14	[0, 0, 0]	n/a	FR1	0	R1207J
1568.196	1.616	2417920	WORD	n/a	wordpools/wordpool_EN.txt	MOTH	10	14	[0, 0, 0]	n/a	FR1	0	R1207J
1569.812	0.801	2419536	WORD_OFF	n/a	n/a	MOTH	10	14	[0, 0, 0]	n/a	FR1	0	R1207J
1570.613	1.617	2420337	WORD	n/a	wordpools/wordpool_EN.txt	STAIR	11	14	[0, 0, 0]	n/a	FR1	0	R1207J
1572.23	0.85	2421954	WORD_OFF	n/a	n/a	STAIR	11	14	[0, 0, 0]	n/a	FR1	0	R1207J
1573.08	1.616	2422804	WORD	n/a	wordpools/wordpool_EN.txt	FLAME	12	14	[0, 0, 0]	n/a	FR1	0	R1207J
1574.696	0.0	2424420	WORD_OFF	n/a	n/a	FLAME	12	14	[0, 0, 0]	n/a	FR1	0	R1207J
1574.696	0.0	2424420	DISTRACT_START	n/a	n/a	n/a	-999	14	[0, 0, 0]	n/a	FR1	0	R1207J
1574.696	0.016	2424420	START	n/a	n/a	n/a	-999	14	[-999, -999, -999]	n/a	FR1	0	R1207J
1574.712	3.785	2424436	PROB	3.785	n/a	n/a	-999	14	[2, 4, 1]	7	FR1	0	R1207J
1578.497	3.017	2428221	PROB	3.017	n/a	n/a	-999	14	[7, 1, 3]	11	FR1	0	R1207J
1581.514	5.751	2431238	PROB	5.751	n/a	n/a	-999	14	[7, 1, 5]	13	FR1	0	R1207J
1587.265	3.217	2436989	PROB	3.217	n/a	n/a	-999	14	[5, 2, 2]	9	FR1	0	R1207J
1590.482	3.249	2440206	PROB	3.249	n/a	n/a	-999	14	[5, 3, 1]	9	FR1	0	R1207J
1593.731	9.472	2443455	PROB	9.472	n/a	n/a	-999	14	[5, 9, 8]	22	FR1	0	R1207J
1603.203	0.014	2452927	STOP	n/a	n/a	n/a	-999	14	[-999, -999, -999]	n/a	FR1	0	R1207J
1603.217	0.532	2452941	DISTRACT_END	n/a	n/a	n/a	-999	14	[0, 0, 0]	n/a	FR1	0	R1207J
1603.749	0.519	2453473	RETRIEVAL_ORIENT	n/a	n/a	n/a	-999	14	[0, 0, 0]	n/a	FR1	0	R1207J
1604.268	8.697	2453992	REC_START	n/a	n/a	n/a	-999	14	[0, 0, 0]	n/a	FR1	0	R1207J
1612.965	0.767	2462689	REC_WORD_VV	0.767	n/a	<>	-999	14	[0, 0, 0]	n/a	FR1	0	R1207J
1613.732	6.056	2463456	REC_WORD_VV	6.056	n/a	<>	-999	14	[0, 0, 0]	n/a	FR1	0	R1207J
1619.788	1.87	2469512	REC_WORD	1.87	n/a	TOE	-999	14	[0, 0, 0]	n/a	FR1	0	R1207J
1621.658	12.62	2471382	REC_WORD	12.62	n/a	WIND	-999	14	[0, 0, 0]	n/a	FR1	0	R1207J
1634.278	4.944	2484002	REC_END	n/a	n/a	n/a	-999	14	[0, 0, 0]	n/a	FR1	0	R1207J
1639.222	0.5	2488946	TRIAL	n/a	n/a	n/a	-999	15	[0, 0, 0]	n/a	FR1	0	R1207J
1639.722	10.428	2489446	COUNTDOWN_START	n/a	n/a	n/a	-999	15	[0, 0, 0]	n/a	FR1	0	R1207J
1650.15	0.007	2499874	COUNTDOWN_END	n/a	n/a	n/a	-999	15	[0, 0, 0]	n/a	FR1	0	R1207J
1650.157	1.616	2499881	ORIENT	n/a	n/a	n/a	-999	15	[0, 0, 0]	n/a	FR1	0	R1207J
1651.773	1.983	2501497	ORIENT_OFF	n/a	n/a	n/a	-999	15	[0, 0, 0]	n/a	FR1	0	R1207J
1653.756	1.618	2503480	WORD	n/a	wordpools/wordpool_EN.txt	BEACH	1	15	[0, 0, 0]	n/a	FR1	0	R1207J
1655.374	0.917	2505098	WORD_OFF	n/a	n/a	BEACH	1	15	[0, 0, 0]	n/a	FR1	0	R1207J
1656.291	1.616	2506015	WORD	n/a	wordpools/wordpool_EN.txt	BOMB	2	15	[0, 0, 0]	n/a	FR1	0	R1207J
1657.907	0.933	2507631	WORD_OFF	n/a	n/a	BOMB	2	15	[0, 0, 0]	n/a	FR1	0	R1207J
1658.84	1.601	2508564	WORD	n/a	wordpools/wordpool_EN.txt	FISH	3	15	[0, 0, 0]	n/a	FR1	0	R1207J
1660.441	0.901	2510165	WORD_OFF	n/a	n/a	FISH	3	15	[0, 0, 0]	n/a	FR1	0	R1207J
1661.342	1.615	2511066	WORD	n/a	wordpools/wordpool_EN.txt	WHEEL	4	15	[0, 0, 0]	n/a	FR1	0	R1207J
1662.957	0.801	2512681	WORD_OFF	n/a	n/a	WHEEL	4	15	[0, 0, 0]	n/a	FR1	0	R1207J
1663.758	1.617	2513482	WORD	n/a	wordpools/wordpool_EN.txt	SCHOOL	5	15	[0, 0, 0]	n/a	FR1	0	R1207J
1665.375	0.851	2515099	WORD_OFF	n/a	n/a	SCHOOL	5	15	[0, 0, 0]	n/a	FR1	0	R1207J
1666.226	1.616	2515950	WORD	n/a	wordpools/wordpool_EN.txt	MILK	6	15	[0, 0, 0]	n/a	FR1	0	R1207J
1667.842	0.85	2517566	WORD_OFF	n/a	n/a	MILK	6	15	[0, 0, 0]	n/a	FR1	0	R1207J
1668.692	1.618	2518416	WORD	n/a	wordpools/wordpool_EN.txt	BRIDGE	7	15	[0, 0, 0]	n/a	FR1	0	R1207J
1670.31	0.983	2520034	WORD_OFF	n/a	n/a	BRIDGE	7	15	[0, 0, 0]	n/a	FR1	0	R1207J
1671.293	1.616	2521017	WORD	n/a	wordpools/wordpool_EN.txt	FROG	8	15	[0, 0, 0]	n/a	FR1	0	R1207J
1672.909	0.883	2522633	WORD_OFF	n/a	n/a	FROG	8	15	[0, 0, 0]	n/a	FR1	0	R1207J
1673.792	1.618	2523516	WORD	n/a	wordpools/wordpool_EN.txt	CONE	9	15	[0, 0, 0]	n/a	FR1	0	R1207J
1675.41	0.867	2525134	WORD_OFF	n/a	n/a	CONE	9	15	[0, 0, 0]	n/a	FR1	0	R1207J
1676.277	1.616	2526001	WORD	n/a	wordpools/wordpool_EN.txt	SMILE	10	15	[0, 0, 0]	n/a	FR1	0	R1207J
1677.893	0.95	2527617	WORD_OFF	n/a	n/a	SMILE	10	15	[0, 0, 0]	n/a	FR1	0	R1207J
1678.843	1.618	2528567	WORD	n/a	wordpools/wordpool_EN.txt	WORM	11	15	[0, 0, 0]	n/a	FR1	0	R1207J
1680.461	0.883	2530185	WORD_OFF	n/a	n/a	WORM	11	15	[0, 0, 0]	n/a	FR1	0	R1207J
1681.344	1.616	2531068	WORD	n/a	wordpools/wordpool_EN.txt	PURSE	12	15	[0, 0, 0]	n/a	FR1	0	R1207J
1682.96	0.0	2532684	WORD_OFF	n/a	n/a	PURSE	12	15	[0, 0, 0]	n/a	FR1	0	R1207J
1682.96	0.001	2532684	DISTRACT_START	n/a	n/a	n/a	-999	15	[0, 0, 0]	n/a	FR1	0	R1207J
1682.961	0.016	2532685	START	n/a	n/a	n/a	-999	15	[-999, -999, -999]	n/a	FR1	0	R1207J
1682.977	8.286	2532701	PROB	8.286	n/a	n/a	-999	15	[7, 5, 8]	20	FR1	0	R1207J
1691.263	2.866	2540987	PROB	2.866	n/a	n/a	-999	15	[5, 1, 8]	14	FR1	0	R1207J
1694.129	3.901	2543853	PROB	3.901	n/a	n/a	-999	15	[1, 5, 8]	14	FR1	0	R1207J
1698.03	3.217	2547754	PROB	3.217	n/a	n/a	-999	15	[3, 1, 7]	11	FR1	0	R1207J
1701.247	6.696	2550971	PROB	6.696	n/a	n/a	-999	15	[8, 3, 5]	16	FR1	0	R1207J
1707.943	0.021	2557667	STOP	n/a	n/a	n/a	-999	15	[-999, -999, -999]	n/a	FR1	0	R1207J
1707.964	0.534	2557688	DISTRACT_END	n/a	n/a	n/a	-999	15	[0, 0, 0]	n/a	FR1	0	R1207J
1708.498	0.517	2558222	RETRIEVAL_ORIENT	n/a	n/a	n/a	-999	15	[0, 0, 0]	n/a	FR1	0	R1207J
1709.015	9.86	2558739	REC_START	n/a	n/a	n/a	-999	15	[0, 0, 0]	n/a	FR1	0	R1207J
1718.875	6.363	2568599	REC_WORD	6.363	n/a	WIND	-999	15	[0, 0, 0]	n/a	FR1	0	R1207J
1725.238	4.405	2574962	REC_WORD	4.405	n/a	CAGE	-999	15	[0, 0, 0]	n/a	FR1	0	R1207J
1729.643	9.384	2579367	REC_WORD	9.384	n/a	TREE	-999	15	[0, 0, 0]	n/a	FR1	0	R1207J
1739.027	4.775	2588751	REC_END	n/a	n/a	n/a	-999	15	[0, 0, 0]	n/a	FR1	0	R1207J
1743.802	0.5	2593526	TRIAL	n/a	n/a	n/a	-999	16	[0, 0, 0]	n/a	FR1	0	R1207J
1744.302	10.428	2594026	COUNTDOWN_START	n/a	n/a	n/a	-999	16	[0, 0, 0]	n/a	FR1	0	R1207J
1754.73	0.007	2604454	COUNTDOWN_END	n/a	n/a	n/a	-999	16	[0, 0, 0]	n/a	FR1	0	R1207J
1754.737	1.617	2604461	ORIENT	n/a	n/a	n/a	-999	16	[0, 0, 0]	n/a	FR1	0	R1207J
1756.354	2.268	2606078	ORIENT_OFF	n/a	n/a	n/a	-999	16	[0, 0, 0]	n/a	FR1	0	R1207J
1758.622	1.617	2608346	WORD	n/a	wordpools/wordpool_EN.txt	BOOK	1	16	[0, 0, 0]	n/a	FR1	0	R1207J
1760.239	0.95	2609963	WORD_OFF	n/a	n/a	BOOK	1	16	[0, 0, 0]	n/a	FR1	0	R1207J
1761.189	1.615	2610913	WORD	n/a	wordpools/wordpool_EN.txt	SNAIL	2	16	[0, 0, 0]	n/a	FR1	0	R1207J
1762.804	0.785	2612528	WORD_OFF	n/a	n/a	SNAIL	2	16	[0, 0, 0]	n/a	FR1	0	R1207J
1763.589	1.617	2613313	WORD	n/a	wordpools/wordpool_EN.txt	NEST	3	16	[0, 0, 0]	n/a	FR1	0	R1207J
1765.206	0.867	2614930	WORD_OFF	n/a	n/a	NEST	3	16	[0, 0, 0]	n/a	FR1	0	R1207J
1766.073	1.615	2615797	WORD	n/a	wordpools/wordpool_EN.txt	LAWN	4	16	[0, 0, 0]	n/a	FR1	0	R1207J
1767.688	0.984	2617412	WORD_OFF	n/a	n/a	LAWN	4	16	[0, 0, 0]	n/a	FR1	0	R1207J
1768.672	1.618	2618396	WORD	n/a	wordpools/wordpool_EN.txt	KITE	5	16	[0, 0, 0]	n/a	FR1	0	R1207J
1770.29	0.883	2620014	WORD_OFF	n/a	n/a	KITE	5	16	[0, 0, 0]	n/a	FR1	0	R1207J
1771.173	1.616	2620897	WORD	n/a	wordpools/wordpool_EN.txt	DESK	6	16	[0, 0, 0]	n/a	FR1	0	R1207J
1772.789	0.801	2622513	WORD_OFF	n/a	n/a	DESK	6	16	[0, 0, 0]	n/a	FR1	0	R1207J
1773.59	1.617	2623314	WORD	n/a	wordpools/wordpool_EN.txt	FILM	7	16	[0, 0, 0]	n/a	FR1	0	R1207J
1775.207	0.9	2624931	WORD_OFF	n/a	n/a	FILM	7	16	[0, 0, 0]	n/a	FR1	0	R1207J
1776.107	1.616	2625831	WORD	n/a	wordpools/wordpool_EN.txt	JET	8	16	[0, 0, 0]	n/a	FR1	0	R1207J
1777.723	0.885	2627447	WORD_OFF	n/a	n/a	JET	8	16	[0, 0, 0]	n/a	FR1	0	R1207J
1778.608	1.617	2628332	WORD	n/a	wordpools/wordpool_EN.txt	PRINCE	9	16	[0, 0, 0]	n/a	FR1	0	R1207J
1780.225	0.866	2629948	WORD_OFF	n/a	n/a	PRINCE	9	16	[0, 0, 0]	n/a	FR1	0	R1207J
1781.091	1.616	2630814	WORD	n/a	wordpools/wordpool_EN.txt	MAZE	10	16	[0, 0, 0]	n/a	FR1	0	R1207J
1782.707	1.0	2632430	WORD_OFF	n/a	n/a	MAZE	10	16	[0, 0, 0]	n/a	FR1	0	R1207J
1783.707	1.618	2633430	WORD	n/a	wordpools/wordpool_EN.txt	SPARK	11	16	[0, 0, 0]	n/a	FR1	0	R1207J
1785.325	0.85	2635048	WORD_OFF	n/a	n/a	SPARK	11	16	[0, 0, 0]	n/a	FR1	0	R1207J
1786.175	1.616	2635898	WORD	n/a	wordpools/wordpool_EN.txt	STORM	12	16	[0, 0, 0]	n/a	FR1	0	R1207J
1787.791	0.0	2637514	WORD_OFF	n/a	n/a	STORM	12	16	[0, 0, 0]	n/a	FR1	0	R1207J
1787.791	0.001	2637514	DISTRACT_START	n/a	n/a	n/a	-999	16	[0, 0, 0]	n/a	FR1	0	R1207J
1787.792	0.016	2637515	START	n/a	n/a	n/a	-999	16	[-999, -999, -999]	n/a	FR1	0	R1207J
1787.808	4.867	2637531	PROB	4.867	n/a	n/a	-999	16	[4, 7, 2]	13	FR1	0	R1207J
1792.675	3.918	2642398	PROB	3.918	n/a	n/a	-999	16	[1, 9, 4]	14	FR1	0	R1207J
1796.593	3.416	2646316	PROB	3.416	n/a	n/a	-999	16	[9, 5, 1]	15	FR1	0	R1207J
1800.009	5.701	2649732	PROB	5.701	n/a	n/a	-999	16	[3, 2, 9]	14	FR1	0	R1207J
1805.71	3.269	2655433	PROB	3.269	n/a	n/a	-999	16	[1, 6, 6]	13	FR1	0	R1207J
1808.979	0.015	2658702	STOP	n/a	n/a	n/a	-999	16	[-999, -999, -999]	n/a	FR1	0	R1207J
1808.994	0.535	2658717	DISTRACT_END	n/a	n/a	n/a	-999	16	[0, 0, 0]	n/a	FR1	0	R1207J
1809.529	0.517	2659252	RETRIEVAL_ORIENT	n/a	n/a	n/a	-999	16	[0, 0, 0]	n/a	FR1	0	R1207J
1810.046	3.178	2659769	REC_START	n/a	n/a	n/a	-999	16	[0, 0, 0]	n/a	FR1	0	R1207J
1813.224	16.132	2662947	REC_WORD	16.132	n/a	PURSE	-999	16	[0, 0, 0]	n/a	FR1	0	R1207J
1829.356	3.423	2679079	REC_WORD	3.423	n/a	TABLE	-999	16	[0, 0, 0]	n/a	FR1	0	R1207J
1832.779	2.146	2682502	REC_WORD	2.146	n/a	DESK	-999	16	[0, 0, 0]	n/a	FR1	0	R1207J
1834.925	5.129	2684648	REC_WORD	5.129	n/a	BOOK	-999	16	[0, 0, 0]	n/a	FR1	0	R1207J
1840.054	4.778	2689777	REC_END	n/a	n/a	n/a	-999	16	[0, 0, 0]	n/a	FR1	0	R1207J
1844.832	0.5	2694555	TRIAL	n/a	n/a	n/a	-999	17	[0, 0, 0]	n/a	FR1	0	R1207J
1845.332	10.428	2695055	COUNTDOWN_START	n/a	n/a	n/a	-999	17	[0, 0, 0]	n/a	FR1	0	R1207J
1855.76	0.007	2705483	COUNTDOWN_END	n/a	n/a	n/a	-999	17	[0, 0, 0]	n/a	FR1	0	R1207J
1855.767	1.618	2705490	ORIENT	n/a	n/a	n/a	-999	17	[0, 0, 0]	n/a	FR1	0	R1207J
1857.385	2.116	2707108	ORIENT_OFF	n/a	n/a	n/a	-999	17	[0, 0, 0]	n/a	FR1	0	R1207J
1859.501	1.618	2709224	WORD	n/a	wordpools/wordpool_EN.txt	BAG	1	17	[0, 0, 0]	n/a	FR1	0	R1207J
1861.119	1.0	2710842	WORD_OFF	n/a	n/a	BAG	1	17	[0, 0, 0]	n/a	FR1	0	R1207J
1862.119	1.616	2711842	WORD	n/a	wordpools/wordpool_EN.txt	DIME	2	17	[0, 0, 0]	n/a	FR1	0	R1207J
1863.735	0.818	2713458	WORD_OFF	n/a	n/a	DIME	2	17	[0, 0, 0]	n/a	FR1	0	R1207J
1864.553	1.617	2714276	WORD	n/a	wordpools/wordpool_EN.txt	STICK	3	17	[0, 0, 0]	n/a	FR1	0	R1207J
1866.17	0.866	2715893	WORD_OFF	n/a	n/a	STICK	3	17	[0, 0, 0]	n/a	FR1	0	R1207J
1867.036	1.617	2716759	WORD	n/a	wordpools/wordpool_EN.txt	OWL	4	17	[0, 0, 0]	n/a	FR1	0	R1207J
1868.653	0.85	2718376	WORD_OFF	n/a	n/a	OWL	4	17	[0, 0, 0]	n/a	FR1	0	R1207J
1869.503	1.617	2719226	WORD	n/a	wordpools/wordpool_EN.txt	HILL	5	17	[0, 0, 0]	n/a	FR1	0	R1207J
1871.12	0.899	2720843	WORD_OFF	n/a	n/a	HILL	5	17	[0, 0, 0]	n/a	FR1	0	R1207J
1872.019	1.618	2721742	WORD	n/a	wordpools/wordpool_EN.txt	GRAPE	6	17	[0, 0, 0]	n/a	FR1	0	R1207J
1873.637	0.917	2723360	WORD_OFF	n/a	n/a	GRAPE	6	17	[0, 0, 0]	n/a	FR1	0	R1207J
1874.554	1.617	2724277	WORD	n/a	wordpools/wordpool_EN.txt	BALL	7	17	[0, 0, 0]	n/a	FR1	0	R1207J
1876.171	0.799	2725894	WORD_OFF	n/a	n/a	BALL	7	17	[0, 0, 0]	n/a	FR1	0	R1207J
1876.97	1.618	2726693	WORD	n/a	wordpools/wordpool_EN.txt	FUDGE	8	17	[0, 0, 0]	n/a	FR1	0	R1207J
1878.588	0.833	2728311	WORD_OFF	n/a	n/a	FUDGE	8	17	[0, 0, 0]	n/a	FR1	0	R1207J
1879.421	1.617	2729144	WORD	n/a	wordpools/wordpool_EN.txt	DOCK	9	17	[0, 0, 0]	n/a	FR1	0	R1207J
1881.038	0.916	2730761	WORD_OFF	n/a	n/a	DOCK	9	17	[0, 0, 0]	n/a	FR1	0	R1207J
1881.954	1.618	2731677	WORD	n/a	wordpools/wordpool_EN.txt	CLOTH	10	17	[0, 0, 0]	n/a	FR1	0	R1207J
1883.572	0.8	2733295	WORD_OFF	n/a	n/a	CLOTH	10	17	[0, 0, 0]	n/a	FR1	0	R1207J
1884.372	1.616	2734095	WORD	n/a	wordpools/wordpool_EN.txt	FENCE	11	17	[0, 0, 0]	n/a	FR1	0	R1207J
1885.988	0.85	2735711	WORD_OFF	n/a	n/a	FENCE	11	17	[0, 0, 0]	n/a	FR1	0	R1207J
1886.838	1.618	2736561	WORD	n/a	wordpools/wordpool_EN.txt	VEST	12	17	[0, 0, 0]	n/a	FR1	0	R1207J
1888.456	0.0	2738179	WORD_OFF	n/a	n/a	VEST	12	17	[0, 0, 0]	n/a	FR1	0	R1207J
1888.456	0.001	2738179	DISTRACT_START	n/a	n/a	n/a	-999	17	[0, 0, 0]	n/a	FR1	0	R1207J
1888.457	0.016	2738180	START	n/a	n/a	n/a	-999	17	[-999, -999, -999]	n/a	FR1	0	R1207J
1888.473	4.983	2738196	PROB	4.983	n/a	n/a	-999	17	[6, 3, 6]	15	FR1	0	R1207J
1893.456	5.567	2743179	PROB	5.567	n/a	n/a	-999	17	[9, 5, 6]	20	FR1	0	R1207J
1899.023	3.601	2748746	PROB	3.601	n/a	n/a	-999	17	[1, 5, 8]	14	FR1	0	R1207J
1902.624	3.534	2752347	PROB	3.534	n/a	n/a	-999	17	[6, 3, 9]	18	FR1	0	R1207J
1906.158	4.513	2755881	PROB	4.513	n/a	n/a	-999	17	[2, 6, 1]	9	FR1	0	R1207J
1910.671	0.02	2760394	STOP	n/a	n/a	n/a	-999	17	[-999, -999, -999]	n/a	FR1	0	R1207J
1910.691	0.551	2760414	DISTRACT_END	n/a	n/a	n/a	-999	17	[0, 0, 0]	n/a	FR1	0	R1207J
1911.242	0.516	2760965	RETRIEVAL_ORIENT	n/a	n/a	n/a	-999	17	[0, 0, 0]	n/a	FR1	0	R1207J
1911.758	1.966	2761481	REC_START	n/a	n/a	n/a	-999	17	[0, 0, 0]	n/a	FR1	0	R1207J
1913.724	28.045	2763447	REC_WORD	28.045	n/a	VEST	-999	17	[0, 0, 0]	n/a	FR1	0	R1207J
1941.769	10.862	2791492	REC_END	n/a	n/a	n/a	-999	17	[0, 0, 0]	n/a	FR1	0	R1207J
1952.631	0.5	2802354	TRIAL	n/a	n/a	n/a	-999	18	[0, 0, 0]	n/a	FR1	0	R1207J
1953.131	10.428	2802854	COUNTDOWN_START	n/a	n/a	n/a	-999	18	[0, 0, 0]	n/a	FR1	0	R1207J
1963.559	0.007	2813282	COUNTDOWN_END	n/a	n/a	n/a	-999	18	[0, 0, 0]	n/a	FR1	0	R1207J
1963.566	1.617	2813289	ORIENT	n/a	n/a	n/a	-999	18	[0, 0, 0]	n/a	FR1	0	R1207J
1965.183	2.25	2814906	ORIENT_OFF	n/a	n/a	n/a	-999	18	[0, 0, 0]	n/a	FR1	0	R1207J
1967.433	1.617	2817156	WORD	n/a	wordpools/wordpool_EN.txt	BRICK	1	18	[0, 0, 0]	n/a	FR1	0	R1207J
1969.05	0.832	2818773	WORD_OFF	n/a	n/a	BRICK	1	18	[0, 0, 0]	n/a	FR1	0	R1207J
1969.882	1.618	2819605	WORD	n/a	wordpools/wordpool_EN.txt	BARN	2	18	[0, 0, 0]	n/a	FR1	0	R1207J
1971.5	0.883	2821223	WORD_OFF	n/a	n/a	BARN	2	18	[0, 0, 0]	n/a	FR1	0	R1207J
1972.383	1.616	2822106	WORD	n/a	wordpools/wordpool_EN.txt	GATE	3	18	[0, 0, 0]	n/a	FR1	0	R1207J
1973.999	0.784	2823722	WORD_OFF	n/a	n/a	GATE	3	18	[0, 0, 0]	n/a	FR1	0	R1207J
1974.783	1.618	2824506	WORD	n/a	wordpools/wordpool_EN.txt	SWAMP	4	18	[0, 0, 0]	n/a	FR1	0	R1207J
1976.401	0.95	2826124	WORD_OFF	n/a	n/a	SWAMP	4	18	[0, 0, 0]	n/a	FR1	0	R1207J
1977.351	1.616	2827074	WORD	n/a	wordpools/wordpool_EN.txt	DRESS	5	18	[0, 0, 0]	n/a	FR1	0	R1207J
1978.967	0.817	2828690	WORD_OFF	n/a	n/a	DRESS	5	18	[0, 0, 0]	n/a	FR1	0	R1207J
1979.784	1.618	2829507	WORD	n/a	wordpools/wordpool_EN.txt	RAT	6	18	[0, 0, 0]	n/a	FR1	0	R1207J
1981.402	1.0	2831125	WORD_OFF	n/a	n/a	RAT	6	18	[0, 0, 0]	n/a	FR1	0	R1207J
1982.402	1.616	2832125	WORD	n/a	wordpools/wordpool_EN.txt	BRUSH	7	18	[0, 0, 0]	n/a	FR1	0	R1207J
1984.018	0.917	2833741	WORD_OFF	n/a	n/a	BRUSH	7	18	[0, 0, 0]	n/a	FR1	0	R1207J
1984.935	1.617	2834658	WORD	n/a	wordpools/wordpool_EN.txt	CUBE	8	18	[0, 0, 0]	n/a	FR1	0	R1207J
1986.552	0.901	2836275	WORD_OFF	n/a	n/a	CUBE	8	18	[0, 0, 0]	n/a	FR1	0	R1207J
1987.453	1.617	2837176	WORD	n/a	wordpools/wordpool_EN.txt	SIGN	9	18	[0, 0, 0]	n/a	FR1	0	R1207J
1989.07	0.815	2838793	WORD_OFF	n/a	n/a	SIGN	9	18	[0, 0, 0]	n/a	FR1	0	R1207J
1989.885	1.602	2839608	WORD	n/a	wordpools/wordpool_EN.txt	BOX	10	18	[0, 0, 0]	n/a	FR1	0	R1207J
1991.487	0.966	2841210	WORD_OFF	n/a	n/a	BOX	10	18	[0, 0, 0]	n/a	FR1	0	R1207J
1992.453	1.617	2842176	WORD	n/a	wordpools/wordpool_EN.txt	BIRD	11	18	[0, 0, 0]	n/a	FR1	0	R1207J
1994.07	0.782	2843793	WORD_OFF	n/a	n/a	BIRD	11	18	[0, 0, 0]	n/a	FR1	0	R1207J
1994.852	1.602	2844575	WORD	n/a	wordpools/wordpool_EN.txt	SEA	12	18	[0, 0, 0]	n/a	FR1	0	R1207J
1996.454	0.0	2846177	WORD_OFF	n/a	n/a	SEA	12	18	[0, 0, 0]	n/a	FR1	0	R1207J
1996.454	0.0	2846177	DISTRACT_START	n/a	n/a	n/a	-999	18	[0, 0, 0]	n/a	FR1	0	R1207J
1996.454	0.016	2846177	START	n/a	n/a	n/a	-999	18	[-999, -999, -999]	n/a	FR1	0	R1207J
1996.47	13.451	2846193	PROB	13.451	n/a	n/a	-999	18	[7, 9, 5]	21	FR1	0	R1207J
2009.921	3.502	2859644	PROB	3.502	n/a	n/a	-999	18	[6, 7, 7]	20	FR1	0	R1207J
2013.423	11.998	2863146	PROB	11.998	n/a	n/a	-999	18	[7, 9, 3]	19	FR1	0	R1207J
2025.421	0.02	2875144	STOP	n/a	n/a	n/a	-999	18	[-999, -999, -999]	n/a	FR1	0	R1207J
2025.441	0.633	2875164	DISTRACT_END	n/a	n/a	n/a	-999	18	[0, 0, 0]	n/a	FR1	0	R1207J
2026.074	0.518	2875797	RETRIEVAL_ORIENT	n/a	n/a	n/a	-999	18	[0, 0, 0]	n/a	FR1	0	R1207J
2026.592	7.917	2876315	REC_START	n/a	n/a	n/a	-999	18	[0, 0, 0]	n/a	FR1	0	R1207J
2034.509	0.65	2884232	REC_WORD_VV	0.65	n/a	<>	-999	18	[0, 0, 0]	n/a	FR1	0	R1207J
2035.159	2.155	2884882	REC_WORD_VV	2.155	n/a	<>	-999	18	[0, 0, 0]	n/a	FR1	0	R1207J
2037.314	19.288	2887037	REC_WORD	19.288	n/a	PURSE	-999	18	[0, 0, 0]	n/a	FR1	0	R1207J
2056.602	4.777	2906324	REC_END	n/a	n/a	n/a	-999	18	[0, 0, 0]	n/a	FR1	0	R1207J
2061.379	0.5	2911101	TRIAL	n/a	n/a	n/a	-999	19	[0, 0, 0]	n/a	FR1	0	R1207J
2061.879	10.428	2911601	COUNTDOWN_START	n/a	n/a	n/a	-999	19	[0, 0, 0]	n/a	FR1	0	R1207J
2072.307	0.007	2922029	COUNTDOWN_END	n/a	n/a	n/a	-999	19	[0, 0, 0]	n/a	FR1	0	R1207J
2072.314	1.616	2922036	ORIENT	n/a	n/a	n/a	-999	19	[0, 0, 0]	n/a	FR1	0	R1207J
2073.93	2.168	2923652	ORIENT_OFF	n/a	n/a	n/a	-999	19	[0, 0, 0]	n/a	FR1	0	R1207J
2076.098	1.616	2925820	WORD	n/a	wordpools/wordpool_EN.txt	SKUNK	1	19	[0, 0, 0]	n/a	FR1	0	R1207J
2077.714	1.0	2927436	WORD_OFF	n/a	n/a	SKUNK	1	19	[0, 0, 0]	n/a	FR1	0	R1207J
2078.714	1.601	2928436	WORD	n/a	wordpools/wordpool_EN.txt	MOUSE	2	19	[0, 0, 0]	n/a	FR1	0	R1207J
2080.315	0.967	2930037	WORD_OFF	n/a	n/a	MOUSE	2	19	[0, 0, 0]	n/a	FR1	0	R1207J
2081.282	1.615	2931004	WORD	n/a	wordpools/wordpool_EN.txt	SKY	3	19	[0, 0, 0]	n/a	FR1	0	R1207J
2082.897	0.834	2932619	WORD_OFF	n/a	n/a	SKY	3	19	[0, 0, 0]	n/a	FR1	0	R1207J
2083.731	1.601	2933453	WORD	n/a	wordpools/wordpool_EN.txt	FORK	4	19	[0, 0, 0]	n/a	FR1	0	R1207J
2085.332	0.9	2935054	WORD_OFF	n/a	n/a	FORK	4	19	[0, 0, 0]	n/a	FR1	0	R1207J
2086.232	1.616	2935954	WORD	n/a	wordpools/wordpool_EN.txt	MUD	5	19	[0, 0, 0]	n/a	FR1	0	R1207J
2087.848	0.768	2937570	WORD_OFF	n/a	n/a	MUD	5	19	[0, 0, 0]	n/a	FR1	0	R1207J
2088.616	1.617	2938338	WORD	n/a	wordpools/wordpool_EN.txt	CHIEF	6	19	[0, 0, 0]	n/a	FR1	0	R1207J
2090.233	0.85	2939955	WORD_OFF	n/a	n/a	CHIEF	6	19	[0, 0, 0]	n/a	FR1	0	R1207J
2091.083	1.616	2940805	WORD	n/a	wordpools/wordpool_EN.txt	ARK	7	19	[0, 0, 0]	n/a	FR1	0	R1207J
2092.699	0.767	2942421	WORD_OFF	n/a	n/a	ARK	7	19	[0, 0, 0]	n/a	FR1	0	R1207J
2093.466	1.617	2943188	WORD	n/a	wordpools/wordpool_EN.txt	DOG	8	19	[0, 0, 0]	n/a	FR1	0	R1207J
2095.083	0.916	2944805	WORD_OFF	n/a	n/a	DOG	8	19	[0, 0, 0]	n/a	FR1	0	R1207J
2095.999	1.618	2945721	WORD	n/a	wordpools/wordpool_EN.txt	BANK	9	19	[0, 0, 0]	n/a	FR1	0	R1207J
2097.617	0.884	2947339	WORD_OFF	n/a	n/a	BANK	9	19	[0, 0, 0]	n/a	FR1	0	R1207J
2098.501	1.617	2948223	WORD	n/a	wordpools/wordpool_EN.txt	BRANCH	10	19	[0, 0, 0]	n/a	FR1	0	R1207J
2100.118	0.916	2949840	WORD_OFF	n/a	n/a	BRANCH	10	19	[0, 0, 0]	n/a	FR1	0	R1207J
2101.034	1.617	2950756	WORD	n/a	wordpools/wordpool_EN.txt	SNAKE	11	19	[0, 0, 0]	n/a	FR1	0	R1207J
2102.651	0.834	2952373	WORD_OFF	n/a	n/a	SNAKE	11	19	[0, 0, 0]	n/a	FR1	0	R1207J
2103.485	1.617	2953207	WORD	n/a	wordpools/wordpool_EN.txt	POND	12	19	[0, 0, 0]	n/a	FR1	0	R1207J
2105.102	0.0	2954824	DISTRACT_START	n/a	n/a	n/a	-999	19	[0, 0, 0]	n/a	FR1	0	R1207J
2105.102	0.0	2954824	WORD_OFF	n/a	n/a	POND	12	19	[0, 0, 0]	n/a	FR1	0	R1207J
2105.102	0.016	2954824	START	n/a	n/a	n/a	-999	19	[-999, -999, -999]	n/a	FR1	0	R1207J
2105.118	10.919	2954840	PROB	10.919	n/a	n/a	-999	19	[6, 5, 9]	20	FR1	0	R1207J
2116.037	3.3	2965759	PROB	3.3	n/a	n/a	-999	19	[1, 5, 2]	8	FR1	0	R1207J
2119.337	3.167	2969059	PROB	3.167	n/a	n/a	-999	19	[2, 6, 9]	17	FR1	0	R1207J
2122.504	3.2	2972226	PROB	3.2	n/a	n/a	-999	19	[9, 9, 1]	19	FR1	0	R1207J
2125.704	0.016	2975426	STOP	n/a	n/a	n/a	-999	19	[-999, -999, -999]	n/a	FR1	0	R1207J
2125.72	0.668	2975442	DISTRACT_END	n/a	n/a	n/a	-999	19	[0, 0, 0]	n/a	FR1	0	R1207J
2126.388	0.516	2976110	RETRIEVAL_ORIENT	n/a	n/a	n/a	-999	19	[0, 0, 0]	n/a	FR1	0	R1207J
2126.904	7.21	2976626	REC_START	n/a	n/a	n/a	-999	19	[0, 0, 0]	n/a	FR1	0	R1207J
2134.114	11.538	2983836	REC_WORD	11.538	n/a	SAND	-999	19	[0, 0, 0]	n/a	FR1	0	R1207J
2145.652	1.242	2995374	REC_WORD_VV	1.242	n/a	<>	-999	19	[0, 0, 0]	n/a	FR1	0	R1207J
2146.894	5.852	2996616	REC_WORD_VV	5.852	n/a	<>	-999	19	[0, 0, 0]	n/a	FR1	0	R1207J
2152.746	4.168	3002468	REC_WORD	4.168	n/a	FLAG	-999	19	[0, 0, 0]	n/a	FR1	0	R1207J
2156.914	8.513	3006636	REC_END	n/a	n/a	n/a	-999	19	[0, 0, 0]	n/a	FR1	0	R1207J
2165.427	0.5	3015149	TRIAL	n/a	n/a	n/a	-999	20	[0, 0, 0]	n/a	FR1	0	R1207J
2165.927	10.428	3015649	COUNTDOWN_START	n/a	n/a	n/a	-999	20	[0, 0, 0]	n/a	FR1	0	R1207J
2176.355	0.006	3026077	COUNTDOWN_END	n/a	n/a	n/a	-999	20	[0, 0, 0]	n/a	FR1	0	R1207J
2176.361	1.616	3026083	ORIENT	n/a	n/a	n/a	-999	20	[0, 0, 0]	n/a	FR1	0	R1207J
2177.977	2.118	3027699	ORIENT_OFF	n/a	n/a	n/a	-999	20	[0, 0, 0]	n/a	FR1	0	R1207J
2180.095	1.616	3029817	WORD	n/a	wordpools/wordpool_EN.txt	CART	1	20	[0, 0, 0]	n/a	FR1	0	R1207J
2181.711	0.834	3031433	WORD_OFF	n/a	n/a	CART	1	20	[0, 0, 0]	n/a	FR1	0	R1207J
2182.545	1.617	3032267	WORD	n/a	wordpools/wordpool_EN.txt	SPEAR	2	20	[0, 0, 0]	n/a	FR1	0	R1207J
2184.162	0.867	3033884	WORD_OFF	n/a	n/a	SPEAR	2	20	[0, 0, 0]	n/a	FR1	0	R1207J
2185.029	1.617	3034751	WORD	n/a	wordpools/wordpool_EN.txt	CLAY	3	20	[0, 0, 0]	n/a	FR1	0	R1207J
2186.646	0.967	3036368	WORD_OFF	n/a	n/a	CLAY	3	20	[0, 0, 0]	n/a	FR1	0	R1207J
2187.613	1.617	3037335	WORD	n/a	wordpools/wordpool_EN.txt	RIB	4	20	[0, 0, 0]	n/a	FR1	0	R1207J
2189.23	0.817	3038952	WORD_OFF	n/a	n/a	RIB	4	20	[0, 0, 0]	n/a	FR1	0	R1207J
2190.047	1.616	3039769	WORD	n/a	wordpools/wordpool_EN.txt	DUCK	5	20	[0, 0, 0]	n/a	FR1	0	R1207J
2191.663	0.867	3041385	WORD_OFF	n/a	n/a	DUCK	5	20	[0, 0, 0]	n/a	FR1	0	R1207J
2192.53	1.617	3042252	WORD	n/a	wordpools/wordpool_EN.txt	PET	6	20	[0, 0, 0]	n/a	FR1	0	R1207J
2194.147	0.782	3043869	WORD_OFF	n/a	n/a	PET	6	20	[0, 0, 0]	n/a	FR1	0	R1207J
2194.929	1.618	3044651	WORD	n/a	wordpools/wordpool_EN.txt	BEAR	7	20	[0, 0, 0]	n/a	FR1	0	R1207J
2196.547	0.934	3046269	WORD_OFF	n/a	n/a	BEAR	7	20	[0, 0, 0]	n/a	FR1	0	R1207J
2197.481	1.617	3047203	WORD	n/a	wordpools/wordpool_EN.txt	SAIL	8	20	[0, 0, 0]	n/a	FR1	0	R1207J
2199.098	0.799	3048820	WORD_OFF	n/a	n/a	SAIL	8	20	[0, 0, 0]	n/a	FR1	0	R1207J
2199.897	1.618	3049619	WORD	n/a	wordpools/wordpool_EN.txt	MAT	9	20	[0, 0, 0]	n/a	FR1	0	R1207J
2201.515	0.883	3051237	WORD_OFF	n/a	n/a	MAT	9	20	[0, 0, 0]	n/a	FR1	0	R1207J
2202.398	1.616	3052120	WORD	n/a	wordpools/wordpool_EN.txt	SALT	10	20	[0, 0, 0]	n/a	FR1	0	R1207J
2204.014	0.983	3053736	WORD_OFF	n/a	n/a	SALT	10	20	[0, 0, 0]	n/a	FR1	0	R1207J
2204.997	1.618	3054719	WORD	n/a	wordpools/wordpool_EN.txt	YARD	11	20	[0, 0, 0]	n/a	FR1	0	R1207J
2206.615	1.0	3056337	WORD_OFF	n/a	n/a	YARD	11	20	[0, 0, 0]	n/a	FR1	0	R1207J
2207.615	1.617	3057337	WORD	n/a	wordpools/wordpool_EN.txt	PEACH	12	20	[0, 0, 0]	n/a	FR1	0	R1207J
2209.232	0.0	3058954	WORD_OFF	n/a	n/a	PEACH	12	20	[0, 0, 0]	n/a	FR1	0	R1207J
2209.232	0.001	3058954	DISTRACT_START	n/a	n/a	n/a	-999	20	[0, 0, 0]	n/a	FR1	0	R1207J
2209.233	0.016	3058955	START	n/a	n/a	n/a	-999	20	[-999, -999, -999]	n/a	FR1	0	R1207J
2209.249	8.351	3058971	PROB	8.351	n/a	n/a	-999	20	[4, 2, 7]	13	FR1	0	R1207J
2217.6	3.451	3067322	PROB	3.451	n/a	n/a	-999	20	[3, 4, 2]	9	FR1	0	R1207J
2221.051	6.567	3070773	PROB	6.567	n/a	n/a	-999	20	[5, 7, 7]	19	FR1	0	R1207J
2227.618	4.523	3077340	PROB	4.523	n/a	n/a	-999	20	[3, 7, 7]	17	FR1	0	R1207J
2232.141	0.011	3081863	STOP	n/a	n/a	n/a	-999	20	[-999, -999, -999]	n/a	FR1	0	R1207J
2232.152	0.549	3081874	DISTRACT_END	n/a	n/a	n/a	-999	20	[0, 0, 0]	n/a	FR1	0	R1207J
2232.701	0.519	3082423	RETRIEVAL_ORIENT	n/a	n/a	n/a	-999	20	[0, 0, 0]	n/a	FR1	0	R1207J
2233.22	1.709	3082942	REC_START	n/a	n/a	n/a	-999	20	[0, 0, 0]	n/a	FR1	0	R1207J
2234.929	5.227	3084651	REC_WORD	5.227	n/a	MAT	-999	20	[0, 0, 0]	n/a	FR1	0	R1207J
2240.156	2.371	3089878	REC_WORD	2.371	n/a	PET	-999	20	[0, 0, 0]	n/a	FR1	0	R1207J
2242.527	2.978	3092249	REC_WORD	2.978	n/a	BEAR	-999	20	[0, 0, 0]	n/a	FR1	0	R1207J
2245.505	17.726	3095227	REC_WORD	17.726	n/a	CLAY	-999	20	[0, 0, 0]	n/a	FR1	0	R1207J
2263.231	4.525	3112953	REC_END	n/a	n/a	n/a	-999	20	[0, 0, 0]	n/a	FR1	0	R1207J
2267.756	0.5	3117478	TRIAL	n/a	n/a	n/a	-999	21	[0, 0, 0]	n/a	FR1	0	R1207J
2268.256	10.428	3117978	COUNTDOWN_START	n/a	n/a	n/a	-999	21	[0, 0, 0]	n/a	FR1	0	R1207J
2278.684	0.007	3128406	COUNTDOWN_END	n/a	n/a	n/a	-999	21	[0, 0, 0]	n/a	FR1	0	R1207J
2278.691	1.618	3128413	ORIENT	n/a	n/a	n/a	-999	21	[0, 0, 0]	n/a	FR1	0	R1207J
2280.309	1.967	3130031	ORIENT_OFF	n/a	n/a	n/a	-999	21	[0, 0, 0]	n/a	FR1	0	R1207J
2282.276	1.616	3131998	WORD	n/a	wordpools/wordpool_EN.txt	HOLE	1	21	[0, 0, 0]	n/a	FR1	0	R1207J
2283.892	0.85	3133614	WORD_OFF	n/a	n/a	HOLE	1	21	[0, 0, 0]	n/a	FR1	0	R1207J
2284.742	1.618	3134464	WORD	n/a	wordpools/wordpool_EN.txt	MUG	2	21	[0, 0, 0]	n/a	FR1	0	R1207J
2286.36	0.883	3136082	WORD_OFF	n/a	n/a	MUG	2	21	[0, 0, 0]	n/a	FR1	0	R1207J
2287.243	1.616	3136965	WORD	n/a	wordpools/wordpool_EN.txt	FRUIT	3	21	[0, 0, 0]	n/a	FR1	0	R1207J
2288.859	0.917	3138581	WORD_OFF	n/a	n/a	FRUIT	3	21	[0, 0, 0]	n/a	FR1	0	R1207J
2289.776	1.618	3139498	WORD	n/a	wordpools/wordpool_EN.txt	DOLL	4	21	[0, 0, 0]	n/a	FR1	0	R1207J
2291.394	0.849	3141116	WORD_OFF	n/a	n/a	DOLL	4	21	[0, 0, 0]	n/a	FR1	0	R1207J
2292.243	1.616	3141965	WORD	n/a	wordpools/wordpool_EN.txt	MOOSE	5	21	[0, 0, 0]	n/a	FR1	0	R1207J
2293.859	0.817	3143581	WORD_OFF	n/a	n/a	MOOSE	5	21	[0, 0, 0]	n/a	FR1	0	R1207J
2294.676	1.601	3144398	WORD	n/a	wordpools/wordpool_EN.txt	LAND	6	21	[0, 0, 0]	n/a	FR1	0	R1207J
2296.277	0.801	3145999	WORD_OFF	n/a	n/a	LAND	6	21	[0, 0, 0]	n/a	FR1	0	R1207J
2297.078	1.616	3146800	WORD	n/a	wordpools/wordpool_EN.txt	MULE	7	21	[0, 0, 0]	n/a	FR1	0	R1207J
2298.694	0.901	3148416	WORD_OFF	n/a	n/a	MULE	7	21	[0, 0, 0]	n/a	FR1	0	R1207J
2299.595	1.617	3149317	WORD	n/a	wordpools/wordpool_EN.txt	THUMB	8	21	[0, 0, 0]	n/a	FR1	0	R1207J
2301.212	0.899	3150934	WORD_OFF	n/a	n/a	THUMB	8	21	[0, 0, 0]	n/a	FR1	0	R1207J
2302.111	1.616	3151833	WORD	n/a	wordpools/wordpool_EN.txt	GOAT	9	21	[0, 0, 0]	n/a	FR1	0	R1207J
2303.727	0.768	3153449	WORD_OFF	n/a	n/a	GOAT	9	21	[0, 0, 0]	n/a	FR1	0	R1207J
2304.495	1.617	3154217	WORD	n/a	wordpools/wordpool_EN.txt	TOAD	10	21	[0, 0, 0]	n/a	FR1	0	R1207J
2306.112	0.917	3155834	WORD_OFF	n/a	n/a	TOAD	10	21	[0, 0, 0]	n/a	FR1	0	R1207J
2307.029	1.617	3156751	WORD	n/a	wordpools/wordpool_EN.txt	HORN	11	21	[0, 0, 0]	n/a	FR1	0	R1207J
2308.646	0.8	3158368	WORD_OFF	n/a	n/a	HORN	11	21	[0, 0, 0]	n/a	FR1	0	R1207J
2309.446	1.617	3159168	WORD	n/a	wordpools/wordpool_EN.txt	DEER	12	21	[0, 0, 0]	n/a	FR1	0	R1207J
2311.063	0.0	3160785	WORD_OFF	n/a	n/a	DEER	12	21	[0, 0, 0]	n/a	FR1	0	R1207J
2311.063	0.001	3160785	DISTRACT_START	n/a	n/a	n/a	-999	21	[0, 0, 0]	n/a	FR1	0	R1207J
2311.064	0.016	3160786	START	n/a	n/a	n/a	-999	21	[-999, -999, -999]	n/a	FR1	0	R1207J
2311.08	5.633	3160802	PROB	5.633	n/a	n/a	-999	21	[7, 5, 4]	16	FR1	0	R1207J
2316.713	2.651	3166435	PROB	2.651	n/a	n/a	-999	21	[1, 9, 2]	12	FR1	0	R1207J
2319.364	2.632	3169086	PROB	2.632	n/a	n/a	-999	21	[1, 3, 3]	7	FR1	0	R1207J
2321.996	3.652	3171718	PROB	3.652	n/a	n/a	-999	21	[2, 3, 1]	6	FR1	0	R1207J
2325.648	2.534	3175370	PROB	2.534	n/a	n/a	-999	21	[1, 7, 3]	11	FR1	0	R1207J
2328.182	2.964	3177904	PROB	2.964	n/a	n/a	-999	21	[6, 4, 4]	14	FR1	0	R1207J
2331.146	0.02	3180868	STOP	n/a	n/a	n/a	-999	21	[-999, -999, -999]	n/a	FR1	0	R1207J
2331.166	0.582	3180888	DISTRACT_END	n/a	n/a	n/a	-999	21	[0, 0, 0]	n/a	FR1	0	R1207J
2331.748	0.518	3181470	RETRIEVAL_ORIENT	n/a	n/a	n/a	-999	21	[0, 0, 0]	n/a	FR1	0	R1207J
2332.266	5.871	3181988	REC_START	n/a	n/a	n/a	-999	21	[0, 0, 0]	n/a	FR1	0	R1207J
2338.137	3.317	3187858	REC_WORD	3.317	n/a	HOLE	-999	21	[0, 0, 0]	n/a	FR1	0	R1207J
2341.454	13.971	3191175	REC_WORD	13.971	n/a	THUMB	-999	21	[0, 0, 0]	n/a	FR1	0	R1207J
2355.425	2.878	3205146	REC_WORD	2.878	n/a	DESK	-999	21	[0, 0, 0]	n/a	FR1	0	R1207J
2358.303	3.973	3208024	REC_WORD	3.973	n/a	TABLE	-999	21	[0, 0, 0]	n/a	FR1	0	R1207J
2362.276	5.161	3211997	REC_END	n/a	n/a	n/a	-999	21	[0, 0, 0]	n/a	FR1	0	R1207J
2367.437	0.5	3217158	TRIAL	n/a	n/a	n/a	-999	22	[0, 0, 0]	n/a	FR1	0	R1207J
2367.937	10.428	3217658	COUNTDOWN_START	n/a	n/a	n/a	-999	22	[0, 0, 0]	n/a	FR1	0	R1207J
2378.365	0.007	3228086	COUNTDOWN_END	n/a	n/a	n/a	-999	22	[0, 0, 0]	n/a	FR1	0	R1207J
2378.372	1.616	3228093	ORIENT	n/a	n/a	n/a	-999	22	[0, 0, 0]	n/a	FR1	0	R1207J
2379.988	1.9	3229709	ORIENT_OFF	n/a	n/a	n/a	-999	22	[0, 0, 0]	n/a	FR1	0	R1207J
2381.888	1.601	3231609	WORD	n/a	wordpools/wordpool_EN.txt	HOOK	1	22	[0, 0, 0]	n/a	FR1	0	R1207J
2383.489	0.884	3233210	WORD_OFF	n/a	n/a	HOOK	1	22	[0, 0, 0]	n/a	FR1	0	R1207J
2384.373	1.615	3234094	WORD	n/a	wordpools/wordpool_EN.txt	SHELL	2	22	[0, 0, 0]	n/a	FR1	0	R1207J
2385.988	0.917	3235709	WORD_OFF	n/a	n/a	SHELL	2	22	[0, 0, 0]	n/a	FR1	0	R1207J
2386.905	1.618	3236626	WORD	n/a	wordpools/wordpool_EN.txt	TOY	3	22	[0, 0, 0]	n/a	FR1	0	R1207J
2388.523	0.817	3238244	WORD_OFF	n/a	n/a	TOY	3	22	[0, 0, 0]	n/a	FR1	0	R1207J
2389.34	1.616	3239061	WORD	n/a	wordpools/wordpool_EN.txt	PLANT	4	22	[0, 0, 0]	n/a	FR1	0	R1207J
2390.956	0.866	3240677	WORD_OFF	n/a	n/a	PLANT	4	22	[0, 0, 0]	n/a	FR1	0	R1207J
2391.822	1.602	3241543	WORD	n/a	wordpools/wordpool_EN.txt	COIN	5	22	[0, 0, 0]	n/a	FR1	0	R1207J
2393.424	0.85	3243145	WORD_OFF	n/a	n/a	COIN	5	22	[0, 0, 0]	n/a	FR1	0	R1207J
2394.274	1.616	3243995	WORD	n/a	wordpools/wordpool_EN.txt	HOUSE	6	22	[0, 0, 0]	n/a	FR1	0	R1207J
2395.89	0.783	3245611	WORD_OFF	n/a	n/a	HOUSE	6	22	[0, 0, 0]	n/a	FR1	0	R1207J
2396.673	1.601	3246394	WORD	n/a	wordpools/wordpool_EN.txt	CLOWN	7	22	[0, 0, 0]	n/a	FR1	0	R1207J
2398.274	1.001	3247995	WORD_OFF	n/a	n/a	CLOWN	7	22	[0, 0, 0]	n/a	FR1	0	R1207J
2399.275	1.616	3248996	WORD	n/a	wordpools/wordpool_EN.txt	GEESE	8	22	[0, 0, 0]	n/a	FR1	0	R1207J
2400.891	0.799	3250612	WORD_OFF	n/a	n/a	GEESE	8	22	[0, 0, 0]	n/a	FR1	0	R1207J
2401.69	1.601	3251411	WORD	n/a	wordpools/wordpool_EN.txt	STEAM	9	22	[0, 0, 0]	n/a	FR1	0	R1207J
2403.291	0.867	3253012	WORD_OFF	n/a	n/a	STEAM	9	22	[0, 0, 0]	n/a	FR1	0	R1207J
2404.158	1.616	3253879	WORD	n/a	wordpools/wordpool_EN.txt	FOAM	10	22	[0, 0, 0]	n/a	FR1	0	R1207J
2405.774	0.984	3255495	WORD_OFF	n/a	n/a	FOAM	10	22	[0, 0, 0]	n/a	FR1	0	R1207J
2406.758	1.618	3256479	WORD	n/a	wordpools/wordpool_EN.txt	SHIP	11	22	[0, 0, 0]	n/a	FR1	0	R1207J
2408.376	0.967	3258097	WORD_OFF	n/a	n/a	SHIP	11	22	[0, 0, 0]	n/a	FR1	0	R1207J
2409.343	1.616	3259064	WORD	n/a	wordpools/wordpool_EN.txt	ROPE	12	22	[0, 0, 0]	n/a	FR1	0	R1207J
2410.959	0.0	3260680	WORD_OFF	n/a	n/a	ROPE	12	22	[0, 0, 0]	n/a	FR1	0	R1207J
2410.959	0.0	3260680	DISTRACT_START	n/a	n/a	n/a	-999	22	[0, 0, 0]	n/a	FR1	0	R1207J
2410.959	0.016	3260680	START	n/a	n/a	n/a	-999	22	[-999, -999, -999]	n/a	FR1	0	R1207J
2410.975	4.984	3260696	PROB	4.984	n/a	n/a	-999	22	[3, 5, 9]	17	FR1	0	R1207J
2415.959	7.951	3265680	PROB	7.951	n/a	n/a	-999	22	[5, 8, 7]	20	FR1	0	R1207J
2423.91	5.051	3273631	PROB	5.051	n/a	n/a	-999	22	[2, 5, 6]	13	FR1	0	R1207J
2428.961	3.804	3278682	PROB	3.804	n/a	n/a	-999	22	[5, 5, 8]	18	FR1	0	R1207J
2432.765	0.013	3282486	STOP	n/a	n/a	n/a	-999	22	[-999, -999, -999]	n/a	FR1	0	R1207J
2432.778	0.518	3282499	DISTRACT_END	n/a	n/a	n/a	-999	22	[0, 0, 0]	n/a	FR1	0	R1207J
2433.296	0.516	3283017	RETRIEVAL_ORIENT	n/a	n/a	n/a	-999	22	[0, 0, 0]	n/a	FR1	0	R1207J
2433.812	2.596	3283533	REC_START	n/a	n/a	n/a	-999	22	[0, 0, 0]	n/a	FR1	0	R1207J
2436.408	8.655	3286129	REC_WORD	8.655	n/a	SHIP	-999	22	[0, 0, 0]	n/a	FR1	0	R1207J
2445.063	18.759	3294784	REC_WORD_VV	18.759	n/a	<>	-999	22	[0, 0, 0]	n/a	FR1	0	R1207J
2463.822	5.329	3313543	REC_END	n/a	n/a	n/a	-999	22	[0, 0, 0]	n/a	FR1	0	R1207J
2469.151	0.5	3318872	TRIAL	n/a	n/a	n/a	-999	23	[0, 0, 0]	n/a	FR1	0	R1207J
2469.651	10.428	3319372	COUNTDOWN_START	n/a	n/a	n/a	-999	23	[0, 0, 0]	n/a	FR1	0	R1207J
2480.079	0.006	3329800	COUNTDOWN_END	n/a	n/a	n/a	-999	23	[0, 0, 0]	n/a	FR1	0	R1207J
2480.085	1.616	3329806	ORIENT	n/a	n/a	n/a	-999	23	[0, 0, 0]	n/a	FR1	0	R1207J
2481.701	1.885	3331422	ORIENT_OFF	n/a	n/a	n/a	-999	23	[0, 0, 0]	n/a	FR1	0	R1207J
2483.586	1.617	3333307	WORD	n/a	wordpools/wordpool_EN.txt	FOG	1	23	[0, 0, 0]	n/a	FR1	0	R1207J
2485.203	0.782	3334924	WORD_OFF	n/a	n/a	FOG	1	23	[0, 0, 0]	n/a	FR1	0	R1207J
2485.985	1.618	3335706	WORD	n/a	wordpools/wordpool_EN.txt	PEA	2	23	[0, 0, 0]	n/a	FR1	0	R1207J
2487.603	0.983	3337324	WORD_OFF	n/a	n/a	PEA	2	23	[0, 0, 0]	n/a	FR1	0	R1207J
2488.586	1.617	3338307	WORD	n/a	wordpools/wordpool_EN.txt	CASH	3	23	[0, 0, 0]	n/a	FR1	0	R1207J
2490.203	0.766	3339924	WORD_OFF	n/a	n/a	CASH	3	23	[0, 0, 0]	n/a	FR1	0	R1207J
2490.969	1.618	3340690	WORD	n/a	wordpools/wordpool_EN.txt	BAT	4	23	[0, 0, 0]	n/a	FR1	0	R1207J
2492.587	0.867	3342308	WORD_OFF	n/a	n/a	BAT	4	23	[0, 0, 0]	n/a	FR1	0	R1207J
2493.454	1.616	3343175	WORD	n/a	wordpools/wordpool_EN.txt	CORD	5	23	[0, 0, 0]	n/a	FR1	0	R1207J
2495.07	0.984	3344791	WORD_OFF	n/a	n/a	CORD	5	23	[0, 0, 0]	n/a	FR1	0	R1207J
2496.054	1.616	3345775	WORD	n/a	wordpools/wordpool_EN.txt	NOSE	6	23	[0, 0, 0]	n/a	FR1	0	R1207J
2497.67	0.884	3347391	WORD_OFF	n/a	n/a	NOSE	6	23	[0, 0, 0]	n/a	FR1	0	R1207J
2498.554	1.617	3348275	WORD	n/a	wordpools/wordpool_EN.txt	PIT	7	23	[0, 0, 0]	n/a	FR1	0	R1207J
2500.171	0.917	3349892	WORD_OFF	n/a	n/a	PIT	7	23	[0, 0, 0]	n/a	FR1	0	R1207J
2501.088	1.616	3350809	WORD	n/a	wordpools/wordpool_EN.txt	SOUP	8	23	[0, 0, 0]	n/a	FR1	0	R1207J
2502.704	0.834	3352425	WORD_OFF	n/a	n/a	SOUP	8	23	[0, 0, 0]	n/a	FR1	0	R1207J
2503.538	1.617	3353259	WORD	n/a	wordpools/wordpool_EN.txt	STRAW	9	23	[0, 0, 0]	n/a	FR1	0	R1207J
2505.155	0.816	3354876	WORD_OFF	n/a	n/a	STRAW	9	23	[0, 0, 0]	n/a	FR1	0	R1207J
2505.971	1.618	3355692	WORD	n/a	wordpools/wordpool_EN.txt	POOL	10	23	[0, 0, 0]	n/a	FR1	0	R1207J
2507.589	0.933	3357310	WORD_OFF	n/a	n/a	POOL	10	23	[0, 0, 0]	n/a	FR1	0	R1207J
2508.522	1.617	3358243	WORD	n/a	wordpools/wordpool_EN.txt	NET	11	23	[0, 0, 0]	n/a	FR1	0	R1207J
2510.139	0.883	3359860	WORD_OFF	n/a	n/a	NET	11	23	[0, 0, 0]	n/a	FR1	0	R1207J
2511.022	1.617	3360743	WORD	n/a	wordpools/wordpool_EN.txt	SKI	12	23	[0, 0, 0]	n/a	FR1	0	R1207J
2512.639	0.0	3362360	WORD_OFF	n/a	n/a	SKI	12	23	[0, 0, 0]	n/a	FR1	0	R1207J
2512.639	0.001	3362360	DISTRACT_START	n/a	n/a	n/a	-999	23	[0, 0, 0]	n/a	FR1	0	R1207J
2512.64	0.016	3362361	START	n/a	n/a	n/a	-999	23	[-999, -999, -999]	n/a	FR1	0	R1207J
2512.656	4.967	3362377	PROB	4.967	n/a	n/a	-999	23	[7, 2, 5]	14	FR1	0	R1207J
2517.623	5.485	3367344	PROB	5.485	n/a	n/a	-999	23	[9, 3, 4]	16	FR1	0	R1207J
2523.108	4.117	3372829	PROB	4.117	n/a	n/a	-999	23	[5, 9, 2]	16	FR1	0	R1207J
2527.225	3.667	3376946	PROB	3.667	n/a	n/a	-999	23	[4, 3, 9]	16	FR1	0	R1207J
2530.892	4.005	3380613	PROB	4.005	n/a	n/a	-999	23	[4, 6, 8]	18	FR1	0	R1207J
2534.897	0.011	3384618	STOP	n/a	n/a	n/a	-999	23	[-999, -999, -999]	n/a	FR1	0	R1207J
2534.908	0.551	3384629	DISTRACT_END	n/a	n/a	n/a	-999	23	[0, 0, 0]	n/a	FR1	0	R1207J
2535.459	0.517	3385180	RETRIEVAL_ORIENT	n/a	n/a	n/a	-999	23	[0, 0, 0]	n/a	FR1	0	R1207J
2535.976	3.265	3385697	REC_START	n/a	n/a	n/a	-999	23	[0, 0, 0]	n/a	FR1	0	R1207J
2539.241	3.53	3388962	REC_WORD	3.53	n/a	NET	-999	23	[0, 0, 0]	n/a	FR1	0	R1207J
2542.771	5.903	3392492	REC_WORD	5.903	n/a	POOL	-999	23	[0, 0, 0]	n/a	FR1	0	R1207J
2548.674	10.806	3398395	REC_WORD	10.806	n/a	HOLE	-999	23	[0, 0, 0]	n/a	FR1	0	R1207J
2559.48	6.508	3409201	REC_WORD_VV	6.508	n/a	<>	-999	23	[0, 0, 0]	n/a	FR1	0	R1207J
2565.988	4.975	3415709	REC_END	n/a	n/a	n/a	-999	23	[0, 0, 0]	n/a	FR1	0	R1207J
2570.963	0.5	3420684	TRIAL	n/a	n/a	n/a	-999	24	[0, 0, 0]	n/a	FR1	0	R1207J
2571.463	10.428	3421184	COUNTDOWN_START	n/a	n/a	n/a	-999	24	[0, 0, 0]	n/a	FR1	0	R1207J
2581.891	0.007	3431612	COUNTDOWN_END	n/a	n/a	n/a	-999	24	[0, 0, 0]	n/a	FR1	0	R1207J
2581.898	1.618	3431619	ORIENT	n/a	n/a	n/a	-999	24	[0, 0, 0]	n/a	FR1	0	R1207J
2583.516	2.1	3433237	ORIENT_OFF	n/a	n/a	n/a	-999	24	[0, 0, 0]	n/a	FR1	0	R1207J
2585.616	1.617	3435337	WORD	n/a	wordpools/wordpool_EN.txt	RICE	1	24	[0, 0, 0]	n/a	FR1	0	R1207J
2587.233	0.8	3436954	WORD_OFF	n/a	n/a	RICE	1	24	[0, 0, 0]	n/a	FR1	0	R1207J
2588.033	1.617	3437754	WORD	n/a	wordpools/wordpool_EN.txt	GLOVE	2	24	[0, 0, 0]	n/a	FR1	0	R1207J
2589.65	0.951	3439371	WORD_OFF	n/a	n/a	GLOVE	2	24	[0, 0, 0]	n/a	FR1	0	R1207J
2590.601	1.616	3440322	WORD	n/a	wordpools/wordpool_EN.txt	SMOKE	3	24	[0, 0, 0]	n/a	FR1	0	R1207J
2592.217	0.884	3441938	WORD_OFF	n/a	n/a	SMOKE	3	24	[0, 0, 0]	n/a	FR1	0	R1207J
2593.101	1.615	3442822	WORD	n/a	wordpools/wordpool_EN.txt	OAK	4	24	[0, 0, 0]	n/a	FR1	0	R1207J
2594.716	0.901	3444437	WORD_OFF	n/a	n/a	OAK	4	24	[0, 0, 0]	n/a	FR1	0	R1207J
2595.617	1.618	3445338	WORD	n/a	wordpools/wordpool_EN.txt	FARM	5	24	[0, 0, 0]	n/a	FR1	0	R1207J
2597.235	0.916	3446956	WORD_OFF	n/a	n/a	FARM	5	24	[0, 0, 0]	n/a	FR1	0	R1207J
2598.151	1.616	3447872	WORD	n/a	wordpools/wordpool_EN.txt	PANTS	6	24	[0, 0, 0]	n/a	FR1	0	R1207J
2599.767	0.885	3449488	WORD_OFF	n/a	n/a	PANTS	6	24	[0, 0, 0]	n/a	FR1	0	R1207J
2600.652	1.616	3450373	WORD	n/a	wordpools/wordpool_EN.txt	DOOR	7	24	[0, 0, 0]	n/a	FR1	0	R1207J
2602.268	0.801	3451989	WORD_OFF	n/a	n/a	DOOR	7	24	[0, 0, 0]	n/a	FR1	0	R1207J
2603.069	1.615	3452790	WORD	n/a	wordpools/wordpool_EN.txt	SOAP	8	24	[0, 0, 0]	n/a	FR1	0	R1207J
2604.684	0.868	3454405	WORD_OFF	n/a	n/a	SOAP	8	24	[0, 0, 0]	n/a	FR1	0	R1207J
2605.552	1.617	3455273	WORD	n/a	wordpools/wordpool_EN.txt	PALM	9	24	[0, 0, 0]	n/a	FR1	0	R1207J
2607.169	0.766	3456890	WORD_OFF	n/a	n/a	PALM	9	24	[0, 0, 0]	n/a	FR1	0	R1207J
2607.935	1.618	3457656	WORD	n/a	wordpools/wordpool_EN.txt	ROOF	10	24	[0, 0, 0]	n/a	FR1	0	R1207J
2609.553	0.95	3459274	WORD_OFF	n/a	n/a	ROOF	10	24	[0, 0, 0]	n/a	FR1	0	R1207J
2610.503	1.616	3460224	WORD	n/a	wordpools/wordpool_EN.txt	SOCK	11	24	[0, 0, 0]	n/a	FR1	0	R1207J
2612.119	0.951	3461839	WORD_OFF	n/a	n/a	SOCK	11	24	[0, 0, 0]	n/a	FR1	0	R1207J
2613.07	1.616	3462790	WORD	n/a	wordpools/wordpool_EN.txt	WHALE	12	24	[0, 0, 0]	n/a	FR1	0	R1207J
2614.686	0.0	3464406	WORD_OFF	n/a	n/a	WHALE	12	24	[0, 0, 0]	n/a	FR1	0	R1207J
2614.686	0.001	3464406	DISTRACT_START	n/a	n/a	n/a	-999	24	[0, 0, 0]	n/a	FR1	0	R1207J
2614.687	0.015	3464407	START	n/a	n/a	n/a	-999	24	[-999, -999, -999]	n/a	FR1	0	R1207J
2614.702	8.636	3464422	PROB	8.636	n/a	n/a	-999	24	[7, 2, 3]	12	FR1	0	R1207J
2623.338	6.968	3473058	PROB	6.968	n/a	n/a	-999	24	[8, 6, 3]	17	FR1	0	R1207J
2630.306	4.845	3480026	PROB	4.845	n/a	n/a	-999	24	[6, 2, 3]	11	FR1	0	R1207J
2635.151	0.005	3484871	STOP	n/a	n/a	n/a	-999	24	[-999, -999, -999]	n/a	FR1	0	R1207J
2635.156	0.666	3484876	DISTRACT_END	n/a	n/a	n/a	-999	24	[0, 0, 0]	n/a	FR1	0	R1207J
2635.822	0.518	3485542	RETRIEVAL_ORIENT	n/a	n/a	n/a	-999	24	[0, 0, 0]	n/a	FR1	0	R1207J
2636.34	2.146	3486060	REC_START	n/a	n/a	n/a	-999	24	[0, 0, 0]	n/a	FR1	0	R1207J
2638.486	9.442	3488206	REC_WORD	9.442	n/a	WHALE	-999	24	[0, 0, 0]	n/a	FR1	0	R1207J
2647.928	18.422	3497648	REC_WORD	18.422	n/a	SINK	-999	24	[0, 0, 0]	n/a	FR1	0	R1207J
2666.35	5.228	3516070	REC_END	n/a	n/a	n/a	-999	24	[0, 0, 0]	n/a	FR1	0	R1207J
2671.578	0.5	3521298	TRIAL	n/a	n/a	n/a	-999	25	[0, 0, 0]	n/a	FR1	0	R1207J
2672.078	10.428	3521798	COUNTDOWN_START	n/a	n/a	n/a	-999	25	[0, 0, 0]	n/a	FR1	0	R1207J
2682.506	0.006	3532226	COUNTDOWN_END	n/a	n/a	n/a	-999	25	[0, 0, 0]	n/a	FR1	0	R1207J
2682.512	1.617	3532232	ORIENT	n/a	n/a	n/a	-999	25	[0, 0, 0]	n/a	FR1	0	R1207J
2684.129	2.134	3533849	ORIENT_OFF	n/a	n/a	n/a	-999	25	[0, 0, 0]	n/a	FR1	0	R1207J
2686.263	1.616	3535983	WORD	n/a	wordpools/wordpool_EN.txt	GLASS	1	25	[0, 0, 0]	n/a	FR1	0	R1207J
2687.879	0.984	3537599	WORD_OFF	n/a	n/a	GLASS	1	25	[0, 0, 0]	n/a	FR1	0	R1207J
2688.863	1.617	3538583	WORD	n/a	wordpools/wordpool_EN.txt	ELF	2	25	[0, 0, 0]	n/a	FR1	0	R1207J
2690.48	0.784	3540200	WORD_OFF	n/a	n/a	ELF	2	25	[0, 0, 0]	n/a	FR1	0	R1207J
2691.264	1.615	3540984	WORD	n/a	wordpools/wordpool_EN.txt	SPRING	3	25	[0, 0, 0]	n/a	FR1	0	R1207J
2692.879	0.934	3542599	WORD_OFF	n/a	n/a	SPRING	3	25	[0, 0, 0]	n/a	FR1	0	R1207J
2693.813	1.618	3543533	WORD	n/a	wordpools/wordpool_EN.txt	CAVE	4	25	[0, 0, 0]	n/a	FR1	0	R1207J
2695.431	0.783	3545151	WORD_OFF	n/a	n/a	CAVE	4	25	[0, 0, 0]	n/a	FR1	0	R1207J
2696.214	1.616	3545934	WORD	n/a	wordpools/wordpool_EN.txt	FORT	5	25	[0, 0, 0]	n/a	FR1	0	R1207J
2697.83	0.867	3547550	WORD_OFF	n/a	n/a	FORT	5	25	[0, 0, 0]	n/a	FR1	0	R1207J
2698.697	1.601	3548417	WORD	n/a	wordpools/wordpool_EN.txt	WOOD	6	25	[0, 0, 0]	n/a	FR1	0	R1207J
2700.298	0.817	3550018	WORD_OFF	n/a	n/a	WOOD	6	25	[0, 0, 0]	n/a	FR1	0	R1207J
2701.115	1.616	3550835	WORD	n/a	wordpools/wordpool_EN.txt	TOOTH	7	25	[0, 0, 0]	n/a	FR1	0	R1207J
2702.731	0.868	3552451	WORD_OFF	n/a	n/a	TOOTH	7	25	[0, 0, 0]	n/a	FR1	0	R1207J
2703.599	1.617	3553319	WORD	n/a	wordpools/wordpool_EN.txt	TOOL	8	25	[0, 0, 0]	n/a	FR1	0	R1207J
2705.216	0.95	3554936	WORD_OFF	n/a	n/a	TOOL	8	25	[0, 0, 0]	n/a	FR1	0	R1207J
2706.166	1.616	3555886	WORD	n/a	wordpools/wordpool_EN.txt	SLEEVE	9	25	[0, 0, 0]	n/a	FR1	0	R1207J
2707.782	1.0	3557502	WORD_OFF	n/a	n/a	SLEEVE	9	25	[0, 0, 0]	n/a	FR1	0	R1207J
2708.782	1.618	3558502	WORD	n/a	wordpools/wordpool_EN.txt	MOUTH	10	25	[0, 0, 0]	n/a	FR1	0	R1207J
2710.4	0.834	3560120	WORD_OFF	n/a	n/a	MOUTH	10	25	[0, 0, 0]	n/a	FR1	0	R1207J
2711.234	1.615	3560954	WORD	n/a	wordpools/wordpool_EN.txt	CAKE	11	25	[0, 0, 0]	n/a	FR1	0	R1207J
2712.849	0.867	3562569	WORD_OFF	n/a	n/a	CAKE	11	25	[0, 0, 0]	n/a	FR1	0	R1207J
2713.716	1.618	3563436	WORD	n/a	wordpools/wordpool_EN.txt	EAR	12	25	[0, 0, 0]	n/a	FR1	0	R1207J
2715.334	0.0	3565054	WORD_OFF	n/a	n/a	EAR	12	25	[0, 0, 0]	n/a	FR1	0	R1207J
2715.334	0.0	3565054	DISTRACT_START	n/a	n/a	n/a	-999	25	[0, 0, 0]	n/a	FR1	0	R1207J
2715.334	0.016	3565054	START	n/a	n/a	n/a	-999	25	[-999, -999, -999]	n/a	FR1	0	R1207J
2715.35	7.818	3565070	PROB	7.818	n/a	n/a	-999	25	[8, 9, 8]	25	FR1	0	R1207J
2723.168	10.634	3572888	PROB	10.634	n/a	n/a	-999	25	[9, 3, 6]	18	FR1	0	R1207J
2733.802	2.105	3583522	PROB	2.105	n/a	n/a	-999	25	[4, 6, 1]	11	FR1	0	R1207J
2735.907	0.012	3585627	STOP	n/a	n/a	n/a	-999	25	[-999, -999, -999]	n/a	FR1	0	R1207J
2735.919	0.551	3585639	DISTRACT_END	n/a	n/a	n/a	-999	25	[0, 0, 0]	n/a	FR1	0	R1207J
2736.47	0.516	3586190	RETRIEVAL_ORIENT	n/a	n/a	n/a	-999	25	[0, 0, 0]	n/a	FR1	0	R1207J
2736.986	3.886	3586706	REC_START	n/a	n/a	n/a	-999	25	[0, 0, 0]	n/a	FR1	0	R1207J
2740.872	3.887	3590592	REC_WORD	3.887	n/a	WHALE	-999	25	[0, 0, 0]	n/a	FR1	0	R1207J
2744.759	20.782	3594479	REC_WORD	20.782	n/a	ELF	-999	25	[0, 0, 0]	n/a	FR1	0	R1207J
2765.541	1.456	3615261	REC_WORD	1.456	n/a	WATER	-999	25	[0, 0, 0]	n/a	FR1	0	R1207J
2766.997	5.511	3616717	REC_END	n/a	n/a	n/a	-999	25	[0, 0, 0]	n/a	FR1	0	R1207J
2772.508	0.0	3622228	SESS_END	n/a	n/a	n/a	-999	25	[0, 0, 0]	n/a	FR1	0	R1207J
