onset	duration	sample	trial_type	response_time	stim_file	item_name	serialpos	list	test	answer	experiment	session	subject
0.0	0.0	8413	INSTRUCT_START	n/a	n/a	n/a	-999	-999	[0, 0, 0]	n/a	FR1	2	R1172E
0.0	11.067	8413	INSTRUCT_END	n/a	n/a	n/a	-999	-999	[0, 0, 0]	n/a	FR1	2	R1172E
11.067	0.0	19479	SESS_START	n/a	n/a	n/a	-999	-999	[0, 0, 0]	n/a	FR1	2	R1172E
11.067	45.0	19479	MIC_TEST	n/a	n/a	n/a	-999	-999	[0, 0, 0]	n/a	FR1	2	R1172E
56.067	18.179	64477	PRACTICE_TRIAL	n/a	n/a	n/a	-999	-1	[0, 0, 0]	n/a	FR1	2	R1172E
74.246	10.428	82656	COUNTDOWN_START	n/a	n/a	n/a	-999	-1	[0, 0, 0]	n/a	FR1	2	R1172E
84.674	0.007	93083	COUNTDOWN_END	n/a	n/a	n/a	-999	-1	[0, 0, 0]	n/a	FR1	2	R1172E
84.681	1.617	93090	PRACTICE_ORIENT	n/a	n/a	n/a	-999	-1	[0, 0, 0]	n/a	FR1	2	R1172E
86.298	1.9	94707	PRACTICE_ORIENT_OFF	n/a	n/a	n/a	-999	-1	[0, 0, 0]	n/a	FR1	2	R1172E
88.198	1.618	96607	PRACTICE_WORD	n/a	n/a	FLOOD	1	-1	[0, 0, 0]	n/a	FR1	2	R1172E
89.816	0.933	98225	PRACTICE_WORD_OFF	n/a	n/a	FLOOD	-999	-1	[0, 0, 0]	n/a	FR1	2	R1172E
90.749	1.617	99158	PRACTICE_WORD	n/a	n/a	WAGON	2	-1	[0, 0, 0]	n/a	FR1	2	R1172E
92.366	0.866	100775	PRACTICE_WORD_OFF	n/a	n/a	WAGON	-999	-1	[0, 0, 0]	n/a	FR1	2	R1172E
93.232	1.618	101641	PRACTICE_WORD	n/a	n/a	IRON	3	-1	[0, 0, 0]	n/a	FR1	2	R1172E
94.85	0.816	103259	PRACTICE_WORD_OFF	n/a	n/a	IRON	-999	-1	[0, 0, 0]	n/a	FR1	2	R1172E
95.666	1.617	104075	PRACTICE_WORD	n/a	n/a	RING	4	-1	[0, 0, 0]	n/a	FR1	2	R1172E
97.283	0.883	105692	PRACTICE_WORD_OFF	n/a	n/a	RING	-999	-1	[0, 0, 0]	n/a	FR1	2	R1172E
98.166	1.618	106575	PRACTICE_WORD	n/a	n/a	RHINO	5	-1	[0, 0, 0]	n/a	FR1	2	R1172E
99.784	0.9	108192	PRACTICE_WORD_OFF	n/a	n/a	RHINO	-999	-1	[0, 0, 0]	n/a	FR1	2	R1172E
100.684	1.617	109092	PRACTICE_WORD	n/a	n/a	ATTIC	6	-1	[0, 0, 0]	n/a	FR1	2	R1172E
102.301	0.783	110709	PRACTICE_WORD_OFF	n/a	n/a	ATTIC	-999	-1	[0, 0, 0]	n/a	FR1	2	R1172E
103.084	1.617	111492	PRACTICE_WORD	n/a	n/a	COTTON	7	-1	[0, 0, 0]	n/a	FR1	2	R1172E
104.701	0.934	113109	PRACTICE_WORD_OFF	n/a	n/a	COTTON	-999	-1	[0, 0, 0]	n/a	FR1	2	R1172E
105.635	1.616	114043	PRACTICE_WORD	n/a	n/a	CAMEL	8	-1	[0, 0, 0]	n/a	FR1	2	R1172E
107.251	0.884	115659	PRACTICE_WORD_OFF	n/a	n/a	CAMEL	-999	-1	[0, 0, 0]	n/a	FR1	2	R1172E
108.135	1.617	116543	PRACTICE_WORD	n/a	n/a	WATCH	9	-1	[0, 0, 0]	n/a	FR1	2	R1172E
109.752	0.983	118160	PRACTICE_WORD_OFF	n/a	n/a	WATCH	-999	-1	[0, 0, 0]	n/a	FR1	2	R1172E
110.735	1.617	119143	PRACTICE_WORD	n/a	n/a	TONGUE	10	-1	[0, 0, 0]	n/a	FR1	2	R1172E
112.352	0.767	120760	PRACTICE_WORD_OFF	n/a	n/a	TONGUE	-999	-1	[0, 0, 0]	n/a	FR1	2	R1172E
113.119	1.617	121527	PRACTICE_WORD	n/a	n/a	BEAM	11	-1	[0, 0, 0]	n/a	FR1	2	R1172E
114.736	0.9	123144	PRACTICE_WORD_OFF	n/a	n/a	BEAM	-999	-1	[0, 0, 0]	n/a	FR1	2	R1172E
115.636	1.617	124044	PRACTICE_WORD	n/a	n/a	CHEST	12	-1	[0, 0, 0]	n/a	FR1	2	R1172E
117.253	0.0	125661	PRACTICE_WORD_OFF	n/a	n/a	CHEST	-999	-1	[0, 0, 0]	n/a	FR1	2	R1172E
117.253	0.001	125661	DISTRACT_START	n/a	n/a	n/a	-999	-1	[0, 0, 0]	n/a	FR1	2	R1172E
117.254	0.016	125662	START	n/a	n/a	n/a	-999	-1	[-999, -999, -999]	n/a	FR1	2	R1172E
117.27	7.001	125678	PROB	7.001	n/a	n/a	-999	-1	[9, 8, 4]	21	FR1	2	R1172E
124.271	6.168	132678	PROB	6.168	n/a	n/a	-999	-1	[7, 7, 9]	13	FR1	2	R1172E
130.439	9.579	138846	PROB	9.579	n/a	n/a	-999	-1	[6, 1, 8]	15	FR1	2	R1172E
140.018	0.006	148425	STOP	n/a	n/a	n/a	-999	-1	[-999, -999, -999]	n/a	FR1	2	R1172E
140.024	0.517	148431	DISTRACT_END	n/a	n/a	n/a	-999	-1	[0, 0, 0]	n/a	FR1	2	R1172E
140.541	0.522	148948	RETRIEVAL_ORIENT	n/a	n/a	n/a	-999	-1	[0, 0, 0]	n/a	FR1	2	R1172E
141.063	30.005	149470	PRACTICE_REC_START	n/a	n/a	n/a	-999	-1	[0, 0, 0]	n/a	FR1	2	R1172E
171.068	25.649	179474	PRACTICE_REC_END	n/a	n/a	n/a	-999	-1	[0, 0, 0]	n/a	FR1	2	R1172E
196.717	0.5	205121	TRIAL	n/a	n/a	n/a	-999	1	[0, 0, 0]	n/a	FR1	2	R1172E
197.217	10.428	205621	COUNTDOWN_START	n/a	n/a	n/a	-999	1	[0, 0, 0]	n/a	FR1	2	R1172E
207.645	0.007	216049	COUNTDOWN_END	n/a	n/a	n/a	-999	1	[0, 0, 0]	n/a	FR1	2	R1172E
207.652	1.617	216056	ORIENT	n/a	n/a	n/a	-999	1	[0, 0, 0]	n/a	FR1	2	R1172E
209.269	2.134	217673	ORIENT_OFF	n/a	n/a	n/a	-999	1	[0, 0, 0]	n/a	FR1	2	R1172E
211.403	1.617	219807	WORD	n/a	wordpools/wordpool_EN.txt	YARD	1	1	[0, 0, 0]	n/a	FR1	2	R1172E
213.02	0.95	221424	WORD_OFF	n/a	n/a	YARD	1	1	[0, 0, 0]	n/a	FR1	2	R1172E
213.97	1.617	222374	WORD	n/a	wordpools/wordpool_EN.txt	HORN	2	1	[0, 0, 0]	n/a	FR1	2	R1172E
215.587	0.817	223991	WORD_OFF	n/a	n/a	HORN	2	1	[0, 0, 0]	n/a	FR1	2	R1172E
216.404	1.617	224808	WORD	n/a	wordpools/wordpool_EN.txt	DOOR	3	1	[0, 0, 0]	n/a	FR1	2	R1172E
218.021	0.901	226425	WORD_OFF	n/a	n/a	DOOR	3	1	[0, 0, 0]	n/a	FR1	2	R1172E
218.922	1.616	227326	WORD	n/a	wordpools/wordpool_EN.txt	ROSE	4	1	[0, 0, 0]	n/a	FR1	2	R1172E
220.538	0.983	228941	WORD_OFF	n/a	n/a	ROSE	4	1	[0, 0, 0]	n/a	FR1	2	R1172E
221.521	1.617	229924	WORD	n/a	wordpools/wordpool_EN.txt	SLUSH	5	1	[0, 0, 0]	n/a	FR1	2	R1172E
223.138	0.801	231541	WORD_OFF	n/a	n/a	SLUSH	5	1	[0, 0, 0]	n/a	FR1	2	R1172E
223.939	1.616	232342	WORD	n/a	wordpools/wordpool_EN.txt	PURSE	6	1	[0, 0, 0]	n/a	FR1	2	R1172E
225.555	0.967	233958	WORD_OFF	n/a	n/a	PURSE	6	1	[0, 0, 0]	n/a	FR1	2	R1172E
226.522	1.617	234925	WORD	n/a	wordpools/wordpool_EN.txt	SAIL	7	1	[0, 0, 0]	n/a	FR1	2	R1172E
228.139	0.834	236542	WORD_OFF	n/a	n/a	SAIL	7	1	[0, 0, 0]	n/a	FR1	2	R1172E
228.973	1.617	237376	WORD	n/a	wordpools/wordpool_EN.txt	DESK	8	1	[0, 0, 0]	n/a	FR1	2	R1172E
230.59	0.917	238993	WORD_OFF	n/a	n/a	DESK	8	1	[0, 0, 0]	n/a	FR1	2	R1172E
231.507	1.616	239910	WORD	n/a	wordpools/wordpool_EN.txt	THUMB	9	1	[0, 0, 0]	n/a	FR1	2	R1172E
233.123	0.818	241526	WORD_OFF	n/a	n/a	THUMB	9	1	[0, 0, 0]	n/a	FR1	2	R1172E
233.941	1.616	242344	WORD	n/a	wordpools/wordpool_EN.txt	WALL	10	1	[0, 0, 0]	n/a	FR1	2	R1172E
235.557	0.834	243960	WORD_OFF	n/a	n/a	WALL	10	1	[0, 0, 0]	n/a	FR1	2	R1172E
236.391	1.617	244794	WORD	n/a	wordpools/wordpool_EN.txt	OAK	11	1	[0, 0, 0]	n/a	FR1	2	R1172E
238.008	0.884	246411	WORD_OFF	n/a	n/a	OAK	11	1	[0, 0, 0]	n/a	FR1	2	R1172E
238.892	1.616	247295	WORD	n/a	wordpools/wordpool_EN.txt	BRANCH	12	1	[0, 0, 0]	n/a	FR1	2	R1172E
240.508	0.0	248911	WORD_OFF	n/a	n/a	BRANCH	12	1	[0, 0, 0]	n/a	FR1	2	R1172E
240.508	0.001	248911	DISTRACT_START	n/a	n/a	n/a	-999	1	[0, 0, 0]	n/a	FR1	2	R1172E
240.509	0.016	248912	START	n/a	n/a	n/a	-999	1	[-999, -999, -999]	n/a	FR1	2	R1172E
240.525	10.735	248928	PROB	10.735	n/a	n/a	-999	1	[7, 6, 5]	18	FR1	2	R1172E
251.26	12.458	259662	PROB	12.458	n/a	n/a	-999	1	[9, 5, 1]	15	FR1	2	R1172E
263.718	0.011	272120	STOP	n/a	n/a	n/a	-999	1	[-999, -999, -999]	n/a	FR1	2	R1172E
263.729	0.616	272131	DISTRACT_END	n/a	n/a	n/a	-999	1	[0, 0, 0]	n/a	FR1	2	R1172E
264.345	0.519	272747	RETRIEVAL_ORIENT	n/a	n/a	n/a	-999	1	[0, 0, 0]	n/a	FR1	2	R1172E
264.864	10.221	273266	REC_START	n/a	n/a	n/a	-999	1	[0, 0, 0]	n/a	FR1	2	R1172E
275.085	1.524	283486	REC_WORD	1.524	n/a	DOOR	-999	1	[0, 0, 0]	n/a	FR1	2	R1172E
276.609	4.154	285010	REC_WORD	4.154	n/a	WATCH	-999	1	[0, 0, 0]	n/a	FR1	2	R1172E
280.763	14.11	289164	REC_WORD	14.11	n/a	VINYL	-999	1	[0, 0, 0]	n/a	FR1	2	R1172E
294.873	9.213	303273	REC_END	n/a	n/a	n/a	-999	1	[0, 0, 0]	n/a	FR1	2	R1172E
304.086	0.5	312486	TRIAL	n/a	n/a	n/a	-999	2	[0, 0, 0]	n/a	FR1	2	R1172E
304.586	10.428	312986	COUNTDOWN_START	n/a	n/a	n/a	-999	2	[0, 0, 0]	n/a	FR1	2	R1172E
315.014	0.007	323414	COUNTDOWN_END	n/a	n/a	n/a	-999	2	[0, 0, 0]	n/a	FR1	2	R1172E
315.021	1.617	323421	ORIENT	n/a	n/a	n/a	-999	2	[0, 0, 0]	n/a	FR1	2	R1172E
316.638	2.017	325038	ORIENT_OFF	n/a	n/a	n/a	-999	2	[0, 0, 0]	n/a	FR1	2	R1172E
318.655	1.617	327054	WORD	n/a	wordpools/wordpool_EN.txt	FLAG	1	2	[0, 0, 0]	n/a	FR1	2	R1172E
320.272	0.8	328671	WORD_OFF	n/a	n/a	FLAG	1	2	[0, 0, 0]	n/a	FR1	2	R1172E
321.072	1.617	329471	WORD	n/a	wordpools/wordpool_EN.txt	RAT	2	2	[0, 0, 0]	n/a	FR1	2	R1172E
322.689	0.917	331088	WORD_OFF	n/a	n/a	RAT	2	2	[0, 0, 0]	n/a	FR1	2	R1172E
323.606	1.617	332005	WORD	n/a	wordpools/wordpool_EN.txt	SNAIL	3	2	[0, 0, 0]	n/a	FR1	2	R1172E
325.223	0.883	333622	WORD_OFF	n/a	n/a	SNAIL	3	2	[0, 0, 0]	n/a	FR1	2	R1172E
326.106	1.617	334505	WORD	n/a	wordpools/wordpool_EN.txt	JET	4	2	[0, 0, 0]	n/a	FR1	2	R1172E
327.723	0.917	336122	WORD_OFF	n/a	n/a	JET	4	2	[0, 0, 0]	n/a	FR1	2	R1172E
328.64	1.617	337039	WORD	n/a	wordpools/wordpool_EN.txt	PANTS	5	2	[0, 0, 0]	n/a	FR1	2	R1172E
330.257	0.933	338656	WORD_OFF	n/a	n/a	PANTS	5	2	[0, 0, 0]	n/a	FR1	2	R1172E
331.19	1.618	339589	WORD	n/a	wordpools/wordpool_EN.txt	MUG	6	2	[0, 0, 0]	n/a	FR1	2	R1172E
332.808	0.984	341207	WORD_OFF	n/a	n/a	MUG	6	2	[0, 0, 0]	n/a	FR1	2	R1172E
333.792	1.616	342191	WORD	n/a	wordpools/wordpool_EN.txt	FISH	7	2	[0, 0, 0]	n/a	FR1	2	R1172E
335.408	0.95	343807	WORD_OFF	n/a	n/a	FISH	7	2	[0, 0, 0]	n/a	FR1	2	R1172E
336.358	1.617	344757	WORD	n/a	wordpools/wordpool_EN.txt	SHIRT	8	2	[0, 0, 0]	n/a	FR1	2	R1172E
337.975	0.951	346374	WORD_OFF	n/a	n/a	SHIRT	8	2	[0, 0, 0]	n/a	FR1	2	R1172E
338.926	1.616	347325	WORD	n/a	wordpools/wordpool_EN.txt	CLOTH	9	2	[0, 0, 0]	n/a	FR1	2	R1172E
340.542	0.95	348941	WORD_OFF	n/a	n/a	CLOTH	9	2	[0, 0, 0]	n/a	FR1	2	R1172E
341.492	1.617	349890	WORD	n/a	wordpools/wordpool_EN.txt	HOOF	10	2	[0, 0, 0]	n/a	FR1	2	R1172E
343.109	0.917	351507	WORD_OFF	n/a	n/a	HOOF	10	2	[0, 0, 0]	n/a	FR1	2	R1172E
344.026	1.617	352424	WORD	n/a	wordpools/wordpool_EN.txt	STREET	11	2	[0, 0, 0]	n/a	FR1	2	R1172E
345.643	0.85	354041	WORD_OFF	n/a	n/a	STREET	11	2	[0, 0, 0]	n/a	FR1	2	R1172E
346.493	1.617	354891	WORD	n/a	wordpools/wordpool_EN.txt	PLANT	12	2	[0, 0, 0]	n/a	FR1	2	R1172E
348.11	0.0	356508	WORD_OFF	n/a	n/a	PLANT	12	2	[0, 0, 0]	n/a	FR1	2	R1172E
348.11	0.001	356508	DISTRACT_START	n/a	n/a	n/a	-999	2	[0, 0, 0]	n/a	FR1	2	R1172E
348.111	0.016	356509	START	n/a	n/a	n/a	-999	2	[-999, -999, -999]	n/a	FR1	2	R1172E
348.127	9.585	356525	PROB	9.585	n/a	n/a	-999	2	[4, 5, 1]	10	FR1	2	R1172E
357.712	5.168	366110	PROB	5.168	n/a	n/a	-999	2	[2, 4, 4]	10	FR1	2	R1172E
362.88	6.045	371278	PROB	6.045	n/a	n/a	-999	2	[2, 6, 2]	10	FR1	2	R1172E
368.925	0.006	377322	STOP	n/a	n/a	n/a	-999	2	[-999, -999, -999]	n/a	FR1	2	R1172E
368.931	0.616	377328	DISTRACT_END	n/a	n/a	n/a	-999	2	[0, 0, 0]	n/a	FR1	2	R1172E
369.547	0.518	377944	RETRIEVAL_ORIENT	n/a	n/a	n/a	-999	2	[0, 0, 0]	n/a	FR1	2	R1172E
370.065	3.401	378462	REC_START	n/a	n/a	n/a	-999	2	[0, 0, 0]	n/a	FR1	2	R1172E
373.466	3.226	381863	REC_WORD	3.226	n/a	HOOF	-999	2	[0, 0, 0]	n/a	FR1	2	R1172E
376.692	6.238	385089	REC_WORD	6.238	n/a	DOOR	-999	2	[0, 0, 0]	n/a	FR1	2	R1172E
382.93	17.144	391327	REC_WORD	17.144	n/a	STREET	-999	2	[0, 0, 0]	n/a	FR1	2	R1172E
400.074	8.748	408470	REC_END	n/a	n/a	n/a	-999	2	[0, 0, 0]	n/a	FR1	2	R1172E
408.822	0.5	417218	TRIAL	n/a	n/a	n/a	-999	3	[0, 0, 0]	n/a	FR1	2	R1172E
409.322	10.428	417718	COUNTDOWN_START	n/a	n/a	n/a	-999	3	[0, 0, 0]	n/a	FR1	2	R1172E
419.75	0.006	428145	COUNTDOWN_END	n/a	n/a	n/a	-999	3	[0, 0, 0]	n/a	FR1	2	R1172E
419.756	1.617	428151	ORIENT	n/a	n/a	n/a	-999	3	[0, 0, 0]	n/a	FR1	2	R1172E
421.373	2.084	429768	ORIENT_OFF	n/a	n/a	n/a	-999	3	[0, 0, 0]	n/a	FR1	2	R1172E
423.457	1.616	431852	WORD	n/a	wordpools/wordpool_EN.txt	RAIN	1	3	[0, 0, 0]	n/a	FR1	2	R1172E
425.073	0.852	433468	WORD_OFF	n/a	n/a	RAIN	1	3	[0, 0, 0]	n/a	FR1	2	R1172E
425.925	1.616	434320	WORD	n/a	wordpools/wordpool_EN.txt	FAN	2	3	[0, 0, 0]	n/a	FR1	2	R1172E
427.541	0.816	435936	WORD_OFF	n/a	n/a	FAN	2	3	[0, 0, 0]	n/a	FR1	2	R1172E
428.357	1.601	436752	WORD	n/a	wordpools/wordpool_EN.txt	CLOUD	3	3	[0, 0, 0]	n/a	FR1	2	R1172E
429.958	0.834	438353	WORD_OFF	n/a	n/a	CLOUD	3	3	[0, 0, 0]	n/a	FR1	2	R1172E
430.792	1.616	439187	WORD	n/a	wordpools/wordpool_EN.txt	PLANE	4	3	[0, 0, 0]	n/a	FR1	2	R1172E
432.408	0.85	440803	WORD_OFF	n/a	n/a	PLANE	4	3	[0, 0, 0]	n/a	FR1	2	R1172E
433.258	1.618	441653	WORD	n/a	wordpools/wordpool_EN.txt	BOOK	5	3	[0, 0, 0]	n/a	FR1	2	R1172E
434.876	0.766	443271	WORD_OFF	n/a	n/a	BOOK	5	3	[0, 0, 0]	n/a	FR1	2	R1172E
435.642	1.617	444037	WORD	n/a	wordpools/wordpool_EN.txt	CORN	6	3	[0, 0, 0]	n/a	FR1	2	R1172E
437.259	0.85	445654	WORD_OFF	n/a	n/a	CORN	6	3	[0, 0, 0]	n/a	FR1	2	R1172E
438.109	1.617	446503	WORD	n/a	wordpools/wordpool_EN.txt	HORSE	7	3	[0, 0, 0]	n/a	FR1	2	R1172E
439.726	0.784	448120	WORD_OFF	n/a	n/a	HORSE	7	3	[0, 0, 0]	n/a	FR1	2	R1172E
440.51	1.616	448904	WORD	n/a	wordpools/wordpool_EN.txt	BOWL	8	3	[0, 0, 0]	n/a	FR1	2	R1172E
442.126	0.851	450520	WORD_OFF	n/a	n/a	BOWL	8	3	[0, 0, 0]	n/a	FR1	2	R1172E
442.977	1.617	451371	WORD	n/a	wordpools/wordpool_EN.txt	ARK	9	3	[0, 0, 0]	n/a	FR1	2	R1172E
444.594	0.8	452988	WORD_OFF	n/a	n/a	ARK	9	3	[0, 0, 0]	n/a	FR1	2	R1172E
445.394	1.617	453788	WORD	n/a	wordpools/wordpool_EN.txt	MAIL	10	3	[0, 0, 0]	n/a	FR1	2	R1172E
447.011	0.817	455405	WORD_OFF	n/a	n/a	MAIL	10	3	[0, 0, 0]	n/a	FR1	2	R1172E
447.828	1.616	456222	WORD	n/a	wordpools/wordpool_EN.txt	STAR	11	3	[0, 0, 0]	n/a	FR1	2	R1172E
449.444	0.934	457838	WORD_OFF	n/a	n/a	STAR	11	3	[0, 0, 0]	n/a	FR1	2	R1172E
450.378	1.617	458772	WORD	n/a	wordpools/wordpool_EN.txt	CLAY	12	3	[0, 0, 0]	n/a	FR1	2	R1172E
451.995	0.0	460389	WORD_OFF	n/a	n/a	CLAY	12	3	[0, 0, 0]	n/a	FR1	2	R1172E
451.995	0.0	460389	DISTRACT_START	n/a	n/a	n/a	-999	3	[0, 0, 0]	n/a	FR1	2	R1172E
451.995	0.016	460389	START	n/a	n/a	n/a	-999	3	[-999, -999, -999]	n/a	FR1	2	R1172E
452.011	7.102	460405	PROB	7.102	n/a	n/a	-999	3	[6, 3, 6]	15	FR1	2	R1172E
459.113	6.785	467507	PROB	6.785	n/a	n/a	-999	3	[2, 8, 5]	15	FR1	2	R1172E
465.898	6.986	474291	PROB	6.986	n/a	n/a	-999	3	[2, 2, 8]	12	FR1	2	R1172E
472.884	0.015	481277	STOP	n/a	n/a	n/a	-999	3	[-999, -999, -999]	n/a	FR1	2	R1172E
472.899	0.533	481292	DISTRACT_END	n/a	n/a	n/a	-999	3	[0, 0, 0]	n/a	FR1	2	R1172E
473.432	0.518	481825	RETRIEVAL_ORIENT	n/a	n/a	n/a	-999	3	[0, 0, 0]	n/a	FR1	2	R1172E
473.95	6.01	482343	REC_START	n/a	n/a	n/a	-999	3	[0, 0, 0]	n/a	FR1	2	R1172E
479.96	12.838	488353	REC_WORD	12.838	n/a	FLOOR	-999	3	[0, 0, 0]	n/a	FR1	2	R1172E
492.798	4.219	501190	REC_WORD	4.219	n/a	PLANE	-999	3	[0, 0, 0]	n/a	FR1	2	R1172E
497.017	6.944	505409	REC_WORD_VV	6.944	n/a	<>	-999	3	[0, 0, 0]	n/a	FR1	2	R1172E
503.961	69.438	512353	REC_END	n/a	n/a	n/a	-999	3	[0, 0, 0]	n/a	FR1	2	R1172E
573.399	0.5	581788	TRIAL	n/a	n/a	n/a	-999	4	[0, 0, 0]	n/a	FR1	2	R1172E
573.899	10.428	582288	COUNTDOWN_START	n/a	n/a	n/a	-999	4	[0, 0, 0]	n/a	FR1	2	R1172E
584.327	0.008	592715	COUNTDOWN_END	n/a	n/a	n/a	-999	4	[0, 0, 0]	n/a	FR1	2	R1172E
584.335	1.617	592723	ORIENT	n/a	n/a	n/a	-999	4	[0, 0, 0]	n/a	FR1	2	R1172E
585.952	1.984	594340	ORIENT_OFF	n/a	n/a	n/a	-999	4	[0, 0, 0]	n/a	FR1	2	R1172E
587.936	1.616	596324	WORD	n/a	wordpools/wordpool_EN.txt	DOG	1	4	[0, 0, 0]	n/a	FR1	2	R1172E
589.552	1.017	597940	WORD_OFF	n/a	n/a	DOG	1	4	[0, 0, 0]	n/a	FR1	2	R1172E
590.569	1.617	598957	WORD	n/a	wordpools/wordpool_EN.txt	PIG	2	4	[0, 0, 0]	n/a	FR1	2	R1172E
592.186	0.85	600574	WORD_OFF	n/a	n/a	PIG	2	4	[0, 0, 0]	n/a	FR1	2	R1172E
593.036	1.617	601424	WORD	n/a	wordpools/wordpool_EN.txt	RIB	3	4	[0, 0, 0]	n/a	FR1	2	R1172E
594.653	0.817	603041	WORD_OFF	n/a	n/a	RIB	3	4	[0, 0, 0]	n/a	FR1	2	R1172E
595.47	1.617	603858	WORD	n/a	wordpools/wordpool_EN.txt	SOCK	4	4	[0, 0, 0]	n/a	FR1	2	R1172E
597.087	0.784	605475	WORD_OFF	n/a	n/a	SOCK	4	4	[0, 0, 0]	n/a	FR1	2	R1172E
597.871	1.616	606259	WORD	n/a	wordpools/wordpool_EN.txt	FENCE	5	4	[0, 0, 0]	n/a	FR1	2	R1172E
599.487	0.884	607875	WORD_OFF	n/a	n/a	FENCE	5	4	[0, 0, 0]	n/a	FR1	2	R1172E
600.371	1.617	608759	WORD	n/a	wordpools/wordpool_EN.txt	ROPE	6	4	[0, 0, 0]	n/a	FR1	2	R1172E
601.988	0.834	610376	WORD_OFF	n/a	n/a	ROPE	6	4	[0, 0, 0]	n/a	FR1	2	R1172E
602.822	1.616	611210	WORD	n/a	wordpools/wordpool_EN.txt	BOAT	7	4	[0, 0, 0]	n/a	FR1	2	R1172E
604.438	0.883	612826	WORD_OFF	n/a	n/a	BOAT	7	4	[0, 0, 0]	n/a	FR1	2	R1172E
605.321	1.602	613709	WORD	n/a	wordpools/wordpool_EN.txt	RUG	8	4	[0, 0, 0]	n/a	FR1	2	R1172E
606.923	0.95	615311	WORD_OFF	n/a	n/a	RUG	8	4	[0, 0, 0]	n/a	FR1	2	R1172E
607.873	1.616	616260	WORD	n/a	wordpools/wordpool_EN.txt	TRAY	9	4	[0, 0, 0]	n/a	FR1	2	R1172E
609.489	1.0	617876	WORD_OFF	n/a	n/a	TRAY	9	4	[0, 0, 0]	n/a	FR1	2	R1172E
610.489	1.617	618876	WORD	n/a	wordpools/wordpool_EN.txt	MAP	10	4	[0, 0, 0]	n/a	FR1	2	R1172E
612.106	0.768	620493	WORD_OFF	n/a	n/a	MAP	10	4	[0, 0, 0]	n/a	FR1	2	R1172E
612.874	1.616	621261	WORD	n/a	wordpools/wordpool_EN.txt	PIT	11	4	[0, 0, 0]	n/a	FR1	2	R1172E
614.49	0.883	622877	WORD_OFF	n/a	n/a	PIT	11	4	[0, 0, 0]	n/a	FR1	2	R1172E
615.373	1.617	623760	WORD	n/a	wordpools/wordpool_EN.txt	CLOWN	12	4	[0, 0, 0]	n/a	FR1	2	R1172E
616.99	0.0	625377	WORD_OFF	n/a	n/a	CLOWN	12	4	[0, 0, 0]	n/a	FR1	2	R1172E
616.99	0.001	625377	DISTRACT_START	n/a	n/a	n/a	-999	4	[0, 0, 0]	n/a	FR1	2	R1172E
616.991	0.016	625378	START	n/a	n/a	n/a	-999	4	[-999, -999, -999]	n/a	FR1	2	R1172E
617.007	6.551	625394	PROB	6.551	n/a	n/a	-999	4	[8, 3, 1]	12	FR1	2	R1172E
623.558	8.868	631945	PROB	8.868	n/a	n/a	-999	4	[7, 9, 6]	22	FR1	2	R1172E
632.426	4.352	640812	PROB	4.352	n/a	n/a	-999	4	[1, 1, 8]	10	FR1	2	R1172E
636.778	6.281	645164	PROB	6.281	n/a	n/a	-999	4	[9, 9, 1]	19	FR1	2	R1172E
643.059	0.019	651445	STOP	n/a	n/a	n/a	-999	4	[-999, -999, -999]	n/a	FR1	2	R1172E
643.078	0.567	651464	DISTRACT_END	n/a	n/a	n/a	-999	4	[0, 0, 0]	n/a	FR1	2	R1172E
643.645	0.517	652031	RETRIEVAL_ORIENT	n/a	n/a	n/a	-999	4	[0, 0, 0]	n/a	FR1	2	R1172E
644.162	5.283	652548	REC_START	n/a	n/a	n/a	-999	4	[0, 0, 0]	n/a	FR1	2	R1172E
649.445	1.444	657831	REC_WORD	1.444	n/a	PIT	-999	4	[0, 0, 0]	n/a	FR1	2	R1172E
650.889	1.54	659275	REC_WORD	1.54	n/a	DOG	-999	4	[0, 0, 0]	n/a	FR1	2	R1172E
652.429	1.649	660815	REC_WORD	1.649	n/a	CAT	-999	4	[0, 0, 0]	n/a	FR1	2	R1172E
654.078	11.256	662464	REC_WORD	11.256	n/a	RIB	-999	4	[0, 0, 0]	n/a	FR1	2	R1172E
665.334	1.662	673719	REC_WORD	1.662	n/a	TRAY	-999	4	[0, 0, 0]	n/a	FR1	2	R1172E
666.996	7.177	675381	REC_WORD	7.177	n/a	COOK	-999	4	[0, 0, 0]	n/a	FR1	2	R1172E
674.173	18.13	682558	REC_END	n/a	n/a	n/a	-999	4	[0, 0, 0]	n/a	FR1	2	R1172E
692.303	0.5	700687	TRIAL	n/a	n/a	n/a	-999	5	[0, 0, 0]	n/a	FR1	2	R1172E
692.803	10.428	701187	COUNTDOWN_START	n/a	n/a	n/a	-999	5	[0, 0, 0]	n/a	FR1	2	R1172E
703.231	0.008	711615	COUNTDOWN_END	n/a	n/a	n/a	-999	5	[0, 0, 0]	n/a	FR1	2	R1172E
703.239	1.618	711623	ORIENT	n/a	n/a	n/a	-999	5	[0, 0, 0]	n/a	FR1	2	R1172E
704.857	1.966	713240	ORIENT_OFF	n/a	n/a	n/a	-999	5	[0, 0, 0]	n/a	FR1	2	R1172E
706.823	1.617	715206	WORD	n/a	wordpools/wordpool_EN.txt	NOSE	1	5	[0, 0, 0]	n/a	FR1	2	R1172E
708.44	0.766	716823	WORD_OFF	n/a	n/a	NOSE	1	5	[0, 0, 0]	n/a	FR1	2	R1172E
709.206	1.601	717589	WORD	n/a	wordpools/wordpool_EN.txt	ICE	2	5	[0, 0, 0]	n/a	FR1	2	R1172E
710.807	0.883	719190	WORD_OFF	n/a	n/a	ICE	2	5	[0, 0, 0]	n/a	FR1	2	R1172E
711.69	1.617	720073	WORD	n/a	wordpools/wordpool_EN.txt	DART	3	5	[0, 0, 0]	n/a	FR1	2	R1172E
713.307	0.967	721690	WORD_OFF	n/a	n/a	DART	3	5	[0, 0, 0]	n/a	FR1	2	R1172E
714.274	1.618	722657	WORD	n/a	wordpools/wordpool_EN.txt	MOUSE	4	5	[0, 0, 0]	n/a	FR1	2	R1172E
715.892	0.9	724275	WORD_OFF	n/a	n/a	MOUSE	4	5	[0, 0, 0]	n/a	FR1	2	R1172E
716.792	1.616	725175	WORD	n/a	wordpools/wordpool_EN.txt	FLEA	5	5	[0, 0, 0]	n/a	FR1	2	R1172E
718.408	0.833	726791	WORD_OFF	n/a	n/a	FLEA	5	5	[0, 0, 0]	n/a	FR1	2	R1172E
719.241	1.618	727624	WORD	n/a	wordpools/wordpool_EN.txt	CAT	6	5	[0, 0, 0]	n/a	FR1	2	R1172E
720.859	0.951	729242	WORD_OFF	n/a	n/a	CAT	6	5	[0, 0, 0]	n/a	FR1	2	R1172E
721.81	1.615	730193	WORD	n/a	wordpools/wordpool_EN.txt	SEED	7	5	[0, 0, 0]	n/a	FR1	2	R1172E
723.425	1.001	731808	WORD_OFF	n/a	n/a	SEED	7	5	[0, 0, 0]	n/a	FR1	2	R1172E
724.426	1.617	732809	WORD	n/a	wordpools/wordpool_EN.txt	SPOON	8	5	[0, 0, 0]	n/a	FR1	2	R1172E
726.043	0.983	734426	WORD_OFF	n/a	n/a	SPOON	8	5	[0, 0, 0]	n/a	FR1	2	R1172E
727.026	1.617	735409	WORD	n/a	wordpools/wordpool_EN.txt	CHAIR	9	5	[0, 0, 0]	n/a	FR1	2	R1172E
728.643	0.783	737025	WORD_OFF	n/a	n/a	CHAIR	9	5	[0, 0, 0]	n/a	FR1	2	R1172E
729.426	1.618	737808	WORD	n/a	wordpools/wordpool_EN.txt	LAKE	10	5	[0, 0, 0]	n/a	FR1	2	R1172E
731.044	0.95	739426	WORD_OFF	n/a	n/a	LAKE	10	5	[0, 0, 0]	n/a	FR1	2	R1172E
731.994	1.617	740376	WORD	n/a	wordpools/wordpool_EN.txt	CHIN	11	5	[0, 0, 0]	n/a	FR1	2	R1172E
733.611	0.85	741993	WORD_OFF	n/a	n/a	CHIN	11	5	[0, 0, 0]	n/a	FR1	2	R1172E
734.461	1.617	742843	WORD	n/a	wordpools/wordpool_EN.txt	HAWK	12	5	[0, 0, 0]	n/a	FR1	2	R1172E
736.078	0.0	744460	WORD_OFF	n/a	n/a	HAWK	12	5	[0, 0, 0]	n/a	FR1	2	R1172E
736.078	0.0	744460	DISTRACT_START	n/a	n/a	n/a	-999	5	[0, 0, 0]	n/a	FR1	2	R1172E
736.078	0.016	744460	START	n/a	n/a	n/a	-999	5	[-999, -999, -999]	n/a	FR1	2	R1172E
736.094	8.202	744476	PROB	8.202	n/a	n/a	-999	5	[6, 3, 2]	11	FR1	2	R1172E
744.296	7.018	752678	PROB	7.018	n/a	n/a	-999	5	[1, 5, 4]	10	FR1	2	R1172E
751.314	9.042	759696	PROB	9.042	n/a	n/a	-999	5	[6, 1, 4]	11	FR1	2	R1172E
760.356	0.009	768737	STOP	n/a	n/a	n/a	-999	5	[-999, -999, -999]	n/a	FR1	2	R1172E
760.365	0.684	768746	DISTRACT_END	n/a	n/a	n/a	-999	5	[0, 0, 0]	n/a	FR1	2	R1172E
761.049	0.517	769430	RETRIEVAL_ORIENT	n/a	n/a	n/a	-999	5	[0, 0, 0]	n/a	FR1	2	R1172E
761.566	2.684	769947	REC_START	n/a	n/a	n/a	-999	5	[0, 0, 0]	n/a	FR1	2	R1172E
764.25	1.622	772631	REC_WORD	1.622	n/a	CHAIR	-999	5	[0, 0, 0]	n/a	FR1	2	R1172E
765.872	1.382	774253	REC_WORD	1.382	n/a	CAT	-999	5	[0, 0, 0]	n/a	FR1	2	R1172E
767.254	24.327	775635	REC_WORD	24.327	n/a	SEED	-999	5	[0, 0, 0]	n/a	FR1	2	R1172E
791.581	13.226	799961	REC_END	n/a	n/a	n/a	-999	5	[0, 0, 0]	n/a	FR1	2	R1172E
804.807	0.5	813186	TRIAL	n/a	n/a	n/a	-999	6	[0, 0, 0]	n/a	FR1	2	R1172E
805.307	10.428	813686	COUNTDOWN_START	n/a	n/a	n/a	-999	6	[0, 0, 0]	n/a	FR1	2	R1172E
815.735	0.007	824114	COUNTDOWN_END	n/a	n/a	n/a	-999	6	[0, 0, 0]	n/a	FR1	2	R1172E
815.742	1.617	824121	ORIENT	n/a	n/a	n/a	-999	6	[0, 0, 0]	n/a	FR1	2	R1172E
817.359	2.0	825738	ORIENT_OFF	n/a	n/a	n/a	-999	6	[0, 0, 0]	n/a	FR1	2	R1172E
819.359	1.601	827738	WORD	n/a	wordpools/wordpool_EN.txt	WOLF	1	6	[0, 0, 0]	n/a	FR1	2	R1172E
820.96	0.833	829339	WORD_OFF	n/a	n/a	WOLF	1	6	[0, 0, 0]	n/a	FR1	2	R1172E
821.793	1.617	830172	WORD	n/a	wordpools/wordpool_EN.txt	GLASS	2	6	[0, 0, 0]	n/a	FR1	2	R1172E
823.41	0.966	831789	WORD_OFF	n/a	n/a	GLASS	2	6	[0, 0, 0]	n/a	FR1	2	R1172E
824.376	1.617	832755	WORD	n/a	wordpools/wordpool_EN.txt	CAPE	3	6	[0, 0, 0]	n/a	FR1	2	R1172E
825.993	0.984	834371	WORD_OFF	n/a	n/a	CAPE	3	6	[0, 0, 0]	n/a	FR1	2	R1172E
826.977	1.617	835355	WORD	n/a	wordpools/wordpool_EN.txt	ROOT	4	6	[0, 0, 0]	n/a	FR1	2	R1172E
828.594	0.8	836972	WORD_OFF	n/a	n/a	ROOT	4	6	[0, 0, 0]	n/a	FR1	2	R1172E
829.394	1.617	837772	WORD	n/a	wordpools/wordpool_EN.txt	SKUNK	5	6	[0, 0, 0]	n/a	FR1	2	R1172E
831.011	1.0	839389	WORD_OFF	n/a	n/a	SKUNK	5	6	[0, 0, 0]	n/a	FR1	2	R1172E
832.011	1.617	840389	WORD	n/a	wordpools/wordpool_EN.txt	STORM	6	6	[0, 0, 0]	n/a	FR1	2	R1172E
833.628	0.934	842006	WORD_OFF	n/a	n/a	STORM	6	6	[0, 0, 0]	n/a	FR1	2	R1172E
834.562	1.617	842940	WORD	n/a	wordpools/wordpool_EN.txt	BED	7	6	[0, 0, 0]	n/a	FR1	2	R1172E
836.179	0.916	844557	WORD_OFF	n/a	n/a	BED	7	6	[0, 0, 0]	n/a	FR1	2	R1172E
837.095	1.617	845473	WORD	n/a	wordpools/wordpool_EN.txt	SMILE	8	6	[0, 0, 0]	n/a	FR1	2	R1172E
838.712	0.934	847090	WORD_OFF	n/a	n/a	SMILE	8	6	[0, 0, 0]	n/a	FR1	2	R1172E
839.646	1.617	848024	WORD	n/a	wordpools/wordpool_EN.txt	MILK	9	6	[0, 0, 0]	n/a	FR1	2	R1172E
841.263	0.817	849641	WORD_OFF	n/a	n/a	MILK	9	6	[0, 0, 0]	n/a	FR1	2	R1172E
842.08	1.616	850458	WORD	n/a	wordpools/wordpool_EN.txt	BEE	10	6	[0, 0, 0]	n/a	FR1	2	R1172E
843.696	1.017	852074	WORD_OFF	n/a	n/a	BEE	10	6	[0, 0, 0]	n/a	FR1	2	R1172E
844.713	1.617	853091	WORD	n/a	wordpools/wordpool_EN.txt	MOOSE	11	6	[0, 0, 0]	n/a	FR1	2	R1172E
846.33	0.817	854708	WORD_OFF	n/a	n/a	MOOSE	11	6	[0, 0, 0]	n/a	FR1	2	R1172E
847.147	1.618	855525	WORD	n/a	wordpools/wordpool_EN.txt	MAZE	12	6	[0, 0, 0]	n/a	FR1	2	R1172E
848.765	0.0	857143	WORD_OFF	n/a	n/a	MAZE	12	6	[0, 0, 0]	n/a	FR1	2	R1172E
848.765	0.001	857143	DISTRACT_START	n/a	n/a	n/a	-999	6	[0, 0, 0]	n/a	FR1	2	R1172E
848.766	0.016	857144	START	n/a	n/a	n/a	-999	6	[-999, -999, -999]	n/a	FR1	2	R1172E
848.782	12.668	857160	PROB	12.668	n/a	n/a	-999	6	[7, 9, 6]	22	FR1	2	R1172E
861.45	4.234	869827	PROB	4.234	n/a	n/a	-999	6	[6, 1, 9]	16	FR1	2	R1172E
865.684	12.293	874061	PROB	12.293	n/a	n/a	-999	6	[7, 9, 8]	24	FR1	2	R1172E
877.977	0.009	886353	STOP	n/a	n/a	n/a	-999	6	[-999, -999, -999]	n/a	FR1	2	R1172E
877.986	0.683	886362	DISTRACT_END	n/a	n/a	n/a	-999	6	[0, 0, 0]	n/a	FR1	2	R1172E
878.669	0.518	887045	RETRIEVAL_ORIENT	n/a	n/a	n/a	-999	6	[0, 0, 0]	n/a	FR1	2	R1172E
879.187	4.425	887563	REC_START	n/a	n/a	n/a	-999	6	[0, 0, 0]	n/a	FR1	2	R1172E
883.612	1.939	891988	REC_WORD	1.939	n/a	ROOT	-999	6	[0, 0, 0]	n/a	FR1	2	R1172E
885.551	5.13	893927	REC_WORD	5.13	n/a	GLASS	-999	6	[0, 0, 0]	n/a	FR1	2	R1172E
890.681	8.594	899057	REC_WORD	8.594	n/a	LAKE	-999	6	[0, 0, 0]	n/a	FR1	2	R1172E
899.275	5.471	907650	REC_WORD	5.471	n/a	ZEBRA	-999	6	[0, 0, 0]	n/a	FR1	2	R1172E
904.746	4.45	913121	REC_WORD	4.45	n/a	SKUNK	-999	6	[0, 0, 0]	n/a	FR1	2	R1172E
909.196	32.518	917571	REC_END	n/a	n/a	n/a	-999	6	[0, 0, 0]	n/a	FR1	2	R1172E
941.714	0.5	950088	TRIAL	n/a	n/a	n/a	-999	7	[0, 0, 0]	n/a	FR1	2	R1172E
942.214	10.428	950588	COUNTDOWN_START	n/a	n/a	n/a	-999	7	[0, 0, 0]	n/a	FR1	2	R1172E
952.642	0.007	961015	COUNTDOWN_END	n/a	n/a	n/a	-999	7	[0, 0, 0]	n/a	FR1	2	R1172E
952.649	1.617	961022	ORIENT	n/a	n/a	n/a	-999	7	[0, 0, 0]	n/a	FR1	2	R1172E
954.266	1.917	962639	ORIENT_OFF	n/a	n/a	n/a	-999	7	[0, 0, 0]	n/a	FR1	2	R1172E
956.183	1.618	964556	WORD	n/a	wordpools/wordpool_EN.txt	FACE	1	7	[0, 0, 0]	n/a	FR1	2	R1172E
957.801	1.0	966174	WORD_OFF	n/a	n/a	FACE	1	7	[0, 0, 0]	n/a	FR1	2	R1172E
958.801	1.616	967174	WORD	n/a	wordpools/wordpool_EN.txt	FARM	2	7	[0, 0, 0]	n/a	FR1	2	R1172E
960.417	0.833	968790	WORD_OFF	n/a	n/a	FARM	2	7	[0, 0, 0]	n/a	FR1	2	R1172E
961.25	1.601	969623	WORD	n/a	wordpools/wordpool_EN.txt	CHALK	3	7	[0, 0, 0]	n/a	FR1	2	R1172E
962.851	0.866	971224	WORD_OFF	n/a	n/a	CHALK	3	7	[0, 0, 0]	n/a	FR1	2	R1172E
963.717	1.601	972090	WORD	n/a	wordpools/wordpool_EN.txt	DRESS	4	7	[0, 0, 0]	n/a	FR1	2	R1172E
965.318	0.9	973691	WORD_OFF	n/a	n/a	DRESS	4	7	[0, 0, 0]	n/a	FR1	2	R1172E
966.218	1.618	974591	WORD	n/a	wordpools/wordpool_EN.txt	SLIME	5	7	[0, 0, 0]	n/a	FR1	2	R1172E
967.836	0.866	976209	WORD_OFF	n/a	n/a	SLIME	5	7	[0, 0, 0]	n/a	FR1	2	R1172E
968.702	1.617	977075	WORD	n/a	wordpools/wordpool_EN.txt	HAT	6	7	[0, 0, 0]	n/a	FR1	2	R1172E
970.319	0.8	978691	WORD_OFF	n/a	n/a	HAT	6	7	[0, 0, 0]	n/a	FR1	2	R1172E
971.119	1.617	979491	WORD	n/a	wordpools/wordpool_EN.txt	GUARD	7	7	[0, 0, 0]	n/a	FR1	2	R1172E
972.736	0.817	981108	WORD_OFF	n/a	n/a	GUARD	7	7	[0, 0, 0]	n/a	FR1	2	R1172E
973.553	1.617	981925	WORD	n/a	wordpools/wordpool_EN.txt	PEN	8	7	[0, 0, 0]	n/a	FR1	2	R1172E
975.17	0.8	983542	WORD_OFF	n/a	n/a	PEN	8	7	[0, 0, 0]	n/a	FR1	2	R1172E
975.97	1.617	984342	WORD	n/a	wordpools/wordpool_EN.txt	TOE	9	7	[0, 0, 0]	n/a	FR1	2	R1172E
977.587	1.0	985959	WORD_OFF	n/a	n/a	TOE	9	7	[0, 0, 0]	n/a	FR1	2	R1172E
978.587	1.617	986959	WORD	n/a	wordpools/wordpool_EN.txt	BOARD	10	7	[0, 0, 0]	n/a	FR1	2	R1172E
980.204	0.833	988576	WORD_OFF	n/a	n/a	BOARD	10	7	[0, 0, 0]	n/a	FR1	2	R1172E
981.037	1.617	989409	WORD	n/a	wordpools/wordpool_EN.txt	COUCH	11	7	[0, 0, 0]	n/a	FR1	2	R1172E
982.654	0.784	991026	WORD_OFF	n/a	n/a	COUCH	11	7	[0, 0, 0]	n/a	FR1	2	R1172E
983.438	1.617	991810	WORD	n/a	wordpools/wordpool_EN.txt	FORK	12	7	[0, 0, 0]	n/a	FR1	2	R1172E
985.055	0.0	993427	WORD_OFF	n/a	n/a	FORK	12	7	[0, 0, 0]	n/a	FR1	2	R1172E
985.055	0.0	993427	DISTRACT_START	n/a	n/a	n/a	-999	7	[0, 0, 0]	n/a	FR1	2	R1172E
985.055	0.016	993427	START	n/a	n/a	n/a	-999	7	[-999, -999, -999]	n/a	FR1	2	R1172E
985.071	5.869	993443	PROB	5.869	n/a	n/a	-999	7	[7, 1, 7]	15	FR1	2	R1172E
990.94	6.15	999312	PROB	6.15	n/a	n/a	-999	7	[1, 2, 7]	10	FR1	2	R1172E
997.09	4.051	1005461	PROB	4.051	n/a	n/a	-999	7	[5, 1, 2]	8	FR1	2	R1172E
1001.141	9.126	1009512	PROB	9.126	n/a	n/a	-999	7	[8, 7, 1]	16	FR1	2	R1172E
1010.267	0.009	1018638	STOP	n/a	n/a	n/a	-999	7	[-999, -999, -999]	n/a	FR1	2	R1172E
1010.276	0.601	1018647	DISTRACT_END	n/a	n/a	n/a	-999	7	[0, 0, 0]	n/a	FR1	2	R1172E
1010.877	0.516	1019248	RETRIEVAL_ORIENT	n/a	n/a	n/a	-999	7	[0, 0, 0]	n/a	FR1	2	R1172E
1011.393	3.644	1019764	REC_START	n/a	n/a	n/a	-999	7	[0, 0, 0]	n/a	FR1	2	R1172E
1015.037	4.706	1023408	REC_WORD	4.706	n/a	COUCH	-999	7	[0, 0, 0]	n/a	FR1	2	R1172E
1019.743	5.702	1028113	REC_WORD	5.702	n/a	SIT	-999	7	[0, 0, 0]	n/a	FR1	2	R1172E
1025.445	15.957	1033815	REC_WORD	15.957	n/a	CHAIR	-999	7	[0, 0, 0]	n/a	FR1	2	R1172E
1041.402	85.177	1049772	REC_END	n/a	n/a	n/a	-999	7	[0, 0, 0]	n/a	FR1	2	R1172E
1126.579	0.5	1134945	TRIAL	n/a	n/a	n/a	-999	8	[0, 0, 0]	n/a	FR1	2	R1172E
1127.079	10.428	1135445	COUNTDOWN_START	n/a	n/a	n/a	-999	8	[0, 0, 0]	n/a	FR1	2	R1172E
1137.507	0.008	1145873	COUNTDOWN_END	n/a	n/a	n/a	-999	8	[0, 0, 0]	n/a	FR1	2	R1172E
1137.515	1.617	1145881	ORIENT	n/a	n/a	n/a	-999	8	[0, 0, 0]	n/a	FR1	2	R1172E
1139.132	2.2	1147498	ORIENT_OFF	n/a	n/a	n/a	-999	8	[0, 0, 0]	n/a	FR1	2	R1172E
1141.332	1.618	1149697	WORD	n/a	wordpools/wordpool_EN.txt	BARN	1	8	[0, 0, 0]	n/a	FR1	2	R1172E
1142.95	0.967	1151315	WORD_OFF	n/a	n/a	BARN	1	8	[0, 0, 0]	n/a	FR1	2	R1172E
1143.917	1.616	1152282	WORD	n/a	wordpools/wordpool_EN.txt	HEART	2	8	[0, 0, 0]	n/a	FR1	2	R1172E
1145.533	1.0	1153898	WORD_OFF	n/a	n/a	HEART	2	8	[0, 0, 0]	n/a	FR1	2	R1172E
1146.533	1.617	1154898	WORD	n/a	wordpools/wordpool_EN.txt	ARM	3	8	[0, 0, 0]	n/a	FR1	2	R1172E
1148.15	0.833	1156515	WORD_OFF	n/a	n/a	ARM	3	8	[0, 0, 0]	n/a	FR1	2	R1172E
1148.983	1.617	1157348	WORD	n/a	wordpools/wordpool_EN.txt	PLATE	4	8	[0, 0, 0]	n/a	FR1	2	R1172E
1150.6	0.95	1158965	WORD_OFF	n/a	n/a	PLATE	4	8	[0, 0, 0]	n/a	FR1	2	R1172E
1151.55	1.617	1159915	WORD	n/a	wordpools/wordpool_EN.txt	BOX	5	8	[0, 0, 0]	n/a	FR1	2	R1172E
1153.167	0.901	1161532	WORD_OFF	n/a	n/a	BOX	5	8	[0, 0, 0]	n/a	FR1	2	R1172E
1154.068	1.616	1162433	WORD	n/a	wordpools/wordpool_EN.txt	DEER	6	8	[0, 0, 0]	n/a	FR1	2	R1172E
1155.684	0.934	1164049	WORD_OFF	n/a	n/a	DEER	6	8	[0, 0, 0]	n/a	FR1	2	R1172E
1156.618	1.617	1164983	WORD	n/a	wordpools/wordpool_EN.txt	LIP	7	8	[0, 0, 0]	n/a	FR1	2	R1172E
1158.235	1.017	1166600	WORD_OFF	n/a	n/a	LIP	7	8	[0, 0, 0]	n/a	FR1	2	R1172E
1159.252	1.618	1167617	WORD	n/a	wordpools/wordpool_EN.txt	SNAKE	8	8	[0, 0, 0]	n/a	FR1	2	R1172E
1160.87	0.966	1169235	WORD_OFF	n/a	n/a	SNAKE	8	8	[0, 0, 0]	n/a	FR1	2	R1172E
1161.836	1.617	1170201	WORD	n/a	wordpools/wordpool_EN.txt	WAND	9	8	[0, 0, 0]	n/a	FR1	2	R1172E
1163.453	0.8	1171817	WORD_OFF	n/a	n/a	WAND	9	8	[0, 0, 0]	n/a	FR1	2	R1172E
1164.253	1.618	1172617	WORD	n/a	wordpools/wordpool_EN.txt	SEAL	10	8	[0, 0, 0]	n/a	FR1	2	R1172E
1165.871	0.9	1174235	WORD_OFF	n/a	n/a	SEAL	10	8	[0, 0, 0]	n/a	FR1	2	R1172E
1166.771	1.616	1175135	WORD	n/a	wordpools/wordpool_EN.txt	STOVE	11	8	[0, 0, 0]	n/a	FR1	2	R1172E
1168.387	0.866	1176751	WORD_OFF	n/a	n/a	STOVE	11	8	[0, 0, 0]	n/a	FR1	2	R1172E
1169.253	1.601	1177617	WORD	n/a	wordpools/wordpool_EN.txt	TREE	12	8	[0, 0, 0]	n/a	FR1	2	R1172E
1170.854	0.0	1179218	WORD_OFF	n/a	n/a	TREE	12	8	[0, 0, 0]	n/a	FR1	2	R1172E
1170.854	0.001	1179218	DISTRACT_START	n/a	n/a	n/a	-999	8	[0, 0, 0]	n/a	FR1	2	R1172E
1170.855	0.016	1179219	START	n/a	n/a	n/a	-999	8	[-999, -999, -999]	n/a	FR1	2	R1172E
1170.871	10.535	1179235	PROB	10.535	n/a	n/a	-999	8	[3, 5, 2]	10	FR1	2	R1172E
1181.406	7.117	1189770	PROB	7.117	n/a	n/a	-999	8	[1, 8, 3]	12	FR1	2	R1172E
1188.523	8.49	1196886	PROB	8.49	n/a	n/a	-999	8	[8, 8, 6]	22	FR1	2	R1172E
1197.013	0.012	1205376	STOP	n/a	n/a	n/a	-999	8	[-999, -999, -999]	n/a	FR1	2	R1172E
1197.025	0.717	1205388	DISTRACT_END	n/a	n/a	n/a	-999	8	[0, 0, 0]	n/a	FR1	2	R1172E
1197.742	0.517	1206105	RETRIEVAL_ORIENT	n/a	n/a	n/a	-999	8	[0, 0, 0]	n/a	FR1	2	R1172E
1198.259	2.461	1206622	REC_START	n/a	n/a	n/a	-999	8	[0, 0, 0]	n/a	FR1	2	R1172E
1200.72	1.953	1209083	REC_WORD	1.953	n/a	BARN	-999	8	[0, 0, 0]	n/a	FR1	2	R1172E
1202.673	3.973	1211036	REC_WORD	3.973	n/a	YARD	-999	8	[0, 0, 0]	n/a	FR1	2	R1172E
1206.646	21.624	1215009	REC_WORD	21.624	n/a	WAND	-999	8	[0, 0, 0]	n/a	FR1	2	R1172E
1228.27	92.21	1236632	REC_END	n/a	n/a	n/a	-999	8	[0, 0, 0]	n/a	FR1	2	R1172E
1320.48	0.5	1328838	TRIAL	n/a	n/a	n/a	-999	9	[0, 0, 0]	n/a	FR1	2	R1172E
1320.98	10.428	1329338	COUNTDOWN_START	n/a	n/a	n/a	-999	9	[0, 0, 0]	n/a	FR1	2	R1172E
1331.408	0.007	1339766	COUNTDOWN_END	n/a	n/a	n/a	-999	9	[0, 0, 0]	n/a	FR1	2	R1172E
1331.415	1.617	1339773	ORIENT	n/a	n/a	n/a	-999	9	[0, 0, 0]	n/a	FR1	2	R1172E
1333.032	2.101	1341389	ORIENT_OFF	n/a	n/a	n/a	-999	9	[0, 0, 0]	n/a	FR1	2	R1172E
1335.133	1.616	1343490	WORD	n/a	wordpools/wordpool_EN.txt	FOAM	1	9	[0, 0, 0]	n/a	FR1	2	R1172E
1336.749	0.984	1345106	WORD_OFF	n/a	n/a	FOAM	1	9	[0, 0, 0]	n/a	FR1	2	R1172E
1337.733	1.617	1346090	WORD	n/a	wordpools/wordpool_EN.txt	SHELL	2	9	[0, 0, 0]	n/a	FR1	2	R1172E
1339.35	0.883	1347707	WORD_OFF	n/a	n/a	SHELL	2	9	[0, 0, 0]	n/a	FR1	2	R1172E
1340.233	1.618	1348590	WORD	n/a	wordpools/wordpool_EN.txt	STEAM	3	9	[0, 0, 0]	n/a	FR1	2	R1172E
1341.851	0.899	1350208	WORD_OFF	n/a	n/a	STEAM	3	9	[0, 0, 0]	n/a	FR1	2	R1172E
1342.75	1.617	1351107	WORD	n/a	wordpools/wordpool_EN.txt	BOY	4	9	[0, 0, 0]	n/a	FR1	2	R1172E
1344.367	0.884	1352724	WORD_OFF	n/a	n/a	BOY	4	9	[0, 0, 0]	n/a	FR1	2	R1172E
1345.251	1.618	1353608	WORD	n/a	wordpools/wordpool_EN.txt	COW	5	9	[0, 0, 0]	n/a	FR1	2	R1172E
1346.869	0.966	1355226	WORD_OFF	n/a	n/a	COW	5	9	[0, 0, 0]	n/a	FR1	2	R1172E
1347.835	1.617	1356192	WORD	n/a	wordpools/wordpool_EN.txt	BAT	6	9	[0, 0, 0]	n/a	FR1	2	R1172E
1349.452	0.866	1357809	WORD_OFF	n/a	n/a	BAT	6	9	[0, 0, 0]	n/a	FR1	2	R1172E
1350.318	1.601	1358675	WORD	n/a	wordpools/wordpool_EN.txt	DUCK	7	9	[0, 0, 0]	n/a	FR1	2	R1172E
1351.919	0.8	1360276	WORD_OFF	n/a	n/a	DUCK	7	9	[0, 0, 0]	n/a	FR1	2	R1172E
1352.719	1.617	1361076	WORD	n/a	wordpools/wordpool_EN.txt	BADGE	8	9	[0, 0, 0]	n/a	FR1	2	R1172E
1354.336	0.767	1362693	WORD_OFF	n/a	n/a	BADGE	8	9	[0, 0, 0]	n/a	FR1	2	R1172E
1355.103	1.617	1363460	WORD	n/a	wordpools/wordpool_EN.txt	PHONE	9	9	[0, 0, 0]	n/a	FR1	2	R1172E
1356.72	0.866	1365077	WORD_OFF	n/a	n/a	PHONE	9	9	[0, 0, 0]	n/a	FR1	2	R1172E
1357.586	1.617	1365942	WORD	n/a	wordpools/wordpool_EN.txt	FLAME	10	9	[0, 0, 0]	n/a	FR1	2	R1172E
1359.203	0.784	1367559	WORD_OFF	n/a	n/a	FLAME	10	9	[0, 0, 0]	n/a	FR1	2	R1172E
1359.987	1.617	1368343	WORD	n/a	wordpools/wordpool_EN.txt	JEEP	11	9	[0, 0, 0]	n/a	FR1	2	R1172E
1361.604	0.783	1369960	WORD_OFF	n/a	n/a	JEEP	11	9	[0, 0, 0]	n/a	FR1	2	R1172E
1362.387	1.617	1370743	WORD	n/a	wordpools/wordpool_EN.txt	ELF	12	9	[0, 0, 0]	n/a	FR1	2	R1172E
1364.004	0.0	1372360	WORD_OFF	n/a	n/a	ELF	12	9	[0, 0, 0]	n/a	FR1	2	R1172E
1364.004	0.001	1372360	DISTRACT_START	n/a	n/a	n/a	-999	9	[0, 0, 0]	n/a	FR1	2	R1172E
1364.005	0.016	1372361	START	n/a	n/a	n/a	-999	9	[-999, -999, -999]	n/a	FR1	2	R1172E
1364.021	19.72	1372377	PROB	19.72	n/a	n/a	-999	9	[9, 9, 6]	24	FR1	2	R1172E
1383.741	13.195	1392096	PROB	13.195	n/a	n/a	-999	9	[3, 9, 3]	15	FR1	2	R1172E
1396.936	0.008	1405291	STOP	n/a	n/a	n/a	-999	9	[-999, -999, -999]	n/a	FR1	2	R1172E
1396.944	0.683	1405299	DISTRACT_END	n/a	n/a	n/a	-999	9	[0, 0, 0]	n/a	FR1	2	R1172E
1397.627	0.517	1405982	RETRIEVAL_ORIENT	n/a	n/a	n/a	-999	9	[0, 0, 0]	n/a	FR1	2	R1172E
1398.144	4.912	1406499	REC_START	n/a	n/a	n/a	-999	9	[0, 0, 0]	n/a	FR1	2	R1172E
1403.056	1.341	1411411	REC_WORD	1.341	n/a	BELT	-999	9	[0, 0, 0]	n/a	FR1	2	R1172E
1404.397	6.307	1412752	REC_WORD	6.307	n/a	STORE	-999	9	[0, 0, 0]	n/a	FR1	2	R1172E
1410.704	17.45	1419058	REC_WORD	17.45	n/a	DEER	-999	9	[0, 0, 0]	n/a	FR1	2	R1172E
1428.154	7.563	1436508	REC_END	n/a	n/a	n/a	-999	9	[0, 0, 0]	n/a	FR1	2	R1172E
1435.717	0.5	1444070	TRIAL	n/a	n/a	n/a	-999	10	[0, 0, 0]	n/a	FR1	2	R1172E
1436.217	10.428	1444570	COUNTDOWN_START	n/a	n/a	n/a	-999	10	[0, 0, 0]	n/a	FR1	2	R1172E
1446.645	0.007	1454998	COUNTDOWN_END	n/a	n/a	n/a	-999	10	[0, 0, 0]	n/a	FR1	2	R1172E
1446.652	1.617	1455005	ORIENT	n/a	n/a	n/a	-999	10	[0, 0, 0]	n/a	FR1	2	R1172E
1448.269	2.017	1456622	ORIENT_OFF	n/a	n/a	n/a	-999	10	[0, 0, 0]	n/a	FR1	2	R1172E
1450.286	1.618	1458639	WORD	n/a	wordpools/wordpool_EN.txt	TEA	1	10	[0, 0, 0]	n/a	FR1	2	R1172E
1451.904	0.917	1460257	WORD_OFF	n/a	n/a	TEA	1	10	[0, 0, 0]	n/a	FR1	2	R1172E
1452.821	1.616	1461174	WORD	n/a	wordpools/wordpool_EN.txt	TANK	2	10	[0, 0, 0]	n/a	FR1	2	R1172E
1454.437	0.983	1462789	WORD_OFF	n/a	n/a	TANK	2	10	[0, 0, 0]	n/a	FR1	2	R1172E
1455.42	1.617	1463772	WORD	n/a	wordpools/wordpool_EN.txt	PARK	3	10	[0, 0, 0]	n/a	FR1	2	R1172E
1457.037	0.785	1465389	WORD_OFF	n/a	n/a	PARK	3	10	[0, 0, 0]	n/a	FR1	2	R1172E
1457.822	1.616	1466174	WORD	n/a	wordpools/wordpool_EN.txt	HOSE	4	10	[0, 0, 0]	n/a	FR1	2	R1172E
1459.438	0.95	1467790	WORD_OFF	n/a	n/a	HOSE	4	10	[0, 0, 0]	n/a	FR1	2	R1172E
1460.388	1.617	1468740	WORD	n/a	wordpools/wordpool_EN.txt	POOL	5	10	[0, 0, 0]	n/a	FR1	2	R1172E
1462.005	0.767	1470357	WORD_OFF	n/a	n/a	POOL	5	10	[0, 0, 0]	n/a	FR1	2	R1172E
1462.772	1.616	1471124	WORD	n/a	wordpools/wordpool_EN.txt	CAGE	6	10	[0, 0, 0]	n/a	FR1	2	R1172E
1464.388	0.901	1472740	WORD_OFF	n/a	n/a	CAGE	6	10	[0, 0, 0]	n/a	FR1	2	R1172E
1465.289	1.618	1473641	WORD	n/a	wordpools/wordpool_EN.txt	HOUSE	7	10	[0, 0, 0]	n/a	FR1	2	R1172E
1466.907	0.916	1475259	WORD_OFF	n/a	n/a	HOUSE	7	10	[0, 0, 0]	n/a	FR1	2	R1172E
1467.823	1.616	1476175	WORD	n/a	wordpools/wordpool_EN.txt	BENCH	8	10	[0, 0, 0]	n/a	FR1	2	R1172E
1469.439	0.867	1477791	WORD_OFF	n/a	n/a	BENCH	8	10	[0, 0, 0]	n/a	FR1	2	R1172E
1470.306	1.618	1478658	WORD	n/a	wordpools/wordpool_EN.txt	SUIT	9	10	[0, 0, 0]	n/a	FR1	2	R1172E
1471.924	0.85	1480276	WORD_OFF	n/a	n/a	SUIT	9	10	[0, 0, 0]	n/a	FR1	2	R1172E
1472.774	1.616	1481126	WORD	n/a	wordpools/wordpool_EN.txt	WEED	10	10	[0, 0, 0]	n/a	FR1	2	R1172E
1474.39	0.984	1482742	WORD_OFF	n/a	n/a	WEED	10	10	[0, 0, 0]	n/a	FR1	2	R1172E
1475.374	1.617	1483726	WORD	n/a	wordpools/wordpool_EN.txt	BROOM	11	10	[0, 0, 0]	n/a	FR1	2	R1172E
1476.991	0.983	1485343	WORD_OFF	n/a	n/a	BROOM	11	10	[0, 0, 0]	n/a	FR1	2	R1172E
1477.974	1.617	1486325	WORD	n/a	wordpools/wordpool_EN.txt	LAWN	12	10	[0, 0, 0]	n/a	FR1	2	R1172E
1479.591	0.0	1487942	WORD_OFF	n/a	n/a	LAWN	12	10	[0, 0, 0]	n/a	FR1	2	R1172E
1479.591	0.001	1487942	DISTRACT_START	n/a	n/a	n/a	-999	10	[0, 0, 0]	n/a	FR1	2	R1172E
1479.592	0.016	1487943	START	n/a	n/a	n/a	-999	10	[-999, -999, -999]	n/a	FR1	2	R1172E
1479.608	5.534	1487959	PROB	5.534	n/a	n/a	-999	10	[1, 5, 6]	12	FR1	2	R1172E
1485.142	7.535	1493493	PROB	7.535	n/a	n/a	-999	10	[3, 2, 9]	14	FR1	2	R1172E
1492.677	3.867	1501028	PROB	3.867	n/a	n/a	-999	10	[6, 1, 1]	8	FR1	2	R1172E
1496.544	10.17	1504895	PROB	10.17	n/a	n/a	-999	10	[2, 7, 4]	13	FR1	2	R1172E
1506.714	0.015	1515064	STOP	n/a	n/a	n/a	-999	10	[-999, -999, -999]	n/a	FR1	2	R1172E
1506.729	0.55	1515079	DISTRACT_END	n/a	n/a	n/a	-999	10	[0, 0, 0]	n/a	FR1	2	R1172E
1507.279	0.519	1515629	RETRIEVAL_ORIENT	n/a	n/a	n/a	-999	10	[0, 0, 0]	n/a	FR1	2	R1172E
1507.798	4.535	1516148	REC_START	n/a	n/a	n/a	-999	10	[0, 0, 0]	n/a	FR1	2	R1172E
1512.333	25.475	1520683	REC_WORD	25.475	n/a	LAWN	-999	10	[0, 0, 0]	n/a	FR1	2	R1172E
1537.808	10.729	1546157	REC_END	n/a	n/a	n/a	-999	10	[0, 0, 0]	n/a	FR1	2	R1172E
1548.537	0.5	1556886	TRIAL	n/a	n/a	n/a	-999	11	[0, 0, 0]	n/a	FR1	2	R1172E
1549.037	10.428	1557386	COUNTDOWN_START	n/a	n/a	n/a	-999	11	[0, 0, 0]	n/a	FR1	2	R1172E
1559.465	0.007	1567813	COUNTDOWN_END	n/a	n/a	n/a	-999	11	[0, 0, 0]	n/a	FR1	2	R1172E
1559.472	1.617	1567820	ORIENT	n/a	n/a	n/a	-999	11	[0, 0, 0]	n/a	FR1	2	R1172E
1561.089	2.0	1569437	ORIENT_OFF	n/a	n/a	n/a	-999	11	[0, 0, 0]	n/a	FR1	2	R1172E
1563.089	1.617	1571437	WORD	n/a	wordpools/wordpool_EN.txt	BEACH	1	11	[0, 0, 0]	n/a	FR1	2	R1172E
1564.706	0.784	1573054	WORD_OFF	n/a	n/a	BEACH	1	11	[0, 0, 0]	n/a	FR1	2	R1172E
1565.49	1.617	1573838	WORD	n/a	wordpools/wordpool_EN.txt	COIN	2	11	[0, 0, 0]	n/a	FR1	2	R1172E
1567.107	0.983	1575455	WORD_OFF	n/a	n/a	COIN	2	11	[0, 0, 0]	n/a	FR1	2	R1172E
1568.09	1.617	1576438	WORD	n/a	wordpools/wordpool_EN.txt	CANE	3	11	[0, 0, 0]	n/a	FR1	2	R1172E
1569.707	0.8	1578055	WORD_OFF	n/a	n/a	CANE	3	11	[0, 0, 0]	n/a	FR1	2	R1172E
1570.507	1.617	1578855	WORD	n/a	wordpools/wordpool_EN.txt	GLOVE	4	11	[0, 0, 0]	n/a	FR1	2	R1172E
1572.124	1.0	1580472	WORD_OFF	n/a	n/a	GLOVE	4	11	[0, 0, 0]	n/a	FR1	2	R1172E
1573.124	1.617	1581472	WORD	n/a	wordpools/wordpool_EN.txt	LAND	5	11	[0, 0, 0]	n/a	FR1	2	R1172E
1574.741	0.817	1583088	WORD_OFF	n/a	n/a	LAND	5	11	[0, 0, 0]	n/a	FR1	2	R1172E
1575.558	1.617	1583905	WORD	n/a	wordpools/wordpool_EN.txt	GOLD	6	11	[0, 0, 0]	n/a	FR1	2	R1172E
1577.175	0.95	1585522	WORD_OFF	n/a	n/a	GOLD	6	11	[0, 0, 0]	n/a	FR1	2	R1172E
1578.125	1.617	1586472	WORD	n/a	wordpools/wordpool_EN.txt	FUR	7	11	[0, 0, 0]	n/a	FR1	2	R1172E
1579.742	0.8	1588089	WORD_OFF	n/a	n/a	FUR	7	11	[0, 0, 0]	n/a	FR1	2	R1172E
1580.542	1.617	1588889	WORD	n/a	wordpools/wordpool_EN.txt	CLOCK	8	11	[0, 0, 0]	n/a	FR1	2	R1172E
1582.159	0.884	1590506	WORD_OFF	n/a	n/a	CLOCK	8	11	[0, 0, 0]	n/a	FR1	2	R1172E
1583.043	1.616	1591390	WORD	n/a	wordpools/wordpool_EN.txt	WORLD	9	11	[0, 0, 0]	n/a	FR1	2	R1172E
1584.659	0.934	1593006	WORD_OFF	n/a	n/a	WORLD	9	11	[0, 0, 0]	n/a	FR1	2	R1172E
1585.593	1.617	1593940	WORD	n/a	wordpools/wordpool_EN.txt	GRAPE	10	11	[0, 0, 0]	n/a	FR1	2	R1172E
1587.21	0.817	1595557	WORD_OFF	n/a	n/a	GRAPE	10	11	[0, 0, 0]	n/a	FR1	2	R1172E
1588.027	1.617	1596374	WORD	n/a	wordpools/wordpool_EN.txt	OWL	11	11	[0, 0, 0]	n/a	FR1	2	R1172E
1589.644	0.85	1597991	WORD_OFF	n/a	n/a	OWL	11	11	[0, 0, 0]	n/a	FR1	2	R1172E
1590.494	1.617	1598841	WORD	n/a	wordpools/wordpool_EN.txt	BRICK	12	11	[0, 0, 0]	n/a	FR1	2	R1172E
1592.111	0.0	1600458	WORD_OFF	n/a	n/a	BRICK	12	11	[0, 0, 0]	n/a	FR1	2	R1172E
1592.111	0.0	1600458	DISTRACT_START	n/a	n/a	n/a	-999	11	[0, 0, 0]	n/a	FR1	2	R1172E
1592.111	0.017	1600458	START	n/a	n/a	n/a	-999	11	[-999, -999, -999]	n/a	FR1	2	R1172E
1592.128	22.699	1600475	PROB	22.699	n/a	n/a	-999	11	[7, 8, 9]	24	FR1	2	R1172E
1614.827	0.005	1623173	STOP	n/a	n/a	n/a	-999	11	[-999, -999, -999]	n/a	FR1	2	R1172E
1614.832	0.683	1623178	DISTRACT_END	n/a	n/a	n/a	-999	11	[0, 0, 0]	n/a	FR1	2	R1172E
1615.515	0.517	1623861	RETRIEVAL_ORIENT	n/a	n/a	n/a	-999	11	[0, 0, 0]	n/a	FR1	2	R1172E
1616.032	7.999	1624378	REC_START	n/a	n/a	n/a	-999	11	[0, 0, 0]	n/a	FR1	2	R1172E
1624.031	2.457	1632376	REC_WORD	2.457	n/a	GLOVE	-999	11	[0, 0, 0]	n/a	FR1	2	R1172E
1626.488	2.192	1634833	REC_WORD	2.192	n/a	BEACH	-999	11	[0, 0, 0]	n/a	FR1	2	R1172E
1628.68	17.36	1637025	REC_WORD	17.36	n/a	CANE	-999	11	[0, 0, 0]	n/a	FR1	2	R1172E
1646.04	169.477	1654385	REC_END	n/a	n/a	n/a	-999	11	[0, 0, 0]	n/a	FR1	2	R1172E
1815.517	0.5	1823855	TRIAL	n/a	n/a	n/a	-999	12	[0, 0, 0]	n/a	FR1	2	R1172E
1816.017	10.428	1824355	COUNTDOWN_START	n/a	n/a	n/a	-999	12	[0, 0, 0]	n/a	FR1	2	R1172E
1826.445	0.007	1834782	COUNTDOWN_END	n/a	n/a	n/a	-999	12	[0, 0, 0]	n/a	FR1	2	R1172E
1826.452	1.617	1834789	ORIENT	n/a	n/a	n/a	-999	12	[0, 0, 0]	n/a	FR1	2	R1172E
1828.069	2.117	1836406	ORIENT_OFF	n/a	n/a	n/a	-999	12	[0, 0, 0]	n/a	FR1	2	R1172E
1830.186	1.601	1838523	WORD	n/a	wordpools/wordpool_EN.txt	BIRD	1	12	[0, 0, 0]	n/a	FR1	2	R1172E
1831.787	0.866	1840124	WORD_OFF	n/a	n/a	BIRD	1	12	[0, 0, 0]	n/a	FR1	2	R1172E
1832.653	1.617	1840990	WORD	n/a	wordpools/wordpool_EN.txt	OAR	2	12	[0, 0, 0]	n/a	FR1	2	R1172E
1834.27	0.983	1842607	WORD_OFF	n/a	n/a	OAR	2	12	[0, 0, 0]	n/a	FR1	2	R1172E
1835.253	1.601	1843590	WORD	n/a	wordpools/wordpool_EN.txt	WOOD	3	12	[0, 0, 0]	n/a	FR1	2	R1172E
1836.854	0.968	1845191	WORD_OFF	n/a	n/a	WOOD	3	12	[0, 0, 0]	n/a	FR1	2	R1172E
1837.822	1.615	1846159	WORD	n/a	wordpools/wordpool_EN.txt	CAVE	4	12	[0, 0, 0]	n/a	FR1	2	R1172E
1839.437	0.951	1847774	WORD_OFF	n/a	n/a	CAVE	4	12	[0, 0, 0]	n/a	FR1	2	R1172E
1840.388	1.617	1848725	WORD	n/a	wordpools/wordpool_EN.txt	POND	5	12	[0, 0, 0]	n/a	FR1	2	R1172E
1842.005	0.8	1850341	WORD_OFF	n/a	n/a	POND	5	12	[0, 0, 0]	n/a	FR1	2	R1172E
1842.805	1.617	1851141	WORD	n/a	wordpools/wordpool_EN.txt	SMOKE	6	12	[0, 0, 0]	n/a	FR1	2	R1172E
1844.422	0.983	1852758	WORD_OFF	n/a	n/a	SMOKE	6	12	[0, 0, 0]	n/a	FR1	2	R1172E
1845.405	1.617	1853741	WORD	n/a	wordpools/wordpool_EN.txt	HOLE	7	12	[0, 0, 0]	n/a	FR1	2	R1172E
1847.022	0.885	1855358	WORD_OFF	n/a	n/a	HOLE	7	12	[0, 0, 0]	n/a	FR1	2	R1172E
1847.907	1.616	1856243	WORD	n/a	wordpools/wordpool_EN.txt	BRUSH	8	12	[0, 0, 0]	n/a	FR1	2	R1172E
1849.523	0.883	1857859	WORD_OFF	n/a	n/a	BRUSH	8	12	[0, 0, 0]	n/a	FR1	2	R1172E
1850.406	1.617	1858742	WORD	n/a	wordpools/wordpool_EN.txt	PIN	9	12	[0, 0, 0]	n/a	FR1	2	R1172E
1852.023	0.801	1860359	WORD_OFF	n/a	n/a	PIN	9	12	[0, 0, 0]	n/a	FR1	2	R1172E
1852.824	1.616	1861160	WORD	n/a	wordpools/wordpool_EN.txt	SINK	10	12	[0, 0, 0]	n/a	FR1	2	R1172E
1854.44	0.917	1862776	WORD_OFF	n/a	n/a	SINK	10	12	[0, 0, 0]	n/a	FR1	2	R1172E
1855.357	1.617	1863693	WORD	n/a	wordpools/wordpool_EN.txt	SHIELD	11	12	[0, 0, 0]	n/a	FR1	2	R1172E
1856.974	1.0	1865310	WORD_OFF	n/a	n/a	SHIELD	11	12	[0, 0, 0]	n/a	FR1	2	R1172E
1857.974	1.617	1866310	WORD	n/a	wordpools/wordpool_EN.txt	AXE	12	12	[0, 0, 0]	n/a	FR1	2	R1172E
1859.591	0.0	1867927	WORD_OFF	n/a	n/a	AXE	12	12	[0, 0, 0]	n/a	FR1	2	R1172E
1859.591	0.001	1867927	DISTRACT_START	n/a	n/a	n/a	-999	12	[0, 0, 0]	n/a	FR1	2	R1172E
1859.592	0.016	1867928	START	n/a	n/a	n/a	-999	12	[-999, -999, -999]	n/a	FR1	2	R1172E
1859.608	5.451	1867944	PROB	5.451	n/a	n/a	-999	12	[1, 3, 3]	7	FR1	2	R1172E
1865.059	13.585	1873394	PROB	13.585	n/a	n/a	-999	12	[6, 9, 5]	20	FR1	2	R1172E
1878.644	10.398	1886979	PROB	10.398	n/a	n/a	-999	12	[6, 7, 8]	21	FR1	2	R1172E
1889.042	0.021	1897377	STOP	n/a	n/a	n/a	-999	12	[-999, -999, -999]	n/a	FR1	2	R1172E
1889.063	0.65	1897398	DISTRACT_END	n/a	n/a	n/a	-999	12	[0, 0, 0]	n/a	FR1	2	R1172E
1889.713	0.518	1898047	RETRIEVAL_ORIENT	n/a	n/a	n/a	-999	12	[0, 0, 0]	n/a	FR1	2	R1172E
1890.231	1.307	1898565	REC_START	n/a	n/a	n/a	-999	12	[0, 0, 0]	n/a	FR1	2	R1172E
1891.538	1.567	1899872	REC_WORD	1.567	n/a	OAR	-999	12	[0, 0, 0]	n/a	FR1	2	R1172E
1893.105	1.496	1901439	REC_WORD	1.496	n/a	BIRD	-999	12	[0, 0, 0]	n/a	FR1	2	R1172E
1894.601	1.89	1902935	REC_WORD	1.89	n/a	CAVE	-999	12	[0, 0, 0]	n/a	FR1	2	R1172E
1896.491	2.654	1904825	REC_WORD	2.654	n/a	WOOD	-999	12	[0, 0, 0]	n/a	FR1	2	R1172E
1899.145	21.096	1907479	REC_WORD	21.096	n/a	SMOKE	-999	12	[0, 0, 0]	n/a	FR1	2	R1172E
1920.241	5.095	1928574	REC_END	n/a	n/a	n/a	-999	12	[0, 0, 0]	n/a	FR1	2	R1172E
1925.336	0.5	1933669	TRIAL	n/a	n/a	n/a	-999	13	[0, 0, 0]	n/a	FR1	2	R1172E
1925.836	10.428	1934169	COUNTDOWN_START	n/a	n/a	n/a	-999	13	[0, 0, 0]	n/a	FR1	2	R1172E
1936.264	0.007	1944597	COUNTDOWN_END	n/a	n/a	n/a	-999	13	[0, 0, 0]	n/a	FR1	2	R1172E
1936.271	1.601	1944604	ORIENT	n/a	n/a	n/a	-999	13	[0, 0, 0]	n/a	FR1	2	R1172E
1937.872	1.866	1946204	ORIENT_OFF	n/a	n/a	n/a	-999	13	[0, 0, 0]	n/a	FR1	2	R1172E
1939.738	1.617	1948070	WORD	n/a	wordpools/wordpool_EN.txt	SPEAR	1	13	[0, 0, 0]	n/a	FR1	2	R1172E
1941.355	0.817	1949687	WORD_OFF	n/a	n/a	SPEAR	1	13	[0, 0, 0]	n/a	FR1	2	R1172E
1942.172	1.618	1950504	WORD	n/a	wordpools/wordpool_EN.txt	NET	2	13	[0, 0, 0]	n/a	FR1	2	R1172E
1943.79	1.0	1952122	WORD_OFF	n/a	n/a	NET	2	13	[0, 0, 0]	n/a	FR1	2	R1172E
1944.79	1.616	1953122	WORD	n/a	wordpools/wordpool_EN.txt	FLOOR	3	13	[0, 0, 0]	n/a	FR1	2	R1172E
1946.406	0.834	1954738	WORD_OFF	n/a	n/a	FLOOR	3	13	[0, 0, 0]	n/a	FR1	2	R1172E
1947.24	1.618	1955572	WORD	n/a	wordpools/wordpool_EN.txt	SALT	4	13	[0, 0, 0]	n/a	FR1	2	R1172E
1948.858	0.798	1957190	WORD_OFF	n/a	n/a	SALT	4	13	[0, 0, 0]	n/a	FR1	2	R1172E
1949.656	1.618	1957988	WORD	n/a	wordpools/wordpool_EN.txt	SKY	5	13	[0, 0, 0]	n/a	FR1	2	R1172E
1951.274	0.833	1959606	WORD_OFF	n/a	n/a	SKY	5	13	[0, 0, 0]	n/a	FR1	2	R1172E
1952.107	1.617	1960439	WORD	n/a	wordpools/wordpool_EN.txt	STOOL	6	13	[0, 0, 0]	n/a	FR1	2	R1172E
1953.724	0.817	1962056	WORD_OFF	n/a	n/a	STOOL	6	13	[0, 0, 0]	n/a	FR1	2	R1172E
1954.541	1.617	1962873	WORD	n/a	wordpools/wordpool_EN.txt	FORT	7	13	[0, 0, 0]	n/a	FR1	2	R1172E
1956.158	1.0	1964490	WORD_OFF	n/a	n/a	FORT	7	13	[0, 0, 0]	n/a	FR1	2	R1172E
1957.158	1.618	1965490	WORD	n/a	wordpools/wordpool_EN.txt	TOY	8	13	[0, 0, 0]	n/a	FR1	2	R1172E
1958.776	0.982	1967108	WORD_OFF	n/a	n/a	TOY	8	13	[0, 0, 0]	n/a	FR1	2	R1172E
1959.758	1.618	1968090	WORD	n/a	wordpools/wordpool_EN.txt	NEST	9	13	[0, 0, 0]	n/a	FR1	2	R1172E
1961.376	0.866	1969708	WORD_OFF	n/a	n/a	NEST	9	13	[0, 0, 0]	n/a	FR1	2	R1172E
1962.242	1.618	1970573	WORD	n/a	wordpools/wordpool_EN.txt	SEAT	10	13	[0, 0, 0]	n/a	FR1	2	R1172E
1963.86	0.917	1972191	WORD_OFF	n/a	n/a	SEAT	10	13	[0, 0, 0]	n/a	FR1	2	R1172E
1964.777	1.616	1973108	WORD	n/a	wordpools/wordpool_EN.txt	TAIL	11	13	[0, 0, 0]	n/a	FR1	2	R1172E
1966.393	0.95	1974724	WORD_OFF	n/a	n/a	TAIL	11	13	[0, 0, 0]	n/a	FR1	2	R1172E
1967.343	1.618	1975674	WORD	n/a	wordpools/wordpool_EN.txt	GATE	12	13	[0, 0, 0]	n/a	FR1	2	R1172E
1968.961	0.0	1977292	WORD_OFF	n/a	n/a	GATE	12	13	[0, 0, 0]	n/a	FR1	2	R1172E
1968.961	0.001	1977292	DISTRACT_START	n/a	n/a	n/a	-999	13	[0, 0, 0]	n/a	FR1	2	R1172E
1968.962	0.015	1977293	START	n/a	n/a	n/a	-999	13	[-999, -999, -999]	n/a	FR1	2	R1172E
1968.977	17.937	1977308	PROB	17.937	n/a	n/a	-999	13	[6, 4, 5]	15	FR1	2	R1172E
1986.914	11.198	1995244	PROB	11.198	n/a	n/a	-999	13	[9, 8, 6]	23	FR1	2	R1172E
1998.112	0.02	2006442	STOP	n/a	n/a	n/a	-999	13	[-999, -999, -999]	n/a	FR1	2	R1172E
1998.132	0.667	2006462	DISTRACT_END	n/a	n/a	n/a	-999	13	[0, 0, 0]	n/a	FR1	2	R1172E
1998.799	0.517	2007129	RETRIEVAL_ORIENT	n/a	n/a	n/a	-999	13	[0, 0, 0]	n/a	FR1	2	R1172E
1999.316	2.729	2007646	REC_START	n/a	n/a	n/a	-999	13	[0, 0, 0]	n/a	FR1	2	R1172E
2002.045	1.592	2010375	REC_WORD	1.592	n/a	SPEAR	-999	13	[0, 0, 0]	n/a	FR1	2	R1172E
2003.637	25.69	2011967	REC_WORD	25.69	n/a	TOY	-999	13	[0, 0, 0]	n/a	FR1	2	R1172E
2029.327	10.412	2037656	REC_END	n/a	n/a	n/a	-999	13	[0, 0, 0]	n/a	FR1	2	R1172E
2039.739	0.5	2048067	TRIAL	n/a	n/a	n/a	-999	14	[0, 0, 0]	n/a	FR1	2	R1172E
2040.239	10.428	2048567	COUNTDOWN_START	n/a	n/a	n/a	-999	14	[0, 0, 0]	n/a	FR1	2	R1172E
2050.667	0.007	2058995	COUNTDOWN_END	n/a	n/a	n/a	-999	14	[0, 0, 0]	n/a	FR1	2	R1172E
2050.674	1.618	2059002	ORIENT	n/a	n/a	n/a	-999	14	[0, 0, 0]	n/a	FR1	2	R1172E
2052.292	2.083	2060620	ORIENT_OFF	n/a	n/a	n/a	-999	14	[0, 0, 0]	n/a	FR1	2	R1172E
2054.375	1.617	2062703	WORD	n/a	wordpools/wordpool_EN.txt	SEA	1	14	[0, 0, 0]	n/a	FR1	2	R1172E
2055.992	0.851	2064320	WORD_OFF	n/a	n/a	SEA	1	14	[0, 0, 0]	n/a	FR1	2	R1172E
2056.843	1.616	2065171	WORD	n/a	wordpools/wordpool_EN.txt	CUBE	2	14	[0, 0, 0]	n/a	FR1	2	R1172E
2058.459	0.8	2066787	WORD_OFF	n/a	n/a	CUBE	2	14	[0, 0, 0]	n/a	FR1	2	R1172E
2059.259	1.601	2067586	WORD	n/a	wordpools/wordpool_EN.txt	CHIEF	3	14	[0, 0, 0]	n/a	FR1	2	R1172E
2060.86	0.883	2069187	WORD_OFF	n/a	n/a	CHIEF	3	14	[0, 0, 0]	n/a	FR1	2	R1172E
2061.743	1.617	2070070	WORD	n/a	wordpools/wordpool_EN.txt	FRUIT	4	14	[0, 0, 0]	n/a	FR1	2	R1172E
2063.36	0.85	2071687	WORD_OFF	n/a	n/a	FRUIT	4	14	[0, 0, 0]	n/a	FR1	2	R1172E
2064.21	1.618	2072537	WORD	n/a	wordpools/wordpool_EN.txt	BEAN	5	14	[0, 0, 0]	n/a	FR1	2	R1172E
2065.828	1.017	2074155	WORD_OFF	n/a	n/a	BEAN	5	14	[0, 0, 0]	n/a	FR1	2	R1172E
2066.845	1.616	2075172	WORD	n/a	wordpools/wordpool_EN.txt	CROW	6	14	[0, 0, 0]	n/a	FR1	2	R1172E
2068.461	0.8	2076788	WORD_OFF	n/a	n/a	CROW	6	14	[0, 0, 0]	n/a	FR1	2	R1172E
2069.261	1.618	2077588	WORD	n/a	wordpools/wordpool_EN.txt	BANK	7	14	[0, 0, 0]	n/a	FR1	2	R1172E
2070.879	0.934	2079206	WORD_OFF	n/a	n/a	BANK	7	14	[0, 0, 0]	n/a	FR1	2	R1172E
2071.813	1.615	2080140	WORD	n/a	wordpools/wordpool_EN.txt	TOOL	8	14	[0, 0, 0]	n/a	FR1	2	R1172E
2073.428	0.951	2081755	WORD_OFF	n/a	n/a	TOOL	8	14	[0, 0, 0]	n/a	FR1	2	R1172E
2074.379	1.617	2082706	WORD	n/a	wordpools/wordpool_EN.txt	MOTH	9	14	[0, 0, 0]	n/a	FR1	2	R1172E
2075.996	0.784	2084323	WORD_OFF	n/a	n/a	MOTH	9	14	[0, 0, 0]	n/a	FR1	2	R1172E
2076.78	1.616	2085107	WORD	n/a	wordpools/wordpool_EN.txt	WAVE	10	14	[0, 0, 0]	n/a	FR1	2	R1172E
2078.396	0.867	2086723	WORD_OFF	n/a	n/a	WAVE	10	14	[0, 0, 0]	n/a	FR1	2	R1172E
2079.263	1.618	2087590	WORD	n/a	wordpools/wordpool_EN.txt	PET	11	14	[0, 0, 0]	n/a	FR1	2	R1172E
2080.881	0.95	2089208	WORD_OFF	n/a	n/a	PET	11	14	[0, 0, 0]	n/a	FR1	2	R1172E
2081.831	1.616	2090158	WORD	n/a	wordpools/wordpool_EN.txt	ROAD	12	14	[0, 0, 0]	n/a	FR1	2	R1172E
2083.447	0.0	2091773	WORD_OFF	n/a	n/a	ROAD	12	14	[0, 0, 0]	n/a	FR1	2	R1172E
2083.447	0.001	2091773	DISTRACT_START	n/a	n/a	n/a	-999	14	[0, 0, 0]	n/a	FR1	2	R1172E
2083.448	0.016	2091774	START	n/a	n/a	n/a	-999	14	[-999, -999, -999]	n/a	FR1	2	R1172E
2083.464	7.568	2091790	PROB	7.568	n/a	n/a	-999	14	[8, 2, 8]	18	FR1	2	R1172E
2091.032	4.751	2099358	PROB	4.751	n/a	n/a	-999	14	[1, 2, 3]	6	FR1	2	R1172E
2095.783	3.75	2104109	PROB	3.75	n/a	n/a	-999	14	[1, 9, 1]	11	FR1	2	R1172E
2099.533	14.965	2107859	PROB	14.965	n/a	n/a	-999	14	[6, 4, 3]	13	FR1	2	R1172E
2114.498	0.021	2122823	STOP	n/a	n/a	n/a	-999	14	[-999, -999, -999]	n/a	FR1	2	R1172E
2114.519	0.517	2122844	DISTRACT_END	n/a	n/a	n/a	-999	14	[0, 0, 0]	n/a	FR1	2	R1172E
2115.036	0.517	2123361	RETRIEVAL_ORIENT	n/a	n/a	n/a	-999	14	[0, 0, 0]	n/a	FR1	2	R1172E
2115.553	8.174	2123878	REC_START	n/a	n/a	n/a	-999	14	[0, 0, 0]	n/a	FR1	2	R1172E
2123.727	1.104	2132052	REC_WORD	1.104	n/a	AXE	-999	14	[0, 0, 0]	n/a	FR1	2	R1172E
2124.831	1.439	2133156	REC_WORD	1.439	n/a	CUBE	-999	14	[0, 0, 0]	n/a	FR1	2	R1172E
2126.27	3.125	2134595	REC_WORD	3.125	n/a	CHIEF	-999	14	[0, 0, 0]	n/a	FR1	2	R1172E
2129.395	16.167	2137720	REC_WORD	16.167	n/a	SEA	-999	14	[0, 0, 0]	n/a	FR1	2	R1172E
2145.562	106.964	2153886	REC_END	n/a	n/a	n/a	-999	14	[0, 0, 0]	n/a	FR1	2	R1172E
2252.526	0.5	2260845	TRIAL	n/a	n/a	n/a	-999	15	[0, 0, 0]	n/a	FR1	2	R1172E
2253.026	10.428	2261345	COUNTDOWN_START	n/a	n/a	n/a	-999	15	[0, 0, 0]	n/a	FR1	2	R1172E
2263.454	0.008	2271773	COUNTDOWN_END	n/a	n/a	n/a	-999	15	[0, 0, 0]	n/a	FR1	2	R1172E
2263.462	1.617	2271781	ORIENT	n/a	n/a	n/a	-999	15	[0, 0, 0]	n/a	FR1	2	R1172E
2265.079	2.1	2273398	ORIENT_OFF	n/a	n/a	n/a	-999	15	[0, 0, 0]	n/a	FR1	2	R1172E
2267.179	1.601	2275498	WORD	n/a	wordpools/wordpool_EN.txt	LAMB	1	15	[0, 0, 0]	n/a	FR1	2	R1172E
2268.78	0.783	2277099	WORD_OFF	n/a	n/a	LAMB	1	15	[0, 0, 0]	n/a	FR1	2	R1172E
2269.563	1.617	2277882	WORD	n/a	wordpools/wordpool_EN.txt	TENT	2	15	[0, 0, 0]	n/a	FR1	2	R1172E
2271.18	0.933	2279499	WORD_OFF	n/a	n/a	TENT	2	15	[0, 0, 0]	n/a	FR1	2	R1172E
2272.113	1.617	2280432	WORD	n/a	wordpools/wordpool_EN.txt	SHIP	3	15	[0, 0, 0]	n/a	FR1	2	R1172E
2273.73	0.8	2282049	WORD_OFF	n/a	n/a	SHIP	3	15	[0, 0, 0]	n/a	FR1	2	R1172E
2274.53	1.617	2282849	WORD	n/a	wordpools/wordpool_EN.txt	PRINCE	4	15	[0, 0, 0]	n/a	FR1	2	R1172E
2276.147	0.967	2284466	WORD_OFF	n/a	n/a	PRINCE	4	15	[0, 0, 0]	n/a	FR1	2	R1172E
2277.114	1.617	2285432	WORD	n/a	wordpools/wordpool_EN.txt	INK	5	15	[0, 0, 0]	n/a	FR1	2	R1172E
2278.731	0.784	2287049	WORD_OFF	n/a	n/a	INK	5	15	[0, 0, 0]	n/a	FR1	2	R1172E
2279.515	1.617	2287833	WORD	n/a	wordpools/wordpool_EN.txt	BLUSH	6	15	[0, 0, 0]	n/a	FR1	2	R1172E
2281.132	0.883	2289450	WORD_OFF	n/a	n/a	BLUSH	6	15	[0, 0, 0]	n/a	FR1	2	R1172E
2282.015	1.617	2290333	WORD	n/a	wordpools/wordpool_EN.txt	JAIL	7	15	[0, 0, 0]	n/a	FR1	2	R1172E
2283.632	0.95	2291950	WORD_OFF	n/a	n/a	JAIL	7	15	[0, 0, 0]	n/a	FR1	2	R1172E
2284.582	1.617	2292900	WORD	n/a	wordpools/wordpool_EN.txt	HOOK	8	15	[0, 0, 0]	n/a	FR1	2	R1172E
2286.199	0.884	2294517	WORD_OFF	n/a	n/a	HOOK	8	15	[0, 0, 0]	n/a	FR1	2	R1172E
2287.083	1.617	2295401	WORD	n/a	wordpools/wordpool_EN.txt	CALF	9	15	[0, 0, 0]	n/a	FR1	2	R1172E
2288.7	0.85	2297018	WORD_OFF	n/a	n/a	CALF	9	15	[0, 0, 0]	n/a	FR1	2	R1172E
2289.55	1.617	2297868	WORD	n/a	wordpools/wordpool_EN.txt	FOOD	10	15	[0, 0, 0]	n/a	FR1	2	R1172E
2291.167	0.95	2299485	WORD_OFF	n/a	n/a	FOOD	10	15	[0, 0, 0]	n/a	FR1	2	R1172E
2292.117	1.617	2300435	WORD	n/a	wordpools/wordpool_EN.txt	EAR	11	15	[0, 0, 0]	n/a	FR1	2	R1172E
2293.734	0.85	2302052	WORD_OFF	n/a	n/a	EAR	11	15	[0, 0, 0]	n/a	FR1	2	R1172E
2294.584	1.617	2302902	WORD	n/a	wordpools/wordpool_EN.txt	VAN	12	15	[0, 0, 0]	n/a	FR1	2	R1172E
2296.201	0.0	2304519	WORD_OFF	n/a	n/a	VAN	12	15	[0, 0, 0]	n/a	FR1	2	R1172E
2296.201	0.0	2304519	DISTRACT_START	n/a	n/a	n/a	-999	15	[0, 0, 0]	n/a	FR1	2	R1172E
2296.201	0.016	2304519	START	n/a	n/a	n/a	-999	15	[-999, -999, -999]	n/a	FR1	2	R1172E
2296.217	13.22	2304535	PROB	13.22	n/a	n/a	-999	15	[2, 6, 3]	11	FR1	2	R1172E
2309.437	12.962	2317754	PROB	12.962	n/a	n/a	-999	15	[9, 7, 1]	17	FR1	2	R1172E
2322.399	0.006	2330716	STOP	n/a	n/a	n/a	-999	15	[-999, -999, -999]	n/a	FR1	2	R1172E
2322.405	0.584	2330722	DISTRACT_END	n/a	n/a	n/a	-999	15	[0, 0, 0]	n/a	FR1	2	R1172E
2322.989	0.517	2331306	RETRIEVAL_ORIENT	n/a	n/a	n/a	-999	15	[0, 0, 0]	n/a	FR1	2	R1172E
2323.506	2.211	2331823	REC_START	n/a	n/a	n/a	-999	15	[0, 0, 0]	n/a	FR1	2	R1172E
2325.717	1.303	2334033	REC_WORD	1.303	n/a	FOOD	-999	15	[0, 0, 0]	n/a	FR1	2	R1172E
2327.02	3.889	2335336	REC_WORD	3.889	n/a	BANK	-999	15	[0, 0, 0]	n/a	FR1	2	R1172E
2330.909	1.582	2339225	REC_WORD	1.582	n/a	LAMB	-999	15	[0, 0, 0]	n/a	FR1	2	R1172E
2332.491	21.025	2340807	REC_WORD	21.025	n/a	WOOL	-999	15	[0, 0, 0]	n/a	FR1	2	R1172E
2353.516	57.788	2361831	REC_END	n/a	n/a	n/a	-999	15	[0, 0, 0]	n/a	FR1	2	R1172E
2411.304	0.5	2419617	TRIAL	n/a	n/a	n/a	-999	16	[0, 0, 0]	n/a	FR1	2	R1172E
2411.804	10.428	2420117	COUNTDOWN_START	n/a	n/a	n/a	-999	16	[0, 0, 0]	n/a	FR1	2	R1172E
2422.232	0.008	2430544	COUNTDOWN_END	n/a	n/a	n/a	-999	16	[0, 0, 0]	n/a	FR1	2	R1172E
2422.24	1.618	2430552	ORIENT	n/a	n/a	n/a	-999	16	[0, 0, 0]	n/a	FR1	2	R1172E
2423.858	2.316	2432170	ORIENT_OFF	n/a	n/a	n/a	-999	16	[0, 0, 0]	n/a	FR1	2	R1172E
2426.174	1.618	2434486	WORD	n/a	wordpools/wordpool_EN.txt	APE	1	16	[0, 0, 0]	n/a	FR1	2	R1172E
2427.792	0.765	2436104	WORD_OFF	n/a	n/a	APE	1	16	[0, 0, 0]	n/a	FR1	2	R1172E
2428.557	1.617	2436869	WORD	n/a	wordpools/wordpool_EN.txt	TRASH	2	16	[0, 0, 0]	n/a	FR1	2	R1172E
2430.174	0.917	2438486	WORD_OFF	n/a	n/a	TRASH	2	16	[0, 0, 0]	n/a	FR1	2	R1172E
2431.091	1.617	2439403	WORD	n/a	wordpools/wordpool_EN.txt	SUN	3	16	[0, 0, 0]	n/a	FR1	2	R1172E
2432.708	0.8	2441020	WORD_OFF	n/a	n/a	SUN	3	16	[0, 0, 0]	n/a	FR1	2	R1172E
2433.508	1.617	2441820	WORD	n/a	wordpools/wordpool_EN.txt	SPONGE	4	16	[0, 0, 0]	n/a	FR1	2	R1172E
2435.125	0.867	2443437	WORD_OFF	n/a	n/a	SPONGE	4	16	[0, 0, 0]	n/a	FR1	2	R1172E
2435.992	1.617	2444304	WORD	n/a	wordpools/wordpool_EN.txt	SLEEVE	5	16	[0, 0, 0]	n/a	FR1	2	R1172E
2437.609	0.983	2445921	WORD_OFF	n/a	n/a	SLEEVE	5	16	[0, 0, 0]	n/a	FR1	2	R1172E
2438.592	1.617	2446904	WORD	n/a	wordpools/wordpool_EN.txt	PALM	6	16	[0, 0, 0]	n/a	FR1	2	R1172E
2440.209	0.767	2448521	WORD_OFF	n/a	n/a	PALM	6	16	[0, 0, 0]	n/a	FR1	2	R1172E
2440.976	1.617	2449288	WORD	n/a	wordpools/wordpool_EN.txt	HEN	7	16	[0, 0, 0]	n/a	FR1	2	R1172E
2442.593	0.85	2450905	WORD_OFF	n/a	n/a	HEN	7	16	[0, 0, 0]	n/a	FR1	2	R1172E
2443.443	1.617	2451755	WORD	n/a	wordpools/wordpool_EN.txt	CLIFF	8	16	[0, 0, 0]	n/a	FR1	2	R1172E
2445.06	0.967	2453372	WORD_OFF	n/a	n/a	CLIFF	8	16	[0, 0, 0]	n/a	FR1	2	R1172E
2446.027	1.617	2454338	WORD	n/a	wordpools/wordpool_EN.txt	CONE	9	16	[0, 0, 0]	n/a	FR1	2	R1172E
2447.644	0.934	2455955	WORD_OFF	n/a	n/a	CONE	9	16	[0, 0, 0]	n/a	FR1	2	R1172E
2448.578	1.617	2456889	WORD	n/a	wordpools/wordpool_EN.txt	SHRIMP	10	16	[0, 0, 0]	n/a	FR1	2	R1172E
2450.195	0.866	2458506	WORD_OFF	n/a	n/a	SHRIMP	10	16	[0, 0, 0]	n/a	FR1	2	R1172E
2451.061	1.617	2459372	WORD	n/a	wordpools/wordpool_EN.txt	STONE	11	16	[0, 0, 0]	n/a	FR1	2	R1172E
2452.678	0.851	2460989	WORD_OFF	n/a	n/a	STONE	11	16	[0, 0, 0]	n/a	FR1	2	R1172E
2453.529	1.616	2461840	WORD	n/a	wordpools/wordpool_EN.txt	SQUARE	12	16	[0, 0, 0]	n/a	FR1	2	R1172E
2455.145	0.0	2463456	WORD_OFF	n/a	n/a	SQUARE	12	16	[0, 0, 0]	n/a	FR1	2	R1172E
2455.145	0.001	2463456	DISTRACT_START	n/a	n/a	n/a	-999	16	[0, 0, 0]	n/a	FR1	2	R1172E
2455.146	0.016	2463457	START	n/a	n/a	n/a	-999	16	[-999, -999, -999]	n/a	FR1	2	R1172E
2455.162	8.719	2463473	PROB	8.719	n/a	n/a	-999	16	[3, 9, 9]	21	FR1	2	R1172E
2463.881	7.401	2472192	PROB	7.401	n/a	n/a	-999	16	[5, 3, 9]	17	FR1	2	R1172E
2471.282	9.604	2479592	PROB	9.604	n/a	n/a	-999	16	[3, 4, 7]	14	FR1	2	R1172E
2480.886	0.015	2489196	STOP	n/a	n/a	n/a	-999	16	[-999, -999, -999]	n/a	FR1	2	R1172E
2480.901	0.632	2489211	DISTRACT_END	n/a	n/a	n/a	-999	16	[0, 0, 0]	n/a	FR1	2	R1172E
2481.533	0.518	2489843	RETRIEVAL_ORIENT	n/a	n/a	n/a	-999	16	[0, 0, 0]	n/a	FR1	2	R1172E
2482.051	2.956	2490361	REC_START	n/a	n/a	n/a	-999	16	[0, 0, 0]	n/a	FR1	2	R1172E
2485.007	2.154	2493317	REC_WORD	2.154	n/a	APE	-999	16	[0, 0, 0]	n/a	FR1	2	R1172E
2487.161	2.697	2495471	REC_WORD	2.697	n/a	STAIR	-999	16	[0, 0, 0]	n/a	FR1	2	R1172E
2489.858	8.186	2498168	REC_WORD	8.186	n/a	CLOTHING	-999	16	[0, 0, 0]	n/a	FR1	2	R1172E
2498.044	14.016	2506353	REC_WORD	14.016	n/a	SHRIMP	-999	16	[0, 0, 0]	n/a	FR1	2	R1172E
2512.06	32.852	2520369	REC_END	n/a	n/a	n/a	-999	16	[0, 0, 0]	n/a	FR1	2	R1172E
2544.912	0.5	2553219	TRIAL	n/a	n/a	n/a	-999	17	[0, 0, 0]	n/a	FR1	2	R1172E
2545.412	10.428	2553719	COUNTDOWN_START	n/a	n/a	n/a	-999	17	[0, 0, 0]	n/a	FR1	2	R1172E
2555.84	0.007	2564147	COUNTDOWN_END	n/a	n/a	n/a	-999	17	[0, 0, 0]	n/a	FR1	2	R1172E
2555.847	1.616	2564154	ORIENT	n/a	n/a	n/a	-999	17	[0, 0, 0]	n/a	FR1	2	R1172E
2557.463	2.201	2565770	ORIENT_OFF	n/a	n/a	n/a	-999	17	[0, 0, 0]	n/a	FR1	2	R1172E
2559.664	1.617	2567971	WORD	n/a	wordpools/wordpool_EN.txt	SIGN	1	17	[0, 0, 0]	n/a	FR1	2	R1172E
2561.281	0.983	2569588	WORD_OFF	n/a	n/a	SIGN	1	17	[0, 0, 0]	n/a	FR1	2	R1172E
2562.264	1.618	2570571	WORD	n/a	wordpools/wordpool_EN.txt	PIPE	2	17	[0, 0, 0]	n/a	FR1	2	R1172E
2563.882	0.783	2572189	WORD_OFF	n/a	n/a	PIPE	2	17	[0, 0, 0]	n/a	FR1	2	R1172E
2564.665	1.617	2572972	WORD	n/a	wordpools/wordpool_EN.txt	STRING	3	17	[0, 0, 0]	n/a	FR1	2	R1172E
2566.282	0.85	2574589	WORD_OFF	n/a	n/a	STRING	3	17	[0, 0, 0]	n/a	FR1	2	R1172E
2567.132	1.617	2575438	WORD	n/a	wordpools/wordpool_EN.txt	STICK	4	17	[0, 0, 0]	n/a	FR1	2	R1172E
2568.749	0.867	2577055	WORD_OFF	n/a	n/a	STICK	4	17	[0, 0, 0]	n/a	FR1	2	R1172E
2569.616	1.616	2577922	WORD	n/a	wordpools/wordpool_EN.txt	SNOW	5	17	[0, 0, 0]	n/a	FR1	2	R1172E
2571.232	0.784	2579538	WORD_OFF	n/a	n/a	SNOW	5	17	[0, 0, 0]	n/a	FR1	2	R1172E
2572.016	1.617	2580322	WORD	n/a	wordpools/wordpool_EN.txt	WING	6	17	[0, 0, 0]	n/a	FR1	2	R1172E
2573.633	0.933	2581939	WORD_OFF	n/a	n/a	WING	6	17	[0, 0, 0]	n/a	FR1	2	R1172E
2574.566	1.617	2582872	WORD	n/a	wordpools/wordpool_EN.txt	DRUM	7	17	[0, 0, 0]	n/a	FR1	2	R1172E
2576.183	0.884	2584489	WORD_OFF	n/a	n/a	DRUM	7	17	[0, 0, 0]	n/a	FR1	2	R1172E
2577.067	1.617	2585373	WORD	n/a	wordpools/wordpool_EN.txt	STORE	8	17	[0, 0, 0]	n/a	FR1	2	R1172E
2578.684	0.833	2586990	WORD_OFF	n/a	n/a	STORE	8	17	[0, 0, 0]	n/a	FR1	2	R1172E
2579.517	1.617	2587823	WORD	n/a	wordpools/wordpool_EN.txt	SWAMP	9	17	[0, 0, 0]	n/a	FR1	2	R1172E
2581.134	0.934	2589440	WORD_OFF	n/a	n/a	SWAMP	9	17	[0, 0, 0]	n/a	FR1	2	R1172E
2582.068	1.617	2590374	WORD	n/a	wordpools/wordpool_EN.txt	MULE	10	17	[0, 0, 0]	n/a	FR1	2	R1172E
2583.685	0.9	2591991	WORD_OFF	n/a	n/a	MULE	10	17	[0, 0, 0]	n/a	FR1	2	R1172E
2584.585	1.617	2592891	WORD	n/a	wordpools/wordpool_EN.txt	SHARK	11	17	[0, 0, 0]	n/a	FR1	2	R1172E
2586.202	1.0	2594508	WORD_OFF	n/a	n/a	SHARK	11	17	[0, 0, 0]	n/a	FR1	2	R1172E
2587.202	1.618	2595508	WORD	n/a	wordpools/wordpool_EN.txt	BALL	12	17	[0, 0, 0]	n/a	FR1	2	R1172E
2588.82	0.0	2597126	WORD_OFF	n/a	n/a	BALL	12	17	[0, 0, 0]	n/a	FR1	2	R1172E
2588.82	0.0	2597126	DISTRACT_START	n/a	n/a	n/a	-999	17	[0, 0, 0]	n/a	FR1	2	R1172E
2588.82	0.017	2597126	START	n/a	n/a	n/a	-999	17	[-999, -999, -999]	n/a	FR1	2	R1172E
2588.837	11.751	2597143	PROB	11.751	n/a	n/a	-999	17	[8, 4, 4]	16	FR1	2	R1172E
2600.588	4.717	2608893	PROB	4.717	n/a	n/a	-999	17	[5, 3, 5]	13	FR1	2	R1172E
2605.305	3.683	2613610	PROB	3.683	n/a	n/a	-999	17	[4, 8, 2]	14	FR1	2	R1172E
2608.988	0.018	2617293	STOP	n/a	n/a	n/a	-999	17	[-999, -999, -999]	n/a	FR1	2	R1172E
2609.006	0.683	2617311	DISTRACT_END	n/a	n/a	n/a	-999	17	[0, 0, 0]	n/a	FR1	2	R1172E
2609.689	0.518	2617994	RETRIEVAL_ORIENT	n/a	n/a	n/a	-999	17	[0, 0, 0]	n/a	FR1	2	R1172E
2610.207	2.232	2618512	REC_START	n/a	n/a	n/a	-999	17	[0, 0, 0]	n/a	FR1	2	R1172E
2612.439	1.044	2620744	REC_WORD	1.044	n/a	APE	-999	17	[0, 0, 0]	n/a	FR1	2	R1172E
2613.483	1.27	2621788	REC_WORD	1.27	n/a	SIGN	-999	17	[0, 0, 0]	n/a	FR1	2	R1172E
2614.753	25.464	2623058	REC_WORD	25.464	n/a	STRING	-999	17	[0, 0, 0]	n/a	FR1	2	R1172E
2640.217	18.197	2648520	REC_END	n/a	n/a	n/a	-999	17	[0, 0, 0]	n/a	FR1	2	R1172E
2658.414	0.5	2666717	TRIAL	n/a	n/a	n/a	-999	18	[0, 0, 0]	n/a	FR1	2	R1172E
2658.914	10.428	2667217	COUNTDOWN_START	n/a	n/a	n/a	-999	18	[0, 0, 0]	n/a	FR1	2	R1172E
2669.342	0.008	2677644	COUNTDOWN_END	n/a	n/a	n/a	-999	18	[0, 0, 0]	n/a	FR1	2	R1172E
2669.35	1.601	2677652	ORIENT	n/a	n/a	n/a	-999	18	[0, 0, 0]	n/a	FR1	2	R1172E
2670.951	2.266	2679253	ORIENT_OFF	n/a	n/a	n/a	-999	18	[0, 0, 0]	n/a	FR1	2	R1172E
2673.217	1.601	2681519	WORD	n/a	wordpools/wordpool_EN.txt	TOAD	1	18	[0, 0, 0]	n/a	FR1	2	R1172E
2674.818	0.866	2683120	WORD_OFF	n/a	n/a	TOAD	1	18	[0, 0, 0]	n/a	FR1	2	R1172E
2675.684	1.617	2683986	WORD	n/a	wordpools/wordpool_EN.txt	PEAR	2	18	[0, 0, 0]	n/a	FR1	2	R1172E
2677.301	0.8	2685603	WORD_OFF	n/a	n/a	PEAR	2	18	[0, 0, 0]	n/a	FR1	2	R1172E
2678.101	1.617	2686403	WORD	n/a	wordpools/wordpool_EN.txt	PASTE	3	18	[0, 0, 0]	n/a	FR1	2	R1172E
2679.718	0.9	2688020	WORD_OFF	n/a	n/a	PASTE	3	18	[0, 0, 0]	n/a	FR1	2	R1172E
2680.618	1.617	2688920	WORD	n/a	wordpools/wordpool_EN.txt	FUDGE	4	18	[0, 0, 0]	n/a	FR1	2	R1172E
2682.235	1.0	2690537	WORD_OFF	n/a	n/a	FUDGE	4	18	[0, 0, 0]	n/a	FR1	2	R1172E
2683.235	1.618	2691537	WORD	n/a	wordpools/wordpool_EN.txt	DIME	5	18	[0, 0, 0]	n/a	FR1	2	R1172E
2684.853	0.766	2693155	WORD_OFF	n/a	n/a	DIME	5	18	[0, 0, 0]	n/a	FR1	2	R1172E
2685.619	1.617	2693921	WORD	n/a	wordpools/wordpool_EN.txt	HILL	6	18	[0, 0, 0]	n/a	FR1	2	R1172E
2687.236	0.817	2695538	WORD_OFF	n/a	n/a	HILL	6	18	[0, 0, 0]	n/a	FR1	2	R1172E
2688.053	1.617	2696354	WORD	n/a	wordpools/wordpool_EN.txt	DOLL	7	18	[0, 0, 0]	n/a	FR1	2	R1172E
2689.67	0.95	2697971	WORD_OFF	n/a	n/a	DOLL	7	18	[0, 0, 0]	n/a	FR1	2	R1172E
2690.62	1.617	2698921	WORD	n/a	wordpools/wordpool_EN.txt	GRASS	8	18	[0, 0, 0]	n/a	FR1	2	R1172E
2692.237	0.984	2700538	WORD_OFF	n/a	n/a	GRASS	8	18	[0, 0, 0]	n/a	FR1	2	R1172E
2693.221	1.617	2701522	WORD	n/a	wordpools/wordpool_EN.txt	TOAST	9	18	[0, 0, 0]	n/a	FR1	2	R1172E
2694.838	0.8	2703139	WORD_OFF	n/a	n/a	TOAST	9	18	[0, 0, 0]	n/a	FR1	2	R1172E
2695.638	1.617	2703939	WORD	n/a	wordpools/wordpool_EN.txt	CHEEK	10	18	[0, 0, 0]	n/a	FR1	2	R1172E
2697.255	0.966	2705556	WORD_OFF	n/a	n/a	CHEEK	10	18	[0, 0, 0]	n/a	FR1	2	R1172E
2698.221	1.618	2706522	WORD	n/a	wordpools/wordpool_EN.txt	ANT	11	18	[0, 0, 0]	n/a	FR1	2	R1172E
2699.839	0.85	2708140	WORD_OFF	n/a	n/a	ANT	11	18	[0, 0, 0]	n/a	FR1	2	R1172E
2700.689	1.617	2708990	WORD	n/a	wordpools/wordpool_EN.txt	LEAF	12	18	[0, 0, 0]	n/a	FR1	2	R1172E
2702.306	0.0	2710607	DISTRACT_START	n/a	n/a	n/a	-999	18	[0, 0, 0]	n/a	FR1	2	R1172E
2702.306	0.0	2710607	WORD_OFF	n/a	n/a	LEAF	12	18	[0, 0, 0]	n/a	FR1	2	R1172E
2702.306	0.016	2710607	START	n/a	n/a	n/a	-999	18	[-999, -999, -999]	n/a	FR1	2	R1172E
2702.322	9.185	2710623	PROB	9.185	n/a	n/a	-999	18	[7, 9, 9]	25	FR1	2	R1172E
2711.507	7.185	2719808	PROB	7.185	n/a	n/a	-999	18	[2, 2, 9]	13	FR1	2	R1172E
2718.692	9.324	2726992	PROB	9.324	n/a	n/a	-999	18	[5, 6, 4]	15	FR1	2	R1172E
2728.016	0.011	2736316	STOP	n/a	n/a	n/a	-999	18	[-999, -999, -999]	n/a	FR1	2	R1172E
2728.027	0.583	2736327	DISTRACT_END	n/a	n/a	n/a	-999	18	[0, 0, 0]	n/a	FR1	2	R1172E
2728.61	0.517	2736910	RETRIEVAL_ORIENT	n/a	n/a	n/a	-999	18	[0, 0, 0]	n/a	FR1	2	R1172E
2729.127	4.359	2737427	REC_START	n/a	n/a	n/a	-999	18	[0, 0, 0]	n/a	FR1	2	R1172E
2733.486	4.077	2741786	REC_WORD	4.077	n/a	LEAF	-999	18	[0, 0, 0]	n/a	FR1	2	R1172E
2737.563	20.844	2745862	REC_WORD	20.844	n/a	STRAW	-999	18	[0, 0, 0]	n/a	FR1	2	R1172E
2758.407	0.73	2766706	REC_WORD	0.73	n/a	CHEEK	-999	18	[0, 0, 0]	n/a	FR1	2	R1172E
2759.137	99.329	2767436	REC_END	n/a	n/a	n/a	-999	18	[0, 0, 0]	n/a	FR1	2	R1172E
2858.466	0.5	2866760	TRIAL	n/a	n/a	n/a	-999	19	[0, 0, 0]	n/a	FR1	2	R1172E
2858.966	10.428	2867260	COUNTDOWN_START	n/a	n/a	n/a	-999	19	[0, 0, 0]	n/a	FR1	2	R1172E
2869.394	0.007	2877688	COUNTDOWN_END	n/a	n/a	n/a	-999	19	[0, 0, 0]	n/a	FR1	2	R1172E
2869.401	1.617	2877695	ORIENT	n/a	n/a	n/a	-999	19	[0, 0, 0]	n/a	FR1	2	R1172E
2871.018	2.134	2879312	ORIENT_OFF	n/a	n/a	n/a	-999	19	[0, 0, 0]	n/a	FR1	2	R1172E
2873.152	1.618	2881446	WORD	n/a	wordpools/wordpool_EN.txt	SOUP	1	19	[0, 0, 0]	n/a	FR1	2	R1172E
2874.77	0.949	2883064	WORD_OFF	n/a	n/a	SOUP	1	19	[0, 0, 0]	n/a	FR1	2	R1172E
2875.719	1.617	2884013	WORD	n/a	wordpools/wordpool_EN.txt	VINE	2	19	[0, 0, 0]	n/a	FR1	2	R1172E
2877.336	0.917	2885630	WORD_OFF	n/a	n/a	VINE	2	19	[0, 0, 0]	n/a	FR1	2	R1172E
2878.253	1.618	2886547	WORD	n/a	wordpools/wordpool_EN.txt	ROOF	3	19	[0, 0, 0]	n/a	FR1	2	R1172E
2879.871	0.934	2888165	WORD_OFF	n/a	n/a	ROOF	3	19	[0, 0, 0]	n/a	FR1	2	R1172E
2880.805	1.615	2889099	WORD	n/a	wordpools/wordpool_EN.txt	CAKE	4	19	[0, 0, 0]	n/a	FR1	2	R1172E
2882.42	0.834	2890713	WORD_OFF	n/a	n/a	CAKE	4	19	[0, 0, 0]	n/a	FR1	2	R1172E
2883.254	1.618	2891547	WORD	n/a	wordpools/wordpool_EN.txt	GEESE	5	19	[0, 0, 0]	n/a	FR1	2	R1172E
2884.872	0.933	2893165	WORD_OFF	n/a	n/a	GEESE	5	19	[0, 0, 0]	n/a	FR1	2	R1172E
2885.805	1.616	2894098	WORD	n/a	wordpools/wordpool_EN.txt	MAT	6	19	[0, 0, 0]	n/a	FR1	2	R1172E
2887.421	0.8	2895714	WORD_OFF	n/a	n/a	MAT	6	19	[0, 0, 0]	n/a	FR1	2	R1172E
2888.221	1.618	2896514	WORD	n/a	wordpools/wordpool_EN.txt	WEB	7	19	[0, 0, 0]	n/a	FR1	2	R1172E
2889.839	0.783	2898132	WORD_OFF	n/a	n/a	WEB	7	19	[0, 0, 0]	n/a	FR1	2	R1172E
2890.622	1.617	2898915	WORD	n/a	wordpools/wordpool_EN.txt	BAG	8	19	[0, 0, 0]	n/a	FR1	2	R1172E
2892.239	0.933	2900532	WORD_OFF	n/a	n/a	BAG	8	19	[0, 0, 0]	n/a	FR1	2	R1172E
2893.172	1.601	2901465	WORD	n/a	wordpools/wordpool_EN.txt	WHALE	9	19	[0, 0, 0]	n/a	FR1	2	R1172E
2894.773	0.983	2903066	WORD_OFF	n/a	n/a	WHALE	9	19	[0, 0, 0]	n/a	FR1	2	R1172E
2895.756	1.617	2904049	WORD	n/a	wordpools/wordpool_EN.txt	JUICE	10	19	[0, 0, 0]	n/a	FR1	2	R1172E
2897.373	0.867	2905666	WORD_OFF	n/a	n/a	JUICE	10	19	[0, 0, 0]	n/a	FR1	2	R1172E
2898.24	1.618	2906533	WORD	n/a	wordpools/wordpool_EN.txt	MOUTH	11	19	[0, 0, 0]	n/a	FR1	2	R1172E
2899.858	1.0	2908151	WORD_OFF	n/a	n/a	MOUTH	11	19	[0, 0, 0]	n/a	FR1	2	R1172E
2900.858	1.616	2909151	WORD	n/a	wordpools/wordpool_EN.txt	BUSH	12	19	[0, 0, 0]	n/a	FR1	2	R1172E
2902.474	0.0	2910767	WORD_OFF	n/a	n/a	BUSH	12	19	[0, 0, 0]	n/a	FR1	2	R1172E
2902.474	0.001	2910767	DISTRACT_START	n/a	n/a	n/a	-999	19	[0, 0, 0]	n/a	FR1	2	R1172E
2902.475	0.016	2910768	START	n/a	n/a	n/a	-999	19	[-999, -999, -999]	n/a	FR1	2	R1172E
2902.491	5.067	2910784	PROB	5.067	n/a	n/a	-999	19	[2, 6, 8]	16	FR1	2	R1172E
2907.558	7.151	2915850	PROB	7.151	n/a	n/a	-999	19	[3, 5, 1]	9	FR1	2	R1172E
2914.709	10.82	2923001	PROB	10.82	n/a	n/a	-999	19	[3, 6, 5]	14	FR1	2	R1172E
2925.529	0.016	2933821	STOP	n/a	n/a	n/a	-999	19	[-999, -999, -999]	n/a	FR1	2	R1172E
2925.545	0.55	2933837	DISTRACT_END	n/a	n/a	n/a	-999	19	[0, 0, 0]	n/a	FR1	2	R1172E
2926.095	0.517	2934387	RETRIEVAL_ORIENT	n/a	n/a	n/a	-999	19	[0, 0, 0]	n/a	FR1	2	R1172E
2926.612	1.354	2934904	REC_START	n/a	n/a	n/a	-999	19	[0, 0, 0]	n/a	FR1	2	R1172E
2927.966	1.323	2936258	REC_WORD	1.323	n/a	GEESE	-999	19	[0, 0, 0]	n/a	FR1	2	R1172E
2929.289	27.333	2937581	REC_WORD	27.333	n/a	ATE	-999	19	[0, 0, 0]	n/a	FR1	2	R1172E
2956.622	170.025	2964912	REC_END	n/a	n/a	n/a	-999	19	[0, 0, 0]	n/a	FR1	2	R1172E
3126.647	0.5	3134930	TRIAL	n/a	n/a	n/a	-999	20	[0, 0, 0]	n/a	FR1	2	R1172E
3127.147	10.428	3135430	COUNTDOWN_START	n/a	n/a	n/a	-999	20	[0, 0, 0]	n/a	FR1	2	R1172E
3137.575	0.007	3145858	COUNTDOWN_END	n/a	n/a	n/a	-999	20	[0, 0, 0]	n/a	FR1	2	R1172E
3137.582	1.617	3145865	ORIENT	n/a	n/a	n/a	-999	20	[0, 0, 0]	n/a	FR1	2	R1172E
3139.199	2.017	3147482	ORIENT_OFF	n/a	n/a	n/a	-999	20	[0, 0, 0]	n/a	FR1	2	R1172E
3141.216	1.618	3149499	WORD	n/a	wordpools/wordpool_EN.txt	EEL	1	20	[0, 0, 0]	n/a	FR1	2	R1172E
3142.834	0.967	3151117	WORD_OFF	n/a	n/a	EEL	1	20	[0, 0, 0]	n/a	FR1	2	R1172E
3143.801	1.616	3152084	WORD	n/a	wordpools/wordpool_EN.txt	ZOO	2	20	[0, 0, 0]	n/a	FR1	2	R1172E
3145.417	0.933	3153700	WORD_OFF	n/a	n/a	ZOO	2	20	[0, 0, 0]	n/a	FR1	2	R1172E
3146.35	1.601	3154633	WORD	n/a	wordpools/wordpool_EN.txt	KEY	3	20	[0, 0, 0]	n/a	FR1	2	R1172E
3147.951	0.901	3156233	WORD_OFF	n/a	n/a	KEY	3	20	[0, 0, 0]	n/a	FR1	2	R1172E
3148.852	1.616	3157134	WORD	n/a	wordpools/wordpool_EN.txt	FOG	4	20	[0, 0, 0]	n/a	FR1	2	R1172E
3150.468	0.783	3158750	WORD_OFF	n/a	n/a	FOG	4	20	[0, 0, 0]	n/a	FR1	2	R1172E
3151.251	1.618	3159533	WORD	n/a	wordpools/wordpool_EN.txt	JAR	5	20	[0, 0, 0]	n/a	FR1	2	R1172E
3152.869	0.799	3161151	WORD_OFF	n/a	n/a	JAR	5	20	[0, 0, 0]	n/a	FR1	2	R1172E
3153.668	1.617	3161950	WORD	n/a	wordpools/wordpool_EN.txt	STRAW	6	20	[0, 0, 0]	n/a	FR1	2	R1172E
3155.285	0.8	3163567	WORD_OFF	n/a	n/a	STRAW	6	20	[0, 0, 0]	n/a	FR1	2	R1172E
3156.085	1.617	3164367	WORD	n/a	wordpools/wordpool_EN.txt	BREAD	7	20	[0, 0, 0]	n/a	FR1	2	R1172E
3157.702	1.017	3165984	WORD_OFF	n/a	n/a	BREAD	7	20	[0, 0, 0]	n/a	FR1	2	R1172E
3158.719	1.617	3167001	WORD	n/a	wordpools/wordpool_EN.txt	POLE	8	20	[0, 0, 0]	n/a	FR1	2	R1172E
3160.336	0.833	3168618	WORD_OFF	n/a	n/a	POLE	8	20	[0, 0, 0]	n/a	FR1	2	R1172E
3161.169	1.618	3169451	WORD	n/a	wordpools/wordpool_EN.txt	BOMB	9	20	[0, 0, 0]	n/a	FR1	2	R1172E
3162.787	0.833	3171069	WORD_OFF	n/a	n/a	BOMB	9	20	[0, 0, 0]	n/a	FR1	2	R1172E
3163.62	1.617	3171902	WORD	n/a	wordpools/wordpool_EN.txt	STEM	10	20	[0, 0, 0]	n/a	FR1	2	R1172E
3165.237	0.883	3173519	WORD_OFF	n/a	n/a	STEM	10	20	[0, 0, 0]	n/a	FR1	2	R1172E
3166.12	1.617	3174402	WORD	n/a	wordpools/wordpool_EN.txt	BEAR	11	20	[0, 0, 0]	n/a	FR1	2	R1172E
3167.737	0.85	3176019	WORD_OFF	n/a	n/a	BEAR	11	20	[0, 0, 0]	n/a	FR1	2	R1172E
3168.587	1.617	3176869	WORD	n/a	wordpools/wordpool_EN.txt	LOCK	12	20	[0, 0, 0]	n/a	FR1	2	R1172E
3170.204	0.0	3178486	WORD_OFF	n/a	n/a	LOCK	12	20	[0, 0, 0]	n/a	FR1	2	R1172E
3170.204	0.001	3178486	DISTRACT_START	n/a	n/a	n/a	-999	20	[0, 0, 0]	n/a	FR1	2	R1172E
3170.205	0.016	3178487	START	n/a	n/a	n/a	-999	20	[-999, -999, -999]	n/a	FR1	2	R1172E
3170.221	5.685	3178503	PROB	5.685	n/a	n/a	-999	20	[8, 2, 5]	15	FR1	2	R1172E
3175.906	3.85	3184187	PROB	3.85	n/a	n/a	-999	20	[4, 1, 1]	6	FR1	2	R1172E
3179.756	4.984	3188037	PROB	4.984	n/a	n/a	-999	20	[6, 1, 4]	11	FR1	2	R1172E
3184.74	14.64	3193021	PROB	14.64	n/a	n/a	-999	20	[6, 9, 8]	23	FR1	2	R1172E
3199.38	0.013	3207660	STOP	n/a	n/a	n/a	-999	20	[-999, -999, -999]	n/a	FR1	2	R1172E
3199.393	0.568	3207673	DISTRACT_END	n/a	n/a	n/a	-999	20	[0, 0, 0]	n/a	FR1	2	R1172E
3199.961	0.516	3208241	RETRIEVAL_ORIENT	n/a	n/a	n/a	-999	20	[0, 0, 0]	n/a	FR1	2	R1172E
3200.477	2.248	3208757	REC_START	n/a	n/a	n/a	-999	20	[0, 0, 0]	n/a	FR1	2	R1172E
3202.725	2.188	3211005	REC_WORD	2.188	n/a	STRAW	-999	20	[0, 0, 0]	n/a	FR1	2	R1172E
3204.913	2.262	3213193	REC_WORD	2.262	n/a	ZOO	-999	20	[0, 0, 0]	n/a	FR1	2	R1172E
3207.175	2.876	3215455	REC_WORD	2.876	n/a	EEL	-999	20	[0, 0, 0]	n/a	FR1	2	R1172E
3210.051	2.555	3218331	REC_WORD	2.555	n/a	STORE	-999	20	[0, 0, 0]	n/a	FR1	2	R1172E
3212.606	17.881	3220886	REC_WORD	17.881	n/a	BENCH	-999	20	[0, 0, 0]	n/a	FR1	2	R1172E
3230.487	27.533	3238766	REC_END	n/a	n/a	n/a	-999	20	[0, 0, 0]	n/a	FR1	2	R1172E
3258.02	0.5	3266298	TRIAL	n/a	n/a	n/a	-999	21	[0, 0, 0]	n/a	FR1	2	R1172E
3258.52	10.428	3266798	COUNTDOWN_START	n/a	n/a	n/a	-999	21	[0, 0, 0]	n/a	FR1	2	R1172E
3268.948	0.008	3277225	COUNTDOWN_END	n/a	n/a	n/a	-999	21	[0, 0, 0]	n/a	FR1	2	R1172E
3268.956	1.616	3277233	ORIENT	n/a	n/a	n/a	-999	21	[0, 0, 0]	n/a	FR1	2	R1172E
3270.572	1.9	3278849	ORIENT_OFF	n/a	n/a	n/a	-999	21	[0, 0, 0]	n/a	FR1	2	R1172E
3272.472	1.617	3280749	WORD	n/a	wordpools/wordpool_EN.txt	CASH	1	21	[0, 0, 0]	n/a	FR1	2	R1172E
3274.089	0.967	3282366	WORD_OFF	n/a	n/a	CASH	1	21	[0, 0, 0]	n/a	FR1	2	R1172E
3275.056	1.617	3283333	WORD	n/a	wordpools/wordpool_EN.txt	JUDGE	2	21	[0, 0, 0]	n/a	FR1	2	R1172E
3276.673	0.783	3284950	WORD_OFF	n/a	n/a	JUDGE	2	21	[0, 0, 0]	n/a	FR1	2	R1172E
3277.456	1.617	3285733	WORD	n/a	wordpools/wordpool_EN.txt	THREAD	3	21	[0, 0, 0]	n/a	FR1	2	R1172E
3279.073	0.802	3287350	WORD_OFF	n/a	n/a	THREAD	3	21	[0, 0, 0]	n/a	FR1	2	R1172E
3279.875	1.616	3288152	WORD	n/a	wordpools/wordpool_EN.txt	FOX	4	21	[0, 0, 0]	n/a	FR1	2	R1172E
3281.491	0.833	3289768	WORD_OFF	n/a	n/a	FOX	4	21	[0, 0, 0]	n/a	FR1	2	R1172E
3282.324	1.618	3290601	WORD	n/a	wordpools/wordpool_EN.txt	TEETH	5	21	[0, 0, 0]	n/a	FR1	2	R1172E
3283.942	0.95	3292219	WORD_OFF	n/a	n/a	TEETH	5	21	[0, 0, 0]	n/a	FR1	2	R1172E
3284.892	1.616	3293169	WORD	n/a	wordpools/wordpool_EN.txt	PEARL	6	21	[0, 0, 0]	n/a	FR1	2	R1172E
3286.508	0.85	3294785	WORD_OFF	n/a	n/a	PEARL	6	21	[0, 0, 0]	n/a	FR1	2	R1172E
3287.358	1.617	3295635	WORD	n/a	wordpools/wordpool_EN.txt	NAIL	7	21	[0, 0, 0]	n/a	FR1	2	R1172E
3288.975	0.935	3297252	WORD_OFF	n/a	n/a	NAIL	7	21	[0, 0, 0]	n/a	FR1	2	R1172E
3289.91	1.616	3298187	WORD	n/a	wordpools/wordpool_EN.txt	FILM	8	21	[0, 0, 0]	n/a	FR1	2	R1172E
3291.526	0.833	3299803	WORD_OFF	n/a	n/a	FILM	8	21	[0, 0, 0]	n/a	FR1	2	R1172E
3292.359	1.617	3300636	WORD	n/a	wordpools/wordpool_EN.txt	TOOTH	9	21	[0, 0, 0]	n/a	FR1	2	R1172E
3293.976	0.783	3302252	WORD_OFF	n/a	n/a	TOOTH	9	21	[0, 0, 0]	n/a	FR1	2	R1172E
3294.759	1.617	3303035	WORD	n/a	wordpools/wordpool_EN.txt	CORD	10	21	[0, 0, 0]	n/a	FR1	2	R1172E
3296.376	1.001	3304652	WORD_OFF	n/a	n/a	CORD	10	21	[0, 0, 0]	n/a	FR1	2	R1172E
3297.377	1.617	3305653	WORD	n/a	wordpools/wordpool_EN.txt	SHEET	11	21	[0, 0, 0]	n/a	FR1	2	R1172E
3298.994	0.8	3307270	WORD_OFF	n/a	n/a	SHEET	11	21	[0, 0, 0]	n/a	FR1	2	R1172E
3299.794	1.617	3308070	WORD	n/a	wordpools/wordpool_EN.txt	KITE	12	21	[0, 0, 0]	n/a	FR1	2	R1172E
3301.411	0.0	3309687	WORD_OFF	n/a	n/a	KITE	12	21	[0, 0, 0]	n/a	FR1	2	R1172E
3301.411	0.0	3309687	DISTRACT_START	n/a	n/a	n/a	-999	21	[0, 0, 0]	n/a	FR1	2	R1172E
3301.411	0.016	3309687	START	n/a	n/a	n/a	-999	21	[-999, -999, -999]	n/a	FR1	2	R1172E
3301.427	5.251	3309703	PROB	5.251	n/a	n/a	-999	21	[1, 9, 4]	14	FR1	2	R1172E
3306.678	6.018	3314954	PROB	6.018	n/a	n/a	-999	21	[1, 8, 2]	11	FR1	2	R1172E
3312.696	11.666	3320972	PROB	11.666	n/a	n/a	-999	21	[6, 4, 8]	18	FR1	2	R1172E
3324.362	0.019	3332637	STOP	n/a	n/a	n/a	-999	21	[-999, -999, -999]	n/a	FR1	2	R1172E
3324.381	0.634	3332656	DISTRACT_END	n/a	n/a	n/a	-999	21	[0, 0, 0]	n/a	FR1	2	R1172E
3325.015	0.517	3333290	RETRIEVAL_ORIENT	n/a	n/a	n/a	-999	21	[0, 0, 0]	n/a	FR1	2	R1172E
3325.532	9.021	3333807	REC_START	n/a	n/a	n/a	-999	21	[0, 0, 0]	n/a	FR1	2	R1172E
3334.553	1.625	3342828	REC_WORD	1.625	n/a	JAIL	-999	21	[0, 0, 0]	n/a	FR1	2	R1172E
3336.178	2.735	3344453	REC_WORD	2.735	n/a	STRAW	-999	21	[0, 0, 0]	n/a	FR1	2	R1172E
3338.913	3.714	3347188	REC_WORD	3.714	n/a	PEN	-999	21	[0, 0, 0]	n/a	FR1	2	R1172E
3342.627	2.374	3350901	REC_WORD	2.374	n/a	CASH	-999	21	[0, 0, 0]	n/a	FR1	2	R1172E
3345.001	2.836	3353275	REC_WORD	2.836	n/a	JUDGE	-999	21	[0, 0, 0]	n/a	FR1	2	R1172E
3347.837	7.705	3356111	REC_WORD	7.705	n/a	BOY	-999	21	[0, 0, 0]	n/a	FR1	2	R1172E
3355.542	108.08	3363816	REC_END	n/a	n/a	n/a	-999	21	[0, 0, 0]	n/a	FR1	2	R1172E
3463.622	0.5	3471891	TRIAL	n/a	n/a	n/a	-999	22	[0, 0, 0]	n/a	FR1	2	R1172E
3464.122	10.428	3472391	COUNTDOWN_START	n/a	n/a	n/a	-999	22	[0, 0, 0]	n/a	FR1	2	R1172E
3474.55	0.008	3482819	COUNTDOWN_END	n/a	n/a	n/a	-999	22	[0, 0, 0]	n/a	FR1	2	R1172E
3474.558	1.617	3482827	ORIENT	n/a	n/a	n/a	-999	22	[0, 0, 0]	n/a	FR1	2	R1172E
3476.175	2.05	3484444	ORIENT_OFF	n/a	n/a	n/a	-999	22	[0, 0, 0]	n/a	FR1	2	R1172E
3478.225	1.618	3486494	WORD	n/a	wordpools/wordpool_EN.txt	STEAK	1	22	[0, 0, 0]	n/a	FR1	2	R1172E
3479.843	0.783	3488112	WORD_OFF	n/a	n/a	STEAK	1	22	[0, 0, 0]	n/a	FR1	2	R1172E
3480.626	1.616	3488895	WORD	n/a	wordpools/wordpool_EN.txt	BATH	2	22	[0, 0, 0]	n/a	FR1	2	R1172E
3482.242	0.984	3490511	WORD_OFF	n/a	n/a	BATH	2	22	[0, 0, 0]	n/a	FR1	2	R1172E
3483.226	1.618	3491495	WORD	n/a	wordpools/wordpool_EN.txt	FLUTE	3	22	[0, 0, 0]	n/a	FR1	2	R1172E
3484.844	0.95	3493113	WORD_OFF	n/a	n/a	FLUTE	3	22	[0, 0, 0]	n/a	FR1	2	R1172E
3485.794	1.616	3494063	WORD	n/a	wordpools/wordpool_EN.txt	ROOM	4	22	[0, 0, 0]	n/a	FR1	2	R1172E
3487.41	0.984	3495678	WORD_OFF	n/a	n/a	ROOM	4	22	[0, 0, 0]	n/a	FR1	2	R1172E
3488.394	1.616	3496662	WORD	n/a	wordpools/wordpool_EN.txt	SOAP	5	22	[0, 0, 0]	n/a	FR1	2	R1172E
3490.01	0.984	3498278	WORD_OFF	n/a	n/a	SOAP	5	22	[0, 0, 0]	n/a	FR1	2	R1172E
3490.994	1.617	3499262	WORD	n/a	wordpools/wordpool_EN.txt	SPRING	6	22	[0, 0, 0]	n/a	FR1	2	R1172E
3492.611	0.967	3500879	WORD_OFF	n/a	n/a	SPRING	6	22	[0, 0, 0]	n/a	FR1	2	R1172E
3493.578	1.617	3501846	WORD	n/a	wordpools/wordpool_EN.txt	MOLE	7	22	[0, 0, 0]	n/a	FR1	2	R1172E
3495.195	0.883	3503463	WORD_OFF	n/a	n/a	MOLE	7	22	[0, 0, 0]	n/a	FR1	2	R1172E
3496.078	1.617	3504346	WORD	n/a	wordpools/wordpool_EN.txt	WORM	8	22	[0, 0, 0]	n/a	FR1	2	R1172E
3497.695	0.8	3505963	WORD_OFF	n/a	n/a	WORM	8	22	[0, 0, 0]	n/a	FR1	2	R1172E
3498.495	1.617	3506763	WORD	n/a	wordpools/wordpool_EN.txt	TRUCK	9	22	[0, 0, 0]	n/a	FR1	2	R1172E
3500.112	0.967	3508380	WORD_OFF	n/a	n/a	TRUCK	9	22	[0, 0, 0]	n/a	FR1	2	R1172E
3501.079	1.617	3509347	WORD	n/a	wordpools/wordpool_EN.txt	FOOT	10	22	[0, 0, 0]	n/a	FR1	2	R1172E
3502.696	0.884	3510964	WORD_OFF	n/a	n/a	FOOT	10	22	[0, 0, 0]	n/a	FR1	2	R1172E
3503.58	1.616	3511848	WORD	n/a	wordpools/wordpool_EN.txt	SHOE	11	22	[0, 0, 0]	n/a	FR1	2	R1172E
3505.196	0.834	3513464	WORD_OFF	n/a	n/a	SHOE	11	22	[0, 0, 0]	n/a	FR1	2	R1172E
3506.03	1.617	3514298	WORD	n/a	wordpools/wordpool_EN.txt	STAIR	12	22	[0, 0, 0]	n/a	FR1	2	R1172E
3507.647	0.0	3515915	DISTRACT_START	n/a	n/a	n/a	-999	22	[0, 0, 0]	n/a	FR1	2	R1172E
3507.647	0.0	3515915	WORD_OFF	n/a	n/a	STAIR	12	22	[0, 0, 0]	n/a	FR1	2	R1172E
3507.647	0.017	3515915	START	n/a	n/a	n/a	-999	22	[-999, -999, -999]	n/a	FR1	2	R1172E
3507.664	5.584	3515932	PROB	5.584	n/a	n/a	-999	22	[2, 5, 1]	8	FR1	2	R1172E
3513.248	8.201	3521515	PROB	8.201	n/a	n/a	-999	22	[2, 6, 1]	9	FR1	2	R1172E
3521.449	7.791	3529716	PROB	7.791	n/a	n/a	-999	22	[3, 8, 5]	16	FR1	2	R1172E
3529.24	0.011	3537507	STOP	n/a	n/a	n/a	-999	22	[-999, -999, -999]	n/a	FR1	2	R1172E
3529.251	0.684	3537518	DISTRACT_END	n/a	n/a	n/a	-999	22	[0, 0, 0]	n/a	FR1	2	R1172E
3529.935	0.517	3538202	RETRIEVAL_ORIENT	n/a	n/a	n/a	-999	22	[0, 0, 0]	n/a	FR1	2	R1172E
3530.452	2.115	3538719	REC_START	n/a	n/a	n/a	-999	22	[0, 0, 0]	n/a	FR1	2	R1172E
3532.567	7.588	3540834	REC_WORD	7.588	n/a	STAIR	-999	22	[0, 0, 0]	n/a	FR1	2	R1172E
3540.155	1.0	3548421	REC_WORD	1.0	n/a	MOLE	-999	22	[0, 0, 0]	n/a	FR1	2	R1172E
3541.155	2.039	3549421	REC_WORD	2.039	n/a	SPRING	-999	22	[0, 0, 0]	n/a	FR1	2	R1172E
3543.194	17.268	3551460	REC_WORD	17.268	n/a	AXE	-999	22	[0, 0, 0]	n/a	FR1	2	R1172E
3560.462	37.385	3568727	REC_END	n/a	n/a	n/a	-999	22	[0, 0, 0]	n/a	FR1	2	R1172E
3597.847	0.5	3606111	TRIAL	n/a	n/a	n/a	-999	23	[0, 0, 0]	n/a	FR1	2	R1172E
3598.347	10.428	3606611	COUNTDOWN_START	n/a	n/a	n/a	-999	23	[0, 0, 0]	n/a	FR1	2	R1172E
3608.775	0.007	3617038	COUNTDOWN_END	n/a	n/a	n/a	-999	23	[0, 0, 0]	n/a	FR1	2	R1172E
3608.782	1.616	3617045	ORIENT	n/a	n/a	n/a	-999	23	[0, 0, 0]	n/a	FR1	2	R1172E
3610.398	2.167	3618661	ORIENT_OFF	n/a	n/a	n/a	-999	23	[0, 0, 0]	n/a	FR1	2	R1172E
3612.565	1.617	3620828	WORD	n/a	wordpools/wordpool_EN.txt	SPARK	1	23	[0, 0, 0]	n/a	FR1	2	R1172E
3614.182	0.884	3622445	WORD_OFF	n/a	n/a	SPARK	1	23	[0, 0, 0]	n/a	FR1	2	R1172E
3615.066	1.617	3623329	WORD	n/a	wordpools/wordpool_EN.txt	DITCH	2	23	[0, 0, 0]	n/a	FR1	2	R1172E
3616.683	0.85	3624946	WORD_OFF	n/a	n/a	DITCH	2	23	[0, 0, 0]	n/a	FR1	2	R1172E
3617.533	1.617	3625796	WORD	n/a	wordpools/wordpool_EN.txt	PEA	3	23	[0, 0, 0]	n/a	FR1	2	R1172E
3619.15	1.0	3627413	WORD_OFF	n/a	n/a	PEA	3	23	[0, 0, 0]	n/a	FR1	2	R1172E
3620.15	1.618	3628413	WORD	n/a	wordpools/wordpool_EN.txt	EGG	4	23	[0, 0, 0]	n/a	FR1	2	R1172E
3621.768	0.966	3630031	WORD_OFF	n/a	n/a	EGG	4	23	[0, 0, 0]	n/a	FR1	2	R1172E
3622.734	1.617	3630997	WORD	n/a	wordpools/wordpool_EN.txt	LEG	5	23	[0, 0, 0]	n/a	FR1	2	R1172E
3624.351	0.917	3632614	WORD_OFF	n/a	n/a	LEG	5	23	[0, 0, 0]	n/a	FR1	2	R1172E
3625.268	1.617	3633531	WORD	n/a	wordpools/wordpool_EN.txt	CUP	6	23	[0, 0, 0]	n/a	FR1	2	R1172E
3626.885	0.934	3635148	WORD_OFF	n/a	n/a	CUP	6	23	[0, 0, 0]	n/a	FR1	2	R1172E
3627.819	1.616	3636082	WORD	n/a	wordpools/wordpool_EN.txt	RAKE	7	23	[0, 0, 0]	n/a	FR1	2	R1172E
3629.435	0.85	3637698	WORD_OFF	n/a	n/a	RAKE	7	23	[0, 0, 0]	n/a	FR1	2	R1172E
3630.285	1.618	3638548	WORD	n/a	wordpools/wordpool_EN.txt	RICE	8	23	[0, 0, 0]	n/a	FR1	2	R1172E
3631.903	0.816	3640165	WORD_OFF	n/a	n/a	RICE	8	23	[0, 0, 0]	n/a	FR1	2	R1172E
3632.719	1.617	3640981	WORD	n/a	wordpools/wordpool_EN.txt	SKI	9	23	[0, 0, 0]	n/a	FR1	2	R1172E
3634.336	0.85	3642598	WORD_OFF	n/a	n/a	SKI	9	23	[0, 0, 0]	n/a	FR1	2	R1172E
3635.186	1.618	3643448	WORD	n/a	wordpools/wordpool_EN.txt	CROWN	10	23	[0, 0, 0]	n/a	FR1	2	R1172E
3636.804	0.849	3645066	WORD_OFF	n/a	n/a	CROWN	10	23	[0, 0, 0]	n/a	FR1	2	R1172E
3637.653	1.617	3645915	WORD	n/a	wordpools/wordpool_EN.txt	BAND	11	23	[0, 0, 0]	n/a	FR1	2	R1172E
3639.27	0.883	3647532	WORD_OFF	n/a	n/a	BAND	11	23	[0, 0, 0]	n/a	FR1	2	R1172E
3640.153	1.618	3648415	WORD	n/a	wordpools/wordpool_EN.txt	MOON	12	23	[0, 0, 0]	n/a	FR1	2	R1172E
3641.771	0.0	3650033	WORD_OFF	n/a	n/a	MOON	12	23	[0, 0, 0]	n/a	FR1	2	R1172E
3641.771	0.001	3650033	DISTRACT_START	n/a	n/a	n/a	-999	23	[0, 0, 0]	n/a	FR1	2	R1172E
3641.772	0.016	3650034	START	n/a	n/a	n/a	-999	23	[-999, -999, -999]	n/a	FR1	2	R1172E
3641.788	7.867	3650050	PROB	7.867	n/a	n/a	-999	23	[2, 6, 9]	17	FR1	2	R1172E
3649.655	5.684	3657917	PROB	5.684	n/a	n/a	-999	23	[8, 2, 5]	15	FR1	2	R1172E
3655.339	5.235	3663600	PROB	5.235	n/a	n/a	-999	23	[1, 4, 3]	8	FR1	2	R1172E
3660.574	9.119	3668835	PROB	9.119	n/a	n/a	-999	23	[4, 8, 7]	19	FR1	2	R1172E
3669.693	0.016	3677954	STOP	n/a	n/a	n/a	-999	23	[-999, -999, -999]	n/a	FR1	2	R1172E
3669.709	0.533	3677970	DISTRACT_END	n/a	n/a	n/a	-999	23	[0, 0, 0]	n/a	FR1	2	R1172E
3670.242	0.518	3678503	RETRIEVAL_ORIENT	n/a	n/a	n/a	-999	23	[0, 0, 0]	n/a	FR1	2	R1172E
3670.76	4.957	3679021	REC_START	n/a	n/a	n/a	-999	23	[0, 0, 0]	n/a	FR1	2	R1172E
3675.717	1.039	3683978	REC_WORD	1.039	n/a	SPARK	-999	23	[0, 0, 0]	n/a	FR1	2	R1172E
3676.756	1.508	3685017	REC_WORD	1.508	n/a	SHORT	-999	23	[0, 0, 0]	n/a	FR1	2	R1172E
3678.264	16.323	3686525	REC_WORD	16.323	n/a	STAIR	-999	23	[0, 0, 0]	n/a	FR1	2	R1172E
3694.587	6.182	3702847	REC_WORD	6.182	n/a	WIND	-999	23	[0, 0, 0]	n/a	FR1	2	R1172E
3700.769	45.22	3709029	REC_END	n/a	n/a	n/a	-999	23	[0, 0, 0]	n/a	FR1	2	R1172E
3745.989	0.5	3754247	TRIAL	n/a	n/a	n/a	-999	24	[0, 0, 0]	n/a	FR1	2	R1172E
3746.489	10.428	3754747	COUNTDOWN_START	n/a	n/a	n/a	-999	24	[0, 0, 0]	n/a	FR1	2	R1172E
3756.917	0.008	3765174	COUNTDOWN_END	n/a	n/a	n/a	-999	24	[0, 0, 0]	n/a	FR1	2	R1172E
3756.925	1.616	3765182	ORIENT	n/a	n/a	n/a	-999	24	[0, 0, 0]	n/a	FR1	2	R1172E
3758.541	1.967	3766798	ORIENT_OFF	n/a	n/a	n/a	-999	24	[0, 0, 0]	n/a	FR1	2	R1172E
3760.508	1.617	3768765	WORD	n/a	wordpools/wordpool_EN.txt	VASE	1	24	[0, 0, 0]	n/a	FR1	2	R1172E
3762.125	0.818	3770382	WORD_OFF	n/a	n/a	VASE	1	24	[0, 0, 0]	n/a	FR1	2	R1172E
3762.943	1.616	3771200	WORD	n/a	wordpools/wordpool_EN.txt	PEACH	2	24	[0, 0, 0]	n/a	FR1	2	R1172E
3764.559	0.833	3772816	WORD_OFF	n/a	n/a	PEACH	2	24	[0, 0, 0]	n/a	FR1	2	R1172E
3765.392	1.617	3773649	WORD	n/a	wordpools/wordpool_EN.txt	HAND	3	24	[0, 0, 0]	n/a	FR1	2	R1172E
3767.009	0.851	3775266	WORD_OFF	n/a	n/a	HAND	3	24	[0, 0, 0]	n/a	FR1	2	R1172E
3767.86	1.616	3776117	WORD	n/a	wordpools/wordpool_EN.txt	CART	4	24	[0, 0, 0]	n/a	FR1	2	R1172E
3769.476	0.95	3777733	WORD_OFF	n/a	n/a	CART	4	24	[0, 0, 0]	n/a	FR1	2	R1172E
3770.426	1.617	3778683	WORD	n/a	wordpools/wordpool_EN.txt	CRANE	5	24	[0, 0, 0]	n/a	FR1	2	R1172E
3772.043	0.885	3780300	WORD_OFF	n/a	n/a	CRANE	5	24	[0, 0, 0]	n/a	FR1	2	R1172E
3772.928	1.616	3781185	WORD	n/a	wordpools/wordpool_EN.txt	PIE	6	24	[0, 0, 0]	n/a	FR1	2	R1172E
3774.544	0.917	3782801	WORD_OFF	n/a	n/a	PIE	6	24	[0, 0, 0]	n/a	FR1	2	R1172E
3775.461	1.617	3783718	WORD	n/a	wordpools/wordpool_EN.txt	TIE	7	24	[0, 0, 0]	n/a	FR1	2	R1172E
3777.078	0.801	3785334	WORD_OFF	n/a	n/a	TIE	7	24	[0, 0, 0]	n/a	FR1	2	R1172E
3777.879	1.616	3786135	WORD	n/a	wordpools/wordpool_EN.txt	GOAT	8	24	[0, 0, 0]	n/a	FR1	2	R1172E
3779.495	0.916	3787751	WORD_OFF	n/a	n/a	GOAT	8	24	[0, 0, 0]	n/a	FR1	2	R1172E
3780.411	1.617	3788667	WORD	n/a	wordpools/wordpool_EN.txt	MUD	9	24	[0, 0, 0]	n/a	FR1	2	R1172E
3782.028	1.001	3790284	WORD_OFF	n/a	n/a	MUD	9	24	[0, 0, 0]	n/a	FR1	2	R1172E
3783.029	1.617	3791285	WORD	n/a	wordpools/wordpool_EN.txt	BOOT	10	24	[0, 0, 0]	n/a	FR1	2	R1172E
3784.646	0.966	3792902	WORD_OFF	n/a	n/a	BOOT	10	24	[0, 0, 0]	n/a	FR1	2	R1172E
3785.612	1.617	3793868	WORD	n/a	wordpools/wordpool_EN.txt	ROCK	11	24	[0, 0, 0]	n/a	FR1	2	R1172E
3787.229	0.817	3795485	WORD_OFF	n/a	n/a	ROCK	11	24	[0, 0, 0]	n/a	FR1	2	R1172E
3788.046	1.617	3796302	WORD	n/a	wordpools/wordpool_EN.txt	BEAK	12	24	[0, 0, 0]	n/a	FR1	2	R1172E
3789.663	0.0	3797919	DISTRACT_START	n/a	n/a	n/a	-999	24	[0, 0, 0]	n/a	FR1	2	R1172E
3789.663	0.001	3797919	WORD_OFF	n/a	n/a	BEAK	12	24	[0, 0, 0]	n/a	FR1	2	R1172E
3789.664	0.016	3797920	START	n/a	n/a	n/a	-999	24	[-999, -999, -999]	n/a	FR1	2	R1172E
3789.68	7.835	3797936	PROB	7.835	n/a	n/a	-999	24	[8, 7, 8]	23	FR1	2	R1172E
3797.515	6.951	3805771	PROB	6.951	n/a	n/a	-999	24	[8, 5, 2]	18	FR1	2	R1172E
3804.466	6.901	3812721	PROB	6.901	n/a	n/a	-999	24	[4, 4, 4]	12	FR1	2	R1172E
3811.367	0.017	3819622	STOP	n/a	n/a	n/a	-999	24	[-999, -999, -999]	n/a	FR1	2	R1172E
3811.384	0.55	3819639	DISTRACT_END	n/a	n/a	n/a	-999	24	[0, 0, 0]	n/a	FR1	2	R1172E
3811.934	0.517	3820189	RETRIEVAL_ORIENT	n/a	n/a	n/a	-999	24	[0, 0, 0]	n/a	FR1	2	R1172E
3812.451	1.472	3820706	REC_START	n/a	n/a	n/a	-999	24	[0, 0, 0]	n/a	FR1	2	R1172E
3813.923	3.701	3822178	REC_WORD	3.701	n/a	BEAK	-999	24	[0, 0, 0]	n/a	FR1	2	R1172E
3817.624	1.591	3825879	REC_WORD	1.591	n/a	PIE	-999	24	[0, 0, 0]	n/a	FR1	2	R1172E
3819.215	2.94	3827470	REC_WORD	2.94	n/a	TIE	-999	24	[0, 0, 0]	n/a	FR1	2	R1172E
3822.155	20.306	3830410	REC_WORD	20.306	n/a	BOOT	-999	24	[0, 0, 0]	n/a	FR1	2	R1172E
3842.461	30.55	3850715	REC_END	n/a	n/a	n/a	-999	24	[0, 0, 0]	n/a	FR1	2	R1172E
3873.011	0.5	3881264	TRIAL	n/a	n/a	n/a	-999	25	[0, 0, 0]	n/a	FR1	2	R1172E
3873.511	10.428	3881763	COUNTDOWN_START	n/a	n/a	n/a	-999	25	[0, 0, 0]	n/a	FR1	2	R1172E
3883.939	0.008	3892191	COUNTDOWN_END	n/a	n/a	n/a	-999	25	[0, 0, 0]	n/a	FR1	2	R1172E
3883.947	1.616	3892199	ORIENT	n/a	n/a	n/a	-999	25	[0, 0, 0]	n/a	FR1	2	R1172E
3885.563	2.051	3893815	ORIENT_OFF	n/a	n/a	n/a	-999	25	[0, 0, 0]	n/a	FR1	2	R1172E
3887.614	1.617	3895866	WORD	n/a	wordpools/wordpool_EN.txt	CAR	1	25	[0, 0, 0]	n/a	FR1	2	R1172E
3889.231	0.8	3897483	WORD_OFF	n/a	n/a	CAR	1	25	[0, 0, 0]	n/a	FR1	2	R1172E
3890.031	1.617	3898283	WORD	n/a	wordpools/wordpool_EN.txt	LAMP	2	25	[0, 0, 0]	n/a	FR1	2	R1172E
3891.648	0.85	3899900	WORD_OFF	n/a	n/a	LAMP	2	25	[0, 0, 0]	n/a	FR1	2	R1172E
3892.498	1.617	3900750	WORD	n/a	wordpools/wordpool_EN.txt	BLOOM	3	25	[0, 0, 0]	n/a	FR1	2	R1172E
3894.115	0.9	3902367	WORD_OFF	n/a	n/a	BLOOM	3	25	[0, 0, 0]	n/a	FR1	2	R1172E
3895.015	1.617	3903267	WORD	n/a	wordpools/wordpool_EN.txt	TRAIN	4	25	[0, 0, 0]	n/a	FR1	2	R1172E
3896.632	0.85	3904884	WORD_OFF	n/a	n/a	TRAIN	4	25	[0, 0, 0]	n/a	FR1	2	R1172E
3897.482	1.617	3905733	WORD	n/a	wordpools/wordpool_EN.txt	DOCK	5	25	[0, 0, 0]	n/a	FR1	2	R1172E
3899.099	0.883	3907350	WORD_OFF	n/a	n/a	DOCK	5	25	[0, 0, 0]	n/a	FR1	2	R1172E
3899.982	1.617	3908233	WORD	n/a	wordpools/wordpool_EN.txt	WHEEL	6	25	[0, 0, 0]	n/a	FR1	2	R1172E
3901.599	0.784	3909850	WORD_OFF	n/a	n/a	WHEEL	6	25	[0, 0, 0]	n/a	FR1	2	R1172E
3902.383	1.617	3910634	WORD	n/a	wordpools/wordpool_EN.txt	BRIDGE	7	25	[0, 0, 0]	n/a	FR1	2	R1172E
3904.0	0.801	3912251	WORD_OFF	n/a	n/a	BRIDGE	7	25	[0, 0, 0]	n/a	FR1	2	R1172E
3904.801	1.616	3913052	WORD	n/a	wordpools/wordpool_EN.txt	SWORD	8	25	[0, 0, 0]	n/a	FR1	2	R1172E
3906.417	0.833	3914668	WORD_OFF	n/a	n/a	SWORD	8	25	[0, 0, 0]	n/a	FR1	2	R1172E
3907.25	1.618	3915501	WORD	n/a	wordpools/wordpool_EN.txt	SCHOOL	9	25	[0, 0, 0]	n/a	FR1	2	R1172E
3908.868	0.984	3917119	WORD_OFF	n/a	n/a	SCHOOL	9	25	[0, 0, 0]	n/a	FR1	2	R1172E
3909.852	1.616	3918103	WORD	n/a	wordpools/wordpool_EN.txt	VEST	10	25	[0, 0, 0]	n/a	FR1	2	R1172E
3911.468	1.017	3919719	WORD_OFF	n/a	n/a	VEST	10	25	[0, 0, 0]	n/a	FR1	2	R1172E
3912.485	1.617	3920736	WORD	n/a	wordpools/wordpool_EN.txt	SHEEP	11	25	[0, 0, 0]	n/a	FR1	2	R1172E
3914.102	0.8	3922353	WORD_OFF	n/a	n/a	SHEEP	11	25	[0, 0, 0]	n/a	FR1	2	R1172E
3914.902	1.617	3923153	WORD	n/a	wordpools/wordpool_EN.txt	FROG	12	25	[0, 0, 0]	n/a	FR1	2	R1172E
3916.519	0.0	3924770	WORD_OFF	n/a	n/a	FROG	12	25	[0, 0, 0]	n/a	FR1	2	R1172E
3916.519	0.0	3924770	DISTRACT_START	n/a	n/a	n/a	-999	25	[0, 0, 0]	n/a	FR1	2	R1172E
3916.519	0.016	3924770	START	n/a	n/a	n/a	-999	25	[-999, -999, -999]	n/a	FR1	2	R1172E
3916.535	7.902	3924786	PROB	7.902	n/a	n/a	-999	25	[5, 7, 1]	11	FR1	2	R1172E
3924.437	7.734	3932687	PROB	7.734	n/a	n/a	-999	25	[9, 5, 9]	23	FR1	2	R1172E
3932.171	21.24	3940421	PROB	21.24	n/a	n/a	-999	25	[9, 9, 9]	27	FR1	2	R1172E
3953.411	0.014	3961660	STOP	n/a	n/a	n/a	-999	25	[-999, -999, -999]	n/a	FR1	2	R1172E
3953.425	0.7	3961674	DISTRACT_END	n/a	n/a	n/a	-999	25	[0, 0, 0]	n/a	FR1	2	R1172E
3954.125	0.518	3962374	RETRIEVAL_ORIENT	n/a	n/a	n/a	-999	25	[0, 0, 0]	n/a	FR1	2	R1172E
3954.643	4.931	3962892	REC_START	n/a	n/a	n/a	-999	25	[0, 0, 0]	n/a	FR1	2	R1172E
3959.574	2.223	3967823	REC_WORD	2.223	n/a	SWORD	-999	25	[0, 0, 0]	n/a	FR1	2	R1172E
3961.797	9.193	3970046	REC_WORD	9.193	n/a	SCHOOL	-999	25	[0, 0, 0]	n/a	FR1	2	R1172E
3970.99	13.663	3979238	REC_WORD	13.663	n/a	BRAKE	-999	25	[0, 0, 0]	n/a	FR1	2	R1172E
3984.653	27.949	3992901	REC_END	n/a	n/a	n/a	-999	25	[0, 0, 0]	n/a	FR1	2	R1172E
4012.602	0.0	4020849	SESS_END	n/a	n/a	n/a	-999	25	[0, 0, 0]	n/a	FR1	2	R1172E
