onset	duration	sample	trial_type	response_time	stim_file	item_name	serialpos	list	test	answer	experiment	session	subject
0.0	63.892	5444	SESS_START	n/a	n/a	n/a	-999	-999	[0, 0, 0]	n/a	FR1	2	R1124J
63.892	10.428	69335	COUNTDOWN_START	n/a	n/a	n/a	-999	-999	[0, 0, 0]	n/a	FR1	2	R1124J
74.32	0.007	79763	COUNTDOWN_END	n/a	n/a	n/a	-999	-999	[0, 0, 0]	n/a	FR1	2	R1124J
74.327	3.75	79770	PRACTICE_ORIENT	n/a	n/a	n/a	-999	-999	[0, 0, 0]	n/a	FR1	2	R1124J
78.077	2.435	83520	PRACTICE_WORD	n/a	n/a	CAMEL	1	-1	[0, 0, 0]	n/a	FR1	2	R1124J
80.512	2.45	85954	PRACTICE_WORD	n/a	n/a	COTTON	2	-1	[0, 0, 0]	n/a	FR1	2	R1124J
82.962	2.383	88404	PRACTICE_WORD	n/a	n/a	ATTIC	3	-1	[0, 0, 0]	n/a	FR1	2	R1124J
85.345	2.55	90787	PRACTICE_WORD	n/a	n/a	WAGON	4	-1	[0, 0, 0]	n/a	FR1	2	R1124J
87.895	2.45	93337	PRACTICE_WORD	n/a	n/a	CHEST	5	-1	[0, 0, 0]	n/a	FR1	2	R1124J
90.345	2.568	95787	PRACTICE_WORD	n/a	n/a	IRON	6	-1	[0, 0, 0]	n/a	FR1	2	R1124J
92.913	2.483	98355	PRACTICE_WORD	n/a	n/a	BEAM	7	-1	[0, 0, 0]	n/a	FR1	2	R1124J
95.396	2.5	100838	PRACTICE_WORD	n/a	n/a	TONGUE	8	-1	[0, 0, 0]	n/a	FR1	2	R1124J
97.896	2.451	103338	PRACTICE_WORD	n/a	n/a	RING	9	-1	[0, 0, 0]	n/a	FR1	2	R1124J
100.347	2.517	105789	PRACTICE_WORD	n/a	n/a	FLOOD	10	-1	[0, 0, 0]	n/a	FR1	2	R1124J
102.864	2.601	108306	PRACTICE_WORD	n/a	n/a	RHINO	11	-1	[0, 0, 0]	n/a	FR1	2	R1124J
105.465	1.616	110907	PRACTICE_WORD	n/a	n/a	WATCH	12	-1	[0, 0, 0]	n/a	FR1	2	R1124J
107.081	0.0	112523	PRACTICE_DISTRACT_START	n/a	n/a	n/a	-999	-1	[0, 0, 0]	n/a	FR1	2	R1124J
107.081	0.017	112523	START	n/a	n/a	n/a	-999	-1	[-999, -999, -999]	n/a	FR1	2	R1124J
107.098	8.717	112540	PROB	8.717	n/a	n/a	-999	-1	[5, 5, 1]	11	FR1	2	R1124J
115.815	5.669	121257	PROB	5.669	n/a	n/a	-999	-1	[6, 5, 3]	14	FR1	2	R1124J
121.484	7.072	126926	PROB	7.072	n/a	n/a	-999	-1	[4, 5, 9]	18	FR1	2	R1124J
128.556	0.678	133998	STOP	n/a	n/a	n/a	-999	-1	[-999, -999, -999]	n/a	FR1	2	R1124J
129.234	30.517	134676	PRACTICE_REC_START	n/a	n/a	n/a	-999	-1	[0, 0, 0]	n/a	FR1	2	R1124J
159.751	10.389	165192	PRACTICE_REC_END	n/a	n/a	n/a	-999	-1	[0, 0, 0]	n/a	FR1	2	R1124J
170.14	0.0	175581	COUNTDOWN_START	n/a	n/a	n/a	-999	1	[0, 0, 0]	n/a	FR1	2	R1124J
170.14	10.428	175581	TRIAL	n/a	n/a	n/a	-999	1	[0, 0, 0]	n/a	FR1	2	R1124J
180.568	0.007	186009	COUNTDOWN_END	n/a	n/a	n/a	-999	1	[0, 0, 0]	n/a	FR1	2	R1124J
180.575	3.55	186016	ORIENT	n/a	n/a	n/a	-999	1	[0, 0, 0]	n/a	FR1	2	R1124J
184.125	2.451	189566	WORD	n/a	wordpools/wordpool_EN.txt	WEB	1	1	[0, 0, 0]	n/a	FR1	2	R1124J
186.576	2.583	192017	WORD	n/a	wordpools/wordpool_EN.txt	TREE	2	1	[0, 0, 0]	n/a	FR1	2	R1124J
189.159	2.401	194600	WORD	n/a	wordpools/wordpool_EN.txt	TRASH	3	1	[0, 0, 0]	n/a	FR1	2	R1124J
191.56	2.6	197001	WORD	n/a	wordpools/wordpool_EN.txt	LAKE	4	1	[0, 0, 0]	n/a	FR1	2	R1124J
194.16	2.384	199601	WORD	n/a	wordpools/wordpool_EN.txt	CHALK	5	1	[0, 0, 0]	n/a	FR1	2	R1124J
196.544	2.516	201985	WORD	n/a	wordpools/wordpool_EN.txt	BRANCH	6	1	[0, 0, 0]	n/a	FR1	2	R1124J
199.06	2.401	204501	WORD	n/a	wordpools/wordpool_EN.txt	ANT	7	1	[0, 0, 0]	n/a	FR1	2	R1124J
201.461	2.467	206902	WORD	n/a	wordpools/wordpool_EN.txt	WOOD	8	1	[0, 0, 0]	n/a	FR1	2	R1124J
203.928	2.483	209369	WORD	n/a	wordpools/wordpool_EN.txt	MOOSE	9	1	[0, 0, 0]	n/a	FR1	2	R1124J
206.411	2.451	211852	WORD	n/a	wordpools/wordpool_EN.txt	NEST	10	1	[0, 0, 0]	n/a	FR1	2	R1124J
208.862	2.567	214303	WORD	n/a	wordpools/wordpool_EN.txt	TRUCK	11	1	[0, 0, 0]	n/a	FR1	2	R1124J
211.429	1.617	216870	WORD	n/a	wordpools/wordpool_EN.txt	HOUSE	12	1	[0, 0, 0]	n/a	FR1	2	R1124J
213.046	0.0	218487	DISTRACT_START	n/a	n/a	n/a	-999	1	[0, 0, 0]	n/a	FR1	2	R1124J
213.046	0.016	218487	START	n/a	n/a	n/a	-999	1	[-999, -999, -999]	n/a	FR1	2	R1124J
213.062	7.935	218503	PROB	7.935	n/a	n/a	-999	1	[6, 4, 5]	15	FR1	2	R1124J
220.997	8.417	226438	PROB	8.417	n/a	n/a	-999	1	[6, 8, 7]	21	FR1	2	R1124J
229.414	7.074	234855	PROB	7.074	n/a	n/a	-999	1	[1, 7, 9]	17	FR1	2	R1124J
236.488	0.012	241928	STOP	n/a	n/a	n/a	-999	1	[-999, -999, -999]	n/a	FR1	2	R1124J
236.5	1.071	241940	DISTRACT_END	n/a	n/a	n/a	-999	1	[0, 0, 0]	n/a	FR1	2	R1124J
237.571	3.163	243011	REC_START	n/a	n/a	n/a	-999	1	[0, 0, 0]	n/a	FR1	2	R1124J
240.734	2.382	246174	REC_WORD	2.382	n/a	WEB	-999	1	[0, 0, 0]	n/a	FR1	2	R1124J
243.116	3.046	248556	REC_WORD	3.046	n/a	TREE	-999	1	[0, 0, 0]	n/a	FR1	2	R1124J
246.162	1.722	251602	REC_WORD	1.722	n/a	TRASH	-999	1	[0, 0, 0]	n/a	FR1	2	R1124J
247.884	2.708	253324	REC_WORD	2.708	n/a	LAKE	-999	1	[0, 0, 0]	n/a	FR1	2	R1124J
250.592	3.713	256032	REC_WORD	3.713	n/a	CHALK	-999	1	[0, 0, 0]	n/a	FR1	2	R1124J
254.305	13.271	259745	REC_WORD	13.271	n/a	ANT	-999	1	[0, 0, 0]	n/a	FR1	2	R1124J
267.576	3.128	273016	REC_END	n/a	n/a	n/a	-999	1	[0, 0, 0]	n/a	FR1	2	R1124J
270.704	0.0	276144	TRIAL	n/a	n/a	n/a	-999	2	[0, 0, 0]	n/a	FR1	2	R1124J
270.704	10.428	276144	COUNTDOWN_START	n/a	n/a	n/a	-999	2	[0, 0, 0]	n/a	FR1	2	R1124J
281.132	0.006	286572	COUNTDOWN_END	n/a	n/a	n/a	-999	2	[0, 0, 0]	n/a	FR1	2	R1124J
281.138	3.601	286578	ORIENT	n/a	n/a	n/a	-999	2	[0, 0, 0]	n/a	FR1	2	R1124J
284.739	2.416	290179	WORD	n/a	wordpools/wordpool_EN.txt	WAND	1	2	[0, 0, 0]	n/a	FR1	2	R1124J
287.155	2.402	292595	WORD	n/a	wordpools/wordpool_EN.txt	STONE	2	2	[0, 0, 0]	n/a	FR1	2	R1124J
289.557	2.516	294997	WORD	n/a	wordpools/wordpool_EN.txt	SWORD	3	2	[0, 0, 0]	n/a	FR1	2	R1124J
292.073	2.485	297513	WORD	n/a	wordpools/wordpool_EN.txt	STAIR	4	2	[0, 0, 0]	n/a	FR1	2	R1124J
294.558	2.532	299998	WORD	n/a	wordpools/wordpool_EN.txt	TOOL	5	2	[0, 0, 0]	n/a	FR1	2	R1124J
297.09	2.617	302530	WORD	n/a	wordpools/wordpool_EN.txt	GOLD	6	2	[0, 0, 0]	n/a	FR1	2	R1124J
299.707	2.434	305147	WORD	n/a	wordpools/wordpool_EN.txt	PIPE	7	2	[0, 0, 0]	n/a	FR1	2	R1124J
302.141	2.55	307581	WORD	n/a	wordpools/wordpool_EN.txt	BEAN	8	2	[0, 0, 0]	n/a	FR1	2	R1124J
304.691	2.467	310131	WORD	n/a	wordpools/wordpool_EN.txt	DOOR	9	2	[0, 0, 0]	n/a	FR1	2	R1124J
307.158	2.401	312598	WORD	n/a	wordpools/wordpool_EN.txt	PEARL	10	2	[0, 0, 0]	n/a	FR1	2	R1124J
309.559	2.4	314998	WORD	n/a	wordpools/wordpool_EN.txt	PRINCE	11	2	[0, 0, 0]	n/a	FR1	2	R1124J
311.959	1.618	317398	WORD	n/a	wordpools/wordpool_EN.txt	CROWN	12	2	[0, 0, 0]	n/a	FR1	2	R1124J
313.577	0.0	319016	DISTRACT_START	n/a	n/a	n/a	-999	2	[0, 0, 0]	n/a	FR1	2	R1124J
313.577	0.017	319016	START	n/a	n/a	n/a	-999	2	[-999, -999, -999]	n/a	FR1	2	R1124J
313.594	7.366	319033	PROB	7.366	n/a	n/a	-999	2	[2, 1, 4]	7	FR1	2	R1124J
320.96	10.085	326399	PROB	10.085	n/a	n/a	-999	2	[7, 5, 6]	18	FR1	2	R1124J
331.045	5.607	336484	PROB	5.607	n/a	n/a	-999	2	[8, 2, 6]	16	FR1	2	R1124J
336.652	0.01	342091	STOP	n/a	n/a	n/a	-999	2	[-999, -999, -999]	n/a	FR1	2	R1124J
336.662	1.218	342101	DISTRACT_END	n/a	n/a	n/a	-999	2	[0, 0, 0]	n/a	FR1	2	R1124J
337.88	3.119	343319	REC_START	n/a	n/a	n/a	-999	2	[0, 0, 0]	n/a	FR1	2	R1124J
340.999	2.49	346438	REC_WORD	2.49	n/a	WAND	-999	2	[0, 0, 0]	n/a	FR1	2	R1124J
343.489	2.537	348928	REC_WORD	2.537	n/a	STONE	-999	2	[0, 0, 0]	n/a	FR1	2	R1124J
346.026	2.472	351465	REC_WORD	2.472	n/a	SWORD	-999	2	[0, 0, 0]	n/a	FR1	2	R1124J
348.498	3.703	353937	REC_WORD	3.703	n/a	STAIR	-999	2	[0, 0, 0]	n/a	FR1	2	R1124J
352.201	15.69	357640	REC_WORD	15.69	n/a	TOOL	-999	2	[0, 0, 0]	n/a	FR1	2	R1124J
367.891	3.259	373330	REC_END	n/a	n/a	n/a	-999	2	[0, 0, 0]	n/a	FR1	2	R1124J
371.15	0.0	376589	TRIAL	n/a	n/a	n/a	-999	3	[0, 0, 0]	n/a	FR1	2	R1124J
371.15	10.428	376589	COUNTDOWN_START	n/a	n/a	n/a	-999	3	[0, 0, 0]	n/a	FR1	2	R1124J
381.578	0.008	387017	COUNTDOWN_END	n/a	n/a	n/a	-999	3	[0, 0, 0]	n/a	FR1	2	R1124J
381.586	3.55	387025	ORIENT	n/a	n/a	n/a	-999	3	[0, 0, 0]	n/a	FR1	2	R1124J
385.136	2.517	390574	WORD	n/a	wordpools/wordpool_EN.txt	DRUM	1	3	[0, 0, 0]	n/a	FR1	2	R1124J
387.653	2.617	393091	WORD	n/a	wordpools/wordpool_EN.txt	SPOON	2	3	[0, 0, 0]	n/a	FR1	2	R1124J
390.27	2.617	395708	WORD	n/a	wordpools/wordpool_EN.txt	BLUSH	3	3	[0, 0, 0]	n/a	FR1	2	R1124J
392.887	2.584	398325	WORD	n/a	wordpools/wordpool_EN.txt	DOLL	4	3	[0, 0, 0]	n/a	FR1	2	R1124J
395.471	2.466	400909	WORD	n/a	wordpools/wordpool_EN.txt	HOLE	5	3	[0, 0, 0]	n/a	FR1	2	R1124J
397.937	2.585	403375	WORD	n/a	wordpools/wordpool_EN.txt	MILK	6	3	[0, 0, 0]	n/a	FR1	2	R1124J
400.522	2.483	405960	WORD	n/a	wordpools/wordpool_EN.txt	WORM	7	3	[0, 0, 0]	n/a	FR1	2	R1124J
403.005	2.501	408443	WORD	n/a	wordpools/wordpool_EN.txt	FLAME	8	3	[0, 0, 0]	n/a	FR1	2	R1124J
405.506	2.449	410944	WORD	n/a	wordpools/wordpool_EN.txt	FENCE	9	3	[0, 0, 0]	n/a	FR1	2	R1124J
407.955	2.535	413393	WORD	n/a	wordpools/wordpool_EN.txt	AXE	10	3	[0, 0, 0]	n/a	FR1	2	R1124J
410.49	2.383	415928	WORD	n/a	wordpools/wordpool_EN.txt	FORK	11	3	[0, 0, 0]	n/a	FR1	2	R1124J
412.873	1.618	418311	WORD	n/a	wordpools/wordpool_EN.txt	BEAR	12	3	[0, 0, 0]	n/a	FR1	2	R1124J
414.491	0.0	419929	DISTRACT_START	n/a	n/a	n/a	-999	3	[0, 0, 0]	n/a	FR1	2	R1124J
414.491	0.016	419929	START	n/a	n/a	n/a	-999	3	[-999, -999, -999]	n/a	FR1	2	R1124J
414.507	11.018	419945	PROB	11.018	n/a	n/a	-999	3	[6, 7, 5]	18	FR1	2	R1124J
425.525	9.747	430963	PROB	9.747	n/a	n/a	-999	3	[4, 8, 5]	17	FR1	2	R1124J
435.272	0.003	440710	STOP	n/a	n/a	n/a	-999	3	[-999, -999, -999]	n/a	FR1	2	R1124J
435.275	1.152	440713	DISTRACT_END	n/a	n/a	n/a	-999	3	[0, 0, 0]	n/a	FR1	2	R1124J
436.427	2.058	441865	REC_START	n/a	n/a	n/a	-999	3	[0, 0, 0]	n/a	FR1	2	R1124J
438.485	2.192	443923	REC_WORD	2.192	n/a	DRUM	-999	3	[0, 0, 0]	n/a	FR1	2	R1124J
440.677	1.0	446115	REC_WORD	1.0	n/a	SPOON	-999	3	[0, 0, 0]	n/a	FR1	2	R1124J
441.677	1.771	447115	REC_WORD_VV	1.771	n/a	<>	-999	3	[0, 0, 0]	n/a	FR1	2	R1124J
443.448	2.928	448886	REC_WORD	2.928	n/a	BLUSH	-999	3	[0, 0, 0]	n/a	FR1	2	R1124J
446.376	2.256	451814	REC_WORD	2.256	n/a	DOLL	-999	3	[0, 0, 0]	n/a	FR1	2	R1124J
448.632	17.805	454070	REC_WORD	17.805	n/a	HOLE	-999	3	[0, 0, 0]	n/a	FR1	2	R1124J
466.437	3.727	471874	REC_END	n/a	n/a	n/a	-999	3	[0, 0, 0]	n/a	FR1	2	R1124J
470.164	0.0	475601	TRIAL	n/a	n/a	n/a	-999	4	[0, 0, 0]	n/a	FR1	2	R1124J
470.164	10.428	475601	COUNTDOWN_START	n/a	n/a	n/a	-999	4	[0, 0, 0]	n/a	FR1	2	R1124J
480.592	0.007	486029	COUNTDOWN_END	n/a	n/a	n/a	-999	4	[0, 0, 0]	n/a	FR1	2	R1124J
480.599	3.817	486036	ORIENT	n/a	n/a	n/a	-999	4	[0, 0, 0]	n/a	FR1	2	R1124J
484.416	2.433	489853	WORD	n/a	wordpools/wordpool_EN.txt	OAR	1	4	[0, 0, 0]	n/a	FR1	2	R1124J
486.849	2.417	492286	WORD	n/a	wordpools/wordpool_EN.txt	LOCK	2	4	[0, 0, 0]	n/a	FR1	2	R1124J
489.266	2.551	494703	WORD	n/a	wordpools/wordpool_EN.txt	RUG	3	4	[0, 0, 0]	n/a	FR1	2	R1124J
491.817	2.517	497254	WORD	n/a	wordpools/wordpool_EN.txt	HAT	4	4	[0, 0, 0]	n/a	FR1	2	R1124J
494.334	2.6	499771	WORD	n/a	wordpools/wordpool_EN.txt	SHOE	5	4	[0, 0, 0]	n/a	FR1	2	R1124J
496.934	2.618	502371	WORD	n/a	wordpools/wordpool_EN.txt	FOAM	6	4	[0, 0, 0]	n/a	FR1	2	R1124J
499.552	2.399	504989	WORD	n/a	wordpools/wordpool_EN.txt	GLOVE	7	4	[0, 0, 0]	n/a	FR1	2	R1124J
501.951	2.568	507388	WORD	n/a	wordpools/wordpool_EN.txt	CLOTH	8	4	[0, 0, 0]	n/a	FR1	2	R1124J
504.519	2.383	509956	WORD	n/a	wordpools/wordpool_EN.txt	STRING	9	4	[0, 0, 0]	n/a	FR1	2	R1124J
506.902	2.484	512339	WORD	n/a	wordpools/wordpool_EN.txt	SQUARE	10	4	[0, 0, 0]	n/a	FR1	2	R1124J
509.386	2.417	514823	WORD	n/a	wordpools/wordpool_EN.txt	CLAY	11	4	[0, 0, 0]	n/a	FR1	2	R1124J
511.803	1.617	517240	WORD	n/a	wordpools/wordpool_EN.txt	BOAT	12	4	[0, 0, 0]	n/a	FR1	2	R1124J
513.42	0.0	518857	DISTRACT_START	n/a	n/a	n/a	-999	4	[0, 0, 0]	n/a	FR1	2	R1124J
513.42	0.017	518857	START	n/a	n/a	n/a	-999	4	[-999, -999, -999]	n/a	FR1	2	R1124J
513.437	8.817	518874	PROB	8.817	n/a	n/a	-999	4	[9, 3, 9]	21	FR1	2	R1124J
522.254	6.634	527691	PROB	6.634	n/a	n/a	-999	4	[9, 3, 2]	14	FR1	2	R1124J
528.888	16.396	534325	PROB	16.396	n/a	n/a	-999	4	[9, 8, 7]	23	FR1	2	R1124J
545.284	0.006	550720	STOP	n/a	n/a	n/a	-999	4	[-999, -999, -999]	n/a	FR1	2	R1124J
545.29	1.185	550726	DISTRACT_END	n/a	n/a	n/a	-999	4	[0, 0, 0]	n/a	FR1	2	R1124J
546.475	3.165	551911	REC_START	n/a	n/a	n/a	-999	4	[0, 0, 0]	n/a	FR1	2	R1124J
549.64	3.026	555076	REC_WORD	3.026	n/a	OAR	-999	4	[0, 0, 0]	n/a	FR1	2	R1124J
552.666	4.252	558102	REC_WORD	4.252	n/a	LOCK	-999	4	[0, 0, 0]	n/a	FR1	2	R1124J
556.918	19.571	562354	REC_WORD	19.571	n/a	RUG	-999	4	[0, 0, 0]	n/a	FR1	2	R1124J
576.489	4.406	581925	REC_END	n/a	n/a	n/a	-999	4	[0, 0, 0]	n/a	FR1	2	R1124J
580.895	0.0	586331	COUNTDOWN_START	n/a	n/a	n/a	-999	5	[0, 0, 0]	n/a	FR1	2	R1124J
580.895	10.428	586331	TRIAL	n/a	n/a	n/a	-999	5	[0, 0, 0]	n/a	FR1	2	R1124J
591.323	0.007	596759	COUNTDOWN_END	n/a	n/a	n/a	-999	5	[0, 0, 0]	n/a	FR1	2	R1124J
591.33	3.584	596766	ORIENT	n/a	n/a	n/a	-999	5	[0, 0, 0]	n/a	FR1	2	R1124J
594.914	2.567	600350	WORD	n/a	wordpools/wordpool_EN.txt	CAT	1	5	[0, 0, 0]	n/a	FR1	2	R1124J
597.481	2.567	602917	WORD	n/a	wordpools/wordpool_EN.txt	JET	2	5	[0, 0, 0]	n/a	FR1	2	R1124J
600.048	2.617	605484	WORD	n/a	wordpools/wordpool_EN.txt	BAT	3	5	[0, 0, 0]	n/a	FR1	2	R1124J
602.665	2.383	608101	WORD	n/a	wordpools/wordpool_EN.txt	THREAD	4	5	[0, 0, 0]	n/a	FR1	2	R1124J
605.048	2.435	610484	WORD	n/a	wordpools/wordpool_EN.txt	NOSE	5	5	[0, 0, 0]	n/a	FR1	2	R1124J
607.483	2.466	612919	WORD	n/a	wordpools/wordpool_EN.txt	MAZE	6	5	[0, 0, 0]	n/a	FR1	2	R1124J
609.949	2.551	615385	WORD	n/a	wordpools/wordpool_EN.txt	HEART	7	5	[0, 0, 0]	n/a	FR1	2	R1124J
612.5	2.599	617935	WORD	n/a	wordpools/wordpool_EN.txt	LEAF	8	5	[0, 0, 0]	n/a	FR1	2	R1124J
615.099	2.535	620534	WORD	n/a	wordpools/wordpool_EN.txt	SMOKE	9	5	[0, 0, 0]	n/a	FR1	2	R1124J
617.634	2.533	623069	WORD	n/a	wordpools/wordpool_EN.txt	FOG	10	5	[0, 0, 0]	n/a	FR1	2	R1124J
620.167	2.385	625602	WORD	n/a	wordpools/wordpool_EN.txt	PEAR	11	5	[0, 0, 0]	n/a	FR1	2	R1124J
622.552	1.616	627987	WORD	n/a	wordpools/wordpool_EN.txt	RIB	12	5	[0, 0, 0]	n/a	FR1	2	R1124J
624.168	0.0	629603	DISTRACT_START	n/a	n/a	n/a	-999	5	[0, 0, 0]	n/a	FR1	2	R1124J
624.168	0.016	629603	START	n/a	n/a	n/a	-999	5	[-999, -999, -999]	n/a	FR1	2	R1124J
624.184	9.668	629619	PROB	9.668	n/a	n/a	-999	5	[8, 2, 9]	19	FR1	2	R1124J
633.852	4.635	639287	PROB	4.635	n/a	n/a	-999	5	[1, 2, 8]	11	FR1	2	R1124J
638.487	10.297	643922	PROB	10.297	n/a	n/a	-999	5	[5, 9, 5]	19	FR1	2	R1124J
648.784	0.02	654219	STOP	n/a	n/a	n/a	-999	5	[-999, -999, -999]	n/a	FR1	2	R1124J
648.804	1.118	654239	DISTRACT_END	n/a	n/a	n/a	-999	5	[0, 0, 0]	n/a	FR1	2	R1124J
649.922	3.977	655357	REC_START	n/a	n/a	n/a	-999	5	[0, 0, 0]	n/a	FR1	2	R1124J
653.899	5.545	659334	REC_WORD	5.545	n/a	CAT	-999	5	[0, 0, 0]	n/a	FR1	2	R1124J
659.444	3.455	664879	REC_WORD	3.455	n/a	BAT	-999	5	[0, 0, 0]	n/a	FR1	2	R1124J
662.899	3.193	668334	REC_WORD	3.193	n/a	JET	-999	5	[0, 0, 0]	n/a	FR1	2	R1124J
666.092	5.2	671527	REC_WORD	5.2	n/a	THREAD	-999	5	[0, 0, 0]	n/a	FR1	2	R1124J
671.292	8.639	676727	REC_WORD	8.639	n/a	BUG	-999	5	[0, 0, 0]	n/a	FR1	2	R1124J
679.931	3.895	685366	REC_END	n/a	n/a	n/a	-999	5	[0, 0, 0]	n/a	FR1	2	R1124J
683.826	0.0	689261	TRIAL	n/a	n/a	n/a	-999	6	[0, 0, 0]	n/a	FR1	2	R1124J
683.826	10.428	689261	COUNTDOWN_START	n/a	n/a	n/a	-999	6	[0, 0, 0]	n/a	FR1	2	R1124J
694.254	0.006	699688	COUNTDOWN_END	n/a	n/a	n/a	-999	6	[0, 0, 0]	n/a	FR1	2	R1124J
694.26	3.734	699694	ORIENT	n/a	n/a	n/a	-999	6	[0, 0, 0]	n/a	FR1	2	R1124J
697.994	2.451	703428	WORD	n/a	wordpools/wordpool_EN.txt	NET	1	6	[0, 0, 0]	n/a	FR1	2	R1124J
700.445	2.483	705879	WORD	n/a	wordpools/wordpool_EN.txt	ICE	2	6	[0, 0, 0]	n/a	FR1	2	R1124J
702.928	2.466	708362	WORD	n/a	wordpools/wordpool_EN.txt	CONE	3	6	[0, 0, 0]	n/a	FR1	2	R1124J
705.394	2.601	710828	WORD	n/a	wordpools/wordpool_EN.txt	COIN	4	6	[0, 0, 0]	n/a	FR1	2	R1124J
707.995	2.468	713429	WORD	n/a	wordpools/wordpool_EN.txt	BANK	5	6	[0, 0, 0]	n/a	FR1	2	R1124J
710.463	2.566	715897	WORD	n/a	wordpools/wordpool_EN.txt	MAIL	6	6	[0, 0, 0]	n/a	FR1	2	R1124J
713.029	2.551	718463	WORD	n/a	wordpools/wordpool_EN.txt	INK	7	6	[0, 0, 0]	n/a	FR1	2	R1124J
715.58	2.583	721014	WORD	n/a	wordpools/wordpool_EN.txt	CASH	8	6	[0, 0, 0]	n/a	FR1	2	R1124J
718.163	2.534	723597	WORD	n/a	wordpools/wordpool_EN.txt	STORE	9	6	[0, 0, 0]	n/a	FR1	2	R1124J
720.697	2.484	726131	WORD	n/a	wordpools/wordpool_EN.txt	SHEET	10	6	[0, 0, 0]	n/a	FR1	2	R1124J
723.181	2.483	728615	WORD	n/a	wordpools/wordpool_EN.txt	CUBE	11	6	[0, 0, 0]	n/a	FR1	2	R1124J
725.664	1.617	731098	WORD	n/a	wordpools/wordpool_EN.txt	PHONE	12	6	[0, 0, 0]	n/a	FR1	2	R1124J
727.281	0.0	732715	DISTRACT_START	n/a	n/a	n/a	-999	6	[0, 0, 0]	n/a	FR1	2	R1124J
727.281	0.017	732715	START	n/a	n/a	n/a	-999	6	[-999, -999, -999]	n/a	FR1	2	R1124J
727.298	13.418	732732	PROB	13.418	n/a	n/a	-999	6	[9, 2, 8]	19	FR1	2	R1124J
740.716	7.633	746150	PROB	7.633	n/a	n/a	-999	6	[5, 5, 2]	12	FR1	2	R1124J
748.349	0.018	753783	STOP	n/a	n/a	n/a	-999	6	[-999, -999, -999]	n/a	FR1	2	R1124J
748.367	1.051	753801	DISTRACT_END	n/a	n/a	n/a	-999	6	[0, 0, 0]	n/a	FR1	2	R1124J
749.418	2.847	754852	REC_START	n/a	n/a	n/a	-999	6	[0, 0, 0]	n/a	FR1	2	R1124J
752.265	3.592	757699	REC_WORD	3.592	n/a	NET	-999	6	[0, 0, 0]	n/a	FR1	2	R1124J
755.857	3.801	761291	REC_WORD	3.801	n/a	ICE	-999	6	[0, 0, 0]	n/a	FR1	2	R1124J
759.658	2.243	765092	REC_WORD	2.243	n/a	CONE	-999	6	[0, 0, 0]	n/a	FR1	2	R1124J
761.901	3.538	767335	REC_WORD	3.538	n/a	COIN	-999	6	[0, 0, 0]	n/a	FR1	2	R1124J
765.439	13.992	770872	REC_WORD	13.992	n/a	BANK	-999	6	[0, 0, 0]	n/a	FR1	2	R1124J
779.431	2.958	784864	REC_END	n/a	n/a	n/a	-999	6	[0, 0, 0]	n/a	FR1	2	R1124J
782.389	0.0	787822	COUNTDOWN_START	n/a	n/a	n/a	-999	7	[0, 0, 0]	n/a	FR1	2	R1124J
782.389	10.428	787822	TRIAL	n/a	n/a	n/a	-999	7	[0, 0, 0]	n/a	FR1	2	R1124J
792.817	0.006	798250	COUNTDOWN_END	n/a	n/a	n/a	-999	7	[0, 0, 0]	n/a	FR1	2	R1124J
792.823	3.718	798256	ORIENT	n/a	n/a	n/a	-999	7	[0, 0, 0]	n/a	FR1	2	R1124J
796.541	2.55	801974	WORD	n/a	wordpools/wordpool_EN.txt	FORT	1	7	[0, 0, 0]	n/a	FR1	2	R1124J
799.091	2.418	804524	WORD	n/a	wordpools/wordpool_EN.txt	POLE	2	7	[0, 0, 0]	n/a	FR1	2	R1124J
801.509	2.533	806942	WORD	n/a	wordpools/wordpool_EN.txt	WAVE	3	7	[0, 0, 0]	n/a	FR1	2	R1124J
804.042	2.534	809475	WORD	n/a	wordpools/wordpool_EN.txt	PLANE	4	7	[0, 0, 0]	n/a	FR1	2	R1124J
806.576	2.583	812009	WORD	n/a	wordpools/wordpool_EN.txt	CAPE	5	7	[0, 0, 0]	n/a	FR1	2	R1124J
809.159	2.517	814592	WORD	n/a	wordpools/wordpool_EN.txt	BAND	6	7	[0, 0, 0]	n/a	FR1	2	R1124J
811.676	2.534	817109	WORD	n/a	wordpools/wordpool_EN.txt	BOARD	7	7	[0, 0, 0]	n/a	FR1	2	R1124J
814.21	2.583	819643	WORD	n/a	wordpools/wordpool_EN.txt	SUN	8	7	[0, 0, 0]	n/a	FR1	2	R1124J
816.793	2.451	822226	WORD	n/a	wordpools/wordpool_EN.txt	FROG	9	7	[0, 0, 0]	n/a	FR1	2	R1124J
819.244	2.55	824677	WORD	n/a	wordpools/wordpool_EN.txt	SAIL	10	7	[0, 0, 0]	n/a	FR1	2	R1124J
821.794	2.384	827227	WORD	n/a	wordpools/wordpool_EN.txt	STAR	11	7	[0, 0, 0]	n/a	FR1	2	R1124J
824.178	1.616	829611	WORD	n/a	wordpools/wordpool_EN.txt	SHIP	12	7	[0, 0, 0]	n/a	FR1	2	R1124J
825.794	0.001	831227	DISTRACT_START	n/a	n/a	n/a	-999	7	[0, 0, 0]	n/a	FR1	2	R1124J
825.795	0.016	831228	START	n/a	n/a	n/a	-999	7	[-999, -999, -999]	n/a	FR1	2	R1124J
825.811	9.652	831244	PROB	9.652	n/a	n/a	-999	7	[8, 8, 8]	27	FR1	2	R1124J
835.463	8.667	840896	PROB	8.667	n/a	n/a	-999	7	[4, 9, 6]	19	FR1	2	R1124J
844.13	6.991	849562	PROB	6.991	n/a	n/a	-999	7	[5, 9, 5]	19	FR1	2	R1124J
851.121	0.01	856553	STOP	n/a	n/a	n/a	-999	7	[-999, -999, -999]	n/a	FR1	2	R1124J
851.131	1.035	856563	DISTRACT_END	n/a	n/a	n/a	-999	7	[0, 0, 0]	n/a	FR1	2	R1124J
852.166	3.29	857598	REC_START	n/a	n/a	n/a	-999	7	[0, 0, 0]	n/a	FR1	2	R1124J
855.456	4.276	860888	REC_WORD	4.276	n/a	FORT	-999	7	[0, 0, 0]	n/a	FR1	2	R1124J
859.732	4.129	865164	REC_WORD	4.129	n/a	POLE	-999	7	[0, 0, 0]	n/a	FR1	2	R1124J
863.861	4.806	869293	REC_WORD	4.806	n/a	WAVE	-999	7	[0, 0, 0]	n/a	FR1	2	R1124J
868.667	2.137	874099	REC_WORD	2.137	n/a	PLANE	-999	7	[0, 0, 0]	n/a	FR1	2	R1124J
870.804	11.372	876236	REC_WORD	11.372	n/a	CAPE	-999	7	[0, 0, 0]	n/a	FR1	2	R1124J
882.176	3.311	887608	REC_END	n/a	n/a	n/a	-999	7	[0, 0, 0]	n/a	FR1	2	R1124J
885.487	0.0	890919	TRIAL	n/a	n/a	n/a	-999	8	[0, 0, 0]	n/a	FR1	2	R1124J
885.487	10.428	890919	COUNTDOWN_START	n/a	n/a	n/a	-999	8	[0, 0, 0]	n/a	FR1	2	R1124J
895.915	0.006	901347	COUNTDOWN_END	n/a	n/a	n/a	-999	8	[0, 0, 0]	n/a	FR1	2	R1124J
895.921	3.701	901353	ORIENT	n/a	n/a	n/a	-999	8	[0, 0, 0]	n/a	FR1	2	R1124J
899.622	2.499	905054	WORD	n/a	wordpools/wordpool_EN.txt	BROOM	1	8	[0, 0, 0]	n/a	FR1	2	R1124J
902.121	2.534	907553	WORD	n/a	wordpools/wordpool_EN.txt	FLEA	2	8	[0, 0, 0]	n/a	FR1	2	R1124J
904.655	2.384	910087	WORD	n/a	wordpools/wordpool_EN.txt	FUR	3	8	[0, 0, 0]	n/a	FR1	2	R1124J
907.039	2.451	912471	WORD	n/a	wordpools/wordpool_EN.txt	PET	4	8	[0, 0, 0]	n/a	FR1	2	R1124J
909.49	2.549	914922	WORD	n/a	wordpools/wordpool_EN.txt	DOG	5	8	[0, 0, 0]	n/a	FR1	2	R1124J
912.039	2.452	917471	WORD	n/a	wordpools/wordpool_EN.txt	FACE	6	8	[0, 0, 0]	n/a	FR1	2	R1124J
914.491	2.516	919923	WORD	n/a	wordpools/wordpool_EN.txt	PIT	7	8	[0, 0, 0]	n/a	FR1	2	R1124J
917.007	2.468	922438	WORD	n/a	wordpools/wordpool_EN.txt	WOLF	8	8	[0, 0, 0]	n/a	FR1	2	R1124J
919.475	2.432	924906	WORD	n/a	wordpools/wordpool_EN.txt	RAT	9	8	[0, 0, 0]	n/a	FR1	2	R1124J
921.907	2.535	927338	WORD	n/a	wordpools/wordpool_EN.txt	BUSH	10	8	[0, 0, 0]	n/a	FR1	2	R1124J
924.442	2.416	929873	WORD	n/a	wordpools/wordpool_EN.txt	BOWL	11	8	[0, 0, 0]	n/a	FR1	2	R1124J
926.858	1.601	932289	WORD	n/a	wordpools/wordpool_EN.txt	HOOF	12	8	[0, 0, 0]	n/a	FR1	2	R1124J
928.459	0.001	933890	DISTRACT_START	n/a	n/a	n/a	-999	8	[0, 0, 0]	n/a	FR1	2	R1124J
928.46	0.016	933891	START	n/a	n/a	n/a	-999	8	[-999, -999, -999]	n/a	FR1	2	R1124J
928.476	8.217	933907	PROB	8.217	n/a	n/a	-999	8	[1, 1, 9]	11	FR1	2	R1124J
936.693	11.485	942124	PROB	11.485	n/a	n/a	-999	8	[6, 1, 9]	16	FR1	2	R1124J
948.178	9.596	953609	PROB	9.596	n/a	n/a	-999	8	[4, 2, 5]	11	FR1	2	R1124J
957.774	0.005	963205	STOP	n/a	n/a	n/a	-999	8	[-999, -999, -999]	n/a	FR1	2	R1124J
957.779	1.184	963210	DISTRACT_END	n/a	n/a	n/a	-999	8	[0, 0, 0]	n/a	FR1	2	R1124J
958.963	2.782	964394	REC_START	n/a	n/a	n/a	-999	8	[0, 0, 0]	n/a	FR1	2	R1124J
961.745	3.485	967176	REC_WORD	3.485	n/a	BROOM	-999	8	[0, 0, 0]	n/a	FR1	2	R1124J
965.23	1.371	970661	REC_WORD	1.371	n/a	FLEA	-999	8	[0, 0, 0]	n/a	FR1	2	R1124J
966.601	2.821	972032	REC_WORD_VV	2.821	n/a	<>	-999	8	[0, 0, 0]	n/a	FR1	2	R1124J
969.422	2.913	974853	REC_WORD	2.913	n/a	FUR	-999	8	[0, 0, 0]	n/a	FR1	2	R1124J
972.335	2.207	977766	REC_WORD	2.207	n/a	PET	-999	8	[0, 0, 0]	n/a	FR1	2	R1124J
974.542	14.43	979973	REC_WORD	14.43	n/a	DOG	-999	8	[0, 0, 0]	n/a	FR1	2	R1124J
988.972	28.215	994403	REC_END	n/a	n/a	n/a	-999	8	[0, 0, 0]	n/a	FR1	2	R1124J
1017.187	0.0	1022617	COUNTDOWN_START	n/a	n/a	n/a	-999	9	[0, 0, 0]	n/a	FR1	2	R1124J
1017.187	10.428	1022617	TRIAL	n/a	n/a	n/a	-999	9	[0, 0, 0]	n/a	FR1	2	R1124J
1027.615	0.007	1033045	COUNTDOWN_END	n/a	n/a	n/a	-999	9	[0, 0, 0]	n/a	FR1	2	R1124J
1027.622	3.8	1033052	ORIENT	n/a	n/a	n/a	-999	9	[0, 0, 0]	n/a	FR1	2	R1124J
1031.422	2.45	1036852	WORD	n/a	wordpools/wordpool_EN.txt	SLUSH	1	9	[0, 0, 0]	n/a	FR1	2	R1124J
1033.872	2.433	1039302	WORD	n/a	wordpools/wordpool_EN.txt	SINK	2	9	[0, 0, 0]	n/a	FR1	2	R1124J
1036.305	2.551	1041735	WORD	n/a	wordpools/wordpool_EN.txt	LAMP	3	9	[0, 0, 0]	n/a	FR1	2	R1124J
1038.856	2.467	1044286	WORD	n/a	wordpools/wordpool_EN.txt	CAKE	4	9	[0, 0, 0]	n/a	FR1	2	R1124J
1041.323	2.417	1046753	WORD	n/a	wordpools/wordpool_EN.txt	STRAW	5	9	[0, 0, 0]	n/a	FR1	2	R1124J
1043.74	2.384	1049170	WORD	n/a	wordpools/wordpool_EN.txt	FOOD	6	9	[0, 0, 0]	n/a	FR1	2	R1124J
1046.124	2.418	1051554	WORD	n/a	wordpools/wordpool_EN.txt	JUICE	7	9	[0, 0, 0]	n/a	FR1	2	R1124J
1048.542	2.583	1053972	WORD	n/a	wordpools/wordpool_EN.txt	BREAD	8	9	[0, 0, 0]	n/a	FR1	2	R1124J
1051.125	2.6	1056555	WORD	n/a	wordpools/wordpool_EN.txt	YARD	9	9	[0, 0, 0]	n/a	FR1	2	R1124J
1053.725	2.434	1059155	WORD	n/a	wordpools/wordpool_EN.txt	BAG	10	9	[0, 0, 0]	n/a	FR1	2	R1124J
1056.159	2.6	1061589	WORD	n/a	wordpools/wordpool_EN.txt	GLASS	11	9	[0, 0, 0]	n/a	FR1	2	R1124J
1058.759	1.617	1064189	WORD	n/a	wordpools/wordpool_EN.txt	BOX	12	9	[0, 0, 0]	n/a	FR1	2	R1124J
1060.376	0.0	1065806	DISTRACT_START	n/a	n/a	n/a	-999	9	[0, 0, 0]	n/a	FR1	2	R1124J
1060.376	0.017	1065806	START	n/a	n/a	n/a	-999	9	[-999, -999, -999]	n/a	FR1	2	R1124J
1060.393	8.801	1065823	PROB	8.801	n/a	n/a	-999	9	[8, 5, 2]	15	FR1	2	R1124J
1069.194	4.851	1074623	PROB	4.851	n/a	n/a	-999	9	[2, 1, 2]	5	FR1	2	R1124J
1074.045	11.364	1079474	PROB	11.364	n/a	n/a	-999	9	[6, 6, 9]	21	FR1	2	R1124J
1085.409	0.003	1090838	STOP	n/a	n/a	n/a	-999	9	[-999, -999, -999]	n/a	FR1	2	R1124J
1085.412	1.052	1090841	DISTRACT_END	n/a	n/a	n/a	-999	9	[0, 0, 0]	n/a	FR1	2	R1124J
1086.464	4.041	1091893	REC_START	n/a	n/a	n/a	-999	9	[0, 0, 0]	n/a	FR1	2	R1124J
1090.505	2.506	1095934	REC_WORD	2.506	n/a	SLUSH	-999	9	[0, 0, 0]	n/a	FR1	2	R1124J
1093.011	1.467	1098440	REC_WORD	1.467	n/a	SINK	-999	9	[0, 0, 0]	n/a	FR1	2	R1124J
1094.478	2.835	1099907	REC_WORD	2.835	n/a	LAMP	-999	9	[0, 0, 0]	n/a	FR1	2	R1124J
1097.313	2.536	1102742	REC_WORD	2.536	n/a	CAKE	-999	9	[0, 0, 0]	n/a	FR1	2	R1124J
1099.849	16.628	1105278	REC_WORD	16.628	n/a	STRAW	-999	9	[0, 0, 0]	n/a	FR1	2	R1124J
1116.477	3.24	1121906	REC_END	n/a	n/a	n/a	-999	9	[0, 0, 0]	n/a	FR1	2	R1124J
1119.717	0.0	1125146	TRIAL	n/a	n/a	n/a	-999	10	[0, 0, 0]	n/a	FR1	2	R1124J
1119.717	10.428	1125146	COUNTDOWN_START	n/a	n/a	n/a	-999	10	[0, 0, 0]	n/a	FR1	2	R1124J
1130.145	0.007	1135574	COUNTDOWN_END	n/a	n/a	n/a	-999	10	[0, 0, 0]	n/a	FR1	2	R1124J
1130.152	3.784	1135581	ORIENT	n/a	n/a	n/a	-999	10	[0, 0, 0]	n/a	FR1	2	R1124J
1133.936	2.551	1139365	WORD	n/a	wordpools/wordpool_EN.txt	SEAT	1	10	[0, 0, 0]	n/a	FR1	2	R1124J
1136.487	2.582	1141916	WORD	n/a	wordpools/wordpool_EN.txt	PEA	2	10	[0, 0, 0]	n/a	FR1	2	R1124J
1139.069	2.485	1144498	WORD	n/a	wordpools/wordpool_EN.txt	DESK	3	10	[0, 0, 0]	n/a	FR1	2	R1124J
1141.554	2.45	1146983	WORD	n/a	wordpools/wordpool_EN.txt	PEN	4	10	[0, 0, 0]	n/a	FR1	2	R1124J
1144.004	2.534	1149433	WORD	n/a	wordpools/wordpool_EN.txt	WALL	5	10	[0, 0, 0]	n/a	FR1	2	R1124J
1146.538	2.399	1151966	WORD	n/a	wordpools/wordpool_EN.txt	TRAIN	6	10	[0, 0, 0]	n/a	FR1	2	R1124J
1148.937	2.417	1154365	WORD	n/a	wordpools/wordpool_EN.txt	WING	7	10	[0, 0, 0]	n/a	FR1	2	R1124J
1151.354	2.384	1156782	WORD	n/a	wordpools/wordpool_EN.txt	CHAIR	8	10	[0, 0, 0]	n/a	FR1	2	R1124J
1153.738	2.534	1159166	WORD	n/a	wordpools/wordpool_EN.txt	MULE	9	10	[0, 0, 0]	n/a	FR1	2	R1124J
1156.272	2.533	1161700	WORD	n/a	wordpools/wordpool_EN.txt	GUARD	10	10	[0, 0, 0]	n/a	FR1	2	R1124J
1158.805	2.501	1164233	WORD	n/a	wordpools/wordpool_EN.txt	BOY	11	10	[0, 0, 0]	n/a	FR1	2	R1124J
1161.306	1.617	1166734	WORD	n/a	wordpools/wordpool_EN.txt	SCHOOL	12	10	[0, 0, 0]	n/a	FR1	2	R1124J
1162.923	0.0	1168351	DISTRACT_START	n/a	n/a	n/a	-999	10	[0, 0, 0]	n/a	FR1	2	R1124J
1162.923	0.016	1168351	START	n/a	n/a	n/a	-999	10	[-999, -999, -999]	n/a	FR1	2	R1124J
1162.939	7.335	1168367	PROB	7.335	n/a	n/a	-999	10	[3, 5, 5]	13	FR1	2	R1124J
1170.274	5.55	1175702	PROB	5.55	n/a	n/a	-999	10	[4, 7, 7]	18	FR1	2	R1124J
1175.824	6.902	1181252	PROB	6.902	n/a	n/a	-999	10	[4, 2, 5]	11	FR1	2	R1124J
1182.726	9.463	1188154	PROB	9.463	n/a	n/a	-999	10	[4, 7, 9]	20	FR1	2	R1124J
1192.189	0.004	1197617	STOP	n/a	n/a	n/a	-999	10	[-999, -999, -999]	n/a	FR1	2	R1124J
1192.193	1.085	1197621	DISTRACT_END	n/a	n/a	n/a	-999	10	[0, 0, 0]	n/a	FR1	2	R1124J
1193.278	3.833	1198706	REC_START	n/a	n/a	n/a	-999	10	[0, 0, 0]	n/a	FR1	2	R1124J
1197.111	2.688	1202539	REC_WORD	2.688	n/a	SEAT	-999	10	[0, 0, 0]	n/a	FR1	2	R1124J
1199.799	2.694	1205227	REC_WORD	2.694	n/a	PEA	-999	10	[0, 0, 0]	n/a	FR1	2	R1124J
1202.493	3.101	1207921	REC_WORD	3.101	n/a	DESK	-999	10	[0, 0, 0]	n/a	FR1	2	R1124J
1205.594	3.017	1211022	REC_WORD	3.017	n/a	PEN	-999	10	[0, 0, 0]	n/a	FR1	2	R1124J
1208.611	14.676	1214039	REC_WORD	14.676	n/a	WALL	-999	10	[0, 0, 0]	n/a	FR1	2	R1124J
1223.287	3.627	1228714	REC_END	n/a	n/a	n/a	-999	10	[0, 0, 0]	n/a	FR1	2	R1124J
1226.914	0.0	1232341	COUNTDOWN_START	n/a	n/a	n/a	-999	11	[0, 0, 0]	n/a	FR1	2	R1124J
1226.914	10.428	1232341	TRIAL	n/a	n/a	n/a	-999	11	[0, 0, 0]	n/a	FR1	2	R1124J
1237.342	0.007	1242769	COUNTDOWN_END	n/a	n/a	n/a	-999	11	[0, 0, 0]	n/a	FR1	2	R1124J
1237.349	3.534	1242776	ORIENT	n/a	n/a	n/a	-999	11	[0, 0, 0]	n/a	FR1	2	R1124J
1240.883	2.384	1246310	WORD	n/a	wordpools/wordpool_EN.txt	MOUSE	1	11	[0, 0, 0]	n/a	FR1	2	R1124J
1243.267	2.483	1248694	WORD	n/a	wordpools/wordpool_EN.txt	CART	2	11	[0, 0, 0]	n/a	FR1	2	R1124J
1245.75	2.4	1251177	WORD	n/a	wordpools/wordpool_EN.txt	BRICK	3	11	[0, 0, 0]	n/a	FR1	2	R1124J
1248.15	2.469	1253577	WORD	n/a	wordpools/wordpool_EN.txt	SKI	4	11	[0, 0, 0]	n/a	FR1	2	R1124J
1250.619	2.382	1256046	WORD	n/a	wordpools/wordpool_EN.txt	ROOF	5	11	[0, 0, 0]	n/a	FR1	2	R1124J
1253.001	2.484	1258428	WORD	n/a	wordpools/wordpool_EN.txt	TIE	6	11	[0, 0, 0]	n/a	FR1	2	R1124J
1255.485	2.467	1260912	WORD	n/a	wordpools/wordpool_EN.txt	CRANE	7	11	[0, 0, 0]	n/a	FR1	2	R1124J
1257.952	2.568	1263379	WORD	n/a	wordpools/wordpool_EN.txt	SLIME	8	11	[0, 0, 0]	n/a	FR1	2	R1124J
1260.52	2.433	1265947	WORD	n/a	wordpools/wordpool_EN.txt	BARN	9	11	[0, 0, 0]	n/a	FR1	2	R1124J
1262.953	2.534	1268380	WORD	n/a	wordpools/wordpool_EN.txt	DOCK	10	11	[0, 0, 0]	n/a	FR1	2	R1124J
1265.487	2.616	1270914	WORD	n/a	wordpools/wordpool_EN.txt	CAVE	11	11	[0, 0, 0]	n/a	FR1	2	R1124J
1268.103	1.617	1273530	WORD	n/a	wordpools/wordpool_EN.txt	TOAD	12	11	[0, 0, 0]	n/a	FR1	2	R1124J
1269.72	0.001	1275147	DISTRACT_START	n/a	n/a	n/a	-999	11	[0, 0, 0]	n/a	FR1	2	R1124J
1269.721	0.016	1275148	START	n/a	n/a	n/a	-999	11	[-999, -999, -999]	n/a	FR1	2	R1124J
1269.737	10.084	1275164	PROB	10.084	n/a	n/a	-999	11	[9, 2, 3]	14	FR1	2	R1124J
1279.821	7.652	1285248	PROB	7.652	n/a	n/a	-999	11	[1, 5, 6]	12	FR1	2	R1124J
1287.473	4.735	1292900	PROB	4.735	n/a	n/a	-999	11	[2, 9, 9]	20	FR1	2	R1124J
1292.208	0.015	1297635	STOP	n/a	n/a	n/a	-999	11	[-999, -999, -999]	n/a	FR1	2	R1124J
1292.223	1.118	1297650	DISTRACT_END	n/a	n/a	n/a	-999	11	[0, 0, 0]	n/a	FR1	2	R1124J
1293.341	3.099	1298768	REC_START	n/a	n/a	n/a	-999	11	[0, 0, 0]	n/a	FR1	2	R1124J
1296.44	2.063	1301866	REC_WORD	2.063	n/a	MOUSE	-999	11	[0, 0, 0]	n/a	FR1	2	R1124J
1298.503	3.474	1303929	REC_WORD	3.474	n/a	CART	-999	11	[0, 0, 0]	n/a	FR1	2	R1124J
1301.977	3.143	1307403	REC_WORD	3.143	n/a	BRICK	-999	11	[0, 0, 0]	n/a	FR1	2	R1124J
1305.12	4.781	1310546	REC_WORD	4.781	n/a	SKI	-999	11	[0, 0, 0]	n/a	FR1	2	R1124J
1309.901	13.449	1315327	REC_WORD	13.449	n/a	ROOF	-999	11	[0, 0, 0]	n/a	FR1	2	R1124J
1323.35	3.294	1328776	REC_END	n/a	n/a	n/a	-999	11	[0, 0, 0]	n/a	FR1	2	R1124J
1326.644	0.0	1332070	TRIAL	n/a	n/a	n/a	-999	12	[0, 0, 0]	n/a	FR1	2	R1124J
1326.644	10.428	1332070	COUNTDOWN_START	n/a	n/a	n/a	-999	12	[0, 0, 0]	n/a	FR1	2	R1124J
1337.072	0.007	1342498	COUNTDOWN_END	n/a	n/a	n/a	-999	12	[0, 0, 0]	n/a	FR1	2	R1124J
1337.079	3.667	1342505	ORIENT	n/a	n/a	n/a	-999	12	[0, 0, 0]	n/a	FR1	2	R1124J
1340.746	2.567	1346172	WORD	n/a	wordpools/wordpool_EN.txt	ARM	1	12	[0, 0, 0]	n/a	FR1	2	R1124J
1343.313	2.567	1348739	WORD	n/a	wordpools/wordpool_EN.txt	NAIL	2	12	[0, 0, 0]	n/a	FR1	2	R1124J
1345.88	2.451	1351306	WORD	n/a	wordpools/wordpool_EN.txt	BOOT	3	12	[0, 0, 0]	n/a	FR1	2	R1124J
1348.331	2.55	1353757	WORD	n/a	wordpools/wordpool_EN.txt	ROOT	4	12	[0, 0, 0]	n/a	FR1	2	R1124J
1350.881	2.568	1356307	WORD	n/a	wordpools/wordpool_EN.txt	HOSE	5	12	[0, 0, 0]	n/a	FR1	2	R1124J
1353.449	2.416	1358875	WORD	n/a	wordpools/wordpool_EN.txt	TOE	6	12	[0, 0, 0]	n/a	FR1	2	R1124J
1355.865	2.55	1361291	WORD	n/a	wordpools/wordpool_EN.txt	PLATE	7	12	[0, 0, 0]	n/a	FR1	2	R1124J
1358.415	2.384	1363841	WORD	n/a	wordpools/wordpool_EN.txt	PASTE	8	12	[0, 0, 0]	n/a	FR1	2	R1124J
1360.799	2.517	1366225	WORD	n/a	wordpools/wordpool_EN.txt	PIN	9	12	[0, 0, 0]	n/a	FR1	2	R1124J
1363.316	2.5	1368742	WORD	n/a	wordpools/wordpool_EN.txt	EEL	10	12	[0, 0, 0]	n/a	FR1	2	R1124J
1365.816	2.618	1371242	WORD	n/a	wordpools/wordpool_EN.txt	LIP	11	12	[0, 0, 0]	n/a	FR1	2	R1124J
1368.434	1.616	1373860	WORD	n/a	wordpools/wordpool_EN.txt	SPONGE	12	12	[0, 0, 0]	n/a	FR1	2	R1124J
1370.05	0.0	1375476	DISTRACT_START	n/a	n/a	n/a	-999	12	[0, 0, 0]	n/a	FR1	2	R1124J
1370.05	0.017	1375476	START	n/a	n/a	n/a	-999	12	[-999, -999, -999]	n/a	FR1	2	R1124J
1370.067	8.201	1375493	PROB	8.201	n/a	n/a	-999	12	[5, 6, 5]	16	FR1	2	R1124J
1378.268	6.251	1383693	PROB	6.251	n/a	n/a	-999	12	[2, 3, 3]	8	FR1	2	R1124J
1384.519	11.542	1389944	PROB	11.542	n/a	n/a	-999	12	[8, 5, 9]	22	FR1	2	R1124J
1396.061	0.009	1401486	STOP	n/a	n/a	n/a	-999	12	[-999, -999, -999]	n/a	FR1	2	R1124J
1396.07	1.184	1401495	DISTRACT_END	n/a	n/a	n/a	-999	12	[0, 0, 0]	n/a	FR1	2	R1124J
1397.254	2.838	1402679	REC_START	n/a	n/a	n/a	-999	12	[0, 0, 0]	n/a	FR1	2	R1124J
1400.092	2.321	1405517	REC_WORD	2.321	n/a	ARM	-999	12	[0, 0, 0]	n/a	FR1	2	R1124J
1402.413	2.722	1407838	REC_WORD	2.722	n/a	NAIL	-999	12	[0, 0, 0]	n/a	FR1	2	R1124J
1405.135	3.131	1410560	REC_WORD	3.131	n/a	BOOT	-999	12	[0, 0, 0]	n/a	FR1	2	R1124J
1408.266	2.025	1413691	REC_WORD	2.025	n/a	ROOT	-999	12	[0, 0, 0]	n/a	FR1	2	R1124J
1410.291	3.134	1415716	REC_WORD	3.134	n/a	HOSE	-999	12	[0, 0, 0]	n/a	FR1	2	R1124J
1413.425	4.14	1418850	REC_WORD	4.14	n/a	TOE	-999	12	[0, 0, 0]	n/a	FR1	2	R1124J
1417.565	9.698	1422990	REC_WORD	9.698	n/a	EEL	-999	12	[0, 0, 0]	n/a	FR1	2	R1124J
1427.263	4.579	1432688	REC_END	n/a	n/a	n/a	-999	12	[0, 0, 0]	n/a	FR1	2	R1124J
1431.842	0.0	1437267	COUNTDOWN_START	n/a	n/a	n/a	-999	13	[0, 0, 0]	n/a	FR1	2	R1124J
1431.842	10.428	1437267	TRIAL	n/a	n/a	n/a	-999	13	[0, 0, 0]	n/a	FR1	2	R1124J
1442.27	0.007	1447695	COUNTDOWN_END	n/a	n/a	n/a	-999	13	[0, 0, 0]	n/a	FR1	2	R1124J
1442.277	3.7	1447702	ORIENT	n/a	n/a	n/a	-999	13	[0, 0, 0]	n/a	FR1	2	R1124J
1445.977	2.518	1451402	WORD	n/a	wordpools/wordpool_EN.txt	FOX	1	13	[0, 0, 0]	n/a	FR1	2	R1124J
1448.495	2.499	1453919	WORD	n/a	wordpools/wordpool_EN.txt	RICE	2	13	[0, 0, 0]	n/a	FR1	2	R1124J
1450.994	2.434	1456418	WORD	n/a	wordpools/wordpool_EN.txt	ROPE	3	13	[0, 0, 0]	n/a	FR1	2	R1124J
1453.428	2.417	1458852	WORD	n/a	wordpools/wordpool_EN.txt	CORN	4	13	[0, 0, 0]	n/a	FR1	2	R1124J
1455.845	2.533	1461269	WORD	n/a	wordpools/wordpool_EN.txt	SKUNK	5	13	[0, 0, 0]	n/a	FR1	2	R1124J
1458.378	2.551	1463802	WORD	n/a	wordpools/wordpool_EN.txt	CROW	6	13	[0, 0, 0]	n/a	FR1	2	R1124J
1460.929	2.551	1466353	WORD	n/a	wordpools/wordpool_EN.txt	HAWK	7	13	[0, 0, 0]	n/a	FR1	2	R1124J
1463.48	2.55	1468904	WORD	n/a	wordpools/wordpool_EN.txt	FARM	8	13	[0, 0, 0]	n/a	FR1	2	R1124J
1466.03	2.435	1471454	WORD	n/a	wordpools/wordpool_EN.txt	TOY	9	13	[0, 0, 0]	n/a	FR1	2	R1124J
1468.465	2.399	1473889	WORD	n/a	wordpools/wordpool_EN.txt	CALF	10	13	[0, 0, 0]	n/a	FR1	2	R1124J
1470.864	2.517	1476288	WORD	n/a	wordpools/wordpool_EN.txt	BRUSH	11	13	[0, 0, 0]	n/a	FR1	2	R1124J
1473.381	1.617	1478805	WORD	n/a	wordpools/wordpool_EN.txt	PIE	12	13	[0, 0, 0]	n/a	FR1	2	R1124J
1474.998	0.0	1480422	DISTRACT_START	n/a	n/a	n/a	-999	13	[0, 0, 0]	n/a	FR1	2	R1124J
1474.998	0.016	1480422	START	n/a	n/a	n/a	-999	13	[-999, -999, -999]	n/a	FR1	2	R1124J
1475.014	10.802	1480438	PROB	10.802	n/a	n/a	-999	13	[5, 1, 7]	13	FR1	2	R1124J
1485.816	5.734	1491240	PROB	5.734	n/a	n/a	-999	13	[6, 4, 2]	12	FR1	2	R1124J
1491.55	9.603	1496974	PROB	9.603	n/a	n/a	-999	13	[4, 7, 9]	20	FR1	2	R1124J
1501.153	0.015	1506577	STOP	n/a	n/a	n/a	-999	13	[-999, -999, -999]	n/a	FR1	2	R1124J
1501.168	1.067	1506592	DISTRACT_END	n/a	n/a	n/a	-999	13	[0, 0, 0]	n/a	FR1	2	R1124J
1502.235	2.638	1507659	REC_START	n/a	n/a	n/a	-999	13	[0, 0, 0]	n/a	FR1	2	R1124J
1504.873	2.853	1510297	REC_WORD	2.853	n/a	FOX	-999	13	[0, 0, 0]	n/a	FR1	2	R1124J
1507.726	4.797	1513150	REC_WORD	4.797	n/a	RICE	-999	13	[0, 0, 0]	n/a	FR1	2	R1124J
1512.523	4.768	1517947	REC_WORD	4.768	n/a	CROP	-999	13	[0, 0, 0]	n/a	FR1	2	R1124J
1517.291	14.958	1522715	REC_WORD	14.958	n/a	CORN	-999	13	[0, 0, 0]	n/a	FR1	2	R1124J
1532.249	2.907	1537672	REC_END	n/a	n/a	n/a	-999	13	[0, 0, 0]	n/a	FR1	2	R1124J
1535.156	0.0	1540579	TRIAL	n/a	n/a	n/a	-999	14	[0, 0, 0]	n/a	FR1	2	R1124J
1535.156	10.428	1540579	COUNTDOWN_START	n/a	n/a	n/a	-999	14	[0, 0, 0]	n/a	FR1	2	R1124J
1545.584	0.007	1551007	COUNTDOWN_END	n/a	n/a	n/a	-999	14	[0, 0, 0]	n/a	FR1	2	R1124J
1545.591	3.683	1551014	ORIENT	n/a	n/a	n/a	-999	14	[0, 0, 0]	n/a	FR1	2	R1124J
1549.274	2.467	1554697	WORD	n/a	wordpools/wordpool_EN.txt	DUCK	1	14	[0, 0, 0]	n/a	FR1	2	R1124J
1551.741	2.517	1557164	WORD	n/a	wordpools/wordpool_EN.txt	DEER	2	14	[0, 0, 0]	n/a	FR1	2	R1124J
1554.258	2.55	1559681	WORD	n/a	wordpools/wordpool_EN.txt	KITE	3	14	[0, 0, 0]	n/a	FR1	2	R1124J
1556.808	2.501	1562231	WORD	n/a	wordpools/wordpool_EN.txt	SWAMP	4	14	[0, 0, 0]	n/a	FR1	2	R1124J
1559.309	2.417	1564732	WORD	n/a	wordpools/wordpool_EN.txt	HILL	5	14	[0, 0, 0]	n/a	FR1	2	R1124J
1561.726	2.584	1567149	WORD	n/a	wordpools/wordpool_EN.txt	GRASS	6	14	[0, 0, 0]	n/a	FR1	2	R1124J
1564.31	2.4	1569733	WORD	n/a	wordpools/wordpool_EN.txt	SPEAR	7	14	[0, 0, 0]	n/a	FR1	2	R1124J
1566.71	2.55	1572133	WORD	n/a	wordpools/wordpool_EN.txt	SPRING	8	14	[0, 0, 0]	n/a	FR1	2	R1124J
1569.26	2.634	1574683	WORD	n/a	wordpools/wordpool_EN.txt	POND	9	14	[0, 0, 0]	n/a	FR1	2	R1124J
1571.894	2.618	1577317	WORD	n/a	wordpools/wordpool_EN.txt	VINE	10	14	[0, 0, 0]	n/a	FR1	2	R1124J
1574.512	2.533	1579935	WORD	n/a	wordpools/wordpool_EN.txt	TAIL	11	14	[0, 0, 0]	n/a	FR1	2	R1124J
1577.045	1.616	1582468	WORD	n/a	wordpools/wordpool_EN.txt	FOOT	12	14	[0, 0, 0]	n/a	FR1	2	R1124J
1578.661	0.001	1584084	DISTRACT_START	n/a	n/a	n/a	-999	14	[0, 0, 0]	n/a	FR1	2	R1124J
1578.662	0.016	1584085	START	n/a	n/a	n/a	-999	14	[-999, -999, -999]	n/a	FR1	2	R1124J
1578.678	11.969	1584101	PROB	11.969	n/a	n/a	-999	14	[4, 9, 2]	15	FR1	2	R1124J
1590.647	18.238	1596070	PROB	18.238	n/a	n/a	-999	14	[8, 9, 8]	25	FR1	2	R1124J
1608.885	0.014	1614307	STOP	n/a	n/a	n/a	-999	14	[-999, -999, -999]	n/a	FR1	2	R1124J
1608.899	1.101	1614321	DISTRACT_END	n/a	n/a	n/a	-999	14	[0, 0, 0]	n/a	FR1	2	R1124J
1610.0	5.946	1615422	REC_START	n/a	n/a	n/a	-999	14	[0, 0, 0]	n/a	FR1	2	R1124J
1615.946	4.85	1621368	REC_WORD	4.85	n/a	DUCK	-999	14	[0, 0, 0]	n/a	FR1	2	R1124J
1620.796	11.476	1626218	REC_WORD	11.476	n/a	DEER	-999	14	[0, 0, 0]	n/a	FR1	2	R1124J
1632.272	2.877	1637694	REC_WORD	2.877	n/a	KITE	-999	14	[0, 0, 0]	n/a	FR1	2	R1124J
1635.149	4.861	1640571	REC_WORD	4.861	n/a	SWAMP	-999	14	[0, 0, 0]	n/a	FR1	2	R1124J
1640.01	4.177	1645432	REC_END	n/a	n/a	n/a	-999	14	[0, 0, 0]	n/a	FR1	2	R1124J
1644.187	0.0	1649609	TRIAL	n/a	n/a	n/a	-999	15	[0, 0, 0]	n/a	FR1	2	R1124J
1644.187	10.428	1649609	COUNTDOWN_START	n/a	n/a	n/a	-999	15	[0, 0, 0]	n/a	FR1	2	R1124J
1654.615	0.008	1660037	COUNTDOWN_END	n/a	n/a	n/a	-999	15	[0, 0, 0]	n/a	FR1	2	R1124J
1654.623	3.666	1660045	ORIENT	n/a	n/a	n/a	-999	15	[0, 0, 0]	n/a	FR1	2	R1124J
1658.289	2.601	1663711	WORD	n/a	wordpools/wordpool_EN.txt	GEESE	1	15	[0, 0, 0]	n/a	FR1	2	R1124J
1660.89	2.383	1666312	WORD	n/a	wordpools/wordpool_EN.txt	FLOOR	2	15	[0, 0, 0]	n/a	FR1	2	R1124J
1663.273	2.4	1668695	WORD	n/a	wordpools/wordpool_EN.txt	POOL	3	15	[0, 0, 0]	n/a	FR1	2	R1124J
1665.673	2.584	1671095	WORD	n/a	wordpools/wordpool_EN.txt	STOOL	4	15	[0, 0, 0]	n/a	FR1	2	R1124J
1668.257	2.484	1673679	WORD	n/a	wordpools/wordpool_EN.txt	GATE	5	15	[0, 0, 0]	n/a	FR1	2	R1124J
1670.741	2.434	1676163	WORD	n/a	wordpools/wordpool_EN.txt	DART	6	15	[0, 0, 0]	n/a	FR1	2	R1124J
1673.175	2.566	1678597	WORD	n/a	wordpools/wordpool_EN.txt	OAK	7	15	[0, 0, 0]	n/a	FR1	2	R1124J
1675.741	2.417	1681163	WORD	n/a	wordpools/wordpool_EN.txt	PALM	8	15	[0, 0, 0]	n/a	FR1	2	R1124J
1678.158	2.484	1683579	WORD	n/a	wordpools/wordpool_EN.txt	CUP	9	15	[0, 0, 0]	n/a	FR1	2	R1124J
1680.642	2.534	1686063	WORD	n/a	wordpools/wordpool_EN.txt	HAND	10	15	[0, 0, 0]	n/a	FR1	2	R1124J
1683.176	2.617	1688597	WORD	n/a	wordpools/wordpool_EN.txt	PEACH	11	15	[0, 0, 0]	n/a	FR1	2	R1124J
1685.793	1.617	1691214	WORD	n/a	wordpools/wordpool_EN.txt	LAMB	12	15	[0, 0, 0]	n/a	FR1	2	R1124J
1687.41	0.0	1692831	DISTRACT_START	n/a	n/a	n/a	-999	15	[0, 0, 0]	n/a	FR1	2	R1124J
1687.41	0.016	1692831	START	n/a	n/a	n/a	-999	15	[-999, -999, -999]	n/a	FR1	2	R1124J
1687.426	5.651	1692847	PROB	5.651	n/a	n/a	-999	15	[1, 6, 4]	11	FR1	2	R1124J
1693.077	18.253	1698498	PROB	18.253	n/a	n/a	-999	15	[9, 7, 4]	20	FR1	2	R1124J
1711.33	0.017	1716751	STOP	n/a	n/a	n/a	-999	15	[-999, -999, -999]	n/a	FR1	2	R1124J
1711.347	1.168	1716768	DISTRACT_END	n/a	n/a	n/a	-999	15	[0, 0, 0]	n/a	FR1	2	R1124J
1712.515	7.061	1717936	REC_START	n/a	n/a	n/a	-999	15	[0, 0, 0]	n/a	FR1	2	R1124J
1719.576	2.705	1724997	REC_WORD	2.705	n/a	GEESE	-999	15	[0, 0, 0]	n/a	FR1	2	R1124J
1722.281	4.596	1727702	REC_WORD	4.596	n/a	FLOOR	-999	15	[0, 0, 0]	n/a	FR1	2	R1124J
1726.877	1.852	1732298	REC_WORD	1.852	n/a	POOL	-999	15	[0, 0, 0]	n/a	FR1	2	R1124J
1728.729	2.761	1734150	REC_WORD	2.761	n/a	STOOL	-999	15	[0, 0, 0]	n/a	FR1	2	R1124J
1731.49	11.034	1736911	REC_WORD	11.034	n/a	GATE	-999	15	[0, 0, 0]	n/a	FR1	2	R1124J
1742.524	3.227	1747945	REC_END	n/a	n/a	n/a	-999	15	[0, 0, 0]	n/a	FR1	2	R1124J
1745.751	0.0	1751172	TRIAL	n/a	n/a	n/a	-999	16	[0, 0, 0]	n/a	FR1	2	R1124J
1745.751	10.428	1751172	COUNTDOWN_START	n/a	n/a	n/a	-999	16	[0, 0, 0]	n/a	FR1	2	R1124J
1756.179	0.007	1761599	COUNTDOWN_END	n/a	n/a	n/a	-999	16	[0, 0, 0]	n/a	FR1	2	R1124J
1756.186	3.833	1761606	ORIENT	n/a	n/a	n/a	-999	16	[0, 0, 0]	n/a	FR1	2	R1124J
1760.019	2.519	1765439	WORD	n/a	wordpools/wordpool_EN.txt	HORSE	1	16	[0, 0, 0]	n/a	FR1	2	R1124J
1762.538	2.532	1767958	WORD	n/a	wordpools/wordpool_EN.txt	MUG	2	16	[0, 0, 0]	n/a	FR1	2	R1124J
1765.07	2.634	1770490	WORD	n/a	wordpools/wordpool_EN.txt	JAIL	3	16	[0, 0, 0]	n/a	FR1	2	R1124J
1767.704	2.484	1773124	WORD	n/a	wordpools/wordpool_EN.txt	PIG	4	16	[0, 0, 0]	n/a	FR1	2	R1124J
1770.188	2.484	1775608	WORD	n/a	wordpools/wordpool_EN.txt	CLOWN	5	16	[0, 0, 0]	n/a	FR1	2	R1124J
1772.672	2.4	1778092	WORD	n/a	wordpools/wordpool_EN.txt	BADGE	6	16	[0, 0, 0]	n/a	FR1	2	R1124J
1775.072	2.384	1780492	WORD	n/a	wordpools/wordpool_EN.txt	EAR	7	16	[0, 0, 0]	n/a	FR1	2	R1124J
1777.456	2.483	1782876	WORD	n/a	wordpools/wordpool_EN.txt	BOOK	8	16	[0, 0, 0]	n/a	FR1	2	R1124J
1779.939	2.384	1785359	WORD	n/a	wordpools/wordpool_EN.txt	CHIEF	9	16	[0, 0, 0]	n/a	FR1	2	R1124J
1782.323	2.417	1787743	WORD	n/a	wordpools/wordpool_EN.txt	WEED	10	16	[0, 0, 0]	n/a	FR1	2	R1124J
1784.74	2.6	1790160	WORD	n/a	wordpools/wordpool_EN.txt	JUDGE	11	16	[0, 0, 0]	n/a	FR1	2	R1124J
1787.34	1.617	1792760	WORD	n/a	wordpools/wordpool_EN.txt	PURSE	12	16	[0, 0, 0]	n/a	FR1	2	R1124J
1788.957	0.001	1794377	DISTRACT_START	n/a	n/a	n/a	-999	16	[0, 0, 0]	n/a	FR1	2	R1124J
1788.958	0.015	1794378	START	n/a	n/a	n/a	-999	16	[-999, -999, -999]	n/a	FR1	2	R1124J
1788.973	6.335	1794393	PROB	6.335	n/a	n/a	-999	16	[4, 7, 1]	12	FR1	2	R1124J
1795.308	5.95	1800728	PROB	5.95	n/a	n/a	-999	16	[1, 3, 8]	12	FR1	2	R1124J
1801.258	6.068	1806678	PROB	6.068	n/a	n/a	-999	16	[8, 6, 4]	18	FR1	2	R1124J
1807.326	8.848	1812746	PROB	8.848	n/a	n/a	-999	16	[2, 4, 2]	8	FR1	2	R1124J
1816.174	0.02	1821594	STOP	n/a	n/a	n/a	-999	16	[-999, -999, -999]	n/a	FR1	2	R1124J
1816.194	1.134	1821614	DISTRACT_END	n/a	n/a	n/a	-999	16	[0, 0, 0]	n/a	FR1	2	R1124J
1817.328	2.845	1822748	REC_START	n/a	n/a	n/a	-999	16	[0, 0, 0]	n/a	FR1	2	R1124J
1820.173	2.14	1825593	REC_WORD	2.14	n/a	HORSE	-999	16	[0, 0, 0]	n/a	FR1	2	R1124J
1822.313	2.372	1827733	REC_WORD	2.372	n/a	MUG	-999	16	[0, 0, 0]	n/a	FR1	2	R1124J
1824.685	2.424	1830105	REC_WORD	2.424	n/a	JAIL	-999	16	[0, 0, 0]	n/a	FR1	2	R1124J
1827.109	2.532	1832529	REC_WORD	2.532	n/a	PIG	-999	16	[0, 0, 0]	n/a	FR1	2	R1124J
1829.641	17.696	1835060	REC_WORD	17.696	n/a	WEED	-999	16	[0, 0, 0]	n/a	FR1	2	R1124J
1847.337	3.062	1852756	REC_END	n/a	n/a	n/a	-999	16	[0, 0, 0]	n/a	FR1	2	R1124J
1850.399	0.0	1855818	TRIAL	n/a	n/a	n/a	-999	17	[0, 0, 0]	n/a	FR1	2	R1124J
1850.399	10.428	1855818	COUNTDOWN_START	n/a	n/a	n/a	-999	17	[0, 0, 0]	n/a	FR1	2	R1124J
1860.827	0.006	1866246	COUNTDOWN_END	n/a	n/a	n/a	-999	17	[0, 0, 0]	n/a	FR1	2	R1124J
1860.833	3.834	1866252	ORIENT	n/a	n/a	n/a	-999	17	[0, 0, 0]	n/a	FR1	2	R1124J
1864.667	2.567	1870086	WORD	n/a	wordpools/wordpool_EN.txt	MOUTH	1	17	[0, 0, 0]	n/a	FR1	2	R1124J
1867.234	2.617	1872653	WORD	n/a	wordpools/wordpool_EN.txt	SNAIL	2	17	[0, 0, 0]	n/a	FR1	2	R1124J
1869.851	2.602	1875270	WORD	n/a	wordpools/wordpool_EN.txt	STEAK	3	17	[0, 0, 0]	n/a	FR1	2	R1124J
1872.453	2.515	1877872	WORD	n/a	wordpools/wordpool_EN.txt	BEAK	4	17	[0, 0, 0]	n/a	FR1	2	R1124J
1874.968	2.602	1880387	WORD	n/a	wordpools/wordpool_EN.txt	SEAL	5	17	[0, 0, 0]	n/a	FR1	2	R1124J
1877.57	2.632	1882989	WORD	n/a	wordpools/wordpool_EN.txt	HORN	6	17	[0, 0, 0]	n/a	FR1	2	R1124J
1880.202	2.551	1885621	WORD	n/a	wordpools/wordpool_EN.txt	SOUP	7	17	[0, 0, 0]	n/a	FR1	2	R1124J
1882.753	2.55	1888172	WORD	n/a	wordpools/wordpool_EN.txt	COW	8	17	[0, 0, 0]	n/a	FR1	2	R1124J
1885.303	2.401	1890722	WORD	n/a	wordpools/wordpool_EN.txt	LAWN	9	17	[0, 0, 0]	n/a	FR1	2	R1124J
1887.704	2.55	1893123	WORD	n/a	wordpools/wordpool_EN.txt	SMILE	10	17	[0, 0, 0]	n/a	FR1	2	R1124J
1890.254	2.434	1895673	WORD	n/a	wordpools/wordpool_EN.txt	OWL	11	17	[0, 0, 0]	n/a	FR1	2	R1124J
1892.688	1.617	1898107	WORD	n/a	wordpools/wordpool_EN.txt	SNAKE	12	17	[0, 0, 0]	n/a	FR1	2	R1124J
1894.305	0.0	1899724	DISTRACT_START	n/a	n/a	n/a	-999	17	[0, 0, 0]	n/a	FR1	2	R1124J
1894.305	0.017	1899724	START	n/a	n/a	n/a	-999	17	[-999, -999, -999]	n/a	FR1	2	R1124J
1894.322	12.417	1899741	PROB	12.417	n/a	n/a	-999	17	[8, 8, 8]	24	FR1	2	R1124J
1906.739	8.464	1912157	PROB	8.464	n/a	n/a	-999	17	[4, 9, 1]	14	FR1	2	R1124J
1915.203	0.004	1920621	STOP	n/a	n/a	n/a	-999	17	[-999, -999, -999]	n/a	FR1	2	R1124J
1915.207	1.051	1920625	DISTRACT_END	n/a	n/a	n/a	-999	17	[0, 0, 0]	n/a	FR1	2	R1124J
1916.258	6.055	1921676	REC_START	n/a	n/a	n/a	-999	17	[0, 0, 0]	n/a	FR1	2	R1124J
1922.313	1.766	1927731	REC_WORD	1.766	n/a	MOUTH	-999	17	[0, 0, 0]	n/a	FR1	2	R1124J
1924.079	4.908	1929497	REC_WORD	4.908	n/a	SNAKE	-999	17	[0, 0, 0]	n/a	FR1	2	R1124J
1928.987	6.236	1934405	REC_WORD	6.236	n/a	SNAIL	-999	17	[0, 0, 0]	n/a	FR1	2	R1124J
1935.223	6.58	1940641	REC_WORD	6.58	n/a	SOUP	-999	17	[0, 0, 0]	n/a	FR1	2	R1124J
1941.803	4.464	1947221	REC_WORD	4.464	n/a	HORSE	-999	17	[0, 0, 0]	n/a	FR1	2	R1124J
1946.267	2.628	1951685	REC_END	n/a	n/a	n/a	-999	17	[0, 0, 0]	n/a	FR1	2	R1124J
1948.895	0.0	1954313	TRIAL	n/a	n/a	n/a	-999	18	[0, 0, 0]	n/a	FR1	2	R1124J
1948.895	10.428	1954313	COUNTDOWN_START	n/a	n/a	n/a	-999	18	[0, 0, 0]	n/a	FR1	2	R1124J
1959.323	0.007	1964741	COUNTDOWN_END	n/a	n/a	n/a	-999	18	[0, 0, 0]	n/a	FR1	2	R1124J
1959.33	3.517	1964748	ORIENT	n/a	n/a	n/a	-999	18	[0, 0, 0]	n/a	FR1	2	R1124J
1962.847	2.383	1968265	WORD	n/a	wordpools/wordpool_EN.txt	SPARK	1	18	[0, 0, 0]	n/a	FR1	2	R1124J
1965.23	2.617	1970648	WORD	n/a	wordpools/wordpool_EN.txt	ELF	2	18	[0, 0, 0]	n/a	FR1	2	R1124J
1967.847	2.467	1973265	WORD	n/a	wordpools/wordpool_EN.txt	PARK	3	18	[0, 0, 0]	n/a	FR1	2	R1124J
1970.314	2.517	1975732	WORD	n/a	wordpools/wordpool_EN.txt	COUCH	4	18	[0, 0, 0]	n/a	FR1	2	R1124J
1972.831	2.584	1978249	WORD	n/a	wordpools/wordpool_EN.txt	CAGE	5	18	[0, 0, 0]	n/a	FR1	2	R1124J
1975.415	2.484	1980833	WORD	n/a	wordpools/wordpool_EN.txt	BATH	6	18	[0, 0, 0]	n/a	FR1	2	R1124J
1977.899	2.416	1983317	WORD	n/a	wordpools/wordpool_EN.txt	ROOM	7	18	[0, 0, 0]	n/a	FR1	2	R1124J
1980.315	2.568	1985733	WORD	n/a	wordpools/wordpool_EN.txt	FAN	8	18	[0, 0, 0]	n/a	FR1	2	R1124J
1982.883	2.551	1988300	WORD	n/a	wordpools/wordpool_EN.txt	VASE	9	18	[0, 0, 0]	n/a	FR1	2	R1124J
1985.434	2.616	1990851	WORD	n/a	wordpools/wordpool_EN.txt	CLOCK	10	18	[0, 0, 0]	n/a	FR1	2	R1124J
1988.05	2.385	1993467	WORD	n/a	wordpools/wordpool_EN.txt	TOAST	11	18	[0, 0, 0]	n/a	FR1	2	R1124J
1990.435	1.616	1995852	WORD	n/a	wordpools/wordpool_EN.txt	STOVE	12	18	[0, 0, 0]	n/a	FR1	2	R1124J
1992.051	0.0	1997468	DISTRACT_START	n/a	n/a	n/a	-999	18	[0, 0, 0]	n/a	FR1	2	R1124J
1992.051	0.016	1997468	START	n/a	n/a	n/a	-999	18	[-999, -999, -999]	n/a	FR1	2	R1124J
1992.067	8.818	1997484	PROB	8.818	n/a	n/a	-999	18	[2, 3, 4]	9	FR1	2	R1124J
2000.885	4.284	2006302	PROB	4.284	n/a	n/a	-999	18	[5, 2, 5]	12	FR1	2	R1124J
2005.169	6.034	2010586	PROB	6.034	n/a	n/a	-999	18	[3, 5, 7]	15	FR1	2	R1124J
2011.203	5.564	2016620	PROB	5.564	n/a	n/a	-999	18	[8, 7, 4]	19	FR1	2	R1124J
2016.767	0.003	2022184	STOP	n/a	n/a	n/a	-999	18	[-999, -999, -999]	n/a	FR1	2	R1124J
2016.77	1.185	2022187	DISTRACT_END	n/a	n/a	n/a	-999	18	[0, 0, 0]	n/a	FR1	2	R1124J
2017.955	4.435	2023372	REC_START	n/a	n/a	n/a	-999	18	[0, 0, 0]	n/a	FR1	2	R1124J
2022.39	3.316	2027807	REC_WORD	3.316	n/a	SPARK	-999	18	[0, 0, 0]	n/a	FR1	2	R1124J
2025.706	4.83	2031123	REC_WORD	4.83	n/a	ELF	-999	18	[0, 0, 0]	n/a	FR1	2	R1124J
2030.536	4.281	2035953	REC_WORD	4.281	n/a	TOAST	-999	18	[0, 0, 0]	n/a	FR1	2	R1124J
2034.817	2.019	2040234	REC_WORD	2.019	n/a	VASE	-999	18	[0, 0, 0]	n/a	FR1	2	R1124J
2036.836	11.129	2042253	REC_WORD	11.129	n/a	PAGE	-999	18	[0, 0, 0]	n/a	FR1	2	R1124J
2047.965	3.01	2053382	REC_END	n/a	n/a	n/a	-999	18	[0, 0, 0]	n/a	FR1	2	R1124J
2050.975	0.0	2056392	TRIAL	n/a	n/a	n/a	-999	19	[0, 0, 0]	n/a	FR1	2	R1124J
2050.975	10.428	2056392	COUNTDOWN_START	n/a	n/a	n/a	-999	19	[0, 0, 0]	n/a	FR1	2	R1124J
2061.403	0.007	2066819	COUNTDOWN_END	n/a	n/a	n/a	-999	19	[0, 0, 0]	n/a	FR1	2	R1124J
2061.41	3.667	2066826	ORIENT	n/a	n/a	n/a	-999	19	[0, 0, 0]	n/a	FR1	2	R1124J
2065.077	2.567	2070493	WORD	n/a	wordpools/wordpool_EN.txt	RAIN	1	19	[0, 0, 0]	n/a	FR1	2	R1124J
2067.644	2.434	2073060	WORD	n/a	wordpools/wordpool_EN.txt	MAP	2	19	[0, 0, 0]	n/a	FR1	2	R1124J
2070.078	2.535	2075494	WORD	n/a	wordpools/wordpool_EN.txt	STORM	3	19	[0, 0, 0]	n/a	FR1	2	R1124J
2072.613	2.399	2078029	WORD	n/a	wordpools/wordpool_EN.txt	BLOOM	4	19	[0, 0, 0]	n/a	FR1	2	R1124J
2075.012	2.601	2080428	WORD	n/a	wordpools/wordpool_EN.txt	FLAG	5	19	[0, 0, 0]	n/a	FR1	2	R1124J
2077.613	2.466	2083029	WORD	n/a	wordpools/wordpool_EN.txt	FUDGE	6	19	[0, 0, 0]	n/a	FR1	2	R1124J
2080.079	2.567	2085495	WORD	n/a	wordpools/wordpool_EN.txt	SHIELD	7	19	[0, 0, 0]	n/a	FR1	2	R1124J
2082.646	2.584	2088062	WORD	n/a	wordpools/wordpool_EN.txt	LAND	8	19	[0, 0, 0]	n/a	FR1	2	R1124J
2085.23	2.45	2090646	WORD	n/a	wordpools/wordpool_EN.txt	BEACH	9	19	[0, 0, 0]	n/a	FR1	2	R1124J
2087.68	2.451	2093096	WORD	n/a	wordpools/wordpool_EN.txt	KEY	10	19	[0, 0, 0]	n/a	FR1	2	R1124J
2090.131	2.435	2095547	WORD	n/a	wordpools/wordpool_EN.txt	SEA	11	19	[0, 0, 0]	n/a	FR1	2	R1124J
2092.566	1.615	2097982	WORD	n/a	wordpools/wordpool_EN.txt	SHEEP	12	19	[0, 0, 0]	n/a	FR1	2	R1124J
2094.181	0.001	2099597	DISTRACT_START	n/a	n/a	n/a	-999	19	[0, 0, 0]	n/a	FR1	2	R1124J
2094.182	0.016	2099598	START	n/a	n/a	n/a	-999	19	[-999, -999, -999]	n/a	FR1	2	R1124J
2094.198	8.901	2099614	PROB	8.901	n/a	n/a	-999	19	[8, 9, 1]	18	FR1	2	R1124J
2103.099	8.051	2108515	PROB	8.051	n/a	n/a	-999	19	[7, 1, 4]	12	FR1	2	R1124J
2111.15	4.973	2116566	PROB	4.973	n/a	n/a	-999	19	[7, 6, 3]	16	FR1	2	R1124J
2116.123	0.011	2121539	STOP	n/a	n/a	n/a	-999	19	[-999, -999, -999]	n/a	FR1	2	R1124J
2116.134	1.118	2121550	DISTRACT_END	n/a	n/a	n/a	-999	19	[0, 0, 0]	n/a	FR1	2	R1124J
2117.252	3.709	2122668	REC_START	n/a	n/a	n/a	-999	19	[0, 0, 0]	n/a	FR1	2	R1124J
2120.961	2.152	2126377	REC_WORD	2.152	n/a	RAIN	-999	19	[0, 0, 0]	n/a	FR1	2	R1124J
2123.113	2.585	2128529	REC_WORD	2.585	n/a	MAP	-999	19	[0, 0, 0]	n/a	FR1	2	R1124J
2125.698	2.715	2131114	REC_WORD	2.715	n/a	STORM	-999	19	[0, 0, 0]	n/a	FR1	2	R1124J
2128.413	2.42	2133829	REC_WORD	2.42	n/a	BLOOM	-999	19	[0, 0, 0]	n/a	FR1	2	R1124J
2130.833	16.428	2136249	REC_WORD	16.428	n/a	FLAG	-999	19	[0, 0, 0]	n/a	FR1	2	R1124J
2147.261	3.478	2152676	REC_END	n/a	n/a	n/a	-999	19	[0, 0, 0]	n/a	FR1	2	R1124J
2150.739	0.0	2156154	TRIAL	n/a	n/a	n/a	-999	20	[0, 0, 0]	n/a	FR1	2	R1124J
2150.739	10.428	2156154	COUNTDOWN_START	n/a	n/a	n/a	-999	20	[0, 0, 0]	n/a	FR1	2	R1124J
2161.167	0.007	2166582	COUNTDOWN_END	n/a	n/a	n/a	-999	20	[0, 0, 0]	n/a	FR1	2	R1124J
2161.174	3.434	2166589	ORIENT	n/a	n/a	n/a	-999	20	[0, 0, 0]	n/a	FR1	2	R1124J
2164.608	2.466	2170023	WORD	n/a	wordpools/wordpool_EN.txt	JEEP	1	20	[0, 0, 0]	n/a	FR1	2	R1124J
2167.074	2.567	2172489	WORD	n/a	wordpools/wordpool_EN.txt	SIGN	2	20	[0, 0, 0]	n/a	FR1	2	R1124J
2169.641	2.501	2175056	WORD	n/a	wordpools/wordpool_EN.txt	ROAD	3	20	[0, 0, 0]	n/a	FR1	2	R1124J
2172.142	2.6	2177557	WORD	n/a	wordpools/wordpool_EN.txt	SKY	4	20	[0, 0, 0]	n/a	FR1	2	R1124J
2174.742	2.467	2180157	WORD	n/a	wordpools/wordpool_EN.txt	CHEEK	5	20	[0, 0, 0]	n/a	FR1	2	R1124J
2177.209	2.517	2182624	WORD	n/a	wordpools/wordpool_EN.txt	TENT	6	20	[0, 0, 0]	n/a	FR1	2	R1124J
2179.726	2.517	2185141	WORD	n/a	wordpools/wordpool_EN.txt	SNOW	7	20	[0, 0, 0]	n/a	FR1	2	R1124J
2182.243	2.385	2187658	WORD	n/a	wordpools/wordpool_EN.txt	ROCK	8	20	[0, 0, 0]	n/a	FR1	2	R1124J
2184.628	2.433	2190043	WORD	n/a	wordpools/wordpool_EN.txt	APE	9	20	[0, 0, 0]	n/a	FR1	2	R1124J
2187.061	2.583	2192476	WORD	n/a	wordpools/wordpool_EN.txt	CLOUD	10	20	[0, 0, 0]	n/a	FR1	2	R1124J
2189.644	2.467	2195059	WORD	n/a	wordpools/wordpool_EN.txt	CLIFF	11	20	[0, 0, 0]	n/a	FR1	2	R1124J
2192.111	1.617	2197526	WORD	n/a	wordpools/wordpool_EN.txt	MOON	12	20	[0, 0, 0]	n/a	FR1	2	R1124J
2193.728	0.001	2199143	DISTRACT_START	n/a	n/a	n/a	-999	20	[0, 0, 0]	n/a	FR1	2	R1124J
2193.729	0.016	2199144	START	n/a	n/a	n/a	-999	20	[-999, -999, -999]	n/a	FR1	2	R1124J
2193.745	9.118	2199160	PROB	9.118	n/a	n/a	-999	20	[1, 3, 6]	10	FR1	2	R1124J
2202.863	6.301	2208278	PROB	6.301	n/a	n/a	-999	20	[9, 5, 3]	17	FR1	2	R1124J
2209.164	4.567	2214578	PROB	4.567	n/a	n/a	-999	20	[4, 4, 3]	11	FR1	2	R1124J
2213.731	11.349	2219145	PROB	11.349	n/a	n/a	-999	20	[4, 9, 4]	17	FR1	2	R1124J
2225.08	0.018	2230494	STOP	n/a	n/a	n/a	-999	20	[-999, -999, -999]	n/a	FR1	2	R1124J
2225.098	1.135	2230512	DISTRACT_END	n/a	n/a	n/a	-999	20	[0, 0, 0]	n/a	FR1	2	R1124J
2226.233	3.325	2231647	REC_START	n/a	n/a	n/a	-999	20	[0, 0, 0]	n/a	FR1	2	R1124J
2229.558	2.813	2234972	REC_WORD	2.813	n/a	JEEP	-999	20	[0, 0, 0]	n/a	FR1	2	R1124J
2232.371	4.125	2237785	REC_WORD	4.125	n/a	SIGN	-999	20	[0, 0, 0]	n/a	FR1	2	R1124J
2236.496	2.243	2241910	REC_WORD	2.243	n/a	ROAD	-999	20	[0, 0, 0]	n/a	FR1	2	R1124J
2238.739	2.54	2244153	REC_WORD	2.54	n/a	SKY	-999	20	[0, 0, 0]	n/a	FR1	2	R1124J
2241.279	14.964	2246693	REC_WORD	14.964	n/a	CHEEK	-999	20	[0, 0, 0]	n/a	FR1	2	R1124J
2256.243	2.86	2261657	REC_END	n/a	n/a	n/a	-999	20	[0, 0, 0]	n/a	FR1	2	R1124J
2259.103	0.0	2264517	TRIAL	n/a	n/a	n/a	-999	21	[0, 0, 0]	n/a	FR1	2	R1124J
2259.103	10.428	2264517	COUNTDOWN_START	n/a	n/a	n/a	-999	21	[0, 0, 0]	n/a	FR1	2	R1124J
2269.531	0.008	2274945	COUNTDOWN_END	n/a	n/a	n/a	-999	21	[0, 0, 0]	n/a	FR1	2	R1124J
2269.539	3.683	2274953	ORIENT	n/a	n/a	n/a	-999	21	[0, 0, 0]	n/a	FR1	2	R1124J
2273.222	2.517	2278636	WORD	n/a	wordpools/wordpool_EN.txt	BENCH	1	21	[0, 0, 0]	n/a	FR1	2	R1124J
2275.739	2.533	2281153	WORD	n/a	wordpools/wordpool_EN.txt	SLEEVE	2	21	[0, 0, 0]	n/a	FR1	2	R1124J
2278.272	2.484	2283686	WORD	n/a	wordpools/wordpool_EN.txt	FLUTE	3	21	[0, 0, 0]	n/a	FR1	2	R1124J
2280.756	2.467	2286170	WORD	n/a	wordpools/wordpool_EN.txt	STICK	4	21	[0, 0, 0]	n/a	FR1	2	R1124J
2283.223	2.584	2288637	WORD	n/a	wordpools/wordpool_EN.txt	VEST	5	21	[0, 0, 0]	n/a	FR1	2	R1124J
2285.807	2.383	2291220	WORD	n/a	wordpools/wordpool_EN.txt	BED	6	21	[0, 0, 0]	n/a	FR1	2	R1124J
2288.19	2.617	2293603	WORD	n/a	wordpools/wordpool_EN.txt	SHIRT	7	21	[0, 0, 0]	n/a	FR1	2	R1124J
2290.807	2.567	2296220	WORD	n/a	wordpools/wordpool_EN.txt	CHIN	8	21	[0, 0, 0]	n/a	FR1	2	R1124J
2293.374	2.484	2298787	WORD	n/a	wordpools/wordpool_EN.txt	ROSE	9	21	[0, 0, 0]	n/a	FR1	2	R1124J
2295.858	2.484	2301271	WORD	n/a	wordpools/wordpool_EN.txt	THUMB	10	21	[0, 0, 0]	n/a	FR1	2	R1124J
2298.342	2.483	2303755	WORD	n/a	wordpools/wordpool_EN.txt	LEG	11	21	[0, 0, 0]	n/a	FR1	2	R1124J
2300.825	1.618	2306238	WORD	n/a	wordpools/wordpool_EN.txt	CANE	12	21	[0, 0, 0]	n/a	FR1	2	R1124J
2302.443	0.001	2307856	DISTRACT_START	n/a	n/a	n/a	-999	21	[0, 0, 0]	n/a	FR1	2	R1124J
2302.444	0.016	2307857	START	n/a	n/a	n/a	-999	21	[-999, -999, -999]	n/a	FR1	2	R1124J
2302.46	9.283	2307873	PROB	9.283	n/a	n/a	-999	21	[1, 4, 5]	10	FR1	2	R1124J
2311.743	5.819	2317156	PROB	5.819	n/a	n/a	-999	21	[4, 3, 1]	8	FR1	2	R1124J
2317.562	10.978	2322975	PROB	10.978	n/a	n/a	-999	21	[7, 9, 3]	19	FR1	2	R1124J
2328.54	0.007	2333953	STOP	n/a	n/a	n/a	-999	21	[-999, -999, -999]	n/a	FR1	2	R1124J
2328.547	1.199	2333960	DISTRACT_END	n/a	n/a	n/a	-999	21	[0, 0, 0]	n/a	FR1	2	R1124J
2329.746	4.535	2335159	REC_START	n/a	n/a	n/a	-999	21	[0, 0, 0]	n/a	FR1	2	R1124J
2334.281	4.919	2339694	REC_WORD	4.919	n/a	BENCH	-999	21	[0, 0, 0]	n/a	FR1	2	R1124J
2339.2	3.764	2344613	REC_WORD	3.764	n/a	SHEET	-999	21	[0, 0, 0]	n/a	FR1	2	R1124J
2342.964	5.388	2348377	REC_WORD	5.388	n/a	FLUTE	-999	21	[0, 0, 0]	n/a	FR1	2	R1124J
2348.352	5.364	2353765	REC_WORD	5.364	n/a	VEST	-999	21	[0, 0, 0]	n/a	FR1	2	R1124J
2353.716	6.043	2359129	REC_WORD	6.043	n/a	STOOL	-999	21	[0, 0, 0]	n/a	FR1	2	R1124J
2359.759	2.974	2365172	REC_END	n/a	n/a	n/a	-999	21	[0, 0, 0]	n/a	FR1	2	R1124J
2362.733	0.0	2368145	TRIAL	n/a	n/a	n/a	-999	22	[0, 0, 0]	n/a	FR1	2	R1124J
2362.733	10.428	2368145	COUNTDOWN_START	n/a	n/a	n/a	-999	22	[0, 0, 0]	n/a	FR1	2	R1124J
2373.161	0.008	2378573	COUNTDOWN_END	n/a	n/a	n/a	-999	22	[0, 0, 0]	n/a	FR1	2	R1124J
2373.169	3.766	2378581	ORIENT	n/a	n/a	n/a	-999	22	[0, 0, 0]	n/a	FR1	2	R1124J
2376.935	2.417	2382347	WORD	n/a	wordpools/wordpool_EN.txt	GOAT	1	22	[0, 0, 0]	n/a	FR1	2	R1124J
2379.352	2.618	2384764	WORD	n/a	wordpools/wordpool_EN.txt	CAR	2	22	[0, 0, 0]	n/a	FR1	2	R1124J
2381.97	2.484	2387382	WORD	n/a	wordpools/wordpool_EN.txt	PANTS	3	22	[0, 0, 0]	n/a	FR1	2	R1124J
2384.454	2.399	2389866	WORD	n/a	wordpools/wordpool_EN.txt	SOCK	4	22	[0, 0, 0]	n/a	FR1	2	R1124J
2386.853	2.451	2392265	WORD	n/a	wordpools/wordpool_EN.txt	MAT	5	22	[0, 0, 0]	n/a	FR1	2	R1124J
2389.304	2.534	2394716	WORD	n/a	wordpools/wordpool_EN.txt	WORLD	6	22	[0, 0, 0]	n/a	FR1	2	R1124J
2391.838	2.533	2397250	WORD	n/a	wordpools/wordpool_EN.txt	SUIT	7	22	[0, 0, 0]	n/a	FR1	2	R1124J
2394.371	2.5	2399783	WORD	n/a	wordpools/wordpool_EN.txt	DITCH	8	22	[0, 0, 0]	n/a	FR1	2	R1124J
2396.871	2.451	2402283	WORD	n/a	wordpools/wordpool_EN.txt	DRESS	9	22	[0, 0, 0]	n/a	FR1	2	R1124J
2399.322	2.467	2404734	WORD	n/a	wordpools/wordpool_EN.txt	VAN	10	22	[0, 0, 0]	n/a	FR1	2	R1124J
2401.789	2.384	2407201	WORD	n/a	wordpools/wordpool_EN.txt	STREET	11	22	[0, 0, 0]	n/a	FR1	2	R1124J
2404.173	1.616	2409585	WORD	n/a	wordpools/wordpool_EN.txt	DIME	12	22	[0, 0, 0]	n/a	FR1	2	R1124J
2405.789	0.001	2411201	DISTRACT_START	n/a	n/a	n/a	-999	22	[0, 0, 0]	n/a	FR1	2	R1124J
2405.79	0.016	2411202	START	n/a	n/a	n/a	-999	22	[-999, -999, -999]	n/a	FR1	2	R1124J
2405.806	9.051	2411218	PROB	9.051	n/a	n/a	-999	22	[5, 1, 3]	9	FR1	2	R1124J
2414.857	9.868	2420269	PROB	9.868	n/a	n/a	-999	22	[5, 3, 8]	16	FR1	2	R1124J
2424.725	6.227	2430137	PROB	6.227	n/a	n/a	-999	22	[5, 1, 3]	9	FR1	2	R1124J
2430.952	0.008	2436364	STOP	n/a	n/a	n/a	-999	22	[-999, -999, -999]	n/a	FR1	2	R1124J
2430.96	1.134	2436372	DISTRACT_END	n/a	n/a	n/a	-999	22	[0, 0, 0]	n/a	FR1	2	R1124J
2432.094	5.379	2437506	REC_START	n/a	n/a	n/a	-999	22	[0, 0, 0]	n/a	FR1	2	R1124J
2437.473	6.103	2442884	REC_WORD	6.103	n/a	GOAT	-999	22	[0, 0, 0]	n/a	FR1	2	R1124J
2443.576	3.634	2448987	REC_WORD	3.634	n/a	SOCK	-999	22	[0, 0, 0]	n/a	FR1	2	R1124J
2447.21	1.0	2452621	REC_WORD	1.0	n/a	PANTS	-999	22	[0, 0, 0]	n/a	FR1	2	R1124J
2448.21	3.662	2453621	REC_WORD_VV	3.662	n/a	<>	-999	22	[0, 0, 0]	n/a	FR1	2	R1124J
2451.872	4.342	2457283	REC_WORD	4.342	n/a	MAT	-999	22	[0, 0, 0]	n/a	FR1	2	R1124J
2456.214	5.889	2461625	REC_WORD	5.889	n/a	VEST	-999	22	[0, 0, 0]	n/a	FR1	2	R1124J
2462.103	2.994	2467514	REC_END	n/a	n/a	n/a	-999	22	[0, 0, 0]	n/a	FR1	2	R1124J
2465.097	0.0	2470508	TRIAL	n/a	n/a	n/a	-999	23	[0, 0, 0]	n/a	FR1	2	R1124J
2465.097	10.428	2470508	COUNTDOWN_START	n/a	n/a	n/a	-999	23	[0, 0, 0]	n/a	FR1	2	R1124J
2475.525	0.008	2480936	COUNTDOWN_END	n/a	n/a	n/a	-999	23	[0, 0, 0]	n/a	FR1	2	R1124J
2475.533	3.934	2480944	ORIENT	n/a	n/a	n/a	-999	23	[0, 0, 0]	n/a	FR1	2	R1124J
2479.467	2.549	2484878	WORD	n/a	wordpools/wordpool_EN.txt	WHEEL	1	23	[0, 0, 0]	n/a	FR1	2	R1124J
2482.016	2.384	2487427	WORD	n/a	wordpools/wordpool_EN.txt	BOMB	2	23	[0, 0, 0]	n/a	FR1	2	R1124J
2484.4	2.467	2489811	WORD	n/a	wordpools/wordpool_EN.txt	FILM	3	23	[0, 0, 0]	n/a	FR1	2	R1124J
2486.867	2.5	2492278	WORD	n/a	wordpools/wordpool_EN.txt	CORD	4	23	[0, 0, 0]	n/a	FR1	2	R1124J
2489.367	2.501	2494778	WORD	n/a	wordpools/wordpool_EN.txt	TOOTH	5	23	[0, 0, 0]	n/a	FR1	2	R1124J
2491.868	2.484	2497279	WORD	n/a	wordpools/wordpool_EN.txt	STEAM	6	23	[0, 0, 0]	n/a	FR1	2	R1124J
2494.352	2.533	2499763	WORD	n/a	wordpools/wordpool_EN.txt	BRIDGE	7	23	[0, 0, 0]	n/a	FR1	2	R1124J
2496.885	2.484	2502296	WORD	n/a	wordpools/wordpool_EN.txt	MOLE	8	23	[0, 0, 0]	n/a	FR1	2	R1124J
2499.369	2.6	2504780	WORD	n/a	wordpools/wordpool_EN.txt	ZOO	9	23	[0, 0, 0]	n/a	FR1	2	R1124J
2501.969	2.384	2507380	WORD	n/a	wordpools/wordpool_EN.txt	TEETH	10	23	[0, 0, 0]	n/a	FR1	2	R1124J
2504.353	2.45	2509764	WORD	n/a	wordpools/wordpool_EN.txt	BALL	11	23	[0, 0, 0]	n/a	FR1	2	R1124J
2506.803	1.617	2512214	WORD	n/a	wordpools/wordpool_EN.txt	ARK	12	23	[0, 0, 0]	n/a	FR1	2	R1124J
2508.42	0.0	2513831	DISTRACT_START	n/a	n/a	n/a	-999	23	[0, 0, 0]	n/a	FR1	2	R1124J
2508.42	0.018	2513831	START	n/a	n/a	n/a	-999	23	[-999, -999, -999]	n/a	FR1	2	R1124J
2508.438	11.667	2513849	PROB	11.667	n/a	n/a	-999	23	[6, 2, 5]	13	FR1	2	R1124J
2520.105	5.734	2525515	PROB	5.734	n/a	n/a	-999	23	[5, 3, 7]	15	FR1	2	R1124J
2525.839	5.214	2531249	PROB	5.214	n/a	n/a	-999	23	[7, 6, 3]	17	FR1	2	R1124J
2531.053	0.02	2536463	STOP	n/a	n/a	n/a	-999	23	[-999, -999, -999]	n/a	FR1	2	R1124J
2531.073	1.217	2536483	DISTRACT_END	n/a	n/a	n/a	-999	23	[0, 0, 0]	n/a	FR1	2	R1124J
2532.29	4.433	2537700	REC_START	n/a	n/a	n/a	-999	23	[0, 0, 0]	n/a	FR1	2	R1124J
2536.723	3.391	2542133	REC_WORD	3.391	n/a	WHEEL	-999	23	[0, 0, 0]	n/a	FR1	2	R1124J
2540.114	4.196	2545524	REC_WORD	4.196	n/a	BOMB	-999	23	[0, 0, 0]	n/a	FR1	2	R1124J
2544.31	3.607	2549720	REC_WORD	3.607	n/a	CORD	-999	23	[0, 0, 0]	n/a	FR1	2	R1124J
2547.917	6.776	2553327	REC_WORD	6.776	n/a	TOOTH	-999	23	[0, 0, 0]	n/a	FR1	2	R1124J
2554.693	7.61	2560103	REC_WORD	7.61	n/a	STREAM	-999	23	[0, 0, 0]	n/a	FR1	2	R1124J
2562.303	3.125	2567713	REC_END	n/a	n/a	n/a	-999	23	[0, 0, 0]	n/a	FR1	2	R1124J
2565.428	0.0	2570838	TRIAL	n/a	n/a	n/a	-999	24	[0, 0, 0]	n/a	FR1	2	R1124J
2565.428	10.428	2570838	COUNTDOWN_START	n/a	n/a	n/a	-999	24	[0, 0, 0]	n/a	FR1	2	R1124J
2575.856	0.006	2581266	COUNTDOWN_END	n/a	n/a	n/a	-999	24	[0, 0, 0]	n/a	FR1	2	R1124J
2575.862	3.551	2581272	ORIENT	n/a	n/a	n/a	-999	24	[0, 0, 0]	n/a	FR1	2	R1124J
2579.413	2.484	2584823	WORD	n/a	wordpools/wordpool_EN.txt	BEE	1	24	[0, 0, 0]	n/a	FR1	2	R1124J
2581.897	2.568	2587307	WORD	n/a	wordpools/wordpool_EN.txt	HOOK	2	24	[0, 0, 0]	n/a	FR1	2	R1124J
2584.465	2.615	2589875	WORD	n/a	wordpools/wordpool_EN.txt	MUD	3	24	[0, 0, 0]	n/a	FR1	2	R1124J
2587.08	2.469	2592490	WORD	n/a	wordpools/wordpool_EN.txt	SHRIMP	4	24	[0, 0, 0]	n/a	FR1	2	R1124J
2589.549	2.549	2594958	WORD	n/a	wordpools/wordpool_EN.txt	SHARK	5	24	[0, 0, 0]	n/a	FR1	2	R1124J
2592.098	2.385	2597507	WORD	n/a	wordpools/wordpool_EN.txt	SEED	6	24	[0, 0, 0]	n/a	FR1	2	R1124J
2594.483	2.615	2599892	WORD	n/a	wordpools/wordpool_EN.txt	FRUIT	7	24	[0, 0, 0]	n/a	FR1	2	R1124J
2597.098	2.402	2602507	WORD	n/a	wordpools/wordpool_EN.txt	TRAY	8	24	[0, 0, 0]	n/a	FR1	2	R1124J
2599.5	2.382	2604909	WORD	n/a	wordpools/wordpool_EN.txt	JAR	9	24	[0, 0, 0]	n/a	FR1	2	R1124J
2601.882	2.467	2607291	WORD	n/a	wordpools/wordpool_EN.txt	GRAPE	10	24	[0, 0, 0]	n/a	FR1	2	R1124J
2604.349	2.534	2609758	WORD	n/a	wordpools/wordpool_EN.txt	TEA	11	24	[0, 0, 0]	n/a	FR1	2	R1124J
2606.883	1.601	2612292	WORD	n/a	wordpools/wordpool_EN.txt	SHELL	12	24	[0, 0, 0]	n/a	FR1	2	R1124J
2608.484	0.001	2613893	DISTRACT_START	n/a	n/a	n/a	-999	24	[0, 0, 0]	n/a	FR1	2	R1124J
2608.485	0.016	2613894	START	n/a	n/a	n/a	-999	24	[-999, -999, -999]	n/a	FR1	2	R1124J
2608.501	11.102	2613910	PROB	11.102	n/a	n/a	-999	24	[7, 9, 9]	25	FR1	2	R1124J
2619.603	6.0	2625012	PROB	6.0	n/a	n/a	-999	24	[4, 6, 7]	17	FR1	2	R1124J
2625.603	8.422	2631012	PROB	8.422	n/a	n/a	-999	24	[3, 9, 4]	16	FR1	2	R1124J
2634.025	0.012	2639434	STOP	n/a	n/a	n/a	-999	24	[-999, -999, -999]	n/a	FR1	2	R1124J
2634.037	1.034	2639446	DISTRACT_END	n/a	n/a	n/a	-999	24	[0, 0, 0]	n/a	FR1	2	R1124J
2635.071	2.981	2640480	REC_START	n/a	n/a	n/a	-999	24	[0, 0, 0]	n/a	FR1	2	R1124J
2638.052	3.142	2643461	REC_WORD	3.142	n/a	BEE	-999	24	[0, 0, 0]	n/a	FR1	2	R1124J
2641.194	3.284	2646603	REC_WORD	3.284	n/a	HOOK	-999	24	[0, 0, 0]	n/a	FR1	2	R1124J
2644.478	4.114	2649887	REC_WORD	4.114	n/a	MUD	-999	24	[0, 0, 0]	n/a	FR1	2	R1124J
2648.592	1.119	2654001	REC_WORD	1.119	n/a	SHRIMP	-999	24	[0, 0, 0]	n/a	FR1	2	R1124J
2649.711	15.369	2655120	REC_WORD	15.369	n/a	SHARK	-999	24	[0, 0, 0]	n/a	FR1	2	R1124J
2665.08	2.995	2670488	REC_END	n/a	n/a	n/a	-999	24	[0, 0, 0]	n/a	FR1	2	R1124J
2668.075	0.0	2673483	TRIAL	n/a	n/a	n/a	-999	25	[0, 0, 0]	n/a	FR1	2	R1124J
2668.075	10.428	2673483	COUNTDOWN_START	n/a	n/a	n/a	-999	25	[0, 0, 0]	n/a	FR1	2	R1124J
2678.503	0.008	2683911	COUNTDOWN_END	n/a	n/a	n/a	-999	25	[0, 0, 0]	n/a	FR1	2	R1124J
2678.511	3.766	2683919	ORIENT	n/a	n/a	n/a	-999	25	[0, 0, 0]	n/a	FR1	2	R1124J
2682.277	2.434	2687685	WORD	n/a	wordpools/wordpool_EN.txt	PLANT	1	25	[0, 0, 0]	n/a	FR1	2	R1124J
2684.711	2.483	2690119	WORD	n/a	wordpools/wordpool_EN.txt	FISH	2	25	[0, 0, 0]	n/a	FR1	2	R1124J
2687.194	2.385	2692602	WORD	n/a	wordpools/wordpool_EN.txt	MOTH	3	25	[0, 0, 0]	n/a	FR1	2	R1124J
2689.579	2.433	2694987	WORD	n/a	wordpools/wordpool_EN.txt	WHALE	4	25	[0, 0, 0]	n/a	FR1	2	R1124J
2692.012	2.518	2697420	WORD	n/a	wordpools/wordpool_EN.txt	TANK	5	25	[0, 0, 0]	n/a	FR1	2	R1124J
2694.53	2.515	2699938	WORD	n/a	wordpools/wordpool_EN.txt	BIRD	6	25	[0, 0, 0]	n/a	FR1	2	R1124J
2697.045	2.435	2702453	WORD	n/a	wordpools/wordpool_EN.txt	RAKE	7	25	[0, 0, 0]	n/a	FR1	2	R1124J
2699.48	2.4	2704888	WORD	n/a	wordpools/wordpool_EN.txt	SALT	8	25	[0, 0, 0]	n/a	FR1	2	R1124J
2701.88	2.584	2707288	WORD	n/a	wordpools/wordpool_EN.txt	SOAP	9	25	[0, 0, 0]	n/a	FR1	2	R1124J
2704.464	2.516	2709872	WORD	n/a	wordpools/wordpool_EN.txt	HEN	10	25	[0, 0, 0]	n/a	FR1	2	R1124J
2706.98	2.417	2712388	WORD	n/a	wordpools/wordpool_EN.txt	EGG	11	25	[0, 0, 0]	n/a	FR1	2	R1124J
2709.397	1.617	2714805	WORD	n/a	wordpools/wordpool_EN.txt	STEM	12	25	[0, 0, 0]	n/a	FR1	2	R1124J
2711.014	0.001	2716422	DISTRACT_START	n/a	n/a	n/a	-999	25	[0, 0, 0]	n/a	FR1	2	R1124J
2711.015	0.016	2716423	START	n/a	n/a	n/a	-999	25	[-999, -999, -999]	n/a	FR1	2	R1124J
2711.031	10.218	2716439	PROB	10.218	n/a	n/a	-999	25	[7, 4, 4]	15	FR1	2	R1124J
2721.249	7.784	2726657	PROB	7.784	n/a	n/a	-999	25	[9, 1, 5]	15	FR1	2	R1124J
2729.033	10.101	2734441	PROB	10.101	n/a	n/a	-999	25	[9, 4, 9]	22	FR1	2	R1124J
2739.134	0.017	2744542	STOP	n/a	n/a	n/a	-999	25	[-999, -999, -999]	n/a	FR1	2	R1124J
2739.151	1.184	2744559	DISTRACT_END	n/a	n/a	n/a	-999	25	[0, 0, 0]	n/a	FR1	2	R1124J
2740.335	4.226	2745743	REC_START	n/a	n/a	n/a	-999	25	[0, 0, 0]	n/a	FR1	2	R1124J
2744.561	3.026	2749968	REC_WORD	3.026	n/a	PLANT	-999	25	[0, 0, 0]	n/a	FR1	2	R1124J
2747.587	3.88	2752994	REC_WORD	3.88	n/a	FISH	-999	25	[0, 0, 0]	n/a	FR1	2	R1124J
2751.467	3.851	2756874	REC_WORD	3.851	n/a	EGG	-999	25	[0, 0, 0]	n/a	FR1	2	R1124J
2755.318	2.257	2760725	REC_WORD	2.257	n/a	WHALE	-999	25	[0, 0, 0]	n/a	FR1	2	R1124J
2757.575	12.77	2762982	REC_WORD	12.77	n/a	TANK	-999	25	[0, 0, 0]	n/a	FR1	2	R1124J
2770.345	16.029	2775752	REC_END	n/a	n/a	n/a	-999	25	[0, 0, 0]	n/a	FR1	2	R1124J
2786.374	0.0	2791781	SESS_END	n/a	n/a	n/a	-999	25	[0, 0, 0]	n/a	FR1	2	R1124J
