onset	duration	sample	trial_type	response_time	stim_file	item_name	serialpos	list	test	answer	experiment	session	subject
0.0	0.0	40010	INSTRUCT_START	n/a	n/a	n/a	-999	-999	[0, 0, 0]	n/a	FR1	1	R1195E
0.0	11.209	40010	INSTRUCT_END	n/a	n/a	n/a	-999	-999	[0, 0, 0]	n/a	FR1	1	R1195E
11.209	0.0	51219	SESS_START	n/a	n/a	n/a	-999	-999	[0, 0, 0]	n/a	FR1	1	R1195E
11.209	56.501	51219	MIC_TEST	n/a	n/a	n/a	-999	-999	[0, 0, 0]	n/a	FR1	1	R1195E
67.71	7.985	107717	PRACTICE_TRIAL	n/a	n/a	n/a	-999	-1	[0, 0, 0]	n/a	FR1	1	R1195E
75.695	10.428	115702	COUNTDOWN_START	n/a	n/a	n/a	-999	-1	[0, 0, 0]	n/a	FR1	1	R1195E
86.123	0.007	126130	COUNTDOWN_END	n/a	n/a	n/a	-999	-1	[0, 0, 0]	n/a	FR1	1	R1195E
86.13	1.618	126137	PRACTICE_ORIENT	n/a	n/a	n/a	-999	-1	[0, 0, 0]	n/a	FR1	1	R1195E
87.748	2.267	127755	PRACTICE_ORIENT_OFF	n/a	n/a	n/a	-999	-1	[0, 0, 0]	n/a	FR1	1	R1195E
90.015	1.617	130022	PRACTICE_WORD	n/a	n/a	TONGUE	1	-1	[0, 0, 0]	n/a	FR1	1	R1195E
91.632	0.85	131639	PRACTICE_WORD_OFF	n/a	n/a	TONGUE	-999	-1	[0, 0, 0]	n/a	FR1	1	R1195E
92.482	1.617	132489	PRACTICE_WORD	n/a	n/a	CHEST	2	-1	[0, 0, 0]	n/a	FR1	1	R1195E
94.099	0.934	134105	PRACTICE_WORD_OFF	n/a	n/a	CHEST	-999	-1	[0, 0, 0]	n/a	FR1	1	R1195E
95.033	1.617	135039	PRACTICE_WORD	n/a	n/a	COTTON	3	-1	[0, 0, 0]	n/a	FR1	1	R1195E
96.65	1.0	136656	PRACTICE_WORD_OFF	n/a	n/a	COTTON	-999	-1	[0, 0, 0]	n/a	FR1	1	R1195E
97.65	1.616	137656	PRACTICE_WORD	n/a	n/a	RHINO	4	-1	[0, 0, 0]	n/a	FR1	1	R1195E
99.266	0.917	139272	PRACTICE_WORD_OFF	n/a	n/a	RHINO	-999	-1	[0, 0, 0]	n/a	FR1	1	R1195E
100.183	1.601	140189	PRACTICE_WORD	n/a	n/a	ATTIC	5	-1	[0, 0, 0]	n/a	FR1	1	R1195E
101.784	0.784	141790	PRACTICE_WORD_OFF	n/a	n/a	ATTIC	-999	-1	[0, 0, 0]	n/a	FR1	1	R1195E
102.568	1.616	142574	PRACTICE_WORD	n/a	n/a	FLOOD	6	-1	[0, 0, 0]	n/a	FR1	1	R1195E
104.184	0.933	144190	PRACTICE_WORD_OFF	n/a	n/a	FLOOD	-999	-1	[0, 0, 0]	n/a	FR1	1	R1195E
105.117	1.618	145123	PRACTICE_WORD	n/a	n/a	WATCH	7	-1	[0, 0, 0]	n/a	FR1	1	R1195E
106.735	0.917	146741	PRACTICE_WORD_OFF	n/a	n/a	WATCH	-999	-1	[0, 0, 0]	n/a	FR1	1	R1195E
107.652	1.616	147658	PRACTICE_WORD	n/a	n/a	IRON	8	-1	[0, 0, 0]	n/a	FR1	1	R1195E
109.268	0.833	149274	PRACTICE_WORD_OFF	n/a	n/a	IRON	-999	-1	[0, 0, 0]	n/a	FR1	1	R1195E
110.101	1.618	150107	PRACTICE_WORD	n/a	n/a	CAMEL	9	-1	[0, 0, 0]	n/a	FR1	1	R1195E
111.719	0.85	151725	PRACTICE_WORD_OFF	n/a	n/a	CAMEL	-999	-1	[0, 0, 0]	n/a	FR1	1	R1195E
112.569	1.616	152575	PRACTICE_WORD	n/a	n/a	BEAM	10	-1	[0, 0, 0]	n/a	FR1	1	R1195E
114.185	0.868	154191	PRACTICE_WORD_OFF	n/a	n/a	BEAM	-999	-1	[0, 0, 0]	n/a	FR1	1	R1195E
115.053	1.617	155059	PRACTICE_WORD	n/a	n/a	WAGON	11	-1	[0, 0, 0]	n/a	FR1	1	R1195E
116.67	0.767	156676	PRACTICE_WORD_OFF	n/a	n/a	WAGON	-999	-1	[0, 0, 0]	n/a	FR1	1	R1195E
117.437	1.617	157443	PRACTICE_WORD	n/a	n/a	RING	12	-1	[0, 0, 0]	n/a	FR1	1	R1195E
119.054	0.0	159060	PRACTICE_WORD_OFF	n/a	n/a	RING	-999	-1	[0, 0, 0]	n/a	FR1	1	R1195E
119.054	0.0	159060	DISTRACT_START	n/a	n/a	n/a	-999	-1	[0, 0, 0]	n/a	FR1	1	R1195E
119.054	0.015	159060	START	n/a	n/a	n/a	-999	-1	[-999, -999, -999]	n/a	FR1	1	R1195E
119.069	8.018	159075	PROB	8.018	n/a	n/a	-999	-1	[3, 3, 5]	14	FR1	1	R1195E
127.087	11.537	167092	PROB	11.537	n/a	n/a	-999	-1	[9, 8, 9]	27	FR1	1	R1195E
138.624	12.064	178629	PROB	12.064	n/a	n/a	-999	-1	[8, 4, 7]	19	FR1	1	R1195E
150.688	0.021	190692	STOP	n/a	n/a	n/a	-999	-1	[-999, -999, -999]	n/a	FR1	1	R1195E
150.709	0.617	190713	DISTRACT_END	n/a	n/a	n/a	-999	-1	[0, 0, 0]	n/a	FR1	1	R1195E
151.326	0.518	191330	RETRIEVAL_ORIENT	n/a	n/a	n/a	-999	-1	[0, 0, 0]	n/a	FR1	1	R1195E
151.844	30.011	191848	PRACTICE_REC_START	n/a	n/a	n/a	-999	-1	[0, 0, 0]	n/a	FR1	1	R1195E
181.855	12.479	221858	PRACTICE_REC_END	n/a	n/a	n/a	-999	-1	[0, 0, 0]	n/a	FR1	1	R1195E
194.334	0.5	234337	TRIAL	n/a	n/a	n/a	-999	1	[0, 0, 0]	n/a	FR1	1	R1195E
194.834	10.428	234837	COUNTDOWN_START	n/a	n/a	n/a	-999	1	[0, 0, 0]	n/a	FR1	1	R1195E
205.262	0.006	245264	COUNTDOWN_END	n/a	n/a	n/a	-999	1	[0, 0, 0]	n/a	FR1	1	R1195E
205.268	1.601	245270	ORIENT	n/a	n/a	n/a	-999	1	[0, 0, 0]	n/a	FR1	1	R1195E
206.869	2.033	246871	ORIENT_OFF	n/a	n/a	n/a	-999	1	[0, 0, 0]	n/a	FR1	1	R1195E
208.902	1.618	248904	WORD	n/a	wordpools/wordpool_EN.txt	BADGE	1	1	[0, 0, 0]	n/a	FR1	1	R1195E
210.52	0.817	250522	WORD_OFF	n/a	n/a	BADGE	1	1	[0, 0, 0]	n/a	FR1	1	R1195E
211.337	1.617	251339	WORD	n/a	wordpools/wordpool_EN.txt	BAT	2	1	[0, 0, 0]	n/a	FR1	1	R1195E
212.954	1.016	252956	WORD_OFF	n/a	n/a	BAT	2	1	[0, 0, 0]	n/a	FR1	1	R1195E
213.97	1.617	253972	WORD	n/a	wordpools/wordpool_EN.txt	PHONE	3	1	[0, 0, 0]	n/a	FR1	1	R1195E
215.587	0.834	255589	WORD_OFF	n/a	n/a	PHONE	3	1	[0, 0, 0]	n/a	FR1	1	R1195E
216.421	1.617	256423	WORD	n/a	wordpools/wordpool_EN.txt	STEAM	4	1	[0, 0, 0]	n/a	FR1	1	R1195E
218.038	0.817	258040	WORD_OFF	n/a	n/a	STEAM	4	1	[0, 0, 0]	n/a	FR1	1	R1195E
218.855	1.617	258857	WORD	n/a	wordpools/wordpool_EN.txt	ELF	5	1	[0, 0, 0]	n/a	FR1	1	R1195E
220.472	0.799	260474	WORD_OFF	n/a	n/a	ELF	5	1	[0, 0, 0]	n/a	FR1	1	R1195E
221.271	1.617	261273	WORD	n/a	wordpools/wordpool_EN.txt	COW	6	1	[0, 0, 0]	n/a	FR1	1	R1195E
222.888	0.917	262890	WORD_OFF	n/a	n/a	COW	6	1	[0, 0, 0]	n/a	FR1	1	R1195E
223.805	1.617	263807	WORD	n/a	wordpools/wordpool_EN.txt	SHELL	7	1	[0, 0, 0]	n/a	FR1	1	R1195E
225.422	0.883	265423	WORD_OFF	n/a	n/a	SHELL	7	1	[0, 0, 0]	n/a	FR1	1	R1195E
226.305	1.618	266306	WORD	n/a	wordpools/wordpool_EN.txt	FLAME	8	1	[0, 0, 0]	n/a	FR1	1	R1195E
227.923	0.983	267924	WORD_OFF	n/a	n/a	FLAME	8	1	[0, 0, 0]	n/a	FR1	1	R1195E
228.906	1.617	268907	WORD	n/a	wordpools/wordpool_EN.txt	FOAM	9	1	[0, 0, 0]	n/a	FR1	1	R1195E
230.523	0.834	270524	WORD_OFF	n/a	n/a	FOAM	9	1	[0, 0, 0]	n/a	FR1	1	R1195E
231.357	1.617	271358	WORD	n/a	wordpools/wordpool_EN.txt	JEEP	10	1	[0, 0, 0]	n/a	FR1	1	R1195E
232.974	0.867	272975	WORD_OFF	n/a	n/a	JEEP	10	1	[0, 0, 0]	n/a	FR1	1	R1195E
233.841	1.616	273842	WORD	n/a	wordpools/wordpool_EN.txt	BOY	11	1	[0, 0, 0]	n/a	FR1	1	R1195E
235.457	0.816	275458	WORD_OFF	n/a	n/a	BOY	11	1	[0, 0, 0]	n/a	FR1	1	R1195E
236.273	1.601	276274	WORD	n/a	wordpools/wordpool_EN.txt	DUCK	12	1	[0, 0, 0]	n/a	FR1	1	R1195E
237.874	0.0	277875	WORD_OFF	n/a	n/a	DUCK	12	1	[0, 0, 0]	n/a	FR1	1	R1195E
237.874	0.001	277875	DISTRACT_START	n/a	n/a	n/a	-999	1	[0, 0, 0]	n/a	FR1	1	R1195E
237.875	0.016	277876	START	n/a	n/a	n/a	-999	1	[-999, -999, -999]	n/a	FR1	1	R1195E
237.891	4.001	277892	PROB	4.001	n/a	n/a	-999	1	[7, 3, 1]	11	FR1	1	R1195E
241.892	11.368	281893	PROB	11.368	n/a	n/a	-999	1	[5, 9, 3]	17	FR1	1	R1195E
253.26	4.135	293260	PROB	4.135	n/a	n/a	-999	1	[9, 6, 1]	16	FR1	1	R1195E
257.395	4.81	297395	PROB	4.81	n/a	n/a	-999	1	[3, 9, 9]	21	FR1	1	R1195E
262.205	0.006	302205	STOP	n/a	n/a	n/a	-999	1	[-999, -999, -999]	n/a	FR1	1	R1195E
262.211	0.684	302211	DISTRACT_END	n/a	n/a	n/a	-999	1	[0, 0, 0]	n/a	FR1	1	R1195E
262.895	0.518	302895	RETRIEVAL_ORIENT	n/a	n/a	n/a	-999	1	[0, 0, 0]	n/a	FR1	1	R1195E
263.413	1.462	303413	REC_START	n/a	n/a	n/a	-999	1	[0, 0, 0]	n/a	FR1	1	R1195E
264.875	0.981	304875	REC_WORD_VV	0.981	n/a	<>	-999	1	[0, 0, 0]	n/a	FR1	1	R1195E
265.856	2.717	305856	REC_WORD	2.717	n/a	BADGE	1	1	[0, 0, 0]	n/a	FR1	1	R1195E
268.573	4.352	308573	REC_WORD	4.352	n/a	PHONE	3	1	[0, 0, 0]	n/a	FR1	1	R1195E
272.925	3.657	312925	REC_WORD	3.657	n/a	JEEP	10	1	[0, 0, 0]	n/a	FR1	1	R1195E
276.582	4.688	316582	REC_WORD	4.688	n/a	SHELL	7	1	[0, 0, 0]	n/a	FR1	1	R1195E
281.27	5.362	321269	REC_WORD	5.362	n/a	ELF	5	1	[0, 0, 0]	n/a	FR1	1	R1195E
286.632	6.79	326631	REC_WORD_VV	6.79	n/a	<>	-999	1	[0, 0, 0]	n/a	FR1	1	R1195E
293.422	5.63	333421	REC_END	n/a	n/a	n/a	-999	1	[0, 0, 0]	n/a	FR1	1	R1195E
299.052	0.5	339051	TRIAL	n/a	n/a	n/a	-999	2	[0, 0, 0]	n/a	FR1	1	R1195E
299.552	10.428	339551	COUNTDOWN_START	n/a	n/a	n/a	-999	2	[0, 0, 0]	n/a	FR1	1	R1195E
309.98	0.007	349978	COUNTDOWN_END	n/a	n/a	n/a	-999	2	[0, 0, 0]	n/a	FR1	1	R1195E
309.987	1.617	349985	ORIENT	n/a	n/a	n/a	-999	2	[0, 0, 0]	n/a	FR1	1	R1195E
311.604	1.967	351602	ORIENT_OFF	n/a	n/a	n/a	-999	2	[0, 0, 0]	n/a	FR1	1	R1195E
313.571	1.616	353569	WORD	n/a	wordpools/wordpool_EN.txt	ROPE	1	2	[0, 0, 0]	n/a	FR1	1	R1195E
315.187	0.768	355185	WORD_OFF	n/a	n/a	ROPE	1	2	[0, 0, 0]	n/a	FR1	1	R1195E
315.955	1.617	355953	WORD	n/a	wordpools/wordpool_EN.txt	PIG	2	2	[0, 0, 0]	n/a	FR1	1	R1195E
317.572	0.867	357570	WORD_OFF	n/a	n/a	PIG	2	2	[0, 0, 0]	n/a	FR1	1	R1195E
318.439	1.617	358437	WORD	n/a	wordpools/wordpool_EN.txt	MAP	3	2	[0, 0, 0]	n/a	FR1	1	R1195E
320.056	0.95	360054	WORD_OFF	n/a	n/a	MAP	3	2	[0, 0, 0]	n/a	FR1	1	R1195E
321.006	1.617	361004	WORD	n/a	wordpools/wordpool_EN.txt	RUG	4	2	[0, 0, 0]	n/a	FR1	1	R1195E
322.623	0.8	362621	WORD_OFF	n/a	n/a	RUG	4	2	[0, 0, 0]	n/a	FR1	1	R1195E
323.423	1.617	363421	WORD	n/a	wordpools/wordpool_EN.txt	PIT	5	2	[0, 0, 0]	n/a	FR1	1	R1195E
325.04	1.017	365038	WORD_OFF	n/a	n/a	PIT	5	2	[0, 0, 0]	n/a	FR1	1	R1195E
326.057	1.617	366055	WORD	n/a	wordpools/wordpool_EN.txt	SOCK	6	2	[0, 0, 0]	n/a	FR1	1	R1195E
327.674	0.916	367672	WORD_OFF	n/a	n/a	SOCK	6	2	[0, 0, 0]	n/a	FR1	1	R1195E
328.59	1.616	368588	WORD	n/a	wordpools/wordpool_EN.txt	FENCE	7	2	[0, 0, 0]	n/a	FR1	1	R1195E
330.206	0.95	370204	WORD_OFF	n/a	n/a	FENCE	7	2	[0, 0, 0]	n/a	FR1	1	R1195E
331.156	1.602	371153	WORD	n/a	wordpools/wordpool_EN.txt	DOG	8	2	[0, 0, 0]	n/a	FR1	1	R1195E
332.758	0.817	372755	WORD_OFF	n/a	n/a	DOG	8	2	[0, 0, 0]	n/a	FR1	1	R1195E
333.575	1.615	373572	WORD	n/a	wordpools/wordpool_EN.txt	TRAY	9	2	[0, 0, 0]	n/a	FR1	1	R1195E
335.19	0.901	375187	WORD_OFF	n/a	n/a	TRAY	9	2	[0, 0, 0]	n/a	FR1	1	R1195E
336.091	1.618	376088	WORD	n/a	wordpools/wordpool_EN.txt	RIB	10	2	[0, 0, 0]	n/a	FR1	1	R1195E
337.709	1.0	377706	WORD_OFF	n/a	n/a	RIB	10	2	[0, 0, 0]	n/a	FR1	1	R1195E
338.709	1.617	378706	WORD	n/a	wordpools/wordpool_EN.txt	CLOWN	11	2	[0, 0, 0]	n/a	FR1	1	R1195E
340.326	0.816	380323	WORD_OFF	n/a	n/a	CLOWN	11	2	[0, 0, 0]	n/a	FR1	1	R1195E
341.142	1.618	381139	WORD	n/a	wordpools/wordpool_EN.txt	BOAT	12	2	[0, 0, 0]	n/a	FR1	1	R1195E
342.76	0.0	382757	WORD_OFF	n/a	n/a	BOAT	12	2	[0, 0, 0]	n/a	FR1	1	R1195E
342.76	0.0	382757	DISTRACT_START	n/a	n/a	n/a	-999	2	[0, 0, 0]	n/a	FR1	1	R1195E
342.76	0.016	382757	START	n/a	n/a	n/a	-999	2	[-999, -999, -999]	n/a	FR1	1	R1195E
342.776	4.984	382773	PROB	4.984	n/a	n/a	-999	2	[7, 3, 3]	13	FR1	1	R1195E
347.76	11.351	387757	PROB	11.351	n/a	n/a	-999	2	[6, 7, 9]	22	FR1	1	R1195E
359.111	4.367	399107	PROB	4.367	n/a	n/a	-999	2	[5, 9, 1]	15	FR1	1	R1195E
363.478	0.018	403474	STOP	n/a	n/a	n/a	-999	2	[-999, -999, -999]	n/a	FR1	1	R1195E
363.496	0.566	403492	DISTRACT_END	n/a	n/a	n/a	-999	2	[0, 0, 0]	n/a	FR1	1	R1195E
364.062	0.519	404058	RETRIEVAL_ORIENT	n/a	n/a	n/a	-999	2	[0, 0, 0]	n/a	FR1	1	R1195E
364.581	1.029	404577	REC_START	n/a	n/a	n/a	-999	2	[0, 0, 0]	n/a	FR1	1	R1195E
365.61	1.465	405606	REC_WORD_VV	1.465	n/a	<>	-999	2	[0, 0, 0]	n/a	FR1	1	R1195E
367.075	2.151	407071	REC_WORD	2.151	n/a	MAP	3	2	[0, 0, 0]	n/a	FR1	1	R1195E
369.226	4.477	409222	REC_WORD	4.477	n/a	RUG	4	2	[0, 0, 0]	n/a	FR1	1	R1195E
373.703	3.286	413699	REC_WORD	3.286	n/a	FENCE	7	2	[0, 0, 0]	n/a	FR1	1	R1195E
376.989	3.768	416985	REC_WORD	3.768	n/a	DOG	8	2	[0, 0, 0]	n/a	FR1	1	R1195E
380.757	4.584	420753	REC_WORD	4.584	n/a	CLOWN	11	2	[0, 0, 0]	n/a	FR1	1	R1195E
385.341	1.499	425336	REC_WORD_VV	1.499	n/a	<>	-999	2	[0, 0, 0]	n/a	FR1	1	R1195E
386.84	2.58	426835	REC_WORD_VV	2.58	n/a	<>	-999	2	[0, 0, 0]	n/a	FR1	1	R1195E
389.42	5.171	429415	REC_WORD	5.171	n/a	PIT	5	2	[0, 0, 0]	n/a	FR1	1	R1195E
394.591	6.045	434586	REC_END	n/a	n/a	n/a	-999	2	[0, 0, 0]	n/a	FR1	1	R1195E
400.636	0.5	440631	TRIAL	n/a	n/a	n/a	-999	3	[0, 0, 0]	n/a	FR1	1	R1195E
401.136	10.428	441131	COUNTDOWN_START	n/a	n/a	n/a	-999	3	[0, 0, 0]	n/a	FR1	1	R1195E
411.564	0.008	451558	COUNTDOWN_END	n/a	n/a	n/a	-999	3	[0, 0, 0]	n/a	FR1	1	R1195E
411.572	1.615	451566	ORIENT	n/a	n/a	n/a	-999	3	[0, 0, 0]	n/a	FR1	1	R1195E
413.187	1.934	453181	ORIENT_OFF	n/a	n/a	n/a	-999	3	[0, 0, 0]	n/a	FR1	1	R1195E
415.121	1.618	455115	WORD	n/a	wordpools/wordpool_EN.txt	DITCH	1	3	[0, 0, 0]	n/a	FR1	1	R1195E
416.739	0.9	456733	WORD_OFF	n/a	n/a	DITCH	1	3	[0, 0, 0]	n/a	FR1	1	R1195E
417.639	1.616	457633	WORD	n/a	wordpools/wordpool_EN.txt	MOON	2	3	[0, 0, 0]	n/a	FR1	1	R1195E
419.255	0.785	459249	WORD_OFF	n/a	n/a	MOON	2	3	[0, 0, 0]	n/a	FR1	1	R1195E
420.04	1.617	460034	WORD	n/a	wordpools/wordpool_EN.txt	RICE	3	3	[0, 0, 0]	n/a	FR1	1	R1195E
421.657	0.95	461651	WORD_OFF	n/a	n/a	RICE	3	3	[0, 0, 0]	n/a	FR1	1	R1195E
422.607	1.616	462601	WORD	n/a	wordpools/wordpool_EN.txt	PEA	4	3	[0, 0, 0]	n/a	FR1	1	R1195E
424.223	0.983	464217	WORD_OFF	n/a	n/a	PEA	4	3	[0, 0, 0]	n/a	FR1	1	R1195E
425.206	1.618	465200	WORD	n/a	wordpools/wordpool_EN.txt	CUP	5	3	[0, 0, 0]	n/a	FR1	1	R1195E
426.824	0.95	466818	WORD_OFF	n/a	n/a	CUP	5	3	[0, 0, 0]	n/a	FR1	1	R1195E
427.774	1.617	467768	WORD	n/a	wordpools/wordpool_EN.txt	SKI	6	3	[0, 0, 0]	n/a	FR1	1	R1195E
429.391	0.766	469385	WORD_OFF	n/a	n/a	SKI	6	3	[0, 0, 0]	n/a	FR1	1	R1195E
430.157	1.618	470151	WORD	n/a	wordpools/wordpool_EN.txt	EGG	7	3	[0, 0, 0]	n/a	FR1	1	R1195E
431.775	0.983	471769	WORD_OFF	n/a	n/a	EGG	7	3	[0, 0, 0]	n/a	FR1	1	R1195E
432.758	1.618	472752	WORD	n/a	wordpools/wordpool_EN.txt	RAKE	8	3	[0, 0, 0]	n/a	FR1	1	R1195E
434.376	0.95	474370	WORD_OFF	n/a	n/a	RAKE	8	3	[0, 0, 0]	n/a	FR1	1	R1195E
435.326	1.617	475320	WORD	n/a	wordpools/wordpool_EN.txt	BAND	9	3	[0, 0, 0]	n/a	FR1	1	R1195E
436.943	0.933	476936	WORD_OFF	n/a	n/a	BAND	9	3	[0, 0, 0]	n/a	FR1	1	R1195E
437.876	1.617	477869	WORD	n/a	wordpools/wordpool_EN.txt	CROWN	10	3	[0, 0, 0]	n/a	FR1	1	R1195E
439.493	0.967	479486	WORD_OFF	n/a	n/a	CROWN	10	3	[0, 0, 0]	n/a	FR1	1	R1195E
440.46	1.616	480453	WORD	n/a	wordpools/wordpool_EN.txt	LEG	11	3	[0, 0, 0]	n/a	FR1	1	R1195E
442.076	0.818	482069	WORD_OFF	n/a	n/a	LEG	11	3	[0, 0, 0]	n/a	FR1	1	R1195E
442.894	1.617	482887	WORD	n/a	wordpools/wordpool_EN.txt	SPARK	12	3	[0, 0, 0]	n/a	FR1	1	R1195E
444.511	0.0	484504	WORD_OFF	n/a	n/a	SPARK	12	3	[0, 0, 0]	n/a	FR1	1	R1195E
444.511	0.0	484504	DISTRACT_START	n/a	n/a	n/a	-999	3	[0, 0, 0]	n/a	FR1	1	R1195E
444.511	0.016	484504	START	n/a	n/a	n/a	-999	3	[-999, -999, -999]	n/a	FR1	1	R1195E
444.527	5.401	484520	PROB	5.401	n/a	n/a	-999	3	[2, 8, 4]	14	FR1	1	R1195E
449.928	4.718	489921	PROB	4.718	n/a	n/a	-999	3	[2, 9, 2]	13	FR1	1	R1195E
454.646	7.6	494639	PROB	7.6	n/a	n/a	-999	3	[2, 7, 9]	18	FR1	1	R1195E
462.246	10.675	502238	PROB	10.675	n/a	n/a	-999	3	[9, 5, 6]	20	FR1	1	R1195E
472.921	0.011	512913	STOP	n/a	n/a	n/a	-999	3	[-999, -999, -999]	n/a	FR1	1	R1195E
472.932	0.517	512924	DISTRACT_END	n/a	n/a	n/a	-999	3	[0, 0, 0]	n/a	FR1	1	R1195E
473.449	0.517	513441	RETRIEVAL_ORIENT	n/a	n/a	n/a	-999	3	[0, 0, 0]	n/a	FR1	1	R1195E
473.966	2.014	513958	REC_START	n/a	n/a	n/a	-999	3	[0, 0, 0]	n/a	FR1	1	R1195E
475.98	1.0	515972	REC_WORD_VV	1.0	n/a	<>	-999	3	[0, 0, 0]	n/a	FR1	1	R1195E
476.98	2.951	516972	REC_WORD_VV	2.951	n/a	<>	-999	3	[0, 0, 0]	n/a	FR1	1	R1195E
479.931	2.422	519923	REC_WORD	2.422	n/a	RAKE	8	3	[0, 0, 0]	n/a	FR1	1	R1195E
482.353	4.401	522345	REC_WORD	4.401	n/a	MOON	2	3	[0, 0, 0]	n/a	FR1	1	R1195E
486.754	6.242	526746	REC_WORD	6.242	n/a	PEA	4	3	[0, 0, 0]	n/a	FR1	1	R1195E
492.996	10.98	532987	REC_WORD	10.98	n/a	SKI	6	3	[0, 0, 0]	n/a	FR1	1	R1195E
503.976	5.145	543967	REC_END	n/a	n/a	n/a	-999	3	[0, 0, 0]	n/a	FR1	1	R1195E
509.121	0.5	549112	TRIAL	n/a	n/a	n/a	-999	4	[0, 0, 0]	n/a	FR1	1	R1195E
509.621	10.428	549612	COUNTDOWN_START	n/a	n/a	n/a	-999	4	[0, 0, 0]	n/a	FR1	1	R1195E
520.049	0.008	560039	COUNTDOWN_END	n/a	n/a	n/a	-999	4	[0, 0, 0]	n/a	FR1	1	R1195E
520.057	1.617	560047	ORIENT	n/a	n/a	n/a	-999	4	[0, 0, 0]	n/a	FR1	1	R1195E
521.674	2.2	561664	ORIENT_OFF	n/a	n/a	n/a	-999	4	[0, 0, 0]	n/a	FR1	1	R1195E
523.874	1.617	563864	WORD	n/a	wordpools/wordpool_EN.txt	BEAN	1	4	[0, 0, 0]	n/a	FR1	1	R1195E
525.491	0.917	565481	WORD_OFF	n/a	n/a	BEAN	1	4	[0, 0, 0]	n/a	FR1	1	R1195E
526.408	1.617	566398	WORD	n/a	wordpools/wordpool_EN.txt	ROAD	2	4	[0, 0, 0]	n/a	FR1	1	R1195E
528.025	0.934	568015	WORD_OFF	n/a	n/a	ROAD	2	4	[0, 0, 0]	n/a	FR1	1	R1195E
528.959	1.617	568949	WORD	n/a	wordpools/wordpool_EN.txt	MOTH	3	4	[0, 0, 0]	n/a	FR1	1	R1195E
530.576	0.933	570566	WORD_OFF	n/a	n/a	MOTH	3	4	[0, 0, 0]	n/a	FR1	1	R1195E
531.509	1.616	571499	WORD	n/a	wordpools/wordpool_EN.txt	BANK	4	4	[0, 0, 0]	n/a	FR1	1	R1195E
533.125	0.851	573115	WORD_OFF	n/a	n/a	BANK	4	4	[0, 0, 0]	n/a	FR1	1	R1195E
533.976	1.617	573966	WORD	n/a	wordpools/wordpool_EN.txt	SEA	5	4	[0, 0, 0]	n/a	FR1	1	R1195E
535.593	0.933	575583	WORD_OFF	n/a	n/a	SEA	5	4	[0, 0, 0]	n/a	FR1	1	R1195E
536.526	1.617	576516	WORD	n/a	wordpools/wordpool_EN.txt	CROW	6	4	[0, 0, 0]	n/a	FR1	1	R1195E
538.143	0.801	578133	WORD_OFF	n/a	n/a	CROW	6	4	[0, 0, 0]	n/a	FR1	1	R1195E
538.944	1.617	578934	WORD	n/a	wordpools/wordpool_EN.txt	CUBE	7	4	[0, 0, 0]	n/a	FR1	1	R1195E
540.561	0.8	580551	WORD_OFF	n/a	n/a	CUBE	7	4	[0, 0, 0]	n/a	FR1	1	R1195E
541.361	1.616	581350	WORD	n/a	wordpools/wordpool_EN.txt	FRUIT	8	4	[0, 0, 0]	n/a	FR1	1	R1195E
542.977	0.901	582966	WORD_OFF	n/a	n/a	FRUIT	8	4	[0, 0, 0]	n/a	FR1	1	R1195E
543.878	1.617	583867	WORD	n/a	wordpools/wordpool_EN.txt	PET	9	4	[0, 0, 0]	n/a	FR1	1	R1195E
545.495	0.833	585484	WORD_OFF	n/a	n/a	PET	9	4	[0, 0, 0]	n/a	FR1	1	R1195E
546.328	1.617	586317	WORD	n/a	wordpools/wordpool_EN.txt	TOOL	10	4	[0, 0, 0]	n/a	FR1	1	R1195E
547.945	0.817	587934	WORD_OFF	n/a	n/a	TOOL	10	4	[0, 0, 0]	n/a	FR1	1	R1195E
548.762	1.617	588751	WORD	n/a	wordpools/wordpool_EN.txt	WAVE	11	4	[0, 0, 0]	n/a	FR1	1	R1195E
550.379	0.934	590368	WORD_OFF	n/a	n/a	WAVE	11	4	[0, 0, 0]	n/a	FR1	1	R1195E
551.313	1.617	591302	WORD	n/a	wordpools/wordpool_EN.txt	CHIEF	12	4	[0, 0, 0]	n/a	FR1	1	R1195E
552.93	0.0	592919	WORD_OFF	n/a	n/a	CHIEF	12	4	[0, 0, 0]	n/a	FR1	1	R1195E
552.93	0.0	592919	DISTRACT_START	n/a	n/a	n/a	-999	4	[0, 0, 0]	n/a	FR1	1	R1195E
552.93	0.016	592919	START	n/a	n/a	n/a	-999	4	[-999, -999, -999]	n/a	FR1	1	R1195E
552.946	7.902	592935	PROB	7.902	n/a	n/a	-999	4	[1, 2, 5]	8	FR1	1	R1195E
560.848	4.9	600837	PROB	4.9	n/a	n/a	-999	4	[9, 9, 4]	22	FR1	1	R1195E
565.748	4.985	605737	PROB	4.985	n/a	n/a	-999	4	[2, 3, 6]	11	FR1	1	R1195E
570.733	4.621	610721	PROB	4.621	n/a	n/a	-999	4	[5, 2, 4]	11	FR1	1	R1195E
575.354	0.013	615342	STOP	n/a	n/a	n/a	-999	4	[-999, -999, -999]	n/a	FR1	1	R1195E
575.367	0.683	615355	DISTRACT_END	n/a	n/a	n/a	-999	4	[0, 0, 0]	n/a	FR1	1	R1195E
576.05	0.518	616038	RETRIEVAL_ORIENT	n/a	n/a	n/a	-999	4	[0, 0, 0]	n/a	FR1	1	R1195E
576.568	3.023	616556	REC_START	n/a	n/a	n/a	-999	4	[0, 0, 0]	n/a	FR1	1	R1195E
579.591	4.059	619579	REC_WORD	4.059	n/a	BEAN	1	4	[0, 0, 0]	n/a	FR1	1	R1195E
583.65	5.775	623638	REC_WORD	5.775	n/a	MOTH	3	4	[0, 0, 0]	n/a	FR1	1	R1195E
589.425	7.851	629413	REC_WORD	7.851	n/a	ROAD	2	4	[0, 0, 0]	n/a	FR1	1	R1195E
597.276	0.765	637263	REC_WORD_VV	0.765	n/a	<>	-999	4	[0, 0, 0]	n/a	FR1	1	R1195E
598.041	1.08	638028	REC_WORD_VV	1.08	n/a	<>	-999	4	[0, 0, 0]	n/a	FR1	1	R1195E
599.121	6.897	639108	REC_WORD_VV	6.897	n/a	<>	-999	4	[0, 0, 0]	n/a	FR1	1	R1195E
606.018	0.56	646005	REC_WORD_VV	0.56	n/a	<>	-999	4	[0, 0, 0]	n/a	FR1	1	R1195E
606.578	5.195	646565	REC_END	n/a	n/a	n/a	-999	4	[0, 0, 0]	n/a	FR1	1	R1195E
611.773	0.5	651760	TRIAL	n/a	n/a	n/a	-999	5	[0, 0, 0]	n/a	FR1	1	R1195E
612.273	10.428	652260	COUNTDOWN_START	n/a	n/a	n/a	-999	5	[0, 0, 0]	n/a	FR1	1	R1195E
622.701	0.007	662687	COUNTDOWN_END	n/a	n/a	n/a	-999	5	[0, 0, 0]	n/a	FR1	1	R1195E
622.708	1.617	662694	ORIENT	n/a	n/a	n/a	-999	5	[0, 0, 0]	n/a	FR1	1	R1195E
624.325	2.2	664311	ORIENT_OFF	n/a	n/a	n/a	-999	5	[0, 0, 0]	n/a	FR1	1	R1195E
626.525	1.617	666511	WORD	n/a	wordpools/wordpool_EN.txt	SCHOOL	1	5	[0, 0, 0]	n/a	FR1	1	R1195E
628.142	0.834	668128	WORD_OFF	n/a	n/a	SCHOOL	1	5	[0, 0, 0]	n/a	FR1	1	R1195E
628.976	1.617	668962	WORD	n/a	wordpools/wordpool_EN.txt	CAR	2	5	[0, 0, 0]	n/a	FR1	1	R1195E
630.593	0.95	670579	WORD_OFF	n/a	n/a	CAR	2	5	[0, 0, 0]	n/a	FR1	1	R1195E
631.543	1.616	671529	WORD	n/a	wordpools/wordpool_EN.txt	FROG	3	5	[0, 0, 0]	n/a	FR1	1	R1195E
633.159	0.785	673145	WORD_OFF	n/a	n/a	FROG	3	5	[0, 0, 0]	n/a	FR1	1	R1195E
633.944	1.617	673930	WORD	n/a	wordpools/wordpool_EN.txt	SHEEP	4	5	[0, 0, 0]	n/a	FR1	1	R1195E
635.561	0.833	675547	WORD_OFF	n/a	n/a	SHEEP	4	5	[0, 0, 0]	n/a	FR1	1	R1195E
636.394	1.617	676380	WORD	n/a	wordpools/wordpool_EN.txt	SWORD	5	5	[0, 0, 0]	n/a	FR1	1	R1195E
638.011	0.9	677997	WORD_OFF	n/a	n/a	SWORD	5	5	[0, 0, 0]	n/a	FR1	1	R1195E
638.911	1.617	678897	WORD	n/a	wordpools/wordpool_EN.txt	DOCK	6	5	[0, 0, 0]	n/a	FR1	1	R1195E
640.528	0.766	680514	WORD_OFF	n/a	n/a	DOCK	6	5	[0, 0, 0]	n/a	FR1	1	R1195E
641.294	1.618	681280	WORD	n/a	wordpools/wordpool_EN.txt	WHEEL	7	5	[0, 0, 0]	n/a	FR1	1	R1195E
642.912	1.0	682898	WORD_OFF	n/a	n/a	WHEEL	7	5	[0, 0, 0]	n/a	FR1	1	R1195E
643.912	1.617	683898	WORD	n/a	wordpools/wordpool_EN.txt	LAMP	8	5	[0, 0, 0]	n/a	FR1	1	R1195E
645.529	0.834	685515	WORD_OFF	n/a	n/a	LAMP	8	5	[0, 0, 0]	n/a	FR1	1	R1195E
646.363	1.617	686348	WORD	n/a	wordpools/wordpool_EN.txt	TRAIN	9	5	[0, 0, 0]	n/a	FR1	1	R1195E
647.98	0.983	687965	WORD_OFF	n/a	n/a	TRAIN	9	5	[0, 0, 0]	n/a	FR1	1	R1195E
648.963	1.617	688948	WORD	n/a	wordpools/wordpool_EN.txt	VEST	10	5	[0, 0, 0]	n/a	FR1	1	R1195E
650.58	0.983	690565	WORD_OFF	n/a	n/a	VEST	10	5	[0, 0, 0]	n/a	FR1	1	R1195E
651.563	1.616	691548	WORD	n/a	wordpools/wordpool_EN.txt	BLOOM	11	5	[0, 0, 0]	n/a	FR1	1	R1195E
653.179	0.984	693164	WORD_OFF	n/a	n/a	BLOOM	11	5	[0, 0, 0]	n/a	FR1	1	R1195E
654.163	1.618	694148	WORD	n/a	wordpools/wordpool_EN.txt	BRIDGE	12	5	[0, 0, 0]	n/a	FR1	1	R1195E
655.781	0.0	695766	WORD_OFF	n/a	n/a	BRIDGE	12	5	[0, 0, 0]	n/a	FR1	1	R1195E
655.781	0.0	695766	DISTRACT_START	n/a	n/a	n/a	-999	5	[0, 0, 0]	n/a	FR1	1	R1195E
655.781	0.017	695766	START	n/a	n/a	n/a	-999	5	[-999, -999, -999]	n/a	FR1	1	R1195E
655.798	4.283	695783	PROB	4.283	n/a	n/a	-999	5	[4, 3, 1]	8	FR1	1	R1195E
660.081	8.984	700066	PROB	8.984	n/a	n/a	-999	5	[9, 5, 7]	21	FR1	1	R1195E
669.065	6.669	709050	PROB	6.669	n/a	n/a	-999	5	[7, 9, 4]	20	FR1	1	R1195E
675.734	4.541	715718	PROB	4.541	n/a	n/a	-999	5	[6, 5, 9]	20	FR1	1	R1195E
680.275	0.009	720259	STOP	n/a	n/a	n/a	-999	5	[-999, -999, -999]	n/a	FR1	1	R1195E
680.284	0.634	720268	DISTRACT_END	n/a	n/a	n/a	-999	5	[0, 0, 0]	n/a	FR1	1	R1195E
680.918	0.518	720902	RETRIEVAL_ORIENT	n/a	n/a	n/a	-999	5	[0, 0, 0]	n/a	FR1	1	R1195E
681.436	2.103	721420	REC_START	n/a	n/a	n/a	-999	5	[0, 0, 0]	n/a	FR1	1	R1195E
683.539	2.406	723523	REC_WORD	2.406	n/a	SCHOOL	1	5	[0, 0, 0]	n/a	FR1	1	R1195E
685.945	2.689	725929	REC_WORD	2.689	n/a	CAR	2	5	[0, 0, 0]	n/a	FR1	1	R1195E
688.634	4.399	728618	REC_WORD	4.399	n/a	BRIDGE	12	5	[0, 0, 0]	n/a	FR1	1	R1195E
693.033	18.412	733017	REC_WORD_VV	18.412	n/a	<>	-999	5	[0, 0, 0]	n/a	FR1	1	R1195E
711.445	25.067	751428	REC_END	n/a	n/a	n/a	-999	5	[0, 0, 0]	n/a	FR1	1	R1195E
736.512	0.5	776494	TRIAL	n/a	n/a	n/a	-999	6	[0, 0, 0]	n/a	FR1	1	R1195E
737.012	10.428	776994	COUNTDOWN_START	n/a	n/a	n/a	-999	6	[0, 0, 0]	n/a	FR1	1	R1195E
747.44	0.007	787422	COUNTDOWN_END	n/a	n/a	n/a	-999	6	[0, 0, 0]	n/a	FR1	1	R1195E
747.447	1.616	787429	ORIENT	n/a	n/a	n/a	-999	6	[0, 0, 0]	n/a	FR1	1	R1195E
749.063	1.984	789045	ORIENT_OFF	n/a	n/a	n/a	-999	6	[0, 0, 0]	n/a	FR1	1	R1195E
751.047	1.617	791028	WORD	n/a	wordpools/wordpool_EN.txt	STORM	1	6	[0, 0, 0]	n/a	FR1	1	R1195E
752.664	0.867	792645	WORD_OFF	n/a	n/a	STORM	1	6	[0, 0, 0]	n/a	FR1	1	R1195E
753.531	1.616	793512	WORD	n/a	wordpools/wordpool_EN.txt	CAPE	2	6	[0, 0, 0]	n/a	FR1	1	R1195E
755.147	0.801	795128	WORD_OFF	n/a	n/a	CAPE	2	6	[0, 0, 0]	n/a	FR1	1	R1195E
755.948	1.617	795929	WORD	n/a	wordpools/wordpool_EN.txt	SMILE	3	6	[0, 0, 0]	n/a	FR1	1	R1195E
757.565	0.984	797546	WORD_OFF	n/a	n/a	SMILE	3	6	[0, 0, 0]	n/a	FR1	1	R1195E
758.549	1.616	798530	WORD	n/a	wordpools/wordpool_EN.txt	MAZE	4	6	[0, 0, 0]	n/a	FR1	1	R1195E
760.165	0.917	800146	WORD_OFF	n/a	n/a	MAZE	4	6	[0, 0, 0]	n/a	FR1	1	R1195E
761.082	1.618	801063	WORD	n/a	wordpools/wordpool_EN.txt	SKUNK	5	6	[0, 0, 0]	n/a	FR1	1	R1195E
762.7	0.9	802681	WORD_OFF	n/a	n/a	SKUNK	5	6	[0, 0, 0]	n/a	FR1	1	R1195E
763.6	1.616	803581	WORD	n/a	wordpools/wordpool_EN.txt	BED	6	6	[0, 0, 0]	n/a	FR1	1	R1195E
765.216	1.0	805197	WORD_OFF	n/a	n/a	BED	6	6	[0, 0, 0]	n/a	FR1	1	R1195E
766.216	1.618	806197	WORD	n/a	wordpools/wordpool_EN.txt	BEE	7	6	[0, 0, 0]	n/a	FR1	1	R1195E
767.834	0.95	807815	WORD_OFF	n/a	n/a	BEE	7	6	[0, 0, 0]	n/a	FR1	1	R1195E
768.784	1.617	808765	WORD	n/a	wordpools/wordpool_EN.txt	WOLF	8	6	[0, 0, 0]	n/a	FR1	1	R1195E
770.401	0.899	810382	WORD_OFF	n/a	n/a	WOLF	8	6	[0, 0, 0]	n/a	FR1	1	R1195E
771.3	1.618	811281	WORD	n/a	wordpools/wordpool_EN.txt	ROOT	9	6	[0, 0, 0]	n/a	FR1	1	R1195E
772.918	1.0	812899	WORD_OFF	n/a	n/a	ROOT	9	6	[0, 0, 0]	n/a	FR1	1	R1195E
773.918	1.617	813899	WORD	n/a	wordpools/wordpool_EN.txt	MOOSE	10	6	[0, 0, 0]	n/a	FR1	1	R1195E
775.535	0.834	815516	WORD_OFF	n/a	n/a	MOOSE	10	6	[0, 0, 0]	n/a	FR1	1	R1195E
776.369	1.617	816350	WORD	n/a	wordpools/wordpool_EN.txt	GLASS	11	6	[0, 0, 0]	n/a	FR1	1	R1195E
777.986	0.85	817966	WORD_OFF	n/a	n/a	GLASS	11	6	[0, 0, 0]	n/a	FR1	1	R1195E
778.836	1.617	818816	WORD	n/a	wordpools/wordpool_EN.txt	MILK	12	6	[0, 0, 0]	n/a	FR1	1	R1195E
780.453	0.0	820433	WORD_OFF	n/a	n/a	MILK	12	6	[0, 0, 0]	n/a	FR1	1	R1195E
780.453	0.0	820433	DISTRACT_START	n/a	n/a	n/a	-999	6	[0, 0, 0]	n/a	FR1	1	R1195E
780.453	0.016	820433	START	n/a	n/a	n/a	-999	6	[-999, -999, -999]	n/a	FR1	1	R1195E
780.469	11.402	820449	PROB	11.402	n/a	n/a	-999	6	[8, 7, 7]	22	FR1	1	R1195E
791.871	4.918	831851	PROB	4.918	n/a	n/a	-999	6	[9, 4, 7]	20	FR1	1	R1195E
796.789	3.316	836769	PROB	3.316	n/a	n/a	-999	6	[1, 2, 2]	5	FR1	1	R1195E
800.105	6.388	840085	PROB	6.388	n/a	n/a	-999	6	[3, 8, 5]	16	FR1	1	R1195E
806.493	0.014	846472	STOP	n/a	n/a	n/a	-999	6	[-999, -999, -999]	n/a	FR1	1	R1195E
806.507	0.582	846486	DISTRACT_END	n/a	n/a	n/a	-999	6	[0, 0, 0]	n/a	FR1	1	R1195E
807.089	0.519	847068	RETRIEVAL_ORIENT	n/a	n/a	n/a	-999	6	[0, 0, 0]	n/a	FR1	1	R1195E
807.608	3.873	847587	REC_START	n/a	n/a	n/a	-999	6	[0, 0, 0]	n/a	FR1	1	R1195E
811.481	2.858	851460	REC_WORD	2.858	n/a	MOOSE	10	6	[0, 0, 0]	n/a	FR1	1	R1195E
814.339	8.006	854318	REC_WORD	8.006	n/a	BEE	7	6	[0, 0, 0]	n/a	FR1	1	R1195E
822.345	6.052	862324	REC_WORD	6.052	n/a	SCHOOL	-999	6	[0, 0, 0]	n/a	FR1	1	R1195E
828.397	9.221	868376	REC_WORD_VV	9.221	n/a	<>	-999	6	[0, 0, 0]	n/a	FR1	1	R1195E
837.618	4.829	877596	REC_END	n/a	n/a	n/a	-999	6	[0, 0, 0]	n/a	FR1	1	R1195E
842.447	0.5	882425	TRIAL	n/a	n/a	n/a	-999	7	[0, 0, 0]	n/a	FR1	1	R1195E
842.947	10.428	882925	COUNTDOWN_START	n/a	n/a	n/a	-999	7	[0, 0, 0]	n/a	FR1	1	R1195E
853.375	0.007	893353	COUNTDOWN_END	n/a	n/a	n/a	-999	7	[0, 0, 0]	n/a	FR1	1	R1195E
853.382	1.617	893360	ORIENT	n/a	n/a	n/a	-999	7	[0, 0, 0]	n/a	FR1	1	R1195E
854.999	2.083	894977	ORIENT_OFF	n/a	n/a	n/a	-999	7	[0, 0, 0]	n/a	FR1	1	R1195E
857.082	1.618	897059	WORD	n/a	wordpools/wordpool_EN.txt	POOL	1	7	[0, 0, 0]	n/a	FR1	1	R1195E
858.7	0.916	898677	WORD_OFF	n/a	n/a	POOL	1	7	[0, 0, 0]	n/a	FR1	1	R1195E
859.616	1.616	899593	WORD	n/a	wordpools/wordpool_EN.txt	SUIT	2	7	[0, 0, 0]	n/a	FR1	1	R1195E
861.232	0.785	901209	WORD_OFF	n/a	n/a	SUIT	2	7	[0, 0, 0]	n/a	FR1	1	R1195E
862.017	1.617	901994	WORD	n/a	wordpools/wordpool_EN.txt	CAGE	3	7	[0, 0, 0]	n/a	FR1	1	R1195E
863.634	0.933	903611	WORD_OFF	n/a	n/a	CAGE	3	7	[0, 0, 0]	n/a	FR1	1	R1195E
864.567	1.616	904544	WORD	n/a	wordpools/wordpool_EN.txt	TANK	4	7	[0, 0, 0]	n/a	FR1	1	R1195E
866.183	0.835	906160	WORD_OFF	n/a	n/a	TANK	4	7	[0, 0, 0]	n/a	FR1	1	R1195E
867.018	1.617	906995	WORD	n/a	wordpools/wordpool_EN.txt	TEA	5	7	[0, 0, 0]	n/a	FR1	1	R1195E
868.635	1.0	908612	WORD_OFF	n/a	n/a	TEA	5	7	[0, 0, 0]	n/a	FR1	1	R1195E
869.635	1.616	909612	WORD	n/a	wordpools/wordpool_EN.txt	BROOM	6	7	[0, 0, 0]	n/a	FR1	1	R1195E
871.251	0.883	911228	WORD_OFF	n/a	n/a	BROOM	6	7	[0, 0, 0]	n/a	FR1	1	R1195E
872.134	1.618	912111	WORD	n/a	wordpools/wordpool_EN.txt	LAWN	7	7	[0, 0, 0]	n/a	FR1	1	R1195E
873.752	0.9	913729	WORD_OFF	n/a	n/a	LAWN	7	7	[0, 0, 0]	n/a	FR1	1	R1195E
874.652	1.616	914629	WORD	n/a	wordpools/wordpool_EN.txt	WEED	8	7	[0, 0, 0]	n/a	FR1	1	R1195E
876.268	0.901	916245	WORD_OFF	n/a	n/a	WEED	8	7	[0, 0, 0]	n/a	FR1	1	R1195E
877.169	1.617	917146	WORD	n/a	wordpools/wordpool_EN.txt	HOSE	9	7	[0, 0, 0]	n/a	FR1	1	R1195E
878.786	0.917	918763	WORD_OFF	n/a	n/a	HOSE	9	7	[0, 0, 0]	n/a	FR1	1	R1195E
879.703	1.617	919680	WORD	n/a	wordpools/wordpool_EN.txt	PARK	10	7	[0, 0, 0]	n/a	FR1	1	R1195E
881.32	0.933	921297	WORD_OFF	n/a	n/a	PARK	10	7	[0, 0, 0]	n/a	FR1	1	R1195E
882.253	1.618	922229	WORD	n/a	wordpools/wordpool_EN.txt	BENCH	11	7	[0, 0, 0]	n/a	FR1	1	R1195E
883.871	0.85	923847	WORD_OFF	n/a	n/a	BENCH	11	7	[0, 0, 0]	n/a	FR1	1	R1195E
884.721	1.617	924697	WORD	n/a	wordpools/wordpool_EN.txt	HOUSE	12	7	[0, 0, 0]	n/a	FR1	1	R1195E
886.338	0.0	926314	WORD_OFF	n/a	n/a	HOUSE	12	7	[0, 0, 0]	n/a	FR1	1	R1195E
886.338	0.0	926314	DISTRACT_START	n/a	n/a	n/a	-999	7	[0, 0, 0]	n/a	FR1	1	R1195E
886.338	0.016	926314	START	n/a	n/a	n/a	-999	7	[-999, -999, -999]	n/a	FR1	1	R1195E
886.354	7.784	926330	PROB	7.784	n/a	n/a	-999	7	[8, 7, 6]	21	FR1	1	R1195E
894.138	3.418	934114	PROB	3.418	n/a	n/a	-999	7	[5, 5, 5]	15	FR1	1	R1195E
897.556	3.683	937532	PROB	3.683	n/a	n/a	-999	7	[7, 7, 2]	16	FR1	1	R1195E
901.239	3.619	941215	PROB	3.619	n/a	n/a	-999	7	[1, 3, 3]	7	FR1	1	R1195E
904.858	7.047	944834	PROB	7.047	n/a	n/a	-999	7	[1, 6, 6]	13	FR1	1	R1195E
911.905	0.021	951880	STOP	n/a	n/a	n/a	-999	7	[-999, -999, -999]	n/a	FR1	1	R1195E
911.926	0.633	951901	DISTRACT_END	n/a	n/a	n/a	-999	7	[0, 0, 0]	n/a	FR1	1	R1195E
912.559	0.517	952534	RETRIEVAL_ORIENT	n/a	n/a	n/a	-999	7	[0, 0, 0]	n/a	FR1	1	R1195E
913.076	2.859	953051	REC_START	n/a	n/a	n/a	-999	7	[0, 0, 0]	n/a	FR1	1	R1195E
915.935	3.083	955910	REC_WORD	3.083	n/a	LAWN	7	7	[0, 0, 0]	n/a	FR1	1	R1195E
919.018	2.485	958993	REC_WORD	2.485	n/a	WEED	8	7	[0, 0, 0]	n/a	FR1	1	R1195E
921.503	5.49	961478	REC_WORD	5.49	n/a	POOL	1	7	[0, 0, 0]	n/a	FR1	1	R1195E
926.993	2.06	966968	REC_WORD	2.06	n/a	SUIT	2	7	[0, 0, 0]	n/a	FR1	1	R1195E
929.053	14.032	969028	REC_WORD_VV	14.032	n/a	<>	-999	7	[0, 0, 0]	n/a	FR1	1	R1195E
943.085	5.73	983059	REC_END	n/a	n/a	n/a	-999	7	[0, 0, 0]	n/a	FR1	1	R1195E
948.815	0.5	988789	TRIAL	n/a	n/a	n/a	-999	8	[0, 0, 0]	n/a	FR1	1	R1195E
949.315	10.428	989289	COUNTDOWN_START	n/a	n/a	n/a	-999	8	[0, 0, 0]	n/a	FR1	1	R1195E
959.743	0.008	999717	COUNTDOWN_END	n/a	n/a	n/a	-999	8	[0, 0, 0]	n/a	FR1	1	R1195E
959.751	1.617	999725	ORIENT	n/a	n/a	n/a	-999	8	[0, 0, 0]	n/a	FR1	1	R1195E
961.368	2.0	1001341	ORIENT_OFF	n/a	n/a	n/a	-999	8	[0, 0, 0]	n/a	FR1	1	R1195E
963.368	1.617	1003341	WORD	n/a	wordpools/wordpool_EN.txt	SWAMP	1	8	[0, 0, 0]	n/a	FR1	1	R1195E
964.985	0.817	1004958	WORD_OFF	n/a	n/a	SWAMP	1	8	[0, 0, 0]	n/a	FR1	1	R1195E
965.802	1.617	1005775	WORD	n/a	wordpools/wordpool_EN.txt	SNOW	2	8	[0, 0, 0]	n/a	FR1	1	R1195E
967.419	0.849	1007392	WORD_OFF	n/a	n/a	SNOW	2	8	[0, 0, 0]	n/a	FR1	1	R1195E
968.268	1.618	1008241	WORD	n/a	wordpools/wordpool_EN.txt	BALL	3	8	[0, 0, 0]	n/a	FR1	1	R1195E
969.886	0.917	1009859	WORD_OFF	n/a	n/a	BALL	3	8	[0, 0, 0]	n/a	FR1	1	R1195E
970.803	1.617	1010776	WORD	n/a	wordpools/wordpool_EN.txt	STICK	4	8	[0, 0, 0]	n/a	FR1	1	R1195E
972.42	0.9	1012393	WORD_OFF	n/a	n/a	STICK	4	8	[0, 0, 0]	n/a	FR1	1	R1195E
973.32	1.617	1013293	WORD	n/a	wordpools/wordpool_EN.txt	STORE	5	8	[0, 0, 0]	n/a	FR1	1	R1195E
974.937	0.966	1014910	WORD_OFF	n/a	n/a	STORE	5	8	[0, 0, 0]	n/a	FR1	1	R1195E
975.903	1.617	1015876	WORD	n/a	wordpools/wordpool_EN.txt	SHARK	6	8	[0, 0, 0]	n/a	FR1	1	R1195E
977.52	0.851	1017493	WORD_OFF	n/a	n/a	SHARK	6	8	[0, 0, 0]	n/a	FR1	1	R1195E
978.371	1.616	1018344	WORD	n/a	wordpools/wordpool_EN.txt	DRUM	7	8	[0, 0, 0]	n/a	FR1	1	R1195E
979.987	0.984	1019960	WORD_OFF	n/a	n/a	DRUM	7	8	[0, 0, 0]	n/a	FR1	1	R1195E
980.971	1.617	1020944	WORD	n/a	wordpools/wordpool_EN.txt	PIPE	8	8	[0, 0, 0]	n/a	FR1	1	R1195E
982.588	0.95	1022561	WORD_OFF	n/a	n/a	PIPE	8	8	[0, 0, 0]	n/a	FR1	1	R1195E
983.538	1.616	1023511	WORD	n/a	wordpools/wordpool_EN.txt	MULE	9	8	[0, 0, 0]	n/a	FR1	1	R1195E
985.154	0.95	1025127	WORD_OFF	n/a	n/a	MULE	9	8	[0, 0, 0]	n/a	FR1	1	R1195E
986.104	1.618	1026077	WORD	n/a	wordpools/wordpool_EN.txt	WING	10	8	[0, 0, 0]	n/a	FR1	1	R1195E
987.722	0.9	1027694	WORD_OFF	n/a	n/a	WING	10	8	[0, 0, 0]	n/a	FR1	1	R1195E
988.622	1.616	1028594	WORD	n/a	wordpools/wordpool_EN.txt	STRING	11	8	[0, 0, 0]	n/a	FR1	1	R1195E
990.238	0.934	1030210	WORD_OFF	n/a	n/a	STRING	11	8	[0, 0, 0]	n/a	FR1	1	R1195E
991.172	1.618	1031144	WORD	n/a	wordpools/wordpool_EN.txt	SIGN	12	8	[0, 0, 0]	n/a	FR1	1	R1195E
992.79	0.0	1032762	WORD_OFF	n/a	n/a	SIGN	12	8	[0, 0, 0]	n/a	FR1	1	R1195E
992.79	0.0	1032762	DISTRACT_START	n/a	n/a	n/a	-999	8	[0, 0, 0]	n/a	FR1	1	R1195E
992.79	0.016	1032762	START	n/a	n/a	n/a	-999	8	[-999, -999, -999]	n/a	FR1	1	R1195E
992.806	7.752	1032778	PROB	7.752	n/a	n/a	-999	8	[8, 3, 2]	13	FR1	1	R1195E
1000.558	13.594	1040530	PROB	13.594	n/a	n/a	-999	8	[7, 7, 9]	23	FR1	1	R1195E
1014.152	0.007	1054123	STOP	n/a	n/a	n/a	-999	8	[-999, -999, -999]	n/a	FR1	1	R1195E
1014.159	0.551	1054130	DISTRACT_END	n/a	n/a	n/a	-999	8	[0, 0, 0]	n/a	FR1	1	R1195E
1014.71	0.517	1054681	RETRIEVAL_ORIENT	n/a	n/a	n/a	-999	8	[0, 0, 0]	n/a	FR1	1	R1195E
1015.227	1.747	1055198	REC_START	n/a	n/a	n/a	-999	8	[0, 0, 0]	n/a	FR1	1	R1195E
1016.974	1.24	1056945	REC_WORD_VV	1.24	n/a	<>	-999	8	[0, 0, 0]	n/a	FR1	1	R1195E
1018.214	5.05	1058185	REC_WORD	5.05	n/a	STICK	4	8	[0, 0, 0]	n/a	FR1	1	R1195E
1023.264	21.972	1063235	REC_WORD	21.972	n/a	BALL	3	8	[0, 0, 0]	n/a	FR1	1	R1195E
1045.236	4.514	1085206	REC_END	n/a	n/a	n/a	-999	8	[0, 0, 0]	n/a	FR1	1	R1195E
1049.75	0.5	1089720	TRIAL	n/a	n/a	n/a	-999	9	[0, 0, 0]	n/a	FR1	1	R1195E
1050.25	10.428	1090220	COUNTDOWN_START	n/a	n/a	n/a	-999	9	[0, 0, 0]	n/a	FR1	1	R1195E
1060.678	0.007	1100648	COUNTDOWN_END	n/a	n/a	n/a	-999	9	[0, 0, 0]	n/a	FR1	1	R1195E
1060.685	1.616	1100655	ORIENT	n/a	n/a	n/a	-999	9	[0, 0, 0]	n/a	FR1	1	R1195E
1062.301	2.218	1102271	ORIENT_OFF	n/a	n/a	n/a	-999	9	[0, 0, 0]	n/a	FR1	1	R1195E
1064.519	1.616	1104489	WORD	n/a	wordpools/wordpool_EN.txt	SUN	1	9	[0, 0, 0]	n/a	FR1	1	R1195E
1066.135	0.768	1106104	WORD_OFF	n/a	n/a	SUN	1	9	[0, 0, 0]	n/a	FR1	1	R1195E
1066.903	1.617	1106872	WORD	n/a	wordpools/wordpool_EN.txt	SQUARE	2	9	[0, 0, 0]	n/a	FR1	1	R1195E
1068.52	0.933	1108489	WORD_OFF	n/a	n/a	SQUARE	2	9	[0, 0, 0]	n/a	FR1	1	R1195E
1069.453	1.616	1109422	WORD	n/a	wordpools/wordpool_EN.txt	PALM	3	9	[0, 0, 0]	n/a	FR1	1	R1195E
1071.069	0.951	1111038	WORD_OFF	n/a	n/a	PALM	3	9	[0, 0, 0]	n/a	FR1	1	R1195E
1072.02	1.617	1111989	WORD	n/a	wordpools/wordpool_EN.txt	TRASH	4	9	[0, 0, 0]	n/a	FR1	1	R1195E
1073.637	0.834	1113606	WORD_OFF	n/a	n/a	TRASH	4	9	[0, 0, 0]	n/a	FR1	1	R1195E
1074.471	1.615	1114440	WORD	n/a	wordpools/wordpool_EN.txt	SPONGE	5	9	[0, 0, 0]	n/a	FR1	1	R1195E
1076.086	0.819	1116055	WORD_OFF	n/a	n/a	SPONGE	5	9	[0, 0, 0]	n/a	FR1	1	R1195E
1076.905	1.616	1116874	WORD	n/a	wordpools/wordpool_EN.txt	STONE	6	9	[0, 0, 0]	n/a	FR1	1	R1195E
1078.521	0.801	1118490	WORD_OFF	n/a	n/a	STONE	6	9	[0, 0, 0]	n/a	FR1	1	R1195E
1079.322	1.617	1119291	WORD	n/a	wordpools/wordpool_EN.txt	SHRIMP	7	9	[0, 0, 0]	n/a	FR1	1	R1195E
1080.939	0.933	1120908	WORD_OFF	n/a	n/a	SHRIMP	7	9	[0, 0, 0]	n/a	FR1	1	R1195E
1081.872	1.617	1121841	WORD	n/a	wordpools/wordpool_EN.txt	SLEEVE	8	9	[0, 0, 0]	n/a	FR1	1	R1195E
1083.489	0.983	1123458	WORD_OFF	n/a	n/a	SLEEVE	8	9	[0, 0, 0]	n/a	FR1	1	R1195E
1084.472	1.616	1124441	WORD	n/a	wordpools/wordpool_EN.txt	CONE	9	9	[0, 0, 0]	n/a	FR1	1	R1195E
1086.088	0.868	1126057	WORD_OFF	n/a	n/a	CONE	9	9	[0, 0, 0]	n/a	FR1	1	R1195E
1086.956	1.617	1126925	WORD	n/a	wordpools/wordpool_EN.txt	HEN	10	9	[0, 0, 0]	n/a	FR1	1	R1195E
1088.573	0.834	1128542	WORD_OFF	n/a	n/a	HEN	10	9	[0, 0, 0]	n/a	FR1	1	R1195E
1089.407	1.617	1129376	WORD	n/a	wordpools/wordpool_EN.txt	APE	11	9	[0, 0, 0]	n/a	FR1	1	R1195E
1091.024	0.933	1130993	WORD_OFF	n/a	n/a	APE	11	9	[0, 0, 0]	n/a	FR1	1	R1195E
1091.957	1.617	1131926	WORD	n/a	wordpools/wordpool_EN.txt	CLIFF	12	9	[0, 0, 0]	n/a	FR1	1	R1195E
1093.574	0.0	1133542	WORD_OFF	n/a	n/a	CLIFF	12	9	[0, 0, 0]	n/a	FR1	1	R1195E
1093.574	0.001	1133542	DISTRACT_START	n/a	n/a	n/a	-999	9	[0, 0, 0]	n/a	FR1	1	R1195E
1093.575	0.016	1133543	START	n/a	n/a	n/a	-999	9	[-999, -999, -999]	n/a	FR1	1	R1195E
1093.591	4.683	1133559	PROB	4.683	n/a	n/a	-999	9	[2, 3, 6]	11	FR1	1	R1195E
1098.274	2.934	1138242	PROB	2.934	n/a	n/a	-999	9	[1, 1, 9]	11	FR1	1	R1195E
1101.208	7.519	1141176	PROB	7.519	n/a	n/a	-999	9	[6, 6, 9]	21	FR1	1	R1195E
1108.727	8.799	1148695	PROB	8.799	n/a	n/a	-999	9	[9, 9, 5]	23	FR1	1	R1195E
1117.526	0.019	1157494	STOP	n/a	n/a	n/a	-999	9	[-999, -999, -999]	n/a	FR1	1	R1195E
1117.545	0.682	1157513	DISTRACT_END	n/a	n/a	n/a	-999	9	[0, 0, 0]	n/a	FR1	1	R1195E
1118.227	0.519	1158195	RETRIEVAL_ORIENT	n/a	n/a	n/a	-999	9	[0, 0, 0]	n/a	FR1	1	R1195E
1118.746	2.417	1158713	REC_START	n/a	n/a	n/a	-999	9	[0, 0, 0]	n/a	FR1	1	R1195E
1121.163	2.248	1161130	REC_WORD	2.248	n/a	SUN	1	9	[0, 0, 0]	n/a	FR1	1	R1195E
1123.411	3.185	1163378	REC_WORD	3.185	n/a	SLEEVE	8	9	[0, 0, 0]	n/a	FR1	1	R1195E
1126.596	2.234	1166563	REC_WORD	2.234	n/a	SHRIMP	7	9	[0, 0, 0]	n/a	FR1	1	R1195E
1128.83	2.183	1168797	REC_WORD	2.183	n/a	APE	11	9	[0, 0, 0]	n/a	FR1	1	R1195E
1131.013	17.743	1170980	REC_WORD	17.743	n/a	HEN	10	9	[0, 0, 0]	n/a	FR1	1	R1195E
1148.756	6.929	1188722	REC_END	n/a	n/a	n/a	-999	9	[0, 0, 0]	n/a	FR1	1	R1195E
1155.685	0.5	1195651	TRIAL	n/a	n/a	n/a	-999	10	[0, 0, 0]	n/a	FR1	1	R1195E
1156.185	10.428	1196151	COUNTDOWN_START	n/a	n/a	n/a	-999	10	[0, 0, 0]	n/a	FR1	1	R1195E
1166.613	0.007	1206579	COUNTDOWN_END	n/a	n/a	n/a	-999	10	[0, 0, 0]	n/a	FR1	1	R1195E
1166.62	1.616	1206586	ORIENT	n/a	n/a	n/a	-999	10	[0, 0, 0]	n/a	FR1	1	R1195E
1168.236	2.252	1208202	ORIENT_OFF	n/a	n/a	n/a	-999	10	[0, 0, 0]	n/a	FR1	1	R1195E
1170.488	1.615	1210454	WORD	n/a	wordpools/wordpool_EN.txt	BOOT	1	10	[0, 0, 0]	n/a	FR1	1	R1195E
1172.103	0.802	1212068	WORD_OFF	n/a	n/a	BOOT	1	10	[0, 0, 0]	n/a	FR1	1	R1195E
1172.905	1.617	1212870	WORD	n/a	wordpools/wordpool_EN.txt	VASE	2	10	[0, 0, 0]	n/a	FR1	1	R1195E
1174.522	0.8	1214487	WORD_OFF	n/a	n/a	VASE	2	10	[0, 0, 0]	n/a	FR1	1	R1195E
1175.322	1.617	1215287	WORD	n/a	wordpools/wordpool_EN.txt	CRANE	3	10	[0, 0, 0]	n/a	FR1	1	R1195E
1176.939	1.016	1216904	WORD_OFF	n/a	n/a	CRANE	3	10	[0, 0, 0]	n/a	FR1	1	R1195E
1177.955	1.617	1217920	WORD	n/a	wordpools/wordpool_EN.txt	TIE	4	10	[0, 0, 0]	n/a	FR1	1	R1195E
1179.572	0.801	1219537	WORD_OFF	n/a	n/a	TIE	4	10	[0, 0, 0]	n/a	FR1	1	R1195E
1180.373	1.617	1220338	WORD	n/a	wordpools/wordpool_EN.txt	PIE	5	10	[0, 0, 0]	n/a	FR1	1	R1195E
1181.99	0.833	1221955	WORD_OFF	n/a	n/a	PIE	5	10	[0, 0, 0]	n/a	FR1	1	R1195E
1182.823	1.617	1222788	WORD	n/a	wordpools/wordpool_EN.txt	HAND	6	10	[0, 0, 0]	n/a	FR1	1	R1195E
1184.44	0.967	1224405	WORD_OFF	n/a	n/a	HAND	6	10	[0, 0, 0]	n/a	FR1	1	R1195E
1185.407	1.617	1225372	WORD	n/a	wordpools/wordpool_EN.txt	GOAT	7	10	[0, 0, 0]	n/a	FR1	1	R1195E
1187.024	0.783	1226989	WORD_OFF	n/a	n/a	GOAT	7	10	[0, 0, 0]	n/a	FR1	1	R1195E
1187.807	1.617	1227772	WORD	n/a	wordpools/wordpool_EN.txt	ROCK	8	10	[0, 0, 0]	n/a	FR1	1	R1195E
1189.424	1.0	1229389	WORD_OFF	n/a	n/a	ROCK	8	10	[0, 0, 0]	n/a	FR1	1	R1195E
1190.424	1.617	1230389	WORD	n/a	wordpools/wordpool_EN.txt	PEACH	9	10	[0, 0, 0]	n/a	FR1	1	R1195E
1192.041	0.984	1232006	WORD_OFF	n/a	n/a	PEACH	9	10	[0, 0, 0]	n/a	FR1	1	R1195E
1193.025	1.617	1232990	WORD	n/a	wordpools/wordpool_EN.txt	BEAK	10	10	[0, 0, 0]	n/a	FR1	1	R1195E
1194.642	0.916	1234607	WORD_OFF	n/a	n/a	BEAK	10	10	[0, 0, 0]	n/a	FR1	1	R1195E
1195.558	1.616	1235523	WORD	n/a	wordpools/wordpool_EN.txt	MUD	11	10	[0, 0, 0]	n/a	FR1	1	R1195E
1197.174	0.785	1237139	WORD_OFF	n/a	n/a	MUD	11	10	[0, 0, 0]	n/a	FR1	1	R1195E
1197.959	1.617	1237923	WORD	n/a	wordpools/wordpool_EN.txt	CART	12	10	[0, 0, 0]	n/a	FR1	1	R1195E
1199.576	0.0	1239540	WORD_OFF	n/a	n/a	CART	12	10	[0, 0, 0]	n/a	FR1	1	R1195E
1199.576	0.001	1239540	DISTRACT_START	n/a	n/a	n/a	-999	10	[0, 0, 0]	n/a	FR1	1	R1195E
1199.577	0.016	1239541	START	n/a	n/a	n/a	-999	10	[-999, -999, -999]	n/a	FR1	1	R1195E
1199.593	4.434	1239557	PROB	4.434	n/a	n/a	-999	10	[1, 9, 6]	16	FR1	1	R1195E
1204.027	3.717	1243991	PROB	3.717	n/a	n/a	-999	10	[9, 9, 2]	20	FR1	1	R1195E
1207.744	5.651	1247708	PROB	5.651	n/a	n/a	-999	10	[1, 7, 9]	17	FR1	1	R1195E
1213.395	13.245	1253359	PROB	13.245	n/a	n/a	-999	10	[9, 8, 7]	24	FR1	1	R1195E
1226.64	0.007	1266603	STOP	n/a	n/a	n/a	-999	10	[-999, -999, -999]	n/a	FR1	1	R1195E
1226.647	0.599	1266610	DISTRACT_END	n/a	n/a	n/a	-999	10	[0, 0, 0]	n/a	FR1	1	R1195E
1227.246	0.519	1267209	RETRIEVAL_ORIENT	n/a	n/a	n/a	-999	10	[0, 0, 0]	n/a	FR1	1	R1195E
1227.765	2.693	1267728	REC_START	n/a	n/a	n/a	-999	10	[0, 0, 0]	n/a	FR1	1	R1195E
1230.458	6.679	1270421	REC_WORD_VV	6.679	n/a	<>	-999	10	[0, 0, 0]	n/a	FR1	1	R1195E
1237.137	7.401	1277100	REC_WORD	7.401	n/a	BOOT	1	10	[0, 0, 0]	n/a	FR1	1	R1195E
1244.538	4.792	1284501	REC_WORD	4.792	n/a	TIE	4	10	[0, 0, 0]	n/a	FR1	1	R1195E
1249.33	8.444	1289293	REC_WORD	8.444	n/a	PIE	5	10	[0, 0, 0]	n/a	FR1	1	R1195E
1257.774	4.663	1297736	REC_END	n/a	n/a	n/a	-999	10	[0, 0, 0]	n/a	FR1	1	R1195E
1262.437	0.5	1302399	TRIAL	n/a	n/a	n/a	-999	11	[0, 0, 0]	n/a	FR1	1	R1195E
1262.937	10.428	1302899	COUNTDOWN_START	n/a	n/a	n/a	-999	11	[0, 0, 0]	n/a	FR1	1	R1195E
1273.365	0.007	1313327	COUNTDOWN_END	n/a	n/a	n/a	-999	11	[0, 0, 0]	n/a	FR1	1	R1195E
1273.372	1.617	1313334	ORIENT	n/a	n/a	n/a	-999	11	[0, 0, 0]	n/a	FR1	1	R1195E
1274.989	2.082	1314951	ORIENT_OFF	n/a	n/a	n/a	-999	11	[0, 0, 0]	n/a	FR1	1	R1195E
1277.071	1.619	1317032	WORD	n/a	wordpools/wordpool_EN.txt	CAKE	1	11	[0, 0, 0]	n/a	FR1	1	R1195E
1278.69	0.983	1318651	WORD_OFF	n/a	n/a	CAKE	1	11	[0, 0, 0]	n/a	FR1	1	R1195E
1279.673	1.616	1319634	WORD	n/a	wordpools/wordpool_EN.txt	VINE	2	11	[0, 0, 0]	n/a	FR1	1	R1195E
1281.289	0.967	1321250	WORD_OFF	n/a	n/a	VINE	2	11	[0, 0, 0]	n/a	FR1	1	R1195E
1282.256	1.618	1322217	WORD	n/a	wordpools/wordpool_EN.txt	ROOF	3	11	[0, 0, 0]	n/a	FR1	1	R1195E
1283.874	0.95	1323835	WORD_OFF	n/a	n/a	ROOF	3	11	[0, 0, 0]	n/a	FR1	1	R1195E
1284.824	1.617	1324785	WORD	n/a	wordpools/wordpool_EN.txt	WEB	4	11	[0, 0, 0]	n/a	FR1	1	R1195E
1286.441	0.934	1326402	WORD_OFF	n/a	n/a	WEB	4	11	[0, 0, 0]	n/a	FR1	1	R1195E
1287.375	1.617	1327336	WORD	n/a	wordpools/wordpool_EN.txt	JUICE	5	11	[0, 0, 0]	n/a	FR1	1	R1195E
1288.992	0.983	1328953	WORD_OFF	n/a	n/a	JUICE	5	11	[0, 0, 0]	n/a	FR1	1	R1195E
1289.975	1.617	1329936	WORD	n/a	wordpools/wordpool_EN.txt	MOUTH	6	11	[0, 0, 0]	n/a	FR1	1	R1195E
1291.592	1.017	1331553	WORD_OFF	n/a	n/a	MOUTH	6	11	[0, 0, 0]	n/a	FR1	1	R1195E
1292.609	1.616	1332570	WORD	n/a	wordpools/wordpool_EN.txt	MAT	7	11	[0, 0, 0]	n/a	FR1	1	R1195E
1294.225	0.767	1334186	WORD_OFF	n/a	n/a	MAT	7	11	[0, 0, 0]	n/a	FR1	1	R1195E
1294.992	1.618	1334953	WORD	n/a	wordpools/wordpool_EN.txt	BAG	8	11	[0, 0, 0]	n/a	FR1	1	R1195E
1296.61	0.783	1336571	WORD_OFF	n/a	n/a	BAG	8	11	[0, 0, 0]	n/a	FR1	1	R1195E
1297.393	1.617	1337354	WORD	n/a	wordpools/wordpool_EN.txt	SOUP	9	11	[0, 0, 0]	n/a	FR1	1	R1195E
1299.01	0.85	1338971	WORD_OFF	n/a	n/a	SOUP	9	11	[0, 0, 0]	n/a	FR1	1	R1195E
1299.86	1.617	1339821	WORD	n/a	wordpools/wordpool_EN.txt	BUSH	10	11	[0, 0, 0]	n/a	FR1	1	R1195E
1301.477	0.934	1341438	WORD_OFF	n/a	n/a	BUSH	10	11	[0, 0, 0]	n/a	FR1	1	R1195E
1302.411	1.616	1342372	WORD	n/a	wordpools/wordpool_EN.txt	WHALE	11	11	[0, 0, 0]	n/a	FR1	1	R1195E
1304.027	0.951	1343987	WORD_OFF	n/a	n/a	WHALE	11	11	[0, 0, 0]	n/a	FR1	1	R1195E
1304.978	1.617	1344938	WORD	n/a	wordpools/wordpool_EN.txt	GEESE	12	11	[0, 0, 0]	n/a	FR1	1	R1195E
1306.595	0.0	1346555	WORD_OFF	n/a	n/a	GEESE	12	11	[0, 0, 0]	n/a	FR1	1	R1195E
1306.595	0.0	1346555	DISTRACT_START	n/a	n/a	n/a	-999	11	[0, 0, 0]	n/a	FR1	1	R1195E
1306.595	0.016	1346555	START	n/a	n/a	n/a	-999	11	[-999, -999, -999]	n/a	FR1	1	R1195E
1306.611	9.252	1346571	PROB	9.252	n/a	n/a	-999	11	[6, 5, 8]	19	FR1	1	R1195E
1315.863	4.484	1355823	PROB	4.484	n/a	n/a	-999	11	[2, 9, 1]	12	FR1	1	R1195E
1320.347	3.484	1360307	PROB	3.484	n/a	n/a	-999	11	[4, 6, 4]	14	FR1	1	R1195E
1323.831	4.336	1363791	PROB	4.336	n/a	n/a	-999	11	[5, 1, 5]	11	FR1	1	R1195E
1328.167	0.014	1368127	STOP	n/a	n/a	n/a	-999	11	[-999, -999, -999]	n/a	FR1	1	R1195E
1328.181	0.684	1368141	DISTRACT_END	n/a	n/a	n/a	-999	11	[0, 0, 0]	n/a	FR1	1	R1195E
1328.865	0.518	1368824	RETRIEVAL_ORIENT	n/a	n/a	n/a	-999	11	[0, 0, 0]	n/a	FR1	1	R1195E
1329.383	2.922	1369342	REC_START	n/a	n/a	n/a	-999	11	[0, 0, 0]	n/a	FR1	1	R1195E
1332.305	2.388	1372264	REC_WORD	2.388	n/a	WHALE	11	11	[0, 0, 0]	n/a	FR1	1	R1195E
1334.693	12.285	1374652	REC_WORD_VV	12.285	n/a	<>	-999	11	[0, 0, 0]	n/a	FR1	1	R1195E
1346.978	5.41	1386937	REC_WORD_VV	5.41	n/a	<>	-999	11	[0, 0, 0]	n/a	FR1	1	R1195E
1352.388	1.715	1392347	REC_WORD	1.715	n/a	SUN	-999	11	[0, 0, 0]	n/a	FR1	1	R1195E
1354.103	5.289	1394062	REC_WORD	5.289	n/a	VINE	2	11	[0, 0, 0]	n/a	FR1	1	R1195E
1359.392	5.712	1399350	REC_END	n/a	n/a	n/a	-999	11	[0, 0, 0]	n/a	FR1	1	R1195E
1365.104	0.5	1405062	TRIAL	n/a	n/a	n/a	-999	12	[0, 0, 0]	n/a	FR1	1	R1195E
1365.604	10.428	1405562	COUNTDOWN_START	n/a	n/a	n/a	-999	12	[0, 0, 0]	n/a	FR1	1	R1195E
1376.032	0.008	1415990	COUNTDOWN_END	n/a	n/a	n/a	-999	12	[0, 0, 0]	n/a	FR1	1	R1195E
1376.04	1.617	1415998	ORIENT	n/a	n/a	n/a	-999	12	[0, 0, 0]	n/a	FR1	1	R1195E
1377.657	2.05	1417615	ORIENT_OFF	n/a	n/a	n/a	-999	12	[0, 0, 0]	n/a	FR1	1	R1195E
1379.707	1.617	1419665	WORD	n/a	wordpools/wordpool_EN.txt	LOCK	1	12	[0, 0, 0]	n/a	FR1	1	R1195E
1381.324	0.816	1421282	WORD_OFF	n/a	n/a	LOCK	1	12	[0, 0, 0]	n/a	FR1	1	R1195E
1382.14	1.618	1422097	WORD	n/a	wordpools/wordpool_EN.txt	KEY	2	12	[0, 0, 0]	n/a	FR1	1	R1195E
1383.758	0.917	1423715	WORD_OFF	n/a	n/a	KEY	2	12	[0, 0, 0]	n/a	FR1	1	R1195E
1384.675	1.616	1424632	WORD	n/a	wordpools/wordpool_EN.txt	BOMB	3	12	[0, 0, 0]	n/a	FR1	1	R1195E
1386.291	0.917	1426248	WORD_OFF	n/a	n/a	BOMB	3	12	[0, 0, 0]	n/a	FR1	1	R1195E
1387.208	1.601	1427165	WORD	n/a	wordpools/wordpool_EN.txt	JAR	4	12	[0, 0, 0]	n/a	FR1	1	R1195E
1388.809	0.867	1428766	WORD_OFF	n/a	n/a	JAR	4	12	[0, 0, 0]	n/a	FR1	1	R1195E
1389.676	1.616	1429633	WORD	n/a	wordpools/wordpool_EN.txt	STEM	5	12	[0, 0, 0]	n/a	FR1	1	R1195E
1391.292	0.833	1431249	WORD_OFF	n/a	n/a	STEM	5	12	[0, 0, 0]	n/a	FR1	1	R1195E
1392.125	1.618	1432082	WORD	n/a	wordpools/wordpool_EN.txt	STRAW	6	12	[0, 0, 0]	n/a	FR1	1	R1195E
1393.743	0.834	1433700	WORD_OFF	n/a	n/a	STRAW	6	12	[0, 0, 0]	n/a	FR1	1	R1195E
1394.577	1.616	1434534	WORD	n/a	wordpools/wordpool_EN.txt	BEAR	7	12	[0, 0, 0]	n/a	FR1	1	R1195E
1396.193	1.0	1436150	WORD_OFF	n/a	n/a	BEAR	7	12	[0, 0, 0]	n/a	FR1	1	R1195E
1397.193	1.618	1437150	WORD	n/a	wordpools/wordpool_EN.txt	ZOO	8	12	[0, 0, 0]	n/a	FR1	1	R1195E
1398.811	1.0	1438768	WORD_OFF	n/a	n/a	ZOO	8	12	[0, 0, 0]	n/a	FR1	1	R1195E
1399.811	1.617	1439768	WORD	n/a	wordpools/wordpool_EN.txt	EEL	9	12	[0, 0, 0]	n/a	FR1	1	R1195E
1401.428	0.883	1441385	WORD_OFF	n/a	n/a	EEL	9	12	[0, 0, 0]	n/a	FR1	1	R1195E
1402.311	1.617	1442268	WORD	n/a	wordpools/wordpool_EN.txt	POLE	10	12	[0, 0, 0]	n/a	FR1	1	R1195E
1403.928	0.834	1443885	WORD_OFF	n/a	n/a	POLE	10	12	[0, 0, 0]	n/a	FR1	1	R1195E
1404.762	1.617	1444719	WORD	n/a	wordpools/wordpool_EN.txt	BREAD	11	12	[0, 0, 0]	n/a	FR1	1	R1195E
1406.379	0.967	1446336	WORD_OFF	n/a	n/a	BREAD	11	12	[0, 0, 0]	n/a	FR1	1	R1195E
1407.346	1.617	1447303	WORD	n/a	wordpools/wordpool_EN.txt	FOG	12	12	[0, 0, 0]	n/a	FR1	1	R1195E
1408.963	0.0	1448919	WORD_OFF	n/a	n/a	FOG	12	12	[0, 0, 0]	n/a	FR1	1	R1195E
1408.963	0.0	1448919	DISTRACT_START	n/a	n/a	n/a	-999	12	[0, 0, 0]	n/a	FR1	1	R1195E
1408.963	0.016	1448919	START	n/a	n/a	n/a	-999	12	[-999, -999, -999]	n/a	FR1	1	R1195E
1408.979	4.534	1448935	PROB	4.534	n/a	n/a	-999	12	[9, 9, 4]	22	FR1	1	R1195E
1413.513	6.035	1453469	PROB	6.035	n/a	n/a	-999	12	[6, 7, 6]	19	FR1	1	R1195E
1419.548	3.367	1459504	PROB	3.367	n/a	n/a	-999	12	[1, 6, 6]	13	FR1	1	R1195E
1422.915	6.89	1462871	PROB	6.89	n/a	n/a	-999	12	[5, 9, 9]	23	FR1	1	R1195E
1429.805	0.011	1469761	STOP	n/a	n/a	n/a	-999	12	[-999, -999, -999]	n/a	FR1	1	R1195E
1429.816	0.567	1469772	DISTRACT_END	n/a	n/a	n/a	-999	12	[0, 0, 0]	n/a	FR1	1	R1195E
1430.383	0.517	1470339	RETRIEVAL_ORIENT	n/a	n/a	n/a	-999	12	[0, 0, 0]	n/a	FR1	1	R1195E
1430.9	1.742	1470856	REC_START	n/a	n/a	n/a	-999	12	[0, 0, 0]	n/a	FR1	1	R1195E
1432.642	2.706	1472598	REC_WORD	2.706	n/a	ZOO	8	12	[0, 0, 0]	n/a	FR1	1	R1195E
1435.348	1.825	1475303	REC_WORD	1.825	n/a	BEAR	7	12	[0, 0, 0]	n/a	FR1	1	R1195E
1437.173	1.314	1477128	REC_WORD	1.314	n/a	EEL	9	12	[0, 0, 0]	n/a	FR1	1	R1195E
1438.487	2.006	1478442	REC_WORD	2.006	n/a	EEL	9	12	[0, 0, 0]	n/a	FR1	1	R1195E
1440.493	5.938	1480448	REC_WORD	5.938	n/a	FOG	12	12	[0, 0, 0]	n/a	FR1	1	R1195E
1446.431	14.48	1486386	REC_WORD	14.48	n/a	BOAT	-999	12	[0, 0, 0]	n/a	FR1	1	R1195E
1460.911	6.712	1500865	REC_END	n/a	n/a	n/a	-999	12	[0, 0, 0]	n/a	FR1	1	R1195E
1467.623	0.5	1507577	TRIAL	n/a	n/a	n/a	-999	13	[0, 0, 0]	n/a	FR1	1	R1195E
1468.123	10.428	1508077	COUNTDOWN_START	n/a	n/a	n/a	-999	13	[0, 0, 0]	n/a	FR1	1	R1195E
1478.551	0.007	1518505	COUNTDOWN_END	n/a	n/a	n/a	-999	13	[0, 0, 0]	n/a	FR1	1	R1195E
1478.558	1.616	1518512	ORIENT	n/a	n/a	n/a	-999	13	[0, 0, 0]	n/a	FR1	1	R1195E
1480.174	2.318	1520128	ORIENT_OFF	n/a	n/a	n/a	-999	13	[0, 0, 0]	n/a	FR1	1	R1195E
1482.492	1.616	1522446	WORD	n/a	wordpools/wordpool_EN.txt	YARD	1	13	[0, 0, 0]	n/a	FR1	1	R1195E
1484.108	0.984	1524062	WORD_OFF	n/a	n/a	YARD	1	13	[0, 0, 0]	n/a	FR1	1	R1195E
1485.092	1.618	1525046	WORD	n/a	wordpools/wordpool_EN.txt	THUMB	2	13	[0, 0, 0]	n/a	FR1	1	R1195E
1486.71	0.833	1526663	WORD_OFF	n/a	n/a	THUMB	2	13	[0, 0, 0]	n/a	FR1	1	R1195E
1487.543	1.616	1527496	WORD	n/a	wordpools/wordpool_EN.txt	DOOR	3	13	[0, 0, 0]	n/a	FR1	1	R1195E
1489.159	0.768	1529112	WORD_OFF	n/a	n/a	DOOR	3	13	[0, 0, 0]	n/a	FR1	1	R1195E
1489.927	1.617	1529880	WORD	n/a	wordpools/wordpool_EN.txt	DESK	4	13	[0, 0, 0]	n/a	FR1	1	R1195E
1491.544	0.933	1531497	WORD_OFF	n/a	n/a	DESK	4	13	[0, 0, 0]	n/a	FR1	1	R1195E
1492.477	1.616	1532430	WORD	n/a	wordpools/wordpool_EN.txt	PURSE	5	13	[0, 0, 0]	n/a	FR1	1	R1195E
1494.093	0.851	1534046	WORD_OFF	n/a	n/a	PURSE	5	13	[0, 0, 0]	n/a	FR1	1	R1195E
1494.944	1.617	1534897	WORD	n/a	wordpools/wordpool_EN.txt	ROSE	6	13	[0, 0, 0]	n/a	FR1	1	R1195E
1496.561	1.0	1536514	WORD_OFF	n/a	n/a	ROSE	6	13	[0, 0, 0]	n/a	FR1	1	R1195E
1497.561	1.616	1537514	WORD	n/a	wordpools/wordpool_EN.txt	WALL	7	13	[0, 0, 0]	n/a	FR1	1	R1195E
1499.177	0.851	1539130	WORD_OFF	n/a	n/a	WALL	7	13	[0, 0, 0]	n/a	FR1	1	R1195E
1500.028	1.618	1539981	WORD	n/a	wordpools/wordpool_EN.txt	SAIL	8	13	[0, 0, 0]	n/a	FR1	1	R1195E
1501.646	0.966	1541599	WORD_OFF	n/a	n/a	SAIL	8	13	[0, 0, 0]	n/a	FR1	1	R1195E
1502.612	1.616	1542565	WORD	n/a	wordpools/wordpool_EN.txt	SLUSH	9	13	[0, 0, 0]	n/a	FR1	1	R1195E
1504.228	0.801	1544181	WORD_OFF	n/a	n/a	SLUSH	9	13	[0, 0, 0]	n/a	FR1	1	R1195E
1505.029	1.617	1544982	WORD	n/a	wordpools/wordpool_EN.txt	BRANCH	10	13	[0, 0, 0]	n/a	FR1	1	R1195E
1506.646	0.834	1546599	WORD_OFF	n/a	n/a	BRANCH	10	13	[0, 0, 0]	n/a	FR1	1	R1195E
1507.48	1.616	1547433	WORD	n/a	wordpools/wordpool_EN.txt	OAK	11	13	[0, 0, 0]	n/a	FR1	1	R1195E
1509.096	0.901	1549049	WORD_OFF	n/a	n/a	OAK	11	13	[0, 0, 0]	n/a	FR1	1	R1195E
1509.997	1.617	1549950	WORD	n/a	wordpools/wordpool_EN.txt	HORN	12	13	[0, 0, 0]	n/a	FR1	1	R1195E
1511.614	0.0	1551567	WORD_OFF	n/a	n/a	HORN	12	13	[0, 0, 0]	n/a	FR1	1	R1195E
1511.614	0.001	1551567	DISTRACT_START	n/a	n/a	n/a	-999	13	[0, 0, 0]	n/a	FR1	1	R1195E
1511.615	0.015	1551568	START	n/a	n/a	n/a	-999	13	[-999, -999, -999]	n/a	FR1	1	R1195E
1511.63	7.618	1551583	PROB	7.618	n/a	n/a	-999	13	[8, 5, 4]	17	FR1	1	R1195E
1519.248	4.101	1559200	PROB	4.101	n/a	n/a	-999	13	[3, 4, 2]	9	FR1	1	R1195E
1523.349	3.034	1563301	PROB	3.034	n/a	n/a	-999	13	[3, 7, 1]	11	FR1	1	R1195E
1526.383	5.491	1566335	PROB	5.491	n/a	n/a	-999	13	[3, 6, 1]	10	FR1	1	R1195E
1531.874	0.01	1571826	STOP	n/a	n/a	n/a	-999	13	[-999, -999, -999]	n/a	FR1	1	R1195E
1531.884	0.6	1571836	DISTRACT_END	n/a	n/a	n/a	-999	13	[0, 0, 0]	n/a	FR1	1	R1195E
1532.484	0.518	1572436	RETRIEVAL_ORIENT	n/a	n/a	n/a	-999	13	[0, 0, 0]	n/a	FR1	1	R1195E
1533.002	4.01	1572954	REC_START	n/a	n/a	n/a	-999	13	[0, 0, 0]	n/a	FR1	1	R1195E
1537.012	3.596	1576964	REC_WORD	3.596	n/a	SAIL	8	13	[0, 0, 0]	n/a	FR1	1	R1195E
1540.608	13.622	1580559	REC_WORD	13.622	n/a	SLUSH	9	13	[0, 0, 0]	n/a	FR1	1	R1195E
1554.23	8.781	1594181	REC_WORD_VV	8.781	n/a	<>	-999	13	[0, 0, 0]	n/a	FR1	1	R1195E
1563.011	5.98	1602962	REC_END	n/a	n/a	n/a	-999	13	[0, 0, 0]	n/a	FR1	1	R1195E
1568.991	0.5	1608941	TRIAL	n/a	n/a	n/a	-999	14	[0, 0, 0]	n/a	FR1	1	R1195E
1569.491	10.428	1609441	COUNTDOWN_START	n/a	n/a	n/a	-999	14	[0, 0, 0]	n/a	FR1	1	R1195E
1579.919	0.007	1619869	COUNTDOWN_END	n/a	n/a	n/a	-999	14	[0, 0, 0]	n/a	FR1	1	R1195E
1579.926	1.617	1619876	ORIENT	n/a	n/a	n/a	-999	14	[0, 0, 0]	n/a	FR1	1	R1195E
1581.543	2.317	1621493	ORIENT_OFF	n/a	n/a	n/a	-999	14	[0, 0, 0]	n/a	FR1	1	R1195E
1583.86	1.617	1623810	WORD	n/a	wordpools/wordpool_EN.txt	LAMB	1	14	[0, 0, 0]	n/a	FR1	1	R1195E
1585.477	0.983	1625427	WORD_OFF	n/a	n/a	LAMB	1	14	[0, 0, 0]	n/a	FR1	1	R1195E
1586.46	1.616	1626410	WORD	n/a	wordpools/wordpool_EN.txt	HOOK	2	14	[0, 0, 0]	n/a	FR1	1	R1195E
1588.076	0.801	1628026	WORD_OFF	n/a	n/a	HOOK	2	14	[0, 0, 0]	n/a	FR1	1	R1195E
1588.877	1.617	1628827	WORD	n/a	wordpools/wordpool_EN.txt	INK	3	14	[0, 0, 0]	n/a	FR1	1	R1195E
1590.494	0.867	1630444	WORD_OFF	n/a	n/a	INK	3	14	[0, 0, 0]	n/a	FR1	1	R1195E
1591.361	1.617	1631311	WORD	n/a	wordpools/wordpool_EN.txt	SHIP	4	14	[0, 0, 0]	n/a	FR1	1	R1195E
1592.978	0.967	1632927	WORD_OFF	n/a	n/a	SHIP	4	14	[0, 0, 0]	n/a	FR1	1	R1195E
1593.945	1.617	1633894	WORD	n/a	wordpools/wordpool_EN.txt	EAR	5	14	[0, 0, 0]	n/a	FR1	1	R1195E
1595.562	0.95	1635511	WORD_OFF	n/a	n/a	EAR	5	14	[0, 0, 0]	n/a	FR1	1	R1195E
1596.512	1.616	1636461	WORD	n/a	wordpools/wordpool_EN.txt	FOOD	6	14	[0, 0, 0]	n/a	FR1	1	R1195E
1598.128	0.801	1638077	WORD_OFF	n/a	n/a	FOOD	6	14	[0, 0, 0]	n/a	FR1	1	R1195E
1598.929	1.617	1638878	WORD	n/a	wordpools/wordpool_EN.txt	BLUSH	7	14	[0, 0, 0]	n/a	FR1	1	R1195E
1600.546	0.934	1640495	WORD_OFF	n/a	n/a	BLUSH	7	14	[0, 0, 0]	n/a	FR1	1	R1195E
1601.48	1.616	1641429	WORD	n/a	wordpools/wordpool_EN.txt	TENT	8	14	[0, 0, 0]	n/a	FR1	1	R1195E
1603.096	0.817	1643045	WORD_OFF	n/a	n/a	TENT	8	14	[0, 0, 0]	n/a	FR1	1	R1195E
1603.913	1.617	1643862	WORD	n/a	wordpools/wordpool_EN.txt	JAIL	9	14	[0, 0, 0]	n/a	FR1	1	R1195E
1605.53	0.901	1645479	WORD_OFF	n/a	n/a	JAIL	9	14	[0, 0, 0]	n/a	FR1	1	R1195E
1606.431	1.616	1646380	WORD	n/a	wordpools/wordpool_EN.txt	CALF	10	14	[0, 0, 0]	n/a	FR1	1	R1195E
1608.047	0.901	1647996	WORD_OFF	n/a	n/a	CALF	10	14	[0, 0, 0]	n/a	FR1	1	R1195E
1608.948	1.617	1648897	WORD	n/a	wordpools/wordpool_EN.txt	PRINCE	11	14	[0, 0, 0]	n/a	FR1	1	R1195E
1610.565	0.866	1650514	WORD_OFF	n/a	n/a	PRINCE	11	14	[0, 0, 0]	n/a	FR1	1	R1195E
1611.431	1.617	1651380	WORD	n/a	wordpools/wordpool_EN.txt	VAN	12	14	[0, 0, 0]	n/a	FR1	1	R1195E
1613.048	0.0	1652997	WORD_OFF	n/a	n/a	VAN	12	14	[0, 0, 0]	n/a	FR1	1	R1195E
1613.048	0.001	1652997	DISTRACT_START	n/a	n/a	n/a	-999	14	[0, 0, 0]	n/a	FR1	1	R1195E
1613.049	0.015	1652998	START	n/a	n/a	n/a	-999	14	[-999, -999, -999]	n/a	FR1	1	R1195E
1613.064	6.419	1653013	PROB	6.419	n/a	n/a	-999	14	[4, 4, 6]	14	FR1	1	R1195E
1619.483	6.368	1659431	PROB	6.368	n/a	n/a	-999	14	[9, 5, 2]	16	FR1	1	R1195E
1625.851	4.967	1665799	PROB	4.967	n/a	n/a	-999	14	[1, 3, 2]	6	FR1	1	R1195E
1630.818	4.041	1670766	PROB	4.041	n/a	n/a	-999	14	[7, 2, 5]	14	FR1	1	R1195E
1634.859	0.01	1674807	STOP	n/a	n/a	n/a	-999	14	[-999, -999, -999]	n/a	FR1	1	R1195E
1634.869	0.567	1674817	DISTRACT_END	n/a	n/a	n/a	-999	14	[0, 0, 0]	n/a	FR1	1	R1195E
1635.436	0.517	1675384	RETRIEVAL_ORIENT	n/a	n/a	n/a	-999	14	[0, 0, 0]	n/a	FR1	1	R1195E
1635.953	1.352	1675901	REC_START	n/a	n/a	n/a	-999	14	[0, 0, 0]	n/a	FR1	1	R1195E
1637.305	0.723	1677253	REC_WORD_VV	0.723	n/a	<>	-999	14	[0, 0, 0]	n/a	FR1	1	R1195E
1638.028	13.001	1677976	REC_WORD	13.001	n/a	PRINCE	11	14	[0, 0, 0]	n/a	FR1	1	R1195E
1651.029	7.52	1690976	REC_WORD	7.52	n/a	FOOD	6	14	[0, 0, 0]	n/a	FR1	1	R1195E
1658.549	7.413	1698496	REC_WORD	7.413	n/a	FINE	-999	14	[0, 0, 0]	n/a	FR1	1	R1195E
1665.962	32.768	1705909	REC_END	n/a	n/a	n/a	-999	14	[0, 0, 0]	n/a	FR1	1	R1195E
1698.73	0.5	1738675	TRIAL	n/a	n/a	n/a	-999	15	[0, 0, 0]	n/a	FR1	1	R1195E
1699.23	10.428	1739175	COUNTDOWN_START	n/a	n/a	n/a	-999	15	[0, 0, 0]	n/a	FR1	1	R1195E
1709.658	0.007	1749603	COUNTDOWN_END	n/a	n/a	n/a	-999	15	[0, 0, 0]	n/a	FR1	1	R1195E
1709.665	1.616	1749610	ORIENT	n/a	n/a	n/a	-999	15	[0, 0, 0]	n/a	FR1	1	R1195E
1711.281	2.118	1751226	ORIENT_OFF	n/a	n/a	n/a	-999	15	[0, 0, 0]	n/a	FR1	1	R1195E
1713.399	1.617	1753344	WORD	n/a	wordpools/wordpool_EN.txt	TOOTH	1	15	[0, 0, 0]	n/a	FR1	1	R1195E
1715.016	0.8	1754961	WORD_OFF	n/a	n/a	TOOTH	1	15	[0, 0, 0]	n/a	FR1	1	R1195E
1715.816	1.617	1755761	WORD	n/a	wordpools/wordpool_EN.txt	CORD	2	15	[0, 0, 0]	n/a	FR1	1	R1195E
1717.433	0.9	1757378	WORD_OFF	n/a	n/a	CORD	2	15	[0, 0, 0]	n/a	FR1	1	R1195E
1718.333	1.617	1758278	WORD	n/a	wordpools/wordpool_EN.txt	PEARL	3	15	[0, 0, 0]	n/a	FR1	1	R1195E
1719.95	0.85	1759895	WORD_OFF	n/a	n/a	PEARL	3	15	[0, 0, 0]	n/a	FR1	1	R1195E
1720.8	1.618	1760745	WORD	n/a	wordpools/wordpool_EN.txt	CASH	4	15	[0, 0, 0]	n/a	FR1	1	R1195E
1722.418	0.966	1762363	WORD_OFF	n/a	n/a	CASH	4	15	[0, 0, 0]	n/a	FR1	1	R1195E
1723.384	1.617	1763328	WORD	n/a	wordpools/wordpool_EN.txt	SHEET	5	15	[0, 0, 0]	n/a	FR1	1	R1195E
1725.001	0.967	1764945	WORD_OFF	n/a	n/a	SHEET	5	15	[0, 0, 0]	n/a	FR1	1	R1195E
1725.968	1.617	1765912	WORD	n/a	wordpools/wordpool_EN.txt	TEETH	6	15	[0, 0, 0]	n/a	FR1	1	R1195E
1727.585	0.933	1767529	WORD_OFF	n/a	n/a	TEETH	6	15	[0, 0, 0]	n/a	FR1	1	R1195E
1728.518	1.617	1768462	WORD	n/a	wordpools/wordpool_EN.txt	KITE	7	15	[0, 0, 0]	n/a	FR1	1	R1195E
1730.135	0.834	1770079	WORD_OFF	n/a	n/a	KITE	7	15	[0, 0, 0]	n/a	FR1	1	R1195E
1730.969	1.617	1770913	WORD	n/a	wordpools/wordpool_EN.txt	FILM	8	15	[0, 0, 0]	n/a	FR1	1	R1195E
1732.586	0.9	1772530	WORD_OFF	n/a	n/a	FILM	8	15	[0, 0, 0]	n/a	FR1	1	R1195E
1733.486	1.616	1773430	WORD	n/a	wordpools/wordpool_EN.txt	JUDGE	9	15	[0, 0, 0]	n/a	FR1	1	R1195E
1735.102	0.967	1775046	WORD_OFF	n/a	n/a	JUDGE	9	15	[0, 0, 0]	n/a	FR1	1	R1195E
1736.069	1.618	1776013	WORD	n/a	wordpools/wordpool_EN.txt	THREAD	10	15	[0, 0, 0]	n/a	FR1	1	R1195E
1737.687	0.883	1777631	WORD_OFF	n/a	n/a	THREAD	10	15	[0, 0, 0]	n/a	FR1	1	R1195E
1738.57	1.616	1778514	WORD	n/a	wordpools/wordpool_EN.txt	NAIL	11	15	[0, 0, 0]	n/a	FR1	1	R1195E
1740.186	0.967	1780130	WORD_OFF	n/a	n/a	NAIL	11	15	[0, 0, 0]	n/a	FR1	1	R1195E
1741.153	1.601	1781097	WORD	n/a	wordpools/wordpool_EN.txt	FOX	12	15	[0, 0, 0]	n/a	FR1	1	R1195E
1742.754	0.0	1782698	DISTRACT_START	n/a	n/a	n/a	-999	15	[0, 0, 0]	n/a	FR1	1	R1195E
1742.754	0.001	1782698	WORD_OFF	n/a	n/a	FOX	12	15	[0, 0, 0]	n/a	FR1	1	R1195E
1742.755	0.016	1782699	START	n/a	n/a	n/a	-999	15	[-999, -999, -999]	n/a	FR1	1	R1195E
1742.771	7.751	1782715	PROB	7.751	n/a	n/a	-999	15	[2, 4, 7]	13	FR1	1	R1195E
1750.522	3.667	1790465	PROB	3.667	n/a	n/a	-999	15	[5, 6, 2]	13	FR1	1	R1195E
1754.189	9.773	1794132	PROB	9.773	n/a	n/a	-999	15	[5, 6, 7]	18	FR1	1	R1195E
1763.962	0.013	1803905	STOP	n/a	n/a	n/a	-999	15	[-999, -999, -999]	n/a	FR1	1	R1195E
1763.975	0.567	1803918	DISTRACT_END	n/a	n/a	n/a	-999	15	[0, 0, 0]	n/a	FR1	1	R1195E
1764.542	0.516	1804485	RETRIEVAL_ORIENT	n/a	n/a	n/a	-999	15	[0, 0, 0]	n/a	FR1	1	R1195E
1765.058	2.032	1805001	REC_START	n/a	n/a	n/a	-999	15	[0, 0, 0]	n/a	FR1	1	R1195E
1767.09	5.319	1807033	REC_WORD	5.319	n/a	TEETH	6	15	[0, 0, 0]	n/a	FR1	1	R1195E
1772.409	10.708	1812352	REC_WORD_VV	10.708	n/a	<>	-999	15	[0, 0, 0]	n/a	FR1	1	R1195E
1783.117	3.769	1823059	REC_WORD	3.769	n/a	FAIRY	-999	15	[0, 0, 0]	n/a	FR1	1	R1195E
1786.886	8.181	1826828	REC_WORD	8.181	n/a	TOOTH	1	15	[0, 0, 0]	n/a	FR1	1	R1195E
1795.067	4.864	1835009	REC_END	n/a	n/a	n/a	-999	15	[0, 0, 0]	n/a	FR1	1	R1195E
1799.931	0.5	1839873	TRIAL	n/a	n/a	n/a	-999	16	[0, 0, 0]	n/a	FR1	1	R1195E
1800.431	10.428	1840373	COUNTDOWN_START	n/a	n/a	n/a	-999	16	[0, 0, 0]	n/a	FR1	1	R1195E
1810.859	0.007	1850800	COUNTDOWN_END	n/a	n/a	n/a	-999	16	[0, 0, 0]	n/a	FR1	1	R1195E
1810.866	1.617	1850807	ORIENT	n/a	n/a	n/a	-999	16	[0, 0, 0]	n/a	FR1	1	R1195E
1812.483	2.101	1852424	ORIENT_OFF	n/a	n/a	n/a	-999	16	[0, 0, 0]	n/a	FR1	1	R1195E
1814.584	1.616	1854525	WORD	n/a	wordpools/wordpool_EN.txt	ARM	1	16	[0, 0, 0]	n/a	FR1	1	R1195E
1816.2	0.767	1856141	WORD_OFF	n/a	n/a	ARM	1	16	[0, 0, 0]	n/a	FR1	1	R1195E
1816.967	1.617	1856908	WORD	n/a	wordpools/wordpool_EN.txt	TREE	2	16	[0, 0, 0]	n/a	FR1	1	R1195E
1818.584	0.85	1858525	WORD_OFF	n/a	n/a	TREE	2	16	[0, 0, 0]	n/a	FR1	1	R1195E
1819.434	1.617	1859375	WORD	n/a	wordpools/wordpool_EN.txt	STOVE	3	16	[0, 0, 0]	n/a	FR1	1	R1195E
1821.051	0.817	1860992	WORD_OFF	n/a	n/a	STOVE	3	16	[0, 0, 0]	n/a	FR1	1	R1195E
1821.868	1.617	1861809	WORD	n/a	wordpools/wordpool_EN.txt	BARN	4	16	[0, 0, 0]	n/a	FR1	1	R1195E
1823.485	0.9	1863426	WORD_OFF	n/a	n/a	BARN	4	16	[0, 0, 0]	n/a	FR1	1	R1195E
1824.385	1.617	1864326	WORD	n/a	wordpools/wordpool_EN.txt	SEAL	5	16	[0, 0, 0]	n/a	FR1	1	R1195E
1826.002	0.867	1865943	WORD_OFF	n/a	n/a	SEAL	5	16	[0, 0, 0]	n/a	FR1	1	R1195E
1826.869	1.617	1866810	WORD	n/a	wordpools/wordpool_EN.txt	BOX	6	16	[0, 0, 0]	n/a	FR1	1	R1195E
1828.486	0.783	1868426	WORD_OFF	n/a	n/a	BOX	6	16	[0, 0, 0]	n/a	FR1	1	R1195E
1829.269	1.618	1869209	WORD	n/a	wordpools/wordpool_EN.txt	PLATE	7	16	[0, 0, 0]	n/a	FR1	1	R1195E
1830.887	0.783	1870827	WORD_OFF	n/a	n/a	PLATE	7	16	[0, 0, 0]	n/a	FR1	1	R1195E
1831.67	1.616	1871610	WORD	n/a	wordpools/wordpool_EN.txt	HEART	8	16	[0, 0, 0]	n/a	FR1	1	R1195E
1833.286	0.817	1873226	WORD_OFF	n/a	n/a	HEART	8	16	[0, 0, 0]	n/a	FR1	1	R1195E
1834.103	1.618	1874043	WORD	n/a	wordpools/wordpool_EN.txt	LIP	9	16	[0, 0, 0]	n/a	FR1	1	R1195E
1835.721	0.95	1875661	WORD_OFF	n/a	n/a	LIP	9	16	[0, 0, 0]	n/a	FR1	1	R1195E
1836.671	1.616	1876611	WORD	n/a	wordpools/wordpool_EN.txt	SNAKE	10	16	[0, 0, 0]	n/a	FR1	1	R1195E
1838.287	0.983	1878227	WORD_OFF	n/a	n/a	SNAKE	10	16	[0, 0, 0]	n/a	FR1	1	R1195E
1839.27	1.601	1879210	WORD	n/a	wordpools/wordpool_EN.txt	DEER	11	16	[0, 0, 0]	n/a	FR1	1	R1195E
1840.871	0.984	1880811	WORD_OFF	n/a	n/a	DEER	11	16	[0, 0, 0]	n/a	FR1	1	R1195E
1841.855	1.617	1881795	WORD	n/a	wordpools/wordpool_EN.txt	WAND	12	16	[0, 0, 0]	n/a	FR1	1	R1195E
1843.472	0.0	1883412	WORD_OFF	n/a	n/a	WAND	12	16	[0, 0, 0]	n/a	FR1	1	R1195E
1843.472	0.001	1883412	DISTRACT_START	n/a	n/a	n/a	-999	16	[0, 0, 0]	n/a	FR1	1	R1195E
1843.473	0.016	1883413	START	n/a	n/a	n/a	-999	16	[-999, -999, -999]	n/a	FR1	1	R1195E
1843.489	5.284	1883429	PROB	5.284	n/a	n/a	-999	16	[3, 9, 4]	16	FR1	1	R1195E
1848.773	4.617	1888713	PROB	4.617	n/a	n/a	-999	16	[5, 8, 1]	14	FR1	1	R1195E
1853.39	4.151	1893330	PROB	4.151	n/a	n/a	-999	16	[8, 2, 1]	11	FR1	1	R1195E
1857.541	8.167	1897480	PROB	8.167	n/a	n/a	-999	16	[8, 9, 1]	18	FR1	1	R1195E
1865.708	0.018	1905647	STOP	n/a	n/a	n/a	-999	16	[-999, -999, -999]	n/a	FR1	1	R1195E
1865.726	0.667	1905665	DISTRACT_END	n/a	n/a	n/a	-999	16	[0, 0, 0]	n/a	FR1	1	R1195E
1866.393	0.517	1906332	RETRIEVAL_ORIENT	n/a	n/a	n/a	-999	16	[0, 0, 0]	n/a	FR1	1	R1195E
1866.91	1.977	1906849	REC_START	n/a	n/a	n/a	-999	16	[0, 0, 0]	n/a	FR1	1	R1195E
1868.887	2.88	1908826	REC_WORD	2.88	n/a	ARM	1	16	[0, 0, 0]	n/a	FR1	1	R1195E
1871.767	2.505	1911706	REC_WORD	2.505	n/a	SEAL	5	16	[0, 0, 0]	n/a	FR1	1	R1195E
1874.272	9.939	1914211	REC_WORD	9.939	n/a	BOX	6	16	[0, 0, 0]	n/a	FR1	1	R1195E
1884.211	12.708	1924149	REC_WORD	12.708	n/a	DEER	11	16	[0, 0, 0]	n/a	FR1	1	R1195E
1896.919	6.93	1936857	REC_END	n/a	n/a	n/a	-999	16	[0, 0, 0]	n/a	FR1	1	R1195E
1903.849	0.5	1943787	TRIAL	n/a	n/a	n/a	-999	17	[0, 0, 0]	n/a	FR1	1	R1195E
1904.349	10.428	1944287	COUNTDOWN_START	n/a	n/a	n/a	-999	17	[0, 0, 0]	n/a	FR1	1	R1195E
1914.777	0.007	1954714	COUNTDOWN_END	n/a	n/a	n/a	-999	17	[0, 0, 0]	n/a	FR1	1	R1195E
1914.784	1.617	1954721	ORIENT	n/a	n/a	n/a	-999	17	[0, 0, 0]	n/a	FR1	1	R1195E
1916.401	2.101	1956338	ORIENT_OFF	n/a	n/a	n/a	-999	17	[0, 0, 0]	n/a	FR1	1	R1195E
1918.502	1.616	1958439	WORD	n/a	wordpools/wordpool_EN.txt	TOAD	1	17	[0, 0, 0]	n/a	FR1	1	R1195E
1920.118	0.967	1960055	WORD_OFF	n/a	n/a	TOAD	1	17	[0, 0, 0]	n/a	FR1	1	R1195E
1921.085	1.618	1961022	WORD	n/a	wordpools/wordpool_EN.txt	GRASS	2	17	[0, 0, 0]	n/a	FR1	1	R1195E
1922.703	0.916	1962640	WORD_OFF	n/a	n/a	GRASS	2	17	[0, 0, 0]	n/a	FR1	1	R1195E
1923.619	1.616	1963556	WORD	n/a	wordpools/wordpool_EN.txt	DIME	3	17	[0, 0, 0]	n/a	FR1	1	R1195E
1925.235	0.85	1965172	WORD_OFF	n/a	n/a	DIME	3	17	[0, 0, 0]	n/a	FR1	1	R1195E
1926.085	1.601	1966022	WORD	n/a	wordpools/wordpool_EN.txt	PEAR	4	17	[0, 0, 0]	n/a	FR1	1	R1195E
1927.686	0.901	1967623	WORD_OFF	n/a	n/a	PEAR	4	17	[0, 0, 0]	n/a	FR1	1	R1195E
1928.587	1.616	1968524	WORD	n/a	wordpools/wordpool_EN.txt	TOAST	5	17	[0, 0, 0]	n/a	FR1	1	R1195E
1930.203	0.883	1970140	WORD_OFF	n/a	n/a	TOAST	5	17	[0, 0, 0]	n/a	FR1	1	R1195E
1931.086	1.618	1971023	WORD	n/a	wordpools/wordpool_EN.txt	LEAF	6	17	[0, 0, 0]	n/a	FR1	1	R1195E
1932.704	0.9	1972641	WORD_OFF	n/a	n/a	LEAF	6	17	[0, 0, 0]	n/a	FR1	1	R1195E
1933.604	1.616	1973540	WORD	n/a	wordpools/wordpool_EN.txt	FUDGE	7	17	[0, 0, 0]	n/a	FR1	1	R1195E
1935.22	0.934	1975156	WORD_OFF	n/a	n/a	FUDGE	7	17	[0, 0, 0]	n/a	FR1	1	R1195E
1936.154	1.618	1976090	WORD	n/a	wordpools/wordpool_EN.txt	DOLL	8	17	[0, 0, 0]	n/a	FR1	1	R1195E
1937.772	0.917	1977708	WORD_OFF	n/a	n/a	DOLL	8	17	[0, 0, 0]	n/a	FR1	1	R1195E
1938.689	1.616	1978625	WORD	n/a	wordpools/wordpool_EN.txt	HILL	9	17	[0, 0, 0]	n/a	FR1	1	R1195E
1940.305	0.866	1980241	WORD_OFF	n/a	n/a	HILL	9	17	[0, 0, 0]	n/a	FR1	1	R1195E
1941.171	1.602	1981107	WORD	n/a	wordpools/wordpool_EN.txt	ANT	10	17	[0, 0, 0]	n/a	FR1	1	R1195E
1942.773	0.967	1982709	WORD_OFF	n/a	n/a	ANT	10	17	[0, 0, 0]	n/a	FR1	1	R1195E
1943.74	1.617	1983676	WORD	n/a	wordpools/wordpool_EN.txt	CHEEK	11	17	[0, 0, 0]	n/a	FR1	1	R1195E
1945.357	0.932	1985293	WORD_OFF	n/a	n/a	CHEEK	11	17	[0, 0, 0]	n/a	FR1	1	R1195E
1946.289	1.618	1986225	WORD	n/a	wordpools/wordpool_EN.txt	PASTE	12	17	[0, 0, 0]	n/a	FR1	1	R1195E
1947.907	0.0	1987843	WORD_OFF	n/a	n/a	PASTE	12	17	[0, 0, 0]	n/a	FR1	1	R1195E
1947.907	0.001	1987843	DISTRACT_START	n/a	n/a	n/a	-999	17	[0, 0, 0]	n/a	FR1	1	R1195E
1947.908	0.016	1987844	START	n/a	n/a	n/a	-999	17	[-999, -999, -999]	n/a	FR1	1	R1195E
1947.924	9.501	1987860	PROB	9.501	n/a	n/a	-999	17	[8, 8, 9]	25	FR1	1	R1195E
1957.425	5.268	1997361	PROB	5.268	n/a	n/a	-999	17	[9, 9, 4]	24	FR1	1	R1195E
1962.693	8.159	2002628	PROB	8.159	n/a	n/a	-999	17	[6, 5, 9]	20	FR1	1	R1195E
1970.852	0.009	2010787	STOP	n/a	n/a	n/a	-999	17	[-999, -999, -999]	n/a	FR1	1	R1195E
1970.861	0.583	2010796	DISTRACT_END	n/a	n/a	n/a	-999	17	[0, 0, 0]	n/a	FR1	1	R1195E
1971.444	0.518	2011379	RETRIEVAL_ORIENT	n/a	n/a	n/a	-999	17	[0, 0, 0]	n/a	FR1	1	R1195E
1971.962	2.078	2011897	REC_START	n/a	n/a	n/a	-999	17	[0, 0, 0]	n/a	FR1	1	R1195E
1974.04	1.633	2013975	REC_WORD_VV	1.633	n/a	<>	-999	17	[0, 0, 0]	n/a	FR1	1	R1195E
1975.673	6.135	2015608	REC_WORD	6.135	n/a	FUDGE	7	17	[0, 0, 0]	n/a	FR1	1	R1195E
1981.808	7.902	2021743	REC_WORD	7.902	n/a	DOLL	8	17	[0, 0, 0]	n/a	FR1	1	R1195E
1989.71	12.262	2029644	REC_WORD	12.262	n/a	HILL	9	17	[0, 0, 0]	n/a	FR1	1	R1195E
2001.972	5.412	2041906	REC_END	n/a	n/a	n/a	-999	17	[0, 0, 0]	n/a	FR1	1	R1195E
2007.384	0.5	2047318	TRIAL	n/a	n/a	n/a	-999	18	[0, 0, 0]	n/a	FR1	1	R1195E
2007.884	10.428	2047818	COUNTDOWN_START	n/a	n/a	n/a	-999	18	[0, 0, 0]	n/a	FR1	1	R1195E
2018.312	0.007	2058245	COUNTDOWN_END	n/a	n/a	n/a	-999	18	[0, 0, 0]	n/a	FR1	1	R1195E
2018.319	1.617	2058252	ORIENT	n/a	n/a	n/a	-999	18	[0, 0, 0]	n/a	FR1	1	R1195E
2019.936	2.3	2059869	ORIENT_OFF	n/a	n/a	n/a	-999	18	[0, 0, 0]	n/a	FR1	1	R1195E
2022.236	1.618	2062169	WORD	n/a	wordpools/wordpool_EN.txt	BOWL	1	18	[0, 0, 0]	n/a	FR1	1	R1195E
2023.854	0.9	2063787	WORD_OFF	n/a	n/a	BOWL	1	18	[0, 0, 0]	n/a	FR1	1	R1195E
2024.754	1.617	2064687	WORD	n/a	wordpools/wordpool_EN.txt	ARK	2	18	[0, 0, 0]	n/a	FR1	1	R1195E
2026.371	0.816	2066304	WORD_OFF	n/a	n/a	ARK	2	18	[0, 0, 0]	n/a	FR1	1	R1195E
2027.187	1.617	2067120	WORD	n/a	wordpools/wordpool_EN.txt	PLANE	3	18	[0, 0, 0]	n/a	FR1	1	R1195E
2028.804	1.001	2068737	WORD_OFF	n/a	n/a	PLANE	3	18	[0, 0, 0]	n/a	FR1	1	R1195E
2029.805	1.617	2069738	WORD	n/a	wordpools/wordpool_EN.txt	BOOK	4	18	[0, 0, 0]	n/a	FR1	1	R1195E
2031.422	0.882	2071355	WORD_OFF	n/a	n/a	BOOK	4	18	[0, 0, 0]	n/a	FR1	1	R1195E
2032.304	1.601	2072237	WORD	n/a	wordpools/wordpool_EN.txt	CLAY	5	18	[0, 0, 0]	n/a	FR1	1	R1195E
2033.905	0.934	2073838	WORD_OFF	n/a	n/a	CLAY	5	18	[0, 0, 0]	n/a	FR1	1	R1195E
2034.839	1.617	2074772	WORD	n/a	wordpools/wordpool_EN.txt	FAN	6	18	[0, 0, 0]	n/a	FR1	1	R1195E
2036.456	0.766	2076389	WORD_OFF	n/a	n/a	FAN	6	18	[0, 0, 0]	n/a	FR1	1	R1195E
2037.222	1.618	2077155	WORD	n/a	wordpools/wordpool_EN.txt	RAIN	7	18	[0, 0, 0]	n/a	FR1	1	R1195E
2038.84	0.966	2078772	WORD_OFF	n/a	n/a	RAIN	7	18	[0, 0, 0]	n/a	FR1	1	R1195E
2039.806	1.617	2079738	WORD	n/a	wordpools/wordpool_EN.txt	STAR	8	18	[0, 0, 0]	n/a	FR1	1	R1195E
2041.423	0.849	2081355	WORD_OFF	n/a	n/a	STAR	8	18	[0, 0, 0]	n/a	FR1	1	R1195E
2042.272	1.602	2082204	WORD	n/a	wordpools/wordpool_EN.txt	CLOUD	9	18	[0, 0, 0]	n/a	FR1	1	R1195E
2043.874	0.917	2083806	WORD_OFF	n/a	n/a	CLOUD	9	18	[0, 0, 0]	n/a	FR1	1	R1195E
2044.791	1.617	2084723	WORD	n/a	wordpools/wordpool_EN.txt	HORSE	10	18	[0, 0, 0]	n/a	FR1	1	R1195E
2046.408	0.865	2086340	WORD_OFF	n/a	n/a	HORSE	10	18	[0, 0, 0]	n/a	FR1	1	R1195E
2047.273	1.618	2087205	WORD	n/a	wordpools/wordpool_EN.txt	CORN	11	18	[0, 0, 0]	n/a	FR1	1	R1195E
2048.891	0.984	2088823	WORD_OFF	n/a	n/a	CORN	11	18	[0, 0, 0]	n/a	FR1	1	R1195E
2049.875	1.617	2089807	WORD	n/a	wordpools/wordpool_EN.txt	MAIL	12	18	[0, 0, 0]	n/a	FR1	1	R1195E
2051.492	0.0	2091424	WORD_OFF	n/a	n/a	MAIL	12	18	[0, 0, 0]	n/a	FR1	1	R1195E
2051.492	0.0	2091424	DISTRACT_START	n/a	n/a	n/a	-999	18	[0, 0, 0]	n/a	FR1	1	R1195E
2051.492	0.016	2091424	START	n/a	n/a	n/a	-999	18	[-999, -999, -999]	n/a	FR1	1	R1195E
2051.508	4.284	2091440	PROB	4.284	n/a	n/a	-999	18	[2, 2, 4]	8	FR1	1	R1195E
2055.792	4.367	2095724	PROB	4.367	n/a	n/a	-999	18	[7, 7, 1]	15	FR1	1	R1195E
2060.159	4.785	2100091	PROB	4.785	n/a	n/a	-999	18	[9, 3, 4]	16	FR1	1	R1195E
2064.944	5.768	2104875	PROB	5.768	n/a	n/a	-999	18	[7, 8, 2]	17	FR1	1	R1195E
2070.712	8.088	2110643	PROB	8.088	n/a	n/a	-999	18	[3, 7, 9]	19	FR1	1	R1195E
2078.8	0.013	2118731	STOP	n/a	n/a	n/a	-999	18	[-999, -999, -999]	n/a	FR1	1	R1195E
2078.813	0.634	2118744	DISTRACT_END	n/a	n/a	n/a	-999	18	[0, 0, 0]	n/a	FR1	1	R1195E
2079.447	0.517	2119378	RETRIEVAL_ORIENT	n/a	n/a	n/a	-999	18	[0, 0, 0]	n/a	FR1	1	R1195E
2079.964	1.835	2119895	REC_START	n/a	n/a	n/a	-999	18	[0, 0, 0]	n/a	FR1	1	R1195E
2081.799	1.817	2121730	REC_WORD_VV	1.817	n/a	<>	-999	18	[0, 0, 0]	n/a	FR1	1	R1195E
2083.616	11.906	2123547	REC_WORD	11.906	n/a	CLAY	5	18	[0, 0, 0]	n/a	FR1	1	R1195E
2095.522	14.451	2135452	REC_WORD_VV	14.451	n/a	<>	-999	18	[0, 0, 0]	n/a	FR1	1	R1195E
2109.973	5.98	2149903	REC_END	n/a	n/a	n/a	-999	18	[0, 0, 0]	n/a	FR1	1	R1195E
2115.953	0.5	2155883	TRIAL	n/a	n/a	n/a	-999	19	[0, 0, 0]	n/a	FR1	1	R1195E
2116.453	10.428	2156383	COUNTDOWN_START	n/a	n/a	n/a	-999	19	[0, 0, 0]	n/a	FR1	1	R1195E
2126.881	0.007	2166810	COUNTDOWN_END	n/a	n/a	n/a	-999	19	[0, 0, 0]	n/a	FR1	1	R1195E
2126.888	1.617	2166817	ORIENT	n/a	n/a	n/a	-999	19	[0, 0, 0]	n/a	FR1	1	R1195E
2128.505	2.101	2168434	ORIENT_OFF	n/a	n/a	n/a	-999	19	[0, 0, 0]	n/a	FR1	1	R1195E
2130.606	1.616	2170535	WORD	n/a	wordpools/wordpool_EN.txt	FOOT	1	19	[0, 0, 0]	n/a	FR1	1	R1195E
2132.222	0.916	2172151	WORD_OFF	n/a	n/a	FOOT	1	19	[0, 0, 0]	n/a	FR1	1	R1195E
2133.138	1.601	2173067	WORD	n/a	wordpools/wordpool_EN.txt	ROOM	2	19	[0, 0, 0]	n/a	FR1	1	R1195E
2134.739	0.834	2174668	WORD_OFF	n/a	n/a	ROOM	2	19	[0, 0, 0]	n/a	FR1	1	R1195E
2135.573	1.616	2175502	WORD	n/a	wordpools/wordpool_EN.txt	SOAP	3	19	[0, 0, 0]	n/a	FR1	1	R1195E
2137.189	0.9	2177118	WORD_OFF	n/a	n/a	SOAP	3	19	[0, 0, 0]	n/a	FR1	1	R1195E
2138.089	1.601	2178018	WORD	n/a	wordpools/wordpool_EN.txt	SHOE	4	19	[0, 0, 0]	n/a	FR1	1	R1195E
2139.69	0.851	2179619	WORD_OFF	n/a	n/a	SHOE	4	19	[0, 0, 0]	n/a	FR1	1	R1195E
2140.541	1.616	2180470	WORD	n/a	wordpools/wordpool_EN.txt	STEAK	5	19	[0, 0, 0]	n/a	FR1	1	R1195E
2142.157	0.917	2182086	WORD_OFF	n/a	n/a	STEAK	5	19	[0, 0, 0]	n/a	FR1	1	R1195E
2143.074	1.617	2183003	WORD	n/a	wordpools/wordpool_EN.txt	STAIR	6	19	[0, 0, 0]	n/a	FR1	1	R1195E
2144.691	0.834	2184619	WORD_OFF	n/a	n/a	STAIR	6	19	[0, 0, 0]	n/a	FR1	1	R1195E
2145.525	1.616	2185453	WORD	n/a	wordpools/wordpool_EN.txt	BATH	7	19	[0, 0, 0]	n/a	FR1	1	R1195E
2147.141	0.834	2187069	WORD_OFF	n/a	n/a	BATH	7	19	[0, 0, 0]	n/a	FR1	1	R1195E
2147.975	1.617	2187903	WORD	n/a	wordpools/wordpool_EN.txt	WORM	8	19	[0, 0, 0]	n/a	FR1	1	R1195E
2149.592	0.85	2189520	WORD_OFF	n/a	n/a	WORM	8	19	[0, 0, 0]	n/a	FR1	1	R1195E
2150.442	1.616	2190370	WORD	n/a	wordpools/wordpool_EN.txt	FLUTE	9	19	[0, 0, 0]	n/a	FR1	1	R1195E
2152.058	1.001	2191986	WORD_OFF	n/a	n/a	FLUTE	9	19	[0, 0, 0]	n/a	FR1	1	R1195E
2153.059	1.618	2192987	WORD	n/a	wordpools/wordpool_EN.txt	MOLE	10	19	[0, 0, 0]	n/a	FR1	1	R1195E
2154.677	0.766	2194605	WORD_OFF	n/a	n/a	MOLE	10	19	[0, 0, 0]	n/a	FR1	1	R1195E
2155.443	1.616	2195371	WORD	n/a	wordpools/wordpool_EN.txt	SPRING	11	19	[0, 0, 0]	n/a	FR1	1	R1195E
2157.059	0.868	2196987	WORD_OFF	n/a	n/a	SPRING	11	19	[0, 0, 0]	n/a	FR1	1	R1195E
2157.927	1.617	2197855	WORD	n/a	wordpools/wordpool_EN.txt	TRUCK	12	19	[0, 0, 0]	n/a	FR1	1	R1195E
2159.544	0.0	2199472	WORD_OFF	n/a	n/a	TRUCK	12	19	[0, 0, 0]	n/a	FR1	1	R1195E
2159.544	0.001	2199472	DISTRACT_START	n/a	n/a	n/a	-999	19	[0, 0, 0]	n/a	FR1	1	R1195E
2159.545	0.016	2199473	START	n/a	n/a	n/a	-999	19	[-999, -999, -999]	n/a	FR1	1	R1195E
2159.561	4.817	2199489	PROB	4.817	n/a	n/a	-999	19	[7, 1, 4]	12	FR1	1	R1195E
2164.378	3.75	2204306	PROB	3.75	n/a	n/a	-999	19	[4, 6, 5]	15	FR1	1	R1195E
2168.128	5.067	2208056	PROB	5.067	n/a	n/a	-999	19	[6, 7, 1]	14	FR1	1	R1195E
2173.195	6.807	2213122	PROB	6.807	n/a	n/a	-999	19	[4, 2, 7]	13	FR1	1	R1195E
2180.002	0.012	2219929	STOP	n/a	n/a	n/a	-999	19	[-999, -999, -999]	n/a	FR1	1	R1195E
2180.014	0.634	2219941	DISTRACT_END	n/a	n/a	n/a	-999	19	[0, 0, 0]	n/a	FR1	1	R1195E
2180.648	0.516	2220575	RETRIEVAL_ORIENT	n/a	n/a	n/a	-999	19	[0, 0, 0]	n/a	FR1	1	R1195E
2181.164	3.061	2221091	REC_START	n/a	n/a	n/a	-999	19	[0, 0, 0]	n/a	FR1	1	R1195E
2184.225	4.827	2224152	REC_WORD	4.827	n/a	FOOT	1	19	[0, 0, 0]	n/a	FR1	1	R1195E
2189.052	3.405	2228979	REC_WORD	3.405	n/a	ROOM	2	19	[0, 0, 0]	n/a	FR1	1	R1195E
2192.457	4.078	2232384	REC_WORD	4.078	n/a	WORM	8	19	[0, 0, 0]	n/a	FR1	1	R1195E
2196.535	4.295	2236461	REC_WORD	4.295	n/a	SHOE	4	19	[0, 0, 0]	n/a	FR1	1	R1195E
2200.83	1.0	2240756	REC_WORD_VV	1.0	n/a	<>	-999	19	[0, 0, 0]	n/a	FR1	1	R1195E
2201.83	1.0	2241756	REC_WORD_VV	1.0	n/a	<>	-999	19	[0, 0, 0]	n/a	FR1	1	R1195E
2202.83	0.452	2242756	REC_WORD_VV	0.452	n/a	<>	-999	19	[0, 0, 0]	n/a	FR1	1	R1195E
2203.282	7.893	2243208	REC_WORD	7.893	n/a	STEAK	5	19	[0, 0, 0]	n/a	FR1	1	R1195E
2211.175	6.663	2251101	REC_END	n/a	n/a	n/a	-999	19	[0, 0, 0]	n/a	FR1	1	R1195E
2217.838	0.5	2257764	TRIAL	n/a	n/a	n/a	-999	20	[0, 0, 0]	n/a	FR1	1	R1195E
2218.338	10.428	2258264	COUNTDOWN_START	n/a	n/a	n/a	-999	20	[0, 0, 0]	n/a	FR1	1	R1195E
2228.766	0.007	2268691	COUNTDOWN_END	n/a	n/a	n/a	-999	20	[0, 0, 0]	n/a	FR1	1	R1195E
2228.773	1.617	2268698	ORIENT	n/a	n/a	n/a	-999	20	[0, 0, 0]	n/a	FR1	1	R1195E
2230.39	1.95	2270315	ORIENT_OFF	n/a	n/a	n/a	-999	20	[0, 0, 0]	n/a	FR1	1	R1195E
2232.34	1.617	2272265	WORD	n/a	wordpools/wordpool_EN.txt	PLANT	1	20	[0, 0, 0]	n/a	FR1	1	R1195E
2233.957	1.0	2273882	WORD_OFF	n/a	n/a	PLANT	1	20	[0, 0, 0]	n/a	FR1	1	R1195E
2234.957	1.617	2274882	WORD	n/a	wordpools/wordpool_EN.txt	SHIRT	2	20	[0, 0, 0]	n/a	FR1	1	R1195E
2236.574	0.767	2276499	WORD_OFF	n/a	n/a	SHIRT	2	20	[0, 0, 0]	n/a	FR1	1	R1195E
2237.341	1.617	2277266	WORD	n/a	wordpools/wordpool_EN.txt	JET	3	20	[0, 0, 0]	n/a	FR1	1	R1195E
2238.958	0.817	2278883	WORD_OFF	n/a	n/a	JET	3	20	[0, 0, 0]	n/a	FR1	1	R1195E
2239.775	1.617	2279700	WORD	n/a	wordpools/wordpool_EN.txt	PANTS	4	20	[0, 0, 0]	n/a	FR1	1	R1195E
2241.392	0.933	2281317	WORD_OFF	n/a	n/a	PANTS	4	20	[0, 0, 0]	n/a	FR1	1	R1195E
2242.325	1.617	2282250	WORD	n/a	wordpools/wordpool_EN.txt	MUG	5	20	[0, 0, 0]	n/a	FR1	1	R1195E
2243.942	0.917	2283867	WORD_OFF	n/a	n/a	MUG	5	20	[0, 0, 0]	n/a	FR1	1	R1195E
2244.859	1.617	2284784	WORD	n/a	wordpools/wordpool_EN.txt	STREET	6	20	[0, 0, 0]	n/a	FR1	1	R1195E
2246.476	0.934	2286401	WORD_OFF	n/a	n/a	STREET	6	20	[0, 0, 0]	n/a	FR1	1	R1195E
2247.41	1.616	2287335	WORD	n/a	wordpools/wordpool_EN.txt	FISH	7	20	[0, 0, 0]	n/a	FR1	1	R1195E
2249.026	1.001	2288950	WORD_OFF	n/a	n/a	FISH	7	20	[0, 0, 0]	n/a	FR1	1	R1195E
2250.027	1.617	2289951	WORD	n/a	wordpools/wordpool_EN.txt	HOOF	8	20	[0, 0, 0]	n/a	FR1	1	R1195E
2251.644	0.95	2291568	WORD_OFF	n/a	n/a	HOOF	8	20	[0, 0, 0]	n/a	FR1	1	R1195E
2252.594	1.616	2292518	WORD	n/a	wordpools/wordpool_EN.txt	FLAG	9	20	[0, 0, 0]	n/a	FR1	1	R1195E
2254.21	0.95	2294134	WORD_OFF	n/a	n/a	FLAG	9	20	[0, 0, 0]	n/a	FR1	1	R1195E
2255.16	1.618	2295084	WORD	n/a	wordpools/wordpool_EN.txt	SNAIL	10	20	[0, 0, 0]	n/a	FR1	1	R1195E
2256.778	0.783	2296702	WORD_OFF	n/a	n/a	SNAIL	10	20	[0, 0, 0]	n/a	FR1	1	R1195E
2257.561	1.616	2297485	WORD	n/a	wordpools/wordpool_EN.txt	CLOTH	11	20	[0, 0, 0]	n/a	FR1	1	R1195E
2259.177	0.801	2299101	WORD_OFF	n/a	n/a	CLOTH	11	20	[0, 0, 0]	n/a	FR1	1	R1195E
2259.978	1.617	2299902	WORD	n/a	wordpools/wordpool_EN.txt	RAT	12	20	[0, 0, 0]	n/a	FR1	1	R1195E
2261.595	0.0	2301519	WORD_OFF	n/a	n/a	RAT	12	20	[0, 0, 0]	n/a	FR1	1	R1195E
2261.595	0.001	2301519	DISTRACT_START	n/a	n/a	n/a	-999	20	[0, 0, 0]	n/a	FR1	1	R1195E
2261.596	0.016	2301520	START	n/a	n/a	n/a	-999	20	[-999, -999, -999]	n/a	FR1	1	R1195E
2261.612	5.701	2301536	PROB	5.701	n/a	n/a	-999	20	[9, 7, 1]	17	FR1	1	R1195E
2267.313	3.617	2307237	PROB	3.617	n/a	n/a	-999	20	[3, 7, 3]	13	FR1	1	R1195E
2270.93	3.15	2310854	PROB	3.15	n/a	n/a	-999	20	[5, 1, 7]	13	FR1	1	R1195E
2274.08	6.134	2314004	PROB	6.134	n/a	n/a	-999	20	[8, 6, 8]	22	FR1	1	R1195E
2280.214	2.813	2320137	PROB	2.813	n/a	n/a	-999	20	[1, 1, 1]	3	FR1	1	R1195E
2283.027	0.005	2322950	STOP	n/a	n/a	n/a	-999	20	[-999, -999, -999]	n/a	FR1	1	R1195E
2283.032	0.567	2322955	DISTRACT_END	n/a	n/a	n/a	-999	20	[0, 0, 0]	n/a	FR1	1	R1195E
2283.599	0.517	2323522	RETRIEVAL_ORIENT	n/a	n/a	n/a	-999	20	[0, 0, 0]	n/a	FR1	1	R1195E
2284.116	1.482	2324039	REC_START	n/a	n/a	n/a	-999	20	[0, 0, 0]	n/a	FR1	1	R1195E
2285.598	3.083	2325521	REC_WORD_VV	3.083	n/a	<>	-999	20	[0, 0, 0]	n/a	FR1	1	R1195E
2288.681	3.651	2328604	REC_WORD	3.651	n/a	HOOF	8	20	[0, 0, 0]	n/a	FR1	1	R1195E
2292.332	4.361	2332255	REC_WORD	4.361	n/a	SHIRT	2	20	[0, 0, 0]	n/a	FR1	1	R1195E
2296.693	10.417	2336616	REC_WORD	10.417	n/a	PLANT	1	20	[0, 0, 0]	n/a	FR1	1	R1195E
2307.11	7.015	2347032	REC_WORD_VV	7.015	n/a	<>	-999	20	[0, 0, 0]	n/a	FR1	1	R1195E
2314.125	15.882	2354047	REC_END	n/a	n/a	n/a	-999	20	[0, 0, 0]	n/a	FR1	1	R1195E
2330.007	0.5	2369928	TRIAL	n/a	n/a	n/a	-999	21	[0, 0, 0]	n/a	FR1	1	R1195E
2330.507	10.428	2370428	COUNTDOWN_START	n/a	n/a	n/a	-999	21	[0, 0, 0]	n/a	FR1	1	R1195E
2340.935	0.007	2380856	COUNTDOWN_END	n/a	n/a	n/a	-999	21	[0, 0, 0]	n/a	FR1	1	R1195E
2340.942	1.617	2380863	ORIENT	n/a	n/a	n/a	-999	21	[0, 0, 0]	n/a	FR1	1	R1195E
2342.559	2.034	2382480	ORIENT_OFF	n/a	n/a	n/a	-999	21	[0, 0, 0]	n/a	FR1	1	R1195E
2344.593	1.616	2384514	WORD	n/a	wordpools/wordpool_EN.txt	FLEA	1	21	[0, 0, 0]	n/a	FR1	1	R1195E
2346.209	0.917	2386130	WORD_OFF	n/a	n/a	FLEA	1	21	[0, 0, 0]	n/a	FR1	1	R1195E
2347.126	1.618	2387047	WORD	n/a	wordpools/wordpool_EN.txt	LAKE	2	21	[0, 0, 0]	n/a	FR1	1	R1195E
2348.744	0.933	2388665	WORD_OFF	n/a	n/a	LAKE	2	21	[0, 0, 0]	n/a	FR1	1	R1195E
2349.677	1.616	2389598	WORD	n/a	wordpools/wordpool_EN.txt	HAWK	3	21	[0, 0, 0]	n/a	FR1	1	R1195E
2351.293	0.951	2391214	WORD_OFF	n/a	n/a	HAWK	3	21	[0, 0, 0]	n/a	FR1	1	R1195E
2352.244	1.618	2392165	WORD	n/a	wordpools/wordpool_EN.txt	MOUSE	4	21	[0, 0, 0]	n/a	FR1	1	R1195E
2353.862	0.866	2393782	WORD_OFF	n/a	n/a	MOUSE	4	21	[0, 0, 0]	n/a	FR1	1	R1195E
2354.728	1.617	2394648	WORD	n/a	wordpools/wordpool_EN.txt	DART	5	21	[0, 0, 0]	n/a	FR1	1	R1195E
2356.345	0.899	2396265	WORD_OFF	n/a	n/a	DART	5	21	[0, 0, 0]	n/a	FR1	1	R1195E
2357.244	1.618	2397164	WORD	n/a	wordpools/wordpool_EN.txt	ICE	6	21	[0, 0, 0]	n/a	FR1	1	R1195E
2358.862	0.784	2398782	WORD_OFF	n/a	n/a	ICE	6	21	[0, 0, 0]	n/a	FR1	1	R1195E
2359.646	1.616	2399566	WORD	n/a	wordpools/wordpool_EN.txt	NOSE	7	21	[0, 0, 0]	n/a	FR1	1	R1195E
2361.262	0.9	2401182	WORD_OFF	n/a	n/a	NOSE	7	21	[0, 0, 0]	n/a	FR1	1	R1195E
2362.162	1.618	2402082	WORD	n/a	wordpools/wordpool_EN.txt	CHAIR	8	21	[0, 0, 0]	n/a	FR1	1	R1195E
2363.78	0.933	2403700	WORD_OFF	n/a	n/a	CHAIR	8	21	[0, 0, 0]	n/a	FR1	1	R1195E
2364.713	1.617	2404633	WORD	n/a	wordpools/wordpool_EN.txt	SPOON	9	21	[0, 0, 0]	n/a	FR1	1	R1195E
2366.33	0.966	2406250	WORD_OFF	n/a	n/a	SPOON	9	21	[0, 0, 0]	n/a	FR1	1	R1195E
2367.296	1.618	2407216	WORD	n/a	wordpools/wordpool_EN.txt	CAT	10	21	[0, 0, 0]	n/a	FR1	1	R1195E
2368.914	0.834	2408834	WORD_OFF	n/a	n/a	CAT	10	21	[0, 0, 0]	n/a	FR1	1	R1195E
2369.748	1.617	2409668	WORD	n/a	wordpools/wordpool_EN.txt	SEED	11	21	[0, 0, 0]	n/a	FR1	1	R1195E
2371.365	0.915	2411285	WORD_OFF	n/a	n/a	SEED	11	21	[0, 0, 0]	n/a	FR1	1	R1195E
2372.28	1.618	2412200	WORD	n/a	wordpools/wordpool_EN.txt	CHIN	12	21	[0, 0, 0]	n/a	FR1	1	R1195E
2373.898	0.0	2413818	WORD_OFF	n/a	n/a	CHIN	12	21	[0, 0, 0]	n/a	FR1	1	R1195E
2373.898	0.001	2413818	DISTRACT_START	n/a	n/a	n/a	-999	21	[0, 0, 0]	n/a	FR1	1	R1195E
2373.899	0.016	2413819	START	n/a	n/a	n/a	-999	21	[-999, -999, -999]	n/a	FR1	1	R1195E
2373.915	10.468	2413835	PROB	10.468	n/a	n/a	-999	21	[8, 7, 6]	21	FR1	1	R1195E
2384.383	7.002	2424302	PROB	7.002	n/a	n/a	-999	21	[7, 4, 5]	16	FR1	1	R1195E
2391.385	5.084	2431304	PROB	5.084	n/a	n/a	-999	21	[2, 6, 1]	9	FR1	1	R1195E
2396.469	0.017	2436388	STOP	n/a	n/a	n/a	-999	21	[-999, -999, -999]	n/a	FR1	1	R1195E
2396.486	0.615	2436405	DISTRACT_END	n/a	n/a	n/a	-999	21	[0, 0, 0]	n/a	FR1	1	R1195E
2397.101	0.519	2437020	RETRIEVAL_ORIENT	n/a	n/a	n/a	-999	21	[0, 0, 0]	n/a	FR1	1	R1195E
2397.62	4.598	2437539	REC_START	n/a	n/a	n/a	-999	21	[0, 0, 0]	n/a	FR1	1	R1195E
2402.218	2.901	2442137	REC_WORD	2.901	n/a	CAT	10	21	[0, 0, 0]	n/a	FR1	1	R1195E
2405.119	4.529	2445038	REC_WORD	4.529	n/a	SEED	11	21	[0, 0, 0]	n/a	FR1	1	R1195E
2409.648	7.552	2449566	REC_WORD	7.552	n/a	LAKE	2	21	[0, 0, 0]	n/a	FR1	1	R1195E
2417.2	10.43	2457118	REC_WORD	10.43	n/a	MOUSE	4	21	[0, 0, 0]	n/a	FR1	1	R1195E
2427.63	5.795	2467548	REC_END	n/a	n/a	n/a	-999	21	[0, 0, 0]	n/a	FR1	1	R1195E
2433.425	0.5	2473342	TRIAL	n/a	n/a	n/a	-999	22	[0, 0, 0]	n/a	FR1	1	R1195E
2433.925	10.428	2473842	COUNTDOWN_START	n/a	n/a	n/a	-999	22	[0, 0, 0]	n/a	FR1	1	R1195E
2444.353	0.008	2484270	COUNTDOWN_END	n/a	n/a	n/a	-999	22	[0, 0, 0]	n/a	FR1	1	R1195E
2444.361	1.617	2484278	ORIENT	n/a	n/a	n/a	-999	22	[0, 0, 0]	n/a	FR1	1	R1195E
2445.978	2.067	2485895	ORIENT_OFF	n/a	n/a	n/a	-999	22	[0, 0, 0]	n/a	FR1	1	R1195E
2448.045	1.617	2487962	WORD	n/a	wordpools/wordpool_EN.txt	STOOL	1	22	[0, 0, 0]	n/a	FR1	1	R1195E
2449.662	0.933	2489579	WORD_OFF	n/a	n/a	STOOL	1	22	[0, 0, 0]	n/a	FR1	1	R1195E
2450.595	1.616	2490512	WORD	n/a	wordpools/wordpool_EN.txt	SEAT	2	22	[0, 0, 0]	n/a	FR1	1	R1195E
2452.211	0.95	2492128	WORD_OFF	n/a	n/a	SEAT	2	22	[0, 0, 0]	n/a	FR1	1	R1195E
2453.161	1.601	2493078	WORD	n/a	wordpools/wordpool_EN.txt	TOY	3	22	[0, 0, 0]	n/a	FR1	1	R1195E
2454.762	0.917	2494679	WORD_OFF	n/a	n/a	TOY	3	22	[0, 0, 0]	n/a	FR1	1	R1195E
2455.679	1.616	2495596	WORD	n/a	wordpools/wordpool_EN.txt	NET	4	22	[0, 0, 0]	n/a	FR1	1	R1195E
2457.295	0.984	2497212	WORD_OFF	n/a	n/a	NET	4	22	[0, 0, 0]	n/a	FR1	1	R1195E
2458.279	1.618	2498196	WORD	n/a	wordpools/wordpool_EN.txt	SALT	5	22	[0, 0, 0]	n/a	FR1	1	R1195E
2459.897	0.783	2499813	WORD_OFF	n/a	n/a	SALT	5	22	[0, 0, 0]	n/a	FR1	1	R1195E
2460.68	1.616	2500596	WORD	n/a	wordpools/wordpool_EN.txt	FORT	6	22	[0, 0, 0]	n/a	FR1	1	R1195E
2462.296	0.784	2502212	WORD_OFF	n/a	n/a	FORT	6	22	[0, 0, 0]	n/a	FR1	1	R1195E
2463.08	1.618	2502996	WORD	n/a	wordpools/wordpool_EN.txt	NEST	7	22	[0, 0, 0]	n/a	FR1	1	R1195E
2464.698	0.933	2504614	WORD_OFF	n/a	n/a	NEST	7	22	[0, 0, 0]	n/a	FR1	1	R1195E
2465.631	1.616	2505547	WORD	n/a	wordpools/wordpool_EN.txt	TAIL	8	22	[0, 0, 0]	n/a	FR1	1	R1195E
2467.247	1.0	2507163	WORD_OFF	n/a	n/a	TAIL	8	22	[0, 0, 0]	n/a	FR1	1	R1195E
2468.247	1.618	2508163	WORD	n/a	wordpools/wordpool_EN.txt	SPEAR	9	22	[0, 0, 0]	n/a	FR1	1	R1195E
2469.865	0.834	2509781	WORD_OFF	n/a	n/a	SPEAR	9	22	[0, 0, 0]	n/a	FR1	1	R1195E
2470.699	1.617	2510615	WORD	n/a	wordpools/wordpool_EN.txt	FLOOR	10	22	[0, 0, 0]	n/a	FR1	1	R1195E
2472.316	0.882	2512232	WORD_OFF	n/a	n/a	FLOOR	10	22	[0, 0, 0]	n/a	FR1	1	R1195E
2473.198	1.618	2513114	WORD	n/a	wordpools/wordpool_EN.txt	SKY	11	22	[0, 0, 0]	n/a	FR1	1	R1195E
2474.816	0.883	2514732	WORD_OFF	n/a	n/a	SKY	11	22	[0, 0, 0]	n/a	FR1	1	R1195E
2475.699	1.617	2515615	WORD	n/a	wordpools/wordpool_EN.txt	GATE	12	22	[0, 0, 0]	n/a	FR1	1	R1195E
2477.316	0.0	2517232	WORD_OFF	n/a	n/a	GATE	12	22	[0, 0, 0]	n/a	FR1	1	R1195E
2477.316	0.001	2517232	DISTRACT_START	n/a	n/a	n/a	-999	22	[0, 0, 0]	n/a	FR1	1	R1195E
2477.317	0.016	2517233	START	n/a	n/a	n/a	-999	22	[-999, -999, -999]	n/a	FR1	1	R1195E
2477.333	7.151	2517249	PROB	7.151	n/a	n/a	-999	22	[3, 5, 9]	17	FR1	1	R1195E
2484.484	5.151	2524400	PROB	5.151	n/a	n/a	-999	22	[9, 6, 4]	19	FR1	1	R1195E
2489.635	3.701	2529550	PROB	3.701	n/a	n/a	-999	22	[4, 4, 6]	14	FR1	1	R1195E
2493.336	3.534	2533251	PROB	3.534	n/a	n/a	-999	22	[3, 2, 8]	13	FR1	1	R1195E
2496.87	3.7	2536785	PROB	3.7	n/a	n/a	-999	22	[1, 3, 7]	11	FR1	1	R1195E
2500.57	0.017	2540485	STOP	n/a	n/a	n/a	-999	22	[-999, -999, -999]	n/a	FR1	1	R1195E
2500.587	0.683	2540502	DISTRACT_END	n/a	n/a	n/a	-999	22	[0, 0, 0]	n/a	FR1	1	R1195E
2501.27	0.518	2541185	RETRIEVAL_ORIENT	n/a	n/a	n/a	-999	22	[0, 0, 0]	n/a	FR1	1	R1195E
2501.788	2.528	2541703	REC_START	n/a	n/a	n/a	-999	22	[0, 0, 0]	n/a	FR1	1	R1195E
2504.316	0.495	2544231	REC_WORD_VV	0.495	n/a	<>	-999	22	[0, 0, 0]	n/a	FR1	1	R1195E
2504.811	9.018	2544726	REC_WORD	9.018	n/a	SKY	11	22	[0, 0, 0]	n/a	FR1	1	R1195E
2513.829	5.576	2553743	REC_WORD	5.576	n/a	STOOL	1	22	[0, 0, 0]	n/a	FR1	1	R1195E
2519.405	12.392	2559319	REC_WORD	12.392	n/a	SEAT	2	22	[0, 0, 0]	n/a	FR1	1	R1195E
2531.797	5.613	2571711	REC_END	n/a	n/a	n/a	-999	22	[0, 0, 0]	n/a	FR1	1	R1195E
2537.41	0.5	2577324	TRIAL	n/a	n/a	n/a	-999	23	[0, 0, 0]	n/a	FR1	1	R1195E
2537.91	10.428	2577823	COUNTDOWN_START	n/a	n/a	n/a	-999	23	[0, 0, 0]	n/a	FR1	1	R1195E
2548.338	0.007	2588251	COUNTDOWN_END	n/a	n/a	n/a	-999	23	[0, 0, 0]	n/a	FR1	1	R1195E
2548.345	1.618	2588258	ORIENT	n/a	n/a	n/a	-999	23	[0, 0, 0]	n/a	FR1	1	R1195E
2549.963	2.166	2589876	ORIENT_OFF	n/a	n/a	n/a	-999	23	[0, 0, 0]	n/a	FR1	1	R1195E
2552.129	1.618	2592042	WORD	n/a	wordpools/wordpool_EN.txt	FUR	1	23	[0, 0, 0]	n/a	FR1	1	R1195E
2553.747	0.766	2593660	WORD_OFF	n/a	n/a	FUR	1	23	[0, 0, 0]	n/a	FR1	1	R1195E
2554.513	1.616	2594426	WORD	n/a	wordpools/wordpool_EN.txt	CLOCK	2	23	[0, 0, 0]	n/a	FR1	1	R1195E
2556.129	0.784	2596042	WORD_OFF	n/a	n/a	CLOCK	2	23	[0, 0, 0]	n/a	FR1	1	R1195E
2556.913	1.618	2596826	WORD	n/a	wordpools/wordpool_EN.txt	GOLD	3	23	[0, 0, 0]	n/a	FR1	1	R1195E
2558.531	0.95	2598444	WORD_OFF	n/a	n/a	GOLD	3	23	[0, 0, 0]	n/a	FR1	1	R1195E
2559.481	1.616	2599394	WORD	n/a	wordpools/wordpool_EN.txt	BRICK	4	23	[0, 0, 0]	n/a	FR1	1	R1195E
2561.097	0.834	2601010	WORD_OFF	n/a	n/a	BRICK	4	23	[0, 0, 0]	n/a	FR1	1	R1195E
2561.931	1.617	2601844	WORD	n/a	wordpools/wordpool_EN.txt	OWL	5	23	[0, 0, 0]	n/a	FR1	1	R1195E
2563.548	0.8	2603461	WORD_OFF	n/a	n/a	OWL	5	23	[0, 0, 0]	n/a	FR1	1	R1195E
2564.348	1.617	2604260	WORD	n/a	wordpools/wordpool_EN.txt	GLOVE	6	23	[0, 0, 0]	n/a	FR1	1	R1195E
2565.965	0.917	2605877	WORD_OFF	n/a	n/a	GLOVE	6	23	[0, 0, 0]	n/a	FR1	1	R1195E
2566.882	1.617	2606794	WORD	n/a	wordpools/wordpool_EN.txt	LAND	7	23	[0, 0, 0]	n/a	FR1	1	R1195E
2568.499	0.799	2608411	WORD_OFF	n/a	n/a	LAND	7	23	[0, 0, 0]	n/a	FR1	1	R1195E
2569.298	1.618	2609210	WORD	n/a	wordpools/wordpool_EN.txt	GRAPE	8	23	[0, 0, 0]	n/a	FR1	1	R1195E
2570.916	0.95	2610828	WORD_OFF	n/a	n/a	GRAPE	8	23	[0, 0, 0]	n/a	FR1	1	R1195E
2571.866	1.617	2611778	WORD	n/a	wordpools/wordpool_EN.txt	COIN	9	23	[0, 0, 0]	n/a	FR1	1	R1195E
2573.483	0.816	2613395	WORD_OFF	n/a	n/a	COIN	9	23	[0, 0, 0]	n/a	FR1	1	R1195E
2574.299	1.618	2614211	WORD	n/a	wordpools/wordpool_EN.txt	CANE	10	23	[0, 0, 0]	n/a	FR1	1	R1195E
2575.917	1.0	2615829	WORD_OFF	n/a	n/a	CANE	10	23	[0, 0, 0]	n/a	FR1	1	R1195E
2576.917	1.617	2616829	WORD	n/a	wordpools/wordpool_EN.txt	WORLD	11	23	[0, 0, 0]	n/a	FR1	1	R1195E
2578.534	0.834	2618446	WORD_OFF	n/a	n/a	WORLD	11	23	[0, 0, 0]	n/a	FR1	1	R1195E
2579.368	1.617	2619280	WORD	n/a	wordpools/wordpool_EN.txt	BEACH	12	23	[0, 0, 0]	n/a	FR1	1	R1195E
2580.985	0.0	2620897	WORD_OFF	n/a	n/a	BEACH	12	23	[0, 0, 0]	n/a	FR1	1	R1195E
2580.985	0.0	2620897	DISTRACT_START	n/a	n/a	n/a	-999	23	[0, 0, 0]	n/a	FR1	1	R1195E
2580.985	0.016	2620897	START	n/a	n/a	n/a	-999	23	[-999, -999, -999]	n/a	FR1	1	R1195E
2581.001	7.402	2620913	PROB	7.402	n/a	n/a	-999	23	[6, 9, 6]	22	FR1	1	R1195E
2588.403	3.934	2628315	PROB	3.934	n/a	n/a	-999	23	[4, 3, 7]	14	FR1	1	R1195E
2592.337	11.027	2632248	PROB	11.027	n/a	n/a	-999	23	[7, 6, 8]	20	FR1	1	R1195E
2603.364	0.008	2643275	STOP	n/a	n/a	n/a	-999	23	[-999, -999, -999]	n/a	FR1	1	R1195E
2603.372	0.517	2643283	DISTRACT_END	n/a	n/a	n/a	-999	23	[0, 0, 0]	n/a	FR1	1	R1195E
2603.889	0.517	2643800	RETRIEVAL_ORIENT	n/a	n/a	n/a	-999	23	[0, 0, 0]	n/a	FR1	1	R1195E
2604.406	1.663	2644317	REC_START	n/a	n/a	n/a	-999	23	[0, 0, 0]	n/a	FR1	1	R1195E
2606.069	1.119	2645980	REC_WORD_VV	1.119	n/a	<>	-999	23	[0, 0, 0]	n/a	FR1	1	R1195E
2607.188	2.543	2647099	REC_WORD	2.543	n/a	FUR	1	23	[0, 0, 0]	n/a	FR1	1	R1195E
2609.731	3.042	2649642	REC_WORD	3.042	n/a	GOLD	3	23	[0, 0, 0]	n/a	FR1	1	R1195E
2612.773	15.529	2652684	REC_WORD	15.529	n/a	BRICK	4	23	[0, 0, 0]	n/a	FR1	1	R1195E
2628.302	6.114	2668212	REC_WORD_VV	6.114	n/a	<>	-999	23	[0, 0, 0]	n/a	FR1	1	R1195E
2634.416	5.728	2674326	REC_END	n/a	n/a	n/a	-999	23	[0, 0, 0]	n/a	FR1	1	R1195E
2640.144	0.5	2680054	TRIAL	n/a	n/a	n/a	-999	24	[0, 0, 0]	n/a	FR1	1	R1195E
2640.644	10.428	2680554	COUNTDOWN_START	n/a	n/a	n/a	-999	24	[0, 0, 0]	n/a	FR1	1	R1195E
2651.072	0.007	2690981	COUNTDOWN_END	n/a	n/a	n/a	-999	24	[0, 0, 0]	n/a	FR1	1	R1195E
2651.079	1.618	2690988	ORIENT	n/a	n/a	n/a	-999	24	[0, 0, 0]	n/a	FR1	1	R1195E
2652.697	2.101	2692606	ORIENT_OFF	n/a	n/a	n/a	-999	24	[0, 0, 0]	n/a	FR1	1	R1195E
2654.798	1.617	2694707	WORD	n/a	wordpools/wordpool_EN.txt	HOLE	1	24	[0, 0, 0]	n/a	FR1	1	R1195E
2656.415	0.799	2696324	WORD_OFF	n/a	n/a	HOLE	1	24	[0, 0, 0]	n/a	FR1	1	R1195E
2657.214	1.618	2697123	WORD	n/a	wordpools/wordpool_EN.txt	SHIELD	2	24	[0, 0, 0]	n/a	FR1	1	R1195E
2658.832	0.95	2698741	WORD_OFF	n/a	n/a	SHIELD	2	24	[0, 0, 0]	n/a	FR1	1	R1195E
2659.782	1.617	2699691	WORD	n/a	wordpools/wordpool_EN.txt	SMOKE	3	24	[0, 0, 0]	n/a	FR1	1	R1195E
2661.399	0.983	2701308	WORD_OFF	n/a	n/a	SMOKE	3	24	[0, 0, 0]	n/a	FR1	1	R1195E
2662.382	1.617	2702291	WORD	n/a	wordpools/wordpool_EN.txt	PIN	4	24	[0, 0, 0]	n/a	FR1	1	R1195E
2663.999	0.85	2703908	WORD_OFF	n/a	n/a	PIN	4	24	[0, 0, 0]	n/a	FR1	1	R1195E
2664.849	1.617	2704758	WORD	n/a	wordpools/wordpool_EN.txt	BRUSH	5	24	[0, 0, 0]	n/a	FR1	1	R1195E
2666.466	0.967	2706375	WORD_OFF	n/a	n/a	BRUSH	5	24	[0, 0, 0]	n/a	FR1	1	R1195E
2667.433	1.617	2707342	WORD	n/a	wordpools/wordpool_EN.txt	WOOD	6	24	[0, 0, 0]	n/a	FR1	1	R1195E
2669.05	0.884	2708958	WORD_OFF	n/a	n/a	WOOD	6	24	[0, 0, 0]	n/a	FR1	1	R1195E
2669.934	1.617	2709842	WORD	n/a	wordpools/wordpool_EN.txt	SINK	7	24	[0, 0, 0]	n/a	FR1	1	R1195E
2671.551	0.783	2711459	WORD_OFF	n/a	n/a	SINK	7	24	[0, 0, 0]	n/a	FR1	1	R1195E
2672.334	1.617	2712242	WORD	n/a	wordpools/wordpool_EN.txt	CAVE	8	24	[0, 0, 0]	n/a	FR1	1	R1195E
2673.951	0.883	2713859	WORD_OFF	n/a	n/a	CAVE	8	24	[0, 0, 0]	n/a	FR1	1	R1195E
2674.834	1.617	2714742	WORD	n/a	wordpools/wordpool_EN.txt	OAR	9	24	[0, 0, 0]	n/a	FR1	1	R1195E
2676.451	0.884	2716359	WORD_OFF	n/a	n/a	OAR	9	24	[0, 0, 0]	n/a	FR1	1	R1195E
2677.335	1.617	2717243	WORD	n/a	wordpools/wordpool_EN.txt	BIRD	10	24	[0, 0, 0]	n/a	FR1	1	R1195E
2678.952	0.833	2718860	WORD_OFF	n/a	n/a	BIRD	10	24	[0, 0, 0]	n/a	FR1	1	R1195E
2679.785	1.617	2719693	WORD	n/a	wordpools/wordpool_EN.txt	POND	11	24	[0, 0, 0]	n/a	FR1	1	R1195E
2681.402	1.017	2721310	WORD_OFF	n/a	n/a	POND	11	24	[0, 0, 0]	n/a	FR1	1	R1195E
2682.419	1.617	2722327	WORD	n/a	wordpools/wordpool_EN.txt	AXE	12	24	[0, 0, 0]	n/a	FR1	1	R1195E
2684.036	0.0	2723944	DISTRACT_START	n/a	n/a	n/a	-999	24	[0, 0, 0]	n/a	FR1	1	R1195E
2684.036	0.001	2723944	WORD_OFF	n/a	n/a	AXE	12	24	[0, 0, 0]	n/a	FR1	1	R1195E
2684.037	0.016	2723945	START	n/a	n/a	n/a	-999	24	[-999, -999, -999]	n/a	FR1	1	R1195E
2684.053	6.05	2723961	PROB	6.05	n/a	n/a	-999	24	[2, 5, 9]	16	FR1	1	R1195E
2690.103	7.302	2730011	PROB	7.302	n/a	n/a	-999	24	[8, 6, 7]	21	FR1	1	R1195E
2697.405	4.918	2737312	PROB	4.918	n/a	n/a	-999	24	[9, 4, 5]	18	FR1	1	R1195E
2702.323	3.598	2742230	PROB	3.598	n/a	n/a	-999	24	[2, 2, 4]	8	FR1	1	R1195E
2705.921	0.019	2745828	STOP	n/a	n/a	n/a	-999	24	[-999, -999, -999]	n/a	FR1	1	R1195E
2705.94	0.683	2745847	DISTRACT_END	n/a	n/a	n/a	-999	24	[0, 0, 0]	n/a	FR1	1	R1195E
2706.623	0.517	2746530	RETRIEVAL_ORIENT	n/a	n/a	n/a	-999	24	[0, 0, 0]	n/a	FR1	1	R1195E
2707.14	3.284	2747047	REC_START	n/a	n/a	n/a	-999	24	[0, 0, 0]	n/a	FR1	1	R1195E
2710.424	4.97	2750331	REC_WORD	4.97	n/a	AXE	12	24	[0, 0, 0]	n/a	FR1	1	R1195E
2715.394	21.755	2755301	REC_WORD	21.755	n/a	STOOL	-999	24	[0, 0, 0]	n/a	FR1	1	R1195E
2737.149	7.93	2777055	REC_END	n/a	n/a	n/a	-999	24	[0, 0, 0]	n/a	FR1	1	R1195E
2745.079	0.5	2784985	TRIAL	n/a	n/a	n/a	-999	25	[0, 0, 0]	n/a	FR1	1	R1195E
2745.579	10.428	2785485	COUNTDOWN_START	n/a	n/a	n/a	-999	25	[0, 0, 0]	n/a	FR1	1	R1195E
2756.007	0.008	2795912	COUNTDOWN_END	n/a	n/a	n/a	-999	25	[0, 0, 0]	n/a	FR1	1	R1195E
2756.015	1.617	2795920	ORIENT	n/a	n/a	n/a	-999	25	[0, 0, 0]	n/a	FR1	1	R1195E
2757.632	2.084	2797537	ORIENT_OFF	n/a	n/a	n/a	-999	25	[0, 0, 0]	n/a	FR1	1	R1195E
2759.716	1.617	2799621	WORD	n/a	wordpools/wordpool_EN.txt	DRESS	1	25	[0, 0, 0]	n/a	FR1	1	R1195E
2761.333	0.966	2801238	WORD_OFF	n/a	n/a	DRESS	1	25	[0, 0, 0]	n/a	FR1	1	R1195E
2762.299	1.618	2802204	WORD	n/a	wordpools/wordpool_EN.txt	PEN	2	25	[0, 0, 0]	n/a	FR1	1	R1195E
2763.917	0.883	2803822	WORD_OFF	n/a	n/a	PEN	2	25	[0, 0, 0]	n/a	FR1	1	R1195E
2764.8	1.617	2804705	WORD	n/a	wordpools/wordpool_EN.txt	CHALK	3	25	[0, 0, 0]	n/a	FR1	1	R1195E
2766.417	0.766	2806322	WORD_OFF	n/a	n/a	CHALK	3	25	[0, 0, 0]	n/a	FR1	1	R1195E
2767.183	1.601	2807088	WORD	n/a	wordpools/wordpool_EN.txt	TOE	4	25	[0, 0, 0]	n/a	FR1	1	R1195E
2768.784	0.867	2808689	WORD_OFF	n/a	n/a	TOE	4	25	[0, 0, 0]	n/a	FR1	1	R1195E
2769.651	1.616	2809556	WORD	n/a	wordpools/wordpool_EN.txt	FORK	5	25	[0, 0, 0]	n/a	FR1	1	R1195E
2771.267	0.967	2811172	WORD_OFF	n/a	n/a	FORK	5	25	[0, 0, 0]	n/a	FR1	1	R1195E
2772.234	1.618	2812139	WORD	n/a	wordpools/wordpool_EN.txt	FARM	6	25	[0, 0, 0]	n/a	FR1	1	R1195E
2773.852	0.983	2813757	WORD_OFF	n/a	n/a	FARM	6	25	[0, 0, 0]	n/a	FR1	1	R1195E
2774.835	1.617	2814739	WORD	n/a	wordpools/wordpool_EN.txt	COUCH	7	25	[0, 0, 0]	n/a	FR1	1	R1195E
2776.452	0.867	2816356	WORD_OFF	n/a	n/a	COUCH	7	25	[0, 0, 0]	n/a	FR1	1	R1195E
2777.319	1.617	2817223	WORD	n/a	wordpools/wordpool_EN.txt	FACE	8	25	[0, 0, 0]	n/a	FR1	1	R1195E
2778.936	0.883	2818840	WORD_OFF	n/a	n/a	FACE	8	25	[0, 0, 0]	n/a	FR1	1	R1195E
2779.819	1.617	2819723	WORD	n/a	wordpools/wordpool_EN.txt	HAT	9	25	[0, 0, 0]	n/a	FR1	1	R1195E
2781.436	0.901	2821340	WORD_OFF	n/a	n/a	HAT	9	25	[0, 0, 0]	n/a	FR1	1	R1195E
2782.337	1.617	2822241	WORD	n/a	wordpools/wordpool_EN.txt	GUARD	10	25	[0, 0, 0]	n/a	FR1	1	R1195E
2783.954	0.85	2823858	WORD_OFF	n/a	n/a	GUARD	10	25	[0, 0, 0]	n/a	FR1	1	R1195E
2784.804	1.617	2824708	WORD	n/a	wordpools/wordpool_EN.txt	SLIME	11	25	[0, 0, 0]	n/a	FR1	1	R1195E
2786.421	0.916	2826325	WORD_OFF	n/a	n/a	SLIME	11	25	[0, 0, 0]	n/a	FR1	1	R1195E
2787.337	1.617	2827241	WORD	n/a	wordpools/wordpool_EN.txt	BOARD	12	25	[0, 0, 0]	n/a	FR1	1	R1195E
2788.954	0.0	2828858	WORD_OFF	n/a	n/a	BOARD	12	25	[0, 0, 0]	n/a	FR1	1	R1195E
2788.954	0.001	2828858	DISTRACT_START	n/a	n/a	n/a	-999	25	[0, 0, 0]	n/a	FR1	1	R1195E
2788.955	0.016	2828859	START	n/a	n/a	n/a	-999	25	[-999, -999, -999]	n/a	FR1	1	R1195E
2788.971	9.385	2828875	PROB	9.385	n/a	n/a	-999	25	[3, 8, 2]	13	FR1	1	R1195E
2798.356	3.434	2838260	PROB	3.434	n/a	n/a	-999	25	[5, 4, 6]	15	FR1	1	R1195E
2801.79	5.167	2841693	PROB	5.167	n/a	n/a	-999	25	[2, 8, 6]	16	FR1	1	R1195E
2806.957	4.363	2846860	PROB	4.363	n/a	n/a	-999	25	[7, 1, 6]	14	FR1	1	R1195E
2811.32	0.022	2851223	STOP	n/a	n/a	n/a	-999	25	[-999, -999, -999]	n/a	FR1	1	R1195E
2811.342	0.65	2851245	DISTRACT_END	n/a	n/a	n/a	-999	25	[0, 0, 0]	n/a	FR1	1	R1195E
2811.992	0.517	2851895	RETRIEVAL_ORIENT	n/a	n/a	n/a	-999	25	[0, 0, 0]	n/a	FR1	1	R1195E
2812.509	3.892	2852412	REC_START	n/a	n/a	n/a	-999	25	[0, 0, 0]	n/a	FR1	1	R1195E
2816.401	4.419	2856304	REC_WORD	4.419	n/a	GUARD	10	25	[0, 0, 0]	n/a	FR1	1	R1195E
2820.82	3.219	2860723	REC_WORD	3.219	n/a	BORDER	-999	25	[0, 0, 0]	n/a	FR1	1	R1195E
2824.039	3.124	2863942	REC_WORD	3.124	n/a	SLIME	11	25	[0, 0, 0]	n/a	FR1	1	R1195E
2827.163	6.6	2867065	REC_WORD	6.6	n/a	FARM	6	25	[0, 0, 0]	n/a	FR1	1	R1195E
2833.763	8.758	2873665	REC_WORD	8.758	n/a	HAT	9	25	[0, 0, 0]	n/a	FR1	1	R1195E
2842.521	25.231	2882423	REC_END	n/a	n/a	n/a	-999	25	[0, 0, 0]	n/a	FR1	1	R1195E
2867.752	0.0	2907653	SESS_END	n/a	n/a	n/a	-999	25	[0, 0, 0]	n/a	FR1	1	R1195E
