onset	duration	sample	trial_type	response_time	stim_file	item_name	serialpos	list	test	answer	experiment	session	subject
0.0	161.803	29210	INSTRUCT_START	n/a	n/a	n/a	-999	-999	[0, 0, 0]	n/a	FR1	0	R1401J
161.803	25.745	190997	INSTRUCT_END	n/a	n/a	n/a	-999	-999	[0, 0, 0]	n/a	FR1	0	R1401J
187.548	10.361	216744	COUNTDOWN_START	n/a	n/a	n/a	-999	-999	[0, 0, 0]	n/a	FR1	0	R1401J
197.909	0.0	227106	COUNTDOWN_END	n/a	n/a	n/a	-999	-999	[0, 0, 0]	n/a	FR1	0	R1401J
197.909	1.888	227106	ENCODING_START	n/a	n/a	n/a	-999	-1	[0, 0, 0]	n/a	FR1	0	R1401J
199.797	1.601	228999	WORD	n/a	n/a	STRING	1	-1	[0, 0, 0]	n/a	FR1	0	R1401J
201.398	0.766	230601	WORD_OFF	n/a	n/a	STRING	1	-1	[0, 0, 0]	n/a	FR1	0	R1401J
202.164	1.601	231364	WORD	n/a	n/a	GATE	2	-1	[0, 0, 0]	n/a	FR1	0	R1401J
203.765	0.883	232967	WORD_OFF	n/a	n/a	GATE	2	-1	[0, 0, 0]	n/a	FR1	0	R1401J
204.648	1.617	233852	WORD	n/a	n/a	DIME	3	-1	[0, 0, 0]	n/a	FR1	0	R1401J
206.265	0.966	235470	WORD_OFF	n/a	n/a	DIME	3	-1	[0, 0, 0]	n/a	FR1	0	R1401J
207.231	1.616	236431	WORD	n/a	n/a	TRIBE	4	-1	[0, 0, 0]	n/a	FR1	0	R1401J
208.847	0.95	238049	WORD_OFF	n/a	n/a	TRIBE	4	-1	[0, 0, 0]	n/a	FR1	0	R1401J
209.797	1.601	238995	WORD	n/a	n/a	SEED	5	-1	[0, 0, 0]	n/a	FR1	0	R1401J
211.398	0.917	240597	WORD_OFF	n/a	n/a	SEED	5	-1	[0, 0, 0]	n/a	FR1	0	R1401J
212.315	1.616	241513	WORD	n/a	n/a	CROSS	6	-1	[0, 0, 0]	n/a	FR1	0	R1401J
213.931	0.784	243131	WORD_OFF	n/a	n/a	CROSS	6	-1	[0, 0, 0]	n/a	FR1	0	R1401J
214.715	1.617	243909	WORD	n/a	n/a	FOOD	7	-1	[0, 0, 0]	n/a	FR1	0	R1401J
216.332	1.0	245527	WORD_OFF	n/a	n/a	FOOD	7	-1	[0, 0, 0]	n/a	FR1	0	R1401J
217.332	1.616	246534	WORD	n/a	n/a	BLADE	8	-1	[0, 0, 0]	n/a	FR1	0	R1401J
218.948	0.95	248152	WORD_OFF	n/a	n/a	BLADE	8	-1	[0, 0, 0]	n/a	FR1	0	R1401J
219.898	1.6	249098	WORD	n/a	n/a	FLAG	9	-1	[0, 0, 0]	n/a	FR1	0	R1401J
221.498	0.767	250701	WORD_OFF	n/a	n/a	FLAG	9	-1	[0, 0, 0]	n/a	FR1	0	R1401J
222.265	1.6	251464	WORD	n/a	n/a	CONE	10	-1	[0, 0, 0]	n/a	FR1	0	R1401J
223.865	0.933	253066	WORD_OFF	n/a	n/a	CONE	10	-1	[0, 0, 0]	n/a	FR1	0	R1401J
224.798	1.6	253997	WORD	n/a	n/a	HORN	11	-1	[0, 0, 0]	n/a	FR1	0	R1401J
226.398	0.883	255600	WORD_OFF	n/a	n/a	HORN	11	-1	[0, 0, 0]	n/a	FR1	0	R1401J
227.281	1.601	256485	WORD	n/a	n/a	SMOG	12	-1	[0, 0, 0]	n/a	FR1	0	R1401J
228.882	0.001	258072	WORD_OFF	n/a	n/a	SMOG	12	-1	[0, 0, 0]	n/a	FR1	0	R1401J
228.883	0.0	258080	START	n/a	n/a	n/a	-999	-1	[-999, -999, -999]	n/a	FR1	0	R1401J
228.883	0.0	258080	PROB	0.0	n/a	n/a	-999	-1	[5, 2, 6]	13	FR1	0	R1401J
228.883	0.0	258087	ENCODING_END	n/a	n/a	n/a	-999	-1	[0, 0, 0]	n/a	FR1	0	R1401J
228.883	66.732	258087	DISTRACT_START	n/a	n/a	n/a	-999	-1	[0, 0, 0]	n/a	FR1	0	R1401J
295.615	0.0	324809	STOP	n/a	n/a	n/a	-999	-1	[-999, -999, -999]	n/a	FR1	0	R1401J
295.615	2.35	324811	DISTRACT_END	n/a	n/a	n/a	-999	-1	[0, 0, 0]	n/a	FR1	0	R1401J
297.965	3.663	327154	REC_START	n/a	n/a	n/a	-999	-1	[0, 0, 0]	n/a	FR1	0	R1401J
301.628	2.405	330822	REC_WORD_VV	2.405	n/a	<>	-999	-1	[0, 0, 0]	n/a	FR1	0	R1401J
304.033	0.575	333227	REC_WORD	0.575	n/a	CONE	10	-1	[0, 0, 0]	n/a	FR1	0	R1401J
304.608	0.67	333802	REC_WORD	0.67	n/a	GIANT	-999	-1	[0, 0, 0]	n/a	FR1	0	R1401J
305.278	2.315	334472	REC_WORD	2.315	n/a	HORN	11	-1	[0, 0, 0]	n/a	FR1	0	R1401J
307.593	3.49	336786	REC_WORD	3.49	n/a	FLAG	9	-1	[0, 0, 0]	n/a	FR1	0	R1401J
311.083	1.0	340276	REC_WORD_VV	1.0	n/a	<>	-999	-1	[0, 0, 0]	n/a	FR1	0	R1401J
312.083	9.9	341276	REC_WORD_VV	9.9	n/a	<>	-999	-1	[0, 0, 0]	n/a	FR1	0	R1401J
321.983	6.204	351176	REC_WORD	6.204	n/a	GRAPE	-999	-1	[0, 0, 0]	n/a	FR1	0	R1401J
328.187	39.745	357379	REC_END	n/a	n/a	n/a	-999	-1	[0, 0, 0]	n/a	FR1	0	R1401J
367.932	10.366	397120	COUNTDOWN_START	n/a	n/a	n/a	-999	1	[0, 0, 0]	n/a	FR1	0	R1401J
378.298	0.0	407482	COUNTDOWN_END	n/a	n/a	n/a	-999	1	[0, 0, 0]	n/a	FR1	0	R1401J
378.298	1.933	407497	ENCODING_START	n/a	n/a	n/a	-999	1	[0, 0, 0]	n/a	FR1	0	R1401J
380.231	1.616	409420	WORD	n/a	wordpools/wordpool_long_EN.txt	COD	1	1	[0, 0, 0]	n/a	FR1	0	R1401J
381.847	0.817	411038	WORD_OFF	n/a	n/a	COD	1	1	[0, 0, 0]	n/a	FR1	0	R1401J
382.664	1.601	411862	WORD	n/a	wordpools/wordpool_long_EN.txt	TANK	2	1	[0, 0, 0]	n/a	FR1	0	R1401J
384.265	0.849	413449	WORD_OFF	n/a	n/a	TANK	2	1	[0, 0, 0]	n/a	FR1	0	R1401J
385.114	1.6	414304	WORD	n/a	wordpools/wordpool_long_EN.txt	SHIELD	3	1	[0, 0, 0]	n/a	FR1	0	R1401J
386.714	0.917	415907	WORD_OFF	n/a	n/a	SHIELD	3	1	[0, 0, 0]	n/a	FR1	0	R1401J
387.631	1.6	416822	WORD	n/a	wordpools/wordpool_long_EN.txt	BOARD	4	1	[0, 0, 0]	n/a	FR1	0	R1401J
389.231	0.834	418425	WORD_OFF	n/a	n/a	BOARD	4	1	[0, 0, 0]	n/a	FR1	0	R1401J
390.065	1.6	419249	WORD	n/a	wordpools/wordpool_long_EN.txt	WRIST	5	1	[0, 0, 0]	n/a	FR1	0	R1401J
391.665	0.917	420851	WORD_OFF	n/a	n/a	WRIST	5	1	[0, 0, 0]	n/a	FR1	0	R1401J
392.582	1.616	421767	WORD	n/a	wordpools/wordpool_long_EN.txt	FRAME	6	1	[0, 0, 0]	n/a	FR1	0	R1401J
394.198	0.917	423385	WORD_OFF	n/a	n/a	FRAME	6	1	[0, 0, 0]	n/a	FR1	0	R1401J
395.115	1.6	424300	WORD	n/a	wordpools/wordpool_long_EN.txt	HOUSE	7	1	[0, 0, 0]	n/a	FR1	0	R1401J
396.715	0.85	425903	WORD_OFF	n/a	n/a	HOUSE	7	1	[0, 0, 0]	n/a	FR1	0	R1401J
397.565	1.6	426757	WORD	n/a	wordpools/wordpool_long_EN.txt	TOOL	8	1	[0, 0, 0]	n/a	FR1	0	R1401J
399.165	1.0	428360	WORD_OFF	n/a	n/a	TOOL	8	1	[0, 0, 0]	n/a	FR1	0	R1401J
400.165	1.617	429352	WORD	n/a	wordpools/wordpool_long_EN.txt	BLOOM	9	1	[0, 0, 0]	n/a	FR1	0	R1401J
401.782	0.883	430970	WORD_OFF	n/a	n/a	BLOOM	9	1	[0, 0, 0]	n/a	FR1	0	R1401J
402.665	1.616	431855	WORD	n/a	wordpools/wordpool_long_EN.txt	BREAD	10	1	[0, 0, 0]	n/a	FR1	0	R1401J
404.281	0.884	433473	WORD_OFF	n/a	n/a	BREAD	10	1	[0, 0, 0]	n/a	FR1	0	R1401J
405.165	1.6	434358	WORD	n/a	wordpools/wordpool_long_EN.txt	TEETH	11	1	[0, 0, 0]	n/a	FR1	0	R1401J
406.765	0.983	435960	WORD_OFF	n/a	n/a	TEETH	11	1	[0, 0, 0]	n/a	FR1	0	R1401J
407.748	1.601	436937	WORD	n/a	wordpools/wordpool_long_EN.txt	TROUT	12	1	[0, 0, 0]	n/a	FR1	0	R1401J
409.349	0.0	438538	PROB	0.0	n/a	n/a	-999	1	[5, 2, 2]	9	FR1	0	R1401J
409.348	0.008	438539	WORD_OFF	n/a	n/a	TROUT	12	1	[0, 0, 0]	n/a	FR1	0	R1401J
409.356	0.0	438539	ENCODING_END	n/a	n/a	n/a	-999	1	[0, 0, 0]	n/a	FR1	0	R1401J
409.356	0.0	438545	START	n/a	n/a	n/a	-999	1	[-999, -999, -999]	n/a	FR1	0	R1401J
409.356	8.976	438555	DISTRACT_START	n/a	n/a	n/a	-999	1	[0, 0, 0]	n/a	FR1	0	R1401J
418.332	14.715	447521	PROB	14.715	n/a	n/a	-999	1	[3, 4, 7]	14	FR1	0	R1401J
433.047	0.0	462235	STOP	n/a	n/a	n/a	-999	1	[-999, -999, -999]	n/a	FR1	0	R1401J
433.047	2.383	462241	DISTRACT_END	n/a	n/a	n/a	-999	1	[0, 0, 0]	n/a	FR1	0	R1401J
435.43	1.795	464614	REC_START	n/a	n/a	n/a	-999	1	[0, 0, 0]	n/a	FR1	0	R1401J
437.225	1.364	466413	REC_WORD	1.364	n/a	COD	1	1	[0, 0, 0]	n/a	FR1	0	R1401J
438.589	2.39	467777	REC_WORD	2.39	n/a	PLUS	-999	1	[0, 0, 0]	n/a	FR1	0	R1401J
440.979	1.005	470167	REC_WORD	1.005	n/a	TROUT	12	1	[0, 0, 0]	n/a	FR1	0	R1401J
441.984	3.615	471172	REC_WORD	3.615	n/a	WRIST	5	1	[0, 0, 0]	n/a	FR1	0	R1401J
445.599	0.36	474787	REC_WORD_VV	0.36	n/a	<>	-999	1	[0, 0, 0]	n/a	FR1	0	R1401J
445.959	0.55	475147	REC_WORD_VV	0.55	n/a	<>	-999	1	[0, 0, 0]	n/a	FR1	0	R1401J
446.509	1.34	475697	REC_WORD	1.34	n/a	BOARD	4	1	[0, 0, 0]	n/a	FR1	0	R1401J
447.849	10.685	477036	REC_WORD	10.685	n/a	HOUSE	7	1	[0, 0, 0]	n/a	FR1	0	R1401J
458.534	0.515	487721	REC_WORD	0.515	n/a	WRIST	5	1	[0, 0, 0]	n/a	FR1	0	R1401J
459.049	4.315	488236	REC_WORD_VV	4.315	n/a	<>	-999	1	[0, 0, 0]	n/a	FR1	0	R1401J
463.364	1.0	492551	REC_WORD_VV	1.0	n/a	<>	-999	1	[0, 0, 0]	n/a	FR1	0	R1401J
464.364	1.0	493551	REC_WORD_VV	1.0	n/a	<>	-999	1	[0, 0, 0]	n/a	FR1	0	R1401J
465.364	0.284	494551	REC_WORD_VV	0.284	n/a	<>	-999	1	[0, 0, 0]	n/a	FR1	0	R1401J
465.648	3.5	494839	REC_END	n/a	n/a	n/a	-999	1	[0, 0, 0]	n/a	FR1	0	R1401J
469.148	10.359	498334	COUNTDOWN_START	n/a	n/a	n/a	-999	2	[0, 0, 0]	n/a	FR1	0	R1401J
479.507	0.0	508697	COUNTDOWN_END	n/a	n/a	n/a	-999	2	[0, 0, 0]	n/a	FR1	0	R1401J
479.507	2.024	508697	ENCODING_START	n/a	n/a	n/a	-999	2	[0, 0, 0]	n/a	FR1	0	R1401J
481.531	1.6	510711	WORD	n/a	wordpools/wordpool_long_EN.txt	TOY	1	2	[0, 0, 0]	n/a	FR1	0	R1401J
483.131	0.833	512314	WORD_OFF	n/a	n/a	TOY	1	2	[0, 0, 0]	n/a	FR1	0	R1401J
483.964	1.601	513153	WORD	n/a	wordpools/wordpool_long_EN.txt	SKUNK	2	2	[0, 0, 0]	n/a	FR1	0	R1401J
485.565	0.983	514755	WORD_OFF	n/a	n/a	SKUNK	2	2	[0, 0, 0]	n/a	FR1	0	R1401J
486.548	1.6	515732	WORD	n/a	wordpools/wordpool_long_EN.txt	FILM	3	2	[0, 0, 0]	n/a	FR1	0	R1401J
488.148	0.95	517335	WORD_OFF	n/a	n/a	FILM	3	2	[0, 0, 0]	n/a	FR1	0	R1401J
489.098	1.601	518281	WORD	n/a	wordpools/wordpool_long_EN.txt	SNACK	4	2	[0, 0, 0]	n/a	FR1	0	R1401J
490.699	0.949	519883	WORD_OFF	n/a	n/a	SNACK	4	2	[0, 0, 0]	n/a	FR1	0	R1401J
491.648	1.6	520830	WORD	n/a	wordpools/wordpool_long_EN.txt	STEAM	5	2	[0, 0, 0]	n/a	FR1	0	R1401J
493.248	0.834	522432	WORD_OFF	n/a	n/a	STEAM	5	2	[0, 0, 0]	n/a	FR1	0	R1401J
494.082	1.618	523271	WORD	n/a	wordpools/wordpool_long_EN.txt	SALT	6	2	[0, 0, 0]	n/a	FR1	0	R1401J
495.7	0.915	524889	WORD_OFF	n/a	n/a	SALT	6	2	[0, 0, 0]	n/a	FR1	0	R1401J
496.615	1.6	525805	WORD	n/a	wordpools/wordpool_long_EN.txt	GIRL	7	2	[0, 0, 0]	n/a	FR1	0	R1401J
498.215	0.85	527407	WORD_OFF	n/a	n/a	GIRL	7	2	[0, 0, 0]	n/a	FR1	0	R1401J
499.065	1.617	528247	WORD	n/a	wordpools/wordpool_long_EN.txt	TOOTH	8	2	[0, 0, 0]	n/a	FR1	0	R1401J
500.682	0.783	529864	WORD_OFF	n/a	n/a	TOOTH	8	2	[0, 0, 0]	n/a	FR1	0	R1401J
501.465	1.6	530643	WORD	n/a	wordpools/wordpool_long_EN.txt	SPRING	9	2	[0, 0, 0]	n/a	FR1	0	R1401J
503.065	0.816	532245	WORD_OFF	n/a	n/a	SPRING	9	2	[0, 0, 0]	n/a	FR1	0	R1401J
503.881	1.617	533069	WORD	n/a	wordpools/wordpool_long_EN.txt	PALM	10	2	[0, 0, 0]	n/a	FR1	0	R1401J
505.498	0.9	534687	WORD_OFF	n/a	n/a	PALM	10	2	[0, 0, 0]	n/a	FR1	0	R1401J
506.398	1.6	535587	WORD	n/a	wordpools/wordpool_long_EN.txt	DOG	11	2	[0, 0, 0]	n/a	FR1	0	R1401J
507.998	0.783	537190	WORD_OFF	n/a	n/a	DOG	11	2	[0, 0, 0]	n/a	FR1	0	R1401J
508.781	1.601	537968	WORD	n/a	wordpools/wordpool_long_EN.txt	PIT	12	2	[0, 0, 0]	n/a	FR1	0	R1401J
510.382	0.001	539567	PROB	0.001	n/a	n/a	-999	2	[3, 3, 3]	9	FR1	0	R1401J
510.383	0.0	539568	START	n/a	n/a	n/a	-999	2	[-999, -999, -999]	n/a	FR1	0	R1401J
510.381	0.002	539571	WORD_OFF	n/a	n/a	PIT	12	2	[0, 0, 0]	n/a	FR1	0	R1401J
510.383	0.0	539571	ENCODING_END	n/a	n/a	n/a	-999	2	[0, 0, 0]	n/a	FR1	0	R1401J
510.383	8.199	539571	DISTRACT_START	n/a	n/a	n/a	-999	2	[0, 0, 0]	n/a	FR1	0	R1401J
518.582	7.599	547766	PROB	7.599	n/a	n/a	-999	2	[2, 8, 1]	11	FR1	0	R1401J
526.181	14.333	555365	PROB	14.333	n/a	n/a	-999	2	[8, 4, 5]	17	FR1	0	R1401J
540.514	0.0	569697	DISTRACT_END	n/a	n/a	n/a	-999	2	[0, 0, 0]	n/a	FR1	0	R1401J
540.514	2.301	569698	STOP	n/a	n/a	n/a	-999	2	[-999, -999, -999]	n/a	FR1	0	R1401J
542.815	1.45	571994	REC_START	n/a	n/a	n/a	-999	2	[0, 0, 0]	n/a	FR1	0	R1401J
544.265	0.524	573448	REC_WORD_VV	0.524	n/a	<>	-999	2	[0, 0, 0]	n/a	FR1	0	R1401J
544.789	2.966	573972	REC_WORD	2.966	n/a	TROUT	-999	2	[0, 0, 0]	n/a	FR1	0	R1401J
547.755	1.375	576938	REC_WORD_VV	1.375	n/a	<>	-999	2	[0, 0, 0]	n/a	FR1	0	R1401J
549.13	4.765	578313	REC_WORD	4.765	n/a	SKUNK	2	2	[0, 0, 0]	n/a	FR1	0	R1401J
553.895	0.465	583078	REC_WORD	0.465	n/a	TROUT	-999	2	[0, 0, 0]	n/a	FR1	0	R1401J
554.36	4.15	583543	REC_WORD	4.15	n/a	SKUNK	2	2	[0, 0, 0]	n/a	FR1	0	R1401J
558.51	1.62	587693	REC_WORD	1.62	n/a	GIRL	7	2	[0, 0, 0]	n/a	FR1	0	R1401J
560.13	1.555	589313	REC_WORD	1.555	n/a	TOY	1	2	[0, 0, 0]	n/a	FR1	0	R1401J
561.685	4.22	590868	REC_WORD	4.22	n/a	TOOTH	8	2	[0, 0, 0]	n/a	FR1	0	R1401J
565.905	7.126	595087	REC_WORD_VV	7.126	n/a	<>	-999	2	[0, 0, 0]	n/a	FR1	0	R1401J
573.031	11.734	602219	REC_END	n/a	n/a	n/a	-999	2	[0, 0, 0]	n/a	FR1	0	R1401J
584.765	10.36	613955	COUNTDOWN_START	n/a	n/a	n/a	-999	3	[0, 0, 0]	n/a	FR1	0	R1401J
595.125	0.0	624303	COUNTDOWN_END	n/a	n/a	n/a	-999	3	[0, 0, 0]	n/a	FR1	0	R1401J
595.125	2.206	624303	ENCODING_START	n/a	n/a	n/a	-999	3	[0, 0, 0]	n/a	FR1	0	R1401J
597.331	1.617	626516	WORD	n/a	wordpools/wordpool_long_EN.txt	INN	1	3	[0, 0, 0]	n/a	FR1	0	R1401J
598.948	0.833	628133	WORD_OFF	n/a	n/a	INN	1	3	[0, 0, 0]	n/a	FR1	0	R1401J
599.781	1.616	628957	WORD	n/a	wordpools/wordpool_long_EN.txt	ROCK	2	3	[0, 0, 0]	n/a	FR1	0	R1401J
601.397	0.868	630575	WORD_OFF	n/a	n/a	ROCK	2	3	[0, 0, 0]	n/a	FR1	0	R1401J
602.265	1.616	631445	WORD	n/a	wordpools/wordpool_long_EN.txt	SINK	3	3	[0, 0, 0]	n/a	FR1	0	R1401J
603.881	0.934	633063	WORD_OFF	n/a	n/a	SINK	3	3	[0, 0, 0]	n/a	FR1	0	R1401J
604.815	1.6	633994	WORD	n/a	wordpools/wordpool_long_EN.txt	THUMB	4	3	[0, 0, 0]	n/a	FR1	0	R1401J
606.415	1.0	635596	WORD_OFF	n/a	n/a	THUMB	4	3	[0, 0, 0]	n/a	FR1	0	R1401J
607.415	1.616	636603	WORD	n/a	wordpools/wordpool_long_EN.txt	RUST	5	3	[0, 0, 0]	n/a	FR1	0	R1401J
609.031	0.9	638206	WORD_OFF	n/a	n/a	RUST	5	3	[0, 0, 0]	n/a	FR1	0	R1401J
609.931	1.6	639106	WORD	n/a	wordpools/wordpool_long_EN.txt	HOOD	6	3	[0, 0, 0]	n/a	FR1	0	R1401J
611.531	0.933	640709	WORD_OFF	n/a	n/a	HOOD	6	3	[0, 0, 0]	n/a	FR1	0	R1401J
612.464	1.601	641640	WORD	n/a	wordpools/wordpool_long_EN.txt	ROD	7	3	[0, 0, 0]	n/a	FR1	0	R1401J
614.065	0.849	643242	WORD_OFF	n/a	n/a	ROD	7	3	[0, 0, 0]	n/a	FR1	0	R1401J
614.914	1.617	644097	WORD	n/a	wordpools/wordpool_long_EN.txt	JAR	8	3	[0, 0, 0]	n/a	FR1	0	R1401J
616.531	0.85	645715	WORD_OFF	n/a	n/a	JAR	8	3	[0, 0, 0]	n/a	FR1	0	R1401J
617.381	1.616	646569	WORD	n/a	wordpools/wordpool_long_EN.txt	CHEEK	9	3	[0, 0, 0]	n/a	FR1	0	R1401J
618.997	0.884	648172	WORD_OFF	n/a	n/a	CHEEK	9	3	[0, 0, 0]	n/a	FR1	0	R1401J
619.881	1.6	649057	WORD	n/a	wordpools/wordpool_long_EN.txt	SEA	10	3	[0, 0, 0]	n/a	FR1	0	R1401J
621.481	0.9	650659	WORD_OFF	n/a	n/a	SEA	10	3	[0, 0, 0]	n/a	FR1	0	R1401J
622.381	1.6	651560	WORD	n/a	wordpools/wordpool_long_EN.txt	STOOL	11	3	[0, 0, 0]	n/a	FR1	0	R1401J
623.981	0.9	653162	WORD_OFF	n/a	n/a	STOOL	11	3	[0, 0, 0]	n/a	FR1	0	R1401J
624.881	1.6	654063	WORD	n/a	wordpools/wordpool_long_EN.txt	WORLD	12	3	[0, 0, 0]	n/a	FR1	0	R1401J
626.481	0.001	655661	PROB	0.001	n/a	n/a	-999	3	[6, 1, 8]	15	FR1	0	R1401J
626.482	0.0	655662	START	n/a	n/a	n/a	-999	3	[-999, -999, -999]	n/a	FR1	0	R1401J
626.481	0.001	655665	WORD_OFF	n/a	n/a	WORLD	12	3	[0, 0, 0]	n/a	FR1	0	R1401J
626.482	0.0	655665	ENCODING_END	n/a	n/a	n/a	-999	3	[0, 0, 0]	n/a	FR1	0	R1401J
626.482	17.75	655665	DISTRACT_START	n/a	n/a	n/a	-999	3	[0, 0, 0]	n/a	FR1	0	R1401J
644.232	8.099	673411	PROB	8.099	n/a	n/a	-999	3	[2, 3, 6]	11	FR1	0	R1401J
652.331	0.0	681510	STOP	n/a	n/a	n/a	-999	3	[-999, -999, -999]	n/a	FR1	0	R1401J
652.331	2.183	681518	DISTRACT_END	n/a	n/a	n/a	-999	3	[0, 0, 0]	n/a	FR1	0	R1401J
654.514	0.87	683693	REC_START	n/a	n/a	n/a	-999	3	[0, 0, 0]	n/a	FR1	0	R1401J
655.384	0.835	684563	REC_WORD_VV	0.835	n/a	<>	-999	3	[0, 0, 0]	n/a	FR1	0	R1401J
656.219	1.52	685398	REC_WORD	1.52	n/a	ROCK	2	3	[0, 0, 0]	n/a	FR1	0	R1401J
657.739	0.395	686918	REC_WORD	0.395	n/a	INN	1	3	[0, 0, 0]	n/a	FR1	0	R1401J
658.134	4.983	687313	REC_WORD	4.983	n/a	SINK	3	3	[0, 0, 0]	n/a	FR1	0	R1401J
663.117	0.385	692295	REC_WORD	0.385	n/a	INN	1	3	[0, 0, 0]	n/a	FR1	0	R1401J
663.502	0.585	692680	REC_WORD	0.585	n/a	SINK	3	3	[0, 0, 0]	n/a	FR1	0	R1401J
664.087	20.665	693265	REC_WORD_VV	20.665	n/a	<>	-999	3	[0, 0, 0]	n/a	FR1	0	R1401J
684.752	37.83	713934	REC_END	n/a	n/a	n/a	-999	3	[0, 0, 0]	n/a	FR1	0	R1401J
722.582	10.362	751767	COUNTDOWN_START	n/a	n/a	n/a	-999	4	[0, 0, 0]	n/a	FR1	0	R1401J
732.944	0.0	762114	COUNTDOWN_END	n/a	n/a	n/a	-999	4	[0, 0, 0]	n/a	FR1	0	R1401J
732.944	2.104	762129	ENCODING_START	n/a	n/a	n/a	-999	4	[0, 0, 0]	n/a	FR1	0	R1401J
735.048	1.617	764220	WORD	n/a	wordpools/wordpool_long_EN.txt	DITCH	1	4	[0, 0, 0]	n/a	FR1	0	R1401J
736.665	0.816	765838	WORD_OFF	n/a	n/a	DITCH	1	4	[0, 0, 0]	n/a	FR1	0	R1401J
737.481	1.6	766662	WORD	n/a	wordpools/wordpool_long_EN.txt	SKATE	2	4	[0, 0, 0]	n/a	FR1	0	R1401J
739.081	0.934	768249	WORD_OFF	n/a	n/a	SKATE	2	4	[0, 0, 0]	n/a	FR1	0	R1401J
740.015	1.6	769196	WORD	n/a	wordpools/wordpool_long_EN.txt	PEA	3	4	[0, 0, 0]	n/a	FR1	0	R1401J
741.615	0.982	770783	WORD_OFF	n/a	n/a	PEA	3	4	[0, 0, 0]	n/a	FR1	0	R1401J
742.597	1.601	771775	WORD	n/a	wordpools/wordpool_long_EN.txt	VEST	4	4	[0, 0, 0]	n/a	FR1	0	R1401J
744.198	0.782	773377	WORD_OFF	n/a	n/a	VEST	4	4	[0, 0, 0]	n/a	FR1	0	R1401J
744.98	1.6	774156	WORD	n/a	wordpools/wordpool_long_EN.txt	RAT	5	4	[0, 0, 0]	n/a	FR1	0	R1401J
746.58	0.935	775758	WORD_OFF	n/a	n/a	RAT	5	4	[0, 0, 0]	n/a	FR1	0	R1401J
747.515	1.6	776689	WORD	n/a	wordpools/wordpool_long_EN.txt	SCOTCH	6	4	[0, 0, 0]	n/a	FR1	0	R1401J
749.115	0.766	778291	WORD_OFF	n/a	n/a	SCOTCH	6	4	[0, 0, 0]	n/a	FR1	0	R1401J
749.881	1.616	779055	WORD	n/a	wordpools/wordpool_long_EN.txt	GEESE	7	4	[0, 0, 0]	n/a	FR1	0	R1401J
751.497	0.817	780672	WORD_OFF	n/a	n/a	GEESE	7	4	[0, 0, 0]	n/a	FR1	0	R1401J
752.314	1.601	781496	WORD	n/a	wordpools/wordpool_long_EN.txt	STAR	8	4	[0, 0, 0]	n/a	FR1	0	R1401J
753.915	0.766	783084	WORD_OFF	n/a	n/a	STAR	8	4	[0, 0, 0]	n/a	FR1	0	R1401J
754.681	1.616	783862	WORD	n/a	wordpools/wordpool_long_EN.txt	MOUSE	9	4	[0, 0, 0]	n/a	FR1	0	R1401J
756.297	0.801	785464	WORD_OFF	n/a	n/a	MOUSE	9	4	[0, 0, 0]	n/a	FR1	0	R1401J
757.098	1.617	786273	WORD	n/a	wordpools/wordpool_long_EN.txt	GLOBE	10	4	[0, 0, 0]	n/a	FR1	0	R1401J
758.715	0.982	787891	WORD_OFF	n/a	n/a	GLOBE	10	4	[0, 0, 0]	n/a	FR1	0	R1401J
759.697	1.618	788868	WORD	n/a	wordpools/wordpool_long_EN.txt	YARD	11	4	[0, 0, 0]	n/a	FR1	0	R1401J
761.315	0.915	790485	WORD_OFF	n/a	n/a	YARD	11	4	[0, 0, 0]	n/a	FR1	0	R1401J
762.23	1.6	791401	WORD	n/a	wordpools/wordpool_long_EN.txt	ICE	12	4	[0, 0, 0]	n/a	FR1	0	R1401J
763.83	0.002	793004	WORD_OFF	n/a	n/a	ICE	12	4	[0, 0, 0]	n/a	FR1	0	R1401J
763.832	0.0	793004	ENCODING_END	n/a	n/a	n/a	-999	4	[0, 0, 0]	n/a	FR1	0	R1401J
763.832	0.0	793004	DISTRACT_START	n/a	n/a	n/a	-999	4	[0, 0, 0]	n/a	FR1	0	R1401J
763.832	0.0	793006	START	n/a	n/a	n/a	-999	4	[-999, -999, -999]	n/a	FR1	0	R1401J
763.832	10.433	793006	PROB	10.433	n/a	n/a	-999	4	[4, 6, 1]	11	FR1	0	R1401J
774.265	9.866	803439	PROB	9.866	n/a	n/a	-999	4	[2, 3, 7]	12	FR1	0	R1401J
784.131	0.0	813301	DISTRACT_END	n/a	n/a	n/a	-999	4	[0, 0, 0]	n/a	FR1	0	R1401J
784.131	2.367	813304	STOP	n/a	n/a	n/a	-999	4	[-999, -999, -999]	n/a	FR1	0	R1401J
786.498	0.995	815675	REC_START	n/a	n/a	n/a	-999	4	[0, 0, 0]	n/a	FR1	0	R1401J
787.493	1.05	816666	REC_WORD_VV	1.05	n/a	<>	-999	4	[0, 0, 0]	n/a	FR1	0	R1401J
788.543	1.476	817716	REC_WORD	1.476	n/a	DITCH	1	4	[0, 0, 0]	n/a	FR1	0	R1401J
790.019	2.351	819192	REC_WORD	2.351	n/a	SKI	-999	4	[0, 0, 0]	n/a	FR1	0	R1401J
792.37	0.294	821543	REC_WORD	0.294	n/a	DITCH	1	4	[0, 0, 0]	n/a	FR1	0	R1401J
792.664	3.526	821837	REC_WORD	3.526	n/a	SKI	-999	4	[0, 0, 0]	n/a	FR1	0	R1401J
796.19	20.548	825363	REC_WORD	20.548	n/a	RAT	5	4	[0, 0, 0]	n/a	FR1	0	R1401J
816.738	2.91	845915	REC_END	n/a	n/a	n/a	-999	4	[0, 0, 0]	n/a	FR1	0	R1401J
819.648	10.362	848815	COUNTDOWN_START	n/a	n/a	n/a	-999	5	[0, 0, 0]	n/a	FR1	0	R1401J
830.01	0.001	859177	COUNTDOWN_END	n/a	n/a	n/a	-999	5	[0, 0, 0]	n/a	FR1	0	R1401J
830.011	1.854	859177	ENCODING_START	n/a	n/a	n/a	-999	5	[0, 0, 0]	n/a	FR1	0	R1401J
831.865	1.616	861039	WORD	n/a	wordpools/wordpool_long_EN.txt	PET	1	5	[0, 0, 0]	n/a	FR1	0	R1401J
833.481	0.767	862657	WORD_OFF	n/a	n/a	PET	1	5	[0, 0, 0]	n/a	FR1	0	R1401J
834.248	1.617	863420	WORD	n/a	wordpools/wordpool_long_EN.txt	YACHT	2	5	[0, 0, 0]	n/a	FR1	0	R1401J
835.865	0.9	865038	WORD_OFF	n/a	n/a	YACHT	2	5	[0, 0, 0]	n/a	FR1	0	R1401J
836.765	1.6	865938	WORD	n/a	wordpools/wordpool_long_EN.txt	PURSE	3	5	[0, 0, 0]	n/a	FR1	0	R1401J
838.365	0.999	867541	WORD_OFF	n/a	n/a	PURSE	3	5	[0, 0, 0]	n/a	FR1	0	R1401J
839.364	1.617	868533	WORD	n/a	wordpools/wordpool_long_EN.txt	STORM	4	5	[0, 0, 0]	n/a	FR1	0	R1401J
840.981	0.867	870151	WORD_OFF	n/a	n/a	STORM	4	5	[0, 0, 0]	n/a	FR1	0	R1401J
841.848	1.6	871020	WORD	n/a	wordpools/wordpool_long_EN.txt	SOUP	5	5	[0, 0, 0]	n/a	FR1	0	R1401J
843.448	1.0	872623	WORD_OFF	n/a	n/a	SOUP	5	5	[0, 0, 0]	n/a	FR1	0	R1401J
844.448	1.6	873615	WORD	n/a	wordpools/wordpool_long_EN.txt	SOAP	6	5	[0, 0, 0]	n/a	FR1	0	R1401J
846.048	0.983	875217	WORD_OFF	n/a	n/a	SOAP	6	5	[0, 0, 0]	n/a	FR1	0	R1401J
847.031	1.616	876209	WORD	n/a	wordpools/wordpool_long_EN.txt	DART	7	5	[0, 0, 0]	n/a	FR1	0	R1401J
848.647	0.934	877812	WORD_OFF	n/a	n/a	DART	7	5	[0, 0, 0]	n/a	FR1	0	R1401J
849.581	1.6	878758	WORD	n/a	wordpools/wordpool_long_EN.txt	POLE	8	5	[0, 0, 0]	n/a	FR1	0	R1401J
851.181	0.966	880345	WORD_OFF	n/a	n/a	POLE	8	5	[0, 0, 0]	n/a	FR1	0	R1401J
852.147	1.601	881322	WORD	n/a	wordpools/wordpool_long_EN.txt	SPHINX	9	5	[0, 0, 0]	n/a	FR1	0	R1401J
853.748	0.933	882924	WORD_OFF	n/a	n/a	SPHINX	9	5	[0, 0, 0]	n/a	FR1	0	R1401J
854.681	1.6	883855	WORD	n/a	wordpools/wordpool_long_EN.txt	PORK	10	5	[0, 0, 0]	n/a	FR1	0	R1401J
856.281	0.884	885458	WORD_OFF	n/a	n/a	PORK	10	5	[0, 0, 0]	n/a	FR1	0	R1401J
857.165	1.6	886328	WORD	n/a	wordpools/wordpool_long_EN.txt	SCARF	11	5	[0, 0, 0]	n/a	FR1	0	R1401J
858.765	1.0	887930	WORD_OFF	n/a	n/a	SCARF	11	5	[0, 0, 0]	n/a	FR1	0	R1401J
859.765	1.618	888937	WORD	n/a	wordpools/wordpool_long_EN.txt	TWIG	12	5	[0, 0, 0]	n/a	FR1	0	R1401J
861.383	0.0	890553	START	n/a	n/a	n/a	-999	5	[-999, -999, -999]	n/a	FR1	0	R1401J
861.383	0.0	890553	PROB	0.0	n/a	n/a	-999	5	[2, 4, 6]	12	FR1	0	R1401J
861.381	0.002	890555	WORD_OFF	n/a	n/a	TWIG	12	5	[0, 0, 0]	n/a	FR1	0	R1401J
861.383	0.0	890555	ENCODING_END	n/a	n/a	n/a	-999	5	[0, 0, 0]	n/a	FR1	0	R1401J
861.383	9.082	890555	DISTRACT_START	n/a	n/a	n/a	-999	5	[0, 0, 0]	n/a	FR1	0	R1401J
870.465	8.433	899635	PROB	8.433	n/a	n/a	-999	5	[2, 3, 6]	11	FR1	0	R1401J
878.898	12.432	908067	PROB	12.432	n/a	n/a	-999	5	[8, 2, 8]	18	FR1	0	R1401J
891.33	0.0	920498	DISTRACT_END	n/a	n/a	n/a	-999	5	[0, 0, 0]	n/a	FR1	0	R1401J
891.33	2.267	920499	STOP	n/a	n/a	n/a	-999	5	[-999, -999, -999]	n/a	FR1	0	R1401J
893.597	0.695	922765	REC_START	n/a	n/a	n/a	-999	5	[0, 0, 0]	n/a	FR1	0	R1401J
894.292	2.482	923461	REC_WORD_VV	2.482	n/a	<>	-999	5	[0, 0, 0]	n/a	FR1	0	R1401J
896.774	3.47	925942	REC_WORD	3.47	n/a	YACHT	2	5	[0, 0, 0]	n/a	FR1	0	R1401J
900.244	4.615	929412	REC_WORD	4.615	n/a	YACHT	2	5	[0, 0, 0]	n/a	FR1	0	R1401J
904.859	2.102	934027	REC_WORD	2.102	n/a	STAR	-999	5	[0, 0, 0]	n/a	FR1	0	R1401J
906.961	2.7	936129	REC_WORD	2.7	n/a	SOUP	5	5	[0, 0, 0]	n/a	FR1	0	R1401J
909.661	5.135	938829	REC_WORD	5.135	n/a	PURSE	3	5	[0, 0, 0]	n/a	FR1	0	R1401J
914.796	4.775	943964	REC_WORD_VV	4.775	n/a	<>	-999	5	[0, 0, 0]	n/a	FR1	0	R1401J
919.571	4.251	948739	REC_WORD_VV	4.251	n/a	<>	-999	5	[0, 0, 0]	n/a	FR1	0	R1401J
923.822	6.276	952990	REC_END	n/a	n/a	n/a	-999	5	[0, 0, 0]	n/a	FR1	0	R1401J
930.098	0.13	959263	COUNTDOWN_START	n/a	n/a	n/a	-999	6	[0, 0, 0]	n/a	FR1	0	R1401J
930.228	0.0	959400	COUNTDOWN_END	n/a	n/a	n/a	-999	6	[0, 0, 0]	n/a	FR1	0	R1401J
930.228	2.003	959400	ENCODING_START	n/a	n/a	n/a	-999	6	[0, 0, 0]	n/a	FR1	0	R1401J
932.231	1.6	961399	WORD	n/a	wordpools/wordpool_long_EN.txt	FENCE	1	6	[0, 0, 0]	n/a	FR1	0	R1401J
933.831	0.933	963002	WORD_OFF	n/a	n/a	FENCE	1	6	[0, 0, 0]	n/a	FR1	0	R1401J
934.764	1.601	963933	WORD	n/a	wordpools/wordpool_long_EN.txt	CHEST	2	6	[0, 0, 0]	n/a	FR1	0	R1401J
936.365	0.85	965535	WORD_OFF	n/a	n/a	CHEST	2	6	[0, 0, 0]	n/a	FR1	0	R1401J
937.215	1.6	966374	WORD	n/a	wordpools/wordpool_long_EN.txt	EGG	3	6	[0, 0, 0]	n/a	FR1	0	R1401J
938.815	1.0	967977	WORD_OFF	n/a	n/a	EGG	3	6	[0, 0, 0]	n/a	FR1	0	R1401J
939.815	1.6	968984	WORD	n/a	wordpools/wordpool_long_EN.txt	SLUSH	4	6	[0, 0, 0]	n/a	FR1	0	R1401J
941.415	1.0	970587	WORD_OFF	n/a	n/a	SLUSH	4	6	[0, 0, 0]	n/a	FR1	0	R1401J
942.415	1.615	971579	WORD	n/a	wordpools/wordpool_long_EN.txt	PLAID	5	6	[0, 0, 0]	n/a	FR1	0	R1401J
944.03	0.918	973196	WORD_OFF	n/a	n/a	PLAID	5	6	[0, 0, 0]	n/a	FR1	0	R1401J
944.948	1.6	974112	WORD	n/a	wordpools/wordpool_long_EN.txt	SHOE	6	6	[0, 0, 0]	n/a	FR1	0	R1401J
946.548	1.0	975714	WORD_OFF	n/a	n/a	SHOE	6	6	[0, 0, 0]	n/a	FR1	0	R1401J
947.548	1.617	976722	WORD	n/a	wordpools/wordpool_long_EN.txt	TENT	7	6	[0, 0, 0]	n/a	FR1	0	R1401J
949.165	0.983	978324	WORD_OFF	n/a	n/a	TENT	7	6	[0, 0, 0]	n/a	FR1	0	R1401J
950.148	1.617	979316	WORD	n/a	wordpools/wordpool_long_EN.txt	STEM	8	6	[0, 0, 0]	n/a	FR1	0	R1401J
951.765	0.933	980934	WORD_OFF	n/a	n/a	STEM	8	6	[0, 0, 0]	n/a	FR1	0	R1401J
952.698	1.6	981865	WORD	n/a	wordpools/wordpool_long_EN.txt	WAND	9	6	[0, 0, 0]	n/a	FR1	0	R1401J
954.298	0.9	983467	WORD_OFF	n/a	n/a	WAND	9	6	[0, 0, 0]	n/a	FR1	0	R1401J
955.198	1.6	984368	WORD	n/a	wordpools/wordpool_long_EN.txt	FORT	10	6	[0, 0, 0]	n/a	FR1	0	R1401J
956.798	0.783	985970	WORD_OFF	n/a	n/a	FORT	10	6	[0, 0, 0]	n/a	FR1	0	R1401J
957.581	1.616	986749	WORD	n/a	wordpools/wordpool_long_EN.txt	THRONE	11	6	[0, 0, 0]	n/a	FR1	0	R1401J
959.197	0.901	988366	WORD_OFF	n/a	n/a	THRONE	11	6	[0, 0, 0]	n/a	FR1	0	R1401J
960.098	1.6	989267	WORD	n/a	wordpools/wordpool_long_EN.txt	ROPE	12	6	[0, 0, 0]	n/a	FR1	0	R1401J
961.698	0.001	990864	PROB	0.001	n/a	n/a	-999	6	[5, 7, 7]	19	FR1	0	R1401J
961.699	0.0	990865	START	n/a	n/a	n/a	-999	6	[-999, -999, -999]	n/a	FR1	0	R1401J
961.698	0.001	990869	WORD_OFF	n/a	n/a	ROPE	12	6	[0, 0, 0]	n/a	FR1	0	R1401J
961.699	0.0	990869	ENCODING_END	n/a	n/a	n/a	-999	6	[0, 0, 0]	n/a	FR1	0	R1401J
961.699	12.048	990869	DISTRACT_START	n/a	n/a	n/a	-999	6	[0, 0, 0]	n/a	FR1	0	R1401J
973.747	14.883	1002912	PROB	14.883	n/a	n/a	-999	6	[3, 3, 5]	11	FR1	0	R1401J
988.63	0.0	1017791	DISTRACT_END	n/a	n/a	n/a	-999	6	[0, 0, 0]	n/a	FR1	0	R1401J
988.63	2.367	1017795	STOP	n/a	n/a	n/a	-999	6	[-999, -999, -999]	n/a	FR1	0	R1401J
990.997	1.9	1020164	REC_START	n/a	n/a	n/a	-999	6	[0, 0, 0]	n/a	FR1	0	R1401J
992.897	3.829	1022061	REC_WORD	3.829	n/a	FENCE	1	6	[0, 0, 0]	n/a	FR1	0	R1401J
996.726	5.448	1025890	REC_WORD	5.448	n/a	FENCE	1	6	[0, 0, 0]	n/a	FR1	0	R1401J
1002.174	6.741	1031338	REC_WORD_VV	6.741	n/a	<>	-999	6	[0, 0, 0]	n/a	FR1	0	R1401J
1008.915	5.36	1038079	REC_WORD_VV	5.36	n/a	<>	-999	6	[0, 0, 0]	n/a	FR1	0	R1401J
1014.275	1.0	1043439	REC_WORD_VV	1.0	n/a	<>	-999	6	[0, 0, 0]	n/a	FR1	0	R1401J
1015.275	1.0	1044438	REC_WORD_VV	1.0	n/a	<>	-999	6	[0, 0, 0]	n/a	FR1	0	R1401J
1016.275	4.968	1045438	REC_WORD_VV	4.968	n/a	<>	-999	6	[0, 0, 0]	n/a	FR1	0	R1401J
1021.243	15.754	1050404	REC_END	n/a	n/a	n/a	-999	6	[0, 0, 0]	n/a	FR1	0	R1401J
1036.997	10.367	1066154	COUNTDOWN_START	n/a	n/a	n/a	-999	7	[0, 0, 0]	n/a	FR1	0	R1401J
1047.364	0.0	1076532	COUNTDOWN_END	n/a	n/a	n/a	-999	7	[0, 0, 0]	n/a	FR1	0	R1401J
1047.364	2.034	1076532	ENCODING_START	n/a	n/a	n/a	-999	7	[0, 0, 0]	n/a	FR1	0	R1401J
1049.398	1.6	1078562	WORD	n/a	wordpools/wordpool_long_EN.txt	WIFE	1	7	[0, 0, 0]	n/a	FR1	0	R1401J
1050.998	0.933	1080164	WORD_OFF	n/a	n/a	WIFE	1	7	[0, 0, 0]	n/a	FR1	0	R1401J
1051.931	1.601	1081095	WORD	n/a	wordpools/wordpool_long_EN.txt	BIRD	2	7	[0, 0, 0]	n/a	FR1	0	R1401J
1053.532	0.866	1082698	WORD_OFF	n/a	n/a	BIRD	2	7	[0, 0, 0]	n/a	FR1	0	R1401J
1054.398	1.6	1083568	WORD	n/a	wordpools/wordpool_long_EN.txt	WORM	3	7	[0, 0, 0]	n/a	FR1	0	R1401J
1055.998	0.784	1085155	WORD_OFF	n/a	n/a	WORM	3	7	[0, 0, 0]	n/a	FR1	0	R1401J
1056.782	1.6	1085948	WORD	n/a	wordpools/wordpool_long_EN.txt	VASE	4	7	[0, 0, 0]	n/a	FR1	0	R1401J
1058.382	1.0	1087551	WORD_OFF	n/a	n/a	VASE	4	7	[0, 0, 0]	n/a	FR1	0	R1401J
1059.382	1.6	1088543	WORD	n/a	wordpools/wordpool_long_EN.txt	SPEAR	5	7	[0, 0, 0]	n/a	FR1	0	R1401J
1060.982	0.966	1090145	WORD_OFF	n/a	n/a	SPEAR	5	7	[0, 0, 0]	n/a	FR1	0	R1401J
1061.948	1.617	1091107	WORD	n/a	wordpools/wordpool_long_EN.txt	CHURCH	6	7	[0, 0, 0]	n/a	FR1	0	R1401J
1063.565	0.917	1092725	WORD_OFF	n/a	n/a	CHURCH	6	7	[0, 0, 0]	n/a	FR1	0	R1401J
1064.482	1.6	1093640	WORD	n/a	wordpools/wordpool_long_EN.txt	CLAM	7	7	[0, 0, 0]	n/a	FR1	0	R1401J
1066.082	0.915	1095243	WORD_OFF	n/a	n/a	CLAM	7	7	[0, 0, 0]	n/a	FR1	0	R1401J
1066.997	1.601	1096158	WORD	n/a	wordpools/wordpool_long_EN.txt	LOFT	8	7	[0, 0, 0]	n/a	FR1	0	R1401J
1068.598	0.816	1097761	WORD_OFF	n/a	n/a	LOFT	8	7	[0, 0, 0]	n/a	FR1	0	R1401J
1069.414	1.601	1098570	WORD	n/a	wordpools/wordpool_long_EN.txt	FLEET	9	7	[0, 0, 0]	n/a	FR1	0	R1401J
1071.015	0.799	1100172	WORD_OFF	n/a	n/a	FLEET	9	7	[0, 0, 0]	n/a	FR1	0	R1401J
1071.814	1.601	1100981	WORD	n/a	wordpools/wordpool_long_EN.txt	POND	10	7	[0, 0, 0]	n/a	FR1	0	R1401J
1073.415	0.983	1102584	WORD_OFF	n/a	n/a	POND	10	7	[0, 0, 0]	n/a	FR1	0	R1401J
1074.398	1.617	1103560	WORD	n/a	wordpools/wordpool_long_EN.txt	CHIN	11	7	[0, 0, 0]	n/a	FR1	0	R1401J
1076.015	0.8	1105178	WORD_OFF	n/a	n/a	CHIN	11	7	[0, 0, 0]	n/a	FR1	0	R1401J
1076.815	1.6	1105972	WORD	n/a	wordpools/wordpool_long_EN.txt	OX	12	7	[0, 0, 0]	n/a	FR1	0	R1401J
1078.415	0.001	1107574	WORD_OFF	n/a	n/a	OX	12	7	[0, 0, 0]	n/a	FR1	0	R1401J
1078.416	0.001	1107574	ENCODING_END	n/a	n/a	n/a	-999	7	[0, 0, 0]	n/a	FR1	0	R1401J
1078.417	0.0	1107574	DISTRACT_START	n/a	n/a	n/a	-999	7	[0, 0, 0]	n/a	FR1	0	R1401J
1078.416	0.001	1107577	PROB	0.001	n/a	n/a	-999	7	[7, 3, 8]	18	FR1	0	R1401J
1078.417	15.782	1107578	START	n/a	n/a	n/a	-999	7	[-999, -999, -999]	n/a	FR1	0	R1401J
1094.199	14.932	1123359	PROB	14.932	n/a	n/a	-999	7	[4, 7, 3]	14	FR1	0	R1401J
1109.131	0.0	1138290	STOP	n/a	n/a	n/a	-999	7	[-999, -999, -999]	n/a	FR1	0	R1401J
1109.131	2.033	1138296	DISTRACT_END	n/a	n/a	n/a	-999	7	[0, 0, 0]	n/a	FR1	0	R1401J
1111.164	3.264	1140318	REC_START	n/a	n/a	n/a	-999	7	[0, 0, 0]	n/a	FR1	0	R1401J
1114.428	1.0	1143587	REC_WORD_VV	1.0	n/a	<>	-999	7	[0, 0, 0]	n/a	FR1	0	R1401J
1115.428	3.715	1144587	REC_WORD_VV	3.715	n/a	<>	-999	7	[0, 0, 0]	n/a	FR1	0	R1401J
1119.143	1.585	1148302	REC_WORD_VV	1.585	n/a	<>	-999	7	[0, 0, 0]	n/a	FR1	0	R1401J
1120.728	0.698	1149887	REC_WORD	0.698	n/a	FACE	-999	7	[0, 0, 0]	n/a	FR1	0	R1401J
1121.426	7.907	1150585	REC_WORD	7.907	n/a	FLEET	9	7	[0, 0, 0]	n/a	FR1	0	R1401J
1129.333	8.148	1158492	REC_WORD	8.148	n/a	SKUNK	-999	7	[0, 0, 0]	n/a	FR1	0	R1401J
1137.481	3.9	1166639	REC_WORD	3.9	n/a	WIFE	1	7	[0, 0, 0]	n/a	FR1	0	R1401J
1141.381	21.684	1170543	REC_END	n/a	n/a	n/a	-999	7	[0, 0, 0]	n/a	FR1	0	R1401J
1163.065	10.36	1192230	COUNTDOWN_START	n/a	n/a	n/a	-999	8	[0, 0, 0]	n/a	FR1	0	R1401J
1173.425	0.0	1202577	COUNTDOWN_END	n/a	n/a	n/a	-999	8	[0, 0, 0]	n/a	FR1	0	R1401J
1173.425	2.174	1202577	ENCODING_START	n/a	n/a	n/a	-999	8	[0, 0, 0]	n/a	FR1	0	R1401J
1175.599	1.599	1204759	WORD	n/a	wordpools/wordpool_long_EN.txt	LACE	1	8	[0, 0, 0]	n/a	FR1	0	R1401J
1177.198	0.934	1206362	WORD_OFF	n/a	n/a	LACE	1	8	[0, 0, 0]	n/a	FR1	0	R1401J
1178.132	1.616	1207293	WORD	n/a	wordpools/wordpool_long_EN.txt	SEAL	2	8	[0, 0, 0]	n/a	FR1	0	R1401J
1179.748	0.834	1208911	WORD_OFF	n/a	n/a	SEAL	2	8	[0, 0, 0]	n/a	FR1	0	R1401J
1180.582	1.616	1209735	WORD	n/a	wordpools/wordpool_long_EN.txt	BAT	3	8	[0, 0, 0]	n/a	FR1	0	R1401J
1182.198	0.783	1211352	WORD_OFF	n/a	n/a	BAT	3	8	[0, 0, 0]	n/a	FR1	0	R1401J
1182.981	1.601	1212131	WORD	n/a	wordpools/wordpool_long_EN.txt	SCHOOL	4	8	[0, 0, 0]	n/a	FR1	0	R1401J
1184.582	0.849	1213733	WORD_OFF	n/a	n/a	SCHOOL	4	8	[0, 0, 0]	n/a	FR1	0	R1401J
1185.431	1.6	1214588	WORD	n/a	wordpools/wordpool_long_EN.txt	QUAIL	5	8	[0, 0, 0]	n/a	FR1	0	R1401J
1187.031	0.784	1216190	WORD_OFF	n/a	n/a	QUAIL	5	8	[0, 0, 0]	n/a	FR1	0	R1401J
1187.815	1.6	1216969	WORD	n/a	wordpools/wordpool_long_EN.txt	YOLK	6	8	[0, 0, 0]	n/a	FR1	0	R1401J
1189.415	0.816	1218571	WORD_OFF	n/a	n/a	YOLK	6	8	[0, 0, 0]	n/a	FR1	0	R1401J
1190.231	1.617	1219395	WORD	n/a	wordpools/wordpool_long_EN.txt	BOY	7	8	[0, 0, 0]	n/a	FR1	0	R1401J
1191.848	0.817	1220998	WORD_OFF	n/a	n/a	BOY	7	8	[0, 0, 0]	n/a	FR1	0	R1401J
1192.665	1.616	1221822	WORD	n/a	wordpools/wordpool_long_EN.txt	WAVE	8	8	[0, 0, 0]	n/a	FR1	0	R1401J
1194.281	0.799	1223440	WORD_OFF	n/a	n/a	WAVE	8	8	[0, 0, 0]	n/a	FR1	0	R1401J
1195.08	1.601	1224233	WORD	n/a	wordpools/wordpool_long_EN.txt	OAR	9	8	[0, 0, 0]	n/a	FR1	0	R1401J
1196.681	0.95	1225836	WORD_OFF	n/a	n/a	OAR	9	8	[0, 0, 0]	n/a	FR1	0	R1401J
1197.631	1.617	1226782	WORD	n/a	wordpools/wordpool_long_EN.txt	CRANE	10	8	[0, 0, 0]	n/a	FR1	0	R1401J
1199.248	0.917	1228400	WORD_OFF	n/a	n/a	CRANE	10	8	[0, 0, 0]	n/a	FR1	0	R1401J
1200.165	1.616	1229315	WORD	n/a	wordpools/wordpool_long_EN.txt	HILL	11	8	[0, 0, 0]	n/a	FR1	0	R1401J
1201.781	0.9	1230933	WORD_OFF	n/a	n/a	HILL	11	8	[0, 0, 0]	n/a	FR1	0	R1401J
1202.681	1.6	1231833	WORD	n/a	wordpools/wordpool_long_EN.txt	FOX	12	8	[0, 0, 0]	n/a	FR1	0	R1401J
1204.281	0.001	1233436	WORD_OFF	n/a	n/a	FOX	12	8	[0, 0, 0]	n/a	FR1	0	R1401J
1204.282	0.0	1233436	ENCODING_END	n/a	n/a	n/a	-999	8	[0, 0, 0]	n/a	FR1	0	R1401J
1204.282	0.0	1233436	DISTRACT_START	n/a	n/a	n/a	-999	8	[0, 0, 0]	n/a	FR1	0	R1401J
1204.281	0.001	1233436	PROB	0.001	n/a	n/a	-999	8	[7, 5, 8]	20	FR1	0	R1401J
1204.282	31.999	1233437	START	n/a	n/a	n/a	-999	8	[-999, -999, -999]	n/a	FR1	0	R1401J
1236.281	0.0	1265435	STOP	n/a	n/a	n/a	-999	8	[-999, -999, -999]	n/a	FR1	0	R1401J
1236.281	2.299	1265439	DISTRACT_END	n/a	n/a	n/a	-999	8	[0, 0, 0]	n/a	FR1	0	R1401J
1238.58	2.664	1267736	REC_START	n/a	n/a	n/a	-999	8	[0, 0, 0]	n/a	FR1	0	R1401J
1241.244	5.565	1270398	REC_WORD_VV	5.565	n/a	<>	-999	8	[0, 0, 0]	n/a	FR1	0	R1401J
1246.809	1.135	1275963	REC_WORD	1.135	n/a	LACE	1	8	[0, 0, 0]	n/a	FR1	0	R1401J
1247.944	6.121	1277098	REC_WORD	6.121	n/a	QUAIL	5	8	[0, 0, 0]	n/a	FR1	0	R1401J
1254.065	0.547	1283218	REC_WORD	0.547	n/a	LACE	1	8	[0, 0, 0]	n/a	FR1	0	R1401J
1254.612	0.725	1283765	REC_WORD	0.725	n/a	QUAIL	5	8	[0, 0, 0]	n/a	FR1	0	R1401J
1255.337	4.65	1284490	REC_WORD_VV	4.65	n/a	<>	-999	8	[0, 0, 0]	n/a	FR1	0	R1401J
1259.987	3.05	1289140	REC_WORD_VV	3.05	n/a	<>	-999	8	[0, 0, 0]	n/a	FR1	0	R1401J
1263.037	5.78	1292190	REC_WORD	5.78	n/a	SPEAR	-999	8	[0, 0, 0]	n/a	FR1	0	R1401J
1268.817	8.365	1297977	REC_END	n/a	n/a	n/a	-999	8	[0, 0, 0]	n/a	FR1	0	R1401J
1277.182	10.36	1306340	COUNTDOWN_START	n/a	n/a	n/a	-999	9	[0, 0, 0]	n/a	FR1	0	R1401J
1287.542	0.0	1316687	COUNTDOWN_END	n/a	n/a	n/a	-999	9	[0, 0, 0]	n/a	FR1	0	R1401J
1287.542	2.323	1316703	ENCODING_START	n/a	n/a	n/a	-999	9	[0, 0, 0]	n/a	FR1	0	R1401J
1289.865	1.6	1319022	WORD	n/a	wordpools/wordpool_long_EN.txt	STRAW	1	9	[0, 0, 0]	n/a	FR1	0	R1401J
1291.465	0.933	1320610	WORD_OFF	n/a	n/a	STRAW	1	9	[0, 0, 0]	n/a	FR1	0	R1401J
1292.398	1.6	1321556	WORD	n/a	wordpools/wordpool_long_EN.txt	RAIL	2	9	[0, 0, 0]	n/a	FR1	0	R1401J
1293.998	0.833	1323143	WORD_OFF	n/a	n/a	RAIL	2	9	[0, 0, 0]	n/a	FR1	0	R1401J
1294.831	1.6	1323982	WORD	n/a	wordpools/wordpool_long_EN.txt	SPOUSE	3	9	[0, 0, 0]	n/a	FR1	0	R1401J
1296.431	0.867	1325585	WORD_OFF	n/a	n/a	SPOUSE	3	9	[0, 0, 0]	n/a	FR1	0	R1401J
1297.298	1.616	1326455	WORD	n/a	wordpools/wordpool_long_EN.txt	PRINCE	4	9	[0, 0, 0]	n/a	FR1	0	R1401J
1298.914	0.833	1328072	WORD_OFF	n/a	n/a	PRINCE	4	9	[0, 0, 0]	n/a	FR1	0	R1401J
1299.747	1.601	1328897	WORD	n/a	wordpools/wordpool_long_EN.txt	MEAT	5	9	[0, 0, 0]	n/a	FR1	0	R1401J
1301.348	0.949	1330499	WORD_OFF	n/a	n/a	MEAT	5	9	[0, 0, 0]	n/a	FR1	0	R1401J
1302.297	1.6	1331445	WORD	n/a	wordpools/wordpool_long_EN.txt	RUG	6	9	[0, 0, 0]	n/a	FR1	0	R1401J
1303.897	0.95	1333048	WORD_OFF	n/a	n/a	RUG	6	9	[0, 0, 0]	n/a	FR1	0	R1401J
1304.847	1.6	1333994	WORD	n/a	wordpools/wordpool_long_EN.txt	BRUSH	7	9	[0, 0, 0]	n/a	FR1	0	R1401J
1306.447	0.868	1335596	WORD_OFF	n/a	n/a	BRUSH	7	9	[0, 0, 0]	n/a	FR1	0	R1401J
1307.315	1.599	1336466	WORD	n/a	wordpools/wordpool_long_EN.txt	SEAT	8	9	[0, 0, 0]	n/a	FR1	0	R1401J
1308.914	0.9	1338069	WORD_OFF	n/a	n/a	SEAT	8	9	[0, 0, 0]	n/a	FR1	0	R1401J
1309.814	1.617	1338969	WORD	n/a	wordpools/wordpool_long_EN.txt	CORD	9	9	[0, 0, 0]	n/a	FR1	0	R1401J
1311.431	0.916	1340587	WORD_OFF	n/a	n/a	CORD	9	9	[0, 0, 0]	n/a	FR1	0	R1401J
1312.347	1.6	1341503	WORD	n/a	wordpools/wordpool_long_EN.txt	BADGE	10	9	[0, 0, 0]	n/a	FR1	0	R1401J
1313.947	0.767	1343105	WORD_OFF	n/a	n/a	BADGE	10	9	[0, 0, 0]	n/a	FR1	0	R1401J
1314.714	1.6	1343868	WORD	n/a	wordpools/wordpool_long_EN.txt	SPONGE	11	9	[0, 0, 0]	n/a	FR1	0	R1401J
1316.314	0.816	1345471	WORD_OFF	n/a	n/a	SPONGE	11	9	[0, 0, 0]	n/a	FR1	0	R1401J
1317.13	1.601	1346280	WORD	n/a	wordpools/wordpool_long_EN.txt	TREE	12	9	[0, 0, 0]	n/a	FR1	0	R1401J
1318.731	0.001	1347882	WORD_OFF	n/a	n/a	TREE	12	9	[0, 0, 0]	n/a	FR1	0	R1401J
1318.732	0.0	1347882	ENCODING_END	n/a	n/a	n/a	-999	9	[0, 0, 0]	n/a	FR1	0	R1401J
1318.732	0.0	1347882	DISTRACT_START	n/a	n/a	n/a	-999	9	[0, 0, 0]	n/a	FR1	0	R1401J
1318.731	0.001	1347882	PROB	0.001	n/a	n/a	-999	9	[6, 2, 1]	9	FR1	0	R1401J
1318.732	8.385	1347883	START	n/a	n/a	n/a	-999	9	[-999, -999, -999]	n/a	FR1	0	R1401J
1327.117	20.214	1356267	PROB	20.214	n/a	n/a	-999	9	[3, 6, 8]	17	FR1	0	R1401J
1347.331	0.0	1376480	STOP	n/a	n/a	n/a	-999	9	[-999, -999, -999]	n/a	FR1	0	R1401J
1347.331	2.384	1376482	DISTRACT_END	n/a	n/a	n/a	-999	9	[0, 0, 0]	n/a	FR1	0	R1401J
1349.715	2.065	1378871	REC_START	n/a	n/a	n/a	-999	9	[0, 0, 0]	n/a	FR1	0	R1401J
1351.78	6.727	1380929	REC_WORD	6.727	n/a	SPOUSE	3	9	[0, 0, 0]	n/a	FR1	0	R1401J
1358.507	14.317	1387656	REC_WORD	14.317	n/a	SPOUSE	3	9	[0, 0, 0]	n/a	FR1	0	R1401J
1372.824	1.529	1401972	REC_WORD	1.529	n/a	OAR	-999	9	[0, 0, 0]	n/a	FR1	0	R1401J
1374.353	2.42	1403501	REC_WORD_VV	2.42	n/a	<>	-999	9	[0, 0, 0]	n/a	FR1	0	R1401J
1376.773	1.121	1405921	REC_WORD	1.121	n/a	VASE	-999	9	[0, 0, 0]	n/a	FR1	0	R1401J
1377.894	1.0	1407042	REC_WORD_VV	1.0	n/a	<>	-999	9	[0, 0, 0]	n/a	FR1	0	R1401J
1378.894	1.071	1408042	REC_WORD_VV	1.071	n/a	<>	-999	9	[0, 0, 0]	n/a	FR1	0	R1401J
1379.965	6.733	1409111	REC_END	n/a	n/a	n/a	-999	9	[0, 0, 0]	n/a	FR1	0	R1401J
1386.698	10.362	1415842	COUNTDOWN_START	n/a	n/a	n/a	-999	10	[0, 0, 0]	n/a	FR1	0	R1401J
1397.06	0.0	1426204	COUNTDOWN_END	n/a	n/a	n/a	-999	10	[0, 0, 0]	n/a	FR1	0	R1401J
1397.06	2.371	1426204	ENCODING_START	n/a	n/a	n/a	-999	10	[0, 0, 0]	n/a	FR1	0	R1401J
1399.431	1.617	1428585	WORD	n/a	wordpools/wordpool_long_EN.txt	LIP	1	10	[0, 0, 0]	n/a	FR1	0	R1401J
1401.048	0.833	1430203	WORD_OFF	n/a	n/a	LIP	1	10	[0, 0, 0]	n/a	FR1	0	R1401J
1401.881	1.617	1431027	WORD	n/a	wordpools/wordpool_long_EN.txt	SHELL	2	10	[0, 0, 0]	n/a	FR1	0	R1401J
1403.498	0.783	1432644	WORD_OFF	n/a	n/a	SHELL	2	10	[0, 0, 0]	n/a	FR1	0	R1401J
1404.281	1.616	1433423	WORD	n/a	wordpools/wordpool_long_EN.txt	BARN	3	10	[0, 0, 0]	n/a	FR1	0	R1401J
1405.897	0.767	1435041	WORD_OFF	n/a	n/a	BARN	3	10	[0, 0, 0]	n/a	FR1	0	R1401J
1406.664	1.6	1435804	WORD	n/a	wordpools/wordpool_long_EN.txt	ZOO	4	10	[0, 0, 0]	n/a	FR1	0	R1401J
1408.264	0.817	1437406	WORD_OFF	n/a	n/a	ZOO	4	10	[0, 0, 0]	n/a	FR1	0	R1401J
1409.081	1.616	1438230	WORD	n/a	wordpools/wordpool_long_EN.txt	NAIL	5	10	[0, 0, 0]	n/a	FR1	0	R1401J
1410.697	0.767	1439848	WORD_OFF	n/a	n/a	NAIL	5	10	[0, 0, 0]	n/a	FR1	0	R1401J
1411.464	1.6	1440611	WORD	n/a	wordpools/wordpool_long_EN.txt	BANK	6	10	[0, 0, 0]	n/a	FR1	0	R1401J
1413.064	0.85	1442213	WORD_OFF	n/a	n/a	BANK	6	10	[0, 0, 0]	n/a	FR1	0	R1401J
1413.914	1.617	1443068	WORD	n/a	wordpools/wordpool_long_EN.txt	CAVE	7	10	[0, 0, 0]	n/a	FR1	0	R1401J
1415.531	0.966	1444671	WORD_OFF	n/a	n/a	CAVE	7	10	[0, 0, 0]	n/a	FR1	0	R1401J
1416.497	1.6	1445647	WORD	n/a	wordpools/wordpool_long_EN.txt	SLIME	8	10	[0, 0, 0]	n/a	FR1	0	R1401J
1418.097	0.767	1447250	WORD_OFF	n/a	n/a	SLIME	8	10	[0, 0, 0]	n/a	FR1	0	R1401J
1418.864	1.601	1448013	WORD	n/a	wordpools/wordpool_long_EN.txt	MOLE	9	10	[0, 0, 0]	n/a	FR1	0	R1401J
1420.465	0.782	1449615	WORD_OFF	n/a	n/a	MOLE	9	10	[0, 0, 0]	n/a	FR1	0	R1401J
1421.247	1.601	1450394	WORD	n/a	wordpools/wordpool_long_EN.txt	THIEF	10	10	[0, 0, 0]	n/a	FR1	0	R1401J
1422.848	0.766	1451996	WORD_OFF	n/a	n/a	THIEF	10	10	[0, 0, 0]	n/a	FR1	0	R1401J
1423.614	1.6	1452759	WORD	n/a	wordpools/wordpool_long_EN.txt	BAND	11	10	[0, 0, 0]	n/a	FR1	0	R1401J
1425.214	0.801	1454362	WORD_OFF	n/a	n/a	BAND	11	10	[0, 0, 0]	n/a	FR1	0	R1401J
1426.015	1.616	1455155	WORD	n/a	wordpools/wordpool_long_EN.txt	TAIL	12	10	[0, 0, 0]	n/a	FR1	0	R1401J
1427.631	0.002	1456773	WORD_OFF	n/a	n/a	TAIL	12	10	[0, 0, 0]	n/a	FR1	0	R1401J
1427.633	0.0	1456773	ENCODING_END	n/a	n/a	n/a	-999	10	[0, 0, 0]	n/a	FR1	0	R1401J
1427.632	0.001	1456778	PROB	0.001	n/a	n/a	-999	10	[3, 2, 5]	10	FR1	0	R1401J
1427.633	0.0	1456779	START	n/a	n/a	n/a	-999	10	[-999, -999, -999]	n/a	FR1	0	R1401J
1427.633	8.466	1456788	DISTRACT_START	n/a	n/a	n/a	-999	10	[0, 0, 0]	n/a	FR1	0	R1401J
1436.099	16.932	1465245	PROB	16.932	n/a	n/a	-999	10	[8, 1, 6]	15	FR1	0	R1401J
1453.031	0.0	1482176	STOP	n/a	n/a	n/a	-999	10	[-999, -999, -999]	n/a	FR1	0	R1401J
1453.031	2.184	1482183	DISTRACT_END	n/a	n/a	n/a	-999	10	[0, 0, 0]	n/a	FR1	0	R1401J
1455.215	0.745	1484359	REC_START	n/a	n/a	n/a	-999	10	[0, 0, 0]	n/a	FR1	0	R1401J
1455.96	0.425	1485105	REC_WORD	0.425	n/a	LIP	1	10	[0, 0, 0]	n/a	FR1	0	R1401J
1456.385	0.86	1485530	REC_WORD	0.86	n/a	SHELL	2	10	[0, 0, 0]	n/a	FR1	0	R1401J
1457.245	18.865	1486390	REC_WORD	18.865	n/a	BARN	3	10	[0, 0, 0]	n/a	FR1	0	R1401J
1476.11	0.26	1505254	REC_WORD	0.26	n/a	LIP	1	10	[0, 0, 0]	n/a	FR1	0	R1401J
1476.37	0.47	1505514	REC_WORD	0.47	n/a	SHELL	2	10	[0, 0, 0]	n/a	FR1	0	R1401J
1476.84	4.947	1505984	REC_WORD	4.947	n/a	HORN	-999	10	[0, 0, 0]	n/a	FR1	0	R1401J
1481.787	0.555	1510931	REC_WORD_VV	0.555	n/a	<>	-999	10	[0, 0, 0]	n/a	FR1	0	R1401J
1482.342	1.58	1511486	REC_WORD	1.58	n/a	BRUSH	-999	10	[0, 0, 0]	n/a	FR1	0	R1401J
1483.922	1.0	1513066	REC_WORD_VV	1.0	n/a	<>	-999	10	[0, 0, 0]	n/a	FR1	0	R1401J
1484.922	0.544	1514066	REC_WORD_VV	0.544	n/a	<>	-999	10	[0, 0, 0]	n/a	FR1	0	R1401J
1485.466	5.366	1514614	REC_END	n/a	n/a	n/a	-999	10	[0, 0, 0]	n/a	FR1	0	R1401J
1490.832	10.362	1519971	COUNTDOWN_START	n/a	n/a	n/a	-999	11	[0, 0, 0]	n/a	FR1	0	R1401J
1501.194	0.001	1530333	COUNTDOWN_END	n/a	n/a	n/a	-999	11	[0, 0, 0]	n/a	FR1	0	R1401J
1501.195	2.019	1530333	ENCODING_START	n/a	n/a	n/a	-999	11	[0, 0, 0]	n/a	FR1	0	R1401J
1503.214	1.6	1532363	WORD	n/a	wordpools/wordpool_long_EN.txt	BOMB	1	11	[0, 0, 0]	n/a	FR1	0	R1401J
1504.814	0.867	1533950	WORD_OFF	n/a	n/a	BOMB	1	11	[0, 0, 0]	n/a	FR1	0	R1401J
1505.681	1.6	1534820	WORD	n/a	wordpools/wordpool_long_EN.txt	LINT	2	11	[0, 0, 0]	n/a	FR1	0	R1401J
1507.281	0.999	1536423	WORD_OFF	n/a	n/a	LINT	2	11	[0, 0, 0]	n/a	FR1	0	R1401J
1508.28	1.6	1537430	WORD	n/a	wordpools/wordpool_long_EN.txt	PLANT	3	11	[0, 0, 0]	n/a	FR1	0	R1401J
1509.88	0.934	1539017	WORD_OFF	n/a	n/a	PLANT	3	11	[0, 0, 0]	n/a	FR1	0	R1401J
1510.814	1.6	1539964	WORD	n/a	wordpools/wordpool_long_EN.txt	SLIDE	4	11	[0, 0, 0]	n/a	FR1	0	R1401J
1512.414	0.883	1541551	WORD_OFF	n/a	n/a	SLIDE	4	11	[0, 0, 0]	n/a	FR1	0	R1401J
1513.297	1.601	1542436	WORD	n/a	wordpools/wordpool_long_EN.txt	STICK	5	11	[0, 0, 0]	n/a	FR1	0	R1401J
1514.898	0.95	1544038	WORD_OFF	n/a	n/a	STICK	5	11	[0, 0, 0]	n/a	FR1	0	R1401J
1515.848	1.617	1544985	WORD	n/a	wordpools/wordpool_long_EN.txt	CHIEF	6	11	[0, 0, 0]	n/a	FR1	0	R1401J
1517.465	0.915	1546602	WORD_OFF	n/a	n/a	CHIEF	6	11	[0, 0, 0]	n/a	FR1	0	R1401J
1518.38	1.601	1547518	WORD	n/a	wordpools/wordpool_long_EN.txt	JET	7	11	[0, 0, 0]	n/a	FR1	0	R1401J
1519.981	0.884	1549120	WORD_OFF	n/a	n/a	JET	7	11	[0, 0, 0]	n/a	FR1	0	R1401J
1520.865	1.6	1550006	WORD	n/a	wordpools/wordpool_long_EN.txt	FLAME	8	11	[0, 0, 0]	n/a	FR1	0	R1401J
1522.465	0.932	1551608	WORD_OFF	n/a	n/a	FLAME	8	11	[0, 0, 0]	n/a	FR1	0	R1401J
1523.397	1.601	1552539	WORD	n/a	wordpools/wordpool_long_EN.txt	HAZE	9	11	[0, 0, 0]	n/a	FR1	0	R1401J
1524.998	0.9	1554141	WORD_OFF	n/a	n/a	HAZE	9	11	[0, 0, 0]	n/a	FR1	0	R1401J
1525.898	1.6	1555042	WORD	n/a	wordpools/wordpool_long_EN.txt	FARM	10	11	[0, 0, 0]	n/a	FR1	0	R1401J
1527.498	0.967	1556644	WORD_OFF	n/a	n/a	FARM	10	11	[0, 0, 0]	n/a	FR1	0	R1401J
1528.465	1.615	1557606	WORD	n/a	wordpools/wordpool_long_EN.txt	DUST	11	11	[0, 0, 0]	n/a	FR1	0	R1401J
1530.08	0.85	1559224	WORD_OFF	n/a	n/a	DUST	11	11	[0, 0, 0]	n/a	FR1	0	R1401J
1530.93	1.601	1560078	WORD	n/a	wordpools/wordpool_long_EN.txt	BOOK	12	11	[0, 0, 0]	n/a	FR1	0	R1401J
1532.531	0.001	1561665	WORD_OFF	n/a	n/a	BOOK	12	11	[0, 0, 0]	n/a	FR1	0	R1401J
1532.532	0.001	1561674	PROB	0.001	n/a	n/a	-999	11	[1, 5, 6]	12	FR1	0	R1401J
1532.533	0.0	1561675	START	n/a	n/a	n/a	-999	11	[-999, -999, -999]	n/a	FR1	0	R1401J
1532.533	0.0	1561681	ENCODING_END	n/a	n/a	n/a	-999	11	[0, 0, 0]	n/a	FR1	0	R1401J
1532.533	8.982	1561681	DISTRACT_START	n/a	n/a	n/a	-999	11	[0, 0, 0]	n/a	FR1	0	R1401J
1541.515	7.649	1570656	PROB	7.649	n/a	n/a	-999	11	[2, 8, 2]	12	FR1	0	R1401J
1549.164	14.667	1578305	PROB	14.667	n/a	n/a	-999	11	[4, 5, 7]	16	FR1	0	R1401J
1563.831	0.0	1592967	DISTRACT_END	n/a	n/a	n/a	-999	11	[0, 0, 0]	n/a	FR1	0	R1401J
1563.831	2.334	1592971	STOP	n/a	n/a	n/a	-999	11	[-999, -999, -999]	n/a	FR1	0	R1401J
1566.165	1.654	1595310	REC_START	n/a	n/a	n/a	-999	11	[0, 0, 0]	n/a	FR1	0	R1401J
1567.819	1.48	1596959	REC_WORD_VV	1.48	n/a	<>	-999	11	[0, 0, 0]	n/a	FR1	0	R1401J
1569.299	7.295	1598439	REC_WORD_VV	7.295	n/a	<>	-999	11	[0, 0, 0]	n/a	FR1	0	R1401J
1576.594	1.25	1605734	REC_WORD_VV	1.25	n/a	<>	-999	11	[0, 0, 0]	n/a	FR1	0	R1401J
1577.844	0.736	1606984	REC_WORD	0.736	n/a	BAT	-999	11	[0, 0, 0]	n/a	FR1	0	R1401J
1578.58	0.525	1607720	REC_WORD	0.525	n/a	BANK	-999	11	[0, 0, 0]	n/a	FR1	0	R1401J
1579.105	2.585	1608245	REC_WORD	2.585	n/a	CLAM	-999	11	[0, 0, 0]	n/a	FR1	0	R1401J
1581.69	1.0	1610830	REC_WORD_VV	1.0	n/a	<>	-999	11	[0, 0, 0]	n/a	FR1	0	R1401J
1582.69	13.705	1611829	REC_WORD_VV	13.705	n/a	<>	-999	11	[0, 0, 0]	n/a	FR1	0	R1401J
1596.395	16.736	1625535	REC_END	n/a	n/a	n/a	-999	11	[0, 0, 0]	n/a	FR1	0	R1401J
1613.131	0.164	1642277	COUNTDOWN_START	n/a	n/a	n/a	-999	12	[0, 0, 0]	n/a	FR1	0	R1401J
1613.295	0.001	1642429	COUNTDOWN_END	n/a	n/a	n/a	-999	12	[0, 0, 0]	n/a	FR1	0	R1401J
1613.296	1.984	1642429	ENCODING_START	n/a	n/a	n/a	-999	12	[0, 0, 0]	n/a	FR1	0	R1401J
1615.28	1.601	1644413	WORD	n/a	wordpools/wordpool_long_EN.txt	NET	1	12	[0, 0, 0]	n/a	FR1	0	R1401J
1616.881	0.767	1646016	WORD_OFF	n/a	n/a	NET	1	12	[0, 0, 0]	n/a	FR1	0	R1401J
1617.648	1.616	1646794	WORD	n/a	wordpools/wordpool_long_EN.txt	MOOSE	2	12	[0, 0, 0]	n/a	FR1	0	R1401J
1619.264	0.9	1648397	WORD_OFF	n/a	n/a	MOOSE	2	12	[0, 0, 0]	n/a	FR1	0	R1401J
1620.164	1.601	1649297	WORD	n/a	wordpools/wordpool_long_EN.txt	ARK	3	12	[0, 0, 0]	n/a	FR1	0	R1401J
1621.765	0.816	1650900	WORD_OFF	n/a	n/a	ARK	3	12	[0, 0, 0]	n/a	FR1	0	R1401J
1622.581	1.6	1651724	WORD	n/a	wordpools/wordpool_long_EN.txt	PASTE	4	12	[0, 0, 0]	n/a	FR1	0	R1401J
1624.181	0.849	1653326	WORD_OFF	n/a	n/a	PASTE	4	12	[0, 0, 0]	n/a	FR1	0	R1401J
1625.03	1.6	1654165	WORD	n/a	wordpools/wordpool_long_EN.txt	MAP	5	12	[0, 0, 0]	n/a	FR1	0	R1401J
1626.63	0.901	1655768	WORD_OFF	n/a	n/a	MAP	5	12	[0, 0, 0]	n/a	FR1	0	R1401J
1627.531	1.6	1656668	WORD	n/a	wordpools/wordpool_long_EN.txt	SLEEVE	6	12	[0, 0, 0]	n/a	FR1	0	R1401J
1629.131	0.767	1658271	WORD_OFF	n/a	n/a	SLEEVE	6	12	[0, 0, 0]	n/a	FR1	0	R1401J
1629.898	1.617	1659034	WORD	n/a	wordpools/wordpool_long_EN.txt	LUNCH	7	12	[0, 0, 0]	n/a	FR1	0	R1401J
1631.515	0.966	1660652	WORD_OFF	n/a	n/a	LUNCH	7	12	[0, 0, 0]	n/a	FR1	0	R1401J
1632.481	1.6	1661613	WORD	n/a	wordpools/wordpool_long_EN.txt	HOOF	8	12	[0, 0, 0]	n/a	FR1	0	R1401J
1634.081	0.933	1663216	WORD_OFF	n/a	n/a	HOOF	8	12	[0, 0, 0]	n/a	FR1	0	R1401J
1635.014	1.601	1664147	WORD	n/a	wordpools/wordpool_long_EN.txt	TRAY	9	12	[0, 0, 0]	n/a	FR1	0	R1401J
1636.615	0.816	1665749	WORD_OFF	n/a	n/a	TRAY	9	12	[0, 0, 0]	n/a	FR1	0	R1401J
1637.431	1.616	1666573	WORD	n/a	wordpools/wordpool_long_EN.txt	SOCK	10	12	[0, 0, 0]	n/a	FR1	0	R1401J
1639.047	1.001	1668191	WORD_OFF	n/a	n/a	SOCK	10	12	[0, 0, 0]	n/a	FR1	0	R1401J
1640.048	1.6	1669183	WORD	n/a	wordpools/wordpool_long_EN.txt	HUT	11	12	[0, 0, 0]	n/a	FR1	0	R1401J
1641.648	0.833	1670785	WORD_OFF	n/a	n/a	HUT	11	12	[0, 0, 0]	n/a	FR1	0	R1401J
1642.481	1.618	1671625	WORD	n/a	wordpools/wordpool_long_EN.txt	STORE	12	12	[0, 0, 0]	n/a	FR1	0	R1401J
1644.099	0.001	1673236	PROB	0.001	n/a	n/a	-999	12	[4, 4, 3]	11	FR1	0	R1401J
1644.1	0.0	1673237	START	n/a	n/a	n/a	-999	12	[-999, -999, -999]	n/a	FR1	0	R1401J
1644.098	0.002	1673242	WORD_OFF	n/a	n/a	STORE	12	12	[0, 0, 0]	n/a	FR1	0	R1401J
1644.1	0.0	1673242	ENCODING_END	n/a	n/a	n/a	-999	12	[0, 0, 0]	n/a	FR1	0	R1401J
1644.1	7.582	1673242	DISTRACT_START	n/a	n/a	n/a	-999	12	[0, 0, 0]	n/a	FR1	0	R1401J
1651.682	14.999	1680819	PROB	14.999	n/a	n/a	-999	12	[5, 6, 2]	13	FR1	0	R1401J
1666.681	0.0	1695814	DISTRACT_END	n/a	n/a	n/a	-999	12	[0, 0, 0]	n/a	FR1	0	R1401J
1666.681	2.4	1695817	STOP	n/a	n/a	n/a	-999	12	[-999, -999, -999]	n/a	FR1	0	R1401J
1669.081	1.27	1698218	REC_START	n/a	n/a	n/a	-999	12	[0, 0, 0]	n/a	FR1	0	R1401J
1670.351	1.945	1699487	REC_WORD_VV	1.945	n/a	<>	-999	12	[0, 0, 0]	n/a	FR1	0	R1401J
1672.296	0.775	1701432	REC_WORD	0.775	n/a	MOOSE	2	12	[0, 0, 0]	n/a	FR1	0	R1401J
1673.071	8.905	1702207	REC_WORD	8.905	n/a	HUT	11	12	[0, 0, 0]	n/a	FR1	0	R1401J
1681.976	0.5	1711111	REC_WORD	0.5	n/a	MOOSE	2	12	[0, 0, 0]	n/a	FR1	0	R1401J
1682.476	16.846	1711611	REC_WORD	16.846	n/a	HUT	11	12	[0, 0, 0]	n/a	FR1	0	R1401J
1699.322	0.0	1728459	REC_END	n/a	n/a	n/a	-999	12	[0, 0, 0]	n/a	FR1	0	R1401J
