onset	duration	sample	trial_type	response_time	stim_file	item_name	serialpos	list	test	answer	experiment	session	subject
0.0	153.624	2094	INSTRUCT_START	n/a	n/a	n/a	-999	-999	[0, 0, 0]	n/a	FR1	1	R1313J
153.624	4.801	155712	INSTRUCT_END	n/a	n/a	n/a	-999	-999	[0, 0, 0]	n/a	FR1	1	R1313J
158.425	7.888	160513	MIC TEST_START	n/a	n/a	n/a	-999	-999	[0, 0, 0]	n/a	FR1	1	R1313J
166.313	0.009	168401	MIC TEST_END	n/a	n/a	n/a	-999	-999	[0, 0, 0]	n/a	FR1	1	R1313J
166.322	0.001	168410	TRIAL_START	n/a	n/a	n/a	-999	-1	[0, 0, 0]	n/a	FR1	1	R1313J
166.323	0.0	168411	TRIAL	n/a	n/a	n/a	-999	-1	[0, 0, 0]	n/a	FR1	1	R1313J
166.323	4.053	168411	WAITING_START	n/a	n/a	n/a	-999	-1	[0, 0, 0]	n/a	FR1	1	R1313J
170.376	0.0	172463	WAITING_END	n/a	n/a	n/a	-999	-1	[0, 0, 0]	n/a	FR1	1	R1313J
170.376	10.429	172463	COUNTDOWN_START	n/a	n/a	n/a	-999	-1	[0, 0, 0]	n/a	FR1	1	R1313J
180.805	0.0	182892	ORIENT_START	n/a	n/a	n/a	-999	-1	[0, 0, 0]	n/a	FR1	1	R1313J
180.805	1.04	182892	COUNTDOWN_END	n/a	n/a	n/a	-999	-1	[0, 0, 0]	n/a	FR1	1	R1313J
181.845	0.001	183932	ORIENT_END	n/a	n/a	n/a	-999	-1	[0, 0, 0]	n/a	FR1	1	R1313J
181.846	1.113	183933	ENCODING_START	n/a	n/a	n/a	-999	-1	[0, 0, 0]	n/a	FR1	1	R1313J
182.959	1.637	185046	WORD	n/a	n/a	RHINO	1	-1	[0, 0, 0]	n/a	FR1	1	R1313J
184.596	0.912	186683	WORD_OFF	n/a	n/a	RHINO	1	-1	[0, 0, 0]	n/a	FR1	1	R1313J
185.508	1.638	187595	WORD	n/a	n/a	IMAGE	2	-1	[0, 0, 0]	n/a	FR1	1	R1313J
187.146	1.124	189233	WORD_OFF	n/a	n/a	IMAGE	2	-1	[0, 0, 0]	n/a	FR1	1	R1313J
188.27	1.626	190357	WORD	n/a	n/a	CAMEL	3	-1	[0, 0, 0]	n/a	FR1	1	R1313J
189.896	0.811	191983	WORD_OFF	n/a	n/a	CAMEL	3	-1	[0, 0, 0]	n/a	FR1	1	R1313J
190.707	1.622	192794	WORD	n/a	n/a	BABY	4	-1	[0, 0, 0]	n/a	FR1	1	R1313J
192.329	0.787	194416	WORD_OFF	n/a	n/a	BABY	4	-1	[0, 0, 0]	n/a	FR1	1	R1313J
193.116	1.631	195203	WORD	n/a	n/a	FLOOD	5	-1	[0, 0, 0]	n/a	FR1	1	R1313J
194.747	0.847	196833	WORD_OFF	n/a	n/a	FLOOD	5	-1	[0, 0, 0]	n/a	FR1	1	R1313J
195.594	1.636	197680	WORD	n/a	n/a	TONGUE	6	-1	[0, 0, 0]	n/a	FR1	1	R1313J
197.23	1.12	199316	WORD_OFF	n/a	n/a	TONGUE	6	-1	[0, 0, 0]	n/a	FR1	1	R1313J
198.35	1.615	200436	WORD	n/a	n/a	BEAM	7	-1	[0, 0, 0]	n/a	FR1	1	R1313J
199.965	0.892	202051	WORD_OFF	n/a	n/a	BEAM	7	-1	[0, 0, 0]	n/a	FR1	1	R1313J
200.857	1.625	202943	WORD	n/a	n/a	CHEST	8	-1	[0, 0, 0]	n/a	FR1	1	R1313J
202.482	1.002	204568	WORD_OFF	n/a	n/a	CHEST	8	-1	[0, 0, 0]	n/a	FR1	1	R1313J
203.484	1.632	205570	WORD	n/a	n/a	COTTON	9	-1	[0, 0, 0]	n/a	FR1	1	R1313J
205.116	0.808	207202	WORD_OFF	n/a	n/a	COTTON	9	-1	[0, 0, 0]	n/a	FR1	1	R1313J
205.924	1.625	208010	WORD	n/a	n/a	RING	10	-1	[0, 0, 0]	n/a	FR1	1	R1313J
207.549	0.821	209635	WORD_OFF	n/a	n/a	RING	10	-1	[0, 0, 0]	n/a	FR1	1	R1313J
208.37	1.63	210456	WORD	n/a	n/a	WAGON	11	-1	[0, 0, 0]	n/a	FR1	1	R1313J
210.0	1.118	212086	WORD_OFF	n/a	n/a	WAGON	11	-1	[0, 0, 0]	n/a	FR1	1	R1313J
211.118	1.632	213204	WORD	n/a	n/a	WATCH	12	-1	[0, 0, 0]	n/a	FR1	1	R1313J
212.75	0.001	214836	WORD_OFF	n/a	n/a	WATCH	12	-1	[0, 0, 0]	n/a	FR1	1	R1313J
212.751	0.0	214837	ENCODING_END	n/a	n/a	n/a	-999	-1	[0, 0, 0]	n/a	FR1	1	R1313J
212.751	0.0	214837	DISTRACT_START	n/a	n/a	n/a	-999	-1	[0, 0, 0]	n/a	FR1	1	R1313J
212.751	0.016	214837	START	n/a	n/a	n/a	-999	-1	[-999, -999, -999]	n/a	FR1	1	R1313J
212.767	7.533	214853	PROB	7.533	n/a	n/a	-999	-1	[6, 2, 7]	15	FR1	1	R1313J
220.3	3.968	222385	PROB	3.968	n/a	n/a	-999	-1	[1, 9, 3]	13	FR1	1	R1313J
224.268	3.984	226353	PROB	3.984	n/a	n/a	-999	-1	[4, 2, 3]	9	FR1	1	R1313J
228.252	4.584	230337	PROB	4.584	n/a	n/a	-999	-1	[4, 7, 3]	14	FR1	1	R1313J
232.836	0.018	234921	STOP	n/a	n/a	n/a	-999	-1	[-999, -999, -999]	n/a	FR1	1	R1313J
232.854	0.618	234939	DISTRACT_END	n/a	n/a	n/a	-999	-1	[0, 0, 0]	n/a	FR1	1	R1313J
233.472	1.532	235557	RETRIEVAL_ORIENT_START	n/a	n/a	n/a	-999	-1	[0, 0, 0]	n/a	FR1	1	R1313J
235.004	0.0	237089	RETRIEVAL_ORIENT_END	n/a	n/a	n/a	-999	-1	[0, 0, 0]	n/a	FR1	1	R1313J
235.004	0.0	237089	REC_START	n/a	n/a	n/a	-999	-1	[0, 0, 0]	n/a	FR1	1	R1313J
235.004	30.014	237089	REC_WORD	30.014	n/a	RHINO	1	-1	[0, 0, 0]	n/a	FR1	1	R1313J
265.018	0.0	267102	REC_END	n/a	n/a	n/a	-999	-1	[0, 0, 0]	n/a	FR1	1	R1313J
265.018	2.842	267102	PRACTICE_POST_INSTRUCT_START	n/a	n/a	n/a	-999	-1	[0, 0, 0]	n/a	FR1	1	R1313J
267.86	0.0	269944	PRACTICE_POST_INSTRUCT_END	n/a	n/a	n/a	-999	-1	[0, 0, 0]	n/a	FR1	1	R1313J
267.86	0.016	269944	TRIAL_END	n/a	n/a	n/a	-999	-1	[0, 0, 0]	n/a	FR1	1	R1313J
267.876	0.0	269960	TRIAL	n/a	n/a	n/a	-999	1	[0, 0, 0]	n/a	FR1	1	R1313J
267.876	0.0	269960	WAITING_START	n/a	n/a	n/a	-999	1	[0, 0, 0]	n/a	FR1	1	R1313J
267.876	1.784	269960	TRIAL_START	n/a	n/a	n/a	-999	1	[0, 0, 0]	n/a	FR1	1	R1313J
269.66	0.0	271743	WAITING_END	n/a	n/a	n/a	-999	1	[0, 0, 0]	n/a	FR1	1	R1313J
269.66	10.43	271743	COUNTDOWN_START	n/a	n/a	n/a	-999	1	[0, 0, 0]	n/a	FR1	1	R1313J
280.09	0.0	282173	COUNTDOWN_END	n/a	n/a	n/a	-999	1	[0, 0, 0]	n/a	FR1	1	R1313J
280.09	1.071	282173	ORIENT_START	n/a	n/a	n/a	-999	1	[0, 0, 0]	n/a	FR1	1	R1313J
281.161	0.0	283244	ORIENT_END	n/a	n/a	n/a	-999	1	[0, 0, 0]	n/a	FR1	1	R1313J
281.161	0.906	283244	ENCODING_START	n/a	n/a	n/a	-999	1	[0, 0, 0]	n/a	FR1	1	R1313J
282.067	1.629	284150	WORD	n/a	wordpools/wordpool_EN.txt	MOTH	1	1	[0, 0, 0]	n/a	FR1	1	R1313J
283.696	1.076	285779	WORD_OFF	n/a	n/a	MOTH	1	1	[0, 0, 0]	n/a	FR1	1	R1313J
284.772	1.623	286855	WORD	n/a	wordpools/wordpool_EN.txt	WAND	2	1	[0, 0, 0]	n/a	FR1	1	R1313J
286.395	0.865	288478	WORD_OFF	n/a	n/a	WAND	2	1	[0, 0, 0]	n/a	FR1	1	R1313J
287.26	1.636	289343	WORD	n/a	wordpools/wordpool_EN.txt	PIG	3	1	[0, 0, 0]	n/a	FR1	1	R1313J
288.896	0.977	290979	WORD_OFF	n/a	n/a	PIG	3	1	[0, 0, 0]	n/a	FR1	1	R1313J
289.873	1.624	291956	WORD	n/a	wordpools/wordpool_EN.txt	BAG	4	1	[0, 0, 0]	n/a	FR1	1	R1313J
291.497	0.792	293580	WORD_OFF	n/a	n/a	BAG	4	1	[0, 0, 0]	n/a	FR1	1	R1313J
292.289	1.625	294372	WORD	n/a	wordpools/wordpool_EN.txt	SUN	5	1	[0, 0, 0]	n/a	FR1	1	R1313J
293.914	0.922	295996	WORD_OFF	n/a	n/a	SUN	5	1	[0, 0, 0]	n/a	FR1	1	R1313J
294.836	1.628	296918	WORD	n/a	wordpools/wordpool_EN.txt	STREET	6	1	[0, 0, 0]	n/a	FR1	1	R1313J
296.464	0.952	298546	WORD_OFF	n/a	n/a	STREET	6	1	[0, 0, 0]	n/a	FR1	1	R1313J
297.416	1.632	299498	WORD	n/a	wordpools/wordpool_EN.txt	FOOT	7	1	[0, 0, 0]	n/a	FR1	1	R1313J
299.048	1.048	301130	WORD_OFF	n/a	n/a	FOOT	7	1	[0, 0, 0]	n/a	FR1	1	R1313J
300.096	1.636	302178	WORD	n/a	wordpools/wordpool_EN.txt	TEETH	8	1	[0, 0, 0]	n/a	FR1	1	R1313J
301.732	0.814	303814	WORD_OFF	n/a	n/a	TEETH	8	1	[0, 0, 0]	n/a	FR1	1	R1313J
302.546	1.635	304628	WORD	n/a	wordpools/wordpool_EN.txt	SMILE	9	1	[0, 0, 0]	n/a	FR1	1	R1313J
304.181	0.898	306263	WORD_OFF	n/a	n/a	SMILE	9	1	[0, 0, 0]	n/a	FR1	1	R1313J
305.079	1.637	307161	WORD	n/a	wordpools/wordpool_EN.txt	FLAME	10	1	[0, 0, 0]	n/a	FR1	1	R1313J
306.716	0.871	308798	WORD_OFF	n/a	n/a	FLAME	10	1	[0, 0, 0]	n/a	FR1	1	R1313J
307.587	1.629	309669	WORD	n/a	wordpools/wordpool_EN.txt	BRUSH	11	1	[0, 0, 0]	n/a	FR1	1	R1313J
309.216	1.085	311298	WORD_OFF	n/a	n/a	BRUSH	11	1	[0, 0, 0]	n/a	FR1	1	R1313J
310.301	1.616	312383	WORD	n/a	wordpools/wordpool_EN.txt	BRANCH	12	1	[0, 0, 0]	n/a	FR1	1	R1313J
311.917	0.0	313999	WORD_OFF	n/a	n/a	BRANCH	12	1	[0, 0, 0]	n/a	FR1	1	R1313J
311.917	0.001	313999	ENCODING_END	n/a	n/a	n/a	-999	1	[0, 0, 0]	n/a	FR1	1	R1313J
311.918	0.0	314000	DISTRACT_START	n/a	n/a	n/a	-999	1	[0, 0, 0]	n/a	FR1	1	R1313J
311.918	0.015	314000	START	n/a	n/a	n/a	-999	1	[-999, -999, -999]	n/a	FR1	1	R1313J
311.933	4.901	314015	PROB	4.901	n/a	n/a	-999	1	[5, 9, 6]	20	FR1	1	R1313J
316.834	4.118	318916	PROB	4.118	n/a	n/a	-999	1	[3, 7, 4]	14	FR1	1	R1313J
320.952	3.283	323033	PROB	3.283	n/a	n/a	-999	1	[1, 3, 3]	7	FR1	1	R1313J
324.235	7.017	326316	PROB	7.017	n/a	n/a	-999	1	[9, 5, 5]	19	FR1	1	R1313J
331.252	9.776	333333	PROB	9.776	n/a	n/a	-999	1	[5, 7, 8]	20	FR1	1	R1313J
341.028	0.011	343109	STOP	n/a	n/a	n/a	-999	1	[-999, -999, -999]	n/a	FR1	1	R1313J
341.039	0.693	343120	DISTRACT_END	n/a	n/a	n/a	-999	1	[0, 0, 0]	n/a	FR1	1	R1313J
341.732	1.556	343813	RETRIEVAL_ORIENT_START	n/a	n/a	n/a	-999	1	[0, 0, 0]	n/a	FR1	1	R1313J
343.288	0.0	345368	RETRIEVAL_ORIENT_END	n/a	n/a	n/a	-999	1	[0, 0, 0]	n/a	FR1	1	R1313J
343.288	0.0	345368	REC_START	n/a	n/a	n/a	-999	1	[0, 0, 0]	n/a	FR1	1	R1313J
343.288	1.574	345368	REC_WORD	1.574	n/a	FLAME	10	1	[0, 0, 0]	n/a	FR1	1	R1313J
344.862	1.126	346942	REC_WORD	1.126	n/a	BRUSH	11	1	[0, 0, 0]	n/a	FR1	1	R1313J
345.988	27.313	348068	REC_WORD	27.313	n/a	BRANCH	12	1	[0, 0, 0]	n/a	FR1	1	R1313J
373.301	0.0	375380	REC_END	n/a	n/a	n/a	-999	1	[0, 0, 0]	n/a	FR1	1	R1313J
373.301	0.013	375380	TRIAL_END	n/a	n/a	n/a	-999	1	[0, 0, 0]	n/a	FR1	1	R1313J
373.314	0.001	375393	TRIAL_START	n/a	n/a	n/a	-999	2	[0, 0, 0]	n/a	FR1	1	R1313J
373.315	0.0	375394	TRIAL	n/a	n/a	n/a	-999	2	[0, 0, 0]	n/a	FR1	1	R1313J
373.315	2.213	375394	WAITING_START	n/a	n/a	n/a	-999	2	[0, 0, 0]	n/a	FR1	1	R1313J
375.528	0.0	377607	WAITING_END	n/a	n/a	n/a	-999	2	[0, 0, 0]	n/a	FR1	1	R1313J
375.528	10.429	377607	COUNTDOWN_START	n/a	n/a	n/a	-999	2	[0, 0, 0]	n/a	FR1	1	R1313J
385.957	0.0	388036	COUNTDOWN_END	n/a	n/a	n/a	-999	2	[0, 0, 0]	n/a	FR1	1	R1313J
385.957	1.205	388036	ORIENT_START	n/a	n/a	n/a	-999	2	[0, 0, 0]	n/a	FR1	1	R1313J
387.162	0.001	389241	ORIENT_END	n/a	n/a	n/a	-999	2	[0, 0, 0]	n/a	FR1	1	R1313J
387.163	0.86	389242	ENCODING_START	n/a	n/a	n/a	-999	2	[0, 0, 0]	n/a	FR1	1	R1313J
388.023	1.624	390102	WORD	n/a	wordpools/wordpool_EN.txt	SOCK	1	2	[0, 0, 0]	n/a	FR1	1	R1313J
389.647	1.005	391726	WORD_OFF	n/a	n/a	SOCK	1	2	[0, 0, 0]	n/a	FR1	1	R1313J
390.652	1.628	392731	WORD	n/a	wordpools/wordpool_EN.txt	LEG	2	2	[0, 0, 0]	n/a	FR1	1	R1313J
392.28	0.958	394358	WORD_OFF	n/a	n/a	LEG	2	2	[0, 0, 0]	n/a	FR1	1	R1313J
393.238	1.626	395316	WORD	n/a	wordpools/wordpool_EN.txt	FLOOR	3	2	[0, 0, 0]	n/a	FR1	1	R1313J
394.864	1.1	396942	WORD_OFF	n/a	n/a	FLOOR	3	2	[0, 0, 0]	n/a	FR1	1	R1313J
395.964	1.634	398042	WORD	n/a	wordpools/wordpool_EN.txt	THUMB	4	2	[0, 0, 0]	n/a	FR1	1	R1313J
397.598	0.78	399676	WORD_OFF	n/a	n/a	THUMB	4	2	[0, 0, 0]	n/a	FR1	1	R1313J
398.378	1.637	400456	WORD	n/a	wordpools/wordpool_EN.txt	CAT	5	2	[0, 0, 0]	n/a	FR1	1	R1313J
400.015	1.127	402093	WORD_OFF	n/a	n/a	CAT	5	2	[0, 0, 0]	n/a	FR1	1	R1313J
401.142	1.624	403220	WORD	n/a	wordpools/wordpool_EN.txt	MOOSE	6	2	[0, 0, 0]	n/a	FR1	1	R1313J
402.766	1.072	404844	WORD_OFF	n/a	n/a	MOOSE	6	2	[0, 0, 0]	n/a	FR1	1	R1313J
403.838	1.628	405916	WORD	n/a	wordpools/wordpool_EN.txt	BOWL	7	2	[0, 0, 0]	n/a	FR1	1	R1313J
405.466	1.122	407544	WORD_OFF	n/a	n/a	BOWL	7	2	[0, 0, 0]	n/a	FR1	1	R1313J
406.588	1.628	408666	WORD	n/a	wordpools/wordpool_EN.txt	CUP	8	2	[0, 0, 0]	n/a	FR1	1	R1313J
408.216	0.894	410294	WORD_OFF	n/a	n/a	CUP	8	2	[0, 0, 0]	n/a	FR1	1	R1313J
409.11	1.624	411188	WORD	n/a	wordpools/wordpool_EN.txt	GLASS	9	2	[0, 0, 0]	n/a	FR1	1	R1313J
410.734	0.89	412812	WORD_OFF	n/a	n/a	GLASS	9	2	[0, 0, 0]	n/a	FR1	1	R1313J
411.624	1.626	413702	WORD	n/a	wordpools/wordpool_EN.txt	BED	10	2	[0, 0, 0]	n/a	FR1	1	R1313J
413.25	0.861	415328	WORD_OFF	n/a	n/a	BED	10	2	[0, 0, 0]	n/a	FR1	1	R1313J
414.111	1.624	416189	WORD	n/a	wordpools/wordpool_EN.txt	VASE	11	2	[0, 0, 0]	n/a	FR1	1	R1313J
415.735	0.777	417812	WORD_OFF	n/a	n/a	VASE	11	2	[0, 0, 0]	n/a	FR1	1	R1313J
416.512	1.623	418589	WORD	n/a	wordpools/wordpool_EN.txt	SOUP	12	2	[0, 0, 0]	n/a	FR1	1	R1313J
418.135	0.0	420212	ENCODING_END	n/a	n/a	n/a	-999	2	[0, 0, 0]	n/a	FR1	1	R1313J
418.135	0.001	420212	WORD_OFF	n/a	n/a	SOUP	12	2	[0, 0, 0]	n/a	FR1	1	R1313J
418.136	0.0	420213	DISTRACT_START	n/a	n/a	n/a	-999	2	[0, 0, 0]	n/a	FR1	1	R1313J
418.136	0.015	420213	START	n/a	n/a	n/a	-999	2	[-999, -999, -999]	n/a	FR1	1	R1313J
418.151	4.968	420228	PROB	4.968	n/a	n/a	-999	2	[2, 1, 2]	5	FR1	1	R1313J
423.119	5.066	425196	PROB	5.066	n/a	n/a	-999	2	[9, 4, 2]	15	FR1	1	R1313J
428.185	5.319	430262	PROB	5.319	n/a	n/a	-999	2	[3, 2, 6]	11	FR1	1	R1313J
433.504	5.82	435581	PROB	5.82	n/a	n/a	-999	2	[7, 6, 5]	18	FR1	1	R1313J
439.324	0.014	441401	STOP	n/a	n/a	n/a	-999	2	[-999, -999, -999]	n/a	FR1	1	R1313J
439.338	0.596	441415	DISTRACT_END	n/a	n/a	n/a	-999	2	[0, 0, 0]	n/a	FR1	1	R1313J
439.934	1.572	442011	RETRIEVAL_ORIENT_START	n/a	n/a	n/a	-999	2	[0, 0, 0]	n/a	FR1	1	R1313J
441.506	0.0	443582	RETRIEVAL_ORIENT_END	n/a	n/a	n/a	-999	2	[0, 0, 0]	n/a	FR1	1	R1313J
441.506	1.87	443582	REC_START	n/a	n/a	n/a	-999	2	[0, 0, 0]	n/a	FR1	1	R1313J
443.376	10.089	445452	REC_WORD_VV	10.089	n/a	<>	-999	2	[0, 0, 0]	n/a	FR1	1	R1313J
453.465	1.815	455541	REC_WORD_VV	1.815	n/a	<>	-999	2	[0, 0, 0]	n/a	FR1	1	R1313J
455.28	16.238	457356	REC_WORD_VV	16.238	n/a	<>	-999	2	[0, 0, 0]	n/a	FR1	1	R1313J
471.518	0.0	473593	TRIAL_END	n/a	n/a	n/a	-999	2	[0, 0, 0]	n/a	FR1	1	R1313J
471.518	0.014	473593	REC_END	n/a	n/a	n/a	-999	2	[0, 0, 0]	n/a	FR1	1	R1313J
471.532	0.0	473607	TRIAL_START	n/a	n/a	n/a	-999	3	[0, 0, 0]	n/a	FR1	1	R1313J
471.532	0.0	473607	TRIAL	n/a	n/a	n/a	-999	3	[0, 0, 0]	n/a	FR1	1	R1313J
471.532	2.479	473607	WAITING_START	n/a	n/a	n/a	-999	3	[0, 0, 0]	n/a	FR1	1	R1313J
474.011	0.001	476086	WAITING_END	n/a	n/a	n/a	-999	3	[0, 0, 0]	n/a	FR1	1	R1313J
474.012	10.428	476087	COUNTDOWN_START	n/a	n/a	n/a	-999	3	[0, 0, 0]	n/a	FR1	1	R1313J
484.44	0.001	486515	COUNTDOWN_END	n/a	n/a	n/a	-999	3	[0, 0, 0]	n/a	FR1	1	R1313J
484.441	1.105	486516	ORIENT_START	n/a	n/a	n/a	-999	3	[0, 0, 0]	n/a	FR1	1	R1313J
485.546	0.001	487621	ORIENT_END	n/a	n/a	n/a	-999	3	[0, 0, 0]	n/a	FR1	1	R1313J
485.547	1.014	487622	ENCODING_START	n/a	n/a	n/a	-999	3	[0, 0, 0]	n/a	FR1	1	R1313J
486.561	1.635	488636	WORD	n/a	wordpools/wordpool_EN.txt	COW	1	3	[0, 0, 0]	n/a	FR1	1	R1313J
488.196	0.985	490271	WORD_OFF	n/a	n/a	COW	1	3	[0, 0, 0]	n/a	FR1	1	R1313J
489.181	1.633	491256	WORD	n/a	wordpools/wordpool_EN.txt	CHAIR	2	3	[0, 0, 0]	n/a	FR1	1	R1313J
490.814	1.083	492888	WORD_OFF	n/a	n/a	CHAIR	2	3	[0, 0, 0]	n/a	FR1	1	R1313J
491.897	1.634	493971	WORD	n/a	wordpools/wordpool_EN.txt	RAKE	3	3	[0, 0, 0]	n/a	FR1	1	R1313J
493.531	0.823	495605	WORD_OFF	n/a	n/a	RAKE	3	3	[0, 0, 0]	n/a	FR1	1	R1313J
494.354	1.627	496428	WORD	n/a	wordpools/wordpool_EN.txt	CHEEK	4	3	[0, 0, 0]	n/a	FR1	1	R1313J
495.981	0.795	498055	WORD_OFF	n/a	n/a	CHEEK	4	3	[0, 0, 0]	n/a	FR1	1	R1313J
496.776	1.622	498850	WORD	n/a	wordpools/wordpool_EN.txt	CLOTH	5	3	[0, 0, 0]	n/a	FR1	1	R1313J
498.398	0.892	500472	WORD_OFF	n/a	n/a	CLOTH	5	3	[0, 0, 0]	n/a	FR1	1	R1313J
499.29	1.626	501364	WORD	n/a	wordpools/wordpool_EN.txt	BOOK	6	3	[0, 0, 0]	n/a	FR1	1	R1313J
500.916	0.773	502990	WORD_OFF	n/a	n/a	BOOK	6	3	[0, 0, 0]	n/a	FR1	1	R1313J
501.689	1.626	503763	WORD	n/a	wordpools/wordpool_EN.txt	CAR	7	3	[0, 0, 0]	n/a	FR1	1	R1313J
503.315	0.828	505389	WORD_OFF	n/a	n/a	CAR	7	3	[0, 0, 0]	n/a	FR1	1	R1313J
504.143	1.623	506217	WORD	n/a	wordpools/wordpool_EN.txt	SKUNK	8	3	[0, 0, 0]	n/a	FR1	1	R1313J
505.766	0.901	507840	WORD_OFF	n/a	n/a	SKUNK	8	3	[0, 0, 0]	n/a	FR1	1	R1313J
506.667	1.632	508741	WORD	n/a	wordpools/wordpool_EN.txt	FOX	9	3	[0, 0, 0]	n/a	FR1	1	R1313J
508.299	0.99	510373	WORD_OFF	n/a	n/a	FOX	9	3	[0, 0, 0]	n/a	FR1	1	R1313J
509.289	1.612	511363	WORD	n/a	wordpools/wordpool_EN.txt	FOOD	10	3	[0, 0, 0]	n/a	FR1	1	R1313J
510.901	0.761	512975	WORD_OFF	n/a	n/a	FOOD	10	3	[0, 0, 0]	n/a	FR1	1	R1313J
511.662	1.621	513736	WORD	n/a	wordpools/wordpool_EN.txt	SEAT	11	3	[0, 0, 0]	n/a	FR1	1	R1313J
513.283	0.809	515357	WORD_OFF	n/a	n/a	SEAT	11	3	[0, 0, 0]	n/a	FR1	1	R1313J
514.092	1.626	516165	WORD	n/a	wordpools/wordpool_EN.txt	TEA	12	3	[0, 0, 0]	n/a	FR1	1	R1313J
515.718	0.001	517791	WORD_OFF	n/a	n/a	TEA	12	3	[0, 0, 0]	n/a	FR1	1	R1313J
515.719	0.0	517792	ENCODING_END	n/a	n/a	n/a	-999	3	[0, 0, 0]	n/a	FR1	1	R1313J
515.719	0.0	517792	DISTRACT_START	n/a	n/a	n/a	-999	3	[0, 0, 0]	n/a	FR1	1	R1313J
515.719	0.016	517792	START	n/a	n/a	n/a	-999	3	[-999, -999, -999]	n/a	FR1	1	R1313J
515.735	3.884	517808	PROB	3.884	n/a	n/a	-999	3	[2, 8, 2]	12	FR1	1	R1313J
519.619	5.2	521692	PROB	5.2	n/a	n/a	-999	3	[7, 6, 3]	16	FR1	1	R1313J
524.819	4.367	526892	PROB	4.367	n/a	n/a	-999	3	[2, 5, 8]	15	FR1	1	R1313J
529.186	8.483	531259	PROB	8.483	n/a	n/a	-999	3	[6, 2, 7]	15	FR1	1	R1313J
537.669	0.019	539742	STOP	n/a	n/a	n/a	-999	3	[-999, -999, -999]	n/a	FR1	1	R1313J
537.688	0.664	539761	DISTRACT_END	n/a	n/a	n/a	-999	3	[0, 0, 0]	n/a	FR1	1	R1313J
538.352	1.553	540425	RETRIEVAL_ORIENT_START	n/a	n/a	n/a	-999	3	[0, 0, 0]	n/a	FR1	1	R1313J
539.905	0.001	541977	RETRIEVAL_ORIENT_END	n/a	n/a	n/a	-999	3	[0, 0, 0]	n/a	FR1	1	R1313J
539.906	1.134	541978	REC_START	n/a	n/a	n/a	-999	3	[0, 0, 0]	n/a	FR1	1	R1313J
541.04	5.356	543112	REC_WORD_VV	5.356	n/a	<>	-999	3	[0, 0, 0]	n/a	FR1	1	R1313J
546.396	1.0	548468	REC_WORD_VV	1.0	n/a	<>	-999	3	[0, 0, 0]	n/a	FR1	1	R1313J
547.396	22.521	549468	REC_WORD_VV	22.521	n/a	<>	-999	3	[0, 0, 0]	n/a	FR1	1	R1313J
569.917	0.0	571988	REC_END	n/a	n/a	n/a	-999	3	[0, 0, 0]	n/a	FR1	1	R1313J
569.917	0.015	571988	TRIAL_END	n/a	n/a	n/a	-999	3	[0, 0, 0]	n/a	FR1	1	R1313J
569.932	0.0	572003	TRIAL_START	n/a	n/a	n/a	-999	4	[0, 0, 0]	n/a	FR1	1	R1313J
569.932	0.0	572003	TRIAL	n/a	n/a	n/a	-999	4	[0, 0, 0]	n/a	FR1	1	R1313J
569.932	63.64	572003	WAITING_START	n/a	n/a	n/a	-999	4	[0, 0, 0]	n/a	FR1	1	R1313J
633.572	0.0	635641	WAITING_END	n/a	n/a	n/a	-999	4	[0, 0, 0]	n/a	FR1	1	R1313J
633.572	10.428	635641	COUNTDOWN_START	n/a	n/a	n/a	-999	4	[0, 0, 0]	n/a	FR1	1	R1313J
644.0	0.0	646068	COUNTDOWN_END	n/a	n/a	n/a	-999	4	[0, 0, 0]	n/a	FR1	1	R1313J
644.0	1.04	646068	ORIENT_START	n/a	n/a	n/a	-999	4	[0, 0, 0]	n/a	FR1	1	R1313J
645.04	0.0	647108	ENCODING_START	n/a	n/a	n/a	-999	4	[0, 0, 0]	n/a	FR1	1	R1313J
645.04	0.872	647108	ORIENT_END	n/a	n/a	n/a	-999	4	[0, 0, 0]	n/a	FR1	1	R1313J
645.912	1.628	647980	WORD	n/a	wordpools/wordpool_EN.txt	STEAK	1	4	[0, 0, 0]	n/a	FR1	1	R1313J
647.54	0.905	649608	WORD_OFF	n/a	n/a	STEAK	1	4	[0, 0, 0]	n/a	FR1	1	R1313J
648.445	1.629	650513	WORD	n/a	wordpools/wordpool_EN.txt	SPRING	2	4	[0, 0, 0]	n/a	FR1	1	R1313J
650.074	0.952	652142	WORD_OFF	n/a	n/a	SPRING	2	4	[0, 0, 0]	n/a	FR1	1	R1313J
651.026	1.632	653094	WORD	n/a	wordpools/wordpool_EN.txt	CART	3	4	[0, 0, 0]	n/a	FR1	1	R1313J
652.658	0.778	654726	WORD_OFF	n/a	n/a	CART	3	4	[0, 0, 0]	n/a	FR1	1	R1313J
653.436	1.622	655504	WORD	n/a	wordpools/wordpool_EN.txt	SLUSH	4	4	[0, 0, 0]	n/a	FR1	1	R1313J
655.058	0.964	657126	WORD_OFF	n/a	n/a	SLUSH	4	4	[0, 0, 0]	n/a	FR1	1	R1313J
656.022	1.637	658090	WORD	n/a	wordpools/wordpool_EN.txt	FRUIT	5	4	[0, 0, 0]	n/a	FR1	1	R1313J
657.659	0.879	659727	WORD_OFF	n/a	n/a	FRUIT	5	4	[0, 0, 0]	n/a	FR1	1	R1313J
658.538	1.62	660606	WORD	n/a	wordpools/wordpool_EN.txt	PIPE	6	4	[0, 0, 0]	n/a	FR1	1	R1313J
660.158	0.803	662226	WORD_OFF	n/a	n/a	PIPE	6	4	[0, 0, 0]	n/a	FR1	1	R1313J
660.961	1.632	663029	WORD	n/a	wordpools/wordpool_EN.txt	BEE	7	4	[0, 0, 0]	n/a	FR1	1	R1313J
662.593	1.136	664660	WORD_OFF	n/a	n/a	BEE	7	4	[0, 0, 0]	n/a	FR1	1	R1313J
663.729	1.63	665796	WORD	n/a	wordpools/wordpool_EN.txt	SHELL	8	4	[0, 0, 0]	n/a	FR1	1	R1313J
665.359	0.847	667426	WORD_OFF	n/a	n/a	SHELL	8	4	[0, 0, 0]	n/a	FR1	1	R1313J
666.206	1.638	668273	WORD	n/a	wordpools/wordpool_EN.txt	BANK	9	4	[0, 0, 0]	n/a	FR1	1	R1313J
667.844	0.798	669911	WORD_OFF	n/a	n/a	BANK	9	4	[0, 0, 0]	n/a	FR1	1	R1313J
668.642	1.635	670709	WORD	n/a	wordpools/wordpool_EN.txt	PEN	10	4	[0, 0, 0]	n/a	FR1	1	R1313J
670.277	0.81	672344	WORD_OFF	n/a	n/a	PEN	10	4	[0, 0, 0]	n/a	FR1	1	R1313J
671.087	1.624	673154	WORD	n/a	wordpools/wordpool_EN.txt	TRUCK	11	4	[0, 0, 0]	n/a	FR1	1	R1313J
672.711	0.812	674778	WORD_OFF	n/a	n/a	TRUCK	11	4	[0, 0, 0]	n/a	FR1	1	R1313J
673.523	1.638	675590	WORD	n/a	wordpools/wordpool_EN.txt	GRASS	12	4	[0, 0, 0]	n/a	FR1	1	R1313J
675.161	0.0	677228	WORD_OFF	n/a	n/a	GRASS	12	4	[0, 0, 0]	n/a	FR1	1	R1313J
675.161	0.001	677228	ENCODING_END	n/a	n/a	n/a	-999	4	[0, 0, 0]	n/a	FR1	1	R1313J
675.162	0.0	677229	DISTRACT_START	n/a	n/a	n/a	-999	4	[0, 0, 0]	n/a	FR1	1	R1313J
675.162	0.015	677229	START	n/a	n/a	n/a	-999	4	[-999, -999, -999]	n/a	FR1	1	R1313J
675.177	4.635	677244	PROB	4.635	n/a	n/a	-999	4	[3, 2, 6]	11	FR1	1	R1313J
679.812	3.6	681879	PROB	3.6	n/a	n/a	-999	4	[6, 2, 3]	11	FR1	1	R1313J
683.412	4.767	685479	PROB	4.767	n/a	n/a	-999	4	[5, 6, 8]	19	FR1	1	R1313J
688.179	4.869	690245	PROB	4.869	n/a	n/a	-999	4	[6, 8, 5]	19	FR1	1	R1313J
693.048	7.523	695114	PROB	7.523	n/a	n/a	-999	4	[9, 8, 5]	21	FR1	1	R1313J
700.571	0.012	702637	STOP	n/a	n/a	n/a	-999	4	[-999, -999, -999]	n/a	FR1	1	R1313J
700.583	0.671	702649	DISTRACT_END	n/a	n/a	n/a	-999	4	[0, 0, 0]	n/a	FR1	1	R1313J
701.254	1.579	703320	RETRIEVAL_ORIENT_START	n/a	n/a	n/a	-999	4	[0, 0, 0]	n/a	FR1	1	R1313J
702.833	0.0	704899	REC_START	n/a	n/a	n/a	-999	4	[0, 0, 0]	n/a	FR1	1	R1313J
702.833	3.814	704899	RETRIEVAL_ORIENT_END	n/a	n/a	n/a	-999	4	[0, 0, 0]	n/a	FR1	1	R1313J
706.647	0.605	708713	REC_WORD_VV	0.605	n/a	<>	-999	4	[0, 0, 0]	n/a	FR1	1	R1313J
707.252	25.594	709318	REC_WORD_VV	25.594	n/a	<>	-999	4	[0, 0, 0]	n/a	FR1	1	R1313J
732.846	0.0	734911	REC_END	n/a	n/a	n/a	-999	4	[0, 0, 0]	n/a	FR1	1	R1313J
732.846	0.016	734911	TRIAL_END	n/a	n/a	n/a	-999	4	[0, 0, 0]	n/a	FR1	1	R1313J
732.862	0.0	734927	TRIAL_START	n/a	n/a	n/a	-999	5	[0, 0, 0]	n/a	FR1	1	R1313J
732.862	0.0	734927	TRIAL	n/a	n/a	n/a	-999	5	[0, 0, 0]	n/a	FR1	1	R1313J
732.862	3.392	734927	WAITING_START	n/a	n/a	n/a	-999	5	[0, 0, 0]	n/a	FR1	1	R1313J
736.254	0.001	738318	WAITING_END	n/a	n/a	n/a	-999	5	[0, 0, 0]	n/a	FR1	1	R1313J
736.255	10.429	738319	COUNTDOWN_START	n/a	n/a	n/a	-999	5	[0, 0, 0]	n/a	FR1	1	R1313J
746.684	0.0	748748	ORIENT_START	n/a	n/a	n/a	-999	5	[0, 0, 0]	n/a	FR1	1	R1313J
746.684	1.157	748748	COUNTDOWN_END	n/a	n/a	n/a	-999	5	[0, 0, 0]	n/a	FR1	1	R1313J
747.841	0.0	749905	ORIENT_END	n/a	n/a	n/a	-999	5	[0, 0, 0]	n/a	FR1	1	R1313J
747.841	1.023	749905	ENCODING_START	n/a	n/a	n/a	-999	5	[0, 0, 0]	n/a	FR1	1	R1313J
748.864	1.627	750928	WORD	n/a	wordpools/wordpool_EN.txt	HEN	1	5	[0, 0, 0]	n/a	FR1	1	R1313J
750.491	1.145	752555	WORD_OFF	n/a	n/a	HEN	1	5	[0, 0, 0]	n/a	FR1	1	R1313J
751.636	1.621	753700	WORD	n/a	wordpools/wordpool_EN.txt	CAGE	2	5	[0, 0, 0]	n/a	FR1	1	R1313J
753.257	0.81	755321	WORD_OFF	n/a	n/a	CAGE	2	5	[0, 0, 0]	n/a	FR1	1	R1313J
754.067	1.625	756131	WORD	n/a	wordpools/wordpool_EN.txt	PRINCE	3	5	[0, 0, 0]	n/a	FR1	1	R1313J
755.692	0.932	757756	WORD_OFF	n/a	n/a	PRINCE	3	5	[0, 0, 0]	n/a	FR1	1	R1313J
756.624	1.634	758688	WORD	n/a	wordpools/wordpool_EN.txt	PHONE	4	5	[0, 0, 0]	n/a	FR1	1	R1313J
758.258	0.93	760322	WORD_OFF	n/a	n/a	PHONE	4	5	[0, 0, 0]	n/a	FR1	1	R1313J
759.188	1.638	761252	WORD	n/a	wordpools/wordpool_EN.txt	STORM	5	5	[0, 0, 0]	n/a	FR1	1	R1313J
760.826	0.927	762889	WORD_OFF	n/a	n/a	STORM	5	5	[0, 0, 0]	n/a	FR1	1	R1313J
761.753	1.623	763816	WORD	n/a	wordpools/wordpool_EN.txt	JUICE	6	5	[0, 0, 0]	n/a	FR1	1	R1313J
763.376	1.051	765439	WORD_OFF	n/a	n/a	JUICE	6	5	[0, 0, 0]	n/a	FR1	1	R1313J
764.427	1.633	766490	WORD	n/a	wordpools/wordpool_EN.txt	TREE	7	5	[0, 0, 0]	n/a	FR1	1	R1313J
766.06	1.108	768123	WORD_OFF	n/a	n/a	TREE	7	5	[0, 0, 0]	n/a	FR1	1	R1313J
767.168	1.626	769231	WORD	n/a	wordpools/wordpool_EN.txt	BEAK	8	5	[0, 0, 0]	n/a	FR1	1	R1313J
768.794	1.003	770857	WORD_OFF	n/a	n/a	BEAK	8	5	[0, 0, 0]	n/a	FR1	1	R1313J
769.797	1.631	771860	WORD	n/a	wordpools/wordpool_EN.txt	LOCK	9	5	[0, 0, 0]	n/a	FR1	1	R1313J
771.428	0.966	773491	WORD_OFF	n/a	n/a	LOCK	9	5	[0, 0, 0]	n/a	FR1	1	R1313J
772.394	1.634	774457	WORD	n/a	wordpools/wordpool_EN.txt	FUR	10	5	[0, 0, 0]	n/a	FR1	1	R1313J
774.028	0.919	776091	WORD_OFF	n/a	n/a	FUR	10	5	[0, 0, 0]	n/a	FR1	1	R1313J
774.947	1.632	777010	WORD	n/a	wordpools/wordpool_EN.txt	FACE	11	5	[0, 0, 0]	n/a	FR1	1	R1313J
776.579	1.048	778642	WORD_OFF	n/a	n/a	FACE	11	5	[0, 0, 0]	n/a	FR1	1	R1313J
777.627	1.635	779690	WORD	n/a	wordpools/wordpool_EN.txt	PLATE	12	5	[0, 0, 0]	n/a	FR1	1	R1313J
779.262	0.0	781325	WORD_OFF	n/a	n/a	PLATE	12	5	[0, 0, 0]	n/a	FR1	1	R1313J
779.262	0.0	781325	ENCODING_END	n/a	n/a	n/a	-999	5	[0, 0, 0]	n/a	FR1	1	R1313J
779.262	0.001	781325	DISTRACT_START	n/a	n/a	n/a	-999	5	[0, 0, 0]	n/a	FR1	1	R1313J
779.263	0.015	781326	START	n/a	n/a	n/a	-999	5	[-999, -999, -999]	n/a	FR1	1	R1313J
779.278	3.117	781341	PROB	3.117	n/a	n/a	-999	5	[2, 2, 1]	5	FR1	1	R1313J
782.395	3.235	784458	PROB	3.235	n/a	n/a	-999	5	[3, 1, 2]	6	FR1	1	R1313J
785.63	6.368	787692	PROB	6.368	n/a	n/a	-999	5	[3, 8, 6]	17	FR1	1	R1313J
791.998	8.934	794060	PROB	8.934	n/a	n/a	-999	5	[8, 7, 6]	21	FR1	1	R1313J
800.932	0.018	802994	STOP	n/a	n/a	n/a	-999	5	[-999, -999, -999]	n/a	FR1	1	R1313J
800.95	0.658	803012	DISTRACT_END	n/a	n/a	n/a	-999	5	[0, 0, 0]	n/a	FR1	1	R1313J
801.608	1.558	803670	RETRIEVAL_ORIENT_START	n/a	n/a	n/a	-999	5	[0, 0, 0]	n/a	FR1	1	R1313J
803.166	0.0	805228	REC_START	n/a	n/a	n/a	-999	5	[0, 0, 0]	n/a	FR1	1	R1313J
803.166	1.225	805228	RETRIEVAL_ORIENT_END	n/a	n/a	n/a	-999	5	[0, 0, 0]	n/a	FR1	1	R1313J
804.391	5.209	806453	REC_WORD_VV	5.209	n/a	<>	-999	5	[0, 0, 0]	n/a	FR1	1	R1313J
809.6	23.577	811661	REC_WORD_VV	23.577	n/a	<>	-999	5	[0, 0, 0]	n/a	FR1	1	R1313J
833.177	0.001	835238	REC_END	n/a	n/a	n/a	-999	5	[0, 0, 0]	n/a	FR1	1	R1313J
833.178	0.013	835239	TRIAL_END	n/a	n/a	n/a	-999	5	[0, 0, 0]	n/a	FR1	1	R1313J
833.191	0.0	835252	TRIAL_START	n/a	n/a	n/a	-999	6	[0, 0, 0]	n/a	FR1	1	R1313J
833.191	0.001	835252	TRIAL	n/a	n/a	n/a	-999	6	[0, 0, 0]	n/a	FR1	1	R1313J
833.192	11.632	835253	WAITING_START	n/a	n/a	n/a	-999	6	[0, 0, 0]	n/a	FR1	1	R1313J
844.824	0.0	846884	COUNTDOWN_START	n/a	n/a	n/a	-999	6	[0, 0, 0]	n/a	FR1	1	R1313J
844.824	10.43	846884	WAITING_END	n/a	n/a	n/a	-999	6	[0, 0, 0]	n/a	FR1	1	R1313J
855.254	0.0	857314	ORIENT_START	n/a	n/a	n/a	-999	6	[0, 0, 0]	n/a	FR1	1	R1313J
855.254	1.087	857314	COUNTDOWN_END	n/a	n/a	n/a	-999	6	[0, 0, 0]	n/a	FR1	1	R1313J
856.341	0.001	858401	ORIENT_END	n/a	n/a	n/a	-999	6	[0, 0, 0]	n/a	FR1	1	R1313J
856.342	0.996	858402	ENCODING_START	n/a	n/a	n/a	-999	6	[0, 0, 0]	n/a	FR1	1	R1313J
857.338	1.638	859398	WORD	n/a	wordpools/wordpool_EN.txt	PANTS	1	6	[0, 0, 0]	n/a	FR1	1	R1313J
858.976	1.001	861035	WORD_OFF	n/a	n/a	PANTS	1	6	[0, 0, 0]	n/a	FR1	1	R1313J
859.977	1.633	862036	WORD	n/a	wordpools/wordpool_EN.txt	MAT	2	6	[0, 0, 0]	n/a	FR1	1	R1313J
861.61	0.989	863669	WORD_OFF	n/a	n/a	MAT	2	6	[0, 0, 0]	n/a	FR1	1	R1313J
862.599	1.627	864658	WORD	n/a	wordpools/wordpool_EN.txt	LAMB	3	6	[0, 0, 0]	n/a	FR1	1	R1313J
864.226	1.082	866285	WORD_OFF	n/a	n/a	LAMB	3	6	[0, 0, 0]	n/a	FR1	1	R1313J
865.308	1.619	867367	WORD	n/a	wordpools/wordpool_EN.txt	BAND	4	6	[0, 0, 0]	n/a	FR1	1	R1313J
866.927	0.862	868986	WORD_OFF	n/a	n/a	BAND	4	6	[0, 0, 0]	n/a	FR1	1	R1313J
867.789	1.621	869848	WORD	n/a	wordpools/wordpool_EN.txt	SKY	5	6	[0, 0, 0]	n/a	FR1	1	R1313J
869.41	1.046	871469	WORD_OFF	n/a	n/a	SKY	5	6	[0, 0, 0]	n/a	FR1	1	R1313J
870.456	1.622	872515	WORD	n/a	wordpools/wordpool_EN.txt	DOG	6	6	[0, 0, 0]	n/a	FR1	1	R1313J
872.078	0.827	874137	WORD_OFF	n/a	n/a	DOG	6	6	[0, 0, 0]	n/a	FR1	1	R1313J
872.905	1.624	874964	WORD	n/a	wordpools/wordpool_EN.txt	LIP	7	6	[0, 0, 0]	n/a	FR1	1	R1313J
874.529	1.101	876588	WORD_OFF	n/a	n/a	LIP	7	6	[0, 0, 0]	n/a	FR1	1	R1313J
875.63	1.632	877689	WORD	n/a	wordpools/wordpool_EN.txt	PLANE	8	6	[0, 0, 0]	n/a	FR1	1	R1313J
877.262	0.818	879321	WORD_OFF	n/a	n/a	PLANE	8	6	[0, 0, 0]	n/a	FR1	1	R1313J
878.08	1.633	880139	WORD	n/a	wordpools/wordpool_EN.txt	BALL	9	6	[0, 0, 0]	n/a	FR1	1	R1313J
879.713	1.008	881772	WORD_OFF	n/a	n/a	BALL	9	6	[0, 0, 0]	n/a	FR1	1	R1313J
880.721	1.625	882780	WORD	n/a	wordpools/wordpool_EN.txt	SINK	10	6	[0, 0, 0]	n/a	FR1	1	R1313J
882.346	0.772	884405	WORD_OFF	n/a	n/a	SINK	10	6	[0, 0, 0]	n/a	FR1	1	R1313J
883.118	1.629	885176	WORD	n/a	wordpools/wordpool_EN.txt	PEARL	11	6	[0, 0, 0]	n/a	FR1	1	R1313J
884.747	0.767	886805	WORD_OFF	n/a	n/a	PEARL	11	6	[0, 0, 0]	n/a	FR1	1	R1313J
885.514	1.634	887572	WORD	n/a	wordpools/wordpool_EN.txt	BEAN	12	6	[0, 0, 0]	n/a	FR1	1	R1313J
887.148	0.0	889206	WORD_OFF	n/a	n/a	BEAN	12	6	[0, 0, 0]	n/a	FR1	1	R1313J
887.148	0.0	889206	ENCODING_END	n/a	n/a	n/a	-999	6	[0, 0, 0]	n/a	FR1	1	R1313J
887.148	0.0	889206	DISTRACT_START	n/a	n/a	n/a	-999	6	[0, 0, 0]	n/a	FR1	1	R1313J
887.148	0.015	889206	START	n/a	n/a	n/a	-999	6	[-999, -999, -999]	n/a	FR1	1	R1313J
887.163	7.686	889221	PROB	7.686	n/a	n/a	-999	6	[9, 3, 8]	20	FR1	1	R1313J
894.849	4.95	896907	PROB	4.95	n/a	n/a	-999	6	[9, 6, 5]	20	FR1	1	R1313J
899.799	3.651	901857	PROB	3.651	n/a	n/a	-999	6	[2, 1, 5]	7	FR1	1	R1313J
903.45	5.829	905508	PROB	5.829	n/a	n/a	-999	6	[7, 2, 1]	10	FR1	1	R1313J
909.279	0.021	911336	STOP	n/a	n/a	n/a	-999	6	[-999, -999, -999]	n/a	FR1	1	R1313J
909.3	0.645	911357	DISTRACT_END	n/a	n/a	n/a	-999	6	[0, 0, 0]	n/a	FR1	1	R1313J
909.945	1.54	912002	RETRIEVAL_ORIENT_START	n/a	n/a	n/a	-999	6	[0, 0, 0]	n/a	FR1	1	R1313J
911.485	0.0	913542	RETRIEVAL_ORIENT_END	n/a	n/a	n/a	-999	6	[0, 0, 0]	n/a	FR1	1	R1313J
911.485	3.595	913542	REC_START	n/a	n/a	n/a	-999	6	[0, 0, 0]	n/a	FR1	1	R1313J
915.08	2.3	917137	REC_WORD	2.3	n/a	BEAN	12	6	[0, 0, 0]	n/a	FR1	1	R1313J
917.38	3.64	919437	REC_WORD	3.64	n/a	DOG	6	6	[0, 0, 0]	n/a	FR1	1	R1313J
921.02	1.505	923077	REC_WORD	1.505	n/a	PLANE	8	6	[0, 0, 0]	n/a	FR1	1	R1313J
922.525	2.211	924582	REC_WORD	2.211	n/a	SINK	10	6	[0, 0, 0]	n/a	FR1	1	R1313J
924.736	16.762	926793	REC_WORD	16.762	n/a	PEARL	11	6	[0, 0, 0]	n/a	FR1	1	R1313J
941.498	0.0	943554	REC_END	n/a	n/a	n/a	-999	6	[0, 0, 0]	n/a	FR1	1	R1313J
941.498	0.013	943554	TRIAL_END	n/a	n/a	n/a	-999	6	[0, 0, 0]	n/a	FR1	1	R1313J
941.511	0.0	943567	TRIAL	n/a	n/a	n/a	-999	7	[0, 0, 0]	n/a	FR1	1	R1313J
941.511	0.001	943567	TRIAL_START	n/a	n/a	n/a	-999	7	[0, 0, 0]	n/a	FR1	1	R1313J
941.512	2.212	943568	WAITING_START	n/a	n/a	n/a	-999	7	[0, 0, 0]	n/a	FR1	1	R1313J
943.724	0.0	945780	WAITING_END	n/a	n/a	n/a	-999	7	[0, 0, 0]	n/a	FR1	1	R1313J
943.724	10.429	945780	COUNTDOWN_START	n/a	n/a	n/a	-999	7	[0, 0, 0]	n/a	FR1	1	R1313J
954.153	0.0	956209	COUNTDOWN_END	n/a	n/a	n/a	-999	7	[0, 0, 0]	n/a	FR1	1	R1313J
954.153	1.038	956209	ORIENT_START	n/a	n/a	n/a	-999	7	[0, 0, 0]	n/a	FR1	1	R1313J
955.191	0.001	957247	ORIENT_END	n/a	n/a	n/a	-999	7	[0, 0, 0]	n/a	FR1	1	R1313J
955.192	1.088	957248	ENCODING_START	n/a	n/a	n/a	-999	7	[0, 0, 0]	n/a	FR1	1	R1313J
956.28	1.613	958336	WORD	n/a	wordpools/wordpool_EN.txt	SNAKE	1	7	[0, 0, 0]	n/a	FR1	1	R1313J
957.893	1.037	959948	WORD_OFF	n/a	n/a	SNAKE	1	7	[0, 0, 0]	n/a	FR1	1	R1313J
958.93	1.63	960985	WORD	n/a	wordpools/wordpool_EN.txt	FOG	2	7	[0, 0, 0]	n/a	FR1	1	R1313J
960.56	0.821	962615	WORD_OFF	n/a	n/a	FOG	2	7	[0, 0, 0]	n/a	FR1	1	R1313J
961.381	1.629	963436	WORD	n/a	wordpools/wordpool_EN.txt	WING	3	7	[0, 0, 0]	n/a	FR1	1	R1313J
963.01	0.872	965065	WORD_OFF	n/a	n/a	WING	3	7	[0, 0, 0]	n/a	FR1	1	R1313J
963.882	1.629	965937	WORD	n/a	wordpools/wordpool_EN.txt	CHIEF	4	7	[0, 0, 0]	n/a	FR1	1	R1313J
965.511	0.925	967566	WORD_OFF	n/a	n/a	CHIEF	4	7	[0, 0, 0]	n/a	FR1	1	R1313J
966.436	1.625	968491	WORD	n/a	wordpools/wordpool_EN.txt	LAND	5	7	[0, 0, 0]	n/a	FR1	1	R1313J
968.061	1.057	970116	WORD_OFF	n/a	n/a	LAND	5	7	[0, 0, 0]	n/a	FR1	1	R1313J
969.118	1.627	971173	WORD	n/a	wordpools/wordpool_EN.txt	COIN	6	7	[0, 0, 0]	n/a	FR1	1	R1313J
970.745	0.87	972800	WORD_OFF	n/a	n/a	COIN	6	7	[0, 0, 0]	n/a	FR1	1	R1313J
971.615	1.63	973670	WORD	n/a	wordpools/wordpool_EN.txt	JAR	7	7	[0, 0, 0]	n/a	FR1	1	R1313J
973.245	0.946	975300	WORD_OFF	n/a	n/a	JAR	7	7	[0, 0, 0]	n/a	FR1	1	R1313J
974.191	1.621	976246	WORD	n/a	wordpools/wordpool_EN.txt	ROSE	8	7	[0, 0, 0]	n/a	FR1	1	R1313J
975.812	1.151	977867	WORD_OFF	n/a	n/a	ROSE	8	7	[0, 0, 0]	n/a	FR1	1	R1313J
976.963	1.633	979018	WORD	n/a	wordpools/wordpool_EN.txt	BENCH	9	7	[0, 0, 0]	n/a	FR1	1	R1313J
978.596	0.896	980651	WORD_OFF	n/a	n/a	BENCH	9	7	[0, 0, 0]	n/a	FR1	1	R1313J
979.492	1.638	981547	WORD	n/a	wordpools/wordpool_EN.txt	WORLD	10	7	[0, 0, 0]	n/a	FR1	1	R1313J
981.13	1.032	983184	WORD_OFF	n/a	n/a	WORLD	10	7	[0, 0, 0]	n/a	FR1	1	R1313J
982.162	1.618	984216	WORD	n/a	wordpools/wordpool_EN.txt	TOAST	11	7	[0, 0, 0]	n/a	FR1	1	R1313J
983.78	0.911	985834	WORD_OFF	n/a	n/a	TOAST	11	7	[0, 0, 0]	n/a	FR1	1	R1313J
984.691	1.622	986745	WORD	n/a	wordpools/wordpool_EN.txt	LAWN	12	7	[0, 0, 0]	n/a	FR1	1	R1313J
986.313	0.001	988367	WORD_OFF	n/a	n/a	LAWN	12	7	[0, 0, 0]	n/a	FR1	1	R1313J
986.314	0.0	988368	ENCODING_END	n/a	n/a	n/a	-999	7	[0, 0, 0]	n/a	FR1	1	R1313J
986.314	0.0	988368	DISTRACT_START	n/a	n/a	n/a	-999	7	[0, 0, 0]	n/a	FR1	1	R1313J
986.314	0.016	988368	START	n/a	n/a	n/a	-999	7	[-999, -999, -999]	n/a	FR1	1	R1313J
986.33	3.884	988384	PROB	3.884	n/a	n/a	-999	7	[8, 2, 2]	12	FR1	1	R1313J
990.214	4.918	992268	PROB	4.918	n/a	n/a	-999	7	[6, 8, 1]	15	FR1	1	R1313J
995.132	3.867	997186	PROB	3.867	n/a	n/a	-999	7	[8, 2, 6]	16	FR1	1	R1313J
998.999	3.934	1001053	PROB	3.934	n/a	n/a	-999	7	[3, 2, 6]	11	FR1	1	R1313J
1002.933	4.862	1004987	PROB	4.862	n/a	n/a	-999	7	[2, 3, 9]	14	FR1	1	R1313J
1007.795	0.006	1009848	STOP	n/a	n/a	n/a	-999	7	[-999, -999, -999]	n/a	FR1	1	R1313J
1007.801	0.597	1009854	DISTRACT_END	n/a	n/a	n/a	-999	7	[0, 0, 0]	n/a	FR1	1	R1313J
1008.398	1.687	1010451	RETRIEVAL_ORIENT_START	n/a	n/a	n/a	-999	7	[0, 0, 0]	n/a	FR1	1	R1313J
1010.085	0.0	1012138	RETRIEVAL_ORIENT_END	n/a	n/a	n/a	-999	7	[0, 0, 0]	n/a	FR1	1	R1313J
1010.085	1.314	1012138	REC_START	n/a	n/a	n/a	-999	7	[0, 0, 0]	n/a	FR1	1	R1313J
1011.399	1.061	1013452	REC_WORD	1.061	n/a	TOAST	11	7	[0, 0, 0]	n/a	FR1	1	R1313J
1012.46	5.15	1014513	REC_WORD	5.15	n/a	LAWN	12	7	[0, 0, 0]	n/a	FR1	1	R1313J
1017.61	5.285	1019663	REC_WORD_VV	5.285	n/a	<>	-999	7	[0, 0, 0]	n/a	FR1	1	R1313J
1022.895	4.07	1024948	REC_WORD	4.07	n/a	COIN	6	7	[0, 0, 0]	n/a	FR1	1	R1313J
1026.965	8.565	1029018	REC_WORD_VV	8.565	n/a	<>	-999	7	[0, 0, 0]	n/a	FR1	1	R1313J
1035.53	4.567	1037582	REC_WORD	4.567	n/a	WORLD	10	7	[0, 0, 0]	n/a	FR1	1	R1313J
1040.097	0.001	1042149	REC_END	n/a	n/a	n/a	-999	7	[0, 0, 0]	n/a	FR1	1	R1313J
1040.098	0.014	1042150	TRIAL_END	n/a	n/a	n/a	-999	7	[0, 0, 0]	n/a	FR1	1	R1313J
1040.112	0.0	1042164	TRIAL_START	n/a	n/a	n/a	-999	8	[0, 0, 0]	n/a	FR1	1	R1313J
1040.112	0.0	1042164	TRIAL	n/a	n/a	n/a	-999	8	[0, 0, 0]	n/a	FR1	1	R1313J
1040.112	3.379	1042164	WAITING_START	n/a	n/a	n/a	-999	8	[0, 0, 0]	n/a	FR1	1	R1313J
1043.491	0.0	1045543	WAITING_END	n/a	n/a	n/a	-999	8	[0, 0, 0]	n/a	FR1	1	R1313J
1043.491	10.429	1045543	COUNTDOWN_START	n/a	n/a	n/a	-999	8	[0, 0, 0]	n/a	FR1	1	R1313J
1053.92	0.001	1055972	COUNTDOWN_END	n/a	n/a	n/a	-999	8	[0, 0, 0]	n/a	FR1	1	R1313J
1053.921	1.105	1055973	ORIENT_START	n/a	n/a	n/a	-999	8	[0, 0, 0]	n/a	FR1	1	R1313J
1055.026	0.0	1057077	ORIENT_END	n/a	n/a	n/a	-999	8	[0, 0, 0]	n/a	FR1	1	R1313J
1055.026	0.754	1057077	ENCODING_START	n/a	n/a	n/a	-999	8	[0, 0, 0]	n/a	FR1	1	R1313J
1055.78	1.629	1057831	WORD	n/a	wordpools/wordpool_EN.txt	BROOM	1	8	[0, 0, 0]	n/a	FR1	1	R1313J
1057.409	0.944	1059460	WORD_OFF	n/a	n/a	BROOM	1	8	[0, 0, 0]	n/a	FR1	1	R1313J
1058.353	1.624	1060404	WORD	n/a	wordpools/wordpool_EN.txt	LAKE	2	8	[0, 0, 0]	n/a	FR1	1	R1313J
1059.977	0.781	1062028	WORD_OFF	n/a	n/a	LAKE	2	8	[0, 0, 0]	n/a	FR1	1	R1313J
1060.758	1.635	1062809	WORD	n/a	wordpools/wordpool_EN.txt	ARM	3	8	[0, 0, 0]	n/a	FR1	1	R1313J
1062.393	0.861	1064444	WORD_OFF	n/a	n/a	ARM	3	8	[0, 0, 0]	n/a	FR1	1	R1313J
1063.254	1.623	1065305	WORD	n/a	wordpools/wordpool_EN.txt	BIRD	4	8	[0, 0, 0]	n/a	FR1	1	R1313J
1064.877	1.124	1066928	WORD_OFF	n/a	n/a	BIRD	4	8	[0, 0, 0]	n/a	FR1	1	R1313J
1066.001	1.627	1068052	WORD	n/a	wordpools/wordpool_EN.txt	TOY	5	8	[0, 0, 0]	n/a	FR1	1	R1313J
1067.628	0.99	1069679	WORD_OFF	n/a	n/a	TOY	5	8	[0, 0, 0]	n/a	FR1	1	R1313J
1068.618	1.626	1070669	WORD	n/a	wordpools/wordpool_EN.txt	ZOO	6	8	[0, 0, 0]	n/a	FR1	1	R1313J
1070.244	0.957	1072295	WORD_OFF	n/a	n/a	ZOO	6	8	[0, 0, 0]	n/a	FR1	1	R1313J
1071.201	1.628	1073252	WORD	n/a	wordpools/wordpool_EN.txt	POOL	7	8	[0, 0, 0]	n/a	FR1	1	R1313J
1072.829	0.902	1074880	WORD_OFF	n/a	n/a	POOL	7	8	[0, 0, 0]	n/a	FR1	1	R1313J
1073.731	1.631	1075782	WORD	n/a	wordpools/wordpool_EN.txt	CHIN	8	8	[0, 0, 0]	n/a	FR1	1	R1313J
1075.362	0.97	1077413	WORD_OFF	n/a	n/a	CHIN	8	8	[0, 0, 0]	n/a	FR1	1	R1313J
1076.332	1.614	1078383	WORD	n/a	wordpools/wordpool_EN.txt	TOOTH	9	8	[0, 0, 0]	n/a	FR1	1	R1313J
1077.946	0.87	1079997	WORD_OFF	n/a	n/a	TOOTH	9	8	[0, 0, 0]	n/a	FR1	1	R1313J
1078.816	1.631	1080867	WORD	n/a	wordpools/wordpool_EN.txt	MILK	10	8	[0, 0, 0]	n/a	FR1	1	R1313J
1080.447	0.83	1082497	WORD_OFF	n/a	n/a	MILK	10	8	[0, 0, 0]	n/a	FR1	1	R1313J
1081.277	1.62	1083327	WORD	n/a	wordpools/wordpool_EN.txt	KITE	11	8	[0, 0, 0]	n/a	FR1	1	R1313J
1082.897	1.023	1084947	WORD_OFF	n/a	n/a	KITE	11	8	[0, 0, 0]	n/a	FR1	1	R1313J
1083.92	1.628	1085970	WORD	n/a	wordpools/wordpool_EN.txt	PIE	12	8	[0, 0, 0]	n/a	FR1	1	R1313J
1085.548	0.0	1087598	WORD_OFF	n/a	n/a	PIE	12	8	[0, 0, 0]	n/a	FR1	1	R1313J
1085.548	0.0	1087598	ENCODING_END	n/a	n/a	n/a	-999	8	[0, 0, 0]	n/a	FR1	1	R1313J
1085.548	0.001	1087598	DISTRACT_START	n/a	n/a	n/a	-999	8	[0, 0, 0]	n/a	FR1	1	R1313J
1085.549	0.015	1087599	START	n/a	n/a	n/a	-999	8	[-999, -999, -999]	n/a	FR1	1	R1313J
1085.564	6.717	1087614	PROB	6.717	n/a	n/a	-999	8	[8, 5, 1]	14	FR1	1	R1313J
1092.281	4.001	1094331	PROB	4.001	n/a	n/a	-999	8	[2, 6, 3]	11	FR1	1	R1313J
1096.282	3.668	1098332	PROB	3.668	n/a	n/a	-999	8	[6, 4, 7]	17	FR1	1	R1313J
1099.95	4.134	1102000	PROB	4.134	n/a	n/a	-999	8	[2, 6, 5]	13	FR1	1	R1313J
1104.084	3.33	1106133	PROB	3.33	n/a	n/a	-999	8	[3, 2, 6]	11	FR1	1	R1313J
1107.414	0.021	1109463	STOP	n/a	n/a	n/a	-999	8	[-999, -999, -999]	n/a	FR1	1	R1313J
1107.435	0.545	1109484	DISTRACT_END	n/a	n/a	n/a	-999	8	[0, 0, 0]	n/a	FR1	1	R1313J
1107.98	1.655	1110029	RETRIEVAL_ORIENT_START	n/a	n/a	n/a	-999	8	[0, 0, 0]	n/a	FR1	1	R1313J
1109.635	0.001	1111684	RETRIEVAL_ORIENT_END	n/a	n/a	n/a	-999	8	[0, 0, 0]	n/a	FR1	1	R1313J
1109.636	1.379	1111685	REC_START	n/a	n/a	n/a	-999	8	[0, 0, 0]	n/a	FR1	1	R1313J
1111.015	1.666	1113064	REC_WORD	1.666	n/a	KITE	11	8	[0, 0, 0]	n/a	FR1	1	R1313J
1112.681	3.295	1114730	REC_WORD_VV	3.295	n/a	<>	-999	8	[0, 0, 0]	n/a	FR1	1	R1313J
1115.976	6.365	1118025	REC_WORD_VV	6.365	n/a	<>	-999	8	[0, 0, 0]	n/a	FR1	1	R1313J
1122.341	2.61	1124390	REC_WORD	2.61	n/a	TOOTH	9	8	[0, 0, 0]	n/a	FR1	1	R1313J
1124.951	14.695	1127000	REC_WORD_VV	14.695	n/a	<>	-999	8	[0, 0, 0]	n/a	FR1	1	R1313J
1139.646	0.001	1141694	REC_END	n/a	n/a	n/a	-999	8	[0, 0, 0]	n/a	FR1	1	R1313J
1139.647	0.014	1141695	TRIAL_END	n/a	n/a	n/a	-999	8	[0, 0, 0]	n/a	FR1	1	R1313J
1139.661	0.0	1141709	TRIAL	n/a	n/a	n/a	-999	9	[0, 0, 0]	n/a	FR1	1	R1313J
1139.661	0.0	1141709	WAITING_START	n/a	n/a	n/a	-999	9	[0, 0, 0]	n/a	FR1	1	R1313J
1139.661	2.595	1141709	TRIAL_START	n/a	n/a	n/a	-999	9	[0, 0, 0]	n/a	FR1	1	R1313J
1142.256	0.001	1144304	WAITING_END	n/a	n/a	n/a	-999	9	[0, 0, 0]	n/a	FR1	1	R1313J
1142.257	10.429	1144305	COUNTDOWN_START	n/a	n/a	n/a	-999	9	[0, 0, 0]	n/a	FR1	1	R1313J
1152.686	0.001	1154734	COUNTDOWN_END	n/a	n/a	n/a	-999	9	[0, 0, 0]	n/a	FR1	1	R1313J
1152.687	1.206	1154735	ORIENT_START	n/a	n/a	n/a	-999	9	[0, 0, 0]	n/a	FR1	1	R1313J
1153.893	0.0	1155940	ORIENT_END	n/a	n/a	n/a	-999	9	[0, 0, 0]	n/a	FR1	1	R1313J
1153.893	1.1	1155940	ENCODING_START	n/a	n/a	n/a	-999	9	[0, 0, 0]	n/a	FR1	1	R1313J
1154.993	1.633	1157040	WORD	n/a	wordpools/wordpool_EN.txt	SQUARE	1	9	[0, 0, 0]	n/a	FR1	1	R1313J
1156.626	0.927	1158673	WORD_OFF	n/a	n/a	SQUARE	1	9	[0, 0, 0]	n/a	FR1	1	R1313J
1157.553	1.623	1159600	WORD	n/a	wordpools/wordpool_EN.txt	ANT	2	9	[0, 0, 0]	n/a	FR1	1	R1313J
1159.176	1.081	1161223	WORD_OFF	n/a	n/a	ANT	2	9	[0, 0, 0]	n/a	FR1	1	R1313J
1160.257	1.637	1162304	WORD	n/a	wordpools/wordpool_EN.txt	THREAD	3	9	[0, 0, 0]	n/a	FR1	1	R1313J
1161.894	0.972	1163941	WORD_OFF	n/a	n/a	THREAD	3	9	[0, 0, 0]	n/a	FR1	1	R1313J
1162.866	1.628	1164913	WORD	n/a	wordpools/wordpool_EN.txt	WALL	4	9	[0, 0, 0]	n/a	FR1	1	R1313J
1164.494	0.783	1166541	WORD_OFF	n/a	n/a	WALL	4	9	[0, 0, 0]	n/a	FR1	1	R1313J
1165.277	1.634	1167324	WORD	n/a	wordpools/wordpool_EN.txt	NEST	5	9	[0, 0, 0]	n/a	FR1	1	R1313J
1166.911	0.826	1168958	WORD_OFF	n/a	n/a	NEST	5	9	[0, 0, 0]	n/a	FR1	1	R1313J
1167.737	1.624	1169784	WORD	n/a	wordpools/wordpool_EN.txt	WORM	6	9	[0, 0, 0]	n/a	FR1	1	R1313J
1169.361	0.996	1171408	WORD_OFF	n/a	n/a	WORM	6	9	[0, 0, 0]	n/a	FR1	1	R1313J
1170.357	1.622	1172404	WORD	n/a	wordpools/wordpool_EN.txt	SPARK	7	9	[0, 0, 0]	n/a	FR1	1	R1313J
1171.979	1.069	1174026	WORD_OFF	n/a	n/a	SPARK	7	9	[0, 0, 0]	n/a	FR1	1	R1313J
1173.048	1.631	1175095	WORD	n/a	wordpools/wordpool_EN.txt	LEAF	8	9	[0, 0, 0]	n/a	FR1	1	R1313J
1174.679	0.997	1176726	WORD_OFF	n/a	n/a	LEAF	8	9	[0, 0, 0]	n/a	FR1	1	R1313J
1175.676	1.619	1177723	WORD	n/a	wordpools/wordpool_EN.txt	FORT	9	9	[0, 0, 0]	n/a	FR1	1	R1313J
1177.295	0.761	1179342	WORD_OFF	n/a	n/a	FORT	9	9	[0, 0, 0]	n/a	FR1	1	R1313J
1178.056	1.624	1180102	WORD	n/a	wordpools/wordpool_EN.txt	STAIR	10	9	[0, 0, 0]	n/a	FR1	1	R1313J
1179.68	0.984	1181726	WORD_OFF	n/a	n/a	STAIR	10	9	[0, 0, 0]	n/a	FR1	1	R1313J
1180.664	1.632	1182710	WORD	n/a	wordpools/wordpool_EN.txt	BARN	11	9	[0, 0, 0]	n/a	FR1	1	R1313J
1182.296	1.072	1184342	WORD_OFF	n/a	n/a	BARN	11	9	[0, 0, 0]	n/a	FR1	1	R1313J
1183.368	1.613	1185414	WORD	n/a	wordpools/wordpool_EN.txt	SHIP	12	9	[0, 0, 0]	n/a	FR1	1	R1313J
1184.981	0.0	1187027	ENCODING_END	n/a	n/a	n/a	-999	9	[0, 0, 0]	n/a	FR1	1	R1313J
1184.981	0.001	1187027	WORD_OFF	n/a	n/a	SHIP	12	9	[0, 0, 0]	n/a	FR1	1	R1313J
1184.982	0.0	1187028	DISTRACT_START	n/a	n/a	n/a	-999	9	[0, 0, 0]	n/a	FR1	1	R1313J
1184.982	0.016	1187028	START	n/a	n/a	n/a	-999	9	[-999, -999, -999]	n/a	FR1	1	R1313J
1184.998	5.984	1187044	PROB	5.984	n/a	n/a	-999	9	[3, 7, 7]	17	FR1	1	R1313J
1190.982	5.718	1193028	PROB	5.718	n/a	n/a	-999	9	[5, 7, 7]	19	FR1	1	R1313J
1196.7	10.501	1198746	PROB	10.501	n/a	n/a	-999	9	[7, 6, 6]	19	FR1	1	R1313J
1207.201	0.016	1209246	STOP	n/a	n/a	n/a	-999	9	[-999, -999, -999]	n/a	FR1	1	R1313J
1207.217	0.524	1209262	DISTRACT_END	n/a	n/a	n/a	-999	9	[0, 0, 0]	n/a	FR1	1	R1313J
1207.741	1.577	1209786	RETRIEVAL_ORIENT_START	n/a	n/a	n/a	-999	9	[0, 0, 0]	n/a	FR1	1	R1313J
1209.318	0.0	1211363	RETRIEVAL_ORIENT_END	n/a	n/a	n/a	-999	9	[0, 0, 0]	n/a	FR1	1	R1313J
1209.318	1.255	1211363	REC_START	n/a	n/a	n/a	-999	9	[0, 0, 0]	n/a	FR1	1	R1313J
1210.573	4.97	1212618	REC_WORD_VV	4.97	n/a	<>	-999	9	[0, 0, 0]	n/a	FR1	1	R1313J
1215.543	1.305	1217588	REC_WORD	1.305	n/a	WORM	6	9	[0, 0, 0]	n/a	FR1	1	R1313J
1216.848	2.36	1218893	REC_WORD	2.36	n/a	NEST	5	9	[0, 0, 0]	n/a	FR1	1	R1313J
1219.208	10.03	1221253	REC_WORD	10.03	n/a	WALL	4	9	[0, 0, 0]	n/a	FR1	1	R1313J
1229.238	1.185	1231282	REC_WORD	1.185	n/a	ANT	2	9	[0, 0, 0]	n/a	FR1	1	R1313J
1230.423	8.907	1232467	REC_WORD	8.907	n/a	THREAD	3	9	[0, 0, 0]	n/a	FR1	1	R1313J
1239.33	0.0	1241374	REC_END	n/a	n/a	n/a	-999	9	[0, 0, 0]	n/a	FR1	1	R1313J
1239.33	0.014	1241374	TRIAL_END	n/a	n/a	n/a	-999	9	[0, 0, 0]	n/a	FR1	1	R1313J
1239.344	0.0	1241388	TRIAL_START	n/a	n/a	n/a	-999	10	[0, 0, 0]	n/a	FR1	1	R1313J
1239.344	0.0	1241388	TRIAL	n/a	n/a	n/a	-999	10	[0, 0, 0]	n/a	FR1	1	R1313J
1239.344	3.163	1241388	WAITING_START	n/a	n/a	n/a	-999	10	[0, 0, 0]	n/a	FR1	1	R1313J
1242.507	0.001	1244551	WAITING_END	n/a	n/a	n/a	-999	10	[0, 0, 0]	n/a	FR1	1	R1313J
1242.508	10.429	1244552	COUNTDOWN_START	n/a	n/a	n/a	-999	10	[0, 0, 0]	n/a	FR1	1	R1313J
1252.937	0.001	1254980	COUNTDOWN_END	n/a	n/a	n/a	-999	10	[0, 0, 0]	n/a	FR1	1	R1313J
1252.938	1.205	1254981	ORIENT_START	n/a	n/a	n/a	-999	10	[0, 0, 0]	n/a	FR1	1	R1313J
1254.143	0.0	1256186	ENCODING_START	n/a	n/a	n/a	-999	10	[0, 0, 0]	n/a	FR1	1	R1313J
1254.143	0.932	1256186	ORIENT_END	n/a	n/a	n/a	-999	10	[0, 0, 0]	n/a	FR1	1	R1313J
1255.075	1.635	1257118	WORD	n/a	wordpools/wordpool_EN.txt	FROG	1	10	[0, 0, 0]	n/a	FR1	1	R1313J
1256.71	0.779	1258753	WORD_OFF	n/a	n/a	FROG	1	10	[0, 0, 0]	n/a	FR1	1	R1313J
1257.489	1.638	1259532	WORD	n/a	wordpools/wordpool_EN.txt	ROOM	2	10	[0, 0, 0]	n/a	FR1	1	R1313J
1259.127	0.793	1261170	WORD_OFF	n/a	n/a	ROOM	2	10	[0, 0, 0]	n/a	FR1	1	R1313J
1259.92	1.624	1261963	WORD	n/a	wordpools/wordpool_EN.txt	DEER	3	10	[0, 0, 0]	n/a	FR1	1	R1313J
1261.544	0.838	1263587	WORD_OFF	n/a	n/a	DEER	3	10	[0, 0, 0]	n/a	FR1	1	R1313J
1262.382	1.612	1264425	WORD	n/a	wordpools/wordpool_EN.txt	MOON	4	10	[0, 0, 0]	n/a	FR1	1	R1313J
1263.994	0.935	1266037	WORD_OFF	n/a	n/a	MOON	4	10	[0, 0, 0]	n/a	FR1	1	R1313J
1264.929	1.633	1266972	WORD	n/a	wordpools/wordpool_EN.txt	JEEP	5	10	[0, 0, 0]	n/a	FR1	1	R1313J
1266.562	1.112	1268605	WORD_OFF	n/a	n/a	JEEP	5	10	[0, 0, 0]	n/a	FR1	1	R1313J
1267.674	1.637	1269717	WORD	n/a	wordpools/wordpool_EN.txt	CLOWN	6	10	[0, 0, 0]	n/a	FR1	1	R1313J
1269.311	1.12	1271354	WORD_OFF	n/a	n/a	CLOWN	6	10	[0, 0, 0]	n/a	FR1	1	R1313J
1270.431	1.632	1272474	WORD	n/a	wordpools/wordpool_EN.txt	STRING	7	10	[0, 0, 0]	n/a	FR1	1	R1313J
1272.063	0.895	1274106	WORD_OFF	n/a	n/a	STRING	7	10	[0, 0, 0]	n/a	FR1	1	R1313J
1272.958	1.638	1275001	WORD	n/a	wordpools/wordpool_EN.txt	GATE	8	10	[0, 0, 0]	n/a	FR1	1	R1313J
1274.596	0.829	1276639	WORD_OFF	n/a	n/a	GATE	8	10	[0, 0, 0]	n/a	FR1	1	R1313J
1275.425	1.638	1277468	WORD	n/a	wordpools/wordpool_EN.txt	STONE	9	10	[0, 0, 0]	n/a	FR1	1	R1313J
1277.063	0.87	1279105	WORD_OFF	n/a	n/a	STONE	9	10	[0, 0, 0]	n/a	FR1	1	R1313J
1277.933	1.631	1279975	WORD	n/a	wordpools/wordpool_EN.txt	CAVE	10	10	[0, 0, 0]	n/a	FR1	1	R1313J
1279.564	0.964	1281606	WORD_OFF	n/a	n/a	CAVE	10	10	[0, 0, 0]	n/a	FR1	1	R1313J
1280.528	1.635	1282570	WORD	n/a	wordpools/wordpool_EN.txt	HAWK	11	10	[0, 0, 0]	n/a	FR1	1	R1313J
1282.163	1.124	1284205	WORD_OFF	n/a	n/a	HAWK	11	10	[0, 0, 0]	n/a	FR1	1	R1313J
1283.287	1.628	1285329	WORD	n/a	wordpools/wordpool_EN.txt	FUDGE	12	10	[0, 0, 0]	n/a	FR1	1	R1313J
1284.915	0.0	1286957	WORD_OFF	n/a	n/a	FUDGE	12	10	[0, 0, 0]	n/a	FR1	1	R1313J
1284.915	0.0	1286957	ENCODING_END	n/a	n/a	n/a	-999	10	[0, 0, 0]	n/a	FR1	1	R1313J
1284.915	0.001	1286957	DISTRACT_START	n/a	n/a	n/a	-999	10	[0, 0, 0]	n/a	FR1	1	R1313J
1284.916	0.015	1286958	START	n/a	n/a	n/a	-999	10	[-999, -999, -999]	n/a	FR1	1	R1313J
1284.931	5.584	1286973	PROB	5.584	n/a	n/a	-999	10	[9, 2, 2]	13	FR1	1	R1313J
1290.515	3.883	1292557	PROB	3.883	n/a	n/a	-999	10	[2, 3, 8]	13	FR1	1	R1313J
1294.398	4.686	1296440	PROB	4.686	n/a	n/a	-999	10	[2, 9, 7]	18	FR1	1	R1313J
1299.084	3.249	1301126	PROB	3.249	n/a	n/a	-999	10	[2, 6, 4]	12	FR1	1	R1313J
1302.333	6.445	1304374	PROB	6.445	n/a	n/a	-999	10	[7, 1, 8]	16	FR1	1	R1313J
1308.778	0.007	1310819	STOP	n/a	n/a	n/a	-999	10	[-999, -999, -999]	n/a	FR1	1	R1313J
1308.785	0.693	1310826	DISTRACT_END	n/a	n/a	n/a	-999	10	[0, 0, 0]	n/a	FR1	1	R1313J
1309.478	1.724	1311519	RETRIEVAL_ORIENT_START	n/a	n/a	n/a	-999	10	[0, 0, 0]	n/a	FR1	1	R1313J
1311.202	0.0	1313243	RETRIEVAL_ORIENT_END	n/a	n/a	n/a	-999	10	[0, 0, 0]	n/a	FR1	1	R1313J
1311.202	5.234	1313243	REC_START	n/a	n/a	n/a	-999	10	[0, 0, 0]	n/a	FR1	1	R1313J
1316.436	12.025	1318477	REC_WORD	12.025	n/a	JEEP	5	10	[0, 0, 0]	n/a	FR1	1	R1313J
1328.461	12.754	1330501	REC_WORD_VV	12.754	n/a	<>	-999	10	[0, 0, 0]	n/a	FR1	1	R1313J
1341.215	0.0	1343255	REC_END	n/a	n/a	n/a	-999	10	[0, 0, 0]	n/a	FR1	1	R1313J
1341.215	0.015	1343255	TRIAL_END	n/a	n/a	n/a	-999	10	[0, 0, 0]	n/a	FR1	1	R1313J
1341.23	0.0	1343270	TRIAL_START	n/a	n/a	n/a	-999	11	[0, 0, 0]	n/a	FR1	1	R1313J
1341.23	0.0	1343270	TRIAL	n/a	n/a	n/a	-999	11	[0, 0, 0]	n/a	FR1	1	R1313J
1341.23	99.628	1343270	WAITING_START	n/a	n/a	n/a	-999	11	[0, 0, 0]	n/a	FR1	1	R1313J
1440.858	0.0	1442894	WAITING_END	n/a	n/a	n/a	-999	11	[0, 0, 0]	n/a	FR1	1	R1313J
1440.858	10.43	1442894	COUNTDOWN_START	n/a	n/a	n/a	-999	11	[0, 0, 0]	n/a	FR1	1	R1313J
1451.288	0.001	1453323	COUNTDOWN_END	n/a	n/a	n/a	-999	11	[0, 0, 0]	n/a	FR1	1	R1313J
1451.289	1.221	1453324	ORIENT_START	n/a	n/a	n/a	-999	11	[0, 0, 0]	n/a	FR1	1	R1313J
1452.51	0.0	1454545	ENCODING_START	n/a	n/a	n/a	-999	11	[0, 0, 0]	n/a	FR1	1	R1313J
1452.51	1.037	1454545	ORIENT_END	n/a	n/a	n/a	-999	11	[0, 0, 0]	n/a	FR1	1	R1313J
1453.547	1.629	1455582	WORD	n/a	wordpools/wordpool_EN.txt	MULE	1	11	[0, 0, 0]	n/a	FR1	1	R1313J
1455.176	1.007	1457211	WORD_OFF	n/a	n/a	MULE	1	11	[0, 0, 0]	n/a	FR1	1	R1313J
1456.183	1.611	1458218	WORD	n/a	wordpools/wordpool_EN.txt	HEART	2	11	[0, 0, 0]	n/a	FR1	1	R1313J
1457.794	0.825	1459829	WORD_OFF	n/a	n/a	HEART	2	11	[0, 0, 0]	n/a	FR1	1	R1313J
1458.619	1.624	1460654	WORD	n/a	wordpools/wordpool_EN.txt	BLUSH	3	11	[0, 0, 0]	n/a	FR1	1	R1313J
1460.243	1.094	1462278	WORD_OFF	n/a	n/a	BLUSH	3	11	[0, 0, 0]	n/a	FR1	1	R1313J
1461.337	1.608	1463372	WORD	n/a	wordpools/wordpool_EN.txt	WEB	4	11	[0, 0, 0]	n/a	FR1	1	R1313J
1462.945	0.853	1464980	WORD_OFF	n/a	n/a	WEB	4	11	[0, 0, 0]	n/a	FR1	1	R1313J
1463.798	1.631	1465833	WORD	n/a	wordpools/wordpool_EN.txt	STEAM	5	11	[0, 0, 0]	n/a	FR1	1	R1313J
1465.429	0.808	1467464	WORD_OFF	n/a	n/a	STEAM	5	11	[0, 0, 0]	n/a	FR1	1	R1313J
1466.237	1.625	1468272	WORD	n/a	wordpools/wordpool_EN.txt	STAR	6	11	[0, 0, 0]	n/a	FR1	1	R1313J
1467.862	1.054	1469897	WORD_OFF	n/a	n/a	STAR	6	11	[0, 0, 0]	n/a	FR1	1	R1313J
1468.916	1.63	1470951	WORD	n/a	wordpools/wordpool_EN.txt	BOMB	7	11	[0, 0, 0]	n/a	FR1	1	R1313J
1470.546	0.99	1472581	WORD_OFF	n/a	n/a	BOMB	7	11	[0, 0, 0]	n/a	FR1	1	R1313J
1471.536	1.626	1473571	WORD	n/a	wordpools/wordpool_EN.txt	WEED	8	11	[0, 0, 0]	n/a	FR1	1	R1313J
1473.162	0.968	1475196	WORD_OFF	n/a	n/a	WEED	8	11	[0, 0, 0]	n/a	FR1	1	R1313J
1474.13	1.634	1476164	WORD	n/a	wordpools/wordpool_EN.txt	GLOVE	9	11	[0, 0, 0]	n/a	FR1	1	R1313J
1475.764	1.132	1477798	WORD_OFF	n/a	n/a	GLOVE	9	11	[0, 0, 0]	n/a	FR1	1	R1313J
1476.896	1.635	1478930	WORD	n/a	wordpools/wordpool_EN.txt	HOOK	10	11	[0, 0, 0]	n/a	FR1	1	R1313J
1478.531	0.922	1480565	WORD_OFF	n/a	n/a	HOOK	10	11	[0, 0, 0]	n/a	FR1	1	R1313J
1479.453	1.628	1481487	WORD	n/a	wordpools/wordpool_EN.txt	FOAM	11	11	[0, 0, 0]	n/a	FR1	1	R1313J
1481.081	0.92	1483115	WORD_OFF	n/a	n/a	FOAM	11	11	[0, 0, 0]	n/a	FR1	1	R1313J
1482.001	1.631	1484035	WORD	n/a	wordpools/wordpool_EN.txt	EAR	12	11	[0, 0, 0]	n/a	FR1	1	R1313J
1483.632	0.0	1485666	WORD_OFF	n/a	n/a	EAR	12	11	[0, 0, 0]	n/a	FR1	1	R1313J
1483.632	0.0	1485666	ENCODING_END	n/a	n/a	n/a	-999	11	[0, 0, 0]	n/a	FR1	1	R1313J
1483.632	0.0	1485666	DISTRACT_START	n/a	n/a	n/a	-999	11	[0, 0, 0]	n/a	FR1	1	R1313J
1483.632	0.016	1485666	START	n/a	n/a	n/a	-999	11	[-999, -999, -999]	n/a	FR1	1	R1313J
1483.648	6.835	1485682	PROB	6.835	n/a	n/a	-999	11	[6, 5, 3]	14	FR1	1	R1313J
1490.483	3.167	1492517	PROB	3.167	n/a	n/a	-999	11	[9, 2, 1]	13	FR1	1	R1313J
1493.65	4.167	1495684	PROB	4.167	n/a	n/a	-999	11	[5, 1, 6]	12	FR1	1	R1313J
1497.817	5.4	1499850	PROB	5.4	n/a	n/a	-999	11	[3, 3, 2]	8	FR1	1	R1313J
1503.217	4.584	1505250	PROB	4.584	n/a	n/a	-999	11	[1, 6, 9]	16	FR1	1	R1313J
1507.801	0.018	1509834	STOP	n/a	n/a	n/a	-999	11	[-999, -999, -999]	n/a	FR1	1	R1313J
1507.819	0.568	1509852	DISTRACT_END	n/a	n/a	n/a	-999	11	[0, 0, 0]	n/a	FR1	1	R1313J
1508.387	1.632	1510420	RETRIEVAL_ORIENT_START	n/a	n/a	n/a	-999	11	[0, 0, 0]	n/a	FR1	1	R1313J
1510.019	0.001	1512052	RETRIEVAL_ORIENT_END	n/a	n/a	n/a	-999	11	[0, 0, 0]	n/a	FR1	1	R1313J
1510.02	0.504	1512053	REC_START	n/a	n/a	n/a	-999	11	[0, 0, 0]	n/a	FR1	1	R1313J
1510.524	3.02	1512557	REC_WORD_VV	3.02	n/a	<>	-999	11	[0, 0, 0]	n/a	FR1	1	R1313J
1513.544	26.488	1515577	REC_WORD_VV	26.488	n/a	<>	-999	11	[0, 0, 0]	n/a	FR1	1	R1313J
1540.032	0.001	1542064	REC_END	n/a	n/a	n/a	-999	11	[0, 0, 0]	n/a	FR1	1	R1313J
1540.033	0.015	1542065	TRIAL_END	n/a	n/a	n/a	-999	11	[0, 0, 0]	n/a	FR1	1	R1313J
1540.048	0.0	1542080	TRIAL_START	n/a	n/a	n/a	-999	12	[0, 0, 0]	n/a	FR1	1	R1313J
1540.048	0.0	1542080	TRIAL	n/a	n/a	n/a	-999	12	[0, 0, 0]	n/a	FR1	1	R1313J
1540.048	1.777	1542080	WAITING_START	n/a	n/a	n/a	-999	12	[0, 0, 0]	n/a	FR1	1	R1313J
1541.825	0.0	1543857	WAITING_END	n/a	n/a	n/a	-999	12	[0, 0, 0]	n/a	FR1	1	R1313J
1541.825	10.429	1543857	COUNTDOWN_START	n/a	n/a	n/a	-999	12	[0, 0, 0]	n/a	FR1	1	R1313J
1552.254	0.0	1554285	ORIENT_START	n/a	n/a	n/a	-999	12	[0, 0, 0]	n/a	FR1	1	R1313J
1552.254	1.138	1554285	COUNTDOWN_END	n/a	n/a	n/a	-999	12	[0, 0, 0]	n/a	FR1	1	R1313J
1553.392	0.001	1555423	ORIENT_END	n/a	n/a	n/a	-999	12	[0, 0, 0]	n/a	FR1	1	R1313J
1553.393	0.836	1555424	ENCODING_START	n/a	n/a	n/a	-999	12	[0, 0, 0]	n/a	FR1	1	R1313J
1554.229	1.632	1556260	WORD	n/a	wordpools/wordpool_EN.txt	COUCH	1	12	[0, 0, 0]	n/a	FR1	1	R1313J
1555.861	0.97	1557892	WORD_OFF	n/a	n/a	COUCH	1	12	[0, 0, 0]	n/a	FR1	1	R1313J
1556.831	1.63	1558862	WORD	n/a	wordpools/wordpool_EN.txt	STOOL	2	12	[0, 0, 0]	n/a	FR1	1	R1313J
1558.461	0.772	1560492	WORD_OFF	n/a	n/a	STOOL	2	12	[0, 0, 0]	n/a	FR1	1	R1313J
1559.233	1.628	1561264	WORD	n/a	wordpools/wordpool_EN.txt	CHALK	3	12	[0, 0, 0]	n/a	FR1	1	R1313J
1560.861	0.951	1562892	WORD_OFF	n/a	n/a	CHALK	3	12	[0, 0, 0]	n/a	FR1	1	R1313J
1561.812	1.633	1563843	WORD	n/a	wordpools/wordpool_EN.txt	OAK	4	12	[0, 0, 0]	n/a	FR1	1	R1313J
1563.445	0.983	1565476	WORD_OFF	n/a	n/a	OAK	4	12	[0, 0, 0]	n/a	FR1	1	R1313J
1564.428	1.634	1566459	WORD	n/a	wordpools/wordpool_EN.txt	ROPE	5	12	[0, 0, 0]	n/a	FR1	1	R1313J
1566.062	0.853	1568093	WORD_OFF	n/a	n/a	ROPE	5	12	[0, 0, 0]	n/a	FR1	1	R1313J
1566.915	1.631	1568946	WORD	n/a	wordpools/wordpool_EN.txt	SIGN	6	12	[0, 0, 0]	n/a	FR1	1	R1313J
1568.546	1.041	1570577	WORD_OFF	n/a	n/a	SIGN	6	12	[0, 0, 0]	n/a	FR1	1	R1313J
1569.587	1.625	1571618	WORD	n/a	wordpools/wordpool_EN.txt	MOLE	7	12	[0, 0, 0]	n/a	FR1	1	R1313J
1571.212	0.919	1573242	WORD_OFF	n/a	n/a	MOLE	7	12	[0, 0, 0]	n/a	FR1	1	R1313J
1572.131	1.633	1574161	WORD	n/a	wordpools/wordpool_EN.txt	SEA	8	12	[0, 0, 0]	n/a	FR1	1	R1313J
1573.764	0.961	1575794	WORD_OFF	n/a	n/a	SEA	8	12	[0, 0, 0]	n/a	FR1	1	R1313J
1574.725	1.621	1576755	WORD	n/a	wordpools/wordpool_EN.txt	SLEEVE	9	12	[0, 0, 0]	n/a	FR1	1	R1313J
1576.346	1.034	1578376	WORD_OFF	n/a	n/a	SLEEVE	9	12	[0, 0, 0]	n/a	FR1	1	R1313J
1577.38	1.618	1579410	WORD	n/a	wordpools/wordpool_EN.txt	SHOE	10	12	[0, 0, 0]	n/a	FR1	1	R1313J
1578.998	0.841	1581028	WORD_OFF	n/a	n/a	SHOE	10	12	[0, 0, 0]	n/a	FR1	1	R1313J
1579.839	1.626	1581869	WORD	n/a	wordpools/wordpool_EN.txt	BREAD	11	12	[0, 0, 0]	n/a	FR1	1	R1313J
1581.465	0.955	1583495	WORD_OFF	n/a	n/a	BREAD	11	12	[0, 0, 0]	n/a	FR1	1	R1313J
1582.42	1.629	1584450	WORD	n/a	wordpools/wordpool_EN.txt	TOAD	12	12	[0, 0, 0]	n/a	FR1	1	R1313J
1584.049	0.0	1586079	WORD_OFF	n/a	n/a	TOAD	12	12	[0, 0, 0]	n/a	FR1	1	R1313J
1584.049	0.0	1586079	ENCODING_END	n/a	n/a	n/a	-999	12	[0, 0, 0]	n/a	FR1	1	R1313J
1584.049	0.001	1586079	DISTRACT_START	n/a	n/a	n/a	-999	12	[0, 0, 0]	n/a	FR1	1	R1313J
1584.05	0.015	1586080	START	n/a	n/a	n/a	-999	12	[-999, -999, -999]	n/a	FR1	1	R1313J
1584.065	8.018	1586095	PROB	8.018	n/a	n/a	-999	12	[6, 3, 5]	14	FR1	1	R1313J
1592.083	6.1	1594113	PROB	6.1	n/a	n/a	-999	12	[2, 5, 6]	13	FR1	1	R1313J
1598.183	10.961	1600212	PROB	10.961	n/a	n/a	-999	12	[3, 5, 7]	15	FR1	1	R1313J
1609.144	0.009	1611173	STOP	n/a	n/a	n/a	-999	12	[-999, -999, -999]	n/a	FR1	1	R1313J
1609.153	0.533	1611182	DISTRACT_END	n/a	n/a	n/a	-999	12	[0, 0, 0]	n/a	FR1	1	R1313J
1609.686	1.633	1611715	RETRIEVAL_ORIENT_START	n/a	n/a	n/a	-999	12	[0, 0, 0]	n/a	FR1	1	R1313J
1611.319	0.0	1613348	RETRIEVAL_ORIENT_END	n/a	n/a	n/a	-999	12	[0, 0, 0]	n/a	FR1	1	R1313J
1611.319	5.93	1613348	REC_START	n/a	n/a	n/a	-999	12	[0, 0, 0]	n/a	FR1	1	R1313J
1617.249	1.105	1619278	REC_WORD_VV	1.105	n/a	<>	-999	12	[0, 0, 0]	n/a	FR1	1	R1313J
1618.354	1.0	1620383	REC_WORD_VV	1.0	n/a	<>	-999	12	[0, 0, 0]	n/a	FR1	1	R1313J
1619.354	21.976	1621383	REC_WORD_VV	21.976	n/a	<>	-999	12	[0, 0, 0]	n/a	FR1	1	R1313J
1641.33	0.0	1643358	REC_END	n/a	n/a	n/a	-999	12	[0, 0, 0]	n/a	FR1	1	R1313J
1641.33	0.016	1643358	TRIAL_END	n/a	n/a	n/a	-999	12	[0, 0, 0]	n/a	FR1	1	R1313J
1641.346	0.0	1643374	TRIAL	n/a	n/a	n/a	-999	13	[0, 0, 0]	n/a	FR1	1	R1313J
1641.346	0.0	1643374	WAITING_START	n/a	n/a	n/a	-999	13	[0, 0, 0]	n/a	FR1	1	R1313J
1641.346	2.729	1643374	TRIAL_START	n/a	n/a	n/a	-999	13	[0, 0, 0]	n/a	FR1	1	R1313J
1644.075	0.001	1646103	WAITING_END	n/a	n/a	n/a	-999	13	[0, 0, 0]	n/a	FR1	1	R1313J
1644.076	10.429	1646104	COUNTDOWN_START	n/a	n/a	n/a	-999	13	[0, 0, 0]	n/a	FR1	1	R1313J
1654.505	0.0	1656532	COUNTDOWN_END	n/a	n/a	n/a	-999	13	[0, 0, 0]	n/a	FR1	1	R1313J
1654.505	1.122	1656532	ORIENT_START	n/a	n/a	n/a	-999	13	[0, 0, 0]	n/a	FR1	1	R1313J
1655.627	0.001	1657654	ORIENT_END	n/a	n/a	n/a	-999	13	[0, 0, 0]	n/a	FR1	1	R1313J
1655.628	0.983	1657655	ENCODING_START	n/a	n/a	n/a	-999	13	[0, 0, 0]	n/a	FR1	1	R1313J
1656.611	1.632	1658638	WORD	n/a	wordpools/wordpool_EN.txt	INK	1	13	[0, 0, 0]	n/a	FR1	1	R1313J
1658.243	1.049	1660270	WORD_OFF	n/a	n/a	INK	1	13	[0, 0, 0]	n/a	FR1	1	R1313J
1659.292	1.62	1661319	WORD	n/a	wordpools/wordpool_EN.txt	MOUTH	2	13	[0, 0, 0]	n/a	FR1	1	R1313J
1660.912	0.954	1662939	WORD_OFF	n/a	n/a	MOUTH	2	13	[0, 0, 0]	n/a	FR1	1	R1313J
1661.866	1.629	1663893	WORD	n/a	wordpools/wordpool_EN.txt	MAP	3	13	[0, 0, 0]	n/a	FR1	1	R1313J
1663.495	0.971	1665522	WORD_OFF	n/a	n/a	MAP	3	13	[0, 0, 0]	n/a	FR1	1	R1313J
1664.466	1.63	1666493	WORD	n/a	wordpools/wordpool_EN.txt	HORSE	4	13	[0, 0, 0]	n/a	FR1	1	R1313J
1666.096	0.95	1668123	WORD_OFF	n/a	n/a	HORSE	4	13	[0, 0, 0]	n/a	FR1	1	R1313J
1667.046	1.633	1669073	WORD	n/a	wordpools/wordpool_EN.txt	DRUM	5	13	[0, 0, 0]	n/a	FR1	1	R1313J
1668.679	0.842	1670706	WORD_OFF	n/a	n/a	DRUM	5	13	[0, 0, 0]	n/a	FR1	1	R1313J
1669.521	1.626	1671547	WORD	n/a	wordpools/wordpool_EN.txt	PASTE	6	13	[0, 0, 0]	n/a	FR1	1	R1313J
1671.147	0.95	1673173	WORD_OFF	n/a	n/a	PASTE	6	13	[0, 0, 0]	n/a	FR1	1	R1313J
1672.097	1.633	1674123	WORD	n/a	wordpools/wordpool_EN.txt	EGG	7	13	[0, 0, 0]	n/a	FR1	1	R1313J
1673.73	0.923	1675756	WORD_OFF	n/a	n/a	EGG	7	13	[0, 0, 0]	n/a	FR1	1	R1313J
1674.653	1.627	1676679	WORD	n/a	wordpools/wordpool_EN.txt	CONE	8	13	[0, 0, 0]	n/a	FR1	1	R1313J
1676.28	0.872	1678306	WORD_OFF	n/a	n/a	CONE	8	13	[0, 0, 0]	n/a	FR1	1	R1313J
1677.152	1.629	1679178	WORD	n/a	wordpools/wordpool_EN.txt	SHIELD	9	13	[0, 0, 0]	n/a	FR1	1	R1313J
1678.781	0.79	1680807	WORD_OFF	n/a	n/a	SHIELD	9	13	[0, 0, 0]	n/a	FR1	1	R1313J
1679.571	1.626	1681597	WORD	n/a	wordpools/wordpool_EN.txt	CLAY	10	13	[0, 0, 0]	n/a	FR1	1	R1313J
1681.197	1.115	1683223	WORD_OFF	n/a	n/a	CLAY	10	13	[0, 0, 0]	n/a	FR1	1	R1313J
1682.312	1.637	1684338	WORD	n/a	wordpools/wordpool_EN.txt	FAN	11	13	[0, 0, 0]	n/a	FR1	1	R1313J
1683.949	0.855	1685975	WORD_OFF	n/a	n/a	FAN	11	13	[0, 0, 0]	n/a	FR1	1	R1313J
1684.804	1.629	1686830	WORD	n/a	wordpools/wordpool_EN.txt	DART	12	13	[0, 0, 0]	n/a	FR1	1	R1313J
1686.433	0.0	1688459	WORD_OFF	n/a	n/a	DART	12	13	[0, 0, 0]	n/a	FR1	1	R1313J
1686.433	0.0	1688459	ENCODING_END	n/a	n/a	n/a	-999	13	[0, 0, 0]	n/a	FR1	1	R1313J
1686.433	0.001	1688459	DISTRACT_START	n/a	n/a	n/a	-999	13	[0, 0, 0]	n/a	FR1	1	R1313J
1686.434	0.015	1688460	START	n/a	n/a	n/a	-999	13	[-999, -999, -999]	n/a	FR1	1	R1313J
1686.449	4.817	1688475	PROB	4.817	n/a	n/a	-999	13	[6, 3, 2]	11	FR1	1	R1313J
1691.266	4.251	1693292	PROB	4.251	n/a	n/a	-999	13	[5, 4, 8]	17	FR1	1	R1313J
1695.517	5.201	1697542	PROB	5.201	n/a	n/a	-999	13	[2, 7, 6]	15	FR1	1	R1313J
1700.718	4.284	1702743	PROB	4.284	n/a	n/a	-999	13	[9, 2, 1]	12	FR1	1	R1313J
1705.002	5.6	1707027	PROB	5.6	n/a	n/a	-999	13	[4, 6, 3]	13	FR1	1	R1313J
1710.602	0.018	1712627	STOP	n/a	n/a	n/a	-999	13	[-999, -999, -999]	n/a	FR1	1	R1313J
1710.62	0.507	1712645	DISTRACT_END	n/a	n/a	n/a	-999	13	[0, 0, 0]	n/a	FR1	1	R1313J
1711.127	1.61	1713152	RETRIEVAL_ORIENT_START	n/a	n/a	n/a	-999	13	[0, 0, 0]	n/a	FR1	1	R1313J
1712.737	0.001	1714762	RETRIEVAL_ORIENT_END	n/a	n/a	n/a	-999	13	[0, 0, 0]	n/a	FR1	1	R1313J
1712.738	1.774	1714763	REC_START	n/a	n/a	n/a	-999	13	[0, 0, 0]	n/a	FR1	1	R1313J
1714.512	5.595	1716537	REC_WORD	5.595	n/a	DART	12	13	[0, 0, 0]	n/a	FR1	1	R1313J
1720.107	22.643	1722131	REC_WORD_VV	22.643	n/a	<>	-999	13	[0, 0, 0]	n/a	FR1	1	R1313J
1742.75	0.0	1744774	REC_END	n/a	n/a	n/a	-999	13	[0, 0, 0]	n/a	FR1	1	R1313J
1742.75	0.013	1744774	TRIAL_END	n/a	n/a	n/a	-999	13	[0, 0, 0]	n/a	FR1	1	R1313J
1742.763	0.0	1744787	TRIAL_START	n/a	n/a	n/a	-999	14	[0, 0, 0]	n/a	FR1	1	R1313J
1742.763	0.001	1744787	TRIAL	n/a	n/a	n/a	-999	14	[0, 0, 0]	n/a	FR1	1	R1313J
1742.764	2.678	1744788	WAITING_START	n/a	n/a	n/a	-999	14	[0, 0, 0]	n/a	FR1	1	R1313J
1745.442	0.001	1747465	WAITING_END	n/a	n/a	n/a	-999	14	[0, 0, 0]	n/a	FR1	1	R1313J
1745.443	10.428	1747466	COUNTDOWN_START	n/a	n/a	n/a	-999	14	[0, 0, 0]	n/a	FR1	1	R1313J
1755.871	0.0	1757894	COUNTDOWN_END	n/a	n/a	n/a	-999	14	[0, 0, 0]	n/a	FR1	1	R1313J
1755.871	1.124	1757894	ORIENT_START	n/a	n/a	n/a	-999	14	[0, 0, 0]	n/a	FR1	1	R1313J
1756.995	0.0	1759018	ORIENT_END	n/a	n/a	n/a	-999	14	[0, 0, 0]	n/a	FR1	1	R1313J
1756.995	0.957	1759018	ENCODING_START	n/a	n/a	n/a	-999	14	[0, 0, 0]	n/a	FR1	1	R1313J
1757.952	1.626	1759975	WORD	n/a	wordpools/wordpool_EN.txt	BOARD	1	14	[0, 0, 0]	n/a	FR1	1	R1313J
1759.578	0.933	1761601	WORD_OFF	n/a	n/a	BOARD	1	14	[0, 0, 0]	n/a	FR1	1	R1313J
1760.511	1.634	1762534	WORD	n/a	wordpools/wordpool_EN.txt	DIME	2	14	[0, 0, 0]	n/a	FR1	1	R1313J
1762.145	0.957	1764168	WORD_OFF	n/a	n/a	DIME	2	14	[0, 0, 0]	n/a	FR1	1	R1313J
1763.102	1.627	1765125	WORD	n/a	wordpools/wordpool_EN.txt	CROW	3	14	[0, 0, 0]	n/a	FR1	1	R1313J
1764.729	0.852	1766752	WORD_OFF	n/a	n/a	CROW	3	14	[0, 0, 0]	n/a	FR1	1	R1313J
1765.581	1.631	1767604	WORD	n/a	wordpools/wordpool_EN.txt	SHEEP	4	14	[0, 0, 0]	n/a	FR1	1	R1313J
1767.212	1.13	1769235	WORD_OFF	n/a	n/a	SHEEP	4	14	[0, 0, 0]	n/a	FR1	1	R1313J
1768.342	1.638	1770364	WORD	n/a	wordpools/wordpool_EN.txt	CALF	5	14	[0, 0, 0]	n/a	FR1	1	R1313J
1769.98	0.999	1772002	WORD_OFF	n/a	n/a	CALF	5	14	[0, 0, 0]	n/a	FR1	1	R1313J
1770.979	1.635	1773001	WORD	n/a	wordpools/wordpool_EN.txt	CORN	6	14	[0, 0, 0]	n/a	FR1	1	R1313J
1772.614	0.786	1774636	WORD_OFF	n/a	n/a	CORN	6	14	[0, 0, 0]	n/a	FR1	1	R1313J
1773.4	1.631	1775422	WORD	n/a	wordpools/wordpool_EN.txt	RICE	7	14	[0, 0, 0]	n/a	FR1	1	R1313J
1775.031	1.054	1777053	WORD_OFF	n/a	n/a	RICE	7	14	[0, 0, 0]	n/a	FR1	1	R1313J
1776.085	1.63	1778107	WORD	n/a	wordpools/wordpool_EN.txt	DUCK	8	14	[0, 0, 0]	n/a	FR1	1	R1313J
1777.715	0.962	1779737	WORD_OFF	n/a	n/a	DUCK	8	14	[0, 0, 0]	n/a	FR1	1	R1313J
1778.677	1.637	1780699	WORD	n/a	wordpools/wordpool_EN.txt	TOOL	9	14	[0, 0, 0]	n/a	FR1	1	R1313J
1780.314	0.944	1782336	WORD_OFF	n/a	n/a	TOOL	9	14	[0, 0, 0]	n/a	FR1	1	R1313J
1781.258	1.607	1783280	WORD	n/a	wordpools/wordpool_EN.txt	DOLL	10	14	[0, 0, 0]	n/a	FR1	1	R1313J
1782.865	0.762	1784887	WORD_OFF	n/a	n/a	DOLL	10	14	[0, 0, 0]	n/a	FR1	1	R1313J
1783.627	1.621	1785649	WORD	n/a	wordpools/wordpool_EN.txt	APE	11	14	[0, 0, 0]	n/a	FR1	1	R1313J
1785.248	1.009	1787270	WORD_OFF	n/a	n/a	APE	11	14	[0, 0, 0]	n/a	FR1	1	R1313J
1786.257	1.626	1788279	WORD	n/a	wordpools/wordpool_EN.txt	LAMP	12	14	[0, 0, 0]	n/a	FR1	1	R1313J
1787.883	0.0	1789905	WORD_OFF	n/a	n/a	LAMP	12	14	[0, 0, 0]	n/a	FR1	1	R1313J
1787.883	0.001	1789905	ENCODING_END	n/a	n/a	n/a	-999	14	[0, 0, 0]	n/a	FR1	1	R1313J
1787.884	0.0	1789906	DISTRACT_START	n/a	n/a	n/a	-999	14	[0, 0, 0]	n/a	FR1	1	R1313J
1787.884	0.016	1789906	START	n/a	n/a	n/a	-999	14	[-999, -999, -999]	n/a	FR1	1	R1313J
1787.9	6.2	1789922	PROB	6.2	n/a	n/a	-999	14	[7, 2, 3]	12	FR1	1	R1313J
1794.1	3.083	1796121	PROB	3.083	n/a	n/a	-999	14	[1, 1, 4]	6	FR1	1	R1313J
1797.183	5.636	1799204	PROB	5.636	n/a	n/a	-999	14	[1, 7, 9]	17	FR1	1	R1313J
1802.819	3.217	1804840	PROB	3.217	n/a	n/a	-999	14	[1, 7, 1]	9	FR1	1	R1313J
1806.036	5.14	1808057	PROB	5.14	n/a	n/a	-999	14	[9, 4, 4]	17	FR1	1	R1313J
1811.176	0.01	1813197	STOP	n/a	n/a	n/a	-999	14	[-999, -999, -999]	n/a	FR1	1	R1313J
1811.186	0.544	1813207	DISTRACT_END	n/a	n/a	n/a	-999	14	[0, 0, 0]	n/a	FR1	1	R1313J
1811.73	1.606	1813751	RETRIEVAL_ORIENT_START	n/a	n/a	n/a	-999	14	[0, 0, 0]	n/a	FR1	1	R1313J
1813.336	0.001	1815357	RETRIEVAL_ORIENT_END	n/a	n/a	n/a	-999	14	[0, 0, 0]	n/a	FR1	1	R1313J
1813.337	0.94	1815358	REC_START	n/a	n/a	n/a	-999	14	[0, 0, 0]	n/a	FR1	1	R1313J
1814.277	29.071	1816298	REC_WORD	29.071	n/a	DOLL	10	14	[0, 0, 0]	n/a	FR1	1	R1313J
1843.348	0.001	1845367	REC_END	n/a	n/a	n/a	-999	14	[0, 0, 0]	n/a	FR1	1	R1313J
1843.349	0.015	1845368	TRIAL_END	n/a	n/a	n/a	-999	14	[0, 0, 0]	n/a	FR1	1	R1313J
1843.364	0.0	1845383	TRIAL_START	n/a	n/a	n/a	-999	15	[0, 0, 0]	n/a	FR1	1	R1313J
1843.364	0.0	1845383	TRIAL	n/a	n/a	n/a	-999	15	[0, 0, 0]	n/a	FR1	1	R1313J
1843.364	0.0	1845383	WAITING_START	n/a	n/a	n/a	-999	15	[0, 0, 0]	n/a	FR1	1	R1313J
