onset	duration	sample	trial_type	response_time	stim_file	item_name	serialpos	list	test	answer	experiment	session	subject
0.0	510.077	818	INSTRUCT_START	n/a	n/a	n/a	-999	-999	[0, 0, 0]	n/a	FR1	0	R1308T
510.077	3.351	510855	INSTRUCT_END	n/a	n/a	n/a	-999	-999	[0, 0, 0]	n/a	FR1	0	R1308T
513.428	8.002	514206	MIC TEST_START	n/a	n/a	n/a	-999	-999	[0, 0, 0]	n/a	FR1	0	R1308T
521.43	0.01	522207	MIC TEST_END	n/a	n/a	n/a	-999	-999	[0, 0, 0]	n/a	FR1	0	R1308T
521.44	0.0	522217	TRIAL_START	n/a	n/a	n/a	-999	-1	[0, 0, 0]	n/a	FR1	0	R1308T
521.44	0.0	522217	TRIAL	n/a	n/a	n/a	-999	-1	[0, 0, 0]	n/a	FR1	0	R1308T
521.44	46.031	522217	WAITING_START	n/a	n/a	n/a	-999	-1	[0, 0, 0]	n/a	FR1	0	R1308T
567.471	0.0	568244	WAITING_END	n/a	n/a	n/a	-999	-1	[0, 0, 0]	n/a	FR1	0	R1308T
567.471	10.428	568244	COUNTDOWN_START	n/a	n/a	n/a	-999	-1	[0, 0, 0]	n/a	FR1	0	R1308T
577.899	0.001	578672	COUNTDOWN_END	n/a	n/a	n/a	-999	-1	[0, 0, 0]	n/a	FR1	0	R1308T
577.9	1.139	578673	ORIENT_START	n/a	n/a	n/a	-999	-1	[0, 0, 0]	n/a	FR1	0	R1308T
579.039	0.001	579812	ORIENT_END	n/a	n/a	n/a	-999	-1	[0, 0, 0]	n/a	FR1	0	R1308T
579.04	1.101	579813	ENCODING_START	n/a	n/a	n/a	-999	-1	[0, 0, 0]	n/a	FR1	0	R1308T
580.141	1.632	580913	WORD	n/a	n/a	WAGON	1	-1	[0, 0, 0]	n/a	FR1	0	R1308T
581.773	1.085	582545	WORD_OFF	n/a	n/a	WAGON	1	-1	[0, 0, 0]	n/a	FR1	0	R1308T
582.858	1.632	583630	WORD	n/a	n/a	RING	2	-1	[0, 0, 0]	n/a	FR1	0	R1308T
584.49	0.994	585262	WORD_OFF	n/a	n/a	RING	2	-1	[0, 0, 0]	n/a	FR1	0	R1308T
585.484	1.624	586256	WORD	n/a	n/a	CAMEL	3	-1	[0, 0, 0]	n/a	FR1	0	R1308T
587.108	0.863	587880	WORD_OFF	n/a	n/a	CAMEL	3	-1	[0, 0, 0]	n/a	FR1	0	R1308T
587.971	1.637	588743	WORD	n/a	n/a	TONGUE	4	-1	[0, 0, 0]	n/a	FR1	0	R1308T
589.608	0.803	590380	WORD_OFF	n/a	n/a	TONGUE	4	-1	[0, 0, 0]	n/a	FR1	0	R1308T
590.411	1.63	591183	WORD	n/a	n/a	BABY	5	-1	[0, 0, 0]	n/a	FR1	0	R1308T
592.041	0.818	592813	WORD_OFF	n/a	n/a	BABY	5	-1	[0, 0, 0]	n/a	FR1	0	R1308T
592.859	1.633	593630	WORD	n/a	n/a	BEAM	6	-1	[0, 0, 0]	n/a	FR1	0	R1308T
594.492	1.019	595263	WORD_OFF	n/a	n/a	BEAM	6	-1	[0, 0, 0]	n/a	FR1	0	R1308T
595.511	1.633	596282	WORD	n/a	n/a	FLOOD	7	-1	[0, 0, 0]	n/a	FR1	0	R1308T
597.144	0.864	597915	WORD_OFF	n/a	n/a	FLOOD	7	-1	[0, 0, 0]	n/a	FR1	0	R1308T
598.008	1.635	598779	WORD	n/a	n/a	RHINO	8	-1	[0, 0, 0]	n/a	FR1	0	R1308T
599.643	1.106	600414	WORD_OFF	n/a	n/a	RHINO	8	-1	[0, 0, 0]	n/a	FR1	0	R1308T
600.749	1.628	601520	WORD	n/a	n/a	COTTON	9	-1	[0, 0, 0]	n/a	FR1	0	R1308T
602.377	1.12	603148	WORD_OFF	n/a	n/a	COTTON	9	-1	[0, 0, 0]	n/a	FR1	0	R1308T
603.497	1.631	604268	WORD	n/a	n/a	IMAGE	10	-1	[0, 0, 0]	n/a	FR1	0	R1308T
605.128	0.944	605899	WORD_OFF	n/a	n/a	IMAGE	10	-1	[0, 0, 0]	n/a	FR1	0	R1308T
606.072	1.622	606842	WORD	n/a	n/a	WATCH	11	-1	[0, 0, 0]	n/a	FR1	0	R1308T
607.694	1.135	608464	WORD_OFF	n/a	n/a	WATCH	11	-1	[0, 0, 0]	n/a	FR1	0	R1308T
608.829	1.633	609599	WORD	n/a	n/a	CHEST	12	-1	[0, 0, 0]	n/a	FR1	0	R1308T
610.462	0.0	611232	DISTRACT_START	n/a	n/a	n/a	-999	-1	[0, 0, 0]	n/a	FR1	0	R1308T
610.462	0.0	611232	WORD_OFF	n/a	n/a	CHEST	12	-1	[0, 0, 0]	n/a	FR1	0	R1308T
610.462	0.001	611232	ENCODING_END	n/a	n/a	n/a	-999	-1	[0, 0, 0]	n/a	FR1	0	R1308T
610.463	0.015	611233	START	n/a	n/a	n/a	-999	-1	[-999, -999, -999]	n/a	FR1	0	R1308T
610.478	24.957	611248	PROB	24.957	n/a	n/a	-999	-1	[8, 3, 4]	15	FR1	0	R1308T
635.435	0.014	636203	STOP	n/a	n/a	n/a	-999	-1	[-999, -999, -999]	n/a	FR1	0	R1308T
635.449	0.516	636217	DISTRACT_END	n/a	n/a	n/a	-999	-1	[0, 0, 0]	n/a	FR1	0	R1308T
635.965	1.601	636733	RETRIEVAL_ORIENT_START	n/a	n/a	n/a	-999	-1	[0, 0, 0]	n/a	FR1	0	R1308T
637.566	0.001	638334	RETRIEVAL_ORIENT_END	n/a	n/a	n/a	-999	-1	[0, 0, 0]	n/a	FR1	0	R1308T
637.567	29.988	638335	REC_START	n/a	n/a	n/a	-999	-1	[0, 0, 0]	n/a	FR1	0	R1308T
667.555	0.024	668321	REC_WORD_VV	0.024	n/a	<>	-999	-1	[0, 0, 0]	n/a	FR1	0	R1308T
667.579	0.001	668345	REC_END	n/a	n/a	n/a	-999	-1	[0, 0, 0]	n/a	FR1	0	R1308T
667.58	337.008	-1	PRACTICE_POST_INSTRUCT_START	n/a	n/a	n/a	-999	-1	[0, 0, 0]	n/a	FR1	0	R1308T
1004.588	15.299	242	INSTRUCT_START	n/a	n/a	n/a	-999	-1	[0, 0, 0]	n/a	FR1	0	R1308T
1019.887	1.967	15540	INSTRUCT_END	n/a	n/a	n/a	-999	-1	[0, 0, 0]	n/a	FR1	0	R1308T
1021.854	6.899	17507	MIC TEST_START	n/a	n/a	n/a	-999	-1	[0, 0, 0]	n/a	FR1	0	R1308T
1028.753	0.01	24406	MIC TEST_END	n/a	n/a	n/a	-999	-1	[0, 0, 0]	n/a	FR1	0	R1308T
1028.763	0.0	24416	TRIAL_START	n/a	n/a	n/a	-999	-1	[0, 0, 0]	n/a	FR1	0	R1308T
1028.763	0.001	24416	TRIAL	n/a	n/a	n/a	-999	-1	[0, 0, 0]	n/a	FR1	0	R1308T
1028.764	1.24	24417	WAITING_START	n/a	n/a	n/a	-999	-1	[0, 0, 0]	n/a	FR1	0	R1308T
1030.004	0.001	25657	WAITING_END	n/a	n/a	n/a	-999	-1	[0, 0, 0]	n/a	FR1	0	R1308T
1030.005	10.429	25658	COUNTDOWN_START	n/a	n/a	n/a	-999	-1	[0, 0, 0]	n/a	FR1	0	R1308T
1040.434	0.0	36086	COUNTDOWN_END	n/a	n/a	n/a	-999	-1	[0, 0, 0]	n/a	FR1	0	R1308T
1040.434	1.256	36086	ORIENT_START	n/a	n/a	n/a	-999	-1	[0, 0, 0]	n/a	FR1	0	R1308T
1041.69	0.001	37342	ORIENT_END	n/a	n/a	n/a	-999	-1	[0, 0, 0]	n/a	FR1	0	R1308T
1041.691	0.842	37343	ENCODING_START	n/a	n/a	n/a	-999	-1	[0, 0, 0]	n/a	FR1	0	R1308T
1042.533	1.624	38185	WORD	n/a	n/a	WAGON	1	-1	[0, 0, 0]	n/a	FR1	0	R1308T
1044.157	0.831	39809	WORD_OFF	n/a	n/a	WAGON	1	-1	[0, 0, 0]	n/a	FR1	0	R1308T
1044.988	1.62	40640	WORD	n/a	n/a	RING	2	-1	[0, 0, 0]	n/a	FR1	0	R1308T
1046.608	0.892	42260	WORD_OFF	n/a	n/a	RING	2	-1	[0, 0, 0]	n/a	FR1	0	R1308T
1047.5	1.625	43152	WORD	n/a	n/a	CAMEL	3	-1	[0, 0, 0]	n/a	FR1	0	R1308T
1049.125	0.924	44777	WORD_OFF	n/a	n/a	CAMEL	3	-1	[0, 0, 0]	n/a	FR1	0	R1308T
1050.049	1.627	45701	WORD	n/a	n/a	TONGUE	4	-1	[0, 0, 0]	n/a	FR1	0	R1308T
1051.676	0.977	47328	WORD_OFF	n/a	n/a	TONGUE	4	-1	[0, 0, 0]	n/a	FR1	0	R1308T
1052.653	1.623	48305	WORD	n/a	n/a	BABY	5	-1	[0, 0, 0]	n/a	FR1	0	R1308T
1054.276	0.769	49928	WORD_OFF	n/a	n/a	BABY	5	-1	[0, 0, 0]	n/a	FR1	0	R1308T
1055.045	1.615	50697	WORD	n/a	n/a	BEAM	6	-1	[0, 0, 0]	n/a	FR1	0	R1308T
1056.66	1.118	52312	WORD_OFF	n/a	n/a	BEAM	6	-1	[0, 0, 0]	n/a	FR1	0	R1308T
1057.778	1.632	53430	WORD	n/a	n/a	FLOOD	7	-1	[0, 0, 0]	n/a	FR1	0	R1308T
1059.41	0.878	55062	WORD_OFF	n/a	n/a	FLOOD	7	-1	[0, 0, 0]	n/a	FR1	0	R1308T
1060.288	1.623	55940	WORD	n/a	n/a	RHINO	8	-1	[0, 0, 0]	n/a	FR1	0	R1308T
1061.911	1.057	57562	WORD_OFF	n/a	n/a	RHINO	8	-1	[0, 0, 0]	n/a	FR1	0	R1308T
1062.968	1.61	58619	WORD	n/a	n/a	COTTON	9	-1	[0, 0, 0]	n/a	FR1	0	R1308T
1064.578	0.811	60229	WORD_OFF	n/a	n/a	COTTON	9	-1	[0, 0, 0]	n/a	FR1	0	R1308T
1065.389	1.622	61040	WORD	n/a	n/a	IMAGE	10	-1	[0, 0, 0]	n/a	FR1	0	R1308T
1067.011	0.96	62662	WORD_OFF	n/a	n/a	IMAGE	10	-1	[0, 0, 0]	n/a	FR1	0	R1308T
1067.971	1.608	63622	WORD	n/a	n/a	WATCH	11	-1	[0, 0, 0]	n/a	FR1	0	R1308T
1069.579	0.897	65230	WORD_OFF	n/a	n/a	WATCH	11	-1	[0, 0, 0]	n/a	FR1	0	R1308T
1070.476	1.637	66127	WORD	n/a	n/a	CHEST	12	-1	[0, 0, 0]	n/a	FR1	0	R1308T
1072.113	0.0	67764	WORD_OFF	n/a	n/a	CHEST	12	-1	[0, 0, 0]	n/a	FR1	0	R1308T
1072.113	0.0	67764	ENCODING_END	n/a	n/a	n/a	-999	-1	[0, 0, 0]	n/a	FR1	0	R1308T
1072.113	0.0	67764	DISTRACT_START	n/a	n/a	n/a	-999	-1	[0, 0, 0]	n/a	FR1	0	R1308T
1072.113	0.016	67764	START	n/a	n/a	n/a	-999	1	[-999, -999, -999]	n/a	FR1	0	R1308T
1072.129	4.251	67780	PROB	4.251	n/a	n/a	-999	1	[2, 3, 7]	7	FR1	0	R1308T
1076.38	0.983	72031	PROB	0.983	n/a	n/a	-999	1	[1, 2, 9]	8	FR1	0	R1308T
1077.363	0.8	73014	PROB	0.8	n/a	n/a	-999	1	[2, 1, 2]	8	FR1	0	R1308T
1078.163	0.816	73814	PROB	0.816	n/a	n/a	-999	1	[4, 6, 5]	8	FR1	0	R1308T
1078.979	0.768	74630	PROB	0.768	n/a	n/a	-999	1	[2, 9, 9]	8	FR1	0	R1308T
1079.747	0.7	75398	PROB	0.7	n/a	n/a	-999	1	[7, 4, 8]	8	FR1	0	R1308T
1080.447	0.784	76098	PROB	0.784	n/a	n/a	-999	1	[9, 2, 3]	8	FR1	0	R1308T
1081.231	1.033	76882	PROB	1.033	n/a	n/a	-999	1	[4, 5, 2]	8	FR1	0	R1308T
1082.264	0.834	77915	PROB	0.834	n/a	n/a	-999	1	[1, 3, 7]	8	FR1	0	R1308T
1083.098	0.7	78749	PROB	0.7	n/a	n/a	-999	1	[2, 7, 9]	8	FR1	0	R1308T
1083.798	0.717	79449	PROB	0.717	n/a	n/a	-999	1	[3, 7, 7]	8	FR1	0	R1308T
1084.515	1.233	80165	PROB	1.233	n/a	n/a	-999	1	[8, 2, 5]	8	FR1	0	R1308T
1085.748	3.567	81398	PROB	3.567	n/a	n/a	-999	1	[6, 4, 1]	8	FR1	0	R1308T
1089.315	1.117	84965	PROB	1.117	n/a	n/a	-999	1	[4, 6, 3]	8	FR1	0	R1308T
1090.432	3.534	86082	PROB	3.534	n/a	n/a	-999	1	[7, 9, 9]	9	FR1	0	R1308T
1093.966	0.016	89616	STOP	n/a	n/a	n/a	-999	1	[-999, -999, -999]	n/a	FR1	0	R1308T
1093.982	0.517	89632	DISTRACT_END	n/a	n/a	n/a	-999	-1	[0, 0, 0]	n/a	FR1	0	R1308T
1094.499	1.55	90149	RETRIEVAL_ORIENT_START	n/a	n/a	n/a	-999	-1	[0, 0, 0]	n/a	FR1	0	R1308T
1096.049	0.0	91699	RETRIEVAL_ORIENT_END	n/a	n/a	n/a	-999	-1	[0, 0, 0]	n/a	FR1	0	R1308T
1096.049	29.988	91699	REC_START	n/a	n/a	n/a	-999	-1	[0, 0, 0]	n/a	FR1	0	R1308T
1126.037	0.026	121686	REC_WORD_VV	0.026	n/a	<>	-999	-1	[0, 0, 0]	n/a	FR1	0	R1308T
1126.063	0.001	121712	REC_END	n/a	n/a	n/a	-999	-1	[0, 0, 0]	n/a	FR1	0	R1308T
1126.064	22.53	121713	PRACTICE_POST_INSTRUCT_START	n/a	n/a	n/a	-999	-1	[0, 0, 0]	n/a	FR1	0	R1308T
1148.594	0.0	144242	PRACTICE_POST_INSTRUCT_END	n/a	n/a	n/a	-999	-1	[0, 0, 0]	n/a	FR1	0	R1308T
1148.594	0.018	144242	TRIAL_END	n/a	n/a	n/a	-999	-1	[0, 0, 0]	n/a	FR1	0	R1308T
1148.612	0.0	144260	TRIAL_START	n/a	n/a	n/a	-999	1	[0, 0, 0]	n/a	FR1	0	R1308T
1148.612	0.0	144260	TRIAL	n/a	n/a	n/a	-999	1	[0, 0, 0]	n/a	FR1	0	R1308T
1148.612	13.033	144260	WAITING_START	n/a	n/a	n/a	-999	1	[0, 0, 0]	n/a	FR1	0	R1308T
1161.645	0.001	157292	WAITING_END	n/a	n/a	n/a	-999	1	[0, 0, 0]	n/a	FR1	0	R1308T
1161.646	10.428	157293	COUNTDOWN_START	n/a	n/a	n/a	-999	1	[0, 0, 0]	n/a	FR1	0	R1308T
1172.074	0.001	167721	COUNTDOWN_END	n/a	n/a	n/a	-999	1	[0, 0, 0]	n/a	FR1	0	R1308T
1172.075	1.156	167722	ORIENT_START	n/a	n/a	n/a	-999	1	[0, 0, 0]	n/a	FR1	0	R1308T
1173.231	0.0	168878	ORIENT_END	n/a	n/a	n/a	-999	1	[0, 0, 0]	n/a	FR1	0	R1308T
1173.231	1.121	168878	ENCODING_START	n/a	n/a	n/a	-999	1	[0, 0, 0]	n/a	FR1	0	R1308T
1174.352	1.628	169999	WORD	n/a	wordpools/wordpool_EN.txt	HAT	1	1	[0, 0, 0]	n/a	FR1	0	R1308T
1175.98	0.945	171626	WORD_OFF	n/a	n/a	HAT	1	1	[0, 0, 0]	n/a	FR1	0	R1308T
1176.925	1.623	172571	WORD	n/a	wordpools/wordpool_EN.txt	BOX	2	1	[0, 0, 0]	n/a	FR1	0	R1308T
1178.548	1.054	174194	WORD_OFF	n/a	n/a	BOX	2	1	[0, 0, 0]	n/a	FR1	0	R1308T
1179.602	1.63	175248	WORD	n/a	wordpools/wordpool_EN.txt	DOCK	3	1	[0, 0, 0]	n/a	FR1	0	R1308T
1181.232	0.84	176878	WORD_OFF	n/a	n/a	DOCK	3	1	[0, 0, 0]	n/a	FR1	0	R1308T
1182.072	1.611	177718	WORD	n/a	wordpools/wordpool_EN.txt	HILL	4	1	[0, 0, 0]	n/a	FR1	0	R1308T
1183.683	0.937	179329	WORD_OFF	n/a	n/a	HILL	4	1	[0, 0, 0]	n/a	FR1	0	R1308T
1184.62	1.63	180266	WORD	n/a	wordpools/wordpool_EN.txt	CUP	5	1	[0, 0, 0]	n/a	FR1	0	R1308T
1186.25	0.861	181896	WORD_OFF	n/a	n/a	CUP	5	1	[0, 0, 0]	n/a	FR1	0	R1308T
1187.111	1.623	182757	WORD	n/a	wordpools/wordpool_EN.txt	LIP	6	1	[0, 0, 0]	n/a	FR1	0	R1308T
1188.734	0.838	184380	WORD_OFF	n/a	n/a	LIP	6	1	[0, 0, 0]	n/a	FR1	0	R1308T
1189.572	1.629	185218	WORD	n/a	wordpools/wordpool_EN.txt	FORT	7	1	[0, 0, 0]	n/a	FR1	0	R1308T
1191.201	1.019	186847	WORD_OFF	n/a	n/a	FORT	7	1	[0, 0, 0]	n/a	FR1	0	R1308T
1192.22	1.631	187866	WORD	n/a	wordpools/wordpool_EN.txt	ICE	8	1	[0, 0, 0]	n/a	FR1	0	R1308T
1193.851	0.92	189497	WORD_OFF	n/a	n/a	ICE	8	1	[0, 0, 0]	n/a	FR1	0	R1308T
1194.771	1.631	190417	WORD	n/a	wordpools/wordpool_EN.txt	BOAT	9	1	[0, 0, 0]	n/a	FR1	0	R1308T
1196.402	0.897	192048	WORD_OFF	n/a	n/a	BOAT	9	1	[0, 0, 0]	n/a	FR1	0	R1308T
1197.299	1.636	192944	WORD	n/a	wordpools/wordpool_EN.txt	CALF	10	1	[0, 0, 0]	n/a	FR1	0	R1308T
1198.935	1.083	194580	WORD_OFF	n/a	n/a	CALF	10	1	[0, 0, 0]	n/a	FR1	0	R1308T
1200.018	1.618	195663	WORD	n/a	wordpools/wordpool_EN.txt	COW	11	1	[0, 0, 0]	n/a	FR1	0	R1308T
1201.636	0.937	197281	WORD_OFF	n/a	n/a	COW	11	1	[0, 0, 0]	n/a	FR1	0	R1308T
1202.573	1.63	198218	WORD	n/a	wordpools/wordpool_EN.txt	CORN	12	1	[0, 0, 0]	n/a	FR1	0	R1308T
1204.203	0.001	199848	WORD_OFF	n/a	n/a	CORN	12	1	[0, 0, 0]	n/a	FR1	0	R1308T
1204.204	0.0	199849	ENCODING_END	n/a	n/a	n/a	-999	1	[0, 0, 0]	n/a	FR1	0	R1308T
1204.204	0.0	199849	DISTRACT_START	n/a	n/a	n/a	-999	1	[0, 0, 0]	n/a	FR1	0	R1308T
1204.204	0.016	199849	START	n/a	n/a	n/a	-999	2	[-999, -999, -999]	n/a	FR1	0	R1308T
1204.22	6.918	199865	PROB	6.918	n/a	n/a	-999	2	[9, 1, 9]	19	FR1	0	R1308T
1211.138	20.96	206783	PROB	20.96	n/a	n/a	-999	2	[9, 8, 6]	24	FR1	0	R1308T
1232.098	0.01	227742	STOP	n/a	n/a	n/a	-999	2	[-999, -999, -999]	n/a	FR1	0	R1308T
1232.108	0.638	227752	DISTRACT_END	n/a	n/a	n/a	-999	1	[0, 0, 0]	n/a	FR1	0	R1308T
1232.746	1.579	228390	RETRIEVAL_ORIENT_START	n/a	n/a	n/a	-999	1	[0, 0, 0]	n/a	FR1	0	R1308T
1234.325	0.001	229969	RETRIEVAL_ORIENT_END	n/a	n/a	n/a	-999	1	[0, 0, 0]	n/a	FR1	0	R1308T
1234.326	1.469	229970	REC_START	n/a	n/a	n/a	-999	1	[0, 0, 0]	n/a	FR1	0	R1308T
1235.795	0.85	231439	REC_WORD_VV	0.85	n/a	<>	-999	1	[0, 0, 0]	n/a	FR1	0	R1308T
1236.645	1.183	232289	REC_WORD	1.183	n/a	BOX	2	1	[0, 0, 0]	n/a	FR1	0	R1308T
1237.828	1.459	233472	REC_WORD	1.459	n/a	HAT	1	1	[0, 0, 0]	n/a	FR1	0	R1308T
1239.287	1.403	234931	REC_WORD	1.403	n/a	CUP	5	1	[0, 0, 0]	n/a	FR1	0	R1308T
1240.69	1.941	236334	REC_WORD	1.941	n/a	FORT	7	1	[0, 0, 0]	n/a	FR1	0	R1308T
1242.631	3.212	238274	REC_WORD	3.212	n/a	ICE	8	1	[0, 0, 0]	n/a	FR1	0	R1308T
1245.843	3.612	241486	REC_WORD	3.612	n/a	HILL	4	1	[0, 0, 0]	n/a	FR1	0	R1308T
1249.455	11.533	245098	REC_WORD	11.533	n/a	DOCK	3	1	[0, 0, 0]	n/a	FR1	0	R1308T
1260.988	1.0	256631	REC_WORD_VV	1.0	n/a	<>	-999	1	[0, 0, 0]	n/a	FR1	0	R1308T
1261.988	2.349	257631	REC_WORD_VV	2.349	n/a	<>	-999	1	[0, 0, 0]	n/a	FR1	0	R1308T
1264.337	0.001	259980	REC_END	n/a	n/a	n/a	-999	1	[0, 0, 0]	n/a	FR1	0	R1308T
1264.338	0.015	259981	TRIAL_END	n/a	n/a	n/a	-999	1	[0, 0, 0]	n/a	FR1	0	R1308T
1264.353	0.0	259996	TRIAL_START	n/a	n/a	n/a	-999	2	[0, 0, 0]	n/a	FR1	0	R1308T
1264.353	0.001	259996	TRIAL	n/a	n/a	n/a	-999	2	[0, 0, 0]	n/a	FR1	0	R1308T
1264.354	97.345	259997	WAITING_START	n/a	n/a	n/a	-999	2	[0, 0, 0]	n/a	FR1	0	R1308T
1361.699	0.0	357337	COUNTDOWN_START	n/a	n/a	n/a	-999	2	[0, 0, 0]	n/a	FR1	0	R1308T
1361.699	10.429	357337	WAITING_END	n/a	n/a	n/a	-999	2	[0, 0, 0]	n/a	FR1	0	R1308T
1372.128	0.0	367766	COUNTDOWN_END	n/a	n/a	n/a	-999	2	[0, 0, 0]	n/a	FR1	0	R1308T
1372.128	1.106	367766	ORIENT_START	n/a	n/a	n/a	-999	2	[0, 0, 0]	n/a	FR1	0	R1308T
1373.234	0.0	368872	ORIENT_END	n/a	n/a	n/a	-999	2	[0, 0, 0]	n/a	FR1	0	R1308T
1373.234	1.016	368872	ENCODING_START	n/a	n/a	n/a	-999	2	[0, 0, 0]	n/a	FR1	0	R1308T
1374.25	1.634	369888	WORD	n/a	wordpools/wordpool_EN.txt	BRANCH	1	2	[0, 0, 0]	n/a	FR1	0	R1308T
1375.884	0.873	371522	WORD_OFF	n/a	n/a	BRANCH	1	2	[0, 0, 0]	n/a	FR1	0	R1308T
1376.757	1.628	372395	WORD	n/a	wordpools/wordpool_EN.txt	WOLF	2	2	[0, 0, 0]	n/a	FR1	0	R1308T
1378.385	0.819	374022	WORD_OFF	n/a	n/a	WOLF	2	2	[0, 0, 0]	n/a	FR1	0	R1308T
1379.204	1.631	374841	WORD	n/a	wordpools/wordpool_EN.txt	NAIL	3	2	[0, 0, 0]	n/a	FR1	0	R1308T
1380.835	0.915	376472	WORD_OFF	n/a	n/a	NAIL	3	2	[0, 0, 0]	n/a	FR1	0	R1308T
1381.75	1.636	377387	WORD	n/a	wordpools/wordpool_EN.txt	PALM	4	2	[0, 0, 0]	n/a	FR1	0	R1308T
1383.386	0.901	379023	WORD_OFF	n/a	n/a	PALM	4	2	[0, 0, 0]	n/a	FR1	0	R1308T
1384.287	1.633	379924	WORD	n/a	wordpools/wordpool_EN.txt	THUMB	5	2	[0, 0, 0]	n/a	FR1	0	R1308T
1385.92	1.096	381557	WORD_OFF	n/a	n/a	THUMB	5	2	[0, 0, 0]	n/a	FR1	0	R1308T
1387.016	1.637	382653	WORD	n/a	wordpools/wordpool_EN.txt	SLUSH	6	2	[0, 0, 0]	n/a	FR1	0	R1308T
1388.653	1.006	384290	WORD_OFF	n/a	n/a	SLUSH	6	2	[0, 0, 0]	n/a	FR1	0	R1308T
1389.659	1.628	385296	WORD	n/a	wordpools/wordpool_EN.txt	APE	7	2	[0, 0, 0]	n/a	FR1	0	R1308T
1391.287	0.924	386924	WORD_OFF	n/a	n/a	APE	7	2	[0, 0, 0]	n/a	FR1	0	R1308T
1392.211	1.627	387848	WORD	n/a	wordpools/wordpool_EN.txt	MOOSE	8	2	[0, 0, 0]	n/a	FR1	0	R1308T
1393.838	0.784	389475	WORD_OFF	n/a	n/a	MOOSE	8	2	[0, 0, 0]	n/a	FR1	0	R1308T
1394.622	1.616	390259	WORD	n/a	wordpools/wordpool_EN.txt	SNOW	9	2	[0, 0, 0]	n/a	FR1	0	R1308T
1396.238	0.889	391875	WORD_OFF	n/a	n/a	SNOW	9	2	[0, 0, 0]	n/a	FR1	0	R1308T
1397.127	1.628	392764	WORD	n/a	wordpools/wordpool_EN.txt	CAVE	10	2	[0, 0, 0]	n/a	FR1	0	R1308T
1398.755	0.968	394392	WORD_OFF	n/a	n/a	CAVE	10	2	[0, 0, 0]	n/a	FR1	0	R1308T
1399.723	1.633	395360	WORD	n/a	wordpools/wordpool_EN.txt	FLUTE	11	2	[0, 0, 0]	n/a	FR1	0	R1308T
1401.356	0.825	396992	WORD_OFF	n/a	n/a	FLUTE	11	2	[0, 0, 0]	n/a	FR1	0	R1308T
1402.181	1.625	397817	WORD	n/a	wordpools/wordpool_EN.txt	PHONE	12	2	[0, 0, 0]	n/a	FR1	0	R1308T
1403.806	0.001	399442	WORD_OFF	n/a	n/a	PHONE	12	2	[0, 0, 0]	n/a	FR1	0	R1308T
1403.807	0.0	399443	ENCODING_END	n/a	n/a	n/a	-999	2	[0, 0, 0]	n/a	FR1	0	R1308T
1403.807	0.0	399443	DISTRACT_START	n/a	n/a	n/a	-999	2	[0, 0, 0]	n/a	FR1	0	R1308T
1403.807	0.015	399443	START	n/a	n/a	n/a	-999	3	[-999, -999, -999]	n/a	FR1	0	R1308T
1403.822	13.319	399458	PROB	13.319	n/a	n/a	-999	3	[8, 8, 9]	25	FR1	0	R1308T
1417.141	9.154	412777	PROB	9.154	n/a	n/a	-999	3	[1, 4, 5]	10	FR1	0	R1308T
1426.295	0.015	421930	STOP	n/a	n/a	n/a	-999	3	[-999, -999, -999]	n/a	FR1	0	R1308T
1426.31	0.617	421945	DISTRACT_END	n/a	n/a	n/a	-999	2	[0, 0, 0]	n/a	FR1	0	R1308T
1426.927	1.717	422562	RETRIEVAL_ORIENT_START	n/a	n/a	n/a	-999	2	[0, 0, 0]	n/a	FR1	0	R1308T
1428.644	0.0	424279	RETRIEVAL_ORIENT_END	n/a	n/a	n/a	-999	2	[0, 0, 0]	n/a	FR1	0	R1308T
1428.644	1.859	424279	REC_START	n/a	n/a	n/a	-999	2	[0, 0, 0]	n/a	FR1	0	R1308T
1430.503	1.0	426138	REC_WORD	1.0	n/a	SPLASH	-999	2	[0, 0, 0]	n/a	FR1	0	R1308T
1431.503	0.768	427138	REC_WORD_VV	0.768	n/a	<>	-999	2	[0, 0, 0]	n/a	FR1	0	R1308T
1432.271	1.057	427906	REC_WORD	1.057	n/a	WOLF	2	2	[0, 0, 0]	n/a	FR1	0	R1308T
1433.328	1.537	428963	REC_WORD	1.537	n/a	NAIL	3	2	[0, 0, 0]	n/a	FR1	0	R1308T
1434.865	1.143	430500	REC_WORD	1.143	n/a	APE	7	2	[0, 0, 0]	n/a	FR1	0	R1308T
1436.008	3.375	431643	REC_WORD	3.375	n/a	PALM	4	2	[0, 0, 0]	n/a	FR1	0	R1308T
1439.383	8.618	435018	REC_WORD	8.618	n/a	MOOSE	8	2	[0, 0, 0]	n/a	FR1	0	R1308T
1448.001	10.655	443635	REC_WORD	10.655	n/a	BRANCH	1	2	[0, 0, 0]	n/a	FR1	0	R1308T
1458.656	0.001	454290	REC_END	n/a	n/a	n/a	-999	2	[0, 0, 0]	n/a	FR1	0	R1308T
1458.657	0.015	454291	TRIAL_END	n/a	n/a	n/a	-999	2	[0, 0, 0]	n/a	FR1	0	R1308T
1458.672	0.001	454306	TRIAL_START	n/a	n/a	n/a	-999	3	[0, 0, 0]	n/a	FR1	0	R1308T
1458.673	0.0	454307	TRIAL	n/a	n/a	n/a	-999	3	[0, 0, 0]	n/a	FR1	0	R1308T
1458.673	29.548	454307	WAITING_START	n/a	n/a	n/a	-999	3	[0, 0, 0]	n/a	FR1	0	R1308T
1488.221	0.001	483854	WAITING_END	n/a	n/a	n/a	-999	3	[0, 0, 0]	n/a	FR1	0	R1308T
1488.222	10.428	483855	COUNTDOWN_START	n/a	n/a	n/a	-999	3	[0, 0, 0]	n/a	FR1	0	R1308T
1498.65	0.001	494282	COUNTDOWN_END	n/a	n/a	n/a	-999	3	[0, 0, 0]	n/a	FR1	0	R1308T
1498.651	1.239	494283	ORIENT_START	n/a	n/a	n/a	-999	3	[0, 0, 0]	n/a	FR1	0	R1308T
1499.89	0.0	495522	ORIENT_END	n/a	n/a	n/a	-999	3	[0, 0, 0]	n/a	FR1	0	R1308T
1499.89	0.817	495522	ENCODING_START	n/a	n/a	n/a	-999	3	[0, 0, 0]	n/a	FR1	0	R1308T
1500.707	1.634	496339	WORD	n/a	wordpools/wordpool_EN.txt	FROG	1	3	[0, 0, 0]	n/a	FR1	0	R1308T
1502.341	1.008	497973	WORD_OFF	n/a	n/a	FROG	1	3	[0, 0, 0]	n/a	FR1	0	R1308T
1503.349	1.624	498981	WORD	n/a	wordpools/wordpool_EN.txt	CAPE	2	3	[0, 0, 0]	n/a	FR1	0	R1308T
1504.973	0.964	500605	WORD_OFF	n/a	n/a	CAPE	2	3	[0, 0, 0]	n/a	FR1	0	R1308T
1505.937	1.638	501569	WORD	n/a	wordpools/wordpool_EN.txt	HAND	3	3	[0, 0, 0]	n/a	FR1	0	R1308T
1507.575	1.023	503207	WORD_OFF	n/a	n/a	HAND	3	3	[0, 0, 0]	n/a	FR1	0	R1308T
1508.598	1.627	504230	WORD	n/a	wordpools/wordpool_EN.txt	SHEET	4	3	[0, 0, 0]	n/a	FR1	0	R1308T
1510.225	0.988	505857	WORD_OFF	n/a	n/a	SHEET	4	3	[0, 0, 0]	n/a	FR1	0	R1308T
1511.213	1.63	506845	WORD	n/a	wordpools/wordpool_EN.txt	EGG	5	3	[0, 0, 0]	n/a	FR1	0	R1308T
1512.843	0.995	508475	WORD_OFF	n/a	n/a	EGG	5	3	[0, 0, 0]	n/a	FR1	0	R1308T
1513.838	1.622	509469	WORD	n/a	wordpools/wordpool_EN.txt	FRUIT	6	3	[0, 0, 0]	n/a	FR1	0	R1308T
1515.46	0.755	511091	WORD_OFF	n/a	n/a	FRUIT	6	3	[0, 0, 0]	n/a	FR1	0	R1308T
1516.215	1.628	511846	WORD	n/a	wordpools/wordpool_EN.txt	LAKE	7	3	[0, 0, 0]	n/a	FR1	0	R1308T
1517.843	0.96	513474	WORD_OFF	n/a	n/a	LAKE	7	3	[0, 0, 0]	n/a	FR1	0	R1308T
1518.803	1.624	514434	WORD	n/a	wordpools/wordpool_EN.txt	RUG	8	3	[0, 0, 0]	n/a	FR1	0	R1308T
1520.427	0.997	516058	WORD_OFF	n/a	n/a	RUG	8	3	[0, 0, 0]	n/a	FR1	0	R1308T
1521.424	1.636	517055	WORD	n/a	wordpools/wordpool_EN.txt	SUIT	9	3	[0, 0, 0]	n/a	FR1	0	R1308T
1523.06	0.946	518691	WORD_OFF	n/a	n/a	SUIT	9	3	[0, 0, 0]	n/a	FR1	0	R1308T
1524.006	1.605	519637	WORD	n/a	wordpools/wordpool_EN.txt	EEL	10	3	[0, 0, 0]	n/a	FR1	0	R1308T
1525.611	1.138	521242	WORD_OFF	n/a	n/a	EEL	10	3	[0, 0, 0]	n/a	FR1	0	R1308T
1526.749	1.63	522380	WORD	n/a	wordpools/wordpool_EN.txt	TRAIN	11	3	[0, 0, 0]	n/a	FR1	0	R1308T
1528.379	0.957	524010	WORD_OFF	n/a	n/a	TRAIN	11	3	[0, 0, 0]	n/a	FR1	0	R1308T
1529.336	1.626	524967	WORD	n/a	wordpools/wordpool_EN.txt	STRAW	12	3	[0, 0, 0]	n/a	FR1	0	R1308T
1530.962	0.0	526593	WORD_OFF	n/a	n/a	STRAW	12	3	[0, 0, 0]	n/a	FR1	0	R1308T
1530.962	0.0	526593	ENCODING_END	n/a	n/a	n/a	-999	3	[0, 0, 0]	n/a	FR1	0	R1308T
1530.962	0.001	526593	DISTRACT_START	n/a	n/a	n/a	-999	3	[0, 0, 0]	n/a	FR1	0	R1308T
1530.963	0.015	526594	START	n/a	n/a	n/a	-999	4	[-999, -999, -999]	n/a	FR1	0	R1308T
1530.978	5.618	526609	PROB	5.618	n/a	n/a	-999	4	[1, 1, 4]	6	FR1	0	R1308T
1536.596	17.283	532226	PROB	17.283	n/a	n/a	-999	4	[4, 4, 9]	16	FR1	0	R1308T
1553.879	0.021	549509	STOP	n/a	n/a	n/a	-999	4	[-999, -999, -999]	n/a	FR1	0	R1308T
1553.9	0.573	549530	DISTRACT_END	n/a	n/a	n/a	-999	3	[0, 0, 0]	n/a	FR1	0	R1308T
1554.473	1.694	550103	RETRIEVAL_ORIENT_START	n/a	n/a	n/a	-999	3	[0, 0, 0]	n/a	FR1	0	R1308T
1556.167	0.0	551797	RETRIEVAL_ORIENT_END	n/a	n/a	n/a	-999	3	[0, 0, 0]	n/a	FR1	0	R1308T
1556.167	1.351	551797	REC_START	n/a	n/a	n/a	-999	3	[0, 0, 0]	n/a	FR1	0	R1308T
1557.518	1.813	553148	REC_WORD	1.813	n/a	FROG	1	3	[0, 0, 0]	n/a	FR1	0	R1308T
1559.331	1.018	554960	REC_WORD	1.018	n/a	LAKE	7	3	[0, 0, 0]	n/a	FR1	0	R1308T
1560.349	4.076	555978	REC_WORD	4.076	n/a	SUIT	9	3	[0, 0, 0]	n/a	FR1	0	R1308T
1564.425	11.122	560054	REC_WORD	11.122	n/a	EEL	10	3	[0, 0, 0]	n/a	FR1	0	R1308T
1575.547	10.633	571176	REC_WORD	10.633	n/a	CAPE	2	3	[0, 0, 0]	n/a	FR1	0	R1308T
1586.18	0.0	581808	REC_END	n/a	n/a	n/a	-999	3	[0, 0, 0]	n/a	FR1	0	R1308T
1586.18	0.014	581808	TRIAL_END	n/a	n/a	n/a	-999	3	[0, 0, 0]	n/a	FR1	0	R1308T
1586.194	0.0	581822	TRIAL_START	n/a	n/a	n/a	-999	4	[0, 0, 0]	n/a	FR1	0	R1308T
1586.194	0.0	581822	TRIAL	n/a	n/a	n/a	-999	4	[0, 0, 0]	n/a	FR1	0	R1308T
1586.194	41.253	581822	WAITING_START	n/a	n/a	n/a	-999	4	[0, 0, 0]	n/a	FR1	0	R1308T
1627.447	0.0	623073	WAITING_END	n/a	n/a	n/a	-999	4	[0, 0, 0]	n/a	FR1	0	R1308T
1627.447	10.429	623073	COUNTDOWN_START	n/a	n/a	n/a	-999	4	[0, 0, 0]	n/a	FR1	0	R1308T
1637.876	0.0	633502	COUNTDOWN_END	n/a	n/a	n/a	-999	4	[0, 0, 0]	n/a	FR1	0	R1308T
1637.876	1.023	633502	ORIENT_START	n/a	n/a	n/a	-999	4	[0, 0, 0]	n/a	FR1	0	R1308T
1638.899	0.0	634525	ORIENT_END	n/a	n/a	n/a	-999	4	[0, 0, 0]	n/a	FR1	0	R1308T
1638.899	0.952	634525	ENCODING_START	n/a	n/a	n/a	-999	4	[0, 0, 0]	n/a	FR1	0	R1308T
1639.851	1.632	635477	WORD	n/a	wordpools/wordpool_EN.txt	BEE	1	4	[0, 0, 0]	n/a	FR1	0	R1308T
1641.483	0.923	637109	WORD_OFF	n/a	n/a	BEE	1	4	[0, 0, 0]	n/a	FR1	0	R1308T
1642.406	1.626	638032	WORD	n/a	wordpools/wordpool_EN.txt	TENT	2	4	[0, 0, 0]	n/a	FR1	0	R1308T
1644.032	0.824	639658	WORD_OFF	n/a	n/a	TENT	2	4	[0, 0, 0]	n/a	FR1	0	R1308T
1644.856	1.627	640482	WORD	n/a	wordpools/wordpool_EN.txt	LAND	3	4	[0, 0, 0]	n/a	FR1	0	R1308T
1646.483	1.033	642109	WORD_OFF	n/a	n/a	LAND	3	4	[0, 0, 0]	n/a	FR1	0	R1308T
1647.516	1.635	643142	WORD	n/a	wordpools/wordpool_EN.txt	PEAR	4	4	[0, 0, 0]	n/a	FR1	0	R1308T
1649.151	0.965	644776	WORD_OFF	n/a	n/a	PEAR	4	4	[0, 0, 0]	n/a	FR1	0	R1308T
1650.116	1.635	645741	WORD	n/a	wordpools/wordpool_EN.txt	PURSE	5	4	[0, 0, 0]	n/a	FR1	0	R1308T
1651.751	0.95	647376	WORD_OFF	n/a	n/a	PURSE	5	4	[0, 0, 0]	n/a	FR1	0	R1308T
1652.701	1.634	648326	WORD	n/a	wordpools/wordpool_EN.txt	HORSE	6	4	[0, 0, 0]	n/a	FR1	0	R1308T
1654.335	0.928	649960	WORD_OFF	n/a	n/a	HORSE	6	4	[0, 0, 0]	n/a	FR1	0	R1308T
1655.263	1.622	650888	WORD	n/a	wordpools/wordpool_EN.txt	BALL	7	4	[0, 0, 0]	n/a	FR1	0	R1308T
1656.885	0.973	652510	WORD_OFF	n/a	n/a	BALL	7	4	[0, 0, 0]	n/a	FR1	0	R1308T
1657.858	1.628	653483	WORD	n/a	wordpools/wordpool_EN.txt	VASE	8	4	[0, 0, 0]	n/a	FR1	0	R1308T
1659.486	0.855	655111	WORD_OFF	n/a	n/a	VASE	8	4	[0, 0, 0]	n/a	FR1	0	R1308T
1660.341	1.627	655966	WORD	n/a	wordpools/wordpool_EN.txt	BEAR	9	4	[0, 0, 0]	n/a	FR1	0	R1308T
1661.968	0.956	657593	WORD_OFF	n/a	n/a	BEAR	9	4	[0, 0, 0]	n/a	FR1	0	R1308T
1662.924	1.612	658549	WORD	n/a	wordpools/wordpool_EN.txt	BEAK	10	4	[0, 0, 0]	n/a	FR1	0	R1308T
1664.536	1.124	660161	WORD_OFF	n/a	n/a	BEAK	10	4	[0, 0, 0]	n/a	FR1	0	R1308T
1665.66	1.627	661285	WORD	n/a	wordpools/wordpool_EN.txt	VEST	11	4	[0, 0, 0]	n/a	FR1	0	R1308T
1667.287	1.082	662912	WORD_OFF	n/a	n/a	VEST	11	4	[0, 0, 0]	n/a	FR1	0	R1308T
1668.369	1.634	663994	WORD	n/a	wordpools/wordpool_EN.txt	SKUNK	12	4	[0, 0, 0]	n/a	FR1	0	R1308T
1670.003	0.001	665628	WORD_OFF	n/a	n/a	SKUNK	12	4	[0, 0, 0]	n/a	FR1	0	R1308T
1670.004	0.0	665629	DISTRACT_START	n/a	n/a	n/a	-999	4	[0, 0, 0]	n/a	FR1	0	R1308T
1670.004	0.0	665629	ENCODING_END	n/a	n/a	n/a	-999	4	[0, 0, 0]	n/a	FR1	0	R1308T
1670.004	0.016	665629	START	n/a	n/a	n/a	-999	5	[-999, -999, -999]	n/a	FR1	0	R1308T
1670.02	12.853	665645	PROB	12.853	n/a	n/a	-999	5	[9, 2, 7]	18	FR1	0	R1308T
1682.873	25.132	678497	PROB	25.132	n/a	n/a	-999	5	[9, 9, 8]	26	FR1	0	R1308T
1708.005	0.022	703628	STOP	n/a	n/a	n/a	-999	5	[-999, -999, -999]	n/a	FR1	0	R1308T
1708.027	0.509	703650	DISTRACT_END	n/a	n/a	n/a	-999	4	[0, 0, 0]	n/a	FR1	0	R1308T
1708.536	1.558	704159	RETRIEVAL_ORIENT_START	n/a	n/a	n/a	-999	4	[0, 0, 0]	n/a	FR1	0	R1308T
1710.094	0.0	705717	RETRIEVAL_ORIENT_END	n/a	n/a	n/a	-999	4	[0, 0, 0]	n/a	FR1	0	R1308T
1710.094	2.463	705717	REC_START	n/a	n/a	n/a	-999	4	[0, 0, 0]	n/a	FR1	0	R1308T
1712.557	1.187	708180	REC_WORD	1.187	n/a	BEE	1	4	[0, 0, 0]	n/a	FR1	0	R1308T
1713.744	2.507	709367	REC_WORD	2.507	n/a	BEAR	9	4	[0, 0, 0]	n/a	FR1	0	R1308T
1716.251	1.361	711873	REC_WORD	1.361	n/a	VASE	8	4	[0, 0, 0]	n/a	FR1	0	R1308T
1717.612	2.281	713234	REC_WORD	2.281	n/a	LAND	3	4	[0, 0, 0]	n/a	FR1	0	R1308T
1719.893	3.52	715515	REC_WORD	3.52	n/a	BALL	7	4	[0, 0, 0]	n/a	FR1	0	R1308T
1723.413	16.695	719035	REC_WORD	16.695	n/a	TENT	2	4	[0, 0, 0]	n/a	FR1	0	R1308T
1740.108	0.0	735729	TRIAL_END	n/a	n/a	n/a	-999	4	[0, 0, 0]	n/a	FR1	0	R1308T
1740.108	0.016	735729	REC_END	n/a	n/a	n/a	-999	4	[0, 0, 0]	n/a	FR1	0	R1308T
1740.124	0.0	735745	TRIAL_START	n/a	n/a	n/a	-999	5	[0, 0, 0]	n/a	FR1	0	R1308T
1740.124	0.0	735745	TRIAL	n/a	n/a	n/a	-999	5	[0, 0, 0]	n/a	FR1	0	R1308T
1740.124	10.695	735745	WAITING_START	n/a	n/a	n/a	-999	5	[0, 0, 0]	n/a	FR1	0	R1308T
1750.819	0.0	746440	WAITING_END	n/a	n/a	n/a	-999	5	[0, 0, 0]	n/a	FR1	0	R1308T
1750.819	10.429	746440	COUNTDOWN_START	n/a	n/a	n/a	-999	5	[0, 0, 0]	n/a	FR1	0	R1308T
1761.248	0.001	756869	COUNTDOWN_END	n/a	n/a	n/a	-999	5	[0, 0, 0]	n/a	FR1	0	R1308T
1761.249	1.256	756870	ORIENT_START	n/a	n/a	n/a	-999	5	[0, 0, 0]	n/a	FR1	0	R1308T
1762.505	0.0	758125	ORIENT_END	n/a	n/a	n/a	-999	5	[0, 0, 0]	n/a	FR1	0	R1308T
1762.505	0.815	758125	ENCODING_START	n/a	n/a	n/a	-999	5	[0, 0, 0]	n/a	FR1	0	R1308T
1763.32	1.634	758940	WORD	n/a	wordpools/wordpool_EN.txt	TEETH	1	5	[0, 0, 0]	n/a	FR1	0	R1308T
1764.954	0.92	760574	WORD_OFF	n/a	n/a	TEETH	1	5	[0, 0, 0]	n/a	FR1	0	R1308T
1765.874	1.631	761494	WORD	n/a	wordpools/wordpool_EN.txt	CLAY	2	5	[0, 0, 0]	n/a	FR1	0	R1308T
1767.505	0.802	763125	WORD_OFF	n/a	n/a	CLAY	2	5	[0, 0, 0]	n/a	FR1	0	R1308T
1768.307	1.631	763927	WORD	n/a	wordpools/wordpool_EN.txt	FACE	3	5	[0, 0, 0]	n/a	FR1	0	R1308T
1769.938	0.888	765558	WORD_OFF	n/a	n/a	FACE	3	5	[0, 0, 0]	n/a	FR1	0	R1308T
1770.826	1.63	766446	WORD	n/a	wordpools/wordpool_EN.txt	CHALK	4	5	[0, 0, 0]	n/a	FR1	0	R1308T
1772.456	1.053	768076	WORD_OFF	n/a	n/a	CHALK	4	5	[0, 0, 0]	n/a	FR1	0	R1308T
1773.509	1.631	769129	WORD	n/a	wordpools/wordpool_EN.txt	STEAM	5	5	[0, 0, 0]	n/a	FR1	0	R1308T
1775.14	1.086	770760	WORD_OFF	n/a	n/a	STEAM	5	5	[0, 0, 0]	n/a	FR1	0	R1308T
1776.226	1.631	771846	WORD	n/a	wordpools/wordpool_EN.txt	DOG	6	5	[0, 0, 0]	n/a	FR1	0	R1308T
1777.857	0.826	773477	WORD_OFF	n/a	n/a	DOG	6	5	[0, 0, 0]	n/a	FR1	0	R1308T
1778.683	1.625	774303	WORD	n/a	wordpools/wordpool_EN.txt	HEART	7	5	[0, 0, 0]	n/a	FR1	0	R1308T
1780.308	0.901	775928	WORD_OFF	n/a	n/a	HEART	7	5	[0, 0, 0]	n/a	FR1	0	R1308T
1781.209	1.633	776829	WORD	n/a	wordpools/wordpool_EN.txt	MAZE	8	5	[0, 0, 0]	n/a	FR1	0	R1308T
1782.842	1.096	778462	WORD_OFF	n/a	n/a	MAZE	8	5	[0, 0, 0]	n/a	FR1	0	R1308T
1783.938	1.621	779557	WORD	n/a	wordpools/wordpool_EN.txt	STAIR	9	5	[0, 0, 0]	n/a	FR1	0	R1308T
1785.559	0.774	781178	WORD_OFF	n/a	n/a	STAIR	9	5	[0, 0, 0]	n/a	FR1	0	R1308T
1786.333	1.625	781952	WORD	n/a	wordpools/wordpool_EN.txt	SALT	10	5	[0, 0, 0]	n/a	FR1	0	R1308T
1787.958	1.011	783577	WORD_OFF	n/a	n/a	SALT	10	5	[0, 0, 0]	n/a	FR1	0	R1308T
1788.969	1.624	784588	WORD	n/a	wordpools/wordpool_EN.txt	CONE	11	5	[0, 0, 0]	n/a	FR1	0	R1308T
1790.593	0.827	786212	WORD_OFF	n/a	n/a	CONE	11	5	[0, 0, 0]	n/a	FR1	0	R1308T
1791.42	1.622	787039	WORD	n/a	wordpools/wordpool_EN.txt	CLOCK	12	5	[0, 0, 0]	n/a	FR1	0	R1308T
1793.042	0.001	788661	WORD_OFF	n/a	n/a	CLOCK	12	5	[0, 0, 0]	n/a	FR1	0	R1308T
1793.043	0.0	788662	ENCODING_END	n/a	n/a	n/a	-999	5	[0, 0, 0]	n/a	FR1	0	R1308T
1793.043	0.0	788662	DISTRACT_START	n/a	n/a	n/a	-999	5	[0, 0, 0]	n/a	FR1	0	R1308T
1793.043	0.016	788662	START	n/a	n/a	n/a	-999	6	[-999, -999, -999]	n/a	FR1	0	R1308T
1793.059	7.385	788678	PROB	7.385	n/a	n/a	-999	6	[2, 3, 8]	13	FR1	0	R1308T
1800.444	8.969	796063	PROB	8.969	n/a	n/a	-999	6	[3, 5, 8]	16	FR1	0	R1308T
1809.413	10.749	805031	PROB	10.749	n/a	n/a	-999	6	[5, 7, 4]	16	FR1	0	R1308T
1820.162	0.02	815780	STOP	n/a	n/a	n/a	-999	6	[-999, -999, -999]	n/a	FR1	0	R1308T
1820.182	0.526	815800	DISTRACT_END	n/a	n/a	n/a	-999	5	[0, 0, 0]	n/a	FR1	0	R1308T
1820.708	1.624	816326	RETRIEVAL_ORIENT_START	n/a	n/a	n/a	-999	5	[0, 0, 0]	n/a	FR1	0	R1308T
1822.332	0.0	817950	REC_START	n/a	n/a	n/a	-999	5	[0, 0, 0]	n/a	FR1	0	R1308T
1822.332	2.288	817950	RETRIEVAL_ORIENT_END	n/a	n/a	n/a	-999	5	[0, 0, 0]	n/a	FR1	0	R1308T
1824.62	1.183	820238	REC_WORD	1.183	n/a	TEETH	1	5	[0, 0, 0]	n/a	FR1	0	R1308T
1825.803	2.529	821421	REC_WORD	2.529	n/a	CLAY	2	5	[0, 0, 0]	n/a	FR1	0	R1308T
1828.332	11.647	823950	REC_WORD	11.647	n/a	DOG	6	5	[0, 0, 0]	n/a	FR1	0	R1308T
1839.979	3.363	835596	REC_WORD	3.363	n/a	STEAM	5	5	[0, 0, 0]	n/a	FR1	0	R1308T
1843.342	3.031	838959	REC_WORD	3.031	n/a	VEST	-999	5	[0, 0, 0]	n/a	FR1	0	R1308T
1846.373	5.971	841990	REC_WORD	5.971	n/a	FACE	3	5	[0, 0, 0]	n/a	FR1	0	R1308T
1852.344	0.001	847960	REC_END	n/a	n/a	n/a	-999	5	[0, 0, 0]	n/a	FR1	0	R1308T
1852.345	0.014	847961	TRIAL_END	n/a	n/a	n/a	-999	5	[0, 0, 0]	n/a	FR1	0	R1308T
1852.359	0.0	847975	TRIAL_START	n/a	n/a	n/a	-999	6	[0, 0, 0]	n/a	FR1	0	R1308T
1852.359	0.0	847975	TRIAL	n/a	n/a	n/a	-999	6	[0, 0, 0]	n/a	FR1	0	R1308T
1852.359	43.97	847975	WAITING_START	n/a	n/a	n/a	-999	6	[0, 0, 0]	n/a	FR1	0	R1308T
1896.329	0.0	891944	COUNTDOWN_START	n/a	n/a	n/a	-999	6	[0, 0, 0]	n/a	FR1	0	R1308T
1896.329	10.428	891944	WAITING_END	n/a	n/a	n/a	-999	6	[0, 0, 0]	n/a	FR1	0	R1308T
1906.757	0.001	902371	COUNTDOWN_END	n/a	n/a	n/a	-999	6	[0, 0, 0]	n/a	FR1	0	R1308T
1906.758	1.222	902372	ORIENT_START	n/a	n/a	n/a	-999	6	[0, 0, 0]	n/a	FR1	0	R1308T
1907.98	0.0	903594	ORIENT_END	n/a	n/a	n/a	-999	6	[0, 0, 0]	n/a	FR1	0	R1308T
1907.98	1.122	903594	ENCODING_START	n/a	n/a	n/a	-999	6	[0, 0, 0]	n/a	FR1	0	R1308T
1909.102	1.629	904716	WORD	n/a	wordpools/wordpool_EN.txt	FOOT	1	6	[0, 0, 0]	n/a	FR1	0	R1308T
1910.731	0.891	906345	WORD_OFF	n/a	n/a	FOOT	1	6	[0, 0, 0]	n/a	FR1	0	R1308T
1911.622	1.627	907236	WORD	n/a	wordpools/wordpool_EN.txt	ROOM	2	6	[0, 0, 0]	n/a	FR1	0	R1308T
1913.249	0.903	908863	WORD_OFF	n/a	n/a	ROOM	2	6	[0, 0, 0]	n/a	FR1	0	R1308T
1914.152	1.63	909766	WORD	n/a	wordpools/wordpool_EN.txt	BADGE	3	6	[0, 0, 0]	n/a	FR1	0	R1308T
1915.782	1.021	911396	WORD_OFF	n/a	n/a	BADGE	3	6	[0, 0, 0]	n/a	FR1	0	R1308T
1916.803	1.63	912417	WORD	n/a	wordpools/wordpool_EN.txt	LEAF	4	6	[0, 0, 0]	n/a	FR1	0	R1308T
1918.433	0.955	914047	WORD_OFF	n/a	n/a	LEAF	4	6	[0, 0, 0]	n/a	FR1	0	R1308T
1919.388	1.628	915001	WORD	n/a	wordpools/wordpool_EN.txt	SLIME	5	6	[0, 0, 0]	n/a	FR1	0	R1308T
1921.016	1.148	916629	WORD_OFF	n/a	n/a	SLIME	5	6	[0, 0, 0]	n/a	FR1	0	R1308T
1922.164	1.636	917777	WORD	n/a	wordpools/wordpool_EN.txt	CHEEK	6	6	[0, 0, 0]	n/a	FR1	0	R1308T
1923.8	0.814	919413	WORD_OFF	n/a	n/a	CHEEK	6	6	[0, 0, 0]	n/a	FR1	0	R1308T
1924.614	1.637	920227	WORD	n/a	wordpools/wordpool_EN.txt	GATE	7	6	[0, 0, 0]	n/a	FR1	0	R1308T
1926.251	0.952	921864	WORD_OFF	n/a	n/a	GATE	7	6	[0, 0, 0]	n/a	FR1	0	R1308T
1927.203	1.632	922816	WORD	n/a	wordpools/wordpool_EN.txt	PARK	8	6	[0, 0, 0]	n/a	FR1	0	R1308T
1928.835	1.099	924448	WORD_OFF	n/a	n/a	PARK	8	6	[0, 0, 0]	n/a	FR1	0	R1308T
1929.934	1.634	925547	WORD	n/a	wordpools/wordpool_EN.txt	JET	9	6	[0, 0, 0]	n/a	FR1	0	R1308T
1931.568	1.151	927181	WORD_OFF	n/a	n/a	JET	9	6	[0, 0, 0]	n/a	FR1	0	R1308T
1932.719	1.633	928332	WORD	n/a	wordpools/wordpool_EN.txt	BATH	10	6	[0, 0, 0]	n/a	FR1	0	R1308T
1934.352	0.993	929965	WORD_OFF	n/a	n/a	BATH	10	6	[0, 0, 0]	n/a	FR1	0	R1308T
1935.345	1.623	930958	WORD	n/a	wordpools/wordpool_EN.txt	BED	11	6	[0, 0, 0]	n/a	FR1	0	R1308T
1936.968	0.954	932581	WORD_OFF	n/a	n/a	BED	11	6	[0, 0, 0]	n/a	FR1	0	R1308T
1937.922	1.631	933535	WORD	n/a	wordpools/wordpool_EN.txt	BANK	12	6	[0, 0, 0]	n/a	FR1	0	R1308T
1939.553	0.001	935166	WORD_OFF	n/a	n/a	BANK	12	6	[0, 0, 0]	n/a	FR1	0	R1308T
1939.554	0.0	935167	ENCODING_END	n/a	n/a	n/a	-999	6	[0, 0, 0]	n/a	FR1	0	R1308T
1939.554	0.0	935167	DISTRACT_START	n/a	n/a	n/a	-999	6	[0, 0, 0]	n/a	FR1	0	R1308T
1939.554	0.016	935167	START	n/a	n/a	n/a	-999	7	[-999, -999, -999]	n/a	FR1	0	R1308T
1939.57	9.384	935183	PROB	9.384	n/a	n/a	-999	7	[1, 8, 8]	17	FR1	0	R1308T
1948.954	15.804	944566	PROB	15.804	n/a	n/a	-999	7	[8, 7, 3]	18	FR1	0	R1308T
1964.758	0.016	960369	STOP	n/a	n/a	n/a	-999	7	[-999, -999, -999]	n/a	FR1	0	R1308T
1964.774	0.6	960385	DISTRACT_END	n/a	n/a	n/a	-999	6	[0, 0, 0]	n/a	FR1	0	R1308T
1965.374	1.617	960985	RETRIEVAL_ORIENT_START	n/a	n/a	n/a	-999	6	[0, 0, 0]	n/a	FR1	0	R1308T
1966.991	0.0	962602	RETRIEVAL_ORIENT_END	n/a	n/a	n/a	-999	6	[0, 0, 0]	n/a	FR1	0	R1308T
1966.991	1.676	962602	REC_START	n/a	n/a	n/a	-999	6	[0, 0, 0]	n/a	FR1	0	R1308T
1968.667	1.25	964278	REC_WORD	1.25	n/a	FOOT	1	6	[0, 0, 0]	n/a	FR1	0	R1308T
1969.917	1.711	965528	REC_WORD	1.711	n/a	ROOM	2	6	[0, 0, 0]	n/a	FR1	0	R1308T
1971.628	1.9	967239	REC_WORD	1.9	n/a	BATH	10	6	[0, 0, 0]	n/a	FR1	0	R1308T
1973.528	2.15	969139	REC_WORD	2.15	n/a	BED	11	6	[0, 0, 0]	n/a	FR1	0	R1308T
1975.678	21.326	971289	REC_WORD	21.326	n/a	SLIME	5	6	[0, 0, 0]	n/a	FR1	0	R1308T
1997.004	0.0	992614	REC_END	n/a	n/a	n/a	-999	6	[0, 0, 0]	n/a	FR1	0	R1308T
1997.004	0.014	992614	TRIAL_END	n/a	n/a	n/a	-999	6	[0, 0, 0]	n/a	FR1	0	R1308T
1997.018	0.0	992628	TRIAL_START	n/a	n/a	n/a	-999	7	[0, 0, 0]	n/a	FR1	0	R1308T
1997.018	0.001	992628	TRIAL	n/a	n/a	n/a	-999	7	[0, 0, 0]	n/a	FR1	0	R1308T
1997.019	13.097	992629	WAITING_START	n/a	n/a	n/a	-999	7	[0, 0, 0]	n/a	FR1	0	R1308T
2010.116	0.001	1005725	WAITING_END	n/a	n/a	n/a	-999	7	[0, 0, 0]	n/a	FR1	0	R1308T
2010.117	10.429	1005726	COUNTDOWN_START	n/a	n/a	n/a	-999	7	[0, 0, 0]	n/a	FR1	0	R1308T
2020.546	0.0	1016155	COUNTDOWN_END	n/a	n/a	n/a	-999	7	[0, 0, 0]	n/a	FR1	0	R1308T
2020.546	1.172	1016155	ORIENT_START	n/a	n/a	n/a	-999	7	[0, 0, 0]	n/a	FR1	0	R1308T
2021.718	0.001	1017327	ORIENT_END	n/a	n/a	n/a	-999	7	[0, 0, 0]	n/a	FR1	0	R1308T
2021.719	1.113	1017328	ENCODING_START	n/a	n/a	n/a	-999	7	[0, 0, 0]	n/a	FR1	0	R1308T
2022.832	1.637	1018441	WORD	n/a	wordpools/wordpool_EN.txt	BOOK	1	7	[0, 0, 0]	n/a	FR1	0	R1308T
2024.469	1.148	1020078	WORD_OFF	n/a	n/a	BOOK	1	7	[0, 0, 0]	n/a	FR1	0	R1308T
2025.617	1.635	1021226	WORD	n/a	wordpools/wordpool_EN.txt	TAIL	2	7	[0, 0, 0]	n/a	FR1	0	R1308T
2027.252	0.876	1022861	WORD_OFF	n/a	n/a	TAIL	2	7	[0, 0, 0]	n/a	FR1	0	R1308T
2028.128	1.625	1023737	WORD	n/a	wordpools/wordpool_EN.txt	BOY	3	7	[0, 0, 0]	n/a	FR1	0	R1308T
2029.753	1.109	1025362	WORD_OFF	n/a	n/a	BOY	3	7	[0, 0, 0]	n/a	FR1	0	R1308T
2030.862	1.625	1026471	WORD	n/a	wordpools/wordpool_EN.txt	SPRING	4	7	[0, 0, 0]	n/a	FR1	0	R1308T
2032.487	1.104	1028095	WORD_OFF	n/a	n/a	SPRING	4	7	[0, 0, 0]	n/a	FR1	0	R1308T
2033.591	1.63	1029199	WORD	n/a	wordpools/wordpool_EN.txt	PEACH	5	7	[0, 0, 0]	n/a	FR1	0	R1308T
2035.221	0.911	1030829	WORD_OFF	n/a	n/a	PEACH	5	7	[0, 0, 0]	n/a	FR1	0	R1308T
2036.132	1.622	1031740	WORD	n/a	wordpools/wordpool_EN.txt	DART	6	7	[0, 0, 0]	n/a	FR1	0	R1308T
2037.754	0.84	1033362	WORD_OFF	n/a	n/a	DART	6	7	[0, 0, 0]	n/a	FR1	0	R1308T
2038.594	1.628	1034202	WORD	n/a	wordpools/wordpool_EN.txt	THREAD	7	7	[0, 0, 0]	n/a	FR1	0	R1308T
2040.222	1.03	1035830	WORD_OFF	n/a	n/a	THREAD	7	7	[0, 0, 0]	n/a	FR1	0	R1308T
2041.252	1.637	1036860	WORD	n/a	wordpools/wordpool_EN.txt	MILK	8	7	[0, 0, 0]	n/a	FR1	0	R1308T
2042.889	0.869	1038497	WORD_OFF	n/a	n/a	MILK	8	7	[0, 0, 0]	n/a	FR1	0	R1308T
2043.758	1.631	1039366	WORD	n/a	wordpools/wordpool_EN.txt	BLOOM	9	7	[0, 0, 0]	n/a	FR1	0	R1308T
2045.389	0.968	1040997	WORD_OFF	n/a	n/a	BLOOM	9	7	[0, 0, 0]	n/a	FR1	0	R1308T
2046.357	1.632	1041965	WORD	n/a	wordpools/wordpool_EN.txt	CAGE	10	7	[0, 0, 0]	n/a	FR1	0	R1308T
2047.989	0.918	1043597	WORD_OFF	n/a	n/a	CAGE	10	7	[0, 0, 0]	n/a	FR1	0	R1308T
2048.907	1.634	1044515	WORD	n/a	wordpools/wordpool_EN.txt	ARK	11	7	[0, 0, 0]	n/a	FR1	0	R1308T
2050.541	1.052	1046149	WORD_OFF	n/a	n/a	ARK	11	7	[0, 0, 0]	n/a	FR1	0	R1308T
2051.593	1.631	1047201	WORD	n/a	wordpools/wordpool_EN.txt	LAMP	12	7	[0, 0, 0]	n/a	FR1	0	R1308T
2053.224	0.0	1048832	ENCODING_END	n/a	n/a	n/a	-999	7	[0, 0, 0]	n/a	FR1	0	R1308T
2053.224	0.001	1048832	WORD_OFF	n/a	n/a	LAMP	12	7	[0, 0, 0]	n/a	FR1	0	R1308T
2053.225	0.0	1048833	DISTRACT_START	n/a	n/a	n/a	-999	7	[0, 0, 0]	n/a	FR1	0	R1308T
2053.225	0.015	1048833	START	n/a	n/a	n/a	-999	8	[-999, -999, -999]	n/a	FR1	0	R1308T
2053.24	7.485	1048848	PROB	7.485	n/a	n/a	-999	8	[9, 2, 8]	19	FR1	0	R1308T
2060.725	10.552	1056332	PROB	10.552	n/a	n/a	-999	8	[9, 9, 6]	14	FR1	0	R1308T
2071.277	11.307	1066884	PROB	11.307	n/a	n/a	-999	8	[6, 6, 3]	15	FR1	0	R1308T
2082.584	0.012	1078190	STOP	n/a	n/a	n/a	-999	8	[-999, -999, -999]	n/a	FR1	0	R1308T
2082.596	0.594	1078202	DISTRACT_END	n/a	n/a	n/a	-999	7	[0, 0, 0]	n/a	FR1	0	R1308T
2083.19	1.706	1078796	RETRIEVAL_ORIENT_START	n/a	n/a	n/a	-999	7	[0, 0, 0]	n/a	FR1	0	R1308T
2084.896	0.001	1080502	RETRIEVAL_ORIENT_END	n/a	n/a	n/a	-999	7	[0, 0, 0]	n/a	FR1	0	R1308T
2084.897	1.488	1080503	REC_START	n/a	n/a	n/a	-999	7	[0, 0, 0]	n/a	FR1	0	R1308T
2086.385	1.611	1081991	REC_WORD	1.611	n/a	BOOK	1	7	[0, 0, 0]	n/a	FR1	0	R1308T
2087.996	1.805	1083602	REC_WORD	1.805	n/a	BOY	3	7	[0, 0, 0]	n/a	FR1	0	R1308T
2089.801	1.993	1085407	REC_WORD	1.993	n/a	TAIL	2	7	[0, 0, 0]	n/a	FR1	0	R1308T
2091.794	2.078	1087400	REC_WORD	2.078	n/a	PEACH	5	7	[0, 0, 0]	n/a	FR1	0	R1308T
2093.872	5.217	1089478	REC_WORD	5.217	n/a	ARK	11	7	[0, 0, 0]	n/a	FR1	0	R1308T
2099.089	8.398	1094695	REC_WORD	8.398	n/a	DART	6	7	[0, 0, 0]	n/a	FR1	0	R1308T
2107.487	5.951	1103092	REC_WORD	5.951	n/a	TAIL	2	7	[0, 0, 0]	n/a	FR1	0	R1308T
2113.438	1.471	1109043	REC_WORD	1.471	n/a	BLOOM	9	7	[0, 0, 0]	n/a	FR1	0	R1308T
2114.909	0.0	1110514	REC_END	n/a	n/a	n/a	-999	7	[0, 0, 0]	n/a	FR1	0	R1308T
2114.909	0.016	1110514	TRIAL_END	n/a	n/a	n/a	-999	7	[0, 0, 0]	n/a	FR1	0	R1308T
2114.925	0.001	1110530	TRIAL_START	n/a	n/a	n/a	-999	8	[0, 0, 0]	n/a	FR1	0	R1308T
2114.926	0.0	1110531	TRIAL	n/a	n/a	n/a	-999	8	[0, 0, 0]	n/a	FR1	0	R1308T
2114.926	24.564	1110531	WAITING_START	n/a	n/a	n/a	-999	8	[0, 0, 0]	n/a	FR1	0	R1308T
2139.49	0.0	1135094	WAITING_END	n/a	n/a	n/a	-999	8	[0, 0, 0]	n/a	FR1	0	R1308T
2139.49	10.428	1135094	COUNTDOWN_START	n/a	n/a	n/a	-999	8	[0, 0, 0]	n/a	FR1	0	R1308T
2149.918	0.001	1145521	COUNTDOWN_END	n/a	n/a	n/a	-999	8	[0, 0, 0]	n/a	FR1	0	R1308T
2149.919	1.256	1145522	ORIENT_START	n/a	n/a	n/a	-999	8	[0, 0, 0]	n/a	FR1	0	R1308T
2151.175	0.0	1146778	ENCODING_START	n/a	n/a	n/a	-999	8	[0, 0, 0]	n/a	FR1	0	R1308T
2151.175	1.086	1146778	ORIENT_END	n/a	n/a	n/a	-999	8	[0, 0, 0]	n/a	FR1	0	R1308T
2152.261	1.631	1147864	WORD	n/a	wordpools/wordpool_EN.txt	CLOTH	1	8	[0, 0, 0]	n/a	FR1	0	R1308T
2153.892	0.868	1149495	WORD_OFF	n/a	n/a	CLOTH	1	8	[0, 0, 0]	n/a	FR1	0	R1308T
2154.76	1.633	1150363	WORD	n/a	wordpools/wordpool_EN.txt	SPONGE	2	8	[0, 0, 0]	n/a	FR1	0	R1308T
2156.393	1.137	1151996	WORD_OFF	n/a	n/a	SPONGE	2	8	[0, 0, 0]	n/a	FR1	0	R1308T
2157.53	1.63	1153133	WORD	n/a	wordpools/wordpool_EN.txt	SNAKE	3	8	[0, 0, 0]	n/a	FR1	0	R1308T
2159.16	0.88	1154763	WORD_OFF	n/a	n/a	SNAKE	3	8	[0, 0, 0]	n/a	FR1	0	R1308T
2160.04	1.637	1155643	WORD	n/a	wordpools/wordpool_EN.txt	PLANT	4	8	[0, 0, 0]	n/a	FR1	0	R1308T
2161.677	0.765	1157280	WORD_OFF	n/a	n/a	PLANT	4	8	[0, 0, 0]	n/a	FR1	0	R1308T
2162.442	1.634	1158045	WORD	n/a	wordpools/wordpool_EN.txt	ROSE	5	8	[0, 0, 0]	n/a	FR1	0	R1308T
2164.076	0.848	1159679	WORD_OFF	n/a	n/a	ROSE	5	8	[0, 0, 0]	n/a	FR1	0	R1308T
2164.924	1.62	1160527	WORD	n/a	wordpools/wordpool_EN.txt	GEESE	6	8	[0, 0, 0]	n/a	FR1	0	R1308T
2166.544	1.147	1162147	WORD_OFF	n/a	n/a	GEESE	6	8	[0, 0, 0]	n/a	FR1	0	R1308T
2167.691	1.621	1163293	WORD	n/a	wordpools/wordpool_EN.txt	HOSE	7	8	[0, 0, 0]	n/a	FR1	0	R1308T
2169.312	1.063	1164914	WORD_OFF	n/a	n/a	HOSE	7	8	[0, 0, 0]	n/a	FR1	0	R1308T
2170.375	1.636	1165977	WORD	n/a	wordpools/wordpool_EN.txt	TIE	8	8	[0, 0, 0]	n/a	FR1	0	R1308T
2172.011	1.014	1167613	WORD_OFF	n/a	n/a	TIE	8	8	[0, 0, 0]	n/a	FR1	0	R1308T
2173.025	1.638	1168627	WORD	n/a	wordpools/wordpool_EN.txt	STEAK	9	8	[0, 0, 0]	n/a	FR1	0	R1308T
2174.663	1.093	1170265	WORD_OFF	n/a	n/a	STEAK	9	8	[0, 0, 0]	n/a	FR1	0	R1308T
2175.756	1.624	1171358	WORD	n/a	wordpools/wordpool_EN.txt	ZOO	10	8	[0, 0, 0]	n/a	FR1	0	R1308T
2177.38	1.137	1172982	WORD_OFF	n/a	n/a	ZOO	10	8	[0, 0, 0]	n/a	FR1	0	R1308T
2178.517	1.63	1174119	WORD	n/a	wordpools/wordpool_EN.txt	MUD	11	8	[0, 0, 0]	n/a	FR1	0	R1308T
2180.147	0.802	1175749	WORD_OFF	n/a	n/a	MUD	11	8	[0, 0, 0]	n/a	FR1	0	R1308T
2180.949	1.615	1176551	WORD	n/a	wordpools/wordpool_EN.txt	GOLD	12	8	[0, 0, 0]	n/a	FR1	0	R1308T
2182.564	0.001	1178166	WORD_OFF	n/a	n/a	GOLD	12	8	[0, 0, 0]	n/a	FR1	0	R1308T
2182.565	0.0	1178167	DISTRACT_START	n/a	n/a	n/a	-999	8	[0, 0, 0]	n/a	FR1	0	R1308T
2182.565	0.0	1178167	ENCODING_END	n/a	n/a	n/a	-999	8	[0, 0, 0]	n/a	FR1	0	R1308T
2182.565	0.015	1178167	START	n/a	n/a	n/a	-999	9	[-999, -999, -999]	n/a	FR1	0	R1308T
2182.58	6.952	1178182	PROB	6.952	n/a	n/a	-999	9	[3, 9, 9]	21	FR1	0	R1308T
2189.532	8.368	1185134	PROB	8.368	n/a	n/a	-999	9	[5, 3, 8]	16	FR1	0	R1308T
2197.9	8.93	1193501	PROB	8.93	n/a	n/a	-999	9	[9, 5, 9]	13	FR1	0	R1308T
2206.83	0.022	1202431	STOP	n/a	n/a	n/a	-999	9	[-999, -999, -999]	n/a	FR1	0	R1308T
2206.852	0.634	1202453	DISTRACT_END	n/a	n/a	n/a	-999	8	[0, 0, 0]	n/a	FR1	0	R1308T
2207.486	1.633	1203087	RETRIEVAL_ORIENT_START	n/a	n/a	n/a	-999	8	[0, 0, 0]	n/a	FR1	0	R1308T
2209.119	0.0	1204720	RETRIEVAL_ORIENT_END	n/a	n/a	n/a	-999	8	[0, 0, 0]	n/a	FR1	0	R1308T
2209.119	2.308	1204720	REC_START	n/a	n/a	n/a	-999	8	[0, 0, 0]	n/a	FR1	0	R1308T
2211.427	1.749	1207028	REC_WORD	1.749	n/a	GEESE	6	8	[0, 0, 0]	n/a	FR1	0	R1308T
2213.176	2.759	1208776	REC_WORD	2.759	n/a	ZOO	10	8	[0, 0, 0]	n/a	FR1	0	R1308T
2215.935	10.217	1211535	REC_WORD	10.217	n/a	TAIL	-999	8	[0, 0, 0]	n/a	FR1	0	R1308T
2226.152	12.98	1221752	REC_WORD	12.98	n/a	HOSE	7	8	[0, 0, 0]	n/a	FR1	0	R1308T
2239.132	0.001	1234731	REC_END	n/a	n/a	n/a	-999	8	[0, 0, 0]	n/a	FR1	0	R1308T
2239.133	0.016	1234732	TRIAL_END	n/a	n/a	n/a	-999	8	[0, 0, 0]	n/a	FR1	0	R1308T
2239.149	0.001	1234748	TRIAL_START	n/a	n/a	n/a	-999	9	[0, 0, 0]	n/a	FR1	0	R1308T
2239.15	0.0	1234749	WAITING_START	n/a	n/a	n/a	-999	9	[0, 0, 0]	n/a	FR1	0	R1308T
2239.15	40.232	1234749	TRIAL	n/a	n/a	n/a	-999	9	[0, 0, 0]	n/a	FR1	0	R1308T
2279.382	0.0	1274980	WAITING_END	n/a	n/a	n/a	-999	9	[0, 0, 0]	n/a	FR1	0	R1308T
2279.382	10.428	1274980	COUNTDOWN_START	n/a	n/a	n/a	-999	9	[0, 0, 0]	n/a	FR1	0	R1308T
2289.81	0.0	1285407	COUNTDOWN_END	n/a	n/a	n/a	-999	9	[0, 0, 0]	n/a	FR1	0	R1308T
2289.81	1.074	1285407	ORIENT_START	n/a	n/a	n/a	-999	9	[0, 0, 0]	n/a	FR1	0	R1308T
2290.884	0.0	1286481	ORIENT_END	n/a	n/a	n/a	-999	9	[0, 0, 0]	n/a	FR1	0	R1308T
2290.884	0.912	1286481	ENCODING_START	n/a	n/a	n/a	-999	9	[0, 0, 0]	n/a	FR1	0	R1308T
2291.796	1.638	1287393	WORD	n/a	wordpools/wordpool_EN.txt	KITE	1	9	[0, 0, 0]	n/a	FR1	0	R1308T
2293.434	1.097	1289031	WORD_OFF	n/a	n/a	KITE	1	9	[0, 0, 0]	n/a	FR1	0	R1308T
2294.531	1.637	1290128	WORD	n/a	wordpools/wordpool_EN.txt	WALL	2	9	[0, 0, 0]	n/a	FR1	0	R1308T
2296.168	0.905	1291765	WORD_OFF	n/a	n/a	WALL	2	9	[0, 0, 0]	n/a	FR1	0	R1308T
2297.073	1.629	1292670	WORD	n/a	wordpools/wordpool_EN.txt	SAIL	3	9	[0, 0, 0]	n/a	FR1	0	R1308T
2298.702	0.92	1294299	WORD_OFF	n/a	n/a	SAIL	3	9	[0, 0, 0]	n/a	FR1	0	R1308T
2299.622	1.63	1295219	WORD	n/a	wordpools/wordpool_EN.txt	JUDGE	4	9	[0, 0, 0]	n/a	FR1	0	R1308T
2301.252	0.857	1296849	WORD_OFF	n/a	n/a	JUDGE	4	9	[0, 0, 0]	n/a	FR1	0	R1308T
2302.109	1.627	1297706	WORD	n/a	wordpools/wordpool_EN.txt	SLEEVE	5	9	[0, 0, 0]	n/a	FR1	0	R1308T
2303.736	1.066	1299332	WORD_OFF	n/a	n/a	SLEEVE	5	9	[0, 0, 0]	n/a	FR1	0	R1308T
2304.802	1.635	1300398	WORD	n/a	wordpools/wordpool_EN.txt	PIN	6	9	[0, 0, 0]	n/a	FR1	0	R1308T
2306.437	0.789	1302033	WORD_OFF	n/a	n/a	PIN	6	9	[0, 0, 0]	n/a	FR1	0	R1308T
2307.226	1.628	1302822	WORD	n/a	wordpools/wordpool_EN.txt	SPEAR	7	9	[0, 0, 0]	n/a	FR1	0	R1308T
2308.854	1.076	1304450	WORD_OFF	n/a	n/a	SPEAR	7	9	[0, 0, 0]	n/a	FR1	0	R1308T
2309.93	1.607	1305526	WORD	n/a	wordpools/wordpool_EN.txt	SOAP	8	9	[0, 0, 0]	n/a	FR1	0	R1308T
2311.537	0.883	1307133	WORD_OFF	n/a	n/a	SOAP	8	9	[0, 0, 0]	n/a	FR1	0	R1308T
2312.42	1.634	1308016	WORD	n/a	wordpools/wordpool_EN.txt	SEAT	9	9	[0, 0, 0]	n/a	FR1	0	R1308T
2314.054	0.761	1309650	WORD_OFF	n/a	n/a	SEAT	9	9	[0, 0, 0]	n/a	FR1	0	R1308T
2314.815	1.623	1310411	WORD	n/a	wordpools/wordpool_EN.txt	STORE	10	9	[0, 0, 0]	n/a	FR1	0	R1308T
2316.438	1.14	1312034	WORD_OFF	n/a	n/a	STORE	10	9	[0, 0, 0]	n/a	FR1	0	R1308T
2317.578	1.628	1313174	WORD	n/a	wordpools/wordpool_EN.txt	JEEP	11	9	[0, 0, 0]	n/a	FR1	0	R1308T
2319.206	1.131	1314802	WORD_OFF	n/a	n/a	JEEP	11	9	[0, 0, 0]	n/a	FR1	0	R1308T
2320.337	1.635	1315933	WORD	n/a	wordpools/wordpool_EN.txt	BENCH	12	9	[0, 0, 0]	n/a	FR1	0	R1308T
2321.972	0.0	1317568	WORD_OFF	n/a	n/a	BENCH	12	9	[0, 0, 0]	n/a	FR1	0	R1308T
2321.972	0.0	1317568	ENCODING_END	n/a	n/a	n/a	-999	9	[0, 0, 0]	n/a	FR1	0	R1308T
2321.972	0.001	1317568	DISTRACT_START	n/a	n/a	n/a	-999	9	[0, 0, 0]	n/a	FR1	0	R1308T
2321.973	0.015	1317569	START	n/a	n/a	n/a	-999	10	[-999, -999, -999]	n/a	FR1	0	R1308T
2321.988	5.152	1317584	PROB	5.152	n/a	n/a	-999	10	[3, 1, 1]	5	FR1	0	R1308T
2327.14	7.018	1322735	PROB	7.018	n/a	n/a	-999	10	[6, 6, 1]	13	FR1	0	R1308T
2334.158	8.156	1329753	PROB	8.156	n/a	n/a	-999	10	[6, 5, 6]	17	FR1	0	R1308T
2342.314	0.012	1337909	STOP	n/a	n/a	n/a	-999	10	[-999, -999, -999]	n/a	FR1	0	R1308T
2342.326	0.641	1337921	DISTRACT_END	n/a	n/a	n/a	-999	9	[0, 0, 0]	n/a	FR1	0	R1308T
2342.967	1.56	1338562	RETRIEVAL_ORIENT_START	n/a	n/a	n/a	-999	9	[0, 0, 0]	n/a	FR1	0	R1308T
2344.527	0.0	1340122	RETRIEVAL_ORIENT_END	n/a	n/a	n/a	-999	9	[0, 0, 0]	n/a	FR1	0	R1308T
2344.527	1.148	1340122	REC_START	n/a	n/a	n/a	-999	9	[0, 0, 0]	n/a	FR1	0	R1308T
2345.675	1.144	1341270	REC_WORD	1.144	n/a	JUDGE	4	9	[0, 0, 0]	n/a	FR1	0	R1308T
2346.819	2.166	1342414	REC_WORD	2.166	n/a	SOAP	8	9	[0, 0, 0]	n/a	FR1	0	R1308T
2348.985	3.166	1344579	REC_WORD	3.166	n/a	SLEEVE	5	9	[0, 0, 0]	n/a	FR1	0	R1308T
2352.151	3.107	1347745	REC_WORD	3.107	n/a	JEEP	11	9	[0, 0, 0]	n/a	FR1	0	R1308T
2355.258	19.282	1350852	REC_WORD	19.282	n/a	PIN	6	9	[0, 0, 0]	n/a	FR1	0	R1308T
2374.54	0.001	1370133	REC_END	n/a	n/a	n/a	-999	9	[0, 0, 0]	n/a	FR1	0	R1308T
2374.541	0.015	1370134	TRIAL_END	n/a	n/a	n/a	-999	9	[0, 0, 0]	n/a	FR1	0	R1308T
2374.556	0.0	1370149	TRIAL_START	n/a	n/a	n/a	-999	10	[0, 0, 0]	n/a	FR1	0	R1308T
2374.556	0.0	1370149	TRIAL	n/a	n/a	n/a	-999	10	[0, 0, 0]	n/a	FR1	0	R1308T
2374.556	24.064	1370149	WAITING_START	n/a	n/a	n/a	-999	10	[0, 0, 0]	n/a	FR1	0	R1308T
2398.62	0.0	1394212	WAITING_END	n/a	n/a	n/a	-999	10	[0, 0, 0]	n/a	FR1	0	R1308T
2398.62	10.43	1394212	COUNTDOWN_START	n/a	n/a	n/a	-999	10	[0, 0, 0]	n/a	FR1	0	R1308T
2409.05	0.0	1404642	ORIENT_START	n/a	n/a	n/a	-999	10	[0, 0, 0]	n/a	FR1	0	R1308T
2409.05	1.139	1404642	COUNTDOWN_END	n/a	n/a	n/a	-999	10	[0, 0, 0]	n/a	FR1	0	R1308T
2410.189	0.0	1405781	ORIENT_END	n/a	n/a	n/a	-999	10	[0, 0, 0]	n/a	FR1	0	R1308T
2410.189	0.971	1405781	ENCODING_START	n/a	n/a	n/a	-999	10	[0, 0, 0]	n/a	FR1	0	R1308T
2411.16	1.629	1406752	WORD	n/a	wordpools/wordpool_EN.txt	SNAIL	1	10	[0, 0, 0]	n/a	FR1	0	R1308T
2412.789	0.796	1408381	WORD_OFF	n/a	n/a	SNAIL	1	10	[0, 0, 0]	n/a	FR1	0	R1308T
2413.585	1.621	1409177	WORD	n/a	wordpools/wordpool_EN.txt	JAR	2	10	[0, 0, 0]	n/a	FR1	0	R1308T
2415.206	1.036	1410798	WORD_OFF	n/a	n/a	JAR	2	10	[0, 0, 0]	n/a	FR1	0	R1308T
2416.242	1.632	1411833	WORD	n/a	wordpools/wordpool_EN.txt	BRIDGE	3	10	[0, 0, 0]	n/a	FR1	0	R1308T
2417.874	0.852	1413465	WORD_OFF	n/a	n/a	BRIDGE	3	10	[0, 0, 0]	n/a	FR1	0	R1308T
2418.726	1.631	1414317	WORD	n/a	wordpools/wordpool_EN.txt	GOAT	4	10	[0, 0, 0]	n/a	FR1	0	R1308T
2420.357	0.811	1415948	WORD_OFF	n/a	n/a	GOAT	4	10	[0, 0, 0]	n/a	FR1	0	R1308T
2421.168	1.623	1416759	WORD	n/a	wordpools/wordpool_EN.txt	WORM	5	10	[0, 0, 0]	n/a	FR1	0	R1308T
2422.791	0.766	1418382	WORD_OFF	n/a	n/a	WORM	5	10	[0, 0, 0]	n/a	FR1	0	R1308T
2423.557	1.635	1419148	WORD	n/a	wordpools/wordpool_EN.txt	CLIFF	6	10	[0, 0, 0]	n/a	FR1	0	R1308T
2425.192	0.943	1420783	WORD_OFF	n/a	n/a	CLIFF	6	10	[0, 0, 0]	n/a	FR1	0	R1308T
2426.135	1.624	1421726	WORD	n/a	wordpools/wordpool_EN.txt	HOUSE	7	10	[0, 0, 0]	n/a	FR1	0	R1308T
2427.759	0.957	1423350	WORD_OFF	n/a	n/a	HOUSE	7	10	[0, 0, 0]	n/a	FR1	0	R1308T
2428.716	1.626	1424307	WORD	n/a	wordpools/wordpool_EN.txt	RIB	8	10	[0, 0, 0]	n/a	FR1	0	R1308T
2430.342	0.965	1425933	WORD_OFF	n/a	n/a	RIB	8	10	[0, 0, 0]	n/a	FR1	0	R1308T
2431.307	1.635	1426898	WORD	n/a	wordpools/wordpool_EN.txt	SCHOOL	9	10	[0, 0, 0]	n/a	FR1	0	R1308T
2432.942	0.86	1428533	WORD_OFF	n/a	n/a	SCHOOL	9	10	[0, 0, 0]	n/a	FR1	0	R1308T
2433.802	1.625	1429393	WORD	n/a	wordpools/wordpool_EN.txt	ROOF	10	10	[0, 0, 0]	n/a	FR1	0	R1308T
2435.427	0.844	1431018	WORD_OFF	n/a	n/a	ROOF	10	10	[0, 0, 0]	n/a	FR1	0	R1308T
2436.271	1.623	1431862	WORD	n/a	wordpools/wordpool_EN.txt	HORN	11	10	[0, 0, 0]	n/a	FR1	0	R1308T
2437.894	0.97	1433485	WORD_OFF	n/a	n/a	HORN	11	10	[0, 0, 0]	n/a	FR1	0	R1308T
2438.864	1.63	1434454	WORD	n/a	wordpools/wordpool_EN.txt	CAR	12	10	[0, 0, 0]	n/a	FR1	0	R1308T
2440.494	0.001	1436084	WORD_OFF	n/a	n/a	CAR	12	10	[0, 0, 0]	n/a	FR1	0	R1308T
2440.495	0.0	1436085	ENCODING_END	n/a	n/a	n/a	-999	10	[0, 0, 0]	n/a	FR1	0	R1308T
2440.495	0.0	1436085	DISTRACT_START	n/a	n/a	n/a	-999	10	[0, 0, 0]	n/a	FR1	0	R1308T
2440.495	0.016	1436085	START	n/a	n/a	n/a	-999	11	[-999, -999, -999]	n/a	FR1	0	R1308T
2440.511	9.085	1436101	PROB	9.085	n/a	n/a	-999	11	[8, 7, 7]	22	FR1	0	R1308T
2449.596	13.048	1445186	PROB	13.048	n/a	n/a	-999	11	[7, 9, 4]	20	FR1	0	R1308T
2462.644	0.021	1458233	STOP	n/a	n/a	n/a	-999	11	[-999, -999, -999]	n/a	FR1	0	R1308T
2462.665	0.518	1458254	DISTRACT_END	n/a	n/a	n/a	-999	10	[0, 0, 0]	n/a	FR1	0	R1308T
2463.183	1.582	1458772	RETRIEVAL_ORIENT_START	n/a	n/a	n/a	-999	10	[0, 0, 0]	n/a	FR1	0	R1308T
2464.765	0.001	1460354	RETRIEVAL_ORIENT_END	n/a	n/a	n/a	-999	10	[0, 0, 0]	n/a	FR1	0	R1308T
2464.766	1.386	1460355	REC_START	n/a	n/a	n/a	-999	10	[0, 0, 0]	n/a	FR1	0	R1308T
2466.152	1.733	1461741	REC_WORD	1.733	n/a	SNAIL	1	10	[0, 0, 0]	n/a	FR1	0	R1308T
2467.885	1.337	1463474	REC_WORD	1.337	n/a	JAR	2	10	[0, 0, 0]	n/a	FR1	0	R1308T
2469.222	1.507	1464811	REC_WORD	1.507	n/a	GOAT	4	10	[0, 0, 0]	n/a	FR1	0	R1308T
2470.729	24.05	1466318	REC_WORD	24.05	n/a	CLIFF	6	10	[0, 0, 0]	n/a	FR1	0	R1308T
2494.779	0.001	1490367	REC_END	n/a	n/a	n/a	-999	10	[0, 0, 0]	n/a	FR1	0	R1308T
2494.78	0.014	1490368	TRIAL_END	n/a	n/a	n/a	-999	10	[0, 0, 0]	n/a	FR1	0	R1308T
2494.794	0.0	1490382	TRIAL_START	n/a	n/a	n/a	-999	11	[0, 0, 0]	n/a	FR1	0	R1308T
2494.794	0.0	1490382	TRIAL	n/a	n/a	n/a	-999	11	[0, 0, 0]	n/a	FR1	0	R1308T
2494.794	363.959	1490382	WAITING_START	n/a	n/a	n/a	-999	11	[0, 0, 0]	n/a	FR1	0	R1308T
2858.753	0.001	1854325	WAITING_END	n/a	n/a	n/a	-999	11	[0, 0, 0]	n/a	FR1	0	R1308T
2858.754	10.429	1854326	COUNTDOWN_START	n/a	n/a	n/a	-999	11	[0, 0, 0]	n/a	FR1	0	R1308T
2869.183	0.0	1864754	COUNTDOWN_END	n/a	n/a	n/a	-999	11	[0, 0, 0]	n/a	FR1	0	R1308T
2869.183	1.206	1864754	ORIENT_START	n/a	n/a	n/a	-999	11	[0, 0, 0]	n/a	FR1	0	R1308T
2870.389	0.0	1865960	ORIENT_END	n/a	n/a	n/a	-999	11	[0, 0, 0]	n/a	FR1	0	R1308T
2870.389	0.853	1865960	ENCODING_START	n/a	n/a	n/a	-999	11	[0, 0, 0]	n/a	FR1	0	R1308T
2871.242	1.631	1866813	WORD	n/a	wordpools/wordpool_EN.txt	ROCK	1	11	[0, 0, 0]	n/a	FR1	0	R1308T
2872.873	1.082	1868444	WORD_OFF	n/a	n/a	ROCK	1	11	[0, 0, 0]	n/a	FR1	0	R1308T
2873.955	1.635	1869526	WORD	n/a	wordpools/wordpool_EN.txt	MAIL	2	11	[0, 0, 0]	n/a	FR1	0	R1308T
2875.59	0.817	1871161	WORD_OFF	n/a	n/a	MAIL	2	11	[0, 0, 0]	n/a	FR1	0	R1308T
2876.407	1.632	1871978	WORD	n/a	wordpools/wordpool_EN.txt	ROOT	3	11	[0, 0, 0]	n/a	FR1	0	R1308T
2878.039	0.99	1873610	WORD_OFF	n/a	n/a	ROOT	3	11	[0, 0, 0]	n/a	FR1	0	R1308T
2879.029	1.612	1874600	WORD	n/a	wordpools/wordpool_EN.txt	SKI	4	11	[0, 0, 0]	n/a	FR1	0	R1308T
2880.641	0.859	1876212	WORD_OFF	n/a	n/a	SKI	4	11	[0, 0, 0]	n/a	FR1	0	R1308T
2881.5	1.625	1877071	WORD	n/a	wordpools/wordpool_EN.txt	MOUTH	5	11	[0, 0, 0]	n/a	FR1	0	R1308T
2883.125	0.94	1878696	WORD_OFF	n/a	n/a	MOUTH	5	11	[0, 0, 0]	n/a	FR1	0	R1308T
2884.065	1.626	1879636	WORD	n/a	wordpools/wordpool_EN.txt	ARM	6	11	[0, 0, 0]	n/a	FR1	0	R1308T
2885.691	0.91	1881262	WORD_OFF	n/a	n/a	ARM	6	11	[0, 0, 0]	n/a	FR1	0	R1308T
2886.601	1.625	1882172	WORD	n/a	wordpools/wordpool_EN.txt	GRASS	7	11	[0, 0, 0]	n/a	FR1	0	R1308T
2888.226	1.023	1883797	WORD_OFF	n/a	n/a	GRASS	7	11	[0, 0, 0]	n/a	FR1	0	R1308T
2889.249	1.627	1884820	WORD	n/a	wordpools/wordpool_EN.txt	CASH	8	11	[0, 0, 0]	n/a	FR1	0	R1308T
2890.876	0.858	1886446	WORD_OFF	n/a	n/a	CASH	8	11	[0, 0, 0]	n/a	FR1	0	R1308T
2891.734	1.626	1887304	WORD	n/a	wordpools/wordpool_EN.txt	WAVE	9	11	[0, 0, 0]	n/a	FR1	0	R1308T
2893.36	0.947	1888930	WORD_OFF	n/a	n/a	WAVE	9	11	[0, 0, 0]	n/a	FR1	0	R1308T
2894.307	1.636	1889877	WORD	n/a	wordpools/wordpool_EN.txt	GUARD	10	11	[0, 0, 0]	n/a	FR1	0	R1308T
2895.943	0.795	1891513	WORD_OFF	n/a	n/a	GUARD	10	11	[0, 0, 0]	n/a	FR1	0	R1308T
2896.738	1.623	1892308	WORD	n/a	wordpools/wordpool_EN.txt	FLEA	11	11	[0, 0, 0]	n/a	FR1	0	R1308T
2898.361	0.823	1893931	WORD_OFF	n/a	n/a	FLEA	11	11	[0, 0, 0]	n/a	FR1	0	R1308T
2899.184	1.627	1894754	WORD	n/a	wordpools/wordpool_EN.txt	OAK	12	11	[0, 0, 0]	n/a	FR1	0	R1308T
2900.811	0.001	1896381	WORD_OFF	n/a	n/a	OAK	12	11	[0, 0, 0]	n/a	FR1	0	R1308T
2900.812	0.0	1896382	ENCODING_END	n/a	n/a	n/a	-999	11	[0, 0, 0]	n/a	FR1	0	R1308T
2900.812	0.0	1896382	DISTRACT_START	n/a	n/a	n/a	-999	11	[0, 0, 0]	n/a	FR1	0	R1308T
2900.812	0.016	1896382	START	n/a	n/a	n/a	-999	12	[-999, -999, -999]	n/a	FR1	0	R1308T
2900.828	8.584	1896398	PROB	8.584	n/a	n/a	-999	12	[6, 2, 9]	15	FR1	0	R1308T
2909.412	5.534	1904982	PROB	5.534	n/a	n/a	-999	12	[2, 4, 5]	11	FR1	0	R1308T
2914.946	6.402	1910515	PROB	6.402	n/a	n/a	-999	12	[9, 4, 1]	14	FR1	0	R1308T
2921.348	0.017	1916917	STOP	n/a	n/a	n/a	-999	12	[-999, -999, -999]	n/a	FR1	0	R1308T
2921.365	0.662	1916934	DISTRACT_END	n/a	n/a	n/a	-999	11	[0, 0, 0]	n/a	FR1	0	R1308T
2922.027	1.672	1917596	RETRIEVAL_ORIENT_START	n/a	n/a	n/a	-999	11	[0, 0, 0]	n/a	FR1	0	R1308T
2923.699	0.0	1919268	RETRIEVAL_ORIENT_END	n/a	n/a	n/a	-999	11	[0, 0, 0]	n/a	FR1	0	R1308T
2923.699	1.473	1919268	REC_START	n/a	n/a	n/a	-999	11	[0, 0, 0]	n/a	FR1	0	R1308T
2925.172	2.179	1920741	REC_WORD	2.179	n/a	ROCK	1	11	[0, 0, 0]	n/a	FR1	0	R1308T
2927.351	2.612	1922920	REC_WORD	2.612	n/a	SKI	4	11	[0, 0, 0]	n/a	FR1	0	R1308T
2929.963	1.421	1925532	REC_WORD	1.421	n/a	MOUTH	5	11	[0, 0, 0]	n/a	FR1	0	R1308T
2931.384	4.592	1926953	REC_WORD	4.592	n/a	FLEA	11	11	[0, 0, 0]	n/a	FR1	0	R1308T
2935.976	17.734	1931544	REC_WORD	17.734	n/a	ROCK	1	11	[0, 0, 0]	n/a	FR1	0	R1308T
2953.71	0.0	1949278	REC_END	n/a	n/a	n/a	-999	11	[0, 0, 0]	n/a	FR1	0	R1308T
2953.71	0.014	1949278	TRIAL_END	n/a	n/a	n/a	-999	11	[0, 0, 0]	n/a	FR1	0	R1308T
2953.724	0.001	1949292	TRIAL_START	n/a	n/a	n/a	-999	12	[0, 0, 0]	n/a	FR1	0	R1308T
2953.725	0.0	1949293	WAITING_START	n/a	n/a	n/a	-999	12	[0, 0, 0]	n/a	FR1	0	R1308T
2953.725	36.368	1949293	TRIAL	n/a	n/a	n/a	-999	12	[0, 0, 0]	n/a	FR1	0	R1308T
2990.093	0.001	1985659	WAITING_END	n/a	n/a	n/a	-999	12	[0, 0, 0]	n/a	FR1	0	R1308T
2990.094	10.429	1985660	COUNTDOWN_START	n/a	n/a	n/a	-999	12	[0, 0, 0]	n/a	FR1	0	R1308T
3000.523	0.0	1996089	COUNTDOWN_END	n/a	n/a	n/a	-999	12	[0, 0, 0]	n/a	FR1	0	R1308T
3000.523	1.207	1996089	ORIENT_START	n/a	n/a	n/a	-999	12	[0, 0, 0]	n/a	FR1	0	R1308T
3001.73	0.0	1997296	ORIENT_END	n/a	n/a	n/a	-999	12	[0, 0, 0]	n/a	FR1	0	R1308T
3001.73	1.129	1997296	ENCODING_START	n/a	n/a	n/a	-999	12	[0, 0, 0]	n/a	FR1	0	R1308T
3002.859	1.638	1998424	WORD	n/a	wordpools/wordpool_EN.txt	SPARK	1	12	[0, 0, 0]	n/a	FR1	0	R1308T
3004.497	0.801	2000062	WORD_OFF	n/a	n/a	SPARK	1	12	[0, 0, 0]	n/a	FR1	0	R1308T
3005.298	1.632	2000863	WORD	n/a	wordpools/wordpool_EN.txt	TANK	2	12	[0, 0, 0]	n/a	FR1	0	R1308T
3006.93	0.834	2002495	WORD_OFF	n/a	n/a	TANK	2	12	[0, 0, 0]	n/a	FR1	0	R1308T
3007.764	1.633	2003329	WORD	n/a	wordpools/wordpool_EN.txt	SHARK	3	12	[0, 0, 0]	n/a	FR1	0	R1308T
3009.397	0.938	2004962	WORD_OFF	n/a	n/a	SHARK	3	12	[0, 0, 0]	n/a	FR1	0	R1308T
3010.335	1.629	2005900	WORD	n/a	wordpools/wordpool_EN.txt	CRANE	4	12	[0, 0, 0]	n/a	FR1	0	R1308T
3011.964	1.008	2007529	WORD_OFF	n/a	n/a	CRANE	4	12	[0, 0, 0]	n/a	FR1	0	R1308T
3012.972	1.61	2008537	WORD	n/a	wordpools/wordpool_EN.txt	HEN	5	12	[0, 0, 0]	n/a	FR1	0	R1308T
3014.582	1.041	2010147	WORD_OFF	n/a	n/a	HEN	5	12	[0, 0, 0]	n/a	FR1	0	R1308T
3015.623	1.626	2011188	WORD	n/a	wordpools/wordpool_EN.txt	CROWN	6	12	[0, 0, 0]	n/a	FR1	0	R1308T
3017.249	0.898	2012814	WORD_OFF	n/a	n/a	CROWN	6	12	[0, 0, 0]	n/a	FR1	0	R1308T
3018.147	1.636	2013712	WORD	n/a	wordpools/wordpool_EN.txt	TOOL	7	12	[0, 0, 0]	n/a	FR1	0	R1308T
3019.783	1.119	2015348	WORD_OFF	n/a	n/a	TOOL	7	12	[0, 0, 0]	n/a	FR1	0	R1308T
3020.902	1.631	2016467	WORD	n/a	wordpools/wordpool_EN.txt	ROPE	8	12	[0, 0, 0]	n/a	FR1	0	R1308T
3022.533	0.944	2018098	WORD_OFF	n/a	n/a	ROPE	8	12	[0, 0, 0]	n/a	FR1	0	R1308T
3023.477	1.623	2019042	WORD	n/a	wordpools/wordpool_EN.txt	STONE	9	12	[0, 0, 0]	n/a	FR1	0	R1308T
3025.1	0.801	2020665	WORD_OFF	n/a	n/a	STONE	9	12	[0, 0, 0]	n/a	FR1	0	R1308T
3025.901	1.633	2021465	WORD	n/a	wordpools/wordpool_EN.txt	GRAPE	10	12	[0, 0, 0]	n/a	FR1	0	R1308T
3027.534	1.117	2023098	WORD_OFF	n/a	n/a	GRAPE	10	12	[0, 0, 0]	n/a	FR1	0	R1308T
3028.651	1.634	2024215	WORD	n/a	wordpools/wordpool_EN.txt	CLOWN	11	12	[0, 0, 0]	n/a	FR1	0	R1308T
3030.285	1.045	2025849	WORD_OFF	n/a	n/a	CLOWN	11	12	[0, 0, 0]	n/a	FR1	0	R1308T
3031.33	1.621	2026894	WORD	n/a	wordpools/wordpool_EN.txt	WOOD	12	12	[0, 0, 0]	n/a	FR1	0	R1308T
3032.951	0.0	2028515	WORD_OFF	n/a	n/a	WOOD	12	12	[0, 0, 0]	n/a	FR1	0	R1308T
3032.951	0.0	2028515	ENCODING_END	n/a	n/a	n/a	-999	12	[0, 0, 0]	n/a	FR1	0	R1308T
3032.951	0.001	2028515	DISTRACT_START	n/a	n/a	n/a	-999	12	[0, 0, 0]	n/a	FR1	0	R1308T
3032.952	0.015	2028516	START	n/a	n/a	n/a	-999	13	[-999, -999, -999]	n/a	FR1	0	R1308T
3032.967	6.452	2028531	PROB	6.452	n/a	n/a	-999	13	[9, 9, 1]	19	FR1	0	R1308T
3039.419	8.852	2034983	PROB	8.852	n/a	n/a	-999	13	[6, 7, 2]	15	FR1	0	R1308T
3048.271	5.435	2043834	PROB	5.435	n/a	n/a	-999	13	[9, 2, 2]	13	FR1	0	R1308T
3053.706	0.016	2049269	STOP	n/a	n/a	n/a	-999	13	[-999, -999, -999]	n/a	FR1	0	R1308T
3053.722	0.567	2049285	DISTRACT_END	n/a	n/a	n/a	-999	12	[0, 0, 0]	n/a	FR1	0	R1308T
3054.289	1.617	2049852	RETRIEVAL_ORIENT_START	n/a	n/a	n/a	-999	12	[0, 0, 0]	n/a	FR1	0	R1308T
3055.906	0.0	2051469	RETRIEVAL_ORIENT_END	n/a	n/a	n/a	-999	12	[0, 0, 0]	n/a	FR1	0	R1308T
3055.906	1.316	2051469	REC_START	n/a	n/a	n/a	-999	12	[0, 0, 0]	n/a	FR1	0	R1308T
3057.222	1.39	2052785	REC_WORD	1.39	n/a	SPARK	1	12	[0, 0, 0]	n/a	FR1	0	R1308T
3058.612	1.857	2054175	REC_WORD	1.857	n/a	TANK	2	12	[0, 0, 0]	n/a	FR1	0	R1308T
3060.469	1.249	2056032	REC_WORD	1.249	n/a	TOOL	7	12	[0, 0, 0]	n/a	FR1	0	R1308T
3061.718	24.202	2057281	REC_WORD	24.202	n/a	CRANE	4	12	[0, 0, 0]	n/a	FR1	0	R1308T
3085.92	0.0	2081482	REC_END	n/a	n/a	n/a	-999	12	[0, 0, 0]	n/a	FR1	0	R1308T
3085.92	0.014	2081482	TRIAL_END	n/a	n/a	n/a	-999	12	[0, 0, 0]	n/a	FR1	0	R1308T
3085.934	0.0	2081496	TRIAL_START	n/a	n/a	n/a	-999	13	[0, 0, 0]	n/a	FR1	0	R1308T
3085.934	0.001	2081496	TRIAL	n/a	n/a	n/a	-999	13	[0, 0, 0]	n/a	FR1	0	R1308T
3085.935	38.567	2081497	WAITING_START	n/a	n/a	n/a	-999	13	[0, 0, 0]	n/a	FR1	0	R1308T
3124.502	0.0	2120062	WAITING_END	n/a	n/a	n/a	-999	13	[0, 0, 0]	n/a	FR1	0	R1308T
3124.502	10.429	2120062	COUNTDOWN_START	n/a	n/a	n/a	-999	13	[0, 0, 0]	n/a	FR1	0	R1308T
3134.931	0.001	2130491	COUNTDOWN_END	n/a	n/a	n/a	-999	13	[0, 0, 0]	n/a	FR1	0	R1308T
3134.932	1.189	2130492	ORIENT_START	n/a	n/a	n/a	-999	13	[0, 0, 0]	n/a	FR1	0	R1308T
3136.121	0.0	2131681	ORIENT_END	n/a	n/a	n/a	-999	13	[0, 0, 0]	n/a	FR1	0	R1308T
3136.121	1.109	2131681	ENCODING_START	n/a	n/a	n/a	-999	13	[0, 0, 0]	n/a	FR1	0	R1308T
3137.23	1.624	2132790	WORD	n/a	wordpools/wordpool_EN.txt	WEED	1	13	[0, 0, 0]	n/a	FR1	0	R1308T
3138.854	0.883	2134413	WORD_OFF	n/a	n/a	WEED	1	13	[0, 0, 0]	n/a	FR1	0	R1308T
3139.737	1.634	2135296	WORD	n/a	wordpools/wordpool_EN.txt	FUDGE	2	13	[0, 0, 0]	n/a	FR1	0	R1308T
3141.371	0.974	2136930	WORD_OFF	n/a	n/a	FUDGE	2	13	[0, 0, 0]	n/a	FR1	0	R1308T
3142.345	1.626	2137904	WORD	n/a	wordpools/wordpool_EN.txt	GLOVE	3	13	[0, 0, 0]	n/a	FR1	0	R1308T
3143.971	1.043	2139530	WORD_OFF	n/a	n/a	GLOVE	3	13	[0, 0, 0]	n/a	FR1	0	R1308T
3145.014	1.608	2140573	WORD	n/a	wordpools/wordpool_EN.txt	AXE	4	13	[0, 0, 0]	n/a	FR1	0	R1308T
3146.622	0.924	2142181	WORD_OFF	n/a	n/a	AXE	4	13	[0, 0, 0]	n/a	FR1	0	R1308T
3147.546	1.627	2143105	WORD	n/a	wordpools/wordpool_EN.txt	WAND	5	13	[0, 0, 0]	n/a	FR1	0	R1308T
3149.173	0.849	2144732	WORD_OFF	n/a	n/a	WAND	5	13	[0, 0, 0]	n/a	FR1	0	R1308T
3150.022	1.618	2145581	WORD	n/a	wordpools/wordpool_EN.txt	CAT	6	13	[0, 0, 0]	n/a	FR1	0	R1308T
3151.64	0.952	2147199	WORD_OFF	n/a	n/a	CAT	6	13	[0, 0, 0]	n/a	FR1	0	R1308T
3152.592	1.632	2148151	WORD	n/a	wordpools/wordpool_EN.txt	ROAD	7	13	[0, 0, 0]	n/a	FR1	0	R1308T
3154.224	1.049	2149783	WORD_OFF	n/a	n/a	ROAD	7	13	[0, 0, 0]	n/a	FR1	0	R1308T
3155.273	1.635	2150832	WORD	n/a	wordpools/wordpool_EN.txt	DUCK	8	13	[0, 0, 0]	n/a	FR1	0	R1308T
3156.908	0.972	2152467	WORD_OFF	n/a	n/a	DUCK	8	13	[0, 0, 0]	n/a	FR1	0	R1308T
3157.88	1.628	2153439	WORD	n/a	wordpools/wordpool_EN.txt	SHELL	9	13	[0, 0, 0]	n/a	FR1	0	R1308T
3159.508	1.092	2155067	WORD_OFF	n/a	n/a	SHELL	9	13	[0, 0, 0]	n/a	FR1	0	R1308T
3160.6	1.625	2156159	WORD	n/a	wordpools/wordpool_EN.txt	CROW	10	13	[0, 0, 0]	n/a	FR1	0	R1308T
3162.225	0.762	2157783	WORD_OFF	n/a	n/a	CROW	10	13	[0, 0, 0]	n/a	FR1	0	R1308T
3162.987	1.622	2158545	WORD	n/a	wordpools/wordpool_EN.txt	SHIELD	11	13	[0, 0, 0]	n/a	FR1	0	R1308T
3164.609	1.04	2160167	WORD_OFF	n/a	n/a	SHIELD	11	13	[0, 0, 0]	n/a	FR1	0	R1308T
3165.649	1.627	2161207	WORD	n/a	wordpools/wordpool_EN.txt	INK	12	13	[0, 0, 0]	n/a	FR1	0	R1308T
3167.276	0.001	2162834	WORD_OFF	n/a	n/a	INK	12	13	[0, 0, 0]	n/a	FR1	0	R1308T
3167.277	0.0	2162835	ENCODING_END	n/a	n/a	n/a	-999	13	[0, 0, 0]	n/a	FR1	0	R1308T
3167.277	0.0	2162835	DISTRACT_START	n/a	n/a	n/a	-999	13	[0, 0, 0]	n/a	FR1	0	R1308T
3167.277	0.016	2162835	START	n/a	n/a	n/a	-999	14	[-999, -999, -999]	n/a	FR1	0	R1308T
3167.293	19.637	2162851	PROB	19.637	n/a	n/a	-999	14	[8, 9, 8]	25	FR1	0	R1308T
3186.93	13.807	2182487	PROB	13.807	n/a	n/a	-999	14	[9, 8, 7]	24	FR1	0	R1308T
3200.737	0.012	2196294	STOP	n/a	n/a	n/a	-999	14	[-999, -999, -999]	n/a	FR1	0	R1308T
3200.749	0.647	2196306	DISTRACT_END	n/a	n/a	n/a	-999	13	[0, 0, 0]	n/a	FR1	0	R1308T
3201.396	1.602	2196953	RETRIEVAL_ORIENT_START	n/a	n/a	n/a	-999	13	[0, 0, 0]	n/a	FR1	0	R1308T
3202.998	0.001	2198555	RETRIEVAL_ORIENT_END	n/a	n/a	n/a	-999	13	[0, 0, 0]	n/a	FR1	0	R1308T
3202.999	1.645	2198556	REC_START	n/a	n/a	n/a	-999	13	[0, 0, 0]	n/a	FR1	0	R1308T
3204.644	1.3	2200201	REC_WORD	1.3	n/a	FUDGE	2	13	[0, 0, 0]	n/a	FR1	0	R1308T
3205.944	1.516	2201501	REC_WORD	1.516	n/a	WEED	1	13	[0, 0, 0]	n/a	FR1	0	R1308T
3207.46	1.463	2203016	REC_WORD	1.463	n/a	AXE	4	13	[0, 0, 0]	n/a	FR1	0	R1308T
3208.923	2.052	2204479	REC_WORD	2.052	n/a	CAT	6	13	[0, 0, 0]	n/a	FR1	0	R1308T
3210.975	1.529	2206531	REC_WORD	1.529	n/a	DUCK	8	13	[0, 0, 0]	n/a	FR1	0	R1308T
3212.504	6.564	2208060	REC_WORD	6.564	n/a	GLOVE	3	13	[0, 0, 0]	n/a	FR1	0	R1308T
3219.068	13.943	2214624	REC_WORD	13.943	n/a	SHIELD	11	13	[0, 0, 0]	n/a	FR1	0	R1308T
3233.011	0.0	2228566	REC_END	n/a	n/a	n/a	-999	13	[0, 0, 0]	n/a	FR1	0	R1308T
3233.011	0.014	2228566	TRIAL_END	n/a	n/a	n/a	-999	13	[0, 0, 0]	n/a	FR1	0	R1308T
3233.025	0.001	2228580	TRIAL_START	n/a	n/a	n/a	-999	14	[0, 0, 0]	n/a	FR1	0	R1308T
3233.026	0.0	2228581	TRIAL	n/a	n/a	n/a	-999	14	[0, 0, 0]	n/a	FR1	0	R1308T
3233.026	12.398	2228581	WAITING_START	n/a	n/a	n/a	-999	14	[0, 0, 0]	n/a	FR1	0	R1308T
3245.424	0.0	2240979	WAITING_END	n/a	n/a	n/a	-999	14	[0, 0, 0]	n/a	FR1	0	R1308T
3245.424	10.429	2240979	COUNTDOWN_START	n/a	n/a	n/a	-999	14	[0, 0, 0]	n/a	FR1	0	R1308T
3255.853	0.001	2251407	COUNTDOWN_END	n/a	n/a	n/a	-999	14	[0, 0, 0]	n/a	FR1	0	R1308T
3255.854	1.055	2251408	ORIENT_START	n/a	n/a	n/a	-999	14	[0, 0, 0]	n/a	FR1	0	R1308T
3256.909	0.001	2252463	ORIENT_END	n/a	n/a	n/a	-999	14	[0, 0, 0]	n/a	FR1	0	R1308T
3256.91	0.88	2252464	ENCODING_START	n/a	n/a	n/a	-999	14	[0, 0, 0]	n/a	FR1	0	R1308T
3257.79	1.636	2253344	WORD	n/a	wordpools/wordpool_EN.txt	TOY	1	14	[0, 0, 0]	n/a	FR1	0	R1308T
3259.426	0.896	2254980	WORD_OFF	n/a	n/a	TOY	1	14	[0, 0, 0]	n/a	FR1	0	R1308T
3260.322	1.62	2255876	WORD	n/a	wordpools/wordpool_EN.txt	SHOE	2	14	[0, 0, 0]	n/a	FR1	0	R1308T
3261.942	0.825	2257496	WORD_OFF	n/a	n/a	SHOE	2	14	[0, 0, 0]	n/a	FR1	0	R1308T
3262.767	1.627	2258321	WORD	n/a	wordpools/wordpool_EN.txt	FILM	3	14	[0, 0, 0]	n/a	FR1	0	R1308T
3264.394	0.873	2259948	WORD_OFF	n/a	n/a	FILM	3	14	[0, 0, 0]	n/a	FR1	0	R1308T
3265.267	1.627	2260821	WORD	n/a	wordpools/wordpool_EN.txt	FLAG	4	14	[0, 0, 0]	n/a	FR1	0	R1308T
3266.894	0.759	2262448	WORD_OFF	n/a	n/a	FLAG	4	14	[0, 0, 0]	n/a	FR1	0	R1308T
3267.653	1.625	2263207	WORD	n/a	wordpools/wordpool_EN.txt	STEM	5	14	[0, 0, 0]	n/a	FR1	0	R1308T
3269.278	0.848	2264832	WORD_OFF	n/a	n/a	STEM	5	14	[0, 0, 0]	n/a	FR1	0	R1308T
3270.126	1.636	2265680	WORD	n/a	wordpools/wordpool_EN.txt	LAMB	6	14	[0, 0, 0]	n/a	FR1	0	R1308T
3271.762	1.106	2267316	WORD_OFF	n/a	n/a	LAMB	6	14	[0, 0, 0]	n/a	FR1	0	R1308T
3272.868	1.628	2268422	WORD	n/a	wordpools/wordpool_EN.txt	HOOK	7	14	[0, 0, 0]	n/a	FR1	0	R1308T
3274.496	1.146	2270049	WORD_OFF	n/a	n/a	HOOK	7	14	[0, 0, 0]	n/a	FR1	0	R1308T
3275.642	1.637	2271195	WORD	n/a	wordpools/wordpool_EN.txt	DOOR	8	14	[0, 0, 0]	n/a	FR1	0	R1308T
3277.279	1.084	2272832	WORD_OFF	n/a	n/a	DOOR	8	14	[0, 0, 0]	n/a	FR1	0	R1308T
3278.363	1.633	2273916	WORD	n/a	wordpools/wordpool_EN.txt	SQUARE	9	14	[0, 0, 0]	n/a	FR1	0	R1308T
3279.996	0.778	2275549	WORD_OFF	n/a	n/a	SQUARE	9	14	[0, 0, 0]	n/a	FR1	0	R1308T
3280.774	1.623	2276327	WORD	n/a	wordpools/wordpool_EN.txt	SEED	10	14	[0, 0, 0]	n/a	FR1	0	R1308T
3282.397	1.007	2277950	WORD_OFF	n/a	n/a	SEED	10	14	[0, 0, 0]	n/a	FR1	0	R1308T
3283.404	1.626	2278957	WORD	n/a	wordpools/wordpool_EN.txt	BRICK	11	14	[0, 0, 0]	n/a	FR1	0	R1308T
3285.03	1.035	2280583	WORD_OFF	n/a	n/a	BRICK	11	14	[0, 0, 0]	n/a	FR1	0	R1308T
3286.065	1.616	2281618	WORD	n/a	wordpools/wordpool_EN.txt	FLOOR	12	14	[0, 0, 0]	n/a	FR1	0	R1308T
3287.681	0.0	2283234	WORD_OFF	n/a	n/a	FLOOR	12	14	[0, 0, 0]	n/a	FR1	0	R1308T
3287.681	0.001	2283234	ENCODING_END	n/a	n/a	n/a	-999	14	[0, 0, 0]	n/a	FR1	0	R1308T
3287.682	0.0	2283235	DISTRACT_START	n/a	n/a	n/a	-999	14	[0, 0, 0]	n/a	FR1	0	R1308T
3287.682	0.016	2283235	START	n/a	n/a	n/a	-999	15	[-999, -999, -999]	n/a	FR1	0	R1308T
3287.698	10.752	2283251	PROB	10.752	n/a	n/a	-999	15	[9, 6, 3]	18	FR1	0	R1308T
3298.45	4.566	2294002	PROB	4.566	n/a	n/a	-999	15	[4, 2, 4]	10	FR1	0	R1308T
3303.016	6.446	2298568	PROB	6.446	n/a	n/a	-999	15	[5, 2, 4]	11	FR1	0	R1308T
3309.462	0.006	2305014	STOP	n/a	n/a	n/a	-999	15	[-999, -999, -999]	n/a	FR1	0	R1308T
3309.468	0.546	2305020	DISTRACT_END	n/a	n/a	n/a	-999	14	[0, 0, 0]	n/a	FR1	0	R1308T
3310.014	1.722	2305566	RETRIEVAL_ORIENT_START	n/a	n/a	n/a	-999	14	[0, 0, 0]	n/a	FR1	0	R1308T
3311.736	0.0	2307288	RETRIEVAL_ORIENT_END	n/a	n/a	n/a	-999	14	[0, 0, 0]	n/a	FR1	0	R1308T
3311.736	1.128	2307288	REC_START	n/a	n/a	n/a	-999	14	[0, 0, 0]	n/a	FR1	0	R1308T
3312.864	1.246	2308416	REC_WORD	1.246	n/a	TOY	1	14	[0, 0, 0]	n/a	FR1	0	R1308T
3314.11	1.608	2309662	REC_WORD	1.608	n/a	SHOE	2	14	[0, 0, 0]	n/a	FR1	0	R1308T
3315.718	1.97	2311270	REC_WORD	1.97	n/a	FILM	3	14	[0, 0, 0]	n/a	FR1	0	R1308T
3317.688	2.069	2313240	REC_WORD	2.069	n/a	HOOK	7	14	[0, 0, 0]	n/a	FR1	0	R1308T
3319.757	5.099	2315308	REC_WORD	5.099	n/a	FLOOR	12	14	[0, 0, 0]	n/a	FR1	0	R1308T
3324.856	6.512	2320407	REC_WORD	6.512	n/a	LAMB	6	14	[0, 0, 0]	n/a	FR1	0	R1308T
3331.368	10.38	2326919	REC_WORD	10.38	n/a	SEED	10	14	[0, 0, 0]	n/a	FR1	0	R1308T
3341.748	0.0	2337298	TRIAL_END	n/a	n/a	n/a	-999	14	[0, 0, 0]	n/a	FR1	0	R1308T
3341.748	0.014	2337298	REC_END	n/a	n/a	n/a	-999	14	[0, 0, 0]	n/a	FR1	0	R1308T
3341.762	0.0	2337312	TRIAL_START	n/a	n/a	n/a	-999	15	[0, 0, 0]	n/a	FR1	0	R1308T
3341.762	0.0	2337312	TRIAL	n/a	n/a	n/a	-999	15	[0, 0, 0]	n/a	FR1	0	R1308T
3341.762	110.315	2337312	WAITING_START	n/a	n/a	n/a	-999	15	[0, 0, 0]	n/a	FR1	0	R1308T
3452.077	0.0	2447623	WAITING_END	n/a	n/a	n/a	-999	15	[0, 0, 0]	n/a	FR1	0	R1308T
3452.077	10.429	2447623	COUNTDOWN_START	n/a	n/a	n/a	-999	15	[0, 0, 0]	n/a	FR1	0	R1308T
3462.506	0.0	2458051	COUNTDOWN_END	n/a	n/a	n/a	-999	15	[0, 0, 0]	n/a	FR1	0	R1308T
3462.506	1.207	2458051	ORIENT_START	n/a	n/a	n/a	-999	15	[0, 0, 0]	n/a	FR1	0	R1308T
3463.713	0.001	2459258	ORIENT_END	n/a	n/a	n/a	-999	15	[0, 0, 0]	n/a	FR1	0	R1308T
3463.714	0.769	2459259	ENCODING_START	n/a	n/a	n/a	-999	15	[0, 0, 0]	n/a	FR1	0	R1308T
3464.483	1.631	2460028	WORD	n/a	wordpools/wordpool_EN.txt	DESK	1	15	[0, 0, 0]	n/a	FR1	0	R1308T
3466.114	0.96	2461659	WORD_OFF	n/a	n/a	DESK	1	15	[0, 0, 0]	n/a	FR1	0	R1308T
3467.074	1.624	2462619	WORD	n/a	wordpools/wordpool_EN.txt	OWL	2	15	[0, 0, 0]	n/a	FR1	0	R1308T
3468.698	0.793	2464243	WORD_OFF	n/a	n/a	OWL	2	15	[0, 0, 0]	n/a	FR1	0	R1308T
3469.491	1.624	2465036	WORD	n/a	wordpools/wordpool_EN.txt	PANTS	3	15	[0, 0, 0]	n/a	FR1	0	R1308T
3471.115	0.838	2466660	WORD_OFF	n/a	n/a	PANTS	3	15	[0, 0, 0]	n/a	FR1	0	R1308T
3471.953	1.63	2467498	WORD	n/a	wordpools/wordpool_EN.txt	MAT	4	15	[0, 0, 0]	n/a	FR1	0	R1308T
3473.583	1.001	2469128	WORD_OFF	n/a	n/a	MAT	4	15	[0, 0, 0]	n/a	FR1	0	R1308T
3474.584	1.632	2470129	WORD	n/a	wordpools/wordpool_EN.txt	WHEEL	5	15	[0, 0, 0]	n/a	FR1	0	R1308T
3476.216	1.015	2471761	WORD_OFF	n/a	n/a	WHEEL	5	15	[0, 0, 0]	n/a	FR1	0	R1308T
3477.231	1.635	2472775	WORD	n/a	wordpools/wordpool_EN.txt	TOAST	6	15	[0, 0, 0]	n/a	FR1	0	R1308T
3478.866	0.98	2474410	WORD_OFF	n/a	n/a	TOAST	6	15	[0, 0, 0]	n/a	FR1	0	R1308T
3479.846	1.637	2475390	WORD	n/a	wordpools/wordpool_EN.txt	PASTE	7	15	[0, 0, 0]	n/a	FR1	0	R1308T
3481.483	0.808	2477027	WORD_OFF	n/a	n/a	PASTE	7	15	[0, 0, 0]	n/a	FR1	0	R1308T
3482.291	1.626	2477835	WORD	n/a	wordpools/wordpool_EN.txt	SWAMP	8	15	[0, 0, 0]	n/a	FR1	0	R1308T
3483.917	1.024	2479461	WORD_OFF	n/a	n/a	SWAMP	8	15	[0, 0, 0]	n/a	FR1	0	R1308T
3484.941	1.626	2480485	WORD	n/a	wordpools/wordpool_EN.txt	DITCH	9	15	[0, 0, 0]	n/a	FR1	0	R1308T
3486.567	0.831	2482111	WORD_OFF	n/a	n/a	DITCH	9	15	[0, 0, 0]	n/a	FR1	0	R1308T
3487.398	1.636	2482942	WORD	n/a	wordpools/wordpool_EN.txt	HOOF	10	15	[0, 0, 0]	n/a	FR1	0	R1308T
3489.034	0.843	2484578	WORD_OFF	n/a	n/a	HOOF	10	15	[0, 0, 0]	n/a	FR1	0	R1308T
3489.877	1.625	2485421	WORD	n/a	wordpools/wordpool_EN.txt	WHALE	11	15	[0, 0, 0]	n/a	FR1	0	R1308T
3491.502	0.867	2487046	WORD_OFF	n/a	n/a	WHALE	11	15	[0, 0, 0]	n/a	FR1	0	R1308T
3492.369	1.632	2487913	WORD	n/a	wordpools/wordpool_EN.txt	PIT	12	15	[0, 0, 0]	n/a	FR1	0	R1308T
3494.001	0.0	2489545	WORD_OFF	n/a	n/a	PIT	12	15	[0, 0, 0]	n/a	FR1	0	R1308T
3494.001	0.001	2489545	ENCODING_END	n/a	n/a	n/a	-999	15	[0, 0, 0]	n/a	FR1	0	R1308T
3494.002	0.0	2489546	DISTRACT_START	n/a	n/a	n/a	-999	15	[0, 0, 0]	n/a	FR1	0	R1308T
3494.002	0.016	2489546	START	n/a	n/a	n/a	-999	16	[-999, -999, -999]	n/a	FR1	0	R1308T
3494.018	5.852	2489562	PROB	5.852	n/a	n/a	-999	16	[4, 1, 5]	10	FR1	0	R1308T
3499.87	6.834	2495413	PROB	6.834	n/a	n/a	-999	16	[9, 1, 2]	12	FR1	0	R1308T
3506.704	6.068	2502247	PROB	6.068	n/a	n/a	-999	16	[5, 3, 3]	11	FR1	0	R1308T
3512.772	6.683	2508315	PROB	6.683	n/a	n/a	-999	16	[9, 1, 7]	17	FR1	0	R1308T
3519.455	0.019	2514998	STOP	n/a	n/a	n/a	-999	16	[-999, -999, -999]	n/a	FR1	0	R1308T
3519.474	0.571	2515017	DISTRACT_END	n/a	n/a	n/a	-999	15	[0, 0, 0]	n/a	FR1	0	R1308T
3520.045	1.612	2515588	RETRIEVAL_ORIENT_START	n/a	n/a	n/a	-999	15	[0, 0, 0]	n/a	FR1	0	R1308T
3521.657	0.001	2517200	RETRIEVAL_ORIENT_END	n/a	n/a	n/a	-999	15	[0, 0, 0]	n/a	FR1	0	R1308T
3521.658	1.913	2517201	REC_START	n/a	n/a	n/a	-999	15	[0, 0, 0]	n/a	FR1	0	R1308T
3523.571	1.037	2519113	REC_WORD	1.037	n/a	DESK	1	15	[0, 0, 0]	n/a	FR1	0	R1308T
3524.608	1.288	2520150	REC_WORD	1.288	n/a	OWL	2	15	[0, 0, 0]	n/a	FR1	0	R1308T
3525.896	3.1	2521438	REC_WORD	3.1	n/a	PASTE	7	15	[0, 0, 0]	n/a	FR1	0	R1308T
3528.996	11.055	2524538	REC_WORD	11.055	n/a	SWAMP	8	15	[0, 0, 0]	n/a	FR1	0	R1308T
3540.051	11.618	2535593	REC_WORD	11.618	n/a	MAT	4	15	[0, 0, 0]	n/a	FR1	0	R1308T
3551.669	0.001	2547210	REC_END	n/a	n/a	n/a	-999	15	[0, 0, 0]	n/a	FR1	0	R1308T
3551.67	0.014	2547211	TRIAL_END	n/a	n/a	n/a	-999	15	[0, 0, 0]	n/a	FR1	0	R1308T
3551.684	0.0	2547225	TRIAL_START	n/a	n/a	n/a	-999	16	[0, 0, 0]	n/a	FR1	0	R1308T
3551.684	0.0	2547225	TRIAL	n/a	n/a	n/a	-999	16	[0, 0, 0]	n/a	FR1	0	R1308T
3551.684	0.0	2547225	WAITING_START	n/a	n/a	n/a	-999	16	[0, 0, 0]	n/a	FR1	0	R1308T
