onset	duration	sample	trial_type	response_time	stim_file	item_name	serialpos	list	test	answer	experiment	session	subject
0.0	253.309	-1	INSTRUCT_START	n/a	n/a	n/a	-999	-999	[0, 0, 0]	n/a	FR1	1	R1275D
253.309	175.251	-1	INSTRUCT_START	n/a	n/a	n/a	-999	-999	[0, 0, 0]	n/a	FR1	1	R1275D
428.56	134.352	1487	INSTRUCT_START	n/a	n/a	n/a	-999	-999	[0, 0, 0]	n/a	FR1	1	R1275D
562.912	2.618	135832	INSTRUCT_END	n/a	n/a	n/a	-999	-999	[0, 0, 0]	n/a	FR1	1	R1275D
565.53	18.45	138450	MIC TEST_START	n/a	n/a	n/a	-999	-999	[0, 0, 0]	n/a	FR1	1	R1275D
583.98	0.018	156899	MIC TEST_END	n/a	n/a	n/a	-999	-999	[0, 0, 0]	n/a	FR1	1	R1275D
583.998	0.0	156917	TRIAL	n/a	n/a	n/a	-999	-1	[0, 0, 0]	n/a	FR1	1	R1275D
583.998	0.0	156917	WAITING_START	n/a	n/a	n/a	-999	-1	[0, 0, 0]	n/a	FR1	1	R1275D
583.998	2.736	156917	TRIAL_START	n/a	n/a	n/a	-999	-1	[0, 0, 0]	n/a	FR1	1	R1275D
586.734	0.001	159653	WAITING_END	n/a	n/a	n/a	-999	-1	[0, 0, 0]	n/a	FR1	1	R1275D
586.735	10.429	159654	COUNTDOWN_START	n/a	n/a	n/a	-999	-1	[0, 0, 0]	n/a	FR1	1	R1275D
597.164	0.001	170083	COUNTDOWN_END	n/a	n/a	n/a	-999	-1	[0, 0, 0]	n/a	FR1	1	R1275D
597.165	1.087	170084	ORIENT_START	n/a	n/a	n/a	-999	-1	[0, 0, 0]	n/a	FR1	1	R1275D
598.252	0.0	171171	ORIENT_END	n/a	n/a	n/a	-999	-1	[0, 0, 0]	n/a	FR1	1	R1275D
598.252	1.073	171171	ENCODING_START	n/a	n/a	n/a	-999	-1	[0, 0, 0]	n/a	FR1	1	R1275D
599.325	1.627	172243	WORD	n/a	n/a	WAGON	1	-1	[0, 0, 0]	n/a	FR1	1	R1275D
600.952	0.992	173870	WORD_OFF	n/a	n/a	WAGON	1	-1	[0, 0, 0]	n/a	FR1	1	R1275D
601.944	1.626	174862	WORD	n/a	n/a	CHEST	2	-1	[0, 0, 0]	n/a	FR1	1	R1275D
603.57	0.976	176488	WORD_OFF	n/a	n/a	CHEST	2	-1	[0, 0, 0]	n/a	FR1	1	R1275D
604.546	1.624	177464	WORD	n/a	n/a	TONGUE	3	-1	[0, 0, 0]	n/a	FR1	1	R1275D
606.17	0.915	179088	WORD_OFF	n/a	n/a	TONGUE	3	-1	[0, 0, 0]	n/a	FR1	1	R1275D
607.085	1.636	180003	WORD	n/a	n/a	COTTON	4	-1	[0, 0, 0]	n/a	FR1	1	R1275D
608.721	0.762	181639	WORD_OFF	n/a	n/a	COTTON	4	-1	[0, 0, 0]	n/a	FR1	1	R1275D
609.483	1.621	182401	WORD	n/a	n/a	BEAM	5	-1	[0, 0, 0]	n/a	FR1	1	R1275D
611.104	0.934	184022	WORD_OFF	n/a	n/a	BEAM	5	-1	[0, 0, 0]	n/a	FR1	1	R1275D
612.038	1.634	184956	WORD	n/a	n/a	IMAGE	6	-1	[0, 0, 0]	n/a	FR1	1	R1275D
613.672	0.953	186590	WORD_OFF	n/a	n/a	IMAGE	6	-1	[0, 0, 0]	n/a	FR1	1	R1275D
614.625	1.63	187543	WORD	n/a	n/a	FLOOD	7	-1	[0, 0, 0]	n/a	FR1	1	R1275D
616.255	0.94	189173	WORD_OFF	n/a	n/a	FLOOD	7	-1	[0, 0, 0]	n/a	FR1	1	R1275D
617.195	1.628	190113	WORD	n/a	n/a	RING	8	-1	[0, 0, 0]	n/a	FR1	1	R1275D
618.823	1.026	191741	WORD_OFF	n/a	n/a	RING	8	-1	[0, 0, 0]	n/a	FR1	1	R1275D
619.849	1.624	192766	WORD	n/a	n/a	CAMEL	9	-1	[0, 0, 0]	n/a	FR1	1	R1275D
621.473	1.011	194390	WORD_OFF	n/a	n/a	CAMEL	9	-1	[0, 0, 0]	n/a	FR1	1	R1275D
622.484	1.623	195401	WORD	n/a	n/a	RHINO	10	-1	[0, 0, 0]	n/a	FR1	1	R1275D
624.107	0.866	197024	WORD_OFF	n/a	n/a	RHINO	10	-1	[0, 0, 0]	n/a	FR1	1	R1275D
624.973	1.634	197890	WORD	n/a	n/a	BABY	11	-1	[0, 0, 0]	n/a	FR1	1	R1275D
626.607	1.003	199524	WORD_OFF	n/a	n/a	BABY	11	-1	[0, 0, 0]	n/a	FR1	1	R1275D
627.61	1.631	200527	WORD	n/a	n/a	WATCH	12	-1	[0, 0, 0]	n/a	FR1	1	R1275D
629.241	0.0	202158	WORD_OFF	n/a	n/a	WATCH	12	-1	[0, 0, 0]	n/a	FR1	1	R1275D
629.241	0.001	202158	ENCODING_END	n/a	n/a	n/a	-999	-1	[0, 0, 0]	n/a	FR1	1	R1275D
629.242	0.0	202159	DISTRACT_START	n/a	n/a	n/a	-999	-1	[0, 0, 0]	n/a	FR1	1	R1275D
629.242	0.015	202159	START	n/a	n/a	n/a	-999	-1	[-999, -999, -999]	n/a	FR1	1	R1275D
629.257	4.619	202174	PROB	4.619	n/a	n/a	-999	-1	[5, 9, 1]	15	FR1	1	R1275D
633.876	6.133	206793	PROB	6.133	n/a	n/a	-999	-1	[3, 6, 7]	16	FR1	1	R1275D
640.009	9.152	212926	PROB	9.152	n/a	n/a	-999	-1	[7, 9, 9]	25	FR1	1	R1275D
649.161	6.707	222077	PROB	6.707	n/a	n/a	-999	-1	[1, 7, 9]	17	FR1	1	R1275D
655.868	0.012	228784	STOP	n/a	n/a	n/a	-999	-1	[-999, -999, -999]	n/a	FR1	1	R1275D
655.88	0.607	228796	DISTRACT_END	n/a	n/a	n/a	-999	-1	[0, 0, 0]	n/a	FR1	1	R1275D
656.487	1.576	229403	RETRIEVAL_ORIENT_START	n/a	n/a	n/a	-999	-1	[0, 0, 0]	n/a	FR1	1	R1275D
658.063	0.0	230979	REC_START	n/a	n/a	n/a	-999	-1	[0, 0, 0]	n/a	FR1	1	R1275D
658.063	0.43	230979	RETRIEVAL_ORIENT_END	n/a	n/a	n/a	-999	-1	[0, 0, 0]	n/a	FR1	1	R1275D
658.493	1.308	231409	REC_WORD	1.308	n/a	RHINO	-999	-1	[0, 0, 0]	n/a	FR1	1	R1275D
659.801	0.998	232717	REC_WORD	0.998	n/a	BABY	-999	-1	[0, 0, 0]	n/a	FR1	1	R1275D
660.799	6.614	233715	REC_WORD	6.614	n/a	BEAN	-999	-1	[0, 0, 0]	n/a	FR1	1	R1275D
667.413	0.588	240328	REC_WORD	0.588	n/a	RHINO	-999	-1	[0, 0, 0]	n/a	FR1	1	R1275D
668.001	0.222	240916	REC_WORD	0.222	n/a	BABY	-999	-1	[0, 0, 0]	n/a	FR1	1	R1275D
668.223	6.292	241138	REC_WORD	6.292	n/a	BEAN	-999	-1	[0, 0, 0]	n/a	FR1	1	R1275D
674.515	13.562	247430	REC_WORD	13.562	n/a	CAMEL	-999	-1	[0, 0, 0]	n/a	FR1	1	R1275D
688.077	0.001	260991	REC_END	n/a	n/a	n/a	-999	-1	[0, 0, 0]	n/a	FR1	1	R1275D
688.078	13.41	260992	PRACTICE_POST_INSTRUCT_START	n/a	n/a	n/a	-999	-1	[0, 0, 0]	n/a	FR1	1	R1275D
701.488	0.001	274402	PRACTICE_POST_INSTRUCT_END	n/a	n/a	n/a	-999	-1	[0, 0, 0]	n/a	FR1	1	R1275D
701.489	0.017	274403	TRIAL_END	n/a	n/a	n/a	-999	-1	[0, 0, 0]	n/a	FR1	1	R1275D
701.506	0.0	274420	TRIAL_START	n/a	n/a	n/a	-999	1	[0, 0, 0]	n/a	FR1	1	R1275D
701.506	0.0	274420	TRIAL	n/a	n/a	n/a	-999	1	[0, 0, 0]	n/a	FR1	1	R1275D
701.506	2.832	274420	WAITING_START	n/a	n/a	n/a	-999	1	[0, 0, 0]	n/a	FR1	1	R1275D
704.338	0.001	277251	WAITING_END	n/a	n/a	n/a	-999	1	[0, 0, 0]	n/a	FR1	1	R1275D
704.339	10.43	277252	COUNTDOWN_START	n/a	n/a	n/a	-999	1	[0, 0, 0]	n/a	FR1	1	R1275D
714.769	0.001	287682	COUNTDOWN_END	n/a	n/a	n/a	-999	1	[0, 0, 0]	n/a	FR1	1	R1275D
714.77	1.203	287683	ORIENT_START	n/a	n/a	n/a	-999	1	[0, 0, 0]	n/a	FR1	1	R1275D
715.973	0.001	288886	ORIENT_END	n/a	n/a	n/a	-999	1	[0, 0, 0]	n/a	FR1	1	R1275D
715.974	1.02	288887	ENCODING_START	n/a	n/a	n/a	-999	1	[0, 0, 0]	n/a	FR1	1	R1275D
716.994	1.63	289907	WORD	n/a	wordpools/wordpool_EN.txt	MUD	1	1	[0, 0, 0]	n/a	FR1	1	R1275D
718.624	0.845	291537	WORD_OFF	n/a	n/a	MUD	1	1	[0, 0, 0]	n/a	FR1	1	R1275D
719.469	1.622	292382	WORD	n/a	wordpools/wordpool_EN.txt	JAIL	2	1	[0, 0, 0]	n/a	FR1	1	R1275D
721.091	0.791	294004	WORD_OFF	n/a	n/a	JAIL	2	1	[0, 0, 0]	n/a	FR1	1	R1275D
721.882	1.626	294795	WORD	n/a	wordpools/wordpool_EN.txt	SCHOOL	3	1	[0, 0, 0]	n/a	FR1	1	R1275D
723.508	1.036	296420	WORD_OFF	n/a	n/a	SCHOOL	3	1	[0, 0, 0]	n/a	FR1	1	R1275D
724.544	1.631	297456	WORD	n/a	wordpools/wordpool_EN.txt	SHIRT	4	1	[0, 0, 0]	n/a	FR1	1	R1275D
726.175	0.993	299087	WORD_OFF	n/a	n/a	SHIRT	4	1	[0, 0, 0]	n/a	FR1	1	R1275D
727.168	1.609	300080	WORD	n/a	wordpools/wordpool_EN.txt	BEAK	5	1	[0, 0, 0]	n/a	FR1	1	R1275D
728.777	1.049	301689	WORD_OFF	n/a	n/a	BEAK	5	1	[0, 0, 0]	n/a	FR1	1	R1275D
729.826	1.634	302738	WORD	n/a	wordpools/wordpool_EN.txt	COUCH	6	1	[0, 0, 0]	n/a	FR1	1	R1275D
731.46	1.046	304372	WORD_OFF	n/a	n/a	COUCH	6	1	[0, 0, 0]	n/a	FR1	1	R1275D
732.506	1.637	305418	WORD	n/a	wordpools/wordpool_EN.txt	HORN	7	1	[0, 0, 0]	n/a	FR1	1	R1275D
734.143	1.093	307055	WORD_OFF	n/a	n/a	HORN	7	1	[0, 0, 0]	n/a	FR1	1	R1275D
735.236	1.625	308148	WORD	n/a	wordpools/wordpool_EN.txt	CUBE	8	1	[0, 0, 0]	n/a	FR1	1	R1275D
736.861	0.967	309773	WORD_OFF	n/a	n/a	CUBE	8	1	[0, 0, 0]	n/a	FR1	1	R1275D
737.828	1.633	310740	WORD	n/a	wordpools/wordpool_EN.txt	CLOUD	9	1	[0, 0, 0]	n/a	FR1	1	R1275D
739.461	1.123	312373	WORD_OFF	n/a	n/a	CLOUD	9	1	[0, 0, 0]	n/a	FR1	1	R1275D
740.584	1.627	313496	WORD	n/a	wordpools/wordpool_EN.txt	INK	10	1	[0, 0, 0]	n/a	FR1	1	R1275D
742.211	0.931	315123	WORD_OFF	n/a	n/a	INK	10	1	[0, 0, 0]	n/a	FR1	1	R1275D
743.142	1.638	316054	WORD	n/a	wordpools/wordpool_EN.txt	TRUCK	11	1	[0, 0, 0]	n/a	FR1	1	R1275D
744.78	1.022	317691	WORD_OFF	n/a	n/a	TRUCK	11	1	[0, 0, 0]	n/a	FR1	1	R1275D
745.802	1.627	318713	WORD	n/a	wordpools/wordpool_EN.txt	BEAN	12	1	[0, 0, 0]	n/a	FR1	1	R1275D
747.429	0.0	320340	ENCODING_END	n/a	n/a	n/a	-999	1	[0, 0, 0]	n/a	FR1	1	R1275D
747.429	0.001	320340	WORD_OFF	n/a	n/a	BEAN	12	1	[0, 0, 0]	n/a	FR1	1	R1275D
747.43	0.0	320341	DISTRACT_START	n/a	n/a	n/a	-999	1	[0, 0, 0]	n/a	FR1	1	R1275D
747.43	0.016	320341	START	n/a	n/a	n/a	-999	1	[-999, -999, -999]	n/a	FR1	1	R1275D
747.446	5.184	320357	PROB	5.184	n/a	n/a	-999	1	[6, 6, 4]	16	FR1	1	R1275D
752.63	7.451	325541	PROB	7.451	n/a	n/a	-999	1	[6, 8, 5]	19	FR1	1	R1275D
760.081	7.201	332992	PROB	7.201	n/a	n/a	-999	1	[9, 5, 7]	21	FR1	1	R1275D
767.282	4.139	340192	PROB	4.139	n/a	n/a	-999	1	[5, 5, 5]	15	FR1	1	R1275D
771.421	0.012	344331	STOP	n/a	n/a	n/a	-999	1	[-999, -999, -999]	n/a	FR1	1	R1275D
771.433	0.512	344343	DISTRACT_END	n/a	n/a	n/a	-999	1	[0, 0, 0]	n/a	FR1	1	R1275D
771.945	1.639	344855	RETRIEVAL_ORIENT_START	n/a	n/a	n/a	-999	1	[0, 0, 0]	n/a	FR1	1	R1275D
773.584	0.0	346494	RETRIEVAL_ORIENT_END	n/a	n/a	n/a	-999	1	[0, 0, 0]	n/a	FR1	1	R1275D
773.584	0.653	346494	REC_START	n/a	n/a	n/a	-999	1	[0, 0, 0]	n/a	FR1	1	R1275D
774.237	3.791	347147	REC_WORD	3.791	n/a	BEAN	12	1	[0, 0, 0]	n/a	FR1	1	R1275D
778.028	4.604	350938	REC_WORD_VV	4.604	n/a	<>	-999	1	[0, 0, 0]	n/a	FR1	1	R1275D
782.632	7.913	355542	REC_WORD	7.913	n/a	STALK	-999	1	[0, 0, 0]	n/a	FR1	1	R1275D
790.545	13.051	363454	REC_WORD_VV	13.051	n/a	<>	-999	1	[0, 0, 0]	n/a	FR1	1	R1275D
803.596	0.0	376505	REC_END	n/a	n/a	n/a	-999	1	[0, 0, 0]	n/a	FR1	1	R1275D
803.596	0.016	376505	TRIAL_END	n/a	n/a	n/a	-999	1	[0, 0, 0]	n/a	FR1	1	R1275D
803.612	0.0	376521	TRIAL_START	n/a	n/a	n/a	-999	2	[0, 0, 0]	n/a	FR1	1	R1275D
803.612	0.0	376521	TRIAL	n/a	n/a	n/a	-999	2	[0, 0, 0]	n/a	FR1	1	R1275D
803.612	2.294	376521	WAITING_START	n/a	n/a	n/a	-999	2	[0, 0, 0]	n/a	FR1	1	R1275D
805.906	0.001	378815	WAITING_END	n/a	n/a	n/a	-999	2	[0, 0, 0]	n/a	FR1	1	R1275D
805.907	10.428	378816	COUNTDOWN_START	n/a	n/a	n/a	-999	2	[0, 0, 0]	n/a	FR1	1	R1275D
816.335	0.001	389243	COUNTDOWN_END	n/a	n/a	n/a	-999	2	[0, 0, 0]	n/a	FR1	1	R1275D
816.336	1.106	389244	ORIENT_START	n/a	n/a	n/a	-999	2	[0, 0, 0]	n/a	FR1	1	R1275D
817.442	0.0	390350	ORIENT_END	n/a	n/a	n/a	-999	2	[0, 0, 0]	n/a	FR1	1	R1275D
817.442	1.002	390350	ENCODING_START	n/a	n/a	n/a	-999	2	[0, 0, 0]	n/a	FR1	1	R1275D
818.444	1.632	391352	WORD	n/a	wordpools/wordpool_EN.txt	FOX	1	2	[0, 0, 0]	n/a	FR1	1	R1275D
820.076	1.112	392984	WORD_OFF	n/a	n/a	FOX	1	2	[0, 0, 0]	n/a	FR1	1	R1275D
821.188	1.606	394096	WORD	n/a	wordpools/wordpool_EN.txt	NAIL	2	2	[0, 0, 0]	n/a	FR1	1	R1275D
822.794	1.002	395702	WORD_OFF	n/a	n/a	NAIL	2	2	[0, 0, 0]	n/a	FR1	1	R1275D
823.796	1.631	396704	WORD	n/a	wordpools/wordpool_EN.txt	PASTE	3	2	[0, 0, 0]	n/a	FR1	1	R1275D
825.427	1.097	398335	WORD_OFF	n/a	n/a	PASTE	3	2	[0, 0, 0]	n/a	FR1	1	R1275D
826.524	1.636	399432	WORD	n/a	wordpools/wordpool_EN.txt	STORM	4	2	[0, 0, 0]	n/a	FR1	1	R1275D
828.16	0.88	401067	WORD_OFF	n/a	n/a	STORM	4	2	[0, 0, 0]	n/a	FR1	1	R1275D
829.04	1.638	401947	WORD	n/a	wordpools/wordpool_EN.txt	DOOR	5	2	[0, 0, 0]	n/a	FR1	1	R1275D
830.678	0.995	403585	WORD_OFF	n/a	n/a	DOOR	5	2	[0, 0, 0]	n/a	FR1	1	R1275D
831.673	1.622	404580	WORD	n/a	wordpools/wordpool_EN.txt	SHRIMP	6	2	[0, 0, 0]	n/a	FR1	1	R1275D
833.295	1.092	406202	WORD_OFF	n/a	n/a	SHRIMP	6	2	[0, 0, 0]	n/a	FR1	1	R1275D
834.387	1.625	407294	WORD	n/a	wordpools/wordpool_EN.txt	BOAT	7	2	[0, 0, 0]	n/a	FR1	1	R1275D
836.012	0.818	408919	WORD_OFF	n/a	n/a	BOAT	7	2	[0, 0, 0]	n/a	FR1	1	R1275D
836.83	1.632	409737	WORD	n/a	wordpools/wordpool_EN.txt	PET	8	2	[0, 0, 0]	n/a	FR1	1	R1275D
838.462	0.771	411369	WORD_OFF	n/a	n/a	PET	8	2	[0, 0, 0]	n/a	FR1	1	R1275D
839.233	1.631	412140	WORD	n/a	wordpools/wordpool_EN.txt	ROOF	9	2	[0, 0, 0]	n/a	FR1	1	R1275D
840.864	0.935	413771	WORD_OFF	n/a	n/a	ROOF	9	2	[0, 0, 0]	n/a	FR1	1	R1275D
841.799	1.631	414706	WORD	n/a	wordpools/wordpool_EN.txt	SHEEP	10	2	[0, 0, 0]	n/a	FR1	1	R1275D
843.43	0.926	416337	WORD_OFF	n/a	n/a	SHEEP	10	2	[0, 0, 0]	n/a	FR1	1	R1275D
844.356	1.624	417263	WORD	n/a	wordpools/wordpool_EN.txt	SEED	11	2	[0, 0, 0]	n/a	FR1	1	R1275D
845.98	0.807	418887	WORD_OFF	n/a	n/a	SEED	11	2	[0, 0, 0]	n/a	FR1	1	R1275D
846.787	1.627	419694	WORD	n/a	wordpools/wordpool_EN.txt	HOOF	12	2	[0, 0, 0]	n/a	FR1	1	R1275D
848.414	0.0	421320	ENCODING_END	n/a	n/a	n/a	-999	2	[0, 0, 0]	n/a	FR1	1	R1275D
848.414	0.001	421320	WORD_OFF	n/a	n/a	HOOF	12	2	[0, 0, 0]	n/a	FR1	1	R1275D
848.415	0.0	421321	DISTRACT_START	n/a	n/a	n/a	-999	2	[0, 0, 0]	n/a	FR1	1	R1275D
848.415	0.016	421321	START	n/a	n/a	n/a	-999	2	[-999, -999, -999]	n/a	FR1	1	R1275D
848.431	6.151	421337	PROB	6.151	n/a	n/a	-999	2	[3, 4, 5]	12	FR1	1	R1275D
854.582	3.617	427488	PROB	3.617	n/a	n/a	-999	2	[3, 1, 1]	5	FR1	1	R1275D
858.199	5.569	431105	PROB	5.569	n/a	n/a	-999	2	[1, 8, 8]	17	FR1	1	R1275D
863.768	12.146	436674	PROB	12.146	n/a	n/a	-999	2	[7, 8, 7]	22	FR1	1	R1275D
875.914	0.022	448819	STOP	n/a	n/a	n/a	-999	2	[-999, -999, -999]	n/a	FR1	1	R1275D
875.936	0.535	448841	DISTRACT_END	n/a	n/a	n/a	-999	2	[0, 0, 0]	n/a	FR1	1	R1275D
876.471	1.665	449376	RETRIEVAL_ORIENT_START	n/a	n/a	n/a	-999	2	[0, 0, 0]	n/a	FR1	1	R1275D
878.136	0.0	451041	RETRIEVAL_ORIENT_END	n/a	n/a	n/a	-999	2	[0, 0, 0]	n/a	FR1	1	R1275D
878.136	1.734	451041	REC_START	n/a	n/a	n/a	-999	2	[0, 0, 0]	n/a	FR1	1	R1275D
879.87	1.89	452775	REC_WORD	1.89	n/a	HOOF	12	2	[0, 0, 0]	n/a	FR1	1	R1275D
881.76	11.455	454665	REC_WORD	11.455	n/a	ROOF	9	2	[0, 0, 0]	n/a	FR1	1	R1275D
893.215	2.355	466119	REC_WORD_VV	2.355	n/a	<>	-999	2	[0, 0, 0]	n/a	FR1	1	R1275D
895.57	12.578	468474	REC_WORD_VV	12.578	n/a	<>	-999	2	[0, 0, 0]	n/a	FR1	1	R1275D
908.148	0.0	481052	TRIAL_END	n/a	n/a	n/a	-999	2	[0, 0, 0]	n/a	FR1	1	R1275D
908.148	0.017	481052	REC_END	n/a	n/a	n/a	-999	2	[0, 0, 0]	n/a	FR1	1	R1275D
908.165	0.0	481069	TRIAL_START	n/a	n/a	n/a	-999	3	[0, 0, 0]	n/a	FR1	1	R1275D
908.165	0.0	481069	TRIAL	n/a	n/a	n/a	-999	3	[0, 0, 0]	n/a	FR1	1	R1275D
908.165	1.827	481069	WAITING_START	n/a	n/a	n/a	-999	3	[0, 0, 0]	n/a	FR1	1	R1275D
909.992	0.0	482895	WAITING_END	n/a	n/a	n/a	-999	3	[0, 0, 0]	n/a	FR1	1	R1275D
909.992	10.429	482895	COUNTDOWN_START	n/a	n/a	n/a	-999	3	[0, 0, 0]	n/a	FR1	1	R1275D
920.421	0.001	493324	COUNTDOWN_END	n/a	n/a	n/a	-999	3	[0, 0, 0]	n/a	FR1	1	R1275D
920.422	1.205	493325	ORIENT_START	n/a	n/a	n/a	-999	3	[0, 0, 0]	n/a	FR1	1	R1275D
921.627	0.001	494530	ORIENT_END	n/a	n/a	n/a	-999	3	[0, 0, 0]	n/a	FR1	1	R1275D
921.628	1.11	494531	ENCODING_START	n/a	n/a	n/a	-999	3	[0, 0, 0]	n/a	FR1	1	R1275D
922.738	1.623	495641	WORD	n/a	wordpools/wordpool_EN.txt	BENCH	1	3	[0, 0, 0]	n/a	FR1	1	R1275D
924.361	0.924	497264	WORD_OFF	n/a	n/a	BENCH	1	3	[0, 0, 0]	n/a	FR1	1	R1275D
925.285	1.627	498188	WORD	n/a	wordpools/wordpool_EN.txt	WEB	2	3	[0, 0, 0]	n/a	FR1	1	R1275D
926.912	0.985	499815	WORD_OFF	n/a	n/a	WEB	2	3	[0, 0, 0]	n/a	FR1	1	R1275D
927.897	1.632	500800	WORD	n/a	wordpools/wordpool_EN.txt	BEACH	3	3	[0, 0, 0]	n/a	FR1	1	R1275D
929.529	1.012	502432	WORD_OFF	n/a	n/a	BEACH	3	3	[0, 0, 0]	n/a	FR1	1	R1275D
930.541	1.622	503443	WORD	n/a	wordpools/wordpool_EN.txt	SWORD	4	3	[0, 0, 0]	n/a	FR1	1	R1275D
932.163	0.917	505065	WORD_OFF	n/a	n/a	SWORD	4	3	[0, 0, 0]	n/a	FR1	1	R1275D
933.08	1.634	505982	WORD	n/a	wordpools/wordpool_EN.txt	BOOK	5	3	[0, 0, 0]	n/a	FR1	1	R1275D
934.714	0.955	507616	WORD_OFF	n/a	n/a	BOOK	5	3	[0, 0, 0]	n/a	FR1	1	R1275D
935.669	1.628	508571	WORD	n/a	wordpools/wordpool_EN.txt	CHIEF	6	3	[0, 0, 0]	n/a	FR1	1	R1275D
937.297	0.781	510199	WORD_OFF	n/a	n/a	CHIEF	6	3	[0, 0, 0]	n/a	FR1	1	R1275D
938.078	1.637	510980	WORD	n/a	wordpools/wordpool_EN.txt	ROOM	7	3	[0, 0, 0]	n/a	FR1	1	R1275D
939.715	0.756	512617	WORD_OFF	n/a	n/a	ROOM	7	3	[0, 0, 0]	n/a	FR1	1	R1275D
940.471	1.627	513373	WORD	n/a	wordpools/wordpool_EN.txt	HEN	8	3	[0, 0, 0]	n/a	FR1	1	R1275D
942.098	1.101	515000	WORD_OFF	n/a	n/a	HEN	8	3	[0, 0, 0]	n/a	FR1	1	R1275D
943.199	1.634	516101	WORD	n/a	wordpools/wordpool_EN.txt	PRINCE	9	3	[0, 0, 0]	n/a	FR1	1	R1275D
944.833	0.974	517735	WORD_OFF	n/a	n/a	PRINCE	9	3	[0, 0, 0]	n/a	FR1	1	R1275D
945.807	1.625	518709	WORD	n/a	wordpools/wordpool_EN.txt	DOLL	10	3	[0, 0, 0]	n/a	FR1	1	R1275D
947.432	0.828	520334	WORD_OFF	n/a	n/a	DOLL	10	3	[0, 0, 0]	n/a	FR1	1	R1275D
948.26	1.607	521162	WORD	n/a	wordpools/wordpool_EN.txt	PHONE	11	3	[0, 0, 0]	n/a	FR1	1	R1275D
949.867	0.898	522769	WORD_OFF	n/a	n/a	PHONE	11	3	[0, 0, 0]	n/a	FR1	1	R1275D
950.765	1.635	523667	WORD	n/a	wordpools/wordpool_EN.txt	HILL	12	3	[0, 0, 0]	n/a	FR1	1	R1275D
952.4	0.0	525301	WORD_OFF	n/a	n/a	HILL	12	3	[0, 0, 0]	n/a	FR1	1	R1275D
952.4	0.0	525301	ENCODING_END	n/a	n/a	n/a	-999	3	[0, 0, 0]	n/a	FR1	1	R1275D
952.4	0.0	525301	DISTRACT_START	n/a	n/a	n/a	-999	3	[0, 0, 0]	n/a	FR1	1	R1275D
952.4	0.016	525301	START	n/a	n/a	n/a	-999	3	[-999, -999, -999]	n/a	FR1	1	R1275D
952.416	5.951	525317	PROB	5.951	n/a	n/a	-999	3	[8, 7, 6]	21	FR1	1	R1275D
958.367	7.486	531268	PROB	7.486	n/a	n/a	-999	3	[8, 3, 8]	19	FR1	1	R1275D
965.853	4.666	538754	PROB	4.666	n/a	n/a	-999	3	[4, 1, 5]	10	FR1	1	R1275D
970.519	4.468	543420	PROB	4.468	n/a	n/a	-999	3	[2, 2, 5]	9	FR1	1	R1275D
974.987	0.017	547887	STOP	n/a	n/a	n/a	-999	3	[-999, -999, -999]	n/a	FR1	1	R1275D
975.004	0.601	547904	DISTRACT_END	n/a	n/a	n/a	-999	3	[0, 0, 0]	n/a	FR1	1	R1275D
975.605	1.549	548505	RETRIEVAL_ORIENT_START	n/a	n/a	n/a	-999	3	[0, 0, 0]	n/a	FR1	1	R1275D
977.154	0.001	550054	RETRIEVAL_ORIENT_END	n/a	n/a	n/a	-999	3	[0, 0, 0]	n/a	FR1	1	R1275D
977.155	0.862	550055	REC_START	n/a	n/a	n/a	-999	3	[0, 0, 0]	n/a	FR1	1	R1275D
978.017	1.02	550917	REC_WORD	1.02	n/a	DOLL	10	3	[0, 0, 0]	n/a	FR1	1	R1275D
979.037	4.123	551937	REC_WORD	4.123	n/a	HILL	12	3	[0, 0, 0]	n/a	FR1	1	R1275D
983.16	7.407	556060	REC_WORD	7.407	n/a	FENCE	-999	3	[0, 0, 0]	n/a	FR1	1	R1275D
990.567	0.296	563467	REC_WORD	0.296	n/a	DOLL	10	3	[0, 0, 0]	n/a	FR1	1	R1275D
990.863	0.318	563763	REC_WORD	0.318	n/a	HILL	12	3	[0, 0, 0]	n/a	FR1	1	R1275D
991.181	5.764	564081	REC_WORD	5.764	n/a	FENCE	-999	3	[0, 0, 0]	n/a	FR1	1	R1275D
996.945	10.222	569844	REC_WORD_VV	10.222	n/a	<>	-999	3	[0, 0, 0]	n/a	FR1	1	R1275D
1007.167	0.0	580066	REC_END	n/a	n/a	n/a	-999	3	[0, 0, 0]	n/a	FR1	1	R1275D
1007.167	0.014	580066	TRIAL_END	n/a	n/a	n/a	-999	3	[0, 0, 0]	n/a	FR1	1	R1275D
1007.181	0.001	580080	TRIAL_START	n/a	n/a	n/a	-999	4	[0, 0, 0]	n/a	FR1	1	R1275D
1007.182	0.0	580081	TRIAL	n/a	n/a	n/a	-999	4	[0, 0, 0]	n/a	FR1	1	R1275D
1007.182	2.445	580081	WAITING_START	n/a	n/a	n/a	-999	4	[0, 0, 0]	n/a	FR1	1	R1275D
1009.627	0.0	582526	WAITING_END	n/a	n/a	n/a	-999	4	[0, 0, 0]	n/a	FR1	1	R1275D
1009.627	10.43	582526	COUNTDOWN_START	n/a	n/a	n/a	-999	4	[0, 0, 0]	n/a	FR1	1	R1275D
1020.057	0.0	592955	ORIENT_START	n/a	n/a	n/a	-999	4	[0, 0, 0]	n/a	FR1	1	R1275D
1020.057	1.205	592955	COUNTDOWN_END	n/a	n/a	n/a	-999	4	[0, 0, 0]	n/a	FR1	1	R1275D
1021.262	0.001	594160	ORIENT_END	n/a	n/a	n/a	-999	4	[0, 0, 0]	n/a	FR1	1	R1275D
1021.263	1.146	594161	ENCODING_START	n/a	n/a	n/a	-999	4	[0, 0, 0]	n/a	FR1	1	R1275D
1022.409	1.637	595307	WORD	n/a	wordpools/wordpool_EN.txt	FAN	1	4	[0, 0, 0]	n/a	FR1	1	R1275D
1024.046	0.777	596944	WORD_OFF	n/a	n/a	FAN	1	4	[0, 0, 0]	n/a	FR1	1	R1275D
1024.823	1.623	597721	WORD	n/a	wordpools/wordpool_EN.txt	SNOW	2	4	[0, 0, 0]	n/a	FR1	1	R1275D
1026.446	0.769	599344	WORD_OFF	n/a	n/a	SNOW	2	4	[0, 0, 0]	n/a	FR1	1	R1275D
1027.215	1.616	600113	WORD	n/a	wordpools/wordpool_EN.txt	APE	3	4	[0, 0, 0]	n/a	FR1	1	R1275D
1028.831	1.001	601729	WORD_OFF	n/a	n/a	APE	3	4	[0, 0, 0]	n/a	FR1	1	R1275D
1029.832	1.632	602730	WORD	n/a	wordpools/wordpool_EN.txt	SUN	4	4	[0, 0, 0]	n/a	FR1	1	R1275D
1031.464	0.958	604362	WORD_OFF	n/a	n/a	SUN	4	4	[0, 0, 0]	n/a	FR1	1	R1275D
1032.422	1.626	605320	WORD	n/a	wordpools/wordpool_EN.txt	SOAP	5	4	[0, 0, 0]	n/a	FR1	1	R1275D
1034.048	1.105	606945	WORD_OFF	n/a	n/a	SOAP	5	4	[0, 0, 0]	n/a	FR1	1	R1275D
1035.153	1.613	608050	WORD	n/a	wordpools/wordpool_EN.txt	ELF	6	4	[0, 0, 0]	n/a	FR1	1	R1275D
1036.766	0.784	609663	WORD_OFF	n/a	n/a	ELF	6	4	[0, 0, 0]	n/a	FR1	1	R1275D
1037.55	1.632	610447	WORD	n/a	wordpools/wordpool_EN.txt	RAT	7	4	[0, 0, 0]	n/a	FR1	1	R1275D
1039.182	0.939	612079	WORD_OFF	n/a	n/a	RAT	7	4	[0, 0, 0]	n/a	FR1	1	R1275D
1040.121	1.629	613018	WORD	n/a	wordpools/wordpool_EN.txt	TENT	8	4	[0, 0, 0]	n/a	FR1	1	R1275D
1041.75	0.91	614647	WORD_OFF	n/a	n/a	TENT	8	4	[0, 0, 0]	n/a	FR1	1	R1275D
1042.66	1.623	615557	WORD	n/a	wordpools/wordpool_EN.txt	DRUM	9	4	[0, 0, 0]	n/a	FR1	1	R1275D
1044.283	0.906	617180	WORD_OFF	n/a	n/a	DRUM	9	4	[0, 0, 0]	n/a	FR1	1	R1275D
1045.189	1.629	618086	WORD	n/a	wordpools/wordpool_EN.txt	SEAT	10	4	[0, 0, 0]	n/a	FR1	1	R1275D
1046.818	0.814	619715	WORD_OFF	n/a	n/a	SEAT	10	4	[0, 0, 0]	n/a	FR1	1	R1275D
1047.632	1.635	620529	WORD	n/a	wordpools/wordpool_EN.txt	SLEEVE	11	4	[0, 0, 0]	n/a	FR1	1	R1275D
1049.267	1.04	622164	WORD_OFF	n/a	n/a	SLEEVE	11	4	[0, 0, 0]	n/a	FR1	1	R1275D
1050.307	1.627	623204	WORD	n/a	wordpools/wordpool_EN.txt	GUARD	12	4	[0, 0, 0]	n/a	FR1	1	R1275D
1051.934	0.001	624831	WORD_OFF	n/a	n/a	GUARD	12	4	[0, 0, 0]	n/a	FR1	1	R1275D
1051.935	0.0	624832	DISTRACT_START	n/a	n/a	n/a	-999	4	[0, 0, 0]	n/a	FR1	1	R1275D
1051.935	0.0	624832	ENCODING_END	n/a	n/a	n/a	-999	4	[0, 0, 0]	n/a	FR1	1	R1275D
1051.935	0.016	624832	START	n/a	n/a	n/a	-999	4	[-999, -999, -999]	n/a	FR1	1	R1275D
1051.951	5.484	624848	PROB	5.484	n/a	n/a	-999	4	[2, 3, 4]	9	FR1	1	R1275D
1057.435	7.035	630331	PROB	7.035	n/a	n/a	-999	4	[8, 5, 7]	20	FR1	1	R1275D
1064.47	4.484	637366	PROB	4.484	n/a	n/a	-999	4	[2, 7, 1]	10	FR1	1	R1275D
1068.954	7.505	641850	PROB	7.505	n/a	n/a	-999	4	[6, 4, 7]	17	FR1	1	R1275D
1076.459	0.013	649354	STOP	n/a	n/a	n/a	-999	4	[-999, -999, -999]	n/a	FR1	1	R1275D
1076.472	0.591	649367	DISTRACT_END	n/a	n/a	n/a	-999	4	[0, 0, 0]	n/a	FR1	1	R1275D
1077.063	1.626	649958	RETRIEVAL_ORIENT_START	n/a	n/a	n/a	-999	4	[0, 0, 0]	n/a	FR1	1	R1275D
1078.689	0.001	651584	RETRIEVAL_ORIENT_END	n/a	n/a	n/a	-999	4	[0, 0, 0]	n/a	FR1	1	R1275D
1078.69	1.998	651585	REC_START	n/a	n/a	n/a	-999	4	[0, 0, 0]	n/a	FR1	1	R1275D
1080.688	0.992	653583	REC_WORD	0.992	n/a	GUARD	12	4	[0, 0, 0]	n/a	FR1	1	R1275D
1081.68	1.668	654575	REC_WORD	1.668	n/a	SLEEVE	11	4	[0, 0, 0]	n/a	FR1	1	R1275D
1083.348	9.254	656243	REC_WORD	9.254	n/a	SUN	4	4	[0, 0, 0]	n/a	FR1	1	R1275D
1092.602	2.923	665497	REC_WORD_VV	2.923	n/a	<>	-999	4	[0, 0, 0]	n/a	FR1	1	R1275D
1095.525	9.922	668420	REC_WORD	9.922	n/a	SUN	4	4	[0, 0, 0]	n/a	FR1	1	R1275D
1105.447	3.256	678341	REC_WORD	3.256	n/a	SUN	4	4	[0, 0, 0]	n/a	FR1	1	R1275D
1108.703	0.0	681597	REC_END	n/a	n/a	n/a	-999	4	[0, 0, 0]	n/a	FR1	1	R1275D
1108.703	0.016	681597	TRIAL_END	n/a	n/a	n/a	-999	4	[0, 0, 0]	n/a	FR1	1	R1275D
1108.719	0.001	681613	TRIAL_START	n/a	n/a	n/a	-999	5	[0, 0, 0]	n/a	FR1	1	R1275D
1108.72	0.0	681614	TRIAL	n/a	n/a	n/a	-999	5	[0, 0, 0]	n/a	FR1	1	R1275D
1108.72	1.575	681614	WAITING_START	n/a	n/a	n/a	-999	5	[0, 0, 0]	n/a	FR1	1	R1275D
1110.295	0.0	683189	COUNTDOWN_START	n/a	n/a	n/a	-999	5	[0, 0, 0]	n/a	FR1	1	R1275D
1110.295	10.429	683189	WAITING_END	n/a	n/a	n/a	-999	5	[0, 0, 0]	n/a	FR1	1	R1275D
1120.724	0.0	693617	COUNTDOWN_END	n/a	n/a	n/a	-999	5	[0, 0, 0]	n/a	FR1	1	R1275D
1120.724	1.074	693617	ORIENT_START	n/a	n/a	n/a	-999	5	[0, 0, 0]	n/a	FR1	1	R1275D
1121.798	0.0	694691	ORIENT_END	n/a	n/a	n/a	-999	5	[0, 0, 0]	n/a	FR1	1	R1275D
1121.798	0.846	694691	ENCODING_START	n/a	n/a	n/a	-999	5	[0, 0, 0]	n/a	FR1	1	R1275D
1122.644	1.637	695537	WORD	n/a	wordpools/wordpool_EN.txt	STAIR	1	5	[0, 0, 0]	n/a	FR1	1	R1275D
1124.281	1.124	697174	WORD_OFF	n/a	n/a	STAIR	1	5	[0, 0, 0]	n/a	FR1	1	R1275D
1125.405	1.626	698298	WORD	n/a	wordpools/wordpool_EN.txt	DUCK	2	5	[0, 0, 0]	n/a	FR1	1	R1275D
1127.031	1.094	699924	WORD_OFF	n/a	n/a	DUCK	2	5	[0, 0, 0]	n/a	FR1	1	R1275D
1128.125	1.608	701018	WORD	n/a	wordpools/wordpool_EN.txt	SINK	3	5	[0, 0, 0]	n/a	FR1	1	R1275D
1129.733	1.009	702626	WORD_OFF	n/a	n/a	SINK	3	5	[0, 0, 0]	n/a	FR1	1	R1275D
1130.742	1.624	703635	WORD	n/a	wordpools/wordpool_EN.txt	STONE	4	5	[0, 0, 0]	n/a	FR1	1	R1275D
1132.366	0.836	705259	WORD_OFF	n/a	n/a	STONE	4	5	[0, 0, 0]	n/a	FR1	1	R1275D
1133.202	1.615	706095	WORD	n/a	wordpools/wordpool_EN.txt	SHARK	5	5	[0, 0, 0]	n/a	FR1	1	R1275D
1134.817	0.76	707710	WORD_OFF	n/a	n/a	SHARK	5	5	[0, 0, 0]	n/a	FR1	1	R1275D
1135.577	1.623	708470	WORD	n/a	wordpools/wordpool_EN.txt	FUDGE	6	5	[0, 0, 0]	n/a	FR1	1	R1275D
1137.2	1.067	710092	WORD_OFF	n/a	n/a	FUDGE	6	5	[0, 0, 0]	n/a	FR1	1	R1275D
1138.267	1.633	711159	WORD	n/a	wordpools/wordpool_EN.txt	TREE	7	5	[0, 0, 0]	n/a	FR1	1	R1275D
1139.9	1.147	712792	WORD_OFF	n/a	n/a	TREE	7	5	[0, 0, 0]	n/a	FR1	1	R1275D
1141.047	1.637	713939	WORD	n/a	wordpools/wordpool_EN.txt	PANTS	8	5	[0, 0, 0]	n/a	FR1	1	R1275D
1142.684	0.941	715576	WORD_OFF	n/a	n/a	PANTS	8	5	[0, 0, 0]	n/a	FR1	1	R1275D
1143.625	1.626	716517	WORD	n/a	wordpools/wordpool_EN.txt	FLAME	9	5	[0, 0, 0]	n/a	FR1	1	R1275D
1145.251	0.894	718143	WORD_OFF	n/a	n/a	FLAME	9	5	[0, 0, 0]	n/a	FR1	1	R1275D
1146.145	1.608	719037	WORD	n/a	wordpools/wordpool_EN.txt	TRAIN	10	5	[0, 0, 0]	n/a	FR1	1	R1275D
1147.753	0.805	720645	WORD_OFF	n/a	n/a	TRAIN	10	5	[0, 0, 0]	n/a	FR1	1	R1275D
1148.558	1.628	721450	WORD	n/a	wordpools/wordpool_EN.txt	DRESS	11	5	[0, 0, 0]	n/a	FR1	1	R1275D
1150.186	1.065	723078	WORD_OFF	n/a	n/a	DRESS	11	5	[0, 0, 0]	n/a	FR1	1	R1275D
1151.251	1.635	724143	WORD	n/a	wordpools/wordpool_EN.txt	OAR	12	5	[0, 0, 0]	n/a	FR1	1	R1275D
1152.886	0.001	725778	WORD_OFF	n/a	n/a	OAR	12	5	[0, 0, 0]	n/a	FR1	1	R1275D
1152.887	0.0	725779	ENCODING_END	n/a	n/a	n/a	-999	5	[0, 0, 0]	n/a	FR1	1	R1275D
1152.887	0.0	725779	DISTRACT_START	n/a	n/a	n/a	-999	5	[0, 0, 0]	n/a	FR1	1	R1275D
1152.887	0.016	725779	START	n/a	n/a	n/a	-999	5	[-999, -999, -999]	n/a	FR1	1	R1275D
1152.903	8.034	725795	PROB	8.034	n/a	n/a	-999	5	[2, 5, 9]	16	FR1	1	R1275D
1160.937	5.301	733828	PROB	5.301	n/a	n/a	-999	5	[4, 8, 4]	16	FR1	1	R1275D
1166.238	5.619	739129	PROB	5.619	n/a	n/a	-999	5	[9, 2, 2]	13	FR1	1	R1275D
1171.857	9.404	744748	PROB	9.404	n/a	n/a	-999	5	[5, 8, 3]	16	FR1	1	R1275D
1181.261	0.014	754151	STOP	n/a	n/a	n/a	-999	5	[-999, -999, -999]	n/a	FR1	1	R1275D
1181.275	0.581	754165	DISTRACT_END	n/a	n/a	n/a	-999	5	[0, 0, 0]	n/a	FR1	1	R1275D
1181.856	1.719	754746	RETRIEVAL_ORIENT_START	n/a	n/a	n/a	-999	5	[0, 0, 0]	n/a	FR1	1	R1275D
1183.575	0.0	756465	RETRIEVAL_ORIENT_END	n/a	n/a	n/a	-999	5	[0, 0, 0]	n/a	FR1	1	R1275D
1183.575	1.874	756465	REC_START	n/a	n/a	n/a	-999	5	[0, 0, 0]	n/a	FR1	1	R1275D
1185.449	1.344	758339	REC_WORD	1.344	n/a	OAR	12	5	[0, 0, 0]	n/a	FR1	1	R1275D
1186.793	13.477	759683	REC_WORD	13.477	n/a	FLAME	9	5	[0, 0, 0]	n/a	FR1	1	R1275D
1200.27	1.589	773159	REC_WORD	1.589	n/a	DUCK	2	5	[0, 0, 0]	n/a	FR1	1	R1275D
1201.859	5.028	774748	REC_WORD_VV	5.028	n/a	<>	-999	5	[0, 0, 0]	n/a	FR1	1	R1275D
1206.887	6.7	779776	REC_WORD_VV	6.7	n/a	<>	-999	5	[0, 0, 0]	n/a	FR1	1	R1275D
1213.587	0.001	786476	REC_END	n/a	n/a	n/a	-999	5	[0, 0, 0]	n/a	FR1	1	R1275D
1213.588	0.014	786477	TRIAL_END	n/a	n/a	n/a	-999	5	[0, 0, 0]	n/a	FR1	1	R1275D
1213.602	0.0	786491	TRIAL_START	n/a	n/a	n/a	-999	6	[0, 0, 0]	n/a	FR1	1	R1275D
1213.602	0.0	786491	TRIAL	n/a	n/a	n/a	-999	6	[0, 0, 0]	n/a	FR1	1	R1275D
1213.602	1.729	786491	WAITING_START	n/a	n/a	n/a	-999	6	[0, 0, 0]	n/a	FR1	1	R1275D
1215.331	0.0	788220	WAITING_END	n/a	n/a	n/a	-999	6	[0, 0, 0]	n/a	FR1	1	R1275D
1215.331	10.429	788220	COUNTDOWN_START	n/a	n/a	n/a	-999	6	[0, 0, 0]	n/a	FR1	1	R1275D
1225.76	0.0	798648	ORIENT_START	n/a	n/a	n/a	-999	6	[0, 0, 0]	n/a	FR1	1	R1275D
1225.76	1.24	798648	COUNTDOWN_END	n/a	n/a	n/a	-999	6	[0, 0, 0]	n/a	FR1	1	R1275D
1227.0	0.0	799888	ORIENT_END	n/a	n/a	n/a	-999	6	[0, 0, 0]	n/a	FR1	1	R1275D
1227.0	1.076	799888	ENCODING_START	n/a	n/a	n/a	-999	6	[0, 0, 0]	n/a	FR1	1	R1275D
1228.076	1.625	800964	WORD	n/a	wordpools/wordpool_EN.txt	POLE	1	6	[0, 0, 0]	n/a	FR1	1	R1275D
1229.701	0.76	802589	WORD_OFF	n/a	n/a	POLE	1	6	[0, 0, 0]	n/a	FR1	1	R1275D
1230.461	1.623	803349	WORD	n/a	wordpools/wordpool_EN.txt	LAND	2	6	[0, 0, 0]	n/a	FR1	1	R1275D
1232.084	1.107	804972	WORD_OFF	n/a	n/a	LAND	2	6	[0, 0, 0]	n/a	FR1	1	R1275D
1233.191	1.628	806079	WORD	n/a	wordpools/wordpool_EN.txt	DESK	3	6	[0, 0, 0]	n/a	FR1	1	R1275D
1234.819	1.151	807707	WORD_OFF	n/a	n/a	DESK	3	6	[0, 0, 0]	n/a	FR1	1	R1275D
1235.97	1.632	808858	WORD	n/a	wordpools/wordpool_EN.txt	CAVE	4	6	[0, 0, 0]	n/a	FR1	1	R1275D
1237.602	0.856	810490	WORD_OFF	n/a	n/a	CAVE	4	6	[0, 0, 0]	n/a	FR1	1	R1275D
1238.458	1.627	811346	WORD	n/a	wordpools/wordpool_EN.txt	FLEA	5	6	[0, 0, 0]	n/a	FR1	1	R1275D
1240.085	0.775	812973	WORD_OFF	n/a	n/a	FLEA	5	6	[0, 0, 0]	n/a	FR1	1	R1275D
1240.86	1.626	813747	WORD	n/a	wordpools/wordpool_EN.txt	SHIP	6	6	[0, 0, 0]	n/a	FR1	1	R1275D
1242.486	0.935	815373	WORD_OFF	n/a	n/a	SHIP	6	6	[0, 0, 0]	n/a	FR1	1	R1275D
1243.421	1.632	816308	WORD	n/a	wordpools/wordpool_EN.txt	TEA	7	6	[0, 0, 0]	n/a	FR1	1	R1275D
1245.053	0.99	817940	WORD_OFF	n/a	n/a	TEA	7	6	[0, 0, 0]	n/a	FR1	1	R1275D
1246.043	1.627	818930	WORD	n/a	wordpools/wordpool_EN.txt	CONE	8	6	[0, 0, 0]	n/a	FR1	1	R1275D
1247.67	0.923	820557	WORD_OFF	n/a	n/a	CONE	8	6	[0, 0, 0]	n/a	FR1	1	R1275D
1248.593	1.628	821480	WORD	n/a	wordpools/wordpool_EN.txt	PIN	9	6	[0, 0, 0]	n/a	FR1	1	R1275D
1250.221	0.835	823108	WORD_OFF	n/a	n/a	PIN	9	6	[0, 0, 0]	n/a	FR1	1	R1275D
1251.056	1.632	823943	WORD	n/a	wordpools/wordpool_EN.txt	BOX	10	6	[0, 0, 0]	n/a	FR1	1	R1275D
1252.688	0.897	825575	WORD_OFF	n/a	n/a	BOX	10	6	[0, 0, 0]	n/a	FR1	1	R1275D
1253.585	1.636	826472	WORD	n/a	wordpools/wordpool_EN.txt	STEAK	11	6	[0, 0, 0]	n/a	FR1	1	R1275D
1255.221	0.763	828108	WORD_OFF	n/a	n/a	STEAK	11	6	[0, 0, 0]	n/a	FR1	1	R1275D
1255.984	1.621	828871	WORD	n/a	wordpools/wordpool_EN.txt	TOOL	12	6	[0, 0, 0]	n/a	FR1	1	R1275D
1257.605	0.001	830492	WORD_OFF	n/a	n/a	TOOL	12	6	[0, 0, 0]	n/a	FR1	1	R1275D
1257.606	0.0	830493	ENCODING_END	n/a	n/a	n/a	-999	6	[0, 0, 0]	n/a	FR1	1	R1275D
1257.606	0.0	830493	DISTRACT_START	n/a	n/a	n/a	-999	6	[0, 0, 0]	n/a	FR1	1	R1275D
1257.606	0.016	830493	START	n/a	n/a	n/a	-999	6	[-999, -999, -999]	n/a	FR1	1	R1275D
1257.622	6.918	830509	PROB	6.918	n/a	n/a	-999	6	[7, 9, 2]	19	FR1	1	R1275D
1264.54	16.562	837426	PROB	16.562	n/a	n/a	-999	6	[8, 5, 8]	21	FR1	1	R1275D
1281.102	0.008	853988	STOP	n/a	n/a	n/a	-999	6	[-999, -999, -999]	n/a	FR1	1	R1275D
1281.11	0.638	853996	DISTRACT_END	n/a	n/a	n/a	-999	6	[0, 0, 0]	n/a	FR1	1	R1275D
1281.748	1.579	854634	RETRIEVAL_ORIENT_START	n/a	n/a	n/a	-999	6	[0, 0, 0]	n/a	FR1	1	R1275D
1283.327	0.0	856212	RETRIEVAL_ORIENT_END	n/a	n/a	n/a	-999	6	[0, 0, 0]	n/a	FR1	1	R1275D
1283.327	4.621	856212	REC_START	n/a	n/a	n/a	-999	6	[0, 0, 0]	n/a	FR1	1	R1275D
1287.948	4.165	860833	REC_WORD_VV	4.165	n/a	<>	-999	6	[0, 0, 0]	n/a	FR1	1	R1275D
1292.113	21.227	864998	REC_WORD_VV	21.227	n/a	<>	-999	6	[0, 0, 0]	n/a	FR1	1	R1275D
1313.34	0.0	886224	TRIAL_END	n/a	n/a	n/a	-999	6	[0, 0, 0]	n/a	FR1	1	R1275D
1313.34	0.016	886224	REC_END	n/a	n/a	n/a	-999	6	[0, 0, 0]	n/a	FR1	1	R1275D
1313.356	0.0	886240	TRIAL_START	n/a	n/a	n/a	-999	7	[0, 0, 0]	n/a	FR1	1	R1275D
1313.356	0.0	886240	TRIAL	n/a	n/a	n/a	-999	7	[0, 0, 0]	n/a	FR1	1	R1275D
1313.356	2.093	886240	WAITING_START	n/a	n/a	n/a	-999	7	[0, 0, 0]	n/a	FR1	1	R1275D
1315.449	0.0	888333	WAITING_END	n/a	n/a	n/a	-999	7	[0, 0, 0]	n/a	FR1	1	R1275D
1315.449	10.43	888333	COUNTDOWN_START	n/a	n/a	n/a	-999	7	[0, 0, 0]	n/a	FR1	1	R1275D
1325.879	0.0	898762	COUNTDOWN_END	n/a	n/a	n/a	-999	7	[0, 0, 0]	n/a	FR1	1	R1275D
1325.879	1.222	898762	ORIENT_START	n/a	n/a	n/a	-999	7	[0, 0, 0]	n/a	FR1	1	R1275D
1327.101	0.001	899984	ORIENT_END	n/a	n/a	n/a	-999	7	[0, 0, 0]	n/a	FR1	1	R1275D
1327.102	0.845	899985	ENCODING_START	n/a	n/a	n/a	-999	7	[0, 0, 0]	n/a	FR1	1	R1275D
1327.947	1.638	900830	WORD	n/a	wordpools/wordpool_EN.txt	BALL	1	7	[0, 0, 0]	n/a	FR1	1	R1275D
1329.585	0.969	902468	WORD_OFF	n/a	n/a	BALL	1	7	[0, 0, 0]	n/a	FR1	1	R1275D
1330.554	1.632	903437	WORD	n/a	wordpools/wordpool_EN.txt	BEAR	2	7	[0, 0, 0]	n/a	FR1	1	R1275D
1332.186	0.816	905069	WORD_OFF	n/a	n/a	BEAR	2	7	[0, 0, 0]	n/a	FR1	1	R1275D
1333.002	1.634	905885	WORD	n/a	wordpools/wordpool_EN.txt	SPRING	3	7	[0, 0, 0]	n/a	FR1	1	R1275D
1334.636	0.848	907519	WORD_OFF	n/a	n/a	SPRING	3	7	[0, 0, 0]	n/a	FR1	1	R1275D
1335.484	1.636	908367	WORD	n/a	wordpools/wordpool_EN.txt	NOSE	4	7	[0, 0, 0]	n/a	FR1	1	R1275D
1337.12	1.085	910003	WORD_OFF	n/a	n/a	NOSE	4	7	[0, 0, 0]	n/a	FR1	1	R1275D
1338.205	1.633	911088	WORD	n/a	wordpools/wordpool_EN.txt	NET	5	7	[0, 0, 0]	n/a	FR1	1	R1275D
1339.838	1.018	912721	WORD_OFF	n/a	n/a	NET	5	7	[0, 0, 0]	n/a	FR1	1	R1275D
1340.856	1.631	913739	WORD	n/a	wordpools/wordpool_EN.txt	THUMB	6	7	[0, 0, 0]	n/a	FR1	1	R1275D
1342.487	0.764	915370	WORD_OFF	n/a	n/a	THUMB	6	7	[0, 0, 0]	n/a	FR1	1	R1275D
1343.251	1.637	916134	WORD	n/a	wordpools/wordpool_EN.txt	TRASH	7	7	[0, 0, 0]	n/a	FR1	1	R1275D
1344.888	0.94	917770	WORD_OFF	n/a	n/a	TRASH	7	7	[0, 0, 0]	n/a	FR1	1	R1275D
1345.828	1.627	918710	WORD	n/a	wordpools/wordpool_EN.txt	BEE	8	7	[0, 0, 0]	n/a	FR1	1	R1275D
1347.455	0.829	920337	WORD_OFF	n/a	n/a	BEE	8	7	[0, 0, 0]	n/a	FR1	1	R1275D
1348.284	1.638	921166	WORD	n/a	wordpools/wordpool_EN.txt	FLUTE	9	7	[0, 0, 0]	n/a	FR1	1	R1275D
1349.922	1.112	922804	WORD_OFF	n/a	n/a	FLUTE	9	7	[0, 0, 0]	n/a	FR1	1	R1275D
1351.034	1.622	923916	WORD	n/a	wordpools/wordpool_EN.txt	BOMB	10	7	[0, 0, 0]	n/a	FR1	1	R1275D
1352.656	0.99	925538	WORD_OFF	n/a	n/a	BOMB	10	7	[0, 0, 0]	n/a	FR1	1	R1275D
1353.646	1.627	926528	WORD	n/a	wordpools/wordpool_EN.txt	SAIL	11	7	[0, 0, 0]	n/a	FR1	1	R1275D
1355.273	1.116	928155	WORD_OFF	n/a	n/a	SAIL	11	7	[0, 0, 0]	n/a	FR1	1	R1275D
1356.389	1.635	929271	WORD	n/a	wordpools/wordpool_EN.txt	SUIT	12	7	[0, 0, 0]	n/a	FR1	1	R1275D
1358.024	0.0	930906	ENCODING_END	n/a	n/a	n/a	-999	7	[0, 0, 0]	n/a	FR1	1	R1275D
1358.024	0.0	930906	DISTRACT_START	n/a	n/a	n/a	-999	7	[0, 0, 0]	n/a	FR1	1	R1275D
1358.024	0.001	930906	WORD_OFF	n/a	n/a	SUIT	12	7	[0, 0, 0]	n/a	FR1	1	R1275D
1358.025	0.015	930907	START	n/a	n/a	n/a	-999	7	[-999, -999, -999]	n/a	FR1	1	R1275D
1358.04	6.518	930922	PROB	6.518	n/a	n/a	-999	7	[6, 6, 5]	17	FR1	1	R1275D
1364.558	13.746	937439	PROB	13.746	n/a	n/a	-999	7	[4, 9, 1]	14	FR1	1	R1275D
1378.304	0.007	951185	STOP	n/a	n/a	n/a	-999	7	[-999, -999, -999]	n/a	FR1	1	R1275D
1378.311	0.633	951192	DISTRACT_END	n/a	n/a	n/a	-999	7	[0, 0, 0]	n/a	FR1	1	R1275D
1378.944	1.534	951825	RETRIEVAL_ORIENT_START	n/a	n/a	n/a	-999	7	[0, 0, 0]	n/a	FR1	1	R1275D
1380.478	0.0	953359	RETRIEVAL_ORIENT_END	n/a	n/a	n/a	-999	7	[0, 0, 0]	n/a	FR1	1	R1275D
1380.478	2.757	953359	REC_START	n/a	n/a	n/a	-999	7	[0, 0, 0]	n/a	FR1	1	R1275D
1383.235	3.599	956116	REC_WORD	3.599	n/a	FLUTE	9	7	[0, 0, 0]	n/a	FR1	1	R1275D
1386.834	5.278	959714	REC_WORD	5.278	n/a	TRASH	7	7	[0, 0, 0]	n/a	FR1	1	R1275D
1392.112	13.627	964992	REC_WORD_VV	13.627	n/a	<>	-999	7	[0, 0, 0]	n/a	FR1	1	R1275D
1405.739	4.751	978619	REC_WORD_VV	4.751	n/a	<>	-999	7	[0, 0, 0]	n/a	FR1	1	R1275D
1410.49	0.001	983369	REC_END	n/a	n/a	n/a	-999	7	[0, 0, 0]	n/a	FR1	1	R1275D
1410.491	0.016	983370	TRIAL_END	n/a	n/a	n/a	-999	7	[0, 0, 0]	n/a	FR1	1	R1275D
1410.507	0.001	983386	TRIAL_START	n/a	n/a	n/a	-999	8	[0, 0, 0]	n/a	FR1	1	R1275D
1410.508	0.0	983387	TRIAL	n/a	n/a	n/a	-999	8	[0, 0, 0]	n/a	FR1	1	R1275D
1410.508	1.592	983387	WAITING_START	n/a	n/a	n/a	-999	8	[0, 0, 0]	n/a	FR1	1	R1275D
1412.1	0.0	984979	WAITING_END	n/a	n/a	n/a	-999	8	[0, 0, 0]	n/a	FR1	1	R1275D
1412.1	10.43	984979	COUNTDOWN_START	n/a	n/a	n/a	-999	8	[0, 0, 0]	n/a	FR1	1	R1275D
1422.53	0.0	995409	COUNTDOWN_END	n/a	n/a	n/a	-999	8	[0, 0, 0]	n/a	FR1	1	R1275D
1422.53	1.156	995409	ORIENT_START	n/a	n/a	n/a	-999	8	[0, 0, 0]	n/a	FR1	1	R1275D
1423.686	0.0	996565	ORIENT_END	n/a	n/a	n/a	-999	8	[0, 0, 0]	n/a	FR1	1	R1275D
1423.686	0.786	996565	ENCODING_START	n/a	n/a	n/a	-999	8	[0, 0, 0]	n/a	FR1	1	R1275D
1424.472	1.631	997351	WORD	n/a	wordpools/wordpool_EN.txt	POOL	1	8	[0, 0, 0]	n/a	FR1	1	R1275D
1426.103	0.872	998982	WORD_OFF	n/a	n/a	POOL	1	8	[0, 0, 0]	n/a	FR1	1	R1275D
1426.975	1.628	999853	WORD	n/a	wordpools/wordpool_EN.txt	BAT	2	8	[0, 0, 0]	n/a	FR1	1	R1275D
1428.603	1.071	1001481	WORD_OFF	n/a	n/a	BAT	2	8	[0, 0, 0]	n/a	FR1	1	R1275D
1429.674	1.629	1002552	WORD	n/a	wordpools/wordpool_EN.txt	JUDGE	3	8	[0, 0, 0]	n/a	FR1	1	R1275D
1431.303	0.788	1004181	WORD_OFF	n/a	n/a	JUDGE	3	8	[0, 0, 0]	n/a	FR1	1	R1275D
1432.091	1.631	1004969	WORD	n/a	wordpools/wordpool_EN.txt	BANK	4	8	[0, 0, 0]	n/a	FR1	1	R1275D
1433.722	0.81	1006600	WORD_OFF	n/a	n/a	BANK	4	8	[0, 0, 0]	n/a	FR1	1	R1275D
1434.532	1.622	1007410	WORD	n/a	wordpools/wordpool_EN.txt	BAND	5	8	[0, 0, 0]	n/a	FR1	1	R1275D
1436.154	0.751	1009032	WORD_OFF	n/a	n/a	BAND	5	8	[0, 0, 0]	n/a	FR1	1	R1275D
1436.905	1.633	1009783	WORD	n/a	wordpools/wordpool_EN.txt	SEA	6	8	[0, 0, 0]	n/a	FR1	1	R1275D
1438.538	0.871	1011416	WORD_OFF	n/a	n/a	SEA	6	8	[0, 0, 0]	n/a	FR1	1	R1275D
1439.409	1.63	1012287	WORD	n/a	wordpools/wordpool_EN.txt	SNAIL	7	8	[0, 0, 0]	n/a	FR1	1	R1275D
1441.039	1.126	1013917	WORD_OFF	n/a	n/a	SNAIL	7	8	[0, 0, 0]	n/a	FR1	1	R1275D
1442.165	1.625	1015043	WORD	n/a	wordpools/wordpool_EN.txt	SNAKE	8	8	[0, 0, 0]	n/a	FR1	1	R1275D
1443.79	0.96	1016668	WORD_OFF	n/a	n/a	SNAKE	8	8	[0, 0, 0]	n/a	FR1	1	R1275D
1444.75	1.623	1017628	WORD	n/a	wordpools/wordpool_EN.txt	PIE	9	8	[0, 0, 0]	n/a	FR1	1	R1275D
1446.373	1.149	1019251	WORD_OFF	n/a	n/a	PIE	9	8	[0, 0, 0]	n/a	FR1	1	R1275D
1447.522	1.635	1020399	WORD	n/a	wordpools/wordpool_EN.txt	SMILE	10	8	[0, 0, 0]	n/a	FR1	1	R1275D
1449.157	0.848	1022034	WORD_OFF	n/a	n/a	SMILE	10	8	[0, 0, 0]	n/a	FR1	1	R1275D
1450.005	1.636	1022882	WORD	n/a	wordpools/wordpool_EN.txt	SHIELD	11	8	[0, 0, 0]	n/a	FR1	1	R1275D
1451.641	1.125	1024518	WORD_OFF	n/a	n/a	SHIELD	11	8	[0, 0, 0]	n/a	FR1	1	R1275D
1452.766	1.625	1025643	WORD	n/a	wordpools/wordpool_EN.txt	STOOL	12	8	[0, 0, 0]	n/a	FR1	1	R1275D
1454.391	0.001	1027268	WORD_OFF	n/a	n/a	STOOL	12	8	[0, 0, 0]	n/a	FR1	1	R1275D
1454.392	0.0	1027269	ENCODING_END	n/a	n/a	n/a	-999	8	[0, 0, 0]	n/a	FR1	1	R1275D
1454.392	0.0	1027269	DISTRACT_START	n/a	n/a	n/a	-999	8	[0, 0, 0]	n/a	FR1	1	R1275D
1454.392	0.016	1027269	START	n/a	n/a	n/a	-999	8	[-999, -999, -999]	n/a	FR1	1	R1275D
1454.408	5.15	1027285	PROB	5.15	n/a	n/a	-999	8	[2, 1, 7]	10	FR1	1	R1275D
1459.558	5.035	1032435	PROB	5.035	n/a	n/a	-999	8	[2, 8, 3]	13	FR1	1	R1275D
1464.593	4.084	1037470	PROB	4.084	n/a	n/a	-999	8	[4, 1, 6]	11	FR1	1	R1275D
1468.677	5.826	1041553	PROB	5.826	n/a	n/a	-999	8	[7, 5, 3]	15	FR1	1	R1275D
1474.503	0.008	1047379	STOP	n/a	n/a	n/a	-999	8	[-999, -999, -999]	n/a	FR1	1	R1275D
1474.511	0.538	1047387	DISTRACT_END	n/a	n/a	n/a	-999	8	[0, 0, 0]	n/a	FR1	1	R1275D
1475.049	1.646	1047925	RETRIEVAL_ORIENT_START	n/a	n/a	n/a	-999	8	[0, 0, 0]	n/a	FR1	1	R1275D
1476.695	0.0	1049571	REC_START	n/a	n/a	n/a	-999	8	[0, 0, 0]	n/a	FR1	1	R1275D
1476.695	0.5	1049571	RETRIEVAL_ORIENT_END	n/a	n/a	n/a	-999	8	[0, 0, 0]	n/a	FR1	1	R1275D
1477.195	1.387	1050071	REC_WORD	1.387	n/a	STOOL	12	8	[0, 0, 0]	n/a	FR1	1	R1275D
1478.582	9.523	1051458	REC_WORD	9.523	n/a	SHIELD	11	8	[0, 0, 0]	n/a	FR1	1	R1275D
1488.105	14.389	1060981	REC_WORD_VV	14.389	n/a	<>	-999	8	[0, 0, 0]	n/a	FR1	1	R1275D
1502.494	4.214	1075369	REC_WORD_VV	4.214	n/a	<>	-999	8	[0, 0, 0]	n/a	FR1	1	R1275D
1506.708	0.0	1079583	REC_END	n/a	n/a	n/a	-999	8	[0, 0, 0]	n/a	FR1	1	R1275D
1506.708	0.017	1079583	TRIAL_END	n/a	n/a	n/a	-999	8	[0, 0, 0]	n/a	FR1	1	R1275D
1506.725	0.0	1079600	WAITING_START	n/a	n/a	n/a	-999	9	[0, 0, 0]	n/a	FR1	1	R1275D
1506.725	0.0	1079600	TRIAL	n/a	n/a	n/a	-999	9	[0, 0, 0]	n/a	FR1	1	R1275D
1506.725	1.776	1079600	TRIAL_START	n/a	n/a	n/a	-999	9	[0, 0, 0]	n/a	FR1	1	R1275D
1508.501	0.0	1081376	WAITING_END	n/a	n/a	n/a	-999	9	[0, 0, 0]	n/a	FR1	1	R1275D
1508.501	10.429	1081376	COUNTDOWN_START	n/a	n/a	n/a	-999	9	[0, 0, 0]	n/a	FR1	1	R1275D
1518.93	0.001	1091804	COUNTDOWN_END	n/a	n/a	n/a	-999	9	[0, 0, 0]	n/a	FR1	1	R1275D
1518.931	1.172	1091805	ORIENT_START	n/a	n/a	n/a	-999	9	[0, 0, 0]	n/a	FR1	1	R1275D
1520.103	0.0	1092977	ORIENT_END	n/a	n/a	n/a	-999	9	[0, 0, 0]	n/a	FR1	1	R1275D
1520.103	0.813	1092977	ENCODING_START	n/a	n/a	n/a	-999	9	[0, 0, 0]	n/a	FR1	1	R1275D
1520.916	1.638	1093790	WORD	n/a	wordpools/wordpool_EN.txt	JEEP	1	9	[0, 0, 0]	n/a	FR1	1	R1275D
1522.554	0.864	1095428	WORD_OFF	n/a	n/a	JEEP	1	9	[0, 0, 0]	n/a	FR1	1	R1275D
1523.418	1.636	1096292	WORD	n/a	wordpools/wordpool_EN.txt	MAT	2	9	[0, 0, 0]	n/a	FR1	1	R1275D
1525.054	0.757	1097928	WORD_OFF	n/a	n/a	MAT	2	9	[0, 0, 0]	n/a	FR1	1	R1275D
1525.811	1.627	1098685	WORD	n/a	wordpools/wordpool_EN.txt	SWAMP	3	9	[0, 0, 0]	n/a	FR1	1	R1275D
1527.438	1.025	1100312	WORD_OFF	n/a	n/a	SWAMP	3	9	[0, 0, 0]	n/a	FR1	1	R1275D
1528.463	1.625	1101337	WORD	n/a	wordpools/wordpool_EN.txt	DEER	4	9	[0, 0, 0]	n/a	FR1	1	R1275D
1530.088	0.787	1102961	WORD_OFF	n/a	n/a	DEER	4	9	[0, 0, 0]	n/a	FR1	1	R1275D
1530.875	1.63	1103748	WORD	n/a	wordpools/wordpool_EN.txt	RUG	5	9	[0, 0, 0]	n/a	FR1	1	R1275D
1532.505	0.76	1105378	WORD_OFF	n/a	n/a	RUG	5	9	[0, 0, 0]	n/a	FR1	1	R1275D
1533.265	1.624	1106138	WORD	n/a	wordpools/wordpool_EN.txt	BRUSH	6	9	[0, 0, 0]	n/a	FR1	1	R1275D
1534.889	0.761	1107762	WORD_OFF	n/a	n/a	BRUSH	6	9	[0, 0, 0]	n/a	FR1	1	R1275D
1535.65	1.623	1108523	WORD	n/a	wordpools/wordpool_EN.txt	STEM	7	9	[0, 0, 0]	n/a	FR1	1	R1275D
1537.273	0.993	1110146	WORD_OFF	n/a	n/a	STEM	7	9	[0, 0, 0]	n/a	FR1	1	R1275D
1538.266	1.608	1111139	WORD	n/a	wordpools/wordpool_EN.txt	ICE	8	9	[0, 0, 0]	n/a	FR1	1	R1275D
1539.874	0.958	1112747	WORD_OFF	n/a	n/a	ICE	8	9	[0, 0, 0]	n/a	FR1	1	R1275D
1540.832	1.625	1113705	WORD	n/a	wordpools/wordpool_EN.txt	WEED	9	9	[0, 0, 0]	n/a	FR1	1	R1275D
1542.457	0.794	1115330	WORD_OFF	n/a	n/a	WEED	9	9	[0, 0, 0]	n/a	FR1	1	R1275D
1543.251	1.607	1116124	WORD	n/a	wordpools/wordpool_EN.txt	FRUIT	10	9	[0, 0, 0]	n/a	FR1	1	R1275D
1544.858	1.131	1117731	WORD_OFF	n/a	n/a	FRUIT	10	9	[0, 0, 0]	n/a	FR1	1	R1275D
1545.989	1.636	1118862	WORD	n/a	wordpools/wordpool_EN.txt	DITCH	11	9	[0, 0, 0]	n/a	FR1	1	R1275D
1547.625	0.838	1120498	WORD_OFF	n/a	n/a	DITCH	11	9	[0, 0, 0]	n/a	FR1	1	R1275D
1548.463	1.629	1121336	WORD	n/a	wordpools/wordpool_EN.txt	BLUSH	12	9	[0, 0, 0]	n/a	FR1	1	R1275D
1550.092	0.0	1122965	WORD_OFF	n/a	n/a	BLUSH	12	9	[0, 0, 0]	n/a	FR1	1	R1275D
1550.092	0.001	1122965	ENCODING_END	n/a	n/a	n/a	-999	9	[0, 0, 0]	n/a	FR1	1	R1275D
1550.093	0.0	1122966	DISTRACT_START	n/a	n/a	n/a	-999	9	[0, 0, 0]	n/a	FR1	1	R1275D
1550.093	0.015	1122966	START	n/a	n/a	n/a	-999	9	[-999, -999, -999]	n/a	FR1	1	R1275D
1550.108	7.619	1122981	PROB	7.619	n/a	n/a	-999	9	[8, 6, 8]	22	FR1	1	R1275D
1557.727	3.8	1130599	PROB	3.8	n/a	n/a	-999	9	[1, 1, 4]	6	FR1	1	R1275D
1561.527	5.484	1134399	PROB	5.484	n/a	n/a	-999	9	[1, 4, 5]	10	FR1	1	R1275D
1567.011	89.027	1139883	PROB	89.027	n/a	n/a	-999	9	[9, 7, 6]	22	FR1	1	R1275D
1656.038	0.006	1228905	STOP	n/a	n/a	n/a	-999	9	[-999, -999, -999]	n/a	FR1	1	R1275D
1656.044	0.512	1228911	DISTRACT_END	n/a	n/a	n/a	-999	9	[0, 0, 0]	n/a	FR1	1	R1275D
1656.556	1.622	1229423	RETRIEVAL_ORIENT_START	n/a	n/a	n/a	-999	9	[0, 0, 0]	n/a	FR1	1	R1275D
1658.178	0.0	1231045	REC_START	n/a	n/a	n/a	-999	9	[0, 0, 0]	n/a	FR1	1	R1275D
1658.178	3.212	1231045	RETRIEVAL_ORIENT_END	n/a	n/a	n/a	-999	9	[0, 0, 0]	n/a	FR1	1	R1275D
1661.39	26.802	1234257	REC_WORD_VV	26.802	n/a	<>	-999	9	[0, 0, 0]	n/a	FR1	1	R1275D
1688.192	0.0	1261058	REC_END	n/a	n/a	n/a	-999	9	[0, 0, 0]	n/a	FR1	1	R1275D
1688.192	0.017	1261058	TRIAL_END	n/a	n/a	n/a	-999	9	[0, 0, 0]	n/a	FR1	1	R1275D
1688.209	0.001	1261075	TRIAL_START	n/a	n/a	n/a	-999	10	[0, 0, 0]	n/a	FR1	1	R1275D
1688.21	0.0	1261076	TRIAL	n/a	n/a	n/a	-999	10	[0, 0, 0]	n/a	FR1	1	R1275D
1688.21	1.807	1261076	WAITING_START	n/a	n/a	n/a	-999	10	[0, 0, 0]	n/a	FR1	1	R1275D
1690.017	0.001	1262883	WAITING_END	n/a	n/a	n/a	-999	10	[0, 0, 0]	n/a	FR1	1	R1275D
1690.018	10.429	1262884	COUNTDOWN_START	n/a	n/a	n/a	-999	10	[0, 0, 0]	n/a	FR1	1	R1275D
1700.447	0.0	1273312	COUNTDOWN_END	n/a	n/a	n/a	-999	10	[0, 0, 0]	n/a	FR1	1	R1275D
1700.447	1.139	1273312	ORIENT_START	n/a	n/a	n/a	-999	10	[0, 0, 0]	n/a	FR1	1	R1275D
1701.586	0.001	1274451	ORIENT_END	n/a	n/a	n/a	-999	10	[0, 0, 0]	n/a	FR1	1	R1275D
1701.587	0.943	1274452	ENCODING_START	n/a	n/a	n/a	-999	10	[0, 0, 0]	n/a	FR1	1	R1275D
1702.53	1.623	1275395	WORD	n/a	wordpools/wordpool_EN.txt	FOOT	1	10	[0, 0, 0]	n/a	FR1	1	R1275D
1704.153	0.797	1277018	WORD_OFF	n/a	n/a	FOOT	1	10	[0, 0, 0]	n/a	FR1	1	R1275D
1704.95	1.637	1277815	WORD	n/a	wordpools/wordpool_EN.txt	CRANE	2	10	[0, 0, 0]	n/a	FR1	1	R1275D
1706.587	0.957	1279452	WORD_OFF	n/a	n/a	CRANE	2	10	[0, 0, 0]	n/a	FR1	1	R1275D
1707.544	1.627	1280409	WORD	n/a	wordpools/wordpool_EN.txt	TOAST	3	10	[0, 0, 0]	n/a	FR1	1	R1275D
1709.171	0.822	1282036	WORD_OFF	n/a	n/a	TOAST	3	10	[0, 0, 0]	n/a	FR1	1	R1275D
1709.993	1.628	1282858	WORD	n/a	wordpools/wordpool_EN.txt	CAT	4	10	[0, 0, 0]	n/a	FR1	1	R1275D
1711.621	0.863	1284486	WORD_OFF	n/a	n/a	CAT	4	10	[0, 0, 0]	n/a	FR1	1	R1275D
1712.484	1.638	1285349	WORD	n/a	wordpools/wordpool_EN.txt	STEAM	5	10	[0, 0, 0]	n/a	FR1	1	R1275D
1714.122	1.089	1286987	WORD_OFF	n/a	n/a	STEAM	5	10	[0, 0, 0]	n/a	FR1	1	R1275D
1715.211	1.629	1288076	WORD	n/a	wordpools/wordpool_EN.txt	CORD	6	10	[0, 0, 0]	n/a	FR1	1	R1275D
1716.84	1.109	1289704	WORD_OFF	n/a	n/a	CORD	6	10	[0, 0, 0]	n/a	FR1	1	R1275D
1717.949	1.624	1290813	WORD	n/a	wordpools/wordpool_EN.txt	GLOVE	7	10	[0, 0, 0]	n/a	FR1	1	R1275D
1719.573	1.089	1292437	WORD_OFF	n/a	n/a	GLOVE	7	10	[0, 0, 0]	n/a	FR1	1	R1275D
1720.662	1.628	1293526	WORD	n/a	wordpools/wordpool_EN.txt	PEA	8	10	[0, 0, 0]	n/a	FR1	1	R1275D
1722.29	0.845	1295154	WORD_OFF	n/a	n/a	PEA	8	10	[0, 0, 0]	n/a	FR1	1	R1275D
1723.135	1.623	1295999	WORD	n/a	wordpools/wordpool_EN.txt	FILM	9	10	[0, 0, 0]	n/a	FR1	1	R1275D
1724.758	1.13	1297622	WORD_OFF	n/a	n/a	FILM	9	10	[0, 0, 0]	n/a	FR1	1	R1275D
1725.888	1.636	1298752	WORD	n/a	wordpools/wordpool_EN.txt	SKI	10	10	[0, 0, 0]	n/a	FR1	1	R1275D
1727.524	0.928	1300388	WORD_OFF	n/a	n/a	SKI	10	10	[0, 0, 0]	n/a	FR1	1	R1275D
1728.452	1.623	1301316	WORD	n/a	wordpools/wordpool_EN.txt	BRIDGE	11	10	[0, 0, 0]	n/a	FR1	1	R1275D
1730.075	1.104	1302939	WORD_OFF	n/a	n/a	BRIDGE	11	10	[0, 0, 0]	n/a	FR1	1	R1275D
1731.179	1.631	1304043	WORD	n/a	wordpools/wordpool_EN.txt	DIME	12	10	[0, 0, 0]	n/a	FR1	1	R1275D
1732.81	0.0	1305674	DISTRACT_START	n/a	n/a	n/a	-999	10	[0, 0, 0]	n/a	FR1	1	R1275D
1732.81	0.0	1305674	WORD_OFF	n/a	n/a	DIME	12	10	[0, 0, 0]	n/a	FR1	1	R1275D
1732.81	0.001	1305674	ENCODING_END	n/a	n/a	n/a	-999	10	[0, 0, 0]	n/a	FR1	1	R1275D
1732.811	0.015	1305675	START	n/a	n/a	n/a	-999	10	[-999, -999, -999]	n/a	FR1	1	R1275D
1732.826	6.935	1305690	PROB	6.935	n/a	n/a	-999	10	[9, 7, 6]	22	FR1	1	R1275D
1739.761	5.283	1312624	PROB	5.283	n/a	n/a	-999	10	[7, 2, 7]	16	FR1	1	R1275D
1745.044	8.698	1317907	PROB	8.698	n/a	n/a	-999	10	[7, 3, 6]	15	FR1	1	R1275D
1753.742	0.021	1326605	STOP	n/a	n/a	n/a	-999	10	[-999, -999, -999]	n/a	FR1	1	R1275D
1753.763	0.517	1326626	DISTRACT_END	n/a	n/a	n/a	-999	10	[0, 0, 0]	n/a	FR1	1	R1275D
1754.28	1.649	1327143	RETRIEVAL_ORIENT_START	n/a	n/a	n/a	-999	10	[0, 0, 0]	n/a	FR1	1	R1275D
1755.929	0.001	1328792	RETRIEVAL_ORIENT_END	n/a	n/a	n/a	-999	10	[0, 0, 0]	n/a	FR1	1	R1275D
1755.93	4.217	1328793	REC_START	n/a	n/a	n/a	-999	10	[0, 0, 0]	n/a	FR1	1	R1275D
1760.147	1.587	1333009	REC_WORD	1.587	n/a	FOOT	1	10	[0, 0, 0]	n/a	FR1	1	R1275D
1761.734	4.982	1334596	REC_WORD	4.982	n/a	DIME	12	10	[0, 0, 0]	n/a	FR1	1	R1275D
1766.716	19.225	1339578	REC_WORD_VV	19.225	n/a	<>	-999	10	[0, 0, 0]	n/a	FR1	1	R1275D
1785.941	0.001	1358802	REC_END	n/a	n/a	n/a	-999	10	[0, 0, 0]	n/a	FR1	1	R1275D
1785.942	0.017	1358803	TRIAL_END	n/a	n/a	n/a	-999	10	[0, 0, 0]	n/a	FR1	1	R1275D
1785.959	0.0	1358820	TRIAL_START	n/a	n/a	n/a	-999	11	[0, 0, 0]	n/a	FR1	1	R1275D
1785.959	0.0	1358820	TRIAL	n/a	n/a	n/a	-999	11	[0, 0, 0]	n/a	FR1	1	R1275D
1785.959	1.626	1358820	WAITING_START	n/a	n/a	n/a	-999	11	[0, 0, 0]	n/a	FR1	1	R1275D
1787.585	0.001	1360446	WAITING_END	n/a	n/a	n/a	-999	11	[0, 0, 0]	n/a	FR1	1	R1275D
1787.586	10.429	1360447	COUNTDOWN_START	n/a	n/a	n/a	-999	11	[0, 0, 0]	n/a	FR1	1	R1275D
1798.015	0.0	1370876	COUNTDOWN_END	n/a	n/a	n/a	-999	11	[0, 0, 0]	n/a	FR1	1	R1275D
1798.015	1.022	1370876	ORIENT_START	n/a	n/a	n/a	-999	11	[0, 0, 0]	n/a	FR1	1	R1275D
1799.037	0.001	1371897	ORIENT_END	n/a	n/a	n/a	-999	11	[0, 0, 0]	n/a	FR1	1	R1275D
1799.038	0.99	1371898	ENCODING_START	n/a	n/a	n/a	-999	11	[0, 0, 0]	n/a	FR1	1	R1275D
1800.028	1.626	1372888	WORD	n/a	wordpools/wordpool_EN.txt	EGG	1	11	[0, 0, 0]	n/a	FR1	1	R1275D
1801.654	0.854	1374514	WORD_OFF	n/a	n/a	EGG	1	11	[0, 0, 0]	n/a	FR1	1	R1275D
1802.508	1.63	1375368	WORD	n/a	wordpools/wordpool_EN.txt	STICK	2	11	[0, 0, 0]	n/a	FR1	1	R1275D
1804.138	0.913	1376998	WORD_OFF	n/a	n/a	STICK	2	11	[0, 0, 0]	n/a	FR1	1	R1275D
1805.051	1.638	1377911	WORD	n/a	wordpools/wordpool_EN.txt	SQUARE	3	11	[0, 0, 0]	n/a	FR1	1	R1275D
1806.689	1.143	1379549	WORD_OFF	n/a	n/a	SQUARE	3	11	[0, 0, 0]	n/a	FR1	1	R1275D
1807.832	1.624	1380692	WORD	n/a	wordpools/wordpool_EN.txt	SOCK	4	11	[0, 0, 0]	n/a	FR1	1	R1275D
1809.456	1.133	1382316	WORD_OFF	n/a	n/a	SOCK	4	11	[0, 0, 0]	n/a	FR1	1	R1275D
1810.589	1.634	1383449	WORD	n/a	wordpools/wordpool_EN.txt	BRICK	5	11	[0, 0, 0]	n/a	FR1	1	R1275D
1812.223	1.088	1385083	WORD_OFF	n/a	n/a	BRICK	5	11	[0, 0, 0]	n/a	FR1	1	R1275D
1813.311	1.629	1386171	WORD	n/a	wordpools/wordpool_EN.txt	ROOT	6	11	[0, 0, 0]	n/a	FR1	1	R1275D
1814.94	0.815	1387800	WORD_OFF	n/a	n/a	ROOT	6	11	[0, 0, 0]	n/a	FR1	1	R1275D
1815.755	1.636	1388615	WORD	n/a	wordpools/wordpool_EN.txt	HAT	7	11	[0, 0, 0]	n/a	FR1	1	R1275D
1817.391	1.021	1390251	WORD_OFF	n/a	n/a	HAT	7	11	[0, 0, 0]	n/a	FR1	1	R1275D
1818.412	1.629	1391272	WORD	n/a	wordpools/wordpool_EN.txt	WORM	8	11	[0, 0, 0]	n/a	FR1	1	R1275D
1820.041	0.787	1392900	WORD_OFF	n/a	n/a	WORM	8	11	[0, 0, 0]	n/a	FR1	1	R1275D
1820.828	1.63	1393687	WORD	n/a	wordpools/wordpool_EN.txt	NEST	9	11	[0, 0, 0]	n/a	FR1	1	R1275D
1822.458	1.15	1395317	WORD_OFF	n/a	n/a	NEST	9	11	[0, 0, 0]	n/a	FR1	1	R1275D
1823.608	1.634	1396467	WORD	n/a	wordpools/wordpool_EN.txt	LOCK	10	11	[0, 0, 0]	n/a	FR1	1	R1275D
1825.242	0.998	1398101	WORD_OFF	n/a	n/a	LOCK	10	11	[0, 0, 0]	n/a	FR1	1	R1275D
1826.24	1.637	1399099	WORD	n/a	wordpools/wordpool_EN.txt	EEL	11	11	[0, 0, 0]	n/a	FR1	1	R1275D
1827.877	0.88	1400736	WORD_OFF	n/a	n/a	EEL	11	11	[0, 0, 0]	n/a	FR1	1	R1275D
1828.757	1.636	1401616	WORD	n/a	wordpools/wordpool_EN.txt	BIRD	12	11	[0, 0, 0]	n/a	FR1	1	R1275D
1830.393	0.0	1403252	WORD_OFF	n/a	n/a	BIRD	12	11	[0, 0, 0]	n/a	FR1	1	R1275D
1830.393	0.001	1403252	ENCODING_END	n/a	n/a	n/a	-999	11	[0, 0, 0]	n/a	FR1	1	R1275D
1830.394	0.0	1403253	DISTRACT_START	n/a	n/a	n/a	-999	11	[0, 0, 0]	n/a	FR1	1	R1275D
1830.394	0.015	1403253	START	n/a	n/a	n/a	-999	11	[-999, -999, -999]	n/a	FR1	1	R1275D
1830.409	7.718	1403268	PROB	7.718	n/a	n/a	-999	11	[6, 3, 6]	15	FR1	1	R1275D
1838.127	5.218	1410986	PROB	5.218	n/a	n/a	-999	11	[8, 2, 9]	19	FR1	1	R1275D
1843.345	6.568	1416203	PROB	6.568	n/a	n/a	-999	11	[8, 1, 5]	14	FR1	1	R1275D
1849.913	4.764	1422771	PROB	4.764	n/a	n/a	-999	11	[1, 9, 6]	16	FR1	1	R1275D
1854.677	0.02	1427535	STOP	n/a	n/a	n/a	-999	11	[-999, -999, -999]	n/a	FR1	1	R1275D
1854.697	0.529	1427555	DISTRACT_END	n/a	n/a	n/a	-999	11	[0, 0, 0]	n/a	FR1	1	R1275D
1855.226	1.589	1428084	RETRIEVAL_ORIENT_START	n/a	n/a	n/a	-999	11	[0, 0, 0]	n/a	FR1	1	R1275D
1856.815	0.001	1429673	RETRIEVAL_ORIENT_END	n/a	n/a	n/a	-999	11	[0, 0, 0]	n/a	FR1	1	R1275D
1856.816	1.071	1429674	REC_START	n/a	n/a	n/a	-999	11	[0, 0, 0]	n/a	FR1	1	R1275D
1857.887	1.165	1430745	REC_WORD	1.165	n/a	EEL	11	11	[0, 0, 0]	n/a	FR1	1	R1275D
1859.052	0.901	1431910	REC_WORD	0.901	n/a	BIRD	12	11	[0, 0, 0]	n/a	FR1	1	R1275D
1859.953	6.136	1432811	REC_WORD	6.136	n/a	NEST	9	11	[0, 0, 0]	n/a	FR1	1	R1275D
1866.089	20.738	1438946	REC_WORD_VV	20.738	n/a	<>	-999	11	[0, 0, 0]	n/a	FR1	1	R1275D
1886.827	0.001	1459683	REC_END	n/a	n/a	n/a	-999	11	[0, 0, 0]	n/a	FR1	1	R1275D
1886.828	0.015	1459684	TRIAL_END	n/a	n/a	n/a	-999	11	[0, 0, 0]	n/a	FR1	1	R1275D
1886.843	0.0	1459699	TRIAL_START	n/a	n/a	n/a	-999	12	[0, 0, 0]	n/a	FR1	1	R1275D
1886.843	0.0	1459699	TRIAL	n/a	n/a	n/a	-999	12	[0, 0, 0]	n/a	FR1	1	R1275D
1886.843	1.61	1459699	WAITING_START	n/a	n/a	n/a	-999	12	[0, 0, 0]	n/a	FR1	1	R1275D
1888.453	0.001	1461309	WAITING_END	n/a	n/a	n/a	-999	12	[0, 0, 0]	n/a	FR1	1	R1275D
1888.454	10.428	1461310	COUNTDOWN_START	n/a	n/a	n/a	-999	12	[0, 0, 0]	n/a	FR1	1	R1275D
1898.882	0.0	1471738	COUNTDOWN_END	n/a	n/a	n/a	-999	12	[0, 0, 0]	n/a	FR1	1	R1275D
1898.882	1.207	1471738	ORIENT_START	n/a	n/a	n/a	-999	12	[0, 0, 0]	n/a	FR1	1	R1275D
1900.089	0.001	1472945	ORIENT_END	n/a	n/a	n/a	-999	12	[0, 0, 0]	n/a	FR1	1	R1275D
1900.09	0.906	1472946	ENCODING_START	n/a	n/a	n/a	-999	12	[0, 0, 0]	n/a	FR1	1	R1275D
1900.996	1.627	1473852	WORD	n/a	wordpools/wordpool_EN.txt	BLOOM	1	12	[0, 0, 0]	n/a	FR1	1	R1275D
1902.623	0.906	1475478	WORD_OFF	n/a	n/a	BLOOM	1	12	[0, 0, 0]	n/a	FR1	1	R1275D
1903.529	1.627	1476384	WORD	n/a	wordpools/wordpool_EN.txt	GRAPE	2	12	[0, 0, 0]	n/a	FR1	1	R1275D
1905.156	0.818	1478011	WORD_OFF	n/a	n/a	GRAPE	2	12	[0, 0, 0]	n/a	FR1	1	R1275D
1905.974	1.633	1478829	WORD	n/a	wordpools/wordpool_EN.txt	STAR	3	12	[0, 0, 0]	n/a	FR1	1	R1275D
1907.607	0.817	1480462	WORD_OFF	n/a	n/a	STAR	3	12	[0, 0, 0]	n/a	FR1	1	R1275D
1908.424	1.633	1481279	WORD	n/a	wordpools/wordpool_EN.txt	FOOD	4	12	[0, 0, 0]	n/a	FR1	1	R1275D
1910.057	1.003	1482912	WORD_OFF	n/a	n/a	FOOD	4	12	[0, 0, 0]	n/a	FR1	1	R1275D
1911.06	1.631	1483915	WORD	n/a	wordpools/wordpool_EN.txt	CAGE	5	12	[0, 0, 0]	n/a	FR1	1	R1275D
1912.691	0.842	1485546	WORD_OFF	n/a	n/a	CAGE	5	12	[0, 0, 0]	n/a	FR1	1	R1275D
1913.533	1.625	1486388	WORD	n/a	wordpools/wordpool_EN.txt	FLOOR	6	12	[0, 0, 0]	n/a	FR1	1	R1275D
1915.158	1.075	1488013	WORD_OFF	n/a	n/a	FLOOR	6	12	[0, 0, 0]	n/a	FR1	1	R1275D
1916.233	1.627	1489088	WORD	n/a	wordpools/wordpool_EN.txt	JAR	7	12	[0, 0, 0]	n/a	FR1	1	R1275D
1917.86	0.912	1490715	WORD_OFF	n/a	n/a	JAR	7	12	[0, 0, 0]	n/a	FR1	1	R1275D
1918.772	1.621	1491627	WORD	n/a	wordpools/wordpool_EN.txt	CHIN	8	12	[0, 0, 0]	n/a	FR1	1	R1275D
1920.393	1.118	1493248	WORD_OFF	n/a	n/a	CHIN	8	12	[0, 0, 0]	n/a	FR1	1	R1275D
1921.511	1.632	1494366	WORD	n/a	wordpools/wordpool_EN.txt	SHEET	9	12	[0, 0, 0]	n/a	FR1	1	R1275D
1923.143	0.975	1495997	WORD_OFF	n/a	n/a	SHEET	9	12	[0, 0, 0]	n/a	FR1	1	R1275D
1924.118	1.61	1496972	WORD	n/a	wordpools/wordpool_EN.txt	CLOWN	10	12	[0, 0, 0]	n/a	FR1	1	R1275D
1925.728	0.844	1498582	WORD_OFF	n/a	n/a	CLOWN	10	12	[0, 0, 0]	n/a	FR1	1	R1275D
1926.572	1.622	1499426	WORD	n/a	wordpools/wordpool_EN.txt	CHEEK	11	12	[0, 0, 0]	n/a	FR1	1	R1275D
1928.194	0.825	1501048	WORD_OFF	n/a	n/a	CHEEK	11	12	[0, 0, 0]	n/a	FR1	1	R1275D
1929.019	1.625	1501873	WORD	n/a	wordpools/wordpool_EN.txt	POND	12	12	[0, 0, 0]	n/a	FR1	1	R1275D
1930.644	0.001	1503498	WORD_OFF	n/a	n/a	POND	12	12	[0, 0, 0]	n/a	FR1	1	R1275D
1930.645	0.0	1503499	ENCODING_END	n/a	n/a	n/a	-999	12	[0, 0, 0]	n/a	FR1	1	R1275D
1930.645	0.0	1503499	DISTRACT_START	n/a	n/a	n/a	-999	12	[0, 0, 0]	n/a	FR1	1	R1275D
1930.645	0.016	1503499	START	n/a	n/a	n/a	-999	12	[-999, -999, -999]	n/a	FR1	1	R1275D
1930.661	5.268	1503515	PROB	5.268	n/a	n/a	-999	12	[3, 9, 4]	16	FR1	1	R1275D
1935.929	4.317	1508783	PROB	4.317	n/a	n/a	-999	12	[8, 9, 4]	21	FR1	1	R1275D
1940.246	5.218	1513100	PROB	5.218	n/a	n/a	-999	12	[3, 3, 9]	15	FR1	1	R1275D
1945.464	4.601	1518317	PROB	4.601	n/a	n/a	-999	12	[4, 8, 1]	13	FR1	1	R1275D
1950.065	7.805	1522918	PROB	7.805	n/a	n/a	-999	12	[7, 9, 2]	18	FR1	1	R1275D
1957.87	0.013	1530723	STOP	n/a	n/a	n/a	-999	12	[-999, -999, -999]	n/a	FR1	1	R1275D
1957.883	0.696	1530736	DISTRACT_END	n/a	n/a	n/a	-999	12	[0, 0, 0]	n/a	FR1	1	R1275D
1958.579	1.704	1531432	RETRIEVAL_ORIENT_START	n/a	n/a	n/a	-999	12	[0, 0, 0]	n/a	FR1	1	R1275D
1960.283	0.001	1533136	RETRIEVAL_ORIENT_END	n/a	n/a	n/a	-999	12	[0, 0, 0]	n/a	FR1	1	R1275D
1960.284	0.898	1533137	REC_START	n/a	n/a	n/a	-999	12	[0, 0, 0]	n/a	FR1	1	R1275D
1961.182	1.14	1534035	REC_WORD	1.14	n/a	CLOWN	10	12	[0, 0, 0]	n/a	FR1	1	R1275D
1962.322	1.758	1535175	REC_WORD	1.758	n/a	CHEEK	11	12	[0, 0, 0]	n/a	FR1	1	R1275D
1964.08	20.591	1536933	REC_WORD	20.591	n/a	POND	12	12	[0, 0, 0]	n/a	FR1	1	R1275D
1984.671	5.624	1557523	REC_WORD_VV	5.624	n/a	<>	-999	12	[0, 0, 0]	n/a	FR1	1	R1275D
1990.295	0.0	1563146	REC_END	n/a	n/a	n/a	-999	12	[0, 0, 0]	n/a	FR1	1	R1275D
1990.295	0.014	1563146	TRIAL_END	n/a	n/a	n/a	-999	12	[0, 0, 0]	n/a	FR1	1	R1275D
1990.309	0.0	1563160	TRIAL	n/a	n/a	n/a	-999	13	[0, 0, 0]	n/a	FR1	1	R1275D
1990.309	0.001	1563160	TRIAL_START	n/a	n/a	n/a	-999	13	[0, 0, 0]	n/a	FR1	1	R1275D
1990.31	1.812	1563161	WAITING_START	n/a	n/a	n/a	-999	13	[0, 0, 0]	n/a	FR1	1	R1275D
1992.122	0.001	1564973	WAITING_END	n/a	n/a	n/a	-999	13	[0, 0, 0]	n/a	FR1	1	R1275D
1992.123	10.429	1564974	COUNTDOWN_START	n/a	n/a	n/a	-999	13	[0, 0, 0]	n/a	FR1	1	R1275D
2002.552	0.001	1575403	COUNTDOWN_END	n/a	n/a	n/a	-999	13	[0, 0, 0]	n/a	FR1	1	R1275D
2002.553	1.173	1575404	ORIENT_START	n/a	n/a	n/a	-999	13	[0, 0, 0]	n/a	FR1	1	R1275D
2003.726	0.0	1576577	ENCODING_START	n/a	n/a	n/a	-999	13	[0, 0, 0]	n/a	FR1	1	R1275D
2003.726	0.861	1576577	ORIENT_END	n/a	n/a	n/a	-999	13	[0, 0, 0]	n/a	FR1	1	R1275D
2004.587	1.638	1577438	WORD	n/a	wordpools/wordpool_EN.txt	SEAL	1	13	[0, 0, 0]	n/a	FR1	1	R1275D
2006.225	1.031	1579075	WORD_OFF	n/a	n/a	SEAL	1	13	[0, 0, 0]	n/a	FR1	1	R1275D
2007.256	1.636	1580106	WORD	n/a	wordpools/wordpool_EN.txt	GOAT	2	13	[0, 0, 0]	n/a	FR1	1	R1275D
2008.892	0.913	1581742	WORD_OFF	n/a	n/a	GOAT	2	13	[0, 0, 0]	n/a	FR1	1	R1275D
2009.805	1.621	1582655	WORD	n/a	wordpools/wordpool_EN.txt	YARD	3	13	[0, 0, 0]	n/a	FR1	1	R1275D
2011.426	1.14	1584276	WORD_OFF	n/a	n/a	YARD	3	13	[0, 0, 0]	n/a	FR1	1	R1275D
2012.566	1.627	1585416	WORD	n/a	wordpools/wordpool_EN.txt	WOLF	4	13	[0, 0, 0]	n/a	FR1	1	R1275D
2014.193	0.755	1587043	WORD_OFF	n/a	n/a	WOLF	4	13	[0, 0, 0]	n/a	FR1	1	R1275D
2014.948	1.629	1587798	WORD	n/a	wordpools/wordpool_EN.txt	STREET	5	13	[0, 0, 0]	n/a	FR1	1	R1275D
2016.577	0.985	1589427	WORD_OFF	n/a	n/a	STREET	5	13	[0, 0, 0]	n/a	FR1	1	R1275D
2017.562	1.632	1590412	WORD	n/a	wordpools/wordpool_EN.txt	SMOKE	6	13	[0, 0, 0]	n/a	FR1	1	R1275D
2019.194	1.049	1592044	WORD_OFF	n/a	n/a	SMOKE	6	13	[0, 0, 0]	n/a	FR1	1	R1275D
2020.243	1.636	1593093	WORD	n/a	wordpools/wordpool_EN.txt	SLUSH	7	13	[0, 0, 0]	n/a	FR1	1	R1275D
2021.879	1.001	1594729	WORD_OFF	n/a	n/a	SLUSH	7	13	[0, 0, 0]	n/a	FR1	1	R1275D
2022.88	1.632	1595730	WORD	n/a	wordpools/wordpool_EN.txt	TRAY	8	13	[0, 0, 0]	n/a	FR1	1	R1275D
2024.512	0.773	1597362	WORD_OFF	n/a	n/a	TRAY	8	13	[0, 0, 0]	n/a	FR1	1	R1275D
2025.285	1.627	1598135	WORD	n/a	wordpools/wordpool_EN.txt	CLOTH	9	13	[0, 0, 0]	n/a	FR1	1	R1275D
2026.912	1.075	1599761	WORD_OFF	n/a	n/a	CLOTH	9	13	[0, 0, 0]	n/a	FR1	1	R1275D
2027.987	1.626	1600836	WORD	n/a	wordpools/wordpool_EN.txt	MOOSE	10	13	[0, 0, 0]	n/a	FR1	1	R1275D
2029.613	0.759	1602462	WORD_OFF	n/a	n/a	MOOSE	10	13	[0, 0, 0]	n/a	FR1	1	R1275D
2030.372	1.624	1603221	WORD	n/a	wordpools/wordpool_EN.txt	MILK	11	13	[0, 0, 0]	n/a	FR1	1	R1275D
2031.996	0.896	1604845	WORD_OFF	n/a	n/a	MILK	11	13	[0, 0, 0]	n/a	FR1	1	R1275D
2032.892	1.638	1605741	WORD	n/a	wordpools/wordpool_EN.txt	FENCE	12	13	[0, 0, 0]	n/a	FR1	1	R1275D
2034.53	0.001	1607379	WORD_OFF	n/a	n/a	FENCE	12	13	[0, 0, 0]	n/a	FR1	1	R1275D
2034.531	0.0	1607380	ENCODING_END	n/a	n/a	n/a	-999	13	[0, 0, 0]	n/a	FR1	1	R1275D
2034.531	0.0	1607380	DISTRACT_START	n/a	n/a	n/a	-999	13	[0, 0, 0]	n/a	FR1	1	R1275D
2034.531	0.016	1607380	START	n/a	n/a	n/a	-999	13	[-999, -999, -999]	n/a	FR1	1	R1275D
2034.547	5.734	1607396	PROB	5.734	n/a	n/a	-999	13	[4, 6, 9]	19	FR1	1	R1275D
2040.281	5.502	1613130	PROB	5.502	n/a	n/a	-999	13	[9, 7, 4]	20	FR1	1	R1275D
2045.783	4.233	1618632	PROB	4.233	n/a	n/a	-999	13	[4, 6, 4]	14	FR1	1	R1275D
2050.016	5.228	1622864	PROB	5.228	n/a	n/a	-999	13	[5, 7, 7]	19	FR1	1	R1275D
2055.244	0.007	1628092	STOP	n/a	n/a	n/a	-999	13	[-999, -999, -999]	n/a	FR1	1	R1275D
2055.251	0.62	1628099	DISTRACT_END	n/a	n/a	n/a	-999	13	[0, 0, 0]	n/a	FR1	1	R1275D
2055.871	1.697	1628719	RETRIEVAL_ORIENT_START	n/a	n/a	n/a	-999	13	[0, 0, 0]	n/a	FR1	1	R1275D
2057.568	0.0	1630416	RETRIEVAL_ORIENT_END	n/a	n/a	n/a	-999	13	[0, 0, 0]	n/a	FR1	1	R1275D
2057.568	0.405	1630416	REC_START	n/a	n/a	n/a	-999	13	[0, 0, 0]	n/a	FR1	1	R1275D
2057.973	1.799	1630821	REC_WORD	1.799	n/a	SLOTH	-999	13	[0, 0, 0]	n/a	FR1	1	R1275D
2059.772	5.792	1632620	REC_WORD	5.792	n/a	FENCE	12	13	[0, 0, 0]	n/a	FR1	1	R1275D
2065.564	22.016	1638412	REC_WORD	22.016	n/a	GOAT	2	13	[0, 0, 0]	n/a	FR1	1	R1275D
2087.58	0.001	1660427	REC_END	n/a	n/a	n/a	-999	13	[0, 0, 0]	n/a	FR1	1	R1275D
2087.581	0.014	1660428	TRIAL_END	n/a	n/a	n/a	-999	13	[0, 0, 0]	n/a	FR1	1	R1275D
2087.595	0.0	1660442	TRIAL	n/a	n/a	n/a	-999	14	[0, 0, 0]	n/a	FR1	1	R1275D
2087.595	0.0	1660442	WAITING_START	n/a	n/a	n/a	-999	14	[0, 0, 0]	n/a	FR1	1	R1275D
2087.595	1.695	1660442	TRIAL_START	n/a	n/a	n/a	-999	14	[0, 0, 0]	n/a	FR1	1	R1275D
2089.29	0.001	1662136	WAITING_END	n/a	n/a	n/a	-999	14	[0, 0, 0]	n/a	FR1	1	R1275D
2089.291	10.429	1662137	COUNTDOWN_START	n/a	n/a	n/a	-999	14	[0, 0, 0]	n/a	FR1	1	R1275D
2099.72	0.001	1672566	COUNTDOWN_END	n/a	n/a	n/a	-999	14	[0, 0, 0]	n/a	FR1	1	R1275D
2099.721	1.205	1672567	ORIENT_START	n/a	n/a	n/a	-999	14	[0, 0, 0]	n/a	FR1	1	R1275D
2100.926	0.0	1673772	ORIENT_END	n/a	n/a	n/a	-999	14	[0, 0, 0]	n/a	FR1	1	R1275D
2100.926	0.92	1673772	ENCODING_START	n/a	n/a	n/a	-999	14	[0, 0, 0]	n/a	FR1	1	R1275D
2101.846	1.63	1674692	WORD	n/a	wordpools/wordpool_EN.txt	TOE	1	14	[0, 0, 0]	n/a	FR1	1	R1275D
2103.476	0.847	1676322	WORD_OFF	n/a	n/a	TOE	1	14	[0, 0, 0]	n/a	FR1	1	R1275D
2104.323	1.637	1677169	WORD	n/a	wordpools/wordpool_EN.txt	COIN	2	14	[0, 0, 0]	n/a	FR1	1	R1275D
2105.96	1.081	1678806	WORD_OFF	n/a	n/a	COIN	2	14	[0, 0, 0]	n/a	FR1	1	R1275D
2107.041	1.636	1679887	WORD	n/a	wordpools/wordpool_EN.txt	CLOCK	3	14	[0, 0, 0]	n/a	FR1	1	R1275D
2108.677	0.965	1681523	WORD_OFF	n/a	n/a	CLOCK	3	14	[0, 0, 0]	n/a	FR1	1	R1275D
2109.642	1.635	1682487	WORD	n/a	wordpools/wordpool_EN.txt	WALL	4	14	[0, 0, 0]	n/a	FR1	1	R1275D
2111.277	0.835	1684122	WORD_OFF	n/a	n/a	WALL	4	14	[0, 0, 0]	n/a	FR1	1	R1275D
2112.112	1.617	1684957	WORD	n/a	wordpools/wordpool_EN.txt	HOSE	5	14	[0, 0, 0]	n/a	FR1	1	R1275D
2113.729	1.065	1686574	WORD_OFF	n/a	n/a	HOSE	5	14	[0, 0, 0]	n/a	FR1	1	R1275D
2114.794	1.634	1687639	WORD	n/a	wordpools/wordpool_EN.txt	RAKE	6	14	[0, 0, 0]	n/a	FR1	1	R1275D
2116.428	1.016	1689273	WORD_OFF	n/a	n/a	RAKE	6	14	[0, 0, 0]	n/a	FR1	1	R1275D
2117.444	1.635	1690289	WORD	n/a	wordpools/wordpool_EN.txt	MOUSE	7	14	[0, 0, 0]	n/a	FR1	1	R1275D
2119.079	0.848	1691924	WORD_OFF	n/a	n/a	MOUSE	7	14	[0, 0, 0]	n/a	FR1	1	R1275D
2119.927	1.636	1692772	WORD	n/a	wordpools/wordpool_EN.txt	STORE	8	14	[0, 0, 0]	n/a	FR1	1	R1275D
2121.563	0.829	1694408	WORD_OFF	n/a	n/a	STORE	8	14	[0, 0, 0]	n/a	FR1	1	R1275D
2122.392	1.621	1695237	WORD	n/a	wordpools/wordpool_EN.txt	SHOE	9	14	[0, 0, 0]	n/a	FR1	1	R1275D
2124.013	0.801	1696858	WORD_OFF	n/a	n/a	SHOE	9	14	[0, 0, 0]	n/a	FR1	1	R1275D
2124.814	1.633	1697659	WORD	n/a	wordpools/wordpool_EN.txt	KEY	10	14	[0, 0, 0]	n/a	FR1	1	R1275D
2126.447	1.128	1699292	WORD_OFF	n/a	n/a	KEY	10	14	[0, 0, 0]	n/a	FR1	1	R1275D
2127.575	1.622	1700420	WORD	n/a	wordpools/wordpool_EN.txt	HOOK	11	14	[0, 0, 0]	n/a	FR1	1	R1275D
2129.197	0.855	1702042	WORD_OFF	n/a	n/a	HOOK	11	14	[0, 0, 0]	n/a	FR1	1	R1275D
2130.052	1.629	1702896	WORD	n/a	wordpools/wordpool_EN.txt	MOON	12	14	[0, 0, 0]	n/a	FR1	1	R1275D
2131.681	0.001	1704525	WORD_OFF	n/a	n/a	MOON	12	14	[0, 0, 0]	n/a	FR1	1	R1275D
2131.682	0.0	1704526	ENCODING_END	n/a	n/a	n/a	-999	14	[0, 0, 0]	n/a	FR1	1	R1275D
2131.682	0.0	1704526	DISTRACT_START	n/a	n/a	n/a	-999	14	[0, 0, 0]	n/a	FR1	1	R1275D
2131.682	0.017	1704526	START	n/a	n/a	n/a	-999	14	[-999, -999, -999]	n/a	FR1	1	R1275D
2131.699	4.516	1704543	PROB	4.516	n/a	n/a	-999	14	[2, 1, 3]	6	FR1	1	R1275D
2136.215	4.251	1709059	PROB	4.251	n/a	n/a	-999	14	[9, 8, 3]	20	FR1	1	R1275D
2140.466	4.801	1713310	PROB	4.801	n/a	n/a	-999	14	[3, 4, 6]	13	FR1	1	R1275D
2145.267	12.735	1718111	PROB	12.735	n/a	n/a	-999	14	[6, 9, 3]	19	FR1	1	R1275D
2158.002	0.017	1730845	STOP	n/a	n/a	n/a	-999	14	[-999, -999, -999]	n/a	FR1	1	R1275D
2158.019	0.645	1730862	DISTRACT_END	n/a	n/a	n/a	-999	14	[0, 0, 0]	n/a	FR1	1	R1275D
2158.664	1.706	1731507	RETRIEVAL_ORIENT_START	n/a	n/a	n/a	-999	14	[0, 0, 0]	n/a	FR1	1	R1275D
2160.37	0.0	1733213	RETRIEVAL_ORIENT_END	n/a	n/a	n/a	-999	14	[0, 0, 0]	n/a	FR1	1	R1275D
2160.37	2.239	1733213	REC_START	n/a	n/a	n/a	-999	14	[0, 0, 0]	n/a	FR1	1	R1275D
2162.609	27.773	1735452	REC_WORD	27.773	n/a	HOOK	11	14	[0, 0, 0]	n/a	FR1	1	R1275D
2190.382	0.0	1763224	REC_END	n/a	n/a	n/a	-999	14	[0, 0, 0]	n/a	FR1	1	R1275D
2190.382	0.015	1763224	TRIAL_END	n/a	n/a	n/a	-999	14	[0, 0, 0]	n/a	FR1	1	R1275D
2190.397	0.0	1763239	TRIAL_START	n/a	n/a	n/a	-999	15	[0, 0, 0]	n/a	FR1	1	R1275D
2190.397	0.0	1763239	TRIAL	n/a	n/a	n/a	-999	15	[0, 0, 0]	n/a	FR1	1	R1275D
2190.397	2.012	1763239	WAITING_START	n/a	n/a	n/a	-999	15	[0, 0, 0]	n/a	FR1	1	R1275D
2192.409	0.0	1765250	WAITING_END	n/a	n/a	n/a	-999	15	[0, 0, 0]	n/a	FR1	1	R1275D
2192.409	10.429	1765250	COUNTDOWN_START	n/a	n/a	n/a	-999	15	[0, 0, 0]	n/a	FR1	1	R1275D
2202.838	0.001	1775679	COUNTDOWN_END	n/a	n/a	n/a	-999	15	[0, 0, 0]	n/a	FR1	1	R1275D
2202.839	1.072	1775680	ORIENT_START	n/a	n/a	n/a	-999	15	[0, 0, 0]	n/a	FR1	1	R1275D
2203.911	0.001	1776752	ORIENT_END	n/a	n/a	n/a	-999	15	[0, 0, 0]	n/a	FR1	1	R1275D
2203.912	1.036	1776753	ENCODING_START	n/a	n/a	n/a	-999	15	[0, 0, 0]	n/a	FR1	1	R1275D
2204.948	1.63	1777789	WORD	n/a	wordpools/wordpool_EN.txt	LAWN	1	15	[0, 0, 0]	n/a	FR1	1	R1275D
2206.578	0.793	1779419	WORD_OFF	n/a	n/a	LAWN	1	15	[0, 0, 0]	n/a	FR1	1	R1275D
2207.371	1.624	1780212	WORD	n/a	wordpools/wordpool_EN.txt	WING	2	15	[0, 0, 0]	n/a	FR1	1	R1275D
2208.995	0.916	1781836	WORD_OFF	n/a	n/a	WING	2	15	[0, 0, 0]	n/a	FR1	1	R1275D
2209.911	1.635	1782752	WORD	n/a	wordpools/wordpool_EN.txt	CAKE	3	15	[0, 0, 0]	n/a	FR1	1	R1275D
2211.546	1.034	1784387	WORD_OFF	n/a	n/a	CAKE	3	15	[0, 0, 0]	n/a	FR1	1	R1275D
2212.58	1.633	1785421	WORD	n/a	wordpools/wordpool_EN.txt	CASH	4	15	[0, 0, 0]	n/a	FR1	1	R1275D
2214.213	1.141	1787053	WORD_OFF	n/a	n/a	CASH	4	15	[0, 0, 0]	n/a	FR1	1	R1275D
2215.354	1.626	1788194	WORD	n/a	wordpools/wordpool_EN.txt	KITE	5	15	[0, 0, 0]	n/a	FR1	1	R1275D
2216.98	0.764	1789820	WORD_OFF	n/a	n/a	KITE	5	15	[0, 0, 0]	n/a	FR1	1	R1275D
2217.744	1.637	1790584	WORD	n/a	wordpools/wordpool_EN.txt	VEST	6	15	[0, 0, 0]	n/a	FR1	1	R1275D
2219.381	1.121	1792221	WORD_OFF	n/a	n/a	VEST	6	15	[0, 0, 0]	n/a	FR1	1	R1275D
2220.502	1.629	1793342	WORD	n/a	wordpools/wordpool_EN.txt	CAR	7	15	[0, 0, 0]	n/a	FR1	1	R1275D
2222.131	1.015	1794971	WORD_OFF	n/a	n/a	CAR	7	15	[0, 0, 0]	n/a	FR1	1	R1275D
2223.146	1.62	1795986	WORD	n/a	wordpools/wordpool_EN.txt	LEAF	8	15	[0, 0, 0]	n/a	FR1	1	R1275D
2224.766	1.002	1797606	WORD_OFF	n/a	n/a	LEAF	8	15	[0, 0, 0]	n/a	FR1	1	R1275D
2225.768	1.631	1798608	WORD	n/a	wordpools/wordpool_EN.txt	BARN	9	15	[0, 0, 0]	n/a	FR1	1	R1275D
2227.399	1.085	1800239	WORD_OFF	n/a	n/a	BARN	9	15	[0, 0, 0]	n/a	FR1	1	R1275D
2228.484	1.632	1801324	WORD	n/a	wordpools/wordpool_EN.txt	WHALE	10	15	[0, 0, 0]	n/a	FR1	1	R1275D
2230.116	0.783	1802956	WORD_OFF	n/a	n/a	WHALE	10	15	[0, 0, 0]	n/a	FR1	1	R1275D
2230.899	1.634	1803739	WORD	n/a	wordpools/wordpool_EN.txt	RAIN	11	15	[0, 0, 0]	n/a	FR1	1	R1275D
2232.533	0.869	1805373	WORD_OFF	n/a	n/a	RAIN	11	15	[0, 0, 0]	n/a	FR1	1	R1275D
2233.402	1.631	1806241	WORD	n/a	wordpools/wordpool_EN.txt	WAND	12	15	[0, 0, 0]	n/a	FR1	1	R1275D
2235.033	0.001	1807872	WORD_OFF	n/a	n/a	WAND	12	15	[0, 0, 0]	n/a	FR1	1	R1275D
2235.034	0.0	1807873	DISTRACT_START	n/a	n/a	n/a	-999	15	[0, 0, 0]	n/a	FR1	1	R1275D
2235.034	0.0	1807873	ENCODING_END	n/a	n/a	n/a	-999	15	[0, 0, 0]	n/a	FR1	1	R1275D
2235.034	0.016	1807873	START	n/a	n/a	n/a	-999	15	[-999, -999, -999]	n/a	FR1	1	R1275D
2235.05	4.634	1807889	PROB	4.634	n/a	n/a	-999	15	[5, 3, 1]	9	FR1	1	R1275D
2239.684	6.185	1812523	PROB	6.185	n/a	n/a	-999	15	[1, 4, 8]	13	FR1	1	R1275D
2245.869	5.968	1818708	PROB	5.968	n/a	n/a	-999	15	[2, 7, 9]	18	FR1	1	R1275D
2251.837	4.829	1824676	PROB	4.829	n/a	n/a	-999	15	[3, 4, 1]	8	FR1	1	R1275D
2256.666	0.021	1829504	STOP	n/a	n/a	n/a	-999	15	[-999, -999, -999]	n/a	FR1	1	R1275D
2256.687	0.628	1829525	DISTRACT_END	n/a	n/a	n/a	-999	15	[0, 0, 0]	n/a	FR1	1	R1275D
2257.315	1.606	1830153	RETRIEVAL_ORIENT_START	n/a	n/a	n/a	-999	15	[0, 0, 0]	n/a	FR1	1	R1275D
2258.921	0.0	1831759	RETRIEVAL_ORIENT_END	n/a	n/a	n/a	-999	15	[0, 0, 0]	n/a	FR1	1	R1275D
2258.921	0.705	1831759	REC_START	n/a	n/a	n/a	-999	15	[0, 0, 0]	n/a	FR1	1	R1275D
2259.626	1.769	1832464	REC_WORD	1.769	n/a	CASH	4	15	[0, 0, 0]	n/a	FR1	1	R1275D
2261.395	13.615	1834233	REC_WORD	13.615	n/a	BARN	9	15	[0, 0, 0]	n/a	FR1	1	R1275D
2275.01	3.508	1847847	REC_WORD_VV	3.508	n/a	<>	-999	15	[0, 0, 0]	n/a	FR1	1	R1275D
2278.518	10.416	1851355	REC_WORD_VV	10.416	n/a	<>	-999	15	[0, 0, 0]	n/a	FR1	1	R1275D
2288.934	0.001	1861771	REC_END	n/a	n/a	n/a	-999	15	[0, 0, 0]	n/a	FR1	1	R1275D
2288.935	0.015	1861772	TRIAL_END	n/a	n/a	n/a	-999	15	[0, 0, 0]	n/a	FR1	1	R1275D
2288.95	0.0	1861787	TRIAL_START	n/a	n/a	n/a	-999	16	[0, 0, 0]	n/a	FR1	1	R1275D
2288.95	0.001	1861787	TRIAL	n/a	n/a	n/a	-999	16	[0, 0, 0]	n/a	FR1	1	R1275D
2288.951	1.844	1861788	WAITING_START	n/a	n/a	n/a	-999	16	[0, 0, 0]	n/a	FR1	1	R1275D
2290.795	0.0	1863632	WAITING_END	n/a	n/a	n/a	-999	16	[0, 0, 0]	n/a	FR1	1	R1275D
2290.795	10.428	1863632	COUNTDOWN_START	n/a	n/a	n/a	-999	16	[0, 0, 0]	n/a	FR1	1	R1275D
2301.223	0.001	1874059	COUNTDOWN_END	n/a	n/a	n/a	-999	16	[0, 0, 0]	n/a	FR1	1	R1275D
2301.224	1.238	1874060	ORIENT_START	n/a	n/a	n/a	-999	16	[0, 0, 0]	n/a	FR1	1	R1275D
2302.462	0.001	1875298	ORIENT_END	n/a	n/a	n/a	-999	16	[0, 0, 0]	n/a	FR1	1	R1275D
2302.463	0.971	1875299	ENCODING_START	n/a	n/a	n/a	-999	16	[0, 0, 0]	n/a	FR1	1	R1275D
2303.434	1.629	1876270	WORD	n/a	wordpools/wordpool_EN.txt	HEART	1	16	[0, 0, 0]	n/a	FR1	1	R1275D
2305.063	0.911	1877899	WORD_OFF	n/a	n/a	HEART	1	16	[0, 0, 0]	n/a	FR1	1	R1275D
2305.974	1.623	1878810	WORD	n/a	wordpools/wordpool_EN.txt	TOAD	2	16	[0, 0, 0]	n/a	FR1	1	R1275D
2307.597	0.932	1880433	WORD_OFF	n/a	n/a	TOAD	2	16	[0, 0, 0]	n/a	FR1	1	R1275D
2308.529	1.635	1881365	WORD	n/a	wordpools/wordpool_EN.txt	GATE	3	16	[0, 0, 0]	n/a	FR1	1	R1275D
2310.164	0.762	1883000	WORD_OFF	n/a	n/a	GATE	3	16	[0, 0, 0]	n/a	FR1	1	R1275D
2310.926	1.622	1883762	WORD	n/a	wordpools/wordpool_EN.txt	GRASS	4	16	[0, 0, 0]	n/a	FR1	1	R1275D
2312.548	0.785	1885384	WORD_OFF	n/a	n/a	GRASS	4	16	[0, 0, 0]	n/a	FR1	1	R1275D
2313.333	1.632	1886169	WORD	n/a	wordpools/wordpool_EN.txt	ROCK	5	16	[0, 0, 0]	n/a	FR1	1	R1275D
2314.965	0.971	1887801	WORD_OFF	n/a	n/a	ROCK	5	16	[0, 0, 0]	n/a	FR1	1	R1275D
2315.936	1.629	1888772	WORD	n/a	wordpools/wordpool_EN.txt	MUG	6	16	[0, 0, 0]	n/a	FR1	1	R1275D
2317.565	1.019	1890400	WORD_OFF	n/a	n/a	MUG	6	16	[0, 0, 0]	n/a	FR1	1	R1275D
2318.584	1.632	1891419	WORD	n/a	wordpools/wordpool_EN.txt	SPARK	7	16	[0, 0, 0]	n/a	FR1	1	R1275D
2320.216	0.823	1893051	WORD_OFF	n/a	n/a	SPARK	7	16	[0, 0, 0]	n/a	FR1	1	R1275D
2321.039	1.627	1893874	WORD	n/a	wordpools/wordpool_EN.txt	PIT	8	16	[0, 0, 0]	n/a	FR1	1	R1275D
2322.666	0.849	1895501	WORD_OFF	n/a	n/a	PIT	8	16	[0, 0, 0]	n/a	FR1	1	R1275D
2323.515	1.635	1896350	WORD	n/a	wordpools/wordpool_EN.txt	SKUNK	9	16	[0, 0, 0]	n/a	FR1	1	R1275D
2325.15	1.099	1897985	WORD_OFF	n/a	n/a	SKUNK	9	16	[0, 0, 0]	n/a	FR1	1	R1275D
2326.249	1.619	1899084	WORD	n/a	wordpools/wordpool_EN.txt	BOOT	10	16	[0, 0, 0]	n/a	FR1	1	R1275D
2327.868	0.756	1900703	WORD_OFF	n/a	n/a	BOOT	10	16	[0, 0, 0]	n/a	FR1	1	R1275D
2328.624	1.627	1901459	WORD	n/a	wordpools/wordpool_EN.txt	CROWN	11	16	[0, 0, 0]	n/a	FR1	1	R1275D
2330.251	0.915	1903086	WORD_OFF	n/a	n/a	CROWN	11	16	[0, 0, 0]	n/a	FR1	1	R1275D
2331.166	1.619	1904001	WORD	n/a	wordpools/wordpool_EN.txt	ROAD	12	16	[0, 0, 0]	n/a	FR1	1	R1275D
2332.785	0.001	1905620	WORD_OFF	n/a	n/a	ROAD	12	16	[0, 0, 0]	n/a	FR1	1	R1275D
2332.786	0.0	1905621	ENCODING_END	n/a	n/a	n/a	-999	16	[0, 0, 0]	n/a	FR1	1	R1275D
2332.786	0.0	1905621	DISTRACT_START	n/a	n/a	n/a	-999	16	[0, 0, 0]	n/a	FR1	1	R1275D
2332.786	0.016	1905621	START	n/a	n/a	n/a	-999	16	[-999, -999, -999]	n/a	FR1	1	R1275D
2332.802	5.4	1905637	PROB	5.4	n/a	n/a	-999	16	[5, 5, 6]	16	FR1	1	R1275D
2338.202	5.284	1911036	PROB	5.284	n/a	n/a	-999	16	[2, 6, 3]	11	FR1	1	R1275D
2343.486	9.968	1916320	PROB	9.968	n/a	n/a	-999	16	[2, 8, 4]	14	FR1	1	R1275D
2353.454	0.018	1926288	STOP	n/a	n/a	n/a	-999	16	[-999, -999, -999]	n/a	FR1	1	R1275D
2353.472	0.608	1926306	DISTRACT_END	n/a	n/a	n/a	-999	16	[0, 0, 0]	n/a	FR1	1	R1275D
2354.08	1.693	1926914	RETRIEVAL_ORIENT_START	n/a	n/a	n/a	-999	16	[0, 0, 0]	n/a	FR1	1	R1275D
2355.773	0.0	1928607	RETRIEVAL_ORIENT_END	n/a	n/a	n/a	-999	16	[0, 0, 0]	n/a	FR1	1	R1275D
2355.773	1.007	1928607	REC_START	n/a	n/a	n/a	-999	16	[0, 0, 0]	n/a	FR1	1	R1275D
2356.78	3.508	1929614	REC_WORD	3.508	n/a	SKUNK	9	16	[0, 0, 0]	n/a	FR1	1	R1275D
2360.288	4.562	1933121	REC_WORD	4.562	n/a	PIT	8	16	[0, 0, 0]	n/a	FR1	1	R1275D
2364.85	20.934	1937683	REC_WORD_VV	20.934	n/a	<>	-999	16	[0, 0, 0]	n/a	FR1	1	R1275D
2385.784	0.0	1958616	REC_END	n/a	n/a	n/a	-999	16	[0, 0, 0]	n/a	FR1	1	R1275D
2385.784	0.014	1958616	TRIAL_END	n/a	n/a	n/a	-999	16	[0, 0, 0]	n/a	FR1	1	R1275D
2385.798	0.0	1958630	WAITING_START	n/a	n/a	n/a	-999	17	[0, 0, 0]	n/a	FR1	1	R1275D
2385.798	0.0	1958630	TRIAL_START	n/a	n/a	n/a	-999	17	[0, 0, 0]	n/a	FR1	1	R1275D
2385.798	2.047	1958630	TRIAL	n/a	n/a	n/a	-999	17	[0, 0, 0]	n/a	FR1	1	R1275D
2387.845	0.001	1960677	WAITING_END	n/a	n/a	n/a	-999	17	[0, 0, 0]	n/a	FR1	1	R1275D
2387.846	10.428	1960678	COUNTDOWN_START	n/a	n/a	n/a	-999	17	[0, 0, 0]	n/a	FR1	1	R1275D
2398.274	0.0	1971106	COUNTDOWN_END	n/a	n/a	n/a	-999	17	[0, 0, 0]	n/a	FR1	1	R1275D
2398.274	1.056	1971106	ORIENT_START	n/a	n/a	n/a	-999	17	[0, 0, 0]	n/a	FR1	1	R1275D
2399.33	0.0	1972161	ORIENT_END	n/a	n/a	n/a	-999	17	[0, 0, 0]	n/a	FR1	1	R1275D
2399.33	1.048	1972161	ENCODING_START	n/a	n/a	n/a	-999	17	[0, 0, 0]	n/a	FR1	1	R1275D
2400.378	1.636	1973209	WORD	n/a	wordpools/wordpool_EN.txt	WHEEL	1	17	[0, 0, 0]	n/a	FR1	1	R1275D
2402.014	0.963	1974845	WORD_OFF	n/a	n/a	WHEEL	1	17	[0, 0, 0]	n/a	FR1	1	R1275D
2402.977	1.637	1975808	WORD	n/a	wordpools/wordpool_EN.txt	STRING	2	17	[0, 0, 0]	n/a	FR1	1	R1275D
2404.614	0.912	1977445	WORD_OFF	n/a	n/a	STRING	2	17	[0, 0, 0]	n/a	FR1	1	R1275D
2405.526	1.622	1978357	WORD	n/a	wordpools/wordpool_EN.txt	CUP	3	17	[0, 0, 0]	n/a	FR1	1	R1275D
2407.148	0.934	1979979	WORD_OFF	n/a	n/a	CUP	3	17	[0, 0, 0]	n/a	FR1	1	R1275D
2408.082	1.634	1980913	WORD	n/a	wordpools/wordpool_EN.txt	ROPE	4	17	[0, 0, 0]	n/a	FR1	1	R1275D
2409.716	0.905	1982547	WORD_OFF	n/a	n/a	ROPE	4	17	[0, 0, 0]	n/a	FR1	1	R1275D
2410.621	1.628	1983452	WORD	n/a	wordpools/wordpool_EN.txt	CORN	5	17	[0, 0, 0]	n/a	FR1	1	R1275D
2412.249	0.768	1985080	WORD_OFF	n/a	n/a	CORN	5	17	[0, 0, 0]	n/a	FR1	1	R1275D
2413.017	1.632	1985848	WORD	n/a	wordpools/wordpool_EN.txt	GEESE	6	17	[0, 0, 0]	n/a	FR1	1	R1275D
2414.649	0.811	1987480	WORD_OFF	n/a	n/a	GEESE	6	17	[0, 0, 0]	n/a	FR1	1	R1275D
2415.46	1.623	1988291	WORD	n/a	wordpools/wordpool_EN.txt	SOUP	7	17	[0, 0, 0]	n/a	FR1	1	R1275D
2417.083	0.759	1989914	WORD_OFF	n/a	n/a	SOUP	7	17	[0, 0, 0]	n/a	FR1	1	R1275D
2417.842	1.625	1990673	WORD	n/a	wordpools/wordpool_EN.txt	PEACH	8	17	[0, 0, 0]	n/a	FR1	1	R1275D
2419.467	0.859	1992297	WORD_OFF	n/a	n/a	PEACH	8	17	[0, 0, 0]	n/a	FR1	1	R1275D
2420.326	1.625	1993156	WORD	n/a	wordpools/wordpool_EN.txt	COW	9	17	[0, 0, 0]	n/a	FR1	1	R1275D
2421.951	1.007	1994781	WORD_OFF	n/a	n/a	COW	9	17	[0, 0, 0]	n/a	FR1	1	R1275D
2422.958	1.626	1995788	WORD	n/a	wordpools/wordpool_EN.txt	SALT	10	17	[0, 0, 0]	n/a	FR1	1	R1275D
2424.584	0.946	1997414	WORD_OFF	n/a	n/a	SALT	10	17	[0, 0, 0]	n/a	FR1	1	R1275D
2425.53	1.622	1998360	WORD	n/a	wordpools/wordpool_EN.txt	FISH	11	17	[0, 0, 0]	n/a	FR1	1	R1275D
2427.152	0.899	1999982	WORD_OFF	n/a	n/a	FISH	11	17	[0, 0, 0]	n/a	FR1	1	R1275D
2428.051	1.635	2000881	WORD	n/a	wordpools/wordpool_EN.txt	SKY	12	17	[0, 0, 0]	n/a	FR1	1	R1275D
2429.686	0.0	2002516	WORD_OFF	n/a	n/a	SKY	12	17	[0, 0, 0]	n/a	FR1	1	R1275D
2429.686	0.0	2002516	ENCODING_END	n/a	n/a	n/a	-999	17	[0, 0, 0]	n/a	FR1	1	R1275D
2429.686	0.001	2002516	DISTRACT_START	n/a	n/a	n/a	-999	17	[0, 0, 0]	n/a	FR1	1	R1275D
2429.687	0.016	2002517	START	n/a	n/a	n/a	-999	17	[-999, -999, -999]	n/a	FR1	1	R1275D
2429.703	6.8	2002533	PROB	6.8	n/a	n/a	-999	17	[3, 6, 6]	15	FR1	1	R1275D
2436.503	5.851	2009333	PROB	5.851	n/a	n/a	-999	17	[8, 5, 2]	15	FR1	1	R1275D
2442.354	4.334	2015183	PROB	4.334	n/a	n/a	-999	17	[1, 3, 3]	7	FR1	1	R1275D
2446.688	4.83	2019517	PROB	4.83	n/a	n/a	-999	17	[5, 3, 7]	15	FR1	1	R1275D
2451.518	0.022	2024347	STOP	n/a	n/a	n/a	-999	17	[-999, -999, -999]	n/a	FR1	1	R1275D
2451.54	0.52	2024369	DISTRACT_END	n/a	n/a	n/a	-999	17	[0, 0, 0]	n/a	FR1	1	R1275D
2452.06	1.698	2024889	RETRIEVAL_ORIENT_START	n/a	n/a	n/a	-999	17	[0, 0, 0]	n/a	FR1	1	R1275D
2453.758	0.0	2026587	REC_START	n/a	n/a	n/a	-999	17	[0, 0, 0]	n/a	FR1	1	R1275D
2453.758	0.611	2026587	RETRIEVAL_ORIENT_END	n/a	n/a	n/a	-999	17	[0, 0, 0]	n/a	FR1	1	R1275D
2454.369	1.782	2027198	REC_WORD	1.782	n/a	FISH	11	17	[0, 0, 0]	n/a	FR1	1	R1275D
2456.151	3.388	2028980	REC_WORD	3.388	n/a	COW	9	17	[0, 0, 0]	n/a	FR1	1	R1275D
2459.539	24.23	2032368	REC_WORD_VV	24.23	n/a	<>	-999	17	[0, 0, 0]	n/a	FR1	1	R1275D
2483.769	0.001	2056596	REC_END	n/a	n/a	n/a	-999	17	[0, 0, 0]	n/a	FR1	1	R1275D
2483.77	0.014	2056597	TRIAL_END	n/a	n/a	n/a	-999	17	[0, 0, 0]	n/a	FR1	1	R1275D
2483.784	0.0	2056611	TRIAL	n/a	n/a	n/a	-999	18	[0, 0, 0]	n/a	FR1	1	R1275D
2483.784	0.0	2056611	WAITING_START	n/a	n/a	n/a	-999	18	[0, 0, 0]	n/a	FR1	1	R1275D
2483.784	11.998	2056611	TRIAL_START	n/a	n/a	n/a	-999	18	[0, 0, 0]	n/a	FR1	1	R1275D
2495.782	0.0	2068609	WAITING_END	n/a	n/a	n/a	-999	18	[0, 0, 0]	n/a	FR1	1	R1275D
2495.782	10.429	2068609	COUNTDOWN_START	n/a	n/a	n/a	-999	18	[0, 0, 0]	n/a	FR1	1	R1275D
2506.211	0.0	2079037	COUNTDOWN_END	n/a	n/a	n/a	-999	18	[0, 0, 0]	n/a	FR1	1	R1275D
2506.211	1.039	2079037	ORIENT_START	n/a	n/a	n/a	-999	18	[0, 0, 0]	n/a	FR1	1	R1275D
2507.25	0.0	2080076	ORIENT_END	n/a	n/a	n/a	-999	18	[0, 0, 0]	n/a	FR1	1	R1275D
2507.25	0.816	2080076	ENCODING_START	n/a	n/a	n/a	-999	18	[0, 0, 0]	n/a	FR1	1	R1275D
2508.066	1.635	2080892	WORD	n/a	wordpools/wordpool_EN.txt	BADGE	1	18	[0, 0, 0]	n/a	FR1	1	R1275D
2509.701	0.882	2082527	WORD_OFF	n/a	n/a	BADGE	1	18	[0, 0, 0]	n/a	FR1	1	R1275D
2510.583	1.634	2083409	WORD	n/a	wordpools/wordpool_EN.txt	MULE	2	18	[0, 0, 0]	n/a	FR1	1	R1275D
2512.217	0.992	2085043	WORD_OFF	n/a	n/a	MULE	2	18	[0, 0, 0]	n/a	FR1	1	R1275D
2513.209	1.61	2086035	WORD	n/a	wordpools/wordpool_EN.txt	HORSE	3	18	[0, 0, 0]	n/a	FR1	1	R1275D
2514.819	0.887	2087645	WORD_OFF	n/a	n/a	HORSE	3	18	[0, 0, 0]	n/a	FR1	1	R1275D
2515.706	1.629	2088532	WORD	n/a	wordpools/wordpool_EN.txt	PEN	4	18	[0, 0, 0]	n/a	FR1	1	R1275D
2517.335	0.983	2090161	WORD_OFF	n/a	n/a	PEN	4	18	[0, 0, 0]	n/a	FR1	1	R1275D
2518.318	1.634	2091144	WORD	n/a	wordpools/wordpool_EN.txt	MAIL	5	18	[0, 0, 0]	n/a	FR1	1	R1275D
2519.952	1.095	2092778	WORD_OFF	n/a	n/a	MAIL	5	18	[0, 0, 0]	n/a	FR1	1	R1275D
2521.047	1.622	2093873	WORD	n/a	wordpools/wordpool_EN.txt	PURSE	6	18	[0, 0, 0]	n/a	FR1	1	R1275D
2522.669	0.753	2095495	WORD_OFF	n/a	n/a	PURSE	6	18	[0, 0, 0]	n/a	FR1	1	R1275D
2523.422	1.631	2096247	WORD	n/a	wordpools/wordpool_EN.txt	ARM	7	18	[0, 0, 0]	n/a	FR1	1	R1275D
2525.053	0.946	2097878	WORD_OFF	n/a	n/a	ARM	7	18	[0, 0, 0]	n/a	FR1	1	R1275D
2525.999	1.621	2098824	WORD	n/a	wordpools/wordpool_EN.txt	DOG	8	18	[0, 0, 0]	n/a	FR1	1	R1275D
2527.62	0.779	2100445	WORD_OFF	n/a	n/a	DOG	8	18	[0, 0, 0]	n/a	FR1	1	R1275D
2528.399	1.622	2101224	WORD	n/a	wordpools/wordpool_EN.txt	FOG	9	18	[0, 0, 0]	n/a	FR1	1	R1275D
2530.021	1.093	2102846	WORD_OFF	n/a	n/a	FOG	9	18	[0, 0, 0]	n/a	FR1	1	R1275D
2531.114	1.608	2103939	WORD	n/a	wordpools/wordpool_EN.txt	AXE	10	18	[0, 0, 0]	n/a	FR1	1	R1275D
2532.722	0.893	2105547	WORD_OFF	n/a	n/a	AXE	10	18	[0, 0, 0]	n/a	FR1	1	R1275D
2533.615	1.623	2106440	WORD	n/a	wordpools/wordpool_EN.txt	FORT	11	18	[0, 0, 0]	n/a	FR1	1	R1275D
2535.238	0.952	2108063	WORD_OFF	n/a	n/a	FORT	11	18	[0, 0, 0]	n/a	FR1	1	R1275D
2536.19	1.633	2109015	WORD	n/a	wordpools/wordpool_EN.txt	MOLE	12	18	[0, 0, 0]	n/a	FR1	1	R1275D
2537.823	0.0	2110648	WORD_OFF	n/a	n/a	MOLE	12	18	[0, 0, 0]	n/a	FR1	1	R1275D
2537.823	0.001	2110648	ENCODING_END	n/a	n/a	n/a	-999	18	[0, 0, 0]	n/a	FR1	1	R1275D
2537.824	0.0	2110649	DISTRACT_START	n/a	n/a	n/a	-999	18	[0, 0, 0]	n/a	FR1	1	R1275D
2537.824	0.015	2110649	START	n/a	n/a	n/a	-999	18	[-999, -999, -999]	n/a	FR1	1	R1275D
2537.839	5.25	2110664	PROB	5.25	n/a	n/a	-999	18	[2, 4, 4]	10	FR1	1	R1275D
2543.089	4.118	2115914	PROB	4.118	n/a	n/a	-999	18	[1, 3, 4]	8	FR1	1	R1275D
2547.207	4.618	2120031	PROB	4.618	n/a	n/a	-999	18	[7, 4, 1]	12	FR1	1	R1275D
2551.825	8.339	2124649	PROB	8.339	n/a	n/a	-999	18	[9, 3, 6]	18	FR1	1	R1275D
2560.164	0.012	2132988	STOP	n/a	n/a	n/a	-999	18	[-999, -999, -999]	n/a	FR1	1	R1275D
2560.176	0.542	2133000	DISTRACT_END	n/a	n/a	n/a	-999	18	[0, 0, 0]	n/a	FR1	1	R1275D
2560.718	1.675	2133542	RETRIEVAL_ORIENT_START	n/a	n/a	n/a	-999	18	[0, 0, 0]	n/a	FR1	1	R1275D
2562.393	0.0	2135217	RETRIEVAL_ORIENT_END	n/a	n/a	n/a	-999	18	[0, 0, 0]	n/a	FR1	1	R1275D
2562.393	3.083	2135217	REC_START	n/a	n/a	n/a	-999	18	[0, 0, 0]	n/a	FR1	1	R1275D
2565.476	1.326	2138299	REC_WORD	1.326	n/a	DOG	8	18	[0, 0, 0]	n/a	FR1	1	R1275D
2566.802	5.065	2139625	REC_WORD	5.065	n/a	FOG	9	18	[0, 0, 0]	n/a	FR1	1	R1275D
2571.867	3.324	2144690	REC_WORD_VV	3.324	n/a	<>	-999	18	[0, 0, 0]	n/a	FR1	1	R1275D
2575.191	5.839	2148014	REC_WORD_VV	5.839	n/a	<>	-999	18	[0, 0, 0]	n/a	FR1	1	R1275D
2581.03	3.85	2153853	REC_WORD_VV	3.85	n/a	<>	-999	18	[0, 0, 0]	n/a	FR1	1	R1275D
2584.88	7.524	2157703	REC_WORD_VV	7.524	n/a	<>	-999	18	[0, 0, 0]	n/a	FR1	1	R1275D
2592.404	0.0	2165226	REC_END	n/a	n/a	n/a	-999	18	[0, 0, 0]	n/a	FR1	1	R1275D
2592.404	0.016	2165226	TRIAL_END	n/a	n/a	n/a	-999	18	[0, 0, 0]	n/a	FR1	1	R1275D
2592.42	0.001	2165242	TRIAL_START	n/a	n/a	n/a	-999	19	[0, 0, 0]	n/a	FR1	1	R1275D
2592.421	0.0	2165243	WAITING_START	n/a	n/a	n/a	-999	19	[0, 0, 0]	n/a	FR1	1	R1275D
2592.421	1.895	2165243	TRIAL	n/a	n/a	n/a	-999	19	[0, 0, 0]	n/a	FR1	1	R1275D
2594.316	0.0	2167138	WAITING_END	n/a	n/a	n/a	-999	19	[0, 0, 0]	n/a	FR1	1	R1275D
2594.316	10.429	2167138	COUNTDOWN_START	n/a	n/a	n/a	-999	19	[0, 0, 0]	n/a	FR1	1	R1275D
2604.745	0.0	2177567	COUNTDOWN_END	n/a	n/a	n/a	-999	19	[0, 0, 0]	n/a	FR1	1	R1275D
2604.745	1.256	2177567	ORIENT_START	n/a	n/a	n/a	-999	19	[0, 0, 0]	n/a	FR1	1	R1275D
2606.001	0.001	2178822	ORIENT_END	n/a	n/a	n/a	-999	19	[0, 0, 0]	n/a	FR1	1	R1275D
2606.002	1.098	2178823	ENCODING_START	n/a	n/a	n/a	-999	19	[0, 0, 0]	n/a	FR1	1	R1275D
2607.1	1.636	2179921	WORD	n/a	wordpools/wordpool_EN.txt	TOY	1	19	[0, 0, 0]	n/a	FR1	1	R1275D
2608.736	0.964	2181557	WORD_OFF	n/a	n/a	TOY	1	19	[0, 0, 0]	n/a	FR1	1	R1275D
2609.7	1.635	2182521	WORD	n/a	wordpools/wordpool_EN.txt	JUICE	2	19	[0, 0, 0]	n/a	FR1	1	R1275D
2611.335	0.964	2184156	WORD_OFF	n/a	n/a	JUICE	2	19	[0, 0, 0]	n/a	FR1	1	R1275D
2612.299	1.637	2185120	WORD	n/a	wordpools/wordpool_EN.txt	BATH	3	19	[0, 0, 0]	n/a	FR1	1	R1275D
2613.936	0.856	2186757	WORD_OFF	n/a	n/a	BATH	3	19	[0, 0, 0]	n/a	FR1	1	R1275D
2614.792	1.628	2187613	WORD	n/a	wordpools/wordpool_EN.txt	FARM	4	19	[0, 0, 0]	n/a	FR1	1	R1275D
2616.42	1.089	2189241	WORD_OFF	n/a	n/a	FARM	4	19	[0, 0, 0]	n/a	FR1	1	R1275D
2617.509	1.628	2190330	WORD	n/a	wordpools/wordpool_EN.txt	SPONGE	5	19	[0, 0, 0]	n/a	FR1	1	R1275D
2619.137	1.111	2191958	WORD_OFF	n/a	n/a	SPONGE	5	19	[0, 0, 0]	n/a	FR1	1	R1275D
2620.248	1.607	2193069	WORD	n/a	wordpools/wordpool_EN.txt	TOOTH	6	19	[0, 0, 0]	n/a	FR1	1	R1275D
2621.855	1.034	2194676	WORD_OFF	n/a	n/a	TOOTH	6	19	[0, 0, 0]	n/a	FR1	1	R1275D
2622.889	1.632	2195710	WORD	n/a	wordpools/wordpool_EN.txt	FUR	7	19	[0, 0, 0]	n/a	FR1	1	R1275D
2624.521	1.015	2197342	WORD_OFF	n/a	n/a	FUR	7	19	[0, 0, 0]	n/a	FR1	1	R1275D
2625.536	1.636	2198357	WORD	n/a	wordpools/wordpool_EN.txt	STOVE	8	19	[0, 0, 0]	n/a	FR1	1	R1275D
2627.172	1.03	2199992	WORD_OFF	n/a	n/a	STOVE	8	19	[0, 0, 0]	n/a	FR1	1	R1275D
2628.202	1.638	2201022	WORD	n/a	wordpools/wordpool_EN.txt	ROSE	9	19	[0, 0, 0]	n/a	FR1	1	R1275D
2629.84	1.01	2202660	WORD_OFF	n/a	n/a	ROSE	9	19	[0, 0, 0]	n/a	FR1	1	R1275D
2630.85	1.623	2203670	WORD	n/a	wordpools/wordpool_EN.txt	STRAW	10	19	[0, 0, 0]	n/a	FR1	1	R1275D
2632.473	0.854	2205293	WORD_OFF	n/a	n/a	STRAW	10	19	[0, 0, 0]	n/a	FR1	1	R1275D
2633.327	1.629	2206147	WORD	n/a	wordpools/wordpool_EN.txt	MAZE	11	19	[0, 0, 0]	n/a	FR1	1	R1275D
2634.956	0.926	2207776	WORD_OFF	n/a	n/a	MAZE	11	19	[0, 0, 0]	n/a	FR1	1	R1275D
2635.882	1.625	2208702	WORD	n/a	wordpools/wordpool_EN.txt	CALF	12	19	[0, 0, 0]	n/a	FR1	1	R1275D
2637.507	0.0	2210327	WORD_OFF	n/a	n/a	CALF	12	19	[0, 0, 0]	n/a	FR1	1	R1275D
2637.507	0.001	2210327	ENCODING_END	n/a	n/a	n/a	-999	19	[0, 0, 0]	n/a	FR1	1	R1275D
2637.508	0.0	2210328	DISTRACT_START	n/a	n/a	n/a	-999	19	[0, 0, 0]	n/a	FR1	1	R1275D
2637.508	0.015	2210328	START	n/a	n/a	n/a	-999	19	[-999, -999, -999]	n/a	FR1	1	R1275D
2637.523	4.868	2210343	PROB	4.868	n/a	n/a	-999	19	[7, 6, 3]	16	FR1	1	R1275D
2642.391	7.951	2215211	PROB	7.951	n/a	n/a	-999	19	[3, 5, 6]	14	FR1	1	R1275D
2650.342	6.801	2223161	PROB	6.801	n/a	n/a	-999	19	[9, 6, 7]	21	FR1	1	R1275D
2657.143	5.286	2229962	PROB	5.286	n/a	n/a	-999	19	[6, 4, 6]	21	FR1	1	R1275D
2662.429	0.016	2235248	STOP	n/a	n/a	n/a	-999	19	[-999, -999, -999]	n/a	FR1	1	R1275D
2662.445	0.512	2235264	DISTRACT_END	n/a	n/a	n/a	-999	19	[0, 0, 0]	n/a	FR1	1	R1275D
2662.957	1.671	2235776	RETRIEVAL_ORIENT_START	n/a	n/a	n/a	-999	19	[0, 0, 0]	n/a	FR1	1	R1275D
2664.628	0.001	2237447	RETRIEVAL_ORIENT_END	n/a	n/a	n/a	-999	19	[0, 0, 0]	n/a	FR1	1	R1275D
2664.629	2.388	2237448	REC_START	n/a	n/a	n/a	-999	19	[0, 0, 0]	n/a	FR1	1	R1275D
2667.017	19.17	2239836	REC_WORD_VV	19.17	n/a	<>	-999	19	[0, 0, 0]	n/a	FR1	1	R1275D
2686.187	5.879	2259005	REC_WORD_VV	5.879	n/a	<>	-999	19	[0, 0, 0]	n/a	FR1	1	R1275D
2692.066	2.577	2264883	REC_WORD_VV	2.577	n/a	<>	-999	19	[0, 0, 0]	n/a	FR1	1	R1275D
2694.643	0.0	2267460	REC_END	n/a	n/a	n/a	-999	19	[0, 0, 0]	n/a	FR1	1	R1275D
2694.643	0.016	2267460	TRIAL_END	n/a	n/a	n/a	-999	19	[0, 0, 0]	n/a	FR1	1	R1275D
2694.659	0.001	2267476	TRIAL_START	n/a	n/a	n/a	-999	20	[0, 0, 0]	n/a	FR1	1	R1275D
2694.66	0.0	2267477	TRIAL	n/a	n/a	n/a	-999	20	[0, 0, 0]	n/a	FR1	1	R1275D
2694.66	1.824	2267477	WAITING_START	n/a	n/a	n/a	-999	20	[0, 0, 0]	n/a	FR1	1	R1275D
2696.484	0.001	2269301	WAITING_END	n/a	n/a	n/a	-999	20	[0, 0, 0]	n/a	FR1	1	R1275D
2696.485	10.428	2269302	COUNTDOWN_START	n/a	n/a	n/a	-999	20	[0, 0, 0]	n/a	FR1	1	R1275D
2706.913	0.001	2279730	COUNTDOWN_END	n/a	n/a	n/a	-999	20	[0, 0, 0]	n/a	FR1	1	R1275D
2706.914	1.222	2279731	ORIENT_START	n/a	n/a	n/a	-999	20	[0, 0, 0]	n/a	FR1	1	R1275D
2708.136	0.001	2280953	ORIENT_END	n/a	n/a	n/a	-999	20	[0, 0, 0]	n/a	FR1	1	R1275D
2708.137	0.797	2280954	ENCODING_START	n/a	n/a	n/a	-999	20	[0, 0, 0]	n/a	FR1	1	R1275D
2708.934	1.636	2281751	WORD	n/a	wordpools/wordpool_EN.txt	MOTH	1	20	[0, 0, 0]	n/a	FR1	1	R1275D
2710.57	1.115	2283386	WORD_OFF	n/a	n/a	MOTH	1	20	[0, 0, 0]	n/a	FR1	1	R1275D
2711.685	1.636	2284501	WORD	n/a	wordpools/wordpool_EN.txt	OAK	2	20	[0, 0, 0]	n/a	FR1	1	R1275D
2713.321	1.005	2286137	WORD_OFF	n/a	n/a	OAK	2	20	[0, 0, 0]	n/a	FR1	1	R1275D
2714.326	1.628	2287142	WORD	n/a	wordpools/wordpool_EN.txt	EAR	3	20	[0, 0, 0]	n/a	FR1	1	R1275D
2715.954	1.005	2288770	WORD_OFF	n/a	n/a	EAR	3	20	[0, 0, 0]	n/a	FR1	1	R1275D
2716.959	1.629	2289775	WORD	n/a	wordpools/wordpool_EN.txt	TEETH	4	20	[0, 0, 0]	n/a	FR1	1	R1275D
2718.588	1.005	2291404	WORD_OFF	n/a	n/a	TEETH	4	20	[0, 0, 0]	n/a	FR1	1	R1275D
2719.593	1.629	2292409	WORD	n/a	wordpools/wordpool_EN.txt	TANK	5	20	[0, 0, 0]	n/a	FR1	1	R1275D
2721.222	0.794	2294038	WORD_OFF	n/a	n/a	TANK	5	20	[0, 0, 0]	n/a	FR1	1	R1275D
2722.016	1.623	2294832	WORD	n/a	wordpools/wordpool_EN.txt	BOWL	6	20	[0, 0, 0]	n/a	FR1	1	R1275D
2723.639	1.136	2296455	WORD_OFF	n/a	n/a	BOWL	6	20	[0, 0, 0]	n/a	FR1	1	R1275D
2724.775	1.631	2297591	WORD	n/a	wordpools/wordpool_EN.txt	HOUSE	7	20	[0, 0, 0]	n/a	FR1	1	R1275D
2726.406	0.752	2299222	WORD_OFF	n/a	n/a	HOUSE	7	20	[0, 0, 0]	n/a	FR1	1	R1275D
2727.158	1.633	2299974	WORD	n/a	wordpools/wordpool_EN.txt	GLASS	8	20	[0, 0, 0]	n/a	FR1	1	R1275D
2728.791	0.769	2301607	WORD_OFF	n/a	n/a	GLASS	8	20	[0, 0, 0]	n/a	FR1	1	R1275D
2729.56	1.631	2302376	WORD	n/a	wordpools/wordpool_EN.txt	PEAR	9	20	[0, 0, 0]	n/a	FR1	1	R1275D
2731.191	1.029	2304006	WORD_OFF	n/a	n/a	PEAR	9	20	[0, 0, 0]	n/a	FR1	1	R1275D
2732.22	1.639	2305035	WORD	n/a	wordpools/wordpool_EN.txt	CHALK	10	20	[0, 0, 0]	n/a	FR1	1	R1275D
2733.859	1.065	2306674	WORD_OFF	n/a	n/a	CHALK	10	20	[0, 0, 0]	n/a	FR1	1	R1275D
2734.924	1.634	2307739	WORD	n/a	wordpools/wordpool_EN.txt	VASE	11	20	[0, 0, 0]	n/a	FR1	1	R1275D
2736.558	0.911	2309373	WORD_OFF	n/a	n/a	VASE	11	20	[0, 0, 0]	n/a	FR1	1	R1275D
2737.469	1.623	2310284	WORD	n/a	wordpools/wordpool_EN.txt	PALM	12	20	[0, 0, 0]	n/a	FR1	1	R1275D
2739.092	0.001	2311907	WORD_OFF	n/a	n/a	PALM	12	20	[0, 0, 0]	n/a	FR1	1	R1275D
2739.093	0.0	2311908	ENCODING_END	n/a	n/a	n/a	-999	20	[0, 0, 0]	n/a	FR1	1	R1275D
2739.093	0.0	2311908	DISTRACT_START	n/a	n/a	n/a	-999	20	[0, 0, 0]	n/a	FR1	1	R1275D
2739.093	0.015	2311908	START	n/a	n/a	n/a	-999	20	[-999, -999, -999]	n/a	FR1	1	R1275D
2739.108	5.335	2311923	PROB	5.335	n/a	n/a	-999	20	[3, 4, 3]	10	FR1	1	R1275D
2744.443	3.75	2317258	PROB	3.75	n/a	n/a	-999	20	[4, 1, 1]	6	FR1	1	R1275D
2748.193	3.768	2321008	PROB	3.768	n/a	n/a	-999	20	[7, 4, 4]	15	FR1	1	R1275D
2751.961	7.822	2324775	PROB	7.822	n/a	n/a	-999	20	[6, 8, 7]	21	FR1	1	R1275D
2759.783	0.014	2332597	STOP	n/a	n/a	n/a	-999	20	[-999, -999, -999]	n/a	FR1	1	R1275D
2759.797	0.65	2332611	DISTRACT_END	n/a	n/a	n/a	-999	20	[0, 0, 0]	n/a	FR1	1	R1275D
2760.447	1.549	2333261	RETRIEVAL_ORIENT_START	n/a	n/a	n/a	-999	20	[0, 0, 0]	n/a	FR1	1	R1275D
2761.996	0.001	2334810	RETRIEVAL_ORIENT_END	n/a	n/a	n/a	-999	20	[0, 0, 0]	n/a	FR1	1	R1275D
2761.997	0.33	2334811	REC_START	n/a	n/a	n/a	-999	20	[0, 0, 0]	n/a	FR1	1	R1275D
2762.327	1.377	2335141	REC_WORD	1.377	n/a	GLASS	8	20	[0, 0, 0]	n/a	FR1	1	R1275D
2763.704	1.0	2336518	REC_WORD	1.0	n/a	VASE	11	20	[0, 0, 0]	n/a	FR1	1	R1275D
2764.704	27.306	2337518	REC_WORD	27.306	n/a	CHALK	10	20	[0, 0, 0]	n/a	FR1	1	R1275D
2792.01	0.0	2364822	REC_END	n/a	n/a	n/a	-999	20	[0, 0, 0]	n/a	FR1	1	R1275D
2792.01	0.014	2364822	TRIAL_END	n/a	n/a	n/a	-999	20	[0, 0, 0]	n/a	FR1	1	R1275D
2792.024	0.0	2364836	TRIAL_START	n/a	n/a	n/a	-999	21	[0, 0, 0]	n/a	FR1	1	R1275D
2792.024	0.001	2364836	TRIAL	n/a	n/a	n/a	-999	21	[0, 0, 0]	n/a	FR1	1	R1275D
2792.025	1.778	2364837	WAITING_START	n/a	n/a	n/a	-999	21	[0, 0, 0]	n/a	FR1	1	R1275D
2793.803	0.001	2366615	WAITING_END	n/a	n/a	n/a	-999	21	[0, 0, 0]	n/a	FR1	1	R1275D
2793.804	10.429	2366616	COUNTDOWN_START	n/a	n/a	n/a	-999	21	[0, 0, 0]	n/a	FR1	1	R1275D
2804.233	0.0	2377045	ORIENT_START	n/a	n/a	n/a	-999	21	[0, 0, 0]	n/a	FR1	1	R1275D
2804.233	1.054	2377045	COUNTDOWN_END	n/a	n/a	n/a	-999	21	[0, 0, 0]	n/a	FR1	1	R1275D
2805.287	0.001	2378099	ORIENT_END	n/a	n/a	n/a	-999	21	[0, 0, 0]	n/a	FR1	1	R1275D
2805.288	0.871	2378100	ENCODING_START	n/a	n/a	n/a	-999	21	[0, 0, 0]	n/a	FR1	1	R1275D
2806.159	1.63	2378971	WORD	n/a	wordpools/wordpool_EN.txt	PARK	1	21	[0, 0, 0]	n/a	FR1	1	R1275D
2807.789	0.892	2380601	WORD_OFF	n/a	n/a	PARK	1	21	[0, 0, 0]	n/a	FR1	1	R1275D
2808.681	1.624	2381493	WORD	n/a	wordpools/wordpool_EN.txt	GOLD	2	21	[0, 0, 0]	n/a	FR1	1	R1275D
2810.305	0.781	2383117	WORD_OFF	n/a	n/a	GOLD	2	21	[0, 0, 0]	n/a	FR1	1	R1275D
2811.086	1.62	2383898	WORD	n/a	wordpools/wordpool_EN.txt	FACE	3	21	[0, 0, 0]	n/a	FR1	1	R1275D
2812.706	0.945	2385517	WORD_OFF	n/a	n/a	FACE	3	21	[0, 0, 0]	n/a	FR1	1	R1275D
2813.651	1.622	2386462	WORD	n/a	wordpools/wordpool_EN.txt	SHELL	4	21	[0, 0, 0]	n/a	FR1	1	R1275D
2815.273	1.14	2388084	WORD_OFF	n/a	n/a	SHELL	4	21	[0, 0, 0]	n/a	FR1	1	R1275D
2816.413	1.627	2389224	WORD	n/a	wordpools/wordpool_EN.txt	SIGN	5	21	[0, 0, 0]	n/a	FR1	1	R1275D
2818.04	0.894	2390851	WORD_OFF	n/a	n/a	SIGN	5	21	[0, 0, 0]	n/a	FR1	1	R1275D
2818.934	1.623	2391745	WORD	n/a	wordpools/wordpool_EN.txt	WORLD	6	21	[0, 0, 0]	n/a	FR1	1	R1275D
2820.557	0.889	2393368	WORD_OFF	n/a	n/a	WORLD	6	21	[0, 0, 0]	n/a	FR1	1	R1275D
2821.446	1.628	2394257	WORD	n/a	wordpools/wordpool_EN.txt	FLAG	7	21	[0, 0, 0]	n/a	FR1	1	R1275D
2823.074	1.122	2395885	WORD_OFF	n/a	n/a	FLAG	7	21	[0, 0, 0]	n/a	FR1	1	R1275D
2824.196	1.613	2397007	WORD	n/a	wordpools/wordpool_EN.txt	PIG	8	21	[0, 0, 0]	n/a	FR1	1	R1275D
2825.809	0.935	2398620	WORD_OFF	n/a	n/a	PIG	8	21	[0, 0, 0]	n/a	FR1	1	R1275D
2826.744	1.631	2399555	WORD	n/a	wordpools/wordpool_EN.txt	LEG	9	21	[0, 0, 0]	n/a	FR1	1	R1275D
2828.375	0.797	2401186	WORD_OFF	n/a	n/a	LEG	9	21	[0, 0, 0]	n/a	FR1	1	R1275D
2829.172	1.638	2401983	WORD	n/a	wordpools/wordpool_EN.txt	CLIFF	10	21	[0, 0, 0]	n/a	FR1	1	R1275D
2830.81	1.125	2403621	WORD_OFF	n/a	n/a	CLIFF	10	21	[0, 0, 0]	n/a	FR1	1	R1275D
2831.935	1.624	2404746	WORD	n/a	wordpools/wordpool_EN.txt	BED	11	21	[0, 0, 0]	n/a	FR1	1	R1275D
2833.559	0.919	2406369	WORD_OFF	n/a	n/a	BED	11	21	[0, 0, 0]	n/a	FR1	1	R1275D
2834.478	1.632	2407288	WORD	n/a	wordpools/wordpool_EN.txt	BROOM	12	21	[0, 0, 0]	n/a	FR1	1	R1275D
2836.11	0.0	2408920	ENCODING_END	n/a	n/a	n/a	-999	21	[0, 0, 0]	n/a	FR1	1	R1275D
2836.11	0.001	2408920	WORD_OFF	n/a	n/a	BROOM	12	21	[0, 0, 0]	n/a	FR1	1	R1275D
2836.111	0.0	2408921	DISTRACT_START	n/a	n/a	n/a	-999	21	[0, 0, 0]	n/a	FR1	1	R1275D
2836.111	0.015	2408921	START	n/a	n/a	n/a	-999	21	[-999, -999, -999]	n/a	FR1	1	R1275D
2836.126	7.619	2408936	PROB	7.619	n/a	n/a	-999	21	[3, 8, 6]	17	FR1	1	R1275D
2843.745	7.634	2416555	PROB	7.634	n/a	n/a	-999	21	[5, 3, 8]	16	FR1	1	R1275D
2851.379	5.421	2424189	PROB	5.421	n/a	n/a	-999	21	[3, 6, 1]	10	FR1	1	R1275D
2856.8	0.015	2429609	STOP	n/a	n/a	n/a	-999	21	[-999, -999, -999]	n/a	FR1	1	R1275D
2856.815	0.539	2429624	DISTRACT_END	n/a	n/a	n/a	-999	21	[0, 0, 0]	n/a	FR1	1	R1275D
2857.354	1.71	2430163	RETRIEVAL_ORIENT_START	n/a	n/a	n/a	-999	21	[0, 0, 0]	n/a	FR1	1	R1275D
2859.064	0.0	2431873	RETRIEVAL_ORIENT_END	n/a	n/a	n/a	-999	21	[0, 0, 0]	n/a	FR1	1	R1275D
2859.064	0.828	2431873	REC_START	n/a	n/a	n/a	-999	21	[0, 0, 0]	n/a	FR1	1	R1275D
2859.892	2.043	2432701	REC_WORD	2.043	n/a	CLIFF	10	21	[0, 0, 0]	n/a	FR1	1	R1275D
2861.935	5.453	2434744	REC_WORD	5.453	n/a	ARM	-999	21	[0, 0, 0]	n/a	FR1	1	R1275D
2867.388	21.688	2440197	REC_WORD	21.688	n/a	ROOM	-999	21	[0, 0, 0]	n/a	FR1	1	R1275D
2889.076	0.0	2461884	TRIAL_END	n/a	n/a	n/a	-999	21	[0, 0, 0]	n/a	FR1	1	R1275D
2889.076	0.014	2461884	REC_END	n/a	n/a	n/a	-999	21	[0, 0, 0]	n/a	FR1	1	R1275D
2889.09	0.0	2461898	TRIAL_START	n/a	n/a	n/a	-999	22	[0, 0, 0]	n/a	FR1	1	R1275D
2889.09	0.0	2461898	TRIAL	n/a	n/a	n/a	-999	22	[0, 0, 0]	n/a	FR1	1	R1275D
2889.09	1.496	2461898	WAITING_START	n/a	n/a	n/a	-999	22	[0, 0, 0]	n/a	FR1	1	R1275D
2890.586	0.001	2463394	WAITING_END	n/a	n/a	n/a	-999	22	[0, 0, 0]	n/a	FR1	1	R1275D
2890.587	10.429	2463395	COUNTDOWN_START	n/a	n/a	n/a	-999	22	[0, 0, 0]	n/a	FR1	1	R1275D
2901.016	0.0	2473823	COUNTDOWN_END	n/a	n/a	n/a	-999	22	[0, 0, 0]	n/a	FR1	1	R1275D
2901.016	1.222	2473823	ORIENT_START	n/a	n/a	n/a	-999	22	[0, 0, 0]	n/a	FR1	1	R1275D
2902.238	0.001	2475045	ORIENT_END	n/a	n/a	n/a	-999	22	[0, 0, 0]	n/a	FR1	1	R1275D
2902.239	0.772	2475046	ENCODING_START	n/a	n/a	n/a	-999	22	[0, 0, 0]	n/a	FR1	1	R1275D
2903.011	1.628	2475818	WORD	n/a	wordpools/wordpool_EN.txt	SPEAR	1	22	[0, 0, 0]	n/a	FR1	1	R1275D
2904.639	0.959	2477446	WORD_OFF	n/a	n/a	SPEAR	1	22	[0, 0, 0]	n/a	FR1	1	R1275D
2905.598	1.625	2478405	WORD	n/a	wordpools/wordpool_EN.txt	SPOON	2	22	[0, 0, 0]	n/a	FR1	1	R1275D
2907.223	1.138	2480030	WORD_OFF	n/a	n/a	SPOON	2	22	[0, 0, 0]	n/a	FR1	1	R1275D
2908.361	1.629	2481168	WORD	n/a	wordpools/wordpool_EN.txt	JET	3	22	[0, 0, 0]	n/a	FR1	1	R1275D
2909.99	1.144	2482797	WORD_OFF	n/a	n/a	JET	3	22	[0, 0, 0]	n/a	FR1	1	R1275D
2911.134	1.607	2483941	WORD	n/a	wordpools/wordpool_EN.txt	TIE	4	22	[0, 0, 0]	n/a	FR1	1	R1275D
2912.741	1.103	2485548	WORD_OFF	n/a	n/a	TIE	4	22	[0, 0, 0]	n/a	FR1	1	R1275D
2913.844	1.63	2486651	WORD	n/a	wordpools/wordpool_EN.txt	TAIL	5	22	[0, 0, 0]	n/a	FR1	1	R1275D
2915.474	0.827	2488281	WORD_OFF	n/a	n/a	TAIL	5	22	[0, 0, 0]	n/a	FR1	1	R1275D
2916.301	1.624	2489107	WORD	n/a	wordpools/wordpool_EN.txt	LAKE	6	22	[0, 0, 0]	n/a	FR1	1	R1275D
2917.925	1.078	2490731	WORD_OFF	n/a	n/a	LAKE	6	22	[0, 0, 0]	n/a	FR1	1	R1275D
2919.003	1.622	2491809	WORD	n/a	wordpools/wordpool_EN.txt	FORK	7	22	[0, 0, 0]	n/a	FR1	1	R1275D
2920.625	1.011	2493431	WORD_OFF	n/a	n/a	FORK	7	22	[0, 0, 0]	n/a	FR1	1	R1275D
2921.636	1.623	2494442	WORD	n/a	wordpools/wordpool_EN.txt	WOOD	8	22	[0, 0, 0]	n/a	FR1	1	R1275D
2923.259	0.813	2496065	WORD_OFF	n/a	n/a	WOOD	8	22	[0, 0, 0]	n/a	FR1	1	R1275D
2924.072	1.638	2496878	WORD	n/a	wordpools/wordpool_EN.txt	VINE	9	22	[0, 0, 0]	n/a	FR1	1	R1275D
2925.71	0.89	2498516	WORD_OFF	n/a	n/a	VINE	9	22	[0, 0, 0]	n/a	FR1	1	R1275D
2926.6	1.627	2499406	WORD	n/a	wordpools/wordpool_EN.txt	HOLE	10	22	[0, 0, 0]	n/a	FR1	1	R1275D
2928.227	1.059	2501033	WORD_OFF	n/a	n/a	HOLE	10	22	[0, 0, 0]	n/a	FR1	1	R1275D
2929.286	1.624	2502092	WORD	n/a	wordpools/wordpool_EN.txt	WAVE	11	22	[0, 0, 0]	n/a	FR1	1	R1275D
2930.91	0.759	2503716	WORD_OFF	n/a	n/a	WAVE	11	22	[0, 0, 0]	n/a	FR1	1	R1275D
2931.669	1.625	2504475	WORD	n/a	wordpools/wordpool_EN.txt	CART	12	22	[0, 0, 0]	n/a	FR1	1	R1275D
2933.294	0.0	2506100	WORD_OFF	n/a	n/a	CART	12	22	[0, 0, 0]	n/a	FR1	1	R1275D
2933.294	0.001	2506100	ENCODING_END	n/a	n/a	n/a	-999	22	[0, 0, 0]	n/a	FR1	1	R1275D
2933.295	0.0	2506101	DISTRACT_START	n/a	n/a	n/a	-999	22	[0, 0, 0]	n/a	FR1	1	R1275D
2933.295	0.016	2506101	START	n/a	n/a	n/a	-999	22	[-999, -999, -999]	n/a	FR1	1	R1275D
2933.311	4.167	2506117	PROB	4.167	n/a	n/a	-999	22	[4, 3, 5]	12	FR1	1	R1275D
2937.478	4.934	2510283	PROB	4.934	n/a	n/a	-999	22	[9, 4, 1]	14	FR1	1	R1275D
2942.412	4.452	2515217	PROB	4.452	n/a	n/a	-999	22	[9, 1, 2]	12	FR1	1	R1275D
2946.864	4.033	2519669	PROB	4.033	n/a	n/a	-999	22	[8, 1, 8]	17	FR1	1	R1275D
2950.897	5.852	2523702	PROB	5.852	n/a	n/a	-999	22	[4, 5, 6]	15	FR1	1	R1275D
2956.749	0.017	2529554	STOP	n/a	n/a	n/a	-999	22	[-999, -999, -999]	n/a	FR1	1	R1275D
2956.766	0.576	2529571	DISTRACT_END	n/a	n/a	n/a	-999	22	[0, 0, 0]	n/a	FR1	1	R1275D
2957.342	1.607	2530146	RETRIEVAL_ORIENT_START	n/a	n/a	n/a	-999	22	[0, 0, 0]	n/a	FR1	1	R1275D
2958.949	0.0	2531753	RETRIEVAL_ORIENT_END	n/a	n/a	n/a	-999	22	[0, 0, 0]	n/a	FR1	1	R1275D
2958.949	0.904	2531753	REC_START	n/a	n/a	n/a	-999	22	[0, 0, 0]	n/a	FR1	1	R1275D
2959.853	1.026	2532657	REC_WORD	1.026	n/a	WAVE	11	22	[0, 0, 0]	n/a	FR1	1	R1275D
2960.879	0.959	2533683	REC_WORD	0.959	n/a	WAKE	-999	22	[0, 0, 0]	n/a	FR1	1	R1275D
2961.838	3.044	2534642	REC_WORD	3.044	n/a	CART	12	22	[0, 0, 0]	n/a	FR1	1	R1275D
2964.882	9.918	2537686	REC_WORD	9.918	n/a	TIE	4	22	[0, 0, 0]	n/a	FR1	1	R1275D
2974.8	14.163	2547604	REC_WORD_VV	14.163	n/a	<>	-999	22	[0, 0, 0]	n/a	FR1	1	R1275D
2988.963	0.0	2561766	TRIAL_END	n/a	n/a	n/a	-999	22	[0, 0, 0]	n/a	FR1	1	R1275D
2988.963	0.016	2561766	REC_END	n/a	n/a	n/a	-999	22	[0, 0, 0]	n/a	FR1	1	R1275D
2988.979	0.0	2561782	TRIAL_START	n/a	n/a	n/a	-999	23	[0, 0, 0]	n/a	FR1	1	R1275D
2988.979	0.0	2561782	TRIAL	n/a	n/a	n/a	-999	23	[0, 0, 0]	n/a	FR1	1	R1275D
2988.979	1.793	2561782	WAITING_START	n/a	n/a	n/a	-999	23	[0, 0, 0]	n/a	FR1	1	R1275D
2990.772	0.001	2563575	WAITING_END	n/a	n/a	n/a	-999	23	[0, 0, 0]	n/a	FR1	1	R1275D
2990.773	10.429	2563576	COUNTDOWN_START	n/a	n/a	n/a	-999	23	[0, 0, 0]	n/a	FR1	1	R1275D
3001.202	0.0	2574004	ORIENT_START	n/a	n/a	n/a	-999	23	[0, 0, 0]	n/a	FR1	1	R1275D
3001.202	1.138	2574004	COUNTDOWN_END	n/a	n/a	n/a	-999	23	[0, 0, 0]	n/a	FR1	1	R1275D
3002.34	0.001	2575142	ORIENT_END	n/a	n/a	n/a	-999	23	[0, 0, 0]	n/a	FR1	1	R1275D
3002.341	0.923	2575143	ENCODING_START	n/a	n/a	n/a	-999	23	[0, 0, 0]	n/a	FR1	1	R1275D
3003.264	1.626	2576066	WORD	n/a	wordpools/wordpool_EN.txt	BREAD	1	23	[0, 0, 0]	n/a	FR1	1	R1275D
3004.89	1.034	2577692	WORD_OFF	n/a	n/a	BREAD	1	23	[0, 0, 0]	n/a	FR1	1	R1275D
3005.924	1.634	2578726	WORD	n/a	wordpools/wordpool_EN.txt	LAMB	2	23	[0, 0, 0]	n/a	FR1	1	R1275D
3007.558	0.975	2580360	WORD_OFF	n/a	n/a	LAMB	2	23	[0, 0, 0]	n/a	FR1	1	R1275D
3008.533	1.625	2581335	WORD	n/a	wordpools/wordpool_EN.txt	BRANCH	3	23	[0, 0, 0]	n/a	FR1	1	R1275D
3010.158	0.897	2582960	WORD_OFF	n/a	n/a	BRANCH	3	23	[0, 0, 0]	n/a	FR1	1	R1275D
3011.055	1.637	2583857	WORD	n/a	wordpools/wordpool_EN.txt	CAPE	4	23	[0, 0, 0]	n/a	FR1	1	R1275D
3012.692	1.03	2585494	WORD_OFF	n/a	n/a	CAPE	4	23	[0, 0, 0]	n/a	FR1	1	R1275D
3013.722	1.62	2586524	WORD	n/a	wordpools/wordpool_EN.txt	ANT	5	23	[0, 0, 0]	n/a	FR1	1	R1275D
3015.342	1.007	2588144	WORD_OFF	n/a	n/a	ANT	5	23	[0, 0, 0]	n/a	FR1	1	R1275D
3016.349	1.627	2589151	WORD	n/a	wordpools/wordpool_EN.txt	BAG	6	23	[0, 0, 0]	n/a	FR1	1	R1275D
3017.976	0.986	2590778	WORD_OFF	n/a	n/a	BAG	6	23	[0, 0, 0]	n/a	FR1	1	R1275D
3018.962	1.631	2591764	WORD	n/a	wordpools/wordpool_EN.txt	PLATE	7	23	[0, 0, 0]	n/a	FR1	1	R1275D
3020.593	1.144	2593394	WORD_OFF	n/a	n/a	PLATE	7	23	[0, 0, 0]	n/a	FR1	1	R1275D
3021.737	1.624	2594538	WORD	n/a	wordpools/wordpool_EN.txt	PLANE	8	23	[0, 0, 0]	n/a	FR1	1	R1275D
3023.361	1.052	2596162	WORD_OFF	n/a	n/a	PLANE	8	23	[0, 0, 0]	n/a	FR1	1	R1275D
3024.413	1.632	2597214	WORD	n/a	wordpools/wordpool_EN.txt	OWL	9	23	[0, 0, 0]	n/a	FR1	1	R1275D
3026.045	0.865	2598846	WORD_OFF	n/a	n/a	OWL	9	23	[0, 0, 0]	n/a	FR1	1	R1275D
3026.91	1.635	2599711	WORD	n/a	wordpools/wordpool_EN.txt	PLANT	10	23	[0, 0, 0]	n/a	FR1	1	R1275D
3028.545	1.08	2601346	WORD_OFF	n/a	n/a	PLANT	10	23	[0, 0, 0]	n/a	FR1	1	R1275D
3029.625	1.637	2602426	WORD	n/a	wordpools/wordpool_EN.txt	CHAIR	11	23	[0, 0, 0]	n/a	FR1	1	R1275D
3031.262	0.85	2604063	WORD_OFF	n/a	n/a	CHAIR	11	23	[0, 0, 0]	n/a	FR1	1	R1275D
3032.112	1.635	2604913	WORD	n/a	wordpools/wordpool_EN.txt	HAWK	12	23	[0, 0, 0]	n/a	FR1	1	R1275D
3033.747	0.0	2606548	WORD_OFF	n/a	n/a	HAWK	12	23	[0, 0, 0]	n/a	FR1	1	R1275D
3033.747	0.001	2606548	ENCODING_END	n/a	n/a	n/a	-999	23	[0, 0, 0]	n/a	FR1	1	R1275D
3033.748	0.0	2606549	DISTRACT_START	n/a	n/a	n/a	-999	23	[0, 0, 0]	n/a	FR1	1	R1275D
