onset	duration	sample	trial_type	response_time	stim_file	item_name	serialpos	list	test	answer	experiment	session	subject
0.0	365.934	1736	INSTRUCT_START	n/a	n/a	n/a	-999	-999	[0, 0, 0]	n/a	FR1	3	R1304N
365.934	1.516	367653	INSTRUCT_END	n/a	n/a	n/a	-999	-999	[0, 0, 0]	n/a	FR1	3	R1304N
367.45	10.623	369169	MIC TEST_START	n/a	n/a	n/a	-999	-999	[0, 0, 0]	n/a	FR1	3	R1304N
378.073	0.008	379791	MIC TEST_END	n/a	n/a	n/a	-999	-999	[0, 0, 0]	n/a	FR1	3	R1304N
378.081	0.0	379799	TRIAL_START	n/a	n/a	n/a	-999	-1	[0, 0, 0]	n/a	FR1	3	R1304N
378.081	0.001	379799	TRIAL	n/a	n/a	n/a	-999	-1	[0, 0, 0]	n/a	FR1	3	R1304N
378.082	2.221	379800	WAITING_START	n/a	n/a	n/a	-999	-1	[0, 0, 0]	n/a	FR1	3	R1304N
380.303	0.0	382021	WAITING_END	n/a	n/a	n/a	-999	-1	[0, 0, 0]	n/a	FR1	3	R1304N
380.303	10.431	382021	COUNTDOWN_START	n/a	n/a	n/a	-999	-1	[0, 0, 0]	n/a	FR1	3	R1304N
390.734	0.001	392452	COUNTDOWN_END	n/a	n/a	n/a	-999	-1	[0, 0, 0]	n/a	FR1	3	R1304N
390.735	1.186	392453	ORIENT_START	n/a	n/a	n/a	-999	-1	[0, 0, 0]	n/a	FR1	3	R1304N
391.921	0.0	393639	ORIENT_END	n/a	n/a	n/a	-999	-1	[0, 0, 0]	n/a	FR1	3	R1304N
391.921	0.981	393639	ENCODING_START	n/a	n/a	n/a	-999	-1	[0, 0, 0]	n/a	FR1	3	R1304N
392.902	1.636	394620	WORD	n/a	n/a	IRON	1	-1	[0, 0, 0]	n/a	FR1	3	R1304N
394.538	0.804	396256	WORD_OFF	n/a	n/a	IRON	1	-1	[0, 0, 0]	n/a	FR1	3	R1304N
395.342	1.63	397060	WORD	n/a	n/a	FLOOD	2	-1	[0, 0, 0]	n/a	FR1	3	R1304N
396.972	0.943	398690	WORD_OFF	n/a	n/a	FLOOD	2	-1	[0, 0, 0]	n/a	FR1	3	R1304N
397.915	1.624	399632	WORD	n/a	n/a	WATCH	3	-1	[0, 0, 0]	n/a	FR1	3	R1304N
399.539	0.996	401256	WORD_OFF	n/a	n/a	WATCH	3	-1	[0, 0, 0]	n/a	FR1	3	R1304N
400.535	1.638	402252	WORD	n/a	n/a	BEAM	4	-1	[0, 0, 0]	n/a	FR1	3	R1304N
402.173	0.867	403890	WORD_OFF	n/a	n/a	BEAM	4	-1	[0, 0, 0]	n/a	FR1	3	R1304N
403.04	1.633	404757	WORD	n/a	n/a	CHEST	5	-1	[0, 0, 0]	n/a	FR1	3	R1304N
404.673	1.134	406390	WORD_OFF	n/a	n/a	CHEST	5	-1	[0, 0, 0]	n/a	FR1	3	R1304N
405.807	1.633	407524	WORD	n/a	n/a	ATTIC	6	-1	[0, 0, 0]	n/a	FR1	3	R1304N
407.44	1.008	409157	WORD_OFF	n/a	n/a	ATTIC	6	-1	[0, 0, 0]	n/a	FR1	3	R1304N
408.448	1.625	410165	WORD	n/a	n/a	CAMEL	7	-1	[0, 0, 0]	n/a	FR1	3	R1304N
410.073	1.079	411790	WORD_OFF	n/a	n/a	CAMEL	7	-1	[0, 0, 0]	n/a	FR1	3	R1304N
411.152	1.606	412869	WORD	n/a	n/a	RHINO	8	-1	[0, 0, 0]	n/a	FR1	3	R1304N
412.758	0.955	414475	WORD_OFF	n/a	n/a	RHINO	8	-1	[0, 0, 0]	n/a	FR1	3	R1304N
413.713	1.628	415430	WORD	n/a	n/a	TONGUE	9	-1	[0, 0, 0]	n/a	FR1	3	R1304N
415.341	1.057	417058	WORD_OFF	n/a	n/a	TONGUE	9	-1	[0, 0, 0]	n/a	FR1	3	R1304N
416.398	1.627	418115	WORD	n/a	n/a	RING	10	-1	[0, 0, 0]	n/a	FR1	3	R1304N
418.025	0.846	419742	WORD_OFF	n/a	n/a	RING	10	-1	[0, 0, 0]	n/a	FR1	3	R1304N
418.871	1.638	420587	WORD	n/a	n/a	WAGON	11	-1	[0, 0, 0]	n/a	FR1	3	R1304N
420.509	1.103	422225	WORD_OFF	n/a	n/a	WAGON	11	-1	[0, 0, 0]	n/a	FR1	3	R1304N
421.612	1.631	423328	WORD	n/a	n/a	COTTON	12	-1	[0, 0, 0]	n/a	FR1	3	R1304N
423.243	0.0	424959	WORD_OFF	n/a	n/a	COTTON	12	-1	[0, 0, 0]	n/a	FR1	3	R1304N
423.243	0.001	424959	ENCODING_END	n/a	n/a	n/a	-999	-1	[0, 0, 0]	n/a	FR1	3	R1304N
423.244	0.0	424960	DISTRACT_START	n/a	n/a	n/a	-999	-1	[0, 0, 0]	n/a	FR1	3	R1304N
423.244	0.015	424960	START	n/a	n/a	n/a	-999	-1	[-999, -999, -999]	n/a	FR1	3	R1304N
423.259	6.9	424975	PROB	6.9	n/a	n/a	-999	-1	[7, 8, 4]	6	FR1	3	R1304N
430.159	3.702	431875	PROB	3.702	n/a	n/a	-999	-1	[3, 9, 2]	4	FR1	3	R1304N
433.861	2.834	435577	PROB	2.834	n/a	n/a	-999	-1	[4, 3, 9]	6	FR1	3	R1304N
436.695	3.067	438411	PROB	3.067	n/a	n/a	-999	-1	[1, 5, 7]	9	FR1	3	R1304N
439.762	5.068	441478	PROB	5.068	n/a	n/a	-999	-1	[1, 3, 8]	6	FR1	3	R1304N
444.83	0.016	446545	STOP	n/a	n/a	n/a	-999	-1	[-999, -999, -999]	n/a	FR1	3	R1304N
444.846	0.566	446561	DISTRACT_END	n/a	n/a	n/a	-999	-1	[0, 0, 0]	n/a	FR1	3	R1304N
445.412	1.717	447127	RETRIEVAL_ORIENT_START	n/a	n/a	n/a	-999	-1	[0, 0, 0]	n/a	FR1	3	R1304N
447.129	0.0	448844	REC_START	n/a	n/a	n/a	-999	-1	[0, 0, 0]	n/a	FR1	3	R1304N
447.129	2.569	448844	RETRIEVAL_ORIENT_END	n/a	n/a	n/a	-999	-1	[0, 0, 0]	n/a	FR1	3	R1304N
449.698	1.844	451413	REC_WORD_VV	1.844	n/a	<>	-999	-1	[0, 0, 0]	n/a	FR1	3	R1304N
451.542	2.02	453257	REC_WORD_VV	2.02	n/a	<>	-999	-1	[0, 0, 0]	n/a	FR1	3	R1304N
453.562	23.58	455277	REC_WORD	23.58	n/a	FLOOD	-999	-1	[0, 0, 0]	n/a	FR1	3	R1304N
477.142	0.0	478856	REC_END	n/a	n/a	n/a	-999	-1	[0, 0, 0]	n/a	FR1	3	R1304N
477.142	15.313	478856	PRACTICE_POST_INSTRUCT_START	n/a	n/a	n/a	-999	-1	[0, 0, 0]	n/a	FR1	3	R1304N
492.455	0.0	494168	PRACTICE_POST_INSTRUCT_END	n/a	n/a	n/a	-999	-1	[0, 0, 0]	n/a	FR1	3	R1304N
492.455	0.018	494168	TRIAL_END	n/a	n/a	n/a	-999	-1	[0, 0, 0]	n/a	FR1	3	R1304N
492.473	0.0	494186	TRIAL	n/a	n/a	n/a	-999	1	[0, 0, 0]	n/a	FR1	3	R1304N
492.473	0.001	494186	TRIAL_START	n/a	n/a	n/a	-999	1	[0, 0, 0]	n/a	FR1	3	R1304N
492.474	2.197	494187	WAITING_START	n/a	n/a	n/a	-999	1	[0, 0, 0]	n/a	FR1	3	R1304N
494.671	0.001	496384	WAITING_END	n/a	n/a	n/a	-999	1	[0, 0, 0]	n/a	FR1	3	R1304N
494.672	10.43	496385	COUNTDOWN_START	n/a	n/a	n/a	-999	1	[0, 0, 0]	n/a	FR1	3	R1304N
505.102	0.001	506814	COUNTDOWN_END	n/a	n/a	n/a	-999	1	[0, 0, 0]	n/a	FR1	3	R1304N
505.103	1.052	506815	ORIENT_START	n/a	n/a	n/a	-999	1	[0, 0, 0]	n/a	FR1	3	R1304N
506.155	0.001	507867	ORIENT_END	n/a	n/a	n/a	-999	1	[0, 0, 0]	n/a	FR1	3	R1304N
506.156	0.807	507868	ENCODING_START	n/a	n/a	n/a	-999	1	[0, 0, 0]	n/a	FR1	3	R1304N
506.963	1.627	508675	WORD	n/a	n/a	POLE	1	1	[0, 0, 0]	n/a	FR1	3	R1304N
508.59	0.947	510302	WORD_OFF	n/a	n/a	POLE	1	1	[0, 0, 0]	n/a	FR1	3	R1304N
509.537	1.637	511249	WORD	n/a	n/a	HAT	2	1	[0, 0, 0]	n/a	FR1	3	R1304N
511.174	0.889	512886	WORD_OFF	n/a	n/a	HAT	2	1	[0, 0, 0]	n/a	FR1	3	R1304N
512.063	1.628	513775	WORD	n/a	n/a	RAIN	3	1	[0, 0, 0]	n/a	FR1	3	R1304N
513.691	0.932	515403	WORD_OFF	n/a	n/a	RAIN	3	1	[0, 0, 0]	n/a	FR1	3	R1304N
514.623	1.635	516335	WORD	n/a	n/a	FROG	4	1	[0, 0, 0]	n/a	FR1	3	R1304N
516.258	1.002	517970	WORD_OFF	n/a	n/a	FROG	4	1	[0, 0, 0]	n/a	FR1	3	R1304N
517.26	1.632	518972	WORD	n/a	n/a	AXE	5	1	[0, 0, 0]	n/a	FR1	3	R1304N
518.892	0.941	520604	WORD_OFF	n/a	n/a	AXE	5	1	[0, 0, 0]	n/a	FR1	3	R1304N
519.833	1.626	521545	WORD	n/a	n/a	JUICE	6	1	[0, 0, 0]	n/a	FR1	3	R1304N
521.459	0.894	523171	WORD_OFF	n/a	n/a	JUICE	6	1	[0, 0, 0]	n/a	FR1	3	R1304N
522.353	1.623	524065	WORD	n/a	n/a	BREAD	7	1	[0, 0, 0]	n/a	FR1	3	R1304N
523.976	0.828	525688	WORD_OFF	n/a	n/a	BREAD	7	1	[0, 0, 0]	n/a	FR1	3	R1304N
524.804	1.622	526516	WORD	n/a	n/a	BARN	8	1	[0, 0, 0]	n/a	FR1	3	R1304N
526.426	0.809	528137	WORD_OFF	n/a	n/a	BARN	8	1	[0, 0, 0]	n/a	FR1	3	R1304N
527.235	1.625	528946	WORD	n/a	n/a	BAND	9	1	[0, 0, 0]	n/a	FR1	3	R1304N
528.86	0.919	530571	WORD_OFF	n/a	n/a	BAND	9	1	[0, 0, 0]	n/a	FR1	3	R1304N
529.779	1.632	531490	WORD	n/a	n/a	MAZE	10	1	[0, 0, 0]	n/a	FR1	3	R1304N
531.411	0.951	533122	WORD_OFF	n/a	n/a	MAZE	10	1	[0, 0, 0]	n/a	FR1	3	R1304N
532.362	1.632	534073	WORD	n/a	n/a	DITCH	11	1	[0, 0, 0]	n/a	FR1	3	R1304N
533.994	0.826	535705	WORD_OFF	n/a	n/a	DITCH	11	1	[0, 0, 0]	n/a	FR1	3	R1304N
534.82	1.625	536531	WORD	n/a	n/a	BRUSH	12	1	[0, 0, 0]	n/a	FR1	3	R1304N
536.445	0.0	538156	ENCODING_END	n/a	n/a	n/a	-999	1	[0, 0, 0]	n/a	FR1	3	R1304N
536.445	0.0	538156	WORD_OFF	n/a	n/a	BRUSH	12	1	[0, 0, 0]	n/a	FR1	3	R1304N
536.445	0.0	538156	DISTRACT_START	n/a	n/a	n/a	-999	1	[0, 0, 0]	n/a	FR1	3	R1304N
536.445	0.016	538156	START	n/a	n/a	n/a	-999	1	[-999, -999, -999]	n/a	FR1	3	R1304N
536.461	7.835	538172	PROB	7.835	n/a	n/a	-999	1	[6, 1, 5]	7	FR1	3	R1304N
544.296	2.717	546007	PROB	2.717	n/a	n/a	-999	1	[6, 4, 8]	9	FR1	3	R1304N
547.013	3.501	548723	PROB	3.501	n/a	n/a	-999	1	[8, 1, 8]	9	FR1	3	R1304N
550.514	18.26	552224	PROB	18.26	n/a	n/a	-999	1	[5, 1, 9]	8	FR1	3	R1304N
568.774	0.009	570483	STOP	n/a	n/a	n/a	-999	1	[-999, -999, -999]	n/a	FR1	3	R1304N
568.783	0.543	570492	DISTRACT_END	n/a	n/a	n/a	-999	1	[0, 0, 0]	n/a	FR1	3	R1304N
569.326	1.591	571035	RETRIEVAL_ORIENT_START	n/a	n/a	n/a	-999	1	[0, 0, 0]	n/a	FR1	3	R1304N
570.917	0.0	572626	RETRIEVAL_ORIENT_END	n/a	n/a	n/a	-999	1	[0, 0, 0]	n/a	FR1	3	R1304N
570.917	16.003	572626	REC_START	n/a	n/a	n/a	-999	1	[0, 0, 0]	n/a	FR1	3	R1304N
586.92	2.832	588629	REC_WORD_VV	2.832	n/a	<>	-999	1	[0, 0, 0]	n/a	FR1	3	R1304N
589.752	11.178	591460	REC_WORD	11.178	n/a	ATTIC	-999	1	[0, 0, 0]	n/a	FR1	3	R1304N
600.93	0.0	602638	REC_END	n/a	n/a	n/a	-999	1	[0, 0, 0]	n/a	FR1	3	R1304N
600.93	0.014	602638	TRIAL_END	n/a	n/a	n/a	-999	1	[0, 0, 0]	n/a	FR1	3	R1304N
600.944	0.0	602652	TRIAL_START	n/a	n/a	n/a	-999	2	[0, 0, 0]	n/a	FR1	3	R1304N
600.944	0.001	602652	TRIAL	n/a	n/a	n/a	-999	2	[0, 0, 0]	n/a	FR1	3	R1304N
600.945	2.911	602653	WAITING_START	n/a	n/a	n/a	-999	2	[0, 0, 0]	n/a	FR1	3	R1304N
603.856	0.0	605564	WAITING_END	n/a	n/a	n/a	-999	2	[0, 0, 0]	n/a	FR1	3	R1304N
603.856	10.43	605564	COUNTDOWN_START	n/a	n/a	n/a	-999	2	[0, 0, 0]	n/a	FR1	3	R1304N
614.286	0.0	615993	COUNTDOWN_END	n/a	n/a	n/a	-999	2	[0, 0, 0]	n/a	FR1	3	R1304N
614.286	1.039	615993	ORIENT_START	n/a	n/a	n/a	-999	2	[0, 0, 0]	n/a	FR1	3	R1304N
615.325	0.0	617032	ORIENT_END	n/a	n/a	n/a	-999	2	[0, 0, 0]	n/a	FR1	3	R1304N
615.325	0.976	617032	ENCODING_START	n/a	n/a	n/a	-999	2	[0, 0, 0]	n/a	FR1	3	R1304N
616.301	1.624	618008	WORD	n/a	n/a	BOWL	1	2	[0, 0, 0]	n/a	FR1	3	R1304N
617.925	0.757	619632	WORD_OFF	n/a	n/a	BOWL	1	2	[0, 0, 0]	n/a	FR1	3	R1304N
618.682	1.627	620389	WORD	n/a	n/a	BADGE	2	2	[0, 0, 0]	n/a	FR1	3	R1304N
620.309	1.093	622016	WORD_OFF	n/a	n/a	BADGE	2	2	[0, 0, 0]	n/a	FR1	3	R1304N
621.402	1.624	623109	WORD	n/a	n/a	SPONGE	3	2	[0, 0, 0]	n/a	FR1	3	R1304N
623.026	0.976	624733	WORD_OFF	n/a	n/a	SPONGE	3	2	[0, 0, 0]	n/a	FR1	3	R1304N
624.002	1.624	625709	WORD	n/a	n/a	GATE	4	2	[0, 0, 0]	n/a	FR1	3	R1304N
625.626	0.902	627333	WORD_OFF	n/a	n/a	GATE	4	2	[0, 0, 0]	n/a	FR1	3	R1304N
626.528	1.631	628235	WORD	n/a	n/a	MOUSE	5	2	[0, 0, 0]	n/a	FR1	3	R1304N
628.159	0.912	629866	WORD_OFF	n/a	n/a	MOUSE	5	2	[0, 0, 0]	n/a	FR1	3	R1304N
629.071	1.606	630778	WORD	n/a	n/a	DUCK	6	2	[0, 0, 0]	n/a	FR1	3	R1304N
630.677	1.103	632384	WORD_OFF	n/a	n/a	DUCK	6	2	[0, 0, 0]	n/a	FR1	3	R1304N
631.78	1.631	633487	WORD	n/a	n/a	HORSE	7	2	[0, 0, 0]	n/a	FR1	3	R1304N
633.411	1.068	635117	WORD_OFF	n/a	n/a	HORSE	7	2	[0, 0, 0]	n/a	FR1	3	R1304N
634.479	1.631	636185	WORD	n/a	n/a	DOG	8	2	[0, 0, 0]	n/a	FR1	3	R1304N
636.11	1.145	637816	WORD_OFF	n/a	n/a	DOG	8	2	[0, 0, 0]	n/a	FR1	3	R1304N
637.255	1.623	638961	WORD	n/a	n/a	SMOKE	9	2	[0, 0, 0]	n/a	FR1	3	R1304N
638.878	1.07	640584	WORD_OFF	n/a	n/a	SMOKE	9	2	[0, 0, 0]	n/a	FR1	3	R1304N
639.948	1.631	641654	WORD	n/a	n/a	CLOCK	10	2	[0, 0, 0]	n/a	FR1	3	R1304N
641.579	0.929	643285	WORD_OFF	n/a	n/a	CLOCK	10	2	[0, 0, 0]	n/a	FR1	3	R1304N
642.508	1.62	644214	WORD	n/a	n/a	MOLE	11	2	[0, 0, 0]	n/a	FR1	3	R1304N
644.128	1.123	645834	WORD_OFF	n/a	n/a	MOLE	11	2	[0, 0, 0]	n/a	FR1	3	R1304N
645.251	1.629	646957	WORD	n/a	n/a	SHIRT	12	2	[0, 0, 0]	n/a	FR1	3	R1304N
646.88	0.0	648586	WORD_OFF	n/a	n/a	SHIRT	12	2	[0, 0, 0]	n/a	FR1	3	R1304N
646.88	0.0	648586	ENCODING_END	n/a	n/a	n/a	-999	2	[0, 0, 0]	n/a	FR1	3	R1304N
646.88	0.001	648586	DISTRACT_START	n/a	n/a	n/a	-999	2	[0, 0, 0]	n/a	FR1	3	R1304N
646.881	0.015	648587	START	n/a	n/a	n/a	-999	2	[-999, -999, -999]	n/a	FR1	3	R1304N
646.896	4.968	648602	PROB	4.968	n/a	n/a	-999	2	[5, 5, 8]	9	FR1	3	R1304N
651.864	18.622	653570	PROB	18.622	n/a	n/a	-999	2	[1, 2, 3]	5	FR1	3	R1304N
670.486	0.014	672191	STOP	n/a	n/a	n/a	-999	2	[-999, -999, -999]	n/a	FR1	3	R1304N
670.5	0.61	672205	DISTRACT_END	n/a	n/a	n/a	-999	2	[0, 0, 0]	n/a	FR1	3	R1304N
671.11	1.724	672815	RETRIEVAL_ORIENT_START	n/a	n/a	n/a	-999	2	[0, 0, 0]	n/a	FR1	3	R1304N
672.834	0.0	674539	RETRIEVAL_ORIENT_END	n/a	n/a	n/a	-999	2	[0, 0, 0]	n/a	FR1	3	R1304N
672.834	11.942	674539	REC_START	n/a	n/a	n/a	-999	2	[0, 0, 0]	n/a	FR1	3	R1304N
684.776	0.551	686480	REC_WORD_VV	0.551	n/a	<>	-999	2	[0, 0, 0]	n/a	FR1	3	R1304N
685.327	5.605	687031	REC_WORD	5.605	n/a	FLOOD	-999	2	[0, 0, 0]	n/a	FR1	3	R1304N
690.932	11.914	692636	REC_WORD	11.914	n/a	CLOTHES	-999	2	[0, 0, 0]	n/a	FR1	3	R1304N
702.846	0.0	704549	REC_END	n/a	n/a	n/a	-999	2	[0, 0, 0]	n/a	FR1	3	R1304N
702.846	0.016	704549	TRIAL_END	n/a	n/a	n/a	-999	2	[0, 0, 0]	n/a	FR1	3	R1304N
702.862	0.0	704565	TRIAL	n/a	n/a	n/a	-999	3	[0, 0, 0]	n/a	FR1	3	R1304N
702.862	0.0	704565	WAITING_START	n/a	n/a	n/a	-999	3	[0, 0, 0]	n/a	FR1	3	R1304N
702.862	23.564	704565	TRIAL_START	n/a	n/a	n/a	-999	3	[0, 0, 0]	n/a	FR1	3	R1304N
726.426	0.001	728128	WAITING_END	n/a	n/a	n/a	-999	3	[0, 0, 0]	n/a	FR1	3	R1304N
726.427	10.429	728129	COUNTDOWN_START	n/a	n/a	n/a	-999	3	[0, 0, 0]	n/a	FR1	3	R1304N
736.856	0.0	738558	COUNTDOWN_END	n/a	n/a	n/a	-999	3	[0, 0, 0]	n/a	FR1	3	R1304N
736.856	1.039	738558	ORIENT_START	n/a	n/a	n/a	-999	3	[0, 0, 0]	n/a	FR1	3	R1304N
737.895	0.0	739597	ORIENT_END	n/a	n/a	n/a	-999	3	[0, 0, 0]	n/a	FR1	3	R1304N
737.895	0.815	739597	ENCODING_START	n/a	n/a	n/a	-999	3	[0, 0, 0]	n/a	FR1	3	R1304N
738.71	1.635	740412	WORD	n/a	n/a	MAP	1	3	[0, 0, 0]	n/a	FR1	3	R1304N
740.345	0.792	742046	WORD_OFF	n/a	n/a	MAP	1	3	[0, 0, 0]	n/a	FR1	3	R1304N
741.137	1.608	742838	WORD	n/a	n/a	CONE	2	3	[0, 0, 0]	n/a	FR1	3	R1304N
742.745	1.083	744446	WORD_OFF	n/a	n/a	CONE	2	3	[0, 0, 0]	n/a	FR1	3	R1304N
743.828	1.635	745529	WORD	n/a	n/a	FLUTE	3	3	[0, 0, 0]	n/a	FR1	3	R1304N
745.463	1.002	747164	WORD_OFF	n/a	n/a	FLUTE	3	3	[0, 0, 0]	n/a	FR1	3	R1304N
746.465	1.63	748166	WORD	n/a	n/a	PLANE	4	3	[0, 0, 0]	n/a	FR1	3	R1304N
748.095	1.05	749796	WORD_OFF	n/a	n/a	PLANE	4	3	[0, 0, 0]	n/a	FR1	3	R1304N
749.145	1.635	750846	WORD	n/a	n/a	CHIN	5	3	[0, 0, 0]	n/a	FR1	3	R1304N
750.78	0.884	752481	WORD_OFF	n/a	n/a	CHIN	5	3	[0, 0, 0]	n/a	FR1	3	R1304N
751.664	1.633	753365	WORD	n/a	n/a	LAKE	6	3	[0, 0, 0]	n/a	FR1	3	R1304N
753.297	1.091	754998	WORD_OFF	n/a	n/a	LAKE	6	3	[0, 0, 0]	n/a	FR1	3	R1304N
754.388	1.626	756089	WORD	n/a	n/a	JET	7	3	[0, 0, 0]	n/a	FR1	3	R1304N
756.014	1.011	757715	WORD_OFF	n/a	n/a	JET	7	3	[0, 0, 0]	n/a	FR1	3	R1304N
757.025	1.623	758726	WORD	n/a	n/a	STICK	8	3	[0, 0, 0]	n/a	FR1	3	R1304N
758.648	0.929	760349	WORD_OFF	n/a	n/a	STICK	8	3	[0, 0, 0]	n/a	FR1	3	R1304N
759.577	1.621	761278	WORD	n/a	n/a	PLATE	9	3	[0, 0, 0]	n/a	FR1	3	R1304N
761.198	1.048	762898	WORD_OFF	n/a	n/a	PLATE	9	3	[0, 0, 0]	n/a	FR1	3	R1304N
762.246	1.636	763946	WORD	n/a	n/a	TOAST	10	3	[0, 0, 0]	n/a	FR1	3	R1304N
763.882	0.775	765582	WORD_OFF	n/a	n/a	TOAST	10	3	[0, 0, 0]	n/a	FR1	3	R1304N
764.657	1.626	766357	WORD	n/a	n/a	FORK	11	3	[0, 0, 0]	n/a	FR1	3	R1304N
766.283	0.81	767983	WORD_OFF	n/a	n/a	FORK	11	3	[0, 0, 0]	n/a	FR1	3	R1304N
767.093	1.606	768793	WORD	n/a	n/a	CLIFF	12	3	[0, 0, 0]	n/a	FR1	3	R1304N
768.699	0.001	770399	WORD_OFF	n/a	n/a	CLIFF	12	3	[0, 0, 0]	n/a	FR1	3	R1304N
768.7	0.0	770400	ENCODING_END	n/a	n/a	n/a	-999	3	[0, 0, 0]	n/a	FR1	3	R1304N
768.7	0.0	770400	DISTRACT_START	n/a	n/a	n/a	-999	3	[0, 0, 0]	n/a	FR1	3	R1304N
768.7	0.016	770400	START	n/a	n/a	n/a	-999	3	[-999, -999, -999]	n/a	FR1	3	R1304N
768.716	35.843	770416	PROB	35.843	n/a	n/a	-999	3	[9, 4, 2]	6	FR1	3	R1304N
804.559	0.013	806257	STOP	n/a	n/a	n/a	-999	3	[-999, -999, -999]	n/a	FR1	3	R1304N
804.572	0.616	806270	DISTRACT_END	n/a	n/a	n/a	-999	3	[0, 0, 0]	n/a	FR1	3	R1304N
805.188	1.601	806886	RETRIEVAL_ORIENT_START	n/a	n/a	n/a	-999	3	[0, 0, 0]	n/a	FR1	3	R1304N
806.789	0.001	808487	RETRIEVAL_ORIENT_END	n/a	n/a	n/a	-999	3	[0, 0, 0]	n/a	FR1	3	R1304N
806.79	3.842	808488	REC_START	n/a	n/a	n/a	-999	3	[0, 0, 0]	n/a	FR1	3	R1304N
810.632	3.999	812330	REC_WORD	3.999	n/a	COMB	-999	3	[0, 0, 0]	n/a	FR1	3	R1304N
814.631	1.732	816329	REC_WORD	1.732	n/a	COMB	-999	3	[0, 0, 0]	n/a	FR1	3	R1304N
816.363	20.436	818061	REC_WORD	20.436	n/a	FLOOD	-999	3	[0, 0, 0]	n/a	FR1	3	R1304N
836.799	0.0	838496	REC_END	n/a	n/a	n/a	-999	3	[0, 0, 0]	n/a	FR1	3	R1304N
836.799	0.014	838496	TRIAL_END	n/a	n/a	n/a	-999	3	[0, 0, 0]	n/a	FR1	3	R1304N
836.813	0.0	838510	TRIAL	n/a	n/a	n/a	-999	4	[0, 0, 0]	n/a	FR1	3	R1304N
836.813	0.001	838510	TRIAL_START	n/a	n/a	n/a	-999	4	[0, 0, 0]	n/a	FR1	3	R1304N
836.814	13.099	838511	WAITING_START	n/a	n/a	n/a	-999	4	[0, 0, 0]	n/a	FR1	3	R1304N
849.913	0.001	851609	WAITING_END	n/a	n/a	n/a	-999	4	[0, 0, 0]	n/a	FR1	3	R1304N
849.914	10.429	851610	COUNTDOWN_START	n/a	n/a	n/a	-999	4	[0, 0, 0]	n/a	FR1	3	R1304N
860.343	0.0	862039	COUNTDOWN_END	n/a	n/a	n/a	-999	4	[0, 0, 0]	n/a	FR1	3	R1304N
860.343	1.239	862039	ORIENT_START	n/a	n/a	n/a	-999	4	[0, 0, 0]	n/a	FR1	3	R1304N
861.582	0.0	863278	ORIENT_END	n/a	n/a	n/a	-999	4	[0, 0, 0]	n/a	FR1	3	R1304N
861.582	0.858	863278	ENCODING_START	n/a	n/a	n/a	-999	4	[0, 0, 0]	n/a	FR1	3	R1304N
862.44	1.624	864136	WORD	n/a	n/a	SIGN	1	4	[0, 0, 0]	n/a	FR1	3	R1304N
864.064	0.89	865760	WORD_OFF	n/a	n/a	SIGN	1	4	[0, 0, 0]	n/a	FR1	3	R1304N
864.954	1.629	866650	WORD	n/a	n/a	LAWN	2	4	[0, 0, 0]	n/a	FR1	3	R1304N
866.583	0.822	868279	WORD_OFF	n/a	n/a	LAWN	2	4	[0, 0, 0]	n/a	FR1	3	R1304N
867.405	1.628	869100	WORD	n/a	n/a	HAND	3	4	[0, 0, 0]	n/a	FR1	3	R1304N
869.033	0.984	870728	WORD_OFF	n/a	n/a	HAND	3	4	[0, 0, 0]	n/a	FR1	3	R1304N
870.017	1.633	871712	WORD	n/a	n/a	SEAL	4	4	[0, 0, 0]	n/a	FR1	3	R1304N
871.65	1.027	873345	WORD_OFF	n/a	n/a	SEAL	4	4	[0, 0, 0]	n/a	FR1	3	R1304N
872.677	1.624	874372	WORD	n/a	n/a	SPARK	5	4	[0, 0, 0]	n/a	FR1	3	R1304N
874.301	0.781	875996	WORD_OFF	n/a	n/a	SPARK	5	4	[0, 0, 0]	n/a	FR1	3	R1304N
875.082	1.619	876777	WORD	n/a	n/a	TOE	6	4	[0, 0, 0]	n/a	FR1	3	R1304N
876.701	0.771	878396	WORD_OFF	n/a	n/a	TOE	6	4	[0, 0, 0]	n/a	FR1	3	R1304N
877.472	1.628	879167	WORD	n/a	n/a	HEART	7	4	[0, 0, 0]	n/a	FR1	3	R1304N
879.1	0.893	880795	WORD_OFF	n/a	n/a	HEART	7	4	[0, 0, 0]	n/a	FR1	3	R1304N
879.993	1.625	881688	WORD	n/a	n/a	BRICK	8	4	[0, 0, 0]	n/a	FR1	3	R1304N
881.618	0.946	883313	WORD_OFF	n/a	n/a	BRICK	8	4	[0, 0, 0]	n/a	FR1	3	R1304N
882.564	1.621	884259	WORD	n/a	n/a	DART	9	4	[0, 0, 0]	n/a	FR1	3	R1304N
884.185	0.821	885880	WORD_OFF	n/a	n/a	DART	9	4	[0, 0, 0]	n/a	FR1	3	R1304N
885.006	1.63	886701	WORD	n/a	n/a	COIN	10	4	[0, 0, 0]	n/a	FR1	3	R1304N
886.636	0.812	888331	WORD_OFF	n/a	n/a	COIN	10	4	[0, 0, 0]	n/a	FR1	3	R1304N
887.448	1.621	889143	WORD	n/a	n/a	BATH	11	4	[0, 0, 0]	n/a	FR1	3	R1304N
889.069	0.987	890763	WORD_OFF	n/a	n/a	BATH	11	4	[0, 0, 0]	n/a	FR1	3	R1304N
890.056	1.631	891750	WORD	n/a	n/a	DIME	12	4	[0, 0, 0]	n/a	FR1	3	R1304N
891.687	0.0	893381	ENCODING_END	n/a	n/a	n/a	-999	4	[0, 0, 0]	n/a	FR1	3	R1304N
891.687	0.0	893381	DISTRACT_START	n/a	n/a	n/a	-999	4	[0, 0, 0]	n/a	FR1	3	R1304N
891.687	0.0	893381	WORD_OFF	n/a	n/a	DIME	12	4	[0, 0, 0]	n/a	FR1	3	R1304N
891.687	0.016	893381	START	n/a	n/a	n/a	-999	4	[-999, -999, -999]	n/a	FR1	3	R1304N
891.703	8.301	893397	PROB	8.301	n/a	n/a	-999	4	[5, 2, 1]	3	FR1	3	R1304N
900.004	16.602	901698	PROB	16.602	n/a	n/a	-999	4	[4, 6, 4]	6	FR1	3	R1304N
916.606	0.018	918299	STOP	n/a	n/a	n/a	-999	4	[-999, -999, -999]	n/a	FR1	3	R1304N
916.624	0.505	918317	DISTRACT_END	n/a	n/a	n/a	-999	4	[0, 0, 0]	n/a	FR1	3	R1304N
917.129	1.629	918822	RETRIEVAL_ORIENT_START	n/a	n/a	n/a	-999	4	[0, 0, 0]	n/a	FR1	3	R1304N
918.758	0.0	920451	RETRIEVAL_ORIENT_END	n/a	n/a	n/a	-999	4	[0, 0, 0]	n/a	FR1	3	R1304N
918.758	21.388	920451	REC_START	n/a	n/a	n/a	-999	4	[0, 0, 0]	n/a	FR1	3	R1304N
940.146	8.623	941838	REC_WORD	8.623	n/a	SHOE	-999	4	[0, 0, 0]	n/a	FR1	3	R1304N
948.769	0.0	950461	REC_END	n/a	n/a	n/a	-999	4	[0, 0, 0]	n/a	FR1	3	R1304N
948.769	0.015	950461	TRIAL_END	n/a	n/a	n/a	-999	4	[0, 0, 0]	n/a	FR1	3	R1304N
948.784	0.0	950476	WAITING_START	n/a	n/a	n/a	-999	5	[0, 0, 0]	n/a	FR1	3	R1304N
948.784	0.0	950476	TRIAL	n/a	n/a	n/a	-999	5	[0, 0, 0]	n/a	FR1	3	R1304N
948.784	10.514	950476	TRIAL_START	n/a	n/a	n/a	-999	5	[0, 0, 0]	n/a	FR1	3	R1304N
959.298	0.0	960989	WAITING_END	n/a	n/a	n/a	-999	5	[0, 0, 0]	n/a	FR1	3	R1304N
959.298	10.43	960989	COUNTDOWN_START	n/a	n/a	n/a	-999	5	[0, 0, 0]	n/a	FR1	3	R1304N
969.728	0.001	971419	COUNTDOWN_END	n/a	n/a	n/a	-999	5	[0, 0, 0]	n/a	FR1	3	R1304N
969.729	1.137	971420	ORIENT_START	n/a	n/a	n/a	-999	5	[0, 0, 0]	n/a	FR1	3	R1304N
970.866	0.001	972557	ORIENT_END	n/a	n/a	n/a	-999	5	[0, 0, 0]	n/a	FR1	3	R1304N
970.867	1.112	972558	ENCODING_START	n/a	n/a	n/a	-999	5	[0, 0, 0]	n/a	FR1	3	R1304N
971.979	1.638	973670	WORD	n/a	n/a	DOOR	1	5	[0, 0, 0]	n/a	FR1	3	R1304N
973.617	0.813	975308	WORD_OFF	n/a	n/a	DOOR	1	5	[0, 0, 0]	n/a	FR1	3	R1304N
974.43	1.621	976120	WORD	n/a	n/a	LIP	2	5	[0, 0, 0]	n/a	FR1	3	R1304N
976.051	0.878	977741	WORD_OFF	n/a	n/a	LIP	2	5	[0, 0, 0]	n/a	FR1	3	R1304N
976.929	1.622	978619	WORD	n/a	n/a	LAND	3	5	[0, 0, 0]	n/a	FR1	3	R1304N
978.551	1.06	980241	WORD_OFF	n/a	n/a	LAND	3	5	[0, 0, 0]	n/a	FR1	3	R1304N
979.611	1.624	981301	WORD	n/a	n/a	BOMB	4	5	[0, 0, 0]	n/a	FR1	3	R1304N
981.235	0.996	982925	WORD_OFF	n/a	n/a	BOMB	4	5	[0, 0, 0]	n/a	FR1	3	R1304N
982.231	1.638	983921	WORD	n/a	n/a	SHEET	5	5	[0, 0, 0]	n/a	FR1	3	R1304N
983.869	0.959	985559	WORD_OFF	n/a	n/a	SHEET	5	5	[0, 0, 0]	n/a	FR1	3	R1304N
984.828	1.624	986518	WORD	n/a	n/a	SKUNK	6	5	[0, 0, 0]	n/a	FR1	3	R1304N
986.452	0.833	988142	WORD_OFF	n/a	n/a	SKUNK	6	5	[0, 0, 0]	n/a	FR1	3	R1304N
987.285	1.634	988975	WORD	n/a	n/a	WEB	7	5	[0, 0, 0]	n/a	FR1	3	R1304N
988.919	0.898	990609	WORD_OFF	n/a	n/a	WEB	7	5	[0, 0, 0]	n/a	FR1	3	R1304N
989.817	1.636	991507	WORD	n/a	n/a	STAIR	8	5	[0, 0, 0]	n/a	FR1	3	R1304N
991.453	1.068	993143	WORD_OFF	n/a	n/a	STAIR	8	5	[0, 0, 0]	n/a	FR1	3	R1304N
992.521	1.632	994211	WORD	n/a	n/a	FACE	9	5	[0, 0, 0]	n/a	FR1	3	R1304N
994.153	0.978	995843	WORD_OFF	n/a	n/a	FACE	9	5	[0, 0, 0]	n/a	FR1	3	R1304N
995.131	1.606	996821	WORD	n/a	n/a	RAKE	10	5	[0, 0, 0]	n/a	FR1	3	R1304N
996.737	0.802	998426	WORD_OFF	n/a	n/a	RAKE	10	5	[0, 0, 0]	n/a	FR1	3	R1304N
997.539	1.632	999228	WORD	n/a	n/a	HOLE	11	5	[0, 0, 0]	n/a	FR1	3	R1304N
999.171	0.797	1000860	WORD_OFF	n/a	n/a	HOLE	11	5	[0, 0, 0]	n/a	FR1	3	R1304N
999.968	1.637	1001657	WORD	n/a	n/a	GRAPE	12	5	[0, 0, 0]	n/a	FR1	3	R1304N
1001.605	0.0	1003294	ENCODING_END	n/a	n/a	n/a	-999	5	[0, 0, 0]	n/a	FR1	3	R1304N
1001.605	0.001	1003294	WORD_OFF	n/a	n/a	GRAPE	12	5	[0, 0, 0]	n/a	FR1	3	R1304N
1001.606	0.0	1003295	DISTRACT_START	n/a	n/a	n/a	-999	5	[0, 0, 0]	n/a	FR1	3	R1304N
1001.606	0.015	1003295	START	n/a	n/a	n/a	-999	5	[-999, -999, -999]	n/a	FR1	3	R1304N
1001.621	26.842	1003310	PROB	26.842	n/a	n/a	-999	5	[8, 5, 4]	9	FR1	3	R1304N
1028.463	0.013	1030151	STOP	n/a	n/a	n/a	-999	5	[-999, -999, -999]	n/a	FR1	3	R1304N
1028.476	0.517	1030164	DISTRACT_END	n/a	n/a	n/a	-999	5	[0, 0, 0]	n/a	FR1	3	R1304N
1028.993	1.633	1030681	RETRIEVAL_ORIENT_START	n/a	n/a	n/a	-999	5	[0, 0, 0]	n/a	FR1	3	R1304N
1030.626	0.001	1032314	RETRIEVAL_ORIENT_END	n/a	n/a	n/a	-999	5	[0, 0, 0]	n/a	FR1	3	R1304N
1030.627	22.954	1032315	REC_START	n/a	n/a	n/a	-999	5	[0, 0, 0]	n/a	FR1	3	R1304N
1053.581	2.838	1055268	REC_WORD	2.838	n/a	STAIR	8	5	[0, 0, 0]	n/a	FR1	3	R1304N
1056.419	4.218	1058106	REC_WORD	4.218	n/a	CHALK	-999	5	[0, 0, 0]	n/a	FR1	3	R1304N
1060.637	0.0	1062323	REC_END	n/a	n/a	n/a	-999	5	[0, 0, 0]	n/a	FR1	3	R1304N
1060.637	0.015	1062323	TRIAL_END	n/a	n/a	n/a	-999	5	[0, 0, 0]	n/a	FR1	3	R1304N
1060.652	0.0	1062338	TRIAL	n/a	n/a	n/a	-999	6	[0, 0, 0]	n/a	FR1	3	R1304N
1060.652	0.0	1062338	WAITING_START	n/a	n/a	n/a	-999	6	[0, 0, 0]	n/a	FR1	3	R1304N
1060.652	5.53	1062338	TRIAL_START	n/a	n/a	n/a	-999	6	[0, 0, 0]	n/a	FR1	3	R1304N
1066.182	0.001	1067868	WAITING_END	n/a	n/a	n/a	-999	6	[0, 0, 0]	n/a	FR1	3	R1304N
1066.183	10.428	1067869	COUNTDOWN_START	n/a	n/a	n/a	-999	6	[0, 0, 0]	n/a	FR1	3	R1304N
1076.611	0.0	1078297	COUNTDOWN_END	n/a	n/a	n/a	-999	6	[0, 0, 0]	n/a	FR1	3	R1304N
1076.611	1.173	1078297	ORIENT_START	n/a	n/a	n/a	-999	6	[0, 0, 0]	n/a	FR1	3	R1304N
1077.784	0.001	1079470	ORIENT_END	n/a	n/a	n/a	-999	6	[0, 0, 0]	n/a	FR1	3	R1304N
1077.785	0.812	1079471	ENCODING_START	n/a	n/a	n/a	-999	6	[0, 0, 0]	n/a	FR1	3	R1304N
1078.597	1.637	1080283	WORD	n/a	n/a	PEAR	1	6	[0, 0, 0]	n/a	FR1	3	R1304N
1080.234	1.003	1081920	WORD_OFF	n/a	n/a	PEAR	1	6	[0, 0, 0]	n/a	FR1	3	R1304N
1081.237	1.631	1082922	WORD	n/a	n/a	MOOSE	2	6	[0, 0, 0]	n/a	FR1	3	R1304N
1082.868	0.752	1084553	WORD_OFF	n/a	n/a	MOOSE	2	6	[0, 0, 0]	n/a	FR1	3	R1304N
1083.62	1.632	1085305	WORD	n/a	n/a	CUBE	3	6	[0, 0, 0]	n/a	FR1	3	R1304N
1085.252	0.89	1086937	WORD_OFF	n/a	n/a	CUBE	3	6	[0, 0, 0]	n/a	FR1	3	R1304N
1086.142	1.627	1087827	WORD	n/a	n/a	TOY	4	6	[0, 0, 0]	n/a	FR1	3	R1304N
1087.769	0.966	1089454	WORD_OFF	n/a	n/a	TOY	4	6	[0, 0, 0]	n/a	FR1	3	R1304N
1088.735	1.635	1090420	WORD	n/a	n/a	SPRING	5	6	[0, 0, 0]	n/a	FR1	3	R1304N
1090.37	0.76	1092055	WORD_OFF	n/a	n/a	SPRING	5	6	[0, 0, 0]	n/a	FR1	3	R1304N
1091.13	1.606	1092815	WORD	n/a	n/a	BAG	6	6	[0, 0, 0]	n/a	FR1	3	R1304N
1092.736	1.118	1094421	WORD_OFF	n/a	n/a	BAG	6	6	[0, 0, 0]	n/a	FR1	3	R1304N
1093.854	1.633	1095539	WORD	n/a	n/a	WOOD	7	6	[0, 0, 0]	n/a	FR1	3	R1304N
1095.487	0.957	1097172	WORD_OFF	n/a	n/a	WOOD	7	6	[0, 0, 0]	n/a	FR1	3	R1304N
1096.444	1.626	1098129	WORD	n/a	n/a	ROAD	8	6	[0, 0, 0]	n/a	FR1	3	R1304N
1098.07	0.922	1099755	WORD_OFF	n/a	n/a	ROAD	8	6	[0, 0, 0]	n/a	FR1	3	R1304N
1098.992	1.629	1100677	WORD	n/a	n/a	TEA	9	6	[0, 0, 0]	n/a	FR1	3	R1304N
1100.621	0.967	1102306	WORD_OFF	n/a	n/a	TEA	9	6	[0, 0, 0]	n/a	FR1	3	R1304N
1101.588	1.634	1103273	WORD	n/a	n/a	FAN	10	6	[0, 0, 0]	n/a	FR1	3	R1304N
1103.222	1.052	1104906	WORD_OFF	n/a	n/a	FAN	10	6	[0, 0, 0]	n/a	FR1	3	R1304N
1104.274	1.631	1105958	WORD	n/a	n/a	SKI	11	6	[0, 0, 0]	n/a	FR1	3	R1304N
1105.905	0.875	1107589	WORD_OFF	n/a	n/a	SKI	11	6	[0, 0, 0]	n/a	FR1	3	R1304N
1106.78	1.626	1108464	WORD	n/a	n/a	SOUP	12	6	[0, 0, 0]	n/a	FR1	3	R1304N
1108.406	0.0	1110090	WORD_OFF	n/a	n/a	SOUP	12	6	[0, 0, 0]	n/a	FR1	3	R1304N
1108.406	0.001	1110090	ENCODING_END	n/a	n/a	n/a	-999	6	[0, 0, 0]	n/a	FR1	3	R1304N
1108.407	0.0	1110091	DISTRACT_START	n/a	n/a	n/a	-999	6	[0, 0, 0]	n/a	FR1	3	R1304N
1108.407	0.015	1110091	START	n/a	n/a	n/a	-999	6	[-999, -999, -999]	n/a	FR1	3	R1304N
1108.422	17.536	1110106	PROB	17.536	n/a	n/a	-999	6	[1, 5, 3]	8	FR1	3	R1304N
1125.958	15.041	1127641	PROB	15.041	n/a	n/a	-999	6	[7, 3, 7]	8	FR1	3	R1304N
1140.999	0.012	1142682	STOP	n/a	n/a	n/a	-999	6	[-999, -999, -999]	n/a	FR1	3	R1304N
1141.011	0.641	1142694	DISTRACT_END	n/a	n/a	n/a	-999	6	[0, 0, 0]	n/a	FR1	3	R1304N
1141.652	1.626	1143335	RETRIEVAL_ORIENT_START	n/a	n/a	n/a	-999	6	[0, 0, 0]	n/a	FR1	3	R1304N
1143.278	0.001	1144961	RETRIEVAL_ORIENT_END	n/a	n/a	n/a	-999	6	[0, 0, 0]	n/a	FR1	3	R1304N
1143.279	6.375	1144962	REC_START	n/a	n/a	n/a	-999	6	[0, 0, 0]	n/a	FR1	3	R1304N
1149.654	6.882	1151336	REC_WORD	6.882	n/a	WOOD	7	6	[0, 0, 0]	n/a	FR1	3	R1304N
1156.536	16.754	1158218	REC_WORD_VV	16.754	n/a	<>	-999	6	[0, 0, 0]	n/a	FR1	3	R1304N
1173.29	0.0	1174971	REC_END	n/a	n/a	n/a	-999	6	[0, 0, 0]	n/a	FR1	3	R1304N
1173.29	0.014	1174971	TRIAL_END	n/a	n/a	n/a	-999	6	[0, 0, 0]	n/a	FR1	3	R1304N
1173.304	0.0	1174985	TRIAL_START	n/a	n/a	n/a	-999	7	[0, 0, 0]	n/a	FR1	3	R1304N
1173.304	0.0	1174985	TRIAL	n/a	n/a	n/a	-999	7	[0, 0, 0]	n/a	FR1	3	R1304N
1173.304	5.213	1174985	WAITING_START	n/a	n/a	n/a	-999	7	[0, 0, 0]	n/a	FR1	3	R1304N
1178.517	0.001	1180198	WAITING_END	n/a	n/a	n/a	-999	7	[0, 0, 0]	n/a	FR1	3	R1304N
1178.518	10.428	1180199	COUNTDOWN_START	n/a	n/a	n/a	-999	7	[0, 0, 0]	n/a	FR1	3	R1304N
1188.946	0.001	1190626	COUNTDOWN_END	n/a	n/a	n/a	-999	7	[0, 0, 0]	n/a	FR1	3	R1304N
1188.947	1.105	1190627	ORIENT_START	n/a	n/a	n/a	-999	7	[0, 0, 0]	n/a	FR1	3	R1304N
1190.052	0.001	1191732	ORIENT_END	n/a	n/a	n/a	-999	7	[0, 0, 0]	n/a	FR1	3	R1304N
1190.053	1.082	1191733	ENCODING_START	n/a	n/a	n/a	-999	7	[0, 0, 0]	n/a	FR1	3	R1304N
1191.135	1.635	1192815	WORD	n/a	n/a	KITE	1	7	[0, 0, 0]	n/a	FR1	3	R1304N
1192.77	1.068	1194450	WORD_OFF	n/a	n/a	KITE	1	7	[0, 0, 0]	n/a	FR1	3	R1304N
1193.838	1.632	1195518	WORD	n/a	n/a	NAIL	2	7	[0, 0, 0]	n/a	FR1	3	R1304N
1195.47	1.103	1197150	WORD_OFF	n/a	n/a	NAIL	2	7	[0, 0, 0]	n/a	FR1	3	R1304N
1196.573	1.631	1198253	WORD	n/a	n/a	VASE	3	7	[0, 0, 0]	n/a	FR1	3	R1304N
1198.204	0.916	1199884	WORD_OFF	n/a	n/a	VASE	3	7	[0, 0, 0]	n/a	FR1	3	R1304N
1199.12	1.618	1200800	WORD	n/a	n/a	CRANE	4	7	[0, 0, 0]	n/a	FR1	3	R1304N
1200.738	1.07	1202418	WORD_OFF	n/a	n/a	CRANE	4	7	[0, 0, 0]	n/a	FR1	3	R1304N
1201.808	1.63	1203488	WORD	n/a	n/a	FUR	5	7	[0, 0, 0]	n/a	FR1	3	R1304N
1203.438	0.927	1205118	WORD_OFF	n/a	n/a	FUR	5	7	[0, 0, 0]	n/a	FR1	3	R1304N
1204.365	1.624	1206045	WORD	n/a	n/a	ARK	6	7	[0, 0, 0]	n/a	FR1	3	R1304N
1205.989	0.861	1207669	WORD_OFF	n/a	n/a	ARK	6	7	[0, 0, 0]	n/a	FR1	3	R1304N
1206.85	1.622	1208530	WORD	n/a	n/a	BOOT	7	7	[0, 0, 0]	n/a	FR1	3	R1304N
1208.472	0.947	1210152	WORD_OFF	n/a	n/a	BOOT	7	7	[0, 0, 0]	n/a	FR1	3	R1304N
1209.419	1.636	1211098	WORD	n/a	n/a	MOON	8	7	[0, 0, 0]	n/a	FR1	3	R1304N
1211.055	0.855	1212734	WORD_OFF	n/a	n/a	MOON	8	7	[0, 0, 0]	n/a	FR1	3	R1304N
1211.91	1.63	1213589	WORD	n/a	n/a	CART	9	7	[0, 0, 0]	n/a	FR1	3	R1304N
1213.54	0.873	1215219	WORD_OFF	n/a	n/a	CART	9	7	[0, 0, 0]	n/a	FR1	3	R1304N
1214.413	1.627	1216092	WORD	n/a	n/a	MAT	10	7	[0, 0, 0]	n/a	FR1	3	R1304N
1216.04	1.026	1217719	WORD_OFF	n/a	n/a	MAT	10	7	[0, 0, 0]	n/a	FR1	3	R1304N
1217.066	1.608	1218745	WORD	n/a	n/a	SOAP	11	7	[0, 0, 0]	n/a	FR1	3	R1304N
1218.674	1.034	1220353	WORD_OFF	n/a	n/a	SOAP	11	7	[0, 0, 0]	n/a	FR1	3	R1304N
1219.708	1.633	1221387	WORD	n/a	n/a	APE	12	7	[0, 0, 0]	n/a	FR1	3	R1304N
1221.341	0.001	1223020	WORD_OFF	n/a	n/a	APE	12	7	[0, 0, 0]	n/a	FR1	3	R1304N
1221.342	0.0	1223021	ENCODING_END	n/a	n/a	n/a	-999	7	[0, 0, 0]	n/a	FR1	3	R1304N
1221.342	0.0	1223021	DISTRACT_START	n/a	n/a	n/a	-999	7	[0, 0, 0]	n/a	FR1	3	R1304N
1221.342	0.015	1223021	START	n/a	n/a	n/a	-999	7	[-999, -999, -999]	n/a	FR1	3	R1304N
1221.357	6.635	1223036	PROB	6.635	n/a	n/a	-999	7	[8, 9, 5]	8	FR1	3	R1304N
1227.992	2.083	1229671	PROB	2.083	n/a	n/a	-999	7	[9, 6, 8]	5	FR1	3	R1304N
1230.075	2.651	1231754	PROB	2.651	n/a	n/a	-999	7	[1, 2, 2]	4	FR1	3	R1304N
1232.726	17.721	1234404	PROB	17.721	n/a	n/a	-999	7	[8, 5, 9]	7	FR1	3	R1304N
1250.447	0.015	1252125	STOP	n/a	n/a	n/a	-999	7	[-999, -999, -999]	n/a	FR1	3	R1304N
1250.462	0.675	1252140	DISTRACT_END	n/a	n/a	n/a	-999	7	[0, 0, 0]	n/a	FR1	3	R1304N
1251.137	1.593	1252815	RETRIEVAL_ORIENT_START	n/a	n/a	n/a	-999	7	[0, 0, 0]	n/a	FR1	3	R1304N
1252.73	0.0	1254407	RETRIEVAL_ORIENT_END	n/a	n/a	n/a	-999	7	[0, 0, 0]	n/a	FR1	3	R1304N
1252.73	24.178	1254407	REC_START	n/a	n/a	n/a	-999	7	[0, 0, 0]	n/a	FR1	3	R1304N
1276.908	5.831	1278584	REC_WORD	5.831	n/a	STAR	-999	7	[0, 0, 0]	n/a	FR1	3	R1304N
1282.739	0.0	1284415	REC_END	n/a	n/a	n/a	-999	7	[0, 0, 0]	n/a	FR1	3	R1304N
1282.739	0.016	1284415	TRIAL_END	n/a	n/a	n/a	-999	7	[0, 0, 0]	n/a	FR1	3	R1304N
1282.755	0.0	1284431	TRIAL_START	n/a	n/a	n/a	-999	8	[0, 0, 0]	n/a	FR1	3	R1304N
1282.755	0.0	1284431	TRIAL	n/a	n/a	n/a	-999	8	[0, 0, 0]	n/a	FR1	3	R1304N
1282.755	2.312	1284431	WAITING_START	n/a	n/a	n/a	-999	8	[0, 0, 0]	n/a	FR1	3	R1304N
1285.067	0.001	1286743	WAITING_END	n/a	n/a	n/a	-999	8	[0, 0, 0]	n/a	FR1	3	R1304N
1285.068	10.428	1286744	COUNTDOWN_START	n/a	n/a	n/a	-999	8	[0, 0, 0]	n/a	FR1	3	R1304N
1295.496	0.0	1297171	COUNTDOWN_END	n/a	n/a	n/a	-999	8	[0, 0, 0]	n/a	FR1	3	R1304N
1295.496	1.208	1297171	ORIENT_START	n/a	n/a	n/a	-999	8	[0, 0, 0]	n/a	FR1	3	R1304N
1296.704	0.0	1298379	ORIENT_END	n/a	n/a	n/a	-999	8	[0, 0, 0]	n/a	FR1	3	R1304N
1296.704	1.129	1298379	ENCODING_START	n/a	n/a	n/a	-999	8	[0, 0, 0]	n/a	FR1	3	R1304N
1297.833	1.638	1299508	WORD	n/a	n/a	PEACH	1	8	[0, 0, 0]	n/a	FR1	3	R1304N
1299.471	0.88	1301146	WORD_OFF	n/a	n/a	PEACH	1	8	[0, 0, 0]	n/a	FR1	3	R1304N
1300.351	1.637	1302026	WORD	n/a	n/a	COW	2	8	[0, 0, 0]	n/a	FR1	3	R1304N
1301.988	1.051	1303663	WORD_OFF	n/a	n/a	COW	2	8	[0, 0, 0]	n/a	FR1	3	R1304N
1303.039	1.633	1304714	WORD	n/a	n/a	WOLF	3	8	[0, 0, 0]	n/a	FR1	3	R1304N
1304.672	0.92	1306347	WORD_OFF	n/a	n/a	WOLF	3	8	[0, 0, 0]	n/a	FR1	3	R1304N
1305.592	1.63	1307267	WORD	n/a	n/a	SPOON	4	8	[0, 0, 0]	n/a	FR1	3	R1304N
1307.222	1.149	1308897	WORD_OFF	n/a	n/a	SPOON	4	8	[0, 0, 0]	n/a	FR1	3	R1304N
1308.371	1.635	1310046	WORD	n/a	n/a	TENT	5	8	[0, 0, 0]	n/a	FR1	3	R1304N
1310.006	0.767	1311681	WORD_OFF	n/a	n/a	TENT	5	8	[0, 0, 0]	n/a	FR1	3	R1304N
1310.773	1.633	1312448	WORD	n/a	n/a	STAR	6	8	[0, 0, 0]	n/a	FR1	3	R1304N
1312.406	0.871	1314081	WORD_OFF	n/a	n/a	STAR	6	8	[0, 0, 0]	n/a	FR1	3	R1304N
1313.277	1.629	1314952	WORD	n/a	n/a	CORD	7	8	[0, 0, 0]	n/a	FR1	3	R1304N
1314.906	1.022	1316581	WORD_OFF	n/a	n/a	CORD	7	8	[0, 0, 0]	n/a	FR1	3	R1304N
1315.928	1.629	1317603	WORD	n/a	n/a	ROOF	8	8	[0, 0, 0]	n/a	FR1	3	R1304N
1317.557	0.876	1319231	WORD_OFF	n/a	n/a	ROOF	8	8	[0, 0, 0]	n/a	FR1	3	R1304N
1318.433	1.623	1320107	WORD	n/a	n/a	SHRIMP	9	8	[0, 0, 0]	n/a	FR1	3	R1304N
1320.056	1.119	1321730	WORD_OFF	n/a	n/a	SHRIMP	9	8	[0, 0, 0]	n/a	FR1	3	R1304N
1321.175	1.633	1322849	WORD	n/a	n/a	VAN	10	8	[0, 0, 0]	n/a	FR1	3	R1304N
1322.808	1.051	1324482	WORD_OFF	n/a	n/a	VAN	10	8	[0, 0, 0]	n/a	FR1	3	R1304N
1323.859	1.633	1325533	WORD	n/a	n/a	DRUM	11	8	[0, 0, 0]	n/a	FR1	3	R1304N
1325.492	1.125	1327166	WORD_OFF	n/a	n/a	DRUM	11	8	[0, 0, 0]	n/a	FR1	3	R1304N
1326.617	1.625	1328291	WORD	n/a	n/a	DOCK	12	8	[0, 0, 0]	n/a	FR1	3	R1304N
1328.242	0.001	1329916	WORD_OFF	n/a	n/a	DOCK	12	8	[0, 0, 0]	n/a	FR1	3	R1304N
1328.243	0.0	1329917	ENCODING_END	n/a	n/a	n/a	-999	8	[0, 0, 0]	n/a	FR1	3	R1304N
1328.243	0.0	1329917	DISTRACT_START	n/a	n/a	n/a	-999	8	[0, 0, 0]	n/a	FR1	3	R1304N
1328.243	0.016	1329917	START	n/a	n/a	n/a	-999	8	[-999, -999, -999]	n/a	FR1	3	R1304N
1328.259	5.45	1329933	PROB	5.45	n/a	n/a	-999	8	[9, 4, 4]	5	FR1	3	R1304N
1333.709	20.401	1335383	PROB	20.401	n/a	n/a	-999	8	[5, 3, 9]	7	FR1	3	R1304N
1354.11	0.019	1355783	STOP	n/a	n/a	n/a	-999	8	[-999, -999, -999]	n/a	FR1	3	R1304N
1354.129	0.508	1355802	DISTRACT_END	n/a	n/a	n/a	-999	8	[0, 0, 0]	n/a	FR1	3	R1304N
1354.637	1.576	1356310	RETRIEVAL_ORIENT_START	n/a	n/a	n/a	-999	8	[0, 0, 0]	n/a	FR1	3	R1304N
1356.213	0.001	1357886	RETRIEVAL_ORIENT_END	n/a	n/a	n/a	-999	8	[0, 0, 0]	n/a	FR1	3	R1304N
1356.214	29.944	1357887	REC_START	n/a	n/a	n/a	-999	8	[0, 0, 0]	n/a	FR1	3	R1304N
1386.158	0.066	1387829	REC_WORD_VV	0.066	n/a	<>	-999	8	[0, 0, 0]	n/a	FR1	3	R1304N
1386.224	0.001	1387895	REC_END	n/a	n/a	n/a	-999	8	[0, 0, 0]	n/a	FR1	3	R1304N
1386.225	0.017	1387896	TRIAL_END	n/a	n/a	n/a	-999	8	[0, 0, 0]	n/a	FR1	3	R1304N
1386.242	0.0	1387913	TRIAL_START	n/a	n/a	n/a	-999	9	[0, 0, 0]	n/a	FR1	3	R1304N
1386.242	0.0	1387913	TRIAL	n/a	n/a	n/a	-999	9	[0, 0, 0]	n/a	FR1	3	R1304N
1386.242	14.629	1387913	WAITING_START	n/a	n/a	n/a	-999	9	[0, 0, 0]	n/a	FR1	3	R1304N
1400.871	0.0	1402542	COUNTDOWN_START	n/a	n/a	n/a	-999	9	[0, 0, 0]	n/a	FR1	3	R1304N
1400.871	10.428	1402542	WAITING_END	n/a	n/a	n/a	-999	9	[0, 0, 0]	n/a	FR1	3	R1304N
1411.299	0.0	1412969	COUNTDOWN_END	n/a	n/a	n/a	-999	9	[0, 0, 0]	n/a	FR1	3	R1304N
1411.299	1.04	1412969	ORIENT_START	n/a	n/a	n/a	-999	9	[0, 0, 0]	n/a	FR1	3	R1304N
1412.339	0.001	1414009	ORIENT_END	n/a	n/a	n/a	-999	9	[0, 0, 0]	n/a	FR1	3	R1304N
1412.34	1.128	1414010	ENCODING_START	n/a	n/a	n/a	-999	9	[0, 0, 0]	n/a	FR1	3	R1304N
1413.468	1.637	1415138	WORD	n/a	n/a	TRASH	1	9	[0, 0, 0]	n/a	FR1	3	R1304N
1415.105	0.751	1416775	WORD_OFF	n/a	n/a	TRASH	1	9	[0, 0, 0]	n/a	FR1	3	R1304N
1415.856	1.634	1417526	WORD	n/a	n/a	BEAN	2	9	[0, 0, 0]	n/a	FR1	3	R1304N
1417.49	0.912	1419160	WORD_OFF	n/a	n/a	BEAN	2	9	[0, 0, 0]	n/a	FR1	3	R1304N
1418.402	1.622	1420072	WORD	n/a	n/a	SHIP	3	9	[0, 0, 0]	n/a	FR1	3	R1304N
1420.024	1.096	1421694	WORD_OFF	n/a	n/a	SHIP	3	9	[0, 0, 0]	n/a	FR1	3	R1304N
1421.12	1.638	1422790	WORD	n/a	n/a	STORE	4	9	[0, 0, 0]	n/a	FR1	3	R1304N
1422.758	0.966	1424428	WORD_OFF	n/a	n/a	STORE	4	9	[0, 0, 0]	n/a	FR1	3	R1304N
1423.724	1.634	1425393	WORD	n/a	n/a	PURSE	5	9	[0, 0, 0]	n/a	FR1	3	R1304N
1425.358	0.908	1427027	WORD_OFF	n/a	n/a	PURSE	5	9	[0, 0, 0]	n/a	FR1	3	R1304N
1426.266	1.626	1427935	WORD	n/a	n/a	CHALK	6	9	[0, 0, 0]	n/a	FR1	3	R1304N
1427.892	0.837	1429561	WORD_OFF	n/a	n/a	CHALK	6	9	[0, 0, 0]	n/a	FR1	3	R1304N
1428.729	1.63	1430398	WORD	n/a	n/a	FORT	7	9	[0, 0, 0]	n/a	FR1	3	R1304N
1430.359	1.005	1432028	WORD_OFF	n/a	n/a	FORT	7	9	[0, 0, 0]	n/a	FR1	3	R1304N
1431.364	1.629	1433033	WORD	n/a	n/a	SNAIL	8	9	[0, 0, 0]	n/a	FR1	3	R1304N
1432.993	0.978	1434662	WORD_OFF	n/a	n/a	SNAIL	8	9	[0, 0, 0]	n/a	FR1	3	R1304N
1433.971	1.622	1435640	WORD	n/a	n/a	SEAT	9	9	[0, 0, 0]	n/a	FR1	3	R1304N
1435.593	1.091	1437262	WORD_OFF	n/a	n/a	SEAT	9	9	[0, 0, 0]	n/a	FR1	3	R1304N
1436.684	1.626	1438353	WORD	n/a	n/a	RIB	10	9	[0, 0, 0]	n/a	FR1	3	R1304N
1438.31	1.005	1439979	WORD_OFF	n/a	n/a	RIB	10	9	[0, 0, 0]	n/a	FR1	3	R1304N
1439.315	1.629	1440984	WORD	n/a	n/a	DEER	11	9	[0, 0, 0]	n/a	FR1	3	R1304N
1440.944	1.141	1442613	WORD_OFF	n/a	n/a	DEER	11	9	[0, 0, 0]	n/a	FR1	3	R1304N
1442.085	1.626	1443754	WORD	n/a	n/a	ZOO	12	9	[0, 0, 0]	n/a	FR1	3	R1304N
1443.711	0.001	1445380	WORD_OFF	n/a	n/a	ZOO	12	9	[0, 0, 0]	n/a	FR1	3	R1304N
1443.712	0.0	1445381	ENCODING_END	n/a	n/a	n/a	-999	9	[0, 0, 0]	n/a	FR1	3	R1304N
1443.712	0.0	1445381	DISTRACT_START	n/a	n/a	n/a	-999	9	[0, 0, 0]	n/a	FR1	3	R1304N
1443.712	0.016	1445381	START	n/a	n/a	n/a	-999	9	[-999, -999, -999]	n/a	FR1	3	R1304N
1443.728	48.702	1445397	PROB	48.702	n/a	n/a	-999	9	[3, 3, 5]	8	FR1	3	R1304N
1492.43	0.006	1494096	STOP	n/a	n/a	n/a	-999	9	[-999, -999, -999]	n/a	FR1	3	R1304N
1492.436	0.663	1494102	DISTRACT_END	n/a	n/a	n/a	-999	9	[0, 0, 0]	n/a	FR1	3	R1304N
1493.099	1.704	1494765	RETRIEVAL_ORIENT_START	n/a	n/a	n/a	-999	9	[0, 0, 0]	n/a	FR1	3	R1304N
1494.803	0.0	1496469	REC_START	n/a	n/a	n/a	-999	9	[0, 0, 0]	n/a	FR1	3	R1304N
1494.803	29.86	1496469	RETRIEVAL_ORIENT_END	n/a	n/a	n/a	-999	9	[0, 0, 0]	n/a	FR1	3	R1304N
1524.663	0.152	1526328	REC_WORD_VV	0.152	n/a	<>	-999	9	[0, 0, 0]	n/a	FR1	3	R1304N
1524.815	0.0	1526480	REC_END	n/a	n/a	n/a	-999	9	[0, 0, 0]	n/a	FR1	3	R1304N
1524.815	0.014	1526480	TRIAL_END	n/a	n/a	n/a	-999	9	[0, 0, 0]	n/a	FR1	3	R1304N
1524.829	0.0	1526494	TRIAL_START	n/a	n/a	n/a	-999	10	[0, 0, 0]	n/a	FR1	3	R1304N
1524.829	0.0	1526494	TRIAL	n/a	n/a	n/a	-999	10	[0, 0, 0]	n/a	FR1	3	R1304N
1524.829	4.963	1526494	WAITING_START	n/a	n/a	n/a	-999	10	[0, 0, 0]	n/a	FR1	3	R1304N
1529.792	0.0	1531457	WAITING_END	n/a	n/a	n/a	-999	10	[0, 0, 0]	n/a	FR1	3	R1304N
1529.792	10.43	1531457	COUNTDOWN_START	n/a	n/a	n/a	-999	10	[0, 0, 0]	n/a	FR1	3	R1304N
1540.222	0.001	1541886	COUNTDOWN_END	n/a	n/a	n/a	-999	10	[0, 0, 0]	n/a	FR1	3	R1304N
1540.223	1.054	1541887	ORIENT_START	n/a	n/a	n/a	-999	10	[0, 0, 0]	n/a	FR1	3	R1304N
1541.277	0.001	1542941	ORIENT_END	n/a	n/a	n/a	-999	10	[0, 0, 0]	n/a	FR1	3	R1304N
1541.278	1.089	1542942	ENCODING_START	n/a	n/a	n/a	-999	10	[0, 0, 0]	n/a	FR1	3	R1304N
1542.367	1.627	1544031	WORD	n/a	n/a	GEESE	1	10	[0, 0, 0]	n/a	FR1	3	R1304N
1543.994	0.953	1545658	WORD_OFF	n/a	n/a	GEESE	1	10	[0, 0, 0]	n/a	FR1	3	R1304N
1544.947	1.631	1546611	WORD	n/a	n/a	SINK	2	10	[0, 0, 0]	n/a	FR1	3	R1304N
1546.578	0.925	1548242	WORD_OFF	n/a	n/a	SINK	2	10	[0, 0, 0]	n/a	FR1	3	R1304N
1547.503	1.624	1549167	WORD	n/a	n/a	ROOM	3	10	[0, 0, 0]	n/a	FR1	3	R1304N
1549.127	0.883	1550791	WORD_OFF	n/a	n/a	ROOM	3	10	[0, 0, 0]	n/a	FR1	3	R1304N
1550.01	1.636	1551674	WORD	n/a	n/a	WALL	4	10	[0, 0, 0]	n/a	FR1	3	R1304N
1551.646	1.067	1553309	WORD_OFF	n/a	n/a	WALL	4	10	[0, 0, 0]	n/a	FR1	3	R1304N
1552.713	1.633	1554376	WORD	n/a	n/a	ICE	5	10	[0, 0, 0]	n/a	FR1	3	R1304N
1554.346	0.839	1556009	WORD_OFF	n/a	n/a	ICE	5	10	[0, 0, 0]	n/a	FR1	3	R1304N
1555.185	1.628	1556848	WORD	n/a	n/a	THREAD	6	10	[0, 0, 0]	n/a	FR1	3	R1304N
1556.813	0.911	1558476	WORD_OFF	n/a	n/a	THREAD	6	10	[0, 0, 0]	n/a	FR1	3	R1304N
1557.724	1.623	1559387	WORD	n/a	n/a	FARM	7	10	[0, 0, 0]	n/a	FR1	3	R1304N
1559.347	0.975	1561010	WORD_OFF	n/a	n/a	FARM	7	10	[0, 0, 0]	n/a	FR1	3	R1304N
1560.322	1.625	1561985	WORD	n/a	n/a	FOAM	8	10	[0, 0, 0]	n/a	FR1	3	R1304N
1561.947	0.982	1563610	WORD_OFF	n/a	n/a	FOAM	8	10	[0, 0, 0]	n/a	FR1	3	R1304N
1562.929	1.635	1564592	WORD	n/a	n/a	GUARD	9	10	[0, 0, 0]	n/a	FR1	3	R1304N
1564.564	0.913	1566227	WORD_OFF	n/a	n/a	GUARD	9	10	[0, 0, 0]	n/a	FR1	3	R1304N
1565.477	1.62	1567140	WORD	n/a	n/a	FLAME	10	10	[0, 0, 0]	n/a	FR1	3	R1304N
1567.097	1.14	1568760	WORD_OFF	n/a	n/a	FLAME	10	10	[0, 0, 0]	n/a	FR1	3	R1304N
1568.237	1.628	1569900	WORD	n/a	n/a	JEEP	11	10	[0, 0, 0]	n/a	FR1	3	R1304N
1569.865	1.05	1571528	WORD_OFF	n/a	n/a	JEEP	11	10	[0, 0, 0]	n/a	FR1	3	R1304N
1570.915	1.634	1572578	WORD	n/a	n/a	SPEAR	12	10	[0, 0, 0]	n/a	FR1	3	R1304N
1572.549	0.0	1574212	WORD_OFF	n/a	n/a	SPEAR	12	10	[0, 0, 0]	n/a	FR1	3	R1304N
1572.549	0.0	1574212	ENCODING_END	n/a	n/a	n/a	-999	10	[0, 0, 0]	n/a	FR1	3	R1304N
1572.549	0.001	1574212	DISTRACT_START	n/a	n/a	n/a	-999	10	[0, 0, 0]	n/a	FR1	3	R1304N
1572.55	0.015	1574213	START	n/a	n/a	n/a	-999	10	[-999, -999, -999]	n/a	FR1	3	R1304N
1572.565	10.719	1574227	PROB	10.719	n/a	n/a	-999	10	[8, 8, 9]	9	FR1	3	R1304N
1583.284	12.482	1584946	PROB	12.482	n/a	n/a	-999	10	[5, 1, 8]	6	FR1	3	R1304N
1595.766	0.02	1597427	STOP	n/a	n/a	n/a	-999	10	[-999, -999, -999]	n/a	FR1	3	R1304N
1595.786	0.59	1597447	DISTRACT_END	n/a	n/a	n/a	-999	10	[0, 0, 0]	n/a	FR1	3	R1304N
1596.376	1.627	1598037	RETRIEVAL_ORIENT_START	n/a	n/a	n/a	-999	10	[0, 0, 0]	n/a	FR1	3	R1304N
1598.003	0.001	1599664	RETRIEVAL_ORIENT_END	n/a	n/a	n/a	-999	10	[0, 0, 0]	n/a	FR1	3	R1304N
1598.004	29.837	1599665	REC_START	n/a	n/a	n/a	-999	10	[0, 0, 0]	n/a	FR1	3	R1304N
1627.841	0.173	1629501	REC_WORD_VV	0.173	n/a	<>	-999	10	[0, 0, 0]	n/a	FR1	3	R1304N
1628.014	0.001	1629674	REC_END	n/a	n/a	n/a	-999	10	[0, 0, 0]	n/a	FR1	3	R1304N
1628.015	0.013	1629675	TRIAL_END	n/a	n/a	n/a	-999	10	[0, 0, 0]	n/a	FR1	3	R1304N
1628.028	0.0	1629688	TRIAL_START	n/a	n/a	n/a	-999	11	[0, 0, 0]	n/a	FR1	3	R1304N
1628.028	0.001	1629688	TRIAL	n/a	n/a	n/a	-999	11	[0, 0, 0]	n/a	FR1	3	R1304N
1628.029	10.447	1629689	WAITING_START	n/a	n/a	n/a	-999	11	[0, 0, 0]	n/a	FR1	3	R1304N
1638.476	0.001	1640135	WAITING_END	n/a	n/a	n/a	-999	11	[0, 0, 0]	n/a	FR1	3	R1304N
1638.477	10.428	1640136	COUNTDOWN_START	n/a	n/a	n/a	-999	11	[0, 0, 0]	n/a	FR1	3	R1304N
1648.905	0.001	1650564	COUNTDOWN_END	n/a	n/a	n/a	-999	11	[0, 0, 0]	n/a	FR1	3	R1304N
1648.906	1.205	1650565	ORIENT_START	n/a	n/a	n/a	-999	11	[0, 0, 0]	n/a	FR1	3	R1304N
1650.111	0.0	1651770	ENCODING_START	n/a	n/a	n/a	-999	11	[0, 0, 0]	n/a	FR1	3	R1304N
1650.111	0.872	1651770	ORIENT_END	n/a	n/a	n/a	-999	11	[0, 0, 0]	n/a	FR1	3	R1304N
1650.983	1.629	1652642	WORD	n/a	n/a	TRAIN	1	11	[0, 0, 0]	n/a	FR1	3	R1304N
1652.612	0.912	1654271	WORD_OFF	n/a	n/a	TRAIN	1	11	[0, 0, 0]	n/a	FR1	3	R1304N
1653.524	1.621	1655183	WORD	n/a	n/a	LEAF	2	11	[0, 0, 0]	n/a	FR1	3	R1304N
1655.145	1.047	1656804	WORD_OFF	n/a	n/a	LEAF	2	11	[0, 0, 0]	n/a	FR1	3	R1304N
1656.192	1.638	1657851	WORD	n/a	n/a	HOOK	3	11	[0, 0, 0]	n/a	FR1	3	R1304N
1657.83	1.112	1659489	WORD_OFF	n/a	n/a	HOOK	3	11	[0, 0, 0]	n/a	FR1	3	R1304N
1658.942	1.621	1660600	WORD	n/a	n/a	ARM	4	11	[0, 0, 0]	n/a	FR1	3	R1304N
1660.563	0.965	1662221	WORD_OFF	n/a	n/a	ARM	4	11	[0, 0, 0]	n/a	FR1	3	R1304N
1661.528	1.635	1663186	WORD	n/a	n/a	GLASS	5	11	[0, 0, 0]	n/a	FR1	3	R1304N
1663.163	1.037	1664821	WORD_OFF	n/a	n/a	GLASS	5	11	[0, 0, 0]	n/a	FR1	3	R1304N
1664.2	1.631	1665858	WORD	n/a	n/a	SLEEVE	6	11	[0, 0, 0]	n/a	FR1	3	R1304N
1665.831	1.002	1667489	WORD_OFF	n/a	n/a	SLEEVE	6	11	[0, 0, 0]	n/a	FR1	3	R1304N
1666.833	1.632	1668491	WORD	n/a	n/a	NET	7	11	[0, 0, 0]	n/a	FR1	3	R1304N
1668.465	0.807	1670123	WORD_OFF	n/a	n/a	NET	7	11	[0, 0, 0]	n/a	FR1	3	R1304N
1669.272	1.627	1670930	WORD	n/a	n/a	FOOD	8	11	[0, 0, 0]	n/a	FR1	3	R1304N
1670.899	0.969	1672557	WORD_OFF	n/a	n/a	FOOD	8	11	[0, 0, 0]	n/a	FR1	3	R1304N
1671.868	1.631	1673526	WORD	n/a	n/a	CHIEF	9	11	[0, 0, 0]	n/a	FR1	3	R1304N
1673.499	0.908	1675157	WORD_OFF	n/a	n/a	CHIEF	9	11	[0, 0, 0]	n/a	FR1	3	R1304N
1674.407	1.626	1676065	WORD	n/a	n/a	TIE	10	11	[0, 0, 0]	n/a	FR1	3	R1304N
1676.033	1.067	1677691	WORD_OFF	n/a	n/a	TIE	10	11	[0, 0, 0]	n/a	FR1	3	R1304N
1677.1	1.616	1678758	WORD	n/a	n/a	CANE	11	11	[0, 0, 0]	n/a	FR1	3	R1304N
1678.716	1.0	1680374	WORD_OFF	n/a	n/a	CANE	11	11	[0, 0, 0]	n/a	FR1	3	R1304N
1679.716	1.634	1681373	WORD	n/a	n/a	TEETH	12	11	[0, 0, 0]	n/a	FR1	3	R1304N
1681.35	0.001	1683007	WORD_OFF	n/a	n/a	TEETH	12	11	[0, 0, 0]	n/a	FR1	3	R1304N
1681.351	0.0	1683008	ENCODING_END	n/a	n/a	n/a	-999	11	[0, 0, 0]	n/a	FR1	3	R1304N
1681.351	0.0	1683008	DISTRACT_START	n/a	n/a	n/a	-999	11	[0, 0, 0]	n/a	FR1	3	R1304N
1681.351	0.016	1683008	START	n/a	n/a	n/a	-999	11	[-999, -999, -999]	n/a	FR1	3	R1304N
1681.367	12.052	1683024	PROB	12.052	n/a	n/a	-999	11	[6, 8, 7]	6	FR1	3	R1304N
1693.419	3.334	1695076	PROB	3.334	n/a	n/a	-999	11	[2, 2, 4]	5	FR1	3	R1304N
1696.753	11.461	1698410	PROB	11.461	n/a	n/a	-999	11	[1, 3, 2]	5	FR1	3	R1304N
1708.214	0.007	1709870	STOP	n/a	n/a	n/a	-999	11	[-999, -999, -999]	n/a	FR1	3	R1304N
1708.221	0.566	1709877	DISTRACT_END	n/a	n/a	n/a	-999	11	[0, 0, 0]	n/a	FR1	3	R1304N
1708.787	1.718	1710443	RETRIEVAL_ORIENT_START	n/a	n/a	n/a	-999	11	[0, 0, 0]	n/a	FR1	3	R1304N
1710.505	0.0	1712161	RETRIEVAL_ORIENT_END	n/a	n/a	n/a	-999	11	[0, 0, 0]	n/a	FR1	3	R1304N
1710.505	29.938	1712161	REC_START	n/a	n/a	n/a	-999	11	[0, 0, 0]	n/a	FR1	3	R1304N
1740.443	0.072	1742098	REC_WORD_VV	0.072	n/a	<>	-999	11	[0, 0, 0]	n/a	FR1	3	R1304N
1740.515	0.001	1742170	REC_END	n/a	n/a	n/a	-999	11	[0, 0, 0]	n/a	FR1	3	R1304N
1740.516	0.013	1742171	TRIAL_END	n/a	n/a	n/a	-999	11	[0, 0, 0]	n/a	FR1	3	R1304N
1740.529	0.0	1742184	TRIAL_START	n/a	n/a	n/a	-999	12	[0, 0, 0]	n/a	FR1	3	R1304N
1740.529	0.0	1742184	TRIAL	n/a	n/a	n/a	-999	12	[0, 0, 0]	n/a	FR1	3	R1304N
1740.529	4.564	1742184	WAITING_START	n/a	n/a	n/a	-999	12	[0, 0, 0]	n/a	FR1	3	R1304N
1745.093	0.0	1746747	WAITING_END	n/a	n/a	n/a	-999	12	[0, 0, 0]	n/a	FR1	3	R1304N
1745.093	10.429	1746747	COUNTDOWN_START	n/a	n/a	n/a	-999	12	[0, 0, 0]	n/a	FR1	3	R1304N
1755.522	0.001	1757176	COUNTDOWN_END	n/a	n/a	n/a	-999	12	[0, 0, 0]	n/a	FR1	3	R1304N
1755.523	1.19	1757177	ORIENT_START	n/a	n/a	n/a	-999	12	[0, 0, 0]	n/a	FR1	3	R1304N
1756.713	0.0	1758367	ORIENT_END	n/a	n/a	n/a	-999	12	[0, 0, 0]	n/a	FR1	3	R1304N
1756.713	0.857	1758367	ENCODING_START	n/a	n/a	n/a	-999	12	[0, 0, 0]	n/a	FR1	3	R1304N
1757.57	1.626	1759224	WORD	n/a	n/a	BEAR	1	12	[0, 0, 0]	n/a	FR1	3	R1304N
1759.196	0.885	1760850	WORD_OFF	n/a	n/a	BEAR	1	12	[0, 0, 0]	n/a	FR1	3	R1304N
1760.081	1.616	1761735	WORD	n/a	n/a	SLIME	2	12	[0, 0, 0]	n/a	FR1	3	R1304N
1761.697	0.812	1763351	WORD_OFF	n/a	n/a	SLIME	2	12	[0, 0, 0]	n/a	FR1	3	R1304N
1762.509	1.621	1764163	WORD	n/a	n/a	FLOOR	3	12	[0, 0, 0]	n/a	FR1	3	R1304N
1764.13	0.866	1765784	WORD_OFF	n/a	n/a	FLOOR	3	12	[0, 0, 0]	n/a	FR1	3	R1304N
1764.996	1.635	1766649	WORD	n/a	n/a	STOOL	4	12	[0, 0, 0]	n/a	FR1	3	R1304N
1766.631	0.954	1768284	WORD_OFF	n/a	n/a	STOOL	4	12	[0, 0, 0]	n/a	FR1	3	R1304N
1767.585	1.63	1769238	WORD	n/a	n/a	TRAY	5	12	[0, 0, 0]	n/a	FR1	3	R1304N
1769.215	0.895	1770868	WORD_OFF	n/a	n/a	TRAY	5	12	[0, 0, 0]	n/a	FR1	3	R1304N
1770.11	1.622	1771763	WORD	n/a	n/a	BRIDGE	6	12	[0, 0, 0]	n/a	FR1	3	R1304N
1771.732	0.981	1773385	WORD_OFF	n/a	n/a	BRIDGE	6	12	[0, 0, 0]	n/a	FR1	3	R1304N
1772.713	1.636	1774366	WORD	n/a	n/a	MOUTH	7	12	[0, 0, 0]	n/a	FR1	3	R1304N
1774.349	0.754	1776002	WORD_OFF	n/a	n/a	MOUTH	7	12	[0, 0, 0]	n/a	FR1	3	R1304N
1775.103	1.63	1776756	WORD	n/a	n/a	JAIL	8	12	[0, 0, 0]	n/a	FR1	3	R1304N
1776.733	0.786	1778386	WORD_OFF	n/a	n/a	JAIL	8	12	[0, 0, 0]	n/a	FR1	3	R1304N
1777.519	1.63	1779172	WORD	n/a	n/a	BEACH	9	12	[0, 0, 0]	n/a	FR1	3	R1304N
1779.149	0.937	1780802	WORD_OFF	n/a	n/a	BEACH	9	12	[0, 0, 0]	n/a	FR1	3	R1304N
1780.086	1.614	1781739	WORD	n/a	n/a	BEAK	10	12	[0, 0, 0]	n/a	FR1	3	R1304N
1781.7	1.014	1783353	WORD_OFF	n/a	n/a	BEAK	10	12	[0, 0, 0]	n/a	FR1	3	R1304N
1782.714	1.637	1784367	WORD	n/a	n/a	BOARD	11	12	[0, 0, 0]	n/a	FR1	3	R1304N
1784.351	1.109	1786004	WORD_OFF	n/a	n/a	BOARD	11	12	[0, 0, 0]	n/a	FR1	3	R1304N
1785.46	1.623	1787113	WORD	n/a	n/a	CORN	12	12	[0, 0, 0]	n/a	FR1	3	R1304N
1787.083	0.001	1788735	WORD_OFF	n/a	n/a	CORN	12	12	[0, 0, 0]	n/a	FR1	3	R1304N
1787.084	0.0	1788736	ENCODING_END	n/a	n/a	n/a	-999	12	[0, 0, 0]	n/a	FR1	3	R1304N
1787.084	0.001	1788736	DISTRACT_START	n/a	n/a	n/a	-999	12	[0, 0, 0]	n/a	FR1	3	R1304N
1787.085	0.015	1788737	START	n/a	n/a	n/a	-999	12	[-999, -999, -999]	n/a	FR1	3	R1304N
1787.1	6.519	1788752	PROB	6.519	n/a	n/a	-999	12	[5, 2, 9]	6	FR1	3	R1304N
1793.619	3.25	1795271	PROB	3.25	n/a	n/a	-999	12	[4, 3, 6]	7	FR1	3	R1304N
1796.869	2.434	1798521	PROB	2.434	n/a	n/a	-999	12	[5, 5, 1]	6	FR1	3	R1304N
1799.303	6.767	1800955	PROB	6.767	n/a	n/a	-999	12	[9, 6, 2]	7	FR1	3	R1304N
1806.07	25.144	1807722	PROB	25.144	n/a	n/a	-999	12	[8, 8, 7]	9	FR1	3	R1304N
1831.214	0.011	1832864	STOP	n/a	n/a	n/a	-999	12	[-999, -999, -999]	n/a	FR1	3	R1304N
1831.225	0.533	1832875	DISTRACT_END	n/a	n/a	n/a	-999	12	[0, 0, 0]	n/a	FR1	3	R1304N
1831.758	1.717	1833408	RETRIEVAL_ORIENT_START	n/a	n/a	n/a	-999	12	[0, 0, 0]	n/a	FR1	3	R1304N
1833.475	0.001	1835125	RETRIEVAL_ORIENT_END	n/a	n/a	n/a	-999	12	[0, 0, 0]	n/a	FR1	3	R1304N
1833.476	29.926	1835126	REC_START	n/a	n/a	n/a	-999	12	[0, 0, 0]	n/a	FR1	3	R1304N
1863.402	0.084	1865051	REC_WORD_VV	0.084	n/a	<>	-999	12	[0, 0, 0]	n/a	FR1	3	R1304N
1863.486	0.0	1865135	REC_END	n/a	n/a	n/a	-999	12	[0, 0, 0]	n/a	FR1	3	R1304N
1863.486	0.014	1865135	TRIAL_END	n/a	n/a	n/a	-999	12	[0, 0, 0]	n/a	FR1	3	R1304N
1863.5	0.0	1865149	WAITING_START	n/a	n/a	n/a	-999	13	[0, 0, 0]	n/a	FR1	3	R1304N
1863.5	0.0	1865149	TRIAL_START	n/a	n/a	n/a	-999	13	[0, 0, 0]	n/a	FR1	3	R1304N
1863.5	3.814	1865149	TRIAL	n/a	n/a	n/a	-999	13	[0, 0, 0]	n/a	FR1	3	R1304N
1867.314	0.001	1868963	WAITING_END	n/a	n/a	n/a	-999	13	[0, 0, 0]	n/a	FR1	3	R1304N
1867.315	10.429	1868964	COUNTDOWN_START	n/a	n/a	n/a	-999	13	[0, 0, 0]	n/a	FR1	3	R1304N
1877.744	0.0	1879392	COUNTDOWN_END	n/a	n/a	n/a	-999	13	[0, 0, 0]	n/a	FR1	3	R1304N
1877.744	1.106	1879392	ORIENT_START	n/a	n/a	n/a	-999	13	[0, 0, 0]	n/a	FR1	3	R1304N
1878.85	0.0	1880498	ORIENT_END	n/a	n/a	n/a	-999	13	[0, 0, 0]	n/a	FR1	3	R1304N
1878.85	1.068	1880498	ENCODING_START	n/a	n/a	n/a	-999	13	[0, 0, 0]	n/a	FR1	3	R1304N
1879.918	1.632	1881566	WORD	n/a	n/a	FLAG	1	13	[0, 0, 0]	n/a	FR1	3	R1304N
1881.55	0.892	1883198	WORD_OFF	n/a	n/a	FLAG	1	13	[0, 0, 0]	n/a	FR1	3	R1304N
1882.442	1.624	1884090	WORD	n/a	n/a	CALF	2	13	[0, 0, 0]	n/a	FR1	3	R1304N
1884.066	1.091	1885714	WORD_OFF	n/a	n/a	CALF	2	13	[0, 0, 0]	n/a	FR1	3	R1304N
1885.157	1.627	1886805	WORD	n/a	n/a	HEN	3	13	[0, 0, 0]	n/a	FR1	3	R1304N
1886.784	0.962	1888432	WORD_OFF	n/a	n/a	HEN	3	13	[0, 0, 0]	n/a	FR1	3	R1304N
1887.746	1.622	1889394	WORD	n/a	n/a	NOSE	4	13	[0, 0, 0]	n/a	FR1	3	R1304N
1889.368	0.981	1891016	WORD_OFF	n/a	n/a	NOSE	4	13	[0, 0, 0]	n/a	FR1	3	R1304N
1890.349	1.636	1891997	WORD	n/a	n/a	SMILE	5	13	[0, 0, 0]	n/a	FR1	3	R1304N
1891.985	0.964	1893633	WORD_OFF	n/a	n/a	SMILE	5	13	[0, 0, 0]	n/a	FR1	3	R1304N
1892.949	1.637	1894597	WORD	n/a	n/a	STRING	6	13	[0, 0, 0]	n/a	FR1	3	R1304N
1894.586	0.951	1896233	WORD_OFF	n/a	n/a	STRING	6	13	[0, 0, 0]	n/a	FR1	3	R1304N
1895.537	1.632	1897184	WORD	n/a	n/a	PHONE	7	13	[0, 0, 0]	n/a	FR1	3	R1304N
1897.169	1.004	1898816	WORD_OFF	n/a	n/a	PHONE	7	13	[0, 0, 0]	n/a	FR1	3	R1304N
1898.173	1.63	1899820	WORD	n/a	n/a	BOAT	8	13	[0, 0, 0]	n/a	FR1	3	R1304N
1899.803	1.046	1901450	WORD_OFF	n/a	n/a	BOAT	8	13	[0, 0, 0]	n/a	FR1	3	R1304N
1900.849	1.621	1902496	WORD	n/a	n/a	KEY	9	13	[0, 0, 0]	n/a	FR1	3	R1304N
1902.47	1.104	1904117	WORD_OFF	n/a	n/a	KEY	9	13	[0, 0, 0]	n/a	FR1	3	R1304N
1903.574	1.63	1905221	WORD	n/a	n/a	CHAIR	10	13	[0, 0, 0]	n/a	FR1	3	R1304N
1905.204	0.927	1906851	WORD_OFF	n/a	n/a	CHAIR	10	13	[0, 0, 0]	n/a	FR1	3	R1304N
1906.131	1.607	1907778	WORD	n/a	n/a	PEN	11	13	[0, 0, 0]	n/a	FR1	3	R1304N
1907.738	1.07	1909385	WORD_OFF	n/a	n/a	PEN	11	13	[0, 0, 0]	n/a	FR1	3	R1304N
1908.808	1.63	1910455	WORD	n/a	n/a	STONE	12	13	[0, 0, 0]	n/a	FR1	3	R1304N
1910.438	0.001	1912085	WORD_OFF	n/a	n/a	STONE	12	13	[0, 0, 0]	n/a	FR1	3	R1304N
1910.439	0.0	1912086	ENCODING_END	n/a	n/a	n/a	-999	13	[0, 0, 0]	n/a	FR1	3	R1304N
1910.439	0.0	1912086	DISTRACT_START	n/a	n/a	n/a	-999	13	[0, 0, 0]	n/a	FR1	3	R1304N
1910.439	0.016	1912086	START	n/a	n/a	n/a	-999	13	[-999, -999, -999]	n/a	FR1	3	R1304N
1910.455	13.252	1912102	PROB	13.252	n/a	n/a	-999	13	[8, 9, 6]	8	FR1	3	R1304N
1923.707	2.734	1925353	PROB	2.734	n/a	n/a	-999	13	[9, 7, 3]	6	FR1	3	R1304N
1926.441	2.483	1928087	PROB	2.483	n/a	n/a	-999	13	[4, 3, 1]	4	FR1	3	R1304N
1928.924	3.152	1930570	PROB	3.152	n/a	n/a	-999	13	[8, 5, 1]	6	FR1	3	R1304N
1932.076	0.015	1933722	STOP	n/a	n/a	n/a	-999	13	[-999, -999, -999]	n/a	FR1	3	R1304N
1932.091	0.59	1933737	DISTRACT_END	n/a	n/a	n/a	-999	13	[0, 0, 0]	n/a	FR1	3	R1304N
1932.681	1.711	1934327	RETRIEVAL_ORIENT_START	n/a	n/a	n/a	-999	13	[0, 0, 0]	n/a	FR1	3	R1304N
1934.392	0.0	1936038	RETRIEVAL_ORIENT_END	n/a	n/a	n/a	-999	13	[0, 0, 0]	n/a	FR1	3	R1304N
1934.392	29.767	1936038	REC_START	n/a	n/a	n/a	-999	13	[0, 0, 0]	n/a	FR1	3	R1304N
1964.159	0.245	1965803	REC_WORD_VV	0.245	n/a	<>	-999	13	[0, 0, 0]	n/a	FR1	3	R1304N
1964.404	0.0	1966048	REC_END	n/a	n/a	n/a	-999	13	[0, 0, 0]	n/a	FR1	3	R1304N
1964.404	0.015	1966048	TRIAL_END	n/a	n/a	n/a	-999	13	[0, 0, 0]	n/a	FR1	3	R1304N
1964.419	0.0	1966063	TRIAL_START	n/a	n/a	n/a	-999	14	[0, 0, 0]	n/a	FR1	3	R1304N
1964.419	0.001	1966063	TRIAL	n/a	n/a	n/a	-999	14	[0, 0, 0]	n/a	FR1	3	R1304N
1964.42	2.828	1966064	WAITING_START	n/a	n/a	n/a	-999	14	[0, 0, 0]	n/a	FR1	3	R1304N
1967.248	0.0	1968892	WAITING_END	n/a	n/a	n/a	-999	14	[0, 0, 0]	n/a	FR1	3	R1304N
1967.248	10.428	1968892	COUNTDOWN_START	n/a	n/a	n/a	-999	14	[0, 0, 0]	n/a	FR1	3	R1304N
1977.676	0.001	1979320	COUNTDOWN_END	n/a	n/a	n/a	-999	14	[0, 0, 0]	n/a	FR1	3	R1304N
1977.677	1.256	1979321	ORIENT_START	n/a	n/a	n/a	-999	14	[0, 0, 0]	n/a	FR1	3	R1304N
1978.933	0.0	1980576	ORIENT_END	n/a	n/a	n/a	-999	14	[0, 0, 0]	n/a	FR1	3	R1304N
1978.933	1.098	1980576	ENCODING_START	n/a	n/a	n/a	-999	14	[0, 0, 0]	n/a	FR1	3	R1304N
1980.031	1.636	1981674	WORD	n/a	n/a	WHEEL	1	14	[0, 0, 0]	n/a	FR1	3	R1304N
1981.667	0.835	1983310	WORD_OFF	n/a	n/a	WHEEL	1	14	[0, 0, 0]	n/a	FR1	3	R1304N
1982.502	1.631	1984145	WORD	n/a	n/a	CAT	2	14	[0, 0, 0]	n/a	FR1	3	R1304N
1984.133	0.778	1985776	WORD_OFF	n/a	n/a	CAT	2	14	[0, 0, 0]	n/a	FR1	3	R1304N
1984.911	1.623	1986554	WORD	n/a	n/a	WING	3	14	[0, 0, 0]	n/a	FR1	3	R1304N
1986.534	0.884	1988177	WORD_OFF	n/a	n/a	WING	3	14	[0, 0, 0]	n/a	FR1	3	R1304N
1987.418	1.633	1989061	WORD	n/a	n/a	BOX	4	14	[0, 0, 0]	n/a	FR1	3	R1304N
1989.051	1.1	1990694	WORD_OFF	n/a	n/a	BOX	4	14	[0, 0, 0]	n/a	FR1	3	R1304N
1990.151	1.634	1991794	WORD	n/a	n/a	LEG	5	14	[0, 0, 0]	n/a	FR1	3	R1304N
1991.785	0.865	1993428	WORD_OFF	n/a	n/a	LEG	5	14	[0, 0, 0]	n/a	FR1	3	R1304N
1992.65	1.635	1994293	WORD	n/a	n/a	JAR	6	14	[0, 0, 0]	n/a	FR1	3	R1304N
1994.285	0.923	1995928	WORD_OFF	n/a	n/a	JAR	6	14	[0, 0, 0]	n/a	FR1	3	R1304N
1995.208	1.628	1996851	WORD	n/a	n/a	CLOUD	7	14	[0, 0, 0]	n/a	FR1	3	R1304N
1996.836	1.002	1998479	WORD_OFF	n/a	n/a	CLOUD	7	14	[0, 0, 0]	n/a	FR1	3	R1304N
1997.838	1.631	1999481	WORD	n/a	n/a	MILK	8	14	[0, 0, 0]	n/a	FR1	3	R1304N
1999.469	0.918	2001112	WORD_OFF	n/a	n/a	MILK	8	14	[0, 0, 0]	n/a	FR1	3	R1304N
2000.387	1.633	2002029	WORD	n/a	n/a	BRANCH	9	14	[0, 0, 0]	n/a	FR1	3	R1304N
2002.02	0.996	2003662	WORD_OFF	n/a	n/a	BRANCH	9	14	[0, 0, 0]	n/a	FR1	3	R1304N
2003.016	1.638	2004658	WORD	n/a	n/a	STRAW	10	14	[0, 0, 0]	n/a	FR1	3	R1304N
2004.654	0.987	2006296	WORD_OFF	n/a	n/a	STRAW	10	14	[0, 0, 0]	n/a	FR1	3	R1304N
2005.641	1.63	2007283	WORD	n/a	n/a	SCHOOL	11	14	[0, 0, 0]	n/a	FR1	3	R1304N
2007.271	1.058	2008913	WORD_OFF	n/a	n/a	SCHOOL	11	14	[0, 0, 0]	n/a	FR1	3	R1304N
2008.329	1.609	2009971	WORD	n/a	n/a	ROOT	12	14	[0, 0, 0]	n/a	FR1	3	R1304N
2009.938	0.0	2011580	WORD_OFF	n/a	n/a	ROOT	12	14	[0, 0, 0]	n/a	FR1	3	R1304N
2009.938	0.0	2011580	ENCODING_END	n/a	n/a	n/a	-999	14	[0, 0, 0]	n/a	FR1	3	R1304N
2009.938	0.0	2011580	DISTRACT_START	n/a	n/a	n/a	-999	14	[0, 0, 0]	n/a	FR1	3	R1304N
2009.938	0.016	2011580	START	n/a	n/a	n/a	-999	14	[-999, -999, -999]	n/a	FR1	3	R1304N
2009.954	28.036	2011596	PROB	28.036	n/a	n/a	-999	14	[7, 8, 2]	6	FR1	3	R1304N
2037.99	0.019	2039631	STOP	n/a	n/a	n/a	-999	14	[-999, -999, -999]	n/a	FR1	3	R1304N
2038.009	0.535	2039650	DISTRACT_END	n/a	n/a	n/a	-999	14	[0, 0, 0]	n/a	FR1	3	R1304N
2038.544	1.715	2040185	RETRIEVAL_ORIENT_START	n/a	n/a	n/a	-999	14	[0, 0, 0]	n/a	FR1	3	R1304N
2040.259	0.001	2041900	RETRIEVAL_ORIENT_END	n/a	n/a	n/a	-999	14	[0, 0, 0]	n/a	FR1	3	R1304N
2040.26	29.744	2041901	REC_START	n/a	n/a	n/a	-999	14	[0, 0, 0]	n/a	FR1	3	R1304N
2070.004	0.265	2071643	REC_WORD_VV	0.265	n/a	<>	-999	14	[0, 0, 0]	n/a	FR1	3	R1304N
2070.269	0.001	2071908	REC_END	n/a	n/a	n/a	-999	14	[0, 0, 0]	n/a	FR1	3	R1304N
2070.27	0.013	2071909	TRIAL_END	n/a	n/a	n/a	-999	14	[0, 0, 0]	n/a	FR1	3	R1304N
2070.283	0.001	2071922	TRIAL_START	n/a	n/a	n/a	-999	15	[0, 0, 0]	n/a	FR1	3	R1304N
2070.284	0.0	2071923	TRIAL	n/a	n/a	n/a	-999	15	[0, 0, 0]	n/a	FR1	3	R1304N
2070.284	6.765	2071923	WAITING_START	n/a	n/a	n/a	-999	15	[0, 0, 0]	n/a	FR1	3	R1304N
2077.049	0.0	2078688	COUNTDOWN_START	n/a	n/a	n/a	-999	15	[0, 0, 0]	n/a	FR1	3	R1304N
2077.049	10.428	2078688	WAITING_END	n/a	n/a	n/a	-999	15	[0, 0, 0]	n/a	FR1	3	R1304N
2087.477	0.0	2089115	COUNTDOWN_END	n/a	n/a	n/a	-999	15	[0, 0, 0]	n/a	FR1	3	R1304N
2087.477	1.107	2089115	ORIENT_START	n/a	n/a	n/a	-999	15	[0, 0, 0]	n/a	FR1	3	R1304N
2088.584	0.001	2090222	ORIENT_END	n/a	n/a	n/a	-999	15	[0, 0, 0]	n/a	FR1	3	R1304N
2088.585	0.975	2090223	ENCODING_START	n/a	n/a	n/a	-999	15	[0, 0, 0]	n/a	FR1	3	R1304N
2089.56	1.625	2091198	WORD	n/a	n/a	RAT	1	15	[0, 0, 0]	n/a	FR1	3	R1304N
2091.185	1.065	2092823	WORD_OFF	n/a	n/a	RAT	1	15	[0, 0, 0]	n/a	FR1	3	R1304N
2092.25	1.635	2093888	WORD	n/a	n/a	FRUIT	2	15	[0, 0, 0]	n/a	FR1	3	R1304N
2093.885	0.929	2095523	WORD_OFF	n/a	n/a	FRUIT	2	15	[0, 0, 0]	n/a	FR1	3	R1304N
2094.814	1.638	2096452	WORD	n/a	n/a	WORLD	3	15	[0, 0, 0]	n/a	FR1	3	R1304N
2096.452	1.024	2098090	WORD_OFF	n/a	n/a	WORLD	3	15	[0, 0, 0]	n/a	FR1	3	R1304N
2097.476	1.626	2099114	WORD	n/a	n/a	FOOT	4	15	[0, 0, 0]	n/a	FR1	3	R1304N
2099.102	0.789	2100740	WORD_OFF	n/a	n/a	FOOT	4	15	[0, 0, 0]	n/a	FR1	3	R1304N
2099.891	1.629	2101529	WORD	n/a	n/a	SHOE	5	15	[0, 0, 0]	n/a	FR1	3	R1304N
2101.52	0.843	2103158	WORD_OFF	n/a	n/a	SHOE	5	15	[0, 0, 0]	n/a	FR1	3	R1304N
2102.363	1.624	2104001	WORD	n/a	n/a	MUD	6	15	[0, 0, 0]	n/a	FR1	3	R1304N
2103.987	0.873	2105625	WORD_OFF	n/a	n/a	MUD	6	15	[0, 0, 0]	n/a	FR1	3	R1304N
2104.86	1.627	2106498	WORD	n/a	n/a	BIRD	7	15	[0, 0, 0]	n/a	FR1	3	R1304N
2106.487	0.83	2108125	WORD_OFF	n/a	n/a	BIRD	7	15	[0, 0, 0]	n/a	FR1	3	R1304N
2107.317	1.637	2108954	WORD	n/a	n/a	WEED	8	15	[0, 0, 0]	n/a	FR1	3	R1304N
2108.954	0.815	2110591	WORD_OFF	n/a	n/a	WEED	8	15	[0, 0, 0]	n/a	FR1	3	R1304N
2109.769	1.636	2111406	WORD	n/a	n/a	LOCK	9	15	[0, 0, 0]	n/a	FR1	3	R1304N
2111.405	0.91	2113042	WORD_OFF	n/a	n/a	LOCK	9	15	[0, 0, 0]	n/a	FR1	3	R1304N
2112.315	1.623	2113952	WORD	n/a	n/a	HAWK	10	15	[0, 0, 0]	n/a	FR1	3	R1304N
2113.938	0.929	2115575	WORD_OFF	n/a	n/a	HAWK	10	15	[0, 0, 0]	n/a	FR1	3	R1304N
2114.867	1.622	2116504	WORD	n/a	n/a	SQUARE	11	15	[0, 0, 0]	n/a	FR1	3	R1304N
2116.489	0.886	2118126	WORD_OFF	n/a	n/a	SQUARE	11	15	[0, 0, 0]	n/a	FR1	3	R1304N
2117.375	1.631	2119012	WORD	n/a	n/a	EGG	12	15	[0, 0, 0]	n/a	FR1	3	R1304N
2119.006	0.0	2120643	WORD_OFF	n/a	n/a	EGG	12	15	[0, 0, 0]	n/a	FR1	3	R1304N
2119.006	0.001	2120643	ENCODING_END	n/a	n/a	n/a	-999	15	[0, 0, 0]	n/a	FR1	3	R1304N
2119.007	0.0	2120644	DISTRACT_START	n/a	n/a	n/a	-999	15	[0, 0, 0]	n/a	FR1	3	R1304N
2119.007	0.015	2120644	START	n/a	n/a	n/a	-999	15	[-999, -999, -999]	n/a	FR1	3	R1304N
2119.022	8.919	2120659	PROB	8.919	n/a	n/a	-999	15	[6, 1, 8]	8	FR1	3	R1304N
2127.941	4.684	2129578	PROB	4.684	n/a	n/a	-999	15	[6, 6, 8]	8	FR1	3	R1304N
2132.625	4.717	2134261	PROB	4.717	n/a	n/a	-999	15	[3, 1, 5]	8	FR1	3	R1304N
2137.342	4.72	2138978	PROB	4.72	n/a	n/a	-999	15	[1, 1, 4]	6	FR1	3	R1304N
2142.062	0.013	2143698	STOP	n/a	n/a	n/a	-999	15	[-999, -999, -999]	n/a	FR1	3	R1304N
2142.075	0.516	2143711	DISTRACT_END	n/a	n/a	n/a	-999	15	[0, 0, 0]	n/a	FR1	3	R1304N
2142.591	1.702	2144227	RETRIEVAL_ORIENT_START	n/a	n/a	n/a	-999	15	[0, 0, 0]	n/a	FR1	3	R1304N
2144.293	0.001	2145929	RETRIEVAL_ORIENT_END	n/a	n/a	n/a	-999	15	[0, 0, 0]	n/a	FR1	3	R1304N
2144.294	29.938	2145930	REC_START	n/a	n/a	n/a	-999	15	[0, 0, 0]	n/a	FR1	3	R1304N
2174.232	0.072	2175866	REC_WORD_VV	0.072	n/a	<>	-999	15	[0, 0, 0]	n/a	FR1	3	R1304N
2174.304	0.0	2175938	REC_END	n/a	n/a	n/a	-999	15	[0, 0, 0]	n/a	FR1	3	R1304N
2174.304	0.017	2175938	TRIAL_END	n/a	n/a	n/a	-999	15	[0, 0, 0]	n/a	FR1	3	R1304N
2174.321	0.0	2175955	TRIAL_START	n/a	n/a	n/a	-999	16	[0, 0, 0]	n/a	FR1	3	R1304N
2174.321	0.0	2175955	TRIAL	n/a	n/a	n/a	-999	16	[0, 0, 0]	n/a	FR1	3	R1304N
2174.321	2.411	2175955	WAITING_START	n/a	n/a	n/a	-999	16	[0, 0, 0]	n/a	FR1	3	R1304N
2176.732	0.001	2178366	WAITING_END	n/a	n/a	n/a	-999	16	[0, 0, 0]	n/a	FR1	3	R1304N
2176.733	0.0	2178367	COUNTDOWN_START	n/a	n/a	n/a	-999	16	[0, 0, 0]	n/a	FR1	3	R1304N
