onset	duration	sample	trial_type	response_time	stim_file	item_name	serialpos	list	test	answer	experiment	session	subject
0.0	3.666	2041	INSTRUCT_START	n/a	n/a	n/a	-999	-999	[0, 0, 0]	n/a	FR1	0	R1304N
3.666	10.052	5706	INSTRUCT_END	n/a	n/a	n/a	-999	-999	[0, 0, 0]	n/a	FR1	0	R1304N
13.718	21.645	15758	MIC TEST_START	n/a	n/a	n/a	-999	-999	[0, 0, 0]	n/a	FR1	0	R1304N
35.363	0.009	37402	MIC TEST_END	n/a	n/a	n/a	-999	-999	[0, 0, 0]	n/a	FR1	0	R1304N
35.372	0.001	37411	TRIAL_START	n/a	n/a	n/a	-999	-1	[0, 0, 0]	n/a	FR1	0	R1304N
35.373	0.0	37412	TRIAL	n/a	n/a	n/a	-999	-1	[0, 0, 0]	n/a	FR1	0	R1304N
35.373	0.947	37412	WAITING_START	n/a	n/a	n/a	-999	-1	[0, 0, 0]	n/a	FR1	0	R1304N
36.32	0.0	38359	COUNTDOWN_START	n/a	n/a	n/a	-999	-1	[0, 0, 0]	n/a	FR1	0	R1304N
36.32	10.43	38359	WAITING_END	n/a	n/a	n/a	-999	-1	[0, 0, 0]	n/a	FR1	0	R1304N
46.75	0.0	48789	COUNTDOWN_END	n/a	n/a	n/a	-999	-1	[0, 0, 0]	n/a	FR1	0	R1304N
46.75	1.023	48789	ORIENT_START	n/a	n/a	n/a	-999	-1	[0, 0, 0]	n/a	FR1	0	R1304N
47.773	0.0	49812	ORIENT_END	n/a	n/a	n/a	-999	-1	[0, 0, 0]	n/a	FR1	0	R1304N
47.773	0.773	49812	ENCODING_START	n/a	n/a	n/a	-999	-1	[0, 0, 0]	n/a	FR1	0	R1304N
48.546	1.627	50585	WORD	n/a	n/a	RING	1	-1	[0, 0, 0]	n/a	FR1	0	R1304N
50.173	0.792	52212	WORD_OFF	n/a	n/a	RING	1	-1	[0, 0, 0]	n/a	FR1	0	R1304N
50.965	1.625	53004	WORD	n/a	n/a	TONGUE	2	-1	[0, 0, 0]	n/a	FR1	0	R1304N
52.59	0.92	54628	WORD_OFF	n/a	n/a	TONGUE	2	-1	[0, 0, 0]	n/a	FR1	0	R1304N
53.51	1.631	55548	WORD	n/a	n/a	BEAM	3	-1	[0, 0, 0]	n/a	FR1	0	R1304N
55.141	1.021	57179	WORD_OFF	n/a	n/a	BEAM	3	-1	[0, 0, 0]	n/a	FR1	0	R1304N
56.162	1.629	58200	WORD	n/a	n/a	FLOOD	4	-1	[0, 0, 0]	n/a	FR1	0	R1304N
57.791	0.788	59829	WORD_OFF	n/a	n/a	FLOOD	4	-1	[0, 0, 0]	n/a	FR1	0	R1304N
58.579	1.629	60617	WORD	n/a	n/a	WAGON	5	-1	[0, 0, 0]	n/a	FR1	0	R1304N
60.208	0.883	62246	WORD_OFF	n/a	n/a	WAGON	5	-1	[0, 0, 0]	n/a	FR1	0	R1304N
61.091	1.634	63129	WORD	n/a	n/a	RHINO	6	-1	[0, 0, 0]	n/a	FR1	0	R1304N
62.725	1.0	64763	WORD_OFF	n/a	n/a	RHINO	6	-1	[0, 0, 0]	n/a	FR1	0	R1304N
63.725	1.633	65763	WORD	n/a	n/a	CAMEL	7	-1	[0, 0, 0]	n/a	FR1	0	R1304N
65.358	0.768	67396	WORD_OFF	n/a	n/a	CAMEL	7	-1	[0, 0, 0]	n/a	FR1	0	R1304N
66.126	1.633	68164	WORD	n/a	n/a	WATCH	8	-1	[0, 0, 0]	n/a	FR1	0	R1304N
67.759	0.764	69797	WORD_OFF	n/a	n/a	WATCH	8	-1	[0, 0, 0]	n/a	FR1	0	R1304N
68.523	1.637	70561	WORD	n/a	n/a	ATTIC	9	-1	[0, 0, 0]	n/a	FR1	0	R1304N
70.16	1.143	72198	WORD_OFF	n/a	n/a	ATTIC	9	-1	[0, 0, 0]	n/a	FR1	0	R1304N
71.303	1.624	73341	WORD	n/a	n/a	CHEST	10	-1	[0, 0, 0]	n/a	FR1	0	R1304N
72.927	1.05	74965	WORD_OFF	n/a	n/a	CHEST	10	-1	[0, 0, 0]	n/a	FR1	0	R1304N
73.977	1.634	76015	WORD	n/a	n/a	COTTON	11	-1	[0, 0, 0]	n/a	FR1	0	R1304N
75.611	1.053	77649	WORD_OFF	n/a	n/a	COTTON	11	-1	[0, 0, 0]	n/a	FR1	0	R1304N
76.664	1.629	78702	WORD	n/a	n/a	IRON	12	-1	[0, 0, 0]	n/a	FR1	0	R1304N
78.293	0.001	80330	WORD_OFF	n/a	n/a	IRON	12	-1	[0, 0, 0]	n/a	FR1	0	R1304N
78.294	0.0	80331	ENCODING_END	n/a	n/a	n/a	-999	-1	[0, 0, 0]	n/a	FR1	0	R1304N
78.294	0.0	80331	DISTRACT_START	n/a	n/a	n/a	-999	-1	[0, 0, 0]	n/a	FR1	0	R1304N
78.294	0.016	80331	START	n/a	n/a	n/a	-999	-1	[-999, -999, -999]	n/a	FR1	0	R1304N
78.31	10.653	80347	PROB	10.653	n/a	n/a	-999	-1	[4, 7, 4]	6	FR1	0	R1304N
88.963	9.557	91000	PROB	9.557	n/a	n/a	-999	-1	[5, 8, 3]	6	FR1	0	R1304N
98.52	0.011	100557	STOP	n/a	n/a	n/a	-999	-1	[-999, -999, -999]	n/a	FR1	0	R1304N
98.531	0.55	100568	DISTRACT_END	n/a	n/a	n/a	-999	-1	[0, 0, 0]	n/a	FR1	0	R1304N
99.081	1.7	101118	RETRIEVAL_ORIENT_START	n/a	n/a	n/a	-999	-1	[0, 0, 0]	n/a	FR1	0	R1304N
100.781	0.001	102818	RETRIEVAL_ORIENT_END	n/a	n/a	n/a	-999	-1	[0, 0, 0]	n/a	FR1	0	R1304N
100.782	5.802	102819	REC_START	n/a	n/a	n/a	-999	-1	[0, 0, 0]	n/a	FR1	0	R1304N
106.584	0.916	108620	REC_WORD	0.916	n/a	IRON	-999	-1	[0, 0, 0]	n/a	FR1	0	R1304N
107.5	4.42	109536	REC_WORD	4.42	n/a	FLOOD	-999	-1	[0, 0, 0]	n/a	FR1	0	R1304N
111.92	5.598	113956	REC_WORD	5.598	n/a	WATCH	-999	-1	[0, 0, 0]	n/a	FR1	0	R1304N
117.518	2.064	119554	REC_WORD	2.064	n/a	COTTON	-999	-1	[0, 0, 0]	n/a	FR1	0	R1304N
119.582	0.46	121618	REC_WORD_VV	0.46	n/a	<>	-999	-1	[0, 0, 0]	n/a	FR1	0	R1304N
120.042	6.315	122078	REC_WORD	6.315	n/a	FLOOD	-999	-1	[0, 0, 0]	n/a	FR1	0	R1304N
126.357	3.708	128392	REC_WORD	3.708	n/a	RHINO	-999	-1	[0, 0, 0]	n/a	FR1	0	R1304N
130.065	0.728	132100	REC_WORD_VV	0.728	n/a	<>	-999	-1	[0, 0, 0]	n/a	FR1	0	R1304N
130.793	0.0	132828	REC_END	n/a	n/a	n/a	-999	-1	[0, 0, 0]	n/a	FR1	0	R1304N
130.793	28.732	132828	PRACTICE_POST_INSTRUCT_START	n/a	n/a	n/a	-999	-1	[0, 0, 0]	n/a	FR1	0	R1304N
159.525	0.0	161559	TRIAL_END	n/a	n/a	n/a	-999	-1	[0, 0, 0]	n/a	FR1	0	R1304N
159.525	0.017	161559	PRACTICE_POST_INSTRUCT_END	n/a	n/a	n/a	-999	-1	[0, 0, 0]	n/a	FR1	0	R1304N
159.542	0.001	161576	TRIAL_START	n/a	n/a	n/a	-999	1	[0, 0, 0]	n/a	FR1	0	R1304N
159.543	0.0	161577	TRIAL	n/a	n/a	n/a	-999	1	[0, 0, 0]	n/a	FR1	0	R1304N
159.543	9.083	161577	WAITING_START	n/a	n/a	n/a	-999	1	[0, 0, 0]	n/a	FR1	0	R1304N
168.626	0.001	170660	WAITING_END	n/a	n/a	n/a	-999	1	[0, 0, 0]	n/a	FR1	0	R1304N
168.627	10.429	170661	COUNTDOWN_START	n/a	n/a	n/a	-999	1	[0, 0, 0]	n/a	FR1	0	R1304N
179.056	0.0	181089	COUNTDOWN_END	n/a	n/a	n/a	-999	1	[0, 0, 0]	n/a	FR1	0	R1304N
179.056	1.222	181089	ORIENT_START	n/a	n/a	n/a	-999	1	[0, 0, 0]	n/a	FR1	0	R1304N
180.278	0.0	182311	ENCODING_START	n/a	n/a	n/a	-999	1	[0, 0, 0]	n/a	FR1	0	R1304N
180.278	1.149	182311	ORIENT_END	n/a	n/a	n/a	-999	1	[0, 0, 0]	n/a	FR1	0	R1304N
181.427	1.635	183460	WORD	n/a	n/a	CONE	1	1	[0, 0, 0]	n/a	FR1	0	R1304N
183.062	1.06	185095	WORD_OFF	n/a	n/a	CONE	1	1	[0, 0, 0]	n/a	FR1	0	R1304N
184.122	1.623	186155	WORD	n/a	n/a	ROOM	2	1	[0, 0, 0]	n/a	FR1	0	R1304N
185.745	1.023	187778	WORD_OFF	n/a	n/a	ROOM	2	1	[0, 0, 0]	n/a	FR1	0	R1304N
186.768	1.628	188801	WORD	n/a	n/a	FISH	3	1	[0, 0, 0]	n/a	FR1	0	R1304N
188.396	0.859	190429	WORD_OFF	n/a	n/a	FISH	3	1	[0, 0, 0]	n/a	FR1	0	R1304N
189.255	1.625	191288	WORD	n/a	n/a	HAWK	4	1	[0, 0, 0]	n/a	FR1	0	R1304N
190.88	0.834	192913	WORD_OFF	n/a	n/a	HAWK	4	1	[0, 0, 0]	n/a	FR1	0	R1304N
191.714	1.632	193747	WORD	n/a	n/a	PLATE	5	1	[0, 0, 0]	n/a	FR1	0	R1304N
193.346	1.055	195379	WORD_OFF	n/a	n/a	PLATE	5	1	[0, 0, 0]	n/a	FR1	0	R1304N
194.401	1.63	196434	WORD	n/a	n/a	DIME	6	1	[0, 0, 0]	n/a	FR1	0	R1304N
196.031	1.132	198064	WORD_OFF	n/a	n/a	DIME	6	1	[0, 0, 0]	n/a	FR1	0	R1304N
197.163	1.635	199196	WORD	n/a	n/a	BOARD	7	1	[0, 0, 0]	n/a	FR1	0	R1304N
198.798	0.753	200831	WORD_OFF	n/a	n/a	BOARD	7	1	[0, 0, 0]	n/a	FR1	0	R1304N
199.551	1.63	201583	WORD	n/a	n/a	BAND	8	1	[0, 0, 0]	n/a	FR1	0	R1304N
201.181	1.134	203213	WORD_OFF	n/a	n/a	BAND	8	1	[0, 0, 0]	n/a	FR1	0	R1304N
202.315	1.617	204347	WORD	n/a	n/a	PASTE	9	1	[0, 0, 0]	n/a	FR1	0	R1304N
203.932	1.115	205964	WORD_OFF	n/a	n/a	PASTE	9	1	[0, 0, 0]	n/a	FR1	0	R1304N
205.047	1.635	207079	WORD	n/a	n/a	FRUIT	10	1	[0, 0, 0]	n/a	FR1	0	R1304N
206.682	0.849	208714	WORD_OFF	n/a	n/a	FRUIT	10	1	[0, 0, 0]	n/a	FR1	0	R1304N
207.531	1.635	209563	WORD	n/a	n/a	ARM	11	1	[0, 0, 0]	n/a	FR1	0	R1304N
209.166	0.806	211198	WORD_OFF	n/a	n/a	ARM	11	1	[0, 0, 0]	n/a	FR1	0	R1304N
209.972	1.628	212004	WORD	n/a	n/a	ROAD	12	1	[0, 0, 0]	n/a	FR1	0	R1304N
211.6	0.0	213632	ENCODING_END	n/a	n/a	n/a	-999	1	[0, 0, 0]	n/a	FR1	0	R1304N
211.6	0.0	213632	DISTRACT_START	n/a	n/a	n/a	-999	1	[0, 0, 0]	n/a	FR1	0	R1304N
211.6	0.001	213632	WORD_OFF	n/a	n/a	ROAD	12	1	[0, 0, 0]	n/a	FR1	0	R1304N
211.601	0.015	213633	START	n/a	n/a	n/a	-999	1	[-999, -999, -999]	n/a	FR1	0	R1304N
211.616	10.485	213648	PROB	10.485	n/a	n/a	-999	1	[8, 3, 2]	5	FR1	0	R1304N
222.101	9.603	224133	PROB	9.603	n/a	n/a	-999	1	[7, 2, 5]	7	FR1	0	R1304N
231.704	0.016	233735	STOP	n/a	n/a	n/a	-999	1	[-999, -999, -999]	n/a	FR1	0	R1304N
231.72	0.672	233751	DISTRACT_END	n/a	n/a	n/a	-999	1	[0, 0, 0]	n/a	FR1	0	R1304N
232.392	1.678	234423	RETRIEVAL_ORIENT_START	n/a	n/a	n/a	-999	1	[0, 0, 0]	n/a	FR1	0	R1304N
234.07	0.0	236101	RETRIEVAL_ORIENT_END	n/a	n/a	n/a	-999	1	[0, 0, 0]	n/a	FR1	0	R1304N
234.07	1.118	236101	REC_START	n/a	n/a	n/a	-999	1	[0, 0, 0]	n/a	FR1	0	R1304N
235.188	16.703	237219	REC_WORD_VV	16.703	n/a	<>	-999	1	[0, 0, 0]	n/a	FR1	0	R1304N
251.891	1.0	253921	REC_WORD_VV	1.0	n/a	<>	-999	1	[0, 0, 0]	n/a	FR1	0	R1304N
252.891	2.263	254921	REC_WORD_VV	2.263	n/a	<>	-999	1	[0, 0, 0]	n/a	FR1	0	R1304N
255.154	0.504	257184	REC_WORD_VV	0.504	n/a	<>	-999	1	[0, 0, 0]	n/a	FR1	0	R1304N
255.658	1.502	257688	REC_WORD	1.502	n/a	VINYL	-999	1	[0, 0, 0]	n/a	FR1	0	R1304N
257.16	6.924	259190	REC_WORD_VV	6.924	n/a	<>	-999	1	[0, 0, 0]	n/a	FR1	0	R1304N
264.084	0.0	266114	REC_END	n/a	n/a	n/a	-999	1	[0, 0, 0]	n/a	FR1	0	R1304N
264.084	0.014	266114	TRIAL_END	n/a	n/a	n/a	-999	1	[0, 0, 0]	n/a	FR1	0	R1304N
264.098	0.0	266128	TRIAL_START	n/a	n/a	n/a	-999	2	[0, 0, 0]	n/a	FR1	0	R1304N
264.098	0.0	266128	TRIAL	n/a	n/a	n/a	-999	2	[0, 0, 0]	n/a	FR1	0	R1304N
264.098	12.879	266128	WAITING_START	n/a	n/a	n/a	-999	2	[0, 0, 0]	n/a	FR1	0	R1304N
276.977	0.001	279006	WAITING_END	n/a	n/a	n/a	-999	2	[0, 0, 0]	n/a	FR1	0	R1304N
276.978	10.429	279007	COUNTDOWN_START	n/a	n/a	n/a	-999	2	[0, 0, 0]	n/a	FR1	0	R1304N
287.407	0.0	289436	ORIENT_START	n/a	n/a	n/a	-999	2	[0, 0, 0]	n/a	FR1	0	R1304N
287.407	1.022	289436	COUNTDOWN_END	n/a	n/a	n/a	-999	2	[0, 0, 0]	n/a	FR1	0	R1304N
288.429	0.0	290458	ORIENT_END	n/a	n/a	n/a	-999	2	[0, 0, 0]	n/a	FR1	0	R1304N
288.429	1.01	290458	ENCODING_START	n/a	n/a	n/a	-999	2	[0, 0, 0]	n/a	FR1	0	R1304N
289.439	1.624	291468	WORD	n/a	n/a	BUSH	1	2	[0, 0, 0]	n/a	FR1	0	R1304N
291.063	0.803	293092	WORD_OFF	n/a	n/a	BUSH	1	2	[0, 0, 0]	n/a	FR1	0	R1304N
291.866	1.631	293895	WORD	n/a	n/a	JET	2	2	[0, 0, 0]	n/a	FR1	0	R1304N
293.497	0.882	295526	WORD_OFF	n/a	n/a	JET	2	2	[0, 0, 0]	n/a	FR1	0	R1304N
294.379	1.635	296408	WORD	n/a	n/a	SPARK	3	2	[0, 0, 0]	n/a	FR1	0	R1304N
296.014	0.986	298043	WORD_OFF	n/a	n/a	SPARK	3	2	[0, 0, 0]	n/a	FR1	0	R1304N
297.0	1.631	299028	WORD	n/a	n/a	CAT	4	2	[0, 0, 0]	n/a	FR1	0	R1304N
298.631	0.813	300659	WORD_OFF	n/a	n/a	CAT	4	2	[0, 0, 0]	n/a	FR1	0	R1304N
299.444	1.637	301472	WORD	n/a	n/a	OAR	5	2	[0, 0, 0]	n/a	FR1	0	R1304N
301.081	1.083	303109	WORD_OFF	n/a	n/a	OAR	5	2	[0, 0, 0]	n/a	FR1	0	R1304N
302.164	1.634	304192	WORD	n/a	n/a	BOY	6	2	[0, 0, 0]	n/a	FR1	0	R1304N
303.798	0.9	305826	WORD_OFF	n/a	n/a	BOY	6	2	[0, 0, 0]	n/a	FR1	0	R1304N
304.698	1.633	306726	WORD	n/a	n/a	LAND	7	2	[0, 0, 0]	n/a	FR1	0	R1304N
306.331	0.877	308359	WORD_OFF	n/a	n/a	LAND	7	2	[0, 0, 0]	n/a	FR1	0	R1304N
307.208	1.625	309236	WORD	n/a	n/a	FORT	8	2	[0, 0, 0]	n/a	FR1	0	R1304N
308.833	0.793	310861	WORD_OFF	n/a	n/a	FORT	8	2	[0, 0, 0]	n/a	FR1	0	R1304N
309.626	1.624	311654	WORD	n/a	n/a	PANTS	9	2	[0, 0, 0]	n/a	FR1	0	R1304N
311.25	0.854	313278	WORD_OFF	n/a	n/a	PANTS	9	2	[0, 0, 0]	n/a	FR1	0	R1304N
312.104	1.629	314132	WORD	n/a	n/a	ICE	10	2	[0, 0, 0]	n/a	FR1	0	R1304N
313.733	1.108	315761	WORD_OFF	n/a	n/a	ICE	10	2	[0, 0, 0]	n/a	FR1	0	R1304N
314.841	1.626	316869	WORD	n/a	n/a	EEL	11	2	[0, 0, 0]	n/a	FR1	0	R1304N
316.467	1.064	318495	WORD_OFF	n/a	n/a	EEL	11	2	[0, 0, 0]	n/a	FR1	0	R1304N
317.531	1.637	319559	WORD	n/a	n/a	RAKE	12	2	[0, 0, 0]	n/a	FR1	0	R1304N
319.168	0.0	321196	WORD_OFF	n/a	n/a	RAKE	12	2	[0, 0, 0]	n/a	FR1	0	R1304N
319.168	0.0	321196	ENCODING_END	n/a	n/a	n/a	-999	2	[0, 0, 0]	n/a	FR1	0	R1304N
319.168	0.001	321196	DISTRACT_START	n/a	n/a	n/a	-999	2	[0, 0, 0]	n/a	FR1	0	R1304N
319.169	0.015	321197	START	n/a	n/a	n/a	-999	2	[-999, -999, -999]	n/a	FR1	0	R1304N
319.184	13.302	321212	PROB	13.302	n/a	n/a	-999	2	[6, 1, 9]	4	FR1	0	R1304N
332.486	2.051	334513	PROB	2.051	n/a	n/a	-999	2	[8, 2, 1]	3	FR1	0	R1304N
334.537	15.503	336564	PROB	15.503	n/a	n/a	-999	2	[2, 6, 5]	7	FR1	0	R1304N
350.04	0.016	352066	STOP	n/a	n/a	n/a	-999	2	[-999, -999, -999]	n/a	FR1	0	R1304N
350.056	0.625	352082	DISTRACT_END	n/a	n/a	n/a	-999	2	[0, 0, 0]	n/a	FR1	0	R1304N
350.681	1.691	352707	RETRIEVAL_ORIENT_START	n/a	n/a	n/a	-999	2	[0, 0, 0]	n/a	FR1	0	R1304N
352.372	0.0	354398	RETRIEVAL_ORIENT_END	n/a	n/a	n/a	-999	2	[0, 0, 0]	n/a	FR1	0	R1304N
352.372	3.31	354398	REC_START	n/a	n/a	n/a	-999	2	[0, 0, 0]	n/a	FR1	0	R1304N
355.682	2.328	357708	REC_WORD_VV	2.328	n/a	<>	-999	2	[0, 0, 0]	n/a	FR1	0	R1304N
358.01	1.0	360036	REC_WORD	1.0	n/a	IRON	-999	2	[0, 0, 0]	n/a	FR1	0	R1304N
359.01	11.246	361036	REC_WORD_VV	11.246	n/a	<>	-999	2	[0, 0, 0]	n/a	FR1	0	R1304N
370.256	1.824	372281	REC_WORD_VV	1.824	n/a	<>	-999	2	[0, 0, 0]	n/a	FR1	0	R1304N
372.08	2.111	374105	REC_WORD_VV	2.111	n/a	<>	-999	2	[0, 0, 0]	n/a	FR1	0	R1304N
374.191	0.767	376216	REC_WORD_VV	0.767	n/a	<>	-999	2	[0, 0, 0]	n/a	FR1	0	R1304N
374.958	2.556	376983	REC_WORD	2.556	n/a	CAT	4	2	[0, 0, 0]	n/a	FR1	0	R1304N
377.514	3.369	379539	REC_WORD_VV	3.369	n/a	<>	-999	2	[0, 0, 0]	n/a	FR1	0	R1304N
380.883	1.504	382908	REC_WORD_VV	1.504	n/a	<>	-999	2	[0, 0, 0]	n/a	FR1	0	R1304N
382.387	0.0	384412	REC_END	n/a	n/a	n/a	-999	2	[0, 0, 0]	n/a	FR1	0	R1304N
382.387	0.015	384412	TRIAL_END	n/a	n/a	n/a	-999	2	[0, 0, 0]	n/a	FR1	0	R1304N
382.402	0.0	384427	TRIAL	n/a	n/a	n/a	-999	3	[0, 0, 0]	n/a	FR1	0	R1304N
382.402	0.0	384427	WAITING_START	n/a	n/a	n/a	-999	3	[0, 0, 0]	n/a	FR1	0	R1304N
382.402	2.677	384427	TRIAL_START	n/a	n/a	n/a	-999	3	[0, 0, 0]	n/a	FR1	0	R1304N
385.079	0.0	387104	WAITING_END	n/a	n/a	n/a	-999	3	[0, 0, 0]	n/a	FR1	0	R1304N
385.079	10.429	387104	COUNTDOWN_START	n/a	n/a	n/a	-999	3	[0, 0, 0]	n/a	FR1	0	R1304N
395.508	0.0	397532	COUNTDOWN_END	n/a	n/a	n/a	-999	3	[0, 0, 0]	n/a	FR1	0	R1304N
395.508	1.172	397532	ORIENT_START	n/a	n/a	n/a	-999	3	[0, 0, 0]	n/a	FR1	0	R1304N
396.68	0.001	398704	ORIENT_END	n/a	n/a	n/a	-999	3	[0, 0, 0]	n/a	FR1	0	R1304N
396.681	1.097	398705	ENCODING_START	n/a	n/a	n/a	-999	3	[0, 0, 0]	n/a	FR1	0	R1304N
397.778	1.636	399802	WORD	n/a	n/a	DOCK	1	3	[0, 0, 0]	n/a	FR1	0	R1304N
399.414	0.822	401438	WORD_OFF	n/a	n/a	DOCK	1	3	[0, 0, 0]	n/a	FR1	0	R1304N
400.236	1.629	402260	WORD	n/a	n/a	PEA	2	3	[0, 0, 0]	n/a	FR1	0	R1304N
401.865	0.934	403889	WORD_OFF	n/a	n/a	PEA	2	3	[0, 0, 0]	n/a	FR1	0	R1304N
402.799	1.633	404823	WORD	n/a	n/a	DESK	3	3	[0, 0, 0]	n/a	FR1	0	R1304N
404.432	0.956	406456	WORD_OFF	n/a	n/a	DESK	3	3	[0, 0, 0]	n/a	FR1	0	R1304N
405.388	1.628	407412	WORD	n/a	n/a	WING	4	3	[0, 0, 0]	n/a	FR1	0	R1304N
407.016	1.119	409040	WORD_OFF	n/a	n/a	WING	4	3	[0, 0, 0]	n/a	FR1	0	R1304N
408.135	1.631	410159	WORD	n/a	n/a	HAT	5	3	[0, 0, 0]	n/a	FR1	0	R1304N
409.766	0.832	411790	WORD_OFF	n/a	n/a	HAT	5	3	[0, 0, 0]	n/a	FR1	0	R1304N
410.598	1.635	412622	WORD	n/a	n/a	STORM	6	3	[0, 0, 0]	n/a	FR1	0	R1304N
412.233	0.806	414257	WORD_OFF	n/a	n/a	STORM	6	3	[0, 0, 0]	n/a	FR1	0	R1304N
413.039	1.628	415063	WORD	n/a	n/a	BEACH	7	3	[0, 0, 0]	n/a	FR1	0	R1304N
414.667	0.95	416691	WORD_OFF	n/a	n/a	BEACH	7	3	[0, 0, 0]	n/a	FR1	0	R1304N
415.617	1.634	417641	WORD	n/a	n/a	SHIP	8	3	[0, 0, 0]	n/a	FR1	0	R1304N
417.251	0.886	419275	WORD_OFF	n/a	n/a	SHIP	8	3	[0, 0, 0]	n/a	FR1	0	R1304N
418.137	1.63	420161	WORD	n/a	n/a	APE	9	3	[0, 0, 0]	n/a	FR1	0	R1304N
419.767	0.934	421790	WORD_OFF	n/a	n/a	APE	9	3	[0, 0, 0]	n/a	FR1	0	R1304N
420.701	1.633	422724	WORD	n/a	n/a	CLIFF	10	3	[0, 0, 0]	n/a	FR1	0	R1304N
422.334	0.831	424357	WORD_OFF	n/a	n/a	CLIFF	10	3	[0, 0, 0]	n/a	FR1	0	R1304N
423.165	1.637	425188	WORD	n/a	n/a	NEST	11	3	[0, 0, 0]	n/a	FR1	0	R1304N
424.802	0.958	426825	WORD_OFF	n/a	n/a	NEST	11	3	[0, 0, 0]	n/a	FR1	0	R1304N
425.76	1.626	427783	WORD	n/a	n/a	WHEEL	12	3	[0, 0, 0]	n/a	FR1	0	R1304N
427.386	0.0	429409	WORD_OFF	n/a	n/a	WHEEL	12	3	[0, 0, 0]	n/a	FR1	0	R1304N
427.386	0.0	429409	ENCODING_END	n/a	n/a	n/a	-999	3	[0, 0, 0]	n/a	FR1	0	R1304N
427.386	0.001	429409	DISTRACT_START	n/a	n/a	n/a	-999	3	[0, 0, 0]	n/a	FR1	0	R1304N
427.387	0.015	429410	START	n/a	n/a	n/a	-999	3	[-999, -999, -999]	n/a	FR1	0	R1304N
427.402	9.151	429425	PROB	9.151	n/a	n/a	-999	3	[4, 4, 9]	8	FR1	0	R1304N
436.553	11.647	438576	PROB	11.647	n/a	n/a	-999	3	[9, 2, 3]	4	FR1	0	R1304N
448.2	0.022	450222	STOP	n/a	n/a	n/a	-999	3	[-999, -999, -999]	n/a	FR1	0	R1304N
448.222	0.646	450244	DISTRACT_END	n/a	n/a	n/a	-999	3	[0, 0, 0]	n/a	FR1	0	R1304N
448.868	1.655	450890	RETRIEVAL_ORIENT_START	n/a	n/a	n/a	-999	3	[0, 0, 0]	n/a	FR1	0	R1304N
450.523	0.0	452545	RETRIEVAL_ORIENT_END	n/a	n/a	n/a	-999	3	[0, 0, 0]	n/a	FR1	0	R1304N
450.523	3.819	452545	REC_START	n/a	n/a	n/a	-999	3	[0, 0, 0]	n/a	FR1	0	R1304N
454.342	1.772	456364	REC_WORD_VV	1.772	n/a	<>	-999	3	[0, 0, 0]	n/a	FR1	0	R1304N
456.114	2.363	458136	REC_WORD	2.363	n/a	DESK	3	3	[0, 0, 0]	n/a	FR1	0	R1304N
458.477	5.336	460499	REC_WORD_VV	5.336	n/a	<>	-999	3	[0, 0, 0]	n/a	FR1	0	R1304N
463.813	2.876	465835	REC_WORD	2.876	n/a	APE	9	3	[0, 0, 0]	n/a	FR1	0	R1304N
466.689	2.385	468711	REC_WORD	2.385	n/a	EEL	-999	3	[0, 0, 0]	n/a	FR1	0	R1304N
469.074	5.159	471095	REC_WORD_VV	5.159	n/a	<>	-999	3	[0, 0, 0]	n/a	FR1	0	R1304N
474.233	6.304	476254	REC_WORD_VV	6.304	n/a	<>	-999	3	[0, 0, 0]	n/a	FR1	0	R1304N
480.537	0.0	482558	TRIAL_END	n/a	n/a	n/a	-999	3	[0, 0, 0]	n/a	FR1	0	R1304N
480.537	0.014	482558	REC_END	n/a	n/a	n/a	-999	3	[0, 0, 0]	n/a	FR1	0	R1304N
480.551	0.0	482572	TRIAL_START	n/a	n/a	n/a	-999	4	[0, 0, 0]	n/a	FR1	0	R1304N
480.551	0.0	482572	TRIAL	n/a	n/a	n/a	-999	4	[0, 0, 0]	n/a	FR1	0	R1304N
480.551	11.778	482572	WAITING_START	n/a	n/a	n/a	-999	4	[0, 0, 0]	n/a	FR1	0	R1304N
492.329	0.0	494349	WAITING_END	n/a	n/a	n/a	-999	4	[0, 0, 0]	n/a	FR1	0	R1304N
492.329	10.428	494349	COUNTDOWN_START	n/a	n/a	n/a	-999	4	[0, 0, 0]	n/a	FR1	0	R1304N
502.757	0.0	504777	COUNTDOWN_END	n/a	n/a	n/a	-999	4	[0, 0, 0]	n/a	FR1	0	R1304N
502.757	1.258	504777	ORIENT_START	n/a	n/a	n/a	-999	4	[0, 0, 0]	n/a	FR1	0	R1304N
504.015	0.0	506035	ENCODING_START	n/a	n/a	n/a	-999	4	[0, 0, 0]	n/a	FR1	0	R1304N
504.015	0.972	506035	ORIENT_END	n/a	n/a	n/a	-999	4	[0, 0, 0]	n/a	FR1	0	R1304N
504.987	1.628	507007	WORD	n/a	n/a	PIT	1	4	[0, 0, 0]	n/a	FR1	0	R1304N
506.615	0.774	508635	WORD_OFF	n/a	n/a	PIT	1	4	[0, 0, 0]	n/a	FR1	0	R1304N
507.389	1.627	509409	WORD	n/a	n/a	SKY	2	4	[0, 0, 0]	n/a	FR1	0	R1304N
509.016	0.919	511036	WORD_OFF	n/a	n/a	SKY	2	4	[0, 0, 0]	n/a	FR1	0	R1304N
509.935	1.631	511955	WORD	n/a	n/a	DRUM	3	4	[0, 0, 0]	n/a	FR1	0	R1304N
511.566	0.881	513586	WORD_OFF	n/a	n/a	DRUM	3	4	[0, 0, 0]	n/a	FR1	0	R1304N
512.447	1.636	514467	WORD	n/a	n/a	DOOR	4	4	[0, 0, 0]	n/a	FR1	0	R1304N
514.083	0.783	516103	WORD_OFF	n/a	n/a	DOOR	4	4	[0, 0, 0]	n/a	FR1	0	R1304N
514.866	1.634	516886	WORD	n/a	n/a	SPRING	5	4	[0, 0, 0]	n/a	FR1	0	R1304N
516.5	0.77	518519	WORD_OFF	n/a	n/a	SPRING	5	4	[0, 0, 0]	n/a	FR1	0	R1304N
517.27	1.614	519289	WORD	n/a	n/a	ROOT	6	4	[0, 0, 0]	n/a	FR1	0	R1304N
518.884	1.018	520903	WORD_OFF	n/a	n/a	ROOT	6	4	[0, 0, 0]	n/a	FR1	0	R1304N
519.902	1.632	521921	WORD	n/a	n/a	JUICE	7	4	[0, 0, 0]	n/a	FR1	0	R1304N
521.534	1.053	523553	WORD_OFF	n/a	n/a	JUICE	7	4	[0, 0, 0]	n/a	FR1	0	R1304N
522.587	1.631	524606	WORD	n/a	n/a	MOLE	8	4	[0, 0, 0]	n/a	FR1	0	R1304N
524.218	1.141	526237	WORD_OFF	n/a	n/a	MOLE	8	4	[0, 0, 0]	n/a	FR1	0	R1304N
525.359	1.609	527378	WORD	n/a	n/a	SHIRT	9	4	[0, 0, 0]	n/a	FR1	0	R1304N
526.968	0.915	528987	WORD_OFF	n/a	n/a	SHIRT	9	4	[0, 0, 0]	n/a	FR1	0	R1304N
527.883	1.636	529902	WORD	n/a	n/a	CHIEF	10	4	[0, 0, 0]	n/a	FR1	0	R1304N
529.519	1.014	531538	WORD_OFF	n/a	n/a	CHIEF	10	4	[0, 0, 0]	n/a	FR1	0	R1304N
530.533	1.637	532552	WORD	n/a	n/a	BOMB	11	4	[0, 0, 0]	n/a	FR1	0	R1304N
532.17	0.84	534189	WORD_OFF	n/a	n/a	BOMB	11	4	[0, 0, 0]	n/a	FR1	0	R1304N
533.01	1.627	535029	WORD	n/a	n/a	PIPE	12	4	[0, 0, 0]	n/a	FR1	0	R1304N
534.637	0.0	536656	WORD_OFF	n/a	n/a	PIPE	12	4	[0, 0, 0]	n/a	FR1	0	R1304N
534.637	0.0	536656	ENCODING_END	n/a	n/a	n/a	-999	4	[0, 0, 0]	n/a	FR1	0	R1304N
534.637	0.001	536656	DISTRACT_START	n/a	n/a	n/a	-999	4	[0, 0, 0]	n/a	FR1	0	R1304N
534.638	0.015	536657	START	n/a	n/a	n/a	-999	4	[-999, -999, -999]	n/a	FR1	0	R1304N
534.653	11.102	536672	PROB	11.102	n/a	n/a	-999	4	[1, 8, 2]	6	FR1	0	R1304N
545.755	2.684	547773	PROB	2.684	n/a	n/a	-999	4	[7, 6, 4]	4	FR1	0	R1304N
548.439	2.483	550457	PROB	2.483	n/a	n/a	-999	4	[7, 1, 4]	5	FR1	0	R1304N
550.922	11.534	552940	PROB	11.534	n/a	n/a	-999	4	[8, 7, 5]	6	FR1	0	R1304N
562.456	0.018	564474	STOP	n/a	n/a	n/a	-999	4	[-999, -999, -999]	n/a	FR1	0	R1304N
562.474	0.598	564492	DISTRACT_END	n/a	n/a	n/a	-999	4	[0, 0, 0]	n/a	FR1	0	R1304N
563.072	1.686	565090	RETRIEVAL_ORIENT_START	n/a	n/a	n/a	-999	4	[0, 0, 0]	n/a	FR1	0	R1304N
564.758	0.001	566776	RETRIEVAL_ORIENT_END	n/a	n/a	n/a	-999	4	[0, 0, 0]	n/a	FR1	0	R1304N
564.759	0.895	566777	REC_START	n/a	n/a	n/a	-999	4	[0, 0, 0]	n/a	FR1	0	R1304N
565.654	0.731	567671	REC_WORD_VV	0.731	n/a	<>	-999	4	[0, 0, 0]	n/a	FR1	0	R1304N
566.385	8.449	568402	REC_WORD	8.449	n/a	CLIFF	-999	4	[0, 0, 0]	n/a	FR1	0	R1304N
574.834	1.535	576851	REC_WORD	1.535	n/a	APE	-999	4	[0, 0, 0]	n/a	FR1	0	R1304N
576.369	9.945	578386	REC_WORD_VV	9.945	n/a	<>	-999	4	[0, 0, 0]	n/a	FR1	0	R1304N
586.314	8.456	588331	REC_WORD_VV	8.456	n/a	<>	-999	4	[0, 0, 0]	n/a	FR1	0	R1304N
594.77	0.0	596786	TRIAL_END	n/a	n/a	n/a	-999	4	[0, 0, 0]	n/a	FR1	0	R1304N
594.77	0.015	596786	REC_END	n/a	n/a	n/a	-999	4	[0, 0, 0]	n/a	FR1	0	R1304N
594.785	0.0	596801	TRIAL_START	n/a	n/a	n/a	-999	5	[0, 0, 0]	n/a	FR1	0	R1304N
594.785	0.0	596801	TRIAL	n/a	n/a	n/a	-999	5	[0, 0, 0]	n/a	FR1	0	R1304N
594.785	1.812	596801	WAITING_START	n/a	n/a	n/a	-999	5	[0, 0, 0]	n/a	FR1	0	R1304N
596.597	0.0	598613	WAITING_END	n/a	n/a	n/a	-999	5	[0, 0, 0]	n/a	FR1	0	R1304N
596.597	10.429	598613	COUNTDOWN_START	n/a	n/a	n/a	-999	5	[0, 0, 0]	n/a	FR1	0	R1304N
607.026	0.0	609042	COUNTDOWN_END	n/a	n/a	n/a	-999	5	[0, 0, 0]	n/a	FR1	0	R1304N
607.026	1.123	609042	ORIENT_START	n/a	n/a	n/a	-999	5	[0, 0, 0]	n/a	FR1	0	R1304N
608.149	0.0	610165	ORIENT_END	n/a	n/a	n/a	-999	5	[0, 0, 0]	n/a	FR1	0	R1304N
608.149	1.028	610165	ENCODING_START	n/a	n/a	n/a	-999	5	[0, 0, 0]	n/a	FR1	0	R1304N
609.177	1.622	611193	WORD	n/a	n/a	CLOCK	1	5	[0, 0, 0]	n/a	FR1	0	R1304N
610.799	0.786	612815	WORD_OFF	n/a	n/a	CLOCK	1	5	[0, 0, 0]	n/a	FR1	0	R1304N
611.585	1.631	613601	WORD	n/a	n/a	SHIELD	2	5	[0, 0, 0]	n/a	FR1	0	R1304N
613.216	1.001	615232	WORD_OFF	n/a	n/a	SHIELD	2	5	[0, 0, 0]	n/a	FR1	0	R1304N
614.217	1.633	616232	WORD	n/a	n/a	DRESS	3	5	[0, 0, 0]	n/a	FR1	0	R1304N
615.85	0.812	617865	WORD_OFF	n/a	n/a	DRESS	3	5	[0, 0, 0]	n/a	FR1	0	R1304N
616.662	1.621	618677	WORD	n/a	n/a	BEAK	4	5	[0, 0, 0]	n/a	FR1	0	R1304N
618.283	0.76	620298	WORD_OFF	n/a	n/a	BEAK	4	5	[0, 0, 0]	n/a	FR1	0	R1304N
619.043	1.624	621058	WORD	n/a	n/a	DEER	5	5	[0, 0, 0]	n/a	FR1	0	R1304N
620.667	1.096	622682	WORD_OFF	n/a	n/a	DEER	5	5	[0, 0, 0]	n/a	FR1	0	R1304N
621.763	1.62	623778	WORD	n/a	n/a	CRANE	6	5	[0, 0, 0]	n/a	FR1	0	R1304N
623.383	1.117	625398	WORD_OFF	n/a	n/a	CRANE	6	5	[0, 0, 0]	n/a	FR1	0	R1304N
624.5	1.635	626515	WORD	n/a	n/a	TOOL	7	5	[0, 0, 0]	n/a	FR1	0	R1304N
626.135	1.139	628150	WORD_OFF	n/a	n/a	TOOL	7	5	[0, 0, 0]	n/a	FR1	0	R1304N
627.274	1.628	629289	WORD	n/a	n/a	FARM	8	5	[0, 0, 0]	n/a	FR1	0	R1304N
628.902	1.04	630917	WORD_OFF	n/a	n/a	FARM	8	5	[0, 0, 0]	n/a	FR1	0	R1304N
629.942	1.627	631957	WORD	n/a	n/a	COUCH	9	5	[0, 0, 0]	n/a	FR1	0	R1304N
631.569	1.022	633584	WORD_OFF	n/a	n/a	COUCH	9	5	[0, 0, 0]	n/a	FR1	0	R1304N
632.591	1.629	634606	WORD	n/a	n/a	LEG	10	5	[0, 0, 0]	n/a	FR1	0	R1304N
634.22	1.124	636235	WORD_OFF	n/a	n/a	LEG	10	5	[0, 0, 0]	n/a	FR1	0	R1304N
635.344	1.626	637359	WORD	n/a	n/a	WORM	11	5	[0, 0, 0]	n/a	FR1	0	R1304N
636.97	0.786	638985	WORD_OFF	n/a	n/a	WORM	11	5	[0, 0, 0]	n/a	FR1	0	R1304N
637.756	1.631	639771	WORD	n/a	n/a	WOOD	12	5	[0, 0, 0]	n/a	FR1	0	R1304N
639.387	0.001	641401	WORD_OFF	n/a	n/a	WOOD	12	5	[0, 0, 0]	n/a	FR1	0	R1304N
639.388	0.0	641402	ENCODING_END	n/a	n/a	n/a	-999	5	[0, 0, 0]	n/a	FR1	0	R1304N
639.388	0.0	641402	DISTRACT_START	n/a	n/a	n/a	-999	5	[0, 0, 0]	n/a	FR1	0	R1304N
639.388	0.016	641402	START	n/a	n/a	n/a	-999	5	[-999, -999, -999]	n/a	FR1	0	R1304N
639.404	17.236	641418	PROB	17.236	n/a	n/a	-999	5	[3, 4, 2]	6	FR1	0	R1304N
656.64	13.056	658654	PROB	13.056	n/a	n/a	-999	5	[3, 4, 5]	9	FR1	0	R1304N
669.696	0.013	671709	STOP	n/a	n/a	n/a	-999	5	[-999, -999, -999]	n/a	FR1	0	R1304N
669.709	0.583	671722	DISTRACT_END	n/a	n/a	n/a	-999	5	[0, 0, 0]	n/a	FR1	0	R1304N
670.292	1.684	672305	RETRIEVAL_ORIENT_START	n/a	n/a	n/a	-999	5	[0, 0, 0]	n/a	FR1	0	R1304N
671.976	0.0	673989	RETRIEVAL_ORIENT_END	n/a	n/a	n/a	-999	5	[0, 0, 0]	n/a	FR1	0	R1304N
671.976	0.902	673989	REC_START	n/a	n/a	n/a	-999	5	[0, 0, 0]	n/a	FR1	0	R1304N
672.878	1.325	674891	REC_WORD_VV	1.325	n/a	<>	-999	5	[0, 0, 0]	n/a	FR1	0	R1304N
674.203	2.009	676216	REC_WORD	2.009	n/a	CRANE	6	5	[0, 0, 0]	n/a	FR1	0	R1304N
676.212	3.005	678225	REC_WORD	3.005	n/a	TOOL	7	5	[0, 0, 0]	n/a	FR1	0	R1304N
679.217	8.576	681230	REC_WORD_VV	8.576	n/a	<>	-999	5	[0, 0, 0]	n/a	FR1	0	R1304N
687.793	14.197	689805	REC_WORD	14.197	n/a	CHAIR	-999	5	[0, 0, 0]	n/a	FR1	0	R1304N
701.99	0.0	704002	REC_END	n/a	n/a	n/a	-999	5	[0, 0, 0]	n/a	FR1	0	R1304N
701.99	0.015	704002	TRIAL_END	n/a	n/a	n/a	-999	5	[0, 0, 0]	n/a	FR1	0	R1304N
702.005	0.001	704017	TRIAL_START	n/a	n/a	n/a	-999	6	[0, 0, 0]	n/a	FR1	0	R1304N
702.006	0.0	704018	TRIAL	n/a	n/a	n/a	-999	6	[0, 0, 0]	n/a	FR1	0	R1304N
702.006	3.291	704018	WAITING_START	n/a	n/a	n/a	-999	6	[0, 0, 0]	n/a	FR1	0	R1304N
705.297	0.001	707309	WAITING_END	n/a	n/a	n/a	-999	6	[0, 0, 0]	n/a	FR1	0	R1304N
705.298	10.429	707310	COUNTDOWN_START	n/a	n/a	n/a	-999	6	[0, 0, 0]	n/a	FR1	0	R1304N
715.727	0.0	717738	COUNTDOWN_END	n/a	n/a	n/a	-999	6	[0, 0, 0]	n/a	FR1	0	R1304N
715.727	1.206	717738	ORIENT_START	n/a	n/a	n/a	-999	6	[0, 0, 0]	n/a	FR1	0	R1304N
716.933	0.001	718944	ORIENT_END	n/a	n/a	n/a	-999	6	[0, 0, 0]	n/a	FR1	0	R1304N
716.934	1.112	718945	ENCODING_START	n/a	n/a	n/a	-999	6	[0, 0, 0]	n/a	FR1	0	R1304N
718.046	1.639	720057	WORD	n/a	n/a	ZOO	1	6	[0, 0, 0]	n/a	FR1	0	R1304N
719.685	1.083	721696	WORD_OFF	n/a	n/a	ZOO	1	6	[0, 0, 0]	n/a	FR1	0	R1304N
720.768	1.633	722779	WORD	n/a	n/a	CAKE	2	6	[0, 0, 0]	n/a	FR1	0	R1304N
722.401	1.027	724412	WORD_OFF	n/a	n/a	CAKE	2	6	[0, 0, 0]	n/a	FR1	0	R1304N
723.428	1.623	725439	WORD	n/a	n/a	STEM	3	6	[0, 0, 0]	n/a	FR1	0	R1304N
725.051	0.808	727062	WORD_OFF	n/a	n/a	STEM	3	6	[0, 0, 0]	n/a	FR1	0	R1304N
725.859	1.626	727870	WORD	n/a	n/a	STAIR	4	6	[0, 0, 0]	n/a	FR1	0	R1304N
727.485	0.885	729496	WORD_OFF	n/a	n/a	STAIR	4	6	[0, 0, 0]	n/a	FR1	0	R1304N
728.37	1.632	730381	WORD	n/a	n/a	SEED	5	6	[0, 0, 0]	n/a	FR1	0	R1304N
730.002	1.117	732013	WORD_OFF	n/a	n/a	SEED	5	6	[0, 0, 0]	n/a	FR1	0	R1304N
731.119	1.634	733130	WORD	n/a	n/a	SWORD	6	6	[0, 0, 0]	n/a	FR1	0	R1304N
732.753	0.787	734764	WORD_OFF	n/a	n/a	SWORD	6	6	[0, 0, 0]	n/a	FR1	0	R1304N
733.54	1.63	735551	WORD	n/a	n/a	TOAD	7	6	[0, 0, 0]	n/a	FR1	0	R1304N
735.17	0.944	737181	WORD_OFF	n/a	n/a	TOAD	7	6	[0, 0, 0]	n/a	FR1	0	R1304N
736.114	1.623	738125	WORD	n/a	n/a	JAIL	8	6	[0, 0, 0]	n/a	FR1	0	R1304N
737.737	1.006	739747	WORD_OFF	n/a	n/a	JAIL	8	6	[0, 0, 0]	n/a	FR1	0	R1304N
738.743	1.627	740753	WORD	n/a	n/a	TANK	9	6	[0, 0, 0]	n/a	FR1	0	R1304N
740.37	1.036	742380	WORD_OFF	n/a	n/a	TANK	9	6	[0, 0, 0]	n/a	FR1	0	R1304N
741.406	1.632	743416	WORD	n/a	n/a	SEAL	10	6	[0, 0, 0]	n/a	FR1	0	R1304N
743.038	0.774	745048	WORD_OFF	n/a	n/a	SEAL	10	6	[0, 0, 0]	n/a	FR1	0	R1304N
743.812	1.626	745822	WORD	n/a	n/a	CASH	11	6	[0, 0, 0]	n/a	FR1	0	R1304N
745.438	0.975	747448	WORD_OFF	n/a	n/a	CASH	11	6	[0, 0, 0]	n/a	FR1	0	R1304N
746.413	1.626	748423	WORD	n/a	n/a	CAPE	12	6	[0, 0, 0]	n/a	FR1	0	R1304N
748.039	0.0	750049	WORD_OFF	n/a	n/a	CAPE	12	6	[0, 0, 0]	n/a	FR1	0	R1304N
748.039	0.0	750049	ENCODING_END	n/a	n/a	n/a	-999	6	[0, 0, 0]	n/a	FR1	0	R1304N
748.039	0.001	750049	DISTRACT_START	n/a	n/a	n/a	-999	6	[0, 0, 0]	n/a	FR1	0	R1304N
748.04	0.015	750050	START	n/a	n/a	n/a	-999	6	[-999, -999, -999]	n/a	FR1	0	R1304N
748.055	12.802	750065	PROB	12.802	n/a	n/a	-999	6	[1, 7, 3]	5	FR1	0	R1304N
760.857	3.433	762866	PROB	3.433	n/a	n/a	-999	6	[9, 6, 8]	7	FR1	0	R1304N
764.29	6.957	766299	PROB	6.957	n/a	n/a	-999	6	[8, 9, 1]	8	FR1	0	R1304N
771.247	0.012	773256	STOP	n/a	n/a	n/a	-999	6	[-999, -999, -999]	n/a	FR1	0	R1304N
771.259	0.574	773268	DISTRACT_END	n/a	n/a	n/a	-999	6	[0, 0, 0]	n/a	FR1	0	R1304N
771.833	1.626	773842	RETRIEVAL_ORIENT_START	n/a	n/a	n/a	-999	6	[0, 0, 0]	n/a	FR1	0	R1304N
773.459	0.001	775468	RETRIEVAL_ORIENT_END	n/a	n/a	n/a	-999	6	[0, 0, 0]	n/a	FR1	0	R1304N
773.46	29.884	775469	REC_START	n/a	n/a	n/a	-999	6	[0, 0, 0]	n/a	FR1	0	R1304N
803.344	0.127	805352	REC_WORD_VV	0.127	n/a	<>	-999	6	[0, 0, 0]	n/a	FR1	0	R1304N
803.471	0.0	805479	REC_END	n/a	n/a	n/a	-999	6	[0, 0, 0]	n/a	FR1	0	R1304N
803.471	0.015	805479	TRIAL_END	n/a	n/a	n/a	-999	6	[0, 0, 0]	n/a	FR1	0	R1304N
803.486	0.001	805494	TRIAL_START	n/a	n/a	n/a	-999	7	[0, 0, 0]	n/a	FR1	0	R1304N
803.487	0.0	805495	TRIAL	n/a	n/a	n/a	-999	7	[0, 0, 0]	n/a	FR1	0	R1304N
803.487	23.115	805495	WAITING_START	n/a	n/a	n/a	-999	7	[0, 0, 0]	n/a	FR1	0	R1304N
826.602	0.0	828609	COUNTDOWN_START	n/a	n/a	n/a	-999	7	[0, 0, 0]	n/a	FR1	0	R1304N
826.602	10.428	828609	WAITING_END	n/a	n/a	n/a	-999	7	[0, 0, 0]	n/a	FR1	0	R1304N
837.03	0.001	839036	COUNTDOWN_END	n/a	n/a	n/a	-999	7	[0, 0, 0]	n/a	FR1	0	R1304N
837.031	1.206	839037	ORIENT_START	n/a	n/a	n/a	-999	7	[0, 0, 0]	n/a	FR1	0	R1304N
838.237	0.0	840243	ORIENT_END	n/a	n/a	n/a	-999	7	[0, 0, 0]	n/a	FR1	0	R1304N
838.237	0.874	840243	ENCODING_START	n/a	n/a	n/a	-999	7	[0, 0, 0]	n/a	FR1	0	R1304N
839.111	1.626	841117	WORD	n/a	n/a	PEN	1	7	[0, 0, 0]	n/a	FR1	0	R1304N
840.737	1.123	842743	WORD_OFF	n/a	n/a	PEN	1	7	[0, 0, 0]	n/a	FR1	0	R1304N
841.86	1.628	843866	WORD	n/a	n/a	GOAT	2	7	[0, 0, 0]	n/a	FR1	0	R1304N
843.488	0.91	845494	WORD_OFF	n/a	n/a	GOAT	2	7	[0, 0, 0]	n/a	FR1	0	R1304N
844.398	1.623	846404	WORD	n/a	n/a	BOX	3	7	[0, 0, 0]	n/a	FR1	0	R1304N
846.021	0.845	848027	WORD_OFF	n/a	n/a	BOX	3	7	[0, 0, 0]	n/a	FR1	0	R1304N
846.866	1.623	848872	WORD	n/a	n/a	EAR	4	7	[0, 0, 0]	n/a	FR1	0	R1304N
848.489	0.902	850495	WORD_OFF	n/a	n/a	EAR	4	7	[0, 0, 0]	n/a	FR1	0	R1304N
849.391	1.631	851397	WORD	n/a	n/a	VASE	5	7	[0, 0, 0]	n/a	FR1	0	R1304N
851.022	0.814	853028	WORD_OFF	n/a	n/a	VASE	5	7	[0, 0, 0]	n/a	FR1	0	R1304N
851.836	1.62	853842	WORD	n/a	n/a	PIE	6	7	[0, 0, 0]	n/a	FR1	0	R1304N
853.456	0.878	855462	WORD_OFF	n/a	n/a	PIE	6	7	[0, 0, 0]	n/a	FR1	0	R1304N
854.334	1.639	856340	WORD	n/a	n/a	PARK	7	7	[0, 0, 0]	n/a	FR1	0	R1304N
855.973	1.058	857979	WORD_OFF	n/a	n/a	PARK	7	7	[0, 0, 0]	n/a	FR1	0	R1304N
857.031	1.626	859037	WORD	n/a	n/a	HEART	8	7	[0, 0, 0]	n/a	FR1	0	R1304N
858.657	0.788	860662	WORD_OFF	n/a	n/a	HEART	8	7	[0, 0, 0]	n/a	FR1	0	R1304N
859.445	1.629	861450	WORD	n/a	n/a	SAIL	9	7	[0, 0, 0]	n/a	FR1	0	R1304N
861.074	1.009	863079	WORD_OFF	n/a	n/a	SAIL	9	7	[0, 0, 0]	n/a	FR1	0	R1304N
862.083	1.625	864088	WORD	n/a	n/a	RAIN	10	7	[0, 0, 0]	n/a	FR1	0	R1304N
863.708	1.104	865713	WORD_OFF	n/a	n/a	RAIN	10	7	[0, 0, 0]	n/a	FR1	0	R1304N
864.812	1.629	866817	WORD	n/a	n/a	HILL	11	7	[0, 0, 0]	n/a	FR1	0	R1304N
866.441	0.895	868446	WORD_OFF	n/a	n/a	HILL	11	7	[0, 0, 0]	n/a	FR1	0	R1304N
867.336	1.606	869341	WORD	n/a	n/a	FLEA	12	7	[0, 0, 0]	n/a	FR1	0	R1304N
868.942	0.0	870947	WORD_OFF	n/a	n/a	FLEA	12	7	[0, 0, 0]	n/a	FR1	0	R1304N
868.942	0.0	870947	ENCODING_END	n/a	n/a	n/a	-999	7	[0, 0, 0]	n/a	FR1	0	R1304N
868.942	0.0	870947	DISTRACT_START	n/a	n/a	n/a	-999	7	[0, 0, 0]	n/a	FR1	0	R1304N
868.942	0.016	870947	START	n/a	n/a	n/a	-999	7	[-999, -999, -999]	n/a	FR1	0	R1304N
868.958	17.02	870963	PROB	17.02	n/a	n/a	-999	7	[8, 3, 6]	8	FR1	0	R1304N
885.978	6.742	887982	PROB	6.742	n/a	n/a	-999	7	[5, 1, 8]	9	FR1	0	R1304N
892.72	0.009	894724	STOP	n/a	n/a	n/a	-999	7	[-999, -999, -999]	n/a	FR1	0	R1304N
892.729	0.586	894733	DISTRACT_END	n/a	n/a	n/a	-999	7	[0, 0, 0]	n/a	FR1	0	R1304N
893.315	1.564	895319	RETRIEVAL_ORIENT_START	n/a	n/a	n/a	-999	7	[0, 0, 0]	n/a	FR1	0	R1304N
894.879	0.001	896883	RETRIEVAL_ORIENT_END	n/a	n/a	n/a	-999	7	[0, 0, 0]	n/a	FR1	0	R1304N
894.88	3.156	896884	REC_START	n/a	n/a	n/a	-999	7	[0, 0, 0]	n/a	FR1	0	R1304N
898.036	8.82	900040	REC_WORD	8.82	n/a	CAKE	-999	7	[0, 0, 0]	n/a	FR1	0	R1304N
906.856	1.141	908860	REC_WORD_VV	1.141	n/a	<>	-999	7	[0, 0, 0]	n/a	FR1	0	R1304N
907.997	16.895	910000	REC_WORD	16.895	n/a	PIE	6	7	[0, 0, 0]	n/a	FR1	0	R1304N
924.892	0.001	926895	REC_END	n/a	n/a	n/a	-999	7	[0, 0, 0]	n/a	FR1	0	R1304N
924.893	0.014	926896	TRIAL_END	n/a	n/a	n/a	-999	7	[0, 0, 0]	n/a	FR1	0	R1304N
924.907	0.0	926910	TRIAL_START	n/a	n/a	n/a	-999	8	[0, 0, 0]	n/a	FR1	0	R1304N
924.907	0.0	926910	TRIAL	n/a	n/a	n/a	-999	8	[0, 0, 0]	n/a	FR1	0	R1304N
924.907	29.049	926910	WAITING_START	n/a	n/a	n/a	-999	8	[0, 0, 0]	n/a	FR1	0	R1304N
953.956	0.0	955958	WAITING_END	n/a	n/a	n/a	-999	8	[0, 0, 0]	n/a	FR1	0	R1304N
953.956	10.43	955958	COUNTDOWN_START	n/a	n/a	n/a	-999	8	[0, 0, 0]	n/a	FR1	0	R1304N
964.386	0.0	966387	ORIENT_START	n/a	n/a	n/a	-999	8	[0, 0, 0]	n/a	FR1	0	R1304N
964.386	1.255	966387	COUNTDOWN_END	n/a	n/a	n/a	-999	8	[0, 0, 0]	n/a	FR1	0	R1304N
965.641	0.0	967642	ORIENT_END	n/a	n/a	n/a	-999	8	[0, 0, 0]	n/a	FR1	0	R1304N
965.641	0.845	967642	ENCODING_START	n/a	n/a	n/a	-999	8	[0, 0, 0]	n/a	FR1	0	R1304N
966.486	1.622	968487	WORD	n/a	n/a	SKUNK	1	8	[0, 0, 0]	n/a	FR1	0	R1304N
968.108	0.79	970109	WORD_OFF	n/a	n/a	SKUNK	1	8	[0, 0, 0]	n/a	FR1	0	R1304N
968.898	1.627	970899	WORD	n/a	n/a	BRIDGE	2	8	[0, 0, 0]	n/a	FR1	0	R1304N
970.525	1.138	972526	WORD_OFF	n/a	n/a	BRIDGE	2	8	[0, 0, 0]	n/a	FR1	0	R1304N
971.663	1.628	973664	WORD	n/a	n/a	BRANCH	3	8	[0, 0, 0]	n/a	FR1	0	R1304N
973.291	0.979	975292	WORD_OFF	n/a	n/a	BRANCH	3	8	[0, 0, 0]	n/a	FR1	0	R1304N
974.27	1.623	976271	WORD	n/a	n/a	RAT	4	8	[0, 0, 0]	n/a	FR1	0	R1304N
975.893	0.803	977894	WORD_OFF	n/a	n/a	RAT	4	8	[0, 0, 0]	n/a	FR1	0	R1304N
976.696	1.63	978697	WORD	n/a	n/a	CHIN	5	8	[0, 0, 0]	n/a	FR1	0	R1304N
978.326	1.13	980327	WORD_OFF	n/a	n/a	CHIN	5	8	[0, 0, 0]	n/a	FR1	0	R1304N
979.456	1.621	981457	WORD	n/a	n/a	BLUSH	6	8	[0, 0, 0]	n/a	FR1	0	R1304N
981.077	0.879	983077	WORD_OFF	n/a	n/a	BLUSH	6	8	[0, 0, 0]	n/a	FR1	0	R1304N
981.956	1.638	983956	WORD	n/a	n/a	WHALE	7	8	[0, 0, 0]	n/a	FR1	0	R1304N
983.594	0.825	985594	WORD_OFF	n/a	n/a	WHALE	7	8	[0, 0, 0]	n/a	FR1	0	R1304N
984.419	1.626	986419	WORD	n/a	n/a	CAVE	8	8	[0, 0, 0]	n/a	FR1	0	R1304N
986.045	0.909	988045	WORD_OFF	n/a	n/a	CAVE	8	8	[0, 0, 0]	n/a	FR1	0	R1304N
986.954	1.624	988954	WORD	n/a	n/a	SPEAR	9	8	[0, 0, 0]	n/a	FR1	0	R1304N
988.578	0.77	990578	WORD_OFF	n/a	n/a	SPEAR	9	8	[0, 0, 0]	n/a	FR1	0	R1304N
989.348	1.631	991348	WORD	n/a	n/a	MOON	10	8	[0, 0, 0]	n/a	FR1	0	R1304N
990.979	1.062	992979	WORD_OFF	n/a	n/a	MOON	10	8	[0, 0, 0]	n/a	FR1	0	R1304N
992.041	1.621	994041	WORD	n/a	n/a	PEAR	11	8	[0, 0, 0]	n/a	FR1	0	R1304N
993.662	1.076	995662	WORD_OFF	n/a	n/a	PEAR	11	8	[0, 0, 0]	n/a	FR1	0	R1304N
994.738	1.624	996738	WORD	n/a	n/a	EGG	12	8	[0, 0, 0]	n/a	FR1	0	R1304N
996.362	0.0	998362	ENCODING_END	n/a	n/a	n/a	-999	8	[0, 0, 0]	n/a	FR1	0	R1304N
996.362	0.001	998362	WORD_OFF	n/a	n/a	EGG	12	8	[0, 0, 0]	n/a	FR1	0	R1304N
996.363	0.0	998363	DISTRACT_START	n/a	n/a	n/a	-999	8	[0, 0, 0]	n/a	FR1	0	R1304N
996.363	0.015	998363	START	n/a	n/a	n/a	-999	8	[-999, -999, -999]	n/a	FR1	0	R1304N
996.378	44.141	998378	PROB	44.141	n/a	n/a	-999	8	[4, 4, 4]	8	FR1	0	R1304N
1040.519	0.018	1042517	STOP	n/a	n/a	n/a	-999	8	[-999, -999, -999]	n/a	FR1	0	R1304N
1040.537	0.528	1042535	DISTRACT_END	n/a	n/a	n/a	-999	8	[0, 0, 0]	n/a	FR1	0	R1304N
1041.065	1.606	1043063	RETRIEVAL_ORIENT_START	n/a	n/a	n/a	-999	8	[0, 0, 0]	n/a	FR1	0	R1304N
1042.671	0.0	1044669	RETRIEVAL_ORIENT_END	n/a	n/a	n/a	-999	8	[0, 0, 0]	n/a	FR1	0	R1304N
1042.671	3.654	1044669	REC_START	n/a	n/a	n/a	-999	8	[0, 0, 0]	n/a	FR1	0	R1304N
1046.325	3.05	1048323	REC_WORD	3.05	n/a	MOON	10	8	[0, 0, 0]	n/a	FR1	0	R1304N
1049.375	2.996	1051373	REC_WORD_VV	2.996	n/a	<>	-999	8	[0, 0, 0]	n/a	FR1	0	R1304N
1052.371	20.312	1054369	REC_WORD_VV	20.312	n/a	<>	-999	8	[0, 0, 0]	n/a	FR1	0	R1304N
1072.683	0.0	1074680	TRIAL_END	n/a	n/a	n/a	-999	8	[0, 0, 0]	n/a	FR1	0	R1304N
1072.683	0.016	1074680	REC_END	n/a	n/a	n/a	-999	8	[0, 0, 0]	n/a	FR1	0	R1304N
1072.699	0.0	1074696	TRIAL_START	n/a	n/a	n/a	-999	9	[0, 0, 0]	n/a	FR1	0	R1304N
1072.699	0.001	1074696	TRIAL	n/a	n/a	n/a	-999	9	[0, 0, 0]	n/a	FR1	0	R1304N
1072.7	10.744	1074697	WAITING_START	n/a	n/a	n/a	-999	9	[0, 0, 0]	n/a	FR1	0	R1304N
1083.444	0.0	1085440	WAITING_END	n/a	n/a	n/a	-999	9	[0, 0, 0]	n/a	FR1	0	R1304N
1083.444	10.429	1085440	COUNTDOWN_START	n/a	n/a	n/a	-999	9	[0, 0, 0]	n/a	FR1	0	R1304N
1093.873	0.0	1095869	COUNTDOWN_END	n/a	n/a	n/a	-999	9	[0, 0, 0]	n/a	FR1	0	R1304N
1093.873	1.206	1095869	ORIENT_START	n/a	n/a	n/a	-999	9	[0, 0, 0]	n/a	FR1	0	R1304N
1095.079	0.001	1097075	ORIENT_END	n/a	n/a	n/a	-999	9	[0, 0, 0]	n/a	FR1	0	R1304N
1095.08	1.087	1097076	ENCODING_START	n/a	n/a	n/a	-999	9	[0, 0, 0]	n/a	FR1	0	R1304N
1096.167	1.629	1098163	WORD	n/a	n/a	FOG	1	9	[0, 0, 0]	n/a	FR1	0	R1304N
1097.796	0.827	1099792	WORD_OFF	n/a	n/a	FOG	1	9	[0, 0, 0]	n/a	FR1	0	R1304N
1098.623	1.624	1100619	WORD	n/a	n/a	DOG	2	9	[0, 0, 0]	n/a	FR1	0	R1304N
1100.247	1.001	1102243	WORD_OFF	n/a	n/a	DOG	2	9	[0, 0, 0]	n/a	FR1	0	R1304N
1101.248	1.616	1103244	WORD	n/a	n/a	POND	3	9	[0, 0, 0]	n/a	FR1	0	R1304N
1102.864	0.859	1104859	WORD_OFF	n/a	n/a	POND	3	9	[0, 0, 0]	n/a	FR1	0	R1304N
1103.723	1.624	1105718	WORD	n/a	n/a	KEY	4	9	[0, 0, 0]	n/a	FR1	0	R1304N
1105.347	1.115	1107342	WORD_OFF	n/a	n/a	KEY	4	9	[0, 0, 0]	n/a	FR1	0	R1304N
1106.462	1.636	1108457	WORD	n/a	n/a	TEA	5	9	[0, 0, 0]	n/a	FR1	0	R1304N
1108.098	1.045	1110093	WORD_OFF	n/a	n/a	TEA	5	9	[0, 0, 0]	n/a	FR1	0	R1304N
1109.143	1.622	1111138	WORD	n/a	n/a	WAVE	6	9	[0, 0, 0]	n/a	FR1	0	R1304N
1110.765	1.09	1112760	WORD_OFF	n/a	n/a	WAVE	6	9	[0, 0, 0]	n/a	FR1	0	R1304N
1111.855	1.627	1113850	WORD	n/a	n/a	CUBE	7	9	[0, 0, 0]	n/a	FR1	0	R1304N
1113.482	1.032	1115477	WORD_OFF	n/a	n/a	CUBE	7	9	[0, 0, 0]	n/a	FR1	0	R1304N
1114.514	1.635	1116509	WORD	n/a	n/a	TAIL	8	9	[0, 0, 0]	n/a	FR1	0	R1304N
1116.149	0.931	1118144	WORD_OFF	n/a	n/a	TAIL	8	9	[0, 0, 0]	n/a	FR1	0	R1304N
1117.08	1.636	1119075	WORD	n/a	n/a	TIE	9	9	[0, 0, 0]	n/a	FR1	0	R1304N
1118.716	0.887	1120711	WORD_OFF	n/a	n/a	TIE	9	9	[0, 0, 0]	n/a	FR1	0	R1304N
1119.603	1.631	1121598	WORD	n/a	n/a	SLIME	10	9	[0, 0, 0]	n/a	FR1	0	R1304N
1121.234	1.143	1123229	WORD_OFF	n/a	n/a	SLIME	10	9	[0, 0, 0]	n/a	FR1	0	R1304N
1122.377	1.624	1124372	WORD	n/a	n/a	CLOUD	11	9	[0, 0, 0]	n/a	FR1	0	R1304N
1124.001	1.044	1125996	WORD_OFF	n/a	n/a	CLOUD	11	9	[0, 0, 0]	n/a	FR1	0	R1304N
1125.045	1.623	1127040	WORD	n/a	n/a	LAMB	12	9	[0, 0, 0]	n/a	FR1	0	R1304N
1126.668	0.0	1128663	WORD_OFF	n/a	n/a	LAMB	12	9	[0, 0, 0]	n/a	FR1	0	R1304N
1126.668	0.001	1128663	ENCODING_END	n/a	n/a	n/a	-999	9	[0, 0, 0]	n/a	FR1	0	R1304N
1126.669	0.0	1128664	DISTRACT_START	n/a	n/a	n/a	-999	9	[0, 0, 0]	n/a	FR1	0	R1304N
1126.669	0.015	1128664	START	n/a	n/a	n/a	-999	9	[-999, -999, -999]	n/a	FR1	0	R1304N
1126.684	21.348	1128679	PROB	21.348	n/a	n/a	-999	9	[6, 9, 2]	5	FR1	0	R1304N
1148.032	0.006	1150026	STOP	n/a	n/a	n/a	-999	9	[-999, -999, -999]	n/a	FR1	0	R1304N
1148.038	0.538	1150032	DISTRACT_END	n/a	n/a	n/a	-999	9	[0, 0, 0]	n/a	FR1	0	R1304N
1148.576	1.629	1150570	RETRIEVAL_ORIENT_START	n/a	n/a	n/a	-999	9	[0, 0, 0]	n/a	FR1	0	R1304N
1150.205	0.0	1152199	RETRIEVAL_ORIENT_END	n/a	n/a	n/a	-999	9	[0, 0, 0]	n/a	FR1	0	R1304N
1150.205	2.02	1152199	REC_START	n/a	n/a	n/a	-999	9	[0, 0, 0]	n/a	FR1	0	R1304N
1152.225	9.918	1154218	REC_WORD	9.918	n/a	CLOUD	11	9	[0, 0, 0]	n/a	FR1	0	R1304N
1162.143	2.289	1164136	REC_WORD_VV	2.289	n/a	<>	-999	9	[0, 0, 0]	n/a	FR1	0	R1304N
1164.432	10.852	1166425	REC_WORD	10.852	n/a	SPEAR	-999	9	[0, 0, 0]	n/a	FR1	0	R1304N
1175.284	4.934	1177277	REC_WORD_VV	4.934	n/a	<>	-999	9	[0, 0, 0]	n/a	FR1	0	R1304N
1180.218	0.001	1182210	REC_END	n/a	n/a	n/a	-999	9	[0, 0, 0]	n/a	FR1	0	R1304N
1180.219	0.013	1182211	TRIAL_END	n/a	n/a	n/a	-999	9	[0, 0, 0]	n/a	FR1	0	R1304N
1180.232	0.0	1182224	TRIAL_START	n/a	n/a	n/a	-999	10	[0, 0, 0]	n/a	FR1	0	R1304N
1180.232	0.001	1182224	TRIAL	n/a	n/a	n/a	-999	10	[0, 0, 0]	n/a	FR1	0	R1304N
1180.233	17.079	1182225	WAITING_START	n/a	n/a	n/a	-999	10	[0, 0, 0]	n/a	FR1	0	R1304N
1197.312	0.0	1199304	WAITING_END	n/a	n/a	n/a	-999	10	[0, 0, 0]	n/a	FR1	0	R1304N
1197.312	10.43	1199304	COUNTDOWN_START	n/a	n/a	n/a	-999	10	[0, 0, 0]	n/a	FR1	0	R1304N
1207.742	0.001	1209733	COUNTDOWN_END	n/a	n/a	n/a	-999	10	[0, 0, 0]	n/a	FR1	0	R1304N
1207.743	1.138	1209734	ORIENT_START	n/a	n/a	n/a	-999	10	[0, 0, 0]	n/a	FR1	0	R1304N
1208.881	0.001	1210872	ORIENT_END	n/a	n/a	n/a	-999	10	[0, 0, 0]	n/a	FR1	0	R1304N
1208.882	1.009	1210873	ENCODING_START	n/a	n/a	n/a	-999	10	[0, 0, 0]	n/a	FR1	0	R1304N
1209.891	1.624	1211882	WORD	n/a	n/a	HAND	1	10	[0, 0, 0]	n/a	FR1	0	R1304N
1211.515	0.972	1213506	WORD_OFF	n/a	n/a	HAND	1	10	[0, 0, 0]	n/a	FR1	0	R1304N
1212.487	1.629	1214478	WORD	n/a	n/a	PEARL	2	10	[0, 0, 0]	n/a	FR1	0	R1304N
1214.116	1.121	1216107	WORD_OFF	n/a	n/a	PEARL	2	10	[0, 0, 0]	n/a	FR1	0	R1304N
1215.237	1.629	1217228	WORD	n/a	n/a	CHALK	3	10	[0, 0, 0]	n/a	FR1	0	R1304N
1216.866	0.986	1218857	WORD_OFF	n/a	n/a	CHALK	3	10	[0, 0, 0]	n/a	FR1	0	R1304N
1217.852	1.631	1219843	WORD	n/a	n/a	BAG	4	10	[0, 0, 0]	n/a	FR1	0	R1304N
1219.483	1.054	1221474	WORD_OFF	n/a	n/a	BAG	4	10	[0, 0, 0]	n/a	FR1	0	R1304N
1220.537	1.63	1222528	WORD	n/a	n/a	SNAKE	5	10	[0, 0, 0]	n/a	FR1	0	R1304N
1222.167	1.058	1224158	WORD_OFF	n/a	n/a	SNAKE	5	10	[0, 0, 0]	n/a	FR1	0	R1304N
1223.225	1.626	1225216	WORD	n/a	n/a	OAK	6	10	[0, 0, 0]	n/a	FR1	0	R1304N
1224.851	1.107	1226841	WORD_OFF	n/a	n/a	OAK	6	10	[0, 0, 0]	n/a	FR1	0	R1304N
1225.958	1.627	1227948	WORD	n/a	n/a	SCHOOL	7	10	[0, 0, 0]	n/a	FR1	0	R1304N
1227.585	1.039	1229575	WORD_OFF	n/a	n/a	SCHOOL	7	10	[0, 0, 0]	n/a	FR1	0	R1304N
1228.624	1.628	1230614	WORD	n/a	n/a	LAKE	8	10	[0, 0, 0]	n/a	FR1	0	R1304N
1230.252	0.838	1232242	WORD_OFF	n/a	n/a	LAKE	8	10	[0, 0, 0]	n/a	FR1	0	R1304N
1231.09	1.629	1233080	WORD	n/a	n/a	OWL	9	10	[0, 0, 0]	n/a	FR1	0	R1304N
1232.719	0.983	1234709	WORD_OFF	n/a	n/a	OWL	9	10	[0, 0, 0]	n/a	FR1	0	R1304N
1233.702	1.633	1235692	WORD	n/a	n/a	MOTH	10	10	[0, 0, 0]	n/a	FR1	0	R1304N
1235.335	0.797	1237325	WORD_OFF	n/a	n/a	MOTH	10	10	[0, 0, 0]	n/a	FR1	0	R1304N
1236.132	1.638	1238122	WORD	n/a	n/a	BLOOM	11	10	[0, 0, 0]	n/a	FR1	0	R1304N
1237.77	0.893	1239760	WORD_OFF	n/a	n/a	BLOOM	11	10	[0, 0, 0]	n/a	FR1	0	R1304N
1238.663	1.623	1240653	WORD	n/a	n/a	FUDGE	12	10	[0, 0, 0]	n/a	FR1	0	R1304N
1240.286	0.0	1242276	WORD_OFF	n/a	n/a	FUDGE	12	10	[0, 0, 0]	n/a	FR1	0	R1304N
1240.286	0.0	1242276	ENCODING_END	n/a	n/a	n/a	-999	10	[0, 0, 0]	n/a	FR1	0	R1304N
1240.286	0.001	1242276	DISTRACT_START	n/a	n/a	n/a	-999	10	[0, 0, 0]	n/a	FR1	0	R1304N
1240.287	0.015	1242277	START	n/a	n/a	n/a	-999	10	[-999, -999, -999]	n/a	FR1	0	R1304N
1240.302	21.993	1242292	PROB	21.993	n/a	n/a	-999	10	[9, 8, 2]	5	FR1	0	R1304N
1262.295	0.011	1264284	STOP	n/a	n/a	n/a	-999	10	[-999, -999, -999]	n/a	FR1	0	R1304N
1262.306	0.538	1264295	DISTRACT_END	n/a	n/a	n/a	-999	10	[0, 0, 0]	n/a	FR1	0	R1304N
1262.844	1.563	1264833	RETRIEVAL_ORIENT_START	n/a	n/a	n/a	-999	10	[0, 0, 0]	n/a	FR1	0	R1304N
1264.407	0.0	1266396	RETRIEVAL_ORIENT_END	n/a	n/a	n/a	-999	10	[0, 0, 0]	n/a	FR1	0	R1304N
1264.407	8.776	1266396	REC_START	n/a	n/a	n/a	-999	10	[0, 0, 0]	n/a	FR1	0	R1304N
1273.183	1.691	1275172	REC_WORD	1.691	n/a	COUGH	-999	10	[0, 0, 0]	n/a	FR1	0	R1304N
1274.874	6.373	1276862	REC_WORD	6.373	n/a	POND	-999	10	[0, 0, 0]	n/a	FR1	0	R1304N
1281.247	3.022	1283235	REC_WORD	3.022	n/a	FOG	-999	10	[0, 0, 0]	n/a	FR1	0	R1304N
1284.269	6.659	1286257	REC_WORD	6.659	n/a	LAKE	8	10	[0, 0, 0]	n/a	FR1	0	R1304N
1290.928	3.491	1292916	REC_WORD	3.491	n/a	GLOOM	-999	10	[0, 0, 0]	n/a	FR1	0	R1304N
1294.419	0.0	1296407	TRIAL_END	n/a	n/a	n/a	-999	10	[0, 0, 0]	n/a	FR1	0	R1304N
1294.419	0.014	1296407	REC_END	n/a	n/a	n/a	-999	10	[0, 0, 0]	n/a	FR1	0	R1304N
1294.433	0.0	1296421	TRIAL_START	n/a	n/a	n/a	-999	11	[0, 0, 0]	n/a	FR1	0	R1304N
1294.433	0.001	1296421	TRIAL	n/a	n/a	n/a	-999	11	[0, 0, 0]	n/a	FR1	0	R1304N
1294.434	5.928	1296422	WAITING_START	n/a	n/a	n/a	-999	11	[0, 0, 0]	n/a	FR1	0	R1304N
1300.362	0.0	1302349	WAITING_END	n/a	n/a	n/a	-999	11	[0, 0, 0]	n/a	FR1	0	R1304N
1300.362	10.43	1302349	COUNTDOWN_START	n/a	n/a	n/a	-999	11	[0, 0, 0]	n/a	FR1	0	R1304N
1310.792	0.0	1312779	COUNTDOWN_END	n/a	n/a	n/a	-999	11	[0, 0, 0]	n/a	FR1	0	R1304N
1310.792	1.14	1312779	ORIENT_START	n/a	n/a	n/a	-999	11	[0, 0, 0]	n/a	FR1	0	R1304N
1311.932	0.0	1313919	ENCODING_START	n/a	n/a	n/a	-999	11	[0, 0, 0]	n/a	FR1	0	R1304N
1311.932	1.066	1313919	ORIENT_END	n/a	n/a	n/a	-999	11	[0, 0, 0]	n/a	FR1	0	R1304N
1312.998	1.634	1314985	WORD	n/a	n/a	GATE	1	11	[0, 0, 0]	n/a	FR1	0	R1304N
1314.632	0.917	1316619	WORD_OFF	n/a	n/a	GATE	1	11	[0, 0, 0]	n/a	FR1	0	R1304N
1315.549	1.634	1317536	WORD	n/a	n/a	FROG	2	11	[0, 0, 0]	n/a	FR1	0	R1304N
1317.183	1.143	1319170	WORD_OFF	n/a	n/a	FROG	2	11	[0, 0, 0]	n/a	FR1	0	R1304N
1318.326	1.624	1320313	WORD	n/a	n/a	BANK	3	11	[0, 0, 0]	n/a	FR1	0	R1304N
1319.95	0.883	1321937	WORD_OFF	n/a	n/a	BANK	3	11	[0, 0, 0]	n/a	FR1	0	R1304N
1320.833	1.634	1322820	WORD	n/a	n/a	SKI	4	11	[0, 0, 0]	n/a	FR1	0	R1304N
1322.467	0.944	1324453	WORD_OFF	n/a	n/a	SKI	4	11	[0, 0, 0]	n/a	FR1	0	R1304N
1323.411	1.623	1325397	WORD	n/a	n/a	NOSE	5	11	[0, 0, 0]	n/a	FR1	0	R1304N
1325.034	1.093	1327020	WORD_OFF	n/a	n/a	NOSE	5	11	[0, 0, 0]	n/a	FR1	0	R1304N
1326.127	1.624	1328113	WORD	n/a	n/a	SHOE	6	11	[0, 0, 0]	n/a	FR1	0	R1304N
1327.751	0.765	1329737	WORD_OFF	n/a	n/a	SHOE	6	11	[0, 0, 0]	n/a	FR1	0	R1304N
1328.516	1.636	1330502	WORD	n/a	n/a	ROCK	7	11	[0, 0, 0]	n/a	FR1	0	R1304N
1330.152	1.065	1332138	WORD_OFF	n/a	n/a	ROCK	7	11	[0, 0, 0]	n/a	FR1	0	R1304N
1331.217	1.635	1333203	WORD	n/a	n/a	PLANT	8	11	[0, 0, 0]	n/a	FR1	0	R1304N
1332.852	0.853	1334838	WORD_OFF	n/a	n/a	PLANT	8	11	[0, 0, 0]	n/a	FR1	0	R1304N
1333.705	1.63	1335691	WORD	n/a	n/a	TRAIN	9	11	[0, 0, 0]	n/a	FR1	0	R1304N
1335.335	0.969	1337321	WORD_OFF	n/a	n/a	TRAIN	9	11	[0, 0, 0]	n/a	FR1	0	R1304N
1336.304	1.616	1338290	WORD	n/a	n/a	FACE	10	11	[0, 0, 0]	n/a	FR1	0	R1304N
1337.92	1.037	1339906	WORD_OFF	n/a	n/a	FACE	10	11	[0, 0, 0]	n/a	FR1	0	R1304N
1338.957	1.63	1340943	WORD	n/a	n/a	SUN	11	11	[0, 0, 0]	n/a	FR1	0	R1304N
1340.587	0.848	1342573	WORD_OFF	n/a	n/a	SUN	11	11	[0, 0, 0]	n/a	FR1	0	R1304N
1341.435	1.635	1343421	WORD	n/a	n/a	ROPE	12	11	[0, 0, 0]	n/a	FR1	0	R1304N
1343.07	0.001	1345056	WORD_OFF	n/a	n/a	ROPE	12	11	[0, 0, 0]	n/a	FR1	0	R1304N
1343.071	0.0	1345057	ENCODING_END	n/a	n/a	n/a	-999	11	[0, 0, 0]	n/a	FR1	0	R1304N
1343.071	0.0	1345057	DISTRACT_START	n/a	n/a	n/a	-999	11	[0, 0, 0]	n/a	FR1	0	R1304N
1343.071	0.016	1345057	START	n/a	n/a	n/a	-999	11	[-999, -999, -999]	n/a	FR1	0	R1304N
1343.087	19.202	1345073	PROB	19.202	n/a	n/a	-999	11	[4, 6, 5]	7	FR1	0	R1304N
1362.289	22.863	1364274	PROB	22.863	n/a	n/a	-999	11	[6, 7, 6]	19	FR1	0	R1304N
1385.152	0.009	1387136	STOP	n/a	n/a	n/a	-999	11	[-999, -999, -999]	n/a	FR1	0	R1304N
1385.161	0.649	1387145	DISTRACT_END	n/a	n/a	n/a	-999	11	[0, 0, 0]	n/a	FR1	0	R1304N
1385.81	1.634	1387794	RETRIEVAL_ORIENT_START	n/a	n/a	n/a	-999	11	[0, 0, 0]	n/a	FR1	0	R1304N
1387.444	0.001	1389428	RETRIEVAL_ORIENT_END	n/a	n/a	n/a	-999	11	[0, 0, 0]	n/a	FR1	0	R1304N
1387.445	3.686	1389429	REC_START	n/a	n/a	n/a	-999	11	[0, 0, 0]	n/a	FR1	0	R1304N
1391.131	3.565	1393115	REC_WORD	3.565	n/a	SUN	11	11	[0, 0, 0]	n/a	FR1	0	R1304N
1394.696	3.845	1396680	REC_WORD	3.845	n/a	SKI	4	11	[0, 0, 0]	n/a	FR1	0	R1304N
1398.541	11.496	1400524	REC_WORD	11.496	n/a	CLOCK	-999	11	[0, 0, 0]	n/a	FR1	0	R1304N
1410.037	7.419	1412020	REC_WORD	7.419	n/a	LAKE	-999	11	[0, 0, 0]	n/a	FR1	0	R1304N
1417.456	0.0	1419439	REC_END	n/a	n/a	n/a	-999	11	[0, 0, 0]	n/a	FR1	0	R1304N
1417.456	0.015	1419439	TRIAL_END	n/a	n/a	n/a	-999	11	[0, 0, 0]	n/a	FR1	0	R1304N
1417.471	0.0	1419454	TRIAL_START	n/a	n/a	n/a	-999	12	[0, 0, 0]	n/a	FR1	0	R1304N
1417.471	0.0	1419454	TRIAL	n/a	n/a	n/a	-999	12	[0, 0, 0]	n/a	FR1	0	R1304N
1417.471	6.579	1419454	WAITING_START	n/a	n/a	n/a	-999	12	[0, 0, 0]	n/a	FR1	0	R1304N
1424.05	0.001	1426032	WAITING_END	n/a	n/a	n/a	-999	12	[0, 0, 0]	n/a	FR1	0	R1304N
1424.051	10.429	1426033	COUNTDOWN_START	n/a	n/a	n/a	-999	12	[0, 0, 0]	n/a	FR1	0	R1304N
1434.48	0.0	1436462	COUNTDOWN_END	n/a	n/a	n/a	-999	12	[0, 0, 0]	n/a	FR1	0	R1304N
1434.48	1.206	1436462	ORIENT_START	n/a	n/a	n/a	-999	12	[0, 0, 0]	n/a	FR1	0	R1304N
1435.686	0.0	1437668	ENCODING_START	n/a	n/a	n/a	-999	12	[0, 0, 0]	n/a	FR1	0	R1304N
1435.686	1.108	1437668	ORIENT_END	n/a	n/a	n/a	-999	12	[0, 0, 0]	n/a	FR1	0	R1304N
1436.794	1.625	1438776	WORD	n/a	n/a	CLAY	1	12	[0, 0, 0]	n/a	FR1	0	R1304N
1438.419	1.15	1440401	WORD_OFF	n/a	n/a	CLAY	1	12	[0, 0, 0]	n/a	FR1	0	R1304N
1439.569	1.634	1441551	WORD	n/a	n/a	CLOWN	2	12	[0, 0, 0]	n/a	FR1	0	R1304N
1441.203	0.882	1443185	WORD_OFF	n/a	n/a	CLOWN	2	12	[0, 0, 0]	n/a	FR1	0	R1304N
1442.085	1.635	1444067	WORD	n/a	n/a	LOCK	3	12	[0, 0, 0]	n/a	FR1	0	R1304N
1443.72	0.809	1445702	WORD_OFF	n/a	n/a	LOCK	3	12	[0, 0, 0]	n/a	FR1	0	R1304N
1444.529	1.625	1446510	WORD	n/a	n/a	MAIL	4	12	[0, 0, 0]	n/a	FR1	0	R1304N
1446.154	1.057	1448135	WORD_OFF	n/a	n/a	MAIL	4	12	[0, 0, 0]	n/a	FR1	0	R1304N
1447.211	1.627	1449192	WORD	n/a	n/a	SNAIL	5	12	[0, 0, 0]	n/a	FR1	0	R1304N
1448.838	0.932	1450819	WORD_OFF	n/a	n/a	SNAIL	5	12	[0, 0, 0]	n/a	FR1	0	R1304N
1449.77	1.635	1451751	WORD	n/a	n/a	BRUSH	6	12	[0, 0, 0]	n/a	FR1	0	R1304N
1451.405	0.905	1453386	WORD_OFF	n/a	n/a	BRUSH	6	12	[0, 0, 0]	n/a	FR1	0	R1304N
1452.31	1.612	1454291	WORD	n/a	n/a	COIN	7	12	[0, 0, 0]	n/a	FR1	0	R1304N
1453.922	0.79	1455903	WORD_OFF	n/a	n/a	COIN	7	12	[0, 0, 0]	n/a	FR1	0	R1304N
1454.712	1.626	1456693	WORD	n/a	n/a	FUR	8	12	[0, 0, 0]	n/a	FR1	0	R1304N
1456.338	0.932	1458319	WORD_OFF	n/a	n/a	FUR	8	12	[0, 0, 0]	n/a	FR1	0	R1304N
1457.27	1.636	1459251	WORD	n/a	n/a	FLAME	9	12	[0, 0, 0]	n/a	FR1	0	R1304N
1458.906	1.048	1460887	WORD_OFF	n/a	n/a	FLAME	9	12	[0, 0, 0]	n/a	FR1	0	R1304N
1459.954	1.636	1461935	WORD	n/a	n/a	SINK	10	12	[0, 0, 0]	n/a	FR1	0	R1304N
1461.59	0.779	1463571	WORD_OFF	n/a	n/a	SINK	10	12	[0, 0, 0]	n/a	FR1	0	R1304N
1462.369	1.638	1464350	WORD	n/a	n/a	SOAP	11	12	[0, 0, 0]	n/a	FR1	0	R1304N
1464.007	0.894	1465988	WORD_OFF	n/a	n/a	SOAP	11	12	[0, 0, 0]	n/a	FR1	0	R1304N
1464.901	1.623	1466882	WORD	n/a	n/a	STORE	12	12	[0, 0, 0]	n/a	FR1	0	R1304N
1466.524	0.001	1468505	WORD_OFF	n/a	n/a	STORE	12	12	[0, 0, 0]	n/a	FR1	0	R1304N
1466.525	0.0	1468506	ENCODING_END	n/a	n/a	n/a	-999	12	[0, 0, 0]	n/a	FR1	0	R1304N
1466.525	0.0	1468506	DISTRACT_START	n/a	n/a	n/a	-999	12	[0, 0, 0]	n/a	FR1	0	R1304N
1466.525	0.015	1468506	START	n/a	n/a	n/a	-999	12	[-999, -999, -999]	n/a	FR1	0	R1304N
1466.54	44.252	1468521	PROB	44.252	n/a	n/a	-999	12	[4, 4, 8]	7	FR1	0	R1304N
1510.792	0.006	1512771	STOP	n/a	n/a	n/a	-999	12	[-999, -999, -999]	n/a	FR1	0	R1304N
1510.798	0.567	1512777	DISTRACT_END	n/a	n/a	n/a	-999	12	[0, 0, 0]	n/a	FR1	0	R1304N
1511.365	1.717	1513344	RETRIEVAL_ORIENT_START	n/a	n/a	n/a	-999	12	[0, 0, 0]	n/a	FR1	0	R1304N
1513.082	0.0	1515061	RETRIEVAL_ORIENT_END	n/a	n/a	n/a	-999	12	[0, 0, 0]	n/a	FR1	0	R1304N
1513.082	2.519	1515061	REC_START	n/a	n/a	n/a	-999	12	[0, 0, 0]	n/a	FR1	0	R1304N
1515.601	0.534	1517580	REC_WORD_VV	0.534	n/a	<>	-999	12	[0, 0, 0]	n/a	FR1	0	R1304N
1516.135	4.975	1518114	REC_WORD	4.975	n/a	SUN	-999	12	[0, 0, 0]	n/a	FR1	0	R1304N
1521.11	5.253	1523088	REC_WORD	5.253	n/a	SUN	-999	12	[0, 0, 0]	n/a	FR1	0	R1304N
1526.363	5.385	1528341	REC_WORD	5.385	n/a	CALL	-999	12	[0, 0, 0]	n/a	FR1	0	R1304N
1531.748	2.272	1533726	REC_WORD	2.272	n/a	RAIN	-999	12	[0, 0, 0]	n/a	FR1	0	R1304N
1534.02	9.075	1535998	REC_WORD	9.075	n/a	FUR	8	12	[0, 0, 0]	n/a	FR1	0	R1304N
1543.095	0.0	1545072	TRIAL_END	n/a	n/a	n/a	-999	12	[0, 0, 0]	n/a	FR1	0	R1304N
1543.095	0.014	1545072	REC_END	n/a	n/a	n/a	-999	12	[0, 0, 0]	n/a	FR1	0	R1304N
1543.109	0.0	1545086	TRIAL_START	n/a	n/a	n/a	-999	13	[0, 0, 0]	n/a	FR1	0	R1304N
1543.109	0.0	1545086	TRIAL	n/a	n/a	n/a	-999	13	[0, 0, 0]	n/a	FR1	0	R1304N
1543.109	12.03	1545086	WAITING_START	n/a	n/a	n/a	-999	13	[0, 0, 0]	n/a	FR1	0	R1304N
1555.139	0.0	1557116	WAITING_END	n/a	n/a	n/a	-999	13	[0, 0, 0]	n/a	FR1	0	R1304N
1555.139	10.429	1557116	COUNTDOWN_START	n/a	n/a	n/a	-999	13	[0, 0, 0]	n/a	FR1	0	R1304N
1565.568	0.0	1567545	COUNTDOWN_END	n/a	n/a	n/a	-999	13	[0, 0, 0]	n/a	FR1	0	R1304N
1565.568	1.256	1567545	ORIENT_START	n/a	n/a	n/a	-999	13	[0, 0, 0]	n/a	FR1	0	R1304N
1566.824	0.001	1568800	ORIENT_END	n/a	n/a	n/a	-999	13	[0, 0, 0]	n/a	FR1	0	R1304N
1566.825	0.966	1568801	ENCODING_START	n/a	n/a	n/a	-999	13	[0, 0, 0]	n/a	FR1	0	R1304N
1567.791	1.633	1569767	WORD	n/a	n/a	TEETH	1	13	[0, 0, 0]	n/a	FR1	0	R1304N
1569.424	0.78	1571400	WORD_OFF	n/a	n/a	TEETH	1	13	[0, 0, 0]	n/a	FR1	0	R1304N
1570.204	1.637	1572180	WORD	n/a	n/a	STEAK	2	13	[0, 0, 0]	n/a	FR1	0	R1304N
1571.841	0.939	1573817	WORD_OFF	n/a	n/a	STEAK	2	13	[0, 0, 0]	n/a	FR1	0	R1304N
1572.78	1.629	1574756	WORD	n/a	n/a	PALM	3	13	[0, 0, 0]	n/a	FR1	0	R1304N
1574.409	0.895	1576385	WORD_OFF	n/a	n/a	PALM	3	13	[0, 0, 0]	n/a	FR1	0	R1304N
1575.304	1.622	1577280	WORD	n/a	n/a	BOOT	4	13	[0, 0, 0]	n/a	FR1	0	R1304N
1576.926	0.821	1578902	WORD_OFF	n/a	n/a	BOOT	4	13	[0, 0, 0]	n/a	FR1	0	R1304N
1577.747	1.628	1579723	WORD	n/a	n/a	CLOTH	5	13	[0, 0, 0]	n/a	FR1	0	R1304N
1579.375	0.995	1581351	WORD_OFF	n/a	n/a	CLOTH	5	13	[0, 0, 0]	n/a	FR1	0	R1304N
1580.37	1.606	1582346	WORD	n/a	n/a	STEAM	6	13	[0, 0, 0]	n/a	FR1	0	R1304N
1581.976	0.953	1583952	WORD_OFF	n/a	n/a	STEAM	6	13	[0, 0, 0]	n/a	FR1	0	R1304N
1582.929	1.631	1584905	WORD	n/a	n/a	DITCH	7	13	[0, 0, 0]	n/a	FR1	0	R1304N
1584.56	0.93	1586536	WORD_OFF	n/a	n/a	DITCH	7	13	[0, 0, 0]	n/a	FR1	0	R1304N
1585.49	1.621	1587466	WORD	n/a	n/a	VEST	8	13	[0, 0, 0]	n/a	FR1	0	R1304N
1587.111	0.888	1589087	WORD_OFF	n/a	n/a	VEST	8	13	[0, 0, 0]	n/a	FR1	0	R1304N
1587.999	1.629	1589975	WORD	n/a	n/a	CART	9	13	[0, 0, 0]	n/a	FR1	0	R1304N
1589.628	0.869	1591604	WORD_OFF	n/a	n/a	CART	9	13	[0, 0, 0]	n/a	FR1	0	R1304N
1590.497	1.631	1592473	WORD	n/a	n/a	RICE	10	13	[0, 0, 0]	n/a	FR1	0	R1304N
1592.128	1.057	1594103	WORD_OFF	n/a	n/a	RICE	10	13	[0, 0, 0]	n/a	FR1	0	R1304N
1593.185	1.627	1595160	WORD	n/a	n/a	MUD	11	13	[0, 0, 0]	n/a	FR1	0	R1304N
1594.812	0.917	1596787	WORD_OFF	n/a	n/a	MUD	11	13	[0, 0, 0]	n/a	FR1	0	R1304N
1595.729	1.632	1597704	WORD	n/a	n/a	INK	12	13	[0, 0, 0]	n/a	FR1	0	R1304N
1597.361	0.001	1599336	WORD_OFF	n/a	n/a	INK	12	13	[0, 0, 0]	n/a	FR1	0	R1304N
1597.362	0.0	1599337	ENCODING_END	n/a	n/a	n/a	-999	13	[0, 0, 0]	n/a	FR1	0	R1304N
1597.362	0.0	1599337	DISTRACT_START	n/a	n/a	n/a	-999	13	[0, 0, 0]	n/a	FR1	0	R1304N
1597.362	0.016	1599337	START	n/a	n/a	n/a	-999	13	[-999, -999, -999]	n/a	FR1	0	R1304N
1597.378	25.11	1599353	PROB	25.11	n/a	n/a	-999	13	[3, 2, 5]	7	FR1	0	R1304N
1622.488	0.012	1624462	STOP	n/a	n/a	n/a	-999	13	[-999, -999, -999]	n/a	FR1	0	R1304N
1622.5	0.65	1624474	DISTRACT_END	n/a	n/a	n/a	-999	13	[0, 0, 0]	n/a	FR1	0	R1304N
1623.15	1.534	1625124	RETRIEVAL_ORIENT_START	n/a	n/a	n/a	-999	13	[0, 0, 0]	n/a	FR1	0	R1304N
1624.684	0.0	1626658	RETRIEVAL_ORIENT_END	n/a	n/a	n/a	-999	13	[0, 0, 0]	n/a	FR1	0	R1304N
1624.684	10.274	1626658	REC_START	n/a	n/a	n/a	-999	13	[0, 0, 0]	n/a	FR1	0	R1304N
1634.958	7.102	1636932	REC_WORD_VV	7.102	n/a	<>	-999	13	[0, 0, 0]	n/a	FR1	0	R1304N
1642.06	4.807	1644033	REC_WORD_VV	4.807	n/a	<>	-999	13	[0, 0, 0]	n/a	FR1	0	R1304N
1646.867	7.83	1648840	REC_WORD	7.83	n/a	TEETH	1	13	[0, 0, 0]	n/a	FR1	0	R1304N
1654.697	0.0	1656670	REC_END	n/a	n/a	n/a	-999	13	[0, 0, 0]	n/a	FR1	0	R1304N
1654.697	0.016	1656670	TRIAL_END	n/a	n/a	n/a	-999	13	[0, 0, 0]	n/a	FR1	0	R1304N
1654.713	0.0	1656686	TRIAL	n/a	n/a	n/a	-999	14	[0, 0, 0]	n/a	FR1	0	R1304N
1654.713	0.001	1656686	TRIAL_START	n/a	n/a	n/a	-999	14	[0, 0, 0]	n/a	FR1	0	R1304N
1654.714	6.892	1656687	WAITING_START	n/a	n/a	n/a	-999	14	[0, 0, 0]	n/a	FR1	0	R1304N
1661.606	0.001	1663579	WAITING_END	n/a	n/a	n/a	-999	14	[0, 0, 0]	n/a	FR1	0	R1304N
1661.607	10.429	1663580	COUNTDOWN_START	n/a	n/a	n/a	-999	14	[0, 0, 0]	n/a	FR1	0	R1304N
1672.036	0.0	1674008	COUNTDOWN_END	n/a	n/a	n/a	-999	14	[0, 0, 0]	n/a	FR1	0	R1304N
1672.036	1.139	1674008	ORIENT_START	n/a	n/a	n/a	-999	14	[0, 0, 0]	n/a	FR1	0	R1304N
1673.175	0.0	1675147	ORIENT_END	n/a	n/a	n/a	-999	14	[0, 0, 0]	n/a	FR1	0	R1304N
1673.175	1.09	1675147	ENCODING_START	n/a	n/a	n/a	-999	14	[0, 0, 0]	n/a	FR1	0	R1304N
1674.265	1.627	1676237	WORD	n/a	n/a	CHAIR	1	14	[0, 0, 0]	n/a	FR1	0	R1304N
1675.892	0.831	1677864	WORD_OFF	n/a	n/a	CHAIR	1	14	[0, 0, 0]	n/a	FR1	0	R1304N
1676.723	1.635	1678695	WORD	n/a	n/a	BAT	2	14	[0, 0, 0]	n/a	FR1	0	R1304N
1678.358	0.926	1680330	WORD_OFF	n/a	n/a	BAT	2	14	[0, 0, 0]	n/a	FR1	0	R1304N
1679.284	1.608	1681256	WORD	n/a	n/a	BALL	3	14	[0, 0, 0]	n/a	FR1	0	R1304N
1680.892	0.857	1682864	WORD_OFF	n/a	n/a	BALL	3	14	[0, 0, 0]	n/a	FR1	0	R1304N
1681.749	1.627	1683721	WORD	n/a	n/a	LAWN	4	14	[0, 0, 0]	n/a	FR1	0	R1304N
1683.376	1.091	1685348	WORD_OFF	n/a	n/a	LAWN	4	14	[0, 0, 0]	n/a	FR1	0	R1304N
1684.467	1.627	1686439	WORD	n/a	n/a	SOCK	5	14	[0, 0, 0]	n/a	FR1	0	R1304N
1686.094	0.791	1688066	WORD_OFF	n/a	n/a	SOCK	5	14	[0, 0, 0]	n/a	FR1	0	R1304N
1686.885	1.626	1688857	WORD	n/a	n/a	ROSE	6	14	[0, 0, 0]	n/a	FR1	0	R1304N
1688.511	1.098	1690482	WORD_OFF	n/a	n/a	ROSE	6	14	[0, 0, 0]	n/a	FR1	0	R1304N
1689.609	1.635	1691580	WORD	n/a	n/a	SIGN	7	14	[0, 0, 0]	n/a	FR1	0	R1304N
1691.244	0.868	1693215	WORD_OFF	n/a	n/a	SIGN	7	14	[0, 0, 0]	n/a	FR1	0	R1304N
1692.112	1.633	1694083	WORD	n/a	n/a	ELF	8	14	[0, 0, 0]	n/a	FR1	0	R1304N
1693.745	1.125	1695716	WORD_OFF	n/a	n/a	ELF	8	14	[0, 0, 0]	n/a	FR1	0	R1304N
1694.87	1.625	1696841	WORD	n/a	n/a	STREET	9	14	[0, 0, 0]	n/a	FR1	0	R1304N
1696.495	0.775	1698466	WORD_OFF	n/a	n/a	STREET	9	14	[0, 0, 0]	n/a	FR1	0	R1304N
1697.27	1.626	1699241	WORD	n/a	n/a	BOAT	10	14	[0, 0, 0]	n/a	FR1	0	R1304N
1698.896	1.095	1700867	WORD_OFF	n/a	n/a	BOAT	10	14	[0, 0, 0]	n/a	FR1	0	R1304N
1699.991	1.622	1701962	WORD	n/a	n/a	CHEEK	11	14	[0, 0, 0]	n/a	FR1	0	R1304N
1701.613	1.036	1703584	WORD_OFF	n/a	n/a	CHEEK	11	14	[0, 0, 0]	n/a	FR1	0	R1304N
1702.649	1.63	1704620	WORD	n/a	n/a	DART	12	14	[0, 0, 0]	n/a	FR1	0	R1304N
1704.279	0.001	1706250	WORD_OFF	n/a	n/a	DART	12	14	[0, 0, 0]	n/a	FR1	0	R1304N
1704.28	0.0	1706251	ENCODING_END	n/a	n/a	n/a	-999	14	[0, 0, 0]	n/a	FR1	0	R1304N
1704.28	0.0	1706251	DISTRACT_START	n/a	n/a	n/a	-999	14	[0, 0, 0]	n/a	FR1	0	R1304N
1704.28	0.015	1706251	START	n/a	n/a	n/a	-999	14	[-999, -999, -999]	n/a	FR1	0	R1304N
1704.295	15.604	1706266	PROB	15.604	n/a	n/a	-999	14	[8, 3, 2]	5	FR1	0	R1304N
1719.899	36.613	1721869	PROB	36.613	n/a	n/a	-999	14	[3, 6, 2]	3	FR1	0	R1304N
1756.512	0.01	1758481	STOP	n/a	n/a	n/a	-999	14	[-999, -999, -999]	n/a	FR1	0	R1304N
1756.522	0.657	1758491	DISTRACT_END	n/a	n/a	n/a	-999	14	[0, 0, 0]	n/a	FR1	0	R1304N
1757.179	1.643	1759148	RETRIEVAL_ORIENT_START	n/a	n/a	n/a	-999	14	[0, 0, 0]	n/a	FR1	0	R1304N
1758.822	0.001	1760791	RETRIEVAL_ORIENT_END	n/a	n/a	n/a	-999	14	[0, 0, 0]	n/a	FR1	0	R1304N
1758.823	10.283	1760792	REC_START	n/a	n/a	n/a	-999	14	[0, 0, 0]	n/a	FR1	0	R1304N
1769.106	12.67	1771074	REC_WORD_VV	12.67	n/a	<>	-999	14	[0, 0, 0]	n/a	FR1	0	R1304N
1781.776	2.432	1783744	REC_WORD_VV	2.432	n/a	<>	-999	14	[0, 0, 0]	n/a	FR1	0	R1304N
1784.208	4.627	1786176	REC_WORD	4.627	n/a	CHEEK	11	14	[0, 0, 0]	n/a	FR1	0	R1304N
1788.835	0.0	1790802	REC_END	n/a	n/a	n/a	-999	14	[0, 0, 0]	n/a	FR1	0	R1304N
1788.835	0.014	1790802	TRIAL_END	n/a	n/a	n/a	-999	14	[0, 0, 0]	n/a	FR1	0	R1304N
1788.849	0.0	1790816	TRIAL_START	n/a	n/a	n/a	-999	15	[0, 0, 0]	n/a	FR1	0	R1304N
1788.849	0.001	1790816	TRIAL	n/a	n/a	n/a	-999	15	[0, 0, 0]	n/a	FR1	0	R1304N
1788.85	15.529	1790817	WAITING_START	n/a	n/a	n/a	-999	15	[0, 0, 0]	n/a	FR1	0	R1304N
1804.379	0.0	1806346	WAITING_END	n/a	n/a	n/a	-999	15	[0, 0, 0]	n/a	FR1	0	R1304N
1804.379	10.429	1806346	COUNTDOWN_START	n/a	n/a	n/a	-999	15	[0, 0, 0]	n/a	FR1	0	R1304N
1814.808	0.001	1816774	COUNTDOWN_END	n/a	n/a	n/a	-999	15	[0, 0, 0]	n/a	FR1	0	R1304N
1814.809	1.073	1816775	ORIENT_START	n/a	n/a	n/a	-999	15	[0, 0, 0]	n/a	FR1	0	R1304N
1815.882	0.0	1817848	ORIENT_END	n/a	n/a	n/a	-999	15	[0, 0, 0]	n/a	FR1	0	R1304N
1815.882	0.846	1817848	ENCODING_START	n/a	n/a	n/a	-999	15	[0, 0, 0]	n/a	FR1	0	R1304N
1816.728	1.637	1818694	WORD	n/a	n/a	LEAF	1	15	[0, 0, 0]	n/a	FR1	0	R1304N
1818.365	1.122	1820331	WORD_OFF	n/a	n/a	LEAF	1	15	[0, 0, 0]	n/a	FR1	0	R1304N
1819.487	1.629	1821453	WORD	n/a	n/a	CORN	2	15	[0, 0, 0]	n/a	FR1	0	R1304N
1821.116	0.903	1823082	WORD_OFF	n/a	n/a	CORN	2	15	[0, 0, 0]	n/a	FR1	0	R1304N
1822.019	1.631	1823985	WORD	n/a	n/a	HORSE	3	15	[0, 0, 0]	n/a	FR1	0	R1304N
1823.65	1.067	1825616	WORD_OFF	n/a	n/a	HORSE	3	15	[0, 0, 0]	n/a	FR1	0	R1304N
1824.717	1.632	1826683	WORD	n/a	n/a	TRASH	4	15	[0, 0, 0]	n/a	FR1	0	R1304N
1826.349	0.837	1828315	WORD_OFF	n/a	n/a	TRASH	4	15	[0, 0, 0]	n/a	FR1	0	R1304N
1827.186	1.631	1829152	WORD	n/a	n/a	FLAG	5	15	[0, 0, 0]	n/a	FR1	0	R1304N
1828.817	0.799	1830783	WORD_OFF	n/a	n/a	FLAG	5	15	[0, 0, 0]	n/a	FR1	0	R1304N
1829.616	1.635	1831582	WORD	n/a	n/a	ROOF	6	15	[0, 0, 0]	n/a	FR1	0	R1304N
1831.251	0.974	1833217	WORD_OFF	n/a	n/a	ROOF	6	15	[0, 0, 0]	n/a	FR1	0	R1304N
1832.225	1.626	1834191	WORD	n/a	n/a	CROWN	7	15	[0, 0, 0]	n/a	FR1	0	R1304N
1833.851	0.8	1835817	WORD_OFF	n/a	n/a	CROWN	7	15	[0, 0, 0]	n/a	FR1	0	R1304N
1834.651	1.633	1836617	WORD	n/a	n/a	HEN	8	15	[0, 0, 0]	n/a	FR1	0	R1304N
1836.284	0.838	1838249	WORD_OFF	n/a	n/a	HEN	8	15	[0, 0, 0]	n/a	FR1	0	R1304N
1837.122	1.63	1839087	WORD	n/a	n/a	BEE	9	15	[0, 0, 0]	n/a	FR1	0	R1304N
1838.752	1.095	1840717	WORD_OFF	n/a	n/a	BEE	9	15	[0, 0, 0]	n/a	FR1	0	R1304N
1839.847	1.622	1841812	WORD	n/a	n/a	BEAR	10	15	[0, 0, 0]	n/a	FR1	0	R1304N
1841.469	1.073	1843434	WORD_OFF	n/a	n/a	BEAR	10	15	[0, 0, 0]	n/a	FR1	0	R1304N
1842.542	1.628	1844507	WORD	n/a	n/a	CANE	11	15	[0, 0, 0]	n/a	FR1	0	R1304N
1844.17	0.755	1846135	WORD_OFF	n/a	n/a	CANE	11	15	[0, 0, 0]	n/a	FR1	0	R1304N
1844.925	1.629	1846890	WORD	n/a	n/a	HOSE	12	15	[0, 0, 0]	n/a	FR1	0	R1304N
1846.554	0.0	1848519	WORD_OFF	n/a	n/a	HOSE	12	15	[0, 0, 0]	n/a	FR1	0	R1304N
1846.554	0.001	1848519	ENCODING_END	n/a	n/a	n/a	-999	15	[0, 0, 0]	n/a	FR1	0	R1304N
1846.555	0.0	1848520	DISTRACT_START	n/a	n/a	n/a	-999	15	[0, 0, 0]	n/a	FR1	0	R1304N
1846.555	0.015	1848520	START	n/a	n/a	n/a	-999	15	[-999, -999, -999]	n/a	FR1	0	R1304N
1846.57	7.135	1848535	PROB	7.135	n/a	n/a	-999	15	[6, 4, 7]	5	FR1	0	R1304N
1853.705	4.484	1855670	PROB	4.484	n/a	n/a	-999	15	[3, 3, 6]	7	FR1	0	R1304N
1858.189	14.203	1860154	PROB	14.203	n/a	n/a	-999	15	[3, 5, 3]	8	FR1	0	R1304N
1872.392	0.016	1874356	STOP	n/a	n/a	n/a	-999	15	[-999, -999, -999]	n/a	FR1	0	R1304N
1872.408	0.659	1874372	DISTRACT_END	n/a	n/a	n/a	-999	15	[0, 0, 0]	n/a	FR1	0	R1304N
1873.067	1.658	1875031	RETRIEVAL_ORIENT_START	n/a	n/a	n/a	-999	15	[0, 0, 0]	n/a	FR1	0	R1304N
1874.725	0.0	1876689	RETRIEVAL_ORIENT_END	n/a	n/a	n/a	-999	15	[0, 0, 0]	n/a	FR1	0	R1304N
1874.725	1.069	1876689	REC_START	n/a	n/a	n/a	-999	15	[0, 0, 0]	n/a	FR1	0	R1304N
1875.794	1.952	1877758	REC_WORD	1.952	n/a	CREAM	-999	15	[0, 0, 0]	n/a	FR1	0	R1304N
1877.746	26.993	1879710	REC_WORD	26.993	n/a	STREETS	-999	15	[0, 0, 0]	n/a	FR1	0	R1304N
1904.739	0.001	1906702	REC_END	n/a	n/a	n/a	-999	15	[0, 0, 0]	n/a	FR1	0	R1304N
1904.74	0.013	1906703	TRIAL_END	n/a	n/a	n/a	-999	15	[0, 0, 0]	n/a	FR1	0	R1304N
1904.753	0.001	1906716	TRIAL_START	n/a	n/a	n/a	-999	16	[0, 0, 0]	n/a	FR1	0	R1304N
1904.754	0.0	1906717	TRIAL	n/a	n/a	n/a	-999	16	[0, 0, 0]	n/a	FR1	0	R1304N
1904.754	6.894	1906717	WAITING_START	n/a	n/a	n/a	-999	16	[0, 0, 0]	n/a	FR1	0	R1304N
1911.648	0.0	1913610	WAITING_END	n/a	n/a	n/a	-999	16	[0, 0, 0]	n/a	FR1	0	R1304N
1911.648	10.429	1913610	COUNTDOWN_START	n/a	n/a	n/a	-999	16	[0, 0, 0]	n/a	FR1	0	R1304N
1922.077	0.001	1924039	COUNTDOWN_END	n/a	n/a	n/a	-999	16	[0, 0, 0]	n/a	FR1	0	R1304N
1922.078	1.254	1924040	ORIENT_START	n/a	n/a	n/a	-999	16	[0, 0, 0]	n/a	FR1	0	R1304N
1923.332	0.0	1925294	ORIENT_END	n/a	n/a	n/a	-999	16	[0, 0, 0]	n/a	FR1	0	R1304N
1923.332	0.976	1925294	ENCODING_START	n/a	n/a	n/a	-999	16	[0, 0, 0]	n/a	FR1	0	R1304N
1924.308	1.609	1926270	WORD	n/a	n/a	MOUTH	1	16	[0, 0, 0]	n/a	FR1	0	R1304N
1925.917	1.105	1927879	WORD_OFF	n/a	n/a	MOUTH	1	16	[0, 0, 0]	n/a	FR1	0	R1304N
1927.022	1.628	1928984	WORD	n/a	n/a	WEB	2	16	[0, 0, 0]	n/a	FR1	0	R1304N
1928.65	1.144	1930612	WORD_OFF	n/a	n/a	WEB	2	16	[0, 0, 0]	n/a	FR1	0	R1304N
1929.794	1.624	1931756	WORD	n/a	n/a	SLUSH	3	16	[0, 0, 0]	n/a	FR1	0	R1304N
1931.418	1.076	1933380	WORD_OFF	n/a	n/a	SLUSH	3	16	[0, 0, 0]	n/a	FR1	0	R1304N
1932.494	1.624	1934456	WORD	n/a	n/a	SHARK	4	16	[0, 0, 0]	n/a	FR1	0	R1304N
1934.118	0.755	1936079	WORD_OFF	n/a	n/a	SHARK	4	16	[0, 0, 0]	n/a	FR1	0	R1304N
1934.873	1.629	1936834	WORD	n/a	n/a	TOOTH	5	16	[0, 0, 0]	n/a	FR1	0	R1304N
1936.502	0.977	1938463	WORD_OFF	n/a	n/a	TOOTH	5	16	[0, 0, 0]	n/a	FR1	0	R1304N
1937.479	1.623	1939440	WORD	n/a	n/a	FENCE	6	16	[0, 0, 0]	n/a	FR1	0	R1304N
1939.102	0.911	1941063	WORD_OFF	n/a	n/a	FENCE	6	16	[0, 0, 0]	n/a	FR1	0	R1304N
1940.013	1.623	1941974	WORD	n/a	n/a	STAR	7	16	[0, 0, 0]	n/a	FR1	0	R1304N
1941.636	1.12	1943597	WORD_OFF	n/a	n/a	STAR	7	16	[0, 0, 0]	n/a	FR1	0	R1304N
1942.756	1.631	1944717	WORD	n/a	n/a	SQUARE	8	16	[0, 0, 0]	n/a	FR1	0	R1304N
1944.387	0.96	1946348	WORD_OFF	n/a	n/a	SQUARE	8	16	[0, 0, 0]	n/a	FR1	0	R1304N
1945.347	1.606	1947308	WORD	n/a	n/a	MAP	9	16	[0, 0, 0]	n/a	FR1	0	R1304N
1946.953	0.772	1948914	WORD_OFF	n/a	n/a	MAP	9	16	[0, 0, 0]	n/a	FR1	0	R1304N
1947.725	1.628	1949686	WORD	n/a	n/a	SMOKE	10	16	[0, 0, 0]	n/a	FR1	0	R1304N
1949.353	1.097	1951314	WORD_OFF	n/a	n/a	SMOKE	10	16	[0, 0, 0]	n/a	FR1	0	R1304N
1950.45	1.638	1952411	WORD	n/a	n/a	MOOSE	11	16	[0, 0, 0]	n/a	FR1	0	R1304N
1952.088	0.9	1954049	WORD_OFF	n/a	n/a	MOOSE	11	16	[0, 0, 0]	n/a	FR1	0	R1304N
1952.988	1.633	1954949	WORD	n/a	n/a	FOOD	12	16	[0, 0, 0]	n/a	FR1	0	R1304N
1954.621	0.001	1956582	WORD_OFF	n/a	n/a	FOOD	12	16	[0, 0, 0]	n/a	FR1	0	R1304N
1954.622	0.0	1956583	ENCODING_END	n/a	n/a	n/a	-999	16	[0, 0, 0]	n/a	FR1	0	R1304N
1954.622	0.0	1956583	DISTRACT_START	n/a	n/a	n/a	-999	16	[0, 0, 0]	n/a	FR1	0	R1304N
1954.622	0.016	1956583	START	n/a	n/a	n/a	-999	16	[-999, -999, -999]	n/a	FR1	0	R1304N
1954.638	9.535	1956599	PROB	9.535	n/a	n/a	-999	16	[4, 8, 2]	5	FR1	0	R1304N
1964.173	4.667	1966133	PROB	4.667	n/a	n/a	-999	16	[8, 2, 7]	8	FR1	0	R1304N
1968.84	20.624	1970800	PROB	20.624	n/a	n/a	-999	16	[6, 3, 5]	8	FR1	0	R1304N
1989.464	0.013	1991423	STOP	n/a	n/a	n/a	-999	16	[-999, -999, -999]	n/a	FR1	0	R1304N
1989.477	0.641	1991436	DISTRACT_END	n/a	n/a	n/a	-999	16	[0, 0, 0]	n/a	FR1	0	R1304N
1990.118	1.643	1992077	RETRIEVAL_ORIENT_START	n/a	n/a	n/a	-999	16	[0, 0, 0]	n/a	FR1	0	R1304N
1991.761	0.0	1993720	RETRIEVAL_ORIENT_END	n/a	n/a	n/a	-999	16	[0, 0, 0]	n/a	FR1	0	R1304N
1991.761	10.751	1993720	REC_START	n/a	n/a	n/a	-999	16	[0, 0, 0]	n/a	FR1	0	R1304N
2002.512	6.543	2004471	REC_WORD	6.543	n/a	BAT	-999	16	[0, 0, 0]	n/a	FR1	0	R1304N
2009.055	12.718	2011013	REC_WORD	12.718	n/a	FOOD	12	16	[0, 0, 0]	n/a	FR1	0	R1304N
2021.773	0.001	2023731	REC_END	n/a	n/a	n/a	-999	16	[0, 0, 0]	n/a	FR1	0	R1304N
2021.774	0.016	2023732	TRIAL_END	n/a	n/a	n/a	-999	16	[0, 0, 0]	n/a	FR1	0	R1304N
2021.79	0.0	2023748	TRIAL_START	n/a	n/a	n/a	-999	17	[0, 0, 0]	n/a	FR1	0	R1304N
2021.79	0.0	2023748	TRIAL	n/a	n/a	n/a	-999	17	[0, 0, 0]	n/a	FR1	0	R1304N
2021.79	16.846	2023748	WAITING_START	n/a	n/a	n/a	-999	17	[0, 0, 0]	n/a	FR1	0	R1304N
2038.636	0.0	2040593	WAITING_END	n/a	n/a	n/a	-999	17	[0, 0, 0]	n/a	FR1	0	R1304N
2038.636	10.428	2040593	COUNTDOWN_START	n/a	n/a	n/a	-999	17	[0, 0, 0]	n/a	FR1	0	R1304N
2049.064	0.001	2051021	COUNTDOWN_END	n/a	n/a	n/a	-999	17	[0, 0, 0]	n/a	FR1	0	R1304N
2049.065	1.221	2051022	ORIENT_START	n/a	n/a	n/a	-999	17	[0, 0, 0]	n/a	FR1	0	R1304N
2050.286	0.001	2052243	ORIENT_END	n/a	n/a	n/a	-999	17	[0, 0, 0]	n/a	FR1	0	R1304N
2050.287	0.755	2052244	ENCODING_START	n/a	n/a	n/a	-999	17	[0, 0, 0]	n/a	FR1	0	R1304N
2051.042	1.629	2052999	WORD	n/a	n/a	MULE	1	17	[0, 0, 0]	n/a	FR1	0	R1304N
2052.671	1.112	2054628	WORD_OFF	n/a	n/a	MULE	1	17	[0, 0, 0]	n/a	FR1	0	R1304N
2053.783	1.622	2055740	WORD	n/a	n/a	TOE	2	17	[0, 0, 0]	n/a	FR1	0	R1304N
2055.405	1.045	2057361	WORD_OFF	n/a	n/a	TOE	2	17	[0, 0, 0]	n/a	FR1	0	R1304N
2056.45	1.622	2058406	WORD	n/a	n/a	FAN	3	17	[0, 0, 0]	n/a	FR1	0	R1304N
2058.072	0.986	2060028	WORD_OFF	n/a	n/a	FAN	3	17	[0, 0, 0]	n/a	FR1	0	R1304N
2059.058	1.631	2061014	WORD	n/a	n/a	GOLD	4	17	[0, 0, 0]	n/a	FR1	0	R1304N
2060.689	0.955	2062645	WORD_OFF	n/a	n/a	GOLD	4	17	[0, 0, 0]	n/a	FR1	0	R1304N
2061.644	1.629	2063600	WORD	n/a	n/a	CAGE	5	17	[0, 0, 0]	n/a	FR1	0	R1304N
2063.273	0.883	2065229	WORD_OFF	n/a	n/a	CAGE	5	17	[0, 0, 0]	n/a	FR1	0	R1304N
2064.156	1.634	2066112	WORD	n/a	n/a	BRICK	6	17	[0, 0, 0]	n/a	FR1	0	R1304N
2065.79	0.851	2067746	WORD_OFF	n/a	n/a	BRICK	6	17	[0, 0, 0]	n/a	FR1	0	R1304N
2066.641	1.633	2068597	WORD	n/a	n/a	PEACH	7	17	[0, 0, 0]	n/a	FR1	0	R1304N
2068.274	0.807	2070230	WORD_OFF	n/a	n/a	PEACH	7	17	[0, 0, 0]	n/a	FR1	0	R1304N
2069.081	1.626	2071037	WORD	n/a	n/a	BED	8	17	[0, 0, 0]	n/a	FR1	0	R1304N
2070.707	0.948	2072663	WORD_OFF	n/a	n/a	BED	8	17	[0, 0, 0]	n/a	FR1	0	R1304N
2071.655	1.635	2073611	WORD	n/a	n/a	NET	9	17	[0, 0, 0]	n/a	FR1	0	R1304N
2073.29	0.766	2075246	WORD_OFF	n/a	n/a	NET	9	17	[0, 0, 0]	n/a	FR1	0	R1304N
2074.056	1.635	2076012	WORD	n/a	n/a	SPOON	10	17	[0, 0, 0]	n/a	FR1	0	R1304N
2075.691	1.093	2077647	WORD_OFF	n/a	n/a	SPOON	10	17	[0, 0, 0]	n/a	FR1	0	R1304N
2076.784	1.625	2078740	WORD	n/a	n/a	SPONGE	11	17	[0, 0, 0]	n/a	FR1	0	R1304N
2078.409	0.877	2080365	WORD_OFF	n/a	n/a	SPONGE	11	17	[0, 0, 0]	n/a	FR1	0	R1304N
2079.286	1.606	2081241	WORD	n/a	n/a	LAMP	12	17	[0, 0, 0]	n/a	FR1	0	R1304N
2080.892	0.001	2082847	WORD_OFF	n/a	n/a	LAMP	12	17	[0, 0, 0]	n/a	FR1	0	R1304N
2080.893	0.0	2082848	ENCODING_END	n/a	n/a	n/a	-999	17	[0, 0, 0]	n/a	FR1	0	R1304N
2080.893	0.0	2082848	DISTRACT_START	n/a	n/a	n/a	-999	17	[0, 0, 0]	n/a	FR1	0	R1304N
2080.893	0.016	2082848	START	n/a	n/a	n/a	-999	17	[-999, -999, -999]	n/a	FR1	0	R1304N
2080.909	20.539	2082864	PROB	20.539	n/a	n/a	-999	17	[9, 5, 4]	9	FR1	0	R1304N
2101.448	0.014	2103403	STOP	n/a	n/a	n/a	-999	17	[-999, -999, -999]	n/a	FR1	0	R1304N
2101.462	0.574	2103417	DISTRACT_END	n/a	n/a	n/a	-999	17	[0, 0, 0]	n/a	FR1	0	R1304N
2102.036	1.627	2103991	RETRIEVAL_ORIENT_START	n/a	n/a	n/a	-999	17	[0, 0, 0]	n/a	FR1	0	R1304N
2103.663	0.0	2105617	RETRIEVAL_ORIENT_END	n/a	n/a	n/a	-999	17	[0, 0, 0]	n/a	FR1	0	R1304N
2103.663	5.359	2105617	REC_START	n/a	n/a	n/a	-999	17	[0, 0, 0]	n/a	FR1	0	R1304N
2109.022	1.28	2110976	REC_WORD_VV	1.28	n/a	<>	-999	17	[0, 0, 0]	n/a	FR1	0	R1304N
2110.302	4.764	2112256	REC_WORD	4.764	n/a	BRICK	6	17	[0, 0, 0]	n/a	FR1	0	R1304N
2115.066	0.744	2117020	REC_WORD_VV	0.744	n/a	<>	-999	17	[0, 0, 0]	n/a	FR1	0	R1304N
2115.81	15.96	2117764	REC_WORD	15.96	n/a	SLUSHIE	-999	17	[0, 0, 0]	n/a	FR1	0	R1304N
2131.77	1.905	2133723	REC_WORD_VV	1.905	n/a	<>	-999	17	[0, 0, 0]	n/a	FR1	0	R1304N
2133.675	0.0	2135628	TRIAL_END	n/a	n/a	n/a	-999	17	[0, 0, 0]	n/a	FR1	0	R1304N
2133.675	0.015	2135628	REC_END	n/a	n/a	n/a	-999	17	[0, 0, 0]	n/a	FR1	0	R1304N
2133.69	0.0	2135643	TRIAL_START	n/a	n/a	n/a	-999	18	[0, 0, 0]	n/a	FR1	0	R1304N
2133.69	0.0	2135643	TRIAL	n/a	n/a	n/a	-999	18	[0, 0, 0]	n/a	FR1	0	R1304N
2133.69	8.662	2135643	WAITING_START	n/a	n/a	n/a	-999	18	[0, 0, 0]	n/a	FR1	0	R1304N
2142.352	0.0	2144305	WAITING_END	n/a	n/a	n/a	-999	18	[0, 0, 0]	n/a	FR1	0	R1304N
2142.352	10.429	2144305	COUNTDOWN_START	n/a	n/a	n/a	-999	18	[0, 0, 0]	n/a	FR1	0	R1304N
2152.781	0.0	2154733	COUNTDOWN_END	n/a	n/a	n/a	-999	18	[0, 0, 0]	n/a	FR1	0	R1304N
2152.781	1.057	2154733	ORIENT_START	n/a	n/a	n/a	-999	18	[0, 0, 0]	n/a	FR1	0	R1304N
2153.838	0.0	2155790	ENCODING_START	n/a	n/a	n/a	-999	18	[0, 0, 0]	n/a	FR1	0	R1304N
2153.838	1.023	2155790	ORIENT_END	n/a	n/a	n/a	-999	18	[0, 0, 0]	n/a	FR1	0	R1304N
2154.861	1.627	2156813	WORD	n/a	n/a	PHONE	1	18	[0, 0, 0]	n/a	FR1	0	R1304N
2156.488	1.119	2158440	WORD_OFF	n/a	n/a	PHONE	1	18	[0, 0, 0]	n/a	FR1	0	R1304N
2157.607	1.632	2159559	WORD	n/a	n/a	NAIL	2	18	[0, 0, 0]	n/a	FR1	0	R1304N
2159.239	1.148	2161191	WORD_OFF	n/a	n/a	NAIL	2	18	[0, 0, 0]	n/a	FR1	0	R1304N
2160.387	1.636	2162339	WORD	n/a	n/a	FORK	3	18	[0, 0, 0]	n/a	FR1	0	R1304N
2162.023	0.911	2163975	WORD_OFF	n/a	n/a	FORK	3	18	[0, 0, 0]	n/a	FR1	0	R1304N
2162.934	1.622	2164886	WORD	n/a	n/a	SNOW	4	18	[0, 0, 0]	n/a	FR1	0	R1304N
2164.556	0.839	2166508	WORD_OFF	n/a	n/a	SNOW	4	18	[0, 0, 0]	n/a	FR1	0	R1304N
2165.395	1.628	2167347	WORD	n/a	n/a	BOWL	5	18	[0, 0, 0]	n/a	FR1	0	R1304N
2167.023	0.851	2168975	WORD_OFF	n/a	n/a	BOWL	5	18	[0, 0, 0]	n/a	FR1	0	R1304N
2167.874	1.633	2169826	WORD	n/a	n/a	FOX	6	18	[0, 0, 0]	n/a	FR1	0	R1304N
2169.507	1.094	2171459	WORD_OFF	n/a	n/a	FOX	6	18	[0, 0, 0]	n/a	FR1	0	R1304N
2170.601	1.623	2172553	WORD	n/a	n/a	ARK	7	18	[0, 0, 0]	n/a	FR1	0	R1304N
2172.224	1.03	2174176	WORD_OFF	n/a	n/a	ARK	7	18	[0, 0, 0]	n/a	FR1	0	R1304N
2173.254	1.637	2175206	WORD	n/a	n/a	VINE	8	18	[0, 0, 0]	n/a	FR1	0	R1304N
2174.891	0.997	2176843	WORD_OFF	n/a	n/a	VINE	8	18	[0, 0, 0]	n/a	FR1	0	R1304N
2175.888	1.637	2177840	WORD	n/a	n/a	WALL	9	18	[0, 0, 0]	n/a	FR1	0	R1304N
2177.525	1.062	2179476	WORD_OFF	n/a	n/a	WALL	9	18	[0, 0, 0]	n/a	FR1	0	R1304N
2178.587	1.622	2180538	WORD	n/a	n/a	COW	10	18	[0, 0, 0]	n/a	FR1	0	R1304N
2180.209	1.033	2182160	WORD_OFF	n/a	n/a	COW	10	18	[0, 0, 0]	n/a	FR1	0	R1304N
2181.242	1.634	2183193	WORD	n/a	n/a	PET	11	18	[0, 0, 0]	n/a	FR1	0	R1304N
2182.876	0.924	2184827	WORD_OFF	n/a	n/a	PET	11	18	[0, 0, 0]	n/a	FR1	0	R1304N
2183.8	1.626	2185751	WORD	n/a	n/a	HOOK	12	18	[0, 0, 0]	n/a	FR1	0	R1304N
2185.426	0.001	2187377	WORD_OFF	n/a	n/a	HOOK	12	18	[0, 0, 0]	n/a	FR1	0	R1304N
2185.427	0.0	2187378	ENCODING_END	n/a	n/a	n/a	-999	18	[0, 0, 0]	n/a	FR1	0	R1304N
2185.427	0.0	2187378	DISTRACT_START	n/a	n/a	n/a	-999	18	[0, 0, 0]	n/a	FR1	0	R1304N
2185.427	0.016	2187378	START	n/a	n/a	n/a	-999	18	[-999, -999, -999]	n/a	FR1	0	R1304N
2185.443	13.635	2187394	PROB	13.635	n/a	n/a	-999	18	[3, 4, 4]	8	FR1	0	R1304N
2199.078	5.685	2201029	PROB	5.685	n/a	n/a	-999	18	[7, 2, 3]	4	FR1	0	R1304N
2204.763	4.413	2206713	PROB	4.413	n/a	n/a	-999	18	[6, 5, 5]	10	FR1	0	R1304N
2209.176	0.021	2211126	STOP	n/a	n/a	n/a	-999	18	[-999, -999, -999]	n/a	FR1	0	R1304N
2209.197	0.504	2211147	DISTRACT_END	n/a	n/a	n/a	-999	18	[0, 0, 0]	n/a	FR1	0	R1304N
2209.701	1.563	2211651	RETRIEVAL_ORIENT_START	n/a	n/a	n/a	-999	18	[0, 0, 0]	n/a	FR1	0	R1304N
2211.264	0.0	2213214	RETRIEVAL_ORIENT_END	n/a	n/a	n/a	-999	18	[0, 0, 0]	n/a	FR1	0	R1304N
2211.264	1.984	2213214	REC_START	n/a	n/a	n/a	-999	18	[0, 0, 0]	n/a	FR1	0	R1304N
2213.248	2.706	2215198	REC_WORD	2.706	n/a	PET	11	18	[0, 0, 0]	n/a	FR1	0	R1304N
2215.954	3.272	2217904	REC_WORD_VV	3.272	n/a	<>	-999	18	[0, 0, 0]	n/a	FR1	0	R1304N
2219.226	22.052	2221176	REC_WORD	22.052	n/a	HOOK	12	18	[0, 0, 0]	n/a	FR1	0	R1304N
2241.278	0.0	2243227	REC_END	n/a	n/a	n/a	-999	18	[0, 0, 0]	n/a	FR1	0	R1304N
2241.278	0.013	2243227	TRIAL_END	n/a	n/a	n/a	-999	18	[0, 0, 0]	n/a	FR1	0	R1304N
2241.291	0.0	2243240	WAITING_START	n/a	n/a	n/a	-999	19	[0, 0, 0]	n/a	FR1	0	R1304N
2241.291	0.0	2243240	TRIAL_START	n/a	n/a	n/a	-999	19	[0, 0, 0]	n/a	FR1	0	R1304N
2241.291	20.148	2243240	TRIAL	n/a	n/a	n/a	-999	19	[0, 0, 0]	n/a	FR1	0	R1304N
2261.439	0.0	2263387	WAITING_END	n/a	n/a	n/a	-999	19	[0, 0, 0]	n/a	FR1	0	R1304N
2261.439	10.429	2263387	COUNTDOWN_START	n/a	n/a	n/a	-999	19	[0, 0, 0]	n/a	FR1	0	R1304N
2271.868	0.0	2273816	COUNTDOWN_END	n/a	n/a	n/a	-999	19	[0, 0, 0]	n/a	FR1	0	R1304N
2271.868	1.023	2273816	ORIENT_START	n/a	n/a	n/a	-999	19	[0, 0, 0]	n/a	FR1	0	R1304N
2272.891	0.0	2274839	ENCODING_START	n/a	n/a	n/a	-999	19	[0, 0, 0]	n/a	FR1	0	R1304N
2272.891	0.809	2274839	ORIENT_END	n/a	n/a	n/a	-999	19	[0, 0, 0]	n/a	FR1	0	R1304N
2273.7	1.624	2275648	WORD	n/a	n/a	YARD	1	19	[0, 0, 0]	n/a	FR1	0	R1304N
2275.324	1.108	2277271	WORD_OFF	n/a	n/a	YARD	1	19	[0, 0, 0]	n/a	FR1	0	R1304N
2276.432	1.626	2278379	WORD	n/a	n/a	PIG	2	19	[0, 0, 0]	n/a	FR1	0	R1304N
2278.058	1.118	2280005	WORD_OFF	n/a	n/a	PIG	2	19	[0, 0, 0]	n/a	FR1	0	R1304N
2279.176	1.633	2281123	WORD	n/a	n/a	STOOL	3	19	[0, 0, 0]	n/a	FR1	0	R1304N
2280.809	0.875	2282756	WORD_OFF	n/a	n/a	STOOL	3	19	[0, 0, 0]	n/a	FR1	0	R1304N
2281.684	1.624	2283631	WORD	n/a	n/a	THREAD	4	19	[0, 0, 0]	n/a	FR1	0	R1304N
2283.308	1.072	2285255	WORD_OFF	n/a	n/a	THREAD	4	19	[0, 0, 0]	n/a	FR1	0	R1304N
2284.38	1.63	2286327	WORD	n/a	n/a	SLEEVE	5	19	[0, 0, 0]	n/a	FR1	0	R1304N
2286.01	0.798	2287957	WORD_OFF	n/a	n/a	SLEEVE	5	19	[0, 0, 0]	n/a	FR1	0	R1304N
2286.808	1.635	2288755	WORD	n/a	n/a	SHELL	6	19	[0, 0, 0]	n/a	FR1	0	R1304N
2288.443	1.131	2290390	WORD_OFF	n/a	n/a	SHELL	6	19	[0, 0, 0]	n/a	FR1	0	R1304N
2289.574	1.637	2291521	WORD	n/a	n/a	TOY	7	19	[0, 0, 0]	n/a	FR1	0	R1304N
2291.211	0.772	2293158	WORD_OFF	n/a	n/a	TOY	7	19	[0, 0, 0]	n/a	FR1	0	R1304N
2291.983	1.628	2293930	WORD	n/a	n/a	SHEEP	8	19	[0, 0, 0]	n/a	FR1	0	R1304N
2293.611	1.023	2295558	WORD_OFF	n/a	n/a	SHEEP	8	19	[0, 0, 0]	n/a	FR1	0	R1304N
2294.634	1.627	2296581	WORD	n/a	n/a	THUMB	9	19	[0, 0, 0]	n/a	FR1	0	R1304N
2296.261	0.864	2298208	WORD_OFF	n/a	n/a	THUMB	9	19	[0, 0, 0]	n/a	FR1	0	R1304N
2297.125	1.637	2299072	WORD	n/a	n/a	JEEP	10	19	[0, 0, 0]	n/a	FR1	0	R1304N
2298.762	0.968	2300709	WORD_OFF	n/a	n/a	JEEP	10	19	[0, 0, 0]	n/a	FR1	0	R1304N
2299.73	1.631	2301676	WORD	n/a	n/a	STONE	11	19	[0, 0, 0]	n/a	FR1	0	R1304N
2301.361	0.958	2303307	WORD_OFF	n/a	n/a	STONE	11	19	[0, 0, 0]	n/a	FR1	0	R1304N
2302.319	1.61	2304265	WORD	n/a	n/a	JUDGE	12	19	[0, 0, 0]	n/a	FR1	0	R1304N
2303.929	0.001	2305875	WORD_OFF	n/a	n/a	JUDGE	12	19	[0, 0, 0]	n/a	FR1	0	R1304N
2303.93	0.0	2305876	ENCODING_END	n/a	n/a	n/a	-999	19	[0, 0, 0]	n/a	FR1	0	R1304N
2303.93	0.0	2305876	DISTRACT_START	n/a	n/a	n/a	-999	19	[0, 0, 0]	n/a	FR1	0	R1304N
2303.93	0.015	2305876	START	n/a	n/a	n/a	-999	19	[-999, -999, -999]	n/a	FR1	0	R1304N
2303.945	12.385	2305891	PROB	12.385	n/a	n/a	-999	19	[3, 7, 2]	8	FR1	0	R1304N
2316.33	3.034	2318276	PROB	3.034	n/a	n/a	-999	19	[2, 2, 5]	6	FR1	0	R1304N
2319.364	8.38	2321310	PROB	8.38	n/a	n/a	-999	19	[3, 8, 2]	6	FR1	0	R1304N
2327.744	0.006	2329689	STOP	n/a	n/a	n/a	-999	19	[-999, -999, -999]	n/a	FR1	0	R1304N
2327.75	0.516	2329695	DISTRACT_END	n/a	n/a	n/a	-999	19	[0, 0, 0]	n/a	FR1	0	R1304N
2328.266	1.551	2330211	RETRIEVAL_ORIENT_START	n/a	n/a	n/a	-999	19	[0, 0, 0]	n/a	FR1	0	R1304N
2329.817	0.0	2331762	REC_START	n/a	n/a	n/a	-999	19	[0, 0, 0]	n/a	FR1	0	R1304N
2329.817	1.02	2331762	RETRIEVAL_ORIENT_END	n/a	n/a	n/a	-999	19	[0, 0, 0]	n/a	FR1	0	R1304N
2330.837	22.759	2332782	REC_WORD	22.759	n/a	JUDGE	12	19	[0, 0, 0]	n/a	FR1	0	R1304N
2353.596	6.233	2355540	REC_WORD_VV	6.233	n/a	<>	-999	19	[0, 0, 0]	n/a	FR1	0	R1304N
2359.829	0.0	2361773	REC_END	n/a	n/a	n/a	-999	19	[0, 0, 0]	n/a	FR1	0	R1304N
2359.829	0.014	2361773	TRIAL_END	n/a	n/a	n/a	-999	19	[0, 0, 0]	n/a	FR1	0	R1304N
2359.843	0.0	2361787	TRIAL_START	n/a	n/a	n/a	-999	20	[0, 0, 0]	n/a	FR1	0	R1304N
2359.843	0.0	2361787	TRIAL	n/a	n/a	n/a	-999	20	[0, 0, 0]	n/a	FR1	0	R1304N
2359.843	9.631	2361787	WAITING_START	n/a	n/a	n/a	-999	20	[0, 0, 0]	n/a	FR1	0	R1304N
2369.474	0.0	2371418	COUNTDOWN_START	n/a	n/a	n/a	-999	20	[0, 0, 0]	n/a	FR1	0	R1304N
2369.474	10.429	2371418	WAITING_END	n/a	n/a	n/a	-999	20	[0, 0, 0]	n/a	FR1	0	R1304N
2379.903	0.0	2381846	COUNTDOWN_END	n/a	n/a	n/a	-999	20	[0, 0, 0]	n/a	FR1	0	R1304N
2379.903	1.156	2381846	ORIENT_START	n/a	n/a	n/a	-999	20	[0, 0, 0]	n/a	FR1	0	R1304N
2381.059	0.0	2383002	ORIENT_END	n/a	n/a	n/a	-999	20	[0, 0, 0]	n/a	FR1	0	R1304N
2381.059	0.796	2383002	ENCODING_START	n/a	n/a	n/a	-999	20	[0, 0, 0]	n/a	FR1	0	R1304N
2381.855	1.637	2383798	WORD	n/a	n/a	FILM	1	20	[0, 0, 0]	n/a	FR1	0	R1304N
2383.492	0.991	2385435	WORD_OFF	n/a	n/a	FILM	1	20	[0, 0, 0]	n/a	FR1	0	R1304N
2384.483	1.627	2386426	WORD	n/a	n/a	CORD	2	20	[0, 0, 0]	n/a	FR1	0	R1304N
2386.11	0.767	2388053	WORD_OFF	n/a	n/a	CORD	2	20	[0, 0, 0]	n/a	FR1	0	R1304N
2386.877	1.633	2388820	WORD	n/a	n/a	GRAPE	3	20	[0, 0, 0]	n/a	FR1	0	R1304N
2388.51	0.949	2390453	WORD_OFF	n/a	n/a	GRAPE	3	20	[0, 0, 0]	n/a	FR1	0	R1304N
2389.459	1.635	2391402	WORD	n/a	n/a	HOOF	4	20	[0, 0, 0]	n/a	FR1	0	R1304N
2391.094	0.886	2393037	WORD_OFF	n/a	n/a	HOOF	4	20	[0, 0, 0]	n/a	FR1	0	R1304N
2391.98	1.631	2393923	WORD	n/a	n/a	BIRD	5	20	[0, 0, 0]	n/a	FR1	0	R1304N
2393.611	0.959	2395554	WORD_OFF	n/a	n/a	BIRD	5	20	[0, 0, 0]	n/a	FR1	0	R1304N
2394.57	1.625	2396513	WORD	n/a	n/a	BENCH	6	20	[0, 0, 0]	n/a	FR1	0	R1304N
2396.195	0.919	2398138	WORD_OFF	n/a	n/a	BENCH	6	20	[0, 0, 0]	n/a	FR1	0	R1304N
2397.114	1.631	2399056	WORD	n/a	n/a	FLUTE	7	20	[0, 0, 0]	n/a	FR1	0	R1304N
2398.745	0.867	2400687	WORD_OFF	n/a	n/a	FLUTE	7	20	[0, 0, 0]	n/a	FR1	0	R1304N
2399.612	1.633	2401554	WORD	n/a	n/a	PIN	8	20	[0, 0, 0]	n/a	FR1	0	R1304N
2401.245	0.92	2403187	WORD_OFF	n/a	n/a	PIN	8	20	[0, 0, 0]	n/a	FR1	0	R1304N
2402.165	1.631	2404107	WORD	n/a	n/a	GLOVE	9	20	[0, 0, 0]	n/a	FR1	0	R1304N
2403.796	0.81	2405738	WORD_OFF	n/a	n/a	GLOVE	9	20	[0, 0, 0]	n/a	FR1	0	R1304N
2404.606	1.624	2406548	WORD	n/a	n/a	POLE	10	20	[0, 0, 0]	n/a	FR1	0	R1304N
2406.23	0.936	2408172	WORD_OFF	n/a	n/a	POLE	10	20	[0, 0, 0]	n/a	FR1	0	R1304N
2407.166	1.631	2409108	WORD	n/a	n/a	TRUCK	11	20	[0, 0, 0]	n/a	FR1	0	R1304N
2408.797	0.949	2410739	WORD_OFF	n/a	n/a	TRUCK	11	20	[0, 0, 0]	n/a	FR1	0	R1304N
2409.746	1.633	2411688	WORD	n/a	n/a	STICK	12	20	[0, 0, 0]	n/a	FR1	0	R1304N
2411.379	0.001	2413321	WORD_OFF	n/a	n/a	STICK	12	20	[0, 0, 0]	n/a	FR1	0	R1304N
2411.38	0.0	2413322	ENCODING_END	n/a	n/a	n/a	-999	20	[0, 0, 0]	n/a	FR1	0	R1304N
2411.38	0.0	2413322	DISTRACT_START	n/a	n/a	n/a	-999	20	[0, 0, 0]	n/a	FR1	0	R1304N
2411.38	0.017	2413322	START	n/a	n/a	n/a	-999	20	[-999, -999, -999]	n/a	FR1	0	R1304N
2411.397	5.117	2413339	PROB	5.117	n/a	n/a	-999	20	[6, 7, 1]	6	FR1	0	R1304N
2416.514	3.884	2418456	PROB	3.884	n/a	n/a	-999	20	[4, 4, 3]	5	FR1	0	R1304N
2420.398	5.468	2422340	PROB	5.468	n/a	n/a	-999	20	[3, 3, 7]	8	FR1	0	R1304N
2425.866	19.102	2427807	PROB	19.102	n/a	n/a	-999	20	[2, 9, 6]	6	FR1	0	R1304N
2444.968	0.018	2446909	STOP	n/a	n/a	n/a	-999	20	[-999, -999, -999]	n/a	FR1	0	R1304N
2444.986	0.694	2446927	DISTRACT_END	n/a	n/a	n/a	-999	20	[0, 0, 0]	n/a	FR1	0	R1304N
2445.68	1.605	2447620	RETRIEVAL_ORIENT_START	n/a	n/a	n/a	-999	20	[0, 0, 0]	n/a	FR1	0	R1304N
2447.285	0.001	2449225	RETRIEVAL_ORIENT_END	n/a	n/a	n/a	-999	20	[0, 0, 0]	n/a	FR1	0	R1304N
2447.286	3.6	2449226	REC_START	n/a	n/a	n/a	-999	20	[0, 0, 0]	n/a	FR1	0	R1304N
2450.886	8.771	2452826	REC_WORD	8.771	n/a	RAKE	-999	20	[0, 0, 0]	n/a	FR1	0	R1304N
2459.657	10.353	2461597	REC_WORD	10.353	n/a	CRANE	-999	20	[0, 0, 0]	n/a	FR1	0	R1304N
2470.01	5.435	2471949	REC_WORD	5.435	n/a	BIRD	5	20	[0, 0, 0]	n/a	FR1	0	R1304N
2475.445	1.855	2477384	REC_WORD_VV	1.855	n/a	<>	-999	20	[0, 0, 0]	n/a	FR1	0	R1304N
2477.3	0.0	2479239	REC_END	n/a	n/a	n/a	-999	20	[0, 0, 0]	n/a	FR1	0	R1304N
2477.3	0.014	2479239	TRIAL_END	n/a	n/a	n/a	-999	20	[0, 0, 0]	n/a	FR1	0	R1304N
2477.314	0.0	2479253	TRIAL_START	n/a	n/a	n/a	-999	21	[0, 0, 0]	n/a	FR1	0	R1304N
2477.314	0.0	2479253	TRIAL	n/a	n/a	n/a	-999	21	[0, 0, 0]	n/a	FR1	0	R1304N
2477.314	5.478	2479253	WAITING_START	n/a	n/a	n/a	-999	21	[0, 0, 0]	n/a	FR1	0	R1304N
2482.792	0.001	2484731	WAITING_END	n/a	n/a	n/a	-999	21	[0, 0, 0]	n/a	FR1	0	R1304N
2482.793	10.428	2484732	COUNTDOWN_START	n/a	n/a	n/a	-999	21	[0, 0, 0]	n/a	FR1	0	R1304N
2493.221	0.0	2495160	COUNTDOWN_END	n/a	n/a	n/a	-999	21	[0, 0, 0]	n/a	FR1	0	R1304N
2493.221	1.223	2495160	ORIENT_START	n/a	n/a	n/a	-999	21	[0, 0, 0]	n/a	FR1	0	R1304N
2494.444	0.0	2496382	ORIENT_END	n/a	n/a	n/a	-999	21	[0, 0, 0]	n/a	FR1	0	R1304N
2494.444	0.757	2496382	ENCODING_START	n/a	n/a	n/a	-999	21	[0, 0, 0]	n/a	FR1	0	R1304N
2495.201	1.627	2497139	WORD	n/a	n/a	GLASS	1	21	[0, 0, 0]	n/a	FR1	0	R1304N
2496.828	0.753	2498766	WORD_OFF	n/a	n/a	GLASS	1	21	[0, 0, 0]	n/a	FR1	0	R1304N
2497.581	1.631	2499519	WORD	n/a	n/a	SEA	2	21	[0, 0, 0]	n/a	FR1	0	R1304N
2499.212	0.889	2501150	WORD_OFF	n/a	n/a	SEA	2	21	[0, 0, 0]	n/a	FR1	0	R1304N
2500.101	1.628	2502039	WORD	n/a	n/a	PURSE	3	21	[0, 0, 0]	n/a	FR1	0	R1304N
2501.729	0.845	2503667	WORD_OFF	n/a	n/a	PURSE	3	21	[0, 0, 0]	n/a	FR1	0	R1304N
2502.574	1.622	2504512	WORD	n/a	n/a	MILK	4	21	[0, 0, 0]	n/a	FR1	0	R1304N
2504.196	0.974	2506134	WORD_OFF	n/a	n/a	MILK	4	21	[0, 0, 0]	n/a	FR1	0	R1304N
2505.17	1.626	2507108	WORD	n/a	n/a	FOOT	5	21	[0, 0, 0]	n/a	FR1	0	R1304N
2506.796	0.776	2508734	WORD_OFF	n/a	n/a	FOOT	5	21	[0, 0, 0]	n/a	FR1	0	R1304N
2507.572	1.625	2509510	WORD	n/a	n/a	SHRIMP	6	21	[0, 0, 0]	n/a	FR1	0	R1304N
2509.197	0.837	2511135	WORD_OFF	n/a	n/a	SHRIMP	6	21	[0, 0, 0]	n/a	FR1	0	R1304N
2510.034	1.63	2511972	WORD	n/a	n/a	VAN	7	21	[0, 0, 0]	n/a	FR1	0	R1304N
2511.664	0.907	2513602	WORD_OFF	n/a	n/a	VAN	7	21	[0, 0, 0]	n/a	FR1	0	R1304N
2512.571	1.627	2514509	WORD	n/a	n/a	KITE	8	21	[0, 0, 0]	n/a	FR1	0	R1304N
2514.198	0.868	2516136	WORD_OFF	n/a	n/a	KITE	8	21	[0, 0, 0]	n/a	FR1	0	R1304N
2515.066	1.632	2517004	WORD	n/a	n/a	RUG	9	21	[0, 0, 0]	n/a	FR1	0	R1304N
2516.698	0.861	2518636	WORD_OFF	n/a	n/a	RUG	9	21	[0, 0, 0]	n/a	FR1	0	R1304N
2517.559	1.623	2519497	WORD	n/a	n/a	SEAT	10	21	[0, 0, 0]	n/a	FR1	0	R1304N
2519.182	0.884	2521119	WORD_OFF	n/a	n/a	SEAT	10	21	[0, 0, 0]	n/a	FR1	0	R1304N
2520.066	1.633	2522003	WORD	n/a	n/a	CROW	11	21	[0, 0, 0]	n/a	FR1	0	R1304N
2521.699	1.146	2523636	WORD_OFF	n/a	n/a	CROW	11	21	[0, 0, 0]	n/a	FR1	0	R1304N
2522.845	1.638	2524782	WORD	n/a	n/a	BREAD	12	21	[0, 0, 0]	n/a	FR1	0	R1304N
2524.483	0.0	2526420	DISTRACT_START	n/a	n/a	n/a	-999	21	[0, 0, 0]	n/a	FR1	0	R1304N
2524.483	0.0	2526420	WORD_OFF	n/a	n/a	BREAD	12	21	[0, 0, 0]	n/a	FR1	0	R1304N
2524.483	0.001	2526420	ENCODING_END	n/a	n/a	n/a	-999	21	[0, 0, 0]	n/a	FR1	0	R1304N
2524.484	0.015	2526421	START	n/a	n/a	n/a	-999	21	[-999, -999, -999]	n/a	FR1	0	R1304N
2524.499	3.8	2526436	PROB	3.8	n/a	n/a	-999	21	[6, 2, 3]	4	FR1	0	R1304N
2528.299	5.301	2530236	PROB	5.301	n/a	n/a	-999	21	[8, 2, 6]	7	FR1	0	R1304N
2533.6	12.12	2535537	PROB	12.12	n/a	n/a	-999	21	[1, 9, 4]	5	FR1	0	R1304N
2545.72	0.016	2547656	STOP	n/a	n/a	n/a	-999	21	[-999, -999, -999]	n/a	FR1	0	R1304N
2545.736	0.607	2547672	DISTRACT_END	n/a	n/a	n/a	-999	21	[0, 0, 0]	n/a	FR1	0	R1304N
2546.343	1.593	2548279	RETRIEVAL_ORIENT_START	n/a	n/a	n/a	-999	21	[0, 0, 0]	n/a	FR1	0	R1304N
2547.936	0.001	2549872	RETRIEVAL_ORIENT_END	n/a	n/a	n/a	-999	21	[0, 0, 0]	n/a	FR1	0	R1304N
2547.937	6.463	2549873	REC_START	n/a	n/a	n/a	-999	21	[0, 0, 0]	n/a	FR1	0	R1304N
2554.4	16.084	2556336	REC_WORD	16.084	n/a	JEEP	-999	21	[0, 0, 0]	n/a	FR1	0	R1304N
2570.484	7.465	2572419	REC_WORD	7.465	n/a	EARNED	-999	21	[0, 0, 0]	n/a	FR1	0	R1304N
2577.949	0.001	2579884	REC_END	n/a	n/a	n/a	-999	21	[0, 0, 0]	n/a	FR1	0	R1304N
2577.95	0.016	2579885	TRIAL_END	n/a	n/a	n/a	-999	21	[0, 0, 0]	n/a	FR1	0	R1304N
2577.966	0.0	2579901	TRIAL_START	n/a	n/a	n/a	-999	22	[0, 0, 0]	n/a	FR1	0	R1304N
2577.966	0.0	2579901	TRIAL	n/a	n/a	n/a	-999	22	[0, 0, 0]	n/a	FR1	0	R1304N
2577.966	9.359	2579901	WAITING_START	n/a	n/a	n/a	-999	22	[0, 0, 0]	n/a	FR1	0	R1304N
2587.325	0.001	2589260	WAITING_END	n/a	n/a	n/a	-999	22	[0, 0, 0]	n/a	FR1	0	R1304N
2587.326	10.429	2589261	COUNTDOWN_START	n/a	n/a	n/a	-999	22	[0, 0, 0]	n/a	FR1	0	R1304N
2597.755	0.001	2599689	COUNTDOWN_END	n/a	n/a	n/a	-999	22	[0, 0, 0]	n/a	FR1	0	R1304N
2597.756	1.056	2599690	ORIENT_START	n/a	n/a	n/a	-999	22	[0, 0, 0]	n/a	FR1	0	R1304N
2598.812	0.0	2600746	ENCODING_START	n/a	n/a	n/a	-999	22	[0, 0, 0]	n/a	FR1	0	R1304N
2598.812	1.041	2600746	ORIENT_END	n/a	n/a	n/a	-999	22	[0, 0, 0]	n/a	FR1	0	R1304N
2599.853	1.626	2601787	WORD	n/a	n/a	FOAM	1	22	[0, 0, 0]	n/a	FR1	0	R1304N
2601.479	0.887	2603413	WORD_OFF	n/a	n/a	FOAM	1	22	[0, 0, 0]	n/a	FR1	0	R1304N
2602.366	1.63	2604300	WORD	n/a	n/a	HOUSE	2	22	[0, 0, 0]	n/a	FR1	0	R1304N
2603.996	1.06	2605930	WORD_OFF	n/a	n/a	HOUSE	2	22	[0, 0, 0]	n/a	FR1	0	R1304N
2605.056	1.623	2606990	WORD	n/a	n/a	STOVE	3	22	[0, 0, 0]	n/a	FR1	0	R1304N
2606.679	1.083	2608613	WORD_OFF	n/a	n/a	STOVE	3	22	[0, 0, 0]	n/a	FR1	0	R1304N
2607.762	1.635	2609696	WORD	n/a	n/a	JAR	4	22	[0, 0, 0]	n/a	FR1	0	R1304N
2609.397	0.794	2611331	WORD_OFF	n/a	n/a	JAR	4	22	[0, 0, 0]	n/a	FR1	0	R1304N
2610.191	1.623	2612125	WORD	n/a	n/a	SOUP	5	22	[0, 0, 0]	n/a	FR1	0	R1304N
2611.814	0.798	2613748	WORD_OFF	n/a	n/a	SOUP	5	22	[0, 0, 0]	n/a	FR1	0	R1304N
2612.612	1.635	2614546	WORD	n/a	n/a	GUARD	6	22	[0, 0, 0]	n/a	FR1	0	R1304N
2614.247	1.002	2616181	WORD_OFF	n/a	n/a	GUARD	6	22	[0, 0, 0]	n/a	FR1	0	R1304N
2615.249	1.632	2617183	WORD	n/a	n/a	SMILE	7	22	[0, 0, 0]	n/a	FR1	0	R1304N
2616.881	0.803	2618814	WORD_OFF	n/a	n/a	SMILE	7	22	[0, 0, 0]	n/a	FR1	0	R1304N
2617.684	1.63	2619617	WORD	n/a	n/a	CALF	8	22	[0, 0, 0]	n/a	FR1	0	R1304N
2619.314	0.973	2621247	WORD_OFF	n/a	n/a	CALF	8	22	[0, 0, 0]	n/a	FR1	0	R1304N
2620.287	1.628	2622220	WORD	n/a	n/a	MAZE	9	22	[0, 0, 0]	n/a	FR1	0	R1304N
2621.915	1.008	2623848	WORD_OFF	n/a	n/a	MAZE	9	22	[0, 0, 0]	n/a	FR1	0	R1304N
2622.923	1.626	2624856	WORD	n/a	n/a	SALT	10	22	[0, 0, 0]	n/a	FR1	0	R1304N
2624.549	0.906	2626482	WORD_OFF	n/a	n/a	SALT	10	22	[0, 0, 0]	n/a	FR1	0	R1304N
2625.455	1.628	2627388	WORD	n/a	n/a	MAT	11	22	[0, 0, 0]	n/a	FR1	0	R1304N
2627.083	0.796	2629016	WORD_OFF	n/a	n/a	MAT	11	22	[0, 0, 0]	n/a	FR1	0	R1304N
2627.879	1.637	2629812	WORD	n/a	n/a	TENT	12	22	[0, 0, 0]	n/a	FR1	0	R1304N
2629.516	0.001	2631449	WORD_OFF	n/a	n/a	TENT	12	22	[0, 0, 0]	n/a	FR1	0	R1304N
2629.517	0.0	2631450	ENCODING_END	n/a	n/a	n/a	-999	22	[0, 0, 0]	n/a	FR1	0	R1304N
2629.517	0.0	2631450	DISTRACT_START	n/a	n/a	n/a	-999	22	[0, 0, 0]	n/a	FR1	0	R1304N
2629.517	0.016	2631450	START	n/a	n/a	n/a	-999	22	[-999, -999, -999]	n/a	FR1	0	R1304N
2629.533	4.517	2631466	PROB	4.517	n/a	n/a	-999	22	[1, 1, 2]	3	FR1	0	R1304N
2634.05	3.801	2635983	PROB	3.801	n/a	n/a	-999	22	[8, 3, 3]	4	FR1	0	R1304N
2637.851	11.434	2639784	PROB	11.434	n/a	n/a	-999	22	[5, 7, 4]	5	FR1	0	R1304N
2649.285	6.122	2651217	PROB	6.122	n/a	n/a	-999	22	[5, 3, 7]	6	FR1	0	R1304N
2655.407	0.014	2657339	STOP	n/a	n/a	n/a	-999	22	[-999, -999, -999]	n/a	FR1	0	R1304N
2655.421	0.531	2657353	DISTRACT_END	n/a	n/a	n/a	-999	22	[0, 0, 0]	n/a	FR1	0	R1304N
2655.952	1.636	2657884	RETRIEVAL_ORIENT_START	n/a	n/a	n/a	-999	22	[0, 0, 0]	n/a	FR1	0	R1304N
2657.588	0.0	2659520	RETRIEVAL_ORIENT_END	n/a	n/a	n/a	-999	22	[0, 0, 0]	n/a	FR1	0	R1304N
2657.588	29.838	2659520	REC_START	n/a	n/a	n/a	-999	22	[0, 0, 0]	n/a	FR1	0	R1304N
2687.426	0.176	2689357	REC_WORD_VV	0.176	n/a	<>	-999	22	[0, 0, 0]	n/a	FR1	0	R1304N
2687.602	0.0	2689533	REC_END	n/a	n/a	n/a	-999	22	[0, 0, 0]	n/a	FR1	0	R1304N
2687.602	0.015	2689533	TRIAL_END	n/a	n/a	n/a	-999	22	[0, 0, 0]	n/a	FR1	0	R1304N
2687.617	0.0	2689548	TRIAL	n/a	n/a	n/a	-999	23	[0, 0, 0]	n/a	FR1	0	R1304N
2687.617	0.0	2689548	WAITING_START	n/a	n/a	n/a	-999	23	[0, 0, 0]	n/a	FR1	0	R1304N
2687.617	41.916	2689548	TRIAL_START	n/a	n/a	n/a	-999	23	[0, 0, 0]	n/a	FR1	0	R1304N
2729.533	0.001	2731462	WAITING_END	n/a	n/a	n/a	-999	23	[0, 0, 0]	n/a	FR1	0	R1304N
2729.534	10.429	2731463	COUNTDOWN_START	n/a	n/a	n/a	-999	23	[0, 0, 0]	n/a	FR1	0	R1304N
2739.963	0.001	2741891	COUNTDOWN_END	n/a	n/a	n/a	-999	23	[0, 0, 0]	n/a	FR1	0	R1304N
2739.964	1.171	2741892	ORIENT_START	n/a	n/a	n/a	-999	23	[0, 0, 0]	n/a	FR1	0	R1304N
2741.135	0.001	2743063	ORIENT_END	n/a	n/a	n/a	-999	23	[0, 0, 0]	n/a	FR1	0	R1304N
2741.136	0.895	2743064	ENCODING_START	n/a	n/a	n/a	-999	23	[0, 0, 0]	n/a	FR1	0	R1304N
2742.031	1.638	2743959	WORD	n/a	n/a	LIP	1	23	[0, 0, 0]	n/a	FR1	0	R1304N
2743.669	1.035	2745597	WORD_OFF	n/a	n/a	LIP	1	23	[0, 0, 0]	n/a	FR1	0	R1304N
2744.704	1.631	2746632	WORD	n/a	n/a	GRASS	2	23	[0, 0, 0]	n/a	FR1	0	R1304N
2746.335	1.026	2748263	WORD_OFF	n/a	n/a	GRASS	2	23	[0, 0, 0]	n/a	FR1	0	R1304N
2747.361	1.625	2749289	WORD	n/a	n/a	GEESE	3	23	[0, 0, 0]	n/a	FR1	0	R1304N
2748.986	1.026	2750914	WORD_OFF	n/a	n/a	GEESE	3	23	[0, 0, 0]	n/a	FR1	0	R1304N
2750.012	1.625	2751940	WORD	n/a	n/a	BADGE	4	23	[0, 0, 0]	n/a	FR1	0	R1304N
2751.637	0.881	2753565	WORD_OFF	n/a	n/a	BADGE	4	23	[0, 0, 0]	n/a	FR1	0	R1304N
2752.518	1.636	2754446	WORD	n/a	n/a	AXE	5	23	[0, 0, 0]	n/a	FR1	0	R1304N
2754.154	1.003	2756082	WORD_OFF	n/a	n/a	AXE	5	23	[0, 0, 0]	n/a	FR1	0	R1304N
2755.157	1.631	2757085	WORD	n/a	n/a	TOAST	6	23	[0, 0, 0]	n/a	FR1	0	R1304N
2756.788	0.904	2758716	WORD_OFF	n/a	n/a	TOAST	6	23	[0, 0, 0]	n/a	FR1	0	R1304N
2757.692	1.628	2759620	WORD	n/a	n/a	SUIT	7	23	[0, 0, 0]	n/a	FR1	0	R1304N
2759.32	0.768	2761248	WORD_OFF	n/a	n/a	SUIT	7	23	[0, 0, 0]	n/a	FR1	0	R1304N
2760.088	1.634	2762016	WORD	n/a	n/a	STRAW	8	23	[0, 0, 0]	n/a	FR1	0	R1304N
2761.722	0.948	2763650	WORD_OFF	n/a	n/a	STRAW	8	23	[0, 0, 0]	n/a	FR1	0	R1304N
2762.67	1.635	2764598	WORD	n/a	n/a	SWAMP	9	23	[0, 0, 0]	n/a	FR1	0	R1304N
2764.305	0.824	2766232	WORD_OFF	n/a	n/a	SWAMP	9	23	[0, 0, 0]	n/a	FR1	0	R1304N
2765.129	1.627	2767056	WORD	n/a	n/a	RIB	10	23	[0, 0, 0]	n/a	FR1	0	R1304N
2766.756	1.04	2768683	WORD_OFF	n/a	n/a	RIB	10	23	[0, 0, 0]	n/a	FR1	0	R1304N
2767.796	1.627	2769723	WORD	n/a	n/a	BEAN	11	23	[0, 0, 0]	n/a	FR1	0	R1304N
2769.423	0.86	2771350	WORD_OFF	n/a	n/a	BEAN	11	23	[0, 0, 0]	n/a	FR1	0	R1304N
2770.283	1.624	2772210	WORD	n/a	n/a	BARN	12	23	[0, 0, 0]	n/a	FR1	0	R1304N
2771.907	0.0	2773834	WORD_OFF	n/a	n/a	BARN	12	23	[0, 0, 0]	n/a	FR1	0	R1304N
2771.907	0.001	2773834	ENCODING_END	n/a	n/a	n/a	-999	23	[0, 0, 0]	n/a	FR1	0	R1304N
2771.908	0.0	2773835	DISTRACT_START	n/a	n/a	n/a	-999	23	[0, 0, 0]	n/a	FR1	0	R1304N
2771.908	0.015	2773835	START	n/a	n/a	n/a	-999	23	[-999, -999, -999]	n/a	FR1	0	R1304N
2771.923	5.101	2773850	PROB	5.101	n/a	n/a	-999	23	[7, 9, 1]	6	FR1	0	R1304N
2777.024	7.818	2778951	PROB	7.818	n/a	n/a	-999	23	[7, 6, 4]	5	FR1	0	R1304N
2784.842	4.45	2786769	PROB	4.45	n/a	n/a	-999	23	[1, 7, 4]	5	FR1	0	R1304N
2789.292	2.451	2791218	PROB	2.451	n/a	n/a	-999	23	[1, 3, 7]	8	FR1	0	R1304N
2791.743	5.745	2793669	PROB	5.745	n/a	n/a	-999	23	[2, 6, 8]	9	FR1	0	R1304N
2797.488	0.006	2799414	STOP	n/a	n/a	n/a	-999	23	[-999, -999, -999]	n/a	FR1	0	R1304N
2797.494	0.648	2799420	DISTRACT_END	n/a	n/a	n/a	-999	23	[0, 0, 0]	n/a	FR1	0	R1304N
2798.142	1.619	2800068	RETRIEVAL_ORIENT_START	n/a	n/a	n/a	-999	23	[0, 0, 0]	n/a	FR1	0	R1304N
2799.761	0.001	2801687	RETRIEVAL_ORIENT_END	n/a	n/a	n/a	-999	23	[0, 0, 0]	n/a	FR1	0	R1304N
2799.762	8.595	2801688	REC_START	n/a	n/a	n/a	-999	23	[0, 0, 0]	n/a	FR1	0	R1304N
2808.357	3.949	2810283	REC_WORD_VV	3.949	n/a	<>	-999	23	[0, 0, 0]	n/a	FR1	0	R1304N
2812.306	16.569	2814231	REC_WORD_VV	16.569	n/a	<>	-999	23	[0, 0, 0]	n/a	FR1	0	R1304N
2828.875	0.9	2830800	REC_WORD_VV	0.9	n/a	<>	-999	23	[0, 0, 0]	n/a	FR1	0	R1304N
2829.775	0.0	2831700	REC_END	n/a	n/a	n/a	-999	23	[0, 0, 0]	n/a	FR1	0	R1304N
2829.775	0.015	2831700	TRIAL_END	n/a	n/a	n/a	-999	23	[0, 0, 0]	n/a	FR1	0	R1304N
2829.79	0.001	2831715	TRIAL_START	n/a	n/a	n/a	-999	24	[0, 0, 0]	n/a	FR1	0	R1304N
2829.791	0.0	2831716	TRIAL	n/a	n/a	n/a	-999	24	[0, 0, 0]	n/a	FR1	0	R1304N
2829.791	55.567	2831716	WAITING_START	n/a	n/a	n/a	-999	24	[0, 0, 0]	n/a	FR1	0	R1304N
2885.358	0.0	2887280	COUNTDOWN_START	n/a	n/a	n/a	-999	24	[0, 0, 0]	n/a	FR1	0	R1304N
2885.358	10.429	2887280	WAITING_END	n/a	n/a	n/a	-999	24	[0, 0, 0]	n/a	FR1	0	R1304N
2895.787	0.0	2897709	COUNTDOWN_END	n/a	n/a	n/a	-999	24	[0, 0, 0]	n/a	FR1	0	R1304N
2895.787	1.224	2897709	ORIENT_START	n/a	n/a	n/a	-999	24	[0, 0, 0]	n/a	FR1	0	R1304N
2897.011	0.0	2898933	ORIENT_END	n/a	n/a	n/a	-999	24	[0, 0, 0]	n/a	FR1	0	R1304N
2897.011	0.876	2898933	ENCODING_START	n/a	n/a	n/a	-999	24	[0, 0, 0]	n/a	FR1	0	R1304N
2897.887	1.624	2899809	WORD	n/a	n/a	STRING	1	24	[0, 0, 0]	n/a	FR1	0	R1304N
2899.511	1.11	2901433	WORD_OFF	n/a	n/a	STRING	1	24	[0, 0, 0]	n/a	FR1	0	R1304N
2900.621	1.624	2902543	WORD	n/a	n/a	WEED	2	24	[0, 0, 0]	n/a	FR1	0	R1304N
2902.245	0.818	2904167	WORD_OFF	n/a	n/a	WEED	2	24	[0, 0, 0]	n/a	FR1	0	R1304N
2903.063	1.632	2904985	WORD	n/a	n/a	CAR	3	24	[0, 0, 0]	n/a	FR1	0	R1304N
2904.695	1.053	2906617	WORD_OFF	n/a	n/a	CAR	3	24	[0, 0, 0]	n/a	FR1	0	R1304N
2905.748	1.63	2907670	WORD	n/a	n/a	WAND	4	24	[0, 0, 0]	n/a	FR1	0	R1304N
2907.378	1.063	2909300	WORD_OFF	n/a	n/a	WAND	4	24	[0, 0, 0]	n/a	FR1	0	R1304N
2908.441	1.622	2910363	WORD	n/a	n/a	CUP	5	24	[0, 0, 0]	n/a	FR1	0	R1304N
2910.063	0.833	2911984	WORD_OFF	n/a	n/a	CUP	5	24	[0, 0, 0]	n/a	FR1	0	R1304N
2910.896	1.634	2912817	WORD	n/a	n/a	TREE	6	24	[0, 0, 0]	n/a	FR1	0	R1304N
2912.53	0.906	2914451	WORD_OFF	n/a	n/a	TREE	6	24	[0, 0, 0]	n/a	FR1	0	R1304N
2913.436	1.628	2915357	WORD	n/a	n/a	BATH	7	24	[0, 0, 0]	n/a	FR1	0	R1304N
2915.064	0.801	2916985	WORD_OFF	n/a	n/a	BATH	7	24	[0, 0, 0]	n/a	FR1	0	R1304N
2915.865	1.632	2917786	WORD	n/a	n/a	MOUSE	8	24	[0, 0, 0]	n/a	FR1	0	R1304N
2917.497	1.043	2919418	WORD_OFF	n/a	n/a	MOUSE	8	24	[0, 0, 0]	n/a	FR1	0	R1304N
2918.54	1.625	2920461	WORD	n/a	n/a	TRAY	9	24	[0, 0, 0]	n/a	FR1	0	R1304N
2920.165	0.891	2922086	WORD_OFF	n/a	n/a	TRAY	9	24	[0, 0, 0]	n/a	FR1	0	R1304N
2921.056	1.626	2922977	WORD	n/a	n/a	POOL	10	24	[0, 0, 0]	n/a	FR1	0	R1304N
2922.682	0.781	2924603	WORD_OFF	n/a	n/a	POOL	10	24	[0, 0, 0]	n/a	FR1	0	R1304N
2923.463	1.636	2925384	WORD	n/a	n/a	BROOM	11	24	[0, 0, 0]	n/a	FR1	0	R1304N
2925.099	1.015	2927020	WORD_OFF	n/a	n/a	BROOM	11	24	[0, 0, 0]	n/a	FR1	0	R1304N
2926.114	1.635	2928035	WORD	n/a	n/a	MUG	12	24	[0, 0, 0]	n/a	FR1	0	R1304N
2927.749	0.001	2929670	WORD_OFF	n/a	n/a	MUG	12	24	[0, 0, 0]	n/a	FR1	0	R1304N
2927.75	0.0	2929671	ENCODING_END	n/a	n/a	n/a	-999	24	[0, 0, 0]	n/a	FR1	0	R1304N
2927.75	0.0	2929671	DISTRACT_START	n/a	n/a	n/a	-999	24	[0, 0, 0]	n/a	FR1	0	R1304N
2927.75	0.016	2929671	START	n/a	n/a	n/a	-999	24	[-999, -999, -999]	n/a	FR1	0	R1304N
2927.766	13.869	2929687	PROB	13.869	n/a	n/a	-999	24	[4, 9, 4]	6	FR1	0	R1304N
2941.635	3.917	2943555	PROB	3.917	n/a	n/a	-999	24	[4, 1, 8]	9	FR1	0	R1304N
2945.552	5.36	2947472	PROB	5.36	n/a	n/a	-999	24	[1, 2, 5]	6	FR1	0	R1304N
2950.912	0.008	2952832	STOP	n/a	n/a	n/a	-999	24	[-999, -999, -999]	n/a	FR1	0	R1304N
2950.92	0.515	2952840	DISTRACT_END	n/a	n/a	n/a	-999	24	[0, 0, 0]	n/a	FR1	0	R1304N
2951.435	1.618	2953355	RETRIEVAL_ORIENT_START	n/a	n/a	n/a	-999	24	[0, 0, 0]	n/a	FR1	0	R1304N
2953.053	0.001	2954973	RETRIEVAL_ORIENT_END	n/a	n/a	n/a	-999	24	[0, 0, 0]	n/a	FR1	0	R1304N
2953.054	4.631	2954974	REC_START	n/a	n/a	n/a	-999	24	[0, 0, 0]	n/a	FR1	0	R1304N
2957.685	25.382	2959605	REC_WORD	25.382	n/a	GRASS	-999	24	[0, 0, 0]	n/a	FR1	0	R1304N
2983.067	0.0	2984985	TRIAL_END	n/a	n/a	n/a	-999	24	[0, 0, 0]	n/a	FR1	0	R1304N
2983.067	0.014	2984985	REC_END	n/a	n/a	n/a	-999	24	[0, 0, 0]	n/a	FR1	0	R1304N
2983.081	0.0	2984999	TRIAL_START	n/a	n/a	n/a	-999	25	[0, 0, 0]	n/a	FR1	0	R1304N
2983.081	0.0	2984999	TRIAL	n/a	n/a	n/a	-999	25	[0, 0, 0]	n/a	FR1	0	R1304N
2983.081	9.579	2984999	WAITING_START	n/a	n/a	n/a	-999	25	[0, 0, 0]	n/a	FR1	0	R1304N
2992.66	0.0	2994578	WAITING_END	n/a	n/a	n/a	-999	25	[0, 0, 0]	n/a	FR1	0	R1304N
2992.66	10.43	2994578	COUNTDOWN_START	n/a	n/a	n/a	-999	25	[0, 0, 0]	n/a	FR1	0	R1304N
3003.09	0.0	3005008	COUNTDOWN_END	n/a	n/a	n/a	-999	25	[0, 0, 0]	n/a	FR1	0	R1304N
3003.09	1.089	3005008	ORIENT_START	n/a	n/a	n/a	-999	25	[0, 0, 0]	n/a	FR1	0	R1304N
3004.179	0.0	3006097	ENCODING_START	n/a	n/a	n/a	-999	25	[0, 0, 0]	n/a	FR1	0	R1304N
3004.179	1.056	3006097	ORIENT_END	n/a	n/a	n/a	-999	25	[0, 0, 0]	n/a	FR1	0	R1304N
3005.235	1.627	3007153	WORD	n/a	n/a	HOLE	1	25	[0, 0, 0]	n/a	FR1	0	R1304N
3006.862	0.776	3008780	WORD_OFF	n/a	n/a	HOLE	1	25	[0, 0, 0]	n/a	FR1	0	R1304N
3007.638	1.625	3009555	WORD	n/a	n/a	FLOOR	2	25	[0, 0, 0]	n/a	FR1	0	R1304N
3009.263	0.968	3011180	WORD_OFF	n/a	n/a	FLOOR	2	25	[0, 0, 0]	n/a	FR1	0	R1304N
3010.231	1.632	3012148	WORD	n/a	n/a	SHEET	3	25	[0, 0, 0]	n/a	FR1	0	R1304N
3011.863	0.884	3013780	WORD_OFF	n/a	n/a	SHEET	3	25	[0, 0, 0]	n/a	FR1	0	R1304N
3012.747	1.632	3014664	WORD	n/a	n/a	BOOK	4	25	[0, 0, 0]	n/a	FR1	0	R1304N
3014.379	1.088	3016296	WORD_OFF	n/a	n/a	BOOK	4	25	[0, 0, 0]	n/a	FR1	0	R1304N
3015.467	1.63	3017384	WORD	n/a	n/a	WORLD	5	25	[0, 0, 0]	n/a	FR1	0	R1304N
3017.097	0.783	3019014	WORD_OFF	n/a	n/a	WORLD	5	25	[0, 0, 0]	n/a	FR1	0	R1304N
3017.88	1.634	3019797	WORD	n/a	n/a	DUCK	6	25	[0, 0, 0]	n/a	FR1	0	R1304N
3019.514	0.829	3021431	WORD_OFF	n/a	n/a	DUCK	6	25	[0, 0, 0]	n/a	FR1	0	R1304N
3020.343	1.622	3022260	WORD	n/a	n/a	DOLL	7	25	[0, 0, 0]	n/a	FR1	0	R1304N
3021.965	0.885	3023882	WORD_OFF	n/a	n/a	DOLL	7	25	[0, 0, 0]	n/a	FR1	0	R1304N
3022.85	1.632	3024767	WORD	n/a	n/a	ANT	8	25	[0, 0, 0]	n/a	FR1	0	R1304N
3024.482	0.762	3026399	WORD_OFF	n/a	n/a	ANT	8	25	[0, 0, 0]	n/a	FR1	0	R1304N
3025.244	1.638	3027161	WORD	n/a	n/a	HORN	9	25	[0, 0, 0]	n/a	FR1	0	R1304N
3026.882	1.012	3028799	WORD_OFF	n/a	n/a	HORN	9	25	[0, 0, 0]	n/a	FR1	0	R1304N
3027.894	1.622	3029811	WORD	n/a	n/a	WOLF	10	25	[0, 0, 0]	n/a	FR1	0	R1304N
3029.516	0.977	3031433	WORD_OFF	n/a	n/a	WOLF	10	25	[0, 0, 0]	n/a	FR1	0	R1304N
3030.493	1.624	3032410	WORD	n/a	n/a	PLANE	11	25	[0, 0, 0]	n/a	FR1	0	R1304N
3032.117	0.938	3034033	WORD_OFF	n/a	n/a	PLANE	11	25	[0, 0, 0]	n/a	FR1	0	R1304N
3033.055	1.629	3034971	WORD	n/a	n/a	PRINCE	12	25	[0, 0, 0]	n/a	FR1	0	R1304N
3034.684	0.0	3036600	WORD_OFF	n/a	n/a	PRINCE	12	25	[0, 0, 0]	n/a	FR1	0	R1304N
3034.684	0.0	3036600	ENCODING_END	n/a	n/a	n/a	-999	25	[0, 0, 0]	n/a	FR1	0	R1304N
3034.684	0.001	3036600	DISTRACT_START	n/a	n/a	n/a	-999	25	[0, 0, 0]	n/a	FR1	0	R1304N
3034.685	0.015	3036601	START	n/a	n/a	n/a	-999	25	[-999, -999, -999]	n/a	FR1	0	R1304N
3034.7	19.437	3036616	PROB	19.437	n/a	n/a	-999	25	[6, 5, 8]	9	FR1	0	R1304N
3054.137	23.87	3056053	PROB	23.87	n/a	n/a	-999	25	[9, 3, 7]	9	FR1	0	R1304N
3078.007	0.017	3079922	STOP	n/a	n/a	n/a	-999	25	[-999, -999, -999]	n/a	FR1	0	R1304N
3078.024	0.569	3079939	DISTRACT_END	n/a	n/a	n/a	-999	25	[0, 0, 0]	n/a	FR1	0	R1304N
3078.593	1.531	3080508	RETRIEVAL_ORIENT_START	n/a	n/a	n/a	-999	25	[0, 0, 0]	n/a	FR1	0	R1304N
3080.124	0.001	3082039	RETRIEVAL_ORIENT_END	n/a	n/a	n/a	-999	25	[0, 0, 0]	n/a	FR1	0	R1304N
3080.125	4.071	3082040	REC_START	n/a	n/a	n/a	-999	25	[0, 0, 0]	n/a	FR1	0	R1304N
3084.196	22.443	3086110	REC_WORD	22.443	n/a	COOL	-999	25	[0, 0, 0]	n/a	FR1	0	R1304N
3106.639	3.497	3108552	REC_WORD	3.497	n/a	BOOK	4	25	[0, 0, 0]	n/a	FR1	0	R1304N
3110.136	0.0	3112049	REC_END	n/a	n/a	n/a	-999	25	[0, 0, 0]	n/a	FR1	0	R1304N
3110.136	0.013	3112049	TRIAL_END	n/a	n/a	n/a	-999	25	[0, 0, 0]	n/a	FR1	0	R1304N
3110.149	10.999	3112062	WAITING_START	n/a	n/a	n/a	-999	25	[0, 0, 0]	n/a	FR1	0	R1304N
