onset	duration	sample	trial_type	response_time	stim_file	item_name	serialpos	list	test	answer	experiment	session	subject
0.0	32.488	416810	SESS_START	n/a	n/a	n/a	-999	-999	[0, 0, 0]	n/a	FR1	0	R1077T
32.488	10.428	449296	COUNTDOWN_START	n/a	n/a	n/a	-999	-999	[0, 0, 0]	n/a	FR1	0	R1077T
42.916	3.391	459724	COUNTDOWN_END	n/a	n/a	n/a	-999	-999	[0, 0, 0]	n/a	FR1	0	R1077T
46.307	2.451	463114	PRACTICE_WORD	n/a	n/a	RHINO	1	-1	[0, 0, 0]	n/a	FR1	0	R1077T
48.758	2.467	465565	PRACTICE_WORD	n/a	n/a	FLOOD	2	-1	[0, 0, 0]	n/a	FR1	0	R1077T
51.225	2.434	468032	PRACTICE_WORD	n/a	n/a	BEAM	3	-1	[0, 0, 0]	n/a	FR1	0	R1077T
53.659	2.55	470466	PRACTICE_WORD	n/a	n/a	CHEST	4	-1	[0, 0, 0]	n/a	FR1	0	R1077T
56.209	2.467	473016	PRACTICE_WORD	n/a	n/a	IRON	5	-1	[0, 0, 0]	n/a	FR1	0	R1077T
58.676	2.501	475483	PRACTICE_WORD	n/a	n/a	RING	6	-1	[0, 0, 0]	n/a	FR1	0	R1077T
61.177	2.534	477984	PRACTICE_WORD	n/a	n/a	WAGON	7	-1	[0, 0, 0]	n/a	FR1	0	R1077T
63.711	2.533	480518	PRACTICE_WORD	n/a	n/a	WATCH	8	-1	[0, 0, 0]	n/a	FR1	0	R1077T
66.244	2.467	483050	PRACTICE_WORD	n/a	n/a	TONGUE	9	-1	[0, 0, 0]	n/a	FR1	0	R1077T
68.711	2.418	485517	PRACTICE_WORD	n/a	n/a	ATTIC	10	-1	[0, 0, 0]	n/a	FR1	0	R1077T
71.129	2.4	487935	PRACTICE_WORD	n/a	n/a	COTTON	11	-1	[0, 0, 0]	n/a	FR1	0	R1077T
73.529	1.617	490335	PRACTICE_WORD	n/a	n/a	CAMEL	12	-1	[0, 0, 0]	n/a	FR1	0	R1077T
75.146	0.0	491952	PRACTICE_DISTRACT_START	n/a	n/a	n/a	-999	-1	[0, 0, 0]	n/a	FR1	0	R1077T
75.146	0.017	491952	START	n/a	n/a	n/a	-999	-1	[-999, -999, -999]	n/a	FR1	0	R1077T
75.163	4.735	491969	PROB	4.735	n/a	n/a	-999	-1	[5, 8, 2]	13	FR1	0	R1077T
79.898	7.367	496704	PROB	7.367	n/a	n/a	-999	-1	[8, 7, 6]	21	FR1	0	R1077T
87.265	3.817	504070	PROB	3.817	n/a	n/a	-999	-1	[8, 2, 3]	13	FR1	0	R1077T
91.082	2.785	507887	PROB	2.785	n/a	n/a	-999	-1	[1, 1, 6]	8	FR1	0	R1077T
93.867	2.898	510672	PROB	2.898	n/a	n/a	-999	-1	[2, 2, 9]	11	FR1	0	R1077T
96.765	0.018	513570	STOP	n/a	n/a	n/a	-999	-1	[-999, -999, -999]	n/a	FR1	0	R1077T
96.783	0.686	513588	PRACTICE_DISTRACT_END	n/a	n/a	n/a	-999	-1	[0, 0, 0]	n/a	FR1	0	R1077T
97.469	30.515	514274	PRACTICE_REC_START	n/a	n/a	n/a	-999	-1	[0, 0, 0]	n/a	FR1	0	R1077T
127.984	45.596	544787	PRACTICE_REC_END	n/a	n/a	n/a	-999	-1	[0, 0, 0]	n/a	FR1	0	R1077T
173.58	0.001	590381	COUNTDOWN_START	n/a	n/a	n/a	-999	1	[0, 0, 0]	n/a	FR1	0	R1077T
173.581	10.427	590382	TRIAL	n/a	n/a	n/a	-999	1	[0, 0, 0]	n/a	FR1	0	R1077T
184.008	0.009	600809	COUNTDOWN_END	n/a	n/a	n/a	-999	1	[0, 0, 0]	n/a	FR1	0	R1077T
184.017	2.416	600818	ORIENT	n/a	n/a	n/a	-999	1	[0, 0, 0]	n/a	FR1	0	R1077T
186.433	2.485	603234	WORD	n/a	wordpools/wordpool_EN.txt	GLASS	1	1	[0, 0, 0]	n/a	FR1	0	R1077T
188.918	2.449	605718	WORD	n/a	wordpools/wordpool_EN.txt	STREET	2	1	[0, 0, 0]	n/a	FR1	0	R1077T
191.367	2.417	608167	WORD	n/a	wordpools/wordpool_EN.txt	STAIR	3	1	[0, 0, 0]	n/a	FR1	0	R1077T
193.784	2.551	610584	WORD	n/a	wordpools/wordpool_EN.txt	STORE	4	1	[0, 0, 0]	n/a	FR1	0	R1077T
196.335	2.417	613135	WORD	n/a	wordpools/wordpool_EN.txt	PHONE	5	1	[0, 0, 0]	n/a	FR1	0	R1077T
198.752	2.517	615552	WORD	n/a	wordpools/wordpool_EN.txt	NAIL	6	1	[0, 0, 0]	n/a	FR1	0	R1077T
201.269	2.601	618069	WORD	n/a	wordpools/wordpool_EN.txt	PET	7	1	[0, 0, 0]	n/a	FR1	0	R1077T
203.87	2.466	620670	WORD	n/a	wordpools/wordpool_EN.txt	BOOK	8	1	[0, 0, 0]	n/a	FR1	0	R1077T
206.336	2.535	623136	WORD	n/a	wordpools/wordpool_EN.txt	BOMB	9	1	[0, 0, 0]	n/a	FR1	0	R1077T
208.871	2.483	625670	WORD	n/a	wordpools/wordpool_EN.txt	BIRD	10	1	[0, 0, 0]	n/a	FR1	0	R1077T
211.354	2.384	628153	WORD	n/a	wordpools/wordpool_EN.txt	CAT	11	1	[0, 0, 0]	n/a	FR1	0	R1077T
213.738	1.617	630537	WORD	n/a	wordpools/wordpool_EN.txt	SHARK	12	1	[0, 0, 0]	n/a	FR1	0	R1077T
215.355	0.0	632154	DISTRACT_START	n/a	n/a	n/a	-999	1	[0, 0, 0]	n/a	FR1	0	R1077T
215.355	0.017	632154	START	n/a	n/a	n/a	-999	1	[-999, -999, -999]	n/a	FR1	0	R1077T
215.372	4.884	632171	PROB	4.884	n/a	n/a	-999	1	[4, 9, 3]	16	FR1	0	R1077T
220.256	3.367	637055	PROB	3.367	n/a	n/a	-999	1	[6, 4, 9]	19	FR1	0	R1077T
223.623	3.801	640422	PROB	3.801	n/a	n/a	-999	1	[1, 9, 9]	19	FR1	0	R1077T
227.424	3.967	644223	PROB	3.967	n/a	n/a	-999	1	[3, 7, 7]	20	FR1	0	R1077T
231.391	5.373	648189	PROB	5.373	n/a	n/a	-999	1	[3, 1, 8]	12	FR1	0	R1077T
236.764	0.011	653562	STOP	n/a	n/a	n/a	-999	1	[-999, -999, -999]	n/a	FR1	0	R1077T
236.775	1.035	653573	DISTRACT_END	n/a	n/a	n/a	-999	1	[0, 0, 0]	n/a	FR1	0	R1077T
237.81	2.915	654608	REC_START	n/a	n/a	n/a	-999	1	[0, 0, 0]	n/a	FR1	0	R1077T
240.725	0.816	657523	REC_WORD	0.816	n/a	GLASS	-999	1	[0, 0, 0]	n/a	FR1	0	R1077T
241.541	0.835	658339	REC_WORD	0.835	n/a	STREET	-999	1	[0, 0, 0]	n/a	FR1	0	R1077T
242.376	10.059	659174	REC_WORD	10.059	n/a	NAIL	-999	1	[0, 0, 0]	n/a	FR1	0	R1077T
252.435	3.712	669232	REC_WORD	3.712	n/a	STAIR	-999	1	[0, 0, 0]	n/a	FR1	0	R1077T
256.147	0.777	672944	REC_WORD	0.777	n/a	BIRD	-999	1	[0, 0, 0]	n/a	FR1	0	R1077T
256.924	10.896	673721	REC_WORD	10.896	n/a	BIND	-999	1	[0, 0, 0]	n/a	FR1	0	R1077T
267.82	2.845	684617	REC_END	n/a	n/a	n/a	-999	1	[0, 0, 0]	n/a	FR1	0	R1077T
270.665	0.0	687461	TRIAL	n/a	n/a	n/a	-999	2	[0, 0, 0]	n/a	FR1	0	R1077T
270.665	10.428	687461	COUNTDOWN_START	n/a	n/a	n/a	-999	2	[0, 0, 0]	n/a	FR1	0	R1077T
281.093	0.007	697889	COUNTDOWN_END	n/a	n/a	n/a	-999	2	[0, 0, 0]	n/a	FR1	0	R1077T
281.1	2.45	697896	ORIENT	n/a	n/a	n/a	-999	2	[0, 0, 0]	n/a	FR1	0	R1077T
283.55	2.419	700346	WORD	n/a	wordpools/wordpool_EN.txt	MAT	1	2	[0, 0, 0]	n/a	FR1	0	R1077T
285.969	2.532	702765	WORD	n/a	wordpools/wordpool_EN.txt	BAND	2	2	[0, 0, 0]	n/a	FR1	0	R1077T
288.501	2.418	705297	WORD	n/a	wordpools/wordpool_EN.txt	SUN	3	2	[0, 0, 0]	n/a	FR1	0	R1077T
290.919	2.433	707714	WORD	n/a	wordpools/wordpool_EN.txt	RUG	4	2	[0, 0, 0]	n/a	FR1	0	R1077T
293.352	2.367	710147	WORD	n/a	wordpools/wordpool_EN.txt	FORK	5	2	[0, 0, 0]	n/a	FR1	0	R1077T
295.719	2.484	712514	WORD	n/a	wordpools/wordpool_EN.txt	PEACH	6	2	[0, 0, 0]	n/a	FR1	0	R1077T
298.203	2.601	714998	WORD	n/a	wordpools/wordpool_EN.txt	OAR	7	2	[0, 0, 0]	n/a	FR1	0	R1077T
300.804	2.433	717599	WORD	n/a	wordpools/wordpool_EN.txt	SKY	8	2	[0, 0, 0]	n/a	FR1	0	R1077T
303.237	2.401	720032	WORD	n/a	wordpools/wordpool_EN.txt	BOAT	9	2	[0, 0, 0]	n/a	FR1	0	R1077T
305.638	2.55	722433	WORD	n/a	wordpools/wordpool_EN.txt	FOAM	10	2	[0, 0, 0]	n/a	FR1	0	R1077T
308.188	2.635	724983	WORD	n/a	wordpools/wordpool_EN.txt	EAR	11	2	[0, 0, 0]	n/a	FR1	0	R1077T
310.823	1.616	727617	WORD	n/a	wordpools/wordpool_EN.txt	CLIFF	12	2	[0, 0, 0]	n/a	FR1	0	R1077T
312.439	0.001	729233	DISTRACT_START	n/a	n/a	n/a	-999	2	[0, 0, 0]	n/a	FR1	0	R1077T
312.44	0.016	729234	START	n/a	n/a	n/a	-999	2	[-999, -999, -999]	n/a	FR1	0	R1077T
312.456	4.05	729250	PROB	4.05	n/a	n/a	-999	2	[1, 9, 3]	13	FR1	0	R1077T
316.506	6.918	733300	PROB	6.918	n/a	n/a	-999	2	[3, 7, 2]	12	FR1	0	R1077T
323.424	6.135	740218	PROB	6.135	n/a	n/a	-999	2	[7, 2, 4]	13	FR1	0	R1077T
329.559	3.279	746353	PROB	3.279	n/a	n/a	-999	2	[7, 8, 2]	18	FR1	0	R1077T
332.838	0.006	749631	STOP	n/a	n/a	n/a	-999	2	[-999, -999, -999]	n/a	FR1	0	R1077T
332.844	1.034	749637	DISTRACT_END	n/a	n/a	n/a	-999	2	[0, 0, 0]	n/a	FR1	0	R1077T
333.878	2.266	750671	REC_START	n/a	n/a	n/a	-999	2	[0, 0, 0]	n/a	FR1	0	R1077T
336.144	0.931	752937	REC_WORD	0.931	n/a	SUN	-999	2	[0, 0, 0]	n/a	FR1	0	R1077T
337.075	0.996	753868	REC_WORD	0.996	n/a	CLIFF	-999	2	[0, 0, 0]	n/a	FR1	0	R1077T
338.071	7.235	754864	REC_WORD	7.235	n/a	BEACH	-999	2	[0, 0, 0]	n/a	FR1	0	R1077T
345.306	18.582	762099	REC_WORD	18.582	n/a	SKY	-999	2	[0, 0, 0]	n/a	FR1	0	R1077T
363.888	2.561	780680	REC_END	n/a	n/a	n/a	-999	2	[0, 0, 0]	n/a	FR1	0	R1077T
366.449	0.0	783241	COUNTDOWN_START	n/a	n/a	n/a	-999	3	[0, 0, 0]	n/a	FR1	0	R1077T
366.449	10.428	783241	TRIAL	n/a	n/a	n/a	-999	3	[0, 0, 0]	n/a	FR1	0	R1077T
376.877	0.008	793668	COUNTDOWN_END	n/a	n/a	n/a	-999	3	[0, 0, 0]	n/a	FR1	0	R1077T
376.885	2.45	793676	ORIENT	n/a	n/a	n/a	-999	3	[0, 0, 0]	n/a	FR1	0	R1077T
379.335	2.618	796126	WORD	n/a	wordpools/wordpool_EN.txt	EGG	1	3	[0, 0, 0]	n/a	FR1	0	R1077T
381.953	2.449	798744	WORD	n/a	wordpools/wordpool_EN.txt	HILL	2	3	[0, 0, 0]	n/a	FR1	0	R1077T
384.402	2.585	801193	WORD	n/a	wordpools/wordpool_EN.txt	ELF	3	3	[0, 0, 0]	n/a	FR1	0	R1077T
386.987	2.616	803778	WORD	n/a	wordpools/wordpool_EN.txt	WALL	4	3	[0, 0, 0]	n/a	FR1	0	R1077T
389.603	2.385	806394	WORD	n/a	wordpools/wordpool_EN.txt	HOLE	5	3	[0, 0, 0]	n/a	FR1	0	R1077T
391.988	2.449	808778	WORD	n/a	wordpools/wordpool_EN.txt	PLATE	6	3	[0, 0, 0]	n/a	FR1	0	R1077T
394.437	2.435	811227	WORD	n/a	wordpools/wordpool_EN.txt	GEESE	7	3	[0, 0, 0]	n/a	FR1	0	R1077T
396.872	2.466	813662	WORD	n/a	wordpools/wordpool_EN.txt	PARK	8	3	[0, 0, 0]	n/a	FR1	0	R1077T
399.338	2.417	816128	WORD	n/a	wordpools/wordpool_EN.txt	LIP	9	3	[0, 0, 0]	n/a	FR1	0	R1077T
401.755	2.551	818545	WORD	n/a	wordpools/wordpool_EN.txt	BENCH	10	3	[0, 0, 0]	n/a	FR1	0	R1077T
404.306	2.4	821096	WORD	n/a	wordpools/wordpool_EN.txt	GUARD	11	3	[0, 0, 0]	n/a	FR1	0	R1077T
406.706	1.617	823496	WORD	n/a	wordpools/wordpool_EN.txt	FOOT	12	3	[0, 0, 0]	n/a	FR1	0	R1077T
408.323	0.001	825113	DISTRACT_START	n/a	n/a	n/a	-999	3	[0, 0, 0]	n/a	FR1	0	R1077T
408.324	0.016	825114	START	n/a	n/a	n/a	-999	3	[-999, -999, -999]	n/a	FR1	0	R1077T
408.34	3.167	825130	PROB	3.167	n/a	n/a	-999	3	[4, 6, 3]	13	FR1	0	R1077T
411.507	2.534	828297	PROB	2.534	n/a	n/a	-999	3	[2, 3, 6]	12	FR1	0	R1077T
414.041	2.901	830830	PROB	2.901	n/a	n/a	-999	3	[3, 1, 1]	6	FR1	0	R1077T
416.942	3.733	833731	PROB	3.733	n/a	n/a	-999	3	[2, 9, 9]	20	FR1	0	R1077T
420.675	2.834	837464	PROB	2.834	n/a	n/a	-999	3	[8, 4, 1]	10	FR1	0	R1077T
423.509	4.118	840298	PROB	4.118	n/a	n/a	-999	3	[4, 2, 5]	11	FR1	0	R1077T
427.627	3.114	844416	PROB	3.114	n/a	n/a	-999	3	[5, 5, 9]	16	FR1	0	R1077T
430.741	0.02	847530	STOP	n/a	n/a	n/a	-999	3	[-999, -999, -999]	n/a	FR1	0	R1077T
430.761	1.202	847550	DISTRACT_END	n/a	n/a	n/a	-999	3	[0, 0, 0]	n/a	FR1	0	R1077T
431.963	2.797	848752	REC_START	n/a	n/a	n/a	-999	3	[0, 0, 0]	n/a	FR1	0	R1077T
434.76	0.572	851548	REC_WORD	0.572	n/a	EGG	-999	3	[0, 0, 0]	n/a	FR1	0	R1077T
435.332	0.895	852120	REC_WORD	0.895	n/a	HOLE	-999	3	[0, 0, 0]	n/a	FR1	0	R1077T
436.227	1.025	853015	REC_WORD	1.025	n/a	WALL	-999	3	[0, 0, 0]	n/a	FR1	0	R1077T
437.252	1.952	854040	REC_WORD	1.952	n/a	HILL	-999	3	[0, 0, 0]	n/a	FR1	0	R1077T
439.204	10.576	855992	REC_WORD	10.576	n/a	GUARD	-999	3	[0, 0, 0]	n/a	FR1	0	R1077T
449.78	12.193	866568	REC_WORD	12.193	n/a	PLATE	-999	3	[0, 0, 0]	n/a	FR1	0	R1077T
461.973	2.26	878760	REC_END	n/a	n/a	n/a	-999	3	[0, 0, 0]	n/a	FR1	0	R1077T
464.233	0.001	881020	COUNTDOWN_START	n/a	n/a	n/a	-999	4	[0, 0, 0]	n/a	FR1	0	R1077T
464.234	10.427	881021	TRIAL	n/a	n/a	n/a	-999	4	[0, 0, 0]	n/a	FR1	0	R1077T
474.661	0.008	891447	COUNTDOWN_END	n/a	n/a	n/a	-999	4	[0, 0, 0]	n/a	FR1	0	R1077T
474.669	2.55	891455	ORIENT	n/a	n/a	n/a	-999	4	[0, 0, 0]	n/a	FR1	0	R1077T
477.219	2.484	894005	WORD	n/a	wordpools/wordpool_EN.txt	TRUCK	1	4	[0, 0, 0]	n/a	FR1	0	R1077T
479.703	2.534	896489	WORD	n/a	wordpools/wordpool_EN.txt	JEEP	2	4	[0, 0, 0]	n/a	FR1	0	R1077T
482.237	2.55	899023	WORD	n/a	wordpools/wordpool_EN.txt	ARK	3	4	[0, 0, 0]	n/a	FR1	0	R1077T
484.787	2.55	901573	WORD	n/a	wordpools/wordpool_EN.txt	PALM	4	4	[0, 0, 0]	n/a	FR1	0	R1077T
487.337	2.552	904123	WORD	n/a	wordpools/wordpool_EN.txt	POOL	5	4	[0, 0, 0]	n/a	FR1	0	R1077T
489.889	2.466	906675	WORD	n/a	wordpools/wordpool_EN.txt	CART	6	4	[0, 0, 0]	n/a	FR1	0	R1077T
492.355	2.518	909141	WORD	n/a	wordpools/wordpool_EN.txt	BAG	7	4	[0, 0, 0]	n/a	FR1	0	R1077T
494.873	2.566	911658	WORD	n/a	wordpools/wordpool_EN.txt	GRASS	8	4	[0, 0, 0]	n/a	FR1	0	R1077T
497.439	2.418	914224	WORD	n/a	wordpools/wordpool_EN.txt	DITCH	9	4	[0, 0, 0]	n/a	FR1	0	R1077T
499.857	2.6	916642	WORD	n/a	wordpools/wordpool_EN.txt	HOUSE	10	4	[0, 0, 0]	n/a	FR1	0	R1077T
502.457	2.518	919242	WORD	n/a	wordpools/wordpool_EN.txt	CHIN	11	4	[0, 0, 0]	n/a	FR1	0	R1077T
504.975	1.616	921760	WORD	n/a	wordpools/wordpool_EN.txt	BOX	12	4	[0, 0, 0]	n/a	FR1	0	R1077T
506.591	0.001	923376	DISTRACT_START	n/a	n/a	n/a	-999	4	[0, 0, 0]	n/a	FR1	0	R1077T
506.592	0.016	923377	START	n/a	n/a	n/a	-999	4	[-999, -999, -999]	n/a	FR1	0	R1077T
506.608	4.917	923393	PROB	4.917	n/a	n/a	-999	4	[5, 9, 6]	18	FR1	0	R1077T
511.525	2.134	928310	PROB	2.134	n/a	n/a	-999	4	[5, 1, 5]	11	FR1	0	R1077T
513.659	4.901	930444	PROB	4.901	n/a	n/a	-999	4	[9, 7, 6]	20	FR1	0	R1077T
518.56	4.402	935344	PROB	4.402	n/a	n/a	-999	4	[9, 4, 5]	18	FR1	0	R1077T
522.962	2.466	939746	PROB	2.466	n/a	n/a	-999	4	[1, 1, 7]	9	FR1	0	R1077T
525.428	3.649	942212	PROB	3.649	n/a	n/a	-999	4	[9, 3, 5]	17	FR1	0	R1077T
529.077	0.018	945861	STOP	n/a	n/a	n/a	-999	4	[-999, -999, -999]	n/a	FR1	0	R1077T
529.095	1.068	945879	DISTRACT_END	n/a	n/a	n/a	-999	4	[0, 0, 0]	n/a	FR1	0	R1077T
530.163	1.836	946947	REC_START	n/a	n/a	n/a	-999	4	[0, 0, 0]	n/a	FR1	0	R1077T
531.999	0.467	948783	REC_WORD	0.467	n/a	JEEP	-999	4	[0, 0, 0]	n/a	FR1	0	R1077T
532.466	0.821	949250	REC_WORD	0.821	n/a	TRUCK	-999	4	[0, 0, 0]	n/a	FR1	0	R1077T
533.287	1.697	950071	REC_WORD	1.697	n/a	CART	-999	4	[0, 0, 0]	n/a	FR1	0	R1077T
534.984	1.646	951767	REC_WORD	1.646	n/a	DITCH	-999	4	[0, 0, 0]	n/a	FR1	0	R1077T
536.63	2.525	953413	REC_WORD	2.525	n/a	HILL	-999	4	[0, 0, 0]	n/a	FR1	0	R1077T
539.155	1.52	955938	REC_WORD	1.52	n/a	PALM	-999	4	[0, 0, 0]	n/a	FR1	0	R1077T
540.675	19.498	957458	REC_WORD	19.498	n/a	GRASS	-999	4	[0, 0, 0]	n/a	FR1	0	R1077T
560.173	1.746	976955	REC_END	n/a	n/a	n/a	-999	4	[0, 0, 0]	n/a	FR1	0	R1077T
561.919	0.0	978701	TRIAL	n/a	n/a	n/a	-999	5	[0, 0, 0]	n/a	FR1	0	R1077T
561.919	10.428	978701	COUNTDOWN_START	n/a	n/a	n/a	-999	5	[0, 0, 0]	n/a	FR1	0	R1077T
572.347	0.006	989129	COUNTDOWN_END	n/a	n/a	n/a	-999	5	[0, 0, 0]	n/a	FR1	0	R1077T
572.353	2.534	989135	ORIENT	n/a	n/a	n/a	-999	5	[0, 0, 0]	n/a	FR1	0	R1077T
574.887	2.517	991669	WORD	n/a	wordpools/wordpool_EN.txt	BRIDGE	1	5	[0, 0, 0]	n/a	FR1	0	R1077T
577.404	2.585	994185	WORD	n/a	wordpools/wordpool_EN.txt	BAT	2	5	[0, 0, 0]	n/a	FR1	0	R1077T
579.989	2.432	996770	WORD	n/a	wordpools/wordpool_EN.txt	BALL	3	5	[0, 0, 0]	n/a	FR1	0	R1077T
582.421	2.502	999202	WORD	n/a	wordpools/wordpool_EN.txt	MOLE	4	5	[0, 0, 0]	n/a	FR1	0	R1077T
584.923	2.566	1001704	WORD	n/a	wordpools/wordpool_EN.txt	TRAIN	5	5	[0, 0, 0]	n/a	FR1	0	R1077T
587.489	2.402	1004270	WORD	n/a	wordpools/wordpool_EN.txt	TOAD	6	5	[0, 0, 0]	n/a	FR1	0	R1077T
589.891	2.466	1006672	WORD	n/a	wordpools/wordpool_EN.txt	MAZE	7	5	[0, 0, 0]	n/a	FR1	0	R1077T
592.357	2.518	1009138	WORD	n/a	wordpools/wordpool_EN.txt	PRINCE	8	5	[0, 0, 0]	n/a	FR1	0	R1077T
594.875	2.383	1011656	WORD	n/a	wordpools/wordpool_EN.txt	CORD	9	5	[0, 0, 0]	n/a	FR1	0	R1077T
597.258	2.4	1014038	WORD	n/a	wordpools/wordpool_EN.txt	CAR	10	5	[0, 0, 0]	n/a	FR1	0	R1077T
599.658	2.434	1016438	WORD	n/a	wordpools/wordpool_EN.txt	EEL	11	5	[0, 0, 0]	n/a	FR1	0	R1077T
602.092	1.617	1018872	WORD	n/a	wordpools/wordpool_EN.txt	BANK	12	5	[0, 0, 0]	n/a	FR1	0	R1077T
603.709	0.001	1020489	DISTRACT_START	n/a	n/a	n/a	-999	5	[0, 0, 0]	n/a	FR1	0	R1077T
603.71	0.015	1020490	START	n/a	n/a	n/a	-999	5	[-999, -999, -999]	n/a	FR1	0	R1077T
603.725	7.535	1020505	PROB	7.535	n/a	n/a	-999	5	[6, 6, 6]	24	FR1	0	R1077T
611.26	8.135	1028040	PROB	8.135	n/a	n/a	-999	5	[9, 6, 5]	21	FR1	0	R1077T
619.395	5.242	1036174	PROB	5.242	n/a	n/a	-999	5	[6, 9, 8]	23	FR1	0	R1077T
624.637	0.009	1041416	STOP	n/a	n/a	n/a	-999	5	[-999, -999, -999]	n/a	FR1	0	R1077T
624.646	1.051	1041425	DISTRACT_END	n/a	n/a	n/a	-999	5	[0, 0, 0]	n/a	FR1	0	R1077T
625.697	10.696	1042476	REC_START	n/a	n/a	n/a	-999	5	[0, 0, 0]	n/a	FR1	0	R1077T
636.393	19.314	1053172	REC_WORD	19.314	n/a	MOLE	-999	5	[0, 0, 0]	n/a	FR1	0	R1077T
655.707	2.945	1072485	REC_END	n/a	n/a	n/a	-999	5	[0, 0, 0]	n/a	FR1	0	R1077T
658.652	0.0	1075429	TRIAL	n/a	n/a	n/a	-999	6	[0, 0, 0]	n/a	FR1	0	R1077T
658.652	10.428	1075429	COUNTDOWN_START	n/a	n/a	n/a	-999	6	[0, 0, 0]	n/a	FR1	0	R1077T
669.08	0.007	1085857	COUNTDOWN_END	n/a	n/a	n/a	-999	6	[0, 0, 0]	n/a	FR1	0	R1077T
669.087	2.551	1085864	ORIENT	n/a	n/a	n/a	-999	6	[0, 0, 0]	n/a	FR1	0	R1077T
671.638	2.6	1088415	WORD	n/a	wordpools/wordpool_EN.txt	DOCK	1	6	[0, 0, 0]	n/a	FR1	0	R1077T
674.238	2.367	1091015	WORD	n/a	wordpools/wordpool_EN.txt	JET	2	6	[0, 0, 0]	n/a	FR1	0	R1077T
676.605	2.484	1093382	WORD	n/a	wordpools/wordpool_EN.txt	MOUTH	3	6	[0, 0, 0]	n/a	FR1	0	R1077T
679.089	2.4	1095865	WORD	n/a	wordpools/wordpool_EN.txt	PIE	4	6	[0, 0, 0]	n/a	FR1	0	R1077T
681.489	2.551	1098265	WORD	n/a	wordpools/wordpool_EN.txt	STOVE	5	6	[0, 0, 0]	n/a	FR1	0	R1077T
684.04	2.534	1100816	WORD	n/a	wordpools/wordpool_EN.txt	SPARK	6	6	[0, 0, 0]	n/a	FR1	0	R1077T
686.574	2.384	1103350	WORD	n/a	wordpools/wordpool_EN.txt	PASTE	7	6	[0, 0, 0]	n/a	FR1	0	R1077T
688.958	2.467	1105734	WORD	n/a	wordpools/wordpool_EN.txt	PEA	8	6	[0, 0, 0]	n/a	FR1	0	R1077T
691.425	2.551	1108201	WORD	n/a	wordpools/wordpool_EN.txt	STEAM	9	6	[0, 0, 0]	n/a	FR1	0	R1077T
693.976	2.583	1110752	WORD	n/a	wordpools/wordpool_EN.txt	SMOKE	10	6	[0, 0, 0]	n/a	FR1	0	R1077T
696.559	2.567	1113335	WORD	n/a	wordpools/wordpool_EN.txt	VAN	11	6	[0, 0, 0]	n/a	FR1	0	R1077T
699.126	1.617	1115901	WORD	n/a	wordpools/wordpool_EN.txt	PLANE	12	6	[0, 0, 0]	n/a	FR1	0	R1077T
700.743	0.001	1117518	DISTRACT_START	n/a	n/a	n/a	-999	6	[0, 0, 0]	n/a	FR1	0	R1077T
700.744	0.016	1117519	START	n/a	n/a	n/a	-999	6	[-999, -999, -999]	n/a	FR1	0	R1077T
700.76	4.851	1117535	PROB	4.851	n/a	n/a	-999	6	[6, 7, 4]	17	FR1	0	R1077T
705.611	3.268	1122386	PROB	3.268	n/a	n/a	-999	6	[5, 3, 1]	9	FR1	0	R1077T
708.879	4.051	1125654	PROB	4.051	n/a	n/a	-999	6	[5, 8, 6]	24	FR1	0	R1077T
712.93	3.05	1129705	PROB	3.05	n/a	n/a	-999	6	[2, 9, 3]	11	FR1	0	R1077T
715.98	2.333	1132755	PROB	2.333	n/a	n/a	-999	6	[6, 4, 3]	13	FR1	0	R1077T
718.313	5.428	1135087	PROB	5.428	n/a	n/a	-999	6	[4, 2, 8]	13	FR1	0	R1077T
723.741	0.006	1140515	STOP	n/a	n/a	n/a	-999	6	[-999, -999, -999]	n/a	FR1	0	R1077T
723.747	1.068	1140521	DISTRACT_END	n/a	n/a	n/a	-999	6	[0, 0, 0]	n/a	FR1	0	R1077T
724.815	10.714	1141589	REC_START	n/a	n/a	n/a	-999	6	[0, 0, 0]	n/a	FR1	0	R1077T
735.529	1.092	1152303	REC_WORD	1.092	n/a	JET	-999	6	[0, 0, 0]	n/a	FR1	0	R1077T
736.621	1.139	1153395	REC_WORD	1.139	n/a	DOCK	-999	6	[0, 0, 0]	n/a	FR1	0	R1077T
737.76	0.797	1154534	REC_WORD	0.797	n/a	PEA	-999	6	[0, 0, 0]	n/a	FR1	0	R1077T
738.557	8.201	1155331	REC_WORD	8.201	n/a	STREAM	-999	6	[0, 0, 0]	n/a	FR1	0	R1077T
746.758	1.19	1163531	REC_WORD	1.19	n/a	PIE	-999	6	[0, 0, 0]	n/a	FR1	0	R1077T
747.948	1.73	1164721	REC_WORD	1.73	n/a	MOUTH	-999	6	[0, 0, 0]	n/a	FR1	0	R1077T
749.678	5.148	1166451	REC_WORD	5.148	n/a	PASTE	-999	6	[0, 0, 0]	n/a	FR1	0	R1077T
754.826	2.112	1171599	REC_END	n/a	n/a	n/a	-999	6	[0, 0, 0]	n/a	FR1	0	R1077T
756.938	0.0	1173711	TRIAL	n/a	n/a	n/a	-999	7	[0, 0, 0]	n/a	FR1	0	R1077T
756.938	10.428	1173711	COUNTDOWN_START	n/a	n/a	n/a	-999	7	[0, 0, 0]	n/a	FR1	0	R1077T
767.366	0.006	1184138	COUNTDOWN_END	n/a	n/a	n/a	-999	7	[0, 0, 0]	n/a	FR1	0	R1077T
767.372	2.501	1184144	ORIENT	n/a	n/a	n/a	-999	7	[0, 0, 0]	n/a	FR1	0	R1077T
769.873	2.616	1186645	WORD	n/a	wordpools/wordpool_EN.txt	WING	1	7	[0, 0, 0]	n/a	FR1	0	R1077T
772.489	2.469	1189261	WORD	n/a	wordpools/wordpool_EN.txt	TOE	2	7	[0, 0, 0]	n/a	FR1	0	R1077T
774.958	2.382	1191730	WORD	n/a	wordpools/wordpool_EN.txt	COUCH	3	7	[0, 0, 0]	n/a	FR1	0	R1077T
777.34	2.384	1194112	WORD	n/a	wordpools/wordpool_EN.txt	FLEA	4	7	[0, 0, 0]	n/a	FR1	0	R1077T
779.724	2.484	1196495	WORD	n/a	wordpools/wordpool_EN.txt	CUP	5	7	[0, 0, 0]	n/a	FR1	0	R1077T
782.208	2.484	1198979	WORD	n/a	wordpools/wordpool_EN.txt	TREE	6	7	[0, 0, 0]	n/a	FR1	0	R1077T
784.692	2.567	1201463	WORD	n/a	wordpools/wordpool_EN.txt	BLUSH	7	7	[0, 0, 0]	n/a	FR1	0	R1077T
787.259	2.383	1204030	WORD	n/a	wordpools/wordpool_EN.txt	SNAIL	8	7	[0, 0, 0]	n/a	FR1	0	R1077T
789.642	2.601	1206413	WORD	n/a	wordpools/wordpool_EN.txt	OWL	9	7	[0, 0, 0]	n/a	FR1	0	R1077T
792.243	2.4	1209014	WORD	n/a	wordpools/wordpool_EN.txt	ZOO	10	7	[0, 0, 0]	n/a	FR1	0	R1077T
794.643	2.517	1211414	WORD	n/a	wordpools/wordpool_EN.txt	PIT	11	7	[0, 0, 0]	n/a	FR1	0	R1077T
797.16	1.618	1213931	WORD	n/a	wordpools/wordpool_EN.txt	DIME	12	7	[0, 0, 0]	n/a	FR1	0	R1077T
798.778	0.0	1215549	DISTRACT_START	n/a	n/a	n/a	-999	7	[0, 0, 0]	n/a	FR1	0	R1077T
798.778	0.016	1215549	START	n/a	n/a	n/a	-999	7	[-999, -999, -999]	n/a	FR1	0	R1077T
798.794	2.417	1215565	PROB	2.417	n/a	n/a	-999	7	[3, 3, 3]	9	FR1	0	R1077T
801.211	4.484	1217981	PROB	4.484	n/a	n/a	-999	7	[7, 6, 3]	17	FR1	0	R1077T
805.695	4.768	1222465	PROB	4.768	n/a	n/a	-999	7	[1, 4, 4]	9	FR1	0	R1077T
810.463	5.318	1227233	PROB	5.318	n/a	n/a	-999	7	[7, 6, 5]	19	FR1	0	R1077T
815.781	5.727	1232551	PROB	5.727	n/a	n/a	-999	7	[7, 2, 6]	18	FR1	0	R1077T
821.508	0.007	1238277	STOP	n/a	n/a	n/a	-999	7	[-999, -999, -999]	n/a	FR1	0	R1077T
821.515	1.167	1238284	DISTRACT_END	n/a	n/a	n/a	-999	7	[0, 0, 0]	n/a	FR1	0	R1077T
822.682	2.022	1239451	REC_START	n/a	n/a	n/a	-999	7	[0, 0, 0]	n/a	FR1	0	R1077T
824.704	0.639	1241473	REC_WORD	0.639	n/a	ZOO	-999	7	[0, 0, 0]	n/a	FR1	0	R1077T
825.343	3.622	1242112	REC_WORD	3.622	n/a	SNAIL	-999	7	[0, 0, 0]	n/a	FR1	0	R1077T
828.965	23.731	1245734	REC_WORD	23.731	n/a	TOE	-999	7	[0, 0, 0]	n/a	FR1	0	R1077T
852.696	2.159	1269464	REC_END	n/a	n/a	n/a	-999	7	[0, 0, 0]	n/a	FR1	0	R1077T
854.855	0.001	1271623	COUNTDOWN_START	n/a	n/a	n/a	-999	8	[0, 0, 0]	n/a	FR1	0	R1077T
854.856	10.427	1271624	TRIAL	n/a	n/a	n/a	-999	8	[0, 0, 0]	n/a	FR1	0	R1077T
865.283	0.007	1282050	COUNTDOWN_END	n/a	n/a	n/a	-999	8	[0, 0, 0]	n/a	FR1	0	R1077T
865.29	2.483	1282057	ORIENT	n/a	n/a	n/a	-999	8	[0, 0, 0]	n/a	FR1	0	R1077T
867.773	2.484	1284540	WORD	n/a	wordpools/wordpool_EN.txt	TANK	1	8	[0, 0, 0]	n/a	FR1	0	R1077T
870.257	2.568	1287024	WORD	n/a	wordpools/wordpool_EN.txt	SCHOOL	2	8	[0, 0, 0]	n/a	FR1	0	R1077T
872.825	2.45	1289592	WORD	n/a	wordpools/wordpool_EN.txt	CONE	3	8	[0, 0, 0]	n/a	FR1	0	R1077T
875.275	2.585	1292042	WORD	n/a	wordpools/wordpool_EN.txt	GRAPE	4	8	[0, 0, 0]	n/a	FR1	0	R1077T
877.86	2.499	1294627	WORD	n/a	wordpools/wordpool_EN.txt	SAIL	5	8	[0, 0, 0]	n/a	FR1	0	R1077T
880.359	2.551	1297126	WORD	n/a	wordpools/wordpool_EN.txt	BEE	6	8	[0, 0, 0]	n/a	FR1	0	R1077T
882.91	2.567	1299676	WORD	n/a	wordpools/wordpool_EN.txt	FLAG	7	8	[0, 0, 0]	n/a	FR1	0	R1077T
885.477	2.451	1302243	WORD	n/a	wordpools/wordpool_EN.txt	ICE	8	8	[0, 0, 0]	n/a	FR1	0	R1077T
887.928	2.516	1304694	WORD	n/a	wordpools/wordpool_EN.txt	PLANT	9	8	[0, 0, 0]	n/a	FR1	0	R1077T
890.444	2.468	1307210	WORD	n/a	wordpools/wordpool_EN.txt	STEM	10	8	[0, 0, 0]	n/a	FR1	0	R1077T
892.912	2.466	1309678	WORD	n/a	wordpools/wordpool_EN.txt	ROOT	11	8	[0, 0, 0]	n/a	FR1	0	R1077T
895.378	1.601	1312144	WORD	n/a	wordpools/wordpool_EN.txt	KITE	12	8	[0, 0, 0]	n/a	FR1	0	R1077T
896.979	0.001	1313745	DISTRACT_START	n/a	n/a	n/a	-999	8	[0, 0, 0]	n/a	FR1	0	R1077T
896.98	0.016	1313746	START	n/a	n/a	n/a	-999	8	[-999, -999, -999]	n/a	FR1	0	R1077T
896.996	4.784	1313762	PROB	4.784	n/a	n/a	-999	8	[9, 8, 6]	22	FR1	0	R1077T
901.78	5.717	1318546	PROB	5.717	n/a	n/a	-999	8	[1, 3, 2]	6	FR1	0	R1077T
907.497	3.435	1324262	PROB	3.435	n/a	n/a	-999	8	[3, 1, 8]	12	FR1	0	R1077T
910.932	2.951	1327697	PROB	2.951	n/a	n/a	-999	8	[2, 7, 5]	14	FR1	0	R1077T
913.883	4.282	1330648	PROB	4.282	n/a	n/a	-999	8	[3, 4, 8]	14	FR1	0	R1077T
918.165	0.018	1334930	STOP	n/a	n/a	n/a	-999	8	[-999, -999, -999]	n/a	FR1	0	R1077T
918.183	1.05	1334948	DISTRACT_END	n/a	n/a	n/a	-999	8	[0, 0, 0]	n/a	FR1	0	R1077T
919.233	2.724	1335998	REC_START	n/a	n/a	n/a	-999	8	[0, 0, 0]	n/a	FR1	0	R1077T
921.957	7.436	1338722	REC_WORD	7.436	n/a	SCHOOL	-999	8	[0, 0, 0]	n/a	FR1	0	R1077T
929.393	3.134	1346157	REC_WORD	3.134	n/a	TANK	-999	8	[0, 0, 0]	n/a	FR1	0	R1077T
932.527	1.591	1349291	REC_WORD	1.591	n/a	CONE	-999	8	[0, 0, 0]	n/a	FR1	0	R1077T
934.118	15.129	1350882	REC_WORD	15.129	n/a	ICE	-999	8	[0, 0, 0]	n/a	FR1	0	R1077T
949.247	2.108	1366010	REC_END	n/a	n/a	n/a	-999	8	[0, 0, 0]	n/a	FR1	0	R1077T
951.355	0.0	1368118	TRIAL	n/a	n/a	n/a	-999	9	[0, 0, 0]	n/a	FR1	0	R1077T
951.355	10.428	1368118	COUNTDOWN_START	n/a	n/a	n/a	-999	9	[0, 0, 0]	n/a	FR1	0	R1077T
961.783	0.007	1378546	COUNTDOWN_END	n/a	n/a	n/a	-999	9	[0, 0, 0]	n/a	FR1	0	R1077T
961.79	2.551	1378553	ORIENT	n/a	n/a	n/a	-999	9	[0, 0, 0]	n/a	FR1	0	R1077T
964.341	2.367	1381103	WORD	n/a	wordpools/wordpool_EN.txt	PEN	1	9	[0, 0, 0]	n/a	FR1	0	R1077T
966.708	2.384	1383470	WORD	n/a	wordpools/wordpool_EN.txt	TEA	2	9	[0, 0, 0]	n/a	FR1	0	R1077T
969.092	2.6	1385854	WORD	n/a	wordpools/wordpool_EN.txt	JAR	3	9	[0, 0, 0]	n/a	FR1	0	R1077T
971.692	2.567	1388454	WORD	n/a	wordpools/wordpool_EN.txt	RIB	4	9	[0, 0, 0]	n/a	FR1	0	R1077T
974.259	2.534	1391021	WORD	n/a	wordpools/wordpool_EN.txt	STEAK	5	9	[0, 0, 0]	n/a	FR1	0	R1077T
976.793	2.484	1393555	WORD	n/a	wordpools/wordpool_EN.txt	TRAY	6	9	[0, 0, 0]	n/a	FR1	0	R1077T
979.277	2.5	1396039	WORD	n/a	wordpools/wordpool_EN.txt	STOOL	7	9	[0, 0, 0]	n/a	FR1	0	R1077T
981.777	2.434	1398539	WORD	n/a	wordpools/wordpool_EN.txt	MILK	8	9	[0, 0, 0]	n/a	FR1	0	R1077T
984.211	2.501	1400972	WORD	n/a	wordpools/wordpool_EN.txt	VASE	9	9	[0, 0, 0]	n/a	FR1	0	R1077T
986.712	2.434	1403473	WORD	n/a	wordpools/wordpool_EN.txt	CANE	10	9	[0, 0, 0]	n/a	FR1	0	R1077T
989.146	2.45	1405907	WORD	n/a	wordpools/wordpool_EN.txt	RAT	11	9	[0, 0, 0]	n/a	FR1	0	R1077T
991.596	1.617	1408357	WORD	n/a	wordpools/wordpool_EN.txt	DESK	12	9	[0, 0, 0]	n/a	FR1	0	R1077T
993.213	0.001	1409974	DISTRACT_START	n/a	n/a	n/a	-999	9	[0, 0, 0]	n/a	FR1	0	R1077T
993.214	0.016	1409975	START	n/a	n/a	n/a	-999	9	[-999, -999, -999]	n/a	FR1	0	R1077T
993.23	4.434	1409991	PROB	4.434	n/a	n/a	-999	9	[9, 4, 2]	15	FR1	0	R1077T
997.664	2.467	1414425	PROB	2.467	n/a	n/a	-999	9	[1, 1, 6]	8	FR1	0	R1077T
1000.131	1.901	1416892	PROB	1.901	n/a	n/a	-999	9	[1, 7, 1]	9	FR1	0	R1077T
1002.032	4.5	1418793	PROB	4.5	n/a	n/a	-999	9	[9, 7, 6]	21	FR1	0	R1077T
1006.532	5.402	1423292	PROB	5.402	n/a	n/a	-999	9	[5, 7, 4]	16	FR1	0	R1077T
1011.934	3.566	1428694	PROB	3.566	n/a	n/a	-999	9	[3, 3, 6]	15	FR1	0	R1077T
1015.5	0.017	1432260	STOP	n/a	n/a	n/a	-999	9	[-999, -999, -999]	n/a	FR1	0	R1077T
1015.517	1.167	1432277	DISTRACT_END	n/a	n/a	n/a	-999	9	[0, 0, 0]	n/a	FR1	0	R1077T
1016.684	2.263	1433444	REC_START	n/a	n/a	n/a	-999	9	[0, 0, 0]	n/a	FR1	0	R1077T
1018.947	0.483	1435707	REC_WORD	0.483	n/a	PEN	-999	9	[0, 0, 0]	n/a	FR1	0	R1077T
1019.43	0.643	1436190	REC_WORD	0.643	n/a	TEA	-999	9	[0, 0, 0]	n/a	FR1	0	R1077T
1020.073	26.622	1436833	REC_WORD	26.622	n/a	RAT	-999	9	[0, 0, 0]	n/a	FR1	0	R1077T
1046.695	2.345	1463453	REC_END	n/a	n/a	n/a	-999	9	[0, 0, 0]	n/a	FR1	0	R1077T
1049.04	0.0	1465798	TRIAL	n/a	n/a	n/a	-999	10	[0, 0, 0]	n/a	FR1	0	R1077T
1049.04	10.428	1465798	COUNTDOWN_START	n/a	n/a	n/a	-999	10	[0, 0, 0]	n/a	FR1	0	R1077T
1059.468	0.007	1476226	COUNTDOWN_END	n/a	n/a	n/a	-999	10	[0, 0, 0]	n/a	FR1	0	R1077T
1059.475	2.401	1476233	ORIENT	n/a	n/a	n/a	-999	10	[0, 0, 0]	n/a	FR1	0	R1077T
1061.876	2.6	1478634	WORD	n/a	wordpools/wordpool_EN.txt	STORM	1	10	[0, 0, 0]	n/a	FR1	0	R1077T
1064.476	2.617	1481234	WORD	n/a	wordpools/wordpool_EN.txt	CAVE	2	10	[0, 0, 0]	n/a	FR1	0	R1077T
1067.093	2.484	1483850	WORD	n/a	wordpools/wordpool_EN.txt	SPRING	3	10	[0, 0, 0]	n/a	FR1	0	R1077T
1069.577	2.5	1486334	WORD	n/a	wordpools/wordpool_EN.txt	SLUSH	4	10	[0, 0, 0]	n/a	FR1	0	R1077T
1072.077	2.601	1488834	WORD	n/a	wordpools/wordpool_EN.txt	BOWL	5	10	[0, 0, 0]	n/a	FR1	0	R1077T
1074.678	2.417	1491435	WORD	n/a	wordpools/wordpool_EN.txt	BARN	6	10	[0, 0, 0]	n/a	FR1	0	R1077T
1077.095	2.45	1493852	WORD	n/a	wordpools/wordpool_EN.txt	BROOM	7	10	[0, 0, 0]	n/a	FR1	0	R1077T
1079.545	2.584	1496302	WORD	n/a	wordpools/wordpool_EN.txt	CAGE	8	10	[0, 0, 0]	n/a	FR1	0	R1077T
1082.129	2.567	1498886	WORD	n/a	wordpools/wordpool_EN.txt	ROPE	9	10	[0, 0, 0]	n/a	FR1	0	R1077T
1084.696	2.4	1501453	WORD	n/a	wordpools/wordpool_EN.txt	CALF	10	10	[0, 0, 0]	n/a	FR1	0	R1077T
1087.096	2.434	1503852	WORD	n/a	wordpools/wordpool_EN.txt	YARD	11	10	[0, 0, 0]	n/a	FR1	0	R1077T
1089.53	1.617	1506286	WORD	n/a	wordpools/wordpool_EN.txt	FLOOR	12	10	[0, 0, 0]	n/a	FR1	0	R1077T
1091.147	0.001	1507903	DISTRACT_START	n/a	n/a	n/a	-999	10	[0, 0, 0]	n/a	FR1	0	R1077T
1091.148	0.016	1507904	START	n/a	n/a	n/a	-999	10	[-999, -999, -999]	n/a	FR1	0	R1077T
1091.164	4.384	1507920	PROB	4.384	n/a	n/a	-999	10	[9, 2, 7]	18	FR1	0	R1077T
1095.548	4.168	1512304	PROB	4.168	n/a	n/a	-999	10	[1, 3, 2]	6	FR1	0	R1077T
1099.716	3.684	1516472	PROB	3.684	n/a	n/a	-999	10	[4, 7, 4]	15	FR1	0	R1077T
1103.4	4.184	1520156	PROB	4.184	n/a	n/a	-999	10	[3, 7, 9]	19	FR1	0	R1077T
1107.584	2.95	1524339	PROB	2.95	n/a	n/a	-999	10	[9, 1, 5]	15	FR1	0	R1077T
1110.534	2.431	1527289	PROB	2.431	n/a	n/a	-999	10	[8, 8, 9]	22	FR1	0	R1077T
1112.965	0.004	1529720	STOP	n/a	n/a	n/a	-999	10	[-999, -999, -999]	n/a	FR1	0	R1077T
1112.969	1.169	1529724	DISTRACT_END	n/a	n/a	n/a	-999	10	[0, 0, 0]	n/a	FR1	0	R1077T
1114.138	2.097	1530893	REC_START	n/a	n/a	n/a	-999	10	[0, 0, 0]	n/a	FR1	0	R1077T
1116.235	1.096	1532990	REC_WORD	1.096	n/a	BARN	-999	10	[0, 0, 0]	n/a	FR1	0	R1077T
1117.331	0.817	1534086	REC_WORD	0.817	n/a	ROPE	-999	10	[0, 0, 0]	n/a	FR1	0	R1077T
1118.148	3.359	1534903	REC_WORD	3.359	n/a	CAGE	-999	10	[0, 0, 0]	n/a	FR1	0	R1077T
1121.507	22.639	1538262	REC_WORD	22.639	n/a	FLOOR	-999	10	[0, 0, 0]	n/a	FR1	0	R1077T
1144.146	2.528	1560900	REC_END	n/a	n/a	n/a	-999	10	[0, 0, 0]	n/a	FR1	0	R1077T
1146.674	0.0	1563428	TRIAL	n/a	n/a	n/a	-999	11	[0, 0, 0]	n/a	FR1	0	R1077T
1146.674	10.428	1563428	COUNTDOWN_START	n/a	n/a	n/a	-999	11	[0, 0, 0]	n/a	FR1	0	R1077T
1157.102	0.007	1573855	COUNTDOWN_END	n/a	n/a	n/a	-999	11	[0, 0, 0]	n/a	FR1	0	R1077T
1157.109	2.584	1573862	ORIENT	n/a	n/a	n/a	-999	11	[0, 0, 0]	n/a	FR1	0	R1077T
1159.693	2.617	1576446	WORD	n/a	wordpools/wordpool_EN.txt	FISH	1	11	[0, 0, 0]	n/a	FR1	0	R1077T
1162.31	2.585	1579063	WORD	n/a	wordpools/wordpool_EN.txt	SHIELD	2	11	[0, 0, 0]	n/a	FR1	0	R1077T
1164.895	2.433	1581648	WORD	n/a	wordpools/wordpool_EN.txt	SOCK	3	11	[0, 0, 0]	n/a	FR1	0	R1077T
1167.328	2.601	1584080	WORD	n/a	wordpools/wordpool_EN.txt	HOOK	4	11	[0, 0, 0]	n/a	FR1	0	R1077T
1169.929	2.383	1586681	WORD	n/a	wordpools/wordpool_EN.txt	RAKE	5	11	[0, 0, 0]	n/a	FR1	0	R1077T
1172.312	2.367	1589064	WORD	n/a	wordpools/wordpool_EN.txt	HORSE	6	11	[0, 0, 0]	n/a	FR1	0	R1077T
1174.679	2.434	1591431	WORD	n/a	wordpools/wordpool_EN.txt	COW	7	11	[0, 0, 0]	n/a	FR1	0	R1077T
1177.113	2.45	1593865	WORD	n/a	wordpools/wordpool_EN.txt	DOG	8	11	[0, 0, 0]	n/a	FR1	0	R1077T
1179.563	2.534	1596315	WORD	n/a	wordpools/wordpool_EN.txt	NOSE	9	11	[0, 0, 0]	n/a	FR1	0	R1077T
1182.097	2.484	1598849	WORD	n/a	wordpools/wordpool_EN.txt	POND	10	11	[0, 0, 0]	n/a	FR1	0	R1077T
1184.581	2.617	1601333	WORD	n/a	wordpools/wordpool_EN.txt	SKI	11	11	[0, 0, 0]	n/a	FR1	0	R1077T
1187.198	1.617	1603950	WORD	n/a	wordpools/wordpool_EN.txt	CUBE	12	11	[0, 0, 0]	n/a	FR1	0	R1077T
1188.815	0.001	1605566	DISTRACT_START	n/a	n/a	n/a	-999	11	[0, 0, 0]	n/a	FR1	0	R1077T
1188.816	0.017	1605567	START	n/a	n/a	n/a	-999	11	[-999, -999, -999]	n/a	FR1	0	R1077T
1188.833	2.866	1605584	PROB	2.866	n/a	n/a	-999	11	[1, 1, 7]	9	FR1	0	R1077T
1191.699	5.185	1608450	PROB	5.185	n/a	n/a	-999	11	[8, 1, 2]	10	FR1	0	R1077T
1196.884	4.2	1613635	PROB	4.2	n/a	n/a	-999	11	[4, 9, 5]	2	FR1	0	R1077T
1201.084	4.584	1617835	PROB	4.584	n/a	n/a	-999	11	[6, 5, 3]	15	FR1	0	R1077T
1205.668	5.016	1622419	PROB	5.016	n/a	n/a	-999	11	[9, 8, 8]	31	FR1	0	R1077T
1210.684	0.018	1627434	STOP	n/a	n/a	n/a	-999	11	[-999, -999, -999]	n/a	FR1	0	R1077T
1210.702	1.068	1627452	DISTRACT_END	n/a	n/a	n/a	-999	11	[0, 0, 0]	n/a	FR1	0	R1077T
1211.77	1.789	1628520	REC_START	n/a	n/a	n/a	-999	11	[0, 0, 0]	n/a	FR1	0	R1077T
1213.559	1.729	1630309	REC_WORD	1.729	n/a	POND	-999	11	[0, 0, 0]	n/a	FR1	0	R1077T
1215.288	1.26	1632038	REC_WORD	1.26	n/a	FISH	-999	11	[0, 0, 0]	n/a	FR1	0	R1077T
1216.548	2.147	1633298	REC_WORD	2.147	n/a	HORSE	-999	11	[0, 0, 0]	n/a	FR1	0	R1077T
1218.695	1.73	1635445	REC_WORD	1.73	n/a	DOG	-999	11	[0, 0, 0]	n/a	FR1	0	R1077T
1220.425	18.362	1637175	REC_WORD	18.362	n/a	COW	-999	11	[0, 0, 0]	n/a	FR1	0	R1077T
1238.787	2.993	1655536	REC_WORD	2.993	n/a	HOOK	-999	11	[0, 0, 0]	n/a	FR1	0	R1077T
1241.78	2.063	1658529	REC_END	n/a	n/a	n/a	-999	11	[0, 0, 0]	n/a	FR1	0	R1077T
1243.843	0.0	1660592	TRIAL	n/a	n/a	n/a	-999	12	[0, 0, 0]	n/a	FR1	0	R1077T
1243.843	10.428	1660592	COUNTDOWN_START	n/a	n/a	n/a	-999	12	[0, 0, 0]	n/a	FR1	0	R1077T
1254.271	0.006	1671019	COUNTDOWN_END	n/a	n/a	n/a	-999	12	[0, 0, 0]	n/a	FR1	0	R1077T
1254.277	2.434	1671025	ORIENT	n/a	n/a	n/a	-999	12	[0, 0, 0]	n/a	FR1	0	R1077T
1256.711	2.517	1673459	WORD	n/a	wordpools/wordpool_EN.txt	BOOT	1	12	[0, 0, 0]	n/a	FR1	0	R1077T
1259.228	2.5	1675976	WORD	n/a	wordpools/wordpool_EN.txt	CROW	2	12	[0, 0, 0]	n/a	FR1	0	R1077T
1261.728	2.634	1678476	WORD	n/a	wordpools/wordpool_EN.txt	MULE	3	12	[0, 0, 0]	n/a	FR1	0	R1077T
1264.362	2.434	1681110	WORD	n/a	wordpools/wordpool_EN.txt	FLUTE	4	12	[0, 0, 0]	n/a	FR1	0	R1077T
1266.796	2.417	1683544	WORD	n/a	wordpools/wordpool_EN.txt	WEB	5	12	[0, 0, 0]	n/a	FR1	0	R1077T
1269.213	2.517	1685960	WORD	n/a	wordpools/wordpool_EN.txt	ARM	6	12	[0, 0, 0]	n/a	FR1	0	R1077T
1271.73	2.584	1688477	WORD	n/a	wordpools/wordpool_EN.txt	BUSH	7	12	[0, 0, 0]	n/a	FR1	0	R1077T
1274.314	2.434	1691061	WORD	n/a	wordpools/wordpool_EN.txt	SHOE	8	12	[0, 0, 0]	n/a	FR1	0	R1077T
1276.748	2.5	1693495	WORD	n/a	wordpools/wordpool_EN.txt	BEAN	9	12	[0, 0, 0]	n/a	FR1	0	R1077T
1279.248	2.585	1695995	WORD	n/a	wordpools/wordpool_EN.txt	DEER	10	12	[0, 0, 0]	n/a	FR1	0	R1077T
1281.833	2.45	1698580	WORD	n/a	wordpools/wordpool_EN.txt	WORM	11	12	[0, 0, 0]	n/a	FR1	0	R1077T
1284.283	1.618	1701030	WORD	n/a	wordpools/wordpool_EN.txt	MOTH	12	12	[0, 0, 0]	n/a	FR1	0	R1077T
1285.901	0.001	1702648	DISTRACT_START	n/a	n/a	n/a	-999	12	[0, 0, 0]	n/a	FR1	0	R1077T
1285.902	0.015	1702649	START	n/a	n/a	n/a	-999	12	[-999, -999, -999]	n/a	FR1	0	R1077T
1285.917	9.451	1702664	PROB	9.451	n/a	n/a	-999	12	[9, 3, 4]	16	FR1	0	R1077T
1295.368	3.801	1712114	PROB	3.801	n/a	n/a	-999	12	[9, 1, 9]	19	FR1	0	R1077T
1299.169	2.983	1715915	PROB	2.983	n/a	n/a	-999	12	[4, 4, 9]	17	FR1	0	R1077T
1302.152	2.702	1718898	PROB	2.702	n/a	n/a	-999	12	[2, 5, 6]	12	FR1	0	R1077T
1304.854	4.0	1721600	PROB	4.0	n/a	n/a	-999	12	[6, 9, 3]	17	FR1	0	R1077T
1308.854	0.017	1725600	STOP	n/a	n/a	n/a	-999	12	[-999, -999, -999]	n/a	FR1	0	R1077T
1308.871	1.117	1725617	DISTRACT_END	n/a	n/a	n/a	-999	12	[0, 0, 0]	n/a	FR1	0	R1077T
1309.988	1.827	1726733	REC_START	n/a	n/a	n/a	-999	12	[0, 0, 0]	n/a	FR1	0	R1077T
1311.815	0.92	1728560	REC_WORD	0.92	n/a	SHOE	-999	12	[0, 0, 0]	n/a	FR1	0	R1077T
1312.735	27.267	1729480	REC_WORD	27.267	n/a	BEAN	-999	12	[0, 0, 0]	n/a	FR1	0	R1077T
1340.002	2.358	1756746	REC_END	n/a	n/a	n/a	-999	12	[0, 0, 0]	n/a	FR1	0	R1077T
1342.36	0.0	1759104	TRIAL	n/a	n/a	n/a	-999	13	[0, 0, 0]	n/a	FR1	0	R1077T
1342.36	10.428	1759104	COUNTDOWN_START	n/a	n/a	n/a	-999	13	[0, 0, 0]	n/a	FR1	0	R1077T
1352.788	0.007	1769531	COUNTDOWN_END	n/a	n/a	n/a	-999	13	[0, 0, 0]	n/a	FR1	0	R1077T
1352.795	2.4	1769538	ORIENT	n/a	n/a	n/a	-999	13	[0, 0, 0]	n/a	FR1	0	R1077T
1355.195	2.551	1771938	WORD	n/a	wordpools/wordpool_EN.txt	SIGN	1	13	[0, 0, 0]	n/a	FR1	0	R1077T
1357.746	2.5	1774489	WORD	n/a	wordpools/wordpool_EN.txt	CLOCK	2	13	[0, 0, 0]	n/a	FR1	0	R1077T
1360.246	2.501	1776989	WORD	n/a	wordpools/wordpool_EN.txt	PURSE	3	13	[0, 0, 0]	n/a	FR1	0	R1077T
1362.747	2.6	1779490	WORD	n/a	wordpools/wordpool_EN.txt	SUIT	4	13	[0, 0, 0]	n/a	FR1	0	R1077T
1365.347	2.502	1782090	WORD	n/a	wordpools/wordpool_EN.txt	FOG	5	13	[0, 0, 0]	n/a	FR1	0	R1077T
1367.849	2.582	1784592	WORD	n/a	wordpools/wordpool_EN.txt	STONE	6	13	[0, 0, 0]	n/a	FR1	0	R1077T
1370.431	2.502	1787174	WORD	n/a	wordpools/wordpool_EN.txt	SLEEVE	7	13	[0, 0, 0]	n/a	FR1	0	R1077T
1372.933	2.516	1789675	WORD	n/a	wordpools/wordpool_EN.txt	PEARL	8	13	[0, 0, 0]	n/a	FR1	0	R1077T
1375.449	2.568	1792191	WORD	n/a	wordpools/wordpool_EN.txt	PEAR	9	13	[0, 0, 0]	n/a	FR1	0	R1077T
1378.017	2.633	1794759	WORD	n/a	wordpools/wordpool_EN.txt	FLAME	10	13	[0, 0, 0]	n/a	FR1	0	R1077T
1380.65	2.401	1797392	WORD	n/a	wordpools/wordpool_EN.txt	DART	11	13	[0, 0, 0]	n/a	FR1	0	R1077T
1383.051	1.616	1799793	WORD	n/a	wordpools/wordpool_EN.txt	SQUARE	12	13	[0, 0, 0]	n/a	FR1	0	R1077T
1384.667	0.001	1801409	DISTRACT_START	n/a	n/a	n/a	-999	13	[0, 0, 0]	n/a	FR1	0	R1077T
1384.668	0.016	1801410	START	n/a	n/a	n/a	-999	13	[-999, -999, -999]	n/a	FR1	0	R1077T
1384.684	4.684	1801426	PROB	4.684	n/a	n/a	-999	13	[1, 8, 5]	14	FR1	0	R1077T
1389.368	2.734	1806110	PROB	2.734	n/a	n/a	-999	13	[7, 8, 1]	16	FR1	0	R1077T
1392.102	5.634	1808843	PROB	5.634	n/a	n/a	-999	13	[6, 5, 8]	19	FR1	0	R1077T
1397.736	4.485	1814477	PROB	4.485	n/a	n/a	-999	13	[6, 1, 2]	9	FR1	0	R1077T
1402.221	5.039	1818962	PROB	5.039	n/a	n/a	-999	13	[5, 1, 4]	10	FR1	0	R1077T
1407.26	0.012	1824001	STOP	n/a	n/a	n/a	-999	13	[-999, -999, -999]	n/a	FR1	0	R1077T
1407.272	1.217	1824013	DISTRACT_END	n/a	n/a	n/a	-999	13	[0, 0, 0]	n/a	FR1	0	R1077T
1408.489	2.111	1825230	REC_START	n/a	n/a	n/a	-999	13	[0, 0, 0]	n/a	FR1	0	R1077T
1410.6	1.843	1827341	REC_WORD	1.843	n/a	SUIT	-999	13	[0, 0, 0]	n/a	FR1	0	R1077T
1412.443	0.86	1829183	REC_WORD	0.86	n/a	VEST	-999	13	[0, 0, 0]	n/a	FR1	0	R1077T
1413.303	1.333	1830043	REC_WORD	1.333	n/a	PEARL	-999	13	[0, 0, 0]	n/a	FR1	0	R1077T
1414.636	1.268	1831376	REC_WORD	1.268	n/a	SLEEVE	-999	13	[0, 0, 0]	n/a	FR1	0	R1077T
1415.904	0.748	1832644	REC_WORD	0.748	n/a	DART	-999	13	[0, 0, 0]	n/a	FR1	0	R1077T
1416.652	2.542	1833392	REC_WORD	2.542	n/a	SQUARE	-999	13	[0, 0, 0]	n/a	FR1	0	R1077T
1419.194	19.307	1835934	REC_WORD	19.307	n/a	MOTH	-999	13	[0, 0, 0]	n/a	FR1	0	R1077T
1438.501	8.161	1855240	REC_END	n/a	n/a	n/a	-999	13	[0, 0, 0]	n/a	FR1	0	R1077T
1446.662	0.0	1863401	COUNTDOWN_START	n/a	n/a	n/a	-999	14	[0, 0, 0]	n/a	FR1	0	R1077T
1446.662	10.428	1863401	TRIAL	n/a	n/a	n/a	-999	14	[0, 0, 0]	n/a	FR1	0	R1077T
1457.09	0.007	1873828	COUNTDOWN_END	n/a	n/a	n/a	-999	14	[0, 0, 0]	n/a	FR1	0	R1077T
1457.097	2.551	1873835	ORIENT	n/a	n/a	n/a	-999	14	[0, 0, 0]	n/a	FR1	0	R1077T
1459.648	2.45	1876386	WORD	n/a	wordpools/wordpool_EN.txt	STICK	1	14	[0, 0, 0]	n/a	FR1	0	R1077T
1462.098	2.517	1878836	WORD	n/a	wordpools/wordpool_EN.txt	FUR	2	14	[0, 0, 0]	n/a	FR1	0	R1077T
1464.615	2.567	1881353	WORD	n/a	wordpools/wordpool_EN.txt	DUCK	3	14	[0, 0, 0]	n/a	FR1	0	R1077T
1467.182	2.434	1883920	WORD	n/a	wordpools/wordpool_EN.txt	MOUSE	4	14	[0, 0, 0]	n/a	FR1	0	R1077T
1469.616	2.584	1886354	WORD	n/a	wordpools/wordpool_EN.txt	LAMB	5	14	[0, 0, 0]	n/a	FR1	0	R1077T
1472.2	2.567	1888938	WORD	n/a	wordpools/wordpool_EN.txt	PIG	6	14	[0, 0, 0]	n/a	FR1	0	R1077T
1474.767	2.617	1891504	WORD	n/a	wordpools/wordpool_EN.txt	SNAKE	7	14	[0, 0, 0]	n/a	FR1	0	R1077T
1477.384	2.535	1894121	WORD	n/a	wordpools/wordpool_EN.txt	BEAK	8	14	[0, 0, 0]	n/a	FR1	0	R1077T
1479.919	2.6	1896656	WORD	n/a	wordpools/wordpool_EN.txt	BRUSH	9	14	[0, 0, 0]	n/a	FR1	0	R1077T
1482.519	2.434	1899256	WORD	n/a	wordpools/wordpool_EN.txt	TAIL	10	14	[0, 0, 0]	n/a	FR1	0	R1077T
1484.953	2.466	1901690	WORD	n/a	wordpools/wordpool_EN.txt	FENCE	11	14	[0, 0, 0]	n/a	FR1	0	R1077T
1487.419	1.602	1904156	WORD	n/a	wordpools/wordpool_EN.txt	SWAMP	12	14	[0, 0, 0]	n/a	FR1	0	R1077T
1489.021	0.0	1905758	DISTRACT_START	n/a	n/a	n/a	-999	14	[0, 0, 0]	n/a	FR1	0	R1077T
1489.021	0.016	1905758	START	n/a	n/a	n/a	-999	14	[-999, -999, -999]	n/a	FR1	0	R1077T
1489.037	9.351	1905774	PROB	9.351	n/a	n/a	-999	14	[5, 6, 8]	19	FR1	0	R1077T
1498.388	3.734	1915124	PROB	3.734	n/a	n/a	-999	14	[2, 7, 3]	13	FR1	0	R1077T
1502.122	2.051	1918858	PROB	2.051	n/a	n/a	-999	14	[1, 5, 1]	7	FR1	0	R1077T
1504.173	2.718	1920909	PROB	2.718	n/a	n/a	-999	14	[2, 6, 3]	9	FR1	0	R1077T
1506.891	6.85	1923627	PROB	6.85	n/a	n/a	-999	14	[8, 5, 7]	18	FR1	0	R1077T
1513.741	0.017	1930477	STOP	n/a	n/a	n/a	-999	14	[-999, -999, -999]	n/a	FR1	0	R1077T
1513.758	1.168	1930494	DISTRACT_END	n/a	n/a	n/a	-999	14	[0, 0, 0]	n/a	FR1	0	R1077T
1514.926	3.503	1931661	REC_START	n/a	n/a	n/a	-999	14	[0, 0, 0]	n/a	FR1	0	R1077T
1518.429	1.239	1935164	REC_WORD	1.239	n/a	FUR	-999	14	[0, 0, 0]	n/a	FR1	0	R1077T
1519.668	1.687	1936403	REC_WORD	1.687	n/a	BRUSH	-999	14	[0, 0, 0]	n/a	FR1	0	R1077T
1521.355	3.654	1938090	REC_WORD	3.654	n/a	BEAK	-999	14	[0, 0, 0]	n/a	FR1	0	R1077T
1525.009	8.048	1941744	REC_WORD	8.048	n/a	MOOSE	-999	14	[0, 0, 0]	n/a	FR1	0	R1077T
1533.057	11.881	1949792	REC_WORD	11.881	n/a	SHEEP	-999	14	[0, 0, 0]	n/a	FR1	0	R1077T
1544.938	2.676	1961672	REC_END	n/a	n/a	n/a	-999	14	[0, 0, 0]	n/a	FR1	0	R1077T
1547.614	0.0	1964348	TRIAL	n/a	n/a	n/a	-999	15	[0, 0, 0]	n/a	FR1	0	R1077T
1547.614	10.428	1964348	COUNTDOWN_START	n/a	n/a	n/a	-999	15	[0, 0, 0]	n/a	FR1	0	R1077T
1558.042	0.007	1974775	COUNTDOWN_END	n/a	n/a	n/a	-999	15	[0, 0, 0]	n/a	FR1	0	R1077T
1558.049	2.384	1974782	ORIENT	n/a	n/a	n/a	-999	15	[0, 0, 0]	n/a	FR1	0	R1077T
1560.433	2.401	1977166	WORD	n/a	wordpools/wordpool_EN.txt	SHEET	1	15	[0, 0, 0]	n/a	FR1	0	R1077T
1562.834	2.4	1979567	WORD	n/a	wordpools/wordpool_EN.txt	OAK	2	15	[0, 0, 0]	n/a	FR1	0	R1077T
1565.234	2.601	1981967	WORD	n/a	wordpools/wordpool_EN.txt	PANTS	3	15	[0, 0, 0]	n/a	FR1	0	R1077T
1567.835	2.533	1984568	WORD	n/a	wordpools/wordpool_EN.txt	TENT	4	15	[0, 0, 0]	n/a	FR1	0	R1077T
1570.368	2.417	1987101	WORD	n/a	wordpools/wordpool_EN.txt	WOLF	5	15	[0, 0, 0]	n/a	FR1	0	R1077T
1572.785	2.517	1989518	WORD	n/a	wordpools/wordpool_EN.txt	INK	6	15	[0, 0, 0]	n/a	FR1	0	R1077T
1575.302	2.417	1992034	WORD	n/a	wordpools/wordpool_EN.txt	HOOF	7	15	[0, 0, 0]	n/a	FR1	0	R1077T
1577.719	2.601	1994451	WORD	n/a	wordpools/wordpool_EN.txt	SHEEP	8	15	[0, 0, 0]	n/a	FR1	0	R1077T
1580.32	2.585	1997052	WORD	n/a	wordpools/wordpool_EN.txt	BOY	9	15	[0, 0, 0]	n/a	FR1	0	R1077T
1582.905	2.516	1999637	WORD	n/a	wordpools/wordpool_EN.txt	KEY	10	15	[0, 0, 0]	n/a	FR1	0	R1077T
1585.421	2.551	2002153	WORD	n/a	wordpools/wordpool_EN.txt	BED	11	15	[0, 0, 0]	n/a	FR1	0	R1077T
1587.972	1.616	2004704	WORD	n/a	wordpools/wordpool_EN.txt	MAIL	12	15	[0, 0, 0]	n/a	FR1	0	R1077T
1589.588	0.001	2006320	DISTRACT_START	n/a	n/a	n/a	-999	15	[0, 0, 0]	n/a	FR1	0	R1077T
1589.589	0.016	2006321	START	n/a	n/a	n/a	-999	15	[-999, -999, -999]	n/a	FR1	0	R1077T
1589.605	3.285	2006337	PROB	3.285	n/a	n/a	-999	15	[1, 3, 1]	5	FR1	0	R1077T
1592.89	2.616	2009622	PROB	2.616	n/a	n/a	-999	15	[4, 6, 1]	11	FR1	0	R1077T
1595.506	4.984	2012238	PROB	4.984	n/a	n/a	-999	15	[1, 8, 5]	13	FR1	0	R1077T
1600.49	3.535	2017221	PROB	3.535	n/a	n/a	-999	15	[4, 5, 5]	14	FR1	0	R1077T
1604.025	3.283	2020756	PROB	3.283	n/a	n/a	-999	15	[9, 7, 2]	18	FR1	0	R1077T
1607.308	2.689	2024039	PROB	2.689	n/a	n/a	-999	15	[1, 4, 9]	14	FR1	0	R1077T
1609.997	0.013	2026728	STOP	n/a	n/a	n/a	-999	15	[-999, -999, -999]	n/a	FR1	0	R1077T
1610.01	1.066	2026741	DISTRACT_END	n/a	n/a	n/a	-999	15	[0, 0, 0]	n/a	FR1	0	R1077T
1611.076	16.057	2027807	REC_START	n/a	n/a	n/a	-999	15	[0, 0, 0]	n/a	FR1	0	R1077T
1627.133	0.803	2043863	REC_WORD	0.803	n/a	TENT	-999	15	[0, 0, 0]	n/a	FR1	0	R1077T
1627.936	1.07	2044666	REC_WORD	1.07	n/a	PANTS	-999	15	[0, 0, 0]	n/a	FR1	0	R1077T
1629.006	6.007	2045736	REC_WORD	6.007	n/a	STEAK	-999	15	[0, 0, 0]	n/a	FR1	0	R1077T
1635.013	6.075	2051743	REC_WORD	6.075	n/a	WOLF	-999	15	[0, 0, 0]	n/a	FR1	0	R1077T
1641.088	2.61	2057817	REC_END	n/a	n/a	n/a	-999	15	[0, 0, 0]	n/a	FR1	0	R1077T
1643.698	0.0	2060427	COUNTDOWN_START	n/a	n/a	n/a	-999	16	[0, 0, 0]	n/a	FR1	0	R1077T
1643.698	10.428	2060427	TRIAL	n/a	n/a	n/a	-999	16	[0, 0, 0]	n/a	FR1	0	R1077T
1654.126	0.007	2070855	COUNTDOWN_END	n/a	n/a	n/a	-999	16	[0, 0, 0]	n/a	FR1	0	R1077T
1654.133	2.601	2070862	ORIENT	n/a	n/a	n/a	-999	16	[0, 0, 0]	n/a	FR1	0	R1077T
1656.734	2.533	2073463	WORD	n/a	wordpools/wordpool_EN.txt	STRING	1	16	[0, 0, 0]	n/a	FR1	0	R1077T
1659.267	2.368	2075995	WORD	n/a	wordpools/wordpool_EN.txt	DOLL	2	16	[0, 0, 0]	n/a	FR1	0	R1077T
1661.635	2.467	2078363	WORD	n/a	wordpools/wordpool_EN.txt	FROG	3	16	[0, 0, 0]	n/a	FR1	0	R1077T
1664.102	2.4	2080830	WORD	n/a	wordpools/wordpool_EN.txt	ROOM	4	16	[0, 0, 0]	n/a	FR1	0	R1077T
1666.502	2.385	2083230	WORD	n/a	wordpools/wordpool_EN.txt	CHAIR	5	16	[0, 0, 0]	n/a	FR1	0	R1077T
1668.887	2.616	2085615	WORD	n/a	wordpools/wordpool_EN.txt	LAWN	6	16	[0, 0, 0]	n/a	FR1	0	R1077T
1671.503	2.501	2088231	WORD	n/a	wordpools/wordpool_EN.txt	HORN	7	16	[0, 0, 0]	n/a	FR1	0	R1077T
1674.004	2.483	2090732	WORD	n/a	wordpools/wordpool_EN.txt	BOARD	8	16	[0, 0, 0]	n/a	FR1	0	R1077T
1676.487	2.601	2093215	WORD	n/a	wordpools/wordpool_EN.txt	HAND	9	16	[0, 0, 0]	n/a	FR1	0	R1077T
1679.088	2.584	2095815	WORD	n/a	wordpools/wordpool_EN.txt	DOOR	10	16	[0, 0, 0]	n/a	FR1	0	R1077T
1681.672	2.4	2098399	WORD	n/a	wordpools/wordpool_EN.txt	WOOD	11	16	[0, 0, 0]	n/a	FR1	0	R1077T
1684.072	1.617	2100799	WORD	n/a	wordpools/wordpool_EN.txt	DRUM	12	16	[0, 0, 0]	n/a	FR1	0	R1077T
1685.689	0.001	2102416	DISTRACT_START	n/a	n/a	n/a	-999	16	[0, 0, 0]	n/a	FR1	0	R1077T
1685.69	0.016	2102417	START	n/a	n/a	n/a	-999	16	[-999, -999, -999]	n/a	FR1	0	R1077T
1685.706	5.285	2102433	PROB	5.285	n/a	n/a	-999	16	[4, 7, 4]	19	FR1	0	R1077T
1690.991	3.216	2107718	PROB	3.216	n/a	n/a	-999	16	[3, 5, 8]	16	FR1	0	R1077T
1694.207	5.851	2110934	PROB	5.851	n/a	n/a	-999	16	[3, 3, 8]	1	FR1	0	R1077T
1700.058	2.601	2116784	PROB	2.601	n/a	n/a	-999	16	[9, 7, 1]	17	FR1	0	R1077T
1702.659	3.331	2119385	PROB	3.331	n/a	n/a	-999	16	[3, 7, 6]	15	FR1	0	R1077T
1705.99	0.003	2122716	STOP	n/a	n/a	n/a	-999	16	[-999, -999, -999]	n/a	FR1	0	R1077T
1705.993	1.134	2122719	DISTRACT_END	n/a	n/a	n/a	-999	16	[0, 0, 0]	n/a	FR1	0	R1077T
1707.127	4.193	2123853	REC_START	n/a	n/a	n/a	-999	16	[0, 0, 0]	n/a	FR1	0	R1077T
1711.32	1.16	2128046	REC_WORD	1.16	n/a	HAND	-999	16	[0, 0, 0]	n/a	FR1	0	R1077T
1712.48	8.651	2129206	REC_WORD	8.651	n/a	DOOR	-999	16	[0, 0, 0]	n/a	FR1	0	R1077T
1721.131	6.429	2137856	REC_WORD	6.429	n/a	ROOM	-999	16	[0, 0, 0]	n/a	FR1	0	R1077T
1727.56	1.074	2144285	REC_WORD	1.074	n/a	STRING	-999	16	[0, 0, 0]	n/a	FR1	0	R1077T
1728.634	8.505	2145359	REC_WORD	8.505	n/a	DOLL	-999	16	[0, 0, 0]	n/a	FR1	0	R1077T
1737.139	3.327	2153864	REC_END	n/a	n/a	n/a	-999	16	[0, 0, 0]	n/a	FR1	0	R1077T
1740.466	0.0	2157190	TRIAL	n/a	n/a	n/a	-999	17	[0, 0, 0]	n/a	FR1	0	R1077T
1740.466	10.428	2157190	COUNTDOWN_START	n/a	n/a	n/a	-999	17	[0, 0, 0]	n/a	FR1	0	R1077T
1750.894	0.008	2167618	COUNTDOWN_END	n/a	n/a	n/a	-999	17	[0, 0, 0]	n/a	FR1	0	R1077T
1750.902	2.533	2167626	ORIENT	n/a	n/a	n/a	-999	17	[0, 0, 0]	n/a	FR1	0	R1077T
1753.435	2.601	2170159	WORD	n/a	wordpools/wordpool_EN.txt	BEACH	1	17	[0, 0, 0]	n/a	FR1	0	R1077T
1756.036	2.55	2172760	WORD	n/a	wordpools/wordpool_EN.txt	ROCK	2	17	[0, 0, 0]	n/a	FR1	0	R1077T
1758.586	2.517	2175310	WORD	n/a	wordpools/wordpool_EN.txt	HEART	3	17	[0, 0, 0]	n/a	FR1	0	R1077T
1761.103	2.617	2177826	WORD	n/a	wordpools/wordpool_EN.txt	LEAF	4	17	[0, 0, 0]	n/a	FR1	0	R1077T
1763.72	2.467	2180443	WORD	n/a	wordpools/wordpool_EN.txt	LAKE	5	17	[0, 0, 0]	n/a	FR1	0	R1077T
1766.187	2.4	2182910	WORD	n/a	wordpools/wordpool_EN.txt	JUDGE	6	17	[0, 0, 0]	n/a	FR1	0	R1077T
1768.587	2.601	2185310	WORD	n/a	wordpools/wordpool_EN.txt	SHIP	7	17	[0, 0, 0]	n/a	FR1	0	R1077T
1771.188	2.534	2187911	WORD	n/a	wordpools/wordpool_EN.txt	APE	8	17	[0, 0, 0]	n/a	FR1	0	R1077T
1773.722	2.433	2190445	WORD	n/a	wordpools/wordpool_EN.txt	SHELL	9	17	[0, 0, 0]	n/a	FR1	0	R1077T
1776.155	2.618	2192878	WORD	n/a	wordpools/wordpool_EN.txt	CHIEF	10	17	[0, 0, 0]	n/a	FR1	0	R1077T
1778.773	2.517	2195496	WORD	n/a	wordpools/wordpool_EN.txt	CAPE	11	17	[0, 0, 0]	n/a	FR1	0	R1077T
1781.29	1.618	2198012	WORD	n/a	wordpools/wordpool_EN.txt	BRANCH	12	17	[0, 0, 0]	n/a	FR1	0	R1077T
1782.908	0.001	2199630	DISTRACT_START	n/a	n/a	n/a	-999	17	[0, 0, 0]	n/a	FR1	0	R1077T
1782.909	0.015	2199631	START	n/a	n/a	n/a	-999	17	[-999, -999, -999]	n/a	FR1	0	R1077T
1782.924	4.034	2199646	PROB	4.034	n/a	n/a	-999	17	[6, 3, 1]	10	FR1	0	R1077T
1786.958	3.233	2203680	PROB	3.233	n/a	n/a	-999	17	[6, 1, 7]	14	FR1	0	R1077T
1790.191	2.234	2206913	PROB	2.234	n/a	n/a	-999	17	[1, 2, 9]	12	FR1	0	R1077T
1792.425	2.967	2209147	PROB	2.967	n/a	n/a	-999	17	[3, 3, 9]	14	FR1	0	R1077T
1795.392	3.151	2212114	PROB	3.151	n/a	n/a	-999	17	[2, 5, 2]	9	FR1	0	R1077T
1798.543	5.053	2215265	PROB	5.053	n/a	n/a	-999	17	[4, 9, 7]	18	FR1	0	R1077T
1803.596	0.014	2220317	STOP	n/a	n/a	n/a	-999	17	[-999, -999, -999]	n/a	FR1	0	R1077T
1803.61	1.035	2220331	DISTRACT_END	n/a	n/a	n/a	-999	17	[0, 0, 0]	n/a	FR1	0	R1077T
1804.645	3.086	2221366	REC_START	n/a	n/a	n/a	-999	17	[0, 0, 0]	n/a	FR1	0	R1077T
1807.731	0.976	2224452	REC_WORD	0.976	n/a	BEACH	-999	17	[0, 0, 0]	n/a	FR1	0	R1077T
1808.707	0.822	2225428	REC_WORD	0.822	n/a	LAKE	-999	17	[0, 0, 0]	n/a	FR1	0	R1077T
1809.529	1.024	2226250	REC_WORD	1.024	n/a	SHIP	-999	17	[0, 0, 0]	n/a	FR1	0	R1077T
1810.553	1.046	2227274	REC_WORD	1.046	n/a	HEART	-999	17	[0, 0, 0]	n/a	FR1	0	R1077T
1811.599	2.792	2228320	REC_WORD	2.792	n/a	BRANCH	-999	17	[0, 0, 0]	n/a	FR1	0	R1077T
1814.391	7.636	2231112	REC_WORD	7.636	n/a	CHAIR	-999	17	[0, 0, 0]	n/a	FR1	0	R1077T
1822.027	6.389	2238747	REC_WORD	6.389	n/a	CHIEF	-999	17	[0, 0, 0]	n/a	FR1	0	R1077T
1828.416	6.238	2245136	REC_WORD	6.238	n/a	SHELL	-999	17	[0, 0, 0]	n/a	FR1	0	R1077T
1834.654	2.529	2251374	REC_END	n/a	n/a	n/a	-999	17	[0, 0, 0]	n/a	FR1	0	R1077T
1837.183	0.0	2253903	TRIAL	n/a	n/a	n/a	-999	18	[0, 0, 0]	n/a	FR1	0	R1077T
1837.183	10.428	2253903	COUNTDOWN_START	n/a	n/a	n/a	-999	18	[0, 0, 0]	n/a	FR1	0	R1077T
1847.611	0.007	2264330	COUNTDOWN_END	n/a	n/a	n/a	-999	18	[0, 0, 0]	n/a	FR1	0	R1077T
1847.618	2.418	2264337	ORIENT	n/a	n/a	n/a	-999	18	[0, 0, 0]	n/a	FR1	0	R1077T
1850.036	2.417	2266755	WORD	n/a	wordpools/wordpool_EN.txt	BLOOM	1	18	[0, 0, 0]	n/a	FR1	0	R1077T
1852.453	2.617	2269172	WORD	n/a	wordpools/wordpool_EN.txt	PIPE	2	18	[0, 0, 0]	n/a	FR1	0	R1077T
1855.07	2.484	2271789	WORD	n/a	wordpools/wordpool_EN.txt	BREAD	3	18	[0, 0, 0]	n/a	FR1	0	R1077T
1857.554	2.418	2274273	WORD	n/a	wordpools/wordpool_EN.txt	SEED	4	18	[0, 0, 0]	n/a	FR1	0	R1077T
1859.972	2.416	2276691	WORD	n/a	wordpools/wordpool_EN.txt	JUICE	5	18	[0, 0, 0]	n/a	FR1	0	R1077T
1862.388	2.485	2279106	WORD	n/a	wordpools/wordpool_EN.txt	FORT	6	18	[0, 0, 0]	n/a	FR1	0	R1077T
1864.873	2.432	2281591	WORD	n/a	wordpools/wordpool_EN.txt	TOY	7	18	[0, 0, 0]	n/a	FR1	0	R1077T
1867.305	2.484	2284023	WORD	n/a	wordpools/wordpool_EN.txt	LOCK	8	18	[0, 0, 0]	n/a	FR1	0	R1077T
1869.789	2.501	2286507	WORD	n/a	wordpools/wordpool_EN.txt	SALT	9	18	[0, 0, 0]	n/a	FR1	0	R1077T
1872.29	2.4	2289008	WORD	n/a	wordpools/wordpool_EN.txt	BRICK	10	18	[0, 0, 0]	n/a	FR1	0	R1077T
1874.69	2.584	2291408	WORD	n/a	wordpools/wordpool_EN.txt	RICE	11	18	[0, 0, 0]	n/a	FR1	0	R1077T
1877.274	1.618	2293992	WORD	n/a	wordpools/wordpool_EN.txt	FRUIT	12	18	[0, 0, 0]	n/a	FR1	0	R1077T
1878.892	0.001	2295610	DISTRACT_START	n/a	n/a	n/a	-999	18	[0, 0, 0]	n/a	FR1	0	R1077T
1878.893	0.016	2295611	START	n/a	n/a	n/a	-999	18	[-999, -999, -999]	n/a	FR1	0	R1077T
1878.909	4.683	2295627	PROB	4.683	n/a	n/a	-999	18	[7, 1, 2]	9	FR1	0	R1077T
1883.592	4.6	2300309	PROB	4.6	n/a	n/a	-999	18	[3, 5, 3]	12	FR1	0	R1077T
1888.192	10.844	2304909	PROB	10.844	n/a	n/a	-999	18	[7, 3, 6]	16	FR1	0	R1077T
1899.036	0.008	2315753	STOP	n/a	n/a	n/a	-999	18	[-999, -999, -999]	n/a	FR1	0	R1077T
1899.044	1.085	2315761	DISTRACT_END	n/a	n/a	n/a	-999	18	[0, 0, 0]	n/a	FR1	0	R1077T
1900.129	2.565	2316846	REC_START	n/a	n/a	n/a	-999	18	[0, 0, 0]	n/a	FR1	0	R1077T
1902.694	1.136	2319410	REC_WORD	1.136	n/a	SEED	-999	18	[0, 0, 0]	n/a	FR1	0	R1077T
1903.83	3.54	2320546	REC_WORD	3.54	n/a	RICE	-999	18	[0, 0, 0]	n/a	FR1	0	R1077T
1907.37	4.725	2324086	REC_WORD	4.725	n/a	FRUIT	-999	18	[0, 0, 0]	n/a	FR1	0	R1077T
1912.095	18.046	2328811	REC_WORD	18.046	n/a	FLOWER	-999	18	[0, 0, 0]	n/a	FR1	0	R1077T
1930.141	1.943	2346856	REC_END	n/a	n/a	n/a	-999	18	[0, 0, 0]	n/a	FR1	0	R1077T
1932.084	0.0	2348799	TRIAL	n/a	n/a	n/a	-999	19	[0, 0, 0]	n/a	FR1	0	R1077T
1932.084	10.428	2348799	COUNTDOWN_START	n/a	n/a	n/a	-999	19	[0, 0, 0]	n/a	FR1	0	R1077T
1942.512	0.007	2359226	COUNTDOWN_END	n/a	n/a	n/a	-999	19	[0, 0, 0]	n/a	FR1	0	R1077T
1942.519	2.385	2359233	ORIENT	n/a	n/a	n/a	-999	19	[0, 0, 0]	n/a	FR1	0	R1077T
1944.904	2.633	2361618	WORD	n/a	wordpools/wordpool_EN.txt	LAND	1	19	[0, 0, 0]	n/a	FR1	0	R1077T
1947.537	2.384	2364251	WORD	n/a	wordpools/wordpool_EN.txt	CLAY	2	19	[0, 0, 0]	n/a	FR1	0	R1077T
1949.921	2.483	2366635	WORD	n/a	wordpools/wordpool_EN.txt	RAIN	3	19	[0, 0, 0]	n/a	FR1	0	R1077T
1952.404	2.502	2369118	WORD	n/a	wordpools/wordpool_EN.txt	CLOTH	4	19	[0, 0, 0]	n/a	FR1	0	R1077T
1954.906	2.466	2371620	WORD	n/a	wordpools/wordpool_EN.txt	CROWN	5	19	[0, 0, 0]	n/a	FR1	0	R1077T
1957.372	2.434	2374086	WORD	n/a	wordpools/wordpool_EN.txt	STRAW	6	19	[0, 0, 0]	n/a	FR1	0	R1077T
1959.806	2.6	2376520	WORD	n/a	wordpools/wordpool_EN.txt	GOLD	7	19	[0, 0, 0]	n/a	FR1	0	R1077T
1962.406	2.535	2379120	WORD	n/a	wordpools/wordpool_EN.txt	SLIME	8	19	[0, 0, 0]	n/a	FR1	0	R1077T
1964.941	2.466	2381654	WORD	n/a	wordpools/wordpool_EN.txt	SWORD	9	19	[0, 0, 0]	n/a	FR1	0	R1077T
1967.407	2.468	2384120	WORD	n/a	wordpools/wordpool_EN.txt	VINE	10	19	[0, 0, 0]	n/a	FR1	0	R1077T
1969.875	2.616	2386588	WORD	n/a	wordpools/wordpool_EN.txt	COIN	11	19	[0, 0, 0]	n/a	FR1	0	R1077T
1972.491	1.617	2389204	WORD	n/a	wordpools/wordpool_EN.txt	CORN	12	19	[0, 0, 0]	n/a	FR1	0	R1077T
1974.108	0.001	2390821	DISTRACT_START	n/a	n/a	n/a	-999	19	[0, 0, 0]	n/a	FR1	0	R1077T
1974.109	0.016	2390822	START	n/a	n/a	n/a	-999	19	[-999, -999, -999]	n/a	FR1	0	R1077T
1974.125	5.001	2390838	PROB	5.001	n/a	n/a	-999	19	[4, 4, 2]	10	FR1	0	R1077T
1979.126	5.885	2395839	PROB	5.885	n/a	n/a	-999	19	[7, 5, 2]	14	FR1	0	R1077T
1985.011	2.516	2401723	PROB	2.516	n/a	n/a	-999	19	[2, 3, 8]	12	FR1	0	R1077T
1987.527	2.984	2404239	PROB	2.984	n/a	n/a	-999	19	[5, 2, 8]	15	FR1	0	R1077T
1990.511	3.017	2407223	PROB	3.017	n/a	n/a	-999	19	[9, 9, 5]	14	FR1	0	R1077T
1993.528	3.085	2410240	PROB	3.085	n/a	n/a	-999	19	[5, 3, 5]	13	FR1	0	R1077T
1996.613	0.016	2413325	STOP	n/a	n/a	n/a	-999	19	[-999, -999, -999]	n/a	FR1	0	R1077T
1996.629	1.067	2413341	DISTRACT_END	n/a	n/a	n/a	-999	19	[0, 0, 0]	n/a	FR1	0	R1077T
1997.696	1.673	2414408	REC_START	n/a	n/a	n/a	-999	19	[0, 0, 0]	n/a	FR1	0	R1077T
1999.369	0.767	2416081	REC_WORD	0.767	n/a	CROWN	-999	19	[0, 0, 0]	n/a	FR1	0	R1077T
2000.136	0.601	2416848	REC_WORD	0.601	n/a	GOLD	-999	19	[0, 0, 0]	n/a	FR1	0	R1077T
2000.737	8.422	2417449	REC_WORD	8.422	n/a	SLIME	-999	19	[0, 0, 0]	n/a	FR1	0	R1077T
2009.159	6.247	2425870	REC_WORD	6.247	n/a	VINE	-999	19	[0, 0, 0]	n/a	FR1	0	R1077T
2015.406	12.302	2432117	REC_WORD	12.302	n/a	CLOTH	-999	19	[0, 0, 0]	n/a	FR1	0	R1077T
2027.708	2.311	2444418	REC_END	n/a	n/a	n/a	-999	19	[0, 0, 0]	n/a	FR1	0	R1077T
2030.019	0.001	2446729	COUNTDOWN_START	n/a	n/a	n/a	-999	20	[0, 0, 0]	n/a	FR1	0	R1077T
2030.02	10.427	2446730	TRIAL	n/a	n/a	n/a	-999	20	[0, 0, 0]	n/a	FR1	0	R1077T
2040.447	0.007	2457157	COUNTDOWN_END	n/a	n/a	n/a	-999	20	[0, 0, 0]	n/a	FR1	0	R1077T
2040.454	2.617	2457164	ORIENT	n/a	n/a	n/a	-999	20	[0, 0, 0]	n/a	FR1	0	R1077T
2043.071	2.5	2459781	WORD	n/a	wordpools/wordpool_EN.txt	SOUP	1	20	[0, 0, 0]	n/a	FR1	0	R1077T
2045.571	2.517	2462280	WORD	n/a	wordpools/wordpool_EN.txt	PIN	2	20	[0, 0, 0]	n/a	FR1	0	R1077T
2048.088	2.567	2464797	WORD	n/a	wordpools/wordpool_EN.txt	VEST	3	20	[0, 0, 0]	n/a	FR1	0	R1077T
2050.655	2.401	2467364	WORD	n/a	wordpools/wordpool_EN.txt	TOAST	4	20	[0, 0, 0]	n/a	FR1	0	R1077T
2053.056	2.384	2469765	WORD	n/a	wordpools/wordpool_EN.txt	THREAD	5	20	[0, 0, 0]	n/a	FR1	0	R1077T
2055.44	2.568	2472149	WORD	n/a	wordpools/wordpool_EN.txt	SOAP	6	20	[0, 0, 0]	n/a	FR1	0	R1077T
2058.008	2.499	2474717	WORD	n/a	wordpools/wordpool_EN.txt	CHALK	7	20	[0, 0, 0]	n/a	FR1	0	R1077T
2060.507	2.567	2477216	WORD	n/a	wordpools/wordpool_EN.txt	LAMP	8	20	[0, 0, 0]	n/a	FR1	0	R1077T
2063.074	2.567	2479783	WORD	n/a	wordpools/wordpool_EN.txt	TOOL	9	20	[0, 0, 0]	n/a	FR1	0	R1077T
2065.641	2.434	2482349	WORD	n/a	wordpools/wordpool_EN.txt	SPONGE	10	20	[0, 0, 0]	n/a	FR1	0	R1077T
2068.075	2.417	2484783	WORD	n/a	wordpools/wordpool_EN.txt	FUDGE	11	20	[0, 0, 0]	n/a	FR1	0	R1077T
2070.492	1.617	2487200	WORD	n/a	wordpools/wordpool_EN.txt	SHIRT	12	20	[0, 0, 0]	n/a	FR1	0	R1077T
2072.109	0.001	2488817	DISTRACT_START	n/a	n/a	n/a	-999	20	[0, 0, 0]	n/a	FR1	0	R1077T
2072.11	0.016	2488818	START	n/a	n/a	n/a	-999	20	[-999, -999, -999]	n/a	FR1	0	R1077T
2072.126	4.234	2488834	PROB	4.234	n/a	n/a	-999	20	[3, 2, 9]	14	FR1	0	R1077T
2076.36	3.051	2493068	PROB	3.051	n/a	n/a	-999	20	[8, 1, 9]	18	FR1	0	R1077T
2079.411	3.967	2496119	PROB	3.967	n/a	n/a	-999	20	[4, 4, 3]	11	FR1	0	R1077T
2083.378	2.817	2500086	PROB	2.817	n/a	n/a	-999	20	[1, 2, 6]	9	FR1	0	R1077T
2086.195	2.951	2502902	PROB	2.951	n/a	n/a	-999	20	[8, 7, 8]	23	FR1	0	R1077T
2089.146	5.555	2505853	PROB	5.555	n/a	n/a	-999	20	[1, 4, 7]	10	FR1	0	R1077T
2094.701	0.012	2511408	STOP	n/a	n/a	n/a	-999	20	[-999, -999, -999]	n/a	FR1	0	R1077T
2094.713	1.101	2511420	DISTRACT_END	n/a	n/a	n/a	-999	20	[0, 0, 0]	n/a	FR1	0	R1077T
2095.814	2.448	2512521	REC_START	n/a	n/a	n/a	-999	20	[0, 0, 0]	n/a	FR1	0	R1077T
2098.262	1.38	2514969	REC_WORD	1.38	n/a	SPONGE	-999	20	[0, 0, 0]	n/a	FR1	0	R1077T
2099.642	1.982	2516349	REC_WORD	1.982	n/a	SHIRT	-999	20	[0, 0, 0]	n/a	FR1	0	R1077T
2101.624	24.203	2518331	REC_WORD	24.203	n/a	SOAP	-999	20	[0, 0, 0]	n/a	FR1	0	R1077T
2125.827	2.576	2542533	REC_END	n/a	n/a	n/a	-999	20	[0, 0, 0]	n/a	FR1	0	R1077T
2128.403	0.0	2545108	TRIAL	n/a	n/a	n/a	-999	21	[0, 0, 0]	n/a	FR1	0	R1077T
2128.403	10.428	2545108	COUNTDOWN_START	n/a	n/a	n/a	-999	21	[0, 0, 0]	n/a	FR1	0	R1077T
2138.831	0.008	2555536	COUNTDOWN_END	n/a	n/a	n/a	-999	21	[0, 0, 0]	n/a	FR1	0	R1077T
2138.839	2.566	2555544	ORIENT	n/a	n/a	n/a	-999	21	[0, 0, 0]	n/a	FR1	0	R1077T
2141.405	2.502	2558110	WORD	n/a	wordpools/wordpool_EN.txt	SEA	1	21	[0, 0, 0]	n/a	FR1	0	R1077T
2143.907	2.466	2560612	WORD	n/a	wordpools/wordpool_EN.txt	HOSE	2	21	[0, 0, 0]	n/a	FR1	0	R1077T
2146.373	2.618	2563078	WORD	n/a	wordpools/wordpool_EN.txt	MOOSE	3	21	[0, 0, 0]	n/a	FR1	0	R1077T
2148.991	2.566	2565695	WORD	n/a	wordpools/wordpool_EN.txt	THUMB	4	21	[0, 0, 0]	n/a	FR1	0	R1077T
2151.557	2.567	2568261	WORD	n/a	wordpools/wordpool_EN.txt	FILM	5	21	[0, 0, 0]	n/a	FR1	0	R1077T
2154.124	2.501	2570828	WORD	n/a	wordpools/wordpool_EN.txt	ROAD	6	21	[0, 0, 0]	n/a	FR1	0	R1077T
2156.625	2.484	2573329	WORD	n/a	wordpools/wordpool_EN.txt	WHEEL	7	21	[0, 0, 0]	n/a	FR1	0	R1077T
2159.109	2.483	2575813	WORD	n/a	wordpools/wordpool_EN.txt	SEAL	8	21	[0, 0, 0]	n/a	FR1	0	R1077T
2161.592	2.45	2578296	WORD	n/a	wordpools/wordpool_EN.txt	TEETH	9	21	[0, 0, 0]	n/a	FR1	0	R1077T
2164.042	2.484	2580746	WORD	n/a	wordpools/wordpool_EN.txt	BEAR	10	21	[0, 0, 0]	n/a	FR1	0	R1077T
2166.526	2.469	2583230	WORD	n/a	wordpools/wordpool_EN.txt	CAKE	11	21	[0, 0, 0]	n/a	FR1	0	R1077T
2168.995	1.616	2585698	WORD	n/a	wordpools/wordpool_EN.txt	TOOTH	12	21	[0, 0, 0]	n/a	FR1	0	R1077T
2170.611	0.001	2587314	DISTRACT_START	n/a	n/a	n/a	-999	21	[0, 0, 0]	n/a	FR1	0	R1077T
2170.612	0.015	2587315	START	n/a	n/a	n/a	-999	21	[-999, -999, -999]	n/a	FR1	0	R1077T
2170.627	9.669	2587330	PROB	9.669	n/a	n/a	-999	21	[7, 4, 8]	19	FR1	0	R1077T
2180.296	2.383	2596999	PROB	2.383	n/a	n/a	-999	21	[5, 3, 4]	12	FR1	0	R1077T
2182.679	4.418	2599382	PROB	4.418	n/a	n/a	-999	21	[9, 7, 4]	19	FR1	0	R1077T
2187.097	7.164	2603800	PROB	7.164	n/a	n/a	-999	21	[1, 4, 7]	13	FR1	0	R1077T
2194.261	0.004	2610963	STOP	n/a	n/a	n/a	-999	21	[-999, -999, -999]	n/a	FR1	0	R1077T
2194.265	1.184	2610967	DISTRACT_END	n/a	n/a	n/a	-999	21	[0, 0, 0]	n/a	FR1	0	R1077T
2195.449	2.111	2612151	REC_START	n/a	n/a	n/a	-999	21	[0, 0, 0]	n/a	FR1	0	R1077T
2197.56	0.66	2614262	REC_WORD	0.66	n/a	TEETH	-999	21	[0, 0, 0]	n/a	FR1	0	R1077T
2198.22	0.674	2614922	REC_WORD	0.674	n/a	TOOTH	-999	21	[0, 0, 0]	n/a	FR1	0	R1077T
2198.894	0.715	2615596	REC_WORD	0.715	n/a	MOOSE	-999	21	[0, 0, 0]	n/a	FR1	0	R1077T
2199.609	3.4	2616311	REC_WORD	3.4	n/a	BEAR	-999	21	[0, 0, 0]	n/a	FR1	0	R1077T
2203.009	1.665	2619711	REC_WORD	1.665	n/a	SEA	-999	21	[0, 0, 0]	n/a	FR1	0	R1077T
2204.674	20.787	2621376	REC_WORD	20.787	n/a	HORSE	-999	21	[0, 0, 0]	n/a	FR1	0	R1077T
2225.461	1.61	2642162	REC_END	n/a	n/a	n/a	-999	21	[0, 0, 0]	n/a	FR1	0	R1077T
2227.071	0.0	2643772	COUNTDOWN_START	n/a	n/a	n/a	-999	22	[0, 0, 0]	n/a	FR1	0	R1077T
2227.071	10.428	2643772	TRIAL	n/a	n/a	n/a	-999	22	[0, 0, 0]	n/a	FR1	0	R1077T
2237.499	0.007	2654199	COUNTDOWN_END	n/a	n/a	n/a	-999	22	[0, 0, 0]	n/a	FR1	0	R1077T
2237.506	2.567	2654206	ORIENT	n/a	n/a	n/a	-999	22	[0, 0, 0]	n/a	FR1	0	R1077T
2240.073	2.517	2656773	WORD	n/a	wordpools/wordpool_EN.txt	SKUNK	1	22	[0, 0, 0]	n/a	FR1	0	R1077T
2242.59	2.385	2659290	WORD	n/a	wordpools/wordpool_EN.txt	FOX	2	22	[0, 0, 0]	n/a	FR1	0	R1077T
2244.975	2.4	2661675	WORD	n/a	wordpools/wordpool_EN.txt	ROOF	3	22	[0, 0, 0]	n/a	FR1	0	R1077T
2247.375	2.534	2664075	WORD	n/a	wordpools/wordpool_EN.txt	FOOD	4	22	[0, 0, 0]	n/a	FR1	0	R1077T
2249.909	2.433	2666608	WORD	n/a	wordpools/wordpool_EN.txt	HAWK	5	22	[0, 0, 0]	n/a	FR1	0	R1077T
2252.342	2.535	2669041	WORD	n/a	wordpools/wordpool_EN.txt	CLOUD	6	22	[0, 0, 0]	n/a	FR1	0	R1077T
2254.877	2.466	2671576	WORD	n/a	wordpools/wordpool_EN.txt	CRANE	7	22	[0, 0, 0]	n/a	FR1	0	R1077T
2257.343	2.467	2674042	WORD	n/a	wordpools/wordpool_EN.txt	WEED	8	22	[0, 0, 0]	n/a	FR1	0	R1077T
2259.81	2.484	2676509	WORD	n/a	wordpools/wordpool_EN.txt	NEST	9	22	[0, 0, 0]	n/a	FR1	0	R1077T
2262.294	2.367	2678993	WORD	n/a	wordpools/wordpool_EN.txt	ANT	10	22	[0, 0, 0]	n/a	FR1	0	R1077T
2264.661	2.501	2681360	WORD	n/a	wordpools/wordpool_EN.txt	SNOW	11	22	[0, 0, 0]	n/a	FR1	0	R1077T
2267.162	1.616	2683861	WORD	n/a	wordpools/wordpool_EN.txt	HEN	12	22	[0, 0, 0]	n/a	FR1	0	R1077T
2268.778	0.001	2685477	DISTRACT_START	n/a	n/a	n/a	-999	22	[0, 0, 0]	n/a	FR1	0	R1077T
2268.779	0.016	2685478	START	n/a	n/a	n/a	-999	22	[-999, -999, -999]	n/a	FR1	0	R1077T
2268.795	5.751	2685494	PROB	5.751	n/a	n/a	-999	22	[6, 3, 2]	11	FR1	0	R1077T
2274.546	3.517	2691244	PROB	3.517	n/a	n/a	-999	22	[2, 9, 9]	20	FR1	0	R1077T
2278.063	4.535	2694761	PROB	4.535	n/a	n/a	-999	22	[2, 3, 8]	13	FR1	0	R1077T
2282.598	2.368	2699296	PROB	2.368	n/a	n/a	-999	22	[6, 8, 1]	15	FR1	0	R1077T
2284.966	4.199	2701664	PROB	4.199	n/a	n/a	-999	22	[7, 2, 8]	17	FR1	0	R1077T
2289.165	0.017	2705863	STOP	n/a	n/a	n/a	-999	22	[-999, -999, -999]	n/a	FR1	0	R1077T
2289.182	1.068	2705880	DISTRACT_END	n/a	n/a	n/a	-999	22	[0, 0, 0]	n/a	FR1	0	R1077T
2290.25	1.959	2706947	REC_START	n/a	n/a	n/a	-999	22	[0, 0, 0]	n/a	FR1	0	R1077T
2292.209	0.65	2708906	REC_WORD	0.65	n/a	HEN	-999	22	[0, 0, 0]	n/a	FR1	0	R1077T
2292.859	26.258	2709556	REC_WORD	26.258	n/a	ANT	-999	22	[0, 0, 0]	n/a	FR1	0	R1077T
2319.117	1.145	2735813	REC_WORD	1.145	n/a	MOOSE	-999	22	[0, 0, 0]	n/a	FR1	0	R1077T
2320.262	2.143	2736958	REC_END	n/a	n/a	n/a	-999	22	[0, 0, 0]	n/a	FR1	0	R1077T
2322.405	0.0	2739101	TRIAL	n/a	n/a	n/a	-999	23	[0, 0, 0]	n/a	FR1	0	R1077T
2322.405	10.428	2739101	COUNTDOWN_START	n/a	n/a	n/a	-999	23	[0, 0, 0]	n/a	FR1	0	R1077T
2332.833	0.008	2749528	COUNTDOWN_END	n/a	n/a	n/a	-999	23	[0, 0, 0]	n/a	FR1	0	R1077T
2332.841	2.616	2749536	ORIENT	n/a	n/a	n/a	-999	23	[0, 0, 0]	n/a	FR1	0	R1077T
2335.457	2.617	2752152	WORD	n/a	wordpools/wordpool_EN.txt	FARM	1	23	[0, 0, 0]	n/a	FR1	0	R1077T
2338.074	2.451	2754769	WORD	n/a	wordpools/wordpool_EN.txt	NET	2	23	[0, 0, 0]	n/a	FR1	0	R1077T
2340.525	2.434	2757220	WORD	n/a	wordpools/wordpool_EN.txt	WAVE	3	23	[0, 0, 0]	n/a	FR1	0	R1077T
2342.959	2.533	2759654	WORD	n/a	wordpools/wordpool_EN.txt	CLOWN	4	23	[0, 0, 0]	n/a	FR1	0	R1077T
2345.492	2.551	2762187	WORD	n/a	wordpools/wordpool_EN.txt	MAP	5	23	[0, 0, 0]	n/a	FR1	0	R1077T
2348.043	2.6	2764738	WORD	n/a	wordpools/wordpool_EN.txt	POLE	6	23	[0, 0, 0]	n/a	FR1	0	R1077T
2350.643	2.484	2767337	WORD	n/a	wordpools/wordpool_EN.txt	STAR	7	23	[0, 0, 0]	n/a	FR1	0	R1077T
2353.127	2.484	2769821	WORD	n/a	wordpools/wordpool_EN.txt	SHRIMP	8	23	[0, 0, 0]	n/a	FR1	0	R1077T
2355.611	2.55	2772305	WORD	n/a	wordpools/wordpool_EN.txt	MOON	9	23	[0, 0, 0]	n/a	FR1	0	R1077T
2358.161	2.384	2774855	WORD	n/a	wordpools/wordpool_EN.txt	TRASH	10	23	[0, 0, 0]	n/a	FR1	0	R1077T
2360.545	2.567	2777239	WORD	n/a	wordpools/wordpool_EN.txt	WHALE	11	23	[0, 0, 0]	n/a	FR1	0	R1077T
2363.112	1.617	2779806	WORD	n/a	wordpools/wordpool_EN.txt	CASH	12	23	[0, 0, 0]	n/a	FR1	0	R1077T
2364.729	0.001	2781423	DISTRACT_START	n/a	n/a	n/a	-999	23	[0, 0, 0]	n/a	FR1	0	R1077T
2364.73	0.016	2781424	START	n/a	n/a	n/a	-999	23	[-999, -999, -999]	n/a	FR1	0	R1077T
2364.746	3.617	2781440	PROB	3.617	n/a	n/a	-999	23	[3, 2, 2]	7	FR1	0	R1077T
2368.363	2.067	2785057	PROB	2.067	n/a	n/a	-999	23	[5, 3, 5]	13	FR1	0	R1077T
2370.43	3.634	2787124	PROB	3.634	n/a	n/a	-999	23	[8, 5, 7]	18	FR1	0	R1077T
2374.064	3.084	2790757	PROB	3.084	n/a	n/a	-999	23	[7, 6, 9]	22	FR1	0	R1077T
2377.148	4.284	2793841	PROB	4.284	n/a	n/a	-999	23	[5, 7, 6]	21	FR1	0	R1077T
2381.432	3.168	2798125	PROB	3.168	n/a	n/a	-999	23	[6, 1, 8]	15	FR1	0	R1077T
2384.6	3.036	2801293	PROB	3.036	n/a	n/a	-999	23	[9, 9, 4]	23	FR1	0	R1077T
2387.636	0.014	2804329	STOP	n/a	n/a	n/a	-999	23	[-999, -999, -999]	n/a	FR1	0	R1077T
2387.65	1.185	2804343	DISTRACT_END	n/a	n/a	n/a	-999	23	[0, 0, 0]	n/a	FR1	0	R1077T
2388.835	3.97	2805528	REC_START	n/a	n/a	n/a	-999	23	[0, 0, 0]	n/a	FR1	0	R1077T
2392.805	1.301	2809497	REC_WORD	1.301	n/a	FARM	-999	23	[0, 0, 0]	n/a	FR1	0	R1077T
2394.106	1.625	2810798	REC_WORD	1.625	n/a	CLOWN	-999	23	[0, 0, 0]	n/a	FR1	0	R1077T
2395.731	2.188	2812423	REC_WORD	2.188	n/a	STICK	-999	23	[0, 0, 0]	n/a	FR1	0	R1077T
2397.919	3.738	2814611	REC_WORD	3.738	n/a	POLE	-999	23	[0, 0, 0]	n/a	FR1	0	R1077T
2401.657	0.978	2818349	REC_WORD	0.978	n/a	SHRIMP	-999	23	[0, 0, 0]	n/a	FR1	0	R1077T
2402.635	16.211	2819327	REC_WORD	16.211	n/a	WHALE	-999	23	[0, 0, 0]	n/a	FR1	0	R1077T
2418.846	2.344	2835537	REC_END	n/a	n/a	n/a	-999	23	[0, 0, 0]	n/a	FR1	0	R1077T
2421.19	0.0	2837881	COUNTDOWN_START	n/a	n/a	n/a	-999	24	[0, 0, 0]	n/a	FR1	0	R1077T
2421.19	10.428	2837881	TRIAL	n/a	n/a	n/a	-999	24	[0, 0, 0]	n/a	FR1	0	R1077T
2431.618	0.007	2848309	COUNTDOWN_END	n/a	n/a	n/a	-999	24	[0, 0, 0]	n/a	FR1	0	R1077T
2431.625	2.434	2848316	ORIENT	n/a	n/a	n/a	-999	24	[0, 0, 0]	n/a	FR1	0	R1077T
2434.059	2.583	2850749	WORD	n/a	wordpools/wordpool_EN.txt	MUD	1	24	[0, 0, 0]	n/a	FR1	0	R1077T
2436.642	2.534	2853332	WORD	n/a	wordpools/wordpool_EN.txt	LEG	2	24	[0, 0, 0]	n/a	FR1	0	R1077T
2439.176	2.617	2855866	WORD	n/a	wordpools/wordpool_EN.txt	WAND	3	24	[0, 0, 0]	n/a	FR1	0	R1077T
2441.793	2.601	2858483	WORD	n/a	wordpools/wordpool_EN.txt	BATH	4	24	[0, 0, 0]	n/a	FR1	0	R1077T
2444.394	2.468	2861084	WORD	n/a	wordpools/wordpool_EN.txt	GLOVE	5	24	[0, 0, 0]	n/a	FR1	0	R1077T
2446.862	2.599	2863552	WORD	n/a	wordpools/wordpool_EN.txt	FAN	6	24	[0, 0, 0]	n/a	FR1	0	R1077T
2449.461	2.402	2866151	WORD	n/a	wordpools/wordpool_EN.txt	SPOON	7	24	[0, 0, 0]	n/a	FR1	0	R1077T
2451.863	2.516	2868553	WORD	n/a	wordpools/wordpool_EN.txt	GOAT	8	24	[0, 0, 0]	n/a	FR1	0	R1077T
2454.379	2.417	2871068	WORD	n/a	wordpools/wordpool_EN.txt	SPEAR	9	24	[0, 0, 0]	n/a	FR1	0	R1077T
2456.796	2.484	2873485	WORD	n/a	wordpools/wordpool_EN.txt	HAT	10	24	[0, 0, 0]	n/a	FR1	0	R1077T
2459.28	2.601	2875969	WORD	n/a	wordpools/wordpool_EN.txt	AXE	11	24	[0, 0, 0]	n/a	FR1	0	R1077T
2461.881	1.616	2878570	WORD	n/a	wordpools/wordpool_EN.txt	BADGE	12	24	[0, 0, 0]	n/a	FR1	0	R1077T
2463.497	0.001	2880186	DISTRACT_START	n/a	n/a	n/a	-999	24	[0, 0, 0]	n/a	FR1	0	R1077T
2463.498	0.016	2880187	START	n/a	n/a	n/a	-999	24	[-999, -999, -999]	n/a	FR1	0	R1077T
2463.514	3.934	2880203	PROB	3.934	n/a	n/a	-999	24	[2, 5, 2]	9	FR1	0	R1077T
2467.448	1.6	2884137	PROB	1.6	n/a	n/a	-999	24	[1, 5, 5]	11	FR1	0	R1077T
2469.048	1.767	2885737	PROB	1.767	n/a	n/a	-999	24	[5, 5, 3]	13	FR1	0	R1077T
2470.815	4.069	2887504	PROB	4.069	n/a	n/a	-999	24	[7, 7, 5]	19	FR1	0	R1077T
2474.884	3.799	2891572	PROB	3.799	n/a	n/a	-999	24	[7, 4, 8]	16	FR1	0	R1077T
2478.683	3.252	2895371	PROB	3.252	n/a	n/a	-999	24	[6, 3, 9]	18	FR1	0	R1077T
2481.935	2.854	2898623	PROB	2.854	n/a	n/a	-999	24	[1, 6, 7]	14	FR1	0	R1077T
2484.789	0.012	2901477	STOP	n/a	n/a	n/a	-999	24	[-999, -999, -999]	n/a	FR1	0	R1077T
2484.801	1.035	2901489	DISTRACT_END	n/a	n/a	n/a	-999	24	[0, 0, 0]	n/a	FR1	0	R1077T
2485.836	2.104	2902524	REC_START	n/a	n/a	n/a	-999	24	[0, 0, 0]	n/a	FR1	0	R1077T
2487.94	1.594	2904628	REC_WORD	1.594	n/a	DEER	-999	24	[0, 0, 0]	n/a	FR1	0	R1077T
2489.534	3.135	2906222	REC_WORD	3.135	n/a	SPEAR	-999	24	[0, 0, 0]	n/a	FR1	0	R1077T
2492.669	1.263	2909357	REC_WORD	1.263	n/a	AXE	-999	24	[0, 0, 0]	n/a	FR1	0	R1077T
2493.932	1.582	2910619	REC_WORD	1.582	n/a	MUD	-999	24	[0, 0, 0]	n/a	FR1	0	R1077T
2495.514	2.161	2912201	REC_WORD	2.161	n/a	LEG	-999	24	[0, 0, 0]	n/a	FR1	0	R1077T
2497.675	1.706	2914362	REC_WORD	1.706	n/a	BATH	-999	24	[0, 0, 0]	n/a	FR1	0	R1077T
2499.381	16.472	2916068	REC_WORD	16.472	n/a	GLOVE	-999	24	[0, 0, 0]	n/a	FR1	0	R1077T
2515.853	2.588	2932539	REC_END	n/a	n/a	n/a	-999	24	[0, 0, 0]	n/a	FR1	0	R1077T
2518.441	0.0	2935127	TRIAL	n/a	n/a	n/a	-999	25	[0, 0, 0]	n/a	FR1	0	R1077T
2518.441	10.428	2935127	COUNTDOWN_START	n/a	n/a	n/a	-999	25	[0, 0, 0]	n/a	FR1	0	R1077T
2528.869	0.008	2945555	COUNTDOWN_END	n/a	n/a	n/a	-999	25	[0, 0, 0]	n/a	FR1	0	R1077T
2528.877	2.533	2945563	ORIENT	n/a	n/a	n/a	-999	25	[0, 0, 0]	n/a	FR1	0	R1077T
2531.41	2.434	2948096	WORD	n/a	wordpools/wordpool_EN.txt	GATE	1	25	[0, 0, 0]	n/a	FR1	0	R1077T
2533.844	2.467	2950530	WORD	n/a	wordpools/wordpool_EN.txt	DRESS	2	25	[0, 0, 0]	n/a	FR1	0	R1077T
2536.311	2.5	2952996	WORD	n/a	wordpools/wordpool_EN.txt	SEAT	3	25	[0, 0, 0]	n/a	FR1	0	R1077T
2538.811	2.484	2955496	WORD	n/a	wordpools/wordpool_EN.txt	FACE	4	25	[0, 0, 0]	n/a	FR1	0	R1077T
2541.295	2.585	2957980	WORD	n/a	wordpools/wordpool_EN.txt	ROSE	5	25	[0, 0, 0]	n/a	FR1	0	R1077T
2543.88	2.416	2960565	WORD	n/a	wordpools/wordpool_EN.txt	MUG	6	25	[0, 0, 0]	n/a	FR1	0	R1077T
2546.296	2.534	2962981	WORD	n/a	wordpools/wordpool_EN.txt	SMILE	7	25	[0, 0, 0]	n/a	FR1	0	R1077T
2548.83	2.583	2965515	WORD	n/a	wordpools/wordpool_EN.txt	TIE	8	25	[0, 0, 0]	n/a	FR1	0	R1077T
2551.413	2.535	2968098	WORD	n/a	wordpools/wordpool_EN.txt	JAIL	9	25	[0, 0, 0]	n/a	FR1	0	R1077T
2553.948	2.433	2970633	WORD	n/a	wordpools/wordpool_EN.txt	SINK	10	25	[0, 0, 0]	n/a	FR1	0	R1077T
2556.381	2.501	2973065	WORD	n/a	wordpools/wordpool_EN.txt	CHEEK	11	25	[0, 0, 0]	n/a	FR1	0	R1077T
2558.882	1.616	2975566	WORD	n/a	wordpools/wordpool_EN.txt	WORLD	12	25	[0, 0, 0]	n/a	FR1	0	R1077T
2560.498	0.001	2977182	DISTRACT_START	n/a	n/a	n/a	-999	25	[0, 0, 0]	n/a	FR1	0	R1077T
2560.499	0.016	2977183	START	n/a	n/a	n/a	-999	25	[-999, -999, -999]	n/a	FR1	0	R1077T
2560.515	2.967	2977199	PROB	2.967	n/a	n/a	-999	25	[5, 1, 5]	11	FR1	0	R1077T
2563.482	2.917	2980166	PROB	2.917	n/a	n/a	-999	25	[5, 1, 9]	15	FR1	0	R1077T
2566.399	7.252	2983083	PROB	7.252	n/a	n/a	-999	25	[9, 7, 4]	20	FR1	0	R1077T
2573.651	6.534	2990335	PROB	6.534	n/a	n/a	-999	25	[8, 2, 1]	12	FR1	0	R1077T
2580.185	2.251	2996868	PROB	2.251	n/a	n/a	-999	25	[1, 3, 1]	5	FR1	0	R1077T
2582.436	0.016	2999119	STOP	n/a	n/a	n/a	-999	25	[-999, -999, -999]	n/a	FR1	0	R1077T
2582.452	1.184	2999135	DISTRACT_END	n/a	n/a	n/a	-999	25	[0, 0, 0]	n/a	FR1	0	R1077T
2583.636	1.446	3000319	REC_START	n/a	n/a	n/a	-999	25	[0, 0, 0]	n/a	FR1	0	R1077T
2585.082	1.059	3001765	REC_WORD	1.059	n/a	MUG	-999	25	[0, 0, 0]	n/a	FR1	0	R1077T
2586.141	1.619	3002824	REC_WORD	1.619	n/a	CHEEK	-999	25	[0, 0, 0]	n/a	FR1	0	R1077T
2587.76	1.613	3004443	REC_WORD	1.613	n/a	SMILE	-999	25	[0, 0, 0]	n/a	FR1	0	R1077T
2589.373	24.279	3006056	REC_WORD	24.279	n/a	FACE	-999	25	[0, 0, 0]	n/a	FR1	0	R1077T
2613.652	41.73	3030334	REC_END	n/a	n/a	n/a	-999	25	[0, 0, 0]	n/a	FR1	0	R1077T
2655.382	0.0	3072062	SESS_END	n/a	n/a	n/a	-999	25	[0, 0, 0]	n/a	FR1	0	R1077T
