onset	duration	sample	trial_type	response_time	stim_file	item_name	serialpos	list	test	answer	experiment	session	subject
0.0	6.549	82902	INSTRUCT_START	n/a	n/a	n/a	-999	-999	[0, 0, 0]	n/a	FR1	1	R1427T
6.549	37.916	89448	INSTRUCT_END	n/a	n/a	n/a	-999	-999	[0, 0, 0]	n/a	FR1	1	R1427T
44.465	10.384	127365	COUNTDOWN_START	n/a	n/a	n/a	-999	-999	[0, 0, 0]	n/a	FR1	1	R1427T
54.849	0.001	137746	COUNTDOWN_END	n/a	n/a	n/a	-999	-999	[0, 0, 0]	n/a	FR1	1	R1427T
54.85	2.098	137746	ENCODING_START	n/a	n/a	n/a	-999	-1	[0, 0, 0]	n/a	FR1	1	R1427T
56.948	1.601	139845	WORD	n/a	n/a	BOX	1	-1	[0, 0, 0]	n/a	FR1	1	R1427T
58.549	0.85	141448	WORD_OFF	n/a	n/a	BOX	1	-1	[0, 0, 0]	n/a	FR1	1	R1427T
59.399	1.6	142298	WORD	n/a	n/a	LOCK	2	-1	[0, 0, 0]	n/a	FR1	1	R1427T
60.999	0.883	143901	WORD_OFF	n/a	n/a	LOCK	2	-1	[0, 0, 0]	n/a	FR1	1	R1427T
61.882	1.616	144778	WORD	n/a	n/a	OAR	3	-1	[0, 0, 0]	n/a	FR1	1	R1427T
63.498	0.95	146399	WORD_OFF	n/a	n/a	OAR	3	-1	[0, 0, 0]	n/a	FR1	1	R1427T
64.448	1.6	147347	WORD	n/a	n/a	MASK	4	-1	[0, 0, 0]	n/a	FR1	1	R1427T
66.048	0.8	148950	WORD_OFF	n/a	n/a	MASK	4	-1	[0, 0, 0]	n/a	FR1	1	R1427T
66.848	1.6	149747	WORD	n/a	n/a	COIN	5	-1	[0, 0, 0]	n/a	FR1	1	R1427T
68.448	0.817	151350	WORD_OFF	n/a	n/a	COIN	5	-1	[0, 0, 0]	n/a	FR1	1	R1427T
69.265	1.616	152165	WORD	n/a	n/a	HOUND	6	-1	[0, 0, 0]	n/a	FR1	1	R1427T
70.881	0.767	153777	WORD_OFF	n/a	n/a	HOUND	6	-1	[0, 0, 0]	n/a	FR1	1	R1427T
71.648	1.617	154548	WORD	n/a	n/a	SLIME	7	-1	[0, 0, 0]	n/a	FR1	1	R1427T
73.265	0.966	156160	WORD_OFF	n/a	n/a	SLIME	7	-1	[0, 0, 0]	n/a	FR1	1	R1427T
74.231	1.6	157134	WORD	n/a	n/a	VAULT	8	-1	[0, 0, 0]	n/a	FR1	1	R1427T
75.831	0.767	158728	WORD_OFF	n/a	n/a	VAULT	8	-1	[0, 0, 0]	n/a	FR1	1	R1427T
76.598	1.617	159499	WORD	n/a	n/a	GIRL	9	-1	[0, 0, 0]	n/a	FR1	1	R1427T
78.215	0.833	161111	WORD_OFF	n/a	n/a	GIRL	9	-1	[0, 0, 0]	n/a	FR1	1	R1427T
79.048	1.6	161943	WORD	n/a	n/a	POND	10	-1	[0, 0, 0]	n/a	FR1	1	R1427T
80.648	0.85	163547	WORD_OFF	n/a	n/a	POND	10	-1	[0, 0, 0]	n/a	FR1	1	R1427T
81.498	1.617	164397	WORD	n/a	n/a	BRICK	11	-1	[0, 0, 0]	n/a	FR1	1	R1427T
83.115	0.799	166009	WORD_OFF	n/a	n/a	BRICK	11	-1	[0, 0, 0]	n/a	FR1	1	R1427T
83.914	1.601	166815	WORD	n/a	n/a	BAT	12	-1	[0, 0, 0]	n/a	FR1	1	R1427T
85.515	0.001	168409	WORD_OFF	n/a	n/a	BAT	12	-1	[0, 0, 0]	n/a	FR1	1	R1427T
85.516	0.0	168414	START	n/a	n/a	n/a	-999	-1	[-999, -999, -999]	n/a	FR1	1	R1427T
85.516	0.0	168414	PROB	0.0	n/a	n/a	-999	-1	[6, 1, 6]	13	FR1	1	R1427T
85.516	0.0	168418	ENCODING_END	n/a	n/a	n/a	-999	-1	[0, 0, 0]	n/a	FR1	1	R1427T
85.516	4.501	168418	DISTRACT_START	n/a	n/a	n/a	-999	-1	[0, 0, 0]	n/a	FR1	1	R1427T
90.017	5.083	172914	PROB	5.083	n/a	n/a	-999	-1	[6, 4, 5]	15	FR1	1	R1427T
95.1	3.351	177997	PROB	3.351	n/a	n/a	-999	-1	[1, 4, 6]	11	FR1	1	R1427T
98.451	3.565	181348	PROB	3.565	n/a	n/a	-999	-1	[7, 1, 8]	16	FR1	1	R1427T
102.016	3.484	184913	PROB	3.484	n/a	n/a	-999	-1	[1, 1, 7]	9	FR1	1	R1427T
105.5	2.699	188397	PROB	2.699	n/a	n/a	-999	-1	[7, 1, 1]	9	FR1	1	R1427T
108.199	0.0	191092	DISTRACT_END	n/a	n/a	n/a	-999	-1	[0, 0, 0]	n/a	FR1	1	R1427T
108.199	2.066	191096	STOP	n/a	n/a	n/a	-999	-1	[-999, -999, -999]	n/a	FR1	1	R1427T
110.265	0.497	193164	REC_START	n/a	n/a	n/a	-999	-1	[0, 0, 0]	n/a	FR1	1	R1427T
110.762	0.819	193658	REC_WORD	0.819	n/a	GIRL	9	-1	[0, 0, 0]	n/a	FR1	1	R1427T
111.581	1.396	194477	REC_WORD	1.396	n/a	BAT	12	-1	[0, 0, 0]	n/a	FR1	1	R1427T
112.977	1.57	195873	REC_WORD	1.57	n/a	LOCK	2	-1	[0, 0, 0]	n/a	FR1	1	R1427T
114.547	2.845	197443	REC_WORD	2.845	n/a	POND	10	-1	[0, 0, 0]	n/a	FR1	1	R1427T
117.392	2.726	200288	REC_WORD	2.726	n/a	COIN	5	-1	[0, 0, 0]	n/a	FR1	1	R1427T
120.118	20.38	203014	REC_WORD	20.38	n/a	BRICK	11	-1	[0, 0, 0]	n/a	FR1	1	R1427T
140.498	15.368	223394	REC_END	n/a	n/a	n/a	-999	-1	[0, 0, 0]	n/a	FR1	1	R1427T
155.866	10.349	238761	COUNTDOWN_START	n/a	n/a	n/a	-999	1	[0, 0, 0]	n/a	FR1	1	R1427T
166.215	0.0	249107	COUNTDOWN_END	n/a	n/a	n/a	-999	1	[0, 0, 0]	n/a	FR1	1	R1427T
166.215	1.917	249107	ENCODING_START	n/a	n/a	n/a	-999	1	[0, 0, 0]	n/a	FR1	1	R1427T
168.132	1.6	251029	WORD	n/a	wordpools/wordpool_long_EN.txt	CUBE	1	1	[0, 0, 0]	n/a	FR1	1	R1427T
169.732	0.867	252623	WORD_OFF	n/a	n/a	CUBE	1	1	[0, 0, 0]	n/a	FR1	1	R1427T
170.599	1.616	253491	WORD	n/a	wordpools/wordpool_long_EN.txt	TOAST	2	1	[0, 0, 0]	n/a	FR1	1	R1427T
172.215	0.984	255112	WORD_OFF	n/a	n/a	TOAST	2	1	[0, 0, 0]	n/a	FR1	1	R1427T
173.199	1.616	256095	WORD	n/a	wordpools/wordpool_long_EN.txt	TRASH	3	1	[0, 0, 0]	n/a	FR1	1	R1427T
174.815	0.884	257707	WORD_OFF	n/a	n/a	TRASH	3	1	[0, 0, 0]	n/a	FR1	1	R1427T
175.699	1.601	258593	WORD	n/a	wordpools/wordpool_long_EN.txt	ROCK	4	1	[0, 0, 0]	n/a	FR1	1	R1427T
177.3	0.931	260196	WORD_OFF	n/a	n/a	ROCK	4	1	[0, 0, 0]	n/a	FR1	1	R1427T
178.231	1.618	261126	WORD	n/a	wordpools/wordpool_long_EN.txt	CONE	5	1	[0, 0, 0]	n/a	FR1	1	R1427T
179.849	0.815	262738	WORD_OFF	n/a	n/a	CONE	5	1	[0, 0, 0]	n/a	FR1	1	R1427T
180.664	1.601	263561	WORD	n/a	wordpools/wordpool_long_EN.txt	BLOOM	6	1	[0, 0, 0]	n/a	FR1	1	R1427T
182.265	0.784	265156	WORD_OFF	n/a	n/a	BLOOM	6	1	[0, 0, 0]	n/a	FR1	1	R1427T
183.049	1.616	265944	WORD	n/a	wordpools/wordpool_long_EN.txt	BOMB	7	1	[0, 0, 0]	n/a	FR1	1	R1427T
184.665	0.983	267556	WORD_OFF	n/a	n/a	BOMB	7	1	[0, 0, 0]	n/a	FR1	1	R1427T
185.648	1.601	268539	WORD	n/a	wordpools/wordpool_long_EN.txt	PORK	8	1	[0, 0, 0]	n/a	FR1	1	R1427T
187.249	0.949	270142	WORD_OFF	n/a	n/a	PORK	8	1	[0, 0, 0]	n/a	FR1	1	R1427T
188.198	1.617	271090	WORD	n/a	wordpools/wordpool_long_EN.txt	STORM	9	1	[0, 0, 0]	n/a	FR1	1	R1427T
189.815	0.95	272711	WORD_OFF	n/a	n/a	STORM	9	1	[0, 0, 0]	n/a	FR1	1	R1427T
190.765	1.6	273659	WORD	n/a	wordpools/wordpool_long_EN.txt	BAG	10	1	[0, 0, 0]	n/a	FR1	1	R1427T
192.365	0.867	275262	WORD_OFF	n/a	n/a	BAG	10	1	[0, 0, 0]	n/a	FR1	1	R1427T
193.232	1.617	276121	WORD	n/a	wordpools/wordpool_long_EN.txt	LAMP	11	1	[0, 0, 0]	n/a	FR1	1	R1427T
194.849	0.783	277742	WORD_OFF	n/a	n/a	LAMP	11	1	[0, 0, 0]	n/a	FR1	1	R1427T
195.632	1.617	278521	WORD	n/a	wordpools/wordpool_long_EN.txt	TENT	12	1	[0, 0, 0]	n/a	FR1	1	R1427T
197.249	0.0	280141	START	n/a	n/a	n/a	-999	1	[-999, -999, -999]	n/a	FR1	1	R1427T
197.249	0.0	280141	PROB	0.0	n/a	n/a	-999	1	[8, 4, 5]	17	FR1	1	R1427T
197.248	0.001	280142	WORD_OFF	n/a	n/a	TENT	12	1	[0, 0, 0]	n/a	FR1	1	R1427T
197.249	0.0	280142	ENCODING_END	n/a	n/a	n/a	-999	1	[0, 0, 0]	n/a	FR1	1	R1427T
197.249	9.433	280142	DISTRACT_START	n/a	n/a	n/a	-999	1	[0, 0, 0]	n/a	FR1	1	R1427T
206.682	9.7	289573	PROB	9.7	n/a	n/a	-999	1	[4, 5, 4]	13	FR1	1	R1427T
216.382	6.467	299273	PROB	6.467	n/a	n/a	-999	1	[8, 3, 6]	17	FR1	1	R1427T
222.849	0.0	305739	DISTRACT_END	n/a	n/a	n/a	-999	1	[0, 0, 0]	n/a	FR1	1	R1427T
222.849	2.133	305740	STOP	n/a	n/a	n/a	-999	1	[-999, -999, -999]	n/a	FR1	1	R1427T
224.982	0.869	307873	REC_START	n/a	n/a	n/a	-999	1	[0, 0, 0]	n/a	FR1	1	R1427T
225.851	4.347	308742	REC_WORD	4.347	n/a	BOMB	7	1	[0, 0, 0]	n/a	FR1	1	R1427T
230.198	1.388	313088	REC_WORD	1.388	n/a	CUBE	1	1	[0, 0, 0]	n/a	FR1	1	R1427T
231.586	1.826	314476	REC_WORD	1.826	n/a	TOAST	2	1	[0, 0, 0]	n/a	FR1	1	R1427T
233.412	6.412	316302	REC_WORD	6.412	n/a	TRASH	3	1	[0, 0, 0]	n/a	FR1	1	R1427T
239.824	15.444	322714	REC_WORD	15.444	n/a	STORM	9	1	[0, 0, 0]	n/a	FR1	1	R1427T
255.268	5.081	338156	REC_END	n/a	n/a	n/a	-999	1	[0, 0, 0]	n/a	FR1	1	R1427T
260.349	10.35	343240	COUNTDOWN_START	n/a	n/a	n/a	-999	2	[0, 0, 0]	n/a	FR1	1	R1427T
270.699	0.0	353585	COUNTDOWN_END	n/a	n/a	n/a	-999	2	[0, 0, 0]	n/a	FR1	1	R1427T
270.699	2.032	353594	ENCODING_START	n/a	n/a	n/a	-999	2	[0, 0, 0]	n/a	FR1	1	R1427T
272.731	1.6	355622	WORD	n/a	wordpools/wordpool_long_EN.txt	QUEEN	1	2	[0, 0, 0]	n/a	FR1	1	R1427T
274.331	1.001	357217	WORD_OFF	n/a	n/a	QUEEN	1	2	[0, 0, 0]	n/a	FR1	1	R1427T
275.332	1.616	358218	WORD	n/a	wordpools/wordpool_long_EN.txt	TRAY	2	2	[0, 0, 0]	n/a	FR1	1	R1427T
276.948	0.783	359838	WORD_OFF	n/a	n/a	TRAY	2	2	[0, 0, 0]	n/a	FR1	1	R1427T
277.731	1.601	360618	WORD	n/a	wordpools/wordpool_long_EN.txt	STORE	3	2	[0, 0, 0]	n/a	FR1	1	R1427T
279.332	0.816	362221	WORD_OFF	n/a	n/a	STORE	3	2	[0, 0, 0]	n/a	FR1	1	R1427T
280.148	1.617	363036	WORD	n/a	wordpools/wordpool_long_EN.txt	PET	4	2	[0, 0, 0]	n/a	FR1	1	R1427T
281.765	0.85	364657	WORD_OFF	n/a	n/a	PET	4	2	[0, 0, 0]	n/a	FR1	1	R1427T
282.615	1.617	365507	WORD	n/a	wordpools/wordpool_long_EN.txt	HORN	5	2	[0, 0, 0]	n/a	FR1	1	R1427T
284.232	0.833	367119	WORD_OFF	n/a	n/a	HORN	5	2	[0, 0, 0]	n/a	FR1	1	R1427T
285.065	1.6	367952	WORD	n/a	wordpools/wordpool_long_EN.txt	WRIST	6	2	[0, 0, 0]	n/a	FR1	1	R1427T
286.665	0.867	369555	WORD_OFF	n/a	n/a	WRIST	6	2	[0, 0, 0]	n/a	FR1	1	R1427T
287.532	1.6	370423	WORD	n/a	wordpools/wordpool_long_EN.txt	CANE	7	2	[0, 0, 0]	n/a	FR1	1	R1427T
289.132	0.783	372017	WORD_OFF	n/a	n/a	CANE	7	2	[0, 0, 0]	n/a	FR1	1	R1427T
289.915	1.6	372805	WORD	n/a	wordpools/wordpool_long_EN.txt	LAND	8	2	[0, 0, 0]	n/a	FR1	1	R1427T
291.515	0.85	374400	WORD_OFF	n/a	n/a	LAND	8	2	[0, 0, 0]	n/a	FR1	1	R1427T
292.365	1.6	375250	WORD	n/a	wordpools/wordpool_long_EN.txt	FUR	9	2	[0, 0, 0]	n/a	FR1	1	R1427T
293.965	0.983	376853	WORD_OFF	n/a	n/a	FUR	9	2	[0, 0, 0]	n/a	FR1	1	R1427T
294.948	1.601	377836	WORD	n/a	wordpools/wordpool_long_EN.txt	INN	10	2	[0, 0, 0]	n/a	FR1	1	R1427T
296.549	0.983	379439	WORD_OFF	n/a	n/a	INN	10	2	[0, 0, 0]	n/a	FR1	1	R1427T
297.532	1.6	380422	WORD	n/a	wordpools/wordpool_long_EN.txt	CHALK	11	2	[0, 0, 0]	n/a	FR1	1	R1427T
299.132	0.934	382017	WORD_OFF	n/a	n/a	CHALK	11	2	[0, 0, 0]	n/a	FR1	1	R1427T
300.066	1.615	382956	WORD	n/a	wordpools/wordpool_long_EN.txt	SCOTCH	12	2	[0, 0, 0]	n/a	FR1	1	R1427T
301.681	0.002	384568	WORD_OFF	n/a	n/a	SCOTCH	12	2	[0, 0, 0]	n/a	FR1	1	R1427T
301.683	0.0	384568	ENCODING_END	n/a	n/a	n/a	-999	2	[0, 0, 0]	n/a	FR1	1	R1427T
301.683	0.0	384568	DISTRACT_START	n/a	n/a	n/a	-999	2	[0, 0, 0]	n/a	FR1	1	R1427T
301.682	0.001	384569	PROB	0.001	n/a	n/a	-999	2	[2, 4, 4]	10	FR1	1	R1427T
301.683	3.5	384570	START	n/a	n/a	n/a	-999	2	[-999, -999, -999]	n/a	FR1	1	R1427T
305.183	3.816	388069	PROB	3.816	n/a	n/a	-999	2	[3, 1, 7]	11	FR1	1	R1427T
308.999	3.95	391885	PROB	3.95	n/a	n/a	-999	2	[7, 3, 3]	13	FR1	1	R1427T
312.949	3.101	395835	PROB	3.101	n/a	n/a	-999	2	[2, 4, 6]	12	FR1	1	R1427T
316.05	3.482	398936	PROB	3.482	n/a	n/a	-999	2	[8, 2, 8]	18	FR1	1	R1427T
319.532	3.5	402418	PROB	3.5	n/a	n/a	-999	2	[8, 8, 3]	19	FR1	1	R1427T
323.032	0.0	405913	DISTRACT_END	n/a	n/a	n/a	-999	2	[0, 0, 0]	n/a	FR1	1	R1427T
323.032	2.183	405918	STOP	n/a	n/a	n/a	-999	2	[-999, -999, -999]	n/a	FR1	1	R1427T
325.215	0.0	408100	REC_START	n/a	n/a	n/a	-999	2	[0, 0, 0]	n/a	FR1	1	R1427T
325.215	16.507	408100	REC_WORD_VV	16.507	n/a	<>	-999	2	[0, 0, 0]	n/a	FR1	1	R1427T
341.722	10.034	424607	REC_WORD	10.034	n/a	LAMP	-999	2	[0, 0, 0]	n/a	FR1	1	R1427T
351.756	0.901	434640	REC_WORD	0.901	n/a	HORN	5	2	[0, 0, 0]	n/a	FR1	1	R1427T
352.657	2.855	435541	REC_WORD	2.855	n/a	WRIST	6	2	[0, 0, 0]	n/a	FR1	1	R1427T
355.512	5.302	438392	REC_END	n/a	n/a	n/a	-999	2	[0, 0, 0]	n/a	FR1	1	R1427T
360.814	10.352	443698	COUNTDOWN_START	n/a	n/a	n/a	-999	3	[0, 0, 0]	n/a	FR1	1	R1427T
371.166	0.0	454052	COUNTDOWN_END	n/a	n/a	n/a	-999	3	[0, 0, 0]	n/a	FR1	1	R1427T
371.166	2.167	454052	ENCODING_START	n/a	n/a	n/a	-999	3	[0, 0, 0]	n/a	FR1	1	R1427T
373.333	1.599	456213	WORD	n/a	wordpools/wordpool_long_EN.txt	FRIEND	1	3	[0, 0, 0]	n/a	FR1	1	R1427T
374.932	0.983	457816	WORD_OFF	n/a	n/a	FRIEND	1	3	[0, 0, 0]	n/a	FR1	1	R1427T
375.915	1.6	458799	WORD	n/a	wordpools/wordpool_long_EN.txt	VASE	2	3	[0, 0, 0]	n/a	FR1	1	R1427T
377.515	0.834	460402	WORD_OFF	n/a	n/a	VASE	2	3	[0, 0, 0]	n/a	FR1	1	R1427T
378.349	1.615	461235	WORD	n/a	wordpools/wordpool_long_EN.txt	ARK	3	3	[0, 0, 0]	n/a	FR1	1	R1427T
379.964	0.868	462847	WORD_OFF	n/a	n/a	ARK	3	3	[0, 0, 0]	n/a	FR1	1	R1427T
380.832	1.6	463715	WORD	n/a	wordpools/wordpool_long_EN.txt	PARK	4	3	[0, 0, 0]	n/a	FR1	1	R1427T
382.432	0.917	465318	WORD_OFF	n/a	n/a	PARK	4	3	[0, 0, 0]	n/a	FR1	1	R1427T
383.349	1.616	466230	WORD	n/a	wordpools/wordpool_long_EN.txt	CLIFF	5	3	[0, 0, 0]	n/a	FR1	1	R1427T
384.965	0.884	467851	WORD_OFF	n/a	n/a	CLIFF	5	3	[0, 0, 0]	n/a	FR1	1	R1427T
385.849	1.616	468728	WORD	n/a	wordpools/wordpool_long_EN.txt	BUSH	6	3	[0, 0, 0]	n/a	FR1	1	R1427T
387.465	0.8	470349	WORD_OFF	n/a	n/a	BUSH	6	3	[0, 0, 0]	n/a	FR1	1	R1427T
388.265	1.6	471146	WORD	n/a	wordpools/wordpool_long_EN.txt	HOLE	7	3	[0, 0, 0]	n/a	FR1	1	R1427T
389.865	0.8	472749	WORD_OFF	n/a	n/a	HOLE	7	3	[0, 0, 0]	n/a	FR1	1	R1427T
390.665	1.616	473546	WORD	n/a	wordpools/wordpool_long_EN.txt	SEAL	8	3	[0, 0, 0]	n/a	FR1	1	R1427T
392.281	0.918	475167	WORD_OFF	n/a	n/a	SEAL	8	3	[0, 0, 0]	n/a	FR1	1	R1427T
393.199	1.6	476080	WORD	n/a	wordpools/wordpool_long_EN.txt	GOAL	9	3	[0, 0, 0]	n/a	FR1	1	R1427T
394.799	0.982	477683	WORD_OFF	n/a	n/a	GOAL	9	3	[0, 0, 0]	n/a	FR1	1	R1427T
395.781	1.601	478666	WORD	n/a	wordpools/wordpool_long_EN.txt	GOLD	10	3	[0, 0, 0]	n/a	FR1	1	R1427T
397.382	0.951	480260	WORD_OFF	n/a	n/a	GOLD	10	3	[0, 0, 0]	n/a	FR1	1	R1427T
398.333	1.615	481217	WORD	n/a	wordpools/wordpool_long_EN.txt	CHIEF	11	3	[0, 0, 0]	n/a	FR1	1	R1427T
399.948	0.934	482829	WORD_OFF	n/a	n/a	CHIEF	11	3	[0, 0, 0]	n/a	FR1	1	R1427T
400.882	1.617	483768	WORD	n/a	wordpools/wordpool_long_EN.txt	STAIR	12	3	[0, 0, 0]	n/a	FR1	1	R1427T
402.499	0.001	485380	WORD_OFF	n/a	n/a	STAIR	12	3	[0, 0, 0]	n/a	FR1	1	R1427T
402.5	0.0	485380	ENCODING_END	n/a	n/a	n/a	-999	3	[0, 0, 0]	n/a	FR1	1	R1427T
402.5	0.0	485380	DISTRACT_START	n/a	n/a	n/a	-999	3	[0, 0, 0]	n/a	FR1	1	R1427T
402.499	0.001	485380	PROB	0.001	n/a	n/a	-999	3	[1, 1, 1]	3	FR1	1	R1427T
402.5	2.416	485381	START	n/a	n/a	n/a	-999	3	[-999, -999, -999]	n/a	FR1	1	R1427T
404.916	2.917	487797	PROB	2.917	n/a	n/a	-999	3	[7, 3, 3]	13	FR1	1	R1427T
407.833	3.382	490714	PROB	3.382	n/a	n/a	-999	3	[8, 1, 7]	16	FR1	1	R1427T
411.215	2.334	494096	PROB	2.334	n/a	n/a	-999	3	[1, 4, 4]	9	FR1	1	R1427T
413.549	1.902	496430	PROB	1.902	n/a	n/a	-999	3	[5, 5, 2]	12	FR1	1	R1427T
415.451	4.898	498332	PROB	4.898	n/a	n/a	-999	3	[6, 8, 4]	18	FR1	1	R1427T
420.349	6.199	503230	PROB	6.199	n/a	n/a	-999	3	[6, 8, 3]	17	FR1	1	R1427T
426.548	0.0	509427	DISTRACT_END	n/a	n/a	n/a	-999	3	[0, 0, 0]	n/a	FR1	1	R1427T
426.548	2.234	509428	STOP	n/a	n/a	n/a	-999	3	[-999, -999, -999]	n/a	FR1	1	R1427T
428.782	0.573	511658	REC_START	n/a	n/a	n/a	-999	3	[0, 0, 0]	n/a	FR1	1	R1427T
429.355	1.642	512235	REC_WORD	1.642	n/a	FRIEND	1	3	[0, 0, 0]	n/a	FR1	1	R1427T
430.997	2.121	513877	REC_WORD	2.121	n/a	CHIEF	11	3	[0, 0, 0]	n/a	FR1	1	R1427T
433.118	6.369	515998	REC_WORD	6.369	n/a	GOLD	10	3	[0, 0, 0]	n/a	FR1	1	R1427T
439.487	19.567	522367	REC_WORD	19.567	n/a	ARK	3	3	[0, 0, 0]	n/a	FR1	1	R1427T
459.054	12.445	541932	REC_END	n/a	n/a	n/a	-999	3	[0, 0, 0]	n/a	FR1	1	R1427T
471.499	10.349	554377	COUNTDOWN_START	n/a	n/a	n/a	-999	4	[0, 0, 0]	n/a	FR1	1	R1427T
481.848	0.001	564722	COUNTDOWN_END	n/a	n/a	n/a	-999	4	[0, 0, 0]	n/a	FR1	1	R1427T
481.849	2.033	564731	ENCODING_START	n/a	n/a	n/a	-999	4	[0, 0, 0]	n/a	FR1	1	R1427T
483.882	1.617	566759	WORD	n/a	wordpools/wordpool_long_EN.txt	TILE	1	4	[0, 0, 0]	n/a	FR1	1	R1427T
485.499	0.916	568380	WORD_OFF	n/a	n/a	TILE	1	4	[0, 0, 0]	n/a	FR1	1	R1427T
486.415	1.617	569292	WORD	n/a	wordpools/wordpool_long_EN.txt	DRINK	2	4	[0, 0, 0]	n/a	FR1	1	R1427T
488.032	0.967	570913	WORD_OFF	n/a	n/a	DRINK	2	4	[0, 0, 0]	n/a	FR1	1	R1427T
488.999	1.616	571878	WORD	n/a	wordpools/wordpool_long_EN.txt	CHURCH	3	4	[0, 0, 0]	n/a	FR1	1	R1427T
490.615	0.866	573490	WORD_OFF	n/a	n/a	CHURCH	3	4	[0, 0, 0]	n/a	FR1	1	R1427T
491.481	1.601	574358	WORD	n/a	wordpools/wordpool_long_EN.txt	SAIL	4	4	[0, 0, 0]	n/a	FR1	1	R1427T
493.082	0.783	575961	WORD_OFF	n/a	n/a	SAIL	4	4	[0, 0, 0]	n/a	FR1	1	R1427T
493.865	1.617	576741	WORD	n/a	wordpools/wordpool_long_EN.txt	CRIB	5	4	[0, 0, 0]	n/a	FR1	1	R1427T
495.482	0.916	578362	WORD_OFF	n/a	n/a	CRIB	5	4	[0, 0, 0]	n/a	FR1	1	R1427T
496.398	1.601	579274	WORD	n/a	wordpools/wordpool_long_EN.txt	WEED	6	4	[0, 0, 0]	n/a	FR1	1	R1427T
497.999	0.999	580877	WORD_OFF	n/a	n/a	WEED	6	4	[0, 0, 0]	n/a	FR1	1	R1427T
498.998	1.602	581878	WORD	n/a	wordpools/wordpool_long_EN.txt	YACHT	7	4	[0, 0, 0]	n/a	FR1	1	R1427T
500.6	0.948	583472	WORD_OFF	n/a	n/a	YACHT	7	4	[0, 0, 0]	n/a	FR1	1	R1427T
501.548	1.601	584429	WORD	n/a	wordpools/wordpool_long_EN.txt	STAR	8	4	[0, 0, 0]	n/a	FR1	1	R1427T
503.149	0.8	586023	WORD_OFF	n/a	n/a	STAR	8	4	[0, 0, 0]	n/a	FR1	1	R1427T
503.949	1.616	586829	WORD	n/a	wordpools/wordpool_long_EN.txt	RUG	9	4	[0, 0, 0]	n/a	FR1	1	R1427T
505.565	0.984	588441	WORD_OFF	n/a	n/a	RUG	9	4	[0, 0, 0]	n/a	FR1	1	R1427T
506.549	1.6	589424	WORD	n/a	wordpools/wordpool_long_EN.txt	ROOT	10	4	[0, 0, 0]	n/a	FR1	1	R1427T
508.149	0.9	591027	WORD_OFF	n/a	n/a	ROOT	10	4	[0, 0, 0]	n/a	FR1	1	R1427T
509.049	1.6	591922	WORD	n/a	wordpools/wordpool_long_EN.txt	GROUND	11	4	[0, 0, 0]	n/a	FR1	1	R1427T
510.649	0.899	593525	WORD_OFF	n/a	n/a	GROUND	11	4	[0, 0, 0]	n/a	FR1	1	R1427T
511.548	1.6	594420	WORD	n/a	wordpools/wordpool_long_EN.txt	GUARD	12	4	[0, 0, 0]	n/a	FR1	1	R1427T
513.148	0.002	596023	WORD_OFF	n/a	n/a	GUARD	12	4	[0, 0, 0]	n/a	FR1	1	R1427T
513.15	0.0	596023	ENCODING_END	n/a	n/a	n/a	-999	4	[0, 0, 0]	n/a	FR1	1	R1427T
513.149	0.001	596025	PROB	0.001	n/a	n/a	-999	4	[3, 8, 5]	1	FR1	1	R1427T
513.15	0.0	596026	START	n/a	n/a	n/a	-999	4	[-999, -999, -999]	n/a	FR1	1	R1427T
513.15	6.799	596032	DISTRACT_START	n/a	n/a	n/a	-999	4	[0, 0, 0]	n/a	FR1	1	R1427T
519.949	7.683	602824	PROB	7.683	n/a	n/a	-999	4	[8, 4, 3]	15	FR1	1	R1427T
527.632	5.566	610507	PROB	5.566	n/a	n/a	-999	4	[2, 6, 7]	15	FR1	1	R1427T
533.198	0.0	616073	STOP	n/a	n/a	n/a	-999	4	[-999, -999, -999]	n/a	FR1	1	R1427T
533.198	2.283	616075	DISTRACT_END	n/a	n/a	n/a	-999	4	[0, 0, 0]	n/a	FR1	1	R1427T
535.481	2.209	618360	REC_START	n/a	n/a	n/a	-999	4	[0, 0, 0]	n/a	FR1	1	R1427T
537.69	2.124	620565	REC_WORD	2.124	n/a	TILE	1	4	[0, 0, 0]	n/a	FR1	1	R1427T
539.814	2.193	622688	REC_WORD	2.193	n/a	DRINK	2	4	[0, 0, 0]	n/a	FR1	1	R1427T
542.007	3.253	624881	REC_WORD	3.253	n/a	CHURCH	3	4	[0, 0, 0]	n/a	FR1	1	R1427T
545.26	20.502	628134	REC_WORD	20.502	n/a	GROUND	11	4	[0, 0, 0]	n/a	FR1	1	R1427T
565.762	1.503	648634	REC_END	n/a	n/a	n/a	-999	4	[0, 0, 0]	n/a	FR1	1	R1427T
567.265	10.351	650140	COUNTDOWN_START	n/a	n/a	n/a	-999	5	[0, 0, 0]	n/a	FR1	1	R1427T
577.616	0.0	660485	COUNTDOWN_END	n/a	n/a	n/a	-999	5	[0, 0, 0]	n/a	FR1	1	R1427T
577.616	1.899	660485	ENCODING_START	n/a	n/a	n/a	-999	5	[0, 0, 0]	n/a	FR1	1	R1427T
579.515	1.6	662389	WORD	n/a	wordpools/wordpool_long_EN.txt	BROOM	1	5	[0, 0, 0]	n/a	FR1	1	R1427T
581.115	0.867	663984	WORD_OFF	n/a	n/a	BROOM	1	5	[0, 0, 0]	n/a	FR1	1	R1427T
581.982	1.617	664852	WORD	n/a	wordpools/wordpool_long_EN.txt	RIB	2	5	[0, 0, 0]	n/a	FR1	1	R1427T
583.599	0.916	666473	WORD_OFF	n/a	n/a	RIB	2	5	[0, 0, 0]	n/a	FR1	1	R1427T
584.515	1.6	667385	WORD	n/a	wordpools/wordpool_long_EN.txt	YOLK	3	5	[0, 0, 0]	n/a	FR1	1	R1427T
586.115	0.8	668988	WORD_OFF	n/a	n/a	YOLK	3	5	[0, 0, 0]	n/a	FR1	1	R1427T
586.915	1.616	669785	WORD	n/a	wordpools/wordpool_long_EN.txt	NET	4	5	[0, 0, 0]	n/a	FR1	1	R1427T
588.531	0.968	671406	WORD_OFF	n/a	n/a	NET	4	5	[0, 0, 0]	n/a	FR1	1	R1427T
589.499	1.6	672371	WORD	n/a	wordpools/wordpool_long_EN.txt	BAR	5	5	[0, 0, 0]	n/a	FR1	1	R1427T
591.099	0.816	673975	WORD_OFF	n/a	n/a	BAR	5	5	[0, 0, 0]	n/a	FR1	1	R1427T
591.915	1.6	674789	WORD	n/a	wordpools/wordpool_long_EN.txt	FRUIT	6	5	[0, 0, 0]	n/a	FR1	1	R1427T
593.515	0.983	676384	WORD_OFF	n/a	n/a	FRUIT	6	5	[0, 0, 0]	n/a	FR1	1	R1427T
594.498	1.601	677367	WORD	n/a	wordpools/wordpool_long_EN.txt	PERCH	7	5	[0, 0, 0]	n/a	FR1	1	R1427T
596.099	0.766	678970	WORD_OFF	n/a	n/a	PERCH	7	5	[0, 0, 0]	n/a	FR1	1	R1427T
596.865	1.6	679741	WORD	n/a	wordpools/wordpool_long_EN.txt	STONE	8	5	[0, 0, 0]	n/a	FR1	1	R1427T
598.465	0.8	681335	WORD_OFF	n/a	n/a	STONE	8	5	[0, 0, 0]	n/a	FR1	1	R1427T
599.265	1.617	682141	WORD	n/a	wordpools/wordpool_long_EN.txt	TIE	9	5	[0, 0, 0]	n/a	FR1	1	R1427T
600.882	0.933	683753	WORD_OFF	n/a	n/a	TIE	9	5	[0, 0, 0]	n/a	FR1	1	R1427T
601.815	1.617	684683	WORD	n/a	wordpools/wordpool_long_EN.txt	BRUSH	10	5	[0, 0, 0]	n/a	FR1	1	R1427T
603.432	0.983	686304	WORD_OFF	n/a	n/a	BRUSH	10	5	[0, 0, 0]	n/a	FR1	1	R1427T
604.415	1.6	687287	WORD	n/a	wordpools/wordpool_long_EN.txt	SNAKE	11	5	[0, 0, 0]	n/a	FR1	1	R1427T
606.015	0.8	688881	WORD_OFF	n/a	n/a	SNAKE	11	5	[0, 0, 0]	n/a	FR1	1	R1427T
606.815	1.601	689687	WORD	n/a	wordpools/wordpool_long_EN.txt	SLIDE	12	5	[0, 0, 0]	n/a	FR1	1	R1427T
608.416	0.0	691287	START	n/a	n/a	n/a	-999	5	[-999, -999, -999]	n/a	FR1	1	R1427T
608.416	0.0	691287	PROB	0.0	n/a	n/a	-999	5	[8, 3, 4]	15	FR1	1	R1427T
608.415	0.001	691290	WORD_OFF	n/a	n/a	SLIDE	12	5	[0, 0, 0]	n/a	FR1	1	R1427T
608.416	0.0	691290	ENCODING_END	n/a	n/a	n/a	-999	5	[0, 0, 0]	n/a	FR1	1	R1427T
608.416	6.133	691290	DISTRACT_START	n/a	n/a	n/a	-999	5	[0, 0, 0]	n/a	FR1	1	R1427T
614.549	3.683	697420	PROB	3.683	n/a	n/a	-999	5	[3, 7, 1]	11	FR1	1	R1427T
618.232	4.249	701102	PROB	4.249	n/a	n/a	-999	5	[2, 5, 4]	11	FR1	1	R1427T
622.481	2.151	705351	PROB	2.151	n/a	n/a	-999	5	[5, 5, 5]	15	FR1	1	R1427T
624.632	7.116	707502	PROB	7.116	n/a	n/a	-999	5	[3, 6, 7]	16	FR1	1	R1427T
631.748	0.0	714618	STOP	n/a	n/a	n/a	-999	5	[-999, -999, -999]	n/a	FR1	1	R1427T
631.748	2.4	714620	DISTRACT_END	n/a	n/a	n/a	-999	5	[0, 0, 0]	n/a	FR1	1	R1427T
634.148	0.0	717018	REC_WORD_VV	0.0	n/a	<>	-999	5	[0, 0, 0]	n/a	FR1	1	R1427T
634.148	2.6	717019	REC_START	n/a	n/a	n/a	-999	5	[0, 0, 0]	n/a	FR1	1	R1427T
636.748	2.904	719617	REC_WORD	2.904	n/a	STONE	8	5	[0, 0, 0]	n/a	FR1	1	R1427T
639.652	14.258	722521	REC_WORD	14.258	n/a	RIB	2	5	[0, 0, 0]	n/a	FR1	1	R1427T
653.91	10.458	736779	REC_WORD	10.458	n/a	PERCH	7	5	[0, 0, 0]	n/a	FR1	1	R1427T
664.368	1.897	747232	REC_END	n/a	n/a	n/a	-999	5	[0, 0, 0]	n/a	FR1	1	R1427T
666.265	10.351	749136	COUNTDOWN_START	n/a	n/a	n/a	-999	6	[0, 0, 0]	n/a	FR1	1	R1427T
676.616	0.0	759481	COUNTDOWN_END	n/a	n/a	n/a	-999	6	[0, 0, 0]	n/a	FR1	1	R1427T
676.616	2.049	759481	ENCODING_START	n/a	n/a	n/a	-999	6	[0, 0, 0]	n/a	FR1	1	R1427T
678.665	1.6	761536	WORD	n/a	wordpools/wordpool_long_EN.txt	STRAW	1	6	[0, 0, 0]	n/a	FR1	1	R1427T
680.265	0.95	763131	WORD_OFF	n/a	n/a	STRAW	1	6	[0, 0, 0]	n/a	FR1	1	R1427T
681.215	1.601	764078	WORD	n/a	wordpools/wordpool_long_EN.txt	SPACE	2	6	[0, 0, 0]	n/a	FR1	1	R1427T
682.816	0.767	765681	WORD_OFF	n/a	n/a	SPACE	2	6	[0, 0, 0]	n/a	FR1	1	R1427T
683.583	1.616	766452	WORD	n/a	wordpools/wordpool_long_EN.txt	BIRD	3	6	[0, 0, 0]	n/a	FR1	1	R1427T
685.199	0.783	768064	WORD_OFF	n/a	n/a	BIRD	3	6	[0, 0, 0]	n/a	FR1	1	R1427T
685.982	1.601	768852	WORD	n/a	wordpools/wordpool_long_EN.txt	LODGE	4	6	[0, 0, 0]	n/a	FR1	1	R1427T
687.583	0.816	770447	WORD_OFF	n/a	n/a	LODGE	4	6	[0, 0, 0]	n/a	FR1	1	R1427T
688.399	1.616	771270	WORD	n/a	wordpools/wordpool_long_EN.txt	BLUSH	5	6	[0, 0, 0]	n/a	FR1	1	R1427T
690.015	0.916	772882	WORD_OFF	n/a	n/a	BLUSH	5	6	[0, 0, 0]	n/a	FR1	1	R1427T
690.931	1.601	773795	WORD	n/a	wordpools/wordpool_long_EN.txt	JET	6	6	[0, 0, 0]	n/a	FR1	1	R1427T
692.532	0.833	775398	WORD_OFF	n/a	n/a	JET	6	6	[0, 0, 0]	n/a	FR1	1	R1427T
693.365	1.6	776230	WORD	n/a	wordpools/wordpool_long_EN.txt	BEEF	7	6	[0, 0, 0]	n/a	FR1	1	R1427T
694.965	0.967	777833	WORD_OFF	n/a	n/a	BEEF	7	6	[0, 0, 0]	n/a	FR1	1	R1427T
695.932	1.6	778799	WORD	n/a	wordpools/wordpool_long_EN.txt	CARD	8	6	[0, 0, 0]	n/a	FR1	1	R1427T
697.532	0.816	780402	WORD_OFF	n/a	n/a	CARD	8	6	[0, 0, 0]	n/a	FR1	1	R1427T
698.348	1.6	781217	WORD	n/a	wordpools/wordpool_long_EN.txt	LAWN	9	6	[0, 0, 0]	n/a	FR1	1	R1427T
699.948	0.817	782811	WORD_OFF	n/a	n/a	LAWN	9	6	[0, 0, 0]	n/a	FR1	1	R1427T
700.765	1.617	783635	WORD	n/a	wordpools/wordpool_long_EN.txt	HUT	10	6	[0, 0, 0]	n/a	FR1	1	R1427T
702.382	0.933	785247	WORD_OFF	n/a	n/a	HUT	10	6	[0, 0, 0]	n/a	FR1	1	R1427T
703.315	1.616	786177	WORD	n/a	wordpools/wordpool_long_EN.txt	DUST	11	6	[0, 0, 0]	n/a	FR1	1	R1427T
704.931	0.834	787798	WORD_OFF	n/a	n/a	DUST	11	6	[0, 0, 0]	n/a	FR1	1	R1427T
705.765	1.6	788630	WORD	n/a	wordpools/wordpool_long_EN.txt	WOOD	12	6	[0, 0, 0]	n/a	FR1	1	R1427T
707.365	0.001	790231	PROB	0.001	n/a	n/a	-999	6	[7, 2, 5]	14	FR1	1	R1427T
707.366	0.0	790232	START	n/a	n/a	n/a	-999	6	[-999, -999, -999]	n/a	FR1	1	R1427T
707.365	0.001	790233	WORD_OFF	n/a	n/a	WOOD	12	6	[0, 0, 0]	n/a	FR1	1	R1427T
707.366	0.0	790233	ENCODING_END	n/a	n/a	n/a	-999	6	[0, 0, 0]	n/a	FR1	1	R1427T
707.366	3.899	790233	DISTRACT_START	n/a	n/a	n/a	-999	6	[0, 0, 0]	n/a	FR1	1	R1427T
711.265	7.75	794131	PROB	7.75	n/a	n/a	-999	6	[3, 8, 3]	14	FR1	1	R1427T
719.015	3.633	801880	PROB	3.633	n/a	n/a	-999	6	[1, 2, 3]	6	FR1	1	R1427T
722.648	5.701	805513	PROB	5.701	n/a	n/a	-999	6	[8, 3, 6]	17	FR1	1	R1427T
728.349	0.0	811214	STOP	n/a	n/a	n/a	-999	6	[-999, -999, -999]	n/a	FR1	1	R1427T
728.349	2.284	811216	DISTRACT_END	n/a	n/a	n/a	-999	6	[0, 0, 0]	n/a	FR1	1	R1427T
730.633	0.751	813500	REC_START	n/a	n/a	n/a	-999	6	[0, 0, 0]	n/a	FR1	1	R1427T
731.384	2.314	814249	REC_WORD	2.314	n/a	STRAW	1	6	[0, 0, 0]	n/a	FR1	1	R1427T
733.698	5.011	816563	REC_WORD	5.011	n/a	BLUSH	5	6	[0, 0, 0]	n/a	FR1	1	R1427T
738.709	22.169	821573	REC_WORD	22.169	n/a	CARD	8	6	[0, 0, 0]	n/a	FR1	1	R1427T
760.878	3.137	843739	REC_END	n/a	n/a	n/a	-999	6	[0, 0, 0]	n/a	FR1	1	R1427T
764.015	10.351	846875	COUNTDOWN_START	n/a	n/a	n/a	-999	7	[0, 0, 0]	n/a	FR1	1	R1427T
774.366	0.0	857229	COUNTDOWN_END	n/a	n/a	n/a	-999	7	[0, 0, 0]	n/a	FR1	1	R1427T
774.366	2.199	857229	ENCODING_START	n/a	n/a	n/a	-999	7	[0, 0, 0]	n/a	FR1	1	R1427T
776.565	1.6	859425	WORD	n/a	wordpools/wordpool_long_EN.txt	SNACK	1	7	[0, 0, 0]	n/a	FR1	1	R1427T
778.165	0.899	861028	WORD_OFF	n/a	n/a	SNACK	1	7	[0, 0, 0]	n/a	FR1	1	R1427T
779.064	1.601	861923	WORD	n/a	wordpools/wordpool_long_EN.txt	SKUNK	2	7	[0, 0, 0]	n/a	FR1	1	R1427T
780.665	0.967	863526	WORD_OFF	n/a	n/a	SKUNK	2	7	[0, 0, 0]	n/a	FR1	1	R1427T
781.632	1.6	864492	WORD	n/a	wordpools/wordpool_long_EN.txt	CROWN	3	7	[0, 0, 0]	n/a	FR1	1	R1427T
783.232	0.8	866095	WORD_OFF	n/a	n/a	CROWN	3	7	[0, 0, 0]	n/a	FR1	1	R1427T
784.032	1.616	866901	WORD	n/a	wordpools/wordpool_long_EN.txt	FLAME	4	7	[0, 0, 0]	n/a	FR1	1	R1427T
785.648	0.867	868513	WORD_OFF	n/a	n/a	FLAME	4	7	[0, 0, 0]	n/a	FR1	1	R1427T
786.515	1.6	869372	WORD	n/a	wordpools/wordpool_long_EN.txt	MAIL	5	7	[0, 0, 0]	n/a	FR1	1	R1427T
788.115	0.783	870975	WORD_OFF	n/a	n/a	MAIL	5	7	[0, 0, 0]	n/a	FR1	1	R1427T
788.898	1.6	871763	WORD	n/a	wordpools/wordpool_long_EN.txt	OWL	6	7	[0, 0, 0]	n/a	FR1	1	R1427T
790.498	1.0	873358	WORD_OFF	n/a	n/a	OWL	6	7	[0, 0, 0]	n/a	FR1	1	R1427T
791.498	1.617	874358	WORD	n/a	wordpools/wordpool_long_EN.txt	NEST	7	7	[0, 0, 0]	n/a	FR1	1	R1427T
793.115	0.9	875979	WORD_OFF	n/a	n/a	NEST	7	7	[0, 0, 0]	n/a	FR1	1	R1427T
794.015	1.617	876874	WORD	n/a	wordpools/wordpool_long_EN.txt	MOON	8	7	[0, 0, 0]	n/a	FR1	1	R1427T
795.632	0.916	878495	WORD_OFF	n/a	n/a	MOON	8	7	[0, 0, 0]	n/a	FR1	1	R1427T
796.548	1.6	879407	WORD	n/a	wordpools/wordpool_long_EN.txt	SOCK	9	7	[0, 0, 0]	n/a	FR1	1	R1427T
798.148	0.783	881010	WORD_OFF	n/a	n/a	SOCK	9	7	[0, 0, 0]	n/a	FR1	1	R1427T
798.931	1.6	881790	WORD	n/a	wordpools/wordpool_long_EN.txt	PURSE	10	7	[0, 0, 0]	n/a	FR1	1	R1427T
800.531	0.884	883393	WORD_OFF	n/a	n/a	PURSE	10	7	[0, 0, 0]	n/a	FR1	1	R1427T
801.415	1.6	884278	WORD	n/a	wordpools/wordpool_long_EN.txt	ARCH	11	7	[0, 0, 0]	n/a	FR1	1	R1427T
803.015	0.933	885873	WORD_OFF	n/a	n/a	ARCH	11	7	[0, 0, 0]	n/a	FR1	1	R1427T
803.948	1.6	886812	WORD	n/a	wordpools/wordpool_long_EN.txt	MARSH	12	7	[0, 0, 0]	n/a	FR1	1	R1427T
805.548	0.001	888406	WORD_OFF	n/a	n/a	MARSH	12	7	[0, 0, 0]	n/a	FR1	1	R1427T
805.549	0.0	888406	ENCODING_END	n/a	n/a	n/a	-999	7	[0, 0, 0]	n/a	FR1	1	R1427T
805.549	0.002	888410	START	n/a	n/a	n/a	-999	7	[-999, -999, -999]	n/a	FR1	1	R1427T
805.551	0.0	888412	PROB	0.0	n/a	n/a	-999	7	[1, 3, 7]	11	FR1	1	R1427T
805.549	3.267	888415	DISTRACT_START	n/a	n/a	n/a	-999	7	[0, 0, 0]	n/a	FR1	1	R1427T
808.816	6.35	891677	PROB	6.35	n/a	n/a	-999	7	[3, 5, 7]	17	FR1	1	R1427T
815.166	2.9	898026	PROB	2.9	n/a	n/a	-999	7	[3, 1, 7]	11	FR1	1	R1427T
818.066	4.733	900926	PROB	4.733	n/a	n/a	-999	7	[6, 2, 2]	10	FR1	1	R1427T
822.799	2.234	905659	PROB	2.234	n/a	n/a	-999	7	[5, 1, 1]	7	FR1	1	R1427T
825.033	7.332	907893	PROB	7.332	n/a	n/a	-999	7	[6, 7, 8]	21	FR1	1	R1427T
832.365	0.0	915224	STOP	n/a	n/a	n/a	-999	7	[-999, -999, -999]	n/a	FR1	1	R1427T
832.365	2.4	915225	DISTRACT_END	n/a	n/a	n/a	-999	7	[0, 0, 0]	n/a	FR1	1	R1427T
834.765	0.604	917625	REC_START	n/a	n/a	n/a	-999	7	[0, 0, 0]	n/a	FR1	1	R1427T
835.369	1.0	918228	REC_WORD_VV	1.0	n/a	<>	-999	7	[0, 0, 0]	n/a	FR1	1	R1427T
836.369	1.356	919228	REC_WORD_VV	1.356	n/a	<>	-999	7	[0, 0, 0]	n/a	FR1	1	R1427T
837.725	13.442	920584	REC_WORD	13.442	n/a	CROWN	3	7	[0, 0, 0]	n/a	FR1	1	R1427T
851.167	13.854	934025	REC_WORD	13.854	n/a	ARCH	11	7	[0, 0, 0]	n/a	FR1	1	R1427T
865.021	2.411	947882	REC_END	n/a	n/a	n/a	-999	7	[0, 0, 0]	n/a	FR1	1	R1427T
867.432	10.35	950291	COUNTDOWN_START	n/a	n/a	n/a	-999	8	[0, 0, 0]	n/a	FR1	1	R1427T
877.782	0.0	960636	COUNTDOWN_END	n/a	n/a	n/a	-999	8	[0, 0, 0]	n/a	FR1	1	R1427T
877.782	2.283	960645	ENCODING_START	n/a	n/a	n/a	-999	8	[0, 0, 0]	n/a	FR1	1	R1427T
880.065	1.6	962921	WORD	n/a	wordpools/wordpool_long_EN.txt	HILL	1	8	[0, 0, 0]	n/a	FR1	1	R1427T
881.665	0.917	964524	WORD_OFF	n/a	n/a	HILL	1	8	[0, 0, 0]	n/a	FR1	1	R1427T
882.582	1.6	965436	WORD	n/a	wordpools/wordpool_long_EN.txt	HOOF	2	8	[0, 0, 0]	n/a	FR1	1	R1427T
884.182	0.983	967040	WORD_OFF	n/a	n/a	HOOF	2	8	[0, 0, 0]	n/a	FR1	1	R1427T
885.165	1.6	968023	WORD	n/a	wordpools/wordpool_long_EN.txt	BOY	3	8	[0, 0, 0]	n/a	FR1	1	R1427T
886.765	0.783	969626	WORD_OFF	n/a	n/a	BOY	3	8	[0, 0, 0]	n/a	FR1	1	R1427T
887.548	1.617	970405	WORD	n/a	wordpools/wordpool_long_EN.txt	MOOSE	4	8	[0, 0, 0]	n/a	FR1	1	R1427T
889.165	0.933	972017	WORD_OFF	n/a	n/a	MOOSE	4	8	[0, 0, 0]	n/a	FR1	1	R1427T
890.098	1.6	972956	WORD	n/a	wordpools/wordpool_long_EN.txt	MULE	5	8	[0, 0, 0]	n/a	FR1	1	R1427T
891.698	0.817	974568	WORD_OFF	n/a	n/a	MULE	5	8	[0, 0, 0]	n/a	FR1	1	R1427T
892.515	1.6	975374	WORD	n/a	wordpools/wordpool_long_EN.txt	LACE	6	8	[0, 0, 0]	n/a	FR1	1	R1427T
894.115	0.783	976968	WORD_OFF	n/a	n/a	LACE	6	8	[0, 0, 0]	n/a	FR1	1	R1427T
894.898	1.6	977757	WORD	n/a	wordpools/wordpool_long_EN.txt	BLADE	7	8	[0, 0, 0]	n/a	FR1	1	R1427T
896.498	0.851	979351	WORD_OFF	n/a	n/a	BLADE	7	8	[0, 0, 0]	n/a	FR1	1	R1427T
897.349	1.6	980201	WORD	n/a	wordpools/wordpool_long_EN.txt	ZOO	8	8	[0, 0, 0]	n/a	FR1	1	R1427T
898.949	0.782	981804	WORD_OFF	n/a	n/a	ZOO	8	8	[0, 0, 0]	n/a	FR1	1	R1427T
899.731	1.6	982584	WORD	n/a	wordpools/wordpool_long_EN.txt	SLUG	9	8	[0, 0, 0]	n/a	FR1	1	R1427T
901.331	0.984	984187	WORD_OFF	n/a	n/a	SLUG	9	8	[0, 0, 0]	n/a	FR1	1	R1427T
902.315	1.617	985170	WORD	n/a	wordpools/wordpool_long_EN.txt	LIP	10	8	[0, 0, 0]	n/a	FR1	1	R1427T
903.932	0.916	986791	WORD_OFF	n/a	n/a	LIP	10	8	[0, 0, 0]	n/a	FR1	1	R1427T
904.848	1.6	987703	WORD	n/a	wordpools/wordpool_long_EN.txt	SMOKE	11	8	[0, 0, 0]	n/a	FR1	1	R1427T
906.448	0.8	989306	WORD_OFF	n/a	n/a	SMOKE	11	8	[0, 0, 0]	n/a	FR1	1	R1427T
907.248	1.601	990104	WORD	n/a	wordpools/wordpool_long_EN.txt	PEARL	12	8	[0, 0, 0]	n/a	FR1	1	R1427T
908.849	0.001	991704	PROB	0.001	n/a	n/a	-999	8	[1, 5, 2]	8	FR1	1	R1427T
908.85	0.0	991705	START	n/a	n/a	n/a	-999	8	[-999, -999, -999]	n/a	FR1	1	R1427T
908.848	0.002	991707	WORD_OFF	n/a	n/a	PEARL	12	8	[0, 0, 0]	n/a	FR1	1	R1427T
908.85	0.0	991707	ENCODING_END	n/a	n/a	n/a	-999	8	[0, 0, 0]	n/a	FR1	1	R1427T
908.85	2.833	991707	DISTRACT_START	n/a	n/a	n/a	-999	8	[0, 0, 0]	n/a	FR1	1	R1427T
911.683	2.349	994538	PROB	2.349	n/a	n/a	-999	8	[2, 1, 8]	11	FR1	1	R1427T
914.032	5.616	996887	PROB	5.616	n/a	n/a	-999	8	[7, 6, 6]	19	FR1	1	R1427T
919.648	3.084	1002503	PROB	3.084	n/a	n/a	-999	8	[2, 7, 7]	16	FR1	1	R1427T
922.732	2.717	1005587	PROB	2.717	n/a	n/a	-999	8	[1, 3, 5]	9	FR1	1	R1427T
925.449	4.283	1008304	PROB	4.283	n/a	n/a	-999	8	[6, 4, 3]	13	FR1	1	R1427T
929.732	0.0	1012583	DISTRACT_END	n/a	n/a	n/a	-999	8	[0, 0, 0]	n/a	FR1	1	R1427T
929.732	2.217	1012586	STOP	n/a	n/a	n/a	-999	8	[-999, -999, -999]	n/a	FR1	1	R1427T
931.949	1.012	1014805	REC_START	n/a	n/a	n/a	-999	8	[0, 0, 0]	n/a	FR1	1	R1427T
932.961	3.728	1015815	REC_WORD	3.728	n/a	LIP	10	8	[0, 0, 0]	n/a	FR1	1	R1427T
936.689	5.329	1019543	REC_WORD	5.329	n/a	SMOKE	11	8	[0, 0, 0]	n/a	FR1	1	R1427T
942.018	13.305	1024872	REC_WORD	13.305	n/a	HOOF	2	8	[0, 0, 0]	n/a	FR1	1	R1427T
955.323	6.9	1038176	REC_WORD	6.9	n/a	HILL	1	8	[0, 0, 0]	n/a	FR1	1	R1427T
962.223	2.409	1045071	REC_END	n/a	n/a	n/a	-999	8	[0, 0, 0]	n/a	FR1	1	R1427T
964.632	10.35	1047489	COUNTDOWN_START	n/a	n/a	n/a	-999	9	[0, 0, 0]	n/a	FR1	1	R1427T
974.982	0.0	1057834	COUNTDOWN_END	n/a	n/a	n/a	-999	9	[0, 0, 0]	n/a	FR1	1	R1427T
974.982	2.0	1057834	ENCODING_START	n/a	n/a	n/a	-999	9	[0, 0, 0]	n/a	FR1	1	R1427T
976.982	1.599	1059836	WORD	n/a	wordpools/wordpool_long_EN.txt	BOOK	1	9	[0, 0, 0]	n/a	FR1	1	R1427T
978.581	0.917	1061430	WORD_OFF	n/a	n/a	BOOK	1	9	[0, 0, 0]	n/a	FR1	1	R1427T
979.498	1.617	1062351	WORD	n/a	wordpools/wordpool_long_EN.txt	CLAY	2	9	[0, 0, 0]	n/a	FR1	1	R1427T
981.115	0.983	1063963	WORD_OFF	n/a	n/a	CLAY	2	9	[0, 0, 0]	n/a	FR1	1	R1427T
982.098	1.617	1064946	WORD	n/a	wordpools/wordpool_long_EN.txt	BRIDGE	3	9	[0, 0, 0]	n/a	FR1	1	R1427T
983.715	0.983	1066567	WORD_OFF	n/a	n/a	BRIDGE	3	9	[0, 0, 0]	n/a	FR1	1	R1427T
984.698	1.601	1067550	WORD	n/a	wordpools/wordpool_long_EN.txt	SKI	4	9	[0, 0, 0]	n/a	FR1	1	R1427T
986.299	0.982	1069153	WORD_OFF	n/a	n/a	SKI	4	9	[0, 0, 0]	n/a	FR1	1	R1427T
987.281	1.617	1070137	WORD	n/a	wordpools/wordpool_long_EN.txt	BANK	5	9	[0, 0, 0]	n/a	FR1	1	R1427T
988.898	0.833	1071749	WORD_OFF	n/a	n/a	BANK	5	9	[0, 0, 0]	n/a	FR1	1	R1427T
989.731	1.6	1072581	WORD	n/a	wordpools/wordpool_long_EN.txt	SPONGE	6	9	[0, 0, 0]	n/a	FR1	1	R1427T
991.331	0.983	1074184	WORD_OFF	n/a	n/a	SPONGE	6	9	[0, 0, 0]	n/a	FR1	1	R1427T
992.314	1.601	1075167	WORD	n/a	wordpools/wordpool_long_EN.txt	GRILL	7	9	[0, 0, 0]	n/a	FR1	1	R1427T
993.915	0.783	1076762	WORD_OFF	n/a	n/a	GRILL	7	9	[0, 0, 0]	n/a	FR1	1	R1427T
994.698	1.617	1077550	WORD	n/a	wordpools/wordpool_long_EN.txt	FARM	8	9	[0, 0, 0]	n/a	FR1	1	R1427T
996.315	0.817	1079162	WORD_OFF	n/a	n/a	FARM	8	9	[0, 0, 0]	n/a	FR1	1	R1427T
997.132	1.617	1079986	WORD	n/a	wordpools/wordpool_long_EN.txt	WAVE	9	9	[0, 0, 0]	n/a	FR1	1	R1427T
998.749	0.816	1081598	WORD_OFF	n/a	n/a	WAVE	9	9	[0, 0, 0]	n/a	FR1	1	R1427T
999.565	1.601	1082413	WORD	n/a	wordpools/wordpool_long_EN.txt	BEAK	10	9	[0, 0, 0]	n/a	FR1	1	R1427T
1001.166	0.883	1084016	WORD_OFF	n/a	n/a	BEAK	10	9	[0, 0, 0]	n/a	FR1	1	R1427T
1002.049	1.616	1084901	WORD	n/a	wordpools/wordpool_long_EN.txt	SOAP	11	9	[0, 0, 0]	n/a	FR1	1	R1427T
1003.665	0.917	1086513	WORD_OFF	n/a	n/a	SOAP	11	9	[0, 0, 0]	n/a	FR1	1	R1427T
1004.582	1.6	1087435	WORD	n/a	wordpools/wordpool_long_EN.txt	BATH	12	9	[0, 0, 0]	n/a	FR1	1	R1427T
1006.182	0.001	1089029	WORD_OFF	n/a	n/a	BATH	12	9	[0, 0, 0]	n/a	FR1	1	R1427T
1006.183	0.001	1089033	PROB	0.001	n/a	n/a	-999	9	[2, 5, 3]	10	FR1	1	R1427T
1006.184	0.0	1089034	START	n/a	n/a	n/a	-999	9	[-999, -999, -999]	n/a	FR1	1	R1427T
1006.184	0.0	1089038	ENCODING_END	n/a	n/a	n/a	-999	9	[0, 0, 0]	n/a	FR1	1	R1427T
1006.184	3.048	1089038	DISTRACT_START	n/a	n/a	n/a	-999	9	[0, 0, 0]	n/a	FR1	1	R1427T
1009.232	3.317	1092082	PROB	3.317	n/a	n/a	-999	9	[6, 6, 4]	16	FR1	1	R1427T
1012.549	8.4	1095399	PROB	8.4	n/a	n/a	-999	9	[5, 6, 2]	13	FR1	1	R1427T
1020.949	3.567	1103799	PROB	3.567	n/a	n/a	-999	9	[7, 4, 7]	18	FR1	1	R1427T
1024.516	1.983	1107366	PROB	1.983	n/a	n/a	-999	9	[6, 6, 1]	13	FR1	1	R1427T
1026.499	0.0	1109347	DISTRACT_END	n/a	n/a	n/a	-999	9	[0, 0, 0]	n/a	FR1	1	R1427T
1026.499	2.233	1109348	STOP	n/a	n/a	n/a	-999	9	[-999, -999, -999]	n/a	FR1	1	R1427T
1028.732	0.389	1111578	REC_START	n/a	n/a	n/a	-999	9	[0, 0, 0]	n/a	FR1	1	R1427T
1029.121	1.218	1111970	REC_WORD	1.218	n/a	BRIDGE	3	9	[0, 0, 0]	n/a	FR1	1	R1427T
1030.339	1.585	1113188	REC_WORD	1.585	n/a	WAVE	9	9	[0, 0, 0]	n/a	FR1	1	R1427T
1031.924	1.526	1114773	REC_WORD	1.526	n/a	BATH	12	9	[0, 0, 0]	n/a	FR1	1	R1427T
1033.45	1.62	1116299	REC_WORD	1.62	n/a	SOAP	11	9	[0, 0, 0]	n/a	FR1	1	R1427T
1035.07	23.948	1117919	REC_WORD	23.948	n/a	SPONGE	6	9	[0, 0, 0]	n/a	FR1	1	R1427T
1059.018	3.913	1141871	REC_END	n/a	n/a	n/a	-999	9	[0, 0, 0]	n/a	FR1	1	R1427T
1062.931	10.352	1145785	COUNTDOWN_START	n/a	n/a	n/a	-999	10	[0, 0, 0]	n/a	FR1	1	R1427T
1073.283	0.0	1156131	COUNTDOWN_END	n/a	n/a	n/a	-999	10	[0, 0, 0]	n/a	FR1	1	R1427T
1073.283	1.915	1156131	ENCODING_START	n/a	n/a	n/a	-999	10	[0, 0, 0]	n/a	FR1	1	R1427T
1075.198	1.601	1158044	WORD	n/a	wordpools/wordpool_long_EN.txt	SHIP	1	10	[0, 0, 0]	n/a	FR1	1	R1427T
1076.799	0.8	1159647	WORD_OFF	n/a	n/a	SHIP	1	10	[0, 0, 0]	n/a	FR1	1	R1427T
1077.599	1.616	1160444	WORD	n/a	wordpools/wordpool_long_EN.txt	LUNCH	2	10	[0, 0, 0]	n/a	FR1	1	R1427T
1079.215	1.0	1162065	WORD_OFF	n/a	n/a	LUNCH	2	10	[0, 0, 0]	n/a	FR1	1	R1427T
1080.215	1.617	1163066	WORD	n/a	wordpools/wordpool_long_EN.txt	EEL	3	10	[0, 0, 0]	n/a	FR1	1	R1427T
1081.832	0.967	1164678	WORD_OFF	n/a	n/a	EEL	3	10	[0, 0, 0]	n/a	FR1	1	R1427T
1082.799	1.6	1165643	WORD	n/a	wordpools/wordpool_long_EN.txt	WAND	4	10	[0, 0, 0]	n/a	FR1	1	R1427T
1084.399	0.949	1167246	WORD_OFF	n/a	n/a	WAND	4	10	[0, 0, 0]	n/a	FR1	1	R1427T
1085.348	1.617	1168194	WORD	n/a	wordpools/wordpool_long_EN.txt	BADGE	5	10	[0, 0, 0]	n/a	FR1	1	R1427T
1086.965	0.849	1169815	WORD_OFF	n/a	n/a	BADGE	5	10	[0, 0, 0]	n/a	FR1	1	R1427T
1087.814	1.601	1170665	WORD	n/a	wordpools/wordpool_long_EN.txt	DOCK	6	10	[0, 0, 0]	n/a	FR1	1	R1427T
1089.415	0.816	1172259	WORD_OFF	n/a	n/a	DOCK	6	10	[0, 0, 0]	n/a	FR1	1	R1427T
1090.231	1.601	1173074	WORD	n/a	wordpools/wordpool_long_EN.txt	SPRING	7	10	[0, 0, 0]	n/a	FR1	1	R1427T
1091.832	0.867	1174677	WORD_OFF	n/a	n/a	SPRING	7	10	[0, 0, 0]	n/a	FR1	1	R1427T
1092.699	1.6	1175545	WORD	n/a	wordpools/wordpool_long_EN.txt	FLASK	8	10	[0, 0, 0]	n/a	FR1	1	R1427T
1094.299	0.849	1177149	WORD_OFF	n/a	n/a	FLASK	8	10	[0, 0, 0]	n/a	FR1	1	R1427T
1095.148	1.601	1177999	WORD	n/a	wordpools/wordpool_long_EN.txt	WOLF	9	10	[0, 0, 0]	n/a	FR1	1	R1427T
1096.749	0.782	1179593	WORD_OFF	n/a	n/a	WOLF	9	10	[0, 0, 0]	n/a	FR1	1	R1427T
1097.531	1.601	1180381	WORD	n/a	wordpools/wordpool_long_EN.txt	GLOBE	10	10	[0, 0, 0]	n/a	FR1	1	R1427T
1099.132	0.867	1181976	WORD_OFF	n/a	n/a	GLOBE	10	10	[0, 0, 0]	n/a	FR1	1	R1427T
1099.999	1.616	1182844	WORD	n/a	wordpools/wordpool_long_EN.txt	SCARF	11	10	[0, 0, 0]	n/a	FR1	1	R1427T
1101.615	0.952	1184465	WORD_OFF	n/a	n/a	SCARF	11	10	[0, 0, 0]	n/a	FR1	1	R1427T
1102.567	1.615	1185412	WORD	n/a	wordpools/wordpool_long_EN.txt	GLASS	12	10	[0, 0, 0]	n/a	FR1	1	R1427T
1104.182	0.0	1187024	WORD_OFF	n/a	n/a	GLASS	12	10	[0, 0, 0]	n/a	FR1	1	R1427T
1104.182	0.001	1187027	PROB	0.001	n/a	n/a	-999	10	[8, 3, 1]	12	FR1	1	R1427T
1104.183	0.0	1187028	START	n/a	n/a	n/a	-999	10	[-999, -999, -999]	n/a	FR1	1	R1427T
1104.183	0.0	1187033	ENCODING_END	n/a	n/a	n/a	-999	10	[0, 0, 0]	n/a	FR1	1	R1427T
1104.183	2.917	1187033	DISTRACT_START	n/a	n/a	n/a	-999	10	[0, 0, 0]	n/a	FR1	1	R1427T
1107.1	2.582	1189945	PROB	2.582	n/a	n/a	-999	10	[7, 7, 1]	15	FR1	1	R1427T
1109.682	5.751	1192527	PROB	5.751	n/a	n/a	-999	10	[8, 2, 7]	17	FR1	1	R1427T
1115.433	2.866	1198278	PROB	2.866	n/a	n/a	-999	10	[3, 1, 3]	7	FR1	1	R1427T
1118.299	2.517	1201144	PROB	2.517	n/a	n/a	-999	10	[8, 1, 8]	17	FR1	1	R1427T
1120.816	5.783	1203661	PROB	5.783	n/a	n/a	-999	10	[7, 7, 6]	20	FR1	1	R1427T
1126.599	0.0	1209442	DISTRACT_END	n/a	n/a	n/a	-999	10	[0, 0, 0]	n/a	FR1	1	R1427T
1126.599	2.083	1209443	STOP	n/a	n/a	n/a	-999	10	[-999, -999, -999]	n/a	FR1	1	R1427T
1128.682	2.2	1211531	REC_START	n/a	n/a	n/a	-999	10	[0, 0, 0]	n/a	FR1	1	R1427T
1130.882	3.828	1213726	REC_WORD	3.828	n/a	GLASS	12	10	[0, 0, 0]	n/a	FR1	1	R1427T
1134.71	2.731	1217554	REC_WORD	2.731	n/a	FLASK	8	10	[0, 0, 0]	n/a	FR1	1	R1427T
1137.441	21.524	1220285	REC_WORD	21.524	n/a	WOLF	9	10	[0, 0, 0]	n/a	FR1	1	R1427T
1158.965	1.867	1241806	REC_END	n/a	n/a	n/a	-999	10	[0, 0, 0]	n/a	FR1	1	R1427T
1160.832	10.351	1243675	COUNTDOWN_START	n/a	n/a	n/a	-999	11	[0, 0, 0]	n/a	FR1	1	R1427T
1171.183	0.0	1254029	COUNTDOWN_END	n/a	n/a	n/a	-999	11	[0, 0, 0]	n/a	FR1	1	R1427T
1171.183	2.366	1254029	ENCODING_START	n/a	n/a	n/a	-999	11	[0, 0, 0]	n/a	FR1	1	R1427T
1173.549	1.616	1256393	WORD	n/a	wordpools/wordpool_long_EN.txt	ICE	1	11	[0, 0, 0]	n/a	FR1	1	R1427T
1175.165	1.0	1258005	WORD_OFF	n/a	n/a	ICE	1	11	[0, 0, 0]	n/a	FR1	1	R1427T
1176.165	1.6	1259006	WORD	n/a	wordpools/wordpool_long_EN.txt	SNAIL	2	11	[0, 0, 0]	n/a	FR1	1	R1427T
1177.765	0.816	1260609	WORD_OFF	n/a	n/a	SNAIL	2	11	[0, 0, 0]	n/a	FR1	1	R1427T
1178.581	1.617	1261424	WORD	n/a	wordpools/wordpool_long_EN.txt	MAP	3	11	[0, 0, 0]	n/a	FR1	1	R1427T
1180.198	0.95	1263036	WORD_OFF	n/a	n/a	MAP	3	11	[0, 0, 0]	n/a	FR1	1	R1427T
1181.148	1.6	1263993	WORD	n/a	wordpools/wordpool_long_EN.txt	SMILE	4	11	[0, 0, 0]	n/a	FR1	1	R1427T
1182.748	0.85	1265587	WORD_OFF	n/a	n/a	SMILE	4	11	[0, 0, 0]	n/a	FR1	1	R1427T
1183.598	1.601	1266437	WORD	n/a	wordpools/wordpool_long_EN.txt	PAIL	5	11	[0, 0, 0]	n/a	FR1	1	R1427T
1185.199	0.933	1268040	WORD_OFF	n/a	n/a	PAIL	5	11	[0, 0, 0]	n/a	FR1	1	R1427T
1186.132	1.617	1268970	WORD	n/a	wordpools/wordpool_long_EN.txt	PALM	6	11	[0, 0, 0]	n/a	FR1	1	R1427T
1187.749	0.883	1270591	WORD_OFF	n/a	n/a	PALM	6	11	[0, 0, 0]	n/a	FR1	1	R1427T
1188.632	1.6	1271477	WORD	n/a	wordpools/wordpool_long_EN.txt	SKATE	7	11	[0, 0, 0]	n/a	FR1	1	R1427T
1190.232	0.866	1273071	WORD_OFF	n/a	n/a	SKATE	7	11	[0, 0, 0]	n/a	FR1	1	R1427T
1191.098	1.601	1273939	WORD	n/a	wordpools/wordpool_long_EN.txt	FOAM	8	11	[0, 0, 0]	n/a	FR1	1	R1427T
1192.699	0.983	1275542	WORD_OFF	n/a	n/a	FOAM	8	11	[0, 0, 0]	n/a	FR1	1	R1427T
1193.682	1.6	1276526	WORD	n/a	wordpools/wordpool_long_EN.txt	HOOD	9	11	[0, 0, 0]	n/a	FR1	1	R1427T
1195.282	0.933	1278120	WORD_OFF	n/a	n/a	HOOD	9	11	[0, 0, 0]	n/a	FR1	1	R1427T
1196.215	1.6	1279059	WORD	n/a	wordpools/wordpool_long_EN.txt	FOOD	10	11	[0, 0, 0]	n/a	FR1	1	R1427T
1197.815	0.934	1280653	WORD_OFF	n/a	n/a	FOOD	10	11	[0, 0, 0]	n/a	FR1	1	R1427T
1198.749	1.6	1281592	WORD	n/a	wordpools/wordpool_long_EN.txt	JAIL	11	11	[0, 0, 0]	n/a	FR1	1	R1427T
1200.349	1.0	1283195	WORD_OFF	n/a	n/a	JAIL	11	11	[0, 0, 0]	n/a	FR1	1	R1427T
1201.349	1.6	1284187	WORD	n/a	wordpools/wordpool_long_EN.txt	DITCH	12	11	[0, 0, 0]	n/a	FR1	1	R1427T
1202.949	0.0	1285789	PROB	0.0	n/a	n/a	-999	11	[2, 8, 1]	11	FR1	1	R1427T
1202.949	0.001	1285790	WORD_OFF	n/a	n/a	DITCH	12	11	[0, 0, 0]	n/a	FR1	1	R1427T
1202.95	0.0	1285790	ENCODING_END	n/a	n/a	n/a	-999	11	[0, 0, 0]	n/a	FR1	1	R1427T
1202.95	0.0	1285790	DISTRACT_START	n/a	n/a	n/a	-999	11	[0, 0, 0]	n/a	FR1	1	R1427T
1202.95	2.816	1285790	START	n/a	n/a	n/a	-999	11	[-999, -999, -999]	n/a	FR1	1	R1427T
1205.766	7.567	1288606	PROB	7.567	n/a	n/a	-999	11	[5, 8, 1]	14	FR1	1	R1427T
1213.333	2.216	1296173	PROB	2.216	n/a	n/a	-999	11	[2, 4, 4]	10	FR1	1	R1427T
1215.549	6.552	1298389	PROB	6.552	n/a	n/a	-999	11	[7, 6, 3]	16	FR1	1	R1427T
1222.101	7.247	1304940	PROB	7.247	n/a	n/a	-999	11	[4, 8, 5]	17	FR1	1	R1427T
1229.348	0.0	1312184	DISTRACT_END	n/a	n/a	n/a	-999	11	[0, 0, 0]	n/a	FR1	1	R1427T
1229.348	2.301	1312187	STOP	n/a	n/a	n/a	-999	11	[-999, -999, -999]	n/a	FR1	1	R1427T
1231.649	3.437	1314486	REC_START	n/a	n/a	n/a	-999	11	[0, 0, 0]	n/a	FR1	1	R1427T
1235.086	1.959	1317925	REC_WORD	1.959	n/a	SNAIL	2	11	[0, 0, 0]	n/a	FR1	1	R1427T
1237.045	1.999	1319884	REC_WORD	1.999	n/a	ICE	1	11	[0, 0, 0]	n/a	FR1	1	R1427T
1239.044	22.89	1321883	REC_WORD	22.89	n/a	TEETH	-999	11	[0, 0, 0]	n/a	FR1	1	R1427T
1261.934	1.832	1344770	REC_END	n/a	n/a	n/a	-999	11	[0, 0, 0]	n/a	FR1	1	R1427T
1263.766	10.35	1346603	COUNTDOWN_START	n/a	n/a	n/a	-999	12	[0, 0, 0]	n/a	FR1	1	R1427T
1274.116	0.0	1356948	COUNTDOWN_END	n/a	n/a	n/a	-999	12	[0, 0, 0]	n/a	FR1	1	R1427T
1274.116	2.083	1356957	ENCODING_START	n/a	n/a	n/a	-999	12	[0, 0, 0]	n/a	FR1	1	R1427T
1276.199	1.616	1359039	WORD	n/a	wordpools/wordpool_long_EN.txt	CAGE	1	12	[0, 0, 0]	n/a	FR1	1	R1427T
1277.815	0.785	1360651	WORD_OFF	n/a	n/a	CAGE	1	12	[0, 0, 0]	n/a	FR1	1	R1427T
1278.6	1.599	1361439	WORD	n/a	wordpools/wordpool_long_EN.txt	BOWL	2	12	[0, 0, 0]	n/a	FR1	1	R1427T
1280.199	0.982	1363033	WORD_OFF	n/a	n/a	BOWL	2	12	[0, 0, 0]	n/a	FR1	1	R1427T
1281.181	1.601	1364016	WORD	n/a	wordpools/wordpool_long_EN.txt	MAT	3	12	[0, 0, 0]	n/a	FR1	1	R1427T
1282.782	0.766	1365620	WORD_OFF	n/a	n/a	MAT	3	12	[0, 0, 0]	n/a	FR1	1	R1427T
1283.548	1.601	1366381	WORD	n/a	wordpools/wordpool_long_EN.txt	SMOG	4	12	[0, 0, 0]	n/a	FR1	1	R1427T
1285.149	0.917	1367984	WORD_OFF	n/a	n/a	SMOG	4	12	[0, 0, 0]	n/a	FR1	1	R1427T
1286.066	1.616	1368906	WORD	n/a	wordpools/wordpool_long_EN.txt	THREAD	5	12	[0, 0, 0]	n/a	FR1	1	R1427T
1287.682	0.883	1370518	WORD_OFF	n/a	n/a	THREAD	5	12	[0, 0, 0]	n/a	FR1	1	R1427T
1288.565	1.6	1371403	WORD	n/a	wordpools/wordpool_long_EN.txt	TOWN	6	12	[0, 0, 0]	n/a	FR1	1	R1427T
1290.165	0.8	1372998	WORD_OFF	n/a	n/a	TOWN	6	12	[0, 0, 0]	n/a	FR1	1	R1427T
1290.965	1.6	1373804	WORD	n/a	wordpools/wordpool_long_EN.txt	SOUP	7	12	[0, 0, 0]	n/a	FR1	1	R1427T
1292.565	0.817	1375398	WORD_OFF	n/a	n/a	SOUP	7	12	[0, 0, 0]	n/a	FR1	1	R1427T
1293.382	1.6	1376222	WORD	n/a	wordpools/wordpool_long_EN.txt	SHOE	8	12	[0, 0, 0]	n/a	FR1	1	R1427T
1294.982	0.767	1377816	WORD_OFF	n/a	n/a	SHOE	8	12	[0, 0, 0]	n/a	FR1	1	R1427T
1295.749	1.617	1378586	WORD	n/a	wordpools/wordpool_long_EN.txt	CORD	9	12	[0, 0, 0]	n/a	FR1	1	R1427T
1297.366	0.999	1380198	WORD_OFF	n/a	n/a	CORD	9	12	[0, 0, 0]	n/a	FR1	1	R1427T
1298.365	1.6	1381199	WORD	n/a	wordpools/wordpool_long_EN.txt	LOFT	10	12	[0, 0, 0]	n/a	FR1	1	R1427T
1299.965	0.817	1382802	WORD_OFF	n/a	n/a	LOFT	10	12	[0, 0, 0]	n/a	FR1	1	R1427T
1300.782	1.617	1383617	WORD	n/a	wordpools/wordpool_long_EN.txt	MOLE	11	12	[0, 0, 0]	n/a	FR1	1	R1427T
1302.399	0.866	1385238	WORD_OFF	n/a	n/a	MOLE	11	12	[0, 0, 0]	n/a	FR1	1	R1427T
1303.265	1.617	1386097	WORD	n/a	wordpools/wordpool_long_EN.txt	FAN	12	12	[0, 0, 0]	n/a	FR1	1	R1427T
1304.882	0.002	1387718	WORD_OFF	n/a	n/a	FAN	12	12	[0, 0, 0]	n/a	FR1	1	R1427T
1304.884	0.0	1387718	ENCODING_END	n/a	n/a	n/a	-999	12	[0, 0, 0]	n/a	FR1	1	R1427T
1304.884	0.0	1387718	DISTRACT_START	n/a	n/a	n/a	-999	12	[0, 0, 0]	n/a	FR1	1	R1427T
1304.883	0.001	1387718	PROB	0.001	n/a	n/a	-999	12	[5, 4, 7]	16	FR1	1	R1427T
1304.884	6.881	1387719	START	n/a	n/a	n/a	-999	12	[-999, -999, -999]	n/a	FR1	1	R1427T
1311.765	7.768	1394600	PROB	7.768	n/a	n/a	-999	12	[3, 8, 7]	18	FR1	1	R1427T
1319.533	3.333	1402367	PROB	3.333	n/a	n/a	-999	12	[5, 1, 2]	8	FR1	1	R1427T
1322.866	5.066	1405700	PROB	5.066	n/a	n/a	-999	12	[7, 4, 8]	19	FR1	1	R1427T
1327.932	0.0	1410764	DISTRACT_END	n/a	n/a	n/a	-999	12	[0, 0, 0]	n/a	FR1	1	R1427T
1327.932	2.05	1410766	STOP	n/a	n/a	n/a	-999	12	[-999, -999, -999]	n/a	FR1	1	R1427T
1329.982	0.674	1412818	REC_START	n/a	n/a	n/a	-999	12	[0, 0, 0]	n/a	FR1	1	R1427T
1330.656	10.588	1413490	REC_WORD	10.588	n/a	SMOG	4	12	[0, 0, 0]	n/a	FR1	1	R1427T
1341.244	15.748	1424077	REC_WORD	15.748	n/a	FAN	12	12	[0, 0, 0]	n/a	FR1	1	R1427T
1356.992	0.537	1439825	REC_WORD_VV	0.537	n/a	<>	-999	12	[0, 0, 0]	n/a	FR1	1	R1427T
1357.529	1.032	1440361	REC_WORD	1.032	n/a	CORD	9	12	[0, 0, 0]	n/a	FR1	1	R1427T
1358.561	1.627	1441393	REC_WORD	1.627	n/a	THREAD	5	12	[0, 0, 0]	n/a	FR1	1	R1427T
1360.188	0.0	1443022	REC_END	n/a	n/a	n/a	-999	12	[0, 0, 0]	n/a	FR1	1	R1427T
