onset	duration	sample	trial_type	response_time	stim_file	item_name	serialpos	list	test	answer	experiment	session	subject
0.0	38.681	1649	INSTRUCT_START	n/a	n/a	n/a	-999	-999	[0, 0, 0]	n/a	FR1	3	R1341T
38.681	3.15	40329	INSTRUCT_END	n/a	n/a	n/a	-999	-999	[0, 0, 0]	n/a	FR1	3	R1341T
41.831	23.394	43478	MIC TEST_START	n/a	n/a	n/a	-999	-999	[0, 0, 0]	n/a	FR1	3	R1341T
65.225	0.008	66871	MIC TEST_END	n/a	n/a	n/a	-999	-999	[0, 0, 0]	n/a	FR1	3	R1341T
65.233	0.0	66879	TRIAL_START	n/a	n/a	n/a	-999	-1	[0, 0, 0]	n/a	FR1	3	R1341T
65.233	0.001	66879	TRIAL	n/a	n/a	n/a	-999	-1	[0, 0, 0]	n/a	FR1	3	R1341T
65.234	14.055	66880	WAITING_START	n/a	n/a	n/a	-999	-1	[0, 0, 0]	n/a	FR1	3	R1341T
79.289	0.0	80935	COUNTDOWN_START	n/a	n/a	n/a	-999	-1	[0, 0, 0]	n/a	FR1	3	R1341T
79.289	10.429	80935	WAITING_END	n/a	n/a	n/a	-999	-1	[0, 0, 0]	n/a	FR1	3	R1341T
89.718	0.0	91363	COUNTDOWN_END	n/a	n/a	n/a	-999	-1	[0, 0, 0]	n/a	FR1	3	R1341T
89.718	1.071	91363	ORIENT_START	n/a	n/a	n/a	-999	-1	[0, 0, 0]	n/a	FR1	3	R1341T
90.789	0.001	92434	ORIENT_END	n/a	n/a	n/a	-999	-1	[0, 0, 0]	n/a	FR1	3	R1341T
90.79	0.899	92435	ENCODING_START	n/a	n/a	n/a	-999	-1	[0, 0, 0]	n/a	FR1	3	R1341T
91.689	1.635	93334	WORD	n/a	n/a	IMAGE	1	-1	[0, 0, 0]	n/a	FR1	3	R1341T
93.324	1.017	94969	WORD_OFF	n/a	n/a	IMAGE	1	-1	[0, 0, 0]	n/a	FR1	3	R1341T
94.341	1.633	95986	WORD	n/a	n/a	TONGUE	2	-1	[0, 0, 0]	n/a	FR1	3	R1341T
95.974	0.908	97619	WORD_OFF	n/a	n/a	TONGUE	2	-1	[0, 0, 0]	n/a	FR1	3	R1341T
96.882	1.61	98527	WORD	n/a	n/a	BABY	3	-1	[0, 0, 0]	n/a	FR1	3	R1341T
98.492	0.922	100137	WORD_OFF	n/a	n/a	BABY	3	-1	[0, 0, 0]	n/a	FR1	3	R1341T
99.414	1.627	101059	WORD	n/a	n/a	CAMEL	4	-1	[0, 0, 0]	n/a	FR1	3	R1341T
101.041	0.854	102686	WORD_OFF	n/a	n/a	CAMEL	4	-1	[0, 0, 0]	n/a	FR1	3	R1341T
101.895	1.631	103540	WORD	n/a	n/a	COTTON	5	-1	[0, 0, 0]	n/a	FR1	3	R1341T
103.526	0.993	105171	WORD_OFF	n/a	n/a	COTTON	5	-1	[0, 0, 0]	n/a	FR1	3	R1341T
104.519	1.623	106164	WORD	n/a	n/a	RING	6	-1	[0, 0, 0]	n/a	FR1	3	R1341T
106.142	0.769	107787	WORD_OFF	n/a	n/a	RING	6	-1	[0, 0, 0]	n/a	FR1	3	R1341T
106.911	1.616	108556	WORD	n/a	n/a	WAGON	7	-1	[0, 0, 0]	n/a	FR1	3	R1341T
108.527	0.875	110171	WORD_OFF	n/a	n/a	WAGON	7	-1	[0, 0, 0]	n/a	FR1	3	R1341T
109.402	1.625	111046	WORD	n/a	n/a	CHEST	8	-1	[0, 0, 0]	n/a	FR1	3	R1341T
111.027	1.079	112671	WORD_OFF	n/a	n/a	CHEST	8	-1	[0, 0, 0]	n/a	FR1	3	R1341T
112.106	1.622	113750	WORD	n/a	n/a	WATCH	9	-1	[0, 0, 0]	n/a	FR1	3	R1341T
113.728	1.128	115372	WORD_OFF	n/a	n/a	WATCH	9	-1	[0, 0, 0]	n/a	FR1	3	R1341T
114.856	1.622	116500	WORD	n/a	n/a	FLOOD	10	-1	[0, 0, 0]	n/a	FR1	3	R1341T
116.478	0.961	118122	WORD_OFF	n/a	n/a	FLOOD	10	-1	[0, 0, 0]	n/a	FR1	3	R1341T
117.439	1.622	119083	WORD	n/a	n/a	RHINO	11	-1	[0, 0, 0]	n/a	FR1	3	R1341T
119.061	0.839	120705	WORD_OFF	n/a	n/a	RHINO	11	-1	[0, 0, 0]	n/a	FR1	3	R1341T
119.9	1.612	121544	WORD	n/a	n/a	BEAM	12	-1	[0, 0, 0]	n/a	FR1	3	R1341T
121.512	0.001	123156	WORD_OFF	n/a	n/a	BEAM	12	-1	[0, 0, 0]	n/a	FR1	3	R1341T
121.513	0.0	123157	ENCODING_END	n/a	n/a	n/a	-999	-1	[0, 0, 0]	n/a	FR1	3	R1341T
121.513	0.0	123157	DISTRACT_START	n/a	n/a	n/a	-999	-1	[0, 0, 0]	n/a	FR1	3	R1341T
121.513	0.016	123157	START	n/a	n/a	n/a	-999	-1	[-999, -999, -999]	n/a	FR1	3	R1341T
121.529	8.752	123173	PROB	8.752	n/a	n/a	-999	-1	[3, 9, 1]	13	FR1	3	R1341T
130.281	2.549	131925	PROB	2.549	n/a	n/a	-999	-1	[2, 5, 1]	8	FR1	3	R1341T
132.83	11.106	134473	PROB	11.106	n/a	n/a	-999	-1	[9, 3, 3]	15	FR1	3	R1341T
143.936	0.013	145579	STOP	n/a	n/a	n/a	-999	-1	[-999, -999, -999]	n/a	FR1	3	R1341T
143.949	0.623	145592	DISTRACT_END	n/a	n/a	n/a	-999	-1	[0, 0, 0]	n/a	FR1	3	R1341T
144.572	1.712	146215	RETRIEVAL_ORIENT_START	n/a	n/a	n/a	-999	-1	[0, 0, 0]	n/a	FR1	3	R1341T
146.284	0.0	147927	RETRIEVAL_ORIENT_END	n/a	n/a	n/a	-999	-1	[0, 0, 0]	n/a	FR1	3	R1341T
146.284	1.394	147927	REC_START	n/a	n/a	n/a	-999	-1	[0, 0, 0]	n/a	FR1	3	R1341T
147.678	0.613	149321	REC_WORD	0.613	n/a	IMAGE	-999	-1	[0, 0, 0]	n/a	FR1	3	R1341T
148.291	0.524	149934	REC_WORD	0.524	n/a	TONGUE	-999	-1	[0, 0, 0]	n/a	FR1	3	R1341T
148.815	3.042	150458	REC_WORD	3.042	n/a	BABY	-999	-1	[0, 0, 0]	n/a	FR1	3	R1341T
151.857	0.757	153500	REC_WORD	0.757	n/a	CAMEL	-999	-1	[0, 0, 0]	n/a	FR1	3	R1341T
152.614	2.529	154257	REC_WORD	2.529	n/a	COTTON	-999	-1	[0, 0, 0]	n/a	FR1	3	R1341T
155.143	0.921	156785	REC_WORD	0.921	n/a	BEAM	-999	-1	[0, 0, 0]	n/a	FR1	3	R1341T
156.064	20.231	157706	REC_WORD	20.231	n/a	RHINO	-999	-1	[0, 0, 0]	n/a	FR1	3	R1341T
176.295	0.0	177936	REC_END	n/a	n/a	n/a	-999	-1	[0, 0, 0]	n/a	FR1	3	R1341T
176.295	5.129	177936	PRACTICE_POST_INSTRUCT_START	n/a	n/a	n/a	-999	-1	[0, 0, 0]	n/a	FR1	3	R1341T
181.424	0.001	183065	PRACTICE_POST_INSTRUCT_END	n/a	n/a	n/a	-999	-1	[0, 0, 0]	n/a	FR1	3	R1341T
181.425	0.016	183066	TRIAL_END	n/a	n/a	n/a	-999	-1	[0, 0, 0]	n/a	FR1	3	R1341T
181.441	0.0	183082	WAITING_START	n/a	n/a	n/a	-999	1	[0, 0, 0]	n/a	FR1	3	R1341T
181.441	0.0	183082	TRIAL	n/a	n/a	n/a	-999	1	[0, 0, 0]	n/a	FR1	3	R1341T
181.441	1.116	183082	TRIAL_START	n/a	n/a	n/a	-999	1	[0, 0, 0]	n/a	FR1	3	R1341T
182.557	0.001	184198	WAITING_END	n/a	n/a	n/a	-999	1	[0, 0, 0]	n/a	FR1	3	R1341T
182.558	10.429	184199	COUNTDOWN_START	n/a	n/a	n/a	-999	1	[0, 0, 0]	n/a	FR1	3	R1341T
192.987	0.0	194628	COUNTDOWN_END	n/a	n/a	n/a	-999	1	[0, 0, 0]	n/a	FR1	3	R1341T
192.987	1.239	194628	ORIENT_START	n/a	n/a	n/a	-999	1	[0, 0, 0]	n/a	FR1	3	R1341T
194.226	0.0	195867	ORIENT_END	n/a	n/a	n/a	-999	1	[0, 0, 0]	n/a	FR1	3	R1341T
194.226	0.795	195867	ENCODING_START	n/a	n/a	n/a	-999	1	[0, 0, 0]	n/a	FR1	3	R1341T
195.021	1.622	196662	WORD	n/a	n/a	CROWN	1	1	[0, 0, 0]	n/a	FR1	3	R1341T
196.643	1.051	198284	WORD_OFF	n/a	n/a	CROWN	1	1	[0, 0, 0]	n/a	FR1	3	R1341T
197.694	1.633	199335	WORD	n/a	n/a	HORSE	2	1	[0, 0, 0]	n/a	FR1	3	R1341T
199.327	0.832	200967	WORD_OFF	n/a	n/a	HORSE	2	1	[0, 0, 0]	n/a	FR1	3	R1341T
200.159	1.634	201799	WORD	n/a	n/a	SNAKE	3	1	[0, 0, 0]	n/a	FR1	3	R1341T
201.793	0.91	203433	WORD_OFF	n/a	n/a	SNAKE	3	1	[0, 0, 0]	n/a	FR1	3	R1341T
202.703	1.625	204343	WORD	n/a	n/a	FOOT	4	1	[0, 0, 0]	n/a	FR1	3	R1341T
204.328	0.83	205968	WORD_OFF	n/a	n/a	FOOT	4	1	[0, 0, 0]	n/a	FR1	3	R1341T
205.158	1.636	206798	WORD	n/a	n/a	TOOL	5	1	[0, 0, 0]	n/a	FR1	3	R1341T
206.794	0.81	208434	WORD_OFF	n/a	n/a	TOOL	5	1	[0, 0, 0]	n/a	FR1	3	R1341T
207.604	1.625	209244	WORD	n/a	n/a	HAWK	6	1	[0, 0, 0]	n/a	FR1	3	R1341T
209.229	0.887	210869	WORD_OFF	n/a	n/a	HAWK	6	1	[0, 0, 0]	n/a	FR1	3	R1341T
210.116	1.63	211756	WORD	n/a	n/a	CHALK	7	1	[0, 0, 0]	n/a	FR1	3	R1341T
211.746	0.763	213386	WORD_OFF	n/a	n/a	CHALK	7	1	[0, 0, 0]	n/a	FR1	3	R1341T
212.509	1.636	214149	WORD	n/a	n/a	NET	8	1	[0, 0, 0]	n/a	FR1	3	R1341T
214.145	0.836	215785	WORD_OFF	n/a	n/a	NET	8	1	[0, 0, 0]	n/a	FR1	3	R1341T
214.981	1.615	216621	WORD	n/a	n/a	SWAMP	9	1	[0, 0, 0]	n/a	FR1	3	R1341T
216.596	0.832	218236	WORD_OFF	n/a	n/a	SWAMP	9	1	[0, 0, 0]	n/a	FR1	3	R1341T
217.428	1.635	219068	WORD	n/a	n/a	STORM	10	1	[0, 0, 0]	n/a	FR1	3	R1341T
219.063	1.123	220703	WORD_OFF	n/a	n/a	STORM	10	1	[0, 0, 0]	n/a	FR1	3	R1341T
220.186	1.627	221826	WORD	n/a	n/a	FAN	11	1	[0, 0, 0]	n/a	FR1	3	R1341T
221.813	1.138	223452	WORD_OFF	n/a	n/a	FAN	11	1	[0, 0, 0]	n/a	FR1	3	R1341T
222.951	1.613	224590	WORD	n/a	n/a	POND	12	1	[0, 0, 0]	n/a	FR1	3	R1341T
224.564	0.001	226203	WORD_OFF	n/a	n/a	POND	12	1	[0, 0, 0]	n/a	FR1	3	R1341T
224.565	0.0	226204	ENCODING_END	n/a	n/a	n/a	-999	1	[0, 0, 0]	n/a	FR1	3	R1341T
224.565	0.0	226204	DISTRACT_START	n/a	n/a	n/a	-999	1	[0, 0, 0]	n/a	FR1	3	R1341T
224.565	0.016	226204	START	n/a	n/a	n/a	-999	1	[-999, -999, -999]	n/a	FR1	3	R1341T
224.581	3.101	226220	PROB	3.101	n/a	n/a	-999	1	[1, 4, 1]	6	FR1	3	R1341T
227.682	2.516	229321	PROB	2.516	n/a	n/a	-999	1	[1, 2, 1]	4	FR1	3	R1341T
230.198	8.635	231837	PROB	8.635	n/a	n/a	-999	1	[8, 6, 5]	19	FR1	3	R1341T
238.833	15.475	240472	PROB	15.475	n/a	n/a	-999	1	[9, 3, 7]	19	FR1	3	R1341T
254.308	0.012	255946	STOP	n/a	n/a	n/a	-999	1	[-999, -999, -999]	n/a	FR1	3	R1341T
254.32	0.62	255958	DISTRACT_END	n/a	n/a	n/a	-999	1	[0, 0, 0]	n/a	FR1	3	R1341T
254.94	1.597	256578	RETRIEVAL_ORIENT_START	n/a	n/a	n/a	-999	1	[0, 0, 0]	n/a	FR1	3	R1341T
256.537	0.0	258175	RETRIEVAL_ORIENT_END	n/a	n/a	n/a	-999	1	[0, 0, 0]	n/a	FR1	3	R1341T
256.537	3.166	258175	REC_START	n/a	n/a	n/a	-999	1	[0, 0, 0]	n/a	FR1	3	R1341T
259.703	0.612	261341	REC_WORD	0.612	n/a	CROWN	1	1	[0, 0, 0]	n/a	FR1	3	R1341T
260.315	0.545	261953	REC_WORD	0.545	n/a	HORSE	2	1	[0, 0, 0]	n/a	FR1	3	R1341T
260.86	0.757	262498	REC_WORD	0.757	n/a	SNAKE	3	1	[0, 0, 0]	n/a	FR1	3	R1341T
261.617	1.812	263255	REC_WORD	1.812	n/a	FOOT	4	1	[0, 0, 0]	n/a	FR1	3	R1341T
263.429	1.198	265067	REC_WORD	1.198	n/a	FAN	11	1	[0, 0, 0]	n/a	FR1	3	R1341T
264.627	3.84	266265	REC_WORD	3.84	n/a	POND	12	1	[0, 0, 0]	n/a	FR1	3	R1341T
268.467	18.084	270104	REC_WORD	18.084	n/a	TOOL	5	1	[0, 0, 0]	n/a	FR1	3	R1341T
286.551	0.0	288188	REC_END	n/a	n/a	n/a	-999	1	[0, 0, 0]	n/a	FR1	3	R1341T
286.551	0.015	288188	TRIAL_END	n/a	n/a	n/a	-999	1	[0, 0, 0]	n/a	FR1	3	R1341T
286.566	0.0	288203	WAITING_START	n/a	n/a	n/a	-999	2	[0, 0, 0]	n/a	FR1	3	R1341T
286.566	0.0	288203	TRIAL_START	n/a	n/a	n/a	-999	2	[0, 0, 0]	n/a	FR1	3	R1341T
286.566	1.977	288203	TRIAL	n/a	n/a	n/a	-999	2	[0, 0, 0]	n/a	FR1	3	R1341T
288.543	0.001	290180	WAITING_END	n/a	n/a	n/a	-999	2	[0, 0, 0]	n/a	FR1	3	R1341T
288.544	10.429	290181	COUNTDOWN_START	n/a	n/a	n/a	-999	2	[0, 0, 0]	n/a	FR1	3	R1341T
298.973	0.0	300609	COUNTDOWN_END	n/a	n/a	n/a	-999	2	[0, 0, 0]	n/a	FR1	3	R1341T
298.973	1.038	300609	ORIENT_START	n/a	n/a	n/a	-999	2	[0, 0, 0]	n/a	FR1	3	R1341T
300.011	0.0	301647	ENCODING_START	n/a	n/a	n/a	-999	2	[0, 0, 0]	n/a	FR1	3	R1341T
300.011	0.958	301647	ORIENT_END	n/a	n/a	n/a	-999	2	[0, 0, 0]	n/a	FR1	3	R1341T
300.969	1.626	302605	WORD	n/a	n/a	SPOON	1	2	[0, 0, 0]	n/a	FR1	3	R1341T
302.595	0.896	304231	WORD_OFF	n/a	n/a	SPOON	1	2	[0, 0, 0]	n/a	FR1	3	R1341T
303.491	1.637	305127	WORD	n/a	n/a	HOOK	2	2	[0, 0, 0]	n/a	FR1	3	R1341T
305.128	1.146	306764	WORD_OFF	n/a	n/a	HOOK	2	2	[0, 0, 0]	n/a	FR1	3	R1341T
306.274	1.622	307910	WORD	n/a	n/a	EEL	3	2	[0, 0, 0]	n/a	FR1	3	R1341T
307.896	0.953	309532	WORD_OFF	n/a	n/a	EEL	3	2	[0, 0, 0]	n/a	FR1	3	R1341T
308.849	1.631	310485	WORD	n/a	n/a	CAPE	4	2	[0, 0, 0]	n/a	FR1	3	R1341T
310.48	0.909	312116	WORD_OFF	n/a	n/a	CAPE	4	2	[0, 0, 0]	n/a	FR1	3	R1341T
311.389	1.624	313025	WORD	n/a	n/a	LAWN	5	2	[0, 0, 0]	n/a	FR1	3	R1341T
313.013	0.871	314648	WORD_OFF	n/a	n/a	LAWN	5	2	[0, 0, 0]	n/a	FR1	3	R1341T
313.884	1.631	315519	WORD	n/a	n/a	BATH	6	2	[0, 0, 0]	n/a	FR1	3	R1341T
315.515	0.948	317150	WORD_OFF	n/a	n/a	BATH	6	2	[0, 0, 0]	n/a	FR1	3	R1341T
316.463	1.634	318098	WORD	n/a	n/a	CORD	7	2	[0, 0, 0]	n/a	FR1	3	R1341T
318.097	0.787	319732	WORD_OFF	n/a	n/a	CORD	7	2	[0, 0, 0]	n/a	FR1	3	R1341T
318.884	1.631	320519	WORD	n/a	n/a	BADGE	8	2	[0, 0, 0]	n/a	FR1	3	R1341T
320.515	0.841	322150	WORD_OFF	n/a	n/a	BADGE	8	2	[0, 0, 0]	n/a	FR1	3	R1341T
321.356	1.626	322991	WORD	n/a	n/a	SNOW	9	2	[0, 0, 0]	n/a	FR1	3	R1341T
322.982	1.039	324617	WORD_OFF	n/a	n/a	SNOW	9	2	[0, 0, 0]	n/a	FR1	3	R1341T
324.021	1.629	325656	WORD	n/a	n/a	SIGN	10	2	[0, 0, 0]	n/a	FR1	3	R1341T
325.65	0.83	327285	WORD_OFF	n/a	n/a	SIGN	10	2	[0, 0, 0]	n/a	FR1	3	R1341T
326.48	1.636	328115	WORD	n/a	n/a	DITCH	11	2	[0, 0, 0]	n/a	FR1	3	R1341T
328.116	0.87	329751	WORD_OFF	n/a	n/a	DITCH	11	2	[0, 0, 0]	n/a	FR1	3	R1341T
328.986	1.631	330621	WORD	n/a	n/a	SHOE	12	2	[0, 0, 0]	n/a	FR1	3	R1341T
330.617	0.001	332252	WORD_OFF	n/a	n/a	SHOE	12	2	[0, 0, 0]	n/a	FR1	3	R1341T
330.618	0.0	332253	ENCODING_END	n/a	n/a	n/a	-999	2	[0, 0, 0]	n/a	FR1	3	R1341T
330.618	0.0	332253	DISTRACT_START	n/a	n/a	n/a	-999	2	[0, 0, 0]	n/a	FR1	3	R1341T
330.618	0.016	332253	START	n/a	n/a	n/a	-999	2	[-999, -999, -999]	n/a	FR1	3	R1341T
330.634	5.55	332269	PROB	5.55	n/a	n/a	-999	2	[5, 5, 7]	17	FR1	3	R1341T
336.184	5.552	337818	PROB	5.552	n/a	n/a	-999	2	[7, 1, 8]	16	FR1	3	R1341T
341.736	13.772	343370	PROB	13.772	n/a	n/a	-999	2	[7, 9, 8]	24	FR1	3	R1341T
355.508	0.014	357142	STOP	n/a	n/a	n/a	-999	2	[-999, -999, -999]	n/a	FR1	3	R1341T
355.522	0.581	357156	DISTRACT_END	n/a	n/a	n/a	-999	2	[0, 0, 0]	n/a	FR1	3	R1341T
356.103	1.701	357737	RETRIEVAL_ORIENT_START	n/a	n/a	n/a	-999	2	[0, 0, 0]	n/a	FR1	3	R1341T
357.804	0.001	359437	RETRIEVAL_ORIENT_END	n/a	n/a	n/a	-999	2	[0, 0, 0]	n/a	FR1	3	R1341T
357.805	2.116	359438	REC_START	n/a	n/a	n/a	-999	2	[0, 0, 0]	n/a	FR1	3	R1341T
359.921	0.979	361554	REC_WORD	0.979	n/a	SPOON	1	2	[0, 0, 0]	n/a	FR1	3	R1341T
360.9	1.538	362533	REC_WORD	1.538	n/a	HOOK	2	2	[0, 0, 0]	n/a	FR1	3	R1341T
362.438	2.4	364071	REC_WORD	2.4	n/a	TAPE	-999	2	[0, 0, 0]	n/a	FR1	3	R1341T
364.838	6.914	366471	REC_WORD	6.914	n/a	LAWN	5	2	[0, 0, 0]	n/a	FR1	3	R1341T
371.752	1.448	373385	REC_WORD	1.448	n/a	BABY	-999	2	[0, 0, 0]	n/a	FR1	3	R1341T
373.2	0.848	374833	REC_WORD_VV	0.848	n/a	<>	-999	2	[0, 0, 0]	n/a	FR1	3	R1341T
374.048	1.093	375681	REC_WORD	1.093	n/a	BATH	6	2	[0, 0, 0]	n/a	FR1	3	R1341T
375.141	12.678	376774	REC_WORD_VV	12.678	n/a	<>	-999	2	[0, 0, 0]	n/a	FR1	3	R1341T
387.819	0.0	389451	TRIAL_END	n/a	n/a	n/a	-999	2	[0, 0, 0]	n/a	FR1	3	R1341T
387.819	0.015	389451	REC_END	n/a	n/a	n/a	-999	2	[0, 0, 0]	n/a	FR1	3	R1341T
387.834	0.001	389466	TRIAL_START	n/a	n/a	n/a	-999	3	[0, 0, 0]	n/a	FR1	3	R1341T
387.835	0.0	389467	TRIAL	n/a	n/a	n/a	-999	3	[0, 0, 0]	n/a	FR1	3	R1341T
387.835	2.743	389467	WAITING_START	n/a	n/a	n/a	-999	3	[0, 0, 0]	n/a	FR1	3	R1341T
390.578	0.0	392210	WAITING_END	n/a	n/a	n/a	-999	3	[0, 0, 0]	n/a	FR1	3	R1341T
390.578	10.43	392210	COUNTDOWN_START	n/a	n/a	n/a	-999	3	[0, 0, 0]	n/a	FR1	3	R1341T
401.008	0.0	402640	COUNTDOWN_END	n/a	n/a	n/a	-999	3	[0, 0, 0]	n/a	FR1	3	R1341T
401.008	1.205	402640	ORIENT_START	n/a	n/a	n/a	-999	3	[0, 0, 0]	n/a	FR1	3	R1341T
402.213	0.001	403844	ORIENT_END	n/a	n/a	n/a	-999	3	[0, 0, 0]	n/a	FR1	3	R1341T
402.214	0.992	403845	ENCODING_START	n/a	n/a	n/a	-999	3	[0, 0, 0]	n/a	FR1	3	R1341T
403.206	1.624	404837	WORD	n/a	n/a	BEAR	1	3	[0, 0, 0]	n/a	FR1	3	R1341T
404.83	1.073	406461	WORD_OFF	n/a	n/a	BEAR	1	3	[0, 0, 0]	n/a	FR1	3	R1341T
405.903	1.611	407534	WORD	n/a	n/a	CAT	2	3	[0, 0, 0]	n/a	FR1	3	R1341T
407.514	1.117	409145	WORD_OFF	n/a	n/a	CAT	2	3	[0, 0, 0]	n/a	FR1	3	R1341T
408.631	1.634	410262	WORD	n/a	n/a	WAND	3	3	[0, 0, 0]	n/a	FR1	3	R1341T
410.265	0.845	411896	WORD_OFF	n/a	n/a	WAND	3	3	[0, 0, 0]	n/a	FR1	3	R1341T
411.11	1.605	412741	WORD	n/a	n/a	TOE	4	3	[0, 0, 0]	n/a	FR1	3	R1341T
412.715	0.999	414346	WORD_OFF	n/a	n/a	TOE	4	3	[0, 0, 0]	n/a	FR1	3	R1341T
413.714	1.635	415345	WORD	n/a	n/a	VINE	5	3	[0, 0, 0]	n/a	FR1	3	R1341T
415.349	1.143	416980	WORD_OFF	n/a	n/a	VINE	5	3	[0, 0, 0]	n/a	FR1	3	R1341T
416.492	1.624	418123	WORD	n/a	n/a	COW	6	3	[0, 0, 0]	n/a	FR1	3	R1341T
418.116	0.798	419747	WORD_OFF	n/a	n/a	COW	6	3	[0, 0, 0]	n/a	FR1	3	R1341T
418.914	1.619	420545	WORD	n/a	n/a	DOG	7	3	[0, 0, 0]	n/a	FR1	3	R1341T
420.533	0.763	422164	WORD_OFF	n/a	n/a	DOG	7	3	[0, 0, 0]	n/a	FR1	3	R1341T
421.296	1.62	422927	WORD	n/a	n/a	BAT	8	3	[0, 0, 0]	n/a	FR1	3	R1341T
422.916	0.921	424547	WORD_OFF	n/a	n/a	BAT	8	3	[0, 0, 0]	n/a	FR1	3	R1341T
423.837	1.631	425468	WORD	n/a	n/a	MUD	9	3	[0, 0, 0]	n/a	FR1	3	R1341T
425.468	0.94	427098	WORD_OFF	n/a	n/a	MUD	9	3	[0, 0, 0]	n/a	FR1	3	R1341T
426.408	1.626	428038	WORD	n/a	n/a	CHIEF	10	3	[0, 0, 0]	n/a	FR1	3	R1341T
428.034	0.87	429664	WORD_OFF	n/a	n/a	CHIEF	10	3	[0, 0, 0]	n/a	FR1	3	R1341T
428.904	1.631	430534	WORD	n/a	n/a	TRUCK	11	3	[0, 0, 0]	n/a	FR1	3	R1341T
430.535	1.059	432165	WORD_OFF	n/a	n/a	TRUCK	11	3	[0, 0, 0]	n/a	FR1	3	R1341T
431.594	1.625	433224	WORD	n/a	n/a	FOG	12	3	[0, 0, 0]	n/a	FR1	3	R1341T
433.219	0.001	434849	WORD_OFF	n/a	n/a	FOG	12	3	[0, 0, 0]	n/a	FR1	3	R1341T
433.22	0.0	434850	ENCODING_END	n/a	n/a	n/a	-999	3	[0, 0, 0]	n/a	FR1	3	R1341T
433.22	0.0	434850	DISTRACT_START	n/a	n/a	n/a	-999	3	[0, 0, 0]	n/a	FR1	3	R1341T
433.22	0.016	434850	START	n/a	n/a	n/a	-999	3	[-999, -999, -999]	n/a	FR1	3	R1341T
433.236	8.301	434866	PROB	8.301	n/a	n/a	-999	3	[5, 7, 5]	17	FR1	3	R1341T
441.537	3.734	443167	PROB	3.734	n/a	n/a	-999	3	[2, 7, 4]	13	FR1	3	R1341T
445.271	3.817	446901	PROB	3.817	n/a	n/a	-999	3	[9, 9, 8]	26	FR1	3	R1341T
449.088	4.304	450717	PROB	4.304	n/a	n/a	-999	3	[3, 1, 2]	6	FR1	3	R1341T
453.392	0.014	455021	STOP	n/a	n/a	n/a	-999	3	[-999, -999, -999]	n/a	FR1	3	R1341T
453.406	0.503	455035	DISTRACT_END	n/a	n/a	n/a	-999	3	[0, 0, 0]	n/a	FR1	3	R1341T
453.909	1.664	455538	RETRIEVAL_ORIENT_START	n/a	n/a	n/a	-999	3	[0, 0, 0]	n/a	FR1	3	R1341T
455.573	0.001	457202	RETRIEVAL_ORIENT_END	n/a	n/a	n/a	-999	3	[0, 0, 0]	n/a	FR1	3	R1341T
455.574	3.424	457203	REC_START	n/a	n/a	n/a	-999	3	[0, 0, 0]	n/a	FR1	3	R1341T
458.998	0.599	460627	REC_WORD	0.599	n/a	BEAR	1	3	[0, 0, 0]	n/a	FR1	3	R1341T
459.597	9.816	461226	REC_WORD	9.816	n/a	CAT	2	3	[0, 0, 0]	n/a	FR1	3	R1341T
469.413	16.173	471042	REC_WORD	16.173	n/a	WAND	3	3	[0, 0, 0]	n/a	FR1	3	R1341T
485.586	0.0	487214	REC_END	n/a	n/a	n/a	-999	3	[0, 0, 0]	n/a	FR1	3	R1341T
485.586	0.017	487214	TRIAL_END	n/a	n/a	n/a	-999	3	[0, 0, 0]	n/a	FR1	3	R1341T
485.603	0.0	487231	WAITING_START	n/a	n/a	n/a	-999	4	[0, 0, 0]	n/a	FR1	3	R1341T
485.603	0.0	487231	TRIAL	n/a	n/a	n/a	-999	4	[0, 0, 0]	n/a	FR1	3	R1341T
485.603	2.375	487231	TRIAL_START	n/a	n/a	n/a	-999	4	[0, 0, 0]	n/a	FR1	3	R1341T
487.978	0.0	489606	WAITING_END	n/a	n/a	n/a	-999	4	[0, 0, 0]	n/a	FR1	3	R1341T
487.978	10.43	489606	COUNTDOWN_START	n/a	n/a	n/a	-999	4	[0, 0, 0]	n/a	FR1	3	R1341T
498.408	0.0	500035	COUNTDOWN_END	n/a	n/a	n/a	-999	4	[0, 0, 0]	n/a	FR1	3	R1341T
498.408	1.073	500035	ORIENT_START	n/a	n/a	n/a	-999	4	[0, 0, 0]	n/a	FR1	3	R1341T
499.481	0.001	501108	ORIENT_END	n/a	n/a	n/a	-999	4	[0, 0, 0]	n/a	FR1	3	R1341T
499.482	0.858	501109	ENCODING_START	n/a	n/a	n/a	-999	4	[0, 0, 0]	n/a	FR1	3	R1341T
500.34	1.624	501967	WORD	n/a	n/a	PEACH	1	4	[0, 0, 0]	n/a	FR1	3	R1341T
501.964	1.07	503591	WORD_OFF	n/a	n/a	PEACH	1	4	[0, 0, 0]	n/a	FR1	3	R1341T
503.034	1.615	504661	WORD	n/a	n/a	SPONGE	2	4	[0, 0, 0]	n/a	FR1	3	R1341T
504.649	1.147	506276	WORD_OFF	n/a	n/a	SPONGE	2	4	[0, 0, 0]	n/a	FR1	3	R1341T
505.796	1.637	507423	WORD	n/a	n/a	LEG	3	4	[0, 0, 0]	n/a	FR1	3	R1341T
507.433	0.775	509060	WORD_OFF	n/a	n/a	LEG	3	4	[0, 0, 0]	n/a	FR1	3	R1341T
508.208	1.624	509835	WORD	n/a	n/a	MAIL	4	4	[0, 0, 0]	n/a	FR1	3	R1341T
509.832	0.891	511459	WORD_OFF	n/a	n/a	MAIL	4	4	[0, 0, 0]	n/a	FR1	3	R1341T
510.723	1.627	512350	WORD	n/a	n/a	CLOCK	5	4	[0, 0, 0]	n/a	FR1	3	R1341T
512.35	1.053	513977	WORD_OFF	n/a	n/a	CLOCK	5	4	[0, 0, 0]	n/a	FR1	3	R1341T
513.403	1.63	515030	WORD	n/a	n/a	PHONE	6	4	[0, 0, 0]	n/a	FR1	3	R1341T
515.033	1.111	516660	WORD_OFF	n/a	n/a	PHONE	6	4	[0, 0, 0]	n/a	FR1	3	R1341T
516.144	1.624	517770	WORD	n/a	n/a	BRUSH	7	4	[0, 0, 0]	n/a	FR1	3	R1341T
517.768	1.126	519394	WORD_OFF	n/a	n/a	BRUSH	7	4	[0, 0, 0]	n/a	FR1	3	R1341T
518.894	1.608	520520	WORD	n/a	n/a	TENT	8	4	[0, 0, 0]	n/a	FR1	3	R1341T
520.502	1.066	522128	WORD_OFF	n/a	n/a	TENT	8	4	[0, 0, 0]	n/a	FR1	3	R1341T
521.568	1.633	523194	WORD	n/a	n/a	SOCK	9	4	[0, 0, 0]	n/a	FR1	3	R1341T
523.201	1.012	524827	WORD_OFF	n/a	n/a	SOCK	9	4	[0, 0, 0]	n/a	FR1	3	R1341T
524.213	1.622	525839	WORD	n/a	n/a	SEAT	10	4	[0, 0, 0]	n/a	FR1	3	R1341T
525.835	0.773	527461	WORD_OFF	n/a	n/a	SEAT	10	4	[0, 0, 0]	n/a	FR1	3	R1341T
526.608	1.628	528234	WORD	n/a	n/a	BIRD	11	4	[0, 0, 0]	n/a	FR1	3	R1341T
528.236	0.819	529862	WORD_OFF	n/a	n/a	BIRD	11	4	[0, 0, 0]	n/a	FR1	3	R1341T
529.055	1.632	530681	WORD	n/a	n/a	SWORD	12	4	[0, 0, 0]	n/a	FR1	3	R1341T
530.687	0.0	532313	WORD_OFF	n/a	n/a	SWORD	12	4	[0, 0, 0]	n/a	FR1	3	R1341T
530.687	0.001	532313	ENCODING_END	n/a	n/a	n/a	-999	4	[0, 0, 0]	n/a	FR1	3	R1341T
530.688	0.0	532314	DISTRACT_START	n/a	n/a	n/a	-999	4	[0, 0, 0]	n/a	FR1	3	R1341T
530.688	0.015	532314	START	n/a	n/a	n/a	-999	4	[-999, -999, -999]	n/a	FR1	3	R1341T
530.703	21.649	532329	PROB	21.649	n/a	n/a	-999	4	[6, 7, 4]	17	FR1	3	R1341T
552.352	0.022	553977	STOP	n/a	n/a	n/a	-999	4	[-999, -999, -999]	n/a	FR1	3	R1341T
552.374	0.517	553999	DISTRACT_END	n/a	n/a	n/a	-999	4	[0, 0, 0]	n/a	FR1	3	R1341T
552.891	1.684	554516	RETRIEVAL_ORIENT_START	n/a	n/a	n/a	-999	4	[0, 0, 0]	n/a	FR1	3	R1341T
554.575	0.0	556200	REC_START	n/a	n/a	n/a	-999	4	[0, 0, 0]	n/a	FR1	3	R1341T
554.575	1.221	556200	RETRIEVAL_ORIENT_END	n/a	n/a	n/a	-999	4	[0, 0, 0]	n/a	FR1	3	R1341T
555.796	1.054	557421	REC_WORD	1.054	n/a	SEAT	10	4	[0, 0, 0]	n/a	FR1	3	R1341T
556.85	0.711	558475	REC_WORD	0.711	n/a	BIRD	11	4	[0, 0, 0]	n/a	FR1	3	R1341T
557.561	27.025	559186	REC_WORD	27.025	n/a	SWORD	12	4	[0, 0, 0]	n/a	FR1	3	R1341T
584.586	0.0	586209	REC_END	n/a	n/a	n/a	-999	4	[0, 0, 0]	n/a	FR1	3	R1341T
584.586	0.015	586209	TRIAL_END	n/a	n/a	n/a	-999	4	[0, 0, 0]	n/a	FR1	3	R1341T
584.601	0.0	586224	WAITING_START	n/a	n/a	n/a	-999	5	[0, 0, 0]	n/a	FR1	3	R1341T
584.601	0.0	586224	TRIAL_START	n/a	n/a	n/a	-999	5	[0, 0, 0]	n/a	FR1	3	R1341T
584.601	1.963	586224	TRIAL	n/a	n/a	n/a	-999	5	[0, 0, 0]	n/a	FR1	3	R1341T
586.564	0.0	588187	COUNTDOWN_START	n/a	n/a	n/a	-999	5	[0, 0, 0]	n/a	FR1	3	R1341T
586.564	10.43	588187	WAITING_END	n/a	n/a	n/a	-999	5	[0, 0, 0]	n/a	FR1	3	R1341T
596.994	0.0	598617	COUNTDOWN_END	n/a	n/a	n/a	-999	5	[0, 0, 0]	n/a	FR1	3	R1341T
596.994	1.054	598617	ORIENT_START	n/a	n/a	n/a	-999	5	[0, 0, 0]	n/a	FR1	3	R1341T
598.048	0.001	599671	ORIENT_END	n/a	n/a	n/a	-999	5	[0, 0, 0]	n/a	FR1	3	R1341T
598.049	0.901	599672	ENCODING_START	n/a	n/a	n/a	-999	5	[0, 0, 0]	n/a	FR1	3	R1341T
598.95	1.633	600573	WORD	n/a	n/a	WHALE	1	5	[0, 0, 0]	n/a	FR1	3	R1341T
600.583	1.073	602206	WORD_OFF	n/a	n/a	WHALE	1	5	[0, 0, 0]	n/a	FR1	3	R1341T
601.656	1.627	603279	WORD	n/a	n/a	YARD	2	5	[0, 0, 0]	n/a	FR1	3	R1341T
603.283	0.93	604906	WORD_OFF	n/a	n/a	YARD	2	5	[0, 0, 0]	n/a	FR1	3	R1341T
604.213	1.637	605836	WORD	n/a	n/a	GRASS	3	5	[0, 0, 0]	n/a	FR1	3	R1341T
605.85	1.123	607472	WORD_OFF	n/a	n/a	GRASS	3	5	[0, 0, 0]	n/a	FR1	3	R1341T
606.973	1.628	608595	WORD	n/a	n/a	CRANE	4	5	[0, 0, 0]	n/a	FR1	3	R1341T
608.601	0.984	610223	WORD_OFF	n/a	n/a	CRANE	4	5	[0, 0, 0]	n/a	FR1	3	R1341T
609.585	1.633	611207	WORD	n/a	n/a	CART	5	5	[0, 0, 0]	n/a	FR1	3	R1341T
611.218	0.763	612840	WORD_OFF	n/a	n/a	CART	5	5	[0, 0, 0]	n/a	FR1	3	R1341T
611.981	1.638	613603	WORD	n/a	n/a	VEST	6	5	[0, 0, 0]	n/a	FR1	3	R1341T
613.619	0.882	615241	WORD_OFF	n/a	n/a	VEST	6	5	[0, 0, 0]	n/a	FR1	3	R1341T
614.501	1.634	616123	WORD	n/a	n/a	ARM	7	5	[0, 0, 0]	n/a	FR1	3	R1341T
616.135	1.094	617757	WORD_OFF	n/a	n/a	ARM	7	5	[0, 0, 0]	n/a	FR1	3	R1341T
617.229	1.623	618851	WORD	n/a	n/a	TOAD	8	5	[0, 0, 0]	n/a	FR1	3	R1341T
618.852	1.063	620474	WORD_OFF	n/a	n/a	TOAD	8	5	[0, 0, 0]	n/a	FR1	3	R1341T
619.915	1.622	621537	WORD	n/a	n/a	CHIN	9	5	[0, 0, 0]	n/a	FR1	3	R1341T
621.537	0.923	623159	WORD_OFF	n/a	n/a	CHIN	9	5	[0, 0, 0]	n/a	FR1	3	R1341T
622.46	1.626	624082	WORD	n/a	n/a	DRUM	10	5	[0, 0, 0]	n/a	FR1	3	R1341T
624.086	1.038	625708	WORD_OFF	n/a	n/a	DRUM	10	5	[0, 0, 0]	n/a	FR1	3	R1341T
625.124	1.63	626746	WORD	n/a	n/a	RICE	11	5	[0, 0, 0]	n/a	FR1	3	R1341T
626.754	1.128	628376	WORD_OFF	n/a	n/a	RICE	11	5	[0, 0, 0]	n/a	FR1	3	R1341T
627.882	1.606	629504	WORD	n/a	n/a	OAK	12	5	[0, 0, 0]	n/a	FR1	3	R1341T
629.488	0.0	631109	WORD_OFF	n/a	n/a	OAK	12	5	[0, 0, 0]	n/a	FR1	3	R1341T
629.488	0.001	631109	ENCODING_END	n/a	n/a	n/a	-999	5	[0, 0, 0]	n/a	FR1	3	R1341T
629.489	0.0	631110	DISTRACT_START	n/a	n/a	n/a	-999	5	[0, 0, 0]	n/a	FR1	3	R1341T
629.489	0.016	631110	START	n/a	n/a	n/a	-999	5	[-999, -999, -999]	n/a	FR1	3	R1341T
629.505	12.085	631126	PROB	12.085	n/a	n/a	-999	5	[5, 2, 5]	12	FR1	3	R1341T
641.59	2.851	643211	PROB	2.851	n/a	n/a	-999	5	[2, 5, 8]	15	FR1	3	R1341T
644.441	7.831	646062	PROB	7.831	n/a	n/a	-999	5	[9, 6, 6]	21	FR1	3	R1341T
652.272	0.02	653892	STOP	n/a	n/a	n/a	-999	5	[-999, -999, -999]	n/a	FR1	3	R1341T
652.292	0.556	653912	DISTRACT_END	n/a	n/a	n/a	-999	5	[0, 0, 0]	n/a	FR1	3	R1341T
652.848	1.628	654468	RETRIEVAL_ORIENT_START	n/a	n/a	n/a	-999	5	[0, 0, 0]	n/a	FR1	3	R1341T
654.476	0.0	656096	RETRIEVAL_ORIENT_END	n/a	n/a	n/a	-999	5	[0, 0, 0]	n/a	FR1	3	R1341T
654.476	1.704	656096	REC_START	n/a	n/a	n/a	-999	5	[0, 0, 0]	n/a	FR1	3	R1341T
656.18	0.531	657800	REC_WORD	0.531	n/a	WHALE	1	5	[0, 0, 0]	n/a	FR1	3	R1341T
656.711	1.712	658331	REC_WORD	1.712	n/a	ARM	7	5	[0, 0, 0]	n/a	FR1	3	R1341T
658.423	1.66	660043	REC_WORD	1.66	n/a	TOAD	8	5	[0, 0, 0]	n/a	FR1	3	R1341T
660.083	2.121	661703	REC_WORD	2.121	n/a	CHIN	9	5	[0, 0, 0]	n/a	FR1	3	R1341T
662.204	1.504	663824	REC_WORD	1.504	n/a	RICE	11	5	[0, 0, 0]	n/a	FR1	3	R1341T
663.708	20.782	665328	REC_WORD	20.782	n/a	OAK	12	5	[0, 0, 0]	n/a	FR1	3	R1341T
684.49	0.0	686109	REC_END	n/a	n/a	n/a	-999	5	[0, 0, 0]	n/a	FR1	3	R1341T
684.49	0.015	686109	TRIAL_END	n/a	n/a	n/a	-999	5	[0, 0, 0]	n/a	FR1	3	R1341T
684.505	0.0	686124	TRIAL_START	n/a	n/a	n/a	-999	6	[0, 0, 0]	n/a	FR1	3	R1341T
684.505	0.0	686124	TRIAL	n/a	n/a	n/a	-999	6	[0, 0, 0]	n/a	FR1	3	R1341T
684.505	1.894	686124	WAITING_START	n/a	n/a	n/a	-999	6	[0, 0, 0]	n/a	FR1	3	R1341T
686.399	0.0	688018	COUNTDOWN_START	n/a	n/a	n/a	-999	6	[0, 0, 0]	n/a	FR1	3	R1341T
686.399	10.429	688018	WAITING_END	n/a	n/a	n/a	-999	6	[0, 0, 0]	n/a	FR1	3	R1341T
696.828	0.001	698446	COUNTDOWN_END	n/a	n/a	n/a	-999	6	[0, 0, 0]	n/a	FR1	3	R1341T
696.829	1.054	698447	ORIENT_START	n/a	n/a	n/a	-999	6	[0, 0, 0]	n/a	FR1	3	R1341T
697.883	0.0	699501	ORIENT_END	n/a	n/a	n/a	-999	6	[0, 0, 0]	n/a	FR1	3	R1341T
697.883	0.818	699501	ENCODING_START	n/a	n/a	n/a	-999	6	[0, 0, 0]	n/a	FR1	3	R1341T
698.701	1.633	700319	WORD	n/a	n/a	PEAR	1	6	[0, 0, 0]	n/a	FR1	3	R1341T
700.334	1.033	701952	WORD_OFF	n/a	n/a	PEAR	1	6	[0, 0, 0]	n/a	FR1	3	R1341T
701.367	1.634	702985	WORD	n/a	n/a	ROOF	2	6	[0, 0, 0]	n/a	FR1	3	R1341T
703.001	0.949	704619	WORD_OFF	n/a	n/a	ROOF	2	6	[0, 0, 0]	n/a	FR1	3	R1341T
703.95	1.619	705568	WORD	n/a	n/a	FENCE	3	6	[0, 0, 0]	n/a	FR1	3	R1341T
705.569	0.794	707187	WORD_OFF	n/a	n/a	FENCE	3	6	[0, 0, 0]	n/a	FR1	3	R1341T
706.363	1.622	707981	WORD	n/a	n/a	SPARK	4	6	[0, 0, 0]	n/a	FR1	3	R1341T
707.985	0.968	709603	WORD_OFF	n/a	n/a	SPARK	4	6	[0, 0, 0]	n/a	FR1	3	R1341T
708.953	1.616	710571	WORD	n/a	n/a	BED	5	6	[0, 0, 0]	n/a	FR1	3	R1341T
710.569	0.949	712187	WORD_OFF	n/a	n/a	BED	5	6	[0, 0, 0]	n/a	FR1	3	R1341T
711.518	1.634	713136	WORD	n/a	n/a	CAVE	6	6	[0, 0, 0]	n/a	FR1	3	R1341T
713.152	0.854	714770	WORD_OFF	n/a	n/a	CAVE	6	6	[0, 0, 0]	n/a	FR1	3	R1341T
714.006	1.631	715624	WORD	n/a	n/a	FILM	7	6	[0, 0, 0]	n/a	FR1	3	R1341T
715.637	0.751	717255	WORD_OFF	n/a	n/a	FILM	7	6	[0, 0, 0]	n/a	FR1	3	R1341T
716.388	1.632	718006	WORD	n/a	n/a	SPRING	8	6	[0, 0, 0]	n/a	FR1	3	R1341T
718.02	0.811	719638	WORD_OFF	n/a	n/a	SPRING	8	6	[0, 0, 0]	n/a	FR1	3	R1341T
718.831	1.624	720448	WORD	n/a	n/a	BOMB	9	6	[0, 0, 0]	n/a	FR1	3	R1341T
720.455	0.783	722072	WORD_OFF	n/a	n/a	BOMB	9	6	[0, 0, 0]	n/a	FR1	3	R1341T
721.238	1.633	722855	WORD	n/a	n/a	MULE	10	6	[0, 0, 0]	n/a	FR1	3	R1341T
722.871	0.939	724488	WORD_OFF	n/a	n/a	MULE	10	6	[0, 0, 0]	n/a	FR1	3	R1341T
723.81	1.612	725427	WORD	n/a	n/a	SHEET	11	6	[0, 0, 0]	n/a	FR1	3	R1341T
725.422	1.002	727039	WORD_OFF	n/a	n/a	SHEET	11	6	[0, 0, 0]	n/a	FR1	3	R1341T
726.424	1.631	728041	WORD	n/a	n/a	JEEP	12	6	[0, 0, 0]	n/a	FR1	3	R1341T
728.055	0.001	729672	WORD_OFF	n/a	n/a	JEEP	12	6	[0, 0, 0]	n/a	FR1	3	R1341T
728.056	0.0	729673	ENCODING_END	n/a	n/a	n/a	-999	6	[0, 0, 0]	n/a	FR1	3	R1341T
728.056	0.0	729673	DISTRACT_START	n/a	n/a	n/a	-999	6	[0, 0, 0]	n/a	FR1	3	R1341T
728.056	0.016	729673	START	n/a	n/a	n/a	-999	6	[-999, -999, -999]	n/a	FR1	3	R1341T
728.072	5.152	729689	PROB	5.152	n/a	n/a	-999	6	[2, 5, 3]	10	FR1	3	R1341T
733.224	14.552	734841	PROB	14.552	n/a	n/a	-999	6	[3, 5, 9]	17	FR1	3	R1341T
747.776	10.736	749392	PROB	10.736	n/a	n/a	-999	6	[9, 9, 4]	22	FR1	3	R1341T
758.512	0.016	760128	STOP	n/a	n/a	n/a	-999	6	[-999, -999, -999]	n/a	FR1	3	R1341T
758.528	0.542	760144	DISTRACT_END	n/a	n/a	n/a	-999	6	[0, 0, 0]	n/a	FR1	3	R1341T
759.07	1.625	760686	RETRIEVAL_ORIENT_START	n/a	n/a	n/a	-999	6	[0, 0, 0]	n/a	FR1	3	R1341T
760.695	0.001	762311	RETRIEVAL_ORIENT_END	n/a	n/a	n/a	-999	6	[0, 0, 0]	n/a	FR1	3	R1341T
760.696	0.91	762312	REC_START	n/a	n/a	n/a	-999	6	[0, 0, 0]	n/a	FR1	3	R1341T
761.606	0.786	763222	REC_WORD	0.786	n/a	SPARK	4	6	[0, 0, 0]	n/a	FR1	3	R1341T
762.392	0.922	764008	REC_WORD	0.922	n/a	SPRING	8	6	[0, 0, 0]	n/a	FR1	3	R1341T
763.314	0.935	764930	REC_WORD	0.935	n/a	BOMB	9	6	[0, 0, 0]	n/a	FR1	3	R1341T
764.249	2.25	765864	REC_WORD	2.25	n/a	MULE	10	6	[0, 0, 0]	n/a	FR1	3	R1341T
766.499	24.209	768114	REC_WORD	24.209	n/a	SHEET	11	6	[0, 0, 0]	n/a	FR1	3	R1341T
790.708	0.0	792322	REC_END	n/a	n/a	n/a	-999	6	[0, 0, 0]	n/a	FR1	3	R1341T
790.708	0.016	792322	TRIAL_END	n/a	n/a	n/a	-999	6	[0, 0, 0]	n/a	FR1	3	R1341T
790.724	0.0	792338	TRIAL_START	n/a	n/a	n/a	-999	7	[0, 0, 0]	n/a	FR1	3	R1341T
790.724	0.0	792338	TRIAL	n/a	n/a	n/a	-999	7	[0, 0, 0]	n/a	FR1	3	R1341T
790.724	1.561	792338	WAITING_START	n/a	n/a	n/a	-999	7	[0, 0, 0]	n/a	FR1	3	R1341T
792.285	0.001	793899	WAITING_END	n/a	n/a	n/a	-999	7	[0, 0, 0]	n/a	FR1	3	R1341T
792.286	10.429	793900	COUNTDOWN_START	n/a	n/a	n/a	-999	7	[0, 0, 0]	n/a	FR1	3	R1341T
802.715	0.0	804329	COUNTDOWN_END	n/a	n/a	n/a	-999	7	[0, 0, 0]	n/a	FR1	3	R1341T
802.715	1.104	804329	ORIENT_START	n/a	n/a	n/a	-999	7	[0, 0, 0]	n/a	FR1	3	R1341T
803.819	0.0	805433	ORIENT_END	n/a	n/a	n/a	-999	7	[0, 0, 0]	n/a	FR1	3	R1341T
803.819	0.793	805433	ENCODING_START	n/a	n/a	n/a	-999	7	[0, 0, 0]	n/a	FR1	3	R1341T
804.612	1.625	806226	WORD	n/a	n/a	SLUSH	1	7	[0, 0, 0]	n/a	FR1	3	R1341T
806.237	0.76	807851	WORD_OFF	n/a	n/a	SLUSH	1	7	[0, 0, 0]	n/a	FR1	3	R1341T
806.997	1.624	808611	WORD	n/a	n/a	JAIL	2	7	[0, 0, 0]	n/a	FR1	3	R1341T
808.621	1.069	810235	WORD_OFF	n/a	n/a	JAIL	2	7	[0, 0, 0]	n/a	FR1	3	R1341T
809.69	1.631	811303	WORD	n/a	n/a	CUP	3	7	[0, 0, 0]	n/a	FR1	3	R1341T
811.321	0.819	812934	WORD_OFF	n/a	n/a	CUP	3	7	[0, 0, 0]	n/a	FR1	3	R1341T
812.14	1.632	813753	WORD	n/a	n/a	MOUTH	4	7	[0, 0, 0]	n/a	FR1	3	R1341T
813.772	0.789	815385	WORD_OFF	n/a	n/a	MOUTH	4	7	[0, 0, 0]	n/a	FR1	3	R1341T
814.561	1.627	816174	WORD	n/a	n/a	WOOD	5	7	[0, 0, 0]	n/a	FR1	3	R1341T
816.188	0.763	817801	WORD_OFF	n/a	n/a	WOOD	5	7	[0, 0, 0]	n/a	FR1	3	R1341T
816.951	1.622	818564	WORD	n/a	n/a	MAP	6	7	[0, 0, 0]	n/a	FR1	3	R1341T
818.573	1.022	820186	WORD_OFF	n/a	n/a	MAP	6	7	[0, 0, 0]	n/a	FR1	3	R1341T
819.595	1.628	821208	WORD	n/a	n/a	ELF	7	7	[0, 0, 0]	n/a	FR1	3	R1341T
821.223	0.783	822836	WORD_OFF	n/a	n/a	ELF	7	7	[0, 0, 0]	n/a	FR1	3	R1341T
822.006	1.634	823619	WORD	n/a	n/a	PASTE	8	7	[0, 0, 0]	n/a	FR1	3	R1341T
823.64	0.814	825253	WORD_OFF	n/a	n/a	PASTE	8	7	[0, 0, 0]	n/a	FR1	3	R1341T
824.454	1.636	826067	WORD	n/a	n/a	SINK	9	7	[0, 0, 0]	n/a	FR1	3	R1341T
826.09	0.861	827703	WORD_OFF	n/a	n/a	SINK	9	7	[0, 0, 0]	n/a	FR1	3	R1341T
826.951	1.623	828564	WORD	n/a	n/a	GOLD	10	7	[0, 0, 0]	n/a	FR1	3	R1341T
828.574	0.956	830187	WORD_OFF	n/a	n/a	GOLD	10	7	[0, 0, 0]	n/a	FR1	3	R1341T
829.53	1.627	831143	WORD	n/a	n/a	GRAPE	11	7	[0, 0, 0]	n/a	FR1	3	R1341T
831.157	0.917	832770	WORD_OFF	n/a	n/a	GRAPE	11	7	[0, 0, 0]	n/a	FR1	3	R1341T
832.074	1.635	833686	WORD	n/a	n/a	TANK	12	7	[0, 0, 0]	n/a	FR1	3	R1341T
833.709	0.0	835321	DISTRACT_START	n/a	n/a	n/a	-999	7	[0, 0, 0]	n/a	FR1	3	R1341T
833.709	0.0	835321	WORD_OFF	n/a	n/a	TANK	12	7	[0, 0, 0]	n/a	FR1	3	R1341T
833.709	0.0	835321	ENCODING_END	n/a	n/a	n/a	-999	7	[0, 0, 0]	n/a	FR1	3	R1341T
833.709	0.016	835321	START	n/a	n/a	n/a	-999	7	[-999, -999, -999]	n/a	FR1	3	R1341T
833.725	11.002	835337	PROB	11.002	n/a	n/a	-999	7	[7, 8, 2]	17	FR1	3	R1341T
844.727	5.934	846339	PROB	5.934	n/a	n/a	-999	7	[5, 2, 3]	10	FR1	3	R1341T
850.661	3.401	852273	PROB	3.401	n/a	n/a	-999	7	[9, 3, 1]	13	FR1	3	R1341T
854.062	0.016	855674	STOP	n/a	n/a	n/a	-999	7	[-999, -999, -999]	n/a	FR1	3	R1341T
854.078	0.571	855690	DISTRACT_END	n/a	n/a	n/a	-999	7	[0, 0, 0]	n/a	FR1	3	R1341T
854.649	1.697	856260	RETRIEVAL_ORIENT_START	n/a	n/a	n/a	-999	7	[0, 0, 0]	n/a	FR1	3	R1341T
856.346	0.001	857957	RETRIEVAL_ORIENT_END	n/a	n/a	n/a	-999	7	[0, 0, 0]	n/a	FR1	3	R1341T
856.347	2.89	857958	REC_START	n/a	n/a	n/a	-999	7	[0, 0, 0]	n/a	FR1	3	R1341T
859.237	0.804	860848	REC_WORD	0.804	n/a	JAIL	2	7	[0, 0, 0]	n/a	FR1	3	R1341T
860.041	1.071	861652	REC_WORD	1.071	n/a	GOLD	10	7	[0, 0, 0]	n/a	FR1	3	R1341T
861.112	10.545	862723	REC_WORD	10.545	n/a	GRAPE	11	7	[0, 0, 0]	n/a	FR1	3	R1341T
871.657	14.702	873268	REC_WORD	14.702	n/a	JET	-999	7	[0, 0, 0]	n/a	FR1	3	R1341T
886.359	0.0	887969	REC_END	n/a	n/a	n/a	-999	7	[0, 0, 0]	n/a	FR1	3	R1341T
886.359	0.015	887969	TRIAL_END	n/a	n/a	n/a	-999	7	[0, 0, 0]	n/a	FR1	3	R1341T
886.374	0.0	887984	TRIAL_START	n/a	n/a	n/a	-999	8	[0, 0, 0]	n/a	FR1	3	R1341T
886.374	0.0	887984	TRIAL	n/a	n/a	n/a	-999	8	[0, 0, 0]	n/a	FR1	3	R1341T
886.374	1.627	887984	WAITING_START	n/a	n/a	n/a	-999	8	[0, 0, 0]	n/a	FR1	3	R1341T
888.001	0.0	889611	WAITING_END	n/a	n/a	n/a	-999	8	[0, 0, 0]	n/a	FR1	3	R1341T
888.001	10.429	889611	COUNTDOWN_START	n/a	n/a	n/a	-999	8	[0, 0, 0]	n/a	FR1	3	R1341T
898.43	0.0	900040	ORIENT_START	n/a	n/a	n/a	-999	8	[0, 0, 0]	n/a	FR1	3	R1341T
898.43	1.041	900040	COUNTDOWN_END	n/a	n/a	n/a	-999	8	[0, 0, 0]	n/a	FR1	3	R1341T
899.471	0.0	901081	ORIENT_END	n/a	n/a	n/a	-999	8	[0, 0, 0]	n/a	FR1	3	R1341T
899.471	1.057	901081	ENCODING_START	n/a	n/a	n/a	-999	8	[0, 0, 0]	n/a	FR1	3	R1341T
900.528	1.625	902137	WORD	n/a	n/a	STONE	1	8	[0, 0, 0]	n/a	FR1	3	R1341T
902.153	0.982	903762	WORD_OFF	n/a	n/a	STONE	1	8	[0, 0, 0]	n/a	FR1	3	R1341T
903.135	1.62	904744	WORD	n/a	n/a	PARK	2	8	[0, 0, 0]	n/a	FR1	3	R1341T
904.755	0.998	906364	WORD_OFF	n/a	n/a	PARK	2	8	[0, 0, 0]	n/a	FR1	3	R1341T
905.753	1.636	907362	WORD	n/a	n/a	KITE	3	8	[0, 0, 0]	n/a	FR1	3	R1341T
907.389	0.85	908998	WORD_OFF	n/a	n/a	KITE	3	8	[0, 0, 0]	n/a	FR1	3	R1341T
908.239	1.632	909848	WORD	n/a	n/a	FUDGE	4	8	[0, 0, 0]	n/a	FR1	3	R1341T
909.871	0.935	911480	WORD_OFF	n/a	n/a	FUDGE	4	8	[0, 0, 0]	n/a	FR1	3	R1341T
910.806	1.634	912415	WORD	n/a	n/a	LAKE	5	8	[0, 0, 0]	n/a	FR1	3	R1341T
912.44	0.973	914049	WORD_OFF	n/a	n/a	LAKE	5	8	[0, 0, 0]	n/a	FR1	3	R1341T
913.413	1.626	915022	WORD	n/a	n/a	JUICE	6	8	[0, 0, 0]	n/a	FR1	3	R1341T
915.039	0.918	916648	WORD_OFF	n/a	n/a	JUICE	6	8	[0, 0, 0]	n/a	FR1	3	R1341T
915.957	1.617	917566	WORD	n/a	n/a	PURSE	7	8	[0, 0, 0]	n/a	FR1	3	R1341T
917.574	0.795	919183	WORD_OFF	n/a	n/a	PURSE	7	8	[0, 0, 0]	n/a	FR1	3	R1341T
918.369	1.621	919978	WORD	n/a	n/a	PIE	8	8	[0, 0, 0]	n/a	FR1	3	R1341T
919.99	1.13	921599	WORD_OFF	n/a	n/a	PIE	8	8	[0, 0, 0]	n/a	FR1	3	R1341T
921.12	1.621	922729	WORD	n/a	n/a	ROCK	9	8	[0, 0, 0]	n/a	FR1	3	R1341T
922.741	0.948	924349	WORD_OFF	n/a	n/a	ROCK	9	8	[0, 0, 0]	n/a	FR1	3	R1341T
923.689	1.636	925297	WORD	n/a	n/a	FLEA	10	8	[0, 0, 0]	n/a	FR1	3	R1341T
925.325	1.102	926933	WORD_OFF	n/a	n/a	FLEA	10	8	[0, 0, 0]	n/a	FR1	3	R1341T
926.427	1.631	928035	WORD	n/a	n/a	CONE	11	8	[0, 0, 0]	n/a	FR1	3	R1341T
928.058	0.971	929666	WORD_OFF	n/a	n/a	CONE	11	8	[0, 0, 0]	n/a	FR1	3	R1341T
929.029	1.631	930637	WORD	n/a	n/a	WEB	12	8	[0, 0, 0]	n/a	FR1	3	R1341T
930.66	0.0	932268	ENCODING_END	n/a	n/a	n/a	-999	8	[0, 0, 0]	n/a	FR1	3	R1341T
930.66	0.0	932268	DISTRACT_START	n/a	n/a	n/a	-999	8	[0, 0, 0]	n/a	FR1	3	R1341T
930.66	0.0	932268	WORD_OFF	n/a	n/a	WEB	12	8	[0, 0, 0]	n/a	FR1	3	R1341T
930.66	0.016	932268	START	n/a	n/a	n/a	-999	8	[-999, -999, -999]	n/a	FR1	3	R1341T
930.676	12.435	932284	PROB	12.435	n/a	n/a	-999	8	[1, 7, 8]	16	FR1	3	R1341T
943.111	17.356	944719	PROB	17.356	n/a	n/a	-999	8	[2, 7, 5]	14	FR1	3	R1341T
960.467	0.015	962074	STOP	n/a	n/a	n/a	-999	8	[-999, -999, -999]	n/a	FR1	3	R1341T
960.482	0.639	962089	DISTRACT_END	n/a	n/a	n/a	-999	8	[0, 0, 0]	n/a	FR1	3	R1341T
961.121	1.594	962728	RETRIEVAL_ORIENT_START	n/a	n/a	n/a	-999	8	[0, 0, 0]	n/a	FR1	3	R1341T
962.715	0.001	964322	RETRIEVAL_ORIENT_END	n/a	n/a	n/a	-999	8	[0, 0, 0]	n/a	FR1	3	R1341T
962.716	4.451	964323	REC_START	n/a	n/a	n/a	-999	8	[0, 0, 0]	n/a	FR1	3	R1341T
967.167	0.404	968774	REC_WORD	0.404	n/a	PEAR	-999	8	[0, 0, 0]	n/a	FR1	3	R1341T
967.571	0.665	969177	REC_WORD	0.665	n/a	STORM	-999	8	[0, 0, 0]	n/a	FR1	3	R1341T
968.236	3.061	969842	REC_WORD	3.061	n/a	ROCK	9	8	[0, 0, 0]	n/a	FR1	3	R1341T
971.297	13.774	972903	REC_WORD	13.774	n/a	PARK	2	8	[0, 0, 0]	n/a	FR1	3	R1341T
985.071	7.657	986677	REC_WORD	7.657	n/a	POND	-999	8	[0, 0, 0]	n/a	FR1	3	R1341T
992.728	0.0	994333	REC_END	n/a	n/a	n/a	-999	8	[0, 0, 0]	n/a	FR1	3	R1341T
992.728	0.016	994333	TRIAL_END	n/a	n/a	n/a	-999	8	[0, 0, 0]	n/a	FR1	3	R1341T
992.744	0.0	994349	TRIAL_START	n/a	n/a	n/a	-999	9	[0, 0, 0]	n/a	FR1	3	R1341T
992.744	0.001	994349	TRIAL	n/a	n/a	n/a	-999	9	[0, 0, 0]	n/a	FR1	3	R1341T
992.745	1.693	994350	WAITING_START	n/a	n/a	n/a	-999	9	[0, 0, 0]	n/a	FR1	3	R1341T
994.438	0.0	996043	WAITING_END	n/a	n/a	n/a	-999	9	[0, 0, 0]	n/a	FR1	3	R1341T
994.438	10.428	996043	COUNTDOWN_START	n/a	n/a	n/a	-999	9	[0, 0, 0]	n/a	FR1	3	R1341T
1004.866	0.0	1006471	ORIENT_START	n/a	n/a	n/a	-999	9	[0, 0, 0]	n/a	FR1	3	R1341T
1004.866	1.023	1006471	COUNTDOWN_END	n/a	n/a	n/a	-999	9	[0, 0, 0]	n/a	FR1	3	R1341T
1005.889	0.0	1007494	ORIENT_END	n/a	n/a	n/a	-999	9	[0, 0, 0]	n/a	FR1	3	R1341T
1005.889	0.993	1007494	ENCODING_START	n/a	n/a	n/a	-999	9	[0, 0, 0]	n/a	FR1	3	R1341T
1006.882	1.625	1008487	WORD	n/a	n/a	AXE	1	9	[0, 0, 0]	n/a	FR1	3	R1341T
1008.507	1.067	1010112	WORD_OFF	n/a	n/a	AXE	1	9	[0, 0, 0]	n/a	FR1	3	R1341T
1009.574	1.632	1011179	WORD	n/a	n/a	JAR	2	9	[0, 0, 0]	n/a	FR1	3	R1341T
1011.206	0.974	1012811	WORD_OFF	n/a	n/a	JAR	2	9	[0, 0, 0]	n/a	FR1	3	R1341T
1012.18	1.627	1013785	WORD	n/a	n/a	HAT	3	9	[0, 0, 0]	n/a	FR1	3	R1341T
1013.807	1.004	1015411	WORD_OFF	n/a	n/a	HAT	3	9	[0, 0, 0]	n/a	FR1	3	R1341T
1014.811	1.631	1016415	WORD	n/a	n/a	STRAW	4	9	[0, 0, 0]	n/a	FR1	3	R1341T
1016.442	0.874	1018046	WORD_OFF	n/a	n/a	STRAW	4	9	[0, 0, 0]	n/a	FR1	3	R1341T
1017.316	1.625	1018920	WORD	n/a	n/a	HOOF	5	9	[0, 0, 0]	n/a	FR1	3	R1341T
1018.941	0.932	1020545	WORD_OFF	n/a	n/a	HOOF	5	9	[0, 0, 0]	n/a	FR1	3	R1341T
1019.873	1.619	1021477	WORD	n/a	n/a	FORK	6	9	[0, 0, 0]	n/a	FR1	3	R1341T
1021.492	0.89	1023096	WORD_OFF	n/a	n/a	FORK	6	9	[0, 0, 0]	n/a	FR1	3	R1341T
1022.382	1.627	1023986	WORD	n/a	n/a	FOX	7	9	[0, 0, 0]	n/a	FR1	3	R1341T
1024.009	1.061	1025613	WORD_OFF	n/a	n/a	FOX	7	9	[0, 0, 0]	n/a	FR1	3	R1341T
1025.07	1.624	1026674	WORD	n/a	n/a	BOARD	8	9	[0, 0, 0]	n/a	FR1	3	R1341T
1026.694	0.784	1028298	WORD_OFF	n/a	n/a	BOARD	8	9	[0, 0, 0]	n/a	FR1	3	R1341T
1027.478	1.632	1029082	WORD	n/a	n/a	SMILE	9	9	[0, 0, 0]	n/a	FR1	3	R1341T
1029.11	1.069	1030714	WORD_OFF	n/a	n/a	SMILE	9	9	[0, 0, 0]	n/a	FR1	3	R1341T
1030.179	1.631	1031783	WORD	n/a	n/a	PIPE	10	9	[0, 0, 0]	n/a	FR1	3	R1341T
1031.81	0.753	1033414	WORD_OFF	n/a	n/a	PIPE	10	9	[0, 0, 0]	n/a	FR1	3	R1341T
1032.563	1.631	1034167	WORD	n/a	n/a	DOOR	11	9	[0, 0, 0]	n/a	FR1	3	R1341T
1034.194	1.069	1035798	WORD_OFF	n/a	n/a	DOOR	11	9	[0, 0, 0]	n/a	FR1	3	R1341T
1035.263	1.631	1036867	WORD	n/a	n/a	STEAM	12	9	[0, 0, 0]	n/a	FR1	3	R1341T
1036.894	0.001	1038497	WORD_OFF	n/a	n/a	STEAM	12	9	[0, 0, 0]	n/a	FR1	3	R1341T
1036.895	0.0	1038498	ENCODING_END	n/a	n/a	n/a	-999	9	[0, 0, 0]	n/a	FR1	3	R1341T
1036.895	0.0	1038498	DISTRACT_START	n/a	n/a	n/a	-999	9	[0, 0, 0]	n/a	FR1	3	R1341T
1036.895	0.016	1038498	START	n/a	n/a	n/a	-999	9	[-999, -999, -999]	n/a	FR1	3	R1341T
1036.911	9.686	1038514	PROB	9.686	n/a	n/a	-999	9	[3, 4, 7]	14	FR1	3	R1341T
1046.597	16.26	1048200	PROB	16.26	n/a	n/a	-999	9	[9, 4, 8]	21	FR1	3	R1341T
1062.857	0.009	1064459	STOP	n/a	n/a	n/a	-999	9	[-999, -999, -999]	n/a	FR1	3	R1341T
1062.866	0.519	1064468	DISTRACT_END	n/a	n/a	n/a	-999	9	[0, 0, 0]	n/a	FR1	3	R1341T
1063.385	1.631	1064987	RETRIEVAL_ORIENT_START	n/a	n/a	n/a	-999	9	[0, 0, 0]	n/a	FR1	3	R1341T
1065.016	0.001	1066618	RETRIEVAL_ORIENT_END	n/a	n/a	n/a	-999	9	[0, 0, 0]	n/a	FR1	3	R1341T
1065.017	3.077	1066619	REC_START	n/a	n/a	n/a	-999	9	[0, 0, 0]	n/a	FR1	3	R1341T
1068.094	2.454	1069696	REC_WORD_VV	2.454	n/a	<>	-999	9	[0, 0, 0]	n/a	FR1	3	R1341T
1070.548	1.665	1072150	REC_WORD	1.665	n/a	AXE	1	9	[0, 0, 0]	n/a	FR1	3	R1341T
1072.213	1.222	1073815	REC_WORD	1.222	n/a	FOX	7	9	[0, 0, 0]	n/a	FR1	3	R1341T
1073.435	1.226	1075037	REC_WORD	1.226	n/a	JAR	2	9	[0, 0, 0]	n/a	FR1	3	R1341T
1074.661	0.977	1076263	REC_WORD	0.977	n/a	HAT	3	9	[0, 0, 0]	n/a	FR1	3	R1341T
1075.638	19.391	1077240	REC_WORD	19.391	n/a	SMILE	9	9	[0, 0, 0]	n/a	FR1	3	R1341T
1095.029	0.0	1096630	TRIAL_END	n/a	n/a	n/a	-999	9	[0, 0, 0]	n/a	FR1	3	R1341T
1095.029	0.015	1096630	REC_END	n/a	n/a	n/a	-999	9	[0, 0, 0]	n/a	FR1	3	R1341T
1095.044	0.001	1096645	TRIAL_START	n/a	n/a	n/a	-999	10	[0, 0, 0]	n/a	FR1	3	R1341T
1095.045	0.0	1096646	TRIAL	n/a	n/a	n/a	-999	10	[0, 0, 0]	n/a	FR1	3	R1341T
1095.045	3.027	1096646	WAITING_START	n/a	n/a	n/a	-999	10	[0, 0, 0]	n/a	FR1	3	R1341T
1098.072	0.001	1099673	WAITING_END	n/a	n/a	n/a	-999	10	[0, 0, 0]	n/a	FR1	3	R1341T
1098.073	10.429	1099674	COUNTDOWN_START	n/a	n/a	n/a	-999	10	[0, 0, 0]	n/a	FR1	3	R1341T
1108.502	0.0	1110102	COUNTDOWN_END	n/a	n/a	n/a	-999	10	[0, 0, 0]	n/a	FR1	3	R1341T
1108.502	1.09	1110102	ORIENT_START	n/a	n/a	n/a	-999	10	[0, 0, 0]	n/a	FR1	3	R1341T
1109.592	0.0	1111192	ENCODING_START	n/a	n/a	n/a	-999	10	[0, 0, 0]	n/a	FR1	3	R1341T
1109.592	0.974	1111192	ORIENT_END	n/a	n/a	n/a	-999	10	[0, 0, 0]	n/a	FR1	3	R1341T
1110.566	1.626	1112166	WORD	n/a	n/a	BALL	1	10	[0, 0, 0]	n/a	FR1	3	R1341T
1112.192	0.772	1113792	WORD_OFF	n/a	n/a	BALL	1	10	[0, 0, 0]	n/a	FR1	3	R1341T
1112.964	1.612	1114564	WORD	n/a	n/a	TOY	2	10	[0, 0, 0]	n/a	FR1	3	R1341T
1114.576	0.807	1116176	WORD_OFF	n/a	n/a	TOY	2	10	[0, 0, 0]	n/a	FR1	3	R1341T
1115.383	1.626	1116983	WORD	n/a	n/a	FLUTE	3	10	[0, 0, 0]	n/a	FR1	3	R1341T
1117.009	0.993	1118609	WORD_OFF	n/a	n/a	FLUTE	3	10	[0, 0, 0]	n/a	FR1	3	R1341T
1118.002	1.625	1119602	WORD	n/a	n/a	THUMB	4	10	[0, 0, 0]	n/a	FR1	3	R1341T
1119.627	0.999	1121227	WORD_OFF	n/a	n/a	THUMB	4	10	[0, 0, 0]	n/a	FR1	3	R1341T
1120.626	1.635	1122226	WORD	n/a	n/a	SHIRT	5	10	[0, 0, 0]	n/a	FR1	3	R1341T
1122.261	0.896	1123861	WORD_OFF	n/a	n/a	SHIRT	5	10	[0, 0, 0]	n/a	FR1	3	R1341T
1123.157	1.637	1124757	WORD	n/a	n/a	HAND	6	10	[0, 0, 0]	n/a	FR1	3	R1341T
1124.794	0.995	1126394	WORD_OFF	n/a	n/a	HAND	6	10	[0, 0, 0]	n/a	FR1	3	R1341T
1125.789	1.606	1127388	WORD	n/a	n/a	SUIT	7	10	[0, 0, 0]	n/a	FR1	3	R1341T
1127.395	1.097	1128994	WORD_OFF	n/a	n/a	SUIT	7	10	[0, 0, 0]	n/a	FR1	3	R1341T
1128.492	1.636	1130091	WORD	n/a	n/a	BEACH	8	10	[0, 0, 0]	n/a	FR1	3	R1341T
1130.128	1.15	1131727	WORD_OFF	n/a	n/a	BEACH	8	10	[0, 0, 0]	n/a	FR1	3	R1341T
1131.278	1.634	1132877	WORD	n/a	n/a	MOUSE	9	10	[0, 0, 0]	n/a	FR1	3	R1341T
1132.912	0.773	1134511	WORD_OFF	n/a	n/a	MOUSE	9	10	[0, 0, 0]	n/a	FR1	3	R1341T
1133.685	1.629	1135284	WORD	n/a	n/a	FLAG	10	10	[0, 0, 0]	n/a	FR1	3	R1341T
1135.314	0.905	1136913	WORD_OFF	n/a	n/a	FLAG	10	10	[0, 0, 0]	n/a	FR1	3	R1341T
1136.219	1.627	1137818	WORD	n/a	n/a	FROG	11	10	[0, 0, 0]	n/a	FR1	3	R1341T
1137.846	0.881	1139445	WORD_OFF	n/a	n/a	FROG	11	10	[0, 0, 0]	n/a	FR1	3	R1341T
1138.727	1.621	1140326	WORD	n/a	n/a	INK	12	10	[0, 0, 0]	n/a	FR1	3	R1341T
1140.348	0.0	1141947	WORD_OFF	n/a	n/a	INK	12	10	[0, 0, 0]	n/a	FR1	3	R1341T
1140.348	0.0	1141947	ENCODING_END	n/a	n/a	n/a	-999	10	[0, 0, 0]	n/a	FR1	3	R1341T
1140.348	0.001	1141947	DISTRACT_START	n/a	n/a	n/a	-999	10	[0, 0, 0]	n/a	FR1	3	R1341T
1140.349	0.015	1141948	START	n/a	n/a	n/a	-999	10	[-999, -999, -999]	n/a	FR1	3	R1341T
1140.364	5.467	1141963	PROB	5.467	n/a	n/a	-999	10	[2, 4, 6]	12	FR1	3	R1341T
1145.831	12.369	1147430	PROB	12.369	n/a	n/a	-999	10	[6, 1, 4]	11	FR1	3	R1341T
1158.2	5.497	1159798	PROB	5.497	n/a	n/a	-999	10	[1, 7, 4]	12	FR1	3	R1341T
1163.697	0.022	1165295	STOP	n/a	n/a	n/a	-999	10	[-999, -999, -999]	n/a	FR1	3	R1341T
1163.719	0.502	1165317	DISTRACT_END	n/a	n/a	n/a	-999	10	[0, 0, 0]	n/a	FR1	3	R1341T
1164.221	1.63	1165819	RETRIEVAL_ORIENT_START	n/a	n/a	n/a	-999	10	[0, 0, 0]	n/a	FR1	3	R1341T
1165.851	0.001	1167449	RETRIEVAL_ORIENT_END	n/a	n/a	n/a	-999	10	[0, 0, 0]	n/a	FR1	3	R1341T
1165.852	6.151	1167450	REC_START	n/a	n/a	n/a	-999	10	[0, 0, 0]	n/a	FR1	3	R1341T
1172.003	0.499	1173600	REC_WORD	0.499	n/a	BALL	1	10	[0, 0, 0]	n/a	FR1	3	R1341T
1172.502	0.405	1174099	REC_WORD	0.405	n/a	TOY	2	10	[0, 0, 0]	n/a	FR1	3	R1341T
1172.907	0.586	1174504	REC_WORD	0.586	n/a	FLUTE	3	10	[0, 0, 0]	n/a	FR1	3	R1341T
1173.493	0.535	1175090	REC_WORD	0.535	n/a	HAND	6	10	[0, 0, 0]	n/a	FR1	3	R1341T
1174.028	1.661	1175625	REC_WORD	1.661	n/a	SHIRT	5	10	[0, 0, 0]	n/a	FR1	3	R1341T
1175.689	20.174	1177286	REC_WORD	20.174	n/a	SUIT	7	10	[0, 0, 0]	n/a	FR1	3	R1341T
1195.863	0.0	1197459	TRIAL_END	n/a	n/a	n/a	-999	10	[0, 0, 0]	n/a	FR1	3	R1341T
1195.863	0.015	1197459	REC_END	n/a	n/a	n/a	-999	10	[0, 0, 0]	n/a	FR1	3	R1341T
1195.878	0.0	1197474	TRIAL_START	n/a	n/a	n/a	-999	11	[0, 0, 0]	n/a	FR1	3	R1341T
1195.878	0.0	1197474	TRIAL	n/a	n/a	n/a	-999	11	[0, 0, 0]	n/a	FR1	3	R1341T
1195.878	1.863	1197474	WAITING_START	n/a	n/a	n/a	-999	11	[0, 0, 0]	n/a	FR1	3	R1341T
1197.741	0.001	1199337	WAITING_END	n/a	n/a	n/a	-999	11	[0, 0, 0]	n/a	FR1	3	R1341T
1197.742	10.429	1199338	COUNTDOWN_START	n/a	n/a	n/a	-999	11	[0, 0, 0]	n/a	FR1	3	R1341T
1208.171	0.0	1209767	COUNTDOWN_END	n/a	n/a	n/a	-999	11	[0, 0, 0]	n/a	FR1	3	R1341T
1208.171	1.056	1209767	ORIENT_START	n/a	n/a	n/a	-999	11	[0, 0, 0]	n/a	FR1	3	R1341T
1209.227	0.0	1210823	ENCODING_START	n/a	n/a	n/a	-999	11	[0, 0, 0]	n/a	FR1	3	R1341T
1209.227	1.077	1210823	ORIENT_END	n/a	n/a	n/a	-999	11	[0, 0, 0]	n/a	FR1	3	R1341T
1210.304	1.622	1211900	WORD	n/a	n/a	CUBE	1	11	[0, 0, 0]	n/a	FR1	3	R1341T
1211.926	1.03	1213522	WORD_OFF	n/a	n/a	CUBE	1	11	[0, 0, 0]	n/a	FR1	3	R1341T
1212.956	1.639	1214552	WORD	n/a	n/a	BRANCH	2	11	[0, 0, 0]	n/a	FR1	3	R1341T
1214.595	0.975	1216191	WORD_OFF	n/a	n/a	BRANCH	2	11	[0, 0, 0]	n/a	FR1	3	R1341T
1215.57	1.624	1217166	WORD	n/a	n/a	PRINCE	3	11	[0, 0, 0]	n/a	FR1	3	R1341T
1217.194	1.141	1218789	WORD_OFF	n/a	n/a	PRINCE	3	11	[0, 0, 0]	n/a	FR1	3	R1341T
1218.335	1.626	1219930	WORD	n/a	n/a	CALF	4	11	[0, 0, 0]	n/a	FR1	3	R1341T
1219.961	0.766	1221556	WORD_OFF	n/a	n/a	CALF	4	11	[0, 0, 0]	n/a	FR1	3	R1341T
1220.727	1.636	1222322	WORD	n/a	n/a	ICE	5	11	[0, 0, 0]	n/a	FR1	3	R1341T
1222.363	0.853	1223958	WORD_OFF	n/a	n/a	ICE	5	11	[0, 0, 0]	n/a	FR1	3	R1341T
1223.216	1.629	1224811	WORD	n/a	n/a	TAIL	6	11	[0, 0, 0]	n/a	FR1	3	R1341T
1224.845	1.048	1226440	WORD_OFF	n/a	n/a	TAIL	6	11	[0, 0, 0]	n/a	FR1	3	R1341T
1225.893	1.637	1227488	WORD	n/a	n/a	BOOK	7	11	[0, 0, 0]	n/a	FR1	3	R1341T
1227.53	0.753	1229125	WORD_OFF	n/a	n/a	BOOK	7	11	[0, 0, 0]	n/a	FR1	3	R1341T
1228.283	1.63	1229878	WORD	n/a	n/a	BANK	8	11	[0, 0, 0]	n/a	FR1	3	R1341T
1229.913	0.895	1231508	WORD_OFF	n/a	n/a	BANK	8	11	[0, 0, 0]	n/a	FR1	3	R1341T
1230.808	1.623	1232403	WORD	n/a	n/a	PALM	9	11	[0, 0, 0]	n/a	FR1	3	R1341T
1232.431	1.049	1234026	WORD_OFF	n/a	n/a	PALM	9	11	[0, 0, 0]	n/a	FR1	3	R1341T
1233.48	1.634	1235075	WORD	n/a	n/a	GUARD	10	11	[0, 0, 0]	n/a	FR1	3	R1341T
1235.114	0.873	1236709	WORD_OFF	n/a	n/a	GUARD	10	11	[0, 0, 0]	n/a	FR1	3	R1341T
1235.987	1.628	1237582	WORD	n/a	n/a	MUG	11	11	[0, 0, 0]	n/a	FR1	3	R1341T
1237.615	0.764	1239210	WORD_OFF	n/a	n/a	MUG	11	11	[0, 0, 0]	n/a	FR1	3	R1341T
1238.379	1.636	1239974	WORD	n/a	n/a	KEY	12	11	[0, 0, 0]	n/a	FR1	3	R1341T
1240.015	0.0	1241609	WORD_OFF	n/a	n/a	KEY	12	11	[0, 0, 0]	n/a	FR1	3	R1341T
1240.015	0.001	1241609	ENCODING_END	n/a	n/a	n/a	-999	11	[0, 0, 0]	n/a	FR1	3	R1341T
1240.016	0.0	1241610	DISTRACT_START	n/a	n/a	n/a	-999	11	[0, 0, 0]	n/a	FR1	3	R1341T
1240.016	0.015	1241610	START	n/a	n/a	n/a	-999	11	[-999, -999, -999]	n/a	FR1	3	R1341T
1240.031	5.336	1241625	PROB	5.336	n/a	n/a	-999	11	[6, 7, 4]	17	FR1	3	R1341T
1245.367	5.301	1246961	PROB	5.301	n/a	n/a	-999	11	[1, 5, 1]	7	FR1	3	R1341T
1250.668	10.472	1252262	PROB	10.472	n/a	n/a	-999	11	[5, 3, 6]	14	FR1	3	R1341T
1261.14	0.012	1262734	STOP	n/a	n/a	n/a	-999	11	[-999, -999, -999]	n/a	FR1	3	R1341T
1261.152	0.508	1262746	DISTRACT_END	n/a	n/a	n/a	-999	11	[0, 0, 0]	n/a	FR1	3	R1341T
1261.66	1.627	1263253	RETRIEVAL_ORIENT_START	n/a	n/a	n/a	-999	11	[0, 0, 0]	n/a	FR1	3	R1341T
1263.287	0.0	1264880	RETRIEVAL_ORIENT_END	n/a	n/a	n/a	-999	11	[0, 0, 0]	n/a	FR1	3	R1341T
1263.287	4.311	1264880	REC_START	n/a	n/a	n/a	-999	11	[0, 0, 0]	n/a	FR1	3	R1341T
1267.598	3.988	1269191	REC_WORD	3.988	n/a	CUBE	1	11	[0, 0, 0]	n/a	FR1	3	R1341T
1271.586	16.184	1273179	REC_WORD	16.184	n/a	WRENCH	-999	11	[0, 0, 0]	n/a	FR1	3	R1341T
1287.77	5.53	1289362	REC_WORD	5.53	n/a	SWORD	-999	11	[0, 0, 0]	n/a	FR1	3	R1341T
1293.3	0.0	1294892	REC_END	n/a	n/a	n/a	-999	11	[0, 0, 0]	n/a	FR1	3	R1341T
1293.3	0.014	1294892	TRIAL_END	n/a	n/a	n/a	-999	11	[0, 0, 0]	n/a	FR1	3	R1341T
1293.314	0.001	1294906	TRIAL_START	n/a	n/a	n/a	-999	12	[0, 0, 0]	n/a	FR1	3	R1341T
1293.315	0.0	1294907	WAITING_START	n/a	n/a	n/a	-999	12	[0, 0, 0]	n/a	FR1	3	R1341T
1293.315	2.493	1294907	TRIAL	n/a	n/a	n/a	-999	12	[0, 0, 0]	n/a	FR1	3	R1341T
1295.808	0.001	1297400	WAITING_END	n/a	n/a	n/a	-999	12	[0, 0, 0]	n/a	FR1	3	R1341T
1295.809	10.429	1297401	COUNTDOWN_START	n/a	n/a	n/a	-999	12	[0, 0, 0]	n/a	FR1	3	R1341T
1306.238	0.0	1307830	COUNTDOWN_END	n/a	n/a	n/a	-999	12	[0, 0, 0]	n/a	FR1	3	R1341T
1306.238	1.023	1307830	ORIENT_START	n/a	n/a	n/a	-999	12	[0, 0, 0]	n/a	FR1	3	R1341T
1307.261	0.001	1308852	ORIENT_END	n/a	n/a	n/a	-999	12	[0, 0, 0]	n/a	FR1	3	R1341T
1307.262	1.131	1308853	ENCODING_START	n/a	n/a	n/a	-999	12	[0, 0, 0]	n/a	FR1	3	R1341T
1308.393	1.635	1309984	WORD	n/a	n/a	STREET	1	12	[0, 0, 0]	n/a	FR1	3	R1341T
1310.028	0.758	1311619	WORD_OFF	n/a	n/a	STREET	1	12	[0, 0, 0]	n/a	FR1	3	R1341T
1310.786	1.626	1312377	WORD	n/a	n/a	THREAD	2	12	[0, 0, 0]	n/a	FR1	3	R1341T
1312.412	1.059	1314003	WORD_OFF	n/a	n/a	THREAD	2	12	[0, 0, 0]	n/a	FR1	3	R1341T
1313.471	1.624	1315062	WORD	n/a	n/a	PIT	3	12	[0, 0, 0]	n/a	FR1	3	R1341T
1315.095	1.01	1316686	WORD_OFF	n/a	n/a	PIT	3	12	[0, 0, 0]	n/a	FR1	3	R1341T
1316.105	1.625	1317696	WORD	n/a	n/a	STAR	4	12	[0, 0, 0]	n/a	FR1	3	R1341T
1317.73	1.098	1319321	WORD_OFF	n/a	n/a	STAR	4	12	[0, 0, 0]	n/a	FR1	3	R1341T
1318.828	1.636	1320419	WORD	n/a	n/a	CASH	5	12	[0, 0, 0]	n/a	FR1	3	R1341T
1320.464	0.805	1322055	WORD_OFF	n/a	n/a	CASH	5	12	[0, 0, 0]	n/a	FR1	3	R1341T
1321.269	1.628	1322860	WORD	n/a	n/a	CANE	6	12	[0, 0, 0]	n/a	FR1	3	R1341T
1322.897	0.868	1324488	WORD_OFF	n/a	n/a	CANE	6	12	[0, 0, 0]	n/a	FR1	3	R1341T
1323.765	1.633	1325356	WORD	n/a	n/a	NEST	7	12	[0, 0, 0]	n/a	FR1	3	R1341T
1325.398	0.863	1326989	WORD_OFF	n/a	n/a	NEST	7	12	[0, 0, 0]	n/a	FR1	3	R1341T
1326.261	1.636	1327852	WORD	n/a	n/a	CAGE	8	12	[0, 0, 0]	n/a	FR1	3	R1341T
1327.897	0.818	1329488	WORD_OFF	n/a	n/a	CAGE	8	12	[0, 0, 0]	n/a	FR1	3	R1341T
1328.715	1.634	1330306	WORD	n/a	n/a	CHAIR	9	12	[0, 0, 0]	n/a	FR1	3	R1341T
1330.349	1.136	1331939	WORD_OFF	n/a	n/a	CHAIR	9	12	[0, 0, 0]	n/a	FR1	3	R1341T
1331.485	1.63	1333075	WORD	n/a	n/a	RIB	10	12	[0, 0, 0]	n/a	FR1	3	R1341T
1333.115	0.925	1334705	WORD_OFF	n/a	n/a	RIB	10	12	[0, 0, 0]	n/a	FR1	3	R1341T
1334.04	1.61	1335630	WORD	n/a	n/a	FOOD	11	12	[0, 0, 0]	n/a	FR1	3	R1341T
1335.65	1.042	1337240	WORD_OFF	n/a	n/a	FOOD	11	12	[0, 0, 0]	n/a	FR1	3	R1341T
1336.692	1.625	1338282	WORD	n/a	n/a	SMOKE	12	12	[0, 0, 0]	n/a	FR1	3	R1341T
1338.317	0.0	1339907	WORD_OFF	n/a	n/a	SMOKE	12	12	[0, 0, 0]	n/a	FR1	3	R1341T
1338.317	0.001	1339907	ENCODING_END	n/a	n/a	n/a	-999	12	[0, 0, 0]	n/a	FR1	3	R1341T
1338.318	0.0	1339908	DISTRACT_START	n/a	n/a	n/a	-999	12	[0, 0, 0]	n/a	FR1	3	R1341T
1338.318	0.015	1339908	START	n/a	n/a	n/a	-999	12	[-999, -999, -999]	n/a	FR1	3	R1341T
1338.333	4.617	1339923	PROB	4.617	n/a	n/a	-999	12	[2, 4, 4]	10	FR1	3	R1341T
1342.95	5.702	1344540	PROB	5.702	n/a	n/a	-999	12	[4, 3, 9]	16	FR1	3	R1341T
1348.652	15.073	1350242	PROB	15.073	n/a	n/a	-999	12	[7, 9, 7]	23	FR1	3	R1341T
1363.725	0.013	1365314	STOP	n/a	n/a	n/a	-999	12	[-999, -999, -999]	n/a	FR1	3	R1341T
1363.738	0.544	1365327	DISTRACT_END	n/a	n/a	n/a	-999	12	[0, 0, 0]	n/a	FR1	3	R1341T
1364.282	1.656	1365871	RETRIEVAL_ORIENT_START	n/a	n/a	n/a	-999	12	[0, 0, 0]	n/a	FR1	3	R1341T
1365.938	0.0	1367527	REC_START	n/a	n/a	n/a	-999	12	[0, 0, 0]	n/a	FR1	3	R1341T
1365.938	1.911	1367527	RETRIEVAL_ORIENT_END	n/a	n/a	n/a	-999	12	[0, 0, 0]	n/a	FR1	3	R1341T
1367.849	0.504	1369438	REC_WORD	0.504	n/a	PIT	3	12	[0, 0, 0]	n/a	FR1	3	R1341T
1368.353	0.538	1369942	REC_WORD	0.538	n/a	CASH	5	12	[0, 0, 0]	n/a	FR1	3	R1341T
1368.891	0.606	1370480	REC_WORD	0.606	n/a	CAN	-999	12	[0, 0, 0]	n/a	FR1	3	R1341T
1369.497	1.312	1371086	REC_WORD	1.312	n/a	STREET	1	12	[0, 0, 0]	n/a	FR1	3	R1341T
1370.809	25.14	1372398	REC_WORD	25.14	n/a	THREAD	2	12	[0, 0, 0]	n/a	FR1	3	R1341T
1395.949	0.001	1397537	REC_END	n/a	n/a	n/a	-999	12	[0, 0, 0]	n/a	FR1	3	R1341T
1395.95	0.016	1397538	TRIAL_END	n/a	n/a	n/a	-999	12	[0, 0, 0]	n/a	FR1	3	R1341T
1395.966	0.0	1397554	WAITING_START	n/a	n/a	n/a	-999	13	[0, 0, 0]	n/a	FR1	3	R1341T
1395.966	0.0	1397554	TRIAL	n/a	n/a	n/a	-999	13	[0, 0, 0]	n/a	FR1	3	R1341T
1395.966	2.878	1397554	TRIAL_START	n/a	n/a	n/a	-999	13	[0, 0, 0]	n/a	FR1	3	R1341T
1398.844	0.0	1400431	WAITING_END	n/a	n/a	n/a	-999	13	[0, 0, 0]	n/a	FR1	3	R1341T
1398.844	10.428	1400431	COUNTDOWN_START	n/a	n/a	n/a	-999	13	[0, 0, 0]	n/a	FR1	3	R1341T
1409.272	0.001	1410859	COUNTDOWN_END	n/a	n/a	n/a	-999	13	[0, 0, 0]	n/a	FR1	3	R1341T
1409.273	1.224	1410860	ORIENT_START	n/a	n/a	n/a	-999	13	[0, 0, 0]	n/a	FR1	3	R1341T
1410.497	0.0	1412084	ORIENT_END	n/a	n/a	n/a	-999	13	[0, 0, 0]	n/a	FR1	3	R1341T
1410.497	0.996	1412084	ENCODING_START	n/a	n/a	n/a	-999	13	[0, 0, 0]	n/a	FR1	3	R1341T
1411.493	1.637	1413080	WORD	n/a	n/a	BREAD	1	13	[0, 0, 0]	n/a	FR1	3	R1341T
1413.13	0.758	1414717	WORD_OFF	n/a	n/a	BREAD	1	13	[0, 0, 0]	n/a	FR1	3	R1341T
1413.888	1.609	1415475	WORD	n/a	n/a	CLOTH	2	13	[0, 0, 0]	n/a	FR1	3	R1341T
1415.497	1.077	1417084	WORD_OFF	n/a	n/a	CLOTH	2	13	[0, 0, 0]	n/a	FR1	3	R1341T
1416.574	1.623	1418161	WORD	n/a	n/a	PLATE	3	13	[0, 0, 0]	n/a	FR1	3	R1341T
1418.197	1.052	1419784	WORD_OFF	n/a	n/a	PLATE	3	13	[0, 0, 0]	n/a	FR1	3	R1341T
1419.249	1.632	1420836	WORD	n/a	n/a	SHIP	4	13	[0, 0, 0]	n/a	FR1	3	R1341T
1420.881	1.15	1422467	WORD_OFF	n/a	n/a	SHIP	4	13	[0, 0, 0]	n/a	FR1	3	R1341T
1422.031	1.635	1423617	WORD	n/a	n/a	WALL	5	13	[0, 0, 0]	n/a	FR1	3	R1341T
1423.666	1.026	1425252	WORD_OFF	n/a	n/a	WALL	5	13	[0, 0, 0]	n/a	FR1	3	R1341T
1424.692	1.624	1426278	WORD	n/a	n/a	PIN	6	13	[0, 0, 0]	n/a	FR1	3	R1341T
1426.316	0.837	1427902	WORD_OFF	n/a	n/a	PIN	6	13	[0, 0, 0]	n/a	FR1	3	R1341T
1427.153	1.631	1428739	WORD	n/a	n/a	MILK	7	13	[0, 0, 0]	n/a	FR1	3	R1341T
1428.784	1.139	1430370	WORD_OFF	n/a	n/a	MILK	7	13	[0, 0, 0]	n/a	FR1	3	R1341T
1429.923	1.611	1431509	WORD	n/a	n/a	RAIN	8	13	[0, 0, 0]	n/a	FR1	3	R1341T
1431.534	0.918	1433120	WORD_OFF	n/a	n/a	RAIN	8	13	[0, 0, 0]	n/a	FR1	3	R1341T
1432.452	1.631	1434038	WORD	n/a	n/a	LAND	9	13	[0, 0, 0]	n/a	FR1	3	R1341T
1434.083	0.835	1435669	WORD_OFF	n/a	n/a	LAND	9	13	[0, 0, 0]	n/a	FR1	3	R1341T
1434.918	1.633	1436504	WORD	n/a	n/a	GLASS	10	13	[0, 0, 0]	n/a	FR1	3	R1341T
1436.551	0.876	1438137	WORD_OFF	n/a	n/a	GLASS	10	13	[0, 0, 0]	n/a	FR1	3	R1341T
1437.427	1.624	1439013	WORD	n/a	n/a	DIME	11	13	[0, 0, 0]	n/a	FR1	3	R1341T
1439.051	1.026	1440637	WORD_OFF	n/a	n/a	DIME	11	13	[0, 0, 0]	n/a	FR1	3	R1341T
1440.077	1.609	1441663	WORD	n/a	n/a	COUCH	12	13	[0, 0, 0]	n/a	FR1	3	R1341T
1441.686	0.0	1443272	WORD_OFF	n/a	n/a	COUCH	12	13	[0, 0, 0]	n/a	FR1	3	R1341T
1441.686	0.001	1443272	ENCODING_END	n/a	n/a	n/a	-999	13	[0, 0, 0]	n/a	FR1	3	R1341T
1441.687	0.0	1443273	DISTRACT_START	n/a	n/a	n/a	-999	13	[0, 0, 0]	n/a	FR1	3	R1341T
1441.687	0.015	1443273	START	n/a	n/a	n/a	-999	13	[-999, -999, -999]	n/a	FR1	3	R1341T
1441.702	7.685	1443288	PROB	7.685	n/a	n/a	-999	13	[7, 5, 9]	21	FR1	3	R1341T
1449.387	7.667	1450972	PROB	7.667	n/a	n/a	-999	13	[7, 3, 3]	13	FR1	3	R1341T
1457.054	7.057	1458639	PROB	7.057	n/a	n/a	-999	13	[5, 3, 8]	16	FR1	3	R1341T
1464.111	0.011	1465696	STOP	n/a	n/a	n/a	-999	13	[-999, -999, -999]	n/a	FR1	3	R1341T
1464.122	0.569	1465707	DISTRACT_END	n/a	n/a	n/a	-999	13	[0, 0, 0]	n/a	FR1	3	R1341T
1464.691	1.716	1466276	RETRIEVAL_ORIENT_START	n/a	n/a	n/a	-999	13	[0, 0, 0]	n/a	FR1	3	R1341T
1466.407	0.0	1467991	RETRIEVAL_ORIENT_END	n/a	n/a	n/a	-999	13	[0, 0, 0]	n/a	FR1	3	R1341T
1466.407	2.726	1467991	REC_START	n/a	n/a	n/a	-999	13	[0, 0, 0]	n/a	FR1	3	R1341T
1469.133	0.521	1470717	REC_WORD	0.521	n/a	BREAD	1	13	[0, 0, 0]	n/a	FR1	3	R1341T
1469.654	0.562	1471238	REC_WORD	0.562	n/a	PLATE	3	13	[0, 0, 0]	n/a	FR1	3	R1341T
1470.216	1.12	1471800	REC_WORD	1.12	n/a	SHIP	4	13	[0, 0, 0]	n/a	FR1	3	R1341T
1471.336	25.082	1472920	REC_WORD	25.082	n/a	WALL	5	13	[0, 0, 0]	n/a	FR1	3	R1341T
1496.418	0.0	1498001	REC_END	n/a	n/a	n/a	-999	13	[0, 0, 0]	n/a	FR1	3	R1341T
1496.418	0.016	1498001	TRIAL_END	n/a	n/a	n/a	-999	13	[0, 0, 0]	n/a	FR1	3	R1341T
1496.434	0.0	1498017	TRIAL	n/a	n/a	n/a	-999	14	[0, 0, 0]	n/a	FR1	3	R1341T
1496.434	0.0	1498017	WAITING_START	n/a	n/a	n/a	-999	14	[0, 0, 0]	n/a	FR1	3	R1341T
1496.434	1.779	1498017	TRIAL_START	n/a	n/a	n/a	-999	14	[0, 0, 0]	n/a	FR1	3	R1341T
1498.213	0.0	1499796	WAITING_END	n/a	n/a	n/a	-999	14	[0, 0, 0]	n/a	FR1	3	R1341T
1498.213	10.429	1499796	COUNTDOWN_START	n/a	n/a	n/a	-999	14	[0, 0, 0]	n/a	FR1	3	R1341T
1508.642	0.0	1510225	COUNTDOWN_END	n/a	n/a	n/a	-999	14	[0, 0, 0]	n/a	FR1	3	R1341T
1508.642	1.023	1510225	ORIENT_START	n/a	n/a	n/a	-999	14	[0, 0, 0]	n/a	FR1	3	R1341T
1509.665	0.0	1511248	ORIENT_END	n/a	n/a	n/a	-999	14	[0, 0, 0]	n/a	FR1	3	R1341T
1509.665	1.05	1511248	ENCODING_START	n/a	n/a	n/a	-999	14	[0, 0, 0]	n/a	FR1	3	R1341T
1510.715	1.633	1512297	WORD	n/a	n/a	BUSH	1	14	[0, 0, 0]	n/a	FR1	3	R1341T
1512.348	1.069	1513930	WORD_OFF	n/a	n/a	BUSH	1	14	[0, 0, 0]	n/a	FR1	3	R1341T
1513.417	1.631	1514999	WORD	n/a	n/a	APE	2	14	[0, 0, 0]	n/a	FR1	3	R1341T
1515.048	1.148	1516630	WORD_OFF	n/a	n/a	APE	2	14	[0, 0, 0]	n/a	FR1	3	R1341T
1516.196	1.636	1517778	WORD	n/a	n/a	VASE	3	14	[0, 0, 0]	n/a	FR1	3	R1341T
1517.832	0.813	1519414	WORD_OFF	n/a	n/a	VASE	3	14	[0, 0, 0]	n/a	FR1	3	R1341T
1518.645	1.638	1520227	WORD	n/a	n/a	MOON	4	14	[0, 0, 0]	n/a	FR1	3	R1341T
1520.283	1.063	1521865	WORD_OFF	n/a	n/a	MOON	4	14	[0, 0, 0]	n/a	FR1	3	R1341T
1521.346	1.62	1522928	WORD	n/a	n/a	BAG	5	14	[0, 0, 0]	n/a	FR1	3	R1341T
1522.966	0.859	1524548	WORD_OFF	n/a	n/a	BAG	5	14	[0, 0, 0]	n/a	FR1	3	R1341T
1523.825	1.626	1525407	WORD	n/a	n/a	SKY	6	14	[0, 0, 0]	n/a	FR1	3	R1341T
1525.451	0.842	1527033	WORD_OFF	n/a	n/a	SKY	6	14	[0, 0, 0]	n/a	FR1	3	R1341T
1526.293	1.624	1527875	WORD	n/a	n/a	BEE	7	14	[0, 0, 0]	n/a	FR1	3	R1341T
1527.917	1.045	1529499	WORD_OFF	n/a	n/a	BEE	7	14	[0, 0, 0]	n/a	FR1	3	R1341T
1528.962	1.623	1530544	WORD	n/a	n/a	WING	8	14	[0, 0, 0]	n/a	FR1	3	R1341T
1530.585	0.961	1532167	WORD_OFF	n/a	n/a	WING	8	14	[0, 0, 0]	n/a	FR1	3	R1341T
1531.546	1.622	1533128	WORD	n/a	n/a	BRICK	9	14	[0, 0, 0]	n/a	FR1	3	R1341T
1533.168	0.824	1534749	WORD_OFF	n/a	n/a	BRICK	9	14	[0, 0, 0]	n/a	FR1	3	R1341T
1533.992	1.611	1535573	WORD	n/a	n/a	SHEEP	10	14	[0, 0, 0]	n/a	FR1	3	R1341T
1535.603	0.981	1537184	WORD_OFF	n/a	n/a	SHEEP	10	14	[0, 0, 0]	n/a	FR1	3	R1341T
1536.584	1.636	1538165	WORD	n/a	n/a	CLIFF	11	14	[0, 0, 0]	n/a	FR1	3	R1341T
1538.22	1.134	1539801	WORD_OFF	n/a	n/a	CLIFF	11	14	[0, 0, 0]	n/a	FR1	3	R1341T
1539.354	1.632	1540935	WORD	n/a	n/a	NOSE	12	14	[0, 0, 0]	n/a	FR1	3	R1341T
1540.986	0.001	1542567	WORD_OFF	n/a	n/a	NOSE	12	14	[0, 0, 0]	n/a	FR1	3	R1341T
1540.987	0.0	1542568	ENCODING_END	n/a	n/a	n/a	-999	14	[0, 0, 0]	n/a	FR1	3	R1341T
1540.987	0.0	1542568	DISTRACT_START	n/a	n/a	n/a	-999	14	[0, 0, 0]	n/a	FR1	3	R1341T
1540.987	0.016	1542568	START	n/a	n/a	n/a	-999	14	[-999, -999, -999]	n/a	FR1	3	R1341T
1541.003	21.128	1542584	PROB	21.128	n/a	n/a	-999	14	[2, 4, 4]	10	FR1	3	R1341T
1562.131	0.009	1563711	STOP	n/a	n/a	n/a	-999	14	[-999, -999, -999]	n/a	FR1	3	R1341T
1562.14	0.516	1563720	DISTRACT_END	n/a	n/a	n/a	-999	14	[0, 0, 0]	n/a	FR1	3	R1341T
1562.656	1.652	1564236	RETRIEVAL_ORIENT_START	n/a	n/a	n/a	-999	14	[0, 0, 0]	n/a	FR1	3	R1341T
1564.308	0.0	1565888	RETRIEVAL_ORIENT_END	n/a	n/a	n/a	-999	14	[0, 0, 0]	n/a	FR1	3	R1341T
1564.308	2.681	1565888	REC_START	n/a	n/a	n/a	-999	14	[0, 0, 0]	n/a	FR1	3	R1341T
1566.989	0.904	1568569	REC_WORD	0.904	n/a	VASE	3	14	[0, 0, 0]	n/a	FR1	3	R1341T
1567.893	0.731	1569473	REC_WORD	0.731	n/a	MOON	4	14	[0, 0, 0]	n/a	FR1	3	R1341T
1568.624	0.972	1570204	REC_WORD	0.972	n/a	SHEEP	10	14	[0, 0, 0]	n/a	FR1	3	R1341T
1569.596	0.643	1571176	REC_WORD	0.643	n/a	CLIFF	11	14	[0, 0, 0]	n/a	FR1	3	R1341T
1570.239	24.082	1571819	REC_WORD	24.082	n/a	SKY	6	14	[0, 0, 0]	n/a	FR1	3	R1341T
1594.321	0.0	1595900	REC_END	n/a	n/a	n/a	-999	14	[0, 0, 0]	n/a	FR1	3	R1341T
1594.321	0.016	1595900	TRIAL_END	n/a	n/a	n/a	-999	14	[0, 0, 0]	n/a	FR1	3	R1341T
1594.337	0.0	1595916	TRIAL_START	n/a	n/a	n/a	-999	15	[0, 0, 0]	n/a	FR1	3	R1341T
1594.337	0.001	1595916	TRIAL	n/a	n/a	n/a	-999	15	[0, 0, 0]	n/a	FR1	3	R1341T
1594.338	2.159	1595917	WAITING_START	n/a	n/a	n/a	-999	15	[0, 0, 0]	n/a	FR1	3	R1341T
1596.497	0.001	1598076	WAITING_END	n/a	n/a	n/a	-999	15	[0, 0, 0]	n/a	FR1	3	R1341T
1596.498	10.428	1598077	COUNTDOWN_START	n/a	n/a	n/a	-999	15	[0, 0, 0]	n/a	FR1	3	R1341T
1606.926	0.001	1608504	COUNTDOWN_END	n/a	n/a	n/a	-999	15	[0, 0, 0]	n/a	FR1	3	R1341T
1606.927	1.255	1608505	ORIENT_START	n/a	n/a	n/a	-999	15	[0, 0, 0]	n/a	FR1	3	R1341T
1608.182	0.0	1609760	ORIENT_END	n/a	n/a	n/a	-999	15	[0, 0, 0]	n/a	FR1	3	R1341T
1608.182	1.115	1609760	ENCODING_START	n/a	n/a	n/a	-999	15	[0, 0, 0]	n/a	FR1	3	R1341T
1609.297	1.635	1610875	WORD	n/a	n/a	TIE	1	15	[0, 0, 0]	n/a	FR1	3	R1341T
1610.932	1.061	1612510	WORD_OFF	n/a	n/a	TIE	1	15	[0, 0, 0]	n/a	FR1	3	R1341T
1611.993	1.624	1613571	WORD	n/a	n/a	GOAT	2	15	[0, 0, 0]	n/a	FR1	3	R1341T
1613.617	0.941	1615195	WORD_OFF	n/a	n/a	GOAT	2	15	[0, 0, 0]	n/a	FR1	3	R1341T
1614.558	1.625	1616136	WORD	n/a	n/a	TOAST	3	15	[0, 0, 0]	n/a	FR1	3	R1341T
1616.183	0.946	1617761	WORD_OFF	n/a	n/a	TOAST	3	15	[0, 0, 0]	n/a	FR1	3	R1341T
1617.129	1.622	1618707	WORD	n/a	n/a	PEN	4	15	[0, 0, 0]	n/a	FR1	3	R1341T
1618.751	1.13	1620329	WORD_OFF	n/a	n/a	PEN	4	15	[0, 0, 0]	n/a	FR1	3	R1341T
1619.881	1.637	1621459	WORD	n/a	n/a	STORE	5	15	[0, 0, 0]	n/a	FR1	3	R1341T
1621.518	0.885	1623096	WORD_OFF	n/a	n/a	STORE	5	15	[0, 0, 0]	n/a	FR1	3	R1341T
1622.403	1.632	1623981	WORD	n/a	n/a	CORN	6	15	[0, 0, 0]	n/a	FR1	3	R1341T
1624.035	1.095	1625612	WORD_OFF	n/a	n/a	CORN	6	15	[0, 0, 0]	n/a	FR1	3	R1341T
1625.13	1.606	1626707	WORD	n/a	n/a	ROOT	7	15	[0, 0, 0]	n/a	FR1	3	R1341T
1626.736	0.814	1628313	WORD_OFF	n/a	n/a	ROOT	7	15	[0, 0, 0]	n/a	FR1	3	R1341T
1627.55	1.636	1629127	WORD	n/a	n/a	FRUIT	8	15	[0, 0, 0]	n/a	FR1	3	R1341T
1629.186	0.823	1630763	WORD_OFF	n/a	n/a	FRUIT	8	15	[0, 0, 0]	n/a	FR1	3	R1341T
1630.009	1.628	1631586	WORD	n/a	n/a	POOL	9	15	[0, 0, 0]	n/a	FR1	3	R1341T
1631.637	0.983	1633214	WORD_OFF	n/a	n/a	POOL	9	15	[0, 0, 0]	n/a	FR1	3	R1341T
1632.62	1.634	1634197	WORD	n/a	n/a	LAMP	10	15	[0, 0, 0]	n/a	FR1	3	R1341T
1634.254	1.034	1635831	WORD_OFF	n/a	n/a	LAMP	10	15	[0, 0, 0]	n/a	FR1	3	R1341T
1635.288	1.632	1636865	WORD	n/a	n/a	TOOTH	11	15	[0, 0, 0]	n/a	FR1	3	R1341T
1636.92	0.876	1638497	WORD_OFF	n/a	n/a	TOOTH	11	15	[0, 0, 0]	n/a	FR1	3	R1341T
1637.796	1.609	1639373	WORD	n/a	n/a	GEESE	12	15	[0, 0, 0]	n/a	FR1	3	R1341T
1639.405	0.001	1640982	WORD_OFF	n/a	n/a	GEESE	12	15	[0, 0, 0]	n/a	FR1	3	R1341T
1639.406	0.0	1640983	ENCODING_END	n/a	n/a	n/a	-999	15	[0, 0, 0]	n/a	FR1	3	R1341T
1639.406	0.0	1640983	DISTRACT_START	n/a	n/a	n/a	-999	15	[0, 0, 0]	n/a	FR1	3	R1341T
1639.406	0.015	1640983	START	n/a	n/a	n/a	-999	15	[-999, -999, -999]	n/a	FR1	3	R1341T
1639.421	20.251	1640998	PROB	20.251	n/a	n/a	-999	15	[3, 8, 6]	17	FR1	3	R1341T
1659.672	0.02	1661248	STOP	n/a	n/a	n/a	-999	15	[-999, -999, -999]	n/a	FR1	3	R1341T
1659.692	0.627	1661268	DISTRACT_END	n/a	n/a	n/a	-999	15	[0, 0, 0]	n/a	FR1	3	R1341T
1660.319	1.622	1661895	RETRIEVAL_ORIENT_START	n/a	n/a	n/a	-999	15	[0, 0, 0]	n/a	FR1	3	R1341T
1661.941	0.001	1663517	RETRIEVAL_ORIENT_END	n/a	n/a	n/a	-999	15	[0, 0, 0]	n/a	FR1	3	R1341T
1661.942	6.888	1663518	REC_START	n/a	n/a	n/a	-999	15	[0, 0, 0]	n/a	FR1	3	R1341T
1668.83	0.365	1670405	REC_WORD	0.365	n/a	BOOK	-999	15	[0, 0, 0]	n/a	FR1	3	R1341T
1669.195	0.7	1670770	REC_WORD	0.7	n/a	GHOST	-999	15	[0, 0, 0]	n/a	FR1	3	R1341T
1669.895	22.06	1671470	REC_WORD	22.06	n/a	PEN	4	15	[0, 0, 0]	n/a	FR1	3	R1341T
1691.955	0.0	1693529	REC_END	n/a	n/a	n/a	-999	15	[0, 0, 0]	n/a	FR1	3	R1341T
1691.955	0.014	1693529	TRIAL_END	n/a	n/a	n/a	-999	15	[0, 0, 0]	n/a	FR1	3	R1341T
1691.969	0.001	1693543	TRIAL_START	n/a	n/a	n/a	-999	16	[0, 0, 0]	n/a	FR1	3	R1341T
1691.97	0.0	1693544	TRIAL	n/a	n/a	n/a	-999	16	[0, 0, 0]	n/a	FR1	3	R1341T
1691.97	2.545	1693544	WAITING_START	n/a	n/a	n/a	-999	16	[0, 0, 0]	n/a	FR1	3	R1341T
1694.515	0.0	1696089	WAITING_END	n/a	n/a	n/a	-999	16	[0, 0, 0]	n/a	FR1	3	R1341T
1694.515	10.43	1696089	COUNTDOWN_START	n/a	n/a	n/a	-999	16	[0, 0, 0]	n/a	FR1	3	R1341T
1704.945	0.0	1706519	ORIENT_START	n/a	n/a	n/a	-999	16	[0, 0, 0]	n/a	FR1	3	R1341T
1704.945	1.138	1706519	COUNTDOWN_END	n/a	n/a	n/a	-999	16	[0, 0, 0]	n/a	FR1	3	R1341T
1706.083	0.0	1707657	ORIENT_END	n/a	n/a	n/a	-999	16	[0, 0, 0]	n/a	FR1	3	R1341T
1706.083	1.1	1707657	ENCODING_START	n/a	n/a	n/a	-999	16	[0, 0, 0]	n/a	FR1	3	R1341T
1707.183	1.634	1708757	WORD	n/a	n/a	DEER	1	16	[0, 0, 0]	n/a	FR1	3	R1341T
1708.817	0.79	1710391	WORD_OFF	n/a	n/a	DEER	1	16	[0, 0, 0]	n/a	FR1	3	R1341T
1709.607	1.628	1711181	WORD	n/a	n/a	SUN	2	16	[0, 0, 0]	n/a	FR1	3	R1341T
1711.235	1.103	1712809	WORD_OFF	n/a	n/a	SUN	2	16	[0, 0, 0]	n/a	FR1	3	R1341T
1712.338	1.63	1713912	WORD	n/a	n/a	BOOT	3	16	[0, 0, 0]	n/a	FR1	3	R1341T
1713.968	1.052	1715541	WORD_OFF	n/a	n/a	BOOT	3	16	[0, 0, 0]	n/a	FR1	3	R1341T
1715.02	1.632	1716593	WORD	n/a	n/a	CLAY	4	16	[0, 0, 0]	n/a	FR1	3	R1341T
1716.652	1.086	1718225	WORD_OFF	n/a	n/a	CLAY	4	16	[0, 0, 0]	n/a	FR1	3	R1341T
1717.738	1.631	1719311	WORD	n/a	n/a	FUR	5	16	[0, 0, 0]	n/a	FR1	3	R1341T
1719.369	1.056	1720942	WORD_OFF	n/a	n/a	FUR	5	16	[0, 0, 0]	n/a	FR1	3	R1341T
1720.425	1.627	1721998	WORD	n/a	n/a	STOOL	6	16	[0, 0, 0]	n/a	FR1	3	R1341T
1722.052	0.968	1723625	WORD_OFF	n/a	n/a	STOOL	6	16	[0, 0, 0]	n/a	FR1	3	R1341T
1723.02	1.634	1724593	WORD	n/a	n/a	TRASH	7	16	[0, 0, 0]	n/a	FR1	3	R1341T
1724.654	1.138	1726227	WORD_OFF	n/a	n/a	TRASH	7	16	[0, 0, 0]	n/a	FR1	3	R1341T
1725.792	1.629	1727365	WORD	n/a	n/a	JUDGE	8	16	[0, 0, 0]	n/a	FR1	3	R1341T
1727.421	1.091	1728994	WORD_OFF	n/a	n/a	JUDGE	8	16	[0, 0, 0]	n/a	FR1	3	R1341T
1728.512	1.625	1730085	WORD	n/a	n/a	SKI	9	16	[0, 0, 0]	n/a	FR1	3	R1341T
1730.137	1.136	1731710	WORD_OFF	n/a	n/a	SKI	9	16	[0, 0, 0]	n/a	FR1	3	R1341T
1731.273	1.631	1732846	WORD	n/a	n/a	ROAD	10	16	[0, 0, 0]	n/a	FR1	3	R1341T
1732.904	1.076	1734477	WORD_OFF	n/a	n/a	ROAD	10	16	[0, 0, 0]	n/a	FR1	3	R1341T
1733.98	1.626	1735553	WORD	n/a	n/a	SPEAR	11	16	[0, 0, 0]	n/a	FR1	3	R1341T
1735.606	0.877	1737179	WORD_OFF	n/a	n/a	SPEAR	11	16	[0, 0, 0]	n/a	FR1	3	R1341T
1736.483	1.622	1738055	WORD	n/a	n/a	ARK	12	16	[0, 0, 0]	n/a	FR1	3	R1341T
1738.105	0.001	1739677	WORD_OFF	n/a	n/a	ARK	12	16	[0, 0, 0]	n/a	FR1	3	R1341T
1738.106	0.0	1739678	ENCODING_END	n/a	n/a	n/a	-999	16	[0, 0, 0]	n/a	FR1	3	R1341T
1738.106	0.0	1739678	DISTRACT_START	n/a	n/a	n/a	-999	16	[0, 0, 0]	n/a	FR1	3	R1341T
1738.106	0.016	1739678	START	n/a	n/a	n/a	-999	16	[-999, -999, -999]	n/a	FR1	3	R1341T
1738.122	25.459	1739694	PROB	25.459	n/a	n/a	-999	16	[5, 9, 7]	21	FR1	3	R1341T
1763.581	0.013	1765152	STOP	n/a	n/a	n/a	-999	16	[-999, -999, -999]	n/a	FR1	3	R1341T
1763.594	0.632	1765165	DISTRACT_END	n/a	n/a	n/a	-999	16	[0, 0, 0]	n/a	FR1	3	R1341T
1764.226	1.601	1765797	RETRIEVAL_ORIENT_START	n/a	n/a	n/a	-999	16	[0, 0, 0]	n/a	FR1	3	R1341T
1765.827	0.0	1767398	RETRIEVAL_ORIENT_END	n/a	n/a	n/a	-999	16	[0, 0, 0]	n/a	FR1	3	R1341T
1765.827	4.56	1767398	REC_START	n/a	n/a	n/a	-999	16	[0, 0, 0]	n/a	FR1	3	R1341T
1770.387	0.459	1771958	REC_WORD	0.459	n/a	BOAT	-999	16	[0, 0, 0]	n/a	FR1	3	R1341T
1770.846	0.599	1772417	REC_WORD	0.599	n/a	SUN	2	16	[0, 0, 0]	n/a	FR1	3	R1341T
1771.445	2.596	1773016	REC_WORD	2.596	n/a	SPEAR	11	16	[0, 0, 0]	n/a	FR1	3	R1341T
1774.041	21.8	1775612	REC_WORD	21.8	n/a	CLAY	4	16	[0, 0, 0]	n/a	FR1	3	R1341T
1795.841	0.0	1797411	REC_END	n/a	n/a	n/a	-999	16	[0, 0, 0]	n/a	FR1	3	R1341T
1795.841	0.016	1797411	TRIAL_END	n/a	n/a	n/a	-999	16	[0, 0, 0]	n/a	FR1	3	R1341T
1795.857	0.0	1797427	TRIAL_START	n/a	n/a	n/a	-999	17	[0, 0, 0]	n/a	FR1	3	R1341T
1795.857	0.0	1797427	TRIAL	n/a	n/a	n/a	-999	17	[0, 0, 0]	n/a	FR1	3	R1341T
1795.857	2.093	1797427	WAITING_START	n/a	n/a	n/a	-999	17	[0, 0, 0]	n/a	FR1	3	R1341T
1797.95	0.0	1799520	WAITING_END	n/a	n/a	n/a	-999	17	[0, 0, 0]	n/a	FR1	3	R1341T
1797.95	10.428	1799520	COUNTDOWN_START	n/a	n/a	n/a	-999	17	[0, 0, 0]	n/a	FR1	3	R1341T
1808.378	0.001	1809947	COUNTDOWN_END	n/a	n/a	n/a	-999	17	[0, 0, 0]	n/a	FR1	3	R1341T
1808.379	1.224	1809948	ORIENT_START	n/a	n/a	n/a	-999	17	[0, 0, 0]	n/a	FR1	3	R1341T
1809.603	0.0	1811172	ORIENT_END	n/a	n/a	n/a	-999	17	[0, 0, 0]	n/a	FR1	3	R1341T
1809.603	1.077	1811172	ENCODING_START	n/a	n/a	n/a	-999	17	[0, 0, 0]	n/a	FR1	3	R1341T
1810.68	1.623	1812249	WORD	n/a	n/a	ROOM	1	17	[0, 0, 0]	n/a	FR1	3	R1341T
1812.303	1.094	1813872	WORD_OFF	n/a	n/a	ROOM	1	17	[0, 0, 0]	n/a	FR1	3	R1341T
1813.397	1.622	1814966	WORD	n/a	n/a	PEA	2	17	[0, 0, 0]	n/a	FR1	3	R1341T
1815.019	0.929	1816588	WORD_OFF	n/a	n/a	PEA	2	17	[0, 0, 0]	n/a	FR1	3	R1341T
1815.948	1.606	1817517	WORD	n/a	n/a	TEETH	3	17	[0, 0, 0]	n/a	FR1	3	R1341T
1817.554	0.996	1819123	WORD_OFF	n/a	n/a	TEETH	3	17	[0, 0, 0]	n/a	FR1	3	R1341T
1818.55	1.637	1820119	WORD	n/a	n/a	BOX	4	17	[0, 0, 0]	n/a	FR1	3	R1341T
1820.187	0.856	1821756	WORD_OFF	n/a	n/a	BOX	4	17	[0, 0, 0]	n/a	FR1	3	R1341T
1821.043	1.612	1822612	WORD	n/a	n/a	POLE	5	17	[0, 0, 0]	n/a	FR1	3	R1341T
1822.655	0.949	1824224	WORD_OFF	n/a	n/a	POLE	5	17	[0, 0, 0]	n/a	FR1	3	R1341T
1823.604	1.635	1825173	WORD	n/a	n/a	EGG	6	17	[0, 0, 0]	n/a	FR1	3	R1341T
1825.239	1.07	1826808	WORD_OFF	n/a	n/a	EGG	6	17	[0, 0, 0]	n/a	FR1	3	R1341T
1826.309	1.629	1827878	WORD	n/a	n/a	BOWL	7	17	[0, 0, 0]	n/a	FR1	3	R1341T
1827.938	1.135	1829506	WORD_OFF	n/a	n/a	BOWL	7	17	[0, 0, 0]	n/a	FR1	3	R1341T
1829.073	1.616	1830641	WORD	n/a	n/a	VAN	8	17	[0, 0, 0]	n/a	FR1	3	R1341T
1830.689	0.776	1832257	WORD_OFF	n/a	n/a	VAN	8	17	[0, 0, 0]	n/a	FR1	3	R1341T
1831.465	1.624	1833033	WORD	n/a	n/a	SAIL	9	17	[0, 0, 0]	n/a	FR1	3	R1341T
1833.089	0.924	1834657	WORD_OFF	n/a	n/a	SAIL	9	17	[0, 0, 0]	n/a	FR1	3	R1341T
1834.013	1.611	1835581	WORD	n/a	n/a	SHARK	10	17	[0, 0, 0]	n/a	FR1	3	R1341T
1835.624	0.758	1837192	WORD_OFF	n/a	n/a	SHARK	10	17	[0, 0, 0]	n/a	FR1	3	R1341T
1836.382	1.625	1837950	WORD	n/a	n/a	WAVE	11	17	[0, 0, 0]	n/a	FR1	3	R1341T
1838.007	1.111	1839575	WORD_OFF	n/a	n/a	WAVE	11	17	[0, 0, 0]	n/a	FR1	3	R1341T
1839.118	1.607	1840686	WORD	n/a	n/a	BOAT	12	17	[0, 0, 0]	n/a	FR1	3	R1341T
1840.725	0.0	1842293	WORD_OFF	n/a	n/a	BOAT	12	17	[0, 0, 0]	n/a	FR1	3	R1341T
1840.725	0.001	1842293	ENCODING_END	n/a	n/a	n/a	-999	17	[0, 0, 0]	n/a	FR1	3	R1341T
1840.726	0.0	1842294	DISTRACT_START	n/a	n/a	n/a	-999	17	[0, 0, 0]	n/a	FR1	3	R1341T
1840.726	0.015	1842294	START	n/a	n/a	n/a	-999	17	[-999, -999, -999]	n/a	FR1	3	R1341T
1840.741	20.85	1842309	PROB	20.85	n/a	n/a	-999	17	[1, 9, 9]	19	FR1	3	R1341T
1861.591	0.021	1863158	STOP	n/a	n/a	n/a	-999	17	[-999, -999, -999]	n/a	FR1	3	R1341T
1861.612	0.628	1863179	DISTRACT_END	n/a	n/a	n/a	-999	17	[0, 0, 0]	n/a	FR1	3	R1341T
1862.24	1.621	1863807	RETRIEVAL_ORIENT_START	n/a	n/a	n/a	-999	17	[0, 0, 0]	n/a	FR1	3	R1341T
1863.861	0.001	1865428	RETRIEVAL_ORIENT_END	n/a	n/a	n/a	-999	17	[0, 0, 0]	n/a	FR1	3	R1341T
1863.862	2.958	1865429	REC_START	n/a	n/a	n/a	-999	17	[0, 0, 0]	n/a	FR1	3	R1341T
1866.82	0.598	1868387	REC_WORD	0.598	n/a	ROOM	1	17	[0, 0, 0]	n/a	FR1	3	R1341T
1867.418	0.665	1868985	REC_WORD	0.665	n/a	TOOTH	-999	17	[0, 0, 0]	n/a	FR1	3	R1341T
1868.083	0.449	1869650	REC_WORD	0.449	n/a	BOAT	12	17	[0, 0, 0]	n/a	FR1	3	R1341T
1868.532	5.129	1870099	REC_WORD	5.129	n/a	SAIL	9	17	[0, 0, 0]	n/a	FR1	3	R1341T
1873.661	20.214	1875227	REC_WORD	20.214	n/a	SHARK	10	17	[0, 0, 0]	n/a	FR1	3	R1341T
1893.875	0.0	1895441	TRIAL_END	n/a	n/a	n/a	-999	17	[0, 0, 0]	n/a	FR1	3	R1341T
1893.875	0.016	1895441	REC_END	n/a	n/a	n/a	-999	17	[0, 0, 0]	n/a	FR1	3	R1341T
1893.891	0.001	1895457	TRIAL_START	n/a	n/a	n/a	-999	18	[0, 0, 0]	n/a	FR1	3	R1341T
1893.892	0.0	1895458	TRIAL	n/a	n/a	n/a	-999	18	[0, 0, 0]	n/a	FR1	3	R1341T
1893.892	3.877	1895458	WAITING_START	n/a	n/a	n/a	-999	18	[0, 0, 0]	n/a	FR1	3	R1341T
1897.769	0.0	1899334	WAITING_END	n/a	n/a	n/a	-999	18	[0, 0, 0]	n/a	FR1	3	R1341T
1897.769	10.428	1899334	COUNTDOWN_START	n/a	n/a	n/a	-999	18	[0, 0, 0]	n/a	FR1	3	R1341T
1908.197	0.001	1909762	COUNTDOWN_END	n/a	n/a	n/a	-999	18	[0, 0, 0]	n/a	FR1	3	R1341T
1908.198	1.256	1909763	ORIENT_START	n/a	n/a	n/a	-999	18	[0, 0, 0]	n/a	FR1	3	R1341T
1909.454	0.0	1911019	ENCODING_START	n/a	n/a	n/a	-999	18	[0, 0, 0]	n/a	FR1	3	R1341T
1909.454	0.984	1911019	ORIENT_END	n/a	n/a	n/a	-999	18	[0, 0, 0]	n/a	FR1	3	R1341T
1910.438	1.632	1912003	WORD	n/a	n/a	BRIDGE	1	18	[0, 0, 0]	n/a	FR1	3	R1341T
1912.07	0.938	1913635	WORD_OFF	n/a	n/a	BRIDGE	1	18	[0, 0, 0]	n/a	FR1	3	R1341T
1913.008	1.614	1914573	WORD	n/a	n/a	CHEEK	2	18	[0, 0, 0]	n/a	FR1	3	R1341T
1914.622	0.802	1916187	WORD_OFF	n/a	n/a	CHEEK	2	18	[0, 0, 0]	n/a	FR1	3	R1341T
1915.424	1.63	1916989	WORD	n/a	n/a	HOSE	3	18	[0, 0, 0]	n/a	FR1	3	R1341T
1917.054	1.082	1918619	WORD_OFF	n/a	n/a	HOSE	3	18	[0, 0, 0]	n/a	FR1	3	R1341T
1918.136	1.62	1919700	WORD	n/a	n/a	RAKE	4	18	[0, 0, 0]	n/a	FR1	3	R1341T
1919.756	1.145	1921320	WORD_OFF	n/a	n/a	RAKE	4	18	[0, 0, 0]	n/a	FR1	3	R1341T
1920.901	1.622	1922465	WORD	n/a	n/a	LAMB	5	18	[0, 0, 0]	n/a	FR1	3	R1341T
1922.523	0.899	1924087	WORD_OFF	n/a	n/a	LAMB	5	18	[0, 0, 0]	n/a	FR1	3	R1341T
1923.422	1.634	1924986	WORD	n/a	n/a	LOCK	6	18	[0, 0, 0]	n/a	FR1	3	R1341T
1925.056	0.835	1926620	WORD_OFF	n/a	n/a	LOCK	6	18	[0, 0, 0]	n/a	FR1	3	R1341T
1925.891	1.633	1927455	WORD	n/a	n/a	STOVE	7	18	[0, 0, 0]	n/a	FR1	3	R1341T
1927.524	1.029	1929088	WORD_OFF	n/a	n/a	STOVE	7	18	[0, 0, 0]	n/a	FR1	3	R1341T
1928.553	1.62	1930117	WORD	n/a	n/a	PET	8	18	[0, 0, 0]	n/a	FR1	3	R1341T
1930.173	1.009	1931737	WORD_OFF	n/a	n/a	PET	8	18	[0, 0, 0]	n/a	FR1	3	R1341T
1931.182	1.625	1932746	WORD	n/a	n/a	DESK	9	18	[0, 0, 0]	n/a	FR1	3	R1341T
1932.807	0.956	1934371	WORD_OFF	n/a	n/a	DESK	9	18	[0, 0, 0]	n/a	FR1	3	R1341T
1933.763	1.629	1935327	WORD	n/a	n/a	SOAP	10	18	[0, 0, 0]	n/a	FR1	3	R1341T
1935.392	1.142	1936956	WORD_OFF	n/a	n/a	SOAP	10	18	[0, 0, 0]	n/a	FR1	3	R1341T
1936.534	1.624	1938098	WORD	n/a	n/a	PEARL	11	18	[0, 0, 0]	n/a	FR1	3	R1341T
1938.158	0.947	1939722	WORD_OFF	n/a	n/a	PEARL	11	18	[0, 0, 0]	n/a	FR1	3	R1341T
1939.105	1.621	1940669	WORD	n/a	n/a	PANTS	12	18	[0, 0, 0]	n/a	FR1	3	R1341T
1940.726	0.001	1942289	WORD_OFF	n/a	n/a	PANTS	12	18	[0, 0, 0]	n/a	FR1	3	R1341T
1940.727	0.0	1942290	ENCODING_END	n/a	n/a	n/a	-999	18	[0, 0, 0]	n/a	FR1	3	R1341T
1940.727	0.0	1942290	DISTRACT_START	n/a	n/a	n/a	-999	18	[0, 0, 0]	n/a	FR1	3	R1341T
1940.727	0.016	1942290	START	n/a	n/a	n/a	-999	18	[-999, -999, -999]	n/a	FR1	3	R1341T
1940.743	9.384	1942306	PROB	9.384	n/a	n/a	-999	18	[1, 7, 4]	12	FR1	3	R1341T
1950.127	14.582	1951690	PROB	14.582	n/a	n/a	-999	18	[8, 2, 8]	18	FR1	3	R1341T
1964.709	0.022	1966271	STOP	n/a	n/a	n/a	-999	18	[-999, -999, -999]	n/a	FR1	3	R1341T
1964.731	0.686	1966293	DISTRACT_END	n/a	n/a	n/a	-999	18	[0, 0, 0]	n/a	FR1	3	R1341T
1965.417	1.563	1966979	RETRIEVAL_ORIENT_START	n/a	n/a	n/a	-999	18	[0, 0, 0]	n/a	FR1	3	R1341T
1966.98	0.0	1968542	RETRIEVAL_ORIENT_END	n/a	n/a	n/a	-999	18	[0, 0, 0]	n/a	FR1	3	R1341T
1966.98	10.429	1968542	REC_START	n/a	n/a	n/a	-999	18	[0, 0, 0]	n/a	FR1	3	R1341T
1977.409	0.887	1978971	REC_WORD	0.887	n/a	CHEEK	2	18	[0, 0, 0]	n/a	FR1	3	R1341T
1978.296	18.696	1979858	REC_WORD	18.696	n/a	PEARL	11	18	[0, 0, 0]	n/a	FR1	3	R1341T
1996.992	0.0	1998553	REC_END	n/a	n/a	n/a	-999	18	[0, 0, 0]	n/a	FR1	3	R1341T
1996.992	0.018	1998553	TRIAL_END	n/a	n/a	n/a	-999	18	[0, 0, 0]	n/a	FR1	3	R1341T
1997.01	0.0	1998571	TRIAL	n/a	n/a	n/a	-999	19	[0, 0, 0]	n/a	FR1	3	R1341T
1997.01	0.001	1998571	TRIAL_START	n/a	n/a	n/a	-999	19	[0, 0, 0]	n/a	FR1	3	R1341T
1997.011	1.759	1998572	WAITING_START	n/a	n/a	n/a	-999	19	[0, 0, 0]	n/a	FR1	3	R1341T
1998.77	0.001	2000331	WAITING_END	n/a	n/a	n/a	-999	19	[0, 0, 0]	n/a	FR1	3	R1341T
1998.771	10.429	2000332	COUNTDOWN_START	n/a	n/a	n/a	-999	19	[0, 0, 0]	n/a	FR1	3	R1341T
2009.2	0.0	2010760	COUNTDOWN_END	n/a	n/a	n/a	-999	19	[0, 0, 0]	n/a	FR1	3	R1341T
2009.2	1.156	2010760	ORIENT_START	n/a	n/a	n/a	-999	19	[0, 0, 0]	n/a	FR1	3	R1341T
2010.356	0.0	2011916	ORIENT_END	n/a	n/a	n/a	-999	19	[0, 0, 0]	n/a	FR1	3	R1341T
2010.356	0.835	2011916	ENCODING_START	n/a	n/a	n/a	-999	19	[0, 0, 0]	n/a	FR1	3	R1341T
2011.191	1.631	2012751	WORD	n/a	n/a	STEM	1	19	[0, 0, 0]	n/a	FR1	3	R1341T
2012.822	1.115	2014382	WORD_OFF	n/a	n/a	STEM	1	19	[0, 0, 0]	n/a	FR1	3	R1341T
2013.937	1.636	2015497	WORD	n/a	n/a	SQUARE	2	19	[0, 0, 0]	n/a	FR1	3	R1341T
2015.573	1.032	2017133	WORD_OFF	n/a	n/a	SQUARE	2	19	[0, 0, 0]	n/a	FR1	3	R1341T
2016.605	1.635	2018165	WORD	n/a	n/a	BEAN	3	19	[0, 0, 0]	n/a	FR1	3	R1341T
2018.24	1.112	2019800	WORD_OFF	n/a	n/a	BEAN	3	19	[0, 0, 0]	n/a	FR1	3	R1341T
2019.352	1.621	2020912	WORD	n/a	n/a	COIN	4	19	[0, 0, 0]	n/a	FR1	3	R1341T
2020.973	0.892	2022533	WORD_OFF	n/a	n/a	COIN	4	19	[0, 0, 0]	n/a	FR1	3	R1341T
2021.865	1.626	2023425	WORD	n/a	n/a	SKUNK	5	19	[0, 0, 0]	n/a	FR1	3	R1341T
2023.491	0.883	2025051	WORD_OFF	n/a	n/a	SKUNK	5	19	[0, 0, 0]	n/a	FR1	3	R1341T
2024.374	1.633	2025934	WORD	n/a	n/a	FOAM	6	19	[0, 0, 0]	n/a	FR1	3	R1341T
2026.007	0.877	2027567	WORD_OFF	n/a	n/a	FOAM	6	19	[0, 0, 0]	n/a	FR1	3	R1341T
2026.884	1.625	2028444	WORD	n/a	n/a	EAR	7	19	[0, 0, 0]	n/a	FR1	3	R1341T
2028.509	0.792	2030069	WORD_OFF	n/a	n/a	EAR	7	19	[0, 0, 0]	n/a	FR1	3	R1341T
2029.301	1.624	2030861	WORD	n/a	n/a	DUCK	8	19	[0, 0, 0]	n/a	FR1	3	R1341T
2030.925	1.064	2032484	WORD_OFF	n/a	n/a	DUCK	8	19	[0, 0, 0]	n/a	FR1	3	R1341T
2031.989	1.637	2033548	WORD	n/a	n/a	BROOM	9	19	[0, 0, 0]	n/a	FR1	3	R1341T
2033.626	1.115	2035185	WORD_OFF	n/a	n/a	BROOM	9	19	[0, 0, 0]	n/a	FR1	3	R1341T
2034.741	1.636	2036300	WORD	n/a	n/a	ROPE	10	19	[0, 0, 0]	n/a	FR1	3	R1341T
2036.377	0.84	2037936	WORD_OFF	n/a	n/a	ROPE	10	19	[0, 0, 0]	n/a	FR1	3	R1341T
2037.217	1.626	2038776	WORD	n/a	n/a	WOLF	11	19	[0, 0, 0]	n/a	FR1	3	R1341T
2038.843	1.088	2040402	WORD_OFF	n/a	n/a	WOLF	11	19	[0, 0, 0]	n/a	FR1	3	R1341T
2039.931	1.63	2041490	WORD	n/a	n/a	SEA	12	19	[0, 0, 0]	n/a	FR1	3	R1341T
2041.561	0.001	2043120	WORD_OFF	n/a	n/a	SEA	12	19	[0, 0, 0]	n/a	FR1	3	R1341T
2041.562	0.0	2043121	ENCODING_END	n/a	n/a	n/a	-999	19	[0, 0, 0]	n/a	FR1	3	R1341T
2041.562	0.0	2043121	DISTRACT_START	n/a	n/a	n/a	-999	19	[0, 0, 0]	n/a	FR1	3	R1341T
2041.562	0.016	2043121	START	n/a	n/a	n/a	-999	19	[-999, -999, -999]	n/a	FR1	3	R1341T
2041.578	4.499	2043137	PROB	4.499	n/a	n/a	-999	19	[4, 1, 3]	8	FR1	3	R1341T
2046.077	11.953	2047636	PROB	11.953	n/a	n/a	-999	19	[8, 9, 8]	25	FR1	3	R1341T
2058.03	15.856	2059588	PROB	15.856	n/a	n/a	-999	19	[8, 8, 5]	21	FR1	3	R1341T
2073.886	0.013	2075444	STOP	n/a	n/a	n/a	-999	19	[-999, -999, -999]	n/a	FR1	3	R1341T
2073.899	0.551	2075457	DISTRACT_END	n/a	n/a	n/a	-999	19	[0, 0, 0]	n/a	FR1	3	R1341T
2074.45	1.617	2076008	RETRIEVAL_ORIENT_START	n/a	n/a	n/a	-999	19	[0, 0, 0]	n/a	FR1	3	R1341T
2076.067	0.0	2077624	RETRIEVAL_ORIENT_END	n/a	n/a	n/a	-999	19	[0, 0, 0]	n/a	FR1	3	R1341T
2076.067	4.604	2077624	REC_START	n/a	n/a	n/a	-999	19	[0, 0, 0]	n/a	FR1	3	R1341T
2080.671	1.556	2082228	REC_WORD_VV	1.556	n/a	<>	-999	19	[0, 0, 0]	n/a	FR1	3	R1341T
2082.227	0.785	2083784	REC_WORD	0.785	n/a	SQUARE	2	19	[0, 0, 0]	n/a	FR1	3	R1341T
2083.012	2.086	2084569	REC_WORD	2.086	n/a	CUBE	-999	19	[0, 0, 0]	n/a	FR1	3	R1341T
2085.098	11.408	2086655	REC_WORD_VV	11.408	n/a	<>	-999	19	[0, 0, 0]	n/a	FR1	3	R1341T
2096.506	9.573	2098063	REC_WORD	9.573	n/a	STRING	-999	19	[0, 0, 0]	n/a	FR1	3	R1341T
2106.079	0.0	2107635	REC_END	n/a	n/a	n/a	-999	19	[0, 0, 0]	n/a	FR1	3	R1341T
2106.079	0.016	2107635	TRIAL_END	n/a	n/a	n/a	-999	19	[0, 0, 0]	n/a	FR1	3	R1341T
2106.095	0.0	2107651	TRIAL_START	n/a	n/a	n/a	-999	20	[0, 0, 0]	n/a	FR1	3	R1341T
2106.095	0.0	2107651	TRIAL	n/a	n/a	n/a	-999	20	[0, 0, 0]	n/a	FR1	3	R1341T
2106.095	1.994	2107651	WAITING_START	n/a	n/a	n/a	-999	20	[0, 0, 0]	n/a	FR1	3	R1341T
2108.089	0.001	2109645	WAITING_END	n/a	n/a	n/a	-999	20	[0, 0, 0]	n/a	FR1	3	R1341T
2108.09	10.429	2109646	COUNTDOWN_START	n/a	n/a	n/a	-999	20	[0, 0, 0]	n/a	FR1	3	R1341T
2118.519	0.0	2120075	COUNTDOWN_END	n/a	n/a	n/a	-999	20	[0, 0, 0]	n/a	FR1	3	R1341T
2118.519	1.173	2120075	ORIENT_START	n/a	n/a	n/a	-999	20	[0, 0, 0]	n/a	FR1	3	R1341T
2119.692	0.0	2121248	ORIENT_END	n/a	n/a	n/a	-999	20	[0, 0, 0]	n/a	FR1	3	R1341T
2119.692	0.785	2121248	ENCODING_START	n/a	n/a	n/a	-999	20	[0, 0, 0]	n/a	FR1	3	R1341T
2120.477	1.631	2122033	WORD	n/a	n/a	HILL	1	20	[0, 0, 0]	n/a	FR1	3	R1341T
2122.108	0.757	2123663	WORD_OFF	n/a	n/a	HILL	1	20	[0, 0, 0]	n/a	FR1	3	R1341T
2122.865	1.628	2124420	WORD	n/a	n/a	CAKE	2	20	[0, 0, 0]	n/a	FR1	3	R1341T
2124.493	0.825	2126048	WORD_OFF	n/a	n/a	CAKE	2	20	[0, 0, 0]	n/a	FR1	3	R1341T
2125.318	1.624	2126873	WORD	n/a	n/a	JET	3	20	[0, 0, 0]	n/a	FR1	3	R1341T
2126.942	0.783	2128497	WORD_OFF	n/a	n/a	JET	3	20	[0, 0, 0]	n/a	FR1	3	R1341T
2127.725	1.636	2129280	WORD	n/a	n/a	DOLL	4	20	[0, 0, 0]	n/a	FR1	3	R1341T
2129.361	1.104	2130916	WORD_OFF	n/a	n/a	DOLL	4	20	[0, 0, 0]	n/a	FR1	3	R1341T
2130.465	1.628	2132020	WORD	n/a	n/a	HEART	5	20	[0, 0, 0]	n/a	FR1	3	R1341T
2132.093	0.953	2133648	WORD_OFF	n/a	n/a	HEART	5	20	[0, 0, 0]	n/a	FR1	3	R1341T
2133.046	1.616	2134601	WORD	n/a	n/a	ANT	6	20	[0, 0, 0]	n/a	FR1	3	R1341T
2134.662	0.862	2136217	WORD_OFF	n/a	n/a	ANT	6	20	[0, 0, 0]	n/a	FR1	3	R1341T
2135.524	1.62	2137079	WORD	n/a	n/a	TREE	7	20	[0, 0, 0]	n/a	FR1	3	R1341T
2137.144	1.069	2138699	WORD_OFF	n/a	n/a	TREE	7	20	[0, 0, 0]	n/a	FR1	3	R1341T
2138.213	1.632	2139768	WORD	n/a	n/a	MOLE	8	20	[0, 0, 0]	n/a	FR1	3	R1341T
2139.845	1.041	2141400	WORD_OFF	n/a	n/a	MOLE	8	20	[0, 0, 0]	n/a	FR1	3	R1341T
2140.886	1.627	2142441	WORD	n/a	n/a	SCHOOL	9	20	[0, 0, 0]	n/a	FR1	3	R1341T
2142.513	0.864	2144068	WORD_OFF	n/a	n/a	SCHOOL	9	20	[0, 0, 0]	n/a	FR1	3	R1341T
2143.377	1.635	2144931	WORD	n/a	n/a	FORT	10	20	[0, 0, 0]	n/a	FR1	3	R1341T
2145.012	1.009	2146566	WORD_OFF	n/a	n/a	FORT	10	20	[0, 0, 0]	n/a	FR1	3	R1341T
2146.021	1.626	2147575	WORD	n/a	n/a	MAZE	11	20	[0, 0, 0]	n/a	FR1	3	R1341T
2147.647	0.79	2149201	WORD_OFF	n/a	n/a	MAZE	11	20	[0, 0, 0]	n/a	FR1	3	R1341T
2148.437	1.626	2149991	WORD	n/a	n/a	ZOO	12	20	[0, 0, 0]	n/a	FR1	3	R1341T
2150.063	0.001	2151617	WORD_OFF	n/a	n/a	ZOO	12	20	[0, 0, 0]	n/a	FR1	3	R1341T
2150.064	0.0	2151618	ENCODING_END	n/a	n/a	n/a	-999	20	[0, 0, 0]	n/a	FR1	3	R1341T
2150.064	0.0	2151618	DISTRACT_START	n/a	n/a	n/a	-999	20	[0, 0, 0]	n/a	FR1	3	R1341T
2150.064	0.016	2151618	START	n/a	n/a	n/a	-999	20	[-999, -999, -999]	n/a	FR1	3	R1341T
2150.08	17.571	2151634	PROB	17.571	n/a	n/a	-999	20	[4, 1, 4]	9	FR1	3	R1341T
2167.651	7.344	2169204	PROB	7.344	n/a	n/a	-999	20	[3, 8, 4]	15	FR1	3	R1341T
2174.995	0.006	2176548	STOP	n/a	n/a	n/a	-999	20	[-999, -999, -999]	n/a	FR1	3	R1341T
2175.001	0.586	2176554	DISTRACT_END	n/a	n/a	n/a	-999	20	[0, 0, 0]	n/a	FR1	3	R1341T
2175.587	1.614	2177140	RETRIEVAL_ORIENT_START	n/a	n/a	n/a	-999	20	[0, 0, 0]	n/a	FR1	3	R1341T
2177.201	0.001	2178754	RETRIEVAL_ORIENT_END	n/a	n/a	n/a	-999	20	[0, 0, 0]	n/a	FR1	3	R1341T
2177.202	6.671	2178755	REC_START	n/a	n/a	n/a	-999	20	[0, 0, 0]	n/a	FR1	3	R1341T
2183.873	0.683	2185426	REC_WORD	0.683	n/a	JET	3	20	[0, 0, 0]	n/a	FR1	3	R1341T
2184.556	0.654	2186109	REC_WORD	0.654	n/a	DOLL	4	20	[0, 0, 0]	n/a	FR1	3	R1341T
2185.21	22.004	2186763	REC_WORD	22.004	n/a	ANT	6	20	[0, 0, 0]	n/a	FR1	3	R1341T
2207.214	0.0	2208766	REC_END	n/a	n/a	n/a	-999	20	[0, 0, 0]	n/a	FR1	3	R1341T
2207.214	0.015	2208766	TRIAL_END	n/a	n/a	n/a	-999	20	[0, 0, 0]	n/a	FR1	3	R1341T
2207.229	0.0	2208781	TRIAL_START	n/a	n/a	n/a	-999	21	[0, 0, 0]	n/a	FR1	3	R1341T
2207.229	0.0	2208781	TRIAL	n/a	n/a	n/a	-999	21	[0, 0, 0]	n/a	FR1	3	R1341T
2207.229	1.762	2208781	WAITING_START	n/a	n/a	n/a	-999	21	[0, 0, 0]	n/a	FR1	3	R1341T
2208.991	0.0	2210543	WAITING_END	n/a	n/a	n/a	-999	21	[0, 0, 0]	n/a	FR1	3	R1341T
2208.991	10.428	2210543	COUNTDOWN_START	n/a	n/a	n/a	-999	21	[0, 0, 0]	n/a	FR1	3	R1341T
2219.419	0.0	2220970	COUNTDOWN_END	n/a	n/a	n/a	-999	21	[0, 0, 0]	n/a	FR1	3	R1341T
2219.419	1.091	2220970	ORIENT_START	n/a	n/a	n/a	-999	21	[0, 0, 0]	n/a	FR1	3	R1341T
2220.51	0.001	2222061	ORIENT_END	n/a	n/a	n/a	-999	21	[0, 0, 0]	n/a	FR1	3	R1341T
2220.511	0.857	2222062	ENCODING_START	n/a	n/a	n/a	-999	21	[0, 0, 0]	n/a	FR1	3	R1341T
2221.368	1.625	2222919	WORD	n/a	n/a	HEN	1	21	[0, 0, 0]	n/a	FR1	3	R1341T
2222.993	0.802	2224544	WORD_OFF	n/a	n/a	HEN	1	21	[0, 0, 0]	n/a	FR1	3	R1341T
2223.795	1.633	2225346	WORD	n/a	n/a	FISH	2	21	[0, 0, 0]	n/a	FR1	3	R1341T
2225.428	0.921	2226979	WORD_OFF	n/a	n/a	FISH	2	21	[0, 0, 0]	n/a	FR1	3	R1341T
2226.349	1.628	2227900	WORD	n/a	n/a	PLANT	3	21	[0, 0, 0]	n/a	FR1	3	R1341T
2227.977	1.087	2229528	WORD_OFF	n/a	n/a	PLANT	3	21	[0, 0, 0]	n/a	FR1	3	R1341T
2229.064	1.632	2230615	WORD	n/a	n/a	STAIR	4	21	[0, 0, 0]	n/a	FR1	3	R1341T
2230.696	0.879	2232247	WORD_OFF	n/a	n/a	STAIR	4	21	[0, 0, 0]	n/a	FR1	3	R1341T
2231.575	1.62	2233126	WORD	n/a	n/a	HOLE	5	21	[0, 0, 0]	n/a	FR1	3	R1341T
2233.195	1.076	2234746	WORD_OFF	n/a	n/a	HOLE	5	21	[0, 0, 0]	n/a	FR1	3	R1341T
2234.271	1.625	2235821	WORD	n/a	n/a	GATE	6	21	[0, 0, 0]	n/a	FR1	3	R1341T
2235.896	0.968	2237446	WORD_OFF	n/a	n/a	GATE	6	21	[0, 0, 0]	n/a	FR1	3	R1341T
2236.864	1.616	2238414	WORD	n/a	n/a	BENCH	7	21	[0, 0, 0]	n/a	FR1	3	R1341T
2238.48	0.868	2240030	WORD_OFF	n/a	n/a	BENCH	7	21	[0, 0, 0]	n/a	FR1	3	R1341T
2239.348	1.632	2240898	WORD	n/a	n/a	SLEEVE	8	21	[0, 0, 0]	n/a	FR1	3	R1341T
2240.98	1.122	2242530	WORD_OFF	n/a	n/a	SLEEVE	8	21	[0, 0, 0]	n/a	FR1	3	R1341T
2242.102	1.629	2243652	WORD	n/a	n/a	TRAIN	9	21	[0, 0, 0]	n/a	FR1	3	R1341T
2243.731	1.106	2245281	WORD_OFF	n/a	n/a	TRAIN	9	21	[0, 0, 0]	n/a	FR1	3	R1341T
2244.837	1.628	2246387	WORD	n/a	n/a	CROW	10	21	[0, 0, 0]	n/a	FR1	3	R1341T
2246.465	0.942	2248015	WORD_OFF	n/a	n/a	CROW	10	21	[0, 0, 0]	n/a	FR1	3	R1341T
2247.407	1.624	2248957	WORD	n/a	n/a	WHEEL	11	21	[0, 0, 0]	n/a	FR1	3	R1341T
2249.031	0.85	2250581	WORD_OFF	n/a	n/a	WHEEL	11	21	[0, 0, 0]	n/a	FR1	3	R1341T
2249.881	1.618	2251431	WORD	n/a	n/a	DOCK	12	21	[0, 0, 0]	n/a	FR1	3	R1341T
2251.499	0.001	2253049	WORD_OFF	n/a	n/a	DOCK	12	21	[0, 0, 0]	n/a	FR1	3	R1341T
2251.5	0.0	2253050	ENCODING_END	n/a	n/a	n/a	-999	21	[0, 0, 0]	n/a	FR1	3	R1341T
2251.5	0.0	2253050	DISTRACT_START	n/a	n/a	n/a	-999	21	[0, 0, 0]	n/a	FR1	3	R1341T
2251.5	0.016	2253050	START	n/a	n/a	n/a	-999	21	[-999, -999, -999]	n/a	FR1	3	R1341T
2251.516	19.903	2253066	PROB	19.903	n/a	n/a	-999	21	[7, 3, 4]	14	FR1	3	R1341T
2271.419	5.172	2272968	PROB	5.172	n/a	n/a	-999	21	[3, 5, 6]	14	FR1	3	R1341T
2276.591	0.013	2278140	STOP	n/a	n/a	n/a	-999	21	[-999, -999, -999]	n/a	FR1	3	R1341T
2276.604	0.501	2278153	DISTRACT_END	n/a	n/a	n/a	-999	21	[0, 0, 0]	n/a	FR1	3	R1341T
2277.105	1.633	2278654	RETRIEVAL_ORIENT_START	n/a	n/a	n/a	-999	21	[0, 0, 0]	n/a	FR1	3	R1341T
2278.738	0.0	2280287	RETRIEVAL_ORIENT_END	n/a	n/a	n/a	-999	21	[0, 0, 0]	n/a	FR1	3	R1341T
2278.738	1.829	2280287	REC_START	n/a	n/a	n/a	-999	21	[0, 0, 0]	n/a	FR1	3	R1341T
2280.567	0.816	2282115	REC_WORD	0.816	n/a	STAIR	4	21	[0, 0, 0]	n/a	FR1	3	R1341T
2281.383	2.875	2282931	REC_WORD	2.875	n/a	TRAIN	9	21	[0, 0, 0]	n/a	FR1	3	R1341T
2284.258	1.996	2285806	REC_WORD	1.996	n/a	CROW	10	21	[0, 0, 0]	n/a	FR1	3	R1341T
2286.254	22.495	2287802	REC_WORD	22.495	n/a	WHEEL	11	21	[0, 0, 0]	n/a	FR1	3	R1341T
2308.749	0.0	2310296	REC_END	n/a	n/a	n/a	-999	21	[0, 0, 0]	n/a	FR1	3	R1341T
2308.749	0.015	2310296	TRIAL_END	n/a	n/a	n/a	-999	21	[0, 0, 0]	n/a	FR1	3	R1341T
2308.764	0.0	2310311	WAITING_START	n/a	n/a	n/a	-999	22	[0, 0, 0]	n/a	FR1	3	R1341T
2308.764	0.0	2310311	TRIAL_START	n/a	n/a	n/a	-999	22	[0, 0, 0]	n/a	FR1	3	R1341T
2308.764	2.362	2310311	TRIAL	n/a	n/a	n/a	-999	22	[0, 0, 0]	n/a	FR1	3	R1341T
2311.126	0.0	2312673	WAITING_END	n/a	n/a	n/a	-999	22	[0, 0, 0]	n/a	FR1	3	R1341T
2311.126	10.429	2312673	COUNTDOWN_START	n/a	n/a	n/a	-999	22	[0, 0, 0]	n/a	FR1	3	R1341T
2321.555	0.001	2323102	COUNTDOWN_END	n/a	n/a	n/a	-999	22	[0, 0, 0]	n/a	FR1	3	R1341T
2321.556	1.223	2323103	ORIENT_START	n/a	n/a	n/a	-999	22	[0, 0, 0]	n/a	FR1	3	R1341T
2322.779	0.0	2324326	ORIENT_END	n/a	n/a	n/a	-999	22	[0, 0, 0]	n/a	FR1	3	R1341T
2322.779	0.78	2324326	ENCODING_START	n/a	n/a	n/a	-999	22	[0, 0, 0]	n/a	FR1	3	R1341T
2323.559	1.636	2325106	WORD	n/a	n/a	HORN	1	22	[0, 0, 0]	n/a	FR1	3	R1341T
2325.195	0.908	2326741	WORD_OFF	n/a	n/a	HORN	1	22	[0, 0, 0]	n/a	FR1	3	R1341T
2326.103	1.627	2327649	WORD	n/a	n/a	TEA	2	22	[0, 0, 0]	n/a	FR1	3	R1341T
2327.73	0.785	2329276	WORD_OFF	n/a	n/a	TEA	2	22	[0, 0, 0]	n/a	FR1	3	R1341T
2328.515	1.631	2330061	WORD	n/a	n/a	BEAK	3	22	[0, 0, 0]	n/a	FR1	3	R1341T
2330.146	0.934	2331692	WORD_OFF	n/a	n/a	BEAK	3	22	[0, 0, 0]	n/a	FR1	3	R1341T
2331.08	1.634	2332626	WORD	n/a	n/a	SLIME	4	22	[0, 0, 0]	n/a	FR1	3	R1341T
2332.714	0.897	2334260	WORD_OFF	n/a	n/a	SLIME	4	22	[0, 0, 0]	n/a	FR1	3	R1341T
2333.611	1.637	2335157	WORD	n/a	n/a	CLOUD	5	22	[0, 0, 0]	n/a	FR1	3	R1341T
2335.248	0.84	2336794	WORD_OFF	n/a	n/a	CLOUD	5	22	[0, 0, 0]	n/a	FR1	3	R1341T
2336.088	1.61	2337634	WORD	n/a	n/a	OWL	6	22	[0, 0, 0]	n/a	FR1	3	R1341T
2337.698	1.063	2339244	WORD_OFF	n/a	n/a	OWL	6	22	[0, 0, 0]	n/a	FR1	3	R1341T
2338.761	1.621	2340307	WORD	n/a	n/a	BAND	7	22	[0, 0, 0]	n/a	FR1	3	R1341T
2340.382	0.807	2341928	WORD_OFF	n/a	n/a	BAND	7	22	[0, 0, 0]	n/a	FR1	3	R1341T
2341.189	1.626	2342735	WORD	n/a	n/a	CLOWN	8	22	[0, 0, 0]	n/a	FR1	3	R1341T
2342.815	0.895	2344361	WORD_OFF	n/a	n/a	CLOWN	8	22	[0, 0, 0]	n/a	FR1	3	R1341T
2343.71	1.623	2345256	WORD	n/a	n/a	FARM	9	22	[0, 0, 0]	n/a	FR1	3	R1341T
2345.333	1.117	2346879	WORD_OFF	n/a	n/a	FARM	9	22	[0, 0, 0]	n/a	FR1	3	R1341T
2346.45	1.633	2347996	WORD	n/a	n/a	RUG	10	22	[0, 0, 0]	n/a	FR1	3	R1341T
2348.083	1.092	2349628	WORD_OFF	n/a	n/a	RUG	10	22	[0, 0, 0]	n/a	FR1	3	R1341T
2349.175	1.625	2350720	WORD	n/a	n/a	BOY	11	22	[0, 0, 0]	n/a	FR1	3	R1341T
2350.8	1.006	2352345	WORD_OFF	n/a	n/a	BOY	11	22	[0, 0, 0]	n/a	FR1	3	R1341T
2351.806	1.612	2353351	WORD	n/a	n/a	NAIL	12	22	[0, 0, 0]	n/a	FR1	3	R1341T
2353.418	0.0	2354963	WORD_OFF	n/a	n/a	NAIL	12	22	[0, 0, 0]	n/a	FR1	3	R1341T
2353.418	0.0	2354963	ENCODING_END	n/a	n/a	n/a	-999	22	[0, 0, 0]	n/a	FR1	3	R1341T
2353.418	0.001	2354963	DISTRACT_START	n/a	n/a	n/a	-999	22	[0, 0, 0]	n/a	FR1	3	R1341T
2353.419	0.015	2354964	START	n/a	n/a	n/a	-999	22	[-999, -999, -999]	n/a	FR1	3	R1341T
2353.434	13.402	2354979	PROB	13.402	n/a	n/a	-999	22	[5, 2, 5]	12	FR1	3	R1341T
2366.836	2.984	2368381	PROB	2.984	n/a	n/a	-999	22	[8, 6, 4]	18	FR1	3	R1341T
2369.82	2.017	2371364	PROB	2.017	n/a	n/a	-999	22	[1, 5, 2]	8	FR1	3	R1341T
2371.837	2.025	2373381	PROB	2.025	n/a	n/a	-999	22	[6, 1, 6]	13	FR1	3	R1341T
2373.862	0.008	2375406	STOP	n/a	n/a	n/a	-999	22	[-999, -999, -999]	n/a	FR1	3	R1341T
2373.87	0.653	2375414	DISTRACT_END	n/a	n/a	n/a	-999	22	[0, 0, 0]	n/a	FR1	3	R1341T
2374.523	1.565	2376067	RETRIEVAL_ORIENT_START	n/a	n/a	n/a	-999	22	[0, 0, 0]	n/a	FR1	3	R1341T
2376.088	0.0	2377632	REC_START	n/a	n/a	n/a	-999	22	[0, 0, 0]	n/a	FR1	3	R1341T
2376.088	1.269	2377632	RETRIEVAL_ORIENT_END	n/a	n/a	n/a	-999	22	[0, 0, 0]	n/a	FR1	3	R1341T
2377.357	0.732	2378901	REC_WORD	0.732	n/a	BAND	7	22	[0, 0, 0]	n/a	FR1	3	R1341T
2378.089	0.805	2379633	REC_WORD	0.805	n/a	CLOWN	8	22	[0, 0, 0]	n/a	FR1	3	R1341T
2378.894	0.848	2380438	REC_WORD	0.848	n/a	FARM	9	22	[0, 0, 0]	n/a	FR1	3	R1341T
2379.742	26.359	2381286	REC_WORD	26.359	n/a	BOY	11	22	[0, 0, 0]	n/a	FR1	3	R1341T
2406.101	0.0	2407644	REC_END	n/a	n/a	n/a	-999	22	[0, 0, 0]	n/a	FR1	3	R1341T
2406.101	0.017	2407644	TRIAL_END	n/a	n/a	n/a	-999	22	[0, 0, 0]	n/a	FR1	3	R1341T
2406.118	0.0	2407661	TRIAL	n/a	n/a	n/a	-999	23	[0, 0, 0]	n/a	FR1	3	R1341T
2406.118	0.0	2407661	WAITING_START	n/a	n/a	n/a	-999	23	[0, 0, 0]	n/a	FR1	3	R1341T
2406.118	2.059	2407661	TRIAL_START	n/a	n/a	n/a	-999	23	[0, 0, 0]	n/a	FR1	3	R1341T
2408.177	0.0	2409720	WAITING_END	n/a	n/a	n/a	-999	23	[0, 0, 0]	n/a	FR1	3	R1341T
2408.177	10.429	2409720	COUNTDOWN_START	n/a	n/a	n/a	-999	23	[0, 0, 0]	n/a	FR1	3	R1341T
2418.606	0.0	2420148	COUNTDOWN_END	n/a	n/a	n/a	-999	23	[0, 0, 0]	n/a	FR1	3	R1341T
2418.606	1.206	2420148	ORIENT_START	n/a	n/a	n/a	-999	23	[0, 0, 0]	n/a	FR1	3	R1341T
2419.812	0.001	2421354	ORIENT_END	n/a	n/a	n/a	-999	23	[0, 0, 0]	n/a	FR1	3	R1341T
2419.813	1.031	2421355	ENCODING_START	n/a	n/a	n/a	-999	23	[0, 0, 0]	n/a	FR1	3	R1341T
2420.844	1.636	2422386	WORD	n/a	n/a	STICK	1	23	[0, 0, 0]	n/a	FR1	3	R1341T
2422.48	0.828	2424022	WORD_OFF	n/a	n/a	STICK	1	23	[0, 0, 0]	n/a	FR1	3	R1341T
2423.308	1.622	2424850	WORD	n/a	n/a	CAR	2	23	[0, 0, 0]	n/a	FR1	3	R1341T
2424.93	0.833	2426472	WORD_OFF	n/a	n/a	CAR	2	23	[0, 0, 0]	n/a	FR1	3	R1341T
2425.763	1.635	2427305	WORD	n/a	n/a	MOOSE	3	23	[0, 0, 0]	n/a	FR1	3	R1341T
2427.398	1.122	2428940	WORD_OFF	n/a	n/a	MOOSE	3	23	[0, 0, 0]	n/a	FR1	3	R1341T
2428.52	1.627	2430062	WORD	n/a	n/a	STRING	4	23	[0, 0, 0]	n/a	FR1	3	R1341T
2430.147	1.019	2431689	WORD_OFF	n/a	n/a	STRING	4	23	[0, 0, 0]	n/a	FR1	3	R1341T
2431.166	1.632	2432708	WORD	n/a	n/a	LEAF	5	23	[0, 0, 0]	n/a	FR1	3	R1341T
2432.798	0.752	2434340	WORD_OFF	n/a	n/a	LEAF	5	23	[0, 0, 0]	n/a	FR1	3	R1341T
2433.55	1.632	2435092	WORD	n/a	n/a	PIG	6	23	[0, 0, 0]	n/a	FR1	3	R1341T
2435.182	0.766	2436724	WORD_OFF	n/a	n/a	PIG	6	23	[0, 0, 0]	n/a	FR1	3	R1341T
2435.948	1.635	2437490	WORD	n/a	n/a	DART	7	23	[0, 0, 0]	n/a	FR1	3	R1341T
2437.583	0.947	2439124	WORD_OFF	n/a	n/a	DART	7	23	[0, 0, 0]	n/a	FR1	3	R1341T
2438.53	1.636	2440071	WORD	n/a	n/a	WEED	8	23	[0, 0, 0]	n/a	FR1	3	R1341T
2440.166	1.05	2441707	WORD_OFF	n/a	n/a	WEED	8	23	[0, 0, 0]	n/a	FR1	3	R1341T
2441.216	1.634	2442757	WORD	n/a	n/a	LIP	9	23	[0, 0, 0]	n/a	FR1	3	R1341T
2442.85	0.758	2444391	WORD_OFF	n/a	n/a	LIP	9	23	[0, 0, 0]	n/a	FR1	3	R1341T
2443.608	1.627	2445149	WORD	n/a	n/a	STEAK	10	23	[0, 0, 0]	n/a	FR1	3	R1341T
2445.235	0.89	2446776	WORD_OFF	n/a	n/a	STEAK	10	23	[0, 0, 0]	n/a	FR1	3	R1341T
2446.125	1.61	2447666	WORD	n/a	n/a	FLOOR	11	23	[0, 0, 0]	n/a	FR1	3	R1341T
2447.735	0.777	2449276	WORD_OFF	n/a	n/a	FLOOR	11	23	[0, 0, 0]	n/a	FR1	3	R1341T
2448.512	1.622	2450053	WORD	n/a	n/a	FLAME	12	23	[0, 0, 0]	n/a	FR1	3	R1341T
2450.134	0.001	2451675	WORD_OFF	n/a	n/a	FLAME	12	23	[0, 0, 0]	n/a	FR1	3	R1341T
2450.135	0.0	2451676	ENCODING_END	n/a	n/a	n/a	-999	23	[0, 0, 0]	n/a	FR1	3	R1341T
2450.135	0.001	2451676	DISTRACT_START	n/a	n/a	n/a	-999	23	[0, 0, 0]	n/a	FR1	3	R1341T
2450.136	0.015	2451677	START	n/a	n/a	n/a	-999	23	[-999, -999, -999]	n/a	FR1	3	R1341T
2450.151	11.303	2451692	PROB	11.303	n/a	n/a	-999	23	[7, 2, 9]	18	FR1	3	R1341T
2461.454	1.984	2462994	PROB	1.984	n/a	n/a	-999	23	[1, 4, 6]	11	FR1	3	R1341T
2463.438	3.867	2464978	PROB	3.867	n/a	n/a	-999	23	[5, 6, 4]	15	FR1	3	R1341T
2467.305	7.751	2468845	PROB	7.751	n/a	n/a	-999	23	[4, 7, 1]	12	FR1	3	R1341T
2475.056	0.016	2476596	STOP	n/a	n/a	n/a	-999	23	[-999, -999, -999]	n/a	FR1	3	R1341T
2475.072	0.639	2476612	DISTRACT_END	n/a	n/a	n/a	-999	23	[0, 0, 0]	n/a	FR1	3	R1341T
2475.711	1.529	2477251	RETRIEVAL_ORIENT_START	n/a	n/a	n/a	-999	23	[0, 0, 0]	n/a	FR1	3	R1341T
2477.24	0.001	2478780	RETRIEVAL_ORIENT_END	n/a	n/a	n/a	-999	23	[0, 0, 0]	n/a	FR1	3	R1341T
2477.241	1.414	2478781	REC_START	n/a	n/a	n/a	-999	23	[0, 0, 0]	n/a	FR1	3	R1341T
2478.655	0.418	2480195	REC_WORD	0.418	n/a	CAR	2	23	[0, 0, 0]	n/a	FR1	3	R1341T
2479.073	2.118	2480613	REC_WORD	2.118	n/a	STICK	1	23	[0, 0, 0]	n/a	FR1	3	R1341T
2481.191	0.766	2482731	REC_WORD	0.766	n/a	MOOSE	3	23	[0, 0, 0]	n/a	FR1	3	R1341T
2481.957	25.296	2483497	REC_WORD	25.296	n/a	FLAME	12	23	[0, 0, 0]	n/a	FR1	3	R1341T
2507.253	0.001	2508791	REC_END	n/a	n/a	n/a	-999	23	[0, 0, 0]	n/a	FR1	3	R1341T
2507.254	0.015	2508792	TRIAL_END	n/a	n/a	n/a	-999	23	[0, 0, 0]	n/a	FR1	3	R1341T
2507.269	0.0	2508807	TRIAL_START	n/a	n/a	n/a	-999	24	[0, 0, 0]	n/a	FR1	3	R1341T
2507.269	0.0	2508807	TRIAL	n/a	n/a	n/a	-999	24	[0, 0, 0]	n/a	FR1	3	R1341T
2507.269	2.06	2508807	WAITING_START	n/a	n/a	n/a	-999	24	[0, 0, 0]	n/a	FR1	3	R1341T
2509.329	0.001	2510867	WAITING_END	n/a	n/a	n/a	-999	24	[0, 0, 0]	n/a	FR1	3	R1341T
2509.33	10.429	2510868	COUNTDOWN_START	n/a	n/a	n/a	-999	24	[0, 0, 0]	n/a	FR1	3	R1341T
2519.759	0.0	2521297	COUNTDOWN_END	n/a	n/a	n/a	-999	24	[0, 0, 0]	n/a	FR1	3	R1341T
2519.759	1.255	2521297	ORIENT_START	n/a	n/a	n/a	-999	24	[0, 0, 0]	n/a	FR1	3	R1341T
2521.014	0.0	2522552	ORIENT_END	n/a	n/a	n/a	-999	24	[0, 0, 0]	n/a	FR1	3	R1341T
2521.014	1.106	2522552	ENCODING_START	n/a	n/a	n/a	-999	24	[0, 0, 0]	n/a	FR1	3	R1341T
2522.12	1.612	2523658	WORD	n/a	n/a	RAT	1	24	[0, 0, 0]	n/a	FR1	3	R1341T
2523.732	1.14	2525270	WORD_OFF	n/a	n/a	RAT	1	24	[0, 0, 0]	n/a	FR1	3	R1341T
2524.872	1.611	2526410	WORD	n/a	n/a	PLANE	2	24	[0, 0, 0]	n/a	FR1	3	R1341T
2526.483	1.076	2528021	WORD_OFF	n/a	n/a	PLANE	2	24	[0, 0, 0]	n/a	FR1	3	R1341T
2527.559	1.623	2529097	WORD	n/a	n/a	DRESS	3	24	[0, 0, 0]	n/a	FR1	3	R1341T
2529.182	0.971	2530719	WORD_OFF	n/a	n/a	DRESS	3	24	[0, 0, 0]	n/a	FR1	3	R1341T
2530.153	1.631	2531690	WORD	n/a	n/a	BLOOM	4	24	[0, 0, 0]	n/a	FR1	3	R1341T
2531.784	0.906	2533321	WORD_OFF	n/a	n/a	BLOOM	4	24	[0, 0, 0]	n/a	FR1	3	R1341T
2532.69	1.627	2534227	WORD	n/a	n/a	SHIELD	5	24	[0, 0, 0]	n/a	FR1	3	R1341T
2534.317	0.909	2535854	WORD_OFF	n/a	n/a	SHIELD	5	24	[0, 0, 0]	n/a	FR1	3	R1341T
2535.226	1.624	2536763	WORD	n/a	n/a	WORM	6	24	[0, 0, 0]	n/a	FR1	3	R1341T
2536.85	0.926	2538387	WORD_OFF	n/a	n/a	WORM	6	24	[0, 0, 0]	n/a	FR1	3	R1341T
2537.776	1.626	2539313	WORD	n/a	n/a	TRAY	7	24	[0, 0, 0]	n/a	FR1	3	R1341T
2539.402	1.002	2540939	WORD_OFF	n/a	n/a	TRAY	7	24	[0, 0, 0]	n/a	FR1	3	R1341T
2540.404	1.63	2541941	WORD	n/a	n/a	MOTH	8	24	[0, 0, 0]	n/a	FR1	3	R1341T
2542.034	1.018	2543571	WORD_OFF	n/a	n/a	MOTH	8	24	[0, 0, 0]	n/a	FR1	3	R1341T
2543.052	1.634	2544589	WORD	n/a	n/a	SALT	9	24	[0, 0, 0]	n/a	FR1	3	R1341T
2544.686	1.101	2546223	WORD_OFF	n/a	n/a	SALT	9	24	[0, 0, 0]	n/a	FR1	3	R1341T
2545.787	1.616	2547324	WORD	n/a	n/a	SNAIL	10	24	[0, 0, 0]	n/a	FR1	3	R1341T
2547.403	0.968	2548940	WORD_OFF	n/a	n/a	SNAIL	10	24	[0, 0, 0]	n/a	FR1	3	R1341T
2548.371	1.631	2549908	WORD	n/a	n/a	BLUSH	11	24	[0, 0, 0]	n/a	FR1	3	R1341T
2550.002	0.963	2551539	WORD_OFF	n/a	n/a	BLUSH	11	24	[0, 0, 0]	n/a	FR1	3	R1341T
2550.965	1.606	2552501	WORD	n/a	n/a	FACE	12	24	[0, 0, 0]	n/a	FR1	3	R1341T
2552.571	0.0	2554107	WORD_OFF	n/a	n/a	FACE	12	24	[0, 0, 0]	n/a	FR1	3	R1341T
2552.571	0.0	2554107	ENCODING_END	n/a	n/a	n/a	-999	24	[0, 0, 0]	n/a	FR1	3	R1341T
2552.571	0.001	2554107	DISTRACT_START	n/a	n/a	n/a	-999	24	[0, 0, 0]	n/a	FR1	3	R1341T
2552.572	0.015	2554108	START	n/a	n/a	n/a	-999	24	[-999, -999, -999]	n/a	FR1	3	R1341T
2552.587	8.617	2554123	PROB	8.617	n/a	n/a	-999	24	[9, 2, 5]	16	FR1	3	R1341T
2561.204	4.718	2562740	PROB	4.718	n/a	n/a	-999	24	[4, 3, 8]	15	FR1	3	R1341T
2565.922	2.468	2567458	PROB	2.468	n/a	n/a	-999	24	[1, 4, 6]	11	FR1	3	R1341T
2568.39	5.306	2569926	PROB	5.306	n/a	n/a	-999	24	[7, 8, 7]	22	FR1	3	R1341T
2573.696	0.011	2575231	STOP	n/a	n/a	n/a	-999	24	[-999, -999, -999]	n/a	FR1	3	R1341T
2573.707	0.644	2575242	DISTRACT_END	n/a	n/a	n/a	-999	24	[0, 0, 0]	n/a	FR1	3	R1341T
2574.351	1.573	2575886	RETRIEVAL_ORIENT_START	n/a	n/a	n/a	-999	24	[0, 0, 0]	n/a	FR1	3	R1341T
2575.924	0.0	2577459	RETRIEVAL_ORIENT_END	n/a	n/a	n/a	-999	24	[0, 0, 0]	n/a	FR1	3	R1341T
2575.924	1.879	2577459	REC_START	n/a	n/a	n/a	-999	24	[0, 0, 0]	n/a	FR1	3	R1341T
2577.803	0.859	2579338	REC_WORD	0.859	n/a	RAT	1	24	[0, 0, 0]	n/a	FR1	3	R1341T
2578.662	1.033	2580197	REC_WORD	1.033	n/a	PLANE	2	24	[0, 0, 0]	n/a	FR1	3	R1341T
2579.695	1.126	2581230	REC_WORD	1.126	n/a	DRESS	3	24	[0, 0, 0]	n/a	FR1	3	R1341T
2580.821	1.753	2582356	REC_WORD	1.753	n/a	BLOOM	4	24	[0, 0, 0]	n/a	FR1	3	R1341T
2582.574	3.909	2584109	REC_WORD	3.909	n/a	SHIELD	5	24	[0, 0, 0]	n/a	FR1	3	R1341T
2586.483	19.454	2588018	REC_WORD	19.454	n/a	WORM	6	24	[0, 0, 0]	n/a	FR1	3	R1341T
2605.937	0.0	2607471	REC_END	n/a	n/a	n/a	-999	24	[0, 0, 0]	n/a	FR1	3	R1341T
2605.937	0.014	2607471	TRIAL_END	n/a	n/a	n/a	-999	24	[0, 0, 0]	n/a	FR1	3	R1341T
2605.951	0.0	2607485	TRIAL_START	n/a	n/a	n/a	-999	25	[0, 0, 0]	n/a	FR1	3	R1341T
2605.951	0.001	2607485	TRIAL	n/a	n/a	n/a	-999	25	[0, 0, 0]	n/a	FR1	3	R1341T
2605.952	2.779	2607486	WAITING_START	n/a	n/a	n/a	-999	25	[0, 0, 0]	n/a	FR1	3	R1341T
2608.731	0.0	2610265	WAITING_END	n/a	n/a	n/a	-999	25	[0, 0, 0]	n/a	FR1	3	R1341T
2608.731	10.429	2610265	COUNTDOWN_START	n/a	n/a	n/a	-999	25	[0, 0, 0]	n/a	FR1	3	R1341T
2619.16	0.0	2620693	COUNTDOWN_END	n/a	n/a	n/a	-999	25	[0, 0, 0]	n/a	FR1	3	R1341T
2619.16	1.022	2620693	ORIENT_START	n/a	n/a	n/a	-999	25	[0, 0, 0]	n/a	FR1	3	R1341T
2620.182	0.0	2621715	ORIENT_END	n/a	n/a	n/a	-999	25	[0, 0, 0]	n/a	FR1	3	R1341T
2620.182	0.901	2621715	ENCODING_START	n/a	n/a	n/a	-999	25	[0, 0, 0]	n/a	FR1	3	R1341T
2621.083	1.617	2622616	WORD	n/a	n/a	SOUP	1	25	[0, 0, 0]	n/a	FR1	3	R1341T
2622.7	1.014	2624233	WORD_OFF	n/a	n/a	SOUP	1	25	[0, 0, 0]	n/a	FR1	3	R1341T
2623.714	1.636	2625247	WORD	n/a	n/a	OAR	2	25	[0, 0, 0]	n/a	FR1	3	R1341T
2625.35	1.145	2626883	WORD_OFF	n/a	n/a	OAR	2	25	[0, 0, 0]	n/a	FR1	3	R1341T
2626.495	1.622	2628028	WORD	n/a	n/a	GLOVE	3	25	[0, 0, 0]	n/a	FR1	3	R1341T
2628.117	0.896	2629650	WORD_OFF	n/a	n/a	GLOVE	3	25	[0, 0, 0]	n/a	FR1	3	R1341T
2629.013	1.622	2630546	WORD	n/a	n/a	WORLD	4	25	[0, 0, 0]	n/a	FR1	3	R1341T
2630.635	0.796	2632168	WORD_OFF	n/a	n/a	WORLD	4	25	[0, 0, 0]	n/a	FR1	3	R1341T
2631.431	1.637	2632964	WORD	n/a	n/a	HOUSE	5	25	[0, 0, 0]	n/a	FR1	3	R1341T
2633.068	0.987	2634601	WORD_OFF	n/a	n/a	HOUSE	5	25	[0, 0, 0]	n/a	FR1	3	R1341T
2634.055	1.631	2635588	WORD	n/a	n/a	MAT	6	25	[0, 0, 0]	n/a	FR1	3	R1341T
2635.686	0.9	2637219	WORD_OFF	n/a	n/a	MAT	6	25	[0, 0, 0]	n/a	FR1	3	R1341T
2636.586	1.633	2638119	WORD	n/a	n/a	SEED	7	25	[0, 0, 0]	n/a	FR1	3	R1341T
2638.219	0.815	2639752	WORD_OFF	n/a	n/a	SEED	7	25	[0, 0, 0]	n/a	FR1	3	R1341T
2639.034	1.636	2640567	WORD	n/a	n/a	SHELL	8	25	[0, 0, 0]	n/a	FR1	3	R1341T
2640.67	0.76	2642202	WORD_OFF	n/a	n/a	SHELL	8	25	[0, 0, 0]	n/a	FR1	3	R1341T
2641.43	1.623	2642962	WORD	n/a	n/a	SEAL	9	25	[0, 0, 0]	n/a	FR1	3	R1341T
