onset	duration	sample	trial_type	response_time	stim_file	item_name	serialpos	list	test	answer	experiment	session	subject
0.0	19.074	285701	SESS_START	n/a	n/a	n/a	-999	-999	[0, 0, 0]	n/a	FR1	0	R1049J
19.074	10.428	304774	COUNTDOWN_START	n/a	n/a	n/a	-999	-999	[0, 0, 0]	n/a	FR1	0	R1049J
29.502	3.864	315202	COUNTDOWN_END	n/a	n/a	n/a	-999	-999	[0, 0, 0]	n/a	FR1	0	R1049J
33.366	2.503	319065	PRACTICE_WORD	n/a	n/a	COTTON	1	-1	[0, 0, 0]	n/a	FR1	0	R1049J
35.869	2.538	321568	PRACTICE_WORD	n/a	n/a	CAMEL	2	-1	[0, 0, 0]	n/a	FR1	0	R1049J
38.407	2.57	324106	PRACTICE_WORD	n/a	n/a	TONGUE	3	-1	[0, 0, 0]	n/a	FR1	0	R1049J
40.977	2.605	326676	PRACTICE_WORD	n/a	n/a	ATTIC	4	-1	[0, 0, 0]	n/a	FR1	0	R1049J
43.582	2.437	329281	PRACTICE_WORD	n/a	n/a	BEAM	5	-1	[0, 0, 0]	n/a	FR1	0	R1049J
46.019	2.422	331718	PRACTICE_WORD	n/a	n/a	FLOOD	6	-1	[0, 0, 0]	n/a	FR1	0	R1049J
48.441	2.42	334140	PRACTICE_WORD	n/a	n/a	CHEST	7	-1	[0, 0, 0]	n/a	FR1	0	R1049J
50.861	2.522	336560	PRACTICE_WORD	n/a	n/a	WAGON	8	-1	[0, 0, 0]	n/a	FR1	0	R1049J
53.383	2.47	339082	PRACTICE_WORD	n/a	n/a	RHINO	9	-1	[0, 0, 0]	n/a	FR1	0	R1049J
55.853	2.588	341552	PRACTICE_WORD	n/a	n/a	IRON	10	-1	[0, 0, 0]	n/a	FR1	0	R1049J
58.441	2.386	344140	PRACTICE_WORD	n/a	n/a	RING	11	-1	[0, 0, 0]	n/a	FR1	0	R1049J
60.827	1.604	346525	PRACTICE_WORD	n/a	n/a	WATCH	12	-1	[0, 0, 0]	n/a	FR1	0	R1049J
62.431	0.001	348129	PRACTICE_DISTRACT_START	n/a	n/a	n/a	-999	-1	[0, 0, 0]	n/a	FR1	0	R1049J
62.432	0.349	348130	START	n/a	n/a	n/a	-999	-1	[-999, -999, -999]	n/a	FR1	0	R1049J
62.781	12.404	348479	PROB	12.404	n/a	n/a	-999	-1	[5, 3, 3]	11	FR1	0	R1049J
75.185	5.076	360883	PROB	5.076	n/a	n/a	-999	-1	[8, 4, 7]	13	FR1	0	R1049J
80.261	5.375	365959	PROB	5.375	n/a	n/a	-999	-1	[3, 5, 1]	9	FR1	0	R1049J
85.636	0.017	371334	STOP	n/a	n/a	n/a	-999	-1	[-999, -999, -999]	n/a	FR1	0	R1049J
85.653	0.72	371351	PRACTICE_DISTRACT_END	n/a	n/a	n/a	-999	-1	[0, 0, 0]	n/a	FR1	0	R1049J
86.373	30.515	372071	PRACTICE_REC_START	n/a	n/a	n/a	-999	-1	[0, 0, 0]	n/a	FR1	0	R1049J
116.888	29.734	402584	PRACTICE_REC_END	n/a	n/a	n/a	-999	-1	[0, 0, 0]	n/a	FR1	0	R1049J
146.622	0.0	432317	TRIAL	n/a	n/a	n/a	-999	1	[0, 0, 0]	n/a	FR1	0	R1049J
146.622	10.428	432317	COUNTDOWN_START	n/a	n/a	n/a	-999	1	[0, 0, 0]	n/a	FR1	0	R1049J
157.05	0.006	442745	COUNTDOWN_END	n/a	n/a	n/a	-999	1	[0, 0, 0]	n/a	FR1	0	R1049J
157.056	2.471	442751	ORIENT	n/a	n/a	n/a	-999	1	[0, 0, 0]	n/a	FR1	0	R1049J
159.527	2.588	445222	WORD	n/a	wordpools/wordpool_EN.txt	SQUARE	1	1	[0, 0, 0]	n/a	FR1	0	R1049J
162.115	2.538	447810	WORD	n/a	wordpools/wordpool_EN.txt	BRICK	2	1	[0, 0, 0]	n/a	FR1	0	R1049J
164.653	2.638	450348	WORD	n/a	wordpools/wordpool_EN.txt	SMOKE	3	1	[0, 0, 0]	n/a	FR1	0	R1049J
167.291	2.503	452986	WORD	n/a	wordpools/wordpool_EN.txt	NAIL	4	1	[0, 0, 0]	n/a	FR1	0	R1049J
169.794	2.556	455489	WORD	n/a	wordpools/wordpool_EN.txt	PIN	5	1	[0, 0, 0]	n/a	FR1	0	R1049J
172.35	2.586	458044	WORD	n/a	wordpools/wordpool_EN.txt	VEST	6	1	[0, 0, 0]	n/a	FR1	0	R1049J
174.936	2.455	460630	WORD	n/a	wordpools/wordpool_EN.txt	WHALE	7	1	[0, 0, 0]	n/a	FR1	0	R1049J
177.391	2.52	463085	WORD	n/a	wordpools/wordpool_EN.txt	SNOW	8	1	[0, 0, 0]	n/a	FR1	0	R1049J
179.911	2.588	465605	WORD	n/a	wordpools/wordpool_EN.txt	FLAME	9	1	[0, 0, 0]	n/a	FR1	0	R1049J
182.499	2.504	468193	WORD	n/a	wordpools/wordpool_EN.txt	DOCK	10	1	[0, 0, 0]	n/a	FR1	0	R1049J
185.003	2.455	470697	WORD	n/a	wordpools/wordpool_EN.txt	STORM	11	1	[0, 0, 0]	n/a	FR1	0	R1049J
187.458	1.619	473152	WORD	n/a	wordpools/wordpool_EN.txt	LAKE	12	1	[0, 0, 0]	n/a	FR1	0	R1049J
189.077	0.0	474771	DISTRACT_START	n/a	n/a	n/a	-999	1	[0, 0, 0]	n/a	FR1	0	R1049J
189.077	0.016	474771	START	n/a	n/a	n/a	-999	1	[-999, -999, -999]	n/a	FR1	0	R1049J
189.093	5.076	474787	PROB	5.076	n/a	n/a	-999	1	[8, 6, 7]	15	FR1	0	R1049J
194.169	4.808	479863	PROB	4.808	n/a	n/a	-999	1	[9, 5, 3]	17	FR1	0	R1049J
198.977	7.463	484671	PROB	7.463	n/a	n/a	-999	1	[6, 6, 7]	13	FR1	0	R1049J
206.44	7.659	492133	PROB	7.659	n/a	n/a	-999	1	[7, 9, 9]	21	FR1	0	R1049J
214.099	0.02	499792	STOP	n/a	n/a	n/a	-999	1	[-999, -999, -999]	n/a	FR1	0	R1049J
214.119	1.459	499812	DISTRACT_END	n/a	n/a	n/a	-999	1	[0, 0, 0]	n/a	FR1	0	R1049J
215.578	4.335	501271	REC_START	n/a	n/a	n/a	-999	1	[0, 0, 0]	n/a	FR1	0	R1049J
219.913	2.009	505606	REC_WORD	2.009	n/a	LONG	-999	1	[0, 0, 0]	n/a	FR1	0	R1049J
221.922	1.916	507615	REC_WORD	1.916	n/a	YARD	-999	1	[0, 0, 0]	n/a	FR1	0	R1049J
223.838	2.906	509531	REC_WORD	2.906	n/a	SQUARE	1	1	[0, 0, 0]	n/a	FR1	0	R1049J
226.744	2.882	512437	REC_WORD	2.882	n/a	VEST	6	1	[0, 0, 0]	n/a	FR1	0	R1049J
229.626	1.19	515318	REC_WORD_VV	1.19	n/a	<>	-999	1	[0, 0, 0]	n/a	FR1	0	R1049J
230.816	13.166	516508	REC_WORD	13.166	n/a	SQUARE	1	1	[0, 0, 0]	n/a	FR1	0	R1049J
243.982	1.268	529674	REC_WORD	1.268	n/a	MILE	-999	1	[0, 0, 0]	n/a	FR1	0	R1049J
245.25	2.542	530942	REC_END	n/a	n/a	n/a	-999	1	[0, 0, 0]	n/a	FR1	0	R1049J
247.792	0.0	533484	COUNTDOWN_START	n/a	n/a	n/a	-999	2	[0, 0, 0]	n/a	FR1	0	R1049J
247.792	10.428	533484	TRIAL	n/a	n/a	n/a	-999	2	[0, 0, 0]	n/a	FR1	0	R1049J
258.22	0.006	543911	COUNTDOWN_END	n/a	n/a	n/a	-999	2	[0, 0, 0]	n/a	FR1	0	R1049J
258.226	2.438	543917	ORIENT	n/a	n/a	n/a	-999	2	[0, 0, 0]	n/a	FR1	0	R1049J
260.664	2.588	546355	WORD	n/a	wordpools/wordpool_EN.txt	FORK	1	2	[0, 0, 0]	n/a	FR1	0	R1049J
263.252	2.52	548943	WORD	n/a	wordpools/wordpool_EN.txt	BANK	2	2	[0, 0, 0]	n/a	FR1	0	R1049J
265.772	2.522	551463	WORD	n/a	wordpools/wordpool_EN.txt	SLEEVE	3	2	[0, 0, 0]	n/a	FR1	0	R1049J
268.294	2.487	553985	WORD	n/a	wordpools/wordpool_EN.txt	WAND	4	2	[0, 0, 0]	n/a	FR1	0	R1049J
270.781	2.421	556472	WORD	n/a	wordpools/wordpool_EN.txt	TOE	5	2	[0, 0, 0]	n/a	FR1	0	R1049J
273.202	2.404	558893	WORD	n/a	wordpools/wordpool_EN.txt	COUCH	6	2	[0, 0, 0]	n/a	FR1	0	R1049J
275.606	2.604	561297	WORD	n/a	wordpools/wordpool_EN.txt	GATE	7	2	[0, 0, 0]	n/a	FR1	0	R1049J
278.21	2.471	563901	WORD	n/a	wordpools/wordpool_EN.txt	STRING	8	2	[0, 0, 0]	n/a	FR1	0	R1049J
280.681	2.537	566372	WORD	n/a	wordpools/wordpool_EN.txt	VINE	9	2	[0, 0, 0]	n/a	FR1	0	R1049J
283.218	2.638	568908	WORD	n/a	wordpools/wordpool_EN.txt	SPEAR	10	2	[0, 0, 0]	n/a	FR1	0	R1049J
285.856	2.539	571546	WORD	n/a	wordpools/wordpool_EN.txt	TIE	11	2	[0, 0, 0]	n/a	FR1	0	R1049J
288.395	1.618	574085	WORD	n/a	wordpools/wordpool_EN.txt	PALM	12	2	[0, 0, 0]	n/a	FR1	0	R1049J
290.013	0.001	575703	DISTRACT_START	n/a	n/a	n/a	-999	2	[0, 0, 0]	n/a	FR1	0	R1049J
290.014	0.016	575704	START	n/a	n/a	n/a	-999	2	[-999, -999, -999]	n/a	FR1	0	R1049J
290.03	5.626	575720	PROB	5.626	n/a	n/a	-999	2	[3, 7, 4]	13	FR1	0	R1049J
295.656	4.558	581346	PROB	4.558	n/a	n/a	-999	2	[6, 3, 6]	15	FR1	0	R1049J
300.214	5.292	585904	PROB	5.292	n/a	n/a	-999	2	[4, 1, 5]	10	FR1	0	R1049J
305.506	4.986	591196	PROB	4.986	n/a	n/a	-999	2	[4, 7, 6]	13	FR1	0	R1049J
310.492	0.006	596181	STOP	n/a	n/a	n/a	-999	2	[-999, -999, -999]	n/a	FR1	0	R1049J
310.498	1.136	596187	DISTRACT_END	n/a	n/a	n/a	-999	2	[0, 0, 0]	n/a	FR1	0	R1049J
311.634	5.052	597323	REC_START	n/a	n/a	n/a	-999	2	[0, 0, 0]	n/a	FR1	0	R1049J
316.686	2.058	602375	REC_WORD	2.058	n/a	LIE	-999	2	[0, 0, 0]	n/a	FR1	0	R1049J
318.744	1.224	604433	REC_WORD	1.224	n/a	MILE	-999	2	[0, 0, 0]	n/a	FR1	0	R1049J
319.968	3.144	605657	REC_WORD	3.144	n/a	SQUARE	-999	2	[0, 0, 0]	n/a	FR1	0	R1049J
323.112	1.299	608801	REC_WORD_VV	1.299	n/a	<>	-999	2	[0, 0, 0]	n/a	FR1	0	R1049J
324.411	17.236	610100	REC_WORD	17.236	n/a	FORK	1	2	[0, 0, 0]	n/a	FR1	0	R1049J
341.647	2.709	627335	REC_END	n/a	n/a	n/a	-999	2	[0, 0, 0]	n/a	FR1	0	R1049J
344.356	0.0	630044	TRIAL	n/a	n/a	n/a	-999	3	[0, 0, 0]	n/a	FR1	0	R1049J
344.356	10.428	630044	COUNTDOWN_START	n/a	n/a	n/a	-999	3	[0, 0, 0]	n/a	FR1	0	R1049J
354.784	0.005	640472	COUNTDOWN_END	n/a	n/a	n/a	-999	3	[0, 0, 0]	n/a	FR1	0	R1049J
354.789	2.589	640477	ORIENT	n/a	n/a	n/a	-999	3	[0, 0, 0]	n/a	FR1	0	R1049J
357.378	2.553	643066	WORD	n/a	wordpools/wordpool_EN.txt	JUICE	1	3	[0, 0, 0]	n/a	FR1	0	R1049J
359.931	2.588	645619	WORD	n/a	wordpools/wordpool_EN.txt	DIME	2	3	[0, 0, 0]	n/a	FR1	0	R1049J
362.519	2.554	648207	WORD	n/a	wordpools/wordpool_EN.txt	BLUSH	3	3	[0, 0, 0]	n/a	FR1	0	R1049J
365.073	2.437	650761	WORD	n/a	wordpools/wordpool_EN.txt	DITCH	4	3	[0, 0, 0]	n/a	FR1	0	R1049J
367.51	2.555	653197	WORD	n/a	wordpools/wordpool_EN.txt	HOLE	5	3	[0, 0, 0]	n/a	FR1	0	R1049J
370.065	2.487	655752	WORD	n/a	wordpools/wordpool_EN.txt	STOVE	6	3	[0, 0, 0]	n/a	FR1	0	R1049J
372.552	2.571	658239	WORD	n/a	wordpools/wordpool_EN.txt	CAKE	7	3	[0, 0, 0]	n/a	FR1	0	R1049J
375.123	2.538	660810	WORD	n/a	wordpools/wordpool_EN.txt	BATH	8	3	[0, 0, 0]	n/a	FR1	0	R1049J
377.661	2.471	663348	WORD	n/a	wordpools/wordpool_EN.txt	GLOVE	9	3	[0, 0, 0]	n/a	FR1	0	R1049J
380.132	2.604	665819	WORD	n/a	wordpools/wordpool_EN.txt	SOAP	10	3	[0, 0, 0]	n/a	FR1	0	R1049J
382.736	2.471	668423	WORD	n/a	wordpools/wordpool_EN.txt	SOCK	11	3	[0, 0, 0]	n/a	FR1	0	R1049J
385.207	1.619	670894	WORD	n/a	wordpools/wordpool_EN.txt	CHALK	12	3	[0, 0, 0]	n/a	FR1	0	R1049J
386.826	0.001	672513	DISTRACT_START	n/a	n/a	n/a	-999	3	[0, 0, 0]	n/a	FR1	0	R1049J
386.827	0.016	672514	START	n/a	n/a	n/a	-999	3	[-999, -999, -999]	n/a	FR1	0	R1049J
386.843	4.458	672530	PROB	4.458	n/a	n/a	-999	3	[1, 9, 5]	15	FR1	0	R1049J
391.301	3.939	676988	PROB	3.939	n/a	n/a	-999	3	[2, 7, 5]	14	FR1	0	R1049J
395.24	3.59	680926	PROB	3.59	n/a	n/a	-999	3	[7, 3, 5]	15	FR1	0	R1049J
398.83	4.006	684516	PROB	4.006	n/a	n/a	-999	3	[7, 5, 2]	14	FR1	0	R1049J
402.836	4.633	688522	PROB	4.633	n/a	n/a	-999	3	[9, 2, 6]	15	FR1	0	R1049J
407.469	0.009	693155	STOP	n/a	n/a	n/a	-999	3	[-999, -999, -999]	n/a	FR1	0	R1049J
407.478	1.119	693164	DISTRACT_END	n/a	n/a	n/a	-999	3	[0, 0, 0]	n/a	FR1	0	R1049J
408.597	5.525	694283	REC_START	n/a	n/a	n/a	-999	3	[0, 0, 0]	n/a	FR1	0	R1049J
414.122	1.154	699808	REC_WORD	1.154	n/a	FORK	-999	3	[0, 0, 0]	n/a	FR1	0	R1049J
415.276	1.586	700962	REC_WORD	1.586	n/a	MILE	-999	3	[0, 0, 0]	n/a	FR1	0	R1049J
416.862	14.076	702548	REC_WORD	14.076	n/a	SQUARE	-999	3	[0, 0, 0]	n/a	FR1	0	R1049J
430.938	7.672	716623	REC_WORD	7.672	n/a	YARD	-999	3	[0, 0, 0]	n/a	FR1	0	R1049J
438.61	5.997	724295	REC_END	n/a	n/a	n/a	-999	3	[0, 0, 0]	n/a	FR1	0	R1049J
444.607	0.0	730292	COUNTDOWN_START	n/a	n/a	n/a	-999	4	[0, 0, 0]	n/a	FR1	0	R1049J
444.607	10.428	730292	TRIAL	n/a	n/a	n/a	-999	4	[0, 0, 0]	n/a	FR1	0	R1049J
455.035	0.006	740719	COUNTDOWN_END	n/a	n/a	n/a	-999	4	[0, 0, 0]	n/a	FR1	0	R1049J
455.041	2.388	740725	ORIENT	n/a	n/a	n/a	-999	4	[0, 0, 0]	n/a	FR1	0	R1049J
457.429	2.62	743113	WORD	n/a	wordpools/wordpool_EN.txt	HOSE	1	4	[0, 0, 0]	n/a	FR1	0	R1049J
460.049	2.538	745733	WORD	n/a	wordpools/wordpool_EN.txt	TRASH	2	4	[0, 0, 0]	n/a	FR1	0	R1049J
462.587	2.487	748271	WORD	n/a	wordpools/wordpool_EN.txt	TRUCK	3	4	[0, 0, 0]	n/a	FR1	0	R1049J
465.074	2.538	750758	WORD	n/a	wordpools/wordpool_EN.txt	SOUP	4	4	[0, 0, 0]	n/a	FR1	0	R1049J
467.612	2.437	753296	WORD	n/a	wordpools/wordpool_EN.txt	DRUM	5	4	[0, 0, 0]	n/a	FR1	0	R1049J
470.049	2.638	755733	WORD	n/a	wordpools/wordpool_EN.txt	SUN	6	4	[0, 0, 0]	n/a	FR1	0	R1049J
472.687	2.505	758371	WORD	n/a	wordpools/wordpool_EN.txt	PLATE	7	4	[0, 0, 0]	n/a	FR1	0	R1049J
475.192	2.587	760876	WORD	n/a	wordpools/wordpool_EN.txt	PIG	8	4	[0, 0, 0]	n/a	FR1	0	R1049J
477.779	2.489	763462	WORD	n/a	wordpools/wordpool_EN.txt	SALT	9	4	[0, 0, 0]	n/a	FR1	0	R1049J
480.268	2.503	765951	WORD	n/a	wordpools/wordpool_EN.txt	STONE	10	4	[0, 0, 0]	n/a	FR1	0	R1049J
482.771	2.555	768454	WORD	n/a	wordpools/wordpool_EN.txt	GRAPE	11	4	[0, 0, 0]	n/a	FR1	0	R1049J
485.326	1.619	771009	WORD	n/a	wordpools/wordpool_EN.txt	ELF	12	4	[0, 0, 0]	n/a	FR1	0	R1049J
486.945	0.0	772628	DISTRACT_START	n/a	n/a	n/a	-999	4	[0, 0, 0]	n/a	FR1	0	R1049J
486.945	0.016	772628	START	n/a	n/a	n/a	-999	4	[-999, -999, -999]	n/a	FR1	0	R1049J
486.961	5.075	772644	PROB	5.075	n/a	n/a	-999	4	[6, 1, 9]	16	FR1	0	R1049J
492.036	3.773	777719	PROB	3.773	n/a	n/a	-999	4	[8, 1, 1]	10	FR1	0	R1049J
495.809	3.339	781492	PROB	3.339	n/a	n/a	-999	4	[8, 2, 7]	17	FR1	0	R1049J
499.148	5.476	784831	PROB	5.476	n/a	n/a	-999	4	[8, 6, 2]	15	FR1	0	R1049J
504.624	4.035	790307	PROB	4.035	n/a	n/a	-999	4	[2, 3, 2]	7	FR1	0	R1049J
508.659	0.022	794341	STOP	n/a	n/a	n/a	-999	4	[-999, -999, -999]	n/a	FR1	0	R1049J
508.681	1.12	794363	DISTRACT_END	n/a	n/a	n/a	-999	4	[0, 0, 0]	n/a	FR1	0	R1049J
509.801	4.258	795483	REC_START	n/a	n/a	n/a	-999	4	[0, 0, 0]	n/a	FR1	0	R1049J
514.059	4.347	799741	REC_WORD	4.347	n/a	ELF	12	4	[0, 0, 0]	n/a	FR1	0	R1049J
518.406	16.397	804088	REC_WORD	16.397	n/a	STONE	10	4	[0, 0, 0]	n/a	FR1	0	R1049J
534.803	1.366	820484	REC_WORD	1.366	n/a	BONG	-999	4	[0, 0, 0]	n/a	FR1	0	R1049J
536.169	1.889	821850	REC_WORD	1.889	n/a	YARD	-999	4	[0, 0, 0]	n/a	FR1	0	R1049J
538.058	1.756	823739	REC_WORD	1.756	n/a	SQUARE	-999	4	[0, 0, 0]	n/a	FR1	0	R1049J
539.814	23.359	825495	REC_END	n/a	n/a	n/a	-999	4	[0, 0, 0]	n/a	FR1	0	R1049J
563.173	0.0	848853	TRIAL	n/a	n/a	n/a	-999	5	[0, 0, 0]	n/a	FR1	0	R1049J
563.173	10.428	848853	COUNTDOWN_START	n/a	n/a	n/a	-999	5	[0, 0, 0]	n/a	FR1	0	R1049J
573.601	0.006	859281	COUNTDOWN_END	n/a	n/a	n/a	-999	5	[0, 0, 0]	n/a	FR1	0	R1049J
573.607	2.488	859287	ORIENT	n/a	n/a	n/a	-999	5	[0, 0, 0]	n/a	FR1	0	R1049J
576.095	2.537	861775	WORD	n/a	wordpools/wordpool_EN.txt	SHELL	1	5	[0, 0, 0]	n/a	FR1	0	R1049J
578.632	2.538	864312	WORD	n/a	wordpools/wordpool_EN.txt	GLASS	2	5	[0, 0, 0]	n/a	FR1	0	R1049J
581.17	2.404	866850	WORD	n/a	wordpools/wordpool_EN.txt	HOOF	3	5	[0, 0, 0]	n/a	FR1	0	R1049J
583.574	2.437	869254	WORD	n/a	wordpools/wordpool_EN.txt	ZOO	4	5	[0, 0, 0]	n/a	FR1	0	R1049J
586.011	2.439	871691	WORD	n/a	wordpools/wordpool_EN.txt	FLEA	5	5	[0, 0, 0]	n/a	FR1	0	R1049J
588.45	2.57	874129	WORD	n/a	wordpools/wordpool_EN.txt	SEA	6	5	[0, 0, 0]	n/a	FR1	0	R1049J
591.02	2.571	876699	WORD	n/a	wordpools/wordpool_EN.txt	CONE	7	5	[0, 0, 0]	n/a	FR1	0	R1049J
593.591	2.554	879270	WORD	n/a	wordpools/wordpool_EN.txt	BEACH	8	5	[0, 0, 0]	n/a	FR1	0	R1049J
596.145	2.454	881824	WORD	n/a	wordpools/wordpool_EN.txt	SNAIL	9	5	[0, 0, 0]	n/a	FR1	0	R1049J
598.599	2.571	884278	WORD	n/a	wordpools/wordpool_EN.txt	CLAY	10	5	[0, 0, 0]	n/a	FR1	0	R1049J
601.17	2.437	886849	WORD	n/a	wordpools/wordpool_EN.txt	SPONGE	11	5	[0, 0, 0]	n/a	FR1	0	R1049J
603.607	1.62	889286	WORD	n/a	wordpools/wordpool_EN.txt	WAVE	12	5	[0, 0, 0]	n/a	FR1	0	R1049J
605.227	0.001	890906	DISTRACT_START	n/a	n/a	n/a	-999	5	[0, 0, 0]	n/a	FR1	0	R1049J
605.228	0.017	890907	START	n/a	n/a	n/a	-999	5	[-999, -999, -999]	n/a	FR1	0	R1049J
605.245	5.525	890924	PROB	5.525	n/a	n/a	-999	5	[6, 1, 4]	11	FR1	0	R1049J
610.77	4.39	896449	PROB	4.39	n/a	n/a	-999	5	[5, 1, 8]	14	FR1	0	R1049J
615.16	4.292	900839	PROB	4.292	n/a	n/a	-999	5	[2, 4, 8]	14	FR1	0	R1049J
619.452	5.341	905130	PROB	5.341	n/a	n/a	-999	5	[4, 3, 1]	8	FR1	0	R1049J
624.793	4.29	910471	PROB	4.29	n/a	n/a	-999	5	[5, 2, 3]	10	FR1	0	R1049J
629.083	0.017	914761	STOP	n/a	n/a	n/a	-999	5	[-999, -999, -999]	n/a	FR1	0	R1049J
629.1	1.204	914778	DISTRACT_END	n/a	n/a	n/a	-999	5	[0, 0, 0]	n/a	FR1	0	R1049J
630.304	10.787	915982	REC_START	n/a	n/a	n/a	-999	5	[0, 0, 0]	n/a	FR1	0	R1049J
641.091	2.405	926769	REC_WORD	2.405	n/a	ELF	-999	5	[0, 0, 0]	n/a	FR1	0	R1049J
643.496	3.247	929174	REC_WORD	3.247	n/a	LONG	-999	5	[0, 0, 0]	n/a	FR1	0	R1049J
646.743	13.574	932420	REC_WORD	13.574	n/a	MILE	-999	5	[0, 0, 0]	n/a	FR1	0	R1049J
660.317	1.705	945994	REC_END	n/a	n/a	n/a	-999	5	[0, 0, 0]	n/a	FR1	0	R1049J
662.022	0.001	947699	COUNTDOWN_START	n/a	n/a	n/a	-999	6	[0, 0, 0]	n/a	FR1	0	R1049J
662.023	10.427	947700	TRIAL	n/a	n/a	n/a	-999	6	[0, 0, 0]	n/a	FR1	0	R1049J
672.45	0.008	958126	COUNTDOWN_END	n/a	n/a	n/a	-999	6	[0, 0, 0]	n/a	FR1	0	R1049J
672.458	2.536	958134	ORIENT	n/a	n/a	n/a	-999	6	[0, 0, 0]	n/a	FR1	0	R1049J
674.994	2.389	960670	WORD	n/a	wordpools/wordpool_EN.txt	LEG	1	6	[0, 0, 0]	n/a	FR1	0	R1049J
677.383	2.586	963059	WORD	n/a	wordpools/wordpool_EN.txt	SNAKE	2	6	[0, 0, 0]	n/a	FR1	0	R1049J
679.969	2.555	965645	WORD	n/a	wordpools/wordpool_EN.txt	NOSE	3	6	[0, 0, 0]	n/a	FR1	0	R1049J
682.524	2.571	968200	WORD	n/a	wordpools/wordpool_EN.txt	MOOSE	4	6	[0, 0, 0]	n/a	FR1	0	R1049J
685.095	2.571	970771	WORD	n/a	wordpools/wordpool_EN.txt	GOAT	5	6	[0, 0, 0]	n/a	FR1	0	R1049J
687.666	2.42	973342	WORD	n/a	wordpools/wordpool_EN.txt	MILK	6	6	[0, 0, 0]	n/a	FR1	0	R1049J
690.086	2.388	975762	WORD	n/a	wordpools/wordpool_EN.txt	CLIFF	7	6	[0, 0, 0]	n/a	FR1	0	R1049J
692.474	2.537	978150	WORD	n/a	wordpools/wordpool_EN.txt	MOUSE	8	6	[0, 0, 0]	n/a	FR1	0	R1049J
695.011	2.621	980687	WORD	n/a	wordpools/wordpool_EN.txt	GRASS	9	6	[0, 0, 0]	n/a	FR1	0	R1049J
697.632	2.438	983308	WORD	n/a	wordpools/wordpool_EN.txt	STOOL	10	6	[0, 0, 0]	n/a	FR1	0	R1049J
700.07	2.588	985745	WORD	n/a	wordpools/wordpool_EN.txt	CALF	11	6	[0, 0, 0]	n/a	FR1	0	R1049J
702.658	1.62	988333	WORD	n/a	wordpools/wordpool_EN.txt	WEB	12	6	[0, 0, 0]	n/a	FR1	0	R1049J
704.278	0.001	989953	DISTRACT_START	n/a	n/a	n/a	-999	6	[0, 0, 0]	n/a	FR1	0	R1049J
704.279	0.016	989954	START	n/a	n/a	n/a	-999	6	[-999, -999, -999]	n/a	FR1	0	R1049J
704.295	8.563	989970	PROB	8.563	n/a	n/a	-999	6	[5, 4, 7]	13	FR1	0	R1049J
712.858	7.514	998533	PROB	7.514	n/a	n/a	-999	6	[3, 9, 7]	16	FR1	0	R1049J
720.372	3.92	1006047	PROB	3.92	n/a	n/a	-999	6	[2, 3, 9]	14	FR1	0	R1049J
724.292	0.02	1009967	STOP	n/a	n/a	n/a	-999	6	[-999, -999, -999]	n/a	FR1	0	R1049J
724.312	1.218	1009987	DISTRACT_END	n/a	n/a	n/a	-999	6	[0, 0, 0]	n/a	FR1	0	R1049J
725.53	6.075	1011205	REC_START	n/a	n/a	n/a	-999	6	[0, 0, 0]	n/a	FR1	0	R1049J
731.605	4.927	1017279	REC_WORD_VV	4.927	n/a	<>	-999	6	[0, 0, 0]	n/a	FR1	0	R1049J
736.532	3.851	1022206	REC_WORD	3.851	n/a	MILE	-999	6	[0, 0, 0]	n/a	FR1	0	R1049J
740.383	7.014	1026057	REC_WORD	7.014	n/a	ELF	-999	6	[0, 0, 0]	n/a	FR1	0	R1049J
747.397	8.146	1033071	REC_WORD	8.146	n/a	LANE	-999	6	[0, 0, 0]	n/a	FR1	0	R1049J
755.543	1.874	1041216	REC_END	n/a	n/a	n/a	-999	6	[0, 0, 0]	n/a	FR1	0	R1049J
757.417	0.001	1043090	COUNTDOWN_START	n/a	n/a	n/a	-999	7	[0, 0, 0]	n/a	FR1	0	R1049J
757.418	10.427	1043091	TRIAL	n/a	n/a	n/a	-999	7	[0, 0, 0]	n/a	FR1	0	R1049J
767.845	0.006	1053518	COUNTDOWN_END	n/a	n/a	n/a	-999	7	[0, 0, 0]	n/a	FR1	0	R1049J
767.851	2.538	1053524	ORIENT	n/a	n/a	n/a	-999	7	[0, 0, 0]	n/a	FR1	0	R1049J
770.389	2.503	1056062	WORD	n/a	wordpools/wordpool_EN.txt	AXE	1	7	[0, 0, 0]	n/a	FR1	0	R1049J
772.892	2.539	1058565	WORD	n/a	wordpools/wordpool_EN.txt	CLOTH	2	7	[0, 0, 0]	n/a	FR1	0	R1049J
775.431	2.553	1061104	WORD	n/a	wordpools/wordpool_EN.txt	SPRING	3	7	[0, 0, 0]	n/a	FR1	0	R1049J
777.984	2.422	1063657	WORD	n/a	wordpools/wordpool_EN.txt	CROWN	4	7	[0, 0, 0]	n/a	FR1	0	R1049J
780.406	2.403	1066079	WORD	n/a	wordpools/wordpool_EN.txt	BED	5	7	[0, 0, 0]	n/a	FR1	0	R1049J
782.809	2.439	1068482	WORD	n/a	wordpools/wordpool_EN.txt	HEART	6	7	[0, 0, 0]	n/a	FR1	0	R1049J
785.248	2.553	1070920	WORD	n/a	wordpools/wordpool_EN.txt	BOARD	7	7	[0, 0, 0]	n/a	FR1	0	R1049J
787.801	2.572	1073473	WORD	n/a	wordpools/wordpool_EN.txt	TOOTH	8	7	[0, 0, 0]	n/a	FR1	0	R1049J
790.373	2.453	1076045	WORD	n/a	wordpools/wordpool_EN.txt	CUP	9	7	[0, 0, 0]	n/a	FR1	0	R1049J
792.826	2.605	1078498	WORD	n/a	wordpools/wordpool_EN.txt	MUD	10	7	[0, 0, 0]	n/a	FR1	0	R1049J
795.431	2.537	1081103	WORD	n/a	wordpools/wordpool_EN.txt	OAR	11	7	[0, 0, 0]	n/a	FR1	0	R1049J
797.968	1.619	1083640	WORD	n/a	wordpools/wordpool_EN.txt	LAMB	12	7	[0, 0, 0]	n/a	FR1	0	R1049J
799.587	0.001	1085259	DISTRACT_START	n/a	n/a	n/a	-999	7	[0, 0, 0]	n/a	FR1	0	R1049J
799.588	0.016	1085260	START	n/a	n/a	n/a	-999	7	[-999, -999, -999]	n/a	FR1	0	R1049J
799.604	7.262	1085276	PROB	7.262	n/a	n/a	-999	7	[7, 8, 7]	22	FR1	0	R1049J
806.866	3.873	1092538	PROB	3.873	n/a	n/a	-999	7	[7, 2, 3]	12	FR1	0	R1049J
810.739	3.674	1096411	PROB	3.674	n/a	n/a	-999	7	[8, 1, 6]	15	FR1	0	R1049J
814.413	6.606	1100084	PROB	6.606	n/a	n/a	-999	7	[6, 8, 6]	24	FR1	0	R1049J
821.019	0.021	1106690	STOP	n/a	n/a	n/a	-999	7	[-999, -999, -999]	n/a	FR1	0	R1049J
821.04	1.086	1106711	DISTRACT_END	n/a	n/a	n/a	-999	7	[0, 0, 0]	n/a	FR1	0	R1049J
822.126	4.227	1107797	REC_START	n/a	n/a	n/a	-999	7	[0, 0, 0]	n/a	FR1	0	R1049J
826.353	3.473	1112024	REC_WORD	3.473	n/a	ELF	-999	7	[0, 0, 0]	n/a	FR1	0	R1049J
829.826	3.317	1115497	REC_WORD	3.317	n/a	MOLE	-999	7	[0, 0, 0]	n/a	FR1	0	R1049J
833.143	5.633	1118814	REC_WORD	5.633	n/a	OAR	11	7	[0, 0, 0]	n/a	FR1	0	R1049J
838.776	13.364	1124446	REC_WORD	13.364	n/a	ELF	-999	7	[0, 0, 0]	n/a	FR1	0	R1049J
852.14	2.039	1137810	REC_END	n/a	n/a	n/a	-999	7	[0, 0, 0]	n/a	FR1	0	R1049J
854.179	0.0	1139849	COUNTDOWN_START	n/a	n/a	n/a	-999	8	[0, 0, 0]	n/a	FR1	0	R1049J
854.179	10.428	1139849	TRIAL	n/a	n/a	n/a	-999	8	[0, 0, 0]	n/a	FR1	0	R1049J
864.607	0.006	1150277	COUNTDOWN_END	n/a	n/a	n/a	-999	8	[0, 0, 0]	n/a	FR1	0	R1049J
864.613	2.438	1150283	ORIENT	n/a	n/a	n/a	-999	8	[0, 0, 0]	n/a	FR1	0	R1049J
867.051	2.537	1152720	WORD	n/a	wordpools/wordpool_EN.txt	STAR	1	8	[0, 0, 0]	n/a	FR1	0	R1049J
869.588	2.555	1155257	WORD	n/a	wordpools/wordpool_EN.txt	PIPE	2	8	[0, 0, 0]	n/a	FR1	0	R1049J
872.143	2.521	1157812	WORD	n/a	wordpools/wordpool_EN.txt	OWL	3	8	[0, 0, 0]	n/a	FR1	0	R1049J
874.664	2.437	1160333	WORD	n/a	wordpools/wordpool_EN.txt	WOOD	4	8	[0, 0, 0]	n/a	FR1	0	R1049J
877.101	2.539	1162770	WORD	n/a	wordpools/wordpool_EN.txt	DUCK	5	8	[0, 0, 0]	n/a	FR1	0	R1049J
879.64	2.486	1165309	WORD	n/a	wordpools/wordpool_EN.txt	POND	6	8	[0, 0, 0]	n/a	FR1	0	R1049J
882.126	2.589	1167795	WORD	n/a	wordpools/wordpool_EN.txt	CLOUD	7	8	[0, 0, 0]	n/a	FR1	0	R1049J
884.715	2.436	1170384	WORD	n/a	wordpools/wordpool_EN.txt	FLOOR	8	8	[0, 0, 0]	n/a	FR1	0	R1049J
887.151	2.538	1172820	WORD	n/a	wordpools/wordpool_EN.txt	DEER	9	8	[0, 0, 0]	n/a	FR1	0	R1049J
889.689	2.554	1175358	WORD	n/a	wordpools/wordpool_EN.txt	SKI	10	8	[0, 0, 0]	n/a	FR1	0	R1049J
892.243	2.621	1177912	WORD	n/a	wordpools/wordpool_EN.txt	TOY	11	8	[0, 0, 0]	n/a	FR1	0	R1049J
894.864	1.604	1180532	WORD	n/a	wordpools/wordpool_EN.txt	WOLF	12	8	[0, 0, 0]	n/a	FR1	0	R1049J
896.468	0.001	1182136	DISTRACT_START	n/a	n/a	n/a	-999	8	[0, 0, 0]	n/a	FR1	0	R1049J
896.469	0.016	1182137	START	n/a	n/a	n/a	-999	8	[-999, -999, -999]	n/a	FR1	0	R1049J
896.485	4.808	1182153	PROB	4.808	n/a	n/a	-999	8	[7, 2, 6]	15	FR1	0	R1049J
901.293	4.256	1186961	PROB	4.256	n/a	n/a	-999	8	[8, 2, 4]	13	FR1	0	R1049J
905.549	4.457	1191217	PROB	4.457	n/a	n/a	-999	8	[7, 5, 4]	16	FR1	0	R1049J
910.006	4.426	1195674	PROB	4.426	n/a	n/a	-999	8	[1, 7, 2]	10	FR1	0	R1049J
914.432	5.484	1200100	PROB	5.484	n/a	n/a	-999	8	[8, 5, 9]	21	FR1	0	R1049J
919.916	0.007	1205584	STOP	n/a	n/a	n/a	-999	8	[-999, -999, -999]	n/a	FR1	0	R1049J
919.923	1.052	1205591	DISTRACT_END	n/a	n/a	n/a	-999	8	[0, 0, 0]	n/a	FR1	0	R1049J
920.975	4.484	1206643	REC_START	n/a	n/a	n/a	-999	8	[0, 0, 0]	n/a	FR1	0	R1049J
925.459	5.813	1211126	REC_WORD	5.813	n/a	STAR	1	8	[0, 0, 0]	n/a	FR1	0	R1049J
931.272	6.046	1216939	REC_WORD	6.046	n/a	LANE	-999	8	[0, 0, 0]	n/a	FR1	0	R1049J
937.318	2.044	1222985	REC_WORD	2.044	n/a	ELF	-999	8	[0, 0, 0]	n/a	FR1	0	R1049J
939.362	11.634	1225029	REC_WORD	11.634	n/a	PIPE	2	8	[0, 0, 0]	n/a	FR1	0	R1049J
950.996	1.766	1236662	REC_END	n/a	n/a	n/a	-999	8	[0, 0, 0]	n/a	FR1	0	R1049J
952.762	0.0	1238428	TRIAL	n/a	n/a	n/a	-999	9	[0, 0, 0]	n/a	FR1	0	R1049J
952.762	10.428	1238428	COUNTDOWN_START	n/a	n/a	n/a	-999	9	[0, 0, 0]	n/a	FR1	0	R1049J
963.19	0.006	1248856	COUNTDOWN_END	n/a	n/a	n/a	-999	9	[0, 0, 0]	n/a	FR1	0	R1049J
963.196	2.504	1248862	ORIENT	n/a	n/a	n/a	-999	9	[0, 0, 0]	n/a	FR1	0	R1049J
965.7	2.371	1251366	WORD	n/a	wordpools/wordpool_EN.txt	INK	1	9	[0, 0, 0]	n/a	FR1	0	R1049J
968.071	2.571	1253737	WORD	n/a	wordpools/wordpool_EN.txt	FENCE	2	9	[0, 0, 0]	n/a	FR1	0	R1049J
970.642	2.421	1256308	WORD	n/a	wordpools/wordpool_EN.txt	TRAY	3	9	[0, 0, 0]	n/a	FR1	0	R1049J
973.063	2.454	1258729	WORD	n/a	wordpools/wordpool_EN.txt	STICK	4	9	[0, 0, 0]	n/a	FR1	0	R1049J
975.517	2.487	1261183	WORD	n/a	wordpools/wordpool_EN.txt	STAIR	5	9	[0, 0, 0]	n/a	FR1	0	R1049J
978.004	2.621	1263669	WORD	n/a	wordpools/wordpool_EN.txt	SHEEP	6	9	[0, 0, 0]	n/a	FR1	0	R1049J
980.625	2.454	1266290	WORD	n/a	wordpools/wordpool_EN.txt	MUG	7	9	[0, 0, 0]	n/a	FR1	0	R1049J
983.079	2.621	1268744	WORD	n/a	wordpools/wordpool_EN.txt	SHARK	8	9	[0, 0, 0]	n/a	FR1	0	R1049J
985.7	2.521	1271365	WORD	n/a	wordpools/wordpool_EN.txt	ROSE	9	9	[0, 0, 0]	n/a	FR1	0	R1049J
988.221	2.438	1273886	WORD	n/a	wordpools/wordpool_EN.txt	CANE	10	9	[0, 0, 0]	n/a	FR1	0	R1049J
990.659	2.405	1276324	WORD	n/a	wordpools/wordpool_EN.txt	BARN	11	9	[0, 0, 0]	n/a	FR1	0	R1049J
993.064	1.618	1278729	WORD	n/a	wordpools/wordpool_EN.txt	PEN	12	9	[0, 0, 0]	n/a	FR1	0	R1049J
994.682	0.001	1280347	DISTRACT_START	n/a	n/a	n/a	-999	9	[0, 0, 0]	n/a	FR1	0	R1049J
994.683	0.016	1280348	START	n/a	n/a	n/a	-999	9	[-999, -999, -999]	n/a	FR1	0	R1049J
994.699	4.642	1280364	PROB	4.642	n/a	n/a	-999	9	[4, 2, 4]	10	FR1	0	R1049J
999.341	4.423	1285006	PROB	4.423	n/a	n/a	-999	9	[9, 2, 4]	15	FR1	0	R1049J
1003.764	3.239	1289429	PROB	3.239	n/a	n/a	-999	9	[2, 2, 1]	5	FR1	0	R1049J
1007.003	4.057	1292667	PROB	4.057	n/a	n/a	-999	9	[8, 3, 4]	14	FR1	0	R1049J
1011.06	7.48	1296724	PROB	7.48	n/a	n/a	-999	9	[6, 8, 2]	16	FR1	0	R1049J
1018.54	0.016	1304204	STOP	n/a	n/a	n/a	-999	9	[-999, -999, -999]	n/a	FR1	0	R1049J
1018.556	1.085	1304220	DISTRACT_END	n/a	n/a	n/a	-999	9	[0, 0, 0]	n/a	FR1	0	R1049J
1019.641	4.285	1305305	REC_START	n/a	n/a	n/a	-999	9	[0, 0, 0]	n/a	FR1	0	R1049J
1023.926	1.953	1309590	REC_WORD	1.953	n/a	PIPE	-999	9	[0, 0, 0]	n/a	FR1	0	R1049J
1025.879	4.638	1311543	REC_WORD	4.638	n/a	LANE	-999	9	[0, 0, 0]	n/a	FR1	0	R1049J
1030.517	11.586	1316181	REC_WORD	11.586	n/a	STONE	-999	9	[0, 0, 0]	n/a	FR1	0	R1049J
1042.103	7.559	1327766	REC_WORD	7.559	n/a	SQUARE	-999	9	[0, 0, 0]	n/a	FR1	0	R1049J
1049.662	1.866	1335325	REC_END	n/a	n/a	n/a	-999	9	[0, 0, 0]	n/a	FR1	0	R1049J
1051.528	0.0	1337191	COUNTDOWN_START	n/a	n/a	n/a	-999	10	[0, 0, 0]	n/a	FR1	0	R1049J
1051.528	10.428	1337191	TRIAL	n/a	n/a	n/a	-999	10	[0, 0, 0]	n/a	FR1	0	R1049J
1061.956	0.006	1347618	COUNTDOWN_END	n/a	n/a	n/a	-999	10	[0, 0, 0]	n/a	FR1	0	R1049J
1061.962	2.455	1347624	ORIENT	n/a	n/a	n/a	-999	10	[0, 0, 0]	n/a	FR1	0	R1049J
1064.417	2.604	1350079	WORD	n/a	wordpools/wordpool_EN.txt	DOG	1	10	[0, 0, 0]	n/a	FR1	0	R1049J
1067.021	2.604	1352683	WORD	n/a	wordpools/wordpool_EN.txt	PEAR	2	10	[0, 0, 0]	n/a	FR1	0	R1049J
1069.625	2.489	1355287	WORD	n/a	wordpools/wordpool_EN.txt	BREAD	3	10	[0, 0, 0]	n/a	FR1	0	R1049J
1072.114	2.586	1357776	WORD	n/a	wordpools/wordpool_EN.txt	TAIL	4	10	[0, 0, 0]	n/a	FR1	0	R1049J
1074.7	2.438	1360362	WORD	n/a	wordpools/wordpool_EN.txt	BRANCH	5	10	[0, 0, 0]	n/a	FR1	0	R1049J
1077.138	2.487	1362800	WORD	n/a	wordpools/wordpool_EN.txt	BEAN	6	10	[0, 0, 0]	n/a	FR1	0	R1049J
1079.625	2.404	1365287	WORD	n/a	wordpools/wordpool_EN.txt	BLOOM	7	10	[0, 0, 0]	n/a	FR1	0	R1049J
1082.029	2.555	1367691	WORD	n/a	wordpools/wordpool_EN.txt	FOOD	8	10	[0, 0, 0]	n/a	FR1	0	R1049J
1084.584	2.404	1370246	WORD	n/a	wordpools/wordpool_EN.txt	LAWN	9	10	[0, 0, 0]	n/a	FR1	0	R1049J
1086.988	2.421	1372650	WORD	n/a	wordpools/wordpool_EN.txt	RICE	10	10	[0, 0, 0]	n/a	FR1	0	R1049J
1089.409	2.487	1375070	WORD	n/a	wordpools/wordpool_EN.txt	EEL	11	10	[0, 0, 0]	n/a	FR1	0	R1049J
1091.896	1.619	1377557	WORD	n/a	wordpools/wordpool_EN.txt	MOTH	12	10	[0, 0, 0]	n/a	FR1	0	R1049J
1093.515	0.001	1379176	DISTRACT_START	n/a	n/a	n/a	-999	10	[0, 0, 0]	n/a	FR1	0	R1049J
1093.516	0.016	1379177	START	n/a	n/a	n/a	-999	10	[-999, -999, -999]	n/a	FR1	0	R1049J
1093.532	3.957	1379193	PROB	3.957	n/a	n/a	-999	10	[7, 3, 6]	16	FR1	0	R1049J
1097.489	3.773	1383150	PROB	3.773	n/a	n/a	-999	10	[7, 2, 6]	15	FR1	0	R1049J
1101.262	7.662	1386923	PROB	7.662	n/a	n/a	-999	10	[8, 7, 7]	22	FR1	0	R1049J
1108.924	4.174	1394585	PROB	4.174	n/a	n/a	-999	10	[9, 2, 4]	15	FR1	0	R1049J
1113.098	4.906	1398759	PROB	4.906	n/a	n/a	-999	10	[7, 2, 6]	15	FR1	0	R1049J
1118.004	0.019	1403664	STOP	n/a	n/a	n/a	-999	10	[-999, -999, -999]	n/a	FR1	0	R1049J
1118.023	1.102	1403683	DISTRACT_END	n/a	n/a	n/a	-999	10	[0, 0, 0]	n/a	FR1	0	R1049J
1119.125	2.809	1404785	REC_START	n/a	n/a	n/a	-999	10	[0, 0, 0]	n/a	FR1	0	R1049J
1121.934	4.85	1407594	REC_WORD	4.85	n/a	PEAR	2	10	[0, 0, 0]	n/a	FR1	0	R1049J
1126.784	1.165	1412444	REC_WORD	1.165	n/a	EEL	11	10	[0, 0, 0]	n/a	FR1	0	R1049J
1127.949	2.221	1413609	REC_WORD	2.221	n/a	FOOD	8	10	[0, 0, 0]	n/a	FR1	0	R1049J
1130.17	3.183	1415830	REC_WORD_VV	3.183	n/a	<>	-999	10	[0, 0, 0]	n/a	FR1	0	R1049J
1133.353	11.11	1419013	REC_WORD	11.11	n/a	EEL	11	10	[0, 0, 0]	n/a	FR1	0	R1049J
1144.463	4.683	1430122	REC_WORD	4.683	n/a	NINE	-999	10	[0, 0, 0]	n/a	FR1	0	R1049J
1149.146	2.05	1434805	REC_END	n/a	n/a	n/a	-999	10	[0, 0, 0]	n/a	FR1	0	R1049J
1151.196	0.0	1436855	TRIAL	n/a	n/a	n/a	-999	11	[0, 0, 0]	n/a	FR1	0	R1049J
1151.196	10.428	1436855	COUNTDOWN_START	n/a	n/a	n/a	-999	11	[0, 0, 0]	n/a	FR1	0	R1049J
1161.624	0.006	1447283	COUNTDOWN_END	n/a	n/a	n/a	-999	11	[0, 0, 0]	n/a	FR1	0	R1049J
1161.63	2.521	1447289	ORIENT	n/a	n/a	n/a	-999	11	[0, 0, 0]	n/a	FR1	0	R1049J
1164.151	2.554	1449810	WORD	n/a	wordpools/wordpool_EN.txt	KEY	1	11	[0, 0, 0]	n/a	FR1	0	R1049J
1166.705	2.605	1452364	WORD	n/a	wordpools/wordpool_EN.txt	GOLD	2	11	[0, 0, 0]	n/a	FR1	0	R1049J
1169.31	2.554	1454969	WORD	n/a	wordpools/wordpool_EN.txt	FILM	3	11	[0, 0, 0]	n/a	FR1	0	R1049J
1171.864	2.555	1457523	WORD	n/a	wordpools/wordpool_EN.txt	BOMB	4	11	[0, 0, 0]	n/a	FR1	0	R1049J
1174.419	2.47	1460077	WORD	n/a	wordpools/wordpool_EN.txt	PRINCE	5	11	[0, 0, 0]	n/a	FR1	0	R1049J
1176.889	2.472	1462547	WORD	n/a	wordpools/wordpool_EN.txt	EAR	6	11	[0, 0, 0]	n/a	FR1	0	R1049J
1179.361	2.536	1465019	WORD	n/a	wordpools/wordpool_EN.txt	DART	7	11	[0, 0, 0]	n/a	FR1	0	R1049J
1181.897	2.405	1467555	WORD	n/a	wordpools/wordpool_EN.txt	BALL	8	11	[0, 0, 0]	n/a	FR1	0	R1049J
1184.302	2.437	1469960	WORD	n/a	wordpools/wordpool_EN.txt	PLANE	9	11	[0, 0, 0]	n/a	FR1	0	R1049J
1186.739	2.42	1472397	WORD	n/a	wordpools/wordpool_EN.txt	SPARK	10	11	[0, 0, 0]	n/a	FR1	0	R1049J
1189.159	2.505	1474817	WORD	n/a	wordpools/wordpool_EN.txt	COIN	11	11	[0, 0, 0]	n/a	FR1	0	R1049J
1191.664	1.62	1477322	WORD	n/a	wordpools/wordpool_EN.txt	SPOON	12	11	[0, 0, 0]	n/a	FR1	0	R1049J
1193.284	0.001	1478942	DISTRACT_START	n/a	n/a	n/a	-999	11	[0, 0, 0]	n/a	FR1	0	R1049J
1193.285	0.016	1478943	START	n/a	n/a	n/a	-999	11	[-999, -999, -999]	n/a	FR1	0	R1049J
1193.301	3.672	1478959	PROB	3.672	n/a	n/a	-999	11	[3, 6, 3]	12	FR1	0	R1049J
1196.973	5.526	1482631	PROB	5.526	n/a	n/a	-999	11	[6, 7, 8]	22	FR1	0	R1049J
1202.499	4.407	1488156	PROB	4.407	n/a	n/a	-999	11	[6, 1, 7]	14	FR1	0	R1049J
1206.906	4.725	1492563	PROB	4.725	n/a	n/a	-999	11	[5, 5, 3]	11	FR1	0	R1049J
1211.631	4.75	1497288	PROB	4.75	n/a	n/a	-999	11	[7, 4, 6]	15	FR1	0	R1049J
1216.381	0.009	1502038	STOP	n/a	n/a	n/a	-999	11	[-999, -999, -999]	n/a	FR1	0	R1049J
1216.39	1.084	1502047	DISTRACT_END	n/a	n/a	n/a	-999	11	[0, 0, 0]	n/a	FR1	0	R1049J
1217.474	6.715	1503131	REC_START	n/a	n/a	n/a	-999	11	[0, 0, 0]	n/a	FR1	0	R1049J
1224.189	5.849	1509846	REC_WORD	5.849	n/a	EAR	6	11	[0, 0, 0]	n/a	FR1	0	R1049J
1230.038	1.109	1515694	REC_WORD	1.109	n/a	LANE	-999	11	[0, 0, 0]	n/a	FR1	0	R1049J
1231.147	13.268	1516803	REC_WORD	13.268	n/a	MILE	-999	11	[0, 0, 0]	n/a	FR1	0	R1049J
1244.415	3.08	1530071	REC_WORD	3.08	n/a	YARD	-999	11	[0, 0, 0]	n/a	FR1	0	R1049J
1247.495	1.917	1533151	REC_END	n/a	n/a	n/a	-999	11	[0, 0, 0]	n/a	FR1	0	R1049J
1249.412	0.0	1535068	TRIAL	n/a	n/a	n/a	-999	12	[0, 0, 0]	n/a	FR1	0	R1049J
1249.412	10.428	1535068	COUNTDOWN_START	n/a	n/a	n/a	-999	12	[0, 0, 0]	n/a	FR1	0	R1049J
1259.84	0.005	1545495	COUNTDOWN_END	n/a	n/a	n/a	-999	12	[0, 0, 0]	n/a	FR1	0	R1049J
1259.845	2.489	1545500	ORIENT	n/a	n/a	n/a	-999	12	[0, 0, 0]	n/a	FR1	0	R1049J
1262.334	2.386	1547989	WORD	n/a	wordpools/wordpool_EN.txt	SEAT	1	12	[0, 0, 0]	n/a	FR1	0	R1049J
1264.72	2.455	1550375	WORD	n/a	wordpools/wordpool_EN.txt	DOOR	2	12	[0, 0, 0]	n/a	FR1	0	R1049J
1267.175	2.386	1552830	WORD	n/a	wordpools/wordpool_EN.txt	THUMB	3	12	[0, 0, 0]	n/a	FR1	0	R1049J
1269.561	2.505	1555216	WORD	n/a	wordpools/wordpool_EN.txt	BROOM	4	12	[0, 0, 0]	n/a	FR1	0	R1049J
1272.066	2.405	1557721	WORD	n/a	wordpools/wordpool_EN.txt	HAND	5	12	[0, 0, 0]	n/a	FR1	0	R1049J
1274.471	2.436	1560126	WORD	n/a	wordpools/wordpool_EN.txt	CRANE	6	12	[0, 0, 0]	n/a	FR1	0	R1049J
1276.907	2.388	1562562	WORD	n/a	wordpools/wordpool_EN.txt	TOOL	7	12	[0, 0, 0]	n/a	FR1	0	R1049J
1279.295	2.62	1564950	WORD	n/a	wordpools/wordpool_EN.txt	HOUSE	8	12	[0, 0, 0]	n/a	FR1	0	R1049J
1281.915	2.405	1567570	WORD	n/a	wordpools/wordpool_EN.txt	SHOE	9	12	[0, 0, 0]	n/a	FR1	0	R1049J
1284.32	2.487	1569974	WORD	n/a	wordpools/wordpool_EN.txt	HORN	10	12	[0, 0, 0]	n/a	FR1	0	R1049J
1286.807	2.505	1572461	WORD	n/a	wordpools/wordpool_EN.txt	LOCK	11	12	[0, 0, 0]	n/a	FR1	0	R1049J
1289.312	1.619	1574966	WORD	n/a	wordpools/wordpool_EN.txt	FROG	12	12	[0, 0, 0]	n/a	FR1	0	R1049J
1290.931	0.0	1576585	DISTRACT_START	n/a	n/a	n/a	-999	12	[0, 0, 0]	n/a	FR1	0	R1049J
1290.931	0.016	1576585	START	n/a	n/a	n/a	-999	12	[-999, -999, -999]	n/a	FR1	0	R1049J
1290.947	4.274	1576601	PROB	4.274	n/a	n/a	-999	12	[7, 1, 5]	13	FR1	0	R1049J
1295.221	3.173	1580875	PROB	3.173	n/a	n/a	-999	12	[5, 1, 6]	12	FR1	0	R1049J
1298.394	3.255	1584048	PROB	3.255	n/a	n/a	-999	12	[5, 6, 2]	13	FR1	0	R1049J
1301.649	3.255	1587303	PROB	3.255	n/a	n/a	-999	12	[7, 4, 2]	13	FR1	0	R1049J
1304.904	3.49	1590558	PROB	3.49	n/a	n/a	-999	12	[3, 8, 8]	19	FR1	0	R1049J
1308.394	3.249	1594048	PROB	3.249	n/a	n/a	-999	12	[1, 3, 9]	13	FR1	0	R1049J
1311.643	0.023	1597296	STOP	n/a	n/a	n/a	-999	12	[-999, -999, -999]	n/a	FR1	0	R1049J
1311.666	1.169	1597319	DISTRACT_END	n/a	n/a	n/a	-999	12	[0, 0, 0]	n/a	FR1	0	R1049J
1312.835	6.163	1598488	REC_START	n/a	n/a	n/a	-999	12	[0, 0, 0]	n/a	FR1	0	R1049J
1318.998	2.061	1604651	REC_WORD	2.061	n/a	SEAT	1	12	[0, 0, 0]	n/a	FR1	0	R1049J
1321.059	6.966	1606712	REC_WORD	6.966	n/a	YARD	-999	12	[0, 0, 0]	n/a	FR1	0	R1049J
1328.025	14.823	1613678	REC_WORD	14.823	n/a	MILE	-999	12	[0, 0, 0]	n/a	FR1	0	R1049J
1342.848	1.957	1628500	REC_END	n/a	n/a	n/a	-999	12	[0, 0, 0]	n/a	FR1	0	R1049J
1344.805	0.0	1630457	TRIAL	n/a	n/a	n/a	-999	13	[0, 0, 0]	n/a	FR1	0	R1049J
1344.805	10.428	1630457	COUNTDOWN_START	n/a	n/a	n/a	-999	13	[0, 0, 0]	n/a	FR1	0	R1049J
1355.233	0.006	1640885	COUNTDOWN_END	n/a	n/a	n/a	-999	13	[0, 0, 0]	n/a	FR1	0	R1049J
1355.239	2.421	1640891	ORIENT	n/a	n/a	n/a	-999	13	[0, 0, 0]	n/a	FR1	0	R1049J
1357.66	2.42	1643312	WORD	n/a	wordpools/wordpool_EN.txt	BEE	1	13	[0, 0, 0]	n/a	FR1	0	R1049J
1360.08	2.454	1645732	WORD	n/a	wordpools/wordpool_EN.txt	STORE	2	13	[0, 0, 0]	n/a	FR1	0	R1049J
1362.534	2.538	1648186	WORD	n/a	wordpools/wordpool_EN.txt	MOLE	3	13	[0, 0, 0]	n/a	FR1	0	R1049J
1365.072	2.605	1650724	WORD	n/a	wordpools/wordpool_EN.txt	ROCK	4	13	[0, 0, 0]	n/a	FR1	0	R1049J
1367.677	2.471	1653328	WORD	n/a	wordpools/wordpool_EN.txt	BIRD	5	13	[0, 0, 0]	n/a	FR1	0	R1049J
1370.148	2.487	1655799	WORD	n/a	wordpools/wordpool_EN.txt	BEAR	6	13	[0, 0, 0]	n/a	FR1	0	R1049J
1372.635	2.504	1658286	WORD	n/a	wordpools/wordpool_EN.txt	RAIN	7	13	[0, 0, 0]	n/a	FR1	0	R1049J
1375.139	2.606	1660790	WORD	n/a	wordpools/wordpool_EN.txt	APE	8	13	[0, 0, 0]	n/a	FR1	0	R1049J
1377.745	2.436	1663396	WORD	n/a	wordpools/wordpool_EN.txt	ANT	9	13	[0, 0, 0]	n/a	FR1	0	R1049J
1380.181	2.454	1665832	WORD	n/a	wordpools/wordpool_EN.txt	NEST	10	13	[0, 0, 0]	n/a	FR1	0	R1049J
1382.635	2.588	1668286	WORD	n/a	wordpools/wordpool_EN.txt	JAIL	11	13	[0, 0, 0]	n/a	FR1	0	R1049J
1385.223	1.619	1670874	WORD	n/a	wordpools/wordpool_EN.txt	RAT	12	13	[0, 0, 0]	n/a	FR1	0	R1049J
1386.842	0.001	1672493	DISTRACT_START	n/a	n/a	n/a	-999	13	[0, 0, 0]	n/a	FR1	0	R1049J
1386.843	0.016	1672494	START	n/a	n/a	n/a	-999	13	[-999, -999, -999]	n/a	FR1	0	R1049J
1386.859	189.912	1672510	PROB	189.912	n/a	n/a	-999	13	[5, 9, 6]	21	FR1	0	R1049J
1576.771	0.007	1862415	STOP	n/a	n/a	n/a	-999	13	[-999, -999, -999]	n/a	FR1	0	R1049J
1576.778	1.153	1862422	DISTRACT_END	n/a	n/a	n/a	-999	13	[0, 0, 0]	n/a	FR1	0	R1049J
1577.931	1.414	1863575	REC_START	n/a	n/a	n/a	-999	13	[0, 0, 0]	n/a	FR1	0	R1049J
1579.345	1.43	1864989	REC_WORD_VV	1.43	n/a	<>	-999	13	[0, 0, 0]	n/a	FR1	0	R1049J
1580.775	5.442	1866419	REC_WORD	5.442	n/a	BEE	1	13	[0, 0, 0]	n/a	FR1	0	R1049J
1586.217	2.054	1871861	REC_WORD	2.054	n/a	LINE	-999	13	[0, 0, 0]	n/a	FR1	0	R1049J
1588.271	6.841	1873915	REC_WORD	6.841	n/a	GIANT	-999	13	[0, 0, 0]	n/a	FR1	0	R1049J
1595.112	12.832	1880755	REC_WORD	12.832	n/a	SQUARE	-999	13	[0, 0, 0]	n/a	FR1	0	R1049J
1607.944	1.69	1893587	REC_END	n/a	n/a	n/a	-999	13	[0, 0, 0]	n/a	FR1	0	R1049J
1609.634	0.0	1895277	TRIAL	n/a	n/a	n/a	-999	14	[0, 0, 0]	n/a	FR1	0	R1049J
1609.634	10.428	1895277	COUNTDOWN_START	n/a	n/a	n/a	-999	14	[0, 0, 0]	n/a	FR1	0	R1049J
1620.062	0.006	1905704	COUNTDOWN_END	n/a	n/a	n/a	-999	14	[0, 0, 0]	n/a	FR1	0	R1049J
1620.068	2.471	1905710	ORIENT	n/a	n/a	n/a	-999	14	[0, 0, 0]	n/a	FR1	0	R1049J
1622.539	2.571	1908181	WORD	n/a	wordpools/wordpool_EN.txt	SHIRT	1	14	[0, 0, 0]	n/a	FR1	0	R1049J
1625.11	2.604	1910752	WORD	n/a	wordpools/wordpool_EN.txt	FUR	2	14	[0, 0, 0]	n/a	FR1	0	R1049J
1627.714	2.404	1913356	WORD	n/a	wordpools/wordpool_EN.txt	RIB	3	14	[0, 0, 0]	n/a	FR1	0	R1049J
1630.118	2.571	1915760	WORD	n/a	wordpools/wordpool_EN.txt	POOL	4	14	[0, 0, 0]	n/a	FR1	0	R1049J
1632.689	2.438	1918331	WORD	n/a	wordpools/wordpool_EN.txt	SWORD	5	14	[0, 0, 0]	n/a	FR1	0	R1049J
1635.127	2.404	1920769	WORD	n/a	wordpools/wordpool_EN.txt	ARM	6	14	[0, 0, 0]	n/a	FR1	0	R1049J
1637.531	2.637	1923173	WORD	n/a	wordpools/wordpool_EN.txt	FAN	7	14	[0, 0, 0]	n/a	FR1	0	R1049J
1640.168	2.389	1925810	WORD	n/a	wordpools/wordpool_EN.txt	BOY	8	14	[0, 0, 0]	n/a	FR1	0	R1049J
1642.557	2.62	1928199	WORD	n/a	wordpools/wordpool_EN.txt	PURSE	9	14	[0, 0, 0]	n/a	FR1	0	R1049J
1645.177	2.537	1930818	WORD	n/a	wordpools/wordpool_EN.txt	ROPE	10	14	[0, 0, 0]	n/a	FR1	0	R1049J
1647.714	2.572	1933355	WORD	n/a	wordpools/wordpool_EN.txt	BUSH	11	14	[0, 0, 0]	n/a	FR1	0	R1049J
1650.286	1.619	1935927	WORD	n/a	wordpools/wordpool_EN.txt	FOOT	12	14	[0, 0, 0]	n/a	FR1	0	R1049J
1651.905	0.0	1937546	DISTRACT_START	n/a	n/a	n/a	-999	14	[0, 0, 0]	n/a	FR1	0	R1049J
1651.905	0.016	1937546	START	n/a	n/a	n/a	-999	14	[-999, -999, -999]	n/a	FR1	0	R1049J
1651.921	6.479	1937562	PROB	6.479	n/a	n/a	-999	14	[9, 9, 5]	23	FR1	0	R1049J
1658.4	9.348	1944041	PROB	9.348	n/a	n/a	-999	14	[5, 7, 8]	23	FR1	0	R1049J
1667.748	4.304	1953389	PROB	4.304	n/a	n/a	-999	14	[5, 2, 9]	20	FR1	0	R1049J
1672.052	0.02	1957693	STOP	n/a	n/a	n/a	-999	14	[-999, -999, -999]	n/a	FR1	0	R1049J
1672.072	1.069	1957713	DISTRACT_END	n/a	n/a	n/a	-999	14	[0, 0, 0]	n/a	FR1	0	R1049J
1673.141	4.119	1958781	REC_START	n/a	n/a	n/a	-999	14	[0, 0, 0]	n/a	FR1	0	R1049J
1677.26	4.378	1962900	REC_WORD	4.378	n/a	FUR	2	14	[0, 0, 0]	n/a	FR1	0	R1049J
1681.638	1.426	1967278	REC_WORD	1.426	n/a	ROW	-999	14	[0, 0, 0]	n/a	FR1	0	R1049J
1683.064	8.761	1968704	REC_WORD	8.761	n/a	BOY	8	14	[0, 0, 0]	n/a	FR1	0	R1049J
1691.825	1.872	1977465	REC_WORD	1.872	n/a	YARD	-999	14	[0, 0, 0]	n/a	FR1	0	R1049J
1693.697	9.457	1979337	REC_WORD	9.457	n/a	SHIRT	1	14	[0, 0, 0]	n/a	FR1	0	R1049J
1703.154	2.007	1988793	REC_END	n/a	n/a	n/a	-999	14	[0, 0, 0]	n/a	FR1	0	R1049J
1705.161	0.0	1990800	TRIAL	n/a	n/a	n/a	-999	15	[0, 0, 0]	n/a	FR1	0	R1049J
1705.161	10.428	1990800	COUNTDOWN_START	n/a	n/a	n/a	-999	15	[0, 0, 0]	n/a	FR1	0	R1049J
1715.589	0.006	2001228	COUNTDOWN_END	n/a	n/a	n/a	-999	15	[0, 0, 0]	n/a	FR1	0	R1049J
1715.595	2.387	2001234	ORIENT	n/a	n/a	n/a	-999	15	[0, 0, 0]	n/a	FR1	0	R1049J
1717.982	2.521	2003621	WORD	n/a	wordpools/wordpool_EN.txt	SHEET	1	15	[0, 0, 0]	n/a	FR1	0	R1049J
1720.503	2.421	2006142	WORD	n/a	wordpools/wordpool_EN.txt	NET	2	15	[0, 0, 0]	n/a	FR1	0	R1049J
1722.924	2.605	2008563	WORD	n/a	wordpools/wordpool_EN.txt	WORLD	3	15	[0, 0, 0]	n/a	FR1	0	R1049J
1725.529	2.554	2011168	WORD	n/a	wordpools/wordpool_EN.txt	LIP	4	15	[0, 0, 0]	n/a	FR1	0	R1049J
1728.083	2.421	2013722	WORD	n/a	wordpools/wordpool_EN.txt	SCHOOL	5	15	[0, 0, 0]	n/a	FR1	0	R1049J
1730.504	2.587	2016142	WORD	n/a	wordpools/wordpool_EN.txt	WING	6	15	[0, 0, 0]	n/a	FR1	0	R1049J
1733.091	2.571	2018729	WORD	n/a	wordpools/wordpool_EN.txt	SWAMP	7	15	[0, 0, 0]	n/a	FR1	0	R1049J
1735.662	2.521	2021300	WORD	n/a	wordpools/wordpool_EN.txt	BAT	8	15	[0, 0, 0]	n/a	FR1	0	R1049J
1738.183	2.438	2023821	WORD	n/a	wordpools/wordpool_EN.txt	MAZE	9	15	[0, 0, 0]	n/a	FR1	0	R1049J
1740.621	2.571	2026259	WORD	n/a	wordpools/wordpool_EN.txt	TANK	10	15	[0, 0, 0]	n/a	FR1	0	R1049J
1743.192	2.571	2028830	WORD	n/a	wordpools/wordpool_EN.txt	BADGE	11	15	[0, 0, 0]	n/a	FR1	0	R1049J
1745.763	1.62	2031401	WORD	n/a	wordpools/wordpool_EN.txt	JET	12	15	[0, 0, 0]	n/a	FR1	0	R1049J
1747.383	0.001	2033021	DISTRACT_START	n/a	n/a	n/a	-999	15	[0, 0, 0]	n/a	FR1	0	R1049J
1747.384	0.016	2033022	START	n/a	n/a	n/a	-999	15	[-999, -999, -999]	n/a	FR1	0	R1049J
1747.4	5.391	2033038	PROB	5.391	n/a	n/a	-999	15	[2, 5, 7]	14	FR1	0	R1049J
1752.791	4.808	2038429	PROB	4.808	n/a	n/a	-999	15	[4, 3, 1]	8	FR1	0	R1049J
1757.599	4.274	2043236	PROB	4.274	n/a	n/a	-999	15	[5, 6, 3]	14	FR1	0	R1049J
1761.873	5.65	2047510	PROB	5.65	n/a	n/a	-999	15	[7, 1, 7]	15	FR1	0	R1049J
1767.523	0.011	2053160	STOP	n/a	n/a	n/a	-999	15	[-999, -999, -999]	n/a	FR1	0	R1049J
1767.534	1.202	2053171	DISTRACT_END	n/a	n/a	n/a	-999	15	[0, 0, 0]	n/a	FR1	0	R1049J
1768.736	8.431	2054373	REC_START	n/a	n/a	n/a	-999	15	[0, 0, 0]	n/a	FR1	0	R1049J
1777.167	0.894	2062804	REC_WORD	0.894	n/a	SHEET	1	15	[0, 0, 0]	n/a	FR1	0	R1049J
1778.061	4.959	2063698	REC_WORD	4.959	n/a	RAISE	-999	15	[0, 0, 0]	n/a	FR1	0	R1049J
1783.02	15.729	2068657	REC_WORD	15.729	n/a	YARD	-999	15	[0, 0, 0]	n/a	FR1	0	R1049J
1798.749	1.856	2084385	REC_END	n/a	n/a	n/a	-999	15	[0, 0, 0]	n/a	FR1	0	R1049J
1800.605	0.001	2086241	COUNTDOWN_START	n/a	n/a	n/a	-999	16	[0, 0, 0]	n/a	FR1	0	R1049J
1800.606	10.427	2086242	TRIAL	n/a	n/a	n/a	-999	16	[0, 0, 0]	n/a	FR1	0	R1049J
1811.033	0.006	2096669	COUNTDOWN_END	n/a	n/a	n/a	-999	16	[0, 0, 0]	n/a	FR1	0	R1049J
1811.039	2.471	2096675	ORIENT	n/a	n/a	n/a	-999	16	[0, 0, 0]	n/a	FR1	0	R1049J
1813.51	2.571	2099145	WORD	n/a	wordpools/wordpool_EN.txt	CROW	1	16	[0, 0, 0]	n/a	FR1	0	R1049J
1816.081	2.571	2101716	WORD	n/a	wordpools/wordpool_EN.txt	ROOT	2	16	[0, 0, 0]	n/a	FR1	0	R1049J
1818.652	2.554	2104287	WORD	n/a	wordpools/wordpool_EN.txt	PLANT	3	16	[0, 0, 0]	n/a	FR1	0	R1049J
1821.206	2.589	2106841	WORD	n/a	wordpools/wordpool_EN.txt	CHIEF	4	16	[0, 0, 0]	n/a	FR1	0	R1049J
1823.795	2.554	2109430	WORD	n/a	wordpools/wordpool_EN.txt	TEETH	5	16	[0, 0, 0]	n/a	FR1	0	R1049J
1826.349	2.403	2111984	WORD	n/a	wordpools/wordpool_EN.txt	SHIELD	6	16	[0, 0, 0]	n/a	FR1	0	R1049J
1828.752	2.438	2114387	WORD	n/a	wordpools/wordpool_EN.txt	CAVE	7	16	[0, 0, 0]	n/a	FR1	0	R1049J
1831.19	2.42	2116825	WORD	n/a	wordpools/wordpool_EN.txt	WEED	8	16	[0, 0, 0]	n/a	FR1	0	R1049J
1833.61	2.555	2119245	WORD	n/a	wordpools/wordpool_EN.txt	BRUSH	9	16	[0, 0, 0]	n/a	FR1	0	R1049J
1836.165	2.571	2121800	WORD	n/a	wordpools/wordpool_EN.txt	PASTE	10	16	[0, 0, 0]	n/a	FR1	0	R1049J
1838.736	2.404	2124371	WORD	n/a	wordpools/wordpool_EN.txt	SEAL	11	16	[0, 0, 0]	n/a	FR1	0	R1049J
1841.14	1.619	2126774	WORD	n/a	wordpools/wordpool_EN.txt	FOAM	12	16	[0, 0, 0]	n/a	FR1	0	R1049J
1842.759	0.002	2128393	DISTRACT_START	n/a	n/a	n/a	-999	16	[0, 0, 0]	n/a	FR1	0	R1049J
1842.761	0.015	2128395	START	n/a	n/a	n/a	-999	16	[-999, -999, -999]	n/a	FR1	0	R1049J
1842.776	3.923	2128410	PROB	3.923	n/a	n/a	-999	16	[2, 2, 8]	12	FR1	0	R1049J
1846.699	5.543	2132333	PROB	5.543	n/a	n/a	-999	16	[1, 2, 1]	4	FR1	0	R1049J
1852.242	4.158	2137876	PROB	4.158	n/a	n/a	-999	16	[1, 2, 6]	9	FR1	0	R1049J
1856.4	3.438	2142034	PROB	3.438	n/a	n/a	-999	16	[2, 1, 8]	11	FR1	0	R1049J
1859.838	4.037	2145472	PROB	4.037	n/a	n/a	-999	16	[5, 1, 4]	10	FR1	0	R1049J
1863.875	0.02	2149509	STOP	n/a	n/a	n/a	-999	16	[-999, -999, -999]	n/a	FR1	0	R1049J
1863.895	1.236	2149529	DISTRACT_END	n/a	n/a	n/a	-999	16	[0, 0, 0]	n/a	FR1	0	R1049J
1865.131	9.024	2150765	REC_START	n/a	n/a	n/a	-999	16	[0, 0, 0]	n/a	FR1	0	R1049J
1874.155	6.156	2159788	REC_WORD	6.156	n/a	CRAZE	-999	16	[0, 0, 0]	n/a	FR1	0	R1049J
1880.311	14.833	2165944	REC_WORD	14.833	n/a	YARD	-999	16	[0, 0, 0]	n/a	FR1	0	R1049J
1895.144	1.174	2180777	REC_END	n/a	n/a	n/a	-999	16	[0, 0, 0]	n/a	FR1	0	R1049J
1896.318	0.001	2181950	COUNTDOWN_START	n/a	n/a	n/a	-999	17	[0, 0, 0]	n/a	FR1	0	R1049J
1896.319	10.427	2181951	TRIAL	n/a	n/a	n/a	-999	17	[0, 0, 0]	n/a	FR1	0	R1049J
1906.746	0.004	2192378	COUNTDOWN_END	n/a	n/a	n/a	-999	17	[0, 0, 0]	n/a	FR1	0	R1049J
1906.75	2.488	2192382	ORIENT	n/a	n/a	n/a	-999	17	[0, 0, 0]	n/a	FR1	0	R1049J
1909.238	2.537	2194870	WORD	n/a	wordpools/wordpool_EN.txt	MULE	1	17	[0, 0, 0]	n/a	FR1	0	R1049J
1911.775	2.371	2197407	WORD	n/a	wordpools/wordpool_EN.txt	FORT	2	17	[0, 0, 0]	n/a	FR1	0	R1049J
1914.146	2.504	2199778	WORD	n/a	wordpools/wordpool_EN.txt	PEA	3	17	[0, 0, 0]	n/a	FR1	0	R1049J
1916.65	2.521	2202282	WORD	n/a	wordpools/wordpool_EN.txt	HILL	4	17	[0, 0, 0]	n/a	FR1	0	R1049J
1919.171	2.538	2204803	WORD	n/a	wordpools/wordpool_EN.txt	HEN	5	17	[0, 0, 0]	n/a	FR1	0	R1049J
1921.709	2.622	2207341	WORD	n/a	wordpools/wordpool_EN.txt	MAT	6	17	[0, 0, 0]	n/a	FR1	0	R1049J
1924.331	2.47	2209962	WORD	n/a	wordpools/wordpool_EN.txt	PANTS	7	17	[0, 0, 0]	n/a	FR1	0	R1049J
1926.801	2.437	2212432	WORD	n/a	wordpools/wordpool_EN.txt	FOX	8	17	[0, 0, 0]	n/a	FR1	0	R1049J
1929.238	2.538	2214869	WORD	n/a	wordpools/wordpool_EN.txt	FLAG	9	17	[0, 0, 0]	n/a	FR1	0	R1049J
1931.776	2.538	2217407	WORD	n/a	wordpools/wordpool_EN.txt	SIGN	10	17	[0, 0, 0]	n/a	FR1	0	R1049J
1934.314	2.42	2219945	WORD	n/a	wordpools/wordpool_EN.txt	GUARD	11	17	[0, 0, 0]	n/a	FR1	0	R1049J
1936.734	1.62	2222365	WORD	n/a	wordpools/wordpool_EN.txt	HAWK	12	17	[0, 0, 0]	n/a	FR1	0	R1049J
1938.354	0.001	2223985	DISTRACT_START	n/a	n/a	n/a	-999	17	[0, 0, 0]	n/a	FR1	0	R1049J
1938.355	0.016	2223986	START	n/a	n/a	n/a	-999	17	[-999, -999, -999]	n/a	FR1	0	R1049J
1938.371	5.208	2224002	PROB	5.208	n/a	n/a	-999	17	[7, 4, 6]	15	FR1	0	R1049J
1943.579	3.355	2229210	PROB	3.355	n/a	n/a	-999	17	[8, 9, 4]	21	FR1	0	R1049J
1946.934	3.556	2232565	PROB	3.556	n/a	n/a	-999	17	[9, 1, 7]	17	FR1	0	R1049J
1950.49	3.506	2236121	PROB	3.506	n/a	n/a	-999	17	[1, 6, 1]	9	FR1	0	R1049J
1953.996	3.122	2239626	PROB	3.122	n/a	n/a	-999	17	[1, 5, 6]	12	FR1	0	R1049J
1957.118	4.117	2242748	PROB	4.117	n/a	n/a	-999	17	[9, 6, 1]	16	FR1	0	R1049J
1961.235	0.007	2246865	STOP	n/a	n/a	n/a	-999	17	[-999, -999, -999]	n/a	FR1	0	R1049J
1961.242	1.103	2246872	DISTRACT_END	n/a	n/a	n/a	-999	17	[0, 0, 0]	n/a	FR1	0	R1049J
1962.345	22.066	2247975	REC_START	n/a	n/a	n/a	-999	17	[0, 0, 0]	n/a	FR1	0	R1049J
1984.411	3.042	2270040	REC_WORD_VV	3.042	n/a	<>	-999	17	[0, 0, 0]	n/a	FR1	0	R1049J
1987.453	3.096	2273082	REC_WORD	3.096	n/a	SHEET	-999	17	[0, 0, 0]	n/a	FR1	0	R1049J
1990.549	1.81	2276178	REC_WORD	1.81	n/a	PASTE	-999	17	[0, 0, 0]	n/a	FR1	0	R1049J
1992.359	1.923	2277988	REC_END	n/a	n/a	n/a	-999	17	[0, 0, 0]	n/a	FR1	0	R1049J
1994.282	0.0	2279911	COUNTDOWN_START	n/a	n/a	n/a	-999	18	[0, 0, 0]	n/a	FR1	0	R1049J
1994.282	10.428	2279911	TRIAL	n/a	n/a	n/a	-999	18	[0, 0, 0]	n/a	FR1	0	R1049J
2004.71	0.005	2290339	COUNTDOWN_END	n/a	n/a	n/a	-999	18	[0, 0, 0]	n/a	FR1	0	R1049J
2004.715	2.454	2290344	ORIENT	n/a	n/a	n/a	-999	18	[0, 0, 0]	n/a	FR1	0	R1049J
2007.169	2.438	2292797	WORD	n/a	wordpools/wordpool_EN.txt	THREAD	1	18	[0, 0, 0]	n/a	FR1	0	R1049J
2009.607	2.454	2295235	WORD	n/a	wordpools/wordpool_EN.txt	PIE	2	18	[0, 0, 0]	n/a	FR1	0	R1049J
2012.061	2.454	2297689	WORD	n/a	wordpools/wordpool_EN.txt	WALL	3	18	[0, 0, 0]	n/a	FR1	0	R1049J
2014.515	2.421	2300143	WORD	n/a	wordpools/wordpool_EN.txt	SUIT	4	18	[0, 0, 0]	n/a	FR1	0	R1049J
2016.936	2.388	2302564	WORD	n/a	wordpools/wordpool_EN.txt	STEAK	5	18	[0, 0, 0]	n/a	FR1	0	R1049J
2019.324	2.603	2304952	WORD	n/a	wordpools/wordpool_EN.txt	VASE	6	18	[0, 0, 0]	n/a	FR1	0	R1049J
2021.927	2.389	2307555	WORD	n/a	wordpools/wordpool_EN.txt	SLUSH	7	18	[0, 0, 0]	n/a	FR1	0	R1049J
2024.316	2.52	2309944	WORD	n/a	wordpools/wordpool_EN.txt	TOAST	8	18	[0, 0, 0]	n/a	FR1	0	R1049J
2026.836	2.555	2312464	WORD	n/a	wordpools/wordpool_EN.txt	PHONE	9	18	[0, 0, 0]	n/a	FR1	0	R1049J
2029.391	2.571	2315019	WORD	n/a	wordpools/wordpool_EN.txt	BAND	10	18	[0, 0, 0]	n/a	FR1	0	R1049J
2031.962	2.603	2317590	WORD	n/a	wordpools/wordpool_EN.txt	MAIL	11	18	[0, 0, 0]	n/a	FR1	0	R1049J
2034.565	1.62	2320192	WORD	n/a	wordpools/wordpool_EN.txt	SHRIMP	12	18	[0, 0, 0]	n/a	FR1	0	R1049J
2036.185	0.0	2321812	DISTRACT_START	n/a	n/a	n/a	-999	18	[0, 0, 0]	n/a	FR1	0	R1049J
2036.185	0.016	2321812	START	n/a	n/a	n/a	-999	18	[-999, -999, -999]	n/a	FR1	0	R1049J
2036.201	6.528	2321828	PROB	6.528	n/a	n/a	-999	18	[5, 9, 3]	18	FR1	0	R1049J
2042.729	3.873	2328356	PROB	3.873	n/a	n/a	-999	18	[5, 3, 6]	14	FR1	0	R1049J
2046.602	3.539	2332229	PROB	3.539	n/a	n/a	-999	18	[5, 1, 2]	9	FR1	0	R1049J
2050.141	4.408	2335768	PROB	4.408	n/a	n/a	-999	18	[5, 1, 9]	15	FR1	0	R1049J
2054.549	3.199	2340176	PROB	3.199	n/a	n/a	-999	18	[2, 8, 2]	12	FR1	0	R1049J
2057.748	0.006	2343375	STOP	n/a	n/a	n/a	-999	18	[-999, -999, -999]	n/a	FR1	0	R1049J
2057.754	1.036	2343381	DISTRACT_END	n/a	n/a	n/a	-999	18	[0, 0, 0]	n/a	FR1	0	R1049J
2058.79	14.558	2344417	REC_START	n/a	n/a	n/a	-999	18	[0, 0, 0]	n/a	FR1	0	R1049J
2073.348	1.031	2358974	REC_WORD	1.031	n/a	AISLE	-999	18	[0, 0, 0]	n/a	FR1	0	R1049J
2074.379	6.094	2360005	REC_WORD	6.094	n/a	PIE	2	18	[0, 0, 0]	n/a	FR1	0	R1049J
2080.473	8.33	2366099	REC_WORD	8.33	n/a	FRUIT	-999	18	[0, 0, 0]	n/a	FR1	0	R1049J
2088.803	2.357	2374429	REC_END	n/a	n/a	n/a	-999	18	[0, 0, 0]	n/a	FR1	0	R1049J
2091.16	0.001	2376785	COUNTDOWN_START	n/a	n/a	n/a	-999	19	[0, 0, 0]	n/a	FR1	0	R1049J
2091.161	10.427	2376786	TRIAL	n/a	n/a	n/a	-999	19	[0, 0, 0]	n/a	FR1	0	R1049J
2101.588	0.007	2387213	COUNTDOWN_END	n/a	n/a	n/a	-999	19	[0, 0, 0]	n/a	FR1	0	R1049J
2101.595	2.387	2387220	ORIENT	n/a	n/a	n/a	-999	19	[0, 0, 0]	n/a	FR1	0	R1049J
2103.982	2.388	2389607	WORD	n/a	wordpools/wordpool_EN.txt	SAIL	1	19	[0, 0, 0]	n/a	FR1	0	R1049J
2106.37	2.537	2391995	WORD	n/a	wordpools/wordpool_EN.txt	SHIP	2	19	[0, 0, 0]	n/a	FR1	0	R1049J
2108.907	2.605	2394532	WORD	n/a	wordpools/wordpool_EN.txt	WORM	3	19	[0, 0, 0]	n/a	FR1	0	R1049J
2111.512	2.504	2397137	WORD	n/a	wordpools/wordpool_EN.txt	SLIME	4	19	[0, 0, 0]	n/a	FR1	0	R1049J
2114.016	2.405	2399641	WORD	n/a	wordpools/wordpool_EN.txt	STEAM	5	19	[0, 0, 0]	n/a	FR1	0	R1049J
2116.421	2.486	2402046	WORD	n/a	wordpools/wordpool_EN.txt	BOAT	6	19	[0, 0, 0]	n/a	FR1	0	R1049J
2118.907	2.522	2404531	WORD	n/a	wordpools/wordpool_EN.txt	HOOK	7	19	[0, 0, 0]	n/a	FR1	0	R1049J
2121.429	2.487	2407053	WORD	n/a	wordpools/wordpool_EN.txt	DESK	8	19	[0, 0, 0]	n/a	FR1	0	R1049J
2123.916	2.587	2409540	WORD	n/a	wordpools/wordpool_EN.txt	PEARL	9	19	[0, 0, 0]	n/a	FR1	0	R1049J
2126.503	2.605	2412127	WORD	n/a	wordpools/wordpool_EN.txt	WHEEL	10	19	[0, 0, 0]	n/a	FR1	0	R1049J
2129.108	2.454	2414732	WORD	n/a	wordpools/wordpool_EN.txt	FISH	11	19	[0, 0, 0]	n/a	FR1	0	R1049J
2131.562	1.619	2417186	WORD	n/a	wordpools/wordpool_EN.txt	DRESS	12	19	[0, 0, 0]	n/a	FR1	0	R1049J
2133.181	0.001	2418805	DISTRACT_START	n/a	n/a	n/a	-999	19	[0, 0, 0]	n/a	FR1	0	R1049J
2133.182	0.016	2418806	START	n/a	n/a	n/a	-999	19	[-999, -999, -999]	n/a	FR1	0	R1049J
2133.198	3.906	2418822	PROB	3.906	n/a	n/a	-999	19	[1, 1, 6]	8	FR1	0	R1049J
2137.104	4.041	2422728	PROB	4.041	n/a	n/a	-999	19	[7, 5, 5]	14	FR1	0	R1049J
2141.145	4.541	2426769	PROB	4.541	n/a	n/a	-999	19	[1, 8, 9]	18	FR1	0	R1049J
2145.686	3.539	2431309	PROB	3.539	n/a	n/a	-999	19	[9, 7, 4]	20	FR1	0	R1049J
2149.225	4.707	2434848	PROB	4.707	n/a	n/a	-999	19	[1, 9, 9]	19	FR1	0	R1049J
2153.932	0.017	2439555	STOP	n/a	n/a	n/a	-999	19	[-999, -999, -999]	n/a	FR1	0	R1049J
2153.949	1.22	2439572	DISTRACT_END	n/a	n/a	n/a	-999	19	[0, 0, 0]	n/a	FR1	0	R1049J
2155.169	5.69	2440792	REC_START	n/a	n/a	n/a	-999	19	[0, 0, 0]	n/a	FR1	0	R1049J
2160.859	2.17	2446482	REC_WORD	2.17	n/a	WHEEL	10	19	[0, 0, 0]	n/a	FR1	0	R1049J
2163.029	22.153	2448652	REC_WORD	22.153	n/a	SHIRT	-999	19	[0, 0, 0]	n/a	FR1	0	R1049J
2185.182	1.823	2470804	REC_END	n/a	n/a	n/a	-999	19	[0, 0, 0]	n/a	FR1	0	R1049J
2187.005	0.001	2472627	COUNTDOWN_START	n/a	n/a	n/a	-999	20	[0, 0, 0]	n/a	FR1	0	R1049J
2187.006	10.427	2472628	TRIAL	n/a	n/a	n/a	-999	20	[0, 0, 0]	n/a	FR1	0	R1049J
2197.433	0.007	2483055	COUNTDOWN_END	n/a	n/a	n/a	-999	20	[0, 0, 0]	n/a	FR1	0	R1049J
2197.44	2.437	2483062	ORIENT	n/a	n/a	n/a	-999	20	[0, 0, 0]	n/a	FR1	0	R1049J
2199.877	2.573	2485499	WORD	n/a	wordpools/wordpool_EN.txt	PIT	1	20	[0, 0, 0]	n/a	FR1	0	R1049J
2202.45	2.502	2488071	WORD	n/a	wordpools/wordpool_EN.txt	PEACH	2	20	[0, 0, 0]	n/a	FR1	0	R1049J
2204.952	2.588	2490573	WORD	n/a	wordpools/wordpool_EN.txt	FLUTE	3	20	[0, 0, 0]	n/a	FR1	0	R1049J
2207.54	2.454	2493161	WORD	n/a	wordpools/wordpool_EN.txt	CORN	4	20	[0, 0, 0]	n/a	FR1	0	R1049J
2209.994	2.487	2495615	WORD	n/a	wordpools/wordpool_EN.txt	JUDGE	5	20	[0, 0, 0]	n/a	FR1	0	R1049J
2212.481	2.404	2498102	WORD	n/a	wordpools/wordpool_EN.txt	CART	6	20	[0, 0, 0]	n/a	FR1	0	R1049J
2214.885	2.472	2500506	WORD	n/a	wordpools/wordpool_EN.txt	TREE	7	20	[0, 0, 0]	n/a	FR1	0	R1049J
2217.357	2.42	2502978	WORD	n/a	wordpools/wordpool_EN.txt	ROOM	8	20	[0, 0, 0]	n/a	FR1	0	R1049J
2219.777	2.454	2505398	WORD	n/a	wordpools/wordpool_EN.txt	STREET	9	20	[0, 0, 0]	n/a	FR1	0	R1049J
2222.231	2.621	2507852	WORD	n/a	wordpools/wordpool_EN.txt	BENCH	10	20	[0, 0, 0]	n/a	FR1	0	R1049J
2224.852	2.389	2510473	WORD	n/a	wordpools/wordpool_EN.txt	BOWL	11	20	[0, 0, 0]	n/a	FR1	0	R1049J
2227.241	1.618	2512862	WORD	n/a	wordpools/wordpool_EN.txt	FRUIT	12	20	[0, 0, 0]	n/a	FR1	0	R1049J
2228.859	0.001	2514480	DISTRACT_START	n/a	n/a	n/a	-999	20	[0, 0, 0]	n/a	FR1	0	R1049J
2228.86	0.016	2514481	START	n/a	n/a	n/a	-999	20	[-999, -999, -999]	n/a	FR1	0	R1049J
2228.876	3.406	2514497	PROB	3.406	n/a	n/a	-999	20	[5, 1, 3]	9	FR1	0	R1049J
2232.282	2.837	2517902	PROB	2.837	n/a	n/a	-999	20	[1, 1, 3]	5	FR1	0	R1049J
2235.119	3.324	2520739	PROB	3.324	n/a	n/a	-999	20	[4, 1, 4]	9	FR1	0	R1049J
2238.443	4.256	2524063	PROB	4.256	n/a	n/a	-999	20	[2, 5, 9]	16	FR1	0	R1049J
2242.699	2.988	2528319	PROB	2.988	n/a	n/a	-999	20	[2, 1, 4]	7	FR1	0	R1049J
2245.687	4.349	2531307	PROB	4.349	n/a	n/a	-999	20	[4, 3, 9]	16	FR1	0	R1049J
2250.036	0.009	2535656	STOP	n/a	n/a	n/a	-999	20	[-999, -999, -999]	n/a	FR1	0	R1049J
2250.045	1.204	2535665	DISTRACT_END	n/a	n/a	n/a	-999	20	[0, 0, 0]	n/a	FR1	0	R1049J
2251.249	11.561	2536869	REC_START	n/a	n/a	n/a	-999	20	[0, 0, 0]	n/a	FR1	0	R1049J
2262.81	0.956	2548429	REC_WORD	0.956	n/a	FRUIT	12	20	[0, 0, 0]	n/a	FR1	0	R1049J
2263.766	8.114	2549385	REC_WORD	8.114	n/a	PIE	-999	20	[0, 0, 0]	n/a	FR1	0	R1049J
2271.88	9.382	2557499	REC_WORD	9.382	n/a	SQUARE	-999	20	[0, 0, 0]	n/a	FR1	0	R1049J
2281.262	1.805	2566881	REC_END	n/a	n/a	n/a	-999	20	[0, 0, 0]	n/a	FR1	0	R1049J
2283.067	0.0	2568686	COUNTDOWN_START	n/a	n/a	n/a	-999	21	[0, 0, 0]	n/a	FR1	0	R1049J
2283.067	10.428	2568686	TRIAL	n/a	n/a	n/a	-999	21	[0, 0, 0]	n/a	FR1	0	R1049J
2293.495	0.006	2579113	COUNTDOWN_END	n/a	n/a	n/a	-999	21	[0, 0, 0]	n/a	FR1	0	R1049J
2293.501	2.421	2579119	ORIENT	n/a	n/a	n/a	-999	21	[0, 0, 0]	n/a	FR1	0	R1049J
2295.922	2.604	2581540	WORD	n/a	wordpools/wordpool_EN.txt	JEEP	1	21	[0, 0, 0]	n/a	FR1	0	R1049J
2298.526	2.621	2584144	WORD	n/a	wordpools/wordpool_EN.txt	MOUTH	2	21	[0, 0, 0]	n/a	FR1	0	R1049J
2301.147	2.588	2586765	WORD	n/a	wordpools/wordpool_EN.txt	OAK	3	21	[0, 0, 0]	n/a	FR1	0	R1049J
2303.735	2.522	2589353	WORD	n/a	wordpools/wordpool_EN.txt	CUBE	4	21	[0, 0, 0]	n/a	FR1	0	R1049J
2306.257	2.536	2591875	WORD	n/a	wordpools/wordpool_EN.txt	RAKE	5	21	[0, 0, 0]	n/a	FR1	0	R1049J
2308.793	2.388	2594411	WORD	n/a	wordpools/wordpool_EN.txt	TENT	6	21	[0, 0, 0]	n/a	FR1	0	R1049J
2311.181	2.554	2596799	WORD	n/a	wordpools/wordpool_EN.txt	PET	7	21	[0, 0, 0]	n/a	FR1	0	R1049J
2313.735	2.555	2599352	WORD	n/a	wordpools/wordpool_EN.txt	TRAIN	8	21	[0, 0, 0]	n/a	FR1	0	R1049J
2316.29	2.487	2601907	WORD	n/a	wordpools/wordpool_EN.txt	HAT	9	21	[0, 0, 0]	n/a	FR1	0	R1049J
2318.777	2.573	2604394	WORD	n/a	wordpools/wordpool_EN.txt	CAPE	10	21	[0, 0, 0]	n/a	FR1	0	R1049J
2321.35	2.569	2606967	WORD	n/a	wordpools/wordpool_EN.txt	CAT	11	21	[0, 0, 0]	n/a	FR1	0	R1049J
2323.919	1.619	2609536	WORD	n/a	wordpools/wordpool_EN.txt	COW	12	21	[0, 0, 0]	n/a	FR1	0	R1049J
2325.538	0.001	2611155	DISTRACT_START	n/a	n/a	n/a	-999	21	[0, 0, 0]	n/a	FR1	0	R1049J
2325.539	0.016	2611156	START	n/a	n/a	n/a	-999	21	[-999, -999, -999]	n/a	FR1	0	R1049J
2325.555	3.774	2611172	PROB	3.774	n/a	n/a	-999	21	[2, 5, 4]	11	FR1	0	R1049J
2329.329	3.957	2614946	PROB	3.957	n/a	n/a	-999	21	[9, 2, 9]	19	FR1	0	R1049J
2333.286	4.123	2618903	PROB	4.123	n/a	n/a	-999	21	[8, 9, 1]	18	FR1	0	R1049J
2337.409	3.639	2623026	PROB	3.639	n/a	n/a	-999	21	[5, 5, 4]	14	FR1	0	R1049J
2341.048	2.904	2626664	PROB	2.904	n/a	n/a	-999	21	[1, 2, 6]	9	FR1	0	R1049J
2343.952	3.787	2629568	PROB	3.787	n/a	n/a	-999	21	[6, 5, 6]	17	FR1	0	R1049J
2347.739	0.02	2633355	STOP	n/a	n/a	n/a	-999	21	[-999, -999, -999]	n/a	FR1	0	R1049J
2347.759	1.086	2633375	DISTRACT_END	n/a	n/a	n/a	-999	21	[0, 0, 0]	n/a	FR1	0	R1049J
2348.845	3.759	2634461	REC_START	n/a	n/a	n/a	-999	21	[0, 0, 0]	n/a	FR1	0	R1049J
2352.604	2.24	2638220	REC_WORD	2.24	n/a	JEEP	1	21	[0, 0, 0]	n/a	FR1	0	R1049J
2354.844	24.015	2640460	REC_WORD	24.015	n/a	SQUARE	-999	21	[0, 0, 0]	n/a	FR1	0	R1049J
2378.859	1.972	2664474	REC_END	n/a	n/a	n/a	-999	21	[0, 0, 0]	n/a	FR1	0	R1049J
2380.831	0.001	2666446	COUNTDOWN_START	n/a	n/a	n/a	-999	22	[0, 0, 0]	n/a	FR1	0	R1049J
2380.832	10.427	2666447	TRIAL	n/a	n/a	n/a	-999	22	[0, 0, 0]	n/a	FR1	0	R1049J
2391.259	0.007	2676874	COUNTDOWN_END	n/a	n/a	n/a	-999	22	[0, 0, 0]	n/a	FR1	0	R1049J
2391.266	2.554	2676881	ORIENT	n/a	n/a	n/a	-999	22	[0, 0, 0]	n/a	FR1	0	R1049J
2393.82	2.387	2679435	WORD	n/a	wordpools/wordpool_EN.txt	STEM	1	22	[0, 0, 0]	n/a	FR1	0	R1049J
2396.207	2.438	2681821	WORD	n/a	wordpools/wordpool_EN.txt	MOON	2	22	[0, 0, 0]	n/a	FR1	0	R1049J
2398.645	2.52	2684259	WORD	n/a	wordpools/wordpool_EN.txt	EGG	3	22	[0, 0, 0]	n/a	FR1	0	R1049J
2401.165	2.471	2686779	WORD	n/a	wordpools/wordpool_EN.txt	TOAD	4	22	[0, 0, 0]	n/a	FR1	0	R1049J
2403.636	2.404	2689250	WORD	n/a	wordpools/wordpool_EN.txt	LEAF	5	22	[0, 0, 0]	n/a	FR1	0	R1049J
2406.04	2.488	2691654	WORD	n/a	wordpools/wordpool_EN.txt	HORSE	6	22	[0, 0, 0]	n/a	FR1	0	R1049J
2408.528	2.554	2694142	WORD	n/a	wordpools/wordpool_EN.txt	CASH	7	22	[0, 0, 0]	n/a	FR1	0	R1049J
2411.082	2.554	2696696	WORD	n/a	wordpools/wordpool_EN.txt	POLE	8	22	[0, 0, 0]	n/a	FR1	0	R1049J
2413.636	2.388	2699250	WORD	n/a	wordpools/wordpool_EN.txt	CORD	9	22	[0, 0, 0]	n/a	FR1	0	R1049J
2416.024	2.504	2701638	WORD	n/a	wordpools/wordpool_EN.txt	BOOK	10	22	[0, 0, 0]	n/a	FR1	0	R1049J
2418.528	2.588	2704142	WORD	n/a	wordpools/wordpool_EN.txt	FUDGE	11	22	[0, 0, 0]	n/a	FR1	0	R1049J
2421.116	1.619	2706730	WORD	n/a	wordpools/wordpool_EN.txt	SEED	12	22	[0, 0, 0]	n/a	FR1	0	R1049J
2422.735	0.001	2708349	DISTRACT_START	n/a	n/a	n/a	-999	22	[0, 0, 0]	n/a	FR1	0	R1049J
2422.736	0.016	2708350	START	n/a	n/a	n/a	-999	22	[-999, -999, -999]	n/a	FR1	0	R1049J
2422.752	3.856	2708366	PROB	3.856	n/a	n/a	-999	22	[9, 2, 3]	14	FR1	0	R1049J
2426.608	4.241	2712221	PROB	4.241	n/a	n/a	-999	22	[6, 7, 1]	14	FR1	0	R1049J
2430.849	2.421	2716462	PROB	2.421	n/a	n/a	-999	22	[1, 2, 6]	9	FR1	0	R1049J
2433.27	4.507	2718883	PROB	4.507	n/a	n/a	-999	22	[2, 5, 7]	14	FR1	0	R1049J
2437.777	4.825	2723390	PROB	4.825	n/a	n/a	-999	22	[2, 7, 1]	10	FR1	0	R1049J
2442.602	4.826	2728215	PROB	4.826	n/a	n/a	-999	22	[8, 8, 8]	24	FR1	0	R1049J
2447.428	0.016	2733041	STOP	n/a	n/a	n/a	-999	22	[-999, -999, -999]	n/a	FR1	0	R1049J
2447.444	1.035	2733057	DISTRACT_END	n/a	n/a	n/a	-999	22	[0, 0, 0]	n/a	FR1	0	R1049J
2448.479	18.713	2734092	REC_START	n/a	n/a	n/a	-999	22	[0, 0, 0]	n/a	FR1	0	R1049J
2467.192	1.695	2752804	REC_WORD_VV	1.695	n/a	<>	-999	22	[0, 0, 0]	n/a	FR1	0	R1049J
2468.887	1.277	2754499	REC_WORD_VV	1.277	n/a	<>	-999	22	[0, 0, 0]	n/a	FR1	0	R1049J
2470.164	1.161	2755776	REC_WORD_VV	1.161	n/a	<>	-999	22	[0, 0, 0]	n/a	FR1	0	R1049J
2471.325	6.036	2756937	REC_WORD_VV	6.036	n/a	<>	-999	22	[0, 0, 0]	n/a	FR1	0	R1049J
2477.361	1.131	2762973	REC_WORD_VV	1.131	n/a	<>	-999	22	[0, 0, 0]	n/a	FR1	0	R1049J
2478.492	20.488	2764104	REC_END	n/a	n/a	n/a	-999	22	[0, 0, 0]	n/a	FR1	0	R1049J
2498.98	0.0	2784591	TRIAL	n/a	n/a	n/a	-999	23	[0, 0, 0]	n/a	FR1	0	R1049J
2498.98	10.428	2784591	COUNTDOWN_START	n/a	n/a	n/a	-999	23	[0, 0, 0]	n/a	FR1	0	R1049J
2509.408	0.007	2795018	COUNTDOWN_END	n/a	n/a	n/a	-999	23	[0, 0, 0]	n/a	FR1	0	R1049J
2509.415	2.487	2795025	ORIENT	n/a	n/a	n/a	-999	23	[0, 0, 0]	n/a	FR1	0	R1049J
2511.902	2.522	2797512	WORD	n/a	wordpools/wordpool_EN.txt	ROAD	1	23	[0, 0, 0]	n/a	FR1	0	R1049J
2514.424	2.57	2800034	WORD	n/a	wordpools/wordpool_EN.txt	ROOF	2	23	[0, 0, 0]	n/a	FR1	0	R1049J
2516.994	2.504	2802604	WORD	n/a	wordpools/wordpool_EN.txt	PARK	3	23	[0, 0, 0]	n/a	FR1	0	R1049J
2519.498	2.454	2805108	WORD	n/a	wordpools/wordpool_EN.txt	KITE	4	23	[0, 0, 0]	n/a	FR1	0	R1049J
2521.952	2.621	2807562	WORD	n/a	wordpools/wordpool_EN.txt	BOX	5	23	[0, 0, 0]	n/a	FR1	0	R1049J
2524.573	2.521	2810183	WORD	n/a	wordpools/wordpool_EN.txt	FOG	6	23	[0, 0, 0]	n/a	FR1	0	R1049J
2527.094	2.504	2812704	WORD	n/a	wordpools/wordpool_EN.txt	SMILE	7	23	[0, 0, 0]	n/a	FR1	0	R1049J
2529.598	2.421	2815208	WORD	n/a	wordpools/wordpool_EN.txt	VAN	8	23	[0, 0, 0]	n/a	FR1	0	R1049J
2532.019	2.488	2817629	WORD	n/a	wordpools/wordpool_EN.txt	CAR	9	23	[0, 0, 0]	n/a	FR1	0	R1049J
2534.507	2.388	2820117	WORD	n/a	wordpools/wordpool_EN.txt	RUG	10	23	[0, 0, 0]	n/a	FR1	0	R1049J
2536.895	2.571	2822504	WORD	n/a	wordpools/wordpool_EN.txt	CLOWN	11	23	[0, 0, 0]	n/a	FR1	0	R1049J
2539.466	1.618	2825075	WORD	n/a	wordpools/wordpool_EN.txt	LAMP	12	23	[0, 0, 0]	n/a	FR1	0	R1049J
2541.084	0.001	2826693	DISTRACT_START	n/a	n/a	n/a	-999	23	[0, 0, 0]	n/a	FR1	0	R1049J
2541.085	0.016	2826694	START	n/a	n/a	n/a	-999	23	[-999, -999, -999]	n/a	FR1	0	R1049J
2541.101	5.058	2826710	PROB	5.058	n/a	n/a	-999	23	[4, 6, 5]	15	FR1	0	R1049J
2546.159	4.175	2831768	PROB	4.175	n/a	n/a	-999	23	[1, 5, 7]	11	FR1	0	R1049J
2550.334	5.191	2835943	PROB	5.191	n/a	n/a	-999	23	[8, 4, 7]	19	FR1	0	R1049J
2555.525	3.724	2841134	PROB	3.724	n/a	n/a	-999	23	[8, 4, 4]	14	FR1	0	R1049J
2559.249	3.195	2844858	PROB	3.195	n/a	n/a	-999	23	[5, 3, 3]	11	FR1	0	R1049J
2562.444	0.011	2848053	STOP	n/a	n/a	n/a	-999	23	[-999, -999, -999]	n/a	FR1	0	R1049J
2562.455	1.184	2848064	DISTRACT_END	n/a	n/a	n/a	-999	23	[0, 0, 0]	n/a	FR1	0	R1049J
2563.639	2.542	2849247	REC_START	n/a	n/a	n/a	-999	23	[0, 0, 0]	n/a	FR1	0	R1049J
2566.181	0.956	2851789	REC_WORD	0.956	n/a	CAR	9	23	[0, 0, 0]	n/a	FR1	0	R1049J
2567.137	2.545	2852745	REC_WORD	2.545	n/a	RAMP	-999	23	[0, 0, 0]	n/a	FR1	0	R1049J
2569.682	0.927	2855290	REC_WORD_VV	0.927	n/a	<>	-999	23	[0, 0, 0]	n/a	FR1	0	R1049J
2570.609	5.814	2856217	REC_WORD	5.814	n/a	LAMP	12	23	[0, 0, 0]	n/a	FR1	0	R1049J
2576.423	17.23	2862031	REC_WORD_VV	17.23	n/a	<>	-999	23	[0, 0, 0]	n/a	FR1	0	R1049J
2593.653	1.74	2879260	REC_END	n/a	n/a	n/a	-999	23	[0, 0, 0]	n/a	FR1	0	R1049J
2595.393	0.001	2881000	COUNTDOWN_START	n/a	n/a	n/a	-999	24	[0, 0, 0]	n/a	FR1	0	R1049J
2595.394	10.427	2881001	TRIAL	n/a	n/a	n/a	-999	24	[0, 0, 0]	n/a	FR1	0	R1049J
2605.821	0.005	2891428	COUNTDOWN_END	n/a	n/a	n/a	-999	24	[0, 0, 0]	n/a	FR1	0	R1049J
2605.826	2.572	2891433	ORIENT	n/a	n/a	n/a	-999	24	[0, 0, 0]	n/a	FR1	0	R1049J
2608.398	2.537	2894005	WORD	n/a	wordpools/wordpool_EN.txt	BRIDGE	1	24	[0, 0, 0]	n/a	FR1	0	R1049J
2610.935	2.422	2896542	WORD	n/a	wordpools/wordpool_EN.txt	CAGE	2	24	[0, 0, 0]	n/a	FR1	0	R1049J
2613.357	2.603	2898964	WORD	n/a	wordpools/wordpool_EN.txt	BOOT	3	24	[0, 0, 0]	n/a	FR1	0	R1049J
2615.96	2.555	2901567	WORD	n/a	wordpools/wordpool_EN.txt	GEESE	4	24	[0, 0, 0]	n/a	FR1	0	R1049J
2618.515	2.637	2904121	WORD	n/a	wordpools/wordpool_EN.txt	SKUNK	5	24	[0, 0, 0]	n/a	FR1	0	R1049J
2621.152	2.505	2906758	WORD	n/a	wordpools/wordpool_EN.txt	CLOCK	6	24	[0, 0, 0]	n/a	FR1	0	R1049J
2623.657	2.387	2909263	WORD	n/a	wordpools/wordpool_EN.txt	ICE	7	24	[0, 0, 0]	n/a	FR1	0	R1049J
2626.044	2.422	2911650	WORD	n/a	wordpools/wordpool_EN.txt	LAND	8	24	[0, 0, 0]	n/a	FR1	0	R1049J
2628.466	2.536	2914072	WORD	n/a	wordpools/wordpool_EN.txt	FARM	9	24	[0, 0, 0]	n/a	FR1	0	R1049J
2631.002	2.539	2916608	WORD	n/a	wordpools/wordpool_EN.txt	MAP	10	24	[0, 0, 0]	n/a	FR1	0	R1049J
2633.541	2.57	2919147	WORD	n/a	wordpools/wordpool_EN.txt	ARK	11	24	[0, 0, 0]	n/a	FR1	0	R1049J
2636.111	1.619	2921717	WORD	n/a	wordpools/wordpool_EN.txt	SKY	12	24	[0, 0, 0]	n/a	FR1	0	R1049J
2637.73	0.001	2923336	DISTRACT_START	n/a	n/a	n/a	-999	24	[0, 0, 0]	n/a	FR1	0	R1049J
2637.731	0.016	2923337	START	n/a	n/a	n/a	-999	24	[-999, -999, -999]	n/a	FR1	0	R1049J
2637.747	5.359	2923353	PROB	5.359	n/a	n/a	-999	24	[7, 9, 7]	23	FR1	0	R1049J
2643.106	6.328	2928712	PROB	6.328	n/a	n/a	-999	24	[5, 5, 9]	19	FR1	0	R1049J
2649.434	4.875	2935039	PROB	4.875	n/a	n/a	-999	24	[9, 5, 4]	18	FR1	0	R1049J
2654.309	4.032	2939914	PROB	4.032	n/a	n/a	-999	24	[8, 5, 9]	21	FR1	0	R1049J
2658.341	0.008	2943946	STOP	n/a	n/a	n/a	-999	24	[-999, -999, -999]	n/a	FR1	0	R1049J
2658.349	1.168	2943954	DISTRACT_END	n/a	n/a	n/a	-999	24	[0, 0, 0]	n/a	FR1	0	R1049J
2659.517	4.608	2945122	REC_START	n/a	n/a	n/a	-999	24	[0, 0, 0]	n/a	FR1	0	R1049J
2664.125	4.158	2949730	REC_WORD	4.158	n/a	ARM	-999	24	[0, 0, 0]	n/a	FR1	0	R1049J
2668.283	21.255	2953888	REC_WORD	21.255	n/a	MARK	-999	24	[0, 0, 0]	n/a	FR1	0	R1049J
2689.538	1.817	2975142	REC_END	n/a	n/a	n/a	-999	24	[0, 0, 0]	n/a	FR1	0	R1049J
2691.355	0.0	2976959	TRIAL	n/a	n/a	n/a	-999	25	[0, 0, 0]	n/a	FR1	0	R1049J
2691.355	10.428	2976959	COUNTDOWN_START	n/a	n/a	n/a	-999	25	[0, 0, 0]	n/a	FR1	0	R1049J
2701.783	0.005	2987386	COUNTDOWN_END	n/a	n/a	n/a	-999	25	[0, 0, 0]	n/a	FR1	0	R1049J
2701.788	2.606	2987391	ORIENT	n/a	n/a	n/a	-999	25	[0, 0, 0]	n/a	FR1	0	R1049J
2704.394	2.486	2989997	WORD	n/a	wordpools/wordpool_EN.txt	JAR	1	25	[0, 0, 0]	n/a	FR1	0	R1049J
2706.88	2.388	2992483	WORD	n/a	wordpools/wordpool_EN.txt	STRAW	2	25	[0, 0, 0]	n/a	FR1	0	R1049J
2709.268	2.62	2994871	WORD	n/a	wordpools/wordpool_EN.txt	CHIN	3	25	[0, 0, 0]	n/a	FR1	0	R1049J
2711.888	2.54	2997491	WORD	n/a	wordpools/wordpool_EN.txt	BEAK	4	25	[0, 0, 0]	n/a	FR1	0	R1049J
2714.428	2.419	3000031	WORD	n/a	wordpools/wordpool_EN.txt	FACE	5	25	[0, 0, 0]	n/a	FR1	0	R1049J
2716.847	2.472	3002450	WORD	n/a	wordpools/wordpool_EN.txt	DOLL	6	25	[0, 0, 0]	n/a	FR1	0	R1049J
2719.319	2.519	3004922	WORD	n/a	wordpools/wordpool_EN.txt	YARD	7	25	[0, 0, 0]	n/a	FR1	0	R1049J
2721.838	2.422	3007441	WORD	n/a	wordpools/wordpool_EN.txt	CHEEK	8	25	[0, 0, 0]	n/a	FR1	0	R1049J
2724.26	2.62	3009863	WORD	n/a	wordpools/wordpool_EN.txt	TEA	9	25	[0, 0, 0]	n/a	FR1	0	R1049J
2726.88	2.439	3012483	WORD	n/a	wordpools/wordpool_EN.txt	SINK	10	25	[0, 0, 0]	n/a	FR1	0	R1049J
2729.319	2.453	3014922	WORD	n/a	wordpools/wordpool_EN.txt	CHAIR	11	25	[0, 0, 0]	n/a	FR1	0	R1049J
2731.772	1.62	3017374	WORD	n/a	wordpools/wordpool_EN.txt	BAG	12	25	[0, 0, 0]	n/a	FR1	0	R1049J
2733.392	0.001	3018994	DISTRACT_START	n/a	n/a	n/a	-999	25	[0, 0, 0]	n/a	FR1	0	R1049J
2733.393	0.016	3018995	START	n/a	n/a	n/a	-999	25	[-999, -999, -999]	n/a	FR1	0	R1049J
2733.409	2.838	3019011	PROB	2.838	n/a	n/a	-999	25	[1, 1, 1]	3	FR1	0	R1049J
2736.247	4.107	3021849	PROB	4.107	n/a	n/a	-999	25	[8, 3, 6]	17	FR1	0	R1049J
2740.354	3.705	3025956	PROB	3.705	n/a	n/a	-999	25	[6, 8, 1]	15	FR1	0	R1049J
2744.059	5.76	3029661	PROB	5.76	n/a	n/a	-999	25	[5, 5, 7]	17	FR1	0	R1049J
2749.819	9.113	3035421	PROB	9.113	n/a	n/a	-999	25	[4, 4, 8]	16	FR1	0	R1049J
2758.932	0.019	3044533	STOP	n/a	n/a	n/a	-999	25	[-999, -999, -999]	n/a	FR1	0	R1049J
2758.951	1.186	3044552	DISTRACT_END	n/a	n/a	n/a	-999	25	[0, 0, 0]	n/a	FR1	0	R1049J
2760.137	21.178	3045738	REC_START	n/a	n/a	n/a	-999	25	[0, 0, 0]	n/a	FR1	0	R1049J
2781.315	1.023	3066916	REC_WORD	1.023	n/a	YARD	7	25	[0, 0, 0]	n/a	FR1	0	R1049J
2782.338	7.812	3067939	REC_WORD	7.812	n/a	CYCLE	-999	25	[0, 0, 0]	n/a	FR1	0	R1049J
2790.15	2.625	3075750	REC_END	n/a	n/a	n/a	-999	25	[0, 0, 0]	n/a	FR1	0	R1049J
2792.775	0.0	3078375	SESS_END	n/a	n/a	n/a	-999	25	[0, 0, 0]	n/a	FR1	0	R1049J
