onset	duration	sample	trial_type	response_time	stim_file	item_name	serialpos	list	test	answer	experiment	session	subject
0.0	1.264	2939	INSTRUCT_START	n/a	n/a	n/a	-999	-999	[0, 0, 0]	n/a	FR1	1	R1405E
1.264	76.147	4204	INSTRUCT_END	n/a	n/a	n/a	-999	-999	[0, 0, 0]	n/a	FR1	1	R1405E
77.411	10.4	80351	COUNTDOWN_START	n/a	n/a	n/a	-999	-999	[0, 0, 0]	n/a	FR1	1	R1405E
87.811	0.0	90754	COUNTDOWN_END	n/a	n/a	n/a	-999	-999	[0, 0, 0]	n/a	FR1	1	R1405E
87.811	2.0	90754	ENCODING_START	n/a	n/a	n/a	-999	-1	[0, 0, 0]	n/a	FR1	1	R1405E
89.811	1.617	92747	WORD	n/a	n/a	TRAY	1	-1	[0, 0, 0]	n/a	FR1	1	R1405E
91.428	0.916	94367	WORD_OFF	n/a	n/a	TRAY	1	-1	[0, 0, 0]	n/a	FR1	1	R1405E
92.344	1.617	95286	WORD	n/a	n/a	CRIB	2	-1	[0, 0, 0]	n/a	FR1	1	R1405E
93.961	0.899	96897	WORD_OFF	n/a	n/a	CRIB	2	-1	[0, 0, 0]	n/a	FR1	1	R1405E
94.86	1.6	97798	WORD	n/a	n/a	MOOSE	3	-1	[0, 0, 0]	n/a	FR1	1	R1405E
96.46	0.917	99400	WORD_OFF	n/a	n/a	MOOSE	3	-1	[0, 0, 0]	n/a	FR1	1	R1405E
97.377	1.6	100319	WORD	n/a	n/a	FOAM	4	-1	[0, 0, 0]	n/a	FR1	1	R1405E
98.977	0.8	101921	WORD_OFF	n/a	n/a	FOAM	4	-1	[0, 0, 0]	n/a	FR1	1	R1405E
99.777	1.616	102712	WORD	n/a	n/a	SNAIL	5	-1	[0, 0, 0]	n/a	FR1	1	R1405E
101.393	1.0	104332	WORD_OFF	n/a	n/a	SNAIL	5	-1	[0, 0, 0]	n/a	FR1	1	R1405E
102.393	1.617	105333	WORD	n/a	n/a	NET	6	-1	[0, 0, 0]	n/a	FR1	1	R1405E
104.01	0.8	106953	WORD_OFF	n/a	n/a	NET	6	-1	[0, 0, 0]	n/a	FR1	1	R1405E
104.81	1.617	107754	WORD	n/a	n/a	CHIN	7	-1	[0, 0, 0]	n/a	FR1	1	R1405E
106.427	0.766	109365	WORD_OFF	n/a	n/a	CHIN	7	-1	[0, 0, 0]	n/a	FR1	1	R1405E
107.193	1.601	110130	WORD	n/a	n/a	BAR	8	-1	[0, 0, 0]	n/a	FR1	1	R1405E
108.794	0.766	111731	WORD_OFF	n/a	n/a	BAR	8	-1	[0, 0, 0]	n/a	FR1	1	R1405E
109.56	1.617	112496	WORD	n/a	n/a	TOOL	9	-1	[0, 0, 0]	n/a	FR1	1	R1405E
111.177	0.966	114116	WORD_OFF	n/a	n/a	TOOL	9	-1	[0, 0, 0]	n/a	FR1	1	R1405E
112.143	1.6	115081	WORD	n/a	n/a	TOAST	10	-1	[0, 0, 0]	n/a	FR1	1	R1405E
113.743	0.867	116682	WORD_OFF	n/a	n/a	TOAST	10	-1	[0, 0, 0]	n/a	FR1	1	R1405E
114.61	1.617	117547	WORD	n/a	n/a	FAN	11	-1	[0, 0, 0]	n/a	FR1	1	R1405E
116.227	0.915	119167	WORD_OFF	n/a	n/a	FAN	11	-1	[0, 0, 0]	n/a	FR1	1	R1405E
117.142	1.601	120086	WORD	n/a	n/a	THIEF	12	-1	[0, 0, 0]	n/a	FR1	1	R1405E
118.743	0.001	121679	WORD_OFF	n/a	n/a	THIEF	12	-1	[0, 0, 0]	n/a	FR1	1	R1405E
118.744	0.001	121683	PROB	0.001	n/a	n/a	-999	-1	[8, 4, 7]	19	FR1	1	R1405E
118.745	0.0	121684	START	n/a	n/a	n/a	-999	-1	[-999, -999, -999]	n/a	FR1	1	R1405E
118.744	0.001	121688	ENCODING_END	n/a	n/a	n/a	-999	-1	[0, 0, 0]	n/a	FR1	1	R1405E
118.745	4.615	121688	DISTRACT_START	n/a	n/a	n/a	-999	-1	[0, 0, 0]	n/a	FR1	1	R1405E
123.36	2.767	126299	PROB	2.767	n/a	n/a	-999	-1	[4, 4, 3]	11	FR1	1	R1405E
126.127	1.95	129066	PROB	1.95	n/a	n/a	-999	-1	[1, 3, 3]	7	FR1	1	R1405E
128.077	3.082	131016	PROB	3.082	n/a	n/a	-999	-1	[3, 4, 8]	15	FR1	1	R1405E
131.159	2.334	134098	PROB	2.334	n/a	n/a	-999	-1	[4, 1, 1]	6	FR1	1	R1405E
133.493	2.5	136432	PROB	2.5	n/a	n/a	-999	-1	[2, 6, 3]	11	FR1	1	R1405E
135.993	2.583	138932	PROB	2.583	n/a	n/a	-999	-1	[5, 3, 5]	13	FR1	1	R1405E
138.576	3.25	141515	PROB	3.25	n/a	n/a	-999	-1	[5, 3, 2]	10	FR1	1	R1405E
141.826	0.0	144765	STOP	n/a	n/a	n/a	-999	-1	[-999, -999, -999]	n/a	FR1	1	R1405E
141.826	2.3	144768	DISTRACT_END	n/a	n/a	n/a	-999	-1	[0, 0, 0]	n/a	FR1	1	R1405E
144.126	1.057	147069	REC_START	n/a	n/a	n/a	-999	-1	[0, 0, 0]	n/a	FR1	1	R1405E
145.183	0.797	148122	REC_WORD	0.797	n/a	TRAY	1	-1	[0, 0, 0]	n/a	FR1	1	R1405E
145.98	1.729	148919	REC_WORD	1.729	n/a	TRIP	-999	-1	[0, 0, 0]	n/a	FR1	1	R1405E
147.709	1.914	150648	REC_WORD	1.914	n/a	MOOSE	3	-1	[0, 0, 0]	n/a	FR1	1	R1405E
149.623	3.103	152562	REC_WORD	3.103	n/a	MOUSE	-999	-1	[0, 0, 0]	n/a	FR1	1	R1405E
152.726	21.649	155665	REC_WORD	21.649	n/a	NET	6	-1	[0, 0, 0]	n/a	FR1	1	R1405E
174.375	11.366	177313	REC_END	n/a	n/a	n/a	-999	-1	[0, 0, 0]	n/a	FR1	1	R1405E
185.741	10.349	188680	COUNTDOWN_START	n/a	n/a	n/a	-999	1	[0, 0, 0]	n/a	FR1	1	R1405E
196.09	0.0	199027	COUNTDOWN_END	n/a	n/a	n/a	-999	1	[0, 0, 0]	n/a	FR1	1	R1405E
196.09	2.15	199036	ENCODING_START	n/a	n/a	n/a	-999	1	[0, 0, 0]	n/a	FR1	1	R1405E
198.24	1.601	201175	WORD	n/a	wordpools/wordpool_long_EN.txt	PORK	1	1	[0, 0, 0]	n/a	FR1	1	R1405E
199.841	0.799	202777	WORD_OFF	n/a	n/a	PORK	1	1	[0, 0, 0]	n/a	FR1	1	R1405E
200.64	1.616	203578	WORD	n/a	wordpools/wordpool_long_EN.txt	CLOCK	2	1	[0, 0, 0]	n/a	FR1	1	R1405E
202.256	0.768	205198	WORD_OFF	n/a	n/a	CLOCK	2	1	[0, 0, 0]	n/a	FR1	1	R1405E
203.024	1.616	205962	WORD	n/a	wordpools/wordpool_long_EN.txt	FLEA	3	1	[0, 0, 0]	n/a	FR1	1	R1405E
204.64	0.917	207582	WORD_OFF	n/a	n/a	FLEA	3	1	[0, 0, 0]	n/a	FR1	1	R1405E
205.557	1.6	208492	WORD	n/a	wordpools/wordpool_long_EN.txt	BOARD	4	1	[0, 0, 0]	n/a	FR1	1	R1405E
207.157	0.933	210094	WORD_OFF	n/a	n/a	BOARD	4	1	[0, 0, 0]	n/a	FR1	1	R1405E
208.09	1.6	211031	WORD	n/a	wordpools/wordpool_long_EN.txt	CHURCH	5	1	[0, 0, 0]	n/a	FR1	1	R1405E
209.69	0.867	212633	WORD_OFF	n/a	n/a	CHURCH	5	1	[0, 0, 0]	n/a	FR1	1	R1405E
210.557	1.616	213498	WORD	n/a	wordpools/wordpool_long_EN.txt	CHILD	6	1	[0, 0, 0]	n/a	FR1	1	R1405E
212.173	0.85	215118	WORD_OFF	n/a	n/a	CHILD	6	1	[0, 0, 0]	n/a	FR1	1	R1405E
213.023	1.6	215964	WORD	n/a	wordpools/wordpool_long_EN.txt	SOAP	7	1	[0, 0, 0]	n/a	FR1	1	R1405E
214.623	0.917	217566	WORD_OFF	n/a	n/a	SOAP	7	1	[0, 0, 0]	n/a	FR1	1	R1405E
215.54	1.616	218476	WORD	n/a	wordpools/wordpool_long_EN.txt	BOOT	8	1	[0, 0, 0]	n/a	FR1	1	R1405E
217.156	0.884	220096	WORD_OFF	n/a	n/a	BOOT	8	1	[0, 0, 0]	n/a	FR1	1	R1405E
218.04	1.6	220979	WORD	n/a	wordpools/wordpool_long_EN.txt	WORLD	9	1	[0, 0, 0]	n/a	FR1	1	R1405E
219.64	0.966	222581	WORD_OFF	n/a	n/a	WORLD	9	1	[0, 0, 0]	n/a	FR1	1	R1405E
220.606	1.6	223545	WORD	n/a	wordpools/wordpool_long_EN.txt	SEED	10	1	[0, 0, 0]	n/a	FR1	1	R1405E
222.206	0.9	225147	WORD_OFF	n/a	n/a	SEED	10	1	[0, 0, 0]	n/a	FR1	1	R1405E
223.106	1.617	226048	WORD	n/a	wordpools/wordpool_long_EN.txt	RAIL	11	1	[0, 0, 0]	n/a	FR1	1	R1405E
224.723	0.983	227659	WORD_OFF	n/a	n/a	RAIL	11	1	[0, 0, 0]	n/a	FR1	1	R1405E
225.706	1.617	228644	WORD	n/a	wordpools/wordpool_long_EN.txt	PEARL	12	1	[0, 0, 0]	n/a	FR1	1	R1405E
227.323	0.001	230262	WORD_OFF	n/a	n/a	PEARL	12	1	[0, 0, 0]	n/a	FR1	1	R1405E
227.324	0.0	230262	ENCODING_END	n/a	n/a	n/a	-999	1	[0, 0, 0]	n/a	FR1	1	R1405E
227.324	0.0	230263	START	n/a	n/a	n/a	-999	1	[-999, -999, -999]	n/a	FR1	1	R1405E
227.324	0.0	230263	PROB	0.0	n/a	n/a	-999	1	[1, 3, 4]	8	FR1	1	R1405E
227.324	2.716	230271	DISTRACT_START	n/a	n/a	n/a	-999	1	[0, 0, 0]	n/a	FR1	1	R1405E
230.04	2.25	232979	PROB	2.25	n/a	n/a	-999	1	[3, 8, 2]	13	FR1	1	R1405E
232.29	3.483	235229	PROB	3.483	n/a	n/a	-999	1	[4, 1, 8]	13	FR1	1	R1405E
235.773	6.049	238712	PROB	6.049	n/a	n/a	-999	1	[3, 4, 6]	13	FR1	1	R1405E
241.822	2.401	244761	PROB	2.401	n/a	n/a	-999	1	[1, 8, 3]	12	FR1	1	R1405E
244.223	4.899	247162	PROB	4.899	n/a	n/a	-999	1	[6, 8, 5]	19	FR1	1	R1405E
249.122	0.0	252058	DISTRACT_END	n/a	n/a	n/a	-999	1	[0, 0, 0]	n/a	FR1	1	R1405E
249.122	2.183	252061	STOP	n/a	n/a	n/a	-999	1	[-999, -999, -999]	n/a	FR1	1	R1405E
251.305	1.634	254241	REC_START	n/a	n/a	n/a	-999	1	[0, 0, 0]	n/a	FR1	1	R1405E
252.939	0.7	255878	REC_WORD	0.7	n/a	CHURCH	5	1	[0, 0, 0]	n/a	FR1	1	R1405E
253.639	0.836	256578	REC_WORD	0.836	n/a	WORLD	9	1	[0, 0, 0]	n/a	FR1	1	R1405E
254.475	13.145	257414	REC_WORD	13.145	n/a	CHILD	6	1	[0, 0, 0]	n/a	FR1	1	R1405E
267.62	13.945	270559	REC_WORD	13.945	n/a	PEARL	12	1	[0, 0, 0]	n/a	FR1	1	R1405E
281.565	2.774	284503	REC_END	n/a	n/a	n/a	-999	1	[0, 0, 0]	n/a	FR1	1	R1405E
284.339	10.348	287279	COUNTDOWN_START	n/a	n/a	n/a	-999	2	[0, 0, 0]	n/a	FR1	1	R1405E
294.687	0.0	297627	COUNTDOWN_END	n/a	n/a	n/a	-999	2	[0, 0, 0]	n/a	FR1	1	R1405E
294.687	1.95	297627	ENCODING_START	n/a	n/a	n/a	-999	2	[0, 0, 0]	n/a	FR1	1	R1405E
296.637	1.616	299574	WORD	n/a	wordpools/wordpool_long_EN.txt	PLATE	1	2	[0, 0, 0]	n/a	FR1	1	R1405E
298.253	0.917	301194	WORD_OFF	n/a	n/a	PLATE	1	2	[0, 0, 0]	n/a	FR1	1	R1405E
299.17	1.6	302113	WORD	n/a	wordpools/wordpool_long_EN.txt	PAIL	2	2	[0, 0, 0]	n/a	FR1	1	R1405E
300.77	0.934	303706	WORD_OFF	n/a	n/a	PAIL	2	2	[0, 0, 0]	n/a	FR1	1	R1405E
301.704	1.6	304643	WORD	n/a	wordpools/wordpool_long_EN.txt	WIFE	3	2	[0, 0, 0]	n/a	FR1	1	R1405E
303.304	0.833	306245	WORD_OFF	n/a	n/a	WIFE	3	2	[0, 0, 0]	n/a	FR1	1	R1405E
304.137	1.617	307073	WORD	n/a	wordpools/wordpool_long_EN.txt	CROSS	4	2	[0, 0, 0]	n/a	FR1	1	R1405E
305.754	0.899	308693	WORD_OFF	n/a	n/a	CROSS	4	2	[0, 0, 0]	n/a	FR1	1	R1405E
306.653	1.601	309594	WORD	n/a	wordpools/wordpool_long_EN.txt	BRIDGE	5	2	[0, 0, 0]	n/a	FR1	1	R1405E
308.254	0.833	311196	WORD_OFF	n/a	n/a	BRIDGE	5	2	[0, 0, 0]	n/a	FR1	1	R1405E
309.087	1.616	312024	WORD	n/a	wordpools/wordpool_long_EN.txt	COD	6	2	[0, 0, 0]	n/a	FR1	1	R1405E
310.703	0.8	313644	WORD_OFF	n/a	n/a	COD	6	2	[0, 0, 0]	n/a	FR1	1	R1405E
311.503	1.6	314445	WORD	n/a	wordpools/wordpool_long_EN.txt	HOLE	7	2	[0, 0, 0]	n/a	FR1	1	R1405E
313.103	0.884	316047	WORD_OFF	n/a	n/a	HOLE	7	2	[0, 0, 0]	n/a	FR1	1	R1405E
313.987	1.616	316930	WORD	n/a	wordpools/wordpool_long_EN.txt	WAND	8	2	[0, 0, 0]	n/a	FR1	1	R1405E
315.603	0.85	318541	WORD_OFF	n/a	n/a	WAND	8	2	[0, 0, 0]	n/a	FR1	1	R1405E
316.453	1.616	319396	WORD	n/a	wordpools/wordpool_long_EN.txt	WASP	9	2	[0, 0, 0]	n/a	FR1	1	R1405E
318.069	1.001	321007	WORD_OFF	n/a	n/a	WASP	9	2	[0, 0, 0]	n/a	FR1	1	R1405E
319.07	1.616	322008	WORD	n/a	wordpools/wordpool_long_EN.txt	SPACE	10	2	[0, 0, 0]	n/a	FR1	1	R1405E
320.686	0.967	323628	WORD_OFF	n/a	n/a	SPACE	10	2	[0, 0, 0]	n/a	FR1	1	R1405E
321.653	1.616	324593	WORD	n/a	wordpools/wordpool_long_EN.txt	THUMB	11	2	[0, 0, 0]	n/a	FR1	1	R1405E
323.269	0.801	326213	WORD_OFF	n/a	n/a	THUMB	11	2	[0, 0, 0]	n/a	FR1	1	R1405E
324.07	1.616	327013	WORD	n/a	wordpools/wordpool_long_EN.txt	GUARD	12	2	[0, 0, 0]	n/a	FR1	1	R1405E
325.686	0.0	328624	WORD_OFF	n/a	n/a	GUARD	12	2	[0, 0, 0]	n/a	FR1	1	R1405E
325.686	0.001	328625	PROB	0.001	n/a	n/a	-999	2	[6, 7, 2]	15	FR1	1	R1405E
325.687	0.0	328626	START	n/a	n/a	n/a	-999	2	[-999, -999, -999]	n/a	FR1	1	R1405E
325.687	0.0	328633	ENCODING_END	n/a	n/a	n/a	-999	2	[0, 0, 0]	n/a	FR1	1	R1405E
325.687	2.765	328633	DISTRACT_START	n/a	n/a	n/a	-999	2	[0, 0, 0]	n/a	FR1	1	R1405E
328.452	3.651	331391	PROB	3.651	n/a	n/a	-999	2	[3, 6, 2]	11	FR1	1	R1405E
332.103	4.084	335042	PROB	4.084	n/a	n/a	-999	2	[6, 6, 8]	20	FR1	1	R1405E
336.187	3.515	339126	PROB	3.515	n/a	n/a	-999	2	[8, 6, 7]	21	FR1	1	R1405E
339.702	2.067	342641	PROB	2.067	n/a	n/a	-999	2	[4, 2, 8]	14	FR1	1	R1405E
341.769	2.434	344708	PROB	2.434	n/a	n/a	-999	2	[8, 7, 2]	17	FR1	1	R1405E
344.203	6.299	347142	PROB	6.299	n/a	n/a	-999	2	[7, 4, 6]	18	FR1	1	R1405E
350.502	0.0	353441	STOP	n/a	n/a	n/a	-999	2	[-999, -999, -999]	n/a	FR1	1	R1405E
350.502	2.066	353443	DISTRACT_END	n/a	n/a	n/a	-999	2	[0, 0, 0]	n/a	FR1	1	R1405E
352.568	1.331	355507	REC_START	n/a	n/a	n/a	-999	2	[0, 0, 0]	n/a	FR1	1	R1405E
353.899	2.728	356838	REC_WORD	2.728	n/a	WIFE	3	2	[0, 0, 0]	n/a	FR1	1	R1405E
356.627	1.059	359566	REC_WORD	1.059	n/a	WORLD	-999	2	[0, 0, 0]	n/a	FR1	1	R1405E
357.686	5.465	360625	REC_WORD	5.465	n/a	WAND	8	2	[0, 0, 0]	n/a	FR1	1	R1405E
363.151	11.898	366090	REC_WORD	11.898	n/a	SHIP	-999	2	[0, 0, 0]	n/a	FR1	1	R1405E
375.049	7.026	377988	REC_WORD	7.026	n/a	RAKE	-999	2	[0, 0, 0]	n/a	FR1	1	R1405E
382.075	0.734	385014	REC_WORD	0.734	n/a	WAND	8	2	[0, 0, 0]	n/a	FR1	1	R1405E
382.809	3.109	385751	REC_END	n/a	n/a	n/a	-999	2	[0, 0, 0]	n/a	FR1	1	R1405E
385.918	10.35	388863	COUNTDOWN_START	n/a	n/a	n/a	-999	3	[0, 0, 0]	n/a	FR1	1	R1405E
396.268	0.0	399211	COUNTDOWN_END	n/a	n/a	n/a	-999	3	[0, 0, 0]	n/a	FR1	1	R1405E
396.268	1.934	399211	ENCODING_START	n/a	n/a	n/a	-999	3	[0, 0, 0]	n/a	FR1	1	R1405E
398.202	1.615	401140	WORD	n/a	wordpools/wordpool_long_EN.txt	STAKE	1	3	[0, 0, 0]	n/a	FR1	1	R1405E
399.817	0.933	402760	WORD_OFF	n/a	n/a	STAKE	1	3	[0, 0, 0]	n/a	FR1	1	R1405E
400.75	1.6	403689	WORD	n/a	wordpools/wordpool_long_EN.txt	CUBE	2	3	[0, 0, 0]	n/a	FR1	1	R1405E
402.35	0.933	405290	WORD_OFF	n/a	n/a	CUBE	2	3	[0, 0, 0]	n/a	FR1	1	R1405E
403.283	1.617	406228	WORD	n/a	wordpools/wordpool_long_EN.txt	ROCK	3	3	[0, 0, 0]	n/a	FR1	1	R1405E
404.9	0.933	407839	WORD_OFF	n/a	n/a	ROCK	3	3	[0, 0, 0]	n/a	FR1	1	R1405E
405.833	1.6	408776	WORD	n/a	wordpools/wordpool_long_EN.txt	DOCK	4	3	[0, 0, 0]	n/a	FR1	1	R1405E
407.433	0.85	410378	WORD_OFF	n/a	n/a	DOCK	4	3	[0, 0, 0]	n/a	FR1	1	R1405E
408.283	1.6	411224	WORD	n/a	wordpools/wordpool_long_EN.txt	ROPE	5	3	[0, 0, 0]	n/a	FR1	1	R1405E
409.883	0.816	412826	WORD_OFF	n/a	n/a	ROPE	5	3	[0, 0, 0]	n/a	FR1	1	R1405E
410.699	1.601	413636	WORD	n/a	wordpools/wordpool_long_EN.txt	PASTE	6	3	[0, 0, 0]	n/a	FR1	1	R1405E
412.3	0.933	415238	WORD_OFF	n/a	n/a	PASTE	6	3	[0, 0, 0]	n/a	FR1	1	R1405E
413.233	1.617	416175	WORD	n/a	wordpools/wordpool_long_EN.txt	OAR	7	3	[0, 0, 0]	n/a	FR1	1	R1405E
414.85	0.95	417786	WORD_OFF	n/a	n/a	OAR	7	3	[0, 0, 0]	n/a	FR1	1	R1405E
415.8	1.616	418742	WORD	n/a	wordpools/wordpool_long_EN.txt	YARN	8	3	[0, 0, 0]	n/a	FR1	1	R1405E
417.416	0.984	420352	WORD_OFF	n/a	n/a	YARN	8	3	[0, 0, 0]	n/a	FR1	1	R1405E
418.4	1.616	421344	WORD	n/a	wordpools/wordpool_long_EN.txt	STREET	9	3	[0, 0, 0]	n/a	FR1	1	R1405E
420.016	0.767	422955	WORD_OFF	n/a	n/a	STREET	9	3	[0, 0, 0]	n/a	FR1	1	R1405E
420.783	1.616	423720	WORD	n/a	wordpools/wordpool_long_EN.txt	BATH	10	3	[0, 0, 0]	n/a	FR1	1	R1405E
422.399	0.819	425340	WORD_OFF	n/a	n/a	BATH	10	3	[0, 0, 0]	n/a	FR1	1	R1405E
423.218	1.598	426159	WORD	n/a	wordpools/wordpool_long_EN.txt	LIP	11	3	[0, 0, 0]	n/a	FR1	1	R1405E
424.816	0.767	427761	WORD_OFF	n/a	n/a	LIP	11	3	[0, 0, 0]	n/a	FR1	1	R1405E
425.583	1.601	428525	WORD	n/a	wordpools/wordpool_long_EN.txt	CHALK	12	3	[0, 0, 0]	n/a	FR1	1	R1405E
427.184	0.0	430123	START	n/a	n/a	n/a	-999	3	[-999, -999, -999]	n/a	FR1	1	R1405E
427.184	0.0	430123	PROB	0.0	n/a	n/a	-999	3	[2, 4, 7]	13	FR1	1	R1405E
427.183	0.001	430127	WORD_OFF	n/a	n/a	CHALK	12	3	[0, 0, 0]	n/a	FR1	1	R1405E
427.184	0.0	430127	ENCODING_END	n/a	n/a	n/a	-999	3	[0, 0, 0]	n/a	FR1	1	R1405E
427.184	2.719	430127	DISTRACT_START	n/a	n/a	n/a	-999	3	[0, 0, 0]	n/a	FR1	1	R1405E
429.903	4.33	432842	PROB	4.33	n/a	n/a	-999	3	[7, 2, 4]	13	FR1	1	R1405E
434.233	2.666	437172	PROB	2.666	n/a	n/a	-999	3	[1, 2, 6]	9	FR1	1	R1405E
436.899	4.133	439838	PROB	4.133	n/a	n/a	-999	3	[6, 2, 7]	13	FR1	1	R1405E
441.032	6.166	443971	PROB	6.166	n/a	n/a	-999	3	[5, 8, 3]	15	FR1	1	R1405E
447.198	0.0	450137	STOP	n/a	n/a	n/a	-999	3	[-999, -999, -999]	n/a	FR1	1	R1405E
447.198	2.133	450140	DISTRACT_END	n/a	n/a	n/a	-999	3	[0, 0, 0]	n/a	FR1	1	R1405E
449.331	2.103	452268	REC_START	n/a	n/a	n/a	-999	3	[0, 0, 0]	n/a	FR1	1	R1405E
451.434	0.592	454373	REC_WORD	0.592	n/a	SHIP	-999	3	[0, 0, 0]	n/a	FR1	1	R1405E
452.026	1.185	454965	REC_WORD	1.185	n/a	WALK	-999	3	[0, 0, 0]	n/a	FR1	1	R1405E
453.211	13.992	456150	REC_WORD	13.992	n/a	DOCK	4	3	[0, 0, 0]	n/a	FR1	1	R1405E
467.203	8.194	470142	REC_WORD	8.194	n/a	WASP	-999	3	[0, 0, 0]	n/a	FR1	1	R1405E
475.397	4.192	478336	REC_WORD	4.192	n/a	HOLE	-999	3	[0, 0, 0]	n/a	FR1	1	R1405E
479.589	4.159	482530	REC_END	n/a	n/a	n/a	-999	3	[0, 0, 0]	n/a	FR1	1	R1405E
483.748	10.35	486689	COUNTDOWN_START	n/a	n/a	n/a	-999	4	[0, 0, 0]	n/a	FR1	1	R1405E
494.098	0.0	497037	COUNTDOWN_END	n/a	n/a	n/a	-999	4	[0, 0, 0]	n/a	FR1	1	R1405E
494.098	2.066	497037	ENCODING_START	n/a	n/a	n/a	-999	4	[0, 0, 0]	n/a	FR1	1	R1405E
496.164	1.616	499103	WORD	n/a	wordpools/wordpool_long_EN.txt	SLOPE	1	4	[0, 0, 0]	n/a	FR1	1	R1405E
497.78	0.833	500723	WORD_OFF	n/a	n/a	SLOPE	1	4	[0, 0, 0]	n/a	FR1	1	R1405E
498.613	1.6	501551	WORD	n/a	wordpools/wordpool_long_EN.txt	SAIL	2	4	[0, 0, 0]	n/a	FR1	1	R1405E
500.213	0.934	503153	WORD_OFF	n/a	n/a	SAIL	2	4	[0, 0, 0]	n/a	FR1	1	R1405E
501.147	1.6	504090	WORD	n/a	wordpools/wordpool_long_EN.txt	SPONGE	3	4	[0, 0, 0]	n/a	FR1	1	R1405E
502.747	0.916	505683	WORD_OFF	n/a	n/a	SPONGE	3	4	[0, 0, 0]	n/a	FR1	1	R1405E
503.663	1.617	506602	WORD	n/a	wordpools/wordpool_long_EN.txt	ELF	4	4	[0, 0, 0]	n/a	FR1	1	R1405E
505.28	0.799	508222	WORD_OFF	n/a	n/a	ELF	4	4	[0, 0, 0]	n/a	FR1	1	R1405E
506.079	1.6	509023	WORD	n/a	wordpools/wordpool_long_EN.txt	SHEET	5	4	[0, 0, 0]	n/a	FR1	1	R1405E
507.679	0.918	510624	WORD_OFF	n/a	n/a	SHEET	5	4	[0, 0, 0]	n/a	FR1	1	R1405E
508.597	1.6	511534	WORD	n/a	wordpools/wordpool_long_EN.txt	JUDGE	6	4	[0, 0, 0]	n/a	FR1	1	R1405E
510.197	0.966	513136	WORD_OFF	n/a	n/a	JUDGE	6	4	[0, 0, 0]	n/a	FR1	1	R1405E
511.163	1.616	514101	WORD	n/a	wordpools/wordpool_long_EN.txt	STEAK	7	4	[0, 0, 0]	n/a	FR1	1	R1405E
512.779	0.767	515721	WORD_OFF	n/a	n/a	STEAK	7	4	[0, 0, 0]	n/a	FR1	1	R1405E
513.546	1.616	516485	WORD	n/a	wordpools/wordpool_long_EN.txt	BROOK	8	4	[0, 0, 0]	n/a	FR1	1	R1405E
515.162	0.901	518105	WORD_OFF	n/a	n/a	BROOK	8	4	[0, 0, 0]	n/a	FR1	1	R1405E
516.063	1.617	519006	WORD	n/a	wordpools/wordpool_long_EN.txt	WAVE	9	4	[0, 0, 0]	n/a	FR1	1	R1405E
517.68	0.766	520617	WORD_OFF	n/a	n/a	WAVE	9	4	[0, 0, 0]	n/a	FR1	1	R1405E
518.446	1.6	521391	WORD	n/a	wordpools/wordpool_long_EN.txt	SNAKE	10	4	[0, 0, 0]	n/a	FR1	1	R1405E
520.046	0.933	522983	WORD_OFF	n/a	n/a	SNAKE	10	4	[0, 0, 0]	n/a	FR1	1	R1405E
520.979	1.617	523921	WORD	n/a	wordpools/wordpool_long_EN.txt	MAT	11	4	[0, 0, 0]	n/a	FR1	1	R1405E
522.596	0.883	525532	WORD_OFF	n/a	n/a	MAT	11	4	[0, 0, 0]	n/a	FR1	1	R1405E
523.479	1.6	526416	WORD	n/a	wordpools/wordpool_long_EN.txt	HILL	12	4	[0, 0, 0]	n/a	FR1	1	R1405E
525.079	0.001	528016	WORD_OFF	n/a	n/a	HILL	12	4	[0, 0, 0]	n/a	FR1	1	R1405E
525.08	0.001	528019	PROB	0.001	n/a	n/a	-999	4	[1, 8, 2]	11	FR1	1	R1405E
525.081	0.0	528020	START	n/a	n/a	n/a	-999	4	[-999, -999, -999]	n/a	FR1	1	R1405E
525.081	0.0	528025	ENCODING_END	n/a	n/a	n/a	-999	4	[0, 0, 0]	n/a	FR1	1	R1405E
525.081	2.332	528025	DISTRACT_START	n/a	n/a	n/a	-999	4	[0, 0, 0]	n/a	FR1	1	R1405E
527.413	2.332	530352	PROB	2.332	n/a	n/a	-999	4	[4, 5, 1]	10	FR1	1	R1405E
529.745	2.85	532684	PROB	2.85	n/a	n/a	-999	4	[3, 2, 5]	8	FR1	1	R1405E
532.595	3.934	535534	PROB	3.934	n/a	n/a	-999	4	[6, 4, 7]	15	FR1	1	R1405E
536.529	5.833	539468	PROB	5.833	n/a	n/a	-999	4	[6, 1, 6]	13	FR1	1	R1405E
542.362	2.966	545301	PROB	2.966	n/a	n/a	-999	4	[5, 6, 2]	13	FR1	1	R1405E
545.328	0.0	548266	DISTRACT_END	n/a	n/a	n/a	-999	4	[0, 0, 0]	n/a	FR1	1	R1405E
545.328	2.2	548267	STOP	n/a	n/a	n/a	-999	4	[-999, -999, -999]	n/a	FR1	1	R1405E
547.528	1.114	550467	REC_START	n/a	n/a	n/a	-999	4	[0, 0, 0]	n/a	FR1	1	R1405E
548.642	1.623	551581	REC_WORD	1.623	n/a	SNAKE	10	4	[0, 0, 0]	n/a	FR1	1	R1405E
550.265	1.003	553204	REC_WORD	1.003	n/a	RAKE	-999	4	[0, 0, 0]	n/a	FR1	1	R1405E
551.268	8.056	554207	REC_WORD	8.056	n/a	STEAK	7	4	[0, 0, 0]	n/a	FR1	1	R1405E
559.324	5.389	562263	REC_WORD	5.389	n/a	MAKE	-999	4	[0, 0, 0]	n/a	FR1	1	R1405E
564.713	6.451	567652	REC_WORD	6.451	n/a	CUBE	-999	4	[0, 0, 0]	n/a	FR1	1	R1405E
571.164	6.61	574103	REC_WORD	6.61	n/a	DROP	-999	4	[0, 0, 0]	n/a	FR1	1	R1405E
577.774	3.469	580711	REC_END	n/a	n/a	n/a	-999	4	[0, 0, 0]	n/a	FR1	1	R1405E
581.243	10.351	584187	COUNTDOWN_START	n/a	n/a	n/a	-999	5	[0, 0, 0]	n/a	FR1	1	R1405E
591.594	0.001	594535	COUNTDOWN_END	n/a	n/a	n/a	-999	5	[0, 0, 0]	n/a	FR1	1	R1405E
591.595	2.132	594535	ENCODING_START	n/a	n/a	n/a	-999	5	[0, 0, 0]	n/a	FR1	1	R1405E
593.727	1.6	596664	WORD	n/a	wordpools/wordpool_long_EN.txt	FLASK	1	5	[0, 0, 0]	n/a	FR1	1	R1405E
595.327	0.916	598266	WORD_OFF	n/a	n/a	FLASK	1	5	[0, 0, 0]	n/a	FR1	1	R1405E
596.243	1.617	599185	WORD	n/a	wordpools/wordpool_long_EN.txt	SMOKE	2	5	[0, 0, 0]	n/a	FR1	1	R1405E
597.86	0.983	600796	WORD_OFF	n/a	n/a	SMOKE	2	5	[0, 0, 0]	n/a	FR1	1	R1405E
598.843	1.6	601788	WORD	n/a	wordpools/wordpool_long_EN.txt	BENCH	3	5	[0, 0, 0]	n/a	FR1	1	R1405E
600.443	0.9	603381	WORD_OFF	n/a	n/a	BENCH	3	5	[0, 0, 0]	n/a	FR1	1	R1405E
601.343	1.6	604282	WORD	n/a	wordpools/wordpool_long_EN.txt	RAT	4	5	[0, 0, 0]	n/a	FR1	1	R1405E
602.943	0.883	605884	WORD_OFF	n/a	n/a	RAT	4	5	[0, 0, 0]	n/a	FR1	1	R1405E
603.826	1.617	606766	WORD	n/a	wordpools/wordpool_long_EN.txt	MOUSE	5	5	[0, 0, 0]	n/a	FR1	1	R1405E
605.443	0.9	608386	WORD_OFF	n/a	n/a	MOUSE	5	5	[0, 0, 0]	n/a	FR1	1	R1405E
606.343	1.617	609287	WORD	n/a	wordpools/wordpool_long_EN.txt	STOOL	6	5	[0, 0, 0]	n/a	FR1	1	R1405E
607.96	0.916	610898	WORD_OFF	n/a	n/a	STOOL	6	5	[0, 0, 0]	n/a	FR1	1	R1405E
608.876	1.617	611817	WORD	n/a	wordpools/wordpool_long_EN.txt	PLAID	7	5	[0, 0, 0]	n/a	FR1	1	R1405E
610.493	0.966	613437	WORD_OFF	n/a	n/a	PLAID	7	5	[0, 0, 0]	n/a	FR1	1	R1405E
611.459	1.601	614402	WORD	n/a	wordpools/wordpool_long_EN.txt	RUST	8	5	[0, 0, 0]	n/a	FR1	1	R1405E
613.06	0.849	616004	WORD_OFF	n/a	n/a	RUST	8	5	[0, 0, 0]	n/a	FR1	1	R1405E
613.909	1.603	616850	WORD	n/a	wordpools/wordpool_long_EN.txt	SEAL	9	5	[0, 0, 0]	n/a	FR1	1	R1405E
615.512	0.764	618452	WORD_OFF	n/a	n/a	SEAL	9	5	[0, 0, 0]	n/a	FR1	1	R1405E
616.276	1.617	619216	WORD	n/a	wordpools/wordpool_long_EN.txt	JAR	10	5	[0, 0, 0]	n/a	FR1	1	R1405E
617.893	0.799	620836	WORD_OFF	n/a	n/a	JAR	10	5	[0, 0, 0]	n/a	FR1	1	R1405E
618.692	1.601	621628	WORD	n/a	wordpools/wordpool_long_EN.txt	LAND	11	5	[0, 0, 0]	n/a	FR1	1	R1405E
620.293	0.866	623230	WORD_OFF	n/a	n/a	LAND	11	5	[0, 0, 0]	n/a	FR1	1	R1405E
621.159	1.617	624104	WORD	n/a	wordpools/wordpool_long_EN.txt	WOOD	12	5	[0, 0, 0]	n/a	FR1	1	R1405E
622.776	0.001	625715	WORD_OFF	n/a	n/a	WOOD	12	5	[0, 0, 0]	n/a	FR1	1	R1405E
622.777	0.0	625715	ENCODING_END	n/a	n/a	n/a	-999	5	[0, 0, 0]	n/a	FR1	1	R1405E
622.777	0.0	625716	START	n/a	n/a	n/a	-999	5	[-999, -999, -999]	n/a	FR1	1	R1405E
622.777	0.0	625716	PROB	0.0	n/a	n/a	-999	5	[4, 6, 8]	16	FR1	1	R1405E
622.777	4.216	625724	DISTRACT_START	n/a	n/a	n/a	-999	5	[0, 0, 0]	n/a	FR1	1	R1405E
626.993	4.016	629932	PROB	4.016	n/a	n/a	-999	5	[1, 3, 8]	12	FR1	1	R1405E
631.009	4.35	633948	PROB	4.35	n/a	n/a	-999	5	[8, 1, 6]	15	FR1	1	R1405E
635.359	3.866	638298	PROB	3.866	n/a	n/a	-999	5	[6, 6, 4]	18	FR1	1	R1405E
639.225	2.101	642164	PROB	2.101	n/a	n/a	-999	5	[2, 1, 7]	12	FR1	1	R1405E
641.326	2.515	644265	PROB	2.515	n/a	n/a	-999	5	[8, 2, 3]	13	FR1	1	R1405E
643.841	0.0	646780	STOP	n/a	n/a	n/a	-999	5	[-999, -999, -999]	n/a	FR1	1	R1405E
643.841	2.233	646783	DISTRACT_END	n/a	n/a	n/a	-999	5	[0, 0, 0]	n/a	FR1	1	R1405E
646.074	2.771	649012	REC_START	n/a	n/a	n/a	-999	5	[0, 0, 0]	n/a	FR1	1	R1405E
648.845	4.246	651784	REC_WORD	4.246	n/a	SNAKE	-999	5	[0, 0, 0]	n/a	FR1	1	R1405E
653.091	2.118	656030	REC_WORD	2.118	n/a	MOUSE	5	5	[0, 0, 0]	n/a	FR1	1	R1405E
655.209	4.307	658148	REC_WORD	4.307	n/a	RAT	4	5	[0, 0, 0]	n/a	FR1	1	R1405E
659.516	4.64	662455	REC_WORD	4.64	n/a	SMOKE	2	5	[0, 0, 0]	n/a	FR1	1	R1405E
664.156	12.154	667095	REC_WORD	12.154	n/a	LAND	11	5	[0, 0, 0]	n/a	FR1	1	R1405E
676.31	3.947	679246	REC_END	n/a	n/a	n/a	-999	5	[0, 0, 0]	n/a	FR1	1	R1405E
680.257	10.35	683196	COUNTDOWN_START	n/a	n/a	n/a	-999	6	[0, 0, 0]	n/a	FR1	1	R1405E
690.607	0.001	693544	COUNTDOWN_END	n/a	n/a	n/a	-999	6	[0, 0, 0]	n/a	FR1	1	R1405E
690.608	2.049	693553	ENCODING_START	n/a	n/a	n/a	-999	6	[0, 0, 0]	n/a	FR1	1	R1405E
692.657	1.6	695600	WORD	n/a	wordpools/wordpool_long_EN.txt	BEAN	1	6	[0, 0, 0]	n/a	FR1	1	R1405E
694.257	0.866	697193	WORD_OFF	n/a	n/a	BEAN	1	6	[0, 0, 0]	n/a	FR1	1	R1405E
695.123	1.617	698067	WORD	n/a	wordpools/wordpool_long_EN.txt	DRINK	2	6	[0, 0, 0]	n/a	FR1	1	R1405E
696.74	0.966	699678	WORD_OFF	n/a	n/a	DRINK	2	6	[0, 0, 0]	n/a	FR1	1	R1405E
697.706	1.601	700651	WORD	n/a	wordpools/wordpool_long_EN.txt	PEA	3	6	[0, 0, 0]	n/a	FR1	1	R1405E
699.307	0.933	702244	WORD_OFF	n/a	n/a	PEA	3	6	[0, 0, 0]	n/a	FR1	1	R1405E
700.24	1.616	703181	WORD	n/a	wordpools/wordpool_long_EN.txt	MOP	4	6	[0, 0, 0]	n/a	FR1	1	R1405E
701.856	0.866	704792	WORD_OFF	n/a	n/a	MOP	4	6	[0, 0, 0]	n/a	FR1	1	R1405E
702.722	1.601	705666	WORD	n/a	wordpools/wordpool_long_EN.txt	VEST	5	6	[0, 0, 0]	n/a	FR1	1	R1405E
704.323	0.817	707268	WORD_OFF	n/a	n/a	VEST	5	6	[0, 0, 0]	n/a	FR1	1	R1405E
705.14	1.616	708078	WORD	n/a	wordpools/wordpool_long_EN.txt	BANK	6	6	[0, 0, 0]	n/a	FR1	1	R1405E
706.756	0.867	709698	WORD_OFF	n/a	n/a	BANK	6	6	[0, 0, 0]	n/a	FR1	1	R1405E
707.623	1.6	710562	WORD	n/a	wordpools/wordpool_long_EN.txt	GOAL	7	6	[0, 0, 0]	n/a	FR1	1	R1405E
709.223	0.965	712164	WORD_OFF	n/a	n/a	GOAL	7	6	[0, 0, 0]	n/a	FR1	1	R1405E
710.188	1.601	713129	WORD	n/a	wordpools/wordpool_long_EN.txt	INN	8	6	[0, 0, 0]	n/a	FR1	1	R1405E
711.789	0.95	714731	WORD_OFF	n/a	n/a	INN	8	6	[0, 0, 0]	n/a	FR1	1	R1405E
712.739	1.6	715677	WORD	n/a	wordpools/wordpool_long_EN.txt	SHIP	9	6	[0, 0, 0]	n/a	FR1	1	R1405E
714.339	0.932	717279	WORD_OFF	n/a	n/a	SHIP	9	6	[0, 0, 0]	n/a	FR1	1	R1405E
715.271	1.601	718216	WORD	n/a	wordpools/wordpool_long_EN.txt	HEDGE	10	6	[0, 0, 0]	n/a	FR1	1	R1405E
716.872	0.984	719809	WORD_OFF	n/a	n/a	HEDGE	10	6	[0, 0, 0]	n/a	FR1	1	R1405E
717.856	1.616	720795	WORD	n/a	wordpools/wordpool_long_EN.txt	TOY	11	6	[0, 0, 0]	n/a	FR1	1	R1405E
719.472	0.85	722412	WORD_OFF	n/a	n/a	TOY	11	6	[0, 0, 0]	n/a	FR1	1	R1405E
720.322	1.6	723258	WORD	n/a	wordpools/wordpool_long_EN.txt	VAULT	12	6	[0, 0, 0]	n/a	FR1	1	R1405E
721.922	0.001	724860	WORD_OFF	n/a	n/a	VAULT	12	6	[0, 0, 0]	n/a	FR1	1	R1405E
721.923	0.0	724860	ENCODING_END	n/a	n/a	n/a	-999	6	[0, 0, 0]	n/a	FR1	1	R1405E
721.922	0.002	724861	PROB	0.002	n/a	n/a	-999	6	[4, 1, 8]	13	FR1	1	R1405E
721.924	0.0	724863	START	n/a	n/a	n/a	-999	6	[-999, -999, -999]	n/a	FR1	1	R1405E
721.924	2.399	724869	DISTRACT_START	n/a	n/a	n/a	-999	6	[0, 0, 0]	n/a	FR1	1	R1405E
724.323	2.083	727262	PROB	2.083	n/a	n/a	-999	6	[6, 2, 1]	9	FR1	1	R1405E
726.406	3.082	729345	PROB	3.082	n/a	n/a	-999	6	[6, 3, 3]	12	FR1	1	R1405E
729.488	3.968	732427	PROB	3.968	n/a	n/a	-999	6	[7, 2, 2]	11	FR1	1	R1405E
733.456	2.816	736395	PROB	2.816	n/a	n/a	-999	6	[3, 2, 3]	8	FR1	1	R1405E
736.272	2.583	739211	PROB	2.583	n/a	n/a	-999	6	[5, 5, 5]	15	FR1	1	R1405E
738.855	6.554	741794	PROB	6.554	n/a	n/a	-999	6	[4, 8, 5]	17	FR1	1	R1405E
745.409	0.0	748348	STOP	n/a	n/a	n/a	-999	6	[-999, -999, -999]	n/a	FR1	1	R1405E
745.409	2.162	748349	DISTRACT_END	n/a	n/a	n/a	-999	6	[0, 0, 0]	n/a	FR1	1	R1405E
747.571	2.562	750514	REC_START	n/a	n/a	n/a	-999	6	[0, 0, 0]	n/a	FR1	1	R1405E
750.133	2.745	753072	REC_WORD	2.745	n/a	BEAN	1	6	[0, 0, 0]	n/a	FR1	1	R1405E
752.878	11.587	755817	REC_WORD	11.587	n/a	INN	8	6	[0, 0, 0]	n/a	FR1	1	R1405E
764.465	12.377	767404	REC_WORD	12.377	n/a	FROG	-999	6	[0, 0, 0]	n/a	FR1	1	R1405E
776.842	0.964	779781	REC_WORD	0.964	n/a	MAT	-999	6	[0, 0, 0]	n/a	FR1	1	R1405E
777.806	3.014	780749	REC_END	n/a	n/a	n/a	-999	6	[0, 0, 0]	n/a	FR1	1	R1405E
780.82	10.351	783761	COUNTDOWN_START	n/a	n/a	n/a	-999	7	[0, 0, 0]	n/a	FR1	1	R1405E
791.171	0.0	794109	COUNTDOWN_END	n/a	n/a	n/a	-999	7	[0, 0, 0]	n/a	FR1	1	R1405E
791.171	2.232	794109	ENCODING_START	n/a	n/a	n/a	-999	7	[0, 0, 0]	n/a	FR1	1	R1405E
793.403	1.617	796348	WORD	n/a	wordpools/wordpool_long_EN.txt	PERCH	1	7	[0, 0, 0]	n/a	FR1	1	R1405E
795.02	0.849	797958	WORD_OFF	n/a	n/a	PERCH	1	7	[0, 0, 0]	n/a	FR1	1	R1405E
795.869	1.618	798814	WORD	n/a	wordpools/wordpool_long_EN.txt	CAT	2	7	[0, 0, 0]	n/a	FR1	1	R1405E
797.487	0.933	800425	WORD_OFF	n/a	n/a	CAT	2	7	[0, 0, 0]	n/a	FR1	1	R1405E
798.42	1.6	801362	WORD	n/a	wordpools/wordpool_long_EN.txt	FILM	3	7	[0, 0, 0]	n/a	FR1	1	R1405E
800.02	0.983	802964	WORD_OFF	n/a	n/a	FILM	3	7	[0, 0, 0]	n/a	FR1	1	R1405E
801.003	1.616	803947	WORD	n/a	wordpools/wordpool_long_EN.txt	WEB	4	7	[0, 0, 0]	n/a	FR1	1	R1405E
802.619	0.984	805558	WORD_OFF	n/a	n/a	WEB	4	7	[0, 0, 0]	n/a	FR1	1	R1405E
803.603	1.617	806541	WORD	n/a	wordpools/wordpool_long_EN.txt	STRING	5	7	[0, 0, 0]	n/a	FR1	1	R1405E
805.22	0.916	808160	WORD_OFF	n/a	n/a	STRING	5	7	[0, 0, 0]	n/a	FR1	1	R1405E
806.136	1.6	809080	WORD	n/a	wordpools/wordpool_long_EN.txt	TRIBE	6	7	[0, 0, 0]	n/a	FR1	1	R1405E
807.736	0.817	810672	WORD_OFF	n/a	n/a	TRIBE	6	7	[0, 0, 0]	n/a	FR1	1	R1405E
808.553	1.616	811491	WORD	n/a	wordpools/wordpool_long_EN.txt	BEAK	7	7	[0, 0, 0]	n/a	FR1	1	R1405E
810.169	0.983	813111	WORD_OFF	n/a	n/a	BEAK	7	7	[0, 0, 0]	n/a	FR1	1	R1405E
811.152	1.617	814094	WORD	n/a	wordpools/wordpool_long_EN.txt	CARD	8	7	[0, 0, 0]	n/a	FR1	1	R1405E
812.769	0.917	815705	WORD_OFF	n/a	n/a	CARD	8	7	[0, 0, 0]	n/a	FR1	1	R1405E
813.686	1.6	816624	WORD	n/a	wordpools/wordpool_long_EN.txt	FLAME	9	7	[0, 0, 0]	n/a	FR1	1	R1405E
815.286	0.899	818226	WORD_OFF	n/a	n/a	FLAME	9	7	[0, 0, 0]	n/a	FR1	1	R1405E
816.185	1.6	819127	WORD	n/a	wordpools/wordpool_long_EN.txt	FOOD	10	7	[0, 0, 0]	n/a	FR1	1	R1405E
817.785	0.767	820729	WORD_OFF	n/a	n/a	FOOD	10	7	[0, 0, 0]	n/a	FR1	1	R1405E
818.552	1.617	821493	WORD	n/a	wordpools/wordpool_long_EN.txt	LAMP	11	7	[0, 0, 0]	n/a	FR1	1	R1405E
820.169	0.983	823113	WORD_OFF	n/a	n/a	LAMP	11	7	[0, 0, 0]	n/a	FR1	1	R1405E
821.152	1.616	824096	WORD	n/a	wordpools/wordpool_long_EN.txt	EEL	12	7	[0, 0, 0]	n/a	FR1	1	R1405E
822.768	0.001	825707	WORD_OFF	n/a	n/a	EEL	12	7	[0, 0, 0]	n/a	FR1	1	R1405E
822.769	0.0	825707	ENCODING_END	n/a	n/a	n/a	-999	7	[0, 0, 0]	n/a	FR1	1	R1405E
822.769	0.0	825708	START	n/a	n/a	n/a	-999	7	[-999, -999, -999]	n/a	FR1	1	R1405E
822.769	0.0	825708	PROB	0.0	n/a	n/a	-999	7	[3, 7, 3]	13	FR1	1	R1405E
822.769	3.167	825716	DISTRACT_START	n/a	n/a	n/a	-999	7	[0, 0, 0]	n/a	FR1	1	R1405E
825.936	2.483	828875	PROB	2.483	n/a	n/a	-999	7	[5, 7, 3]	15	FR1	1	R1405E
828.419	1.983	831358	PROB	1.983	n/a	n/a	-999	7	[5, 2, 2]	9	FR1	1	R1405E
830.402	3.318	833341	PROB	3.318	n/a	n/a	-999	7	[4, 8, 1]	13	FR1	1	R1405E
833.72	2.165	836659	PROB	2.165	n/a	n/a	-999	7	[1, 6, 7]	12	FR1	1	R1405E
835.885	5.983	838824	PROB	5.983	n/a	n/a	-999	7	[4, 7, 8]	19	FR1	1	R1405E
841.868	7.166	844807	PROB	7.166	n/a	n/a	-999	7	[6, 6, 7]	19	FR1	1	R1405E
849.034	0.0	851972	DISTRACT_END	n/a	n/a	n/a	-999	7	[0, 0, 0]	n/a	FR1	1	R1405E
849.034	2.051	851973	STOP	n/a	n/a	n/a	-999	7	[-999, -999, -999]	n/a	FR1	1	R1405E
851.085	6.559	854028	REC_START	n/a	n/a	n/a	-999	7	[0, 0, 0]	n/a	FR1	1	R1405E
857.644	5.337	860583	REC_WORD	5.337	n/a	WEDGE	-999	7	[0, 0, 0]	n/a	FR1	1	R1405E
862.981	11.775	865920	REC_WORD	11.775	n/a	EEL	12	7	[0, 0, 0]	n/a	FR1	1	R1405E
874.756	5.951	877695	REC_WORD	5.951	n/a	BEAK	7	7	[0, 0, 0]	n/a	FR1	1	R1405E
880.707	0.628	883646	REC_WORD	0.628	n/a	STRING	5	7	[0, 0, 0]	n/a	FR1	1	R1405E
881.335	3.282	884281	REC_END	n/a	n/a	n/a	-999	7	[0, 0, 0]	n/a	FR1	1	R1405E
884.617	10.35	887557	COUNTDOWN_START	n/a	n/a	n/a	-999	8	[0, 0, 0]	n/a	FR1	1	R1405E
894.967	0.0	897905	COUNTDOWN_END	n/a	n/a	n/a	-999	8	[0, 0, 0]	n/a	FR1	1	R1405E
894.967	2.199	897914	ENCODING_START	n/a	n/a	n/a	-999	8	[0, 0, 0]	n/a	FR1	1	R1405E
897.166	1.617	900107	WORD	n/a	wordpools/wordpool_long_EN.txt	MAIL	1	8	[0, 0, 0]	n/a	FR1	1	R1405E
898.783	1.0	901727	WORD_OFF	n/a	n/a	MAIL	1	8	[0, 0, 0]	n/a	FR1	1	R1405E
899.783	1.6	902719	WORD	n/a	wordpools/wordpool_long_EN.txt	SPOUSE	2	8	[0, 0, 0]	n/a	FR1	1	R1405E
901.383	0.9	904321	WORD_OFF	n/a	n/a	SPOUSE	2	8	[0, 0, 0]	n/a	FR1	1	R1405E
902.283	1.6	905222	WORD	n/a	wordpools/wordpool_long_EN.txt	DART	3	8	[0, 0, 0]	n/a	FR1	1	R1405E
903.883	0.983	906823	WORD_OFF	n/a	n/a	DART	3	8	[0, 0, 0]	n/a	FR1	1	R1405E
904.866	1.6	907806	WORD	n/a	wordpools/wordpool_long_EN.txt	SKI	4	8	[0, 0, 0]	n/a	FR1	1	R1405E
906.466	0.866	909408	WORD_OFF	n/a	n/a	SKI	4	8	[0, 0, 0]	n/a	FR1	1	R1405E
907.332	1.616	910273	WORD	n/a	wordpools/wordpool_long_EN.txt	TENT	5	8	[0, 0, 0]	n/a	FR1	1	R1405E
908.948	0.801	911893	WORD_OFF	n/a	n/a	TENT	5	8	[0, 0, 0]	n/a	FR1	1	R1405E
909.749	1.6	912684	WORD	n/a	wordpools/wordpool_long_EN.txt	GROUND	6	8	[0, 0, 0]	n/a	FR1	1	R1405E
911.349	0.816	914286	WORD_OFF	n/a	n/a	GROUND	6	8	[0, 0, 0]	n/a	FR1	1	R1405E
912.165	1.617	915105	WORD	n/a	wordpools/wordpool_long_EN.txt	BEEF	7	8	[0, 0, 0]	n/a	FR1	1	R1405E
913.782	0.85	916725	WORD_OFF	n/a	n/a	BEEF	7	8	[0, 0, 0]	n/a	FR1	1	R1405E
914.632	1.6	917572	WORD	n/a	wordpools/wordpool_long_EN.txt	PET	8	8	[0, 0, 0]	n/a	FR1	1	R1405E
916.232	0.783	919173	WORD_OFF	n/a	n/a	PET	8	8	[0, 0, 0]	n/a	FR1	1	R1405E
917.015	1.617	919956	WORD	n/a	wordpools/wordpool_long_EN.txt	TAIL	9	8	[0, 0, 0]	n/a	FR1	1	R1405E
918.632	0.9	921576	WORD_OFF	n/a	n/a	TAIL	9	8	[0, 0, 0]	n/a	FR1	1	R1405E
919.532	1.616	922468	WORD	n/a	wordpools/wordpool_long_EN.txt	BRUSH	10	8	[0, 0, 0]	n/a	FR1	1	R1405E
921.148	0.783	924088	WORD_OFF	n/a	n/a	BRUSH	10	8	[0, 0, 0]	n/a	FR1	1	R1405E
921.931	1.601	924871	WORD	n/a	wordpools/wordpool_long_EN.txt	HOUND	11	8	[0, 0, 0]	n/a	FR1	1	R1405E
923.532	0.9	926472	WORD_OFF	n/a	n/a	HOUND	11	8	[0, 0, 0]	n/a	FR1	1	R1405E
924.432	1.601	927373	WORD	n/a	wordpools/wordpool_long_EN.txt	ARCH	12	8	[0, 0, 0]	n/a	FR1	1	R1405E
926.033	0.0	928972	START	n/a	n/a	n/a	-999	8	[-999, -999, -999]	n/a	FR1	1	R1405E
926.033	0.0	928972	PROB	0.0	n/a	n/a	-999	8	[3, 4, 5]	12	FR1	1	R1405E
926.032	0.001	928975	WORD_OFF	n/a	n/a	ARCH	12	8	[0, 0, 0]	n/a	FR1	1	R1405E
926.033	0.0	928975	ENCODING_END	n/a	n/a	n/a	-999	8	[0, 0, 0]	n/a	FR1	1	R1405E
926.033	2.6	928975	DISTRACT_START	n/a	n/a	n/a	-999	8	[0, 0, 0]	n/a	FR1	1	R1405E
928.633	4.099	931572	PROB	4.099	n/a	n/a	-999	8	[6, 8, 7]	23	FR1	1	R1405E
932.732	3.684	935671	PROB	3.684	n/a	n/a	-999	8	[1, 8, 6]	15	FR1	1	R1405E
936.416	2.183	939355	PROB	2.183	n/a	n/a	-999	8	[1, 6, 6]	13	FR1	1	R1405E
938.599	2.766	941538	PROB	2.766	n/a	n/a	-999	8	[7, 1, 8]	16	FR1	1	R1405E
941.365	4.816	944304	PROB	4.816	n/a	n/a	-999	8	[6, 4, 4]	14	FR1	1	R1405E
946.181	0.0	949120	STOP	n/a	n/a	n/a	-999	8	[-999, -999, -999]	n/a	FR1	1	R1405E
946.181	2.133	949125	DISTRACT_END	n/a	n/a	n/a	-999	8	[0, 0, 0]	n/a	FR1	1	R1405E
948.314	3.388	951253	REC_START	n/a	n/a	n/a	-999	8	[0, 0, 0]	n/a	FR1	1	R1405E
951.702	0.927	954641	REC_WORD	0.927	n/a	SKI	4	8	[0, 0, 0]	n/a	FR1	1	R1405E
952.629	2.547	955568	REC_WORD	2.547	n/a	SKY	-999	8	[0, 0, 0]	n/a	FR1	1	R1405E
955.176	7.707	958115	REC_WORD	7.707	n/a	TEST	-999	8	[0, 0, 0]	n/a	FR1	1	R1405E
962.883	12.129	965822	REC_WORD	12.129	n/a	EDGE	-999	8	[0, 0, 0]	n/a	FR1	1	R1405E
975.012	3.534	977951	REC_WORD	3.534	n/a	PLATE	-999	8	[0, 0, 0]	n/a	FR1	1	R1405E
978.546	3.034	981487	REC_END	n/a	n/a	n/a	-999	8	[0, 0, 0]	n/a	FR1	1	R1405E
981.58	10.351	984518	COUNTDOWN_START	n/a	n/a	n/a	-999	9	[0, 0, 0]	n/a	FR1	1	R1405E
991.931	0.0	994875	COUNTDOWN_END	n/a	n/a	n/a	-999	9	[0, 0, 0]	n/a	FR1	1	R1405E
991.931	2.182	994875	ENCODING_START	n/a	n/a	n/a	-999	9	[0, 0, 0]	n/a	FR1	1	R1405E
994.113	1.617	997050	WORD	n/a	wordpools/wordpool_long_EN.txt	STAR	1	9	[0, 0, 0]	n/a	FR1	1	R1405E
995.73	0.883	998670	WORD_OFF	n/a	n/a	STAR	1	9	[0, 0, 0]	n/a	FR1	1	R1405E
996.613	1.616	999553	WORD	n/a	wordpools/wordpool_long_EN.txt	TEETH	2	9	[0, 0, 0]	n/a	FR1	1	R1405E
998.229	0.967	1001173	WORD_OFF	n/a	n/a	TEETH	2	9	[0, 0, 0]	n/a	FR1	1	R1405E
999.196	1.616	1002137	WORD	n/a	wordpools/wordpool_long_EN.txt	SWORD	3	9	[0, 0, 0]	n/a	FR1	1	R1405E
1000.812	0.984	1003757	WORD_OFF	n/a	n/a	SWORD	3	9	[0, 0, 0]	n/a	FR1	1	R1405E
1001.796	1.616	1004740	WORD	n/a	wordpools/wordpool_long_EN.txt	WHEEL	4	9	[0, 0, 0]	n/a	FR1	1	R1405E
1003.412	0.867	1006351	WORD_OFF	n/a	n/a	WHEEL	4	9	[0, 0, 0]	n/a	FR1	1	R1405E
1004.279	1.617	1007216	WORD	n/a	wordpools/wordpool_long_EN.txt	KITE	5	9	[0, 0, 0]	n/a	FR1	1	R1405E
1005.896	0.833	1008836	WORD_OFF	n/a	n/a	KITE	5	9	[0, 0, 0]	n/a	FR1	1	R1405E
1006.729	1.6	1009673	WORD	n/a	wordpools/wordpool_long_EN.txt	STRAW	6	9	[0, 0, 0]	n/a	FR1	1	R1405E
1008.329	0.933	1011266	WORD_OFF	n/a	n/a	STRAW	6	9	[0, 0, 0]	n/a	FR1	1	R1405E
1009.262	1.6	1012203	WORD	n/a	wordpools/wordpool_long_EN.txt	SUN	7	9	[0, 0, 0]	n/a	FR1	1	R1405E
1010.862	0.816	1013805	WORD_OFF	n/a	n/a	SUN	7	9	[0, 0, 0]	n/a	FR1	1	R1405E
1011.678	1.617	1014615	WORD	n/a	wordpools/wordpool_long_EN.txt	SHIELD	8	9	[0, 0, 0]	n/a	FR1	1	R1405E
1013.295	0.783	1016235	WORD_OFF	n/a	n/a	SHIELD	8	9	[0, 0, 0]	n/a	FR1	1	R1405E
1014.078	1.6	1017017	WORD	n/a	wordpools/wordpool_long_EN.txt	QUEEN	9	9	[0, 0, 0]	n/a	FR1	1	R1405E
1015.678	0.967	1018619	WORD_OFF	n/a	n/a	QUEEN	9	9	[0, 0, 0]	n/a	FR1	1	R1405E
1016.645	1.6	1019584	WORD	n/a	wordpools/wordpool_long_EN.txt	LAWN	10	9	[0, 0, 0]	n/a	FR1	1	R1405E
1018.245	0.833	1021186	WORD_OFF	n/a	n/a	LAWN	10	9	[0, 0, 0]	n/a	FR1	1	R1405E
1019.078	1.601	1022023	WORD	n/a	wordpools/wordpool_long_EN.txt	TRASH	11	9	[0, 0, 0]	n/a	FR1	1	R1405E
1020.679	0.866	1023615	WORD_OFF	n/a	n/a	TRASH	11	9	[0, 0, 0]	n/a	FR1	1	R1405E
1021.545	1.6	1024489	WORD	n/a	wordpools/wordpool_long_EN.txt	STAIR	12	9	[0, 0, 0]	n/a	FR1	1	R1405E
1023.145	0.001	1026082	WORD_OFF	n/a	n/a	STAIR	12	9	[0, 0, 0]	n/a	FR1	1	R1405E
1023.146	0.001	1026085	PROB	0.001	n/a	n/a	-999	9	[1, 6, 7]	14	FR1	1	R1405E
1023.147	0.0	1026086	START	n/a	n/a	n/a	-999	9	[-999, -999, -999]	n/a	FR1	1	R1405E
1023.147	0.0	1026091	ENCODING_END	n/a	n/a	n/a	-999	9	[0, 0, 0]	n/a	FR1	1	R1405E
1023.147	2.699	1026091	DISTRACT_START	n/a	n/a	n/a	-999	9	[0, 0, 0]	n/a	FR1	1	R1405E
1025.846	4.066	1028785	PROB	4.066	n/a	n/a	-999	9	[8, 3, 8]	21	FR1	1	R1405E
1029.912	2.967	1032851	PROB	2.967	n/a	n/a	-999	9	[1, 3, 3]	7	FR1	1	R1405E
1032.879	6.533	1035818	PROB	6.533	n/a	n/a	-999	9	[6, 3, 1]	12	FR1	1	R1405E
1039.412	2.92	1042351	PROB	2.92	n/a	n/a	-999	9	[3, 7, 5]	15	FR1	1	R1405E
1042.332	4.329	1045271	PROB	4.329	n/a	n/a	-999	9	[3, 5, 4]	13	FR1	1	R1405E
1046.661	0.0	1049599	DISTRACT_END	n/a	n/a	n/a	-999	9	[0, 0, 0]	n/a	FR1	1	R1405E
1046.661	2.067	1049600	STOP	n/a	n/a	n/a	-999	9	[-999, -999, -999]	n/a	FR1	1	R1405E
1048.728	1.122	1051672	REC_START	n/a	n/a	n/a	-999	9	[0, 0, 0]	n/a	FR1	1	R1405E
1049.85	2.597	1052789	REC_WORD	2.597	n/a	STAIR	12	9	[0, 0, 0]	n/a	FR1	1	R1405E
1052.447	3.99	1055386	REC_WORD	3.99	n/a	STAR	1	9	[0, 0, 0]	n/a	FR1	1	R1405E
1056.437	2.189	1059376	REC_WORD	2.189	n/a	SPOUSE	-999	9	[0, 0, 0]	n/a	FR1	1	R1405E
1058.626	12.582	1061565	REC_WORD	12.582	n/a	MAIL	-999	9	[0, 0, 0]	n/a	FR1	1	R1405E
1071.208	7.752	1074147	REC_WORD	7.752	n/a	DEAL	-999	9	[0, 0, 0]	n/a	FR1	1	R1405E
1078.96	2.983	1081898	REC_END	n/a	n/a	n/a	-999	9	[0, 0, 0]	n/a	FR1	1	R1405E
1081.943	10.35	1084883	COUNTDOWN_START	n/a	n/a	n/a	-999	10	[0, 0, 0]	n/a	FR1	1	R1405E
1092.293	0.0	1095231	COUNTDOWN_END	n/a	n/a	n/a	-999	10	[0, 0, 0]	n/a	FR1	1	R1405E
1092.293	2.017	1095240	ENCODING_START	n/a	n/a	n/a	-999	10	[0, 0, 0]	n/a	FR1	1	R1405E
1094.31	1.616	1097251	WORD	n/a	wordpools/wordpool_long_EN.txt	BAG	1	10	[0, 0, 0]	n/a	FR1	1	R1405E
1095.926	0.983	1098871	WORD_OFF	n/a	n/a	BAG	1	10	[0, 0, 0]	n/a	FR1	1	R1405E
1096.909	1.616	1099854	WORD	n/a	wordpools/wordpool_long_EN.txt	WOLF	2	10	[0, 0, 0]	n/a	FR1	1	R1405E
1098.525	0.834	1101465	WORD_OFF	n/a	n/a	WOLF	2	10	[0, 0, 0]	n/a	FR1	1	R1405E
1099.359	1.6	1102302	WORD	n/a	wordpools/wordpool_long_EN.txt	MOLE	3	10	[0, 0, 0]	n/a	FR1	1	R1405E
1100.959	0.95	1103895	WORD_OFF	n/a	n/a	MOLE	3	10	[0, 0, 0]	n/a	FR1	1	R1405E
1101.909	1.616	1104850	WORD	n/a	wordpools/wordpool_long_EN.txt	GRILL	4	10	[0, 0, 0]	n/a	FR1	1	R1405E
1103.525	0.834	1106470	WORD_OFF	n/a	n/a	GRILL	4	10	[0, 0, 0]	n/a	FR1	1	R1405E
1104.359	1.599	1107298	WORD	n/a	wordpools/wordpool_long_EN.txt	BARN	5	10	[0, 0, 0]	n/a	FR1	1	R1405E
1105.958	0.834	1108900	WORD_OFF	n/a	n/a	BARN	5	10	[0, 0, 0]	n/a	FR1	1	R1405E
1106.792	1.616	1109728	WORD	n/a	wordpools/wordpool_long_EN.txt	HEART	6	10	[0, 0, 0]	n/a	FR1	1	R1405E
1108.408	0.9	1111348	WORD_OFF	n/a	n/a	HEART	6	10	[0, 0, 0]	n/a	FR1	1	R1405E
1109.308	1.601	1112249	WORD	n/a	wordpools/wordpool_long_EN.txt	OX	7	10	[0, 0, 0]	n/a	FR1	1	R1405E
1110.909	0.883	1113851	WORD_OFF	n/a	n/a	OX	7	10	[0, 0, 0]	n/a	FR1	1	R1405E
1111.792	1.602	1114734	WORD	n/a	wordpools/wordpool_long_EN.txt	STORM	8	10	[0, 0, 0]	n/a	FR1	1	R1405E
1113.394	0.898	1116336	WORD_OFF	n/a	n/a	STORM	8	10	[0, 0, 0]	n/a	FR1	1	R1405E
1114.292	1.6	1117237	WORD	n/a	wordpools/wordpool_long_EN.txt	MAP	9	10	[0, 0, 0]	n/a	FR1	1	R1405E
1115.892	0.833	1118829	WORD_OFF	n/a	n/a	MAP	9	10	[0, 0, 0]	n/a	FR1	1	R1405E
1116.725	1.6	1119667	WORD	n/a	wordpools/wordpool_long_EN.txt	STICK	10	10	[0, 0, 0]	n/a	FR1	1	R1405E
1118.325	0.767	1121268	WORD_OFF	n/a	n/a	STICK	10	10	[0, 0, 0]	n/a	FR1	1	R1405E
1119.092	1.616	1122033	WORD	n/a	wordpools/wordpool_long_EN.txt	CORD	11	10	[0, 0, 0]	n/a	FR1	1	R1405E
1120.708	0.9	1123644	WORD_OFF	n/a	n/a	CORD	11	10	[0, 0, 0]	n/a	FR1	1	R1405E
1121.608	1.6	1124545	WORD	n/a	wordpools/wordpool_long_EN.txt	SHELL	12	10	[0, 0, 0]	n/a	FR1	1	R1405E
1123.208	0.001	1126146	WORD_OFF	n/a	n/a	SHELL	12	10	[0, 0, 0]	n/a	FR1	1	R1405E
1123.209	0.0	1126146	ENCODING_END	n/a	n/a	n/a	-999	10	[0, 0, 0]	n/a	FR1	1	R1405E
1123.209	0.0	1126149	START	n/a	n/a	n/a	-999	10	[-999, -999, -999]	n/a	FR1	1	R1405E
1123.209	0.0	1126149	PROB	0.0	n/a	n/a	-999	10	[8, 7, 2]	17	FR1	1	R1405E
1123.209	4.983	1126155	DISTRACT_START	n/a	n/a	n/a	-999	10	[0, 0, 0]	n/a	FR1	1	R1405E
1128.192	1.933	1131132	PROB	1.933	n/a	n/a	-999	10	[4, 6, 1]	11	FR1	1	R1405E
1130.125	3.566	1133065	PROB	3.566	n/a	n/a	-999	10	[8, 3, 8]	19	FR1	1	R1405E
1133.691	2.434	1136631	PROB	2.434	n/a	n/a	-999	10	[4, 1, 3]	8	FR1	1	R1405E
1136.125	4.267	1139065	PROB	4.267	n/a	n/a	-999	10	[8, 6, 3]	17	FR1	1	R1405E
1140.392	2.066	1143332	PROB	2.066	n/a	n/a	-999	10	[1, 6, 1]	8	FR1	1	R1405E
1142.458	4.883	1145398	PROB	4.883	n/a	n/a	-999	10	[5, 7, 1]	13	FR1	1	R1405E
1147.341	0.0	1150281	STOP	n/a	n/a	n/a	-999	10	[-999, -999, -999]	n/a	FR1	1	R1405E
1147.341	2.116	1150282	DISTRACT_END	n/a	n/a	n/a	-999	10	[0, 0, 0]	n/a	FR1	1	R1405E
1149.457	5.65	1152401	REC_START	n/a	n/a	n/a	-999	10	[0, 0, 0]	n/a	FR1	1	R1405E
1155.107	5.596	1158047	REC_WORD	5.596	n/a	MAP	9	10	[0, 0, 0]	n/a	FR1	1	R1405E
1160.703	4.095	1163643	REC_WORD	4.095	n/a	STICK	10	10	[0, 0, 0]	n/a	FR1	1	R1405E
1164.798	13.049	1167738	REC_WORD	13.049	n/a	MOON	-999	10	[0, 0, 0]	n/a	FR1	1	R1405E
1177.847	1.849	1180787	REC_WORD	1.849	n/a	OX	7	10	[0, 0, 0]	n/a	FR1	1	R1405E
1179.696	2.794	1182636	REC_END	n/a	n/a	n/a	-999	10	[0, 0, 0]	n/a	FR1	1	R1405E
1182.49	10.349	1185430	COUNTDOWN_START	n/a	n/a	n/a	-999	11	[0, 0, 0]	n/a	FR1	1	R1405E
1192.839	0.0	1195777	COUNTDOWN_END	n/a	n/a	n/a	-999	11	[0, 0, 0]	n/a	FR1	1	R1405E
1192.839	2.033	1195777	ENCODING_START	n/a	n/a	n/a	-999	11	[0, 0, 0]	n/a	FR1	1	R1405E
1194.872	1.617	1197816	WORD	n/a	wordpools/wordpool_long_EN.txt	GATE	1	11	[0, 0, 0]	n/a	FR1	1	R1405E
1196.489	0.966	1199427	WORD_OFF	n/a	n/a	GATE	1	11	[0, 0, 0]	n/a	FR1	1	R1405E
1197.455	1.6	1200392	WORD	n/a	wordpools/wordpool_long_EN.txt	COOK	2	11	[0, 0, 0]	n/a	FR1	1	R1405E
1199.055	0.95	1201993	WORD_OFF	n/a	n/a	COOK	2	11	[0, 0, 0]	n/a	FR1	1	R1405E
1200.005	1.6	1202949	WORD	n/a	wordpools/wordpool_long_EN.txt	BIRD	3	11	[0, 0, 0]	n/a	FR1	1	R1405E
1201.605	1.0	1204542	WORD_OFF	n/a	n/a	BIRD	3	11	[0, 0, 0]	n/a	FR1	1	R1405E
1202.605	1.601	1205543	WORD	n/a	wordpools/wordpool_long_EN.txt	MARSH	4	11	[0, 0, 0]	n/a	FR1	1	R1405E
1204.206	0.933	1207144	WORD_OFF	n/a	n/a	MARSH	4	11	[0, 0, 0]	n/a	FR1	1	R1405E
1205.139	1.616	1208082	WORD	n/a	wordpools/wordpool_long_EN.txt	FUR	5	11	[0, 0, 0]	n/a	FR1	1	R1405E
1206.755	0.851	1209693	WORD_OFF	n/a	n/a	FUR	5	11	[0, 0, 0]	n/a	FR1	1	R1405E
1207.606	1.616	1210548	WORD	n/a	wordpools/wordpool_long_EN.txt	CHEEK	6	11	[0, 0, 0]	n/a	FR1	1	R1405E
1209.222	0.883	1212159	WORD_OFF	n/a	n/a	CHEEK	6	11	[0, 0, 0]	n/a	FR1	1	R1405E
1210.105	1.6	1213042	WORD	n/a	wordpools/wordpool_long_EN.txt	SPARK	7	11	[0, 0, 0]	n/a	FR1	1	R1405E
1211.705	0.95	1214644	WORD_OFF	n/a	n/a	SPARK	7	11	[0, 0, 0]	n/a	FR1	1	R1405E
1212.655	1.6	1215599	WORD	n/a	wordpools/wordpool_long_EN.txt	PURSE	8	11	[0, 0, 0]	n/a	FR1	1	R1405E
1214.255	0.783	1217192	WORD_OFF	n/a	n/a	PURSE	8	11	[0, 0, 0]	n/a	FR1	1	R1405E
1215.038	1.617	1217975	WORD	n/a	wordpools/wordpool_long_EN.txt	SIGN	9	11	[0, 0, 0]	n/a	FR1	1	R1405E
1216.655	0.983	1219595	WORD_OFF	n/a	n/a	SIGN	9	11	[0, 0, 0]	n/a	FR1	1	R1405E
1217.638	1.617	1220577	WORD	n/a	wordpools/wordpool_long_EN.txt	POOL	10	11	[0, 0, 0]	n/a	FR1	1	R1405E
1219.255	0.984	1222197	WORD_OFF	n/a	n/a	POOL	10	11	[0, 0, 0]	n/a	FR1	1	R1405E
1220.239	1.616	1223180	WORD	n/a	wordpools/wordpool_long_EN.txt	LINT	11	11	[0, 0, 0]	n/a	FR1	1	R1405E
1221.855	0.817	1224791	WORD_OFF	n/a	n/a	LINT	11	11	[0, 0, 0]	n/a	FR1	1	R1405E
1222.672	1.6	1225610	WORD	n/a	wordpools/wordpool_long_EN.txt	SLIDE	12	11	[0, 0, 0]	n/a	FR1	1	R1405E
1224.272	0.001	1227212	WORD_OFF	n/a	n/a	SLIDE	12	11	[0, 0, 0]	n/a	FR1	1	R1405E
1224.273	0.0	1227212	ENCODING_END	n/a	n/a	n/a	-999	11	[0, 0, 0]	n/a	FR1	1	R1405E
1224.273	0.0	1227212	DISTRACT_START	n/a	n/a	n/a	-999	11	[0, 0, 0]	n/a	FR1	1	R1405E
1224.273	0.002	1227213	START	n/a	n/a	n/a	-999	11	[-999, -999, -999]	n/a	FR1	1	R1405E
1224.275	5.648	1227215	PROB	5.648	n/a	n/a	-999	11	[3, 8, 4]	15	FR1	1	R1405E
1229.923	3.016	1232863	PROB	3.016	n/a	n/a	-999	11	[4, 6, 5]	15	FR1	1	R1405E
1232.939	4.466	1235879	PROB	4.466	n/a	n/a	-999	11	[2, 5, 8]	15	FR1	1	R1405E
1237.405	4.85	1240345	PROB	4.85	n/a	n/a	-999	11	[3, 8, 6]	17	FR1	1	R1405E
1242.255	2.133	1245195	PROB	2.133	n/a	n/a	-999	11	[4, 4, 4]	12	FR1	1	R1405E
1244.388	0.0	1247325	DISTRACT_END	n/a	n/a	n/a	-999	11	[0, 0, 0]	n/a	FR1	1	R1405E
1244.388	2.349	1247328	STOP	n/a	n/a	n/a	-999	11	[-999, -999, -999]	n/a	FR1	1	R1405E
1246.737	1.985	1249681	REC_START	n/a	n/a	n/a	-999	11	[0, 0, 0]	n/a	FR1	1	R1405E
1248.722	7.158	1251662	REC_WORD	7.158	n/a	STAIR	-999	11	[0, 0, 0]	n/a	FR1	1	R1405E
1255.88	1.634	1258820	REC_WORD	1.634	n/a	CHAIN	-999	11	[0, 0, 0]	n/a	FR1	1	R1405E
1257.514	6.934	1260454	REC_WORD	6.934	n/a	STICK	-999	11	[0, 0, 0]	n/a	FR1	1	R1405E
1264.448	9.822	1267388	REC_WORD	9.822	n/a	SPOON	-999	11	[0, 0, 0]	n/a	FR1	1	R1405E
1274.27	2.707	1277210	REC_WORD	2.707	n/a	BEAN	-999	11	[0, 0, 0]	n/a	FR1	1	R1405E
1276.977	2.743	1279915	REC_END	n/a	n/a	n/a	-999	11	[0, 0, 0]	n/a	FR1	1	R1405E
1279.72	10.35	1282664	COUNTDOWN_START	n/a	n/a	n/a	-999	12	[0, 0, 0]	n/a	FR1	1	R1405E
1290.07	0.0	1293012	COUNTDOWN_END	n/a	n/a	n/a	-999	12	[0, 0, 0]	n/a	FR1	1	R1405E
1290.07	1.949	1293012	ENCODING_START	n/a	n/a	n/a	-999	12	[0, 0, 0]	n/a	FR1	1	R1405E
1292.019	1.6	1294959	WORD	n/a	wordpools/wordpool_long_EN.txt	WRIST	1	12	[0, 0, 0]	n/a	FR1	1	R1405E
1293.619	0.916	1296561	WORD_OFF	n/a	n/a	WRIST	1	12	[0, 0, 0]	n/a	FR1	1	R1405E
1294.535	1.617	1297480	WORD	n/a	wordpools/wordpool_long_EN.txt	SALT	2	12	[0, 0, 0]	n/a	FR1	1	R1405E
1296.152	1.0	1299091	WORD_OFF	n/a	n/a	SALT	2	12	[0, 0, 0]	n/a	FR1	1	R1405E
1297.152	1.6	1300092	WORD	n/a	wordpools/wordpool_long_EN.txt	MASK	3	12	[0, 0, 0]	n/a	FR1	1	R1405E
1298.752	0.799	1301694	WORD_OFF	n/a	n/a	MASK	3	12	[0, 0, 0]	n/a	FR1	1	R1405E
1299.551	1.6	1302495	WORD	n/a	wordpools/wordpool_long_EN.txt	HAZE	4	12	[0, 0, 0]	n/a	FR1	1	R1405E
1301.151	0.834	1304096	WORD_OFF	n/a	n/a	HAZE	4	12	[0, 0, 0]	n/a	FR1	1	R1405E
1301.985	1.601	1304925	WORD	n/a	wordpools/wordpool_long_EN.txt	CLIFF	5	12	[0, 0, 0]	n/a	FR1	1	R1405E
1303.586	0.883	1306526	WORD_OFF	n/a	n/a	CLIFF	5	12	[0, 0, 0]	n/a	FR1	1	R1405E
1304.469	1.6	1307409	WORD	n/a	wordpools/wordpool_long_EN.txt	SKY	6	12	[0, 0, 0]	n/a	FR1	1	R1405E
1306.069	0.765	1309011	WORD_OFF	n/a	n/a	SKY	6	12	[0, 0, 0]	n/a	FR1	1	R1405E
1306.834	1.601	1309775	WORD	n/a	wordpools/wordpool_long_EN.txt	WEED	7	12	[0, 0, 0]	n/a	FR1	1	R1405E
1308.435	0.8	1311377	WORD_OFF	n/a	n/a	WEED	7	12	[0, 0, 0]	n/a	FR1	1	R1405E
1309.235	1.6	1312178	WORD	n/a	wordpools/wordpool_long_EN.txt	GRASS	8	12	[0, 0, 0]	n/a	FR1	1	R1405E
1310.835	0.983	1313780	WORD_OFF	n/a	n/a	GRASS	8	12	[0, 0, 0]	n/a	FR1	1	R1405E
1311.818	1.617	1314763	WORD	n/a	wordpools/wordpool_long_EN.txt	POLE	9	12	[0, 0, 0]	n/a	FR1	1	R1405E
1313.435	0.949	1316374	WORD_OFF	n/a	n/a	POLE	9	12	[0, 0, 0]	n/a	FR1	1	R1405E
1314.384	1.601	1317329	WORD	n/a	wordpools/wordpool_long_EN.txt	FLAG	10	12	[0, 0, 0]	n/a	FR1	1	R1405E
1315.985	0.934	1318922	WORD_OFF	n/a	n/a	FLAG	10	12	[0, 0, 0]	n/a	FR1	1	R1405E
1316.919	1.616	1319859	WORD	n/a	wordpools/wordpool_long_EN.txt	JAIL	11	12	[0, 0, 0]	n/a	FR1	1	R1405E
1318.535	0.967	1321479	WORD_OFF	n/a	n/a	JAIL	11	12	[0, 0, 0]	n/a	FR1	1	R1405E
1319.502	1.616	1322444	WORD	n/a	wordpools/wordpool_long_EN.txt	LOCK	12	12	[0, 0, 0]	n/a	FR1	1	R1405E
1321.118	0.0	1324055	WORD_OFF	n/a	n/a	LOCK	12	12	[0, 0, 0]	n/a	FR1	1	R1405E
1321.118	0.002	1324058	PROB	0.002	n/a	n/a	-999	12	[6, 2, 3]	11	FR1	1	R1405E
1321.12	0.0	1324060	START	n/a	n/a	n/a	-999	12	[-999, -999, -999]	n/a	FR1	1	R1405E
1321.12	0.0	1324064	ENCODING_END	n/a	n/a	n/a	-999	12	[0, 0, 0]	n/a	FR1	1	R1405E
1321.12	3.282	1324064	DISTRACT_START	n/a	n/a	n/a	-999	12	[0, 0, 0]	n/a	FR1	1	R1405E
1324.402	3.55	1327342	PROB	3.55	n/a	n/a	-999	12	[8, 4, 5]	17	FR1	1	R1405E
1327.952	2.984	1330892	PROB	2.984	n/a	n/a	-999	12	[8, 4, 5]	17	FR1	1	R1405E
1330.936	1.815	1333876	PROB	1.815	n/a	n/a	-999	12	[3, 1, 3]	7	FR1	1	R1405E
1332.751	2.817	1335691	PROB	2.817	n/a	n/a	-999	12	[1, 1, 6]	8	FR1	1	R1405E
1335.568	3.633	1338508	PROB	3.633	n/a	n/a	-999	12	[7, 6, 7]	21	FR1	1	R1405E
1339.201	4.267	1342141	PROB	4.267	n/a	n/a	-999	12	[4, 5, 4]	13	FR1	1	R1405E
1343.468	0.0	1346407	DISTRACT_END	n/a	n/a	n/a	-999	12	[0, 0, 0]	n/a	FR1	1	R1405E
1343.468	2.066	1346408	STOP	n/a	n/a	n/a	-999	12	[-999, -999, -999]	n/a	FR1	1	R1405E
1345.534	1.994	1348471	REC_START	n/a	n/a	n/a	-999	12	[0, 0, 0]	n/a	FR1	1	R1405E
1347.528	1.671	1350468	REC_WORD	1.671	n/a	SKY	6	12	[0, 0, 0]	n/a	FR1	1	R1405E
1349.199	1.711	1352139	REC_WORD	1.711	n/a	LOCK	12	12	[0, 0, 0]	n/a	FR1	1	R1405E
1350.91	1.437	1353850	REC_WORD	1.437	n/a	GRASS	8	12	[0, 0, 0]	n/a	FR1	1	R1405E
1352.347	23.426	1355287	REC_WORD	23.426	n/a	WEED	7	12	[0, 0, 0]	n/a	FR1	1	R1405E
1375.773	0.0	1378715	REC_END	n/a	n/a	n/a	-999	12	[0, 0, 0]	n/a	FR1	1	R1405E
