onset	duration	sample	trial_type	response_time	stim_file	item_name	serialpos	list	test	answer	experiment	session	subject
0.0	162.165	110552	INSTRUCT_START	n/a	n/a	n/a	-999	-999	[0, 0, 0]	n/a	FR1	0	R1377M
162.165	102.501	272717	INSTRUCT_END	n/a	n/a	n/a	-999	-999	[0, 0, 0]	n/a	FR1	0	R1377M
264.666	10.349	375209	COUNTDOWN_START	n/a	n/a	n/a	-999	-999	[0, 0, 0]	n/a	FR1	0	R1377M
275.015	0.001	385557	COUNTDOWN_END	n/a	n/a	n/a	-999	-999	[0, 0, 0]	n/a	FR1	0	R1377M
275.016	2.0	385557	ENCODING_START	n/a	n/a	n/a	-999	-1	[0, 0, 0]	n/a	FR1	0	R1377M
277.016	1.599	387554	WORD	n/a	n/a	WATCH	1	-1	[0, 0, 0]	n/a	FR1	0	R1377M
278.615	0.934	389153	WORD_OFF	n/a	n/a	WATCH	1	-1	[0, 0, 0]	n/a	FR1	0	R1377M
279.549	1.616	390089	WORD	n/a	n/a	CHEST	2	-1	[0, 0, 0]	n/a	FR1	0	R1377M
281.165	0.867	391701	WORD_OFF	n/a	n/a	CHEST	2	-1	[0, 0, 0]	n/a	FR1	0	R1377M
282.032	1.617	392569	WORD	n/a	n/a	BABY	3	-1	[0, 0, 0]	n/a	FR1	0	R1377M
283.649	0.982	394195	WORD_OFF	n/a	n/a	BABY	3	-1	[0, 0, 0]	n/a	FR1	0	R1377M
284.631	1.601	395173	WORD	n/a	n/a	WAGON	4	-1	[0, 0, 0]	n/a	FR1	0	R1377M
286.232	0.865	396772	WORD_OFF	n/a	n/a	WAGON	4	-1	[0, 0, 0]	n/a	FR1	0	R1377M
287.097	1.602	397640	WORD	n/a	n/a	CAMEL	5	-1	[0, 0, 0]	n/a	FR1	0	R1377M
288.699	0.916	399238	WORD_OFF	n/a	n/a	CAMEL	5	-1	[0, 0, 0]	n/a	FR1	0	R1377M
289.615	1.6	400161	WORD	n/a	n/a	TONGUE	6	-1	[0, 0, 0]	n/a	FR1	0	R1377M
291.215	0.966	401759	WORD_OFF	n/a	n/a	TONGUE	6	-1	[0, 0, 0]	n/a	FR1	0	R1377M
292.181	1.601	402724	WORD	n/a	n/a	IMAGE	7	-1	[0, 0, 0]	n/a	FR1	0	R1377M
293.782	0.867	404322	WORD_OFF	n/a	n/a	IMAGE	7	-1	[0, 0, 0]	n/a	FR1	0	R1377M
294.649	1.6	405190	WORD	n/a	n/a	RHINO	8	-1	[0, 0, 0]	n/a	FR1	0	R1377M
296.249	0.95	406788	WORD_OFF	n/a	n/a	RHINO	8	-1	[0, 0, 0]	n/a	FR1	0	R1377M
297.199	1.616	407739	WORD	n/a	n/a	COTTON	9	-1	[0, 0, 0]	n/a	FR1	0	R1377M
298.815	0.817	409351	WORD_OFF	n/a	n/a	COTTON	9	-1	[0, 0, 0]	n/a	FR1	0	R1377M
299.632	1.616	410177	WORD	n/a	n/a	RING	10	-1	[0, 0, 0]	n/a	FR1	0	R1377M
301.248	0.801	411789	WORD_OFF	n/a	n/a	RING	10	-1	[0, 0, 0]	n/a	FR1	0	R1377M
302.049	1.616	412589	WORD	n/a	n/a	BEAM	11	-1	[0, 0, 0]	n/a	FR1	0	R1377M
303.665	0.934	414201	WORD_OFF	n/a	n/a	BEAM	11	-1	[0, 0, 0]	n/a	FR1	0	R1377M
304.599	1.6	415137	WORD	n/a	n/a	FLOOD	12	-1	[0, 0, 0]	n/a	FR1	0	R1377M
306.199	0.001	416736	WORD_OFF	n/a	n/a	FLOOD	12	-1	[0, 0, 0]	n/a	FR1	0	R1377M
306.2	0.0	416736	ENCODING_END	n/a	n/a	n/a	-999	-1	[0, 0, 0]	n/a	FR1	0	R1377M
306.2	0.001	416742	PROB	0.001	n/a	n/a	-999	-1	[6, 6, 7]	13	FR1	0	R1377M
306.201	0.0	416743	START	n/a	n/a	n/a	-999	-1	[-999, -999, -999]	n/a	FR1	0	R1377M
306.201	8.531	416749	DISTRACT_START	n/a	n/a	n/a	-999	-1	[0, 0, 0]	n/a	FR1	0	R1377M
314.732	7.083	425273	PROB	7.083	n/a	n/a	-999	-1	[5, 6, 1]	12	FR1	0	R1377M
321.815	16.416	432356	PROB	16.416	n/a	n/a	-999	-1	[4, 5, 4]	13	FR1	0	R1377M
338.231	0.0	448769	DISTRACT_END	n/a	n/a	n/a	-999	-1	[0, 0, 0]	n/a	FR1	0	R1377M
338.231	1.368	448771	STOP	n/a	n/a	n/a	-999	-1	[-999, -999, -999]	n/a	FR1	0	R1377M
339.599	29.999	450133	REC_START	n/a	n/a	n/a	-999	-1	[0, 0, 0]	n/a	FR1	0	R1377M
369.598	0.253	480137	REC_WORD_VV	0.253	n/a	<>	-999	-1	[0, 0, 0]	n/a	FR1	0	R1377M
369.851	82.231	480389	REC_END	n/a	n/a	n/a	-999	-1	[0, 0, 0]	n/a	FR1	0	R1377M
452.082	10.351	562615	COUNTDOWN_START	n/a	n/a	n/a	-999	1	[0, 0, 0]	n/a	FR1	0	R1377M
462.433	0.0	572962	COUNTDOWN_END	n/a	n/a	n/a	-999	1	[0, 0, 0]	n/a	FR1	0	R1377M
462.433	2.282	572962	ENCODING_START	n/a	n/a	n/a	-999	1	[0, 0, 0]	n/a	FR1	0	R1377M
464.715	1.6	575249	WORD	n/a	wordpools/wordpool_short_EN.txt	BARN	1	1	[0, 0, 0]	n/a	FR1	0	R1377M
466.315	0.834	576847	WORD_OFF	n/a	n/a	BARN	1	1	[0, 0, 0]	n/a	FR1	0	R1377M
467.149	1.6	577687	WORD	n/a	wordpools/wordpool_short_EN.txt	TEETH	2	1	[0, 0, 0]	n/a	FR1	0	R1377M
468.749	0.799	579286	WORD_OFF	n/a	n/a	TEETH	2	1	[0, 0, 0]	n/a	FR1	0	R1377M
469.548	1.601	580085	WORD	n/a	wordpools/wordpool_short_EN.txt	MINK	3	1	[0, 0, 0]	n/a	FR1	0	R1377M
471.149	0.966	581683	WORD_OFF	n/a	n/a	MINK	3	1	[0, 0, 0]	n/a	FR1	0	R1377M
472.115	1.616	582647	WORD	n/a	wordpools/wordpool_short_EN.txt	FLEA	4	1	[0, 0, 0]	n/a	FR1	0	R1377M
473.731	0.834	584259	WORD_OFF	n/a	n/a	FLEA	4	1	[0, 0, 0]	n/a	FR1	0	R1377M
474.565	1.617	585100	WORD	n/a	wordpools/wordpool_short_EN.txt	MAT	5	1	[0, 0, 0]	n/a	FR1	0	R1377M
476.182	0.816	586712	WORD_OFF	n/a	n/a	MAT	5	1	[0, 0, 0]	n/a	FR1	0	R1377M
476.998	1.6	587525	WORD	n/a	wordpools/wordpool_short_EN.txt	LENS	6	1	[0, 0, 0]	n/a	FR1	0	R1377M
478.598	0.817	589137	WORD_OFF	n/a	n/a	LENS	6	1	[0, 0, 0]	n/a	FR1	0	R1377M
479.415	1.6	589950	WORD	n/a	wordpools/wordpool_short_EN.txt	AISLE	7	1	[0, 0, 0]	n/a	FR1	0	R1377M
481.015	0.866	591548	WORD_OFF	n/a	n/a	AISLE	7	1	[0, 0, 0]	n/a	FR1	0	R1377M
481.881	1.601	592416	WORD	n/a	wordpools/wordpool_short_EN.txt	DEER	8	1	[0, 0, 0]	n/a	FR1	0	R1377M
483.482	0.816	594014	WORD_OFF	n/a	n/a	DEER	8	1	[0, 0, 0]	n/a	FR1	0	R1377M
484.298	1.617	594855	WORD	n/a	wordpools/wordpool_short_EN.txt	SWAMP	9	1	[0, 0, 0]	n/a	FR1	0	R1377M
485.915	0.8	596453	WORD_OFF	n/a	n/a	SWAMP	9	1	[0, 0, 0]	n/a	FR1	0	R1377M
486.715	1.6	597252	WORD	n/a	wordpools/wordpool_short_EN.txt	KITE	10	1	[0, 0, 0]	n/a	FR1	0	R1377M
488.315	0.783	598850	WORD_OFF	n/a	n/a	KITE	10	1	[0, 0, 0]	n/a	FR1	0	R1377M
489.098	1.6	599635	WORD	n/a	wordpools/wordpool_short_EN.txt	ICE	11	1	[0, 0, 0]	n/a	FR1	0	R1377M
490.698	0.833	601234	WORD_OFF	n/a	n/a	ICE	11	1	[0, 0, 0]	n/a	FR1	0	R1377M
491.531	1.6	602060	WORD	n/a	wordpools/wordpool_short_EN.txt	STEM	12	1	[0, 0, 0]	n/a	FR1	0	R1377M
493.131	0.002	603659	WORD_OFF	n/a	n/a	STEM	12	1	[0, 0, 0]	n/a	FR1	0	R1377M
493.133	0.0	603659	ENCODING_END	n/a	n/a	n/a	-999	1	[0, 0, 0]	n/a	FR1	0	R1377M
493.132	0.001	603665	PROB	0.001	n/a	n/a	-999	1	[8, 6, 8]	22	FR1	0	R1377M
493.133	0.0	603666	START	n/a	n/a	n/a	-999	1	[-999, -999, -999]	n/a	FR1	0	R1377M
493.133	9.531	603672	DISTRACT_START	n/a	n/a	n/a	-999	1	[0, 0, 0]	n/a	FR1	0	R1377M
502.664	9.136	613197	PROB	9.136	n/a	n/a	-999	1	[7, 1, 8]	16	FR1	0	R1377M
511.8	9.349	622332	PROB	9.349	n/a	n/a	-999	1	[2, 2, 7]	11	FR1	0	R1377M
521.149	0.0	631681	STOP	n/a	n/a	n/a	-999	1	[-999, -999, -999]	n/a	FR1	0	R1377M
521.149	1.2	631683	DISTRACT_END	n/a	n/a	n/a	-999	1	[0, 0, 0]	n/a	FR1	0	R1377M
522.349	1.579	632881	REC_START	n/a	n/a	n/a	-999	1	[0, 0, 0]	n/a	FR1	0	R1377M
523.928	0.245	634460	REC_WORD_VV	0.245	n/a	<>	-999	1	[0, 0, 0]	n/a	FR1	0	R1377M
524.173	0.354	634705	REC_WORD	0.354	n/a	BARN	1	1	[0, 0, 0]	n/a	FR1	0	R1377M
524.527	0.713	635059	REC_WORD	0.713	n/a	TEETH	2	1	[0, 0, 0]	n/a	FR1	0	R1377M
525.24	0.812	635772	REC_WORD	0.812	n/a	MINK	3	1	[0, 0, 0]	n/a	FR1	0	R1377M
526.052	1.768	636584	REC_WORD	1.768	n/a	FLEA	4	1	[0, 0, 0]	n/a	FR1	0	R1377M
527.82	8.395	638351	REC_WORD_VV	8.395	n/a	<>	-999	1	[0, 0, 0]	n/a	FR1	0	R1377M
536.215	2.978	646746	REC_WORD	2.978	n/a	MEN	-999	1	[0, 0, 0]	n/a	FR1	0	R1377M
539.193	0.938	649724	REC_WORD	0.938	n/a	STAR	-999	1	[0, 0, 0]	n/a	FR1	0	R1377M
540.131	1.085	650662	REC_WORD_VV	1.085	n/a	<>	-999	1	[0, 0, 0]	n/a	FR1	0	R1377M
541.216	11.37	651747	REC_WORD_VV	11.37	n/a	<>	-999	1	[0, 0, 0]	n/a	FR1	0	R1377M
552.586	15.996	663110	REC_END	n/a	n/a	n/a	-999	1	[0, 0, 0]	n/a	FR1	0	R1377M
568.582	10.352	679119	COUNTDOWN_START	n/a	n/a	n/a	-999	2	[0, 0, 0]	n/a	FR1	0	R1377M
578.934	0.0	689466	COUNTDOWN_END	n/a	n/a	n/a	-999	2	[0, 0, 0]	n/a	FR1	0	R1377M
578.934	2.148	689466	ENCODING_START	n/a	n/a	n/a	-999	2	[0, 0, 0]	n/a	FR1	0	R1377M
581.082	1.6	691616	WORD	n/a	wordpools/wordpool_short_EN.txt	VEST	1	2	[0, 0, 0]	n/a	FR1	0	R1377M
582.682	0.833	693214	WORD_OFF	n/a	n/a	VEST	1	2	[0, 0, 0]	n/a	FR1	0	R1377M
583.515	1.6	694041	WORD	n/a	wordpools/wordpool_short_EN.txt	PIPE	2	2	[0, 0, 0]	n/a	FR1	0	R1377M
585.115	0.834	695639	WORD_OFF	n/a	n/a	PIPE	2	2	[0, 0, 0]	n/a	FR1	0	R1377M
585.949	1.616	696479	WORD	n/a	wordpools/wordpool_short_EN.txt	EEL	3	2	[0, 0, 0]	n/a	FR1	0	R1377M
587.565	1.0	698091	WORD_OFF	n/a	n/a	EEL	3	2	[0, 0, 0]	n/a	FR1	0	R1377M
588.565	1.6	699097	WORD	n/a	wordpools/wordpool_short_EN.txt	CHALK	4	2	[0, 0, 0]	n/a	FR1	0	R1377M
590.165	0.933	700695	WORD_OFF	n/a	n/a	CHALK	4	2	[0, 0, 0]	n/a	FR1	0	R1377M
591.098	1.6	701632	WORD	n/a	wordpools/wordpool_short_EN.txt	SPARK	5	2	[0, 0, 0]	n/a	FR1	0	R1377M
592.698	0.766	703230	WORD_OFF	n/a	n/a	SPARK	5	2	[0, 0, 0]	n/a	FR1	0	R1377M
593.464	1.601	703988	WORD	n/a	wordpools/wordpool_short_EN.txt	CAGE	6	2	[0, 0, 0]	n/a	FR1	0	R1377M
595.065	0.833	705586	WORD_OFF	n/a	n/a	CAGE	6	2	[0, 0, 0]	n/a	FR1	0	R1377M
595.898	1.6	706427	WORD	n/a	wordpools/wordpool_short_EN.txt	SEAT	7	2	[0, 0, 0]	n/a	FR1	0	R1377M
597.498	0.801	708025	WORD_OFF	n/a	n/a	SEAT	7	2	[0, 0, 0]	n/a	FR1	0	R1377M
598.299	1.6	708824	WORD	n/a	wordpools/wordpool_short_EN.txt	SHOE	8	2	[0, 0, 0]	n/a	FR1	0	R1377M
599.899	0.999	710422	WORD_OFF	n/a	n/a	SHOE	8	2	[0, 0, 0]	n/a	FR1	0	R1377M
600.898	1.601	711428	WORD	n/a	wordpools/wordpool_short_EN.txt	MAIL	9	2	[0, 0, 0]	n/a	FR1	0	R1377M
602.499	0.95	713026	WORD_OFF	n/a	n/a	MAIL	9	2	[0, 0, 0]	n/a	FR1	0	R1377M
603.449	1.6	713977	WORD	n/a	wordpools/wordpool_short_EN.txt	BOX	10	2	[0, 0, 0]	n/a	FR1	0	R1377M
605.049	0.816	715575	WORD_OFF	n/a	n/a	BOX	10	2	[0, 0, 0]	n/a	FR1	0	R1377M
605.865	1.617	716388	WORD	n/a	wordpools/wordpool_short_EN.txt	BLUSH	11	2	[0, 0, 0]	n/a	FR1	0	R1377M
607.482	0.95	718014	WORD_OFF	n/a	n/a	BLUSH	11	2	[0, 0, 0]	n/a	FR1	0	R1377M
608.432	1.616	718965	WORD	n/a	wordpools/wordpool_short_EN.txt	WORM	12	2	[0, 0, 0]	n/a	FR1	0	R1377M
610.048	0.0	720576	PROB	0.0	n/a	n/a	-999	2	[1, 5, 3]	9	FR1	0	R1377M
610.048	0.001	720577	WORD_OFF	n/a	n/a	WORM	12	2	[0, 0, 0]	n/a	FR1	0	R1377M
610.049	0.0	720577	ENCODING_END	n/a	n/a	n/a	-999	2	[0, 0, 0]	n/a	FR1	0	R1377M
610.049	0.0	720577	DISTRACT_START	n/a	n/a	n/a	-999	2	[0, 0, 0]	n/a	FR1	0	R1377M
610.049	6.017	720577	START	n/a	n/a	n/a	-999	2	[-999, -999, -999]	n/a	FR1	0	R1377M
616.066	4.766	726593	PROB	4.766	n/a	n/a	-999	2	[6, 4, 8]	18	FR1	0	R1377M
620.832	6.284	731359	PROB	6.284	n/a	n/a	-999	2	[7, 8, 2]	17	FR1	0	R1377M
627.116	6.616	737643	PROB	6.616	n/a	n/a	-999	2	[6, 6, 7]	19	FR1	0	R1377M
633.732	0.0	744259	STOP	n/a	n/a	n/a	-999	2	[-999, -999, -999]	n/a	FR1	0	R1377M
633.732	1.133	744261	DISTRACT_END	n/a	n/a	n/a	-999	2	[0, 0, 0]	n/a	FR1	0	R1377M
634.865	2.257	745390	REC_START	n/a	n/a	n/a	-999	2	[0, 0, 0]	n/a	FR1	0	R1377M
637.122	0.403	747648	REC_WORD	0.403	n/a	SHOE	8	2	[0, 0, 0]	n/a	FR1	0	R1377M
637.525	0.954	748051	REC_WORD	0.954	n/a	MAIL	9	2	[0, 0, 0]	n/a	FR1	0	R1377M
638.479	0.686	749005	REC_WORD	0.686	n/a	BOX	10	2	[0, 0, 0]	n/a	FR1	0	R1377M
639.165	0.65	749691	REC_WORD	0.65	n/a	BLUSH	11	2	[0, 0, 0]	n/a	FR1	0	R1377M
639.815	25.306	750341	REC_WORD	25.306	n/a	WORM	12	2	[0, 0, 0]	n/a	FR1	0	R1377M
665.121	13.077	775646	REC_END	n/a	n/a	n/a	-999	2	[0, 0, 0]	n/a	FR1	0	R1377M
678.198	10.351	788721	COUNTDOWN_START	n/a	n/a	n/a	-999	3	[0, 0, 0]	n/a	FR1	0	R1377M
688.549	0.0	799069	COUNTDOWN_END	n/a	n/a	n/a	-999	3	[0, 0, 0]	n/a	FR1	0	R1377M
688.549	1.933	799069	ENCODING_START	n/a	n/a	n/a	-999	3	[0, 0, 0]	n/a	FR1	0	R1377M
690.482	1.6	801011	WORD	n/a	wordpools/wordpool_short_EN.txt	APE	1	3	[0, 0, 0]	n/a	FR1	0	R1377M
692.082	0.783	802609	WORD_OFF	n/a	n/a	APE	1	3	[0, 0, 0]	n/a	FR1	0	R1377M
692.865	1.6	803381	WORD	n/a	wordpools/wordpool_short_EN.txt	BONE	2	3	[0, 0, 0]	n/a	FR1	0	R1377M
694.465	0.834	804993	WORD_OFF	n/a	n/a	BONE	2	3	[0, 0, 0]	n/a	FR1	0	R1377M
695.299	1.616	805820	WORD	n/a	wordpools/wordpool_short_EN.txt	BROOM	3	3	[0, 0, 0]	n/a	FR1	0	R1377M
696.915	0.967	807432	WORD_OFF	n/a	n/a	BROOM	3	3	[0, 0, 0]	n/a	FR1	0	R1377M
697.882	1.616	808410	WORD	n/a	wordpools/wordpool_short_EN.txt	BOOK	4	3	[0, 0, 0]	n/a	FR1	0	R1377M
699.498	0.866	810022	WORD_OFF	n/a	n/a	BOOK	4	3	[0, 0, 0]	n/a	FR1	0	R1377M
700.364	1.601	810890	WORD	n/a	wordpools/wordpool_short_EN.txt	HOOK	5	3	[0, 0, 0]	n/a	FR1	0	R1377M
701.965	0.917	812488	WORD_OFF	n/a	n/a	HOOK	5	3	[0, 0, 0]	n/a	FR1	0	R1377M
702.882	1.6	813397	WORD	n/a	wordpools/wordpool_short_EN.txt	PRIZE	6	3	[0, 0, 0]	n/a	FR1	0	R1377M
704.482	0.983	815009	WORD_OFF	n/a	n/a	PRIZE	6	3	[0, 0, 0]	n/a	FR1	0	R1377M
705.465	1.617	815988	WORD	n/a	wordpools/wordpool_short_EN.txt	STEAM	7	3	[0, 0, 0]	n/a	FR1	0	R1377M
707.082	0.95	817600	WORD_OFF	n/a	n/a	STEAM	7	3	[0, 0, 0]	n/a	FR1	0	R1377M
708.032	1.616	818550	WORD	n/a	wordpools/wordpool_short_EN.txt	SALT	8	3	[0, 0, 0]	n/a	FR1	0	R1377M
709.648	0.917	820176	WORD_OFF	n/a	n/a	SALT	8	3	[0, 0, 0]	n/a	FR1	0	R1377M
710.565	1.6	821085	WORD	n/a	wordpools/wordpool_short_EN.txt	STRING	9	3	[0, 0, 0]	n/a	FR1	0	R1377M
712.165	0.867	822684	WORD_OFF	n/a	n/a	STRING	9	3	[0, 0, 0]	n/a	FR1	0	R1377M
713.032	1.616	823552	WORD	n/a	wordpools/wordpool_short_EN.txt	BOY	10	3	[0, 0, 0]	n/a	FR1	0	R1377M
714.648	0.801	825164	WORD_OFF	n/a	n/a	BOY	10	3	[0, 0, 0]	n/a	FR1	0	R1377M
715.449	1.616	825977	WORD	n/a	wordpools/wordpool_short_EN.txt	PORK	11	3	[0, 0, 0]	n/a	FR1	0	R1377M
717.065	0.784	827589	WORD_OFF	n/a	n/a	PORK	11	3	[0, 0, 0]	n/a	FR1	0	R1377M
717.849	1.616	828374	WORD	n/a	wordpools/wordpool_short_EN.txt	SPONGE	12	3	[0, 0, 0]	n/a	FR1	0	R1377M
719.465	0.002	829986	WORD_OFF	n/a	n/a	SPONGE	12	3	[0, 0, 0]	n/a	FR1	0	R1377M
719.467	0.0	829986	ENCODING_END	n/a	n/a	n/a	-999	3	[0, 0, 0]	n/a	FR1	0	R1377M
719.467	0.0	829986	DISTRACT_START	n/a	n/a	n/a	-999	3	[0, 0, 0]	n/a	FR1	0	R1377M
719.466	0.001	829988	PROB	0.001	n/a	n/a	-999	3	[7, 4, 2]	13	FR1	0	R1377M
719.467	6.182	829989	START	n/a	n/a	n/a	-999	3	[-999, -999, -999]	n/a	FR1	0	R1377M
725.649	6.784	836171	PROB	6.784	n/a	n/a	-999	3	[4, 7, 2]	13	FR1	0	R1377M
732.433	6.915	842955	PROB	6.915	n/a	n/a	-999	3	[6, 1, 3]	10	FR1	0	R1377M
739.348	4.25	849870	PROB	4.25	n/a	n/a	-999	3	[4, 1, 5]	10	FR1	0	R1377M
743.598	0.0	854119	STOP	n/a	n/a	n/a	-999	3	[-999, -999, -999]	n/a	FR1	0	R1377M
743.598	1.1	854125	DISTRACT_END	n/a	n/a	n/a	-999	3	[0, 0, 0]	n/a	FR1	0	R1377M
744.698	6.424	855213	REC_START	n/a	n/a	n/a	-999	3	[0, 0, 0]	n/a	FR1	0	R1377M
751.122	0.537	861643	REC_WORD	0.537	n/a	BROOM	3	3	[0, 0, 0]	n/a	FR1	0	R1377M
751.659	0.613	862180	REC_WORD	0.613	n/a	BOOK	4	3	[0, 0, 0]	n/a	FR1	0	R1377M
752.272	0.544	862793	REC_WORD	0.544	n/a	HOOK	5	3	[0, 0, 0]	n/a	FR1	0	R1377M
752.816	2.686	863337	REC_WORD	2.686	n/a	SALT	8	3	[0, 0, 0]	n/a	FR1	0	R1377M
755.502	5.585	866023	REC_WORD	5.585	n/a	STREAM	-999	3	[0, 0, 0]	n/a	FR1	0	R1377M
761.087	2.206	871608	REC_WORD	2.206	n/a	PRIZE	6	3	[0, 0, 0]	n/a	FR1	0	R1377M
763.293	3.348	873813	REC_WORD_VV	3.348	n/a	<>	-999	3	[0, 0, 0]	n/a	FR1	0	R1377M
766.641	1.0	877161	REC_WORD_VV	1.0	n/a	<>	-999	3	[0, 0, 0]	n/a	FR1	0	R1377M
767.641	2.066	878161	REC_WORD_VV	2.066	n/a	<>	-999	3	[0, 0, 0]	n/a	FR1	0	R1377M
769.707	5.228	880227	REC_WORD_VV	5.228	n/a	<>	-999	3	[0, 0, 0]	n/a	FR1	0	R1377M
774.935	41.196	885455	REC_END	n/a	n/a	n/a	-999	3	[0, 0, 0]	n/a	FR1	0	R1377M
816.131	10.351	926651	COUNTDOWN_START	n/a	n/a	n/a	-999	4	[0, 0, 0]	n/a	FR1	0	R1377M
826.482	0.0	936998	COUNTDOWN_END	n/a	n/a	n/a	-999	4	[0, 0, 0]	n/a	FR1	0	R1377M
826.482	2.333	936998	ENCODING_START	n/a	n/a	n/a	-999	4	[0, 0, 0]	n/a	FR1	0	R1377M
828.815	1.616	939326	WORD	n/a	wordpools/wordpool_short_EN.txt	LAMP	1	4	[0, 0, 0]	n/a	FR1	0	R1377M
830.431	0.95	940952	WORD_OFF	n/a	n/a	LAMP	1	4	[0, 0, 0]	n/a	FR1	0	R1377M
831.381	1.6	941903	WORD	n/a	wordpools/wordpool_short_EN.txt	CORK	2	4	[0, 0, 0]	n/a	FR1	0	R1377M
832.981	0.784	943501	WORD_OFF	n/a	n/a	CORK	2	4	[0, 0, 0]	n/a	FR1	0	R1377M
833.765	1.6	944286	WORD	n/a	wordpools/wordpool_short_EN.txt	HARP	3	4	[0, 0, 0]	n/a	FR1	0	R1377M
835.365	0.8	945884	WORD_OFF	n/a	n/a	HARP	3	4	[0, 0, 0]	n/a	FR1	0	R1377M
836.165	1.616	946684	WORD	n/a	wordpools/wordpool_short_EN.txt	PURSE	4	4	[0, 0, 0]	n/a	FR1	0	R1377M
837.781	0.9	948296	WORD_OFF	n/a	n/a	PURSE	4	4	[0, 0, 0]	n/a	FR1	0	R1377M
838.681	1.617	949191	WORD	n/a	wordpools/wordpool_short_EN.txt	CLIFF	5	4	[0, 0, 0]	n/a	FR1	0	R1377M
840.298	1.0	950817	WORD_OFF	n/a	n/a	CLIFF	5	4	[0, 0, 0]	n/a	FR1	0	R1377M
841.298	1.601	951809	WORD	n/a	wordpools/wordpool_short_EN.txt	PIN	6	4	[0, 0, 0]	n/a	FR1	0	R1377M
842.899	0.816	953421	WORD_OFF	n/a	n/a	PIN	6	4	[0, 0, 0]	n/a	FR1	0	R1377M
843.715	1.617	954234	WORD	n/a	wordpools/wordpool_short_EN.txt	PLANT	7	4	[0, 0, 0]	n/a	FR1	0	R1377M
845.332	0.849	955846	WORD_OFF	n/a	n/a	PLANT	7	4	[0, 0, 0]	n/a	FR1	0	R1377M
846.181	1.601	956700	WORD	n/a	wordpools/wordpool_short_EN.txt	MIST	8	4	[0, 0, 0]	n/a	FR1	0	R1377M
847.782	0.951	958298	WORD_OFF	n/a	n/a	MIST	8	4	[0, 0, 0]	n/a	FR1	0	R1377M
848.733	1.616	959249	WORD	n/a	wordpools/wordpool_short_EN.txt	PAGE	9	4	[0, 0, 0]	n/a	FR1	0	R1377M
850.349	0.866	960861	WORD_OFF	n/a	n/a	PAGE	9	4	[0, 0, 0]	n/a	FR1	0	R1377M
851.215	1.617	961729	WORD	n/a	wordpools/wordpool_short_EN.txt	MOUTH	10	4	[0, 0, 0]	n/a	FR1	0	R1377M
852.832	0.8	963341	WORD_OFF	n/a	n/a	MOUTH	10	4	[0, 0, 0]	n/a	FR1	0	R1377M
853.632	1.6	964154	WORD	n/a	wordpools/wordpool_short_EN.txt	CASH	11	4	[0, 0, 0]	n/a	FR1	0	R1377M
855.232	0.833	965752	WORD_OFF	n/a	n/a	CASH	11	4	[0, 0, 0]	n/a	FR1	0	R1377M
856.065	1.617	966579	WORD	n/a	wordpools/wordpool_short_EN.txt	WIG	12	4	[0, 0, 0]	n/a	FR1	0	R1377M
857.682	0.001	968191	WORD_OFF	n/a	n/a	WIG	12	4	[0, 0, 0]	n/a	FR1	0	R1377M
857.683	0.001	968199	PROB	0.001	n/a	n/a	-999	4	[4, 6, 3]	13	FR1	0	R1377M
857.684	0.0	968200	START	n/a	n/a	n/a	-999	4	[-999, -999, -999]	n/a	FR1	0	R1377M
857.684	0.0	968204	ENCODING_END	n/a	n/a	n/a	-999	4	[0, 0, 0]	n/a	FR1	0	R1377M
857.684	5.532	968204	DISTRACT_START	n/a	n/a	n/a	-999	4	[0, 0, 0]	n/a	FR1	0	R1377M
863.216	5.183	973732	PROB	5.183	n/a	n/a	-999	4	[1, 6, 6]	13	FR1	0	R1377M
868.399	6.267	978915	PROB	6.267	n/a	n/a	-999	4	[8, 7, 1]	16	FR1	0	R1377M
874.666	4.582	985181	PROB	4.582	n/a	n/a	-999	4	[2, 6, 7]	15	FR1	0	R1377M
879.248	0.0	989763	STOP	n/a	n/a	n/a	-999	4	[-999, -999, -999]	n/a	FR1	0	R1377M
879.248	1.317	989767	DISTRACT_END	n/a	n/a	n/a	-999	4	[0, 0, 0]	n/a	FR1	0	R1377M
880.565	4.442	991076	REC_START	n/a	n/a	n/a	-999	4	[0, 0, 0]	n/a	FR1	0	R1377M
885.007	0.472	995522	REC_WORD	0.472	n/a	LAMP	1	4	[0, 0, 0]	n/a	FR1	0	R1377M
885.479	1.433	995994	REC_WORD	1.433	n/a	CORK	2	4	[0, 0, 0]	n/a	FR1	0	R1377M
886.912	3.423	997427	REC_WORD	3.423	n/a	HARP	3	4	[0, 0, 0]	n/a	FR1	0	R1377M
890.335	3.911	1000849	REC_WORD_VV	3.911	n/a	<>	-999	4	[0, 0, 0]	n/a	FR1	0	R1377M
894.246	1.545	1004760	REC_WORD	1.545	n/a	CLIP	-999	4	[0, 0, 0]	n/a	FR1	0	R1377M
895.791	4.107	1006305	REC_WORD_VV	4.107	n/a	<>	-999	4	[0, 0, 0]	n/a	FR1	0	R1377M
899.898	2.723	1010412	REC_WORD	2.723	n/a	MIST	8	4	[0, 0, 0]	n/a	FR1	0	R1377M
902.621	8.198	1013135	REC_WORD_VV	8.198	n/a	<>	-999	4	[0, 0, 0]	n/a	FR1	0	R1377M
910.819	58.196	1021331	REC_END	n/a	n/a	n/a	-999	4	[0, 0, 0]	n/a	FR1	0	R1377M
969.015	10.351	1079529	COUNTDOWN_START	n/a	n/a	n/a	-999	5	[0, 0, 0]	n/a	FR1	0	R1377M
979.366	0.0	1089876	COUNTDOWN_END	n/a	n/a	n/a	-999	5	[0, 0, 0]	n/a	FR1	0	R1377M
979.366	2.182	1089876	ENCODING_START	n/a	n/a	n/a	-999	5	[0, 0, 0]	n/a	FR1	0	R1377M
981.548	1.6	1092053	WORD	n/a	wordpools/wordpool_short_EN.txt	SINK	1	5	[0, 0, 0]	n/a	FR1	0	R1377M
983.148	0.85	1093665	WORD_OFF	n/a	n/a	SINK	1	5	[0, 0, 0]	n/a	FR1	0	R1377M
983.998	1.617	1094505	WORD	n/a	wordpools/wordpool_short_EN.txt	SNAKE	2	5	[0, 0, 0]	n/a	FR1	0	R1377M
985.615	0.8	1096117	WORD_OFF	n/a	n/a	SNAKE	2	5	[0, 0, 0]	n/a	FR1	0	R1377M
986.415	1.6	1096930	WORD	n/a	wordpools/wordpool_short_EN.txt	SKUNK	3	5	[0, 0, 0]	n/a	FR1	0	R1377M
988.015	0.8	1098528	WORD_OFF	n/a	n/a	SKUNK	3	5	[0, 0, 0]	n/a	FR1	0	R1377M
988.815	1.617	1099327	WORD	n/a	wordpools/wordpool_short_EN.txt	VASE	4	5	[0, 0, 0]	n/a	FR1	0	R1377M
990.432	0.966	1100939	WORD_OFF	n/a	n/a	VASE	4	5	[0, 0, 0]	n/a	FR1	0	R1377M
991.398	1.6	1101904	WORD	n/a	wordpools/wordpool_short_EN.txt	DITCH	5	5	[0, 0, 0]	n/a	FR1	0	R1377M
992.998	0.883	1103502	WORD_OFF	n/a	n/a	DITCH	5	5	[0, 0, 0]	n/a	FR1	0	R1377M
993.881	1.617	1104384	WORD	n/a	wordpools/wordpool_short_EN.txt	FLAG	6	5	[0, 0, 0]	n/a	FR1	0	R1377M
995.498	0.767	1106010	WORD_OFF	n/a	n/a	FLAG	6	5	[0, 0, 0]	n/a	FR1	0	R1377M
996.265	1.616	1106767	WORD	n/a	wordpools/wordpool_short_EN.txt	PARK	7	5	[0, 0, 0]	n/a	FR1	0	R1377M
997.881	0.784	1108393	WORD_OFF	n/a	n/a	PARK	7	5	[0, 0, 0]	n/a	FR1	0	R1377M
998.665	1.6	1109179	WORD	n/a	wordpools/wordpool_short_EN.txt	RUG	8	5	[0, 0, 0]	n/a	FR1	0	R1377M
1000.265	0.9	1110777	WORD_OFF	n/a	n/a	RUG	8	5	[0, 0, 0]	n/a	FR1	0	R1377M
1001.165	1.6	1111672	WORD	n/a	wordpools/wordpool_short_EN.txt	THREAD	9	5	[0, 0, 0]	n/a	FR1	0	R1377M
1002.765	0.933	1113271	WORD_OFF	n/a	n/a	THREAD	9	5	[0, 0, 0]	n/a	FR1	0	R1377M
1003.698	1.6	1114207	WORD	n/a	wordpools/wordpool_short_EN.txt	THROAT	10	5	[0, 0, 0]	n/a	FR1	0	R1377M
1005.298	0.933	1115806	WORD_OFF	n/a	n/a	THROAT	10	5	[0, 0, 0]	n/a	FR1	0	R1377M
1006.231	1.617	1116743	WORD	n/a	wordpools/wordpool_short_EN.txt	OWL	11	5	[0, 0, 0]	n/a	FR1	0	R1377M
1007.848	0.917	1118355	WORD_OFF	n/a	n/a	OWL	11	5	[0, 0, 0]	n/a	FR1	0	R1377M
1008.765	1.616	1119278	WORD	n/a	wordpools/wordpool_short_EN.txt	FACE	12	5	[0, 0, 0]	n/a	FR1	0	R1377M
1010.381	0.001	1120890	WORD_OFF	n/a	n/a	FACE	12	5	[0, 0, 0]	n/a	FR1	0	R1377M
1010.382	0.001	1120890	ENCODING_END	n/a	n/a	n/a	-999	5	[0, 0, 0]	n/a	FR1	0	R1377M
1010.383	0.0	1120890	DISTRACT_START	n/a	n/a	n/a	-999	5	[0, 0, 0]	n/a	FR1	0	R1377M
1010.381	0.002	1120890	PROB	0.002	n/a	n/a	-999	5	[7, 3, 6]	16	FR1	0	R1377M
1010.383	6.016	1120892	START	n/a	n/a	n/a	-999	5	[-999, -999, -999]	n/a	FR1	0	R1377M
1016.399	5.317	1126908	PROB	5.317	n/a	n/a	-999	5	[8, 8, 8]	24	FR1	0	R1377M
1021.716	6.333	1132224	PROB	6.333	n/a	n/a	-999	5	[5, 1, 8]	14	FR1	0	R1377M
1028.049	7.083	1138557	PROB	7.083	n/a	n/a	-999	5	[2, 5, 6]	13	FR1	0	R1377M
1035.132	0.0	1145634	DISTRACT_END	n/a	n/a	n/a	-999	5	[0, 0, 0]	n/a	FR1	0	R1377M
1035.132	1.033	1145640	STOP	n/a	n/a	n/a	-999	5	[-999, -999, -999]	n/a	FR1	0	R1377M
1036.165	2.513	1146668	REC_START	n/a	n/a	n/a	-999	5	[0, 0, 0]	n/a	FR1	0	R1377M
1038.678	0.706	1149186	REC_WORD	0.706	n/a	SKUNK	3	5	[0, 0, 0]	n/a	FR1	0	R1377M
1039.384	0.575	1149891	REC_WORD	0.575	n/a	VASE	4	5	[0, 0, 0]	n/a	FR1	0	R1377M
1039.959	0.537	1150466	REC_WORD	0.537	n/a	DITCH	5	5	[0, 0, 0]	n/a	FR1	0	R1377M
1040.496	0.889	1151003	REC_WORD	0.889	n/a	FLAG	6	5	[0, 0, 0]	n/a	FR1	0	R1377M
1041.385	18.323	1151892	REC_WORD	18.323	n/a	HARP	-999	5	[0, 0, 0]	n/a	FR1	0	R1377M
1059.708	2.649	1170215	REC_WORD	2.649	n/a	SKUNK	3	5	[0, 0, 0]	n/a	FR1	0	R1377M
1062.357	4.064	1172863	REC_WORD	4.064	n/a	DITCH	5	5	[0, 0, 0]	n/a	FR1	0	R1377M
1066.421	28.86	1176924	REC_END	n/a	n/a	n/a	-999	5	[0, 0, 0]	n/a	FR1	0	R1377M
1095.281	10.352	1205788	COUNTDOWN_START	n/a	n/a	n/a	-999	6	[0, 0, 0]	n/a	FR1	0	R1377M
1105.633	0.0	1216135	COUNTDOWN_END	n/a	n/a	n/a	-999	6	[0, 0, 0]	n/a	FR1	0	R1377M
1105.633	2.166	1216135	ENCODING_START	n/a	n/a	n/a	-999	6	[0, 0, 0]	n/a	FR1	0	R1377M
1107.799	1.616	1218298	WORD	n/a	wordpools/wordpool_short_EN.txt	STONE	1	6	[0, 0, 0]	n/a	FR1	0	R1377M
1109.415	0.984	1219924	WORD_OFF	n/a	n/a	STONE	1	6	[0, 0, 0]	n/a	FR1	0	R1377M
1110.399	1.6	1220902	WORD	n/a	wordpools/wordpool_short_EN.txt	SHARK	2	6	[0, 0, 0]	n/a	FR1	0	R1377M
1111.999	0.85	1222501	WORD_OFF	n/a	n/a	SHARK	2	6	[0, 0, 0]	n/a	FR1	0	R1377M
1112.849	1.6	1223355	WORD	n/a	wordpools/wordpool_short_EN.txt	CONE	3	6	[0, 0, 0]	n/a	FR1	0	R1377M
1114.449	0.899	1224953	WORD_OFF	n/a	n/a	CONE	3	6	[0, 0, 0]	n/a	FR1	0	R1377M
1115.348	1.601	1225849	WORD	n/a	wordpools/wordpool_short_EN.txt	BENCH	4	6	[0, 0, 0]	n/a	FR1	0	R1377M
1116.949	0.933	1227447	WORD_OFF	n/a	n/a	BENCH	4	6	[0, 0, 0]	n/a	FR1	0	R1377M
1117.882	1.6	1228384	WORD	n/a	wordpools/wordpool_short_EN.txt	GOLD	5	6	[0, 0, 0]	n/a	FR1	0	R1377M
1119.482	0.95	1229982	WORD_OFF	n/a	n/a	GOLD	5	6	[0, 0, 0]	n/a	FR1	0	R1377M
1120.432	1.6	1230933	WORD	n/a	wordpools/wordpool_short_EN.txt	POT	6	6	[0, 0, 0]	n/a	FR1	0	R1377M
1122.032	0.967	1232531	WORD_OFF	n/a	n/a	POT	6	6	[0, 0, 0]	n/a	FR1	0	R1377M
1122.999	1.6	1233495	WORD	n/a	wordpools/wordpool_short_EN.txt	MOOSE	7	6	[0, 0, 0]	n/a	FR1	0	R1377M
1124.599	0.933	1235107	WORD_OFF	n/a	n/a	MOOSE	7	6	[0, 0, 0]	n/a	FR1	0	R1377M
1125.532	1.6	1236030	WORD	n/a	wordpools/wordpool_short_EN.txt	BOOT	8	6	[0, 0, 0]	n/a	FR1	0	R1377M
1127.132	0.932	1237629	WORD_OFF	n/a	n/a	BOOT	8	6	[0, 0, 0]	n/a	FR1	0	R1377M
1128.064	1.601	1238566	WORD	n/a	wordpools/wordpool_short_EN.txt	ROCK	9	6	[0, 0, 0]	n/a	FR1	0	R1377M
1129.665	0.9	1240164	WORD_OFF	n/a	n/a	ROCK	9	6	[0, 0, 0]	n/a	FR1	0	R1377M
1130.565	1.617	1241073	WORD	n/a	wordpools/wordpool_short_EN.txt	WOOD	10	6	[0, 0, 0]	n/a	FR1	0	R1377M
1132.182	0.966	1242685	WORD_OFF	n/a	n/a	WOOD	10	6	[0, 0, 0]	n/a	FR1	0	R1377M
1133.148	1.601	1243650	WORD	n/a	wordpools/wordpool_short_EN.txt	HOSE	11	6	[0, 0, 0]	n/a	FR1	0	R1377M
1134.749	0.833	1245248	WORD_OFF	n/a	n/a	HOSE	11	6	[0, 0, 0]	n/a	FR1	0	R1377M
1135.582	1.616	1246088	WORD	n/a	wordpools/wordpool_short_EN.txt	FROST	12	6	[0, 0, 0]	n/a	FR1	0	R1377M
1137.198	0.001	1247700	WORD_OFF	n/a	n/a	FROST	12	6	[0, 0, 0]	n/a	FR1	0	R1377M
1137.199	0.0	1247700	ENCODING_END	n/a	n/a	n/a	-999	6	[0, 0, 0]	n/a	FR1	0	R1377M
1137.199	0.0	1247700	DISTRACT_START	n/a	n/a	n/a	-999	6	[0, 0, 0]	n/a	FR1	0	R1377M
1137.199	0.0	1247702	PROB	0.0	n/a	n/a	-999	6	[1, 8, 5]	14	FR1	0	R1377M
1137.199	9.667	1247702	START	n/a	n/a	n/a	-999	6	[-999, -999, -999]	n/a	FR1	0	R1377M
1146.866	6.9	1257368	PROB	6.9	n/a	n/a	-999	6	[2, 1, 5]	8	FR1	0	R1377M
1153.766	2.766	1264268	PROB	2.766	n/a	n/a	-999	6	[2, 1, 2]	5	FR1	0	R1377M
1156.532	3.049	1267034	PROB	3.049	n/a	n/a	-999	6	[3, 3, 5]	11	FR1	0	R1377M
1159.581	0.0	1270075	DISTRACT_END	n/a	n/a	n/a	-999	6	[0, 0, 0]	n/a	FR1	0	R1377M
1159.581	1.067	1270083	STOP	n/a	n/a	n/a	-999	6	[-999, -999, -999]	n/a	FR1	0	R1377M
1160.648	5.42	1271150	REC_START	n/a	n/a	n/a	-999	6	[0, 0, 0]	n/a	FR1	0	R1377M
1166.068	0.845	1276570	REC_WORD	0.845	n/a	STONE	1	6	[0, 0, 0]	n/a	FR1	0	R1377M
1166.913	0.921	1277414	REC_WORD	0.921	n/a	SHARK	2	6	[0, 0, 0]	n/a	FR1	0	R1377M
1167.834	0.791	1278335	REC_WORD	0.791	n/a	CONE	3	6	[0, 0, 0]	n/a	FR1	0	R1377M
1168.625	1.096	1279126	REC_WORD	1.096	n/a	BENCH	4	6	[0, 0, 0]	n/a	FR1	0	R1377M
1169.721	1.76	1280222	REC_WORD	1.76	n/a	GOLD	5	6	[0, 0, 0]	n/a	FR1	0	R1377M
1171.481	0.786	1281982	REC_WORD	0.786	n/a	POT	6	6	[0, 0, 0]	n/a	FR1	0	R1377M
1172.267	14.855	1282768	REC_WORD	14.855	n/a	MOOSE	7	6	[0, 0, 0]	n/a	FR1	0	R1377M
1187.122	0.796	1297623	REC_WORD	0.796	n/a	ROCK	9	6	[0, 0, 0]	n/a	FR1	0	R1377M
1187.918	2.992	1298419	REC_WORD_VV	2.992	n/a	<>	-999	6	[0, 0, 0]	n/a	FR1	0	R1377M
1190.91	15.388	1301406	REC_END	n/a	n/a	n/a	-999	6	[0, 0, 0]	n/a	FR1	0	R1377M
1206.298	10.351	1316796	COUNTDOWN_START	n/a	n/a	n/a	-999	7	[0, 0, 0]	n/a	FR1	0	R1377M
1216.649	0.001	1327143	COUNTDOWN_END	n/a	n/a	n/a	-999	7	[0, 0, 0]	n/a	FR1	0	R1377M
1216.65	2.315	1327157	ENCODING_START	n/a	n/a	n/a	-999	7	[0, 0, 0]	n/a	FR1	0	R1377M
1218.965	1.6	1329457	WORD	n/a	wordpools/wordpool_short_EN.txt	STRAW	1	7	[0, 0, 0]	n/a	FR1	0	R1377M
1220.565	0.9	1331069	WORD_OFF	n/a	n/a	STRAW	1	7	[0, 0, 0]	n/a	FR1	0	R1377M
1221.465	1.6	1331965	WORD	n/a	wordpools/wordpool_short_EN.txt	TAIL	2	7	[0, 0, 0]	n/a	FR1	0	R1377M
1223.065	0.9	1333563	WORD_OFF	n/a	n/a	TAIL	2	7	[0, 0, 0]	n/a	FR1	0	R1377M
1223.965	1.6	1334459	WORD	n/a	wordpools/wordpool_short_EN.txt	HEEL	3	7	[0, 0, 0]	n/a	FR1	0	R1377M
1225.565	0.966	1336057	WORD_OFF	n/a	n/a	HEEL	3	7	[0, 0, 0]	n/a	FR1	0	R1377M
1226.531	1.601	1337035	WORD	n/a	wordpools/wordpool_short_EN.txt	PIT	4	7	[0, 0, 0]	n/a	FR1	0	R1377M
1228.132	0.767	1338633	WORD_OFF	n/a	n/a	PIT	4	7	[0, 0, 0]	n/a	FR1	0	R1377M
1228.899	1.6	1339391	WORD	n/a	wordpools/wordpool_short_EN.txt	CROWN	5	7	[0, 0, 0]	n/a	FR1	0	R1377M
1230.499	0.883	1341003	WORD_OFF	n/a	n/a	CROWN	5	7	[0, 0, 0]	n/a	FR1	0	R1377M
1231.382	1.6	1341885	WORD	n/a	wordpools/wordpool_short_EN.txt	KEY	6	7	[0, 0, 0]	n/a	FR1	0	R1377M
1232.982	0.85	1343483	WORD_OFF	n/a	n/a	KEY	6	7	[0, 0, 0]	n/a	FR1	0	R1377M
1233.832	1.6	1344324	WORD	n/a	wordpools/wordpool_short_EN.txt	SOUP	7	7	[0, 0, 0]	n/a	FR1	0	R1377M
1235.432	0.866	1345922	WORD_OFF	n/a	n/a	SOUP	7	7	[0, 0, 0]	n/a	FR1	0	R1377M
1236.298	1.6	1346790	WORD	n/a	wordpools/wordpool_short_EN.txt	MUG	8	7	[0, 0, 0]	n/a	FR1	0	R1377M
1237.898	0.767	1348402	WORD_OFF	n/a	n/a	MUG	8	7	[0, 0, 0]	n/a	FR1	0	R1377M
1238.665	1.617	1349160	WORD	n/a	wordpools/wordpool_short_EN.txt	SQUARE	9	7	[0, 0, 0]	n/a	FR1	0	R1377M
1240.282	0.966	1350785	WORD_OFF	n/a	n/a	SQUARE	9	7	[0, 0, 0]	n/a	FR1	0	R1377M
1241.248	1.6	1351750	WORD	n/a	wordpools/wordpool_short_EN.txt	ROOT	10	7	[0, 0, 0]	n/a	FR1	0	R1377M
1242.848	0.867	1353348	WORD_OFF	n/a	n/a	ROOT	10	7	[0, 0, 0]	n/a	FR1	0	R1377M
1243.715	1.617	1354216	WORD	n/a	wordpools/wordpool_short_EN.txt	DART	11	7	[0, 0, 0]	n/a	FR1	0	R1377M
1245.332	0.95	1355828	WORD_OFF	n/a	n/a	DART	11	7	[0, 0, 0]	n/a	FR1	0	R1377M
1246.282	1.599	1356779	WORD	n/a	wordpools/wordpool_short_EN.txt	LIMB	12	7	[0, 0, 0]	n/a	FR1	0	R1377M
1247.881	0.002	1358377	WORD_OFF	n/a	n/a	LIMB	12	7	[0, 0, 0]	n/a	FR1	0	R1377M
1247.883	0.0	1358377	ENCODING_END	n/a	n/a	n/a	-999	7	[0, 0, 0]	n/a	FR1	0	R1377M
1247.883	0.0	1358377	DISTRACT_START	n/a	n/a	n/a	-999	7	[0, 0, 0]	n/a	FR1	0	R1377M
1247.882	0.001	1358380	PROB	0.001	n/a	n/a	-999	7	[7, 8, 5]	20	FR1	0	R1377M
1247.883	11.982	1358381	START	n/a	n/a	n/a	-999	7	[-999, -999, -999]	n/a	FR1	0	R1377M
1259.865	6.601	1370362	PROB	6.601	n/a	n/a	-999	7	[8, 4, 1]	13	FR1	0	R1377M
1266.466	9.083	1376963	PROB	9.083	n/a	n/a	-999	7	[1, 2, 3]	6	FR1	0	R1377M
1275.549	0.0	1386043	DISTRACT_END	n/a	n/a	n/a	-999	7	[0, 0, 0]	n/a	FR1	0	R1377M
1275.549	1.116	1386045	STOP	n/a	n/a	n/a	-999	7	[-999, -999, -999]	n/a	FR1	0	R1377M
1276.665	2.941	1387159	REC_START	n/a	n/a	n/a	-999	7	[0, 0, 0]	n/a	FR1	0	R1377M
1279.606	0.891	1390102	REC_WORD	0.891	n/a	STRAW	1	7	[0, 0, 0]	n/a	FR1	0	R1377M
1280.497	2.16	1390993	REC_WORD	2.16	n/a	TRAIL	-999	7	[0, 0, 0]	n/a	FR1	0	R1377M
1282.657	2.453	1393153	REC_WORD	2.453	n/a	CROWN	5	7	[0, 0, 0]	n/a	FR1	0	R1377M
1285.11	13.587	1395606	REC_WORD_VV	13.587	n/a	<>	-999	7	[0, 0, 0]	n/a	FR1	0	R1377M
1298.697	0.444	1409192	REC_WORD	0.444	n/a	KEY	6	7	[0, 0, 0]	n/a	FR1	0	R1377M
1299.141	1.0	1409636	REC_WORD_VV	1.0	n/a	<>	-999	7	[0, 0, 0]	n/a	FR1	0	R1377M
1300.141	6.785	1410636	REC_WORD_VV	6.785	n/a	<>	-999	7	[0, 0, 0]	n/a	FR1	0	R1377M
1306.926	27.589	1417415	REC_END	n/a	n/a	n/a	-999	7	[0, 0, 0]	n/a	FR1	0	R1377M
1334.515	10.35	1445012	COUNTDOWN_START	n/a	n/a	n/a	-999	8	[0, 0, 0]	n/a	FR1	0	R1377M
1344.865	0.0	1455359	COUNTDOWN_END	n/a	n/a	n/a	-999	8	[0, 0, 0]	n/a	FR1	0	R1377M
1344.865	1.966	1455359	ENCODING_START	n/a	n/a	n/a	-999	8	[0, 0, 0]	n/a	FR1	0	R1377M
1346.831	1.6	1457329	WORD	n/a	wordpools/wordpool_short_EN.txt	TOOTH	1	8	[0, 0, 0]	n/a	FR1	0	R1377M
1348.431	0.767	1458927	WORD_OFF	n/a	n/a	TOOTH	1	8	[0, 0, 0]	n/a	FR1	0	R1377M
1349.198	1.601	1459685	WORD	n/a	wordpools/wordpool_short_EN.txt	FOOD	2	8	[0, 0, 0]	n/a	FR1	0	R1377M
1350.799	0.865	1461297	WORD_OFF	n/a	n/a	FOOD	2	8	[0, 0, 0]	n/a	FR1	0	R1377M
1351.664	1.602	1462151	WORD	n/a	wordpools/wordpool_short_EN.txt	POLE	3	8	[0, 0, 0]	n/a	FR1	0	R1377M
1353.266	0.766	1463763	WORD_OFF	n/a	n/a	POLE	3	8	[0, 0, 0]	n/a	FR1	0	R1377M
1354.032	1.616	1464521	WORD	n/a	wordpools/wordpool_short_EN.txt	RAMP	4	8	[0, 0, 0]	n/a	FR1	0	R1377M
1355.648	0.817	1466133	WORD_OFF	n/a	n/a	RAMP	4	8	[0, 0, 0]	n/a	FR1	0	R1377M
1356.465	1.6	1466960	WORD	n/a	wordpools/wordpool_short_EN.txt	BAY	5	8	[0, 0, 0]	n/a	FR1	0	R1377M
1358.065	0.934	1468558	WORD_OFF	n/a	n/a	BAY	5	8	[0, 0, 0]	n/a	FR1	0	R1377M
1358.999	1.6	1469495	WORD	n/a	wordpools/wordpool_short_EN.txt	CHAIN	6	8	[0, 0, 0]	n/a	FR1	0	R1377M
1360.599	0.9	1471093	WORD_OFF	n/a	n/a	CHAIN	6	8	[0, 0, 0]	n/a	FR1	0	R1377M
1361.499	1.616	1471988	WORD	n/a	wordpools/wordpool_short_EN.txt	BOARD	7	8	[0, 0, 0]	n/a	FR1	0	R1377M
1363.115	0.884	1473600	WORD_OFF	n/a	n/a	BOARD	7	8	[0, 0, 0]	n/a	FR1	0	R1377M
1363.999	1.616	1474496	WORD	n/a	wordpools/wordpool_short_EN.txt	PHONE	8	8	[0, 0, 0]	n/a	FR1	0	R1377M
1365.615	0.967	1476108	WORD_OFF	n/a	n/a	PHONE	8	8	[0, 0, 0]	n/a	FR1	0	R1377M
1366.582	1.617	1477072	WORD	n/a	wordpools/wordpool_short_EN.txt	SHEET	9	8	[0, 0, 0]	n/a	FR1	0	R1377M
1368.199	0.783	1478684	WORD_OFF	n/a	n/a	SHEET	9	8	[0, 0, 0]	n/a	FR1	0	R1377M
1368.982	1.6	1479470	WORD	n/a	wordpools/wordpool_short_EN.txt	MOLE	10	8	[0, 0, 0]	n/a	FR1	0	R1377M
1370.582	1.0	1481068	WORD_OFF	n/a	n/a	MOLE	10	8	[0, 0, 0]	n/a	FR1	0	R1377M
1371.582	1.6	1482074	WORD	n/a	wordpools/wordpool_short_EN.txt	DOG	11	8	[0, 0, 0]	n/a	FR1	0	R1377M
1373.182	1.0	1483672	WORD_OFF	n/a	n/a	DOG	11	8	[0, 0, 0]	n/a	FR1	0	R1377M
1374.182	1.6	1484678	WORD	n/a	wordpools/wordpool_short_EN.txt	BIRD	12	8	[0, 0, 0]	n/a	FR1	0	R1377M
1375.782	0.001	1486274	PROB	0.001	n/a	n/a	-999	8	[6, 7, 4]	17	FR1	0	R1377M
1375.783	0.0	1486275	START	n/a	n/a	n/a	-999	8	[-999, -999, -999]	n/a	FR1	0	R1377M
1375.782	0.001	1486276	WORD_OFF	n/a	n/a	BIRD	12	8	[0, 0, 0]	n/a	FR1	0	R1377M
1375.783	0.0	1486276	ENCODING_END	n/a	n/a	n/a	-999	8	[0, 0, 0]	n/a	FR1	0	R1377M
1375.783	11.75	1486276	DISTRACT_START	n/a	n/a	n/a	-999	8	[0, 0, 0]	n/a	FR1	0	R1377M
1387.533	4.366	1498024	PROB	4.366	n/a	n/a	-999	8	[6, 3, 5]	14	FR1	0	R1377M
1391.899	4.334	1502390	PROB	4.334	n/a	n/a	-999	8	[4, 4, 1]	9	FR1	0	R1377M
1396.233	0.0	1506722	DISTRACT_END	n/a	n/a	n/a	-999	8	[0, 0, 0]	n/a	FR1	0	R1377M
1396.233	1.116	1506724	STOP	n/a	n/a	n/a	-999	8	[-999, -999, -999]	n/a	FR1	0	R1377M
1397.349	4.272	1507838	REC_START	n/a	n/a	n/a	-999	8	[0, 0, 0]	n/a	FR1	0	R1377M
1401.621	0.458	1512111	REC_WORD	0.458	n/a	TOOTH	1	8	[0, 0, 0]	n/a	FR1	0	R1377M
1402.079	0.395	1512569	REC_WORD	0.395	n/a	FOOD	2	8	[0, 0, 0]	n/a	FR1	0	R1377M
1402.474	0.541	1512964	REC_WORD	0.541	n/a	POLE	3	8	[0, 0, 0]	n/a	FR1	0	R1377M
1403.015	1.746	1513505	REC_WORD	1.746	n/a	RAMP	4	8	[0, 0, 0]	n/a	FR1	0	R1377M
1404.761	2.163	1515251	REC_WORD_VV	2.163	n/a	<>	-999	8	[0, 0, 0]	n/a	FR1	0	R1377M
1406.924	0.366	1517414	REC_WORD	0.366	n/a	BAY	5	8	[0, 0, 0]	n/a	FR1	0	R1377M
1407.29	1.084	1517780	REC_WORD	1.084	n/a	CHAIN	6	8	[0, 0, 0]	n/a	FR1	0	R1377M
1408.374	1.827	1518864	REC_WORD	1.827	n/a	BIRD	12	8	[0, 0, 0]	n/a	FR1	0	R1377M
1410.201	17.4	1520691	REC_WORD_VV	17.4	n/a	<>	-999	8	[0, 0, 0]	n/a	FR1	0	R1377M
1427.601	26.048	1538094	REC_END	n/a	n/a	n/a	-999	8	[0, 0, 0]	n/a	FR1	0	R1377M
1453.649	10.35	1564134	COUNTDOWN_START	n/a	n/a	n/a	-999	9	[0, 0, 0]	n/a	FR1	0	R1377M
1463.999	0.001	1574481	COUNTDOWN_END	n/a	n/a	n/a	-999	9	[0, 0, 0]	n/a	FR1	0	R1377M
1464.0	2.115	1574495	ENCODING_START	n/a	n/a	n/a	-999	9	[0, 0, 0]	n/a	FR1	0	R1377M
1466.115	1.6	1576603	WORD	n/a	wordpools/wordpool_short_EN.txt	SEAL	1	9	[0, 0, 0]	n/a	FR1	0	R1377M
1467.715	0.934	1578201	WORD_OFF	n/a	n/a	SEAL	1	9	[0, 0, 0]	n/a	FR1	0	R1377M
1468.649	1.6	1579138	WORD	n/a	wordpools/wordpool_short_EN.txt	FOX	2	9	[0, 0, 0]	n/a	FR1	0	R1377M
1470.249	0.8	1580736	WORD_OFF	n/a	n/a	FOX	2	9	[0, 0, 0]	n/a	FR1	0	R1377M
1471.049	1.6	1581535	WORD	n/a	wordpools/wordpool_short_EN.txt	SLEEVE	3	9	[0, 0, 0]	n/a	FR1	0	R1377M
1472.649	1.0	1583134	WORD_OFF	n/a	n/a	SLEEVE	3	9	[0, 0, 0]	n/a	FR1	0	R1377M
1473.649	1.616	1584139	WORD	n/a	wordpools/wordpool_short_EN.txt	STORE	4	9	[0, 0, 0]	n/a	FR1	0	R1377M
1475.265	0.867	1585751	WORD_OFF	n/a	n/a	STORE	4	9	[0, 0, 0]	n/a	FR1	0	R1377M
1476.132	1.6	1586619	WORD	n/a	wordpools/wordpool_short_EN.txt	COIN	5	9	[0, 0, 0]	n/a	FR1	0	R1377M
1477.732	0.95	1588218	WORD_OFF	n/a	n/a	COIN	5	9	[0, 0, 0]	n/a	FR1	0	R1377M
1478.682	1.6	1589168	WORD	n/a	wordpools/wordpool_short_EN.txt	LOCK	6	9	[0, 0, 0]	n/a	FR1	0	R1377M
1480.282	0.85	1590767	WORD_OFF	n/a	n/a	LOCK	6	9	[0, 0, 0]	n/a	FR1	0	R1377M
1481.132	1.617	1591621	WORD	n/a	wordpools/wordpool_short_EN.txt	PASTE	7	9	[0, 0, 0]	n/a	FR1	0	R1377M
1482.749	0.799	1593233	WORD_OFF	n/a	n/a	PASTE	7	9	[0, 0, 0]	n/a	FR1	0	R1377M
1483.548	1.6	1594032	WORD	n/a	wordpools/wordpool_short_EN.txt	BANK	8	9	[0, 0, 0]	n/a	FR1	0	R1377M
1485.148	0.784	1595630	WORD_OFF	n/a	n/a	BANK	8	9	[0, 0, 0]	n/a	FR1	0	R1377M
1485.932	1.616	1596415	WORD	n/a	wordpools/wordpool_short_EN.txt	CHIN	9	9	[0, 0, 0]	n/a	FR1	0	R1377M
1487.548	0.784	1598041	WORD_OFF	n/a	n/a	CHIN	9	9	[0, 0, 0]	n/a	FR1	0	R1377M
1488.332	1.6	1598813	WORD	n/a	wordpools/wordpool_short_EN.txt	INK	10	9	[0, 0, 0]	n/a	FR1	0	R1377M
1489.932	0.8	1600411	WORD_OFF	n/a	n/a	INK	10	9	[0, 0, 0]	n/a	FR1	0	R1377M
1490.732	1.6	1601224	WORD	n/a	wordpools/wordpool_short_EN.txt	GRASS	11	9	[0, 0, 0]	n/a	FR1	0	R1377M
1492.332	0.883	1602822	WORD_OFF	n/a	n/a	GRASS	11	9	[0, 0, 0]	n/a	FR1	0	R1377M
1493.215	1.6	1603704	WORD	n/a	wordpools/wordpool_short_EN.txt	TREE	12	9	[0, 0, 0]	n/a	FR1	0	R1377M
1494.815	0.0	1605301	PROB	0.0	n/a	n/a	-999	9	[4, 3, 2]	9	FR1	0	R1377M
1494.815	0.001	1605302	WORD_OFF	n/a	n/a	TREE	12	9	[0, 0, 0]	n/a	FR1	0	R1377M
1494.816	0.0	1605302	ENCODING_END	n/a	n/a	n/a	-999	9	[0, 0, 0]	n/a	FR1	0	R1377M
1494.816	0.0	1605302	DISTRACT_START	n/a	n/a	n/a	-999	9	[0, 0, 0]	n/a	FR1	0	R1377M
1494.816	5.632	1605302	START	n/a	n/a	n/a	-999	9	[-999, -999, -999]	n/a	FR1	0	R1377M
1500.448	6.483	1610934	PROB	6.483	n/a	n/a	-999	9	[7, 6, 7]	20	FR1	0	R1377M
1506.931	5.25	1617417	PROB	5.25	n/a	n/a	-999	9	[4, 4, 8]	16	FR1	0	R1377M
1512.181	9.651	1622666	PROB	9.651	n/a	n/a	-999	9	[3, 2, 7]	12	FR1	0	R1377M
1521.832	0.0	1632317	STOP	n/a	n/a	n/a	-999	9	[-999, -999, -999]	n/a	FR1	0	R1377M
1521.832	1.183	1632320	DISTRACT_END	n/a	n/a	n/a	-999	9	[0, 0, 0]	n/a	FR1	0	R1377M
1523.015	2.767	1633505	REC_START	n/a	n/a	n/a	-999	9	[0, 0, 0]	n/a	FR1	0	R1377M
1525.782	0.517	1636267	REC_WORD	0.517	n/a	SLEEVE	3	9	[0, 0, 0]	n/a	FR1	0	R1377M
1526.299	0.694	1636784	REC_WORD	0.694	n/a	STORE	4	9	[0, 0, 0]	n/a	FR1	0	R1377M
1526.993	1.136	1637478	REC_WORD	1.136	n/a	COIN	5	9	[0, 0, 0]	n/a	FR1	0	R1377M
1528.129	2.093	1638614	REC_WORD	2.093	n/a	PASTE	7	9	[0, 0, 0]	n/a	FR1	0	R1377M
1530.222	0.799	1640706	REC_WORD	0.799	n/a	BANK	8	9	[0, 0, 0]	n/a	FR1	0	R1377M
1531.021	1.725	1641505	REC_WORD	1.725	n/a	CHIN	9	9	[0, 0, 0]	n/a	FR1	0	R1377M
1532.746	6.784	1643230	REC_WORD_VV	6.784	n/a	<>	-999	9	[0, 0, 0]	n/a	FR1	0	R1377M
1539.53	1.0	1650014	REC_WORD_VV	1.0	n/a	<>	-999	9	[0, 0, 0]	n/a	FR1	0	R1377M
1540.53	2.051	1651014	REC_WORD_VV	2.051	n/a	<>	-999	9	[0, 0, 0]	n/a	FR1	0	R1377M
1542.581	10.678	1653065	REC_WORD_VV	10.678	n/a	<>	-999	9	[0, 0, 0]	n/a	FR1	0	R1377M
1553.259	36.206	1663747	REC_END	n/a	n/a	n/a	-999	9	[0, 0, 0]	n/a	FR1	0	R1377M
1589.465	10.35	1699942	COUNTDOWN_START	n/a	n/a	n/a	-999	10	[0, 0, 0]	n/a	FR1	0	R1377M
1599.815	0.001	1710302	COUNTDOWN_END	n/a	n/a	n/a	-999	10	[0, 0, 0]	n/a	FR1	0	R1377M
1599.816	2.2	1710302	ENCODING_START	n/a	n/a	n/a	-999	10	[0, 0, 0]	n/a	FR1	0	R1377M
1602.016	1.617	1712493	WORD	n/a	wordpools/wordpool_short_EN.txt	BATH	1	10	[0, 0, 0]	n/a	FR1	0	R1377M
1603.633	0.866	1714119	WORD_OFF	n/a	n/a	BATH	1	10	[0, 0, 0]	n/a	FR1	0	R1377M
1604.499	1.6	1714973	WORD	n/a	wordpools/wordpool_short_EN.txt	NET	2	10	[0, 0, 0]	n/a	FR1	0	R1377M
1606.099	0.866	1716585	WORD_OFF	n/a	n/a	NET	2	10	[0, 0, 0]	n/a	FR1	0	R1377M
1606.965	1.6	1717453	WORD	n/a	wordpools/wordpool_short_EN.txt	SMOKE	3	10	[0, 0, 0]	n/a	FR1	0	R1377M
1608.565	0.934	1719051	WORD_OFF	n/a	n/a	SMOKE	3	10	[0, 0, 0]	n/a	FR1	0	R1377M
1609.499	1.6	1719974	WORD	n/a	wordpools/wordpool_short_EN.txt	EARTH	4	10	[0, 0, 0]	n/a	FR1	0	R1377M
1611.099	0.95	1721573	WORD_OFF	n/a	n/a	EARTH	4	10	[0, 0, 0]	n/a	FR1	0	R1377M
1612.049	1.617	1722523	WORD	n/a	wordpools/wordpool_short_EN.txt	BOLT	5	10	[0, 0, 0]	n/a	FR1	0	R1377M
1613.666	1.0	1724149	WORD_OFF	n/a	n/a	BOLT	5	10	[0, 0, 0]	n/a	FR1	0	R1377M
1614.666	1.599	1725141	WORD	n/a	wordpools/wordpool_short_EN.txt	JET	6	10	[0, 0, 0]	n/a	FR1	0	R1377M
1616.265	0.834	1726739	WORD_OFF	n/a	n/a	JET	6	10	[0, 0, 0]	n/a	FR1	0	R1377M
1617.099	1.616	1727580	WORD	n/a	wordpools/wordpool_short_EN.txt	RIB	7	10	[0, 0, 0]	n/a	FR1	0	R1377M
1618.715	0.866	1729192	WORD_OFF	n/a	n/a	RIB	7	10	[0, 0, 0]	n/a	FR1	0	R1377M
1619.581	1.6	1730060	WORD	n/a	wordpools/wordpool_short_EN.txt	DRAIN	8	10	[0, 0, 0]	n/a	FR1	0	R1377M
1621.181	0.884	1731658	WORD_OFF	n/a	n/a	DRAIN	8	10	[0, 0, 0]	n/a	FR1	0	R1377M
1622.065	1.601	1732540	WORD	n/a	wordpools/wordpool_short_EN.txt	SPEAR	9	10	[0, 0, 0]	n/a	FR1	0	R1377M
1623.666	0.849	1734152	WORD_OFF	n/a	n/a	SPEAR	9	10	[0, 0, 0]	n/a	FR1	0	R1377M
1624.515	1.617	1734992	WORD	n/a	wordpools/wordpool_short_EN.txt	GLOVE	10	10	[0, 0, 0]	n/a	FR1	0	R1377M
1626.132	0.933	1736618	WORD_OFF	n/a	n/a	GLOVE	10	10	[0, 0, 0]	n/a	FR1	0	R1377M
1627.065	1.601	1737541	WORD	n/a	wordpools/wordpool_short_EN.txt	NIGHT	11	10	[0, 0, 0]	n/a	FR1	0	R1377M
1628.666	1.0	1739139	WORD_OFF	n/a	n/a	NIGHT	11	10	[0, 0, 0]	n/a	FR1	0	R1377M
1629.666	1.599	1740145	WORD	n/a	wordpools/wordpool_short_EN.txt	STEW	12	10	[0, 0, 0]	n/a	FR1	0	R1377M
1631.265	0.002	1741743	WORD_OFF	n/a	n/a	STEW	12	10	[0, 0, 0]	n/a	FR1	0	R1377M
1631.267	0.0	1741743	ENCODING_END	n/a	n/a	n/a	-999	10	[0, 0, 0]	n/a	FR1	0	R1377M
1631.267	0.0	1741743	DISTRACT_START	n/a	n/a	n/a	-999	10	[0, 0, 0]	n/a	FR1	0	R1377M
1631.265	0.002	1741745	PROB	0.002	n/a	n/a	-999	10	[4, 6, 7]	17	FR1	0	R1377M
1631.267	7.065	1741747	START	n/a	n/a	n/a	-999	10	[-999, -999, -999]	n/a	FR1	0	R1377M
1638.332	6.018	1748811	PROB	6.018	n/a	n/a	-999	10	[8, 3, 2]	13	FR1	0	R1377M
1644.35	3.899	1754829	PROB	3.899	n/a	n/a	-999	10	[5, 1, 7]	13	FR1	0	R1377M
1648.249	6.283	1758728	PROB	6.283	n/a	n/a	-999	10	[8, 5, 4]	17	FR1	0	R1377M
1654.532	0.0	1765011	STOP	n/a	n/a	n/a	-999	10	[-999, -999, -999]	n/a	FR1	0	R1377M
1654.532	1.233	1765014	DISTRACT_END	n/a	n/a	n/a	-999	10	[0, 0, 0]	n/a	FR1	0	R1377M
1655.765	3.957	1766240	REC_START	n/a	n/a	n/a	-999	10	[0, 0, 0]	n/a	FR1	0	R1377M
1659.722	0.46	1770200	REC_WORD	0.46	n/a	BATH	1	10	[0, 0, 0]	n/a	FR1	0	R1377M
1660.182	0.632	1770660	REC_WORD	0.632	n/a	NET	2	10	[0, 0, 0]	n/a	FR1	0	R1377M
1660.814	0.66	1771292	REC_WORD	0.66	n/a	SMOKE	3	10	[0, 0, 0]	n/a	FR1	0	R1377M
1661.474	1.142	1771952	REC_WORD	1.142	n/a	EARTH	4	10	[0, 0, 0]	n/a	FR1	0	R1377M
1662.616	0.63	1773094	REC_WORD	0.63	n/a	BOLT	5	10	[0, 0, 0]	n/a	FR1	0	R1377M
1663.246	0.915	1773724	REC_WORD	0.915	n/a	JET	6	10	[0, 0, 0]	n/a	FR1	0	R1377M
1664.161	2.667	1774639	REC_WORD	2.667	n/a	DRAIN	8	10	[0, 0, 0]	n/a	FR1	0	R1377M
1666.828	16.827	1777306	REC_WORD_VV	16.827	n/a	<>	-999	10	[0, 0, 0]	n/a	FR1	0	R1377M
1683.655	2.356	1794132	REC_WORD_VV	2.356	n/a	<>	-999	10	[0, 0, 0]	n/a	FR1	0	R1377M
1686.011	13.888	1796482	REC_END	n/a	n/a	n/a	-999	10	[0, 0, 0]	n/a	FR1	0	R1377M
1699.899	10.351	1810370	COUNTDOWN_START	n/a	n/a	n/a	-999	11	[0, 0, 0]	n/a	FR1	0	R1377M
1710.25	0.0	1820731	COUNTDOWN_END	n/a	n/a	n/a	-999	11	[0, 0, 0]	n/a	FR1	0	R1377M
1710.25	2.132	1820731	ENCODING_START	n/a	n/a	n/a	-999	11	[0, 0, 0]	n/a	FR1	0	R1377M
1712.382	1.6	1822853	WORD	n/a	wordpools/wordpool_short_EN.txt	CHIEF	1	11	[0, 0, 0]	n/a	FR1	0	R1377M
1713.982	0.917	1824451	WORD_OFF	n/a	n/a	CHIEF	1	11	[0, 0, 0]	n/a	FR1	0	R1377M
1714.899	1.616	1825374	WORD	n/a	wordpools/wordpool_short_EN.txt	RAKE	2	11	[0, 0, 0]	n/a	FR1	0	R1377M
1716.515	0.967	1826986	WORD_OFF	n/a	n/a	RAKE	2	11	[0, 0, 0]	n/a	FR1	0	R1377M
1717.482	1.616	1827951	WORD	n/a	wordpools/wordpool_short_EN.txt	WAVE	3	11	[0, 0, 0]	n/a	FR1	0	R1377M
1719.098	0.851	1829577	WORD_OFF	n/a	n/a	WAVE	3	11	[0, 0, 0]	n/a	FR1	0	R1377M
1719.949	1.616	1830417	WORD	n/a	wordpools/wordpool_short_EN.txt	WEB	4	11	[0, 0, 0]	n/a	FR1	0	R1377M
1721.565	0.983	1832043	WORD_OFF	n/a	n/a	WEB	4	11	[0, 0, 0]	n/a	FR1	0	R1377M
1722.548	1.6	1833021	WORD	n/a	wordpools/wordpool_short_EN.txt	SEED	5	11	[0, 0, 0]	n/a	FR1	0	R1377M
1724.148	1.0	1834619	WORD_OFF	n/a	n/a	SEED	5	11	[0, 0, 0]	n/a	FR1	0	R1377M
1725.148	1.601	1835625	WORD	n/a	wordpools/wordpool_short_EN.txt	GEESE	6	11	[0, 0, 0]	n/a	FR1	0	R1377M
1726.749	0.833	1837223	WORD_OFF	n/a	n/a	GEESE	6	11	[0, 0, 0]	n/a	FR1	0	R1377M
1727.582	1.6	1838050	WORD	n/a	wordpools/wordpool_short_EN.txt	HOUSE	7	11	[0, 0, 0]	n/a	FR1	0	R1377M
1729.182	0.833	1839662	WORD_OFF	n/a	n/a	HOUSE	7	11	[0, 0, 0]	n/a	FR1	0	R1377M
1730.015	1.601	1840489	WORD	n/a	wordpools/wordpool_short_EN.txt	WHEAT	8	11	[0, 0, 0]	n/a	FR1	0	R1377M
1731.616	0.766	1842087	WORD_OFF	n/a	n/a	WHEAT	8	11	[0, 0, 0]	n/a	FR1	0	R1377M
1732.382	1.617	1842858	WORD	n/a	wordpools/wordpool_short_EN.txt	GLASS	9	11	[0, 0, 0]	n/a	FR1	0	R1377M
1733.999	0.799	1844470	WORD_OFF	n/a	n/a	GLASS	9	11	[0, 0, 0]	n/a	FR1	0	R1377M
1734.798	1.6	1845269	WORD	n/a	wordpools/wordpool_short_EN.txt	SHIELD	10	11	[0, 0, 0]	n/a	FR1	0	R1377M
1736.398	1.0	1846868	WORD_OFF	n/a	n/a	SHIELD	10	11	[0, 0, 0]	n/a	FR1	0	R1377M
1737.398	1.617	1847873	WORD	n/a	wordpools/wordpool_short_EN.txt	TRAY	11	11	[0, 0, 0]	n/a	FR1	0	R1377M
1739.015	0.95	1849485	WORD_OFF	n/a	n/a	TRAY	11	11	[0, 0, 0]	n/a	FR1	0	R1377M
1739.965	1.601	1850436	WORD	n/a	wordpools/wordpool_short_EN.txt	SUIT	12	11	[0, 0, 0]	n/a	FR1	0	R1377M
1741.566	0.0	1852041	PROB	0.0	n/a	n/a	-999	11	[1, 2, 6]	9	FR1	0	R1377M
1741.565	0.009	1852048	WORD_OFF	n/a	n/a	SUIT	12	11	[0, 0, 0]	n/a	FR1	0	R1377M
1741.574	0.0	1852048	ENCODING_END	n/a	n/a	n/a	-999	11	[0, 0, 0]	n/a	FR1	0	R1377M
1741.574	0.0	1852048	DISTRACT_START	n/a	n/a	n/a	-999	11	[0, 0, 0]	n/a	FR1	0	R1377M
1741.574	10.974	1852049	START	n/a	n/a	n/a	-999	11	[-999, -999, -999]	n/a	FR1	0	R1377M
1752.548	5.9	1863022	PROB	5.9	n/a	n/a	-999	11	[5, 4, 8]	17	FR1	0	R1377M
1758.448	6.2	1868922	PROB	6.2	n/a	n/a	-999	11	[7, 4, 5]	16	FR1	0	R1377M
1764.648	0.0	1875121	STOP	n/a	n/a	n/a	-999	11	[-999, -999, -999]	n/a	FR1	0	R1377M
1764.648	1.366	1875126	DISTRACT_END	n/a	n/a	n/a	-999	11	[0, 0, 0]	n/a	FR1	0	R1377M
1766.014	3.308	1876490	REC_START	n/a	n/a	n/a	-999	11	[0, 0, 0]	n/a	FR1	0	R1377M
1769.322	0.505	1879795	REC_WORD	0.505	n/a	WAVE	3	11	[0, 0, 0]	n/a	FR1	0	R1377M
1769.827	0.414	1880300	REC_WORD	0.414	n/a	WEB	4	11	[0, 0, 0]	n/a	FR1	0	R1377M
1770.241	0.571	1880714	REC_WORD	0.571	n/a	SEED	5	11	[0, 0, 0]	n/a	FR1	0	R1377M
1770.812	0.776	1881285	REC_WORD	0.776	n/a	GEESE	6	11	[0, 0, 0]	n/a	FR1	0	R1377M
1771.588	0.385	1882061	REC_WORD	0.385	n/a	HOUSE	7	11	[0, 0, 0]	n/a	FR1	0	R1377M
1771.973	24.262	1882446	REC_WORD	24.262	n/a	TRAY	11	11	[0, 0, 0]	n/a	FR1	0	R1377M
1796.235	6.264	1906704	REC_END	n/a	n/a	n/a	-999	11	[0, 0, 0]	n/a	FR1	0	R1377M
1802.499	10.35	1912973	COUNTDOWN_START	n/a	n/a	n/a	-999	12	[0, 0, 0]	n/a	FR1	0	R1377M
1812.849	0.0	1923320	COUNTDOWN_END	n/a	n/a	n/a	-999	12	[0, 0, 0]	n/a	FR1	0	R1377M
1812.849	2.05	1923320	ENCODING_START	n/a	n/a	n/a	-999	12	[0, 0, 0]	n/a	FR1	0	R1377M
1814.899	1.616	1925373	WORD	n/a	wordpools/wordpool_short_EN.txt	CHILD	1	12	[0, 0, 0]	n/a	FR1	0	R1377M
1816.515	0.883	1926985	WORD_OFF	n/a	n/a	CHILD	1	12	[0, 0, 0]	n/a	FR1	0	R1377M
1817.398	1.617	1927867	WORD	n/a	wordpools/wordpool_short_EN.txt	PALM	2	12	[0, 0, 0]	n/a	FR1	0	R1377M
1819.015	0.916	1929479	WORD_OFF	n/a	n/a	PALM	2	12	[0, 0, 0]	n/a	FR1	0	R1377M
1819.931	1.618	1930402	WORD	n/a	wordpools/wordpool_short_EN.txt	CAPE	3	12	[0, 0, 0]	n/a	FR1	0	R1377M
1821.549	0.849	1932014	WORD_OFF	n/a	n/a	CAPE	3	12	[0, 0, 0]	n/a	FR1	0	R1377M
1822.398	1.601	1932868	WORD	n/a	wordpools/wordpool_short_EN.txt	BLOOD	4	12	[0, 0, 0]	n/a	FR1	0	R1377M
1823.999	0.933	1934467	WORD_OFF	n/a	n/a	BLOOD	4	12	[0, 0, 0]	n/a	FR1	0	R1377M
1824.932	1.6	1935404	WORD	n/a	wordpools/wordpool_short_EN.txt	WEED	5	12	[0, 0, 0]	n/a	FR1	0	R1377M
1826.532	0.833	1937002	WORD_OFF	n/a	n/a	WEED	5	12	[0, 0, 0]	n/a	FR1	0	R1377M
1827.365	1.616	1937828	WORD	n/a	wordpools/wordpool_short_EN.txt	BRICK	6	12	[0, 0, 0]	n/a	FR1	0	R1377M
1828.981	0.984	1939454	WORD_OFF	n/a	n/a	BRICK	6	12	[0, 0, 0]	n/a	FR1	0	R1377M
1829.965	1.617	1940432	WORD	n/a	wordpools/wordpool_short_EN.txt	CAT	7	12	[0, 0, 0]	n/a	FR1	0	R1377M
1831.582	0.883	1942058	WORD_OFF	n/a	n/a	CAT	7	12	[0, 0, 0]	n/a	FR1	0	R1377M
1832.465	1.616	1942940	WORD	n/a	wordpools/wordpool_short_EN.txt	ARK	8	12	[0, 0, 0]	n/a	FR1	0	R1377M
1834.081	0.9	1944552	WORD_OFF	n/a	n/a	ARK	8	12	[0, 0, 0]	n/a	FR1	0	R1377M
1834.981	1.6	1945448	WORD	n/a	wordpools/wordpool_short_EN.txt	PET	9	12	[0, 0, 0]	n/a	FR1	0	R1377M
1836.581	0.967	1947046	WORD_OFF	n/a	n/a	PET	9	12	[0, 0, 0]	n/a	FR1	0	R1377M
1837.548	1.6	1948024	WORD	n/a	wordpools/wordpool_short_EN.txt	BLADE	10	12	[0, 0, 0]	n/a	FR1	0	R1377M
1839.148	1.0	1949622	WORD_OFF	n/a	n/a	BLADE	10	12	[0, 0, 0]	n/a	FR1	0	R1377M
1840.148	1.617	1950614	WORD	n/a	wordpools/wordpool_short_EN.txt	SCHOOL	11	12	[0, 0, 0]	n/a	FR1	0	R1377M
1841.765	0.983	1952240	WORD_OFF	n/a	n/a	SCHOOL	11	12	[0, 0, 0]	n/a	FR1	0	R1377M
1842.748	1.6	1953218	WORD	n/a	wordpools/wordpool_short_EN.txt	STORM	12	12	[0, 0, 0]	n/a	FR1	0	R1377M
1844.348	0.001	1954816	WORD_OFF	n/a	n/a	STORM	12	12	[0, 0, 0]	n/a	FR1	0	R1377M
1844.349	0.0	1954816	ENCODING_END	n/a	n/a	n/a	-999	12	[0, 0, 0]	n/a	FR1	0	R1377M
1844.349	0.0	1954816	DISTRACT_START	n/a	n/a	n/a	-999	12	[0, 0, 0]	n/a	FR1	0	R1377M
1844.348	0.001	1954818	PROB	0.001	n/a	n/a	-999	12	[6, 6, 3]	15	FR1	0	R1377M
1844.349	13.201	1954819	START	n/a	n/a	n/a	-999	12	[-999, -999, -999]	n/a	FR1	0	R1377M
1857.55	9.015	1968019	PROB	9.015	n/a	n/a	-999	12	[4, 1, 5]	10	FR1	0	R1377M
1866.565	0.0	1977026	DISTRACT_END	n/a	n/a	n/a	-999	12	[0, 0, 0]	n/a	FR1	0	R1377M
1866.565	1.284	1977034	STOP	n/a	n/a	n/a	-999	12	[-999, -999, -999]	n/a	FR1	0	R1377M
1867.849	8.683	1978321	REC_START	n/a	n/a	n/a	-999	12	[0, 0, 0]	n/a	FR1	0	R1377M
1876.532	1.801	1987000	REC_WORD	1.801	n/a	CHILD	1	12	[0, 0, 0]	n/a	FR1	0	R1377M
1878.333	2.478	1988801	REC_WORD	2.478	n/a	PALM	2	12	[0, 0, 0]	n/a	FR1	0	R1377M
1880.811	2.147	1991279	REC_WORD_VV	2.147	n/a	<>	-999	12	[0, 0, 0]	n/a	FR1	0	R1377M
1882.958	2.553	1993426	REC_WORD	2.553	n/a	WEED	5	12	[0, 0, 0]	n/a	FR1	0	R1377M
1885.511	2.482	1995979	REC_WORD	2.482	n/a	BLOOD	4	12	[0, 0, 0]	n/a	FR1	0	R1377M
1887.993	5.409	1998461	REC_WORD_VV	5.409	n/a	<>	-999	12	[0, 0, 0]	n/a	FR1	0	R1377M
1893.402	0.295	2003869	REC_WORD_VV	0.295	n/a	<>	-999	12	[0, 0, 0]	n/a	FR1	0	R1377M
1893.697	0.31	2004164	REC_WORD	0.31	n/a	CAKE	-999	12	[0, 0, 0]	n/a	FR1	0	R1377M
1894.007	4.079	2004474	REC_WORD_VV	4.079	n/a	<>	-999	12	[0, 0, 0]	n/a	FR1	0	R1377M
1898.086	0.0	2008550	REC_END	n/a	n/a	n/a	-999	12	[0, 0, 0]	n/a	FR1	0	R1377M
