onset	duration	sample	trial_type	response_time	stim_file	item_name	serialpos	list	test	answer	experiment	session	subject
0.0	0.23	-1	Logging	n/a	n/a	n/a	-999	25	[0, 0, 0]	n/a	FR1	100	R1346T
0.23	0.0	-1	INSTRUCT_START	n/a	n/a	n/a	-999	13	[0, 0, 0]	n/a	FR1	100	R1346T
0.23	0.0	-1	INSTRUCT_END	n/a	n/a	n/a	-999	13	[0, 0, 0]	n/a	FR1	100	R1346T
0.23	0.0	-1	MIC	n/a	n/a	n/a	-999	13	[0, 0, 0]	n/a	FR1	100	R1346T
0.23	0.0	-1	MIC	n/a	n/a	n/a	-999	13	[0, 0, 0]	n/a	FR1	100	R1346T
0.23	0.0	-1	TRIAL_START	n/a	n/a	n/a	-999	-1	[0, 0, 0]	n/a	FR1	100	R1346T
0.23	0.0	-1	TRIAL	n/a	n/a	n/a	-999	-1	[0, 0, 0]	n/a	FR1	100	R1346T
0.23	0.01	-1	WAITING_START	n/a	n/a	n/a	-999	-1	[0, 0, 0]	n/a	FR1	100	R1346T
0.24	686.789	-1	Logging	n/a	n/a	n/a	-999	13	[0, 0, 0]	n/a	FR1	100	R1346T
687.029	0.0	345594	COUNTDOWN_START	n/a	n/a	n/a	-999	-1	[0, 0, 0]	n/a	FR1	100	R1346T
687.029	0.0	345594	ORIENT_START	n/a	n/a	n/a	-999	-1	[0, 0, 0]	n/a	FR1	100	R1346T
687.029	0.0	345594	WAITING_END	n/a	n/a	n/a	-999	-1	[0, 0, 0]	n/a	FR1	100	R1346T
687.029	11.519	345594	COUNTDOWN_END	n/a	n/a	n/a	-999	-1	[0, 0, 0]	n/a	FR1	100	R1346T
698.548	0.0	357112	ORIENT_END	n/a	n/a	n/a	-999	-1	[0, 0, 0]	n/a	FR1	100	R1346T
698.548	0.875	357112	ENCODING_START	n/a	n/a	n/a	-999	-1	[0, 0, 0]	n/a	FR1	100	R1346T
699.423	1.626	357987	WORD	n/a	n/a	IMAGE	1	-1	[0, 0, 0]	n/a	FR1	100	R1346T
701.049	1.129	359613	WORD_OFF	n/a	n/a	IMAGE	1	-1	[0, 0, 0]	n/a	FR1	100	R1346T
702.178	1.639	360742	WORD	n/a	n/a	FLOOD	2	-1	[0, 0, 0]	n/a	FR1	100	R1346T
703.817	1.004	362381	WORD_OFF	n/a	n/a	FLOOD	2	-1	[0, 0, 0]	n/a	FR1	100	R1346T
704.821	1.628	363385	WORD	n/a	n/a	WATCH	3	-1	[0, 0, 0]	n/a	FR1	100	R1346T
706.449	0.84	365013	WORD_OFF	n/a	n/a	WATCH	3	-1	[0, 0, 0]	n/a	FR1	100	R1346T
707.289	1.629	365853	WORD	n/a	n/a	CHEST	4	-1	[0, 0, 0]	n/a	FR1	100	R1346T
708.918	0.795	367482	WORD_OFF	n/a	n/a	CHEST	4	-1	[0, 0, 0]	n/a	FR1	100	R1346T
709.713	1.621	368277	WORD	n/a	n/a	RHINO	5	-1	[0, 0, 0]	n/a	FR1	100	R1346T
711.334	1.01	369898	WORD_OFF	n/a	n/a	RHINO	5	-1	[0, 0, 0]	n/a	FR1	100	R1346T
712.344	1.625	370907	WORD	n/a	n/a	WAGON	6	-1	[0, 0, 0]	n/a	FR1	100	R1346T
713.969	1.054	372532	WORD_OFF	n/a	n/a	WAGON	6	-1	[0, 0, 0]	n/a	FR1	100	R1346T
715.023	1.612	373586	WORD	n/a	n/a	BEAM	7	-1	[0, 0, 0]	n/a	FR1	100	R1346T
716.635	1.113	375198	WORD_OFF	n/a	n/a	BEAM	7	-1	[0, 0, 0]	n/a	FR1	100	R1346T
717.748	1.621	376311	WORD	n/a	n/a	BABY	8	-1	[0, 0, 0]	n/a	FR1	100	R1346T
719.369	0.902	377932	WORD_OFF	n/a	n/a	BABY	8	-1	[0, 0, 0]	n/a	FR1	100	R1346T
720.271	1.616	378834	WORD	n/a	n/a	TONGUE	9	-1	[0, 0, 0]	n/a	FR1	100	R1346T
721.887	0.927	380450	WORD_OFF	n/a	n/a	TONGUE	9	-1	[0, 0, 0]	n/a	FR1	100	R1346T
722.814	1.622	381377	WORD	n/a	n/a	COTTON	10	-1	[0, 0, 0]	n/a	FR1	100	R1346T
724.436	0.881	382999	WORD_OFF	n/a	n/a	COTTON	10	-1	[0, 0, 0]	n/a	FR1	100	R1346T
725.317	1.621	383880	WORD	n/a	n/a	RING	11	-1	[0, 0, 0]	n/a	FR1	100	R1346T
726.938	0.944	385501	WORD_OFF	n/a	n/a	RING	11	-1	[0, 0, 0]	n/a	FR1	100	R1346T
727.882	1.622	386445	WORD	n/a	n/a	CAMEL	12	-1	[0, 0, 0]	n/a	FR1	100	R1346T
729.504	0.0	388067	WORD_OFF	n/a	n/a	CAMEL	12	-1	[0, 0, 0]	n/a	FR1	100	R1346T
729.504	0.0	388067	ENCODING_END	n/a	n/a	n/a	-999	-1	[0, 0, 0]	n/a	FR1	100	R1346T
729.504	0.001	388067	DISTRACT_START	n/a	n/a	n/a	-999	-1	[0, 0, 0]	n/a	FR1	100	R1346T
729.505	0.015	388068	START	n/a	n/a	n/a	-999	-1	[-999, -999, -999]	n/a	FR1	100	R1346T
729.52	4.501	388083	PROB	4.501	n/a	n/a	-999	-1	[5, 2, 3]	10	FR1	100	R1346T
734.021	6.585	392584	PROB	6.585	n/a	n/a	-999	-1	[5, 6, 6]	17	FR1	100	R1346T
740.606	4.534	399168	PROB	4.534	n/a	n/a	-999	-1	[7, 9, 3]	19	FR1	100	R1346T
745.14	5.697	403702	PROB	5.697	n/a	n/a	-999	-1	[2, 3, 6]	11	FR1	100	R1346T
750.837	0.022	409399	STOP	n/a	n/a	n/a	-999	-1	[-999, -999, -999]	n/a	FR1	100	R1346T
750.859	1.146	409421	DISTRACT_END	n/a	n/a	n/a	-999	-1	[0, 0, 0]	n/a	FR1	100	R1346T
752.005	1.02	410567	RETRIEVAL_ORIENT_START	n/a	n/a	n/a	-999	-1	[0, 0, 0]	n/a	FR1	100	R1346T
753.025	0.0	411587	RETRIEVAL_ORIENT_END	n/a	n/a	n/a	-999	-1	[0, 0, 0]	n/a	FR1	100	R1346T
753.025	1.692	411587	REC_START	n/a	n/a	n/a	-999	-1	[0, 0, 0]	n/a	FR1	100	R1346T
754.717	1.878	413279	REC_WORD	1.878	n/a	FLOOD	-999	-1	[0, 0, 0]	n/a	FR1	100	R1346T
756.595	2.223	415157	REC_WORD	2.223	n/a	BEAM	-999	-1	[0, 0, 0]	n/a	FR1	100	R1346T
758.818	3.082	417379	REC_WORD	3.082	n/a	CHEST	-999	-1	[0, 0, 0]	n/a	FR1	100	R1346T
761.9	2.477	420461	REC_WORD_VV	2.477	n/a	<>	-999	-1	[0, 0, 0]	n/a	FR1	100	R1346T
764.377	0.363	422938	REC_WORD_VV	0.363	n/a	<>	-999	-1	[0, 0, 0]	n/a	FR1	100	R1346T
764.74	0.748	423301	REC_WORD	0.748	n/a	IMAGE	-999	-1	[0, 0, 0]	n/a	FR1	100	R1346T
765.488	0.999	424049	REC_WORD_VV	0.999	n/a	<>	-999	-1	[0, 0, 0]	n/a	FR1	100	R1346T
766.487	1.0	425048	REC_WORD_VV	1.0	n/a	<>	-999	-1	[0, 0, 0]	n/a	FR1	100	R1346T
767.487	0.841	426048	REC_WORD_VV	0.841	n/a	<>	-999	-1	[0, 0, 0]	n/a	FR1	100	R1346T
768.328	0.407	426889	REC_WORD	0.407	n/a	IMAGE	-999	-1	[0, 0, 0]	n/a	FR1	100	R1346T
768.735	0.404	427296	REC_WORD	0.404	n/a	FLOOD	-999	-1	[0, 0, 0]	n/a	FR1	100	R1346T
769.139	0.683	427700	REC_WORD	0.683	n/a	WATCH	-999	-1	[0, 0, 0]	n/a	FR1	100	R1346T
769.822	6.321	428383	REC_WORD	6.321	n/a	CHEST	-999	-1	[0, 0, 0]	n/a	FR1	100	R1346T
776.143	1.322	434704	REC_WORD_VV	1.322	n/a	<>	-999	-1	[0, 0, 0]	n/a	FR1	100	R1346T
777.465	6.073	436026	REC_WORD	6.073	n/a	RHINO	-999	-1	[0, 0, 0]	n/a	FR1	100	R1346T
783.538	0.0	442098	REC_END	n/a	n/a	n/a	-999	-1	[0, 0, 0]	n/a	FR1	100	R1346T
783.538	12.295	442098	PRACTICE_POST_INSTRUCT_START	n/a	n/a	n/a	-999	-1	[0, 0, 0]	n/a	FR1	100	R1346T
795.833	0.0	454393	PRACTICE_POST_INSTRUCT_END	n/a	n/a	n/a	-999	-1	[0, 0, 0]	n/a	FR1	100	R1346T
795.833	0.0	454393	TRIAL_END	n/a	n/a	n/a	-999	-1	[0, 0, 0]	n/a	FR1	100	R1346T
795.833	0.0	454393	TRIAL_START	n/a	n/a	n/a	-999	1	[0, 0, 0]	n/a	FR1	100	R1346T
795.833	0.0	454393	TRIAL	n/a	n/a	n/a	-999	1	[0, 0, 0]	n/a	FR1	100	R1346T
795.833	82.799	454393	WAITING_START	n/a	n/a	n/a	-999	1	[0, 0, 0]	n/a	FR1	100	R1346T
878.632	0.0	537188	ORIENT_START	n/a	n/a	n/a	-999	1	[0, 0, 0]	n/a	FR1	100	R1346T
878.632	0.0	537188	COUNTDOWN_END	n/a	n/a	n/a	-999	1	[0, 0, 0]	n/a	FR1	100	R1346T
878.632	0.0	537188	WAITING_END	n/a	n/a	n/a	-999	1	[0, 0, 0]	n/a	FR1	100	R1346T
878.632	11.618	537188	COUNTDOWN_START	n/a	n/a	n/a	-999	1	[0, 0, 0]	n/a	FR1	100	R1346T
890.25	0.0	548806	ORIENT_END	n/a	n/a	n/a	-999	1	[0, 0, 0]	n/a	FR1	100	R1346T
890.25	1.149	548806	ENCODING_START	n/a	n/a	n/a	-999	1	[0, 0, 0]	n/a	FR1	100	R1346T
891.399	1.634	549955	WORD	n/a	wordpools/wordpool_EN.txt	SLIME	1	1	[0, 0, 0]	n/a	FR1	100	R1346T
893.033	0.822	551589	WORD_OFF	n/a	n/a	SLIME	1	1	[0, 0, 0]	n/a	FR1	100	R1346T
893.855	1.629	552411	WORD	n/a	wordpools/wordpool_EN.txt	TOOTH	2	1	[0, 0, 0]	n/a	FR1	100	R1346T
895.484	1.117	554039	WORD_OFF	n/a	n/a	TOOTH	2	1	[0, 0, 0]	n/a	FR1	100	R1346T
896.601	1.633	555156	WORD	n/a	wordpools/wordpool_EN.txt	LAKE	3	1	[0, 0, 0]	n/a	FR1	100	R1346T
898.234	0.936	556789	WORD_OFF	n/a	n/a	LAKE	3	1	[0, 0, 0]	n/a	FR1	100	R1346T
899.17	1.616	557725	WORD	n/a	wordpools/wordpool_EN.txt	SHRIMP	4	1	[0, 0, 0]	n/a	FR1	100	R1346T
900.786	0.881	559341	WORD_OFF	n/a	n/a	SHRIMP	4	1	[0, 0, 0]	n/a	FR1	100	R1346T
901.667	1.635	560222	WORD	n/a	wordpools/wordpool_EN.txt	SEED	5	1	[0, 0, 0]	n/a	FR1	100	R1346T
903.302	0.906	561857	WORD_OFF	n/a	n/a	SEED	5	1	[0, 0, 0]	n/a	FR1	100	R1346T
904.208	1.629	562763	WORD	n/a	wordpools/wordpool_EN.txt	HORSE	6	1	[0, 0, 0]	n/a	FR1	100	R1346T
905.837	0.909	564392	WORD_OFF	n/a	n/a	HORSE	6	1	[0, 0, 0]	n/a	FR1	100	R1346T
906.746	1.624	565301	WORD	n/a	wordpools/wordpool_EN.txt	HEART	7	1	[0, 0, 0]	n/a	FR1	100	R1346T
908.37	0.982	566925	WORD_OFF	n/a	n/a	HEART	7	1	[0, 0, 0]	n/a	FR1	100	R1346T
909.352	1.636	567907	WORD	n/a	wordpools/wordpool_EN.txt	SPOON	8	1	[0, 0, 0]	n/a	FR1	100	R1346T
910.988	1.126	569543	WORD_OFF	n/a	n/a	SPOON	8	1	[0, 0, 0]	n/a	FR1	100	R1346T
912.114	1.624	570669	WORD	n/a	wordpools/wordpool_EN.txt	MAZE	9	1	[0, 0, 0]	n/a	FR1	100	R1346T
913.738	1.057	572293	WORD_OFF	n/a	n/a	MAZE	9	1	[0, 0, 0]	n/a	FR1	100	R1346T
914.795	1.626	573350	WORD	n/a	wordpools/wordpool_EN.txt	WING	10	1	[0, 0, 0]	n/a	FR1	100	R1346T
916.421	0.779	574976	WORD_OFF	n/a	n/a	WING	10	1	[0, 0, 0]	n/a	FR1	100	R1346T
917.2	1.622	575755	WORD	n/a	wordpools/wordpool_EN.txt	INK	11	1	[0, 0, 0]	n/a	FR1	100	R1346T
918.822	0.916	577376	WORD_OFF	n/a	n/a	INK	11	1	[0, 0, 0]	n/a	FR1	100	R1346T
919.738	1.634	578292	WORD	n/a	wordpools/wordpool_EN.txt	FRUIT	12	1	[0, 0, 0]	n/a	FR1	100	R1346T
921.372	0.0	579926	WORD_OFF	n/a	n/a	FRUIT	12	1	[0, 0, 0]	n/a	FR1	100	R1346T
921.372	0.0	579926	ENCODING_END	n/a	n/a	n/a	-999	1	[0, 0, 0]	n/a	FR1	100	R1346T
921.372	0.001	579926	DISTRACT_START	n/a	n/a	n/a	-999	1	[0, 0, 0]	n/a	FR1	100	R1346T
921.373	0.016	579927	START	n/a	n/a	n/a	-999	1	[-999, -999, -999]	n/a	FR1	100	R1346T
921.389	6.801	579943	PROB	6.801	n/a	n/a	-999	1	[5, 9, 4]	18	FR1	100	R1346T
928.19	4.668	586744	PROB	4.668	n/a	n/a	-999	1	[7, 2, 6]	15	FR1	100	R1346T
932.858	3.5	591412	PROB	3.5	n/a	n/a	-999	1	[1, 9, 3]	13	FR1	100	R1346T
936.358	4.034	594912	PROB	4.034	n/a	n/a	-999	1	[7, 5, 2]	14	FR1	100	R1346T
940.392	18.306	598946	PROB	18.306	n/a	n/a	-999	1	[9, 7, 8]	24	FR1	100	R1346T
958.698	0.015	617251	STOP	n/a	n/a	n/a	-999	1	[-999, -999, -999]	n/a	FR1	100	R1346T
958.713	1.229	617266	DISTRACT_END	n/a	n/a	n/a	-999	1	[0, 0, 0]	n/a	FR1	100	R1346T
959.942	1.022	618495	RETRIEVAL_ORIENT_START	n/a	n/a	n/a	-999	1	[0, 0, 0]	n/a	FR1	100	R1346T
960.964	0.0	619517	RETRIEVAL_ORIENT_END	n/a	n/a	n/a	-999	1	[0, 0, 0]	n/a	FR1	100	R1346T
960.964	2.025	619517	REC_START	n/a	n/a	n/a	-999	1	[0, 0, 0]	n/a	FR1	100	R1346T
962.989	1.845	621542	REC_WORD_VV	1.845	n/a	<>	-999	1	[0, 0, 0]	n/a	FR1	100	R1346T
964.834	3.47	623386	REC_WORD	3.47	n/a	SLIME	1	1	[0, 0, 0]	n/a	FR1	100	R1346T
968.304	1.641	626856	REC_WORD_VV	1.641	n/a	<>	-999	1	[0, 0, 0]	n/a	FR1	100	R1346T
969.945	3.893	628497	REC_WORD_VV	3.893	n/a	<>	-999	1	[0, 0, 0]	n/a	FR1	100	R1346T
973.838	3.2	632390	REC_WORD	3.2	n/a	MAZE	9	1	[0, 0, 0]	n/a	FR1	100	R1346T
977.038	14.44	635590	REC_WORD	14.44	n/a	HEART	7	1	[0, 0, 0]	n/a	FR1	100	R1346T
991.478	0.0	650029	REC_END	n/a	n/a	n/a	-999	1	[0, 0, 0]	n/a	FR1	100	R1346T
991.478	0.0	650029	TRIAL_END	n/a	n/a	n/a	-999	1	[0, 0, 0]	n/a	FR1	100	R1346T
991.478	0.0	650029	TRIAL_START	n/a	n/a	n/a	-999	2	[0, 0, 0]	n/a	FR1	100	R1346T
991.478	0.0	650029	TRIAL	n/a	n/a	n/a	-999	2	[0, 0, 0]	n/a	FR1	100	R1346T
991.478	12.709	650029	WAITING_START	n/a	n/a	n/a	-999	2	[0, 0, 0]	n/a	FR1	100	R1346T
1004.187	0.0	662738	COUNTDOWN_START	n/a	n/a	n/a	-999	2	[0, 0, 0]	n/a	FR1	100	R1346T
1004.187	0.0	662738	COUNTDOWN_END	n/a	n/a	n/a	-999	2	[0, 0, 0]	n/a	FR1	100	R1346T
1004.187	0.0	662738	ORIENT_START	n/a	n/a	n/a	-999	2	[0, 0, 0]	n/a	FR1	100	R1346T
1004.187	11.503	662738	WAITING_END	n/a	n/a	n/a	-999	2	[0, 0, 0]	n/a	FR1	100	R1346T
1015.69	0.0	674240	ORIENT_END	n/a	n/a	n/a	-999	2	[0, 0, 0]	n/a	FR1	100	R1346T
1015.69	1.045	674240	ENCODING_START	n/a	n/a	n/a	-999	2	[0, 0, 0]	n/a	FR1	100	R1346T
1016.735	1.638	675285	WORD	n/a	wordpools/wordpool_EN.txt	BRICK	1	2	[0, 0, 0]	n/a	FR1	100	R1346T
1018.373	0.983	676923	WORD_OFF	n/a	n/a	BRICK	1	2	[0, 0, 0]	n/a	FR1	100	R1346T
1019.356	1.635	677906	WORD	n/a	wordpools/wordpool_EN.txt	CUP	2	2	[0, 0, 0]	n/a	FR1	100	R1346T
1020.991	0.848	679541	WORD_OFF	n/a	n/a	CUP	2	2	[0, 0, 0]	n/a	FR1	100	R1346T
1021.839	1.635	680389	WORD	n/a	wordpools/wordpool_EN.txt	BEE	3	2	[0, 0, 0]	n/a	FR1	100	R1346T
1023.474	0.98	682024	WORD_OFF	n/a	n/a	BEE	3	2	[0, 0, 0]	n/a	FR1	100	R1346T
1024.454	1.637	683004	WORD	n/a	wordpools/wordpool_EN.txt	SOAP	4	2	[0, 0, 0]	n/a	FR1	100	R1346T
1026.091	1.089	684641	WORD_OFF	n/a	n/a	SOAP	4	2	[0, 0, 0]	n/a	FR1	100	R1346T
1027.18	1.629	685730	WORD	n/a	wordpools/wordpool_EN.txt	CAGE	5	2	[0, 0, 0]	n/a	FR1	100	R1346T
1028.809	0.889	687359	WORD_OFF	n/a	n/a	CAGE	5	2	[0, 0, 0]	n/a	FR1	100	R1346T
1029.698	1.627	688248	WORD	n/a	wordpools/wordpool_EN.txt	WAVE	6	2	[0, 0, 0]	n/a	FR1	100	R1346T
1031.325	1.05	689875	WORD_OFF	n/a	n/a	WAVE	6	2	[0, 0, 0]	n/a	FR1	100	R1346T
1032.375	1.634	690925	WORD	n/a	wordpools/wordpool_EN.txt	ARM	7	2	[0, 0, 0]	n/a	FR1	100	R1346T
1034.009	1.145	692558	WORD_OFF	n/a	n/a	ARM	7	2	[0, 0, 0]	n/a	FR1	100	R1346T
1035.154	1.606	693703	WORD	n/a	wordpools/wordpool_EN.txt	PEA	8	2	[0, 0, 0]	n/a	FR1	100	R1346T
1036.76	0.77	695309	WORD_OFF	n/a	n/a	PEA	8	2	[0, 0, 0]	n/a	FR1	100	R1346T
1037.53	1.63	696079	WORD	n/a	wordpools/wordpool_EN.txt	HORN	9	2	[0, 0, 0]	n/a	FR1	100	R1346T
1039.16	0.973	697709	WORD_OFF	n/a	n/a	HORN	9	2	[0, 0, 0]	n/a	FR1	100	R1346T
1040.133	1.612	698682	WORD	n/a	wordpools/wordpool_EN.txt	SOUP	10	2	[0, 0, 0]	n/a	FR1	100	R1346T
1041.745	1.136	700294	WORD_OFF	n/a	n/a	SOUP	10	2	[0, 0, 0]	n/a	FR1	100	R1346T
1042.881	1.63	701430	WORD	n/a	wordpools/wordpool_EN.txt	BROOM	11	2	[0, 0, 0]	n/a	FR1	100	R1346T
1044.511	0.834	703060	WORD_OFF	n/a	n/a	BROOM	11	2	[0, 0, 0]	n/a	FR1	100	R1346T
1045.345	1.634	703894	WORD	n/a	wordpools/wordpool_EN.txt	SPRING	12	2	[0, 0, 0]	n/a	FR1	100	R1346T
1046.979	0.0	705528	WORD_OFF	n/a	n/a	SPRING	12	2	[0, 0, 0]	n/a	FR1	100	R1346T
1046.979	0.0	705528	ENCODING_END	n/a	n/a	n/a	-999	2	[0, 0, 0]	n/a	FR1	100	R1346T
1046.979	0.001	705528	DISTRACT_START	n/a	n/a	n/a	-999	2	[0, 0, 0]	n/a	FR1	100	R1346T
1046.98	0.016	705529	START	n/a	n/a	n/a	-999	2	[-999, -999, -999]	n/a	FR1	100	R1346T
1046.996	4.6	705545	PROB	4.6	n/a	n/a	-999	2	[7, 5, 2]	14	FR1	100	R1346T
1051.596	5.118	710145	PROB	5.118	n/a	n/a	-999	2	[2, 3, 3]	8	FR1	100	R1346T
1056.714	2.85	715262	PROB	2.85	n/a	n/a	-999	2	[3, 5, 1]	9	FR1	100	R1346T
1059.564	9.832	718112	PROB	9.832	n/a	n/a	-999	2	[4, 8, 3]	15	FR1	100	R1346T
1069.396	0.019	727944	STOP	n/a	n/a	n/a	-999	2	[-999, -999, -999]	n/a	FR1	100	R1346T
1069.415	1.139	727963	DISTRACT_END	n/a	n/a	n/a	-999	2	[0, 0, 0]	n/a	FR1	100	R1346T
1070.554	1.029	729102	RETRIEVAL_ORIENT_START	n/a	n/a	n/a	-999	2	[0, 0, 0]	n/a	FR1	100	R1346T
1071.583	0.0	730131	RETRIEVAL_ORIENT_END	n/a	n/a	n/a	-999	2	[0, 0, 0]	n/a	FR1	100	R1346T
1071.583	3.128	730131	REC_START	n/a	n/a	n/a	-999	2	[0, 0, 0]	n/a	FR1	100	R1346T
1074.711	3.192	733259	REC_WORD	3.192	n/a	BROOM	11	2	[0, 0, 0]	n/a	FR1	100	R1346T
1077.903	3.459	736451	REC_WORD	3.459	n/a	CUP	2	2	[0, 0, 0]	n/a	FR1	100	R1346T
1081.362	10.099	739909	REC_WORD	10.099	n/a	BRICK	1	2	[0, 0, 0]	n/a	FR1	100	R1346T
1091.461	2.691	750008	REC_WORD	2.691	n/a	WING	-999	2	[0, 0, 0]	n/a	FR1	100	R1346T
1094.152	6.263	752699	REC_WORD_VV	6.263	n/a	<>	-999	2	[0, 0, 0]	n/a	FR1	100	R1346T
1100.415	1.68	758962	REC_WORD_VV	1.68	n/a	<>	-999	2	[0, 0, 0]	n/a	FR1	100	R1346T
1102.095	0.0	760641	TRIAL_START	n/a	n/a	n/a	-999	3	[0, 0, 0]	n/a	FR1	100	R1346T
1102.095	0.0	760641	WAITING_START	n/a	n/a	n/a	-999	3	[0, 0, 0]	n/a	FR1	100	R1346T
1102.095	0.0	760641	TRIAL	n/a	n/a	n/a	-999	3	[0, 0, 0]	n/a	FR1	100	R1346T
1102.095	0.0	760641	TRIAL_END	n/a	n/a	n/a	-999	2	[0, 0, 0]	n/a	FR1	100	R1346T
1102.095	7.779	760641	REC_END	n/a	n/a	n/a	-999	2	[0, 0, 0]	n/a	FR1	100	R1346T
1109.874	0.0	768420	ORIENT_START	n/a	n/a	n/a	-999	3	[0, 0, 0]	n/a	FR1	100	R1346T
1109.874	0.0	768420	WAITING_END	n/a	n/a	n/a	-999	3	[0, 0, 0]	n/a	FR1	100	R1346T
1109.874	0.0	768420	COUNTDOWN_START	n/a	n/a	n/a	-999	3	[0, 0, 0]	n/a	FR1	100	R1346T
1109.874	11.534	768420	COUNTDOWN_END	n/a	n/a	n/a	-999	3	[0, 0, 0]	n/a	FR1	100	R1346T
1121.408	0.0	779954	ORIENT_END	n/a	n/a	n/a	-999	3	[0, 0, 0]	n/a	FR1	100	R1346T
1121.408	0.921	779954	ENCODING_START	n/a	n/a	n/a	-999	3	[0, 0, 0]	n/a	FR1	100	R1346T
1122.329	1.631	780875	WORD	n/a	wordpools/wordpool_EN.txt	LIP	1	3	[0, 0, 0]	n/a	FR1	100	R1346T
1123.96	0.969	782506	WORD_OFF	n/a	n/a	LIP	1	3	[0, 0, 0]	n/a	FR1	100	R1346T
1124.929	1.63	783474	WORD	n/a	wordpools/wordpool_EN.txt	STOOL	2	3	[0, 0, 0]	n/a	FR1	100	R1346T
1126.559	0.802	785104	WORD_OFF	n/a	n/a	STOOL	2	3	[0, 0, 0]	n/a	FR1	100	R1346T
1127.361	1.616	785906	WORD	n/a	wordpools/wordpool_EN.txt	RIB	3	3	[0, 0, 0]	n/a	FR1	100	R1346T
1128.977	0.859	787522	WORD_OFF	n/a	n/a	RIB	3	3	[0, 0, 0]	n/a	FR1	100	R1346T
1129.836	1.624	788381	WORD	n/a	wordpools/wordpool_EN.txt	MOOSE	4	3	[0, 0, 0]	n/a	FR1	100	R1346T
1131.46	0.988	790005	WORD_OFF	n/a	n/a	MOOSE	4	3	[0, 0, 0]	n/a	FR1	100	R1346T
1132.448	1.629	790993	WORD	n/a	wordpools/wordpool_EN.txt	PHONE	5	3	[0, 0, 0]	n/a	FR1	100	R1346T
1134.077	0.987	792622	WORD_OFF	n/a	n/a	PHONE	5	3	[0, 0, 0]	n/a	FR1	100	R1346T
1135.064	1.614	793609	WORD	n/a	wordpools/wordpool_EN.txt	SHIP	6	3	[0, 0, 0]	n/a	FR1	100	R1346T
1136.678	1.02	795223	WORD_OFF	n/a	n/a	SHIP	6	3	[0, 0, 0]	n/a	FR1	100	R1346T
1137.698	1.63	796243	WORD	n/a	wordpools/wordpool_EN.txt	DOCK	7	3	[0, 0, 0]	n/a	FR1	100	R1346T
1139.328	1.103	797873	WORD_OFF	n/a	n/a	DOCK	7	3	[0, 0, 0]	n/a	FR1	100	R1346T
1140.431	1.631	798976	WORD	n/a	wordpools/wordpool_EN.txt	SALT	8	3	[0, 0, 0]	n/a	FR1	100	R1346T
1142.062	0.9	800607	WORD_OFF	n/a	n/a	SALT	8	3	[0, 0, 0]	n/a	FR1	100	R1346T
1142.962	1.634	801507	WORD	n/a	wordpools/wordpool_EN.txt	ROOM	9	3	[0, 0, 0]	n/a	FR1	100	R1346T
1144.596	0.995	803141	WORD_OFF	n/a	n/a	ROOM	9	3	[0, 0, 0]	n/a	FR1	100	R1346T
1145.591	1.622	804136	WORD	n/a	wordpools/wordpool_EN.txt	BOARD	10	3	[0, 0, 0]	n/a	FR1	100	R1346T
1147.213	0.757	805758	WORD_OFF	n/a	n/a	BOARD	10	3	[0, 0, 0]	n/a	FR1	100	R1346T
1147.97	1.627	806514	WORD	n/a	wordpools/wordpool_EN.txt	MOON	11	3	[0, 0, 0]	n/a	FR1	100	R1346T
1149.597	0.753	808141	WORD_OFF	n/a	n/a	MOON	11	3	[0, 0, 0]	n/a	FR1	100	R1346T
1150.35	1.615	808894	WORD	n/a	wordpools/wordpool_EN.txt	GOAT	12	3	[0, 0, 0]	n/a	FR1	100	R1346T
1151.965	0.0	810509	WORD_OFF	n/a	n/a	GOAT	12	3	[0, 0, 0]	n/a	FR1	100	R1346T
1151.965	0.0	810509	ENCODING_END	n/a	n/a	n/a	-999	3	[0, 0, 0]	n/a	FR1	100	R1346T
1151.965	0.001	810509	DISTRACT_START	n/a	n/a	n/a	-999	3	[0, 0, 0]	n/a	FR1	100	R1346T
1151.966	0.015	810510	START	n/a	n/a	n/a	-999	3	[-999, -999, -999]	n/a	FR1	100	R1346T
1151.981	6.484	810525	PROB	6.484	n/a	n/a	-999	3	[5, 2, 7]	14	FR1	100	R1346T
1158.465	3.567	817009	PROB	3.567	n/a	n/a	-999	3	[1, 1, 3]	5	FR1	100	R1346T
1162.032	8.853	820576	PROB	8.853	n/a	n/a	-999	3	[9, 3, 4]	16	FR1	100	R1346T
1170.885	8.42	829428	PROB	8.42	n/a	n/a	-999	3	[4, 4, 5]	16	FR1	100	R1346T
1179.305	0.014	837848	STOP	n/a	n/a	n/a	-999	3	[-999, -999, -999]	n/a	FR1	100	R1346T
1179.319	1.253	837862	DISTRACT_END	n/a	n/a	n/a	-999	3	[0, 0, 0]	n/a	FR1	100	R1346T
1180.572	1.031	839115	RETRIEVAL_ORIENT_START	n/a	n/a	n/a	-999	3	[0, 0, 0]	n/a	FR1	100	R1346T
1181.603	0.0	840146	REC_START	n/a	n/a	n/a	-999	3	[0, 0, 0]	n/a	FR1	100	R1346T
1181.603	1.378	840146	RETRIEVAL_ORIENT_END	n/a	n/a	n/a	-999	3	[0, 0, 0]	n/a	FR1	100	R1346T
1182.981	0.875	841524	REC_WORD_VV	0.875	n/a	<>	-999	3	[0, 0, 0]	n/a	FR1	100	R1346T
1183.856	4.53	842399	REC_WORD	4.53	n/a	BROOM	-999	3	[0, 0, 0]	n/a	FR1	100	R1346T
1188.386	1.365	846929	REC_WORD	1.365	n/a	RIB	3	3	[0, 0, 0]	n/a	FR1	100	R1346T
1189.751	22.365	848294	REC_WORD	22.365	n/a	SALT	8	3	[0, 0, 0]	n/a	FR1	100	R1346T
1212.116	0.0	870658	REC_END	n/a	n/a	n/a	-999	3	[0, 0, 0]	n/a	FR1	100	R1346T
1212.116	0.0	870658	TRIAL_END	n/a	n/a	n/a	-999	3	[0, 0, 0]	n/a	FR1	100	R1346T
1212.116	0.0	870658	TRIAL_START	n/a	n/a	n/a	-999	4	[0, 0, 0]	n/a	FR1	100	R1346T
1212.116	0.0	870658	TRIAL	n/a	n/a	n/a	-999	4	[0, 0, 0]	n/a	FR1	100	R1346T
1212.116	9.645	870658	WAITING_START	n/a	n/a	n/a	-999	4	[0, 0, 0]	n/a	FR1	100	R1346T
1221.761	0.0	880302	WAITING_END	n/a	n/a	n/a	-999	4	[0, 0, 0]	n/a	FR1	100	R1346T
1221.761	0.0	880302	COUNTDOWN_END	n/a	n/a	n/a	-999	4	[0, 0, 0]	n/a	FR1	100	R1346T
1221.761	0.0	880302	ORIENT_START	n/a	n/a	n/a	-999	4	[0, 0, 0]	n/a	FR1	100	R1346T
1221.761	11.601	880302	COUNTDOWN_START	n/a	n/a	n/a	-999	4	[0, 0, 0]	n/a	FR1	100	R1346T
1233.362	0.0	891903	ORIENT_END	n/a	n/a	n/a	-999	4	[0, 0, 0]	n/a	FR1	100	R1346T
1233.362	1.132	891903	ENCODING_START	n/a	n/a	n/a	-999	4	[0, 0, 0]	n/a	FR1	100	R1346T
1234.494	1.635	893035	WORD	n/a	wordpools/wordpool_EN.txt	SAIL	1	4	[0, 0, 0]	n/a	FR1	100	R1346T
1236.129	0.959	894670	WORD_OFF	n/a	n/a	SAIL	1	4	[0, 0, 0]	n/a	FR1	100	R1346T
1237.088	1.626	895629	WORD	n/a	wordpools/wordpool_EN.txt	SNOW	2	4	[0, 0, 0]	n/a	FR1	100	R1346T
1238.714	0.848	897255	WORD_OFF	n/a	n/a	SNOW	2	4	[0, 0, 0]	n/a	FR1	100	R1346T
1239.562	1.635	898102	WORD	n/a	wordpools/wordpool_EN.txt	LOCK	3	4	[0, 0, 0]	n/a	FR1	100	R1346T
1241.197	0.944	899737	WORD_OFF	n/a	n/a	LOCK	3	4	[0, 0, 0]	n/a	FR1	100	R1346T
1242.141	1.607	900681	WORD	n/a	wordpools/wordpool_EN.txt	POND	4	4	[0, 0, 0]	n/a	FR1	100	R1346T
1243.748	0.904	902288	WORD_OFF	n/a	n/a	POND	4	4	[0, 0, 0]	n/a	FR1	100	R1346T
1244.652	1.629	903192	WORD	n/a	wordpools/wordpool_EN.txt	FOX	5	4	[0, 0, 0]	n/a	FR1	100	R1346T
1246.281	0.8	904821	WORD_OFF	n/a	n/a	FOX	5	4	[0, 0, 0]	n/a	FR1	100	R1346T
1247.081	1.635	905621	WORD	n/a	wordpools/wordpool_EN.txt	FORT	6	4	[0, 0, 0]	n/a	FR1	100	R1346T
1248.716	0.877	907256	WORD_OFF	n/a	n/a	FORT	6	4	[0, 0, 0]	n/a	FR1	100	R1346T
1249.593	1.639	908133	WORD	n/a	wordpools/wordpool_EN.txt	HOOK	7	4	[0, 0, 0]	n/a	FR1	100	R1346T
1251.232	0.817	909772	WORD_OFF	n/a	n/a	HOOK	7	4	[0, 0, 0]	n/a	FR1	100	R1346T
1252.049	1.618	910589	WORD	n/a	wordpools/wordpool_EN.txt	FLUTE	8	4	[0, 0, 0]	n/a	FR1	100	R1346T
1253.667	1.062	912207	WORD_OFF	n/a	n/a	FLUTE	8	4	[0, 0, 0]	n/a	FR1	100	R1346T
1254.729	1.637	913269	WORD	n/a	wordpools/wordpool_EN.txt	DUCK	9	4	[0, 0, 0]	n/a	FR1	100	R1346T
1256.366	1.095	914906	WORD_OFF	n/a	n/a	DUCK	9	4	[0, 0, 0]	n/a	FR1	100	R1346T
1257.461	1.622	916001	WORD	n/a	wordpools/wordpool_EN.txt	GOLD	10	4	[0, 0, 0]	n/a	FR1	100	R1346T
1259.083	0.924	917623	WORD_OFF	n/a	n/a	GOLD	10	4	[0, 0, 0]	n/a	FR1	100	R1346T
1260.007	1.628	918547	WORD	n/a	wordpools/wordpool_EN.txt	FORK	11	4	[0, 0, 0]	n/a	FR1	100	R1346T
1261.635	1.091	920175	WORD_OFF	n/a	n/a	FORK	11	4	[0, 0, 0]	n/a	FR1	100	R1346T
1262.726	1.625	921265	WORD	n/a	wordpools/wordpool_EN.txt	PANTS	12	4	[0, 0, 0]	n/a	FR1	100	R1346T
1264.351	0.0	922890	DISTRACT_START	n/a	n/a	n/a	-999	4	[0, 0, 0]	n/a	FR1	100	R1346T
1264.351	0.0	922890	WORD_OFF	n/a	n/a	PANTS	12	4	[0, 0, 0]	n/a	FR1	100	R1346T
1264.351	0.001	922890	ENCODING_END	n/a	n/a	n/a	-999	4	[0, 0, 0]	n/a	FR1	100	R1346T
1264.352	0.016	922891	START	n/a	n/a	n/a	-999	4	[-999, -999, -999]	n/a	FR1	100	R1346T
1264.368	4.618	922907	PROB	4.618	n/a	n/a	-999	4	[1, 9, 5]	15	FR1	100	R1346T
1268.986	3.55	927525	PROB	3.55	n/a	n/a	-999	4	[3, 9, 1]	13	FR1	100	R1346T
1272.536	4.784	931075	PROB	4.784	n/a	n/a	-999	4	[7, 4, 8]	19	FR1	100	R1346T
1277.32	4.767	935859	PROB	4.767	n/a	n/a	-999	4	[2, 6, 5]	13	FR1	100	R1346T
1282.087	21.315	940626	PROB	21.315	n/a	n/a	-999	4	[3, 3, 9]	15	FR1	100	R1346T
1303.402	0.006	961940	STOP	n/a	n/a	n/a	-999	4	[-999, -999, -999]	n/a	FR1	100	R1346T
1303.408	1.13	961946	DISTRACT_END	n/a	n/a	n/a	-999	4	[0, 0, 0]	n/a	FR1	100	R1346T
1304.538	1.02	963076	RETRIEVAL_ORIENT_START	n/a	n/a	n/a	-999	4	[0, 0, 0]	n/a	FR1	100	R1346T
1305.558	0.0	964096	RETRIEVAL_ORIENT_END	n/a	n/a	n/a	-999	4	[0, 0, 0]	n/a	FR1	100	R1346T
1305.558	3.929	964096	REC_START	n/a	n/a	n/a	-999	4	[0, 0, 0]	n/a	FR1	100	R1346T
1309.487	3.43	968024	REC_WORD_VV	3.43	n/a	<>	-999	4	[0, 0, 0]	n/a	FR1	100	R1346T
1312.917	12.473	971454	REC_WORD_VV	12.473	n/a	<>	-999	4	[0, 0, 0]	n/a	FR1	100	R1346T
1325.39	10.682	983927	REC_WORD_VV	10.682	n/a	<>	-999	4	[0, 0, 0]	n/a	FR1	100	R1346T
1336.072	0.0	994608	REC_END	n/a	n/a	n/a	-999	4	[0, 0, 0]	n/a	FR1	100	R1346T
1336.072	0.0	994608	TRIAL_END	n/a	n/a	n/a	-999	4	[0, 0, 0]	n/a	FR1	100	R1346T
1336.072	0.0	994608	TRIAL_START	n/a	n/a	n/a	-999	5	[0, 0, 0]	n/a	FR1	100	R1346T
1336.072	0.0	994608	TRIAL	n/a	n/a	n/a	-999	5	[0, 0, 0]	n/a	FR1	100	R1346T
1336.072	22.963	994608	WAITING_START	n/a	n/a	n/a	-999	5	[0, 0, 0]	n/a	FR1	100	R1346T
1359.035	0.0	1017570	COUNTDOWN_END	n/a	n/a	n/a	-999	5	[0, 0, 0]	n/a	FR1	100	R1346T
1359.035	0.0	1017570	ORIENT_START	n/a	n/a	n/a	-999	5	[0, 0, 0]	n/a	FR1	100	R1346T
1359.035	0.0	1017570	WAITING_END	n/a	n/a	n/a	-999	5	[0, 0, 0]	n/a	FR1	100	R1346T
1359.035	11.535	1017570	COUNTDOWN_START	n/a	n/a	n/a	-999	5	[0, 0, 0]	n/a	FR1	100	R1346T
1370.57	0.0	1029105	ORIENT_END	n/a	n/a	n/a	-999	5	[0, 0, 0]	n/a	FR1	100	R1346T
1370.57	0.924	1029105	ENCODING_START	n/a	n/a	n/a	-999	5	[0, 0, 0]	n/a	FR1	100	R1346T
1371.494	1.627	1030029	WORD	n/a	wordpools/wordpool_EN.txt	HOLE	1	5	[0, 0, 0]	n/a	FR1	100	R1346T
1373.121	1.125	1031656	WORD_OFF	n/a	n/a	HOLE	1	5	[0, 0, 0]	n/a	FR1	100	R1346T
1374.246	1.61	1032781	WORD	n/a	wordpools/wordpool_EN.txt	VEST	2	5	[0, 0, 0]	n/a	FR1	100	R1346T
1375.856	0.969	1034391	WORD_OFF	n/a	n/a	VEST	2	5	[0, 0, 0]	n/a	FR1	100	R1346T
1376.825	1.63	1035360	WORD	n/a	wordpools/wordpool_EN.txt	HOOF	3	5	[0, 0, 0]	n/a	FR1	100	R1346T
1378.455	0.994	1036989	WORD_OFF	n/a	n/a	HOOF	3	5	[0, 0, 0]	n/a	FR1	100	R1346T
1379.449	1.623	1037983	WORD	n/a	wordpools/wordpool_EN.txt	STICK	4	5	[0, 0, 0]	n/a	FR1	100	R1346T
1381.072	0.853	1039606	WORD_OFF	n/a	n/a	STICK	4	5	[0, 0, 0]	n/a	FR1	100	R1346T
1381.925	1.631	1040459	WORD	n/a	wordpools/wordpool_EN.txt	PEACH	5	5	[0, 0, 0]	n/a	FR1	100	R1346T
1383.556	0.914	1042090	WORD_OFF	n/a	n/a	PEACH	5	5	[0, 0, 0]	n/a	FR1	100	R1346T
1384.47	1.636	1043004	WORD	n/a	wordpools/wordpool_EN.txt	BUSH	6	5	[0, 0, 0]	n/a	FR1	100	R1346T
1386.106	0.796	1044640	WORD_OFF	n/a	n/a	BUSH	6	5	[0, 0, 0]	n/a	FR1	100	R1346T
1386.902	1.621	1045436	WORD	n/a	wordpools/wordpool_EN.txt	PEN	7	5	[0, 0, 0]	n/a	FR1	100	R1346T
1388.523	1.048	1047057	WORD_OFF	n/a	n/a	PEN	7	5	[0, 0, 0]	n/a	FR1	100	R1346T
1389.571	1.636	1048105	WORD	n/a	wordpools/wordpool_EN.txt	FOOT	8	5	[0, 0, 0]	n/a	FR1	100	R1346T
1391.207	0.846	1049741	WORD_OFF	n/a	n/a	FOOT	8	5	[0, 0, 0]	n/a	FR1	100	R1346T
1392.053	1.622	1050587	WORD	n/a	wordpools/wordpool_EN.txt	PEAR	9	5	[0, 0, 0]	n/a	FR1	100	R1346T
1393.675	1.119	1052209	WORD_OFF	n/a	n/a	PEAR	9	5	[0, 0, 0]	n/a	FR1	100	R1346T
1394.794	1.631	1053328	WORD	n/a	wordpools/wordpool_EN.txt	WORLD	10	5	[0, 0, 0]	n/a	FR1	100	R1346T
1396.425	0.767	1054959	WORD_OFF	n/a	n/a	WORLD	10	5	[0, 0, 0]	n/a	FR1	100	R1346T
1397.192	1.634	1055726	WORD	n/a	wordpools/wordpool_EN.txt	CROWN	11	5	[0, 0, 0]	n/a	FR1	100	R1346T
1398.826	1.016	1057360	WORD_OFF	n/a	n/a	CROWN	11	5	[0, 0, 0]	n/a	FR1	100	R1346T
1399.842	1.634	1058375	WORD	n/a	wordpools/wordpool_EN.txt	WEED	12	5	[0, 0, 0]	n/a	FR1	100	R1346T
1401.476	0.0	1060009	WORD_OFF	n/a	n/a	WEED	12	5	[0, 0, 0]	n/a	FR1	100	R1346T
1401.476	0.0	1060009	ENCODING_END	n/a	n/a	n/a	-999	5	[0, 0, 0]	n/a	FR1	100	R1346T
1401.476	0.001	1060009	DISTRACT_START	n/a	n/a	n/a	-999	5	[0, 0, 0]	n/a	FR1	100	R1346T
1401.477	0.015	1060010	START	n/a	n/a	n/a	-999	5	[-999, -999, -999]	n/a	FR1	100	R1346T
1401.492	8.635	1060025	PROB	8.635	n/a	n/a	-999	5	[2, 5, 6]	13	FR1	100	R1346T
1410.127	3.552	1068660	PROB	3.552	n/a	n/a	-999	5	[2, 8, 1]	11	FR1	100	R1346T
1413.679	6.767	1072212	PROB	6.767	n/a	n/a	-999	5	[1, 8, 4]	13	FR1	100	R1346T
1420.446	9.095	1078979	PROB	9.095	n/a	n/a	-999	5	[3, 6, 7]	16	FR1	100	R1346T
1429.541	0.006	1088073	STOP	n/a	n/a	n/a	-999	5	[-999, -999, -999]	n/a	FR1	100	R1346T
1429.547	1.174	1088079	DISTRACT_END	n/a	n/a	n/a	-999	5	[0, 0, 0]	n/a	FR1	100	R1346T
1430.721	1.028	1089253	RETRIEVAL_ORIENT_START	n/a	n/a	n/a	-999	5	[0, 0, 0]	n/a	FR1	100	R1346T
1431.749	0.0	1090281	RETRIEVAL_ORIENT_END	n/a	n/a	n/a	-999	5	[0, 0, 0]	n/a	FR1	100	R1346T
1431.749	3.84	1090281	REC_START	n/a	n/a	n/a	-999	5	[0, 0, 0]	n/a	FR1	100	R1346T
1435.589	2.232	1094121	REC_WORD	2.232	n/a	HOOF	3	5	[0, 0, 0]	n/a	FR1	100	R1346T
1437.821	14.151	1096353	REC_WORD_VV	14.151	n/a	<>	-999	5	[0, 0, 0]	n/a	FR1	100	R1346T
1451.972	10.29	1110503	REC_WORD	10.29	n/a	HOLE	1	5	[0, 0, 0]	n/a	FR1	100	R1346T
1462.262	0.0	1120793	WAITING_START	n/a	n/a	n/a	-999	6	[0, 0, 0]	n/a	FR1	100	R1346T
1462.262	0.0	1120793	TRIAL	n/a	n/a	n/a	-999	6	[0, 0, 0]	n/a	FR1	100	R1346T
1462.262	0.0	1120793	TRIAL_END	n/a	n/a	n/a	-999	5	[0, 0, 0]	n/a	FR1	100	R1346T
1462.262	0.0	1120793	REC_END	n/a	n/a	n/a	-999	5	[0, 0, 0]	n/a	FR1	100	R1346T
1462.262	9.694	1120793	TRIAL_START	n/a	n/a	n/a	-999	6	[0, 0, 0]	n/a	FR1	100	R1346T
1471.956	0.0	1130486	WAITING_END	n/a	n/a	n/a	-999	6	[0, 0, 0]	n/a	FR1	100	R1346T
1471.956	0.0	1130486	COUNTDOWN_START	n/a	n/a	n/a	-999	6	[0, 0, 0]	n/a	FR1	100	R1346T
1471.956	0.0	1130486	COUNTDOWN_END	n/a	n/a	n/a	-999	6	[0, 0, 0]	n/a	FR1	100	R1346T
1471.956	11.485	1130486	ORIENT_START	n/a	n/a	n/a	-999	6	[0, 0, 0]	n/a	FR1	100	R1346T
1483.441	0.0	1141971	ORIENT_END	n/a	n/a	n/a	-999	6	[0, 0, 0]	n/a	FR1	100	R1346T
1483.441	1.028	1141971	ENCODING_START	n/a	n/a	n/a	-999	6	[0, 0, 0]	n/a	FR1	100	R1346T
1484.469	1.622	1142999	WORD	n/a	wordpools/wordpool_EN.txt	COIN	1	6	[0, 0, 0]	n/a	FR1	100	R1346T
1486.091	0.811	1144621	WORD_OFF	n/a	n/a	COIN	1	6	[0, 0, 0]	n/a	FR1	100	R1346T
1486.902	1.623	1145432	WORD	n/a	wordpools/wordpool_EN.txt	BOMB	2	6	[0, 0, 0]	n/a	FR1	100	R1346T
1488.525	0.939	1147055	WORD_OFF	n/a	n/a	BOMB	2	6	[0, 0, 0]	n/a	FR1	100	R1346T
1489.464	1.628	1147994	WORD	n/a	wordpools/wordpool_EN.txt	NET	3	6	[0, 0, 0]	n/a	FR1	100	R1346T
1491.092	0.836	1149622	WORD_OFF	n/a	n/a	NET	3	6	[0, 0, 0]	n/a	FR1	100	R1346T
1491.928	1.631	1150457	WORD	n/a	wordpools/wordpool_EN.txt	TOAD	4	6	[0, 0, 0]	n/a	FR1	100	R1346T
1493.559	0.813	1152088	WORD_OFF	n/a	n/a	TOAD	4	6	[0, 0, 0]	n/a	FR1	100	R1346T
1494.372	1.605	1152901	WORD	n/a	wordpools/wordpool_EN.txt	ANT	5	6	[0, 0, 0]	n/a	FR1	100	R1346T
1495.977	0.773	1154506	WORD_OFF	n/a	n/a	ANT	5	6	[0, 0, 0]	n/a	FR1	100	R1346T
1496.75	1.627	1155279	WORD	n/a	wordpools/wordpool_EN.txt	BED	6	6	[0, 0, 0]	n/a	FR1	100	R1346T
1498.377	0.802	1156906	WORD_OFF	n/a	n/a	BED	6	6	[0, 0, 0]	n/a	FR1	100	R1346T
1499.179	1.615	1157708	WORD	n/a	wordpools/wordpool_EN.txt	GLOVE	7	6	[0, 0, 0]	n/a	FR1	100	R1346T
1500.794	1.121	1159323	WORD_OFF	n/a	n/a	GLOVE	7	6	[0, 0, 0]	n/a	FR1	100	R1346T
1501.915	1.629	1160444	WORD	n/a	wordpools/wordpool_EN.txt	FLOOR	8	6	[0, 0, 0]	n/a	FR1	100	R1346T
1503.544	1.07	1162073	WORD_OFF	n/a	n/a	FLOOR	8	6	[0, 0, 0]	n/a	FR1	100	R1346T
1504.614	1.631	1163143	WORD	n/a	wordpools/wordpool_EN.txt	BAND	9	6	[0, 0, 0]	n/a	FR1	100	R1346T
1506.245	1.054	1164774	WORD_OFF	n/a	n/a	BAND	9	6	[0, 0, 0]	n/a	FR1	100	R1346T
1507.299	1.631	1165828	WORD	n/a	wordpools/wordpool_EN.txt	SHARK	10	6	[0, 0, 0]	n/a	FR1	100	R1346T
1508.93	1.141	1167459	WORD_OFF	n/a	n/a	SHARK	10	6	[0, 0, 0]	n/a	FR1	100	R1346T
1510.071	1.626	1168600	WORD	n/a	wordpools/wordpool_EN.txt	CANE	11	6	[0, 0, 0]	n/a	FR1	100	R1346T
1511.697	0.847	1170226	WORD_OFF	n/a	n/a	CANE	11	6	[0, 0, 0]	n/a	FR1	100	R1346T
1512.544	1.636	1171073	WORD	n/a	wordpools/wordpool_EN.txt	STEM	12	6	[0, 0, 0]	n/a	FR1	100	R1346T
1514.18	0.0	1172709	DISTRACT_START	n/a	n/a	n/a	-999	6	[0, 0, 0]	n/a	FR1	100	R1346T
1514.18	0.0	1172709	ENCODING_END	n/a	n/a	n/a	-999	6	[0, 0, 0]	n/a	FR1	100	R1346T
1514.18	0.001	1172709	WORD_OFF	n/a	n/a	STEM	12	6	[0, 0, 0]	n/a	FR1	100	R1346T
1514.181	0.015	1172710	START	n/a	n/a	n/a	-999	6	[-999, -999, -999]	n/a	FR1	100	R1346T
1514.196	14.72	1172725	PROB	14.72	n/a	n/a	-999	6	[6, 8, 8]	22	FR1	100	R1346T
1528.916	7.534	1187444	PROB	7.534	n/a	n/a	-999	6	[3, 2, 3]	8	FR1	100	R1346T
1536.45	0.017	1194978	STOP	n/a	n/a	n/a	-999	6	[-999, -999, -999]	n/a	FR1	100	R1346T
1536.467	1.08	1194995	DISTRACT_END	n/a	n/a	n/a	-999	6	[0, 0, 0]	n/a	FR1	100	R1346T
1537.547	1.02	1196074	RETRIEVAL_ORIENT_START	n/a	n/a	n/a	-999	6	[0, 0, 0]	n/a	FR1	100	R1346T
1538.567	0.0	1197094	RETRIEVAL_ORIENT_END	n/a	n/a	n/a	-999	6	[0, 0, 0]	n/a	FR1	100	R1346T
1538.567	3.643	1197094	REC_START	n/a	n/a	n/a	-999	6	[0, 0, 0]	n/a	FR1	100	R1346T
1542.21	26.869	1200737	REC_WORD_VV	26.869	n/a	<>	-999	6	[0, 0, 0]	n/a	FR1	100	R1346T
1569.079	0.0	1227605	WAITING_START	n/a	n/a	n/a	-999	7	[0, 0, 0]	n/a	FR1	100	R1346T
1569.079	0.0	1227605	TRIAL	n/a	n/a	n/a	-999	7	[0, 0, 0]	n/a	FR1	100	R1346T
1569.079	0.0	1227605	TRIAL_END	n/a	n/a	n/a	-999	6	[0, 0, 0]	n/a	FR1	100	R1346T
1569.079	0.0	1227605	TRIAL_START	n/a	n/a	n/a	-999	7	[0, 0, 0]	n/a	FR1	100	R1346T
1569.079	7.646	1227605	REC_END	n/a	n/a	n/a	-999	6	[0, 0, 0]	n/a	FR1	100	R1346T
1576.725	0.0	1235251	WAITING_END	n/a	n/a	n/a	-999	7	[0, 0, 0]	n/a	FR1	100	R1346T
1576.725	0.0	1235251	COUNTDOWN_START	n/a	n/a	n/a	-999	7	[0, 0, 0]	n/a	FR1	100	R1346T
1576.725	0.0	1235251	COUNTDOWN_END	n/a	n/a	n/a	-999	7	[0, 0, 0]	n/a	FR1	100	R1346T
1576.725	11.635	1235251	ORIENT_START	n/a	n/a	n/a	-999	7	[0, 0, 0]	n/a	FR1	100	R1346T
1588.36	0.0	1246885	ORIENT_END	n/a	n/a	n/a	-999	7	[0, 0, 0]	n/a	FR1	100	R1346T
1588.36	0.856	1246885	ENCODING_START	n/a	n/a	n/a	-999	7	[0, 0, 0]	n/a	FR1	100	R1346T
1589.216	1.612	1247741	WORD	n/a	wordpools/wordpool_EN.txt	VINE	1	7	[0, 0, 0]	n/a	FR1	100	R1346T
1590.828	0.921	1249353	WORD_OFF	n/a	n/a	VINE	1	7	[0, 0, 0]	n/a	FR1	100	R1346T
1591.749	1.628	1250274	WORD	n/a	wordpools/wordpool_EN.txt	TANK	2	7	[0, 0, 0]	n/a	FR1	100	R1346T
1593.377	0.768	1251902	WORD_OFF	n/a	n/a	TANK	2	7	[0, 0, 0]	n/a	FR1	100	R1346T
1594.145	1.634	1252670	WORD	n/a	wordpools/wordpool_EN.txt	BLOOM	3	7	[0, 0, 0]	n/a	FR1	100	R1346T
1595.779	1.036	1254304	WORD_OFF	n/a	n/a	BLOOM	3	7	[0, 0, 0]	n/a	FR1	100	R1346T
1596.815	1.63	1255340	WORD	n/a	wordpools/wordpool_EN.txt	SMILE	4	7	[0, 0, 0]	n/a	FR1	100	R1346T
1598.445	0.873	1256970	WORD_OFF	n/a	n/a	SMILE	4	7	[0, 0, 0]	n/a	FR1	100	R1346T
1599.318	1.612	1257843	WORD	n/a	wordpools/wordpool_EN.txt	OWL	5	7	[0, 0, 0]	n/a	FR1	100	R1346T
1600.93	0.911	1259455	WORD_OFF	n/a	n/a	OWL	5	7	[0, 0, 0]	n/a	FR1	100	R1346T
1601.841	1.621	1260366	WORD	n/a	wordpools/wordpool_EN.txt	HEN	6	7	[0, 0, 0]	n/a	FR1	100	R1346T
1603.462	1.001	1261987	WORD_OFF	n/a	n/a	HEN	6	7	[0, 0, 0]	n/a	FR1	100	R1346T
1604.463	1.633	1262988	WORD	n/a	wordpools/wordpool_EN.txt	CALF	7	7	[0, 0, 0]	n/a	FR1	100	R1346T
1606.096	0.91	1264621	WORD_OFF	n/a	n/a	CALF	7	7	[0, 0, 0]	n/a	FR1	100	R1346T
1607.006	1.625	1265530	WORD	n/a	wordpools/wordpool_EN.txt	SHEEP	8	7	[0, 0, 0]	n/a	FR1	100	R1346T
1608.631	0.997	1267155	WORD_OFF	n/a	n/a	SHEEP	8	7	[0, 0, 0]	n/a	FR1	100	R1346T
1609.628	1.636	1268152	WORD	n/a	wordpools/wordpool_EN.txt	KEY	9	7	[0, 0, 0]	n/a	FR1	100	R1346T
1611.264	0.809	1269788	WORD_OFF	n/a	n/a	KEY	9	7	[0, 0, 0]	n/a	FR1	100	R1346T
1612.073	1.626	1270597	WORD	n/a	wordpools/wordpool_EN.txt	SQUARE	10	7	[0, 0, 0]	n/a	FR1	100	R1346T
1613.699	1.002	1272223	WORD_OFF	n/a	n/a	SQUARE	10	7	[0, 0, 0]	n/a	FR1	100	R1346T
1614.701	1.63	1273225	WORD	n/a	wordpools/wordpool_EN.txt	CHAIR	11	7	[0, 0, 0]	n/a	FR1	100	R1346T
1616.331	0.863	1274855	WORD_OFF	n/a	n/a	CHAIR	11	7	[0, 0, 0]	n/a	FR1	100	R1346T
1617.194	1.605	1275718	WORD	n/a	wordpools/wordpool_EN.txt	LEG	12	7	[0, 0, 0]	n/a	FR1	100	R1346T
1618.799	0.0	1277323	DISTRACT_START	n/a	n/a	n/a	-999	7	[0, 0, 0]	n/a	FR1	100	R1346T
1618.799	0.0	1277323	WORD_OFF	n/a	n/a	LEG	12	7	[0, 0, 0]	n/a	FR1	100	R1346T
1618.799	0.001	1277323	ENCODING_END	n/a	n/a	n/a	-999	7	[0, 0, 0]	n/a	FR1	100	R1346T
1618.8	0.016	1277324	START	n/a	n/a	n/a	-999	7	[-999, -999, -999]	n/a	FR1	100	R1346T
1618.816	5.935	1277340	PROB	5.935	n/a	n/a	-999	7	[2, 7, 2]	11	FR1	100	R1346T
1624.751	8.684	1283275	PROB	8.684	n/a	n/a	-999	7	[3, 2, 9]	14	FR1	100	R1346T
1633.435	6.188	1291958	PROB	6.188	n/a	n/a	-999	7	[4, 3, 2]	9	FR1	100	R1346T
1639.623	0.014	1298146	STOP	n/a	n/a	n/a	-999	7	[-999, -999, -999]	n/a	FR1	100	R1346T
1639.637	1.292	1298160	DISTRACT_END	n/a	n/a	n/a	-999	7	[0, 0, 0]	n/a	FR1	100	R1346T
1640.929	1.025	1299452	RETRIEVAL_ORIENT_START	n/a	n/a	n/a	-999	7	[0, 0, 0]	n/a	FR1	100	R1346T
1641.954	0.0	1300477	RETRIEVAL_ORIENT_END	n/a	n/a	n/a	-999	7	[0, 0, 0]	n/a	FR1	100	R1346T
1641.954	3.495	1300477	REC_START	n/a	n/a	n/a	-999	7	[0, 0, 0]	n/a	FR1	100	R1346T
1645.449	5.353	1303972	REC_WORD	5.353	n/a	CALF	7	7	[0, 0, 0]	n/a	FR1	100	R1346T
1650.802	6.701	1309325	REC_WORD_VV	6.701	n/a	<>	-999	7	[0, 0, 0]	n/a	FR1	100	R1346T
1657.503	14.963	1316025	REC_WORD	14.963	n/a	COW	-999	7	[0, 0, 0]	n/a	FR1	100	R1346T
1672.466	0.0	1330988	WAITING_START	n/a	n/a	n/a	-999	8	[0, 0, 0]	n/a	FR1	100	R1346T
1672.466	0.0	1330988	TRIAL	n/a	n/a	n/a	-999	8	[0, 0, 0]	n/a	FR1	100	R1346T
1672.466	0.0	1330988	REC_END	n/a	n/a	n/a	-999	7	[0, 0, 0]	n/a	FR1	100	R1346T
1672.466	0.0	1330988	TRIAL_END	n/a	n/a	n/a	-999	7	[0, 0, 0]	n/a	FR1	100	R1346T
1672.466	12.362	1330988	TRIAL_START	n/a	n/a	n/a	-999	8	[0, 0, 0]	n/a	FR1	100	R1346T
1684.828	0.0	1343349	WAITING_END	n/a	n/a	n/a	-999	8	[0, 0, 0]	n/a	FR1	100	R1346T
1684.828	0.0	1343349	COUNTDOWN_START	n/a	n/a	n/a	-999	8	[0, 0, 0]	n/a	FR1	100	R1346T
1684.828	0.0	1343349	COUNTDOWN_END	n/a	n/a	n/a	-999	8	[0, 0, 0]	n/a	FR1	100	R1346T
1684.828	11.451	1343349	ORIENT_START	n/a	n/a	n/a	-999	8	[0, 0, 0]	n/a	FR1	100	R1346T
1696.279	0.0	1354800	ENCODING_START	n/a	n/a	n/a	-999	8	[0, 0, 0]	n/a	FR1	100	R1346T
1696.279	1.046	1354800	ORIENT_END	n/a	n/a	n/a	-999	8	[0, 0, 0]	n/a	FR1	100	R1346T
1697.325	1.622	1355846	WORD	n/a	wordpools/wordpool_EN.txt	NAIL	1	8	[0, 0, 0]	n/a	FR1	100	R1346T
1698.947	0.82	1357467	WORD_OFF	n/a	n/a	NAIL	1	8	[0, 0, 0]	n/a	FR1	100	R1346T
1699.767	1.63	1358287	WORD	n/a	wordpools/wordpool_EN.txt	FACE	2	8	[0, 0, 0]	n/a	FR1	100	R1346T
1701.397	1.038	1359917	WORD_OFF	n/a	n/a	FACE	2	8	[0, 0, 0]	n/a	FR1	100	R1346T
1702.435	1.629	1360955	WORD	n/a	wordpools/wordpool_EN.txt	SIGN	3	8	[0, 0, 0]	n/a	FR1	100	R1346T
1704.064	1.041	1362584	WORD_OFF	n/a	n/a	SIGN	3	8	[0, 0, 0]	n/a	FR1	100	R1346T
1705.105	1.627	1363625	WORD	n/a	wordpools/wordpool_EN.txt	DIME	4	8	[0, 0, 0]	n/a	FR1	100	R1346T
1706.732	1.063	1365252	WORD_OFF	n/a	n/a	DIME	4	8	[0, 0, 0]	n/a	FR1	100	R1346T
1707.795	1.637	1366315	WORD	n/a	wordpools/wordpool_EN.txt	DEER	5	8	[0, 0, 0]	n/a	FR1	100	R1346T
1709.432	1.071	1367952	WORD_OFF	n/a	n/a	DEER	5	8	[0, 0, 0]	n/a	FR1	100	R1346T
1710.503	1.629	1369023	WORD	n/a	wordpools/wordpool_EN.txt	CHEEK	6	8	[0, 0, 0]	n/a	FR1	100	R1346T
1712.132	0.887	1370652	WORD_OFF	n/a	n/a	CHEEK	6	8	[0, 0, 0]	n/a	FR1	100	R1346T
1713.019	1.631	1371539	WORD	n/a	wordpools/wordpool_EN.txt	BREAD	7	8	[0, 0, 0]	n/a	FR1	100	R1346T
1714.65	0.825	1373170	WORD_OFF	n/a	n/a	BREAD	7	8	[0, 0, 0]	n/a	FR1	100	R1346T
1715.475	1.625	1373995	WORD	n/a	wordpools/wordpool_EN.txt	TOY	8	8	[0, 0, 0]	n/a	FR1	100	R1346T
1717.1	1.096	1375620	WORD_OFF	n/a	n/a	TOY	8	8	[0, 0, 0]	n/a	FR1	100	R1346T
1718.196	1.639	1376716	WORD	n/a	wordpools/wordpool_EN.txt	STORE	9	8	[0, 0, 0]	n/a	FR1	100	R1346T
1719.835	1.08	1378355	WORD_OFF	n/a	n/a	STORE	9	8	[0, 0, 0]	n/a	FR1	100	R1346T
1720.915	1.636	1379434	WORD	n/a	wordpools/wordpool_EN.txt	BOY	10	8	[0, 0, 0]	n/a	FR1	100	R1346T
1722.551	1.033	1381070	WORD_OFF	n/a	n/a	BOY	10	8	[0, 0, 0]	n/a	FR1	100	R1346T
1723.584	1.634	1382103	WORD	n/a	wordpools/wordpool_EN.txt	STORM	11	8	[0, 0, 0]	n/a	FR1	100	R1346T
1725.218	0.815	1383737	WORD_OFF	n/a	n/a	STORM	11	8	[0, 0, 0]	n/a	FR1	100	R1346T
1726.033	1.636	1384552	WORD	n/a	wordpools/wordpool_EN.txt	LAMP	12	8	[0, 0, 0]	n/a	FR1	100	R1346T
1727.669	0.0	1386188	WORD_OFF	n/a	n/a	LAMP	12	8	[0, 0, 0]	n/a	FR1	100	R1346T
1727.669	0.0	1386188	ENCODING_END	n/a	n/a	n/a	-999	8	[0, 0, 0]	n/a	FR1	100	R1346T
1727.669	0.002	1386188	DISTRACT_START	n/a	n/a	n/a	-999	8	[0, 0, 0]	n/a	FR1	100	R1346T
1727.671	0.015	1386190	START	n/a	n/a	n/a	-999	8	[-999, -999, -999]	n/a	FR1	100	R1346T
1727.686	9.202	1386205	PROB	9.202	n/a	n/a	-999	8	[1, 4, 4]	9	FR1	100	R1346T
1736.888	5.834	1395407	PROB	5.834	n/a	n/a	-999	8	[1, 6, 6]	13	FR1	100	R1346T
1742.722	6.26	1401241	PROB	6.26	n/a	n/a	-999	8	[5, 6, 1]	12	FR1	100	R1346T
1748.982	0.008	1407500	STOP	n/a	n/a	n/a	-999	8	[-999, -999, -999]	n/a	FR1	100	R1346T
1748.99	1.216	1407508	DISTRACT_END	n/a	n/a	n/a	-999	8	[0, 0, 0]	n/a	FR1	100	R1346T
1750.206	1.033	1408724	RETRIEVAL_ORIENT_START	n/a	n/a	n/a	-999	8	[0, 0, 0]	n/a	FR1	100	R1346T
1751.239	0.0	1409757	RETRIEVAL_ORIENT_END	n/a	n/a	n/a	-999	8	[0, 0, 0]	n/a	FR1	100	R1346T
1751.239	4.476	1409757	REC_START	n/a	n/a	n/a	-999	8	[0, 0, 0]	n/a	FR1	100	R1346T
1755.715	0.625	1414233	REC_WORD_VV	0.625	n/a	<>	-999	8	[0, 0, 0]	n/a	FR1	100	R1346T
1756.34	3.085	1414858	REC_WORD	3.085	n/a	FACE	2	8	[0, 0, 0]	n/a	FR1	100	R1346T
1759.425	2.197	1417943	REC_WORD	2.197	n/a	CHEEK	6	8	[0, 0, 0]	n/a	FR1	100	R1346T
1761.622	9.891	1420140	REC_WORD	9.891	n/a	NAIL	1	8	[0, 0, 0]	n/a	FR1	100	R1346T
1771.513	10.238	1430030	REC_WORD_VV	10.238	n/a	<>	-999	8	[0, 0, 0]	n/a	FR1	100	R1346T
1781.751	0.0	1440268	TRIAL	n/a	n/a	n/a	-999	9	[0, 0, 0]	n/a	FR1	100	R1346T
1781.751	0.0	1440268	WAITING_START	n/a	n/a	n/a	-999	9	[0, 0, 0]	n/a	FR1	100	R1346T
1781.751	0.0	1440268	TRIAL_START	n/a	n/a	n/a	-999	9	[0, 0, 0]	n/a	FR1	100	R1346T
1781.751	0.0	1440268	REC_END	n/a	n/a	n/a	-999	8	[0, 0, 0]	n/a	FR1	100	R1346T
1781.751	185.494	1440268	TRIAL_END	n/a	n/a	n/a	-999	8	[0, 0, 0]	n/a	FR1	100	R1346T
1967.245	0.0	1625754	COUNTDOWN_START	n/a	n/a	n/a	-999	9	[0, 0, 0]	n/a	FR1	100	R1346T
1967.245	0.0	1625754	COUNTDOWN_END	n/a	n/a	n/a	-999	9	[0, 0, 0]	n/a	FR1	100	R1346T
1967.245	0.0	1625754	ORIENT_START	n/a	n/a	n/a	-999	9	[0, 0, 0]	n/a	FR1	100	R1346T
1967.245	11.62	1625754	WAITING_END	n/a	n/a	n/a	-999	9	[0, 0, 0]	n/a	FR1	100	R1346T
1978.865	0.0	1637373	ORIENT_END	n/a	n/a	n/a	-999	9	[0, 0, 0]	n/a	FR1	100	R1346T
1978.865	1.083	1637373	ENCODING_START	n/a	n/a	n/a	-999	9	[0, 0, 0]	n/a	FR1	100	R1346T
1979.948	1.633	1638456	WORD	n/a	wordpools/wordpool_EN.txt	SNAKE	1	9	[0, 0, 0]	n/a	FR1	100	R1346T
1981.581	0.829	1640089	WORD_OFF	n/a	n/a	SNAKE	1	9	[0, 0, 0]	n/a	FR1	100	R1346T
1982.41	1.638	1640918	WORD	n/a	wordpools/wordpool_EN.txt	SKI	2	9	[0, 0, 0]	n/a	FR1	100	R1346T
1984.048	0.858	1642556	WORD_OFF	n/a	n/a	SKI	2	9	[0, 0, 0]	n/a	FR1	100	R1346T
1984.906	1.626	1643414	WORD	n/a	wordpools/wordpool_EN.txt	BAG	3	9	[0, 0, 0]	n/a	FR1	100	R1346T
1986.532	0.854	1645040	WORD_OFF	n/a	n/a	BAG	3	9	[0, 0, 0]	n/a	FR1	100	R1346T
1987.386	1.63	1645894	WORD	n/a	wordpools/wordpool_EN.txt	CHIN	4	9	[0, 0, 0]	n/a	FR1	100	R1346T
1989.016	1.008	1647524	WORD_OFF	n/a	n/a	CHIN	4	9	[0, 0, 0]	n/a	FR1	100	R1346T
1990.024	1.626	1648532	WORD	n/a	wordpools/wordpool_EN.txt	ROOF	5	9	[0, 0, 0]	n/a	FR1	100	R1346T
1991.65	0.819	1650158	WORD_OFF	n/a	n/a	ROOF	5	9	[0, 0, 0]	n/a	FR1	100	R1346T
1992.469	1.631	1650977	WORD	n/a	wordpools/wordpool_EN.txt	SUIT	6	9	[0, 0, 0]	n/a	FR1	100	R1346T
1994.1	1.101	1652608	WORD_OFF	n/a	n/a	SUIT	6	9	[0, 0, 0]	n/a	FR1	100	R1346T
1995.201	1.617	1653709	WORD	n/a	wordpools/wordpool_EN.txt	DOOR	7	9	[0, 0, 0]	n/a	FR1	100	R1346T
1996.818	1.03	1655325	WORD_OFF	n/a	n/a	DOOR	7	9	[0, 0, 0]	n/a	FR1	100	R1346T
1997.848	1.636	1656355	WORD	n/a	wordpools/wordpool_EN.txt	CAPE	8	9	[0, 0, 0]	n/a	FR1	100	R1346T
1999.484	1.116	1657991	WORD_OFF	n/a	n/a	CAPE	8	9	[0, 0, 0]	n/a	FR1	100	R1346T
2000.6	1.635	1659107	WORD	n/a	wordpools/wordpool_EN.txt	THREAD	9	9	[0, 0, 0]	n/a	FR1	100	R1346T
2002.235	0.818	1660742	WORD_OFF	n/a	n/a	THREAD	9	9	[0, 0, 0]	n/a	FR1	100	R1346T
2003.053	1.633	1661560	WORD	n/a	wordpools/wordpool_EN.txt	PIT	10	9	[0, 0, 0]	n/a	FR1	100	R1346T
2004.686	0.891	1663193	WORD_OFF	n/a	n/a	PIT	10	9	[0, 0, 0]	n/a	FR1	100	R1346T
2005.577	1.625	1664084	WORD	n/a	wordpools/wordpool_EN.txt	ICE	11	9	[0, 0, 0]	n/a	FR1	100	R1346T
2007.202	1.088	1665709	WORD_OFF	n/a	n/a	ICE	11	9	[0, 0, 0]	n/a	FR1	100	R1346T
2008.29	1.63	1666797	WORD	n/a	wordpools/wordpool_EN.txt	GRAPE	12	9	[0, 0, 0]	n/a	FR1	100	R1346T
2009.92	0.0	1668427	WORD_OFF	n/a	n/a	GRAPE	12	9	[0, 0, 0]	n/a	FR1	100	R1346T
2009.92	0.0	1668427	ENCODING_END	n/a	n/a	n/a	-999	9	[0, 0, 0]	n/a	FR1	100	R1346T
2009.92	0.002	1668427	DISTRACT_START	n/a	n/a	n/a	-999	9	[0, 0, 0]	n/a	FR1	100	R1346T
2009.922	0.015	1668429	START	n/a	n/a	n/a	-999	9	[-999, -999, -999]	n/a	FR1	100	R1346T
2009.937	5.567	1668444	PROB	5.567	n/a	n/a	-999	9	[1, 3, 9]	13	FR1	100	R1346T
2015.504	8.001	1674011	PROB	8.001	n/a	n/a	-999	9	[6, 9, 5]	20	FR1	100	R1346T
2023.505	5.918	1682011	PROB	5.918	n/a	n/a	-999	9	[5, 2, 4]	11	FR1	100	R1346T
2029.423	4.951	1687929	PROB	4.951	n/a	n/a	-999	9	[9, 9, 9]	27	FR1	100	R1346T
2034.374	0.017	1692880	STOP	n/a	n/a	n/a	-999	9	[-999, -999, -999]	n/a	FR1	100	R1346T
2034.391	1.367	1692897	DISTRACT_END	n/a	n/a	n/a	-999	9	[0, 0, 0]	n/a	FR1	100	R1346T
2035.758	1.034	1694264	RETRIEVAL_ORIENT_START	n/a	n/a	n/a	-999	9	[0, 0, 0]	n/a	FR1	100	R1346T
2036.792	0.0	1695298	RETRIEVAL_ORIENT_END	n/a	n/a	n/a	-999	9	[0, 0, 0]	n/a	FR1	100	R1346T
2036.792	3.214	1695298	REC_START	n/a	n/a	n/a	-999	9	[0, 0, 0]	n/a	FR1	100	R1346T
2040.006	3.811	1698512	REC_WORD_VV	3.811	n/a	<>	-999	9	[0, 0, 0]	n/a	FR1	100	R1346T
2043.817	23.487	1702322	REC_WORD_VV	23.487	n/a	<>	-999	9	[0, 0, 0]	n/a	FR1	100	R1346T
2067.304	0.0	1725808	REC_END	n/a	n/a	n/a	-999	9	[0, 0, 0]	n/a	FR1	100	R1346T
2067.304	0.0	1725808	TRIAL_END	n/a	n/a	n/a	-999	9	[0, 0, 0]	n/a	FR1	100	R1346T
2067.304	0.0	1725808	TRIAL_START	n/a	n/a	n/a	-999	10	[0, 0, 0]	n/a	FR1	100	R1346T
2067.304	0.0	1725808	TRIAL	n/a	n/a	n/a	-999	10	[0, 0, 0]	n/a	FR1	100	R1346T
2067.304	34.383	1725808	WAITING_START	n/a	n/a	n/a	-999	10	[0, 0, 0]	n/a	FR1	100	R1346T
2101.687	0.0	1760190	WAITING_END	n/a	n/a	n/a	-999	10	[0, 0, 0]	n/a	FR1	100	R1346T
2101.687	0.0	1760190	COUNTDOWN_START	n/a	n/a	n/a	-999	10	[0, 0, 0]	n/a	FR1	100	R1346T
2101.687	0.0	1760190	COUNTDOWN_END	n/a	n/a	n/a	-999	10	[0, 0, 0]	n/a	FR1	100	R1346T
2101.687	11.551	1760190	ORIENT_START	n/a	n/a	n/a	-999	10	[0, 0, 0]	n/a	FR1	100	R1346T
2113.238	0.0	1771740	ORIENT_END	n/a	n/a	n/a	-999	10	[0, 0, 0]	n/a	FR1	100	R1346T
2113.238	0.88	1771740	ENCODING_START	n/a	n/a	n/a	-999	10	[0, 0, 0]	n/a	FR1	100	R1346T
2114.118	1.638	1772620	WORD	n/a	wordpools/wordpool_EN.txt	PIG	1	10	[0, 0, 0]	n/a	FR1	100	R1346T
2115.756	0.76	1774258	WORD_OFF	n/a	n/a	PIG	1	10	[0, 0, 0]	n/a	FR1	100	R1346T
2116.516	1.623	1775018	WORD	n/a	wordpools/wordpool_EN.txt	BRUSH	2	10	[0, 0, 0]	n/a	FR1	100	R1346T
2118.139	0.843	1776641	WORD_OFF	n/a	n/a	BRUSH	2	10	[0, 0, 0]	n/a	FR1	100	R1346T
2118.982	1.624	1777484	WORD	n/a	wordpools/wordpool_EN.txt	NEST	3	10	[0, 0, 0]	n/a	FR1	100	R1346T
2120.606	0.919	1779108	WORD_OFF	n/a	n/a	NEST	3	10	[0, 0, 0]	n/a	FR1	100	R1346T
2121.525	1.632	1780027	WORD	n/a	wordpools/wordpool_EN.txt	FOG	4	10	[0, 0, 0]	n/a	FR1	100	R1346T
2123.157	0.791	1781659	WORD_OFF	n/a	n/a	FOG	4	10	[0, 0, 0]	n/a	FR1	100	R1346T
2123.948	1.626	1782450	WORD	n/a	wordpools/wordpool_EN.txt	BEAN	5	10	[0, 0, 0]	n/a	FR1	100	R1346T
2125.574	0.865	1784076	WORD_OFF	n/a	n/a	BEAN	5	10	[0, 0, 0]	n/a	FR1	100	R1346T
2126.439	1.635	1784941	WORD	n/a	wordpools/wordpool_EN.txt	CAT	6	10	[0, 0, 0]	n/a	FR1	100	R1346T
2128.074	0.837	1786576	WORD_OFF	n/a	n/a	CAT	6	10	[0, 0, 0]	n/a	FR1	100	R1346T
2128.911	1.63	1787413	WORD	n/a	wordpools/wordpool_EN.txt	PURSE	7	10	[0, 0, 0]	n/a	FR1	100	R1346T
2130.541	0.797	1789043	WORD_OFF	n/a	n/a	PURSE	7	10	[0, 0, 0]	n/a	FR1	100	R1346T
2131.338	1.621	1789840	WORD	n/a	wordpools/wordpool_EN.txt	TREE	8	10	[0, 0, 0]	n/a	FR1	100	R1346T
2132.959	1.076	1791461	WORD_OFF	n/a	n/a	TREE	8	10	[0, 0, 0]	n/a	FR1	100	R1346T
2134.035	1.625	1792536	WORD	n/a	wordpools/wordpool_EN.txt	BOAT	9	10	[0, 0, 0]	n/a	FR1	100	R1346T
2135.66	0.927	1794161	WORD_OFF	n/a	n/a	BOAT	9	10	[0, 0, 0]	n/a	FR1	100	R1346T
2136.587	1.622	1795088	WORD	n/a	wordpools/wordpool_EN.txt	SPEAR	10	10	[0, 0, 0]	n/a	FR1	100	R1346T
2138.209	1.056	1796710	WORD_OFF	n/a	n/a	SPEAR	10	10	[0, 0, 0]	n/a	FR1	100	R1346T
2139.265	1.629	1797766	WORD	n/a	wordpools/wordpool_EN.txt	OAK	11	10	[0, 0, 0]	n/a	FR1	100	R1346T
2140.894	0.762	1799395	WORD_OFF	n/a	n/a	OAK	11	10	[0, 0, 0]	n/a	FR1	100	R1346T
2141.656	1.621	1800157	WORD	n/a	wordpools/wordpool_EN.txt	GATE	12	10	[0, 0, 0]	n/a	FR1	100	R1346T
2143.277	0.0	1801778	DISTRACT_START	n/a	n/a	n/a	-999	10	[0, 0, 0]	n/a	FR1	100	R1346T
2143.277	0.0	1801778	WORD_OFF	n/a	n/a	GATE	12	10	[0, 0, 0]	n/a	FR1	100	R1346T
2143.277	0.001	1801778	ENCODING_END	n/a	n/a	n/a	-999	10	[0, 0, 0]	n/a	FR1	100	R1346T
2143.278	0.016	1801779	START	n/a	n/a	n/a	-999	10	[-999, -999, -999]	n/a	FR1	100	R1346T
2143.294	8.268	1801795	PROB	8.268	n/a	n/a	-999	10	[7, 9, 4]	20	FR1	100	R1346T
2151.562	4.701	1810063	PROB	4.701	n/a	n/a	-999	10	[9, 2, 1]	12	FR1	100	R1346T
2156.263	5.234	1814764	PROB	5.234	n/a	n/a	-999	10	[2, 3, 7]	12	FR1	100	R1346T
2161.497	5.362	1819997	PROB	5.362	n/a	n/a	-999	10	[7, 6, 1]	14	FR1	100	R1346T
2166.859	0.006	1825359	STOP	n/a	n/a	n/a	-999	10	[-999, -999, -999]	n/a	FR1	100	R1346T
2166.865	1.193	1825365	DISTRACT_END	n/a	n/a	n/a	-999	10	[0, 0, 0]	n/a	FR1	100	R1346T
2168.058	1.024	1826558	RETRIEVAL_ORIENT_START	n/a	n/a	n/a	-999	10	[0, 0, 0]	n/a	FR1	100	R1346T
2169.082	0.0	1827582	RETRIEVAL_ORIENT_END	n/a	n/a	n/a	-999	10	[0, 0, 0]	n/a	FR1	100	R1346T
2169.082	1.999	1827582	REC_START	n/a	n/a	n/a	-999	10	[0, 0, 0]	n/a	FR1	100	R1346T
2171.081	0.304	1829581	REC_WORD_VV	0.304	n/a	<>	-999	10	[0, 0, 0]	n/a	FR1	100	R1346T
2171.385	1.955	1829885	REC_WORD	1.955	n/a	CAT	6	10	[0, 0, 0]	n/a	FR1	100	R1346T
2173.34	1.0	1831840	REC_WORD_VV	1.0	n/a	<>	-999	10	[0, 0, 0]	n/a	FR1	100	R1346T
2174.34	1.0	1832840	REC_WORD_VV	1.0	n/a	<>	-999	10	[0, 0, 0]	n/a	FR1	100	R1346T
2175.34	0.852	1833840	REC_WORD_VV	0.852	n/a	<>	-999	10	[0, 0, 0]	n/a	FR1	100	R1346T
2176.192	0.77	1834692	REC_WORD	0.77	n/a	SPEAR	10	10	[0, 0, 0]	n/a	FR1	100	R1346T
2176.962	1.637	1835462	REC_WORD_VV	1.637	n/a	<>	-999	10	[0, 0, 0]	n/a	FR1	100	R1346T
2178.599	0.625	1837099	REC_WORD_VV	0.625	n/a	<>	-999	10	[0, 0, 0]	n/a	FR1	100	R1346T
2179.224	2.001	1837724	REC_WORD	2.001	n/a	BOAT	9	10	[0, 0, 0]	n/a	FR1	100	R1346T
2181.225	18.368	1839724	REC_WORD_VV	18.368	n/a	<>	-999	10	[0, 0, 0]	n/a	FR1	100	R1346T
2199.593	0.0	1858092	TRIAL	n/a	n/a	n/a	-999	11	[0, 0, 0]	n/a	FR1	100	R1346T
2199.593	0.0	1858092	WAITING_START	n/a	n/a	n/a	-999	11	[0, 0, 0]	n/a	FR1	100	R1346T
2199.593	0.0	1858092	TRIAL_START	n/a	n/a	n/a	-999	11	[0, 0, 0]	n/a	FR1	100	R1346T
2199.593	0.0	1858092	TRIAL_END	n/a	n/a	n/a	-999	10	[0, 0, 0]	n/a	FR1	100	R1346T
2199.593	8.496	1858092	REC_END	n/a	n/a	n/a	-999	10	[0, 0, 0]	n/a	FR1	100	R1346T
2208.089	0.0	1866587	WAITING_END	n/a	n/a	n/a	-999	11	[0, 0, 0]	n/a	FR1	100	R1346T
2208.089	0.0	1866587	COUNTDOWN_START	n/a	n/a	n/a	-999	11	[0, 0, 0]	n/a	FR1	100	R1346T
2208.089	0.0	1866587	COUNTDOWN_END	n/a	n/a	n/a	-999	11	[0, 0, 0]	n/a	FR1	100	R1346T
2208.089	11.653	1866587	ORIENT_START	n/a	n/a	n/a	-999	11	[0, 0, 0]	n/a	FR1	100	R1346T
2219.742	0.0	1878240	ORIENT_END	n/a	n/a	n/a	-999	11	[0, 0, 0]	n/a	FR1	100	R1346T
2219.742	0.761	1878240	ENCODING_START	n/a	n/a	n/a	-999	11	[0, 0, 0]	n/a	FR1	100	R1346T
2220.503	1.638	1879001	WORD	n/a	wordpools/wordpool_EN.txt	WEB	1	11	[0, 0, 0]	n/a	FR1	100	R1346T
2222.141	0.998	1880639	WORD_OFF	n/a	n/a	WEB	1	11	[0, 0, 0]	n/a	FR1	100	R1346T
2223.139	1.637	1881637	WORD	n/a	wordpools/wordpool_EN.txt	FENCE	2	11	[0, 0, 0]	n/a	FR1	100	R1346T
2224.776	0.852	1883274	WORD_OFF	n/a	n/a	FENCE	2	11	[0, 0, 0]	n/a	FR1	100	R1346T
2225.628	1.631	1884125	WORD	n/a	wordpools/wordpool_EN.txt	SWORD	3	11	[0, 0, 0]	n/a	FR1	100	R1346T
2227.259	0.751	1885756	WORD_OFF	n/a	n/a	SWORD	3	11	[0, 0, 0]	n/a	FR1	100	R1346T
2228.01	1.634	1886507	WORD	n/a	wordpools/wordpool_EN.txt	CLOWN	4	11	[0, 0, 0]	n/a	FR1	100	R1346T
2229.644	0.785	1888141	WORD_OFF	n/a	n/a	CLOWN	4	11	[0, 0, 0]	n/a	FR1	100	R1346T
2230.429	1.631	1888926	WORD	n/a	wordpools/wordpool_EN.txt	KITE	5	11	[0, 0, 0]	n/a	FR1	100	R1346T
2232.06	0.851	1890557	WORD_OFF	n/a	n/a	KITE	5	11	[0, 0, 0]	n/a	FR1	100	R1346T
2232.911	1.632	1891408	WORD	n/a	wordpools/wordpool_EN.txt	MUD	6	11	[0, 0, 0]	n/a	FR1	100	R1346T
2234.543	0.757	1893040	WORD_OFF	n/a	n/a	MUD	6	11	[0, 0, 0]	n/a	FR1	100	R1346T
2235.3	1.628	1893797	WORD	n/a	wordpools/wordpool_EN.txt	PIN	7	11	[0, 0, 0]	n/a	FR1	100	R1346T
2236.928	0.865	1895425	WORD_OFF	n/a	n/a	PIN	7	11	[0, 0, 0]	n/a	FR1	100	R1346T
2237.793	1.635	1896290	WORD	n/a	wordpools/wordpool_EN.txt	PIE	8	11	[0, 0, 0]	n/a	FR1	100	R1346T
2239.428	1.037	1897925	WORD_OFF	n/a	n/a	PIE	8	11	[0, 0, 0]	n/a	FR1	100	R1346T
2240.465	1.63	1898962	WORD	n/a	wordpools/wordpool_EN.txt	ROOT	9	11	[0, 0, 0]	n/a	FR1	100	R1346T
2242.095	0.956	1900592	WORD_OFF	n/a	n/a	ROOT	9	11	[0, 0, 0]	n/a	FR1	100	R1346T
2243.051	1.629	1901548	WORD	n/a	wordpools/wordpool_EN.txt	MOTH	10	11	[0, 0, 0]	n/a	FR1	100	R1346T
2244.68	1.027	1903177	WORD_OFF	n/a	n/a	MOTH	10	11	[0, 0, 0]	n/a	FR1	100	R1346T
2245.707	1.622	1904204	WORD	n/a	wordpools/wordpool_EN.txt	FLEA	11	11	[0, 0, 0]	n/a	FR1	100	R1346T
2247.329	0.92	1905826	WORD_OFF	n/a	n/a	FLEA	11	11	[0, 0, 0]	n/a	FR1	100	R1346T
2248.249	1.632	1906746	WORD	n/a	wordpools/wordpool_EN.txt	TEETH	12	11	[0, 0, 0]	n/a	FR1	100	R1346T
2249.881	0.0	1908377	WORD_OFF	n/a	n/a	TEETH	12	11	[0, 0, 0]	n/a	FR1	100	R1346T
2249.881	0.0	1908377	ENCODING_END	n/a	n/a	n/a	-999	11	[0, 0, 0]	n/a	FR1	100	R1346T
2249.881	0.0	1908377	DISTRACT_START	n/a	n/a	n/a	-999	11	[0, 0, 0]	n/a	FR1	100	R1346T
2249.881	0.016	1908377	START	n/a	n/a	n/a	-999	11	[-999, -999, -999]	n/a	FR1	100	R1346T
2249.897	40.63	1908393	PROB	40.63	n/a	n/a	-999	11	[9, 7, 8]	24	FR1	100	R1346T
2290.527	0.01	1949022	STOP	n/a	n/a	n/a	-999	11	[-999, -999, -999]	n/a	FR1	100	R1346T
2290.537	1.157	1949032	DISTRACT_END	n/a	n/a	n/a	-999	11	[0, 0, 0]	n/a	FR1	100	R1346T
2291.694	1.028	1950189	RETRIEVAL_ORIENT_START	n/a	n/a	n/a	-999	11	[0, 0, 0]	n/a	FR1	100	R1346T
2292.722	0.0	1951217	RETRIEVAL_ORIENT_END	n/a	n/a	n/a	-999	11	[0, 0, 0]	n/a	FR1	100	R1346T
2292.722	2.332	1951217	REC_START	n/a	n/a	n/a	-999	11	[0, 0, 0]	n/a	FR1	100	R1346T
2295.054	5.99	1953548	REC_WORD_VV	5.99	n/a	<>	-999	11	[0, 0, 0]	n/a	FR1	100	R1346T
2301.044	1.42	1959538	REC_WORD	1.42	n/a	MUD	6	11	[0, 0, 0]	n/a	FR1	100	R1346T
2302.464	20.77	1960958	REC_WORD	20.77	n/a	BOAT	-999	11	[0, 0, 0]	n/a	FR1	100	R1346T
2323.234	0.0	1981727	REC_END	n/a	n/a	n/a	-999	11	[0, 0, 0]	n/a	FR1	100	R1346T
2323.234	0.0	1981727	TRIAL_END	n/a	n/a	n/a	-999	11	[0, 0, 0]	n/a	FR1	100	R1346T
2323.234	0.0	1981727	TRIAL_START	n/a	n/a	n/a	-999	12	[0, 0, 0]	n/a	FR1	100	R1346T
2323.234	0.0	1981727	WAITING_START	n/a	n/a	n/a	-999	12	[0, 0, 0]	n/a	FR1	100	R1346T
2323.234	10.344	1981727	TRIAL	n/a	n/a	n/a	-999	12	[0, 0, 0]	n/a	FR1	100	R1346T
2333.578	0.0	1992071	WAITING_END	n/a	n/a	n/a	-999	12	[0, 0, 0]	n/a	FR1	100	R1346T
2333.578	0.0	1992071	COUNTDOWN_START	n/a	n/a	n/a	-999	12	[0, 0, 0]	n/a	FR1	100	R1346T
2333.578	0.0	1992071	COUNTDOWN_END	n/a	n/a	n/a	-999	12	[0, 0, 0]	n/a	FR1	100	R1346T
2333.578	11.636	1992071	ORIENT_START	n/a	n/a	n/a	-999	12	[0, 0, 0]	n/a	FR1	100	R1346T
2345.214	0.0	2003706	ENCODING_START	n/a	n/a	n/a	-999	12	[0, 0, 0]	n/a	FR1	100	R1346T
2345.214	1.06	2003706	ORIENT_END	n/a	n/a	n/a	-999	12	[0, 0, 0]	n/a	FR1	100	R1346T
2346.274	1.608	2004766	WORD	n/a	wordpools/wordpool_EN.txt	SCHOOL	1	12	[0, 0, 0]	n/a	FR1	100	R1346T
2347.882	0.819	2006374	WORD_OFF	n/a	n/a	SCHOOL	1	12	[0, 0, 0]	n/a	FR1	100	R1346T
2348.701	1.63	2007193	WORD	n/a	wordpools/wordpool_EN.txt	EEL	2	12	[0, 0, 0]	n/a	FR1	100	R1346T
2350.331	0.81	2008823	WORD_OFF	n/a	n/a	EEL	2	12	[0, 0, 0]	n/a	FR1	100	R1346T
2351.141	1.625	2009633	WORD	n/a	wordpools/wordpool_EN.txt	EGG	3	12	[0, 0, 0]	n/a	FR1	100	R1346T
2352.766	0.798	2011258	WORD_OFF	n/a	n/a	EGG	3	12	[0, 0, 0]	n/a	FR1	100	R1346T
2353.564	1.635	2012056	WORD	n/a	wordpools/wordpool_EN.txt	JUICE	4	12	[0, 0, 0]	n/a	FR1	100	R1346T
2355.199	1.043	2013691	WORD_OFF	n/a	n/a	JUICE	4	12	[0, 0, 0]	n/a	FR1	100	R1346T
2356.242	1.625	2014734	WORD	n/a	wordpools/wordpool_EN.txt	MAT	5	12	[0, 0, 0]	n/a	FR1	100	R1346T
2357.867	0.903	2016359	WORD_OFF	n/a	n/a	MAT	5	12	[0, 0, 0]	n/a	FR1	100	R1346T
2358.77	1.63	2017262	WORD	n/a	wordpools/wordpool_EN.txt	CLOTH	6	12	[0, 0, 0]	n/a	FR1	100	R1346T
2360.4	1.083	2018892	WORD_OFF	n/a	n/a	CLOTH	6	12	[0, 0, 0]	n/a	FR1	100	R1346T
2361.483	1.634	2019975	WORD	n/a	wordpools/wordpool_EN.txt	FROG	7	12	[0, 0, 0]	n/a	FR1	100	R1346T
2363.117	1.121	2021608	WORD_OFF	n/a	n/a	FROG	7	12	[0, 0, 0]	n/a	FR1	100	R1346T
2364.238	1.614	2022729	WORD	n/a	wordpools/wordpool_EN.txt	BADGE	8	12	[0, 0, 0]	n/a	FR1	100	R1346T
2365.852	1.002	2024343	WORD_OFF	n/a	n/a	BADGE	8	12	[0, 0, 0]	n/a	FR1	100	R1346T
2366.854	1.63	2025345	WORD	n/a	wordpools/wordpool_EN.txt	CORD	9	12	[0, 0, 0]	n/a	FR1	100	R1346T
2368.484	1.067	2026975	WORD_OFF	n/a	n/a	CORD	9	12	[0, 0, 0]	n/a	FR1	100	R1346T
2369.551	1.634	2028042	WORD	n/a	wordpools/wordpool_EN.txt	EAR	10	12	[0, 0, 0]	n/a	FR1	100	R1346T
2371.185	0.982	2029676	WORD_OFF	n/a	n/a	EAR	10	12	[0, 0, 0]	n/a	FR1	100	R1346T
2372.167	1.636	2030658	WORD	n/a	wordpools/wordpool_EN.txt	DESK	11	12	[0, 0, 0]	n/a	FR1	100	R1346T
2373.803	1.071	2032294	WORD_OFF	n/a	n/a	DESK	11	12	[0, 0, 0]	n/a	FR1	100	R1346T
2374.874	1.629	2033365	WORD	n/a	wordpools/wordpool_EN.txt	ROSE	12	12	[0, 0, 0]	n/a	FR1	100	R1346T
2376.503	0.0	2034994	WORD_OFF	n/a	n/a	ROSE	12	12	[0, 0, 0]	n/a	FR1	100	R1346T
2376.503	0.0	2034994	ENCODING_END	n/a	n/a	n/a	-999	12	[0, 0, 0]	n/a	FR1	100	R1346T
2376.503	0.001	2034994	DISTRACT_START	n/a	n/a	n/a	-999	12	[0, 0, 0]	n/a	FR1	100	R1346T
2376.504	0.015	2034995	START	n/a	n/a	n/a	-999	12	[-999, -999, -999]	n/a	FR1	100	R1346T
2376.519	4.868	2035010	PROB	4.868	n/a	n/a	-999	12	[3, 3, 1]	7	FR1	100	R1346T
2381.387	5.268	2039878	PROB	5.268	n/a	n/a	-999	12	[2, 7, 1]	10	FR1	100	R1346T
2386.655	9.734	2045145	PROB	9.734	n/a	n/a	-999	12	[2, 4, 9]	15	FR1	100	R1346T
2396.389	4.085	2054879	PROB	4.085	n/a	n/a	-999	12	[2, 4, 6]	12	FR1	100	R1346T
2400.474	0.016	2058964	STOP	n/a	n/a	n/a	-999	12	[-999, -999, -999]	n/a	FR1	100	R1346T
2400.49	1.34	2058980	DISTRACT_END	n/a	n/a	n/a	-999	12	[0, 0, 0]	n/a	FR1	100	R1346T
2401.83	1.028	2060320	RETRIEVAL_ORIENT_START	n/a	n/a	n/a	-999	12	[0, 0, 0]	n/a	FR1	100	R1346T
2402.858	0.0	2061348	RETRIEVAL_ORIENT_END	n/a	n/a	n/a	-999	12	[0, 0, 0]	n/a	FR1	100	R1346T
2402.858	1.933	2061348	REC_START	n/a	n/a	n/a	-999	12	[0, 0, 0]	n/a	FR1	100	R1346T
2404.791	0.98	2063281	REC_WORD_VV	0.98	n/a	<>	-999	12	[0, 0, 0]	n/a	FR1	100	R1346T
2405.771	9.539	2064261	REC_WORD	9.539	n/a	MUD	-999	12	[0, 0, 0]	n/a	FR1	100	R1346T
2415.31	3.775	2073799	REC_WORD_VV	3.775	n/a	<>	-999	12	[0, 0, 0]	n/a	FR1	100	R1346T
2419.085	14.287	2077574	REC_WORD	14.287	n/a	MUD	-999	12	[0, 0, 0]	n/a	FR1	100	R1346T
2433.372	0.0	2091860	WAITING_START	n/a	n/a	n/a	-999	13	[0, 0, 0]	n/a	FR1	100	R1346T
2433.372	0.0	2091860	TRIAL	n/a	n/a	n/a	-999	13	[0, 0, 0]	n/a	FR1	100	R1346T
2433.372	0.0	2091860	TRIAL_START	n/a	n/a	n/a	-999	13	[0, 0, 0]	n/a	FR1	100	R1346T
2433.372	0.0	2091860	TRIAL_END	n/a	n/a	n/a	-999	12	[0, 0, 0]	n/a	FR1	100	R1346T
2433.372	483.628	2091860	REC_END	n/a	n/a	n/a	-999	12	[0, 0, 0]	n/a	FR1	100	R1346T
2917.0	0.0	2575467	ORIENT_START	n/a	n/a	n/a	-999	13	[0, 0, 0]	n/a	FR1	100	R1346T
2917.0	0.0	2575467	COUNTDOWN_START	n/a	n/a	n/a	-999	13	[0, 0, 0]	n/a	FR1	100	R1346T
2917.0	0.0	2575467	WAITING_END	n/a	n/a	n/a	-999	13	[0, 0, 0]	n/a	FR1	100	R1346T
2917.0	11.654	2575467	COUNTDOWN_END	n/a	n/a	n/a	-999	13	[0, 0, 0]	n/a	FR1	100	R1346T
2928.654	0.0	2587121	ENCODING_START	n/a	n/a	n/a	-999	13	[0, 0, 0]	n/a	FR1	100	R1346T
2928.654	1.043	2587121	ORIENT_END	n/a	n/a	n/a	-999	13	[0, 0, 0]	n/a	FR1	100	R1346T
2929.697	1.623	2588164	WORD	n/a	wordpools/wordpool_EN.txt	ZOO	1	13	[0, 0, 0]	n/a	FR1	100	R1346T
2931.32	0.901	2589787	WORD_OFF	n/a	n/a	ZOO	1	13	[0, 0, 0]	n/a	FR1	100	R1346T
2932.221	1.617	2590688	WORD	n/a	wordpools/wordpool_EN.txt	BIRD	2	13	[0, 0, 0]	n/a	FR1	100	R1346T
2933.838	0.937	2592305	WORD_OFF	n/a	n/a	BIRD	2	13	[0, 0, 0]	n/a	FR1	100	R1346T
2934.775	1.629	2593242	WORD	n/a	wordpools/wordpool_EN.txt	SUN	3	13	[0, 0, 0]	n/a	FR1	100	R1346T
2936.404	0.934	2594870	WORD_OFF	n/a	n/a	SUN	3	13	[0, 0, 0]	n/a	FR1	100	R1346T
2937.338	1.617	2595804	WORD	n/a	wordpools/wordpool_EN.txt	SPONGE	4	13	[0, 0, 0]	n/a	FR1	100	R1346T
2938.955	1.037	2597421	WORD_OFF	n/a	n/a	SPONGE	4	13	[0, 0, 0]	n/a	FR1	100	R1346T
2939.992	1.631	2598458	WORD	n/a	wordpools/wordpool_EN.txt	WHEEL	5	13	[0, 0, 0]	n/a	FR1	100	R1346T
2941.623	1.08	2600089	WORD_OFF	n/a	n/a	WHEEL	5	13	[0, 0, 0]	n/a	FR1	100	R1346T
2942.703	1.636	2601169	WORD	n/a	wordpools/wordpool_EN.txt	MUG	6	13	[0, 0, 0]	n/a	FR1	100	R1346T
2944.339	0.808	2602805	WORD_OFF	n/a	n/a	MUG	6	13	[0, 0, 0]	n/a	FR1	100	R1346T
2945.147	1.626	2603613	WORD	n/a	wordpools/wordpool_EN.txt	JET	7	13	[0, 0, 0]	n/a	FR1	100	R1346T
2946.773	1.115	2605239	WORD_OFF	n/a	n/a	JET	7	13	[0, 0, 0]	n/a	FR1	100	R1346T
2947.888	1.635	2606354	WORD	n/a	wordpools/wordpool_EN.txt	HAND	8	13	[0, 0, 0]	n/a	FR1	100	R1346T
2949.523	1.088	2607989	WORD_OFF	n/a	n/a	HAND	8	13	[0, 0, 0]	n/a	FR1	100	R1346T
2950.611	1.629	2609077	WORD	n/a	wordpools/wordpool_EN.txt	POOL	9	13	[0, 0, 0]	n/a	FR1	100	R1346T
2952.24	1.117	2610706	WORD_OFF	n/a	n/a	POOL	9	13	[0, 0, 0]	n/a	FR1	100	R1346T
2953.357	1.635	2611823	WORD	n/a	wordpools/wordpool_EN.txt	DART	10	13	[0, 0, 0]	n/a	FR1	100	R1346T
2954.992	0.886	2613458	WORD_OFF	n/a	n/a	DART	10	13	[0, 0, 0]	n/a	FR1	100	R1346T
2955.878	1.63	2614344	WORD	n/a	wordpools/wordpool_EN.txt	VAN	11	13	[0, 0, 0]	n/a	FR1	100	R1346T
2957.508	0.81	2615974	WORD_OFF	n/a	n/a	VAN	11	13	[0, 0, 0]	n/a	FR1	100	R1346T
2958.318	1.625	2616784	WORD	n/a	wordpools/wordpool_EN.txt	STAIR	12	13	[0, 0, 0]	n/a	FR1	100	R1346T
2959.943	0.0	2618408	WORD_OFF	n/a	n/a	STAIR	12	13	[0, 0, 0]	n/a	FR1	100	R1346T
2959.943	0.0	2618408	ENCODING_END	n/a	n/a	n/a	-999	13	[0, 0, 0]	n/a	FR1	100	R1346T
2959.943	0.001	2618408	DISTRACT_START	n/a	n/a	n/a	-999	13	[0, 0, 0]	n/a	FR1	100	R1346T
2959.944	0.015	2618409	START	n/a	n/a	n/a	-999	13	[-999, -999, -999]	n/a	FR1	100	R1346T
2959.959	5.785	2618424	PROB	5.785	n/a	n/a	-999	13	[1, 6, 1]	8	FR1	100	R1346T
2965.744	5.7	2624209	PROB	5.7	n/a	n/a	-999	13	[6, 5, 1]	12	FR1	100	R1346T
2971.444	5.767	2629909	PROB	5.767	n/a	n/a	-999	13	[5, 9, 2]	16	FR1	100	R1346T
2977.211	21.073	2635676	PROB	21.073	n/a	n/a	-999	13	[9, 6, 3]	18	FR1	100	R1346T
2998.284	0.014	2656748	STOP	n/a	n/a	n/a	-999	13	[-999, -999, -999]	n/a	FR1	100	R1346T
2998.298	1.061	2656762	DISTRACT_END	n/a	n/a	n/a	-999	13	[0, 0, 0]	n/a	FR1	100	R1346T
2999.359	1.023	2657823	RETRIEVAL_ORIENT_START	n/a	n/a	n/a	-999	13	[0, 0, 0]	n/a	FR1	100	R1346T
3000.382	0.0	2658846	RETRIEVAL_ORIENT_END	n/a	n/a	n/a	-999	13	[0, 0, 0]	n/a	FR1	100	R1346T
3000.382	1.013	2658846	REC_START	n/a	n/a	n/a	-999	13	[0, 0, 0]	n/a	FR1	100	R1346T
3001.395	1.0	2659859	REC_WORD_VV	1.0	n/a	<>	-999	13	[0, 0, 0]	n/a	FR1	100	R1346T
3002.395	1.0	2660859	REC_WORD_VV	1.0	n/a	<>	-999	13	[0, 0, 0]	n/a	FR1	100	R1346T
3003.395	0.355	2661859	REC_WORD_VV	0.355	n/a	<>	-999	13	[0, 0, 0]	n/a	FR1	100	R1346T
3003.75	1.49	2662214	REC_WORD	1.49	n/a	ZOO	1	13	[0, 0, 0]	n/a	FR1	100	R1346T
3005.24	2.479	2663703	REC_WORD	2.479	n/a	BIRD	2	13	[0, 0, 0]	n/a	FR1	100	R1346T
3007.719	2.321	2666182	REC_WORD	2.321	n/a	JET	7	13	[0, 0, 0]	n/a	FR1	100	R1346T
3010.04	3.016	2668503	REC_WORD	3.016	n/a	MUD	-999	13	[0, 0, 0]	n/a	FR1	100	R1346T
3013.056	4.283	2671519	REC_WORD	4.283	n/a	SUN	3	13	[0, 0, 0]	n/a	FR1	100	R1346T
3017.339	0.231	2675802	REC_WORD_VV	0.231	n/a	<>	-999	13	[0, 0, 0]	n/a	FR1	100	R1346T
3017.57	0.378	2676033	REC_WORD	0.378	n/a	SUN	3	13	[0, 0, 0]	n/a	FR1	100	R1346T
3017.948	2.223	2676411	REC_WORD	2.223	n/a	MOON	-999	13	[0, 0, 0]	n/a	FR1	100	R1346T
3020.171	10.725	2678634	REC_WORD_VV	10.725	n/a	<>	-999	13	[0, 0, 0]	n/a	FR1	100	R1346T
3030.896	0.0	2689358	REC_END	n/a	n/a	n/a	-999	13	[0, 0, 0]	n/a	FR1	100	R1346T
3030.896	0.0	2689358	TRIAL_END	n/a	n/a	n/a	-999	13	[0, 0, 0]	n/a	FR1	100	R1346T
3030.896	0.0	2689358	TRIAL_START	n/a	n/a	n/a	-999	14	[0, 0, 0]	n/a	FR1	100	R1346T
3030.896	0.0	2689358	TRIAL	n/a	n/a	n/a	-999	14	[0, 0, 0]	n/a	FR1	100	R1346T
3030.896	12.577	2689358	WAITING_START	n/a	n/a	n/a	-999	14	[0, 0, 0]	n/a	FR1	100	R1346T
3043.473	0.0	2701935	WAITING_END	n/a	n/a	n/a	-999	14	[0, 0, 0]	n/a	FR1	100	R1346T
3043.473	0.0	2701935	COUNTDOWN_START	n/a	n/a	n/a	-999	14	[0, 0, 0]	n/a	FR1	100	R1346T
3043.473	0.0	2701935	COUNTDOWN_END	n/a	n/a	n/a	-999	14	[0, 0, 0]	n/a	FR1	100	R1346T
3043.473	11.504	2701935	ORIENT_START	n/a	n/a	n/a	-999	14	[0, 0, 0]	n/a	FR1	100	R1346T
3054.977	0.0	2713438	ORIENT_END	n/a	n/a	n/a	-999	14	[0, 0, 0]	n/a	FR1	100	R1346T
3054.977	0.773	2713438	ENCODING_START	n/a	n/a	n/a	-999	14	[0, 0, 0]	n/a	FR1	100	R1346T
3055.75	1.626	2714211	WORD	n/a	wordpools/wordpool_EN.txt	FUR	1	14	[0, 0, 0]	n/a	FR1	100	R1346T
3057.376	1.045	2715837	WORD_OFF	n/a	n/a	FUR	1	14	[0, 0, 0]	n/a	FR1	100	R1346T
3058.421	1.622	2716882	WORD	n/a	wordpools/wordpool_EN.txt	HAWK	2	14	[0, 0, 0]	n/a	FR1	100	R1346T
3060.043	1.07	2718504	WORD_OFF	n/a	n/a	HAWK	2	14	[0, 0, 0]	n/a	FR1	100	R1346T
3061.113	1.632	2719574	WORD	n/a	wordpools/wordpool_EN.txt	STRAW	3	14	[0, 0, 0]	n/a	FR1	100	R1346T
3062.745	1.067	2721206	WORD_OFF	n/a	n/a	STRAW	3	14	[0, 0, 0]	n/a	FR1	100	R1346T
3063.812	1.632	2722273	WORD	n/a	wordpools/wordpool_EN.txt	TOAST	4	14	[0, 0, 0]	n/a	FR1	100	R1346T
3065.444	0.897	2723905	WORD_OFF	n/a	n/a	TOAST	4	14	[0, 0, 0]	n/a	FR1	100	R1346T
3066.341	1.638	2724802	WORD	n/a	wordpools/wordpool_EN.txt	FAN	5	14	[0, 0, 0]	n/a	FR1	100	R1346T
3067.979	0.864	2726440	WORD_OFF	n/a	n/a	FAN	5	14	[0, 0, 0]	n/a	FR1	100	R1346T
3068.843	1.635	2727304	WORD	n/a	wordpools/wordpool_EN.txt	BOX	6	14	[0, 0, 0]	n/a	FR1	100	R1346T
3070.478	1.038	2728939	WORD_OFF	n/a	n/a	BOX	6	14	[0, 0, 0]	n/a	FR1	100	R1346T
3071.516	1.629	2729977	WORD	n/a	wordpools/wordpool_EN.txt	SMOKE	7	14	[0, 0, 0]	n/a	FR1	100	R1346T
3073.145	0.837	2731606	WORD_OFF	n/a	n/a	SMOKE	7	14	[0, 0, 0]	n/a	FR1	100	R1346T
3073.982	1.631	2732442	WORD	n/a	wordpools/wordpool_EN.txt	PEARL	8	14	[0, 0, 0]	n/a	FR1	100	R1346T
3075.613	0.965	2734073	WORD_OFF	n/a	n/a	PEARL	8	14	[0, 0, 0]	n/a	FR1	100	R1346T
3076.578	1.635	2735038	WORD	n/a	wordpools/wordpool_EN.txt	ROPE	9	14	[0, 0, 0]	n/a	FR1	100	R1346T
3078.213	1.026	2736673	WORD_OFF	n/a	n/a	ROPE	9	14	[0, 0, 0]	n/a	FR1	100	R1346T
3079.239	1.625	2737699	WORD	n/a	wordpools/wordpool_EN.txt	WALL	10	14	[0, 0, 0]	n/a	FR1	100	R1346T
3080.864	0.797	2739324	WORD_OFF	n/a	n/a	WALL	10	14	[0, 0, 0]	n/a	FR1	100	R1346T
3081.661	1.62	2740121	WORD	n/a	wordpools/wordpool_EN.txt	SHEET	11	14	[0, 0, 0]	n/a	FR1	100	R1346T
3083.281	0.978	2741741	WORD_OFF	n/a	n/a	SHEET	11	14	[0, 0, 0]	n/a	FR1	100	R1346T
3084.259	1.623	2742719	WORD	n/a	wordpools/wordpool_EN.txt	CORN	12	14	[0, 0, 0]	n/a	FR1	100	R1346T
3085.882	0.0	2744342	DISTRACT_START	n/a	n/a	n/a	-999	14	[0, 0, 0]	n/a	FR1	100	R1346T
3085.882	0.0	2744342	WORD_OFF	n/a	n/a	CORN	12	14	[0, 0, 0]	n/a	FR1	100	R1346T
3085.882	0.001	2744342	ENCODING_END	n/a	n/a	n/a	-999	14	[0, 0, 0]	n/a	FR1	100	R1346T
3085.883	0.016	2744343	START	n/a	n/a	n/a	-999	14	[-999, -999, -999]	n/a	FR1	100	R1346T
3085.899	6.001	2744359	PROB	6.001	n/a	n/a	-999	14	[2, 7, 2]	11	FR1	100	R1346T
3091.9	20.841	2750360	PROB	20.841	n/a	n/a	-999	14	[8, 5, 6]	19	FR1	100	R1346T
3112.741	0.013	2771200	STOP	n/a	n/a	n/a	-999	14	[-999, -999, -999]	n/a	FR1	100	R1346T
3112.754	1.341	2771213	DISTRACT_END	n/a	n/a	n/a	-999	14	[0, 0, 0]	n/a	FR1	100	R1346T
3114.095	1.025	2772554	RETRIEVAL_ORIENT_START	n/a	n/a	n/a	-999	14	[0, 0, 0]	n/a	FR1	100	R1346T
3115.12	0.0	2773579	RETRIEVAL_ORIENT_END	n/a	n/a	n/a	-999	14	[0, 0, 0]	n/a	FR1	100	R1346T
3115.12	8.875	2773579	REC_START	n/a	n/a	n/a	-999	14	[0, 0, 0]	n/a	FR1	100	R1346T
3123.995	1.741	2782453	REC_WORD_VV	1.741	n/a	<>	-999	14	[0, 0, 0]	n/a	FR1	100	R1346T
3125.736	1.0	2784194	REC_WORD_VV	1.0	n/a	<>	-999	14	[0, 0, 0]	n/a	FR1	100	R1346T
3126.736	1.0	2785194	REC_WORD_VV	1.0	n/a	<>	-999	14	[0, 0, 0]	n/a	FR1	100	R1346T
3127.736	9.764	2786194	REC_WORD_VV	9.764	n/a	<>	-999	14	[0, 0, 0]	n/a	FR1	100	R1346T
3137.5	0.75	2795958	REC_WORD	0.75	n/a	HAND	-999	14	[0, 0, 0]	n/a	FR1	100	R1346T
3138.25	4.384	2796708	REC_WORD	4.384	n/a	FINGER	-999	14	[0, 0, 0]	n/a	FR1	100	R1346T
3142.634	2.998	2801092	REC_WORD_VV	2.998	n/a	<>	-999	14	[0, 0, 0]	n/a	FR1	100	R1346T
3145.632	0.0	2804089	TRIAL	n/a	n/a	n/a	-999	15	[0, 0, 0]	n/a	FR1	100	R1346T
3145.632	0.0	2804089	WAITING_START	n/a	n/a	n/a	-999	15	[0, 0, 0]	n/a	FR1	100	R1346T
3145.632	0.0	2804089	TRIAL_END	n/a	n/a	n/a	-999	14	[0, 0, 0]	n/a	FR1	100	R1346T
3145.632	0.0	2804089	TRIAL_START	n/a	n/a	n/a	-999	15	[0, 0, 0]	n/a	FR1	100	R1346T
3145.632	13.163	2804089	REC_END	n/a	n/a	n/a	-999	14	[0, 0, 0]	n/a	FR1	100	R1346T
3158.795	0.0	2817252	WAITING_END	n/a	n/a	n/a	-999	15	[0, 0, 0]	n/a	FR1	100	R1346T
3158.795	0.0	2817252	COUNTDOWN_START	n/a	n/a	n/a	-999	15	[0, 0, 0]	n/a	FR1	100	R1346T
3158.795	0.0	2817252	COUNTDOWN_END	n/a	n/a	n/a	-999	15	[0, 0, 0]	n/a	FR1	100	R1346T
3158.795	11.568	2817252	ORIENT_START	n/a	n/a	n/a	-999	15	[0, 0, 0]	n/a	FR1	100	R1346T
3170.363	0.0	2828819	ORIENT_END	n/a	n/a	n/a	-999	15	[0, 0, 0]	n/a	FR1	100	R1346T
3170.363	1.007	2828819	ENCODING_START	n/a	n/a	n/a	-999	15	[0, 0, 0]	n/a	FR1	100	R1346T
3171.37	1.628	2829826	WORD	n/a	wordpools/wordpool_EN.txt	HILL	1	15	[0, 0, 0]	n/a	FR1	100	R1346T
3172.998	1.115	2831454	WORD_OFF	n/a	n/a	HILL	1	15	[0, 0, 0]	n/a	FR1	100	R1346T
3174.113	1.618	2832569	WORD	n/a	wordpools/wordpool_EN.txt	POLE	2	15	[0, 0, 0]	n/a	FR1	100	R1346T
3175.731	1.094	2834187	WORD_OFF	n/a	n/a	POLE	2	15	[0, 0, 0]	n/a	FR1	100	R1346T
3176.825	1.623	2835281	WORD	n/a	wordpools/wordpool_EN.txt	MAP	3	15	[0, 0, 0]	n/a	FR1	100	R1346T
3178.448	0.977	2836904	WORD_OFF	n/a	n/a	MAP	3	15	[0, 0, 0]	n/a	FR1	100	R1346T
3179.425	1.623	2837881	WORD	n/a	wordpools/wordpool_EN.txt	ELF	4	15	[0, 0, 0]	n/a	FR1	100	R1346T
3181.048	1.15	2839504	WORD_OFF	n/a	n/a	ELF	4	15	[0, 0, 0]	n/a	FR1	100	R1346T
3182.198	1.618	2840654	WORD	n/a	wordpools/wordpool_EN.txt	PLANT	5	15	[0, 0, 0]	n/a	FR1	100	R1346T
3183.816	0.777	2842272	WORD_OFF	n/a	n/a	PLANT	5	15	[0, 0, 0]	n/a	FR1	100	R1346T
3184.593	1.64	2843049	WORD	n/a	wordpools/wordpool_EN.txt	STEAM	6	15	[0, 0, 0]	n/a	FR1	100	R1346T
3186.233	0.837	2844689	WORD_OFF	n/a	n/a	STEAM	6	15	[0, 0, 0]	n/a	FR1	100	R1346T
3187.07	1.631	2845526	WORD	n/a	wordpools/wordpool_EN.txt	RICE	7	15	[0, 0, 0]	n/a	FR1	100	R1346T
3188.701	0.888	2847156	WORD_OFF	n/a	n/a	RICE	7	15	[0, 0, 0]	n/a	FR1	100	R1346T
3189.589	1.628	2848044	WORD	n/a	wordpools/wordpool_EN.txt	AXE	8	15	[0, 0, 0]	n/a	FR1	100	R1346T
3191.217	1.124	2849672	WORD_OFF	n/a	n/a	AXE	8	15	[0, 0, 0]	n/a	FR1	100	R1346T
3192.341	1.611	2850796	WORD	n/a	wordpools/wordpool_EN.txt	CROW	9	15	[0, 0, 0]	n/a	FR1	100	R1346T
3193.952	1.117	2852407	WORD_OFF	n/a	n/a	CROW	9	15	[0, 0, 0]	n/a	FR1	100	R1346T
3195.069	1.617	2853524	WORD	n/a	wordpools/wordpool_EN.txt	MOUTH	10	15	[0, 0, 0]	n/a	FR1	100	R1346T
3196.686	1.143	2855141	WORD_OFF	n/a	n/a	MOUTH	10	15	[0, 0, 0]	n/a	FR1	100	R1346T
3197.829	1.623	2856284	WORD	n/a	wordpools/wordpool_EN.txt	BANK	11	15	[0, 0, 0]	n/a	FR1	100	R1346T
3199.452	1.068	2857907	WORD_OFF	n/a	n/a	BANK	11	15	[0, 0, 0]	n/a	FR1	100	R1346T
3200.52	1.632	2858975	WORD	n/a	wordpools/wordpool_EN.txt	GEESE	12	15	[0, 0, 0]	n/a	FR1	100	R1346T
3202.152	0.0	2860607	WORD_OFF	n/a	n/a	GEESE	12	15	[0, 0, 0]	n/a	FR1	100	R1346T
3202.152	0.0	2860607	ENCODING_END	n/a	n/a	n/a	-999	15	[0, 0, 0]	n/a	FR1	100	R1346T
3202.152	0.001	2860607	DISTRACT_START	n/a	n/a	n/a	-999	15	[0, 0, 0]	n/a	FR1	100	R1346T
3202.153	0.016	2860608	START	n/a	n/a	n/a	-999	15	[-999, -999, -999]	n/a	FR1	100	R1346T
3202.169	9.803	2860624	PROB	9.803	n/a	n/a	-999	15	[7, 4, 8]	19	FR1	100	R1346T
3211.972	4.116	2870426	PROB	4.116	n/a	n/a	-999	15	[2, 6, 5]	13	FR1	100	R1346T
3216.088	12.598	2874542	PROB	12.598	n/a	n/a	-999	15	[8, 4, 9]	21	FR1	100	R1346T
3228.686	0.022	2887140	STOP	n/a	n/a	n/a	-999	15	[-999, -999, -999]	n/a	FR1	100	R1346T
3228.708	1.23	2887162	DISTRACT_END	n/a	n/a	n/a	-999	15	[0, 0, 0]	n/a	FR1	100	R1346T
3229.938	1.02	2888392	RETRIEVAL_ORIENT_START	n/a	n/a	n/a	-999	15	[0, 0, 0]	n/a	FR1	100	R1346T
3230.958	0.0	2889412	REC_START	n/a	n/a	n/a	-999	15	[0, 0, 0]	n/a	FR1	100	R1346T
3230.958	14.477	2889412	RETRIEVAL_ORIENT_END	n/a	n/a	n/a	-999	15	[0, 0, 0]	n/a	FR1	100	R1346T
3245.435	13.007	2903888	REC_WORD_VV	13.007	n/a	<>	-999	15	[0, 0, 0]	n/a	FR1	100	R1346T
3258.442	3.029	2916894	REC_WORD_VV	3.029	n/a	<>	-999	15	[0, 0, 0]	n/a	FR1	100	R1346T
3261.471	0.0	2919923	REC_END	n/a	n/a	n/a	-999	15	[0, 0, 0]	n/a	FR1	100	R1346T
3261.471	0.0	2919923	TRIAL_END	n/a	n/a	n/a	-999	15	[0, 0, 0]	n/a	FR1	100	R1346T
3261.471	0.0	2919923	TRIAL_START	n/a	n/a	n/a	-999	16	[0, 0, 0]	n/a	FR1	100	R1346T
3261.471	0.0	2919923	TRIAL	n/a	n/a	n/a	-999	16	[0, 0, 0]	n/a	FR1	100	R1346T
3261.471	4.277	2919923	WAITING_START	n/a	n/a	n/a	-999	16	[0, 0, 0]	n/a	FR1	100	R1346T
3265.748	0.0	2924200	WAITING_END	n/a	n/a	n/a	-999	16	[0, 0, 0]	n/a	FR1	100	R1346T
3265.748	0.0	2924200	COUNTDOWN_START	n/a	n/a	n/a	-999	16	[0, 0, 0]	n/a	FR1	100	R1346T
3265.748	0.0	2924200	COUNTDOWN_END	n/a	n/a	n/a	-999	16	[0, 0, 0]	n/a	FR1	100	R1346T
3265.748	11.685	2924200	ORIENT_START	n/a	n/a	n/a	-999	16	[0, 0, 0]	n/a	FR1	100	R1346T
3277.433	0.0	2935885	ORIENT_END	n/a	n/a	n/a	-999	16	[0, 0, 0]	n/a	FR1	100	R1346T
3277.433	1.086	2935885	ENCODING_START	n/a	n/a	n/a	-999	16	[0, 0, 0]	n/a	FR1	100	R1346T
3278.519	1.631	2936971	WORD	n/a	wordpools/wordpool_EN.txt	PASTE	1	16	[0, 0, 0]	n/a	FR1	100	R1346T
3280.15	1.084	2938602	WORD_OFF	n/a	n/a	PASTE	1	16	[0, 0, 0]	n/a	FR1	100	R1346T
3281.234	1.617	2939685	WORD	n/a	wordpools/wordpool_EN.txt	CHIEF	2	16	[0, 0, 0]	n/a	FR1	100	R1346T
3282.851	1.003	2941302	WORD_OFF	n/a	n/a	CHIEF	2	16	[0, 0, 0]	n/a	FR1	100	R1346T
3283.854	1.63	2942305	WORD	n/a	wordpools/wordpool_EN.txt	CASH	3	16	[0, 0, 0]	n/a	FR1	100	R1346T
3285.484	1.019	2943935	WORD_OFF	n/a	n/a	CASH	3	16	[0, 0, 0]	n/a	FR1	100	R1346T
3286.503	1.632	2944954	WORD	n/a	wordpools/wordpool_EN.txt	SNAIL	4	16	[0, 0, 0]	n/a	FR1	100	R1346T
3288.135	1.012	2946586	WORD_OFF	n/a	n/a	SNAIL	4	16	[0, 0, 0]	n/a	FR1	100	R1346T
3289.147	1.622	2947598	WORD	n/a	wordpools/wordpool_EN.txt	TAIL	5	16	[0, 0, 0]	n/a	FR1	100	R1346T
3290.769	1.026	2949220	WORD_OFF	n/a	n/a	TAIL	5	16	[0, 0, 0]	n/a	FR1	100	R1346T
3291.795	1.624	2950246	WORD	n/a	wordpools/wordpool_EN.txt	COUCH	6	16	[0, 0, 0]	n/a	FR1	100	R1346T
3293.419	1.022	2951870	WORD_OFF	n/a	n/a	COUCH	6	16	[0, 0, 0]	n/a	FR1	100	R1346T
3294.441	1.628	2952892	WORD	n/a	wordpools/wordpool_EN.txt	LAMB	7	16	[0, 0, 0]	n/a	FR1	100	R1346T
3296.069	0.847	2954520	WORD_OFF	n/a	n/a	LAMB	7	16	[0, 0, 0]	n/a	FR1	100	R1346T
3296.916	1.637	2955367	WORD	n/a	wordpools/wordpool_EN.txt	SHIELD	8	16	[0, 0, 0]	n/a	FR1	100	R1346T
3298.553	0.934	2957004	WORD_OFF	n/a	n/a	SHIELD	8	16	[0, 0, 0]	n/a	FR1	100	R1346T
3299.487	1.633	2957938	WORD	n/a	wordpools/wordpool_EN.txt	GUARD	9	16	[0, 0, 0]	n/a	FR1	100	R1346T
3301.12	0.793	2959571	WORD_OFF	n/a	n/a	GUARD	9	16	[0, 0, 0]	n/a	FR1	100	R1346T
3301.913	1.624	2960364	WORD	n/a	wordpools/wordpool_EN.txt	DITCH	10	16	[0, 0, 0]	n/a	FR1	100	R1346T
3303.537	0.815	2961987	WORD_OFF	n/a	n/a	DITCH	10	16	[0, 0, 0]	n/a	FR1	100	R1346T
3304.352	1.637	2962802	WORD	n/a	wordpools/wordpool_EN.txt	BEAK	11	16	[0, 0, 0]	n/a	FR1	100	R1346T
3305.989	0.973	2964439	WORD_OFF	n/a	n/a	BEAK	11	16	[0, 0, 0]	n/a	FR1	100	R1346T
3306.962	1.626	2965412	WORD	n/a	wordpools/wordpool_EN.txt	WOOD	12	16	[0, 0, 0]	n/a	FR1	100	R1346T
3308.588	0.0	2967038	ENCODING_END	n/a	n/a	n/a	-999	16	[0, 0, 0]	n/a	FR1	100	R1346T
3308.588	0.0	2967038	DISTRACT_START	n/a	n/a	n/a	-999	16	[0, 0, 0]	n/a	FR1	100	R1346T
3308.588	0.002	2967038	WORD_OFF	n/a	n/a	WOOD	12	16	[0, 0, 0]	n/a	FR1	100	R1346T
3308.59	0.015	2967040	START	n/a	n/a	n/a	-999	16	[-999, -999, -999]	n/a	FR1	100	R1346T
3308.605	8.935	2967055	PROB	8.935	n/a	n/a	-999	16	[1, 6, 5]	12	FR1	100	R1346T
3317.54	5.467	2975990	PROB	5.467	n/a	n/a	-999	16	[6, 1, 6]	13	FR1	100	R1346T
3323.007	42.768	2981457	PROB	42.768	n/a	n/a	-999	16	[9, 9, 5]	23	FR1	100	R1346T
3365.775	0.008	3024223	STOP	n/a	n/a	n/a	-999	16	[-999, -999, -999]	n/a	FR1	100	R1346T
3365.783	1.179	3024231	DISTRACT_END	n/a	n/a	n/a	-999	16	[0, 0, 0]	n/a	FR1	100	R1346T
3366.962	1.021	3025410	RETRIEVAL_ORIENT_START	n/a	n/a	n/a	-999	16	[0, 0, 0]	n/a	FR1	100	R1346T
3367.983	0.0	3026431	RETRIEVAL_ORIENT_END	n/a	n/a	n/a	-999	16	[0, 0, 0]	n/a	FR1	100	R1346T
3367.983	6.593	3026431	REC_START	n/a	n/a	n/a	-999	16	[0, 0, 0]	n/a	FR1	100	R1346T
3374.576	1.0	3033023	REC_WORD_VV	1.0	n/a	<>	-999	16	[0, 0, 0]	n/a	FR1	100	R1346T
3375.576	0.87	3034023	REC_WORD_VV	0.87	n/a	<>	-999	16	[0, 0, 0]	n/a	FR1	100	R1346T
3376.446	22.048	3034893	REC_WORD	22.048	n/a	WOOD	12	16	[0, 0, 0]	n/a	FR1	100	R1346T
3398.494	0.0	3056940	REC_END	n/a	n/a	n/a	-999	16	[0, 0, 0]	n/a	FR1	100	R1346T
3398.494	0.0	3056940	TRIAL_END	n/a	n/a	n/a	-999	16	[0, 0, 0]	n/a	FR1	100	R1346T
3398.494	0.0	3056940	TRIAL_START	n/a	n/a	n/a	-999	17	[0, 0, 0]	n/a	FR1	100	R1346T
3398.494	0.0	3056940	TRIAL	n/a	n/a	n/a	-999	17	[0, 0, 0]	n/a	FR1	100	R1346T
3398.494	37.95	3056940	WAITING_START	n/a	n/a	n/a	-999	17	[0, 0, 0]	n/a	FR1	100	R1346T
3436.444	0.0	3094889	ORIENT_START	n/a	n/a	n/a	-999	17	[0, 0, 0]	n/a	FR1	100	R1346T
3436.444	0.0	3094889	COUNTDOWN_END	n/a	n/a	n/a	-999	17	[0, 0, 0]	n/a	FR1	100	R1346T
3436.444	0.0	3094889	COUNTDOWN_START	n/a	n/a	n/a	-999	17	[0, 0, 0]	n/a	FR1	100	R1346T
3436.444	11.504	3094889	WAITING_END	n/a	n/a	n/a	-999	17	[0, 0, 0]	n/a	FR1	100	R1346T
3447.948	0.0	3106392	ORIENT_END	n/a	n/a	n/a	-999	17	[0, 0, 0]	n/a	FR1	100	R1346T
3447.948	1.131	3106392	ENCODING_START	n/a	n/a	n/a	-999	17	[0, 0, 0]	n/a	FR1	100	R1346T
3449.079	1.619	3107523	WORD	n/a	wordpools/wordpool_EN.txt	BEAR	1	17	[0, 0, 0]	n/a	FR1	100	R1346T
3450.698	0.753	3109142	WORD_OFF	n/a	n/a	BEAR	1	17	[0, 0, 0]	n/a	FR1	100	R1346T
3451.451	1.63	3109895	WORD	n/a	wordpools/wordpool_EN.txt	ROCK	2	17	[0, 0, 0]	n/a	FR1	100	R1346T
3453.081	0.939	3111525	WORD_OFF	n/a	n/a	ROCK	2	17	[0, 0, 0]	n/a	FR1	100	R1346T
3454.02	1.629	3112464	WORD	n/a	wordpools/wordpool_EN.txt	THUMB	3	17	[0, 0, 0]	n/a	FR1	100	R1346T
3455.649	0.761	3114093	WORD_OFF	n/a	n/a	THUMB	3	17	[0, 0, 0]	n/a	FR1	100	R1346T
3456.41	1.622	3114854	WORD	n/a	wordpools/wordpool_EN.txt	TRUCK	4	17	[0, 0, 0]	n/a	FR1	100	R1346T
3458.032	0.901	3116476	WORD_OFF	n/a	n/a	TRUCK	4	17	[0, 0, 0]	n/a	FR1	100	R1346T
3458.933	1.633	3117377	WORD	n/a	wordpools/wordpool_EN.txt	MILK	5	17	[0, 0, 0]	n/a	FR1	100	R1346T
3460.566	0.79	3119010	WORD_OFF	n/a	n/a	MILK	5	17	[0, 0, 0]	n/a	FR1	100	R1346T
3461.356	1.611	3119800	WORD	n/a	wordpools/wordpool_EN.txt	SKY	6	17	[0, 0, 0]	n/a	FR1	100	R1346T
3462.967	0.886	3121411	WORD_OFF	n/a	n/a	SKY	6	17	[0, 0, 0]	n/a	FR1	100	R1346T
3463.853	1.63	3122296	WORD	n/a	wordpools/wordpool_EN.txt	BEACH	7	17	[0, 0, 0]	n/a	FR1	100	R1346T
3465.483	1.029	3123926	WORD_OFF	n/a	n/a	BEACH	7	17	[0, 0, 0]	n/a	FR1	100	R1346T
3466.512	1.638	3124955	WORD	n/a	wordpools/wordpool_EN.txt	MAIL	8	17	[0, 0, 0]	n/a	FR1	100	R1346T
3468.15	0.803	3126593	WORD_OFF	n/a	n/a	MAIL	8	17	[0, 0, 0]	n/a	FR1	100	R1346T
3468.953	1.631	3127396	WORD	n/a	wordpools/wordpool_EN.txt	MULE	9	17	[0, 0, 0]	n/a	FR1	100	R1346T
3470.584	0.792	3129027	WORD_OFF	n/a	n/a	MULE	9	17	[0, 0, 0]	n/a	FR1	100	R1346T
3471.376	1.625	3129819	WORD	n/a	wordpools/wordpool_EN.txt	SHELL	10	17	[0, 0, 0]	n/a	FR1	100	R1346T
3473.001	0.763	3131444	WORD_OFF	n/a	n/a	SHELL	10	17	[0, 0, 0]	n/a	FR1	100	R1346T
3473.764	1.621	3132207	WORD	n/a	wordpools/wordpool_EN.txt	PIPE	11	17	[0, 0, 0]	n/a	FR1	100	R1346T
3475.385	0.799	3133828	WORD_OFF	n/a	n/a	PIPE	11	17	[0, 0, 0]	n/a	FR1	100	R1346T
3476.184	1.636	3134627	WORD	n/a	wordpools/wordpool_EN.txt	MOLE	12	17	[0, 0, 0]	n/a	FR1	100	R1346T
3477.82	0.0	3136263	DISTRACT_START	n/a	n/a	n/a	-999	17	[0, 0, 0]	n/a	FR1	100	R1346T
3477.82	0.0	3136263	ENCODING_END	n/a	n/a	n/a	-999	17	[0, 0, 0]	n/a	FR1	100	R1346T
3477.82	0.001	3136263	WORD_OFF	n/a	n/a	MOLE	12	17	[0, 0, 0]	n/a	FR1	100	R1346T
3477.821	0.016	3136264	START	n/a	n/a	n/a	-999	17	[-999, -999, -999]	n/a	FR1	100	R1346T
3477.837	8.885	3136280	PROB	8.885	n/a	n/a	-999	17	[5, 6, 8]	18	FR1	100	R1346T
3486.722	6.067	3145164	PROB	6.067	n/a	n/a	-999	17	[5, 4, 4]	13	FR1	100	R1346T
3492.789	5.416	3151231	PROB	5.416	n/a	n/a	-999	17	[2, 5, 3]	10	FR1	100	R1346T
3498.205	0.018	3156647	STOP	n/a	n/a	n/a	-999	17	[-999, -999, -999]	n/a	FR1	100	R1346T
3498.223	1.115	3156665	DISTRACT_END	n/a	n/a	n/a	-999	17	[0, 0, 0]	n/a	FR1	100	R1346T
3499.338	1.018	3157780	RETRIEVAL_ORIENT_START	n/a	n/a	n/a	-999	17	[0, 0, 0]	n/a	FR1	100	R1346T
3500.356	0.0	3158798	RETRIEVAL_ORIENT_END	n/a	n/a	n/a	-999	17	[0, 0, 0]	n/a	FR1	100	R1346T
3500.356	3.609	3158798	REC_START	n/a	n/a	n/a	-999	17	[0, 0, 0]	n/a	FR1	100	R1346T
3503.965	0.883	3162407	REC_WORD_VV	0.883	n/a	<>	-999	17	[0, 0, 0]	n/a	FR1	100	R1346T
3504.848	4.413	3163290	REC_WORD	4.413	n/a	MULE	9	17	[0, 0, 0]	n/a	FR1	100	R1346T
3509.261	4.365	3167703	REC_WORD	4.365	n/a	THUMB	3	17	[0, 0, 0]	n/a	FR1	100	R1346T
3513.626	2.256	3172067	REC_WORD_VV	2.256	n/a	<>	-999	17	[0, 0, 0]	n/a	FR1	100	R1346T
3515.882	1.76	3174323	REC_WORD	1.76	n/a	ROCK	2	17	[0, 0, 0]	n/a	FR1	100	R1346T
3517.642	13.226	3176083	REC_WORD	13.226	n/a	BEAR	1	17	[0, 0, 0]	n/a	FR1	100	R1346T
3530.868	0.0	3189309	WAITING_START	n/a	n/a	n/a	-999	18	[0, 0, 0]	n/a	FR1	100	R1346T
3530.868	0.0	3189309	TRIAL	n/a	n/a	n/a	-999	18	[0, 0, 0]	n/a	FR1	100	R1346T
3530.868	0.0	3189309	REC_END	n/a	n/a	n/a	-999	17	[0, 0, 0]	n/a	FR1	100	R1346T
3530.868	0.0	3189309	TRIAL_END	n/a	n/a	n/a	-999	17	[0, 0, 0]	n/a	FR1	100	R1346T
3530.868	9.212	3189309	TRIAL_START	n/a	n/a	n/a	-999	18	[0, 0, 0]	n/a	FR1	100	R1346T
3540.08	0.0	3198520	WAITING_END	n/a	n/a	n/a	-999	18	[0, 0, 0]	n/a	FR1	100	R1346T
3540.08	0.0	3198520	COUNTDOWN_START	n/a	n/a	n/a	-999	18	[0, 0, 0]	n/a	FR1	100	R1346T
3540.08	0.0	3198520	COUNTDOWN_END	n/a	n/a	n/a	-999	18	[0, 0, 0]	n/a	FR1	100	R1346T
3540.08	11.553	3198520	ORIENT_START	n/a	n/a	n/a	-999	18	[0, 0, 0]	n/a	FR1	100	R1346T
3551.633	0.0	3210073	ORIENT_END	n/a	n/a	n/a	-999	18	[0, 0, 0]	n/a	FR1	100	R1346T
3551.633	0.815	3210073	ENCODING_START	n/a	n/a	n/a	-999	18	[0, 0, 0]	n/a	FR1	100	R1346T
3552.448	1.635	3210888	WORD	n/a	wordpools/wordpool_EN.txt	DRESS	1	18	[0, 0, 0]	n/a	FR1	100	R1346T
3554.083	0.85	3212523	WORD_OFF	n/a	n/a	DRESS	1	18	[0, 0, 0]	n/a	FR1	100	R1346T
3554.933	1.634	3213373	WORD	n/a	wordpools/wordpool_EN.txt	SLUSH	2	18	[0, 0, 0]	n/a	FR1	100	R1346T
3556.567	0.962	3215006	WORD_OFF	n/a	n/a	SLUSH	2	18	[0, 0, 0]	n/a	FR1	100	R1346T
3557.529	1.638	3215968	WORD	n/a	wordpools/wordpool_EN.txt	GRASS	3	18	[0, 0, 0]	n/a	FR1	100	R1346T
3559.167	1.022	3217606	WORD_OFF	n/a	n/a	GRASS	3	18	[0, 0, 0]	n/a	FR1	100	R1346T
3560.189	1.63	3218628	WORD	n/a	wordpools/wordpool_EN.txt	ARK	4	18	[0, 0, 0]	n/a	FR1	100	R1346T
3561.819	1.086	3220258	WORD_OFF	n/a	n/a	ARK	4	18	[0, 0, 0]	n/a	FR1	100	R1346T
3562.905	1.63	3221344	WORD	n/a	wordpools/wordpool_EN.txt	HAT	5	18	[0, 0, 0]	n/a	FR1	100	R1346T
3564.535	1.101	3222974	WORD_OFF	n/a	n/a	HAT	5	18	[0, 0, 0]	n/a	FR1	100	R1346T
3565.636	1.632	3224075	WORD	n/a	wordpools/wordpool_EN.txt	STRING	6	18	[0, 0, 0]	n/a	FR1	100	R1346T
3567.268	0.976	3225707	WORD_OFF	n/a	n/a	STRING	6	18	[0, 0, 0]	n/a	FR1	100	R1346T
3568.244	1.626	3226683	WORD	n/a	wordpools/wordpool_EN.txt	BLUSH	7	18	[0, 0, 0]	n/a	FR1	100	R1346T
3569.87	1.135	3228309	WORD_OFF	n/a	n/a	BLUSH	7	18	[0, 0, 0]	n/a	FR1	100	R1346T
3571.005	1.632	3229444	WORD	n/a	wordpools/wordpool_EN.txt	ROAD	8	18	[0, 0, 0]	n/a	FR1	100	R1346T
3572.637	1.01	3231076	WORD_OFF	n/a	n/a	ROAD	8	18	[0, 0, 0]	n/a	FR1	100	R1346T
3573.647	1.623	3232086	WORD	n/a	wordpools/wordpool_EN.txt	COW	9	18	[0, 0, 0]	n/a	FR1	100	R1346T
3575.27	0.787	3233709	WORD_OFF	n/a	n/a	COW	9	18	[0, 0, 0]	n/a	FR1	100	R1346T
3576.057	1.631	3234496	WORD	n/a	wordpools/wordpool_EN.txt	OAR	10	18	[0, 0, 0]	n/a	FR1	100	R1346T
3577.688	0.903	3236127	WORD_OFF	n/a	n/a	OAR	10	18	[0, 0, 0]	n/a	FR1	100	R1346T
3578.591	1.63	3237029	WORD	n/a	wordpools/wordpool_EN.txt	CONE	11	18	[0, 0, 0]	n/a	FR1	100	R1346T
3580.221	0.832	3238659	WORD_OFF	n/a	n/a	CONE	11	18	[0, 0, 0]	n/a	FR1	100	R1346T
3581.053	1.636	3239491	WORD	n/a	wordpools/wordpool_EN.txt	FLAG	12	18	[0, 0, 0]	n/a	FR1	100	R1346T
3582.689	0.0	3241127	DISTRACT_START	n/a	n/a	n/a	-999	18	[0, 0, 0]	n/a	FR1	100	R1346T
3582.689	0.0	3241127	ENCODING_END	n/a	n/a	n/a	-999	18	[0, 0, 0]	n/a	FR1	100	R1346T
3582.689	0.001	3241127	WORD_OFF	n/a	n/a	FLAG	12	18	[0, 0, 0]	n/a	FR1	100	R1346T
3582.69	0.016	3241128	START	n/a	n/a	n/a	-999	18	[-999, -999, -999]	n/a	FR1	100	R1346T
3582.706	5.8	3241144	PROB	5.8	n/a	n/a	-999	18	[2, 1, 6]	9	FR1	100	R1346T
3588.506	4.067	3246944	PROB	4.067	n/a	n/a	-999	18	[1, 6, 3]	10	FR1	100	R1346T
3592.573	4.501	3251011	PROB	4.501	n/a	n/a	-999	18	[5, 8, 4]	17	FR1	100	R1346T
3597.074	4.534	3255512	PROB	4.534	n/a	n/a	-999	18	[6, 4, 8]	18	FR1	100	R1346T
3601.608	4.451	3260045	PROB	4.451	n/a	n/a	-999	18	[1, 4, 2]	7	FR1	100	R1346T
3606.059	0.017	3264496	STOP	n/a	n/a	n/a	-999	18	[-999, -999, -999]	n/a	FR1	100	R1346T
3606.076	1.214	3264513	DISTRACT_END	n/a	n/a	n/a	-999	18	[0, 0, 0]	n/a	FR1	100	R1346T
3607.29	1.019	3265727	RETRIEVAL_ORIENT_START	n/a	n/a	n/a	-999	18	[0, 0, 0]	n/a	FR1	100	R1346T
3608.309	0.0	3266746	RETRIEVAL_ORIENT_END	n/a	n/a	n/a	-999	18	[0, 0, 0]	n/a	FR1	100	R1346T
3608.309	1.653	3266746	REC_START	n/a	n/a	n/a	-999	18	[0, 0, 0]	n/a	FR1	100	R1346T
3609.962	4.687	3268399	REC_WORD_VV	4.687	n/a	<>	-999	18	[0, 0, 0]	n/a	FR1	100	R1346T
3614.649	8.095	3273086	REC_WORD	8.095	n/a	ARK	4	18	[0, 0, 0]	n/a	FR1	100	R1346T
3622.744	1.974	3281181	REC_WORD_VV	1.974	n/a	<>	-999	18	[0, 0, 0]	n/a	FR1	100	R1346T
3624.718	0.391	3283154	REC_WORD_VV	0.391	n/a	<>	-999	18	[0, 0, 0]	n/a	FR1	100	R1346T
3625.109	1.227	3283545	REC_WORD	1.227	n/a	ARK	4	18	[0, 0, 0]	n/a	FR1	100	R1346T
3626.336	2.046	3284772	REC_WORD	2.046	n/a	OAR	10	18	[0, 0, 0]	n/a	FR1	100	R1346T
3628.382	10.439	3286818	REC_WORD	10.439	n/a	COW	9	18	[0, 0, 0]	n/a	FR1	100	R1346T
3638.821	0.0	3297257	REC_END	n/a	n/a	n/a	-999	18	[0, 0, 0]	n/a	FR1	100	R1346T
3638.821	0.0	3297257	TRIAL_END	n/a	n/a	n/a	-999	18	[0, 0, 0]	n/a	FR1	100	R1346T
3638.821	0.0	3297257	TRIAL_START	n/a	n/a	n/a	-999	19	[0, 0, 0]	n/a	FR1	100	R1346T
3638.821	0.0	3297257	TRIAL	n/a	n/a	n/a	-999	19	[0, 0, 0]	n/a	FR1	100	R1346T
3638.821	9.529	3297257	WAITING_START	n/a	n/a	n/a	-999	19	[0, 0, 0]	n/a	FR1	100	R1346T
3648.35	0.0	3306785	ORIENT_START	n/a	n/a	n/a	-999	19	[0, 0, 0]	n/a	FR1	100	R1346T
3648.35	0.0	3306785	COUNTDOWN_START	n/a	n/a	n/a	-999	19	[0, 0, 0]	n/a	FR1	100	R1346T
3648.35	0.0	3306785	COUNTDOWN_END	n/a	n/a	n/a	-999	19	[0, 0, 0]	n/a	FR1	100	R1346T
3648.35	11.503	3306785	WAITING_END	n/a	n/a	n/a	-999	19	[0, 0, 0]	n/a	FR1	100	R1346T
3659.853	0.0	3318288	ORIENT_END	n/a	n/a	n/a	-999	19	[0, 0, 0]	n/a	FR1	100	R1346T
3659.853	0.766	3318288	ENCODING_START	n/a	n/a	n/a	-999	19	[0, 0, 0]	n/a	FR1	100	R1346T
3660.619	1.633	3319054	WORD	n/a	wordpools/wordpool_EN.txt	STREET	1	19	[0, 0, 0]	n/a	FR1	100	R1346T
3662.252	0.901	3320687	WORD_OFF	n/a	n/a	STREET	1	19	[0, 0, 0]	n/a	FR1	100	R1346T
3663.153	1.618	3321588	WORD	n/a	wordpools/wordpool_EN.txt	BRIDGE	2	19	[0, 0, 0]	n/a	FR1	100	R1346T
3664.771	1.073	3323206	WORD_OFF	n/a	n/a	BRIDGE	2	19	[0, 0, 0]	n/a	FR1	100	R1346T
3665.844	1.626	3324279	WORD	n/a	wordpools/wordpool_EN.txt	FLAME	3	19	[0, 0, 0]	n/a	FR1	100	R1346T
3667.47	0.843	3325905	WORD_OFF	n/a	n/a	FLAME	3	19	[0, 0, 0]	n/a	FR1	100	R1346T
3668.313	1.625	3326748	WORD	n/a	wordpools/wordpool_EN.txt	FARM	4	19	[0, 0, 0]	n/a	FR1	100	R1346T
3669.938	0.946	3328373	WORD_OFF	n/a	n/a	FARM	4	19	[0, 0, 0]	n/a	FR1	100	R1346T
3670.884	1.637	3329318	WORD	n/a	wordpools/wordpool_EN.txt	SLEEVE	5	19	[0, 0, 0]	n/a	FR1	100	R1346T
3672.521	0.872	3330955	WORD_OFF	n/a	n/a	SLEEVE	5	19	[0, 0, 0]	n/a	FR1	100	R1346T
3673.393	1.628	3331827	WORD	n/a	wordpools/wordpool_EN.txt	SHIRT	6	19	[0, 0, 0]	n/a	FR1	100	R1346T
3675.021	0.96	3333455	WORD_OFF	n/a	n/a	SHIRT	6	19	[0, 0, 0]	n/a	FR1	100	R1346T
3675.981	1.624	3334415	WORD	n/a	wordpools/wordpool_EN.txt	STONE	7	19	[0, 0, 0]	n/a	FR1	100	R1346T
3677.605	0.865	3336039	WORD_OFF	n/a	n/a	STONE	7	19	[0, 0, 0]	n/a	FR1	100	R1346T
3678.47	1.636	3336904	WORD	n/a	wordpools/wordpool_EN.txt	PLANE	8	19	[0, 0, 0]	n/a	FR1	100	R1346T
3680.106	0.939	3338540	WORD_OFF	n/a	n/a	PLANE	8	19	[0, 0, 0]	n/a	FR1	100	R1346T
3681.045	1.612	3339479	WORD	n/a	wordpools/wordpool_EN.txt	CRANE	9	19	[0, 0, 0]	n/a	FR1	100	R1346T
3682.657	0.805	3341091	WORD_OFF	n/a	n/a	CRANE	9	19	[0, 0, 0]	n/a	FR1	100	R1346T
3683.462	1.628	3341896	WORD	n/a	wordpools/wordpool_EN.txt	GLASS	10	19	[0, 0, 0]	n/a	FR1	100	R1346T
3685.09	1.062	3343524	WORD_OFF	n/a	n/a	GLASS	10	19	[0, 0, 0]	n/a	FR1	100	R1346T
3686.152	1.639	3344586	WORD	n/a	wordpools/wordpool_EN.txt	SEAT	11	19	[0, 0, 0]	n/a	FR1	100	R1346T
3687.791	1.046	3346225	WORD_OFF	n/a	n/a	SEAT	11	19	[0, 0, 0]	n/a	FR1	100	R1346T
3688.837	1.621	3347271	WORD	n/a	wordpools/wordpool_EN.txt	TRAY	12	19	[0, 0, 0]	n/a	FR1	100	R1346T
3690.458	0.0	3348892	WORD_OFF	n/a	n/a	TRAY	12	19	[0, 0, 0]	n/a	FR1	100	R1346T
3690.458	0.0	3348892	ENCODING_END	n/a	n/a	n/a	-999	19	[0, 0, 0]	n/a	FR1	100	R1346T
3690.458	0.001	3348892	DISTRACT_START	n/a	n/a	n/a	-999	19	[0, 0, 0]	n/a	FR1	100	R1346T
3690.459	0.015	3348893	START	n/a	n/a	n/a	-999	19	[-999, -999, -999]	n/a	FR1	100	R1346T
3690.474	4.352	3348908	PROB	4.352	n/a	n/a	-999	19	[2, 2, 8]	12	FR1	100	R1346T
3694.826	3.266	3353259	PROB	3.266	n/a	n/a	-999	19	[2, 2, 1]	5	FR1	100	R1346T
3698.092	4.234	3356525	PROB	4.234	n/a	n/a	-999	19	[4, 2, 2]	8	FR1	100	R1346T
3702.326	7.085	3360759	PROB	7.085	n/a	n/a	-999	19	[5, 8, 3]	16	FR1	100	R1346T
3709.411	13.108	3367844	PROB	13.108	n/a	n/a	-999	19	[7, 4, 8]	19	FR1	100	R1346T
3722.519	0.011	3380951	STOP	n/a	n/a	n/a	-999	19	[-999, -999, -999]	n/a	FR1	100	R1346T
3722.53	1.288	3380962	DISTRACT_END	n/a	n/a	n/a	-999	19	[0, 0, 0]	n/a	FR1	100	R1346T
3723.818	1.03	3382250	RETRIEVAL_ORIENT_START	n/a	n/a	n/a	-999	19	[0, 0, 0]	n/a	FR1	100	R1346T
3724.848	0.0	3383280	RETRIEVAL_ORIENT_END	n/a	n/a	n/a	-999	19	[0, 0, 0]	n/a	FR1	100	R1346T
3724.848	5.331	3383280	REC_START	n/a	n/a	n/a	-999	19	[0, 0, 0]	n/a	FR1	100	R1346T
3730.179	11.176	3388611	REC_WORD_VV	11.176	n/a	<>	-999	19	[0, 0, 0]	n/a	FR1	100	R1346T
3741.355	2.143	3399786	REC_WORD_VV	2.143	n/a	<>	-999	19	[0, 0, 0]	n/a	FR1	100	R1346T
3743.498	1.243	3401929	REC_WORD	1.243	n/a	ROAD	-999	19	[0, 0, 0]	n/a	FR1	100	R1346T
3744.741	0.692	3403172	REC_WORD	0.692	n/a	FLOOD	-999	19	[0, 0, 0]	n/a	FR1	100	R1346T
3745.433	5.48	3403864	REC_WORD_VV	5.48	n/a	<>	-999	19	[0, 0, 0]	n/a	FR1	100	R1346T
3750.913	4.448	3409344	REC_WORD_VV	4.448	n/a	<>	-999	19	[0, 0, 0]	n/a	FR1	100	R1346T
3755.361	0.0	3413792	WAITING_START	n/a	n/a	n/a	-999	20	[0, 0, 0]	n/a	FR1	100	R1346T
3755.361	0.0	3413792	TRIAL	n/a	n/a	n/a	-999	20	[0, 0, 0]	n/a	FR1	100	R1346T
3755.361	0.0	3413792	REC_END	n/a	n/a	n/a	-999	19	[0, 0, 0]	n/a	FR1	100	R1346T
3755.361	0.0	3413792	TRIAL_END	n/a	n/a	n/a	-999	19	[0, 0, 0]	n/a	FR1	100	R1346T
3755.361	17.596	3413792	TRIAL_START	n/a	n/a	n/a	-999	20	[0, 0, 0]	n/a	FR1	100	R1346T
3772.957	0.0	3431387	WAITING_END	n/a	n/a	n/a	-999	20	[0, 0, 0]	n/a	FR1	100	R1346T
3772.957	0.0	3431387	COUNTDOWN_START	n/a	n/a	n/a	-999	20	[0, 0, 0]	n/a	FR1	100	R1346T
3772.957	0.0	3431387	COUNTDOWN_END	n/a	n/a	n/a	-999	20	[0, 0, 0]	n/a	FR1	100	R1346T
3772.957	11.601	3431387	ORIENT_START	n/a	n/a	n/a	-999	20	[0, 0, 0]	n/a	FR1	100	R1346T
3784.558	0.0	3442988	ORIENT_END	n/a	n/a	n/a	-999	20	[0, 0, 0]	n/a	FR1	100	R1346T
3784.558	0.957	3442988	ENCODING_START	n/a	n/a	n/a	-999	20	[0, 0, 0]	n/a	FR1	100	R1346T
3785.515	1.627	3443944	WORD	n/a	wordpools/wordpool_EN.txt	BOWL	1	20	[0, 0, 0]	n/a	FR1	100	R1346T
3787.142	1.063	3445571	WORD_OFF	n/a	n/a	BOWL	1	20	[0, 0, 0]	n/a	FR1	100	R1346T
3788.205	1.622	3446634	WORD	n/a	wordpools/wordpool_EN.txt	BALL	2	20	[0, 0, 0]	n/a	FR1	100	R1346T
3789.827	1.057	3448256	WORD_OFF	n/a	n/a	BALL	2	20	[0, 0, 0]	n/a	FR1	100	R1346T
3790.884	1.625	3449313	WORD	n/a	wordpools/wordpool_EN.txt	CHALK	3	20	[0, 0, 0]	n/a	FR1	100	R1346T
3792.509	0.848	3450938	WORD_OFF	n/a	n/a	CHALK	3	20	[0, 0, 0]	n/a	FR1	100	R1346T
3793.357	1.621	3451786	WORD	n/a	wordpools/wordpool_EN.txt	TENT	4	20	[0, 0, 0]	n/a	FR1	100	R1346T
3794.978	1.05	3453407	WORD_OFF	n/a	n/a	TENT	4	20	[0, 0, 0]	n/a	FR1	100	R1346T
3796.028	1.617	3454457	WORD	n/a	wordpools/wordpool_EN.txt	RAIN	5	20	[0, 0, 0]	n/a	FR1	100	R1346T
3797.645	0.887	3456074	WORD_OFF	n/a	n/a	RAIN	5	20	[0, 0, 0]	n/a	FR1	100	R1346T
3798.532	1.629	3456961	WORD	n/a	wordpools/wordpool_EN.txt	MOUSE	6	20	[0, 0, 0]	n/a	FR1	100	R1346T
3800.161	0.822	3458590	WORD_OFF	n/a	n/a	MOUSE	6	20	[0, 0, 0]	n/a	FR1	100	R1346T
3800.983	1.628	3459412	WORD	n/a	wordpools/wordpool_EN.txt	BARN	7	20	[0, 0, 0]	n/a	FR1	100	R1346T
3802.611	1.054	3461040	WORD_OFF	n/a	n/a	BARN	7	20	[0, 0, 0]	n/a	FR1	100	R1346T
3803.665	1.63	3462094	WORD	n/a	wordpools/wordpool_EN.txt	CLIFF	8	20	[0, 0, 0]	n/a	FR1	100	R1346T
3805.295	1.143	3463724	WORD_OFF	n/a	n/a	CLIFF	8	20	[0, 0, 0]	n/a	FR1	100	R1346T
3806.438	1.624	3464867	WORD	n/a	wordpools/wordpool_EN.txt	SEAL	9	20	[0, 0, 0]	n/a	FR1	100	R1346T
3808.062	1.033	3466490	WORD_OFF	n/a	n/a	SEAL	9	20	[0, 0, 0]	n/a	FR1	100	R1346T
3809.095	1.619	3467523	WORD	n/a	wordpools/wordpool_EN.txt	BATH	10	20	[0, 0, 0]	n/a	FR1	100	R1346T
3810.714	1.005	3469142	WORD_OFF	n/a	n/a	BATH	10	20	[0, 0, 0]	n/a	FR1	100	R1346T
3811.719	1.628	3470147	WORD	n/a	wordpools/wordpool_EN.txt	CLOUD	11	20	[0, 0, 0]	n/a	FR1	100	R1346T
3813.347	0.995	3471775	WORD_OFF	n/a	n/a	CLOUD	11	20	[0, 0, 0]	n/a	FR1	100	R1346T
3814.342	1.623	3472770	WORD	n/a	wordpools/wordpool_EN.txt	SPARK	12	20	[0, 0, 0]	n/a	FR1	100	R1346T
3815.965	0.0	3474393	DISTRACT_START	n/a	n/a	n/a	-999	20	[0, 0, 0]	n/a	FR1	100	R1346T
3815.965	0.0	3474393	WORD_OFF	n/a	n/a	SPARK	12	20	[0, 0, 0]	n/a	FR1	100	R1346T
3815.965	0.001	3474393	ENCODING_END	n/a	n/a	n/a	-999	20	[0, 0, 0]	n/a	FR1	100	R1346T
3815.966	0.015	3474394	START	n/a	n/a	n/a	-999	20	[-999, -999, -999]	n/a	FR1	100	R1346T
3815.981	5.735	3474409	PROB	5.735	n/a	n/a	-999	20	[3, 5, 9]	17	FR1	100	R1346T
3821.716	3.449	3480144	PROB	3.449	n/a	n/a	-999	20	[5, 2, 5]	12	FR1	100	R1346T
3825.165	6.586	3483593	PROB	6.586	n/a	n/a	-999	20	[7, 8, 3]	18	FR1	100	R1346T
3831.751	39.767	3490178	PROB	39.767	n/a	n/a	-999	20	[4, 5, 7]	16	FR1	100	R1346T
3871.518	0.005	3529944	STOP	n/a	n/a	n/a	-999	20	[-999, -999, -999]	n/a	FR1	100	R1346T
3871.523	1.123	3529949	DISTRACT_END	n/a	n/a	n/a	-999	20	[0, 0, 0]	n/a	FR1	100	R1346T
3872.646	1.029	3531072	RETRIEVAL_ORIENT_START	n/a	n/a	n/a	-999	20	[0, 0, 0]	n/a	FR1	100	R1346T
3873.675	0.0	3532101	RETRIEVAL_ORIENT_END	n/a	n/a	n/a	-999	20	[0, 0, 0]	n/a	FR1	100	R1346T
3873.675	1.659	3532101	REC_START	n/a	n/a	n/a	-999	20	[0, 0, 0]	n/a	FR1	100	R1346T
3875.334	1.0	3533760	REC_WORD_VV	1.0	n/a	<>	-999	20	[0, 0, 0]	n/a	FR1	100	R1346T
3876.334	1.0	3534760	REC_WORD_VV	1.0	n/a	<>	-999	20	[0, 0, 0]	n/a	FR1	100	R1346T
3877.334	10.817	3535759	REC_WORD_VV	10.817	n/a	<>	-999	20	[0, 0, 0]	n/a	FR1	100	R1346T
3888.151	1.0	3546576	REC_WORD_VV	1.0	n/a	<>	-999	20	[0, 0, 0]	n/a	FR1	100	R1346T
3889.151	1.0	3547576	REC_WORD_VV	1.0	n/a	<>	-999	20	[0, 0, 0]	n/a	FR1	100	R1346T
3890.151	1.0	3548576	REC_WORD_VV	1.0	n/a	<>	-999	20	[0, 0, 0]	n/a	FR1	100	R1346T
3891.151	1.0	3549576	REC_WORD_VV	1.0	n/a	<>	-999	20	[0, 0, 0]	n/a	FR1	100	R1346T
3892.151	1.0	3550576	REC_WORD_VV	1.0	n/a	<>	-999	20	[0, 0, 0]	n/a	FR1	100	R1346T
3893.151	1.0	3551576	REC_WORD_VV	1.0	n/a	<>	-999	20	[0, 0, 0]	n/a	FR1	100	R1346T
3894.151	10.037	3552576	REC_WORD_VV	10.037	n/a	<>	-999	20	[0, 0, 0]	n/a	FR1	100	R1346T
3904.188	0.0	3562612	TRIAL	n/a	n/a	n/a	-999	21	[0, 0, 0]	n/a	FR1	100	R1346T
3904.188	0.0	3562612	WAITING_START	n/a	n/a	n/a	-999	21	[0, 0, 0]	n/a	FR1	100	R1346T
3904.188	0.0	3562612	TRIAL_START	n/a	n/a	n/a	-999	21	[0, 0, 0]	n/a	FR1	100	R1346T
3904.188	0.0	3562612	REC_END	n/a	n/a	n/a	-999	20	[0, 0, 0]	n/a	FR1	100	R1346T
3904.188	24.313	3562612	TRIAL_END	n/a	n/a	n/a	-999	20	[0, 0, 0]	n/a	FR1	100	R1346T
3928.501	0.0	3586924	COUNTDOWN_START	n/a	n/a	n/a	-999	21	[0, 0, 0]	n/a	FR1	100	R1346T
3928.501	0.0	3586924	ORIENT_START	n/a	n/a	n/a	-999	21	[0, 0, 0]	n/a	FR1	100	R1346T
3928.501	0.0	3586924	WAITING_END	n/a	n/a	n/a	-999	21	[0, 0, 0]	n/a	FR1	100	R1346T
3928.501	11.669	3586924	COUNTDOWN_END	n/a	n/a	n/a	-999	21	[0, 0, 0]	n/a	FR1	100	R1346T
3940.17	0.0	3598593	ORIENT_END	n/a	n/a	n/a	-999	21	[0, 0, 0]	n/a	FR1	100	R1346T
3940.17	0.974	3598593	ENCODING_START	n/a	n/a	n/a	-999	21	[0, 0, 0]	n/a	FR1	100	R1346T
3941.144	1.627	3599567	WORD	n/a	wordpools/wordpool_EN.txt	JAIL	1	21	[0, 0, 0]	n/a	FR1	100	R1346T
3942.771	0.881	3601194	WORD_OFF	n/a	n/a	JAIL	1	21	[0, 0, 0]	n/a	FR1	100	R1346T
3943.652	1.635	3602075	WORD	n/a	wordpools/wordpool_EN.txt	WAND	2	21	[0, 0, 0]	n/a	FR1	100	R1346T
3945.287	1.106	3603710	WORD_OFF	n/a	n/a	WAND	2	21	[0, 0, 0]	n/a	FR1	100	R1346T
3946.393	1.628	3604815	WORD	n/a	wordpools/wordpool_EN.txt	TRAIN	3	21	[0, 0, 0]	n/a	FR1	100	R1346T
3948.021	1.089	3606443	WORD_OFF	n/a	n/a	TRAIN	3	21	[0, 0, 0]	n/a	FR1	100	R1346T
3949.11	1.629	3607532	WORD	n/a	wordpools/wordpool_EN.txt	SINK	4	21	[0, 0, 0]	n/a	FR1	100	R1346T
3950.739	0.916	3609161	WORD_OFF	n/a	n/a	SINK	4	21	[0, 0, 0]	n/a	FR1	100	R1346T
3951.655	1.634	3610077	WORD	n/a	wordpools/wordpool_EN.txt	RAKE	5	21	[0, 0, 0]	n/a	FR1	100	R1346T
3953.289	0.832	3611711	WORD_OFF	n/a	n/a	RAKE	5	21	[0, 0, 0]	n/a	FR1	100	R1346T
3954.121	1.636	3612543	WORD	n/a	wordpools/wordpool_EN.txt	HOSE	6	21	[0, 0, 0]	n/a	FR1	100	R1346T
3955.757	0.947	3614179	WORD_OFF	n/a	n/a	HOSE	6	21	[0, 0, 0]	n/a	FR1	100	R1346T
3956.704	1.636	3615126	WORD	n/a	wordpools/wordpool_EN.txt	CLOCK	7	21	[0, 0, 0]	n/a	FR1	100	R1346T
3958.34	1.071	3616762	WORD_OFF	n/a	n/a	CLOCK	7	21	[0, 0, 0]	n/a	FR1	100	R1346T
3959.411	1.629	3617833	WORD	n/a	wordpools/wordpool_EN.txt	VASE	8	21	[0, 0, 0]	n/a	FR1	100	R1346T
3961.04	1.097	3619462	WORD_OFF	n/a	n/a	VASE	8	21	[0, 0, 0]	n/a	FR1	100	R1346T
3962.137	1.621	3620559	WORD	n/a	wordpools/wordpool_EN.txt	BENCH	9	21	[0, 0, 0]	n/a	FR1	100	R1346T
3963.758	0.838	3622180	WORD_OFF	n/a	n/a	BENCH	9	21	[0, 0, 0]	n/a	FR1	100	R1346T
3964.596	1.628	3623018	WORD	n/a	wordpools/wordpool_EN.txt	RUG	10	21	[0, 0, 0]	n/a	FR1	100	R1346T
3966.224	0.88	3624646	WORD_OFF	n/a	n/a	RUG	10	21	[0, 0, 0]	n/a	FR1	100	R1346T
3967.104	1.621	3625526	WORD	n/a	wordpools/wordpool_EN.txt	PLATE	11	21	[0, 0, 0]	n/a	FR1	100	R1346T
3968.725	0.851	3627146	WORD_OFF	n/a	n/a	PLATE	11	21	[0, 0, 0]	n/a	FR1	100	R1346T
3969.576	1.633	3627997	WORD	n/a	wordpools/wordpool_EN.txt	DOLL	12	21	[0, 0, 0]	n/a	FR1	100	R1346T
3971.209	0.0	3629630	WORD_OFF	n/a	n/a	DOLL	12	21	[0, 0, 0]	n/a	FR1	100	R1346T
3971.209	0.0	3629630	ENCODING_END	n/a	n/a	n/a	-999	21	[0, 0, 0]	n/a	FR1	100	R1346T
3971.209	0.001	3629630	DISTRACT_START	n/a	n/a	n/a	-999	21	[0, 0, 0]	n/a	FR1	100	R1346T
3971.21	0.015	3629631	START	n/a	n/a	n/a	-999	21	[-999, -999, -999]	n/a	FR1	100	R1346T
3971.225	5.301	3629646	PROB	5.301	n/a	n/a	-999	21	[8, 6, 6]	20	FR1	100	R1346T
3976.526	8.768	3634947	PROB	8.768	n/a	n/a	-999	21	[3, 2, 4]	9	FR1	100	R1346T
3985.294	6.025	3643715	PROB	6.025	n/a	n/a	-999	21	[8, 3, 2]	13	FR1	100	R1346T
3991.319	0.01	3649739	STOP	n/a	n/a	n/a	-999	21	[-999, -999, -999]	n/a	FR1	100	R1346T
3991.329	1.18	3649749	DISTRACT_END	n/a	n/a	n/a	-999	21	[0, 0, 0]	n/a	FR1	100	R1346T
3992.509	1.02	3650929	RETRIEVAL_ORIENT_START	n/a	n/a	n/a	-999	21	[0, 0, 0]	n/a	FR1	100	R1346T
3993.529	0.0	3651949	REC_START	n/a	n/a	n/a	-999	21	[0, 0, 0]	n/a	FR1	100	R1346T
3993.529	9.247	3651949	RETRIEVAL_ORIENT_END	n/a	n/a	n/a	-999	21	[0, 0, 0]	n/a	FR1	100	R1346T
4002.776	2.392	3661196	REC_WORD	2.392	n/a	DOLL	12	21	[0, 0, 0]	n/a	FR1	100	R1346T
4005.168	18.874	3663588	REC_WORD	18.874	n/a	BENCH	9	21	[0, 0, 0]	n/a	FR1	100	R1346T
4024.042	0.0	3682461	REC_END	n/a	n/a	n/a	-999	21	[0, 0, 0]	n/a	FR1	100	R1346T
4024.042	0.0	3682461	TRIAL_END	n/a	n/a	n/a	-999	21	[0, 0, 0]	n/a	FR1	100	R1346T
4024.042	0.0	3682461	TRIAL_START	n/a	n/a	n/a	-999	22	[0, 0, 0]	n/a	FR1	100	R1346T
4024.042	0.0	3682461	TRIAL	n/a	n/a	n/a	-999	22	[0, 0, 0]	n/a	FR1	100	R1346T
4024.042	20.714	3682461	WAITING_START	n/a	n/a	n/a	-999	22	[0, 0, 0]	n/a	FR1	100	R1346T
4044.756	0.0	3703174	WAITING_END	n/a	n/a	n/a	-999	22	[0, 0, 0]	n/a	FR1	100	R1346T
4044.756	0.0	3703174	COUNTDOWN_START	n/a	n/a	n/a	-999	22	[0, 0, 0]	n/a	FR1	100	R1346T
4044.756	0.0	3703174	COUNTDOWN_END	n/a	n/a	n/a	-999	22	[0, 0, 0]	n/a	FR1	100	R1346T
4044.756	11.551	3703174	ORIENT_START	n/a	n/a	n/a	-999	22	[0, 0, 0]	n/a	FR1	100	R1346T
4056.307	0.0	3714725	ORIENT_END	n/a	n/a	n/a	-999	22	[0, 0, 0]	n/a	FR1	100	R1346T
4056.307	0.839	3714725	ENCODING_START	n/a	n/a	n/a	-999	22	[0, 0, 0]	n/a	FR1	100	R1346T
4057.146	1.629	3715564	WORD	n/a	wordpools/wordpool_EN.txt	BOOT	1	22	[0, 0, 0]	n/a	FR1	100	R1346T
4058.775	1.097	3717193	WORD_OFF	n/a	n/a	BOOT	1	22	[0, 0, 0]	n/a	FR1	100	R1346T
4059.872	1.636	3718290	WORD	n/a	wordpools/wordpool_EN.txt	SOCK	2	22	[0, 0, 0]	n/a	FR1	100	R1346T
4061.508	1.016	3719925	WORD_OFF	n/a	n/a	SOCK	2	22	[0, 0, 0]	n/a	FR1	100	R1346T
4062.524	1.635	3720941	WORD	n/a	wordpools/wordpool_EN.txt	CAVE	3	22	[0, 0, 0]	n/a	FR1	100	R1346T
4064.159	1.081	3722576	WORD_OFF	n/a	n/a	CAVE	3	22	[0, 0, 0]	n/a	FR1	100	R1346T
4065.24	1.637	3723657	WORD	n/a	wordpools/wordpool_EN.txt	WORM	4	22	[0, 0, 0]	n/a	FR1	100	R1346T
4066.877	0.99	3725294	WORD_OFF	n/a	n/a	WORM	4	22	[0, 0, 0]	n/a	FR1	100	R1346T
4067.867	1.626	3726284	WORD	n/a	wordpools/wordpool_EN.txt	STOVE	5	22	[0, 0, 0]	n/a	FR1	100	R1346T
4069.493	1.15	3727910	WORD_OFF	n/a	n/a	STOVE	5	22	[0, 0, 0]	n/a	FR1	100	R1346T
4070.643	1.634	3729060	WORD	n/a	wordpools/wordpool_EN.txt	FOAM	6	22	[0, 0, 0]	n/a	FR1	100	R1346T
4072.277	1.148	3730694	WORD_OFF	n/a	n/a	FOAM	6	22	[0, 0, 0]	n/a	FR1	100	R1346T
4073.425	1.636	3731842	WORD	n/a	wordpools/wordpool_EN.txt	STAR	7	22	[0, 0, 0]	n/a	FR1	100	R1346T
4075.061	0.871	3733478	WORD_OFF	n/a	n/a	STAR	7	22	[0, 0, 0]	n/a	FR1	100	R1346T
4075.932	1.629	3734349	WORD	n/a	wordpools/wordpool_EN.txt	LEAF	8	22	[0, 0, 0]	n/a	FR1	100	R1346T
4077.561	1.144	3735978	WORD_OFF	n/a	n/a	LEAF	8	22	[0, 0, 0]	n/a	FR1	100	R1346T
4078.705	1.623	3737122	WORD	n/a	wordpools/wordpool_EN.txt	PRINCE	9	22	[0, 0, 0]	n/a	FR1	100	R1346T
4080.328	0.82	3738745	WORD_OFF	n/a	n/a	PRINCE	9	22	[0, 0, 0]	n/a	FR1	100	R1346T
4081.148	1.632	3739565	WORD	n/a	wordpools/wordpool_EN.txt	CLAY	10	22	[0, 0, 0]	n/a	FR1	100	R1346T
