onset	duration	sample	trial_type	response_time	stim_file	item_name	serialpos	list	test	answer	experiment	session	subject
0.0	28.64	7711	SESS_START	n/a	n/a	n/a	-999	-999	[0, 0, 0]	n/a	FR1	0	R1074M
28.64	10.428	22030	COUNTDOWN_START	n/a	n/a	n/a	-999	-999	[0, 0, 0]	n/a	FR1	0	R1074M
39.068	3.758	27244	COUNTDOWN_END	n/a	n/a	n/a	-999	-999	[0, 0, 0]	n/a	FR1	0	R1074M
42.826	2.402	29123	PRACTICE_WORD	n/a	n/a	RHINO	1	-1	[0, 0, 0]	n/a	FR1	0	R1074M
45.228	2.483	30324	PRACTICE_WORD	n/a	n/a	COTTON	2	-1	[0, 0, 0]	n/a	FR1	0	R1074M
47.711	2.451	31565	PRACTICE_WORD	n/a	n/a	ATTIC	3	-1	[0, 0, 0]	n/a	FR1	0	R1074M
50.162	2.533	32790	PRACTICE_WORD	n/a	n/a	RING	4	-1	[0, 0, 0]	n/a	FR1	0	R1074M
52.695	2.417	34057	PRACTICE_WORD	n/a	n/a	CAMEL	5	-1	[0, 0, 0]	n/a	FR1	0	R1074M
55.112	2.551	35265	PRACTICE_WORD	n/a	n/a	WAGON	6	-1	[0, 0, 0]	n/a	FR1	0	R1074M
57.663	2.383	36541	PRACTICE_WORD	n/a	n/a	IRON	7	-1	[0, 0, 0]	n/a	FR1	0	R1074M
60.046	2.584	37732	PRACTICE_WORD	n/a	n/a	FLOOD	8	-1	[0, 0, 0]	n/a	FR1	0	R1074M
62.63	2.535	39024	PRACTICE_WORD	n/a	n/a	BEAM	9	-1	[0, 0, 0]	n/a	FR1	0	R1074M
65.165	2.45	40292	PRACTICE_WORD	n/a	n/a	TONGUE	10	-1	[0, 0, 0]	n/a	FR1	0	R1074M
67.615	2.568	41516	PRACTICE_WORD	n/a	n/a	CHEST	11	-1	[0, 0, 0]	n/a	FR1	0	R1074M
70.183	1.616	42800	PRACTICE_WORD	n/a	n/a	WATCH	12	-1	[0, 0, 0]	n/a	FR1	0	R1074M
71.799	0.0	43608	PRACTICE_DISTRACT_START	n/a	n/a	n/a	-999	-1	[0, 0, 0]	n/a	FR1	0	R1074M
71.799	0.016	43608	START	n/a	n/a	n/a	-999	-1	[-999, -999, -999]	n/a	FR1	0	R1074M
71.815	5.968	43616	PROB	5.968	n/a	n/a	-999	-1	[4, 5, 3]	12	FR1	0	R1074M
77.783	6.568	46600	PROB	6.568	n/a	n/a	-999	-1	[5, 4, 7]	15	FR1	0	R1074M
84.351	6.651	49884	PROB	6.651	n/a	n/a	-999	-1	[8, 1, 4]	13	FR1	0	R1074M
91.002	3.958	53209	PROB	3.958	n/a	n/a	-999	-1	[2, 3, 7]	12	FR1	0	R1074M
94.96	0.01	55188	STOP	n/a	n/a	n/a	-999	-1	[-999, -999, -999]	n/a	FR1	0	R1074M
94.97	0.702	55193	PRACTICE_DISTRACT_END	n/a	n/a	n/a	-999	-1	[0, 0, 0]	n/a	FR1	0	R1074M
95.672	30.516	55544	PRACTICE_REC_START	n/a	n/a	n/a	-999	-1	[0, 0, 0]	n/a	FR1	0	R1074M
126.188	30.277	70801	PRACTICE_REC_END	n/a	n/a	n/a	-999	-1	[0, 0, 0]	n/a	FR1	0	R1074M
156.465	0.0	85939	TRIAL	n/a	n/a	n/a	-999	1	[0, 0, 0]	n/a	FR1	0	R1074M
156.465	10.428	85939	COUNTDOWN_START	n/a	n/a	n/a	-999	1	[0, 0, 0]	n/a	FR1	0	R1074M
166.893	0.007	91153	COUNTDOWN_END	n/a	n/a	n/a	-999	1	[0, 0, 0]	n/a	FR1	0	R1074M
166.9	2.534	91156	ORIENT	n/a	n/a	n/a	-999	1	[0, 0, 0]	n/a	FR1	0	R1074M
169.434	2.401	92423	WORD	n/a	wordpools/wordpool_EN.txt	SALT	1	1	[0, 0, 0]	n/a	FR1	0	R1074M
171.835	2.5	93624	WORD	n/a	wordpools/wordpool_EN.txt	TRASH	2	1	[0, 0, 0]	n/a	FR1	0	R1074M
174.335	2.534	94873	WORD	n/a	wordpools/wordpool_EN.txt	MAP	3	1	[0, 0, 0]	n/a	FR1	0	R1074M
176.869	2.484	96140	WORD	n/a	wordpools/wordpool_EN.txt	ICE	4	1	[0, 0, 0]	n/a	FR1	0	R1074M
179.353	2.467	97382	WORD	n/a	wordpools/wordpool_EN.txt	SNOW	5	1	[0, 0, 0]	n/a	FR1	0	R1074M
181.82	2.418	98616	WORD	n/a	wordpools/wordpool_EN.txt	STEAM	6	1	[0, 0, 0]	n/a	FR1	0	R1074M
184.238	2.466	99825	WORD	n/a	wordpools/wordpool_EN.txt	BOMB	7	1	[0, 0, 0]	n/a	FR1	0	R1074M
186.704	2.435	101058	WORD	n/a	wordpools/wordpool_EN.txt	ROCK	8	1	[0, 0, 0]	n/a	FR1	0	R1074M
189.139	2.549	102275	WORD	n/a	wordpools/wordpool_EN.txt	TANK	9	1	[0, 0, 0]	n/a	FR1	0	R1074M
191.688	2.452	103549	WORD	n/a	wordpools/wordpool_EN.txt	LAKE	10	1	[0, 0, 0]	n/a	FR1	0	R1074M
194.14	2.416	104775	WORD	n/a	wordpools/wordpool_EN.txt	MOOSE	11	1	[0, 0, 0]	n/a	FR1	0	R1074M
196.556	1.601	105983	WORD	n/a	wordpools/wordpool_EN.txt	STONE	12	1	[0, 0, 0]	n/a	FR1	0	R1074M
198.157	0.001	106784	DISTRACT_START	n/a	n/a	n/a	-999	1	[0, 0, 0]	n/a	FR1	0	R1074M
198.158	0.016	106784	START	n/a	n/a	n/a	-999	1	[-999, -999, -999]	n/a	FR1	0	R1074M
198.174	29.57	106792	PROB	29.57	n/a	n/a	-999	1	[7, 5, 8]	21	FR1	0	R1074M
227.744	0.018	121576	STOP	n/a	n/a	n/a	-999	1	[-999, -999, -999]	n/a	FR1	0	R1074M
227.762	1.084	121585	DISTRACT_END	n/a	n/a	n/a	-999	1	[0, 0, 0]	n/a	FR1	0	R1074M
228.846	2.274	122127	REC_START	n/a	n/a	n/a	-999	1	[0, 0, 0]	n/a	FR1	0	R1074M
231.12	0.73	123264	REC_WORD	0.73	n/a	SALT	-999	1	[0, 0, 0]	n/a	FR1	0	R1074M
231.85	2.395	123629	REC_WORD	2.395	n/a	TRASH	-999	1	[0, 0, 0]	n/a	FR1	0	R1074M
234.245	5.281	124827	REC_WORD	5.281	n/a	BOMB	-999	1	[0, 0, 0]	n/a	FR1	0	R1074M
239.526	19.334	127467	REC_WORD	19.334	n/a	STEAM	-999	1	[0, 0, 0]	n/a	FR1	0	R1074M
258.86	7.226	137134	REC_END	n/a	n/a	n/a	-999	1	[0, 0, 0]	n/a	FR1	0	R1074M
266.086	0.0	140746	COUNTDOWN_START	n/a	n/a	n/a	-999	2	[0, 0, 0]	n/a	FR1	0	R1074M
266.086	10.428	140746	TRIAL	n/a	n/a	n/a	-999	2	[0, 0, 0]	n/a	FR1	0	R1074M
276.514	0.008	145960	COUNTDOWN_END	n/a	n/a	n/a	-999	2	[0, 0, 0]	n/a	FR1	0	R1074M
276.522	2.533	145964	ORIENT	n/a	n/a	n/a	-999	2	[0, 0, 0]	n/a	FR1	0	R1074M
279.055	2.534	147230	WORD	n/a	wordpools/wordpool_EN.txt	JET	1	2	[0, 0, 0]	n/a	FR1	0	R1074M
281.589	2.417	148497	WORD	n/a	wordpools/wordpool_EN.txt	SAIL	2	2	[0, 0, 0]	n/a	FR1	0	R1074M
284.006	2.584	149706	WORD	n/a	wordpools/wordpool_EN.txt	CLOCK	3	2	[0, 0, 0]	n/a	FR1	0	R1074M
286.59	2.517	150998	WORD	n/a	wordpools/wordpool_EN.txt	SPARK	4	2	[0, 0, 0]	n/a	FR1	0	R1074M
289.107	2.501	152256	WORD	n/a	wordpools/wordpool_EN.txt	EAR	5	2	[0, 0, 0]	n/a	FR1	0	R1074M
291.608	2.518	153507	WORD	n/a	wordpools/wordpool_EN.txt	SHIP	6	2	[0, 0, 0]	n/a	FR1	0	R1074M
294.126	2.483	154766	WORD	n/a	wordpools/wordpool_EN.txt	BLUSH	7	2	[0, 0, 0]	n/a	FR1	0	R1074M
296.609	2.551	156007	WORD	n/a	wordpools/wordpool_EN.txt	PLANE	8	2	[0, 0, 0]	n/a	FR1	0	R1074M
299.16	2.55	157282	WORD	n/a	wordpools/wordpool_EN.txt	LAMP	9	2	[0, 0, 0]	n/a	FR1	0	R1074M
301.71	2.501	158557	WORD	n/a	wordpools/wordpool_EN.txt	PHONE	10	2	[0, 0, 0]	n/a	FR1	0	R1074M
304.211	2.433	159808	WORD	n/a	wordpools/wordpool_EN.txt	CAR	11	2	[0, 0, 0]	n/a	FR1	0	R1074M
306.644	1.618	161024	WORD	n/a	wordpools/wordpool_EN.txt	DOG	12	2	[0, 0, 0]	n/a	FR1	0	R1074M
308.262	0.001	161833	DISTRACT_START	n/a	n/a	n/a	-999	2	[0, 0, 0]	n/a	FR1	0	R1074M
308.263	0.016	161834	START	n/a	n/a	n/a	-999	2	[-999, -999, -999]	n/a	FR1	0	R1074M
308.279	6.918	161842	PROB	6.918	n/a	n/a	-999	2	[6, 2, 1]	9	FR1	0	R1074M
315.197	5.783	165300	PROB	5.783	n/a	n/a	-999	2	[6, 1, 5]	12	FR1	0	R1074M
320.98	6.435	168192	PROB	6.435	n/a	n/a	-999	2	[5, 2, 7]	14	FR1	0	R1074M
327.415	4.641	171409	PROB	4.641	n/a	n/a	-999	2	[1, 2, 5]	8	FR1	0	R1074M
332.056	0.01	173729	STOP	n/a	n/a	n/a	-999	2	[-999, -999, -999]	n/a	FR1	0	R1074M
332.066	1.168	173734	DISTRACT_END	n/a	n/a	n/a	-999	2	[0, 0, 0]	n/a	FR1	0	R1074M
333.234	1.057	174318	REC_START	n/a	n/a	n/a	-999	2	[0, 0, 0]	n/a	FR1	0	R1074M
334.291	0.787	174847	REC_WORD	0.787	n/a	JET	-999	2	[0, 0, 0]	n/a	FR1	0	R1074M
335.078	4.267	175240	REC_WORD	4.267	n/a	SAIL	-999	2	[0, 0, 0]	n/a	FR1	0	R1074M
339.345	19.652	177374	REC_WORD	19.652	n/a	PLANE	-999	2	[0, 0, 0]	n/a	FR1	0	R1074M
358.997	4.247	187199	REC_WORD	4.247	n/a	BOAT	-999	2	[0, 0, 0]	n/a	FR1	0	R1074M
363.244	13.797	189323	REC_END	n/a	n/a	n/a	-999	2	[0, 0, 0]	n/a	FR1	0	R1074M
377.041	0.0	196221	TRIAL	n/a	n/a	n/a	-999	3	[0, 0, 0]	n/a	FR1	0	R1074M
377.041	10.428	196221	COUNTDOWN_START	n/a	n/a	n/a	-999	3	[0, 0, 0]	n/a	FR1	0	R1074M
387.469	0.007	201434	COUNTDOWN_END	n/a	n/a	n/a	-999	3	[0, 0, 0]	n/a	FR1	0	R1074M
387.476	2.534	201438	ORIENT	n/a	n/a	n/a	-999	3	[0, 0, 0]	n/a	FR1	0	R1074M
390.01	2.517	202705	WORD	n/a	wordpools/wordpool_EN.txt	COUCH	1	3	[0, 0, 0]	n/a	FR1	0	R1074M
392.527	2.451	203963	WORD	n/a	wordpools/wordpool_EN.txt	HORN	2	3	[0, 0, 0]	n/a	FR1	0	R1074M
394.978	2.433	205189	WORD	n/a	wordpools/wordpool_EN.txt	JUDGE	3	3	[0, 0, 0]	n/a	FR1	0	R1074M
397.411	2.451	206405	WORD	n/a	wordpools/wordpool_EN.txt	OAK	4	3	[0, 0, 0]	n/a	FR1	0	R1074M
399.862	2.484	207631	WORD	n/a	wordpools/wordpool_EN.txt	MUD	5	3	[0, 0, 0]	n/a	FR1	0	R1074M
402.346	2.517	208872	WORD	n/a	wordpools/wordpool_EN.txt	STRAW	6	3	[0, 0, 0]	n/a	FR1	0	R1074M
404.863	2.45	210131	WORD	n/a	wordpools/wordpool_EN.txt	APE	7	3	[0, 0, 0]	n/a	FR1	0	R1074M
407.313	2.467	211356	WORD	n/a	wordpools/wordpool_EN.txt	ARM	8	3	[0, 0, 0]	n/a	FR1	0	R1074M
409.78	2.452	212589	WORD	n/a	wordpools/wordpool_EN.txt	MOUTH	9	3	[0, 0, 0]	n/a	FR1	0	R1074M
412.232	2.449	213815	WORD	n/a	wordpools/wordpool_EN.txt	JAIL	10	3	[0, 0, 0]	n/a	FR1	0	R1074M
414.681	2.502	215040	WORD	n/a	wordpools/wordpool_EN.txt	SNAKE	11	3	[0, 0, 0]	n/a	FR1	0	R1074M
417.183	1.616	216291	WORD	n/a	wordpools/wordpool_EN.txt	BATH	12	3	[0, 0, 0]	n/a	FR1	0	R1074M
418.799	0.001	217099	DISTRACT_START	n/a	n/a	n/a	-999	3	[0, 0, 0]	n/a	FR1	0	R1074M
418.8	0.015	217099	START	n/a	n/a	n/a	-999	3	[-999, -999, -999]	n/a	FR1	0	R1074M
418.815	4.685	217107	PROB	4.685	n/a	n/a	-999	3	[2, 3, 1]	6	FR1	0	R1074M
423.5	5.251	219449	PROB	5.251	n/a	n/a	-999	3	[3, 3, 6]	12	FR1	0	R1074M
428.751	9.585	222074	PROB	9.585	n/a	n/a	-999	3	[4, 7, 8]	18	FR1	0	R1074M
438.336	18.416	226866	PROB	18.416	n/a	n/a	-999	3	[3, 6, 8]	17	FR1	0	R1074M
456.752	0.004	236074	STOP	n/a	n/a	n/a	-999	3	[-999, -999, -999]	n/a	FR1	0	R1074M
456.756	1.051	236076	DISTRACT_END	n/a	n/a	n/a	-999	3	[0, 0, 0]	n/a	FR1	0	R1074M
457.807	2.419	236601	REC_START	n/a	n/a	n/a	-999	3	[0, 0, 0]	n/a	FR1	0	R1074M
460.226	2.887	237811	REC_WORD	2.887	n/a	HORN	-999	3	[0, 0, 0]	n/a	FR1	0	R1074M
463.113	0.782	239254	REC_WORD	0.782	n/a	COUCH	-999	3	[0, 0, 0]	n/a	FR1	0	R1074M
463.895	23.922	239645	REC_WORD	23.922	n/a	APE	-999	3	[0, 0, 0]	n/a	FR1	0	R1074M
487.817	6.48	251606	REC_END	n/a	n/a	n/a	-999	3	[0, 0, 0]	n/a	FR1	0	R1074M
494.297	0.0	254845	COUNTDOWN_START	n/a	n/a	n/a	-999	4	[0, 0, 0]	n/a	FR1	0	R1074M
494.297	10.428	254845	TRIAL	n/a	n/a	n/a	-999	4	[0, 0, 0]	n/a	FR1	0	R1074M
504.725	0.007	260059	COUNTDOWN_END	n/a	n/a	n/a	-999	4	[0, 0, 0]	n/a	FR1	0	R1074M
504.732	2.584	260063	ORIENT	n/a	n/a	n/a	-999	4	[0, 0, 0]	n/a	FR1	0	R1074M
507.316	2.567	261355	WORD	n/a	wordpools/wordpool_EN.txt	BRICK	1	4	[0, 0, 0]	n/a	FR1	0	R1074M
509.883	2.484	262638	WORD	n/a	wordpools/wordpool_EN.txt	ROOM	2	4	[0, 0, 0]	n/a	FR1	0	R1074M
512.367	2.567	263880	WORD	n/a	wordpools/wordpool_EN.txt	TIE	3	4	[0, 0, 0]	n/a	FR1	0	R1074M
514.934	2.451	265163	WORD	n/a	wordpools/wordpool_EN.txt	SLIME	4	4	[0, 0, 0]	n/a	FR1	0	R1074M
517.385	2.6	266389	WORD	n/a	wordpools/wordpool_EN.txt	DESK	5	4	[0, 0, 0]	n/a	FR1	0	R1074M
519.985	2.4	267689	WORD	n/a	wordpools/wordpool_EN.txt	CHALK	6	4	[0, 0, 0]	n/a	FR1	0	R1074M
522.385	2.418	268889	WORD	n/a	wordpools/wordpool_EN.txt	MAZE	7	4	[0, 0, 0]	n/a	FR1	0	R1074M
524.803	2.517	270098	WORD	n/a	wordpools/wordpool_EN.txt	SCHOOL	8	4	[0, 0, 0]	n/a	FR1	0	R1074M
527.32	2.417	271356	WORD	n/a	wordpools/wordpool_EN.txt	BAND	9	4	[0, 0, 0]	n/a	FR1	0	R1074M
529.737	2.567	272564	WORD	n/a	wordpools/wordpool_EN.txt	FLAG	10	4	[0, 0, 0]	n/a	FR1	0	R1074M
532.304	2.551	273848	WORD	n/a	wordpools/wordpool_EN.txt	FLOOR	11	4	[0, 0, 0]	n/a	FR1	0	R1074M
534.855	1.617	275123	WORD	n/a	wordpools/wordpool_EN.txt	GLOVE	12	4	[0, 0, 0]	n/a	FR1	0	R1074M
536.472	0.0	275932	DISTRACT_START	n/a	n/a	n/a	-999	4	[0, 0, 0]	n/a	FR1	0	R1074M
536.472	0.016	275932	START	n/a	n/a	n/a	-999	4	[-999, -999, -999]	n/a	FR1	0	R1074M
536.488	7.485	275940	PROB	7.485	n/a	n/a	-999	4	[1, 2, 3]	6	FR1	0	R1074M
543.973	11.552	279682	PROB	11.552	n/a	n/a	-999	4	[7, 6, 5]	18	FR1	0	R1074M
555.525	4.059	285458	PROB	4.059	n/a	n/a	-999	4	[2, 9, 1]	12	FR1	0	R1074M
559.584	0.009	287487	STOP	n/a	n/a	n/a	-999	4	[-999, -999, -999]	n/a	FR1	0	R1074M
559.593	1.051	287492	DISTRACT_END	n/a	n/a	n/a	-999	4	[0, 0, 0]	n/a	FR1	0	R1074M
560.644	1.284	288017	REC_START	n/a	n/a	n/a	-999	4	[0, 0, 0]	n/a	FR1	0	R1074M
561.928	0.821	288659	REC_WORD	0.821	n/a	MAZE	-999	4	[0, 0, 0]	n/a	FR1	0	R1074M
562.749	0.522	289069	REC_WORD	0.522	n/a	FLOOR	-999	4	[0, 0, 0]	n/a	FR1	0	R1074M
563.271	12.488	289330	REC_WORD	12.488	n/a	CHALK	-999	4	[0, 0, 0]	n/a	FR1	0	R1074M
575.759	12.858	295574	REC_WORD	12.858	n/a	GLOVE	-999	4	[0, 0, 0]	n/a	FR1	0	R1074M
588.617	2.037	302003	REC_WORD	2.037	n/a	BRICK	-999	4	[0, 0, 0]	n/a	FR1	0	R1074M
590.654	8.096	303021	REC_END	n/a	n/a	n/a	-999	4	[0, 0, 0]	n/a	FR1	0	R1074M
598.75	0.0	307069	TRIAL	n/a	n/a	n/a	-999	5	[0, 0, 0]	n/a	FR1	0	R1074M
598.75	10.428	307069	COUNTDOWN_START	n/a	n/a	n/a	-999	5	[0, 0, 0]	n/a	FR1	0	R1074M
609.178	0.009	312283	COUNTDOWN_END	n/a	n/a	n/a	-999	5	[0, 0, 0]	n/a	FR1	0	R1074M
609.187	2.516	312287	ORIENT	n/a	n/a	n/a	-999	5	[0, 0, 0]	n/a	FR1	0	R1074M
611.703	2.4	313545	WORD	n/a	wordpools/wordpool_EN.txt	HOUSE	1	5	[0, 0, 0]	n/a	FR1	0	R1074M
614.103	2.567	314745	WORD	n/a	wordpools/wordpool_EN.txt	HAWK	2	5	[0, 0, 0]	n/a	FR1	0	R1074M
616.67	2.585	316028	WORD	n/a	wordpools/wordpool_EN.txt	WAND	3	5	[0, 0, 0]	n/a	FR1	0	R1074M
619.255	2.466	317321	WORD	n/a	wordpools/wordpool_EN.txt	GEESE	4	5	[0, 0, 0]	n/a	FR1	0	R1074M
621.721	2.502	318554	WORD	n/a	wordpools/wordpool_EN.txt	STAR	5	5	[0, 0, 0]	n/a	FR1	0	R1074M
624.223	2.399	319805	WORD	n/a	wordpools/wordpool_EN.txt	CLOUD	6	5	[0, 0, 0]	n/a	FR1	0	R1074M
626.622	2.568	321004	WORD	n/a	wordpools/wordpool_EN.txt	PEARL	7	5	[0, 0, 0]	n/a	FR1	0	R1074M
629.19	2.483	322288	WORD	n/a	wordpools/wordpool_EN.txt	SWORD	8	5	[0, 0, 0]	n/a	FR1	0	R1074M
631.673	2.585	323529	WORD	n/a	wordpools/wordpool_EN.txt	STAIR	9	5	[0, 0, 0]	n/a	FR1	0	R1074M
634.258	2.566	324822	WORD	n/a	wordpools/wordpool_EN.txt	GOLD	10	5	[0, 0, 0]	n/a	FR1	0	R1074M
636.824	2.435	326105	WORD	n/a	wordpools/wordpool_EN.txt	ROAD	11	5	[0, 0, 0]	n/a	FR1	0	R1074M
639.259	1.616	327322	WORD	n/a	wordpools/wordpool_EN.txt	BRIDGE	12	5	[0, 0, 0]	n/a	FR1	0	R1074M
640.875	0.001	328130	DISTRACT_START	n/a	n/a	n/a	-999	5	[0, 0, 0]	n/a	FR1	0	R1074M
640.876	0.016	328131	START	n/a	n/a	n/a	-999	5	[-999, -999, -999]	n/a	FR1	0	R1074M
640.892	14.186	328139	PROB	14.186	n/a	n/a	-999	5	[8, 9, 7]	25	FR1	0	R1074M
655.078	4.734	335231	PROB	4.734	n/a	n/a	-999	5	[3, 1, 4]	8	FR1	0	R1074M
659.812	10.252	337598	PROB	10.252	n/a	n/a	-999	5	[6, 9, 8]	23	FR1	0	R1074M
670.064	0.017	342724	STOP	n/a	n/a	n/a	-999	5	[-999, -999, -999]	n/a	FR1	0	R1074M
670.081	1.185	342732	DISTRACT_END	n/a	n/a	n/a	-999	5	[0, 0, 0]	n/a	FR1	0	R1074M
671.266	3.041	343325	REC_START	n/a	n/a	n/a	-999	5	[0, 0, 0]	n/a	FR1	0	R1074M
674.307	26.969	344845	REC_WORD	26.969	n/a	SWORD	-999	5	[0, 0, 0]	n/a	FR1	0	R1074M
701.276	30.5	358329	REC_END	n/a	n/a	n/a	-999	5	[0, 0, 0]	n/a	FR1	0	R1074M
731.776	0.0	373578	TRIAL	n/a	n/a	n/a	-999	6	[0, 0, 0]	n/a	FR1	0	R1074M
731.776	10.428	373578	COUNTDOWN_START	n/a	n/a	n/a	-999	6	[0, 0, 0]	n/a	FR1	0	R1074M
742.204	0.008	378792	COUNTDOWN_END	n/a	n/a	n/a	-999	6	[0, 0, 0]	n/a	FR1	0	R1074M
742.212	2.6	378796	ORIENT	n/a	n/a	n/a	-999	6	[0, 0, 0]	n/a	FR1	0	R1074M
744.812	2.584	380096	WORD	n/a	wordpools/wordpool_EN.txt	HOOK	1	6	[0, 0, 0]	n/a	FR1	0	R1074M
747.396	2.583	381388	WORD	n/a	wordpools/wordpool_EN.txt	POOL	2	6	[0, 0, 0]	n/a	FR1	0	R1074M
749.979	2.501	382679	WORD	n/a	wordpools/wordpool_EN.txt	MOUSE	3	6	[0, 0, 0]	n/a	FR1	0	R1074M
752.48	2.534	383930	WORD	n/a	wordpools/wordpool_EN.txt	MAT	4	6	[0, 0, 0]	n/a	FR1	0	R1074M
755.014	2.483	385196	WORD	n/a	wordpools/wordpool_EN.txt	PET	5	6	[0, 0, 0]	n/a	FR1	0	R1074M
757.497	2.601	386438	WORD	n/a	wordpools/wordpool_EN.txt	BALL	6	6	[0, 0, 0]	n/a	FR1	0	R1074M
760.098	2.534	387738	WORD	n/a	wordpools/wordpool_EN.txt	TOY	7	6	[0, 0, 0]	n/a	FR1	0	R1074M
762.632	2.585	389005	WORD	n/a	wordpools/wordpool_EN.txt	FLAME	8	6	[0, 0, 0]	n/a	FR1	0	R1074M
765.217	2.532	390298	WORD	n/a	wordpools/wordpool_EN.txt	DOLL	9	6	[0, 0, 0]	n/a	FR1	0	R1074M
767.749	2.469	391564	WORD	n/a	wordpools/wordpool_EN.txt	CAT	10	6	[0, 0, 0]	n/a	FR1	0	R1074M
770.218	2.482	392798	WORD	n/a	wordpools/wordpool_EN.txt	NAIL	11	6	[0, 0, 0]	n/a	FR1	0	R1074M
772.7	1.617	394039	WORD	n/a	wordpools/wordpool_EN.txt	FISH	12	6	[0, 0, 0]	n/a	FR1	0	R1074M
774.317	0.001	394847	DISTRACT_START	n/a	n/a	n/a	-999	6	[0, 0, 0]	n/a	FR1	0	R1074M
774.318	0.016	394848	START	n/a	n/a	n/a	-999	6	[-999, -999, -999]	n/a	FR1	0	R1074M
774.334	5.968	394856	PROB	5.968	n/a	n/a	-999	6	[9, 9, 3]	21	FR1	0	R1074M
780.302	11.202	397840	PROB	11.202	n/a	n/a	-999	6	[9, 7, 1]	17	FR1	0	R1074M
791.504	13.496	403440	PROB	13.496	n/a	n/a	-999	6	[7, 9, 8]	24	FR1	0	R1074M
805.0	0.007	410188	STOP	n/a	n/a	n/a	-999	6	[-999, -999, -999]	n/a	FR1	0	R1074M
805.007	1.168	410192	DISTRACT_END	n/a	n/a	n/a	-999	6	[0, 0, 0]	n/a	FR1	0	R1074M
806.175	0.895	410776	REC_START	n/a	n/a	n/a	-999	6	[0, 0, 0]	n/a	FR1	0	R1074M
807.07	0.544	411223	REC_WORD	0.544	n/a	CAT	-999	6	[0, 0, 0]	n/a	FR1	0	R1074M
807.614	0.825	411495	REC_WORD	0.825	n/a	FISH	-999	6	[0, 0, 0]	n/a	FR1	0	R1074M
808.439	1.824	411907	REC_WORD	1.824	n/a	DOLL	-999	6	[0, 0, 0]	n/a	FR1	0	R1074M
810.263	4.067	412819	REC_WORD	4.067	n/a	HOOK	-999	6	[0, 0, 0]	n/a	FR1	0	R1074M
814.33	21.855	414853	REC_WORD	21.855	n/a	POOL	-999	6	[0, 0, 0]	n/a	FR1	0	R1074M
836.185	3.678	425780	REC_END	n/a	n/a	n/a	-999	6	[0, 0, 0]	n/a	FR1	0	R1074M
839.863	0.001	427619	COUNTDOWN_START	n/a	n/a	n/a	-999	7	[0, 0, 0]	n/a	FR1	0	R1074M
839.864	10.427	427619	TRIAL	n/a	n/a	n/a	-999	7	[0, 0, 0]	n/a	FR1	0	R1074M
850.291	0.008	432832	COUNTDOWN_END	n/a	n/a	n/a	-999	7	[0, 0, 0]	n/a	FR1	0	R1074M
850.299	2.617	432836	ORIENT	n/a	n/a	n/a	-999	7	[0, 0, 0]	n/a	FR1	0	R1074M
852.916	2.4	434145	WORD	n/a	wordpools/wordpool_EN.txt	CALF	1	7	[0, 0, 0]	n/a	FR1	0	R1074M
855.316	2.417	435345	WORD	n/a	wordpools/wordpool_EN.txt	DITCH	2	7	[0, 0, 0]	n/a	FR1	0	R1074M
857.733	2.535	436553	WORD	n/a	wordpools/wordpool_EN.txt	BEACH	3	7	[0, 0, 0]	n/a	FR1	0	R1074M
860.268	2.416	437821	WORD	n/a	wordpools/wordpool_EN.txt	OWL	4	7	[0, 0, 0]	n/a	FR1	0	R1074M
862.684	2.552	439028	WORD	n/a	wordpools/wordpool_EN.txt	SEA	5	7	[0, 0, 0]	n/a	FR1	0	R1074M
865.236	2.466	440304	WORD	n/a	wordpools/wordpool_EN.txt	SHELL	6	7	[0, 0, 0]	n/a	FR1	0	R1074M
867.702	2.401	441537	WORD	n/a	wordpools/wordpool_EN.txt	PEA	7	7	[0, 0, 0]	n/a	FR1	0	R1074M
870.103	2.483	442738	WORD	n/a	wordpools/wordpool_EN.txt	HORSE	8	7	[0, 0, 0]	n/a	FR1	0	R1074M
872.586	2.484	443979	WORD	n/a	wordpools/wordpool_EN.txt	SOCK	9	7	[0, 0, 0]	n/a	FR1	0	R1074M
875.07	2.501	445221	WORD	n/a	wordpools/wordpool_EN.txt	MULE	10	7	[0, 0, 0]	n/a	FR1	0	R1074M
877.571	2.5	446472	WORD	n/a	wordpools/wordpool_EN.txt	SKUNK	11	7	[0, 0, 0]	n/a	FR1	0	R1074M
880.071	1.617	447721	WORD	n/a	wordpools/wordpool_EN.txt	CLAY	12	7	[0, 0, 0]	n/a	FR1	0	R1074M
881.688	0.001	448530	DISTRACT_START	n/a	n/a	n/a	-999	7	[0, 0, 0]	n/a	FR1	0	R1074M
881.689	0.016	448530	START	n/a	n/a	n/a	-999	7	[-999, -999, -999]	n/a	FR1	0	R1074M
881.705	10.102	448538	PROB	10.102	n/a	n/a	-999	7	[5, 8, 3]	16	FR1	0	R1074M
891.807	16.362	453589	PROB	16.362	n/a	n/a	-999	7	[6, 2, 8]	16	FR1	0	R1074M
908.169	0.009	461770	STOP	n/a	n/a	n/a	-999	7	[-999, -999, -999]	n/a	FR1	0	R1074M
908.178	1.133	461774	DISTRACT_END	n/a	n/a	n/a	-999	7	[0, 0, 0]	n/a	FR1	0	R1074M
909.311	4.101	462341	REC_START	n/a	n/a	n/a	-999	7	[0, 0, 0]	n/a	FR1	0	R1074M
913.412	6.129	464391	REC_WORD	6.129	n/a	CALF	-999	7	[0, 0, 0]	n/a	FR1	0	R1074M
919.541	19.78	467455	REC_WORD	19.78	n/a	SKUNK	-999	7	[0, 0, 0]	n/a	FR1	0	R1074M
939.321	12.464	477345	REC_END	n/a	n/a	n/a	-999	7	[0, 0, 0]	n/a	FR1	0	R1074M
951.785	0.0	483576	TRIAL	n/a	n/a	n/a	-999	8	[0, 0, 0]	n/a	FR1	0	R1074M
951.785	10.428	483576	COUNTDOWN_START	n/a	n/a	n/a	-999	8	[0, 0, 0]	n/a	FR1	0	R1074M
962.213	0.008	488790	COUNTDOWN_END	n/a	n/a	n/a	-999	8	[0, 0, 0]	n/a	FR1	0	R1074M
962.221	2.533	488794	ORIENT	n/a	n/a	n/a	-999	8	[0, 0, 0]	n/a	FR1	0	R1074M
964.754	2.418	490061	WORD	n/a	wordpools/wordpool_EN.txt	BOOT	1	8	[0, 0, 0]	n/a	FR1	0	R1074M
967.172	2.416	491269	WORD	n/a	wordpools/wordpool_EN.txt	CROW	2	8	[0, 0, 0]	n/a	FR1	0	R1074M
969.588	2.468	492477	WORD	n/a	wordpools/wordpool_EN.txt	CANE	3	8	[0, 0, 0]	n/a	FR1	0	R1074M
972.056	2.55	493711	WORD	n/a	wordpools/wordpool_EN.txt	BOWL	4	8	[0, 0, 0]	n/a	FR1	0	R1074M
974.606	2.417	494986	WORD	n/a	wordpools/wordpool_EN.txt	SPRING	5	8	[0, 0, 0]	n/a	FR1	0	R1074M
977.023	2.451	496195	WORD	n/a	wordpools/wordpool_EN.txt	COW	6	8	[0, 0, 0]	n/a	FR1	0	R1074M
979.474	2.417	497420	WORD	n/a	wordpools/wordpool_EN.txt	GRASS	7	8	[0, 0, 0]	n/a	FR1	0	R1074M
981.891	2.567	498629	WORD	n/a	wordpools/wordpool_EN.txt	BROOM	8	8	[0, 0, 0]	n/a	FR1	0	R1074M
984.458	2.6	499912	WORD	n/a	wordpools/wordpool_EN.txt	BUSH	9	8	[0, 0, 0]	n/a	FR1	0	R1074M
987.058	2.384	501212	WORD	n/a	wordpools/wordpool_EN.txt	STOVE	10	8	[0, 0, 0]	n/a	FR1	0	R1074M
989.442	2.417	502404	WORD	n/a	wordpools/wordpool_EN.txt	CUBE	11	8	[0, 0, 0]	n/a	FR1	0	R1074M
991.859	1.617	503612	WORD	n/a	wordpools/wordpool_EN.txt	HEN	12	8	[0, 0, 0]	n/a	FR1	0	R1074M
993.476	0.001	504421	DISTRACT_START	n/a	n/a	n/a	-999	8	[0, 0, 0]	n/a	FR1	0	R1074M
993.477	0.016	504421	START	n/a	n/a	n/a	-999	8	[-999, -999, -999]	n/a	FR1	0	R1074M
993.493	8.085	504429	PROB	8.085	n/a	n/a	-999	8	[9, 6, 3]	18	FR1	0	R1074M
1001.578	11.102	508472	PROB	11.102	n/a	n/a	-999	8	[5, 9, 6]	19	FR1	0	R1074M
1012.68	14.481	514022	PROB	14.481	n/a	n/a	-999	8	[9, 5, 4]	17	FR1	0	R1074M
1027.161	0.006	521262	STOP	n/a	n/a	n/a	-999	8	[-999, -999, -999]	n/a	FR1	0	R1074M
1027.167	1.183	521265	DISTRACT_END	n/a	n/a	n/a	-999	8	[0, 0, 0]	n/a	FR1	0	R1074M
1028.35	3.097	521857	REC_START	n/a	n/a	n/a	-999	8	[0, 0, 0]	n/a	FR1	0	R1074M
1031.447	0.907	523405	REC_WORD	0.907	n/a	COW	-999	8	[0, 0, 0]	n/a	FR1	0	R1074M
1032.354	2.457	523859	REC_WORD	2.457	n/a	CROW	-999	8	[0, 0, 0]	n/a	FR1	0	R1074M
1034.811	23.553	525087	REC_WORD	23.553	n/a	BOOT	-999	8	[0, 0, 0]	n/a	FR1	0	R1074M
1058.364	6.493	536863	REC_END	n/a	n/a	n/a	-999	8	[0, 0, 0]	n/a	FR1	0	R1074M
1064.857	0.0	540109	TRIAL	n/a	n/a	n/a	-999	9	[0, 0, 0]	n/a	FR1	0	R1074M
1064.857	10.428	540109	COUNTDOWN_START	n/a	n/a	n/a	-999	9	[0, 0, 0]	n/a	FR1	0	R1074M
1075.285	0.007	545323	COUNTDOWN_END	n/a	n/a	n/a	-999	9	[0, 0, 0]	n/a	FR1	0	R1074M
1075.292	2.534	545326	ORIENT	n/a	n/a	n/a	-999	9	[0, 0, 0]	n/a	FR1	0	R1074M
1077.826	2.534	546593	WORD	n/a	wordpools/wordpool_EN.txt	WEB	1	9	[0, 0, 0]	n/a	FR1	0	R1074M
1080.36	2.567	547860	WORD	n/a	wordpools/wordpool_EN.txt	SHOE	2	9	[0, 0, 0]	n/a	FR1	0	R1074M
1082.927	2.484	549144	WORD	n/a	wordpools/wordpool_EN.txt	WHALE	3	9	[0, 0, 0]	n/a	FR1	0	R1074M
1085.411	2.567	550386	WORD	n/a	wordpools/wordpool_EN.txt	TENT	4	9	[0, 0, 0]	n/a	FR1	0	R1074M
1087.978	2.55	551669	WORD	n/a	wordpools/wordpool_EN.txt	FUR	5	9	[0, 0, 0]	n/a	FR1	0	R1074M
1090.528	2.501	552944	WORD	n/a	wordpools/wordpool_EN.txt	STOOL	6	9	[0, 0, 0]	n/a	FR1	0	R1074M
1093.029	2.517	554194	WORD	n/a	wordpools/wordpool_EN.txt	PANTS	7	9	[0, 0, 0]	n/a	FR1	0	R1074M
1095.546	2.534	555453	WORD	n/a	wordpools/wordpool_EN.txt	TOE	8	9	[0, 0, 0]	n/a	FR1	0	R1074M
1098.08	2.584	556720	WORD	n/a	wordpools/wordpool_EN.txt	GOAT	9	9	[0, 0, 0]	n/a	FR1	0	R1074M
1100.664	2.468	558012	WORD	n/a	wordpools/wordpool_EN.txt	ROOF	10	9	[0, 0, 0]	n/a	FR1	0	R1074M
1103.132	2.383	559246	WORD	n/a	wordpools/wordpool_EN.txt	FAN	11	9	[0, 0, 0]	n/a	FR1	0	R1074M
1105.515	1.618	560437	WORD	n/a	wordpools/wordpool_EN.txt	FACE	12	9	[0, 0, 0]	n/a	FR1	0	R1074M
1107.133	0.0	561246	DISTRACT_START	n/a	n/a	n/a	-999	9	[0, 0, 0]	n/a	FR1	0	R1074M
1107.133	0.016	561246	START	n/a	n/a	n/a	-999	9	[-999, -999, -999]	n/a	FR1	0	R1074M
1107.149	5.417	561254	PROB	5.417	n/a	n/a	-999	9	[4, 2, 6]	12	FR1	0	R1074M
1112.566	6.168	563962	PROB	6.168	n/a	n/a	-999	9	[4, 7, 9]	20	FR1	0	R1074M
1118.734	5.084	567046	PROB	5.084	n/a	n/a	-999	9	[8, 3, 4]	15	FR1	0	R1074M
1123.818	5.094	569588	PROB	5.094	n/a	n/a	-999	9	[1, 2, 8]	11	FR1	0	R1074M
1128.912	0.007	572135	STOP	n/a	n/a	n/a	-999	9	[-999, -999, -999]	n/a	FR1	0	R1074M
1128.919	1.034	572138	DISTRACT_END	n/a	n/a	n/a	-999	9	[0, 0, 0]	n/a	FR1	0	R1074M
1129.953	7.749	572655	REC_START	n/a	n/a	n/a	-999	9	[0, 0, 0]	n/a	FR1	0	R1074M
1137.702	6.786	576530	REC_WORD	6.786	n/a	PANTS	-999	9	[0, 0, 0]	n/a	FR1	0	R1074M
1144.488	15.479	579922	REC_WORD	15.479	n/a	SHOE	-999	9	[0, 0, 0]	n/a	FR1	0	R1074M
1159.967	25.346	587662	REC_END	n/a	n/a	n/a	-999	9	[0, 0, 0]	n/a	FR1	0	R1074M
1185.313	0.001	600334	COUNTDOWN_START	n/a	n/a	n/a	-999	10	[0, 0, 0]	n/a	FR1	0	R1074M
1185.314	10.427	600334	TRIAL	n/a	n/a	n/a	-999	10	[0, 0, 0]	n/a	FR1	0	R1074M
1195.741	0.008	605548	COUNTDOWN_END	n/a	n/a	n/a	-999	10	[0, 0, 0]	n/a	FR1	0	R1074M
1195.749	2.567	605552	ORIENT	n/a	n/a	n/a	-999	10	[0, 0, 0]	n/a	FR1	0	R1074M
1198.316	2.617	606835	WORD	n/a	wordpools/wordpool_EN.txt	ROPE	1	10	[0, 0, 0]	n/a	FR1	0	R1074M
1200.933	2.5	608143	WORD	n/a	wordpools/wordpool_EN.txt	NET	2	10	[0, 0, 0]	n/a	FR1	0	R1074M
1203.433	2.451	609393	WORD	n/a	wordpools/wordpool_EN.txt	FUDGE	3	10	[0, 0, 0]	n/a	FR1	0	R1074M
1205.884	2.484	610619	WORD	n/a	wordpools/wordpool_EN.txt	FOX	4	10	[0, 0, 0]	n/a	FR1	0	R1074M
1208.368	2.417	611861	WORD	n/a	wordpools/wordpool_EN.txt	SUN	5	10	[0, 0, 0]	n/a	FR1	0	R1074M
1210.785	2.401	613069	WORD	n/a	wordpools/wordpool_EN.txt	SOUP	6	10	[0, 0, 0]	n/a	FR1	0	R1074M
1213.186	2.483	614270	WORD	n/a	wordpools/wordpool_EN.txt	VINE	7	10	[0, 0, 0]	n/a	FR1	0	R1074M
1215.669	2.401	615511	WORD	n/a	wordpools/wordpool_EN.txt	SKY	8	10	[0, 0, 0]	n/a	FR1	0	R1074M
1218.07	2.483	616711	WORD	n/a	wordpools/wordpool_EN.txt	FRUIT	9	10	[0, 0, 0]	n/a	FR1	0	R1074M
1220.553	2.518	617953	WORD	n/a	wordpools/wordpool_EN.txt	BRANCH	10	10	[0, 0, 0]	n/a	FR1	0	R1074M
1223.071	2.583	619212	WORD	n/a	wordpools/wordpool_EN.txt	STORM	11	10	[0, 0, 0]	n/a	FR1	0	R1074M
1225.654	1.602	620503	WORD	n/a	wordpools/wordpool_EN.txt	BOAT	12	10	[0, 0, 0]	n/a	FR1	0	R1074M
1227.256	0.0	621304	DISTRACT_START	n/a	n/a	n/a	-999	10	[0, 0, 0]	n/a	FR1	0	R1074M
1227.256	0.016	621304	START	n/a	n/a	n/a	-999	10	[-999, -999, -999]	n/a	FR1	0	R1074M
1227.272	12.003	621312	PROB	12.003	n/a	n/a	-999	10	[3, 1, 8]	12	FR1	0	R1074M
1239.275	32.637	627313	PROB	32.637	n/a	n/a	-999	10	[6, 6, 6]	18	FR1	0	R1074M
1271.912	0.018	643631	STOP	n/a	n/a	n/a	-999	10	[-999, -999, -999]	n/a	FR1	0	R1074M
1271.93	1.068	643640	DISTRACT_END	n/a	n/a	n/a	-999	10	[0, 0, 0]	n/a	FR1	0	R1074M
1272.998	9.345	644174	REC_START	n/a	n/a	n/a	-999	10	[0, 0, 0]	n/a	FR1	0	R1074M
1282.343	20.665	648846	REC_WORD	20.665	n/a	ROPE	-999	10	[0, 0, 0]	n/a	FR1	0	R1074M
1303.008	14.314	659178	REC_END	n/a	n/a	n/a	-999	10	[0, 0, 0]	n/a	FR1	0	R1074M
1317.322	0.0	666335	TRIAL	n/a	n/a	n/a	-999	11	[0, 0, 0]	n/a	FR1	0	R1074M
1317.322	10.428	666335	COUNTDOWN_START	n/a	n/a	n/a	-999	11	[0, 0, 0]	n/a	FR1	0	R1074M
1327.75	0.008	671548	COUNTDOWN_END	n/a	n/a	n/a	-999	11	[0, 0, 0]	n/a	FR1	0	R1074M
1327.758	2.401	671552	ORIENT	n/a	n/a	n/a	-999	11	[0, 0, 0]	n/a	FR1	0	R1074M
1330.159	2.516	672753	WORD	n/a	wordpools/wordpool_EN.txt	CLOTH	1	11	[0, 0, 0]	n/a	FR1	0	R1074M
1332.675	2.518	674011	WORD	n/a	wordpools/wordpool_EN.txt	ZOO	2	11	[0, 0, 0]	n/a	FR1	0	R1074M
1335.193	2.45	675270	WORD	n/a	wordpools/wordpool_EN.txt	GUARD	3	11	[0, 0, 0]	n/a	FR1	0	R1074M
1337.643	2.585	676494	WORD	n/a	wordpools/wordpool_EN.txt	DEER	4	11	[0, 0, 0]	n/a	FR1	0	R1074M
1340.228	2.532	677787	WORD	n/a	wordpools/wordpool_EN.txt	INK	5	11	[0, 0, 0]	n/a	FR1	0	R1074M
1342.76	2.567	679053	WORD	n/a	wordpools/wordpool_EN.txt	MAIL	6	11	[0, 0, 0]	n/a	FR1	0	R1074M
1345.327	2.601	680336	WORD	n/a	wordpools/wordpool_EN.txt	FOAM	7	11	[0, 0, 0]	n/a	FR1	0	R1074M
1347.928	2.501	681637	WORD	n/a	wordpools/wordpool_EN.txt	PIT	8	11	[0, 0, 0]	n/a	FR1	0	R1074M
1350.429	2.517	682887	WORD	n/a	wordpools/wordpool_EN.txt	BADGE	9	11	[0, 0, 0]	n/a	FR1	0	R1074M
1352.946	2.384	684146	WORD	n/a	wordpools/wordpool_EN.txt	CAGE	10	11	[0, 0, 0]	n/a	FR1	0	R1074M
1355.33	2.516	685337	WORD	n/a	wordpools/wordpool_EN.txt	BEAK	11	11	[0, 0, 0]	n/a	FR1	0	R1074M
1357.846	1.618	686595	WORD	n/a	wordpools/wordpool_EN.txt	SHEET	12	11	[0, 0, 0]	n/a	FR1	0	R1074M
1359.464	0.0	687404	DISTRACT_START	n/a	n/a	n/a	-999	11	[0, 0, 0]	n/a	FR1	0	R1074M
1359.464	0.016	687404	START	n/a	n/a	n/a	-999	11	[-999, -999, -999]	n/a	FR1	0	R1074M
1359.48	7.918	687412	PROB	7.918	n/a	n/a	-999	11	[8, 5, 3]	16	FR1	0	R1074M
1367.398	5.568	691371	PROB	5.568	n/a	n/a	-999	11	[5, 1, 9]	15	FR1	0	R1074M
1372.966	5.068	694155	PROB	5.068	n/a	n/a	-999	11	[8, 2, 2]	12	FR1	0	R1074M
1378.034	4.99	696689	PROB	4.99	n/a	n/a	-999	11	[1, 6, 5]	12	FR1	0	R1074M
1383.024	0.011	699184	STOP	n/a	n/a	n/a	-999	11	[-999, -999, -999]	n/a	FR1	0	R1074M
1383.035	1.202	699189	DISTRACT_END	n/a	n/a	n/a	-999	11	[0, 0, 0]	n/a	FR1	0	R1074M
1384.237	0.764	699790	REC_START	n/a	n/a	n/a	-999	11	[0, 0, 0]	n/a	FR1	0	R1074M
1385.001	0.642	700172	REC_WORD	0.642	n/a	CLOTH	-999	11	[0, 0, 0]	n/a	FR1	0	R1074M
1385.643	0.551	700493	REC_WORD	0.551	n/a	GUARD	-999	11	[0, 0, 0]	n/a	FR1	0	R1074M
1386.194	1.056	700769	REC_WORD	1.056	n/a	DEER	-999	11	[0, 0, 0]	n/a	FR1	0	R1074M
1387.25	26.997	701297	REC_WORD	26.997	n/a	BADGE	-999	11	[0, 0, 0]	n/a	FR1	0	R1074M
1414.247	3.979	714794	REC_END	n/a	n/a	n/a	-999	11	[0, 0, 0]	n/a	FR1	0	R1074M
1418.226	0.0	716784	TRIAL	n/a	n/a	n/a	-999	12	[0, 0, 0]	n/a	FR1	0	R1074M
1418.226	10.428	716784	COUNTDOWN_START	n/a	n/a	n/a	-999	12	[0, 0, 0]	n/a	FR1	0	R1074M
1428.654	0.006	721997	COUNTDOWN_END	n/a	n/a	n/a	-999	12	[0, 0, 0]	n/a	FR1	0	R1074M
1428.66	2.618	722000	ORIENT	n/a	n/a	n/a	-999	12	[0, 0, 0]	n/a	FR1	0	R1074M
1431.278	2.566	723309	WORD	n/a	wordpools/wordpool_EN.txt	CHIEF	1	12	[0, 0, 0]	n/a	FR1	0	R1074M
1433.844	2.468	724592	WORD	n/a	wordpools/wordpool_EN.txt	BENCH	2	12	[0, 0, 0]	n/a	FR1	0	R1074M
1436.312	2.584	725826	WORD	n/a	wordpools/wordpool_EN.txt	PALM	3	12	[0, 0, 0]	n/a	FR1	0	R1074M
1438.896	2.6	727118	WORD	n/a	wordpools/wordpool_EN.txt	SHIELD	4	12	[0, 0, 0]	n/a	FR1	0	R1074M
1441.496	2.534	728418	WORD	n/a	wordpools/wordpool_EN.txt	CAKE	5	12	[0, 0, 0]	n/a	FR1	0	R1074M
1444.03	2.467	729685	WORD	n/a	wordpools/wordpool_EN.txt	COIN	6	12	[0, 0, 0]	n/a	FR1	0	R1074M
1446.497	2.467	730918	WORD	n/a	wordpools/wordpool_EN.txt	ROSE	7	12	[0, 0, 0]	n/a	FR1	0	R1074M
1448.964	2.417	732152	WORD	n/a	wordpools/wordpool_EN.txt	RICE	8	12	[0, 0, 0]	n/a	FR1	0	R1074M
1451.381	2.534	733360	WORD	n/a	wordpools/wordpool_EN.txt	CHAIR	9	12	[0, 0, 0]	n/a	FR1	0	R1074M
1453.915	2.467	734627	WORD	n/a	wordpools/wordpool_EN.txt	CUP	10	12	[0, 0, 0]	n/a	FR1	0	R1074M
1456.382	2.401	735861	WORD	n/a	wordpools/wordpool_EN.txt	DRUM	11	12	[0, 0, 0]	n/a	FR1	0	R1074M
1458.783	1.617	737061	WORD	n/a	wordpools/wordpool_EN.txt	FROG	12	12	[0, 0, 0]	n/a	FR1	0	R1074M
1460.4	0.001	737870	DISTRACT_START	n/a	n/a	n/a	-999	12	[0, 0, 0]	n/a	FR1	0	R1074M
1460.401	0.015	737870	START	n/a	n/a	n/a	-999	12	[-999, -999, -999]	n/a	FR1	0	R1074M
1460.416	16.137	737878	PROB	16.137	n/a	n/a	-999	12	[7, 6, 6]	18	FR1	0	R1074M
1476.553	10.023	745946	PROB	10.023	n/a	n/a	-999	12	[7, 3, 4]	14	FR1	0	R1074M
1486.576	0.012	750957	STOP	n/a	n/a	n/a	-999	12	[-999, -999, -999]	n/a	FR1	0	R1074M
1486.588	1.101	750963	DISTRACT_END	n/a	n/a	n/a	-999	12	[0, 0, 0]	n/a	FR1	0	R1074M
1487.689	2.786	751513	REC_START	n/a	n/a	n/a	-999	12	[0, 0, 0]	n/a	FR1	0	R1074M
1490.475	0.803	752906	REC_WORD	0.803	n/a	FROG	-999	12	[0, 0, 0]	n/a	FR1	0	R1074M
1491.278	0.6	753308	REC_WORD	0.6	n/a	CHAIR	-999	12	[0, 0, 0]	n/a	FR1	0	R1074M
1491.878	12.986	753608	REC_WORD	12.986	n/a	CUP	-999	12	[0, 0, 0]	n/a	FR1	0	R1074M
1504.864	12.675	760100	REC_WORD	12.675	n/a	CLOTH	-999	12	[0, 0, 0]	n/a	FR1	0	R1074M
1517.539	0.161	766437	REC_WORD	0.161	n/a	CLOTHS	-999	12	[0, 0, 0]	n/a	FR1	0	R1074M
1517.7	32.084	766518	REC_END	n/a	n/a	n/a	-999	12	[0, 0, 0]	n/a	FR1	0	R1074M
1549.784	0.0	782559	TRIAL	n/a	n/a	n/a	-999	13	[0, 0, 0]	n/a	FR1	0	R1074M
1549.784	10.428	782559	COUNTDOWN_START	n/a	n/a	n/a	-999	13	[0, 0, 0]	n/a	FR1	0	R1074M
1560.212	0.008	787773	COUNTDOWN_END	n/a	n/a	n/a	-999	13	[0, 0, 0]	n/a	FR1	0	R1074M
1560.22	2.6	787777	ORIENT	n/a	n/a	n/a	-999	13	[0, 0, 0]	n/a	FR1	0	R1074M
1562.82	2.483	789077	WORD	n/a	wordpools/wordpool_EN.txt	STICK	1	13	[0, 0, 0]	n/a	FR1	0	R1074M
1565.303	2.484	790318	WORD	n/a	wordpools/wordpool_EN.txt	MUG	2	13	[0, 0, 0]	n/a	FR1	0	R1074M
1567.787	2.501	791560	WORD	n/a	wordpools/wordpool_EN.txt	FOOT	3	13	[0, 0, 0]	n/a	FR1	0	R1074M
1570.288	2.4	792810	WORD	n/a	wordpools/wordpool_EN.txt	CHEEK	4	13	[0, 0, 0]	n/a	FR1	0	R1074M
1572.688	2.434	794010	WORD	n/a	wordpools/wordpool_EN.txt	RUG	5	13	[0, 0, 0]	n/a	FR1	0	R1074M
1575.122	2.6	795227	WORD	n/a	wordpools/wordpool_EN.txt	DOOR	6	13	[0, 0, 0]	n/a	FR1	0	R1074M
1577.722	2.401	796527	WORD	n/a	wordpools/wordpool_EN.txt	THUMB	7	13	[0, 0, 0]	n/a	FR1	0	R1074M
1580.123	2.467	797728	WORD	n/a	wordpools/wordpool_EN.txt	EEL	8	13	[0, 0, 0]	n/a	FR1	0	R1074M
1582.59	2.517	798961	WORD	n/a	wordpools/wordpool_EN.txt	CHIN	9	13	[0, 0, 0]	n/a	FR1	0	R1074M
1585.107	2.434	800219	WORD	n/a	wordpools/wordpool_EN.txt	LIP	10	13	[0, 0, 0]	n/a	FR1	0	R1074M
1587.541	2.585	801436	WORD	n/a	wordpools/wordpool_EN.txt	SIGN	11	13	[0, 0, 0]	n/a	FR1	0	R1074M
1590.126	1.616	802729	WORD	n/a	wordpools/wordpool_EN.txt	BED	12	13	[0, 0, 0]	n/a	FR1	0	R1074M
1591.742	0.001	803537	DISTRACT_START	n/a	n/a	n/a	-999	13	[0, 0, 0]	n/a	FR1	0	R1074M
1591.743	0.015	803537	START	n/a	n/a	n/a	-999	13	[-999, -999, -999]	n/a	FR1	0	R1074M
1591.758	13.903	803545	PROB	13.903	n/a	n/a	-999	13	[6, 1, 8]	15	FR1	0	R1074M
1605.661	6.068	810496	PROB	6.068	n/a	n/a	-999	13	[1, 7, 9]	17	FR1	0	R1074M
1611.729	7.504	813530	PROB	7.504	n/a	n/a	-999	13	[5, 3, 5]	13	FR1	0	R1074M
1619.233	0.015	817282	STOP	n/a	n/a	n/a	-999	13	[-999, -999, -999]	n/a	FR1	0	R1074M
1619.248	1.1	817289	DISTRACT_END	n/a	n/a	n/a	-999	13	[0, 0, 0]	n/a	FR1	0	R1074M
1620.348	1.284	817839	REC_START	n/a	n/a	n/a	-999	13	[0, 0, 0]	n/a	FR1	0	R1074M
1621.632	0.584	818481	REC_WORD	0.584	n/a	CHIN	-999	13	[0, 0, 0]	n/a	FR1	0	R1074M
1622.216	14.407	818773	REC_WORD	14.407	n/a	EEL	-999	13	[0, 0, 0]	n/a	FR1	0	R1074M
1636.623	13.735	825976	REC_WORD	13.735	n/a	LIP	-999	13	[0, 0, 0]	n/a	FR1	0	R1074M
1650.358	5.363	832843	REC_END	n/a	n/a	n/a	-999	13	[0, 0, 0]	n/a	FR1	0	R1074M
1655.721	0.0	835524	TRIAL	n/a	n/a	n/a	-999	14	[0, 0, 0]	n/a	FR1	0	R1074M
1655.721	10.428	835524	COUNTDOWN_START	n/a	n/a	n/a	-999	14	[0, 0, 0]	n/a	FR1	0	R1074M
1666.149	0.008	840738	COUNTDOWN_END	n/a	n/a	n/a	-999	14	[0, 0, 0]	n/a	FR1	0	R1074M
1666.157	2.433	840742	ORIENT	n/a	n/a	n/a	-999	14	[0, 0, 0]	n/a	FR1	0	R1074M
1668.59	2.484	841959	WORD	n/a	wordpools/wordpool_EN.txt	CONE	1	14	[0, 0, 0]	n/a	FR1	0	R1074M
1671.074	2.417	843201	WORD	n/a	wordpools/wordpool_EN.txt	TRAY	2	14	[0, 0, 0]	n/a	FR1	0	R1074M
1673.491	2.434	844409	WORD	n/a	wordpools/wordpool_EN.txt	SWAMP	3	14	[0, 0, 0]	n/a	FR1	0	R1074M
1675.925	2.534	845626	WORD	n/a	wordpools/wordpool_EN.txt	LAND	4	14	[0, 0, 0]	n/a	FR1	0	R1074M
1678.459	2.517	846893	WORD	n/a	wordpools/wordpool_EN.txt	LEAF	5	14	[0, 0, 0]	n/a	FR1	0	R1074M
1680.976	2.584	848151	WORD	n/a	wordpools/wordpool_EN.txt	FORK	6	14	[0, 0, 0]	n/a	FR1	0	R1074M
1683.56	2.383	849443	WORD	n/a	wordpools/wordpool_EN.txt	DRESS	7	14	[0, 0, 0]	n/a	FR1	0	R1074M
1685.943	2.467	850635	WORD	n/a	wordpools/wordpool_EN.txt	ARK	8	14	[0, 0, 0]	n/a	FR1	0	R1074M
1688.41	2.468	851868	WORD	n/a	wordpools/wordpool_EN.txt	ROOT	9	14	[0, 0, 0]	n/a	FR1	0	R1074M
1690.878	2.517	853102	WORD	n/a	wordpools/wordpool_EN.txt	SEED	10	14	[0, 0, 0]	n/a	FR1	0	R1074M
1693.395	2.383	854360	WORD	n/a	wordpools/wordpool_EN.txt	LAWN	11	14	[0, 0, 0]	n/a	FR1	0	R1074M
1695.778	1.618	855552	WORD	n/a	wordpools/wordpool_EN.txt	TOAST	12	14	[0, 0, 0]	n/a	FR1	0	R1074M
1697.396	0.0	856361	DISTRACT_START	n/a	n/a	n/a	-999	14	[0, 0, 0]	n/a	FR1	0	R1074M
1697.396	0.016	856361	START	n/a	n/a	n/a	-999	14	[-999, -999, -999]	n/a	FR1	0	R1074M
1697.412	4.852	856369	PROB	4.852	n/a	n/a	-999	14	[6, 4, 4]	14	FR1	0	R1074M
1702.264	5.683	858795	PROB	5.683	n/a	n/a	-999	14	[8, 8, 1]	17	FR1	0	R1074M
1707.947	8.102	861636	PROB	8.102	n/a	n/a	-999	14	[8, 5, 8]	21	FR1	0	R1074M
1716.049	13.575	865687	PROB	13.575	n/a	n/a	-999	14	[6, 3, 3]	12	FR1	0	R1074M
1729.624	0.011	872474	STOP	n/a	n/a	n/a	-999	14	[-999, -999, -999]	n/a	FR1	0	R1074M
1729.635	1.034	872479	DISTRACT_END	n/a	n/a	n/a	-999	14	[0, 0, 0]	n/a	FR1	0	R1074M
1730.669	1.568	872996	REC_START	n/a	n/a	n/a	-999	14	[0, 0, 0]	n/a	FR1	0	R1074M
1732.237	28.446	873780	REC_WORD_VV	28.446	n/a	<>	-999	14	[0, 0, 0]	n/a	FR1	0	R1074M
1760.683	42.083	888003	REC_END	n/a	n/a	n/a	-999	14	[0, 0, 0]	n/a	FR1	0	R1074M
1802.766	0.0	909043	TRIAL	n/a	n/a	n/a	-999	15	[0, 0, 0]	n/a	FR1	0	R1074M
1802.766	10.428	909043	COUNTDOWN_START	n/a	n/a	n/a	-999	15	[0, 0, 0]	n/a	FR1	0	R1074M
1813.194	0.008	914257	COUNTDOWN_END	n/a	n/a	n/a	-999	15	[0, 0, 0]	n/a	FR1	0	R1074M
1813.202	2.416	914261	ORIENT	n/a	n/a	n/a	-999	15	[0, 0, 0]	n/a	FR1	0	R1074M
1815.618	2.569	915468	WORD	n/a	wordpools/wordpool_EN.txt	BAT	1	15	[0, 0, 0]	n/a	FR1	0	R1074M
1818.187	2.566	916753	WORD	n/a	wordpools/wordpool_EN.txt	MOTH	2	15	[0, 0, 0]	n/a	FR1	0	R1074M
1820.753	2.384	918036	WORD	n/a	wordpools/wordpool_EN.txt	STEM	3	15	[0, 0, 0]	n/a	FR1	0	R1074M
1823.137	2.567	919228	WORD	n/a	wordpools/wordpool_EN.txt	STORE	4	15	[0, 0, 0]	n/a	FR1	0	R1074M
1825.704	2.584	920511	WORD	n/a	wordpools/wordpool_EN.txt	CAPE	5	15	[0, 0, 0]	n/a	FR1	0	R1074M
1828.288	2.417	921803	WORD	n/a	wordpools/wordpool_EN.txt	FOG	6	15	[0, 0, 0]	n/a	FR1	0	R1074M
1830.705	2.451	923012	WORD	n/a	wordpools/wordpool_EN.txt	PLANT	7	15	[0, 0, 0]	n/a	FR1	0	R1074M
1833.156	2.416	924237	WORD	n/a	wordpools/wordpool_EN.txt	HOOF	8	15	[0, 0, 0]	n/a	FR1	0	R1074M
1835.572	2.401	925445	WORD	n/a	wordpools/wordpool_EN.txt	MOON	9	15	[0, 0, 0]	n/a	FR1	0	R1074M
1837.973	2.567	926645	WORD	n/a	wordpools/wordpool_EN.txt	BIRD	10	15	[0, 0, 0]	n/a	FR1	0	R1074M
1840.54	2.584	927929	WORD	n/a	wordpools/wordpool_EN.txt	WING	11	15	[0, 0, 0]	n/a	FR1	0	R1074M
1843.124	1.617	929221	WORD	n/a	wordpools/wordpool_EN.txt	ANT	12	15	[0, 0, 0]	n/a	FR1	0	R1074M
1844.741	0.001	930029	DISTRACT_START	n/a	n/a	n/a	-999	15	[0, 0, 0]	n/a	FR1	0	R1074M
1844.742	0.015	930030	START	n/a	n/a	n/a	-999	15	[-999, -999, -999]	n/a	FR1	0	R1074M
1844.757	331.643	930037	PROB	331.643	n/a	n/a	-999	15	[4, 8, 6]	23	FR1	0	R1074M
2176.4	0.004	1095849	STOP	n/a	n/a	n/a	-999	15	[-999, -999, -999]	n/a	FR1	0	R1074M
2176.404	1.068	1095851	DISTRACT_END	n/a	n/a	n/a	-999	15	[0, 0, 0]	n/a	FR1	0	R1074M
2177.472	4.391	1096385	REC_START	n/a	n/a	n/a	-999	15	[0, 0, 0]	n/a	FR1	0	R1074M
2181.863	25.619	1098581	REC_WORD_VV	25.619	n/a	<>	-999	15	[0, 0, 0]	n/a	FR1	0	R1074M
2207.482	10.748	1111389	REC_END	n/a	n/a	n/a	-999	15	[0, 0, 0]	n/a	FR1	0	R1074M
2218.23	0.001	1116763	COUNTDOWN_START	n/a	n/a	n/a	-999	16	[0, 0, 0]	n/a	FR1	0	R1074M
2218.231	10.427	1116764	TRIAL	n/a	n/a	n/a	-999	16	[0, 0, 0]	n/a	FR1	0	R1074M
2228.658	0.007	1121977	COUNTDOWN_END	n/a	n/a	n/a	-999	16	[0, 0, 0]	n/a	FR1	0	R1074M
2228.665	2.383	1121980	ORIENT	n/a	n/a	n/a	-999	16	[0, 0, 0]	n/a	FR1	0	R1074M
2231.048	2.568	1123172	WORD	n/a	wordpools/wordpool_EN.txt	MOLE	1	16	[0, 0, 0]	n/a	FR1	0	R1074M
2233.616	2.45	1124456	WORD	n/a	wordpools/wordpool_EN.txt	SNAIL	2	16	[0, 0, 0]	n/a	FR1	0	R1074M
2236.066	2.601	1125681	WORD	n/a	wordpools/wordpool_EN.txt	CAVE	3	16	[0, 0, 0]	n/a	FR1	0	R1074M
2238.667	2.584	1126981	WORD	n/a	wordpools/wordpool_EN.txt	BEAR	4	16	[0, 0, 0]	n/a	FR1	0	R1074M
2241.251	2.467	1128273	WORD	n/a	wordpools/wordpool_EN.txt	JEEP	5	16	[0, 0, 0]	n/a	FR1	0	R1074M
2243.718	2.568	1129506	WORD	n/a	wordpools/wordpool_EN.txt	SEAL	6	16	[0, 0, 0]	n/a	FR1	0	R1074M
2246.286	2.516	1130790	WORD	n/a	wordpools/wordpool_EN.txt	WEED	7	16	[0, 0, 0]	n/a	FR1	0	R1074M
2248.802	2.517	1132048	WORD	n/a	wordpools/wordpool_EN.txt	LOCK	8	16	[0, 0, 0]	n/a	FR1	0	R1074M
2251.319	2.551	1133307	WORD	n/a	wordpools/wordpool_EN.txt	WHEEL	9	16	[0, 0, 0]	n/a	FR1	0	R1074M
2253.87	2.433	1134582	WORD	n/a	wordpools/wordpool_EN.txt	FLEA	10	16	[0, 0, 0]	n/a	FR1	0	R1074M
2256.303	2.451	1135798	WORD	n/a	wordpools/wordpool_EN.txt	GATE	11	16	[0, 0, 0]	n/a	FR1	0	R1074M
2258.754	1.617	1137024	WORD	n/a	wordpools/wordpool_EN.txt	KEY	12	16	[0, 0, 0]	n/a	FR1	0	R1074M
2260.371	0.001	1137832	DISTRACT_START	n/a	n/a	n/a	-999	16	[0, 0, 0]	n/a	FR1	0	R1074M
2260.372	0.015	1137833	START	n/a	n/a	n/a	-999	16	[-999, -999, -999]	n/a	FR1	0	R1074M
2260.387	21.806	1137840	PROB	21.806	n/a	n/a	-999	16	[7, 9, 7]	23	FR1	0	R1074M
2282.193	0.016	1148743	STOP	n/a	n/a	n/a	-999	16	[-999, -999, -999]	n/a	FR1	0	R1074M
2282.209	1.068	1148751	DISTRACT_END	n/a	n/a	n/a	-999	16	[0, 0, 0]	n/a	FR1	0	R1074M
2283.277	1.994	1149285	REC_START	n/a	n/a	n/a	-999	16	[0, 0, 0]	n/a	FR1	0	R1074M
2285.271	0.493	1150282	REC_WORD	0.493	n/a	MOLE	-999	16	[0, 0, 0]	n/a	FR1	0	R1074M
2285.764	5.451	1150528	REC_WORD	5.451	n/a	SEAL	-999	16	[0, 0, 0]	n/a	FR1	0	R1074M
2291.215	9.065	1153253	REC_WORD	9.065	n/a	LOCK	-999	16	[0, 0, 0]	n/a	FR1	0	R1074M
2300.28	13.007	1157786	REC_WORD	13.007	n/a	WEED	-999	16	[0, 0, 0]	n/a	FR1	0	R1074M
2313.287	5.412	1164289	REC_END	n/a	n/a	n/a	-999	16	[0, 0, 0]	n/a	FR1	0	R1074M
2318.699	0.0	1166995	TRIAL	n/a	n/a	n/a	-999	17	[0, 0, 0]	n/a	FR1	0	R1074M
2318.699	10.428	1166995	COUNTDOWN_START	n/a	n/a	n/a	-999	17	[0, 0, 0]	n/a	FR1	0	R1074M
2329.127	0.008	1172208	COUNTDOWN_END	n/a	n/a	n/a	-999	17	[0, 0, 0]	n/a	FR1	0	R1074M
2329.135	2.55	1172212	ORIENT	n/a	n/a	n/a	-999	17	[0, 0, 0]	n/a	FR1	0	R1074M
2331.685	2.601	1173487	WORD	n/a	wordpools/wordpool_EN.txt	TAIL	1	17	[0, 0, 0]	n/a	FR1	0	R1074M
2334.286	2.466	1174788	WORD	n/a	wordpools/wordpool_EN.txt	WOLF	2	17	[0, 0, 0]	n/a	FR1	0	R1074M
2336.752	2.567	1176021	WORD	n/a	wordpools/wordpool_EN.txt	NEST	3	17	[0, 0, 0]	n/a	FR1	0	R1074M
2339.319	2.517	1177304	WORD	n/a	wordpools/wordpool_EN.txt	KITE	4	17	[0, 0, 0]	n/a	FR1	0	R1074M
2341.836	2.419	1178563	WORD	n/a	wordpools/wordpool_EN.txt	DUCK	5	17	[0, 0, 0]	n/a	FR1	0	R1074M
2344.255	2.415	1179772	WORD	n/a	wordpools/wordpool_EN.txt	RAT	6	17	[0, 0, 0]	n/a	FR1	0	R1074M
2346.67	2.469	1180979	WORD	n/a	wordpools/wordpool_EN.txt	HOLE	7	17	[0, 0, 0]	n/a	FR1	0	R1074M
2349.139	2.566	1182214	WORD	n/a	wordpools/wordpool_EN.txt	PIG	8	17	[0, 0, 0]	n/a	FR1	0	R1074M
2351.705	2.617	1183497	WORD	n/a	wordpools/wordpool_EN.txt	PRINCE	9	17	[0, 0, 0]	n/a	FR1	0	R1074M
2354.322	2.6	1184805	WORD	n/a	wordpools/wordpool_EN.txt	RAKE	10	17	[0, 0, 0]	n/a	FR1	0	R1074M
2356.922	2.434	1186105	WORD	n/a	wordpools/wordpool_EN.txt	BARN	11	17	[0, 0, 0]	n/a	FR1	0	R1074M
2359.356	1.601	1187322	WORD	n/a	wordpools/wordpool_EN.txt	PEN	12	17	[0, 0, 0]	n/a	FR1	0	R1074M
2360.957	0.001	1188123	DISTRACT_START	n/a	n/a	n/a	-999	17	[0, 0, 0]	n/a	FR1	0	R1074M
2360.958	0.016	1188123	START	n/a	n/a	n/a	-999	17	[-999, -999, -999]	n/a	FR1	0	R1074M
2360.974	8.501	1188131	PROB	8.501	n/a	n/a	-999	17	[2, 3, 2]	7	FR1	0	R1074M
2369.475	4.368	1192381	PROB	4.368	n/a	n/a	-999	17	[6, 2, 4]	12	FR1	0	R1074M
2373.843	5.567	1194565	PROB	5.567	n/a	n/a	-999	17	[6, 2, 3]	11	FR1	0	R1074M
2379.41	9.823	1197348	PROB	9.823	n/a	n/a	-999	17	[7, 2, 4]	13	FR1	0	R1074M
2389.233	0.014	1202260	STOP	n/a	n/a	n/a	-999	17	[-999, -999, -999]	n/a	FR1	0	R1074M
2389.247	1.066	1202267	DISTRACT_END	n/a	n/a	n/a	-999	17	[0, 0, 0]	n/a	FR1	0	R1074M
2390.313	1.358	1202800	REC_START	n/a	n/a	n/a	-999	17	[0, 0, 0]	n/a	FR1	0	R1074M
2391.671	3.998	1203479	REC_WORD	3.998	n/a	RAT	-999	17	[0, 0, 0]	n/a	FR1	0	R1074M
2395.669	3.224	1205478	REC_WORD	3.224	n/a	MOLE	-999	17	[0, 0, 0]	n/a	FR1	0	R1074M
2398.893	21.431	1207089	REC_WORD	21.431	n/a	SNAKE	-999	17	[0, 0, 0]	n/a	FR1	0	R1074M
2420.324	7.379	1217804	REC_END	n/a	n/a	n/a	-999	17	[0, 0, 0]	n/a	FR1	0	R1074M
2427.703	0.0	1221494	TRIAL	n/a	n/a	n/a	-999	18	[0, 0, 0]	n/a	FR1	0	R1074M
2427.703	10.428	1221494	COUNTDOWN_START	n/a	n/a	n/a	-999	18	[0, 0, 0]	n/a	FR1	0	R1074M
2438.131	0.008	1226707	COUNTDOWN_END	n/a	n/a	n/a	-999	18	[0, 0, 0]	n/a	FR1	0	R1074M
2438.139	2.4	1226711	ORIENT	n/a	n/a	n/a	-999	18	[0, 0, 0]	n/a	FR1	0	R1074M
2440.539	2.4	1227911	WORD	n/a	wordpools/wordpool_EN.txt	TEA	1	18	[0, 0, 0]	n/a	FR1	0	R1074M
2442.939	2.384	1229111	WORD	n/a	wordpools/wordpool_EN.txt	FARM	2	18	[0, 0, 0]	n/a	FR1	0	R1074M
2445.323	2.401	1230303	WORD	n/a	wordpools/wordpool_EN.txt	SEAT	3	18	[0, 0, 0]	n/a	FR1	0	R1074M
2447.724	2.451	1231504	WORD	n/a	wordpools/wordpool_EN.txt	BRUSH	4	18	[0, 0, 0]	n/a	FR1	0	R1074M
2450.175	2.433	1232729	WORD	n/a	wordpools/wordpool_EN.txt	AXE	5	18	[0, 0, 0]	n/a	FR1	0	R1074M
2452.608	2.367	1233945	WORD	n/a	wordpools/wordpool_EN.txt	SLEEVE	6	18	[0, 0, 0]	n/a	FR1	0	R1074M
2454.975	2.534	1235129	WORD	n/a	wordpools/wordpool_EN.txt	CORN	7	18	[0, 0, 0]	n/a	FR1	0	R1074M
2457.509	2.534	1236396	WORD	n/a	wordpools/wordpool_EN.txt	HOSE	8	18	[0, 0, 0]	n/a	FR1	0	R1074M
2460.043	2.584	1237663	WORD	n/a	wordpools/wordpool_EN.txt	SMILE	9	18	[0, 0, 0]	n/a	FR1	0	R1074M
2462.627	2.568	1238955	WORD	n/a	wordpools/wordpool_EN.txt	POLE	10	18	[0, 0, 0]	n/a	FR1	0	R1074M
2465.195	2.516	1240239	WORD	n/a	wordpools/wordpool_EN.txt	DART	11	18	[0, 0, 0]	n/a	FR1	0	R1074M
2467.711	1.617	1241496	WORD	n/a	wordpools/wordpool_EN.txt	HAT	12	18	[0, 0, 0]	n/a	FR1	0	R1074M
2469.328	0.001	1242305	DISTRACT_START	n/a	n/a	n/a	-999	18	[0, 0, 0]	n/a	FR1	0	R1074M
2469.329	0.016	1242305	START	n/a	n/a	n/a	-999	18	[-999, -999, -999]	n/a	FR1	0	R1074M
2469.345	5.818	1242313	PROB	5.818	n/a	n/a	-999	18	[8, 1, 3]	12	FR1	0	R1074M
2475.163	6.767	1245222	PROB	6.767	n/a	n/a	-999	18	[7, 3, 6]	16	FR1	0	R1074M
2481.93	5.001	1248606	PROB	5.001	n/a	n/a	-999	18	[4, 1, 2]	7	FR1	0	R1074M
2486.931	4.877	1251106	PROB	4.877	n/a	n/a	-999	18	[1, 3, 4]	8	FR1	0	R1074M
2491.808	0.007	1253544	STOP	n/a	n/a	n/a	-999	18	[-999, -999, -999]	n/a	FR1	0	R1074M
2491.815	1.068	1253548	DISTRACT_END	n/a	n/a	n/a	-999	18	[0, 0, 0]	n/a	FR1	0	R1074M
2492.883	1.849	1254082	REC_START	n/a	n/a	n/a	-999	18	[0, 0, 0]	n/a	FR1	0	R1074M
2494.732	0.716	1255006	REC_WORD	0.716	n/a	FARM	-999	18	[0, 0, 0]	n/a	FR1	0	R1074M
2495.448	27.445	1255364	REC_WORD	27.445	n/a	POLE	-999	18	[0, 0, 0]	n/a	FR1	0	R1074M
2522.893	12.648	1269086	REC_END	n/a	n/a	n/a	-999	18	[0, 0, 0]	n/a	FR1	0	R1074M
2535.541	0.0	1275410	TRIAL	n/a	n/a	n/a	-999	19	[0, 0, 0]	n/a	FR1	0	R1074M
2535.541	10.428	1275410	COUNTDOWN_START	n/a	n/a	n/a	-999	19	[0, 0, 0]	n/a	FR1	0	R1074M
2545.969	0.007	1280623	COUNTDOWN_END	n/a	n/a	n/a	-999	19	[0, 0, 0]	n/a	FR1	0	R1074M
2545.976	2.517	1280627	ORIENT	n/a	n/a	n/a	-999	19	[0, 0, 0]	n/a	FR1	0	R1074M
2548.493	2.617	1281885	WORD	n/a	wordpools/wordpool_EN.txt	STRING	1	19	[0, 0, 0]	n/a	FR1	0	R1074M
2551.11	2.401	1283194	WORD	n/a	wordpools/wordpool_EN.txt	VAN	2	19	[0, 0, 0]	n/a	FR1	0	R1074M
2553.511	2.383	1284394	WORD	n/a	wordpools/wordpool_EN.txt	CART	3	19	[0, 0, 0]	n/a	FR1	0	R1074M
2555.894	2.618	1285585	WORD	n/a	wordpools/wordpool_EN.txt	CLIFF	4	19	[0, 0, 0]	n/a	FR1	0	R1074M
2558.512	2.417	1286894	WORD	n/a	wordpools/wordpool_EN.txt	LEG	5	19	[0, 0, 0]	n/a	FR1	0	R1074M
2560.929	2.584	1288103	WORD	n/a	wordpools/wordpool_EN.txt	TOOL	6	19	[0, 0, 0]	n/a	FR1	0	R1074M
2563.513	2.417	1289395	WORD	n/a	wordpools/wordpool_EN.txt	SKI	7	19	[0, 0, 0]	n/a	FR1	0	R1074M
2565.93	2.434	1290603	WORD	n/a	wordpools/wordpool_EN.txt	SPEAR	8	19	[0, 0, 0]	n/a	FR1	0	R1074M
2568.364	2.55	1291820	WORD	n/a	wordpools/wordpool_EN.txt	CRANE	9	19	[0, 0, 0]	n/a	FR1	0	R1074M
2570.914	2.434	1293095	WORD	n/a	wordpools/wordpool_EN.txt	WAVE	10	19	[0, 0, 0]	n/a	FR1	0	R1074M
2573.348	2.434	1294312	WORD	n/a	wordpools/wordpool_EN.txt	RIB	11	19	[0, 0, 0]	n/a	FR1	0	R1074M
2575.782	1.617	1295529	WORD	n/a	wordpools/wordpool_EN.txt	TRUCK	12	19	[0, 0, 0]	n/a	FR1	0	R1074M
2577.399	0.001	1296337	DISTRACT_START	n/a	n/a	n/a	-999	19	[0, 0, 0]	n/a	FR1	0	R1074M
2577.4	0.015	1296338	START	n/a	n/a	n/a	-999	19	[-999, -999, -999]	n/a	FR1	0	R1074M
2577.415	5.068	1296345	PROB	5.068	n/a	n/a	-999	19	[2, 2, 8]	12	FR1	0	R1074M
2582.483	7.351	1298879	PROB	7.351	n/a	n/a	-999	19	[6, 2, 5]	13	FR1	0	R1074M
2589.834	5.535	1302555	PROB	5.535	n/a	n/a	-999	19	[5, 5, 8]	18	FR1	0	R1074M
2595.369	26.519	1305322	PROB	26.519	n/a	n/a	-999	19	[6, 7, 6]	29	FR1	0	R1074M
2621.888	0.019	1318581	STOP	n/a	n/a	n/a	-999	19	[-999, -999, -999]	n/a	FR1	0	R1074M
2621.907	1.068	1318590	DISTRACT_END	n/a	n/a	n/a	-999	19	[0, 0, 0]	n/a	FR1	0	R1074M
2622.975	10.311	1319124	REC_START	n/a	n/a	n/a	-999	19	[0, 0, 0]	n/a	FR1	0	R1074M
2633.286	19.699	1324279	REC_WORD	19.699	n/a	TRUCK	-999	19	[0, 0, 0]	n/a	FR1	0	R1074M
2652.985	16.581	1334128	REC_END	n/a	n/a	n/a	-999	19	[0, 0, 0]	n/a	FR1	0	R1074M
2669.566	0.001	1342418	COUNTDOWN_START	n/a	n/a	n/a	-999	20	[0, 0, 0]	n/a	FR1	0	R1074M
2669.567	10.427	1342419	TRIAL	n/a	n/a	n/a	-999	20	[0, 0, 0]	n/a	FR1	0	R1074M
2679.994	0.008	1347632	COUNTDOWN_END	n/a	n/a	n/a	-999	20	[0, 0, 0]	n/a	FR1	0	R1074M
2680.002	2.467	1347636	ORIENT	n/a	n/a	n/a	-999	20	[0, 0, 0]	n/a	FR1	0	R1074M
2682.469	2.384	1348869	WORD	n/a	wordpools/wordpool_EN.txt	CORD	1	20	[0, 0, 0]	n/a	FR1	0	R1074M
2684.853	2.584	1350061	WORD	n/a	wordpools/wordpool_EN.txt	SHEEP	2	20	[0, 0, 0]	n/a	FR1	0	R1074M
2687.437	2.417	1351353	WORD	n/a	wordpools/wordpool_EN.txt	FILM	3	20	[0, 0, 0]	n/a	FR1	0	R1074M
2689.854	2.55	1352562	WORD	n/a	wordpools/wordpool_EN.txt	TOOTH	4	20	[0, 0, 0]	n/a	FR1	0	R1074M
2692.404	2.45	1353837	WORD	n/a	wordpools/wordpool_EN.txt	FORT	5	20	[0, 0, 0]	n/a	FR1	0	R1074M
2694.854	2.535	1355062	WORD	n/a	wordpools/wordpool_EN.txt	CASH	6	20	[0, 0, 0]	n/a	FR1	0	R1074M
2697.389	2.6	1356329	WORD	n/a	wordpools/wordpool_EN.txt	BEAN	7	20	[0, 0, 0]	n/a	FR1	0	R1074M
2699.989	2.434	1357629	WORD	n/a	wordpools/wordpool_EN.txt	SHARK	8	20	[0, 0, 0]	n/a	FR1	0	R1074M
2702.423	2.517	1358846	WORD	n/a	wordpools/wordpool_EN.txt	TOAD	9	20	[0, 0, 0]	n/a	FR1	0	R1074M
2704.94	2.417	1360104	WORD	n/a	wordpools/wordpool_EN.txt	BANK	10	20	[0, 0, 0]	n/a	FR1	0	R1074M
2707.357	2.517	1361313	WORD	n/a	wordpools/wordpool_EN.txt	BOOK	11	20	[0, 0, 0]	n/a	FR1	0	R1074M
2709.874	1.617	1362571	WORD	n/a	wordpools/wordpool_EN.txt	TEETH	12	20	[0, 0, 0]	n/a	FR1	0	R1074M
2711.491	0.001	1363380	DISTRACT_START	n/a	n/a	n/a	-999	20	[0, 0, 0]	n/a	FR1	0	R1074M
2711.492	0.016	1363380	START	n/a	n/a	n/a	-999	20	[-999, -999, -999]	n/a	FR1	0	R1074M
2711.508	8.118	1363388	PROB	8.118	n/a	n/a	-999	20	[6, 7, 3]	16	FR1	0	R1074M
2719.626	8.802	1367447	PROB	8.802	n/a	n/a	-999	20	[3, 9, 9]	22	FR1	0	R1074M
2728.428	18.892	1371848	PROB	18.892	n/a	n/a	-999	20	[3, 6, 8]	17	FR1	0	R1074M
2747.32	0.012	1381293	STOP	n/a	n/a	n/a	-999	20	[-999, -999, -999]	n/a	FR1	0	R1074M
2747.332	1.134	1381299	DISTRACT_END	n/a	n/a	n/a	-999	20	[0, 0, 0]	n/a	FR1	0	R1074M
2748.466	1.462	1381866	REC_START	n/a	n/a	n/a	-999	20	[0, 0, 0]	n/a	FR1	0	R1074M
2749.928	0.5	1382597	REC_WORD	0.5	n/a	BEAN	-999	20	[0, 0, 0]	n/a	FR1	0	R1074M
2750.428	5.305	1382847	REC_WORD	5.305	n/a	BANK	-999	20	[0, 0, 0]	n/a	FR1	0	R1074M
2755.733	22.743	1385499	REC_WORD	22.743	n/a	TOAD	-999	20	[0, 0, 0]	n/a	FR1	0	R1074M
2778.476	5.879	1396870	REC_END	n/a	n/a	n/a	-999	20	[0, 0, 0]	n/a	FR1	0	R1074M
2784.355	0.001	1399810	COUNTDOWN_START	n/a	n/a	n/a	-999	21	[0, 0, 0]	n/a	FR1	0	R1074M
2784.356	10.427	1399810	TRIAL	n/a	n/a	n/a	-999	21	[0, 0, 0]	n/a	FR1	0	R1074M
2794.783	0.008	1405023	COUNTDOWN_END	n/a	n/a	n/a	-999	21	[0, 0, 0]	n/a	FR1	0	R1074M
2794.791	2.517	1405027	ORIENT	n/a	n/a	n/a	-999	21	[0, 0, 0]	n/a	FR1	0	R1074M
2797.308	2.384	1406286	WORD	n/a	wordpools/wordpool_EN.txt	WALL	1	21	[0, 0, 0]	n/a	FR1	0	R1074M
2799.692	2.6	1407478	WORD	n/a	wordpools/wordpool_EN.txt	VEST	2	21	[0, 0, 0]	n/a	FR1	0	R1074M
2802.292	2.517	1408777	WORD	n/a	wordpools/wordpool_EN.txt	SLUSH	3	21	[0, 0, 0]	n/a	FR1	0	R1074M
2804.809	2.617	1410036	WORD	n/a	wordpools/wordpool_EN.txt	BOX	4	21	[0, 0, 0]	n/a	FR1	0	R1074M
2807.426	2.534	1411344	WORD	n/a	wordpools/wordpool_EN.txt	THREAD	5	21	[0, 0, 0]	n/a	FR1	0	R1074M
2809.96	2.617	1412611	WORD	n/a	wordpools/wordpool_EN.txt	PASTE	6	21	[0, 0, 0]	n/a	FR1	0	R1074M
2812.577	2.401	1413920	WORD	n/a	wordpools/wordpool_EN.txt	WOOD	7	21	[0, 0, 0]	n/a	FR1	0	R1074M
2814.978	2.45	1415120	WORD	n/a	wordpools/wordpool_EN.txt	PIN	8	21	[0, 0, 0]	n/a	FR1	0	R1074M
2817.428	2.618	1416345	WORD	n/a	wordpools/wordpool_EN.txt	SQUARE	9	21	[0, 0, 0]	n/a	FR1	0	R1074M
2820.046	2.6	1417654	WORD	n/a	wordpools/wordpool_EN.txt	DOCK	10	21	[0, 0, 0]	n/a	FR1	0	R1074M
2822.646	2.502	1418954	WORD	n/a	wordpools/wordpool_EN.txt	BOARD	11	21	[0, 0, 0]	n/a	FR1	0	R1074M
2825.148	1.615	1420205	WORD	n/a	wordpools/wordpool_EN.txt	YARD	12	21	[0, 0, 0]	n/a	FR1	0	R1074M
2826.763	0.001	1421012	DISTRACT_START	n/a	n/a	n/a	-999	21	[0, 0, 0]	n/a	FR1	0	R1074M
2826.764	0.016	1421013	START	n/a	n/a	n/a	-999	21	[-999, -999, -999]	n/a	FR1	0	R1074M
2826.78	5.118	1421021	PROB	5.118	n/a	n/a	-999	21	[3, 3, 2]	8	FR1	0	R1074M
2831.898	7.501	1423580	PROB	7.501	n/a	n/a	-999	21	[6, 5, 2]	13	FR1	0	R1074M
2839.399	10.297	1427330	PROB	10.297	n/a	n/a	-999	21	[4, 6, 3]	13	FR1	0	R1074M
2849.696	0.005	1432478	STOP	n/a	n/a	n/a	-999	21	[-999, -999, -999]	n/a	FR1	0	R1074M
2849.701	1.068	1432481	DISTRACT_END	n/a	n/a	n/a	-999	21	[0, 0, 0]	n/a	FR1	0	R1074M
2850.769	1.492	1433015	REC_START	n/a	n/a	n/a	-999	21	[0, 0, 0]	n/a	FR1	0	R1074M
2852.261	0.58	1433761	REC_WORD	0.58	n/a	WALL	-999	21	[0, 0, 0]	n/a	FR1	0	R1074M
2852.841	27.94	1434051	REC_WORD	27.94	n/a	VEST	-999	21	[0, 0, 0]	n/a	FR1	0	R1074M
2880.781	6.094	1448020	REC_END	n/a	n/a	n/a	-999	21	[0, 0, 0]	n/a	FR1	0	R1074M
2886.875	0.0	1451067	TRIAL	n/a	n/a	n/a	-999	22	[0, 0, 0]	n/a	FR1	0	R1074M
2886.875	10.428	1451067	COUNTDOWN_START	n/a	n/a	n/a	-999	22	[0, 0, 0]	n/a	FR1	0	R1074M
2897.303	0.007	1456280	COUNTDOWN_END	n/a	n/a	n/a	-999	22	[0, 0, 0]	n/a	FR1	0	R1074M
2897.31	2.601	1456284	ORIENT	n/a	n/a	n/a	-999	22	[0, 0, 0]	n/a	FR1	0	R1074M
2899.911	2.583	1457584	WORD	n/a	wordpools/wordpool_EN.txt	SINK	1	22	[0, 0, 0]	n/a	FR1	0	R1074M
2902.494	2.534	1458876	WORD	n/a	wordpools/wordpool_EN.txt	RAIN	2	22	[0, 0, 0]	n/a	FR1	0	R1074M
2905.028	2.568	1460143	WORD	n/a	wordpools/wordpool_EN.txt	PURSE	3	22	[0, 0, 0]	n/a	FR1	0	R1074M
2907.596	2.585	1461427	WORD	n/a	wordpools/wordpool_EN.txt	BAG	4	22	[0, 0, 0]	n/a	FR1	0	R1074M
2910.181	2.499	1462719	WORD	n/a	wordpools/wordpool_EN.txt	NOSE	5	22	[0, 0, 0]	n/a	FR1	0	R1074M
2912.68	2.535	1463968	WORD	n/a	wordpools/wordpool_EN.txt	FENCE	6	22	[0, 0, 0]	n/a	FR1	0	R1074M
2915.215	2.416	1465236	WORD	n/a	wordpools/wordpool_EN.txt	PIPE	7	22	[0, 0, 0]	n/a	FR1	0	R1074M
2917.631	2.367	1466444	WORD	n/a	wordpools/wordpool_EN.txt	HAND	8	22	[0, 0, 0]	n/a	FR1	0	R1074M
2919.998	2.417	1467627	WORD	n/a	wordpools/wordpool_EN.txt	SUIT	9	22	[0, 0, 0]	n/a	FR1	0	R1074M
2922.415	2.451	1468836	WORD	n/a	wordpools/wordpool_EN.txt	BOY	10	22	[0, 0, 0]	n/a	FR1	0	R1074M
2924.866	2.534	1470061	WORD	n/a	wordpools/wordpool_EN.txt	FLUTE	11	22	[0, 0, 0]	n/a	FR1	0	R1074M
2927.4	1.617	1471328	WORD	n/a	wordpools/wordpool_EN.txt	SHIRT	12	22	[0, 0, 0]	n/a	FR1	0	R1074M
2929.017	0.001	1472136	DISTRACT_START	n/a	n/a	n/a	-999	22	[0, 0, 0]	n/a	FR1	0	R1074M
2929.018	0.015	1472137	START	n/a	n/a	n/a	-999	22	[-999, -999, -999]	n/a	FR1	0	R1074M
2929.033	3.634	1472144	PROB	3.634	n/a	n/a	-999	22	[1, 1, 3]	5	FR1	0	R1074M
2932.667	17.621	1473961	PROB	17.621	n/a	n/a	-999	22	[9, 6, 9]	25	FR1	0	R1074M
2950.288	0.016	1482771	STOP	n/a	n/a	n/a	-999	22	[-999, -999, -999]	n/a	FR1	0	R1074M
2950.304	1.067	1482779	DISTRACT_END	n/a	n/a	n/a	-999	22	[0, 0, 0]	n/a	FR1	0	R1074M
2951.371	7.475	1483313	REC_START	n/a	n/a	n/a	-999	22	[0, 0, 0]	n/a	FR1	0	R1074M
2958.846	15.274	1487050	REC_WORD	15.274	n/a	SINK	-999	22	[0, 0, 0]	n/a	FR1	0	R1074M
2974.12	7.268	1494687	REC_WORD	7.268	n/a	HAND	-999	22	[0, 0, 0]	n/a	FR1	0	R1074M
2981.388	24.243	1498320	REC_END	n/a	n/a	n/a	-999	22	[0, 0, 0]	n/a	FR1	0	R1074M
3005.631	0.001	1510441	COUNTDOWN_START	n/a	n/a	n/a	-999	23	[0, 0, 0]	n/a	FR1	0	R1074M
3005.632	10.427	1510442	TRIAL	n/a	n/a	n/a	-999	23	[0, 0, 0]	n/a	FR1	0	R1074M
3016.059	0.008	1515655	COUNTDOWN_END	n/a	n/a	n/a	-999	23	[0, 0, 0]	n/a	FR1	0	R1074M
3016.067	2.617	1515659	ORIENT	n/a	n/a	n/a	-999	23	[0, 0, 0]	n/a	FR1	0	R1074M
3018.684	2.585	1516967	WORD	n/a	wordpools/wordpool_EN.txt	MILK	1	23	[0, 0, 0]	n/a	FR1	0	R1074M
3021.269	2.399	1518260	WORD	n/a	wordpools/wordpool_EN.txt	DIME	2	23	[0, 0, 0]	n/a	FR1	0	R1074M
3023.668	2.585	1519459	WORD	n/a	wordpools/wordpool_EN.txt	FOOD	3	23	[0, 0, 0]	n/a	FR1	0	R1074M
3026.253	2.533	1520752	WORD	n/a	wordpools/wordpool_EN.txt	OAR	4	23	[0, 0, 0]	n/a	FR1	0	R1074M
3028.786	2.451	1522018	WORD	n/a	wordpools/wordpool_EN.txt	HEART	5	23	[0, 0, 0]	n/a	FR1	0	R1074M
3031.237	2.617	1523244	WORD	n/a	wordpools/wordpool_EN.txt	CROWN	6	23	[0, 0, 0]	n/a	FR1	0	R1074M
3033.854	2.5	1524552	WORD	n/a	wordpools/wordpool_EN.txt	STEAK	7	23	[0, 0, 0]	n/a	FR1	0	R1074M
3036.354	2.484	1525802	WORD	n/a	wordpools/wordpool_EN.txt	TRAIN	8	23	[0, 0, 0]	n/a	FR1	0	R1074M
3038.838	2.567	1527044	WORD	n/a	wordpools/wordpool_EN.txt	LAMB	9	23	[0, 0, 0]	n/a	FR1	0	R1074M
3041.405	2.567	1528327	WORD	n/a	wordpools/wordpool_EN.txt	SMOKE	10	23	[0, 0, 0]	n/a	FR1	0	R1074M
3043.972	2.434	1529611	WORD	n/a	wordpools/wordpool_EN.txt	EGG	11	23	[0, 0, 0]	n/a	FR1	0	R1074M
3046.406	1.617	1530828	WORD	n/a	wordpools/wordpool_EN.txt	PLATE	12	23	[0, 0, 0]	n/a	FR1	0	R1074M
3048.023	0.001	1531636	DISTRACT_START	n/a	n/a	n/a	-999	23	[0, 0, 0]	n/a	FR1	0	R1074M
3048.024	0.016	1531637	START	n/a	n/a	n/a	-999	23	[-999, -999, -999]	n/a	FR1	0	R1074M
3048.04	5.517	1531645	PROB	5.517	n/a	n/a	-999	23	[1, 4, 4]	9	FR1	0	R1074M
3053.557	10.637	1534403	PROB	10.637	n/a	n/a	-999	23	[5, 9, 4]	18	FR1	0	R1074M
3064.194	8.694	1539721	PROB	8.694	n/a	n/a	-999	23	[4, 6, 3]	13	FR1	0	R1074M
3072.888	0.006	1544068	STOP	n/a	n/a	n/a	-999	23	[-999, -999, -999]	n/a	FR1	0	R1074M
3072.894	1.202	1544071	DISTRACT_END	n/a	n/a	n/a	-999	23	[0, 0, 0]	n/a	FR1	0	R1074M
3074.096	4.877	1544672	REC_START	n/a	n/a	n/a	-999	23	[0, 0, 0]	n/a	FR1	0	R1074M
3078.973	25.135	1547110	REC_WORD	25.135	n/a	SMOKE	-999	23	[0, 0, 0]	n/a	FR1	0	R1074M
3104.108	9.045	1559677	REC_END	n/a	n/a	n/a	-999	23	[0, 0, 0]	n/a	FR1	0	R1074M
3113.153	0.0	1564199	TRIAL	n/a	n/a	n/a	-999	24	[0, 0, 0]	n/a	FR1	0	R1074M
3113.153	10.428	1564199	COUNTDOWN_START	n/a	n/a	n/a	-999	24	[0, 0, 0]	n/a	FR1	0	R1074M
3123.581	0.007	1569413	COUNTDOWN_END	n/a	n/a	n/a	-999	24	[0, 0, 0]	n/a	FR1	0	R1074M
3123.588	2.417	1569416	ORIENT	n/a	n/a	n/a	-999	24	[0, 0, 0]	n/a	FR1	0	R1074M
3126.005	2.433	1570625	WORD	n/a	wordpools/wordpool_EN.txt	PEAR	1	24	[0, 0, 0]	n/a	FR1	0	R1074M
3128.438	2.434	1571841	WORD	n/a	wordpools/wordpool_EN.txt	POND	2	24	[0, 0, 0]	n/a	FR1	0	R1074M
3130.872	2.551	1573058	WORD	n/a	wordpools/wordpool_EN.txt	GLASS	3	24	[0, 0, 0]	n/a	FR1	0	R1074M
3133.423	2.534	1574334	WORD	n/a	wordpools/wordpool_EN.txt	SOAP	4	24	[0, 0, 0]	n/a	FR1	0	R1074M
3135.957	2.567	1575601	WORD	n/a	wordpools/wordpool_EN.txt	SPOON	5	24	[0, 0, 0]	n/a	FR1	0	R1074M
3138.524	2.417	1576884	WORD	n/a	wordpools/wordpool_EN.txt	SPONGE	6	24	[0, 0, 0]	n/a	FR1	0	R1074M
3140.941	2.634	1578092	WORD	n/a	wordpools/wordpool_EN.txt	GRAPE	7	24	[0, 0, 0]	n/a	FR1	0	R1074M
3143.575	2.467	1579409	WORD	n/a	wordpools/wordpool_EN.txt	SHRIMP	8	24	[0, 0, 0]	n/a	FR1	0	R1074M
3146.042	2.567	1580643	WORD	n/a	wordpools/wordpool_EN.txt	WORM	9	24	[0, 0, 0]	n/a	FR1	0	R1074M
3148.609	2.367	1581926	WORD	n/a	wordpools/wordpool_EN.txt	JAR	10	24	[0, 0, 0]	n/a	FR1	0	R1074M
3150.976	2.451	1583110	WORD	n/a	wordpools/wordpool_EN.txt	WORLD	11	24	[0, 0, 0]	n/a	FR1	0	R1074M
3153.427	1.617	1584335	WORD	n/a	wordpools/wordpool_EN.txt	PEACH	12	24	[0, 0, 0]	n/a	FR1	0	R1074M
3155.044	0.001	1585144	DISTRACT_START	n/a	n/a	n/a	-999	24	[0, 0, 0]	n/a	FR1	0	R1074M
3155.045	0.015	1585144	START	n/a	n/a	n/a	-999	24	[-999, -999, -999]	n/a	FR1	0	R1074M
3155.06	15.053	1585152	PROB	15.053	n/a	n/a	-999	24	[2, 6, 8]	16	FR1	0	R1074M
3170.113	12.919	1592678	PROB	12.919	n/a	n/a	-999	24	[9, 6, 8]	24	FR1	0	R1074M
3183.032	0.017	1599137	STOP	n/a	n/a	n/a	-999	24	[-999, -999, -999]	n/a	FR1	0	R1074M
3183.049	1.185	1599145	DISTRACT_END	n/a	n/a	n/a	-999	24	[0, 0, 0]	n/a	FR1	0	R1074M
3184.234	2.289	1599738	REC_START	n/a	n/a	n/a	-999	24	[0, 0, 0]	n/a	FR1	0	R1074M
3186.523	27.728	1600882	REC_WORD	27.728	n/a	POND	-999	24	[0, 0, 0]	n/a	FR1	0	R1074M
3214.251	8.007	1614745	REC_END	n/a	n/a	n/a	-999	24	[0, 0, 0]	n/a	FR1	0	R1074M
3222.258	0.0	1618749	TRIAL	n/a	n/a	n/a	-999	25	[0, 0, 0]	n/a	FR1	0	R1074M
3222.258	10.428	1618749	COUNTDOWN_START	n/a	n/a	n/a	-999	25	[0, 0, 0]	n/a	FR1	0	R1074M
3232.686	0.006	1623962	COUNTDOWN_END	n/a	n/a	n/a	-999	25	[0, 0, 0]	n/a	FR1	0	R1074M
3232.692	2.535	1623965	ORIENT	n/a	n/a	n/a	-999	25	[0, 0, 0]	n/a	FR1	0	R1074M
3235.227	2.466	1625233	WORD	n/a	wordpools/wordpool_EN.txt	STREET	1	25	[0, 0, 0]	n/a	FR1	0	R1074M
3237.693	2.435	1626466	WORD	n/a	wordpools/wordpool_EN.txt	PARK	2	25	[0, 0, 0]	n/a	FR1	0	R1074M
3240.128	2.433	1627683	WORD	n/a	wordpools/wordpool_EN.txt	CLOWN	3	25	[0, 0, 0]	n/a	FR1	0	R1074M
3242.561	2.467	1628900	WORD	n/a	wordpools/wordpool_EN.txt	TREE	4	25	[0, 0, 0]	n/a	FR1	0	R1074M
3245.028	2.4	1630133	WORD	n/a	wordpools/wordpool_EN.txt	BLOOM	5	25	[0, 0, 0]	n/a	FR1	0	R1074M
3247.428	2.451	1631333	WORD	n/a	wordpools/wordpool_EN.txt	VASE	6	25	[0, 0, 0]	n/a	FR1	0	R1074M
3249.879	2.45	1632558	WORD	n/a	wordpools/wordpool_EN.txt	HILL	7	25	[0, 0, 0]	n/a	FR1	0	R1074M
3252.329	2.517	1633783	WORD	n/a	wordpools/wordpool_EN.txt	PIE	8	25	[0, 0, 0]	n/a	FR1	0	R1074M
3254.846	2.601	1635042	WORD	n/a	wordpools/wordpool_EN.txt	BEE	9	25	[0, 0, 0]	n/a	FR1	0	R1074M
3257.447	2.55	1636342	WORD	n/a	wordpools/wordpool_EN.txt	JUICE	10	25	[0, 0, 0]	n/a	FR1	0	R1074M
3259.997	2.501	1637617	WORD	n/a	wordpools/wordpool_EN.txt	ELF	11	25	[0, 0, 0]	n/a	FR1	0	R1074M
3262.498	1.617	1638867	WORD	n/a	wordpools/wordpool_EN.txt	BREAD	12	25	[0, 0, 0]	n/a	FR1	0	R1074M
3264.115	0.001	1639676	DISTRACT_START	n/a	n/a	n/a	-999	25	[0, 0, 0]	n/a	FR1	0	R1074M
3264.116	0.016	1639676	START	n/a	n/a	n/a	-999	25	[-999, -999, -999]	n/a	FR1	0	R1074M
3264.132	6.035	1639684	PROB	6.035	n/a	n/a	-999	25	[5, 5, 7]	17	FR1	0	R1074M
3270.167	11.601	1642702	PROB	11.601	n/a	n/a	-999	25	[5, 9, 7]	21	FR1	0	R1074M
3281.768	10.584	1648502	PROB	10.584	n/a	n/a	-999	25	[6, 6, 8]	24	FR1	0	R1074M
3292.352	0.018	1653794	STOP	n/a	n/a	n/a	-999	25	[-999, -999, -999]	n/a	FR1	0	R1074M
3292.37	1.134	1653803	DISTRACT_END	n/a	n/a	n/a	-999	25	[0, 0, 0]	n/a	FR1	0	R1074M
3293.504	2.367	1654370	REC_START	n/a	n/a	n/a	-999	25	[0, 0, 0]	n/a	FR1	0	R1074M
3295.871	27.646	1655553	REC_WORD_VV	27.646	n/a	<>	-999	25	[0, 0, 0]	n/a	FR1	0	R1074M
3323.517	26.682	1669375	REC_END	n/a	n/a	n/a	-999	25	[0, 0, 0]	n/a	FR1	0	R1074M
3350.199	0.0	1682715	SESS_END	n/a	n/a	n/a	-999	25	[0, 0, 0]	n/a	FR1	0	R1074M
