onset	duration	sample	trial_type	response_time	stim_file	item_name	serialpos	list	test	answer	experiment	session	subject
0.0	20.749	404474	SESS_START	n/a	n/a	n/a	-999	-999	[0, 0, 0]	n/a	FR1	0	R1068J
20.749	10.428	425223	COUNTDOWN_START	n/a	n/a	n/a	-999	-999	[0, 0, 0]	n/a	FR1	0	R1068J
31.177	3.842	435650	COUNTDOWN_END	n/a	n/a	n/a	-999	-999	[0, 0, 0]	n/a	FR1	0	R1068J
35.019	2.567	439492	PRACTICE_WORD	n/a	n/a	WATCH	1	-1	[0, 0, 0]	n/a	FR1	0	R1068J
37.586	2.533	442059	PRACTICE_WORD	n/a	n/a	BEAM	2	-1	[0, 0, 0]	n/a	FR1	0	R1068J
40.119	2.583	444592	PRACTICE_WORD	n/a	n/a	WAGON	3	-1	[0, 0, 0]	n/a	FR1	0	R1068J
42.702	2.601	447175	PRACTICE_WORD	n/a	n/a	TONGUE	4	-1	[0, 0, 0]	n/a	FR1	0	R1068J
45.303	2.584	449776	PRACTICE_WORD	n/a	n/a	RHINO	5	-1	[0, 0, 0]	n/a	FR1	0	R1068J
47.887	2.534	452360	PRACTICE_WORD	n/a	n/a	CAMEL	6	-1	[0, 0, 0]	n/a	FR1	0	R1068J
50.421	2.45	454894	PRACTICE_WORD	n/a	n/a	CHEST	7	-1	[0, 0, 0]	n/a	FR1	0	R1068J
52.871	2.434	457344	PRACTICE_WORD	n/a	n/a	IRON	8	-1	[0, 0, 0]	n/a	FR1	0	R1068J
55.305	2.433	459778	PRACTICE_WORD	n/a	n/a	FLOOD	9	-1	[0, 0, 0]	n/a	FR1	0	R1068J
57.738	2.568	462211	PRACTICE_WORD	n/a	n/a	COTTON	10	-1	[0, 0, 0]	n/a	FR1	0	R1068J
60.306	2.5	464779	PRACTICE_WORD	n/a	n/a	ATTIC	11	-1	[0, 0, 0]	n/a	FR1	0	R1068J
62.806	1.617	467279	PRACTICE_WORD	n/a	n/a	RING	12	-1	[0, 0, 0]	n/a	FR1	0	R1068J
64.423	0.001	468896	PRACTICE_DISTRACT_START	n/a	n/a	n/a	-999	-1	[0, 0, 0]	n/a	FR1	0	R1068J
64.424	0.016	468897	START	n/a	n/a	n/a	-999	-1	[-999, -999, -999]	n/a	FR1	0	R1068J
64.44	11.368	468913	PROB	11.368	n/a	n/a	-999	-1	[3, 4, 4]	11	FR1	0	R1068J
75.808	4.15	480280	PROB	4.15	n/a	n/a	-999	-1	[7, 3, 2]	12	FR1	0	R1068J
79.958	5.871	484430	PROB	5.871	n/a	n/a	-999	-1	[7, 1, 2]	10	FR1	0	R1068J
85.829	0.014	490301	STOP	n/a	n/a	n/a	-999	-1	[-999, -999, -999]	n/a	FR1	0	R1068J
85.843	0.652	490315	PRACTICE_DISTRACT_END	n/a	n/a	n/a	-999	-1	[0, 0, 0]	n/a	FR1	0	R1068J
86.495	30.515	490967	PRACTICE_REC_START	n/a	n/a	n/a	-999	-1	[0, 0, 0]	n/a	FR1	0	R1068J
117.01	14.156	521482	PRACTICE_REC_END	n/a	n/a	n/a	-999	-1	[0, 0, 0]	n/a	FR1	0	R1068J
131.166	0.0	535637	TRIAL	n/a	n/a	n/a	-999	1	[0, 0, 0]	n/a	FR1	0	R1068J
131.166	10.428	535637	COUNTDOWN_START	n/a	n/a	n/a	-999	1	[0, 0, 0]	n/a	FR1	0	R1068J
141.594	0.007	546065	COUNTDOWN_END	n/a	n/a	n/a	-999	1	[0, 0, 0]	n/a	FR1	0	R1068J
141.601	2.584	546072	ORIENT	n/a	n/a	n/a	-999	1	[0, 0, 0]	n/a	FR1	0	R1068J
144.185	2.483	548656	WORD	n/a	wordpools/wordpool_EN.txt	BRUSH	1	1	[0, 0, 0]	n/a	FR1	0	R1068J
146.668	2.401	551139	WORD	n/a	wordpools/wordpool_EN.txt	MUD	2	1	[0, 0, 0]	n/a	FR1	0	R1068J
149.069	2.549	553540	WORD	n/a	wordpools/wordpool_EN.txt	PHONE	3	1	[0, 0, 0]	n/a	FR1	0	R1068J
151.618	2.435	556089	WORD	n/a	wordpools/wordpool_EN.txt	CHALK	4	1	[0, 0, 0]	n/a	FR1	0	R1068J
154.053	2.434	558524	WORD	n/a	wordpools/wordpool_EN.txt	SMOKE	5	1	[0, 0, 0]	n/a	FR1	0	R1068J
156.487	2.517	560958	WORD	n/a	wordpools/wordpool_EN.txt	BATH	6	1	[0, 0, 0]	n/a	FR1	0	R1068J
159.004	2.5	563475	WORD	n/a	wordpools/wordpool_EN.txt	FOAM	7	1	[0, 0, 0]	n/a	FR1	0	R1068J
161.504	2.534	565975	WORD	n/a	wordpools/wordpool_EN.txt	FROG	8	1	[0, 0, 0]	n/a	FR1	0	R1068J
164.038	2.533	568509	WORD	n/a	wordpools/wordpool_EN.txt	STRING	9	1	[0, 0, 0]	n/a	FR1	0	R1068J
166.571	2.467	571042	WORD	n/a	wordpools/wordpool_EN.txt	BOARD	10	1	[0, 0, 0]	n/a	FR1	0	R1068J
169.038	2.6	573509	WORD	n/a	wordpools/wordpool_EN.txt	PIE	11	1	[0, 0, 0]	n/a	FR1	0	R1068J
171.638	1.618	576109	WORD	n/a	wordpools/wordpool_EN.txt	TOOTH	12	1	[0, 0, 0]	n/a	FR1	0	R1068J
173.256	0.001	577727	DISTRACT_START	n/a	n/a	n/a	-999	1	[0, 0, 0]	n/a	FR1	0	R1068J
173.257	0.015	577728	START	n/a	n/a	n/a	-999	1	[-999, -999, -999]	n/a	FR1	0	R1068J
173.272	8.568	577743	PROB	8.568	n/a	n/a	-999	1	[7, 3, 9]	19	FR1	0	R1068J
181.84	5.468	586310	PROB	5.468	n/a	n/a	-999	1	[7, 4, 3]	14	FR1	0	R1068J
187.308	15.727	591778	PROB	15.727	n/a	n/a	-999	1	[3, 2, 2]	7	FR1	0	R1068J
203.035	0.008	607505	STOP	n/a	n/a	n/a	-999	1	[-999, -999, -999]	n/a	FR1	0	R1068J
203.043	1.235	607513	DISTRACT_END	n/a	n/a	n/a	-999	1	[0, 0, 0]	n/a	FR1	0	R1068J
204.278	2.504	608748	REC_START	n/a	n/a	n/a	-999	1	[0, 0, 0]	n/a	FR1	0	R1068J
206.782	1.986	611252	REC_WORD_VV	1.986	n/a	<>	-999	1	[0, 0, 0]	n/a	FR1	0	R1068J
208.768	0.93	613238	REC_WORD	0.93	n/a	BRUSH	1	1	[0, 0, 0]	n/a	FR1	0	R1068J
209.698	0.651	614168	REC_WORD	0.651	n/a	BOARD	10	1	[0, 0, 0]	n/a	FR1	0	R1068J
210.349	1.569	614819	REC_WORD	1.569	n/a	SPRING	-999	1	[0, 0, 0]	n/a	FR1	0	R1068J
211.918	1.241	616388	REC_WORD	1.241	n/a	FOG	-999	1	[0, 0, 0]	n/a	FR1	0	R1068J
213.159	3.433	617629	REC_WORD	3.433	n/a	MUD	2	1	[0, 0, 0]	n/a	FR1	0	R1068J
216.592	1.199	621062	REC_WORD_VV	1.199	n/a	<>	-999	1	[0, 0, 0]	n/a	FR1	0	R1068J
217.791	1.154	622261	REC_WORD	1.154	n/a	CHALK	4	1	[0, 0, 0]	n/a	FR1	0	R1068J
218.945	2.554	623415	REC_WORD	2.554	n/a	SMOKE	5	1	[0, 0, 0]	n/a	FR1	0	R1068J
221.499	3.715	625969	REC_WORD	3.715	n/a	PIE	11	1	[0, 0, 0]	n/a	FR1	0	R1068J
225.214	0.275	629683	REC_WORD_VV	0.275	n/a	<>	-999	1	[0, 0, 0]	n/a	FR1	0	R1068J
225.489	0.665	629958	REC_WORD	0.665	n/a	MUD	2	1	[0, 0, 0]	n/a	FR1	0	R1068J
226.154	5.707	630623	REC_WORD_VV	5.707	n/a	<>	-999	1	[0, 0, 0]	n/a	FR1	0	R1068J
231.861	0.43	636330	REC_WORD	0.43	n/a	CHALK	4	1	[0, 0, 0]	n/a	FR1	0	R1068J
232.291	0.302	636760	REC_WORD	0.302	n/a	BOARD	10	1	[0, 0, 0]	n/a	FR1	0	R1068J
232.593	1.289	637062	REC_WORD	1.289	n/a	SPRING	-999	1	[0, 0, 0]	n/a	FR1	0	R1068J
233.882	0.407	638351	REC_WORD	0.407	n/a	PIE	11	1	[0, 0, 0]	n/a	FR1	0	R1068J
234.289	19.795	638758	REC_END	n/a	n/a	n/a	-999	1	[0, 0, 0]	n/a	FR1	0	R1068J
254.084	0.0	658553	TRIAL	n/a	n/a	n/a	-999	2	[0, 0, 0]	n/a	FR1	0	R1068J
254.084	10.428	658553	COUNTDOWN_START	n/a	n/a	n/a	-999	2	[0, 0, 0]	n/a	FR1	0	R1068J
264.512	0.007	668981	COUNTDOWN_END	n/a	n/a	n/a	-999	2	[0, 0, 0]	n/a	FR1	0	R1068J
264.519	2.4	668988	ORIENT	n/a	n/a	n/a	-999	2	[0, 0, 0]	n/a	FR1	0	R1068J
266.919	2.568	671388	WORD	n/a	wordpools/wordpool_EN.txt	NET	1	2	[0, 0, 0]	n/a	FR1	0	R1068J
269.487	2.567	673956	WORD	n/a	wordpools/wordpool_EN.txt	MILK	2	2	[0, 0, 0]	n/a	FR1	0	R1068J
272.054	2.517	676522	WORD	n/a	wordpools/wordpool_EN.txt	CASH	3	2	[0, 0, 0]	n/a	FR1	0	R1068J
274.571	2.633	679039	WORD	n/a	wordpools/wordpool_EN.txt	GOLD	4	2	[0, 0, 0]	n/a	FR1	0	R1068J
277.204	2.45	681672	WORD	n/a	wordpools/wordpool_EN.txt	STEAK	5	2	[0, 0, 0]	n/a	FR1	0	R1068J
279.654	2.468	684122	WORD	n/a	wordpools/wordpool_EN.txt	GRAPE	6	2	[0, 0, 0]	n/a	FR1	0	R1068J
282.122	2.533	686590	WORD	n/a	wordpools/wordpool_EN.txt	CORN	7	2	[0, 0, 0]	n/a	FR1	0	R1068J
284.655	2.551	689123	WORD	n/a	wordpools/wordpool_EN.txt	CLOTH	8	2	[0, 0, 0]	n/a	FR1	0	R1068J
287.206	2.6	691674	WORD	n/a	wordpools/wordpool_EN.txt	FILM	9	2	[0, 0, 0]	n/a	FR1	0	R1068J
289.806	2.401	694274	WORD	n/a	wordpools/wordpool_EN.txt	PIG	10	2	[0, 0, 0]	n/a	FR1	0	R1068J
292.207	2.415	696675	WORD	n/a	wordpools/wordpool_EN.txt	BEAK	11	2	[0, 0, 0]	n/a	FR1	0	R1068J
294.622	1.601	699090	WORD	n/a	wordpools/wordpool_EN.txt	PEARL	12	2	[0, 0, 0]	n/a	FR1	0	R1068J
296.223	0.001	700691	DISTRACT_START	n/a	n/a	n/a	-999	2	[0, 0, 0]	n/a	FR1	0	R1068J
296.224	0.016	700692	START	n/a	n/a	n/a	-999	2	[-999, -999, -999]	n/a	FR1	0	R1068J
296.24	8.518	700708	PROB	8.518	n/a	n/a	-999	2	[1, 5, 9]	15	FR1	0	R1068J
304.758	24.762	709226	PROB	24.762	n/a	n/a	-999	2	[5, 8, 6]	19	FR1	0	R1068J
329.52	0.009	733987	STOP	n/a	n/a	n/a	-999	2	[-999, -999, -999]	n/a	FR1	0	R1068J
329.529	1.183	733996	DISTRACT_END	n/a	n/a	n/a	-999	2	[0, 0, 0]	n/a	FR1	0	R1068J
330.712	1.736	735179	REC_START	n/a	n/a	n/a	-999	2	[0, 0, 0]	n/a	FR1	0	R1068J
332.448	0.176	736915	REC_WORD_VV	0.176	n/a	<>	-999	2	[0, 0, 0]	n/a	FR1	0	R1068J
332.624	0.879	737091	REC_WORD	0.879	n/a	NET	1	2	[0, 0, 0]	n/a	FR1	0	R1068J
333.503	1.558	737970	REC_WORD	1.558	n/a	MILK	2	2	[0, 0, 0]	n/a	FR1	0	R1068J
335.061	0.97	739528	REC_WORD	0.97	n/a	CASH	3	2	[0, 0, 0]	n/a	FR1	0	R1068J
336.031	2.192	740498	REC_WORD	2.192	n/a	GOLD	4	2	[0, 0, 0]	n/a	FR1	0	R1068J
338.223	3.625	742690	REC_WORD	3.625	n/a	CORN	7	2	[0, 0, 0]	n/a	FR1	0	R1068J
341.848	4.331	746315	REC_WORD	4.331	n/a	STEAK	5	2	[0, 0, 0]	n/a	FR1	0	R1068J
346.179	1.0	750646	REC_WORD_VV	1.0	n/a	<>	-999	2	[0, 0, 0]	n/a	FR1	0	R1068J
347.179	7.669	751646	REC_WORD_VV	7.669	n/a	<>	-999	2	[0, 0, 0]	n/a	FR1	0	R1068J
354.848	0.353	759315	REC_WORD_VV	0.353	n/a	<>	-999	2	[0, 0, 0]	n/a	FR1	0	R1068J
355.201	5.171	759668	REC_WORD	5.171	n/a	MILK	2	2	[0, 0, 0]	n/a	FR1	0	R1068J
360.372	0.35	764839	REC_WORD	0.35	n/a	CROWN	-999	2	[0, 0, 0]	n/a	FR1	0	R1068J
360.722	6.129	765189	REC_END	n/a	n/a	n/a	-999	2	[0, 0, 0]	n/a	FR1	0	R1068J
366.851	0.0	771318	TRIAL	n/a	n/a	n/a	-999	3	[0, 0, 0]	n/a	FR1	0	R1068J
366.851	10.428	771318	COUNTDOWN_START	n/a	n/a	n/a	-999	3	[0, 0, 0]	n/a	FR1	0	R1068J
377.279	0.006	781745	COUNTDOWN_END	n/a	n/a	n/a	-999	3	[0, 0, 0]	n/a	FR1	0	R1068J
377.285	2.584	781751	ORIENT	n/a	n/a	n/a	-999	3	[0, 0, 0]	n/a	FR1	0	R1068J
379.869	2.617	784335	WORD	n/a	wordpools/wordpool_EN.txt	CLOCK	1	3	[0, 0, 0]	n/a	FR1	0	R1068J
382.486	2.417	786952	WORD	n/a	wordpools/wordpool_EN.txt	SPOON	2	3	[0, 0, 0]	n/a	FR1	0	R1068J
384.903	2.601	789369	WORD	n/a	wordpools/wordpool_EN.txt	SWORD	3	3	[0, 0, 0]	n/a	FR1	0	R1068J
387.504	2.434	791970	WORD	n/a	wordpools/wordpool_EN.txt	VAN	4	3	[0, 0, 0]	n/a	FR1	0	R1068J
389.938	2.567	794404	WORD	n/a	wordpools/wordpool_EN.txt	BOOK	5	3	[0, 0, 0]	n/a	FR1	0	R1068J
392.505	2.5	796971	WORD	n/a	wordpools/wordpool_EN.txt	ROOM	6	3	[0, 0, 0]	n/a	FR1	0	R1068J
395.005	2.467	799471	WORD	n/a	wordpools/wordpool_EN.txt	STREET	7	3	[0, 0, 0]	n/a	FR1	0	R1068J
397.472	2.584	801938	WORD	n/a	wordpools/wordpool_EN.txt	BLUSH	8	3	[0, 0, 0]	n/a	FR1	0	R1068J
400.056	2.616	804522	WORD	n/a	wordpools/wordpool_EN.txt	SOUP	9	3	[0, 0, 0]	n/a	FR1	0	R1068J
402.672	2.584	807138	WORD	n/a	wordpools/wordpool_EN.txt	TRUCK	10	3	[0, 0, 0]	n/a	FR1	0	R1068J
405.256	2.4	809722	WORD	n/a	wordpools/wordpool_EN.txt	GOAT	11	3	[0, 0, 0]	n/a	FR1	0	R1068J
407.656	1.618	812122	WORD	n/a	wordpools/wordpool_EN.txt	CART	12	3	[0, 0, 0]	n/a	FR1	0	R1068J
409.274	0.0	813740	DISTRACT_START	n/a	n/a	n/a	-999	3	[0, 0, 0]	n/a	FR1	0	R1068J
409.274	0.016	813740	START	n/a	n/a	n/a	-999	3	[-999, -999, -999]	n/a	FR1	0	R1068J
409.29	8.802	813756	PROB	8.802	n/a	n/a	-999	3	[6, 2, 7]	15	FR1	0	R1068J
418.092	4.9	822558	PROB	4.9	n/a	n/a	-999	3	[2, 2, 4]	8	FR1	0	R1068J
422.992	7.47	827457	PROB	7.47	n/a	n/a	-999	3	[5, 1, 2]	8	FR1	0	R1068J
430.462	0.015	834927	STOP	n/a	n/a	n/a	-999	3	[-999, -999, -999]	n/a	FR1	0	R1068J
430.477	1.134	834942	DISTRACT_END	n/a	n/a	n/a	-999	3	[0, 0, 0]	n/a	FR1	0	R1068J
431.611	0.993	836076	REC_START	n/a	n/a	n/a	-999	3	[0, 0, 0]	n/a	FR1	0	R1068J
432.604	1.0	837069	REC_WORD_VV	1.0	n/a	<>	-999	3	[0, 0, 0]	n/a	FR1	0	R1068J
433.604	1.0	838069	REC_WORD_VV	1.0	n/a	<>	-999	3	[0, 0, 0]	n/a	FR1	0	R1068J
434.604	9.011	839069	REC_WORD_VV	9.011	n/a	<>	-999	3	[0, 0, 0]	n/a	FR1	0	R1068J
443.615	0.275	848080	REC_WORD	0.275	n/a	CLOCK	1	3	[0, 0, 0]	n/a	FR1	0	R1068J
443.89	1.88	848355	REC_WORD	1.88	n/a	SOUP	9	3	[0, 0, 0]	n/a	FR1	0	R1068J
445.77	2.999	850235	REC_WORD	2.999	n/a	CANE	-999	3	[0, 0, 0]	n/a	FR1	0	R1068J
448.769	0.76	853234	REC_WORD_VV	0.76	n/a	<>	-999	3	[0, 0, 0]	n/a	FR1	0	R1068J
449.529	0.72	853994	REC_WORD	0.72	n/a	GOAT	11	3	[0, 0, 0]	n/a	FR1	0	R1068J
450.249	1.0	854714	REC_WORD_VV	1.0	n/a	<>	-999	3	[0, 0, 0]	n/a	FR1	0	R1068J
451.249	0.79	855714	REC_WORD_VV	0.79	n/a	<>	-999	3	[0, 0, 0]	n/a	FR1	0	R1068J
452.039	3.519	856504	REC_WORD	3.519	n/a	ROOM	6	3	[0, 0, 0]	n/a	FR1	0	R1068J
455.558	6.062	860023	REC_WORD_VV	6.062	n/a	<>	-999	3	[0, 0, 0]	n/a	FR1	0	R1068J
461.62	25.331	866085	REC_END	n/a	n/a	n/a	-999	3	[0, 0, 0]	n/a	FR1	0	R1068J
486.951	0.0	891415	TRIAL	n/a	n/a	n/a	-999	4	[0, 0, 0]	n/a	FR1	0	R1068J
486.951	10.428	891415	COUNTDOWN_START	n/a	n/a	n/a	-999	4	[0, 0, 0]	n/a	FR1	0	R1068J
497.379	0.007	901843	COUNTDOWN_END	n/a	n/a	n/a	-999	4	[0, 0, 0]	n/a	FR1	0	R1068J
497.386	2.501	901850	ORIENT	n/a	n/a	n/a	-999	4	[0, 0, 0]	n/a	FR1	0	R1068J
499.887	2.517	904351	WORD	n/a	wordpools/wordpool_EN.txt	ANT	1	4	[0, 0, 0]	n/a	FR1	0	R1068J
502.404	2.484	906868	WORD	n/a	wordpools/wordpool_EN.txt	RAT	2	4	[0, 0, 0]	n/a	FR1	0	R1068J
504.888	2.433	909352	WORD	n/a	wordpools/wordpool_EN.txt	PEAR	3	4	[0, 0, 0]	n/a	FR1	0	R1068J
507.321	2.501	911785	WORD	n/a	wordpools/wordpool_EN.txt	BRANCH	4	4	[0, 0, 0]	n/a	FR1	0	R1068J
509.822	2.633	914286	WORD	n/a	wordpools/wordpool_EN.txt	CAVE	5	4	[0, 0, 0]	n/a	FR1	0	R1068J
512.455	2.434	916919	WORD	n/a	wordpools/wordpool_EN.txt	MOLE	6	4	[0, 0, 0]	n/a	FR1	0	R1068J
514.889	2.5	919353	WORD	n/a	wordpools/wordpool_EN.txt	HEART	7	4	[0, 0, 0]	n/a	FR1	0	R1068J
517.389	2.601	921853	WORD	n/a	wordpools/wordpool_EN.txt	SLIME	8	4	[0, 0, 0]	n/a	FR1	0	R1068J
519.99	2.467	924453	WORD	n/a	wordpools/wordpool_EN.txt	FOOD	9	4	[0, 0, 0]	n/a	FR1	0	R1068J
522.457	2.467	926920	WORD	n/a	wordpools/wordpool_EN.txt	BEE	10	4	[0, 0, 0]	n/a	FR1	0	R1068J
524.924	2.55	929387	WORD	n/a	wordpools/wordpool_EN.txt	BED	11	4	[0, 0, 0]	n/a	FR1	0	R1068J
527.474	1.617	931937	WORD	n/a	wordpools/wordpool_EN.txt	PLANT	12	4	[0, 0, 0]	n/a	FR1	0	R1068J
529.091	0.001	933554	DISTRACT_START	n/a	n/a	n/a	-999	4	[0, 0, 0]	n/a	FR1	0	R1068J
529.092	0.016	933555	START	n/a	n/a	n/a	-999	4	[-999, -999, -999]	n/a	FR1	0	R1068J
529.108	3.017	933571	PROB	3.017	n/a	n/a	-999	4	[4, 1, 3]	8	FR1	0	R1068J
532.125	4.717	936588	PROB	4.717	n/a	n/a	-999	4	[2, 8, 6]	16	FR1	0	R1068J
536.842	4.284	941305	PROB	4.284	n/a	n/a	-999	4	[8, 8, 2]	18	FR1	0	R1068J
541.126	3.284	945589	PROB	3.284	n/a	n/a	-999	4	[6, 2, 8]	16	FR1	0	R1068J
544.41	6.473	948873	PROB	6.473	n/a	n/a	-999	4	[9, 9, 7]	25	FR1	0	R1068J
550.883	0.011	955346	STOP	n/a	n/a	n/a	-999	4	[-999, -999, -999]	n/a	FR1	0	R1068J
550.894	1.184	955357	DISTRACT_END	n/a	n/a	n/a	-999	4	[0, 0, 0]	n/a	FR1	0	R1068J
552.078	0.635	956541	REC_START	n/a	n/a	n/a	-999	4	[0, 0, 0]	n/a	FR1	0	R1068J
552.713	0.467	957176	REC_WORD_VV	0.467	n/a	<>	-999	4	[0, 0, 0]	n/a	FR1	0	R1068J
553.18	0.672	957643	REC_WORD	0.672	n/a	ANT	1	4	[0, 0, 0]	n/a	FR1	0	R1068J
553.852	1.433	958315	REC_WORD	1.433	n/a	RAT	2	4	[0, 0, 0]	n/a	FR1	0	R1068J
555.285	1.678	959748	REC_WORD	1.678	n/a	PEAR	3	4	[0, 0, 0]	n/a	FR1	0	R1068J
556.963	1.664	961426	REC_WORD	1.664	n/a	SLIME	8	4	[0, 0, 0]	n/a	FR1	0	R1068J
558.627	2.726	963090	REC_WORD	2.726	n/a	BRANCH	4	4	[0, 0, 0]	n/a	FR1	0	R1068J
561.353	0.83	965816	REC_WORD	0.83	n/a	PLANT	12	4	[0, 0, 0]	n/a	FR1	0	R1068J
562.183	0.391	966646	REC_WORD_VV	0.391	n/a	<>	-999	4	[0, 0, 0]	n/a	FR1	0	R1068J
562.574	5.76	967037	REC_WORD	5.76	n/a	PLANT	12	4	[0, 0, 0]	n/a	FR1	0	R1068J
568.334	2.038	972796	REC_WORD	2.038	n/a	BEE	10	4	[0, 0, 0]	n/a	FR1	0	R1068J
570.372	10.797	974834	REC_WORD	10.797	n/a	BED	11	4	[0, 0, 0]	n/a	FR1	0	R1068J
581.169	0.927	985631	REC_WORD_VV	0.927	n/a	<>	-999	4	[0, 0, 0]	n/a	FR1	0	R1068J
582.096	17.537	986558	REC_END	n/a	n/a	n/a	-999	4	[0, 0, 0]	n/a	FR1	0	R1068J
599.633	0.001	1004095	COUNTDOWN_START	n/a	n/a	n/a	-999	5	[0, 0, 0]	n/a	FR1	0	R1068J
599.634	10.427	1004096	TRIAL	n/a	n/a	n/a	-999	5	[0, 0, 0]	n/a	FR1	0	R1068J
610.061	0.008	1014523	COUNTDOWN_END	n/a	n/a	n/a	-999	5	[0, 0, 0]	n/a	FR1	0	R1068J
610.069	2.434	1014531	ORIENT	n/a	n/a	n/a	-999	5	[0, 0, 0]	n/a	FR1	0	R1068J
612.503	2.567	1016965	WORD	n/a	wordpools/wordpool_EN.txt	COW	1	5	[0, 0, 0]	n/a	FR1	0	R1068J
615.07	2.583	1019532	WORD	n/a	wordpools/wordpool_EN.txt	STAR	2	5	[0, 0, 0]	n/a	FR1	0	R1068J
617.653	2.584	1022114	WORD	n/a	wordpools/wordpool_EN.txt	HOUSE	3	5	[0, 0, 0]	n/a	FR1	0	R1068J
620.237	2.416	1024698	WORD	n/a	wordpools/wordpool_EN.txt	DRESS	4	5	[0, 0, 0]	n/a	FR1	0	R1068J
622.653	2.485	1027114	WORD	n/a	wordpools/wordpool_EN.txt	BRIDGE	5	5	[0, 0, 0]	n/a	FR1	0	R1068J
625.138	2.634	1029599	WORD	n/a	wordpools/wordpool_EN.txt	GATE	6	5	[0, 0, 0]	n/a	FR1	0	R1068J
627.772	2.584	1032233	WORD	n/a	wordpools/wordpool_EN.txt	STONE	7	5	[0, 0, 0]	n/a	FR1	0	R1068J
630.356	2.517	1034817	WORD	n/a	wordpools/wordpool_EN.txt	FOX	8	5	[0, 0, 0]	n/a	FR1	0	R1068J
632.873	2.55	1037334	WORD	n/a	wordpools/wordpool_EN.txt	TIE	9	5	[0, 0, 0]	n/a	FR1	0	R1068J
635.423	2.434	1039884	WORD	n/a	wordpools/wordpool_EN.txt	SKY	10	5	[0, 0, 0]	n/a	FR1	0	R1068J
637.857	2.434	1042318	WORD	n/a	wordpools/wordpool_EN.txt	PEA	11	5	[0, 0, 0]	n/a	FR1	0	R1068J
640.291	1.617	1044752	WORD	n/a	wordpools/wordpool_EN.txt	HILL	12	5	[0, 0, 0]	n/a	FR1	0	R1068J
641.908	0.001	1046369	DISTRACT_START	n/a	n/a	n/a	-999	5	[0, 0, 0]	n/a	FR1	0	R1068J
641.909	0.015	1046370	START	n/a	n/a	n/a	-999	5	[-999, -999, -999]	n/a	FR1	0	R1068J
641.924	22.14	1046385	PROB	22.14	n/a	n/a	-999	5	[6, 9, 9]	24	FR1	0	R1068J
664.064	0.013	1068525	STOP	n/a	n/a	n/a	-999	5	[-999, -999, -999]	n/a	FR1	0	R1068J
664.077	1.034	1068538	DISTRACT_END	n/a	n/a	n/a	-999	5	[0, 0, 0]	n/a	FR1	0	R1068J
665.111	1.529	1069571	REC_START	n/a	n/a	n/a	-999	5	[0, 0, 0]	n/a	FR1	0	R1068J
666.64	1.147	1071100	REC_WORD	1.147	n/a	COW	1	5	[0, 0, 0]	n/a	FR1	0	R1068J
667.787	2.998	1072247	REC_WORD	2.998	n/a	STONE	7	5	[0, 0, 0]	n/a	FR1	0	R1068J
670.785	4.04	1075245	REC_WORD	4.04	n/a	HOUSE	3	5	[0, 0, 0]	n/a	FR1	0	R1068J
674.825	12.784	1079285	REC_WORD_VV	12.784	n/a	<>	-999	5	[0, 0, 0]	n/a	FR1	0	R1068J
687.609	1.0	1092069	REC_WORD_VV	1.0	n/a	<>	-999	5	[0, 0, 0]	n/a	FR1	0	R1068J
688.609	1.0	1093069	REC_WORD_VV	1.0	n/a	<>	-999	5	[0, 0, 0]	n/a	FR1	0	R1068J
689.609	2.301	1094069	REC_WORD_VV	2.301	n/a	<>	-999	5	[0, 0, 0]	n/a	FR1	0	R1068J
691.91	3.217	1096370	REC_WORD_VV	3.217	n/a	<>	-999	5	[0, 0, 0]	n/a	FR1	0	R1068J
695.127	10.273	1099587	REC_END	n/a	n/a	n/a	-999	5	[0, 0, 0]	n/a	FR1	0	R1068J
705.4	0.0	1109860	TRIAL	n/a	n/a	n/a	-999	6	[0, 0, 0]	n/a	FR1	0	R1068J
705.4	10.428	1109860	COUNTDOWN_START	n/a	n/a	n/a	-999	6	[0, 0, 0]	n/a	FR1	0	R1068J
715.828	0.007	1120287	COUNTDOWN_END	n/a	n/a	n/a	-999	6	[0, 0, 0]	n/a	FR1	0	R1068J
715.835	2.517	1120294	ORIENT	n/a	n/a	n/a	-999	6	[0, 0, 0]	n/a	FR1	0	R1068J
718.352	2.567	1122811	WORD	n/a	wordpools/wordpool_EN.txt	CLAY	1	6	[0, 0, 0]	n/a	FR1	0	R1068J
720.919	2.567	1125378	WORD	n/a	wordpools/wordpool_EN.txt	INK	2	6	[0, 0, 0]	n/a	FR1	0	R1068J
723.486	2.417	1127945	WORD	n/a	wordpools/wordpool_EN.txt	CHIN	3	6	[0, 0, 0]	n/a	FR1	0	R1068J
725.903	2.517	1130362	WORD	n/a	wordpools/wordpool_EN.txt	BANK	4	6	[0, 0, 0]	n/a	FR1	0	R1068J
728.42	2.617	1132879	WORD	n/a	wordpools/wordpool_EN.txt	PEACH	5	6	[0, 0, 0]	n/a	FR1	0	R1068J
731.037	2.583	1135496	WORD	n/a	wordpools/wordpool_EN.txt	STOOL	6	6	[0, 0, 0]	n/a	FR1	0	R1068J
733.62	2.518	1138079	WORD	n/a	wordpools/wordpool_EN.txt	BENCH	7	6	[0, 0, 0]	n/a	FR1	0	R1068J
736.138	2.566	1140597	WORD	n/a	wordpools/wordpool_EN.txt	THREAD	8	6	[0, 0, 0]	n/a	FR1	0	R1068J
738.704	2.601	1143163	WORD	n/a	wordpools/wordpool_EN.txt	LAMP	9	6	[0, 0, 0]	n/a	FR1	0	R1068J
741.305	2.501	1145764	WORD	n/a	wordpools/wordpool_EN.txt	SOAP	10	6	[0, 0, 0]	n/a	FR1	0	R1068J
743.806	2.467	1148265	WORD	n/a	wordpools/wordpool_EN.txt	FLUTE	11	6	[0, 0, 0]	n/a	FR1	0	R1068J
746.273	1.617	1150732	WORD	n/a	wordpools/wordpool_EN.txt	PASTE	12	6	[0, 0, 0]	n/a	FR1	0	R1068J
747.89	0.0	1152349	DISTRACT_START	n/a	n/a	n/a	-999	6	[0, 0, 0]	n/a	FR1	0	R1068J
747.89	0.016	1152349	START	n/a	n/a	n/a	-999	6	[-999, -999, -999]	n/a	FR1	0	R1068J
747.906	10.552	1152365	PROB	10.552	n/a	n/a	-999	6	[3, 4, 4]	11	FR1	0	R1068J
758.458	10.476	1162917	PROB	10.476	n/a	n/a	-999	6	[6, 8, 9]	23	FR1	0	R1068J
768.934	0.009	1173392	STOP	n/a	n/a	n/a	-999	6	[-999, -999, -999]	n/a	FR1	0	R1068J
768.943	1.084	1173401	DISTRACT_END	n/a	n/a	n/a	-999	6	[0, 0, 0]	n/a	FR1	0	R1068J
770.027	1.058	1174485	REC_START	n/a	n/a	n/a	-999	6	[0, 0, 0]	n/a	FR1	0	R1068J
771.085	2.005	1175543	REC_WORD_VV	2.005	n/a	<>	-999	6	[0, 0, 0]	n/a	FR1	0	R1068J
773.09	0.837	1177548	REC_WORD	0.837	n/a	BENCH	7	6	[0, 0, 0]	n/a	FR1	0	R1068J
773.927	1.484	1178385	REC_WORD	1.484	n/a	THREAD	8	6	[0, 0, 0]	n/a	FR1	0	R1068J
775.411	1.76	1179869	REC_WORD	1.76	n/a	CLAY	1	6	[0, 0, 0]	n/a	FR1	0	R1068J
777.171	4.242	1181629	REC_WORD	4.242	n/a	INK	2	6	[0, 0, 0]	n/a	FR1	0	R1068J
781.413	9.917	1185871	REC_WORD	9.917	n/a	PEACH	5	6	[0, 0, 0]	n/a	FR1	0	R1068J
791.33	1.0	1195788	REC_WORD_VV	1.0	n/a	<>	-999	6	[0, 0, 0]	n/a	FR1	0	R1068J
792.33	1.0	1196788	REC_WORD_VV	1.0	n/a	<>	-999	6	[0, 0, 0]	n/a	FR1	0	R1068J
793.33	6.708	1197788	REC_WORD_VV	6.708	n/a	<>	-999	6	[0, 0, 0]	n/a	FR1	0	R1068J
800.038	17.812	1204496	REC_END	n/a	n/a	n/a	-999	6	[0, 0, 0]	n/a	FR1	0	R1068J
817.85	0.0	1222307	TRIAL	n/a	n/a	n/a	-999	7	[0, 0, 0]	n/a	FR1	0	R1068J
817.85	10.428	1222307	COUNTDOWN_START	n/a	n/a	n/a	-999	7	[0, 0, 0]	n/a	FR1	0	R1068J
828.278	0.007	1232735	COUNTDOWN_END	n/a	n/a	n/a	-999	7	[0, 0, 0]	n/a	FR1	0	R1068J
828.285	2.55	1232742	ORIENT	n/a	n/a	n/a	-999	7	[0, 0, 0]	n/a	FR1	0	R1068J
830.835	2.517	1235292	WORD	n/a	wordpools/wordpool_EN.txt	WOLF	1	7	[0, 0, 0]	n/a	FR1	0	R1068J
833.352	2.55	1237809	WORD	n/a	wordpools/wordpool_EN.txt	SHEEP	2	7	[0, 0, 0]	n/a	FR1	0	R1068J
835.902	2.617	1240359	WORD	n/a	wordpools/wordpool_EN.txt	RUG	3	7	[0, 0, 0]	n/a	FR1	0	R1068J
838.519	2.584	1242976	WORD	n/a	wordpools/wordpool_EN.txt	SPARK	4	7	[0, 0, 0]	n/a	FR1	0	R1068J
841.103	2.45	1245560	WORD	n/a	wordpools/wordpool_EN.txt	SUN	5	7	[0, 0, 0]	n/a	FR1	0	R1068J
843.553	2.534	1248010	WORD	n/a	wordpools/wordpool_EN.txt	CONE	6	7	[0, 0, 0]	n/a	FR1	0	R1068J
846.087	2.5	1250544	WORD	n/a	wordpools/wordpool_EN.txt	ICE	7	7	[0, 0, 0]	n/a	FR1	0	R1068J
848.587	2.634	1253044	WORD	n/a	wordpools/wordpool_EN.txt	WHALE	8	7	[0, 0, 0]	n/a	FR1	0	R1068J
851.221	2.5	1255678	WORD	n/a	wordpools/wordpool_EN.txt	NAIL	9	7	[0, 0, 0]	n/a	FR1	0	R1068J
853.721	2.584	1258178	WORD	n/a	wordpools/wordpool_EN.txt	CLIFF	10	7	[0, 0, 0]	n/a	FR1	0	R1068J
856.305	2.617	1260762	WORD	n/a	wordpools/wordpool_EN.txt	JEEP	11	7	[0, 0, 0]	n/a	FR1	0	R1068J
858.922	1.617	1263379	WORD	n/a	wordpools/wordpool_EN.txt	CROW	12	7	[0, 0, 0]	n/a	FR1	0	R1068J
860.539	0.001	1264996	DISTRACT_START	n/a	n/a	n/a	-999	7	[0, 0, 0]	n/a	FR1	0	R1068J
860.54	0.016	1264997	START	n/a	n/a	n/a	-999	7	[-999, -999, -999]	n/a	FR1	0	R1068J
860.556	6.668	1265013	PROB	6.668	n/a	n/a	-999	7	[8, 6, 1]	15	FR1	0	R1068J
867.224	4.35	1271680	PROB	4.35	n/a	n/a	-999	7	[9, 8, 1]	18	FR1	0	R1068J
871.574	2.434	1276030	PROB	2.434	n/a	n/a	-999	7	[7, 3, 1]	11	FR1	0	R1068J
874.008	3.967	1278464	PROB	3.967	n/a	n/a	-999	7	[2, 5, 7]	14	FR1	0	R1068J
877.975	10.643	1282431	PROB	10.643	n/a	n/a	-999	7	[7, 9, 6]	22	FR1	0	R1068J
888.618	0.008	1293074	STOP	n/a	n/a	n/a	-999	7	[-999, -999, -999]	n/a	FR1	0	R1068J
888.626	1.152	1293082	DISTRACT_END	n/a	n/a	n/a	-999	7	[0, 0, 0]	n/a	FR1	0	R1068J
889.778	1.327	1294234	REC_START	n/a	n/a	n/a	-999	7	[0, 0, 0]	n/a	FR1	0	R1068J
891.105	0.306	1295561	REC_WORD_VV	0.306	n/a	<>	-999	7	[0, 0, 0]	n/a	FR1	0	R1068J
891.411	0.537	1295867	REC_WORD	0.537	n/a	WOLF	1	7	[0, 0, 0]	n/a	FR1	0	R1068J
891.948	1.33	1296404	REC_WORD_VV	1.33	n/a	<>	-999	7	[0, 0, 0]	n/a	FR1	0	R1068J
893.278	2.55	1297734	REC_WORD	2.55	n/a	RUG	3	7	[0, 0, 0]	n/a	FR1	0	R1068J
895.828	0.449	1300284	REC_WORD	0.449	n/a	JEEP	11	7	[0, 0, 0]	n/a	FR1	0	R1068J
896.277	2.065	1300733	REC_WORD	2.065	n/a	CLIFF	10	7	[0, 0, 0]	n/a	FR1	0	R1068J
898.342	0.5	1302798	REC_WORD	0.5	n/a	ICE	7	7	[0, 0, 0]	n/a	FR1	0	R1068J
898.842	0.736	1303298	REC_WORD	0.736	n/a	CONE	6	7	[0, 0, 0]	n/a	FR1	0	R1068J
899.578	0.551	1304034	REC_WORD	0.551	n/a	WHALE	8	7	[0, 0, 0]	n/a	FR1	0	R1068J
900.129	2.759	1304585	REC_WORD	2.759	n/a	NAIL	9	7	[0, 0, 0]	n/a	FR1	0	R1068J
902.888	1.0	1307344	REC_WORD_VV	1.0	n/a	<>	-999	7	[0, 0, 0]	n/a	FR1	0	R1068J
903.888	1.155	1308344	REC_WORD_VV	1.155	n/a	<>	-999	7	[0, 0, 0]	n/a	FR1	0	R1068J
905.043	14.746	1309499	REC_WORD_VV	14.746	n/a	<>	-999	7	[0, 0, 0]	n/a	FR1	0	R1068J
919.789	61.751	1324244	REC_END	n/a	n/a	n/a	-999	7	[0, 0, 0]	n/a	FR1	0	R1068J
981.54	0.0	1385994	TRIAL	n/a	n/a	n/a	-999	8	[0, 0, 0]	n/a	FR1	0	R1068J
981.54	10.428	1385994	COUNTDOWN_START	n/a	n/a	n/a	-999	8	[0, 0, 0]	n/a	FR1	0	R1068J
991.968	0.007	1396422	COUNTDOWN_END	n/a	n/a	n/a	-999	8	[0, 0, 0]	n/a	FR1	0	R1068J
991.975	2.417	1396429	ORIENT	n/a	n/a	n/a	-999	8	[0, 0, 0]	n/a	FR1	0	R1068J
994.392	2.434	1398846	WORD	n/a	wordpools/wordpool_EN.txt	GLASS	1	8	[0, 0, 0]	n/a	FR1	0	R1068J
996.826	2.517	1401280	WORD	n/a	wordpools/wordpool_EN.txt	FOG	2	8	[0, 0, 0]	n/a	FR1	0	R1068J
999.343	2.584	1403797	WORD	n/a	wordpools/wordpool_EN.txt	TRAY	3	8	[0, 0, 0]	n/a	FR1	0	R1068J
1001.927	2.4	1406381	WORD	n/a	wordpools/wordpool_EN.txt	FUDGE	4	8	[0, 0, 0]	n/a	FR1	0	R1068J
1004.327	2.434	1408781	WORD	n/a	wordpools/wordpool_EN.txt	STEAM	5	8	[0, 0, 0]	n/a	FR1	0	R1068J
1006.761	2.6	1411215	WORD	n/a	wordpools/wordpool_EN.txt	JET	6	8	[0, 0, 0]	n/a	FR1	0	R1068J
1009.361	2.45	1413814	WORD	n/a	wordpools/wordpool_EN.txt	LAND	7	8	[0, 0, 0]	n/a	FR1	0	R1068J
1011.811	2.434	1416264	WORD	n/a	wordpools/wordpool_EN.txt	SALT	8	8	[0, 0, 0]	n/a	FR1	0	R1068J
1014.245	2.449	1418698	WORD	n/a	wordpools/wordpool_EN.txt	FLAME	9	8	[0, 0, 0]	n/a	FR1	0	R1068J
1016.694	2.402	1421147	WORD	n/a	wordpools/wordpool_EN.txt	CLOUD	10	8	[0, 0, 0]	n/a	FR1	0	R1068J
1019.096	2.549	1423549	WORD	n/a	wordpools/wordpool_EN.txt	SHIP	11	8	[0, 0, 0]	n/a	FR1	0	R1068J
1021.645	1.601	1426098	WORD	n/a	wordpools/wordpool_EN.txt	SPONGE	12	8	[0, 0, 0]	n/a	FR1	0	R1068J
1023.246	0.001	1427699	DISTRACT_START	n/a	n/a	n/a	-999	8	[0, 0, 0]	n/a	FR1	0	R1068J
1023.247	0.016	1427700	START	n/a	n/a	n/a	-999	8	[-999, -999, -999]	n/a	FR1	0	R1068J
1023.263	14.902	1427716	PROB	14.902	n/a	n/a	-999	8	[8, 4, 9]	21	FR1	0	R1068J
1038.165	15.018	1442618	PROB	15.018	n/a	n/a	-999	8	[8, 9, 2]	29	FR1	0	R1068J
1053.183	0.018	1457636	STOP	n/a	n/a	n/a	-999	8	[-999, -999, -999]	n/a	FR1	0	R1068J
1053.201	1.101	1457654	DISTRACT_END	n/a	n/a	n/a	-999	8	[0, 0, 0]	n/a	FR1	0	R1068J
1054.302	2.015	1458755	REC_START	n/a	n/a	n/a	-999	8	[0, 0, 0]	n/a	FR1	0	R1068J
1056.317	0.404	1460770	REC_WORD_VV	0.404	n/a	<>	-999	8	[0, 0, 0]	n/a	FR1	0	R1068J
1056.721	1.44	1461174	REC_WORD	1.44	n/a	JET	6	8	[0, 0, 0]	n/a	FR1	0	R1068J
1058.161	2.896	1462613	REC_WORD	2.896	n/a	FROG	-999	8	[0, 0, 0]	n/a	FR1	0	R1068J
1061.057	1.291	1465509	REC_WORD_VV	1.291	n/a	<>	-999	8	[0, 0, 0]	n/a	FR1	0	R1068J
1062.348	3.301	1466800	REC_WORD	3.301	n/a	CLOUD	10	8	[0, 0, 0]	n/a	FR1	0	R1068J
1065.649	1.0	1470101	REC_WORD_VV	1.0	n/a	<>	-999	8	[0, 0, 0]	n/a	FR1	0	R1068J
1066.649	2.846	1471101	REC_WORD_VV	2.846	n/a	<>	-999	8	[0, 0, 0]	n/a	FR1	0	R1068J
1069.495	1.834	1473947	REC_WORD	1.834	n/a	PLANE	-999	8	[0, 0, 0]	n/a	FR1	0	R1068J
1071.329	1.494	1475781	REC_WORD	1.494	n/a	STEAM	5	8	[0, 0, 0]	n/a	FR1	0	R1068J
1072.823	0.712	1477275	REC_WORD	0.712	n/a	FUDGE	4	8	[0, 0, 0]	n/a	FR1	0	R1068J
1073.535	0.551	1477987	REC_WORD	0.551	n/a	TRAY	3	8	[0, 0, 0]	n/a	FR1	0	R1068J
1074.086	2.358	1478538	REC_WORD	2.358	n/a	GLASS	1	8	[0, 0, 0]	n/a	FR1	0	R1068J
1076.444	0.516	1480896	REC_WORD_VV	0.516	n/a	<>	-999	8	[0, 0, 0]	n/a	FR1	0	R1068J
1076.96	0.38	1481412	REC_WORD_VV	0.38	n/a	<>	-999	8	[0, 0, 0]	n/a	FR1	0	R1068J
1077.34	1.649	1481792	REC_WORD	1.649	n/a	STEAM	5	8	[0, 0, 0]	n/a	FR1	0	R1068J
1078.989	1.682	1483441	REC_WORD_VV	1.682	n/a	<>	-999	8	[0, 0, 0]	n/a	FR1	0	R1068J
1080.671	0.296	1485123	REC_WORD	0.296	n/a	TRAY	3	8	[0, 0, 0]	n/a	FR1	0	R1068J
1080.967	1.905	1485419	REC_WORD	1.905	n/a	GLASS	1	8	[0, 0, 0]	n/a	FR1	0	R1068J
1082.872	0.486	1487324	REC_WORD_VV	0.486	n/a	<>	-999	8	[0, 0, 0]	n/a	FR1	0	R1068J
1083.358	0.296	1487810	REC_WORD	0.296	n/a	FOG	2	8	[0, 0, 0]	n/a	FR1	0	R1068J
1083.654	0.659	1488106	REC_WORD_VV	0.659	n/a	<>	-999	8	[0, 0, 0]	n/a	FR1	0	R1068J
1084.313	8.743	1488765	REC_END	n/a	n/a	n/a	-999	8	[0, 0, 0]	n/a	FR1	0	R1068J
1093.056	0.001	1497508	COUNTDOWN_START	n/a	n/a	n/a	-999	9	[0, 0, 0]	n/a	FR1	0	R1068J
1093.057	10.427	1497509	TRIAL	n/a	n/a	n/a	-999	9	[0, 0, 0]	n/a	FR1	0	R1068J
1103.484	0.007	1507936	COUNTDOWN_END	n/a	n/a	n/a	-999	9	[0, 0, 0]	n/a	FR1	0	R1068J
1103.491	2.484	1507943	ORIENT	n/a	n/a	n/a	-999	9	[0, 0, 0]	n/a	FR1	0	R1068J
1105.975	2.534	1510427	WORD	n/a	wordpools/wordpool_EN.txt	POLE	1	9	[0, 0, 0]	n/a	FR1	0	R1068J
1108.509	2.467	1512960	WORD	n/a	wordpools/wordpool_EN.txt	HORSE	2	9	[0, 0, 0]	n/a	FR1	0	R1068J
1110.976	2.434	1515427	WORD	n/a	wordpools/wordpool_EN.txt	BALL	3	9	[0, 0, 0]	n/a	FR1	0	R1068J
1113.41	2.583	1517861	WORD	n/a	wordpools/wordpool_EN.txt	APE	4	9	[0, 0, 0]	n/a	FR1	0	R1068J
1115.993	2.633	1520444	WORD	n/a	wordpools/wordpool_EN.txt	CORD	5	9	[0, 0, 0]	n/a	FR1	0	R1068J
1118.626	2.501	1523077	WORD	n/a	wordpools/wordpool_EN.txt	MAP	6	9	[0, 0, 0]	n/a	FR1	0	R1068J
1121.127	2.55	1525578	WORD	n/a	wordpools/wordpool_EN.txt	MAIL	7	9	[0, 0, 0]	n/a	FR1	0	R1068J
1123.677	2.601	1528128	WORD	n/a	wordpools/wordpool_EN.txt	TOAD	8	9	[0, 0, 0]	n/a	FR1	0	R1068J
1126.278	2.5	1530729	WORD	n/a	wordpools/wordpool_EN.txt	TEETH	9	9	[0, 0, 0]	n/a	FR1	0	R1068J
1128.778	2.534	1533229	WORD	n/a	wordpools/wordpool_EN.txt	BEAR	10	9	[0, 0, 0]	n/a	FR1	0	R1068J
1131.312	2.5	1535763	WORD	n/a	wordpools/wordpool_EN.txt	CAT	11	9	[0, 0, 0]	n/a	FR1	0	R1068J
1133.812	1.617	1538263	WORD	n/a	wordpools/wordpool_EN.txt	JUDGE	12	9	[0, 0, 0]	n/a	FR1	0	R1068J
1135.429	0.001	1539880	DISTRACT_START	n/a	n/a	n/a	-999	9	[0, 0, 0]	n/a	FR1	0	R1068J
1135.43	0.016	1539881	START	n/a	n/a	n/a	-999	9	[-999, -999, -999]	n/a	FR1	0	R1068J
1135.446	5.151	1539897	PROB	5.151	n/a	n/a	-999	9	[9, 1, 6]	16	FR1	0	R1068J
1140.597	3.667	1545048	PROB	3.667	n/a	n/a	-999	9	[5, 7, 3]	15	FR1	0	R1068J
1144.264	3.584	1548715	PROB	3.584	n/a	n/a	-999	9	[5, 9, 5]	19	FR1	0	R1068J
1147.848	3.734	1552299	PROB	3.734	n/a	n/a	-999	9	[7, 1, 7]	15	FR1	0	R1068J
1151.582	4.51	1556033	PROB	4.51	n/a	n/a	-999	9	[9, 1, 7]	17	FR1	0	R1068J
1156.092	0.007	1560542	STOP	n/a	n/a	n/a	-999	9	[-999, -999, -999]	n/a	FR1	0	R1068J
1156.099	1.168	1560549	DISTRACT_END	n/a	n/a	n/a	-999	9	[0, 0, 0]	n/a	FR1	0	R1068J
1157.267	1.029	1561717	REC_START	n/a	n/a	n/a	-999	9	[0, 0, 0]	n/a	FR1	0	R1068J
1158.296	2.072	1562746	REC_WORD_VV	2.072	n/a	<>	-999	9	[0, 0, 0]	n/a	FR1	0	R1068J
1160.368	1.7	1564818	REC_WORD	1.7	n/a	CAT	11	9	[0, 0, 0]	n/a	FR1	0	R1068J
1162.068	2.004	1566518	REC_WORD	2.004	n/a	HORSE	2	9	[0, 0, 0]	n/a	FR1	0	R1068J
1164.072	3.631	1568522	REC_WORD	3.631	n/a	APE	4	9	[0, 0, 0]	n/a	FR1	0	R1068J
1167.703	2.21	1572153	REC_WORD	2.21	n/a	POLE	1	9	[0, 0, 0]	n/a	FR1	0	R1068J
1169.913	3.412	1574363	REC_WORD	3.412	n/a	MAIL	7	9	[0, 0, 0]	n/a	FR1	0	R1068J
1173.325	3.496	1577775	REC_WORD	3.496	n/a	MAP	6	9	[0, 0, 0]	n/a	FR1	0	R1068J
1176.821	2.098	1581271	REC_WORD_VV	2.098	n/a	<>	-999	9	[0, 0, 0]	n/a	FR1	0	R1068J
1178.919	3.13	1583369	REC_WORD	3.13	n/a	JUDGE	12	9	[0, 0, 0]	n/a	FR1	0	R1068J
1182.049	5.228	1586499	REC_WORD_VV	5.228	n/a	<>	-999	9	[0, 0, 0]	n/a	FR1	0	R1068J
1187.277	21.412	1591727	REC_END	n/a	n/a	n/a	-999	9	[0, 0, 0]	n/a	FR1	0	R1068J
1208.689	0.0	1613138	TRIAL	n/a	n/a	n/a	-999	10	[0, 0, 0]	n/a	FR1	0	R1068J
1208.689	10.428	1613138	COUNTDOWN_START	n/a	n/a	n/a	-999	10	[0, 0, 0]	n/a	FR1	0	R1068J
1219.117	0.008	1623566	COUNTDOWN_END	n/a	n/a	n/a	-999	10	[0, 0, 0]	n/a	FR1	0	R1068J
1219.125	2.483	1623574	ORIENT	n/a	n/a	n/a	-999	10	[0, 0, 0]	n/a	FR1	0	R1068J
1221.608	2.434	1626057	WORD	n/a	wordpools/wordpool_EN.txt	POND	1	10	[0, 0, 0]	n/a	FR1	0	R1068J
1224.042	2.567	1628491	WORD	n/a	wordpools/wordpool_EN.txt	STRAW	2	10	[0, 0, 0]	n/a	FR1	0	R1068J
1226.609	2.567	1631058	WORD	n/a	wordpools/wordpool_EN.txt	SLUSH	3	10	[0, 0, 0]	n/a	FR1	0	R1068J
1229.176	2.516	1633625	WORD	n/a	wordpools/wordpool_EN.txt	CAGE	4	10	[0, 0, 0]	n/a	FR1	0	R1068J
1231.692	2.369	1636141	WORD	n/a	wordpools/wordpool_EN.txt	VASE	5	10	[0, 0, 0]	n/a	FR1	0	R1068J
1234.061	2.399	1638510	WORD	n/a	wordpools/wordpool_EN.txt	SINK	6	10	[0, 0, 0]	n/a	FR1	0	R1068J
1236.46	2.451	1640909	WORD	n/a	wordpools/wordpool_EN.txt	JAR	7	10	[0, 0, 0]	n/a	FR1	0	R1068J
1238.911	2.484	1643360	WORD	n/a	wordpools/wordpool_EN.txt	SEAL	8	10	[0, 0, 0]	n/a	FR1	0	R1068J
1241.395	2.467	1645844	WORD	n/a	wordpools/wordpool_EN.txt	GEESE	9	10	[0, 0, 0]	n/a	FR1	0	R1068J
1243.862	2.55	1648311	WORD	n/a	wordpools/wordpool_EN.txt	HAT	10	10	[0, 0, 0]	n/a	FR1	0	R1068J
1246.412	2.417	1650861	WORD	n/a	wordpools/wordpool_EN.txt	BOX	11	10	[0, 0, 0]	n/a	FR1	0	R1068J
1248.829	1.617	1653278	WORD	n/a	wordpools/wordpool_EN.txt	PET	12	10	[0, 0, 0]	n/a	FR1	0	R1068J
1250.446	0.001	1654895	DISTRACT_START	n/a	n/a	n/a	-999	10	[0, 0, 0]	n/a	FR1	0	R1068J
1250.447	0.016	1654896	START	n/a	n/a	n/a	-999	10	[-999, -999, -999]	n/a	FR1	0	R1068J
1250.463	7.034	1654912	PROB	7.034	n/a	n/a	-999	10	[8, 1, 7]	16	FR1	0	R1068J
1257.497	8.618	1661945	PROB	8.618	n/a	n/a	-999	10	[4, 9, 9]	22	FR1	0	R1068J
1266.115	4.743	1670563	PROB	4.743	n/a	n/a	-999	10	[4, 8, 7]	19	FR1	0	R1068J
1270.858	0.008	1675306	STOP	n/a	n/a	n/a	-999	10	[-999, -999, -999]	n/a	FR1	0	R1068J
1270.866	1.134	1675314	DISTRACT_END	n/a	n/a	n/a	-999	10	[0, 0, 0]	n/a	FR1	0	R1068J
1272.0	1.793	1676448	REC_START	n/a	n/a	n/a	-999	10	[0, 0, 0]	n/a	FR1	0	R1068J
1273.793	0.316	1678241	REC_WORD_VV	0.316	n/a	<>	-999	10	[0, 0, 0]	n/a	FR1	0	R1068J
1274.109	1.017	1678557	REC_WORD	1.017	n/a	POND	1	10	[0, 0, 0]	n/a	FR1	0	R1068J
1275.126	1.023	1679574	REC_WORD	1.023	n/a	CAGE	4	10	[0, 0, 0]	n/a	FR1	0	R1068J
1276.149	1.127	1680597	REC_WORD	1.127	n/a	HAT	10	10	[0, 0, 0]	n/a	FR1	0	R1068J
1277.276	2.065	1681724	REC_WORD	2.065	n/a	BOX	11	10	[0, 0, 0]	n/a	FR1	0	R1068J
1279.341	0.858	1683789	REC_WORD	0.858	n/a	PET	12	10	[0, 0, 0]	n/a	FR1	0	R1068J
1280.199	11.409	1684647	REC_WORD	11.409	n/a	STRAW	2	10	[0, 0, 0]	n/a	FR1	0	R1068J
1291.608	10.403	1696056	REC_WORD_VV	10.403	n/a	<>	-999	10	[0, 0, 0]	n/a	FR1	0	R1068J
1302.011	11.194	1706459	REC_END	n/a	n/a	n/a	-999	10	[0, 0, 0]	n/a	FR1	0	R1068J
1313.205	0.0	1717652	TRIAL	n/a	n/a	n/a	-999	11	[0, 0, 0]	n/a	FR1	0	R1068J
1313.205	10.428	1717652	COUNTDOWN_START	n/a	n/a	n/a	-999	11	[0, 0, 0]	n/a	FR1	0	R1068J
1323.633	0.006	1728080	COUNTDOWN_END	n/a	n/a	n/a	-999	11	[0, 0, 0]	n/a	FR1	0	R1068J
1323.639	2.435	1728086	ORIENT	n/a	n/a	n/a	-999	11	[0, 0, 0]	n/a	FR1	0	R1068J
1326.074	2.582	1730521	WORD	n/a	wordpools/wordpool_EN.txt	SLEEVE	1	11	[0, 0, 0]	n/a	FR1	0	R1068J
1328.656	2.385	1733103	WORD	n/a	wordpools/wordpool_EN.txt	DITCH	2	11	[0, 0, 0]	n/a	FR1	0	R1068J
1331.041	2.4	1735488	WORD	n/a	wordpools/wordpool_EN.txt	VINE	3	11	[0, 0, 0]	n/a	FR1	0	R1068J
1333.441	2.501	1737888	WORD	n/a	wordpools/wordpool_EN.txt	BUSH	4	11	[0, 0, 0]	n/a	FR1	0	R1068J
1335.942	2.4	1740389	WORD	n/a	wordpools/wordpool_EN.txt	SNAIL	5	11	[0, 0, 0]	n/a	FR1	0	R1068J
1338.342	2.467	1742789	WORD	n/a	wordpools/wordpool_EN.txt	WHEEL	6	11	[0, 0, 0]	n/a	FR1	0	R1068J
1340.809	2.467	1745256	WORD	n/a	wordpools/wordpool_EN.txt	BIRD	7	11	[0, 0, 0]	n/a	FR1	0	R1068J
1343.276	2.466	1747723	WORD	n/a	wordpools/wordpool_EN.txt	EAR	8	11	[0, 0, 0]	n/a	FR1	0	R1068J
1345.742	2.368	1750189	WORD	n/a	wordpools/wordpool_EN.txt	SWAMP	9	11	[0, 0, 0]	n/a	FR1	0	R1068J
1348.11	2.616	1752557	WORD	n/a	wordpools/wordpool_EN.txt	HOLE	10	11	[0, 0, 0]	n/a	FR1	0	R1068J
1350.726	2.369	1755173	WORD	n/a	wordpools/wordpool_EN.txt	EEL	11	11	[0, 0, 0]	n/a	FR1	0	R1068J
1353.095	1.615	1757541	WORD	n/a	wordpools/wordpool_EN.txt	CRANE	12	11	[0, 0, 0]	n/a	FR1	0	R1068J
1354.71	0.001	1759156	DISTRACT_START	n/a	n/a	n/a	-999	11	[0, 0, 0]	n/a	FR1	0	R1068J
1354.711	0.016	1759157	START	n/a	n/a	n/a	-999	11	[-999, -999, -999]	n/a	FR1	0	R1068J
1354.727	9.702	1759173	PROB	9.702	n/a	n/a	-999	11	[9, 1, 6]	16	FR1	0	R1068J
1364.429	6.518	1768875	PROB	6.518	n/a	n/a	-999	11	[3, 4, 9]	16	FR1	0	R1068J
1370.947	4.957	1775393	PROB	4.957	n/a	n/a	-999	11	[2, 2, 3]	7	FR1	0	R1068J
1375.904	0.01	1780350	STOP	n/a	n/a	n/a	-999	11	[-999, -999, -999]	n/a	FR1	0	R1068J
1375.914	1.218	1780360	DISTRACT_END	n/a	n/a	n/a	-999	11	[0, 0, 0]	n/a	FR1	0	R1068J
1377.132	0.878	1781578	REC_START	n/a	n/a	n/a	-999	11	[0, 0, 0]	n/a	FR1	0	R1068J
1378.01	1.126	1782456	REC_WORD_VV	1.126	n/a	<>	-999	11	[0, 0, 0]	n/a	FR1	0	R1068J
1379.136	1.353	1783582	REC_WORD	1.353	n/a	WHEEL	6	11	[0, 0, 0]	n/a	FR1	0	R1068J
1380.489	2.085	1784935	REC_WORD	2.085	n/a	BIRD	7	11	[0, 0, 0]	n/a	FR1	0	R1068J
1382.574	0.46	1787020	REC_WORD	0.46	n/a	EEL	11	11	[0, 0, 0]	n/a	FR1	0	R1068J
1383.034	4.23	1787480	REC_WORD	4.23	n/a	SWAMP	9	11	[0, 0, 0]	n/a	FR1	0	R1068J
1387.264	7.043	1791710	REC_WORD_VV	7.043	n/a	<>	-999	11	[0, 0, 0]	n/a	FR1	0	R1068J
1394.307	1.0	1798753	REC_WORD_VV	1.0	n/a	<>	-999	11	[0, 0, 0]	n/a	FR1	0	R1068J
1395.307	1.0	1799753	REC_WORD_VV	1.0	n/a	<>	-999	11	[0, 0, 0]	n/a	FR1	0	R1068J
1396.307	1.0	1800753	REC_WORD_VV	1.0	n/a	<>	-999	11	[0, 0, 0]	n/a	FR1	0	R1068J
1397.307	1.0	1801753	REC_WORD_VV	1.0	n/a	<>	-999	11	[0, 0, 0]	n/a	FR1	0	R1068J
1398.307	1.0	1802753	REC_WORD_VV	1.0	n/a	<>	-999	11	[0, 0, 0]	n/a	FR1	0	R1068J
1399.307	1.614	1803753	REC_WORD_VV	1.614	n/a	<>	-999	11	[0, 0, 0]	n/a	FR1	0	R1068J
1400.921	0.899	1805367	REC_WORD_VV	0.899	n/a	<>	-999	11	[0, 0, 0]	n/a	FR1	0	R1068J
1401.82	0.346	1806265	REC_WORD	0.346	n/a	WHEEL	6	11	[0, 0, 0]	n/a	FR1	0	R1068J
1402.166	0.76	1806611	REC_WORD	0.76	n/a	BIRD	7	11	[0, 0, 0]	n/a	FR1	0	R1068J
1402.926	1.0	1807371	REC_WORD_VV	1.0	n/a	<>	-999	11	[0, 0, 0]	n/a	FR1	0	R1068J
1403.926	1.28	1808371	REC_WORD_VV	1.28	n/a	<>	-999	11	[0, 0, 0]	n/a	FR1	0	R1068J
1405.206	1.937	1809651	REC_WORD_VV	1.937	n/a	<>	-999	11	[0, 0, 0]	n/a	FR1	0	R1068J
1407.143	36.731	1811588	REC_END	n/a	n/a	n/a	-999	11	[0, 0, 0]	n/a	FR1	0	R1068J
1443.874	0.0	1848319	TRIAL	n/a	n/a	n/a	-999	12	[0, 0, 0]	n/a	FR1	0	R1068J
1443.874	0.0	1848319	COUNTDOWN_START	n/a	n/a	n/a	-999	12	[0, 0, 0]	n/a	FR1	0	R1068J
