onset	duration	sample	trial_type	response_time	stim_file	item_name	serialpos	list	test	answer	experiment	session	subject
0.0	0.315	107710	INSTRUCT_START	n/a	n/a	n/a	-999	-999	[0, 0, 0]	n/a	FR1	2	R1347D
0.315	16.083	108026	INSTRUCT_END	n/a	n/a	n/a	-999	-999	[0, 0, 0]	n/a	FR1	2	R1347D
16.398	0.567	124112	COUNTDOWN_START	n/a	n/a	n/a	-999	-999	[0, 0, 0]	n/a	FR1	2	R1347D
16.965	0.001	124676	COUNTDOWN_END	n/a	n/a	n/a	-999	-999	[0, 0, 0]	n/a	FR1	2	R1347D
16.966	1.949	124676	ENCODING_START	n/a	n/a	n/a	-999	-1	[0, 0, 0]	n/a	FR1	2	R1347D
18.915	1.6	126626	WORD	n/a	n/a	TONGUE	1	-1	[0, 0, 0]	n/a	FR1	2	R1347D
20.515	0.832	128227	WORD_OFF	n/a	n/a	TONGUE	1	-1	[0, 0, 0]	n/a	FR1	2	R1347D
21.347	1.601	129061	WORD	n/a	n/a	WATCH	2	-1	[0, 0, 0]	n/a	FR1	2	R1347D
22.948	0.932	130662	WORD_OFF	n/a	n/a	WATCH	2	-1	[0, 0, 0]	n/a	FR1	2	R1347D
23.88	1.601	131586	WORD	n/a	n/a	IMAGE	3	-1	[0, 0, 0]	n/a	FR1	2	R1347D
25.481	0.8	133187	WORD_OFF	n/a	n/a	IMAGE	3	-1	[0, 0, 0]	n/a	FR1	2	R1347D
26.281	1.616	133987	WORD	n/a	n/a	CAMEL	4	-1	[0, 0, 0]	n/a	FR1	2	R1347D
27.897	0.768	135610	WORD_OFF	n/a	n/a	CAMEL	4	-1	[0, 0, 0]	n/a	FR1	2	R1347D
28.665	1.6	136377	WORD	n/a	n/a	WAGON	5	-1	[0, 0, 0]	n/a	FR1	2	R1347D
30.265	0.866	137978	WORD_OFF	n/a	n/a	WAGON	5	-1	[0, 0, 0]	n/a	FR1	2	R1347D
31.131	1.6	138834	WORD	n/a	n/a	COTTON	6	-1	[0, 0, 0]	n/a	FR1	2	R1347D
32.731	0.916	140435	WORD_OFF	n/a	n/a	COTTON	6	-1	[0, 0, 0]	n/a	FR1	2	R1347D
33.647	1.601	141359	WORD	n/a	n/a	FLOOD	7	-1	[0, 0, 0]	n/a	FR1	2	R1347D
35.248	0.832	142960	WORD_OFF	n/a	n/a	FLOOD	7	-1	[0, 0, 0]	n/a	FR1	2	R1347D
36.08	1.601	143794	WORD	n/a	n/a	BABY	8	-1	[0, 0, 0]	n/a	FR1	2	R1347D
37.681	0.85	145395	WORD_OFF	n/a	n/a	BABY	8	-1	[0, 0, 0]	n/a	FR1	2	R1347D
38.531	1.6	146241	WORD	n/a	n/a	RING	9	-1	[0, 0, 0]	n/a	FR1	2	R1347D
40.131	0.833	147841	WORD_OFF	n/a	n/a	RING	9	-1	[0, 0, 0]	n/a	FR1	2	R1347D
40.964	1.601	148675	WORD	n/a	n/a	CHEST	10	-1	[0, 0, 0]	n/a	FR1	2	R1347D
42.565	0.982	150276	WORD_OFF	n/a	n/a	CHEST	10	-1	[0, 0, 0]	n/a	FR1	2	R1347D
43.547	1.6	151257	WORD	n/a	n/a	RHINO	11	-1	[0, 0, 0]	n/a	FR1	2	R1347D
45.147	0.818	152858	WORD_OFF	n/a	n/a	RHINO	11	-1	[0, 0, 0]	n/a	FR1	2	R1347D
45.965	1.618	153669	WORD	n/a	n/a	BEAM	12	-1	[0, 0, 0]	n/a	FR1	2	R1347D
47.583	0.001	155290	PROB	0.001	n/a	n/a	-999	-1	[5, 2, 2]	9	FR1	2	R1347D
47.584	0.0	155291	START	n/a	n/a	n/a	-999	-1	[-999, -999, -999]	n/a	FR1	2	R1347D
47.581	0.002	155293	WORD_OFF	n/a	n/a	BEAM	12	-1	[0, 0, 0]	n/a	FR1	2	R1347D
47.583	0.001	155293	ENCODING_END	n/a	n/a	n/a	-999	-1	[0, 0, 0]	n/a	FR1	2	R1347D
47.584	10.13	155293	DISTRACT_START	n/a	n/a	n/a	-999	-1	[0, 0, 0]	n/a	FR1	2	R1347D
57.714	0.433	165420	PROB	0.433	n/a	n/a	-999	-1	[8, 7, 5]	9	FR1	2	R1347D
58.147	0.488	165853	PROB	0.488	n/a	n/a	-999	-1	[6, 6, 6]	9	FR1	2	R1347D
58.635	0.38	166341	PROB	0.38	n/a	n/a	-999	-1	[6, 7, 8]	9	FR1	2	R1347D
59.015	1.383	166721	PROB	1.383	n/a	n/a	-999	-1	[5, 3, 2]	9	FR1	2	R1347D
60.398	2.134	168104	PROB	2.134	n/a	n/a	-999	-1	[7, 1, 2]	9	FR1	2	R1347D
62.532	3.217	170238	PROB	3.217	n/a	n/a	-999	-1	[3, 3, 3]	9	FR1	2	R1347D
65.749	2.266	173455	PROB	2.266	n/a	n/a	-999	-1	[7, 3, 7]	9	FR1	2	R1347D
68.015	0.0	175719	DISTRACT_END	n/a	n/a	n/a	-999	-1	[0, 0, 0]	n/a	FR1	2	R1347D
68.015	1.05	175721	STOP	n/a	n/a	n/a	-999	-1	[-999, -999, -999]	n/a	FR1	2	R1347D
69.065	2.507	176767	REC_START	n/a	n/a	n/a	-999	-1	[0, 0, 0]	n/a	FR1	2	R1347D
71.572	27.765	179278	REC_WORD_VV	27.765	n/a	<>	-999	-1	[0, 0, 0]	n/a	FR1	2	R1347D
99.337	6.661	207046	REC_END	n/a	n/a	n/a	-999	-1	[0, 0, 0]	n/a	FR1	2	R1347D
105.998	10.351	213708	COUNTDOWN_START	n/a	n/a	n/a	-999	1	[0, 0, 0]	n/a	FR1	2	R1347D
116.349	0.0	224056	COUNTDOWN_END	n/a	n/a	n/a	-999	1	[0, 0, 0]	n/a	FR1	2	R1347D
116.349	1.999	224056	ENCODING_START	n/a	n/a	n/a	-999	1	[0, 0, 0]	n/a	FR1	2	R1347D
118.348	1.617	226051	WORD	n/a	n/a	COIN	1	1	[0, 0, 0]	n/a	FR1	2	R1347D
119.965	0.866	227675	WORD_OFF	n/a	n/a	COIN	1	1	[0, 0, 0]	n/a	FR1	2	R1347D
120.831	1.617	228531	WORD	n/a	n/a	MULE	2	1	[0, 0, 0]	n/a	FR1	2	R1347D
122.448	0.983	230155	WORD_OFF	n/a	n/a	MULE	2	1	[0, 0, 0]	n/a	FR1	2	R1347D
123.431	1.6	231135	WORD	n/a	n/a	FARM	3	1	[0, 0, 0]	n/a	FR1	2	R1347D
125.031	0.9	232736	WORD_OFF	n/a	n/a	FARM	3	1	[0, 0, 0]	n/a	FR1	2	R1347D
125.931	1.616	233638	WORD	n/a	n/a	HOLE	4	1	[0, 0, 0]	n/a	FR1	2	R1347D
127.547	0.801	235250	WORD_OFF	n/a	n/a	HOLE	4	1	[0, 0, 0]	n/a	FR1	2	R1347D
128.348	1.6	236050	WORD	n/a	n/a	ROOT	5	1	[0, 0, 0]	n/a	FR1	2	R1347D
129.948	0.85	237651	WORD_OFF	n/a	n/a	ROOT	5	1	[0, 0, 0]	n/a	FR1	2	R1347D
130.798	1.616	238496	WORD	n/a	n/a	THORN	6	1	[0, 0, 0]	n/a	FR1	2	R1347D
132.414	0.767	240120	WORD_OFF	n/a	n/a	THORN	6	1	[0, 0, 0]	n/a	FR1	2	R1347D
133.181	1.617	240886	WORD	n/a	n/a	LIMB	7	1	[0, 0, 0]	n/a	FR1	2	R1347D
134.798	0.916	242498	WORD_OFF	n/a	n/a	LIMB	7	1	[0, 0, 0]	n/a	FR1	2	R1347D
135.714	1.6	243423	WORD	n/a	n/a	NECK	8	1	[0, 0, 0]	n/a	FR1	2	R1347D
137.314	0.966	245023	WORD_OFF	n/a	n/a	NECK	8	1	[0, 0, 0]	n/a	FR1	2	R1347D
138.28	1.601	245982	WORD	n/a	n/a	FOOD	9	1	[0, 0, 0]	n/a	FR1	2	R1347D
139.881	0.866	247582	WORD_OFF	n/a	n/a	FOOD	9	1	[0, 0, 0]	n/a	FR1	2	R1347D
140.747	1.601	248450	WORD	n/a	n/a	MEAL	10	1	[0, 0, 0]	n/a	FR1	2	R1347D
142.348	0.766	250051	WORD_OFF	n/a	n/a	MEAL	10	1	[0, 0, 0]	n/a	FR1	2	R1347D
143.114	1.619	250818	WORD	n/a	n/a	CRANE	11	1	[0, 0, 0]	n/a	FR1	2	R1347D
144.733	0.898	252441	WORD_OFF	n/a	n/a	CRANE	11	1	[0, 0, 0]	n/a	FR1	2	R1347D
145.631	1.601	253331	WORD	n/a	n/a	CAMP	12	1	[0, 0, 0]	n/a	FR1	2	R1347D
147.232	0.001	254932	WORD_OFF	n/a	n/a	CAMP	12	1	[0, 0, 0]	n/a	FR1	2	R1347D
147.233	0.0	254932	ENCODING_END	n/a	n/a	n/a	-999	1	[0, 0, 0]	n/a	FR1	2	R1347D
147.232	0.001	254934	PROB	0.001	n/a	n/a	-999	1	[5, 6, 1]	12	FR1	2	R1347D
147.233	0.0	254935	START	n/a	n/a	n/a	-999	1	[-999, -999, -999]	n/a	FR1	2	R1347D
147.233	6.615	254943	DISTRACT_START	n/a	n/a	n/a	-999	1	[0, 0, 0]	n/a	FR1	2	R1347D
153.848	5.184	261550	PROB	5.184	n/a	n/a	-999	1	[2, 5, 2]	9	FR1	2	R1347D
159.032	5.617	266733	PROB	5.617	n/a	n/a	-999	1	[1, 3, 6]	10	FR1	2	R1347D
164.649	7.632	272350	PROB	7.632	n/a	n/a	-999	1	[2, 3, 6]	13	FR1	2	R1347D
172.281	0.0	279980	DISTRACT_END	n/a	n/a	n/a	-999	1	[0, 0, 0]	n/a	FR1	2	R1347D
172.281	1.117	279982	STOP	n/a	n/a	n/a	-999	1	[-999, -999, -999]	n/a	FR1	2	R1347D
173.398	29.999	281096	REC_START	n/a	n/a	n/a	-999	1	[0, 0, 0]	n/a	FR1	2	R1347D
203.397	0.252	311096	REC_WORD_VV	0.252	n/a	<>	-999	1	[0, 0, 0]	n/a	FR1	2	R1347D
203.649	13.133	311352	REC_END	n/a	n/a	n/a	-999	1	[0, 0, 0]	n/a	FR1	2	R1347D
216.782	10.35	324485	COUNTDOWN_START	n/a	n/a	n/a	-999	2	[0, 0, 0]	n/a	FR1	2	R1347D
227.132	0.0	334833	COUNTDOWN_END	n/a	n/a	n/a	-999	2	[0, 0, 0]	n/a	FR1	2	R1347D
227.132	2.099	334833	ENCODING_START	n/a	n/a	n/a	-999	2	[0, 0, 0]	n/a	FR1	2	R1347D
229.231	1.6	336930	WORD	n/a	n/a	ROAD	1	2	[0, 0, 0]	n/a	FR1	2	R1347D
230.831	0.934	338531	WORD_OFF	n/a	n/a	ROAD	1	2	[0, 0, 0]	n/a	FR1	2	R1347D
231.765	1.6	339466	WORD	n/a	n/a	PIPE	2	2	[0, 0, 0]	n/a	FR1	2	R1347D
233.365	0.883	341067	WORD_OFF	n/a	n/a	PIPE	2	2	[0, 0, 0]	n/a	FR1	2	R1347D
234.248	1.617	341946	WORD	n/a	n/a	FORT	3	2	[0, 0, 0]	n/a	FR1	2	R1347D
235.865	0.8	343558	WORD_OFF	n/a	n/a	FORT	3	2	[0, 0, 0]	n/a	FR1	2	R1347D
236.665	1.616	344359	WORD	n/a	n/a	HOSE	4	2	[0, 0, 0]	n/a	FR1	2	R1347D
238.281	0.766	345982	WORD_OFF	n/a	n/a	HOSE	4	2	[0, 0, 0]	n/a	FR1	2	R1347D
239.047	1.6	346748	WORD	n/a	n/a	COKE	5	2	[0, 0, 0]	n/a	FR1	2	R1347D
240.647	0.883	348349	WORD_OFF	n/a	n/a	COKE	5	2	[0, 0, 0]	n/a	FR1	2	R1347D
241.53	1.601	349228	WORD	n/a	n/a	NET	6	2	[0, 0, 0]	n/a	FR1	2	R1347D
243.131	0.817	350829	WORD_OFF	n/a	n/a	NET	6	2	[0, 0, 0]	n/a	FR1	2	R1347D
243.948	1.6	351641	WORD	n/a	n/a	MOUSE	7	2	[0, 0, 0]	n/a	FR1	2	R1347D
245.548	0.8	353241	WORD_OFF	n/a	n/a	MOUSE	7	2	[0, 0, 0]	n/a	FR1	2	R1347D
246.348	1.617	354042	WORD	n/a	n/a	SHORE	8	2	[0, 0, 0]	n/a	FR1	2	R1347D
247.965	0.833	355665	WORD_OFF	n/a	n/a	SHORE	8	2	[0, 0, 0]	n/a	FR1	2	R1347D
248.798	1.617	356499	WORD	n/a	n/a	HARP	9	2	[0, 0, 0]	n/a	FR1	2	R1347D
250.415	0.833	358111	WORD_OFF	n/a	n/a	HARP	9	2	[0, 0, 0]	n/a	FR1	2	R1347D
251.248	1.6	358945	WORD	n/a	n/a	BOARD	10	2	[0, 0, 0]	n/a	FR1	2	R1347D
252.848	0.9	360546	WORD_OFF	n/a	n/a	BOARD	10	2	[0, 0, 0]	n/a	FR1	2	R1347D
253.748	1.6	361448	WORD	n/a	n/a	MIST	11	2	[0, 0, 0]	n/a	FR1	2	R1347D
255.348	0.95	363049	WORD_OFF	n/a	n/a	MIST	11	2	[0, 0, 0]	n/a	FR1	2	R1347D
256.298	1.6	363996	WORD	n/a	n/a	BANK	12	2	[0, 0, 0]	n/a	FR1	2	R1347D
257.898	0.001	365594	PROB	0.001	n/a	n/a	-999	2	[5, 6, 8]	19	FR1	2	R1347D
257.899	0.0	365595	START	n/a	n/a	n/a	-999	2	[-999, -999, -999]	n/a	FR1	2	R1347D
257.898	0.001	365596	WORD_OFF	n/a	n/a	BANK	12	2	[0, 0, 0]	n/a	FR1	2	R1347D
257.899	0.0	365596	ENCODING_END	n/a	n/a	n/a	-999	2	[0, 0, 0]	n/a	FR1	2	R1347D
257.899	11.599	365596	DISTRACT_START	n/a	n/a	n/a	-999	2	[0, 0, 0]	n/a	FR1	2	R1347D
269.498	15.617	377194	PROB	15.617	n/a	n/a	-999	2	[4, 1, 7]	12	FR1	2	R1347D
285.115	0.0	392809	DISTRACT_END	n/a	n/a	n/a	-999	2	[0, 0, 0]	n/a	FR1	2	R1347D
285.115	1.15	392810	STOP	n/a	n/a	n/a	-999	2	[-999, -999, -999]	n/a	FR1	2	R1347D
286.265	8.534	393959	REC_START	n/a	n/a	n/a	-999	2	[0, 0, 0]	n/a	FR1	2	R1347D
294.799	0.35	402493	REC_WORD	0.35	n/a	BOARD	10	2	[0, 0, 0]	n/a	FR1	2	R1347D
295.149	7.107	402843	REC_WORD	7.107	n/a	HOSE	4	2	[0, 0, 0]	n/a	FR1	2	R1347D
302.256	14.263	409950	REC_WORD	14.263	n/a	KITE	-999	2	[0, 0, 0]	n/a	FR1	2	R1347D
316.519	6.663	424214	REC_END	n/a	n/a	n/a	-999	2	[0, 0, 0]	n/a	FR1	2	R1347D
323.182	10.35	430877	COUNTDOWN_START	n/a	n/a	n/a	-999	3	[0, 0, 0]	n/a	FR1	2	R1347D
333.532	0.0	441225	COUNTDOWN_END	n/a	n/a	n/a	-999	3	[0, 0, 0]	n/a	FR1	2	R1347D
333.532	2.116	441225	ENCODING_START	n/a	n/a	n/a	-999	3	[0, 0, 0]	n/a	FR1	2	R1347D
335.648	1.6	443344	WORD	n/a	n/a	STEAK	1	3	[0, 0, 0]	n/a	FR1	2	R1347D
337.248	0.917	444945	WORD_OFF	n/a	n/a	STEAK	1	3	[0, 0, 0]	n/a	FR1	2	R1347D
338.165	1.615	445858	WORD	n/a	n/a	SLEEVE	2	3	[0, 0, 0]	n/a	FR1	2	R1347D
339.78	0.901	447470	WORD_OFF	n/a	n/a	SLEEVE	2	3	[0, 0, 0]	n/a	FR1	2	R1347D
340.681	1.6	448372	WORD	n/a	n/a	TRASH	3	3	[0, 0, 0]	n/a	FR1	2	R1347D
342.281	0.833	449984	WORD_OFF	n/a	n/a	TRASH	3	3	[0, 0, 0]	n/a	FR1	2	R1347D
343.114	1.6	450807	WORD	n/a	n/a	OAR	4	3	[0, 0, 0]	n/a	FR1	2	R1347D
344.714	0.784	452408	WORD_OFF	n/a	n/a	OAR	4	3	[0, 0, 0]	n/a	FR1	2	R1347D
345.498	1.6	453185	WORD	n/a	n/a	WAX	5	3	[0, 0, 0]	n/a	FR1	2	R1347D
347.098	0.933	454786	WORD_OFF	n/a	n/a	WAX	5	3	[0, 0, 0]	n/a	FR1	2	R1347D
348.031	1.617	455722	WORD	n/a	n/a	GOLD	6	3	[0, 0, 0]	n/a	FR1	2	R1347D
349.648	0.95	457345	WORD_OFF	n/a	n/a	GOLD	6	3	[0, 0, 0]	n/a	FR1	2	R1347D
350.598	1.6	458292	WORD	n/a	n/a	MAZE	7	3	[0, 0, 0]	n/a	FR1	2	R1347D
352.198	0.833	459893	WORD_OFF	n/a	n/a	MAZE	7	3	[0, 0, 0]	n/a	FR1	2	R1347D
353.031	1.617	460727	WORD	n/a	n/a	HAT	8	3	[0, 0, 0]	n/a	FR1	2	R1347D
354.648	0.883	462339	WORD_OFF	n/a	n/a	HAT	8	3	[0, 0, 0]	n/a	FR1	2	R1347D
355.531	1.616	463229	WORD	n/a	n/a	CHIN	9	3	[0, 0, 0]	n/a	FR1	2	R1347D
357.147	0.984	464841	WORD_OFF	n/a	n/a	CHIN	9	3	[0, 0, 0]	n/a	FR1	2	R1347D
358.131	1.616	465822	WORD	n/a	n/a	STAR	10	3	[0, 0, 0]	n/a	FR1	2	R1347D
359.747	0.818	467445	WORD_OFF	n/a	n/a	STAR	10	3	[0, 0, 0]	n/a	FR1	2	R1347D
360.565	1.617	468257	WORD	n/a	n/a	NAIL	11	3	[0, 0, 0]	n/a	FR1	2	R1347D
362.182	0.833	469869	WORD_OFF	n/a	n/a	NAIL	11	3	[0, 0, 0]	n/a	FR1	2	R1347D
363.015	1.617	470703	WORD	n/a	n/a	ASH	12	3	[0, 0, 0]	n/a	FR1	2	R1347D
364.632	0.0	472323	START	n/a	n/a	n/a	-999	3	[-999, -999, -999]	n/a	FR1	2	R1347D
364.632	0.0	472323	PROB	0.0	n/a	n/a	-999	3	[2, 4, 4]	10	FR1	2	R1347D
364.631	0.001	472326	WORD_OFF	n/a	n/a	ASH	12	3	[0, 0, 0]	n/a	FR1	2	R1347D
364.632	0.0	472326	ENCODING_END	n/a	n/a	n/a	-999	3	[0, 0, 0]	n/a	FR1	2	R1347D
364.632	10.484	472326	DISTRACT_START	n/a	n/a	n/a	-999	3	[0, 0, 0]	n/a	FR1	2	R1347D
375.116	7.399	482806	PROB	7.399	n/a	n/a	-999	3	[2, 2, 3]	7	FR1	2	R1347D
382.515	22.316	490205	PROB	22.316	n/a	n/a	-999	3	[8, 6, 7]	21	FR1	2	R1347D
404.831	0.0	512520	STOP	n/a	n/a	n/a	-999	3	[-999, -999, -999]	n/a	FR1	2	R1347D
404.831	1.1	512525	DISTRACT_END	n/a	n/a	n/a	-999	3	[0, 0, 0]	n/a	FR1	2	R1347D
405.931	6.457	513618	REC_START	n/a	n/a	n/a	-999	3	[0, 0, 0]	n/a	FR1	2	R1347D
412.388	2.707	520076	REC_WORD	2.707	n/a	OAK	-999	3	[0, 0, 0]	n/a	FR1	2	R1347D
415.095	6.117	522783	REC_WORD	6.117	n/a	HILL	-999	3	[0, 0, 0]	n/a	FR1	2	R1347D
421.212	5.528	528900	REC_WORD	5.528	n/a	TRUCK	-999	3	[0, 0, 0]	n/a	FR1	2	R1347D
426.74	9.428	534428	REC_WORD	9.428	n/a	WAGON	-999	3	[0, 0, 0]	n/a	FR1	2	R1347D
436.168	5.679	543852	REC_END	n/a	n/a	n/a	-999	3	[0, 0, 0]	n/a	FR1	2	R1347D
441.847	10.351	549533	COUNTDOWN_START	n/a	n/a	n/a	-999	4	[0, 0, 0]	n/a	FR1	2	R1347D
452.198	0.0	559882	COUNTDOWN_END	n/a	n/a	n/a	-999	4	[0, 0, 0]	n/a	FR1	2	R1347D
452.198	2.05	559882	ENCODING_START	n/a	n/a	n/a	-999	4	[0, 0, 0]	n/a	FR1	2	R1347D
454.248	1.6	561933	WORD	n/a	n/a	JET	1	4	[0, 0, 0]	n/a	FR1	2	R1347D
455.848	0.817	563534	WORD_OFF	n/a	n/a	JET	1	4	[0, 0, 0]	n/a	FR1	2	R1347D
456.665	1.6	564357	WORD	n/a	n/a	MOSS	2	4	[0, 0, 0]	n/a	FR1	2	R1347D
458.265	0.816	565946	WORD_OFF	n/a	n/a	MOSS	2	4	[0, 0, 0]	n/a	FR1	2	R1347D
459.081	1.6	566769	WORD	n/a	n/a	FROST	3	4	[0, 0, 0]	n/a	FR1	2	R1347D
460.681	0.85	568370	WORD_OFF	n/a	n/a	FROST	3	4	[0, 0, 0]	n/a	FR1	2	R1347D
461.531	1.6	569215	WORD	n/a	n/a	BRANCH	4	4	[0, 0, 0]	n/a	FR1	2	R1347D
463.131	0.784	570816	WORD_OFF	n/a	n/a	BRANCH	4	4	[0, 0, 0]	n/a	FR1	2	R1347D
463.915	1.6	571605	WORD	n/a	n/a	ROCK	5	4	[0, 0, 0]	n/a	FR1	2	R1347D
465.515	0.783	573206	WORD_OFF	n/a	n/a	ROCK	5	4	[0, 0, 0]	n/a	FR1	2	R1347D
466.298	1.6	573984	WORD	n/a	n/a	GOWN	6	4	[0, 0, 0]	n/a	FR1	2	R1347D
467.898	0.883	575585	WORD_OFF	n/a	n/a	GOWN	6	4	[0, 0, 0]	n/a	FR1	2	R1347D
468.781	1.617	576464	WORD	n/a	n/a	SKUNK	7	4	[0, 0, 0]	n/a	FR1	2	R1347D
470.398	0.8	578087	WORD_OFF	n/a	n/a	SKUNK	7	4	[0, 0, 0]	n/a	FR1	2	R1347D
471.198	1.617	578887	WORD	n/a	n/a	WOOD	8	4	[0, 0, 0]	n/a	FR1	2	R1347D
472.815	0.949	580499	WORD_OFF	n/a	n/a	WOOD	8	4	[0, 0, 0]	n/a	FR1	2	R1347D
473.764	1.601	581446	WORD	n/a	n/a	SQUARE	9	4	[0, 0, 0]	n/a	FR1	2	R1347D
475.365	0.833	583047	WORD_OFF	n/a	n/a	SQUARE	9	4	[0, 0, 0]	n/a	FR1	2	R1347D
476.198	1.617	583881	WORD	n/a	n/a	LANE	10	4	[0, 0, 0]	n/a	FR1	2	R1347D
477.815	0.9	585505	WORD_OFF	n/a	n/a	LANE	10	4	[0, 0, 0]	n/a	FR1	2	R1347D
478.715	1.6	586406	WORD	n/a	n/a	SHOE	11	4	[0, 0, 0]	n/a	FR1	2	R1347D
480.315	0.8	587996	WORD_OFF	n/a	n/a	SHOE	11	4	[0, 0, 0]	n/a	FR1	2	R1347D
481.115	1.617	588796	WORD	n/a	n/a	TRAY	12	4	[0, 0, 0]	n/a	FR1	2	R1347D
482.732	0.001	590417	PROB	0.001	n/a	n/a	-999	4	[2, 8, 3]	13	FR1	2	R1347D
482.733	0.0	590418	START	n/a	n/a	n/a	-999	4	[-999, -999, -999]	n/a	FR1	2	R1347D
482.731	0.002	590419	WORD_OFF	n/a	n/a	TRAY	12	4	[0, 0, 0]	n/a	FR1	2	R1347D
482.733	0.0	590419	ENCODING_END	n/a	n/a	n/a	-999	4	[0, 0, 0]	n/a	FR1	2	R1347D
482.733	6.899	590419	DISTRACT_START	n/a	n/a	n/a	-999	4	[0, 0, 0]	n/a	FR1	2	R1347D
489.632	4.633	597316	PROB	4.633	n/a	n/a	-999	4	[8, 5, 5]	18	FR1	2	R1347D
494.265	3.683	601949	PROB	3.683	n/a	n/a	-999	4	[5, 6, 1]	12	FR1	2	R1347D
497.948	7.8	605632	PROB	7.8	n/a	n/a	-999	4	[8, 5, 3]	16	FR1	2	R1347D
505.748	0.0	613427	DISTRACT_END	n/a	n/a	n/a	-999	4	[0, 0, 0]	n/a	FR1	2	R1347D
505.748	1.083	613431	STOP	n/a	n/a	n/a	-999	4	[-999, -999, -999]	n/a	FR1	2	R1347D
506.831	29.999	614521	REC_START	n/a	n/a	n/a	-999	4	[0, 0, 0]	n/a	FR1	2	R1347D
536.83	0.239	644512	REC_WORD_VV	0.239	n/a	<>	-999	4	[0, 0, 0]	n/a	FR1	2	R1347D
537.069	1.846	644754	REC_END	n/a	n/a	n/a	-999	4	[0, 0, 0]	n/a	FR1	2	R1347D
538.915	10.35	646603	COUNTDOWN_START	n/a	n/a	n/a	-999	5	[0, 0, 0]	n/a	FR1	2	R1347D
549.265	0.0	656951	COUNTDOWN_END	n/a	n/a	n/a	-999	5	[0, 0, 0]	n/a	FR1	2	R1347D
549.265	2.182	656951	ENCODING_START	n/a	n/a	n/a	-999	5	[0, 0, 0]	n/a	FR1	2	R1347D
551.447	1.601	659127	WORD	n/a	n/a	TAIL	1	5	[0, 0, 0]	n/a	FR1	2	R1347D
553.048	1.0	660727	WORD_OFF	n/a	n/a	TAIL	1	5	[0, 0, 0]	n/a	FR1	2	R1347D
554.048	1.6	661731	WORD	n/a	n/a	CUP	2	5	[0, 0, 0]	n/a	FR1	2	R1347D
555.648	0.917	663331	WORD_OFF	n/a	n/a	CUP	2	5	[0, 0, 0]	n/a	FR1	2	R1347D
556.565	1.6	664244	WORD	n/a	n/a	BOX	3	5	[0, 0, 0]	n/a	FR1	2	R1347D
558.165	0.832	665845	WORD_OFF	n/a	n/a	BOX	3	5	[0, 0, 0]	n/a	FR1	2	R1347D
558.997	1.602	666679	WORD	n/a	n/a	SLIME	4	5	[0, 0, 0]	n/a	FR1	2	R1347D
560.599	0.832	668280	WORD_OFF	n/a	n/a	SLIME	4	5	[0, 0, 0]	n/a	FR1	2	R1347D
561.431	1.6	669114	WORD	n/a	n/a	LEAF	5	5	[0, 0, 0]	n/a	FR1	2	R1347D
563.031	0.833	670715	WORD_OFF	n/a	n/a	LEAF	5	5	[0, 0, 0]	n/a	FR1	2	R1347D
563.864	1.601	671549	WORD	n/a	n/a	PALM	6	5	[0, 0, 0]	n/a	FR1	2	R1347D
565.465	0.783	673150	WORD_OFF	n/a	n/a	PALM	6	5	[0, 0, 0]	n/a	FR1	2	R1347D
566.248	1.617	673928	WORD	n/a	n/a	CONE	7	5	[0, 0, 0]	n/a	FR1	2	R1347D
567.865	0.916	675551	WORD_OFF	n/a	n/a	CONE	7	5	[0, 0, 0]	n/a	FR1	2	R1347D
568.781	1.601	676464	WORD	n/a	n/a	FROG	8	5	[0, 0, 0]	n/a	FR1	2	R1347D
570.382	0.966	678065	WORD_OFF	n/a	n/a	FROG	8	5	[0, 0, 0]	n/a	FR1	2	R1347D
571.348	1.6	679034	WORD	n/a	n/a	PLATE	9	5	[0, 0, 0]	n/a	FR1	2	R1347D
572.948	0.833	680625	WORD_OFF	n/a	n/a	PLATE	9	5	[0, 0, 0]	n/a	FR1	2	R1347D
573.781	1.6	681458	WORD	n/a	n/a	BENCH	10	5	[0, 0, 0]	n/a	FR1	2	R1347D
575.381	0.767	683059	WORD_OFF	n/a	n/a	BENCH	10	5	[0, 0, 0]	n/a	FR1	2	R1347D
576.148	1.617	683825	WORD	n/a	n/a	WEED	11	5	[0, 0, 0]	n/a	FR1	2	R1347D
577.765	0.933	685448	WORD_OFF	n/a	n/a	WEED	11	5	[0, 0, 0]	n/a	FR1	2	R1347D
578.698	1.617	686384	WORD	n/a	n/a	SPRING	12	5	[0, 0, 0]	n/a	FR1	2	R1347D
580.315	0.0	687995	PROB	0.0	n/a	n/a	-999	5	[6, 5, 6]	17	FR1	2	R1347D
580.315	0.001	687996	WORD_OFF	n/a	n/a	SPRING	12	5	[0, 0, 0]	n/a	FR1	2	R1347D
580.316	0.0	687996	ENCODING_END	n/a	n/a	n/a	-999	5	[0, 0, 0]	n/a	FR1	2	R1347D
580.316	0.0	687996	DISTRACT_START	n/a	n/a	n/a	-999	5	[0, 0, 0]	n/a	FR1	2	R1347D
580.316	34.284	687996	START	n/a	n/a	n/a	-999	5	[-999, -999, -999]	n/a	FR1	2	R1347D
614.6	0.0	722276	DISTRACT_END	n/a	n/a	n/a	-999	5	[0, 0, 0]	n/a	FR1	2	R1347D
614.6	1.064	722278	STOP	n/a	n/a	n/a	-999	5	[-999, -999, -999]	n/a	FR1	2	R1347D
615.664	3.868	723347	REC_START	n/a	n/a	n/a	-999	5	[0, 0, 0]	n/a	FR1	2	R1347D
619.532	9.341	727210	REC_WORD_VV	9.341	n/a	<>	-999	5	[0, 0, 0]	n/a	FR1	2	R1347D
628.873	6.288	736550	REC_WORD	6.288	n/a	WEED	11	5	[0, 0, 0]	n/a	FR1	2	R1347D
635.161	10.737	742838	REC_WORD	10.737	n/a	BOX	3	5	[0, 0, 0]	n/a	FR1	2	R1347D
645.898	7.167	753570	REC_END	n/a	n/a	n/a	-999	5	[0, 0, 0]	n/a	FR1	2	R1347D
653.065	10.35	760739	COUNTDOWN_START	n/a	n/a	n/a	-999	6	[0, 0, 0]	n/a	FR1	2	R1347D
663.415	0.001	771087	COUNTDOWN_END	n/a	n/a	n/a	-999	6	[0, 0, 0]	n/a	FR1	2	R1347D
663.416	2.082	771099	ENCODING_START	n/a	n/a	n/a	-999	6	[0, 0, 0]	n/a	FR1	2	R1347D
665.498	1.617	773173	WORD	n/a	n/a	HILL	1	6	[0, 0, 0]	n/a	FR1	2	R1347D
667.115	0.933	774796	WORD_OFF	n/a	n/a	HILL	1	6	[0, 0, 0]	n/a	FR1	2	R1347D
668.048	1.617	775720	WORD	n/a	n/a	NEST	2	6	[0, 0, 0]	n/a	FR1	2	R1347D
669.665	0.817	777344	WORD_OFF	n/a	n/a	NEST	2	6	[0, 0, 0]	n/a	FR1	2	R1347D
670.482	1.6	778155	WORD	n/a	n/a	NURSE	3	6	[0, 0, 0]	n/a	FR1	2	R1347D
672.082	0.833	779756	WORD_OFF	n/a	n/a	NURSE	3	6	[0, 0, 0]	n/a	FR1	2	R1347D
672.915	1.6	780590	WORD	n/a	n/a	SOAP	4	6	[0, 0, 0]	n/a	FR1	2	R1347D
674.515	1.0	782191	WORD_OFF	n/a	n/a	SOAP	4	6	[0, 0, 0]	n/a	FR1	2	R1347D
675.515	1.6	783194	WORD	n/a	n/a	THROAT	5	6	[0, 0, 0]	n/a	FR1	2	R1347D
677.115	0.85	784795	WORD_OFF	n/a	n/a	THROAT	5	6	[0, 0, 0]	n/a	FR1	2	R1347D
677.965	1.6	785640	WORD	n/a	n/a	FRUIT	6	6	[0, 0, 0]	n/a	FR1	2	R1347D
679.565	0.767	787241	WORD_OFF	n/a	n/a	FRUIT	6	6	[0, 0, 0]	n/a	FR1	2	R1347D
680.332	1.616	788008	WORD	n/a	n/a	SMILE	7	6	[0, 0, 0]	n/a	FR1	2	R1347D
681.948	0.883	789620	WORD_OFF	n/a	n/a	SMILE	7	6	[0, 0, 0]	n/a	FR1	2	R1347D
682.831	1.6	790510	WORD	n/a	n/a	RAT	8	6	[0, 0, 0]	n/a	FR1	2	R1347D
684.431	0.884	792111	WORD_OFF	n/a	n/a	RAT	8	6	[0, 0, 0]	n/a	FR1	2	R1347D
685.315	1.616	792990	WORD	n/a	n/a	SACK	9	6	[0, 0, 0]	n/a	FR1	2	R1347D
686.931	0.85	794602	WORD_OFF	n/a	n/a	SACK	9	6	[0, 0, 0]	n/a	FR1	2	R1347D
687.781	1.601	795459	WORD	n/a	n/a	BONE	10	6	[0, 0, 0]	n/a	FR1	2	R1347D
689.382	0.949	797060	WORD_OFF	n/a	n/a	BONE	10	6	[0, 0, 0]	n/a	FR1	2	R1347D
690.331	1.6	798007	WORD	n/a	n/a	GEESE	11	6	[0, 0, 0]	n/a	FR1	2	R1347D
691.931	0.917	799607	WORD_OFF	n/a	n/a	GEESE	11	6	[0, 0, 0]	n/a	FR1	2	R1347D
692.848	1.617	800520	WORD	n/a	n/a	DART	12	6	[0, 0, 0]	n/a	FR1	2	R1347D
694.465	0.001	802139	PROB	0.001	n/a	n/a	-999	6	[4, 1, 5]	9	FR1	2	R1347D
694.466	0.0	802140	START	n/a	n/a	n/a	-999	6	[-999, -999, -999]	n/a	FR1	2	R1347D
694.465	0.001	802144	WORD_OFF	n/a	n/a	DART	12	6	[0, 0, 0]	n/a	FR1	2	R1347D
694.466	0.0	802144	ENCODING_END	n/a	n/a	n/a	-999	6	[0, 0, 0]	n/a	FR1	2	R1347D
694.466	11.133	802144	DISTRACT_START	n/a	n/a	n/a	-999	6	[0, 0, 0]	n/a	FR1	2	R1347D
705.599	6.167	813272	PROB	6.167	n/a	n/a	-999	6	[3, 3, 2]	8	FR1	2	R1347D
711.766	9.448	819439	PROB	9.448	n/a	n/a	-999	6	[4, 1, 3]	8	FR1	2	R1347D
721.214	0.0	828883	DISTRACT_END	n/a	n/a	n/a	-999	6	[0, 0, 0]	n/a	FR1	2	R1347D
721.214	1.284	828886	STOP	n/a	n/a	n/a	-999	6	[-999, -999, -999]	n/a	FR1	2	R1347D
722.498	2.548	830168	REC_START	n/a	n/a	n/a	-999	6	[0, 0, 0]	n/a	FR1	2	R1347D
725.046	0.561	832718	REC_WORD	0.561	n/a	RAT	8	6	[0, 0, 0]	n/a	FR1	2	R1347D
725.607	0.812	833279	REC_WORD	0.812	n/a	SACK	9	6	[0, 0, 0]	n/a	FR1	2	R1347D
726.419	2.869	834091	REC_WORD	2.869	n/a	SOAP	4	6	[0, 0, 0]	n/a	FR1	2	R1347D
729.288	2.983	836960	REC_WORD	2.983	n/a	BARK	-999	6	[0, 0, 0]	n/a	FR1	2	R1347D
732.271	20.469	839943	REC_WORD	20.469	n/a	GEESE	11	6	[0, 0, 0]	n/a	FR1	2	R1347D
752.74	1.908	860412	REC_END	n/a	n/a	n/a	-999	6	[0, 0, 0]	n/a	FR1	2	R1347D
754.648	10.351	862317	COUNTDOWN_START	n/a	n/a	n/a	-999	7	[0, 0, 0]	n/a	FR1	2	R1347D
764.999	0.0	872666	COUNTDOWN_END	n/a	n/a	n/a	-999	7	[0, 0, 0]	n/a	FR1	2	R1347D
764.999	2.082	872666	ENCODING_START	n/a	n/a	n/a	-999	7	[0, 0, 0]	n/a	FR1	2	R1347D
767.081	1.617	874751	WORD	n/a	n/a	HAY	1	7	[0, 0, 0]	n/a	FR1	2	R1347D
768.698	0.867	876375	WORD_OFF	n/a	n/a	HAY	1	7	[0, 0, 0]	n/a	FR1	2	R1347D
769.565	1.6	877231	WORD	n/a	n/a	TOY	2	7	[0, 0, 0]	n/a	FR1	2	R1347D
771.165	0.966	878832	WORD_OFF	n/a	n/a	TOY	2	7	[0, 0, 0]	n/a	FR1	2	R1347D
772.131	1.6	879801	WORD	n/a	n/a	GATE	3	7	[0, 0, 0]	n/a	FR1	2	R1347D
773.731	0.802	881402	WORD_OFF	n/a	n/a	GATE	3	7	[0, 0, 0]	n/a	FR1	2	R1347D
774.533	1.614	882203	WORD	n/a	n/a	ROPE	4	7	[0, 0, 0]	n/a	FR1	2	R1347D
776.147	0.851	883815	WORD_OFF	n/a	n/a	ROPE	4	7	[0, 0, 0]	n/a	FR1	2	R1347D
776.998	1.6	884671	WORD	n/a	n/a	CHAIN	5	7	[0, 0, 0]	n/a	FR1	2	R1347D
778.598	0.75	886272	WORD_OFF	n/a	n/a	CHAIN	5	7	[0, 0, 0]	n/a	FR1	2	R1347D
779.348	1.6	887016	WORD	n/a	n/a	SUN	6	7	[0, 0, 0]	n/a	FR1	2	R1347D
780.948	0.966	888617	WORD_OFF	n/a	n/a	SUN	6	7	[0, 0, 0]	n/a	FR1	2	R1347D
781.914	1.6	889586	WORD	n/a	n/a	BREAST	7	7	[0, 0, 0]	n/a	FR1	2	R1347D
783.514	0.801	891187	WORD_OFF	n/a	n/a	BREAST	7	7	[0, 0, 0]	n/a	FR1	2	R1347D
784.315	1.615	891987	WORD	n/a	n/a	STEW	8	7	[0, 0, 0]	n/a	FR1	2	R1347D
785.93	0.768	893599	WORD_OFF	n/a	n/a	STEW	8	7	[0, 0, 0]	n/a	FR1	2	R1347D
786.698	1.6	894366	WORD	n/a	n/a	SAUCE	9	7	[0, 0, 0]	n/a	FR1	2	R1347D
788.298	0.8	895967	WORD_OFF	n/a	n/a	SAUCE	9	7	[0, 0, 0]	n/a	FR1	2	R1347D
789.098	1.617	896767	WORD	n/a	n/a	STEAM	10	7	[0, 0, 0]	n/a	FR1	2	R1347D
790.715	0.965	898390	WORD_OFF	n/a	n/a	STEAM	10	7	[0, 0, 0]	n/a	FR1	2	R1347D
791.68	1.601	899348	WORD	n/a	n/a	SUIT	11	7	[0, 0, 0]	n/a	FR1	2	R1347D
793.281	0.934	900949	WORD_OFF	n/a	n/a	SUIT	11	7	[0, 0, 0]	n/a	FR1	2	R1347D
794.215	1.616	901885	WORD	n/a	n/a	DEER	12	7	[0, 0, 0]	n/a	FR1	2	R1347D
795.831	0.001	903497	WORD_OFF	n/a	n/a	DEER	12	7	[0, 0, 0]	n/a	FR1	2	R1347D
795.832	0.001	903501	PROB	0.001	n/a	n/a	-999	7	[5, 8, 3]	16	FR1	2	R1347D
795.833	0.0	903502	START	n/a	n/a	n/a	-999	7	[-999, -999, -999]	n/a	FR1	2	R1347D
795.833	0.0	903508	ENCODING_END	n/a	n/a	n/a	-999	7	[0, 0, 0]	n/a	FR1	2	R1347D
795.833	29.031	903508	DISTRACT_START	n/a	n/a	n/a	-999	7	[0, 0, 0]	n/a	FR1	2	R1347D
824.864	0.0	932531	STOP	n/a	n/a	n/a	-999	7	[-999, -999, -999]	n/a	FR1	2	R1347D
824.864	1.284	932535	DISTRACT_END	n/a	n/a	n/a	-999	7	[0, 0, 0]	n/a	FR1	2	R1347D
826.148	4.701	933820	REC_START	n/a	n/a	n/a	-999	7	[0, 0, 0]	n/a	FR1	2	R1347D
830.849	2.767	938516	REC_WORD	2.767	n/a	HAY	1	7	[0, 0, 0]	n/a	FR1	2	R1347D
833.616	1.263	941283	REC_WORD	1.263	n/a	SOAP	-999	7	[0, 0, 0]	n/a	FR1	2	R1347D
834.879	4.831	942546	REC_WORD	4.831	n/a	TOY	2	7	[0, 0, 0]	n/a	FR1	2	R1347D
839.71	4.828	947376	REC_WORD	4.828	n/a	RAT	-999	7	[0, 0, 0]	n/a	FR1	2	R1347D
844.538	6.769	952204	REC_WORD	6.769	n/a	SUN	6	7	[0, 0, 0]	n/a	FR1	2	R1347D
851.307	5.097	958973	REC_WORD	5.097	n/a	DIRT	-999	7	[0, 0, 0]	n/a	FR1	2	R1347D
856.404	1.478	964076	REC_END	n/a	n/a	n/a	-999	7	[0, 0, 0]	n/a	FR1	2	R1347D
857.882	10.35	965553	COUNTDOWN_START	n/a	n/a	n/a	-999	8	[0, 0, 0]	n/a	FR1	2	R1347D
868.232	0.0	975901	COUNTDOWN_END	n/a	n/a	n/a	-999	8	[0, 0, 0]	n/a	FR1	2	R1347D
868.232	2.283	975901	ENCODING_START	n/a	n/a	n/a	-999	8	[0, 0, 0]	n/a	FR1	2	R1347D
870.515	1.616	978178	WORD	n/a	n/a	GRASS	1	8	[0, 0, 0]	n/a	FR1	2	R1347D
872.131	0.95	979802	WORD_OFF	n/a	n/a	GRASS	1	8	[0, 0, 0]	n/a	FR1	2	R1347D
873.081	1.6	980749	WORD	n/a	n/a	TIN	2	8	[0, 0, 0]	n/a	FR1	2	R1347D
874.681	0.884	982349	WORD_OFF	n/a	n/a	TIN	2	8	[0, 0, 0]	n/a	FR1	2	R1347D
875.565	1.616	983229	WORD	n/a	n/a	SHEET	3	8	[0, 0, 0]	n/a	FR1	2	R1347D
877.181	0.884	984852	WORD_OFF	n/a	n/a	SHEET	3	8	[0, 0, 0]	n/a	FR1	2	R1347D
878.065	1.6	985731	WORD	n/a	n/a	FUR	4	8	[0, 0, 0]	n/a	FR1	2	R1347D
879.665	0.866	987332	WORD_OFF	n/a	n/a	FUR	4	8	[0, 0, 0]	n/a	FR1	2	R1347D
880.531	1.6	988200	WORD	n/a	n/a	BRICK	5	8	[0, 0, 0]	n/a	FR1	2	R1347D
882.131	0.8	989801	WORD_OFF	n/a	n/a	BRICK	5	8	[0, 0, 0]	n/a	FR1	2	R1347D
882.931	1.617	990601	WORD	n/a	n/a	SOCK	6	8	[0, 0, 0]	n/a	FR1	2	R1347D
884.548	0.766	992213	WORD_OFF	n/a	n/a	SOCK	6	8	[0, 0, 0]	n/a	FR1	2	R1347D
885.314	1.601	992980	WORD	n/a	n/a	DEW	7	8	[0, 0, 0]	n/a	FR1	2	R1347D
886.915	0.816	994580	WORD_OFF	n/a	n/a	DEW	7	8	[0, 0, 0]	n/a	FR1	2	R1347D
887.731	1.6	995392	WORD	n/a	n/a	BARN	8	8	[0, 0, 0]	n/a	FR1	2	R1347D
889.331	0.901	996993	WORD_OFF	n/a	n/a	BARN	8	8	[0, 0, 0]	n/a	FR1	2	R1347D
890.232	1.616	997894	WORD	n/a	n/a	BUSH	9	8	[0, 0, 0]	n/a	FR1	2	R1347D
891.848	0.867	999518	WORD_OFF	n/a	n/a	BUSH	9	8	[0, 0, 0]	n/a	FR1	2	R1347D
892.715	1.6	1000374	WORD	n/a	n/a	WHEAT	10	8	[0, 0, 0]	n/a	FR1	2	R1347D
894.315	1.0	1001975	WORD_OFF	n/a	n/a	WHEAT	10	8	[0, 0, 0]	n/a	FR1	2	R1347D
895.315	1.6	1002978	WORD	n/a	n/a	SLUSH	11	8	[0, 0, 0]	n/a	FR1	2	R1347D
896.915	0.817	1004579	WORD_OFF	n/a	n/a	SLUSH	11	8	[0, 0, 0]	n/a	FR1	2	R1347D
897.732	1.6	1005391	WORD	n/a	n/a	APE	12	8	[0, 0, 0]	n/a	FR1	2	R1347D
899.332	0.0	1006992	WORD_OFF	n/a	n/a	APE	12	8	[0, 0, 0]	n/a	FR1	2	R1347D
899.332	0.001	1006995	PROB	0.001	n/a	n/a	-999	8	[3, 5, 1]	9	FR1	2	R1347D
899.333	0.0	1006996	START	n/a	n/a	n/a	-999	8	[-999, -999, -999]	n/a	FR1	2	R1347D
899.333	0.0	1007003	ENCODING_END	n/a	n/a	n/a	-999	8	[0, 0, 0]	n/a	FR1	2	R1347D
899.333	15.599	1007003	DISTRACT_START	n/a	n/a	n/a	-999	8	[0, 0, 0]	n/a	FR1	2	R1347D
914.932	5.266	1022594	PROB	5.266	n/a	n/a	-999	8	[6, 4, 8]	18	FR1	2	R1347D
920.198	0.0	1027857	DISTRACT_END	n/a	n/a	n/a	-999	8	[0, 0, 0]	n/a	FR1	2	R1347D
920.198	1.183	1027860	STOP	n/a	n/a	n/a	-999	8	[-999, -999, -999]	n/a	FR1	2	R1347D
921.381	2.103	1029041	REC_START	n/a	n/a	n/a	-999	8	[0, 0, 0]	n/a	FR1	2	R1347D
923.484	0.436	1031146	REC_WORD	0.436	n/a	TIN	2	8	[0, 0, 0]	n/a	FR1	2	R1347D
923.92	0.708	1031582	REC_WORD	0.708	n/a	SOCK	6	8	[0, 0, 0]	n/a	FR1	2	R1347D
924.628	0.648	1032290	REC_WORD	0.648	n/a	DEW	7	8	[0, 0, 0]	n/a	FR1	2	R1347D
925.276	0.649	1032938	REC_WORD	0.649	n/a	BUSH	9	8	[0, 0, 0]	n/a	FR1	2	R1347D
925.925	16.82	1033587	REC_WORD	16.82	n/a	APE	12	8	[0, 0, 0]	n/a	FR1	2	R1347D
942.745	6.044	1050406	REC_WORD	6.044	n/a	GEESE	-999	8	[0, 0, 0]	n/a	FR1	2	R1347D
948.789	2.834	1056450	REC_WORD	2.834	n/a	BACK	-999	8	[0, 0, 0]	n/a	FR1	2	R1347D
951.623	2.109	1059286	REC_END	n/a	n/a	n/a	-999	8	[0, 0, 0]	n/a	FR1	2	R1347D
953.732	10.353	1061394	COUNTDOWN_START	n/a	n/a	n/a	-999	9	[0, 0, 0]	n/a	FR1	2	R1347D
964.085	0.0	1071742	COUNTDOWN_END	n/a	n/a	n/a	-999	9	[0, 0, 0]	n/a	FR1	2	R1347D
964.085	2.112	1071753	ENCODING_START	n/a	n/a	n/a	-999	9	[0, 0, 0]	n/a	FR1	2	R1347D
966.197	1.601	1073861	WORD	n/a	n/a	CAPE	1	9	[0, 0, 0]	n/a	FR1	2	R1347D
967.798	0.917	1075462	WORD_OFF	n/a	n/a	CAPE	1	9	[0, 0, 0]	n/a	FR1	2	R1347D
968.715	1.6	1076375	WORD	n/a	n/a	KITE	2	9	[0, 0, 0]	n/a	FR1	2	R1347D
970.315	0.767	1077976	WORD_OFF	n/a	n/a	KITE	2	9	[0, 0, 0]	n/a	FR1	2	R1347D
971.082	1.616	1078742	WORD	n/a	n/a	RAMP	3	9	[0, 0, 0]	n/a	FR1	2	R1347D
972.698	0.867	1080354	WORD_OFF	n/a	n/a	RAMP	3	9	[0, 0, 0]	n/a	FR1	2	R1347D
973.565	1.6	1081222	WORD	n/a	n/a	PIT	4	9	[0, 0, 0]	n/a	FR1	2	R1347D
975.165	0.983	1082823	WORD_OFF	n/a	n/a	PIT	4	9	[0, 0, 0]	n/a	FR1	2	R1347D
976.148	1.6	1083804	WORD	n/a	n/a	WORM	5	9	[0, 0, 0]	n/a	FR1	2	R1347D
977.748	0.767	1085405	WORD_OFF	n/a	n/a	WORM	5	9	[0, 0, 0]	n/a	FR1	2	R1347D
978.515	1.6	1086171	WORD	n/a	n/a	CLOTH	6	9	[0, 0, 0]	n/a	FR1	2	R1347D
980.115	0.9	1087772	WORD_OFF	n/a	n/a	CLOTH	6	9	[0, 0, 0]	n/a	FR1	2	R1347D
981.015	1.616	1088674	WORD	n/a	n/a	SEAT	7	9	[0, 0, 0]	n/a	FR1	2	R1347D
982.631	0.867	1090297	WORD_OFF	n/a	n/a	SEAT	7	9	[0, 0, 0]	n/a	FR1	2	R1347D
983.498	1.6	1091165	WORD	n/a	n/a	FENCE	8	9	[0, 0, 0]	n/a	FR1	2	R1347D
985.098	0.967	1092754	WORD_OFF	n/a	n/a	FENCE	8	9	[0, 0, 0]	n/a	FR1	2	R1347D
986.065	1.6	1093724	WORD	n/a	n/a	BOOT	9	9	[0, 0, 0]	n/a	FR1	2	R1347D
987.665	1.0	1095325	WORD_OFF	n/a	n/a	BOOT	9	9	[0, 0, 0]	n/a	FR1	2	R1347D
988.665	1.6	1096328	WORD	n/a	n/a	TROUT	10	9	[0, 0, 0]	n/a	FR1	2	R1347D
990.265	0.916	1097929	WORD_OFF	n/a	n/a	TROUT	10	9	[0, 0, 0]	n/a	FR1	2	R1347D
991.181	1.6	1098842	WORD	n/a	n/a	PHONE	11	9	[0, 0, 0]	n/a	FR1	2	R1347D
992.781	0.95	1100442	WORD_OFF	n/a	n/a	PHONE	11	9	[0, 0, 0]	n/a	FR1	2	R1347D
993.731	1.618	1101389	WORD	n/a	n/a	POT	12	9	[0, 0, 0]	n/a	FR1	2	R1347D
995.349	0.0	1103007	START	n/a	n/a	n/a	-999	9	[-999, -999, -999]	n/a	FR1	2	R1347D
995.349	0.0	1103007	PROB	0.0	n/a	n/a	-999	9	[1, 5, 3]	9	FR1	2	R1347D
995.348	0.001	1103013	WORD_OFF	n/a	n/a	POT	12	9	[0, 0, 0]	n/a	FR1	2	R1347D
995.349	0.0	1103013	ENCODING_END	n/a	n/a	n/a	-999	9	[0, 0, 0]	n/a	FR1	2	R1347D
995.349	26.582	1103013	DISTRACT_START	n/a	n/a	n/a	-999	9	[0, 0, 0]	n/a	FR1	2	R1347D
1021.931	0.0	1129588	STOP	n/a	n/a	n/a	-999	9	[-999, -999, -999]	n/a	FR1	2	R1347D
1021.931	1.067	1129594	DISTRACT_END	n/a	n/a	n/a	-999	9	[0, 0, 0]	n/a	FR1	2	R1347D
1022.998	2.625	1130653	REC_START	n/a	n/a	n/a	-999	9	[0, 0, 0]	n/a	FR1	2	R1347D
1025.623	1.715	1133280	REC_WORD	1.715	n/a	SEAT	7	9	[0, 0, 0]	n/a	FR1	2	R1347D
1027.338	2.846	1134995	REC_WORD	2.846	n/a	POT	12	9	[0, 0, 0]	n/a	FR1	2	R1347D
1030.184	3.3	1137841	REC_WORD	3.3	n/a	FENCE	8	9	[0, 0, 0]	n/a	FR1	2	R1347D
1033.484	19.767	1141140	REC_WORD	19.767	n/a	BOOT	9	9	[0, 0, 0]	n/a	FR1	2	R1347D
1053.251	1.264	1160909	REC_END	n/a	n/a	n/a	-999	9	[0, 0, 0]	n/a	FR1	2	R1347D
1054.515	10.35	1162172	COUNTDOWN_START	n/a	n/a	n/a	-999	10	[0, 0, 0]	n/a	FR1	2	R1347D
1064.865	0.0	1172520	COUNTDOWN_END	n/a	n/a	n/a	-999	10	[0, 0, 0]	n/a	FR1	2	R1347D
1064.865	2.05	1172520	ENCODING_START	n/a	n/a	n/a	-999	10	[0, 0, 0]	n/a	FR1	2	R1347D
1066.915	1.6	1174572	WORD	n/a	n/a	STORM	1	10	[0, 0, 0]	n/a	FR1	2	R1347D
1068.515	0.883	1176172	WORD_OFF	n/a	n/a	STORM	1	10	[0, 0, 0]	n/a	FR1	2	R1347D
1069.398	1.617	1177052	WORD	n/a	n/a	JAIL	2	10	[0, 0, 0]	n/a	FR1	2	R1347D
1071.015	0.966	1178675	WORD_OFF	n/a	n/a	JAIL	2	10	[0, 0, 0]	n/a	FR1	2	R1347D
1071.981	1.601	1179633	WORD	n/a	n/a	BADGE	3	10	[0, 0, 0]	n/a	FR1	2	R1347D
1073.582	0.983	1181234	WORD_OFF	n/a	n/a	BADGE	3	10	[0, 0, 0]	n/a	FR1	2	R1347D
1074.565	1.6	1182226	WORD	n/a	n/a	JAW	4	10	[0, 0, 0]	n/a	FR1	2	R1347D
1076.165	0.883	1183815	WORD_OFF	n/a	n/a	JAW	4	10	[0, 0, 0]	n/a	FR1	2	R1347D
1077.048	1.617	1184706	WORD	n/a	n/a	LAWN	5	10	[0, 0, 0]	n/a	FR1	2	R1347D
1078.665	0.8	1186318	WORD_OFF	n/a	n/a	LAWN	5	10	[0, 0, 0]	n/a	FR1	2	R1347D
1079.465	1.616	1187118	WORD	n/a	n/a	TOAD	6	10	[0, 0, 0]	n/a	FR1	2	R1347D
1081.081	1.0	1188730	WORD_OFF	n/a	n/a	TOAD	6	10	[0, 0, 0]	n/a	FR1	2	R1347D
1082.081	1.601	1189734	WORD	n/a	n/a	POOL	7	10	[0, 0, 0]	n/a	FR1	2	R1347D
1083.682	0.783	1191334	WORD_OFF	n/a	n/a	POOL	7	10	[0, 0, 0]	n/a	FR1	2	R1347D
1084.465	1.6	1192123	WORD	n/a	n/a	SKIN	8	10	[0, 0, 0]	n/a	FR1	2	R1347D
1086.065	0.95	1193724	WORD_OFF	n/a	n/a	SKIN	8	10	[0, 0, 0]	n/a	FR1	2	R1347D
1087.015	1.6	1194671	WORD	n/a	n/a	KEY	9	10	[0, 0, 0]	n/a	FR1	2	R1347D
1088.615	0.783	1196272	WORD_OFF	n/a	n/a	KEY	9	10	[0, 0, 0]	n/a	FR1	2	R1347D
1089.398	1.617	1197050	WORD	n/a	n/a	DOG	10	10	[0, 0, 0]	n/a	FR1	2	R1347D
1091.015	0.833	1198673	WORD_OFF	n/a	n/a	DOG	10	10	[0, 0, 0]	n/a	FR1	2	R1347D
1091.848	1.6	1199507	WORD	n/a	n/a	MOON	11	10	[0, 0, 0]	n/a	FR1	2	R1347D
1093.448	0.767	1201108	WORD_OFF	n/a	n/a	MOON	11	10	[0, 0, 0]	n/a	FR1	2	R1347D
1094.215	1.601	1201874	WORD	n/a	n/a	STONE	12	10	[0, 0, 0]	n/a	FR1	2	R1347D
1095.816	0.0	1203469	START	n/a	n/a	n/a	-999	10	[-999, -999, -999]	n/a	FR1	2	R1347D
1095.816	0.0	1203469	PROB	0.0	n/a	n/a	-999	10	[8, 1, 4]	13	FR1	2	R1347D
1095.815	0.001	1203475	WORD_OFF	n/a	n/a	STONE	12	10	[0, 0, 0]	n/a	FR1	2	R1347D
1095.816	0.0	1203475	ENCODING_END	n/a	n/a	n/a	-999	10	[0, 0, 0]	n/a	FR1	2	R1347D
1095.816	32.298	1203475	DISTRACT_START	n/a	n/a	n/a	-999	10	[0, 0, 0]	n/a	FR1	2	R1347D
1128.114	0.0	1235766	STOP	n/a	n/a	n/a	-999	10	[-999, -999, -999]	n/a	FR1	2	R1347D
1128.114	1.25	1235771	DISTRACT_END	n/a	n/a	n/a	-999	10	[0, 0, 0]	n/a	FR1	2	R1347D
1129.364	4.282	1237023	REC_START	n/a	n/a	n/a	-999	10	[0, 0, 0]	n/a	FR1	2	R1347D
1133.646	1.117	1241297	REC_WORD	1.117	n/a	JAIL	2	10	[0, 0, 0]	n/a	FR1	2	R1347D
1134.763	5.773	1242414	REC_WORD	5.773	n/a	SKIN	8	10	[0, 0, 0]	n/a	FR1	2	R1347D
1140.536	7.068	1248187	REC_WORD	7.068	n/a	LAW	-999	10	[0, 0, 0]	n/a	FR1	2	R1347D
1147.604	12.0	1255255	REC_WORD	12.0	n/a	BOOT	-999	10	[0, 0, 0]	n/a	FR1	2	R1347D
1159.604	2.028	1267256	REC_END	n/a	n/a	n/a	-999	10	[0, 0, 0]	n/a	FR1	2	R1347D
1161.632	10.35	1269285	COUNTDOWN_START	n/a	n/a	n/a	-999	11	[0, 0, 0]	n/a	FR1	2	R1347D
1171.982	0.0	1279633	COUNTDOWN_END	n/a	n/a	n/a	-999	11	[0, 0, 0]	n/a	FR1	2	R1347D
1171.982	2.165	1279633	ENCODING_START	n/a	n/a	n/a	-999	11	[0, 0, 0]	n/a	FR1	2	R1347D
1174.147	1.601	1281798	WORD	n/a	n/a	GUN	1	11	[0, 0, 0]	n/a	FR1	2	R1347D
1175.748	0.883	1283399	WORD_OFF	n/a	n/a	GUN	1	11	[0, 0, 0]	n/a	FR1	2	R1347D
1176.631	1.6	1284278	WORD	n/a	n/a	CAGE	2	11	[0, 0, 0]	n/a	FR1	2	R1347D
1178.231	0.9	1285879	WORD_OFF	n/a	n/a	CAGE	2	11	[0, 0, 0]	n/a	FR1	2	R1347D
1179.131	1.617	1286780	WORD	n/a	n/a	PRINCE	3	11	[0, 0, 0]	n/a	FR1	2	R1347D
1180.748	0.85	1288392	WORD_OFF	n/a	n/a	PRINCE	3	11	[0, 0, 0]	n/a	FR1	2	R1347D
1181.598	1.617	1289249	WORD	n/a	n/a	OIL	4	11	[0, 0, 0]	n/a	FR1	2	R1347D
1183.215	0.866	1290861	WORD_OFF	n/a	n/a	OIL	4	11	[0, 0, 0]	n/a	FR1	2	R1347D
1184.081	1.6	1291729	WORD	n/a	n/a	TANK	5	11	[0, 0, 0]	n/a	FR1	2	R1347D
1185.681	0.817	1293330	WORD_OFF	n/a	n/a	TANK	5	11	[0, 0, 0]	n/a	FR1	2	R1347D
1186.498	1.6	1294153	WORD	n/a	n/a	SOIL	6	11	[0, 0, 0]	n/a	FR1	2	R1347D
1188.098	0.817	1295742	WORD_OFF	n/a	n/a	SOIL	6	11	[0, 0, 0]	n/a	FR1	2	R1347D
1188.915	1.6	1296565	WORD	n/a	n/a	WORLD	7	11	[0, 0, 0]	n/a	FR1	2	R1347D
1190.515	0.783	1298166	WORD_OFF	n/a	n/a	WORLD	7	11	[0, 0, 0]	n/a	FR1	2	R1347D
1191.298	1.617	1298944	WORD	n/a	n/a	BOOK	8	11	[0, 0, 0]	n/a	FR1	2	R1347D
1192.915	0.967	1300567	WORD_OFF	n/a	n/a	BOOK	8	11	[0, 0, 0]	n/a	FR1	2	R1347D
1193.882	1.6	1301536	WORD	n/a	n/a	THUMB	9	11	[0, 0, 0]	n/a	FR1	2	R1347D
1195.482	0.966	1303126	WORD_OFF	n/a	n/a	THUMB	9	11	[0, 0, 0]	n/a	FR1	2	R1347D
1196.448	1.6	1304095	WORD	n/a	n/a	LIP	10	11	[0, 0, 0]	n/a	FR1	2	R1347D
1198.048	0.8	1305696	WORD_OFF	n/a	n/a	LIP	10	11	[0, 0, 0]	n/a	FR1	2	R1347D
1198.848	1.6	1306496	WORD	n/a	n/a	AISLE	11	11	[0, 0, 0]	n/a	FR1	2	R1347D
1200.448	0.867	1308097	WORD_OFF	n/a	n/a	AISLE	11	11	[0, 0, 0]	n/a	FR1	2	R1347D
1201.315	1.601	1308965	WORD	n/a	n/a	FLAG	12	11	[0, 0, 0]	n/a	FR1	2	R1347D
1202.916	0.0	1310564	START	n/a	n/a	n/a	-999	11	[-999, -999, -999]	n/a	FR1	2	R1347D
1202.916	0.0	1310564	PROB	0.0	n/a	n/a	-999	11	[2, 6, 2]	10	FR1	2	R1347D
1202.915	0.001	1310566	WORD_OFF	n/a	n/a	FLAG	12	11	[0, 0, 0]	n/a	FR1	2	R1347D
1202.916	0.0	1310566	ENCODING_END	n/a	n/a	n/a	-999	11	[0, 0, 0]	n/a	FR1	2	R1347D
1202.916	14.133	1310566	DISTRACT_START	n/a	n/a	n/a	-999	11	[0, 0, 0]	n/a	FR1	2	R1347D
1217.049	27.882	1324696	PROB	27.882	n/a	n/a	-999	11	[7, 3, 8]	18	FR1	2	R1347D
1244.931	0.0	1352577	STOP	n/a	n/a	n/a	-999	11	[-999, -999, -999]	n/a	FR1	2	R1347D
1244.931	1.083	1352579	DISTRACT_END	n/a	n/a	n/a	-999	11	[0, 0, 0]	n/a	FR1	2	R1347D
1246.014	3.354	1353661	REC_START	n/a	n/a	n/a	-999	11	[0, 0, 0]	n/a	FR1	2	R1347D
1249.368	0.712	1357013	REC_WORD	0.712	n/a	GUN	1	11	[0, 0, 0]	n/a	FR1	2	R1347D
1250.08	7.276	1357725	REC_WORD	7.276	n/a	OIL	4	11	[0, 0, 0]	n/a	FR1	2	R1347D
1257.356	7.164	1365001	REC_WORD	7.164	n/a	SKIN	-999	11	[0, 0, 0]	n/a	FR1	2	R1347D
1264.52	11.717	1372165	REC_WORD	11.717	n/a	BOOT	-999	11	[0, 0, 0]	n/a	FR1	2	R1347D
1276.237	2.395	1383884	REC_END	n/a	n/a	n/a	-999	11	[0, 0, 0]	n/a	FR1	2	R1347D
1278.632	10.35	1386273	COUNTDOWN_START	n/a	n/a	n/a	-999	12	[0, 0, 0]	n/a	FR1	2	R1347D
1288.982	0.0	1396622	COUNTDOWN_END	n/a	n/a	n/a	-999	12	[0, 0, 0]	n/a	FR1	2	R1347D
1288.982	1.915	1396633	ENCODING_START	n/a	n/a	n/a	-999	12	[0, 0, 0]	n/a	FR1	2	R1347D
1290.897	1.6	1398538	WORD	n/a	n/a	POND	1	12	[0, 0, 0]	n/a	FR1	2	R1347D
1292.497	0.851	1400139	WORD_OFF	n/a	n/a	POND	1	12	[0, 0, 0]	n/a	FR1	2	R1347D
1293.348	1.6	1400996	WORD	n/a	n/a	HOG	2	12	[0, 0, 0]	n/a	FR1	2	R1347D
1294.948	0.883	1402596	WORD_OFF	n/a	n/a	HOG	2	12	[0, 0, 0]	n/a	FR1	2	R1347D
1295.831	1.6	1403476	WORD	n/a	n/a	THREAD	3	12	[0, 0, 0]	n/a	FR1	2	R1347D
1297.431	0.834	1405076	WORD_OFF	n/a	n/a	THREAD	3	12	[0, 0, 0]	n/a	FR1	2	R1347D
1298.265	1.6	1405910	WORD	n/a	n/a	LAND	4	12	[0, 0, 0]	n/a	FR1	2	R1347D
1299.865	0.95	1407511	WORD_OFF	n/a	n/a	LAND	4	12	[0, 0, 0]	n/a	FR1	2	R1347D
1300.815	1.616	1408458	WORD	n/a	n/a	BLOOD	5	12	[0, 0, 0]	n/a	FR1	2	R1347D
1302.431	0.784	1410070	WORD_OFF	n/a	n/a	BLOOD	5	12	[0, 0, 0]	n/a	FR1	2	R1347D
1303.215	1.6	1410859	WORD	n/a	n/a	EGG	6	12	[0, 0, 0]	n/a	FR1	2	R1347D
1304.815	0.933	1412460	WORD_OFF	n/a	n/a	EGG	6	12	[0, 0, 0]	n/a	FR1	2	R1347D
1305.748	1.6	1413396	WORD	n/a	n/a	TIE	7	12	[0, 0, 0]	n/a	FR1	2	R1347D
1307.348	0.967	1414996	WORD_OFF	n/a	n/a	TIE	7	12	[0, 0, 0]	n/a	FR1	2	R1347D
1308.315	1.616	1415954	WORD	n/a	n/a	BOLT	8	12	[0, 0, 0]	n/a	FR1	2	R1347D
1309.931	0.984	1417578	WORD_OFF	n/a	n/a	BOLT	8	12	[0, 0, 0]	n/a	FR1	2	R1347D
1310.915	1.6	1418558	WORD	n/a	n/a	CHALK	9	12	[0, 0, 0]	n/a	FR1	2	R1347D
1312.515	0.867	1420159	WORD_OFF	n/a	n/a	CHALK	9	12	[0, 0, 0]	n/a	FR1	2	R1347D
1313.382	1.599	1421027	WORD	n/a	n/a	RUG	10	12	[0, 0, 0]	n/a	FR1	2	R1347D
1314.981	0.851	1422628	WORD_OFF	n/a	n/a	RUG	10	12	[0, 0, 0]	n/a	FR1	2	R1347D
1315.832	1.615	1423473	WORD	n/a	n/a	GLOBE	11	12	[0, 0, 0]	n/a	FR1	2	R1347D
1317.447	0.968	1425085	WORD_OFF	n/a	n/a	GLOBE	11	12	[0, 0, 0]	n/a	FR1	2	R1347D
1318.415	1.6	1426055	WORD	n/a	n/a	VINE	12	12	[0, 0, 0]	n/a	FR1	2	R1347D
1320.015	0.001	1427656	WORD_OFF	n/a	n/a	VINE	12	12	[0, 0, 0]	n/a	FR1	2	R1347D
1320.016	0.0	1427656	ENCODING_END	n/a	n/a	n/a	-999	12	[0, 0, 0]	n/a	FR1	2	R1347D
1320.016	0.0	1427656	DISTRACT_START	n/a	n/a	n/a	-999	12	[0, 0, 0]	n/a	FR1	2	R1347D
1320.016	0.0	1427658	START	n/a	n/a	n/a	-999	12	[-999, -999, -999]	n/a	FR1	2	R1347D
1320.016	22.065	1427658	PROB	22.065	n/a	n/a	-999	12	[6, 5, 3]	14	FR1	2	R1347D
1342.081	0.0	1449722	STOP	n/a	n/a	n/a	-999	12	[-999, -999, -999]	n/a	FR1	2	R1347D
1342.081	1.167	1449728	DISTRACT_END	n/a	n/a	n/a	-999	12	[0, 0, 0]	n/a	FR1	2	R1347D
1343.248	2.179	1450889	REC_START	n/a	n/a	n/a	-999	12	[0, 0, 0]	n/a	FR1	2	R1347D
1345.427	0.772	1453067	REC_WORD	0.772	n/a	POND	1	12	[0, 0, 0]	n/a	FR1	2	R1347D
1346.199	0.816	1453839	REC_WORD	0.816	n/a	EGG	6	12	[0, 0, 0]	n/a	FR1	2	R1347D
1347.015	0.801	1454655	REC_WORD	0.801	n/a	TIE	7	12	[0, 0, 0]	n/a	FR1	2	R1347D
1347.816	0.696	1455456	REC_WORD	0.696	n/a	BOLT	8	12	[0, 0, 0]	n/a	FR1	2	R1347D
1348.512	24.958	1456152	REC_WORD	24.958	n/a	RUG	10	12	[0, 0, 0]	n/a	FR1	2	R1347D
1373.47	0.0	1481111	REC_END	n/a	n/a	n/a	-999	12	[0, 0, 0]	n/a	FR1	2	R1347D
