onset	duration	sample	trial_type	response_time	stim_file	item_name	serialpos	list	test	answer	experiment	session	subject
0.0	666.756	-1	INSTRUCT_START	n/a	n/a	n/a	-999	-999	[0, 0, 0]	n/a	FR1	1	R1309M
666.756	117.088	1348	INSTRUCT_START	n/a	n/a	n/a	-999	-999	[0, 0, 0]	n/a	FR1	1	R1309M
783.844	3.385	118430	INSTRUCT_END	n/a	n/a	n/a	-999	-999	[0, 0, 0]	n/a	FR1	1	R1309M
787.229	7.803	121815	MIC TEST_START	n/a	n/a	n/a	-999	-999	[0, 0, 0]	n/a	FR1	1	R1309M
795.032	0.011	129618	MIC TEST_END	n/a	n/a	n/a	-999	-999	[0, 0, 0]	n/a	FR1	1	R1309M
795.043	0.001	129629	TRIAL_START	n/a	n/a	n/a	-999	-1	[0, 0, 0]	n/a	FR1	1	R1309M
795.044	0.0	129630	TRIAL	n/a	n/a	n/a	-999	-1	[0, 0, 0]	n/a	FR1	1	R1309M
795.044	2.686	129630	WAITING_START	n/a	n/a	n/a	-999	-1	[0, 0, 0]	n/a	FR1	1	R1309M
797.73	0.001	132315	WAITING_END	n/a	n/a	n/a	-999	-1	[0, 0, 0]	n/a	FR1	1	R1309M
797.731	10.429	132316	COUNTDOWN_START	n/a	n/a	n/a	-999	-1	[0, 0, 0]	n/a	FR1	1	R1309M
808.16	0.0	142745	COUNTDOWN_END	n/a	n/a	n/a	-999	-1	[0, 0, 0]	n/a	FR1	1	R1309M
808.16	1.122	142745	ORIENT_START	n/a	n/a	n/a	-999	-1	[0, 0, 0]	n/a	FR1	1	R1309M
809.282	0.001	143867	ORIENT_END	n/a	n/a	n/a	-999	-1	[0, 0, 0]	n/a	FR1	1	R1309M
809.283	1.094	143868	ENCODING_START	n/a	n/a	n/a	-999	-1	[0, 0, 0]	n/a	FR1	1	R1309M
810.377	1.623	144962	WORD	n/a	n/a	RHINO	1	-1	[0, 0, 0]	n/a	FR1	1	R1309M
812.0	0.757	146585	WORD_OFF	n/a	n/a	RHINO	1	-1	[0, 0, 0]	n/a	FR1	1	R1309M
812.757	1.627	147342	WORD	n/a	n/a	CHEST	2	-1	[0, 0, 0]	n/a	FR1	1	R1309M
814.384	1.053	148969	WORD_OFF	n/a	n/a	CHEST	2	-1	[0, 0, 0]	n/a	FR1	1	R1309M
815.437	1.63	150022	WORD	n/a	n/a	FLOOD	3	-1	[0, 0, 0]	n/a	FR1	1	R1309M
817.067	0.807	151651	WORD_OFF	n/a	n/a	FLOOD	3	-1	[0, 0, 0]	n/a	FR1	1	R1309M
817.874	1.627	152458	WORD	n/a	n/a	COTTON	4	-1	[0, 0, 0]	n/a	FR1	1	R1309M
819.501	0.778	154085	WORD_OFF	n/a	n/a	COTTON	4	-1	[0, 0, 0]	n/a	FR1	1	R1309M
820.279	1.623	154863	WORD	n/a	n/a	BEAM	5	-1	[0, 0, 0]	n/a	FR1	1	R1309M
821.902	1.056	156486	WORD_OFF	n/a	n/a	BEAM	5	-1	[0, 0, 0]	n/a	FR1	1	R1309M
822.958	1.628	157542	WORD	n/a	n/a	WATCH	6	-1	[0, 0, 0]	n/a	FR1	1	R1309M
824.586	1.063	159170	WORD_OFF	n/a	n/a	WATCH	6	-1	[0, 0, 0]	n/a	FR1	1	R1309M
825.649	1.637	160233	WORD	n/a	n/a	WAGON	7	-1	[0, 0, 0]	n/a	FR1	1	R1309M
827.286	0.956	161870	WORD_OFF	n/a	n/a	WAGON	7	-1	[0, 0, 0]	n/a	FR1	1	R1309M
828.242	1.628	162826	WORD	n/a	n/a	CAMEL	8	-1	[0, 0, 0]	n/a	FR1	1	R1309M
829.87	1.126	164454	WORD_OFF	n/a	n/a	CAMEL	8	-1	[0, 0, 0]	n/a	FR1	1	R1309M
830.996	1.624	165580	WORD	n/a	n/a	RING	9	-1	[0, 0, 0]	n/a	FR1	1	R1309M
832.62	0.931	167204	WORD_OFF	n/a	n/a	RING	9	-1	[0, 0, 0]	n/a	FR1	1	R1309M
833.551	1.636	168135	WORD	n/a	n/a	BABY	10	-1	[0, 0, 0]	n/a	FR1	1	R1309M
835.187	0.976	169771	WORD_OFF	n/a	n/a	BABY	10	-1	[0, 0, 0]	n/a	FR1	1	R1309M
836.163	1.625	170747	WORD	n/a	n/a	TONGUE	11	-1	[0, 0, 0]	n/a	FR1	1	R1309M
837.788	0.919	172371	WORD_OFF	n/a	n/a	TONGUE	11	-1	[0, 0, 0]	n/a	FR1	1	R1309M
838.707	1.631	173290	WORD	n/a	n/a	IMAGE	12	-1	[0, 0, 0]	n/a	FR1	1	R1309M
840.338	0.001	174921	WORD_OFF	n/a	n/a	IMAGE	12	-1	[0, 0, 0]	n/a	FR1	1	R1309M
840.339	0.0	174922	ENCODING_END	n/a	n/a	n/a	-999	-1	[0, 0, 0]	n/a	FR1	1	R1309M
840.339	0.0	174922	DISTRACT_START	n/a	n/a	n/a	-999	-1	[0, 0, 0]	n/a	FR1	1	R1309M
840.339	0.016	174922	START	n/a	n/a	n/a	-999	-1	[-999, -999, -999]	n/a	FR1	1	R1309M
840.355	11.635	174938	PROB	11.635	n/a	n/a	-999	-1	[8, 3, 3]	14	FR1	1	R1309M
851.99	8.884	186573	PROB	8.884	n/a	n/a	-999	-1	[5, 7, 9]	21	FR1	1	R1309M
860.874	0.018	195456	STOP	n/a	n/a	n/a	-999	-1	[-999, -999, -999]	n/a	FR1	1	R1309M
860.892	0.592	195474	DISTRACT_END	n/a	n/a	n/a	-999	-1	[0, 0, 0]	n/a	FR1	1	R1309M
861.484	1.559	196066	RETRIEVAL_ORIENT_START	n/a	n/a	n/a	-999	-1	[0, 0, 0]	n/a	FR1	1	R1309M
863.043	0.0	197625	RETRIEVAL_ORIENT_END	n/a	n/a	n/a	-999	-1	[0, 0, 0]	n/a	FR1	1	R1309M
863.043	0.839	197625	REC_START	n/a	n/a	n/a	-999	-1	[0, 0, 0]	n/a	FR1	1	R1309M
863.882	1.503	198464	REC_WORD	1.503	n/a	RHINO	1	-1	[0, 0, 0]	n/a	FR1	1	R1309M
865.385	1.597	199967	REC_WORD	1.597	n/a	TONGUE	11	-1	[0, 0, 0]	n/a	FR1	1	R1309M
866.982	1.224	201564	REC_WORD	1.224	n/a	BABY	10	-1	[0, 0, 0]	n/a	FR1	1	R1309M
868.206	1.412	202788	REC_WORD	1.412	n/a	COTTON	4	-1	[0, 0, 0]	n/a	FR1	1	R1309M
869.618	2.097	204200	REC_WORD	2.097	n/a	FLOOD	3	-1	[0, 0, 0]	n/a	FR1	1	R1309M
871.715	1.583	206297	REC_WORD	1.583	n/a	BEAM	5	-1	[0, 0, 0]	n/a	FR1	1	R1309M
873.298	1.394	207880	REC_WORD	1.394	n/a	CAMEL	8	-1	[0, 0, 0]	n/a	FR1	1	R1309M
874.692	1.986	209274	REC_WORD	1.986	n/a	RING	9	-1	[0, 0, 0]	n/a	FR1	1	R1309M
876.678	4.166	211260	REC_WORD	4.166	n/a	IMAGE	12	-1	[0, 0, 0]	n/a	FR1	1	R1309M
880.844	12.211	215425	REC_WORD	12.211	n/a	CHEST	2	-1	[0, 0, 0]	n/a	FR1	1	R1309M
893.055	0.001	227636	REC_END	n/a	n/a	n/a	-999	-1	[0, 0, 0]	n/a	FR1	1	R1309M
893.056	6.078	227637	PRACTICE_POST_INSTRUCT_START	n/a	n/a	n/a	-999	-1	[0, 0, 0]	n/a	FR1	1	R1309M
899.134	0.0	233715	PRACTICE_POST_INSTRUCT_END	n/a	n/a	n/a	-999	-1	[0, 0, 0]	n/a	FR1	1	R1309M
899.134	0.018	233715	TRIAL_END	n/a	n/a	n/a	-999	-1	[0, 0, 0]	n/a	FR1	1	R1309M
899.152	0.0	233733	WAITING_START	n/a	n/a	n/a	-999	1	[0, 0, 0]	n/a	FR1	1	R1309M
899.152	0.0	233733	TRIAL_START	n/a	n/a	n/a	-999	1	[0, 0, 0]	n/a	FR1	1	R1309M
899.152	2.848	233733	TRIAL	n/a	n/a	n/a	-999	1	[0, 0, 0]	n/a	FR1	1	R1309M
902.0	0.001	236580	WAITING_END	n/a	n/a	n/a	-999	1	[0, 0, 0]	n/a	FR1	1	R1309M
902.001	10.431	236581	COUNTDOWN_START	n/a	n/a	n/a	-999	1	[0, 0, 0]	n/a	FR1	1	R1309M
912.432	0.0	247012	COUNTDOWN_END	n/a	n/a	n/a	-999	1	[0, 0, 0]	n/a	FR1	1	R1309M
912.432	1.121	247012	ORIENT_START	n/a	n/a	n/a	-999	1	[0, 0, 0]	n/a	FR1	1	R1309M
913.553	0.0	248133	ORIENT_END	n/a	n/a	n/a	-999	1	[0, 0, 0]	n/a	FR1	1	R1309M
913.553	1.016	248133	ENCODING_START	n/a	n/a	n/a	-999	1	[0, 0, 0]	n/a	FR1	1	R1309M
914.569	1.634	249149	WORD	n/a	wordpools/wordpool_EN.txt	GOLD	1	1	[0, 0, 0]	n/a	FR1	1	R1309M
916.203	0.874	250783	WORD_OFF	n/a	n/a	GOLD	1	1	[0, 0, 0]	n/a	FR1	1	R1309M
917.077	1.627	251657	WORD	n/a	wordpools/wordpool_EN.txt	CAPE	2	1	[0, 0, 0]	n/a	FR1	1	R1309M
918.704	1.039	253284	WORD_OFF	n/a	n/a	CAPE	2	1	[0, 0, 0]	n/a	FR1	1	R1309M
919.743	1.628	254323	WORD	n/a	wordpools/wordpool_EN.txt	SHIP	3	1	[0, 0, 0]	n/a	FR1	1	R1309M
921.371	0.775	255950	WORD_OFF	n/a	n/a	SHIP	3	1	[0, 0, 0]	n/a	FR1	1	R1309M
922.146	1.625	256725	WORD	n/a	wordpools/wordpool_EN.txt	ROCK	4	1	[0, 0, 0]	n/a	FR1	1	R1309M
923.771	0.934	258350	WORD_OFF	n/a	n/a	ROCK	4	1	[0, 0, 0]	n/a	FR1	1	R1309M
924.705	1.633	259284	WORD	n/a	wordpools/wordpool_EN.txt	RIB	5	1	[0, 0, 0]	n/a	FR1	1	R1309M
926.338	0.985	260917	WORD_OFF	n/a	n/a	RIB	5	1	[0, 0, 0]	n/a	FR1	1	R1309M
927.323	1.633	261902	WORD	n/a	wordpools/wordpool_EN.txt	MAP	6	1	[0, 0, 0]	n/a	FR1	1	R1309M
928.956	1.001	263535	WORD_OFF	n/a	n/a	MAP	6	1	[0, 0, 0]	n/a	FR1	1	R1309M
929.957	1.632	264536	WORD	n/a	wordpools/wordpool_EN.txt	CHALK	7	1	[0, 0, 0]	n/a	FR1	1	R1309M
931.589	1.014	266168	WORD_OFF	n/a	n/a	CHALK	7	1	[0, 0, 0]	n/a	FR1	1	R1309M
932.603	1.637	267182	WORD	n/a	wordpools/wordpool_EN.txt	PEN	8	1	[0, 0, 0]	n/a	FR1	1	R1309M
934.24	0.931	268819	WORD_OFF	n/a	n/a	PEN	8	1	[0, 0, 0]	n/a	FR1	1	R1309M
935.171	1.636	269750	WORD	n/a	wordpools/wordpool_EN.txt	APE	9	1	[0, 0, 0]	n/a	FR1	1	R1309M
936.807	0.891	271386	WORD_OFF	n/a	n/a	APE	9	1	[0, 0, 0]	n/a	FR1	1	R1309M
937.698	1.626	272277	WORD	n/a	wordpools/wordpool_EN.txt	SHOE	10	1	[0, 0, 0]	n/a	FR1	1	R1309M
939.324	0.796	273903	WORD_OFF	n/a	n/a	SHOE	10	1	[0, 0, 0]	n/a	FR1	1	R1309M
940.12	1.621	274699	WORD	n/a	wordpools/wordpool_EN.txt	FLEA	11	1	[0, 0, 0]	n/a	FR1	1	R1309M
941.741	1.08	276319	WORD_OFF	n/a	n/a	FLEA	11	1	[0, 0, 0]	n/a	FR1	1	R1309M
942.821	1.638	277399	WORD	n/a	wordpools/wordpool_EN.txt	BRUSH	12	1	[0, 0, 0]	n/a	FR1	1	R1309M
944.459	0.0	279037	WORD_OFF	n/a	n/a	BRUSH	12	1	[0, 0, 0]	n/a	FR1	1	R1309M
944.459	0.0	279037	ENCODING_END	n/a	n/a	n/a	-999	1	[0, 0, 0]	n/a	FR1	1	R1309M
944.459	0.0	279037	DISTRACT_START	n/a	n/a	n/a	-999	1	[0, 0, 0]	n/a	FR1	1	R1309M
944.459	0.016	279037	START	n/a	n/a	n/a	-999	1	[-999, -999, -999]	n/a	FR1	1	R1309M
944.475	4.934	279053	PROB	4.934	n/a	n/a	-999	1	[9, 8, 1]	18	FR1	1	R1309M
949.409	4.834	283987	PROB	4.834	n/a	n/a	-999	1	[2, 3, 8]	12	FR1	1	R1309M
954.243	4.251	288821	PROB	4.251	n/a	n/a	-999	1	[8, 2, 2]	12	FR1	1	R1309M
958.494	7.848	293072	PROB	7.848	n/a	n/a	-999	1	[5, 9, 8]	21	FR1	1	R1309M
966.342	0.021	300919	STOP	n/a	n/a	n/a	-999	1	[-999, -999, -999]	n/a	FR1	1	R1309M
966.363	0.698	300940	DISTRACT_END	n/a	n/a	n/a	-999	1	[0, 0, 0]	n/a	FR1	1	R1309M
967.061	1.619	301638	RETRIEVAL_ORIENT_START	n/a	n/a	n/a	-999	1	[0, 0, 0]	n/a	FR1	1	R1309M
968.68	0.0	303257	RETRIEVAL_ORIENT_END	n/a	n/a	n/a	-999	1	[0, 0, 0]	n/a	FR1	1	R1309M
968.68	3.01	303257	REC_START	n/a	n/a	n/a	-999	1	[0, 0, 0]	n/a	FR1	1	R1309M
971.69	1.72	306267	REC_WORD	1.72	n/a	MAP	6	1	[0, 0, 0]	n/a	FR1	1	R1309M
973.41	1.464	307987	REC_WORD	1.464	n/a	CHALK	7	1	[0, 0, 0]	n/a	FR1	1	R1309M
974.874	17.228	309451	REC_WORD	17.228	n/a	PEN	8	1	[0, 0, 0]	n/a	FR1	1	R1309M
992.102	6.589	326678	REC_WORD	6.589	n/a	GOLD	1	1	[0, 0, 0]	n/a	FR1	1	R1309M
998.691	0.0	333267	TRIAL_END	n/a	n/a	n/a	-999	1	[0, 0, 0]	n/a	FR1	1	R1309M
998.691	0.014	333267	REC_END	n/a	n/a	n/a	-999	1	[0, 0, 0]	n/a	FR1	1	R1309M
998.705	0.0	333281	TRIAL_START	n/a	n/a	n/a	-999	2	[0, 0, 0]	n/a	FR1	1	R1309M
998.705	0.0	333281	TRIAL	n/a	n/a	n/a	-999	2	[0, 0, 0]	n/a	FR1	1	R1309M
998.705	5.665	333281	WAITING_START	n/a	n/a	n/a	-999	2	[0, 0, 0]	n/a	FR1	1	R1309M
1004.37	0.0	338945	WAITING_END	n/a	n/a	n/a	-999	2	[0, 0, 0]	n/a	FR1	1	R1309M
1004.37	10.43	338945	COUNTDOWN_START	n/a	n/a	n/a	-999	2	[0, 0, 0]	n/a	FR1	1	R1309M
1014.8	0.0	349375	COUNTDOWN_END	n/a	n/a	n/a	-999	2	[0, 0, 0]	n/a	FR1	1	R1309M
1014.8	1.122	349375	ORIENT_START	n/a	n/a	n/a	-999	2	[0, 0, 0]	n/a	FR1	1	R1309M
1015.922	0.001	350497	ORIENT_END	n/a	n/a	n/a	-999	2	[0, 0, 0]	n/a	FR1	1	R1309M
1015.923	0.937	350498	ENCODING_START	n/a	n/a	n/a	-999	2	[0, 0, 0]	n/a	FR1	1	R1309M
1016.86	1.629	351435	WORD	n/a	wordpools/wordpool_EN.txt	TIE	1	2	[0, 0, 0]	n/a	FR1	1	R1309M
1018.489	0.996	353064	WORD_OFF	n/a	n/a	TIE	1	2	[0, 0, 0]	n/a	FR1	1	R1309M
1019.485	1.638	354060	WORD	n/a	wordpools/wordpool_EN.txt	SMOKE	2	2	[0, 0, 0]	n/a	FR1	1	R1309M
1021.123	1.062	355698	WORD_OFF	n/a	n/a	SMOKE	2	2	[0, 0, 0]	n/a	FR1	1	R1309M
1022.185	1.622	356760	WORD	n/a	wordpools/wordpool_EN.txt	BEE	3	2	[0, 0, 0]	n/a	FR1	1	R1309M
1023.807	1.148	358382	WORD_OFF	n/a	n/a	BEE	3	2	[0, 0, 0]	n/a	FR1	1	R1309M
1024.955	1.636	359530	WORD	n/a	wordpools/wordpool_EN.txt	CAGE	4	2	[0, 0, 0]	n/a	FR1	1	R1309M
1026.591	1.054	361165	WORD_OFF	n/a	n/a	CAGE	4	2	[0, 0, 0]	n/a	FR1	1	R1309M
1027.645	1.63	362219	WORD	n/a	wordpools/wordpool_EN.txt	TRASH	5	2	[0, 0, 0]	n/a	FR1	1	R1309M
1029.275	1.097	363849	WORD_OFF	n/a	n/a	TRASH	5	2	[0, 0, 0]	n/a	FR1	1	R1309M
1030.372	1.637	364946	WORD	n/a	wordpools/wordpool_EN.txt	PET	6	2	[0, 0, 0]	n/a	FR1	1	R1309M
1032.009	0.897	366583	WORD_OFF	n/a	n/a	PET	6	2	[0, 0, 0]	n/a	FR1	1	R1309M
1032.906	1.637	367480	WORD	n/a	wordpools/wordpool_EN.txt	CAR	7	2	[0, 0, 0]	n/a	FR1	1	R1309M
1034.543	0.951	369117	WORD_OFF	n/a	n/a	CAR	7	2	[0, 0, 0]	n/a	FR1	1	R1309M
1035.494	1.632	370068	WORD	n/a	wordpools/wordpool_EN.txt	CAVE	8	2	[0, 0, 0]	n/a	FR1	1	R1309M
1037.126	0.85	371700	WORD_OFF	n/a	n/a	CAVE	8	2	[0, 0, 0]	n/a	FR1	1	R1309M
1037.976	1.634	372550	WORD	n/a	wordpools/wordpool_EN.txt	BOOT	9	2	[0, 0, 0]	n/a	FR1	1	R1309M
1039.61	0.765	374184	WORD_OFF	n/a	n/a	BOOT	9	2	[0, 0, 0]	n/a	FR1	1	R1309M
1040.375	1.636	374949	WORD	n/a	wordpools/wordpool_EN.txt	TANK	10	2	[0, 0, 0]	n/a	FR1	1	R1309M
1042.011	1.129	376585	WORD_OFF	n/a	n/a	TANK	10	2	[0, 0, 0]	n/a	FR1	1	R1309M
1043.14	1.621	377714	WORD	n/a	wordpools/wordpool_EN.txt	RUG	11	2	[0, 0, 0]	n/a	FR1	1	R1309M
1044.761	0.754	379335	WORD_OFF	n/a	n/a	RUG	11	2	[0, 0, 0]	n/a	FR1	1	R1309M
1045.515	1.63	380089	WORD	n/a	wordpools/wordpool_EN.txt	MOOSE	12	2	[0, 0, 0]	n/a	FR1	1	R1309M
1047.145	0.0	381718	WORD_OFF	n/a	n/a	MOOSE	12	2	[0, 0, 0]	n/a	FR1	1	R1309M
1047.145	0.0	381718	ENCODING_END	n/a	n/a	n/a	-999	2	[0, 0, 0]	n/a	FR1	1	R1309M
1047.145	0.001	381718	DISTRACT_START	n/a	n/a	n/a	-999	2	[0, 0, 0]	n/a	FR1	1	R1309M
1047.146	0.015	381719	START	n/a	n/a	n/a	-999	2	[-999, -999, -999]	n/a	FR1	1	R1309M
1047.161	3.018	381734	PROB	3.018	n/a	n/a	-999	2	[3, 5, 3]	11	FR1	1	R1309M
1050.179	2.817	384752	PROB	2.817	n/a	n/a	-999	2	[2, 5, 4]	11	FR1	1	R1309M
1052.996	5.651	387569	PROB	5.651	n/a	n/a	-999	2	[5, 7, 4]	16	FR1	1	R1309M
1058.647	3.767	393220	PROB	3.767	n/a	n/a	-999	2	[4, 2, 7]	13	FR1	1	R1309M
1062.414	3.084	396987	PROB	3.084	n/a	n/a	-999	2	[8, 7, 6]	21	FR1	1	R1309M
1065.498	3.91	400071	PROB	3.91	n/a	n/a	-999	2	[6, 4, 5]	15	FR1	1	R1309M
1069.408	0.008	403980	STOP	n/a	n/a	n/a	-999	2	[-999, -999, -999]	n/a	FR1	1	R1309M
1069.416	0.661	403988	DISTRACT_END	n/a	n/a	n/a	-999	2	[0, 0, 0]	n/a	FR1	1	R1309M
1070.077	1.556	404649	RETRIEVAL_ORIENT_START	n/a	n/a	n/a	-999	2	[0, 0, 0]	n/a	FR1	1	R1309M
1071.633	0.0	406205	RETRIEVAL_ORIENT_END	n/a	n/a	n/a	-999	2	[0, 0, 0]	n/a	FR1	1	R1309M
1071.633	0.309	406205	REC_START	n/a	n/a	n/a	-999	2	[0, 0, 0]	n/a	FR1	1	R1309M
1071.942	1.589	406514	REC_WORD	1.589	n/a	TIE	1	2	[0, 0, 0]	n/a	FR1	1	R1309M
1073.531	2.347	408103	REC_WORD	2.347	n/a	SMOKE	2	2	[0, 0, 0]	n/a	FR1	1	R1309M
1075.878	1.984	410450	REC_WORD	1.984	n/a	BEE	3	2	[0, 0, 0]	n/a	FR1	1	R1309M
1077.862	6.465	412434	REC_WORD	6.465	n/a	CAGE	4	2	[0, 0, 0]	n/a	FR1	1	R1309M
1084.327	2.981	418899	REC_WORD	2.981	n/a	PET	6	2	[0, 0, 0]	n/a	FR1	1	R1309M
1087.308	0.724	421880	REC_WORD_VV	0.724	n/a	<>	-999	2	[0, 0, 0]	n/a	FR1	1	R1309M
1088.032	13.612	422603	REC_WORD	13.612	n/a	BOOT	9	2	[0, 0, 0]	n/a	FR1	1	R1309M
1101.644	0.001	436215	REC_END	n/a	n/a	n/a	-999	2	[0, 0, 0]	n/a	FR1	1	R1309M
1101.645	0.016	436216	TRIAL_END	n/a	n/a	n/a	-999	2	[0, 0, 0]	n/a	FR1	1	R1309M
1101.661	0.0	436232	TRIAL_START	n/a	n/a	n/a	-999	3	[0, 0, 0]	n/a	FR1	1	R1309M
1101.661	0.0	436232	TRIAL	n/a	n/a	n/a	-999	3	[0, 0, 0]	n/a	FR1	1	R1309M
1101.661	6.563	436232	WAITING_START	n/a	n/a	n/a	-999	3	[0, 0, 0]	n/a	FR1	1	R1309M
1108.224	0.0	442795	WAITING_END	n/a	n/a	n/a	-999	3	[0, 0, 0]	n/a	FR1	1	R1309M
1108.224	10.429	442795	COUNTDOWN_START	n/a	n/a	n/a	-999	3	[0, 0, 0]	n/a	FR1	1	R1309M
1118.653	0.0	453223	COUNTDOWN_END	n/a	n/a	n/a	-999	3	[0, 0, 0]	n/a	FR1	1	R1309M
1118.653	1.239	453223	ORIENT_START	n/a	n/a	n/a	-999	3	[0, 0, 0]	n/a	FR1	1	R1309M
1119.892	0.001	454462	ORIENT_END	n/a	n/a	n/a	-999	3	[0, 0, 0]	n/a	FR1	1	R1309M
1119.893	1.109	454463	ENCODING_START	n/a	n/a	n/a	-999	3	[0, 0, 0]	n/a	FR1	1	R1309M
1121.002	1.624	455572	WORD	n/a	wordpools/wordpool_EN.txt	RAKE	1	3	[0, 0, 0]	n/a	FR1	1	R1309M
1122.626	0.923	457196	WORD_OFF	n/a	n/a	RAKE	1	3	[0, 0, 0]	n/a	FR1	1	R1309M
1123.549	1.627	458119	WORD	n/a	wordpools/wordpool_EN.txt	EAR	2	3	[0, 0, 0]	n/a	FR1	1	R1309M
1125.176	1.119	459746	WORD_OFF	n/a	n/a	EAR	2	3	[0, 0, 0]	n/a	FR1	1	R1309M
1126.295	1.632	460865	WORD	n/a	wordpools/wordpool_EN.txt	CROW	3	3	[0, 0, 0]	n/a	FR1	1	R1309M
1127.927	1.129	462497	WORD_OFF	n/a	n/a	CROW	3	3	[0, 0, 0]	n/a	FR1	1	R1309M
1129.056	1.638	463626	WORD	n/a	wordpools/wordpool_EN.txt	HORSE	4	3	[0, 0, 0]	n/a	FR1	1	R1309M
1130.694	0.891	465263	WORD_OFF	n/a	n/a	HORSE	4	3	[0, 0, 0]	n/a	FR1	1	R1309M
1131.585	1.627	466154	WORD	n/a	wordpools/wordpool_EN.txt	SPRING	5	3	[0, 0, 0]	n/a	FR1	1	R1309M
1133.212	0.794	467781	WORD_OFF	n/a	n/a	SPRING	5	3	[0, 0, 0]	n/a	FR1	1	R1309M
1134.006	1.623	468575	WORD	n/a	wordpools/wordpool_EN.txt	NEST	6	3	[0, 0, 0]	n/a	FR1	1	R1309M
1135.629	1.064	470198	WORD_OFF	n/a	n/a	NEST	6	3	[0, 0, 0]	n/a	FR1	1	R1309M
1136.693	1.636	471262	WORD	n/a	wordpools/wordpool_EN.txt	STOVE	7	3	[0, 0, 0]	n/a	FR1	1	R1309M
1138.329	1.037	472898	WORD_OFF	n/a	n/a	STOVE	7	3	[0, 0, 0]	n/a	FR1	1	R1309M
1139.366	1.63	473935	WORD	n/a	wordpools/wordpool_EN.txt	SNOW	8	3	[0, 0, 0]	n/a	FR1	1	R1309M
1140.996	0.885	475565	WORD_OFF	n/a	n/a	SNOW	8	3	[0, 0, 0]	n/a	FR1	1	R1309M
1141.881	1.633	476450	WORD	n/a	wordpools/wordpool_EN.txt	STEM	9	3	[0, 0, 0]	n/a	FR1	1	R1309M
1143.514	0.993	478083	WORD_OFF	n/a	n/a	STEM	9	3	[0, 0, 0]	n/a	FR1	1	R1309M
1144.507	1.624	479076	WORD	n/a	wordpools/wordpool_EN.txt	JAR	10	3	[0, 0, 0]	n/a	FR1	1	R1309M
1146.131	1.009	480700	WORD_OFF	n/a	n/a	JAR	10	3	[0, 0, 0]	n/a	FR1	1	R1309M
1147.14	1.625	481709	WORD	n/a	wordpools/wordpool_EN.txt	CLAY	11	3	[0, 0, 0]	n/a	FR1	1	R1309M
1148.765	0.933	483334	WORD_OFF	n/a	n/a	CLAY	11	3	[0, 0, 0]	n/a	FR1	1	R1309M
1149.698	1.634	484267	WORD	n/a	wordpools/wordpool_EN.txt	BREAD	12	3	[0, 0, 0]	n/a	FR1	1	R1309M
1151.332	0.0	485900	WORD_OFF	n/a	n/a	BREAD	12	3	[0, 0, 0]	n/a	FR1	1	R1309M
1151.332	0.001	485900	ENCODING_END	n/a	n/a	n/a	-999	3	[0, 0, 0]	n/a	FR1	1	R1309M
1151.333	0.0	485901	DISTRACT_START	n/a	n/a	n/a	-999	3	[0, 0, 0]	n/a	FR1	1	R1309M
1151.333	0.015	485901	START	n/a	n/a	n/a	-999	3	[-999, -999, -999]	n/a	FR1	1	R1309M
1151.348	4.601	485916	PROB	4.601	n/a	n/a	-999	3	[6, 7, 9]	22	FR1	1	R1309M
1155.949	4.984	490517	PROB	4.984	n/a	n/a	-999	3	[2, 5, 2]	9	FR1	1	R1309M
1160.933	3.101	495501	PROB	3.101	n/a	n/a	-999	3	[2, 6, 2]	10	FR1	1	R1309M
1164.034	5.068	498602	PROB	5.068	n/a	n/a	-999	3	[7, 6, 5]	18	FR1	1	R1309M
1169.102	3.579	503670	PROB	3.579	n/a	n/a	-999	3	[2, 7, 9]	18	FR1	1	R1309M
1172.681	0.022	507248	STOP	n/a	n/a	n/a	-999	3	[-999, -999, -999]	n/a	FR1	1	R1309M
1172.703	0.652	507270	DISTRACT_END	n/a	n/a	n/a	-999	3	[0, 0, 0]	n/a	FR1	1	R1309M
1173.355	1.715	507922	RETRIEVAL_ORIENT_START	n/a	n/a	n/a	-999	3	[0, 0, 0]	n/a	FR1	1	R1309M
1175.07	0.0	509637	RETRIEVAL_ORIENT_END	n/a	n/a	n/a	-999	3	[0, 0, 0]	n/a	FR1	1	R1309M
1175.07	2.291	509637	REC_START	n/a	n/a	n/a	-999	3	[0, 0, 0]	n/a	FR1	1	R1309M
1177.361	1.841	511928	REC_WORD	1.841	n/a	RAKE	1	3	[0, 0, 0]	n/a	FR1	1	R1309M
1179.202	1.213	513769	REC_WORD	1.213	n/a	EAR	2	3	[0, 0, 0]	n/a	FR1	1	R1309M
1180.415	24.664	514982	REC_WORD	24.664	n/a	SNOW	8	3	[0, 0, 0]	n/a	FR1	1	R1309M
1205.079	0.001	539645	REC_END	n/a	n/a	n/a	-999	3	[0, 0, 0]	n/a	FR1	1	R1309M
1205.08	0.014	539646	TRIAL_END	n/a	n/a	n/a	-999	3	[0, 0, 0]	n/a	FR1	1	R1309M
1205.094	0.0	539660	TRIAL_START	n/a	n/a	n/a	-999	4	[0, 0, 0]	n/a	FR1	1	R1309M
1205.094	0.0	539660	TRIAL	n/a	n/a	n/a	-999	4	[0, 0, 0]	n/a	FR1	1	R1309M
1205.094	5.716	539660	WAITING_START	n/a	n/a	n/a	-999	4	[0, 0, 0]	n/a	FR1	1	R1309M
1210.81	0.0	545376	WAITING_END	n/a	n/a	n/a	-999	4	[0, 0, 0]	n/a	FR1	1	R1309M
1210.81	10.43	545376	COUNTDOWN_START	n/a	n/a	n/a	-999	4	[0, 0, 0]	n/a	FR1	1	R1309M
1221.24	0.0	555805	COUNTDOWN_END	n/a	n/a	n/a	-999	4	[0, 0, 0]	n/a	FR1	1	R1309M
1221.24	1.172	555805	ORIENT_START	n/a	n/a	n/a	-999	4	[0, 0, 0]	n/a	FR1	1	R1309M
1222.412	0.001	556977	ORIENT_END	n/a	n/a	n/a	-999	4	[0, 0, 0]	n/a	FR1	1	R1309M
1222.413	0.751	556978	ENCODING_START	n/a	n/a	n/a	-999	4	[0, 0, 0]	n/a	FR1	1	R1309M
1223.164	1.632	557729	WORD	n/a	wordpools/wordpool_EN.txt	WALL	1	4	[0, 0, 0]	n/a	FR1	1	R1309M
1224.796	1.029	559361	WORD_OFF	n/a	n/a	WALL	1	4	[0, 0, 0]	n/a	FR1	1	R1309M
1225.825	1.622	560390	WORD	n/a	wordpools/wordpool_EN.txt	FUR	2	4	[0, 0, 0]	n/a	FR1	1	R1309M
1227.447	0.752	562012	WORD_OFF	n/a	n/a	FUR	2	4	[0, 0, 0]	n/a	FR1	1	R1309M
1228.199	1.631	562764	WORD	n/a	wordpools/wordpool_EN.txt	PASTE	3	4	[0, 0, 0]	n/a	FR1	1	R1309M
1229.83	1.078	564395	WORD_OFF	n/a	n/a	PASTE	3	4	[0, 0, 0]	n/a	FR1	1	R1309M
1230.908	1.623	565473	WORD	n/a	wordpools/wordpool_EN.txt	PEA	4	4	[0, 0, 0]	n/a	FR1	1	R1309M
1232.531	1.068	567096	WORD_OFF	n/a	n/a	PEA	4	4	[0, 0, 0]	n/a	FR1	1	R1309M
1233.599	1.632	568163	WORD	n/a	wordpools/wordpool_EN.txt	LAWN	5	4	[0, 0, 0]	n/a	FR1	1	R1309M
1235.231	0.804	569795	WORD_OFF	n/a	n/a	LAWN	5	4	[0, 0, 0]	n/a	FR1	1	R1309M
1236.035	1.63	570599	WORD	n/a	wordpools/wordpool_EN.txt	BED	6	4	[0, 0, 0]	n/a	FR1	1	R1309M
1237.665	1.103	572229	WORD_OFF	n/a	n/a	BED	6	4	[0, 0, 0]	n/a	FR1	1	R1309M
1238.768	1.631	573332	WORD	n/a	wordpools/wordpool_EN.txt	BRANCH	7	4	[0, 0, 0]	n/a	FR1	1	R1309M
1240.399	1.072	574963	WORD_OFF	n/a	n/a	BRANCH	7	4	[0, 0, 0]	n/a	FR1	1	R1309M
1241.471	1.628	576035	WORD	n/a	wordpools/wordpool_EN.txt	SEED	8	4	[0, 0, 0]	n/a	FR1	1	R1309M
1243.099	0.869	577663	WORD_OFF	n/a	n/a	SEED	8	4	[0, 0, 0]	n/a	FR1	1	R1309M
1243.968	1.632	578532	WORD	n/a	wordpools/wordpool_EN.txt	TOAST	9	4	[0, 0, 0]	n/a	FR1	1	R1309M
1245.6	0.949	580164	WORD_OFF	n/a	n/a	TOAST	9	4	[0, 0, 0]	n/a	FR1	1	R1309M
1246.549	1.635	581113	WORD	n/a	wordpools/wordpool_EN.txt	DEER	10	4	[0, 0, 0]	n/a	FR1	1	R1309M
1248.184	0.966	582748	WORD_OFF	n/a	n/a	DEER	10	4	[0, 0, 0]	n/a	FR1	1	R1309M
1249.15	1.634	583714	WORD	n/a	wordpools/wordpool_EN.txt	BRIDGE	11	4	[0, 0, 0]	n/a	FR1	1	R1309M
1250.784	0.893	585348	WORD_OFF	n/a	n/a	BRIDGE	11	4	[0, 0, 0]	n/a	FR1	1	R1309M
1251.677	1.624	586241	WORD	n/a	wordpools/wordpool_EN.txt	SKY	12	4	[0, 0, 0]	n/a	FR1	1	R1309M
1253.301	0.001	587865	WORD_OFF	n/a	n/a	SKY	12	4	[0, 0, 0]	n/a	FR1	1	R1309M
1253.302	0.0	587866	ENCODING_END	n/a	n/a	n/a	-999	4	[0, 0, 0]	n/a	FR1	1	R1309M
1253.302	0.0	587866	DISTRACT_START	n/a	n/a	n/a	-999	4	[0, 0, 0]	n/a	FR1	1	R1309M
1253.302	0.016	587866	START	n/a	n/a	n/a	-999	4	[-999, -999, -999]	n/a	FR1	1	R1309M
1253.318	3.267	587882	PROB	3.267	n/a	n/a	-999	4	[2, 9, 1]	12	FR1	1	R1309M
1256.585	3.601	591148	PROB	3.601	n/a	n/a	-999	4	[3, 6, 1]	10	FR1	1	R1309M
1260.186	5.234	594749	PROB	5.234	n/a	n/a	-999	4	[9, 7, 2]	18	FR1	1	R1309M
1265.42	2.317	599983	PROB	2.317	n/a	n/a	-999	4	[4, 1, 6]	11	FR1	1	R1309M
1267.737	3.251	602300	PROB	3.251	n/a	n/a	-999	4	[8, 3, 3]	14	FR1	1	R1309M
1270.988	3.357	605551	PROB	3.357	n/a	n/a	-999	4	[8, 5, 3]	16	FR1	1	R1309M
1274.345	0.011	608908	STOP	n/a	n/a	n/a	-999	4	[-999, -999, -999]	n/a	FR1	1	R1309M
1274.356	0.532	608919	DISTRACT_END	n/a	n/a	n/a	-999	4	[0, 0, 0]	n/a	FR1	1	R1309M
1274.888	1.651	609451	RETRIEVAL_ORIENT_START	n/a	n/a	n/a	-999	4	[0, 0, 0]	n/a	FR1	1	R1309M
1276.539	0.001	611101	RETRIEVAL_ORIENT_END	n/a	n/a	n/a	-999	4	[0, 0, 0]	n/a	FR1	1	R1309M
1276.54	2.358	611102	REC_START	n/a	n/a	n/a	-999	4	[0, 0, 0]	n/a	FR1	1	R1309M
1278.898	1.812	613460	REC_WORD	1.812	n/a	SEED	8	4	[0, 0, 0]	n/a	FR1	1	R1309M
1280.71	25.841	615272	REC_WORD	25.841	n/a	PEA	4	4	[0, 0, 0]	n/a	FR1	1	R1309M
1306.551	0.0	641112	TRIAL_END	n/a	n/a	n/a	-999	4	[0, 0, 0]	n/a	FR1	1	R1309M
1306.551	0.015	641112	REC_END	n/a	n/a	n/a	-999	4	[0, 0, 0]	n/a	FR1	1	R1309M
1306.566	0.0	641127	TRIAL_START	n/a	n/a	n/a	-999	5	[0, 0, 0]	n/a	FR1	1	R1309M
1306.566	0.0	641127	TRIAL	n/a	n/a	n/a	-999	5	[0, 0, 0]	n/a	FR1	1	R1309M
1306.566	6.414	641127	WAITING_START	n/a	n/a	n/a	-999	5	[0, 0, 0]	n/a	FR1	1	R1309M
1312.98	0.0	647541	WAITING_END	n/a	n/a	n/a	-999	5	[0, 0, 0]	n/a	FR1	1	R1309M
1312.98	10.429	647541	COUNTDOWN_START	n/a	n/a	n/a	-999	5	[0, 0, 0]	n/a	FR1	1	R1309M
1323.409	0.0	657969	COUNTDOWN_END	n/a	n/a	n/a	-999	5	[0, 0, 0]	n/a	FR1	1	R1309M
1323.409	1.09	657969	ORIENT_START	n/a	n/a	n/a	-999	5	[0, 0, 0]	n/a	FR1	1	R1309M
1324.499	0.0	659059	ORIENT_END	n/a	n/a	n/a	-999	5	[0, 0, 0]	n/a	FR1	1	R1309M
1324.499	0.852	659059	ENCODING_START	n/a	n/a	n/a	-999	5	[0, 0, 0]	n/a	FR1	1	R1309M
1325.351	1.631	659911	WORD	n/a	wordpools/wordpool_EN.txt	CLOTH	1	5	[0, 0, 0]	n/a	FR1	1	R1309M
1326.982	1.139	661542	WORD_OFF	n/a	n/a	CLOTH	1	5	[0, 0, 0]	n/a	FR1	1	R1309M
1328.121	1.629	662681	WORD	n/a	wordpools/wordpool_EN.txt	DOOR	2	5	[0, 0, 0]	n/a	FR1	1	R1309M
1329.75	0.793	664310	WORD_OFF	n/a	n/a	DOOR	2	5	[0, 0, 0]	n/a	FR1	1	R1309M
1330.543	1.624	665103	WORD	n/a	wordpools/wordpool_EN.txt	STORM	3	5	[0, 0, 0]	n/a	FR1	1	R1309M
1332.167	0.788	666727	WORD_OFF	n/a	n/a	STORM	3	5	[0, 0, 0]	n/a	FR1	1	R1309M
1332.955	1.629	667515	WORD	n/a	wordpools/wordpool_EN.txt	MILK	4	5	[0, 0, 0]	n/a	FR1	1	R1309M
1334.584	1.05	669144	WORD_OFF	n/a	n/a	MILK	4	5	[0, 0, 0]	n/a	FR1	1	R1309M
1335.634	1.634	670194	WORD	n/a	wordpools/wordpool_EN.txt	FAN	5	5	[0, 0, 0]	n/a	FR1	1	R1309M
1337.268	0.829	671828	WORD_OFF	n/a	n/a	FAN	5	5	[0, 0, 0]	n/a	FR1	1	R1309M
1338.097	1.638	672656	WORD	n/a	wordpools/wordpool_EN.txt	OAR	6	5	[0, 0, 0]	n/a	FR1	1	R1309M
1339.735	0.916	674294	WORD_OFF	n/a	n/a	OAR	6	5	[0, 0, 0]	n/a	FR1	1	R1309M
1340.651	1.634	675210	WORD	n/a	wordpools/wordpool_EN.txt	PLANE	7	5	[0, 0, 0]	n/a	FR1	1	R1309M
1342.285	0.913	676844	WORD_OFF	n/a	n/a	PLANE	7	5	[0, 0, 0]	n/a	FR1	1	R1309M
1343.198	1.638	677757	WORD	n/a	wordpools/wordpool_EN.txt	SOCK	8	5	[0, 0, 0]	n/a	FR1	1	R1309M
1344.836	0.993	679395	WORD_OFF	n/a	n/a	SOCK	8	5	[0, 0, 0]	n/a	FR1	1	R1309M
1345.829	1.624	680388	WORD	n/a	wordpools/wordpool_EN.txt	PEACH	9	5	[0, 0, 0]	n/a	FR1	1	R1309M
1347.453	0.93	682012	WORD_OFF	n/a	n/a	PEACH	9	5	[0, 0, 0]	n/a	FR1	1	R1309M
1348.383	1.637	682942	WORD	n/a	wordpools/wordpool_EN.txt	HORN	10	5	[0, 0, 0]	n/a	FR1	1	R1309M
1350.02	0.835	684579	WORD_OFF	n/a	n/a	HORN	10	5	[0, 0, 0]	n/a	FR1	1	R1309M
1350.855	1.632	685414	WORD	n/a	wordpools/wordpool_EN.txt	BIRD	11	5	[0, 0, 0]	n/a	FR1	1	R1309M
1352.487	0.85	687046	WORD_OFF	n/a	n/a	BIRD	11	5	[0, 0, 0]	n/a	FR1	1	R1309M
1353.337	1.634	687896	WORD	n/a	wordpools/wordpool_EN.txt	CLOUD	12	5	[0, 0, 0]	n/a	FR1	1	R1309M
1354.971	0.001	689530	WORD_OFF	n/a	n/a	CLOUD	12	5	[0, 0, 0]	n/a	FR1	1	R1309M
1354.972	0.0	689531	ENCODING_END	n/a	n/a	n/a	-999	5	[0, 0, 0]	n/a	FR1	1	R1309M
1354.972	0.0	689531	DISTRACT_START	n/a	n/a	n/a	-999	5	[0, 0, 0]	n/a	FR1	1	R1309M
1354.972	0.016	689531	START	n/a	n/a	n/a	-999	5	[-999, -999, -999]	n/a	FR1	1	R1309M
1354.988	4.3	689547	PROB	4.3	n/a	n/a	-999	5	[4, 9, 4]	17	FR1	1	R1309M
1359.288	3.701	693846	PROB	3.701	n/a	n/a	-999	5	[2, 6, 2]	10	FR1	1	R1309M
1362.989	4.384	697547	PROB	4.384	n/a	n/a	-999	5	[3, 1, 5]	9	FR1	1	R1309M
1367.373	3.851	701931	PROB	3.851	n/a	n/a	-999	5	[3, 1, 2]	6	FR1	1	R1309M
1371.224	4.407	705782	PROB	4.407	n/a	n/a	-999	5	[7, 3, 5]	15	FR1	1	R1309M
1375.631	0.011	710189	STOP	n/a	n/a	n/a	-999	5	[-999, -999, -999]	n/a	FR1	1	R1309M
1375.642	0.676	710200	DISTRACT_END	n/a	n/a	n/a	-999	5	[0, 0, 0]	n/a	FR1	1	R1309M
1376.318	1.624	710876	RETRIEVAL_ORIENT_START	n/a	n/a	n/a	-999	5	[0, 0, 0]	n/a	FR1	1	R1309M
1377.942	0.0	712500	RETRIEVAL_ORIENT_END	n/a	n/a	n/a	-999	5	[0, 0, 0]	n/a	FR1	1	R1309M
1377.942	0.454	712500	REC_START	n/a	n/a	n/a	-999	5	[0, 0, 0]	n/a	FR1	1	R1309M
1378.396	1.723	712954	REC_WORD	1.723	n/a	CLOUD	12	5	[0, 0, 0]	n/a	FR1	1	R1309M
1380.119	2.962	714676	REC_WORD	2.962	n/a	BIRD	11	5	[0, 0, 0]	n/a	FR1	1	R1309M
1383.081	1.868	717638	REC_WORD	1.868	n/a	CLOTH	1	5	[0, 0, 0]	n/a	FR1	1	R1309M
1384.949	23.005	719506	REC_WORD	23.005	n/a	DOOR	2	5	[0, 0, 0]	n/a	FR1	1	R1309M
1407.954	0.0	742510	TRIAL_END	n/a	n/a	n/a	-999	5	[0, 0, 0]	n/a	FR1	1	R1309M
1407.954	0.014	742510	REC_END	n/a	n/a	n/a	-999	5	[0, 0, 0]	n/a	FR1	1	R1309M
1407.968	0.0	742524	TRIAL_START	n/a	n/a	n/a	-999	6	[0, 0, 0]	n/a	FR1	1	R1309M
1407.968	0.001	742524	TRIAL	n/a	n/a	n/a	-999	6	[0, 0, 0]	n/a	FR1	1	R1309M
1407.969	5.33	742525	WAITING_START	n/a	n/a	n/a	-999	6	[0, 0, 0]	n/a	FR1	1	R1309M
1413.299	0.0	747855	WAITING_END	n/a	n/a	n/a	-999	6	[0, 0, 0]	n/a	FR1	1	R1309M
1413.299	10.43	747855	COUNTDOWN_START	n/a	n/a	n/a	-999	6	[0, 0, 0]	n/a	FR1	1	R1309M
1423.729	0.001	758284	COUNTDOWN_END	n/a	n/a	n/a	-999	6	[0, 0, 0]	n/a	FR1	1	R1309M
1423.73	1.038	758285	ORIENT_START	n/a	n/a	n/a	-999	6	[0, 0, 0]	n/a	FR1	1	R1309M
1424.768	0.001	759323	ORIENT_END	n/a	n/a	n/a	-999	6	[0, 0, 0]	n/a	FR1	1	R1309M
1424.769	0.967	759324	ENCODING_START	n/a	n/a	n/a	-999	6	[0, 0, 0]	n/a	FR1	1	R1309M
1425.736	1.633	760291	WORD	n/a	wordpools/wordpool_EN.txt	GUARD	1	6	[0, 0, 0]	n/a	FR1	1	R1309M
1427.369	0.962	761924	WORD_OFF	n/a	n/a	GUARD	1	6	[0, 0, 0]	n/a	FR1	1	R1309M
1428.331	1.621	762886	WORD	n/a	wordpools/wordpool_EN.txt	VAN	2	6	[0, 0, 0]	n/a	FR1	1	R1309M
1429.952	0.781	764507	WORD_OFF	n/a	n/a	VAN	2	6	[0, 0, 0]	n/a	FR1	1	R1309M
1430.733	1.636	765288	WORD	n/a	wordpools/wordpool_EN.txt	CART	3	6	[0, 0, 0]	n/a	FR1	1	R1309M
1432.369	0.903	766924	WORD_OFF	n/a	n/a	CART	3	6	[0, 0, 0]	n/a	FR1	1	R1309M
1433.272	1.631	767827	WORD	n/a	wordpools/wordpool_EN.txt	BOWL	4	6	[0, 0, 0]	n/a	FR1	1	R1309M
1434.903	0.98	769458	WORD_OFF	n/a	n/a	BOWL	4	6	[0, 0, 0]	n/a	FR1	1	R1309M
1435.883	1.638	770438	WORD	n/a	wordpools/wordpool_EN.txt	TOAD	5	6	[0, 0, 0]	n/a	FR1	1	R1309M
1437.521	0.868	772076	WORD_OFF	n/a	n/a	TOAD	5	6	[0, 0, 0]	n/a	FR1	1	R1309M
1438.389	1.632	772944	WORD	n/a	wordpools/wordpool_EN.txt	GEESE	6	6	[0, 0, 0]	n/a	FR1	1	R1309M
1440.021	0.907	774576	WORD_OFF	n/a	n/a	GEESE	6	6	[0, 0, 0]	n/a	FR1	1	R1309M
1440.928	1.627	775483	WORD	n/a	wordpools/wordpool_EN.txt	BLUSH	7	6	[0, 0, 0]	n/a	FR1	1	R1309M
1442.555	1.146	777109	WORD_OFF	n/a	n/a	BLUSH	7	6	[0, 0, 0]	n/a	FR1	1	R1309M
1443.701	1.638	778255	WORD	n/a	wordpools/wordpool_EN.txt	PRINCE	8	6	[0, 0, 0]	n/a	FR1	1	R1309M
1445.339	0.951	779893	WORD_OFF	n/a	n/a	PRINCE	8	6	[0, 0, 0]	n/a	FR1	1	R1309M
1446.29	1.632	780844	WORD	n/a	wordpools/wordpool_EN.txt	TOY	9	6	[0, 0, 0]	n/a	FR1	1	R1309M
1447.922	0.798	782476	WORD_OFF	n/a	n/a	TOY	9	6	[0, 0, 0]	n/a	FR1	1	R1309M
1448.72	1.636	783274	WORD	n/a	wordpools/wordpool_EN.txt	LAMB	10	6	[0, 0, 0]	n/a	FR1	1	R1309M
1450.356	0.897	784910	WORD_OFF	n/a	n/a	LAMB	10	6	[0, 0, 0]	n/a	FR1	1	R1309M
1451.253	1.637	785807	WORD	n/a	wordpools/wordpool_EN.txt	PHONE	11	6	[0, 0, 0]	n/a	FR1	1	R1309M
1452.89	0.992	787444	WORD_OFF	n/a	n/a	PHONE	11	6	[0, 0, 0]	n/a	FR1	1	R1309M
1453.882	1.625	788436	WORD	n/a	wordpools/wordpool_EN.txt	SLUSH	12	6	[0, 0, 0]	n/a	FR1	1	R1309M
1455.507	0.001	790061	WORD_OFF	n/a	n/a	SLUSH	12	6	[0, 0, 0]	n/a	FR1	1	R1309M
1455.508	0.0	790062	ENCODING_END	n/a	n/a	n/a	-999	6	[0, 0, 0]	n/a	FR1	1	R1309M
1455.508	0.0	790062	DISTRACT_START	n/a	n/a	n/a	-999	6	[0, 0, 0]	n/a	FR1	1	R1309M
1455.508	0.016	790062	START	n/a	n/a	n/a	-999	6	[-999, -999, -999]	n/a	FR1	1	R1309M
1455.524	4.1	790078	PROB	4.1	n/a	n/a	-999	6	[4, 8, 8]	20	FR1	1	R1309M
1459.624	3.685	794178	PROB	3.685	n/a	n/a	-999	6	[7, 4, 5]	16	FR1	1	R1309M
1463.309	3.767	797862	PROB	3.767	n/a	n/a	-999	6	[7, 6, 8]	21	FR1	1	R1309M
1467.076	2.767	801629	PROB	2.767	n/a	n/a	-999	6	[5, 5, 4]	14	FR1	1	R1309M
1469.843	2.634	804396	PROB	2.634	n/a	n/a	-999	6	[8, 5, 2]	15	FR1	1	R1309M
1472.477	5.741	807030	PROB	5.741	n/a	n/a	-999	6	[9, 7, 8]	24	FR1	1	R1309M
1478.218	0.01	812771	STOP	n/a	n/a	n/a	-999	6	[-999, -999, -999]	n/a	FR1	1	R1309M
1478.228	0.65	812781	DISTRACT_END	n/a	n/a	n/a	-999	6	[0, 0, 0]	n/a	FR1	1	R1309M
1478.878	1.667	813431	RETRIEVAL_ORIENT_START	n/a	n/a	n/a	-999	6	[0, 0, 0]	n/a	FR1	1	R1309M
1480.545	0.001	815098	RETRIEVAL_ORIENT_END	n/a	n/a	n/a	-999	6	[0, 0, 0]	n/a	FR1	1	R1309M
1480.546	0.362	815099	REC_START	n/a	n/a	n/a	-999	6	[0, 0, 0]	n/a	FR1	1	R1309M
1480.908	8.154	815461	REC_WORD	8.154	n/a	LAMB	10	6	[0, 0, 0]	n/a	FR1	1	R1309M
1489.062	4.857	823614	REC_WORD_VV	4.857	n/a	<>	-999	6	[0, 0, 0]	n/a	FR1	1	R1309M
1493.919	3.861	828471	REC_WORD	3.861	n/a	TOY	9	6	[0, 0, 0]	n/a	FR1	1	R1309M
1497.78	7.415	832332	REC_WORD_VV	7.415	n/a	<>	-999	6	[0, 0, 0]	n/a	FR1	1	R1309M
1505.195	5.362	839746	REC_WORD_VV	5.362	n/a	<>	-999	6	[0, 0, 0]	n/a	FR1	1	R1309M
1510.557	0.0	845108	REC_END	n/a	n/a	n/a	-999	6	[0, 0, 0]	n/a	FR1	1	R1309M
1510.557	0.014	845108	TRIAL_END	n/a	n/a	n/a	-999	6	[0, 0, 0]	n/a	FR1	1	R1309M
1510.571	0.0	845122	TRIAL_START	n/a	n/a	n/a	-999	7	[0, 0, 0]	n/a	FR1	1	R1309M
1510.571	0.0	845122	TRIAL	n/a	n/a	n/a	-999	7	[0, 0, 0]	n/a	FR1	1	R1309M
1510.571	5.715	845122	WAITING_START	n/a	n/a	n/a	-999	7	[0, 0, 0]	n/a	FR1	1	R1309M
1516.286	0.0	850837	WAITING_END	n/a	n/a	n/a	-999	7	[0, 0, 0]	n/a	FR1	1	R1309M
1516.286	10.428	850837	COUNTDOWN_START	n/a	n/a	n/a	-999	7	[0, 0, 0]	n/a	FR1	1	R1309M
1526.714	0.001	861264	COUNTDOWN_END	n/a	n/a	n/a	-999	7	[0, 0, 0]	n/a	FR1	1	R1309M
1526.715	1.09	861265	ORIENT_START	n/a	n/a	n/a	-999	7	[0, 0, 0]	n/a	FR1	1	R1309M
1527.805	0.0	862355	ORIENT_END	n/a	n/a	n/a	-999	7	[0, 0, 0]	n/a	FR1	1	R1309M
1527.805	1.143	862355	ENCODING_START	n/a	n/a	n/a	-999	7	[0, 0, 0]	n/a	FR1	1	R1309M
1528.948	1.624	863498	WORD	n/a	wordpools/wordpool_EN.txt	MOUTH	1	7	[0, 0, 0]	n/a	FR1	1	R1309M
1530.572	0.792	865122	WORD_OFF	n/a	n/a	MOUTH	1	7	[0, 0, 0]	n/a	FR1	1	R1309M
1531.364	1.625	865914	WORD	n/a	wordpools/wordpool_EN.txt	MOON	2	7	[0, 0, 0]	n/a	FR1	1	R1309M
1532.989	1.123	867539	WORD_OFF	n/a	n/a	MOON	2	7	[0, 0, 0]	n/a	FR1	1	R1309M
1534.112	1.627	868662	WORD	n/a	wordpools/wordpool_EN.txt	ROPE	3	7	[0, 0, 0]	n/a	FR1	1	R1309M
1535.739	0.759	870289	WORD_OFF	n/a	n/a	ROPE	3	7	[0, 0, 0]	n/a	FR1	1	R1309M
1536.498	1.625	871048	WORD	n/a	wordpools/wordpool_EN.txt	FLAME	4	7	[0, 0, 0]	n/a	FR1	1	R1309M
1538.123	1.022	872673	WORD_OFF	n/a	n/a	FLAME	4	7	[0, 0, 0]	n/a	FR1	1	R1309M
1539.145	1.629	873695	WORD	n/a	wordpools/wordpool_EN.txt	SEA	5	7	[0, 0, 0]	n/a	FR1	1	R1309M
1540.774	0.892	875324	WORD_OFF	n/a	n/a	SEA	5	7	[0, 0, 0]	n/a	FR1	1	R1309M
1541.666	1.625	876216	WORD	n/a	wordpools/wordpool_EN.txt	TRAY	6	7	[0, 0, 0]	n/a	FR1	1	R1309M
1543.291	1.037	877841	WORD_OFF	n/a	n/a	TRAY	6	7	[0, 0, 0]	n/a	FR1	1	R1309M
1544.328	1.63	878878	WORD	n/a	wordpools/wordpool_EN.txt	WOOD	7	7	[0, 0, 0]	n/a	FR1	1	R1309M
1545.958	0.79	880508	WORD_OFF	n/a	n/a	WOOD	7	7	[0, 0, 0]	n/a	FR1	1	R1309M
1546.748	1.627	881297	WORD	n/a	wordpools/wordpool_EN.txt	MUD	8	7	[0, 0, 0]	n/a	FR1	1	R1309M
1548.375	1.119	882924	WORD_OFF	n/a	n/a	MUD	8	7	[0, 0, 0]	n/a	FR1	1	R1309M
1549.494	1.632	884043	WORD	n/a	wordpools/wordpool_EN.txt	FOAM	9	7	[0, 0, 0]	n/a	FR1	1	R1309M
1551.126	1.059	885675	WORD_OFF	n/a	n/a	FOAM	9	7	[0, 0, 0]	n/a	FR1	1	R1309M
1552.185	1.625	886734	WORD	n/a	wordpools/wordpool_EN.txt	ROOT	10	7	[0, 0, 0]	n/a	FR1	1	R1309M
1553.81	0.816	888359	WORD_OFF	n/a	n/a	ROOT	10	7	[0, 0, 0]	n/a	FR1	1	R1309M
1554.626	1.634	889175	WORD	n/a	wordpools/wordpool_EN.txt	CALF	11	7	[0, 0, 0]	n/a	FR1	1	R1309M
1556.26	0.774	890809	WORD_OFF	n/a	n/a	CALF	11	7	[0, 0, 0]	n/a	FR1	1	R1309M
1557.034	1.627	891583	WORD	n/a	wordpools/wordpool_EN.txt	ZOO	12	7	[0, 0, 0]	n/a	FR1	1	R1309M
1558.661	0.0	893210	WORD_OFF	n/a	n/a	ZOO	12	7	[0, 0, 0]	n/a	FR1	1	R1309M
1558.661	0.0	893210	ENCODING_END	n/a	n/a	n/a	-999	7	[0, 0, 0]	n/a	FR1	1	R1309M
1558.661	0.001	893210	DISTRACT_START	n/a	n/a	n/a	-999	7	[0, 0, 0]	n/a	FR1	1	R1309M
1558.662	0.015	893211	START	n/a	n/a	n/a	-999	7	[-999, -999, -999]	n/a	FR1	1	R1309M
1558.677	4.401	893226	PROB	4.401	n/a	n/a	-999	7	[7, 7, 9]	23	FR1	1	R1309M
1563.078	3.384	897627	PROB	3.384	n/a	n/a	-999	7	[7, 7, 2]	16	FR1	1	R1309M
1566.462	4.284	901011	PROB	4.284	n/a	n/a	-999	7	[5, 1, 3]	9	FR1	1	R1309M
1570.746	5.501	905294	PROB	5.501	n/a	n/a	-999	7	[9, 4, 8]	21	FR1	1	R1309M
1576.247	4.331	910795	PROB	4.331	n/a	n/a	-999	7	[6, 8, 1]	15	FR1	1	R1309M
1580.578	0.02	915126	STOP	n/a	n/a	n/a	-999	7	[-999, -999, -999]	n/a	FR1	1	R1309M
1580.598	0.538	915146	DISTRACT_END	n/a	n/a	n/a	-999	7	[0, 0, 0]	n/a	FR1	1	R1309M
1581.136	1.629	915684	RETRIEVAL_ORIENT_START	n/a	n/a	n/a	-999	7	[0, 0, 0]	n/a	FR1	1	R1309M
1582.765	0.0	917313	RETRIEVAL_ORIENT_END	n/a	n/a	n/a	-999	7	[0, 0, 0]	n/a	FR1	1	R1309M
1582.765	0.254	917313	REC_START	n/a	n/a	n/a	-999	7	[0, 0, 0]	n/a	FR1	1	R1309M
1583.019	1.322	917567	REC_WORD	1.322	n/a	MOON	2	7	[0, 0, 0]	n/a	FR1	1	R1309M
1584.341	1.807	918889	REC_WORD	1.807	n/a	ROPE	3	7	[0, 0, 0]	n/a	FR1	1	R1309M
1586.148	1.493	920696	REC_WORD	1.493	n/a	FLAME	4	7	[0, 0, 0]	n/a	FR1	1	R1309M
1587.641	1.741	922189	REC_WORD	1.741	n/a	SEA	5	7	[0, 0, 0]	n/a	FR1	1	R1309M
1589.382	1.871	923929	REC_WORD	1.871	n/a	ZOO	12	7	[0, 0, 0]	n/a	FR1	1	R1309M
1591.253	21.522	925800	REC_WORD	21.522	n/a	CALF	11	7	[0, 0, 0]	n/a	FR1	1	R1309M
1612.775	0.0	947321	REC_END	n/a	n/a	n/a	-999	7	[0, 0, 0]	n/a	FR1	1	R1309M
1612.775	0.015	947321	TRIAL_END	n/a	n/a	n/a	-999	7	[0, 0, 0]	n/a	FR1	1	R1309M
1612.79	0.0	947336	TRIAL_START	n/a	n/a	n/a	-999	8	[0, 0, 0]	n/a	FR1	1	R1309M
1612.79	0.001	947336	TRIAL	n/a	n/a	n/a	-999	8	[0, 0, 0]	n/a	FR1	1	R1309M
1612.791	7.565	947337	WAITING_START	n/a	n/a	n/a	-999	8	[0, 0, 0]	n/a	FR1	1	R1309M
1620.356	0.0	954902	WAITING_END	n/a	n/a	n/a	-999	8	[0, 0, 0]	n/a	FR1	1	R1309M
1620.356	10.43	954902	COUNTDOWN_START	n/a	n/a	n/a	-999	8	[0, 0, 0]	n/a	FR1	1	R1309M
1630.786	0.0	965331	COUNTDOWN_END	n/a	n/a	n/a	-999	8	[0, 0, 0]	n/a	FR1	1	R1309M
1630.786	1.255	965331	ORIENT_START	n/a	n/a	n/a	-999	8	[0, 0, 0]	n/a	FR1	1	R1309M
1632.041	0.001	966586	ORIENT_END	n/a	n/a	n/a	-999	8	[0, 0, 0]	n/a	FR1	1	R1309M
1632.042	1.062	966587	ENCODING_START	n/a	n/a	n/a	-999	8	[0, 0, 0]	n/a	FR1	1	R1309M
1633.104	1.62	967649	WORD	n/a	wordpools/wordpool_EN.txt	BAND	1	8	[0, 0, 0]	n/a	FR1	1	R1309M
1634.724	0.837	969269	WORD_OFF	n/a	n/a	BAND	1	8	[0, 0, 0]	n/a	FR1	1	R1309M
1635.561	1.631	970106	WORD	n/a	wordpools/wordpool_EN.txt	LEAF	2	8	[0, 0, 0]	n/a	FR1	1	R1309M
1637.192	1.123	971737	WORD_OFF	n/a	n/a	LEAF	2	8	[0, 0, 0]	n/a	FR1	1	R1309M
1638.315	1.628	972860	WORD	n/a	wordpools/wordpool_EN.txt	STONE	3	8	[0, 0, 0]	n/a	FR1	1	R1309M
1639.943	0.947	974488	WORD_OFF	n/a	n/a	STONE	3	8	[0, 0, 0]	n/a	FR1	1	R1309M
1640.89	1.637	975435	WORD	n/a	wordpools/wordpool_EN.txt	DOG	4	8	[0, 0, 0]	n/a	FR1	1	R1309M
1642.527	0.857	977072	WORD_OFF	n/a	n/a	DOG	4	8	[0, 0, 0]	n/a	FR1	1	R1309M
1643.384	1.627	977929	WORD	n/a	wordpools/wordpool_EN.txt	NET	5	8	[0, 0, 0]	n/a	FR1	1	R1309M
1645.011	1.092	979556	WORD_OFF	n/a	n/a	NET	5	8	[0, 0, 0]	n/a	FR1	1	R1309M
1646.103	1.624	980648	WORD	n/a	wordpools/wordpool_EN.txt	MOTH	6	8	[0, 0, 0]	n/a	FR1	1	R1309M
1647.727	0.863	982272	WORD_OFF	n/a	n/a	MOTH	6	8	[0, 0, 0]	n/a	FR1	1	R1309M
1648.59	1.622	983135	WORD	n/a	wordpools/wordpool_EN.txt	CAT	7	8	[0, 0, 0]	n/a	FR1	1	R1309M
1650.212	0.817	984757	WORD_OFF	n/a	n/a	CAT	7	8	[0, 0, 0]	n/a	FR1	1	R1309M
1651.029	1.633	985573	WORD	n/a	wordpools/wordpool_EN.txt	FUDGE	8	8	[0, 0, 0]	n/a	FR1	1	R1309M
1652.662	0.936	987206	WORD_OFF	n/a	n/a	FUDGE	8	8	[0, 0, 0]	n/a	FR1	1	R1309M
1653.598	1.631	988142	WORD	n/a	wordpools/wordpool_EN.txt	OWL	9	8	[0, 0, 0]	n/a	FR1	1	R1309M
1655.229	0.986	989773	WORD_OFF	n/a	n/a	OWL	9	8	[0, 0, 0]	n/a	FR1	1	R1309M
1656.215	1.631	990759	WORD	n/a	wordpools/wordpool_EN.txt	ARK	10	8	[0, 0, 0]	n/a	FR1	1	R1309M
1657.846	1.068	992390	WORD_OFF	n/a	n/a	ARK	10	8	[0, 0, 0]	n/a	FR1	1	R1309M
1658.914	1.633	993458	WORD	n/a	wordpools/wordpool_EN.txt	WOLF	11	8	[0, 0, 0]	n/a	FR1	1	R1309M
1660.547	0.827	995091	WORD_OFF	n/a	n/a	WOLF	11	8	[0, 0, 0]	n/a	FR1	1	R1309M
1661.374	1.623	995918	WORD	n/a	wordpools/wordpool_EN.txt	POOL	12	8	[0, 0, 0]	n/a	FR1	1	R1309M
1662.997	0.001	997541	WORD_OFF	n/a	n/a	POOL	12	8	[0, 0, 0]	n/a	FR1	1	R1309M
1662.998	0.0	997542	ENCODING_END	n/a	n/a	n/a	-999	8	[0, 0, 0]	n/a	FR1	1	R1309M
1662.998	0.0	997542	DISTRACT_START	n/a	n/a	n/a	-999	8	[0, 0, 0]	n/a	FR1	1	R1309M
1662.998	0.016	997542	START	n/a	n/a	n/a	-999	8	[-999, -999, -999]	n/a	FR1	1	R1309M
1663.014	3.601	997558	PROB	3.601	n/a	n/a	-999	8	[6, 4, 6]	16	FR1	1	R1309M
1666.615	3.934	1001159	PROB	3.934	n/a	n/a	-999	8	[7, 4, 1]	12	FR1	1	R1309M
1670.549	4.717	1005093	PROB	4.717	n/a	n/a	-999	8	[1, 1, 8]	10	FR1	1	R1309M
1675.266	4.518	1009809	PROB	4.518	n/a	n/a	-999	8	[4, 9, 9]	22	FR1	1	R1309M
1679.784	2.3	1014327	PROB	2.3	n/a	n/a	-999	8	[1, 1, 9]	11	FR1	1	R1309M
1682.084	2.42	1016627	PROB	2.42	n/a	n/a	-999	8	[4, 5, 3]	12	FR1	1	R1309M
1684.504	0.014	1019047	STOP	n/a	n/a	n/a	-999	8	[-999, -999, -999]	n/a	FR1	1	R1309M
1684.518	0.667	1019061	DISTRACT_END	n/a	n/a	n/a	-999	8	[0, 0, 0]	n/a	FR1	1	R1309M
1685.185	1.584	1019728	RETRIEVAL_ORIENT_START	n/a	n/a	n/a	-999	8	[0, 0, 0]	n/a	FR1	1	R1309M
1686.769	0.0	1021312	REC_START	n/a	n/a	n/a	-999	8	[0, 0, 0]	n/a	FR1	1	R1309M
1686.769	18.778	1021312	RETRIEVAL_ORIENT_END	n/a	n/a	n/a	-999	8	[0, 0, 0]	n/a	FR1	1	R1309M
1705.547	1.312	1040089	REC_WORD	1.312	n/a	CAT	7	8	[0, 0, 0]	n/a	FR1	1	R1309M
1706.859	1.457	1041401	REC_WORD	1.457	n/a	DOG	4	8	[0, 0, 0]	n/a	FR1	1	R1309M
1708.316	1.695	1042858	REC_WORD	1.695	n/a	OWL	9	8	[0, 0, 0]	n/a	FR1	1	R1309M
1710.011	6.752	1044553	REC_WORD	6.752	n/a	FUDGE	8	8	[0, 0, 0]	n/a	FR1	1	R1309M
1716.763	0.018	1051304	REC_WORD	0.018	n/a	NET	5	8	[0, 0, 0]	n/a	FR1	1	R1309M
1716.781	0.001	1051322	REC_END	n/a	n/a	n/a	-999	8	[0, 0, 0]	n/a	FR1	1	R1309M
1716.782	0.014	1051323	TRIAL_END	n/a	n/a	n/a	-999	8	[0, 0, 0]	n/a	FR1	1	R1309M
1716.796	0.001	1051337	TRIAL_START	n/a	n/a	n/a	-999	9	[0, 0, 0]	n/a	FR1	1	R1309M
1716.797	0.0	1051338	TRIAL	n/a	n/a	n/a	-999	9	[0, 0, 0]	n/a	FR1	1	R1309M
1716.797	10.763	1051338	WAITING_START	n/a	n/a	n/a	-999	9	[0, 0, 0]	n/a	FR1	1	R1309M
1727.56	0.001	1062101	WAITING_END	n/a	n/a	n/a	-999	9	[0, 0, 0]	n/a	FR1	1	R1309M
1727.561	10.429	1062102	COUNTDOWN_START	n/a	n/a	n/a	-999	9	[0, 0, 0]	n/a	FR1	1	R1309M
1737.99	0.001	1072530	COUNTDOWN_END	n/a	n/a	n/a	-999	9	[0, 0, 0]	n/a	FR1	1	R1309M
1737.991	1.255	1072531	ORIENT_START	n/a	n/a	n/a	-999	9	[0, 0, 0]	n/a	FR1	1	R1309M
1739.246	0.0	1073786	ORIENT_END	n/a	n/a	n/a	-999	9	[0, 0, 0]	n/a	FR1	1	R1309M
1739.246	0.795	1073786	ENCODING_START	n/a	n/a	n/a	-999	9	[0, 0, 0]	n/a	FR1	1	R1309M
1740.041	1.638	1074581	WORD	n/a	wordpools/wordpool_EN.txt	PANTS	1	9	[0, 0, 0]	n/a	FR1	1	R1309M
1741.679	1.119	1076219	WORD_OFF	n/a	n/a	PANTS	1	9	[0, 0, 0]	n/a	FR1	1	R1309M
1742.798	1.632	1077338	WORD	n/a	wordpools/wordpool_EN.txt	POND	2	9	[0, 0, 0]	n/a	FR1	1	R1309M
1744.43	1.004	1078970	WORD_OFF	n/a	n/a	POND	2	9	[0, 0, 0]	n/a	FR1	1	R1309M
1745.434	1.63	1079974	WORD	n/a	wordpools/wordpool_EN.txt	BOARD	3	9	[0, 0, 0]	n/a	FR1	1	R1309M
1747.064	1.079	1081604	WORD_OFF	n/a	n/a	BOARD	3	9	[0, 0, 0]	n/a	FR1	1	R1309M
1748.143	1.638	1082683	WORD	n/a	wordpools/wordpool_EN.txt	WING	4	9	[0, 0, 0]	n/a	FR1	1	R1309M
1749.781	1.124	1084321	WORD_OFF	n/a	n/a	WING	4	9	[0, 0, 0]	n/a	FR1	1	R1309M
1750.905	1.626	1085445	WORD	n/a	wordpools/wordpool_EN.txt	FLOOR	5	9	[0, 0, 0]	n/a	FR1	1	R1309M
1752.531	1.093	1087071	WORD_OFF	n/a	n/a	FLOOR	5	9	[0, 0, 0]	n/a	FR1	1	R1309M
1753.624	1.608	1088164	WORD	n/a	wordpools/wordpool_EN.txt	GRASS	6	9	[0, 0, 0]	n/a	FR1	1	R1309M
1755.232	0.986	1089771	WORD_OFF	n/a	n/a	GRASS	6	9	[0, 0, 0]	n/a	FR1	1	R1309M
1756.218	1.631	1090757	WORD	n/a	wordpools/wordpool_EN.txt	FOG	7	9	[0, 0, 0]	n/a	FR1	1	R1309M
1757.849	0.915	1092388	WORD_OFF	n/a	n/a	FOG	7	9	[0, 0, 0]	n/a	FR1	1	R1309M
1758.764	1.636	1093303	WORD	n/a	wordpools/wordpool_EN.txt	SPOON	8	9	[0, 0, 0]	n/a	FR1	1	R1309M
1760.4	0.781	1094939	WORD_OFF	n/a	n/a	SPOON	8	9	[0, 0, 0]	n/a	FR1	1	R1309M
1761.181	1.636	1095720	WORD	n/a	wordpools/wordpool_EN.txt	STOOL	9	9	[0, 0, 0]	n/a	FR1	1	R1309M
1762.817	0.838	1097356	WORD_OFF	n/a	n/a	STOOL	9	9	[0, 0, 0]	n/a	FR1	1	R1309M
1763.655	1.629	1098194	WORD	n/a	wordpools/wordpool_EN.txt	SNAKE	10	9	[0, 0, 0]	n/a	FR1	1	R1309M
1765.284	0.967	1099823	WORD_OFF	n/a	n/a	SNAKE	10	9	[0, 0, 0]	n/a	FR1	1	R1309M
1766.251	1.633	1100790	WORD	n/a	wordpools/wordpool_EN.txt	SWORD	11	9	[0, 0, 0]	n/a	FR1	1	R1309M
1767.884	0.885	1102423	WORD_OFF	n/a	n/a	SWORD	11	9	[0, 0, 0]	n/a	FR1	1	R1309M
1768.769	1.633	1103308	WORD	n/a	wordpools/wordpool_EN.txt	MAZE	12	9	[0, 0, 0]	n/a	FR1	1	R1309M
1770.402	0.0	1104941	WORD_OFF	n/a	n/a	MAZE	12	9	[0, 0, 0]	n/a	FR1	1	R1309M
1770.402	0.001	1104941	ENCODING_END	n/a	n/a	n/a	-999	9	[0, 0, 0]	n/a	FR1	1	R1309M
1770.403	0.0	1104942	DISTRACT_START	n/a	n/a	n/a	-999	9	[0, 0, 0]	n/a	FR1	1	R1309M
1770.403	0.015	1104942	START	n/a	n/a	n/a	-999	9	[-999, -999, -999]	n/a	FR1	1	R1309M
1770.418	4.084	1104957	PROB	4.084	n/a	n/a	-999	9	[7, 3, 4]	14	FR1	1	R1309M
1774.502	2.317	1109041	PROB	2.317	n/a	n/a	-999	9	[6, 5, 1]	12	FR1	1	R1309M
1776.819	3.734	1111357	PROB	3.734	n/a	n/a	-999	9	[2, 5, 1]	8	FR1	1	R1309M
1780.553	3.434	1115091	PROB	3.434	n/a	n/a	-999	9	[1, 9, 8]	18	FR1	1	R1309M
1783.987	3.718	1118525	PROB	3.718	n/a	n/a	-999	9	[4, 2, 9]	15	FR1	1	R1309M
1787.705	3.99	1122243	PROB	3.99	n/a	n/a	-999	9	[7, 2, 6]	15	FR1	1	R1309M
1791.695	0.011	1126233	STOP	n/a	n/a	n/a	-999	9	[-999, -999, -999]	n/a	FR1	1	R1309M
1791.706	0.678	1126244	DISTRACT_END	n/a	n/a	n/a	-999	9	[0, 0, 0]	n/a	FR1	1	R1309M
1792.384	1.539	1126922	RETRIEVAL_ORIENT_START	n/a	n/a	n/a	-999	9	[0, 0, 0]	n/a	FR1	1	R1309M
1793.923	0.0	1128461	RETRIEVAL_ORIENT_END	n/a	n/a	n/a	-999	9	[0, 0, 0]	n/a	FR1	1	R1309M
1793.923	1.927	1128461	REC_START	n/a	n/a	n/a	-999	9	[0, 0, 0]	n/a	FR1	1	R1309M
1795.85	1.644	1130388	REC_WORD	1.644	n/a	FOG	7	9	[0, 0, 0]	n/a	FR1	1	R1309M
1797.494	1.897	1132031	REC_WORD	1.897	n/a	POND	2	9	[0, 0, 0]	n/a	FR1	1	R1309M
1799.391	1.196	1133928	REC_WORD	1.196	n/a	BOARD	3	9	[0, 0, 0]	n/a	FR1	1	R1309M
1800.587	1.336	1135124	REC_WORD	1.336	n/a	FLOOR	5	9	[0, 0, 0]	n/a	FR1	1	R1309M
1801.923	1.543	1136460	REC_WORD	1.543	n/a	GRASS	6	9	[0, 0, 0]	n/a	FR1	1	R1309M
1803.466	20.469	1138003	REC_WORD	20.469	n/a	WING	4	9	[0, 0, 0]	n/a	FR1	1	R1309M
1823.935	0.0	1158471	REC_END	n/a	n/a	n/a	-999	9	[0, 0, 0]	n/a	FR1	1	R1309M
1823.935	0.018	1158471	TRIAL_END	n/a	n/a	n/a	-999	9	[0, 0, 0]	n/a	FR1	1	R1309M
1823.953	0.0	1158489	TRIAL_START	n/a	n/a	n/a	-999	10	[0, 0, 0]	n/a	FR1	1	R1309M
1823.953	0.0	1158489	TRIAL	n/a	n/a	n/a	-999	10	[0, 0, 0]	n/a	FR1	1	R1309M
1823.953	156.539	1158489	WAITING_START	n/a	n/a	n/a	-999	10	[0, 0, 0]	n/a	FR1	1	R1309M
1980.492	0.001	1315021	WAITING_END	n/a	n/a	n/a	-999	10	[0, 0, 0]	n/a	FR1	1	R1309M
1980.493	0.0	1315022	COUNTDOWN_START	n/a	n/a	n/a	-999	10	[0, 0, 0]	n/a	FR1	1	R1309M
