onset	duration	sample	trial_type	response_time	stim_file	item_name	serialpos	list	test	answer	experiment	session	subject
0.0	624.286	9302	INSTRUCT_START	n/a	n/a	n/a	-999	-999	[0, 0, 0]	n/a	FR1	5	R1395M
624.286	8.398	475018	INSTRUCT_START	n/a	n/a	n/a	-999	-999	[0, 0, 0]	n/a	FR1	5	R1395M
632.684	21.517	483421	INSTRUCT_END	n/a	n/a	n/a	-999	-999	[0, 0, 0]	n/a	FR1	5	R1395M
654.201	10.349	504937	COUNTDOWN_START	n/a	n/a	n/a	-999	-999	[0, 0, 0]	n/a	FR1	5	R1395M
664.55	0.001	515278	COUNTDOWN_END	n/a	n/a	n/a	-999	-999	[0, 0, 0]	n/a	FR1	5	R1395M
664.551	2.083	515287	ENCODING_START	n/a	n/a	n/a	-999	-1	[0, 0, 0]	n/a	FR1	5	R1395M
666.634	1.616	517365	WORD	n/a	n/a	LOFT	1	-1	[0, 0, 0]	n/a	FR1	5	R1395M
668.25	0.817	518984	WORD_OFF	n/a	n/a	LOFT	1	-1	[0, 0, 0]	n/a	FR1	5	R1395M
669.067	1.617	519798	WORD	n/a	n/a	CHURCH	2	-1	[0, 0, 0]	n/a	FR1	5	R1395M
670.684	0.967	521417	WORD_OFF	n/a	n/a	CHURCH	2	-1	[0, 0, 0]	n/a	FR1	5	R1395M
671.651	1.616	522381	WORD	n/a	n/a	OAR	3	-1	[0, 0, 0]	n/a	FR1	5	R1395M
673.267	0.867	524000	WORD_OFF	n/a	n/a	OAR	3	-1	[0, 0, 0]	n/a	FR1	5	R1395M
674.134	1.6	524861	WORD	n/a	n/a	CHIN	4	-1	[0, 0, 0]	n/a	FR1	5	R1395M
675.734	0.85	526461	WORD_OFF	n/a	n/a	CHIN	4	-1	[0, 0, 0]	n/a	FR1	5	R1395M
676.584	1.616	527313	WORD	n/a	n/a	PURSE	5	-1	[0, 0, 0]	n/a	FR1	5	R1395M
678.2	0.867	528932	WORD_OFF	n/a	n/a	PURSE	5	-1	[0, 0, 0]	n/a	FR1	5	R1395M
679.067	1.617	529802	WORD	n/a	n/a	BLUSH	6	-1	[0, 0, 0]	n/a	FR1	5	R1395M
680.684	0.865	531412	WORD_OFF	n/a	n/a	BLUSH	6	-1	[0, 0, 0]	n/a	FR1	5	R1395M
681.549	1.602	532282	WORD	n/a	n/a	CHILD	7	-1	[0, 0, 0]	n/a	FR1	5	R1395M
683.151	0.9	533882	WORD_OFF	n/a	n/a	CHILD	7	-1	[0, 0, 0]	n/a	FR1	5	R1395M
684.051	1.6	534781	WORD	n/a	n/a	BRUSH	8	-1	[0, 0, 0]	n/a	FR1	5	R1395M
685.651	0.816	536381	WORD_OFF	n/a	n/a	BRUSH	8	-1	[0, 0, 0]	n/a	FR1	5	R1395M
686.467	1.6	537195	WORD	n/a	n/a	TOWN	9	-1	[0, 0, 0]	n/a	FR1	5	R1395M
688.067	0.85	538796	WORD_OFF	n/a	n/a	TOWN	9	-1	[0, 0, 0]	n/a	FR1	5	R1395M
688.917	1.617	539647	WORD	n/a	n/a	TRAY	10	-1	[0, 0, 0]	n/a	FR1	5	R1395M
690.534	0.817	541266	WORD_OFF	n/a	n/a	TRAY	10	-1	[0, 0, 0]	n/a	FR1	5	R1395M
691.351	1.616	542080	WORD	n/a	n/a	FENCE	11	-1	[0, 0, 0]	n/a	FR1	5	R1395M
692.967	0.9	543699	WORD_OFF	n/a	n/a	FENCE	11	-1	[0, 0, 0]	n/a	FR1	5	R1395M
693.867	1.617	544598	WORD	n/a	n/a	SWAMP	12	-1	[0, 0, 0]	n/a	FR1	5	R1395M
695.484	0.001	546217	WORD_OFF	n/a	n/a	SWAMP	12	-1	[0, 0, 0]	n/a	FR1	5	R1395M
695.485	0.0	546217	ENCODING_END	n/a	n/a	n/a	-999	-1	[0, 0, 0]	n/a	FR1	5	R1395M
695.485	0.0	546217	DISTRACT_START	n/a	n/a	n/a	-999	-1	[0, 0, 0]	n/a	FR1	5	R1395M
695.485	0.0	546214	START	n/a	n/a	n/a	-999	-1	[-999, -999, -999]	n/a	FR1	5	R1395M
695.485	3.383	546214	PROB	3.383	n/a	n/a	-999	-1	[2, 7, 2]	11	FR1	5	R1395M
698.868	3.349	549597	PROB	3.349	n/a	n/a	-999	-1	[7, 4, 5]	15	FR1	5	R1395M
702.217	3.035	552945	PROB	3.035	n/a	n/a	-999	-1	[6, 2, 7]	15	FR1	5	R1395M
705.252	1.766	555980	PROB	1.766	n/a	n/a	-999	-1	[1, 3, 8]	12	FR1	5	R1395M
707.018	1.833	557746	PROB	1.833	n/a	n/a	-999	-1	[8, 1, 6]	14	FR1	5	R1395M
708.851	5.967	559579	PROB	5.967	n/a	n/a	-999	-1	[7, 1, 5]	13	FR1	5	R1395M
714.818	2.633	565546	PROB	2.633	n/a	n/a	-999	-1	[4, 5, 7]	16	FR1	5	R1395M
717.451	0.0	568181	DISTRACT_END	n/a	n/a	n/a	-999	-1	[0, 0, 0]	n/a	FR1	5	R1395M
717.451	2.316	568179	STOP	n/a	n/a	n/a	-999	-1	[-999, -999, -999]	n/a	FR1	5	R1395M
719.767	2.165	570491	REC_START	n/a	n/a	n/a	-999	-1	[0, 0, 0]	n/a	FR1	5	R1395M
721.932	1.205	572659	REC_WORD	1.205	n/a	OAR	3	-1	[0, 0, 0]	n/a	FR1	5	R1395M
723.137	1.724	573864	REC_WORD	1.724	n/a	CHURCH	2	-1	[0, 0, 0]	n/a	FR1	5	R1395M
724.861	3.352	575588	REC_WORD	3.352	n/a	LOFT	1	-1	[0, 0, 0]	n/a	FR1	5	R1395M
728.213	3.425	578940	REC_WORD	3.425	n/a	CHIN	4	-1	[0, 0, 0]	n/a	FR1	5	R1395M
731.638	18.396	582365	REC_WORD	18.396	n/a	BRUSH	8	-1	[0, 0, 0]	n/a	FR1	5	R1395M
750.034	3.583	600758	REC_END	n/a	n/a	n/a	-999	-1	[0, 0, 0]	n/a	FR1	5	R1395M
753.617	10.35	604342	COUNTDOWN_START	n/a	n/a	n/a	-999	1	[0, 0, 0]	n/a	FR1	5	R1395M
763.967	0.0	614693	COUNTDOWN_END	n/a	n/a	n/a	-999	1	[0, 0, 0]	n/a	FR1	5	R1395M
763.967	1.982	614693	ENCODING_START	n/a	n/a	n/a	-999	1	[0, 0, 0]	n/a	FR1	5	R1395M
765.949	1.601	616677	WORD	n/a	wordpools/wordpool_long_EN.txt	RAFT	1	1	[0, 0, 0]	n/a	FR1	5	R1395M
767.55	0.951	618277	WORD_OFF	n/a	n/a	RAFT	1	1	[0, 0, 0]	n/a	FR1	5	R1395M
768.501	1.616	619222	WORD	n/a	wordpools/wordpool_long_EN.txt	VINE	2	1	[0, 0, 0]	n/a	FR1	5	R1395M
770.117	0.933	620841	WORD_OFF	n/a	n/a	VINE	2	1	[0, 0, 0]	n/a	FR1	5	R1395M
771.05	1.601	621777	WORD	n/a	wordpools/wordpool_long_EN.txt	SMOKE	3	1	[0, 0, 0]	n/a	FR1	5	R1395M
772.651	0.866	623378	WORD_OFF	n/a	n/a	SMOKE	3	1	[0, 0, 0]	n/a	FR1	5	R1395M
773.517	1.617	624239	WORD	n/a	wordpools/wordpool_long_EN.txt	CLAM	4	1	[0, 0, 0]	n/a	FR1	5	R1395M
775.134	0.8	625858	WORD_OFF	n/a	n/a	CLAM	4	1	[0, 0, 0]	n/a	FR1	5	R1395M
775.934	1.6	626662	WORD	n/a	wordpools/wordpool_long_EN.txt	BOMB	5	1	[0, 0, 0]	n/a	FR1	5	R1395M
777.534	0.816	628263	WORD_OFF	n/a	n/a	BOMB	5	1	[0, 0, 0]	n/a	FR1	5	R1395M
778.35	1.6	629077	WORD	n/a	wordpools/wordpool_long_EN.txt	TOY	6	1	[0, 0, 0]	n/a	FR1	5	R1395M
779.95	0.867	630677	WORD_OFF	n/a	n/a	TOY	6	1	[0, 0, 0]	n/a	FR1	5	R1395M
780.817	1.617	631538	WORD	n/a	wordpools/wordpool_long_EN.txt	TOOTH	7	1	[0, 0, 0]	n/a	FR1	5	R1395M
782.434	0.933	633157	WORD_OFF	n/a	n/a	TOOTH	7	1	[0, 0, 0]	n/a	FR1	5	R1395M
783.367	1.6	634093	WORD	n/a	wordpools/wordpool_long_EN.txt	TILE	8	1	[0, 0, 0]	n/a	FR1	5	R1395M
784.967	0.767	635693	WORD_OFF	n/a	n/a	TILE	8	1	[0, 0, 0]	n/a	FR1	5	R1395M
785.734	1.6	636461	WORD	n/a	wordpools/wordpool_long_EN.txt	SEAL	9	1	[0, 0, 0]	n/a	FR1	5	R1395M
787.334	0.983	638061	WORD_OFF	n/a	n/a	SEAL	9	1	[0, 0, 0]	n/a	FR1	5	R1395M
788.317	1.617	639044	WORD	n/a	wordpools/wordpool_long_EN.txt	JUDGE	10	1	[0, 0, 0]	n/a	FR1	5	R1395M
789.934	0.966	640663	WORD_OFF	n/a	n/a	JUDGE	10	1	[0, 0, 0]	n/a	FR1	5	R1395M
790.9	1.601	641627	WORD	n/a	wordpools/wordpool_long_EN.txt	FARM	11	1	[0, 0, 0]	n/a	FR1	5	R1395M
792.501	0.95	643227	WORD_OFF	n/a	n/a	FARM	11	1	[0, 0, 0]	n/a	FR1	5	R1395M
793.451	1.616	644172	WORD	n/a	wordpools/wordpool_long_EN.txt	TANK	12	1	[0, 0, 0]	n/a	FR1	5	R1395M
795.067	0.001	645791	WORD_OFF	n/a	n/a	TANK	12	1	[0, 0, 0]	n/a	FR1	5	R1395M
795.068	0.001	645791	PROB	0.001	n/a	n/a	-999	1	[1, 6, 4]	11	FR1	5	R1395M
795.069	0.0	645791	ENCODING_END	n/a	n/a	n/a	-999	1	[0, 0, 0]	n/a	FR1	5	R1395M
795.069	0.0	645792	DISTRACT_START	n/a	n/a	n/a	-999	1	[0, 0, 0]	n/a	FR1	5	R1395M
795.069	6.231	645792	START	n/a	n/a	n/a	-999	1	[-999, -999, -999]	n/a	FR1	5	R1395M
801.3	3.951	652023	PROB	3.951	n/a	n/a	-999	1	[6, 4, 3]	13	FR1	5	R1395M
805.251	2.732	655974	PROB	2.732	n/a	n/a	-999	1	[6, 1, 1]	8	FR1	5	R1395M
807.983	2.518	658706	PROB	2.518	n/a	n/a	-999	1	[5, 6, 2]	13	FR1	5	R1395M
810.501	2.617	661224	PROB	2.617	n/a	n/a	-999	1	[8, 8, 3]	19	FR1	5	R1395M
813.118	1.683	663840	PROB	1.683	n/a	n/a	-999	1	[1, 8, 2]	11	FR1	5	R1395M
814.801	1.583	665523	PROB	1.583	n/a	n/a	-999	1	[3, 5, 4]	12	FR1	5	R1395M
816.384	0.0	667110	DISTRACT_END	n/a	n/a	n/a	-999	1	[0, 0, 0]	n/a	FR1	5	R1395M
816.384	2.25	667106	STOP	n/a	n/a	n/a	-999	1	[-999, -999, -999]	n/a	FR1	5	R1395M
818.634	2.565	669354	REC_START	n/a	n/a	n/a	-999	1	[0, 0, 0]	n/a	FR1	5	R1395M
821.199	0.964	671921	REC_WORD	0.964	n/a	TOOTH	7	1	[0, 0, 0]	n/a	FR1	5	R1395M
822.163	1.658	672885	REC_WORD	1.658	n/a	TOY	6	1	[0, 0, 0]	n/a	FR1	5	R1395M
823.821	3.66	674543	REC_WORD	3.66	n/a	TILE	8	1	[0, 0, 0]	n/a	FR1	5	R1395M
827.481	9.721	678203	REC_WORD	9.721	n/a	SEAL	9	1	[0, 0, 0]	n/a	FR1	5	R1395M
837.202	11.667	687923	REC_WORD	11.667	n/a	TOY	6	1	[0, 0, 0]	n/a	FR1	5	R1395M
848.869	3.898	699593	REC_END	n/a	n/a	n/a	-999	1	[0, 0, 0]	n/a	FR1	5	R1395M
852.767	10.35	703486	COUNTDOWN_START	n/a	n/a	n/a	-999	2	[0, 0, 0]	n/a	FR1	5	R1395M
863.117	0.0	713837	COUNTDOWN_END	n/a	n/a	n/a	-999	2	[0, 0, 0]	n/a	FR1	5	R1395M
863.117	2.15	713837	ENCODING_START	n/a	n/a	n/a	-999	2	[0, 0, 0]	n/a	FR1	5	R1395M
865.267	1.616	715989	WORD	n/a	wordpools/wordpool_long_EN.txt	FAN	1	2	[0, 0, 0]	n/a	FR1	5	R1395M
866.883	0.767	717599	WORD_OFF	n/a	n/a	FAN	1	2	[0, 0, 0]	n/a	FR1	5	R1395M
867.65	1.617	718366	WORD	n/a	wordpools/wordpool_long_EN.txt	TENT	2	2	[0, 0, 0]	n/a	FR1	5	R1395M
869.267	0.799	719985	WORD_OFF	n/a	n/a	TENT	2	2	[0, 0, 0]	n/a	FR1	5	R1395M
870.066	1.601	720790	WORD	n/a	wordpools/wordpool_long_EN.txt	BRANCH	3	2	[0, 0, 0]	n/a	FR1	5	R1395M
871.667	0.766	722390	WORD_OFF	n/a	n/a	BRANCH	3	2	[0, 0, 0]	n/a	FR1	5	R1395M
872.433	1.601	723148	WORD	n/a	wordpools/wordpool_long_EN.txt	SPARK	4	2	[0, 0, 0]	n/a	FR1	5	R1395M
874.034	0.9	724758	WORD_OFF	n/a	n/a	SPARK	4	2	[0, 0, 0]	n/a	FR1	5	R1395M
874.934	1.617	725656	WORD	n/a	wordpools/wordpool_long_EN.txt	ROPE	5	2	[0, 0, 0]	n/a	FR1	5	R1395M
876.551	0.85	727266	WORD_OFF	n/a	n/a	ROPE	5	2	[0, 0, 0]	n/a	FR1	5	R1395M
877.401	1.616	728118	WORD	n/a	wordpools/wordpool_long_EN.txt	PIN	6	2	[0, 0, 0]	n/a	FR1	5	R1395M
879.017	0.85	729737	WORD_OFF	n/a	n/a	PIN	6	2	[0, 0, 0]	n/a	FR1	5	R1395M
879.867	1.601	730588	WORD	n/a	wordpools/wordpool_long_EN.txt	WORLD	7	2	[0, 0, 0]	n/a	FR1	5	R1395M
881.468	1.001	732189	WORD_OFF	n/a	n/a	WORLD	7	2	[0, 0, 0]	n/a	FR1	5	R1395M
882.469	1.598	733190	WORD	n/a	wordpools/wordpool_long_EN.txt	BIRD	8	2	[0, 0, 0]	n/a	FR1	5	R1395M
884.067	0.85	734790	WORD_OFF	n/a	n/a	BIRD	8	2	[0, 0, 0]	n/a	FR1	5	R1395M
884.917	1.617	735633	WORD	n/a	wordpools/wordpool_long_EN.txt	BOWL	9	2	[0, 0, 0]	n/a	FR1	5	R1395M
886.534	0.967	737252	WORD_OFF	n/a	n/a	BOWL	9	2	[0, 0, 0]	n/a	FR1	5	R1395M
887.501	1.6	738216	WORD	n/a	wordpools/wordpool_long_EN.txt	GLOBE	10	2	[0, 0, 0]	n/a	FR1	5	R1395M
889.101	0.899	739816	WORD_OFF	n/a	n/a	GLOBE	10	2	[0, 0, 0]	n/a	FR1	5	R1395M
890.0	1.601	740714	WORD	n/a	wordpools/wordpool_long_EN.txt	STORM	11	2	[0, 0, 0]	n/a	FR1	5	R1395M
891.601	0.899	742324	WORD_OFF	n/a	n/a	STORM	11	2	[0, 0, 0]	n/a	FR1	5	R1395M
892.5	1.617	743222	WORD	n/a	wordpools/wordpool_long_EN.txt	CLIFF	12	2	[0, 0, 0]	n/a	FR1	5	R1395M
894.117	0.001	744832	WORD_OFF	n/a	n/a	CLIFF	12	2	[0, 0, 0]	n/a	FR1	5	R1395M
894.118	0.001	744836	PROB	0.001	n/a	n/a	-999	2	[1, 5, 4]	10	FR1	5	R1395M
894.119	0.0	744841	DISTRACT_START	n/a	n/a	n/a	-999	2	[0, 0, 0]	n/a	FR1	5	R1395M
894.119	0.0	744841	ENCODING_END	n/a	n/a	n/a	-999	2	[0, 0, 0]	n/a	FR1	5	R1395M
894.119	5.132	744837	START	n/a	n/a	n/a	-999	2	[-999, -999, -999]	n/a	FR1	5	R1395M
899.251	2.083	749969	PROB	2.083	n/a	n/a	-999	2	[1, 2, 2]	5	FR1	5	R1395M
901.334	2.084	752052	PROB	2.084	n/a	n/a	-999	2	[3, 1, 8]	12	FR1	5	R1395M
903.418	2.5	754136	PROB	2.5	n/a	n/a	-999	2	[1, 3, 2]	6	FR1	5	R1395M
905.918	2.633	756636	PROB	2.633	n/a	n/a	-999	2	[8, 4, 7]	19	FR1	5	R1395M
908.551	2.468	759268	PROB	2.468	n/a	n/a	-999	2	[2, 3, 5]	10	FR1	5	R1395M
911.019	2.966	761736	PROB	2.966	n/a	n/a	-999	2	[4, 1, 8]	13	FR1	5	R1395M
913.985	2.265	764702	PROB	2.265	n/a	n/a	-999	2	[8, 1, 7]	16	FR1	5	R1395M
916.25	0.0	766965	DISTRACT_END	n/a	n/a	n/a	-999	2	[0, 0, 0]	n/a	FR1	5	R1395M
916.25	2.067	766967	STOP	n/a	n/a	n/a	-999	2	[-999, -999, -999]	n/a	FR1	5	R1395M
918.317	2.292	769032	REC_START	n/a	n/a	n/a	-999	2	[0, 0, 0]	n/a	FR1	5	R1395M
920.609	2.123	771326	REC_WORD	2.123	n/a	WORLD	7	2	[0, 0, 0]	n/a	FR1	5	R1395M
922.732	0.848	773449	REC_WORD	0.848	n/a	GLOBE	10	2	[0, 0, 0]	n/a	FR1	5	R1395M
923.58	2.305	774297	REC_WORD	2.305	n/a	BIRD	8	2	[0, 0, 0]	n/a	FR1	5	R1395M
925.885	22.666	776602	REC_WORD	22.666	n/a	STORM	11	2	[0, 0, 0]	n/a	FR1	5	R1395M
948.551	2.466	799270	REC_END	n/a	n/a	n/a	-999	2	[0, 0, 0]	n/a	FR1	5	R1395M
951.017	10.351	801732	COUNTDOWN_START	n/a	n/a	n/a	-999	3	[0, 0, 0]	n/a	FR1	5	R1395M
961.368	0.0	812082	COUNTDOWN_END	n/a	n/a	n/a	-999	3	[0, 0, 0]	n/a	FR1	5	R1395M
961.368	2.266	812082	ENCODING_START	n/a	n/a	n/a	-999	3	[0, 0, 0]	n/a	FR1	5	R1395M
963.634	1.6	814347	WORD	n/a	wordpools/wordpool_long_EN.txt	MARSH	1	3	[0, 0, 0]	n/a	FR1	5	R1395M
965.234	0.783	815947	WORD_OFF	n/a	n/a	MARSH	1	3	[0, 0, 0]	n/a	FR1	5	R1395M
966.017	1.6	816733	WORD	n/a	wordpools/wordpool_long_EN.txt	STEAM	2	3	[0, 0, 0]	n/a	FR1	5	R1395M
967.617	0.849	818334	WORD_OFF	n/a	n/a	STEAM	2	3	[0, 0, 0]	n/a	FR1	5	R1395M
968.466	1.601	819185	WORD	n/a	wordpools/wordpool_long_EN.txt	PLANT	3	3	[0, 0, 0]	n/a	FR1	5	R1395M
970.067	0.833	820785	WORD_OFF	n/a	n/a	PLANT	3	3	[0, 0, 0]	n/a	FR1	5	R1395M
970.9	1.617	821618	WORD	n/a	wordpools/wordpool_long_EN.txt	GROUND	4	3	[0, 0, 0]	n/a	FR1	5	R1395M
972.517	0.933	823228	WORD_OFF	n/a	n/a	GROUND	4	3	[0, 0, 0]	n/a	FR1	5	R1395M
973.45	1.6	824164	WORD	n/a	wordpools/wordpool_long_EN.txt	BEEF	5	3	[0, 0, 0]	n/a	FR1	5	R1395M
975.05	0.767	825764	WORD_OFF	n/a	n/a	BEEF	5	3	[0, 0, 0]	n/a	FR1	5	R1395M
975.817	1.617	826532	WORD	n/a	wordpools/wordpool_long_EN.txt	GLOVE	6	3	[0, 0, 0]	n/a	FR1	5	R1395M
977.434	1.0	828151	WORD_OFF	n/a	n/a	GLOVE	6	3	[0, 0, 0]	n/a	FR1	5	R1395M
978.434	1.6	829152	WORD	n/a	wordpools/wordpool_long_EN.txt	CHEST	7	3	[0, 0, 0]	n/a	FR1	5	R1395M
980.034	0.883	830752	WORD_OFF	n/a	n/a	CHEST	7	3	[0, 0, 0]	n/a	FR1	5	R1395M
980.917	1.6	831632	WORD	n/a	wordpools/wordpool_long_EN.txt	CRANE	8	3	[0, 0, 0]	n/a	FR1	5	R1395M
982.517	0.867	833232	WORD_OFF	n/a	n/a	CRANE	8	3	[0, 0, 0]	n/a	FR1	5	R1395M
983.384	1.6	834093	WORD	n/a	wordpools/wordpool_long_EN.txt	NAIL	9	3	[0, 0, 0]	n/a	FR1	5	R1395M
984.984	0.933	835694	WORD_OFF	n/a	n/a	NAIL	9	3	[0, 0, 0]	n/a	FR1	5	R1395M
985.917	1.6	836629	WORD	n/a	wordpools/wordpool_long_EN.txt	THRONE	10	3	[0, 0, 0]	n/a	FR1	5	R1395M
987.517	0.917	838230	WORD_OFF	n/a	n/a	THRONE	10	3	[0, 0, 0]	n/a	FR1	5	R1395M
988.434	1.6	839147	WORD	n/a	wordpools/wordpool_long_EN.txt	WOLF	11	3	[0, 0, 0]	n/a	FR1	5	R1395M
990.034	0.867	840747	WORD_OFF	n/a	n/a	WOLF	11	3	[0, 0, 0]	n/a	FR1	5	R1395M
990.901	1.6	841617	WORD	n/a	wordpools/wordpool_long_EN.txt	LAMP	12	3	[0, 0, 0]	n/a	FR1	5	R1395M
992.501	0.0	843218	WORD_OFF	n/a	n/a	LAMP	12	3	[0, 0, 0]	n/a	FR1	5	R1395M
992.501	0.001	843214	PROB	0.001	n/a	n/a	-999	3	[7, 6, 2]	15	FR1	5	R1395M
992.502	0.0	843218	ENCODING_END	n/a	n/a	n/a	-999	3	[0, 0, 0]	n/a	FR1	5	R1395M
992.502	0.0	843218	DISTRACT_START	n/a	n/a	n/a	-999	3	[0, 0, 0]	n/a	FR1	5	R1395M
992.502	8.999	843215	START	n/a	n/a	n/a	-999	3	[-999, -999, -999]	n/a	FR1	5	R1395M
1001.501	2.633	852213	PROB	2.633	n/a	n/a	-999	3	[8, 2, 2]	12	FR1	5	R1395M
1004.134	3.45	854846	PROB	3.45	n/a	n/a	-999	3	[7, 8, 2]	17	FR1	5	R1395M
1007.584	3.0	858296	PROB	3.0	n/a	n/a	-999	3	[2, 2, 6]	10	FR1	5	R1395M
1010.584	3.0	861296	PROB	3.0	n/a	n/a	-999	3	[2, 5, 7]	14	FR1	5	R1395M
1013.584	0.0	864293	DISTRACT_END	n/a	n/a	n/a	-999	3	[0, 0, 0]	n/a	FR1	5	R1395M
1013.584	2.083	864296	STOP	n/a	n/a	n/a	-999	3	[-999, -999, -999]	n/a	FR1	5	R1395M
1015.667	0.919	866379	REC_START	n/a	n/a	n/a	-999	3	[0, 0, 0]	n/a	FR1	5	R1395M
1016.586	1.804	867298	REC_WORD	1.804	n/a	MARSH	1	3	[0, 0, 0]	n/a	FR1	5	R1395M
1018.39	2.474	869102	REC_WORD	2.474	n/a	GROUND	4	3	[0, 0, 0]	n/a	FR1	5	R1395M
1020.864	5.909	871575	REC_WORD	5.909	n/a	BEEF	5	3	[0, 0, 0]	n/a	FR1	5	R1395M
1026.773	2.603	877484	REC_WORD	2.603	n/a	CRANE	8	3	[0, 0, 0]	n/a	FR1	5	R1395M
1029.376	2.646	880087	REC_WORD	2.646	n/a	CROWN	-999	3	[0, 0, 0]	n/a	FR1	5	R1395M
1032.022	13.892	882733	REC_WORD	13.892	n/a	CHEST	7	3	[0, 0, 0]	n/a	FR1	5	R1395M
1045.914	16.002	896627	REC_END	n/a	n/a	n/a	-999	3	[0, 0, 0]	n/a	FR1	5	R1395M
1061.916	10.352	912630	COUNTDOWN_START	n/a	n/a	n/a	-999	4	[0, 0, 0]	n/a	FR1	5	R1395M
1072.268	0.0	922980	COUNTDOWN_END	n/a	n/a	n/a	-999	4	[0, 0, 0]	n/a	FR1	5	R1395M
1072.268	1.983	922980	ENCODING_START	n/a	n/a	n/a	-999	4	[0, 0, 0]	n/a	FR1	5	R1395M
1074.251	1.6	924964	WORD	n/a	wordpools/wordpool_long_EN.txt	COOK	1	4	[0, 0, 0]	n/a	FR1	5	R1395M
1075.851	0.933	926564	WORD_OFF	n/a	n/a	COOK	1	4	[0, 0, 0]	n/a	FR1	5	R1395M
1076.784	1.617	927491	WORD	n/a	wordpools/wordpool_long_EN.txt	PEARL	2	4	[0, 0, 0]	n/a	FR1	5	R1395M
1078.401	0.767	929110	WORD_OFF	n/a	n/a	PEARL	2	4	[0, 0, 0]	n/a	FR1	5	R1395M
1079.168	1.6	929877	WORD	n/a	wordpools/wordpool_long_EN.txt	HOOF	3	4	[0, 0, 0]	n/a	FR1	5	R1395M
1080.768	0.783	931478	WORD_OFF	n/a	n/a	HOOF	3	4	[0, 0, 0]	n/a	FR1	5	R1395M
1081.551	1.6	932264	WORD	n/a	wordpools/wordpool_long_EN.txt	ROD	4	4	[0, 0, 0]	n/a	FR1	5	R1395M
1083.151	0.866	933859	WORD_OFF	n/a	n/a	ROD	4	4	[0, 0, 0]	n/a	FR1	5	R1395M
1084.017	1.6	934725	WORD	n/a	wordpools/wordpool_long_EN.txt	RAT	5	4	[0, 0, 0]	n/a	FR1	5	R1395M
1085.617	0.8	936325	WORD_OFF	n/a	n/a	RAT	5	4	[0, 0, 0]	n/a	FR1	5	R1395M
1086.417	1.6	937121	WORD	n/a	wordpools/wordpool_long_EN.txt	SOUP	6	4	[0, 0, 0]	n/a	FR1	5	R1395M
1088.017	1.0	938721	WORD_OFF	n/a	n/a	SOUP	6	4	[0, 0, 0]	n/a	FR1	5	R1395M
1089.017	1.617	939722	WORD	n/a	wordpools/wordpool_long_EN.txt	SHIP	7	4	[0, 0, 0]	n/a	FR1	5	R1395M
1090.634	0.866	941341	WORD_OFF	n/a	n/a	SHIP	7	4	[0, 0, 0]	n/a	FR1	5	R1395M
1091.5	1.617	942212	WORD	n/a	wordpools/wordpool_long_EN.txt	JAR	8	4	[0, 0, 0]	n/a	FR1	5	R1395M
1093.117	0.984	943821	WORD_OFF	n/a	n/a	JAR	8	4	[0, 0, 0]	n/a	FR1	5	R1395M
1094.101	1.6	944813	WORD	n/a	wordpools/wordpool_long_EN.txt	SWORD	9	4	[0, 0, 0]	n/a	FR1	5	R1395M
1095.701	0.9	946404	WORD_OFF	n/a	n/a	SWORD	9	4	[0, 0, 0]	n/a	FR1	5	R1395M
1096.601	1.616	947312	WORD	n/a	wordpools/wordpool_long_EN.txt	MUG	10	4	[0, 0, 0]	n/a	FR1	5	R1395M
1098.217	1.0	948922	WORD_OFF	n/a	n/a	MUG	10	4	[0, 0, 0]	n/a	FR1	5	R1395M
1099.217	1.6	949923	WORD	n/a	wordpools/wordpool_long_EN.txt	RIB	11	4	[0, 0, 0]	n/a	FR1	5	R1395M
1100.817	0.85	951523	WORD_OFF	n/a	n/a	RIB	11	4	[0, 0, 0]	n/a	FR1	5	R1395M
1101.667	1.6	952375	WORD	n/a	wordpools/wordpool_long_EN.txt	CUBE	12	4	[0, 0, 0]	n/a	FR1	5	R1395M
1103.267	0.001	953975	WORD_OFF	n/a	n/a	CUBE	12	4	[0, 0, 0]	n/a	FR1	5	R1395M
1103.268	0.001	953975	PROB	0.001	n/a	n/a	-999	4	[7, 6, 1]	14	FR1	5	R1395M
1103.269	0.0	953975	DISTRACT_START	n/a	n/a	n/a	-999	4	[0, 0, 0]	n/a	FR1	5	R1395M
1103.269	0.0	953975	ENCODING_END	n/a	n/a	n/a	-999	4	[0, 0, 0]	n/a	FR1	5	R1395M
1103.269	6.382	953976	START	n/a	n/a	n/a	-999	4	[-999, -999, -999]	n/a	FR1	5	R1395M
1109.651	2.2	960358	PROB	2.2	n/a	n/a	-999	4	[1, 1, 1]	3	FR1	5	R1395M
1111.851	3.334	962558	PROB	3.334	n/a	n/a	-999	4	[6, 5, 4]	15	FR1	5	R1395M
1115.185	2.966	965891	PROB	2.966	n/a	n/a	-999	4	[3, 3, 4]	10	FR1	5	R1395M
1118.151	2.917	968857	PROB	2.917	n/a	n/a	-999	4	[8, 3, 7]	18	FR1	5	R1395M
1121.068	4.083	971774	PROB	4.083	n/a	n/a	-999	4	[5, 2, 2]	9	FR1	5	R1395M
1125.151	0.0	975865	DISTRACT_END	n/a	n/a	n/a	-999	4	[0, 0, 0]	n/a	FR1	5	R1395M
1125.151	2.065	975857	STOP	n/a	n/a	n/a	-999	4	[-999, -999, -999]	n/a	FR1	5	R1395M
1127.216	4.293	977922	REC_START	n/a	n/a	n/a	-999	4	[0, 0, 0]	n/a	FR1	5	R1395M
1131.509	1.799	982215	REC_WORD	1.799	n/a	ROD	4	4	[0, 0, 0]	n/a	FR1	5	R1395M
1133.308	2.024	984013	REC_WORD	2.024	n/a	RAT	5	4	[0, 0, 0]	n/a	FR1	5	R1395M
1135.332	10.898	986037	REC_WORD	10.898	n/a	SWORD	9	4	[0, 0, 0]	n/a	FR1	5	R1395M
1146.23	1.276	996935	REC_WORD	1.276	n/a	CUBE	12	4	[0, 0, 0]	n/a	FR1	5	R1395M
1147.506	9.937	998211	REC_WORD_VV	9.937	n/a	<>	-999	4	[0, 0, 0]	n/a	FR1	5	R1395M
1157.443	1.658	1008152	REC_END	n/a	n/a	n/a	-999	4	[0, 0, 0]	n/a	FR1	5	R1395M
1159.101	10.35	1009808	COUNTDOWN_START	n/a	n/a	n/a	-999	5	[0, 0, 0]	n/a	FR1	5	R1395M
1169.451	0.001	1020159	COUNTDOWN_END	n/a	n/a	n/a	-999	5	[0, 0, 0]	n/a	FR1	5	R1395M
1169.452	2.182	1020159	ENCODING_START	n/a	n/a	n/a	-999	5	[0, 0, 0]	n/a	FR1	5	R1395M
1171.634	1.616	1022339	WORD	n/a	wordpools/wordpool_long_EN.txt	HORN	1	5	[0, 0, 0]	n/a	FR1	5	R1395M
1173.25	0.801	1023958	WORD_OFF	n/a	n/a	HORN	1	5	[0, 0, 0]	n/a	FR1	5	R1395M
1174.051	1.616	1024754	WORD	n/a	wordpools/wordpool_long_EN.txt	CORD	2	5	[0, 0, 0]	n/a	FR1	5	R1395M
1175.667	0.949	1026373	WORD_OFF	n/a	n/a	CORD	2	5	[0, 0, 0]	n/a	FR1	5	R1395M
1176.616	1.601	1027318	WORD	n/a	wordpools/wordpool_long_EN.txt	POND	3	5	[0, 0, 0]	n/a	FR1	5	R1395M
1178.217	0.8	1028918	WORD_OFF	n/a	n/a	POND	3	5	[0, 0, 0]	n/a	FR1	5	R1395M
1179.017	1.6	1029723	WORD	n/a	wordpools/wordpool_long_EN.txt	TART	4	5	[0, 0, 0]	n/a	FR1	5	R1395M
1180.617	0.866	1031323	WORD_OFF	n/a	n/a	TART	4	5	[0, 0, 0]	n/a	FR1	5	R1395M
1181.483	1.601	1032184	WORD	n/a	wordpools/wordpool_long_EN.txt	SHIELD	5	5	[0, 0, 0]	n/a	FR1	5	R1395M
1183.084	0.833	1033785	WORD_OFF	n/a	n/a	SHIELD	5	5	[0, 0, 0]	n/a	FR1	5	R1395M
1183.917	1.617	1034617	WORD	n/a	wordpools/wordpool_long_EN.txt	PIT	6	5	[0, 0, 0]	n/a	FR1	5	R1395M
1185.534	0.867	1036236	WORD_OFF	n/a	n/a	PIT	6	5	[0, 0, 0]	n/a	FR1	5	R1395M
1186.401	1.616	1037107	WORD	n/a	wordpools/wordpool_long_EN.txt	PALM	7	5	[0, 0, 0]	n/a	FR1	5	R1395M
1188.017	0.833	1038716	WORD_OFF	n/a	n/a	PALM	7	5	[0, 0, 0]	n/a	FR1	5	R1395M
1188.85	1.6	1039549	WORD	n/a	wordpools/wordpool_long_EN.txt	RUG	8	5	[0, 0, 0]	n/a	FR1	5	R1395M
1190.45	0.884	1041150	WORD_OFF	n/a	n/a	RUG	8	5	[0, 0, 0]	n/a	FR1	5	R1395M
1191.334	1.616	1042039	WORD	n/a	wordpools/wordpool_long_EN.txt	BRIDGE	9	5	[0, 0, 0]	n/a	FR1	5	R1395M
1192.95	0.951	1043648	WORD_OFF	n/a	n/a	BRIDGE	9	5	[0, 0, 0]	n/a	FR1	5	R1395M
1193.901	1.616	1044603	WORD	n/a	wordpools/wordpool_long_EN.txt	FROG	10	5	[0, 0, 0]	n/a	FR1	5	R1395M
1195.517	0.9	1046222	WORD_OFF	n/a	n/a	FROG	10	5	[0, 0, 0]	n/a	FR1	5	R1395M
1196.417	1.617	1047120	WORD	n/a	wordpools/wordpool_long_EN.txt	LUNCH	11	5	[0, 0, 0]	n/a	FR1	5	R1395M
1198.034	0.9	1048739	WORD_OFF	n/a	n/a	LUNCH	11	5	[0, 0, 0]	n/a	FR1	5	R1395M
1198.934	1.617	1049638	WORD	n/a	wordpools/wordpool_long_EN.txt	MAT	12	5	[0, 0, 0]	n/a	FR1	5	R1395M
1200.551	0.0	1051257	WORD_OFF	n/a	n/a	MAT	12	5	[0, 0, 0]	n/a	FR1	5	R1395M
1200.551	0.001	1051253	PROB	0.001	n/a	n/a	-999	5	[2, 4, 2]	8	FR1	5	R1395M
1200.552	0.0	1051257	ENCODING_END	n/a	n/a	n/a	-999	5	[0, 0, 0]	n/a	FR1	5	R1395M
1200.552	0.0	1051257	DISTRACT_START	n/a	n/a	n/a	-999	5	[0, 0, 0]	n/a	FR1	5	R1395M
1200.552	4.883	1051254	START	n/a	n/a	n/a	-999	5	[-999, -999, -999]	n/a	FR1	5	R1395M
1205.435	2.532	1056137	PROB	2.532	n/a	n/a	-999	5	[7, 5, 2]	14	FR1	5	R1395M
1207.967	3.001	1058668	PROB	3.001	n/a	n/a	-999	5	[7, 2, 1]	10	FR1	5	R1395M
1210.968	2.7	1061669	PROB	2.7	n/a	n/a	-999	5	[4, 5, 7]	16	FR1	5	R1395M
1213.668	2.234	1064369	PROB	2.234	n/a	n/a	-999	5	[7, 5, 3]	15	FR1	5	R1395M
1215.902	2.165	1066603	PROB	2.165	n/a	n/a	-999	5	[6, 4, 4]	14	FR1	5	R1395M
1218.067	2.317	1068768	PROB	2.317	n/a	n/a	-999	5	[2, 2, 2]	6	FR1	5	R1395M
1220.384	2.701	1071085	PROB	2.701	n/a	n/a	-999	5	[3, 1, 3]	7	FR1	5	R1395M
1223.085	0.0	1073783	DISTRACT_END	n/a	n/a	n/a	-999	5	[0, 0, 0]	n/a	FR1	5	R1395M
1223.085	2.165	1073786	STOP	n/a	n/a	n/a	-999	5	[-999, -999, -999]	n/a	FR1	5	R1395M
1225.25	3.85	1075953	REC_START	n/a	n/a	n/a	-999	5	[0, 0, 0]	n/a	FR1	5	R1395M
1229.1	1.508	1079800	REC_WORD	1.508	n/a	POND	3	5	[0, 0, 0]	n/a	FR1	5	R1395M
1230.608	2.705	1081308	REC_WORD	2.705	n/a	PIT	6	5	[0, 0, 0]	n/a	FR1	5	R1395M
1233.313	22.193	1084013	REC_WORD	22.193	n/a	PALM	7	5	[0, 0, 0]	n/a	FR1	5	R1395M
1255.506	1.528	1106210	REC_END	n/a	n/a	n/a	-999	5	[0, 0, 0]	n/a	FR1	5	R1395M
1257.034	10.351	1107735	COUNTDOWN_START	n/a	n/a	n/a	-999	6	[0, 0, 0]	n/a	FR1	5	R1395M
1267.385	0.0	1118086	COUNTDOWN_END	n/a	n/a	n/a	-999	6	[0, 0, 0]	n/a	FR1	5	R1395M
1267.385	2.199	1118086	ENCODING_START	n/a	n/a	n/a	-999	6	[0, 0, 0]	n/a	FR1	5	R1395M
1269.584	1.6	1120285	WORD	n/a	wordpools/wordpool_long_EN.txt	POLE	1	6	[0, 0, 0]	n/a	FR1	5	R1395M
1271.184	0.899	1121885	WORD_OFF	n/a	n/a	POLE	1	6	[0, 0, 0]	n/a	FR1	5	R1395M
1272.083	1.601	1122784	WORD	n/a	wordpools/wordpool_long_EN.txt	GOAL	2	6	[0, 0, 0]	n/a	FR1	5	R1395M
1273.684	0.967	1124384	WORD_OFF	n/a	n/a	GOAL	2	6	[0, 0, 0]	n/a	FR1	5	R1395M
1274.651	1.616	1125348	WORD	n/a	wordpools/wordpool_long_EN.txt	SLEEVE	3	6	[0, 0, 0]	n/a	FR1	5	R1395M
1276.267	0.867	1126967	WORD_OFF	n/a	n/a	SLEEVE	3	6	[0, 0, 0]	n/a	FR1	5	R1395M
1277.134	1.616	1127828	WORD	n/a	wordpools/wordpool_long_EN.txt	SOCK	4	6	[0, 0, 0]	n/a	FR1	5	R1395M
1278.75	0.767	1129447	WORD_OFF	n/a	n/a	SOCK	4	6	[0, 0, 0]	n/a	FR1	5	R1395M
1279.517	1.617	1130214	WORD	n/a	wordpools/wordpool_long_EN.txt	FOAM	5	6	[0, 0, 0]	n/a	FR1	5	R1395M
1281.134	0.966	1131833	WORD_OFF	n/a	n/a	FOAM	5	6	[0, 0, 0]	n/a	FR1	5	R1395M
1282.1	1.6	1132797	WORD	n/a	wordpools/wordpool_long_EN.txt	CLAY	6	6	[0, 0, 0]	n/a	FR1	5	R1395M
1283.7	0.767	1134398	WORD_OFF	n/a	n/a	CLAY	6	6	[0, 0, 0]	n/a	FR1	5	R1395M
1284.467	1.6	1135165	WORD	n/a	wordpools/wordpool_long_EN.txt	STOOL	7	6	[0, 0, 0]	n/a	FR1	5	R1395M
1286.067	0.884	1136765	WORD_OFF	n/a	n/a	STOOL	7	6	[0, 0, 0]	n/a	FR1	5	R1395M
1286.951	1.6	1137645	WORD	n/a	wordpools/wordpool_long_EN.txt	RAIL	8	6	[0, 0, 0]	n/a	FR1	5	R1395M
1288.551	0.783	1139245	WORD_OFF	n/a	n/a	RAIL	8	6	[0, 0, 0]	n/a	FR1	5	R1395M
1289.334	1.6	1140031	WORD	n/a	wordpools/wordpool_long_EN.txt	STEM	9	6	[0, 0, 0]	n/a	FR1	5	R1395M
1290.934	0.866	1141632	WORD_OFF	n/a	n/a	STEM	9	6	[0, 0, 0]	n/a	FR1	5	R1395M
1291.8	1.6	1142502	WORD	n/a	wordpools/wordpool_long_EN.txt	ROCK	10	6	[0, 0, 0]	n/a	FR1	5	R1395M
1293.4	0.784	1144093	WORD_OFF	n/a	n/a	ROCK	10	6	[0, 0, 0]	n/a	FR1	5	R1395M
1294.184	1.617	1144879	WORD	n/a	wordpools/wordpool_long_EN.txt	ARCH	11	6	[0, 0, 0]	n/a	FR1	5	R1395M
1295.801	0.783	1146498	WORD_OFF	n/a	n/a	ARCH	11	6	[0, 0, 0]	n/a	FR1	5	R1395M
1296.584	1.617	1147284	WORD	n/a	wordpools/wordpool_long_EN.txt	SLOPE	12	6	[0, 0, 0]	n/a	FR1	5	R1395M
1298.201	0.0	1148894	WORD_OFF	n/a	n/a	SLOPE	12	6	[0, 0, 0]	n/a	FR1	5	R1395M
1298.201	0.001	1148898	PROB	0.001	n/a	n/a	-999	6	[8, 1, 6]	14	FR1	5	R1395M
1298.202	0.0	1148903	ENCODING_END	n/a	n/a	n/a	-999	6	[0, 0, 0]	n/a	FR1	5	R1395M
1298.202	0.0	1148903	DISTRACT_START	n/a	n/a	n/a	-999	6	[0, 0, 0]	n/a	FR1	5	R1395M
1298.202	6.949	1148899	START	n/a	n/a	n/a	-999	6	[-999, -999, -999]	n/a	FR1	5	R1395M
1305.151	3.534	1155847	PROB	3.534	n/a	n/a	-999	6	[6, 8, 6]	20	FR1	5	R1395M
1308.685	2.315	1159381	PROB	2.315	n/a	n/a	-999	6	[2, 4, 6]	12	FR1	5	R1395M
1311.0	2.485	1161696	PROB	2.485	n/a	n/a	-999	6	[4, 6, 4]	14	FR1	5	R1395M
1313.485	3.584	1164181	PROB	3.584	n/a	n/a	-999	6	[7, 5, 8]	20	FR1	5	R1395M
1317.069	2.748	1167765	PROB	2.748	n/a	n/a	-999	6	[2, 5, 4]	11	FR1	5	R1395M
1319.817	0.0	1170512	DISTRACT_END	n/a	n/a	n/a	-999	6	[0, 0, 0]	n/a	FR1	5	R1395M
1319.817	2.05	1170513	STOP	n/a	n/a	n/a	-999	6	[-999, -999, -999]	n/a	FR1	5	R1395M
1321.867	4.194	1172560	REC_START	n/a	n/a	n/a	-999	6	[0, 0, 0]	n/a	FR1	5	R1395M
1326.061	1.043	1176756	REC_WORD	1.043	n/a	ARCH	11	6	[0, 0, 0]	n/a	FR1	5	R1395M
1327.104	3.507	1177799	REC_WORD	3.507	n/a	POLE	1	6	[0, 0, 0]	n/a	FR1	5	R1395M
1330.611	1.773	1181306	REC_WORD	1.773	n/a	SOCK	4	6	[0, 0, 0]	n/a	FR1	5	R1395M
1332.384	19.724	1183079	REC_WORD	19.724	n/a	SLEEVE	3	6	[0, 0, 0]	n/a	FR1	5	R1395M
1352.108	1.976	1202799	REC_END	n/a	n/a	n/a	-999	6	[0, 0, 0]	n/a	FR1	5	R1395M
1354.084	10.351	1204783	COUNTDOWN_START	n/a	n/a	n/a	-999	7	[0, 0, 0]	n/a	FR1	5	R1395M
1364.435	0.0	1215124	COUNTDOWN_END	n/a	n/a	n/a	-999	7	[0, 0, 0]	n/a	FR1	5	R1395M
1364.435	2.015	1215133	ENCODING_START	n/a	n/a	n/a	-999	7	[0, 0, 0]	n/a	FR1	5	R1395M
1366.45	1.601	1217145	WORD	n/a	wordpools/wordpool_long_EN.txt	FOOD	1	7	[0, 0, 0]	n/a	FR1	5	R1395M
1368.051	0.915	1218746	WORD_OFF	n/a	n/a	FOOD	1	7	[0, 0, 0]	n/a	FR1	5	R1395M
1368.966	1.601	1219663	WORD	n/a	wordpools/wordpool_long_EN.txt	GLASS	2	7	[0, 0, 0]	n/a	FR1	5	R1395M
1370.567	0.967	1221263	WORD_OFF	n/a	n/a	GLASS	2	7	[0, 0, 0]	n/a	FR1	5	R1395M
1371.534	1.617	1222227	WORD	n/a	wordpools/wordpool_long_EN.txt	PLAID	3	7	[0, 0, 0]	n/a	FR1	5	R1395M
1373.151	0.9	1223846	WORD_OFF	n/a	n/a	PLAID	3	7	[0, 0, 0]	n/a	FR1	5	R1395M
1374.051	1.6	1224744	WORD	n/a	wordpools/wordpool_long_EN.txt	TRIBE	4	7	[0, 0, 0]	n/a	FR1	5	R1395M
1375.651	0.932	1226345	WORD_OFF	n/a	n/a	TRIBE	4	7	[0, 0, 0]	n/a	FR1	5	R1395M
1376.583	1.618	1227271	WORD	n/a	wordpools/wordpool_long_EN.txt	CONE	5	7	[0, 0, 0]	n/a	FR1	5	R1395M
1378.201	0.983	1228890	WORD_OFF	n/a	n/a	CONE	5	7	[0, 0, 0]	n/a	FR1	5	R1395M
1379.184	1.6	1229873	WORD	n/a	wordpools/wordpool_long_EN.txt	SPRING	6	7	[0, 0, 0]	n/a	FR1	5	R1395M
1380.784	0.832	1231473	WORD_OFF	n/a	n/a	SPRING	6	7	[0, 0, 0]	n/a	FR1	5	R1395M
1381.616	1.601	1232306	WORD	n/a	wordpools/wordpool_long_EN.txt	WIFE	7	7	[0, 0, 0]	n/a	FR1	5	R1395M
1383.217	0.934	1233906	WORD_OFF	n/a	n/a	WIFE	7	7	[0, 0, 0]	n/a	FR1	5	R1395M
1384.151	1.6	1234842	WORD	n/a	wordpools/wordpool_long_EN.txt	MAZE	8	7	[0, 0, 0]	n/a	FR1	5	R1395M
1385.751	0.899	1236443	WORD_OFF	n/a	n/a	MAZE	8	7	[0, 0, 0]	n/a	FR1	5	R1395M
1386.65	1.617	1237341	WORD	n/a	wordpools/wordpool_long_EN.txt	SCOTCH	9	7	[0, 0, 0]	n/a	FR1	5	R1395M
1388.267	0.9	1238960	WORD_OFF	n/a	n/a	SCOTCH	9	7	[0, 0, 0]	n/a	FR1	5	R1395M
1389.167	1.6	1239858	WORD	n/a	wordpools/wordpool_long_EN.txt	BOOK	10	7	[0, 0, 0]	n/a	FR1	5	R1395M
1390.767	0.933	1241459	WORD_OFF	n/a	n/a	BOOK	10	7	[0, 0, 0]	n/a	FR1	5	R1395M
1391.7	1.601	1242395	WORD	n/a	wordpools/wordpool_long_EN.txt	SINK	11	7	[0, 0, 0]	n/a	FR1	5	R1395M
1393.301	0.766	1243995	WORD_OFF	n/a	n/a	SINK	11	7	[0, 0, 0]	n/a	FR1	5	R1395M
1394.067	1.616	1244762	WORD	n/a	wordpools/wordpool_long_EN.txt	VAULT	12	7	[0, 0, 0]	n/a	FR1	5	R1395M
1395.683	0.001	1246372	WORD_OFF	n/a	n/a	VAULT	12	7	[0, 0, 0]	n/a	FR1	5	R1395M
1395.684	0.001	1246375	PROB	0.001	n/a	n/a	-999	7	[3, 7, 2]	12	FR1	5	R1395M
1395.685	0.0	1246381	ENCODING_END	n/a	n/a	n/a	-999	7	[0, 0, 0]	n/a	FR1	5	R1395M
1395.685	0.0	1246381	DISTRACT_START	n/a	n/a	n/a	-999	7	[0, 0, 0]	n/a	FR1	5	R1395M
1395.685	5.316	1246376	START	n/a	n/a	n/a	-999	7	[-999, -999, -999]	n/a	FR1	5	R1395M
1401.001	2.2	1251692	PROB	2.2	n/a	n/a	-999	7	[7, 1, 4]	12	FR1	5	R1395M
1403.201	2.667	1253892	PROB	2.667	n/a	n/a	-999	7	[3, 2, 5]	10	FR1	5	R1395M
1405.868	3.118	1256559	PROB	3.118	n/a	n/a	-999	7	[8, 5, 8]	21	FR1	5	R1395M
1408.986	2.032	1259677	PROB	2.032	n/a	n/a	-999	7	[7, 3, 4]	14	FR1	5	R1395M
1411.018	2.233	1261709	PROB	2.233	n/a	n/a	-999	7	[4, 7, 3]	14	FR1	5	R1395M
1413.251	2.916	1263942	PROB	2.916	n/a	n/a	-999	7	[8, 4, 8]	22	FR1	5	R1395M
1416.167	0.0	1266858	DISTRACT_END	n/a	n/a	n/a	-999	7	[0, 0, 0]	n/a	FR1	5	R1395M
1416.167	2.25	1266857	STOP	n/a	n/a	n/a	-999	7	[-999, -999, -999]	n/a	FR1	5	R1395M
1418.417	3.277	1269112	REC_START	n/a	n/a	n/a	-999	7	[0, 0, 0]	n/a	FR1	5	R1395M
1421.694	1.113	1272384	REC_WORD	1.113	n/a	WIFE	7	7	[0, 0, 0]	n/a	FR1	5	R1395M
1422.807	4.587	1273497	REC_WORD	4.587	n/a	MAZE	8	7	[0, 0, 0]	n/a	FR1	5	R1395M
1427.394	1.186	1278084	REC_WORD	1.186	n/a	SINK	11	7	[0, 0, 0]	n/a	FR1	5	R1395M
1428.58	2.58	1279270	REC_WORD	2.58	n/a	VAULT	12	7	[0, 0, 0]	n/a	FR1	5	R1395M
1431.16	3.66	1281850	REC_WORD	3.66	n/a	SCOTCH	9	7	[0, 0, 0]	n/a	FR1	5	R1395M
1434.82	13.836	1285509	REC_WORD	13.836	n/a	BOOK	10	7	[0, 0, 0]	n/a	FR1	5	R1395M
1448.656	3.528	1299350	REC_END	n/a	n/a	n/a	-999	7	[0, 0, 0]	n/a	FR1	5	R1395M
1452.184	10.35	1302878	COUNTDOWN_START	n/a	n/a	n/a	-999	8	[0, 0, 0]	n/a	FR1	5	R1395M
1462.534	0.0	1313220	ENCODING_START	n/a	n/a	n/a	-999	8	[0, 0, 0]	n/a	FR1	5	R1395M
1462.534	2.332	1313220	COUNTDOWN_END	n/a	n/a	n/a	-999	8	[0, 0, 0]	n/a	FR1	5	R1395M
1464.866	1.601	1315559	WORD	n/a	wordpools/wordpool_long_EN.txt	HOOK	1	8	[0, 0, 0]	n/a	FR1	5	R1395M
1466.467	0.916	1317159	WORD_OFF	n/a	n/a	HOOK	1	8	[0, 0, 0]	n/a	FR1	5	R1395M
1467.383	1.601	1318067	WORD	n/a	wordpools/wordpool_long_EN.txt	MAIL	2	8	[0, 0, 0]	n/a	FR1	5	R1395M
1468.984	0.883	1319668	WORD_OFF	n/a	n/a	MAIL	2	8	[0, 0, 0]	n/a	FR1	5	R1395M
1469.867	1.6	1320557	WORD	n/a	wordpools/wordpool_long_EN.txt	SNAIL	3	8	[0, 0, 0]	n/a	FR1	5	R1395M
1471.467	0.783	1322157	WORD_OFF	n/a	n/a	SNAIL	3	8	[0, 0, 0]	n/a	FR1	5	R1395M
1472.25	1.617	1322934	WORD	n/a	wordpools/wordpool_long_EN.txt	KITE	4	8	[0, 0, 0]	n/a	FR1	5	R1395M
1473.867	1.0	1324553	WORD_OFF	n/a	n/a	KITE	4	8	[0, 0, 0]	n/a	FR1	5	R1395M
1474.867	1.6	1325554	WORD	n/a	wordpools/wordpool_long_EN.txt	STORE	5	8	[0, 0, 0]	n/a	FR1	5	R1395M
1476.467	0.884	1327154	WORD_OFF	n/a	n/a	STORE	5	8	[0, 0, 0]	n/a	FR1	5	R1395M
1477.351	1.616	1328034	WORD	n/a	wordpools/wordpool_long_EN.txt	MOUSE	6	8	[0, 0, 0]	n/a	FR1	5	R1395M
1478.967	0.9	1329653	WORD_OFF	n/a	n/a	MOUSE	6	8	[0, 0, 0]	n/a	FR1	5	R1395M
1479.867	1.617	1330551	WORD	n/a	wordpools/wordpool_long_EN.txt	STAIR	7	8	[0, 0, 0]	n/a	FR1	5	R1395M
1481.484	0.833	1332170	WORD_OFF	n/a	n/a	STAIR	7	8	[0, 0, 0]	n/a	FR1	5	R1395M
1482.317	1.617	1333003	WORD	n/a	wordpools/wordpool_long_EN.txt	SEA	8	8	[0, 0, 0]	n/a	FR1	5	R1395M
1483.934	0.983	1334622	WORD_OFF	n/a	n/a	SEA	8	8	[0, 0, 0]	n/a	FR1	5	R1395M
1484.917	1.617	1335605	WORD	n/a	wordpools/wordpool_long_EN.txt	NEST	9	8	[0, 0, 0]	n/a	FR1	5	R1395M
1486.534	0.966	1337224	WORD_OFF	n/a	n/a	NEST	9	8	[0, 0, 0]	n/a	FR1	5	R1395M
1487.5	1.6	1338188	WORD	n/a	wordpools/wordpool_long_EN.txt	SKY	10	8	[0, 0, 0]	n/a	FR1	5	R1395M
1489.1	0.817	1339788	WORD_OFF	n/a	n/a	SKY	10	8	[0, 0, 0]	n/a	FR1	5	R1395M
1489.917	1.6	1340612	WORD	n/a	wordpools/wordpool_long_EN.txt	CUP	11	8	[0, 0, 0]	n/a	FR1	5	R1395M
1491.517	0.8	1342203	WORD_OFF	n/a	n/a	CUP	11	8	[0, 0, 0]	n/a	FR1	5	R1395M
1492.317	1.617	1343008	WORD	n/a	wordpools/wordpool_long_EN.txt	BOOT	12	8	[0, 0, 0]	n/a	FR1	5	R1395M
1493.934	0.0	1344617	WORD_OFF	n/a	n/a	BOOT	12	8	[0, 0, 0]	n/a	FR1	5	R1395M
1493.934	0.001	1344620	PROB	0.001	n/a	n/a	-999	8	[6, 3, 4]	13	FR1	5	R1395M
1493.935	0.0	1344627	ENCODING_END	n/a	n/a	n/a	-999	8	[0, 0, 0]	n/a	FR1	5	R1395M
1493.935	0.0	1344627	DISTRACT_START	n/a	n/a	n/a	-999	8	[0, 0, 0]	n/a	FR1	5	R1395M
1493.935	4.166	1344621	START	n/a	n/a	n/a	-999	8	[-999, -999, -999]	n/a	FR1	5	R1395M
1498.101	4.266	1348787	PROB	4.266	n/a	n/a	-999	8	[6, 8, 2]	16	FR1	5	R1395M
1502.367	3.951	1353053	PROB	3.951	n/a	n/a	-999	8	[3, 8, 4]	15	FR1	5	R1395M
1506.318	3.368	1357004	PROB	3.368	n/a	n/a	-999	8	[8, 4, 8]	20	FR1	5	R1395M
1509.686	2.032	1360371	PROB	2.032	n/a	n/a	-999	8	[8, 2, 1]	11	FR1	5	R1395M
1511.718	2.132	1362403	PROB	2.132	n/a	n/a	-999	8	[2, 5, 8]	15	FR1	5	R1395M
1513.85	2.651	1364535	PROB	2.651	n/a	n/a	-999	8	[1, 5, 1]	7	FR1	5	R1395M
1516.501	0.0	1367190	DISTRACT_END	n/a	n/a	n/a	-999	8	[0, 0, 0]	n/a	FR1	5	R1395M
1516.501	2.182	1367186	STOP	n/a	n/a	n/a	-999	8	[-999, -999, -999]	n/a	FR1	5	R1395M
1518.683	4.221	1369369	REC_START	n/a	n/a	n/a	-999	8	[0, 0, 0]	n/a	FR1	5	R1395M
1522.904	1.763	1373589	REC_WORD	1.763	n/a	HOOK	1	8	[0, 0, 0]	n/a	FR1	5	R1395M
1524.667	2.094	1375352	REC_WORD	2.094	n/a	KITE	4	8	[0, 0, 0]	n/a	FR1	5	R1395M
1526.761	2.303	1377446	REC_WORD	2.303	n/a	SEA	8	8	[0, 0, 0]	n/a	FR1	5	R1395M
1529.064	19.826	1379748	REC_WORD	19.826	n/a	NEST	9	8	[0, 0, 0]	n/a	FR1	5	R1395M
1548.89	1.76	1399570	REC_END	n/a	n/a	n/a	-999	8	[0, 0, 0]	n/a	FR1	5	R1395M
1550.65	10.35	1401339	COUNTDOWN_START	n/a	n/a	n/a	-999	9	[0, 0, 0]	n/a	FR1	5	R1395M
1561.0	0.0	1411680	COUNTDOWN_END	n/a	n/a	n/a	-999	9	[0, 0, 0]	n/a	FR1	5	R1395M
1561.0	2.017	1411690	ENCODING_START	n/a	n/a	n/a	-999	9	[0, 0, 0]	n/a	FR1	5	R1395M
1563.017	1.6	1413702	WORD	n/a	wordpools/wordpool_long_EN.txt	SPACE	1	9	[0, 0, 0]	n/a	FR1	5	R1395M
1564.617	0.785	1415302	WORD_OFF	n/a	n/a	SPACE	1	9	[0, 0, 0]	n/a	FR1	5	R1395M
1565.402	1.614	1416088	WORD	n/a	wordpools/wordpool_long_EN.txt	STAR	2	9	[0, 0, 0]	n/a	FR1	5	R1395M
1567.016	0.918	1417698	WORD_OFF	n/a	n/a	STAR	2	9	[0, 0, 0]	n/a	FR1	5	R1395M
1567.934	1.6	1418615	WORD	n/a	wordpools/wordpool_long_EN.txt	SNAKE	3	9	[0, 0, 0]	n/a	FR1	5	R1395M
1569.534	0.966	1420215	WORD_OFF	n/a	n/a	SNAKE	3	9	[0, 0, 0]	n/a	FR1	5	R1395M
1570.5	1.617	1421179	WORD	n/a	wordpools/wordpool_long_EN.txt	HOUSE	4	9	[0, 0, 0]	n/a	FR1	5	R1395M
1572.117	0.883	1422798	WORD_OFF	n/a	n/a	HOUSE	4	9	[0, 0, 0]	n/a	FR1	5	R1395M
1573.0	1.6	1423687	WORD	n/a	wordpools/wordpool_long_EN.txt	SAIL	5	9	[0, 0, 0]	n/a	FR1	5	R1395M
1574.6	0.783	1425287	WORD_OFF	n/a	n/a	SAIL	5	9	[0, 0, 0]	n/a	FR1	5	R1395M
1575.383	1.601	1426064	WORD	n/a	wordpools/wordpool_long_EN.txt	OX	6	9	[0, 0, 0]	n/a	FR1	5	R1395M
1576.984	0.983	1427664	WORD_OFF	n/a	n/a	OX	6	9	[0, 0, 0]	n/a	FR1	5	R1395M
1577.967	1.6	1428647	WORD	n/a	wordpools/wordpool_long_EN.txt	FRAME	7	9	[0, 0, 0]	n/a	FR1	5	R1395M
1579.567	0.949	1430247	WORD_OFF	n/a	n/a	FRAME	7	9	[0, 0, 0]	n/a	FR1	5	R1395M
1580.516	1.6	1431202	WORD	n/a	wordpools/wordpool_long_EN.txt	PERCH	8	9	[0, 0, 0]	n/a	FR1	5	R1395M
1582.116	0.885	1432802	WORD_OFF	n/a	n/a	PERCH	8	9	[0, 0, 0]	n/a	FR1	5	R1395M
1583.001	1.615	1433682	WORD	n/a	wordpools/wordpool_long_EN.txt	MAP	9	9	[0, 0, 0]	n/a	FR1	5	R1395M
1584.616	0.851	1435301	WORD_OFF	n/a	n/a	MAP	9	9	[0, 0, 0]	n/a	FR1	5	R1395M
1585.467	1.617	1436153	WORD	n/a	wordpools/wordpool_long_EN.txt	PLATE	10	9	[0, 0, 0]	n/a	FR1	5	R1395M
1587.084	0.765	1437762	WORD_OFF	n/a	n/a	PLATE	10	9	[0, 0, 0]	n/a	FR1	5	R1395M
1587.849	1.601	1438530	WORD	n/a	wordpools/wordpool_long_EN.txt	HOOD	11	9	[0, 0, 0]	n/a	FR1	5	R1395M
1589.45	0.984	1440130	WORD_OFF	n/a	n/a	HOOD	11	9	[0, 0, 0]	n/a	FR1	5	R1395M
1590.434	1.6	1441113	WORD	n/a	wordpools/wordpool_long_EN.txt	OWL	12	9	[0, 0, 0]	n/a	FR1	5	R1395M
1592.034	0.001	1442713	WORD_OFF	n/a	n/a	OWL	12	9	[0, 0, 0]	n/a	FR1	5	R1395M
1592.035	0.0	1442713	ENCODING_END	n/a	n/a	n/a	-999	9	[0, 0, 0]	n/a	FR1	5	R1395M
1592.035	0.0	1442722	DISTRACT_START	n/a	n/a	n/a	-999	9	[0, 0, 0]	n/a	FR1	5	R1395M
1592.035	0.0	1442716	START	n/a	n/a	n/a	-999	9	[-999, -999, -999]	n/a	FR1	5	R1395M
1592.035	4.299	1442716	PROB	4.299	n/a	n/a	-999	9	[6, 5, 1]	12	FR1	5	R1395M
1596.334	2.667	1447015	PROB	2.667	n/a	n/a	-999	9	[7, 6, 7]	20	FR1	5	R1395M
1599.001	3.25	1449682	PROB	3.25	n/a	n/a	-999	9	[1, 3, 6]	10	FR1	5	R1395M
1602.251	2.45	1452931	PROB	2.45	n/a	n/a	-999	9	[2, 2, 5]	9	FR1	5	R1395M
1604.701	2.233	1455381	PROB	2.233	n/a	n/a	-999	9	[2, 2, 6]	10	FR1	5	R1395M
1606.934	3.1	1457614	PROB	3.1	n/a	n/a	-999	9	[7, 4, 3]	14	FR1	5	R1395M
1610.034	2.716	1460714	PROB	2.716	n/a	n/a	-999	9	[8, 7, 4]	19	FR1	5	R1395M
1612.75	0.0	1463433	DISTRACT_END	n/a	n/a	n/a	-999	9	[0, 0, 0]	n/a	FR1	5	R1395M
1612.75	2.067	1463430	STOP	n/a	n/a	n/a	-999	9	[-999, -999, -999]	n/a	FR1	5	R1395M
1614.817	6.071	1465499	REC_START	n/a	n/a	n/a	-999	9	[0, 0, 0]	n/a	FR1	5	R1395M
1620.888	1.176	1471568	REC_WORD_VV	1.176	n/a	<>	-999	9	[0, 0, 0]	n/a	FR1	5	R1395M
1622.064	2.63	1472743	REC_WORD	2.63	n/a	PERCH	8	9	[0, 0, 0]	n/a	FR1	5	R1395M
1624.694	3.464	1475373	REC_WORD	3.464	n/a	SKY	-999	9	[0, 0, 0]	n/a	FR1	5	R1395M
1628.158	9.094	1478837	REC_WORD	9.094	n/a	SEA	-999	9	[0, 0, 0]	n/a	FR1	5	R1395M
1637.252	7.769	1487931	REC_WORD	7.769	n/a	SNAIL	-999	9	[0, 0, 0]	n/a	FR1	5	R1395M
1645.021	3.179	1495701	REC_END	n/a	n/a	n/a	-999	9	[0, 0, 0]	n/a	FR1	5	R1395M
1648.2	10.351	1498883	COUNTDOWN_START	n/a	n/a	n/a	-999	10	[0, 0, 0]	n/a	FR1	5	R1395M
1658.551	0.0	1509233	COUNTDOWN_END	n/a	n/a	n/a	-999	10	[0, 0, 0]	n/a	FR1	5	R1395M
1658.551	2.066	1509233	ENCODING_START	n/a	n/a	n/a	-999	10	[0, 0, 0]	n/a	FR1	5	R1395M
1660.617	1.6	1511292	WORD	n/a	wordpools/wordpool_long_EN.txt	THREAD	1	10	[0, 0, 0]	n/a	FR1	5	R1395M
1662.217	0.783	1512892	WORD_OFF	n/a	n/a	THREAD	1	10	[0, 0, 0]	n/a	FR1	5	R1395M
1663.0	1.601	1513678	WORD	n/a	wordpools/wordpool_long_EN.txt	NET	2	10	[0, 0, 0]	n/a	FR1	5	R1395M
1664.601	0.933	1515279	WORD_OFF	n/a	n/a	NET	2	10	[0, 0, 0]	n/a	FR1	5	R1395M
1665.534	1.6	1516214	WORD	n/a	wordpools/wordpool_long_EN.txt	CHEEK	3	10	[0, 0, 0]	n/a	FR1	5	R1395M
1667.134	0.85	1517815	WORD_OFF	n/a	n/a	CHEEK	3	10	[0, 0, 0]	n/a	FR1	5	R1395M
1667.984	1.6	1518657	WORD	n/a	wordpools/wordpool_long_EN.txt	GUARD	4	10	[0, 0, 0]	n/a	FR1	5	R1395M
1669.584	0.983	1520257	WORD_OFF	n/a	n/a	GUARD	4	10	[0, 0, 0]	n/a	FR1	5	R1395M
1670.567	1.6	1521240	WORD	n/a	wordpools/wordpool_long_EN.txt	GEESE	5	10	[0, 0, 0]	n/a	FR1	5	R1395M
1672.167	0.934	1522840	WORD_OFF	n/a	n/a	GEESE	5	10	[0, 0, 0]	n/a	FR1	5	R1395M
1673.101	1.6	1523776	WORD	n/a	wordpools/wordpool_long_EN.txt	HOUND	6	10	[0, 0, 0]	n/a	FR1	5	R1395M
1674.701	0.766	1525376	WORD_OFF	n/a	n/a	HOUND	6	10	[0, 0, 0]	n/a	FR1	5	R1395M
1675.467	1.617	1526144	WORD	n/a	wordpools/wordpool_long_EN.txt	SKUNK	7	10	[0, 0, 0]	n/a	FR1	5	R1395M
1677.084	0.882	1527763	WORD_OFF	n/a	n/a	SKUNK	7	10	[0, 0, 0]	n/a	FR1	5	R1395M
1677.966	1.618	1528642	WORD	n/a	wordpools/wordpool_long_EN.txt	DART	8	10	[0, 0, 0]	n/a	FR1	5	R1395M
1679.584	0.967	1530262	WORD_OFF	n/a	n/a	DART	8	10	[0, 0, 0]	n/a	FR1	5	R1395M
1680.551	1.6	1531225	WORD	n/a	wordpools/wordpool_long_EN.txt	CAPE	9	10	[0, 0, 0]	n/a	FR1	5	R1395M
1682.151	1.0	1532826	WORD_OFF	n/a	n/a	CAPE	9	10	[0, 0, 0]	n/a	FR1	5	R1395M
1683.151	1.6	1533827	WORD	n/a	wordpools/wordpool_long_EN.txt	STEAK	10	10	[0, 0, 0]	n/a	FR1	5	R1395M
1684.751	0.832	1535427	WORD_OFF	n/a	n/a	STEAK	10	10	[0, 0, 0]	n/a	FR1	5	R1395M
1685.583	1.6	1536260	WORD	n/a	wordpools/wordpool_long_EN.txt	MOP	11	10	[0, 0, 0]	n/a	FR1	5	R1395M
1687.183	0.868	1537861	WORD_OFF	n/a	n/a	MOP	11	10	[0, 0, 0]	n/a	FR1	5	R1395M
1688.051	1.616	1538731	WORD	n/a	wordpools/wordpool_long_EN.txt	WHEEL	12	10	[0, 0, 0]	n/a	FR1	5	R1395M
1689.667	0.001	1540341	WORD_OFF	n/a	n/a	WHEEL	12	10	[0, 0, 0]	n/a	FR1	5	R1395M
1689.668	0.0	1540350	ENCODING_END	n/a	n/a	n/a	-999	10	[0, 0, 0]	n/a	FR1	5	R1395M
1689.668	0.0	1540350	DISTRACT_START	n/a	n/a	n/a	-999	10	[0, 0, 0]	n/a	FR1	5	R1395M
1689.668	0.0	1540344	START	n/a	n/a	n/a	-999	10	[-999, -999, -999]	n/a	FR1	5	R1395M
1689.668	3.533	1540344	PROB	3.533	n/a	n/a	-999	10	[2, 2, 4]	8	FR1	5	R1395M
1693.201	3.2	1543877	PROB	3.2	n/a	n/a	-999	10	[7, 3, 5]	15	FR1	5	R1395M
1696.401	2.151	1547076	PROB	2.151	n/a	n/a	-999	10	[2, 1, 4]	7	FR1	5	R1395M
1698.552	2.065	1549227	PROB	2.065	n/a	n/a	-999	10	[3, 4, 2]	9	FR1	5	R1395M
1700.617	2.068	1551292	PROB	2.068	n/a	n/a	-999	10	[1, 1, 8]	10	FR1	5	R1395M
1702.685	2.916	1553360	PROB	2.916	n/a	n/a	-999	10	[5, 4, 4]	13	FR1	5	R1395M
1705.601	2.0	1556276	PROB	2.0	n/a	n/a	-999	10	[1, 1, 1]	3	FR1	5	R1395M
1707.601	2.033	1558276	PROB	2.033	n/a	n/a	-999	10	[7, 7, 7]	21	FR1	5	R1395M
1709.634	4.349	1560309	PROB	4.349	n/a	n/a	-999	10	[6, 7, 4]	17	FR1	5	R1395M
1713.983	0.0	1564654	DISTRACT_END	n/a	n/a	n/a	-999	10	[0, 0, 0]	n/a	FR1	5	R1395M
1713.983	2.168	1564658	STOP	n/a	n/a	n/a	-999	10	[-999, -999, -999]	n/a	FR1	5	R1395M
1716.151	2.453	1566824	REC_START	n/a	n/a	n/a	-999	10	[0, 0, 0]	n/a	FR1	5	R1395M
1718.604	1.515	1569278	REC_WORD	1.515	n/a	THREAD	1	10	[0, 0, 0]	n/a	FR1	5	R1395M
1720.119	1.741	1570793	REC_WORD	1.741	n/a	NET	2	10	[0, 0, 0]	n/a	FR1	5	R1395M
1721.86	1.476	1572534	REC_WORD	1.476	n/a	CHEEK	3	10	[0, 0, 0]	n/a	FR1	5	R1395M
1723.336	1.682	1574010	REC_WORD	1.682	n/a	GUARD	4	10	[0, 0, 0]	n/a	FR1	5	R1395M
1725.018	2.059	1575692	REC_WORD	2.059	n/a	STEAK	10	10	[0, 0, 0]	n/a	FR1	5	R1395M
1727.077	19.274	1577751	REC_WORD	19.274	n/a	MOP	11	10	[0, 0, 0]	n/a	FR1	5	R1395M
1746.351	1.783	1597025	REC_END	n/a	n/a	n/a	-999	10	[0, 0, 0]	n/a	FR1	5	R1395M
1748.134	10.35	1598812	COUNTDOWN_START	n/a	n/a	n/a	-999	11	[0, 0, 0]	n/a	FR1	5	R1395M
1758.484	0.001	1609154	COUNTDOWN_END	n/a	n/a	n/a	-999	11	[0, 0, 0]	n/a	FR1	5	R1395M
1758.485	1.999	1609163	ENCODING_START	n/a	n/a	n/a	-999	11	[0, 0, 0]	n/a	FR1	5	R1395M
1760.484	1.617	1611156	WORD	n/a	wordpools/wordpool_long_EN.txt	BROOK	1	11	[0, 0, 0]	n/a	FR1	5	R1395M
1762.101	0.949	1612775	WORD_OFF	n/a	n/a	BROOK	1	11	[0, 0, 0]	n/a	FR1	5	R1395M
1763.05	1.6	1613720	WORD	n/a	wordpools/wordpool_long_EN.txt	FRUIT	2	11	[0, 0, 0]	n/a	FR1	5	R1395M
1764.65	0.833	1615321	WORD_OFF	n/a	n/a	FRUIT	2	11	[0, 0, 0]	n/a	FR1	5	R1395M
1765.483	1.6	1616154	WORD	n/a	wordpools/wordpool_long_EN.txt	BLOOM	3	11	[0, 0, 0]	n/a	FR1	5	R1395M
1767.083	0.867	1617754	WORD_OFF	n/a	n/a	BLOOM	3	11	[0, 0, 0]	n/a	FR1	5	R1395M
1767.95	1.601	1618624	WORD	n/a	wordpools/wordpool_long_EN.txt	GOLD	4	11	[0, 0, 0]	n/a	FR1	5	R1395M
1769.551	0.916	1620225	WORD_OFF	n/a	n/a	GOLD	4	11	[0, 0, 0]	n/a	FR1	5	R1395M
1770.467	1.617	1621142	WORD	n/a	wordpools/wordpool_long_EN.txt	SLIDE	5	11	[0, 0, 0]	n/a	FR1	5	R1395M
1772.084	0.95	1622751	WORD_OFF	n/a	n/a	SLIDE	5	11	[0, 0, 0]	n/a	FR1	5	R1395M
1773.034	1.616	1623706	WORD	n/a	wordpools/wordpool_long_EN.txt	SPONGE	6	11	[0, 0, 0]	n/a	FR1	5	R1395M
1774.65	0.784	1625325	WORD_OFF	n/a	n/a	SPONGE	6	11	[0, 0, 0]	n/a	FR1	5	R1395M
1775.434	1.6	1626102	WORD	n/a	wordpools/wordpool_long_EN.txt	DITCH	7	11	[0, 0, 0]	n/a	FR1	5	R1395M
1777.034	0.983	1627702	WORD_OFF	n/a	n/a	DITCH	7	11	[0, 0, 0]	n/a	FR1	5	R1395M
1778.017	1.617	1628685	WORD	n/a	wordpools/wordpool_long_EN.txt	BUG	8	11	[0, 0, 0]	n/a	FR1	5	R1395M
1779.634	0.933	1630304	WORD_OFF	n/a	n/a	BUG	8	11	[0, 0, 0]	n/a	FR1	5	R1395M
1780.567	1.6	1631240	WORD	n/a	wordpools/wordpool_long_EN.txt	BLADE	9	11	[0, 0, 0]	n/a	FR1	5	R1395M
1782.167	0.834	1632840	WORD_OFF	n/a	n/a	BLADE	9	11	[0, 0, 0]	n/a	FR1	5	R1395M
1783.001	1.599	1633673	WORD	n/a	wordpools/wordpool_long_EN.txt	HAT	10	11	[0, 0, 0]	n/a	FR1	5	R1395M
1784.6	0.917	1635273	WORD_OFF	n/a	n/a	HAT	10	11	[0, 0, 0]	n/a	FR1	5	R1395M
1785.517	1.6	1636190	WORD	n/a	wordpools/wordpool_long_EN.txt	FILM	11	11	[0, 0, 0]	n/a	FR1	5	R1395M
1787.117	0.784	1637790	WORD_OFF	n/a	n/a	FILM	11	11	[0, 0, 0]	n/a	FR1	5	R1395M
1787.901	1.6	1638567	WORD	n/a	wordpools/wordpool_long_EN.txt	JET	12	11	[0, 0, 0]	n/a	FR1	5	R1395M
1789.501	0.0	1640168	WORD_OFF	n/a	n/a	JET	12	11	[0, 0, 0]	n/a	FR1	5	R1395M
1789.501	0.001	1640172	PROB	0.001	n/a	n/a	-999	11	[8, 7, 2]	17	FR1	5	R1395M
1789.502	0.0	1640177	ENCODING_END	n/a	n/a	n/a	-999	11	[0, 0, 0]	n/a	FR1	5	R1395M
1789.502	0.0	1640177	DISTRACT_START	n/a	n/a	n/a	-999	11	[0, 0, 0]	n/a	FR1	5	R1395M
1789.502	6.015	1640173	START	n/a	n/a	n/a	-999	11	[-999, -999, -999]	n/a	FR1	5	R1395M
1795.517	2.05	1646187	PROB	2.05	n/a	n/a	-999	11	[5, 2, 4]	11	FR1	5	R1395M
1797.567	2.483	1648237	PROB	2.483	n/a	n/a	-999	11	[4, 1, 6]	11	FR1	5	R1395M
1800.05	2.668	1650720	PROB	2.668	n/a	n/a	-999	11	[7, 4, 5]	16	FR1	5	R1395M
1802.718	2.316	1653388	PROB	2.316	n/a	n/a	-999	11	[6, 3, 3]	12	FR1	5	R1395M
1805.034	2.316	1655704	PROB	2.316	n/a	n/a	-999	11	[5, 3, 3]	11	FR1	5	R1395M
1807.35	2.717	1658020	PROB	2.717	n/a	n/a	-999	11	[6, 1, 4]	11	FR1	5	R1395M
1810.067	0.0	1660738	DISTRACT_END	n/a	n/a	n/a	-999	11	[0, 0, 0]	n/a	FR1	5	R1395M
1810.067	2.117	1660736	STOP	n/a	n/a	n/a	-999	11	[-999, -999, -999]	n/a	FR1	5	R1395M
1812.184	2.56	1662851	REC_START	n/a	n/a	n/a	-999	11	[0, 0, 0]	n/a	FR1	5	R1395M
1814.744	1.11	1665413	REC_WORD	1.11	n/a	DITCH	7	11	[0, 0, 0]	n/a	FR1	5	R1395M
1815.854	3.708	1666523	REC_WORD	3.708	n/a	BUG	8	11	[0, 0, 0]	n/a	FR1	5	R1395M
1819.562	16.47	1670231	REC_WORD	16.47	n/a	FLAME	-999	11	[0, 0, 0]	n/a	FR1	5	R1395M
1836.032	6.362	1686700	REC_WORD	6.362	n/a	BROOK	1	11	[0, 0, 0]	n/a	FR1	5	R1395M
1842.394	3.14	1693062	REC_END	n/a	n/a	n/a	-999	11	[0, 0, 0]	n/a	FR1	5	R1395M
1845.534	10.35	1696206	COUNTDOWN_START	n/a	n/a	n/a	-999	12	[0, 0, 0]	n/a	FR1	5	R1395M
1855.884	0.001	1706547	COUNTDOWN_END	n/a	n/a	n/a	-999	12	[0, 0, 0]	n/a	FR1	5	R1395M
1855.885	2.349	1706557	ENCODING_START	n/a	n/a	n/a	-999	12	[0, 0, 0]	n/a	FR1	5	R1395M
1858.234	1.6	1708896	WORD	n/a	wordpools/wordpool_long_EN.txt	LINT	1	12	[0, 0, 0]	n/a	FR1	5	R1395M
1859.834	0.933	1710497	WORD_OFF	n/a	n/a	LINT	1	12	[0, 0, 0]	n/a	FR1	5	R1395M
1860.767	1.6	1711432	WORD	n/a	wordpools/wordpool_long_EN.txt	FLAME	2	12	[0, 0, 0]	n/a	FR1	5	R1395M
1862.367	0.817	1713033	WORD_OFF	n/a	n/a	FLAME	2	12	[0, 0, 0]	n/a	FR1	5	R1395M
1863.184	1.616	1713847	WORD	n/a	wordpools/wordpool_long_EN.txt	YARN	3	12	[0, 0, 0]	n/a	FR1	5	R1395M
1864.8	0.884	1715466	WORD_OFF	n/a	n/a	YARN	3	12	[0, 0, 0]	n/a	FR1	5	R1395M
1865.684	1.616	1716355	WORD	n/a	wordpools/wordpool_long_EN.txt	QUAIL	4	12	[0, 0, 0]	n/a	FR1	5	R1395M
1867.3	0.9	1717965	WORD_OFF	n/a	n/a	QUAIL	4	12	[0, 0, 0]	n/a	FR1	5	R1395M
1868.2	1.617	1718863	WORD	n/a	wordpools/wordpool_long_EN.txt	BOY	5	12	[0, 0, 0]	n/a	FR1	5	R1395M
1869.817	1.0	1720482	WORD_OFF	n/a	n/a	BOY	5	12	[0, 0, 0]	n/a	FR1	5	R1395M
1870.817	1.6	1721483	WORD	n/a	wordpools/wordpool_long_EN.txt	MULE	6	12	[0, 0, 0]	n/a	FR1	5	R1395M
1872.417	0.983	1723084	WORD_OFF	n/a	n/a	MULE	6	12	[0, 0, 0]	n/a	FR1	5	R1395M
1873.4	1.6	1724066	WORD	n/a	wordpools/wordpool_long_EN.txt	TIE	7	12	[0, 0, 0]	n/a	FR1	5	R1395M
1875.0	0.933	1725667	WORD_OFF	n/a	n/a	TIE	7	12	[0, 0, 0]	n/a	FR1	5	R1395M
1875.933	1.6	1726603	WORD	n/a	wordpools/wordpool_long_EN.txt	TWIG	8	12	[0, 0, 0]	n/a	FR1	5	R1395M
1877.533	0.834	1728203	WORD_OFF	n/a	n/a	TWIG	8	12	[0, 0, 0]	n/a	FR1	5	R1395M
1878.367	1.6	1729036	WORD	n/a	wordpools/wordpool_long_EN.txt	FRIEND	9	12	[0, 0, 0]	n/a	FR1	5	R1395M
1879.967	0.816	1730636	WORD_OFF	n/a	n/a	FRIEND	9	12	[0, 0, 0]	n/a	FR1	5	R1395M
1880.783	1.6	1731450	WORD	n/a	wordpools/wordpool_long_EN.txt	PET	10	12	[0, 0, 0]	n/a	FR1	5	R1395M
1882.383	0.883	1733051	WORD_OFF	n/a	n/a	PET	10	12	[0, 0, 0]	n/a	FR1	5	R1395M
1883.266	1.6	1733930	WORD	n/a	wordpools/wordpool_long_EN.txt	STRAW	11	12	[0, 0, 0]	n/a	FR1	5	R1395M
1884.866	0.984	1735531	WORD_OFF	n/a	n/a	STRAW	11	12	[0, 0, 0]	n/a	FR1	5	R1395M
1885.85	1.6	1736513	WORD	n/a	wordpools/wordpool_long_EN.txt	COIN	12	12	[0, 0, 0]	n/a	FR1	5	R1395M
1887.45	0.0	1738113	WORD_OFF	n/a	n/a	COIN	12	12	[0, 0, 0]	n/a	FR1	5	R1395M
1887.45	0.001	1738115	PROB	0.001	n/a	n/a	-999	12	[8, 5, 5]	18	FR1	5	R1395M
1887.451	0.0	1738113	ENCODING_END	n/a	n/a	n/a	-999	12	[0, 0, 0]	n/a	FR1	5	R1395M
1887.451	0.0	1738123	DISTRACT_START	n/a	n/a	n/a	-999	12	[0, 0, 0]	n/a	FR1	5	R1395M
1887.451	3.599	1738116	START	n/a	n/a	n/a	-999	12	[-999, -999, -999]	n/a	FR1	5	R1395M
1891.05	2.151	1741715	PROB	2.151	n/a	n/a	-999	12	[5, 1, 5]	11	FR1	5	R1395M
1893.201	3.383	1743866	PROB	3.383	n/a	n/a	-999	12	[8, 5, 2]	15	FR1	5	R1395M
1896.584	5.252	1747249	PROB	5.252	n/a	n/a	-999	12	[8, 7, 7]	22	FR1	5	R1395M
1901.836	2.932	1752501	PROB	2.932	n/a	n/a	-999	12	[6, 6, 4]	16	FR1	5	R1395M
1904.768	5.949	1755432	PROB	5.949	n/a	n/a	-999	12	[5, 6, 1]	12	FR1	5	R1395M
1910.717	0.0	1761379	DISTRACT_END	n/a	n/a	n/a	-999	12	[0, 0, 0]	n/a	FR1	5	R1395M
1910.717	2.35	1761381	STOP	n/a	n/a	n/a	-999	12	[-999, -999, -999]	n/a	FR1	5	R1395M
1913.067	3.719	1763736	REC_START	n/a	n/a	n/a	-999	12	[0, 0, 0]	n/a	FR1	5	R1395M
1916.786	5.915	1767450	REC_WORD	5.915	n/a	QUAIL	4	12	[0, 0, 0]	n/a	FR1	5	R1395M
1922.701	9.312	1773364	REC_WORD	9.312	n/a	FLAME	2	12	[0, 0, 0]	n/a	FR1	5	R1395M
1932.013	11.28	1782676	REC_WORD	11.28	n/a	FOOD	-999	12	[0, 0, 0]	n/a	FR1	5	R1395M
1943.293	0.0	1793956	REC_END	n/a	n/a	n/a	-999	12	[0, 0, 0]	n/a	FR1	5	R1395M
