onset	duration	sample	trial_type	response_time	stim_file	item_name	serialpos	list	test	answer	experiment	session	subject
0.0	255736.985	-1	INSTRUCT_START	n/a	n/a	n/a	-999	-999	[0, 0, 0]	n/a	FR1	0	R1292E
255736.985	877.344	1390	INSTRUCT_START	n/a	n/a	n/a	-999	-999	[0, 0, 0]	n/a	FR1	0	R1292E
256614.329	5.517	878703	INSTRUCT_END	n/a	n/a	n/a	-999	-999	[0, 0, 0]	n/a	FR1	0	R1292E
256619.846	15.148	884220	MIC TEST_START	n/a	n/a	n/a	-999	-999	[0, 0, 0]	n/a	FR1	0	R1292E
256634.994	0.014	899367	MIC TEST_END	n/a	n/a	n/a	-999	-999	[0, 0, 0]	n/a	FR1	0	R1292E
256635.008	0.0	899381	TRIAL_START	n/a	n/a	n/a	-999	-1	[0, 0, 0]	n/a	FR1	0	R1292E
256635.008	0.0	899381	TRIAL	n/a	n/a	n/a	-999	-1	[0, 0, 0]	n/a	FR1	0	R1292E
256635.008	9.276	899381	WAITING_START	n/a	n/a	n/a	-999	-1	[0, 0, 0]	n/a	FR1	0	R1292E
256644.284	0.001	908657	WAITING_END	n/a	n/a	n/a	-999	-1	[0, 0, 0]	n/a	FR1	0	R1292E
256644.285	10.429	908658	COUNTDOWN_START	n/a	n/a	n/a	-999	-1	[0, 0, 0]	n/a	FR1	0	R1292E
256654.714	0.0	919086	COUNTDOWN_END	n/a	n/a	n/a	-999	-1	[0, 0, 0]	n/a	FR1	0	R1292E
256654.714	1.021	919086	ORIENT_START	n/a	n/a	n/a	-999	-1	[0, 0, 0]	n/a	FR1	0	R1292E
256655.735	0.001	920107	ORIENT_END	n/a	n/a	n/a	-999	-1	[0, 0, 0]	n/a	FR1	0	R1292E
256655.736	0.865	920108	ENCODING_START	n/a	n/a	n/a	-999	-1	[0, 0, 0]	n/a	FR1	0	R1292E
256656.601	1.636	920973	WORD	n/a	n/a	ATTIC	1	-1	[0, 0, 0]	n/a	FR1	0	R1292E
256658.237	0.874	922609	WORD_OFF	n/a	n/a	ATTIC	1	-1	[0, 0, 0]	n/a	FR1	0	R1292E
256659.111	1.625	923483	WORD	n/a	n/a	BEAM	2	-1	[0, 0, 0]	n/a	FR1	0	R1292E
256660.736	0.945	925108	WORD_OFF	n/a	n/a	BEAM	2	-1	[0, 0, 0]	n/a	FR1	0	R1292E
256661.681	1.623	926053	WORD	n/a	n/a	CAMEL	3	-1	[0, 0, 0]	n/a	FR1	0	R1292E
256663.304	0.835	927676	WORD_OFF	n/a	n/a	CAMEL	3	-1	[0, 0, 0]	n/a	FR1	0	R1292E
256664.139	1.631	928511	WORD	n/a	n/a	CHEST	4	-1	[0, 0, 0]	n/a	FR1	0	R1292E
256665.77	1.069	930142	WORD_OFF	n/a	n/a	CHEST	4	-1	[0, 0, 0]	n/a	FR1	0	R1292E
256666.839	1.632	931211	WORD	n/a	n/a	COTTON	5	-1	[0, 0, 0]	n/a	FR1	0	R1292E
256668.471	0.786	932843	WORD_OFF	n/a	n/a	COTTON	5	-1	[0, 0, 0]	n/a	FR1	0	R1292E
256669.257	1.632	933629	WORD	n/a	n/a	FLOOD	6	-1	[0, 0, 0]	n/a	FR1	0	R1292E
256670.889	0.892	935261	WORD_OFF	n/a	n/a	FLOOD	6	-1	[0, 0, 0]	n/a	FR1	0	R1292E
256671.781	1.625	936153	WORD	n/a	n/a	IRON	7	-1	[0, 0, 0]	n/a	FR1	0	R1292E
256673.406	0.865	937778	WORD_OFF	n/a	n/a	IRON	7	-1	[0, 0, 0]	n/a	FR1	0	R1292E
256674.271	1.635	938643	WORD	n/a	n/a	RHINO	8	-1	[0, 0, 0]	n/a	FR1	0	R1292E
256675.906	0.849	940278	WORD_OFF	n/a	n/a	RHINO	8	-1	[0, 0, 0]	n/a	FR1	0	R1292E
256676.755	1.635	941127	WORD	n/a	n/a	RING	9	-1	[0, 0, 0]	n/a	FR1	0	R1292E
256678.39	1.115	942761	WORD_OFF	n/a	n/a	RING	9	-1	[0, 0, 0]	n/a	FR1	0	R1292E
256679.505	1.636	943876	WORD	n/a	n/a	TONGUE	10	-1	[0, 0, 0]	n/a	FR1	0	R1292E
256681.141	0.962	945512	WORD_OFF	n/a	n/a	TONGUE	10	-1	[0, 0, 0]	n/a	FR1	0	R1292E
256682.103	1.637	946474	WORD	n/a	n/a	WAGON	11	-1	[0, 0, 0]	n/a	FR1	0	R1292E
256683.74	1.03	948111	WORD_OFF	n/a	n/a	WAGON	11	-1	[0, 0, 0]	n/a	FR1	0	R1292E
256684.77	1.622	949141	WORD	n/a	n/a	WATCH	12	-1	[0, 0, 0]	n/a	FR1	0	R1292E
256686.392	0.0	950763	WORD_OFF	n/a	n/a	WATCH	12	-1	[0, 0, 0]	n/a	FR1	0	R1292E
256686.392	0.0	950763	ENCODING_END	n/a	n/a	n/a	-999	-1	[0, 0, 0]	n/a	FR1	0	R1292E
256686.392	0.0	950763	DISTRACT_START	n/a	n/a	n/a	-999	-1	[0, 0, 0]	n/a	FR1	0	R1292E
256686.392	0.016	950763	START	n/a	n/a	n/a	-999	-1	[-999, -999, -999]	n/a	FR1	0	R1292E
256686.408	16.786	950779	PROB	16.786	n/a	n/a	-999	-1	[9, 6, 4]	19	FR1	0	R1292E
256703.194	5.839	967565	PROB	5.839	n/a	n/a	-999	-1	[3, 4, 1]	8	FR1	0	R1292E
256709.033	0.012	973403	STOP	n/a	n/a	n/a	-999	-1	[-999, -999, -999]	n/a	FR1	0	R1292E
256709.045	0.621	973415	DISTRACT_END	n/a	n/a	n/a	-999	-1	[0, 0, 0]	n/a	FR1	0	R1292E
256709.666	1.563	974036	RETRIEVAL_ORIENT_START	n/a	n/a	n/a	-999	-1	[0, 0, 0]	n/a	FR1	0	R1292E
256711.229	0.0	975599	RETRIEVAL_ORIENT_END	n/a	n/a	n/a	-999	-1	[0, 0, 0]	n/a	FR1	0	R1292E
256711.229	2.887	975599	REC_START	n/a	n/a	n/a	-999	-1	[0, 0, 0]	n/a	FR1	0	R1292E
256714.116	1.548	978486	REC_WORD	1.548	n/a	ATTIC	-999	-1	[0, 0, 0]	n/a	FR1	0	R1292E
256715.664	1.213	980034	REC_WORD	1.213	n/a	BEAM	-999	-1	[0, 0, 0]	n/a	FR1	0	R1292E
256716.877	1.746	981247	REC_WORD	1.746	n/a	CAMEL	-999	-1	[0, 0, 0]	n/a	FR1	0	R1292E
256718.623	3.763	982993	REC_WORD	3.763	n/a	TONGUE	-999	-1	[0, 0, 0]	n/a	FR1	0	R1292E
256722.386	13.271	986756	REC_WORD	13.271	n/a	COTTON	-999	-1	[0, 0, 0]	n/a	FR1	0	R1292E
256735.657	5.586	1000026	REC_WORD_VV	5.586	n/a	<>	-999	-1	[0, 0, 0]	n/a	FR1	0	R1292E
256741.243	0.0	1005612	REC_END	n/a	n/a	n/a	-999	-1	[0, 0, 0]	n/a	FR1	0	R1292E
256741.243	141.95	1005612	PRACTICE_POST_INSTRUCT_START	n/a	n/a	n/a	-999	-1	[0, 0, 0]	n/a	FR1	0	R1292E
256883.193	0.0	1147557	PRACTICE_POST_INSTRUCT_END	n/a	n/a	n/a	-999	-1	[0, 0, 0]	n/a	FR1	0	R1292E
256883.193	0.019	1147557	TRIAL_END	n/a	n/a	n/a	-999	-1	[0, 0, 0]	n/a	FR1	0	R1292E
256883.212	0.0	1147576	TRIAL	n/a	n/a	n/a	-999	1	[0, 0, 0]	n/a	FR1	0	R1292E
256883.212	0.001	1147576	TRIAL_START	n/a	n/a	n/a	-999	1	[0, 0, 0]	n/a	FR1	0	R1292E
256883.213	6.513	1147577	WAITING_START	n/a	n/a	n/a	-999	1	[0, 0, 0]	n/a	FR1	0	R1292E
256889.726	0.0	1154090	WAITING_END	n/a	n/a	n/a	-999	1	[0, 0, 0]	n/a	FR1	0	R1292E
256889.726	10.43	1154090	COUNTDOWN_START	n/a	n/a	n/a	-999	1	[0, 0, 0]	n/a	FR1	0	R1292E
256900.156	0.001	1164520	COUNTDOWN_END	n/a	n/a	n/a	-999	1	[0, 0, 0]	n/a	FR1	0	R1292E
256900.157	1.255	1164521	ORIENT_START	n/a	n/a	n/a	-999	1	[0, 0, 0]	n/a	FR1	0	R1292E
256901.412	0.001	1165776	ORIENT_END	n/a	n/a	n/a	-999	1	[0, 0, 0]	n/a	FR1	0	R1292E
256901.413	0.795	1165777	ENCODING_START	n/a	n/a	n/a	-999	1	[0, 0, 0]	n/a	FR1	0	R1292E
256902.208	1.621	1166572	WORD	n/a	n/a	EAR	1	1	[0, 0, 0]	n/a	FR1	0	R1292E
256903.829	0.847	1168193	WORD_OFF	n/a	n/a	EAR	1	1	[0, 0, 0]	n/a	FR1	0	R1292E
256904.676	1.637	1169040	WORD	n/a	n/a	NEST	2	1	[0, 0, 0]	n/a	FR1	0	R1292E
256906.313	1.068	1170676	WORD_OFF	n/a	n/a	NEST	2	1	[0, 0, 0]	n/a	FR1	0	R1292E
256907.381	1.633	1171744	WORD	n/a	n/a	POLE	3	1	[0, 0, 0]	n/a	FR1	0	R1292E
256909.014	0.835	1173377	WORD_OFF	n/a	n/a	POLE	3	1	[0, 0, 0]	n/a	FR1	0	R1292E
256909.849	1.631	1174212	WORD	n/a	n/a	HOLE	4	1	[0, 0, 0]	n/a	FR1	0	R1292E
256911.48	0.851	1175843	WORD_OFF	n/a	n/a	HOLE	4	1	[0, 0, 0]	n/a	FR1	0	R1292E
256912.331	1.634	1176694	WORD	n/a	n/a	STORE	5	1	[0, 0, 0]	n/a	FR1	0	R1292E
256913.965	1.074	1178328	WORD_OFF	n/a	n/a	STORE	5	1	[0, 0, 0]	n/a	FR1	0	R1292E
256915.039	1.625	1179402	WORD	n/a	n/a	FORK	6	1	[0, 0, 0]	n/a	FR1	0	R1292E
256916.664	0.858	1181027	WORD_OFF	n/a	n/a	FORK	6	1	[0, 0, 0]	n/a	FR1	0	R1292E
256917.522	1.627	1181885	WORD	n/a	n/a	STEM	7	1	[0, 0, 0]	n/a	FR1	0	R1292E
256919.149	0.796	1183512	WORD_OFF	n/a	n/a	STEM	7	1	[0, 0, 0]	n/a	FR1	0	R1292E
256919.945	1.62	1184308	WORD	n/a	n/a	TIE	8	1	[0, 0, 0]	n/a	FR1	0	R1292E
256921.565	0.97	1185928	WORD_OFF	n/a	n/a	TIE	8	1	[0, 0, 0]	n/a	FR1	0	R1292E
256922.535	1.631	1186898	WORD	n/a	n/a	STICK	9	1	[0, 0, 0]	n/a	FR1	0	R1292E
256924.166	0.889	1188529	WORD_OFF	n/a	n/a	STICK	9	1	[0, 0, 0]	n/a	FR1	0	R1292E
256925.055	1.627	1189418	WORD	n/a	n/a	SNAIL	10	1	[0, 0, 0]	n/a	FR1	0	R1292E
256926.682	0.981	1191045	WORD_OFF	n/a	n/a	SNAIL	10	1	[0, 0, 0]	n/a	FR1	0	R1292E
256927.663	1.621	1192026	WORD	n/a	n/a	ROPE	11	1	[0, 0, 0]	n/a	FR1	0	R1292E
256929.284	0.757	1193647	WORD_OFF	n/a	n/a	ROPE	11	1	[0, 0, 0]	n/a	FR1	0	R1292E
256930.041	1.626	1194404	WORD	n/a	n/a	ROOM	12	1	[0, 0, 0]	n/a	FR1	0	R1292E
256931.667	0.0	1196030	WORD_OFF	n/a	n/a	ROOM	12	1	[0, 0, 0]	n/a	FR1	0	R1292E
256931.667	0.001	1196030	ENCODING_END	n/a	n/a	n/a	-999	1	[0, 0, 0]	n/a	FR1	0	R1292E
256931.668	0.0	1196031	DISTRACT_START	n/a	n/a	n/a	-999	1	[0, 0, 0]	n/a	FR1	0	R1292E
256931.668	0.015	1196031	START	n/a	n/a	n/a	-999	1	[-999, -999, -999]	n/a	FR1	0	R1292E
256931.683	4.918	1196046	PROB	4.918	n/a	n/a	-999	1	[1, 8, 2]	11	FR1	0	R1292E
256936.601	8.419	1200963	PROB	8.419	n/a	n/a	-999	1	[4, 4, 4]	12	FR1	0	R1292E
256945.02	22.365	1209382	PROB	22.365	n/a	n/a	-999	1	[4, 9, 7]	21	FR1	0	R1292E
256967.385	0.022	1231746	STOP	n/a	n/a	n/a	-999	1	[-999, -999, -999]	n/a	FR1	0	R1292E
256967.407	0.572	1231768	DISTRACT_END	n/a	n/a	n/a	-999	1	[0, 0, 0]	n/a	FR1	0	R1292E
256967.979	1.644	1232340	RETRIEVAL_ORIENT_START	n/a	n/a	n/a	-999	1	[0, 0, 0]	n/a	FR1	0	R1292E
256969.623	0.001	1233984	RETRIEVAL_ORIENT_END	n/a	n/a	n/a	-999	1	[0, 0, 0]	n/a	FR1	0	R1292E
256969.624	0.996	1233985	REC_START	n/a	n/a	n/a	-999	1	[0, 0, 0]	n/a	FR1	0	R1292E
256970.62	0.442	1234981	REC_WORD	0.442	n/a	EAR	1	1	[0, 0, 0]	n/a	FR1	0	R1292E
256971.062	0.928	1235423	REC_WORD	0.928	n/a	NEST	2	1	[0, 0, 0]	n/a	FR1	0	R1292E
256971.99	0.362	1236351	REC_WORD	0.362	n/a	DOOR	-999	1	[0, 0, 0]	n/a	FR1	0	R1292E
256972.352	1.0	1236713	REC_WORD	1.0	n/a	HOLE	4	1	[0, 0, 0]	n/a	FR1	0	R1292E
256973.352	17.739	1237713	REC_WORD_VV	17.739	n/a	<>	-999	1	[0, 0, 0]	n/a	FR1	0	R1292E
256991.091	8.543	1255451	REC_WORD	8.543	n/a	STICK	9	1	[0, 0, 0]	n/a	FR1	0	R1292E
256999.634	0.0	1263994	TRIAL_END	n/a	n/a	n/a	-999	1	[0, 0, 0]	n/a	FR1	0	R1292E
256999.634	0.018	1263994	REC_END	n/a	n/a	n/a	-999	1	[0, 0, 0]	n/a	FR1	0	R1292E
256999.652	0.0	1264012	TRIAL_START	n/a	n/a	n/a	-999	2	[0, 0, 0]	n/a	FR1	0	R1292E
256999.652	0.001	1264012	TRIAL	n/a	n/a	n/a	-999	2	[0, 0, 0]	n/a	FR1	0	R1292E
256999.653	21.714	1264013	WAITING_START	n/a	n/a	n/a	-999	2	[0, 0, 0]	n/a	FR1	0	R1292E
257021.367	0.0	1285726	WAITING_END	n/a	n/a	n/a	-999	2	[0, 0, 0]	n/a	FR1	0	R1292E
257021.367	10.429	1285726	COUNTDOWN_START	n/a	n/a	n/a	-999	2	[0, 0, 0]	n/a	FR1	0	R1292E
257031.796	0.0	1296155	COUNTDOWN_END	n/a	n/a	n/a	-999	2	[0, 0, 0]	n/a	FR1	0	R1292E
257031.796	1.123	1296155	ORIENT_START	n/a	n/a	n/a	-999	2	[0, 0, 0]	n/a	FR1	0	R1292E
257032.919	0.0	1297278	ORIENT_END	n/a	n/a	n/a	-999	2	[0, 0, 0]	n/a	FR1	0	R1292E
257032.919	0.992	1297278	ENCODING_START	n/a	n/a	n/a	-999	2	[0, 0, 0]	n/a	FR1	0	R1292E
257033.911	1.624	1298270	WORD	n/a	n/a	BENCH	1	2	[0, 0, 0]	n/a	FR1	0	R1292E
257035.535	0.861	1299894	WORD_OFF	n/a	n/a	BENCH	1	2	[0, 0, 0]	n/a	FR1	0	R1292E
257036.396	1.624	1300755	WORD	n/a	n/a	BADGE	2	2	[0, 0, 0]	n/a	FR1	0	R1292E
257038.02	0.869	1302379	WORD_OFF	n/a	n/a	BADGE	2	2	[0, 0, 0]	n/a	FR1	0	R1292E
257038.889	1.63	1303248	WORD	n/a	n/a	PRINCE	3	2	[0, 0, 0]	n/a	FR1	0	R1292E
257040.519	0.986	1304878	WORD_OFF	n/a	n/a	PRINCE	3	2	[0, 0, 0]	n/a	FR1	0	R1292E
257041.505	1.616	1305864	WORD	n/a	n/a	BUSH	4	2	[0, 0, 0]	n/a	FR1	0	R1292E
257043.121	1.065	1307480	WORD_OFF	n/a	n/a	BUSH	4	2	[0, 0, 0]	n/a	FR1	0	R1292E
257044.186	1.634	1308545	WORD	n/a	n/a	BOARD	5	2	[0, 0, 0]	n/a	FR1	0	R1292E
257045.82	1.009	1310179	WORD_OFF	n/a	n/a	BOARD	5	2	[0, 0, 0]	n/a	FR1	0	R1292E
257046.829	1.626	1311188	WORD	n/a	n/a	OWL	6	2	[0, 0, 0]	n/a	FR1	0	R1292E
257048.455	1.058	1312813	WORD_OFF	n/a	n/a	OWL	6	2	[0, 0, 0]	n/a	FR1	0	R1292E
257049.513	1.626	1313871	WORD	n/a	n/a	CRANE	7	2	[0, 0, 0]	n/a	FR1	0	R1292E
257051.139	0.968	1315497	WORD_OFF	n/a	n/a	CRANE	7	2	[0, 0, 0]	n/a	FR1	0	R1292E
257052.107	1.631	1316465	WORD	n/a	n/a	GLOVE	8	2	[0, 0, 0]	n/a	FR1	0	R1292E
257053.738	0.863	1318096	WORD_OFF	n/a	n/a	GLOVE	8	2	[0, 0, 0]	n/a	FR1	0	R1292E
257054.601	1.639	1318959	WORD	n/a	n/a	STEAK	9	2	[0, 0, 0]	n/a	FR1	0	R1292E
257056.24	1.126	1320598	WORD_OFF	n/a	n/a	STEAK	9	2	[0, 0, 0]	n/a	FR1	0	R1292E
257057.366	1.624	1321724	WORD	n/a	n/a	NET	10	2	[0, 0, 0]	n/a	FR1	0	R1292E
257058.99	0.803	1323348	WORD_OFF	n/a	n/a	NET	10	2	[0, 0, 0]	n/a	FR1	0	R1292E
257059.793	1.631	1324151	WORD	n/a	n/a	SOUP	11	2	[0, 0, 0]	n/a	FR1	0	R1292E
257061.424	1.082	1325782	WORD_OFF	n/a	n/a	SOUP	11	2	[0, 0, 0]	n/a	FR1	0	R1292E
257062.506	1.635	1326864	WORD	n/a	n/a	TANK	12	2	[0, 0, 0]	n/a	FR1	0	R1292E
257064.141	0.0	1328499	WORD_OFF	n/a	n/a	TANK	12	2	[0, 0, 0]	n/a	FR1	0	R1292E
257064.141	0.001	1328499	ENCODING_END	n/a	n/a	n/a	-999	2	[0, 0, 0]	n/a	FR1	0	R1292E
257064.142	0.0	1328500	DISTRACT_START	n/a	n/a	n/a	-999	2	[0, 0, 0]	n/a	FR1	0	R1292E
257064.142	0.015	1328500	START	n/a	n/a	n/a	-999	2	[-999, -999, -999]	n/a	FR1	0	R1292E
257064.157	5.484	1328515	PROB	5.484	n/a	n/a	-999	2	[9, 1, 6]	16	FR1	0	R1292E
257069.641	16.742	1333999	PROB	16.742	n/a	n/a	-999	2	[6, 7, 8]	21	FR1	0	R1292E
257086.383	0.012	1350740	STOP	n/a	n/a	n/a	-999	2	[-999, -999, -999]	n/a	FR1	0	R1292E
257086.395	0.623	1350752	DISTRACT_END	n/a	n/a	n/a	-999	2	[0, 0, 0]	n/a	FR1	0	R1292E
257087.018	1.56	1351375	RETRIEVAL_ORIENT_START	n/a	n/a	n/a	-999	2	[0, 0, 0]	n/a	FR1	0	R1292E
257088.578	0.0	1352935	RETRIEVAL_ORIENT_END	n/a	n/a	n/a	-999	2	[0, 0, 0]	n/a	FR1	0	R1292E
257088.578	2.75	1352935	REC_START	n/a	n/a	n/a	-999	2	[0, 0, 0]	n/a	FR1	0	R1292E
257091.328	11.149	1355685	REC_WORD	11.149	n/a	NET	10	2	[0, 0, 0]	n/a	FR1	0	R1292E
257102.477	5.504	1366834	REC_WORD	5.504	n/a	BADGE	2	2	[0, 0, 0]	n/a	FR1	0	R1292E
257107.981	4.193	1372337	REC_WORD	4.193	n/a	OWL	6	2	[0, 0, 0]	n/a	FR1	0	R1292E
257112.174	6.415	1376530	REC_WORD	6.415	n/a	BENCH	1	2	[0, 0, 0]	n/a	FR1	0	R1292E
257118.589	0.0	1382945	REC_END	n/a	n/a	n/a	-999	2	[0, 0, 0]	n/a	FR1	0	R1292E
257118.589	0.018	1382945	TRIAL_END	n/a	n/a	n/a	-999	2	[0, 0, 0]	n/a	FR1	0	R1292E
257118.607	0.0	1382963	WAITING_START	n/a	n/a	n/a	-999	3	[0, 0, 0]	n/a	FR1	0	R1292E
257118.607	0.0	1382963	TRIAL_START	n/a	n/a	n/a	-999	3	[0, 0, 0]	n/a	FR1	0	R1292E
257118.607	16.029	1382963	TRIAL	n/a	n/a	n/a	-999	3	[0, 0, 0]	n/a	FR1	0	R1292E
257134.636	0.0	1398991	WAITING_END	n/a	n/a	n/a	-999	3	[0, 0, 0]	n/a	FR1	0	R1292E
257134.636	10.429	1398991	COUNTDOWN_START	n/a	n/a	n/a	-999	3	[0, 0, 0]	n/a	FR1	0	R1292E
257145.065	0.001	1409420	COUNTDOWN_END	n/a	n/a	n/a	-999	3	[0, 0, 0]	n/a	FR1	0	R1292E
257145.066	1.189	1409421	ORIENT_START	n/a	n/a	n/a	-999	3	[0, 0, 0]	n/a	FR1	0	R1292E
257146.255	0.001	1410610	ORIENT_END	n/a	n/a	n/a	-999	3	[0, 0, 0]	n/a	FR1	0	R1292E
257146.256	1.014	1410611	ENCODING_START	n/a	n/a	n/a	-999	3	[0, 0, 0]	n/a	FR1	0	R1292E
257147.27	1.636	1411625	WORD	n/a	n/a	CALF	1	3	[0, 0, 0]	n/a	FR1	0	R1292E
257148.906	0.955	1413261	WORD_OFF	n/a	n/a	CALF	1	3	[0, 0, 0]	n/a	FR1	0	R1292E
257149.861	1.628	1414216	WORD	n/a	n/a	SLEEVE	2	3	[0, 0, 0]	n/a	FR1	0	R1292E
257151.489	1.086	1415844	WORD_OFF	n/a	n/a	SLEEVE	2	3	[0, 0, 0]	n/a	FR1	0	R1292E
257152.575	1.615	1416930	WORD	n/a	n/a	STEAM	3	3	[0, 0, 0]	n/a	FR1	0	R1292E
257154.19	0.802	1418545	WORD_OFF	n/a	n/a	STEAM	3	3	[0, 0, 0]	n/a	FR1	0	R1292E
257154.992	1.631	1419347	WORD	n/a	n/a	PEN	4	3	[0, 0, 0]	n/a	FR1	0	R1292E
257156.623	0.886	1420978	WORD_OFF	n/a	n/a	PEN	4	3	[0, 0, 0]	n/a	FR1	0	R1292E
257157.509	1.632	1421864	WORD	n/a	n/a	FOG	5	3	[0, 0, 0]	n/a	FR1	0	R1292E
257159.141	1.021	1423496	WORD_OFF	n/a	n/a	FOG	5	3	[0, 0, 0]	n/a	FR1	0	R1292E
257160.162	1.628	1424517	WORD	n/a	n/a	JAIL	6	3	[0, 0, 0]	n/a	FR1	0	R1292E
257161.79	0.958	1426144	WORD_OFF	n/a	n/a	JAIL	6	3	[0, 0, 0]	n/a	FR1	0	R1292E
257162.748	1.61	1427102	WORD	n/a	n/a	RAT	7	3	[0, 0, 0]	n/a	FR1	0	R1292E
257164.358	0.89	1428712	WORD_OFF	n/a	n/a	RAT	7	3	[0, 0, 0]	n/a	FR1	0	R1292E
257165.248	1.628	1429602	WORD	n/a	n/a	HORN	8	3	[0, 0, 0]	n/a	FR1	0	R1292E
257166.876	0.867	1431230	WORD_OFF	n/a	n/a	HORN	8	3	[0, 0, 0]	n/a	FR1	0	R1292E
257167.743	1.633	1432097	WORD	n/a	n/a	JAR	9	3	[0, 0, 0]	n/a	FR1	0	R1292E
257169.376	1.006	1433730	WORD_OFF	n/a	n/a	JAR	9	3	[0, 0, 0]	n/a	FR1	0	R1292E
257170.382	1.628	1434736	WORD	n/a	n/a	PIT	10	3	[0, 0, 0]	n/a	FR1	0	R1292E
257172.01	0.993	1436364	WORD_OFF	n/a	n/a	PIT	10	3	[0, 0, 0]	n/a	FR1	0	R1292E
257173.003	1.623	1437357	WORD	n/a	n/a	NOSE	11	3	[0, 0, 0]	n/a	FR1	0	R1292E
257174.626	0.953	1438980	WORD_OFF	n/a	n/a	NOSE	11	3	[0, 0, 0]	n/a	FR1	0	R1292E
257175.579	1.632	1439933	WORD	n/a	n/a	FUR	12	3	[0, 0, 0]	n/a	FR1	0	R1292E
257177.211	0.0	1441565	WORD_OFF	n/a	n/a	FUR	12	3	[0, 0, 0]	n/a	FR1	0	R1292E
257177.211	0.0	1441565	ENCODING_END	n/a	n/a	n/a	-999	3	[0, 0, 0]	n/a	FR1	0	R1292E
257177.211	0.001	1441565	DISTRACT_START	n/a	n/a	n/a	-999	3	[0, 0, 0]	n/a	FR1	0	R1292E
257177.212	0.015	1441566	START	n/a	n/a	n/a	-999	3	[-999, -999, -999]	n/a	FR1	0	R1292E
257177.227	5.868	1441581	PROB	5.868	n/a	n/a	-999	3	[9, 1, 6]	16	FR1	0	R1292E
257183.095	4.516	1447449	PROB	4.516	n/a	n/a	-999	3	[8, 9, 1]	18	FR1	0	R1292E
257187.611	21.494	1451965	PROB	21.494	n/a	n/a	-999	3	[8, 9, 5]	22	FR1	0	R1292E
257209.105	0.011	1473458	STOP	n/a	n/a	n/a	-999	3	[-999, -999, -999]	n/a	FR1	0	R1292E
257209.116	0.551	1473469	DISTRACT_END	n/a	n/a	n/a	-999	3	[0, 0, 0]	n/a	FR1	0	R1292E
257209.667	1.533	1474020	RETRIEVAL_ORIENT_START	n/a	n/a	n/a	-999	3	[0, 0, 0]	n/a	FR1	0	R1292E
257211.2	0.0	1475553	REC_START	n/a	n/a	n/a	-999	3	[0, 0, 0]	n/a	FR1	0	R1292E
257211.2	1.352	1475553	RETRIEVAL_ORIENT_END	n/a	n/a	n/a	-999	3	[0, 0, 0]	n/a	FR1	0	R1292E
257212.552	1.173	1476905	REC_WORD	1.173	n/a	JAIL	6	3	[0, 0, 0]	n/a	FR1	0	R1292E
257213.725	1.259	1478078	REC_WORD	1.259	n/a	RAT	7	3	[0, 0, 0]	n/a	FR1	0	R1292E
257214.984	0.743	1479337	REC_WORD	0.743	n/a	PEN	4	3	[0, 0, 0]	n/a	FR1	0	R1292E
257215.727	1.0	1480080	REC_WORD	1.0	n/a	SLEEVE	2	3	[0, 0, 0]	n/a	FR1	0	R1292E
257216.727	24.485	1481080	REC_WORD_VV	24.485	n/a	<>	-999	3	[0, 0, 0]	n/a	FR1	0	R1292E
257241.212	0.0	1505564	REC_END	n/a	n/a	n/a	-999	3	[0, 0, 0]	n/a	FR1	0	R1292E
257241.212	0.018	1505564	TRIAL_END	n/a	n/a	n/a	-999	3	[0, 0, 0]	n/a	FR1	0	R1292E
257241.23	0.001	1505582	TRIAL_START	n/a	n/a	n/a	-999	4	[0, 0, 0]	n/a	FR1	0	R1292E
257241.231	0.0	1505583	WAITING_START	n/a	n/a	n/a	-999	4	[0, 0, 0]	n/a	FR1	0	R1292E
257241.231	118.494	1505583	TRIAL	n/a	n/a	n/a	-999	4	[0, 0, 0]	n/a	FR1	0	R1292E
257359.725	0.0	1624073	WAITING_END	n/a	n/a	n/a	-999	4	[0, 0, 0]	n/a	FR1	0	R1292E
257359.725	10.43	1624073	COUNTDOWN_START	n/a	n/a	n/a	-999	4	[0, 0, 0]	n/a	FR1	0	R1292E
257370.155	0.0	1634502	COUNTDOWN_END	n/a	n/a	n/a	-999	4	[0, 0, 0]	n/a	FR1	0	R1292E
257370.155	1.156	1634502	ORIENT_START	n/a	n/a	n/a	-999	4	[0, 0, 0]	n/a	FR1	0	R1292E
257371.311	0.001	1635658	ORIENT_END	n/a	n/a	n/a	-999	4	[0, 0, 0]	n/a	FR1	0	R1292E
257371.312	0.755	1635659	ENCODING_START	n/a	n/a	n/a	-999	4	[0, 0, 0]	n/a	FR1	0	R1292E
257372.067	1.627	1636414	WORD	n/a	n/a	RICE	1	4	[0, 0, 0]	n/a	FR1	0	R1292E
257373.694	0.999	1638041	WORD_OFF	n/a	n/a	RICE	1	4	[0, 0, 0]	n/a	FR1	0	R1292E
257374.693	1.636	1639040	WORD	n/a	n/a	HAWK	2	4	[0, 0, 0]	n/a	FR1	0	R1292E
257376.329	0.84	1640676	WORD_OFF	n/a	n/a	HAWK	2	4	[0, 0, 0]	n/a	FR1	0	R1292E
257377.169	1.626	1641516	WORD	n/a	n/a	ANT	3	4	[0, 0, 0]	n/a	FR1	0	R1292E
257378.795	1.08	1643142	WORD_OFF	n/a	n/a	ANT	3	4	[0, 0, 0]	n/a	FR1	0	R1292E
257379.875	1.62	1644222	WORD	n/a	n/a	PEACH	4	4	[0, 0, 0]	n/a	FR1	0	R1292E
257381.495	0.87	1645842	WORD_OFF	n/a	n/a	PEACH	4	4	[0, 0, 0]	n/a	FR1	0	R1292E
257382.365	1.632	1646712	WORD	n/a	n/a	SQUARE	5	4	[0, 0, 0]	n/a	FR1	0	R1292E
257383.997	0.926	1648344	WORD_OFF	n/a	n/a	SQUARE	5	4	[0, 0, 0]	n/a	FR1	0	R1292E
257384.923	1.623	1649270	WORD	n/a	n/a	BLUSH	6	4	[0, 0, 0]	n/a	FR1	0	R1292E
257386.546	0.899	1650893	WORD_OFF	n/a	n/a	BLUSH	6	4	[0, 0, 0]	n/a	FR1	0	R1292E
257387.445	1.636	1651792	WORD	n/a	n/a	CLOUD	7	4	[0, 0, 0]	n/a	FR1	0	R1292E
257389.081	0.946	1653427	WORD_OFF	n/a	n/a	CLOUD	7	4	[0, 0, 0]	n/a	FR1	0	R1292E
257390.027	1.637	1654373	WORD	n/a	n/a	HEART	8	4	[0, 0, 0]	n/a	FR1	0	R1292E
257391.664	0.949	1656010	WORD_OFF	n/a	n/a	HEART	8	4	[0, 0, 0]	n/a	FR1	0	R1292E
257392.613	1.636	1656959	WORD	n/a	n/a	CORD	9	4	[0, 0, 0]	n/a	FR1	0	R1292E
257394.249	1.037	1658595	WORD_OFF	n/a	n/a	CORD	9	4	[0, 0, 0]	n/a	FR1	0	R1292E
257395.286	1.63	1659632	WORD	n/a	n/a	ARK	10	4	[0, 0, 0]	n/a	FR1	0	R1292E
257396.916	0.854	1661262	WORD_OFF	n/a	n/a	ARK	10	4	[0, 0, 0]	n/a	FR1	0	R1292E
257397.77	1.613	1662116	WORD	n/a	n/a	STREET	11	4	[0, 0, 0]	n/a	FR1	0	R1292E
257399.383	1.047	1663729	WORD_OFF	n/a	n/a	STREET	11	4	[0, 0, 0]	n/a	FR1	0	R1292E
257400.43	1.637	1664776	WORD	n/a	n/a	MOOSE	12	4	[0, 0, 0]	n/a	FR1	0	R1292E
257402.067	0.0	1666413	WORD_OFF	n/a	n/a	MOOSE	12	4	[0, 0, 0]	n/a	FR1	0	R1292E
257402.067	0.001	1666413	ENCODING_END	n/a	n/a	n/a	-999	4	[0, 0, 0]	n/a	FR1	0	R1292E
257402.068	0.0	1666414	DISTRACT_START	n/a	n/a	n/a	-999	4	[0, 0, 0]	n/a	FR1	0	R1292E
257402.068	0.015	1666414	START	n/a	n/a	n/a	-999	4	[-999, -999, -999]	n/a	FR1	0	R1292E
257402.083	6.318	1666429	PROB	6.318	n/a	n/a	-999	4	[8, 2, 5]	15	FR1	0	R1292E
257408.401	6.534	1672747	PROB	6.534	n/a	n/a	-999	4	[7, 2, 5]	14	FR1	0	R1292E
257414.935	3.418	1679281	PROB	3.418	n/a	n/a	-999	4	[2, 9, 1]	12	FR1	0	R1292E
257418.353	4.023	1682698	PROB	4.023	n/a	n/a	-999	4	[1, 9, 2]	12	FR1	0	R1292E
257422.376	0.011	1686721	STOP	n/a	n/a	n/a	-999	4	[-999, -999, -999]	n/a	FR1	0	R1292E
257422.387	0.605	1686732	DISTRACT_END	n/a	n/a	n/a	-999	4	[0, 0, 0]	n/a	FR1	0	R1292E
257422.992	1.678	1687337	RETRIEVAL_ORIENT_START	n/a	n/a	n/a	-999	4	[0, 0, 0]	n/a	FR1	0	R1292E
257424.67	0.0	1689015	REC_START	n/a	n/a	n/a	-999	4	[0, 0, 0]	n/a	FR1	0	R1292E
257424.67	5.768	1689015	RETRIEVAL_ORIENT_END	n/a	n/a	n/a	-999	4	[0, 0, 0]	n/a	FR1	0	R1292E
257430.438	0.7	1694783	REC_WORD	0.7	n/a	ANT	3	4	[0, 0, 0]	n/a	FR1	0	R1292E
257431.138	9.995	1695483	REC_WORD	9.995	n/a	STREET	11	4	[0, 0, 0]	n/a	FR1	0	R1292E
257441.133	13.548	1705478	REC_WORD	13.548	n/a	CORD	9	4	[0, 0, 0]	n/a	FR1	0	R1292E
257454.681	0.0	1719025	REC_END	n/a	n/a	n/a	-999	4	[0, 0, 0]	n/a	FR1	0	R1292E
257454.681	0.018	1719025	TRIAL_END	n/a	n/a	n/a	-999	4	[0, 0, 0]	n/a	FR1	0	R1292E
257454.699	0.001	1719043	TRIAL_START	n/a	n/a	n/a	-999	5	[0, 0, 0]	n/a	FR1	0	R1292E
257454.7	0.0	1719044	WAITING_START	n/a	n/a	n/a	-999	5	[0, 0, 0]	n/a	FR1	0	R1292E
257454.7	31.814	1719044	TRIAL	n/a	n/a	n/a	-999	5	[0, 0, 0]	n/a	FR1	0	R1292E
257486.514	0.0	1750857	WAITING_END	n/a	n/a	n/a	-999	5	[0, 0, 0]	n/a	FR1	0	R1292E
257486.514	10.429	1750857	COUNTDOWN_START	n/a	n/a	n/a	-999	5	[0, 0, 0]	n/a	FR1	0	R1292E
257496.943	0.0	1761286	COUNTDOWN_END	n/a	n/a	n/a	-999	5	[0, 0, 0]	n/a	FR1	0	R1292E
257496.943	1.04	1761286	ORIENT_START	n/a	n/a	n/a	-999	5	[0, 0, 0]	n/a	FR1	0	R1292E
257497.983	0.001	1762326	ORIENT_END	n/a	n/a	n/a	-999	5	[0, 0, 0]	n/a	FR1	0	R1292E
257497.984	1.109	1762327	ENCODING_START	n/a	n/a	n/a	-999	5	[0, 0, 0]	n/a	FR1	0	R1292E
257499.093	1.623	1763436	WORD	n/a	n/a	INK	1	5	[0, 0, 0]	n/a	FR1	0	R1292E
257500.716	0.832	1765059	WORD_OFF	n/a	n/a	INK	1	5	[0, 0, 0]	n/a	FR1	0	R1292E
257501.548	1.636	1765891	WORD	n/a	n/a	BLOOM	2	5	[0, 0, 0]	n/a	FR1	0	R1292E
257503.184	1.035	1767526	WORD_OFF	n/a	n/a	BLOOM	2	5	[0, 0, 0]	n/a	FR1	0	R1292E
257504.219	1.631	1768561	WORD	n/a	n/a	BRUSH	3	5	[0, 0, 0]	n/a	FR1	0	R1292E
257505.85	0.787	1770192	WORD_OFF	n/a	n/a	BRUSH	3	5	[0, 0, 0]	n/a	FR1	0	R1292E
257506.637	1.615	1770979	WORD	n/a	n/a	HORSE	4	5	[0, 0, 0]	n/a	FR1	0	R1292E
257508.252	0.776	1772594	WORD_OFF	n/a	n/a	HORSE	4	5	[0, 0, 0]	n/a	FR1	0	R1292E
257509.028	1.623	1773370	WORD	n/a	n/a	HOUSE	5	5	[0, 0, 0]	n/a	FR1	0	R1292E
257510.651	0.808	1774993	WORD_OFF	n/a	n/a	HOUSE	5	5	[0, 0, 0]	n/a	FR1	0	R1292E
257511.459	1.61	1775801	WORD	n/a	n/a	CLOWN	6	5	[0, 0, 0]	n/a	FR1	0	R1292E
257513.069	0.956	1777411	WORD_OFF	n/a	n/a	CLOWN	6	5	[0, 0, 0]	n/a	FR1	0	R1292E
257514.025	1.627	1778367	WORD	n/a	n/a	POOL	7	5	[0, 0, 0]	n/a	FR1	0	R1292E
257515.652	1.066	1779994	WORD_OFF	n/a	n/a	POOL	7	5	[0, 0, 0]	n/a	FR1	0	R1292E
257516.718	1.619	1781060	WORD	n/a	n/a	TENT	8	5	[0, 0, 0]	n/a	FR1	0	R1292E
257518.337	1.097	1782679	WORD_OFF	n/a	n/a	TENT	8	5	[0, 0, 0]	n/a	FR1	0	R1292E
257519.434	1.638	1783776	WORD	n/a	n/a	FOOD	9	5	[0, 0, 0]	n/a	FR1	0	R1292E
257521.072	0.949	1785414	WORD_OFF	n/a	n/a	FOOD	9	5	[0, 0, 0]	n/a	FR1	0	R1292E
257522.021	1.633	1786363	WORD	n/a	n/a	FLEA	10	5	[0, 0, 0]	n/a	FR1	0	R1292E
257523.654	1.118	1787996	WORD_OFF	n/a	n/a	FLEA	10	5	[0, 0, 0]	n/a	FR1	0	R1292E
257524.772	1.633	1789114	WORD	n/a	n/a	GRASS	11	5	[0, 0, 0]	n/a	FR1	0	R1292E
257526.405	1.116	1790747	WORD_OFF	n/a	n/a	GRASS	11	5	[0, 0, 0]	n/a	FR1	0	R1292E
257527.521	1.635	1791863	WORD	n/a	n/a	WHALE	12	5	[0, 0, 0]	n/a	FR1	0	R1292E
257529.156	0.0	1793498	WORD_OFF	n/a	n/a	WHALE	12	5	[0, 0, 0]	n/a	FR1	0	R1292E
257529.156	0.0	1793498	ENCODING_END	n/a	n/a	n/a	-999	5	[0, 0, 0]	n/a	FR1	0	R1292E
257529.156	0.0	1793498	DISTRACT_START	n/a	n/a	n/a	-999	5	[0, 0, 0]	n/a	FR1	0	R1292E
257529.156	0.016	1793498	START	n/a	n/a	n/a	-999	5	[-999, -999, -999]	n/a	FR1	0	R1292E
257529.172	9.135	1793514	PROB	9.135	n/a	n/a	-999	5	[7, 4, 6]	17	FR1	0	R1292E
257538.307	7.635	1802648	PROB	7.635	n/a	n/a	-999	5	[4, 8, 7]	19	FR1	0	R1292E
257545.942	6.743	1810283	PROB	6.743	n/a	n/a	-999	5	[5, 7, 8]	20	FR1	0	R1292E
257552.685	0.007	1817026	STOP	n/a	n/a	n/a	-999	5	[-999, -999, -999]	n/a	FR1	0	R1292E
257552.692	0.631	1817033	DISTRACT_END	n/a	n/a	n/a	-999	5	[0, 0, 0]	n/a	FR1	0	R1292E
257553.323	1.654	1817664	RETRIEVAL_ORIENT_START	n/a	n/a	n/a	-999	5	[0, 0, 0]	n/a	FR1	0	R1292E
257554.977	0.0	1819318	REC_START	n/a	n/a	n/a	-999	5	[0, 0, 0]	n/a	FR1	0	R1292E
257554.977	1.857	1819318	RETRIEVAL_ORIENT_END	n/a	n/a	n/a	-999	5	[0, 0, 0]	n/a	FR1	0	R1292E
257556.834	0.994	1821175	REC_WORD	0.994	n/a	CLOWN	6	5	[0, 0, 0]	n/a	FR1	0	R1292E
257557.828	1.67	1822169	REC_WORD	1.67	n/a	FLEA	10	5	[0, 0, 0]	n/a	FR1	0	R1292E
257559.498	3.999	1823838	REC_WORD	3.999	n/a	TENT	8	5	[0, 0, 0]	n/a	FR1	0	R1292E
257563.497	2.499	1827837	REC_WORD	2.499	n/a	POOL	7	5	[0, 0, 0]	n/a	FR1	0	R1292E
257565.996	15.053	1830336	REC_WORD	15.053	n/a	HOUSE	5	5	[0, 0, 0]	n/a	FR1	0	R1292E
257581.049	3.939	1845389	REC_WORD	3.939	n/a	HORSE	4	5	[0, 0, 0]	n/a	FR1	0	R1292E
257584.988	0.0	1849328	REC_END	n/a	n/a	n/a	-999	5	[0, 0, 0]	n/a	FR1	0	R1292E
257584.988	0.018	1849328	TRIAL_END	n/a	n/a	n/a	-999	5	[0, 0, 0]	n/a	FR1	0	R1292E
257585.006	0.0	1849346	TRIAL_START	n/a	n/a	n/a	-999	6	[0, 0, 0]	n/a	FR1	0	R1292E
257585.006	0.0	1849346	TRIAL	n/a	n/a	n/a	-999	6	[0, 0, 0]	n/a	FR1	0	R1292E
257585.006	6.76	1849346	WAITING_START	n/a	n/a	n/a	-999	6	[0, 0, 0]	n/a	FR1	0	R1292E
257591.766	0.0	1856105	WAITING_END	n/a	n/a	n/a	-999	6	[0, 0, 0]	n/a	FR1	0	R1292E
257591.766	10.428	1856105	COUNTDOWN_START	n/a	n/a	n/a	-999	6	[0, 0, 0]	n/a	FR1	0	R1292E
257602.194	0.001	1866533	COUNTDOWN_END	n/a	n/a	n/a	-999	6	[0, 0, 0]	n/a	FR1	0	R1292E
257602.195	1.24	1866534	ORIENT_START	n/a	n/a	n/a	-999	6	[0, 0, 0]	n/a	FR1	0	R1292E
257603.435	0.001	1867774	ORIENT_END	n/a	n/a	n/a	-999	6	[0, 0, 0]	n/a	FR1	0	R1292E
257603.436	1.001	1867775	ENCODING_START	n/a	n/a	n/a	-999	6	[0, 0, 0]	n/a	FR1	0	R1292E
257604.437	1.632	1868776	WORD	n/a	n/a	FLUTE	1	6	[0, 0, 0]	n/a	FR1	0	R1292E
257606.069	0.828	1870408	WORD_OFF	n/a	n/a	FLUTE	1	6	[0, 0, 0]	n/a	FR1	0	R1292E
257606.897	1.621	1871236	WORD	n/a	n/a	STRING	2	6	[0, 0, 0]	n/a	FR1	0	R1292E
257608.518	0.821	1872857	WORD_OFF	n/a	n/a	STRING	2	6	[0, 0, 0]	n/a	FR1	0	R1292E
257609.339	1.631	1873678	WORD	n/a	n/a	WAND	3	6	[0, 0, 0]	n/a	FR1	0	R1292E
257610.97	1.05	1875309	WORD_OFF	n/a	n/a	WAND	3	6	[0, 0, 0]	n/a	FR1	0	R1292E
257612.02	1.633	1876359	WORD	n/a	n/a	BAG	4	6	[0, 0, 0]	n/a	FR1	0	R1292E
257613.653	0.803	1877992	WORD_OFF	n/a	n/a	BAG	4	6	[0, 0, 0]	n/a	FR1	0	R1292E
257614.456	1.631	1878795	WORD	n/a	n/a	CHALK	5	6	[0, 0, 0]	n/a	FR1	0	R1292E
257616.087	1.085	1880425	WORD_OFF	n/a	n/a	CHALK	5	6	[0, 0, 0]	n/a	FR1	0	R1292E
257617.172	1.632	1881510	WORD	n/a	n/a	CHIEF	6	6	[0, 0, 0]	n/a	FR1	0	R1292E
257618.804	0.887	1883142	WORD_OFF	n/a	n/a	CHIEF	6	6	[0, 0, 0]	n/a	FR1	0	R1292E
257619.691	1.614	1884029	WORD	n/a	n/a	SWORD	7	6	[0, 0, 0]	n/a	FR1	0	R1292E
257621.305	1.105	1885643	WORD_OFF	n/a	n/a	SWORD	7	6	[0, 0, 0]	n/a	FR1	0	R1292E
257622.41	1.629	1886748	WORD	n/a	n/a	FROG	8	6	[0, 0, 0]	n/a	FR1	0	R1292E
257624.039	0.848	1888377	WORD_OFF	n/a	n/a	FROG	8	6	[0, 0, 0]	n/a	FR1	0	R1292E
257624.887	1.635	1889225	WORD	n/a	n/a	COUCH	9	6	[0, 0, 0]	n/a	FR1	0	R1292E
257626.522	1.065	1890860	WORD_OFF	n/a	n/a	COUCH	9	6	[0, 0, 0]	n/a	FR1	0	R1292E
257627.587	1.636	1891925	WORD	n/a	n/a	WOOD	10	6	[0, 0, 0]	n/a	FR1	0	R1292E
257629.223	0.889	1893561	WORD_OFF	n/a	n/a	WOOD	10	6	[0, 0, 0]	n/a	FR1	0	R1292E
257630.112	1.627	1894450	WORD	n/a	n/a	CANE	11	6	[0, 0, 0]	n/a	FR1	0	R1292E
257631.739	1.09	1896077	WORD_OFF	n/a	n/a	CANE	11	6	[0, 0, 0]	n/a	FR1	0	R1292E
257632.829	1.628	1897167	WORD	n/a	n/a	MOTH	12	6	[0, 0, 0]	n/a	FR1	0	R1292E
257634.457	0.001	1898795	WORD_OFF	n/a	n/a	MOTH	12	6	[0, 0, 0]	n/a	FR1	0	R1292E
257634.458	0.0	1898796	ENCODING_END	n/a	n/a	n/a	-999	6	[0, 0, 0]	n/a	FR1	0	R1292E
257634.458	0.0	1898796	DISTRACT_START	n/a	n/a	n/a	-999	6	[0, 0, 0]	n/a	FR1	0	R1292E
257634.458	0.015	1898796	START	n/a	n/a	n/a	-999	6	[-999, -999, -999]	n/a	FR1	0	R1292E
257634.473	20.475	1898811	PROB	20.475	n/a	n/a	-999	6	[8, 8, 9]	25	FR1	0	R1292E
257654.948	0.013	1919285	STOP	n/a	n/a	n/a	-999	6	[-999, -999, -999]	n/a	FR1	0	R1292E
257654.961	0.638	1919298	DISTRACT_END	n/a	n/a	n/a	-999	6	[0, 0, 0]	n/a	FR1	0	R1292E
257655.599	1.629	1919936	RETRIEVAL_ORIENT_START	n/a	n/a	n/a	-999	6	[0, 0, 0]	n/a	FR1	0	R1292E
257657.228	0.0	1921565	RETRIEVAL_ORIENT_END	n/a	n/a	n/a	-999	6	[0, 0, 0]	n/a	FR1	0	R1292E
257657.228	29.994	1921565	REC_START	n/a	n/a	n/a	-999	6	[0, 0, 0]	n/a	FR1	0	R1292E
257687.222	0.016	1951558	REC_WORD_VV	0.016	n/a	<>	-999	6	[0, 0, 0]	n/a	FR1	0	R1292E
257687.238	0.001	1951574	REC_END	n/a	n/a	n/a	-999	6	[0, 0, 0]	n/a	FR1	0	R1292E
257687.239	0.017	1951575	TRIAL_END	n/a	n/a	n/a	-999	6	[0, 0, 0]	n/a	FR1	0	R1292E
257687.256	0.0	1951592	TRIAL_START	n/a	n/a	n/a	-999	7	[0, 0, 0]	n/a	FR1	0	R1292E
257687.256	0.001	1951592	TRIAL	n/a	n/a	n/a	-999	7	[0, 0, 0]	n/a	FR1	0	R1292E
257687.257	37.482	1951593	WAITING_START	n/a	n/a	n/a	-999	7	[0, 0, 0]	n/a	FR1	0	R1292E
257724.739	0.0	1989074	COUNTDOWN_START	n/a	n/a	n/a	-999	7	[0, 0, 0]	n/a	FR1	0	R1292E
257724.739	10.429	1989074	WAITING_END	n/a	n/a	n/a	-999	7	[0, 0, 0]	n/a	FR1	0	R1292E
257735.168	0.0	1999502	COUNTDOWN_END	n/a	n/a	n/a	-999	7	[0, 0, 0]	n/a	FR1	0	R1292E
257735.168	1.04	1999502	ORIENT_START	n/a	n/a	n/a	-999	7	[0, 0, 0]	n/a	FR1	0	R1292E
257736.208	0.001	2000542	ORIENT_END	n/a	n/a	n/a	-999	7	[0, 0, 0]	n/a	FR1	0	R1292E
257736.209	1.1	2000543	ENCODING_START	n/a	n/a	n/a	-999	7	[0, 0, 0]	n/a	FR1	0	R1292E
257737.309	1.633	2001643	WORD	n/a	n/a	SAIL	1	7	[0, 0, 0]	n/a	FR1	0	R1292E
257738.942	0.973	2003276	WORD_OFF	n/a	n/a	SAIL	1	7	[0, 0, 0]	n/a	FR1	0	R1292E
257739.915	1.627	2004249	WORD	n/a	n/a	DOCK	2	7	[0, 0, 0]	n/a	FR1	0	R1292E
257741.542	1.074	2005876	WORD_OFF	n/a	n/a	DOCK	2	7	[0, 0, 0]	n/a	FR1	0	R1292E
257742.616	1.627	2006950	WORD	n/a	n/a	BED	3	7	[0, 0, 0]	n/a	FR1	0	R1292E
257744.243	1.065	2008577	WORD_OFF	n/a	n/a	BED	3	7	[0, 0, 0]	n/a	FR1	0	R1292E
257745.308	1.636	2009642	WORD	n/a	n/a	DUCK	4	7	[0, 0, 0]	n/a	FR1	0	R1292E
257746.944	0.849	2011278	WORD_OFF	n/a	n/a	DUCK	4	7	[0, 0, 0]	n/a	FR1	0	R1292E
257747.793	1.634	2012127	WORD	n/a	n/a	DRESS	5	7	[0, 0, 0]	n/a	FR1	0	R1292E
257749.427	0.836	2013761	WORD_OFF	n/a	n/a	DRESS	5	7	[0, 0, 0]	n/a	FR1	0	R1292E
257750.263	1.632	2014597	WORD	n/a	n/a	WING	6	7	[0, 0, 0]	n/a	FR1	0	R1292E
257751.895	0.896	2016229	WORD_OFF	n/a	n/a	WING	6	7	[0, 0, 0]	n/a	FR1	0	R1292E
257752.791	1.62	2017125	WORD	n/a	n/a	HEN	7	7	[0, 0, 0]	n/a	FR1	0	R1292E
257754.411	0.783	2018745	WORD_OFF	n/a	n/a	HEN	7	7	[0, 0, 0]	n/a	FR1	0	R1292E
257755.194	1.634	2019528	WORD	n/a	n/a	STONE	8	7	[0, 0, 0]	n/a	FR1	0	R1292E
257756.828	1.131	2021162	WORD_OFF	n/a	n/a	STONE	8	7	[0, 0, 0]	n/a	FR1	0	R1292E
257757.959	1.636	2022293	WORD	n/a	n/a	CUP	9	7	[0, 0, 0]	n/a	FR1	0	R1292E
257759.595	0.886	2023928	WORD_OFF	n/a	n/a	CUP	9	7	[0, 0, 0]	n/a	FR1	0	R1292E
257760.481	1.632	2024814	WORD	n/a	n/a	FISH	10	7	[0, 0, 0]	n/a	FR1	0	R1292E
257762.113	0.931	2026446	WORD_OFF	n/a	n/a	FISH	10	7	[0, 0, 0]	n/a	FR1	0	R1292E
257763.044	1.635	2027377	WORD	n/a	n/a	BANK	11	7	[0, 0, 0]	n/a	FR1	0	R1292E
257764.679	0.866	2029012	WORD_OFF	n/a	n/a	BANK	11	7	[0, 0, 0]	n/a	FR1	0	R1292E
257765.545	1.619	2029878	WORD	n/a	n/a	LEAF	12	7	[0, 0, 0]	n/a	FR1	0	R1292E
257767.164	0.0	2031497	WORD_OFF	n/a	n/a	LEAF	12	7	[0, 0, 0]	n/a	FR1	0	R1292E
257767.164	0.001	2031497	ENCODING_END	n/a	n/a	n/a	-999	7	[0, 0, 0]	n/a	FR1	0	R1292E
257767.165	0.0	2031498	DISTRACT_START	n/a	n/a	n/a	-999	7	[0, 0, 0]	n/a	FR1	0	R1292E
257767.165	0.015	2031498	START	n/a	n/a	n/a	-999	7	[-999, -999, -999]	n/a	FR1	0	R1292E
257767.18	9.434	2031513	PROB	9.434	n/a	n/a	-999	7	[9, 1, 3]	13	FR1	0	R1292E
257776.614	7.252	2040947	PROB	7.252	n/a	n/a	-999	7	[3, 4, 7]	14	FR1	0	R1292E
257783.866	3.899	2048199	PROB	3.899	n/a	n/a	-999	7	[9, 4, 1]	14	FR1	0	R1292E
257787.765	0.018	2052097	STOP	n/a	n/a	n/a	-999	7	[-999, -999, -999]	n/a	FR1	0	R1292E
257787.783	0.548	2052115	DISTRACT_END	n/a	n/a	n/a	-999	7	[0, 0, 0]	n/a	FR1	0	R1292E
257788.331	1.62	2052663	RETRIEVAL_ORIENT_START	n/a	n/a	n/a	-999	7	[0, 0, 0]	n/a	FR1	0	R1292E
257789.951	0.0	2054283	RETRIEVAL_ORIENT_END	n/a	n/a	n/a	-999	7	[0, 0, 0]	n/a	FR1	0	R1292E
257789.951	1.236	2054283	REC_START	n/a	n/a	n/a	-999	7	[0, 0, 0]	n/a	FR1	0	R1292E
257791.187	1.216	2055519	REC_WORD	1.216	n/a	HEN	7	7	[0, 0, 0]	n/a	FR1	0	R1292E
257792.403	1.323	2056735	REC_WORD	1.323	n/a	WING	6	7	[0, 0, 0]	n/a	FR1	0	R1292E
257793.726	1.802	2058058	REC_WORD	1.802	n/a	FISH	10	7	[0, 0, 0]	n/a	FR1	0	R1292E
257795.528	24.435	2059860	REC_WORD	24.435	n/a	DOCK	2	7	[0, 0, 0]	n/a	FR1	0	R1292E
257819.963	0.0	2084294	REC_END	n/a	n/a	n/a	-999	7	[0, 0, 0]	n/a	FR1	0	R1292E
257819.963	0.017	2084294	TRIAL_END	n/a	n/a	n/a	-999	7	[0, 0, 0]	n/a	FR1	0	R1292E
257819.98	0.001	2084311	TRIAL_START	n/a	n/a	n/a	-999	8	[0, 0, 0]	n/a	FR1	0	R1292E
257819.981	0.0	2084312	TRIAL	n/a	n/a	n/a	-999	8	[0, 0, 0]	n/a	FR1	0	R1292E
257819.981	5.01	2084312	WAITING_START	n/a	n/a	n/a	-999	8	[0, 0, 0]	n/a	FR1	0	R1292E
257824.991	0.0	2089322	WAITING_END	n/a	n/a	n/a	-999	8	[0, 0, 0]	n/a	FR1	0	R1292E
257824.991	10.429	2089322	COUNTDOWN_START	n/a	n/a	n/a	-999	8	[0, 0, 0]	n/a	FR1	0	R1292E
257835.42	0.0	2099751	ORIENT_START	n/a	n/a	n/a	-999	8	[0, 0, 0]	n/a	FR1	0	R1292E
257835.42	1.105	2099751	COUNTDOWN_END	n/a	n/a	n/a	-999	8	[0, 0, 0]	n/a	FR1	0	R1292E
257836.525	0.0	2100856	ORIENT_END	n/a	n/a	n/a	-999	8	[0, 0, 0]	n/a	FR1	0	R1292E
257836.525	1.147	2100856	ENCODING_START	n/a	n/a	n/a	-999	8	[0, 0, 0]	n/a	FR1	0	R1292E
257837.672	1.638	2102003	WORD	n/a	n/a	ROAD	1	8	[0, 0, 0]	n/a	FR1	0	R1292E
257839.31	0.985	2103641	WORD_OFF	n/a	n/a	ROAD	1	8	[0, 0, 0]	n/a	FR1	0	R1292E
257840.295	1.632	2104626	WORD	n/a	n/a	FOOT	2	8	[0, 0, 0]	n/a	FR1	0	R1292E
257841.927	1.079	2106258	WORD_OFF	n/a	n/a	FOOT	2	8	[0, 0, 0]	n/a	FR1	0	R1292E
257843.006	1.62	2107337	WORD	n/a	n/a	DIME	3	8	[0, 0, 0]	n/a	FR1	0	R1292E
257844.626	0.792	2108956	WORD_OFF	n/a	n/a	DIME	3	8	[0, 0, 0]	n/a	FR1	0	R1292E
257845.418	1.627	2109748	WORD	n/a	n/a	FAN	4	8	[0, 0, 0]	n/a	FR1	0	R1292E
257847.045	0.882	2111375	WORD_OFF	n/a	n/a	FAN	4	8	[0, 0, 0]	n/a	FR1	0	R1292E
257847.927	1.634	2112257	WORD	n/a	n/a	SHEEP	5	8	[0, 0, 0]	n/a	FR1	0	R1292E
257849.561	1.001	2113891	WORD_OFF	n/a	n/a	SHEEP	5	8	[0, 0, 0]	n/a	FR1	0	R1292E
257850.562	1.617	2114892	WORD	n/a	n/a	SPEAR	6	8	[0, 0, 0]	n/a	FR1	0	R1292E
257852.179	1.137	2116509	WORD_OFF	n/a	n/a	SPEAR	6	8	[0, 0, 0]	n/a	FR1	0	R1292E
257853.316	1.63	2117646	WORD	n/a	n/a	SPARK	7	8	[0, 0, 0]	n/a	FR1	0	R1292E
257854.946	0.806	2119276	WORD_OFF	n/a	n/a	SPARK	7	8	[0, 0, 0]	n/a	FR1	0	R1292E
257855.752	1.628	2120082	WORD	n/a	n/a	WOLF	8	8	[0, 0, 0]	n/a	FR1	0	R1292E
257857.38	0.991	2121710	WORD_OFF	n/a	n/a	WOLF	8	8	[0, 0, 0]	n/a	FR1	0	R1292E
257858.371	1.626	2122701	WORD	n/a	n/a	SLUSH	9	8	[0, 0, 0]	n/a	FR1	0	R1292E
257859.997	0.879	2124327	WORD_OFF	n/a	n/a	SLUSH	9	8	[0, 0, 0]	n/a	FR1	0	R1292E
257860.876	1.62	2125206	WORD	n/a	n/a	VASE	10	8	[0, 0, 0]	n/a	FR1	0	R1292E
257862.496	0.927	2126826	WORD_OFF	n/a	n/a	VASE	10	8	[0, 0, 0]	n/a	FR1	0	R1292E
257863.423	1.625	2127753	WORD	n/a	n/a	TEA	11	8	[0, 0, 0]	n/a	FR1	0	R1292E
257865.048	0.853	2129378	WORD_OFF	n/a	n/a	TEA	11	8	[0, 0, 0]	n/a	FR1	0	R1292E
257865.901	1.63	2130231	WORD	n/a	n/a	VEST	12	8	[0, 0, 0]	n/a	FR1	0	R1292E
257867.531	0.0	2131861	DISTRACT_START	n/a	n/a	n/a	-999	8	[0, 0, 0]	n/a	FR1	0	R1292E
257867.531	0.0	2131861	ENCODING_END	n/a	n/a	n/a	-999	8	[0, 0, 0]	n/a	FR1	0	R1292E
257867.531	0.0	2131861	WORD_OFF	n/a	n/a	VEST	12	8	[0, 0, 0]	n/a	FR1	0	R1292E
257867.531	0.016	2131861	START	n/a	n/a	n/a	-999	8	[-999, -999, -999]	n/a	FR1	0	R1292E
257867.547	10.168	2131877	PROB	10.168	n/a	n/a	-999	8	[4, 8, 1]	13	FR1	0	R1292E
257877.715	8.353	2142044	PROB	8.353	n/a	n/a	-999	8	[2, 2, 9]	13	FR1	0	R1292E
257886.068	9.428	2150397	PROB	9.428	n/a	n/a	-999	8	[4, 9, 6]	19	FR1	0	R1292E
257895.496	0.006	2159825	STOP	n/a	n/a	n/a	-999	8	[-999, -999, -999]	n/a	FR1	0	R1292E
257895.502	0.523	2159831	DISTRACT_END	n/a	n/a	n/a	-999	8	[0, 0, 0]	n/a	FR1	0	R1292E
257896.025	1.661	2160354	RETRIEVAL_ORIENT_START	n/a	n/a	n/a	-999	8	[0, 0, 0]	n/a	FR1	0	R1292E
257897.686	0.0	2162015	RETRIEVAL_ORIENT_END	n/a	n/a	n/a	-999	8	[0, 0, 0]	n/a	FR1	0	R1292E
257897.686	2.133	2162015	REC_START	n/a	n/a	n/a	-999	8	[0, 0, 0]	n/a	FR1	0	R1292E
257899.819	0.82	2164148	REC_WORD	0.82	n/a	VEST	12	8	[0, 0, 0]	n/a	FR1	0	R1292E
257900.639	27.057	2164967	REC_WORD	27.057	n/a	SPARK	7	8	[0, 0, 0]	n/a	FR1	0	R1292E
257927.696	0.0	2192024	REC_END	n/a	n/a	n/a	-999	8	[0, 0, 0]	n/a	FR1	0	R1292E
257927.696	0.018	2192024	TRIAL_END	n/a	n/a	n/a	-999	8	[0, 0, 0]	n/a	FR1	0	R1292E
257927.714	0.0	2192042	TRIAL_START	n/a	n/a	n/a	-999	9	[0, 0, 0]	n/a	FR1	0	R1292E
257927.714	0.001	2192042	TRIAL	n/a	n/a	n/a	-999	9	[0, 0, 0]	n/a	FR1	0	R1292E
257927.715	99.545	2192043	WAITING_START	n/a	n/a	n/a	-999	9	[0, 0, 0]	n/a	FR1	0	R1292E
258027.26	0.0	2291584	WAITING_END	n/a	n/a	n/a	-999	9	[0, 0, 0]	n/a	FR1	0	R1292E
258027.26	10.429	2291584	COUNTDOWN_START	n/a	n/a	n/a	-999	9	[0, 0, 0]	n/a	FR1	0	R1292E
258037.689	0.0	2302013	COUNTDOWN_END	n/a	n/a	n/a	-999	9	[0, 0, 0]	n/a	FR1	0	R1292E
258037.689	1.239	2302013	ORIENT_START	n/a	n/a	n/a	-999	9	[0, 0, 0]	n/a	FR1	0	R1292E
258038.928	0.0	2303252	ENCODING_START	n/a	n/a	n/a	-999	9	[0, 0, 0]	n/a	FR1	0	R1292E
258038.928	0.877	2303252	ORIENT_END	n/a	n/a	n/a	-999	9	[0, 0, 0]	n/a	FR1	0	R1292E
258039.805	1.624	2304129	WORD	n/a	n/a	FOAM	1	9	[0, 0, 0]	n/a	FR1	0	R1292E
258041.429	1.063	2305753	WORD_OFF	n/a	n/a	FOAM	1	9	[0, 0, 0]	n/a	FR1	0	R1292E
258042.492	1.637	2306815	WORD	n/a	n/a	HILL	2	9	[0, 0, 0]	n/a	FR1	0	R1292E
258044.129	1.014	2308452	WORD_OFF	n/a	n/a	HILL	2	9	[0, 0, 0]	n/a	FR1	0	R1292E
258045.143	1.635	2309466	WORD	n/a	n/a	PLANT	3	9	[0, 0, 0]	n/a	FR1	0	R1292E
258046.778	1.054	2311101	WORD_OFF	n/a	n/a	PLANT	3	9	[0, 0, 0]	n/a	FR1	0	R1292E
258047.832	1.63	2312155	WORD	n/a	n/a	SKI	4	9	[0, 0, 0]	n/a	FR1	0	R1292E
258049.462	1.037	2313785	WORD_OFF	n/a	n/a	SKI	4	9	[0, 0, 0]	n/a	FR1	0	R1292E
258050.499	1.631	2314822	WORD	n/a	n/a	CUBE	5	9	[0, 0, 0]	n/a	FR1	0	R1292E
258052.13	0.953	2316453	WORD_OFF	n/a	n/a	CUBE	5	9	[0, 0, 0]	n/a	FR1	0	R1292E
258053.083	1.63	2317406	WORD	n/a	n/a	SUN	6	9	[0, 0, 0]	n/a	FR1	0	R1292E
258054.713	0.847	2319036	WORD_OFF	n/a	n/a	SUN	6	9	[0, 0, 0]	n/a	FR1	0	R1292E
258055.56	1.604	2319883	WORD	n/a	n/a	BALL	7	9	[0, 0, 0]	n/a	FR1	0	R1292E
258057.164	0.9	2321487	WORD_OFF	n/a	n/a	BALL	7	9	[0, 0, 0]	n/a	FR1	0	R1292E
258058.064	1.634	2322387	WORD	n/a	n/a	LIP	8	9	[0, 0, 0]	n/a	FR1	0	R1292E
258059.698	0.781	2324021	WORD_OFF	n/a	n/a	LIP	8	9	[0, 0, 0]	n/a	FR1	0	R1292E
258060.479	1.62	2324802	WORD	n/a	n/a	SHOE	9	9	[0, 0, 0]	n/a	FR1	0	R1292E
258062.099	0.952	2326422	WORD_OFF	n/a	n/a	SHOE	9	9	[0, 0, 0]	n/a	FR1	0	R1292E
258063.051	1.631	2327374	WORD	n/a	n/a	LAKE	10	9	[0, 0, 0]	n/a	FR1	0	R1292E
258064.682	1.128	2329005	WORD_OFF	n/a	n/a	LAKE	10	9	[0, 0, 0]	n/a	FR1	0	R1292E
258065.81	1.623	2330133	WORD	n/a	n/a	FACE	11	9	[0, 0, 0]	n/a	FR1	0	R1292E
258067.433	0.922	2331756	WORD_OFF	n/a	n/a	FACE	11	9	[0, 0, 0]	n/a	FR1	0	R1292E
258068.355	1.629	2332678	WORD	n/a	n/a	CHAIR	12	9	[0, 0, 0]	n/a	FR1	0	R1292E
258069.984	0.0	2334307	WORD_OFF	n/a	n/a	CHAIR	12	9	[0, 0, 0]	n/a	FR1	0	R1292E
258069.984	0.0	2334307	ENCODING_END	n/a	n/a	n/a	-999	9	[0, 0, 0]	n/a	FR1	0	R1292E
258069.984	0.0	2334307	DISTRACT_START	n/a	n/a	n/a	-999	9	[0, 0, 0]	n/a	FR1	0	R1292E
258069.984	0.016	2334307	START	n/a	n/a	n/a	-999	9	[-999, -999, -999]	n/a	FR1	0	R1292E
258070.0	9.335	2334323	PROB	9.335	n/a	n/a	-999	9	[7, 1, 9]	17	FR1	0	R1292E
258079.335	4.984	2343657	PROB	4.984	n/a	n/a	-999	9	[7, 5, 3]	15	FR1	0	R1292E
258084.319	5.698	2348641	PROB	5.698	n/a	n/a	-999	9	[3, 9, 7]	18	FR1	0	R1292E
258090.017	0.02	2354339	STOP	n/a	n/a	n/a	-999	9	[-999, -999, -999]	n/a	FR1	0	R1292E
258090.037	0.539	2354359	DISTRACT_END	n/a	n/a	n/a	-999	9	[0, 0, 0]	n/a	FR1	0	R1292E
258090.576	1.678	2354898	RETRIEVAL_ORIENT_START	n/a	n/a	n/a	-999	9	[0, 0, 0]	n/a	FR1	0	R1292E
258092.254	0.0	2356576	RETRIEVAL_ORIENT_END	n/a	n/a	n/a	-999	9	[0, 0, 0]	n/a	FR1	0	R1292E
258092.254	1.764	2356576	REC_START	n/a	n/a	n/a	-999	9	[0, 0, 0]	n/a	FR1	0	R1292E
258094.018	0.546	2358340	REC_WORD	0.546	n/a	HILL	2	9	[0, 0, 0]	n/a	FR1	0	R1292E
258094.564	1.037	2358886	REC_WORD	1.037	n/a	SKI	4	9	[0, 0, 0]	n/a	FR1	0	R1292E
258095.601	0.894	2359923	REC_WORD	0.894	n/a	FOAM	1	9	[0, 0, 0]	n/a	FR1	0	R1292E
258096.495	3.198	2360817	REC_WORD	3.198	n/a	FACE	11	9	[0, 0, 0]	n/a	FR1	0	R1292E
258099.693	6.046	2364014	REC_WORD	6.046	n/a	BALL	7	9	[0, 0, 0]	n/a	FR1	0	R1292E
258105.739	16.526	2370060	REC_WORD	16.526	n/a	SUN	6	9	[0, 0, 0]	n/a	FR1	0	R1292E
258122.265	0.0	2386586	TRIAL_END	n/a	n/a	n/a	-999	9	[0, 0, 0]	n/a	FR1	0	R1292E
258122.265	0.02	2386586	REC_END	n/a	n/a	n/a	-999	9	[0, 0, 0]	n/a	FR1	0	R1292E
258122.285	0.001	2386606	TRIAL_START	n/a	n/a	n/a	-999	10	[0, 0, 0]	n/a	FR1	0	R1292E
258122.286	0.0	2386607	TRIAL	n/a	n/a	n/a	-999	10	[0, 0, 0]	n/a	FR1	0	R1292E
258122.286	3.657	2386607	WAITING_START	n/a	n/a	n/a	-999	10	[0, 0, 0]	n/a	FR1	0	R1292E
258125.943	0.001	2390264	WAITING_END	n/a	n/a	n/a	-999	10	[0, 0, 0]	n/a	FR1	0	R1292E
258125.944	10.429	2390265	COUNTDOWN_START	n/a	n/a	n/a	-999	10	[0, 0, 0]	n/a	FR1	0	R1292E
258136.373	0.001	2400693	COUNTDOWN_END	n/a	n/a	n/a	-999	10	[0, 0, 0]	n/a	FR1	0	R1292E
258136.374	1.104	2400694	ORIENT_START	n/a	n/a	n/a	-999	10	[0, 0, 0]	n/a	FR1	0	R1292E
258137.478	0.0	2401798	ENCODING_START	n/a	n/a	n/a	-999	10	[0, 0, 0]	n/a	FR1	0	R1292E
258137.478	0.898	2401798	ORIENT_END	n/a	n/a	n/a	-999	10	[0, 0, 0]	n/a	FR1	0	R1292E
258138.376	1.637	2402696	WORD	n/a	n/a	DOLL	1	10	[0, 0, 0]	n/a	FR1	0	R1292E
258140.013	0.882	2404333	WORD_OFF	n/a	n/a	DOLL	1	10	[0, 0, 0]	n/a	FR1	0	R1292E
258140.895	1.634	2405215	WORD	n/a	n/a	LAMB	2	10	[0, 0, 0]	n/a	FR1	0	R1292E
258142.529	1.035	2406849	WORD_OFF	n/a	n/a	LAMB	2	10	[0, 0, 0]	n/a	FR1	0	R1292E
258143.564	1.633	2407884	WORD	n/a	n/a	RIB	3	10	[0, 0, 0]	n/a	FR1	0	R1292E
258145.197	1.087	2409517	WORD_OFF	n/a	n/a	RIB	3	10	[0, 0, 0]	n/a	FR1	0	R1292E
258146.284	1.63	2410604	WORD	n/a	n/a	BAND	4	10	[0, 0, 0]	n/a	FR1	0	R1292E
258147.914	0.923	2412234	WORD_OFF	n/a	n/a	BAND	4	10	[0, 0, 0]	n/a	FR1	0	R1292E
258148.837	1.611	2413157	WORD	n/a	n/a	HOOF	5	10	[0, 0, 0]	n/a	FR1	0	R1292E
258150.448	1.052	2414768	WORD_OFF	n/a	n/a	HOOF	5	10	[0, 0, 0]	n/a	FR1	0	R1292E
258151.5	1.631	2415820	WORD	n/a	n/a	OAR	6	10	[0, 0, 0]	n/a	FR1	0	R1292E
258153.131	0.836	2417451	WORD_OFF	n/a	n/a	OAR	6	10	[0, 0, 0]	n/a	FR1	0	R1292E
258153.967	1.631	2418287	WORD	n/a	n/a	BRICK	7	10	[0, 0, 0]	n/a	FR1	0	R1292E
258155.598	1.121	2419918	WORD_OFF	n/a	n/a	BRICK	7	10	[0, 0, 0]	n/a	FR1	0	R1292E
258156.719	1.63	2421038	WORD	n/a	n/a	JUICE	8	10	[0, 0, 0]	n/a	FR1	0	R1292E
258158.349	0.821	2422668	WORD_OFF	n/a	n/a	JUICE	8	10	[0, 0, 0]	n/a	FR1	0	R1292E
258159.17	1.628	2423489	WORD	n/a	n/a	WHEEL	9	10	[0, 0, 0]	n/a	FR1	0	R1292E
258160.798	1.096	2425117	WORD_OFF	n/a	n/a	WHEEL	9	10	[0, 0, 0]	n/a	FR1	0	R1292E
258161.894	1.622	2426213	WORD	n/a	n/a	CAT	10	10	[0, 0, 0]	n/a	FR1	0	R1292E
258163.516	1.108	2427835	WORD_OFF	n/a	n/a	CAT	10	10	[0, 0, 0]	n/a	FR1	0	R1292E
258164.624	1.61	2428943	WORD	n/a	n/a	CLIFF	11	10	[0, 0, 0]	n/a	FR1	0	R1292E
258166.234	0.995	2430553	WORD_OFF	n/a	n/a	CLIFF	11	10	[0, 0, 0]	n/a	FR1	0	R1292E
258167.229	1.621	2431548	WORD	n/a	n/a	RUG	12	10	[0, 0, 0]	n/a	FR1	0	R1292E
258168.85	0.0	2433169	WORD_OFF	n/a	n/a	RUG	12	10	[0, 0, 0]	n/a	FR1	0	R1292E
258168.85	0.001	2433169	ENCODING_END	n/a	n/a	n/a	-999	10	[0, 0, 0]	n/a	FR1	0	R1292E
258168.851	0.0	2433170	DISTRACT_START	n/a	n/a	n/a	-999	10	[0, 0, 0]	n/a	FR1	0	R1292E
258168.851	0.015	2433170	START	n/a	n/a	n/a	-999	10	[-999, -999, -999]	n/a	FR1	0	R1292E
258168.866	5.136	2433185	PROB	5.136	n/a	n/a	-999	10	[4, 6, 4]	14	FR1	0	R1292E
258174.002	3.483	2438321	PROB	3.483	n/a	n/a	-999	10	[1, 7, 7]	15	FR1	0	R1292E
258177.485	4.367	2441804	PROB	4.367	n/a	n/a	-999	10	[1, 6, 3]	10	FR1	0	R1292E
258181.852	16.874	2446171	PROB	16.874	n/a	n/a	-999	10	[8, 7, 6]	21	FR1	0	R1292E
258198.726	0.012	2463044	STOP	n/a	n/a	n/a	-999	10	[-999, -999, -999]	n/a	FR1	0	R1292E
258198.738	0.664	2463056	DISTRACT_END	n/a	n/a	n/a	-999	10	[0, 0, 0]	n/a	FR1	0	R1292E
258199.402	1.538	2463720	RETRIEVAL_ORIENT_START	n/a	n/a	n/a	-999	10	[0, 0, 0]	n/a	FR1	0	R1292E
258200.94	0.0	2465258	RETRIEVAL_ORIENT_END	n/a	n/a	n/a	-999	10	[0, 0, 0]	n/a	FR1	0	R1292E
258200.94	2.949	2465258	REC_START	n/a	n/a	n/a	-999	10	[0, 0, 0]	n/a	FR1	0	R1292E
258203.889	0.964	2468207	REC_WORD	0.964	n/a	LAMB	2	10	[0, 0, 0]	n/a	FR1	0	R1292E
258204.853	4.949	2469171	REC_WORD	4.949	n/a	RIB	3	10	[0, 0, 0]	n/a	FR1	0	R1292E
258209.802	8.461	2474120	REC_WORD	8.461	n/a	FACE	-999	10	[0, 0, 0]	n/a	FR1	0	R1292E
258218.263	12.688	2482580	REC_WORD	12.688	n/a	PHONE	-999	10	[0, 0, 0]	n/a	FR1	0	R1292E
258230.951	0.001	2495268	REC_END	n/a	n/a	n/a	-999	10	[0, 0, 0]	n/a	FR1	0	R1292E
258230.952	0.017	2495269	TRIAL_END	n/a	n/a	n/a	-999	10	[0, 0, 0]	n/a	FR1	0	R1292E
258230.969	0.001	2495286	TRIAL_START	n/a	n/a	n/a	-999	11	[0, 0, 0]	n/a	FR1	0	R1292E
258230.97	0.0	2495287	TRIAL	n/a	n/a	n/a	-999	11	[0, 0, 0]	n/a	FR1	0	R1292E
258230.97	4.825	2495287	WAITING_START	n/a	n/a	n/a	-999	11	[0, 0, 0]	n/a	FR1	0	R1292E
258235.795	0.0	2500112	WAITING_END	n/a	n/a	n/a	-999	11	[0, 0, 0]	n/a	FR1	0	R1292E
258235.795	10.429	2500112	COUNTDOWN_START	n/a	n/a	n/a	-999	11	[0, 0, 0]	n/a	FR1	0	R1292E
258246.224	0.001	2510540	COUNTDOWN_END	n/a	n/a	n/a	-999	11	[0, 0, 0]	n/a	FR1	0	R1292E
258246.225	1.223	2510541	ORIENT_START	n/a	n/a	n/a	-999	11	[0, 0, 0]	n/a	FR1	0	R1292E
258247.448	0.0	2511764	ORIENT_END	n/a	n/a	n/a	-999	11	[0, 0, 0]	n/a	FR1	0	R1292E
258247.448	0.902	2511764	ENCODING_START	n/a	n/a	n/a	-999	11	[0, 0, 0]	n/a	FR1	0	R1292E
258248.35	1.632	2512666	WORD	n/a	n/a	TOE	1	11	[0, 0, 0]	n/a	FR1	0	R1292E
258249.982	0.897	2514298	WORD_OFF	n/a	n/a	TOE	1	11	[0, 0, 0]	n/a	FR1	0	R1292E
258250.879	1.636	2515195	WORD	n/a	n/a	MILK	2	11	[0, 0, 0]	n/a	FR1	0	R1292E
258252.515	0.993	2516831	WORD_OFF	n/a	n/a	MILK	2	11	[0, 0, 0]	n/a	FR1	0	R1292E
258253.508	1.625	2517824	WORD	n/a	n/a	LAND	3	11	[0, 0, 0]	n/a	FR1	0	R1292E
258255.133	0.81	2519449	WORD_OFF	n/a	n/a	LAND	3	11	[0, 0, 0]	n/a	FR1	0	R1292E
258255.943	1.622	2520259	WORD	n/a	n/a	MUG	4	11	[0, 0, 0]	n/a	FR1	0	R1292E
258257.565	0.984	2521881	WORD_OFF	n/a	n/a	MUG	4	11	[0, 0, 0]	n/a	FR1	0	R1292E
258258.549	1.635	2522865	WORD	n/a	n/a	BEAK	5	11	[0, 0, 0]	n/a	FR1	0	R1292E
258260.184	0.75	2524500	WORD_OFF	n/a	n/a	BEAK	5	11	[0, 0, 0]	n/a	FR1	0	R1292E
258260.934	1.632	2525250	WORD	n/a	n/a	SHELL	6	11	[0, 0, 0]	n/a	FR1	0	R1292E
258262.566	1.093	2526882	WORD_OFF	n/a	n/a	SHELL	6	11	[0, 0, 0]	n/a	FR1	0	R1292E
258263.659	1.609	2527975	WORD	n/a	n/a	HAND	7	11	[0, 0, 0]	n/a	FR1	0	R1292E
258265.268	1.118	2529584	WORD_OFF	n/a	n/a	HAND	7	11	[0, 0, 0]	n/a	FR1	0	R1292E
258266.386	1.632	2530702	WORD	n/a	n/a	WEED	8	11	[0, 0, 0]	n/a	FR1	0	R1292E
258268.018	1.028	2532334	WORD_OFF	n/a	n/a	WEED	8	11	[0, 0, 0]	n/a	FR1	0	R1292E
258269.046	1.622	2533362	WORD	n/a	n/a	GLASS	9	11	[0, 0, 0]	n/a	FR1	0	R1292E
258270.668	0.985	2534983	WORD_OFF	n/a	n/a	GLASS	9	11	[0, 0, 0]	n/a	FR1	0	R1292E
258271.653	1.616	2535968	WORD	n/a	n/a	WAVE	10	11	[0, 0, 0]	n/a	FR1	0	R1292E
258273.269	1.018	2537584	WORD_OFF	n/a	n/a	WAVE	10	11	[0, 0, 0]	n/a	FR1	0	R1292E
258274.287	1.633	2538602	WORD	n/a	n/a	DRUM	11	11	[0, 0, 0]	n/a	FR1	0	R1292E
258275.92	0.8	2540235	WORD_OFF	n/a	n/a	DRUM	11	11	[0, 0, 0]	n/a	FR1	0	R1292E
258276.72	1.633	2541035	WORD	n/a	n/a	SNAKE	12	11	[0, 0, 0]	n/a	FR1	0	R1292E
258278.353	0.001	2542668	WORD_OFF	n/a	n/a	SNAKE	12	11	[0, 0, 0]	n/a	FR1	0	R1292E
258278.354	0.0	2542669	ENCODING_END	n/a	n/a	n/a	-999	11	[0, 0, 0]	n/a	FR1	0	R1292E
258278.354	0.0	2542669	DISTRACT_START	n/a	n/a	n/a	-999	11	[0, 0, 0]	n/a	FR1	0	R1292E
258278.354	0.016	2542669	START	n/a	n/a	n/a	-999	11	[-999, -999, -999]	n/a	FR1	0	R1292E
258278.37	10.384	2542685	PROB	10.384	n/a	n/a	-999	11	[4, 3, 2]	9	FR1	0	R1292E
258288.754	7.068	2553069	PROB	7.068	n/a	n/a	-999	11	[3, 3, 9]	15	FR1	0	R1292E
258295.822	10.478	2560137	PROB	10.478	n/a	n/a	-999	11	[9, 9, 8]	26	FR1	0	R1292E
258306.3	0.008	2570614	STOP	n/a	n/a	n/a	-999	11	[-999, -999, -999]	n/a	FR1	0	R1292E
258306.308	0.557	2570622	DISTRACT_END	n/a	n/a	n/a	-999	11	[0, 0, 0]	n/a	FR1	0	R1292E
258306.865	1.544	2571179	RETRIEVAL_ORIENT_START	n/a	n/a	n/a	-999	11	[0, 0, 0]	n/a	FR1	0	R1292E
258308.409	0.0	2572723	RETRIEVAL_ORIENT_END	n/a	n/a	n/a	-999	11	[0, 0, 0]	n/a	FR1	0	R1292E
258308.409	3.1	2572723	REC_START	n/a	n/a	n/a	-999	11	[0, 0, 0]	n/a	FR1	0	R1292E
258311.509	1.387	2575823	REC_WORD	1.387	n/a	MILK	2	11	[0, 0, 0]	n/a	FR1	0	R1292E
258312.896	4.714	2577210	REC_WORD	4.714	n/a	MUG	4	11	[0, 0, 0]	n/a	FR1	0	R1292E
258317.61	20.808	2581924	REC_WORD	20.808	n/a	TOE	1	11	[0, 0, 0]	n/a	FR1	0	R1292E
258338.418	0.0	2602731	REC_END	n/a	n/a	n/a	-999	11	[0, 0, 0]	n/a	FR1	0	R1292E
258338.418	0.018	2602731	TRIAL_END	n/a	n/a	n/a	-999	11	[0, 0, 0]	n/a	FR1	0	R1292E
258338.436	0.0	2602749	TRIAL	n/a	n/a	n/a	-999	12	[0, 0, 0]	n/a	FR1	0	R1292E
258338.436	0.0	2602749	WAITING_START	n/a	n/a	n/a	-999	12	[0, 0, 0]	n/a	FR1	0	R1292E
258338.436	3.562	2602749	TRIAL_START	n/a	n/a	n/a	-999	12	[0, 0, 0]	n/a	FR1	0	R1292E
258341.998	0.0	2606311	WAITING_END	n/a	n/a	n/a	-999	12	[0, 0, 0]	n/a	FR1	0	R1292E
258341.998	10.429	2606311	COUNTDOWN_START	n/a	n/a	n/a	-999	12	[0, 0, 0]	n/a	FR1	0	R1292E
258352.427	0.0	2616740	COUNTDOWN_END	n/a	n/a	n/a	-999	12	[0, 0, 0]	n/a	FR1	0	R1292E
258352.427	1.155	2616740	ORIENT_START	n/a	n/a	n/a	-999	12	[0, 0, 0]	n/a	FR1	0	R1292E
258353.582	0.001	2617895	ORIENT_END	n/a	n/a	n/a	-999	12	[0, 0, 0]	n/a	FR1	0	R1292E
258353.583	1.014	2617896	ENCODING_START	n/a	n/a	n/a	-999	12	[0, 0, 0]	n/a	FR1	0	R1292E
258354.597	1.637	2618910	WORD	n/a	n/a	MOUTH	1	12	[0, 0, 0]	n/a	FR1	0	R1292E
258356.234	0.822	2620546	WORD_OFF	n/a	n/a	MOUTH	1	12	[0, 0, 0]	n/a	FR1	0	R1292E
258357.056	1.627	2621368	WORD	n/a	n/a	SKY	2	12	[0, 0, 0]	n/a	FR1	0	R1292E
258358.683	1.064	2622995	WORD_OFF	n/a	n/a	SKY	2	12	[0, 0, 0]	n/a	FR1	0	R1292E
258359.747	1.638	2624059	WORD	n/a	n/a	SOCK	3	12	[0, 0, 0]	n/a	FR1	0	R1292E
258361.385	1.01	2625697	WORD_OFF	n/a	n/a	SOCK	3	12	[0, 0, 0]	n/a	FR1	0	R1292E
258362.395	1.623	2626707	WORD	n/a	n/a	CAVE	4	12	[0, 0, 0]	n/a	FR1	0	R1292E
258364.018	1.082	2628330	WORD_OFF	n/a	n/a	CAVE	4	12	[0, 0, 0]	n/a	FR1	0	R1292E
258365.1	1.635	2629412	WORD	n/a	n/a	HOOK	5	12	[0, 0, 0]	n/a	FR1	0	R1292E
258366.735	1.046	2631047	WORD_OFF	n/a	n/a	HOOK	5	12	[0, 0, 0]	n/a	FR1	0	R1292E
258367.781	1.605	2632093	WORD	n/a	n/a	DEER	6	12	[0, 0, 0]	n/a	FR1	0	R1292E
258369.386	0.84	2633698	WORD_OFF	n/a	n/a	DEER	6	12	[0, 0, 0]	n/a	FR1	0	R1292E
258370.226	1.626	2634538	WORD	n/a	n/a	BEAR	7	12	[0, 0, 0]	n/a	FR1	0	R1292E
258371.852	0.943	2636164	WORD_OFF	n/a	n/a	BEAR	7	12	[0, 0, 0]	n/a	FR1	0	R1292E
258372.795	1.608	2637107	WORD	n/a	n/a	SPOON	8	12	[0, 0, 0]	n/a	FR1	0	R1292E
258374.403	1.096	2638715	WORD_OFF	n/a	n/a	SPOON	8	12	[0, 0, 0]	n/a	FR1	0	R1292E
258375.499	1.622	2639811	WORD	n/a	n/a	CART	9	12	[0, 0, 0]	n/a	FR1	0	R1292E
258377.121	1.126	2641433	WORD_OFF	n/a	n/a	CART	9	12	[0, 0, 0]	n/a	FR1	0	R1292E
258378.247	1.624	2642559	WORD	n/a	n/a	CROW	10	12	[0, 0, 0]	n/a	FR1	0	R1292E
258379.871	0.922	2644183	WORD_OFF	n/a	n/a	CROW	10	12	[0, 0, 0]	n/a	FR1	0	R1292E
258380.793	1.612	2645105	WORD	n/a	n/a	RAKE	11	12	[0, 0, 0]	n/a	FR1	0	R1292E
258382.405	0.796	2646717	WORD_OFF	n/a	n/a	RAKE	11	12	[0, 0, 0]	n/a	FR1	0	R1292E
258383.201	1.62	2647512	WORD	n/a	n/a	GOAT	12	12	[0, 0, 0]	n/a	FR1	0	R1292E
258384.821	0.0	2649132	WORD_OFF	n/a	n/a	GOAT	12	12	[0, 0, 0]	n/a	FR1	0	R1292E
258384.821	0.001	2649132	ENCODING_END	n/a	n/a	n/a	-999	12	[0, 0, 0]	n/a	FR1	0	R1292E
258384.822	0.0	2649133	DISTRACT_START	n/a	n/a	n/a	-999	12	[0, 0, 0]	n/a	FR1	0	R1292E
258384.822	0.016	2649133	START	n/a	n/a	n/a	-999	12	[-999, -999, -999]	n/a	FR1	0	R1292E
258384.838	4.268	2649149	PROB	4.268	n/a	n/a	-999	12	[1, 5, 6]	12	FR1	0	R1292E
258389.106	8.985	2653417	PROB	8.985	n/a	n/a	-999	12	[3, 9, 8]	20	FR1	0	R1292E
258398.091	4.7	2662402	PROB	4.7	n/a	n/a	-999	12	[4, 9, 9]	22	FR1	0	R1292E
258402.791	4.406	2667102	PROB	4.406	n/a	n/a	-999	12	[3, 5, 8]	16	FR1	0	R1292E
258407.197	0.012	2671508	STOP	n/a	n/a	n/a	-999	12	[-999, -999, -999]	n/a	FR1	0	R1292E
258407.209	0.564	2671520	DISTRACT_END	n/a	n/a	n/a	-999	12	[0, 0, 0]	n/a	FR1	0	R1292E
258407.773	1.702	2672084	RETRIEVAL_ORIENT_START	n/a	n/a	n/a	-999	12	[0, 0, 0]	n/a	FR1	0	R1292E
258409.475	0.001	2673786	RETRIEVAL_ORIENT_END	n/a	n/a	n/a	-999	12	[0, 0, 0]	n/a	FR1	0	R1292E
258409.476	5.406	2673787	REC_START	n/a	n/a	n/a	-999	12	[0, 0, 0]	n/a	FR1	0	R1292E
258414.882	0.913	2679192	REC_WORD	0.913	n/a	MOUTH	1	12	[0, 0, 0]	n/a	FR1	0	R1292E
258415.795	15.862	2680105	REC_WORD	15.862	n/a	SKY	2	12	[0, 0, 0]	n/a	FR1	0	R1292E
258431.657	7.829	2695967	REC_WORD	7.829	n/a	SOCK	3	12	[0, 0, 0]	n/a	FR1	0	R1292E
258439.486	0.0	2703796	REC_END	n/a	n/a	n/a	-999	12	[0, 0, 0]	n/a	FR1	0	R1292E
258439.486	0.018	2703796	TRIAL_END	n/a	n/a	n/a	-999	12	[0, 0, 0]	n/a	FR1	0	R1292E
258439.504	0.0	2703814	TRIAL_START	n/a	n/a	n/a	-999	13	[0, 0, 0]	n/a	FR1	0	R1292E
258439.504	0.0	2703814	TRIAL	n/a	n/a	n/a	-999	13	[0, 0, 0]	n/a	FR1	0	R1292E
258439.504	3.077	2703814	WAITING_START	n/a	n/a	n/a	-999	13	[0, 0, 0]	n/a	FR1	0	R1292E
258442.581	0.001	2706890	WAITING_END	n/a	n/a	n/a	-999	13	[0, 0, 0]	n/a	FR1	0	R1292E
258442.582	10.429	2706891	COUNTDOWN_START	n/a	n/a	n/a	-999	13	[0, 0, 0]	n/a	FR1	0	R1292E
258453.011	0.0	2717320	COUNTDOWN_END	n/a	n/a	n/a	-999	13	[0, 0, 0]	n/a	FR1	0	R1292E
258453.011	1.14	2717320	ORIENT_START	n/a	n/a	n/a	-999	13	[0, 0, 0]	n/a	FR1	0	R1292E
258454.151	0.0	2718460	ORIENT_END	n/a	n/a	n/a	-999	13	[0, 0, 0]	n/a	FR1	0	R1292E
258454.151	0.782	2718460	ENCODING_START	n/a	n/a	n/a	-999	13	[0, 0, 0]	n/a	FR1	0	R1292E
258454.933	1.634	2719242	WORD	n/a	n/a	RAIN	1	13	[0, 0, 0]	n/a	FR1	0	R1292E
258456.567	1.031	2720876	WORD_OFF	n/a	n/a	RAIN	1	13	[0, 0, 0]	n/a	FR1	0	R1292E
258457.598	1.637	2721907	WORD	n/a	n/a	MAZE	2	13	[0, 0, 0]	n/a	FR1	0	R1292E
258459.235	0.821	2723544	WORD_OFF	n/a	n/a	MAZE	2	13	[0, 0, 0]	n/a	FR1	0	R1292E
258460.056	1.629	2724365	WORD	n/a	n/a	FUDGE	3	13	[0, 0, 0]	n/a	FR1	0	R1292E
258461.685	0.931	2725994	WORD_OFF	n/a	n/a	FUDGE	3	13	[0, 0, 0]	n/a	FR1	0	R1292E
258462.616	1.62	2726925	WORD	n/a	n/a	FILM	4	13	[0, 0, 0]	n/a	FR1	0	R1292E
258464.236	0.94	2728545	WORD_OFF	n/a	n/a	FILM	4	13	[0, 0, 0]	n/a	FR1	0	R1292E
258465.176	1.626	2729485	WORD	n/a	n/a	BOMB	5	13	[0, 0, 0]	n/a	FR1	0	R1292E
258466.802	1.041	2731111	WORD_OFF	n/a	n/a	BOMB	5	13	[0, 0, 0]	n/a	FR1	0	R1292E
258467.843	1.626	2732152	WORD	n/a	n/a	WEB	6	13	[0, 0, 0]	n/a	FR1	0	R1292E
258469.469	1.063	2733777	WORD_OFF	n/a	n/a	WEB	6	13	[0, 0, 0]	n/a	FR1	0	R1292E
258470.532	1.622	2734840	WORD	n/a	n/a	SMILE	7	13	[0, 0, 0]	n/a	FR1	0	R1292E
258472.154	1.141	2736462	WORD_OFF	n/a	n/a	SMILE	7	13	[0, 0, 0]	n/a	FR1	0	R1292E
258473.295	1.626	2737603	WORD	n/a	n/a	FLAG	8	13	[0, 0, 0]	n/a	FR1	0	R1292E
258474.921	1.076	2739229	WORD_OFF	n/a	n/a	FLAG	8	13	[0, 0, 0]	n/a	FR1	0	R1292E
258475.997	1.624	2740305	WORD	n/a	n/a	GRAPE	9	13	[0, 0, 0]	n/a	FR1	0	R1292E
258477.621	1.107	2741929	WORD_OFF	n/a	n/a	GRAPE	9	13	[0, 0, 0]	n/a	FR1	0	R1292E
258478.728	1.611	2743036	WORD	n/a	n/a	BEAN	10	13	[0, 0, 0]	n/a	FR1	0	R1292E
258480.339	0.974	2744647	WORD_OFF	n/a	n/a	BEAN	10	13	[0, 0, 0]	n/a	FR1	0	R1292E
258481.313	1.626	2745621	WORD	n/a	n/a	CHIN	11	13	[0, 0, 0]	n/a	FR1	0	R1292E
258482.939	0.886	2747247	WORD_OFF	n/a	n/a	CHIN	11	13	[0, 0, 0]	n/a	FR1	0	R1292E
258483.825	1.614	2748133	WORD	n/a	n/a	BOOK	12	13	[0, 0, 0]	n/a	FR1	0	R1292E
258485.439	0.001	2749747	WORD_OFF	n/a	n/a	BOOK	12	13	[0, 0, 0]	n/a	FR1	0	R1292E
258485.44	0.0	2749748	ENCODING_END	n/a	n/a	n/a	-999	13	[0, 0, 0]	n/a	FR1	0	R1292E
258485.44	0.0	2749748	DISTRACT_START	n/a	n/a	n/a	-999	13	[0, 0, 0]	n/a	FR1	0	R1292E
258485.44	0.016	2749748	START	n/a	n/a	n/a	-999	13	[-999, -999, -999]	n/a	FR1	0	R1292E
258485.456	12.401	2749764	PROB	12.401	n/a	n/a	-999	13	[4, 8, 9]	21	FR1	0	R1292E
258497.857	12.874	2762164	PROB	12.874	n/a	n/a	-999	13	[5, 7, 4]	16	FR1	0	R1292E
258510.731	0.012	2775038	STOP	n/a	n/a	n/a	-999	13	[-999, -999, -999]	n/a	FR1	0	R1292E
258510.743	0.615	2775050	DISTRACT_END	n/a	n/a	n/a	-999	13	[0, 0, 0]	n/a	FR1	0	R1292E
258511.358	1.637	2775665	RETRIEVAL_ORIENT_START	n/a	n/a	n/a	-999	13	[0, 0, 0]	n/a	FR1	0	R1292E
258512.995	0.0	2777302	RETRIEVAL_ORIENT_END	n/a	n/a	n/a	-999	13	[0, 0, 0]	n/a	FR1	0	R1292E
258512.995	3.549	2777302	REC_START	n/a	n/a	n/a	-999	13	[0, 0, 0]	n/a	FR1	0	R1292E
258516.544	1.193	2780851	REC_WORD	1.193	n/a	BOMB	5	13	[0, 0, 0]	n/a	FR1	0	R1292E
258517.737	25.267	2782044	REC_WORD	25.267	n/a	GRAPE	9	13	[0, 0, 0]	n/a	FR1	0	R1292E
258543.004	0.0	2807310	REC_END	n/a	n/a	n/a	-999	13	[0, 0, 0]	n/a	FR1	0	R1292E
258543.004	0.02	2807310	TRIAL_END	n/a	n/a	n/a	-999	13	[0, 0, 0]	n/a	FR1	0	R1292E
258543.024	0.001	2807330	TRIAL_START	n/a	n/a	n/a	-999	14	[0, 0, 0]	n/a	FR1	0	R1292E
258543.025	0.0	2807331	TRIAL	n/a	n/a	n/a	-999	14	[0, 0, 0]	n/a	FR1	0	R1292E
258543.025	132.431	2807331	WAITING_START	n/a	n/a	n/a	-999	14	[0, 0, 0]	n/a	FR1	0	R1292E
258675.456	0.001	2939757	WAITING_END	n/a	n/a	n/a	-999	14	[0, 0, 0]	n/a	FR1	0	R1292E
258675.457	10.429	2939758	COUNTDOWN_START	n/a	n/a	n/a	-999	14	[0, 0, 0]	n/a	FR1	0	R1292E
258685.886	0.001	2950187	COUNTDOWN_END	n/a	n/a	n/a	-999	14	[0, 0, 0]	n/a	FR1	0	R1292E
258685.887	1.021	2950188	ORIENT_START	n/a	n/a	n/a	-999	14	[0, 0, 0]	n/a	FR1	0	R1292E
258686.908	0.001	2951209	ORIENT_END	n/a	n/a	n/a	-999	14	[0, 0, 0]	n/a	FR1	0	R1292E
258686.909	0.95	2951210	ENCODING_START	n/a	n/a	n/a	-999	14	[0, 0, 0]	n/a	FR1	0	R1292E
258687.859	1.632	2952160	WORD	n/a	n/a	DESK	1	14	[0, 0, 0]	n/a	FR1	0	R1292E
258689.491	1.004	2953792	WORD_OFF	n/a	n/a	DESK	1	14	[0, 0, 0]	n/a	FR1	0	R1292E
258690.495	1.631	2954796	WORD	n/a	n/a	TOY	2	14	[0, 0, 0]	n/a	FR1	0	R1292E
258692.126	1.102	2956427	WORD_OFF	n/a	n/a	TOY	2	14	[0, 0, 0]	n/a	FR1	0	R1292E
258693.228	1.631	2957529	WORD	n/a	n/a	AXE	3	14	[0, 0, 0]	n/a	FR1	0	R1292E
258694.859	0.815	2959160	WORD_OFF	n/a	n/a	AXE	3	14	[0, 0, 0]	n/a	FR1	0	R1292E
258695.674	1.636	2959975	WORD	n/a	n/a	PEARL	4	14	[0, 0, 0]	n/a	FR1	0	R1292E
258697.31	1.065	2961610	WORD_OFF	n/a	n/a	PEARL	4	14	[0, 0, 0]	n/a	FR1	0	R1292E
258698.375	1.636	2962675	WORD	n/a	n/a	STRAW	5	14	[0, 0, 0]	n/a	FR1	0	R1292E
258700.011	0.755	2964311	WORD_OFF	n/a	n/a	STRAW	5	14	[0, 0, 0]	n/a	FR1	0	R1292E
258700.766	1.628	2965066	WORD	n/a	n/a	TRAY	6	14	[0, 0, 0]	n/a	FR1	0	R1292E
258702.394	0.823	2966694	WORD_OFF	n/a	n/a	TRAY	6	14	[0, 0, 0]	n/a	FR1	0	R1292E
258703.217	1.627	2967517	WORD	n/a	n/a	BARN	7	14	[0, 0, 0]	n/a	FR1	0	R1292E
258704.844	1.046	2969144	WORD_OFF	n/a	n/a	BARN	7	14	[0, 0, 0]	n/a	FR1	0	R1292E
258705.89	1.621	2970190	WORD	n/a	n/a	SWAMP	8	14	[0, 0, 0]	n/a	FR1	0	R1292E
258707.511	0.796	2971811	WORD_OFF	n/a	n/a	SWAMP	8	14	[0, 0, 0]	n/a	FR1	0	R1292E
258708.307	1.622	2972607	WORD	n/a	n/a	PET	9	14	[0, 0, 0]	n/a	FR1	0	R1292E
258709.929	1.114	2974229	WORD_OFF	n/a	n/a	PET	9	14	[0, 0, 0]	n/a	FR1	0	R1292E
258711.043	1.636	2975343	WORD	n/a	n/a	SALT	10	14	[0, 0, 0]	n/a	FR1	0	R1292E
258712.679	1.051	2976979	WORD_OFF	n/a	n/a	SALT	10	14	[0, 0, 0]	n/a	FR1	0	R1292E
258713.73	1.633	2978030	WORD	n/a	n/a	ICE	11	14	[0, 0, 0]	n/a	FR1	0	R1292E
258715.363	0.83	2979663	WORD_OFF	n/a	n/a	ICE	11	14	[0, 0, 0]	n/a	FR1	0	R1292E
258716.193	1.636	2980493	WORD	n/a	n/a	SHRIMP	12	14	[0, 0, 0]	n/a	FR1	0	R1292E
258717.829	0.001	2982129	WORD_OFF	n/a	n/a	SHRIMP	12	14	[0, 0, 0]	n/a	FR1	0	R1292E
258717.83	0.0	2982130	DISTRACT_START	n/a	n/a	n/a	-999	14	[0, 0, 0]	n/a	FR1	0	R1292E
258717.83	0.0	2982130	ENCODING_END	n/a	n/a	n/a	-999	14	[0, 0, 0]	n/a	FR1	0	R1292E
258717.83	0.016	2982130	START	n/a	n/a	n/a	-999	14	[-999, -999, -999]	n/a	FR1	0	R1292E
258717.846	27.457	2982146	PROB	27.457	n/a	n/a	-999	14	[9, 5, 8]	22	FR1	0	R1292E
258745.303	0.015	3009602	STOP	n/a	n/a	n/a	-999	14	[-999, -999, -999]	n/a	FR1	0	R1292E
258745.318	0.545	3009617	DISTRACT_END	n/a	n/a	n/a	-999	14	[0, 0, 0]	n/a	FR1	0	R1292E
258745.863	1.556	3010162	RETRIEVAL_ORIENT_START	n/a	n/a	n/a	-999	14	[0, 0, 0]	n/a	FR1	0	R1292E
258747.419	0.0	3011718	RETRIEVAL_ORIENT_END	n/a	n/a	n/a	-999	14	[0, 0, 0]	n/a	FR1	0	R1292E
258747.419	5.007	3011718	REC_START	n/a	n/a	n/a	-999	14	[0, 0, 0]	n/a	FR1	0	R1292E
258752.426	1.29	3016725	REC_WORD	1.29	n/a	TOY	2	14	[0, 0, 0]	n/a	FR1	0	R1292E
258753.716	23.714	3018014	REC_WORD	23.714	n/a	DESK	1	14	[0, 0, 0]	n/a	FR1	0	R1292E
258777.43	0.0	3041728	TRIAL_END	n/a	n/a	n/a	-999	14	[0, 0, 0]	n/a	FR1	0	R1292E
258777.43	0.018	3041728	REC_END	n/a	n/a	n/a	-999	14	[0, 0, 0]	n/a	FR1	0	R1292E
258777.448	0.0	3041746	WAITING_START	n/a	n/a	n/a	-999	15	[0, 0, 0]	n/a	FR1	0	R1292E
258777.448	0.0	3041746	TRIAL_START	n/a	n/a	n/a	-999	15	[0, 0, 0]	n/a	FR1	0	R1292E
258777.448	11.678	3041746	TRIAL	n/a	n/a	n/a	-999	15	[0, 0, 0]	n/a	FR1	0	R1292E
258789.126	0.001	3053423	WAITING_END	n/a	n/a	n/a	-999	15	[0, 0, 0]	n/a	FR1	0	R1292E
258789.127	10.429	3053424	COUNTDOWN_START	n/a	n/a	n/a	-999	15	[0, 0, 0]	n/a	FR1	0	R1292E
258799.556	0.0	3063853	COUNTDOWN_END	n/a	n/a	n/a	-999	15	[0, 0, 0]	n/a	FR1	0	R1292E
258799.556	1.121	3063853	ORIENT_START	n/a	n/a	n/a	-999	15	[0, 0, 0]	n/a	FR1	0	R1292E
258800.677	0.001	3064974	ORIENT_END	n/a	n/a	n/a	-999	15	[0, 0, 0]	n/a	FR1	0	R1292E
258800.678	0.865	3064975	ENCODING_START	n/a	n/a	n/a	-999	15	[0, 0, 0]	n/a	FR1	0	R1292E
258801.543	1.619	3065840	WORD	n/a	n/a	TRASH	1	15	[0, 0, 0]	n/a	FR1	0	R1292E
258803.162	0.922	3067459	WORD_OFF	n/a	n/a	TRASH	1	15	[0, 0, 0]	n/a	FR1	0	R1292E
258804.084	1.627	3068381	WORD	n/a	n/a	KEY	2	15	[0, 0, 0]	n/a	FR1	0	R1292E
258805.711	0.768	3070008	WORD_OFF	n/a	n/a	KEY	2	15	[0, 0, 0]	n/a	FR1	0	R1292E
258806.479	1.617	3070776	WORD	n/a	n/a	MAIL	3	15	[0, 0, 0]	n/a	FR1	0	R1292E
258808.096	0.961	3072393	WORD_OFF	n/a	n/a	MAIL	3	15	[0, 0, 0]	n/a	FR1	0	R1292E
258809.057	1.622	3073354	WORD	n/a	n/a	CAGE	4	15	[0, 0, 0]	n/a	FR1	0	R1292E
258810.679	1.131	3074975	WORD_OFF	n/a	n/a	CAGE	4	15	[0, 0, 0]	n/a	FR1	0	R1292E
258811.81	1.62	3076106	WORD	n/a	n/a	ROOF	5	15	[0, 0, 0]	n/a	FR1	0	R1292E
258813.43	0.755	3077726	WORD_OFF	n/a	n/a	ROOF	5	15	[0, 0, 0]	n/a	FR1	0	R1292E
258814.185	1.628	3078481	WORD	n/a	n/a	SEAL	6	15	[0, 0, 0]	n/a	FR1	0	R1292E
258815.813	0.867	3080109	WORD_OFF	n/a	n/a	SEAL	6	15	[0, 0, 0]	n/a	FR1	0	R1292E
258816.68	1.635	3080976	WORD	n/a	n/a	COIN	7	15	[0, 0, 0]	n/a	FR1	0	R1292E
258818.315	0.911	3082611	WORD_OFF	n/a	n/a	COIN	7	15	[0, 0, 0]	n/a	FR1	0	R1292E
258819.226	1.621	3083522	WORD	n/a	n/a	PALM	8	15	[0, 0, 0]	n/a	FR1	0	R1292E
258820.847	1.058	3085143	WORD_OFF	n/a	n/a	PALM	8	15	[0, 0, 0]	n/a	FR1	0	R1292E
258821.905	1.626	3086201	WORD	n/a	n/a	GUARD	9	15	[0, 0, 0]	n/a	FR1	0	R1292E
258823.531	0.844	3087827	WORD_OFF	n/a	n/a	GUARD	9	15	[0, 0, 0]	n/a	FR1	0	R1292E
258824.375	1.624	3088671	WORD	n/a	n/a	SHARK	10	15	[0, 0, 0]	n/a	FR1	0	R1292E
258825.999	0.826	3090295	WORD_OFF	n/a	n/a	SHARK	10	15	[0, 0, 0]	n/a	FR1	0	R1292E
258826.825	1.608	3091121	WORD	n/a	n/a	VINE	11	15	[0, 0, 0]	n/a	FR1	0	R1292E
258828.433	0.842	3092729	WORD_OFF	n/a	n/a	VINE	11	15	[0, 0, 0]	n/a	FR1	0	R1292E
258829.275	1.625	3093571	WORD	n/a	n/a	SUIT	12	15	[0, 0, 0]	n/a	FR1	0	R1292E
258830.9	0.001	3095196	WORD_OFF	n/a	n/a	SUIT	12	15	[0, 0, 0]	n/a	FR1	0	R1292E
258830.901	0.0	3095197	ENCODING_END	n/a	n/a	n/a	-999	15	[0, 0, 0]	n/a	FR1	0	R1292E
258830.901	0.0	3095197	DISTRACT_START	n/a	n/a	n/a	-999	15	[0, 0, 0]	n/a	FR1	0	R1292E
258830.901	0.016	3095197	START	n/a	n/a	n/a	-999	15	[-999, -999, -999]	n/a	FR1	0	R1292E
258830.917	6.384	3095213	PROB	6.384	n/a	n/a	-999	15	[1, 5, 2]	8	FR1	0	R1292E
258837.301	5.834	3101597	PROB	5.834	n/a	n/a	-999	15	[9, 9, 3]	21	FR1	0	R1292E
258843.135	5.068	3107430	PROB	5.068	n/a	n/a	-999	15	[1, 1, 4]	6	FR1	0	R1292E
258848.203	6.576	3112498	PROB	6.576	n/a	n/a	-999	15	[4, 7, 9]	19	FR1	0	R1292E
258854.779	0.008	3119074	STOP	n/a	n/a	n/a	-999	15	[-999, -999, -999]	n/a	FR1	0	R1292E
258854.787	0.535	3119082	DISTRACT_END	n/a	n/a	n/a	-999	15	[0, 0, 0]	n/a	FR1	0	R1292E
258855.322	1.599	3119617	RETRIEVAL_ORIENT_START	n/a	n/a	n/a	-999	15	[0, 0, 0]	n/a	FR1	0	R1292E
258856.921	0.001	3121216	RETRIEVAL_ORIENT_END	n/a	n/a	n/a	-999	15	[0, 0, 0]	n/a	FR1	0	R1292E
258856.922	2.942	3121217	REC_START	n/a	n/a	n/a	-999	15	[0, 0, 0]	n/a	FR1	0	R1292E
258859.864	0.923	3124159	REC_WORD	0.923	n/a	KEY	2	15	[0, 0, 0]	n/a	FR1	0	R1292E
258860.787	1.316	3125082	REC_WORD	1.316	n/a	MAIL	3	15	[0, 0, 0]	n/a	FR1	0	R1292E
258862.103	15.357	3126398	REC_WORD	15.357	n/a	TRASH	1	15	[0, 0, 0]	n/a	FR1	0	R1292E
258877.46	9.474	3141754	REC_WORD	9.474	n/a	VINE	11	15	[0, 0, 0]	n/a	FR1	0	R1292E
258886.934	0.0	3151228	REC_END	n/a	n/a	n/a	-999	15	[0, 0, 0]	n/a	FR1	0	R1292E
258886.934	0.017	3151228	TRIAL_END	n/a	n/a	n/a	-999	15	[0, 0, 0]	n/a	FR1	0	R1292E
258886.951	0.001	3151245	TRIAL_START	n/a	n/a	n/a	-999	16	[0, 0, 0]	n/a	FR1	0	R1292E
258886.952	0.0	3151246	WAITING_START	n/a	n/a	n/a	-999	16	[0, 0, 0]	n/a	FR1	0	R1292E
258886.952	95.757	3151246	TRIAL	n/a	n/a	n/a	-999	16	[0, 0, 0]	n/a	FR1	0	R1292E
258982.709	0.001	3246999	WAITING_END	n/a	n/a	n/a	-999	16	[0, 0, 0]	n/a	FR1	0	R1292E
258982.71	10.429	3247000	COUNTDOWN_START	n/a	n/a	n/a	-999	16	[0, 0, 0]	n/a	FR1	0	R1292E
258993.139	0.0	3257429	COUNTDOWN_END	n/a	n/a	n/a	-999	16	[0, 0, 0]	n/a	FR1	0	R1292E
258993.139	1.19	3257429	ORIENT_START	n/a	n/a	n/a	-999	16	[0, 0, 0]	n/a	FR1	0	R1292E
258994.329	0.0	3258619	ORIENT_END	n/a	n/a	n/a	-999	16	[0, 0, 0]	n/a	FR1	0	R1292E
258994.329	0.934	3258619	ENCODING_START	n/a	n/a	n/a	-999	16	[0, 0, 0]	n/a	FR1	0	R1292E
258995.263	1.633	3259553	WORD	n/a	n/a	EGG	1	16	[0, 0, 0]	n/a	FR1	0	R1292E
258996.896	0.95	3261186	WORD_OFF	n/a	n/a	EGG	1	16	[0, 0, 0]	n/a	FR1	0	R1292E
258997.846	1.633	3262136	WORD	n/a	n/a	MOLE	2	16	[0, 0, 0]	n/a	FR1	0	R1292E
258999.479	0.948	3263769	WORD_OFF	n/a	n/a	MOLE	2	16	[0, 0, 0]	n/a	FR1	0	R1292E
259000.427	1.637	3264717	WORD	n/a	n/a	WORM	3	16	[0, 0, 0]	n/a	FR1	0	R1292E
259002.064	0.922	3266354	WORD_OFF	n/a	n/a	WORM	3	16	[0, 0, 0]	n/a	FR1	0	R1292E
259002.986	1.627	3267276	WORD	n/a	n/a	TOAST	4	16	[0, 0, 0]	n/a	FR1	0	R1292E
259004.613	0.834	3268903	WORD_OFF	n/a	n/a	TOAST	4	16	[0, 0, 0]	n/a	FR1	0	R1292E
259005.447	1.634	3269737	WORD	n/a	n/a	ROCK	5	16	[0, 0, 0]	n/a	FR1	0	R1292E
259007.081	0.789	3271371	WORD_OFF	n/a	n/a	ROCK	5	16	[0, 0, 0]	n/a	FR1	0	R1292E
259007.87	1.627	3272160	WORD	n/a	n/a	MUD	6	16	[0, 0, 0]	n/a	FR1	0	R1292E
259009.497	0.826	3273786	WORD_OFF	n/a	n/a	MUD	6	16	[0, 0, 0]	n/a	FR1	0	R1292E
259010.323	1.625	3274612	WORD	n/a	n/a	TOOTH	7	16	[0, 0, 0]	n/a	FR1	0	R1292E
259011.948	1.022	3276237	WORD_OFF	n/a	n/a	TOOTH	7	16	[0, 0, 0]	n/a	FR1	0	R1292E
259012.97	1.628	3277259	WORD	n/a	n/a	STORM	8	16	[0, 0, 0]	n/a	FR1	0	R1292E
259014.598	1.03	3278887	WORD_OFF	n/a	n/a	STORM	8	16	[0, 0, 0]	n/a	FR1	0	R1292E
259015.628	1.621	3279917	WORD	n/a	n/a	STAR	9	16	[0, 0, 0]	n/a	FR1	0	R1292E
259017.249	0.906	3281538	WORD_OFF	n/a	n/a	STAR	9	16	[0, 0, 0]	n/a	FR1	0	R1292E
259018.155	1.627	3282444	WORD	n/a	n/a	DART	10	16	[0, 0, 0]	n/a	FR1	0	R1292E
259019.782	0.882	3284071	WORD_OFF	n/a	n/a	DART	10	16	[0, 0, 0]	n/a	FR1	0	R1292E
259020.664	1.636	3284953	WORD	n/a	n/a	LAWN	11	16	[0, 0, 0]	n/a	FR1	0	R1292E
259022.3	1.073	3286589	WORD_OFF	n/a	n/a	LAWN	11	16	[0, 0, 0]	n/a	FR1	0	R1292E
259023.373	1.628	3287662	WORD	n/a	n/a	SIGN	12	16	[0, 0, 0]	n/a	FR1	0	R1292E
259025.001	0.0	3289290	WORD_OFF	n/a	n/a	SIGN	12	16	[0, 0, 0]	n/a	FR1	0	R1292E
259025.001	0.001	3289290	ENCODING_END	n/a	n/a	n/a	-999	16	[0, 0, 0]	n/a	FR1	0	R1292E
259025.002	0.0	3289291	DISTRACT_START	n/a	n/a	n/a	-999	16	[0, 0, 0]	n/a	FR1	0	R1292E
259025.002	0.015	3289291	START	n/a	n/a	n/a	-999	16	[-999, -999, -999]	n/a	FR1	0	R1292E
259025.017	12.236	3289306	PROB	12.236	n/a	n/a	-999	16	[8, 5, 9]	22	FR1	0	R1292E
259037.253	7.744	3301541	PROB	7.744	n/a	n/a	-999	16	[7, 3, 4]	14	FR1	0	R1292E
259044.997	0.007	3309285	STOP	n/a	n/a	n/a	-999	16	[-999, -999, -999]	n/a	FR1	0	R1292E
259045.004	0.556	3309292	DISTRACT_END	n/a	n/a	n/a	-999	16	[0, 0, 0]	n/a	FR1	0	R1292E
259045.56	1.645	3309848	RETRIEVAL_ORIENT_START	n/a	n/a	n/a	-999	16	[0, 0, 0]	n/a	FR1	0	R1292E
259047.205	0.0	3311493	REC_START	n/a	n/a	n/a	-999	16	[0, 0, 0]	n/a	FR1	0	R1292E
259047.205	1.106	3311493	RETRIEVAL_ORIENT_END	n/a	n/a	n/a	-999	16	[0, 0, 0]	n/a	FR1	0	R1292E
259048.311	1.078	3312599	REC_WORD	1.078	n/a	EGG	1	16	[0, 0, 0]	n/a	FR1	0	R1292E
259049.389	2.195	3313677	REC_WORD	2.195	n/a	TOAST	4	16	[0, 0, 0]	n/a	FR1	0	R1292E
259051.584	1.467	3315872	REC_WORD	1.467	n/a	MOLE	2	16	[0, 0, 0]	n/a	FR1	0	R1292E
259053.051	1.441	3317339	REC_WORD	1.441	n/a	ROCK	5	16	[0, 0, 0]	n/a	FR1	0	R1292E
259054.492	22.722	3318780	REC_WORD	22.722	n/a	MUD	6	16	[0, 0, 0]	n/a	FR1	0	R1292E
259077.214	0.0	3341501	TRIAL_END	n/a	n/a	n/a	-999	16	[0, 0, 0]	n/a	FR1	0	R1292E
259077.214	0.018	3341501	REC_END	n/a	n/a	n/a	-999	16	[0, 0, 0]	n/a	FR1	0	R1292E
259077.232	0.0	3341519	TRIAL	n/a	n/a	n/a	-999	17	[0, 0, 0]	n/a	FR1	0	R1292E
259077.232	0.0	3341519	WAITING_START	n/a	n/a	n/a	-999	17	[0, 0, 0]	n/a	FR1	0	R1292E
259077.232	72.506	3341519	TRIAL_START	n/a	n/a	n/a	-999	17	[0, 0, 0]	n/a	FR1	0	R1292E
259149.738	0.001	3414023	WAITING_END	n/a	n/a	n/a	-999	17	[0, 0, 0]	n/a	FR1	0	R1292E
259149.739	10.428	3414024	COUNTDOWN_START	n/a	n/a	n/a	-999	17	[0, 0, 0]	n/a	FR1	0	R1292E
259160.167	0.001	3424451	COUNTDOWN_END	n/a	n/a	n/a	-999	17	[0, 0, 0]	n/a	FR1	0	R1292E
259160.168	1.073	3424452	ORIENT_START	n/a	n/a	n/a	-999	17	[0, 0, 0]	n/a	FR1	0	R1292E
259161.241	0.001	3425525	ORIENT_END	n/a	n/a	n/a	-999	17	[0, 0, 0]	n/a	FR1	0	R1292E
259161.242	0.967	3425526	ENCODING_START	n/a	n/a	n/a	-999	17	[0, 0, 0]	n/a	FR1	0	R1292E
259162.209	1.632	3426493	WORD	n/a	n/a	TRAIN	1	17	[0, 0, 0]	n/a	FR1	0	R1292E
259163.841	1.052	3428125	WORD_OFF	n/a	n/a	TRAIN	1	17	[0, 0, 0]	n/a	FR1	0	R1292E
259164.893	1.632	3429177	WORD	n/a	n/a	LAMP	2	17	[0, 0, 0]	n/a	FR1	0	R1292E
259166.525	1.087	3430809	WORD_OFF	n/a	n/a	LAMP	2	17	[0, 0, 0]	n/a	FR1	0	R1292E
259167.612	1.631	3431896	WORD	n/a	n/a	STAIR	3	17	[0, 0, 0]	n/a	FR1	0	R1292E
259169.243	0.996	3433527	WORD_OFF	n/a	n/a	STAIR	3	17	[0, 0, 0]	n/a	FR1	0	R1292E
259170.239	1.62	3434523	WORD	n/a	n/a	TOAD	4	17	[0, 0, 0]	n/a	FR1	0	R1292E
259171.859	1.009	3436143	WORD_OFF	n/a	n/a	TOAD	4	17	[0, 0, 0]	n/a	FR1	0	R1292E
259172.868	1.625	3437152	WORD	n/a	n/a	GATE	5	17	[0, 0, 0]	n/a	FR1	0	R1292E
259174.493	0.82	3438777	WORD_OFF	n/a	n/a	GATE	5	17	[0, 0, 0]	n/a	FR1	0	R1292E
259175.313	1.631	3439597	WORD	n/a	n/a	SHIRT	6	17	[0, 0, 0]	n/a	FR1	0	R1292E
259176.944	1.128	3441228	WORD_OFF	n/a	n/a	SHIRT	6	17	[0, 0, 0]	n/a	FR1	0	R1292E
259178.072	1.622	3442356	WORD	n/a	n/a	PLATE	7	17	[0, 0, 0]	n/a	FR1	0	R1292E
259179.694	0.862	3443977	WORD_OFF	n/a	n/a	PLATE	7	17	[0, 0, 0]	n/a	FR1	0	R1292E
259180.556	1.605	3444839	WORD	n/a	n/a	BREAD	8	17	[0, 0, 0]	n/a	FR1	0	R1292E
259182.161	0.79	3446444	WORD_OFF	n/a	n/a	BREAD	8	17	[0, 0, 0]	n/a	FR1	0	R1292E
259182.951	1.627	3447234	WORD	n/a	n/a	CLOCK	9	17	[0, 0, 0]	n/a	FR1	0	R1292E
259184.578	0.919	3448861	WORD_OFF	n/a	n/a	CLOCK	9	17	[0, 0, 0]	n/a	FR1	0	R1292E
259185.497	1.632	3449780	WORD	n/a	n/a	PHONE	10	17	[0, 0, 0]	n/a	FR1	0	R1292E
259187.129	0.848	3451412	WORD_OFF	n/a	n/a	PHONE	10	17	[0, 0, 0]	n/a	FR1	0	R1292E
259187.977	1.635	3452260	WORD	n/a	n/a	PIPE	11	17	[0, 0, 0]	n/a	FR1	0	R1292E
259189.612	1.012	3453895	WORD_OFF	n/a	n/a	PIPE	11	17	[0, 0, 0]	n/a	FR1	0	R1292E
259190.624	1.623	3454907	WORD	n/a	n/a	BOOT	12	17	[0, 0, 0]	n/a	FR1	0	R1292E
259192.247	0.0	3456530	WORD_OFF	n/a	n/a	BOOT	12	17	[0, 0, 0]	n/a	FR1	0	R1292E
259192.247	0.001	3456530	ENCODING_END	n/a	n/a	n/a	-999	17	[0, 0, 0]	n/a	FR1	0	R1292E
259192.248	0.0	3456531	DISTRACT_START	n/a	n/a	n/a	-999	17	[0, 0, 0]	n/a	FR1	0	R1292E
259192.248	0.015	3456531	START	n/a	n/a	n/a	-999	17	[-999, -999, -999]	n/a	FR1	0	R1292E
259192.263	4.868	3456546	PROB	4.868	n/a	n/a	-999	17	[4, 4, 8]	16	FR1	0	R1292E
259197.131	8.751	3461414	PROB	8.751	n/a	n/a	-999	17	[7, 7, 8]	22	FR1	0	R1292E
259205.882	5.001	3470165	PROB	5.001	n/a	n/a	-999	17	[8, 1, 3]	12	FR1	0	R1292E
259210.883	6.727	3475165	PROB	6.727	n/a	n/a	-999	17	[3, 7, 4]	14	FR1	0	R1292E
259217.61	0.007	3481892	STOP	n/a	n/a	n/a	-999	17	[-999, -999, -999]	n/a	FR1	0	R1292E
259217.617	0.569	3481899	DISTRACT_END	n/a	n/a	n/a	-999	17	[0, 0, 0]	n/a	FR1	0	R1292E
259218.186	1.581	3482468	RETRIEVAL_ORIENT_START	n/a	n/a	n/a	-999	17	[0, 0, 0]	n/a	FR1	0	R1292E
259219.767	0.001	3484049	RETRIEVAL_ORIENT_END	n/a	n/a	n/a	-999	17	[0, 0, 0]	n/a	FR1	0	R1292E
259219.768	2.977	3484050	REC_START	n/a	n/a	n/a	-999	17	[0, 0, 0]	n/a	FR1	0	R1292E
259222.745	1.597	3487027	REC_WORD	1.597	n/a	TRAIN	1	17	[0, 0, 0]	n/a	FR1	0	R1292E
259224.342	14.064	3488624	REC_WORD	14.064	n/a	LAMP	2	17	[0, 0, 0]	n/a	FR1	0	R1292E
259238.406	11.372	3502687	REC_WORD	11.372	n/a	STAIR	3	17	[0, 0, 0]	n/a	FR1	0	R1292E
259249.778	0.0	3514059	REC_END	n/a	n/a	n/a	-999	17	[0, 0, 0]	n/a	FR1	0	R1292E
259249.778	0.018	3514059	TRIAL_END	n/a	n/a	n/a	-999	17	[0, 0, 0]	n/a	FR1	0	R1292E
259249.796	0.0	3514077	TRIAL_START	n/a	n/a	n/a	-999	18	[0, 0, 0]	n/a	FR1	0	R1292E
259249.796	0.0	3514077	TRIAL	n/a	n/a	n/a	-999	18	[0, 0, 0]	n/a	FR1	0	R1292E
259249.796	7.129	3514077	WAITING_START	n/a	n/a	n/a	-999	18	[0, 0, 0]	n/a	FR1	0	R1292E
259256.925	0.0	3521206	COUNTDOWN_START	n/a	n/a	n/a	-999	18	[0, 0, 0]	n/a	FR1	0	R1292E
259256.925	10.43	3521206	WAITING_END	n/a	n/a	n/a	-999	18	[0, 0, 0]	n/a	FR1	0	R1292E
259267.355	0.0	3531635	COUNTDOWN_END	n/a	n/a	n/a	-999	18	[0, 0, 0]	n/a	FR1	0	R1292E
259267.355	1.138	3531635	ORIENT_START	n/a	n/a	n/a	-999	18	[0, 0, 0]	n/a	FR1	0	R1292E
259268.493	0.0	3532773	ORIENT_END	n/a	n/a	n/a	-999	18	[0, 0, 0]	n/a	FR1	0	R1292E
259268.493	0.755	3532773	ENCODING_START	n/a	n/a	n/a	-999	18	[0, 0, 0]	n/a	FR1	0	R1292E
259269.248	1.629	3533528	WORD	n/a	n/a	PIE	1	18	[0, 0, 0]	n/a	FR1	0	R1292E
259270.877	0.752	3535157	WORD_OFF	n/a	n/a	PIE	1	18	[0, 0, 0]	n/a	FR1	0	R1292E
259271.629	1.632	3535909	WORD	n/a	n/a	BIRD	2	18	[0, 0, 0]	n/a	FR1	0	R1292E
259273.261	0.893	3537541	WORD_OFF	n/a	n/a	BIRD	2	18	[0, 0, 0]	n/a	FR1	0	R1292E
259274.154	1.623	3538434	WORD	n/a	n/a	SHEET	3	18	[0, 0, 0]	n/a	FR1	0	R1292E
259275.777	1.052	3540057	WORD_OFF	n/a	n/a	SHEET	3	18	[0, 0, 0]	n/a	FR1	0	R1292E
259276.829	1.632	3541109	WORD	n/a	n/a	THREAD	4	18	[0, 0, 0]	n/a	FR1	0	R1292E
259278.461	1.124	3542741	WORD_OFF	n/a	n/a	THREAD	4	18	[0, 0, 0]	n/a	FR1	0	R1292E
259279.585	1.611	3543865	WORD	n/a	n/a	CHEEK	5	18	[0, 0, 0]	n/a	FR1	0	R1292E
259281.196	1.124	3545476	WORD_OFF	n/a	n/a	CHEEK	5	18	[0, 0, 0]	n/a	FR1	0	R1292E
259282.32	1.626	3546600	WORD	n/a	n/a	SEED	6	18	[0, 0, 0]	n/a	FR1	0	R1292E
259283.946	1.112	3548226	WORD_OFF	n/a	n/a	SEED	6	18	[0, 0, 0]	n/a	FR1	0	R1292E
259285.058	1.621	3549338	WORD	n/a	n/a	MOON	7	18	[0, 0, 0]	n/a	FR1	0	R1292E
259286.679	1.021	3550959	WORD_OFF	n/a	n/a	MOON	7	18	[0, 0, 0]	n/a	FR1	0	R1292E
259287.7	1.614	3551980	WORD	n/a	n/a	TEETH	8	18	[0, 0, 0]	n/a	FR1	0	R1292E
259289.314	0.9	3553594	WORD_OFF	n/a	n/a	TEETH	8	18	[0, 0, 0]	n/a	FR1	0	R1292E
259290.214	1.633	3554494	WORD	n/a	n/a	YARD	9	18	[0, 0, 0]	n/a	FR1	0	R1292E
259291.847	0.786	3556127	WORD_OFF	n/a	n/a	YARD	9	18	[0, 0, 0]	n/a	FR1	0	R1292E
259292.633	1.615	3556912	WORD	n/a	n/a	SNOW	10	18	[0, 0, 0]	n/a	FR1	0	R1292E
259294.248	0.789	3558527	WORD_OFF	n/a	n/a	SNOW	10	18	[0, 0, 0]	n/a	FR1	0	R1292E
259295.037	1.627	3559316	WORD	n/a	n/a	SEA	11	18	[0, 0, 0]	n/a	FR1	0	R1292E
259296.664	1.035	3560943	WORD_OFF	n/a	n/a	SEA	11	18	[0, 0, 0]	n/a	FR1	0	R1292E
259297.699	1.633	3561978	WORD	n/a	n/a	SHIELD	12	18	[0, 0, 0]	n/a	FR1	0	R1292E
259299.332	0.0	3563611	ENCODING_END	n/a	n/a	n/a	-999	18	[0, 0, 0]	n/a	FR1	0	R1292E
259299.332	0.001	3563611	WORD_OFF	n/a	n/a	SHIELD	12	18	[0, 0, 0]	n/a	FR1	0	R1292E
259299.333	0.0	3563612	DISTRACT_START	n/a	n/a	n/a	-999	18	[0, 0, 0]	n/a	FR1	0	R1292E
259299.333	0.015	3563612	START	n/a	n/a	n/a	-999	18	[-999, -999, -999]	n/a	FR1	0	R1292E
259299.348	7.451	3563627	PROB	7.451	n/a	n/a	-999	18	[8, 5, 9]	22	FR1	0	R1292E
259306.799	4.784	3571078	PROB	4.784	n/a	n/a	-999	18	[8, 6, 4]	18	FR1	0	R1292E
259311.583	8.919	3575862	PROB	8.919	n/a	n/a	-999	18	[8, 2, 3]	3	FR1	0	R1292E
259320.502	0.016	3584781	STOP	n/a	n/a	n/a	-999	18	[-999, -999, -999]	n/a	FR1	0	R1292E
259320.518	0.546	3584797	DISTRACT_END	n/a	n/a	n/a	-999	18	[0, 0, 0]	n/a	FR1	0	R1292E
259321.064	1.671	3585342	RETRIEVAL_ORIENT_START	n/a	n/a	n/a	-999	18	[0, 0, 0]	n/a	FR1	0	R1292E
259322.735	0.001	3587013	RETRIEVAL_ORIENT_END	n/a	n/a	n/a	-999	18	[0, 0, 0]	n/a	FR1	0	R1292E
259322.736	4.192	3587014	REC_START	n/a	n/a	n/a	-999	18	[0, 0, 0]	n/a	FR1	0	R1292E
259326.928	1.655	3591206	REC_WORD	1.655	n/a	PIE	1	18	[0, 0, 0]	n/a	FR1	0	R1292E
259328.583	4.786	3592861	REC_WORD	4.786	n/a	BIRD	2	18	[0, 0, 0]	n/a	FR1	0	R1292E
259333.369	1.772	3597647	REC_WORD	1.772	n/a	SHEET	3	18	[0, 0, 0]	n/a	FR1	0	R1292E
259335.141	17.605	3599419	REC_WORD	17.605	n/a	THREAD	4	18	[0, 0, 0]	n/a	FR1	0	R1292E
259352.746	0.0	3617023	REC_END	n/a	n/a	n/a	-999	18	[0, 0, 0]	n/a	FR1	0	R1292E
259352.746	0.018	3617023	TRIAL_END	n/a	n/a	n/a	-999	18	[0, 0, 0]	n/a	FR1	0	R1292E
259352.764	0.001	3617041	TRIAL_START	n/a	n/a	n/a	-999	19	[0, 0, 0]	n/a	FR1	0	R1292E
259352.765	0.0	3617042	TRIAL	n/a	n/a	n/a	-999	19	[0, 0, 0]	n/a	FR1	0	R1292E
259352.765	85.057	3617042	WAITING_START	n/a	n/a	n/a	-999	19	[0, 0, 0]	n/a	FR1	0	R1292E
259437.822	0.0	3702096	WAITING_END	n/a	n/a	n/a	-999	19	[0, 0, 0]	n/a	FR1	0	R1292E
259437.822	10.429	3702096	COUNTDOWN_START	n/a	n/a	n/a	-999	19	[0, 0, 0]	n/a	FR1	0	R1292E
259448.251	0.001	3712525	COUNTDOWN_END	n/a	n/a	n/a	-999	19	[0, 0, 0]	n/a	FR1	0	R1292E
259448.252	1.222	3712526	ORIENT_START	n/a	n/a	n/a	-999	19	[0, 0, 0]	n/a	FR1	0	R1292E
259449.474	0.001	3713748	ORIENT_END	n/a	n/a	n/a	-999	19	[0, 0, 0]	n/a	FR1	0	R1292E
259449.475	0.838	3713749	ENCODING_START	n/a	n/a	n/a	-999	19	[0, 0, 0]	n/a	FR1	0	R1292E
259450.313	1.629	3714587	WORD	n/a	n/a	PURSE	1	19	[0, 0, 0]	n/a	FR1	0	R1292E
259451.942	0.776	3716216	WORD_OFF	n/a	n/a	PURSE	1	19	[0, 0, 0]	n/a	FR1	0	R1292E
259452.718	1.625	3716992	WORD	n/a	n/a	THUMB	2	19	[0, 0, 0]	n/a	FR1	0	R1292E
259454.343	0.87	3718617	WORD_OFF	n/a	n/a	THUMB	2	19	[0, 0, 0]	n/a	FR1	0	R1292E
259455.213	1.629	3719487	WORD	n/a	n/a	JUDGE	3	19	[0, 0, 0]	n/a	FR1	0	R1292E
259456.842	0.922	3721116	WORD_OFF	n/a	n/a	JUDGE	3	19	[0, 0, 0]	n/a	FR1	0	R1292E
259457.764	1.613	3722038	WORD	n/a	n/a	CLOTH	4	19	[0, 0, 0]	n/a	FR1	0	R1292E
259459.377	0.911	3723651	WORD_OFF	n/a	n/a	CLOTH	4	19	[0, 0, 0]	n/a	FR1	0	R1292E
259460.288	1.623	3724562	WORD	n/a	n/a	PANTS	5	19	[0, 0, 0]	n/a	FR1	0	R1292E
259461.911	0.838	3726185	WORD_OFF	n/a	n/a	PANTS	5	19	[0, 0, 0]	n/a	FR1	0	R1292E
259462.749	1.629	3727023	WORD	n/a	n/a	WORLD	6	19	[0, 0, 0]	n/a	FR1	0	R1292E
259464.378	0.896	3728651	WORD_OFF	n/a	n/a	WORLD	6	19	[0, 0, 0]	n/a	FR1	0	R1292E
259465.274	1.621	3729547	WORD	n/a	n/a	PIN	7	19	[0, 0, 0]	n/a	FR1	0	R1292E
259466.895	0.843	3731168	WORD_OFF	n/a	n/a	PIN	7	19	[0, 0, 0]	n/a	FR1	0	R1292E
259467.738	1.624	3732011	WORD	n/a	n/a	MAP	8	19	[0, 0, 0]	n/a	FR1	0	R1292E
259469.362	0.783	3733635	WORD_OFF	n/a	n/a	MAP	8	19	[0, 0, 0]	n/a	FR1	0	R1292E
259470.145	1.633	3734418	WORD	n/a	n/a	STOVE	9	19	[0, 0, 0]	n/a	FR1	0	R1292E
259471.778	0.812	3736051	WORD_OFF	n/a	n/a	STOVE	9	19	[0, 0, 0]	n/a	FR1	0	R1292E
259472.59	1.623	3736863	WORD	n/a	n/a	FOX	10	19	[0, 0, 0]	n/a	FR1	0	R1292E
259474.213	0.873	3738486	WORD_OFF	n/a	n/a	FOX	10	19	[0, 0, 0]	n/a	FR1	0	R1292E
259475.086	1.626	3739359	WORD	n/a	n/a	SCHOOL	11	19	[0, 0, 0]	n/a	FR1	0	R1292E
259476.712	0.778	3740985	WORD_OFF	n/a	n/a	SCHOOL	11	19	[0, 0, 0]	n/a	FR1	0	R1292E
259477.49	1.624	3741763	WORD	n/a	n/a	APE	12	19	[0, 0, 0]	n/a	FR1	0	R1292E
259479.114	0.0	3743387	DISTRACT_START	n/a	n/a	n/a	-999	19	[0, 0, 0]	n/a	FR1	0	R1292E
259479.114	0.0	3743387	ENCODING_END	n/a	n/a	n/a	-999	19	[0, 0, 0]	n/a	FR1	0	R1292E
259479.114	0.001	3743387	WORD_OFF	n/a	n/a	APE	12	19	[0, 0, 0]	n/a	FR1	0	R1292E
259479.115	0.015	3743388	START	n/a	n/a	n/a	-999	19	[-999, -999, -999]	n/a	FR1	0	R1292E
259479.13	4.633	3743403	PROB	4.633	n/a	n/a	-999	19	[5, 5, 2]	12	FR1	0	R1292E
259483.763	5.202	3748036	PROB	5.202	n/a	n/a	-999	19	[5, 1, 4]	10	FR1	0	R1292E
259488.965	7.168	3753238	PROB	7.168	n/a	n/a	-999	19	[7, 2, 3]	12	FR1	0	R1292E
259496.133	7.264	3760405	PROB	7.264	n/a	n/a	-999	19	[6, 8, 3]	17	FR1	0	R1292E
259503.397	0.021	3767669	STOP	n/a	n/a	n/a	-999	19	[-999, -999, -999]	n/a	FR1	0	R1292E
259503.418	0.566	3767690	DISTRACT_END	n/a	n/a	n/a	-999	19	[0, 0, 0]	n/a	FR1	0	R1292E
259503.984	1.567	3768256	RETRIEVAL_ORIENT_START	n/a	n/a	n/a	-999	19	[0, 0, 0]	n/a	FR1	0	R1292E
259505.551	0.0	3769823	RETRIEVAL_ORIENT_END	n/a	n/a	n/a	-999	19	[0, 0, 0]	n/a	FR1	0	R1292E
259505.551	0.887	3769823	REC_START	n/a	n/a	n/a	-999	19	[0, 0, 0]	n/a	FR1	0	R1292E
259506.438	0.963	3770710	REC_WORD	0.963	n/a	PEN	-999	19	[0, 0, 0]	n/a	FR1	0	R1292E
259507.401	1.706	3771673	REC_WORD	1.706	n/a	WORLD	6	19	[0, 0, 0]	n/a	FR1	0	R1292E
259509.107	26.454	3773379	REC_WORD	26.454	n/a	MAP	8	19	[0, 0, 0]	n/a	FR1	0	R1292E
259535.561	0.0	3799832	TRIAL_END	n/a	n/a	n/a	-999	19	[0, 0, 0]	n/a	FR1	0	R1292E
259535.561	0.018	3799832	REC_END	n/a	n/a	n/a	-999	19	[0, 0, 0]	n/a	FR1	0	R1292E
259535.579	0.0	3799850	TRIAL_START	n/a	n/a	n/a	-999	20	[0, 0, 0]	n/a	FR1	0	R1292E
259535.579	0.0	3799850	TRIAL	n/a	n/a	n/a	-999	20	[0, 0, 0]	n/a	FR1	0	R1292E
259535.579	61.971	3799850	WAITING_START	n/a	n/a	n/a	-999	20	[0, 0, 0]	n/a	FR1	0	R1292E
259597.55	0.001	3861819	WAITING_END	n/a	n/a	n/a	-999	20	[0, 0, 0]	n/a	FR1	0	R1292E
259597.551	10.428	3861820	COUNTDOWN_START	n/a	n/a	n/a	-999	20	[0, 0, 0]	n/a	FR1	0	R1292E
259607.979	0.001	3872247	COUNTDOWN_END	n/a	n/a	n/a	-999	20	[0, 0, 0]	n/a	FR1	0	R1292E
259607.98	1.107	3872248	ORIENT_START	n/a	n/a	n/a	-999	20	[0, 0, 0]	n/a	FR1	0	R1292E
259609.087	0.0	3873355	ENCODING_START	n/a	n/a	n/a	-999	20	[0, 0, 0]	n/a	FR1	0	R1292E
259609.087	0.948	3873355	ORIENT_END	n/a	n/a	n/a	-999	20	[0, 0, 0]	n/a	FR1	0	R1292E
259610.035	1.634	3874303	WORD	n/a	n/a	BOY	1	20	[0, 0, 0]	n/a	FR1	0	R1292E
259611.669	0.968	3875937	WORD_OFF	n/a	n/a	BOY	1	20	[0, 0, 0]	n/a	FR1	0	R1292E
259612.637	1.634	3876905	WORD	n/a	n/a	ELF	2	20	[0, 0, 0]	n/a	FR1	0	R1292E
259614.271	0.946	3878539	WORD_OFF	n/a	n/a	ELF	2	20	[0, 0, 0]	n/a	FR1	0	R1292E
259615.217	1.62	3879485	WORD	n/a	n/a	LOCK	3	20	[0, 0, 0]	n/a	FR1	0	R1292E
259616.837	1.125	3881105	WORD_OFF	n/a	n/a	LOCK	3	20	[0, 0, 0]	n/a	FR1	0	R1292E
259617.962	1.625	3882230	WORD	n/a	n/a	DITCH	4	20	[0, 0, 0]	n/a	FR1	0	R1292E
259619.587	0.776	3883855	WORD_OFF	n/a	n/a	DITCH	4	20	[0, 0, 0]	n/a	FR1	0	R1292E
259620.363	1.626	3884631	WORD	n/a	n/a	FENCE	5	20	[0, 0, 0]	n/a	FR1	0	R1292E
259621.989	1.091	3886257	WORD_OFF	n/a	n/a	FENCE	5	20	[0, 0, 0]	n/a	FR1	0	R1292E
259623.08	1.625	3887348	WORD	n/a	n/a	STOOL	6	20	[0, 0, 0]	n/a	FR1	0	R1292E
259624.705	0.827	3888973	WORD_OFF	n/a	n/a	STOOL	6	20	[0, 0, 0]	n/a	FR1	0	R1292E
259625.532	1.624	3889800	WORD	n/a	n/a	COW	7	20	[0, 0, 0]	n/a	FR1	0	R1292E
259627.156	0.95	3891424	WORD_OFF	n/a	n/a	COW	7	20	[0, 0, 0]	n/a	FR1	0	R1292E
259628.106	1.633	3892374	WORD	n/a	n/a	SHIP	8	20	[0, 0, 0]	n/a	FR1	0	R1292E
259629.739	1.115	3894007	WORD_OFF	n/a	n/a	SHIP	8	20	[0, 0, 0]	n/a	FR1	0	R1292E
259630.854	1.636	3895122	WORD	n/a	n/a	FORT	9	20	[0, 0, 0]	n/a	FR1	0	R1292E
259632.49	0.808	3896758	WORD_OFF	n/a	n/a	FORT	9	20	[0, 0, 0]	n/a	FR1	0	R1292E
259633.298	1.626	3897566	WORD	n/a	n/a	PASTE	10	20	[0, 0, 0]	n/a	FR1	0	R1292E
259634.924	0.846	3899191	WORD_OFF	n/a	n/a	PASTE	10	20	[0, 0, 0]	n/a	FR1	0	R1292E
259635.77	1.638	3900037	WORD	n/a	n/a	BRANCH	11	20	[0, 0, 0]	n/a	FR1	0	R1292E
259637.408	0.789	3901675	WORD_OFF	n/a	n/a	BRANCH	11	20	[0, 0, 0]	n/a	FR1	0	R1292E
259638.197	1.627	3902464	WORD	n/a	n/a	BEACH	12	20	[0, 0, 0]	n/a	FR1	0	R1292E
259639.824	0.001	3904091	WORD_OFF	n/a	n/a	BEACH	12	20	[0, 0, 0]	n/a	FR1	0	R1292E
259639.825	0.0	3904092	ENCODING_END	n/a	n/a	n/a	-999	20	[0, 0, 0]	n/a	FR1	0	R1292E
259639.825	0.0	3904092	DISTRACT_START	n/a	n/a	n/a	-999	20	[0, 0, 0]	n/a	FR1	0	R1292E
259639.825	0.016	3904092	START	n/a	n/a	n/a	-999	20	[-999, -999, -999]	n/a	FR1	0	R1292E
259639.841	17.803	3904108	PROB	17.803	n/a	n/a	-999	20	[6, 3, 2]	11	FR1	0	R1292E
259657.644	8.049	3921911	PROB	8.049	n/a	n/a	-999	20	[5, 9, 7]	21	FR1	0	R1292E
259665.693	0.019	3929959	STOP	n/a	n/a	n/a	-999	20	[-999, -999, -999]	n/a	FR1	0	R1292E
259665.712	0.611	3929978	DISTRACT_END	n/a	n/a	n/a	-999	20	[0, 0, 0]	n/a	FR1	0	R1292E
259666.323	1.674	3930589	RETRIEVAL_ORIENT_START	n/a	n/a	n/a	-999	20	[0, 0, 0]	n/a	FR1	0	R1292E
259667.997	0.0	3932263	RETRIEVAL_ORIENT_END	n/a	n/a	n/a	-999	20	[0, 0, 0]	n/a	FR1	0	R1292E
259667.997	1.126	3932263	REC_START	n/a	n/a	n/a	-999	20	[0, 0, 0]	n/a	FR1	0	R1292E
259669.123	1.817	3933389	REC_WORD	1.817	n/a	PASTE	10	20	[0, 0, 0]	n/a	FR1	0	R1292E
259670.94	1.478	3935206	REC_WORD	1.478	n/a	BOY	1	20	[0, 0, 0]	n/a	FR1	0	R1292E
259672.418	12.435	3936684	REC_WORD	12.435	n/a	ELF	2	20	[0, 0, 0]	n/a	FR1	0	R1292E
259684.853	3.944	3949119	REC_WORD	3.944	n/a	FENCE	5	20	[0, 0, 0]	n/a	FR1	0	R1292E
259688.797	9.21	3953063	REC_WORD	9.21	n/a	COW	7	20	[0, 0, 0]	n/a	FR1	0	R1292E
259698.007	0.001	3962272	REC_END	n/a	n/a	n/a	-999	20	[0, 0, 0]	n/a	FR1	0	R1292E
259698.008	0.017	3962273	TRIAL_END	n/a	n/a	n/a	-999	20	[0, 0, 0]	n/a	FR1	0	R1292E
259698.025	0.001	3962290	TRIAL_START	n/a	n/a	n/a	-999	21	[0, 0, 0]	n/a	FR1	0	R1292E
259698.026	0.0	3962291	TRIAL	n/a	n/a	n/a	-999	21	[0, 0, 0]	n/a	FR1	0	R1292E
259698.026	7.161	3962291	WAITING_START	n/a	n/a	n/a	-999	21	[0, 0, 0]	n/a	FR1	0	R1292E
259705.187	0.0	3969452	WAITING_END	n/a	n/a	n/a	-999	21	[0, 0, 0]	n/a	FR1	0	R1292E
259705.187	10.428	3969452	COUNTDOWN_START	n/a	n/a	n/a	-999	21	[0, 0, 0]	n/a	FR1	0	R1292E
259715.615	0.001	3979880	COUNTDOWN_END	n/a	n/a	n/a	-999	21	[0, 0, 0]	n/a	FR1	0	R1292E
259715.616	1.155	3979881	ORIENT_START	n/a	n/a	n/a	-999	21	[0, 0, 0]	n/a	FR1	0	R1292E
259716.771	0.0	3981036	ENCODING_START	n/a	n/a	n/a	-999	21	[0, 0, 0]	n/a	FR1	0	R1292E
259716.771	0.922	3981036	ORIENT_END	n/a	n/a	n/a	-999	21	[0, 0, 0]	n/a	FR1	0	R1292E
259717.693	1.613	3981958	WORD	n/a	n/a	ZOO	1	21	[0, 0, 0]	n/a	FR1	0	R1292E
259719.306	1.132	3983570	WORD_OFF	n/a	n/a	ZOO	1	21	[0, 0, 0]	n/a	FR1	0	R1292E
259720.438	1.635	3984702	WORD	n/a	n/a	BATH	2	21	[0, 0, 0]	n/a	FR1	0	R1292E
259722.073	0.957	3986337	WORD_OFF	n/a	n/a	BATH	2	21	[0, 0, 0]	n/a	FR1	0	R1292E
259723.03	1.626	3987294	WORD	n/a	n/a	EEL	3	21	[0, 0, 0]	n/a	FR1	0	R1292E
259724.656	0.754	3988920	WORD_OFF	n/a	n/a	EEL	3	21	[0, 0, 0]	n/a	FR1	0	R1292E
259725.41	1.63	3989674	WORD	n/a	n/a	SPRING	4	21	[0, 0, 0]	n/a	FR1	0	R1292E
259727.04	0.928	3991304	WORD_OFF	n/a	n/a	SPRING	4	21	[0, 0, 0]	n/a	FR1	0	R1292E
259727.968	1.622	3992232	WORD	n/a	n/a	SOAP	5	21	[0, 0, 0]	n/a	FR1	0	R1292E
259729.59	1.061	3993854	WORD_OFF	n/a	n/a	SOAP	5	21	[0, 0, 0]	n/a	FR1	0	R1292E
259730.651	1.624	3994915	WORD	n/a	n/a	BRIDGE	6	21	[0, 0, 0]	n/a	FR1	0	R1292E
259732.275	0.965	3996539	WORD_OFF	n/a	n/a	BRIDGE	6	21	[0, 0, 0]	n/a	FR1	0	R1292E
259733.24	1.635	3997504	WORD	n/a	n/a	PARK	7	21	[0, 0, 0]	n/a	FR1	0	R1292E
259734.875	0.83	3999139	WORD_OFF	n/a	n/a	PARK	7	21	[0, 0, 0]	n/a	FR1	0	R1292E
259735.705	1.621	3999969	WORD	n/a	n/a	CONE	8	21	[0, 0, 0]	n/a	FR1	0	R1292E
259737.326	1.054	4001590	WORD_OFF	n/a	n/a	CONE	8	21	[0, 0, 0]	n/a	FR1	0	R1292E
259738.38	1.629	4002644	WORD	n/a	n/a	TOOL	9	21	[0, 0, 0]	n/a	FR1	0	R1292E
259740.009	0.86	4004273	WORD_OFF	n/a	n/a	TOOL	9	21	[0, 0, 0]	n/a	FR1	0	R1292E
259740.869	1.623	4005133	WORD	n/a	n/a	PEA	10	21	[0, 0, 0]	n/a	FR1	0	R1292E
259742.492	1.133	4006756	WORD_OFF	n/a	n/a	PEA	10	21	[0, 0, 0]	n/a	FR1	0	R1292E
259743.625	1.635	4007889	WORD	n/a	n/a	FLOOR	11	21	[0, 0, 0]	n/a	FR1	0	R1292E
259745.26	0.995	4009524	WORD_OFF	n/a	n/a	FLOOR	11	21	[0, 0, 0]	n/a	FR1	0	R1292E
259746.255	1.623	4010519	WORD	n/a	n/a	MULE	12	21	[0, 0, 0]	n/a	FR1	0	R1292E
259747.878	0.0	4012141	WORD_OFF	n/a	n/a	MULE	12	21	[0, 0, 0]	n/a	FR1	0	R1292E
259747.878	0.0	4012141	ENCODING_END	n/a	n/a	n/a	-999	21	[0, 0, 0]	n/a	FR1	0	R1292E
259747.878	0.0	4012141	DISTRACT_START	n/a	n/a	n/a	-999	21	[0, 0, 0]	n/a	FR1	0	R1292E
259747.878	0.016	4012141	START	n/a	n/a	n/a	-999	21	[-999, -999, -999]	n/a	FR1	0	R1292E
259747.894	10.352	4012157	PROB	10.352	n/a	n/a	-999	21	[5, 8, 1]	14	FR1	0	R1292E
259758.246	4.0	4022509	PROB	4.0	n/a	n/a	-999	21	[1, 9, 7]	17	FR1	0	R1292E
259762.246	6.892	4026509	PROB	6.892	n/a	n/a	-999	21	[1, 7, 4]	12	FR1	0	R1292E
259769.138	0.01	4033401	STOP	n/a	n/a	n/a	-999	21	[-999, -999, -999]	n/a	FR1	0	R1292E
259769.148	0.616	4033411	DISTRACT_END	n/a	n/a	n/a	-999	21	[0, 0, 0]	n/a	FR1	0	R1292E
259769.764	1.601	4034027	RETRIEVAL_ORIENT_START	n/a	n/a	n/a	-999	21	[0, 0, 0]	n/a	FR1	0	R1292E
259771.365	0.0	4035628	RETRIEVAL_ORIENT_END	n/a	n/a	n/a	-999	21	[0, 0, 0]	n/a	FR1	0	R1292E
259771.365	0.948	4035628	REC_START	n/a	n/a	n/a	-999	21	[0, 0, 0]	n/a	FR1	0	R1292E
259772.313	0.831	4036576	REC_WORD	0.831	n/a	BATH	2	21	[0, 0, 0]	n/a	FR1	0	R1292E
259773.144	1.345	4037407	REC_WORD	1.345	n/a	SOAP	5	21	[0, 0, 0]	n/a	FR1	0	R1292E
259774.489	1.619	4038752	REC_WORD	1.619	n/a	SPRING	4	21	[0, 0, 0]	n/a	FR1	0	R1292E
259776.108	1.354	4040370	REC_WORD	1.354	n/a	EEL	3	21	[0, 0, 0]	n/a	FR1	0	R1292E
259777.462	15.307	4041724	REC_WORD	15.307	n/a	FLOOR	11	21	[0, 0, 0]	n/a	FR1	0	R1292E
259792.769	8.607	4057031	REC_WORD	8.607	n/a	ZOO	1	21	[0, 0, 0]	n/a	FR1	0	R1292E
259801.376	0.001	4065638	REC_END	n/a	n/a	n/a	-999	21	[0, 0, 0]	n/a	FR1	0	R1292E
259801.377	0.017	4065639	TRIAL_END	n/a	n/a	n/a	-999	21	[0, 0, 0]	n/a	FR1	0	R1292E
259801.394	0.001	4065656	TRIAL_START	n/a	n/a	n/a	-999	22	[0, 0, 0]	n/a	FR1	0	R1292E
259801.395	0.0	4065657	TRIAL	n/a	n/a	n/a	-999	22	[0, 0, 0]	n/a	FR1	0	R1292E
259801.395	11.06	4065657	WAITING_START	n/a	n/a	n/a	-999	22	[0, 0, 0]	n/a	FR1	0	R1292E
259812.455	0.001	4076716	WAITING_END	n/a	n/a	n/a	-999	22	[0, 0, 0]	n/a	FR1	0	R1292E
259812.456	10.429	4076717	COUNTDOWN_START	n/a	n/a	n/a	-999	22	[0, 0, 0]	n/a	FR1	0	R1292E
259822.885	0.0	4087146	ORIENT_START	n/a	n/a	n/a	-999	22	[0, 0, 0]	n/a	FR1	0	R1292E
259822.885	1.272	4087146	COUNTDOWN_END	n/a	n/a	n/a	-999	22	[0, 0, 0]	n/a	FR1	0	R1292E
259824.157	0.001	4088418	ORIENT_END	n/a	n/a	n/a	-999	22	[0, 0, 0]	n/a	FR1	0	R1292E
259824.158	0.806	4088419	ENCODING_START	n/a	n/a	n/a	-999	22	[0, 0, 0]	n/a	FR1	0	R1292E
259824.964	1.626	4089225	WORD	n/a	n/a	GEESE	1	22	[0, 0, 0]	n/a	FR1	0	R1292E
259826.59	1.075	4090851	WORD_OFF	n/a	n/a	GEESE	1	22	[0, 0, 0]	n/a	FR1	0	R1292E
259827.665	1.627	4091926	WORD	n/a	n/a	CAR	2	22	[0, 0, 0]	n/a	FR1	0	R1292E
259829.292	1.049	4093553	WORD_OFF	n/a	n/a	CAR	2	22	[0, 0, 0]	n/a	FR1	0	R1292E
259830.341	1.635	4094602	WORD	n/a	n/a	NAIL	3	22	[0, 0, 0]	n/a	FR1	0	R1292E
259831.976	1.009	4096237	WORD_OFF	n/a	n/a	NAIL	3	22	[0, 0, 0]	n/a	FR1	0	R1292E
259832.985	1.623	4097245	WORD	n/a	n/a	FARM	4	22	[0, 0, 0]	n/a	FR1	0	R1292E
259834.608	0.95	4098868	WORD_OFF	n/a	n/a	FARM	4	22	[0, 0, 0]	n/a	FR1	0	R1292E
259835.558	1.635	4099818	WORD	n/a	n/a	TRUCK	5	22	[0, 0, 0]	n/a	FR1	0	R1292E
259837.193	1.087	4101453	WORD_OFF	n/a	n/a	TRUCK	5	22	[0, 0, 0]	n/a	FR1	0	R1292E
259838.28	1.63	4102540	WORD	n/a	n/a	SKUNK	6	22	[0, 0, 0]	n/a	FR1	0	R1292E
259839.91	0.902	4104170	WORD_OFF	n/a	n/a	SKUNK	6	22	[0, 0, 0]	n/a	FR1	0	R1292E
259840.812	1.615	4105072	WORD	n/a	n/a	ARM	7	22	[0, 0, 0]	n/a	FR1	0	R1292E
259842.427	1.019	4106687	WORD_OFF	n/a	n/a	ARM	7	22	[0, 0, 0]	n/a	FR1	0	R1292E
259843.446	1.632	4107706	WORD	n/a	n/a	PIG	8	22	[0, 0, 0]	n/a	FR1	0	R1292E
259845.078	1.138	4109338	WORD_OFF	n/a	n/a	PIG	8	22	[0, 0, 0]	n/a	FR1	0	R1292E
259846.216	1.628	4110476	WORD	n/a	n/a	CLAY	9	22	[0, 0, 0]	n/a	FR1	0	R1292E
259847.844	0.995	4112104	WORD_OFF	n/a	n/a	CLAY	9	22	[0, 0, 0]	n/a	FR1	0	R1292E
259848.839	1.622	4113099	WORD	n/a	n/a	LEG	10	22	[0, 0, 0]	n/a	FR1	0	R1292E
259850.461	1.07	4114721	WORD_OFF	n/a	n/a	LEG	10	22	[0, 0, 0]	n/a	FR1	0	R1292E
259851.531	1.632	4115791	WORD	n/a	n/a	FLAME	11	22	[0, 0, 0]	n/a	FR1	0	R1292E
259853.163	0.884	4117423	WORD_OFF	n/a	n/a	FLAME	11	22	[0, 0, 0]	n/a	FR1	0	R1292E
259854.047	1.632	4118307	WORD	n/a	n/a	PLANE	12	22	[0, 0, 0]	n/a	FR1	0	R1292E
259855.679	0.0	4119939	WORD_OFF	n/a	n/a	PLANE	12	22	[0, 0, 0]	n/a	FR1	0	R1292E
259855.679	0.001	4119939	ENCODING_END	n/a	n/a	n/a	-999	22	[0, 0, 0]	n/a	FR1	0	R1292E
259855.68	0.0	4119940	DISTRACT_START	n/a	n/a	n/a	-999	22	[0, 0, 0]	n/a	FR1	0	R1292E
259855.68	0.015	4119940	START	n/a	n/a	n/a	-999	22	[-999, -999, -999]	n/a	FR1	0	R1292E
259855.695	10.203	4119955	PROB	10.203	n/a	n/a	-999	22	[3, 6, 4]	13	FR1	0	R1292E
259865.898	2.883	4130157	PROB	2.883	n/a	n/a	-999	22	[1, 6, 6]	13	FR1	0	R1292E
259868.781	9.72	4133040	PROB	9.72	n/a	n/a	-999	22	[7, 6, 6]	19	FR1	0	R1292E
259878.501	0.015	4142760	STOP	n/a	n/a	n/a	-999	22	[-999, -999, -999]	n/a	FR1	0	R1292E
259878.516	0.505	4142775	DISTRACT_END	n/a	n/a	n/a	-999	22	[0, 0, 0]	n/a	FR1	0	R1292E
259879.021	1.529	4143280	RETRIEVAL_ORIENT_START	n/a	n/a	n/a	-999	22	[0, 0, 0]	n/a	FR1	0	R1292E
259880.55	0.0	4144809	RETRIEVAL_ORIENT_END	n/a	n/a	n/a	-999	22	[0, 0, 0]	n/a	FR1	0	R1292E
259880.55	0.719	4144809	REC_START	n/a	n/a	n/a	-999	22	[0, 0, 0]	n/a	FR1	0	R1292E
259881.269	1.35	4145528	REC_WORD	1.35	n/a	GEESE	1	22	[0, 0, 0]	n/a	FR1	0	R1292E
259882.619	3.022	4146878	REC_WORD	3.022	n/a	FARM	4	22	[0, 0, 0]	n/a	FR1	0	R1292E
259885.641	0.856	4149900	REC_WORD	0.856	n/a	EEL	-999	22	[0, 0, 0]	n/a	FR1	0	R1292E
259886.497	24.062	4150756	REC_WORD	24.062	n/a	PLANE	12	22	[0, 0, 0]	n/a	FR1	0	R1292E
259910.559	0.0	4174817	TRIAL_END	n/a	n/a	n/a	-999	22	[0, 0, 0]	n/a	FR1	0	R1292E
259910.559	0.018	4174817	REC_END	n/a	n/a	n/a	-999	22	[0, 0, 0]	n/a	FR1	0	R1292E
259910.577	0.0	4174835	TRIAL_START	n/a	n/a	n/a	-999	23	[0, 0, 0]	n/a	FR1	0	R1292E
259910.577	0.001	4174835	TRIAL	n/a	n/a	n/a	-999	23	[0, 0, 0]	n/a	FR1	0	R1292E
259910.578	188.544	4174836	WAITING_START	n/a	n/a	n/a	-999	23	[0, 0, 0]	n/a	FR1	0	R1292E
260099.122	0.001	4363373	WAITING_END	n/a	n/a	n/a	-999	23	[0, 0, 0]	n/a	FR1	0	R1292E
260099.123	10.429	4363374	COUNTDOWN_START	n/a	n/a	n/a	-999	23	[0, 0, 0]	n/a	FR1	0	R1292E
260109.552	0.001	4373803	COUNTDOWN_END	n/a	n/a	n/a	-999	23	[0, 0, 0]	n/a	FR1	0	R1292E
260109.553	1.237	4373804	ORIENT_START	n/a	n/a	n/a	-999	23	[0, 0, 0]	n/a	FR1	0	R1292E
260110.79	0.0	4375041	ENCODING_START	n/a	n/a	n/a	-999	23	[0, 0, 0]	n/a	FR1	0	R1292E
260110.79	1.089	4375041	ORIENT_END	n/a	n/a	n/a	-999	23	[0, 0, 0]	n/a	FR1	0	R1292E
260111.879	1.628	4376130	WORD	n/a	n/a	ROOT	1	23	[0, 0, 0]	n/a	FR1	0	R1292E
260113.507	0.824	4377758	WORD_OFF	n/a	n/a	ROOT	1	23	[0, 0, 0]	n/a	FR1	0	R1292E
260114.331	1.628	4378582	WORD	n/a	n/a	SMOKE	2	23	[0, 0, 0]	n/a	FR1	0	R1292E
260115.959	1.04	4380210	WORD_OFF	n/a	n/a	SMOKE	2	23	[0, 0, 0]	n/a	FR1	0	R1292E
260116.999	1.626	4381249	WORD	n/a	n/a	TREE	3	23	[0, 0, 0]	n/a	FR1	0	R1292E
260118.625	0.964	4382875	WORD_OFF	n/a	n/a	TREE	3	23	[0, 0, 0]	n/a	FR1	0	R1292E
260119.589	1.637	4383839	WORD	n/a	n/a	CASH	4	23	[0, 0, 0]	n/a	FR1	0	R1292E
260121.226	0.904	4385476	WORD_OFF	n/a	n/a	CASH	4	23	[0, 0, 0]	n/a	FR1	0	R1292E
260122.13	1.629	4386380	WORD	n/a	n/a	BOWL	5	23	[0, 0, 0]	n/a	FR1	0	R1292E
260123.759	0.768	4388009	WORD_OFF	n/a	n/a	BOWL	5	23	[0, 0, 0]	n/a	FR1	0	R1292E
260124.527	1.633	4388777	WORD	n/a	n/a	KITE	6	23	[0, 0, 0]	n/a	FR1	0	R1292E
260126.16	0.832	4390410	WORD_OFF	n/a	n/a	KITE	6	23	[0, 0, 0]	n/a	FR1	0	R1292E
260126.992	1.635	4391242	WORD	n/a	n/a	BOAT	7	23	[0, 0, 0]	n/a	FR1	0	R1292E
260128.627	1.024	4392877	WORD_OFF	n/a	n/a	BOAT	7	23	[0, 0, 0]	n/a	FR1	0	R1292E
260129.651	1.627	4393901	WORD	n/a	n/a	HAT	8	23	[0, 0, 0]	n/a	FR1	0	R1292E
260131.278	0.824	4395528	WORD_OFF	n/a	n/a	HAT	8	23	[0, 0, 0]	n/a	FR1	0	R1292E
260132.102	1.625	4396352	WORD	n/a	n/a	ROSE	9	23	[0, 0, 0]	n/a	FR1	0	R1292E
260133.727	0.851	4397977	WORD_OFF	n/a	n/a	ROSE	9	23	[0, 0, 0]	n/a	FR1	0	R1292E
260134.578	1.634	4398828	WORD	n/a	n/a	BOX	10	23	[0, 0, 0]	n/a	FR1	0	R1292E
260136.212	1.11	4400462	WORD_OFF	n/a	n/a	BOX	10	23	[0, 0, 0]	n/a	FR1	0	R1292E
260137.322	1.624	4401572	WORD	n/a	n/a	CAKE	11	23	[0, 0, 0]	n/a	FR1	0	R1292E
260138.946	0.841	4403196	WORD_OFF	n/a	n/a	CAKE	11	23	[0, 0, 0]	n/a	FR1	0	R1292E
260139.787	1.626	4404037	WORD	n/a	n/a	BEE	12	23	[0, 0, 0]	n/a	FR1	0	R1292E
260141.413	0.001	4405663	WORD_OFF	n/a	n/a	BEE	12	23	[0, 0, 0]	n/a	FR1	0	R1292E
260141.414	0.0	4405664	ENCODING_END	n/a	n/a	n/a	-999	23	[0, 0, 0]	n/a	FR1	0	R1292E
260141.414	0.0	4405664	DISTRACT_START	n/a	n/a	n/a	-999	23	[0, 0, 0]	n/a	FR1	0	R1292E
260141.414	0.016	4405664	START	n/a	n/a	n/a	-999	23	[-999, -999, -999]	n/a	FR1	0	R1292E
260141.43	7.416	4405680	PROB	7.416	n/a	n/a	-999	23	[2, 5, 6]	13	FR1	0	R1292E
260148.846	8.486	4413095	PROB	8.486	n/a	n/a	-999	23	[4, 2, 5]	11	FR1	0	R1292E
260157.332	4.117	4421581	PROB	4.117	n/a	n/a	-999	23	[1, 6, 9]	16	FR1	0	R1292E
260161.449	0.017	4425698	STOP	n/a	n/a	n/a	-999	23	[-999, -999, -999]	n/a	FR1	0	R1292E
260161.466	0.555	4425715	DISTRACT_END	n/a	n/a	n/a	-999	23	[0, 0, 0]	n/a	FR1	0	R1292E
260162.021	1.578	4426270	RETRIEVAL_ORIENT_START	n/a	n/a	n/a	-999	23	[0, 0, 0]	n/a	FR1	0	R1292E
260163.599	0.001	4427848	RETRIEVAL_ORIENT_END	n/a	n/a	n/a	-999	23	[0, 0, 0]	n/a	FR1	0	R1292E
260163.6	1.718	4427849	REC_START	n/a	n/a	n/a	-999	23	[0, 0, 0]	n/a	FR1	0	R1292E
260165.318	28.292	4429567	REC_WORD	28.292	n/a	ROOT	1	23	[0, 0, 0]	n/a	FR1	0	R1292E
260193.61	0.0	4457858	REC_END	n/a	n/a	n/a	-999	23	[0, 0, 0]	n/a	FR1	0	R1292E
260193.61	0.018	4457858	TRIAL_END	n/a	n/a	n/a	-999	23	[0, 0, 0]	n/a	FR1	0	R1292E
260193.628	0.0	4457876	TRIAL	n/a	n/a	n/a	-999	24	[0, 0, 0]	n/a	FR1	0	R1292E
260193.628	0.0	4457876	WAITING_START	n/a	n/a	n/a	-999	24	[0, 0, 0]	n/a	FR1	0	R1292E
260193.628	21.114	4457876	TRIAL_START	n/a	n/a	n/a	-999	24	[0, 0, 0]	n/a	FR1	0	R1292E
260214.742	0.0	4478989	WAITING_END	n/a	n/a	n/a	-999	24	[0, 0, 0]	n/a	FR1	0	R1292E
260214.742	10.429	4478989	COUNTDOWN_START	n/a	n/a	n/a	-999	24	[0, 0, 0]	n/a	FR1	0	R1292E
260225.171	0.0	4489418	COUNTDOWN_END	n/a	n/a	n/a	-999	24	[0, 0, 0]	n/a	FR1	0	R1292E
260225.171	1.257	4489418	ORIENT_START	n/a	n/a	n/a	-999	24	[0, 0, 0]	n/a	FR1	0	R1292E
260226.428	0.0	4490675	ORIENT_END	n/a	n/a	n/a	-999	24	[0, 0, 0]	n/a	FR1	0	R1292E
260226.428	1.074	4490675	ENCODING_START	n/a	n/a	n/a	-999	24	[0, 0, 0]	n/a	FR1	0	R1292E
260227.502	1.61	4491749	WORD	n/a	n/a	PEAR	1	24	[0, 0, 0]	n/a	FR1	0	R1292E
260229.112	0.866	4493359	WORD_OFF	n/a	n/a	PEAR	1	24	[0, 0, 0]	n/a	FR1	0	R1292E
260229.978	1.633	4494225	WORD	n/a	n/a	OAK	2	24	[0, 0, 0]	n/a	FR1	0	R1292E
260231.611	0.837	4495857	WORD_OFF	n/a	n/a	OAK	2	24	[0, 0, 0]	n/a	FR1	0	R1292E
260232.448	1.614	4496694	WORD	n/a	n/a	BROOM	3	24	[0, 0, 0]	n/a	FR1	0	R1292E
260234.062	0.958	4498308	WORD_OFF	n/a	n/a	BROOM	3	24	[0, 0, 0]	n/a	FR1	0	R1292E
260235.02	1.625	4499266	WORD	n/a	n/a	FRUIT	4	24	[0, 0, 0]	n/a	FR1	0	R1292E
260236.645	0.85	4500891	WORD_OFF	n/a	n/a	FRUIT	4	24	[0, 0, 0]	n/a	FR1	0	R1292E
260237.495	1.635	4501741	WORD	n/a	n/a	BAT	5	24	[0, 0, 0]	n/a	FR1	0	R1292E
260239.13	0.904	4503376	WORD_OFF	n/a	n/a	BAT	5	24	[0, 0, 0]	n/a	FR1	0	R1292E
260240.034	1.629	4504280	WORD	n/a	n/a	DOG	6	24	[0, 0, 0]	n/a	FR1	0	R1292E
260241.663	0.873	4505909	WORD_OFF	n/a	n/a	DOG	6	24	[0, 0, 0]	n/a	FR1	0	R1292E
260242.536	1.628	4506782	WORD	n/a	n/a	TAIL	7	24	[0, 0, 0]	n/a	FR1	0	R1292E
260244.164	1.045	4508410	WORD_OFF	n/a	n/a	TAIL	7	24	[0, 0, 0]	n/a	FR1	0	R1292E
260245.209	1.621	4509455	WORD	n/a	n/a	CAPE	8	24	[0, 0, 0]	n/a	FR1	0	R1292E
260246.83	0.991	4511076	WORD_OFF	n/a	n/a	CAPE	8	24	[0, 0, 0]	n/a	FR1	0	R1292E
260247.821	1.628	4512067	WORD	n/a	n/a	DOOR	9	24	[0, 0, 0]	n/a	FR1	0	R1292E
260249.449	0.758	4513695	WORD_OFF	n/a	n/a	DOOR	9	24	[0, 0, 0]	n/a	FR1	0	R1292E
260250.207	1.625	4514453	WORD	n/a	n/a	MAT	10	24	[0, 0, 0]	n/a	FR1	0	R1292E
260251.832	0.878	4516078	WORD_OFF	n/a	n/a	MAT	10	24	[0, 0, 0]	n/a	FR1	0	R1292E
260252.71	1.623	4516956	WORD	n/a	n/a	MOUSE	11	24	[0, 0, 0]	n/a	FR1	0	R1292E
260254.333	0.986	4518579	WORD_OFF	n/a	n/a	MOUSE	11	24	[0, 0, 0]	n/a	FR1	0	R1292E
260255.319	1.631	4519565	WORD	n/a	n/a	WALL	12	24	[0, 0, 0]	n/a	FR1	0	R1292E
260256.95	0.0	4521196	WORD_OFF	n/a	n/a	WALL	12	24	[0, 0, 0]	n/a	FR1	0	R1292E
260256.95	0.001	4521196	ENCODING_END	n/a	n/a	n/a	-999	24	[0, 0, 0]	n/a	FR1	0	R1292E
260256.951	0.0	4521197	DISTRACT_START	n/a	n/a	n/a	-999	24	[0, 0, 0]	n/a	FR1	0	R1292E
260256.951	0.015	4521197	START	n/a	n/a	n/a	-999	24	[-999, -999, -999]	n/a	FR1	0	R1292E
260256.966	11.969	4521212	PROB	11.969	n/a	n/a	-999	24	[3, 9, 5]	17	FR1	0	R1292E
260268.935	6.285	4533180	PROB	6.285	n/a	n/a	-999	24	[7, 7, 3]	17	FR1	0	R1292E
260275.22	6.216	4539465	PROB	6.216	n/a	n/a	-999	24	[2, 9, 7]	18	FR1	0	R1292E
260281.436	0.018	4545681	STOP	n/a	n/a	n/a	-999	24	[-999, -999, -999]	n/a	FR1	0	R1292E
260281.454	0.587	4545699	DISTRACT_END	n/a	n/a	n/a	-999	24	[0, 0, 0]	n/a	FR1	0	R1292E
260282.041	1.613	4546286	RETRIEVAL_ORIENT_START	n/a	n/a	n/a	-999	24	[0, 0, 0]	n/a	FR1	0	R1292E
260283.654	0.0	4547899	RETRIEVAL_ORIENT_END	n/a	n/a	n/a	-999	24	[0, 0, 0]	n/a	FR1	0	R1292E
260283.654	0.996	4547899	REC_START	n/a	n/a	n/a	-999	24	[0, 0, 0]	n/a	FR1	0	R1292E
260284.65	1.149	4548895	REC_WORD	1.149	n/a	FRUIT	4	24	[0, 0, 0]	n/a	FR1	0	R1292E
260285.799	1.403	4550044	REC_WORD	1.403	n/a	BAT	5	24	[0, 0, 0]	n/a	FR1	0	R1292E
