onset	duration	sample	trial_type	response_time	stim_file	item_name	serialpos	list	test	answer	experiment	session	subject
0.0	51.973	154767	SESS_START	n/a	n/a	n/a	-999	-999	[0, 0, 0]	n/a	FR1	1	R1127P
51.973	10.428	180752	COUNTDOWN_START	n/a	n/a	n/a	-999	-999	[0, 0, 0]	n/a	FR1	1	R1127P
62.401	3.658	185966	COUNTDOWN_END	n/a	n/a	n/a	-999	-999	[0, 0, 0]	n/a	FR1	1	R1127P
66.059	2.6	187795	PRACTICE_WORD	n/a	n/a	CAMEL	1	-1	[0, 0, 0]	n/a	FR1	1	R1127P
68.659	2.384	189095	PRACTICE_WORD	n/a	n/a	WAGON	2	-1	[0, 0, 0]	n/a	FR1	1	R1127P
71.043	2.533	190287	PRACTICE_WORD	n/a	n/a	WATCH	3	-1	[0, 0, 0]	n/a	FR1	1	R1127P
73.576	2.434	191553	PRACTICE_WORD	n/a	n/a	ATTIC	4	-1	[0, 0, 0]	n/a	FR1	1	R1127P
76.01	2.434	192770	PRACTICE_WORD	n/a	n/a	CHEST	5	-1	[0, 0, 0]	n/a	FR1	1	R1127P
78.444	2.451	193987	PRACTICE_WORD	n/a	n/a	TONGUE	6	-1	[0, 0, 0]	n/a	FR1	1	R1127P
80.895	2.5	195213	PRACTICE_WORD	n/a	n/a	IRON	7	-1	[0, 0, 0]	n/a	FR1	1	R1127P
83.395	2.617	196463	PRACTICE_WORD	n/a	n/a	RING	8	-1	[0, 0, 0]	n/a	FR1	1	R1127P
86.012	2.468	197771	PRACTICE_WORD	n/a	n/a	BEAM	9	-1	[0, 0, 0]	n/a	FR1	1	R1127P
88.48	2.55	199005	PRACTICE_WORD	n/a	n/a	FLOOD	10	-1	[0, 0, 0]	n/a	FR1	1	R1127P
91.03	2.501	200280	PRACTICE_WORD	n/a	n/a	RHINO	11	-1	[0, 0, 0]	n/a	FR1	1	R1127P
93.531	1.616	201530	PRACTICE_WORD	n/a	n/a	COTTON	12	-1	[0, 0, 0]	n/a	FR1	1	R1127P
95.147	0.001	202338	PRACTICE_DISTRACT_START	n/a	n/a	n/a	-999	-1	[0, 0, 0]	n/a	FR1	1	R1127P
95.148	0.016	202339	START	n/a	n/a	n/a	-999	-1	[-999, -999, -999]	n/a	FR1	1	R1127P
95.164	4.034	202347	PROB	4.034	n/a	n/a	-999	-1	[8, 1, 2]	11	FR1	1	R1127P
99.198	7.085	204364	PROB	7.085	n/a	n/a	-999	-1	[7, 9, 6]	22	FR1	1	R1127P
106.283	11.088	207906	PROB	11.088	n/a	n/a	-999	-1	[8, 9, 7]	24	FR1	1	R1127P
117.371	0.014	213450	STOP	n/a	n/a	n/a	-999	-1	[-999, -999, -999]	n/a	FR1	1	R1127P
117.385	0.552	213457	PRACTICE_DISTRACT_END	n/a	n/a	n/a	-999	-1	[0, 0, 0]	n/a	FR1	1	R1127P
117.937	30.515	213733	PRACTICE_REC_START	n/a	n/a	n/a	-999	-1	[0, 0, 0]	n/a	FR1	1	R1127P
148.452	25.827	228989	PRACTICE_REC_END	n/a	n/a	n/a	-999	-1	[0, 0, 0]	n/a	FR1	1	R1127P
174.279	0.0	241902	TRIAL	n/a	n/a	n/a	-999	1	[0, 0, 0]	n/a	FR1	1	R1127P
174.279	10.428	241902	COUNTDOWN_START	n/a	n/a	n/a	-999	1	[0, 0, 0]	n/a	FR1	1	R1127P
184.707	0.007	247116	COUNTDOWN_END	n/a	n/a	n/a	-999	1	[0, 0, 0]	n/a	FR1	1	R1127P
184.714	2.401	247119	ORIENT	n/a	n/a	n/a	-999	1	[0, 0, 0]	n/a	FR1	1	R1127P
187.115	2.45	248320	WORD	n/a	wordpools/wordpool_EN.txt	NAIL	1	1	[0, 0, 0]	n/a	FR1	1	R1127P
189.565	2.567	249545	WORD	n/a	wordpools/wordpool_EN.txt	PIT	2	1	[0, 0, 0]	n/a	FR1	1	R1127P
192.132	2.584	250828	WORD	n/a	wordpools/wordpool_EN.txt	FOOT	3	1	[0, 0, 0]	n/a	FR1	1	R1127P
194.716	2.484	252120	WORD	n/a	wordpools/wordpool_EN.txt	FACE	4	1	[0, 0, 0]	n/a	FR1	1	R1127P
197.2	2.617	253362	WORD	n/a	wordpools/wordpool_EN.txt	HILL	5	1	[0, 0, 0]	n/a	FR1	1	R1127P
199.817	2.417	254671	WORD	n/a	wordpools/wordpool_EN.txt	STICK	6	1	[0, 0, 0]	n/a	FR1	1	R1127P
202.234	2.451	255879	WORD	n/a	wordpools/wordpool_EN.txt	SOCK	7	1	[0, 0, 0]	n/a	FR1	1	R1127P
204.685	2.5	257104	WORD	n/a	wordpools/wordpool_EN.txt	DRESS	8	1	[0, 0, 0]	n/a	FR1	1	R1127P
207.185	2.467	258354	WORD	n/a	wordpools/wordpool_EN.txt	CONE	9	1	[0, 0, 0]	n/a	FR1	1	R1127P
209.652	2.384	259588	WORD	n/a	wordpools/wordpool_EN.txt	FLAME	10	1	[0, 0, 0]	n/a	FR1	1	R1127P
212.036	2.501	260780	WORD	n/a	wordpools/wordpool_EN.txt	BAG	11	1	[0, 0, 0]	n/a	FR1	1	R1127P
214.537	1.616	262030	WORD	n/a	wordpools/wordpool_EN.txt	FUDGE	12	1	[0, 0, 0]	n/a	FR1	1	R1127P
216.153	0.001	262838	DISTRACT_START	n/a	n/a	n/a	-999	1	[0, 0, 0]	n/a	FR1	1	R1127P
216.154	0.016	262839	START	n/a	n/a	n/a	-999	1	[-999, -999, -999]	n/a	FR1	1	R1127P
216.17	5.818	262847	PROB	5.818	n/a	n/a	-999	1	[3, 9, 5]	17	FR1	1	R1127P
221.988	7.601	265756	PROB	7.601	n/a	n/a	-999	1	[9, 2, 8]	20	FR1	1	R1127P
229.589	3.984	269556	PROB	3.984	n/a	n/a	-999	1	[9, 2, 1]	12	FR1	1	R1127P
233.573	8.046	271548	PROB	8.046	n/a	n/a	-999	1	[8, 1, 9]	18	FR1	1	R1127P
241.619	0.006	275571	STOP	n/a	n/a	n/a	-999	1	[-999, -999, -999]	n/a	FR1	1	R1127P
241.625	1.067	275574	DISTRACT_END	n/a	n/a	n/a	-999	1	[0, 0, 0]	n/a	FR1	1	R1127P
242.692	0.742	276107	REC_START	n/a	n/a	n/a	-999	1	[0, 0, 0]	n/a	FR1	1	R1127P
243.434	0.543	276478	REC_WORD	0.543	n/a	NAIL	-999	1	[0, 0, 0]	n/a	FR1	1	R1127P
243.977	0.461	276749	REC_WORD	0.461	n/a	PIT	-999	1	[0, 0, 0]	n/a	FR1	1	R1127P
244.438	1.288	276980	REC_WORD	1.288	n/a	FOOT	-999	1	[0, 0, 0]	n/a	FR1	1	R1127P
245.726	2.942	277624	REC_WORD	2.942	n/a	FACE	-999	1	[0, 0, 0]	n/a	FR1	1	R1127P
248.668	3.868	279095	REC_WORD_VV	3.868	n/a	<>	-999	1	[0, 0, 0]	n/a	FR1	1	R1127P
252.536	6.149	281029	REC_WORD_VV	6.149	n/a	<>	-999	1	[0, 0, 0]	n/a	FR1	1	R1127P
258.685	3.219	284103	REC_WORD_VV	3.219	n/a	<>	-999	1	[0, 0, 0]	n/a	FR1	1	R1127P
261.904	4.452	285713	REC_WORD_VV	4.452	n/a	<>	-999	1	[0, 0, 0]	n/a	FR1	1	R1127P
266.356	3.28	287938	REC_WORD_VV	3.28	n/a	<>	-999	1	[0, 0, 0]	n/a	FR1	1	R1127P
269.636	3.07	289578	REC_WORD	3.07	n/a	CAGE	-999	1	[0, 0, 0]	n/a	FR1	1	R1127P
272.706	3.776	291113	REC_END	n/a	n/a	n/a	-999	1	[0, 0, 0]	n/a	FR1	1	R1127P
276.482	0.0	293001	COUNTDOWN_START	n/a	n/a	n/a	-999	2	[0, 0, 0]	n/a	FR1	1	R1127P
276.482	10.428	293001	TRIAL	n/a	n/a	n/a	-999	2	[0, 0, 0]	n/a	FR1	1	R1127P
286.91	0.007	298215	COUNTDOWN_END	n/a	n/a	n/a	-999	2	[0, 0, 0]	n/a	FR1	1	R1127P
286.917	2.55	298218	ORIENT	n/a	n/a	n/a	-999	2	[0, 0, 0]	n/a	FR1	1	R1127P
289.467	2.401	299493	WORD	n/a	wordpools/wordpool_EN.txt	SPARK	1	2	[0, 0, 0]	n/a	FR1	1	R1127P
291.868	2.517	300694	WORD	n/a	wordpools/wordpool_EN.txt	SEAL	2	2	[0, 0, 0]	n/a	FR1	1	R1127P
294.385	2.467	301952	WORD	n/a	wordpools/wordpool_EN.txt	THREAD	3	2	[0, 0, 0]	n/a	FR1	1	R1127P
296.852	2.417	303186	WORD	n/a	wordpools/wordpool_EN.txt	DITCH	4	2	[0, 0, 0]	n/a	FR1	1	R1127P
299.269	2.384	304394	WORD	n/a	wordpools/wordpool_EN.txt	FLAG	5	2	[0, 0, 0]	n/a	FR1	1	R1127P
301.653	2.5	305586	WORD	n/a	wordpools/wordpool_EN.txt	SAIL	6	2	[0, 0, 0]	n/a	FR1	1	R1127P
304.153	2.417	306836	WORD	n/a	wordpools/wordpool_EN.txt	TANK	7	2	[0, 0, 0]	n/a	FR1	1	R1127P
306.57	2.568	308044	WORD	n/a	wordpools/wordpool_EN.txt	TOY	8	2	[0, 0, 0]	n/a	FR1	1	R1127P
309.138	2.45	309328	WORD	n/a	wordpools/wordpool_EN.txt	GRASS	9	2	[0, 0, 0]	n/a	FR1	1	R1127P
311.588	2.45	310553	WORD	n/a	wordpools/wordpool_EN.txt	SEA	10	2	[0, 0, 0]	n/a	FR1	1	R1127P
314.038	2.452	311778	WORD	n/a	wordpools/wordpool_EN.txt	SHIP	11	2	[0, 0, 0]	n/a	FR1	1	R1127P
316.49	1.616	313004	WORD	n/a	wordpools/wordpool_EN.txt	PIN	12	2	[0, 0, 0]	n/a	FR1	1	R1127P
318.106	0.001	313812	DISTRACT_START	n/a	n/a	n/a	-999	2	[0, 0, 0]	n/a	FR1	1	R1127P
318.107	0.015	313813	START	n/a	n/a	n/a	-999	2	[-999, -999, -999]	n/a	FR1	1	R1127P
318.122	5.452	313820	PROB	5.452	n/a	n/a	-999	2	[3, 9, 6]	19	FR1	1	R1127P
323.574	5.584	316546	PROB	5.584	n/a	n/a	-999	2	[6, 2, 5]	14	FR1	1	R1127P
329.158	5.568	319338	PROB	5.568	n/a	n/a	-999	2	[1, 9, 6]	17	FR1	1	R1127P
334.726	3.605	322122	PROB	3.605	n/a	n/a	-999	2	[3, 6, 3]	12	FR1	1	R1127P
338.331	0.012	323924	STOP	n/a	n/a	n/a	-999	2	[-999, -999, -999]	n/a	FR1	1	R1127P
338.343	1.101	323930	DISTRACT_END	n/a	n/a	n/a	-999	2	[0, 0, 0]	n/a	FR1	1	R1127P
339.444	0.92	324481	REC_START	n/a	n/a	n/a	-999	2	[0, 0, 0]	n/a	FR1	1	R1127P
340.364	0.83	324941	REC_WORD	0.83	n/a	SPARK	-999	2	[0, 0, 0]	n/a	FR1	1	R1127P
341.194	1.158	325356	REC_WORD	1.158	n/a	SEAL	-999	2	[0, 0, 0]	n/a	FR1	1	R1127P
342.352	5.755	325935	REC_WORD	5.755	n/a	DITCH	-999	2	[0, 0, 0]	n/a	FR1	1	R1127P
348.107	0.406	328812	REC_WORD_VV	0.406	n/a	<>	-999	2	[0, 0, 0]	n/a	FR1	1	R1127P
348.513	3.367	329015	REC_WORD	3.367	n/a	THREAD	-999	2	[0, 0, 0]	n/a	FR1	1	R1127P
351.88	4.049	330698	REC_WORD_VV	4.049	n/a	<>	-999	2	[0, 0, 0]	n/a	FR1	1	R1127P
355.929	11.378	332723	REC_WORD_VV	11.378	n/a	<>	-999	2	[0, 0, 0]	n/a	FR1	1	R1127P
367.307	2.148	338411	REC_WORD_VV	2.148	n/a	<>	-999	2	[0, 0, 0]	n/a	FR1	1	R1127P
369.455	2.661	339485	REC_END	n/a	n/a	n/a	-999	2	[0, 0, 0]	n/a	FR1	1	R1127P
372.116	0.0	340816	TRIAL	n/a	n/a	n/a	-999	3	[0, 0, 0]	n/a	FR1	1	R1127P
372.116	10.428	340816	COUNTDOWN_START	n/a	n/a	n/a	-999	3	[0, 0, 0]	n/a	FR1	1	R1127P
382.544	0.007	346029	COUNTDOWN_END	n/a	n/a	n/a	-999	3	[0, 0, 0]	n/a	FR1	1	R1127P
382.551	2.584	346033	ORIENT	n/a	n/a	n/a	-999	3	[0, 0, 0]	n/a	FR1	1	R1127P
385.135	2.534	347325	WORD	n/a	wordpools/wordpool_EN.txt	SCHOOL	1	3	[0, 0, 0]	n/a	FR1	1	R1127P
387.669	2.533	348592	WORD	n/a	wordpools/wordpool_EN.txt	RAT	2	3	[0, 0, 0]	n/a	FR1	1	R1127P
390.202	2.451	349858	WORD	n/a	wordpools/wordpool_EN.txt	VAN	3	3	[0, 0, 0]	n/a	FR1	1	R1127P
392.653	2.434	351084	WORD	n/a	wordpools/wordpool_EN.txt	PET	4	3	[0, 0, 0]	n/a	FR1	1	R1127P
395.087	2.567	352301	WORD	n/a	wordpools/wordpool_EN.txt	HAWK	5	3	[0, 0, 0]	n/a	FR1	1	R1127P
397.654	2.451	353584	WORD	n/a	wordpools/wordpool_EN.txt	SKUNK	6	3	[0, 0, 0]	n/a	FR1	1	R1127P
400.105	2.55	354810	WORD	n/a	wordpools/wordpool_EN.txt	POND	7	3	[0, 0, 0]	n/a	FR1	1	R1127P
402.655	2.567	356084	WORD	n/a	wordpools/wordpool_EN.txt	DUCK	8	3	[0, 0, 0]	n/a	FR1	1	R1127P
405.222	2.434	357368	WORD	n/a	wordpools/wordpool_EN.txt	BOARD	9	3	[0, 0, 0]	n/a	FR1	1	R1127P
407.656	2.567	358585	WORD	n/a	wordpools/wordpool_EN.txt	DOCK	10	3	[0, 0, 0]	n/a	FR1	1	R1127P
410.223	2.484	359868	WORD	n/a	wordpools/wordpool_EN.txt	STORE	11	3	[0, 0, 0]	n/a	FR1	1	R1127P
412.707	1.617	361110	WORD	n/a	wordpools/wordpool_EN.txt	APE	12	3	[0, 0, 0]	n/a	FR1	1	R1127P
414.324	0.001	361919	DISTRACT_START	n/a	n/a	n/a	-999	3	[0, 0, 0]	n/a	FR1	1	R1127P
414.325	0.016	361919	START	n/a	n/a	n/a	-999	3	[-999, -999, -999]	n/a	FR1	1	R1127P
414.341	3.1	361927	PROB	3.1	n/a	n/a	-999	3	[4, 4, 1]	9	FR1	1	R1127P
417.441	5.484	363477	PROB	5.484	n/a	n/a	-999	3	[5, 7, 3]	16	FR1	1	R1127P
422.925	5.785	366219	PROB	5.785	n/a	n/a	-999	3	[8, 6, 8]	22	FR1	1	R1127P
428.71	9.444	369111	PROB	9.444	n/a	n/a	-999	3	[9, 2, 8]	29	FR1	1	R1127P
438.154	0.008	373833	STOP	n/a	n/a	n/a	-999	3	[-999, -999, -999]	n/a	FR1	1	R1127P
438.162	1.217	373837	DISTRACT_END	n/a	n/a	n/a	-999	3	[0, 0, 0]	n/a	FR1	1	R1127P
439.379	0.563	374446	REC_START	n/a	n/a	n/a	-999	3	[0, 0, 0]	n/a	FR1	1	R1127P
439.942	1.119	374727	REC_WORD	1.119	n/a	SCHOOL	-999	3	[0, 0, 0]	n/a	FR1	1	R1127P
441.061	1.651	375287	REC_WORD	1.651	n/a	RAT	-999	3	[0, 0, 0]	n/a	FR1	1	R1127P
442.712	4.47	376112	REC_WORD	4.47	n/a	DUCK	-999	3	[0, 0, 0]	n/a	FR1	1	R1127P
447.182	0.435	378347	REC_WORD_VV	0.435	n/a	<>	-999	3	[0, 0, 0]	n/a	FR1	1	R1127P
447.617	0.611	378564	REC_WORD	0.611	n/a	SCHOOL	-999	3	[0, 0, 0]	n/a	FR1	1	R1127P
448.228	1.232	378870	REC_WORD	1.232	n/a	RAT	-999	3	[0, 0, 0]	n/a	FR1	1	R1127P
449.46	6.781	379486	REC_WORD	6.781	n/a	DUCK	-999	3	[0, 0, 0]	n/a	FR1	1	R1127P
456.241	0.323	382876	REC_WORD	0.323	n/a	WALL	-999	3	[0, 0, 0]	n/a	FR1	1	R1127P
456.564	0.651	383038	REC_WORD_VV	0.651	n/a	<>	-999	3	[0, 0, 0]	n/a	FR1	1	R1127P
457.215	6.734	383363	REC_WORD	6.734	n/a	WALL	-999	3	[0, 0, 0]	n/a	FR1	1	R1127P
463.949	1.233	386730	REC_WORD	1.233	n/a	PAGE	-999	3	[0, 0, 0]	n/a	FR1	1	R1127P
465.182	0.151	387346	REC_WORD_VV	0.151	n/a	<>	-999	3	[0, 0, 0]	n/a	FR1	1	R1127P
465.333	4.06	387422	REC_WORD	4.06	n/a	PAGE	-999	3	[0, 0, 0]	n/a	FR1	1	R1127P
469.393	2.425	389452	REC_END	n/a	n/a	n/a	-999	3	[0, 0, 0]	n/a	FR1	1	R1127P
471.818	0.0	390664	COUNTDOWN_START	n/a	n/a	n/a	-999	4	[0, 0, 0]	n/a	FR1	1	R1127P
471.818	10.428	390664	TRIAL	n/a	n/a	n/a	-999	4	[0, 0, 0]	n/a	FR1	1	R1127P
482.246	0.007	395878	COUNTDOWN_END	n/a	n/a	n/a	-999	4	[0, 0, 0]	n/a	FR1	1	R1127P
482.253	2.517	395881	ORIENT	n/a	n/a	n/a	-999	4	[0, 0, 0]	n/a	FR1	1	R1127P
484.77	2.384	397140	WORD	n/a	wordpools/wordpool_EN.txt	BOMB	1	4	[0, 0, 0]	n/a	FR1	1	R1127P
487.154	2.401	398332	WORD	n/a	wordpools/wordpool_EN.txt	FORT	2	4	[0, 0, 0]	n/a	FR1	1	R1127P
489.555	2.583	399532	WORD	n/a	wordpools/wordpool_EN.txt	STEAM	3	4	[0, 0, 0]	n/a	FR1	1	R1127P
492.138	2.468	400824	WORD	n/a	wordpools/wordpool_EN.txt	DRUM	4	4	[0, 0, 0]	n/a	FR1	1	R1127P
494.606	2.5	402058	WORD	n/a	wordpools/wordpool_EN.txt	BARN	5	4	[0, 0, 0]	n/a	FR1	1	R1127P
497.106	2.601	403308	WORD	n/a	wordpools/wordpool_EN.txt	TRASH	6	4	[0, 0, 0]	n/a	FR1	1	R1127P
499.707	2.583	404608	WORD	n/a	wordpools/wordpool_EN.txt	FLUTE	7	4	[0, 0, 0]	n/a	FR1	1	R1127P
502.29	2.551	405899	WORD	n/a	wordpools/wordpool_EN.txt	WHEEL	8	4	[0, 0, 0]	n/a	FR1	1	R1127P
504.841	2.4	407175	WORD	n/a	wordpools/wordpool_EN.txt	RAIN	9	4	[0, 0, 0]	n/a	FR1	1	R1127P
507.241	2.584	408375	WORD	n/a	wordpools/wordpool_EN.txt	BRIDGE	10	4	[0, 0, 0]	n/a	FR1	1	R1127P
509.825	2.4	409667	WORD	n/a	wordpools/wordpool_EN.txt	LAND	11	4	[0, 0, 0]	n/a	FR1	1	R1127P
512.225	1.617	410867	WORD	n/a	wordpools/wordpool_EN.txt	FOG	12	4	[0, 0, 0]	n/a	FR1	1	R1127P
513.842	0.001	411675	DISTRACT_START	n/a	n/a	n/a	-999	4	[0, 0, 0]	n/a	FR1	1	R1127P
513.843	0.016	411676	START	n/a	n/a	n/a	-999	4	[-999, -999, -999]	n/a	FR1	1	R1127P
513.859	3.501	411684	PROB	3.501	n/a	n/a	-999	4	[2, 8, 2]	12	FR1	1	R1127P
517.36	4.534	413434	PROB	4.534	n/a	n/a	-999	4	[1, 5, 3]	9	FR1	1	R1127P
521.894	5.351	415701	PROB	5.351	n/a	n/a	-999	4	[5, 1, 4]	10	FR1	1	R1127P
527.245	4.451	418376	PROB	4.451	n/a	n/a	-999	4	[2, 3, 5]	10	FR1	1	R1127P
531.696	6.475	420602	PROB	6.475	n/a	n/a	-999	4	[7, 4, 9]	20	FR1	1	R1127P
538.171	0.009	423839	STOP	n/a	n/a	n/a	-999	4	[-999, -999, -999]	n/a	FR1	1	R1127P
538.18	1.151	423844	DISTRACT_END	n/a	n/a	n/a	-999	4	[0, 0, 0]	n/a	FR1	1	R1127P
539.331	0.745	424419	REC_START	n/a	n/a	n/a	-999	4	[0, 0, 0]	n/a	FR1	1	R1127P
540.076	0.539	424792	REC_WORD	0.539	n/a	BOMB	-999	4	[0, 0, 0]	n/a	FR1	1	R1127P
540.615	1.041	425061	REC_WORD	1.041	n/a	STEAM	-999	4	[0, 0, 0]	n/a	FR1	1	R1127P
541.656	0.879	425581	REC_WORD	0.879	n/a	PORT	-999	4	[0, 0, 0]	n/a	FR1	1	R1127P
542.535	3.659	426021	REC_WORD	3.659	n/a	DRUM	-999	4	[0, 0, 0]	n/a	FR1	1	R1127P
546.194	1.0	427850	REC_WORD_VV	1.0	n/a	<>	-999	4	[0, 0, 0]	n/a	FR1	1	R1127P
547.194	1.0	428350	REC_WORD_VV	1.0	n/a	<>	-999	4	[0, 0, 0]	n/a	FR1	1	R1127P
548.194	2.902	428850	REC_WORD_VV	2.902	n/a	<>	-999	4	[0, 0, 0]	n/a	FR1	1	R1127P
551.096	9.582	430301	REC_WORD_VV	9.582	n/a	<>	-999	4	[0, 0, 0]	n/a	FR1	1	R1127P
560.678	1.0	435092	REC_WORD_VV	1.0	n/a	<>	-999	4	[0, 0, 0]	n/a	FR1	1	R1127P
561.678	5.36	435592	REC_WORD_VV	5.36	n/a	<>	-999	4	[0, 0, 0]	n/a	FR1	1	R1127P
567.038	0.44	438272	REC_WORD_VV	0.44	n/a	<>	-999	4	[0, 0, 0]	n/a	FR1	1	R1127P
567.478	1.864	438492	REC_WORD	1.864	n/a	CAGE	-999	4	[0, 0, 0]	n/a	FR1	1	R1127P
569.342	2.611	439424	REC_END	n/a	n/a	n/a	-999	4	[0, 0, 0]	n/a	FR1	1	R1127P
571.953	0.001	440729	COUNTDOWN_START	n/a	n/a	n/a	-999	5	[0, 0, 0]	n/a	FR1	1	R1127P
571.954	10.427	440730	TRIAL	n/a	n/a	n/a	-999	5	[0, 0, 0]	n/a	FR1	1	R1127P
582.381	0.008	445943	COUNTDOWN_END	n/a	n/a	n/a	-999	5	[0, 0, 0]	n/a	FR1	1	R1127P
582.389	2.55	445947	ORIENT	n/a	n/a	n/a	-999	5	[0, 0, 0]	n/a	FR1	1	R1127P
584.939	2.467	447222	WORD	n/a	wordpools/wordpool_EN.txt	YARD	1	5	[0, 0, 0]	n/a	FR1	1	R1127P
587.406	2.517	448455	WORD	n/a	wordpools/wordpool_EN.txt	HOLE	2	5	[0, 0, 0]	n/a	FR1	1	R1127P
589.923	2.401	449714	WORD	n/a	wordpools/wordpool_EN.txt	BUSH	3	5	[0, 0, 0]	n/a	FR1	1	R1127P
592.324	2.384	450914	WORD	n/a	wordpools/wordpool_EN.txt	OWL	4	5	[0, 0, 0]	n/a	FR1	1	R1127P
594.708	2.567	452106	WORD	n/a	wordpools/wordpool_EN.txt	BRUSH	5	5	[0, 0, 0]	n/a	FR1	1	R1127P
597.275	2.517	453390	WORD	n/a	wordpools/wordpool_EN.txt	PIPE	6	5	[0, 0, 0]	n/a	FR1	1	R1127P
599.792	2.4	454648	WORD	n/a	wordpools/wordpool_EN.txt	CLIFF	7	5	[0, 0, 0]	n/a	FR1	1	R1127P
602.192	2.434	455848	WORD	n/a	wordpools/wordpool_EN.txt	MULE	8	5	[0, 0, 0]	n/a	FR1	1	R1127P
604.626	2.417	457065	WORD	n/a	wordpools/wordpool_EN.txt	SPEAR	9	5	[0, 0, 0]	n/a	FR1	1	R1127P
607.043	2.401	458273	WORD	n/a	wordpools/wordpool_EN.txt	BAND	10	5	[0, 0, 0]	n/a	FR1	1	R1127P
609.444	2.384	459474	WORD	n/a	wordpools/wordpool_EN.txt	FROG	11	5	[0, 0, 0]	n/a	FR1	1	R1127P
611.828	1.616	460666	WORD	n/a	wordpools/wordpool_EN.txt	ROOF	12	5	[0, 0, 0]	n/a	FR1	1	R1127P
613.444	0.001	461474	DISTRACT_START	n/a	n/a	n/a	-999	5	[0, 0, 0]	n/a	FR1	1	R1127P
613.445	0.016	461474	START	n/a	n/a	n/a	-999	5	[-999, -999, -999]	n/a	FR1	1	R1127P
613.461	4.334	461482	PROB	4.334	n/a	n/a	-999	5	[4, 8, 8]	20	FR1	1	R1127P
617.795	6.468	463649	PROB	6.468	n/a	n/a	-999	5	[5, 6, 9]	20	FR1	1	R1127P
624.263	6.718	466883	PROB	6.718	n/a	n/a	-999	5	[7, 7, 6]	20	FR1	1	R1127P
630.981	4.702	470242	PROB	4.702	n/a	n/a	-999	5	[4, 2, 2]	8	FR1	1	R1127P
635.683	0.016	472593	STOP	n/a	n/a	n/a	-999	5	[-999, -999, -999]	n/a	FR1	1	R1127P
635.699	1.217	472601	DISTRACT_END	n/a	n/a	n/a	-999	5	[0, 0, 0]	n/a	FR1	1	R1127P
636.916	2.088	473209	REC_START	n/a	n/a	n/a	-999	5	[0, 0, 0]	n/a	FR1	1	R1127P
639.004	1.0	474253	REC_WORD_VV	1.0	n/a	<>	-999	5	[0, 0, 0]	n/a	FR1	1	R1127P
640.004	3.4	474753	REC_WORD_VV	3.4	n/a	<>	-999	5	[0, 0, 0]	n/a	FR1	1	R1127P
643.404	2.449	476453	REC_WORD	2.449	n/a	BARN	-999	5	[0, 0, 0]	n/a	FR1	1	R1127P
645.853	0.397	477677	REC_WORD	0.397	n/a	PHONE	-999	5	[0, 0, 0]	n/a	FR1	1	R1127P
646.25	4.216	477876	REC_WORD	4.216	n/a	STEEP	-999	5	[0, 0, 0]	n/a	FR1	1	R1127P
650.466	4.59	479984	REC_WORD	4.59	n/a	PORT	-999	5	[0, 0, 0]	n/a	FR1	1	R1127P
655.056	0.671	482279	REC_WORD_VV	0.671	n/a	<>	-999	5	[0, 0, 0]	n/a	FR1	1	R1127P
655.727	4.161	482614	REC_WORD	4.161	n/a	HOOF	-999	5	[0, 0, 0]	n/a	FR1	1	R1127P
659.888	4.677	484694	REC_WORD	4.677	n/a	POOL	-999	5	[0, 0, 0]	n/a	FR1	1	R1127P
664.565	2.365	487033	REC_WORD_VV	2.365	n/a	<>	-999	5	[0, 0, 0]	n/a	FR1	1	R1127P
666.93	2.175	488215	REC_END	n/a	n/a	n/a	-999	5	[0, 0, 0]	n/a	FR1	1	R1127P
669.105	0.0	489303	TRIAL	n/a	n/a	n/a	-999	6	[0, 0, 0]	n/a	FR1	1	R1127P
669.105	10.428	489303	COUNTDOWN_START	n/a	n/a	n/a	-999	6	[0, 0, 0]	n/a	FR1	1	R1127P
679.533	0.008	494516	COUNTDOWN_END	n/a	n/a	n/a	-999	6	[0, 0, 0]	n/a	FR1	1	R1127P
679.541	2.4	494520	ORIENT	n/a	n/a	n/a	-999	6	[0, 0, 0]	n/a	FR1	1	R1127P
681.941	2.601	495720	WORD	n/a	wordpools/wordpool_EN.txt	SQUARE	1	6	[0, 0, 0]	n/a	FR1	1	R1127P
684.542	2.516	497021	WORD	n/a	wordpools/wordpool_EN.txt	CART	2	6	[0, 0, 0]	n/a	FR1	1	R1127P
687.058	2.485	498279	WORD	n/a	wordpools/wordpool_EN.txt	BOWL	3	6	[0, 0, 0]	n/a	FR1	1	R1127P
689.543	2.483	499521	WORD	n/a	wordpools/wordpool_EN.txt	BOY	4	6	[0, 0, 0]	n/a	FR1	1	R1127P
692.026	2.567	500763	WORD	n/a	wordpools/wordpool_EN.txt	WOOD	5	6	[0, 0, 0]	n/a	FR1	1	R1127P
694.593	2.617	502046	WORD	n/a	wordpools/wordpool_EN.txt	BOAT	6	6	[0, 0, 0]	n/a	FR1	1	R1127P
697.21	2.384	503355	WORD	n/a	wordpools/wordpool_EN.txt	CROWN	7	6	[0, 0, 0]	n/a	FR1	1	R1127P
699.594	2.45	504546	WORD	n/a	wordpools/wordpool_EN.txt	CLAY	8	6	[0, 0, 0]	n/a	FR1	1	R1127P
702.044	2.568	505771	WORD	n/a	wordpools/wordpool_EN.txt	CANE	9	6	[0, 0, 0]	n/a	FR1	1	R1127P
704.612	2.533	507055	WORD	n/a	wordpools/wordpool_EN.txt	SLEEVE	10	6	[0, 0, 0]	n/a	FR1	1	R1127P
707.145	2.618	508322	WORD	n/a	wordpools/wordpool_EN.txt	SWORD	11	6	[0, 0, 0]	n/a	FR1	1	R1127P
709.763	1.616	509631	WORD	n/a	wordpools/wordpool_EN.txt	CUBE	12	6	[0, 0, 0]	n/a	FR1	1	R1127P
711.379	0.001	510439	DISTRACT_START	n/a	n/a	n/a	-999	6	[0, 0, 0]	n/a	FR1	1	R1127P
711.38	0.016	510439	START	n/a	n/a	n/a	-999	6	[-999, -999, -999]	n/a	FR1	1	R1127P
711.396	5.985	510447	PROB	5.985	n/a	n/a	-999	6	[2, 9, 5]	16	FR1	1	R1127P
717.381	5.617	513440	PROB	5.617	n/a	n/a	-999	6	[9, 8, 1]	20	FR1	1	R1127P
722.998	5.918	516248	PROB	5.918	n/a	n/a	-999	6	[8, 3, 6]	17	FR1	1	R1127P
728.916	10.871	519207	PROB	10.871	n/a	n/a	-999	6	[4, 9, 4]	18	FR1	1	R1127P
739.787	0.015	524642	STOP	n/a	n/a	n/a	-999	6	[-999, -999, -999]	n/a	FR1	1	R1127P
739.802	1.2	524649	DISTRACT_END	n/a	n/a	n/a	-999	6	[0, 0, 0]	n/a	FR1	1	R1127P
741.002	0.665	525249	REC_START	n/a	n/a	n/a	-999	6	[0, 0, 0]	n/a	FR1	1	R1127P
741.667	0.862	525582	REC_WORD	0.862	n/a	SQUARE	-999	6	[0, 0, 0]	n/a	FR1	1	R1127P
742.529	0.51	526013	REC_WORD	0.51	n/a	SQUARE	-999	6	[0, 0, 0]	n/a	FR1	1	R1127P
743.039	0.58	526268	REC_WORD	0.58	n/a	CART	-999	6	[0, 0, 0]	n/a	FR1	1	R1127P
743.619	1.325	526558	REC_WORD	1.325	n/a	BOWL	-999	6	[0, 0, 0]	n/a	FR1	1	R1127P
744.944	6.129	527220	REC_WORD	6.129	n/a	BOY	-999	6	[0, 0, 0]	n/a	FR1	1	R1127P
751.073	4.133	530285	REC_WORD_VV	4.133	n/a	<>	-999	6	[0, 0, 0]	n/a	FR1	1	R1127P
755.206	0.32	532351	REC_WORD_VV	0.32	n/a	<>	-999	6	[0, 0, 0]	n/a	FR1	1	R1127P
755.526	10.338	532511	REC_WORD	10.338	n/a	WHEEL	-999	6	[0, 0, 0]	n/a	FR1	1	R1127P
765.864	5.152	537680	REC_WORD	5.152	n/a	CART	-999	6	[0, 0, 0]	n/a	FR1	1	R1127P
771.016	1.708	540256	REC_END	n/a	n/a	n/a	-999	6	[0, 0, 0]	n/a	FR1	1	R1127P
772.724	0.001	541110	COUNTDOWN_START	n/a	n/a	n/a	-999	7	[0, 0, 0]	n/a	FR1	1	R1127P
772.725	10.427	541110	TRIAL	n/a	n/a	n/a	-999	7	[0, 0, 0]	n/a	FR1	1	R1127P
783.152	0.008	546323	COUNTDOWN_END	n/a	n/a	n/a	-999	7	[0, 0, 0]	n/a	FR1	1	R1127P
783.16	2.517	546327	ORIENT	n/a	n/a	n/a	-999	7	[0, 0, 0]	n/a	FR1	1	R1127P
785.677	2.467	547586	WORD	n/a	wordpools/wordpool_EN.txt	RICE	1	7	[0, 0, 0]	n/a	FR1	1	R1127P
788.144	2.45	548819	WORD	n/a	wordpools/wordpool_EN.txt	EGG	2	7	[0, 0, 0]	n/a	FR1	1	R1127P
790.594	2.517	550044	WORD	n/a	wordpools/wordpool_EN.txt	CORD	3	7	[0, 0, 0]	n/a	FR1	1	R1127P
793.111	2.402	551303	WORD	n/a	wordpools/wordpool_EN.txt	NET	4	7	[0, 0, 0]	n/a	FR1	1	R1127P
795.513	2.45	552504	WORD	n/a	wordpools/wordpool_EN.txt	WAVE	5	7	[0, 0, 0]	n/a	FR1	1	R1127P
797.963	2.5	553729	WORD	n/a	wordpools/wordpool_EN.txt	POLE	6	7	[0, 0, 0]	n/a	FR1	1	R1127P
800.463	2.433	554978	WORD	n/a	wordpools/wordpool_EN.txt	PEA	7	7	[0, 0, 0]	n/a	FR1	1	R1127P
802.896	2.451	556195	WORD	n/a	wordpools/wordpool_EN.txt	TOAD	8	7	[0, 0, 0]	n/a	FR1	1	R1127P
805.347	2.517	557420	WORD	n/a	wordpools/wordpool_EN.txt	SHEET	9	7	[0, 0, 0]	n/a	FR1	1	R1127P
807.864	2.534	558679	WORD	n/a	wordpools/wordpool_EN.txt	CASH	10	7	[0, 0, 0]	n/a	FR1	1	R1127P
810.398	2.584	559946	WORD	n/a	wordpools/wordpool_EN.txt	HEN	11	7	[0, 0, 0]	n/a	FR1	1	R1127P
812.982	1.617	561238	WORD	n/a	wordpools/wordpool_EN.txt	COIN	12	7	[0, 0, 0]	n/a	FR1	1	R1127P
814.599	0.001	562046	DISTRACT_START	n/a	n/a	n/a	-999	7	[0, 0, 0]	n/a	FR1	1	R1127P
814.6	0.015	562047	START	n/a	n/a	n/a	-999	7	[-999, -999, -999]	n/a	FR1	1	R1127P
814.615	5.485	562054	PROB	5.485	n/a	n/a	-999	7	[2, 5, 7]	14	FR1	1	R1127P
820.1	5.901	564796	PROB	5.901	n/a	n/a	-999	7	[4, 8, 5]	17	FR1	1	R1127P
826.001	5.834	567747	PROB	5.834	n/a	n/a	-999	7	[3, 6, 5]	15	FR1	1	R1127P
831.835	4.76	570664	PROB	4.76	n/a	n/a	-999	7	[1, 1, 2]	4	FR1	1	R1127P
836.595	0.008	573044	STOP	n/a	n/a	n/a	-999	7	[-999, -999, -999]	n/a	FR1	1	R1127P
836.603	1.218	573048	DISTRACT_END	n/a	n/a	n/a	-999	7	[0, 0, 0]	n/a	FR1	1	R1127P
837.821	0.759	573656	REC_START	n/a	n/a	n/a	-999	7	[0, 0, 0]	n/a	FR1	1	R1127P
838.58	0.765	574036	REC_WORD	0.765	n/a	RICE	-999	7	[0, 0, 0]	n/a	FR1	1	R1127P
839.345	3.72	574418	REC_WORD	3.72	n/a	EGG	-999	7	[0, 0, 0]	n/a	FR1	1	R1127P
843.065	0.888	576278	REC_WORD_VV	0.888	n/a	<>	-999	7	[0, 0, 0]	n/a	FR1	1	R1127P
843.953	6.808	576722	REC_WORD	6.808	n/a	CORD	-999	7	[0, 0, 0]	n/a	FR1	1	R1127P
850.761	0.735	580126	REC_WORD	0.735	n/a	RICE	-999	7	[0, 0, 0]	n/a	FR1	1	R1127P
851.496	0.315	580494	REC_WORD	0.315	n/a	EGG	-999	7	[0, 0, 0]	n/a	FR1	1	R1127P
851.811	0.386	580651	REC_WORD	0.386	n/a	BOWL	-999	7	[0, 0, 0]	n/a	FR1	1	R1127P
852.197	10.72	580844	REC_WORD	10.72	n/a	CORD	-999	7	[0, 0, 0]	n/a	FR1	1	R1127P
862.917	0.361	586204	REC_WORD_VV	0.361	n/a	<>	-999	7	[0, 0, 0]	n/a	FR1	1	R1127P
863.278	0.885	586384	REC_WORD	0.885	n/a	HOLE	-999	7	[0, 0, 0]	n/a	FR1	1	R1127P
864.163	3.668	586827	REC_WORD	3.668	n/a	HOLE	-999	7	[0, 0, 0]	n/a	FR1	1	R1127P
867.831	1.862	588661	REC_END	n/a	n/a	n/a	-999	7	[0, 0, 0]	n/a	FR1	1	R1127P
869.693	0.0	589592	TRIAL	n/a	n/a	n/a	-999	8	[0, 0, 0]	n/a	FR1	1	R1127P
869.693	10.428	589592	COUNTDOWN_START	n/a	n/a	n/a	-999	8	[0, 0, 0]	n/a	FR1	1	R1127P
880.121	0.007	594805	COUNTDOWN_END	n/a	n/a	n/a	-999	8	[0, 0, 0]	n/a	FR1	1	R1127P
880.128	2.385	594809	ORIENT	n/a	n/a	n/a	-999	8	[0, 0, 0]	n/a	FR1	1	R1127P
882.513	2.632	596001	WORD	n/a	wordpools/wordpool_EN.txt	TOE	1	8	[0, 0, 0]	n/a	FR1	1	R1127P
885.145	2.584	597317	WORD	n/a	wordpools/wordpool_EN.txt	CHIN	2	8	[0, 0, 0]	n/a	FR1	1	R1127P
887.729	2.567	598609	WORD	n/a	wordpools/wordpool_EN.txt	WING	3	8	[0, 0, 0]	n/a	FR1	1	R1127P
890.296	2.618	599893	WORD	n/a	wordpools/wordpool_EN.txt	GLOVE	4	8	[0, 0, 0]	n/a	FR1	1	R1127P
892.914	2.483	601202	WORD	n/a	wordpools/wordpool_EN.txt	NOSE	5	8	[0, 0, 0]	n/a	FR1	1	R1127P
895.397	2.568	602443	WORD	n/a	wordpools/wordpool_EN.txt	CAT	6	8	[0, 0, 0]	n/a	FR1	1	R1127P
897.965	2.483	603727	WORD	n/a	wordpools/wordpool_EN.txt	FUR	7	8	[0, 0, 0]	n/a	FR1	1	R1127P
900.448	2.601	604968	WORD	n/a	wordpools/wordpool_EN.txt	OAR	8	8	[0, 0, 0]	n/a	FR1	1	R1127P
903.049	2.617	606269	WORD	n/a	wordpools/wordpool_EN.txt	TREE	9	8	[0, 0, 0]	n/a	FR1	1	R1127P
905.666	2.467	607577	WORD	n/a	wordpools/wordpool_EN.txt	SHIELD	10	8	[0, 0, 0]	n/a	FR1	1	R1127P
908.133	2.551	608811	WORD	n/a	wordpools/wordpool_EN.txt	ROPE	11	8	[0, 0, 0]	n/a	FR1	1	R1127P
910.684	1.617	610086	WORD	n/a	wordpools/wordpool_EN.txt	BLOOM	12	8	[0, 0, 0]	n/a	FR1	1	R1127P
912.301	0.0	610895	DISTRACT_START	n/a	n/a	n/a	-999	8	[0, 0, 0]	n/a	FR1	1	R1127P
912.301	0.016	610895	START	n/a	n/a	n/a	-999	8	[-999, -999, -999]	n/a	FR1	1	R1127P
912.317	5.034	610903	PROB	5.034	n/a	n/a	-999	8	[9, 1, 5]	15	FR1	1	R1127P
917.351	10.187	613419	PROB	10.187	n/a	n/a	-999	8	[8, 6, 9]	25	FR1	1	R1127P
927.538	5.912	618513	PROB	5.912	n/a	n/a	-999	8	[8, 9, 8]	25	FR1	1	R1127P
933.45	0.004	621469	STOP	n/a	n/a	n/a	-999	8	[-999, -999, -999]	n/a	FR1	1	R1127P
933.454	1.069	621471	DISTRACT_END	n/a	n/a	n/a	-999	8	[0, 0, 0]	n/a	FR1	1	R1127P
934.523	1.196	622005	REC_START	n/a	n/a	n/a	-999	8	[0, 0, 0]	n/a	FR1	1	R1127P
935.719	1.001	622603	REC_WORD	1.001	n/a	CHIN	-999	8	[0, 0, 0]	n/a	FR1	1	R1127P
936.72	1.668	623103	REC_WORD	1.668	n/a	CHIN	-999	8	[0, 0, 0]	n/a	FR1	1	R1127P
938.388	0.442	623937	REC_WORD	0.442	n/a	TOE	-999	8	[0, 0, 0]	n/a	FR1	1	R1127P
938.83	2.053	624158	REC_WORD	2.053	n/a	CHIN	-999	8	[0, 0, 0]	n/a	FR1	1	R1127P
940.883	2.933	625185	REC_WORD	2.933	n/a	BIRD	-999	8	[0, 0, 0]	n/a	FR1	1	R1127P
943.816	5.358	626651	REC_WORD	5.358	n/a	FROG	-999	8	[0, 0, 0]	n/a	FR1	1	R1127P
949.174	0.438	629330	REC_WORD	0.438	n/a	TOE	-999	8	[0, 0, 0]	n/a	FR1	1	R1127P
949.612	1.395	629549	REC_WORD	1.395	n/a	CHIN	-999	8	[0, 0, 0]	n/a	FR1	1	R1127P
951.007	12.816	630247	REC_WORD	12.816	n/a	FROG	-999	8	[0, 0, 0]	n/a	FR1	1	R1127P
963.823	0.71	636654	REC_WORD_VV	0.71	n/a	<>	-999	8	[0, 0, 0]	n/a	FR1	1	R1127P
964.533	1.828	637009	REC_END	n/a	n/a	n/a	-999	8	[0, 0, 0]	n/a	FR1	1	R1127P
966.361	0.0	637923	COUNTDOWN_START	n/a	n/a	n/a	-999	9	[0, 0, 0]	n/a	FR1	1	R1127P
966.361	10.428	637923	TRIAL	n/a	n/a	n/a	-999	9	[0, 0, 0]	n/a	FR1	1	R1127P
976.789	0.007	643137	COUNTDOWN_END	n/a	n/a	n/a	-999	9	[0, 0, 0]	n/a	FR1	1	R1127P
976.796	2.6	643140	ORIENT	n/a	n/a	n/a	-999	9	[0, 0, 0]	n/a	FR1	1	R1127P
979.396	2.434	644440	WORD	n/a	wordpools/wordpool_EN.txt	VINE	1	9	[0, 0, 0]	n/a	FR1	1	R1127P
981.83	2.601	645657	WORD	n/a	wordpools/wordpool_EN.txt	EAR	2	9	[0, 0, 0]	n/a	FR1	1	R1127P
984.431	2.567	646958	WORD	n/a	wordpools/wordpool_EN.txt	FOOD	3	9	[0, 0, 0]	n/a	FR1	1	R1127P
986.998	2.551	648241	WORD	n/a	wordpools/wordpool_EN.txt	HEART	4	9	[0, 0, 0]	n/a	FR1	1	R1127P
989.549	2.583	649517	WORD	n/a	wordpools/wordpool_EN.txt	BED	5	9	[0, 0, 0]	n/a	FR1	1	R1127P
992.132	2.467	650808	WORD	n/a	wordpools/wordpool_EN.txt	HOSE	6	9	[0, 0, 0]	n/a	FR1	1	R1127P
994.599	2.617	652042	WORD	n/a	wordpools/wordpool_EN.txt	TRAIN	7	9	[0, 0, 0]	n/a	FR1	1	R1127P
997.216	2.484	653350	WORD	n/a	wordpools/wordpool_EN.txt	MOUSE	8	9	[0, 0, 0]	n/a	FR1	1	R1127P
999.7	2.451	654592	WORD	n/a	wordpools/wordpool_EN.txt	SMOKE	9	9	[0, 0, 0]	n/a	FR1	1	R1127P
1002.151	2.584	655817	WORD	n/a	wordpools/wordpool_EN.txt	ROOM	10	9	[0, 0, 0]	n/a	FR1	1	R1127P
1004.735	2.583	657109	WORD	n/a	wordpools/wordpool_EN.txt	MOOSE	11	9	[0, 0, 0]	n/a	FR1	1	R1127P
1007.318	1.617	658401	WORD	n/a	wordpools/wordpool_EN.txt	CAKE	12	9	[0, 0, 0]	n/a	FR1	1	R1127P
1008.935	0.001	659209	DISTRACT_START	n/a	n/a	n/a	-999	9	[0, 0, 0]	n/a	FR1	1	R1127P
1008.936	0.016	659210	START	n/a	n/a	n/a	-999	9	[-999, -999, -999]	n/a	FR1	1	R1127P
1008.952	7.051	659218	PROB	7.051	n/a	n/a	-999	9	[5, 8, 7]	20	FR1	1	R1127P
1016.003	4.251	662743	PROB	4.251	n/a	n/a	-999	9	[2, 7, 7]	16	FR1	1	R1127P
1020.254	3.651	664868	PROB	3.651	n/a	n/a	-999	9	[1, 1, 2]	4	FR1	1	R1127P
1023.905	4.384	666694	PROB	4.384	n/a	n/a	-999	9	[5, 7, 7]	20	FR1	1	R1127P
1028.289	4.314	668886	PROB	4.314	n/a	n/a	-999	9	[8, 1, 4]	13	FR1	1	R1127P
1032.603	0.004	671043	STOP	n/a	n/a	n/a	-999	9	[-999, -999, -999]	n/a	FR1	1	R1127P
1032.607	1.084	671045	DISTRACT_END	n/a	n/a	n/a	-999	9	[0, 0, 0]	n/a	FR1	1	R1127P
1033.691	0.952	671587	REC_START	n/a	n/a	n/a	-999	9	[0, 0, 0]	n/a	FR1	1	R1127P
1034.643	0.667	672063	REC_WORD	0.667	n/a	VINE	-999	9	[0, 0, 0]	n/a	FR1	1	R1127P
1035.31	3.475	672396	REC_WORD	3.475	n/a	EAR	-999	9	[0, 0, 0]	n/a	FR1	1	R1127P
1038.785	1.369	674133	REC_WORD_VV	1.369	n/a	<>	-999	9	[0, 0, 0]	n/a	FR1	1	R1127P
1040.154	4.666	674818	REC_WORD	4.666	n/a	COURT	-999	9	[0, 0, 0]	n/a	FR1	1	R1127P
1044.82	0.58	677151	REC_WORD_VV	0.58	n/a	<>	-999	9	[0, 0, 0]	n/a	FR1	1	R1127P
1045.4	1.0	677441	REC_WORD_VV	1.0	n/a	<>	-999	9	[0, 0, 0]	n/a	FR1	1	R1127P
1046.4	3.147	677941	REC_WORD_VV	3.147	n/a	<>	-999	9	[0, 0, 0]	n/a	FR1	1	R1127P
1049.547	0.582	679514	REC_WORD	0.582	n/a	EAR	-999	9	[0, 0, 0]	n/a	FR1	1	R1127P
1050.129	6.902	679805	REC_WORD	6.902	n/a	COURT	-999	9	[0, 0, 0]	n/a	FR1	1	R1127P
1057.031	0.545	683256	REC_WORD_VV	0.545	n/a	<>	-999	9	[0, 0, 0]	n/a	FR1	1	R1127P
1057.576	6.125	683528	REC_WORD	6.125	n/a	MOUSE	-999	9	[0, 0, 0]	n/a	FR1	1	R1127P
1063.701	1.912	686591	REC_END	n/a	n/a	n/a	-999	9	[0, 0, 0]	n/a	FR1	1	R1127P
1065.613	0.0	687547	TRIAL	n/a	n/a	n/a	-999	10	[0, 0, 0]	n/a	FR1	1	R1127P
1065.613	10.428	687547	COUNTDOWN_START	n/a	n/a	n/a	-999	10	[0, 0, 0]	n/a	FR1	1	R1127P
1076.041	0.024	692760	COUNTDOWN_END	n/a	n/a	n/a	-999	10	[0, 0, 0]	n/a	FR1	1	R1127P
1076.065	2.567	692772	ORIENT	n/a	n/a	n/a	-999	10	[0, 0, 0]	n/a	FR1	1	R1127P
1078.632	2.517	694056	WORD	n/a	wordpools/wordpool_EN.txt	STOVE	1	10	[0, 0, 0]	n/a	FR1	1	R1127P
1081.149	2.634	695314	WORD	n/a	wordpools/wordpool_EN.txt	TRUCK	2	10	[0, 0, 0]	n/a	FR1	1	R1127P
1083.783	2.6	696631	WORD	n/a	wordpools/wordpool_EN.txt	PARK	3	10	[0, 0, 0]	n/a	FR1	1	R1127P
1086.383	2.417	697931	WORD	n/a	wordpools/wordpool_EN.txt	SIGN	4	10	[0, 0, 0]	n/a	FR1	1	R1127P
1088.8	2.451	699140	WORD	n/a	wordpools/wordpool_EN.txt	BATH	5	10	[0, 0, 0]	n/a	FR1	1	R1127P
1091.251	2.567	700365	WORD	n/a	wordpools/wordpool_EN.txt	STAIR	6	10	[0, 0, 0]	n/a	FR1	1	R1127P
1093.818	2.634	701649	WORD	n/a	wordpools/wordpool_EN.txt	STRAW	7	10	[0, 0, 0]	n/a	FR1	1	R1127P
1096.452	2.567	702965	WORD	n/a	wordpools/wordpool_EN.txt	MILK	8	10	[0, 0, 0]	n/a	FR1	1	R1127P
1099.019	2.6	704249	WORD	n/a	wordpools/wordpool_EN.txt	VEST	9	10	[0, 0, 0]	n/a	FR1	1	R1127P
1101.619	2.434	705549	WORD	n/a	wordpools/wordpool_EN.txt	SWAMP	10	10	[0, 0, 0]	n/a	FR1	1	R1127P
1104.053	2.435	706766	WORD	n/a	wordpools/wordpool_EN.txt	FARM	11	10	[0, 0, 0]	n/a	FR1	1	R1127P
1106.488	1.616	707983	WORD	n/a	wordpools/wordpool_EN.txt	WEED	12	10	[0, 0, 0]	n/a	FR1	1	R1127P
1108.104	0.001	708791	DISTRACT_START	n/a	n/a	n/a	-999	10	[0, 0, 0]	n/a	FR1	1	R1127P
1108.105	0.016	708792	START	n/a	n/a	n/a	-999	10	[-999, -999, -999]	n/a	FR1	1	R1127P
1108.121	3.084	708800	PROB	3.084	n/a	n/a	-999	10	[9, 2, 1]	12	FR1	1	R1127P
1111.205	5.584	710342	PROB	5.584	n/a	n/a	-999	10	[7, 9, 3]	20	FR1	1	R1127P
1116.789	5.551	713133	PROB	5.551	n/a	n/a	-999	10	[5, 7, 4]	16	FR1	1	R1127P
1122.34	5.018	715909	PROB	5.018	n/a	n/a	-999	10	[3, 6, 5]	14	FR1	1	R1127P
1127.358	2.477	718418	PROB	2.477	n/a	n/a	-999	10	[6, 6, 1]	13	FR1	1	R1127P
1129.835	0.006	719656	STOP	n/a	n/a	n/a	-999	10	[-999, -999, -999]	n/a	FR1	1	R1127P
1129.841	1.051	719659	DISTRACT_END	n/a	n/a	n/a	-999	10	[0, 0, 0]	n/a	FR1	1	R1127P
1130.892	0.608	720185	REC_START	n/a	n/a	n/a	-999	10	[0, 0, 0]	n/a	FR1	1	R1127P
1131.5	1.233	720489	REC_WORD	1.233	n/a	STOVE	-999	10	[0, 0, 0]	n/a	FR1	1	R1127P
1132.733	0.733	721105	REC_WORD	0.733	n/a	TRUCK	-999	10	[0, 0, 0]	n/a	FR1	1	R1127P
1133.466	0.493	721472	REC_WORD	0.493	n/a	PARK	-999	10	[0, 0, 0]	n/a	FR1	1	R1127P
1133.959	3.123	721718	REC_WORD	3.123	n/a	SIGN	-999	10	[0, 0, 0]	n/a	FR1	1	R1127P
1137.082	0.806	723279	REC_WORD	0.806	n/a	STOVE	-999	10	[0, 0, 0]	n/a	FR1	1	R1127P
1137.888	0.428	723682	REC_WORD	0.428	n/a	STOVE	-999	10	[0, 0, 0]	n/a	FR1	1	R1127P
1138.316	0.287	723896	REC_WORD	0.287	n/a	TRUCK	-999	10	[0, 0, 0]	n/a	FR1	1	R1127P
1138.603	0.404	724040	REC_WORD	0.404	n/a	PARK	-999	10	[0, 0, 0]	n/a	FR1	1	R1127P
1139.007	2.67	724242	REC_WORD	2.67	n/a	SIGN	-999	10	[0, 0, 0]	n/a	FR1	1	R1127P
1141.677	0.355	725577	REC_WORD	0.355	n/a	STOVE	-999	10	[0, 0, 0]	n/a	FR1	1	R1127P
1142.032	0.78	725754	REC_WORD	0.78	n/a	TRUCK	-999	10	[0, 0, 0]	n/a	FR1	1	R1127P
1142.812	3.045	726144	REC_WORD	3.045	n/a	SIGN	-999	10	[0, 0, 0]	n/a	FR1	1	R1127P
1145.857	6.311	727667	REC_WORD	6.311	n/a	MILK	-999	10	[0, 0, 0]	n/a	FR1	1	R1127P
1152.168	1.563	730822	REC_WORD_VV	1.563	n/a	<>	-999	10	[0, 0, 0]	n/a	FR1	1	R1127P
1153.731	4.108	731604	REC_WORD_VV	4.108	n/a	<>	-999	10	[0, 0, 0]	n/a	FR1	1	R1127P
1157.839	3.067	733657	REC_WORD_VV	3.067	n/a	<>	-999	10	[0, 0, 0]	n/a	FR1	1	R1127P
1160.906	1.341	735191	REC_END	n/a	n/a	n/a	-999	10	[0, 0, 0]	n/a	FR1	1	R1127P
1162.247	0.001	735861	COUNTDOWN_START	n/a	n/a	n/a	-999	11	[0, 0, 0]	n/a	FR1	1	R1127P
1162.248	10.427	735862	TRIAL	n/a	n/a	n/a	-999	11	[0, 0, 0]	n/a	FR1	1	R1127P
1172.675	0.008	741075	COUNTDOWN_END	n/a	n/a	n/a	-999	11	[0, 0, 0]	n/a	FR1	1	R1127P
1172.683	2.467	741079	ORIENT	n/a	n/a	n/a	-999	11	[0, 0, 0]	n/a	FR1	1	R1127P
1175.15	2.5	742312	WORD	n/a	wordpools/wordpool_EN.txt	MAP	1	11	[0, 0, 0]	n/a	FR1	1	R1127P
1177.65	2.584	743562	WORD	n/a	wordpools/wordpool_EN.txt	SEED	2	11	[0, 0, 0]	n/a	FR1	1	R1127P
1180.234	2.417	744854	WORD	n/a	wordpools/wordpool_EN.txt	SHELL	3	11	[0, 0, 0]	n/a	FR1	1	R1127P
1182.651	2.401	746063	WORD	n/a	wordpools/wordpool_EN.txt	GOLD	4	11	[0, 0, 0]	n/a	FR1	1	R1127P
1185.052	2.533	747263	WORD	n/a	wordpools/wordpool_EN.txt	SNAKE	5	11	[0, 0, 0]	n/a	FR1	1	R1127P
1187.585	2.434	748530	WORD	n/a	wordpools/wordpool_EN.txt	PLANT	6	11	[0, 0, 0]	n/a	FR1	1	R1127P
1190.019	2.567	749747	WORD	n/a	wordpools/wordpool_EN.txt	WORLD	7	11	[0, 0, 0]	n/a	FR1	1	R1127P
1192.586	2.634	751030	WORD	n/a	wordpools/wordpool_EN.txt	STEM	8	11	[0, 0, 0]	n/a	FR1	1	R1127P
1195.22	2.551	752347	WORD	n/a	wordpools/wordpool_EN.txt	ROSE	9	11	[0, 0, 0]	n/a	FR1	1	R1127P
1197.771	2.433	753622	WORD	n/a	wordpools/wordpool_EN.txt	MOTH	10	11	[0, 0, 0]	n/a	FR1	1	R1127P
1200.204	2.568	754839	WORD	n/a	wordpools/wordpool_EN.txt	CLOUD	11	11	[0, 0, 0]	n/a	FR1	1	R1127P
1202.772	1.617	756123	WORD	n/a	wordpools/wordpool_EN.txt	KEY	12	11	[0, 0, 0]	n/a	FR1	1	R1127P
1204.389	0.0	756931	DISTRACT_START	n/a	n/a	n/a	-999	11	[0, 0, 0]	n/a	FR1	1	R1127P
1204.389	0.016	756931	START	n/a	n/a	n/a	-999	11	[-999, -999, -999]	n/a	FR1	1	R1127P
1204.405	5.935	756939	PROB	5.935	n/a	n/a	-999	11	[8, 2, 6]	15	FR1	1	R1127P
1210.34	4.767	759907	PROB	4.767	n/a	n/a	-999	11	[9, 9, 3]	21	FR1	1	R1127P
1215.107	5.335	762290	PROB	5.335	n/a	n/a	-999	11	[2, 6, 7]	16	FR1	1	R1127P
1220.442	2.917	764957	PROB	2.917	n/a	n/a	-999	11	[2, 8, 1]	11	FR1	1	R1127P
1223.359	3.1	766416	PROB	3.1	n/a	n/a	-999	11	[1, 3, 3]	7	FR1	1	R1127P
1226.459	0.018	767966	STOP	n/a	n/a	n/a	-999	11	[-999, -999, -999]	n/a	FR1	1	R1127P
1226.477	1.2	767975	DISTRACT_END	n/a	n/a	n/a	-999	11	[0, 0, 0]	n/a	FR1	1	R1127P
1227.677	0.5	768575	REC_START	n/a	n/a	n/a	-999	11	[0, 0, 0]	n/a	FR1	1	R1127P
1228.177	0.57	768825	REC_WORD	0.57	n/a	MAP	-999	11	[0, 0, 0]	n/a	FR1	1	R1127P
1228.747	0.782	769110	REC_WORD	0.782	n/a	SEED	-999	11	[0, 0, 0]	n/a	FR1	1	R1127P
1229.529	0.789	769501	REC_WORD	0.789	n/a	SHELL	-999	11	[0, 0, 0]	n/a	FR1	1	R1127P
1230.318	3.558	769895	REC_WORD	3.558	n/a	GOLD	-999	11	[0, 0, 0]	n/a	FR1	1	R1127P
1233.876	1.665	771674	REC_WORD_VV	1.665	n/a	<>	-999	11	[0, 0, 0]	n/a	FR1	1	R1127P
1235.541	5.19	772506	REC_WORD	5.19	n/a	GOLD	-999	11	[0, 0, 0]	n/a	FR1	1	R1127P
1240.731	1.0	775101	REC_WORD_VV	1.0	n/a	<>	-999	11	[0, 0, 0]	n/a	FR1	1	R1127P
1241.731	0.956	775601	REC_WORD_VV	0.956	n/a	<>	-999	11	[0, 0, 0]	n/a	FR1	1	R1127P
1242.687	7.419	776079	REC_WORD	7.419	n/a	SNAKE	-999	11	[0, 0, 0]	n/a	FR1	1	R1127P
1250.106	3.016	779789	REC_WORD_VV	3.016	n/a	<>	-999	11	[0, 0, 0]	n/a	FR1	1	R1127P
1253.122	4.565	781297	REC_WORD_VV	4.565	n/a	<>	-999	11	[0, 0, 0]	n/a	FR1	1	R1127P
1257.687	1.945	783579	REC_END	n/a	n/a	n/a	-999	11	[0, 0, 0]	n/a	FR1	1	R1127P
1259.632	0.001	784551	COUNTDOWN_START	n/a	n/a	n/a	-999	12	[0, 0, 0]	n/a	FR1	1	R1127P
1259.633	10.427	784552	TRIAL	n/a	n/a	n/a	-999	12	[0, 0, 0]	n/a	FR1	1	R1127P
1270.06	0.008	789765	COUNTDOWN_END	n/a	n/a	n/a	-999	12	[0, 0, 0]	n/a	FR1	1	R1127P
1270.068	2.418	789769	ORIENT	n/a	n/a	n/a	-999	12	[0, 0, 0]	n/a	FR1	1	R1127P
1272.486	2.516	790978	WORD	n/a	wordpools/wordpool_EN.txt	SHRIMP	1	12	[0, 0, 0]	n/a	FR1	1	R1127P
1275.002	2.45	792236	WORD	n/a	wordpools/wordpool_EN.txt	SALT	2	12	[0, 0, 0]	n/a	FR1	1	R1127P
1277.452	2.617	793461	WORD	n/a	wordpools/wordpool_EN.txt	STRING	3	12	[0, 0, 0]	n/a	FR1	1	R1127P
1280.069	2.384	794769	WORD	n/a	wordpools/wordpool_EN.txt	DIME	4	12	[0, 0, 0]	n/a	FR1	1	R1127P
1282.453	2.434	795961	WORD	n/a	wordpools/wordpool_EN.txt	SPOON	5	12	[0, 0, 0]	n/a	FR1	1	R1127P
1284.887	2.467	797178	WORD	n/a	wordpools/wordpool_EN.txt	SPONGE	6	12	[0, 0, 0]	n/a	FR1	1	R1127P
1287.354	2.551	798412	WORD	n/a	wordpools/wordpool_EN.txt	ZOO	7	12	[0, 0, 0]	n/a	FR1	1	R1127P
1289.905	2.45	799687	WORD	n/a	wordpools/wordpool_EN.txt	CLOWN	8	12	[0, 0, 0]	n/a	FR1	1	R1127P
1292.355	2.551	800912	WORD	n/a	wordpools/wordpool_EN.txt	PASTE	9	12	[0, 0, 0]	n/a	FR1	1	R1127P
1294.906	2.417	802187	WORD	n/a	wordpools/wordpool_EN.txt	TOOL	10	12	[0, 0, 0]	n/a	FR1	1	R1127P
1297.323	2.417	803396	WORD	n/a	wordpools/wordpool_EN.txt	TEETH	11	12	[0, 0, 0]	n/a	FR1	1	R1127P
1299.74	1.617	804604	WORD	n/a	wordpools/wordpool_EN.txt	ELF	12	12	[0, 0, 0]	n/a	FR1	1	R1127P
1301.357	0.001	805413	DISTRACT_START	n/a	n/a	n/a	-999	12	[0, 0, 0]	n/a	FR1	1	R1127P
1301.358	0.016	805413	START	n/a	n/a	n/a	-999	12	[-999, -999, -999]	n/a	FR1	1	R1127P
1301.374	3.4	805421	PROB	3.4	n/a	n/a	-999	12	[9, 2, 1]	12	FR1	1	R1127P
1304.774	5.318	807121	PROB	5.318	n/a	n/a	-999	12	[9, 6, 4]	18	FR1	1	R1127P
1310.092	4.617	809780	PROB	4.617	n/a	n/a	-999	12	[4, 1, 6]	11	FR1	1	R1127P
1314.709	5.001	812088	PROB	5.001	n/a	n/a	-999	12	[6, 3, 1]	10	FR1	1	R1127P
1319.71	5.445	814589	PROB	5.445	n/a	n/a	-999	12	[2, 4, 3]	9	FR1	1	R1127P
1325.155	0.006	817311	STOP	n/a	n/a	n/a	-999	12	[-999, -999, -999]	n/a	FR1	1	R1127P
1325.161	1.085	817314	DISTRACT_END	n/a	n/a	n/a	-999	12	[0, 0, 0]	n/a	FR1	1	R1127P
1326.246	1.092	817857	REC_START	n/a	n/a	n/a	-999	12	[0, 0, 0]	n/a	FR1	1	R1127P
1327.338	0.879	818403	REC_WORD	0.879	n/a	SHRIMP	-999	12	[0, 0, 0]	n/a	FR1	1	R1127P
1328.217	1.131	818842	REC_WORD	1.131	n/a	SALT	-999	12	[0, 0, 0]	n/a	FR1	1	R1127P
1329.348	5.017	819408	REC_WORD	5.017	n/a	STRING	-999	12	[0, 0, 0]	n/a	FR1	1	R1127P
1334.365	0.55	821916	REC_WORD	0.55	n/a	SHRIMP	-999	12	[0, 0, 0]	n/a	FR1	1	R1127P
1334.915	3.566	822191	REC_WORD	3.566	n/a	STRAW	-999	12	[0, 0, 0]	n/a	FR1	1	R1127P
1338.481	3.713	823974	REC_WORD_VV	3.713	n/a	<>	-999	12	[0, 0, 0]	n/a	FR1	1	R1127P
1342.194	3.197	825830	REC_WORD	3.197	n/a	MILK	-999	12	[0, 0, 0]	n/a	FR1	1	R1127P
1345.391	0.949	827429	REC_WORD	0.949	n/a	JUICE	-999	12	[0, 0, 0]	n/a	FR1	1	R1127P
1346.34	2.605	827903	REC_WORD	2.605	n/a	MILK	-999	12	[0, 0, 0]	n/a	FR1	1	R1127P
1348.945	6.641	829206	REC_WORD_VV	6.641	n/a	<>	-999	12	[0, 0, 0]	n/a	FR1	1	R1127P
1355.586	0.67	832526	REC_WORD_VV	0.67	n/a	<>	-999	12	[0, 0, 0]	n/a	FR1	1	R1127P
1356.256	2.078	832861	REC_END	n/a	n/a	n/a	-999	12	[0, 0, 0]	n/a	FR1	1	R1127P
1358.334	0.0	833900	TRIAL	n/a	n/a	n/a	-999	13	[0, 0, 0]	n/a	FR1	1	R1127P
1358.334	10.428	833900	COUNTDOWN_START	n/a	n/a	n/a	-999	13	[0, 0, 0]	n/a	FR1	1	R1127P
1368.762	0.008	839114	COUNTDOWN_END	n/a	n/a	n/a	-999	13	[0, 0, 0]	n/a	FR1	1	R1127P
1368.77	2.4	839118	ORIENT	n/a	n/a	n/a	-999	13	[0, 0, 0]	n/a	FR1	1	R1127P
1371.17	2.6	840318	WORD	n/a	wordpools/wordpool_EN.txt	BENCH	1	13	[0, 0, 0]	n/a	FR1	1	R1127P
1373.77	2.551	841617	WORD	n/a	wordpools/wordpool_EN.txt	COUCH	2	13	[0, 0, 0]	n/a	FR1	1	R1127P
1376.321	2.617	842893	WORD	n/a	wordpools/wordpool_EN.txt	POOL	3	13	[0, 0, 0]	n/a	FR1	1	R1127P
1378.938	2.384	844201	WORD	n/a	wordpools/wordpool_EN.txt	AXE	4	13	[0, 0, 0]	n/a	FR1	1	R1127P
1381.322	2.6	845393	WORD	n/a	wordpools/wordpool_EN.txt	TEA	5	13	[0, 0, 0]	n/a	FR1	1	R1127P
1383.922	2.384	846693	WORD	n/a	wordpools/wordpool_EN.txt	FLOOR	6	13	[0, 0, 0]	n/a	FR1	1	R1127P
1386.306	2.501	847885	WORD	n/a	wordpools/wordpool_EN.txt	LEG	7	13	[0, 0, 0]	n/a	FR1	1	R1127P
1388.807	2.55	849136	WORD	n/a	wordpools/wordpool_EN.txt	HOUSE	8	13	[0, 0, 0]	n/a	FR1	1	R1127P
1391.357	2.584	850411	WORD	n/a	wordpools/wordpool_EN.txt	PURSE	9	13	[0, 0, 0]	n/a	FR1	1	R1127P
1393.941	2.551	851702	WORD	n/a	wordpools/wordpool_EN.txt	PALM	10	13	[0, 0, 0]	n/a	FR1	1	R1127P
1396.492	2.583	852978	WORD	n/a	wordpools/wordpool_EN.txt	DART	11	13	[0, 0, 0]	n/a	FR1	1	R1127P
1399.075	1.617	854269	WORD	n/a	wordpools/wordpool_EN.txt	SHOE	12	13	[0, 0, 0]	n/a	FR1	1	R1127P
1400.692	0.001	855078	DISTRACT_START	n/a	n/a	n/a	-999	13	[0, 0, 0]	n/a	FR1	1	R1127P
1400.693	0.016	855078	START	n/a	n/a	n/a	-999	13	[-999, -999, -999]	n/a	FR1	1	R1127P
1400.709	3.567	855086	PROB	3.567	n/a	n/a	-999	13	[1, 7, 2]	10	FR1	1	R1127P
1404.276	4.118	856870	PROB	4.118	n/a	n/a	-999	13	[8, 2, 4]	14	FR1	1	R1127P
1408.394	3.067	858929	PROB	3.067	n/a	n/a	-999	13	[1, 1, 7]	9	FR1	1	R1127P
1411.461	3.334	860462	PROB	3.334	n/a	n/a	-999	13	[8, 2, 8]	18	FR1	1	R1127P
1414.795	3.617	862129	PROB	3.617	n/a	n/a	-999	13	[4, 3, 1]	8	FR1	1	R1127P
1418.412	4.471	863937	PROB	4.471	n/a	n/a	-999	13	[4, 2, 7]	12	FR1	1	R1127P
1422.883	0.013	866173	STOP	n/a	n/a	n/a	-999	13	[-999, -999, -999]	n/a	FR1	1	R1127P
1422.896	1.201	866179	DISTRACT_END	n/a	n/a	n/a	-999	13	[0, 0, 0]	n/a	FR1	1	R1127P
1424.097	0.78	866780	REC_START	n/a	n/a	n/a	-999	13	[0, 0, 0]	n/a	FR1	1	R1127P
1424.877	0.958	867170	REC_WORD	0.958	n/a	BENCH	-999	13	[0, 0, 0]	n/a	FR1	1	R1127P
1425.835	1.671	867649	REC_WORD	1.671	n/a	COUCH	-999	13	[0, 0, 0]	n/a	FR1	1	R1127P
1427.506	0.14	868484	REC_WORD_VV	0.14	n/a	<>	-999	13	[0, 0, 0]	n/a	FR1	1	R1127P
1427.646	2.936	868554	REC_WORD	2.936	n/a	COUCH	-999	13	[0, 0, 0]	n/a	FR1	1	R1127P
1430.582	0.861	870022	REC_WORD	0.861	n/a	POOL	-999	13	[0, 0, 0]	n/a	FR1	1	R1127P
1431.443	0.481	870453	REC_WORD	0.481	n/a	POOL	-999	13	[0, 0, 0]	n/a	FR1	1	R1127P
1431.924	2.202	870693	REC_WORD	2.202	n/a	TEA	-999	13	[0, 0, 0]	n/a	FR1	1	R1127P
1434.126	0.268	871794	REC_WORD_VV	0.268	n/a	<>	-999	13	[0, 0, 0]	n/a	FR1	1	R1127P
1434.394	0.332	871928	REC_WORD	0.332	n/a	BENCH	-999	13	[0, 0, 0]	n/a	FR1	1	R1127P
1434.726	0.545	872094	REC_WORD	0.545	n/a	COUCH	-999	13	[0, 0, 0]	n/a	FR1	1	R1127P
1435.271	0.375	872366	REC_WORD	0.375	n/a	POOL	-999	13	[0, 0, 0]	n/a	FR1	1	R1127P
1435.646	6.023	872554	REC_WORD	6.023	n/a	TEA	-999	13	[0, 0, 0]	n/a	FR1	1	R1127P
1441.669	0.861	875565	REC_WORD	0.861	n/a	PART	-999	13	[0, 0, 0]	n/a	FR1	1	R1127P
1442.53	5.898	875996	REC_WORD	5.898	n/a	PARK	-999	13	[0, 0, 0]	n/a	FR1	1	R1127P
1448.428	1.0	878945	REC_WORD_VV	1.0	n/a	<>	-999	13	[0, 0, 0]	n/a	FR1	1	R1127P
1449.428	4.683	879445	REC_WORD_VV	4.683	n/a	<>	-999	13	[0, 0, 0]	n/a	FR1	1	R1127P
1454.111	2.175	881786	REC_END	n/a	n/a	n/a	-999	13	[0, 0, 0]	n/a	FR1	1	R1127P
1456.286	0.0	882873	COUNTDOWN_START	n/a	n/a	n/a	-999	14	[0, 0, 0]	n/a	FR1	1	R1127P
1456.286	10.428	882873	TRIAL	n/a	n/a	n/a	-999	14	[0, 0, 0]	n/a	FR1	1	R1127P
1466.714	0.007	888087	COUNTDOWN_END	n/a	n/a	n/a	-999	14	[0, 0, 0]	n/a	FR1	1	R1127P
1466.721	2.434	888091	ORIENT	n/a	n/a	n/a	-999	14	[0, 0, 0]	n/a	FR1	1	R1127P
1469.155	2.434	889308	WORD	n/a	wordpools/wordpool_EN.txt	FOAM	1	14	[0, 0, 0]	n/a	FR1	1	R1127P
1471.589	2.384	890524	WORD	n/a	wordpools/wordpool_EN.txt	PEARL	2	14	[0, 0, 0]	n/a	FR1	1	R1127P
1473.973	2.617	891716	WORD	n/a	wordpools/wordpool_EN.txt	PEACH	3	14	[0, 0, 0]	n/a	FR1	1	R1127P
1476.59	2.534	893025	WORD	n/a	wordpools/wordpool_EN.txt	BEAN	4	14	[0, 0, 0]	n/a	FR1	1	R1127P
1479.124	2.533	894292	WORD	n/a	wordpools/wordpool_EN.txt	JAR	5	14	[0, 0, 0]	n/a	FR1	1	R1127P
1481.657	2.501	895558	WORD	n/a	wordpools/wordpool_EN.txt	DESK	6	14	[0, 0, 0]	n/a	FR1	1	R1127P
1484.158	2.55	896809	WORD	n/a	wordpools/wordpool_EN.txt	SLIME	7	14	[0, 0, 0]	n/a	FR1	1	R1127P
1486.708	2.451	898084	WORD	n/a	wordpools/wordpool_EN.txt	CUP	8	14	[0, 0, 0]	n/a	FR1	1	R1127P
1489.159	2.617	899309	WORD	n/a	wordpools/wordpool_EN.txt	HOOK	9	14	[0, 0, 0]	n/a	FR1	1	R1127P
1491.776	2.534	900617	WORD	n/a	wordpools/wordpool_EN.txt	SOUP	10	14	[0, 0, 0]	n/a	FR1	1	R1127P
1494.31	2.584	901884	WORD	n/a	wordpools/wordpool_EN.txt	STOOL	11	14	[0, 0, 0]	n/a	FR1	1	R1127P
1496.894	1.617	903176	WORD	n/a	wordpools/wordpool_EN.txt	FRUIT	12	14	[0, 0, 0]	n/a	FR1	1	R1127P
1498.511	0.001	903985	DISTRACT_START	n/a	n/a	n/a	-999	14	[0, 0, 0]	n/a	FR1	1	R1127P
1498.512	0.016	903985	START	n/a	n/a	n/a	-999	14	[-999, -999, -999]	n/a	FR1	1	R1127P
1498.528	5.85	903993	PROB	5.85	n/a	n/a	-999	14	[9, 7, 2]	18	FR1	1	R1127P
1504.378	3.102	906918	PROB	3.102	n/a	n/a	-999	14	[8, 8, 1]	17	FR1	1	R1127P
1507.48	4.733	908469	PROB	4.733	n/a	n/a	-999	14	[2, 6, 7]	15	FR1	1	R1127P
1512.213	3.634	910835	PROB	3.634	n/a	n/a	-999	14	[5, 4, 2]	12	FR1	1	R1127P
1515.847	3.42	912652	PROB	3.42	n/a	n/a	-999	14	[1, 5, 2]	8	FR1	1	R1127P
1519.267	0.014	914362	STOP	n/a	n/a	n/a	-999	14	[-999, -999, -999]	n/a	FR1	1	R1127P
1519.281	1.118	914369	DISTRACT_END	n/a	n/a	n/a	-999	14	[0, 0, 0]	n/a	FR1	1	R1127P
1520.399	0.607	914928	REC_START	n/a	n/a	n/a	-999	14	[0, 0, 0]	n/a	FR1	1	R1127P
1521.006	0.915	915232	REC_WORD	0.915	n/a	FOAM	-999	14	[0, 0, 0]	n/a	FR1	1	R1127P
1521.921	1.442	915689	REC_WORD	1.442	n/a	BEACH	-999	14	[0, 0, 0]	n/a	FR1	1	R1127P
1523.363	1.011	916410	REC_WORD	1.011	n/a	POOL	-999	14	[0, 0, 0]	n/a	FR1	1	R1127P
1524.374	0.365	916916	REC_WORD	0.365	n/a	FOAM	-999	14	[0, 0, 0]	n/a	FR1	1	R1127P
1524.739	0.448	917098	REC_WORD	0.448	n/a	BEACH	-999	14	[0, 0, 0]	n/a	FR1	1	R1127P
1525.187	3.181	917322	REC_WORD	3.181	n/a	POOL	-999	14	[0, 0, 0]	n/a	FR1	1	R1127P
1528.368	0.434	918913	REC_WORD	0.434	n/a	FOAM	-999	14	[0, 0, 0]	n/a	FR1	1	R1127P
1528.802	0.706	919130	REC_WORD	0.706	n/a	BEACH	-999	14	[0, 0, 0]	n/a	FR1	1	R1127P
1529.508	4.108	919483	REC_WORD	4.108	n/a	POOL	-999	14	[0, 0, 0]	n/a	FR1	1	R1127P
1533.616	0.487	921536	REC_WORD_VV	0.487	n/a	<>	-999	14	[0, 0, 0]	n/a	FR1	1	R1127P
1534.103	0.534	921780	REC_WORD	0.534	n/a	FOAM	-999	14	[0, 0, 0]	n/a	FR1	1	R1127P
1534.637	2.125	922047	REC_WORD	2.125	n/a	BEACH	-999	14	[0, 0, 0]	n/a	FR1	1	R1127P
1536.762	4.36	923109	REC_WORD	4.36	n/a	SOUP	-999	14	[0, 0, 0]	n/a	FR1	1	R1127P
1541.122	1.0	925289	REC_WORD_VV	1.0	n/a	<>	-999	14	[0, 0, 0]	n/a	FR1	1	R1127P
1542.122	0.105	925789	REC_WORD_VV	0.105	n/a	<>	-999	14	[0, 0, 0]	n/a	FR1	1	R1127P
1542.227	3.169	925842	REC_WORD	3.169	n/a	SOUP	-999	14	[0, 0, 0]	n/a	FR1	1	R1127P
1545.396	1.179	927426	REC_WORD	1.179	n/a	CRANE	-999	14	[0, 0, 0]	n/a	FR1	1	R1127P
1546.575	3.834	928016	REC_WORD_VV	3.834	n/a	<>	-999	14	[0, 0, 0]	n/a	FR1	1	R1127P
1550.409	2.695	929933	REC_END	n/a	n/a	n/a	-999	14	[0, 0, 0]	n/a	FR1	1	R1127P
1553.104	0.0	931280	TRIAL	n/a	n/a	n/a	-999	15	[0, 0, 0]	n/a	FR1	1	R1127P
1553.104	10.428	931280	COUNTDOWN_START	n/a	n/a	n/a	-999	15	[0, 0, 0]	n/a	FR1	1	R1127P
1563.532	0.008	936494	COUNTDOWN_END	n/a	n/a	n/a	-999	15	[0, 0, 0]	n/a	FR1	1	R1127P
1563.54	2.433	936498	ORIENT	n/a	n/a	n/a	-999	15	[0, 0, 0]	n/a	FR1	1	R1127P
1565.973	2.601	937714	WORD	n/a	wordpools/wordpool_EN.txt	CROW	1	15	[0, 0, 0]	n/a	FR1	1	R1127P
1568.574	2.417	939015	WORD	n/a	wordpools/wordpool_EN.txt	SOAP	2	15	[0, 0, 0]	n/a	FR1	1	R1127P
1570.991	2.567	940223	WORD	n/a	wordpools/wordpool_EN.txt	RUG	3	15	[0, 0, 0]	n/a	FR1	1	R1127P
1573.558	2.567	941506	WORD	n/a	wordpools/wordpool_EN.txt	SUIT	4	15	[0, 0, 0]	n/a	FR1	1	R1127P
1576.125	2.451	942790	WORD	n/a	wordpools/wordpool_EN.txt	FAN	5	15	[0, 0, 0]	n/a	FR1	1	R1127P
1578.576	2.6	944015	WORD	n/a	wordpools/wordpool_EN.txt	GOAT	6	15	[0, 0, 0]	n/a	FR1	1	R1127P
1581.176	2.4	945315	WORD	n/a	wordpools/wordpool_EN.txt	RIB	7	15	[0, 0, 0]	n/a	FR1	1	R1127P
1583.576	2.434	946515	WORD	n/a	wordpools/wordpool_EN.txt	BOOT	8	15	[0, 0, 0]	n/a	FR1	1	R1127P
1586.01	2.535	947732	WORD	n/a	wordpools/wordpool_EN.txt	SHIRT	9	15	[0, 0, 0]	n/a	FR1	1	R1127P
1588.545	2.433	949000	WORD	n/a	wordpools/wordpool_EN.txt	FENCE	10	15	[0, 0, 0]	n/a	FR1	1	R1127P
1590.978	2.467	950216	WORD	n/a	wordpools/wordpool_EN.txt	BROOM	11	15	[0, 0, 0]	n/a	FR1	1	R1127P
1593.445	1.617	951449	WORD	n/a	wordpools/wordpool_EN.txt	PANTS	12	15	[0, 0, 0]	n/a	FR1	1	R1127P
1595.062	0.001	952258	DISTRACT_START	n/a	n/a	n/a	-999	15	[0, 0, 0]	n/a	FR1	1	R1127P
1595.063	0.016	952258	START	n/a	n/a	n/a	-999	15	[-999, -999, -999]	n/a	FR1	1	R1127P
1595.079	6.051	952266	PROB	6.051	n/a	n/a	-999	15	[6, 3, 8]	16	FR1	1	R1127P
1601.13	4.634	955292	PROB	4.634	n/a	n/a	-999	15	[6, 6, 6]	18	FR1	1	R1127P
1605.764	6.835	957609	PROB	6.835	n/a	n/a	-999	15	[2, 2, 9]	13	FR1	1	R1127P
1612.599	6.26	961026	PROB	6.26	n/a	n/a	-999	15	[8, 5, 5]	18	FR1	1	R1127P
1618.859	0.007	964156	STOP	n/a	n/a	n/a	-999	15	[-999, -999, -999]	n/a	FR1	1	R1127P
1618.866	1.051	964159	DISTRACT_END	n/a	n/a	n/a	-999	15	[0, 0, 0]	n/a	FR1	1	R1127P
1619.917	4.699	964685	REC_START	n/a	n/a	n/a	-999	15	[0, 0, 0]	n/a	FR1	1	R1127P
1624.616	1.832	967034	REC_WORD	1.832	n/a	RUG	-999	15	[0, 0, 0]	n/a	FR1	1	R1127P
1626.448	1.165	967950	REC_WORD	1.165	n/a	BROOM	-999	15	[0, 0, 0]	n/a	FR1	1	R1127P
1627.613	2.35	968533	REC_WORD_VV	2.35	n/a	<>	-999	15	[0, 0, 0]	n/a	FR1	1	R1127P
1629.963	3.788	969707	REC_WORD	3.788	n/a	BROOM	-999	15	[0, 0, 0]	n/a	FR1	1	R1127P
1633.751	0.467	971601	REC_WORD	0.467	n/a	BROOM	-999	15	[0, 0, 0]	n/a	FR1	1	R1127P
1634.218	2.212	971835	REC_WORD	2.212	n/a	RUG	-999	15	[0, 0, 0]	n/a	FR1	1	R1127P
1636.43	0.313	972941	REC_WORD_VV	0.313	n/a	<>	-999	15	[0, 0, 0]	n/a	FR1	1	R1127P
1636.743	4.857	973097	REC_WORD	4.857	n/a	ELF	-999	15	[0, 0, 0]	n/a	FR1	1	R1127P
1641.6	2.014	975526	REC_WORD_VV	2.014	n/a	<>	-999	15	[0, 0, 0]	n/a	FR1	1	R1127P
1643.614	0.09	976533	REC_WORD_VV	0.09	n/a	<>	-999	15	[0, 0, 0]	n/a	FR1	1	R1127P
1643.704	5.639	976578	REC_WORD	5.639	n/a	SPOON	-999	15	[0, 0, 0]	n/a	FR1	1	R1127P
1649.343	0.59	979397	REC_WORD_VV	0.59	n/a	<>	-999	15	[0, 0, 0]	n/a	FR1	1	R1127P
1649.933	2.44	979692	REC_END	n/a	n/a	n/a	-999	15	[0, 0, 0]	n/a	FR1	1	R1127P
1652.373	0.0	980912	TRIAL	n/a	n/a	n/a	-999	16	[0, 0, 0]	n/a	FR1	1	R1127P
1652.373	10.428	980912	COUNTDOWN_START	n/a	n/a	n/a	-999	16	[0, 0, 0]	n/a	FR1	1	R1127P
1662.801	0.007	986126	COUNTDOWN_END	n/a	n/a	n/a	-999	16	[0, 0, 0]	n/a	FR1	1	R1127P
1662.808	2.483	986129	ORIENT	n/a	n/a	n/a	-999	16	[0, 0, 0]	n/a	FR1	1	R1127P
1665.291	2.601	987371	WORD	n/a	wordpools/wordpool_EN.txt	LAMB	1	16	[0, 0, 0]	n/a	FR1	1	R1127P
1667.892	2.517	988671	WORD	n/a	wordpools/wordpool_EN.txt	DEER	2	16	[0, 0, 0]	n/a	FR1	1	R1127P
1670.409	2.384	989929	WORD	n/a	wordpools/wordpool_EN.txt	WAND	3	16	[0, 0, 0]	n/a	FR1	1	R1127P
1672.793	2.451	991121	WORD	n/a	wordpools/wordpool_EN.txt	WOLF	4	16	[0, 0, 0]	n/a	FR1	1	R1127P
1675.244	2.45	992347	WORD	n/a	wordpools/wordpool_EN.txt	RAKE	5	16	[0, 0, 0]	n/a	FR1	1	R1127P
1677.694	2.5	993572	WORD	n/a	wordpools/wordpool_EN.txt	SNOW	6	16	[0, 0, 0]	n/a	FR1	1	R1127P
1680.194	2.434	994822	WORD	n/a	wordpools/wordpool_EN.txt	ROAD	7	16	[0, 0, 0]	n/a	FR1	1	R1127P
1682.628	2.434	996039	WORD	n/a	wordpools/wordpool_EN.txt	STONE	8	16	[0, 0, 0]	n/a	FR1	1	R1127P
1685.062	2.485	997256	WORD	n/a	wordpools/wordpool_EN.txt	FORK	9	16	[0, 0, 0]	n/a	FR1	1	R1127P
1687.547	2.583	998498	WORD	n/a	wordpools/wordpool_EN.txt	CRANE	10	16	[0, 0, 0]	n/a	FR1	1	R1127P
1690.13	2.55	999789	WORD	n/a	wordpools/wordpool_EN.txt	BEAR	11	16	[0, 0, 0]	n/a	FR1	1	R1127P
1692.68	1.617	1001064	WORD	n/a	wordpools/wordpool_EN.txt	MOLE	12	16	[0, 0, 0]	n/a	FR1	1	R1127P
1694.297	0.002	1001873	DISTRACT_START	n/a	n/a	n/a	-999	16	[0, 0, 0]	n/a	FR1	1	R1127P
1694.299	0.015	1001874	START	n/a	n/a	n/a	-999	16	[-999, -999, -999]	n/a	FR1	1	R1127P
1694.314	5.701	1001881	PROB	5.701	n/a	n/a	-999	16	[9, 2, 7]	18	FR1	1	R1127P
1700.015	3.851	1004732	PROB	3.851	n/a	n/a	-999	16	[5, 3, 5]	13	FR1	1	R1127P
1703.866	4.901	1006657	PROB	4.901	n/a	n/a	-999	16	[1, 8, 6]	14	FR1	1	R1127P
1708.767	3.384	1009108	PROB	3.384	n/a	n/a	-999	16	[5, 1, 3]	9	FR1	1	R1127P
1712.151	9.476	1010799	PROB	9.476	n/a	n/a	-999	16	[3, 4, 6]	13	FR1	1	R1127P
1721.627	0.009	1015537	STOP	n/a	n/a	n/a	-999	16	[-999, -999, -999]	n/a	FR1	1	R1127P
1721.636	1.118	1015542	DISTRACT_END	n/a	n/a	n/a	-999	16	[0, 0, 0]	n/a	FR1	1	R1127P
1722.754	0.432	1016101	REC_START	n/a	n/a	n/a	-999	16	[0, 0, 0]	n/a	FR1	1	R1127P
1723.186	0.656	1016317	REC_WORD	0.656	n/a	LAMB	-999	16	[0, 0, 0]	n/a	FR1	1	R1127P
1723.842	1.862	1016645	REC_WORD	1.862	n/a	DEER	-999	16	[0, 0, 0]	n/a	FR1	1	R1127P
1725.704	1.814	1017576	REC_WORD	1.814	n/a	WOLF	-999	16	[0, 0, 0]	n/a	FR1	1	R1127P
1727.518	0.419	1018483	REC_WORD	0.419	n/a	LAMB	-999	16	[0, 0, 0]	n/a	FR1	1	R1127P
1727.937	0.504	1018692	REC_WORD	0.504	n/a	DEER	-999	16	[0, 0, 0]	n/a	FR1	1	R1127P
1728.441	2.63	1018944	REC_WORD	2.63	n/a	WOLF	-999	16	[0, 0, 0]	n/a	FR1	1	R1127P
1731.071	3.493	1020259	REC_WORD	3.493	n/a	WAND	-999	16	[0, 0, 0]	n/a	FR1	1	R1127P
1734.564	0.314	1022005	REC_WORD	0.314	n/a	LAMB	-999	16	[0, 0, 0]	n/a	FR1	1	R1127P
1734.878	1.2	1022162	REC_WORD	1.2	n/a	DEER	-999	16	[0, 0, 0]	n/a	FR1	1	R1127P
1736.078	0.629	1022762	REC_WORD	0.629	n/a	DOG	-999	16	[0, 0, 0]	n/a	FR1	1	R1127P
1736.707	2.692	1023077	REC_WORD	2.692	n/a	HOOF	-999	16	[0, 0, 0]	n/a	FR1	1	R1127P
1739.399	6.975	1024423	REC_WORD	6.975	n/a	COOK	-999	16	[0, 0, 0]	n/a	FR1	1	R1127P
1746.374	6.19	1027910	REC_WORD	6.19	n/a	LAND	-999	16	[0, 0, 0]	n/a	FR1	1	R1127P
1752.564	0.2	1031005	REC_WORD_VV	0.2	n/a	<>	-999	16	[0, 0, 0]	n/a	FR1	1	R1127P
1752.764	1.611	1031105	REC_END	n/a	n/a	n/a	-999	16	[0, 0, 0]	n/a	FR1	1	R1127P
1754.375	0.0	1031910	TRIAL	n/a	n/a	n/a	-999	17	[0, 0, 0]	n/a	FR1	1	R1127P
1754.375	10.428	1031910	COUNTDOWN_START	n/a	n/a	n/a	-999	17	[0, 0, 0]	n/a	FR1	1	R1127P
1764.803	0.008	1037124	COUNTDOWN_END	n/a	n/a	n/a	-999	17	[0, 0, 0]	n/a	FR1	1	R1127P
1764.811	2.633	1037128	ORIENT	n/a	n/a	n/a	-999	17	[0, 0, 0]	n/a	FR1	1	R1127P
1767.444	2.534	1038445	WORD	n/a	wordpools/wordpool_EN.txt	BAT	1	17	[0, 0, 0]	n/a	FR1	1	R1127P
1769.978	2.434	1039711	WORD	n/a	wordpools/wordpool_EN.txt	FLEA	2	17	[0, 0, 0]	n/a	FR1	1	R1127P
1772.412	2.45	1040928	WORD	n/a	wordpools/wordpool_EN.txt	NEST	3	17	[0, 0, 0]	n/a	FR1	1	R1127P
1774.862	2.484	1042153	WORD	n/a	wordpools/wordpool_EN.txt	WHALE	4	17	[0, 0, 0]	n/a	FR1	1	R1127P
1777.346	2.434	1043395	WORD	n/a	wordpools/wordpool_EN.txt	HORN	5	17	[0, 0, 0]	n/a	FR1	1	R1127P
1779.78	2.6	1044612	WORD	n/a	wordpools/wordpool_EN.txt	PIG	6	17	[0, 0, 0]	n/a	FR1	1	R1127P
1782.38	2.551	1045912	WORD	n/a	wordpools/wordpool_EN.txt	ANT	7	17	[0, 0, 0]	n/a	FR1	1	R1127P
1784.931	2.434	1047188	WORD	n/a	wordpools/wordpool_EN.txt	SNAIL	8	17	[0, 0, 0]	n/a	FR1	1	R1127P
1787.365	2.484	1048405	WORD	n/a	wordpools/wordpool_EN.txt	TAIL	9	17	[0, 0, 0]	n/a	FR1	1	R1127P
1789.849	2.566	1049646	WORD	n/a	wordpools/wordpool_EN.txt	WORM	10	17	[0, 0, 0]	n/a	FR1	1	R1127P
1792.415	2.618	1050929	WORD	n/a	wordpools/wordpool_EN.txt	BALL	11	17	[0, 0, 0]	n/a	FR1	1	R1127P
1795.033	1.617	1052238	WORD	n/a	wordpools/wordpool_EN.txt	BEE	12	17	[0, 0, 0]	n/a	FR1	1	R1127P
1796.65	0.001	1053047	DISTRACT_START	n/a	n/a	n/a	-999	17	[0, 0, 0]	n/a	FR1	1	R1127P
1796.651	0.015	1053047	START	n/a	n/a	n/a	-999	17	[-999, -999, -999]	n/a	FR1	1	R1127P
1796.666	4.485	1053055	PROB	4.485	n/a	n/a	-999	17	[4, 8, 8]	20	FR1	1	R1127P
1801.151	2.933	1055297	PROB	2.933	n/a	n/a	-999	17	[7, 1, 1]	9	FR1	1	R1127P
1804.084	6.202	1056764	PROB	6.202	n/a	n/a	-999	17	[4, 1, 9]	13	FR1	1	R1127P
1810.286	3.017	1059864	PROB	3.017	n/a	n/a	-999	17	[2, 4, 2]	8	FR1	1	R1127P
1813.303	3.38	1061373	PROB	3.38	n/a	n/a	-999	17	[3, 6, 6]	15	FR1	1	R1127P
1816.683	0.004	1063063	STOP	n/a	n/a	n/a	-999	17	[-999, -999, -999]	n/a	FR1	1	R1127P
1816.687	1.167	1063065	DISTRACT_END	n/a	n/a	n/a	-999	17	[0, 0, 0]	n/a	FR1	1	R1127P
1817.854	0.79	1063648	REC_START	n/a	n/a	n/a	-999	17	[0, 0, 0]	n/a	FR1	1	R1127P
1818.644	0.489	1064043	REC_WORD	0.489	n/a	BAT	-999	17	[0, 0, 0]	n/a	FR1	1	R1127P
1819.133	0.774	1064288	REC_WORD	0.774	n/a	NEST	-999	17	[0, 0, 0]	n/a	FR1	1	R1127P
1819.907	0.934	1064675	REC_WORD	0.934	n/a	NAIL	-999	17	[0, 0, 0]	n/a	FR1	1	R1127P
1820.841	2.635	1065142	REC_WORD	2.635	n/a	WORM	-999	17	[0, 0, 0]	n/a	FR1	1	R1127P
1823.476	0.326	1066459	REC_WORD	0.326	n/a	BAT	-999	17	[0, 0, 0]	n/a	FR1	1	R1127P
1823.802	0.406	1066622	REC_WORD	0.406	n/a	NEST	-999	17	[0, 0, 0]	n/a	FR1	1	R1127P
1824.208	0.649	1066825	REC_WORD	0.649	n/a	NAIL	-999	17	[0, 0, 0]	n/a	FR1	1	R1127P
1824.857	13.211	1067150	REC_WORD	13.211	n/a	WORM	-999	17	[0, 0, 0]	n/a	FR1	1	R1127P
1838.068	6.205	1073755	REC_WORD	6.205	n/a	HORN	-999	17	[0, 0, 0]	n/a	FR1	1	R1127P
1844.273	3.595	1076857	REC_WORD	3.595	n/a	WAND	-999	17	[0, 0, 0]	n/a	FR1	1	R1127P
1847.868	1.508	1078654	REC_END	n/a	n/a	n/a	-999	17	[0, 0, 0]	n/a	FR1	1	R1127P
1849.376	0.001	1079408	COUNTDOWN_START	n/a	n/a	n/a	-999	18	[0, 0, 0]	n/a	FR1	1	R1127P
1849.377	10.427	1079409	TRIAL	n/a	n/a	n/a	-999	18	[0, 0, 0]	n/a	FR1	1	R1127P
1859.804	0.008	1084622	COUNTDOWN_END	n/a	n/a	n/a	-999	18	[0, 0, 0]	n/a	FR1	1	R1127P
1859.812	2.6	1084626	ORIENT	n/a	n/a	n/a	-999	18	[0, 0, 0]	n/a	FR1	1	R1127P
1862.412	2.584	1085926	WORD	n/a	wordpools/wordpool_EN.txt	SMILE	1	18	[0, 0, 0]	n/a	FR1	1	R1127P
1864.996	2.535	1087218	WORD	n/a	wordpools/wordpool_EN.txt	LAKE	2	18	[0, 0, 0]	n/a	FR1	1	R1127P
1867.531	2.566	1088485	WORD	n/a	wordpools/wordpool_EN.txt	TRAY	3	18	[0, 0, 0]	n/a	FR1	1	R1127P
1870.097	2.418	1089768	WORD	n/a	wordpools/wordpool_EN.txt	SUN	4	18	[0, 0, 0]	n/a	FR1	1	R1127P
1872.515	2.5	1090977	WORD	n/a	wordpools/wordpool_EN.txt	THUMB	5	18	[0, 0, 0]	n/a	FR1	1	R1127P
1875.015	2.417	1092227	WORD	n/a	wordpools/wordpool_EN.txt	SKY	6	18	[0, 0, 0]	n/a	FR1	1	R1127P
1877.432	2.583	1093436	WORD	n/a	wordpools/wordpool_EN.txt	BEACH	7	18	[0, 0, 0]	n/a	FR1	1	R1127P
1880.015	2.434	1094727	WORD	n/a	wordpools/wordpool_EN.txt	BEAK	8	18	[0, 0, 0]	n/a	FR1	1	R1127P
1882.449	2.417	1095944	WORD	n/a	wordpools/wordpool_EN.txt	WALL	9	18	[0, 0, 0]	n/a	FR1	1	R1127P
1884.866	2.417	1097153	WORD	n/a	wordpools/wordpool_EN.txt	STORM	10	18	[0, 0, 0]	n/a	FR1	1	R1127P
1887.283	2.468	1098361	WORD	n/a	wordpools/wordpool_EN.txt	BIRD	11	18	[0, 0, 0]	n/a	FR1	1	R1127P
1889.751	1.617	1099595	WORD	n/a	wordpools/wordpool_EN.txt	TIE	12	18	[0, 0, 0]	n/a	FR1	1	R1127P
1891.368	0.001	1100403	DISTRACT_START	n/a	n/a	n/a	-999	18	[0, 0, 0]	n/a	FR1	1	R1127P
1891.369	0.015	1100404	START	n/a	n/a	n/a	-999	18	[-999, -999, -999]	n/a	FR1	1	R1127P
1891.384	5.535	1100411	PROB	5.535	n/a	n/a	-999	18	[1, 6, 8]	14	FR1	1	R1127P
1896.919	4.017	1103179	PROB	4.017	n/a	n/a	-999	18	[4, 7, 7]	18	FR1	1	R1127P
1900.936	2.951	1105187	PROB	2.951	n/a	n/a	-999	18	[5, 2, 1]	8	FR1	1	R1127P
1903.887	2.3	1106663	PROB	2.3	n/a	n/a	-999	18	[5, 1, 2]	8	FR1	1	R1127P
1906.187	4.017	1107813	PROB	4.017	n/a	n/a	-999	18	[7, 4, 1]	12	FR1	1	R1127P
1910.204	4.103	1109821	PROB	4.103	n/a	n/a	-999	18	[4, 7, 7]	18	FR1	1	R1127P
1914.307	0.015	1111872	STOP	n/a	n/a	n/a	-999	18	[-999, -999, -999]	n/a	FR1	1	R1127P
1914.322	1.118	1111880	DISTRACT_END	n/a	n/a	n/a	-999	18	[0, 0, 0]	n/a	FR1	1	R1127P
1915.44	0.655	1112439	REC_START	n/a	n/a	n/a	-999	18	[0, 0, 0]	n/a	FR1	1	R1127P
1916.095	1.02	1112766	REC_WORD	1.02	n/a	SMILE	-999	18	[0, 0, 0]	n/a	FR1	1	R1127P
1917.115	2.653	1113276	REC_WORD	2.653	n/a	LAKE	-999	18	[0, 0, 0]	n/a	FR1	1	R1127P
1919.768	0.819	1114603	REC_WORD	0.819	n/a	SMILE	-999	18	[0, 0, 0]	n/a	FR1	1	R1127P
1920.587	1.05	1115012	REC_WORD	1.05	n/a	LAKE	-999	18	[0, 0, 0]	n/a	FR1	1	R1127P
1921.637	1.783	1115537	REC_WORD	1.783	n/a	THUMB	-999	18	[0, 0, 0]	n/a	FR1	1	R1127P
1923.42	0.402	1116429	REC_WORD	0.402	n/a	TOE	-999	18	[0, 0, 0]	n/a	FR1	1	R1127P
1923.822	0.359	1116630	REC_WORD	0.359	n/a	LAKE	-999	18	[0, 0, 0]	n/a	FR1	1	R1127P
1924.181	3.815	1116809	REC_WORD	3.815	n/a	THUMB	-999	18	[0, 0, 0]	n/a	FR1	1	R1127P
1927.996	17.452	1118716	REC_WORD	17.452	n/a	WHALE	-999	18	[0, 0, 0]	n/a	FR1	1	R1127P
1945.448	1.646	1127442	REC_END	n/a	n/a	n/a	-999	18	[0, 0, 0]	n/a	FR1	1	R1127P
1947.094	0.001	1128265	COUNTDOWN_START	n/a	n/a	n/a	-999	19	[0, 0, 0]	n/a	FR1	1	R1127P
1947.095	10.427	1128265	TRIAL	n/a	n/a	n/a	-999	19	[0, 0, 0]	n/a	FR1	1	R1127P
1957.522	0.009	1133479	COUNTDOWN_END	n/a	n/a	n/a	-999	19	[0, 0, 0]	n/a	FR1	1	R1127P
1957.531	2.433	1133483	ORIENT	n/a	n/a	n/a	-999	19	[0, 0, 0]	n/a	FR1	1	R1127P
1959.964	2.417	1134700	WORD	n/a	wordpools/wordpool_EN.txt	MOON	1	19	[0, 0, 0]	n/a	FR1	1	R1127P
1962.381	2.484	1135908	WORD	n/a	wordpools/wordpool_EN.txt	GRAPE	2	19	[0, 0, 0]	n/a	FR1	1	R1127P
1964.865	2.45	1137150	WORD	n/a	wordpools/wordpool_EN.txt	ICE	3	19	[0, 0, 0]	n/a	FR1	1	R1127P
1967.315	2.484	1138375	WORD	n/a	wordpools/wordpool_EN.txt	PLANE	4	19	[0, 0, 0]	n/a	FR1	1	R1127P
1969.799	2.501	1139617	WORD	n/a	wordpools/wordpool_EN.txt	JET	5	19	[0, 0, 0]	n/a	FR1	1	R1127P
1972.3	2.45	1140867	WORD	n/a	wordpools/wordpool_EN.txt	CAPE	6	19	[0, 0, 0]	n/a	FR1	1	R1127P
1974.75	2.517	1142092	WORD	n/a	wordpools/wordpool_EN.txt	SLUSH	7	19	[0, 0, 0]	n/a	FR1	1	R1127P
1977.267	2.584	1143351	WORD	n/a	wordpools/wordpool_EN.txt	ROCK	8	19	[0, 0, 0]	n/a	FR1	1	R1127P
1979.851	2.55	1144643	WORD	n/a	wordpools/wordpool_EN.txt	DOG	9	19	[0, 0, 0]	n/a	FR1	1	R1127P
1982.401	2.401	1145918	WORD	n/a	wordpools/wordpool_EN.txt	STAR	10	19	[0, 0, 0]	n/a	FR1	1	R1127P
1984.802	2.467	1147118	WORD	n/a	wordpools/wordpool_EN.txt	PRINCE	11	19	[0, 0, 0]	n/a	FR1	1	R1127P
1987.269	1.617	1148351	WORD	n/a	wordpools/wordpool_EN.txt	FISH	12	19	[0, 0, 0]	n/a	FR1	1	R1127P
1988.886	0.001	1149160	DISTRACT_START	n/a	n/a	n/a	-999	19	[0, 0, 0]	n/a	FR1	1	R1127P
1988.887	0.016	1149160	START	n/a	n/a	n/a	-999	19	[-999, -999, -999]	n/a	FR1	1	R1127P
1988.903	5.317	1149168	PROB	5.317	n/a	n/a	-999	19	[7, 2, 6]	15	FR1	1	R1127P
1994.22	5.018	1151827	PROB	5.018	n/a	n/a	-999	19	[9, 5, 2]	16	FR1	1	R1127P
1999.238	3.484	1154336	PROB	3.484	n/a	n/a	-999	19	[2, 7, 1]	10	FR1	1	R1127P
2002.722	5.117	1156078	PROB	5.117	n/a	n/a	-999	19	[3, 4, 8]	15	FR1	1	R1127P
2007.839	3.836	1158636	PROB	3.836	n/a	n/a	-999	19	[3, 9, 9]	22	FR1	1	R1127P
2011.675	0.015	1160554	STOP	n/a	n/a	n/a	-999	19	[-999, -999, -999]	n/a	FR1	1	R1127P
2011.69	1.134	1160561	DISTRACT_END	n/a	n/a	n/a	-999	19	[0, 0, 0]	n/a	FR1	1	R1127P
2012.824	0.563	1161128	REC_START	n/a	n/a	n/a	-999	19	[0, 0, 0]	n/a	FR1	1	R1127P
2013.387	0.619	1161410	REC_WORD	0.619	n/a	MOON	-999	19	[0, 0, 0]	n/a	FR1	1	R1127P
2014.006	0.62	1161719	REC_WORD	0.62	n/a	GRAPE	-999	19	[0, 0, 0]	n/a	FR1	1	R1127P
2014.626	0.487	1162029	REC_WORD	0.487	n/a	ICE	-999	19	[0, 0, 0]	n/a	FR1	1	R1127P
2015.113	1.0	1162273	REC_WORD	1.0	n/a	SLUSH	-999	19	[0, 0, 0]	n/a	FR1	1	R1127P
2016.113	4.451	1162773	REC_WORD_VV	4.451	n/a	<>	-999	19	[0, 0, 0]	n/a	FR1	1	R1127P
2020.564	6.151	1164998	REC_WORD	6.151	n/a	SLUSH	-999	19	[0, 0, 0]	n/a	FR1	1	R1127P
2026.715	1.0	1168073	REC_WORD_VV	1.0	n/a	<>	-999	19	[0, 0, 0]	n/a	FR1	1	R1127P
2027.715	1.19	1168573	REC_WORD_VV	1.19	n/a	<>	-999	19	[0, 0, 0]	n/a	FR1	1	R1127P
2028.905	13.934	1169168	REC_WORD_VV	13.934	n/a	<>	-999	19	[0, 0, 0]	n/a	FR1	1	R1127P
2042.839	1.374	1176135	REC_END	n/a	n/a	n/a	-999	19	[0, 0, 0]	n/a	FR1	1	R1127P
2044.213	0.0	1176822	TRIAL	n/a	n/a	n/a	-999	20	[0, 0, 0]	n/a	FR1	1	R1127P
2044.213	10.428	1176822	COUNTDOWN_START	n/a	n/a	n/a	-999	20	[0, 0, 0]	n/a	FR1	1	R1127P
2054.641	0.007	1182036	COUNTDOWN_END	n/a	n/a	n/a	-999	20	[0, 0, 0]	n/a	FR1	1	R1127P
2054.648	2.551	1182039	ORIENT	n/a	n/a	n/a	-999	20	[0, 0, 0]	n/a	FR1	1	R1127P
2057.199	2.584	1183315	WORD	n/a	wordpools/wordpool_EN.txt	MAT	1	20	[0, 0, 0]	n/a	FR1	1	R1127P
2059.783	2.6	1184607	WORD	n/a	wordpools/wordpool_EN.txt	COW	2	20	[0, 0, 0]	n/a	FR1	1	R1127P
2062.383	2.601	1185907	WORD	n/a	wordpools/wordpool_EN.txt	PIE	3	20	[0, 0, 0]	n/a	FR1	1	R1127P
2064.984	2.567	1187207	WORD	n/a	wordpools/wordpool_EN.txt	BREAD	4	20	[0, 0, 0]	n/a	FR1	1	R1127P
2067.551	2.6	1188490	WORD	n/a	wordpools/wordpool_EN.txt	DOLL	5	20	[0, 0, 0]	n/a	FR1	1	R1127P
2070.151	2.434	1189790	WORD	n/a	wordpools/wordpool_EN.txt	VASE	6	20	[0, 0, 0]	n/a	FR1	1	R1127P
2072.585	2.5	1191007	WORD	n/a	wordpools/wordpool_EN.txt	SPRING	7	20	[0, 0, 0]	n/a	FR1	1	R1127P
2075.085	2.385	1192257	WORD	n/a	wordpools/wordpool_EN.txt	SINK	8	20	[0, 0, 0]	n/a	FR1	1	R1127P
2077.47	2.566	1193450	WORD	n/a	wordpools/wordpool_EN.txt	SEAT	9	20	[0, 0, 0]	n/a	FR1	1	R1127P
2080.036	2.567	1194733	WORD	n/a	wordpools/wordpool_EN.txt	SHEEP	10	20	[0, 0, 0]	n/a	FR1	1	R1127P
2082.603	2.484	1196016	WORD	n/a	wordpools/wordpool_EN.txt	CLOTH	11	20	[0, 0, 0]	n/a	FR1	1	R1127P
2085.087	1.617	1197258	WORD	n/a	wordpools/wordpool_EN.txt	BLUSH	12	20	[0, 0, 0]	n/a	FR1	1	R1127P
2086.704	0.001	1198066	DISTRACT_START	n/a	n/a	n/a	-999	20	[0, 0, 0]	n/a	FR1	1	R1127P
2086.705	0.016	1198067	START	n/a	n/a	n/a	-999	20	[-999, -999, -999]	n/a	FR1	1	R1127P
2086.721	6.735	1198075	PROB	6.735	n/a	n/a	-999	20	[5, 6, 8]	20	FR1	1	R1127P
2093.456	4.15	1201442	PROB	4.15	n/a	n/a	-999	20	[8, 3, 1]	13	FR1	1	R1127P
2097.606	4.651	1203517	PROB	4.651	n/a	n/a	-999	20	[3, 3, 9]	15	FR1	1	R1127P
2102.257	6.21	1205843	PROB	6.21	n/a	n/a	-999	20	[4, 7, 5]	16	FR1	1	R1127P
2108.467	0.009	1208947	STOP	n/a	n/a	n/a	-999	20	[-999, -999, -999]	n/a	FR1	1	R1127P
2108.476	1.083	1208952	DISTRACT_END	n/a	n/a	n/a	-999	20	[0, 0, 0]	n/a	FR1	1	R1127P
2109.559	1.047	1209493	REC_START	n/a	n/a	n/a	-999	20	[0, 0, 0]	n/a	FR1	1	R1127P
2110.606	1.514	1210017	REC_WORD	1.514	n/a	MAT	-999	20	[0, 0, 0]	n/a	FR1	1	R1127P
2112.12	0.758	1210774	REC_WORD	0.758	n/a	CAT	-999	20	[0, 0, 0]	n/a	FR1	1	R1127P
2112.878	5.081	1211153	REC_WORD	5.081	n/a	BREAD	-999	20	[0, 0, 0]	n/a	FR1	1	R1127P
2117.959	0.399	1213693	REC_WORD	0.399	n/a	MAT	-999	20	[0, 0, 0]	n/a	FR1	1	R1127P
2118.358	0.596	1213893	REC_WORD	0.596	n/a	CAT	-999	20	[0, 0, 0]	n/a	FR1	1	R1127P
2118.954	10.888	1214191	REC_WORD	10.888	n/a	BREAD	-999	20	[0, 0, 0]	n/a	FR1	1	R1127P
2129.842	1.0	1219634	REC_WORD_VV	1.0	n/a	<>	-999	20	[0, 0, 0]	n/a	FR1	1	R1127P
2130.842	0.557	1220134	REC_WORD_VV	0.557	n/a	<>	-999	20	[0, 0, 0]	n/a	FR1	1	R1127P
2131.399	0.5	1220413	REC_WORD	0.5	n/a	MAT	-999	20	[0, 0, 0]	n/a	FR1	1	R1127P
2131.899	0.395	1220663	REC_WORD	0.395	n/a	CAT	-999	20	[0, 0, 0]	n/a	FR1	1	R1127P
2132.294	0.315	1220860	REC_WORD	0.315	n/a	MAT	-999	20	[0, 0, 0]	n/a	FR1	1	R1127P
2132.609	0.425	1221018	REC_WORD	0.425	n/a	CAT	-999	20	[0, 0, 0]	n/a	FR1	1	R1127P
2133.034	6.54	1221230	REC_WORD	6.54	n/a	BREAD	-999	20	[0, 0, 0]	n/a	FR1	1	R1127P
2139.574	1.624	1224500	REC_END	n/a	n/a	n/a	-999	20	[0, 0, 0]	n/a	FR1	1	R1127P
2141.198	0.0	1225312	TRIAL	n/a	n/a	n/a	-999	21	[0, 0, 0]	n/a	FR1	1	R1127P
2141.198	10.428	1225312	COUNTDOWN_START	n/a	n/a	n/a	-999	21	[0, 0, 0]	n/a	FR1	1	R1127P
2151.626	0.007	1230526	COUNTDOWN_END	n/a	n/a	n/a	-999	21	[0, 0, 0]	n/a	FR1	1	R1127P
2151.633	2.484	1230529	ORIENT	n/a	n/a	n/a	-999	21	[0, 0, 0]	n/a	FR1	1	R1127P
2154.117	2.45	1231771	WORD	n/a	wordpools/wordpool_EN.txt	TENT	1	21	[0, 0, 0]	n/a	FR1	1	R1127P
2156.567	2.584	1232996	WORD	n/a	wordpools/wordpool_EN.txt	GUARD	2	21	[0, 0, 0]	n/a	FR1	1	R1127P
2159.151	2.601	1234288	WORD	n/a	wordpools/wordpool_EN.txt	JEEP	3	21	[0, 0, 0]	n/a	FR1	1	R1127P
2161.752	2.4	1235589	WORD	n/a	wordpools/wordpool_EN.txt	ARK	4	21	[0, 0, 0]	n/a	FR1	1	R1127P
2164.152	2.534	1236789	WORD	n/a	wordpools/wordpool_EN.txt	LIP	5	21	[0, 0, 0]	n/a	FR1	1	R1127P
2166.686	2.55	1238055	WORD	n/a	wordpools/wordpool_EN.txt	PEN	6	21	[0, 0, 0]	n/a	FR1	1	R1127P
2169.236	2.618	1239330	WORD	n/a	wordpools/wordpool_EN.txt	CHEEK	7	21	[0, 0, 0]	n/a	FR1	1	R1127P
2171.854	2.618	1240639	WORD	n/a	wordpools/wordpool_EN.txt	BADGE	8	21	[0, 0, 0]	n/a	FR1	1	R1127P
2174.472	2.516	1241948	WORD	n/a	wordpools/wordpool_EN.txt	HAT	9	21	[0, 0, 0]	n/a	FR1	1	R1127P
2176.988	2.4	1243206	WORD	n/a	wordpools/wordpool_EN.txt	MUD	10	21	[0, 0, 0]	n/a	FR1	1	R1127P
2179.388	2.434	1244406	WORD	n/a	wordpools/wordpool_EN.txt	GEESE	11	21	[0, 0, 0]	n/a	FR1	1	R1127P
2181.822	1.617	1245623	WORD	n/a	wordpools/wordpool_EN.txt	HAND	12	21	[0, 0, 0]	n/a	FR1	1	R1127P
2183.439	0.001	1246432	DISTRACT_START	n/a	n/a	n/a	-999	21	[0, 0, 0]	n/a	FR1	1	R1127P
2183.44	0.016	1246432	START	n/a	n/a	n/a	-999	21	[-999, -999, -999]	n/a	FR1	1	R1127P
2183.456	3.567	1246440	PROB	3.567	n/a	n/a	-999	21	[5, 3, 5]	13	FR1	1	R1127P
2187.023	2.384	1248223	PROB	2.384	n/a	n/a	-999	21	[6, 4, 1]	11	FR1	1	R1127P
2189.407	4.034	1249415	PROB	4.034	n/a	n/a	-999	21	[6, 6, 5]	17	FR1	1	R1127P
2193.441	6.668	1251432	PROB	6.668	n/a	n/a	-999	21	[6, 9, 3]	18	FR1	1	R1127P
2200.109	5.686	1254766	PROB	5.686	n/a	n/a	-999	21	[7, 9, 3]	17	FR1	1	R1127P
2205.795	0.015	1257609	STOP	n/a	n/a	n/a	-999	21	[-999, -999, -999]	n/a	FR1	1	R1127P
2205.81	1.218	1257616	DISTRACT_END	n/a	n/a	n/a	-999	21	[0, 0, 0]	n/a	FR1	1	R1127P
2207.028	0.68	1258225	REC_START	n/a	n/a	n/a	-999	21	[0, 0, 0]	n/a	FR1	1	R1127P
2207.708	0.9	1258565	REC_WORD	0.9	n/a	TENT	-999	21	[0, 0, 0]	n/a	FR1	1	R1127P
2208.608	0.695	1259015	REC_WORD	0.695	n/a	TAPE	-999	21	[0, 0, 0]	n/a	FR1	1	R1127P
2209.303	0.492	1259363	REC_WORD	0.492	n/a	TENT	-999	21	[0, 0, 0]	n/a	FR1	1	R1127P
2209.795	0.564	1259609	REC_WORD	0.564	n/a	TAPE	-999	21	[0, 0, 0]	n/a	FR1	1	R1127P
2210.359	2.43	1259891	REC_WORD	2.43	n/a	LEAD	-999	21	[0, 0, 0]	n/a	FR1	1	R1127P
2212.789	0.405	1261106	REC_WORD	0.405	n/a	TENT	-999	21	[0, 0, 0]	n/a	FR1	1	R1127P
2213.194	0.45	1261308	REC_WORD	0.45	n/a	TAPE	-999	21	[0, 0, 0]	n/a	FR1	1	R1127P
2213.644	6.806	1261533	REC_WORD_VV	6.806	n/a	<>	-999	21	[0, 0, 0]	n/a	FR1	1	R1127P
2220.45	0.455	1264936	REC_WORD	0.455	n/a	TENT	-999	21	[0, 0, 0]	n/a	FR1	1	R1127P
2220.905	7.232	1265164	REC_WORD	7.232	n/a	TAPE	-999	21	[0, 0, 0]	n/a	FR1	1	R1127P
2228.137	8.901	1268779	REC_WORD	8.901	n/a	BLUSH	-999	21	[0, 0, 0]	n/a	FR1	1	R1127P
2237.038	1.695	1273230	REC_END	n/a	n/a	n/a	-999	21	[0, 0, 0]	n/a	FR1	1	R1127P
2238.733	0.0	1274077	TRIAL	n/a	n/a	n/a	-999	22	[0, 0, 0]	n/a	FR1	1	R1127P
2238.733	10.428	1274077	COUNTDOWN_START	n/a	n/a	n/a	-999	22	[0, 0, 0]	n/a	FR1	1	R1127P
2249.161	0.007	1279291	COUNTDOWN_END	n/a	n/a	n/a	-999	22	[0, 0, 0]	n/a	FR1	1	R1127P
2249.168	2.551	1279294	ORIENT	n/a	n/a	n/a	-999	22	[0, 0, 0]	n/a	FR1	1	R1127P
2251.719	2.567	1280570	WORD	n/a	wordpools/wordpool_EN.txt	PEAR	1	22	[0, 0, 0]	n/a	FR1	1	R1127P
2254.286	2.4	1281853	WORD	n/a	wordpools/wordpool_EN.txt	CALF	2	22	[0, 0, 0]	n/a	FR1	1	R1127P
2256.686	2.384	1283053	WORD	n/a	wordpools/wordpool_EN.txt	FOX	3	22	[0, 0, 0]	n/a	FR1	1	R1127P
2259.07	2.617	1284245	WORD	n/a	wordpools/wordpool_EN.txt	EEL	4	22	[0, 0, 0]	n/a	FR1	1	R1127P
2261.687	2.434	1285554	WORD	n/a	wordpools/wordpool_EN.txt	MOUTH	5	22	[0, 0, 0]	n/a	FR1	1	R1127P
2264.121	2.418	1286770	WORD	n/a	wordpools/wordpool_EN.txt	ROOT	6	22	[0, 0, 0]	n/a	FR1	1	R1127P
2266.539	2.416	1287979	WORD	n/a	wordpools/wordpool_EN.txt	CHIEF	7	22	[0, 0, 0]	n/a	FR1	1	R1127P
2268.955	2.451	1289187	WORD	n/a	wordpools/wordpool_EN.txt	LEAF	8	22	[0, 0, 0]	n/a	FR1	1	R1127P
2271.406	2.467	1290413	WORD	n/a	wordpools/wordpool_EN.txt	TOOTH	9	22	[0, 0, 0]	n/a	FR1	1	R1127P
2273.873	2.484	1291646	WORD	n/a	wordpools/wordpool_EN.txt	WEB	10	22	[0, 0, 0]	n/a	FR1	1	R1127P
2276.357	2.567	1292888	WORD	n/a	wordpools/wordpool_EN.txt	CHALK	11	22	[0, 0, 0]	n/a	FR1	1	R1127P
2278.924	1.601	1294172	WORD	n/a	wordpools/wordpool_EN.txt	BRANCH	12	22	[0, 0, 0]	n/a	FR1	1	R1127P
2280.525	0.001	1294972	DISTRACT_START	n/a	n/a	n/a	-999	22	[0, 0, 0]	n/a	FR1	1	R1127P
2280.526	0.016	1294973	START	n/a	n/a	n/a	-999	22	[-999, -999, -999]	n/a	FR1	1	R1127P
2280.542	3.866	1294981	PROB	3.866	n/a	n/a	-999	22	[6, 3, 2]	11	FR1	1	R1127P
2284.408	5.001	1296913	PROB	5.001	n/a	n/a	-999	22	[4, 8, 3]	15	FR1	1	R1127P
2289.409	3.234	1299414	PROB	3.234	n/a	n/a	-999	22	[1, 2, 6]	9	FR1	1	R1127P
2292.643	4.467	1301031	PROB	4.467	n/a	n/a	-999	22	[9, 4, 9]	22	FR1	1	R1127P
2297.11	2.501	1303264	PROB	2.501	n/a	n/a	-999	22	[4, 6, 1]	11	FR1	1	R1127P
2299.611	6.72	1304515	PROB	6.72	n/a	n/a	-999	22	[9, 5, 6]	20	FR1	1	R1127P
2306.331	0.014	1307874	STOP	n/a	n/a	n/a	-999	22	[-999, -999, -999]	n/a	FR1	1	R1127P
2306.345	1.051	1307881	DISTRACT_END	n/a	n/a	n/a	-999	22	[0, 0, 0]	n/a	FR1	1	R1127P
2307.396	0.852	1308407	REC_START	n/a	n/a	n/a	-999	22	[0, 0, 0]	n/a	FR1	1	R1127P
2308.248	3.559	1308833	REC_WORD	3.559	n/a	PEAR	-999	22	[0, 0, 0]	n/a	FR1	1	R1127P
2311.807	0.673	1310612	REC_WORD	0.673	n/a	CALF	-999	22	[0, 0, 0]	n/a	FR1	1	R1127P
2312.48	0.406	1310949	REC_WORD	0.406	n/a	PEAR	-999	22	[0, 0, 0]	n/a	FR1	1	R1127P
2312.886	2.02	1311152	REC_WORD	2.02	n/a	CALF	-999	22	[0, 0, 0]	n/a	FR1	1	R1127P
2314.906	1.744	1312162	REC_WORD	1.744	n/a	EEL	-999	22	[0, 0, 0]	n/a	FR1	1	R1127P
2316.65	0.319	1313034	REC_WORD	0.319	n/a	PEAR	-999	22	[0, 0, 0]	n/a	FR1	1	R1127P
2316.969	0.431	1313193	REC_WORD	0.431	n/a	CALF	-999	22	[0, 0, 0]	n/a	FR1	1	R1127P
2317.4	16.536	1313409	REC_WORD	16.536	n/a	EEL	-999	22	[0, 0, 0]	n/a	FR1	1	R1127P
2333.936	0.358	1321676	REC_WORD	0.358	n/a	PEAR	-999	22	[0, 0, 0]	n/a	FR1	1	R1127P
2334.294	0.453	1321855	REC_WORD	0.453	n/a	CALF	-999	22	[0, 0, 0]	n/a	FR1	1	R1127P
2334.747	2.66	1322082	REC_WORD	2.66	n/a	EEL	-999	22	[0, 0, 0]	n/a	FR1	1	R1127P
2337.407	1.811	1323412	REC_END	n/a	n/a	n/a	-999	22	[0, 0, 0]	n/a	FR1	1	R1127P
2339.218	0.001	1324317	COUNTDOWN_START	n/a	n/a	n/a	-999	23	[0, 0, 0]	n/a	FR1	1	R1127P
2339.219	10.427	1324318	TRIAL	n/a	n/a	n/a	-999	23	[0, 0, 0]	n/a	FR1	1	R1127P
2349.646	0.008	1329531	COUNTDOWN_END	n/a	n/a	n/a	-999	23	[0, 0, 0]	n/a	FR1	1	R1127P
2349.654	2.45	1329535	ORIENT	n/a	n/a	n/a	-999	23	[0, 0, 0]	n/a	FR1	1	R1127P
2352.104	2.567	1330760	WORD	n/a	wordpools/wordpool_EN.txt	LAMP	1	23	[0, 0, 0]	n/a	FR1	1	R1127P
2354.671	2.534	1332043	WORD	n/a	wordpools/wordpool_EN.txt	BOX	2	23	[0, 0, 0]	n/a	FR1	1	R1127P
2357.205	2.434	1333310	WORD	n/a	wordpools/wordpool_EN.txt	CHAIR	3	23	[0, 0, 0]	n/a	FR1	1	R1127P
2359.639	2.55	1334527	WORD	n/a	wordpools/wordpool_EN.txt	PHONE	4	23	[0, 0, 0]	n/a	FR1	1	R1127P
2362.189	2.618	1335802	WORD	n/a	wordpools/wordpool_EN.txt	GATE	5	23	[0, 0, 0]	n/a	FR1	1	R1127P
2364.807	2.4	1337111	WORD	n/a	wordpools/wordpool_EN.txt	OAK	6	23	[0, 0, 0]	n/a	FR1	1	R1127P
2367.207	2.4	1338311	WORD	n/a	wordpools/wordpool_EN.txt	SHARK	7	23	[0, 0, 0]	n/a	FR1	1	R1127P
2369.607	2.567	1339511	WORD	n/a	wordpools/wordpool_EN.txt	LOCK	8	23	[0, 0, 0]	n/a	FR1	1	R1127P
2372.174	2.451	1340794	WORD	n/a	wordpools/wordpool_EN.txt	STREET	9	23	[0, 0, 0]	n/a	FR1	1	R1127P
2374.625	2.434	1342020	WORD	n/a	wordpools/wordpool_EN.txt	MAZE	10	23	[0, 0, 0]	n/a	FR1	1	R1127P
2377.059	2.468	1343237	WORD	n/a	wordpools/wordpool_EN.txt	CLOCK	11	23	[0, 0, 0]	n/a	FR1	1	R1127P
2379.527	1.616	1344471	WORD	n/a	wordpools/wordpool_EN.txt	LAWN	12	23	[0, 0, 0]	n/a	FR1	1	R1127P
2381.143	0.0	1345279	DISTRACT_START	n/a	n/a	n/a	-999	23	[0, 0, 0]	n/a	FR1	1	R1127P
2381.143	0.016	1345279	START	n/a	n/a	n/a	-999	23	[-999, -999, -999]	n/a	FR1	1	R1127P
2381.159	6.085	1345287	PROB	6.085	n/a	n/a	-999	23	[6, 2, 5]	14	FR1	1	R1127P
2387.244	5.084	1348329	PROB	5.084	n/a	n/a	-999	23	[2, 9, 4]	16	FR1	1	R1127P
2392.328	4.985	1350871	PROB	4.985	n/a	n/a	-999	23	[7, 2, 6]	15	FR1	1	R1127P
2397.313	4.066	1353363	PROB	4.066	n/a	n/a	-999	23	[2, 4, 8]	14	FR1	1	R1127P
2401.379	0.018	1355396	STOP	n/a	n/a	n/a	-999	23	[-999, -999, -999]	n/a	FR1	1	R1127P
2401.397	1.184	1355405	DISTRACT_END	n/a	n/a	n/a	-999	23	[0, 0, 0]	n/a	FR1	1	R1127P
2402.581	0.726	1355997	REC_START	n/a	n/a	n/a	-999	23	[0, 0, 0]	n/a	FR1	1	R1127P
2403.307	0.49	1356360	REC_WORD	0.49	n/a	LAMP	-999	23	[0, 0, 0]	n/a	FR1	1	R1127P
2403.797	4.255	1356605	REC_WORD	4.255	n/a	BOAT	-999	23	[0, 0, 0]	n/a	FR1	1	R1127P
2408.052	0.313	1358732	REC_WORD	0.313	n/a	LAMP	-999	23	[0, 0, 0]	n/a	FR1	1	R1127P
2408.365	0.428	1358889	REC_WORD	0.428	n/a	BOAT	-999	23	[0, 0, 0]	n/a	FR1	1	R1127P
2408.793	6.136	1359103	REC_WORD	6.136	n/a	GATE	-999	23	[0, 0, 0]	n/a	FR1	1	R1127P
2414.929	2.705	1362171	REC_WORD_VV	2.705	n/a	<>	-999	23	[0, 0, 0]	n/a	FR1	1	R1127P
2417.634	0.439	1363523	REC_WORD	0.439	n/a	LAMP	-999	23	[0, 0, 0]	n/a	FR1	1	R1127P
2418.073	0.581	1363743	REC_WORD	0.581	n/a	BOAT	-999	23	[0, 0, 0]	n/a	FR1	1	R1127P
2418.654	9.001	1364033	REC_WORD	9.001	n/a	GATE	-999	23	[0, 0, 0]	n/a	FR1	1	R1127P
2427.655	3.15	1368533	REC_WORD	3.15	n/a	NECKLACE	-999	23	[0, 0, 0]	n/a	FR1	1	R1127P
2430.805	1.786	1370108	REC_WORD	1.786	n/a	TRUCK	-999	23	[0, 0, 0]	n/a	FR1	1	R1127P
2432.591	1.662	1371001	REC_END	n/a	n/a	n/a	-999	23	[0, 0, 0]	n/a	FR1	1	R1127P
2434.253	0.0	1371832	TRIAL	n/a	n/a	n/a	-999	24	[0, 0, 0]	n/a	FR1	1	R1127P
2434.253	10.428	1371832	COUNTDOWN_START	n/a	n/a	n/a	-999	24	[0, 0, 0]	n/a	FR1	1	R1127P
2444.681	0.007	1377046	COUNTDOWN_END	n/a	n/a	n/a	-999	24	[0, 0, 0]	n/a	FR1	1	R1127P
2444.688	2.517	1377049	ORIENT	n/a	n/a	n/a	-999	24	[0, 0, 0]	n/a	FR1	1	R1127P
2447.205	2.617	1378308	WORD	n/a	wordpools/wordpool_EN.txt	JUICE	1	24	[0, 0, 0]	n/a	FR1	1	R1127P
2449.822	2.484	1379616	WORD	n/a	wordpools/wordpool_EN.txt	CORN	2	24	[0, 0, 0]	n/a	FR1	1	R1127P
2452.306	2.617	1380858	WORD	n/a	wordpools/wordpool_EN.txt	CAGE	3	24	[0, 0, 0]	n/a	FR1	1	R1127P
2454.923	2.417	1382167	WORD	n/a	wordpools/wordpool_EN.txt	MUG	4	24	[0, 0, 0]	n/a	FR1	1	R1127P
2457.34	2.518	1383375	WORD	n/a	wordpools/wordpool_EN.txt	HORSE	5	24	[0, 0, 0]	n/a	FR1	1	R1127P
2459.858	2.4	1384634	WORD	n/a	wordpools/wordpool_EN.txt	ARM	6	24	[0, 0, 0]	n/a	FR1	1	R1127P
2462.258	2.501	1385834	WORD	n/a	wordpools/wordpool_EN.txt	STEAK	7	24	[0, 0, 0]	n/a	FR1	1	R1127P
2464.759	2.6	1387084	WORD	n/a	wordpools/wordpool_EN.txt	TOAST	8	24	[0, 0, 0]	n/a	FR1	1	R1127P
2467.359	2.484	1388384	WORD	n/a	wordpools/wordpool_EN.txt	CAVE	9	24	[0, 0, 0]	n/a	FR1	1	R1127P
2469.843	2.417	1389626	WORD	n/a	wordpools/wordpool_EN.txt	GLASS	10	24	[0, 0, 0]	n/a	FR1	1	R1127P
2472.26	2.584	1390835	WORD	n/a	wordpools/wordpool_EN.txt	HOOF	11	24	[0, 0, 0]	n/a	FR1	1	R1127P
2474.844	1.617	1392127	WORD	n/a	wordpools/wordpool_EN.txt	PLATE	12	24	[0, 0, 0]	n/a	FR1	1	R1127P
2476.461	0.001	1392935	DISTRACT_START	n/a	n/a	n/a	-999	24	[0, 0, 0]	n/a	FR1	1	R1127P
2476.462	0.016	1392936	START	n/a	n/a	n/a	-999	24	[-999, -999, -999]	n/a	FR1	1	R1127P
2476.478	3.834	1392944	PROB	3.834	n/a	n/a	-999	24	[3, 6, 4]	13	FR1	1	R1127P
2480.312	4.201	1394861	PROB	4.201	n/a	n/a	-999	24	[5, 3, 4]	12	FR1	1	R1127P
2484.513	6.717	1396961	PROB	6.717	n/a	n/a	-999	24	[9, 5, 6]	20	FR1	1	R1127P
2491.23	2.617	1400319	PROB	2.617	n/a	n/a	-999	24	[2, 2, 4]	8	FR1	1	R1127P
2493.847	4.884	1401628	PROB	4.884	n/a	n/a	-999	24	[9, 2, 7]	18	FR1	1	R1127P
2498.731	0.017	1404070	STOP	n/a	n/a	n/a	-999	24	[-999, -999, -999]	n/a	FR1	1	R1127P
2498.748	1.135	1404078	DISTRACT_END	n/a	n/a	n/a	-999	24	[0, 0, 0]	n/a	FR1	1	R1127P
2499.883	0.79	1404646	REC_START	n/a	n/a	n/a	-999	24	[0, 0, 0]	n/a	FR1	1	R1127P
2500.673	0.65	1405041	REC_WORD	0.65	n/a	JUICE	-999	24	[0, 0, 0]	n/a	FR1	1	R1127P
2501.323	1.478	1405365	REC_WORD	1.478	n/a	CORN	-999	24	[0, 0, 0]	n/a	FR1	1	R1127P
2502.801	3.33	1406104	REC_WORD	3.33	n/a	CAGE	-999	24	[0, 0, 0]	n/a	FR1	1	R1127P
2506.131	12.696	1407769	REC_WORD_VV	12.696	n/a	<>	-999	24	[0, 0, 0]	n/a	FR1	1	R1127P
2518.827	0.523	1414117	REC_WORD	0.523	n/a	JUICE	-999	24	[0, 0, 0]	n/a	FR1	1	R1127P
2519.35	0.85	1414379	REC_WORD	0.85	n/a	CORN	-999	24	[0, 0, 0]	n/a	FR1	1	R1127P
2520.2	9.693	1414804	REC_WORD	9.693	n/a	CAGE	-999	24	[0, 0, 0]	n/a	FR1	1	R1127P
2529.893	1.761	1419650	REC_END	n/a	n/a	n/a	-999	24	[0, 0, 0]	n/a	FR1	1	R1127P
2531.654	0.0	1420530	TRIAL	n/a	n/a	n/a	-999	25	[0, 0, 0]	n/a	FR1	1	R1127P
2531.654	10.428	1420530	COUNTDOWN_START	n/a	n/a	n/a	-999	25	[0, 0, 0]	n/a	FR1	1	R1127P
2542.082	0.008	1425744	COUNTDOWN_END	n/a	n/a	n/a	-999	25	[0, 0, 0]	n/a	FR1	1	R1127P
2542.09	2.451	1425748	ORIENT	n/a	n/a	n/a	-999	25	[0, 0, 0]	n/a	FR1	1	R1127P
2544.541	2.616	1426973	WORD	n/a	wordpools/wordpool_EN.txt	BRICK	1	25	[0, 0, 0]	n/a	FR1	1	R1127P
2547.157	2.534	1428281	WORD	n/a	wordpools/wordpool_EN.txt	MAIL	2	25	[0, 0, 0]	n/a	FR1	1	R1127P
2549.691	2.467	1429548	WORD	n/a	wordpools/wordpool_EN.txt	FILM	3	25	[0, 0, 0]	n/a	FR1	1	R1127P
2552.158	2.501	1430782	WORD	n/a	wordpools/wordpool_EN.txt	JUDGE	4	25	[0, 0, 0]	n/a	FR1	1	R1127P
2554.659	2.6	1432032	WORD	n/a	wordpools/wordpool_EN.txt	DOOR	5	25	[0, 0, 0]	n/a	FR1	1	R1127P
2557.259	2.401	1433332	WORD	n/a	wordpools/wordpool_EN.txt	CAR	6	25	[0, 0, 0]	n/a	FR1	1	R1127P
2559.66	2.584	1434533	WORD	n/a	wordpools/wordpool_EN.txt	BOOK	7	25	[0, 0, 0]	n/a	FR1	1	R1127P
2562.244	2.467	1435824	WORD	n/a	wordpools/wordpool_EN.txt	KITE	8	25	[0, 0, 0]	n/a	FR1	1	R1127P
2564.711	2.5	1437058	WORD	n/a	wordpools/wordpool_EN.txt	INK	9	25	[0, 0, 0]	n/a	FR1	1	R1127P
2567.211	2.551	1438308	WORD	n/a	wordpools/wordpool_EN.txt	SKI	10	25	[0, 0, 0]	n/a	FR1	1	R1127P
2569.762	2.433	1439583	WORD	n/a	wordpools/wordpool_EN.txt	BANK	11	25	[0, 0, 0]	n/a	FR1	1	R1127P
2572.195	1.617	1440800	WORD	n/a	wordpools/wordpool_EN.txt	JAIL	12	25	[0, 0, 0]	n/a	FR1	1	R1127P
2573.812	0.001	1441608	DISTRACT_START	n/a	n/a	n/a	-999	25	[0, 0, 0]	n/a	FR1	1	R1127P
2573.813	0.016	1441609	START	n/a	n/a	n/a	-999	25	[-999, -999, -999]	n/a	FR1	1	R1127P
2573.829	4.201	1441617	PROB	4.201	n/a	n/a	-999	25	[4, 4, 8]	16	FR1	1	R1127P
2578.03	5.634	1443717	PROB	5.634	n/a	n/a	-999	25	[9, 9, 5]	23	FR1	1	R1127P
2583.664	4.934	1446534	PROB	4.934	n/a	n/a	-999	25	[3, 9, 7]	18	FR1	1	R1127P
2588.598	9.429	1449001	PROB	9.429	n/a	n/a	-999	25	[8, 7, 9]	25	FR1	1	R1127P
2598.027	0.007	1453715	STOP	n/a	n/a	n/a	-999	25	[-999, -999, -999]	n/a	FR1	1	R1127P
2598.034	1.068	1453719	DISTRACT_END	n/a	n/a	n/a	-999	25	[0, 0, 0]	n/a	FR1	1	R1127P
2599.102	2.586	1454253	REC_START	n/a	n/a	n/a	-999	25	[0, 0, 0]	n/a	FR1	1	R1127P
2601.688	0.543	1455545	REC_WORD	0.543	n/a	BOOK	-999	25	[0, 0, 0]	n/a	FR1	1	R1127P
2602.231	0.787	1455817	REC_WORD	0.787	n/a	FILM	-999	25	[0, 0, 0]	n/a	FR1	1	R1127P
2603.018	0.858	1456210	REC_WORD	0.858	n/a	MAIL	-999	25	[0, 0, 0]	n/a	FR1	1	R1127P
2603.876	2.572	1456639	REC_WORD	2.572	n/a	DOOR	-999	25	[0, 0, 0]	n/a	FR1	1	R1127P
2606.448	0.199	1457925	REC_WORD	0.199	n/a	BOOK	-999	25	[0, 0, 0]	n/a	FR1	1	R1127P
2606.647	0.444	1458025	REC_WORD	0.444	n/a	FILM	-999	25	[0, 0, 0]	n/a	FR1	1	R1127P
2607.091	0.534	1458247	REC_WORD	0.534	n/a	MAIL	-999	25	[0, 0, 0]	n/a	FR1	1	R1127P
2607.625	4.045	1458514	REC_WORD	4.045	n/a	DOOR	-999	25	[0, 0, 0]	n/a	FR1	1	R1127P
2611.67	3.782	1460536	REC_WORD	3.782	n/a	DOOR	-999	25	[0, 0, 0]	n/a	FR1	1	R1127P
2615.452	1.74	1462427	REC_WORD_VV	1.74	n/a	<>	-999	25	[0, 0, 0]	n/a	FR1	1	R1127P
2617.192	3.486	1463297	REC_WORD_VV	3.486	n/a	<>	-999	25	[0, 0, 0]	n/a	FR1	1	R1127P
2620.678	1.0	1465040	REC_WORD_VV	1.0	n/a	<>	-999	25	[0, 0, 0]	n/a	FR1	1	R1127P
2621.678	7.434	1465540	REC_WORD_VV	7.434	n/a	<>	-999	25	[0, 0, 0]	n/a	FR1	1	R1127P
2629.112	12.63	1469257	REC_END	n/a	n/a	n/a	-999	25	[0, 0, 0]	n/a	FR1	1	R1127P
2641.742	0.0	1475571	SESS_END	n/a	n/a	n/a	-999	25	[0, 0, 0]	n/a	FR1	1	R1127P
