onset	duration	sample	trial_type	response_time	stim_file	item_name	serialpos	list	test	answer	experiment	session	subject
0.0	0.0	165925	INSTRUCT_START	n/a	n/a	n/a	-999	-999	[0, 0, 0]	n/a	FR1	0	R1201P
0.0	11.053	165925	INSTRUCT_END	n/a	n/a	n/a	-999	-999	[0, 0, 0]	n/a	FR1	0	R1201P
11.053	0.0	176978	SESS_START	n/a	n/a	n/a	-999	-999	[0, 0, 0]	n/a	FR1	0	R1201P
11.053	290.058	176978	MIC_TEST	n/a	n/a	n/a	-999	-999	[0, 0, 0]	n/a	FR1	0	R1201P
301.111	4.762	467021	PRACTICE_TRIAL	n/a	n/a	n/a	-999	-1	[0, 0, 0]	n/a	FR1	0	R1201P
305.873	10.428	471783	COUNTDOWN_START	n/a	n/a	n/a	-999	-1	[0, 0, 0]	n/a	FR1	0	R1201P
316.301	0.008	482210	COUNTDOWN_END	n/a	n/a	n/a	-999	-1	[0, 0, 0]	n/a	FR1	0	R1201P
316.309	1.618	482218	PRACTICE_ORIENT	n/a	n/a	n/a	-999	-1	[0, 0, 0]	n/a	FR1	0	R1201P
317.927	1.867	483836	PRACTICE_ORIENT_OFF	n/a	n/a	n/a	-999	-1	[0, 0, 0]	n/a	FR1	0	R1201P
319.794	1.616	485703	PRACTICE_WORD	n/a	n/a	COTTON	1	-1	[0, 0, 0]	n/a	FR1	0	R1201P
321.41	0.933	487319	PRACTICE_WORD_OFF	n/a	n/a	COTTON	-999	-1	[0, 0, 0]	n/a	FR1	0	R1201P
322.343	1.602	488252	PRACTICE_WORD	n/a	n/a	TONGUE	2	-1	[0, 0, 0]	n/a	FR1	0	R1201P
323.945	0.783	489854	PRACTICE_WORD_OFF	n/a	n/a	TONGUE	-999	-1	[0, 0, 0]	n/a	FR1	0	R1201P
324.728	1.616	490637	PRACTICE_WORD	n/a	n/a	BEAM	3	-1	[0, 0, 0]	n/a	FR1	0	R1201P
326.344	0.868	492253	PRACTICE_WORD_OFF	n/a	n/a	BEAM	-999	-1	[0, 0, 0]	n/a	FR1	0	R1201P
327.212	1.617	493120	PRACTICE_WORD	n/a	n/a	CHEST	4	-1	[0, 0, 0]	n/a	FR1	0	R1201P
328.829	0.883	494737	PRACTICE_WORD_OFF	n/a	n/a	CHEST	-999	-1	[0, 0, 0]	n/a	FR1	0	R1201P
329.712	1.616	495620	PRACTICE_WORD	n/a	n/a	CAMEL	5	-1	[0, 0, 0]	n/a	FR1	0	R1201P
331.328	0.802	497236	PRACTICE_WORD_OFF	n/a	n/a	CAMEL	-999	-1	[0, 0, 0]	n/a	FR1	0	R1201P
332.13	1.616	498038	PRACTICE_WORD	n/a	n/a	WATCH	6	-1	[0, 0, 0]	n/a	FR1	0	R1201P
333.746	0.934	499654	PRACTICE_WORD_OFF	n/a	n/a	WATCH	-999	-1	[0, 0, 0]	n/a	FR1	0	R1201P
334.68	1.616	500588	PRACTICE_WORD	n/a	n/a	RING	7	-1	[0, 0, 0]	n/a	FR1	0	R1201P
336.296	0.834	502204	PRACTICE_WORD_OFF	n/a	n/a	RING	-999	-1	[0, 0, 0]	n/a	FR1	0	R1201P
337.13	1.617	503038	PRACTICE_WORD	n/a	n/a	RHINO	8	-1	[0, 0, 0]	n/a	FR1	0	R1201P
338.747	0.8	504655	PRACTICE_WORD_OFF	n/a	n/a	RHINO	-999	-1	[0, 0, 0]	n/a	FR1	0	R1201P
339.547	1.618	505455	PRACTICE_WORD	n/a	n/a	WAGON	9	-1	[0, 0, 0]	n/a	FR1	0	R1201P
341.165	0.8	507073	PRACTICE_WORD_OFF	n/a	n/a	WAGON	-999	-1	[0, 0, 0]	n/a	FR1	0	R1201P
341.965	1.616	507873	PRACTICE_WORD	n/a	n/a	FLOOD	10	-1	[0, 0, 0]	n/a	FR1	0	R1201P
343.581	0.783	509489	PRACTICE_WORD_OFF	n/a	n/a	FLOOD	-999	-1	[0, 0, 0]	n/a	FR1	0	R1201P
344.364	1.602	510272	PRACTICE_WORD	n/a	n/a	ATTIC	11	-1	[0, 0, 0]	n/a	FR1	0	R1201P
345.966	0.766	511874	PRACTICE_WORD_OFF	n/a	n/a	ATTIC	-999	-1	[0, 0, 0]	n/a	FR1	0	R1201P
346.732	1.616	512639	PRACTICE_WORD	n/a	n/a	IRON	12	-1	[0, 0, 0]	n/a	FR1	0	R1201P
348.348	0.0	514255	PRACTICE_WORD_OFF	n/a	n/a	IRON	-999	-1	[0, 0, 0]	n/a	FR1	0	R1201P
348.348	0.001	514255	DISTRACT_START	n/a	n/a	n/a	-999	-1	[0, 0, 0]	n/a	FR1	0	R1201P
348.349	0.016	514256	START	n/a	n/a	n/a	-999	-1	[-999, -999, -999]	n/a	FR1	0	R1201P
348.365	7.336	514272	PROB	7.336	n/a	n/a	-999	-1	[2, 1, 3]	6	FR1	0	R1201P
355.701	8.368	521608	PROB	8.368	n/a	n/a	-999	-1	[9, 3, 3]	15	FR1	0	R1201P
364.069	4.605	529976	PROB	4.605	n/a	n/a	-999	-1	[4, 1, 4]	9	FR1	0	R1201P
368.674	0.012	534580	STOP	n/a	n/a	n/a	-999	-1	[-999, -999, -999]	n/a	FR1	0	R1201P
368.686	0.6	534592	DISTRACT_END	n/a	n/a	n/a	-999	-1	[0, 0, 0]	n/a	FR1	0	R1201P
369.286	0.521	535192	RETRIEVAL_ORIENT	n/a	n/a	n/a	-999	-1	[0, 0, 0]	n/a	FR1	0	R1201P
369.807	30.008	535713	PRACTICE_REC_START	n/a	n/a	n/a	-999	-1	[0, 0, 0]	n/a	FR1	0	R1201P
399.815	46.303	565720	PRACTICE_REC_END	n/a	n/a	n/a	-999	-1	[0, 0, 0]	n/a	FR1	0	R1201P
446.118	0.5	612020	TRIAL	n/a	n/a	n/a	-999	1	[0, 0, 0]	n/a	FR1	0	R1201P
446.618	10.428	612520	COUNTDOWN_START	n/a	n/a	n/a	-999	1	[0, 0, 0]	n/a	FR1	0	R1201P
457.046	0.007	622948	COUNTDOWN_END	n/a	n/a	n/a	-999	1	[0, 0, 0]	n/a	FR1	0	R1201P
457.053	1.617	622955	ORIENT	n/a	n/a	n/a	-999	1	[0, 0, 0]	n/a	FR1	0	R1201P
458.67	2.184	624572	ORIENT_OFF	n/a	n/a	n/a	-999	1	[0, 0, 0]	n/a	FR1	0	R1201P
460.854	1.616	626756	WORD	n/a	wordpools/wordpool_EN.txt	DRESS	1	1	[0, 0, 0]	n/a	FR1	0	R1201P
462.47	0.916	628372	WORD_OFF	n/a	n/a	DRESS	1	1	[0, 0, 0]	n/a	FR1	0	R1201P
463.386	1.602	629288	WORD	n/a	wordpools/wordpool_EN.txt	SHIELD	2	1	[0, 0, 0]	n/a	FR1	0	R1201P
464.988	0.967	630889	WORD_OFF	n/a	n/a	SHIELD	2	1	[0, 0, 0]	n/a	FR1	0	R1201P
465.955	1.616	631856	WORD	n/a	wordpools/wordpool_EN.txt	THREAD	3	1	[0, 0, 0]	n/a	FR1	0	R1201P
467.571	0.85	633472	WORD_OFF	n/a	n/a	THREAD	3	1	[0, 0, 0]	n/a	FR1	0	R1201P
468.421	1.618	634322	WORD	n/a	wordpools/wordpool_EN.txt	VASE	4	1	[0, 0, 0]	n/a	FR1	0	R1201P
470.039	0.9	635940	WORD_OFF	n/a	n/a	VASE	4	1	[0, 0, 0]	n/a	FR1	0	R1201P
470.939	1.616	636840	WORD	n/a	wordpools/wordpool_EN.txt	BENCH	5	1	[0, 0, 0]	n/a	FR1	0	R1201P
472.555	0.767	638456	WORD_OFF	n/a	n/a	BENCH	5	1	[0, 0, 0]	n/a	FR1	0	R1201P
473.322	1.601	639223	WORD	n/a	wordpools/wordpool_EN.txt	FAN	6	1	[0, 0, 0]	n/a	FR1	0	R1201P
474.923	0.9	640824	WORD_OFF	n/a	n/a	FAN	6	1	[0, 0, 0]	n/a	FR1	0	R1201P
475.823	1.616	641724	WORD	n/a	wordpools/wordpool_EN.txt	NAIL	7	1	[0, 0, 0]	n/a	FR1	0	R1201P
477.439	0.9	643340	WORD_OFF	n/a	n/a	NAIL	7	1	[0, 0, 0]	n/a	FR1	0	R1201P
478.339	1.618	644240	WORD	n/a	wordpools/wordpool_EN.txt	POOL	8	1	[0, 0, 0]	n/a	FR1	0	R1201P
479.957	0.967	645858	WORD_OFF	n/a	n/a	POOL	8	1	[0, 0, 0]	n/a	FR1	0	R1201P
480.924	1.616	646825	WORD	n/a	wordpools/wordpool_EN.txt	FLUTE	9	1	[0, 0, 0]	n/a	FR1	0	R1201P
482.54	0.834	648441	WORD_OFF	n/a	n/a	FLUTE	9	1	[0, 0, 0]	n/a	FR1	0	R1201P
483.374	1.618	649275	WORD	n/a	wordpools/wordpool_EN.txt	YARD	10	1	[0, 0, 0]	n/a	FR1	0	R1201P
484.992	0.983	650892	WORD_OFF	n/a	n/a	YARD	10	1	[0, 0, 0]	n/a	FR1	0	R1201P
485.975	1.616	651875	WORD	n/a	wordpools/wordpool_EN.txt	GATE	11	1	[0, 0, 0]	n/a	FR1	0	R1201P
487.591	0.767	653491	WORD_OFF	n/a	n/a	GATE	11	1	[0, 0, 0]	n/a	FR1	0	R1201P
488.358	1.618	654258	WORD	n/a	wordpools/wordpool_EN.txt	CLOTH	12	1	[0, 0, 0]	n/a	FR1	0	R1201P
489.976	0.0	655876	WORD_OFF	n/a	n/a	CLOTH	12	1	[0, 0, 0]	n/a	FR1	0	R1201P
489.976	0.001	655876	DISTRACT_START	n/a	n/a	n/a	-999	1	[0, 0, 0]	n/a	FR1	0	R1201P
489.977	0.016	655877	START	n/a	n/a	n/a	-999	1	[-999, -999, -999]	n/a	FR1	0	R1201P
489.993	4.184	655893	PROB	4.184	n/a	n/a	-999	1	[2, 2, 6]	10	FR1	0	R1201P
494.177	2.984	660077	PROB	2.984	n/a	n/a	-999	1	[4, 3, 7]	14	FR1	0	R1201P
497.161	2.734	663061	PROB	2.734	n/a	n/a	-999	1	[3, 1, 7]	11	FR1	0	R1201P
499.895	7.034	665795	PROB	7.034	n/a	n/a	-999	1	[4, 5, 7]	16	FR1	0	R1201P
506.929	6.106	672828	PROB	6.106	n/a	n/a	-999	1	[9, 9, 7]	25	FR1	0	R1201P
513.035	0.012	678934	STOP	n/a	n/a	n/a	-999	1	[-999, -999, -999]	n/a	FR1	0	R1201P
513.047	0.583	678946	DISTRACT_END	n/a	n/a	n/a	-999	1	[0, 0, 0]	n/a	FR1	0	R1201P
513.63	0.518	679529	RETRIEVAL_ORIENT	n/a	n/a	n/a	-999	1	[0, 0, 0]	n/a	FR1	0	R1201P
514.148	1.098	680047	REC_START	n/a	n/a	n/a	-999	1	[0, 0, 0]	n/a	FR1	0	R1201P
515.246	0.613	681145	REC_WORD	0.613	n/a	DRESS	1	1	[0, 0, 0]	n/a	FR1	0	R1201P
515.859	0.975	681758	REC_WORD	0.975	n/a	SHIELD	2	1	[0, 0, 0]	n/a	FR1	0	R1201P
516.834	3.044	682733	REC_WORD	3.044	n/a	THREAD	3	1	[0, 0, 0]	n/a	FR1	0	R1201P
519.878	2.572	685777	REC_WORD	2.572	n/a	ACE	-999	1	[0, 0, 0]	n/a	FR1	0	R1201P
522.45	13.213	688349	REC_WORD	13.213	n/a	BENCH	5	1	[0, 0, 0]	n/a	FR1	0	R1201P
535.663	8.495	701561	REC_WORD	8.495	n/a	NAIL	7	1	[0, 0, 0]	n/a	FR1	0	R1201P
544.158	10.279	710055	REC_END	n/a	n/a	n/a	-999	1	[0, 0, 0]	n/a	FR1	0	R1201P
554.437	0.5	720334	TRIAL	n/a	n/a	n/a	-999	2	[0, 0, 0]	n/a	FR1	0	R1201P
554.937	10.428	720834	COUNTDOWN_START	n/a	n/a	n/a	-999	2	[0, 0, 0]	n/a	FR1	0	R1201P
565.365	0.008	731261	COUNTDOWN_END	n/a	n/a	n/a	-999	2	[0, 0, 0]	n/a	FR1	0	R1201P
565.373	1.617	731269	ORIENT	n/a	n/a	n/a	-999	2	[0, 0, 0]	n/a	FR1	0	R1201P
566.99	2.151	732886	ORIENT_OFF	n/a	n/a	n/a	-999	2	[0, 0, 0]	n/a	FR1	0	R1201P
569.141	1.617	735037	WORD	n/a	wordpools/wordpool_EN.txt	ANT	1	2	[0, 0, 0]	n/a	FR1	0	R1201P
570.758	0.766	736654	WORD_OFF	n/a	n/a	ANT	1	2	[0, 0, 0]	n/a	FR1	0	R1201P
571.524	1.618	737420	WORD	n/a	wordpools/wordpool_EN.txt	SPEAR	2	2	[0, 0, 0]	n/a	FR1	0	R1201P
573.142	0.983	739038	WORD_OFF	n/a	n/a	SPEAR	2	2	[0, 0, 0]	n/a	FR1	0	R1201P
574.125	1.617	740021	WORD	n/a	wordpools/wordpool_EN.txt	MILK	3	2	[0, 0, 0]	n/a	FR1	0	R1201P
575.742	0.9	741638	WORD_OFF	n/a	n/a	MILK	3	2	[0, 0, 0]	n/a	FR1	0	R1201P
576.642	1.616	742538	WORD	n/a	wordpools/wordpool_EN.txt	CHIEF	4	2	[0, 0, 0]	n/a	FR1	0	R1201P
578.258	0.935	744154	WORD_OFF	n/a	n/a	CHIEF	4	2	[0, 0, 0]	n/a	FR1	0	R1201P
579.193	1.617	745089	WORD	n/a	wordpools/wordpool_EN.txt	SHEEP	5	2	[0, 0, 0]	n/a	FR1	0	R1201P
580.81	0.933	746706	WORD_OFF	n/a	n/a	SHEEP	5	2	[0, 0, 0]	n/a	FR1	0	R1201P
581.743	1.616	747639	WORD	n/a	wordpools/wordpool_EN.txt	LEAF	6	2	[0, 0, 0]	n/a	FR1	0	R1201P
583.359	1.0	749254	WORD_OFF	n/a	n/a	LEAF	6	2	[0, 0, 0]	n/a	FR1	0	R1201P
584.359	1.618	750254	WORD	n/a	wordpools/wordpool_EN.txt	COW	7	2	[0, 0, 0]	n/a	FR1	0	R1201P
585.977	0.834	751872	WORD_OFF	n/a	n/a	COW	7	2	[0, 0, 0]	n/a	FR1	0	R1201P
586.811	1.616	752706	WORD	n/a	wordpools/wordpool_EN.txt	NEST	8	2	[0, 0, 0]	n/a	FR1	0	R1201P
588.427	0.801	754322	WORD_OFF	n/a	n/a	NEST	8	2	[0, 0, 0]	n/a	FR1	0	R1201P
589.228	1.617	755123	WORD	n/a	wordpools/wordpool_EN.txt	ROOT	9	2	[0, 0, 0]	n/a	FR1	0	R1201P
590.845	1.0	756740	WORD_OFF	n/a	n/a	ROOT	9	2	[0, 0, 0]	n/a	FR1	0	R1201P
591.845	1.616	757740	WORD	n/a	wordpools/wordpool_EN.txt	BRANCH	10	2	[0, 0, 0]	n/a	FR1	0	R1201P
593.461	0.85	759356	WORD_OFF	n/a	n/a	BRANCH	10	2	[0, 0, 0]	n/a	FR1	0	R1201P
594.311	1.618	760206	WORD	n/a	wordpools/wordpool_EN.txt	WAND	11	2	[0, 0, 0]	n/a	FR1	0	R1201P
595.929	0.934	761824	WORD_OFF	n/a	n/a	WAND	11	2	[0, 0, 0]	n/a	FR1	0	R1201P
596.863	1.616	762758	WORD	n/a	wordpools/wordpool_EN.txt	POND	12	2	[0, 0, 0]	n/a	FR1	0	R1201P
598.479	0.0	764374	DISTRACT_START	n/a	n/a	n/a	-999	2	[0, 0, 0]	n/a	FR1	0	R1201P
598.479	0.0	764374	WORD_OFF	n/a	n/a	POND	12	2	[0, 0, 0]	n/a	FR1	0	R1201P
598.479	0.016	764374	START	n/a	n/a	n/a	-999	2	[-999, -999, -999]	n/a	FR1	0	R1201P
598.495	5.119	764390	PROB	5.119	n/a	n/a	-999	2	[7, 5, 7]	19	FR1	0	R1201P
603.614	2.633	769508	PROB	2.633	n/a	n/a	-999	2	[4, 2, 6]	12	FR1	0	R1201P
606.247	3.334	772141	PROB	3.334	n/a	n/a	-999	2	[7, 9, 3]	19	FR1	0	R1201P
609.581	3.118	775475	PROB	3.118	n/a	n/a	-999	2	[8, 2, 7]	17	FR1	0	R1201P
612.699	2.599	778593	PROB	2.599	n/a	n/a	-999	2	[4, 1, 6]	11	FR1	0	R1201P
615.298	7.215	781192	PROB	7.215	n/a	n/a	-999	2	[5, 8, 3]	16	FR1	0	R1201P
622.513	0.02	788406	STOP	n/a	n/a	n/a	-999	2	[-999, -999, -999]	n/a	FR1	0	R1201P
622.533	0.518	788426	DISTRACT_END	n/a	n/a	n/a	-999	2	[0, 0, 0]	n/a	FR1	0	R1201P
623.051	0.516	788944	RETRIEVAL_ORIENT	n/a	n/a	n/a	-999	2	[0, 0, 0]	n/a	FR1	0	R1201P
623.567	4.105	789460	REC_START	n/a	n/a	n/a	-999	2	[0, 0, 0]	n/a	FR1	0	R1201P
627.672	0.369	793565	REC_WORD	0.369	n/a	ANT	1	2	[0, 0, 0]	n/a	FR1	0	R1201P
628.041	1.025	793934	REC_WORD_VV	1.025	n/a	<>	-999	2	[0, 0, 0]	n/a	FR1	0	R1201P
629.066	9.331	794959	REC_WORD	9.331	n/a	SHIELD	-999	2	[0, 0, 0]	n/a	FR1	0	R1201P
638.397	5.226	804290	REC_WORD	5.226	n/a	POND	12	2	[0, 0, 0]	n/a	FR1	0	R1201P
643.623	9.957	809515	REC_WORD	9.957	n/a	LEAF	6	2	[0, 0, 0]	n/a	FR1	0	R1201P
653.58	9.495	819472	REC_END	n/a	n/a	n/a	-999	2	[0, 0, 0]	n/a	FR1	0	R1201P
663.075	0.5	828966	TRIAL	n/a	n/a	n/a	-999	3	[0, 0, 0]	n/a	FR1	0	R1201P
663.575	10.428	829466	COUNTDOWN_START	n/a	n/a	n/a	-999	3	[0, 0, 0]	n/a	FR1	0	R1201P
674.003	0.008	839894	COUNTDOWN_END	n/a	n/a	n/a	-999	3	[0, 0, 0]	n/a	FR1	0	R1201P
674.011	1.616	839902	ORIENT	n/a	n/a	n/a	-999	3	[0, 0, 0]	n/a	FR1	0	R1201P
675.627	2.134	841518	ORIENT_OFF	n/a	n/a	n/a	-999	3	[0, 0, 0]	n/a	FR1	0	R1201P
677.761	1.616	843652	WORD	n/a	wordpools/wordpool_EN.txt	STEAM	1	3	[0, 0, 0]	n/a	FR1	0	R1201P
679.377	0.851	845268	WORD_OFF	n/a	n/a	STEAM	1	3	[0, 0, 0]	n/a	FR1	0	R1201P
680.228	1.617	846119	WORD	n/a	wordpools/wordpool_EN.txt	SMOKE	2	3	[0, 0, 0]	n/a	FR1	0	R1201P
681.845	0.901	847735	WORD_OFF	n/a	n/a	SMOKE	2	3	[0, 0, 0]	n/a	FR1	0	R1201P
682.746	1.616	848636	WORD	n/a	wordpools/wordpool_EN.txt	BRIDGE	3	3	[0, 0, 0]	n/a	FR1	0	R1201P
684.362	0.834	850252	WORD_OFF	n/a	n/a	BRIDGE	3	3	[0, 0, 0]	n/a	FR1	0	R1201P
685.196	1.617	851086	WORD	n/a	wordpools/wordpool_EN.txt	SPARK	4	3	[0, 0, 0]	n/a	FR1	0	R1201P
686.813	0.85	852703	WORD_OFF	n/a	n/a	SPARK	4	3	[0, 0, 0]	n/a	FR1	0	R1201P
687.663	1.616	853553	WORD	n/a	wordpools/wordpool_EN.txt	CLOUD	5	3	[0, 0, 0]	n/a	FR1	0	R1201P
689.279	0.818	855169	WORD_OFF	n/a	n/a	CLOUD	5	3	[0, 0, 0]	n/a	FR1	0	R1201P
690.097	1.617	855987	WORD	n/a	wordpools/wordpool_EN.txt	CAR	6	3	[0, 0, 0]	n/a	FR1	0	R1201P
691.714	0.866	857604	WORD_OFF	n/a	n/a	CAR	6	3	[0, 0, 0]	n/a	FR1	0	R1201P
692.58	1.601	858470	WORD	n/a	wordpools/wordpool_EN.txt	ICE	7	3	[0, 0, 0]	n/a	FR1	0	R1201P
694.181	0.867	860071	WORD_OFF	n/a	n/a	ICE	7	3	[0, 0, 0]	n/a	FR1	0	R1201P
695.048	1.617	860938	WORD	n/a	wordpools/wordpool_EN.txt	WORLD	8	3	[0, 0, 0]	n/a	FR1	0	R1201P
696.665	0.799	862555	WORD_OFF	n/a	n/a	WORLD	8	3	[0, 0, 0]	n/a	FR1	0	R1201P
697.464	1.618	863354	WORD	n/a	wordpools/wordpool_EN.txt	WHEEL	9	3	[0, 0, 0]	n/a	FR1	0	R1201P
699.082	1.017	864972	WORD_OFF	n/a	n/a	WHEEL	9	3	[0, 0, 0]	n/a	FR1	0	R1201P
700.099	1.617	865989	WORD	n/a	wordpools/wordpool_EN.txt	BOMB	10	3	[0, 0, 0]	n/a	FR1	0	R1201P
701.716	0.799	867605	WORD_OFF	n/a	n/a	BOMB	10	3	[0, 0, 0]	n/a	FR1	0	R1201P
702.515	1.618	868404	WORD	n/a	wordpools/wordpool_EN.txt	CONE	11	3	[0, 0, 0]	n/a	FR1	0	R1201P
704.133	0.95	870022	WORD_OFF	n/a	n/a	CONE	11	3	[0, 0, 0]	n/a	FR1	0	R1201P
705.083	1.617	870972	WORD	n/a	wordpools/wordpool_EN.txt	RAIN	12	3	[0, 0, 0]	n/a	FR1	0	R1201P
706.7	0.0	872589	WORD_OFF	n/a	n/a	RAIN	12	3	[0, 0, 0]	n/a	FR1	0	R1201P
706.7	0.001	872589	DISTRACT_START	n/a	n/a	n/a	-999	3	[0, 0, 0]	n/a	FR1	0	R1201P
706.701	0.016	872590	START	n/a	n/a	n/a	-999	3	[-999, -999, -999]	n/a	FR1	0	R1201P
706.717	4.766	872606	PROB	4.766	n/a	n/a	-999	3	[6, 3, 5]	14	FR1	0	R1201P
711.483	3.685	877372	PROB	3.685	n/a	n/a	-999	3	[4, 4, 9]	17	FR1	0	R1201P
715.168	7.468	881057	PROB	7.468	n/a	n/a	-999	3	[7, 1, 5]	13	FR1	0	R1201P
722.636	3.418	888524	PROB	3.418	n/a	n/a	-999	3	[5, 9, 4]	13	FR1	0	R1201P
726.054	6.644	891942	PROB	6.644	n/a	n/a	-999	3	[7, 9, 9]	25	FR1	0	R1201P
732.698	0.007	898586	STOP	n/a	n/a	n/a	-999	3	[-999, -999, -999]	n/a	FR1	0	R1201P
732.705	0.632	898593	DISTRACT_END	n/a	n/a	n/a	-999	3	[0, 0, 0]	n/a	FR1	0	R1201P
733.337	0.519	899225	RETRIEVAL_ORIENT	n/a	n/a	n/a	-999	3	[0, 0, 0]	n/a	FR1	0	R1201P
733.856	1.242	899744	REC_START	n/a	n/a	n/a	-999	3	[0, 0, 0]	n/a	FR1	0	R1201P
735.098	0.986	900986	REC_WORD	0.986	n/a	BRIDGE	3	3	[0, 0, 0]	n/a	FR1	0	R1201P
736.084	1.51	901972	REC_WORD	1.51	n/a	SPARK	4	3	[0, 0, 0]	n/a	FR1	0	R1201P
737.594	2.335	903482	REC_WORD	2.335	n/a	BOMB	10	3	[0, 0, 0]	n/a	FR1	0	R1201P
739.929	2.135	905817	REC_WORD	2.135	n/a	CLOUD	5	3	[0, 0, 0]	n/a	FR1	0	R1201P
742.064	0.765	907951	REC_WORD	0.765	n/a	CAR	6	3	[0, 0, 0]	n/a	FR1	0	R1201P
742.829	2.128	908716	REC_WORD	2.128	n/a	WHEEL	9	3	[0, 0, 0]	n/a	FR1	0	R1201P
744.957	0.929	910844	REC_WORD	0.929	n/a	CLOUD	5	3	[0, 0, 0]	n/a	FR1	0	R1201P
745.886	4.685	911773	REC_WORD	4.685	n/a	RAIN	12	3	[0, 0, 0]	n/a	FR1	0	R1201P
750.571	13.298	916458	REC_WORD	13.298	n/a	SMOKE	2	3	[0, 0, 0]	n/a	FR1	0	R1201P
763.869	5.458	929755	REC_END	n/a	n/a	n/a	-999	3	[0, 0, 0]	n/a	FR1	0	R1201P
769.327	0.5	935213	TRIAL	n/a	n/a	n/a	-999	4	[0, 0, 0]	n/a	FR1	0	R1201P
769.827	10.428	935713	COUNTDOWN_START	n/a	n/a	n/a	-999	4	[0, 0, 0]	n/a	FR1	0	R1201P
780.255	0.008	946140	COUNTDOWN_END	n/a	n/a	n/a	-999	4	[0, 0, 0]	n/a	FR1	0	R1201P
780.263	1.618	946148	ORIENT	n/a	n/a	n/a	-999	4	[0, 0, 0]	n/a	FR1	0	R1201P
781.881	1.984	947766	ORIENT_OFF	n/a	n/a	n/a	-999	4	[0, 0, 0]	n/a	FR1	0	R1201P
783.865	1.615	949750	WORD	n/a	wordpools/wordpool_EN.txt	MAZE	1	4	[0, 0, 0]	n/a	FR1	0	R1201P
785.48	0.834	951365	WORD_OFF	n/a	n/a	MAZE	1	4	[0, 0, 0]	n/a	FR1	0	R1201P
786.314	1.618	952199	WORD	n/a	wordpools/wordpool_EN.txt	PLANE	2	4	[0, 0, 0]	n/a	FR1	0	R1201P
787.932	0.9	953817	WORD_OFF	n/a	n/a	PLANE	2	4	[0, 0, 0]	n/a	FR1	0	R1201P
788.832	1.616	954717	WORD	n/a	wordpools/wordpool_EN.txt	FLAME	3	4	[0, 0, 0]	n/a	FR1	0	R1201P
790.448	0.867	956333	WORD_OFF	n/a	n/a	FLAME	3	4	[0, 0, 0]	n/a	FR1	0	R1201P
791.315	1.618	957200	WORD	n/a	wordpools/wordpool_EN.txt	CHEEK	4	4	[0, 0, 0]	n/a	FR1	0	R1201P
792.933	0.833	958818	WORD_OFF	n/a	n/a	CHEEK	4	4	[0, 0, 0]	n/a	FR1	0	R1201P
793.766	1.616	959651	WORD	n/a	wordpools/wordpool_EN.txt	CROWN	5	4	[0, 0, 0]	n/a	FR1	0	R1201P
795.382	0.951	961267	WORD_OFF	n/a	n/a	CROWN	5	4	[0, 0, 0]	n/a	FR1	0	R1201P
796.333	1.617	962218	WORD	n/a	wordpools/wordpool_EN.txt	TEETH	6	4	[0, 0, 0]	n/a	FR1	0	R1201P
797.95	0.934	963835	WORD_OFF	n/a	n/a	TEETH	6	4	[0, 0, 0]	n/a	FR1	0	R1201P
798.884	1.616	964769	WORD	n/a	wordpools/wordpool_EN.txt	WAVE	7	4	[0, 0, 0]	n/a	FR1	0	R1201P
800.5	0.9	966384	WORD_OFF	n/a	n/a	WAVE	7	4	[0, 0, 0]	n/a	FR1	0	R1201P
801.4	1.618	967284	WORD	n/a	wordpools/wordpool_EN.txt	FROG	8	4	[0, 0, 0]	n/a	FR1	0	R1201P
803.018	0.95	968902	WORD_OFF	n/a	n/a	FROG	8	4	[0, 0, 0]	n/a	FR1	0	R1201P
803.968	1.616	969852	WORD	n/a	wordpools/wordpool_EN.txt	SWORD	9	4	[0, 0, 0]	n/a	FR1	0	R1201P
805.584	0.817	971468	WORD_OFF	n/a	n/a	SWORD	9	4	[0, 0, 0]	n/a	FR1	0	R1201P
806.401	1.601	972285	WORD	n/a	wordpools/wordpool_EN.txt	TOOL	10	4	[0, 0, 0]	n/a	FR1	0	R1201P
808.002	0.851	973886	WORD_OFF	n/a	n/a	TOOL	10	4	[0, 0, 0]	n/a	FR1	0	R1201P
808.853	1.616	974737	WORD	n/a	wordpools/wordpool_EN.txt	SHEET	11	4	[0, 0, 0]	n/a	FR1	0	R1201P
810.469	0.916	976353	WORD_OFF	n/a	n/a	SHEET	11	4	[0, 0, 0]	n/a	FR1	0	R1201P
811.385	1.601	977269	WORD	n/a	wordpools/wordpool_EN.txt	STRING	12	4	[0, 0, 0]	n/a	FR1	0	R1201P
812.986	0.0	978870	WORD_OFF	n/a	n/a	STRING	12	4	[0, 0, 0]	n/a	FR1	0	R1201P
812.986	0.001	978870	DISTRACT_START	n/a	n/a	n/a	-999	4	[0, 0, 0]	n/a	FR1	0	R1201P
812.987	0.016	978871	START	n/a	n/a	n/a	-999	4	[-999, -999, -999]	n/a	FR1	0	R1201P
813.003	7.234	978887	PROB	7.234	n/a	n/a	-999	4	[9, 6, 2]	17	FR1	0	R1201P
820.237	4.419	986120	PROB	4.419	n/a	n/a	-999	4	[8, 8, 2]	18	FR1	0	R1201P
824.656	7.451	990539	PROB	7.451	n/a	n/a	-999	4	[8, 9, 9]	25	FR1	0	R1201P
832.107	7.19	997990	PROB	7.19	n/a	n/a	-999	4	[2, 1, 4]	7	FR1	0	R1201P
839.297	0.01	1005179	STOP	n/a	n/a	n/a	-999	4	[-999, -999, -999]	n/a	FR1	0	R1201P
839.307	0.651	1005189	DISTRACT_END	n/a	n/a	n/a	-999	4	[0, 0, 0]	n/a	FR1	0	R1201P
839.958	0.517	1005840	RETRIEVAL_ORIENT	n/a	n/a	n/a	-999	4	[0, 0, 0]	n/a	FR1	0	R1201P
840.475	8.607	1006357	REC_START	n/a	n/a	n/a	-999	4	[0, 0, 0]	n/a	FR1	0	R1201P
849.082	3.626	1014964	REC_WORD	3.626	n/a	MAZE	1	4	[0, 0, 0]	n/a	FR1	0	R1201P
852.708	14.392	1018590	REC_WORD	14.392	n/a	PLANE	2	4	[0, 0, 0]	n/a	FR1	0	R1201P
867.1	3.386	1032981	REC_WORD	3.386	n/a	TOOL	10	4	[0, 0, 0]	n/a	FR1	0	R1201P
870.486	5.329	1036367	REC_END	n/a	n/a	n/a	-999	4	[0, 0, 0]	n/a	FR1	0	R1201P
875.815	0.5	1041696	TRIAL	n/a	n/a	n/a	-999	5	[0, 0, 0]	n/a	FR1	0	R1201P
876.315	10.428	1042196	COUNTDOWN_START	n/a	n/a	n/a	-999	5	[0, 0, 0]	n/a	FR1	0	R1201P
886.743	0.008	1052623	COUNTDOWN_END	n/a	n/a	n/a	-999	5	[0, 0, 0]	n/a	FR1	0	R1201P
886.751	1.616	1052631	ORIENT	n/a	n/a	n/a	-999	5	[0, 0, 0]	n/a	FR1	0	R1201P
888.367	2.1	1054247	ORIENT_OFF	n/a	n/a	n/a	-999	5	[0, 0, 0]	n/a	FR1	0	R1201P
890.467	1.601	1056347	WORD	n/a	wordpools/wordpool_EN.txt	HAT	1	5	[0, 0, 0]	n/a	FR1	0	R1201P
892.068	0.817	1057948	WORD_OFF	n/a	n/a	HAT	1	5	[0, 0, 0]	n/a	FR1	0	R1201P
892.885	1.616	1058765	WORD	n/a	wordpools/wordpool_EN.txt	PET	2	5	[0, 0, 0]	n/a	FR1	0	R1201P
894.501	0.984	1060381	WORD_OFF	n/a	n/a	PET	2	5	[0, 0, 0]	n/a	FR1	0	R1201P
895.485	1.617	1061365	WORD	n/a	wordpools/wordpool_EN.txt	FUR	3	5	[0, 0, 0]	n/a	FR1	0	R1201P
897.102	0.984	1062982	WORD_OFF	n/a	n/a	FUR	3	5	[0, 0, 0]	n/a	FR1	0	R1201P
898.086	1.617	1063966	WORD	n/a	wordpools/wordpool_EN.txt	STOOL	4	5	[0, 0, 0]	n/a	FR1	0	R1201P
899.703	0.849	1065582	WORD_OFF	n/a	n/a	STOOL	4	5	[0, 0, 0]	n/a	FR1	0	R1201P
900.552	1.618	1066431	WORD	n/a	wordpools/wordpool_EN.txt	PANTS	5	5	[0, 0, 0]	n/a	FR1	0	R1201P
902.17	1.017	1068049	WORD_OFF	n/a	n/a	PANTS	5	5	[0, 0, 0]	n/a	FR1	0	R1201P
903.187	1.617	1069066	WORD	n/a	wordpools/wordpool_EN.txt	ELF	6	5	[0, 0, 0]	n/a	FR1	0	R1201P
904.804	0.782	1070683	WORD_OFF	n/a	n/a	ELF	6	5	[0, 0, 0]	n/a	FR1	0	R1201P
905.586	1.618	1071465	WORD	n/a	wordpools/wordpool_EN.txt	EAR	7	5	[0, 0, 0]	n/a	FR1	0	R1201P
907.204	0.851	1073083	WORD_OFF	n/a	n/a	EAR	7	5	[0, 0, 0]	n/a	FR1	0	R1201P
908.055	1.617	1073934	WORD	n/a	wordpools/wordpool_EN.txt	HORN	8	5	[0, 0, 0]	n/a	FR1	0	R1201P
909.672	0.799	1075551	WORD_OFF	n/a	n/a	HORN	8	5	[0, 0, 0]	n/a	FR1	0	R1201P
910.471	1.618	1076350	WORD	n/a	wordpools/wordpool_EN.txt	RAT	9	5	[0, 0, 0]	n/a	FR1	0	R1201P
912.089	1.0	1077968	WORD_OFF	n/a	n/a	RAT	9	5	[0, 0, 0]	n/a	FR1	0	R1201P
913.089	1.617	1078968	WORD	n/a	wordpools/wordpool_EN.txt	ROSE	10	5	[0, 0, 0]	n/a	FR1	0	R1201P
914.706	0.917	1080585	WORD_OFF	n/a	n/a	ROSE	10	5	[0, 0, 0]	n/a	FR1	0	R1201P
915.623	1.616	1081502	WORD	n/a	wordpools/wordpool_EN.txt	FENCE	11	5	[0, 0, 0]	n/a	FR1	0	R1201P
917.239	0.851	1083118	WORD_OFF	n/a	n/a	FENCE	11	5	[0, 0, 0]	n/a	FR1	0	R1201P
918.09	1.617	1083968	WORD	n/a	wordpools/wordpool_EN.txt	BARN	12	5	[0, 0, 0]	n/a	FR1	0	R1201P
919.707	0.0	1085585	WORD_OFF	n/a	n/a	BARN	12	5	[0, 0, 0]	n/a	FR1	0	R1201P
919.707	0.0	1085585	DISTRACT_START	n/a	n/a	n/a	-999	5	[0, 0, 0]	n/a	FR1	0	R1201P
919.707	0.016	1085585	START	n/a	n/a	n/a	-999	5	[-999, -999, -999]	n/a	FR1	0	R1201P
919.723	5.485	1085601	PROB	5.485	n/a	n/a	-999	5	[8, 6, 9]	23	FR1	0	R1201P
925.208	2.767	1091086	PROB	2.767	n/a	n/a	-999	5	[3, 6, 3]	12	FR1	0	R1201P
927.975	6.018	1093853	PROB	6.018	n/a	n/a	-999	5	[9, 7, 8]	24	FR1	0	R1201P
933.993	8.034	1099871	PROB	8.034	n/a	n/a	-999	5	[6, 9, 7]	22	FR1	0	R1201P
942.027	0.017	1107904	STOP	n/a	n/a	n/a	-999	5	[-999, -999, -999]	n/a	FR1	0	R1201P
942.044	0.533	1107921	DISTRACT_END	n/a	n/a	n/a	-999	5	[0, 0, 0]	n/a	FR1	0	R1201P
942.577	0.518	1108454	RETRIEVAL_ORIENT	n/a	n/a	n/a	-999	5	[0, 0, 0]	n/a	FR1	0	R1201P
943.095	4.543	1108972	REC_START	n/a	n/a	n/a	-999	5	[0, 0, 0]	n/a	FR1	0	R1201P
947.638	0.395	1113515	REC_WORD	0.395	n/a	PET	2	5	[0, 0, 0]	n/a	FR1	0	R1201P
948.033	13.906	1113910	REC_WORD	13.906	n/a	FUR	3	5	[0, 0, 0]	n/a	FR1	0	R1201P
961.939	10.123	1127815	REC_WORD	10.123	n/a	FROG	-999	5	[0, 0, 0]	n/a	FR1	0	R1201P
972.062	1.045	1137938	REC_WORD	1.045	n/a	HAT	1	5	[0, 0, 0]	n/a	FR1	0	R1201P
973.107	6.31	1138983	REC_END	n/a	n/a	n/a	-999	5	[0, 0, 0]	n/a	FR1	0	R1201P
979.417	0.5	1145292	TRIAL	n/a	n/a	n/a	-999	6	[0, 0, 0]	n/a	FR1	0	R1201P
979.917	10.428	1145792	COUNTDOWN_START	n/a	n/a	n/a	-999	6	[0, 0, 0]	n/a	FR1	0	R1201P
990.345	0.007	1156220	COUNTDOWN_END	n/a	n/a	n/a	-999	6	[0, 0, 0]	n/a	FR1	0	R1201P
990.352	1.602	1156227	ORIENT	n/a	n/a	n/a	-999	6	[0, 0, 0]	n/a	FR1	0	R1201P
991.954	2.083	1157829	ORIENT_OFF	n/a	n/a	n/a	-999	6	[0, 0, 0]	n/a	FR1	0	R1201P
994.037	1.617	1159912	WORD	n/a	wordpools/wordpool_EN.txt	SOCK	1	6	[0, 0, 0]	n/a	FR1	0	R1201P
995.654	0.967	1161529	WORD_OFF	n/a	n/a	SOCK	1	6	[0, 0, 0]	n/a	FR1	0	R1201P
996.621	1.616	1162496	WORD	n/a	wordpools/wordpool_EN.txt	JET	2	6	[0, 0, 0]	n/a	FR1	0	R1201P
998.237	0.935	1164111	WORD_OFF	n/a	n/a	JET	2	6	[0, 0, 0]	n/a	FR1	0	R1201P
999.172	1.617	1165046	WORD	n/a	wordpools/wordpool_EN.txt	SUIT	3	6	[0, 0, 0]	n/a	FR1	0	R1201P
1000.789	0.765	1166663	WORD_OFF	n/a	n/a	SUIT	3	6	[0, 0, 0]	n/a	FR1	0	R1201P
1001.554	1.618	1167428	WORD	n/a	wordpools/wordpool_EN.txt	TOAST	4	6	[0, 0, 0]	n/a	FR1	0	R1201P
1003.172	0.834	1169046	WORD_OFF	n/a	n/a	TOAST	4	6	[0, 0, 0]	n/a	FR1	0	R1201P
1004.006	1.617	1169880	WORD	n/a	wordpools/wordpool_EN.txt	PEAR	5	6	[0, 0, 0]	n/a	FR1	0	R1201P
1005.623	1.0	1171497	WORD_OFF	n/a	n/a	PEAR	5	6	[0, 0, 0]	n/a	FR1	0	R1201P
1006.623	1.616	1172497	WORD	n/a	wordpools/wordpool_EN.txt	ARK	6	6	[0, 0, 0]	n/a	FR1	0	R1201P
1008.239	0.868	1174113	WORD_OFF	n/a	n/a	ARK	6	6	[0, 0, 0]	n/a	FR1	0	R1201P
1009.107	1.617	1174981	WORD	n/a	wordpools/wordpool_EN.txt	RUG	7	6	[0, 0, 0]	n/a	FR1	0	R1201P
1010.724	1.0	1176598	WORD_OFF	n/a	n/a	RUG	7	6	[0, 0, 0]	n/a	FR1	0	R1201P
1011.724	1.616	1177598	WORD	n/a	wordpools/wordpool_EN.txt	LOCK	8	6	[0, 0, 0]	n/a	FR1	0	R1201P
1013.34	0.984	1179214	WORD_OFF	n/a	n/a	LOCK	8	6	[0, 0, 0]	n/a	FR1	0	R1201P
1014.324	1.617	1180198	WORD	n/a	wordpools/wordpool_EN.txt	BOARD	9	6	[0, 0, 0]	n/a	FR1	0	R1201P
1015.941	0.917	1181815	WORD_OFF	n/a	n/a	BOARD	9	6	[0, 0, 0]	n/a	FR1	0	R1201P
1016.858	1.616	1182731	WORD	n/a	wordpools/wordpool_EN.txt	HOOK	10	6	[0, 0, 0]	n/a	FR1	0	R1201P
1018.474	0.784	1184347	WORD_OFF	n/a	n/a	HOOK	10	6	[0, 0, 0]	n/a	FR1	0	R1201P
1019.258	1.601	1185131	WORD	n/a	wordpools/wordpool_EN.txt	FORK	11	6	[0, 0, 0]	n/a	FR1	0	R1201P
1020.859	1.0	1186732	WORD_OFF	n/a	n/a	FORK	11	6	[0, 0, 0]	n/a	FR1	0	R1201P
1021.859	1.616	1187732	WORD	n/a	wordpools/wordpool_EN.txt	TRAIN	12	6	[0, 0, 0]	n/a	FR1	0	R1201P
1023.475	0.0	1189348	WORD_OFF	n/a	n/a	TRAIN	12	6	[0, 0, 0]	n/a	FR1	0	R1201P
1023.475	0.001	1189348	DISTRACT_START	n/a	n/a	n/a	-999	6	[0, 0, 0]	n/a	FR1	0	R1201P
1023.476	0.016	1189349	START	n/a	n/a	n/a	-999	6	[-999, -999, -999]	n/a	FR1	0	R1201P
1023.492	7.885	1189365	PROB	7.885	n/a	n/a	-999	6	[3, 9, 6]	18	FR1	0	R1201P
1031.377	5.117	1197250	PROB	5.117	n/a	n/a	-999	6	[1, 7, 5]	13	FR1	0	R1201P
1036.494	9.245	1202366	PROB	9.245	n/a	n/a	-999	6	[7, 6, 1]	14	FR1	0	R1201P
1045.739	0.008	1211611	STOP	n/a	n/a	n/a	-999	6	[-999, -999, -999]	n/a	FR1	0	R1201P
1045.747	0.666	1211619	DISTRACT_END	n/a	n/a	n/a	-999	6	[0, 0, 0]	n/a	FR1	0	R1201P
1046.413	0.518	1212285	RETRIEVAL_ORIENT	n/a	n/a	n/a	-999	6	[0, 0, 0]	n/a	FR1	0	R1201P
1046.931	1.921	1212803	REC_START	n/a	n/a	n/a	-999	6	[0, 0, 0]	n/a	FR1	0	R1201P
1048.852	0.676	1214724	REC_WORD	0.676	n/a	SUIT	3	6	[0, 0, 0]	n/a	FR1	0	R1201P
1049.528	2.488	1215400	REC_WORD	2.488	n/a	SOCK	1	6	[0, 0, 0]	n/a	FR1	0	R1201P
1052.016	0.675	1217888	REC_WORD	0.675	n/a	HAT	-999	6	[0, 0, 0]	n/a	FR1	0	R1201P
1052.691	3.301	1218563	REC_WORD	3.301	n/a	STOOL	-999	6	[0, 0, 0]	n/a	FR1	0	R1201P
1055.992	4.708	1221863	REC_WORD	4.708	n/a	HOOK	10	6	[0, 0, 0]	n/a	FR1	0	R1201P
1060.7	16.243	1226571	REC_WORD	16.243	n/a	LADDER	-999	6	[0, 0, 0]	n/a	FR1	0	R1201P
1076.943	13.729	1242813	REC_END	n/a	n/a	n/a	-999	6	[0, 0, 0]	n/a	FR1	0	R1201P
1090.672	0.5	1256542	TRIAL	n/a	n/a	n/a	-999	7	[0, 0, 0]	n/a	FR1	0	R1201P
1091.172	10.428	1257042	COUNTDOWN_START	n/a	n/a	n/a	-999	7	[0, 0, 0]	n/a	FR1	0	R1201P
1101.6	0.008	1267469	COUNTDOWN_END	n/a	n/a	n/a	-999	7	[0, 0, 0]	n/a	FR1	0	R1201P
1101.608	1.617	1267477	ORIENT	n/a	n/a	n/a	-999	7	[0, 0, 0]	n/a	FR1	0	R1201P
1103.225	1.85	1269094	ORIENT_OFF	n/a	n/a	n/a	-999	7	[0, 0, 0]	n/a	FR1	0	R1201P
1105.075	1.617	1270944	WORD	n/a	wordpools/wordpool_EN.txt	BEE	1	7	[0, 0, 0]	n/a	FR1	0	R1201P
1106.692	0.816	1272561	WORD_OFF	n/a	n/a	BEE	1	7	[0, 0, 0]	n/a	FR1	0	R1201P
1107.508	1.618	1273377	WORD	n/a	wordpools/wordpool_EN.txt	HEART	2	7	[0, 0, 0]	n/a	FR1	0	R1201P
1109.126	0.766	1274995	WORD_OFF	n/a	n/a	HEART	2	7	[0, 0, 0]	n/a	FR1	0	R1201P
1109.892	1.616	1275761	WORD	n/a	wordpools/wordpool_EN.txt	TOAD	3	7	[0, 0, 0]	n/a	FR1	0	R1201P
1111.508	0.884	1277377	WORD_OFF	n/a	n/a	TOAD	3	7	[0, 0, 0]	n/a	FR1	0	R1201P
1112.392	1.618	1278261	WORD	n/a	wordpools/wordpool_EN.txt	POLE	4	7	[0, 0, 0]	n/a	FR1	0	R1201P
1114.01	0.783	1279879	WORD_OFF	n/a	n/a	POLE	4	7	[0, 0, 0]	n/a	FR1	0	R1201P
1114.793	1.616	1280662	WORD	n/a	wordpools/wordpool_EN.txt	HOOF	5	7	[0, 0, 0]	n/a	FR1	0	R1201P
1116.409	0.851	1282277	WORD_OFF	n/a	n/a	HOOF	5	7	[0, 0, 0]	n/a	FR1	0	R1201P
1117.26	1.618	1283128	WORD	n/a	wordpools/wordpool_EN.txt	EGG	6	7	[0, 0, 0]	n/a	FR1	0	R1201P
1118.878	0.85	1284746	WORD_OFF	n/a	n/a	EGG	6	7	[0, 0, 0]	n/a	FR1	0	R1201P
1119.728	1.616	1285596	WORD	n/a	wordpools/wordpool_EN.txt	STAR	7	7	[0, 0, 0]	n/a	FR1	0	R1201P
1121.344	0.868	1287212	WORD_OFF	n/a	n/a	STAR	7	7	[0, 0, 0]	n/a	FR1	0	R1201P
1122.212	1.616	1288080	WORD	n/a	wordpools/wordpool_EN.txt	CLOCK	8	7	[0, 0, 0]	n/a	FR1	0	R1201P
1123.828	0.867	1289696	WORD_OFF	n/a	n/a	CLOCK	8	7	[0, 0, 0]	n/a	FR1	0	R1201P
1124.695	1.616	1290563	WORD	n/a	wordpools/wordpool_EN.txt	MOON	9	7	[0, 0, 0]	n/a	FR1	0	R1201P
1126.311	0.885	1292179	WORD_OFF	n/a	n/a	MOON	9	7	[0, 0, 0]	n/a	FR1	0	R1201P
1127.196	1.617	1293064	WORD	n/a	wordpools/wordpool_EN.txt	JUICE	10	7	[0, 0, 0]	n/a	FR1	0	R1201P
1128.813	1.0	1294681	WORD_OFF	n/a	n/a	JUICE	10	7	[0, 0, 0]	n/a	FR1	0	R1201P
1129.813	1.616	1295681	WORD	n/a	wordpools/wordpool_EN.txt	CORD	11	7	[0, 0, 0]	n/a	FR1	0	R1201P
1131.429	0.9	1297297	WORD_OFF	n/a	n/a	CORD	11	7	[0, 0, 0]	n/a	FR1	0	R1201P
1132.329	1.601	1298197	WORD	n/a	wordpools/wordpool_EN.txt	SNAIL	12	7	[0, 0, 0]	n/a	FR1	0	R1201P
1133.93	0.0	1299798	WORD_OFF	n/a	n/a	SNAIL	12	7	[0, 0, 0]	n/a	FR1	0	R1201P
1133.93	0.001	1299798	DISTRACT_START	n/a	n/a	n/a	-999	7	[0, 0, 0]	n/a	FR1	0	R1201P
1133.931	0.016	1299799	START	n/a	n/a	n/a	-999	7	[-999, -999, -999]	n/a	FR1	0	R1201P
1133.947	3.251	1299815	PROB	3.251	n/a	n/a	-999	7	[1, 1, 9]	11	FR1	0	R1201P
1137.198	3.65	1303065	PROB	3.65	n/a	n/a	-999	7	[8, 6, 2]	16	FR1	0	R1201P
1140.848	2.583	1306715	PROB	2.583	n/a	n/a	-999	7	[7, 4, 1]	12	FR1	0	R1201P
1143.431	20.89	1309298	PROB	20.89	n/a	n/a	-999	7	[4, 7, 9]	20	FR1	0	R1201P
1164.321	0.014	1330187	STOP	n/a	n/a	n/a	-999	7	[-999, -999, -999]	n/a	FR1	0	R1201P
1164.335	0.668	1330201	DISTRACT_END	n/a	n/a	n/a	-999	7	[0, 0, 0]	n/a	FR1	0	R1201P
1165.003	0.516	1330869	RETRIEVAL_ORIENT	n/a	n/a	n/a	-999	7	[0, 0, 0]	n/a	FR1	0	R1201P
1165.519	28.435	1331385	REC_START	n/a	n/a	n/a	-999	7	[0, 0, 0]	n/a	FR1	0	R1201P
1193.954	1.578	1359818	REC_WORD	1.578	n/a	EAT	-999	7	[0, 0, 0]	n/a	FR1	0	R1201P
1195.532	5.594	1361396	REC_END	n/a	n/a	n/a	-999	7	[0, 0, 0]	n/a	FR1	0	R1201P
1201.126	0.5	1366990	TRIAL	n/a	n/a	n/a	-999	8	[0, 0, 0]	n/a	FR1	0	R1201P
1201.626	10.428	1367490	COUNTDOWN_START	n/a	n/a	n/a	-999	8	[0, 0, 0]	n/a	FR1	0	R1201P
1212.054	0.008	1377918	COUNTDOWN_END	n/a	n/a	n/a	-999	8	[0, 0, 0]	n/a	FR1	0	R1201P
1212.062	1.617	1377926	ORIENT	n/a	n/a	n/a	-999	8	[0, 0, 0]	n/a	FR1	0	R1201P
1213.679	2.167	1379542	ORIENT_OFF	n/a	n/a	n/a	-999	8	[0, 0, 0]	n/a	FR1	0	R1201P
1215.846	1.616	1381709	WORD	n/a	wordpools/wordpool_EN.txt	LAWN	1	8	[0, 0, 0]	n/a	FR1	0	R1201P
1217.462	0.767	1383325	WORD_OFF	n/a	n/a	LAWN	1	8	[0, 0, 0]	n/a	FR1	0	R1201P
1218.229	1.617	1384092	WORD	n/a	wordpools/wordpool_EN.txt	DITCH	2	8	[0, 0, 0]	n/a	FR1	0	R1201P
1219.846	0.784	1385709	WORD_OFF	n/a	n/a	DITCH	2	8	[0, 0, 0]	n/a	FR1	0	R1201P
1220.63	1.616	1386493	WORD	n/a	wordpools/wordpool_EN.txt	GRASS	3	8	[0, 0, 0]	n/a	FR1	0	R1201P
1222.246	0.901	1388109	WORD_OFF	n/a	n/a	GRASS	3	8	[0, 0, 0]	n/a	FR1	0	R1201P
1223.147	1.617	1389010	WORD	n/a	wordpools/wordpool_EN.txt	MULE	4	8	[0, 0, 0]	n/a	FR1	0	R1201P
1224.764	0.816	1390627	WORD_OFF	n/a	n/a	MULE	4	8	[0, 0, 0]	n/a	FR1	0	R1201P
1225.58	1.601	1391443	WORD	n/a	wordpools/wordpool_EN.txt	CLIFF	5	8	[0, 0, 0]	n/a	FR1	0	R1201P
1227.181	0.867	1393044	WORD_OFF	n/a	n/a	CLIFF	5	8	[0, 0, 0]	n/a	FR1	0	R1201P
1228.048	1.617	1393911	WORD	n/a	wordpools/wordpool_EN.txt	RAKE	6	8	[0, 0, 0]	n/a	FR1	0	R1201P
1229.665	0.832	1395528	WORD_OFF	n/a	n/a	RAKE	6	8	[0, 0, 0]	n/a	FR1	0	R1201P
1230.497	1.602	1396360	WORD	n/a	wordpools/wordpool_EN.txt	CRANE	7	8	[0, 0, 0]	n/a	FR1	0	R1201P
1232.099	0.767	1397962	WORD_OFF	n/a	n/a	CRANE	7	8	[0, 0, 0]	n/a	FR1	0	R1201P
1232.866	1.616	1398729	WORD	n/a	wordpools/wordpool_EN.txt	SHIP	8	8	[0, 0, 0]	n/a	FR1	0	R1201P
1234.482	0.85	1400344	WORD_OFF	n/a	n/a	SHIP	8	8	[0, 0, 0]	n/a	FR1	0	R1201P
1235.332	1.618	1401194	WORD	n/a	wordpools/wordpool_EN.txt	STORM	9	8	[0, 0, 0]	n/a	FR1	0	R1201P
1236.95	0.883	1402812	WORD_OFF	n/a	n/a	STORM	9	8	[0, 0, 0]	n/a	FR1	0	R1201P
1237.833	1.616	1403695	WORD	n/a	wordpools/wordpool_EN.txt	SHARK	10	8	[0, 0, 0]	n/a	FR1	0	R1201P
1239.449	0.967	1405311	WORD_OFF	n/a	n/a	SHARK	10	8	[0, 0, 0]	n/a	FR1	0	R1201P
1240.416	1.618	1406278	WORD	n/a	wordpools/wordpool_EN.txt	HOUSE	11	8	[0, 0, 0]	n/a	FR1	0	R1201P
1242.034	0.884	1407896	WORD_OFF	n/a	n/a	HOUSE	11	8	[0, 0, 0]	n/a	FR1	0	R1201P
1242.918	1.615	1408780	WORD	n/a	wordpools/wordpool_EN.txt	CAPE	12	8	[0, 0, 0]	n/a	FR1	0	R1201P
1244.533	0.0	1410395	WORD_OFF	n/a	n/a	CAPE	12	8	[0, 0, 0]	n/a	FR1	0	R1201P
1244.533	0.001	1410395	DISTRACT_START	n/a	n/a	n/a	-999	8	[0, 0, 0]	n/a	FR1	0	R1201P
1244.534	0.016	1410396	START	n/a	n/a	n/a	-999	8	[-999, -999, -999]	n/a	FR1	0	R1201P
1244.55	4.652	1410412	PROB	4.652	n/a	n/a	-999	8	[2, 7, 7]	16	FR1	0	R1201P
1249.202	2.901	1415064	PROB	2.901	n/a	n/a	-999	8	[4, 5, 1]	10	FR1	0	R1201P
1252.103	3.067	1417965	PROB	3.067	n/a	n/a	-999	8	[7, 2, 9]	18	FR1	0	R1201P
1255.17	2.55	1421031	PROB	2.55	n/a	n/a	-999	8	[6, 3, 4]	13	FR1	0	R1201P
1257.72	4.517	1423581	PROB	4.517	n/a	n/a	-999	8	[1, 3, 5]	9	FR1	0	R1201P
1262.237	3.389	1428098	PROB	3.389	n/a	n/a	-999	8	[3, 6, 1]	10	FR1	0	R1201P
1265.626	0.012	1431487	STOP	n/a	n/a	n/a	-999	8	[-999, -999, -999]	n/a	FR1	0	R1201P
1265.638	0.65	1431499	DISTRACT_END	n/a	n/a	n/a	-999	8	[0, 0, 0]	n/a	FR1	0	R1201P
1266.288	0.518	1432149	RETRIEVAL_ORIENT	n/a	n/a	n/a	-999	8	[0, 0, 0]	n/a	FR1	0	R1201P
1266.806	1.06	1432667	REC_START	n/a	n/a	n/a	-999	8	[0, 0, 0]	n/a	FR1	0	R1201P
1267.866	0.668	1433727	REC_WORD	0.668	n/a	LAWN	1	8	[0, 0, 0]	n/a	FR1	0	R1201P
1268.534	1.553	1434395	REC_WORD	1.553	n/a	GRASS	3	8	[0, 0, 0]	n/a	FR1	0	R1201P
1270.087	4.617	1435948	REC_WORD	4.617	n/a	RAKE	6	8	[0, 0, 0]	n/a	FR1	0	R1201P
1274.704	2.547	1440564	REC_WORD	2.547	n/a	SHIP	8	8	[0, 0, 0]	n/a	FR1	0	R1201P
1277.251	7.003	1443111	REC_WORD	7.003	n/a	CRANE	7	8	[0, 0, 0]	n/a	FR1	0	R1201P
1284.254	12.564	1450114	REC_WORD	12.564	n/a	BRIDGE	-999	8	[0, 0, 0]	n/a	FR1	0	R1201P
1296.818	5.66	1462677	REC_END	n/a	n/a	n/a	-999	8	[0, 0, 0]	n/a	FR1	0	R1201P
1302.478	0.5	1468337	TRIAL	n/a	n/a	n/a	-999	9	[0, 0, 0]	n/a	FR1	0	R1201P
1302.978	10.428	1468837	COUNTDOWN_START	n/a	n/a	n/a	-999	9	[0, 0, 0]	n/a	FR1	0	R1201P
1313.406	0.007	1479264	COUNTDOWN_END	n/a	n/a	n/a	-999	9	[0, 0, 0]	n/a	FR1	0	R1201P
1313.413	1.618	1479271	ORIENT	n/a	n/a	n/a	-999	9	[0, 0, 0]	n/a	FR1	0	R1201P
1315.031	2.167	1480889	ORIENT_OFF	n/a	n/a	n/a	-999	9	[0, 0, 0]	n/a	FR1	0	R1201P
1317.198	1.617	1483056	WORD	n/a	wordpools/wordpool_EN.txt	GUARD	1	9	[0, 0, 0]	n/a	FR1	0	R1201P
1318.815	0.9	1484673	WORD_OFF	n/a	n/a	GUARD	1	9	[0, 0, 0]	n/a	FR1	0	R1201P
1319.715	1.616	1485573	WORD	n/a	wordpools/wordpool_EN.txt	BROOM	2	9	[0, 0, 0]	n/a	FR1	0	R1201P
1321.331	0.885	1487189	WORD_OFF	n/a	n/a	BROOM	2	9	[0, 0, 0]	n/a	FR1	0	R1201P
1322.216	1.617	1488074	WORD	n/a	wordpools/wordpool_EN.txt	TRUCK	3	9	[0, 0, 0]	n/a	FR1	0	R1201P
1323.833	1.0	1489691	WORD_OFF	n/a	n/a	TRUCK	3	9	[0, 0, 0]	n/a	FR1	0	R1201P
1324.833	1.616	1490691	WORD	n/a	wordpools/wordpool_EN.txt	HAND	4	9	[0, 0, 0]	n/a	FR1	0	R1201P
1326.449	0.817	1492307	WORD_OFF	n/a	n/a	HAND	4	9	[0, 0, 0]	n/a	FR1	0	R1201P
1327.266	1.618	1493124	WORD	n/a	wordpools/wordpool_EN.txt	STICK	5	9	[0, 0, 0]	n/a	FR1	0	R1201P
1328.884	0.883	1494742	WORD_OFF	n/a	n/a	STICK	5	9	[0, 0, 0]	n/a	FR1	0	R1201P
1329.767	1.616	1495625	WORD	n/a	wordpools/wordpool_EN.txt	TENT	6	9	[0, 0, 0]	n/a	FR1	0	R1201P
1331.383	0.835	1497241	WORD_OFF	n/a	n/a	TENT	6	9	[0, 0, 0]	n/a	FR1	0	R1201P
1332.218	1.617	1498075	WORD	n/a	wordpools/wordpool_EN.txt	SHOE	7	9	[0, 0, 0]	n/a	FR1	0	R1201P
1333.835	0.967	1499692	WORD_OFF	n/a	n/a	SHOE	7	9	[0, 0, 0]	n/a	FR1	0	R1201P
1334.802	1.615	1500659	WORD	n/a	wordpools/wordpool_EN.txt	BED	8	9	[0, 0, 0]	n/a	FR1	0	R1201P
1336.417	0.785	1502274	WORD_OFF	n/a	n/a	BED	8	9	[0, 0, 0]	n/a	FR1	0	R1201P
1337.202	1.617	1503059	WORD	n/a	wordpools/wordpool_EN.txt	HOLE	9	9	[0, 0, 0]	n/a	FR1	0	R1201P
1338.819	0.933	1504676	WORD_OFF	n/a	n/a	HOLE	9	9	[0, 0, 0]	n/a	FR1	0	R1201P
1339.752	1.616	1505609	WORD	n/a	wordpools/wordpool_EN.txt	HILL	10	9	[0, 0, 0]	n/a	FR1	0	R1201P
1341.368	0.917	1507225	WORD_OFF	n/a	n/a	HILL	10	9	[0, 0, 0]	n/a	FR1	0	R1201P
1342.285	1.601	1508142	WORD	n/a	wordpools/wordpool_EN.txt	BLUSH	11	9	[0, 0, 0]	n/a	FR1	0	R1201P
1343.886	0.934	1509743	WORD_OFF	n/a	n/a	BLUSH	11	9	[0, 0, 0]	n/a	FR1	0	R1201P
1344.82	1.616	1510677	WORD	n/a	wordpools/wordpool_EN.txt	CHAIR	12	9	[0, 0, 0]	n/a	FR1	0	R1201P
1346.436	0.0	1512293	WORD_OFF	n/a	n/a	CHAIR	12	9	[0, 0, 0]	n/a	FR1	0	R1201P
1346.436	0.001	1512293	DISTRACT_START	n/a	n/a	n/a	-999	9	[0, 0, 0]	n/a	FR1	0	R1201P
1346.437	0.016	1512294	START	n/a	n/a	n/a	-999	9	[-999, -999, -999]	n/a	FR1	0	R1201P
1346.453	3.834	1512310	PROB	3.834	n/a	n/a	-999	9	[6, 3, 9]	18	FR1	0	R1201P
1350.287	3.385	1516144	PROB	3.385	n/a	n/a	-999	9	[9, 4, 9]	22	FR1	0	R1201P
1353.672	4.849	1519528	PROB	4.849	n/a	n/a	-999	9	[7, 7, 2]	16	FR1	0	R1201P
1358.521	5.436	1524377	PROB	5.436	n/a	n/a	-999	9	[1, 3, 2]	6	FR1	0	R1201P
1363.957	3.557	1529813	PROB	3.557	n/a	n/a	-999	9	[7, 3, 5]	15	FR1	0	R1201P
1367.514	0.009	1533370	STOP	n/a	n/a	n/a	-999	9	[-999, -999, -999]	n/a	FR1	0	R1201P
1367.523	0.551	1533379	DISTRACT_END	n/a	n/a	n/a	-999	9	[0, 0, 0]	n/a	FR1	0	R1201P
1368.074	0.517	1533930	RETRIEVAL_ORIENT	n/a	n/a	n/a	-999	9	[0, 0, 0]	n/a	FR1	0	R1201P
1368.591	1.634	1534447	REC_START	n/a	n/a	n/a	-999	9	[0, 0, 0]	n/a	FR1	0	R1201P
1370.225	7.089	1536081	REC_WORD	7.089	n/a	SHIP	-999	9	[0, 0, 0]	n/a	FR1	0	R1201P
1377.314	21.289	1543169	REC_WORD	21.289	n/a	ROOM	-999	9	[0, 0, 0]	n/a	FR1	0	R1201P
1398.603	5.545	1564457	REC_END	n/a	n/a	n/a	-999	9	[0, 0, 0]	n/a	FR1	0	R1201P
1404.148	0.5	1570002	TRIAL	n/a	n/a	n/a	-999	10	[0, 0, 0]	n/a	FR1	0	R1201P
1404.648	10.428	1570502	COUNTDOWN_START	n/a	n/a	n/a	-999	10	[0, 0, 0]	n/a	FR1	0	R1201P
1415.076	0.007	1580929	COUNTDOWN_END	n/a	n/a	n/a	-999	10	[0, 0, 0]	n/a	FR1	0	R1201P
1415.083	1.617	1580936	ORIENT	n/a	n/a	n/a	-999	10	[0, 0, 0]	n/a	FR1	0	R1201P
1416.7	2.334	1582553	ORIENT_OFF	n/a	n/a	n/a	-999	10	[0, 0, 0]	n/a	FR1	0	R1201P
1419.034	1.617	1584887	WORD	n/a	wordpools/wordpool_EN.txt	MAT	1	10	[0, 0, 0]	n/a	FR1	0	R1201P
1420.651	0.849	1586504	WORD_OFF	n/a	n/a	MAT	1	10	[0, 0, 0]	n/a	FR1	0	R1201P
1421.5	1.601	1587353	WORD	n/a	wordpools/wordpool_EN.txt	CAGE	2	10	[0, 0, 0]	n/a	FR1	0	R1201P
1423.101	0.851	1588954	WORD_OFF	n/a	n/a	CAGE	2	10	[0, 0, 0]	n/a	FR1	0	R1201P
1423.952	1.615	1589805	WORD	n/a	wordpools/wordpool_EN.txt	DOCK	3	10	[0, 0, 0]	n/a	FR1	0	R1201P
1425.567	0.884	1591420	WORD_OFF	n/a	n/a	DOCK	3	10	[0, 0, 0]	n/a	FR1	0	R1201P
1426.451	1.601	1592304	WORD	n/a	wordpools/wordpool_EN.txt	FARM	4	10	[0, 0, 0]	n/a	FR1	0	R1201P
1428.052	1.0	1593905	WORD_OFF	n/a	n/a	FARM	4	10	[0, 0, 0]	n/a	FR1	0	R1201P
1429.052	1.617	1594905	WORD	n/a	wordpools/wordpool_EN.txt	LEG	5	10	[0, 0, 0]	n/a	FR1	0	R1201P
1430.669	1.0	1596521	WORD_OFF	n/a	n/a	LEG	5	10	[0, 0, 0]	n/a	FR1	0	R1201P
1431.669	1.617	1597521	WORD	n/a	wordpools/wordpool_EN.txt	GRAPE	6	10	[0, 0, 0]	n/a	FR1	0	R1201P
1433.286	0.867	1599138	WORD_OFF	n/a	n/a	GRAPE	6	10	[0, 0, 0]	n/a	FR1	0	R1201P
1434.153	1.617	1600005	WORD	n/a	wordpools/wordpool_EN.txt	FORT	7	10	[0, 0, 0]	n/a	FR1	0	R1201P
1435.77	0.917	1601622	WORD_OFF	n/a	n/a	FORT	7	10	[0, 0, 0]	n/a	FR1	0	R1201P
1436.687	1.616	1602539	WORD	n/a	wordpools/wordpool_EN.txt	CART	8	10	[0, 0, 0]	n/a	FR1	0	R1201P
1438.303	0.967	1604155	WORD_OFF	n/a	n/a	CART	8	10	[0, 0, 0]	n/a	FR1	0	R1201P
1439.27	1.601	1605122	WORD	n/a	wordpools/wordpool_EN.txt	ROAD	9	10	[0, 0, 0]	n/a	FR1	0	R1201P
1440.871	0.967	1606723	WORD_OFF	n/a	n/a	ROAD	9	10	[0, 0, 0]	n/a	FR1	0	R1201P
1441.838	1.616	1607690	WORD	n/a	wordpools/wordpool_EN.txt	OWL	10	10	[0, 0, 0]	n/a	FR1	0	R1201P
1443.454	0.934	1609306	WORD_OFF	n/a	n/a	OWL	10	10	[0, 0, 0]	n/a	FR1	0	R1201P
1444.388	1.618	1610240	WORD	n/a	wordpools/wordpool_EN.txt	SLIME	11	10	[0, 0, 0]	n/a	FR1	0	R1201P
1446.006	1.0	1611858	WORD_OFF	n/a	n/a	SLIME	11	10	[0, 0, 0]	n/a	FR1	0	R1201P
1447.006	1.617	1612858	WORD	n/a	wordpools/wordpool_EN.txt	CROW	12	10	[0, 0, 0]	n/a	FR1	0	R1201P
1448.623	0.0	1614475	WORD_OFF	n/a	n/a	CROW	12	10	[0, 0, 0]	n/a	FR1	0	R1201P
1448.623	0.0	1614475	DISTRACT_START	n/a	n/a	n/a	-999	10	[0, 0, 0]	n/a	FR1	0	R1201P
1448.623	0.017	1614475	START	n/a	n/a	n/a	-999	10	[-999, -999, -999]	n/a	FR1	0	R1201P
1448.64	3.583	1614492	PROB	3.583	n/a	n/a	-999	10	[3, 6, 6]	15	FR1	0	R1201P
1452.223	3.033	1618074	PROB	3.033	n/a	n/a	-999	10	[2, 1, 1]	4	FR1	0	R1201P
1455.256	5.452	1621107	PROB	5.452	n/a	n/a	-999	10	[4, 3, 5]	14	FR1	0	R1201P
1460.708	20.581	1626559	PROB	20.581	n/a	n/a	-999	10	[9, 8, 4]	21	FR1	0	R1201P
1481.289	0.005	1647139	STOP	n/a	n/a	n/a	-999	10	[-999, -999, -999]	n/a	FR1	0	R1201P
1481.294	0.702	1647144	DISTRACT_END	n/a	n/a	n/a	-999	10	[0, 0, 0]	n/a	FR1	0	R1201P
1481.996	0.516	1647846	RETRIEVAL_ORIENT	n/a	n/a	n/a	-999	10	[0, 0, 0]	n/a	FR1	0	R1201P
1482.512	23.148	1648362	REC_START	n/a	n/a	n/a	-999	10	[0, 0, 0]	n/a	FR1	0	R1201P
1505.66	4.785	1671509	REC_WORD	4.785	n/a	CROW	12	10	[0, 0, 0]	n/a	FR1	0	R1201P
1510.445	2.079	1676293	REC_WORD	2.079	n/a	PET	-999	10	[0, 0, 0]	n/a	FR1	0	R1201P
1512.524	4.994	1678372	REC_END	n/a	n/a	n/a	-999	10	[0, 0, 0]	n/a	FR1	0	R1201P
1517.518	0.5	1683366	TRIAL	n/a	n/a	n/a	-999	11	[0, 0, 0]	n/a	FR1	0	R1201P
1518.018	10.428	1683866	COUNTDOWN_START	n/a	n/a	n/a	-999	11	[0, 0, 0]	n/a	FR1	0	R1201P
1528.446	0.007	1694294	COUNTDOWN_END	n/a	n/a	n/a	-999	11	[0, 0, 0]	n/a	FR1	0	R1201P
1528.453	1.618	1694301	ORIENT	n/a	n/a	n/a	-999	11	[0, 0, 0]	n/a	FR1	0	R1201P
1530.071	2.134	1695918	ORIENT_OFF	n/a	n/a	n/a	-999	11	[0, 0, 0]	n/a	FR1	0	R1201P
1532.205	1.617	1698052	WORD	n/a	wordpools/wordpool_EN.txt	PIE	1	11	[0, 0, 0]	n/a	FR1	0	R1201P
1533.822	0.967	1699669	WORD_OFF	n/a	n/a	PIE	1	11	[0, 0, 0]	n/a	FR1	0	R1201P
1534.789	1.616	1700636	WORD	n/a	wordpools/wordpool_EN.txt	WOOD	2	11	[0, 0, 0]	n/a	FR1	0	R1201P
1536.405	0.883	1702252	WORD_OFF	n/a	n/a	WOOD	2	11	[0, 0, 0]	n/a	FR1	0	R1201P
1537.288	1.601	1703135	WORD	n/a	wordpools/wordpool_EN.txt	BRICK	3	11	[0, 0, 0]	n/a	FR1	0	R1201P
1538.889	0.901	1704736	WORD_OFF	n/a	n/a	BRICK	3	11	[0, 0, 0]	n/a	FR1	0	R1201P
1539.79	1.616	1705637	WORD	n/a	wordpools/wordpool_EN.txt	TRAY	4	11	[0, 0, 0]	n/a	FR1	0	R1201P
1541.406	0.95	1707253	WORD_OFF	n/a	n/a	TRAY	4	11	[0, 0, 0]	n/a	FR1	0	R1201P
1542.356	1.601	1708203	WORD	n/a	wordpools/wordpool_EN.txt	AXE	5	11	[0, 0, 0]	n/a	FR1	0	R1201P
1543.957	0.817	1709804	WORD_OFF	n/a	n/a	AXE	5	11	[0, 0, 0]	n/a	FR1	0	R1201P
1544.774	1.616	1710621	WORD	n/a	wordpools/wordpool_EN.txt	MUG	6	11	[0, 0, 0]	n/a	FR1	0	R1201P
1546.39	0.85	1712237	WORD_OFF	n/a	n/a	MUG	6	11	[0, 0, 0]	n/a	FR1	0	R1201P
1547.24	1.601	1713087	WORD	n/a	wordpools/wordpool_EN.txt	STAIR	7	11	[0, 0, 0]	n/a	FR1	0	R1201P
1548.841	0.851	1714687	WORD_OFF	n/a	n/a	STAIR	7	11	[0, 0, 0]	n/a	FR1	0	R1201P
1549.692	1.616	1715538	WORD	n/a	wordpools/wordpool_EN.txt	FOOT	8	11	[0, 0, 0]	n/a	FR1	0	R1201P
1551.308	0.868	1717154	WORD_OFF	n/a	n/a	FOOT	8	11	[0, 0, 0]	n/a	FR1	0	R1201P
1552.176	1.617	1718022	WORD	n/a	wordpools/wordpool_EN.txt	ROOM	9	11	[0, 0, 0]	n/a	FR1	0	R1201P
1553.793	0.816	1719639	WORD_OFF	n/a	n/a	ROOM	9	11	[0, 0, 0]	n/a	FR1	0	R1201P
1554.609	1.617	1720455	WORD	n/a	wordpools/wordpool_EN.txt	SPOON	10	11	[0, 0, 0]	n/a	FR1	0	R1201P
1556.226	0.834	1722072	WORD_OFF	n/a	n/a	SPOON	10	11	[0, 0, 0]	n/a	FR1	0	R1201P
1557.06	1.617	1722906	WORD	n/a	wordpools/wordpool_EN.txt	BAG	11	11	[0, 0, 0]	n/a	FR1	0	R1201P
1558.677	1.017	1724523	WORD_OFF	n/a	n/a	BAG	11	11	[0, 0, 0]	n/a	FR1	0	R1201P
1559.694	1.616	1725540	WORD	n/a	wordpools/wordpool_EN.txt	RIB	12	11	[0, 0, 0]	n/a	FR1	0	R1201P
1561.31	0.0	1727156	WORD_OFF	n/a	n/a	RIB	12	11	[0, 0, 0]	n/a	FR1	0	R1201P
1561.31	0.0	1727156	DISTRACT_START	n/a	n/a	n/a	-999	11	[0, 0, 0]	n/a	FR1	0	R1201P
1561.31	0.016	1727156	START	n/a	n/a	n/a	-999	11	[-999, -999, -999]	n/a	FR1	0	R1201P
1561.326	4.836	1727172	PROB	4.836	n/a	n/a	-999	11	[2, 9, 9]	20	FR1	0	R1201P
1566.162	6.183	1732008	PROB	6.183	n/a	n/a	-999	11	[7, 5, 7]	19	FR1	0	R1201P
1572.345	6.201	1738190	PROB	6.201	n/a	n/a	-999	11	[9, 8, 3]	20	FR1	0	R1201P
1578.546	2.635	1744391	PROB	2.635	n/a	n/a	-999	11	[2, 8, 2]	12	FR1	0	R1201P
1581.181	5.412	1747026	PROB	5.412	n/a	n/a	-999	11	[3, 5, 8]	16	FR1	0	R1201P
1586.593	0.022	1752438	STOP	n/a	n/a	n/a	-999	11	[-999, -999, -999]	n/a	FR1	0	R1201P
1586.615	0.616	1752460	DISTRACT_END	n/a	n/a	n/a	-999	11	[0, 0, 0]	n/a	FR1	0	R1201P
1587.231	0.523	1753076	RETRIEVAL_ORIENT	n/a	n/a	n/a	-999	11	[0, 0, 0]	n/a	FR1	0	R1201P
1587.754	4.943	1753598	REC_START	n/a	n/a	n/a	-999	11	[0, 0, 0]	n/a	FR1	0	R1201P
1592.697	0.687	1758541	REC_WORD	0.687	n/a	WOOD	2	11	[0, 0, 0]	n/a	FR1	0	R1201P
1593.384	9.213	1759228	REC_WORD	9.213	n/a	AXE	5	11	[0, 0, 0]	n/a	FR1	0	R1201P
1602.597	15.164	1768441	REC_WORD	15.164	n/a	FROG	-999	11	[0, 0, 0]	n/a	FR1	0	R1201P
1617.761	5.494	1783604	REC_END	n/a	n/a	n/a	-999	11	[0, 0, 0]	n/a	FR1	0	R1201P
1623.255	0.5	1789098	TRIAL	n/a	n/a	n/a	-999	12	[0, 0, 0]	n/a	FR1	0	R1201P
1623.755	10.428	1789598	COUNTDOWN_START	n/a	n/a	n/a	-999	12	[0, 0, 0]	n/a	FR1	0	R1201P
1634.183	0.008	1800025	COUNTDOWN_END	n/a	n/a	n/a	-999	12	[0, 0, 0]	n/a	FR1	0	R1201P
1634.191	1.617	1800033	ORIENT	n/a	n/a	n/a	-999	12	[0, 0, 0]	n/a	FR1	0	R1201P
1635.808	2.067	1801650	ORIENT_OFF	n/a	n/a	n/a	-999	12	[0, 0, 0]	n/a	FR1	0	R1201P
1637.875	1.616	1803717	WORD	n/a	wordpools/wordpool_EN.txt	SPRING	1	12	[0, 0, 0]	n/a	FR1	0	R1201P
1639.491	0.817	1805333	WORD_OFF	n/a	n/a	SPRING	1	12	[0, 0, 0]	n/a	FR1	0	R1201P
1640.308	1.618	1806150	WORD	n/a	wordpools/wordpool_EN.txt	SNOW	2	12	[0, 0, 0]	n/a	FR1	0	R1201P
1641.926	0.967	1807768	WORD_OFF	n/a	n/a	SNOW	2	12	[0, 0, 0]	n/a	FR1	0	R1201P
1642.893	1.616	1808735	WORD	n/a	wordpools/wordpool_EN.txt	FRUIT	3	12	[0, 0, 0]	n/a	FR1	0	R1201P
1644.509	0.833	1810351	WORD_OFF	n/a	n/a	FRUIT	3	12	[0, 0, 0]	n/a	FR1	0	R1201P
1645.342	1.618	1811184	WORD	n/a	wordpools/wordpool_EN.txt	DEER	4	12	[0, 0, 0]	n/a	FR1	0	R1201P
1646.96	0.9	1812801	WORD_OFF	n/a	n/a	DEER	4	12	[0, 0, 0]	n/a	FR1	0	R1201P
1647.86	1.616	1813701	WORD	n/a	wordpools/wordpool_EN.txt	BOOT	5	12	[0, 0, 0]	n/a	FR1	0	R1201P
1649.476	0.8	1815317	WORD_OFF	n/a	n/a	BOOT	5	12	[0, 0, 0]	n/a	FR1	0	R1201P
1650.276	1.618	1816117	WORD	n/a	wordpools/wordpool_EN.txt	SWAMP	6	12	[0, 0, 0]	n/a	FR1	0	R1201P
1651.894	0.884	1817735	WORD_OFF	n/a	n/a	SWAMP	6	12	[0, 0, 0]	n/a	FR1	0	R1201P
1652.778	1.616	1818619	WORD	n/a	wordpools/wordpool_EN.txt	CUBE	7	12	[0, 0, 0]	n/a	FR1	0	R1201P
1654.394	0.784	1820235	WORD_OFF	n/a	n/a	CUBE	7	12	[0, 0, 0]	n/a	FR1	0	R1201P
1655.178	1.617	1821019	WORD	n/a	wordpools/wordpool_EN.txt	BLOOM	8	12	[0, 0, 0]	n/a	FR1	0	R1201P
1656.795	0.967	1822636	WORD_OFF	n/a	n/a	BLOOM	8	12	[0, 0, 0]	n/a	FR1	0	R1201P
1657.762	1.616	1823603	WORD	n/a	wordpools/wordpool_EN.txt	BUSH	9	12	[0, 0, 0]	n/a	FR1	0	R1201P
1659.378	0.801	1825219	WORD_OFF	n/a	n/a	BUSH	9	12	[0, 0, 0]	n/a	FR1	0	R1201P
1660.179	1.617	1826020	WORD	n/a	wordpools/wordpool_EN.txt	FOG	10	12	[0, 0, 0]	n/a	FR1	0	R1201P
1661.796	0.834	1827637	WORD_OFF	n/a	n/a	FOG	10	12	[0, 0, 0]	n/a	FR1	0	R1201P
1662.63	1.616	1828471	WORD	n/a	wordpools/wordpool_EN.txt	MOTH	11	12	[0, 0, 0]	n/a	FR1	0	R1201P
1664.246	0.884	1830087	WORD_OFF	n/a	n/a	MOTH	11	12	[0, 0, 0]	n/a	FR1	0	R1201P
1665.13	1.617	1830971	WORD	n/a	wordpools/wordpool_EN.txt	OAK	12	12	[0, 0, 0]	n/a	FR1	0	R1201P
1666.747	0.0	1832587	WORD_OFF	n/a	n/a	OAK	12	12	[0, 0, 0]	n/a	FR1	0	R1201P
1666.747	0.001	1832587	DISTRACT_START	n/a	n/a	n/a	-999	12	[0, 0, 0]	n/a	FR1	0	R1201P
1666.748	0.016	1832588	START	n/a	n/a	n/a	-999	12	[-999, -999, -999]	n/a	FR1	0	R1201P
1666.764	3.267	1832604	PROB	3.267	n/a	n/a	-999	12	[3, 1, 7]	11	FR1	0	R1201P
1670.031	6.084	1835871	PROB	6.084	n/a	n/a	-999	12	[1, 5, 6]	12	FR1	0	R1201P
1676.115	3.233	1841955	PROB	3.233	n/a	n/a	-999	12	[7, 3, 4]	14	FR1	0	R1201P
1679.348	3.502	1845188	PROB	3.502	n/a	n/a	-999	12	[2, 8, 3]	13	FR1	0	R1201P
1682.85	3.533	1848690	PROB	3.533	n/a	n/a	-999	12	[1, 6, 3]	10	FR1	0	R1201P
1686.383	2.906	1852222	PROB	2.906	n/a	n/a	-999	12	[8, 5, 2]	15	FR1	0	R1201P
1689.289	0.011	1855128	STOP	n/a	n/a	n/a	-999	12	[-999, -999, -999]	n/a	FR1	0	R1201P
1689.3	0.568	1855139	DISTRACT_END	n/a	n/a	n/a	-999	12	[0, 0, 0]	n/a	FR1	0	R1201P
1689.868	0.516	1855707	RETRIEVAL_ORIENT	n/a	n/a	n/a	-999	12	[0, 0, 0]	n/a	FR1	0	R1201P
1690.384	5.924	1856223	REC_START	n/a	n/a	n/a	-999	12	[0, 0, 0]	n/a	FR1	0	R1201P
1696.308	24.089	1862147	REC_WORD_VV	24.089	n/a	<>	-999	12	[0, 0, 0]	n/a	FR1	0	R1201P
1720.397	6.177	1886235	REC_END	n/a	n/a	n/a	-999	12	[0, 0, 0]	n/a	FR1	0	R1201P
1726.574	0.5	1892411	TRIAL	n/a	n/a	n/a	-999	13	[0, 0, 0]	n/a	FR1	0	R1201P
1727.074	10.428	1892911	COUNTDOWN_START	n/a	n/a	n/a	-999	13	[0, 0, 0]	n/a	FR1	0	R1201P
1737.502	0.007	1903339	COUNTDOWN_END	n/a	n/a	n/a	-999	13	[0, 0, 0]	n/a	FR1	0	R1201P
1737.509	1.601	1903346	ORIENT	n/a	n/a	n/a	-999	13	[0, 0, 0]	n/a	FR1	0	R1201P
1739.11	2.15	1904947	ORIENT_OFF	n/a	n/a	n/a	-999	13	[0, 0, 0]	n/a	FR1	0	R1201P
1741.26	1.601	1907097	WORD	n/a	wordpools/wordpool_EN.txt	OAR	1	13	[0, 0, 0]	n/a	FR1	0	R1201P
1742.861	0.884	1908698	WORD_OFF	n/a	n/a	OAR	1	13	[0, 0, 0]	n/a	FR1	0	R1201P
1743.745	1.616	1909582	WORD	n/a	wordpools/wordpool_EN.txt	PEN	2	13	[0, 0, 0]	n/a	FR1	0	R1201P
1745.361	1.0	1911197	WORD_OFF	n/a	n/a	PEN	2	13	[0, 0, 0]	n/a	FR1	0	R1201P
1746.361	1.618	1912197	WORD	n/a	wordpools/wordpool_EN.txt	SLEEVE	3	13	[0, 0, 0]	n/a	FR1	0	R1201P
1747.979	0.967	1913815	WORD_OFF	n/a	n/a	SLEEVE	3	13	[0, 0, 0]	n/a	FR1	0	R1201P
1748.946	1.616	1914782	WORD	n/a	wordpools/wordpool_EN.txt	DOLL	4	13	[0, 0, 0]	n/a	FR1	0	R1201P
1750.562	0.867	1916398	WORD_OFF	n/a	n/a	DOLL	4	13	[0, 0, 0]	n/a	FR1	0	R1201P
1751.429	1.618	1917265	WORD	n/a	wordpools/wordpool_EN.txt	JEEP	5	13	[0, 0, 0]	n/a	FR1	0	R1201P
1753.047	1.016	1918883	WORD_OFF	n/a	n/a	JEEP	5	13	[0, 0, 0]	n/a	FR1	0	R1201P
1754.063	1.618	1919899	WORD	n/a	wordpools/wordpool_EN.txt	HOSE	6	13	[0, 0, 0]	n/a	FR1	0	R1201P
1755.681	0.832	1921517	WORD_OFF	n/a	n/a	HOSE	6	13	[0, 0, 0]	n/a	FR1	0	R1201P
1756.513	1.601	1922349	WORD	n/a	wordpools/wordpool_EN.txt	BRUSH	7	13	[0, 0, 0]	n/a	FR1	0	R1201P
1758.114	0.933	1923950	WORD_OFF	n/a	n/a	BRUSH	7	13	[0, 0, 0]	n/a	FR1	0	R1201P
1759.047	1.618	1924883	WORD	n/a	wordpools/wordpool_EN.txt	CHALK	8	13	[0, 0, 0]	n/a	FR1	0	R1201P
1760.665	0.967	1926501	WORD_OFF	n/a	n/a	CHALK	8	13	[0, 0, 0]	n/a	FR1	0	R1201P
1761.632	1.616	1927468	WORD	n/a	wordpools/wordpool_EN.txt	DRUM	9	13	[0, 0, 0]	n/a	FR1	0	R1201P
1763.248	0.834	1929084	WORD_OFF	n/a	n/a	DRUM	9	13	[0, 0, 0]	n/a	FR1	0	R1201P
1764.082	1.617	1929918	WORD	n/a	wordpools/wordpool_EN.txt	NOSE	10	13	[0, 0, 0]	n/a	FR1	0	R1201P
1765.699	0.783	1931534	WORD_OFF	n/a	n/a	NOSE	10	13	[0, 0, 0]	n/a	FR1	0	R1201P
1766.482	1.617	1932317	WORD	n/a	wordpools/wordpool_EN.txt	VEST	11	13	[0, 0, 0]	n/a	FR1	0	R1201P
1768.099	0.984	1933934	WORD_OFF	n/a	n/a	VEST	11	13	[0, 0, 0]	n/a	FR1	0	R1201P
1769.083	1.617	1934918	WORD	n/a	wordpools/wordpool_EN.txt	TREE	12	13	[0, 0, 0]	n/a	FR1	0	R1201P
1770.7	0.0	1936535	WORD_OFF	n/a	n/a	TREE	12	13	[0, 0, 0]	n/a	FR1	0	R1201P
1770.7	0.001	1936535	DISTRACT_START	n/a	n/a	n/a	-999	13	[0, 0, 0]	n/a	FR1	0	R1201P
1770.701	0.016	1936536	START	n/a	n/a	n/a	-999	13	[-999, -999, -999]	n/a	FR1	0	R1201P
1770.717	3.984	1936552	PROB	3.984	n/a	n/a	-999	13	[4, 8, 2]	14	FR1	0	R1201P
1774.701	4.517	1940536	PROB	4.517	n/a	n/a	-999	13	[3, 9, 3]	15	FR1	0	R1201P
1779.218	7.151	1945053	PROB	7.151	n/a	n/a	-999	13	[9, 8, 8]	25	FR1	0	R1201P
1786.369	7.961	1952203	PROB	7.961	n/a	n/a	-999	13	[1, 4, 2]	7	FR1	0	R1201P
1794.33	0.006	1960164	STOP	n/a	n/a	n/a	-999	13	[-999, -999, -999]	n/a	FR1	0	R1201P
1794.336	0.702	1960170	DISTRACT_END	n/a	n/a	n/a	-999	13	[0, 0, 0]	n/a	FR1	0	R1201P
1795.038	0.516	1960872	RETRIEVAL_ORIENT	n/a	n/a	n/a	-999	13	[0, 0, 0]	n/a	FR1	0	R1201P
1795.554	1.627	1961388	REC_START	n/a	n/a	n/a	-999	13	[0, 0, 0]	n/a	FR1	0	R1201P
1797.181	5.137	1963015	REC_WORD	5.137	n/a	OAR	1	13	[0, 0, 0]	n/a	FR1	0	R1201P
1802.318	4.448	1968152	REC_WORD	4.448	n/a	JEEP	5	13	[0, 0, 0]	n/a	FR1	0	R1201P
1806.766	18.801	1972599	REC_WORD	18.801	n/a	MOB	-999	13	[0, 0, 0]	n/a	FR1	0	R1201P
1825.567	5.611	1991399	REC_END	n/a	n/a	n/a	-999	13	[0, 0, 0]	n/a	FR1	0	R1201P
1831.178	0.5	1997010	TRIAL	n/a	n/a	n/a	-999	14	[0, 0, 0]	n/a	FR1	0	R1201P
1831.678	10.428	1997510	COUNTDOWN_START	n/a	n/a	n/a	-999	14	[0, 0, 0]	n/a	FR1	0	R1201P
1842.106	0.007	2007938	COUNTDOWN_END	n/a	n/a	n/a	-999	14	[0, 0, 0]	n/a	FR1	0	R1201P
1842.113	1.617	2007945	ORIENT	n/a	n/a	n/a	-999	14	[0, 0, 0]	n/a	FR1	0	R1201P
1843.73	2.151	2009562	ORIENT_OFF	n/a	n/a	n/a	-999	14	[0, 0, 0]	n/a	FR1	0	R1201P
1845.881	1.616	2011712	WORD	n/a	wordpools/wordpool_EN.txt	GLOVE	1	14	[0, 0, 0]	n/a	FR1	0	R1201P
1847.497	0.867	2013328	WORD_OFF	n/a	n/a	GLOVE	1	14	[0, 0, 0]	n/a	FR1	0	R1201P
1848.364	1.618	2014195	WORD	n/a	wordpools/wordpool_EN.txt	DOOR	2	14	[0, 0, 0]	n/a	FR1	0	R1201P
1849.982	0.783	2015813	WORD_OFF	n/a	n/a	DOOR	2	14	[0, 0, 0]	n/a	FR1	0	R1201P
1850.765	1.616	2016596	WORD	n/a	wordpools/wordpool_EN.txt	BADGE	3	14	[0, 0, 0]	n/a	FR1	0	R1201P
1852.381	0.984	2018212	WORD_OFF	n/a	n/a	BADGE	3	14	[0, 0, 0]	n/a	FR1	0	R1201P
1853.365	1.617	2019196	WORD	n/a	wordpools/wordpool_EN.txt	TOY	4	14	[0, 0, 0]	n/a	FR1	0	R1201P
1854.982	0.951	2020813	WORD_OFF	n/a	n/a	TOY	4	14	[0, 0, 0]	n/a	FR1	0	R1201P
1855.933	1.616	2021764	WORD	n/a	wordpools/wordpool_EN.txt	DESK	5	14	[0, 0, 0]	n/a	FR1	0	R1201P
1857.549	0.8	2023380	WORD_OFF	n/a	n/a	DESK	5	14	[0, 0, 0]	n/a	FR1	0	R1201P
1858.349	1.618	2024180	WORD	n/a	wordpools/wordpool_EN.txt	SMILE	6	14	[0, 0, 0]	n/a	FR1	0	R1201P
1859.967	0.967	2025798	WORD_OFF	n/a	n/a	SMILE	6	14	[0, 0, 0]	n/a	FR1	0	R1201P
1860.934	1.616	2026765	WORD	n/a	wordpools/wordpool_EN.txt	ROPE	7	14	[0, 0, 0]	n/a	FR1	0	R1201P
1862.55	0.983	2028381	WORD_OFF	n/a	n/a	ROPE	7	14	[0, 0, 0]	n/a	FR1	0	R1201P
1863.533	1.618	2029364	WORD	n/a	wordpools/wordpool_EN.txt	HAWK	8	14	[0, 0, 0]	n/a	FR1	0	R1201P
1865.151	0.95	2030981	WORD_OFF	n/a	n/a	HAWK	8	14	[0, 0, 0]	n/a	FR1	0	R1201P
1866.101	1.617	2031931	WORD	n/a	wordpools/wordpool_EN.txt	DUCK	9	14	[0, 0, 0]	n/a	FR1	0	R1201P
1867.718	0.849	2033548	WORD_OFF	n/a	n/a	DUCK	9	14	[0, 0, 0]	n/a	FR1	0	R1201P
1868.567	1.618	2034397	WORD	n/a	wordpools/wordpool_EN.txt	PASTE	10	14	[0, 0, 0]	n/a	FR1	0	R1201P
1870.185	0.951	2036015	WORD_OFF	n/a	n/a	PASTE	10	14	[0, 0, 0]	n/a	FR1	0	R1201P
1871.136	1.616	2036966	WORD	n/a	wordpools/wordpool_EN.txt	CLOWN	11	14	[0, 0, 0]	n/a	FR1	0	R1201P
1872.752	0.901	2038582	WORD_OFF	n/a	n/a	CLOWN	11	14	[0, 0, 0]	n/a	FR1	0	R1201P
1873.653	1.616	2039483	WORD	n/a	wordpools/wordpool_EN.txt	TOOTH	12	14	[0, 0, 0]	n/a	FR1	0	R1201P
1875.269	0.0	2041099	WORD_OFF	n/a	n/a	TOOTH	12	14	[0, 0, 0]	n/a	FR1	0	R1201P
1875.269	0.0	2041099	DISTRACT_START	n/a	n/a	n/a	-999	14	[0, 0, 0]	n/a	FR1	0	R1201P
1875.269	0.016	2041099	START	n/a	n/a	n/a	-999	14	[-999, -999, -999]	n/a	FR1	0	R1201P
1875.285	16.037	2041115	PROB	16.037	n/a	n/a	-999	14	[6, 1, 7]	14	FR1	0	R1201P
1891.322	7.473	2057151	PROB	7.473	n/a	n/a	-999	14	[5, 9, 4]	18	FR1	0	R1201P
1898.795	0.012	2064624	STOP	n/a	n/a	n/a	-999	14	[-999, -999, -999]	n/a	FR1	0	R1201P
1898.807	0.633	2064636	DISTRACT_END	n/a	n/a	n/a	-999	14	[0, 0, 0]	n/a	FR1	0	R1201P
1899.44	0.518	2065269	RETRIEVAL_ORIENT	n/a	n/a	n/a	-999	14	[0, 0, 0]	n/a	FR1	0	R1201P
1899.958	2.973	2065787	REC_START	n/a	n/a	n/a	-999	14	[0, 0, 0]	n/a	FR1	0	R1201P
1902.931	0.531	2068760	REC_WORD	0.531	n/a	CLOWN	11	14	[0, 0, 0]	n/a	FR1	0	R1201P
1903.462	26.509	2069290	REC_WORD	26.509	n/a	TOOTH	12	14	[0, 0, 0]	n/a	FR1	0	R1201P
1929.971	5.21	2095798	REC_END	n/a	n/a	n/a	-999	14	[0, 0, 0]	n/a	FR1	0	R1201P
1935.181	0.5	2101008	TRIAL	n/a	n/a	n/a	-999	15	[0, 0, 0]	n/a	FR1	0	R1201P
1935.681	10.428	2101508	COUNTDOWN_START	n/a	n/a	n/a	-999	15	[0, 0, 0]	n/a	FR1	0	R1201P
1946.109	0.007	2111935	COUNTDOWN_END	n/a	n/a	n/a	-999	15	[0, 0, 0]	n/a	FR1	0	R1201P
1946.116	1.617	2111942	ORIENT	n/a	n/a	n/a	-999	15	[0, 0, 0]	n/a	FR1	0	R1201P
1947.733	2.234	2113559	ORIENT_OFF	n/a	n/a	n/a	-999	15	[0, 0, 0]	n/a	FR1	0	R1201P
1949.967	1.616	2115793	WORD	n/a	wordpools/wordpool_EN.txt	APE	1	15	[0, 0, 0]	n/a	FR1	0	R1201P
1951.583	0.8	2117409	WORD_OFF	n/a	n/a	APE	1	15	[0, 0, 0]	n/a	FR1	0	R1201P
1952.383	1.601	2118209	WORD	n/a	wordpools/wordpool_EN.txt	PIN	2	15	[0, 0, 0]	n/a	FR1	0	R1201P
1953.984	0.801	2119810	WORD_OFF	n/a	n/a	PIN	2	15	[0, 0, 0]	n/a	FR1	0	R1201P
1954.785	1.616	2120611	WORD	n/a	wordpools/wordpool_EN.txt	VAN	3	15	[0, 0, 0]	n/a	FR1	0	R1201P
1956.401	1.0	2122227	WORD_OFF	n/a	n/a	VAN	3	15	[0, 0, 0]	n/a	FR1	0	R1201P
1957.401	1.618	2123227	WORD	n/a	wordpools/wordpool_EN.txt	BOX	4	15	[0, 0, 0]	n/a	FR1	0	R1201P
1959.019	0.883	2124845	WORD_OFF	n/a	n/a	BOX	4	15	[0, 0, 0]	n/a	FR1	0	R1201P
1959.902	1.616	2125728	WORD	n/a	wordpools/wordpool_EN.txt	PIPE	5	15	[0, 0, 0]	n/a	FR1	0	R1201P
1961.518	0.984	2127344	WORD_OFF	n/a	n/a	PIPE	5	15	[0, 0, 0]	n/a	FR1	0	R1201P
1962.502	1.618	2128327	WORD	n/a	wordpools/wordpool_EN.txt	BATH	6	15	[0, 0, 0]	n/a	FR1	0	R1201P
1964.12	0.85	2129945	WORD_OFF	n/a	n/a	BATH	6	15	[0, 0, 0]	n/a	FR1	0	R1201P
1964.97	1.616	2130795	WORD	n/a	wordpools/wordpool_EN.txt	CUP	7	15	[0, 0, 0]	n/a	FR1	0	R1201P
1966.586	0.767	2132411	WORD_OFF	n/a	n/a	CUP	7	15	[0, 0, 0]	n/a	FR1	0	R1201P
1967.353	1.618	2133178	WORD	n/a	wordpools/wordpool_EN.txt	BALL	8	15	[0, 0, 0]	n/a	FR1	0	R1201P
1968.971	0.933	2134796	WORD_OFF	n/a	n/a	BALL	8	15	[0, 0, 0]	n/a	FR1	0	R1201P
1969.904	1.616	2135729	WORD	n/a	wordpools/wordpool_EN.txt	SIGN	9	15	[0, 0, 0]	n/a	FR1	0	R1201P
1971.52	0.85	2137345	WORD_OFF	n/a	n/a	SIGN	9	15	[0, 0, 0]	n/a	FR1	0	R1201P
1972.37	1.601	2138195	WORD	n/a	wordpools/wordpool_EN.txt	SEAT	10	15	[0, 0, 0]	n/a	FR1	0	R1201P
1973.971	0.867	2139796	WORD_OFF	n/a	n/a	SEAT	10	15	[0, 0, 0]	n/a	FR1	0	R1201P
1974.838	1.616	2140663	WORD	n/a	wordpools/wordpool_EN.txt	SQUARE	11	15	[0, 0, 0]	n/a	FR1	0	R1201P
1976.454	0.934	2142279	WORD_OFF	n/a	n/a	SQUARE	11	15	[0, 0, 0]	n/a	FR1	0	R1201P
1977.388	1.618	2143213	WORD	n/a	wordpools/wordpool_EN.txt	STOVE	12	15	[0, 0, 0]	n/a	FR1	0	R1201P
1979.006	0.0	2144831	WORD_OFF	n/a	n/a	STOVE	12	15	[0, 0, 0]	n/a	FR1	0	R1201P
1979.006	0.0	2144831	DISTRACT_START	n/a	n/a	n/a	-999	15	[0, 0, 0]	n/a	FR1	0	R1201P
1979.006	0.016	2144831	START	n/a	n/a	n/a	-999	15	[-999, -999, -999]	n/a	FR1	0	R1201P
1979.022	3.985	2144847	PROB	3.985	n/a	n/a	-999	15	[2, 6, 8]	16	FR1	0	R1201P
1983.007	3.167	2148831	PROB	3.167	n/a	n/a	-999	15	[6, 7, 3]	16	FR1	0	R1201P
1986.174	3.734	2151998	PROB	3.734	n/a	n/a	-999	15	[7, 2, 2]	11	FR1	0	R1201P
1989.908	9.414	2155732	PROB	9.414	n/a	n/a	-999	15	[4, 1, 3]	8	FR1	0	R1201P
1999.322	0.02	2165146	STOP	n/a	n/a	n/a	-999	15	[-999, -999, -999]	n/a	FR1	0	R1201P
1999.342	0.534	2165166	DISTRACT_END	n/a	n/a	n/a	-999	15	[0, 0, 0]	n/a	FR1	0	R1201P
1999.876	0.517	2165700	RETRIEVAL_ORIENT	n/a	n/a	n/a	-999	15	[0, 0, 0]	n/a	FR1	0	R1201P
2000.393	5.397	2166217	REC_START	n/a	n/a	n/a	-999	15	[0, 0, 0]	n/a	FR1	0	R1201P
2005.79	6.629	2171613	REC_WORD	6.629	n/a	APE	1	15	[0, 0, 0]	n/a	FR1	0	R1201P
2012.419	17.985	2178242	REC_WORD	17.985	n/a	PIN	2	15	[0, 0, 0]	n/a	FR1	0	R1201P
2030.404	5.363	2196226	REC_END	n/a	n/a	n/a	-999	15	[0, 0, 0]	n/a	FR1	0	R1201P
2035.767	0.5	2201589	TRIAL	n/a	n/a	n/a	-999	16	[0, 0, 0]	n/a	FR1	0	R1201P
2036.267	10.428	2202089	COUNTDOWN_START	n/a	n/a	n/a	-999	16	[0, 0, 0]	n/a	FR1	0	R1201P
2046.695	0.007	2212516	COUNTDOWN_END	n/a	n/a	n/a	-999	16	[0, 0, 0]	n/a	FR1	0	R1201P
2046.702	1.616	2212523	ORIENT	n/a	n/a	n/a	-999	16	[0, 0, 0]	n/a	FR1	0	R1201P
2048.318	2.184	2214139	ORIENT_OFF	n/a	n/a	n/a	-999	16	[0, 0, 0]	n/a	FR1	0	R1201P
2050.502	1.618	2216323	WORD	n/a	wordpools/wordpool_EN.txt	PLATE	1	16	[0, 0, 0]	n/a	FR1	0	R1201P
2052.12	0.9	2217941	WORD_OFF	n/a	n/a	PLATE	1	16	[0, 0, 0]	n/a	FR1	0	R1201P
2053.02	1.617	2218841	WORD	n/a	wordpools/wordpool_EN.txt	BAT	2	16	[0, 0, 0]	n/a	FR1	0	R1201P
2054.637	0.849	2220458	WORD_OFF	n/a	n/a	BAT	2	16	[0, 0, 0]	n/a	FR1	0	R1201P
2055.486	1.601	2221307	WORD	n/a	wordpools/wordpool_EN.txt	BOWL	3	16	[0, 0, 0]	n/a	FR1	0	R1201P
2057.087	0.967	2222908	WORD_OFF	n/a	n/a	BOWL	3	16	[0, 0, 0]	n/a	FR1	0	R1201P
2058.054	1.617	2223875	WORD	n/a	wordpools/wordpool_EN.txt	WHALE	4	16	[0, 0, 0]	n/a	FR1	0	R1201P
2059.671	1.017	2225492	WORD_OFF	n/a	n/a	WHALE	4	16	[0, 0, 0]	n/a	FR1	0	R1201P
2060.688	1.616	2226508	WORD	n/a	wordpools/wordpool_EN.txt	PIT	5	16	[0, 0, 0]	n/a	FR1	0	R1201P
2062.304	0.768	2228124	WORD_OFF	n/a	n/a	PIT	5	16	[0, 0, 0]	n/a	FR1	0	R1201P
2063.072	1.617	2228892	WORD	n/a	wordpools/wordpool_EN.txt	ROOF	6	16	[0, 0, 0]	n/a	FR1	0	R1201P
2064.689	0.865	2230509	WORD_OFF	n/a	n/a	ROOF	6	16	[0, 0, 0]	n/a	FR1	0	R1201P
2065.554	1.618	2231374	WORD	n/a	wordpools/wordpool_EN.txt	NET	7	16	[0, 0, 0]	n/a	FR1	0	R1201P
2067.172	0.884	2232992	WORD_OFF	n/a	n/a	NET	7	16	[0, 0, 0]	n/a	FR1	0	R1201P
2068.056	1.617	2233876	WORD	n/a	wordpools/wordpool_EN.txt	PALM	8	16	[0, 0, 0]	n/a	FR1	0	R1201P
2069.673	0.832	2235493	WORD_OFF	n/a	n/a	PALM	8	16	[0, 0, 0]	n/a	FR1	0	R1201P
2070.505	1.601	2236325	WORD	n/a	wordpools/wordpool_EN.txt	VINE	9	16	[0, 0, 0]	n/a	FR1	0	R1201P
2072.106	1.001	2237926	WORD_OFF	n/a	n/a	VINE	9	16	[0, 0, 0]	n/a	FR1	0	R1201P
2073.107	1.617	2238927	WORD	n/a	wordpools/wordpool_EN.txt	FACE	10	16	[0, 0, 0]	n/a	FR1	0	R1201P
2074.724	0.933	2240544	WORD_OFF	n/a	n/a	FACE	10	16	[0, 0, 0]	n/a	FR1	0	R1201P
2075.657	1.616	2241477	WORD	n/a	wordpools/wordpool_EN.txt	SINK	11	16	[0, 0, 0]	n/a	FR1	0	R1201P
2077.273	0.785	2243093	WORD_OFF	n/a	n/a	SINK	11	16	[0, 0, 0]	n/a	FR1	0	R1201P
2078.058	1.617	2243878	WORD	n/a	wordpools/wordpool_EN.txt	ARM	12	16	[0, 0, 0]	n/a	FR1	0	R1201P
2079.675	0.0	2245495	WORD_OFF	n/a	n/a	ARM	12	16	[0, 0, 0]	n/a	FR1	0	R1201P
2079.675	0.0	2245495	DISTRACT_START	n/a	n/a	n/a	-999	16	[0, 0, 0]	n/a	FR1	0	R1201P
2079.675	0.016	2245495	START	n/a	n/a	n/a	-999	16	[-999, -999, -999]	n/a	FR1	0	R1201P
2079.691	3.484	2245511	PROB	3.484	n/a	n/a	-999	16	[7, 3, 5]	15	FR1	0	R1201P
2083.175	3.568	2248994	PROB	3.568	n/a	n/a	-999	16	[4, 7, 7]	18	FR1	0	R1201P
2086.743	3.566	2252562	PROB	3.566	n/a	n/a	-999	16	[4, 3, 1]	8	FR1	0	R1201P
2090.309	2.835	2256128	PROB	2.835	n/a	n/a	-999	16	[4, 5, 1]	10	FR1	0	R1201P
2093.144	5.634	2258963	PROB	5.634	n/a	n/a	-999	16	[4, 4, 5]	13	FR1	0	R1201P
2098.778	2.849	2264597	PROB	2.849	n/a	n/a	-999	16	[2, 1, 1]	4	FR1	0	R1201P
2101.627	0.018	2267445	STOP	n/a	n/a	n/a	-999	16	[-999, -999, -999]	n/a	FR1	0	R1201P
2101.645	0.633	2267463	DISTRACT_END	n/a	n/a	n/a	-999	16	[0, 0, 0]	n/a	FR1	0	R1201P
2102.278	0.519	2268096	RETRIEVAL_ORIENT	n/a	n/a	n/a	-999	16	[0, 0, 0]	n/a	FR1	0	R1201P
2102.797	1.534	2268615	REC_START	n/a	n/a	n/a	-999	16	[0, 0, 0]	n/a	FR1	0	R1201P
2104.331	12.329	2270149	REC_WORD	12.329	n/a	ARM	12	16	[0, 0, 0]	n/a	FR1	0	R1201P
2116.66	16.147	2282478	REC_WORD	16.147	n/a	SHELL	-999	16	[0, 0, 0]	n/a	FR1	0	R1201P
2132.807	5.312	2298624	REC_END	n/a	n/a	n/a	-999	16	[0, 0, 0]	n/a	FR1	0	R1201P
2138.119	0.5	2303936	TRIAL	n/a	n/a	n/a	-999	17	[0, 0, 0]	n/a	FR1	0	R1201P
2138.619	10.428	2304436	COUNTDOWN_START	n/a	n/a	n/a	-999	17	[0, 0, 0]	n/a	FR1	0	R1201P
2149.047	0.007	2314863	COUNTDOWN_END	n/a	n/a	n/a	-999	17	[0, 0, 0]	n/a	FR1	0	R1201P
2149.054	1.617	2314870	ORIENT	n/a	n/a	n/a	-999	17	[0, 0, 0]	n/a	FR1	0	R1201P
2150.671	2.034	2316487	ORIENT_OFF	n/a	n/a	n/a	-999	17	[0, 0, 0]	n/a	FR1	0	R1201P
2152.705	1.616	2318521	WORD	n/a	wordpools/wordpool_EN.txt	FUDGE	1	17	[0, 0, 0]	n/a	FR1	0	R1201P
2154.321	0.818	2320137	WORD_OFF	n/a	n/a	FUDGE	1	17	[0, 0, 0]	n/a	FR1	0	R1201P
2155.139	1.617	2320955	WORD	n/a	wordpools/wordpool_EN.txt	MOLE	2	17	[0, 0, 0]	n/a	FR1	0	R1201P
2156.756	0.867	2322572	WORD_OFF	n/a	n/a	MOLE	2	17	[0, 0, 0]	n/a	FR1	0	R1201P
2157.623	1.616	2323439	WORD	n/a	wordpools/wordpool_EN.txt	SHELL	3	17	[0, 0, 0]	n/a	FR1	0	R1201P
2159.239	0.817	2325054	WORD_OFF	n/a	n/a	SHELL	3	17	[0, 0, 0]	n/a	FR1	0	R1201P
2160.056	1.617	2325871	WORD	n/a	wordpools/wordpool_EN.txt	SPONGE	4	17	[0, 0, 0]	n/a	FR1	0	R1201P
2161.673	0.883	2327488	WORD_OFF	n/a	n/a	SPONGE	4	17	[0, 0, 0]	n/a	FR1	0	R1201P
2162.556	1.618	2328371	WORD	n/a	wordpools/wordpool_EN.txt	SEAL	5	17	[0, 0, 0]	n/a	FR1	0	R1201P
2164.174	0.8	2329989	WORD_OFF	n/a	n/a	SEAL	5	17	[0, 0, 0]	n/a	FR1	0	R1201P
2164.974	1.616	2330789	WORD	n/a	wordpools/wordpool_EN.txt	WEB	6	17	[0, 0, 0]	n/a	FR1	0	R1201P
2166.59	0.817	2332405	WORD_OFF	n/a	n/a	WEB	6	17	[0, 0, 0]	n/a	FR1	0	R1201P
2167.407	1.618	2333222	WORD	n/a	wordpools/wordpool_EN.txt	SNAKE	7	17	[0, 0, 0]	n/a	FR1	0	R1201P
2169.025	0.917	2334840	WORD_OFF	n/a	n/a	SNAKE	7	17	[0, 0, 0]	n/a	FR1	0	R1201P
2169.942	1.616	2335757	WORD	n/a	wordpools/wordpool_EN.txt	ZOO	8	17	[0, 0, 0]	n/a	FR1	0	R1201P
2171.558	0.766	2337373	WORD_OFF	n/a	n/a	ZOO	8	17	[0, 0, 0]	n/a	FR1	0	R1201P
2172.324	1.602	2338139	WORD	n/a	wordpools/wordpool_EN.txt	FOOD	9	17	[0, 0, 0]	n/a	FR1	0	R1201P
2173.926	0.817	2339741	WORD_OFF	n/a	n/a	FOOD	9	17	[0, 0, 0]	n/a	FR1	0	R1201P
2174.743	1.615	2340558	WORD	n/a	wordpools/wordpool_EN.txt	MUD	10	17	[0, 0, 0]	n/a	FR1	0	R1201P
2176.358	0.802	2342173	WORD_OFF	n/a	n/a	MUD	10	17	[0, 0, 0]	n/a	FR1	0	R1201P
2177.16	1.617	2342975	WORD	n/a	wordpools/wordpool_EN.txt	WORM	11	17	[0, 0, 0]	n/a	FR1	0	R1201P
2178.777	0.85	2344592	WORD_OFF	n/a	n/a	WORM	11	17	[0, 0, 0]	n/a	FR1	0	R1201P
2179.627	1.616	2345441	WORD	n/a	wordpools/wordpool_EN.txt	CAVE	12	17	[0, 0, 0]	n/a	FR1	0	R1201P
2181.243	0.0	2347057	WORD_OFF	n/a	n/a	CAVE	12	17	[0, 0, 0]	n/a	FR1	0	R1201P
2181.243	0.001	2347057	DISTRACT_START	n/a	n/a	n/a	-999	17	[0, 0, 0]	n/a	FR1	0	R1201P
2181.244	0.015	2347058	START	n/a	n/a	n/a	-999	17	[-999, -999, -999]	n/a	FR1	0	R1201P
2181.259	5.085	2347073	PROB	5.085	n/a	n/a	-999	17	[1, 1, 3]	5	FR1	0	R1201P
2186.344	2.885	2352158	PROB	2.885	n/a	n/a	-999	17	[1, 4, 2]	7	FR1	0	R1201P
2189.229	3.634	2355043	PROB	3.634	n/a	n/a	-999	17	[4, 6, 2]	12	FR1	0	R1201P
2192.863	3.95	2358677	PROB	3.95	n/a	n/a	-999	17	[6, 3, 9]	18	FR1	0	R1201P
2196.813	3.968	2362627	PROB	3.968	n/a	n/a	-999	17	[9, 9, 3]	21	FR1	0	R1201P
2200.781	5.429	2366594	PROB	5.429	n/a	n/a	-999	17	[1, 4, 8]	13	FR1	0	R1201P
2206.21	0.021	2372023	STOP	n/a	n/a	n/a	-999	17	[-999, -999, -999]	n/a	FR1	0	R1201P
2206.231	0.618	2372044	DISTRACT_END	n/a	n/a	n/a	-999	17	[0, 0, 0]	n/a	FR1	0	R1201P
2206.849	0.516	2372662	RETRIEVAL_ORIENT	n/a	n/a	n/a	-999	17	[0, 0, 0]	n/a	FR1	0	R1201P
2207.365	1.728	2373178	REC_START	n/a	n/a	n/a	-999	17	[0, 0, 0]	n/a	FR1	0	R1201P
2209.093	1.541	2374906	REC_WORD	1.541	n/a	ZOO	8	17	[0, 0, 0]	n/a	FR1	0	R1201P
2210.634	1.965	2376447	REC_WORD	1.965	n/a	SNAKE	7	17	[0, 0, 0]	n/a	FR1	0	R1201P
2212.599	3.584	2378412	REC_WORD	3.584	n/a	MOLE	2	17	[0, 0, 0]	n/a	FR1	0	R1201P
2216.183	17.97	2381996	REC_WORD	17.97	n/a	CAVE	12	17	[0, 0, 0]	n/a	FR1	0	R1201P
2234.153	3.225	2399965	REC_WORD	3.225	n/a	ARM	-999	17	[0, 0, 0]	n/a	FR1	0	R1201P
2237.378	5.277	2403190	REC_END	n/a	n/a	n/a	-999	17	[0, 0, 0]	n/a	FR1	0	R1201P
2242.655	0.5	2408466	TRIAL	n/a	n/a	n/a	-999	18	[0, 0, 0]	n/a	FR1	0	R1201P
2243.155	10.428	2408966	COUNTDOWN_START	n/a	n/a	n/a	-999	18	[0, 0, 0]	n/a	FR1	0	R1201P
2253.583	0.007	2419394	COUNTDOWN_END	n/a	n/a	n/a	-999	18	[0, 0, 0]	n/a	FR1	0	R1201P
2253.59	1.618	2419401	ORIENT	n/a	n/a	n/a	-999	18	[0, 0, 0]	n/a	FR1	0	R1201P
2255.208	2.149	2421019	ORIENT_OFF	n/a	n/a	n/a	-999	18	[0, 0, 0]	n/a	FR1	0	R1201P
2257.357	1.618	2423168	WORD	n/a	wordpools/wordpool_EN.txt	MOUTH	1	18	[0, 0, 0]	n/a	FR1	0	R1201P
2258.975	0.867	2424785	WORD_OFF	n/a	n/a	MOUTH	1	18	[0, 0, 0]	n/a	FR1	0	R1201P
2259.842	1.616	2425652	WORD	n/a	wordpools/wordpool_EN.txt	WALL	2	18	[0, 0, 0]	n/a	FR1	0	R1201P
2261.458	0.9	2427268	WORD_OFF	n/a	n/a	WALL	2	18	[0, 0, 0]	n/a	FR1	0	R1201P
2262.358	1.618	2428168	WORD	n/a	wordpools/wordpool_EN.txt	LIP	3	18	[0, 0, 0]	n/a	FR1	0	R1201P
2263.976	0.95	2429786	WORD_OFF	n/a	n/a	LIP	3	18	[0, 0, 0]	n/a	FR1	0	R1201P
2264.926	1.616	2430736	WORD	n/a	wordpools/wordpool_EN.txt	TIE	4	18	[0, 0, 0]	n/a	FR1	0	R1201P
2266.542	0.967	2432352	WORD_OFF	n/a	n/a	TIE	4	18	[0, 0, 0]	n/a	FR1	0	R1201P
2267.509	1.601	2433319	WORD	n/a	wordpools/wordpool_EN.txt	LAMP	5	18	[0, 0, 0]	n/a	FR1	0	R1201P
2269.11	0.984	2434920	WORD_OFF	n/a	n/a	LAMP	5	18	[0, 0, 0]	n/a	FR1	0	R1201P
2270.094	1.617	2435904	WORD	n/a	wordpools/wordpool_EN.txt	PEA	6	18	[0, 0, 0]	n/a	FR1	0	R1201P
2271.711	0.95	2437521	WORD_OFF	n/a	n/a	PEA	6	18	[0, 0, 0]	n/a	FR1	0	R1201P
2272.661	1.616	2438471	WORD	n/a	wordpools/wordpool_EN.txt	TEA	7	18	[0, 0, 0]	n/a	FR1	0	R1201P
2274.277	1.0	2440087	WORD_OFF	n/a	n/a	TEA	7	18	[0, 0, 0]	n/a	FR1	0	R1201P
2275.277	1.618	2441087	WORD	n/a	wordpools/wordpool_EN.txt	DIME	8	18	[0, 0, 0]	n/a	FR1	0	R1201P
2276.895	0.967	2442705	WORD_OFF	n/a	n/a	DIME	8	18	[0, 0, 0]	n/a	FR1	0	R1201P
2277.862	1.616	2443671	WORD	n/a	wordpools/wordpool_EN.txt	FLOOR	9	18	[0, 0, 0]	n/a	FR1	0	R1201P
2279.478	0.9	2445287	WORD_OFF	n/a	n/a	FLOOR	9	18	[0, 0, 0]	n/a	FR1	0	R1201P
2280.378	1.618	2446187	WORD	n/a	wordpools/wordpool_EN.txt	TOE	10	18	[0, 0, 0]	n/a	FR1	0	R1201P
2281.996	0.834	2447805	WORD_OFF	n/a	n/a	TOE	10	18	[0, 0, 0]	n/a	FR1	0	R1201P
2282.83	1.615	2448639	WORD	n/a	wordpools/wordpool_EN.txt	RICE	11	18	[0, 0, 0]	n/a	FR1	0	R1201P
2284.445	0.917	2450254	WORD_OFF	n/a	n/a	RICE	11	18	[0, 0, 0]	n/a	FR1	0	R1201P
2285.362	1.601	2451171	WORD	n/a	wordpools/wordpool_EN.txt	COUCH	12	18	[0, 0, 0]	n/a	FR1	0	R1201P
2286.963	0.0	2452772	DISTRACT_START	n/a	n/a	n/a	-999	18	[0, 0, 0]	n/a	FR1	0	R1201P
2286.963	0.001	2452772	WORD_OFF	n/a	n/a	COUCH	12	18	[0, 0, 0]	n/a	FR1	0	R1201P
2286.964	0.016	2452773	START	n/a	n/a	n/a	-999	18	[-999, -999, -999]	n/a	FR1	0	R1201P
2286.98	7.635	2452789	PROB	7.635	n/a	n/a	-999	18	[2, 7, 6]	15	FR1	0	R1201P
2294.615	6.468	2460424	PROB	6.468	n/a	n/a	-999	18	[7, 1, 6]	14	FR1	0	R1201P
2301.083	3.45	2466891	PROB	3.45	n/a	n/a	-999	18	[7, 4, 3]	14	FR1	0	R1201P
2304.533	2.418	2470341	PROB	2.418	n/a	n/a	-999	18	[8, 1, 2]	11	FR1	0	R1201P
2306.951	4.426	2472759	PROB	4.426	n/a	n/a	-999	18	[8, 3, 5]	16	FR1	0	R1201P
2311.377	0.007	2477185	STOP	n/a	n/a	n/a	-999	18	[-999, -999, -999]	n/a	FR1	0	R1201P
2311.384	0.701	2477192	DISTRACT_END	n/a	n/a	n/a	-999	18	[0, 0, 0]	n/a	FR1	0	R1201P
2312.085	0.517	2477893	RETRIEVAL_ORIENT	n/a	n/a	n/a	-999	18	[0, 0, 0]	n/a	FR1	0	R1201P
2312.602	0.913	2478410	REC_START	n/a	n/a	n/a	-999	18	[0, 0, 0]	n/a	FR1	0	R1201P
2313.515	0.785	2479323	REC_WORD	0.785	n/a	MOUTH	1	18	[0, 0, 0]	n/a	FR1	0	R1201P
2314.3	1.274	2480108	REC_WORD	1.274	n/a	LIP	3	18	[0, 0, 0]	n/a	FR1	0	R1201P
2315.574	0.942	2481382	REC_WORD	0.942	n/a	WALL	2	18	[0, 0, 0]	n/a	FR1	0	R1201P
2316.516	1.054	2482324	REC_WORD	1.054	n/a	LAMP	5	18	[0, 0, 0]	n/a	FR1	0	R1201P
2317.57	5.944	2483377	REC_WORD	5.944	n/a	TIE	4	18	[0, 0, 0]	n/a	FR1	0	R1201P
2323.514	19.101	2489321	REC_WORD	19.101	n/a	FLOOR	9	18	[0, 0, 0]	n/a	FR1	0	R1201P
2342.615	5.093	2508421	REC_END	n/a	n/a	n/a	-999	18	[0, 0, 0]	n/a	FR1	0	R1201P
2347.708	0.5	2513514	TRIAL	n/a	n/a	n/a	-999	19	[0, 0, 0]	n/a	FR1	0	R1201P
2348.208	10.428	2514014	COUNTDOWN_START	n/a	n/a	n/a	-999	19	[0, 0, 0]	n/a	FR1	0	R1201P
2358.636	0.008	2524441	COUNTDOWN_END	n/a	n/a	n/a	-999	19	[0, 0, 0]	n/a	FR1	0	R1201P
2358.644	1.616	2524449	ORIENT	n/a	n/a	n/a	-999	19	[0, 0, 0]	n/a	FR1	0	R1201P
2360.26	2.1	2526065	ORIENT_OFF	n/a	n/a	n/a	-999	19	[0, 0, 0]	n/a	FR1	0	R1201P
2362.36	1.618	2528165	WORD	n/a	wordpools/wordpool_EN.txt	SEA	1	19	[0, 0, 0]	n/a	FR1	0	R1201P
2363.978	0.867	2529783	WORD_OFF	n/a	n/a	SEA	1	19	[0, 0, 0]	n/a	FR1	0	R1201P
2364.845	1.616	2530650	WORD	n/a	wordpools/wordpool_EN.txt	CALF	2	19	[0, 0, 0]	n/a	FR1	0	R1201P
2366.461	0.917	2532266	WORD_OFF	n/a	n/a	CALF	2	19	[0, 0, 0]	n/a	FR1	0	R1201P
2367.378	1.618	2533183	WORD	n/a	wordpools/wordpool_EN.txt	PRINCE	3	19	[0, 0, 0]	n/a	FR1	0	R1201P
2368.996	1.017	2534801	WORD_OFF	n/a	n/a	PRINCE	3	19	[0, 0, 0]	n/a	FR1	0	R1201P
2370.013	1.617	2535818	WORD	n/a	wordpools/wordpool_EN.txt	EEL	4	19	[0, 0, 0]	n/a	FR1	0	R1201P
2371.63	0.983	2537435	WORD_OFF	n/a	n/a	EEL	4	19	[0, 0, 0]	n/a	FR1	0	R1201P
2372.613	1.616	2538418	WORD	n/a	wordpools/wordpool_EN.txt	GOLD	5	19	[0, 0, 0]	n/a	FR1	0	R1201P
2374.229	0.885	2540034	WORD_OFF	n/a	n/a	GOLD	5	19	[0, 0, 0]	n/a	FR1	0	R1201P
2375.114	1.616	2540919	WORD	n/a	wordpools/wordpool_EN.txt	HORSE	6	19	[0, 0, 0]	n/a	FR1	0	R1201P
2376.73	0.783	2542534	WORD_OFF	n/a	n/a	HORSE	6	19	[0, 0, 0]	n/a	FR1	0	R1201P
2377.513	1.601	2543317	WORD	n/a	wordpools/wordpool_EN.txt	STEAK	7	19	[0, 0, 0]	n/a	FR1	0	R1201P
2379.114	0.984	2544918	WORD_OFF	n/a	n/a	STEAK	7	19	[0, 0, 0]	n/a	FR1	0	R1201P
2380.098	1.617	2545902	WORD	n/a	wordpools/wordpool_EN.txt	GEESE	8	19	[0, 0, 0]	n/a	FR1	0	R1201P
2381.715	0.766	2547519	WORD_OFF	n/a	n/a	GEESE	8	19	[0, 0, 0]	n/a	FR1	0	R1201P
2382.481	1.618	2548285	WORD	n/a	wordpools/wordpool_EN.txt	ROCK	9	19	[0, 0, 0]	n/a	FR1	0	R1201P
2384.099	0.95	2549903	WORD_OFF	n/a	n/a	ROCK	9	19	[0, 0, 0]	n/a	FR1	0	R1201P
2385.049	1.617	2550853	WORD	n/a	wordpools/wordpool_EN.txt	PIG	10	19	[0, 0, 0]	n/a	FR1	0	R1201P
2386.666	0.899	2552470	WORD_OFF	n/a	n/a	PIG	10	19	[0, 0, 0]	n/a	FR1	0	R1201P
2387.565	1.618	2553369	WORD	n/a	wordpools/wordpool_EN.txt	LAKE	11	19	[0, 0, 0]	n/a	FR1	0	R1201P
2389.183	1.017	2554987	WORD_OFF	n/a	n/a	LAKE	11	19	[0, 0, 0]	n/a	FR1	0	R1201P
2390.2	1.617	2556004	WORD	n/a	wordpools/wordpool_EN.txt	PARK	12	19	[0, 0, 0]	n/a	FR1	0	R1201P
2391.817	0.0	2557621	WORD_OFF	n/a	n/a	PARK	12	19	[0, 0, 0]	n/a	FR1	0	R1201P
2391.817	0.0	2557621	DISTRACT_START	n/a	n/a	n/a	-999	19	[0, 0, 0]	n/a	FR1	0	R1201P
2391.817	0.016	2557621	START	n/a	n/a	n/a	-999	19	[-999, -999, -999]	n/a	FR1	0	R1201P
2391.833	11.702	2557637	PROB	11.702	n/a	n/a	-999	19	[6, 5, 8]	19	FR1	0	R1201P
2403.535	5.834	2569338	PROB	5.834	n/a	n/a	-999	19	[4, 2, 2]	8	FR1	0	R1201P
2409.369	3.258	2575172	PROB	3.258	n/a	n/a	-999	19	[5, 3, 2]	10	FR1	0	R1201P
2412.627	0.01	2578430	STOP	n/a	n/a	n/a	-999	19	[-999, -999, -999]	n/a	FR1	0	R1201P
2412.637	0.584	2578440	DISTRACT_END	n/a	n/a	n/a	-999	19	[0, 0, 0]	n/a	FR1	0	R1201P
2413.221	0.517	2579024	RETRIEVAL_ORIENT	n/a	n/a	n/a	-999	19	[0, 0, 0]	n/a	FR1	0	R1201P
2413.738	2.496	2579541	REC_START	n/a	n/a	n/a	-999	19	[0, 0, 0]	n/a	FR1	0	R1201P
2416.234	2.39	2582036	REC_WORD	2.39	n/a	CALF	2	19	[0, 0, 0]	n/a	FR1	0	R1201P
2418.624	2.659	2584426	REC_WORD	2.659	n/a	SEA	1	19	[0, 0, 0]	n/a	FR1	0	R1201P
2421.283	4.851	2587085	REC_WORD	4.851	n/a	EEL	4	19	[0, 0, 0]	n/a	FR1	0	R1201P
2426.134	17.615	2591936	REC_WORD	17.615	n/a	STEAK	7	19	[0, 0, 0]	n/a	FR1	0	R1201P
2443.749	5.678	2609550	REC_END	n/a	n/a	n/a	-999	19	[0, 0, 0]	n/a	FR1	0	R1201P
2449.427	0.5	2615228	TRIAL	n/a	n/a	n/a	-999	20	[0, 0, 0]	n/a	FR1	0	R1201P
2449.927	10.428	2615728	COUNTDOWN_START	n/a	n/a	n/a	-999	20	[0, 0, 0]	n/a	FR1	0	R1201P
2460.355	0.007	2626155	COUNTDOWN_END	n/a	n/a	n/a	-999	20	[0, 0, 0]	n/a	FR1	0	R1201P
2460.362	1.618	2626162	ORIENT	n/a	n/a	n/a	-999	20	[0, 0, 0]	n/a	FR1	0	R1201P
2461.98	1.85	2627780	ORIENT_OFF	n/a	n/a	n/a	-999	20	[0, 0, 0]	n/a	FR1	0	R1201P
2463.83	1.616	2629630	WORD	n/a	wordpools/wordpool_EN.txt	FOX	1	20	[0, 0, 0]	n/a	FR1	0	R1201P
2465.446	0.934	2631246	WORD_OFF	n/a	n/a	FOX	1	20	[0, 0, 0]	n/a	FR1	0	R1201P
2466.38	1.618	2632180	WORD	n/a	wordpools/wordpool_EN.txt	BEAR	2	20	[0, 0, 0]	n/a	FR1	0	R1201P
2467.998	0.766	2633798	WORD_OFF	n/a	n/a	BEAR	2	20	[0, 0, 0]	n/a	FR1	0	R1201P
2468.764	1.616	2634564	WORD	n/a	wordpools/wordpool_EN.txt	MOUSE	3	20	[0, 0, 0]	n/a	FR1	0	R1201P
2470.38	0.851	2636180	WORD_OFF	n/a	n/a	MOUSE	3	20	[0, 0, 0]	n/a	FR1	0	R1201P
2471.231	1.618	2637031	WORD	n/a	wordpools/wordpool_EN.txt	SKUNK	4	20	[0, 0, 0]	n/a	FR1	0	R1201P
2472.849	0.85	2638649	WORD_OFF	n/a	n/a	SKUNK	4	20	[0, 0, 0]	n/a	FR1	0	R1201P
2473.699	1.616	2639499	WORD	n/a	wordpools/wordpool_EN.txt	HEN	5	20	[0, 0, 0]	n/a	FR1	0	R1201P
2475.315	0.917	2641114	WORD_OFF	n/a	n/a	HEN	5	20	[0, 0, 0]	n/a	FR1	0	R1201P
2476.232	1.618	2642031	WORD	n/a	wordpools/wordpool_EN.txt	KITE	6	20	[0, 0, 0]	n/a	FR1	0	R1201P
2477.85	0.766	2643649	WORD_OFF	n/a	n/a	KITE	6	20	[0, 0, 0]	n/a	FR1	0	R1201P
2478.616	1.616	2644415	WORD	n/a	wordpools/wordpool_EN.txt	WOLF	7	20	[0, 0, 0]	n/a	FR1	0	R1201P
2480.232	0.835	2646031	WORD_OFF	n/a	n/a	WOLF	7	20	[0, 0, 0]	n/a	FR1	0	R1201P
2481.067	1.617	2646866	WORD	n/a	wordpools/wordpool_EN.txt	BOY	8	20	[0, 0, 0]	n/a	FR1	0	R1201P
2482.684	0.766	2648483	WORD_OFF	n/a	n/a	BOY	8	20	[0, 0, 0]	n/a	FR1	0	R1201P
2483.45	1.618	2649249	WORD	n/a	wordpools/wordpool_EN.txt	BEAN	9	20	[0, 0, 0]	n/a	FR1	0	R1201P
2485.068	1.0	2650867	WORD_OFF	n/a	n/a	BEAN	9	20	[0, 0, 0]	n/a	FR1	0	R1201P
2486.068	1.617	2651867	WORD	n/a	wordpools/wordpool_EN.txt	LAMB	10	20	[0, 0, 0]	n/a	FR1	0	R1201P
2487.685	0.882	2653484	WORD_OFF	n/a	n/a	LAMB	10	20	[0, 0, 0]	n/a	FR1	0	R1201P
2488.567	1.601	2654366	WORD	n/a	wordpools/wordpool_EN.txt	BIRD	11	20	[0, 0, 0]	n/a	FR1	0	R1201P
2490.168	1.001	2655967	WORD_OFF	n/a	n/a	BIRD	11	20	[0, 0, 0]	n/a	FR1	0	R1201P
2491.169	1.617	2656968	WORD	n/a	wordpools/wordpool_EN.txt	TAIL	12	20	[0, 0, 0]	n/a	FR1	0	R1201P
2492.786	0.0	2658585	WORD_OFF	n/a	n/a	TAIL	12	20	[0, 0, 0]	n/a	FR1	0	R1201P
2492.786	0.0	2658585	DISTRACT_START	n/a	n/a	n/a	-999	20	[0, 0, 0]	n/a	FR1	0	R1201P
2492.786	0.016	2658585	START	n/a	n/a	n/a	-999	20	[-999, -999, -999]	n/a	FR1	0	R1201P
2492.802	3.767	2658601	PROB	3.767	n/a	n/a	-999	20	[6, 5, 6]	17	FR1	0	R1201P
2496.569	4.667	2662367	PROB	4.667	n/a	n/a	-999	20	[7, 5, 1]	13	FR1	0	R1201P
2501.236	4.184	2667034	PROB	4.184	n/a	n/a	-999	20	[9, 9, 7]	25	FR1	0	R1201P
2505.42	6.035	2671218	PROB	6.035	n/a	n/a	-999	20	[1, 6, 7]	14	FR1	0	R1201P
2511.455	4.019	2677253	PROB	4.019	n/a	n/a	-999	20	[9, 5, 9]	25	FR1	0	R1201P
2515.474	0.015	2681271	STOP	n/a	n/a	n/a	-999	20	[-999, -999, -999]	n/a	FR1	0	R1201P
2515.489	0.651	2681286	DISTRACT_END	n/a	n/a	n/a	-999	20	[0, 0, 0]	n/a	FR1	0	R1201P
2516.14	0.518	2681937	RETRIEVAL_ORIENT	n/a	n/a	n/a	-999	20	[0, 0, 0]	n/a	FR1	0	R1201P
2516.658	1.129	2682455	REC_START	n/a	n/a	n/a	-999	20	[0, 0, 0]	n/a	FR1	0	R1201P
2517.787	0.99	2683584	REC_WORD	0.99	n/a	FOX	1	20	[0, 0, 0]	n/a	FR1	0	R1201P
2518.777	0.205	2684574	REC_WORD_VV	0.205	n/a	<>	-999	20	[0, 0, 0]	n/a	FR1	0	R1201P
2518.982	1.222	2684779	REC_WORD	1.222	n/a	BEAR	2	20	[0, 0, 0]	n/a	FR1	0	R1201P
2520.204	0.13	2686001	REC_WORD_VV	0.13	n/a	<>	-999	20	[0, 0, 0]	n/a	FR1	0	R1201P
2520.334	1.634	2686131	REC_WORD	1.634	n/a	HEN	5	20	[0, 0, 0]	n/a	FR1	0	R1201P
2521.968	3.114	2687765	REC_WORD	3.114	n/a	SKUNK	4	20	[0, 0, 0]	n/a	FR1	0	R1201P
2525.082	0.473	2690879	REC_WORD	0.473	n/a	BOY	8	20	[0, 0, 0]	n/a	FR1	0	R1201P
2525.555	8.838	2691352	REC_WORD	8.838	n/a	KITE	6	20	[0, 0, 0]	n/a	FR1	0	R1201P
2534.393	12.277	2700189	REC_WORD	12.277	n/a	WINE	-999	20	[0, 0, 0]	n/a	FR1	0	R1201P
2546.67	5.143	2712466	REC_END	n/a	n/a	n/a	-999	20	[0, 0, 0]	n/a	FR1	0	R1201P
2551.813	0.5	2717609	TRIAL	n/a	n/a	n/a	-999	21	[0, 0, 0]	n/a	FR1	0	R1201P
2552.313	10.428	2718109	COUNTDOWN_START	n/a	n/a	n/a	-999	21	[0, 0, 0]	n/a	FR1	0	R1201P
2562.741	0.008	2728536	COUNTDOWN_END	n/a	n/a	n/a	-999	21	[0, 0, 0]	n/a	FR1	0	R1201P
2562.749	1.616	2728544	ORIENT	n/a	n/a	n/a	-999	21	[0, 0, 0]	n/a	FR1	0	R1201P
2564.365	2.217	2730160	ORIENT_OFF	n/a	n/a	n/a	-999	21	[0, 0, 0]	n/a	FR1	0	R1201P
2566.582	1.601	2732377	WORD	n/a	wordpools/wordpool_EN.txt	JAR	1	21	[0, 0, 0]	n/a	FR1	0	R1201P
2568.183	0.934	2733978	WORD_OFF	n/a	n/a	JAR	1	21	[0, 0, 0]	n/a	FR1	0	R1201P
2569.117	1.617	2734912	WORD	n/a	wordpools/wordpool_EN.txt	FLEA	2	21	[0, 0, 0]	n/a	FR1	0	R1201P
2570.734	0.967	2736529	WORD_OFF	n/a	n/a	FLEA	2	21	[0, 0, 0]	n/a	FR1	0	R1201P
2571.701	1.615	2737496	WORD	n/a	wordpools/wordpool_EN.txt	PURSE	3	21	[0, 0, 0]	n/a	FR1	0	R1201P
2573.316	0.868	2739110	WORD_OFF	n/a	n/a	PURSE	3	21	[0, 0, 0]	n/a	FR1	0	R1201P
2574.184	1.617	2739978	WORD	n/a	wordpools/wordpool_EN.txt	COIN	4	21	[0, 0, 0]	n/a	FR1	0	R1201P
2575.801	0.766	2741595	WORD_OFF	n/a	n/a	COIN	4	21	[0, 0, 0]	n/a	FR1	0	R1201P
2576.567	1.618	2742361	WORD	n/a	wordpools/wordpool_EN.txt	THUMB	5	21	[0, 0, 0]	n/a	FR1	0	R1201P
2578.185	0.917	2743979	WORD_OFF	n/a	n/a	THUMB	5	21	[0, 0, 0]	n/a	FR1	0	R1201P
2579.102	1.617	2744896	WORD	n/a	wordpools/wordpool_EN.txt	STORE	6	21	[0, 0, 0]	n/a	FR1	0	R1201P
2580.719	0.9	2746513	WORD_OFF	n/a	n/a	STORE	6	21	[0, 0, 0]	n/a	FR1	0	R1201P
2581.619	1.616	2747413	WORD	n/a	wordpools/wordpool_EN.txt	SHIRT	7	21	[0, 0, 0]	n/a	FR1	0	R1201P
2583.235	0.801	2749029	WORD_OFF	n/a	n/a	SHIRT	7	21	[0, 0, 0]	n/a	FR1	0	R1201P
2584.036	1.617	2749830	WORD	n/a	wordpools/wordpool_EN.txt	STEM	8	21	[0, 0, 0]	n/a	FR1	0	R1201P
2585.653	0.783	2751447	WORD_OFF	n/a	n/a	STEM	8	21	[0, 0, 0]	n/a	FR1	0	R1201P
2586.436	1.618	2752230	WORD	n/a	wordpools/wordpool_EN.txt	STREET	9	21	[0, 0, 0]	n/a	FR1	0	R1201P
2588.054	0.816	2753848	WORD_OFF	n/a	n/a	STREET	9	21	[0, 0, 0]	n/a	FR1	0	R1201P
2588.87	1.616	2754664	WORD	n/a	wordpools/wordpool_EN.txt	SEED	10	21	[0, 0, 0]	n/a	FR1	0	R1201P
2590.486	0.917	2756280	WORD_OFF	n/a	n/a	SEED	10	21	[0, 0, 0]	n/a	FR1	0	R1201P
2591.403	1.618	2757197	WORD	n/a	wordpools/wordpool_EN.txt	GLASS	11	21	[0, 0, 0]	n/a	FR1	0	R1201P
2593.021	0.917	2758814	WORD_OFF	n/a	n/a	GLASS	11	21	[0, 0, 0]	n/a	FR1	0	R1201P
2593.938	1.616	2759731	WORD	n/a	wordpools/wordpool_EN.txt	BEAK	12	21	[0, 0, 0]	n/a	FR1	0	R1201P
2595.554	0.0	2761347	WORD_OFF	n/a	n/a	BEAK	12	21	[0, 0, 0]	n/a	FR1	0	R1201P
2595.554	0.001	2761347	DISTRACT_START	n/a	n/a	n/a	-999	21	[0, 0, 0]	n/a	FR1	0	R1201P
2595.555	0.016	2761348	START	n/a	n/a	n/a	-999	21	[-999, -999, -999]	n/a	FR1	0	R1201P
2595.571	3.485	2761364	PROB	3.485	n/a	n/a	-999	21	[1, 1, 9]	11	FR1	0	R1201P
2599.056	4.651	2764849	PROB	4.651	n/a	n/a	-999	21	[6, 1, 1]	8	FR1	0	R1201P
2603.707	3.133	2769500	PROB	3.133	n/a	n/a	-999	21	[8, 2, 8]	18	FR1	0	R1201P
2606.84	3.567	2772633	PROB	3.567	n/a	n/a	-999	21	[3, 7, 6]	16	FR1	0	R1201P
2610.407	5.427	2776200	PROB	5.427	n/a	n/a	-999	21	[9, 2, 7]	18	FR1	0	R1201P
2615.834	0.008	2781626	STOP	n/a	n/a	n/a	-999	21	[-999, -999, -999]	n/a	FR1	0	R1201P
2615.842	0.533	2781634	DISTRACT_END	n/a	n/a	n/a	-999	21	[0, 0, 0]	n/a	FR1	0	R1201P
2616.375	0.518	2782167	RETRIEVAL_ORIENT	n/a	n/a	n/a	-999	21	[0, 0, 0]	n/a	FR1	0	R1201P
2616.893	2.843	2782685	REC_START	n/a	n/a	n/a	-999	21	[0, 0, 0]	n/a	FR1	0	R1201P
2619.736	27.167	2785528	REC_WORD	27.167	n/a	SHIRT	7	21	[0, 0, 0]	n/a	FR1	0	R1201P
2646.903	11.696	2812694	REC_END	n/a	n/a	n/a	-999	21	[0, 0, 0]	n/a	FR1	0	R1201P
2658.599	0.5	2824389	TRIAL	n/a	n/a	n/a	-999	22	[0, 0, 0]	n/a	FR1	0	R1201P
2659.099	10.428	2824889	COUNTDOWN_START	n/a	n/a	n/a	-999	22	[0, 0, 0]	n/a	FR1	0	R1201P
2669.527	0.008	2835317	COUNTDOWN_END	n/a	n/a	n/a	-999	22	[0, 0, 0]	n/a	FR1	0	R1201P
2669.535	1.618	2835325	ORIENT	n/a	n/a	n/a	-999	22	[0, 0, 0]	n/a	FR1	0	R1201P
2671.153	2.182	2836943	ORIENT_OFF	n/a	n/a	n/a	-999	22	[0, 0, 0]	n/a	FR1	0	R1201P
2673.335	1.601	2839124	WORD	n/a	wordpools/wordpool_EN.txt	CLAY	1	22	[0, 0, 0]	n/a	FR1	0	R1201P
2674.936	0.917	2840725	WORD_OFF	n/a	n/a	CLAY	1	22	[0, 0, 0]	n/a	FR1	0	R1201P
2675.853	1.616	2841642	WORD	n/a	wordpools/wordpool_EN.txt	STRAW	2	22	[0, 0, 0]	n/a	FR1	0	R1201P
2677.469	0.834	2843258	WORD_OFF	n/a	n/a	STRAW	2	22	[0, 0, 0]	n/a	FR1	0	R1201P
2678.303	1.618	2844092	WORD	n/a	wordpools/wordpool_EN.txt	SALT	3	22	[0, 0, 0]	n/a	FR1	0	R1201P
2679.921	0.817	2845710	WORD_OFF	n/a	n/a	SALT	3	22	[0, 0, 0]	n/a	FR1	0	R1201P
2680.738	1.616	2846527	WORD	n/a	wordpools/wordpool_EN.txt	CANE	4	22	[0, 0, 0]	n/a	FR1	0	R1201P
2682.354	0.834	2848143	WORD_OFF	n/a	n/a	CANE	4	22	[0, 0, 0]	n/a	FR1	0	R1201P
2683.188	1.617	2848977	WORD	n/a	wordpools/wordpool_EN.txt	GOAT	5	22	[0, 0, 0]	n/a	FR1	0	R1201P
2684.805	0.884	2850594	WORD_OFF	n/a	n/a	GOAT	5	22	[0, 0, 0]	n/a	FR1	0	R1201P
2685.689	1.616	2851478	WORD	n/a	wordpools/wordpool_EN.txt	CAKE	6	22	[0, 0, 0]	n/a	FR1	0	R1201P
2687.305	0.933	2853094	WORD_OFF	n/a	n/a	CAKE	6	22	[0, 0, 0]	n/a	FR1	0	R1201P
2688.238	1.601	2854027	WORD	n/a	wordpools/wordpool_EN.txt	MOOSE	7	22	[0, 0, 0]	n/a	FR1	0	R1201P
2689.839	0.917	2855628	WORD_OFF	n/a	n/a	MOOSE	7	22	[0, 0, 0]	n/a	FR1	0	R1201P
2690.756	1.616	2856545	WORD	n/a	wordpools/wordpool_EN.txt	STONE	8	22	[0, 0, 0]	n/a	FR1	0	R1201P
2692.372	0.967	2858160	WORD_OFF	n/a	n/a	STONE	8	22	[0, 0, 0]	n/a	FR1	0	R1201P
2693.339	1.618	2859127	WORD	n/a	wordpools/wordpool_EN.txt	SOAP	9	22	[0, 0, 0]	n/a	FR1	0	R1201P
2694.957	0.767	2860745	WORD_OFF	n/a	n/a	SOAP	9	22	[0, 0, 0]	n/a	FR1	0	R1201P
2695.724	1.616	2861512	WORD	n/a	wordpools/wordpool_EN.txt	PEACH	10	22	[0, 0, 0]	n/a	FR1	0	R1201P
2697.34	0.933	2863128	WORD_OFF	n/a	n/a	PEACH	10	22	[0, 0, 0]	n/a	FR1	0	R1201P
2698.273	1.618	2864061	WORD	n/a	wordpools/wordpool_EN.txt	CHIN	11	22	[0, 0, 0]	n/a	FR1	0	R1201P
2699.891	1.017	2865679	WORD_OFF	n/a	n/a	CHIN	11	22	[0, 0, 0]	n/a	FR1	0	R1201P
2700.908	1.616	2866696	WORD	n/a	wordpools/wordpool_EN.txt	SOUP	12	22	[0, 0, 0]	n/a	FR1	0	R1201P
2702.524	0.0	2868312	WORD_OFF	n/a	n/a	SOUP	12	22	[0, 0, 0]	n/a	FR1	0	R1201P
2702.524	0.001	2868312	DISTRACT_START	n/a	n/a	n/a	-999	22	[0, 0, 0]	n/a	FR1	0	R1201P
2702.525	0.016	2868313	START	n/a	n/a	n/a	-999	22	[-999, -999, -999]	n/a	FR1	0	R1201P
2702.541	3.135	2868329	PROB	3.135	n/a	n/a	-999	22	[2, 3, 2]	7	FR1	0	R1201P
2705.676	4.883	2871464	PROB	4.883	n/a	n/a	-999	22	[4, 2, 8]	14	FR1	0	R1201P
2710.559	2.335	2876347	PROB	2.335	n/a	n/a	-999	22	[6, 1, 6]	13	FR1	0	R1201P
2712.894	3.784	2878681	PROB	3.784	n/a	n/a	-999	22	[2, 1, 7]	10	FR1	0	R1201P
2716.678	6.517	2882465	PROB	6.517	n/a	n/a	-999	22	[3, 9, 3]	15	FR1	0	R1201P
2723.195	0.017	2888982	STOP	n/a	n/a	n/a	-999	22	[-999, -999, -999]	n/a	FR1	0	R1201P
2723.212	0.534	2888999	DISTRACT_END	n/a	n/a	n/a	-999	22	[0, 0, 0]	n/a	FR1	0	R1201P
2723.746	0.516	2889533	RETRIEVAL_ORIENT	n/a	n/a	n/a	-999	22	[0, 0, 0]	n/a	FR1	0	R1201P
2724.262	14.912	2890049	REC_START	n/a	n/a	n/a	-999	22	[0, 0, 0]	n/a	FR1	0	R1201P
2739.174	0.479	2904960	REC_WORD	0.479	n/a	COW	-999	22	[0, 0, 0]	n/a	FR1	0	R1201P
2739.653	8.26	2905439	REC_WORD	8.26	n/a	GOAT	5	22	[0, 0, 0]	n/a	FR1	0	R1201P
2747.913	6.361	2913699	REC_WORD	6.361	n/a	STONE	8	22	[0, 0, 0]	n/a	FR1	0	R1201P
2754.274	5.529	2920059	REC_END	n/a	n/a	n/a	-999	22	[0, 0, 0]	n/a	FR1	0	R1201P
2759.803	0.5	2925588	TRIAL	n/a	n/a	n/a	-999	23	[0, 0, 0]	n/a	FR1	0	R1201P
2760.303	10.428	2926088	COUNTDOWN_START	n/a	n/a	n/a	-999	23	[0, 0, 0]	n/a	FR1	0	R1201P
2770.731	0.007	2936515	COUNTDOWN_END	n/a	n/a	n/a	-999	23	[0, 0, 0]	n/a	FR1	0	R1201P
2770.738	1.616	2936522	ORIENT	n/a	n/a	n/a	-999	23	[0, 0, 0]	n/a	FR1	0	R1201P
2772.354	2.25	2938138	ORIENT_OFF	n/a	n/a	n/a	-999	23	[0, 0, 0]	n/a	FR1	0	R1201P
2774.604	1.618	2940388	WORD	n/a	wordpools/wordpool_EN.txt	TRASH	1	23	[0, 0, 0]	n/a	FR1	0	R1201P
2776.222	0.8	2942006	WORD_OFF	n/a	n/a	TRASH	1	23	[0, 0, 0]	n/a	FR1	0	R1201P
2777.022	1.617	2942806	WORD	n/a	wordpools/wordpool_EN.txt	JAIL	2	23	[0, 0, 0]	n/a	FR1	0	R1201P
2778.639	0.966	2944423	WORD_OFF	n/a	n/a	JAIL	2	23	[0, 0, 0]	n/a	FR1	0	R1201P
2779.605	1.618	2945389	WORD	n/a	wordpools/wordpool_EN.txt	SKI	3	23	[0, 0, 0]	n/a	FR1	0	R1201P
2781.223	0.917	2947007	WORD_OFF	n/a	n/a	SKI	3	23	[0, 0, 0]	n/a	FR1	0	R1201P
2782.14	1.617	2947924	WORD	n/a	wordpools/wordpool_EN.txt	BREAD	4	23	[0, 0, 0]	n/a	FR1	0	R1201P
2783.757	0.9	2949541	WORD_OFF	n/a	n/a	BREAD	4	23	[0, 0, 0]	n/a	FR1	0	R1201P
2784.657	1.616	2950441	WORD	n/a	wordpools/wordpool_EN.txt	DOG	5	23	[0, 0, 0]	n/a	FR1	0	R1201P
2786.273	1.0	2952057	WORD_OFF	n/a	n/a	DOG	5	23	[0, 0, 0]	n/a	FR1	0	R1201P
2787.273	1.618	2953057	WORD	n/a	wordpools/wordpool_EN.txt	CAT	6	23	[0, 0, 0]	n/a	FR1	0	R1201P
2788.891	1.001	2954675	WORD_OFF	n/a	n/a	CAT	6	23	[0, 0, 0]	n/a	FR1	0	R1201P
2789.892	1.616	2955675	WORD	n/a	wordpools/wordpool_EN.txt	SLUSH	7	23	[0, 0, 0]	n/a	FR1	0	R1201P
2791.508	0.816	2957291	WORD_OFF	n/a	n/a	SLUSH	7	23	[0, 0, 0]	n/a	FR1	0	R1201P
2792.324	1.618	2958107	WORD	n/a	wordpools/wordpool_EN.txt	PLANT	8	23	[0, 0, 0]	n/a	FR1	0	R1201P
2793.942	0.967	2959725	WORD_OFF	n/a	n/a	PLANT	8	23	[0, 0, 0]	n/a	FR1	0	R1201P
2794.909	1.616	2960692	WORD	n/a	wordpools/wordpool_EN.txt	LAND	9	23	[0, 0, 0]	n/a	FR1	0	R1201P
2796.525	0.967	2962308	WORD_OFF	n/a	n/a	LAND	9	23	[0, 0, 0]	n/a	FR1	0	R1201P
2797.492	1.618	2963275	WORD	n/a	wordpools/wordpool_EN.txt	CORN	10	23	[0, 0, 0]	n/a	FR1	0	R1201P
2799.11	0.767	2964893	WORD_OFF	n/a	n/a	CORN	10	23	[0, 0, 0]	n/a	FR1	0	R1201P
2799.877	1.616	2965660	WORD	n/a	wordpools/wordpool_EN.txt	BAND	11	23	[0, 0, 0]	n/a	FR1	0	R1201P
2801.493	1.0	2967276	WORD_OFF	n/a	n/a	BAND	11	23	[0, 0, 0]	n/a	FR1	0	R1201P
2802.493	1.618	2968276	WORD	n/a	wordpools/wordpool_EN.txt	MAP	12	23	[0, 0, 0]	n/a	FR1	0	R1201P
2804.111	0.0	2969894	WORD_OFF	n/a	n/a	MAP	12	23	[0, 0, 0]	n/a	FR1	0	R1201P
2804.111	0.0	2969894	DISTRACT_START	n/a	n/a	n/a	-999	23	[0, 0, 0]	n/a	FR1	0	R1201P
2804.111	0.017	2969894	START	n/a	n/a	n/a	-999	23	[-999, -999, -999]	n/a	FR1	0	R1201P
2804.128	6.601	2969911	PROB	6.601	n/a	n/a	-999	23	[6, 8, 9]	23	FR1	0	R1201P
2810.729	2.967	2976511	PROB	2.967	n/a	n/a	-999	23	[3, 1, 3]	7	FR1	0	R1201P
2813.696	6.318	2979478	PROB	6.318	n/a	n/a	-999	23	[3, 4, 3]	10	FR1	0	R1201P
2820.014	2.65	2985796	PROB	2.65	n/a	n/a	-999	23	[4, 7, 1]	12	FR1	0	R1201P
2822.664	2.874	2988446	PROB	2.874	n/a	n/a	-999	23	[5, 7, 4]	16	FR1	0	R1201P
2825.538	0.009	2991320	STOP	n/a	n/a	n/a	-999	23	[-999, -999, -999]	n/a	FR1	0	R1201P
2825.547	0.634	2991329	DISTRACT_END	n/a	n/a	n/a	-999	23	[0, 0, 0]	n/a	FR1	0	R1201P
2826.181	0.518	2991963	RETRIEVAL_ORIENT	n/a	n/a	n/a	-999	23	[0, 0, 0]	n/a	FR1	0	R1201P
2826.699	3.906	2992481	REC_START	n/a	n/a	n/a	-999	23	[0, 0, 0]	n/a	FR1	0	R1201P
2830.605	5.634	2996386	REC_WORD	5.634	n/a	CAT	6	23	[0, 0, 0]	n/a	FR1	0	R1201P
2836.239	0.534	3002020	REC_WORD	0.534	n/a	PLANT	8	23	[0, 0, 0]	n/a	FR1	0	R1201P
2836.773	13.497	3002554	REC_WORD	13.497	n/a	CORN	10	23	[0, 0, 0]	n/a	FR1	0	R1201P
2850.27	6.441	3016050	REC_WORD	6.441	n/a	RAT	-999	23	[0, 0, 0]	n/a	FR1	0	R1201P
2856.711	5.477	3022491	REC_END	n/a	n/a	n/a	-999	23	[0, 0, 0]	n/a	FR1	0	R1201P
2862.188	0.5	3027968	TRIAL	n/a	n/a	n/a	-999	24	[0, 0, 0]	n/a	FR1	0	R1201P
2862.688	10.428	3028468	COUNTDOWN_START	n/a	n/a	n/a	-999	24	[0, 0, 0]	n/a	FR1	0	R1201P
2873.116	0.008	3038895	COUNTDOWN_END	n/a	n/a	n/a	-999	24	[0, 0, 0]	n/a	FR1	0	R1201P
2873.124	1.617	3038903	ORIENT	n/a	n/a	n/a	-999	24	[0, 0, 0]	n/a	FR1	0	R1201P
2874.741	2.183	3040520	ORIENT_OFF	n/a	n/a	n/a	-999	24	[0, 0, 0]	n/a	FR1	0	R1201P
2876.924	1.617	3042703	WORD	n/a	wordpools/wordpool_EN.txt	SHRIMP	1	24	[0, 0, 0]	n/a	FR1	0	R1201P
2878.541	0.883	3044320	WORD_OFF	n/a	n/a	SHRIMP	1	24	[0, 0, 0]	n/a	FR1	0	R1201P
2879.424	1.618	3045203	WORD	n/a	wordpools/wordpool_EN.txt	FOAM	2	24	[0, 0, 0]	n/a	FR1	0	R1201P
2881.042	0.883	3046821	WORD_OFF	n/a	n/a	FOAM	2	24	[0, 0, 0]	n/a	FR1	0	R1201P
2881.925	1.617	3047704	WORD	n/a	wordpools/wordpool_EN.txt	SAIL	3	24	[0, 0, 0]	n/a	FR1	0	R1201P
2883.542	0.816	3049321	WORD_OFF	n/a	n/a	SAIL	3	24	[0, 0, 0]	n/a	FR1	0	R1201P
2884.358	1.601	3050137	WORD	n/a	wordpools/wordpool_EN.txt	DART	4	24	[0, 0, 0]	n/a	FR1	0	R1201P
2885.959	0.951	3051738	WORD_OFF	n/a	n/a	DART	4	24	[0, 0, 0]	n/a	FR1	0	R1201P
2886.91	1.616	3052689	WORD	n/a	wordpools/wordpool_EN.txt	SUN	5	24	[0, 0, 0]	n/a	FR1	0	R1201P
2888.526	0.817	3054304	WORD_OFF	n/a	n/a	SUN	5	24	[0, 0, 0]	n/a	FR1	0	R1201P
2889.343	1.618	3055121	WORD	n/a	wordpools/wordpool_EN.txt	SKY	6	24	[0, 0, 0]	n/a	FR1	0	R1201P
2890.961	0.766	3056739	WORD_OFF	n/a	n/a	SKY	6	24	[0, 0, 0]	n/a	FR1	0	R1201P
2891.727	1.616	3057505	WORD	n/a	wordpools/wordpool_EN.txt	TANK	7	24	[0, 0, 0]	n/a	FR1	0	R1201P
2893.343	0.851	3059121	WORD_OFF	n/a	n/a	TANK	7	24	[0, 0, 0]	n/a	FR1	0	R1201P
2894.194	1.617	3059972	WORD	n/a	wordpools/wordpool_EN.txt	BOAT	8	24	[0, 0, 0]	n/a	FR1	0	R1201P
2895.811	0.783	3061589	WORD_OFF	n/a	n/a	BOAT	8	24	[0, 0, 0]	n/a	FR1	0	R1201P
2896.594	1.618	3062372	WORD	n/a	wordpools/wordpool_EN.txt	FLAG	9	24	[0, 0, 0]	n/a	FR1	0	R1201P
2898.212	0.967	3063990	WORD_OFF	n/a	n/a	FLAG	9	24	[0, 0, 0]	n/a	FR1	0	R1201P
2899.179	1.617	3064957	WORD	n/a	wordpools/wordpool_EN.txt	FISH	10	24	[0, 0, 0]	n/a	FR1	0	R1201P
2900.796	0.833	3066574	WORD_OFF	n/a	n/a	FISH	10	24	[0, 0, 0]	n/a	FR1	0	R1201P
2901.629	1.616	3067407	WORD	n/a	wordpools/wordpool_EN.txt	WING	11	24	[0, 0, 0]	n/a	FR1	0	R1201P
2903.245	0.951	3069023	WORD_OFF	n/a	n/a	WING	11	24	[0, 0, 0]	n/a	FR1	0	R1201P
2904.196	1.617	3069974	WORD	n/a	wordpools/wordpool_EN.txt	BEACH	12	24	[0, 0, 0]	n/a	FR1	0	R1201P
2905.813	0.0	3071591	DISTRACT_START	n/a	n/a	n/a	-999	24	[0, 0, 0]	n/a	FR1	0	R1201P
2905.813	0.001	3071591	WORD_OFF	n/a	n/a	BEACH	12	24	[0, 0, 0]	n/a	FR1	0	R1201P
2905.814	0.016	3071592	START	n/a	n/a	n/a	-999	24	[-999, -999, -999]	n/a	FR1	0	R1201P
2905.83	3.801	3071608	PROB	3.801	n/a	n/a	-999	24	[1, 9, 8]	18	FR1	0	R1201P
2909.631	4.25	3075408	PROB	4.25	n/a	n/a	-999	24	[8, 5, 1]	14	FR1	0	R1201P
2913.881	3.268	3079658	PROB	3.268	n/a	n/a	-999	24	[4, 6, 2]	12	FR1	0	R1201P
2917.149	2.85	3082926	PROB	2.85	n/a	n/a	-999	24	[7, 3, 7]	17	FR1	0	R1201P
2919.999	6.131	3085776	PROB	6.131	n/a	n/a	-999	24	[6, 2, 5]	13	FR1	0	R1201P
2926.13	0.021	3091907	STOP	n/a	n/a	n/a	-999	24	[-999, -999, -999]	n/a	FR1	0	R1201P
2926.151	0.7	3091928	DISTRACT_END	n/a	n/a	n/a	-999	24	[0, 0, 0]	n/a	FR1	0	R1201P
2926.851	0.516	3092628	RETRIEVAL_ORIENT	n/a	n/a	n/a	-999	24	[0, 0, 0]	n/a	FR1	0	R1201P
2927.367	1.437	3093144	REC_START	n/a	n/a	n/a	-999	24	[0, 0, 0]	n/a	FR1	0	R1201P
2928.804	1.069	3094580	REC_WORD	1.069	n/a	SHIP	-999	24	[0, 0, 0]	n/a	FR1	0	R1201P
2929.873	1.981	3095649	REC_WORD	1.981	n/a	TANK	7	24	[0, 0, 0]	n/a	FR1	0	R1201P
2931.854	25.523	3097630	REC_WORD	25.523	n/a	FLAG	9	24	[0, 0, 0]	n/a	FR1	0	R1201P
2957.377	5.497	3123152	REC_END	n/a	n/a	n/a	-999	24	[0, 0, 0]	n/a	FR1	0	R1201P
2962.874	0.5	3128649	TRIAL	n/a	n/a	n/a	-999	25	[0, 0, 0]	n/a	FR1	0	R1201P
2963.374	10.428	3129149	COUNTDOWN_START	n/a	n/a	n/a	-999	25	[0, 0, 0]	n/a	FR1	0	R1201P
2973.802	0.007	3139576	COUNTDOWN_END	n/a	n/a	n/a	-999	25	[0, 0, 0]	n/a	FR1	0	R1201P
2973.809	1.616	3139583	ORIENT	n/a	n/a	n/a	-999	25	[0, 0, 0]	n/a	FR1	0	R1201P
2975.425	2.368	3141199	ORIENT_OFF	n/a	n/a	n/a	-999	25	[0, 0, 0]	n/a	FR1	0	R1201P
2977.793	1.616	3143567	WORD	n/a	wordpools/wordpool_EN.txt	PHONE	1	25	[0, 0, 0]	n/a	FR1	0	R1201P
2979.409	0.768	3145183	WORD_OFF	n/a	n/a	PHONE	1	25	[0, 0, 0]	n/a	FR1	0	R1201P
2980.177	1.617	3145951	WORD	n/a	wordpools/wordpool_EN.txt	PEARL	2	25	[0, 0, 0]	n/a	FR1	0	R1201P
2981.794	0.85	3147568	WORD_OFF	n/a	n/a	PEARL	2	25	[0, 0, 0]	n/a	FR1	0	R1201P
2982.644	1.616	3148418	WORD	n/a	wordpools/wordpool_EN.txt	MAIL	3	25	[0, 0, 0]	n/a	FR1	0	R1201P
2984.26	0.984	3150034	WORD_OFF	n/a	n/a	MAIL	3	25	[0, 0, 0]	n/a	FR1	0	R1201P
2985.244	1.618	3151018	WORD	n/a	wordpools/wordpool_EN.txt	CASH	4	25	[0, 0, 0]	n/a	FR1	0	R1201P
2986.862	0.9	3152635	WORD_OFF	n/a	n/a	CASH	4	25	[0, 0, 0]	n/a	FR1	0	R1201P
2987.762	1.616	3153535	WORD	n/a	wordpools/wordpool_EN.txt	WEED	5	25	[0, 0, 0]	n/a	FR1	0	R1201P
2989.378	0.784	3155151	WORD_OFF	n/a	n/a	WEED	5	25	[0, 0, 0]	n/a	FR1	0	R1201P
2990.162	1.618	3155935	WORD	n/a	wordpools/wordpool_EN.txt	BANK	6	25	[0, 0, 0]	n/a	FR1	0	R1201P
2991.78	0.883	3157553	WORD_OFF	n/a	n/a	BANK	6	25	[0, 0, 0]	n/a	FR1	0	R1201P
2992.663	1.616	3158436	WORD	n/a	wordpools/wordpool_EN.txt	SCHOOL	7	25	[0, 0, 0]	n/a	FR1	0	R1201P
2994.279	0.95	3160052	WORD_OFF	n/a	n/a	SCHOOL	7	25	[0, 0, 0]	n/a	FR1	0	R1201P
2995.229	1.618	3161002	WORD	n/a	wordpools/wordpool_EN.txt	FILM	8	25	[0, 0, 0]	n/a	FR1	0	R1201P
2996.847	0.917	3162620	WORD_OFF	n/a	n/a	FILM	8	25	[0, 0, 0]	n/a	FR1	0	R1201P
2997.764	1.616	3163537	WORD	n/a	wordpools/wordpool_EN.txt	KEY	9	25	[0, 0, 0]	n/a	FR1	0	R1201P
2999.38	0.867	3165153	WORD_OFF	n/a	n/a	KEY	9	25	[0, 0, 0]	n/a	FR1	0	R1201P
3000.247	1.618	3166020	WORD	n/a	wordpools/wordpool_EN.txt	INK	10	25	[0, 0, 0]	n/a	FR1	0	R1201P
3001.865	1.0	3167638	WORD_OFF	n/a	n/a	INK	10	25	[0, 0, 0]	n/a	FR1	0	R1201P
3002.865	1.616	3168638	WORD	n/a	wordpools/wordpool_EN.txt	JUDGE	11	25	[0, 0, 0]	n/a	FR1	0	R1201P
3004.481	0.95	3170254	WORD_OFF	n/a	n/a	JUDGE	11	25	[0, 0, 0]	n/a	FR1	0	R1201P
3005.431	1.618	3171204	WORD	n/a	wordpools/wordpool_EN.txt	BOOK	12	25	[0, 0, 0]	n/a	FR1	0	R1201P
3007.049	0.0	3172821	WORD_OFF	n/a	n/a	BOOK	12	25	[0, 0, 0]	n/a	FR1	0	R1201P
3007.049	0.001	3172821	DISTRACT_START	n/a	n/a	n/a	-999	25	[0, 0, 0]	n/a	FR1	0	R1201P
3007.05	0.016	3172822	START	n/a	n/a	n/a	-999	25	[-999, -999, -999]	n/a	FR1	0	R1201P
3007.066	6.951	3172838	PROB	6.951	n/a	n/a	-999	25	[4, 1, 2]	7	FR1	0	R1201P
3014.017	3.951	3179789	PROB	3.951	n/a	n/a	-999	25	[6, 1, 9]	16	FR1	0	R1201P
3017.968	4.416	3183740	PROB	4.416	n/a	n/a	-999	25	[9, 6, 3]	18	FR1	0	R1201P
3022.384	6.267	3188156	PROB	6.267	n/a	n/a	-999	25	[9, 5, 7]	21	FR1	0	R1201P
3028.651	0.019	3194422	STOP	n/a	n/a	n/a	-999	25	[-999, -999, -999]	n/a	FR1	0	R1201P
3028.67	0.682	3194441	DISTRACT_END	n/a	n/a	n/a	-999	25	[0, 0, 0]	n/a	FR1	0	R1201P
3029.352	0.519	3195123	RETRIEVAL_ORIENT	n/a	n/a	n/a	-999	25	[0, 0, 0]	n/a	FR1	0	R1201P
3029.871	1.89	3195642	REC_START	n/a	n/a	n/a	-999	25	[0, 0, 0]	n/a	FR1	0	R1201P
3031.761	0.827	3197532	REC_WORD	0.827	n/a	WEED	5	25	[0, 0, 0]	n/a	FR1	0	R1201P
3032.588	10.115	3198359	REC_WORD	10.115	n/a	SCHOOL	7	25	[0, 0, 0]	n/a	FR1	0	R1201P
3042.703	10.837	3208474	REC_WORD	10.837	n/a	CAGE	-999	25	[0, 0, 0]	n/a	FR1	0	R1201P
3053.54	6.34	3219310	REC_WORD	6.34	n/a	FARM	-999	25	[0, 0, 0]	n/a	FR1	0	R1201P
3059.88	0.0	3225650	REC_END	n/a	n/a	n/a	-999	25	[0, 0, 0]	n/a	FR1	0	R1201P
