onset	duration	sample	trial_type	response_time	stim_file	item_name	serialpos	list	test	answer	experiment	session	subject
0.0	0.0	4708	INSTRUCT_START	n/a	n/a	n/a	-999	-999	[0, 0, 0]	n/a	FR1	3	R1243T
0.0	10.872	4708	INSTRUCT_END	n/a	n/a	n/a	-999	-999	[0, 0, 0]	n/a	FR1	3	R1243T
10.872	0.0	15580	SESS_START	n/a	n/a	n/a	-999	-999	[0, 0, 0]	n/a	FR1	3	R1243T
10.872	11.001	15580	MIC_TEST	n/a	n/a	n/a	-999	-999	[0, 0, 0]	n/a	FR1	3	R1243T
21.873	12.25	26580	PRACTICE_TRIAL	n/a	n/a	n/a	-999	-1	[0, 0, 0]	n/a	FR1	3	R1243T
34.123	10.428	38829	COUNTDOWN_START	n/a	n/a	n/a	-999	-1	[0, 0, 0]	n/a	FR1	3	R1243T
44.551	0.007	49257	COUNTDOWN_END	n/a	n/a	n/a	-999	-1	[0, 0, 0]	n/a	FR1	3	R1243T
44.558	1.618	49264	PRACTICE_ORIENT	n/a	n/a	n/a	-999	-1	[0, 0, 0]	n/a	FR1	3	R1243T
46.176	2.184	50882	PRACTICE_ORIENT_OFF	n/a	n/a	n/a	-999	-1	[0, 0, 0]	n/a	FR1	3	R1243T
48.36	1.616	53066	PRACTICE_WORD	n/a	n/a	CAMEL	1	-1	[0, 0, 0]	n/a	FR1	3	R1243T
49.976	0.983	54681	PRACTICE_WORD_OFF	n/a	n/a	CAMEL	-999	-1	[0, 0, 0]	n/a	FR1	3	R1243T
50.959	1.617	55664	PRACTICE_WORD	n/a	n/a	BEAM	2	-1	[0, 0, 0]	n/a	FR1	3	R1243T
52.576	0.784	57281	PRACTICE_WORD_OFF	n/a	n/a	BEAM	-999	-1	[0, 0, 0]	n/a	FR1	3	R1243T
53.36	1.616	58065	PRACTICE_WORD	n/a	n/a	ATTIC	3	-1	[0, 0, 0]	n/a	FR1	3	R1243T
54.976	0.784	59681	PRACTICE_WORD_OFF	n/a	n/a	ATTIC	-999	-1	[0, 0, 0]	n/a	FR1	3	R1243T
55.76	1.618	60465	PRACTICE_WORD	n/a	n/a	COTTON	4	-1	[0, 0, 0]	n/a	FR1	3	R1243T
57.378	0.9	62083	PRACTICE_WORD_OFF	n/a	n/a	COTTON	-999	-1	[0, 0, 0]	n/a	FR1	3	R1243T
58.278	1.616	62983	PRACTICE_WORD	n/a	n/a	IRON	5	-1	[0, 0, 0]	n/a	FR1	3	R1243T
59.894	0.9	64599	PRACTICE_WORD_OFF	n/a	n/a	IRON	-999	-1	[0, 0, 0]	n/a	FR1	3	R1243T
60.794	1.601	65499	PRACTICE_WORD	n/a	n/a	FLOOD	6	-1	[0, 0, 0]	n/a	FR1	3	R1243T
62.395	0.917	67100	PRACTICE_WORD_OFF	n/a	n/a	FLOOD	-999	-1	[0, 0, 0]	n/a	FR1	3	R1243T
63.312	1.616	68017	PRACTICE_WORD	n/a	n/a	WATCH	7	-1	[0, 0, 0]	n/a	FR1	3	R1243T
64.928	1.017	69633	PRACTICE_WORD_OFF	n/a	n/a	WATCH	-999	-1	[0, 0, 0]	n/a	FR1	3	R1243T
65.945	1.617	70649	PRACTICE_WORD	n/a	n/a	WAGON	8	-1	[0, 0, 0]	n/a	FR1	3	R1243T
67.562	0.935	72266	PRACTICE_WORD_OFF	n/a	n/a	WAGON	-999	-1	[0, 0, 0]	n/a	FR1	3	R1243T
68.497	1.617	73201	PRACTICE_WORD	n/a	n/a	TONGUE	9	-1	[0, 0, 0]	n/a	FR1	3	R1243T
70.114	0.966	74818	PRACTICE_WORD_OFF	n/a	n/a	TONGUE	-999	-1	[0, 0, 0]	n/a	FR1	3	R1243T
71.08	1.616	75784	PRACTICE_WORD	n/a	n/a	CHEST	10	-1	[0, 0, 0]	n/a	FR1	3	R1243T
72.696	0.768	77400	PRACTICE_WORD_OFF	n/a	n/a	CHEST	-999	-1	[0, 0, 0]	n/a	FR1	3	R1243T
73.464	1.617	78168	PRACTICE_WORD	n/a	n/a	RING	11	-1	[0, 0, 0]	n/a	FR1	3	R1243T
75.081	0.883	79785	PRACTICE_WORD_OFF	n/a	n/a	RING	-999	-1	[0, 0, 0]	n/a	FR1	3	R1243T
75.964	1.617	80668	PRACTICE_WORD	n/a	n/a	RHINO	12	-1	[0, 0, 0]	n/a	FR1	3	R1243T
77.581	0.0	82285	PRACTICE_WORD_OFF	n/a	n/a	RHINO	-999	-1	[0, 0, 0]	n/a	FR1	3	R1243T
77.581	0.0	82285	DISTRACT_START	n/a	n/a	n/a	-999	-1	[0, 0, 0]	n/a	FR1	3	R1243T
77.581	0.016	82285	START	n/a	n/a	n/a	-999	-1	[-999, -999, -999]	n/a	FR1	3	R1243T
77.597	5.836	82301	PROB	5.836	n/a	n/a	-999	-1	[8, 4, 2]	14	FR1	3	R1243T
83.433	2.266	88136	PROB	2.266	n/a	n/a	-999	-1	[3, 3, 3]	9	FR1	3	R1243T
85.699	3.618	90402	PROB	3.618	n/a	n/a	-999	-1	[6, 7, 1]	14	FR1	3	R1243T
89.317	3.616	94020	PROB	3.616	n/a	n/a	-999	-1	[3, 5, 4]	12	FR1	3	R1243T
92.933	4.485	97636	PROB	4.485	n/a	n/a	-999	-1	[9, 9, 1]	19	FR1	3	R1243T
97.418	6.687	102121	PROB	6.687	n/a	n/a	-999	-1	[5, 6, 2]	13	FR1	3	R1243T
104.105	0.015	108807	STOP	n/a	n/a	n/a	-999	-1	[-999, -999, -999]	n/a	FR1	3	R1243T
104.12	0.565	108822	DISTRACT_END	n/a	n/a	n/a	-999	-1	[0, 0, 0]	n/a	FR1	3	R1243T
104.685	0.519	109387	RETRIEVAL_ORIENT	n/a	n/a	n/a	-999	-1	[0, 0, 0]	n/a	FR1	3	R1243T
105.204	30.011	109906	PRACTICE_REC_START	n/a	n/a	n/a	-999	-1	[0, 0, 0]	n/a	FR1	3	R1243T
135.215	28.598	139915	PRACTICE_REC_END	n/a	n/a	n/a	-999	-1	[0, 0, 0]	n/a	FR1	3	R1243T
163.813	0.5	168511	TRIAL	n/a	n/a	n/a	-999	1	[0, 0, 0]	n/a	FR1	3	R1243T
164.313	10.428	169011	COUNTDOWN_START	n/a	n/a	n/a	-999	1	[0, 0, 0]	n/a	FR1	3	R1243T
174.741	0.007	179439	COUNTDOWN_END	n/a	n/a	n/a	-999	1	[0, 0, 0]	n/a	FR1	3	R1243T
174.748	1.618	179446	ORIENT	n/a	n/a	n/a	-999	1	[0, 0, 0]	n/a	FR1	3	R1243T
176.366	1.95	181064	ORIENT_OFF	n/a	n/a	n/a	-999	1	[0, 0, 0]	n/a	FR1	3	R1243T
178.316	1.616	183014	WORD	n/a	wordpools/wordpool_EN.txt	LAWN	1	1	[0, 0, 0]	n/a	FR1	3	R1243T
179.932	0.85	184629	WORD_OFF	n/a	n/a	LAWN	1	1	[0, 0, 0]	n/a	FR1	3	R1243T
180.782	1.602	185479	WORD	n/a	wordpools/wordpool_EN.txt	HORSE	2	1	[0, 0, 0]	n/a	FR1	3	R1243T
182.384	0.983	187081	WORD_OFF	n/a	n/a	HORSE	2	1	[0, 0, 0]	n/a	FR1	3	R1243T
183.367	1.616	188064	WORD	n/a	wordpools/wordpool_EN.txt	JEEP	3	1	[0, 0, 0]	n/a	FR1	3	R1243T
184.983	0.951	189680	WORD_OFF	n/a	n/a	JEEP	3	1	[0, 0, 0]	n/a	FR1	3	R1243T
185.934	1.617	190631	WORD	n/a	wordpools/wordpool_EN.txt	CHALK	4	1	[0, 0, 0]	n/a	FR1	3	R1243T
187.551	0.851	192248	WORD_OFF	n/a	n/a	CHALK	4	1	[0, 0, 0]	n/a	FR1	3	R1243T
188.402	1.617	193099	WORD	n/a	wordpools/wordpool_EN.txt	ROAD	5	1	[0, 0, 0]	n/a	FR1	3	R1243T
190.019	0.799	194716	WORD_OFF	n/a	n/a	ROAD	5	1	[0, 0, 0]	n/a	FR1	3	R1243T
190.818	1.618	195515	WORD	n/a	wordpools/wordpool_EN.txt	DART	6	1	[0, 0, 0]	n/a	FR1	3	R1243T
192.436	0.883	197133	WORD_OFF	n/a	n/a	DART	6	1	[0, 0, 0]	n/a	FR1	3	R1243T
193.319	1.616	198016	WORD	n/a	wordpools/wordpool_EN.txt	FARM	7	1	[0, 0, 0]	n/a	FR1	3	R1243T
194.935	0.8	199632	WORD_OFF	n/a	n/a	FARM	7	1	[0, 0, 0]	n/a	FR1	3	R1243T
195.735	1.618	200432	WORD	n/a	wordpools/wordpool_EN.txt	STORE	8	1	[0, 0, 0]	n/a	FR1	3	R1243T
197.353	0.9	202049	WORD_OFF	n/a	n/a	STORE	8	1	[0, 0, 0]	n/a	FR1	3	R1243T
198.253	1.616	202949	WORD	n/a	wordpools/wordpool_EN.txt	PET	9	1	[0, 0, 0]	n/a	FR1	3	R1243T
199.869	0.85	204565	WORD_OFF	n/a	n/a	PET	9	1	[0, 0, 0]	n/a	FR1	3	R1243T
200.719	1.618	205415	WORD	n/a	wordpools/wordpool_EN.txt	TRAIN	10	1	[0, 0, 0]	n/a	FR1	3	R1243T
202.337	0.967	207033	WORD_OFF	n/a	n/a	TRAIN	10	1	[0, 0, 0]	n/a	FR1	3	R1243T
203.304	1.616	208000	WORD	n/a	wordpools/wordpool_EN.txt	HEN	11	1	[0, 0, 0]	n/a	FR1	3	R1243T
204.92	0.834	209616	WORD_OFF	n/a	n/a	HEN	11	1	[0, 0, 0]	n/a	FR1	3	R1243T
205.754	1.618	210450	WORD	n/a	wordpools/wordpool_EN.txt	RAT	12	1	[0, 0, 0]	n/a	FR1	3	R1243T
207.372	0.0	212068	WORD_OFF	n/a	n/a	RAT	12	1	[0, 0, 0]	n/a	FR1	3	R1243T
207.372	0.0	212068	DISTRACT_START	n/a	n/a	n/a	-999	1	[0, 0, 0]	n/a	FR1	3	R1243T
207.372	0.016	212068	START	n/a	n/a	n/a	-999	1	[-999, -999, -999]	n/a	FR1	3	R1243T
207.388	4.5	212084	PROB	4.5	n/a	n/a	-999	1	[6, 6, 3]	15	FR1	3	R1243T
211.888	3.369	216584	PROB	3.369	n/a	n/a	-999	1	[9, 8, 2]	21	FR1	3	R1243T
215.257	5.2	219952	PROB	5.2	n/a	n/a	-999	1	[9, 8, 7]	24	FR1	3	R1243T
220.457	3.367	225152	PROB	3.367	n/a	n/a	-999	1	[5, 2, 3]	10	FR1	3	R1243T
223.824	2.268	228519	PROB	2.268	n/a	n/a	-999	1	[1, 1, 1]	3	FR1	3	R1243T
226.092	4.341	230787	PROB	4.341	n/a	n/a	-999	1	[6, 7, 1]	14	FR1	3	R1243T
230.433	0.01	235127	STOP	n/a	n/a	n/a	-999	1	[-999, -999, -999]	n/a	FR1	3	R1243T
230.443	0.7	235137	DISTRACT_END	n/a	n/a	n/a	-999	1	[0, 0, 0]	n/a	FR1	3	R1243T
231.143	0.516	235837	RETRIEVAL_ORIENT	n/a	n/a	n/a	-999	1	[0, 0, 0]	n/a	FR1	3	R1243T
231.659	1.558	236353	REC_START	n/a	n/a	n/a	-999	1	[0, 0, 0]	n/a	FR1	3	R1243T
233.217	0.54	237911	REC_WORD	0.54	n/a	RAT	-999	1	[0, 0, 0]	n/a	FR1	3	R1243T
233.757	2.259	238451	REC_WORD	2.259	n/a	HORSE	-999	1	[0, 0, 0]	n/a	FR1	3	R1243T
236.016	4.833	240710	REC_WORD	4.833	n/a	ROAD	-999	1	[0, 0, 0]	n/a	FR1	3	R1243T
240.849	6.376	245543	REC_WORD	6.376	n/a	FARM	-999	1	[0, 0, 0]	n/a	FR1	3	R1243T
247.225	14.446	251918	REC_WORD	14.446	n/a	CHALK	-999	1	[0, 0, 0]	n/a	FR1	3	R1243T
261.671	5.144	266364	REC_END	n/a	n/a	n/a	-999	1	[0, 0, 0]	n/a	FR1	3	R1243T
266.815	0.5	271507	TRIAL	n/a	n/a	n/a	-999	2	[0, 0, 0]	n/a	FR1	3	R1243T
267.315	10.428	272007	COUNTDOWN_START	n/a	n/a	n/a	-999	2	[0, 0, 0]	n/a	FR1	3	R1243T
277.743	0.007	282435	COUNTDOWN_END	n/a	n/a	n/a	-999	2	[0, 0, 0]	n/a	FR1	3	R1243T
277.75	1.618	282442	ORIENT	n/a	n/a	n/a	-999	2	[0, 0, 0]	n/a	FR1	3	R1243T
279.368	2.216	284059	ORIENT_OFF	n/a	n/a	n/a	-999	2	[0, 0, 0]	n/a	FR1	3	R1243T
281.584	1.601	286275	WORD	n/a	wordpools/wordpool_EN.txt	BOX	1	2	[0, 0, 0]	n/a	FR1	3	R1243T
283.185	0.867	287876	WORD_OFF	n/a	n/a	BOX	1	2	[0, 0, 0]	n/a	FR1	3	R1243T
284.052	1.616	288743	WORD	n/a	wordpools/wordpool_EN.txt	HAND	2	2	[0, 0, 0]	n/a	FR1	3	R1243T
285.668	0.901	290359	WORD_OFF	n/a	n/a	HAND	2	2	[0, 0, 0]	n/a	FR1	3	R1243T
286.569	1.618	291260	WORD	n/a	wordpools/wordpool_EN.txt	TIE	3	2	[0, 0, 0]	n/a	FR1	3	R1243T
288.187	0.782	292878	WORD_OFF	n/a	n/a	TIE	3	2	[0, 0, 0]	n/a	FR1	3	R1243T
288.969	1.617	293660	WORD	n/a	wordpools/wordpool_EN.txt	MUG	4	2	[0, 0, 0]	n/a	FR1	3	R1243T
290.586	0.868	295277	WORD_OFF	n/a	n/a	MUG	4	2	[0, 0, 0]	n/a	FR1	3	R1243T
291.454	1.617	296145	WORD	n/a	wordpools/wordpool_EN.txt	CAGE	5	2	[0, 0, 0]	n/a	FR1	3	R1243T
293.071	0.932	297762	WORD_OFF	n/a	n/a	CAGE	5	2	[0, 0, 0]	n/a	FR1	3	R1243T
294.003	1.617	298694	WORD	n/a	wordpools/wordpool_EN.txt	BEAK	6	2	[0, 0, 0]	n/a	FR1	3	R1243T
295.62	0.768	300310	WORD_OFF	n/a	n/a	BEAK	6	2	[0, 0, 0]	n/a	FR1	3	R1243T
296.388	1.616	301078	WORD	n/a	wordpools/wordpool_EN.txt	SINK	7	2	[0, 0, 0]	n/a	FR1	3	R1243T
298.004	0.8	302694	WORD_OFF	n/a	n/a	SINK	7	2	[0, 0, 0]	n/a	FR1	3	R1243T
298.804	1.618	303494	WORD	n/a	wordpools/wordpool_EN.txt	SLEEVE	8	2	[0, 0, 0]	n/a	FR1	3	R1243T
300.422	0.867	305112	WORD_OFF	n/a	n/a	SLEEVE	8	2	[0, 0, 0]	n/a	FR1	3	R1243T
301.289	1.616	305979	WORD	n/a	wordpools/wordpool_EN.txt	TEA	9	2	[0, 0, 0]	n/a	FR1	3	R1243T
302.905	1.0	307595	WORD_OFF	n/a	n/a	TEA	9	2	[0, 0, 0]	n/a	FR1	3	R1243T
303.905	1.618	308595	WORD	n/a	wordpools/wordpool_EN.txt	LEG	10	2	[0, 0, 0]	n/a	FR1	3	R1243T
305.523	0.85	310213	WORD_OFF	n/a	n/a	LEG	10	2	[0, 0, 0]	n/a	FR1	3	R1243T
306.373	1.616	311063	WORD	n/a	wordpools/wordpool_EN.txt	BAG	11	2	[0, 0, 0]	n/a	FR1	3	R1243T
307.989	0.917	312679	WORD_OFF	n/a	n/a	BAG	11	2	[0, 0, 0]	n/a	FR1	3	R1243T
308.906	1.618	313596	WORD	n/a	wordpools/wordpool_EN.txt	CAKE	12	2	[0, 0, 0]	n/a	FR1	3	R1243T
310.524	0.0	315214	WORD_OFF	n/a	n/a	CAKE	12	2	[0, 0, 0]	n/a	FR1	3	R1243T
310.524	0.0	315214	DISTRACT_START	n/a	n/a	n/a	-999	2	[0, 0, 0]	n/a	FR1	3	R1243T
310.524	0.017	315214	START	n/a	n/a	n/a	-999	2	[-999, -999, -999]	n/a	FR1	3	R1243T
310.541	5.333	315231	PROB	5.333	n/a	n/a	-999	2	[7, 5, 6]	18	FR1	3	R1243T
315.874	3.185	320563	PROB	3.185	n/a	n/a	-999	2	[9, 5, 5]	19	FR1	3	R1243T
319.059	2.899	323748	PROB	2.899	n/a	n/a	-999	2	[8, 3, 1]	12	FR1	3	R1243T
321.958	2.834	326647	PROB	2.834	n/a	n/a	-999	2	[2, 8, 3]	13	FR1	3	R1243T
324.792	2.934	329481	PROB	2.934	n/a	n/a	-999	2	[4, 5, 3]	12	FR1	3	R1243T
327.726	3.106	332414	PROB	3.106	n/a	n/a	-999	2	[5, 7, 7]	19	FR1	3	R1243T
330.832	0.011	335520	STOP	n/a	n/a	n/a	-999	2	[-999, -999, -999]	n/a	FR1	3	R1243T
330.843	0.635	335531	DISTRACT_END	n/a	n/a	n/a	-999	2	[0, 0, 0]	n/a	FR1	3	R1243T
331.478	0.516	336166	RETRIEVAL_ORIENT	n/a	n/a	n/a	-999	2	[0, 0, 0]	n/a	FR1	3	R1243T
331.994	1.529	336682	REC_START	n/a	n/a	n/a	-999	2	[0, 0, 0]	n/a	FR1	3	R1243T
333.523	1.407	338211	REC_WORD	1.407	n/a	TEA	-999	2	[0, 0, 0]	n/a	FR1	3	R1243T
334.93	4.792	339618	REC_WORD	4.792	n/a	BAG	-999	2	[0, 0, 0]	n/a	FR1	3	R1243T
339.722	12.507	344410	REC_WORD	12.507	n/a	LEG	-999	2	[0, 0, 0]	n/a	FR1	3	R1243T
352.229	9.777	356916	REC_WORD	9.777	n/a	ARM	-999	2	[0, 0, 0]	n/a	FR1	3	R1243T
362.006	4.894	366692	REC_END	n/a	n/a	n/a	-999	2	[0, 0, 0]	n/a	FR1	3	R1243T
366.9	0.5	371586	TRIAL	n/a	n/a	n/a	-999	3	[0, 0, 0]	n/a	FR1	3	R1243T
367.4	10.428	372086	COUNTDOWN_START	n/a	n/a	n/a	-999	3	[0, 0, 0]	n/a	FR1	3	R1243T
377.828	0.007	382513	COUNTDOWN_END	n/a	n/a	n/a	-999	3	[0, 0, 0]	n/a	FR1	3	R1243T
377.835	1.618	382520	ORIENT	n/a	n/a	n/a	-999	3	[0, 0, 0]	n/a	FR1	3	R1243T
379.453	2.216	384138	ORIENT_OFF	n/a	n/a	n/a	-999	3	[0, 0, 0]	n/a	FR1	3	R1243T
381.669	1.618	386354	WORD	n/a	wordpools/wordpool_EN.txt	FOG	1	3	[0, 0, 0]	n/a	FR1	3	R1243T
383.287	0.8	387972	WORD_OFF	n/a	n/a	FOG	1	3	[0, 0, 0]	n/a	FR1	3	R1243T
384.087	1.616	388772	WORD	n/a	wordpools/wordpool_EN.txt	JET	2	3	[0, 0, 0]	n/a	FR1	3	R1243T
385.703	0.785	390388	WORD_OFF	n/a	n/a	JET	2	3	[0, 0, 0]	n/a	FR1	3	R1243T
386.488	1.617	391173	WORD	n/a	wordpools/wordpool_EN.txt	FUR	3	3	[0, 0, 0]	n/a	FR1	3	R1243T
388.105	0.882	392790	WORD_OFF	n/a	n/a	FUR	3	3	[0, 0, 0]	n/a	FR1	3	R1243T
388.987	1.617	393672	WORD	n/a	wordpools/wordpool_EN.txt	SKI	4	3	[0, 0, 0]	n/a	FR1	3	R1243T
390.604	0.935	395289	WORD_OFF	n/a	n/a	SKI	4	3	[0, 0, 0]	n/a	FR1	3	R1243T
391.539	1.616	396224	WORD	n/a	wordpools/wordpool_EN.txt	WORLD	5	3	[0, 0, 0]	n/a	FR1	3	R1243T
393.155	0.951	397839	WORD_OFF	n/a	n/a	WORLD	5	3	[0, 0, 0]	n/a	FR1	3	R1243T
394.106	1.616	398790	WORD	n/a	wordpools/wordpool_EN.txt	LAKE	6	3	[0, 0, 0]	n/a	FR1	3	R1243T
395.722	0.933	400406	WORD_OFF	n/a	n/a	LAKE	6	3	[0, 0, 0]	n/a	FR1	3	R1243T
396.655	1.601	401339	WORD	n/a	wordpools/wordpool_EN.txt	SCHOOL	7	3	[0, 0, 0]	n/a	FR1	3	R1243T
398.256	0.767	402940	WORD_OFF	n/a	n/a	SCHOOL	7	3	[0, 0, 0]	n/a	FR1	3	R1243T
399.023	1.616	403707	WORD	n/a	wordpools/wordpool_EN.txt	SEAT	8	3	[0, 0, 0]	n/a	FR1	3	R1243T
400.639	0.917	405323	WORD_OFF	n/a	n/a	SEAT	8	3	[0, 0, 0]	n/a	FR1	3	R1243T
401.556	1.618	406240	WORD	n/a	wordpools/wordpool_EN.txt	SPOON	9	3	[0, 0, 0]	n/a	FR1	3	R1243T
403.174	1.0	407858	WORD_OFF	n/a	n/a	SPOON	9	3	[0, 0, 0]	n/a	FR1	3	R1243T
404.174	1.616	408858	WORD	n/a	wordpools/wordpool_EN.txt	SPARK	10	3	[0, 0, 0]	n/a	FR1	3	R1243T
405.79	0.934	410474	WORD_OFF	n/a	n/a	SPARK	10	3	[0, 0, 0]	n/a	FR1	3	R1243T
406.724	1.601	411408	WORD	n/a	wordpools/wordpool_EN.txt	BED	11	3	[0, 0, 0]	n/a	FR1	3	R1243T
408.325	0.967	413009	WORD_OFF	n/a	n/a	BED	11	3	[0, 0, 0]	n/a	FR1	3	R1243T
409.292	1.616	413975	WORD	n/a	wordpools/wordpool_EN.txt	POOL	12	3	[0, 0, 0]	n/a	FR1	3	R1243T
410.908	0.0	415591	WORD_OFF	n/a	n/a	POOL	12	3	[0, 0, 0]	n/a	FR1	3	R1243T
410.908	0.001	415591	DISTRACT_START	n/a	n/a	n/a	-999	3	[0, 0, 0]	n/a	FR1	3	R1243T
410.909	0.015	415592	START	n/a	n/a	n/a	-999	3	[-999, -999, -999]	n/a	FR1	3	R1243T
410.924	3.935	415607	PROB	3.935	n/a	n/a	-999	3	[4, 6, 3]	13	FR1	3	R1243T
414.859	5.618	419542	PROB	5.618	n/a	n/a	-999	3	[6, 1, 2]	9	FR1	3	R1243T
420.477	2.951	425160	PROB	2.951	n/a	n/a	-999	3	[5, 1, 3]	9	FR1	3	R1243T
423.428	3.149	428111	PROB	3.149	n/a	n/a	-999	3	[2, 2, 8]	12	FR1	3	R1243T
426.577	5.625	431259	PROB	5.625	n/a	n/a	-999	3	[4, 9, 5]	18	FR1	3	R1243T
432.202	0.011	436884	STOP	n/a	n/a	n/a	-999	3	[-999, -999, -999]	n/a	FR1	3	R1243T
432.213	0.649	436895	DISTRACT_END	n/a	n/a	n/a	-999	3	[0, 0, 0]	n/a	FR1	3	R1243T
432.862	0.518	437544	RETRIEVAL_ORIENT	n/a	n/a	n/a	-999	3	[0, 0, 0]	n/a	FR1	3	R1243T
433.38	1.698	438062	REC_START	n/a	n/a	n/a	-999	3	[0, 0, 0]	n/a	FR1	3	R1243T
435.078	2.982	439760	REC_WORD_VV	2.982	n/a	<>	-999	3	[0, 0, 0]	n/a	FR1	3	R1243T
438.06	2.798	442742	REC_WORD	2.798	n/a	SPARK	-999	3	[0, 0, 0]	n/a	FR1	3	R1243T
440.858	1.716	445540	REC_WORD	1.716	n/a	JET	-999	3	[0, 0, 0]	n/a	FR1	3	R1243T
442.574	2.891	447255	REC_WORD	2.891	n/a	FOG	-999	3	[0, 0, 0]	n/a	FR1	3	R1243T
445.465	2.171	450146	REC_WORD	2.171	n/a	WORLD	-999	3	[0, 0, 0]	n/a	FR1	3	R1243T
447.636	3.824	452317	REC_WORD	3.824	n/a	LAKE	-999	3	[0, 0, 0]	n/a	FR1	3	R1243T
451.46	11.931	456141	REC_WORD	11.931	n/a	SKI	-999	3	[0, 0, 0]	n/a	FR1	3	R1243T
463.391	5.361	468071	REC_END	n/a	n/a	n/a	-999	3	[0, 0, 0]	n/a	FR1	3	R1243T
468.752	0.5	473432	TRIAL	n/a	n/a	n/a	-999	4	[0, 0, 0]	n/a	FR1	3	R1243T
469.252	10.428	473932	COUNTDOWN_START	n/a	n/a	n/a	-999	4	[0, 0, 0]	n/a	FR1	3	R1243T
479.68	0.007	484359	COUNTDOWN_END	n/a	n/a	n/a	-999	4	[0, 0, 0]	n/a	FR1	3	R1243T
479.687	1.618	484366	ORIENT	n/a	n/a	n/a	-999	4	[0, 0, 0]	n/a	FR1	3	R1243T
481.305	2.117	485984	ORIENT_OFF	n/a	n/a	n/a	-999	4	[0, 0, 0]	n/a	FR1	3	R1243T
483.422	1.617	488101	WORD	n/a	wordpools/wordpool_EN.txt	SQUARE	1	4	[0, 0, 0]	n/a	FR1	3	R1243T
485.039	1.0	489718	WORD_OFF	n/a	n/a	SQUARE	1	4	[0, 0, 0]	n/a	FR1	3	R1243T
486.039	1.616	490718	WORD	n/a	wordpools/wordpool_EN.txt	NAIL	2	4	[0, 0, 0]	n/a	FR1	3	R1243T
487.655	0.917	492334	WORD_OFF	n/a	n/a	NAIL	2	4	[0, 0, 0]	n/a	FR1	3	R1243T
488.572	1.618	493251	WORD	n/a	wordpools/wordpool_EN.txt	PIPE	3	4	[0, 0, 0]	n/a	FR1	3	R1243T
490.19	0.883	494869	WORD_OFF	n/a	n/a	PIPE	3	4	[0, 0, 0]	n/a	FR1	3	R1243T
491.073	1.616	495751	WORD	n/a	wordpools/wordpool_EN.txt	GUARD	4	4	[0, 0, 0]	n/a	FR1	3	R1243T
492.689	0.934	497367	WORD_OFF	n/a	n/a	GUARD	4	4	[0, 0, 0]	n/a	FR1	3	R1243T
493.623	1.618	498301	WORD	n/a	wordpools/wordpool_EN.txt	STONE	5	4	[0, 0, 0]	n/a	FR1	3	R1243T
495.241	0.883	499919	WORD_OFF	n/a	n/a	STONE	5	4	[0, 0, 0]	n/a	FR1	3	R1243T
496.124	1.616	500802	WORD	n/a	wordpools/wordpool_EN.txt	CUBE	6	4	[0, 0, 0]	n/a	FR1	3	R1243T
497.74	0.801	502418	WORD_OFF	n/a	n/a	CUBE	6	4	[0, 0, 0]	n/a	FR1	3	R1243T
498.541	1.617	503219	WORD	n/a	wordpools/wordpool_EN.txt	TOOL	7	4	[0, 0, 0]	n/a	FR1	3	R1243T
500.158	0.984	504836	WORD_OFF	n/a	n/a	TOOL	7	4	[0, 0, 0]	n/a	FR1	3	R1243T
501.142	1.616	505820	WORD	n/a	wordpools/wordpool_EN.txt	PIT	8	4	[0, 0, 0]	n/a	FR1	3	R1243T
502.758	0.917	507436	WORD_OFF	n/a	n/a	PIT	8	4	[0, 0, 0]	n/a	FR1	3	R1243T
503.675	1.618	508353	WORD	n/a	wordpools/wordpool_EN.txt	BRICK	9	4	[0, 0, 0]	n/a	FR1	3	R1243T
505.293	0.966	509971	WORD_OFF	n/a	n/a	BRICK	9	4	[0, 0, 0]	n/a	FR1	3	R1243T
506.259	1.616	510937	WORD	n/a	wordpools/wordpool_EN.txt	CLAY	10	4	[0, 0, 0]	n/a	FR1	3	R1243T
507.875	0.967	512552	WORD_OFF	n/a	n/a	CLAY	10	4	[0, 0, 0]	n/a	FR1	3	R1243T
508.842	1.618	513519	WORD	n/a	wordpools/wordpool_EN.txt	DOCK	11	4	[0, 0, 0]	n/a	FR1	3	R1243T
510.46	0.95	515137	WORD_OFF	n/a	n/a	DOCK	11	4	[0, 0, 0]	n/a	FR1	3	R1243T
511.41	1.617	516087	WORD	n/a	wordpools/wordpool_EN.txt	HOSE	12	4	[0, 0, 0]	n/a	FR1	3	R1243T
513.027	0.0	517704	WORD_OFF	n/a	n/a	HOSE	12	4	[0, 0, 0]	n/a	FR1	3	R1243T
513.027	0.001	517704	DISTRACT_START	n/a	n/a	n/a	-999	4	[0, 0, 0]	n/a	FR1	3	R1243T
513.028	0.016	517705	START	n/a	n/a	n/a	-999	4	[-999, -999, -999]	n/a	FR1	3	R1243T
513.044	8.268	517721	PROB	8.268	n/a	n/a	-999	4	[3, 5, 7]	15	FR1	3	R1243T
521.312	3.001	525989	PROB	3.001	n/a	n/a	-999	4	[9, 1, 2]	12	FR1	3	R1243T
524.313	3.184	528989	PROB	3.184	n/a	n/a	-999	4	[5, 1, 2]	8	FR1	3	R1243T
527.497	5.15	532173	PROB	5.15	n/a	n/a	-999	4	[8, 8, 8]	24	FR1	3	R1243T
532.647	4.659	537323	PROB	4.659	n/a	n/a	-999	4	[7, 8, 3]	18	FR1	3	R1243T
537.306	0.009	541982	STOP	n/a	n/a	n/a	-999	4	[-999, -999, -999]	n/a	FR1	3	R1243T
537.315	0.633	541991	DISTRACT_END	n/a	n/a	n/a	-999	4	[0, 0, 0]	n/a	FR1	3	R1243T
537.948	0.518	542624	RETRIEVAL_ORIENT	n/a	n/a	n/a	-999	4	[0, 0, 0]	n/a	FR1	3	R1243T
538.466	4.379	543142	REC_START	n/a	n/a	n/a	-999	4	[0, 0, 0]	n/a	FR1	3	R1243T
542.845	2.491	547520	REC_WORD	2.491	n/a	DOCK	-999	4	[0, 0, 0]	n/a	FR1	3	R1243T
545.336	14.298	550011	REC_WORD_VV	14.298	n/a	<>	-999	4	[0, 0, 0]	n/a	FR1	3	R1243T
559.634	8.842	564308	REC_WORD	8.842	n/a	LAKE	-999	4	[0, 0, 0]	n/a	FR1	3	R1243T
568.476	5.261	573150	REC_END	n/a	n/a	n/a	-999	4	[0, 0, 0]	n/a	FR1	3	R1243T
573.737	0.5	578410	TRIAL	n/a	n/a	n/a	-999	5	[0, 0, 0]	n/a	FR1	3	R1243T
574.237	10.428	578910	COUNTDOWN_START	n/a	n/a	n/a	-999	5	[0, 0, 0]	n/a	FR1	3	R1243T
584.665	0.008	589338	COUNTDOWN_END	n/a	n/a	n/a	-999	5	[0, 0, 0]	n/a	FR1	3	R1243T
584.673	1.618	589346	ORIENT	n/a	n/a	n/a	-999	5	[0, 0, 0]	n/a	FR1	3	R1243T
586.291	2.033	590964	ORIENT_OFF	n/a	n/a	n/a	-999	5	[0, 0, 0]	n/a	FR1	3	R1243T
588.324	1.616	592997	WORD	n/a	wordpools/wordpool_EN.txt	MOUTH	1	5	[0, 0, 0]	n/a	FR1	3	R1243T
589.94	0.817	594612	WORD_OFF	n/a	n/a	MOUTH	1	5	[0, 0, 0]	n/a	FR1	3	R1243T
590.757	1.601	595429	WORD	n/a	wordpools/wordpool_EN.txt	ROOM	2	5	[0, 0, 0]	n/a	FR1	3	R1243T
592.358	0.9	597030	WORD_OFF	n/a	n/a	ROOM	2	5	[0, 0, 0]	n/a	FR1	3	R1243T
593.258	1.617	597930	WORD	n/a	wordpools/wordpool_EN.txt	JUICE	3	5	[0, 0, 0]	n/a	FR1	3	R1243T
594.875	0.883	599547	WORD_OFF	n/a	n/a	JUICE	3	5	[0, 0, 0]	n/a	FR1	3	R1243T
595.758	1.601	600430	WORD	n/a	wordpools/wordpool_EN.txt	SALT	4	5	[0, 0, 0]	n/a	FR1	3	R1243T
597.359	0.801	602031	WORD_OFF	n/a	n/a	SALT	4	5	[0, 0, 0]	n/a	FR1	3	R1243T
598.16	1.615	602832	WORD	n/a	wordpools/wordpool_EN.txt	GOLD	5	5	[0, 0, 0]	n/a	FR1	3	R1243T
599.775	0.768	604447	WORD_OFF	n/a	n/a	GOLD	5	5	[0, 0, 0]	n/a	FR1	3	R1243T
600.543	1.617	605215	WORD	n/a	wordpools/wordpool_EN.txt	WORM	6	5	[0, 0, 0]	n/a	FR1	3	R1243T
602.16	0.816	606832	WORD_OFF	n/a	n/a	WORM	6	5	[0, 0, 0]	n/a	FR1	3	R1243T
602.976	1.617	607648	WORD	n/a	wordpools/wordpool_EN.txt	DOLL	7	5	[0, 0, 0]	n/a	FR1	3	R1243T
604.593	0.918	609265	WORD_OFF	n/a	n/a	DOLL	7	5	[0, 0, 0]	n/a	FR1	3	R1243T
605.511	1.617	610183	WORD	n/a	wordpools/wordpool_EN.txt	BREAD	8	5	[0, 0, 0]	n/a	FR1	3	R1243T
607.128	0.917	611799	WORD_OFF	n/a	n/a	BREAD	8	5	[0, 0, 0]	n/a	FR1	3	R1243T
608.045	1.616	612716	WORD	n/a	wordpools/wordpool_EN.txt	CROWN	9	5	[0, 0, 0]	n/a	FR1	3	R1243T
609.661	0.767	614332	WORD_OFF	n/a	n/a	CROWN	9	5	[0, 0, 0]	n/a	FR1	3	R1243T
610.428	1.617	615099	WORD	n/a	wordpools/wordpool_EN.txt	THREAD	10	5	[0, 0, 0]	n/a	FR1	3	R1243T
612.045	0.984	616716	WORD_OFF	n/a	n/a	THREAD	10	5	[0, 0, 0]	n/a	FR1	3	R1243T
613.029	1.616	617700	WORD	n/a	wordpools/wordpool_EN.txt	VASE	11	5	[0, 0, 0]	n/a	FR1	3	R1243T
614.645	0.834	619316	WORD_OFF	n/a	n/a	VASE	11	5	[0, 0, 0]	n/a	FR1	3	R1243T
615.479	1.617	620150	WORD	n/a	wordpools/wordpool_EN.txt	SLUSH	12	5	[0, 0, 0]	n/a	FR1	3	R1243T
617.096	0.0	621767	WORD_OFF	n/a	n/a	SLUSH	12	5	[0, 0, 0]	n/a	FR1	3	R1243T
617.096	0.001	621767	DISTRACT_START	n/a	n/a	n/a	-999	5	[0, 0, 0]	n/a	FR1	3	R1243T
617.097	0.016	621768	START	n/a	n/a	n/a	-999	5	[-999, -999, -999]	n/a	FR1	3	R1243T
617.113	6.985	621784	PROB	6.985	n/a	n/a	-999	5	[7, 1, 3]	11	FR1	3	R1243T
624.098	2.749	628768	PROB	2.749	n/a	n/a	-999	5	[4, 2, 5]	11	FR1	3	R1243T
626.847	3.034	631517	PROB	3.034	n/a	n/a	-999	5	[5, 5, 7]	17	FR1	3	R1243T
629.881	3.152	634551	PROB	3.152	n/a	n/a	-999	5	[1, 3, 3]	7	FR1	3	R1243T
633.033	3.317	637703	PROB	3.317	n/a	n/a	-999	5	[7, 1, 1]	9	FR1	3	R1243T
636.35	2.788	641020	PROB	2.788	n/a	n/a	-999	5	[7, 3, 7]	17	FR1	3	R1243T
639.138	0.012	643807	STOP	n/a	n/a	n/a	-999	5	[-999, -999, -999]	n/a	FR1	3	R1243T
639.15	0.649	643819	DISTRACT_END	n/a	n/a	n/a	-999	5	[0, 0, 0]	n/a	FR1	3	R1243T
639.799	0.519	644468	RETRIEVAL_ORIENT	n/a	n/a	n/a	-999	5	[0, 0, 0]	n/a	FR1	3	R1243T
640.318	2.701	644987	REC_START	n/a	n/a	n/a	-999	5	[0, 0, 0]	n/a	FR1	3	R1243T
643.019	3.104	647688	REC_WORD	3.104	n/a	BRICK	-999	5	[0, 0, 0]	n/a	FR1	3	R1243T
646.123	6.948	650792	REC_WORD	6.948	n/a	CLAY	-999	5	[0, 0, 0]	n/a	FR1	3	R1243T
653.071	5.552	657740	REC_WORD	5.552	n/a	LUMBER	-999	5	[0, 0, 0]	n/a	FR1	3	R1243T
658.623	11.707	663291	REC_WORD	11.707	n/a	ROCK	-999	5	[0, 0, 0]	n/a	FR1	3	R1243T
670.33	5.259	674998	REC_END	n/a	n/a	n/a	-999	5	[0, 0, 0]	n/a	FR1	3	R1243T
675.589	0.5	680256	TRIAL	n/a	n/a	n/a	-999	6	[0, 0, 0]	n/a	FR1	3	R1243T
676.089	10.428	680756	COUNTDOWN_START	n/a	n/a	n/a	-999	6	[0, 0, 0]	n/a	FR1	3	R1243T
686.517	0.009	691184	COUNTDOWN_END	n/a	n/a	n/a	-999	6	[0, 0, 0]	n/a	FR1	3	R1243T
686.526	1.617	691193	ORIENT	n/a	n/a	n/a	-999	6	[0, 0, 0]	n/a	FR1	3	R1243T
688.143	2.217	692809	ORIENT_OFF	n/a	n/a	n/a	-999	6	[0, 0, 0]	n/a	FR1	3	R1243T
690.36	1.615	695026	WORD	n/a	wordpools/wordpool_EN.txt	SLIME	1	6	[0, 0, 0]	n/a	FR1	3	R1243T
691.975	0.784	696641	WORD_OFF	n/a	n/a	SLIME	1	6	[0, 0, 0]	n/a	FR1	3	R1243T
692.759	1.601	697425	WORD	n/a	wordpools/wordpool_EN.txt	STRAW	2	6	[0, 0, 0]	n/a	FR1	3	R1243T
694.36	0.984	699026	WORD_OFF	n/a	n/a	STRAW	2	6	[0, 0, 0]	n/a	FR1	3	R1243T
695.344	1.616	700010	WORD	n/a	wordpools/wordpool_EN.txt	STRING	3	6	[0, 0, 0]	n/a	FR1	3	R1243T
696.96	0.85	701626	WORD_OFF	n/a	n/a	STRING	3	6	[0, 0, 0]	n/a	FR1	3	R1243T
697.81	1.601	702476	WORD	n/a	wordpools/wordpool_EN.txt	YARD	4	6	[0, 0, 0]	n/a	FR1	3	R1243T
699.411	0.784	704077	WORD_OFF	n/a	n/a	YARD	4	6	[0, 0, 0]	n/a	FR1	3	R1243T
700.195	1.616	704861	WORD	n/a	wordpools/wordpool_EN.txt	TEETH	5	6	[0, 0, 0]	n/a	FR1	3	R1243T
701.811	0.95	706477	WORD_OFF	n/a	n/a	TEETH	5	6	[0, 0, 0]	n/a	FR1	3	R1243T
702.761	1.618	707427	WORD	n/a	wordpools/wordpool_EN.txt	PURSE	6	6	[0, 0, 0]	n/a	FR1	3	R1243T
704.379	0.983	709044	WORD_OFF	n/a	n/a	PURSE	6	6	[0, 0, 0]	n/a	FR1	3	R1243T
705.362	1.616	710027	WORD	n/a	wordpools/wordpool_EN.txt	FAN	7	6	[0, 0, 0]	n/a	FR1	3	R1243T
706.978	0.9	711643	WORD_OFF	n/a	n/a	FAN	7	6	[0, 0, 0]	n/a	FR1	3	R1243T
707.878	1.618	712543	WORD	n/a	wordpools/wordpool_EN.txt	MUD	8	6	[0, 0, 0]	n/a	FR1	3	R1243T
709.496	0.817	714161	WORD_OFF	n/a	n/a	MUD	8	6	[0, 0, 0]	n/a	FR1	3	R1243T
710.313	1.616	714978	WORD	n/a	wordpools/wordpool_EN.txt	THUMB	9	6	[0, 0, 0]	n/a	FR1	3	R1243T
711.929	0.95	716594	WORD_OFF	n/a	n/a	THUMB	9	6	[0, 0, 0]	n/a	FR1	3	R1243T
712.879	1.602	717544	WORD	n/a	wordpools/wordpool_EN.txt	NOSE	10	6	[0, 0, 0]	n/a	FR1	3	R1243T
714.481	0.766	719146	WORD_OFF	n/a	n/a	NOSE	10	6	[0, 0, 0]	n/a	FR1	3	R1243T
715.247	1.616	719912	WORD	n/a	wordpools/wordpool_EN.txt	BOOT	11	6	[0, 0, 0]	n/a	FR1	3	R1243T
716.863	0.784	721528	WORD_OFF	n/a	n/a	BOOT	11	6	[0, 0, 0]	n/a	FR1	3	R1243T
717.647	1.618	722312	WORD	n/a	wordpools/wordpool_EN.txt	PASTE	12	6	[0, 0, 0]	n/a	FR1	3	R1243T
719.265	0.0	723930	WORD_OFF	n/a	n/a	PASTE	12	6	[0, 0, 0]	n/a	FR1	3	R1243T
719.265	0.0	723930	DISTRACT_START	n/a	n/a	n/a	-999	6	[0, 0, 0]	n/a	FR1	3	R1243T
719.265	0.017	723930	START	n/a	n/a	n/a	-999	6	[-999, -999, -999]	n/a	FR1	3	R1243T
719.282	3.884	723947	PROB	3.884	n/a	n/a	-999	6	[7, 1, 4]	12	FR1	3	R1243T
723.166	3.05	727830	PROB	3.05	n/a	n/a	-999	6	[6, 1, 3]	10	FR1	3	R1243T
726.216	2.699	730880	PROB	2.699	n/a	n/a	-999	6	[1, 2, 5]	8	FR1	3	R1243T
728.915	5.035	733579	PROB	5.035	n/a	n/a	-999	6	[7, 1, 5]	12	FR1	3	R1243T
733.95	8.65	738614	PROB	8.65	n/a	n/a	-999	6	[8, 9, 5]	21	FR1	3	R1243T
742.6	0.018	747263	STOP	n/a	n/a	n/a	-999	6	[-999, -999, -999]	n/a	FR1	3	R1243T
742.618	0.668	747281	DISTRACT_END	n/a	n/a	n/a	-999	6	[0, 0, 0]	n/a	FR1	3	R1243T
743.286	0.516	747949	RETRIEVAL_ORIENT	n/a	n/a	n/a	-999	6	[0, 0, 0]	n/a	FR1	3	R1243T
743.802	15.607	748465	REC_START	n/a	n/a	n/a	-999	6	[0, 0, 0]	n/a	FR1	3	R1243T
759.409	5.231	764071	REC_WORD	5.231	n/a	SLIME	-999	6	[0, 0, 0]	n/a	FR1	3	R1243T
764.64	7.104	769302	REC_WORD	7.104	n/a	THUMB	-999	6	[0, 0, 0]	n/a	FR1	3	R1243T
771.744	2.072	776405	REC_WORD	2.072	n/a	MUD	-999	6	[0, 0, 0]	n/a	FR1	3	R1243T
773.816	5.343	778477	REC_END	n/a	n/a	n/a	-999	6	[0, 0, 0]	n/a	FR1	3	R1243T
779.159	0.5	783820	TRIAL	n/a	n/a	n/a	-999	7	[0, 0, 0]	n/a	FR1	3	R1243T
779.659	10.428	784320	COUNTDOWN_START	n/a	n/a	n/a	-999	7	[0, 0, 0]	n/a	FR1	3	R1243T
790.087	0.008	794747	COUNTDOWN_END	n/a	n/a	n/a	-999	7	[0, 0, 0]	n/a	FR1	3	R1243T
790.095	1.615	794755	ORIENT	n/a	n/a	n/a	-999	7	[0, 0, 0]	n/a	FR1	3	R1243T
791.71	2.017	796370	ORIENT_OFF	n/a	n/a	n/a	-999	7	[0, 0, 0]	n/a	FR1	3	R1243T
793.727	1.602	798387	WORD	n/a	wordpools/wordpool_EN.txt	FOOD	1	7	[0, 0, 0]	n/a	FR1	3	R1243T
795.329	0.917	799989	WORD_OFF	n/a	n/a	FOOD	1	7	[0, 0, 0]	n/a	FR1	3	R1243T
796.246	1.615	800906	WORD	n/a	wordpools/wordpool_EN.txt	MOON	2	7	[0, 0, 0]	n/a	FR1	3	R1243T
797.861	0.984	802521	WORD_OFF	n/a	n/a	MOON	2	7	[0, 0, 0]	n/a	FR1	3	R1243T
798.845	1.601	803505	WORD	n/a	wordpools/wordpool_EN.txt	BLOOM	3	7	[0, 0, 0]	n/a	FR1	3	R1243T
800.446	0.784	805106	WORD_OFF	n/a	n/a	BLOOM	3	7	[0, 0, 0]	n/a	FR1	3	R1243T
801.23	1.616	805890	WORD	n/a	wordpools/wordpool_EN.txt	STAR	4	7	[0, 0, 0]	n/a	FR1	3	R1243T
802.846	0.917	807505	WORD_OFF	n/a	n/a	STAR	4	7	[0, 0, 0]	n/a	FR1	3	R1243T
803.763	1.618	808422	WORD	n/a	wordpools/wordpool_EN.txt	SUN	5	7	[0, 0, 0]	n/a	FR1	3	R1243T
805.381	0.95	810040	WORD_OFF	n/a	n/a	SUN	5	7	[0, 0, 0]	n/a	FR1	3	R1243T
806.331	1.616	810990	WORD	n/a	wordpools/wordpool_EN.txt	RICE	6	7	[0, 0, 0]	n/a	FR1	3	R1243T
807.947	0.833	812606	WORD_OFF	n/a	n/a	RICE	6	7	[0, 0, 0]	n/a	FR1	3	R1243T
808.78	1.601	813439	WORD	n/a	wordpools/wordpool_EN.txt	LAND	7	7	[0, 0, 0]	n/a	FR1	3	R1243T
810.381	0.967	815040	WORD_OFF	n/a	n/a	LAND	7	7	[0, 0, 0]	n/a	FR1	3	R1243T
811.348	1.616	816007	WORD	n/a	wordpools/wordpool_EN.txt	CAPE	8	7	[0, 0, 0]	n/a	FR1	3	R1243T
812.964	0.85	817623	WORD_OFF	n/a	n/a	CAPE	8	7	[0, 0, 0]	n/a	FR1	3	R1243T
813.814	1.618	818473	WORD	n/a	wordpools/wordpool_EN.txt	WHALE	9	7	[0, 0, 0]	n/a	FR1	3	R1243T
815.432	0.901	820091	WORD_OFF	n/a	n/a	WHALE	9	7	[0, 0, 0]	n/a	FR1	3	R1243T
816.333	1.616	820992	WORD	n/a	wordpools/wordpool_EN.txt	PLANT	10	7	[0, 0, 0]	n/a	FR1	3	R1243T
817.949	0.916	822608	WORD_OFF	n/a	n/a	PLANT	10	7	[0, 0, 0]	n/a	FR1	3	R1243T
818.865	1.601	823523	WORD	n/a	wordpools/wordpool_EN.txt	BEACH	11	7	[0, 0, 0]	n/a	FR1	3	R1243T
820.466	0.934	825124	WORD_OFF	n/a	n/a	BEACH	11	7	[0, 0, 0]	n/a	FR1	3	R1243T
821.4	1.617	826058	WORD	n/a	wordpools/wordpool_EN.txt	SEAL	12	7	[0, 0, 0]	n/a	FR1	3	R1243T
823.017	0.0	827675	WORD_OFF	n/a	n/a	SEAL	12	7	[0, 0, 0]	n/a	FR1	3	R1243T
823.017	0.001	827675	DISTRACT_START	n/a	n/a	n/a	-999	7	[0, 0, 0]	n/a	FR1	3	R1243T
823.018	0.016	827676	START	n/a	n/a	n/a	-999	7	[-999, -999, -999]	n/a	FR1	3	R1243T
823.034	6.118	827692	PROB	6.118	n/a	n/a	-999	7	[4, 9, 5]	18	FR1	3	R1243T
829.152	3.05	833810	PROB	3.05	n/a	n/a	-999	7	[1, 4, 1]	6	FR1	3	R1243T
832.202	3.317	836860	PROB	3.317	n/a	n/a	-999	7	[2, 4, 3]	9	FR1	3	R1243T
835.519	3.618	840176	PROB	3.618	n/a	n/a	-999	7	[7, 4, 3]	14	FR1	3	R1243T
839.137	3.184	843794	PROB	3.184	n/a	n/a	-999	7	[2, 2, 1]	5	FR1	3	R1243T
842.321	5.177	846978	PROB	5.177	n/a	n/a	-999	7	[2, 6, 7]	13	FR1	3	R1243T
847.498	0.007	852155	STOP	n/a	n/a	n/a	-999	7	[-999, -999, -999]	n/a	FR1	3	R1243T
847.505	0.583	852162	DISTRACT_END	n/a	n/a	n/a	-999	7	[0, 0, 0]	n/a	FR1	3	R1243T
848.088	0.517	852745	RETRIEVAL_ORIENT	n/a	n/a	n/a	-999	7	[0, 0, 0]	n/a	FR1	3	R1243T
848.605	4.936	853262	REC_START	n/a	n/a	n/a	-999	7	[0, 0, 0]	n/a	FR1	3	R1243T
853.541	1.329	858197	REC_WORD	1.329	n/a	MOON	-999	7	[0, 0, 0]	n/a	FR1	3	R1243T
854.87	1.695	859526	REC_WORD	1.695	n/a	STAR	-999	7	[0, 0, 0]	n/a	FR1	3	R1243T
856.565	2.341	861221	REC_WORD	2.341	n/a	SUN	-999	7	[0, 0, 0]	n/a	FR1	3	R1243T
858.906	6.371	863562	REC_WORD	6.371	n/a	LAND	-999	7	[0, 0, 0]	n/a	FR1	3	R1243T
865.277	1.463	869933	REC_WORD	1.463	n/a	WHALE	-999	7	[0, 0, 0]	n/a	FR1	3	R1243T
866.74	11.877	871396	REC_WORD	11.877	n/a	CAPE	-999	7	[0, 0, 0]	n/a	FR1	3	R1243T
878.617	5.595	883272	REC_END	n/a	n/a	n/a	-999	7	[0, 0, 0]	n/a	FR1	3	R1243T
884.212	0.5	888866	TRIAL	n/a	n/a	n/a	-999	8	[0, 0, 0]	n/a	FR1	3	R1243T
884.712	10.428	889366	COUNTDOWN_START	n/a	n/a	n/a	-999	8	[0, 0, 0]	n/a	FR1	3	R1243T
895.14	0.007	899794	COUNTDOWN_END	n/a	n/a	n/a	-999	8	[0, 0, 0]	n/a	FR1	3	R1243T
895.147	1.616	899801	ORIENT	n/a	n/a	n/a	-999	8	[0, 0, 0]	n/a	FR1	3	R1243T
896.763	2.15	901417	ORIENT_OFF	n/a	n/a	n/a	-999	8	[0, 0, 0]	n/a	FR1	3	R1243T
898.913	1.618	903567	WORD	n/a	wordpools/wordpool_EN.txt	LOCK	1	8	[0, 0, 0]	n/a	FR1	3	R1243T
900.531	0.767	905184	WORD_OFF	n/a	n/a	LOCK	1	8	[0, 0, 0]	n/a	FR1	3	R1243T
901.298	1.616	905951	WORD	n/a	wordpools/wordpool_EN.txt	CLOCK	2	8	[0, 0, 0]	n/a	FR1	3	R1243T
902.914	0.95	907567	WORD_OFF	n/a	n/a	CLOCK	2	8	[0, 0, 0]	n/a	FR1	3	R1243T
903.864	1.618	908517	WORD	n/a	wordpools/wordpool_EN.txt	FORK	3	8	[0, 0, 0]	n/a	FR1	3	R1243T
905.482	0.767	910135	WORD_OFF	n/a	n/a	FORK	3	8	[0, 0, 0]	n/a	FR1	3	R1243T
906.249	1.616	910902	WORD	n/a	wordpools/wordpool_EN.txt	CLOWN	4	8	[0, 0, 0]	n/a	FR1	3	R1243T
907.865	0.833	912518	WORD_OFF	n/a	n/a	CLOWN	4	8	[0, 0, 0]	n/a	FR1	3	R1243T
908.698	1.618	913351	WORD	n/a	wordpools/wordpool_EN.txt	STREET	5	8	[0, 0, 0]	n/a	FR1	3	R1243T
910.316	0.867	914969	WORD_OFF	n/a	n/a	STREET	5	8	[0, 0, 0]	n/a	FR1	3	R1243T
911.183	1.616	915836	WORD	n/a	wordpools/wordpool_EN.txt	SHIRT	6	8	[0, 0, 0]	n/a	FR1	3	R1243T
912.799	0.8	917452	WORD_OFF	n/a	n/a	SHIRT	6	8	[0, 0, 0]	n/a	FR1	3	R1243T
913.599	1.618	918252	WORD	n/a	wordpools/wordpool_EN.txt	BAND	7	8	[0, 0, 0]	n/a	FR1	3	R1243T
915.217	1.0	919870	WORD_OFF	n/a	n/a	BAND	7	8	[0, 0, 0]	n/a	FR1	3	R1243T
916.217	1.616	920870	WORD	n/a	wordpools/wordpool_EN.txt	CART	8	8	[0, 0, 0]	n/a	FR1	3	R1243T
917.833	0.834	922485	WORD_OFF	n/a	n/a	CART	8	8	[0, 0, 0]	n/a	FR1	3	R1243T
918.667	1.601	923319	WORD	n/a	wordpools/wordpool_EN.txt	COUCH	9	8	[0, 0, 0]	n/a	FR1	3	R1243T
920.268	0.784	924920	WORD_OFF	n/a	n/a	COUCH	9	8	[0, 0, 0]	n/a	FR1	3	R1243T
921.052	1.616	925704	WORD	n/a	wordpools/wordpool_EN.txt	TRUCK	10	8	[0, 0, 0]	n/a	FR1	3	R1243T
922.668	0.9	927320	WORD_OFF	n/a	n/a	TRUCK	10	8	[0, 0, 0]	n/a	FR1	3	R1243T
923.568	1.618	928220	WORD	n/a	wordpools/wordpool_EN.txt	DIME	11	8	[0, 0, 0]	n/a	FR1	3	R1243T
925.186	0.95	929838	WORD_OFF	n/a	n/a	DIME	11	8	[0, 0, 0]	n/a	FR1	3	R1243T
926.136	1.616	930788	WORD	n/a	wordpools/wordpool_EN.txt	ARK	12	8	[0, 0, 0]	n/a	FR1	3	R1243T
927.752	0.0	932404	WORD_OFF	n/a	n/a	ARK	12	8	[0, 0, 0]	n/a	FR1	3	R1243T
927.752	0.0	932404	DISTRACT_START	n/a	n/a	n/a	-999	8	[0, 0, 0]	n/a	FR1	3	R1243T
927.752	0.016	932404	START	n/a	n/a	n/a	-999	8	[-999, -999, -999]	n/a	FR1	3	R1243T
927.768	4.569	932420	PROB	4.569	n/a	n/a	-999	8	[6, 5, 1]	12	FR1	3	R1243T
932.337	3.984	936989	PROB	3.984	n/a	n/a	-999	8	[8, 5, 2]	13	FR1	3	R1243T
936.321	3.817	940972	PROB	3.817	n/a	n/a	-999	8	[3, 2, 6]	11	FR1	3	R1243T
940.138	2.918	944789	PROB	2.918	n/a	n/a	-999	8	[2, 1, 3]	6	FR1	3	R1243T
943.056	4.566	947707	PROB	4.566	n/a	n/a	-999	8	[9, 3, 4]	16	FR1	3	R1243T
947.622	5.187	952273	PROB	5.187	n/a	n/a	-999	8	[8, 9, 5]	21	FR1	3	R1243T
952.809	0.014	957459	STOP	n/a	n/a	n/a	-999	8	[-999, -999, -999]	n/a	FR1	3	R1243T
952.823	0.635	957473	DISTRACT_END	n/a	n/a	n/a	-999	8	[0, 0, 0]	n/a	FR1	3	R1243T
953.458	0.516	958108	RETRIEVAL_ORIENT	n/a	n/a	n/a	-999	8	[0, 0, 0]	n/a	FR1	3	R1243T
953.974	8.847	958624	REC_START	n/a	n/a	n/a	-999	8	[0, 0, 0]	n/a	FR1	3	R1243T
962.821	4.504	967471	REC_WORD	4.504	n/a	CLOCK	-999	8	[0, 0, 0]	n/a	FR1	3	R1243T
967.325	11.482	971974	REC_WORD	11.482	n/a	ARM	-999	8	[0, 0, 0]	n/a	FR1	3	R1243T
978.807	5.179	983456	REC_WORD	5.179	n/a	PLOT	-999	8	[0, 0, 0]	n/a	FR1	3	R1243T
983.986	6.445	988634	REC_END	n/a	n/a	n/a	-999	8	[0, 0, 0]	n/a	FR1	3	R1243T
990.431	0.5	995079	TRIAL	n/a	n/a	n/a	-999	9	[0, 0, 0]	n/a	FR1	3	R1243T
990.931	10.428	995579	COUNTDOWN_START	n/a	n/a	n/a	-999	9	[0, 0, 0]	n/a	FR1	3	R1243T
1001.359	0.007	1006006	COUNTDOWN_END	n/a	n/a	n/a	-999	9	[0, 0, 0]	n/a	FR1	3	R1243T
1001.366	1.616	1006013	ORIENT	n/a	n/a	n/a	-999	9	[0, 0, 0]	n/a	FR1	3	R1243T
1002.982	1.984	1007629	ORIENT_OFF	n/a	n/a	n/a	-999	9	[0, 0, 0]	n/a	FR1	3	R1243T
1004.966	1.617	1009613	WORD	n/a	wordpools/wordpool_EN.txt	ICE	1	9	[0, 0, 0]	n/a	FR1	3	R1243T
1006.583	0.901	1011230	WORD_OFF	n/a	n/a	ICE	1	9	[0, 0, 0]	n/a	FR1	3	R1243T
1007.484	1.617	1012131	WORD	n/a	wordpools/wordpool_EN.txt	BRANCH	2	9	[0, 0, 0]	n/a	FR1	3	R1243T
1009.101	0.967	1013748	WORD_OFF	n/a	n/a	BRANCH	2	9	[0, 0, 0]	n/a	FR1	3	R1243T
1010.068	1.616	1014715	WORD	n/a	wordpools/wordpool_EN.txt	FLUTE	3	9	[0, 0, 0]	n/a	FR1	3	R1243T
1011.684	0.834	1016331	WORD_OFF	n/a	n/a	FLUTE	3	9	[0, 0, 0]	n/a	FR1	3	R1243T
1012.518	1.617	1017165	WORD	n/a	wordpools/wordpool_EN.txt	GRAPE	4	9	[0, 0, 0]	n/a	FR1	3	R1243T
1014.135	0.934	1018782	WORD_OFF	n/a	n/a	GRAPE	4	9	[0, 0, 0]	n/a	FR1	3	R1243T
1015.069	1.616	1019715	WORD	n/a	wordpools/wordpool_EN.txt	TOAD	5	9	[0, 0, 0]	n/a	FR1	3	R1243T
1016.685	0.801	1021331	WORD_OFF	n/a	n/a	TOAD	5	9	[0, 0, 0]	n/a	FR1	3	R1243T
1017.486	1.617	1022132	WORD	n/a	wordpools/wordpool_EN.txt	DOG	6	9	[0, 0, 0]	n/a	FR1	3	R1243T
1019.103	0.882	1023749	WORD_OFF	n/a	n/a	DOG	6	9	[0, 0, 0]	n/a	FR1	3	R1243T
1019.985	1.617	1024631	WORD	n/a	wordpools/wordpool_EN.txt	CONE	7	9	[0, 0, 0]	n/a	FR1	3	R1243T
1021.602	0.95	1026248	WORD_OFF	n/a	n/a	CONE	7	9	[0, 0, 0]	n/a	FR1	3	R1243T
1022.552	1.601	1027198	WORD	n/a	wordpools/wordpool_EN.txt	PEAR	8	9	[0, 0, 0]	n/a	FR1	3	R1243T
1024.153	0.968	1028799	WORD_OFF	n/a	n/a	PEAR	8	9	[0, 0, 0]	n/a	FR1	3	R1243T
1025.121	1.616	1029767	WORD	n/a	wordpools/wordpool_EN.txt	TRASH	9	9	[0, 0, 0]	n/a	FR1	3	R1243T
1026.737	0.784	1031383	WORD_OFF	n/a	n/a	TRASH	9	9	[0, 0, 0]	n/a	FR1	3	R1243T
1027.521	1.617	1032167	WORD	n/a	wordpools/wordpool_EN.txt	STEM	10	9	[0, 0, 0]	n/a	FR1	3	R1243T
1029.138	0.799	1033784	WORD_OFF	n/a	n/a	STEM	10	9	[0, 0, 0]	n/a	FR1	3	R1243T
1029.937	1.601	1034583	WORD	n/a	wordpools/wordpool_EN.txt	MAZE	11	9	[0, 0, 0]	n/a	FR1	3	R1243T
1031.538	0.767	1036183	WORD_OFF	n/a	n/a	MAZE	11	9	[0, 0, 0]	n/a	FR1	3	R1243T
1032.305	1.616	1036950	WORD	n/a	wordpools/wordpool_EN.txt	RAKE	12	9	[0, 0, 0]	n/a	FR1	3	R1243T
1033.921	0.0	1038566	DISTRACT_START	n/a	n/a	n/a	-999	9	[0, 0, 0]	n/a	FR1	3	R1243T
1033.921	0.001	1038566	WORD_OFF	n/a	n/a	RAKE	12	9	[0, 0, 0]	n/a	FR1	3	R1243T
1033.922	0.016	1038567	START	n/a	n/a	n/a	-999	9	[-999, -999, -999]	n/a	FR1	3	R1243T
1033.938	7.801	1038583	PROB	7.801	n/a	n/a	-999	9	[9, 9, 2]	20	FR1	3	R1243T
1041.739	3.735	1046384	PROB	3.735	n/a	n/a	-999	9	[2, 8, 8]	18	FR1	3	R1243T
1045.474	3.383	1050119	PROB	3.383	n/a	n/a	-999	9	[6, 2, 9]	17	FR1	3	R1243T
1048.857	2.934	1053501	PROB	2.934	n/a	n/a	-999	9	[1, 1, 9]	11	FR1	3	R1243T
1051.791	3.322	1056435	PROB	3.322	n/a	n/a	-999	9	[5, 4, 6]	15	FR1	3	R1243T
1055.113	0.013	1059757	STOP	n/a	n/a	n/a	-999	9	[-999, -999, -999]	n/a	FR1	3	R1243T
1055.126	0.682	1059770	DISTRACT_END	n/a	n/a	n/a	-999	9	[0, 0, 0]	n/a	FR1	3	R1243T
1055.808	0.519	1060452	RETRIEVAL_ORIENT	n/a	n/a	n/a	-999	9	[0, 0, 0]	n/a	FR1	3	R1243T
1056.327	1.679	1060971	REC_START	n/a	n/a	n/a	-999	9	[0, 0, 0]	n/a	FR1	3	R1243T
1058.006	1.235	1062650	REC_WORD	1.235	n/a	GRAPE	-999	9	[0, 0, 0]	n/a	FR1	3	R1243T
1059.241	6.733	1063885	REC_WORD	6.733	n/a	PEAR	-999	9	[0, 0, 0]	n/a	FR1	3	R1243T
1065.974	0.995	1070617	REC_WORD_VV	0.995	n/a	<>	-999	9	[0, 0, 0]	n/a	FR1	3	R1243T
1066.969	13.755	1071612	REC_WORD	13.755	n/a	DOG	-999	9	[0, 0, 0]	n/a	FR1	3	R1243T
1080.724	5.614	1085366	REC_WORD	5.614	n/a	FLUTE	-999	9	[0, 0, 0]	n/a	FR1	3	R1243T
1086.338	6.227	1090980	REC_END	n/a	n/a	n/a	-999	9	[0, 0, 0]	n/a	FR1	3	R1243T
1092.565	0.5	1097207	TRIAL	n/a	n/a	n/a	-999	10	[0, 0, 0]	n/a	FR1	3	R1243T
1093.065	10.428	1097707	COUNTDOWN_START	n/a	n/a	n/a	-999	10	[0, 0, 0]	n/a	FR1	3	R1243T
1103.493	0.009	1108134	COUNTDOWN_END	n/a	n/a	n/a	-999	10	[0, 0, 0]	n/a	FR1	3	R1243T
1103.502	1.617	1108143	ORIENT	n/a	n/a	n/a	-999	10	[0, 0, 0]	n/a	FR1	3	R1243T
1105.119	1.866	1109760	ORIENT_OFF	n/a	n/a	n/a	-999	10	[0, 0, 0]	n/a	FR1	3	R1243T
1106.985	1.616	1111626	WORD	n/a	wordpools/wordpool_EN.txt	SEED	1	10	[0, 0, 0]	n/a	FR1	3	R1243T
1108.601	0.984	1113242	WORD_OFF	n/a	n/a	SEED	1	10	[0, 0, 0]	n/a	FR1	3	R1243T
1109.585	1.618	1114226	WORD	n/a	wordpools/wordpool_EN.txt	ROOT	2	10	[0, 0, 0]	n/a	FR1	3	R1243T
1111.203	0.817	1115844	WORD_OFF	n/a	n/a	ROOT	2	10	[0, 0, 0]	n/a	FR1	3	R1243T
1112.02	1.615	1116661	WORD	n/a	wordpools/wordpool_EN.txt	SHELL	3	10	[0, 0, 0]	n/a	FR1	3	R1243T
1113.635	0.968	1118275	WORD_OFF	n/a	n/a	SHELL	3	10	[0, 0, 0]	n/a	FR1	3	R1243T
1114.603	1.617	1119243	WORD	n/a	wordpools/wordpool_EN.txt	SNAIL	4	10	[0, 0, 0]	n/a	FR1	3	R1243T
1116.22	0.967	1120860	WORD_OFF	n/a	n/a	SNAIL	4	10	[0, 0, 0]	n/a	FR1	3	R1243T
1117.187	1.616	1121827	WORD	n/a	wordpools/wordpool_EN.txt	HOOF	5	10	[0, 0, 0]	n/a	FR1	3	R1243T
1118.803	1.001	1123443	WORD_OFF	n/a	n/a	HOOF	5	10	[0, 0, 0]	n/a	FR1	3	R1243T
1119.804	1.617	1124444	WORD	n/a	wordpools/wordpool_EN.txt	MILK	6	10	[0, 0, 0]	n/a	FR1	3	R1243T
1121.421	0.784	1126061	WORD_OFF	n/a	n/a	MILK	6	10	[0, 0, 0]	n/a	FR1	3	R1243T
1122.205	1.616	1126845	WORD	n/a	wordpools/wordpool_EN.txt	CORN	7	10	[0, 0, 0]	n/a	FR1	3	R1243T
1123.821	0.983	1128461	WORD_OFF	n/a	n/a	CORN	7	10	[0, 0, 0]	n/a	FR1	3	R1243T
1124.804	1.601	1129444	WORD	n/a	wordpools/wordpool_EN.txt	MAP	8	10	[0, 0, 0]	n/a	FR1	3	R1243T
1126.405	0.968	1131045	WORD_OFF	n/a	n/a	MAP	8	10	[0, 0, 0]	n/a	FR1	3	R1243T
1127.373	1.616	1132013	WORD	n/a	wordpools/wordpool_EN.txt	STAIR	9	10	[0, 0, 0]	n/a	FR1	3	R1243T
1128.989	1.0	1133629	WORD_OFF	n/a	n/a	STAIR	9	10	[0, 0, 0]	n/a	FR1	3	R1243T
1129.989	1.617	1134628	WORD	n/a	wordpools/wordpool_EN.txt	ANT	10	10	[0, 0, 0]	n/a	FR1	3	R1243T
1131.606	0.884	1136245	WORD_OFF	n/a	n/a	ANT	10	10	[0, 0, 0]	n/a	FR1	3	R1243T
1132.49	1.617	1137129	WORD	n/a	wordpools/wordpool_EN.txt	LEAF	11	10	[0, 0, 0]	n/a	FR1	3	R1243T
1134.107	0.783	1138746	WORD_OFF	n/a	n/a	LEAF	11	10	[0, 0, 0]	n/a	FR1	3	R1243T
1134.89	1.617	1139529	WORD	n/a	wordpools/wordpool_EN.txt	SHRIMP	12	10	[0, 0, 0]	n/a	FR1	3	R1243T
1136.507	0.0	1141146	WORD_OFF	n/a	n/a	SHRIMP	12	10	[0, 0, 0]	n/a	FR1	3	R1243T
1136.507	0.001	1141146	DISTRACT_START	n/a	n/a	n/a	-999	10	[0, 0, 0]	n/a	FR1	3	R1243T
1136.508	0.016	1141147	START	n/a	n/a	n/a	-999	10	[-999, -999, -999]	n/a	FR1	3	R1243T
1136.524	4.217	1141163	PROB	4.217	n/a	n/a	-999	10	[7, 3, 3]	13	FR1	3	R1243T
1140.741	4.501	1145380	PROB	4.501	n/a	n/a	-999	10	[7, 7, 2]	16	FR1	3	R1243T
1145.242	3.184	1149881	PROB	3.184	n/a	n/a	-999	10	[6, 2, 6]	14	FR1	3	R1243T
1148.426	2.533	1153064	PROB	2.533	n/a	n/a	-999	10	[2, 1, 6]	9	FR1	3	R1243T
1150.959	2.967	1155597	PROB	2.967	n/a	n/a	-999	10	[3, 7, 3]	13	FR1	3	R1243T
1153.926	3.618	1158564	PROB	3.618	n/a	n/a	-999	10	[5, 3, 5]	13	FR1	3	R1243T
1157.544	0.016	1162182	STOP	n/a	n/a	n/a	-999	10	[-999, -999, -999]	n/a	FR1	3	R1243T
1157.56	0.685	1162198	DISTRACT_END	n/a	n/a	n/a	-999	10	[0, 0, 0]	n/a	FR1	3	R1243T
1158.245	0.516	1162883	RETRIEVAL_ORIENT	n/a	n/a	n/a	-999	10	[0, 0, 0]	n/a	FR1	3	R1243T
1158.761	2.226	1163399	REC_START	n/a	n/a	n/a	-999	10	[0, 0, 0]	n/a	FR1	3	R1243T
1160.987	1.366	1165625	REC_WORD	1.366	n/a	SEED	-999	10	[0, 0, 0]	n/a	FR1	3	R1243T
1162.353	4.489	1166990	REC_WORD	4.489	n/a	CORN	-999	10	[0, 0, 0]	n/a	FR1	3	R1243T
1166.842	21.93	1171479	REC_WORD	21.93	n/a	TOAD	-999	10	[0, 0, 0]	n/a	FR1	3	R1243T
1188.772	5.396	1193408	REC_END	n/a	n/a	n/a	-999	10	[0, 0, 0]	n/a	FR1	3	R1243T
1194.168	0.5	1198804	TRIAL	n/a	n/a	n/a	-999	11	[0, 0, 0]	n/a	FR1	3	R1243T
1194.668	10.428	1199304	COUNTDOWN_START	n/a	n/a	n/a	-999	11	[0, 0, 0]	n/a	FR1	3	R1243T
1205.096	0.007	1209731	COUNTDOWN_END	n/a	n/a	n/a	-999	11	[0, 0, 0]	n/a	FR1	3	R1243T
1205.103	1.616	1209738	ORIENT	n/a	n/a	n/a	-999	11	[0, 0, 0]	n/a	FR1	3	R1243T
1206.719	1.984	1211354	ORIENT_OFF	n/a	n/a	n/a	-999	11	[0, 0, 0]	n/a	FR1	3	R1243T
1208.703	1.618	1213338	WORD	n/a	wordpools/wordpool_EN.txt	BEAN	1	11	[0, 0, 0]	n/a	FR1	3	R1243T
1210.321	0.9	1214956	WORD_OFF	n/a	n/a	BEAN	1	11	[0, 0, 0]	n/a	FR1	3	R1243T
1211.221	1.616	1215856	WORD	n/a	wordpools/wordpool_EN.txt	WALL	2	11	[0, 0, 0]	n/a	FR1	3	R1243T
1212.837	1.0	1217471	WORD_OFF	n/a	n/a	WALL	2	11	[0, 0, 0]	n/a	FR1	3	R1243T
1213.837	1.601	1218471	WORD	n/a	wordpools/wordpool_EN.txt	TENT	3	11	[0, 0, 0]	n/a	FR1	3	R1243T
1215.438	0.767	1220072	WORD_OFF	n/a	n/a	TENT	3	11	[0, 0, 0]	n/a	FR1	3	R1243T
1216.205	1.616	1220839	WORD	n/a	wordpools/wordpool_EN.txt	RUG	4	11	[0, 0, 0]	n/a	FR1	3	R1243T
1217.821	1.001	1222455	WORD_OFF	n/a	n/a	RUG	4	11	[0, 0, 0]	n/a	FR1	3	R1243T
1218.822	1.618	1223456	WORD	n/a	wordpools/wordpool_EN.txt	SOUP	5	11	[0, 0, 0]	n/a	FR1	3	R1243T
1220.44	0.966	1225074	WORD_OFF	n/a	n/a	SOUP	5	11	[0, 0, 0]	n/a	FR1	3	R1243T
1221.406	1.617	1226040	WORD	n/a	wordpools/wordpool_EN.txt	VINE	6	11	[0, 0, 0]	n/a	FR1	3	R1243T
1223.023	0.783	1227657	WORD_OFF	n/a	n/a	VINE	6	11	[0, 0, 0]	n/a	FR1	3	R1243T
1223.806	1.618	1228440	WORD	n/a	wordpools/wordpool_EN.txt	LAMP	7	11	[0, 0, 0]	n/a	FR1	3	R1243T
1225.424	0.85	1230058	WORD_OFF	n/a	n/a	LAMP	7	11	[0, 0, 0]	n/a	FR1	3	R1243T
1226.274	1.616	1230908	WORD	n/a	wordpools/wordpool_EN.txt	FLAME	8	11	[0, 0, 0]	n/a	FR1	3	R1243T
1227.89	0.9	1232523	WORD_OFF	n/a	n/a	FLAME	8	11	[0, 0, 0]	n/a	FR1	3	R1243T
1228.79	1.618	1233423	WORD	n/a	wordpools/wordpool_EN.txt	BROOM	9	11	[0, 0, 0]	n/a	FR1	3	R1243T
1230.408	0.983	1235041	WORD_OFF	n/a	n/a	BROOM	9	11	[0, 0, 0]	n/a	FR1	3	R1243T
1231.391	1.616	1236024	WORD	n/a	wordpools/wordpool_EN.txt	SOAP	10	11	[0, 0, 0]	n/a	FR1	3	R1243T
1233.007	0.901	1237640	WORD_OFF	n/a	n/a	SOAP	10	11	[0, 0, 0]	n/a	FR1	3	R1243T
1233.908	1.618	1238541	WORD	n/a	wordpools/wordpool_EN.txt	APE	11	11	[0, 0, 0]	n/a	FR1	3	R1243T
1235.526	0.816	1240159	WORD_OFF	n/a	n/a	APE	11	11	[0, 0, 0]	n/a	FR1	3	R1243T
1236.342	1.616	1240975	WORD	n/a	wordpools/wordpool_EN.txt	JAR	12	11	[0, 0, 0]	n/a	FR1	3	R1243T
1237.958	0.0	1242591	WORD_OFF	n/a	n/a	JAR	12	11	[0, 0, 0]	n/a	FR1	3	R1243T
1237.958	0.001	1242591	DISTRACT_START	n/a	n/a	n/a	-999	11	[0, 0, 0]	n/a	FR1	3	R1243T
1237.959	0.016	1242592	START	n/a	n/a	n/a	-999	11	[-999, -999, -999]	n/a	FR1	3	R1243T
1237.975	4.368	1242608	PROB	4.368	n/a	n/a	-999	11	[2, 3, 5]	10	FR1	3	R1243T
1242.343	3.667	1246976	PROB	3.667	n/a	n/a	-999	11	[9, 5, 1]	15	FR1	3	R1243T
1246.01	3.751	1250642	PROB	3.751	n/a	n/a	-999	11	[8, 8, 8]	24	FR1	3	R1243T
1249.761	3.967	1254393	PROB	3.967	n/a	n/a	-999	11	[3, 8, 1]	12	FR1	3	R1243T
1253.728	5.353	1258360	PROB	5.353	n/a	n/a	-999	11	[3, 8, 2]	13	FR1	3	R1243T
1259.081	0.016	1263713	STOP	n/a	n/a	n/a	-999	11	[-999, -999, -999]	n/a	FR1	3	R1243T
1259.097	0.682	1263729	DISTRACT_END	n/a	n/a	n/a	-999	11	[0, 0, 0]	n/a	FR1	3	R1243T
1259.779	0.519	1264411	RETRIEVAL_ORIENT	n/a	n/a	n/a	-999	11	[0, 0, 0]	n/a	FR1	3	R1243T
1260.298	2.502	1264930	REC_START	n/a	n/a	n/a	-999	11	[0, 0, 0]	n/a	FR1	3	R1243T
1262.8	2.878	1267431	REC_WORD	2.878	n/a	SOAP	-999	11	[0, 0, 0]	n/a	FR1	3	R1243T
1265.678	1.171	1270309	REC_WORD	1.171	n/a	SHELL	-999	11	[0, 0, 0]	n/a	FR1	3	R1243T
1266.849	1.377	1271480	REC_WORD	1.377	n/a	SNAIL	-999	11	[0, 0, 0]	n/a	FR1	3	R1243T
1268.226	12.253	1272857	REC_WORD	12.253	n/a	BROOM	-999	11	[0, 0, 0]	n/a	FR1	3	R1243T
1280.479	9.594	1285109	REC_WORD	9.594	n/a	HOSE	-999	11	[0, 0, 0]	n/a	FR1	3	R1243T
1290.073	0.237	1294703	REC_WORD	0.237	n/a	LAMP	-999	11	[0, 0, 0]	n/a	FR1	3	R1243T
1290.31	6.81	1294940	REC_END	n/a	n/a	n/a	-999	11	[0, 0, 0]	n/a	FR1	3	R1243T
1297.12	0.5	1301749	TRIAL	n/a	n/a	n/a	-999	12	[0, 0, 0]	n/a	FR1	3	R1243T
1297.62	10.428	1302249	COUNTDOWN_START	n/a	n/a	n/a	-999	12	[0, 0, 0]	n/a	FR1	3	R1243T
1308.048	0.007	1312677	COUNTDOWN_END	n/a	n/a	n/a	-999	12	[0, 0, 0]	n/a	FR1	3	R1243T
1308.055	1.616	1312684	ORIENT	n/a	n/a	n/a	-999	12	[0, 0, 0]	n/a	FR1	3	R1243T
1309.671	1.917	1314299	ORIENT_OFF	n/a	n/a	n/a	-999	12	[0, 0, 0]	n/a	FR1	3	R1243T
1311.588	1.618	1316216	WORD	n/a	wordpools/wordpool_EN.txt	FOX	1	12	[0, 0, 0]	n/a	FR1	3	R1243T
1313.206	0.967	1317834	WORD_OFF	n/a	n/a	FOX	1	12	[0, 0, 0]	n/a	FR1	3	R1243T
1314.173	1.616	1318801	WORD	n/a	wordpools/wordpool_EN.txt	KITE	2	12	[0, 0, 0]	n/a	FR1	3	R1243T
1315.789	0.883	1320417	WORD_OFF	n/a	n/a	KITE	2	12	[0, 0, 0]	n/a	FR1	3	R1243T
1316.672	1.602	1321300	WORD	n/a	wordpools/wordpool_EN.txt	FLEA	3	12	[0, 0, 0]	n/a	FR1	3	R1243T
1318.274	0.85	1322902	WORD_OFF	n/a	n/a	FLEA	3	12	[0, 0, 0]	n/a	FR1	3	R1243T
1319.124	1.616	1323752	WORD	n/a	wordpools/wordpool_EN.txt	BIRD	4	12	[0, 0, 0]	n/a	FR1	3	R1243T
1320.74	0.984	1325368	WORD_OFF	n/a	n/a	BIRD	4	12	[0, 0, 0]	n/a	FR1	3	R1243T
1321.724	1.618	1326352	WORD	n/a	wordpools/wordpool_EN.txt	HAT	5	12	[0, 0, 0]	n/a	FR1	3	R1243T
1323.342	0.783	1327970	WORD_OFF	n/a	n/a	HAT	5	12	[0, 0, 0]	n/a	FR1	3	R1243T
1324.125	1.616	1328753	WORD	n/a	wordpools/wordpool_EN.txt	PEN	6	12	[0, 0, 0]	n/a	FR1	3	R1243T
1325.741	0.785	1330369	WORD_OFF	n/a	n/a	PEN	6	12	[0, 0, 0]	n/a	FR1	3	R1243T
1326.526	1.616	1331153	WORD	n/a	wordpools/wordpool_EN.txt	COW	7	12	[0, 0, 0]	n/a	FR1	3	R1243T
1328.142	0.901	1332769	WORD_OFF	n/a	n/a	COW	7	12	[0, 0, 0]	n/a	FR1	3	R1243T
1329.043	1.616	1333670	WORD	n/a	wordpools/wordpool_EN.txt	DEER	8	12	[0, 0, 0]	n/a	FR1	3	R1243T
1330.659	0.916	1335286	WORD_OFF	n/a	n/a	DEER	8	12	[0, 0, 0]	n/a	FR1	3	R1243T
1331.575	1.602	1336202	WORD	n/a	wordpools/wordpool_EN.txt	SNAKE	9	12	[0, 0, 0]	n/a	FR1	3	R1243T
1333.177	0.85	1337804	WORD_OFF	n/a	n/a	SNAKE	9	12	[0, 0, 0]	n/a	FR1	3	R1243T
1334.027	1.616	1338654	WORD	n/a	wordpools/wordpool_EN.txt	SOCK	10	12	[0, 0, 0]	n/a	FR1	3	R1243T
1335.643	0.967	1340270	WORD_OFF	n/a	n/a	SOCK	10	12	[0, 0, 0]	n/a	FR1	3	R1243T
1336.61	1.618	1341237	WORD	n/a	wordpools/wordpool_EN.txt	BEAR	11	12	[0, 0, 0]	n/a	FR1	3	R1243T
1338.228	0.765	1342855	WORD_OFF	n/a	n/a	BEAR	11	12	[0, 0, 0]	n/a	FR1	3	R1243T
1338.993	1.601	1343620	WORD	n/a	wordpools/wordpool_EN.txt	PIG	12	12	[0, 0, 0]	n/a	FR1	3	R1243T
1340.594	0.0	1345221	WORD_OFF	n/a	n/a	PIG	12	12	[0, 0, 0]	n/a	FR1	3	R1243T
1340.594	0.0	1345221	DISTRACT_START	n/a	n/a	n/a	-999	12	[0, 0, 0]	n/a	FR1	3	R1243T
1340.594	0.016	1345221	START	n/a	n/a	n/a	-999	12	[-999, -999, -999]	n/a	FR1	3	R1243T
1340.61	7.419	1345237	PROB	7.419	n/a	n/a	-999	12	[6, 8, 6]	20	FR1	3	R1243T
1348.029	3.468	1352655	PROB	3.468	n/a	n/a	-999	12	[2, 5, 7]	14	FR1	3	R1243T
1351.497	4.734	1356123	PROB	4.734	n/a	n/a	-999	12	[4, 2, 2]	8	FR1	3	R1243T
1356.231	3.034	1360857	PROB	3.034	n/a	n/a	-999	12	[1, 5, 6]	12	FR1	3	R1243T
1359.265	4.816	1363890	PROB	4.816	n/a	n/a	-999	12	[6, 5, 9]	20	FR1	3	R1243T
1364.081	0.018	1368706	STOP	n/a	n/a	n/a	-999	12	[-999, -999, -999]	n/a	FR1	3	R1243T
1364.099	0.649	1368724	DISTRACT_END	n/a	n/a	n/a	-999	12	[0, 0, 0]	n/a	FR1	3	R1243T
1364.748	0.519	1369373	RETRIEVAL_ORIENT	n/a	n/a	n/a	-999	12	[0, 0, 0]	n/a	FR1	3	R1243T
1365.267	1.219	1369892	REC_START	n/a	n/a	n/a	-999	12	[0, 0, 0]	n/a	FR1	3	R1243T
1366.486	1.816	1371111	REC_WORD	1.816	n/a	FOX	-999	12	[0, 0, 0]	n/a	FR1	3	R1243T
1368.302	1.658	1372927	REC_WORD	1.658	n/a	DEER	-999	12	[0, 0, 0]	n/a	FR1	3	R1243T
1369.96	2.25	1374585	REC_WORD	2.25	n/a	SNAKE	-999	12	[0, 0, 0]	n/a	FR1	3	R1243T
1372.21	7.167	1376835	REC_WORD	7.167	n/a	PEN	-999	12	[0, 0, 0]	n/a	FR1	3	R1243T
1379.377	15.901	1384001	REC_WORD	15.901	n/a	COW	-999	12	[0, 0, 0]	n/a	FR1	3	R1243T
1395.278	5.593	1399901	REC_END	n/a	n/a	n/a	-999	12	[0, 0, 0]	n/a	FR1	3	R1243T
1400.871	0.5	1405494	TRIAL	n/a	n/a	n/a	-999	13	[0, 0, 0]	n/a	FR1	3	R1243T
1401.371	10.428	1405994	COUNTDOWN_START	n/a	n/a	n/a	-999	13	[0, 0, 0]	n/a	FR1	3	R1243T
1411.799	0.008	1416421	COUNTDOWN_END	n/a	n/a	n/a	-999	13	[0, 0, 0]	n/a	FR1	3	R1243T
1411.807	1.618	1416429	ORIENT	n/a	n/a	n/a	-999	13	[0, 0, 0]	n/a	FR1	3	R1243T
1413.425	2.182	1418047	ORIENT_OFF	n/a	n/a	n/a	-999	13	[0, 0, 0]	n/a	FR1	3	R1243T
1415.607	1.618	1420229	WORD	n/a	wordpools/wordpool_EN.txt	WAND	1	13	[0, 0, 0]	n/a	FR1	3	R1243T
1417.225	0.95	1421847	WORD_OFF	n/a	n/a	WAND	1	13	[0, 0, 0]	n/a	FR1	3	R1243T
1418.175	1.616	1422797	WORD	n/a	wordpools/wordpool_EN.txt	WOLF	2	13	[0, 0, 0]	n/a	FR1	3	R1243T
1419.791	0.934	1424413	WORD_OFF	n/a	n/a	WOLF	2	13	[0, 0, 0]	n/a	FR1	3	R1243T
1420.725	1.618	1425347	WORD	n/a	wordpools/wordpool_EN.txt	DITCH	3	13	[0, 0, 0]	n/a	FR1	3	R1243T
1422.343	0.95	1426965	WORD_OFF	n/a	n/a	DITCH	3	13	[0, 0, 0]	n/a	FR1	3	R1243T
1423.293	1.616	1427915	WORD	n/a	wordpools/wordpool_EN.txt	TAIL	4	13	[0, 0, 0]	n/a	FR1	3	R1243T
1424.909	0.883	1429530	WORD_OFF	n/a	n/a	TAIL	4	13	[0, 0, 0]	n/a	FR1	3	R1243T
1425.792	1.618	1430413	WORD	n/a	wordpools/wordpool_EN.txt	CALF	5	13	[0, 0, 0]	n/a	FR1	3	R1243T
1427.41	0.884	1432031	WORD_OFF	n/a	n/a	CALF	5	13	[0, 0, 0]	n/a	FR1	3	R1243T
1428.294	1.616	1432915	WORD	n/a	wordpools/wordpool_EN.txt	SWAMP	6	13	[0, 0, 0]	n/a	FR1	3	R1243T
1429.91	0.833	1434531	WORD_OFF	n/a	n/a	SWAMP	6	13	[0, 0, 0]	n/a	FR1	3	R1243T
1430.743	1.618	1435364	WORD	n/a	wordpools/wordpool_EN.txt	ROPE	7	13	[0, 0, 0]	n/a	FR1	3	R1243T
1432.361	1.0	1436982	WORD_OFF	n/a	n/a	ROPE	7	13	[0, 0, 0]	n/a	FR1	3	R1243T
1433.361	1.617	1437982	WORD	n/a	wordpools/wordpool_EN.txt	SKUNK	8	13	[0, 0, 0]	n/a	FR1	3	R1243T
1434.978	0.783	1439599	WORD_OFF	n/a	n/a	SKUNK	8	13	[0, 0, 0]	n/a	FR1	3	R1243T
1435.761	1.601	1440382	WORD	n/a	wordpools/wordpool_EN.txt	ROSE	9	13	[0, 0, 0]	n/a	FR1	3	R1243T
1437.362	0.984	1441983	WORD_OFF	n/a	n/a	ROSE	9	13	[0, 0, 0]	n/a	FR1	3	R1243T
1438.346	1.616	1442967	WORD	n/a	wordpools/wordpool_EN.txt	SPRING	10	13	[0, 0, 0]	n/a	FR1	3	R1243T
1439.962	0.8	1444583	WORD_OFF	n/a	n/a	SPRING	10	13	[0, 0, 0]	n/a	FR1	3	R1243T
1440.762	1.618	1445382	WORD	n/a	wordpools/wordpool_EN.txt	BUSH	11	13	[0, 0, 0]	n/a	FR1	3	R1243T
1442.38	0.917	1447000	WORD_OFF	n/a	n/a	BUSH	11	13	[0, 0, 0]	n/a	FR1	3	R1243T
1443.297	1.616	1447917	WORD	n/a	wordpools/wordpool_EN.txt	MULE	12	13	[0, 0, 0]	n/a	FR1	3	R1243T
1444.913	0.0	1449533	WORD_OFF	n/a	n/a	MULE	12	13	[0, 0, 0]	n/a	FR1	3	R1243T
1444.913	0.0	1449533	DISTRACT_START	n/a	n/a	n/a	-999	13	[0, 0, 0]	n/a	FR1	3	R1243T
1444.913	0.016	1449533	START	n/a	n/a	n/a	-999	13	[-999, -999, -999]	n/a	FR1	3	R1243T
1444.929	6.369	1449549	PROB	6.369	n/a	n/a	-999	13	[2, 4, 7]	13	FR1	3	R1243T
1451.298	3.234	1455918	PROB	3.234	n/a	n/a	-999	13	[4, 6, 7]	17	FR1	3	R1243T
1454.532	3.3	1459152	PROB	3.3	n/a	n/a	-999	13	[6, 5, 5]	16	FR1	3	R1243T
1457.832	5.017	1462451	PROB	5.017	n/a	n/a	-999	13	[6, 2, 5]	13	FR1	3	R1243T
1462.849	2.928	1467468	PROB	2.928	n/a	n/a	-999	13	[1, 6, 2]	9	FR1	3	R1243T
1465.777	0.006	1470396	STOP	n/a	n/a	n/a	-999	13	[-999, -999, -999]	n/a	FR1	3	R1243T
1465.783	0.518	1470402	DISTRACT_END	n/a	n/a	n/a	-999	13	[0, 0, 0]	n/a	FR1	3	R1243T
1466.301	0.516	1470920	RETRIEVAL_ORIENT	n/a	n/a	n/a	-999	13	[0, 0, 0]	n/a	FR1	3	R1243T
1466.817	3.221	1471436	REC_START	n/a	n/a	n/a	-999	13	[0, 0, 0]	n/a	FR1	3	R1243T
1470.038	1.043	1474657	REC_WORD	1.043	n/a	SKUNK	-999	13	[0, 0, 0]	n/a	FR1	3	R1243T
1471.081	8.342	1475700	REC_WORD	8.342	n/a	CALF	-999	13	[0, 0, 0]	n/a	FR1	3	R1243T
1479.423	2.378	1484041	REC_WORD	2.378	n/a	WOLF	-999	13	[0, 0, 0]	n/a	FR1	3	R1243T
1481.801	15.029	1486419	REC_WORD	15.029	n/a	TAIL	-999	13	[0, 0, 0]	n/a	FR1	3	R1243T
1496.83	5.344	1501447	REC_END	n/a	n/a	n/a	-999	13	[0, 0, 0]	n/a	FR1	3	R1243T
1502.174	0.5	1506791	TRIAL	n/a	n/a	n/a	-999	14	[0, 0, 0]	n/a	FR1	3	R1243T
1502.674	10.428	1507291	COUNTDOWN_START	n/a	n/a	n/a	-999	14	[0, 0, 0]	n/a	FR1	3	R1243T
1513.102	0.007	1517718	COUNTDOWN_END	n/a	n/a	n/a	-999	14	[0, 0, 0]	n/a	FR1	3	R1243T
1513.109	1.616	1517725	ORIENT	n/a	n/a	n/a	-999	14	[0, 0, 0]	n/a	FR1	3	R1243T
1514.725	1.934	1519341	ORIENT_OFF	n/a	n/a	n/a	-999	14	[0, 0, 0]	n/a	FR1	3	R1243T
1516.659	1.618	1521275	WORD	n/a	wordpools/wordpool_EN.txt	TANK	1	14	[0, 0, 0]	n/a	FR1	3	R1243T
1518.277	0.817	1522893	WORD_OFF	n/a	n/a	TANK	1	14	[0, 0, 0]	n/a	FR1	3	R1243T
1519.094	1.616	1523710	WORD	n/a	wordpools/wordpool_EN.txt	SPONGE	2	14	[0, 0, 0]	n/a	FR1	3	R1243T
1520.71	0.818	1525326	WORD_OFF	n/a	n/a	SPONGE	2	14	[0, 0, 0]	n/a	FR1	3	R1243T
1521.528	1.616	1526144	WORD	n/a	wordpools/wordpool_EN.txt	SHIP	3	14	[0, 0, 0]	n/a	FR1	3	R1243T
1523.144	1.001	1527759	WORD_OFF	n/a	n/a	SHIP	3	14	[0, 0, 0]	n/a	FR1	3	R1243T
1524.145	1.616	1528760	WORD	n/a	wordpools/wordpool_EN.txt	BOAT	4	14	[0, 0, 0]	n/a	FR1	3	R1243T
1525.761	0.883	1530376	WORD_OFF	n/a	n/a	BOAT	4	14	[0, 0, 0]	n/a	FR1	3	R1243T
1526.644	1.618	1531259	WORD	n/a	wordpools/wordpool_EN.txt	BOARD	5	14	[0, 0, 0]	n/a	FR1	3	R1243T
1528.262	0.917	1532877	WORD_OFF	n/a	n/a	BOARD	5	14	[0, 0, 0]	n/a	FR1	3	R1243T
1529.179	1.616	1533794	WORD	n/a	wordpools/wordpool_EN.txt	TOY	6	14	[0, 0, 0]	n/a	FR1	3	R1243T
1530.795	0.983	1535410	WORD_OFF	n/a	n/a	TOY	6	14	[0, 0, 0]	n/a	FR1	3	R1243T
1531.778	1.618	1536393	WORD	n/a	wordpools/wordpool_EN.txt	PEARL	7	14	[0, 0, 0]	n/a	FR1	3	R1243T
1533.396	0.934	1538011	WORD_OFF	n/a	n/a	PEARL	7	14	[0, 0, 0]	n/a	FR1	3	R1243T
1534.33	1.616	1538945	WORD	n/a	wordpools/wordpool_EN.txt	GLOVE	8	14	[0, 0, 0]	n/a	FR1	3	R1243T
1535.946	0.917	1540561	WORD_OFF	n/a	n/a	GLOVE	8	14	[0, 0, 0]	n/a	FR1	3	R1243T
1536.863	1.618	1541478	WORD	n/a	wordpools/wordpool_EN.txt	SEA	9	14	[0, 0, 0]	n/a	FR1	3	R1243T
1538.481	0.9	1543096	WORD_OFF	n/a	n/a	SEA	9	14	[0, 0, 0]	n/a	FR1	3	R1243T
1539.381	1.616	1543995	WORD	n/a	wordpools/wordpool_EN.txt	BOY	10	14	[0, 0, 0]	n/a	FR1	3	R1243T
1540.997	0.967	1545611	WORD_OFF	n/a	n/a	BOY	10	14	[0, 0, 0]	n/a	FR1	3	R1243T
1541.964	1.617	1546578	WORD	n/a	wordpools/wordpool_EN.txt	ARM	11	14	[0, 0, 0]	n/a	FR1	3	R1243T
1543.581	0.884	1548195	WORD_OFF	n/a	n/a	ARM	11	14	[0, 0, 0]	n/a	FR1	3	R1243T
1544.465	1.617	1549079	WORD	n/a	wordpools/wordpool_EN.txt	NET	12	14	[0, 0, 0]	n/a	FR1	3	R1243T
1546.082	0.0	1550696	WORD_OFF	n/a	n/a	NET	12	14	[0, 0, 0]	n/a	FR1	3	R1243T
1546.082	0.001	1550696	DISTRACT_START	n/a	n/a	n/a	-999	14	[0, 0, 0]	n/a	FR1	3	R1243T
1546.083	0.016	1550697	START	n/a	n/a	n/a	-999	14	[-999, -999, -999]	n/a	FR1	3	R1243T
1546.099	4.317	1550713	PROB	4.317	n/a	n/a	-999	14	[5, 9, 1]	15	FR1	3	R1243T
1550.416	2.934	1555030	PROB	2.934	n/a	n/a	-999	14	[6, 1, 2]	9	FR1	3	R1243T
1553.35	6.6	1557964	PROB	6.6	n/a	n/a	-999	14	[3, 6, 7]	16	FR1	3	R1243T
1559.95	3.051	1564563	PROB	3.051	n/a	n/a	-999	14	[1, 5, 6]	12	FR1	3	R1243T
1563.001	3.265	1567614	PROB	3.265	n/a	n/a	-999	14	[7, 1, 4]	12	FR1	3	R1243T
1566.266	0.02	1570879	STOP	n/a	n/a	n/a	-999	14	[-999, -999, -999]	n/a	FR1	3	R1243T
1566.286	0.632	1570899	DISTRACT_END	n/a	n/a	n/a	-999	14	[0, 0, 0]	n/a	FR1	3	R1243T
1566.918	0.519	1571531	RETRIEVAL_ORIENT	n/a	n/a	n/a	-999	14	[0, 0, 0]	n/a	FR1	3	R1243T
1567.437	2.633	1572050	REC_START	n/a	n/a	n/a	-999	14	[0, 0, 0]	n/a	FR1	3	R1243T
1570.07	2.341	1574683	REC_WORD	2.341	n/a	SEA	-999	14	[0, 0, 0]	n/a	FR1	3	R1243T
1572.411	5.019	1577023	REC_WORD	5.019	n/a	BOY	-999	14	[0, 0, 0]	n/a	FR1	3	R1243T
1577.43	11.118	1582042	REC_WORD	11.118	n/a	ARM	-999	14	[0, 0, 0]	n/a	FR1	3	R1243T
1588.548	2.733	1593159	REC_WORD	2.733	n/a	BIKE	-999	14	[0, 0, 0]	n/a	FR1	3	R1243T
1591.281	6.168	1595892	REC_WORD	6.168	n/a	TOY	-999	14	[0, 0, 0]	n/a	FR1	3	R1243T
1597.449	5.559	1602060	REC_END	n/a	n/a	n/a	-999	14	[0, 0, 0]	n/a	FR1	3	R1243T
1603.008	0.5	1607619	TRIAL	n/a	n/a	n/a	-999	15	[0, 0, 0]	n/a	FR1	3	R1243T
1603.508	10.428	1608119	COUNTDOWN_START	n/a	n/a	n/a	-999	15	[0, 0, 0]	n/a	FR1	3	R1243T
1613.936	0.007	1618546	COUNTDOWN_END	n/a	n/a	n/a	-999	15	[0, 0, 0]	n/a	FR1	3	R1243T
1613.943	1.617	1618553	ORIENT	n/a	n/a	n/a	-999	15	[0, 0, 0]	n/a	FR1	3	R1243T
1615.56	1.868	1620170	ORIENT_OFF	n/a	n/a	n/a	-999	15	[0, 0, 0]	n/a	FR1	3	R1243T
1617.428	1.617	1622038	WORD	n/a	wordpools/wordpool_EN.txt	SWORD	1	15	[0, 0, 0]	n/a	FR1	3	R1243T
1619.045	0.833	1623655	WORD_OFF	n/a	n/a	SWORD	1	15	[0, 0, 0]	n/a	FR1	3	R1243T
1619.878	1.618	1624488	WORD	n/a	wordpools/wordpool_EN.txt	SPEAR	2	15	[0, 0, 0]	n/a	FR1	3	R1243T
1621.496	0.933	1626105	WORD_OFF	n/a	n/a	SPEAR	2	15	[0, 0, 0]	n/a	FR1	3	R1243T
1622.429	1.617	1627038	WORD	n/a	wordpools/wordpool_EN.txt	SMOKE	3	15	[0, 0, 0]	n/a	FR1	3	R1243T
1624.046	0.816	1628655	WORD_OFF	n/a	n/a	SMOKE	3	15	[0, 0, 0]	n/a	FR1	3	R1243T
1624.862	1.618	1629471	WORD	n/a	wordpools/wordpool_EN.txt	FORT	4	15	[0, 0, 0]	n/a	FR1	3	R1243T
1626.48	0.883	1631089	WORD_OFF	n/a	n/a	FORT	4	15	[0, 0, 0]	n/a	FR1	3	R1243T
1627.363	1.616	1631972	WORD	n/a	wordpools/wordpool_EN.txt	ROCK	5	15	[0, 0, 0]	n/a	FR1	3	R1243T
1628.979	0.884	1633588	WORD_OFF	n/a	n/a	ROCK	5	15	[0, 0, 0]	n/a	FR1	3	R1243T
1629.863	1.618	1634472	WORD	n/a	wordpools/wordpool_EN.txt	CLIFF	6	15	[0, 0, 0]	n/a	FR1	3	R1243T
1631.481	0.867	1636090	WORD_OFF	n/a	n/a	CLIFF	6	15	[0, 0, 0]	n/a	FR1	3	R1243T
1632.348	1.616	1636957	WORD	n/a	wordpools/wordpool_EN.txt	STEAM	7	15	[0, 0, 0]	n/a	FR1	3	R1243T
1633.964	0.783	1638573	WORD_OFF	n/a	n/a	STEAM	7	15	[0, 0, 0]	n/a	FR1	3	R1243T
1634.747	1.601	1639356	WORD	n/a	wordpools/wordpool_EN.txt	JUDGE	8	15	[0, 0, 0]	n/a	FR1	3	R1243T
1636.348	0.767	1640957	WORD_OFF	n/a	n/a	JUDGE	8	15	[0, 0, 0]	n/a	FR1	3	R1243T
1637.115	1.616	1641723	WORD	n/a	wordpools/wordpool_EN.txt	JAIL	9	15	[0, 0, 0]	n/a	FR1	3	R1243T
1638.731	1.0	1643339	WORD_OFF	n/a	n/a	JAIL	9	15	[0, 0, 0]	n/a	FR1	3	R1243T
1639.731	1.601	1644339	WORD	n/a	wordpools/wordpool_EN.txt	SAIL	10	15	[0, 0, 0]	n/a	FR1	3	R1243T
1641.332	0.967	1645940	WORD_OFF	n/a	n/a	SAIL	10	15	[0, 0, 0]	n/a	FR1	3	R1243T
1642.299	1.616	1646907	WORD	n/a	wordpools/wordpool_EN.txt	FUDGE	11	15	[0, 0, 0]	n/a	FR1	3	R1243T
1643.915	0.951	1648523	WORD_OFF	n/a	n/a	FUDGE	11	15	[0, 0, 0]	n/a	FR1	3	R1243T
1644.866	1.618	1649474	WORD	n/a	wordpools/wordpool_EN.txt	BRIDGE	12	15	[0, 0, 0]	n/a	FR1	3	R1243T
1646.484	0.0	1651092	WORD_OFF	n/a	n/a	BRIDGE	12	15	[0, 0, 0]	n/a	FR1	3	R1243T
1646.484	0.0	1651092	DISTRACT_START	n/a	n/a	n/a	-999	15	[0, 0, 0]	n/a	FR1	3	R1243T
1646.484	0.016	1651092	START	n/a	n/a	n/a	-999	15	[-999, -999, -999]	n/a	FR1	3	R1243T
1646.5	5.035	1651108	PROB	5.035	n/a	n/a	-999	15	[4, 7, 6]	17	FR1	3	R1243T
1651.535	2.667	1656143	PROB	2.667	n/a	n/a	-999	15	[2, 8, 4]	14	FR1	3	R1243T
1654.202	2.9	1658809	PROB	2.9	n/a	n/a	-999	15	[4, 7, 1]	12	FR1	3	R1243T
1657.102	2.85	1661709	PROB	2.85	n/a	n/a	-999	15	[2, 5, 5]	12	FR1	3	R1243T
1659.952	3.85	1664559	PROB	3.85	n/a	n/a	-999	15	[5, 1, 7]	13	FR1	3	R1243T
1663.802	3.616	1668409	PROB	3.616	n/a	n/a	-999	15	[3, 6, 8]	17	FR1	3	R1243T
1667.418	0.02	1672025	STOP	n/a	n/a	n/a	-999	15	[-999, -999, -999]	n/a	FR1	3	R1243T
1667.438	0.633	1672045	DISTRACT_END	n/a	n/a	n/a	-999	15	[0, 0, 0]	n/a	FR1	3	R1243T
1668.071	0.516	1672678	RETRIEVAL_ORIENT	n/a	n/a	n/a	-999	15	[0, 0, 0]	n/a	FR1	3	R1243T
1668.587	1.549	1673194	REC_START	n/a	n/a	n/a	-999	15	[0, 0, 0]	n/a	FR1	3	R1243T
1670.136	6.038	1674742	REC_WORD	6.038	n/a	BRIDGE	-999	15	[0, 0, 0]	n/a	FR1	3	R1243T
1676.174	2.623	1680780	REC_WORD	2.623	n/a	CLIFF	-999	15	[0, 0, 0]	n/a	FR1	3	R1243T
1678.797	5.92	1683403	REC_WORD	5.92	n/a	ROCK	-999	15	[0, 0, 0]	n/a	FR1	3	R1243T
1684.717	13.883	1689323	REC_WORD	13.883	n/a	PEARL	-999	15	[0, 0, 0]	n/a	FR1	3	R1243T
1698.6	5.126	1703205	REC_END	n/a	n/a	n/a	-999	15	[0, 0, 0]	n/a	FR1	3	R1243T
1703.726	0.5	1708330	TRIAL	n/a	n/a	n/a	-999	16	[0, 0, 0]	n/a	FR1	3	R1243T
1704.226	10.428	1708830	COUNTDOWN_START	n/a	n/a	n/a	-999	16	[0, 0, 0]	n/a	FR1	3	R1243T
1714.654	0.008	1719258	COUNTDOWN_END	n/a	n/a	n/a	-999	16	[0, 0, 0]	n/a	FR1	3	R1243T
1714.662	1.618	1719266	ORIENT	n/a	n/a	n/a	-999	16	[0, 0, 0]	n/a	FR1	3	R1243T
1716.28	2.167	1720884	ORIENT_OFF	n/a	n/a	n/a	-999	16	[0, 0, 0]	n/a	FR1	3	R1243T
1718.447	1.617	1723051	WORD	n/a	wordpools/wordpool_EN.txt	PRINCE	1	16	[0, 0, 0]	n/a	FR1	3	R1243T
1720.064	0.932	1724667	WORD_OFF	n/a	n/a	PRINCE	1	16	[0, 0, 0]	n/a	FR1	3	R1243T
1720.996	1.617	1725599	WORD	n/a	wordpools/wordpool_EN.txt	TREE	2	16	[0, 0, 0]	n/a	FR1	3	R1243T
1722.613	0.851	1727216	WORD_OFF	n/a	n/a	TREE	2	16	[0, 0, 0]	n/a	FR1	3	R1243T
1723.464	1.617	1728067	WORD	n/a	wordpools/wordpool_EN.txt	SHEEP	3	16	[0, 0, 0]	n/a	FR1	3	R1243T
1725.081	0.866	1729684	WORD_OFF	n/a	n/a	SHEEP	3	16	[0, 0, 0]	n/a	FR1	3	R1243T
1725.947	1.617	1730550	WORD	n/a	wordpools/wordpool_EN.txt	BAT	4	16	[0, 0, 0]	n/a	FR1	3	R1243T
1727.564	0.884	1732167	WORD_OFF	n/a	n/a	BAT	4	16	[0, 0, 0]	n/a	FR1	3	R1243T
1728.448	1.617	1733051	WORD	n/a	wordpools/wordpool_EN.txt	CAT	5	16	[0, 0, 0]	n/a	FR1	3	R1243T
1730.065	0.783	1734668	WORD_OFF	n/a	n/a	CAT	5	16	[0, 0, 0]	n/a	FR1	3	R1243T
1730.848	1.618	1735451	WORD	n/a	wordpools/wordpool_EN.txt	CROW	6	16	[0, 0, 0]	n/a	FR1	3	R1243T
1732.466	0.883	1737069	WORD_OFF	n/a	n/a	CROW	6	16	[0, 0, 0]	n/a	FR1	3	R1243T
1733.349	1.616	1737952	WORD	n/a	wordpools/wordpool_EN.txt	MOUSE	7	16	[0, 0, 0]	n/a	FR1	3	R1243T
1734.965	0.817	1739568	WORD_OFF	n/a	n/a	MOUSE	7	16	[0, 0, 0]	n/a	FR1	3	R1243T
1735.782	1.618	1740384	WORD	n/a	wordpools/wordpool_EN.txt	WEB	8	16	[0, 0, 0]	n/a	FR1	3	R1243T
1737.4	0.784	1742002	WORD_OFF	n/a	n/a	WEB	8	16	[0, 0, 0]	n/a	FR1	3	R1243T
1738.184	1.616	1742786	WORD	n/a	wordpools/wordpool_EN.txt	SHARK	9	16	[0, 0, 0]	n/a	FR1	3	R1243T
1739.8	0.8	1744402	WORD_OFF	n/a	n/a	SHARK	9	16	[0, 0, 0]	n/a	FR1	3	R1243T
1740.6	1.618	1745202	WORD	n/a	wordpools/wordpool_EN.txt	CHIEF	10	16	[0, 0, 0]	n/a	FR1	3	R1243T
1742.218	0.916	1746820	WORD_OFF	n/a	n/a	CHIEF	10	16	[0, 0, 0]	n/a	FR1	3	R1243T
1743.134	1.616	1747736	WORD	n/a	wordpools/wordpool_EN.txt	MOTH	11	16	[0, 0, 0]	n/a	FR1	3	R1243T
1744.75	0.867	1749352	WORD_OFF	n/a	n/a	MOTH	11	16	[0, 0, 0]	n/a	FR1	3	R1243T
1745.617	1.618	1750219	WORD	n/a	wordpools/wordpool_EN.txt	HOOK	12	16	[0, 0, 0]	n/a	FR1	3	R1243T
1747.235	0.0	1751837	WORD_OFF	n/a	n/a	HOOK	12	16	[0, 0, 0]	n/a	FR1	3	R1243T
1747.235	0.001	1751837	DISTRACT_START	n/a	n/a	n/a	-999	16	[0, 0, 0]	n/a	FR1	3	R1243T
1747.236	0.016	1751838	START	n/a	n/a	n/a	-999	16	[-999, -999, -999]	n/a	FR1	3	R1243T
1747.252	9.684	1751854	PROB	9.684	n/a	n/a	-999	16	[8, 9, 5]	22	FR1	3	R1243T
1756.936	2.7	1761537	PROB	2.7	n/a	n/a	-999	16	[1, 2, 6]	9	FR1	3	R1243T
1759.636	4.636	1764237	PROB	4.636	n/a	n/a	-999	16	[5, 9, 7]	21	FR1	3	R1243T
1764.272	9.657	1768873	PROB	9.657	n/a	n/a	-999	16	[3, 5, 7]	15	FR1	3	R1243T
1773.929	0.01	1778529	STOP	n/a	n/a	n/a	-999	16	[-999, -999, -999]	n/a	FR1	3	R1243T
1773.939	0.585	1778539	DISTRACT_END	n/a	n/a	n/a	-999	16	[0, 0, 0]	n/a	FR1	3	R1243T
1774.524	0.517	1779124	RETRIEVAL_ORIENT	n/a	n/a	n/a	-999	16	[0, 0, 0]	n/a	FR1	3	R1243T
1775.041	12.673	1779641	REC_START	n/a	n/a	n/a	-999	16	[0, 0, 0]	n/a	FR1	3	R1243T
1787.714	2.435	1792313	REC_WORD	2.435	n/a	SHEEP	-999	16	[0, 0, 0]	n/a	FR1	3	R1243T
1790.149	4.377	1794748	REC_WORD	4.377	n/a	CAT	-999	16	[0, 0, 0]	n/a	FR1	3	R1243T
1794.526	7.609	1799125	REC_WORD	7.609	n/a	COW	-999	16	[0, 0, 0]	n/a	FR1	3	R1243T
1802.135	2.916	1806733	REC_WORD	2.916	n/a	FORT	-999	16	[0, 0, 0]	n/a	FR1	3	R1243T
1805.051	5.778	1809649	REC_END	n/a	n/a	n/a	-999	16	[0, 0, 0]	n/a	FR1	3	R1243T
1810.829	0.5	1815427	TRIAL	n/a	n/a	n/a	-999	17	[0, 0, 0]	n/a	FR1	3	R1243T
1811.329	10.428	1815927	COUNTDOWN_START	n/a	n/a	n/a	-999	17	[0, 0, 0]	n/a	FR1	3	R1243T
1821.757	0.007	1826354	COUNTDOWN_END	n/a	n/a	n/a	-999	17	[0, 0, 0]	n/a	FR1	3	R1243T
1821.764	1.602	1826361	ORIENT	n/a	n/a	n/a	-999	17	[0, 0, 0]	n/a	FR1	3	R1243T
1823.366	1.95	1827963	ORIENT_OFF	n/a	n/a	n/a	-999	17	[0, 0, 0]	n/a	FR1	3	R1243T
1825.316	1.616	1829913	WORD	n/a	wordpools/wordpool_EN.txt	FOOT	1	17	[0, 0, 0]	n/a	FR1	3	R1243T
1826.932	0.95	1831529	WORD_OFF	n/a	n/a	FOOT	1	17	[0, 0, 0]	n/a	FR1	3	R1243T
1827.882	1.618	1832479	WORD	n/a	wordpools/wordpool_EN.txt	TOAST	2	17	[0, 0, 0]	n/a	FR1	3	R1243T
1829.5	0.934	1834097	WORD_OFF	n/a	n/a	TOAST	2	17	[0, 0, 0]	n/a	FR1	3	R1243T
1830.434	1.617	1835031	WORD	n/a	wordpools/wordpool_EN.txt	PLATE	3	17	[0, 0, 0]	n/a	FR1	3	R1243T
1832.051	0.882	1836648	WORD_OFF	n/a	n/a	PLATE	3	17	[0, 0, 0]	n/a	FR1	3	R1243T
1832.933	1.617	1837530	WORD	n/a	wordpools/wordpool_EN.txt	PIN	4	17	[0, 0, 0]	n/a	FR1	3	R1243T
1834.55	0.801	1839146	WORD_OFF	n/a	n/a	PIN	4	17	[0, 0, 0]	n/a	FR1	3	R1243T
1835.351	1.616	1839947	WORD	n/a	wordpools/wordpool_EN.txt	CUP	5	17	[0, 0, 0]	n/a	FR1	3	R1243T
1836.967	0.884	1841563	WORD_OFF	n/a	n/a	CUP	5	17	[0, 0, 0]	n/a	FR1	3	R1243T
1837.851	1.618	1842447	WORD	n/a	wordpools/wordpool_EN.txt	CHIN	6	17	[0, 0, 0]	n/a	FR1	3	R1243T
1839.469	0.867	1844065	WORD_OFF	n/a	n/a	CHIN	6	17	[0, 0, 0]	n/a	FR1	3	R1243T
1840.336	1.615	1844932	WORD	n/a	wordpools/wordpool_EN.txt	FRUIT	7	17	[0, 0, 0]	n/a	FR1	3	R1243T
1841.951	0.867	1846547	WORD_OFF	n/a	n/a	FRUIT	7	17	[0, 0, 0]	n/a	FR1	3	R1243T
1842.818	1.618	1847414	WORD	n/a	wordpools/wordpool_EN.txt	GLASS	8	17	[0, 0, 0]	n/a	FR1	3	R1243T
1844.436	0.917	1849032	WORD_OFF	n/a	n/a	GLASS	8	17	[0, 0, 0]	n/a	FR1	3	R1243T
1845.353	1.616	1849949	WORD	n/a	wordpools/wordpool_EN.txt	STOOL	9	17	[0, 0, 0]	n/a	FR1	3	R1243T
1846.969	0.784	1851565	WORD_OFF	n/a	n/a	STOOL	9	17	[0, 0, 0]	n/a	FR1	3	R1243T
1847.753	1.617	1852349	WORD	n/a	wordpools/wordpool_EN.txt	LIP	10	17	[0, 0, 0]	n/a	FR1	3	R1243T
1849.37	0.884	1853966	WORD_OFF	n/a	n/a	LIP	10	17	[0, 0, 0]	n/a	FR1	3	R1243T
1850.254	1.616	1854849	WORD	n/a	wordpools/wordpool_EN.txt	ELF	11	17	[0, 0, 0]	n/a	FR1	3	R1243T
1851.87	0.95	1856465	WORD_OFF	n/a	n/a	ELF	11	17	[0, 0, 0]	n/a	FR1	3	R1243T
1852.82	1.618	1857415	WORD	n/a	wordpools/wordpool_EN.txt	CHAIR	12	17	[0, 0, 0]	n/a	FR1	3	R1243T
1854.438	0.0	1859033	WORD_OFF	n/a	n/a	CHAIR	12	17	[0, 0, 0]	n/a	FR1	3	R1243T
1854.438	0.001	1859033	DISTRACT_START	n/a	n/a	n/a	-999	17	[0, 0, 0]	n/a	FR1	3	R1243T
1854.439	0.016	1859034	START	n/a	n/a	n/a	-999	17	[-999, -999, -999]	n/a	FR1	3	R1243T
1854.455	4.3	1859050	PROB	4.3	n/a	n/a	-999	17	[2, 2, 8]	12	FR1	3	R1243T
1858.755	3.867	1863350	PROB	3.867	n/a	n/a	-999	17	[6, 6, 7]	19	FR1	3	R1243T
1862.622	4.618	1867217	PROB	4.618	n/a	n/a	-999	17	[6, 5, 8]	19	FR1	3	R1243T
1867.24	5.667	1871834	PROB	5.667	n/a	n/a	-999	17	[6, 3, 5]	14	FR1	3	R1243T
1872.907	3.495	1877501	PROB	3.495	n/a	n/a	-999	17	[1, 8, 2]	11	FR1	3	R1243T
1876.402	0.006	1880996	STOP	n/a	n/a	n/a	-999	17	[-999, -999, -999]	n/a	FR1	3	R1243T
1876.408	0.651	1881002	DISTRACT_END	n/a	n/a	n/a	-999	17	[0, 0, 0]	n/a	FR1	3	R1243T
1877.059	0.516	1881653	RETRIEVAL_ORIENT	n/a	n/a	n/a	-999	17	[0, 0, 0]	n/a	FR1	3	R1243T
1877.575	1.849	1882169	REC_START	n/a	n/a	n/a	-999	17	[0, 0, 0]	n/a	FR1	3	R1243T
1879.424	1.203	1884018	REC_WORD	1.203	n/a	FOOT	-999	17	[0, 0, 0]	n/a	FR1	3	R1243T
1880.627	7.874	1885221	REC_WORD	7.874	n/a	CUP	-999	17	[0, 0, 0]	n/a	FR1	3	R1243T
1888.501	3.049	1893094	REC_WORD	3.049	n/a	CHIN	-999	17	[0, 0, 0]	n/a	FR1	3	R1243T
1891.55	9.37	1896143	REC_WORD	9.37	n/a	LIP	-999	17	[0, 0, 0]	n/a	FR1	3	R1243T
1900.92	6.668	1905512	REC_WORD	6.668	n/a	FOOT	-999	17	[0, 0, 0]	n/a	FR1	3	R1243T
1907.588	5.544	1912180	REC_END	n/a	n/a	n/a	-999	17	[0, 0, 0]	n/a	FR1	3	R1243T
1913.132	0.5	1917724	TRIAL	n/a	n/a	n/a	-999	18	[0, 0, 0]	n/a	FR1	3	R1243T
1913.632	10.428	1918224	COUNTDOWN_START	n/a	n/a	n/a	-999	18	[0, 0, 0]	n/a	FR1	3	R1243T
1924.06	0.007	1928651	COUNTDOWN_END	n/a	n/a	n/a	-999	18	[0, 0, 0]	n/a	FR1	3	R1243T
1924.067	1.616	1928658	ORIENT	n/a	n/a	n/a	-999	18	[0, 0, 0]	n/a	FR1	3	R1243T
1925.683	1.951	1930274	ORIENT_OFF	n/a	n/a	n/a	-999	18	[0, 0, 0]	n/a	FR1	3	R1243T
1927.634	1.618	1932225	WORD	n/a	wordpools/wordpool_EN.txt	EAR	1	18	[0, 0, 0]	n/a	FR1	3	R1243T
1929.252	0.9	1933843	WORD_OFF	n/a	n/a	EAR	1	18	[0, 0, 0]	n/a	FR1	3	R1243T
1930.152	1.616	1934743	WORD	n/a	wordpools/wordpool_EN.txt	GEESE	2	18	[0, 0, 0]	n/a	FR1	3	R1243T
1931.768	0.967	1936359	WORD_OFF	n/a	n/a	GEESE	2	18	[0, 0, 0]	n/a	FR1	3	R1243T
1932.735	1.618	1937325	WORD	n/a	wordpools/wordpool_EN.txt	FLAG	3	18	[0, 0, 0]	n/a	FR1	3	R1243T
1934.353	1.016	1938943	WORD_OFF	n/a	n/a	FLAG	3	18	[0, 0, 0]	n/a	FR1	3	R1243T
1935.369	1.616	1939959	WORD	n/a	wordpools/wordpool_EN.txt	ZOO	4	18	[0, 0, 0]	n/a	FR1	3	R1243T
1936.985	0.967	1941575	WORD_OFF	n/a	n/a	ZOO	4	18	[0, 0, 0]	n/a	FR1	3	R1243T
1937.952	1.617	1942542	WORD	n/a	wordpools/wordpool_EN.txt	BLUSH	5	18	[0, 0, 0]	n/a	FR1	3	R1243T
1939.569	0.885	1944159	WORD_OFF	n/a	n/a	BLUSH	5	18	[0, 0, 0]	n/a	FR1	3	R1243T
1940.454	1.617	1945044	WORD	n/a	wordpools/wordpool_EN.txt	VAN	6	18	[0, 0, 0]	n/a	FR1	3	R1243T
1942.071	0.765	1946661	WORD_OFF	n/a	n/a	VAN	6	18	[0, 0, 0]	n/a	FR1	3	R1243T
1942.836	1.602	1947426	WORD	n/a	wordpools/wordpool_EN.txt	DUCK	7	18	[0, 0, 0]	n/a	FR1	3	R1243T
1944.438	0.833	1949028	WORD_OFF	n/a	n/a	DUCK	7	18	[0, 0, 0]	n/a	FR1	3	R1243T
1945.271	1.616	1949861	WORD	n/a	wordpools/wordpool_EN.txt	DRUM	8	18	[0, 0, 0]	n/a	FR1	3	R1243T
1946.887	0.884	1951477	WORD_OFF	n/a	n/a	DRUM	8	18	[0, 0, 0]	n/a	FR1	3	R1243T
1947.771	1.618	1952361	WORD	n/a	wordpools/wordpool_EN.txt	CRANE	9	18	[0, 0, 0]	n/a	FR1	3	R1243T
1949.389	0.966	1953978	WORD_OFF	n/a	n/a	CRANE	9	18	[0, 0, 0]	n/a	FR1	3	R1243T
1950.355	1.616	1954944	WORD	n/a	wordpools/wordpool_EN.txt	BADGE	10	18	[0, 0, 0]	n/a	FR1	3	R1243T
1951.971	0.934	1956560	WORD_OFF	n/a	n/a	BADGE	10	18	[0, 0, 0]	n/a	FR1	3	R1243T
1952.905	1.618	1957494	WORD	n/a	wordpools/wordpool_EN.txt	SNOW	11	18	[0, 0, 0]	n/a	FR1	3	R1243T
1954.523	0.933	1959112	WORD_OFF	n/a	n/a	SNOW	11	18	[0, 0, 0]	n/a	FR1	3	R1243T
1955.456	1.617	1960045	WORD	n/a	wordpools/wordpool_EN.txt	PARK	12	18	[0, 0, 0]	n/a	FR1	3	R1243T
1957.073	0.0	1961662	WORD_OFF	n/a	n/a	PARK	12	18	[0, 0, 0]	n/a	FR1	3	R1243T
1957.073	0.001	1961662	DISTRACT_START	n/a	n/a	n/a	-999	18	[0, 0, 0]	n/a	FR1	3	R1243T
1957.074	0.016	1961663	START	n/a	n/a	n/a	-999	18	[-999, -999, -999]	n/a	FR1	3	R1243T
1957.09	4.351	1961679	PROB	4.351	n/a	n/a	-999	18	[3, 2, 9]	14	FR1	3	R1243T
1961.441	4.017	1966030	PROB	4.017	n/a	n/a	-999	18	[8, 4, 8]	20	FR1	3	R1243T
1965.458	2.951	1970046	PROB	2.951	n/a	n/a	-999	18	[4, 2, 3]	9	FR1	3	R1243T
1968.409	6.483	1972997	PROB	6.483	n/a	n/a	-999	18	[1, 6, 5]	12	FR1	3	R1243T
1974.892	5.405	1979480	PROB	5.405	n/a	n/a	-999	18	[2, 3, 8]	13	FR1	3	R1243T
1980.297	0.014	1984885	STOP	n/a	n/a	n/a	-999	18	[-999, -999, -999]	n/a	FR1	3	R1243T
1980.311	0.549	1984899	DISTRACT_END	n/a	n/a	n/a	-999	18	[0, 0, 0]	n/a	FR1	3	R1243T
1980.86	0.519	1985448	RETRIEVAL_ORIENT	n/a	n/a	n/a	-999	18	[0, 0, 0]	n/a	FR1	3	R1243T
1981.379	3.533	1985966	REC_START	n/a	n/a	n/a	-999	18	[0, 0, 0]	n/a	FR1	3	R1243T
1984.912	1.276	1989499	REC_WORD	1.276	n/a	GEESE	-999	18	[0, 0, 0]	n/a	FR1	3	R1243T
1986.188	2.872	1990775	REC_WORD	2.872	n/a	CRANE	-999	18	[0, 0, 0]	n/a	FR1	3	R1243T
1989.06	2.878	1993647	REC_WORD	2.878	n/a	DUCK	-999	18	[0, 0, 0]	n/a	FR1	3	R1243T
1991.938	2.827	1996525	REC_WORD	2.827	n/a	CHIEF	-999	18	[0, 0, 0]	n/a	FR1	3	R1243T
1994.765	9.78	1999352	REC_WORD	9.78	n/a	BADGE	-999	18	[0, 0, 0]	n/a	FR1	3	R1243T
2004.545	6.845	2009131	REC_WORD	6.845	n/a	CUP	-999	18	[0, 0, 0]	n/a	FR1	3	R1243T
2011.39	5.911	2015976	REC_END	n/a	n/a	n/a	-999	18	[0, 0, 0]	n/a	FR1	3	R1243T
2017.301	0.5	2021886	TRIAL	n/a	n/a	n/a	-999	19	[0, 0, 0]	n/a	FR1	3	R1243T
2017.801	10.428	2022386	COUNTDOWN_START	n/a	n/a	n/a	-999	19	[0, 0, 0]	n/a	FR1	3	R1243T
2028.229	0.007	2032814	COUNTDOWN_END	n/a	n/a	n/a	-999	19	[0, 0, 0]	n/a	FR1	3	R1243T
2028.236	1.616	2032821	ORIENT	n/a	n/a	n/a	-999	19	[0, 0, 0]	n/a	FR1	3	R1243T
2029.852	1.967	2034437	ORIENT_OFF	n/a	n/a	n/a	-999	19	[0, 0, 0]	n/a	FR1	3	R1243T
2031.819	1.601	2036403	WORD	n/a	wordpools/wordpool_EN.txt	CORD	1	19	[0, 0, 0]	n/a	FR1	3	R1243T
2033.42	0.984	2038004	WORD_OFF	n/a	n/a	CORD	1	19	[0, 0, 0]	n/a	FR1	3	R1243T
2034.404	1.617	2038988	WORD	n/a	wordpools/wordpool_EN.txt	BALL	2	19	[0, 0, 0]	n/a	FR1	3	R1243T
2036.021	0.832	2040605	WORD_OFF	n/a	n/a	BALL	2	19	[0, 0, 0]	n/a	FR1	3	R1243T
2036.853	1.602	2041437	WORD	n/a	wordpools/wordpool_EN.txt	WEED	3	19	[0, 0, 0]	n/a	FR1	3	R1243T
2038.455	0.95	2043039	WORD_OFF	n/a	n/a	WEED	3	19	[0, 0, 0]	n/a	FR1	3	R1243T
2039.405	1.617	2043989	WORD	n/a	wordpools/wordpool_EN.txt	BOMB	4	19	[0, 0, 0]	n/a	FR1	3	R1243T
2041.022	0.866	2045606	WORD_OFF	n/a	n/a	BOMB	4	19	[0, 0, 0]	n/a	FR1	3	R1243T
2041.888	1.601	2046472	WORD	n/a	wordpools/wordpool_EN.txt	EGG	5	19	[0, 0, 0]	n/a	FR1	3	R1243T
2043.489	0.967	2048073	WORD_OFF	n/a	n/a	EGG	5	19	[0, 0, 0]	n/a	FR1	3	R1243T
2044.456	1.617	2049040	WORD	n/a	wordpools/wordpool_EN.txt	POLE	6	19	[0, 0, 0]	n/a	FR1	3	R1243T
2046.073	0.932	2050657	WORD_OFF	n/a	n/a	POLE	6	19	[0, 0, 0]	n/a	FR1	3	R1243T
2047.005	1.617	2051588	WORD	n/a	wordpools/wordpool_EN.txt	WAVE	7	19	[0, 0, 0]	n/a	FR1	3	R1243T
2048.622	0.967	2053205	WORD_OFF	n/a	n/a	WAVE	7	19	[0, 0, 0]	n/a	FR1	3	R1243T
2049.589	1.618	2054172	WORD	n/a	wordpools/wordpool_EN.txt	HEART	8	19	[0, 0, 0]	n/a	FR1	3	R1243T
2051.207	0.917	2055790	WORD_OFF	n/a	n/a	HEART	8	19	[0, 0, 0]	n/a	FR1	3	R1243T
2052.124	1.616	2056707	WORD	n/a	wordpools/wordpool_EN.txt	TOOTH	9	19	[0, 0, 0]	n/a	FR1	3	R1243T
2053.74	1.0	2058323	WORD_OFF	n/a	n/a	TOOTH	9	19	[0, 0, 0]	n/a	FR1	3	R1243T
2054.74	1.618	2059323	WORD	n/a	wordpools/wordpool_EN.txt	WHEEL	10	19	[0, 0, 0]	n/a	FR1	3	R1243T
2056.358	0.967	2060941	WORD_OFF	n/a	n/a	WHEEL	10	19	[0, 0, 0]	n/a	FR1	3	R1243T
2057.325	1.616	2061908	WORD	n/a	wordpools/wordpool_EN.txt	FISH	11	19	[0, 0, 0]	n/a	FR1	3	R1243T
2058.941	0.817	2063524	WORD_OFF	n/a	n/a	FISH	11	19	[0, 0, 0]	n/a	FR1	3	R1243T
2059.758	1.618	2064341	WORD	n/a	wordpools/wordpool_EN.txt	FILM	12	19	[0, 0, 0]	n/a	FR1	3	R1243T
2061.376	0.0	2065959	WORD_OFF	n/a	n/a	FILM	12	19	[0, 0, 0]	n/a	FR1	3	R1243T
2061.376	0.0	2065959	DISTRACT_START	n/a	n/a	n/a	-999	19	[0, 0, 0]	n/a	FR1	3	R1243T
2061.376	0.016	2065959	START	n/a	n/a	n/a	-999	19	[-999, -999, -999]	n/a	FR1	3	R1243T
2061.392	4.45	2065975	PROB	4.45	n/a	n/a	-999	19	[1, 7, 7]	15	FR1	3	R1243T
2065.842	5.801	2070424	PROB	5.801	n/a	n/a	-999	19	[4, 3, 4]	11	FR1	3	R1243T
2071.643	4.585	2076225	PROB	4.585	n/a	n/a	-999	19	[4, 9, 6]	19	FR1	3	R1243T
2076.228	6.309	2080810	PROB	6.309	n/a	n/a	-999	19	[2, 4, 4]	10	FR1	3	R1243T
2082.537	0.008	2087118	STOP	n/a	n/a	n/a	-999	19	[-999, -999, -999]	n/a	FR1	3	R1243T
2082.545	0.701	2087126	DISTRACT_END	n/a	n/a	n/a	-999	19	[0, 0, 0]	n/a	FR1	3	R1243T
2083.246	0.517	2087827	RETRIEVAL_ORIENT	n/a	n/a	n/a	-999	19	[0, 0, 0]	n/a	FR1	3	R1243T
2083.763	6.898	2088344	REC_START	n/a	n/a	n/a	-999	19	[0, 0, 0]	n/a	FR1	3	R1243T
2090.661	23.113	2095242	REC_WORD	23.113	n/a	TEETH	-999	19	[0, 0, 0]	n/a	FR1	3	R1243T
2113.774	5.579	2118353	REC_END	n/a	n/a	n/a	-999	19	[0, 0, 0]	n/a	FR1	3	R1243T
2119.353	0.5	2123932	TRIAL	n/a	n/a	n/a	-999	20	[0, 0, 0]	n/a	FR1	3	R1243T
2119.853	10.428	2124432	COUNTDOWN_START	n/a	n/a	n/a	-999	20	[0, 0, 0]	n/a	FR1	3	R1243T
2130.281	0.007	2134859	COUNTDOWN_END	n/a	n/a	n/a	-999	20	[0, 0, 0]	n/a	FR1	3	R1243T
2130.288	1.616	2134866	ORIENT	n/a	n/a	n/a	-999	20	[0, 0, 0]	n/a	FR1	3	R1243T
2131.904	2.084	2136482	ORIENT_OFF	n/a	n/a	n/a	-999	20	[0, 0, 0]	n/a	FR1	3	R1243T
2133.988	1.617	2138566	WORD	n/a	wordpools/wordpool_EN.txt	TOE	1	20	[0, 0, 0]	n/a	FR1	3	R1243T
2135.605	0.768	2140183	WORD_OFF	n/a	n/a	TOE	1	20	[0, 0, 0]	n/a	FR1	3	R1243T
2136.373	1.616	2140951	WORD	n/a	wordpools/wordpool_EN.txt	BOWL	2	20	[0, 0, 0]	n/a	FR1	3	R1243T
2137.989	0.85	2142567	WORD_OFF	n/a	n/a	BOWL	2	20	[0, 0, 0]	n/a	FR1	3	R1243T
2138.839	1.601	2143417	WORD	n/a	wordpools/wordpool_EN.txt	STOVE	3	20	[0, 0, 0]	n/a	FR1	3	R1243T
2140.44	0.867	2145018	WORD_OFF	n/a	n/a	STOVE	3	20	[0, 0, 0]	n/a	FR1	3	R1243T
2141.307	1.616	2145885	WORD	n/a	wordpools/wordpool_EN.txt	STICK	4	20	[0, 0, 0]	n/a	FR1	3	R1243T
2142.923	1.0	2147501	WORD_OFF	n/a	n/a	STICK	4	20	[0, 0, 0]	n/a	FR1	3	R1243T
2143.923	1.618	2148501	WORD	n/a	wordpools/wordpool_EN.txt	INK	5	20	[0, 0, 0]	n/a	FR1	3	R1243T
2145.541	1.0	2150118	WORD_OFF	n/a	n/a	INK	5	20	[0, 0, 0]	n/a	FR1	3	R1243T
2146.541	1.617	2151118	WORD	n/a	wordpools/wordpool_EN.txt	SMILE	6	20	[0, 0, 0]	n/a	FR1	3	R1243T
2148.158	0.849	2152735	WORD_OFF	n/a	n/a	SMILE	6	20	[0, 0, 0]	n/a	FR1	3	R1243T
2149.007	1.617	2153584	WORD	n/a	wordpools/wordpool_EN.txt	OAR	7	20	[0, 0, 0]	n/a	FR1	3	R1243T
2150.624	0.868	2155201	WORD_OFF	n/a	n/a	OAR	7	20	[0, 0, 0]	n/a	FR1	3	R1243T
2151.492	1.617	2156069	WORD	n/a	wordpools/wordpool_EN.txt	BRUSH	8	20	[0, 0, 0]	n/a	FR1	3	R1243T
2153.109	0.832	2157686	WORD_OFF	n/a	n/a	BRUSH	8	20	[0, 0, 0]	n/a	FR1	3	R1243T
2153.941	1.617	2158518	WORD	n/a	wordpools/wordpool_EN.txt	PHONE	9	20	[0, 0, 0]	n/a	FR1	3	R1243T
2155.558	0.785	2160135	WORD_OFF	n/a	n/a	PHONE	9	20	[0, 0, 0]	n/a	FR1	3	R1243T
2156.343	1.616	2160920	WORD	n/a	wordpools/wordpool_EN.txt	LAMB	10	20	[0, 0, 0]	n/a	FR1	3	R1243T
2157.959	0.983	2162536	WORD_OFF	n/a	n/a	LAMB	10	20	[0, 0, 0]	n/a	FR1	3	R1243T
2158.942	1.617	2163519	WORD	n/a	wordpools/wordpool_EN.txt	DESK	11	20	[0, 0, 0]	n/a	FR1	3	R1243T
2160.559	0.985	2165136	WORD_OFF	n/a	n/a	DESK	11	20	[0, 0, 0]	n/a	FR1	3	R1243T
2161.544	1.617	2166120	WORD	n/a	wordpools/wordpool_EN.txt	FOAM	12	20	[0, 0, 0]	n/a	FR1	3	R1243T
2163.161	0.0	2167737	DISTRACT_START	n/a	n/a	n/a	-999	20	[0, 0, 0]	n/a	FR1	3	R1243T
2163.161	0.0	2167737	WORD_OFF	n/a	n/a	FOAM	12	20	[0, 0, 0]	n/a	FR1	3	R1243T
2163.161	0.016	2167737	START	n/a	n/a	n/a	-999	20	[-999, -999, -999]	n/a	FR1	3	R1243T
2163.177	5.968	2167753	PROB	5.968	n/a	n/a	-999	20	[3, 4, 4]	11	FR1	3	R1243T
2169.145	3.533	2173721	PROB	3.533	n/a	n/a	-999	20	[2, 9, 8]	19	FR1	3	R1243T
2172.678	3.735	2177254	PROB	3.735	n/a	n/a	-999	20	[7, 1, 4]	12	FR1	3	R1243T
2176.413	6.2	2180989	PROB	6.2	n/a	n/a	-999	20	[9, 8, 4]	21	FR1	3	R1243T
2182.613	4.94	2187188	PROB	4.94	n/a	n/a	-999	20	[5, 4, 8]	17	FR1	3	R1243T
2187.553	0.011	2192128	STOP	n/a	n/a	n/a	-999	20	[-999, -999, -999]	n/a	FR1	3	R1243T
2187.564	0.618	2192139	DISTRACT_END	n/a	n/a	n/a	-999	20	[0, 0, 0]	n/a	FR1	3	R1243T
2188.182	0.516	2192757	RETRIEVAL_ORIENT	n/a	n/a	n/a	-999	20	[0, 0, 0]	n/a	FR1	3	R1243T
2188.698	9.31	2193273	REC_START	n/a	n/a	n/a	-999	20	[0, 0, 0]	n/a	FR1	3	R1243T
2198.008	6.153	2202582	REC_WORD	6.153	n/a	POT	-999	20	[0, 0, 0]	n/a	FR1	3	R1243T
2204.161	5.773	2208735	REC_WORD	5.773	n/a	FISH	-999	20	[0, 0, 0]	n/a	FR1	3	R1243T
2209.934	8.778	2214508	REC_WORD	8.778	n/a	TOE	-999	20	[0, 0, 0]	n/a	FR1	3	R1243T
2218.712	12.093	2223285	REC_END	n/a	n/a	n/a	-999	20	[0, 0, 0]	n/a	FR1	3	R1243T
2230.805	0.5	2235377	TRIAL	n/a	n/a	n/a	-999	21	[0, 0, 0]	n/a	FR1	3	R1243T
2231.305	10.428	2235877	COUNTDOWN_START	n/a	n/a	n/a	-999	21	[0, 0, 0]	n/a	FR1	3	R1243T
2241.733	0.008	2246305	COUNTDOWN_END	n/a	n/a	n/a	-999	21	[0, 0, 0]	n/a	FR1	3	R1243T
2241.741	1.618	2246313	ORIENT	n/a	n/a	n/a	-999	21	[0, 0, 0]	n/a	FR1	3	R1243T
2243.359	2.05	2247930	ORIENT_OFF	n/a	n/a	n/a	-999	21	[0, 0, 0]	n/a	FR1	3	R1243T
2245.409	1.617	2249980	WORD	n/a	wordpools/wordpool_EN.txt	MOOSE	1	21	[0, 0, 0]	n/a	FR1	3	R1243T
2247.026	0.966	2251597	WORD_OFF	n/a	n/a	MOOSE	1	21	[0, 0, 0]	n/a	FR1	3	R1243T
2247.992	1.617	2252563	WORD	n/a	wordpools/wordpool_EN.txt	PIE	2	21	[0, 0, 0]	n/a	FR1	3	R1243T
2249.609	0.901	2254180	WORD_OFF	n/a	n/a	PIE	2	21	[0, 0, 0]	n/a	FR1	3	R1243T
2250.51	1.617	2255081	WORD	n/a	wordpools/wordpool_EN.txt	GRASS	3	21	[0, 0, 0]	n/a	FR1	3	R1243T
2252.127	0.983	2256698	WORD_OFF	n/a	n/a	GRASS	3	21	[0, 0, 0]	n/a	FR1	3	R1243T
2253.11	1.616	2257681	WORD	n/a	wordpools/wordpool_EN.txt	OAK	4	21	[0, 0, 0]	n/a	FR1	3	R1243T
2254.726	0.884	2259297	WORD_OFF	n/a	n/a	OAK	4	21	[0, 0, 0]	n/a	FR1	3	R1243T
2255.61	1.601	2260181	WORD	n/a	wordpools/wordpool_EN.txt	HORN	5	21	[0, 0, 0]	n/a	FR1	3	R1243T
2257.211	1.0	2261782	WORD_OFF	n/a	n/a	HORN	5	21	[0, 0, 0]	n/a	FR1	3	R1243T
2258.211	1.616	2262782	WORD	n/a	wordpools/wordpool_EN.txt	STEAK	6	21	[0, 0, 0]	n/a	FR1	3	R1243T
2259.827	0.851	2264397	WORD_OFF	n/a	n/a	STEAK	6	21	[0, 0, 0]	n/a	FR1	3	R1243T
2260.678	1.617	2265248	WORD	n/a	wordpools/wordpool_EN.txt	FENCE	7	21	[0, 0, 0]	n/a	FR1	3	R1243T
2262.295	0.917	2266865	WORD_OFF	n/a	n/a	FENCE	7	21	[0, 0, 0]	n/a	FR1	3	R1243T
2263.212	1.616	2267782	WORD	n/a	wordpools/wordpool_EN.txt	PEACH	8	21	[0, 0, 0]	n/a	FR1	3	R1243T
2264.828	0.817	2269398	WORD_OFF	n/a	n/a	PEACH	8	21	[0, 0, 0]	n/a	FR1	3	R1243T
2265.645	1.618	2270215	WORD	n/a	wordpools/wordpool_EN.txt	WOOD	9	21	[0, 0, 0]	n/a	FR1	3	R1243T
2267.263	0.967	2271833	WORD_OFF	n/a	n/a	WOOD	9	21	[0, 0, 0]	n/a	FR1	3	R1243T
2268.23	1.616	2272800	WORD	n/a	wordpools/wordpool_EN.txt	SIGN	10	21	[0, 0, 0]	n/a	FR1	3	R1243T
2269.846	0.867	2274416	WORD_OFF	n/a	n/a	SIGN	10	21	[0, 0, 0]	n/a	FR1	3	R1243T
2270.713	1.618	2275283	WORD	n/a	wordpools/wordpool_EN.txt	BATH	11	21	[0, 0, 0]	n/a	FR1	3	R1243T
2272.331	0.966	2276901	WORD_OFF	n/a	n/a	BATH	11	21	[0, 0, 0]	n/a	FR1	3	R1243T
2273.297	1.616	2277867	WORD	n/a	wordpools/wordpool_EN.txt	CLOTH	12	21	[0, 0, 0]	n/a	FR1	3	R1243T
2274.913	0.0	2279483	WORD_OFF	n/a	n/a	CLOTH	12	21	[0, 0, 0]	n/a	FR1	3	R1243T
2274.913	0.001	2279483	DISTRACT_START	n/a	n/a	n/a	-999	21	[0, 0, 0]	n/a	FR1	3	R1243T
2274.914	0.016	2279484	START	n/a	n/a	n/a	-999	21	[-999, -999, -999]	n/a	FR1	3	R1243T
2274.93	5.068	2279500	PROB	5.068	n/a	n/a	-999	21	[4, 5, 6]	15	FR1	3	R1243T
2279.998	2.95	2284567	PROB	2.95	n/a	n/a	-999	21	[1, 2, 4]	7	FR1	3	R1243T
2282.948	3.784	2287517	PROB	3.784	n/a	n/a	-999	21	[5, 4, 6]	15	FR1	3	R1243T
2286.732	3.067	2291301	PROB	3.067	n/a	n/a	-999	21	[7, 3, 4]	14	FR1	3	R1243T
2289.799	5.118	2294368	PROB	5.118	n/a	n/a	-999	21	[4, 3, 5]	12	FR1	3	R1243T
2294.917	3.18	2299485	PROB	3.18	n/a	n/a	-999	21	[6, 1, 2]	9	FR1	3	R1243T
2298.097	0.022	2302665	STOP	n/a	n/a	n/a	-999	21	[-999, -999, -999]	n/a	FR1	3	R1243T
2298.119	0.565	2302687	DISTRACT_END	n/a	n/a	n/a	-999	21	[0, 0, 0]	n/a	FR1	3	R1243T
2298.684	0.519	2303252	RETRIEVAL_ORIENT	n/a	n/a	n/a	-999	21	[0, 0, 0]	n/a	FR1	3	R1243T
2299.203	1.96	2303771	REC_START	n/a	n/a	n/a	-999	21	[0, 0, 0]	n/a	FR1	3	R1243T
2301.163	1.737	2305731	REC_WORD	1.737	n/a	BATH	-999	21	[0, 0, 0]	n/a	FR1	3	R1243T
2302.9	2.979	2307468	REC_WORD	2.979	n/a	CLOTH	-999	21	[0, 0, 0]	n/a	FR1	3	R1243T
2305.879	7.388	2310447	REC_WORD	7.388	n/a	FACE	-999	21	[0, 0, 0]	n/a	FR1	3	R1243T
2313.267	15.948	2317834	REC_WORD	15.948	n/a	SHOE	-999	21	[0, 0, 0]	n/a	FR1	3	R1243T
2329.215	5.01	2333781	REC_END	n/a	n/a	n/a	-999	21	[0, 0, 0]	n/a	FR1	3	R1243T
2334.225	0.5	2338791	TRIAL	n/a	n/a	n/a	-999	22	[0, 0, 0]	n/a	FR1	3	R1243T
2334.725	10.428	2339291	COUNTDOWN_START	n/a	n/a	n/a	-999	22	[0, 0, 0]	n/a	FR1	3	R1243T
2345.153	0.008	2349718	COUNTDOWN_END	n/a	n/a	n/a	-999	22	[0, 0, 0]	n/a	FR1	3	R1243T
2345.161	1.615	2349726	ORIENT	n/a	n/a	n/a	-999	22	[0, 0, 0]	n/a	FR1	3	R1243T
2346.776	2.302	2351341	ORIENT_OFF	n/a	n/a	n/a	-999	22	[0, 0, 0]	n/a	FR1	3	R1243T
2349.078	1.616	2353643	WORD	n/a	wordpools/wordpool_EN.txt	HOUSE	1	22	[0, 0, 0]	n/a	FR1	3	R1243T
2350.694	0.801	2355259	WORD_OFF	n/a	n/a	HOUSE	1	22	[0, 0, 0]	n/a	FR1	3	R1243T
2351.495	1.617	2356060	WORD	n/a	wordpools/wordpool_EN.txt	OWL	2	22	[0, 0, 0]	n/a	FR1	3	R1243T
2353.112	0.933	2357677	WORD_OFF	n/a	n/a	OWL	2	22	[0, 0, 0]	n/a	FR1	3	R1243T
2354.045	1.616	2358610	WORD	n/a	wordpools/wordpool_EN.txt	POND	3	22	[0, 0, 0]	n/a	FR1	3	R1243T
2355.661	0.868	2360226	WORD_OFF	n/a	n/a	POND	3	22	[0, 0, 0]	n/a	FR1	3	R1243T
2356.529	1.617	2361094	WORD	n/a	wordpools/wordpool_EN.txt	BARN	4	22	[0, 0, 0]	n/a	FR1	3	R1243T
2358.146	0.766	2362710	WORD_OFF	n/a	n/a	BARN	4	22	[0, 0, 0]	n/a	FR1	3	R1243T
2358.912	1.601	2363476	WORD	n/a	wordpools/wordpool_EN.txt	VEST	5	22	[0, 0, 0]	n/a	FR1	3	R1243T
2360.513	0.884	2365077	WORD_OFF	n/a	n/a	VEST	5	22	[0, 0, 0]	n/a	FR1	3	R1243T
2361.397	1.617	2365961	WORD	n/a	wordpools/wordpool_EN.txt	HAWK	6	22	[0, 0, 0]	n/a	FR1	3	R1243T
2363.014	0.982	2367578	WORD_OFF	n/a	n/a	HAWK	6	22	[0, 0, 0]	n/a	FR1	3	R1243T
2363.996	1.617	2368560	WORD	n/a	wordpools/wordpool_EN.txt	HILL	7	22	[0, 0, 0]	n/a	FR1	3	R1243T
2365.613	0.885	2370177	WORD_OFF	n/a	n/a	HILL	7	22	[0, 0, 0]	n/a	FR1	3	R1243T
2366.498	1.617	2371062	WORD	n/a	wordpools/wordpool_EN.txt	NEST	8	22	[0, 0, 0]	n/a	FR1	3	R1243T
2368.115	0.9	2372679	WORD_OFF	n/a	n/a	NEST	8	22	[0, 0, 0]	n/a	FR1	3	R1243T
2369.015	1.616	2373579	WORD	n/a	wordpools/wordpool_EN.txt	SKY	9	22	[0, 0, 0]	n/a	FR1	3	R1243T
2370.631	0.95	2375195	WORD_OFF	n/a	n/a	SKY	9	22	[0, 0, 0]	n/a	FR1	3	R1243T
2371.581	1.601	2376145	WORD	n/a	wordpools/wordpool_EN.txt	FROG	10	22	[0, 0, 0]	n/a	FR1	3	R1243T
2373.182	0.834	2377746	WORD_OFF	n/a	n/a	FROG	10	22	[0, 0, 0]	n/a	FR1	3	R1243T
2374.016	1.616	2378579	WORD	n/a	wordpools/wordpool_EN.txt	GOAT	11	22	[0, 0, 0]	n/a	FR1	3	R1243T
2375.632	0.967	2380195	WORD_OFF	n/a	n/a	GOAT	11	22	[0, 0, 0]	n/a	FR1	3	R1243T
2376.599	1.617	2381162	WORD	n/a	wordpools/wordpool_EN.txt	CLOUD	12	22	[0, 0, 0]	n/a	FR1	3	R1243T
2378.216	0.0	2382779	WORD_OFF	n/a	n/a	CLOUD	12	22	[0, 0, 0]	n/a	FR1	3	R1243T
2378.216	0.001	2382779	DISTRACT_START	n/a	n/a	n/a	-999	22	[0, 0, 0]	n/a	FR1	3	R1243T
2378.217	0.016	2382780	START	n/a	n/a	n/a	-999	22	[-999, -999, -999]	n/a	FR1	3	R1243T
2378.233	4.417	2382796	PROB	4.417	n/a	n/a	-999	22	[5, 1, 9]	15	FR1	3	R1243T
2382.65	2.917	2387213	PROB	2.917	n/a	n/a	-999	22	[3, 1, 5]	9	FR1	3	R1243T
2385.567	3.367	2390130	PROB	3.367	n/a	n/a	-999	22	[5, 3, 4]	12	FR1	3	R1243T
2388.934	6.102	2393497	PROB	6.102	n/a	n/a	-999	22	[1, 7, 9]	17	FR1	3	R1243T
2395.036	4.158	2399598	PROB	4.158	n/a	n/a	-999	22	[8, 5, 9]	22	FR1	3	R1243T
2399.194	0.01	2403756	STOP	n/a	n/a	n/a	-999	22	[-999, -999, -999]	n/a	FR1	3	R1243T
2399.204	0.649	2403766	DISTRACT_END	n/a	n/a	n/a	-999	22	[0, 0, 0]	n/a	FR1	3	R1243T
2399.853	0.518	2404415	RETRIEVAL_ORIENT	n/a	n/a	n/a	-999	22	[0, 0, 0]	n/a	FR1	3	R1243T
2400.371	2.644	2404933	REC_START	n/a	n/a	n/a	-999	22	[0, 0, 0]	n/a	FR1	3	R1243T
2403.015	3.118	2407577	REC_WORD_VV	3.118	n/a	<>	-999	22	[0, 0, 0]	n/a	FR1	3	R1243T
2406.133	1.183	2410695	REC_WORD	1.183	n/a	GOAT	-999	22	[0, 0, 0]	n/a	FR1	3	R1243T
2407.316	1.905	2411877	REC_WORD	1.905	n/a	PEN	-999	22	[0, 0, 0]	n/a	FR1	3	R1243T
2409.221	1.166	2413782	REC_WORD	1.166	n/a	BARN	-999	22	[0, 0, 0]	n/a	FR1	3	R1243T
2410.387	1.821	2414948	REC_WORD	1.821	n/a	OWL	-999	22	[0, 0, 0]	n/a	FR1	3	R1243T
2412.208	18.176	2416769	REC_WORD	18.176	n/a	HOUSE	-999	22	[0, 0, 0]	n/a	FR1	3	R1243T
2430.384	24.947	2434944	REC_END	n/a	n/a	n/a	-999	22	[0, 0, 0]	n/a	FR1	3	R1243T
2455.331	0.5	2459890	TRIAL	n/a	n/a	n/a	-999	23	[0, 0, 0]	n/a	FR1	3	R1243T
2455.831	10.428	2460389	COUNTDOWN_START	n/a	n/a	n/a	-999	23	[0, 0, 0]	n/a	FR1	3	R1243T
2466.259	0.007	2470817	COUNTDOWN_END	n/a	n/a	n/a	-999	23	[0, 0, 0]	n/a	FR1	3	R1243T
2466.266	1.616	2470824	ORIENT	n/a	n/a	n/a	-999	23	[0, 0, 0]	n/a	FR1	3	R1243T
2467.882	1.867	2472440	ORIENT_OFF	n/a	n/a	n/a	-999	23	[0, 0, 0]	n/a	FR1	3	R1243T
2469.749	1.601	2474307	WORD	n/a	wordpools/wordpool_EN.txt	ROOF	1	23	[0, 0, 0]	n/a	FR1	3	R1243T
2471.35	0.85	2475908	WORD_OFF	n/a	n/a	ROOF	1	23	[0, 0, 0]	n/a	FR1	3	R1243T
2472.2	1.616	2476757	WORD	n/a	wordpools/wordpool_EN.txt	CAVE	2	23	[0, 0, 0]	n/a	FR1	3	R1243T
2473.816	0.884	2478373	WORD_OFF	n/a	n/a	CAVE	2	23	[0, 0, 0]	n/a	FR1	3	R1243T
2474.7	1.618	2479257	WORD	n/a	wordpools/wordpool_EN.txt	MOLE	3	23	[0, 0, 0]	n/a	FR1	3	R1243T
2476.318	1.0	2480875	WORD_OFF	n/a	n/a	MOLE	3	23	[0, 0, 0]	n/a	FR1	3	R1243T
2477.318	1.616	2481875	WORD	n/a	wordpools/wordpool_EN.txt	HOLE	4	23	[0, 0, 0]	n/a	FR1	3	R1243T
2478.934	0.85	2483491	WORD_OFF	n/a	n/a	HOLE	4	23	[0, 0, 0]	n/a	FR1	3	R1243T
2479.784	1.618	2484341	WORD	n/a	wordpools/wordpool_EN.txt	AXE	5	23	[0, 0, 0]	n/a	FR1	3	R1243T
2481.402	0.833	2485959	WORD_OFF	n/a	n/a	AXE	5	23	[0, 0, 0]	n/a	FR1	3	R1243T
2482.235	1.616	2486792	WORD	n/a	wordpools/wordpool_EN.txt	SHIELD	6	23	[0, 0, 0]	n/a	FR1	3	R1243T
2483.851	0.817	2488408	WORD_OFF	n/a	n/a	SHIELD	6	23	[0, 0, 0]	n/a	FR1	3	R1243T
2484.668	1.601	2489225	WORD	n/a	wordpools/wordpool_EN.txt	STORM	7	23	[0, 0, 0]	n/a	FR1	3	R1243T
2486.269	1.001	2490826	WORD_OFF	n/a	n/a	STORM	7	23	[0, 0, 0]	n/a	FR1	3	R1243T
2487.27	1.616	2491827	WORD	n/a	wordpools/wordpool_EN.txt	CANE	8	23	[0, 0, 0]	n/a	FR1	3	R1243T
2488.886	0.966	2493442	WORD_OFF	n/a	n/a	CANE	8	23	[0, 0, 0]	n/a	FR1	3	R1243T
2489.852	1.601	2494408	WORD	n/a	wordpools/wordpool_EN.txt	BEE	9	23	[0, 0, 0]	n/a	FR1	3	R1243T
2491.453	0.868	2496009	WORD_OFF	n/a	n/a	BEE	9	23	[0, 0, 0]	n/a	FR1	3	R1243T
2492.321	1.615	2496877	WORD	n/a	wordpools/wordpool_EN.txt	FLOOR	10	23	[0, 0, 0]	n/a	FR1	3	R1243T
2493.936	0.867	2498492	WORD_OFF	n/a	n/a	FLOOR	10	23	[0, 0, 0]	n/a	FR1	3	R1243T
2494.803	1.618	2499359	WORD	n/a	wordpools/wordpool_EN.txt	GATE	11	23	[0, 0, 0]	n/a	FR1	3	R1243T
2496.421	0.934	2500977	WORD_OFF	n/a	n/a	GATE	11	23	[0, 0, 0]	n/a	FR1	3	R1243T
2497.355	1.616	2501911	WORD	n/a	wordpools/wordpool_EN.txt	RIB	12	23	[0, 0, 0]	n/a	FR1	3	R1243T
2498.971	0.0	2503527	WORD_OFF	n/a	n/a	RIB	12	23	[0, 0, 0]	n/a	FR1	3	R1243T
2498.971	0.0	2503527	DISTRACT_START	n/a	n/a	n/a	-999	23	[0, 0, 0]	n/a	FR1	3	R1243T
2498.971	0.016	2503527	START	n/a	n/a	n/a	-999	23	[-999, -999, -999]	n/a	FR1	3	R1243T
2498.987	4.369	2503543	PROB	4.369	n/a	n/a	-999	23	[2, 6, 7]	15	FR1	3	R1243T
2503.356	5.333	2507912	PROB	5.333	n/a	n/a	-999	23	[5, 7, 9]	21	FR1	3	R1243T
2508.689	4.901	2513244	PROB	4.901	n/a	n/a	-999	23	[9, 6, 2]	17	FR1	3	R1243T
2513.59	4.802	2518145	PROB	4.802	n/a	n/a	-999	23	[7, 9, 6]	22	FR1	3	R1243T
2518.392	4.058	2522947	PROB	4.058	n/a	n/a	-999	23	[2, 9, 1]	12	FR1	3	R1243T
2522.45	0.009	2527004	STOP	n/a	n/a	n/a	-999	23	[-999, -999, -999]	n/a	FR1	3	R1243T
2522.459	0.667	2527013	DISTRACT_END	n/a	n/a	n/a	-999	23	[0, 0, 0]	n/a	FR1	3	R1243T
2523.126	0.517	2527680	RETRIEVAL_ORIENT	n/a	n/a	n/a	-999	23	[0, 0, 0]	n/a	FR1	3	R1243T
2523.643	2.433	2528197	REC_START	n/a	n/a	n/a	-999	23	[0, 0, 0]	n/a	FR1	3	R1243T
2526.076	1.059	2530630	REC_WORD	1.059	n/a	AXE	-999	23	[0, 0, 0]	n/a	FR1	3	R1243T
2527.135	1.193	2531689	REC_WORD	1.193	n/a	HOLE	-999	23	[0, 0, 0]	n/a	FR1	3	R1243T
2528.328	1.122	2532882	REC_WORD	1.122	n/a	MOLE	-999	23	[0, 0, 0]	n/a	FR1	3	R1243T
2529.45	10.477	2534004	REC_WORD	10.477	n/a	ROOF	-999	23	[0, 0, 0]	n/a	FR1	3	R1243T
2539.927	9.877	2544480	REC_WORD	9.877	n/a	FLOOR	-999	23	[0, 0, 0]	n/a	FR1	3	R1243T
2549.804	3.851	2554357	REC_WORD_VV	3.851	n/a	<>	-999	23	[0, 0, 0]	n/a	FR1	3	R1243T
2553.655	5.994	2558208	REC_END	n/a	n/a	n/a	-999	23	[0, 0, 0]	n/a	FR1	3	R1243T
2559.649	0.5	2564201	TRIAL	n/a	n/a	n/a	-999	24	[0, 0, 0]	n/a	FR1	3	R1243T
2560.149	10.428	2564701	COUNTDOWN_START	n/a	n/a	n/a	-999	24	[0, 0, 0]	n/a	FR1	3	R1243T
2570.577	0.007	2575128	COUNTDOWN_END	n/a	n/a	n/a	-999	24	[0, 0, 0]	n/a	FR1	3	R1243T
2570.584	1.618	2575135	ORIENT	n/a	n/a	n/a	-999	24	[0, 0, 0]	n/a	FR1	3	R1243T
2572.202	2.2	2576753	ORIENT_OFF	n/a	n/a	n/a	-999	24	[0, 0, 0]	n/a	FR1	3	R1243T
2574.402	1.617	2578953	WORD	n/a	wordpools/wordpool_EN.txt	CHEEK	1	24	[0, 0, 0]	n/a	FR1	3	R1243T
2576.019	0.916	2580570	WORD_OFF	n/a	n/a	CHEEK	1	24	[0, 0, 0]	n/a	FR1	3	R1243T
2576.935	1.617	2581486	WORD	n/a	wordpools/wordpool_EN.txt	TRAY	2	24	[0, 0, 0]	n/a	FR1	3	R1243T
2578.552	0.918	2583103	WORD_OFF	n/a	n/a	TRAY	2	24	[0, 0, 0]	n/a	FR1	3	R1243T
2579.47	1.617	2584021	WORD	n/a	wordpools/wordpool_EN.txt	DRESS	3	24	[0, 0, 0]	n/a	FR1	3	R1243T
2581.087	0.882	2585638	WORD_OFF	n/a	n/a	DRESS	3	24	[0, 0, 0]	n/a	FR1	3	R1243T
2581.969	1.617	2586520	WORD	n/a	wordpools/wordpool_EN.txt	PEA	4	24	[0, 0, 0]	n/a	FR1	3	R1243T
2583.586	1.0	2588137	WORD_OFF	n/a	n/a	PEA	4	24	[0, 0, 0]	n/a	FR1	3	R1243T
2584.586	1.601	2589137	WORD	n/a	wordpools/wordpool_EN.txt	SUIT	5	24	[0, 0, 0]	n/a	FR1	3	R1243T
2586.187	0.984	2590738	WORD_OFF	n/a	n/a	SUIT	5	24	[0, 0, 0]	n/a	FR1	3	R1243T
2587.171	1.616	2591721	WORD	n/a	wordpools/wordpool_EN.txt	DOOR	6	24	[0, 0, 0]	n/a	FR1	3	R1243T
2588.787	0.9	2593337	WORD_OFF	n/a	n/a	DOOR	6	24	[0, 0, 0]	n/a	FR1	3	R1243T
2589.687	1.618	2594237	WORD	n/a	wordpools/wordpool_EN.txt	BENCH	7	24	[0, 0, 0]	n/a	FR1	3	R1243T
2591.305	0.85	2595855	WORD_OFF	n/a	n/a	BENCH	7	24	[0, 0, 0]	n/a	FR1	3	R1243T
2592.155	1.616	2596705	WORD	n/a	wordpools/wordpool_EN.txt	PALM	8	24	[0, 0, 0]	n/a	FR1	3	R1243T
2593.771	0.784	2598321	WORD_OFF	n/a	n/a	PALM	8	24	[0, 0, 0]	n/a	FR1	3	R1243T
2594.555	1.618	2599105	WORD	n/a	wordpools/wordpool_EN.txt	FACE	9	24	[0, 0, 0]	n/a	FR1	3	R1243T
2596.173	0.883	2600723	WORD_OFF	n/a	n/a	FACE	9	24	[0, 0, 0]	n/a	FR1	3	R1243T
2597.056	1.616	2601606	WORD	n/a	wordpools/wordpool_EN.txt	SHOE	10	24	[0, 0, 0]	n/a	FR1	3	R1243T
2598.672	0.801	2603222	WORD_OFF	n/a	n/a	SHOE	10	24	[0, 0, 0]	n/a	FR1	3	R1243T
2599.473	1.617	2604023	WORD	n/a	wordpools/wordpool_EN.txt	MAT	11	24	[0, 0, 0]	n/a	FR1	3	R1243T
2601.09	0.799	2605640	WORD_OFF	n/a	n/a	MAT	11	24	[0, 0, 0]	n/a	FR1	3	R1243T
2601.889	1.618	2606439	WORD	n/a	wordpools/wordpool_EN.txt	PANTS	12	24	[0, 0, 0]	n/a	FR1	3	R1243T
2603.507	0.0	2608056	WORD_OFF	n/a	n/a	PANTS	12	24	[0, 0, 0]	n/a	FR1	3	R1243T
2603.507	0.001	2608056	DISTRACT_START	n/a	n/a	n/a	-999	24	[0, 0, 0]	n/a	FR1	3	R1243T
2603.508	0.016	2608057	START	n/a	n/a	n/a	-999	24	[-999, -999, -999]	n/a	FR1	3	R1243T
2603.524	4.768	2608073	PROB	4.768	n/a	n/a	-999	24	[4, 5, 7]	16	FR1	3	R1243T
2608.292	4.316	2612841	PROB	4.316	n/a	n/a	-999	24	[1, 9, 1]	11	FR1	3	R1243T
2612.608	6.318	2617157	PROB	6.318	n/a	n/a	-999	24	[6, 3, 8]	17	FR1	3	R1243T
2618.926	7.564	2623475	PROB	7.564	n/a	n/a	-999	24	[7, 4, 9]	20	FR1	3	R1243T
2626.49	0.021	2631038	STOP	n/a	n/a	n/a	-999	24	[-999, -999, -999]	n/a	FR1	3	R1243T
2626.511	0.567	2631059	DISTRACT_END	n/a	n/a	n/a	-999	24	[0, 0, 0]	n/a	FR1	3	R1243T
2627.078	0.517	2631626	RETRIEVAL_ORIENT	n/a	n/a	n/a	-999	24	[0, 0, 0]	n/a	FR1	3	R1243T
2627.595	2.917	2632143	REC_START	n/a	n/a	n/a	-999	24	[0, 0, 0]	n/a	FR1	3	R1243T
2630.512	6.94	2635060	REC_WORD	6.94	n/a	FACE	-999	24	[0, 0, 0]	n/a	FR1	3	R1243T
2637.452	2.672	2641999	REC_WORD	2.672	n/a	SUIT	-999	24	[0, 0, 0]	n/a	FR1	3	R1243T
2640.124	2.225	2644671	REC_WORD	2.225	n/a	DRESS	-999	24	[0, 0, 0]	n/a	FR1	3	R1243T
2642.349	2.309	2646896	REC_WORD	2.309	n/a	PANTS	-999	24	[0, 0, 0]	n/a	FR1	3	R1243T
2644.658	12.949	2649205	REC_WORD	12.949	n/a	SHOE	-999	24	[0, 0, 0]	n/a	FR1	3	R1243T
2657.607	5.478	2662153	REC_END	n/a	n/a	n/a	-999	24	[0, 0, 0]	n/a	FR1	3	R1243T
2663.085	0.5	2667631	TRIAL	n/a	n/a	n/a	-999	25	[0, 0, 0]	n/a	FR1	3	R1243T
2663.585	10.428	2668131	COUNTDOWN_START	n/a	n/a	n/a	-999	25	[0, 0, 0]	n/a	FR1	3	R1243T
2674.013	0.007	2678558	COUNTDOWN_END	n/a	n/a	n/a	-999	25	[0, 0, 0]	n/a	FR1	3	R1243T
2674.02	1.616	2678565	ORIENT	n/a	n/a	n/a	-999	25	[0, 0, 0]	n/a	FR1	3	R1243T
2675.636	2.251	2680181	ORIENT_OFF	n/a	n/a	n/a	-999	25	[0, 0, 0]	n/a	FR1	3	R1243T
2677.887	1.617	2682432	WORD	n/a	wordpools/wordpool_EN.txt	CASH	1	25	[0, 0, 0]	n/a	FR1	3	R1243T
2679.504	0.8	2684049	WORD_OFF	n/a	n/a	CASH	1	25	[0, 0, 0]	n/a	FR1	3	R1243T
2680.304	1.617	2684849	WORD	n/a	wordpools/wordpool_EN.txt	KEY	2	25	[0, 0, 0]	n/a	FR1	3	R1243T
2681.921	0.8	2686466	WORD_OFF	n/a	n/a	KEY	2	25	[0, 0, 0]	n/a	FR1	3	R1243T
2682.721	1.601	2687266	WORD	n/a	wordpools/wordpool_EN.txt	EEL	3	25	[0, 0, 0]	n/a	FR1	3	R1243T
2684.322	1.0	2688867	WORD_OFF	n/a	n/a	EEL	3	25	[0, 0, 0]	n/a	FR1	3	R1243T
2685.322	1.616	2689866	WORD	n/a	wordpools/wordpool_EN.txt	COIN	4	25	[0, 0, 0]	n/a	FR1	3	R1243T
2686.938	0.984	2691482	WORD_OFF	n/a	n/a	COIN	4	25	[0, 0, 0]	n/a	FR1	3	R1243T
2687.922	1.618	2692466	WORD	n/a	wordpools/wordpool_EN.txt	RAIN	5	25	[0, 0, 0]	n/a	FR1	3	R1243T
2689.54	1.0	2694084	WORD_OFF	n/a	n/a	RAIN	5	25	[0, 0, 0]	n/a	FR1	3	R1243T
2690.54	1.617	2695084	WORD	n/a	wordpools/wordpool_EN.txt	MAIL	6	25	[0, 0, 0]	n/a	FR1	3	R1243T
2692.157	0.832	2696701	WORD_OFF	n/a	n/a	MAIL	6	25	[0, 0, 0]	n/a	FR1	3	R1243T
2692.989	1.617	2697533	WORD	n/a	wordpools/wordpool_EN.txt	CAR	7	25	[0, 0, 0]	n/a	FR1	3	R1243T
2694.606	0.818	2699150	WORD_OFF	n/a	n/a	CAR	7	25	[0, 0, 0]	n/a	FR1	3	R1243T
2695.424	1.617	2699968	WORD	n/a	wordpools/wordpool_EN.txt	WING	8	25	[0, 0, 0]	n/a	FR1	3	R1243T
2697.041	0.783	2701585	WORD_OFF	n/a	n/a	WING	8	25	[0, 0, 0]	n/a	FR1	3	R1243T
2697.824	1.617	2702368	WORD	n/a	wordpools/wordpool_EN.txt	PLANE	9	25	[0, 0, 0]	n/a	FR1	3	R1243T
2699.441	0.967	2703985	WORD_OFF	n/a	n/a	PLANE	9	25	[0, 0, 0]	n/a	FR1	3	R1243T
2700.408	1.617	2704952	WORD	n/a	wordpools/wordpool_EN.txt	SHEET	10	25	[0, 0, 0]	n/a	FR1	3	R1243T
2702.025	0.916	2706568	WORD_OFF	n/a	n/a	SHEET	10	25	[0, 0, 0]	n/a	FR1	3	R1243T
2702.941	1.617	2707484	WORD	n/a	wordpools/wordpool_EN.txt	BOOK	11	25	[0, 0, 0]	n/a	FR1	3	R1243T
2704.558	0.901	2709101	WORD_OFF	n/a	n/a	BOOK	11	25	[0, 0, 0]	n/a	FR1	3	R1243T
2705.459	1.617	2710002	WORD	n/a	wordpools/wordpool_EN.txt	BANK	12	25	[0, 0, 0]	n/a	FR1	3	R1243T
2707.076	0.0	2711619	WORD_OFF	n/a	n/a	BANK	12	25	[0, 0, 0]	n/a	FR1	3	R1243T
2707.076	0.001	2711619	DISTRACT_START	n/a	n/a	n/a	-999	25	[0, 0, 0]	n/a	FR1	3	R1243T
2707.077	0.016	2711620	START	n/a	n/a	n/a	-999	25	[-999, -999, -999]	n/a	FR1	3	R1243T
2707.093	3.583	2711636	PROB	3.583	n/a	n/a	-999	25	[2, 5, 5]	12	FR1	3	R1243T
2710.676	3.05	2715219	PROB	3.05	n/a	n/a	-999	25	[2, 8, 4]	14	FR1	3	R1243T
2713.726	3.419	2718269	PROB	3.419	n/a	n/a	-999	25	[7, 7, 5]	19	FR1	3	R1243T
2717.145	2.35	2721688	PROB	2.35	n/a	n/a	-999	25	[3, 3, 3]	9	FR1	3	R1243T
2719.495	3.183	2724037	PROB	3.183	n/a	n/a	-999	25	[3, 1, 1]	5	FR1	3	R1243T
2722.678	6.195	2727220	PROB	6.195	n/a	n/a	-999	25	[5, 3, 9]	17	FR1	3	R1243T
2728.873	0.006	2733415	STOP	n/a	n/a	n/a	-999	25	[-999, -999, -999]	n/a	FR1	3	R1243T
2728.879	0.535	2733421	DISTRACT_END	n/a	n/a	n/a	-999	25	[0, 0, 0]	n/a	FR1	3	R1243T
2729.414	0.516	2733956	RETRIEVAL_ORIENT	n/a	n/a	n/a	-999	25	[0, 0, 0]	n/a	FR1	3	R1243T
2729.93	2.628	2734472	REC_START	n/a	n/a	n/a	-999	25	[0, 0, 0]	n/a	FR1	3	R1243T
2732.558	1.624	2737100	REC_WORD	1.624	n/a	PLANE	-999	25	[0, 0, 0]	n/a	FR1	3	R1243T
2734.182	2.698	2738723	REC_WORD	2.698	n/a	WING	-999	25	[0, 0, 0]	n/a	FR1	3	R1243T
2736.88	18.986	2741421	REC_WORD	18.986	n/a	EEL	-999	25	[0, 0, 0]	n/a	FR1	3	R1243T
2755.866	3.296	2760406	REC_WORD	3.296	n/a	TRAIN	-999	25	[0, 0, 0]	n/a	FR1	3	R1243T
2759.162	0.778	2763702	REC_WORD	0.778	n/a	CAR	-999	25	[0, 0, 0]	n/a	FR1	3	R1243T
2759.94	0.0	2764480	REC_END	n/a	n/a	n/a	-999	25	[0, 0, 0]	n/a	FR1	3	R1243T
