onset	duration	sample	trial_type	response_time	stim_file	item_name	serialpos	list	test	answer	experiment	session	subject
0.0	0.312	-1	Logging	n/a	n/a	n/a	-999	25	[0, 0, 0]	n/a	FR1	0	R1313J
0.312	0.007	-1	INSTRUCT_START	n/a	n/a	n/a	-999	-999	[0, 0, 0]	n/a	FR1	0	R1313J
0.319	399.08	-1	Logging	n/a	n/a	n/a	-999	-999	[0, 0, 0]	n/a	FR1	0	R1313J
399.399	0.0	63675	MIC	n/a	n/a	n/a	-999	-999	[0, 0, 0]	n/a	FR1	0	R1313J
399.399	0.0	63675	WAITING_START	n/a	n/a	n/a	-999	-1	[0, 0, 0]	n/a	FR1	0	R1313J
399.399	0.0	63675	TRIAL	n/a	n/a	n/a	-999	-1	[0, 0, 0]	n/a	FR1	0	R1313J
399.399	0.0	63675	INSTRUCT_END	n/a	n/a	n/a	-999	-999	[0, 0, 0]	n/a	FR1	0	R1313J
399.399	0.0	63675	MIC	n/a	n/a	n/a	-999	-999	[0, 0, 0]	n/a	FR1	0	R1313J
399.399	193.2	63675	TRIAL_START	n/a	n/a	n/a	-999	-1	[0, 0, 0]	n/a	FR1	0	R1313J
592.599	0.0	256867	COUNTDOWN_START	n/a	n/a	n/a	-999	-1	[0, 0, 0]	n/a	FR1	0	R1313J
592.599	0.0	256867	ORIENT_START	n/a	n/a	n/a	-999	-1	[0, 0, 0]	n/a	FR1	0	R1313J
592.599	0.0	256867	WAITING_END	n/a	n/a	n/a	-999	-1	[0, 0, 0]	n/a	FR1	0	R1313J
592.599	11.484	256867	COUNTDOWN_END	n/a	n/a	n/a	-999	-1	[0, 0, 0]	n/a	FR1	0	R1313J
604.083	0.0	268351	ORIENT_END	n/a	n/a	n/a	-999	-1	[0, 0, 0]	n/a	FR1	0	R1313J
604.083	1.088	268351	ENCODING_START	n/a	n/a	n/a	-999	-1	[0, 0, 0]	n/a	FR1	0	R1313J
605.171	1.63	269439	WORD	n/a	n/a	RING	1	-1	[0, 0, 0]	n/a	FR1	0	R1313J
606.801	0.964	271069	WORD_OFF	n/a	n/a	RING	1	-1	[0, 0, 0]	n/a	FR1	0	R1313J
607.765	1.636	272033	WORD	n/a	n/a	CAMEL	2	-1	[0, 0, 0]	n/a	FR1	0	R1313J
609.401	1.049	273669	WORD_OFF	n/a	n/a	CAMEL	2	-1	[0, 0, 0]	n/a	FR1	0	R1313J
610.45	1.634	274718	WORD	n/a	n/a	FLOOD	3	-1	[0, 0, 0]	n/a	FR1	0	R1313J
612.084	1.141	276351	WORD_OFF	n/a	n/a	FLOOD	3	-1	[0, 0, 0]	n/a	FR1	0	R1313J
613.225	1.611	277492	WORD	n/a	n/a	IMAGE	4	-1	[0, 0, 0]	n/a	FR1	0	R1313J
614.836	1.085	279103	WORD_OFF	n/a	n/a	IMAGE	4	-1	[0, 0, 0]	n/a	FR1	0	R1313J
615.921	1.632	280188	WORD	n/a	n/a	BABY	5	-1	[0, 0, 0]	n/a	FR1	0	R1313J
617.553	0.904	281820	WORD_OFF	n/a	n/a	BABY	5	-1	[0, 0, 0]	n/a	FR1	0	R1313J
618.457	1.629	282724	WORD	n/a	n/a	WATCH	6	-1	[0, 0, 0]	n/a	FR1	0	R1313J
620.086	1.078	284353	WORD_OFF	n/a	n/a	WATCH	6	-1	[0, 0, 0]	n/a	FR1	0	R1313J
621.164	1.606	285431	WORD	n/a	n/a	CHEST	7	-1	[0, 0, 0]	n/a	FR1	0	R1313J
622.77	1.114	287037	WORD_OFF	n/a	n/a	CHEST	7	-1	[0, 0, 0]	n/a	FR1	0	R1313J
623.884	1.637	288151	WORD	n/a	n/a	WAGON	8	-1	[0, 0, 0]	n/a	FR1	0	R1313J
625.521	0.763	289788	WORD_OFF	n/a	n/a	WAGON	8	-1	[0, 0, 0]	n/a	FR1	0	R1313J
626.284	1.637	290551	WORD	n/a	n/a	BEAM	9	-1	[0, 0, 0]	n/a	FR1	0	R1313J
627.921	0.913	292188	WORD_OFF	n/a	n/a	BEAM	9	-1	[0, 0, 0]	n/a	FR1	0	R1313J
628.834	1.638	293101	WORD	n/a	n/a	TONGUE	10	-1	[0, 0, 0]	n/a	FR1	0	R1313J
630.472	0.916	294739	WORD_OFF	n/a	n/a	TONGUE	10	-1	[0, 0, 0]	n/a	FR1	0	R1313J
631.388	1.633	295655	WORD	n/a	n/a	RHINO	11	-1	[0, 0, 0]	n/a	FR1	0	R1313J
633.021	0.941	297288	WORD_OFF	n/a	n/a	RHINO	11	-1	[0, 0, 0]	n/a	FR1	0	R1313J
633.962	1.627	298229	WORD	n/a	n/a	COTTON	12	-1	[0, 0, 0]	n/a	FR1	0	R1313J
635.589	0.0	299856	WORD_OFF	n/a	n/a	COTTON	12	-1	[0, 0, 0]	n/a	FR1	0	R1313J
635.589	0.0	299856	ENCODING_END	n/a	n/a	n/a	-999	-1	[0, 0, 0]	n/a	FR1	0	R1313J
635.589	0.001	299856	DISTRACT_START	n/a	n/a	n/a	-999	-1	[0, 0, 0]	n/a	FR1	0	R1313J
635.59	0.016	299857	START	n/a	n/a	n/a	-999	-1	[-999, -999, -999]	n/a	FR1	0	R1313J
635.606	7.5	299873	PROB	7.5	n/a	n/a	-999	-1	[4, 8, 6]	18	FR1	0	R1313J
643.106	3.385	307372	PROB	3.385	n/a	n/a	-999	-1	[5, 2, 3]	8	FR1	0	R1313J
646.491	3.984	310757	PROB	3.984	n/a	n/a	-999	-1	[9, 1, 3]	13	FR1	0	R1313J
650.475	3.917	314741	PROB	3.917	n/a	n/a	-999	-1	[4, 5, 5]	14	FR1	0	R1313J
654.392	2.609	318658	PROB	2.609	n/a	n/a	-999	-1	[3, 3, 3]	9	FR1	0	R1313J
657.001	0.007	321267	STOP	n/a	n/a	n/a	-999	-1	[-999, -999, -999]	n/a	FR1	0	R1313J
657.008	1.308	321274	DISTRACT_END	n/a	n/a	n/a	-999	-1	[0, 0, 0]	n/a	FR1	0	R1313J
658.316	1.026	322582	RETRIEVAL_ORIENT_START	n/a	n/a	n/a	-999	-1	[0, 0, 0]	n/a	FR1	0	R1313J
659.342	0.0	323608	REC_START	n/a	n/a	n/a	-999	-1	[0, 0, 0]	n/a	FR1	0	R1313J
659.342	1.27	323608	RETRIEVAL_ORIENT_END	n/a	n/a	n/a	-999	-1	[0, 0, 0]	n/a	FR1	0	R1313J
660.612	0.934	324877	REC_WORD	0.934	n/a	RING	1	-1	[0, 0, 0]	n/a	FR1	0	R1313J
661.546	1.391	325811	REC_WORD	1.391	n/a	CAMEL	2	-1	[0, 0, 0]	n/a	FR1	0	R1313J
662.937	6.055	327202	REC_WORD	6.055	n/a	WATCH	6	-1	[0, 0, 0]	n/a	FR1	0	R1313J
668.992	8.895	333257	REC_WORD_VV	8.895	n/a	<>	-999	-1	[0, 0, 0]	n/a	FR1	0	R1313J
677.887	11.967	342152	REC_WORD	11.967	n/a	BABY	5	-1	[0, 0, 0]	n/a	FR1	0	R1313J
689.854	0.0	354118	REC_END	n/a	n/a	n/a	-999	-1	[0, 0, 0]	n/a	FR1	0	R1313J
689.854	5.945	354118	PRACTICE_POST_INSTRUCT_START	n/a	n/a	n/a	-999	-1	[0, 0, 0]	n/a	FR1	0	R1313J
695.799	0.0	360063	PRACTICE_POST_INSTRUCT_END	n/a	n/a	n/a	-999	-1	[0, 0, 0]	n/a	FR1	0	R1313J
695.799	0.0	360063	TRIAL_END	n/a	n/a	n/a	-999	-1	[0, 0, 0]	n/a	FR1	0	R1313J
695.799	0.0	360063	TRIAL_START	n/a	n/a	n/a	-999	1	[0, 0, 0]	n/a	FR1	0	R1313J
695.799	0.0	360063	TRIAL	n/a	n/a	n/a	-999	1	[0, 0, 0]	n/a	FR1	0	R1313J
695.799	2.901	360063	WAITING_START	n/a	n/a	n/a	-999	1	[0, 0, 0]	n/a	FR1	0	R1313J
698.7	0.0	362964	WAITING_END	n/a	n/a	n/a	-999	1	[0, 0, 0]	n/a	FR1	0	R1313J
698.7	0.0	362964	COUNTDOWN_START	n/a	n/a	n/a	-999	1	[0, 0, 0]	n/a	FR1	0	R1313J
698.7	0.0	362964	COUNTDOWN_END	n/a	n/a	n/a	-999	1	[0, 0, 0]	n/a	FR1	0	R1313J
698.7	11.634	362964	ORIENT_START	n/a	n/a	n/a	-999	1	[0, 0, 0]	n/a	FR1	0	R1313J
710.334	0.0	374597	ENCODING_START	n/a	n/a	n/a	-999	1	[0, 0, 0]	n/a	FR1	0	R1313J
710.334	1.036	374597	ORIENT_END	n/a	n/a	n/a	-999	1	[0, 0, 0]	n/a	FR1	0	R1313J
711.37	1.631	375633	WORD	n/a	n/a	FOG	1	1	[0, 0, 0]	n/a	FR1	0	R1313J
713.001	1.074	377264	WORD_OFF	n/a	n/a	FOG	1	1	[0, 0, 0]	n/a	FR1	0	R1313J
714.075	1.628	378338	WORD	n/a	n/a	EGG	2	1	[0, 0, 0]	n/a	FR1	0	R1313J
715.703	0.785	379966	WORD_OFF	n/a	n/a	EGG	2	1	[0, 0, 0]	n/a	FR1	0	R1313J
716.488	1.631	380751	WORD	n/a	n/a	SHIRT	3	1	[0, 0, 0]	n/a	FR1	0	R1313J
718.119	0.84	382382	WORD_OFF	n/a	n/a	SHIRT	3	1	[0, 0, 0]	n/a	FR1	0	R1313J
718.959	1.628	383222	WORD	n/a	n/a	TRAIN	4	1	[0, 0, 0]	n/a	FR1	0	R1313J
720.587	1.011	384850	WORD_OFF	n/a	n/a	TRAIN	4	1	[0, 0, 0]	n/a	FR1	0	R1313J
721.598	1.622	385861	WORD	n/a	n/a	VASE	5	1	[0, 0, 0]	n/a	FR1	0	R1313J
723.22	0.786	387483	WORD_OFF	n/a	n/a	VASE	5	1	[0, 0, 0]	n/a	FR1	0	R1313J
724.006	1.615	388269	WORD	n/a	n/a	LAND	6	1	[0, 0, 0]	n/a	FR1	0	R1313J
725.621	1.134	389884	WORD_OFF	n/a	n/a	LAND	6	1	[0, 0, 0]	n/a	FR1	0	R1313J
726.755	1.633	391018	WORD	n/a	n/a	CONE	7	1	[0, 0, 0]	n/a	FR1	0	R1313J
728.388	0.988	392651	WORD_OFF	n/a	n/a	CONE	7	1	[0, 0, 0]	n/a	FR1	0	R1313J
729.376	1.628	393639	WORD	n/a	n/a	VEST	8	1	[0, 0, 0]	n/a	FR1	0	R1313J
731.004	0.874	395267	WORD_OFF	n/a	n/a	VEST	8	1	[0, 0, 0]	n/a	FR1	0	R1313J
731.878	1.628	396141	WORD	n/a	n/a	BEAK	9	1	[0, 0, 0]	n/a	FR1	0	R1313J
733.506	1.091	397768	WORD_OFF	n/a	n/a	BEAK	9	1	[0, 0, 0]	n/a	FR1	0	R1313J
734.597	1.625	398859	WORD	n/a	n/a	BRICK	10	1	[0, 0, 0]	n/a	FR1	0	R1313J
736.222	0.99	400484	WORD_OFF	n/a	n/a	BRICK	10	1	[0, 0, 0]	n/a	FR1	0	R1313J
737.212	1.628	401474	WORD	n/a	n/a	CAT	11	1	[0, 0, 0]	n/a	FR1	0	R1313J
738.84	1.131	403102	WORD_OFF	n/a	n/a	CAT	11	1	[0, 0, 0]	n/a	FR1	0	R1313J
739.971	1.636	404233	WORD	n/a	n/a	SLUSH	12	1	[0, 0, 0]	n/a	FR1	0	R1313J
741.607	0.0	405869	WORD_OFF	n/a	n/a	SLUSH	12	1	[0, 0, 0]	n/a	FR1	0	R1313J
741.607	0.0	405869	ENCODING_END	n/a	n/a	n/a	-999	1	[0, 0, 0]	n/a	FR1	0	R1313J
741.607	0.001	405869	DISTRACT_START	n/a	n/a	n/a	-999	1	[0, 0, 0]	n/a	FR1	0	R1313J
741.608	0.016	405870	START	n/a	n/a	n/a	-999	1	[-999, -999, -999]	n/a	FR1	0	R1313J
741.624	6.134	405886	PROB	6.134	n/a	n/a	-999	1	[6, 7, 5]	18	FR1	0	R1313J
747.758	5.034	412020	PROB	5.034	n/a	n/a	-999	1	[5, 8, 2]	15	FR1	0	R1313J
752.792	3.3	417054	PROB	3.3	n/a	n/a	-999	1	[2, 7, 7]	16	FR1	0	R1313J
756.092	4.385	420354	PROB	4.385	n/a	n/a	-999	1	[7, 5, 3]	15	FR1	0	R1313J
760.477	4.878	424738	PROB	4.878	n/a	n/a	-999	1	[9, 1, 7]	17	FR1	0	R1313J
765.355	0.022	429616	STOP	n/a	n/a	n/a	-999	1	[-999, -999, -999]	n/a	FR1	0	R1313J
765.377	1.172	429638	DISTRACT_END	n/a	n/a	n/a	-999	1	[0, 0, 0]	n/a	FR1	0	R1313J
766.549	1.029	430810	RETRIEVAL_ORIENT_START	n/a	n/a	n/a	-999	1	[0, 0, 0]	n/a	FR1	0	R1313J
767.578	0.0	431839	RETRIEVAL_ORIENT_END	n/a	n/a	n/a	-999	1	[0, 0, 0]	n/a	FR1	0	R1313J
767.578	0.494	431839	REC_START	n/a	n/a	n/a	-999	1	[0, 0, 0]	n/a	FR1	0	R1313J
768.072	1.225	432333	REC_WORD	1.225	n/a	FOG	1	1	[0, 0, 0]	n/a	FR1	0	R1313J
769.297	3.316	433558	REC_WORD	3.316	n/a	EGG	2	1	[0, 0, 0]	n/a	FR1	0	R1313J
772.613	25.478	436874	REC_WORD_VV	25.478	n/a	<>	-999	1	[0, 0, 0]	n/a	FR1	0	R1313J
798.091	0.0	462351	WAITING_START	n/a	n/a	n/a	-999	2	[0, 0, 0]	n/a	FR1	0	R1313J
798.091	0.0	462351	TRIAL	n/a	n/a	n/a	-999	2	[0, 0, 0]	n/a	FR1	0	R1313J
798.091	0.0	462351	TRIAL_END	n/a	n/a	n/a	-999	1	[0, 0, 0]	n/a	FR1	0	R1313J
798.091	0.0	462351	TRIAL_START	n/a	n/a	n/a	-999	2	[0, 0, 0]	n/a	FR1	0	R1313J
798.091	1.859	462351	REC_END	n/a	n/a	n/a	-999	1	[0, 0, 0]	n/a	FR1	0	R1313J
799.95	0.0	464210	WAITING_END	n/a	n/a	n/a	-999	2	[0, 0, 0]	n/a	FR1	0	R1313J
799.95	0.0	464210	COUNTDOWN_START	n/a	n/a	n/a	-999	2	[0, 0, 0]	n/a	FR1	0	R1313J
799.95	0.0	464210	COUNTDOWN_END	n/a	n/a	n/a	-999	2	[0, 0, 0]	n/a	FR1	0	R1313J
799.95	11.669	464210	ORIENT_START	n/a	n/a	n/a	-999	2	[0, 0, 0]	n/a	FR1	0	R1313J
811.619	0.0	475878	ORIENT_END	n/a	n/a	n/a	-999	2	[0, 0, 0]	n/a	FR1	0	R1313J
811.619	0.893	475878	ENCODING_START	n/a	n/a	n/a	-999	2	[0, 0, 0]	n/a	FR1	0	R1313J
812.512	1.623	476771	WORD	n/a	n/a	DITCH	1	2	[0, 0, 0]	n/a	FR1	0	R1313J
814.135	0.827	478394	WORD_OFF	n/a	n/a	DITCH	1	2	[0, 0, 0]	n/a	FR1	0	R1313J
814.962	1.625	479221	WORD	n/a	n/a	SLIME	2	2	[0, 0, 0]	n/a	FR1	0	R1313J
816.587	1.02	480846	WORD_OFF	n/a	n/a	SLIME	2	2	[0, 0, 0]	n/a	FR1	0	R1313J
817.607	1.629	481866	WORD	n/a	n/a	THREAD	3	2	[0, 0, 0]	n/a	FR1	0	R1313J
819.236	1.144	483495	WORD_OFF	n/a	n/a	THREAD	3	2	[0, 0, 0]	n/a	FR1	0	R1313J
820.38	1.623	484639	WORD	n/a	n/a	PURSE	4	2	[0, 0, 0]	n/a	FR1	0	R1313J
822.003	0.943	486262	WORD_OFF	n/a	n/a	PURSE	4	2	[0, 0, 0]	n/a	FR1	0	R1313J
822.946	1.625	487205	WORD	n/a	n/a	PLATE	5	2	[0, 0, 0]	n/a	FR1	0	R1313J
824.571	0.761	488830	WORD_OFF	n/a	n/a	PLATE	5	2	[0, 0, 0]	n/a	FR1	0	R1313J
825.332	1.64	489591	WORD	n/a	n/a	SPARK	6	2	[0, 0, 0]	n/a	FR1	0	R1313J
826.972	1.078	491231	WORD_OFF	n/a	n/a	SPARK	6	2	[0, 0, 0]	n/a	FR1	0	R1313J
828.05	1.605	492309	WORD	n/a	n/a	FENCE	7	2	[0, 0, 0]	n/a	FR1	0	R1313J
829.655	1.024	493914	WORD_OFF	n/a	n/a	FENCE	7	2	[0, 0, 0]	n/a	FR1	0	R1313J
830.679	1.626	494938	WORD	n/a	n/a	PET	8	2	[0, 0, 0]	n/a	FR1	0	R1313J
832.305	0.992	496563	WORD_OFF	n/a	n/a	PET	8	2	[0, 0, 0]	n/a	FR1	0	R1313J
833.297	1.626	497555	WORD	n/a	n/a	FLEA	9	2	[0, 0, 0]	n/a	FR1	0	R1313J
834.923	1.03	499181	WORD_OFF	n/a	n/a	FLEA	9	2	[0, 0, 0]	n/a	FR1	0	R1313J
835.953	1.637	500211	WORD	n/a	n/a	TRAY	10	2	[0, 0, 0]	n/a	FR1	0	R1313J
837.59	1.0	501848	WORD_OFF	n/a	n/a	TRAY	10	2	[0, 0, 0]	n/a	FR1	0	R1313J
838.59	1.633	502848	WORD	n/a	n/a	PIN	11	2	[0, 0, 0]	n/a	FR1	0	R1313J
840.223	1.077	504481	WORD_OFF	n/a	n/a	PIN	11	2	[0, 0, 0]	n/a	FR1	0	R1313J
841.3	1.624	505558	WORD	n/a	n/a	SOAP	12	2	[0, 0, 0]	n/a	FR1	0	R1313J
842.924	0.0	507182	DISTRACT_START	n/a	n/a	n/a	-999	2	[0, 0, 0]	n/a	FR1	0	R1313J
842.924	0.0	507182	WORD_OFF	n/a	n/a	SOAP	12	2	[0, 0, 0]	n/a	FR1	0	R1313J
842.924	0.002	507182	ENCODING_END	n/a	n/a	n/a	-999	2	[0, 0, 0]	n/a	FR1	0	R1313J
842.926	0.015	507184	START	n/a	n/a	n/a	-999	2	[-999, -999, -999]	n/a	FR1	0	R1313J
842.941	4.567	507199	PROB	4.567	n/a	n/a	-999	2	[3, 8, 3]	14	FR1	0	R1313J
847.508	4.351	511766	PROB	4.351	n/a	n/a	-999	2	[3, 4, 9]	16	FR1	0	R1313J
851.859	3.283	516117	PROB	3.283	n/a	n/a	-999	2	[5, 3, 7]	15	FR1	0	R1313J
855.142	3.352	519399	PROB	3.352	n/a	n/a	-999	2	[3, 1, 7]	11	FR1	0	R1313J
858.494	3.3	522751	PROB	3.3	n/a	n/a	-999	2	[3, 2, 3]	8	FR1	0	R1313J
861.794	3.927	526051	PROB	3.927	n/a	n/a	-999	2	[8, 4, 2]	14	FR1	0	R1313J
865.721	0.007	529978	STOP	n/a	n/a	n/a	-999	2	[-999, -999, -999]	n/a	FR1	0	R1313J
865.728	1.305	529985	DISTRACT_END	n/a	n/a	n/a	-999	2	[0, 0, 0]	n/a	FR1	0	R1313J
867.033	1.028	531290	RETRIEVAL_ORIENT_START	n/a	n/a	n/a	-999	2	[0, 0, 0]	n/a	FR1	0	R1313J
868.061	0.0	532318	RETRIEVAL_ORIENT_END	n/a	n/a	n/a	-999	2	[0, 0, 0]	n/a	FR1	0	R1313J
868.061	1.254	532318	REC_START	n/a	n/a	n/a	-999	2	[0, 0, 0]	n/a	FR1	0	R1313J
869.315	2.926	533572	REC_WORD	2.926	n/a	DITCH	1	2	[0, 0, 0]	n/a	FR1	0	R1313J
872.241	0.999	536498	REC_WORD	0.999	n/a	FLEA	9	2	[0, 0, 0]	n/a	FR1	0	R1313J
873.24	2.95	537497	REC_WORD	2.95	n/a	PET	8	2	[0, 0, 0]	n/a	FR1	0	R1313J
876.19	6.265	540447	REC_WORD_VV	6.265	n/a	<>	-999	2	[0, 0, 0]	n/a	FR1	0	R1313J
882.455	2.35	546711	REC_WORD_VV	2.35	n/a	<>	-999	2	[0, 0, 0]	n/a	FR1	0	R1313J
884.805	13.77	549061	REC_WORD_VV	13.77	n/a	<>	-999	2	[0, 0, 0]	n/a	FR1	0	R1313J
898.575	0.0	562831	REC_END	n/a	n/a	n/a	-999	2	[0, 0, 0]	n/a	FR1	0	R1313J
898.575	0.0	562831	TRIAL_END	n/a	n/a	n/a	-999	2	[0, 0, 0]	n/a	FR1	0	R1313J
898.575	0.0	562831	TRIAL_START	n/a	n/a	n/a	-999	3	[0, 0, 0]	n/a	FR1	0	R1313J
898.575	0.0	562831	TRIAL	n/a	n/a	n/a	-999	3	[0, 0, 0]	n/a	FR1	0	R1313J
898.575	1.959	562831	WAITING_START	n/a	n/a	n/a	-999	3	[0, 0, 0]	n/a	FR1	0	R1313J
900.534	0.0	564790	COUNTDOWN_END	n/a	n/a	n/a	-999	3	[0, 0, 0]	n/a	FR1	0	R1313J
900.534	0.0	564790	ORIENT_START	n/a	n/a	n/a	-999	3	[0, 0, 0]	n/a	FR1	0	R1313J
900.534	0.0	564790	COUNTDOWN_START	n/a	n/a	n/a	-999	3	[0, 0, 0]	n/a	FR1	0	R1313J
900.534	11.634	564790	WAITING_END	n/a	n/a	n/a	-999	3	[0, 0, 0]	n/a	FR1	0	R1313J
912.168	0.0	576423	ORIENT_END	n/a	n/a	n/a	-999	3	[0, 0, 0]	n/a	FR1	0	R1313J
912.168	0.892	576423	ENCODING_START	n/a	n/a	n/a	-999	3	[0, 0, 0]	n/a	FR1	0	R1313J
913.06	1.61	577315	WORD	n/a	n/a	GOLD	1	3	[0, 0, 0]	n/a	FR1	0	R1313J
914.67	0.831	578925	WORD_OFF	n/a	n/a	GOLD	1	3	[0, 0, 0]	n/a	FR1	0	R1313J
915.501	1.635	579756	WORD	n/a	n/a	GRASS	2	3	[0, 0, 0]	n/a	FR1	0	R1313J
917.136	0.754	581391	WORD_OFF	n/a	n/a	GRASS	2	3	[0, 0, 0]	n/a	FR1	0	R1313J
917.89	1.631	582145	WORD	n/a	n/a	DOOR	3	3	[0, 0, 0]	n/a	FR1	0	R1313J
919.521	0.922	583776	WORD_OFF	n/a	n/a	DOOR	3	3	[0, 0, 0]	n/a	FR1	0	R1313J
920.443	1.627	584698	WORD	n/a	n/a	NOSE	4	3	[0, 0, 0]	n/a	FR1	0	R1313J
922.07	1.094	586325	WORD_OFF	n/a	n/a	NOSE	4	3	[0, 0, 0]	n/a	FR1	0	R1313J
923.164	1.624	587419	WORD	n/a	n/a	CALF	5	3	[0, 0, 0]	n/a	FR1	0	R1313J
924.788	0.786	589043	WORD_OFF	n/a	n/a	CALF	5	3	[0, 0, 0]	n/a	FR1	0	R1313J
925.574	1.63	589829	WORD	n/a	n/a	CLIFF	6	3	[0, 0, 0]	n/a	FR1	0	R1313J
927.204	1.046	591459	WORD_OFF	n/a	n/a	CLIFF	6	3	[0, 0, 0]	n/a	FR1	0	R1313J
928.25	1.606	592504	WORD	n/a	n/a	WHEEL	7	3	[0, 0, 0]	n/a	FR1	0	R1313J
929.856	1.085	594110	WORD_OFF	n/a	n/a	WHEEL	7	3	[0, 0, 0]	n/a	FR1	0	R1313J
930.941	1.632	595195	WORD	n/a	n/a	GOAT	8	3	[0, 0, 0]	n/a	FR1	0	R1313J
932.573	1.139	596827	WORD_OFF	n/a	n/a	GOAT	8	3	[0, 0, 0]	n/a	FR1	0	R1313J
933.712	1.627	597966	WORD	n/a	n/a	KITE	9	3	[0, 0, 0]	n/a	FR1	0	R1313J
935.339	1.022	599593	WORD_OFF	n/a	n/a	KITE	9	3	[0, 0, 0]	n/a	FR1	0	R1313J
936.361	1.629	600615	WORD	n/a	n/a	SKI	10	3	[0, 0, 0]	n/a	FR1	0	R1313J
937.99	0.949	602244	WORD_OFF	n/a	n/a	SKI	10	3	[0, 0, 0]	n/a	FR1	0	R1313J
938.939	1.635	603193	WORD	n/a	n/a	SNAKE	11	3	[0, 0, 0]	n/a	FR1	0	R1313J
940.574	0.821	604828	WORD_OFF	n/a	n/a	SNAKE	11	3	[0, 0, 0]	n/a	FR1	0	R1313J
941.395	1.629	605649	WORD	n/a	n/a	GEESE	12	3	[0, 0, 0]	n/a	FR1	0	R1313J
943.024	0.0	607278	WORD_OFF	n/a	n/a	GEESE	12	3	[0, 0, 0]	n/a	FR1	0	R1313J
943.024	0.0	607278	ENCODING_END	n/a	n/a	n/a	-999	3	[0, 0, 0]	n/a	FR1	0	R1313J
943.024	0.0	607278	DISTRACT_START	n/a	n/a	n/a	-999	3	[0, 0, 0]	n/a	FR1	0	R1313J
943.024	0.016	607278	START	n/a	n/a	n/a	-999	3	[-999, -999, -999]	n/a	FR1	0	R1313J
943.04	4.402	607294	PROB	4.402	n/a	n/a	-999	3	[5, 4, 7]	16	FR1	0	R1313J
947.442	6.051	611696	PROB	6.051	n/a	n/a	-999	3	[9, 2, 6]	17	FR1	0	R1313J
953.493	4.001	617746	PROB	4.001	n/a	n/a	-999	3	[1, 5, 7]	13	FR1	0	R1313J
957.494	4.084	621747	PROB	4.084	n/a	n/a	-999	3	[8, 9, 4]	21	FR1	0	R1313J
961.578	2.892	625831	PROB	2.892	n/a	n/a	-999	3	[4, 5, 5]	14	FR1	0	R1313J
964.47	0.008	628723	STOP	n/a	n/a	n/a	-999	3	[-999, -999, -999]	n/a	FR1	0	R1313J
964.478	1.282	628731	DISTRACT_END	n/a	n/a	n/a	-999	3	[0, 0, 0]	n/a	FR1	0	R1313J
965.76	1.018	630013	RETRIEVAL_ORIENT_START	n/a	n/a	n/a	-999	3	[0, 0, 0]	n/a	FR1	0	R1313J
966.778	0.0	631031	RETRIEVAL_ORIENT_END	n/a	n/a	n/a	-999	3	[0, 0, 0]	n/a	FR1	0	R1313J
966.778	0.55	631031	REC_START	n/a	n/a	n/a	-999	3	[0, 0, 0]	n/a	FR1	0	R1313J
967.328	3.019	631581	REC_WORD	3.019	n/a	CLIFF	6	3	[0, 0, 0]	n/a	FR1	0	R1313J
970.347	6.655	634600	REC_WORD	6.655	n/a	SKI	10	3	[0, 0, 0]	n/a	FR1	0	R1313J
977.002	20.288	641254	REC_WORD	20.288	n/a	CAGE	-999	3	[0, 0, 0]	n/a	FR1	0	R1313J
997.29	0.0	661542	TRIAL_END	n/a	n/a	n/a	-999	3	[0, 0, 0]	n/a	FR1	0	R1313J
997.29	0.0	661542	WAITING_START	n/a	n/a	n/a	-999	4	[0, 0, 0]	n/a	FR1	0	R1313J
997.29	0.0	661542	REC_END	n/a	n/a	n/a	-999	3	[0, 0, 0]	n/a	FR1	0	R1313J
997.29	0.0	661542	TRIAL_START	n/a	n/a	n/a	-999	4	[0, 0, 0]	n/a	FR1	0	R1313J
997.29	1.726	661542	TRIAL	n/a	n/a	n/a	-999	4	[0, 0, 0]	n/a	FR1	0	R1313J
999.016	0.0	663268	WAITING_END	n/a	n/a	n/a	-999	4	[0, 0, 0]	n/a	FR1	0	R1313J
999.016	0.0	663268	COUNTDOWN_START	n/a	n/a	n/a	-999	4	[0, 0, 0]	n/a	FR1	0	R1313J
999.016	0.0	663268	COUNTDOWN_END	n/a	n/a	n/a	-999	4	[0, 0, 0]	n/a	FR1	0	R1313J
999.016	11.62	663268	ORIENT_START	n/a	n/a	n/a	-999	4	[0, 0, 0]	n/a	FR1	0	R1313J
1010.636	0.0	674887	ENCODING_START	n/a	n/a	n/a	-999	4	[0, 0, 0]	n/a	FR1	0	R1313J
1010.636	0.865	674887	ORIENT_END	n/a	n/a	n/a	-999	4	[0, 0, 0]	n/a	FR1	0	R1313J
1011.501	1.634	675752	WORD	n/a	n/a	SUN	1	4	[0, 0, 0]	n/a	FR1	0	R1313J
1013.135	1.038	677386	WORD_OFF	n/a	n/a	SUN	1	4	[0, 0, 0]	n/a	FR1	0	R1313J
1014.173	1.63	678424	WORD	n/a	n/a	THUMB	2	4	[0, 0, 0]	n/a	FR1	0	R1313J
1015.803	1.049	680054	WORD_OFF	n/a	n/a	THUMB	2	4	[0, 0, 0]	n/a	FR1	0	R1313J
1016.852	1.635	681103	WORD	n/a	n/a	SCHOOL	3	4	[0, 0, 0]	n/a	FR1	0	R1313J
1018.487	1.11	682738	WORD_OFF	n/a	n/a	SCHOOL	3	4	[0, 0, 0]	n/a	FR1	0	R1313J
1019.597	1.623	683848	WORD	n/a	n/a	BOAT	4	4	[0, 0, 0]	n/a	FR1	0	R1313J
1021.22	0.971	685471	WORD_OFF	n/a	n/a	BOAT	4	4	[0, 0, 0]	n/a	FR1	0	R1313J
1022.191	1.63	686442	WORD	n/a	n/a	TOAST	5	4	[0, 0, 0]	n/a	FR1	0	R1313J
1023.821	1.148	688072	WORD_OFF	n/a	n/a	TOAST	5	4	[0, 0, 0]	n/a	FR1	0	R1313J
1024.969	1.636	689220	WORD	n/a	n/a	BOX	6	4	[0, 0, 0]	n/a	FR1	0	R1313J
1026.605	0.938	690855	WORD_OFF	n/a	n/a	BOX	6	4	[0, 0, 0]	n/a	FR1	0	R1313J
1027.543	1.628	691793	WORD	n/a	n/a	FORK	7	4	[0, 0, 0]	n/a	FR1	0	R1313J
1029.171	0.832	693421	WORD_OFF	n/a	n/a	FORK	7	4	[0, 0, 0]	n/a	FR1	0	R1313J
1030.003	1.619	694253	WORD	n/a	n/a	MOLE	8	4	[0, 0, 0]	n/a	FR1	0	R1313J
1031.622	1.096	695872	WORD_OFF	n/a	n/a	MOLE	8	4	[0, 0, 0]	n/a	FR1	0	R1313J
1032.718	1.621	696968	WORD	n/a	n/a	ARM	9	4	[0, 0, 0]	n/a	FR1	0	R1313J
1034.339	0.855	698589	WORD_OFF	n/a	n/a	ARM	9	4	[0, 0, 0]	n/a	FR1	0	R1313J
1035.194	1.63	699444	WORD	n/a	n/a	PARK	10	4	[0, 0, 0]	n/a	FR1	0	R1313J
1036.824	1.088	701074	WORD_OFF	n/a	n/a	PARK	10	4	[0, 0, 0]	n/a	FR1	0	R1313J
1037.912	1.629	702162	WORD	n/a	n/a	HOOK	11	4	[0, 0, 0]	n/a	FR1	0	R1313J
1039.541	1.005	703791	WORD_OFF	n/a	n/a	HOOK	11	4	[0, 0, 0]	n/a	FR1	0	R1313J
1040.546	1.628	704796	WORD	n/a	n/a	CRANE	12	4	[0, 0, 0]	n/a	FR1	0	R1313J
1042.174	0.0	706424	DISTRACT_START	n/a	n/a	n/a	-999	4	[0, 0, 0]	n/a	FR1	0	R1313J
1042.174	0.0	706424	ENCODING_END	n/a	n/a	n/a	-999	4	[0, 0, 0]	n/a	FR1	0	R1313J
1042.174	0.001	706424	WORD_OFF	n/a	n/a	CRANE	12	4	[0, 0, 0]	n/a	FR1	0	R1313J
1042.175	0.015	706425	START	n/a	n/a	n/a	-999	4	[-999, -999, -999]	n/a	FR1	0	R1313J
1042.19	4.619	706440	PROB	4.619	n/a	n/a	-999	4	[7, 2, 5]	14	FR1	0	R1313J
1046.809	5.584	711059	PROB	5.584	n/a	n/a	-999	4	[8, 1, 3]	12	FR1	0	R1313J
1052.393	4.783	716642	PROB	4.783	n/a	n/a	-999	4	[7, 6, 3]	16	FR1	0	R1313J
1057.176	3.834	721425	PROB	3.834	n/a	n/a	-999	4	[7, 3, 8]	18	FR1	0	R1313J
1061.01	4.834	725259	PROB	4.834	n/a	n/a	-999	4	[5, 9, 4]	17	FR1	0	R1313J
1065.844	0.018	730093	STOP	n/a	n/a	n/a	-999	4	[-999, -999, -999]	n/a	FR1	0	R1313J
1065.862	1.306	730111	DISTRACT_END	n/a	n/a	n/a	-999	4	[0, 0, 0]	n/a	FR1	0	R1313J
1067.168	1.027	731417	RETRIEVAL_ORIENT_START	n/a	n/a	n/a	-999	4	[0, 0, 0]	n/a	FR1	0	R1313J
1068.195	0.0	732444	RETRIEVAL_ORIENT_END	n/a	n/a	n/a	-999	4	[0, 0, 0]	n/a	FR1	0	R1313J
1068.195	2.359	732444	REC_START	n/a	n/a	n/a	-999	4	[0, 0, 0]	n/a	FR1	0	R1313J
1070.554	4.1	734803	REC_WORD	4.1	n/a	THUMB	2	4	[0, 0, 0]	n/a	FR1	0	R1313J
1074.654	1.706	738902	REC_WORD_VV	1.706	n/a	<>	-999	4	[0, 0, 0]	n/a	FR1	0	R1313J
1076.36	22.345	740608	REC_WORD	22.345	n/a	GOLD	-999	4	[0, 0, 0]	n/a	FR1	0	R1313J
1098.705	0.0	762952	REC_END	n/a	n/a	n/a	-999	4	[0, 0, 0]	n/a	FR1	0	R1313J
1098.705	0.0	762952	TRIAL_END	n/a	n/a	n/a	-999	4	[0, 0, 0]	n/a	FR1	0	R1313J
1098.705	0.0	762952	TRIAL_START	n/a	n/a	n/a	-999	5	[0, 0, 0]	n/a	FR1	0	R1313J
1098.705	0.0	762952	TRIAL	n/a	n/a	n/a	-999	5	[0, 0, 0]	n/a	FR1	0	R1313J
1098.705	1.946	762952	WAITING_START	n/a	n/a	n/a	-999	5	[0, 0, 0]	n/a	FR1	0	R1313J
1100.651	0.0	764898	WAITING_END	n/a	n/a	n/a	-999	5	[0, 0, 0]	n/a	FR1	0	R1313J
1100.651	0.0	764898	COUNTDOWN_START	n/a	n/a	n/a	-999	5	[0, 0, 0]	n/a	FR1	0	R1313J
1100.651	0.0	764898	COUNTDOWN_END	n/a	n/a	n/a	-999	5	[0, 0, 0]	n/a	FR1	0	R1313J
1100.651	11.451	764898	ORIENT_START	n/a	n/a	n/a	-999	5	[0, 0, 0]	n/a	FR1	0	R1313J
1112.102	0.0	776349	ENCODING_START	n/a	n/a	n/a	-999	5	[0, 0, 0]	n/a	FR1	0	R1313J
1112.102	0.846	776349	ORIENT_END	n/a	n/a	n/a	-999	5	[0, 0, 0]	n/a	FR1	0	R1313J
1112.948	1.639	777195	WORD	n/a	n/a	BENCH	1	5	[0, 0, 0]	n/a	FR1	0	R1313J
1114.587	0.887	778834	WORD_OFF	n/a	n/a	BENCH	1	5	[0, 0, 0]	n/a	FR1	0	R1313J
1115.474	1.629	779721	WORD	n/a	n/a	SPOON	2	5	[0, 0, 0]	n/a	FR1	0	R1313J
1117.103	1.048	781350	WORD_OFF	n/a	n/a	SPOON	2	5	[0, 0, 0]	n/a	FR1	0	R1313J
1118.151	1.637	782398	WORD	n/a	n/a	PEA	3	5	[0, 0, 0]	n/a	FR1	0	R1313J
1119.788	1.004	784035	WORD_OFF	n/a	n/a	PEA	3	5	[0, 0, 0]	n/a	FR1	0	R1313J
1120.792	1.629	785039	WORD	n/a	n/a	SEA	4	5	[0, 0, 0]	n/a	FR1	0	R1313J
1122.421	0.83	786668	WORD_OFF	n/a	n/a	SEA	4	5	[0, 0, 0]	n/a	FR1	0	R1313J
1123.251	1.638	787497	WORD	n/a	n/a	HEN	5	5	[0, 0, 0]	n/a	FR1	0	R1313J
1124.889	0.961	789135	WORD_OFF	n/a	n/a	HEN	5	5	[0, 0, 0]	n/a	FR1	0	R1313J
1125.85	1.639	790096	WORD	n/a	n/a	SQUARE	6	5	[0, 0, 0]	n/a	FR1	0	R1313J
1127.489	1.034	791735	WORD_OFF	n/a	n/a	SQUARE	6	5	[0, 0, 0]	n/a	FR1	0	R1313J
1128.523	1.632	792769	WORD	n/a	n/a	TOOL	7	5	[0, 0, 0]	n/a	FR1	0	R1313J
1130.155	0.813	794401	WORD_OFF	n/a	n/a	TOOL	7	5	[0, 0, 0]	n/a	FR1	0	R1313J
1130.968	1.622	795214	WORD	n/a	n/a	SUIT	8	5	[0, 0, 0]	n/a	FR1	0	R1313J
1132.59	0.758	796836	WORD_OFF	n/a	n/a	SUIT	8	5	[0, 0, 0]	n/a	FR1	0	R1313J
1133.348	1.626	797594	WORD	n/a	n/a	BUSH	9	5	[0, 0, 0]	n/a	FR1	0	R1313J
1134.974	0.798	799220	WORD_OFF	n/a	n/a	BUSH	9	5	[0, 0, 0]	n/a	FR1	0	R1313J
1135.772	1.635	800018	WORD	n/a	n/a	STORE	10	5	[0, 0, 0]	n/a	FR1	0	R1313J
1137.407	1.017	801653	WORD_OFF	n/a	n/a	STORE	10	5	[0, 0, 0]	n/a	FR1	0	R1313J
1138.424	1.633	802670	WORD	n/a	n/a	CAVE	11	5	[0, 0, 0]	n/a	FR1	0	R1313J
1140.057	0.995	804303	WORD_OFF	n/a	n/a	CAVE	11	5	[0, 0, 0]	n/a	FR1	0	R1313J
1141.052	1.623	805298	WORD	n/a	n/a	KEY	12	5	[0, 0, 0]	n/a	FR1	0	R1313J
1142.675	0.0	806921	WORD_OFF	n/a	n/a	KEY	12	5	[0, 0, 0]	n/a	FR1	0	R1313J
1142.675	0.0	806921	ENCODING_END	n/a	n/a	n/a	-999	5	[0, 0, 0]	n/a	FR1	0	R1313J
1142.675	0.001	806921	DISTRACT_START	n/a	n/a	n/a	-999	5	[0, 0, 0]	n/a	FR1	0	R1313J
1142.676	0.016	806922	START	n/a	n/a	n/a	-999	5	[-999, -999, -999]	n/a	FR1	0	R1313J
1142.692	6.333	806938	PROB	6.333	n/a	n/a	-999	5	[9, 3, 8]	20	FR1	0	R1313J
1149.025	3.702	813270	PROB	3.702	n/a	n/a	-999	5	[3, 5, 1]	9	FR1	0	R1313J
1152.727	3.834	816972	PROB	3.834	n/a	n/a	-999	5	[3, 6, 2]	11	FR1	0	R1313J
1156.561	4.117	820806	PROB	4.117	n/a	n/a	-999	5	[8, 4, 1]	13	FR1	0	R1313J
1160.678	4.004	824923	PROB	4.004	n/a	n/a	-999	5	[8, 8, 4]	20	FR1	0	R1313J
1164.682	0.013	828927	STOP	n/a	n/a	n/a	-999	5	[-999, -999, -999]	n/a	FR1	0	R1313J
1164.695	1.379	828940	DISTRACT_END	n/a	n/a	n/a	-999	5	[0, 0, 0]	n/a	FR1	0	R1313J
1166.074	1.021	830319	RETRIEVAL_ORIENT_START	n/a	n/a	n/a	-999	5	[0, 0, 0]	n/a	FR1	0	R1313J
1167.095	0.0	831340	RETRIEVAL_ORIENT_END	n/a	n/a	n/a	-999	5	[0, 0, 0]	n/a	FR1	0	R1313J
1167.095	1.45	831340	REC_START	n/a	n/a	n/a	-999	5	[0, 0, 0]	n/a	FR1	0	R1313J
1168.545	2.49	832790	REC_WORD_VV	2.49	n/a	<>	-999	5	[0, 0, 0]	n/a	FR1	0	R1313J
1171.035	26.572	835280	REC_WORD_VV	26.572	n/a	<>	-999	5	[0, 0, 0]	n/a	FR1	0	R1313J
1197.607	0.0	861850	WAITING_START	n/a	n/a	n/a	-999	6	[0, 0, 0]	n/a	FR1	0	R1313J
1197.607	0.0	861850	TRIAL	n/a	n/a	n/a	-999	6	[0, 0, 0]	n/a	FR1	0	R1313J
1197.607	0.0	861850	TRIAL_END	n/a	n/a	n/a	-999	5	[0, 0, 0]	n/a	FR1	0	R1313J
1197.607	0.0	861850	REC_END	n/a	n/a	n/a	-999	5	[0, 0, 0]	n/a	FR1	0	R1313J
1197.607	2.161	861850	TRIAL_START	n/a	n/a	n/a	-999	6	[0, 0, 0]	n/a	FR1	0	R1313J
1199.768	0.0	864011	WAITING_END	n/a	n/a	n/a	-999	6	[0, 0, 0]	n/a	FR1	0	R1313J
1199.768	0.0	864011	COUNTDOWN_START	n/a	n/a	n/a	-999	6	[0, 0, 0]	n/a	FR1	0	R1313J
1199.768	0.0	864011	COUNTDOWN_END	n/a	n/a	n/a	-999	6	[0, 0, 0]	n/a	FR1	0	R1313J
1199.768	11.618	864011	ORIENT_START	n/a	n/a	n/a	-999	6	[0, 0, 0]	n/a	FR1	0	R1313J
1211.386	0.0	875629	ORIENT_END	n/a	n/a	n/a	-999	6	[0, 0, 0]	n/a	FR1	0	R1313J
1211.386	0.831	875629	ENCODING_START	n/a	n/a	n/a	-999	6	[0, 0, 0]	n/a	FR1	0	R1313J
1212.217	1.637	876460	WORD	n/a	n/a	ROSE	1	6	[0, 0, 0]	n/a	FR1	0	R1313J
1213.854	0.9	878097	WORD_OFF	n/a	n/a	ROSE	1	6	[0, 0, 0]	n/a	FR1	0	R1313J
1214.754	1.633	878997	WORD	n/a	n/a	MOUTH	2	6	[0, 0, 0]	n/a	FR1	0	R1313J
1216.387	0.977	880630	WORD_OFF	n/a	n/a	MOUTH	2	6	[0, 0, 0]	n/a	FR1	0	R1313J
1217.364	1.624	881607	WORD	n/a	n/a	SKY	3	6	[0, 0, 0]	n/a	FR1	0	R1313J
1218.988	1.139	883231	WORD_OFF	n/a	n/a	SKY	3	6	[0, 0, 0]	n/a	FR1	0	R1313J
1220.127	1.628	884370	WORD	n/a	n/a	WING	4	6	[0, 0, 0]	n/a	FR1	0	R1313J
1221.755	0.875	885997	WORD_OFF	n/a	n/a	WING	4	6	[0, 0, 0]	n/a	FR1	0	R1313J
1222.63	1.624	886872	WORD	n/a	n/a	FILM	5	6	[0, 0, 0]	n/a	FR1	0	R1313J
1224.254	1.051	888496	WORD_OFF	n/a	n/a	FILM	5	6	[0, 0, 0]	n/a	FR1	0	R1313J
1225.305	1.617	889547	WORD	n/a	n/a	ROOT	6	6	[0, 0, 0]	n/a	FR1	0	R1313J
1226.922	1.088	891164	WORD_OFF	n/a	n/a	ROOT	6	6	[0, 0, 0]	n/a	FR1	0	R1313J
1228.01	1.63	892252	WORD	n/a	n/a	SEED	7	6	[0, 0, 0]	n/a	FR1	0	R1313J
1229.64	0.917	893882	WORD_OFF	n/a	n/a	SEED	7	6	[0, 0, 0]	n/a	FR1	0	R1313J
1230.557	1.632	894799	WORD	n/a	n/a	JAR	8	6	[0, 0, 0]	n/a	FR1	0	R1313J
1232.189	1.003	896431	WORD_OFF	n/a	n/a	JAR	8	6	[0, 0, 0]	n/a	FR1	0	R1313J
1233.192	1.632	897434	WORD	n/a	n/a	FISH	9	6	[0, 0, 0]	n/a	FR1	0	R1313J
1234.824	1.096	899066	WORD_OFF	n/a	n/a	FISH	9	6	[0, 0, 0]	n/a	FR1	0	R1313J
1235.92	1.621	900162	WORD	n/a	n/a	TOOTH	10	6	[0, 0, 0]	n/a	FR1	0	R1313J
1237.541	1.095	901783	WORD_OFF	n/a	n/a	TOOTH	10	6	[0, 0, 0]	n/a	FR1	0	R1313J
1238.636	1.621	902878	WORD	n/a	n/a	SHIELD	11	6	[0, 0, 0]	n/a	FR1	0	R1313J
1240.257	0.882	904499	WORD_OFF	n/a	n/a	SHIELD	11	6	[0, 0, 0]	n/a	FR1	0	R1313J
1241.139	1.619	905381	WORD	n/a	n/a	TRASH	12	6	[0, 0, 0]	n/a	FR1	0	R1313J
1242.758	0.0	907000	WORD_OFF	n/a	n/a	TRASH	12	6	[0, 0, 0]	n/a	FR1	0	R1313J
1242.758	0.0	907000	ENCODING_END	n/a	n/a	n/a	-999	6	[0, 0, 0]	n/a	FR1	0	R1313J
1242.758	0.002	907000	DISTRACT_START	n/a	n/a	n/a	-999	6	[0, 0, 0]	n/a	FR1	0	R1313J
1242.76	0.015	907002	START	n/a	n/a	n/a	-999	6	[-999, -999, -999]	n/a	FR1	0	R1313J
1242.775	5.267	907017	PROB	5.267	n/a	n/a	-999	6	[2, 8, 6]	16	FR1	0	R1313J
1248.042	3.935	912283	PROB	3.935	n/a	n/a	-999	6	[9, 2, 4]	15	FR1	0	R1313J
1251.977	6.15	916218	PROB	6.15	n/a	n/a	-999	6	[9, 9, 9]	27	FR1	0	R1313J
1258.127	2.984	922368	PROB	2.984	n/a	n/a	-999	6	[4, 7, 3]	14	FR1	0	R1313J
1261.111	3.077	925352	PROB	3.077	n/a	n/a	-999	6	[6, 7, 3]	16	FR1	0	R1313J
1264.188	0.006	928429	STOP	n/a	n/a	n/a	-999	6	[-999, -999, -999]	n/a	FR1	0	R1313J
1264.194	1.316	928435	DISTRACT_END	n/a	n/a	n/a	-999	6	[0, 0, 0]	n/a	FR1	0	R1313J
1265.51	1.019	929751	RETRIEVAL_ORIENT_START	n/a	n/a	n/a	-999	6	[0, 0, 0]	n/a	FR1	0	R1313J
1266.529	0.0	930770	RETRIEVAL_ORIENT_END	n/a	n/a	n/a	-999	6	[0, 0, 0]	n/a	FR1	0	R1313J
1266.529	0.769	930770	REC_START	n/a	n/a	n/a	-999	6	[0, 0, 0]	n/a	FR1	0	R1313J
1267.298	1.796	931539	REC_WORD_VV	1.796	n/a	<>	-999	6	[0, 0, 0]	n/a	FR1	0	R1313J
1269.094	5.445	933334	REC_WORD	5.445	n/a	BEACH	-999	6	[0, 0, 0]	n/a	FR1	0	R1313J
1274.539	2.919	938779	REC_WORD	2.919	n/a	TRASH	12	6	[0, 0, 0]	n/a	FR1	0	R1313J
1277.458	9.665	941698	REC_WORD_VV	9.665	n/a	<>	-999	6	[0, 0, 0]	n/a	FR1	0	R1313J
1287.123	9.92	951363	REC_WORD_VV	9.92	n/a	<>	-999	6	[0, 0, 0]	n/a	FR1	0	R1313J
1297.043	0.0	961282	REC_END	n/a	n/a	n/a	-999	6	[0, 0, 0]	n/a	FR1	0	R1313J
1297.043	0.0	961282	TRIAL_END	n/a	n/a	n/a	-999	6	[0, 0, 0]	n/a	FR1	0	R1313J
1297.043	0.0	961282	TRIAL_START	n/a	n/a	n/a	-999	7	[0, 0, 0]	n/a	FR1	0	R1313J
1297.043	0.0	961282	TRIAL	n/a	n/a	n/a	-999	7	[0, 0, 0]	n/a	FR1	0	R1313J
1297.043	1.742	961282	WAITING_START	n/a	n/a	n/a	-999	7	[0, 0, 0]	n/a	FR1	0	R1313J
1298.785	0.0	963024	WAITING_END	n/a	n/a	n/a	-999	7	[0, 0, 0]	n/a	FR1	0	R1313J
1298.785	0.0	963024	COUNTDOWN_START	n/a	n/a	n/a	-999	7	[0, 0, 0]	n/a	FR1	0	R1313J
1298.785	0.0	963024	COUNTDOWN_END	n/a	n/a	n/a	-999	7	[0, 0, 0]	n/a	FR1	0	R1313J
1298.785	11.668	963024	ORIENT_START	n/a	n/a	n/a	-999	7	[0, 0, 0]	n/a	FR1	0	R1313J
1310.453	0.0	974692	ORIENT_END	n/a	n/a	n/a	-999	7	[0, 0, 0]	n/a	FR1	0	R1313J
1310.453	1.039	974692	ENCODING_START	n/a	n/a	n/a	-999	7	[0, 0, 0]	n/a	FR1	0	R1313J
1311.492	1.627	975731	WORD	n/a	n/a	TAIL	1	7	[0, 0, 0]	n/a	FR1	0	R1313J
1313.119	0.954	977358	WORD_OFF	n/a	n/a	TAIL	1	7	[0, 0, 0]	n/a	FR1	0	R1313J
1314.073	1.631	978312	WORD	n/a	n/a	HEART	2	7	[0, 0, 0]	n/a	FR1	0	R1313J
1315.704	1.058	979943	WORD_OFF	n/a	n/a	HEART	2	7	[0, 0, 0]	n/a	FR1	0	R1313J
1316.762	1.626	981001	WORD	n/a	n/a	BANK	3	7	[0, 0, 0]	n/a	FR1	0	R1313J
1318.388	0.785	982626	WORD_OFF	n/a	n/a	BANK	3	7	[0, 0, 0]	n/a	FR1	0	R1313J
1319.173	1.615	983411	WORD	n/a	n/a	COW	4	7	[0, 0, 0]	n/a	FR1	0	R1313J
1320.788	0.796	985026	WORD_OFF	n/a	n/a	COW	4	7	[0, 0, 0]	n/a	FR1	0	R1313J
1321.584	1.637	985822	WORD	n/a	n/a	DOLL	5	7	[0, 0, 0]	n/a	FR1	0	R1313J
1323.221	0.869	987459	WORD_OFF	n/a	n/a	DOLL	5	7	[0, 0, 0]	n/a	FR1	0	R1313J
1324.09	1.632	988328	WORD	n/a	n/a	FUR	6	7	[0, 0, 0]	n/a	FR1	0	R1313J
1325.722	0.996	989960	WORD_OFF	n/a	n/a	FUR	6	7	[0, 0, 0]	n/a	FR1	0	R1313J
1326.718	1.637	990956	WORD	n/a	n/a	COUCH	7	7	[0, 0, 0]	n/a	FR1	0	R1313J
1328.355	0.763	992593	WORD_OFF	n/a	n/a	COUCH	7	7	[0, 0, 0]	n/a	FR1	0	R1313J
1329.118	1.639	993356	WORD	n/a	n/a	STOOL	8	7	[0, 0, 0]	n/a	FR1	0	R1313J
1330.757	0.924	994995	WORD_OFF	n/a	n/a	STOOL	8	7	[0, 0, 0]	n/a	FR1	0	R1313J
1331.681	1.625	995919	WORD	n/a	n/a	SHELL	9	7	[0, 0, 0]	n/a	FR1	0	R1313J
1333.306	0.9	997544	WORD_OFF	n/a	n/a	SHELL	9	7	[0, 0, 0]	n/a	FR1	0	R1313J
1334.206	1.618	998444	WORD	n/a	n/a	STEAK	10	7	[0, 0, 0]	n/a	FR1	0	R1313J
1335.824	1.059	1000062	WORD_OFF	n/a	n/a	STEAK	10	7	[0, 0, 0]	n/a	FR1	0	R1313J
1336.883	1.625	1001121	WORD	n/a	n/a	MAIL	11	7	[0, 0, 0]	n/a	FR1	0	R1313J
1338.508	0.789	1002746	WORD_OFF	n/a	n/a	MAIL	11	7	[0, 0, 0]	n/a	FR1	0	R1313J
1339.297	1.611	1003535	WORD	n/a	n/a	SNOW	12	7	[0, 0, 0]	n/a	FR1	0	R1313J
1340.908	0.0	1005146	WORD_OFF	n/a	n/a	SNOW	12	7	[0, 0, 0]	n/a	FR1	0	R1313J
1340.908	0.0	1005146	ENCODING_END	n/a	n/a	n/a	-999	7	[0, 0, 0]	n/a	FR1	0	R1313J
1340.908	0.001	1005146	DISTRACT_START	n/a	n/a	n/a	-999	7	[0, 0, 0]	n/a	FR1	0	R1313J
1340.909	0.016	1005147	START	n/a	n/a	n/a	-999	7	[-999, -999, -999]	n/a	FR1	0	R1313J
1340.925	5.568	1005163	PROB	5.568	n/a	n/a	-999	7	[9, 8, 6]	23	FR1	0	R1313J
1346.493	4.533	1010730	PROB	4.533	n/a	n/a	-999	7	[9, 9, 5]	23	FR1	0	R1313J
1351.026	5.334	1015263	PROB	5.334	n/a	n/a	-999	7	[4, 7, 5]	16	FR1	0	R1313J
1356.36	2.65	1020597	PROB	2.65	n/a	n/a	-999	7	[2, 1, 9]	12	FR1	0	R1313J
1359.01	3.957	1023247	PROB	3.957	n/a	n/a	-999	7	[7, 6, 9]	22	FR1	0	R1313J
1362.967	0.012	1027204	STOP	n/a	n/a	n/a	-999	7	[-999, -999, -999]	n/a	FR1	0	R1313J
1362.979	1.253	1027216	DISTRACT_END	n/a	n/a	n/a	-999	7	[0, 0, 0]	n/a	FR1	0	R1313J
1364.232	1.029	1028469	RETRIEVAL_ORIENT_START	n/a	n/a	n/a	-999	7	[0, 0, 0]	n/a	FR1	0	R1313J
1365.261	0.0	1029498	RETRIEVAL_ORIENT_END	n/a	n/a	n/a	-999	7	[0, 0, 0]	n/a	FR1	0	R1313J
1365.261	0.95	1029498	REC_START	n/a	n/a	n/a	-999	7	[0, 0, 0]	n/a	FR1	0	R1313J
1366.211	6.899	1030448	REC_WORD	6.899	n/a	TAIL	1	7	[0, 0, 0]	n/a	FR1	0	R1313J
1373.11	12.165	1037346	REC_WORD	12.165	n/a	COW	4	7	[0, 0, 0]	n/a	FR1	0	R1313J
1385.275	9.535	1049511	REC_WORD_VV	9.535	n/a	<>	-999	7	[0, 0, 0]	n/a	FR1	0	R1313J
1394.81	0.965	1059045	REC_WORD_VV	0.965	n/a	<>	-999	7	[0, 0, 0]	n/a	FR1	0	R1313J
1395.775	0.0	1060010	TRIAL_START	n/a	n/a	n/a	-999	8	[0, 0, 0]	n/a	FR1	0	R1313J
1395.775	0.0	1060010	WAITING_START	n/a	n/a	n/a	-999	8	[0, 0, 0]	n/a	FR1	0	R1313J
1395.775	0.0	1060010	TRIAL	n/a	n/a	n/a	-999	8	[0, 0, 0]	n/a	FR1	0	R1313J
1395.775	0.0	1060010	TRIAL_END	n/a	n/a	n/a	-999	7	[0, 0, 0]	n/a	FR1	0	R1313J
1395.775	2.509	1060010	REC_END	n/a	n/a	n/a	-999	7	[0, 0, 0]	n/a	FR1	0	R1313J
1398.284	0.0	1062519	ORIENT_START	n/a	n/a	n/a	-999	8	[0, 0, 0]	n/a	FR1	0	R1313J
1398.284	0.0	1062519	WAITING_END	n/a	n/a	n/a	-999	8	[0, 0, 0]	n/a	FR1	0	R1313J
1398.284	0.0	1062519	COUNTDOWN_START	n/a	n/a	n/a	-999	8	[0, 0, 0]	n/a	FR1	0	R1313J
1398.284	11.586	1062519	COUNTDOWN_END	n/a	n/a	n/a	-999	8	[0, 0, 0]	n/a	FR1	0	R1313J
1409.87	0.0	1074105	ORIENT_END	n/a	n/a	n/a	-999	8	[0, 0, 0]	n/a	FR1	0	R1313J
1409.87	0.798	1074105	ENCODING_START	n/a	n/a	n/a	-999	8	[0, 0, 0]	n/a	FR1	0	R1313J
1410.668	1.635	1074903	WORD	n/a	n/a	PLANT	1	8	[0, 0, 0]	n/a	FR1	0	R1313J
1412.303	1.007	1076538	WORD_OFF	n/a	n/a	PLANT	1	8	[0, 0, 0]	n/a	FR1	0	R1313J
1413.31	1.627	1077545	WORD	n/a	n/a	SHEET	2	8	[0, 0, 0]	n/a	FR1	0	R1313J
1414.937	1.053	1079172	WORD_OFF	n/a	n/a	SHEET	2	8	[0, 0, 0]	n/a	FR1	0	R1313J
1415.99	1.614	1080224	WORD	n/a	n/a	CAPE	3	8	[0, 0, 0]	n/a	FR1	0	R1313J
1417.604	0.778	1081838	WORD_OFF	n/a	n/a	CAPE	3	8	[0, 0, 0]	n/a	FR1	0	R1313J
1418.382	1.622	1082616	WORD	n/a	n/a	WOLF	4	8	[0, 0, 0]	n/a	FR1	0	R1313J
1420.004	1.148	1084238	WORD_OFF	n/a	n/a	WOLF	4	8	[0, 0, 0]	n/a	FR1	0	R1313J
1421.152	1.62	1085386	WORD	n/a	n/a	FLOOR	5	8	[0, 0, 0]	n/a	FR1	0	R1313J
1422.772	0.998	1087006	WORD_OFF	n/a	n/a	FLOOR	5	8	[0, 0, 0]	n/a	FR1	0	R1313J
1423.77	1.636	1088004	WORD	n/a	n/a	RIB	6	8	[0, 0, 0]	n/a	FR1	0	R1313J
1425.406	1.069	1089640	WORD_OFF	n/a	n/a	RIB	6	8	[0, 0, 0]	n/a	FR1	0	R1313J
1426.475	1.63	1090709	WORD	n/a	n/a	VAN	7	8	[0, 0, 0]	n/a	FR1	0	R1313J
1428.105	0.826	1092339	WORD_OFF	n/a	n/a	VAN	7	8	[0, 0, 0]	n/a	FR1	0	R1313J
1428.931	1.626	1093165	WORD	n/a	n/a	FARM	8	8	[0, 0, 0]	n/a	FR1	0	R1313J
1430.557	0.905	1094791	WORD_OFF	n/a	n/a	FARM	8	8	[0, 0, 0]	n/a	FR1	0	R1313J
1431.462	1.628	1095696	WORD	n/a	n/a	SEAL	9	8	[0, 0, 0]	n/a	FR1	0	R1313J
1433.09	1.006	1097324	WORD_OFF	n/a	n/a	SEAL	9	8	[0, 0, 0]	n/a	FR1	0	R1313J
1434.096	1.612	1098330	WORD	n/a	n/a	ICE	10	8	[0, 0, 0]	n/a	FR1	0	R1313J
1435.708	0.86	1099942	WORD_OFF	n/a	n/a	ICE	10	8	[0, 0, 0]	n/a	FR1	0	R1313J
1436.568	1.622	1100802	WORD	n/a	n/a	PIE	11	8	[0, 0, 0]	n/a	FR1	0	R1313J
1438.19	0.905	1102424	WORD_OFF	n/a	n/a	PIE	11	8	[0, 0, 0]	n/a	FR1	0	R1313J
1439.095	1.63	1103329	WORD	n/a	n/a	ROOM	12	8	[0, 0, 0]	n/a	FR1	0	R1313J
1440.725	0.0	1104958	WORD_OFF	n/a	n/a	ROOM	12	8	[0, 0, 0]	n/a	FR1	0	R1313J
1440.725	0.0	1104958	ENCODING_END	n/a	n/a	n/a	-999	8	[0, 0, 0]	n/a	FR1	0	R1313J
1440.725	0.002	1104958	DISTRACT_START	n/a	n/a	n/a	-999	8	[0, 0, 0]	n/a	FR1	0	R1313J
1440.727	0.015	1104960	START	n/a	n/a	n/a	-999	8	[-999, -999, -999]	n/a	FR1	0	R1313J
1440.742	5.834	1104975	PROB	5.834	n/a	n/a	-999	8	[9, 5, 5]	19	FR1	0	R1313J
1446.576	3.101	1110809	PROB	3.101	n/a	n/a	-999	8	[2, 1, 2]	5	FR1	0	R1313J
1449.677	2.984	1113910	PROB	2.984	n/a	n/a	-999	8	[1, 1, 6]	8	FR1	0	R1313J
1452.661	3.25	1116894	PROB	3.25	n/a	n/a	-999	8	[2, 4, 4]	10	FR1	0	R1313J
1455.911	9.787	1120144	PROB	9.787	n/a	n/a	-999	8	[3, 8, 9]	20	FR1	0	R1313J
1465.698	0.015	1129930	STOP	n/a	n/a	n/a	-999	8	[-999, -999, -999]	n/a	FR1	0	R1313J
1465.713	1.194	1129945	DISTRACT_END	n/a	n/a	n/a	-999	8	[0, 0, 0]	n/a	FR1	0	R1313J
1466.907	1.023	1131139	RETRIEVAL_ORIENT_START	n/a	n/a	n/a	-999	8	[0, 0, 0]	n/a	FR1	0	R1313J
1467.93	0.0	1132162	RETRIEVAL_ORIENT_END	n/a	n/a	n/a	-999	8	[0, 0, 0]	n/a	FR1	0	R1313J
1467.93	3.29	1132162	REC_START	n/a	n/a	n/a	-999	8	[0, 0, 0]	n/a	FR1	0	R1313J
1471.22	27.224	1135452	REC_WORD_VV	27.224	n/a	<>	-999	8	[0, 0, 0]	n/a	FR1	0	R1313J
1498.444	0.0	1162675	TRIAL_END	n/a	n/a	n/a	-999	8	[0, 0, 0]	n/a	FR1	0	R1313J
1498.444	0.0	1162675	TRIAL_START	n/a	n/a	n/a	-999	9	[0, 0, 0]	n/a	FR1	0	R1313J
1498.444	0.0	1162675	TRIAL	n/a	n/a	n/a	-999	9	[0, 0, 0]	n/a	FR1	0	R1313J
1498.444	0.0	1162675	WAITING_START	n/a	n/a	n/a	-999	9	[0, 0, 0]	n/a	FR1	0	R1313J
1498.444	2.475	1162675	REC_END	n/a	n/a	n/a	-999	8	[0, 0, 0]	n/a	FR1	0	R1313J
1500.919	0.0	1165150	WAITING_END	n/a	n/a	n/a	-999	9	[0, 0, 0]	n/a	FR1	0	R1313J
1500.919	0.0	1165150	COUNTDOWN_START	n/a	n/a	n/a	-999	9	[0, 0, 0]	n/a	FR1	0	R1313J
1500.919	0.0	1165150	ORIENT_START	n/a	n/a	n/a	-999	9	[0, 0, 0]	n/a	FR1	0	R1313J
1500.919	11.518	1165150	COUNTDOWN_END	n/a	n/a	n/a	-999	9	[0, 0, 0]	n/a	FR1	0	R1313J
1512.437	0.0	1176667	ORIENT_END	n/a	n/a	n/a	-999	9	[0, 0, 0]	n/a	FR1	0	R1313J
1512.437	0.972	1176667	ENCODING_START	n/a	n/a	n/a	-999	9	[0, 0, 0]	n/a	FR1	0	R1313J
1513.409	1.627	1177639	WORD	n/a	n/a	RUG	1	9	[0, 0, 0]	n/a	FR1	0	R1313J
1515.036	1.015	1179266	WORD_OFF	n/a	n/a	RUG	1	9	[0, 0, 0]	n/a	FR1	0	R1313J
1516.051	1.621	1180281	WORD	n/a	n/a	DESK	2	9	[0, 0, 0]	n/a	FR1	0	R1313J
1517.672	1.033	1181902	WORD_OFF	n/a	n/a	DESK	2	9	[0, 0, 0]	n/a	FR1	0	R1313J
1518.705	1.633	1182935	WORD	n/a	n/a	MOON	3	9	[0, 0, 0]	n/a	FR1	0	R1313J
1520.338	0.771	1184568	WORD_OFF	n/a	n/a	MOON	3	9	[0, 0, 0]	n/a	FR1	0	R1313J
1521.109	1.613	1185339	WORD	n/a	n/a	NAIL	4	9	[0, 0, 0]	n/a	FR1	0	R1313J
1522.722	0.839	1186952	WORD_OFF	n/a	n/a	NAIL	4	9	[0, 0, 0]	n/a	FR1	0	R1313J
1523.561	1.628	1187791	WORD	n/a	n/a	BOY	5	9	[0, 0, 0]	n/a	FR1	0	R1313J
1525.189	0.84	1189419	WORD_OFF	n/a	n/a	BOY	5	9	[0, 0, 0]	n/a	FR1	0	R1313J
1526.029	1.628	1190259	WORD	n/a	n/a	SMILE	6	9	[0, 0, 0]	n/a	FR1	0	R1313J
1527.657	1.044	1191887	WORD_OFF	n/a	n/a	SMILE	6	9	[0, 0, 0]	n/a	FR1	0	R1313J
1528.701	1.622	1192931	WORD	n/a	n/a	BEAR	7	9	[0, 0, 0]	n/a	FR1	0	R1313J
1530.323	0.806	1194553	WORD_OFF	n/a	n/a	BEAR	7	9	[0, 0, 0]	n/a	FR1	0	R1313J
1531.129	1.628	1195359	WORD	n/a	n/a	FOX	8	9	[0, 0, 0]	n/a	FR1	0	R1313J
1532.757	0.785	1196987	WORD_OFF	n/a	n/a	FOX	8	9	[0, 0, 0]	n/a	FR1	0	R1313J
1533.542	1.631	1197772	WORD	n/a	n/a	PALM	9	9	[0, 0, 0]	n/a	FR1	0	R1313J
1535.173	0.768	1199403	WORD_OFF	n/a	n/a	PALM	9	9	[0, 0, 0]	n/a	FR1	0	R1313J
1535.941	1.634	1200171	WORD	n/a	n/a	TOY	10	9	[0, 0, 0]	n/a	FR1	0	R1313J
1537.575	0.929	1201804	WORD_OFF	n/a	n/a	TOY	10	9	[0, 0, 0]	n/a	FR1	0	R1313J
1538.504	1.62	1202733	WORD	n/a	n/a	RAKE	11	9	[0, 0, 0]	n/a	FR1	0	R1313J
1540.124	0.782	1204353	WORD_OFF	n/a	n/a	RAKE	11	9	[0, 0, 0]	n/a	FR1	0	R1313J
1540.906	1.636	1205135	WORD	n/a	n/a	CASH	12	9	[0, 0, 0]	n/a	FR1	0	R1313J
1542.542	0.0	1206771	ENCODING_END	n/a	n/a	n/a	-999	9	[0, 0, 0]	n/a	FR1	0	R1313J
1542.542	0.0	1206771	WORD_OFF	n/a	n/a	CASH	12	9	[0, 0, 0]	n/a	FR1	0	R1313J
1542.542	0.002	1206771	DISTRACT_START	n/a	n/a	n/a	-999	9	[0, 0, 0]	n/a	FR1	0	R1313J
1542.544	0.015	1206773	START	n/a	n/a	n/a	-999	9	[-999, -999, -999]	n/a	FR1	0	R1313J
1542.559	5.218	1206788	PROB	5.218	n/a	n/a	-999	9	[5, 7, 4]	16	FR1	0	R1313J
1547.777	3.483	1212006	PROB	3.483	n/a	n/a	-999	9	[2, 4, 7]	13	FR1	0	R1313J
1551.26	2.9	1215489	PROB	2.9	n/a	n/a	-999	9	[4, 3, 1]	8	FR1	0	R1313J
1554.16	6.101	1218389	PROB	6.101	n/a	n/a	-999	9	[6, 3, 4]	13	FR1	0	R1313J
1560.261	4.661	1224490	PROB	4.661	n/a	n/a	-999	9	[1, 9, 8]	18	FR1	0	R1313J
1564.922	0.008	1229150	STOP	n/a	n/a	n/a	-999	9	[-999, -999, -999]	n/a	FR1	0	R1313J
1564.93	1.19	1229158	DISTRACT_END	n/a	n/a	n/a	-999	9	[0, 0, 0]	n/a	FR1	0	R1313J
1566.12	1.026	1230348	RETRIEVAL_ORIENT_START	n/a	n/a	n/a	-999	9	[0, 0, 0]	n/a	FR1	0	R1313J
1567.146	0.0	1231374	RETRIEVAL_ORIENT_END	n/a	n/a	n/a	-999	9	[0, 0, 0]	n/a	FR1	0	R1313J
1567.146	1.595	1231374	REC_START	n/a	n/a	n/a	-999	9	[0, 0, 0]	n/a	FR1	0	R1313J
1568.741	6.419	1232969	REC_WORD_VV	6.419	n/a	<>	-999	9	[0, 0, 0]	n/a	FR1	0	R1313J
1575.16	22.498	1239388	REC_WORD	22.498	n/a	FOX	8	9	[0, 0, 0]	n/a	FR1	0	R1313J
1597.658	0.0	1261885	REC_END	n/a	n/a	n/a	-999	9	[0, 0, 0]	n/a	FR1	0	R1313J
1597.658	0.0	1261885	TRIAL_END	n/a	n/a	n/a	-999	9	[0, 0, 0]	n/a	FR1	0	R1313J
1597.658	0.0	1261885	TRIAL_START	n/a	n/a	n/a	-999	10	[0, 0, 0]	n/a	FR1	0	R1313J
1597.658	0.0	1261885	TRIAL	n/a	n/a	n/a	-999	10	[0, 0, 0]	n/a	FR1	0	R1313J
1597.658	2.576	1261885	WAITING_START	n/a	n/a	n/a	-999	10	[0, 0, 0]	n/a	FR1	0	R1313J
1600.234	0.0	1264461	WAITING_END	n/a	n/a	n/a	-999	10	[0, 0, 0]	n/a	FR1	0	R1313J
1600.234	0.0	1264461	COUNTDOWN_START	n/a	n/a	n/a	-999	10	[0, 0, 0]	n/a	FR1	0	R1313J
1600.234	0.0	1264461	COUNTDOWN_END	n/a	n/a	n/a	-999	10	[0, 0, 0]	n/a	FR1	0	R1313J
1600.234	11.653	1264461	ORIENT_START	n/a	n/a	n/a	-999	10	[0, 0, 0]	n/a	FR1	0	R1313J
1611.887	0.0	1276113	ENCODING_START	n/a	n/a	n/a	-999	10	[0, 0, 0]	n/a	FR1	0	R1313J
1611.887	0.964	1276113	ORIENT_END	n/a	n/a	n/a	-999	10	[0, 0, 0]	n/a	FR1	0	R1313J
1612.851	1.637	1277077	WORD	n/a	n/a	DOG	1	10	[0, 0, 0]	n/a	FR1	0	R1313J
1614.488	0.976	1278714	WORD_OFF	n/a	n/a	DOG	1	10	[0, 0, 0]	n/a	FR1	0	R1313J
1615.464	1.623	1279690	WORD	n/a	n/a	PIG	2	10	[0, 0, 0]	n/a	FR1	0	R1313J
1617.087	0.776	1281313	WORD_OFF	n/a	n/a	PIG	2	10	[0, 0, 0]	n/a	FR1	0	R1313J
1617.863	1.626	1282089	WORD	n/a	n/a	ROAD	3	10	[0, 0, 0]	n/a	FR1	0	R1313J
1619.489	0.95	1283715	WORD_OFF	n/a	n/a	ROAD	3	10	[0, 0, 0]	n/a	FR1	0	R1313J
1620.439	1.632	1284665	WORD	n/a	n/a	HAT	4	10	[0, 0, 0]	n/a	FR1	0	R1313J
1622.071	0.936	1286297	WORD_OFF	n/a	n/a	HAT	4	10	[0, 0, 0]	n/a	FR1	0	R1313J
1623.007	1.633	1287233	WORD	n/a	n/a	DEER	5	10	[0, 0, 0]	n/a	FR1	0	R1313J
1624.64	0.902	1288866	WORD_OFF	n/a	n/a	DEER	5	10	[0, 0, 0]	n/a	FR1	0	R1313J
1625.542	1.63	1289768	WORD	n/a	n/a	CAKE	6	10	[0, 0, 0]	n/a	FR1	0	R1313J
1627.172	0.969	1291398	WORD_OFF	n/a	n/a	CAKE	6	10	[0, 0, 0]	n/a	FR1	0	R1313J
1628.141	1.633	1292367	WORD	n/a	n/a	SOCK	7	10	[0, 0, 0]	n/a	FR1	0	R1313J
1629.774	1.067	1294000	WORD_OFF	n/a	n/a	SOCK	7	10	[0, 0, 0]	n/a	FR1	0	R1313J
1630.841	1.633	1295067	WORD	n/a	n/a	BEE	8	10	[0, 0, 0]	n/a	FR1	0	R1313J
1632.474	0.858	1296700	WORD_OFF	n/a	n/a	BEE	8	10	[0, 0, 0]	n/a	FR1	0	R1313J
1633.332	1.609	1297558	WORD	n/a	n/a	PLANE	9	10	[0, 0, 0]	n/a	FR1	0	R1313J
1634.941	1.052	1299166	WORD_OFF	n/a	n/a	PLANE	9	10	[0, 0, 0]	n/a	FR1	0	R1313J
1635.993	1.632	1300218	WORD	n/a	n/a	SMOKE	10	10	[0, 0, 0]	n/a	FR1	0	R1313J
1637.625	1.067	1301850	WORD_OFF	n/a	n/a	SMOKE	10	10	[0, 0, 0]	n/a	FR1	0	R1313J
1638.692	1.633	1302917	WORD	n/a	n/a	STEAM	11	10	[0, 0, 0]	n/a	FR1	0	R1313J
1640.325	0.88	1304550	WORD_OFF	n/a	n/a	STEAM	11	10	[0, 0, 0]	n/a	FR1	0	R1313J
1641.205	1.638	1305430	WORD	n/a	n/a	CROW	12	10	[0, 0, 0]	n/a	FR1	0	R1313J
1642.843	0.0	1307068	WORD_OFF	n/a	n/a	CROW	12	10	[0, 0, 0]	n/a	FR1	0	R1313J
1642.843	0.0	1307068	ENCODING_END	n/a	n/a	n/a	-999	10	[0, 0, 0]	n/a	FR1	0	R1313J
1642.843	0.001	1307068	DISTRACT_START	n/a	n/a	n/a	-999	10	[0, 0, 0]	n/a	FR1	0	R1313J
1642.844	0.015	1307069	START	n/a	n/a	n/a	-999	10	[-999, -999, -999]	n/a	FR1	0	R1313J
1642.859	10.002	1307084	PROB	10.002	n/a	n/a	-999	10	[7, 4, 8]	19	FR1	0	R1313J
1652.861	3.767	1317086	PROB	3.767	n/a	n/a	-999	10	[2, 7, 7]	16	FR1	0	R1313J
1656.628	10.791	1320853	PROB	10.791	n/a	n/a	-999	10	[8, 7, 9]	24	FR1	0	R1313J
1667.419	0.011	1331643	STOP	n/a	n/a	n/a	-999	10	[-999, -999, -999]	n/a	FR1	0	R1313J
1667.43	1.257	1331654	DISTRACT_END	n/a	n/a	n/a	-999	10	[0, 0, 0]	n/a	FR1	0	R1313J
1668.687	1.027	1332911	RETRIEVAL_ORIENT_START	n/a	n/a	n/a	-999	10	[0, 0, 0]	n/a	FR1	0	R1313J
1669.714	0.0	1333938	RETRIEVAL_ORIENT_END	n/a	n/a	n/a	-999	10	[0, 0, 0]	n/a	FR1	0	R1313J
1669.714	1.715	1333938	REC_START	n/a	n/a	n/a	-999	10	[0, 0, 0]	n/a	FR1	0	R1313J
1671.429	2.424	1335653	REC_WORD_VV	2.424	n/a	<>	-999	10	[0, 0, 0]	n/a	FR1	0	R1313J
1673.853	26.375	1338077	REC_WORD_VV	26.375	n/a	<>	-999	10	[0, 0, 0]	n/a	FR1	0	R1313J
1700.228	0.0	1364451	TRIAL_START	n/a	n/a	n/a	-999	11	[0, 0, 0]	n/a	FR1	0	R1313J
1700.228	0.0	1364451	WAITING_START	n/a	n/a	n/a	-999	11	[0, 0, 0]	n/a	FR1	0	R1313J
1700.228	0.0	1364451	TRIAL	n/a	n/a	n/a	-999	11	[0, 0, 0]	n/a	FR1	0	R1313J
1700.228	0.0	1364451	REC_END	n/a	n/a	n/a	-999	10	[0, 0, 0]	n/a	FR1	0	R1313J
1700.228	101.675	1364451	TRIAL_END	n/a	n/a	n/a	-999	10	[0, 0, 0]	n/a	FR1	0	R1313J
1801.903	0.0	1466122	WAITING_END	n/a	n/a	n/a	-999	11	[0, 0, 0]	n/a	FR1	0	R1313J
1801.903	0.0	1466122	COUNTDOWN_START	n/a	n/a	n/a	-999	11	[0, 0, 0]	n/a	FR1	0	R1313J
1801.903	0.0	1466122	COUNTDOWN_END	n/a	n/a	n/a	-999	11	[0, 0, 0]	n/a	FR1	0	R1313J
1801.903	11.619	1466122	ORIENT_START	n/a	n/a	n/a	-999	11	[0, 0, 0]	n/a	FR1	0	R1313J
1813.522	0.0	1477740	ORIENT_END	n/a	n/a	n/a	-999	11	[0, 0, 0]	n/a	FR1	0	R1313J
1813.522	0.833	1477740	ENCODING_START	n/a	n/a	n/a	-999	11	[0, 0, 0]	n/a	FR1	0	R1313J
1814.355	1.633	1478573	WORD	n/a	n/a	SHIP	1	11	[0, 0, 0]	n/a	FR1	0	R1313J
1815.988	0.925	1480206	WORD_OFF	n/a	n/a	SHIP	1	11	[0, 0, 0]	n/a	FR1	0	R1313J
1816.913	1.626	1481131	WORD	n/a	n/a	PEACH	2	11	[0, 0, 0]	n/a	FR1	0	R1313J
1818.539	0.972	1482757	WORD_OFF	n/a	n/a	PEACH	2	11	[0, 0, 0]	n/a	FR1	0	R1313J
1819.511	1.627	1483729	WORD	n/a	n/a	TEETH	3	11	[0, 0, 0]	n/a	FR1	0	R1313J
1821.138	0.941	1485356	WORD_OFF	n/a	n/a	TEETH	3	11	[0, 0, 0]	n/a	FR1	0	R1313J
1822.079	1.628	1486297	WORD	n/a	n/a	CLAY	4	11	[0, 0, 0]	n/a	FR1	0	R1313J
1823.707	1.011	1487925	WORD_OFF	n/a	n/a	CLAY	4	11	[0, 0, 0]	n/a	FR1	0	R1313J
1824.718	1.621	1488936	WORD	n/a	n/a	EEL	5	11	[0, 0, 0]	n/a	FR1	0	R1313J
1826.339	0.76	1490557	WORD_OFF	n/a	n/a	EEL	5	11	[0, 0, 0]	n/a	FR1	0	R1313J
1827.099	1.608	1491317	WORD	n/a	n/a	CHALK	6	11	[0, 0, 0]	n/a	FR1	0	R1313J
1828.707	0.962	1492925	WORD_OFF	n/a	n/a	CHALK	6	11	[0, 0, 0]	n/a	FR1	0	R1313J
1829.669	1.638	1493886	WORD	n/a	n/a	BRIDGE	7	11	[0, 0, 0]	n/a	FR1	0	R1313J
1831.307	0.897	1495524	WORD_OFF	n/a	n/a	BRIDGE	7	11	[0, 0, 0]	n/a	FR1	0	R1313J
1832.204	1.621	1496421	WORD	n/a	n/a	BOMB	8	11	[0, 0, 0]	n/a	FR1	0	R1313J
1833.825	0.923	1498042	WORD_OFF	n/a	n/a	BOMB	8	11	[0, 0, 0]	n/a	FR1	0	R1313J
1834.748	1.626	1498965	WORD	n/a	n/a	SHEEP	9	11	[0, 0, 0]	n/a	FR1	0	R1313J
1836.374	0.985	1500591	WORD_OFF	n/a	n/a	SHEEP	9	11	[0, 0, 0]	n/a	FR1	0	R1313J
1837.359	1.617	1501576	WORD	n/a	n/a	WALL	10	11	[0, 0, 0]	n/a	FR1	0	R1313J
1838.976	0.987	1503193	WORD_OFF	n/a	n/a	WALL	10	11	[0, 0, 0]	n/a	FR1	0	R1313J
1839.963	1.63	1504180	WORD	n/a	n/a	FROG	11	11	[0, 0, 0]	n/a	FR1	0	R1313J
1841.593	1.122	1505810	WORD_OFF	n/a	n/a	FROG	11	11	[0, 0, 0]	n/a	FR1	0	R1313J
1842.715	1.627	1506932	WORD	n/a	n/a	JEEP	12	11	[0, 0, 0]	n/a	FR1	0	R1313J
1844.342	0.0	1508559	WORD_OFF	n/a	n/a	JEEP	12	11	[0, 0, 0]	n/a	FR1	0	R1313J
1844.342	0.0	1508559	ENCODING_END	n/a	n/a	n/a	-999	11	[0, 0, 0]	n/a	FR1	0	R1313J
1844.342	0.002	1508559	DISTRACT_START	n/a	n/a	n/a	-999	11	[0, 0, 0]	n/a	FR1	0	R1313J
1844.344	0.015	1508561	START	n/a	n/a	n/a	-999	11	[-999, -999, -999]	n/a	FR1	0	R1313J
1844.359	8.069	1508576	PROB	8.069	n/a	n/a	-999	11	[2, 7, 6]	15	FR1	0	R1313J
1852.428	3.134	1516645	PROB	3.134	n/a	n/a	-999	11	[8, 1, 1]	10	FR1	0	R1313J
1855.562	3.367	1519778	PROB	3.367	n/a	n/a	-999	11	[7, 1, 8]	16	FR1	0	R1313J
1858.929	4.433	1523145	PROB	4.433	n/a	n/a	-999	11	[7, 6, 3]	16	FR1	0	R1313J
1863.362	3.358	1527578	PROB	3.358	n/a	n/a	-999	11	[3, 6, 3]	12	FR1	0	R1313J
1866.72	0.01	1530936	STOP	n/a	n/a	n/a	-999	11	[-999, -999, -999]	n/a	FR1	0	R1313J
1866.73	1.205	1530946	DISTRACT_END	n/a	n/a	n/a	-999	11	[0, 0, 0]	n/a	FR1	0	R1313J
1867.935	1.029	1532151	RETRIEVAL_ORIENT_START	n/a	n/a	n/a	-999	11	[0, 0, 0]	n/a	FR1	0	R1313J
1868.964	0.0	1533180	REC_START	n/a	n/a	n/a	-999	11	[0, 0, 0]	n/a	FR1	0	R1313J
1868.964	0.04	1533180	RETRIEVAL_ORIENT_END	n/a	n/a	n/a	-999	11	[0, 0, 0]	n/a	FR1	0	R1313J
1869.004	0.965	1533220	REC_WORD	0.965	n/a	JEEP	12	11	[0, 0, 0]	n/a	FR1	0	R1313J
1869.969	4.065	1534185	REC_WORD	4.065	n/a	SHEEP	9	11	[0, 0, 0]	n/a	FR1	0	R1313J
1874.034	8.785	1538250	REC_WORD_VV	8.785	n/a	<>	-999	11	[0, 0, 0]	n/a	FR1	0	R1313J
1882.819	1.0	1547034	REC_WORD_VV	1.0	n/a	<>	-999	11	[0, 0, 0]	n/a	FR1	0	R1313J
1883.819	2.445	1548034	REC_WORD_VV	2.445	n/a	<>	-999	11	[0, 0, 0]	n/a	FR1	0	R1313J
1886.264	1.065	1550479	REC_WORD_VV	1.065	n/a	<>	-999	11	[0, 0, 0]	n/a	FR1	0	R1313J
1887.329	12.148	1551544	REC_WORD_VV	12.148	n/a	<>	-999	11	[0, 0, 0]	n/a	FR1	0	R1313J
1899.477	0.0	1563692	REC_END	n/a	n/a	n/a	-999	11	[0, 0, 0]	n/a	FR1	0	R1313J
1899.477	0.0	1563692	TRIAL_START	n/a	n/a	n/a	-999	12	[0, 0, 0]	n/a	FR1	0	R1313J
1899.477	0.0	1563692	TRIAL	n/a	n/a	n/a	-999	12	[0, 0, 0]	n/a	FR1	0	R1313J
1899.477	0.0	1563692	WAITING_START	n/a	n/a	n/a	-999	12	[0, 0, 0]	n/a	FR1	0	R1313J
1899.477	7.01	1563692	TRIAL_END	n/a	n/a	n/a	-999	11	[0, 0, 0]	n/a	FR1	0	R1313J
1906.487	0.0	1570701	ORIENT_START	n/a	n/a	n/a	-999	12	[0, 0, 0]	n/a	FR1	0	R1313J
1906.487	0.0	1570701	WAITING_END	n/a	n/a	n/a	-999	12	[0, 0, 0]	n/a	FR1	0	R1313J
1906.487	0.0	1570701	COUNTDOWN_START	n/a	n/a	n/a	-999	12	[0, 0, 0]	n/a	FR1	0	R1313J
1906.487	11.585	1570701	COUNTDOWN_END	n/a	n/a	n/a	-999	12	[0, 0, 0]	n/a	FR1	0	R1313J
1918.072	0.0	1582286	ORIENT_END	n/a	n/a	n/a	-999	12	[0, 0, 0]	n/a	FR1	0	R1313J
1918.072	0.992	1582286	ENCODING_START	n/a	n/a	n/a	-999	12	[0, 0, 0]	n/a	FR1	0	R1313J
1919.064	1.626	1583278	WORD	n/a	n/a	HOUSE	1	12	[0, 0, 0]	n/a	FR1	0	R1313J
1920.69	1.086	1584904	WORD_OFF	n/a	n/a	HOUSE	1	12	[0, 0, 0]	n/a	FR1	0	R1313J
1921.776	1.631	1585990	WORD	n/a	n/a	WEB	2	12	[0, 0, 0]	n/a	FR1	0	R1313J
1923.407	0.803	1587621	WORD_OFF	n/a	n/a	WEB	2	12	[0, 0, 0]	n/a	FR1	0	R1313J
1924.21	1.614	1588424	WORD	n/a	n/a	CUBE	3	12	[0, 0, 0]	n/a	FR1	0	R1313J
1925.824	1.007	1590038	WORD_OFF	n/a	n/a	CUBE	3	12	[0, 0, 0]	n/a	FR1	0	R1313J
1926.831	1.627	1591044	WORD	n/a	n/a	LAMB	4	12	[0, 0, 0]	n/a	FR1	0	R1313J
1928.458	0.895	1592671	WORD_OFF	n/a	n/a	LAMB	4	12	[0, 0, 0]	n/a	FR1	0	R1313J
1929.353	1.638	1593566	WORD	n/a	n/a	ROPE	5	12	[0, 0, 0]	n/a	FR1	0	R1313J
1930.991	0.911	1595204	WORD_OFF	n/a	n/a	ROPE	5	12	[0, 0, 0]	n/a	FR1	0	R1313J
1931.902	1.623	1596115	WORD	n/a	n/a	SWAMP	6	12	[0, 0, 0]	n/a	FR1	0	R1313J
1933.525	1.005	1597738	WORD_OFF	n/a	n/a	SWAMP	6	12	[0, 0, 0]	n/a	FR1	0	R1313J
1934.53	1.628	1598743	WORD	n/a	n/a	OAK	7	12	[0, 0, 0]	n/a	FR1	0	R1313J
1936.158	1.117	1600371	WORD_OFF	n/a	n/a	OAK	7	12	[0, 0, 0]	n/a	FR1	0	R1313J
1937.275	1.634	1601488	WORD	n/a	n/a	PIT	8	12	[0, 0, 0]	n/a	FR1	0	R1313J
1938.909	0.909	1603122	WORD_OFF	n/a	n/a	PIT	8	12	[0, 0, 0]	n/a	FR1	0	R1313J
1939.818	1.625	1604031	WORD	n/a	n/a	BIRD	9	12	[0, 0, 0]	n/a	FR1	0	R1313J
1941.443	1.006	1605656	WORD_OFF	n/a	n/a	BIRD	9	12	[0, 0, 0]	n/a	FR1	0	R1313J
1942.449	1.627	1606662	WORD	n/a	n/a	VINE	10	12	[0, 0, 0]	n/a	FR1	0	R1313J
1944.076	0.874	1608289	WORD_OFF	n/a	n/a	VINE	10	12	[0, 0, 0]	n/a	FR1	0	R1313J
1944.95	1.627	1609163	WORD	n/a	n/a	GRAPE	11	12	[0, 0, 0]	n/a	FR1	0	R1313J
1946.577	0.873	1610790	WORD_OFF	n/a	n/a	GRAPE	11	12	[0, 0, 0]	n/a	FR1	0	R1313J
1947.45	1.627	1611663	WORD	n/a	n/a	LEAF	12	12	[0, 0, 0]	n/a	FR1	0	R1313J
1949.077	0.0	1613290	WORD_OFF	n/a	n/a	LEAF	12	12	[0, 0, 0]	n/a	FR1	0	R1313J
1949.077	0.0	1613290	ENCODING_END	n/a	n/a	n/a	-999	12	[0, 0, 0]	n/a	FR1	0	R1313J
1949.077	0.001	1613290	DISTRACT_START	n/a	n/a	n/a	-999	12	[0, 0, 0]	n/a	FR1	0	R1313J
1949.078	0.015	1613291	START	n/a	n/a	n/a	-999	12	[-999, -999, -999]	n/a	FR1	0	R1313J
1949.093	3.502	1613306	PROB	3.502	n/a	n/a	-999	12	[4, 8, 2]	14	FR1	0	R1313J
1952.595	2.884	1616807	PROB	2.884	n/a	n/a	-999	12	[7, 2, 7]	16	FR1	0	R1313J
1955.479	5.317	1619691	PROB	5.317	n/a	n/a	-999	12	[5, 2, 9]	16	FR1	0	R1313J
1960.796	3.051	1625008	PROB	3.051	n/a	n/a	-999	12	[1, 1, 6]	8	FR1	0	R1313J
1963.847	3.6	1628059	PROB	3.6	n/a	n/a	-999	12	[4, 3, 3]	7	FR1	0	R1313J
1967.447	5.184	1631659	PROB	5.184	n/a	n/a	-999	12	[3, 6, 1]	9	FR1	0	R1313J
1972.631	0.017	1636843	STOP	n/a	n/a	n/a	-999	12	[-999, -999, -999]	n/a	FR1	0	R1313J
1972.648	1.249	1636860	DISTRACT_END	n/a	n/a	n/a	-999	12	[0, 0, 0]	n/a	FR1	0	R1313J
1973.897	1.035	1638109	RETRIEVAL_ORIENT_START	n/a	n/a	n/a	-999	12	[0, 0, 0]	n/a	FR1	0	R1313J
1974.932	0.0	1639144	RETRIEVAL_ORIENT_END	n/a	n/a	n/a	-999	12	[0, 0, 0]	n/a	FR1	0	R1313J
1974.932	0.98	1639144	REC_START	n/a	n/a	n/a	-999	12	[0, 0, 0]	n/a	FR1	0	R1313J
1975.912	0.455	1640123	REC_WORD_VV	0.455	n/a	<>	-999	12	[0, 0, 0]	n/a	FR1	0	R1313J
1976.367	0.515	1640578	REC_WORD	0.515	n/a	PIT	8	12	[0, 0, 0]	n/a	FR1	0	R1313J
1976.882	1.264	1641093	REC_WORD	1.264	n/a	SWAMP	6	12	[0, 0, 0]	n/a	FR1	0	R1313J
1978.146	2.616	1642357	REC_WORD	2.616	n/a	HOUSE	1	12	[0, 0, 0]	n/a	FR1	0	R1313J
1980.762	1.35	1644973	REC_WORD	1.35	n/a	ROPE	5	12	[0, 0, 0]	n/a	FR1	0	R1313J
1982.112	23.332	1646323	REC_WORD	23.332	n/a	OAK	7	12	[0, 0, 0]	n/a	FR1	0	R1313J
2005.444	0.0	1669654	TRIAL_END	n/a	n/a	n/a	-999	12	[0, 0, 0]	n/a	FR1	0	R1313J
2005.444	0.0	1669654	WAITING_START	n/a	n/a	n/a	-999	13	[0, 0, 0]	n/a	FR1	0	R1313J
2005.444	0.0	1669654	REC_END	n/a	n/a	n/a	-999	12	[0, 0, 0]	n/a	FR1	0	R1313J
2005.444	0.0	1669654	TRIAL_START	n/a	n/a	n/a	-999	13	[0, 0, 0]	n/a	FR1	0	R1313J
2005.444	86.508	1669654	TRIAL	n/a	n/a	n/a	-999	13	[0, 0, 0]	n/a	FR1	0	R1313J
2091.952	0.0	1756159	COUNTDOWN_START	n/a	n/a	n/a	-999	13	[0, 0, 0]	n/a	FR1	0	R1313J
2091.952	0.0	1756159	ORIENT_START	n/a	n/a	n/a	-999	13	[0, 0, 0]	n/a	FR1	0	R1313J
2091.952	0.0	1756159	WAITING_END	n/a	n/a	n/a	-999	13	[0, 0, 0]	n/a	FR1	0	R1313J
2091.952	11.585	1756159	COUNTDOWN_END	n/a	n/a	n/a	-999	13	[0, 0, 0]	n/a	FR1	0	R1313J
2103.537	0.0	1767743	ORIENT_END	n/a	n/a	n/a	-999	13	[0, 0, 0]	n/a	FR1	0	R1313J
2103.537	1.011	1767743	ENCODING_START	n/a	n/a	n/a	-999	13	[0, 0, 0]	n/a	FR1	0	R1313J
2104.548	1.622	1768754	WORD	n/a	n/a	SEAT	1	13	[0, 0, 0]	n/a	FR1	0	R1313J
2106.17	1.021	1770376	WORD_OFF	n/a	n/a	SEAT	1	13	[0, 0, 0]	n/a	FR1	0	R1313J
2107.191	1.614	1771397	WORD	n/a	n/a	NET	2	13	[0, 0, 0]	n/a	FR1	0	R1313J
2108.805	0.811	1773011	WORD_OFF	n/a	n/a	NET	2	13	[0, 0, 0]	n/a	FR1	0	R1313J
2109.616	1.621	1773822	WORD	n/a	n/a	HORSE	3	13	[0, 0, 0]	n/a	FR1	0	R1313J
2111.237	1.139	1775443	WORD_OFF	n/a	n/a	HORSE	3	13	[0, 0, 0]	n/a	FR1	0	R1313J
2112.376	1.629	1776582	WORD	n/a	n/a	FORT	4	13	[0, 0, 0]	n/a	FR1	0	R1313J
2114.005	0.811	1778211	WORD_OFF	n/a	n/a	FORT	4	13	[0, 0, 0]	n/a	FR1	0	R1313J
2114.816	1.623	1779022	WORD	n/a	n/a	JAIL	5	13	[0, 0, 0]	n/a	FR1	0	R1313J
2116.439	1.148	1780645	WORD_OFF	n/a	n/a	JAIL	5	13	[0, 0, 0]	n/a	FR1	0	R1313J
2117.587	1.635	1781793	WORD	n/a	n/a	TIE	6	13	[0, 0, 0]	n/a	FR1	0	R1313J
2119.222	1.115	1783428	WORD_OFF	n/a	n/a	TIE	6	13	[0, 0, 0]	n/a	FR1	0	R1313J
2120.337	1.637	1784543	WORD	n/a	n/a	HOLE	7	13	[0, 0, 0]	n/a	FR1	0	R1313J
2121.974	0.941	1786179	WORD_OFF	n/a	n/a	HOLE	7	13	[0, 0, 0]	n/a	FR1	0	R1313J
2122.915	1.626	1787120	WORD	n/a	n/a	TANK	8	13	[0, 0, 0]	n/a	FR1	0	R1313J
2124.541	1.002	1788746	WORD_OFF	n/a	n/a	TANK	8	13	[0, 0, 0]	n/a	FR1	0	R1313J
2125.543	1.631	1789748	WORD	n/a	n/a	TREE	9	13	[0, 0, 0]	n/a	FR1	0	R1313J
2127.174	1.002	1791379	WORD_OFF	n/a	n/a	TREE	9	13	[0, 0, 0]	n/a	FR1	0	R1313J
2128.176	1.615	1792381	WORD	n/a	n/a	SPEAR	10	13	[0, 0, 0]	n/a	FR1	0	R1313J
2129.791	0.77	1793996	WORD_OFF	n/a	n/a	SPEAR	10	13	[0, 0, 0]	n/a	FR1	0	R1313J
2130.561	1.63	1794766	WORD	n/a	n/a	FLAG	11	13	[0, 0, 0]	n/a	FR1	0	R1313J
2132.191	0.89	1796396	WORD_OFF	n/a	n/a	FLAG	11	13	[0, 0, 0]	n/a	FR1	0	R1313J
2133.081	1.611	1797286	WORD	n/a	n/a	DRUM	12	13	[0, 0, 0]	n/a	FR1	0	R1313J
2134.692	0.0	1798897	DISTRACT_START	n/a	n/a	n/a	-999	13	[0, 0, 0]	n/a	FR1	0	R1313J
2134.692	0.0	1798897	WORD_OFF	n/a	n/a	DRUM	12	13	[0, 0, 0]	n/a	FR1	0	R1313J
2134.692	0.001	1798897	ENCODING_END	n/a	n/a	n/a	-999	13	[0, 0, 0]	n/a	FR1	0	R1313J
2134.693	0.016	1798898	START	n/a	n/a	n/a	-999	13	[-999, -999, -999]	n/a	FR1	0	R1313J
2134.709	4.516	1798914	PROB	4.516	n/a	n/a	-999	13	[1, 5, 9]	15	FR1	0	R1313J
2139.225	3.185	1803430	PROB	3.185	n/a	n/a	-999	13	[7, 7, 1]	15	FR1	0	R1313J
2142.41	3.667	1806615	PROB	3.667	n/a	n/a	-999	13	[7, 9, 5]	21	FR1	0	R1313J
2146.077	3.267	1810281	PROB	3.267	n/a	n/a	-999	13	[7, 2, 9]	18	FR1	0	R1313J
2149.344	4.301	1813548	PROB	4.301	n/a	n/a	-999	13	[2, 2, 3]	7	FR1	0	R1313J
2153.645	4.411	1817849	PROB	4.411	n/a	n/a	-999	13	[9, 4, 5]	18	FR1	0	R1313J
2158.056	0.023	1822260	STOP	n/a	n/a	n/a	-999	13	[-999, -999, -999]	n/a	FR1	0	R1313J
2158.079	1.145	1822283	DISTRACT_END	n/a	n/a	n/a	-999	13	[0, 0, 0]	n/a	FR1	0	R1313J
2159.224	1.022	1823428	RETRIEVAL_ORIENT_START	n/a	n/a	n/a	-999	13	[0, 0, 0]	n/a	FR1	0	R1313J
2160.246	0.0	1824450	RETRIEVAL_ORIENT_END	n/a	n/a	n/a	-999	13	[0, 0, 0]	n/a	FR1	0	R1313J
2160.246	1.714	1824450	REC_START	n/a	n/a	n/a	-999	13	[0, 0, 0]	n/a	FR1	0	R1313J
2161.96	3.495	1826164	REC_WORD	3.495	n/a	TREE	9	13	[0, 0, 0]	n/a	FR1	0	R1313J
2165.455	1.515	1829659	REC_WORD	1.515	n/a	HOLE	7	13	[0, 0, 0]	n/a	FR1	0	R1313J
2166.97	1.44	1831174	REC_WORD	1.44	n/a	JAIL	5	13	[0, 0, 0]	n/a	FR1	0	R1313J
2168.41	22.349	1832614	REC_WORD	22.349	n/a	TIE	6	13	[0, 0, 0]	n/a	FR1	0	R1313J
2190.759	0.0	1854962	REC_END	n/a	n/a	n/a	-999	13	[0, 0, 0]	n/a	FR1	0	R1313J
2190.759	0.0	1854962	TRIAL_END	n/a	n/a	n/a	-999	13	[0, 0, 0]	n/a	FR1	0	R1313J
2190.759	0.0	1854962	TRIAL_START	n/a	n/a	n/a	-999	14	[0, 0, 0]	n/a	FR1	0	R1313J
2190.759	0.0	1854962	TRIAL	n/a	n/a	n/a	-999	14	[0, 0, 0]	n/a	FR1	0	R1313J
2190.759	2.193	1854962	WAITING_START	n/a	n/a	n/a	-999	14	[0, 0, 0]	n/a	FR1	0	R1313J
2192.952	0.0	1857155	WAITING_END	n/a	n/a	n/a	-999	14	[0, 0, 0]	n/a	FR1	0	R1313J
2192.952	0.0	1857155	COUNTDOWN_START	n/a	n/a	n/a	-999	14	[0, 0, 0]	n/a	FR1	0	R1313J
2192.952	0.0	1857155	COUNTDOWN_END	n/a	n/a	n/a	-999	14	[0, 0, 0]	n/a	FR1	0	R1313J
2192.952	11.569	1857155	ORIENT_START	n/a	n/a	n/a	-999	14	[0, 0, 0]	n/a	FR1	0	R1313J
2204.521	0.0	1868723	ENCODING_START	n/a	n/a	n/a	-999	14	[0, 0, 0]	n/a	FR1	0	R1313J
2204.521	0.796	1868723	ORIENT_END	n/a	n/a	n/a	-999	14	[0, 0, 0]	n/a	FR1	0	R1313J
2205.317	1.638	1869519	WORD	n/a	n/a	INK	1	14	[0, 0, 0]	n/a	FR1	0	R1313J
2206.955	0.921	1871157	WORD_OFF	n/a	n/a	INK	1	14	[0, 0, 0]	n/a	FR1	0	R1313J
2207.876	1.629	1872078	WORD	n/a	n/a	BALL	2	14	[0, 0, 0]	n/a	FR1	0	R1313J
2209.505	1.069	1873707	WORD_OFF	n/a	n/a	BALL	2	14	[0, 0, 0]	n/a	FR1	0	R1313J
2210.574	1.63	1874776	WORD	n/a	n/a	BLUSH	3	14	[0, 0, 0]	n/a	FR1	0	R1313J
2212.204	1.004	1876406	WORD_OFF	n/a	n/a	BLUSH	3	14	[0, 0, 0]	n/a	FR1	0	R1313J
2213.208	1.614	1877410	WORD	n/a	n/a	SNAIL	4	14	[0, 0, 0]	n/a	FR1	0	R1313J
2214.822	0.782	1879024	WORD_OFF	n/a	n/a	SNAIL	4	14	[0, 0, 0]	n/a	FR1	0	R1313J
2215.604	1.635	1879806	WORD	n/a	n/a	LOCK	5	14	[0, 0, 0]	n/a	FR1	0	R1313J
2217.239	0.8	1881441	WORD_OFF	n/a	n/a	LOCK	5	14	[0, 0, 0]	n/a	FR1	0	R1313J
2218.039	1.618	1882241	WORD	n/a	n/a	DOCK	6	14	[0, 0, 0]	n/a	FR1	0	R1313J
2219.657	1.061	1883858	WORD_OFF	n/a	n/a	DOCK	6	14	[0, 0, 0]	n/a	FR1	0	R1313J
2220.718	1.621	1884919	WORD	n/a	n/a	MAT	7	14	[0, 0, 0]	n/a	FR1	0	R1313J
2222.339	1.076	1886540	WORD_OFF	n/a	n/a	MAT	7	14	[0, 0, 0]	n/a	FR1	0	R1313J
2223.415	1.625	1887616	WORD	n/a	n/a	ROOF	8	14	[0, 0, 0]	n/a	FR1	0	R1313J
2225.04	1.07	1889241	WORD_OFF	n/a	n/a	ROOF	8	14	[0, 0, 0]	n/a	FR1	0	R1313J
2226.11	1.631	1890311	WORD	n/a	n/a	FOOD	9	14	[0, 0, 0]	n/a	FR1	0	R1313J
2227.741	0.812	1891942	WORD_OFF	n/a	n/a	FOOD	9	14	[0, 0, 0]	n/a	FR1	0	R1313J
2228.553	1.621	1892754	WORD	n/a	n/a	RAT	10	14	[0, 0, 0]	n/a	FR1	0	R1313J
2230.174	0.789	1894375	WORD_OFF	n/a	n/a	RAT	10	14	[0, 0, 0]	n/a	FR1	0	R1313J
2230.963	1.629	1895164	WORD	n/a	n/a	CHAIR	11	14	[0, 0, 0]	n/a	FR1	0	R1313J
2232.592	1.07	1896793	WORD_OFF	n/a	n/a	CHAIR	11	14	[0, 0, 0]	n/a	FR1	0	R1313J
2233.662	1.63	1897863	WORD	n/a	n/a	POLE	12	14	[0, 0, 0]	n/a	FR1	0	R1313J
2235.292	0.0	1899493	WORD_OFF	n/a	n/a	POLE	12	14	[0, 0, 0]	n/a	FR1	0	R1313J
2235.292	0.0	1899493	ENCODING_END	n/a	n/a	n/a	-999	14	[0, 0, 0]	n/a	FR1	0	R1313J
2235.292	0.001	1899493	DISTRACT_START	n/a	n/a	n/a	-999	14	[0, 0, 0]	n/a	FR1	0	R1313J
2235.293	0.015	1899494	START	n/a	n/a	n/a	-999	14	[-999, -999, -999]	n/a	FR1	0	R1313J
2235.308	10.17	1899509	PROB	10.17	n/a	n/a	-999	14	[2, 6, 7]	15	FR1	0	R1313J
2245.478	4.749	1909678	PROB	4.749	n/a	n/a	-999	14	[9, 5, 9]	23	FR1	0	R1313J
2250.227	5.117	1914427	PROB	5.117	n/a	n/a	-999	14	[7, 8, 5]	20	FR1	0	R1313J
2255.344	0.018	1919544	STOP	n/a	n/a	n/a	-999	14	[-999, -999, -999]	n/a	FR1	0	R1313J
2255.362	1.096	1919562	DISTRACT_END	n/a	n/a	n/a	-999	14	[0, 0, 0]	n/a	FR1	0	R1313J
2256.458	1.022	1920658	RETRIEVAL_ORIENT_START	n/a	n/a	n/a	-999	14	[0, 0, 0]	n/a	FR1	0	R1313J
2257.48	0.0	1921680	REC_START	n/a	n/a	n/a	-999	14	[0, 0, 0]	n/a	FR1	0	R1313J
2257.48	0.0	1921680	REC_WORD_VV	0.0	n/a	<>	-999	14	[0, 0, 0]	n/a	FR1	0	R1313J
2257.48	0.65	1921680	RETRIEVAL_ORIENT_END	n/a	n/a	n/a	-999	14	[0, 0, 0]	n/a	FR1	0	R1313J
2258.13	2.2	1922330	REC_WORD	2.2	n/a	FOOD	9	14	[0, 0, 0]	n/a	FR1	0	R1313J
2260.33	3.564	1924530	REC_WORD	3.564	n/a	DOCK	6	14	[0, 0, 0]	n/a	FR1	0	R1313J
2263.894	24.098	1928094	REC_WORD_VV	24.098	n/a	<>	-999	14	[0, 0, 0]	n/a	FR1	0	R1313J
2287.992	0.0	1952191	WAITING_START	n/a	n/a	n/a	-999	15	[0, 0, 0]	n/a	FR1	0	R1313J
2287.992	0.0	1952191	TRIAL	n/a	n/a	n/a	-999	15	[0, 0, 0]	n/a	FR1	0	R1313J
2287.992	0.0	1952191	TRIAL_END	n/a	n/a	n/a	-999	14	[0, 0, 0]	n/a	FR1	0	R1313J
2287.992	0.0	1952191	TRIAL_START	n/a	n/a	n/a	-999	15	[0, 0, 0]	n/a	FR1	0	R1313J
2287.992	1.776	1952191	REC_END	n/a	n/a	n/a	-999	14	[0, 0, 0]	n/a	FR1	0	R1313J
2289.768	0.0	1953967	WAITING_END	n/a	n/a	n/a	-999	15	[0, 0, 0]	n/a	FR1	0	R1313J
2289.768	0.0	1953967	COUNTDOWN_START	n/a	n/a	n/a	-999	15	[0, 0, 0]	n/a	FR1	0	R1313J
2289.768	0.0	1953967	COUNTDOWN_END	n/a	n/a	n/a	-999	15	[0, 0, 0]	n/a	FR1	0	R1313J
2289.768	11.652	1953967	ORIENT_START	n/a	n/a	n/a	-999	15	[0, 0, 0]	n/a	FR1	0	R1313J
2301.42	0.0	1965618	ORIENT_END	n/a	n/a	n/a	-999	15	[0, 0, 0]	n/a	FR1	0	R1313J
2301.42	1.122	1965618	ENCODING_START	n/a	n/a	n/a	-999	15	[0, 0, 0]	n/a	FR1	0	R1313J
2302.542	1.628	1966740	WORD	n/a	n/a	HAND	1	15	[0, 0, 0]	n/a	FR1	0	R1313J
2304.17	1.034	1968368	WORD_OFF	n/a	n/a	HAND	1	15	[0, 0, 0]	n/a	FR1	0	R1313J
2305.204	1.634	1969402	WORD	n/a	n/a	CLOTH	2	15	[0, 0, 0]	n/a	FR1	0	R1313J
2306.838	0.858	1971036	WORD_OFF	n/a	n/a	CLOTH	2	15	[0, 0, 0]	n/a	FR1	0	R1313J
2307.696	1.625	1971894	WORD	n/a	n/a	HOOF	3	15	[0, 0, 0]	n/a	FR1	0	R1313J
2309.321	0.913	1973519	WORD_OFF	n/a	n/a	HOOF	3	15	[0, 0, 0]	n/a	FR1	0	R1313J
2310.234	1.621	1974432	WORD	n/a	n/a	PRINCE	4	15	[0, 0, 0]	n/a	FR1	0	R1313J
2311.855	1.039	1976053	WORD_OFF	n/a	n/a	PRINCE	4	15	[0, 0, 0]	n/a	FR1	0	R1313J
2312.894	1.629	1977092	WORD	n/a	n/a	AXE	5	15	[0, 0, 0]	n/a	FR1	0	R1313J
2314.523	0.883	1978721	WORD_OFF	n/a	n/a	AXE	5	15	[0, 0, 0]	n/a	FR1	0	R1313J
2315.406	1.633	1979604	WORD	n/a	n/a	BOWL	6	15	[0, 0, 0]	n/a	FR1	0	R1313J
2317.039	0.828	1981236	WORD_OFF	n/a	n/a	BOWL	6	15	[0, 0, 0]	n/a	FR1	0	R1313J
2317.867	1.623	1982064	WORD	n/a	n/a	SHRIMP	7	15	[0, 0, 0]	n/a	FR1	0	R1313J
2319.49	0.83	1983687	WORD_OFF	n/a	n/a	SHRIMP	7	15	[0, 0, 0]	n/a	FR1	0	R1313J
2320.32	1.637	1984517	WORD	n/a	n/a	FLUTE	8	15	[0, 0, 0]	n/a	FR1	0	R1313J
2321.957	0.88	1986154	WORD_OFF	n/a	n/a	FLUTE	8	15	[0, 0, 0]	n/a	FR1	0	R1313J
2322.837	1.637	1987034	WORD	n/a	n/a	FUDGE	9	15	[0, 0, 0]	n/a	FR1	0	R1313J
2324.474	0.853	1988671	WORD_OFF	n/a	n/a	FUDGE	9	15	[0, 0, 0]	n/a	FR1	0	R1313J
2325.327	1.631	1989524	WORD	n/a	n/a	STORM	10	15	[0, 0, 0]	n/a	FR1	0	R1313J
2326.958	0.983	1991155	WORD_OFF	n/a	n/a	STORM	10	15	[0, 0, 0]	n/a	FR1	0	R1313J
2327.941	1.634	1992138	WORD	n/a	n/a	MOTH	11	15	[0, 0, 0]	n/a	FR1	0	R1313J
2329.575	1.023	1993772	WORD_OFF	n/a	n/a	MOTH	11	15	[0, 0, 0]	n/a	FR1	0	R1313J
2330.598	1.627	1994795	WORD	n/a	n/a	STICK	12	15	[0, 0, 0]	n/a	FR1	0	R1313J
2332.225	0.0	1996422	DISTRACT_START	n/a	n/a	n/a	-999	15	[0, 0, 0]	n/a	FR1	0	R1313J
2332.225	0.0	1996422	ENCODING_END	n/a	n/a	n/a	-999	15	[0, 0, 0]	n/a	FR1	0	R1313J
2332.225	0.001	1996422	WORD_OFF	n/a	n/a	STICK	12	15	[0, 0, 0]	n/a	FR1	0	R1313J
2332.226	0.015	1996423	START	n/a	n/a	n/a	-999	15	[-999, -999, -999]	n/a	FR1	0	R1313J
2332.241	4.134	1996438	PROB	4.134	n/a	n/a	-999	15	[5, 5, 3]	13	FR1	0	R1313J
2336.375	5.768	2000572	PROB	5.768	n/a	n/a	-999	15	[6, 7, 4]	17	FR1	0	R1313J
2342.143	3.917	2006339	PROB	3.917	n/a	n/a	-999	15	[3, 2, 7]	12	FR1	0	R1313J
2346.06	5.802	2010256	PROB	5.802	n/a	n/a	-999	15	[5, 4, 7]	16	FR1	0	R1313J
2351.862	4.131	2016058	PROB	4.131	n/a	n/a	-999	15	[4, 2, 9]	15	FR1	0	R1313J
2355.993	0.019	2020189	STOP	n/a	n/a	n/a	-999	15	[-999, -999, -999]	n/a	FR1	0	R1313J
2356.012	1.186	2020208	DISTRACT_END	n/a	n/a	n/a	-999	15	[0, 0, 0]	n/a	FR1	0	R1313J
2357.198	1.031	2021394	RETRIEVAL_ORIENT_START	n/a	n/a	n/a	-999	15	[0, 0, 0]	n/a	FR1	0	R1313J
2358.229	0.0	2022425	RETRIEVAL_ORIENT_END	n/a	n/a	n/a	-999	15	[0, 0, 0]	n/a	FR1	0	R1313J
2358.229	0.275	2022425	REC_START	n/a	n/a	n/a	-999	15	[0, 0, 0]	n/a	FR1	0	R1313J
2358.504	1.13	2022700	REC_WORD_VV	1.13	n/a	<>	-999	15	[0, 0, 0]	n/a	FR1	0	R1313J
2359.634	14.815	2023830	REC_WORD_VV	14.815	n/a	<>	-999	15	[0, 0, 0]	n/a	FR1	0	R1313J
2374.449	1.0	2038644	REC_WORD_VV	1.0	n/a	<>	-999	15	[0, 0, 0]	n/a	FR1	0	R1313J
2375.449	7.035	2039644	REC_WORD_VV	7.035	n/a	<>	-999	15	[0, 0, 0]	n/a	FR1	0	R1313J
2382.484	1.879	2046679	REC_WORD_VV	1.879	n/a	<>	-999	15	[0, 0, 0]	n/a	FR1	0	R1313J
2384.363	4.377	2048558	REC_WORD_VV	4.377	n/a	<>	-999	15	[0, 0, 0]	n/a	FR1	0	R1313J
2388.74	0.0	2052935	REC_END	n/a	n/a	n/a	-999	15	[0, 0, 0]	n/a	FR1	0	R1313J
2388.74	0.0	2052935	TRIAL_END	n/a	n/a	n/a	-999	15	[0, 0, 0]	n/a	FR1	0	R1313J
2388.74	0.0	2052935	TRIAL_START	n/a	n/a	n/a	-999	16	[0, 0, 0]	n/a	FR1	0	R1313J
2388.74	0.0	2052935	TRIAL	n/a	n/a	n/a	-999	16	[0, 0, 0]	n/a	FR1	0	R1313J
2388.74	30.95	2052935	WAITING_START	n/a	n/a	n/a	-999	16	[0, 0, 0]	n/a	FR1	0	R1313J
2419.69	0.0	2083883	ORIENT_START	n/a	n/a	n/a	-999	16	[0, 0, 0]	n/a	FR1	0	R1313J
2419.69	0.0	2083883	COUNTDOWN_END	n/a	n/a	n/a	-999	16	[0, 0, 0]	n/a	FR1	0	R1313J
2419.69	0.0	2083883	COUNTDOWN_START	n/a	n/a	n/a	-999	16	[0, 0, 0]	n/a	FR1	0	R1313J
2419.69	11.551	2083883	WAITING_END	n/a	n/a	n/a	-999	16	[0, 0, 0]	n/a	FR1	0	R1313J
2431.241	0.0	2095434	ORIENT_END	n/a	n/a	n/a	-999	16	[0, 0, 0]	n/a	FR1	0	R1313J
2431.241	0.751	2095434	ENCODING_START	n/a	n/a	n/a	-999	16	[0, 0, 0]	n/a	FR1	0	R1313J
2431.992	1.617	2096185	WORD	n/a	n/a	STRING	1	16	[0, 0, 0]	n/a	FR1	0	R1313J
2433.609	0.886	2097802	WORD_OFF	n/a	n/a	STRING	1	16	[0, 0, 0]	n/a	FR1	0	R1313J
2434.495	1.631	2098688	WORD	n/a	n/a	GUARD	2	16	[0, 0, 0]	n/a	FR1	0	R1313J
2436.126	1.138	2100319	WORD_OFF	n/a	n/a	GUARD	2	16	[0, 0, 0]	n/a	FR1	0	R1313J
2437.264	1.63	2101457	WORD	n/a	n/a	WHALE	3	16	[0, 0, 0]	n/a	FR1	0	R1313J
2438.894	0.928	2103086	WORD_OFF	n/a	n/a	WHALE	3	16	[0, 0, 0]	n/a	FR1	0	R1313J
2439.822	1.639	2104014	WORD	n/a	n/a	BAND	4	16	[0, 0, 0]	n/a	FR1	0	R1313J
2441.461	0.879	2105653	WORD_OFF	n/a	n/a	BAND	4	16	[0, 0, 0]	n/a	FR1	0	R1313J
2442.34	1.621	2106532	WORD	n/a	n/a	MUG	5	16	[0, 0, 0]	n/a	FR1	0	R1313J
2443.961	1.137	2108153	WORD_OFF	n/a	n/a	MUG	5	16	[0, 0, 0]	n/a	FR1	0	R1313J
2445.098	1.614	2109290	WORD	n/a	n/a	DRESS	6	16	[0, 0, 0]	n/a	FR1	0	R1313J
2446.712	0.961	2110904	WORD_OFF	n/a	n/a	DRESS	6	16	[0, 0, 0]	n/a	FR1	0	R1313J
2447.673	1.621	2111865	WORD	n/a	n/a	FOAM	7	16	[0, 0, 0]	n/a	FR1	0	R1313J
2449.294	1.079	2113486	WORD_OFF	n/a	n/a	FOAM	7	16	[0, 0, 0]	n/a	FR1	0	R1313J
2450.373	1.623	2114565	WORD	n/a	n/a	LAKE	8	16	[0, 0, 0]	n/a	FR1	0	R1313J
2451.996	1.06	2116188	WORD_OFF	n/a	n/a	LAKE	8	16	[0, 0, 0]	n/a	FR1	0	R1313J
2453.056	1.624	2117248	WORD	n/a	n/a	BADGE	9	16	[0, 0, 0]	n/a	FR1	0	R1313J
2454.68	0.982	2118872	WORD_OFF	n/a	n/a	BADGE	9	16	[0, 0, 0]	n/a	FR1	0	R1313J
2455.662	1.634	2119854	WORD	n/a	n/a	CUP	10	16	[0, 0, 0]	n/a	FR1	0	R1313J
2457.296	0.967	2121488	WORD_OFF	n/a	n/a	CUP	10	16	[0, 0, 0]	n/a	FR1	0	R1313J
2458.263	1.634	2122455	WORD	n/a	n/a	SIGN	11	16	[0, 0, 0]	n/a	FR1	0	R1313J
2459.897	1.064	2124089	WORD_OFF	n/a	n/a	SIGN	11	16	[0, 0, 0]	n/a	FR1	0	R1313J
2460.961	1.62	2125153	WORD	n/a	n/a	APE	12	16	[0, 0, 0]	n/a	FR1	0	R1313J
2462.581	0.0	2126772	WORD_OFF	n/a	n/a	APE	12	16	[0, 0, 0]	n/a	FR1	0	R1313J
2462.581	0.0	2126772	ENCODING_END	n/a	n/a	n/a	-999	16	[0, 0, 0]	n/a	FR1	0	R1313J
2462.581	0.001	2126772	DISTRACT_START	n/a	n/a	n/a	-999	16	[0, 0, 0]	n/a	FR1	0	R1313J
2462.582	0.016	2126773	START	n/a	n/a	n/a	-999	16	[-999, -999, -999]	n/a	FR1	0	R1313J
2462.598	6.367	2126789	PROB	6.367	n/a	n/a	-999	16	[4, 5, 2]	11	FR1	0	R1313J
2468.965	4.601	2133156	PROB	4.601	n/a	n/a	-999	16	[8, 5, 8]	21	FR1	0	R1313J
2473.566	2.766	2137757	PROB	2.766	n/a	n/a	-999	16	[5, 5, 3]	13	FR1	0	R1313J
2476.332	6.276	2140523	PROB	6.276	n/a	n/a	-999	16	[4, 7, 5]	16	FR1	0	R1313J
2482.608	0.01	2146799	STOP	n/a	n/a	n/a	-999	16	[-999, -999, -999]	n/a	FR1	0	R1313J
2482.618	1.318	2146809	DISTRACT_END	n/a	n/a	n/a	-999	16	[0, 0, 0]	n/a	FR1	0	R1313J
2483.936	1.032	2148127	RETRIEVAL_ORIENT_START	n/a	n/a	n/a	-999	16	[0, 0, 0]	n/a	FR1	0	R1313J
2484.968	0.0	2149159	RETRIEVAL_ORIENT_END	n/a	n/a	n/a	-999	16	[0, 0, 0]	n/a	FR1	0	R1313J
2484.968	0.0	2149159	REC_START	n/a	n/a	n/a	-999	16	[0, 0, 0]	n/a	FR1	0	R1313J
2484.968	1.03	2149159	REC_WORD	1.03	n/a	MUG	5	16	[0, 0, 0]	n/a	FR1	0	R1313J
2485.998	4.21	2150189	REC_WORD	4.21	n/a	WHALE	3	16	[0, 0, 0]	n/a	FR1	0	R1313J
2490.208	25.273	2154398	REC_WORD_VV	25.273	n/a	<>	-999	16	[0, 0, 0]	n/a	FR1	0	R1313J
2515.481	0.0	2179670	WAITING_START	n/a	n/a	n/a	-999	17	[0, 0, 0]	n/a	FR1	0	R1313J
2515.481	0.0	2179670	TRIAL	n/a	n/a	n/a	-999	17	[0, 0, 0]	n/a	FR1	0	R1313J
2515.481	0.0	2179670	REC_END	n/a	n/a	n/a	-999	16	[0, 0, 0]	n/a	FR1	0	R1313J
2515.481	0.0	2179670	TRIAL_END	n/a	n/a	n/a	-999	16	[0, 0, 0]	n/a	FR1	0	R1313J
2515.481	2.359	2179670	TRIAL_START	n/a	n/a	n/a	-999	17	[0, 0, 0]	n/a	FR1	0	R1313J
2517.84	0.0	2182029	WAITING_END	n/a	n/a	n/a	-999	17	[0, 0, 0]	n/a	FR1	0	R1313J
2517.84	0.0	2182029	COUNTDOWN_START	n/a	n/a	n/a	-999	17	[0, 0, 0]	n/a	FR1	0	R1313J
2517.84	0.0	2182029	COUNTDOWN_END	n/a	n/a	n/a	-999	17	[0, 0, 0]	n/a	FR1	0	R1313J
2517.84	11.652	2182029	ORIENT_START	n/a	n/a	n/a	-999	17	[0, 0, 0]	n/a	FR1	0	R1313J
2529.492	0.0	2193681	ORIENT_END	n/a	n/a	n/a	-999	17	[0, 0, 0]	n/a	FR1	0	R1313J
2529.492	1.091	2193681	ENCODING_START	n/a	n/a	n/a	-999	17	[0, 0, 0]	n/a	FR1	0	R1313J
2530.583	1.625	2194772	WORD	n/a	n/a	BOARD	1	17	[0, 0, 0]	n/a	FR1	0	R1313J
2532.208	0.983	2196397	WORD_OFF	n/a	n/a	BOARD	1	17	[0, 0, 0]	n/a	FR1	0	R1313J
2533.191	1.636	2197380	WORD	n/a	n/a	WAND	2	17	[0, 0, 0]	n/a	FR1	0	R1313J
2534.827	0.914	2199016	WORD_OFF	n/a	n/a	WAND	2	17	[0, 0, 0]	n/a	FR1	0	R1313J
2535.741	1.635	2199929	WORD	n/a	n/a	BARN	3	17	[0, 0, 0]	n/a	FR1	0	R1313J
2537.376	1.126	2201564	WORD_OFF	n/a	n/a	BARN	3	17	[0, 0, 0]	n/a	FR1	0	R1313J
2538.502	1.624	2202690	WORD	n/a	n/a	BOOT	4	17	[0, 0, 0]	n/a	FR1	0	R1313J
2540.126	0.984	2204314	WORD_OFF	n/a	n/a	BOOT	4	17	[0, 0, 0]	n/a	FR1	0	R1313J
2541.11	1.635	2205298	WORD	n/a	n/a	ZOO	5	17	[0, 0, 0]	n/a	FR1	0	R1313J
2542.745	0.781	2206933	WORD_OFF	n/a	n/a	ZOO	5	17	[0, 0, 0]	n/a	FR1	0	R1313J
2543.526	1.635	2207714	WORD	n/a	n/a	PIPE	6	17	[0, 0, 0]	n/a	FR1	0	R1313J
2545.161	0.821	2209349	WORD_OFF	n/a	n/a	PIPE	6	17	[0, 0, 0]	n/a	FR1	0	R1313J
2545.982	1.63	2210170	WORD	n/a	n/a	CAR	7	17	[0, 0, 0]	n/a	FR1	0	R1313J
2547.612	0.891	2211800	WORD_OFF	n/a	n/a	CAR	7	17	[0, 0, 0]	n/a	FR1	0	R1313J
2548.503	1.625	2212691	WORD	n/a	n/a	FAN	8	17	[0, 0, 0]	n/a	FR1	0	R1313J
2550.128	1.009	2214316	WORD_OFF	n/a	n/a	FAN	8	17	[0, 0, 0]	n/a	FR1	0	R1313J
2551.137	1.626	2215325	WORD	n/a	n/a	BEAN	9	17	[0, 0, 0]	n/a	FR1	0	R1313J
2552.763	1.096	2216951	WORD_OFF	n/a	n/a	BEAN	9	17	[0, 0, 0]	n/a	FR1	0	R1313J
2553.859	1.638	2218047	WORD	n/a	n/a	CHIN	10	17	[0, 0, 0]	n/a	FR1	0	R1313J
2555.497	0.94	2219685	WORD_OFF	n/a	n/a	CHIN	10	17	[0, 0, 0]	n/a	FR1	0	R1313J
2556.437	1.626	2220625	WORD	n/a	n/a	FACE	11	17	[0, 0, 0]	n/a	FR1	0	R1313J
2558.063	0.81	2222251	WORD_OFF	n/a	n/a	FACE	11	17	[0, 0, 0]	n/a	FR1	0	R1313J
2558.873	1.625	2223061	WORD	n/a	n/a	CHIEF	12	17	[0, 0, 0]	n/a	FR1	0	R1313J
2560.498	0.0	2224685	DISTRACT_START	n/a	n/a	n/a	-999	17	[0, 0, 0]	n/a	FR1	0	R1313J
2560.498	0.0	2224685	WORD_OFF	n/a	n/a	CHIEF	12	17	[0, 0, 0]	n/a	FR1	0	R1313J
2560.498	0.001	2224685	ENCODING_END	n/a	n/a	n/a	-999	17	[0, 0, 0]	n/a	FR1	0	R1313J
2560.499	0.015	2224686	START	n/a	n/a	n/a	-999	17	[-999, -999, -999]	n/a	FR1	0	R1313J
2560.514	6.085	2224701	PROB	6.085	n/a	n/a	-999	17	[7, 3, 1]	11	FR1	0	R1313J
2566.599	5.35	2230786	PROB	5.35	n/a	n/a	-999	17	[9, 8, 7]	24	FR1	0	R1313J
2571.949	7.568	2236136	PROB	7.568	n/a	n/a	-999	17	[2, 7, 8]	17	FR1	0	R1313J
2579.517	4.89	2243704	PROB	4.89	n/a	n/a	-999	17	[2, 5, 4]	11	FR1	0	R1313J
2584.407	0.011	2248593	STOP	n/a	n/a	n/a	-999	17	[-999, -999, -999]	n/a	FR1	0	R1313J
2584.418	1.061	2248604	DISTRACT_END	n/a	n/a	n/a	-999	17	[0, 0, 0]	n/a	FR1	0	R1313J
2585.479	1.023	2249665	RETRIEVAL_ORIENT_START	n/a	n/a	n/a	-999	17	[0, 0, 0]	n/a	FR1	0	R1313J
2586.502	0.0	2250688	RETRIEVAL_ORIENT_END	n/a	n/a	n/a	-999	17	[0, 0, 0]	n/a	FR1	0	R1313J
2586.502	3.08	2250688	REC_START	n/a	n/a	n/a	-999	17	[0, 0, 0]	n/a	FR1	0	R1313J
2589.582	1.0	2253768	REC_WORD_VV	1.0	n/a	<>	-999	17	[0, 0, 0]	n/a	FR1	0	R1313J
2590.582	21.178	2254768	REC_WORD_VV	21.178	n/a	<>	-999	17	[0, 0, 0]	n/a	FR1	0	R1313J
2611.76	5.254	2275945	REC_WORD_VV	5.254	n/a	<>	-999	17	[0, 0, 0]	n/a	FR1	0	R1313J
2617.014	0.0	2281199	REC_END	n/a	n/a	n/a	-999	17	[0, 0, 0]	n/a	FR1	0	R1313J
2617.014	0.0	2281199	TRIAL_END	n/a	n/a	n/a	-999	17	[0, 0, 0]	n/a	FR1	0	R1313J
2617.014	0.0	2281199	TRIAL_START	n/a	n/a	n/a	-999	18	[0, 0, 0]	n/a	FR1	0	R1313J
2617.014	0.0	2281199	TRIAL	n/a	n/a	n/a	-999	18	[0, 0, 0]	n/a	FR1	0	R1313J
2617.014	72.121	2281199	WAITING_START	n/a	n/a	n/a	-999	18	[0, 0, 0]	n/a	FR1	0	R1313J
2689.135	0.0	2353317	WAITING_END	n/a	n/a	n/a	-999	18	[0, 0, 0]	n/a	FR1	0	R1313J
2689.135	0.0	2353317	COUNTDOWN_START	n/a	n/a	n/a	-999	18	[0, 0, 0]	n/a	FR1	0	R1313J
2689.135	0.0	2353317	COUNTDOWN_END	n/a	n/a	n/a	-999	18	[0, 0, 0]	n/a	FR1	0	R1313J
2689.135	11.503	2353317	ORIENT_START	n/a	n/a	n/a	-999	18	[0, 0, 0]	n/a	FR1	0	R1313J
2700.638	0.0	2364820	ENCODING_START	n/a	n/a	n/a	-999	18	[0, 0, 0]	n/a	FR1	0	R1313J
2700.638	0.828	2364820	ORIENT_END	n/a	n/a	n/a	-999	18	[0, 0, 0]	n/a	FR1	0	R1313J
2701.466	1.621	2365648	WORD	n/a	n/a	OAR	1	18	[0, 0, 0]	n/a	FR1	0	R1313J
2703.087	1.001	2367269	WORD_OFF	n/a	n/a	OAR	1	18	[0, 0, 0]	n/a	FR1	0	R1313J
2704.088	1.634	2368270	WORD	n/a	n/a	FRUIT	2	18	[0, 0, 0]	n/a	FR1	0	R1313J
2705.722	0.889	2369903	WORD_OFF	n/a	n/a	FRUIT	2	18	[0, 0, 0]	n/a	FR1	0	R1313J
2706.611	1.627	2370792	WORD	n/a	n/a	CLOWN	3	18	[0, 0, 0]	n/a	FR1	0	R1313J
2708.238	0.753	2372419	WORD_OFF	n/a	n/a	CLOWN	3	18	[0, 0, 0]	n/a	FR1	0	R1313J
2708.991	1.632	2373172	WORD	n/a	n/a	FOOT	4	18	[0, 0, 0]	n/a	FR1	0	R1313J
2710.623	0.99	2374804	WORD_OFF	n/a	n/a	FOOT	4	18	[0, 0, 0]	n/a	FR1	0	R1313J
2711.613	1.626	2375794	WORD	n/a	n/a	RICE	5	18	[0, 0, 0]	n/a	FR1	0	R1313J
2713.239	1.078	2377420	WORD_OFF	n/a	n/a	RICE	5	18	[0, 0, 0]	n/a	FR1	0	R1313J
2714.317	1.623	2378498	WORD	n/a	n/a	BED	6	18	[0, 0, 0]	n/a	FR1	0	R1313J
2715.94	0.832	2380121	WORD_OFF	n/a	n/a	BED	6	18	[0, 0, 0]	n/a	FR1	0	R1313J
2716.772	1.636	2380953	WORD	n/a	n/a	BEACH	7	18	[0, 0, 0]	n/a	FR1	0	R1313J
2718.408	0.758	2382589	WORD_OFF	n/a	n/a	BEACH	7	18	[0, 0, 0]	n/a	FR1	0	R1313J
2719.166	1.609	2383347	WORD	n/a	n/a	PEN	8	18	[0, 0, 0]	n/a	FR1	0	R1313J
2720.775	1.126	2384956	WORD_OFF	n/a	n/a	PEN	8	18	[0, 0, 0]	n/a	FR1	0	R1313J
2721.901	1.624	2386082	WORD	n/a	n/a	SKUNK	9	18	[0, 0, 0]	n/a	FR1	0	R1313J
2723.525	0.941	2387706	WORD_OFF	n/a	n/a	SKUNK	9	18	[0, 0, 0]	n/a	FR1	0	R1313J
2724.466	1.625	2388647	WORD	n/a	n/a	SALT	10	18	[0, 0, 0]	n/a	FR1	0	R1313J
2726.091	0.931	2390272	WORD_OFF	n/a	n/a	SALT	10	18	[0, 0, 0]	n/a	FR1	0	R1313J
2727.022	1.62	2391203	WORD	n/a	n/a	MAP	11	18	[0, 0, 0]	n/a	FR1	0	R1313J
2728.642	0.825	2392823	WORD_OFF	n/a	n/a	MAP	11	18	[0, 0, 0]	n/a	FR1	0	R1313J
2729.467	1.625	2393648	WORD	n/a	n/a	CHEEK	12	18	[0, 0, 0]	n/a	FR1	0	R1313J
2731.092	0.0	2395272	WORD_OFF	n/a	n/a	CHEEK	12	18	[0, 0, 0]	n/a	FR1	0	R1313J
2731.092	0.0	2395272	ENCODING_END	n/a	n/a	n/a	-999	18	[0, 0, 0]	n/a	FR1	0	R1313J
2731.092	0.001	2395272	DISTRACT_START	n/a	n/a	n/a	-999	18	[0, 0, 0]	n/a	FR1	0	R1313J
2731.093	0.016	2395273	START	n/a	n/a	n/a	-999	18	[-999, -999, -999]	n/a	FR1	0	R1313J
2731.109	6.051	2395289	PROB	6.051	n/a	n/a	-999	18	[2, 3, 5]	10	FR1	0	R1313J
2737.16	10.336	2401340	PROB	10.336	n/a	n/a	-999	18	[9, 5, 7]	21	FR1	0	R1313J
2747.496	8.662	2411676	PROB	8.662	n/a	n/a	-999	18	[8, 8, 9]	25	FR1	0	R1313J
2756.158	0.005	2420337	STOP	n/a	n/a	n/a	-999	18	[-999, -999, -999]	n/a	FR1	0	R1313J
2756.163	1.293	2420342	DISTRACT_END	n/a	n/a	n/a	-999	18	[0, 0, 0]	n/a	FR1	0	R1313J
2757.456	1.025	2421635	RETRIEVAL_ORIENT_START	n/a	n/a	n/a	-999	18	[0, 0, 0]	n/a	FR1	0	R1313J
2758.481	0.0	2422660	RETRIEVAL_ORIENT_END	n/a	n/a	n/a	-999	18	[0, 0, 0]	n/a	FR1	0	R1313J
2758.481	7.189	2422660	REC_START	n/a	n/a	n/a	-999	18	[0, 0, 0]	n/a	FR1	0	R1313J
2765.67	13.23	2429849	REC_WORD	13.23	n/a	PEN	8	18	[0, 0, 0]	n/a	FR1	0	R1313J
2778.9	4.995	2443078	REC_WORD_VV	4.995	n/a	<>	-999	18	[0, 0, 0]	n/a	FR1	0	R1313J
2783.895	5.098	2448073	REC_WORD	5.098	n/a	CLOWN	3	18	[0, 0, 0]	n/a	FR1	0	R1313J
2788.993	0.0	2453171	WAITING_START	n/a	n/a	n/a	-999	19	[0, 0, 0]	n/a	FR1	0	R1313J
2788.993	0.0	2453171	TRIAL	n/a	n/a	n/a	-999	19	[0, 0, 0]	n/a	FR1	0	R1313J
2788.993	0.0	2453171	TRIAL_END	n/a	n/a	n/a	-999	18	[0, 0, 0]	n/a	FR1	0	R1313J
2788.993	0.0	2453171	REC_END	n/a	n/a	n/a	-999	18	[0, 0, 0]	n/a	FR1	0	R1313J
2788.993	3.527	2453171	TRIAL_START	n/a	n/a	n/a	-999	19	[0, 0, 0]	n/a	FR1	0	R1313J
2792.52	0.0	2456698	WAITING_END	n/a	n/a	n/a	-999	19	[0, 0, 0]	n/a	FR1	0	R1313J
2792.52	0.0	2456698	COUNTDOWN_START	n/a	n/a	n/a	-999	19	[0, 0, 0]	n/a	FR1	0	R1313J
2792.52	0.0	2456698	COUNTDOWN_END	n/a	n/a	n/a	-999	19	[0, 0, 0]	n/a	FR1	0	R1313J
2792.52	11.601	2456698	ORIENT_START	n/a	n/a	n/a	-999	19	[0, 0, 0]	n/a	FR1	0	R1313J
2804.121	0.0	2468298	ORIENT_END	n/a	n/a	n/a	-999	19	[0, 0, 0]	n/a	FR1	0	R1313J
2804.121	1.13	2468298	ENCODING_START	n/a	n/a	n/a	-999	19	[0, 0, 0]	n/a	FR1	0	R1313J
2805.251	1.638	2469428	WORD	n/a	n/a	TENT	1	19	[0, 0, 0]	n/a	FR1	0	R1313J
2806.889	1.049	2471066	WORD_OFF	n/a	n/a	TENT	1	19	[0, 0, 0]	n/a	FR1	0	R1313J
2807.938	1.635	2472115	WORD	n/a	n/a	WORM	2	19	[0, 0, 0]	n/a	FR1	0	R1313J
2809.573	0.914	2473750	WORD_OFF	n/a	n/a	WORM	2	19	[0, 0, 0]	n/a	FR1	0	R1313J
2810.487	1.635	2474664	WORD	n/a	n/a	GLOVE	3	19	[0, 0, 0]	n/a	FR1	0	R1313J
2812.122	1.15	2476299	WORD_OFF	n/a	n/a	GLOVE	3	19	[0, 0, 0]	n/a	FR1	0	R1313J
2813.272	1.635	2477449	WORD	n/a	n/a	ROCK	4	19	[0, 0, 0]	n/a	FR1	0	R1313J
2814.907	0.8	2479084	WORD_OFF	n/a	n/a	ROCK	4	19	[0, 0, 0]	n/a	FR1	0	R1313J
2815.707	1.633	2479884	WORD	n/a	n/a	FLAME	5	19	[0, 0, 0]	n/a	FR1	0	R1313J
2817.34	0.899	2481517	WORD_OFF	n/a	n/a	FLAME	5	19	[0, 0, 0]	n/a	FR1	0	R1313J
2818.239	1.619	2482416	WORD	n/a	n/a	CLOUD	6	19	[0, 0, 0]	n/a	FR1	0	R1313J
2819.858	0.763	2484035	WORD_OFF	n/a	n/a	CLOUD	6	19	[0, 0, 0]	n/a	FR1	0	R1313J
2820.621	1.636	2484798	WORD	n/a	n/a	SLEEVE	7	19	[0, 0, 0]	n/a	FR1	0	R1313J
2822.257	0.901	2486434	WORD_OFF	n/a	n/a	SLEEVE	7	19	[0, 0, 0]	n/a	FR1	0	R1313J
2823.158	1.634	2487335	WORD	n/a	n/a	CAGE	8	19	[0, 0, 0]	n/a	FR1	0	R1313J
2824.792	1.005	2488969	WORD_OFF	n/a	n/a	CAGE	8	19	[0, 0, 0]	n/a	FR1	0	R1313J
2825.797	1.629	2489974	WORD	n/a	n/a	OWL	9	19	[0, 0, 0]	n/a	FR1	0	R1313J
2827.426	0.844	2491602	WORD_OFF	n/a	n/a	OWL	9	19	[0, 0, 0]	n/a	FR1	0	R1313J
2828.27	1.607	2492446	WORD	n/a	n/a	NEST	10	19	[0, 0, 0]	n/a	FR1	0	R1313J
2829.877	1.129	2494053	WORD_OFF	n/a	n/a	NEST	10	19	[0, 0, 0]	n/a	FR1	0	R1313J
2831.006	1.638	2495182	WORD	n/a	n/a	BROOM	11	19	[0, 0, 0]	n/a	FR1	0	R1313J
2832.644	0.838	2496820	WORD_OFF	n/a	n/a	BROOM	11	19	[0, 0, 0]	n/a	FR1	0	R1313J
2833.482	1.628	2497658	WORD	n/a	n/a	DUCK	12	19	[0, 0, 0]	n/a	FR1	0	R1313J
2835.11	0.0	2499286	WORD_OFF	n/a	n/a	DUCK	12	19	[0, 0, 0]	n/a	FR1	0	R1313J
2835.11	0.0	2499286	ENCODING_END	n/a	n/a	n/a	-999	19	[0, 0, 0]	n/a	FR1	0	R1313J
2835.11	0.001	2499286	DISTRACT_START	n/a	n/a	n/a	-999	19	[0, 0, 0]	n/a	FR1	0	R1313J
2835.111	0.015	2499287	START	n/a	n/a	n/a	-999	19	[-999, -999, -999]	n/a	FR1	0	R1313J
2835.126	3.134	2499302	PROB	3.134	n/a	n/a	-999	19	[2, 2, 8]	12	FR1	0	R1313J
2838.26	3.751	2502436	PROB	3.751	n/a	n/a	-999	19	[9, 8, 9]	24	FR1	0	R1313J
2842.011	4.084	2506187	PROB	4.084	n/a	n/a	-999	19	[7, 2, 1]	10	FR1	0	R1313J
2846.095	4.084	2510271	PROB	4.084	n/a	n/a	-999	19	[6, 1, 7]	14	FR1	0	R1313J
2850.179	2.468	2514355	PROB	2.468	n/a	n/a	-999	19	[1, 1, 5]	7	FR1	0	R1313J
2852.647	3.175	2516822	PROB	3.175	n/a	n/a	-999	19	[5, 2, 1]	8	FR1	0	R1313J
2855.822	0.009	2519997	STOP	n/a	n/a	n/a	-999	19	[-999, -999, -999]	n/a	FR1	0	R1313J
2855.831	1.222	2520006	DISTRACT_END	n/a	n/a	n/a	-999	19	[0, 0, 0]	n/a	FR1	0	R1313J
2857.053	1.027	2521228	RETRIEVAL_ORIENT_START	n/a	n/a	n/a	-999	19	[0, 0, 0]	n/a	FR1	0	R1313J
2858.08	0.0	2522255	REC_START	n/a	n/a	n/a	-999	19	[0, 0, 0]	n/a	FR1	0	R1313J
2858.08	0.295	2522255	RETRIEVAL_ORIENT_END	n/a	n/a	n/a	-999	19	[0, 0, 0]	n/a	FR1	0	R1313J
2858.375	1.33	2522550	REC_WORD	1.33	n/a	CAGE	8	19	[0, 0, 0]	n/a	FR1	0	R1313J
2859.705	4.12	2523880	REC_WORD	4.12	n/a	OWL	9	19	[0, 0, 0]	n/a	FR1	0	R1313J
2863.825	16.3	2528000	REC_WORD_VV	16.3	n/a	<>	-999	19	[0, 0, 0]	n/a	FR1	0	R1313J
2880.125	8.467	2544299	REC_WORD_VV	8.467	n/a	<>	-999	19	[0, 0, 0]	n/a	FR1	0	R1313J
2888.592	0.0	2552766	REC_END	n/a	n/a	n/a	-999	19	[0, 0, 0]	n/a	FR1	0	R1313J
2888.592	0.0	2552766	TRIAL_END	n/a	n/a	n/a	-999	19	[0, 0, 0]	n/a	FR1	0	R1313J
2888.592	0.0	2552766	TRIAL_START	n/a	n/a	n/a	-999	20	[0, 0, 0]	n/a	FR1	0	R1313J
2888.592	0.0	2552766	TRIAL	n/a	n/a	n/a	-999	20	[0, 0, 0]	n/a	FR1	0	R1313J
2888.592	48.601	2552766	WAITING_START	n/a	n/a	n/a	-999	20	[0, 0, 0]	n/a	FR1	0	R1313J
2937.193	0.0	2601365	WAITING_END	n/a	n/a	n/a	-999	20	[0, 0, 0]	n/a	FR1	0	R1313J
2937.193	0.0	2601365	COUNTDOWN_START	n/a	n/a	n/a	-999	20	[0, 0, 0]	n/a	FR1	0	R1313J
2937.193	0.0	2601365	COUNTDOWN_END	n/a	n/a	n/a	-999	20	[0, 0, 0]	n/a	FR1	0	R1313J
2937.193	11.637	2601365	ORIENT_START	n/a	n/a	n/a	-999	20	[0, 0, 0]	n/a	FR1	0	R1313J
2948.83	0.0	2613001	ORIENT_END	n/a	n/a	n/a	-999	20	[0, 0, 0]	n/a	FR1	0	R1313J
2948.83	1.094	2613001	ENCODING_START	n/a	n/a	n/a	-999	20	[0, 0, 0]	n/a	FR1	0	R1313J
2949.924	1.623	2614095	WORD	n/a	n/a	JUICE	1	20	[0, 0, 0]	n/a	FR1	0	R1313J
2951.547	0.852	2615718	WORD_OFF	n/a	n/a	JUICE	1	20	[0, 0, 0]	n/a	FR1	0	R1313J
2952.399	1.631	2616570	WORD	n/a	n/a	PHONE	2	20	[0, 0, 0]	n/a	FR1	0	R1313J
2954.03	1.031	2618201	WORD_OFF	n/a	n/a	PHONE	2	20	[0, 0, 0]	n/a	FR1	0	R1313J
2955.061	1.637	2619232	WORD	n/a	n/a	SAIL	3	20	[0, 0, 0]	n/a	FR1	0	R1313J
2956.698	0.944	2620869	WORD_OFF	n/a	n/a	SAIL	3	20	[0, 0, 0]	n/a	FR1	0	R1313J
2957.642	1.622	2621813	WORD	n/a	n/a	STAR	4	20	[0, 0, 0]	n/a	FR1	0	R1313J
2959.264	1.089	2623435	WORD_OFF	n/a	n/a	STAR	4	20	[0, 0, 0]	n/a	FR1	0	R1313J
2960.353	1.612	2624524	WORD	n/a	n/a	SWORD	5	20	[0, 0, 0]	n/a	FR1	0	R1313J
2961.965	1.129	2626136	WORD_OFF	n/a	n/a	SWORD	5	20	[0, 0, 0]	n/a	FR1	0	R1313J
2963.094	1.621	2627265	WORD	n/a	n/a	HOSE	6	20	[0, 0, 0]	n/a	FR1	0	R1313J
2964.715	1.014	2628886	WORD_OFF	n/a	n/a	HOSE	6	20	[0, 0, 0]	n/a	FR1	0	R1313J
2965.729	1.636	2629900	WORD	n/a	n/a	PASTE	7	20	[0, 0, 0]	n/a	FR1	0	R1313J
2967.365	0.903	2631536	WORD_OFF	n/a	n/a	PASTE	7	20	[0, 0, 0]	n/a	FR1	0	R1313J
2968.268	1.632	2632439	WORD	n/a	n/a	CART	8	20	[0, 0, 0]	n/a	FR1	0	R1313J
2969.9	1.031	2634071	WORD_OFF	n/a	n/a	CART	8	20	[0, 0, 0]	n/a	FR1	0	R1313J
2970.931	1.636	2635102	WORD	n/a	n/a	BOOK	9	20	[0, 0, 0]	n/a	FR1	0	R1313J
2972.567	0.871	2636738	WORD_OFF	n/a	n/a	BOOK	9	20	[0, 0, 0]	n/a	FR1	0	R1313J
2973.438	1.629	2637608	WORD	n/a	n/a	WEED	10	20	[0, 0, 0]	n/a	FR1	0	R1313J
2975.067	0.795	2639237	WORD_OFF	n/a	n/a	WEED	10	20	[0, 0, 0]	n/a	FR1	0	R1313J
2975.862	1.623	2640032	WORD	n/a	n/a	SOUP	11	20	[0, 0, 0]	n/a	FR1	0	R1313J
2977.485	0.958	2641655	WORD_OFF	n/a	n/a	SOUP	11	20	[0, 0, 0]	n/a	FR1	0	R1313J
2978.443	1.624	2642613	WORD	n/a	n/a	STEM	12	20	[0, 0, 0]	n/a	FR1	0	R1313J
2980.067	0.0	2644237	WORD_OFF	n/a	n/a	STEM	12	20	[0, 0, 0]	n/a	FR1	0	R1313J
2980.067	0.0	2644237	ENCODING_END	n/a	n/a	n/a	-999	20	[0, 0, 0]	n/a	FR1	0	R1313J
2980.067	0.001	2644237	DISTRACT_START	n/a	n/a	n/a	-999	20	[0, 0, 0]	n/a	FR1	0	R1313J
2980.068	0.016	2644238	START	n/a	n/a	n/a	-999	20	[-999, -999, -999]	n/a	FR1	0	R1313J
2980.084	5.419	2644254	PROB	5.419	n/a	n/a	-999	20	[6, 1, 8]	15	FR1	0	R1313J
2985.503	2.832	2649673	PROB	2.832	n/a	n/a	-999	20	[3, 9, 1]	13	FR1	0	R1313J
2988.335	3.469	2652505	PROB	3.469	n/a	n/a	-999	20	[5, 2, 3]	10	FR1	0	R1313J
2991.804	4.316	2655974	PROB	4.316	n/a	n/a	-999	20	[3, 4, 3]	10	FR1	0	R1313J
2996.12	6.624	2660290	PROB	6.624	n/a	n/a	-999	20	[9, 3, 6]	18	FR1	0	R1313J
3002.744	0.012	2666913	STOP	n/a	n/a	n/a	-999	20	[-999, -999, -999]	n/a	FR1	0	R1313J
3002.756	1.249	2666925	DISTRACT_END	n/a	n/a	n/a	-999	20	[0, 0, 0]	n/a	FR1	0	R1313J
3004.005	1.033	2668174	RETRIEVAL_ORIENT_START	n/a	n/a	n/a	-999	20	[0, 0, 0]	n/a	FR1	0	R1313J
3005.038	0.0	2669207	RETRIEVAL_ORIENT_END	n/a	n/a	n/a	-999	20	[0, 0, 0]	n/a	FR1	0	R1313J
3005.038	0.295	2669207	REC_START	n/a	n/a	n/a	-999	20	[0, 0, 0]	n/a	FR1	0	R1313J
3005.333	1.215	2669502	REC_WORD	1.215	n/a	VAN	-999	20	[0, 0, 0]	n/a	FR1	0	R1313J
3006.548	29.003	2670717	REC_WORD	29.003	n/a	SAIL	3	20	[0, 0, 0]	n/a	FR1	0	R1313J
3035.551	0.0	2699719	REC_END	n/a	n/a	n/a	-999	20	[0, 0, 0]	n/a	FR1	0	R1313J
3035.551	0.0	2699719	TRIAL_END	n/a	n/a	n/a	-999	20	[0, 0, 0]	n/a	FR1	0	R1313J
3035.551	0.0	2699719	TRIAL_START	n/a	n/a	n/a	-999	21	[0, 0, 0]	n/a	FR1	0	R1313J
3035.551	0.0	2699719	TRIAL	n/a	n/a	n/a	-999	21	[0, 0, 0]	n/a	FR1	0	R1313J
3035.551	0.377	2699719	WAITING_START	n/a	n/a	n/a	-999	21	[0, 0, 0]	n/a	FR1	0	R1313J
3035.928	0.0	2700096	COUNTDOWN_END	n/a	n/a	n/a	-999	21	[0, 0, 0]	n/a	FR1	0	R1313J
3035.928	0.0	2700096	ORIENT_START	n/a	n/a	n/a	-999	21	[0, 0, 0]	n/a	FR1	0	R1313J
3035.928	0.0	2700096	WAITING_END	n/a	n/a	n/a	-999	21	[0, 0, 0]	n/a	FR1	0	R1313J
3035.928	11.602	2700096	COUNTDOWN_START	n/a	n/a	n/a	-999	21	[0, 0, 0]	n/a	FR1	0	R1313J
3047.53	0.0	2711697	ENCODING_START	n/a	n/a	n/a	-999	21	[0, 0, 0]	n/a	FR1	0	R1313J
3047.53	1.128	2711697	ORIENT_END	n/a	n/a	n/a	-999	21	[0, 0, 0]	n/a	FR1	0	R1313J
3048.658	1.638	2712825	WORD	n/a	n/a	STREET	1	21	[0, 0, 0]	n/a	FR1	0	R1313J
3050.296	0.849	2714463	WORD_OFF	n/a	n/a	STREET	1	21	[0, 0, 0]	n/a	FR1	0	R1313J
3051.145	1.636	2715312	WORD	n/a	n/a	EAR	2	21	[0, 0, 0]	n/a	FR1	0	R1313J
3052.781	0.925	2716948	WORD_OFF	n/a	n/a	EAR	2	21	[0, 0, 0]	n/a	FR1	0	R1313J
3053.706	1.624	2717873	WORD	n/a	n/a	GLASS	3	21	[0, 0, 0]	n/a	FR1	0	R1313J
3055.33	1.112	2719497	WORD_OFF	n/a	n/a	GLASS	3	21	[0, 0, 0]	n/a	FR1	0	R1313J
3056.442	1.622	2720609	WORD	n/a	n/a	JUDGE	4	21	[0, 0, 0]	n/a	FR1	0	R1313J
3058.064	0.754	2722231	WORD_OFF	n/a	n/a	JUDGE	4	21	[0, 0, 0]	n/a	FR1	0	R1313J
3058.818	1.63	2722985	WORD	n/a	n/a	STOVE	5	21	[0, 0, 0]	n/a	FR1	0	R1313J
3060.448	1.09	2724615	WORD_OFF	n/a	n/a	STOVE	5	21	[0, 0, 0]	n/a	FR1	0	R1313J
3061.538	1.627	2725705	WORD	n/a	n/a	TRUCK	6	21	[0, 0, 0]	n/a	FR1	0	R1313J
3063.165	1.085	2727332	WORD_OFF	n/a	n/a	TRUCK	6	21	[0, 0, 0]	n/a	FR1	0	R1313J
3064.25	1.616	2728417	WORD	n/a	n/a	BRUSH	7	21	[0, 0, 0]	n/a	FR1	0	R1313J
3065.866	1.035	2730033	WORD_OFF	n/a	n/a	BRUSH	7	21	[0, 0, 0]	n/a	FR1	0	R1313J
3066.901	1.632	2731068	WORD	n/a	n/a	BRANCH	8	21	[0, 0, 0]	n/a	FR1	0	R1313J
3068.533	0.853	2732700	WORD_OFF	n/a	n/a	BRANCH	8	21	[0, 0, 0]	n/a	FR1	0	R1313J
3069.386	1.63	2733553	WORD	n/a	n/a	CANE	9	21	[0, 0, 0]	n/a	FR1	0	R1313J
3071.016	0.789	2735182	WORD_OFF	n/a	n/a	CANE	9	21	[0, 0, 0]	n/a	FR1	0	R1313J
3071.805	1.629	2735971	WORD	n/a	n/a	CORD	10	21	[0, 0, 0]	n/a	FR1	0	R1313J
3073.434	0.855	2737600	WORD_OFF	n/a	n/a	CORD	10	21	[0, 0, 0]	n/a	FR1	0	R1313J
3074.289	1.629	2738455	WORD	n/a	n/a	PANTS	11	21	[0, 0, 0]	n/a	FR1	0	R1313J
3075.918	0.944	2740084	WORD_OFF	n/a	n/a	PANTS	11	21	[0, 0, 0]	n/a	FR1	0	R1313J
3076.862	1.623	2741028	WORD	n/a	n/a	SPRING	12	21	[0, 0, 0]	n/a	FR1	0	R1313J
3078.485	0.0	2742651	WORD_OFF	n/a	n/a	SPRING	12	21	[0, 0, 0]	n/a	FR1	0	R1313J
3078.485	0.0	2742651	ENCODING_END	n/a	n/a	n/a	-999	21	[0, 0, 0]	n/a	FR1	0	R1313J
3078.485	0.001	2742651	DISTRACT_START	n/a	n/a	n/a	-999	21	[0, 0, 0]	n/a	FR1	0	R1313J
3078.486	0.016	2742652	START	n/a	n/a	n/a	-999	21	[-999, -999, -999]	n/a	FR1	0	R1313J
3078.502	3.383	2742668	PROB	3.383	n/a	n/a	-999	21	[1, 2, 4]	7	FR1	0	R1313J
3081.885	2.951	2746051	PROB	2.951	n/a	n/a	-999	21	[2, 5, 2]	9	FR1	0	R1313J
3084.836	3.316	2749002	PROB	3.316	n/a	n/a	-999	21	[2, 4, 8]	14	FR1	0	R1313J
3088.152	3.752	2752318	PROB	3.752	n/a	n/a	-999	21	[5, 3, 4]	12	FR1	0	R1313J
3091.904	2.917	2756070	PROB	2.917	n/a	n/a	-999	21	[7, 2, 8]	17	FR1	0	R1313J
3094.821	3.634	2758986	PROB	3.634	n/a	n/a	-999	21	[2, 3, 8]	13	FR1	0	R1313J
3098.455	3.407	2762620	PROB	3.407	n/a	n/a	-999	21	[1, 7, 7]	15	FR1	0	R1313J
3101.862	0.01	2766027	STOP	n/a	n/a	n/a	-999	21	[-999, -999, -999]	n/a	FR1	0	R1313J
3101.872	1.304	2766037	DISTRACT_END	n/a	n/a	n/a	-999	21	[0, 0, 0]	n/a	FR1	0	R1313J
3103.176	1.029	2767341	RETRIEVAL_ORIENT_START	n/a	n/a	n/a	-999	21	[0, 0, 0]	n/a	FR1	0	R1313J
3104.205	0.0	2768370	RETRIEVAL_ORIENT_END	n/a	n/a	n/a	-999	21	[0, 0, 0]	n/a	FR1	0	R1313J
3104.205	0.0	2768370	REC_START	n/a	n/a	n/a	-999	21	[0, 0, 0]	n/a	FR1	0	R1313J
3104.205	4.949	2768370	REC_WORD	4.949	n/a	BRICK	-999	21	[0, 0, 0]	n/a	FR1	0	R1313J
3109.154	4.995	2773319	REC_WORD_VV	4.995	n/a	<>	-999	21	[0, 0, 0]	n/a	FR1	0	R1313J
3114.149	4.405	2778314	REC_WORD	4.405	n/a	CORD	10	21	[0, 0, 0]	n/a	FR1	0	R1313J
3118.554	4.375	2782719	REC_WORD	4.375	n/a	BRANCH	8	21	[0, 0, 0]	n/a	FR1	0	R1313J
3122.929	11.788	2787093	REC_WORD	11.788	n/a	CANE	9	21	[0, 0, 0]	n/a	FR1	0	R1313J
3134.717	0.0	2798881	WAITING_START	n/a	n/a	n/a	-999	22	[0, 0, 0]	n/a	FR1	0	R1313J
3134.717	0.0	2798881	TRIAL	n/a	n/a	n/a	-999	22	[0, 0, 0]	n/a	FR1	0	R1313J
3134.717	0.0	2798881	REC_END	n/a	n/a	n/a	-999	21	[0, 0, 0]	n/a	FR1	0	R1313J
3134.717	0.0	2798881	TRIAL_END	n/a	n/a	n/a	-999	21	[0, 0, 0]	n/a	FR1	0	R1313J
3134.717	2.178	2798881	TRIAL_START	n/a	n/a	n/a	-999	22	[0, 0, 0]	n/a	FR1	0	R1313J
3136.895	0.0	2801059	WAITING_END	n/a	n/a	n/a	-999	22	[0, 0, 0]	n/a	FR1	0	R1313J
3136.895	0.0	2801059	COUNTDOWN_START	n/a	n/a	n/a	-999	22	[0, 0, 0]	n/a	FR1	0	R1313J
3136.895	0.0	2801059	COUNTDOWN_END	n/a	n/a	n/a	-999	22	[0, 0, 0]	n/a	FR1	0	R1313J
3136.895	11.518	2801059	ORIENT_START	n/a	n/a	n/a	-999	22	[0, 0, 0]	n/a	FR1	0	R1313J
3148.413	0.0	2812576	ORIENT_END	n/a	n/a	n/a	-999	22	[0, 0, 0]	n/a	FR1	0	R1313J
3148.413	0.998	2812576	ENCODING_START	n/a	n/a	n/a	-999	22	[0, 0, 0]	n/a	FR1	0	R1313J
3149.411	1.635	2813574	WORD	n/a	n/a	TOAD	1	22	[0, 0, 0]	n/a	FR1	0	R1313J
3151.046	0.888	2815209	WORD_OFF	n/a	n/a	TOAD	1	22	[0, 0, 0]	n/a	FR1	0	R1313J
3151.934	1.63	2816097	WORD	n/a	n/a	PEARL	2	22	[0, 0, 0]	n/a	FR1	0	R1313J
3153.564	0.808	2817727	WORD_OFF	n/a	n/a	PEARL	2	22	[0, 0, 0]	n/a	FR1	0	R1313J
3154.372	1.626	2818535	WORD	n/a	n/a	RAIN	3	22	[0, 0, 0]	n/a	FR1	0	R1313J
3155.998	0.876	2820161	WORD_OFF	n/a	n/a	RAIN	3	22	[0, 0, 0]	n/a	FR1	0	R1313J
3156.874	1.625	2821037	WORD	n/a	n/a	HAWK	4	22	[0, 0, 0]	n/a	FR1	0	R1313J
3158.499	0.801	2822662	WORD_OFF	n/a	n/a	HAWK	4	22	[0, 0, 0]	n/a	FR1	0	R1313J
3159.3	1.615	2823463	WORD	n/a	n/a	WORLD	5	22	[0, 0, 0]	n/a	FR1	0	R1313J
3160.915	1.05	2825078	WORD_OFF	n/a	n/a	WORLD	5	22	[0, 0, 0]	n/a	FR1	0	R1313J
3161.965	1.634	2826128	WORD	n/a	n/a	ELF	6	22	[0, 0, 0]	n/a	FR1	0	R1313J
3163.599	0.837	2827762	WORD_OFF	n/a	n/a	ELF	6	22	[0, 0, 0]	n/a	FR1	0	R1313J
3164.436	1.629	2828599	WORD	n/a	n/a	DIME	7	22	[0, 0, 0]	n/a	FR1	0	R1313J
3166.065	1.121	2830228	WORD_OFF	n/a	n/a	DIME	7	22	[0, 0, 0]	n/a	FR1	0	R1313J
3167.186	1.631	2831349	WORD	n/a	n/a	CROWN	8	22	[0, 0, 0]	n/a	FR1	0	R1313J
3168.817	0.791	2832979	WORD_OFF	n/a	n/a	CROWN	8	22	[0, 0, 0]	n/a	FR1	0	R1313J
3169.608	1.625	2833770	WORD	n/a	n/a	POOL	9	22	[0, 0, 0]	n/a	FR1	0	R1313J
3171.233	0.992	2835395	WORD_OFF	n/a	n/a	POOL	9	22	[0, 0, 0]	n/a	FR1	0	R1313J
3172.225	1.61	2836387	WORD	n/a	n/a	LEG	10	22	[0, 0, 0]	n/a	FR1	0	R1313J
3173.835	0.884	2837997	WORD_OFF	n/a	n/a	LEG	10	22	[0, 0, 0]	n/a	FR1	0	R1313J
3174.719	1.631	2838881	WORD	n/a	n/a	POND	11	22	[0, 0, 0]	n/a	FR1	0	R1313J
3176.35	0.853	2840512	WORD_OFF	n/a	n/a	POND	11	22	[0, 0, 0]	n/a	FR1	0	R1313J
3177.203	1.615	2841365	WORD	n/a	n/a	CLOCK	12	22	[0, 0, 0]	n/a	FR1	0	R1313J
3178.818	0.0	2842980	DISTRACT_START	n/a	n/a	n/a	-999	22	[0, 0, 0]	n/a	FR1	0	R1313J
3178.818	0.0	2842980	WORD_OFF	n/a	n/a	CLOCK	12	22	[0, 0, 0]	n/a	FR1	0	R1313J
3178.818	0.001	2842980	ENCODING_END	n/a	n/a	n/a	-999	22	[0, 0, 0]	n/a	FR1	0	R1313J
3178.819	0.016	2842981	START	n/a	n/a	n/a	-999	22	[-999, -999, -999]	n/a	FR1	0	R1313J
3178.835	7.585	2842997	PROB	7.585	n/a	n/a	-999	22	[4, 9, 5]	18	FR1	0	R1313J
3186.42	5.301	2850582	PROB	5.301	n/a	n/a	-999	22	[9, 6, 5]	20	FR1	0	R1313J
3191.721	2.884	2855883	PROB	2.884	n/a	n/a	-999	22	[9, 9, 3]	21	FR1	0	R1313J
3194.605	4.807	2858766	PROB	4.807	n/a	n/a	-999	22	[8, 7, 9]	24	FR1	0	R1313J
3199.412	0.01	2863573	STOP	n/a	n/a	n/a	-999	22	[-999, -999, -999]	n/a	FR1	0	R1313J
3199.422	1.055	2863583	DISTRACT_END	n/a	n/a	n/a	-999	22	[0, 0, 0]	n/a	FR1	0	R1313J
3200.477	1.029	2864638	RETRIEVAL_ORIENT_START	n/a	n/a	n/a	-999	22	[0, 0, 0]	n/a	FR1	0	R1313J
3201.506	0.0	2865667	REC_WORD_VV	0.0	n/a	<>	-999	22	[0, 0, 0]	n/a	FR1	0	R1313J
3201.506	0.0	2865667	RETRIEVAL_ORIENT_END	n/a	n/a	n/a	-999	22	[0, 0, 0]	n/a	FR1	0	R1313J
3201.506	27.047	2865667	REC_START	n/a	n/a	n/a	-999	22	[0, 0, 0]	n/a	FR1	0	R1313J
3228.553	3.465	2892713	REC_WORD_VV	3.465	n/a	<>	-999	22	[0, 0, 0]	n/a	FR1	0	R1313J
3232.018	0.0	2896178	REC_END	n/a	n/a	n/a	-999	22	[0, 0, 0]	n/a	FR1	0	R1313J
3232.018	0.0	2896178	TRIAL_END	n/a	n/a	n/a	-999	22	[0, 0, 0]	n/a	FR1	0	R1313J
3232.018	0.0	2896178	TRIAL_START	n/a	n/a	n/a	-999	23	[0, 0, 0]	n/a	FR1	0	R1313J
3232.018	0.0	2896178	TRIAL	n/a	n/a	n/a	-999	23	[0, 0, 0]	n/a	FR1	0	R1313J
3232.018	1.943	2896178	WAITING_START	n/a	n/a	n/a	-999	23	[0, 0, 0]	n/a	FR1	0	R1313J
3233.961	0.0	2898121	WAITING_END	n/a	n/a	n/a	-999	23	[0, 0, 0]	n/a	FR1	0	R1313J
3233.961	0.0	2898121	COUNTDOWN_START	n/a	n/a	n/a	-999	23	[0, 0, 0]	n/a	FR1	0	R1313J
3233.961	0.0	2898121	COUNTDOWN_END	n/a	n/a	n/a	-999	23	[0, 0, 0]	n/a	FR1	0	R1313J
3233.961	11.652	2898121	ORIENT_START	n/a	n/a	n/a	-999	23	[0, 0, 0]	n/a	FR1	0	R1313J
3245.613	0.0	2909772	ORIENT_END	n/a	n/a	n/a	-999	23	[0, 0, 0]	n/a	FR1	0	R1313J
3245.613	1.146	2909772	ENCODING_START	n/a	n/a	n/a	-999	23	[0, 0, 0]	n/a	FR1	0	R1313J
3246.759	1.638	2910918	WORD	n/a	n/a	GATE	1	23	[0, 0, 0]	n/a	FR1	0	R1313J
3248.397	0.905	2912556	WORD_OFF	n/a	n/a	GATE	1	23	[0, 0, 0]	n/a	FR1	0	R1313J
3249.302	1.612	2913461	WORD	n/a	n/a	BAT	2	23	[0, 0, 0]	n/a	FR1	0	R1313J
3250.914	0.911	2915073	WORD_OFF	n/a	n/a	BAT	2	23	[0, 0, 0]	n/a	FR1	0	R1313J
3251.825	1.623	2915984	WORD	n/a	n/a	STRAW	3	23	[0, 0, 0]	n/a	FR1	0	R1313J
3253.448	0.914	2917607	WORD_OFF	n/a	n/a	STRAW	3	23	[0, 0, 0]	n/a	FR1	0	R1313J
3254.362	1.636	2918521	WORD	n/a	n/a	BREAD	4	23	[0, 0, 0]	n/a	FR1	0	R1313J
3255.998	0.946	2920157	WORD_OFF	n/a	n/a	BREAD	4	23	[0, 0, 0]	n/a	FR1	0	R1313J
3256.944	1.621	2921103	WORD	n/a	n/a	TOE	5	23	[0, 0, 0]	n/a	FR1	0	R1313J
3258.565	0.777	2922724	WORD_OFF	n/a	n/a	TOE	5	23	[0, 0, 0]	n/a	FR1	0	R1313J
3259.342	1.624	2923501	WORD	n/a	n/a	LAMP	6	23	[0, 0, 0]	n/a	FR1	0	R1313J
3260.966	0.796	2925125	WORD_OFF	n/a	n/a	LAMP	6	23	[0, 0, 0]	n/a	FR1	0	R1313J
3261.762	1.638	2925921	WORD	n/a	n/a	TEA	7	23	[0, 0, 0]	n/a	FR1	0	R1313J
3263.4	0.775	2927559	WORD_OFF	n/a	n/a	TEA	7	23	[0, 0, 0]	n/a	FR1	0	R1313J
3264.175	1.625	2928334	WORD	n/a	n/a	MOOSE	8	23	[0, 0, 0]	n/a	FR1	0	R1313J
3265.8	1.028	2929958	WORD_OFF	n/a	n/a	MOOSE	8	23	[0, 0, 0]	n/a	FR1	0	R1313J
3266.828	1.622	2930986	WORD	n/a	n/a	STAIR	9	23	[0, 0, 0]	n/a	FR1	0	R1313J
3268.45	1.048	2932608	WORD_OFF	n/a	n/a	STAIR	9	23	[0, 0, 0]	n/a	FR1	0	R1313J
3269.498	1.635	2933656	WORD	n/a	n/a	MOUSE	10	23	[0, 0, 0]	n/a	FR1	0	R1313J
3271.133	0.797	2935291	WORD_OFF	n/a	n/a	MOUSE	10	23	[0, 0, 0]	n/a	FR1	0	R1313J
3271.93	1.621	2936088	WORD	n/a	n/a	SINK	11	23	[0, 0, 0]	n/a	FR1	0	R1313J
3273.551	0.925	2937709	WORD_OFF	n/a	n/a	SINK	11	23	[0, 0, 0]	n/a	FR1	0	R1313J
3274.476	1.625	2938634	WORD	n/a	n/a	MILK	12	23	[0, 0, 0]	n/a	FR1	0	R1313J
3276.101	0.0	2940259	ENCODING_END	n/a	n/a	n/a	-999	23	[0, 0, 0]	n/a	FR1	0	R1313J
3276.101	0.0	2940259	DISTRACT_START	n/a	n/a	n/a	-999	23	[0, 0, 0]	n/a	FR1	0	R1313J
3276.101	0.001	2940259	WORD_OFF	n/a	n/a	MILK	12	23	[0, 0, 0]	n/a	FR1	0	R1313J
3276.102	0.015	2940260	START	n/a	n/a	n/a	-999	23	[-999, -999, -999]	n/a	FR1	0	R1313J
3276.117	3.168	2940275	PROB	3.168	n/a	n/a	-999	23	[1, 1, 3]	5	FR1	0	R1313J
3279.285	4.168	2943443	PROB	4.168	n/a	n/a	-999	23	[7, 8, 3]	18	FR1	0	R1313J
3283.453	5.518	2947611	PROB	5.518	n/a	n/a	-999	23	[9, 6, 3]	18	FR1	0	R1313J
3288.971	4.366	2953129	PROB	4.366	n/a	n/a	-999	23	[4, 1, 8]	13	FR1	0	R1313J
3293.337	3.872	2957494	PROB	3.872	n/a	n/a	-999	23	[1, 8, 6]	15	FR1	0	R1313J
3297.209	0.012	2961366	STOP	n/a	n/a	n/a	-999	23	[-999, -999, -999]	n/a	FR1	0	R1313J
3297.221	1.179	2961378	DISTRACT_END	n/a	n/a	n/a	-999	23	[0, 0, 0]	n/a	FR1	0	R1313J
3298.4	1.022	2962557	RETRIEVAL_ORIENT_START	n/a	n/a	n/a	-999	23	[0, 0, 0]	n/a	FR1	0	R1313J
3299.422	0.0	2963579	RETRIEVAL_ORIENT_END	n/a	n/a	n/a	-999	23	[0, 0, 0]	n/a	FR1	0	R1313J
3299.422	0.0	2963579	REC_START	n/a	n/a	n/a	-999	23	[0, 0, 0]	n/a	FR1	0	R1313J
3299.422	0.949	2963579	REC_WORD_VV	0.949	n/a	<>	-999	23	[0, 0, 0]	n/a	FR1	0	R1313J
3300.371	29.565	2964528	REC_WORD	29.565	n/a	TEA	7	23	[0, 0, 0]	n/a	FR1	0	R1313J
3329.936	0.0	2994092	REC_END	n/a	n/a	n/a	-999	23	[0, 0, 0]	n/a	FR1	0	R1313J
3329.936	0.0	2994092	TRIAL_END	n/a	n/a	n/a	-999	23	[0, 0, 0]	n/a	FR1	0	R1313J
3329.936	0.0	2994092	TRIAL_START	n/a	n/a	n/a	-999	24	[0, 0, 0]	n/a	FR1	0	R1313J
3329.936	0.0	2994092	TRIAL	n/a	n/a	n/a	-999	24	[0, 0, 0]	n/a	FR1	0	R1313J
3329.936	2.609	2994092	WAITING_START	n/a	n/a	n/a	-999	24	[0, 0, 0]	n/a	FR1	0	R1313J
3332.545	0.0	2996701	ORIENT_START	n/a	n/a	n/a	-999	24	[0, 0, 0]	n/a	FR1	0	R1313J
3332.545	0.0	2996701	COUNTDOWN_START	n/a	n/a	n/a	-999	24	[0, 0, 0]	n/a	FR1	0	R1313J
3332.545	0.0	2996701	COUNTDOWN_END	n/a	n/a	n/a	-999	24	[0, 0, 0]	n/a	FR1	0	R1313J
3332.545	11.651	2996701	WAITING_END	n/a	n/a	n/a	-999	24	[0, 0, 0]	n/a	FR1	0	R1313J
3344.196	0.0	3008351	ORIENT_END	n/a	n/a	n/a	-999	24	[0, 0, 0]	n/a	FR1	0	R1313J
3344.196	0.797	3008351	ENCODING_START	n/a	n/a	n/a	-999	24	[0, 0, 0]	n/a	FR1	0	R1313J
3344.993	1.62	3009148	WORD	n/a	n/a	MAZE	1	24	[0, 0, 0]	n/a	FR1	0	R1313J
3346.613	1.133	3010768	WORD_OFF	n/a	n/a	MAZE	1	24	[0, 0, 0]	n/a	FR1	0	R1313J
3347.746	1.634	3011901	WORD	n/a	n/a	LAWN	2	24	[0, 0, 0]	n/a	FR1	0	R1313J
3349.38	1.144	3013535	WORD_OFF	n/a	n/a	LAWN	2	24	[0, 0, 0]	n/a	FR1	0	R1313J
3350.524	1.623	3014679	WORD	n/a	n/a	COIN	3	24	[0, 0, 0]	n/a	FR1	0	R1313J
3352.147	0.987	3016302	WORD_OFF	n/a	n/a	COIN	3	24	[0, 0, 0]	n/a	FR1	0	R1313J
3353.134	1.631	3017289	WORD	n/a	n/a	HORN	4	24	[0, 0, 0]	n/a	FR1	0	R1313J
3354.765	1.044	3018920	WORD_OFF	n/a	n/a	HORN	4	24	[0, 0, 0]	n/a	FR1	0	R1313J
3355.809	1.623	3019964	WORD	n/a	n/a	BLOOM	5	24	[0, 0, 0]	n/a	FR1	0	R1313J
3357.432	1.118	3021587	WORD_OFF	n/a	n/a	BLOOM	5	24	[0, 0, 0]	n/a	FR1	0	R1313J
3358.55	1.632	3022705	WORD	n/a	n/a	DART	6	24	[0, 0, 0]	n/a	FR1	0	R1313J
3360.182	1.147	3024337	WORD_OFF	n/a	n/a	DART	6	24	[0, 0, 0]	n/a	FR1	0	R1313J
3361.329	1.621	3025484	WORD	n/a	n/a	CORN	7	24	[0, 0, 0]	n/a	FR1	0	R1313J
3362.95	0.767	3027104	WORD_OFF	n/a	n/a	CORN	7	24	[0, 0, 0]	n/a	FR1	0	R1313J
3363.717	1.632	3027871	WORD	n/a	n/a	BATH	8	24	[0, 0, 0]	n/a	FR1	0	R1313J
3365.349	0.81	3029503	WORD_OFF	n/a	n/a	BATH	8	24	[0, 0, 0]	n/a	FR1	0	R1313J
3366.159	1.625	3030313	WORD	n/a	n/a	SPONGE	9	24	[0, 0, 0]	n/a	FR1	0	R1313J
3367.784	0.787	3031938	WORD_OFF	n/a	n/a	SPONGE	9	24	[0, 0, 0]	n/a	FR1	0	R1313J
3368.571	1.629	3032725	WORD	n/a	n/a	ANT	10	24	[0, 0, 0]	n/a	FR1	0	R1313J
3370.2	1.012	3034354	WORD_OFF	n/a	n/a	ANT	10	24	[0, 0, 0]	n/a	FR1	0	R1313J
3371.212	1.623	3035366	WORD	n/a	n/a	JET	11	24	[0, 0, 0]	n/a	FR1	0	R1313J
3372.835	1.014	3036989	WORD_OFF	n/a	n/a	JET	11	24	[0, 0, 0]	n/a	FR1	0	R1313J
3373.849	1.636	3038003	WORD	n/a	n/a	YARD	12	24	[0, 0, 0]	n/a	FR1	0	R1313J
3375.485	0.0	3039639	WORD_OFF	n/a	n/a	YARD	12	24	[0, 0, 0]	n/a	FR1	0	R1313J
3375.485	0.0	3039639	ENCODING_END	n/a	n/a	n/a	-999	24	[0, 0, 0]	n/a	FR1	0	R1313J
3375.485	0.001	3039639	DISTRACT_START	n/a	n/a	n/a	-999	24	[0, 0, 0]	n/a	FR1	0	R1313J
3375.486	0.016	3039640	START	n/a	n/a	n/a	-999	24	[-999, -999, -999]	n/a	FR1	0	R1313J
3375.502	5.067	3039656	PROB	5.067	n/a	n/a	-999	24	[9, 3, 5]	17	FR1	0	R1313J
3380.569	4.368	3044723	PROB	4.368	n/a	n/a	-999	24	[9, 3, 2]	14	FR1	0	R1313J
3384.937	3.667	3049091	PROB	3.667	n/a	n/a	-999	24	[6, 9, 9]	24	FR1	0	R1313J
3388.604	4.351	3052757	PROB	4.351	n/a	n/a	-999	24	[5, 2, 3]	10	FR1	0	R1313J
3392.955	7.54	3057108	PROB	7.54	n/a	n/a	-999	24	[4, 9, 6]	19	FR1	0	R1313J
3400.495	0.011	3064648	STOP	n/a	n/a	n/a	-999	24	[-999, -999, -999]	n/a	FR1	0	R1313J
3400.506	1.219	3064659	DISTRACT_END	n/a	n/a	n/a	-999	24	[0, 0, 0]	n/a	FR1	0	R1313J
3401.725	1.031	3065878	RETRIEVAL_ORIENT_START	n/a	n/a	n/a	-999	24	[0, 0, 0]	n/a	FR1	0	R1313J
3402.756	0.0	3066909	RETRIEVAL_ORIENT_END	n/a	n/a	n/a	-999	24	[0, 0, 0]	n/a	FR1	0	R1313J
3402.756	0.53	3066909	REC_START	n/a	n/a	n/a	-999	24	[0, 0, 0]	n/a	FR1	0	R1313J
