onset	duration	sample	trial_type	response_time	stim_file	item_name	serialpos	list	test	answer	experiment	session	subject
0.0	198.815	399	INSTRUCT_START	n/a	n/a	n/a	-999	-999	[0, 0, 0]	n/a	FR1	1	R1292E
198.815	2.217	199207	INSTRUCT_END	n/a	n/a	n/a	-999	-999	[0, 0, 0]	n/a	FR1	1	R1292E
201.032	11.675	201424	MIC TEST_START	n/a	n/a	n/a	-999	-999	[0, 0, 0]	n/a	FR1	1	R1292E
212.707	0.01	213098	MIC TEST_END	n/a	n/a	n/a	-999	-999	[0, 0, 0]	n/a	FR1	1	R1292E
212.717	0.0	213108	TRIAL_START	n/a	n/a	n/a	-999	-1	[0, 0, 0]	n/a	FR1	1	R1292E
212.717	0.0	213108	TRIAL	n/a	n/a	n/a	-999	-1	[0, 0, 0]	n/a	FR1	1	R1292E
212.717	56.726	213108	WAITING_START	n/a	n/a	n/a	-999	-1	[0, 0, 0]	n/a	FR1	1	R1292E
269.443	0.0	269832	COUNTDOWN_START	n/a	n/a	n/a	-999	-1	[0, 0, 0]	n/a	FR1	1	R1292E
269.443	10.43	269832	WAITING_END	n/a	n/a	n/a	-999	-1	[0, 0, 0]	n/a	FR1	1	R1292E
279.873	0.0	280262	COUNTDOWN_END	n/a	n/a	n/a	-999	-1	[0, 0, 0]	n/a	FR1	1	R1292E
279.873	1.04	280262	ORIENT_START	n/a	n/a	n/a	-999	-1	[0, 0, 0]	n/a	FR1	1	R1292E
280.913	0.0	281302	ORIENT_END	n/a	n/a	n/a	-999	-1	[0, 0, 0]	n/a	FR1	1	R1292E
280.913	0.888	281302	ENCODING_START	n/a	n/a	n/a	-999	-1	[0, 0, 0]	n/a	FR1	1	R1292E
281.801	1.628	282190	WORD	n/a	n/a	ATTIC	1	-1	[0, 0, 0]	n/a	FR1	1	R1292E
283.429	0.856	283818	WORD_OFF	n/a	n/a	ATTIC	1	-1	[0, 0, 0]	n/a	FR1	1	R1292E
284.285	1.612	284674	WORD	n/a	n/a	BEAM	2	-1	[0, 0, 0]	n/a	FR1	1	R1292E
285.897	0.767	286286	WORD_OFF	n/a	n/a	BEAM	2	-1	[0, 0, 0]	n/a	FR1	1	R1292E
286.664	1.632	287053	WORD	n/a	n/a	CAMEL	3	-1	[0, 0, 0]	n/a	FR1	1	R1292E
288.296	0.892	288685	WORD_OFF	n/a	n/a	CAMEL	3	-1	[0, 0, 0]	n/a	FR1	1	R1292E
289.188	1.626	289577	WORD	n/a	n/a	CHEST	4	-1	[0, 0, 0]	n/a	FR1	1	R1292E
290.814	1.037	291203	WORD_OFF	n/a	n/a	CHEST	4	-1	[0, 0, 0]	n/a	FR1	1	R1292E
291.851	1.63	292240	WORD	n/a	n/a	COTTON	5	-1	[0, 0, 0]	n/a	FR1	1	R1292E
293.481	0.896	293869	WORD_OFF	n/a	n/a	COTTON	5	-1	[0, 0, 0]	n/a	FR1	1	R1292E
294.377	1.605	294765	WORD	n/a	n/a	FLOOD	6	-1	[0, 0, 0]	n/a	FR1	1	R1292E
295.982	0.987	296370	WORD_OFF	n/a	n/a	FLOOD	6	-1	[0, 0, 0]	n/a	FR1	1	R1292E
296.969	1.629	297357	WORD	n/a	n/a	IRON	7	-1	[0, 0, 0]	n/a	FR1	1	R1292E
298.598	0.8	298986	WORD_OFF	n/a	n/a	IRON	7	-1	[0, 0, 0]	n/a	FR1	1	R1292E
299.398	1.635	299786	WORD	n/a	n/a	RHINO	8	-1	[0, 0, 0]	n/a	FR1	1	R1292E
301.033	1.079	301421	WORD_OFF	n/a	n/a	RHINO	8	-1	[0, 0, 0]	n/a	FR1	1	R1292E
302.112	1.621	302500	WORD	n/a	n/a	RING	9	-1	[0, 0, 0]	n/a	FR1	1	R1292E
303.733	1.003	304121	WORD_OFF	n/a	n/a	RING	9	-1	[0, 0, 0]	n/a	FR1	1	R1292E
304.736	1.63	305124	WORD	n/a	n/a	TONGUE	10	-1	[0, 0, 0]	n/a	FR1	1	R1292E
306.366	1.057	306754	WORD_OFF	n/a	n/a	TONGUE	10	-1	[0, 0, 0]	n/a	FR1	1	R1292E
307.423	1.628	307811	WORD	n/a	n/a	WAGON	11	-1	[0, 0, 0]	n/a	FR1	1	R1292E
309.051	0.807	309439	WORD_OFF	n/a	n/a	WAGON	11	-1	[0, 0, 0]	n/a	FR1	1	R1292E
309.858	1.626	310246	WORD	n/a	n/a	WATCH	12	-1	[0, 0, 0]	n/a	FR1	1	R1292E
311.484	0.0	311872	WORD_OFF	n/a	n/a	WATCH	12	-1	[0, 0, 0]	n/a	FR1	1	R1292E
311.484	0.0	311872	ENCODING_END	n/a	n/a	n/a	-999	-1	[0, 0, 0]	n/a	FR1	1	R1292E
311.484	0.001	311872	DISTRACT_START	n/a	n/a	n/a	-999	-1	[0, 0, 0]	n/a	FR1	1	R1292E
311.485	0.015	311873	START	n/a	n/a	n/a	-999	-1	[-999, -999, -999]	n/a	FR1	1	R1292E
311.5	4.635	311888	PROB	4.635	n/a	n/a	-999	-1	[1, 2, 2]	5	FR1	1	R1292E
316.135	5.951	316523	PROB	5.951	n/a	n/a	-999	-1	[2, 7, 2]	11	FR1	1	R1292E
322.086	4.217	322473	PROB	4.217	n/a	n/a	-999	-1	[4, 6, 3]	13	FR1	1	R1292E
326.303	6.527	326690	PROB	6.527	n/a	n/a	-999	-1	[3, 4, 5]	12	FR1	1	R1292E
332.83	0.008	333217	STOP	n/a	n/a	n/a	-999	-1	[-999, -999, -999]	n/a	FR1	1	R1292E
332.838	0.606	333225	DISTRACT_END	n/a	n/a	n/a	-999	-1	[0, 0, 0]	n/a	FR1	1	R1292E
333.444	1.711	333831	RETRIEVAL_ORIENT_START	n/a	n/a	n/a	-999	-1	[0, 0, 0]	n/a	FR1	1	R1292E
335.155	0.001	335542	RETRIEVAL_ORIENT_END	n/a	n/a	n/a	-999	-1	[0, 0, 0]	n/a	FR1	1	R1292E
335.156	1.142	335543	REC_START	n/a	n/a	n/a	-999	-1	[0, 0, 0]	n/a	FR1	1	R1292E
336.298	1.05	336685	REC_WORD	1.05	n/a	ATTIC	-999	-1	[0, 0, 0]	n/a	FR1	1	R1292E
337.348	1.767	337735	REC_WORD	1.767	n/a	BEAM	-999	-1	[0, 0, 0]	n/a	FR1	1	R1292E
339.115	1.314	339502	REC_WORD	1.314	n/a	CAMEL	-999	-1	[0, 0, 0]	n/a	FR1	1	R1292E
340.429	3.072	340816	REC_WORD	3.072	n/a	CHEST	-999	-1	[0, 0, 0]	n/a	FR1	1	R1292E
343.501	1.422	343888	REC_WORD	1.422	n/a	RHINO	-999	-1	[0, 0, 0]	n/a	FR1	1	R1292E
344.923	20.244	345310	REC_WORD	20.244	n/a	COTTON	-999	-1	[0, 0, 0]	n/a	FR1	1	R1292E
365.167	0.0	365553	REC_END	n/a	n/a	n/a	-999	-1	[0, 0, 0]	n/a	FR1	1	R1292E
365.167	15.88	365553	PRACTICE_POST_INSTRUCT_START	n/a	n/a	n/a	-999	-1	[0, 0, 0]	n/a	FR1	1	R1292E
381.047	0.001	381432	PRACTICE_POST_INSTRUCT_END	n/a	n/a	n/a	-999	-1	[0, 0, 0]	n/a	FR1	1	R1292E
381.048	0.018	381433	TRIAL_END	n/a	n/a	n/a	-999	-1	[0, 0, 0]	n/a	FR1	1	R1292E
381.066	0.0	381451	WAITING_START	n/a	n/a	n/a	-999	1	[0, 0, 0]	n/a	FR1	1	R1292E
381.066	0.0	381451	TRIAL_START	n/a	n/a	n/a	-999	1	[0, 0, 0]	n/a	FR1	1	R1292E
381.066	6.181	381451	TRIAL	n/a	n/a	n/a	-999	1	[0, 0, 0]	n/a	FR1	1	R1292E
387.247	0.0	387632	WAITING_END	n/a	n/a	n/a	-999	1	[0, 0, 0]	n/a	FR1	1	R1292E
387.247	10.431	387632	COUNTDOWN_START	n/a	n/a	n/a	-999	1	[0, 0, 0]	n/a	FR1	1	R1292E
397.678	0.0	398063	COUNTDOWN_END	n/a	n/a	n/a	-999	1	[0, 0, 0]	n/a	FR1	1	R1292E
397.678	1.039	398063	ORIENT_START	n/a	n/a	n/a	-999	1	[0, 0, 0]	n/a	FR1	1	R1292E
398.717	0.0	399102	ORIENT_END	n/a	n/a	n/a	-999	1	[0, 0, 0]	n/a	FR1	1	R1292E
398.717	0.86	399102	ENCODING_START	n/a	n/a	n/a	-999	1	[0, 0, 0]	n/a	FR1	1	R1292E
399.577	1.606	399962	WORD	n/a	n/a	PIPE	1	1	[0, 0, 0]	n/a	FR1	1	R1292E
401.183	0.769	401568	WORD_OFF	n/a	n/a	PIPE	1	1	[0, 0, 0]	n/a	FR1	1	R1292E
401.952	1.631	402337	WORD	n/a	n/a	BOMB	2	1	[0, 0, 0]	n/a	FR1	1	R1292E
403.583	0.775	403968	WORD_OFF	n/a	n/a	BOMB	2	1	[0, 0, 0]	n/a	FR1	1	R1292E
404.358	1.626	404743	WORD	n/a	n/a	WOOD	3	1	[0, 0, 0]	n/a	FR1	1	R1292E
405.984	0.948	406368	WORD_OFF	n/a	n/a	WOOD	3	1	[0, 0, 0]	n/a	FR1	1	R1292E
406.932	1.635	407316	WORD	n/a	n/a	WING	4	1	[0, 0, 0]	n/a	FR1	1	R1292E
408.567	1.099	408951	WORD_OFF	n/a	n/a	WING	4	1	[0, 0, 0]	n/a	FR1	1	R1292E
409.666	1.635	410050	WORD	n/a	n/a	GUARD	5	1	[0, 0, 0]	n/a	FR1	1	R1292E
411.301	0.989	411685	WORD_OFF	n/a	n/a	GUARD	5	1	[0, 0, 0]	n/a	FR1	1	R1292E
412.29	1.629	412674	WORD	n/a	n/a	LAMB	6	1	[0, 0, 0]	n/a	FR1	1	R1292E
413.919	0.973	414303	WORD_OFF	n/a	n/a	LAMB	6	1	[0, 0, 0]	n/a	FR1	1	R1292E
414.892	1.627	415276	WORD	n/a	n/a	SEED	7	1	[0, 0, 0]	n/a	FR1	1	R1292E
416.519	1.104	416903	WORD_OFF	n/a	n/a	SEED	7	1	[0, 0, 0]	n/a	FR1	1	R1292E
417.623	1.63	418007	WORD	n/a	n/a	TRAIN	8	1	[0, 0, 0]	n/a	FR1	1	R1292E
419.253	0.754	419637	WORD_OFF	n/a	n/a	TRAIN	8	1	[0, 0, 0]	n/a	FR1	1	R1292E
420.007	1.629	420391	WORD	n/a	n/a	BAND	9	1	[0, 0, 0]	n/a	FR1	1	R1292E
421.636	1.147	422020	WORD_OFF	n/a	n/a	BAND	9	1	[0, 0, 0]	n/a	FR1	1	R1292E
422.783	1.62	423167	WORD	n/a	n/a	LAKE	10	1	[0, 0, 0]	n/a	FR1	1	R1292E
424.403	0.893	424787	WORD_OFF	n/a	n/a	LAKE	10	1	[0, 0, 0]	n/a	FR1	1	R1292E
425.296	1.609	425680	WORD	n/a	n/a	SHARK	11	1	[0, 0, 0]	n/a	FR1	1	R1292E
426.905	1.032	427289	WORD_OFF	n/a	n/a	SHARK	11	1	[0, 0, 0]	n/a	FR1	1	R1292E
427.937	1.634	428321	WORD	n/a	n/a	HILL	12	1	[0, 0, 0]	n/a	FR1	1	R1292E
429.571	0.0	429955	WORD_OFF	n/a	n/a	HILL	12	1	[0, 0, 0]	n/a	FR1	1	R1292E
429.571	0.0	429955	ENCODING_END	n/a	n/a	n/a	-999	1	[0, 0, 0]	n/a	FR1	1	R1292E
429.571	0.001	429955	DISTRACT_START	n/a	n/a	n/a	-999	1	[0, 0, 0]	n/a	FR1	1	R1292E
429.572	0.015	429956	START	n/a	n/a	n/a	-999	1	[-999, -999, -999]	n/a	FR1	1	R1292E
429.587	4.436	429971	PROB	4.436	n/a	n/a	-999	1	[2, 5, 2]	9	FR1	1	R1292E
434.023	9.417	434407	PROB	9.417	n/a	n/a	-999	1	[5, 9, 6]	20	FR1	1	R1292E
443.44	3.834	443823	PROB	3.834	n/a	n/a	-999	1	[3, 5, 4]	12	FR1	1	R1292E
447.274	6.428	447657	PROB	6.428	n/a	n/a	-999	1	[7, 9, 2]	18	FR1	1	R1292E
453.702	0.007	454085	STOP	n/a	n/a	n/a	-999	1	[-999, -999, -999]	n/a	FR1	1	R1292E
453.709	0.573	454092	DISTRACT_END	n/a	n/a	n/a	-999	1	[0, 0, 0]	n/a	FR1	1	R1292E
454.282	1.545	454665	RETRIEVAL_ORIENT_START	n/a	n/a	n/a	-999	1	[0, 0, 0]	n/a	FR1	1	R1292E
455.827	0.0	456210	RETRIEVAL_ORIENT_END	n/a	n/a	n/a	-999	1	[0, 0, 0]	n/a	FR1	1	R1292E
455.827	1.1	456210	REC_START	n/a	n/a	n/a	-999	1	[0, 0, 0]	n/a	FR1	1	R1292E
456.927	1.283	457310	REC_WORD	1.283	n/a	PIPE	1	1	[0, 0, 0]	n/a	FR1	1	R1292E
458.21	2.203	458593	REC_WORD	2.203	n/a	BOMB	2	1	[0, 0, 0]	n/a	FR1	1	R1292E
460.413	7.448	460796	REC_WORD	7.448	n/a	HILL	12	1	[0, 0, 0]	n/a	FR1	1	R1292E
467.861	2.063	468243	REC_WORD	2.063	n/a	LAMB	6	1	[0, 0, 0]	n/a	FR1	1	R1292E
469.924	15.915	470306	REC_WORD	15.915	n/a	WOOD	3	1	[0, 0, 0]	n/a	FR1	1	R1292E
485.839	0.0	486221	TRIAL_END	n/a	n/a	n/a	-999	1	[0, 0, 0]	n/a	FR1	1	R1292E
485.839	0.017	486221	REC_END	n/a	n/a	n/a	-999	1	[0, 0, 0]	n/a	FR1	1	R1292E
485.856	0.001	486238	TRIAL_START	n/a	n/a	n/a	-999	2	[0, 0, 0]	n/a	FR1	1	R1292E
485.857	0.0	486239	TRIAL	n/a	n/a	n/a	-999	2	[0, 0, 0]	n/a	FR1	1	R1292E
485.857	4.076	486239	WAITING_START	n/a	n/a	n/a	-999	2	[0, 0, 0]	n/a	FR1	1	R1292E
489.933	0.0	490315	WAITING_END	n/a	n/a	n/a	-999	2	[0, 0, 0]	n/a	FR1	1	R1292E
489.933	10.429	490315	COUNTDOWN_START	n/a	n/a	n/a	-999	2	[0, 0, 0]	n/a	FR1	1	R1292E
500.362	0.0	500743	ORIENT_START	n/a	n/a	n/a	-999	2	[0, 0, 0]	n/a	FR1	1	R1292E
500.362	1.071	500743	COUNTDOWN_END	n/a	n/a	n/a	-999	2	[0, 0, 0]	n/a	FR1	1	R1292E
501.433	0.001	501814	ORIENT_END	n/a	n/a	n/a	-999	2	[0, 0, 0]	n/a	FR1	1	R1292E
501.434	0.89	501815	ENCODING_START	n/a	n/a	n/a	-999	2	[0, 0, 0]	n/a	FR1	1	R1292E
502.324	1.628	502705	WORD	n/a	n/a	STREET	1	2	[0, 0, 0]	n/a	FR1	1	R1292E
503.952	1.107	504333	WORD_OFF	n/a	n/a	STREET	1	2	[0, 0, 0]	n/a	FR1	1	R1292E
505.059	1.626	505440	WORD	n/a	n/a	SPEAR	2	2	[0, 0, 0]	n/a	FR1	1	R1292E
506.685	0.811	507066	WORD_OFF	n/a	n/a	SPEAR	2	2	[0, 0, 0]	n/a	FR1	1	R1292E
507.496	1.606	507877	WORD	n/a	n/a	BEAN	3	2	[0, 0, 0]	n/a	FR1	1	R1292E
509.102	0.967	509483	WORD_OFF	n/a	n/a	BEAN	3	2	[0, 0, 0]	n/a	FR1	1	R1292E
510.069	1.634	510450	WORD	n/a	n/a	NEST	4	2	[0, 0, 0]	n/a	FR1	1	R1292E
511.703	0.904	512084	WORD_OFF	n/a	n/a	NEST	4	2	[0, 0, 0]	n/a	FR1	1	R1292E
512.607	1.629	512988	WORD	n/a	n/a	PEN	5	2	[0, 0, 0]	n/a	FR1	1	R1292E
514.236	0.918	514617	WORD_OFF	n/a	n/a	PEN	5	2	[0, 0, 0]	n/a	FR1	1	R1292E
515.154	1.633	515535	WORD	n/a	n/a	FUR	6	2	[0, 0, 0]	n/a	FR1	1	R1292E
516.787	0.966	517168	WORD_OFF	n/a	n/a	FUR	6	2	[0, 0, 0]	n/a	FR1	1	R1292E
517.753	1.634	518134	WORD	n/a	n/a	FISH	7	2	[0, 0, 0]	n/a	FR1	1	R1292E
519.387	0.848	519768	WORD_OFF	n/a	n/a	FISH	7	2	[0, 0, 0]	n/a	FR1	1	R1292E
520.235	1.62	520615	WORD	n/a	n/a	ARM	8	2	[0, 0, 0]	n/a	FR1	1	R1292E
521.855	0.938	522235	WORD_OFF	n/a	n/a	ARM	8	2	[0, 0, 0]	n/a	FR1	1	R1292E
522.793	1.628	523173	WORD	n/a	n/a	GLASS	9	2	[0, 0, 0]	n/a	FR1	1	R1292E
524.421	0.877	524801	WORD_OFF	n/a	n/a	GLASS	9	2	[0, 0, 0]	n/a	FR1	1	R1292E
525.298	1.624	525678	WORD	n/a	n/a	TAIL	10	2	[0, 0, 0]	n/a	FR1	1	R1292E
526.922	0.991	527302	WORD_OFF	n/a	n/a	TAIL	10	2	[0, 0, 0]	n/a	FR1	1	R1292E
527.913	1.625	528293	WORD	n/a	n/a	STRING	11	2	[0, 0, 0]	n/a	FR1	1	R1292E
529.538	0.856	529918	WORD_OFF	n/a	n/a	STRING	11	2	[0, 0, 0]	n/a	FR1	1	R1292E
530.394	1.629	530774	WORD	n/a	n/a	SHIELD	12	2	[0, 0, 0]	n/a	FR1	1	R1292E
532.023	0.001	532403	WORD_OFF	n/a	n/a	SHIELD	12	2	[0, 0, 0]	n/a	FR1	1	R1292E
532.024	0.0	532404	ENCODING_END	n/a	n/a	n/a	-999	2	[0, 0, 0]	n/a	FR1	1	R1292E
532.024	0.0	532404	DISTRACT_START	n/a	n/a	n/a	-999	2	[0, 0, 0]	n/a	FR1	1	R1292E
532.024	0.016	532404	START	n/a	n/a	n/a	-999	2	[-999, -999, -999]	n/a	FR1	1	R1292E
532.04	6.918	532420	PROB	6.918	n/a	n/a	-999	2	[1, 3, 2]	6	FR1	1	R1292E
538.958	5.566	539338	PROB	5.566	n/a	n/a	-999	2	[8, 2, 5]	15	FR1	1	R1292E
544.524	3.635	544904	PROB	3.635	n/a	n/a	-999	2	[2, 1, 6]	9	FR1	1	R1292E
548.159	10.477	548538	PROB	10.477	n/a	n/a	-999	2	[9, 9, 7]	25	FR1	1	R1292E
558.636	0.007	559015	STOP	n/a	n/a	n/a	-999	2	[-999, -999, -999]	n/a	FR1	1	R1292E
558.643	0.645	559022	DISTRACT_END	n/a	n/a	n/a	-999	2	[0, 0, 0]	n/a	FR1	1	R1292E
559.288	1.59	559667	RETRIEVAL_ORIENT_START	n/a	n/a	n/a	-999	2	[0, 0, 0]	n/a	FR1	1	R1292E
560.878	0.001	561257	RETRIEVAL_ORIENT_END	n/a	n/a	n/a	-999	2	[0, 0, 0]	n/a	FR1	1	R1292E
560.879	3.886	561258	REC_START	n/a	n/a	n/a	-999	2	[0, 0, 0]	n/a	FR1	1	R1292E
564.765	1.63	565144	REC_WORD	1.63	n/a	STREET	1	2	[0, 0, 0]	n/a	FR1	1	R1292E
566.395	17.244	566774	REC_WORD	17.244	n/a	FUR	6	2	[0, 0, 0]	n/a	FR1	1	R1292E
583.639	7.252	584017	REC_WORD	7.252	n/a	TAIL	10	2	[0, 0, 0]	n/a	FR1	1	R1292E
590.891	0.0	591269	REC_END	n/a	n/a	n/a	-999	2	[0, 0, 0]	n/a	FR1	1	R1292E
590.891	0.017	591269	TRIAL_END	n/a	n/a	n/a	-999	2	[0, 0, 0]	n/a	FR1	1	R1292E
590.908	0.0	591286	TRIAL	n/a	n/a	n/a	-999	3	[0, 0, 0]	n/a	FR1	1	R1292E
590.908	0.0	591286	WAITING_START	n/a	n/a	n/a	-999	3	[0, 0, 0]	n/a	FR1	1	R1292E
590.908	5.426	591286	TRIAL_START	n/a	n/a	n/a	-999	3	[0, 0, 0]	n/a	FR1	1	R1292E
596.334	0.0	596712	WAITING_END	n/a	n/a	n/a	-999	3	[0, 0, 0]	n/a	FR1	1	R1292E
596.334	10.429	596712	COUNTDOWN_START	n/a	n/a	n/a	-999	3	[0, 0, 0]	n/a	FR1	1	R1292E
606.763	0.0	607140	COUNTDOWN_END	n/a	n/a	n/a	-999	3	[0, 0, 0]	n/a	FR1	1	R1292E
606.763	1.14	607140	ORIENT_START	n/a	n/a	n/a	-999	3	[0, 0, 0]	n/a	FR1	1	R1292E
607.903	0.001	608280	ORIENT_END	n/a	n/a	n/a	-999	3	[0, 0, 0]	n/a	FR1	1	R1292E
607.904	0.939	608281	ENCODING_START	n/a	n/a	n/a	-999	3	[0, 0, 0]	n/a	FR1	1	R1292E
608.843	1.626	609220	WORD	n/a	n/a	MUG	1	3	[0, 0, 0]	n/a	FR1	1	R1292E
610.469	1.026	610846	WORD_OFF	n/a	n/a	MUG	1	3	[0, 0, 0]	n/a	FR1	1	R1292E
611.495	1.626	611872	WORD	n/a	n/a	WEB	2	3	[0, 0, 0]	n/a	FR1	1	R1292E
613.121	0.753	613498	WORD_OFF	n/a	n/a	WEB	2	3	[0, 0, 0]	n/a	FR1	1	R1292E
613.874	1.629	614251	WORD	n/a	n/a	SNAKE	3	3	[0, 0, 0]	n/a	FR1	1	R1292E
615.503	0.961	615880	WORD_OFF	n/a	n/a	SNAKE	3	3	[0, 0, 0]	n/a	FR1	1	R1292E
616.464	1.608	616841	WORD	n/a	n/a	DRUM	4	3	[0, 0, 0]	n/a	FR1	1	R1292E
618.072	0.884	618449	WORD_OFF	n/a	n/a	DRUM	4	3	[0, 0, 0]	n/a	FR1	1	R1292E
618.956	1.632	619333	WORD	n/a	n/a	DEER	5	3	[0, 0, 0]	n/a	FR1	1	R1292E
620.588	0.873	620965	WORD_OFF	n/a	n/a	DEER	5	3	[0, 0, 0]	n/a	FR1	1	R1292E
621.461	1.611	621838	WORD	n/a	n/a	MILK	6	3	[0, 0, 0]	n/a	FR1	1	R1292E
623.072	1.112	623449	WORD_OFF	n/a	n/a	MILK	6	3	[0, 0, 0]	n/a	FR1	1	R1292E
624.184	1.622	624561	WORD	n/a	n/a	BOY	7	3	[0, 0, 0]	n/a	FR1	1	R1292E
625.806	1.001	626183	WORD_OFF	n/a	n/a	BOY	7	3	[0, 0, 0]	n/a	FR1	1	R1292E
626.807	1.632	627184	WORD	n/a	n/a	BOWL	8	3	[0, 0, 0]	n/a	FR1	1	R1292E
628.439	1.058	628816	WORD_OFF	n/a	n/a	BOWL	8	3	[0, 0, 0]	n/a	FR1	1	R1292E
629.497	1.627	629874	WORD	n/a	n/a	ELF	9	3	[0, 0, 0]	n/a	FR1	1	R1292E
631.124	1.08	631501	WORD_OFF	n/a	n/a	ELF	9	3	[0, 0, 0]	n/a	FR1	1	R1292E
632.204	1.62	632581	WORD	n/a	n/a	DOG	10	3	[0, 0, 0]	n/a	FR1	1	R1292E
633.824	0.82	634200	WORD_OFF	n/a	n/a	DOG	10	3	[0, 0, 0]	n/a	FR1	1	R1292E
634.644	1.63	635020	WORD	n/a	n/a	PARK	11	3	[0, 0, 0]	n/a	FR1	1	R1292E
636.274	0.992	636650	WORD_OFF	n/a	n/a	PARK	11	3	[0, 0, 0]	n/a	FR1	1	R1292E
637.266	1.609	637642	WORD	n/a	n/a	BEAR	12	3	[0, 0, 0]	n/a	FR1	1	R1292E
638.875	0.001	639251	WORD_OFF	n/a	n/a	BEAR	12	3	[0, 0, 0]	n/a	FR1	1	R1292E
638.876	0.0	639252	ENCODING_END	n/a	n/a	n/a	-999	3	[0, 0, 0]	n/a	FR1	1	R1292E
638.876	0.0	639252	DISTRACT_START	n/a	n/a	n/a	-999	3	[0, 0, 0]	n/a	FR1	1	R1292E
638.876	0.016	639252	START	n/a	n/a	n/a	-999	3	[-999, -999, -999]	n/a	FR1	1	R1292E
638.892	7.467	639268	PROB	7.467	n/a	n/a	-999	3	[3, 9, 5]	17	FR1	1	R1292E
646.359	7.552	646735	PROB	7.552	n/a	n/a	-999	3	[5, 8, 9]	22	FR1	1	R1292E
653.911	4.017	654287	PROB	4.017	n/a	n/a	-999	3	[5, 4, 1]	10	FR1	1	R1292E
657.928	5.336	658304	PROB	5.336	n/a	n/a	-999	3	[2, 8, 9]	19	FR1	1	R1292E
663.264	0.015	663639	STOP	n/a	n/a	n/a	-999	3	[-999, -999, -999]	n/a	FR1	1	R1292E
663.279	0.512	663654	DISTRACT_END	n/a	n/a	n/a	-999	3	[0, 0, 0]	n/a	FR1	1	R1292E
663.791	1.605	664166	RETRIEVAL_ORIENT_START	n/a	n/a	n/a	-999	3	[0, 0, 0]	n/a	FR1	1	R1292E
665.396	0.0	665771	REC_START	n/a	n/a	n/a	-999	3	[0, 0, 0]	n/a	FR1	1	R1292E
665.396	0.673	665771	RETRIEVAL_ORIENT_END	n/a	n/a	n/a	-999	3	[0, 0, 0]	n/a	FR1	1	R1292E
666.069	1.224	666444	REC_WORD	1.224	n/a	MILK	6	3	[0, 0, 0]	n/a	FR1	1	R1292E
667.293	3.163	667668	REC_WORD	3.163	n/a	MUG	1	3	[0, 0, 0]	n/a	FR1	1	R1292E
670.456	5.304	670831	REC_WORD	5.304	n/a	DEER	5	3	[0, 0, 0]	n/a	FR1	1	R1292E
675.76	19.649	676135	REC_WORD	19.649	n/a	PARK	11	3	[0, 0, 0]	n/a	FR1	1	R1292E
695.409	0.0	695783	REC_END	n/a	n/a	n/a	-999	3	[0, 0, 0]	n/a	FR1	1	R1292E
695.409	0.017	695783	TRIAL_END	n/a	n/a	n/a	-999	3	[0, 0, 0]	n/a	FR1	1	R1292E
695.426	0.0	695800	WAITING_START	n/a	n/a	n/a	-999	4	[0, 0, 0]	n/a	FR1	1	R1292E
695.426	0.0	695800	TRIAL	n/a	n/a	n/a	-999	4	[0, 0, 0]	n/a	FR1	1	R1292E
695.426	8.81	695800	TRIAL_START	n/a	n/a	n/a	-999	4	[0, 0, 0]	n/a	FR1	1	R1292E
704.236	0.0	704610	WAITING_END	n/a	n/a	n/a	-999	4	[0, 0, 0]	n/a	FR1	1	R1292E
704.236	10.428	704610	COUNTDOWN_START	n/a	n/a	n/a	-999	4	[0, 0, 0]	n/a	FR1	1	R1292E
714.664	0.0	715038	COUNTDOWN_END	n/a	n/a	n/a	-999	4	[0, 0, 0]	n/a	FR1	1	R1292E
714.664	1.191	715038	ORIENT_START	n/a	n/a	n/a	-999	4	[0, 0, 0]	n/a	FR1	1	R1292E
715.855	0.001	716229	ORIENT_END	n/a	n/a	n/a	-999	4	[0, 0, 0]	n/a	FR1	1	R1292E
715.856	1.129	716230	ENCODING_START	n/a	n/a	n/a	-999	4	[0, 0, 0]	n/a	FR1	1	R1292E
716.985	1.62	717359	WORD	n/a	n/a	PIG	1	4	[0, 0, 0]	n/a	FR1	1	R1292E
718.605	0.918	718978	WORD_OFF	n/a	n/a	PIG	1	4	[0, 0, 0]	n/a	FR1	1	R1292E
719.523	1.633	719896	WORD	n/a	n/a	BRIDGE	2	4	[0, 0, 0]	n/a	FR1	1	R1292E
721.156	1.105	721529	WORD_OFF	n/a	n/a	BRIDGE	2	4	[0, 0, 0]	n/a	FR1	1	R1292E
722.261	1.629	722634	WORD	n/a	n/a	SCHOOL	3	4	[0, 0, 0]	n/a	FR1	1	R1292E
723.89	1.085	724263	WORD_OFF	n/a	n/a	SCHOOL	3	4	[0, 0, 0]	n/a	FR1	1	R1292E
724.975	1.631	725348	WORD	n/a	n/a	CRANE	4	4	[0, 0, 0]	n/a	FR1	1	R1292E
726.606	0.925	726979	WORD_OFF	n/a	n/a	CRANE	4	4	[0, 0, 0]	n/a	FR1	1	R1292E
727.531	1.627	727904	WORD	n/a	n/a	GOAT	5	4	[0, 0, 0]	n/a	FR1	1	R1292E
729.158	1.148	729531	WORD_OFF	n/a	n/a	GOAT	5	4	[0, 0, 0]	n/a	FR1	1	R1292E
730.306	1.619	730679	WORD	n/a	n/a	MOLE	6	4	[0, 0, 0]	n/a	FR1	1	R1292E
731.925	0.931	732298	WORD_OFF	n/a	n/a	MOLE	6	4	[0, 0, 0]	n/a	FR1	1	R1292E
732.856	1.635	733229	WORD	n/a	n/a	VASE	7	4	[0, 0, 0]	n/a	FR1	1	R1292E
734.491	0.791	734864	WORD_OFF	n/a	n/a	VASE	7	4	[0, 0, 0]	n/a	FR1	1	R1292E
735.282	1.627	735655	WORD	n/a	n/a	SPONGE	8	4	[0, 0, 0]	n/a	FR1	1	R1292E
736.909	0.909	737282	WORD_OFF	n/a	n/a	SPONGE	8	4	[0, 0, 0]	n/a	FR1	1	R1292E
737.818	1.624	738191	WORD	n/a	n/a	SKUNK	9	4	[0, 0, 0]	n/a	FR1	1	R1292E
739.442	0.781	739815	WORD_OFF	n/a	n/a	SKUNK	9	4	[0, 0, 0]	n/a	FR1	1	R1292E
740.223	1.62	740596	WORD	n/a	n/a	LOCK	10	4	[0, 0, 0]	n/a	FR1	1	R1292E
741.843	0.762	742216	WORD_OFF	n/a	n/a	LOCK	10	4	[0, 0, 0]	n/a	FR1	1	R1292E
742.605	1.622	742978	WORD	n/a	n/a	BED	11	4	[0, 0, 0]	n/a	FR1	1	R1292E
744.227	0.996	744600	WORD_OFF	n/a	n/a	BED	11	4	[0, 0, 0]	n/a	FR1	1	R1292E
745.223	1.621	745596	WORD	n/a	n/a	CORN	12	4	[0, 0, 0]	n/a	FR1	1	R1292E
746.844	0.001	747217	WORD_OFF	n/a	n/a	CORN	12	4	[0, 0, 0]	n/a	FR1	1	R1292E
746.845	0.0	747218	ENCODING_END	n/a	n/a	n/a	-999	4	[0, 0, 0]	n/a	FR1	1	R1292E
746.845	0.0	747218	DISTRACT_START	n/a	n/a	n/a	-999	4	[0, 0, 0]	n/a	FR1	1	R1292E
746.845	0.016	747218	START	n/a	n/a	n/a	-999	4	[-999, -999, -999]	n/a	FR1	1	R1292E
746.861	11.085	747234	PROB	11.085	n/a	n/a	-999	4	[9, 7, 5]	21	FR1	1	R1292E
757.946	11.182	758318	PROB	11.182	n/a	n/a	-999	4	[4, 7, 2]	13	FR1	1	R1292E
769.128	0.02	769500	STOP	n/a	n/a	n/a	-999	4	[-999, -999, -999]	n/a	FR1	1	R1292E
769.148	0.598	769520	DISTRACT_END	n/a	n/a	n/a	-999	4	[0, 0, 0]	n/a	FR1	1	R1292E
769.746	1.635	770118	RETRIEVAL_ORIENT_START	n/a	n/a	n/a	-999	4	[0, 0, 0]	n/a	FR1	1	R1292E
771.381	0.0	771753	RETRIEVAL_ORIENT_END	n/a	n/a	n/a	-999	4	[0, 0, 0]	n/a	FR1	1	R1292E
771.381	4.548	771753	REC_START	n/a	n/a	n/a	-999	4	[0, 0, 0]	n/a	FR1	1	R1292E
775.929	1.926	776300	REC_WORD	1.926	n/a	SKUNK	9	4	[0, 0, 0]	n/a	FR1	1	R1292E
777.855	1.451	778226	REC_WORD	1.451	n/a	PIG	1	4	[0, 0, 0]	n/a	FR1	1	R1292E
779.306	2.788	779677	REC_WORD	2.788	n/a	MOLE	6	4	[0, 0, 0]	n/a	FR1	1	R1292E
782.094	19.3	782465	REC_WORD	19.3	n/a	SCHOOL	3	4	[0, 0, 0]	n/a	FR1	1	R1292E
801.394	0.0	801765	REC_END	n/a	n/a	n/a	-999	4	[0, 0, 0]	n/a	FR1	1	R1292E
801.394	0.017	801765	TRIAL_END	n/a	n/a	n/a	-999	4	[0, 0, 0]	n/a	FR1	1	R1292E
801.411	0.0	801782	TRIAL_START	n/a	n/a	n/a	-999	5	[0, 0, 0]	n/a	FR1	1	R1292E
801.411	0.001	801782	TRIAL	n/a	n/a	n/a	-999	5	[0, 0, 0]	n/a	FR1	1	R1292E
801.412	5.942	801783	WAITING_START	n/a	n/a	n/a	-999	5	[0, 0, 0]	n/a	FR1	1	R1292E
807.354	0.0	807724	COUNTDOWN_START	n/a	n/a	n/a	-999	5	[0, 0, 0]	n/a	FR1	1	R1292E
807.354	10.428	807724	WAITING_END	n/a	n/a	n/a	-999	5	[0, 0, 0]	n/a	FR1	1	R1292E
817.782	0.001	818152	COUNTDOWN_END	n/a	n/a	n/a	-999	5	[0, 0, 0]	n/a	FR1	1	R1292E
817.783	1.04	818153	ORIENT_START	n/a	n/a	n/a	-999	5	[0, 0, 0]	n/a	FR1	1	R1292E
818.823	0.001	819193	ORIENT_END	n/a	n/a	n/a	-999	5	[0, 0, 0]	n/a	FR1	1	R1292E
818.824	0.997	819194	ENCODING_START	n/a	n/a	n/a	-999	5	[0, 0, 0]	n/a	FR1	1	R1292E
819.821	1.635	820191	WORD	n/a	n/a	JET	1	5	[0, 0, 0]	n/a	FR1	1	R1292E
821.456	0.945	821826	WORD_OFF	n/a	n/a	JET	1	5	[0, 0, 0]	n/a	FR1	1	R1292E
822.401	1.606	822771	WORD	n/a	n/a	COUCH	2	5	[0, 0, 0]	n/a	FR1	1	R1292E
824.007	0.945	824377	WORD_OFF	n/a	n/a	COUCH	2	5	[0, 0, 0]	n/a	FR1	1	R1292E
824.952	1.622	825322	WORD	n/a	n/a	GOLD	3	5	[0, 0, 0]	n/a	FR1	1	R1292E
826.574	0.988	826944	WORD_OFF	n/a	n/a	GOLD	3	5	[0, 0, 0]	n/a	FR1	1	R1292E
827.562	1.63	827932	WORD	n/a	n/a	TRASH	4	5	[0, 0, 0]	n/a	FR1	1	R1292E
829.192	1.029	829562	WORD_OFF	n/a	n/a	TRASH	4	5	[0, 0, 0]	n/a	FR1	1	R1292E
830.221	1.621	830591	WORD	n/a	n/a	BLUSH	5	5	[0, 0, 0]	n/a	FR1	1	R1292E
831.842	1.104	832212	WORD_OFF	n/a	n/a	BLUSH	5	5	[0, 0, 0]	n/a	FR1	1	R1292E
832.946	1.629	833315	WORD	n/a	n/a	FLUTE	6	5	[0, 0, 0]	n/a	FR1	1	R1292E
834.575	0.758	834944	WORD_OFF	n/a	n/a	FLUTE	6	5	[0, 0, 0]	n/a	FR1	1	R1292E
835.333	1.627	835702	WORD	n/a	n/a	PURSE	7	5	[0, 0, 0]	n/a	FR1	1	R1292E
836.96	0.998	837329	WORD_OFF	n/a	n/a	PURSE	7	5	[0, 0, 0]	n/a	FR1	1	R1292E
837.958	1.635	838327	WORD	n/a	n/a	NOSE	8	5	[0, 0, 0]	n/a	FR1	1	R1292E
839.593	1.131	839962	WORD_OFF	n/a	n/a	NOSE	8	5	[0, 0, 0]	n/a	FR1	1	R1292E
840.724	1.636	841093	WORD	n/a	n/a	FLAME	9	5	[0, 0, 0]	n/a	FR1	1	R1292E
842.36	1.0	842729	WORD_OFF	n/a	n/a	FLAME	9	5	[0, 0, 0]	n/a	FR1	1	R1292E
843.36	1.635	843729	WORD	n/a	n/a	MUD	10	5	[0, 0, 0]	n/a	FR1	1	R1292E
844.995	1.14	845364	WORD_OFF	n/a	n/a	MUD	10	5	[0, 0, 0]	n/a	FR1	1	R1292E
846.135	1.627	846504	WORD	n/a	n/a	WEED	11	5	[0, 0, 0]	n/a	FR1	1	R1292E
847.762	0.95	848131	WORD_OFF	n/a	n/a	WEED	11	5	[0, 0, 0]	n/a	FR1	1	R1292E
848.712	1.633	849081	WORD	n/a	n/a	SHELL	12	5	[0, 0, 0]	n/a	FR1	1	R1292E
850.345	0.0	850714	WORD_OFF	n/a	n/a	SHELL	12	5	[0, 0, 0]	n/a	FR1	1	R1292E
850.345	0.0	850714	ENCODING_END	n/a	n/a	n/a	-999	5	[0, 0, 0]	n/a	FR1	1	R1292E
850.345	0.0	850714	DISTRACT_START	n/a	n/a	n/a	-999	5	[0, 0, 0]	n/a	FR1	1	R1292E
850.345	0.016	850714	START	n/a	n/a	n/a	-999	5	[-999, -999, -999]	n/a	FR1	1	R1292E
850.361	23.972	850730	PROB	23.972	n/a	n/a	-999	5	[6, 5, 3]	16	FR1	1	R1292E
874.333	0.016	874701	STOP	n/a	n/a	n/a	-999	5	[-999, -999, -999]	n/a	FR1	1	R1292E
874.349	0.665	874717	DISTRACT_END	n/a	n/a	n/a	-999	5	[0, 0, 0]	n/a	FR1	1	R1292E
875.014	1.618	875382	RETRIEVAL_ORIENT_START	n/a	n/a	n/a	-999	5	[0, 0, 0]	n/a	FR1	1	R1292E
876.632	0.001	877000	RETRIEVAL_ORIENT_END	n/a	n/a	n/a	-999	5	[0, 0, 0]	n/a	FR1	1	R1292E
876.633	0.843	877001	REC_START	n/a	n/a	n/a	-999	5	[0, 0, 0]	n/a	FR1	1	R1292E
877.476	24.797	877844	REC_WORD	24.797	n/a	WEED	11	5	[0, 0, 0]	n/a	FR1	1	R1292E
902.273	4.372	902640	REC_WORD	4.372	n/a	MUD	10	5	[0, 0, 0]	n/a	FR1	1	R1292E
906.645	0.001	907012	REC_END	n/a	n/a	n/a	-999	5	[0, 0, 0]	n/a	FR1	1	R1292E
906.646	0.017	907013	TRIAL_END	n/a	n/a	n/a	-999	5	[0, 0, 0]	n/a	FR1	1	R1292E
906.663	0.0	907030	TRIAL_START	n/a	n/a	n/a	-999	6	[0, 0, 0]	n/a	FR1	1	R1292E
906.663	0.001	907030	TRIAL	n/a	n/a	n/a	-999	6	[0, 0, 0]	n/a	FR1	1	R1292E
906.664	81.688	907031	WAITING_START	n/a	n/a	n/a	-999	6	[0, 0, 0]	n/a	FR1	1	R1292E
988.352	0.0	988716	WAITING_END	n/a	n/a	n/a	-999	6	[0, 0, 0]	n/a	FR1	1	R1292E
988.352	10.43	988716	COUNTDOWN_START	n/a	n/a	n/a	-999	6	[0, 0, 0]	n/a	FR1	1	R1292E
998.782	0.0	999146	ORIENT_START	n/a	n/a	n/a	-999	6	[0, 0, 0]	n/a	FR1	1	R1292E
998.782	1.04	999146	COUNTDOWN_END	n/a	n/a	n/a	-999	6	[0, 0, 0]	n/a	FR1	1	R1292E
999.822	0.0	1000186	ORIENT_END	n/a	n/a	n/a	-999	6	[0, 0, 0]	n/a	FR1	1	R1292E
999.822	0.946	1000186	ENCODING_START	n/a	n/a	n/a	-999	6	[0, 0, 0]	n/a	FR1	1	R1292E
1000.768	1.62	1001132	WORD	n/a	n/a	BIRD	1	6	[0, 0, 0]	n/a	FR1	1	R1292E
1002.388	0.797	1002752	WORD_OFF	n/a	n/a	BIRD	1	6	[0, 0, 0]	n/a	FR1	1	R1292E
1003.185	1.621	1003548	WORD	n/a	n/a	NAIL	2	6	[0, 0, 0]	n/a	FR1	1	R1292E
1004.806	1.121	1005169	WORD_OFF	n/a	n/a	NAIL	2	6	[0, 0, 0]	n/a	FR1	1	R1292E
1005.927	1.628	1006290	WORD	n/a	n/a	CHIN	3	6	[0, 0, 0]	n/a	FR1	1	R1292E
1007.555	1.052	1007918	WORD_OFF	n/a	n/a	CHIN	3	6	[0, 0, 0]	n/a	FR1	1	R1292E
1008.607	1.632	1008970	WORD	n/a	n/a	GLOVE	4	6	[0, 0, 0]	n/a	FR1	1	R1292E
1010.239	0.924	1010602	WORD_OFF	n/a	n/a	GLOVE	4	6	[0, 0, 0]	n/a	FR1	1	R1292E
1011.163	1.628	1011526	WORD	n/a	n/a	PANTS	5	6	[0, 0, 0]	n/a	FR1	1	R1292E
1012.791	0.756	1013154	WORD_OFF	n/a	n/a	PANTS	5	6	[0, 0, 0]	n/a	FR1	1	R1292E
1013.547	1.611	1013910	WORD	n/a	n/a	SNAIL	6	6	[0, 0, 0]	n/a	FR1	1	R1292E
1015.158	0.793	1015521	WORD_OFF	n/a	n/a	SNAIL	6	6	[0, 0, 0]	n/a	FR1	1	R1292E
1015.951	1.623	1016314	WORD	n/a	n/a	BOOT	7	6	[0, 0, 0]	n/a	FR1	1	R1292E
1017.574	1.139	1017937	WORD_OFF	n/a	n/a	BOOT	7	6	[0, 0, 0]	n/a	FR1	1	R1292E
1018.713	1.628	1019076	WORD	n/a	n/a	SHRIMP	8	6	[0, 0, 0]	n/a	FR1	1	R1292E
1020.341	0.81	1020704	WORD_OFF	n/a	n/a	SHRIMP	8	6	[0, 0, 0]	n/a	FR1	1	R1292E
1021.151	1.625	1021514	WORD	n/a	n/a	LAMP	9	6	[0, 0, 0]	n/a	FR1	1	R1292E
1022.776	1.133	1023139	WORD_OFF	n/a	n/a	LAMP	9	6	[0, 0, 0]	n/a	FR1	1	R1292E
1023.909	1.633	1024272	WORD	n/a	n/a	CAVE	10	6	[0, 0, 0]	n/a	FR1	1	R1292E
1025.542	0.806	1025905	WORD_OFF	n/a	n/a	CAVE	10	6	[0, 0, 0]	n/a	FR1	1	R1292E
1026.348	1.629	1026711	WORD	n/a	n/a	SHIRT	11	6	[0, 0, 0]	n/a	FR1	1	R1292E
1027.977	0.916	1028340	WORD_OFF	n/a	n/a	SHIRT	11	6	[0, 0, 0]	n/a	FR1	1	R1292E
1028.893	1.633	1029256	WORD	n/a	n/a	HORSE	12	6	[0, 0, 0]	n/a	FR1	1	R1292E
1030.526	0.001	1030889	WORD_OFF	n/a	n/a	HORSE	12	6	[0, 0, 0]	n/a	FR1	1	R1292E
1030.527	0.0	1030890	DISTRACT_START	n/a	n/a	n/a	-999	6	[0, 0, 0]	n/a	FR1	1	R1292E
1030.527	0.0	1030890	ENCODING_END	n/a	n/a	n/a	-999	6	[0, 0, 0]	n/a	FR1	1	R1292E
1030.527	0.016	1030890	START	n/a	n/a	n/a	-999	6	[-999, -999, -999]	n/a	FR1	1	R1292E
1030.543	7.734	1030906	PROB	7.734	n/a	n/a	-999	6	[5, 3, 5]	13	FR1	1	R1292E
1038.277	6.569	1038639	PROB	6.569	n/a	n/a	-999	6	[6, 7, 7]	20	FR1	1	R1292E
1044.846	3.55	1045208	PROB	3.55	n/a	n/a	-999	6	[6, 4, 1]	11	FR1	1	R1292E
1048.396	3.369	1048758	PROB	3.369	n/a	n/a	-999	6	[4, 1, 9]	14	FR1	1	R1292E
1051.765	0.016	1052127	STOP	n/a	n/a	n/a	-999	6	[-999, -999, -999]	n/a	FR1	1	R1292E
1051.781	0.651	1052143	DISTRACT_END	n/a	n/a	n/a	-999	6	[0, 0, 0]	n/a	FR1	1	R1292E
1052.432	1.733	1052794	RETRIEVAL_ORIENT_START	n/a	n/a	n/a	-999	6	[0, 0, 0]	n/a	FR1	1	R1292E
1054.165	0.0	1054527	RETRIEVAL_ORIENT_END	n/a	n/a	n/a	-999	6	[0, 0, 0]	n/a	FR1	1	R1292E
1054.165	0.62	1054527	REC_START	n/a	n/a	n/a	-999	6	[0, 0, 0]	n/a	FR1	1	R1292E
1054.785	1.878	1055147	REC_WORD	1.878	n/a	HORSE	12	6	[0, 0, 0]	n/a	FR1	1	R1292E
1056.663	4.173	1057025	REC_WORD	4.173	n/a	SNAIL	6	6	[0, 0, 0]	n/a	FR1	1	R1292E
1060.836	23.341	1061197	REC_WORD	23.341	n/a	BIRD	1	6	[0, 0, 0]	n/a	FR1	1	R1292E
1084.177	0.001	1084538	REC_END	n/a	n/a	n/a	-999	6	[0, 0, 0]	n/a	FR1	1	R1292E
1084.178	0.017	1084539	TRIAL_END	n/a	n/a	n/a	-999	6	[0, 0, 0]	n/a	FR1	1	R1292E
1084.195	0.0	1084556	TRIAL_START	n/a	n/a	n/a	-999	7	[0, 0, 0]	n/a	FR1	1	R1292E
1084.195	0.0	1084556	TRIAL	n/a	n/a	n/a	-999	7	[0, 0, 0]	n/a	FR1	1	R1292E
1084.195	41.331	1084556	WAITING_START	n/a	n/a	n/a	-999	7	[0, 0, 0]	n/a	FR1	1	R1292E
1125.526	0.0	1125885	WAITING_END	n/a	n/a	n/a	-999	7	[0, 0, 0]	n/a	FR1	1	R1292E
1125.526	10.43	1125885	COUNTDOWN_START	n/a	n/a	n/a	-999	7	[0, 0, 0]	n/a	FR1	1	R1292E
1135.956	0.0	1136315	COUNTDOWN_END	n/a	n/a	n/a	-999	7	[0, 0, 0]	n/a	FR1	1	R1292E
1135.956	1.223	1136315	ORIENT_START	n/a	n/a	n/a	-999	7	[0, 0, 0]	n/a	FR1	1	R1292E
1137.179	0.0	1137538	ENCODING_START	n/a	n/a	n/a	-999	7	[0, 0, 0]	n/a	FR1	1	R1292E
1137.179	0.926	1137538	ORIENT_END	n/a	n/a	n/a	-999	7	[0, 0, 0]	n/a	FR1	1	R1292E
1138.105	1.625	1138464	WORD	n/a	n/a	LAWN	1	7	[0, 0, 0]	n/a	FR1	1	R1292E
1139.73	0.773	1140089	WORD_OFF	n/a	n/a	LAWN	1	7	[0, 0, 0]	n/a	FR1	1	R1292E
1140.503	1.627	1140862	WORD	n/a	n/a	HAWK	2	7	[0, 0, 0]	n/a	FR1	1	R1292E
1142.13	0.885	1142489	WORD_OFF	n/a	n/a	HAWK	2	7	[0, 0, 0]	n/a	FR1	1	R1292E
1143.015	1.631	1143374	WORD	n/a	n/a	GRASS	3	7	[0, 0, 0]	n/a	FR1	1	R1292E
1144.646	1.028	1145005	WORD_OFF	n/a	n/a	GRASS	3	7	[0, 0, 0]	n/a	FR1	1	R1292E
1145.674	1.623	1146032	WORD	n/a	n/a	ICE	4	7	[0, 0, 0]	n/a	FR1	1	R1292E
1147.297	0.881	1147655	WORD_OFF	n/a	n/a	ICE	4	7	[0, 0, 0]	n/a	FR1	1	R1292E
1148.178	1.62	1148536	WORD	n/a	n/a	CAR	5	7	[0, 0, 0]	n/a	FR1	1	R1292E
1149.798	1.04	1150156	WORD_OFF	n/a	n/a	CAR	5	7	[0, 0, 0]	n/a	FR1	1	R1292E
1150.838	1.626	1151196	WORD	n/a	n/a	SLEEVE	6	7	[0, 0, 0]	n/a	FR1	1	R1292E
1152.464	1.041	1152822	WORD_OFF	n/a	n/a	SLEEVE	6	7	[0, 0, 0]	n/a	FR1	1	R1292E
1153.505	1.61	1153863	WORD	n/a	n/a	PIT	7	7	[0, 0, 0]	n/a	FR1	1	R1292E
1155.115	0.881	1155473	WORD_OFF	n/a	n/a	PIT	7	7	[0, 0, 0]	n/a	FR1	1	R1292E
1155.996	1.636	1156354	WORD	n/a	n/a	CONE	8	7	[0, 0, 0]	n/a	FR1	1	R1292E
1157.632	1.068	1157990	WORD_OFF	n/a	n/a	CONE	8	7	[0, 0, 0]	n/a	FR1	1	R1292E
1158.7	1.632	1159058	WORD	n/a	n/a	CAT	9	7	[0, 0, 0]	n/a	FR1	1	R1292E
1160.332	1.047	1160690	WORD_OFF	n/a	n/a	CAT	9	7	[0, 0, 0]	n/a	FR1	1	R1292E
1161.379	1.638	1161737	WORD	n/a	n/a	DOOR	10	7	[0, 0, 0]	n/a	FR1	1	R1292E
1163.017	0.955	1163375	WORD_OFF	n/a	n/a	DOOR	10	7	[0, 0, 0]	n/a	FR1	1	R1292E
1163.972	1.628	1164330	WORD	n/a	n/a	PIE	11	7	[0, 0, 0]	n/a	FR1	1	R1292E
1165.6	1.034	1165958	WORD_OFF	n/a	n/a	PIE	11	7	[0, 0, 0]	n/a	FR1	1	R1292E
1166.634	1.633	1166992	WORD	n/a	n/a	CLIFF	12	7	[0, 0, 0]	n/a	FR1	1	R1292E
1168.267	0.0	1168625	WORD_OFF	n/a	n/a	CLIFF	12	7	[0, 0, 0]	n/a	FR1	1	R1292E
1168.267	0.001	1168625	ENCODING_END	n/a	n/a	n/a	-999	7	[0, 0, 0]	n/a	FR1	1	R1292E
1168.268	0.0	1168626	DISTRACT_START	n/a	n/a	n/a	-999	7	[0, 0, 0]	n/a	FR1	1	R1292E
1168.268	0.015	1168626	START	n/a	n/a	n/a	-999	7	[-999, -999, -999]	n/a	FR1	1	R1292E
1168.283	8.586	1168641	PROB	8.586	n/a	n/a	-999	7	[3, 6, 2]	11	FR1	1	R1292E
1176.869	7.384	1177226	PROB	7.384	n/a	n/a	-999	7	[6, 1, 3]	10	FR1	1	R1292E
1184.253	8.772	1184610	PROB	8.772	n/a	n/a	-999	7	[5, 6, 7]	18	FR1	1	R1292E
1193.025	0.014	1193382	STOP	n/a	n/a	n/a	-999	7	[-999, -999, -999]	n/a	FR1	1	R1292E
1193.039	0.604	1193396	DISTRACT_END	n/a	n/a	n/a	-999	7	[0, 0, 0]	n/a	FR1	1	R1292E
1193.643	1.595	1194000	RETRIEVAL_ORIENT_START	n/a	n/a	n/a	-999	7	[0, 0, 0]	n/a	FR1	1	R1292E
1195.238	0.001	1195595	RETRIEVAL_ORIENT_END	n/a	n/a	n/a	-999	7	[0, 0, 0]	n/a	FR1	1	R1292E
1195.239	0.608	1195596	REC_START	n/a	n/a	n/a	-999	7	[0, 0, 0]	n/a	FR1	1	R1292E
1195.847	1.299	1196204	REC_WORD	1.299	n/a	LAWN	1	7	[0, 0, 0]	n/a	FR1	1	R1292E
1197.146	1.506	1197503	REC_WORD	1.506	n/a	GRASS	3	7	[0, 0, 0]	n/a	FR1	1	R1292E
1198.652	3.065	1199009	REC_WORD	3.065	n/a	CLIFF	12	7	[0, 0, 0]	n/a	FR1	1	R1292E
1201.717	4.124	1202074	REC_WORD	4.124	n/a	CLIFF	12	7	[0, 0, 0]	n/a	FR1	1	R1292E
1205.841	19.41	1206197	REC_WORD	19.41	n/a	ICE	4	7	[0, 0, 0]	n/a	FR1	1	R1292E
1225.251	0.0	1225607	TRIAL_END	n/a	n/a	n/a	-999	7	[0, 0, 0]	n/a	FR1	1	R1292E
1225.251	0.017	1225607	REC_END	n/a	n/a	n/a	-999	7	[0, 0, 0]	n/a	FR1	1	R1292E
1225.268	0.0	1225624	TRIAL_START	n/a	n/a	n/a	-999	8	[0, 0, 0]	n/a	FR1	1	R1292E
1225.268	0.001	1225624	TRIAL	n/a	n/a	n/a	-999	8	[0, 0, 0]	n/a	FR1	1	R1292E
1225.269	279.024	1225625	WAITING_START	n/a	n/a	n/a	-999	8	[0, 0, 0]	n/a	FR1	1	R1292E
1504.293	0.0	1504639	WAITING_END	n/a	n/a	n/a	-999	8	[0, 0, 0]	n/a	FR1	1	R1292E
1504.293	10.428	1504639	COUNTDOWN_START	n/a	n/a	n/a	-999	8	[0, 0, 0]	n/a	FR1	1	R1292E
1514.721	0.0	1515067	COUNTDOWN_END	n/a	n/a	n/a	-999	8	[0, 0, 0]	n/a	FR1	1	R1292E
1514.721	1.191	1515067	ORIENT_START	n/a	n/a	n/a	-999	8	[0, 0, 0]	n/a	FR1	1	R1292E
1515.912	0.0	1516257	ENCODING_START	n/a	n/a	n/a	-999	8	[0, 0, 0]	n/a	FR1	1	R1292E
1515.912	1.067	1516257	ORIENT_END	n/a	n/a	n/a	-999	8	[0, 0, 0]	n/a	FR1	1	R1292E
1516.979	1.633	1517324	WORD	n/a	n/a	CLOUD	1	8	[0, 0, 0]	n/a	FR1	1	R1292E
1518.612	0.845	1518957	WORD_OFF	n/a	n/a	CLOUD	1	8	[0, 0, 0]	n/a	FR1	1	R1292E
1519.457	1.623	1519802	WORD	n/a	n/a	STRAW	2	8	[0, 0, 0]	n/a	FR1	1	R1292E
1521.08	1.116	1521425	WORD_OFF	n/a	n/a	STRAW	2	8	[0, 0, 0]	n/a	FR1	1	R1292E
1522.196	1.634	1522541	WORD	n/a	n/a	FROG	3	8	[0, 0, 0]	n/a	FR1	1	R1292E
1523.83	0.847	1524175	WORD_OFF	n/a	n/a	FROG	3	8	[0, 0, 0]	n/a	FR1	1	R1292E
1524.677	1.636	1525022	WORD	n/a	n/a	TEA	4	8	[0, 0, 0]	n/a	FR1	1	R1292E
1526.313	0.84	1526658	WORD_OFF	n/a	n/a	TEA	4	8	[0, 0, 0]	n/a	FR1	1	R1292E
1527.153	1.628	1527498	WORD	n/a	n/a	YARD	5	8	[0, 0, 0]	n/a	FR1	1	R1292E
1528.781	0.771	1529126	WORD_OFF	n/a	n/a	YARD	5	8	[0, 0, 0]	n/a	FR1	1	R1292E
1529.552	1.613	1529897	WORD	n/a	n/a	HOUSE	6	8	[0, 0, 0]	n/a	FR1	1	R1292E
1531.165	0.963	1531510	WORD_OFF	n/a	n/a	HOUSE	6	8	[0, 0, 0]	n/a	FR1	1	R1292E
1532.128	1.621	1532473	WORD	n/a	n/a	STORE	7	8	[0, 0, 0]	n/a	FR1	1	R1292E
1533.749	0.969	1534094	WORD_OFF	n/a	n/a	STORE	7	8	[0, 0, 0]	n/a	FR1	1	R1292E
1534.718	1.63	1535063	WORD	n/a	n/a	BREAD	8	8	[0, 0, 0]	n/a	FR1	1	R1292E
1536.348	0.979	1536693	WORD_OFF	n/a	n/a	BREAD	8	8	[0, 0, 0]	n/a	FR1	1	R1292E
1537.327	1.606	1537672	WORD	n/a	n/a	PASTE	9	8	[0, 0, 0]	n/a	FR1	1	R1292E
1538.933	0.854	1539278	WORD_OFF	n/a	n/a	PASTE	9	8	[0, 0, 0]	n/a	FR1	1	R1292E
1539.787	1.629	1540132	WORD	n/a	n/a	GEESE	10	8	[0, 0, 0]	n/a	FR1	1	R1292E
1541.416	0.839	1541761	WORD_OFF	n/a	n/a	GEESE	10	8	[0, 0, 0]	n/a	FR1	1	R1292E
1542.255	1.629	1542600	WORD	n/a	n/a	PLANE	11	8	[0, 0, 0]	n/a	FR1	1	R1292E
1543.884	0.901	1544228	WORD_OFF	n/a	n/a	PLANE	11	8	[0, 0, 0]	n/a	FR1	1	R1292E
1544.785	1.632	1545129	WORD	n/a	n/a	WALL	12	8	[0, 0, 0]	n/a	FR1	1	R1292E
1546.417	0.0	1546761	WORD_OFF	n/a	n/a	WALL	12	8	[0, 0, 0]	n/a	FR1	1	R1292E
1546.417	0.0	1546761	ENCODING_END	n/a	n/a	n/a	-999	8	[0, 0, 0]	n/a	FR1	1	R1292E
1546.417	0.0	1546761	DISTRACT_START	n/a	n/a	n/a	-999	8	[0, 0, 0]	n/a	FR1	1	R1292E
1546.417	0.016	1546761	START	n/a	n/a	n/a	-999	8	[-999, -999, -999]	n/a	FR1	1	R1292E
1546.433	5.851	1546777	PROB	5.851	n/a	n/a	-999	8	[8, 7, 2]	17	FR1	1	R1292E
1552.284	4.635	1552628	PROB	4.635	n/a	n/a	-999	8	[5, 6, 6]	17	FR1	1	R1292E
1556.919	3.5	1557263	PROB	3.5	n/a	n/a	-999	8	[3, 7, 1]	11	FR1	1	R1292E
1560.419	4.817	1560763	PROB	4.817	n/a	n/a	-999	8	[4, 2, 9]	15	FR1	1	R1292E
1565.236	5.848	1565580	PROB	5.848	n/a	n/a	-999	8	[9, 9, 5]	23	FR1	1	R1292E
1571.084	0.021	1571428	STOP	n/a	n/a	n/a	-999	8	[-999, -999, -999]	n/a	FR1	1	R1292E
1571.105	0.671	1571449	DISTRACT_END	n/a	n/a	n/a	-999	8	[0, 0, 0]	n/a	FR1	1	R1292E
1571.776	1.645	1572120	RETRIEVAL_ORIENT_START	n/a	n/a	n/a	-999	8	[0, 0, 0]	n/a	FR1	1	R1292E
1573.421	0.0	1573764	RETRIEVAL_ORIENT_END	n/a	n/a	n/a	-999	8	[0, 0, 0]	n/a	FR1	1	R1292E
1573.421	0.19	1573764	REC_START	n/a	n/a	n/a	-999	8	[0, 0, 0]	n/a	FR1	1	R1292E
1573.611	1.908	1573954	REC_WORD	1.908	n/a	CLOUD	1	8	[0, 0, 0]	n/a	FR1	1	R1292E
1575.519	2.956	1575862	REC_WORD	2.956	n/a	GEESE	10	8	[0, 0, 0]	n/a	FR1	1	R1292E
1578.475	7.323	1578818	REC_WORD	7.323	n/a	YARD	5	8	[0, 0, 0]	n/a	FR1	1	R1292E
1585.798	17.638	1586141	REC_WORD	17.638	n/a	HOUSE	6	8	[0, 0, 0]	n/a	FR1	1	R1292E
1603.436	0.0	1603778	TRIAL_END	n/a	n/a	n/a	-999	8	[0, 0, 0]	n/a	FR1	1	R1292E
1603.436	0.018	1603778	REC_END	n/a	n/a	n/a	-999	8	[0, 0, 0]	n/a	FR1	1	R1292E
1603.454	0.0	1603796	TRIAL_START	n/a	n/a	n/a	-999	9	[0, 0, 0]	n/a	FR1	1	R1292E
1603.454	0.0	1603796	TRIAL	n/a	n/a	n/a	-999	9	[0, 0, 0]	n/a	FR1	1	R1292E
1603.454	22.06	1603796	WAITING_START	n/a	n/a	n/a	-999	9	[0, 0, 0]	n/a	FR1	1	R1292E
1625.514	0.0	1625856	WAITING_END	n/a	n/a	n/a	-999	9	[0, 0, 0]	n/a	FR1	1	R1292E
1625.514	10.429	1625856	COUNTDOWN_START	n/a	n/a	n/a	-999	9	[0, 0, 0]	n/a	FR1	1	R1292E
1635.943	0.0	1636284	ORIENT_START	n/a	n/a	n/a	-999	9	[0, 0, 0]	n/a	FR1	1	R1292E
1635.943	1.107	1636284	COUNTDOWN_END	n/a	n/a	n/a	-999	9	[0, 0, 0]	n/a	FR1	1	R1292E
1637.05	0.0	1637391	ENCODING_START	n/a	n/a	n/a	-999	9	[0, 0, 0]	n/a	FR1	1	R1292E
1637.05	0.994	1637391	ORIENT_END	n/a	n/a	n/a	-999	9	[0, 0, 0]	n/a	FR1	1	R1292E
1638.044	1.622	1638385	WORD	n/a	n/a	TREE	1	9	[0, 0, 0]	n/a	FR1	1	R1292E
1639.666	1.01	1640007	WORD_OFF	n/a	n/a	TREE	1	9	[0, 0, 0]	n/a	FR1	1	R1292E
1640.676	1.624	1641017	WORD	n/a	n/a	JAR	2	9	[0, 0, 0]	n/a	FR1	1	R1292E
1642.3	0.894	1642641	WORD_OFF	n/a	n/a	JAR	2	9	[0, 0, 0]	n/a	FR1	1	R1292E
1643.194	1.624	1643535	WORD	n/a	n/a	RICE	3	9	[0, 0, 0]	n/a	FR1	1	R1292E
1644.818	0.843	1645159	WORD_OFF	n/a	n/a	RICE	3	9	[0, 0, 0]	n/a	FR1	1	R1292E
1645.661	1.623	1646002	WORD	n/a	n/a	BRICK	4	9	[0, 0, 0]	n/a	FR1	1	R1292E
1647.284	0.849	1647625	WORD_OFF	n/a	n/a	BRICK	4	9	[0, 0, 0]	n/a	FR1	1	R1292E
1648.133	1.636	1648474	WORD	n/a	n/a	DART	5	9	[0, 0, 0]	n/a	FR1	1	R1292E
1649.769	0.858	1650110	WORD_OFF	n/a	n/a	DART	5	9	[0, 0, 0]	n/a	FR1	1	R1292E
1650.627	1.625	1650968	WORD	n/a	n/a	CHIEF	6	9	[0, 0, 0]	n/a	FR1	1	R1292E
1652.252	0.972	1652593	WORD_OFF	n/a	n/a	CHIEF	6	9	[0, 0, 0]	n/a	FR1	1	R1292E
1653.224	1.629	1653565	WORD	n/a	n/a	WAVE	7	9	[0, 0, 0]	n/a	FR1	1	R1292E
1654.853	1.092	1655194	WORD_OFF	n/a	n/a	WAVE	7	9	[0, 0, 0]	n/a	FR1	1	R1292E
1655.945	1.624	1656286	WORD	n/a	n/a	POND	8	9	[0, 0, 0]	n/a	FR1	1	R1292E
1657.569	0.896	1657909	WORD_OFF	n/a	n/a	POND	8	9	[0, 0, 0]	n/a	FR1	1	R1292E
1658.465	1.606	1658805	WORD	n/a	n/a	STOVE	9	9	[0, 0, 0]	n/a	FR1	1	R1292E
1660.071	0.895	1660411	WORD_OFF	n/a	n/a	STOVE	9	9	[0, 0, 0]	n/a	FR1	1	R1292E
1660.966	1.621	1661306	WORD	n/a	n/a	PIN	10	9	[0, 0, 0]	n/a	FR1	1	R1292E
1662.587	1.142	1662927	WORD_OFF	n/a	n/a	PIN	10	9	[0, 0, 0]	n/a	FR1	1	R1292E
1663.729	1.625	1664069	WORD	n/a	n/a	PEACH	11	9	[0, 0, 0]	n/a	FR1	1	R1292E
1665.354	0.979	1665694	WORD_OFF	n/a	n/a	PEACH	11	9	[0, 0, 0]	n/a	FR1	1	R1292E
1666.333	1.606	1666673	WORD	n/a	n/a	POOL	12	9	[0, 0, 0]	n/a	FR1	1	R1292E
1667.939	0.0	1668279	WORD_OFF	n/a	n/a	POOL	12	9	[0, 0, 0]	n/a	FR1	1	R1292E
1667.939	0.0	1668279	ENCODING_END	n/a	n/a	n/a	-999	9	[0, 0, 0]	n/a	FR1	1	R1292E
1667.939	0.0	1668279	DISTRACT_START	n/a	n/a	n/a	-999	9	[0, 0, 0]	n/a	FR1	1	R1292E
1667.939	0.016	1668279	START	n/a	n/a	n/a	-999	9	[-999, -999, -999]	n/a	FR1	1	R1292E
1667.955	8.684	1668295	PROB	8.684	n/a	n/a	-999	9	[4, 6, 6]	16	FR1	1	R1292E
1676.639	5.285	1676979	PROB	5.285	n/a	n/a	-999	9	[5, 2, 8]	15	FR1	1	R1292E
1681.924	4.6	1682264	PROB	4.6	n/a	n/a	-999	9	[4, 5, 1]	10	FR1	1	R1292E
1686.524	6.606	1686863	PROB	6.606	n/a	n/a	-999	9	[5, 4, 2]	13	FR1	1	R1292E
1693.13	0.013	1693469	STOP	n/a	n/a	n/a	-999	9	[-999, -999, -999]	n/a	FR1	1	R1292E
1693.143	0.567	1693482	DISTRACT_END	n/a	n/a	n/a	-999	9	[0, 0, 0]	n/a	FR1	1	R1292E
1693.71	1.549	1694049	RETRIEVAL_ORIENT_START	n/a	n/a	n/a	-999	9	[0, 0, 0]	n/a	FR1	1	R1292E
1695.259	0.001	1695598	RETRIEVAL_ORIENT_END	n/a	n/a	n/a	-999	9	[0, 0, 0]	n/a	FR1	1	R1292E
1695.26	1.383	1695599	REC_START	n/a	n/a	n/a	-999	9	[0, 0, 0]	n/a	FR1	1	R1292E
1696.643	1.731	1696982	REC_WORD	1.731	n/a	PEACH	11	9	[0, 0, 0]	n/a	FR1	1	R1292E
1698.374	1.719	1698713	REC_WORD	1.719	n/a	TREE	1	9	[0, 0, 0]	n/a	FR1	1	R1292E
1700.093	1.662	1700432	REC_WORD	1.662	n/a	JAR	2	9	[0, 0, 0]	n/a	FR1	1	R1292E
1701.755	23.516	1702094	REC_WORD	23.516	n/a	RICE	3	9	[0, 0, 0]	n/a	FR1	1	R1292E
1725.271	0.001	1725609	REC_END	n/a	n/a	n/a	-999	9	[0, 0, 0]	n/a	FR1	1	R1292E
1725.272	0.017	1725610	TRIAL_END	n/a	n/a	n/a	-999	9	[0, 0, 0]	n/a	FR1	1	R1292E
1725.289	0.0	1725627	WAITING_START	n/a	n/a	n/a	-999	10	[0, 0, 0]	n/a	FR1	1	R1292E
1725.289	0.0	1725627	TRIAL_START	n/a	n/a	n/a	-999	10	[0, 0, 0]	n/a	FR1	1	R1292E
1725.289	15.446	1725627	TRIAL	n/a	n/a	n/a	-999	10	[0, 0, 0]	n/a	FR1	1	R1292E
1740.735	0.0	1741073	WAITING_END	n/a	n/a	n/a	-999	10	[0, 0, 0]	n/a	FR1	1	R1292E
1740.735	10.429	1741073	COUNTDOWN_START	n/a	n/a	n/a	-999	10	[0, 0, 0]	n/a	FR1	1	R1292E
1751.164	0.001	1751501	COUNTDOWN_END	n/a	n/a	n/a	-999	10	[0, 0, 0]	n/a	FR1	1	R1292E
1751.165	1.104	1751502	ORIENT_START	n/a	n/a	n/a	-999	10	[0, 0, 0]	n/a	FR1	1	R1292E
1752.269	0.001	1752606	ORIENT_END	n/a	n/a	n/a	-999	10	[0, 0, 0]	n/a	FR1	1	R1292E
1752.27	0.885	1752607	ENCODING_START	n/a	n/a	n/a	-999	10	[0, 0, 0]	n/a	FR1	1	R1292E
1753.155	1.632	1753492	WORD	n/a	n/a	BATH	1	10	[0, 0, 0]	n/a	FR1	1	R1292E
1754.787	0.857	1755124	WORD_OFF	n/a	n/a	BATH	1	10	[0, 0, 0]	n/a	FR1	1	R1292E
1755.644	1.626	1755981	WORD	n/a	n/a	SWORD	2	10	[0, 0, 0]	n/a	FR1	1	R1292E
1757.27	0.767	1757607	WORD_OFF	n/a	n/a	SWORD	2	10	[0, 0, 0]	n/a	FR1	1	R1292E
1758.037	1.634	1758374	WORD	n/a	n/a	LEG	3	10	[0, 0, 0]	n/a	FR1	1	R1292E
1759.671	1.0	1760008	WORD_OFF	n/a	n/a	LEG	3	10	[0, 0, 0]	n/a	FR1	1	R1292E
1760.671	1.633	1761008	WORD	n/a	n/a	HAND	4	10	[0, 0, 0]	n/a	FR1	1	R1292E
1762.304	1.009	1762641	WORD_OFF	n/a	n/a	HAND	4	10	[0, 0, 0]	n/a	FR1	1	R1292E
1763.313	1.626	1763650	WORD	n/a	n/a	BOOK	5	10	[0, 0, 0]	n/a	FR1	1	R1292E
1764.939	1.077	1765276	WORD_OFF	n/a	n/a	BOOK	5	10	[0, 0, 0]	n/a	FR1	1	R1292E
1766.016	1.623	1766353	WORD	n/a	n/a	FLOOR	6	10	[0, 0, 0]	n/a	FR1	1	R1292E
1767.639	1.15	1767976	WORD_OFF	n/a	n/a	FLOOR	6	10	[0, 0, 0]	n/a	FR1	1	R1292E
1768.789	1.633	1769126	WORD	n/a	n/a	OAR	7	10	[0, 0, 0]	n/a	FR1	1	R1292E
1770.422	1.113	1770759	WORD_OFF	n/a	n/a	OAR	7	10	[0, 0, 0]	n/a	FR1	1	R1292E
1771.535	1.605	1771871	WORD	n/a	n/a	STEM	8	10	[0, 0, 0]	n/a	FR1	1	R1292E
1773.14	1.062	1773476	WORD_OFF	n/a	n/a	STEM	8	10	[0, 0, 0]	n/a	FR1	1	R1292E
1774.202	1.622	1774538	WORD	n/a	n/a	KITE	9	10	[0, 0, 0]	n/a	FR1	1	R1292E
1775.824	0.879	1776160	WORD_OFF	n/a	n/a	KITE	9	10	[0, 0, 0]	n/a	FR1	1	R1292E
1776.703	1.621	1777039	WORD	n/a	n/a	GRAPE	10	10	[0, 0, 0]	n/a	FR1	1	R1292E
1778.324	0.793	1778660	WORD_OFF	n/a	n/a	GRAPE	10	10	[0, 0, 0]	n/a	FR1	1	R1292E
1779.117	1.625	1779453	WORD	n/a	n/a	MAP	11	10	[0, 0, 0]	n/a	FR1	1	R1292E
1780.742	1.003	1781078	WORD_OFF	n/a	n/a	MAP	11	10	[0, 0, 0]	n/a	FR1	1	R1292E
1781.745	1.63	1782081	WORD	n/a	n/a	CALF	12	10	[0, 0, 0]	n/a	FR1	1	R1292E
1783.375	0.0	1783711	WORD_OFF	n/a	n/a	CALF	12	10	[0, 0, 0]	n/a	FR1	1	R1292E
1783.375	0.0	1783711	ENCODING_END	n/a	n/a	n/a	-999	10	[0, 0, 0]	n/a	FR1	1	R1292E
1783.375	0.0	1783711	DISTRACT_START	n/a	n/a	n/a	-999	10	[0, 0, 0]	n/a	FR1	1	R1292E
1783.375	0.016	1783711	START	n/a	n/a	n/a	-999	10	[-999, -999, -999]	n/a	FR1	1	R1292E
1783.391	7.569	1783727	PROB	7.569	n/a	n/a	-999	10	[2, 1, 7]	11	FR1	1	R1292E
1790.96	7.417	1791296	PROB	7.417	n/a	n/a	-999	10	[9, 3, 5]	17	FR1	1	R1292E
1798.377	9.505	1798713	PROB	9.505	n/a	n/a	-999	10	[8, 8, 4]	20	FR1	1	R1292E
1807.882	0.015	1808217	STOP	n/a	n/a	n/a	-999	10	[-999, -999, -999]	n/a	FR1	1	R1292E
1807.897	0.647	1808232	DISTRACT_END	n/a	n/a	n/a	-999	10	[0, 0, 0]	n/a	FR1	1	R1292E
1808.544	1.686	1808879	RETRIEVAL_ORIENT_START	n/a	n/a	n/a	-999	10	[0, 0, 0]	n/a	FR1	1	R1292E
1810.23	0.001	1810565	RETRIEVAL_ORIENT_END	n/a	n/a	n/a	-999	10	[0, 0, 0]	n/a	FR1	1	R1292E
1810.231	0.753	1810566	REC_START	n/a	n/a	n/a	-999	10	[0, 0, 0]	n/a	FR1	1	R1292E
1810.984	0.881	1811319	REC_WORD	0.881	n/a	BOOK	5	10	[0, 0, 0]	n/a	FR1	1	R1292E
1811.865	2.474	1812200	REC_WORD	2.474	n/a	BATH	1	10	[0, 0, 0]	n/a	FR1	1	R1292E
1814.339	1.654	1814674	REC_WORD	1.654	n/a	LEG	3	10	[0, 0, 0]	n/a	FR1	1	R1292E
1815.993	1.3	1816328	REC_WORD	1.3	n/a	ARM	-999	10	[0, 0, 0]	n/a	FR1	1	R1292E
1817.293	12.924	1817628	REC_WORD	12.924	n/a	CALF	12	10	[0, 0, 0]	n/a	FR1	1	R1292E
1830.217	0.647	1830551	REC_WORD	0.647	n/a	GRAPE	10	10	[0, 0, 0]	n/a	FR1	1	R1292E
1830.864	9.378	1831198	REC_WORD	9.378	n/a	STEM	8	10	[0, 0, 0]	n/a	FR1	1	R1292E
1840.242	0.001	1840576	REC_END	n/a	n/a	n/a	-999	10	[0, 0, 0]	n/a	FR1	1	R1292E
1840.243	0.017	1840577	TRIAL_END	n/a	n/a	n/a	-999	10	[0, 0, 0]	n/a	FR1	1	R1292E
1840.26	0.0	1840594	TRIAL_START	n/a	n/a	n/a	-999	11	[0, 0, 0]	n/a	FR1	1	R1292E
1840.26	0.0	1840594	TRIAL	n/a	n/a	n/a	-999	11	[0, 0, 0]	n/a	FR1	1	R1292E
1840.26	125.698	1840594	WAITING_START	n/a	n/a	n/a	-999	11	[0, 0, 0]	n/a	FR1	1	R1292E
1965.958	0.0	1966288	WAITING_END	n/a	n/a	n/a	-999	11	[0, 0, 0]	n/a	FR1	1	R1292E
1965.958	10.429	1966288	COUNTDOWN_START	n/a	n/a	n/a	-999	11	[0, 0, 0]	n/a	FR1	1	R1292E
1976.387	0.0	1976716	COUNTDOWN_END	n/a	n/a	n/a	-999	11	[0, 0, 0]	n/a	FR1	1	R1292E
1976.387	1.205	1976716	ORIENT_START	n/a	n/a	n/a	-999	11	[0, 0, 0]	n/a	FR1	1	R1292E
1977.592	0.0	1977921	ENCODING_START	n/a	n/a	n/a	-999	11	[0, 0, 0]	n/a	FR1	1	R1292E
1977.592	0.887	1977921	ORIENT_END	n/a	n/a	n/a	-999	11	[0, 0, 0]	n/a	FR1	1	R1292E
1978.479	1.631	1978808	WORD	n/a	n/a	TENT	1	11	[0, 0, 0]	n/a	FR1	1	R1292E
1980.11	1.067	1980439	WORD_OFF	n/a	n/a	TENT	1	11	[0, 0, 0]	n/a	FR1	1	R1292E
1981.177	1.634	1981506	WORD	n/a	n/a	TIE	2	11	[0, 0, 0]	n/a	FR1	1	R1292E
1982.811	0.925	1983140	WORD_OFF	n/a	n/a	TIE	2	11	[0, 0, 0]	n/a	FR1	1	R1292E
1983.736	1.624	1984065	WORD	n/a	n/a	SLIME	3	11	[0, 0, 0]	n/a	FR1	1	R1292E
1985.36	0.751	1985689	WORD_OFF	n/a	n/a	SLIME	3	11	[0, 0, 0]	n/a	FR1	1	R1292E
1986.111	1.634	1986440	WORD	n/a	n/a	JEEP	4	11	[0, 0, 0]	n/a	FR1	1	R1292E
1987.745	0.952	1988074	WORD_OFF	n/a	n/a	JEEP	4	11	[0, 0, 0]	n/a	FR1	1	R1292E
1988.697	1.631	1989026	WORD	n/a	n/a	DOCK	5	11	[0, 0, 0]	n/a	FR1	1	R1292E
1990.328	0.987	1990657	WORD_OFF	n/a	n/a	DOCK	5	11	[0, 0, 0]	n/a	FR1	1	R1292E
1991.315	1.631	1991644	WORD	n/a	n/a	HORN	6	11	[0, 0, 0]	n/a	FR1	1	R1292E
1992.946	1.057	1993275	WORD_OFF	n/a	n/a	HORN	6	11	[0, 0, 0]	n/a	FR1	1	R1292E
1994.003	1.626	1994332	WORD	n/a	n/a	STORM	7	11	[0, 0, 0]	n/a	FR1	1	R1292E
1995.629	1.099	1995958	WORD_OFF	n/a	n/a	STORM	7	11	[0, 0, 0]	n/a	FR1	1	R1292E
1996.728	1.634	1997057	WORD	n/a	n/a	SNOW	8	11	[0, 0, 0]	n/a	FR1	1	R1292E
1998.362	0.804	1998691	WORD_OFF	n/a	n/a	SNOW	8	11	[0, 0, 0]	n/a	FR1	1	R1292E
1999.166	1.631	1999494	WORD	n/a	n/a	HEART	9	11	[0, 0, 0]	n/a	FR1	1	R1292E
2000.797	0.999	2001125	WORD_OFF	n/a	n/a	HEART	9	11	[0, 0, 0]	n/a	FR1	1	R1292E
2001.796	1.634	2002124	WORD	n/a	n/a	SQUARE	10	11	[0, 0, 0]	n/a	FR1	1	R1292E
2003.43	1.016	2003758	WORD_OFF	n/a	n/a	SQUARE	10	11	[0, 0, 0]	n/a	FR1	1	R1292E
2004.446	1.635	2004774	WORD	n/a	n/a	DIME	11	11	[0, 0, 0]	n/a	FR1	1	R1292E
2006.081	1.044	2006409	WORD_OFF	n/a	n/a	DIME	11	11	[0, 0, 0]	n/a	FR1	1	R1292E
2007.125	1.624	2007453	WORD	n/a	n/a	PLATE	12	11	[0, 0, 0]	n/a	FR1	1	R1292E
2008.749	0.0	2009077	WORD_OFF	n/a	n/a	PLATE	12	11	[0, 0, 0]	n/a	FR1	1	R1292E
2008.749	0.0	2009077	ENCODING_END	n/a	n/a	n/a	-999	11	[0, 0, 0]	n/a	FR1	1	R1292E
2008.749	0.0	2009077	DISTRACT_START	n/a	n/a	n/a	-999	11	[0, 0, 0]	n/a	FR1	1	R1292E
2008.749	0.016	2009077	START	n/a	n/a	n/a	-999	11	[-999, -999, -999]	n/a	FR1	1	R1292E
2008.765	8.035	2009093	PROB	8.035	n/a	n/a	-999	11	[2, 9, 8]	17	FR1	1	R1292E
2016.8	16.496	2017128	PROB	16.496	n/a	n/a	-999	11	[6, 5, 8]	19	FR1	1	R1292E
2033.296	0.023	2033623	STOP	n/a	n/a	n/a	-999	11	[-999, -999, -999]	n/a	FR1	1	R1292E
2033.319	0.572	2033646	DISTRACT_END	n/a	n/a	n/a	-999	11	[0, 0, 0]	n/a	FR1	1	R1292E
2033.891	1.595	2034218	RETRIEVAL_ORIENT_START	n/a	n/a	n/a	-999	11	[0, 0, 0]	n/a	FR1	1	R1292E
2035.486	0.0	2035813	RETRIEVAL_ORIENT_END	n/a	n/a	n/a	-999	11	[0, 0, 0]	n/a	FR1	1	R1292E
2035.486	1.046	2035813	REC_START	n/a	n/a	n/a	-999	11	[0, 0, 0]	n/a	FR1	1	R1292E
2036.532	0.796	2036859	REC_WORD	0.796	n/a	JEEP	4	11	[0, 0, 0]	n/a	FR1	1	R1292E
2037.328	0.691	2037655	REC_WORD	0.691	n/a	HORN	6	11	[0, 0, 0]	n/a	FR1	1	R1292E
2038.019	1.257	2038346	REC_WORD	1.257	n/a	SNOW	8	11	[0, 0, 0]	n/a	FR1	1	R1292E
2039.276	3.08	2039603	REC_WORD	3.08	n/a	STORM	7	11	[0, 0, 0]	n/a	FR1	1	R1292E
2042.356	6.682	2042683	REC_WORD	6.682	n/a	SLIME	3	11	[0, 0, 0]	n/a	FR1	1	R1292E
2049.038	1.119	2049365	REC_WORD	1.119	n/a	TENT	1	11	[0, 0, 0]	n/a	FR1	1	R1292E
2050.157	15.34	2050484	REC_WORD	15.34	n/a	TIE	2	11	[0, 0, 0]	n/a	FR1	1	R1292E
2065.497	0.001	2065823	REC_END	n/a	n/a	n/a	-999	11	[0, 0, 0]	n/a	FR1	1	R1292E
2065.498	0.017	2065824	TRIAL_END	n/a	n/a	n/a	-999	11	[0, 0, 0]	n/a	FR1	1	R1292E
2065.515	0.0	2065841	TRIAL_START	n/a	n/a	n/a	-999	12	[0, 0, 0]	n/a	FR1	1	R1292E
2065.515	0.0	2065841	TRIAL	n/a	n/a	n/a	-999	12	[0, 0, 0]	n/a	FR1	1	R1292E
2065.515	133.066	2065841	WAITING_START	n/a	n/a	n/a	-999	12	[0, 0, 0]	n/a	FR1	1	R1292E
2198.581	0.0	2198902	WAITING_END	n/a	n/a	n/a	-999	12	[0, 0, 0]	n/a	FR1	1	R1292E
2198.581	10.429	2198902	COUNTDOWN_START	n/a	n/a	n/a	-999	12	[0, 0, 0]	n/a	FR1	1	R1292E
2209.01	0.001	2209331	COUNTDOWN_END	n/a	n/a	n/a	-999	12	[0, 0, 0]	n/a	FR1	1	R1292E
2209.011	1.04	2209332	ORIENT_START	n/a	n/a	n/a	-999	12	[0, 0, 0]	n/a	FR1	1	R1292E
2210.051	0.0	2210372	ORIENT_END	n/a	n/a	n/a	-999	12	[0, 0, 0]	n/a	FR1	1	R1292E
2210.051	0.766	2210372	ENCODING_START	n/a	n/a	n/a	-999	12	[0, 0, 0]	n/a	FR1	1	R1292E
2210.817	1.633	2211138	WORD	n/a	n/a	CUP	1	12	[0, 0, 0]	n/a	FR1	1	R1292E
2212.45	0.809	2212771	WORD_OFF	n/a	n/a	CUP	1	12	[0, 0, 0]	n/a	FR1	1	R1292E
2213.259	1.626	2213580	WORD	n/a	n/a	RAKE	2	12	[0, 0, 0]	n/a	FR1	1	R1292E
2214.885	1.037	2215206	WORD_OFF	n/a	n/a	RAKE	2	12	[0, 0, 0]	n/a	FR1	1	R1292E
2215.922	1.629	2216243	WORD	n/a	n/a	PEARL	3	12	[0, 0, 0]	n/a	FR1	1	R1292E
2217.551	1.082	2217872	WORD_OFF	n/a	n/a	PEARL	3	12	[0, 0, 0]	n/a	FR1	1	R1292E
2218.633	1.635	2218954	WORD	n/a	n/a	BADGE	4	12	[0, 0, 0]	n/a	FR1	1	R1292E
2220.268	1.024	2220589	WORD_OFF	n/a	n/a	BADGE	4	12	[0, 0, 0]	n/a	FR1	1	R1292E
2221.292	1.627	2221613	WORD	n/a	n/a	HOOF	5	12	[0, 0, 0]	n/a	FR1	1	R1292E
2222.919	1.002	2223240	WORD_OFF	n/a	n/a	HOOF	5	12	[0, 0, 0]	n/a	FR1	1	R1292E
2223.921	1.631	2224242	WORD	n/a	n/a	ANT	6	12	[0, 0, 0]	n/a	FR1	1	R1292E
2225.552	0.978	2225873	WORD_OFF	n/a	n/a	ANT	6	12	[0, 0, 0]	n/a	FR1	1	R1292E
2226.53	1.624	2226850	WORD	n/a	n/a	FOG	7	12	[0, 0, 0]	n/a	FR1	1	R1292E
2228.154	0.919	2228474	WORD_OFF	n/a	n/a	FOG	7	12	[0, 0, 0]	n/a	FR1	1	R1292E
2229.073	1.631	2229393	WORD	n/a	n/a	SPRING	8	12	[0, 0, 0]	n/a	FR1	1	R1292E
2230.704	0.954	2231024	WORD_OFF	n/a	n/a	SPRING	8	12	[0, 0, 0]	n/a	FR1	1	R1292E
2231.658	1.629	2231978	WORD	n/a	n/a	BRUSH	9	12	[0, 0, 0]	n/a	FR1	1	R1292E
2233.287	0.758	2233607	WORD_OFF	n/a	n/a	BRUSH	9	12	[0, 0, 0]	n/a	FR1	1	R1292E
2234.045	1.626	2234365	WORD	n/a	n/a	TOE	10	12	[0, 0, 0]	n/a	FR1	1	R1292E
2235.671	0.99	2235991	WORD_OFF	n/a	n/a	TOE	10	12	[0, 0, 0]	n/a	FR1	1	R1292E
2236.661	1.627	2236981	WORD	n/a	n/a	COW	11	12	[0, 0, 0]	n/a	FR1	1	R1292E
2238.288	1.099	2238608	WORD_OFF	n/a	n/a	COW	11	12	[0, 0, 0]	n/a	FR1	1	R1292E
2239.387	1.636	2239707	WORD	n/a	n/a	RAT	12	12	[0, 0, 0]	n/a	FR1	1	R1292E
2241.023	0.0	2241343	DISTRACT_START	n/a	n/a	n/a	-999	12	[0, 0, 0]	n/a	FR1	1	R1292E
2241.023	0.0	2241343	ENCODING_END	n/a	n/a	n/a	-999	12	[0, 0, 0]	n/a	FR1	1	R1292E
2241.023	0.0	2241343	WORD_OFF	n/a	n/a	RAT	12	12	[0, 0, 0]	n/a	FR1	1	R1292E
2241.023	0.016	2241343	START	n/a	n/a	n/a	-999	12	[-999, -999, -999]	n/a	FR1	1	R1292E
2241.039	8.885	2241359	PROB	8.885	n/a	n/a	-999	12	[7, 4, 7]	18	FR1	1	R1292E
2249.924	11.847	2250244	PROB	11.847	n/a	n/a	-999	12	[8, 9, 3]	20	FR1	1	R1292E
2261.771	0.005	2262090	STOP	n/a	n/a	n/a	-999	12	[-999, -999, -999]	n/a	FR1	1	R1292E
2261.776	0.507	2262095	DISTRACT_END	n/a	n/a	n/a	-999	12	[0, 0, 0]	n/a	FR1	1	R1292E
2262.283	1.677	2262602	RETRIEVAL_ORIENT_START	n/a	n/a	n/a	-999	12	[0, 0, 0]	n/a	FR1	1	R1292E
2263.96	0.0	2264279	RETRIEVAL_ORIENT_END	n/a	n/a	n/a	-999	12	[0, 0, 0]	n/a	FR1	1	R1292E
2263.96	0.547	2264279	REC_START	n/a	n/a	n/a	-999	12	[0, 0, 0]	n/a	FR1	1	R1292E
2264.507	2.182	2264826	REC_WORD	2.182	n/a	CUP	1	12	[0, 0, 0]	n/a	FR1	1	R1292E
2266.689	27.284	2267008	REC_WORD	27.284	n/a	TOE	10	12	[0, 0, 0]	n/a	FR1	1	R1292E
2293.973	0.0	2294291	REC_END	n/a	n/a	n/a	-999	12	[0, 0, 0]	n/a	FR1	1	R1292E
2293.973	0.018	2294291	TRIAL_END	n/a	n/a	n/a	-999	12	[0, 0, 0]	n/a	FR1	1	R1292E
2293.991	0.0	2294309	TRIAL_START	n/a	n/a	n/a	-999	13	[0, 0, 0]	n/a	FR1	1	R1292E
2293.991	0.0	2294309	TRIAL	n/a	n/a	n/a	-999	13	[0, 0, 0]	n/a	FR1	1	R1292E
2293.991	16.36	2294309	WAITING_START	n/a	n/a	n/a	-999	13	[0, 0, 0]	n/a	FR1	1	R1292E
2310.351	0.0	2310669	WAITING_END	n/a	n/a	n/a	-999	13	[0, 0, 0]	n/a	FR1	1	R1292E
2310.351	10.429	2310669	COUNTDOWN_START	n/a	n/a	n/a	-999	13	[0, 0, 0]	n/a	FR1	1	R1292E
2320.78	0.0	2321097	COUNTDOWN_END	n/a	n/a	n/a	-999	13	[0, 0, 0]	n/a	FR1	1	R1292E
2320.78	1.224	2321097	ORIENT_START	n/a	n/a	n/a	-999	13	[0, 0, 0]	n/a	FR1	1	R1292E
2322.004	0.0	2322321	ENCODING_START	n/a	n/a	n/a	-999	13	[0, 0, 0]	n/a	FR1	1	R1292E
2322.004	0.937	2322321	ORIENT_END	n/a	n/a	n/a	-999	13	[0, 0, 0]	n/a	FR1	1	R1292E
2322.941	1.629	2323258	WORD	n/a	n/a	WORM	1	13	[0, 0, 0]	n/a	FR1	1	R1292E
2324.57	1.087	2324887	WORD_OFF	n/a	n/a	WORM	1	13	[0, 0, 0]	n/a	FR1	1	R1292E
2325.657	1.63	2325974	WORD	n/a	n/a	ROOF	2	13	[0, 0, 0]	n/a	FR1	1	R1292E
2327.287	0.947	2327604	WORD_OFF	n/a	n/a	ROOF	2	13	[0, 0, 0]	n/a	FR1	1	R1292E
2328.234	1.621	2328551	WORD	n/a	n/a	CLOWN	3	13	[0, 0, 0]	n/a	FR1	1	R1292E
2329.855	0.848	2330172	WORD_OFF	n/a	n/a	CLOWN	3	13	[0, 0, 0]	n/a	FR1	1	R1292E
2330.703	1.634	2331020	WORD	n/a	n/a	DRESS	4	13	[0, 0, 0]	n/a	FR1	1	R1292E
2332.337	0.831	2332654	WORD_OFF	n/a	n/a	DRESS	4	13	[0, 0, 0]	n/a	FR1	1	R1292E
2333.168	1.621	2333485	WORD	n/a	n/a	SEA	5	13	[0, 0, 0]	n/a	FR1	1	R1292E
2334.789	0.932	2335106	WORD_OFF	n/a	n/a	SEA	5	13	[0, 0, 0]	n/a	FR1	1	R1292E
2335.721	1.634	2336038	WORD	n/a	n/a	ROAD	6	13	[0, 0, 0]	n/a	FR1	1	R1292E
2337.355	0.834	2337672	WORD_OFF	n/a	n/a	ROAD	6	13	[0, 0, 0]	n/a	FR1	1	R1292E
2338.189	1.634	2338506	WORD	n/a	n/a	FAN	7	13	[0, 0, 0]	n/a	FR1	1	R1292E
2339.823	1.092	2340139	WORD_OFF	n/a	n/a	FAN	7	13	[0, 0, 0]	n/a	FR1	1	R1292E
2340.915	1.625	2341231	WORD	n/a	n/a	MAT	8	13	[0, 0, 0]	n/a	FR1	1	R1292E
2342.54	0.749	2342856	WORD_OFF	n/a	n/a	MAT	8	13	[0, 0, 0]	n/a	FR1	1	R1292E
2343.289	1.635	2343605	WORD	n/a	n/a	EAR	9	13	[0, 0, 0]	n/a	FR1	1	R1292E
2344.924	0.967	2345240	WORD_OFF	n/a	n/a	EAR	9	13	[0, 0, 0]	n/a	FR1	1	R1292E
2345.891	1.633	2346207	WORD	n/a	n/a	STONE	10	13	[0, 0, 0]	n/a	FR1	1	R1292E
2347.524	1.036	2347840	WORD_OFF	n/a	n/a	STONE	10	13	[0, 0, 0]	n/a	FR1	1	R1292E
2348.56	1.632	2348876	WORD	n/a	n/a	SHEEP	11	13	[0, 0, 0]	n/a	FR1	1	R1292E
2350.192	0.977	2350508	WORD_OFF	n/a	n/a	SHEEP	11	13	[0, 0, 0]	n/a	FR1	1	R1292E
2351.169	1.623	2351485	WORD	n/a	n/a	CAPE	12	13	[0, 0, 0]	n/a	FR1	1	R1292E
2352.792	0.001	2353108	WORD_OFF	n/a	n/a	CAPE	12	13	[0, 0, 0]	n/a	FR1	1	R1292E
2352.793	0.0	2353109	ENCODING_END	n/a	n/a	n/a	-999	13	[0, 0, 0]	n/a	FR1	1	R1292E
2352.793	0.0	2353109	DISTRACT_START	n/a	n/a	n/a	-999	13	[0, 0, 0]	n/a	FR1	1	R1292E
2352.793	0.016	2353109	START	n/a	n/a	n/a	-999	13	[-999, -999, -999]	n/a	FR1	1	R1292E
2352.809	5.766	2353125	PROB	5.766	n/a	n/a	-999	13	[2, 2, 3]	7	FR1	1	R1292E
2358.575	2.951	2358891	PROB	2.951	n/a	n/a	-999	13	[5, 2, 5]	12	FR1	1	R1292E
2361.526	3.435	2361842	PROB	3.435	n/a	n/a	-999	13	[6, 1, 6]	13	FR1	1	R1292E
2364.961	10.55	2365277	PROB	10.55	n/a	n/a	-999	13	[5, 7, 6]	18	FR1	1	R1292E
2375.511	0.018	2375826	STOP	n/a	n/a	n/a	-999	13	[-999, -999, -999]	n/a	FR1	1	R1292E
2375.529	0.521	2375844	DISTRACT_END	n/a	n/a	n/a	-999	13	[0, 0, 0]	n/a	FR1	1	R1292E
2376.05	1.647	2376365	RETRIEVAL_ORIENT_START	n/a	n/a	n/a	-999	13	[0, 0, 0]	n/a	FR1	1	R1292E
2377.697	0.0	2378012	RETRIEVAL_ORIENT_END	n/a	n/a	n/a	-999	13	[0, 0, 0]	n/a	FR1	1	R1292E
2377.697	0.99	2378012	REC_START	n/a	n/a	n/a	-999	13	[0, 0, 0]	n/a	FR1	1	R1292E
2378.687	1.803	2379002	REC_WORD	1.803	n/a	CLOWN	3	13	[0, 0, 0]	n/a	FR1	1	R1292E
2380.49	4.618	2380805	REC_WORD	4.618	n/a	DRESS	4	13	[0, 0, 0]	n/a	FR1	1	R1292E
2385.108	2.518	2385423	REC_WORD	2.518	n/a	MAT	8	13	[0, 0, 0]	n/a	FR1	1	R1292E
2387.626	20.082	2387941	REC_WORD	20.082	n/a	SHEEP	11	13	[0, 0, 0]	n/a	FR1	1	R1292E
2407.708	0.0	2408022	TRIAL_END	n/a	n/a	n/a	-999	13	[0, 0, 0]	n/a	FR1	1	R1292E
2407.708	0.017	2408022	REC_END	n/a	n/a	n/a	-999	13	[0, 0, 0]	n/a	FR1	1	R1292E
2407.725	0.0	2408039	TRIAL_START	n/a	n/a	n/a	-999	14	[0, 0, 0]	n/a	FR1	1	R1292E
2407.725	0.001	2408039	TRIAL	n/a	n/a	n/a	-999	14	[0, 0, 0]	n/a	FR1	1	R1292E
2407.726	84.374	2408040	WAITING_START	n/a	n/a	n/a	-999	14	[0, 0, 0]	n/a	FR1	1	R1292E
2492.1	0.0	2492411	WAITING_END	n/a	n/a	n/a	-999	14	[0, 0, 0]	n/a	FR1	1	R1292E
2492.1	10.429	2492411	COUNTDOWN_START	n/a	n/a	n/a	-999	14	[0, 0, 0]	n/a	FR1	1	R1292E
2502.529	0.0	2502840	COUNTDOWN_END	n/a	n/a	n/a	-999	14	[0, 0, 0]	n/a	FR1	1	R1292E
2502.529	1.24	2502840	ORIENT_START	n/a	n/a	n/a	-999	14	[0, 0, 0]	n/a	FR1	1	R1292E
2503.769	0.0	2504080	ENCODING_START	n/a	n/a	n/a	-999	14	[0, 0, 0]	n/a	FR1	1	R1292E
2503.769	1.011	2504080	ORIENT_END	n/a	n/a	n/a	-999	14	[0, 0, 0]	n/a	FR1	1	R1292E
2504.78	1.622	2505091	WORD	n/a	n/a	TRUCK	1	14	[0, 0, 0]	n/a	FR1	1	R1292E
2506.402	0.877	2506713	WORD_OFF	n/a	n/a	TRUCK	1	14	[0, 0, 0]	n/a	FR1	1	R1292E
2507.279	1.624	2507590	WORD	n/a	n/a	CLOTH	2	14	[0, 0, 0]	n/a	FR1	1	R1292E
2508.903	0.871	2509214	WORD_OFF	n/a	n/a	CLOTH	2	14	[0, 0, 0]	n/a	FR1	1	R1292E
2509.774	1.628	2510085	WORD	n/a	n/a	JAIL	3	14	[0, 0, 0]	n/a	FR1	1	R1292E
2511.402	1.09	2511712	WORD_OFF	n/a	n/a	JAIL	3	14	[0, 0, 0]	n/a	FR1	1	R1292E
2512.492	1.629	2512802	WORD	n/a	n/a	FLAG	4	14	[0, 0, 0]	n/a	FR1	1	R1292E
2514.121	1.113	2514431	WORD_OFF	n/a	n/a	FLAG	4	14	[0, 0, 0]	n/a	FR1	1	R1292E
2515.234	1.603	2515544	WORD	n/a	n/a	PEA	5	14	[0, 0, 0]	n/a	FR1	1	R1292E
2516.837	0.983	2517147	WORD_OFF	n/a	n/a	PEA	5	14	[0, 0, 0]	n/a	FR1	1	R1292E
2517.82	1.634	2518130	WORD	n/a	n/a	NET	6	14	[0, 0, 0]	n/a	FR1	1	R1292E
2519.454	0.756	2519764	WORD_OFF	n/a	n/a	NET	6	14	[0, 0, 0]	n/a	FR1	1	R1292E
2520.21	1.629	2520520	WORD	n/a	n/a	HAT	7	14	[0, 0, 0]	n/a	FR1	1	R1292E
2521.839	0.813	2522149	WORD_OFF	n/a	n/a	HAT	7	14	[0, 0, 0]	n/a	FR1	1	R1292E
2522.652	1.636	2522962	WORD	n/a	n/a	SPOON	8	14	[0, 0, 0]	n/a	FR1	1	R1292E
2524.288	0.881	2524598	WORD_OFF	n/a	n/a	SPOON	8	14	[0, 0, 0]	n/a	FR1	1	R1292E
2525.169	1.637	2525479	WORD	n/a	n/a	SOAP	9	14	[0, 0, 0]	n/a	FR1	1	R1292E
2526.806	0.883	2527116	WORD_OFF	n/a	n/a	SOAP	9	14	[0, 0, 0]	n/a	FR1	1	R1292E
2527.689	1.633	2527999	WORD	n/a	n/a	FOX	10	14	[0, 0, 0]	n/a	FR1	1	R1292E
2529.322	0.858	2529632	WORD_OFF	n/a	n/a	FOX	10	14	[0, 0, 0]	n/a	FR1	1	R1292E
2530.18	1.627	2530490	WORD	n/a	n/a	BANK	11	14	[0, 0, 0]	n/a	FR1	1	R1292E
2531.807	1.017	2532117	WORD_OFF	n/a	n/a	BANK	11	14	[0, 0, 0]	n/a	FR1	1	R1292E
2532.824	1.632	2533134	WORD	n/a	n/a	EGG	12	14	[0, 0, 0]	n/a	FR1	1	R1292E
2534.456	0.001	2534766	WORD_OFF	n/a	n/a	EGG	12	14	[0, 0, 0]	n/a	FR1	1	R1292E
2534.457	0.0	2534767	ENCODING_END	n/a	n/a	n/a	-999	14	[0, 0, 0]	n/a	FR1	1	R1292E
2534.457	0.0	2534767	DISTRACT_START	n/a	n/a	n/a	-999	14	[0, 0, 0]	n/a	FR1	1	R1292E
2534.457	0.016	2534767	START	n/a	n/a	n/a	-999	14	[-999, -999, -999]	n/a	FR1	1	R1292E
2534.473	11.835	2534783	PROB	11.835	n/a	n/a	-999	14	[4, 9, 2]	15	FR1	1	R1292E
2546.308	8.784	2546617	PROB	8.784	n/a	n/a	-999	14	[8, 4, 1]	13	FR1	1	R1292E
2555.092	0.019	2555401	STOP	n/a	n/a	n/a	-999	14	[-999, -999, -999]	n/a	FR1	1	R1292E
2555.111	0.526	2555420	DISTRACT_END	n/a	n/a	n/a	-999	14	[0, 0, 0]	n/a	FR1	1	R1292E
2555.637	1.558	2555946	RETRIEVAL_ORIENT_START	n/a	n/a	n/a	-999	14	[0, 0, 0]	n/a	FR1	1	R1292E
2557.195	0.0	2557504	RETRIEVAL_ORIENT_END	n/a	n/a	n/a	-999	14	[0, 0, 0]	n/a	FR1	1	R1292E
2557.195	0.692	2557504	REC_START	n/a	n/a	n/a	-999	14	[0, 0, 0]	n/a	FR1	1	R1292E
2557.887	1.723	2558196	REC_WORD	1.723	n/a	JAIL	3	14	[0, 0, 0]	n/a	FR1	1	R1292E
2559.61	27.598	2559919	REC_WORD	27.598	n/a	TRUCK	1	14	[0, 0, 0]	n/a	FR1	1	R1292E
2587.208	0.0	2587516	REC_END	n/a	n/a	n/a	-999	14	[0, 0, 0]	n/a	FR1	1	R1292E
2587.208	0.017	2587516	TRIAL_END	n/a	n/a	n/a	-999	14	[0, 0, 0]	n/a	FR1	1	R1292E
2587.225	0.0	2587533	TRIAL_START	n/a	n/a	n/a	-999	15	[0, 0, 0]	n/a	FR1	1	R1292E
2587.225	0.001	2587533	TRIAL	n/a	n/a	n/a	-999	15	[0, 0, 0]	n/a	FR1	1	R1292E
2587.226	18.41	2587534	WAITING_START	n/a	n/a	n/a	-999	15	[0, 0, 0]	n/a	FR1	1	R1292E
2605.636	0.0	2605943	WAITING_END	n/a	n/a	n/a	-999	15	[0, 0, 0]	n/a	FR1	1	R1292E
2605.636	10.429	2605943	COUNTDOWN_START	n/a	n/a	n/a	-999	15	[0, 0, 0]	n/a	FR1	1	R1292E
2616.065	0.0	2616372	COUNTDOWN_END	n/a	n/a	n/a	-999	15	[0, 0, 0]	n/a	FR1	1	R1292E
2616.065	1.024	2616372	ORIENT_START	n/a	n/a	n/a	-999	15	[0, 0, 0]	n/a	FR1	1	R1292E
2617.089	0.0	2617396	ORIENT_END	n/a	n/a	n/a	-999	15	[0, 0, 0]	n/a	FR1	1	R1292E
2617.089	0.829	2617396	ENCODING_START	n/a	n/a	n/a	-999	15	[0, 0, 0]	n/a	FR1	1	R1292E
2617.918	1.62	2618225	WORD	n/a	n/a	CART	1	15	[0, 0, 0]	n/a	FR1	1	R1292E
2619.538	0.993	2619845	WORD_OFF	n/a	n/a	CART	1	15	[0, 0, 0]	n/a	FR1	1	R1292E
2620.531	1.625	2620838	WORD	n/a	n/a	STICK	2	15	[0, 0, 0]	n/a	FR1	1	R1292E
2622.156	0.758	2622463	WORD_OFF	n/a	n/a	STICK	2	15	[0, 0, 0]	n/a	FR1	1	R1292E
2622.914	1.625	2623221	WORD	n/a	n/a	TOY	3	15	[0, 0, 0]	n/a	FR1	1	R1292E
2624.539	1.096	2624845	WORD_OFF	n/a	n/a	TOY	3	15	[0, 0, 0]	n/a	FR1	1	R1292E
2625.635	1.621	2625941	WORD	n/a	n/a	RUG	4	15	[0, 0, 0]	n/a	FR1	1	R1292E
2627.256	0.791	2627562	WORD_OFF	n/a	n/a	RUG	4	15	[0, 0, 0]	n/a	FR1	1	R1292E
2628.047	1.626	2628353	WORD	n/a	n/a	SKI	5	15	[0, 0, 0]	n/a	FR1	1	R1292E
2629.673	1.087	2629979	WORD_OFF	n/a	n/a	SKI	5	15	[0, 0, 0]	n/a	FR1	1	R1292E
2630.76	1.63	2631066	WORD	n/a	n/a	INK	6	15	[0, 0, 0]	n/a	FR1	1	R1292E
2632.39	0.872	2632696	WORD_OFF	n/a	n/a	INK	6	15	[0, 0, 0]	n/a	FR1	1	R1292E
2633.262	1.63	2633568	WORD	n/a	n/a	PLANT	7	15	[0, 0, 0]	n/a	FR1	1	R1292E
2634.892	0.837	2635198	WORD_OFF	n/a	n/a	PLANT	7	15	[0, 0, 0]	n/a	FR1	1	R1292E
2635.729	1.629	2636035	WORD	n/a	n/a	BLOOM	8	15	[0, 0, 0]	n/a	FR1	1	R1292E
2637.358	1.133	2637664	WORD_OFF	n/a	n/a	BLOOM	8	15	[0, 0, 0]	n/a	FR1	1	R1292E
2638.491	1.635	2638797	WORD	n/a	n/a	SPARK	9	15	[0, 0, 0]	n/a	FR1	1	R1292E
2640.126	0.993	2640432	WORD_OFF	n/a	n/a	SPARK	9	15	[0, 0, 0]	n/a	FR1	1	R1292E
2641.119	1.624	2641425	WORD	n/a	n/a	VINE	10	15	[0, 0, 0]	n/a	FR1	1	R1292E
2642.743	1.116	2643049	WORD_OFF	n/a	n/a	VINE	10	15	[0, 0, 0]	n/a	FR1	1	R1292E
2643.859	1.634	2644165	WORD	n/a	n/a	THREAD	11	15	[0, 0, 0]	n/a	FR1	1	R1292E
2645.493	0.856	2645799	WORD_OFF	n/a	n/a	THREAD	11	15	[0, 0, 0]	n/a	FR1	1	R1292E
2646.349	1.612	2646655	WORD	n/a	n/a	FRUIT	12	15	[0, 0, 0]	n/a	FR1	1	R1292E
2647.961	0.0	2648267	WORD_OFF	n/a	n/a	FRUIT	12	15	[0, 0, 0]	n/a	FR1	1	R1292E
2647.961	0.0	2648267	ENCODING_END	n/a	n/a	n/a	-999	15	[0, 0, 0]	n/a	FR1	1	R1292E
2647.961	0.0	2648267	DISTRACT_START	n/a	n/a	n/a	-999	15	[0, 0, 0]	n/a	FR1	1	R1292E
2647.961	0.016	2648267	START	n/a	n/a	n/a	-999	15	[-999, -999, -999]	n/a	FR1	1	R1292E
2647.977	16.086	2648283	PROB	16.086	n/a	n/a	-999	15	[5, 9, 4]	18	FR1	1	R1292E
2664.063	10.77	2664368	PROB	10.77	n/a	n/a	-999	15	[5, 8, 6]	19	FR1	1	R1292E
2674.833	0.016	2675138	STOP	n/a	n/a	n/a	-999	15	[-999, -999, -999]	n/a	FR1	1	R1292E
2674.849	0.519	2675154	DISTRACT_END	n/a	n/a	n/a	-999	15	[0, 0, 0]	n/a	FR1	1	R1292E
2675.368	1.648	2675673	RETRIEVAL_ORIENT_START	n/a	n/a	n/a	-999	15	[0, 0, 0]	n/a	FR1	1	R1292E
2677.016	0.0	2677321	REC_START	n/a	n/a	n/a	-999	15	[0, 0, 0]	n/a	FR1	1	R1292E
2677.016	1.437	2677321	RETRIEVAL_ORIENT_END	n/a	n/a	n/a	-999	15	[0, 0, 0]	n/a	FR1	1	R1292E
2678.453	1.709	2678758	REC_WORD	1.709	n/a	PLANT	7	15	[0, 0, 0]	n/a	FR1	1	R1292E
2680.162	1.897	2680467	REC_WORD	1.897	n/a	BLOOM	8	15	[0, 0, 0]	n/a	FR1	1	R1292E
2682.059	24.973	2682363	REC_WORD	24.973	n/a	SPARK	9	15	[0, 0, 0]	n/a	FR1	1	R1292E
2707.032	0.0	2707336	REC_END	n/a	n/a	n/a	-999	15	[0, 0, 0]	n/a	FR1	1	R1292E
2707.032	0.017	2707336	TRIAL_END	n/a	n/a	n/a	-999	15	[0, 0, 0]	n/a	FR1	1	R1292E
2707.049	0.001	2707353	TRIAL_START	n/a	n/a	n/a	-999	16	[0, 0, 0]	n/a	FR1	1	R1292E
2707.05	0.0	2707354	WAITING_START	n/a	n/a	n/a	-999	16	[0, 0, 0]	n/a	FR1	1	R1292E
2707.05	123.208	2707354	TRIAL	n/a	n/a	n/a	-999	16	[0, 0, 0]	n/a	FR1	1	R1292E
2830.258	0.001	2830557	WAITING_END	n/a	n/a	n/a	-999	16	[0, 0, 0]	n/a	FR1	1	R1292E
2830.259	10.429	2830558	COUNTDOWN_START	n/a	n/a	n/a	-999	16	[0, 0, 0]	n/a	FR1	1	R1292E
2840.688	0.001	2840987	COUNTDOWN_END	n/a	n/a	n/a	-999	16	[0, 0, 0]	n/a	FR1	1	R1292E
2840.689	1.056	2840988	ORIENT_START	n/a	n/a	n/a	-999	16	[0, 0, 0]	n/a	FR1	1	R1292E
2841.745	0.0	2842044	ORIENT_END	n/a	n/a	n/a	-999	16	[0, 0, 0]	n/a	FR1	1	R1292E
2841.745	0.797	2842044	ENCODING_START	n/a	n/a	n/a	-999	16	[0, 0, 0]	n/a	FR1	1	R1292E
2842.542	1.62	2842841	WORD	n/a	n/a	ARK	1	16	[0, 0, 0]	n/a	FR1	1	R1292E
2844.162	0.963	2844461	WORD_OFF	n/a	n/a	ARK	1	16	[0, 0, 0]	n/a	FR1	1	R1292E
2845.125	1.621	2845424	WORD	n/a	n/a	ZOO	2	16	[0, 0, 0]	n/a	FR1	1	R1292E
2846.746	0.872	2847045	WORD_OFF	n/a	n/a	ZOO	2	16	[0, 0, 0]	n/a	FR1	1	R1292E
2847.618	1.627	2847917	WORD	n/a	n/a	MOON	3	16	[0, 0, 0]	n/a	FR1	1	R1292E
2849.245	1.021	2849544	WORD_OFF	n/a	n/a	MOON	3	16	[0, 0, 0]	n/a	FR1	1	R1292E
2850.266	1.614	2850565	WORD	n/a	n/a	VAN	4	16	[0, 0, 0]	n/a	FR1	1	R1292E
2851.88	0.762	2852178	WORD_OFF	n/a	n/a	VAN	4	16	[0, 0, 0]	n/a	FR1	1	R1292E
2852.642	1.637	2852940	WORD	n/a	n/a	LAND	5	16	[0, 0, 0]	n/a	FR1	1	R1292E
2854.279	0.863	2854577	WORD_OFF	n/a	n/a	LAND	5	16	[0, 0, 0]	n/a	FR1	1	R1292E
2855.142	1.622	2855440	WORD	n/a	n/a	JUDGE	6	16	[0, 0, 0]	n/a	FR1	1	R1292E
2856.764	0.758	2857062	WORD_OFF	n/a	n/a	JUDGE	6	16	[0, 0, 0]	n/a	FR1	1	R1292E
2857.522	1.626	2857820	WORD	n/a	n/a	HOLE	7	16	[0, 0, 0]	n/a	FR1	1	R1292E
2859.148	1.103	2859446	WORD_OFF	n/a	n/a	HOLE	7	16	[0, 0, 0]	n/a	FR1	1	R1292E
2860.251	1.631	2860549	WORD	n/a	n/a	FLEA	8	16	[0, 0, 0]	n/a	FR1	1	R1292E
2861.882	1.023	2862180	WORD_OFF	n/a	n/a	FLEA	8	16	[0, 0, 0]	n/a	FR1	1	R1292E
2862.905	1.626	2863203	WORD	n/a	n/a	PALM	9	16	[0, 0, 0]	n/a	FR1	1	R1292E
2864.531	1.027	2864829	WORD_OFF	n/a	n/a	PALM	9	16	[0, 0, 0]	n/a	FR1	1	R1292E
2865.558	1.608	2865856	WORD	n/a	n/a	TOOL	10	16	[0, 0, 0]	n/a	FR1	1	R1292E
2867.166	1.098	2867464	WORD_OFF	n/a	n/a	TOOL	10	16	[0, 0, 0]	n/a	FR1	1	R1292E
2868.264	1.636	2868562	WORD	n/a	n/a	PHONE	11	16	[0, 0, 0]	n/a	FR1	1	R1292E
2869.9	0.788	2870198	WORD_OFF	n/a	n/a	PHONE	11	16	[0, 0, 0]	n/a	FR1	1	R1292E
2870.688	1.628	2870986	WORD	n/a	n/a	BEE	12	16	[0, 0, 0]	n/a	FR1	1	R1292E
2872.316	0.0	2872614	WORD_OFF	n/a	n/a	BEE	12	16	[0, 0, 0]	n/a	FR1	1	R1292E
2872.316	0.001	2872614	ENCODING_END	n/a	n/a	n/a	-999	16	[0, 0, 0]	n/a	FR1	1	R1292E
2872.317	0.0	2872615	DISTRACT_START	n/a	n/a	n/a	-999	16	[0, 0, 0]	n/a	FR1	1	R1292E
2872.317	0.015	2872615	START	n/a	n/a	n/a	-999	16	[-999, -999, -999]	n/a	FR1	1	R1292E
2872.332	6.952	2872630	PROB	6.952	n/a	n/a	-999	16	[4, 2, 3]	9	FR1	1	R1292E
2879.284	3.167	2879582	PROB	3.167	n/a	n/a	-999	16	[1, 5, 9]	15	FR1	1	R1292E
2882.451	3.934	2882748	PROB	3.934	n/a	n/a	-999	16	[3, 2, 8]	13	FR1	1	R1292E
2886.385	2.9	2886682	PROB	2.9	n/a	n/a	-999	16	[2, 1, 9]	12	FR1	1	R1292E
2889.285	4.643	2889582	PROB	4.643	n/a	n/a	-999	16	[2, 2, 5]	9	FR1	1	R1292E
2893.928	0.009	2894225	STOP	n/a	n/a	n/a	-999	16	[-999, -999, -999]	n/a	FR1	1	R1292E
2893.937	0.557	2894234	DISTRACT_END	n/a	n/a	n/a	-999	16	[0, 0, 0]	n/a	FR1	1	R1292E
2894.494	1.677	2894791	RETRIEVAL_ORIENT_START	n/a	n/a	n/a	-999	16	[0, 0, 0]	n/a	FR1	1	R1292E
2896.171	0.0	2896468	RETRIEVAL_ORIENT_END	n/a	n/a	n/a	-999	16	[0, 0, 0]	n/a	FR1	1	R1292E
2896.171	0.217	2896468	REC_START	n/a	n/a	n/a	-999	16	[0, 0, 0]	n/a	FR1	1	R1292E
2896.388	1.509	2896685	REC_WORD	1.509	n/a	HOLE	7	16	[0, 0, 0]	n/a	FR1	1	R1292E
2897.897	1.639	2898194	REC_WORD	1.639	n/a	FLEA	8	16	[0, 0, 0]	n/a	FR1	1	R1292E
2899.536	1.491	2899833	REC_WORD	1.491	n/a	ZOO	2	16	[0, 0, 0]	n/a	FR1	1	R1292E
2901.027	9.268	2901324	REC_WORD	9.268	n/a	ARK	1	16	[0, 0, 0]	n/a	FR1	1	R1292E
2910.295	15.889	2910591	REC_WORD	15.889	n/a	BEE	12	16	[0, 0, 0]	n/a	FR1	1	R1292E
2926.184	0.001	2926480	REC_END	n/a	n/a	n/a	-999	16	[0, 0, 0]	n/a	FR1	1	R1292E
2926.185	0.017	2926481	TRIAL_END	n/a	n/a	n/a	-999	16	[0, 0, 0]	n/a	FR1	1	R1292E
2926.202	0.0	2926498	TRIAL_START	n/a	n/a	n/a	-999	17	[0, 0, 0]	n/a	FR1	1	R1292E
2926.202	0.0	2926498	TRIAL	n/a	n/a	n/a	-999	17	[0, 0, 0]	n/a	FR1	1	R1292E
2926.202	4.992	2926498	WAITING_START	n/a	n/a	n/a	-999	17	[0, 0, 0]	n/a	FR1	1	R1292E
2931.194	0.0	2931490	COUNTDOWN_START	n/a	n/a	n/a	-999	17	[0, 0, 0]	n/a	FR1	1	R1292E
2931.194	10.429	2931490	WAITING_END	n/a	n/a	n/a	-999	17	[0, 0, 0]	n/a	FR1	1	R1292E
2941.623	0.0	2941918	COUNTDOWN_END	n/a	n/a	n/a	-999	17	[0, 0, 0]	n/a	FR1	1	R1292E
2941.623	1.24	2941918	ORIENT_START	n/a	n/a	n/a	-999	17	[0, 0, 0]	n/a	FR1	1	R1292E
2942.863	0.0	2943158	ORIENT_END	n/a	n/a	n/a	-999	17	[0, 0, 0]	n/a	FR1	1	R1292E
2942.863	1.085	2943158	ENCODING_START	n/a	n/a	n/a	-999	17	[0, 0, 0]	n/a	FR1	1	R1292E
2943.948	1.631	2944243	WORD	n/a	n/a	CAKE	1	17	[0, 0, 0]	n/a	FR1	1	R1292E
2945.579	1.107	2945874	WORD_OFF	n/a	n/a	CAKE	1	17	[0, 0, 0]	n/a	FR1	1	R1292E
2946.686	1.627	2946981	WORD	n/a	n/a	FACE	2	17	[0, 0, 0]	n/a	FR1	1	R1292E
2948.313	0.937	2948608	WORD_OFF	n/a	n/a	FACE	2	17	[0, 0, 0]	n/a	FR1	1	R1292E
2949.25	1.614	2949545	WORD	n/a	n/a	BOX	3	17	[0, 0, 0]	n/a	FR1	1	R1292E
2950.864	0.79	2951159	WORD_OFF	n/a	n/a	BOX	3	17	[0, 0, 0]	n/a	FR1	1	R1292E
2951.654	1.626	2951949	WORD	n/a	n/a	SUIT	4	17	[0, 0, 0]	n/a	FR1	1	R1292E
2953.28	0.989	2953575	WORD_OFF	n/a	n/a	SUIT	4	17	[0, 0, 0]	n/a	FR1	1	R1292E
2954.269	1.629	2954564	WORD	n/a	n/a	SLUSH	5	17	[0, 0, 0]	n/a	FR1	1	R1292E
2955.898	0.959	2956193	WORD_OFF	n/a	n/a	SLUSH	5	17	[0, 0, 0]	n/a	FR1	1	R1292E
2956.857	1.624	2957152	WORD	n/a	n/a	FORT	6	17	[0, 0, 0]	n/a	FR1	1	R1292E
2958.481	0.92	2958776	WORD_OFF	n/a	n/a	FORT	6	17	[0, 0, 0]	n/a	FR1	1	R1292E
2959.401	1.615	2959696	WORD	n/a	n/a	CASH	7	17	[0, 0, 0]	n/a	FR1	1	R1292E
2961.016	0.876	2961311	WORD_OFF	n/a	n/a	CASH	7	17	[0, 0, 0]	n/a	FR1	1	R1292E
2961.892	1.623	2962187	WORD	n/a	n/a	POLE	8	17	[0, 0, 0]	n/a	FR1	1	R1292E
2963.515	0.873	2963810	WORD_OFF	n/a	n/a	POLE	8	17	[0, 0, 0]	n/a	FR1	1	R1292E
2964.388	1.612	2964683	WORD	n/a	n/a	HOSE	9	17	[0, 0, 0]	n/a	FR1	1	R1292E
2966.0	1.04	2966294	WORD_OFF	n/a	n/a	HOSE	9	17	[0, 0, 0]	n/a	FR1	1	R1292E
2967.04	1.626	2967334	WORD	n/a	n/a	SMILE	10	17	[0, 0, 0]	n/a	FR1	1	R1292E
2968.666	0.951	2968960	WORD_OFF	n/a	n/a	SMILE	10	17	[0, 0, 0]	n/a	FR1	1	R1292E
2969.617	1.617	2969911	WORD	n/a	n/a	COIN	11	17	[0, 0, 0]	n/a	FR1	1	R1292E
2971.234	0.969	2971528	WORD_OFF	n/a	n/a	COIN	11	17	[0, 0, 0]	n/a	FR1	1	R1292E
2972.203	1.632	2972497	WORD	n/a	n/a	OAK	12	17	[0, 0, 0]	n/a	FR1	1	R1292E
2973.835	0.0	2974129	WORD_OFF	n/a	n/a	OAK	12	17	[0, 0, 0]	n/a	FR1	1	R1292E
2973.835	0.0	2974129	ENCODING_END	n/a	n/a	n/a	-999	17	[0, 0, 0]	n/a	FR1	1	R1292E
2973.835	0.0	2974129	DISTRACT_START	n/a	n/a	n/a	-999	17	[0, 0, 0]	n/a	FR1	1	R1292E
2973.835	0.016	2974129	START	n/a	n/a	n/a	-999	17	[-999, -999, -999]	n/a	FR1	1	R1292E
2973.851	5.717	2974145	PROB	5.717	n/a	n/a	-999	17	[1, 5, 3]	9	FR1	1	R1292E
2979.568	4.518	2979862	PROB	4.518	n/a	n/a	-999	17	[2, 4, 9]	15	FR1	1	R1292E
2984.086	5.384	2984380	PROB	5.384	n/a	n/a	-999	17	[3, 8, 8]	19	FR1	1	R1292E
2989.47	6.431	2989764	PROB	6.431	n/a	n/a	-999	17	[9, 6, 4]	19	FR1	1	R1292E
2995.901	0.021	2996194	STOP	n/a	n/a	n/a	-999	17	[-999, -999, -999]	n/a	FR1	1	R1292E
2995.922	0.701	2996215	DISTRACT_END	n/a	n/a	n/a	-999	17	[0, 0, 0]	n/a	FR1	1	R1292E
2996.623	1.682	2996916	RETRIEVAL_ORIENT_START	n/a	n/a	n/a	-999	17	[0, 0, 0]	n/a	FR1	1	R1292E
2998.305	0.0	2998598	RETRIEVAL_ORIENT_END	n/a	n/a	n/a	-999	17	[0, 0, 0]	n/a	FR1	1	R1292E
2998.305	2.451	2998598	REC_START	n/a	n/a	n/a	-999	17	[0, 0, 0]	n/a	FR1	1	R1292E
3000.756	27.561	3001049	REC_WORD	27.561	n/a	POLE	8	17	[0, 0, 0]	n/a	FR1	1	R1292E
3028.317	0.001	3028609	REC_END	n/a	n/a	n/a	-999	17	[0, 0, 0]	n/a	FR1	1	R1292E
3028.318	0.016	3028610	TRIAL_END	n/a	n/a	n/a	-999	17	[0, 0, 0]	n/a	FR1	1	R1292E
3028.334	0.001	3028626	TRIAL_START	n/a	n/a	n/a	-999	18	[0, 0, 0]	n/a	FR1	1	R1292E
3028.335	0.0	3028627	TRIAL	n/a	n/a	n/a	-999	18	[0, 0, 0]	n/a	FR1	1	R1292E
3028.335	13.662	3028627	WAITING_START	n/a	n/a	n/a	-999	18	[0, 0, 0]	n/a	FR1	1	R1292E
3041.997	0.0	3042289	WAITING_END	n/a	n/a	n/a	-999	18	[0, 0, 0]	n/a	FR1	1	R1292E
3041.997	10.429	3042289	COUNTDOWN_START	n/a	n/a	n/a	-999	18	[0, 0, 0]	n/a	FR1	1	R1292E
3052.426	0.0	3052717	COUNTDOWN_END	n/a	n/a	n/a	-999	18	[0, 0, 0]	n/a	FR1	1	R1292E
3052.426	1.105	3052717	ORIENT_START	n/a	n/a	n/a	-999	18	[0, 0, 0]	n/a	FR1	1	R1292E
3053.531	0.0	3053822	ENCODING_START	n/a	n/a	n/a	-999	18	[0, 0, 0]	n/a	FR1	1	R1292E
3053.531	1.144	3053822	ORIENT_END	n/a	n/a	n/a	-999	18	[0, 0, 0]	n/a	FR1	1	R1292E
3054.675	1.623	3054966	WORD	n/a	n/a	CLAY	1	18	[0, 0, 0]	n/a	FR1	1	R1292E
3056.298	1.084	3056589	WORD_OFF	n/a	n/a	CLAY	1	18	[0, 0, 0]	n/a	FR1	1	R1292E
3057.382	1.634	3057673	WORD	n/a	n/a	MAZE	2	18	[0, 0, 0]	n/a	FR1	1	R1292E
3059.016	0.761	3059307	WORD_OFF	n/a	n/a	MAZE	2	18	[0, 0, 0]	n/a	FR1	1	R1292E
3059.777	1.622	3060068	WORD	n/a	n/a	EEL	3	18	[0, 0, 0]	n/a	FR1	1	R1292E
3061.399	0.781	3061690	WORD_OFF	n/a	n/a	EEL	3	18	[0, 0, 0]	n/a	FR1	1	R1292E
3062.18	1.637	3062471	WORD	n/a	n/a	WORLD	4	18	[0, 0, 0]	n/a	FR1	1	R1292E
3063.817	1.064	3064108	WORD_OFF	n/a	n/a	WORLD	4	18	[0, 0, 0]	n/a	FR1	1	R1292E
3064.881	1.635	3065172	WORD	n/a	n/a	SEAL	5	18	[0, 0, 0]	n/a	FR1	1	R1292E
3066.516	0.818	3066807	WORD_OFF	n/a	n/a	SEAL	5	18	[0, 0, 0]	n/a	FR1	1	R1292E
3067.334	1.634	3067625	WORD	n/a	n/a	SOCK	6	18	[0, 0, 0]	n/a	FR1	1	R1292E
3068.968	0.765	3069259	WORD_OFF	n/a	n/a	SOCK	6	18	[0, 0, 0]	n/a	FR1	1	R1292E
3069.733	1.635	3070024	WORD	n/a	n/a	MOOSE	7	18	[0, 0, 0]	n/a	FR1	1	R1292E
3071.368	1.118	3071659	WORD_OFF	n/a	n/a	MOOSE	7	18	[0, 0, 0]	n/a	FR1	1	R1292E
3072.486	1.633	3072777	WORD	n/a	n/a	CUBE	8	18	[0, 0, 0]	n/a	FR1	1	R1292E
3074.119	0.799	3074410	WORD_OFF	n/a	n/a	CUBE	8	18	[0, 0, 0]	n/a	FR1	1	R1292E
3074.918	1.634	3075209	WORD	n/a	n/a	TOAST	9	18	[0, 0, 0]	n/a	FR1	1	R1292E
3076.552	1.031	3076843	WORD_OFF	n/a	n/a	TOAST	9	18	[0, 0, 0]	n/a	FR1	1	R1292E
3077.583	1.637	3077874	WORD	n/a	n/a	DESK	10	18	[0, 0, 0]	n/a	FR1	1	R1292E
3079.22	0.911	3079511	WORD_OFF	n/a	n/a	DESK	10	18	[0, 0, 0]	n/a	FR1	1	R1292E
3080.131	1.623	3080421	WORD	n/a	n/a	CANE	11	18	[0, 0, 0]	n/a	FR1	1	R1292E
3081.754	1.088	3082044	WORD_OFF	n/a	n/a	CANE	11	18	[0, 0, 0]	n/a	FR1	1	R1292E
3082.842	1.628	3083132	WORD	n/a	n/a	CHAIR	12	18	[0, 0, 0]	n/a	FR1	1	R1292E
3084.47	0.0	3084760	WORD_OFF	n/a	n/a	CHAIR	12	18	[0, 0, 0]	n/a	FR1	1	R1292E
3084.47	0.0	3084760	ENCODING_END	n/a	n/a	n/a	-999	18	[0, 0, 0]	n/a	FR1	1	R1292E
3084.47	0.001	3084760	DISTRACT_START	n/a	n/a	n/a	-999	18	[0, 0, 0]	n/a	FR1	1	R1292E
3084.471	0.015	3084761	START	n/a	n/a	n/a	-999	18	[-999, -999, -999]	n/a	FR1	1	R1292E
3084.486	6.168	3084776	PROB	6.168	n/a	n/a	-999	18	[8, 1, 1]	10	FR1	1	R1292E
3090.654	5.452	3090944	PROB	5.452	n/a	n/a	-999	18	[4, 3, 5]	12	FR1	1	R1292E
3096.106	2.383	3096396	PROB	2.383	n/a	n/a	-999	18	[2, 1, 9]	12	FR1	1	R1292E
3098.489	2.95	3098779	PROB	2.95	n/a	n/a	-999	18	[8, 4, 4]	16	FR1	1	R1292E
3101.439	4.971	3101729	PROB	4.971	n/a	n/a	-999	18	[5, 7, 7]	19	FR1	1	R1292E
3106.41	0.014	3106700	STOP	n/a	n/a	n/a	-999	18	[-999, -999, -999]	n/a	FR1	1	R1292E
3106.424	0.662	3106714	DISTRACT_END	n/a	n/a	n/a	-999	18	[0, 0, 0]	n/a	FR1	1	R1292E
3107.086	1.622	3107376	RETRIEVAL_ORIENT_START	n/a	n/a	n/a	-999	18	[0, 0, 0]	n/a	FR1	1	R1292E
3108.708	0.001	3108997	RETRIEVAL_ORIENT_END	n/a	n/a	n/a	-999	18	[0, 0, 0]	n/a	FR1	1	R1292E
3108.709	0.35	3108998	REC_START	n/a	n/a	n/a	-999	18	[0, 0, 0]	n/a	FR1	1	R1292E
3109.059	0.884	3109348	REC_WORD	0.884	n/a	EEL	3	18	[0, 0, 0]	n/a	FR1	1	R1292E
3109.943	1.227	3110232	REC_WORD	1.227	n/a	SEAL	5	18	[0, 0, 0]	n/a	FR1	1	R1292E
3111.17	15.167	3111459	REC_WORD	15.167	n/a	MOOSE	7	18	[0, 0, 0]	n/a	FR1	1	R1292E
3126.337	12.384	3126626	REC_WORD	12.384	n/a	WORLD	4	18	[0, 0, 0]	n/a	FR1	1	R1292E
3138.721	0.0	3139009	TRIAL_END	n/a	n/a	n/a	-999	18	[0, 0, 0]	n/a	FR1	1	R1292E
3138.721	0.017	3139009	REC_END	n/a	n/a	n/a	-999	18	[0, 0, 0]	n/a	FR1	1	R1292E
3138.738	0.0	3139026	TRIAL_START	n/a	n/a	n/a	-999	19	[0, 0, 0]	n/a	FR1	1	R1292E
3138.738	0.0	3139026	TRIAL	n/a	n/a	n/a	-999	19	[0, 0, 0]	n/a	FR1	1	R1292E
3138.738	17.611	3139026	WAITING_START	n/a	n/a	n/a	-999	19	[0, 0, 0]	n/a	FR1	1	R1292E
3156.349	0.0	3156637	WAITING_END	n/a	n/a	n/a	-999	19	[0, 0, 0]	n/a	FR1	1	R1292E
3156.349	10.429	3156637	COUNTDOWN_START	n/a	n/a	n/a	-999	19	[0, 0, 0]	n/a	FR1	1	R1292E
3166.778	0.001	3167065	COUNTDOWN_END	n/a	n/a	n/a	-999	19	[0, 0, 0]	n/a	FR1	1	R1292E
3166.779	1.156	3167066	ORIENT_START	n/a	n/a	n/a	-999	19	[0, 0, 0]	n/a	FR1	1	R1292E
3167.935	0.001	3168222	ORIENT_END	n/a	n/a	n/a	-999	19	[0, 0, 0]	n/a	FR1	1	R1292E
3167.936	1.114	3168223	ENCODING_START	n/a	n/a	n/a	-999	19	[0, 0, 0]	n/a	FR1	1	R1292E
3169.05	1.635	3169337	WORD	n/a	n/a	SMOKE	1	19	[0, 0, 0]	n/a	FR1	1	R1292E
3170.685	1.112	3170972	WORD_OFF	n/a	n/a	SMOKE	1	19	[0, 0, 0]	n/a	FR1	1	R1292E
3171.797	1.622	3172084	WORD	n/a	n/a	CHEEK	2	19	[0, 0, 0]	n/a	FR1	1	R1292E
3173.419	1.146	3173706	WORD_OFF	n/a	n/a	CHEEK	2	19	[0, 0, 0]	n/a	FR1	1	R1292E
3174.565	1.622	3174852	WORD	n/a	n/a	THUMB	3	19	[0, 0, 0]	n/a	FR1	1	R1292E
3176.187	1.098	3176474	WORD_OFF	n/a	n/a	THUMB	3	19	[0, 0, 0]	n/a	FR1	1	R1292E
3177.285	1.636	3177572	WORD	n/a	n/a	APE	4	19	[0, 0, 0]	n/a	FR1	1	R1292E
3178.921	0.833	3179208	WORD_OFF	n/a	n/a	APE	4	19	[0, 0, 0]	n/a	FR1	1	R1292E
3179.754	1.633	3180041	WORD	n/a	n/a	TOAD	5	19	[0, 0, 0]	n/a	FR1	1	R1292E
3181.387	1.128	3181674	WORD_OFF	n/a	n/a	TOAD	5	19	[0, 0, 0]	n/a	FR1	1	R1292E
3182.515	1.623	3182802	WORD	n/a	n/a	TANK	6	19	[0, 0, 0]	n/a	FR1	1	R1292E
3184.138	0.977	3184425	WORD_OFF	n/a	n/a	TANK	6	19	[0, 0, 0]	n/a	FR1	1	R1292E
3185.115	1.624	3185402	WORD	n/a	n/a	TOOTH	7	19	[0, 0, 0]	n/a	FR1	1	R1292E
3186.739	0.767	3187026	WORD_OFF	n/a	n/a	TOOTH	7	19	[0, 0, 0]	n/a	FR1	1	R1292E
3187.506	1.633	3187793	WORD	n/a	n/a	FILM	8	19	[0, 0, 0]	n/a	FR1	1	R1292E
3189.139	0.959	3189426	WORD_OFF	n/a	n/a	FILM	8	19	[0, 0, 0]	n/a	FR1	1	R1292E
3190.098	1.625	3190385	WORD	n/a	n/a	SKY	9	19	[0, 0, 0]	n/a	FR1	1	R1292E
3191.723	0.864	3192010	WORD_OFF	n/a	n/a	SKY	9	19	[0, 0, 0]	n/a	FR1	1	R1292E
3192.587	1.62	3192874	WORD	n/a	n/a	DITCH	10	19	[0, 0, 0]	n/a	FR1	1	R1292E
3194.207	1.109	3194493	WORD_OFF	n/a	n/a	DITCH	10	19	[0, 0, 0]	n/a	FR1	1	R1292E
3195.316	1.608	3195602	WORD	n/a	n/a	KEY	11	19	[0, 0, 0]	n/a	FR1	1	R1292E
3196.924	0.86	3197210	WORD_OFF	n/a	n/a	KEY	11	19	[0, 0, 0]	n/a	FR1	1	R1292E
3197.784	1.623	3198070	WORD	n/a	n/a	STOOL	12	19	[0, 0, 0]	n/a	FR1	1	R1292E
3199.407	0.0	3199693	WORD_OFF	n/a	n/a	STOOL	12	19	[0, 0, 0]	n/a	FR1	1	R1292E
3199.407	0.0	3199693	ENCODING_END	n/a	n/a	n/a	-999	19	[0, 0, 0]	n/a	FR1	1	R1292E
3199.407	0.0	3199693	DISTRACT_START	n/a	n/a	n/a	-999	19	[0, 0, 0]	n/a	FR1	1	R1292E
3199.407	0.016	3199693	START	n/a	n/a	n/a	-999	19	[-999, -999, -999]	n/a	FR1	1	R1292E
3199.423	6.286	3199709	PROB	6.286	n/a	n/a	-999	19	[7, 4, 3]	14	FR1	1	R1292E
3205.709	5.933	3205995	PROB	5.933	n/a	n/a	-999	19	[8, 1, 4]	13	FR1	1	R1292E
3211.642	7.569	3211928	PROB	7.569	n/a	n/a	-999	19	[9, 2, 2]	13	FR1	1	R1292E
3219.211	5.353	3219497	PROB	5.353	n/a	n/a	-999	19	[9, 5, 9]	23	FR1	1	R1292E
3224.564	0.014	3224849	STOP	n/a	n/a	n/a	-999	19	[-999, -999, -999]	n/a	FR1	1	R1292E
3224.578	0.522	3224863	DISTRACT_END	n/a	n/a	n/a	-999	19	[0, 0, 0]	n/a	FR1	1	R1292E
3225.1	1.662	3225385	RETRIEVAL_ORIENT_START	n/a	n/a	n/a	-999	19	[0, 0, 0]	n/a	FR1	1	R1292E
3226.762	0.001	3227047	RETRIEVAL_ORIENT_END	n/a	n/a	n/a	-999	19	[0, 0, 0]	n/a	FR1	1	R1292E
3226.763	0.568	3227048	REC_START	n/a	n/a	n/a	-999	19	[0, 0, 0]	n/a	FR1	1	R1292E
3227.331	1.0	3227616	REC_WORD	1.0	n/a	SMOKE	1	19	[0, 0, 0]	n/a	FR1	1	R1292E
3228.331	6.911	3228616	REC_WORD_VV	6.911	n/a	<>	-999	19	[0, 0, 0]	n/a	FR1	1	R1292E
3235.242	21.533	3235527	REC_WORD_VV	21.533	n/a	<>	-999	19	[0, 0, 0]	n/a	FR1	1	R1292E
3256.775	0.001	3257059	REC_END	n/a	n/a	n/a	-999	19	[0, 0, 0]	n/a	FR1	1	R1292E
3256.776	0.016	3257060	TRIAL_END	n/a	n/a	n/a	-999	19	[0, 0, 0]	n/a	FR1	1	R1292E
3256.792	0.001	3257076	TRIAL_START	n/a	n/a	n/a	-999	20	[0, 0, 0]	n/a	FR1	1	R1292E
3256.793	0.0	3257077	WAITING_START	n/a	n/a	n/a	-999	20	[0, 0, 0]	n/a	FR1	1	R1292E
3256.793	10.943	3257077	TRIAL	n/a	n/a	n/a	-999	20	[0, 0, 0]	n/a	FR1	1	R1292E
3267.736	0.001	3268020	WAITING_END	n/a	n/a	n/a	-999	20	[0, 0, 0]	n/a	FR1	1	R1292E
3267.737	10.428	3268021	COUNTDOWN_START	n/a	n/a	n/a	-999	20	[0, 0, 0]	n/a	FR1	1	R1292E
3278.165	0.0	3278449	COUNTDOWN_END	n/a	n/a	n/a	-999	20	[0, 0, 0]	n/a	FR1	1	R1292E
3278.165	1.172	3278449	ORIENT_START	n/a	n/a	n/a	-999	20	[0, 0, 0]	n/a	FR1	1	R1292E
3279.337	0.001	3279620	ORIENT_END	n/a	n/a	n/a	-999	20	[0, 0, 0]	n/a	FR1	1	R1292E
3279.338	1.001	3279621	ENCODING_START	n/a	n/a	n/a	-999	20	[0, 0, 0]	n/a	FR1	1	R1292E
3280.339	1.616	3280622	WORD	n/a	n/a	MAIL	1	20	[0, 0, 0]	n/a	FR1	1	R1292E
3281.955	0.93	3282238	WORD_OFF	n/a	n/a	MAIL	1	20	[0, 0, 0]	n/a	FR1	1	R1292E
3282.885	1.62	3283168	WORD	n/a	n/a	CORD	2	20	[0, 0, 0]	n/a	FR1	1	R1292E
3284.505	1.066	3284788	WORD_OFF	n/a	n/a	CORD	2	20	[0, 0, 0]	n/a	FR1	1	R1292E
3285.571	1.636	3285854	WORD	n/a	n/a	CROW	3	20	[0, 0, 0]	n/a	FR1	1	R1292E
3287.207	1.078	3287490	WORD_OFF	n/a	n/a	CROW	3	20	[0, 0, 0]	n/a	FR1	1	R1292E
3288.285	1.622	3288568	WORD	n/a	n/a	DOLL	4	20	[0, 0, 0]	n/a	FR1	1	R1292E
3289.907	0.884	3290190	WORD_OFF	n/a	n/a	DOLL	4	20	[0, 0, 0]	n/a	FR1	1	R1292E
3290.791	1.632	3291074	WORD	n/a	n/a	SHOE	5	20	[0, 0, 0]	n/a	FR1	1	R1292E
3292.423	1.024	3292706	WORD_OFF	n/a	n/a	SHOE	5	20	[0, 0, 0]	n/a	FR1	1	R1292E
3293.447	1.628	3293730	WORD	n/a	n/a	PRINCE	6	20	[0, 0, 0]	n/a	FR1	1	R1292E
3295.075	0.777	3295358	WORD_OFF	n/a	n/a	PRINCE	6	20	[0, 0, 0]	n/a	FR1	1	R1292E
3295.852	1.622	3296135	WORD	n/a	n/a	RAIN	7	20	[0, 0, 0]	n/a	FR1	1	R1292E
3297.474	1.039	3297757	WORD_OFF	n/a	n/a	RAIN	7	20	[0, 0, 0]	n/a	FR1	1	R1292E
3298.513	1.612	3298796	WORD	n/a	n/a	ROCK	8	20	[0, 0, 0]	n/a	FR1	1	R1292E
3300.125	0.783	3300408	WORD_OFF	n/a	n/a	ROCK	8	20	[0, 0, 0]	n/a	FR1	1	R1292E
3300.908	1.633	3301191	WORD	n/a	n/a	FUDGE	9	20	[0, 0, 0]	n/a	FR1	1	R1292E
3302.541	0.932	3302824	WORD_OFF	n/a	n/a	FUDGE	9	20	[0, 0, 0]	n/a	FR1	1	R1292E
3303.473	1.637	3303756	WORD	n/a	n/a	MOUTH	10	20	[0, 0, 0]	n/a	FR1	1	R1292E
3305.11	0.788	3305393	WORD_OFF	n/a	n/a	MOUTH	10	20	[0, 0, 0]	n/a	FR1	1	R1292E
3305.898	1.628	3306181	WORD	n/a	n/a	TRAY	11	20	[0, 0, 0]	n/a	FR1	1	R1292E
3307.526	0.859	3307808	WORD_OFF	n/a	n/a	TRAY	11	20	[0, 0, 0]	n/a	FR1	1	R1292E
3308.385	1.625	3308667	WORD	n/a	n/a	BROOM	12	20	[0, 0, 0]	n/a	FR1	1	R1292E
3310.01	0.001	3310292	WORD_OFF	n/a	n/a	BROOM	12	20	[0, 0, 0]	n/a	FR1	1	R1292E
3310.011	0.0	3310293	ENCODING_END	n/a	n/a	n/a	-999	20	[0, 0, 0]	n/a	FR1	1	R1292E
3310.011	0.0	3310293	DISTRACT_START	n/a	n/a	n/a	-999	20	[0, 0, 0]	n/a	FR1	1	R1292E
3310.011	0.016	3310293	START	n/a	n/a	n/a	-999	20	[-999, -999, -999]	n/a	FR1	1	R1292E
3310.027	6.517	3310309	PROB	6.517	n/a	n/a	-999	20	[2, 3, 8]	13	FR1	1	R1292E
3316.544	3.235	3316826	PROB	3.235	n/a	n/a	-999	20	[1, 1, 5]	7	FR1	1	R1292E
3319.779	3.167	3320061	PROB	3.167	n/a	n/a	-999	20	[5, 2, 1]	8	FR1	1	R1292E
3322.946	5.017	3323228	PROB	5.017	n/a	n/a	-999	20	[2, 8, 8]	18	FR1	1	R1292E
3327.963	5.022	3328245	PROB	5.022	n/a	n/a	-999	20	[7, 5, 3]	15	FR1	1	R1292E
3332.985	0.013	3333267	STOP	n/a	n/a	n/a	-999	20	[-999, -999, -999]	n/a	FR1	1	R1292E
3332.998	0.528	3333280	DISTRACT_END	n/a	n/a	n/a	-999	20	[0, 0, 0]	n/a	FR1	1	R1292E
3333.526	1.721	3333808	RETRIEVAL_ORIENT_START	n/a	n/a	n/a	-999	20	[0, 0, 0]	n/a	FR1	1	R1292E
3335.247	0.001	3335529	RETRIEVAL_ORIENT_END	n/a	n/a	n/a	-999	20	[0, 0, 0]	n/a	FR1	1	R1292E
3335.248	0.0	3335530	REC_WORD	0.0	n/a	PRINCE	6	20	[0, 0, 0]	n/a	FR1	1	R1292E
3335.248	1.019	3335530	REC_START	n/a	n/a	n/a	-999	20	[0, 0, 0]	n/a	FR1	1	R1292E
3336.267	1.082	3336548	REC_WORD	1.082	n/a	RAIN	7	20	[0, 0, 0]	n/a	FR1	1	R1292E
3337.349	3.476	3337630	REC_WORD	3.476	n/a	DOLL	4	20	[0, 0, 0]	n/a	FR1	1	R1292E
3340.825	24.435	3341106	REC_WORD	24.435	n/a	SHOE	5	20	[0, 0, 0]	n/a	FR1	1	R1292E
3365.26	0.0	3365540	REC_END	n/a	n/a	n/a	-999	20	[0, 0, 0]	n/a	FR1	1	R1292E
3365.26	0.017	3365540	TRIAL_END	n/a	n/a	n/a	-999	20	[0, 0, 0]	n/a	FR1	1	R1292E
3365.277	0.0	3365557	WAITING_START	n/a	n/a	n/a	-999	21	[0, 0, 0]	n/a	FR1	1	R1292E
3365.277	0.0	3365557	TRIAL_START	n/a	n/a	n/a	-999	21	[0, 0, 0]	n/a	FR1	1	R1292E
3365.277	6.461	3365557	TRIAL	n/a	n/a	n/a	-999	21	[0, 0, 0]	n/a	FR1	1	R1292E
3371.738	0.0	3372018	COUNTDOWN_START	n/a	n/a	n/a	-999	21	[0, 0, 0]	n/a	FR1	1	R1292E
3371.738	10.429	3372018	WAITING_END	n/a	n/a	n/a	-999	21	[0, 0, 0]	n/a	FR1	1	R1292E
3382.167	0.0	3382447	COUNTDOWN_END	n/a	n/a	n/a	-999	21	[0, 0, 0]	n/a	FR1	1	R1292E
3382.167	1.072	3382447	ORIENT_START	n/a	n/a	n/a	-999	21	[0, 0, 0]	n/a	FR1	1	R1292E
3383.239	0.0	3383519	ORIENT_END	n/a	n/a	n/a	-999	21	[0, 0, 0]	n/a	FR1	1	R1292E
3383.239	0.882	3383519	ENCODING_START	n/a	n/a	n/a	-999	21	[0, 0, 0]	n/a	FR1	1	R1292E
3384.121	1.636	3384401	WORD	n/a	n/a	STAR	1	21	[0, 0, 0]	n/a	FR1	1	R1292E
3385.757	0.759	3386037	WORD_OFF	n/a	n/a	STAR	1	21	[0, 0, 0]	n/a	FR1	1	R1292E
3386.516	1.625	3386796	WORD	n/a	n/a	CROWN	2	21	[0, 0, 0]	n/a	FR1	1	R1292E
3388.141	0.863	3388421	WORD_OFF	n/a	n/a	CROWN	2	21	[0, 0, 0]	n/a	FR1	1	R1292E
3389.004	1.62	3389284	WORD	n/a	n/a	BALL	3	21	[0, 0, 0]	n/a	FR1	1	R1292E
3390.624	0.889	3390904	WORD_OFF	n/a	n/a	BALL	3	21	[0, 0, 0]	n/a	FR1	1	R1292E
3391.513	1.629	3391793	WORD	n/a	n/a	STEAM	4	21	[0, 0, 0]	n/a	FR1	1	R1292E
3393.142	0.79	3393421	WORD_OFF	n/a	n/a	STEAM	4	21	[0, 0, 0]	n/a	FR1	1	R1292E
3393.932	1.626	3394211	WORD	n/a	n/a	PEAR	5	21	[0, 0, 0]	n/a	FR1	1	R1292E
3395.558	1.101	3395837	WORD_OFF	n/a	n/a	PEAR	5	21	[0, 0, 0]	n/a	FR1	1	R1292E
3396.659	1.633	3396938	WORD	n/a	n/a	FOAM	6	21	[0, 0, 0]	n/a	FR1	1	R1292E
3398.292	1.051	3398571	WORD_OFF	n/a	n/a	FOAM	6	21	[0, 0, 0]	n/a	FR1	1	R1292E
3399.343	1.617	3399622	WORD	n/a	n/a	MOTH	7	21	[0, 0, 0]	n/a	FR1	1	R1292E
3400.96	0.929	3401239	WORD_OFF	n/a	n/a	MOTH	7	21	[0, 0, 0]	n/a	FR1	1	R1292E
3401.889	1.62	3402168	WORD	n/a	n/a	FORK	8	21	[0, 0, 0]	n/a	FR1	1	R1292E
3403.509	0.924	3403788	WORD_OFF	n/a	n/a	FORK	8	21	[0, 0, 0]	n/a	FR1	1	R1292E
3404.433	1.628	3404712	WORD	n/a	n/a	SALT	9	21	[0, 0, 0]	n/a	FR1	1	R1292E
3406.061	1.07	3406340	WORD_OFF	n/a	n/a	SALT	9	21	[0, 0, 0]	n/a	FR1	1	R1292E
3407.131	1.63	3407410	WORD	n/a	n/a	STEAK	10	21	[0, 0, 0]	n/a	FR1	1	R1292E
3408.761	1.065	3409040	WORD_OFF	n/a	n/a	STEAK	10	21	[0, 0, 0]	n/a	FR1	1	R1292E
3409.826	1.635	3410105	WORD	n/a	n/a	BOAT	11	21	[0, 0, 0]	n/a	FR1	1	R1292E
3411.461	0.896	3411740	WORD_OFF	n/a	n/a	BOAT	11	21	[0, 0, 0]	n/a	FR1	1	R1292E
3412.357	1.605	3412636	WORD	n/a	n/a	BOARD	12	21	[0, 0, 0]	n/a	FR1	1	R1292E
3413.962	0.001	3414241	WORD_OFF	n/a	n/a	BOARD	12	21	[0, 0, 0]	n/a	FR1	1	R1292E
3413.963	0.0	3414242	ENCODING_END	n/a	n/a	n/a	-999	21	[0, 0, 0]	n/a	FR1	1	R1292E
3413.963	0.0	3414242	DISTRACT_START	n/a	n/a	n/a	-999	21	[0, 0, 0]	n/a	FR1	1	R1292E
3413.963	0.016	3414242	START	n/a	n/a	n/a	-999	21	[-999, -999, -999]	n/a	FR1	1	R1292E
3413.979	11.918	3414258	PROB	11.918	n/a	n/a	-999	21	[4, 5, 6]	15	FR1	1	R1292E
3425.897	4.084	3426175	PROB	4.084	n/a	n/a	-999	21	[1, 6, 1]	8	FR1	1	R1292E
3429.981	4.453	3430259	PROB	4.453	n/a	n/a	-999	21	[2, 3, 2]	7	FR1	1	R1292E
3434.434	0.014	3434712	STOP	n/a	n/a	n/a	-999	21	[-999, -999, -999]	n/a	FR1	1	R1292E
3434.448	0.698	3434726	DISTRACT_END	n/a	n/a	n/a	-999	21	[0, 0, 0]	n/a	FR1	1	R1292E
3435.146	1.703	3435424	RETRIEVAL_ORIENT_START	n/a	n/a	n/a	-999	21	[0, 0, 0]	n/a	FR1	1	R1292E
3436.849	0.001	3437127	RETRIEVAL_ORIENT_END	n/a	n/a	n/a	-999	21	[0, 0, 0]	n/a	FR1	1	R1292E
3436.85	0.084	3437128	REC_START	n/a	n/a	n/a	-999	21	[0, 0, 0]	n/a	FR1	1	R1292E
3436.934	0.912	3437212	REC_WORD	0.912	n/a	BOAT	11	21	[0, 0, 0]	n/a	FR1	1	R1292E
3437.846	29.016	3438124	REC_WORD	29.016	n/a	STORM	-999	21	[0, 0, 0]	n/a	FR1	1	R1292E
3466.862	0.0	3467139	REC_END	n/a	n/a	n/a	-999	21	[0, 0, 0]	n/a	FR1	1	R1292E
3466.862	0.017	3467139	TRIAL_END	n/a	n/a	n/a	-999	21	[0, 0, 0]	n/a	FR1	1	R1292E
3466.879	0.0	3467156	TRIAL_START	n/a	n/a	n/a	-999	22	[0, 0, 0]	n/a	FR1	1	R1292E
3466.879	0.0	3467156	TRIAL	n/a	n/a	n/a	-999	22	[0, 0, 0]	n/a	FR1	1	R1292E
3466.879	8.793	3467156	WAITING_START	n/a	n/a	n/a	-999	22	[0, 0, 0]	n/a	FR1	1	R1292E
3475.672	0.0	3475949	WAITING_END	n/a	n/a	n/a	-999	22	[0, 0, 0]	n/a	FR1	1	R1292E
3475.672	10.43	3475949	COUNTDOWN_START	n/a	n/a	n/a	-999	22	[0, 0, 0]	n/a	FR1	1	R1292E
3486.102	0.0	3486378	ORIENT_START	n/a	n/a	n/a	-999	22	[0, 0, 0]	n/a	FR1	1	R1292E
3486.102	1.056	3486378	COUNTDOWN_END	n/a	n/a	n/a	-999	22	[0, 0, 0]	n/a	FR1	1	R1292E
3487.158	0.001	3487434	ORIENT_END	n/a	n/a	n/a	-999	22	[0, 0, 0]	n/a	FR1	1	R1292E
3487.159	1.059	3487435	ENCODING_START	n/a	n/a	n/a	-999	22	[0, 0, 0]	n/a	FR1	1	R1292E
3488.218	1.624	3488494	WORD	n/a	n/a	SINK	1	22	[0, 0, 0]	n/a	FR1	1	R1292E
3489.842	0.868	3490118	WORD_OFF	n/a	n/a	SINK	1	22	[0, 0, 0]	n/a	FR1	1	R1292E
3490.71	1.632	3490986	WORD	n/a	n/a	WOLF	2	22	[0, 0, 0]	n/a	FR1	1	R1292E
3492.342	1.113	3492618	WORD_OFF	n/a	n/a	WOLF	2	22	[0, 0, 0]	n/a	FR1	1	R1292E
3493.455	1.621	3493731	WORD	n/a	n/a	FOOT	3	22	[0, 0, 0]	n/a	FR1	1	R1292E
3495.076	1.041	3495352	WORD_OFF	n/a	n/a	FOOT	3	22	[0, 0, 0]	n/a	FR1	1	R1292E
3496.117	1.626	3496393	WORD	n/a	n/a	JUICE	4	22	[0, 0, 0]	n/a	FR1	1	R1292E
3497.743	0.918	3498019	WORD_OFF	n/a	n/a	JUICE	4	22	[0, 0, 0]	n/a	FR1	1	R1292E
3498.661	1.632	3498937	WORD	n/a	n/a	LEAF	5	22	[0, 0, 0]	n/a	FR1	1	R1292E
3500.293	0.994	3500569	WORD_OFF	n/a	n/a	LEAF	5	22	[0, 0, 0]	n/a	FR1	1	R1292E
3501.287	1.607	3501563	WORD	n/a	n/a	BEAK	6	22	[0, 0, 0]	n/a	FR1	1	R1292E
3502.894	0.813	3503170	WORD_OFF	n/a	n/a	BEAK	6	22	[0, 0, 0]	n/a	FR1	1	R1292E
3503.707	1.62	3503983	WORD	n/a	n/a	MOUSE	7	22	[0, 0, 0]	n/a	FR1	1	R1292E
3505.327	0.861	3505603	WORD_OFF	n/a	n/a	MOUSE	7	22	[0, 0, 0]	n/a	FR1	1	R1292E
3506.188	1.624	3506463	WORD	n/a	n/a	SUN	8	22	[0, 0, 0]	n/a	FR1	1	R1292E
3507.812	0.907	3508087	WORD_OFF	n/a	n/a	SUN	8	22	[0, 0, 0]	n/a	FR1	1	R1292E
3508.719	1.626	3508994	WORD	n/a	n/a	ROOM	9	22	[0, 0, 0]	n/a	FR1	1	R1292E
3510.345	1.046	3510620	WORD_OFF	n/a	n/a	ROOM	9	22	[0, 0, 0]	n/a	FR1	1	R1292E
3511.391	1.622	3511666	WORD	n/a	n/a	PET	10	22	[0, 0, 0]	n/a	FR1	1	R1292E
3513.013	0.931	3513288	WORD_OFF	n/a	n/a	PET	10	22	[0, 0, 0]	n/a	FR1	1	R1292E
3513.944	1.635	3514219	WORD	n/a	n/a	HEN	11	22	[0, 0, 0]	n/a	FR1	1	R1292E
3515.579	0.879	3515854	WORD_OFF	n/a	n/a	HEN	11	22	[0, 0, 0]	n/a	FR1	1	R1292E
3516.458	1.622	3516733	WORD	n/a	n/a	WAND	12	22	[0, 0, 0]	n/a	FR1	1	R1292E
3518.08	0.001	3518355	WORD_OFF	n/a	n/a	WAND	12	22	[0, 0, 0]	n/a	FR1	1	R1292E
3518.081	0.0	3518356	DISTRACT_START	n/a	n/a	n/a	-999	22	[0, 0, 0]	n/a	FR1	1	R1292E
3518.081	0.0	3518356	ENCODING_END	n/a	n/a	n/a	-999	22	[0, 0, 0]	n/a	FR1	1	R1292E
3518.081	0.016	3518356	START	n/a	n/a	n/a	-999	22	[-999, -999, -999]	n/a	FR1	1	R1292E
3518.097	11.702	3518372	PROB	11.702	n/a	n/a	-999	22	[3, 7, 3]	13	FR1	1	R1292E
3529.799	3.583	3530074	PROB	3.583	n/a	n/a	-999	22	[6, 1, 2]	9	FR1	1	R1292E
3533.382	3.635	3533657	PROB	3.635	n/a	n/a	-999	22	[4, 2, 2]	8	FR1	1	R1292E
3537.017	4.445	3537291	PROB	4.445	n/a	n/a	-999	22	[6, 2, 1]	9	FR1	1	R1292E
3541.462	0.021	3541736	STOP	n/a	n/a	n/a	-999	22	[-999, -999, -999]	n/a	FR1	1	R1292E
3541.483	0.662	3541757	DISTRACT_END	n/a	n/a	n/a	-999	22	[0, 0, 0]	n/a	FR1	1	R1292E
3542.145	1.623	3542419	RETRIEVAL_ORIENT_START	n/a	n/a	n/a	-999	22	[0, 0, 0]	n/a	FR1	1	R1292E
3543.768	0.001	3544042	RETRIEVAL_ORIENT_END	n/a	n/a	n/a	-999	22	[0, 0, 0]	n/a	FR1	1	R1292E
3543.769	0.393	3544043	REC_START	n/a	n/a	n/a	-999	22	[0, 0, 0]	n/a	FR1	1	R1292E
3544.162	1.286	3544436	REC_WORD	1.286	n/a	PET	10	22	[0, 0, 0]	n/a	FR1	1	R1292E
3545.448	1.537	3545722	REC_WORD	1.537	n/a	MOUSE	7	22	[0, 0, 0]	n/a	FR1	1	R1292E
3546.985	1.345	3547259	REC_WORD	1.345	n/a	BEAK	6	22	[0, 0, 0]	n/a	FR1	1	R1292E
3548.33	1.325	3548604	REC_WORD	1.325	n/a	HEN	11	22	[0, 0, 0]	n/a	FR1	1	R1292E
3549.655	24.126	3549929	REC_WORD	24.126	n/a	ROOM	9	22	[0, 0, 0]	n/a	FR1	1	R1292E
3573.781	0.0	3574054	REC_END	n/a	n/a	n/a	-999	22	[0, 0, 0]	n/a	FR1	1	R1292E
3573.781	0.017	3574054	TRIAL_END	n/a	n/a	n/a	-999	22	[0, 0, 0]	n/a	FR1	1	R1292E
3573.798	0.0	3574071	TRIAL_START	n/a	n/a	n/a	-999	23	[0, 0, 0]	n/a	FR1	1	R1292E
3573.798	0.0	3574071	TRIAL	n/a	n/a	n/a	-999	23	[0, 0, 0]	n/a	FR1	1	R1292E
3573.798	2.976	3574071	WAITING_START	n/a	n/a	n/a	-999	23	[0, 0, 0]	n/a	FR1	1	R1292E
3576.774	0.001	3577047	WAITING_END	n/a	n/a	n/a	-999	23	[0, 0, 0]	n/a	FR1	1	R1292E
3576.775	10.428	3577048	COUNTDOWN_START	n/a	n/a	n/a	-999	23	[0, 0, 0]	n/a	FR1	1	R1292E
3587.203	0.0	3587476	ORIENT_START	n/a	n/a	n/a	-999	23	[0, 0, 0]	n/a	FR1	1	R1292E
3587.203	1.206	3587476	COUNTDOWN_END	n/a	n/a	n/a	-999	23	[0, 0, 0]	n/a	FR1	1	R1292E
3588.409	0.0	3588682	ORIENT_END	n/a	n/a	n/a	-999	23	[0, 0, 0]	n/a	FR1	1	R1292E
3588.409	0.997	3588682	ENCODING_START	n/a	n/a	n/a	-999	23	[0, 0, 0]	n/a	FR1	1	R1292E
3589.406	1.621	3589679	WORD	n/a	n/a	WHALE	1	23	[0, 0, 0]	n/a	FR1	1	R1292E
3591.027	0.807	3591300	WORD_OFF	n/a	n/a	WHALE	1	23	[0, 0, 0]	n/a	FR1	1	R1292E
3591.834	1.625	3592106	WORD	n/a	n/a	ROPE	2	23	[0, 0, 0]	n/a	FR1	1	R1292E
3593.459	1.02	3593731	WORD_OFF	n/a	n/a	ROPE	2	23	[0, 0, 0]	n/a	FR1	1	R1292E
3594.479	1.632	3594751	WORD	n/a	n/a	MULE	3	23	[0, 0, 0]	n/a	FR1	1	R1292E
3596.111	0.869	3596383	WORD_OFF	n/a	n/a	MULE	3	23	[0, 0, 0]	n/a	FR1	1	R1292E
3596.98	1.63	3597252	WORD	n/a	n/a	FOOD	4	23	[0, 0, 0]	n/a	FR1	1	R1292E
3598.61	0.956	3598882	WORD_OFF	n/a	n/a	FOOD	4	23	[0, 0, 0]	n/a	FR1	1	R1292E
3599.566	1.629	3599838	WORD	n/a	n/a	BARN	5	23	[0, 0, 0]	n/a	FR1	1	R1292E
3601.195	1.113	3601467	WORD_OFF	n/a	n/a	BARN	5	23	[0, 0, 0]	n/a	FR1	1	R1292E
3602.308	1.637	3602580	WORD	n/a	n/a	RIB	6	23	[0, 0, 0]	n/a	FR1	1	R1292E
3603.945	0.752	3604217	WORD_OFF	n/a	n/a	RIB	6	23	[0, 0, 0]	n/a	FR1	1	R1292E
3604.697	1.631	3604969	WORD	n/a	n/a	WHEEL	7	23	[0, 0, 0]	n/a	FR1	1	R1292E
3606.328	0.79	3606600	WORD_OFF	n/a	n/a	WHEEL	7	23	[0, 0, 0]	n/a	FR1	1	R1292E
3607.118	1.628	3607390	WORD	n/a	n/a	GATE	8	23	[0, 0, 0]	n/a	FR1	1	R1292E
3608.746	1.142	3609018	WORD_OFF	n/a	n/a	GATE	8	23	[0, 0, 0]	n/a	FR1	1	R1292E
3609.888	1.624	3610160	WORD	n/a	n/a	FENCE	9	23	[0, 0, 0]	n/a	FR1	1	R1292E
3611.512	1.012	3611784	WORD_OFF	n/a	n/a	FENCE	9	23	[0, 0, 0]	n/a	FR1	1	R1292E
3612.524	1.623	3612796	WORD	n/a	n/a	SAIL	10	23	[0, 0, 0]	n/a	FR1	1	R1292E
3614.147	0.891	3614419	WORD_OFF	n/a	n/a	SAIL	10	23	[0, 0, 0]	n/a	FR1	1	R1292E
3615.038	1.625	3615310	WORD	n/a	n/a	ROSE	11	23	[0, 0, 0]	n/a	FR1	1	R1292E
3616.663	1.103	3616935	WORD_OFF	n/a	n/a	ROSE	11	23	[0, 0, 0]	n/a	FR1	1	R1292E
3617.766	1.631	3618038	WORD	n/a	n/a	CHALK	12	23	[0, 0, 0]	n/a	FR1	1	R1292E
3619.397	0.001	3619669	WORD_OFF	n/a	n/a	CHALK	12	23	[0, 0, 0]	n/a	FR1	1	R1292E
3619.398	0.0	3619670	DISTRACT_START	n/a	n/a	n/a	-999	23	[0, 0, 0]	n/a	FR1	1	R1292E
3619.398	0.0	3619670	ENCODING_END	n/a	n/a	n/a	-999	23	[0, 0, 0]	n/a	FR1	1	R1292E
3619.398	0.016	3619670	START	n/a	n/a	n/a	-999	23	[-999, -999, -999]	n/a	FR1	1	R1292E
3619.414	7.168	3619686	PROB	7.168	n/a	n/a	-999	23	[9, 6, 3]	18	FR1	1	R1292E
3626.582	10.469	3626853	PROB	10.469	n/a	n/a	-999	23	[6, 9, 8]	23	FR1	1	R1292E
3637.051	11.614	3637322	PROB	11.614	n/a	n/a	-999	23	[3, 4, 7]	14	FR1	1	R1292E
3648.665	0.021	3648935	STOP	n/a	n/a	n/a	-999	23	[-999, -999, -999]	n/a	FR1	1	R1292E
3648.686	0.603	3648956	DISTRACT_END	n/a	n/a	n/a	-999	23	[0, 0, 0]	n/a	FR1	1	R1292E
3649.289	1.681	3649559	RETRIEVAL_ORIENT_START	n/a	n/a	n/a	-999	23	[0, 0, 0]	n/a	FR1	1	R1292E
3650.97	0.001	3651240	RETRIEVAL_ORIENT_END	n/a	n/a	n/a	-999	23	[0, 0, 0]	n/a	FR1	1	R1292E
3650.971	0.769	3651241	REC_START	n/a	n/a	n/a	-999	23	[0, 0, 0]	n/a	FR1	1	R1292E
3651.74	1.169	3652010	REC_WORD	1.169	n/a	WHALE	1	23	[0, 0, 0]	n/a	FR1	1	R1292E
3652.909	1.943	3653179	REC_WORD	1.943	n/a	FENCE	9	23	[0, 0, 0]	n/a	FR1	1	R1292E
3654.852	1.299	3655122	REC_WORD	1.299	n/a	GATE	8	23	[0, 0, 0]	n/a	FR1	1	R1292E
3656.151	19.473	3656421	REC_WORD	19.473	n/a	SAIL	10	23	[0, 0, 0]	n/a	FR1	1	R1292E
3675.624	5.361	3675894	REC_WORD	5.361	n/a	MOOSE	-999	23	[0, 0, 0]	n/a	FR1	1	R1292E
3680.985	0.001	3681254	REC_END	n/a	n/a	n/a	-999	23	[0, 0, 0]	n/a	FR1	1	R1292E
3680.986	0.017	3681255	TRIAL_END	n/a	n/a	n/a	-999	23	[0, 0, 0]	n/a	FR1	1	R1292E
3681.003	0.0	3681272	TRIAL_START	n/a	n/a	n/a	-999	24	[0, 0, 0]	n/a	FR1	1	R1292E
3681.003	0.0	3681272	TRIAL	n/a	n/a	n/a	-999	24	[0, 0, 0]	n/a	FR1	1	R1292E
3681.003	26.778	3681272	WAITING_START	n/a	n/a	n/a	-999	24	[0, 0, 0]	n/a	FR1	1	R1292E
3707.781	0.0	3708049	WAITING_END	n/a	n/a	n/a	-999	24	[0, 0, 0]	n/a	FR1	1	R1292E
3707.781	10.428	3708049	COUNTDOWN_START	n/a	n/a	n/a	-999	24	[0, 0, 0]	n/a	FR1	1	R1292E
3718.209	0.001	3718477	COUNTDOWN_END	n/a	n/a	n/a	-999	24	[0, 0, 0]	n/a	FR1	1	R1292E
3718.21	1.055	3718478	ORIENT_START	n/a	n/a	n/a	-999	24	[0, 0, 0]	n/a	FR1	1	R1292E
3719.265	0.0	3719533	ORIENT_END	n/a	n/a	n/a	-999	24	[0, 0, 0]	n/a	FR1	1	R1292E
3719.265	1.145	3719533	ENCODING_START	n/a	n/a	n/a	-999	24	[0, 0, 0]	n/a	FR1	1	R1292E
3720.41	1.623	3720678	WORD	n/a	n/a	SEAT	1	24	[0, 0, 0]	n/a	FR1	1	R1292E
3722.033	0.916	3722301	WORD_OFF	n/a	n/a	SEAT	1	24	[0, 0, 0]	n/a	FR1	1	R1292E
3722.949	1.634	3723217	WORD	n/a	n/a	FARM	2	24	[0, 0, 0]	n/a	FR1	1	R1292E
3724.583	0.916	3724851	WORD_OFF	n/a	n/a	FARM	2	24	[0, 0, 0]	n/a	FR1	1	R1292E
3725.499	1.618	3725767	WORD	n/a	n/a	VEST	3	24	[0, 0, 0]	n/a	FR1	1	R1292E
3727.117	0.954	3727385	WORD_OFF	n/a	n/a	VEST	3	24	[0, 0, 0]	n/a	FR1	1	R1292E
3728.071	1.63	3728339	WORD	n/a	n/a	LIP	4	24	[0, 0, 0]	n/a	FR1	1	R1292E
3729.701	1.036	3729969	WORD_OFF	n/a	n/a	LIP	4	24	[0, 0, 0]	n/a	FR1	1	R1292E
3730.737	1.63	3731005	WORD	n/a	n/a	BAT	5	24	[0, 0, 0]	n/a	FR1	1	R1292E
3732.367	0.796	3732635	WORD_OFF	n/a	n/a	BAT	5	24	[0, 0, 0]	n/a	FR1	1	R1292E
3733.163	1.622	3733431	WORD	n/a	n/a	BRANCH	6	24	[0, 0, 0]	n/a	FR1	1	R1292E
3734.785	0.84	3735052	WORD_OFF	n/a	n/a	BRANCH	6	24	[0, 0, 0]	n/a	FR1	1	R1292E
3735.625	1.609	3735892	WORD	n/a	n/a	TEETH	7	24	[0, 0, 0]	n/a	FR1	1	R1292E
3737.234	0.983	3737501	WORD_OFF	n/a	n/a	TEETH	7	24	[0, 0, 0]	n/a	FR1	1	R1292E
3738.217	1.619	3738484	WORD	n/a	n/a	BUSH	8	24	[0, 0, 0]	n/a	FR1	1	R1292E
3739.836	0.764	3740103	WORD_OFF	n/a	n/a	BUSH	8	24	[0, 0, 0]	n/a	FR1	1	R1292E
3740.6	1.62	3740867	WORD	n/a	n/a	SOUP	9	24	[0, 0, 0]	n/a	FR1	1	R1292E
3742.22	0.926	3742487	WORD_OFF	n/a	n/a	SOUP	9	24	[0, 0, 0]	n/a	FR1	1	R1292E
3743.146	1.624	3743413	WORD	n/a	n/a	STAIR	10	24	[0, 0, 0]	n/a	FR1	1	R1292E
3744.77	1.105	3745037	WORD_OFF	n/a	n/a	STAIR	10	24	[0, 0, 0]	n/a	FR1	1	R1292E
3745.875	1.628	3746142	WORD	n/a	n/a	SHEET	11	24	[0, 0, 0]	n/a	FR1	1	R1292E
3747.503	0.989	3747770	WORD_OFF	n/a	n/a	SHEET	11	24	[0, 0, 0]	n/a	FR1	1	R1292E
3748.492	1.629	3748759	WORD	n/a	n/a	BEACH	12	24	[0, 0, 0]	n/a	FR1	1	R1292E
3750.121	0.001	3750388	WORD_OFF	n/a	n/a	BEACH	12	24	[0, 0, 0]	n/a	FR1	1	R1292E
3750.122	0.0	3750389	DISTRACT_START	n/a	n/a	n/a	-999	24	[0, 0, 0]	n/a	FR1	1	R1292E
3750.122	0.0	3750389	ENCODING_END	n/a	n/a	n/a	-999	24	[0, 0, 0]	n/a	FR1	1	R1292E
3750.122	0.016	3750389	START	n/a	n/a	n/a	-999	24	[-999, -999, -999]	n/a	FR1	1	R1292E
3750.138	9.618	3750405	PROB	9.618	n/a	n/a	-999	24	[6, 9, 2]	17	FR1	1	R1292E
3759.756	4.384	3760023	PROB	4.384	n/a	n/a	-999	24	[9, 2, 2]	13	FR1	1	R1292E
3764.14	7.832	3764406	PROB	7.832	n/a	n/a	-999	24	[6, 7, 8]	21	FR1	1	R1292E
3771.972	0.02	3772238	STOP	n/a	n/a	n/a	-999	24	[-999, -999, -999]	n/a	FR1	1	R1292E
3771.992	0.676	3772258	DISTRACT_END	n/a	n/a	n/a	-999	24	[0, 0, 0]	n/a	FR1	1	R1292E
3772.668	1.723	3772934	RETRIEVAL_ORIENT_START	n/a	n/a	n/a	-999	24	[0, 0, 0]	n/a	FR1	1	R1292E
3774.391	0.0	3774657	RETRIEVAL_ORIENT_END	n/a	n/a	n/a	-999	24	[0, 0, 0]	n/a	FR1	1	R1292E
3774.391	0.293	3774657	REC_START	n/a	n/a	n/a	-999	24	[0, 0, 0]	n/a	FR1	1	R1292E
3774.684	1.121	3774950	REC_WORD	1.121	n/a	SHEET	11	24	[0, 0, 0]	n/a	FR1	1	R1292E
3775.805	1.289	3776071	REC_WORD	1.289	n/a	FARM	2	24	[0, 0, 0]	n/a	FR1	1	R1292E
3777.094	27.31	3777360	REC_WORD	27.31	n/a	VEST	3	24	[0, 0, 0]	n/a	FR1	1	R1292E
3804.404	0.0	3804669	TRIAL_END	n/a	n/a	n/a	-999	24	[0, 0, 0]	n/a	FR1	1	R1292E
3804.404	0.018	3804669	REC_END	n/a	n/a	n/a	-999	24	[0, 0, 0]	n/a	FR1	1	R1292E
3804.422	0.0	3804687	TRIAL_START	n/a	n/a	n/a	-999	25	[0, 0, 0]	n/a	FR1	1	R1292E
3804.422	0.0	3804687	TRIAL	n/a	n/a	n/a	-999	25	[0, 0, 0]	n/a	FR1	1	R1292E
3804.422	5.042	3804687	WAITING_START	n/a	n/a	n/a	-999	25	[0, 0, 0]	n/a	FR1	1	R1292E
3809.464	0.0	3809729	WAITING_END	n/a	n/a	n/a	-999	25	[0, 0, 0]	n/a	FR1	1	R1292E
3809.464	10.43	3809729	COUNTDOWN_START	n/a	n/a	n/a	-999	25	[0, 0, 0]	n/a	FR1	1	R1292E
3819.894	0.001	3820158	COUNTDOWN_END	n/a	n/a	n/a	-999	25	[0, 0, 0]	n/a	FR1	1	R1292E
3819.895	1.089	3820159	ORIENT_START	n/a	n/a	n/a	-999	25	[0, 0, 0]	n/a	FR1	1	R1292E
3820.984	0.0	3821248	ENCODING_START	n/a	n/a	n/a	-999	25	[0, 0, 0]	n/a	FR1	1	R1292E
3820.984	1.0	3821248	ORIENT_END	n/a	n/a	n/a	-999	25	[0, 0, 0]	n/a	FR1	1	R1292E
3821.984	1.633	3822248	WORD	n/a	n/a	DUCK	1	25	[0, 0, 0]	n/a	FR1	1	R1292E
3823.617	0.83	3823881	WORD_OFF	n/a	n/a	DUCK	1	25	[0, 0, 0]	n/a	FR1	1	R1292E
3824.447	1.621	3824711	WORD	n/a	n/a	ROOT	2	25	[0, 0, 0]	n/a	FR1	1	R1292E
3826.068	1.102	3826332	WORD_OFF	n/a	n/a	ROOT	2	25	[0, 0, 0]	n/a	FR1	1	R1292E
3827.17	1.632	3827434	WORD	n/a	n/a	AXE	3	25	[0, 0, 0]	n/a	FR1	1	R1292E
3828.802	0.898	3829066	WORD_OFF	n/a	n/a	AXE	3	25	[0, 0, 0]	n/a	FR1	1	R1292E
3829.7	1.635	3829964	WORD	n/a	n/a	BAG	4	25	[0, 0, 0]	n/a	FR1	1	R1292E
3831.335	0.849	3831599	WORD_OFF	n/a	n/a	BAG	4	25	[0, 0, 0]	n/a	FR1	1	R1292E
3832.184	1.635	3832448	WORD	n/a	n/a	CLOCK	5	25	[0, 0, 0]	n/a	FR1	1	R1292E
3833.819	1.142	3834083	WORD_OFF	n/a	n/a	CLOCK	5	25	[0, 0, 0]	n/a	FR1	1	R1292E
3834.961	1.624	3835225	WORD	n/a	n/a	HOOK	6	25	[0, 0, 0]	n/a	FR1	1	R1292E
3836.585	0.956	3836849	WORD_OFF	n/a	n/a	HOOK	6	25	[0, 0, 0]	n/a	FR1	1	R1292E
3837.541	1.613	3837805	WORD	n/a	n/a	SHIP	7	25	[0, 0, 0]	n/a	FR1	1	R1292E
