onset	duration	sample	trial_type	response_time	stim_file	item_name	serialpos	list	test	answer	experiment	session	subject
0.0	193.156	392	INSTRUCT_START	n/a	n/a	n/a	-999	-999	[0, 0, 0]	n/a	FR1	0	R1342M
193.156	2.402	193538	INSTRUCT_END	n/a	n/a	n/a	-999	-999	[0, 0, 0]	n/a	FR1	0	R1342M
195.558	8.177	195940	MIC TEST_START	n/a	n/a	n/a	-999	-999	[0, 0, 0]	n/a	FR1	0	R1342M
203.735	0.01	204116	MIC TEST_END	n/a	n/a	n/a	-999	-999	[0, 0, 0]	n/a	FR1	0	R1342M
203.745	0.0	204126	TRIAL_START	n/a	n/a	n/a	-999	-1	[0, 0, 0]	n/a	FR1	0	R1342M
203.745	0.0	204126	TRIAL	n/a	n/a	n/a	-999	-1	[0, 0, 0]	n/a	FR1	0	R1342M
203.745	5.715	204126	WAITING_START	n/a	n/a	n/a	-999	-1	[0, 0, 0]	n/a	FR1	0	R1342M
209.46	0.001	209841	WAITING_END	n/a	n/a	n/a	-999	-1	[0, 0, 0]	n/a	FR1	0	R1342M
209.461	10.429	209842	COUNTDOWN_START	n/a	n/a	n/a	-999	-1	[0, 0, 0]	n/a	FR1	0	R1342M
219.89	0.0	220270	COUNTDOWN_END	n/a	n/a	n/a	-999	-1	[0, 0, 0]	n/a	FR1	0	R1342M
219.89	1.054	220270	ORIENT_START	n/a	n/a	n/a	-999	-1	[0, 0, 0]	n/a	FR1	0	R1342M
220.944	0.001	221324	ORIENT_END	n/a	n/a	n/a	-999	-1	[0, 0, 0]	n/a	FR1	0	R1342M
220.945	0.872	221325	ENCODING_START	n/a	n/a	n/a	-999	-1	[0, 0, 0]	n/a	FR1	0	R1342M
221.817	1.629	222197	WORD	n/a	n/a	FLOOD	1	-1	[0, 0, 0]	n/a	FR1	0	R1342M
223.446	1.032	223826	WORD_OFF	n/a	n/a	FLOOD	1	-1	[0, 0, 0]	n/a	FR1	0	R1342M
224.478	1.634	224858	WORD	n/a	n/a	BEAM	2	-1	[0, 0, 0]	n/a	FR1	0	R1342M
226.112	0.837	226492	WORD_OFF	n/a	n/a	BEAM	2	-1	[0, 0, 0]	n/a	FR1	0	R1342M
226.949	1.631	227329	WORD	n/a	n/a	CHEST	3	-1	[0, 0, 0]	n/a	FR1	0	R1342M
228.58	0.904	228960	WORD_OFF	n/a	n/a	CHEST	3	-1	[0, 0, 0]	n/a	FR1	0	R1342M
229.484	1.629	229864	WORD	n/a	n/a	WATCH	4	-1	[0, 0, 0]	n/a	FR1	0	R1342M
231.113	1.057	231493	WORD_OFF	n/a	n/a	WATCH	4	-1	[0, 0, 0]	n/a	FR1	0	R1342M
232.17	1.611	232550	WORD	n/a	n/a	COTTON	5	-1	[0, 0, 0]	n/a	FR1	0	R1342M
233.781	0.873	234161	WORD_OFF	n/a	n/a	COTTON	5	-1	[0, 0, 0]	n/a	FR1	0	R1342M
234.654	1.628	235034	WORD	n/a	n/a	RHINO	6	-1	[0, 0, 0]	n/a	FR1	0	R1342M
236.282	0.997	236662	WORD_OFF	n/a	n/a	RHINO	6	-1	[0, 0, 0]	n/a	FR1	0	R1342M
237.279	1.636	237659	WORD	n/a	n/a	CAMEL	7	-1	[0, 0, 0]	n/a	FR1	0	R1342M
238.915	0.855	239295	WORD_OFF	n/a	n/a	CAMEL	7	-1	[0, 0, 0]	n/a	FR1	0	R1342M
239.77	1.629	240149	WORD	n/a	n/a	WAGON	8	-1	[0, 0, 0]	n/a	FR1	0	R1342M
241.399	0.908	241778	WORD_OFF	n/a	n/a	WAGON	8	-1	[0, 0, 0]	n/a	FR1	0	R1342M
242.307	1.625	242686	WORD	n/a	n/a	IMAGE	9	-1	[0, 0, 0]	n/a	FR1	0	R1342M
243.932	0.987	244311	WORD_OFF	n/a	n/a	IMAGE	9	-1	[0, 0, 0]	n/a	FR1	0	R1342M
244.919	1.615	245298	WORD	n/a	n/a	TONGUE	10	-1	[0, 0, 0]	n/a	FR1	0	R1342M
246.534	1.137	246913	WORD_OFF	n/a	n/a	TONGUE	10	-1	[0, 0, 0]	n/a	FR1	0	R1342M
247.671	1.63	248050	WORD	n/a	n/a	RING	11	-1	[0, 0, 0]	n/a	FR1	0	R1342M
249.301	1.15	249680	WORD_OFF	n/a	n/a	RING	11	-1	[0, 0, 0]	n/a	FR1	0	R1342M
250.451	1.633	250830	WORD	n/a	n/a	BABY	12	-1	[0, 0, 0]	n/a	FR1	0	R1342M
252.084	0.0	252463	WORD_OFF	n/a	n/a	BABY	12	-1	[0, 0, 0]	n/a	FR1	0	R1342M
252.084	0.001	252463	ENCODING_END	n/a	n/a	n/a	-999	-1	[0, 0, 0]	n/a	FR1	0	R1342M
252.085	0.0	252464	DISTRACT_START	n/a	n/a	n/a	-999	-1	[0, 0, 0]	n/a	FR1	0	R1342M
252.085	0.015	252464	START	n/a	n/a	n/a	-999	-1	[-999, -999, -999]	n/a	FR1	0	R1342M
252.1	5.702	252479	PROB	5.702	n/a	n/a	-999	-1	[6, 4, 2]	12	FR1	0	R1342M
257.802	5.768	258181	PROB	5.768	n/a	n/a	-999	-1	[5, 6, 1]	12	FR1	0	R1342M
263.57	13.55	263948	PROB	13.55	n/a	n/a	-999	-1	[5, 6, 3]	15	FR1	0	R1342M
277.12	0.019	277498	STOP	n/a	n/a	n/a	-999	-1	[-999, -999, -999]	n/a	FR1	0	R1342M
277.139	0.648	277517	DISTRACT_END	n/a	n/a	n/a	-999	-1	[0, 0, 0]	n/a	FR1	0	R1342M
277.787	1.703	278165	RETRIEVAL_ORIENT_START	n/a	n/a	n/a	-999	-1	[0, 0, 0]	n/a	FR1	0	R1342M
279.49	0.0	279867	RETRIEVAL_ORIENT_END	n/a	n/a	n/a	-999	-1	[0, 0, 0]	n/a	FR1	0	R1342M
279.49	2.089	279867	REC_START	n/a	n/a	n/a	-999	-1	[0, 0, 0]	n/a	FR1	0	R1342M
281.579	1.279	281956	REC_WORD	1.279	n/a	RHINO	-999	-1	[0, 0, 0]	n/a	FR1	0	R1342M
282.858	1.255	283235	REC_WORD	1.255	n/a	FLOOD	-999	-1	[0, 0, 0]	n/a	FR1	0	R1342M
284.113	1.144	284490	REC_WORD	1.144	n/a	CAMEL	-999	-1	[0, 0, 0]	n/a	FR1	0	R1342M
285.257	2.03	285634	REC_WORD	2.03	n/a	COTTON	-999	-1	[0, 0, 0]	n/a	FR1	0	R1342M
287.287	22.214	287664	REC_WORD	22.214	n/a	BEAM	-999	-1	[0, 0, 0]	n/a	FR1	0	R1342M
309.501	0.001	309877	REC_END	n/a	n/a	n/a	-999	-1	[0, 0, 0]	n/a	FR1	0	R1342M
309.502	9.33	309878	PRACTICE_POST_INSTRUCT_START	n/a	n/a	n/a	-999	-1	[0, 0, 0]	n/a	FR1	0	R1342M
318.832	0.0	319208	PRACTICE_POST_INSTRUCT_END	n/a	n/a	n/a	-999	-1	[0, 0, 0]	n/a	FR1	0	R1342M
318.832	0.018	319208	TRIAL_END	n/a	n/a	n/a	-999	-1	[0, 0, 0]	n/a	FR1	0	R1342M
318.85	0.0	319226	TRIAL	n/a	n/a	n/a	-999	1	[0, 0, 0]	n/a	FR1	0	R1342M
318.85	0.001	319226	TRIAL_START	n/a	n/a	n/a	-999	1	[0, 0, 0]	n/a	FR1	0	R1342M
318.851	4.33	319227	WAITING_START	n/a	n/a	n/a	-999	1	[0, 0, 0]	n/a	FR1	0	R1342M
323.181	0.0	323556	WAITING_END	n/a	n/a	n/a	-999	1	[0, 0, 0]	n/a	FR1	0	R1342M
323.181	10.43	323556	COUNTDOWN_START	n/a	n/a	n/a	-999	1	[0, 0, 0]	n/a	FR1	0	R1342M
333.611	0.0	333986	COUNTDOWN_END	n/a	n/a	n/a	-999	1	[0, 0, 0]	n/a	FR1	0	R1342M
333.611	1.04	333986	ORIENT_START	n/a	n/a	n/a	-999	1	[0, 0, 0]	n/a	FR1	0	R1342M
334.651	0.0	335026	ORIENT_END	n/a	n/a	n/a	-999	1	[0, 0, 0]	n/a	FR1	0	R1342M
334.651	1.142	335026	ENCODING_START	n/a	n/a	n/a	-999	1	[0, 0, 0]	n/a	FR1	0	R1342M
335.793	1.625	336168	WORD	n/a	wordpools/wordpool_EN.txt	TOOL	1	1	[0, 0, 0]	n/a	FR1	0	R1342M
337.418	0.956	337793	WORD_OFF	n/a	n/a	TOOL	1	1	[0, 0, 0]	n/a	FR1	0	R1342M
338.374	1.627	338749	WORD	n/a	wordpools/wordpool_EN.txt	FLUTE	2	1	[0, 0, 0]	n/a	FR1	0	R1342M
340.001	0.994	340375	WORD_OFF	n/a	n/a	FLUTE	2	1	[0, 0, 0]	n/a	FR1	0	R1342M
340.995	1.624	341369	WORD	n/a	wordpools/wordpool_EN.txt	FOOT	3	1	[0, 0, 0]	n/a	FR1	0	R1342M
342.619	0.757	342993	WORD_OFF	n/a	n/a	FOOT	3	1	[0, 0, 0]	n/a	FR1	0	R1342M
343.376	1.626	343750	WORD	n/a	wordpools/wordpool_EN.txt	CHALK	4	1	[0, 0, 0]	n/a	FR1	0	R1342M
345.002	0.943	345376	WORD_OFF	n/a	n/a	CHALK	4	1	[0, 0, 0]	n/a	FR1	0	R1342M
345.945	1.608	346319	WORD	n/a	wordpools/wordpool_EN.txt	GRAPE	5	1	[0, 0, 0]	n/a	FR1	0	R1342M
347.553	1.09	347927	WORD_OFF	n/a	n/a	GRAPE	5	1	[0, 0, 0]	n/a	FR1	0	R1342M
348.643	1.628	349017	WORD	n/a	wordpools/wordpool_EN.txt	PIE	6	1	[0, 0, 0]	n/a	FR1	0	R1342M
350.271	1.036	350645	WORD_OFF	n/a	n/a	PIE	6	1	[0, 0, 0]	n/a	FR1	0	R1342M
351.307	1.63	351681	WORD	n/a	wordpools/wordpool_EN.txt	HEART	7	1	[0, 0, 0]	n/a	FR1	0	R1342M
352.937	0.84	353311	WORD_OFF	n/a	n/a	HEART	7	1	[0, 0, 0]	n/a	FR1	0	R1342M
353.777	1.628	354151	WORD	n/a	wordpools/wordpool_EN.txt	SHEEP	8	1	[0, 0, 0]	n/a	FR1	0	R1342M
355.405	0.949	355779	WORD_OFF	n/a	n/a	SHEEP	8	1	[0, 0, 0]	n/a	FR1	0	R1342M
356.354	1.634	356728	WORD	n/a	wordpools/wordpool_EN.txt	DUCK	9	1	[0, 0, 0]	n/a	FR1	0	R1342M
357.988	1.136	358362	WORD_OFF	n/a	n/a	DUCK	9	1	[0, 0, 0]	n/a	FR1	0	R1342M
359.124	1.632	359497	WORD	n/a	wordpools/wordpool_EN.txt	SLUSH	10	1	[0, 0, 0]	n/a	FR1	0	R1342M
360.756	0.764	361129	WORD_OFF	n/a	n/a	SLUSH	10	1	[0, 0, 0]	n/a	FR1	0	R1342M
361.52	1.635	361893	WORD	n/a	wordpools/wordpool_EN.txt	FOG	11	1	[0, 0, 0]	n/a	FR1	0	R1342M
363.155	0.775	363528	WORD_OFF	n/a	n/a	FOG	11	1	[0, 0, 0]	n/a	FR1	0	R1342M
363.93	1.627	364303	WORD	n/a	wordpools/wordpool_EN.txt	FLAG	12	1	[0, 0, 0]	n/a	FR1	0	R1342M
365.557	0.0	365930	WORD_OFF	n/a	n/a	FLAG	12	1	[0, 0, 0]	n/a	FR1	0	R1342M
365.557	0.0	365930	ENCODING_END	n/a	n/a	n/a	-999	1	[0, 0, 0]	n/a	FR1	0	R1342M
365.557	0.001	365930	DISTRACT_START	n/a	n/a	n/a	-999	1	[0, 0, 0]	n/a	FR1	0	R1342M
365.558	0.015	365931	START	n/a	n/a	n/a	-999	1	[-999, -999, -999]	n/a	FR1	0	R1342M
365.573	7.351	365946	PROB	7.351	n/a	n/a	-999	1	[8, 5, 3]	16	FR1	0	R1342M
372.924	4.402	373297	PROB	4.402	n/a	n/a	-999	1	[3, 7, 4]	14	FR1	0	R1342M
377.326	6.384	377699	PROB	6.384	n/a	n/a	-999	1	[4, 7, 7]	18	FR1	0	R1342M
383.71	5.382	384082	PROB	5.382	n/a	n/a	-999	1	[2, 9, 5]	16	FR1	0	R1342M
389.092	0.018	389464	STOP	n/a	n/a	n/a	-999	1	[-999, -999, -999]	n/a	FR1	0	R1342M
389.11	0.634	389482	DISTRACT_END	n/a	n/a	n/a	-999	1	[0, 0, 0]	n/a	FR1	0	R1342M
389.744	1.551	390116	RETRIEVAL_ORIENT_START	n/a	n/a	n/a	-999	1	[0, 0, 0]	n/a	FR1	0	R1342M
391.295	0.0	391667	REC_START	n/a	n/a	n/a	-999	1	[0, 0, 0]	n/a	FR1	0	R1342M
391.295	1.754	391667	RETRIEVAL_ORIENT_END	n/a	n/a	n/a	-999	1	[0, 0, 0]	n/a	FR1	0	R1342M
393.049	1.092	393421	REC_WORD_VV	1.092	n/a	<>	-999	1	[0, 0, 0]	n/a	FR1	0	R1342M
394.141	2.256	394513	REC_WORD_VV	2.256	n/a	<>	-999	1	[0, 0, 0]	n/a	FR1	0	R1342M
396.397	1.891	396769	REC_WORD	1.891	n/a	TOOL	1	1	[0, 0, 0]	n/a	FR1	0	R1342M
398.288	1.212	398660	REC_WORD_VV	1.212	n/a	<>	-999	1	[0, 0, 0]	n/a	FR1	0	R1342M
399.5	1.073	399871	REC_WORD_VV	1.073	n/a	<>	-999	1	[0, 0, 0]	n/a	FR1	0	R1342M
400.573	6.011	400944	REC_WORD_VV	6.011	n/a	<>	-999	1	[0, 0, 0]	n/a	FR1	0	R1342M
406.584	14.725	406955	REC_WORD_VV	14.725	n/a	<>	-999	1	[0, 0, 0]	n/a	FR1	0	R1342M
421.309	0.0	421679	REC_END	n/a	n/a	n/a	-999	1	[0, 0, 0]	n/a	FR1	0	R1342M
421.309	0.017	421679	TRIAL_END	n/a	n/a	n/a	-999	1	[0, 0, 0]	n/a	FR1	0	R1342M
421.326	0.0	421696	TRIAL_START	n/a	n/a	n/a	-999	2	[0, 0, 0]	n/a	FR1	0	R1342M
421.326	0.001	421696	TRIAL	n/a	n/a	n/a	-999	2	[0, 0, 0]	n/a	FR1	0	R1342M
421.327	22.128	421697	WAITING_START	n/a	n/a	n/a	-999	2	[0, 0, 0]	n/a	FR1	0	R1342M
443.455	0.0	443824	WAITING_END	n/a	n/a	n/a	-999	2	[0, 0, 0]	n/a	FR1	0	R1342M
443.455	10.43	443824	COUNTDOWN_START	n/a	n/a	n/a	-999	2	[0, 0, 0]	n/a	FR1	0	R1342M
453.885	0.0	454254	COUNTDOWN_END	n/a	n/a	n/a	-999	2	[0, 0, 0]	n/a	FR1	0	R1342M
453.885	1.138	454254	ORIENT_START	n/a	n/a	n/a	-999	2	[0, 0, 0]	n/a	FR1	0	R1342M
455.023	0.001	455392	ORIENT_END	n/a	n/a	n/a	-999	2	[0, 0, 0]	n/a	FR1	0	R1342M
455.024	0.839	455393	ENCODING_START	n/a	n/a	n/a	-999	2	[0, 0, 0]	n/a	FR1	0	R1342M
455.863	1.628	456232	WORD	n/a	wordpools/wordpool_EN.txt	FOAM	1	2	[0, 0, 0]	n/a	FR1	0	R1342M
457.491	0.893	457860	WORD_OFF	n/a	n/a	FOAM	1	2	[0, 0, 0]	n/a	FR1	0	R1342M
458.384	1.623	458752	WORD	n/a	wordpools/wordpool_EN.txt	TENT	2	2	[0, 0, 0]	n/a	FR1	0	R1342M
460.007	1.073	460375	WORD_OFF	n/a	n/a	TENT	2	2	[0, 0, 0]	n/a	FR1	0	R1342M
461.08	1.629	461448	WORD	n/a	wordpools/wordpool_EN.txt	CAPE	3	2	[0, 0, 0]	n/a	FR1	0	R1342M
462.709	0.848	463077	WORD_OFF	n/a	n/a	CAPE	3	2	[0, 0, 0]	n/a	FR1	0	R1342M
463.557	1.635	463925	WORD	n/a	wordpools/wordpool_EN.txt	AXE	4	2	[0, 0, 0]	n/a	FR1	0	R1342M
465.192	0.854	465560	WORD_OFF	n/a	n/a	AXE	4	2	[0, 0, 0]	n/a	FR1	0	R1342M
466.046	1.614	466414	WORD	n/a	wordpools/wordpool_EN.txt	BAT	5	2	[0, 0, 0]	n/a	FR1	0	R1342M
467.66	1.089	468028	WORD_OFF	n/a	n/a	BAT	5	2	[0, 0, 0]	n/a	FR1	0	R1342M
468.749	1.628	469117	WORD	n/a	wordpools/wordpool_EN.txt	GLOVE	6	2	[0, 0, 0]	n/a	FR1	0	R1342M
470.377	0.848	470745	WORD_OFF	n/a	n/a	GLOVE	6	2	[0, 0, 0]	n/a	FR1	0	R1342M
471.225	1.636	471593	WORD	n/a	wordpools/wordpool_EN.txt	TEETH	7	2	[0, 0, 0]	n/a	FR1	0	R1342M
472.861	0.86	473229	WORD_OFF	n/a	n/a	TEETH	7	2	[0, 0, 0]	n/a	FR1	0	R1342M
473.721	1.624	474089	WORD	n/a	wordpools/wordpool_EN.txt	SOCK	8	2	[0, 0, 0]	n/a	FR1	0	R1342M
475.345	0.889	475713	WORD_OFF	n/a	n/a	SOCK	8	2	[0, 0, 0]	n/a	FR1	0	R1342M
476.234	1.628	476602	WORD	n/a	wordpools/wordpool_EN.txt	ROOM	9	2	[0, 0, 0]	n/a	FR1	0	R1342M
477.862	0.76	478230	WORD_OFF	n/a	n/a	ROOM	9	2	[0, 0, 0]	n/a	FR1	0	R1342M
478.622	1.624	478989	WORD	n/a	wordpools/wordpool_EN.txt	DART	10	2	[0, 0, 0]	n/a	FR1	0	R1342M
480.246	0.754	480613	WORD_OFF	n/a	n/a	DART	10	2	[0, 0, 0]	n/a	FR1	0	R1342M
481.0	1.63	481367	WORD	n/a	wordpools/wordpool_EN.txt	PEARL	11	2	[0, 0, 0]	n/a	FR1	0	R1342M
482.63	0.805	482997	WORD_OFF	n/a	n/a	PEARL	11	2	[0, 0, 0]	n/a	FR1	0	R1342M
483.435	1.627	483802	WORD	n/a	wordpools/wordpool_EN.txt	LEG	12	2	[0, 0, 0]	n/a	FR1	0	R1342M
485.062	0.001	485429	WORD_OFF	n/a	n/a	LEG	12	2	[0, 0, 0]	n/a	FR1	0	R1342M
485.063	0.0	485430	DISTRACT_START	n/a	n/a	n/a	-999	2	[0, 0, 0]	n/a	FR1	0	R1342M
485.063	0.0	485430	ENCODING_END	n/a	n/a	n/a	-999	2	[0, 0, 0]	n/a	FR1	0	R1342M
485.063	0.016	485430	START	n/a	n/a	n/a	-999	2	[-999, -999, -999]	n/a	FR1	0	R1342M
485.079	6.001	485446	PROB	6.001	n/a	n/a	-999	2	[4, 8, 6]	18	FR1	0	R1342M
491.08	4.285	491447	PROB	4.285	n/a	n/a	-999	2	[7, 3, 6]	16	FR1	0	R1342M
495.365	4.8	495732	PROB	4.8	n/a	n/a	-999	2	[3, 8, 8]	19	FR1	0	R1342M
500.165	4.934	500531	PROB	4.934	n/a	n/a	-999	2	[8, 7, 4]	19	FR1	0	R1342M
505.099	0.017	505465	STOP	n/a	n/a	n/a	-999	2	[-999, -999, -999]	n/a	FR1	0	R1342M
505.116	0.524	505482	DISTRACT_END	n/a	n/a	n/a	-999	2	[0, 0, 0]	n/a	FR1	0	R1342M
505.64	1.543	506006	RETRIEVAL_ORIENT_START	n/a	n/a	n/a	-999	2	[0, 0, 0]	n/a	FR1	0	R1342M
507.183	0.0	507549	RETRIEVAL_ORIENT_END	n/a	n/a	n/a	-999	2	[0, 0, 0]	n/a	FR1	0	R1342M
507.183	2.317	507549	REC_START	n/a	n/a	n/a	-999	2	[0, 0, 0]	n/a	FR1	0	R1342M
509.5	1.416	509866	REC_WORD_VV	1.416	n/a	<>	-999	2	[0, 0, 0]	n/a	FR1	0	R1342M
510.916	10.993	511282	REC_WORD_VV	10.993	n/a	<>	-999	2	[0, 0, 0]	n/a	FR1	0	R1342M
521.909	15.287	522274	REC_WORD_VV	15.287	n/a	<>	-999	2	[0, 0, 0]	n/a	FR1	0	R1342M
537.196	0.001	537561	REC_END	n/a	n/a	n/a	-999	2	[0, 0, 0]	n/a	FR1	0	R1342M
537.197	0.016	537562	TRIAL_END	n/a	n/a	n/a	-999	2	[0, 0, 0]	n/a	FR1	0	R1342M
537.213	0.0	537578	TRIAL_START	n/a	n/a	n/a	-999	3	[0, 0, 0]	n/a	FR1	0	R1342M
537.213	0.0	537578	TRIAL	n/a	n/a	n/a	-999	3	[0, 0, 0]	n/a	FR1	0	R1342M
537.213	29.233	537578	WAITING_START	n/a	n/a	n/a	-999	3	[0, 0, 0]	n/a	FR1	0	R1342M
566.446	0.0	566809	WAITING_END	n/a	n/a	n/a	-999	3	[0, 0, 0]	n/a	FR1	0	R1342M
566.446	10.429	566809	COUNTDOWN_START	n/a	n/a	n/a	-999	3	[0, 0, 0]	n/a	FR1	0	R1342M
576.875	0.0	577238	COUNTDOWN_END	n/a	n/a	n/a	-999	3	[0, 0, 0]	n/a	FR1	0	R1342M
576.875	1.255	577238	ORIENT_START	n/a	n/a	n/a	-999	3	[0, 0, 0]	n/a	FR1	0	R1342M
578.13	0.001	578492	ORIENT_END	n/a	n/a	n/a	-999	3	[0, 0, 0]	n/a	FR1	0	R1342M
578.131	1.136	578493	ENCODING_START	n/a	n/a	n/a	-999	3	[0, 0, 0]	n/a	FR1	0	R1342M
579.267	1.63	579629	WORD	n/a	wordpools/wordpool_EN.txt	VASE	1	3	[0, 0, 0]	n/a	FR1	0	R1342M
580.897	0.985	581259	WORD_OFF	n/a	n/a	VASE	1	3	[0, 0, 0]	n/a	FR1	0	R1342M
581.882	1.617	582244	WORD	n/a	wordpools/wordpool_EN.txt	EGG	2	3	[0, 0, 0]	n/a	FR1	0	R1342M
583.499	0.83	583861	WORD_OFF	n/a	n/a	EGG	2	3	[0, 0, 0]	n/a	FR1	0	R1342M
584.329	1.636	584691	WORD	n/a	wordpools/wordpool_EN.txt	BOOK	3	3	[0, 0, 0]	n/a	FR1	0	R1342M
585.965	0.816	586327	WORD_OFF	n/a	n/a	BOOK	3	3	[0, 0, 0]	n/a	FR1	0	R1342M
586.781	1.636	587143	WORD	n/a	wordpools/wordpool_EN.txt	WHALE	4	3	[0, 0, 0]	n/a	FR1	0	R1342M
588.417	0.983	588779	WORD_OFF	n/a	n/a	WHALE	4	3	[0, 0, 0]	n/a	FR1	0	R1342M
589.4	1.633	589762	WORD	n/a	wordpools/wordpool_EN.txt	TIE	5	3	[0, 0, 0]	n/a	FR1	0	R1342M
591.033	1.148	591395	WORD_OFF	n/a	n/a	TIE	5	3	[0, 0, 0]	n/a	FR1	0	R1342M
592.181	1.637	592543	WORD	n/a	wordpools/wordpool_EN.txt	CLOUD	6	3	[0, 0, 0]	n/a	FR1	0	R1342M
593.818	0.761	594180	WORD_OFF	n/a	n/a	CLOUD	6	3	[0, 0, 0]	n/a	FR1	0	R1342M
594.579	1.621	594941	WORD	n/a	wordpools/wordpool_EN.txt	HOSE	7	3	[0, 0, 0]	n/a	FR1	0	R1342M
596.2	0.961	596562	WORD_OFF	n/a	n/a	HOSE	7	3	[0, 0, 0]	n/a	FR1	0	R1342M
597.161	1.624	597523	WORD	n/a	wordpools/wordpool_EN.txt	HOOK	8	3	[0, 0, 0]	n/a	FR1	0	R1342M
598.785	0.862	599146	WORD_OFF	n/a	n/a	HOOK	8	3	[0, 0, 0]	n/a	FR1	0	R1342M
599.647	1.622	600008	WORD	n/a	wordpools/wordpool_EN.txt	BOAT	9	3	[0, 0, 0]	n/a	FR1	0	R1342M
601.269	1.005	601630	WORD_OFF	n/a	n/a	BOAT	9	3	[0, 0, 0]	n/a	FR1	0	R1342M
602.274	1.628	602635	WORD	n/a	wordpools/wordpool_EN.txt	SUIT	10	3	[0, 0, 0]	n/a	FR1	0	R1342M
603.902	1.087	604263	WORD_OFF	n/a	n/a	SUIT	10	3	[0, 0, 0]	n/a	FR1	0	R1342M
604.989	1.631	605350	WORD	n/a	wordpools/wordpool_EN.txt	PEAR	11	3	[0, 0, 0]	n/a	FR1	0	R1342M
606.62	0.794	606981	WORD_OFF	n/a	n/a	PEAR	11	3	[0, 0, 0]	n/a	FR1	0	R1342M
607.414	1.622	607775	WORD	n/a	wordpools/wordpool_EN.txt	THUMB	12	3	[0, 0, 0]	n/a	FR1	0	R1342M
609.036	0.001	609397	WORD_OFF	n/a	n/a	THUMB	12	3	[0, 0, 0]	n/a	FR1	0	R1342M
609.037	0.0	609398	ENCODING_END	n/a	n/a	n/a	-999	3	[0, 0, 0]	n/a	FR1	0	R1342M
609.037	0.0	609398	DISTRACT_START	n/a	n/a	n/a	-999	3	[0, 0, 0]	n/a	FR1	0	R1342M
609.037	0.016	609398	START	n/a	n/a	n/a	-999	3	[-999, -999, -999]	n/a	FR1	0	R1342M
609.053	5.768	609414	PROB	5.768	n/a	n/a	-999	3	[5, 4, 3]	12	FR1	0	R1342M
614.821	3.518	615182	PROB	3.518	n/a	n/a	-999	3	[1, 9, 9]	19	FR1	0	R1342M
618.339	5.267	618699	PROB	5.267	n/a	n/a	-999	3	[3, 6, 2]	11	FR1	0	R1342M
623.606	4.018	623966	PROB	4.018	n/a	n/a	-999	3	[2, 1, 5]	8	FR1	0	R1342M
627.624	4.218	627984	PROB	4.218	n/a	n/a	-999	3	[1, 5, 7]	13	FR1	0	R1342M
631.842	0.016	632202	STOP	n/a	n/a	n/a	-999	3	[-999, -999, -999]	n/a	FR1	0	R1342M
631.858	0.518	632218	DISTRACT_END	n/a	n/a	n/a	-999	3	[0, 0, 0]	n/a	FR1	0	R1342M
632.376	1.565	632736	RETRIEVAL_ORIENT_START	n/a	n/a	n/a	-999	3	[0, 0, 0]	n/a	FR1	0	R1342M
633.941	0.0	634301	RETRIEVAL_ORIENT_END	n/a	n/a	n/a	-999	3	[0, 0, 0]	n/a	FR1	0	R1342M
633.941	1.524	634301	REC_START	n/a	n/a	n/a	-999	3	[0, 0, 0]	n/a	FR1	0	R1342M
635.465	1.291	635825	REC_WORD	1.291	n/a	HOSE	7	3	[0, 0, 0]	n/a	FR1	0	R1342M
636.756	27.198	637116	REC_WORD	27.198	n/a	TIE	5	3	[0, 0, 0]	n/a	FR1	0	R1342M
663.954	0.001	664312	REC_END	n/a	n/a	n/a	-999	3	[0, 0, 0]	n/a	FR1	0	R1342M
663.955	0.017	664313	TRIAL_END	n/a	n/a	n/a	-999	3	[0, 0, 0]	n/a	FR1	0	R1342M
663.972	0.0	664330	WAITING_START	n/a	n/a	n/a	-999	4	[0, 0, 0]	n/a	FR1	0	R1342M
663.972	0.0	664330	TRIAL	n/a	n/a	n/a	-999	4	[0, 0, 0]	n/a	FR1	0	R1342M
663.972	19.53	664330	TRIAL_START	n/a	n/a	n/a	-999	4	[0, 0, 0]	n/a	FR1	0	R1342M
683.502	0.0	683859	WAITING_END	n/a	n/a	n/a	-999	4	[0, 0, 0]	n/a	FR1	0	R1342M
683.502	10.428	683859	COUNTDOWN_START	n/a	n/a	n/a	-999	4	[0, 0, 0]	n/a	FR1	0	R1342M
693.93	0.0	694287	COUNTDOWN_END	n/a	n/a	n/a	-999	4	[0, 0, 0]	n/a	FR1	0	R1342M
693.93	1.073	694287	ORIENT_START	n/a	n/a	n/a	-999	4	[0, 0, 0]	n/a	FR1	0	R1342M
695.003	0.0	695360	ORIENT_END	n/a	n/a	n/a	-999	4	[0, 0, 0]	n/a	FR1	0	R1342M
695.003	1.119	695360	ENCODING_START	n/a	n/a	n/a	-999	4	[0, 0, 0]	n/a	FR1	0	R1342M
696.122	1.632	696479	WORD	n/a	wordpools/wordpool_EN.txt	MULE	1	4	[0, 0, 0]	n/a	FR1	0	R1342M
697.754	0.878	698110	WORD_OFF	n/a	n/a	MULE	1	4	[0, 0, 0]	n/a	FR1	0	R1342M
698.632	1.622	698988	WORD	n/a	wordpools/wordpool_EN.txt	ARK	2	4	[0, 0, 0]	n/a	FR1	0	R1342M
700.254	0.886	700610	WORD_OFF	n/a	n/a	ARK	2	4	[0, 0, 0]	n/a	FR1	0	R1342M
701.14	1.632	701496	WORD	n/a	wordpools/wordpool_EN.txt	BRIDGE	3	4	[0, 0, 0]	n/a	FR1	0	R1342M
702.772	1.071	703128	WORD_OFF	n/a	n/a	BRIDGE	3	4	[0, 0, 0]	n/a	FR1	0	R1342M
703.843	1.63	704199	WORD	n/a	wordpools/wordpool_EN.txt	STEAM	4	4	[0, 0, 0]	n/a	FR1	0	R1342M
705.473	1.06	705829	WORD_OFF	n/a	n/a	STEAM	4	4	[0, 0, 0]	n/a	FR1	0	R1342M
706.533	1.622	706889	WORD	n/a	wordpools/wordpool_EN.txt	LAWN	5	4	[0, 0, 0]	n/a	FR1	0	R1342M
708.155	0.803	708511	WORD_OFF	n/a	n/a	LAWN	5	4	[0, 0, 0]	n/a	FR1	0	R1342M
708.958	1.615	709314	WORD	n/a	wordpools/wordpool_EN.txt	BEACH	6	4	[0, 0, 0]	n/a	FR1	0	R1342M
710.573	1.072	710929	WORD_OFF	n/a	n/a	BEACH	6	4	[0, 0, 0]	n/a	FR1	0	R1342M
711.645	1.629	712001	WORD	n/a	wordpools/wordpool_EN.txt	PHONE	7	4	[0, 0, 0]	n/a	FR1	0	R1342M
713.274	1.01	713630	WORD_OFF	n/a	n/a	PHONE	7	4	[0, 0, 0]	n/a	FR1	0	R1342M
714.284	1.623	714640	WORD	n/a	wordpools/wordpool_EN.txt	CAVE	8	4	[0, 0, 0]	n/a	FR1	0	R1342M
715.907	0.918	716263	WORD_OFF	n/a	n/a	CAVE	8	4	[0, 0, 0]	n/a	FR1	0	R1342M
716.825	1.633	717180	WORD	n/a	wordpools/wordpool_EN.txt	LAKE	9	4	[0, 0, 0]	n/a	FR1	0	R1342M
718.458	0.902	718813	WORD_OFF	n/a	n/a	LAKE	9	4	[0, 0, 0]	n/a	FR1	0	R1342M
719.36	1.631	719715	WORD	n/a	wordpools/wordpool_EN.txt	PASTE	10	4	[0, 0, 0]	n/a	FR1	0	R1342M
720.991	1.013	721346	WORD_OFF	n/a	n/a	PASTE	10	4	[0, 0, 0]	n/a	FR1	0	R1342M
722.004	1.622	722359	WORD	n/a	wordpools/wordpool_EN.txt	BADGE	11	4	[0, 0, 0]	n/a	FR1	0	R1342M
723.626	0.834	723981	WORD_OFF	n/a	n/a	BADGE	11	4	[0, 0, 0]	n/a	FR1	0	R1342M
724.46	1.632	724815	WORD	n/a	wordpools/wordpool_EN.txt	BOY	12	4	[0, 0, 0]	n/a	FR1	0	R1342M
726.092	0.0	726447	WORD_OFF	n/a	n/a	BOY	12	4	[0, 0, 0]	n/a	FR1	0	R1342M
726.092	0.001	726447	ENCODING_END	n/a	n/a	n/a	-999	4	[0, 0, 0]	n/a	FR1	0	R1342M
726.093	0.0	726448	DISTRACT_START	n/a	n/a	n/a	-999	4	[0, 0, 0]	n/a	FR1	0	R1342M
726.093	0.016	726448	START	n/a	n/a	n/a	-999	4	[-999, -999, -999]	n/a	FR1	0	R1342M
726.109	7.502	726464	PROB	7.502	n/a	n/a	-999	4	[9, 8, 5]	22	FR1	0	R1342M
733.611	7.085	733966	PROB	7.085	n/a	n/a	-999	4	[9, 3, 4]	16	FR1	0	R1342M
740.696	4.851	741050	PROB	4.851	n/a	n/a	-999	4	[7, 3, 9]	19	FR1	0	R1342M
745.547	5.09	745901	PROB	5.09	n/a	n/a	-999	4	[7, 7, 4]	18	FR1	0	R1342M
750.637	0.011	750991	STOP	n/a	n/a	n/a	-999	4	[-999, -999, -999]	n/a	FR1	0	R1342M
750.648	0.573	751002	DISTRACT_END	n/a	n/a	n/a	-999	4	[0, 0, 0]	n/a	FR1	0	R1342M
751.221	1.66	751575	RETRIEVAL_ORIENT_START	n/a	n/a	n/a	-999	4	[0, 0, 0]	n/a	FR1	0	R1342M
752.881	0.0	753235	REC_START	n/a	n/a	n/a	-999	4	[0, 0, 0]	n/a	FR1	0	R1342M
752.881	3.937	753235	RETRIEVAL_ORIENT_END	n/a	n/a	n/a	-999	4	[0, 0, 0]	n/a	FR1	0	R1342M
756.818	15.874	757171	REC_WORD	15.874	n/a	BRIDGE	3	4	[0, 0, 0]	n/a	FR1	0	R1342M
772.692	10.202	773045	REC_WORD	10.202	n/a	MULE	1	4	[0, 0, 0]	n/a	FR1	0	R1342M
782.894	0.0	783246	REC_END	n/a	n/a	n/a	-999	4	[0, 0, 0]	n/a	FR1	0	R1342M
782.894	0.015	783246	TRIAL_END	n/a	n/a	n/a	-999	4	[0, 0, 0]	n/a	FR1	0	R1342M
782.909	0.0	783261	TRIAL_START	n/a	n/a	n/a	-999	5	[0, 0, 0]	n/a	FR1	0	R1342M
782.909	0.0	783261	TRIAL	n/a	n/a	n/a	-999	5	[0, 0, 0]	n/a	FR1	0	R1342M
782.909	11.731	783261	WAITING_START	n/a	n/a	n/a	-999	5	[0, 0, 0]	n/a	FR1	0	R1342M
794.64	0.0	794992	COUNTDOWN_START	n/a	n/a	n/a	-999	5	[0, 0, 0]	n/a	FR1	0	R1342M
794.64	10.429	794992	WAITING_END	n/a	n/a	n/a	-999	5	[0, 0, 0]	n/a	FR1	0	R1342M
805.069	0.0	805420	COUNTDOWN_END	n/a	n/a	n/a	-999	5	[0, 0, 0]	n/a	FR1	0	R1342M
805.069	1.122	805420	ORIENT_START	n/a	n/a	n/a	-999	5	[0, 0, 0]	n/a	FR1	0	R1342M
806.191	0.0	806542	ORIENT_END	n/a	n/a	n/a	-999	5	[0, 0, 0]	n/a	FR1	0	R1342M
806.191	1.11	806542	ENCODING_START	n/a	n/a	n/a	-999	5	[0, 0, 0]	n/a	FR1	0	R1342M
807.301	1.624	807652	WORD	n/a	wordpools/wordpool_EN.txt	ROOF	1	5	[0, 0, 0]	n/a	FR1	0	R1342M
808.925	0.949	809276	WORD_OFF	n/a	n/a	ROOF	1	5	[0, 0, 0]	n/a	FR1	0	R1342M
809.874	1.619	810225	WORD	n/a	wordpools/wordpool_EN.txt	FILM	2	5	[0, 0, 0]	n/a	FR1	0	R1342M
811.493	0.85	811844	WORD_OFF	n/a	n/a	FILM	2	5	[0, 0, 0]	n/a	FR1	0	R1342M
812.343	1.633	812694	WORD	n/a	wordpools/wordpool_EN.txt	FAN	3	5	[0, 0, 0]	n/a	FR1	0	R1342M
813.976	0.768	814327	WORD_OFF	n/a	n/a	FAN	3	5	[0, 0, 0]	n/a	FR1	0	R1342M
814.744	1.633	815095	WORD	n/a	wordpools/wordpool_EN.txt	CHIEF	4	5	[0, 0, 0]	n/a	FR1	0	R1342M
816.377	1.109	816727	WORD_OFF	n/a	n/a	CHIEF	4	5	[0, 0, 0]	n/a	FR1	0	R1342M
817.486	1.624	817836	WORD	n/a	wordpools/wordpool_EN.txt	MOON	5	5	[0, 0, 0]	n/a	FR1	0	R1342M
819.11	0.922	819460	WORD_OFF	n/a	n/a	MOON	5	5	[0, 0, 0]	n/a	FR1	0	R1342M
820.032	1.613	820382	WORD	n/a	wordpools/wordpool_EN.txt	STRAW	6	5	[0, 0, 0]	n/a	FR1	0	R1342M
821.645	0.83	821995	WORD_OFF	n/a	n/a	STRAW	6	5	[0, 0, 0]	n/a	FR1	0	R1342M
822.475	1.636	822825	WORD	n/a	wordpools/wordpool_EN.txt	CLOWN	7	5	[0, 0, 0]	n/a	FR1	0	R1342M
824.111	1.028	824461	WORD_OFF	n/a	n/a	CLOWN	7	5	[0, 0, 0]	n/a	FR1	0	R1342M
825.139	1.607	825489	WORD	n/a	wordpools/wordpool_EN.txt	SPOON	8	5	[0, 0, 0]	n/a	FR1	0	R1342M
826.746	1.113	827096	WORD_OFF	n/a	n/a	SPOON	8	5	[0, 0, 0]	n/a	FR1	0	R1342M
827.859	1.637	828209	WORD	n/a	wordpools/wordpool_EN.txt	CROW	9	5	[0, 0, 0]	n/a	FR1	0	R1342M
829.496	1.077	829846	WORD_OFF	n/a	n/a	CROW	9	5	[0, 0, 0]	n/a	FR1	0	R1342M
830.573	1.623	830923	WORD	n/a	wordpools/wordpool_EN.txt	SNOW	10	5	[0, 0, 0]	n/a	FR1	0	R1342M
832.196	0.814	832546	WORD_OFF	n/a	n/a	SNOW	10	5	[0, 0, 0]	n/a	FR1	0	R1342M
833.01	1.621	833360	WORD	n/a	wordpools/wordpool_EN.txt	TANK	11	5	[0, 0, 0]	n/a	FR1	0	R1342M
834.631	1.009	834981	WORD_OFF	n/a	n/a	TANK	11	5	[0, 0, 0]	n/a	FR1	0	R1342M
835.64	1.625	835990	WORD	n/a	wordpools/wordpool_EN.txt	BAND	12	5	[0, 0, 0]	n/a	FR1	0	R1342M
837.265	0.0	837614	WORD_OFF	n/a	n/a	BAND	12	5	[0, 0, 0]	n/a	FR1	0	R1342M
837.265	0.0	837614	ENCODING_END	n/a	n/a	n/a	-999	5	[0, 0, 0]	n/a	FR1	0	R1342M
837.265	0.0	837614	DISTRACT_START	n/a	n/a	n/a	-999	5	[0, 0, 0]	n/a	FR1	0	R1342M
837.265	0.016	837614	START	n/a	n/a	n/a	-999	5	[-999, -999, -999]	n/a	FR1	0	R1342M
837.281	7.368	837630	PROB	7.368	n/a	n/a	-999	5	[9, 6, 6]	21	FR1	0	R1342M
844.649	35.42	844998	PROB	35.42	n/a	n/a	-999	5	[8, 9, 6]	23	FR1	0	R1342M
880.069	0.019	880416	STOP	n/a	n/a	n/a	-999	5	[-999, -999, -999]	n/a	FR1	0	R1342M
880.088	0.592	880435	DISTRACT_END	n/a	n/a	n/a	-999	5	[0, 0, 0]	n/a	FR1	0	R1342M
880.68	1.577	881027	RETRIEVAL_ORIENT_START	n/a	n/a	n/a	-999	5	[0, 0, 0]	n/a	FR1	0	R1342M
882.257	0.0	882604	RETRIEVAL_ORIENT_END	n/a	n/a	n/a	-999	5	[0, 0, 0]	n/a	FR1	0	R1342M
882.257	4.818	882604	REC_START	n/a	n/a	n/a	-999	5	[0, 0, 0]	n/a	FR1	0	R1342M
887.075	25.193	887422	REC_WORD	25.193	n/a	TANK	11	5	[0, 0, 0]	n/a	FR1	0	R1342M
912.268	0.0	912614	REC_END	n/a	n/a	n/a	-999	5	[0, 0, 0]	n/a	FR1	0	R1342M
912.268	0.016	912614	TRIAL_END	n/a	n/a	n/a	-999	5	[0, 0, 0]	n/a	FR1	0	R1342M
912.284	0.0	912630	TRIAL_START	n/a	n/a	n/a	-999	6	[0, 0, 0]	n/a	FR1	0	R1342M
912.284	0.0	912630	TRIAL	n/a	n/a	n/a	-999	6	[0, 0, 0]	n/a	FR1	0	R1342M
912.284	8.463	912630	WAITING_START	n/a	n/a	n/a	-999	6	[0, 0, 0]	n/a	FR1	0	R1342M
920.747	0.001	921092	WAITING_END	n/a	n/a	n/a	-999	6	[0, 0, 0]	n/a	FR1	0	R1342M
920.748	10.429	921093	COUNTDOWN_START	n/a	n/a	n/a	-999	6	[0, 0, 0]	n/a	FR1	0	R1342M
931.177	0.0	931522	ORIENT_START	n/a	n/a	n/a	-999	6	[0, 0, 0]	n/a	FR1	0	R1342M
931.177	1.123	931522	COUNTDOWN_END	n/a	n/a	n/a	-999	6	[0, 0, 0]	n/a	FR1	0	R1342M
932.3	0.0	932645	ORIENT_END	n/a	n/a	n/a	-999	6	[0, 0, 0]	n/a	FR1	0	R1342M
932.3	0.844	932645	ENCODING_START	n/a	n/a	n/a	-999	6	[0, 0, 0]	n/a	FR1	0	R1342M
933.144	1.639	933489	WORD	n/a	wordpools/wordpool_EN.txt	SKI	1	6	[0, 0, 0]	n/a	FR1	0	R1342M
934.783	0.836	935128	WORD_OFF	n/a	n/a	SKI	1	6	[0, 0, 0]	n/a	FR1	0	R1342M
935.619	1.632	935963	WORD	n/a	wordpools/wordpool_EN.txt	GLASS	2	6	[0, 0, 0]	n/a	FR1	0	R1342M
937.251	1.097	937595	WORD_OFF	n/a	n/a	GLASS	2	6	[0, 0, 0]	n/a	FR1	0	R1342M
938.348	1.635	938692	WORD	n/a	wordpools/wordpool_EN.txt	CAR	3	6	[0, 0, 0]	n/a	FR1	0	R1342M
939.983	1.033	940327	WORD_OFF	n/a	n/a	CAR	3	6	[0, 0, 0]	n/a	FR1	0	R1342M
941.016	1.619	941360	WORD	n/a	wordpools/wordpool_EN.txt	RAKE	4	6	[0, 0, 0]	n/a	FR1	0	R1342M
942.635	0.802	942979	WORD_OFF	n/a	n/a	RAKE	4	6	[0, 0, 0]	n/a	FR1	0	R1342M
943.437	1.631	943781	WORD	n/a	wordpools/wordpool_EN.txt	NEST	5	6	[0, 0, 0]	n/a	FR1	0	R1342M
945.068	0.779	945412	WORD_OFF	n/a	n/a	NEST	5	6	[0, 0, 0]	n/a	FR1	0	R1342M
945.847	1.622	946191	WORD	n/a	wordpools/wordpool_EN.txt	PEN	6	6	[0, 0, 0]	n/a	FR1	0	R1342M
947.469	0.816	947813	WORD_OFF	n/a	n/a	PEN	6	6	[0, 0, 0]	n/a	FR1	0	R1342M
948.285	1.634	948629	WORD	n/a	wordpools/wordpool_EN.txt	BIRD	7	6	[0, 0, 0]	n/a	FR1	0	R1342M
949.919	0.941	950263	WORD_OFF	n/a	n/a	BIRD	7	6	[0, 0, 0]	n/a	FR1	0	R1342M
950.86	1.627	951204	WORD	n/a	wordpools/wordpool_EN.txt	CLIFF	8	6	[0, 0, 0]	n/a	FR1	0	R1342M
952.487	0.968	952831	WORD_OFF	n/a	n/a	CLIFF	8	6	[0, 0, 0]	n/a	FR1	0	R1342M
953.455	1.631	953799	WORD	n/a	wordpools/wordpool_EN.txt	CUBE	9	6	[0, 0, 0]	n/a	FR1	0	R1342M
955.086	1.052	955430	WORD_OFF	n/a	n/a	CUBE	9	6	[0, 0, 0]	n/a	FR1	0	R1342M
956.138	1.633	956481	WORD	n/a	wordpools/wordpool_EN.txt	ARM	10	6	[0, 0, 0]	n/a	FR1	0	R1342M
957.771	0.904	958114	WORD_OFF	n/a	n/a	ARM	10	6	[0, 0, 0]	n/a	FR1	0	R1342M
958.675	1.63	959018	WORD	n/a	wordpools/wordpool_EN.txt	CHEEK	11	6	[0, 0, 0]	n/a	FR1	0	R1342M
960.305	0.752	960648	WORD_OFF	n/a	n/a	CHEEK	11	6	[0, 0, 0]	n/a	FR1	0	R1342M
961.057	1.615	961400	WORD	n/a	wordpools/wordpool_EN.txt	FRUIT	12	6	[0, 0, 0]	n/a	FR1	0	R1342M
962.672	0.001	963015	WORD_OFF	n/a	n/a	FRUIT	12	6	[0, 0, 0]	n/a	FR1	0	R1342M
962.673	0.0	963016	DISTRACT_START	n/a	n/a	n/a	-999	6	[0, 0, 0]	n/a	FR1	0	R1342M
962.673	0.0	963016	ENCODING_END	n/a	n/a	n/a	-999	6	[0, 0, 0]	n/a	FR1	0	R1342M
962.673	0.016	963016	START	n/a	n/a	n/a	-999	6	[-999, -999, -999]	n/a	FR1	0	R1342M
962.689	4.701	963032	PROB	4.701	n/a	n/a	-999	6	[1, 9, 1]	11	FR1	0	R1342M
967.39	5.516	967733	PROB	5.516	n/a	n/a	-999	6	[7, 4, 1]	12	FR1	0	R1342M
972.906	11.113	973249	PROB	11.113	n/a	n/a	-999	6	[7, 9, 8]	24	FR1	0	R1342M
984.019	0.006	984361	STOP	n/a	n/a	n/a	-999	6	[-999, -999, -999]	n/a	FR1	0	R1342M
984.025	0.626	984367	DISTRACT_END	n/a	n/a	n/a	-999	6	[0, 0, 0]	n/a	FR1	0	R1342M
984.651	1.626	984993	RETRIEVAL_ORIENT_START	n/a	n/a	n/a	-999	6	[0, 0, 0]	n/a	FR1	0	R1342M
986.277	0.0	986619	RETRIEVAL_ORIENT_END	n/a	n/a	n/a	-999	6	[0, 0, 0]	n/a	FR1	0	R1342M
986.277	3.565	986619	REC_START	n/a	n/a	n/a	-999	6	[0, 0, 0]	n/a	FR1	0	R1342M
989.842	22.267	990184	REC_WORD	22.267	n/a	SKI	1	6	[0, 0, 0]	n/a	FR1	0	R1342M
1012.109	4.18	1012450	REC_WORD	4.18	n/a	BOWL	-999	6	[0, 0, 0]	n/a	FR1	0	R1342M
1016.289	0.001	1016629	REC_END	n/a	n/a	n/a	-999	6	[0, 0, 0]	n/a	FR1	0	R1342M
1016.29	0.016	1016630	TRIAL_END	n/a	n/a	n/a	-999	6	[0, 0, 0]	n/a	FR1	0	R1342M
1016.306	0.001	1016646	TRIAL_START	n/a	n/a	n/a	-999	7	[0, 0, 0]	n/a	FR1	0	R1342M
1016.307	0.0	1016647	TRIAL	n/a	n/a	n/a	-999	7	[0, 0, 0]	n/a	FR1	0	R1342M
1016.307	29.031	1016647	WAITING_START	n/a	n/a	n/a	-999	7	[0, 0, 0]	n/a	FR1	0	R1342M
1045.338	0.0	1045677	WAITING_END	n/a	n/a	n/a	-999	7	[0, 0, 0]	n/a	FR1	0	R1342M
1045.338	10.429	1045677	COUNTDOWN_START	n/a	n/a	n/a	-999	7	[0, 0, 0]	n/a	FR1	0	R1342M
1055.767	0.0	1056105	COUNTDOWN_END	n/a	n/a	n/a	-999	7	[0, 0, 0]	n/a	FR1	0	R1342M
1055.767	1.222	1056105	ORIENT_START	n/a	n/a	n/a	-999	7	[0, 0, 0]	n/a	FR1	0	R1342M
1056.989	0.001	1057327	ORIENT_END	n/a	n/a	n/a	-999	7	[0, 0, 0]	n/a	FR1	0	R1342M
1056.99	0.921	1057328	ENCODING_START	n/a	n/a	n/a	-999	7	[0, 0, 0]	n/a	FR1	0	R1342M
1057.911	1.63	1058249	WORD	n/a	wordpools/wordpool_EN.txt	GOLD	1	7	[0, 0, 0]	n/a	FR1	0	R1342M
1059.541	0.811	1059879	WORD_OFF	n/a	n/a	GOLD	1	7	[0, 0, 0]	n/a	FR1	0	R1342M
1060.352	1.622	1060690	WORD	n/a	wordpools/wordpool_EN.txt	MOOSE	2	7	[0, 0, 0]	n/a	FR1	0	R1342M
1061.974	0.958	1062312	WORD_OFF	n/a	n/a	MOOSE	2	7	[0, 0, 0]	n/a	FR1	0	R1342M
1062.932	1.61	1063270	WORD	n/a	wordpools/wordpool_EN.txt	TREE	3	7	[0, 0, 0]	n/a	FR1	0	R1342M
1064.542	1.05	1064880	WORD_OFF	n/a	n/a	TREE	3	7	[0, 0, 0]	n/a	FR1	0	R1342M
1065.592	1.633	1065930	WORD	n/a	wordpools/wordpool_EN.txt	NET	4	7	[0, 0, 0]	n/a	FR1	0	R1342M
1067.225	0.96	1067563	WORD_OFF	n/a	n/a	NET	4	7	[0, 0, 0]	n/a	FR1	0	R1342M
1068.185	1.608	1068523	WORD	n/a	wordpools/wordpool_EN.txt	CROWN	5	7	[0, 0, 0]	n/a	FR1	0	R1342M
1069.793	0.8	1070131	WORD_OFF	n/a	n/a	CROWN	5	7	[0, 0, 0]	n/a	FR1	0	R1342M
1070.593	1.634	1070931	WORD	n/a	wordpools/wordpool_EN.txt	MAIL	6	7	[0, 0, 0]	n/a	FR1	0	R1342M
1072.227	1.064	1072565	WORD_OFF	n/a	n/a	MAIL	6	7	[0, 0, 0]	n/a	FR1	0	R1342M
1073.291	1.635	1073629	WORD	n/a	wordpools/wordpool_EN.txt	SMOKE	7	7	[0, 0, 0]	n/a	FR1	0	R1342M
1074.926	0.93	1075263	WORD_OFF	n/a	n/a	SMOKE	7	7	[0, 0, 0]	n/a	FR1	0	R1342M
1075.856	1.622	1076193	WORD	n/a	wordpools/wordpool_EN.txt	HOUSE	8	7	[0, 0, 0]	n/a	FR1	0	R1342M
1077.478	1.078	1077815	WORD_OFF	n/a	n/a	HOUSE	8	7	[0, 0, 0]	n/a	FR1	0	R1342M
1078.556	1.621	1078893	WORD	n/a	wordpools/wordpool_EN.txt	RAIN	9	7	[0, 0, 0]	n/a	FR1	0	R1342M
1080.177	0.963	1080514	WORD_OFF	n/a	n/a	RAIN	9	7	[0, 0, 0]	n/a	FR1	0	R1342M
1081.14	1.622	1081477	WORD	n/a	wordpools/wordpool_EN.txt	FORK	10	7	[0, 0, 0]	n/a	FR1	0	R1342M
1082.762	1.108	1083099	WORD_OFF	n/a	n/a	FORK	10	7	[0, 0, 0]	n/a	FR1	0	R1342M
1083.87	1.626	1084207	WORD	n/a	wordpools/wordpool_EN.txt	INK	11	7	[0, 0, 0]	n/a	FR1	0	R1342M
1085.496	0.903	1085833	WORD_OFF	n/a	n/a	INK	11	7	[0, 0, 0]	n/a	FR1	0	R1342M
1086.399	1.63	1086736	WORD	n/a	wordpools/wordpool_EN.txt	CLOCK	12	7	[0, 0, 0]	n/a	FR1	0	R1342M
1088.029	0.0	1088366	WORD_OFF	n/a	n/a	CLOCK	12	7	[0, 0, 0]	n/a	FR1	0	R1342M
1088.029	0.001	1088366	ENCODING_END	n/a	n/a	n/a	-999	7	[0, 0, 0]	n/a	FR1	0	R1342M
1088.03	0.0	1088367	DISTRACT_START	n/a	n/a	n/a	-999	7	[0, 0, 0]	n/a	FR1	0	R1342M
1088.03	0.015	1088367	START	n/a	n/a	n/a	-999	7	[-999, -999, -999]	n/a	FR1	0	R1342M
1088.045	5.269	1088382	PROB	5.269	n/a	n/a	-999	7	[1, 8, 4]	13	FR1	0	R1342M
1093.314	6.733	1093651	PROB	6.733	n/a	n/a	-999	7	[5, 9, 2]	16	FR1	0	R1342M
1100.047	3.719	1100383	PROB	3.719	n/a	n/a	-999	7	[8, 2, 2]	12	FR1	0	R1342M
1103.766	4.93	1104102	PROB	4.93	n/a	n/a	-999	7	[6, 2, 9]	17	FR1	0	R1342M
1108.696	0.021	1109032	STOP	n/a	n/a	n/a	-999	7	[-999, -999, -999]	n/a	FR1	0	R1342M
1108.717	0.554	1109053	DISTRACT_END	n/a	n/a	n/a	-999	7	[0, 0, 0]	n/a	FR1	0	R1342M
1109.271	1.58	1109607	RETRIEVAL_ORIENT_START	n/a	n/a	n/a	-999	7	[0, 0, 0]	n/a	FR1	0	R1342M
1110.851	0.0	1111187	RETRIEVAL_ORIENT_END	n/a	n/a	n/a	-999	7	[0, 0, 0]	n/a	FR1	0	R1342M
1110.851	4.264	1111187	REC_START	n/a	n/a	n/a	-999	7	[0, 0, 0]	n/a	FR1	0	R1342M
1115.115	25.75	1115450	REC_WORD	25.75	n/a	GOLD	1	7	[0, 0, 0]	n/a	FR1	0	R1342M
1140.865	0.0	1141199	REC_END	n/a	n/a	n/a	-999	7	[0, 0, 0]	n/a	FR1	0	R1342M
1140.865	0.014	1141199	TRIAL_END	n/a	n/a	n/a	-999	7	[0, 0, 0]	n/a	FR1	0	R1342M
1140.879	0.0	1141213	TRIAL_START	n/a	n/a	n/a	-999	8	[0, 0, 0]	n/a	FR1	0	R1342M
1140.879	0.0	1141213	TRIAL	n/a	n/a	n/a	-999	8	[0, 0, 0]	n/a	FR1	0	R1342M
1140.879	15.714	1141213	WAITING_START	n/a	n/a	n/a	-999	8	[0, 0, 0]	n/a	FR1	0	R1342M
1156.593	0.0	1156926	COUNTDOWN_START	n/a	n/a	n/a	-999	8	[0, 0, 0]	n/a	FR1	0	R1342M
1156.593	10.428	1156926	WAITING_END	n/a	n/a	n/a	-999	8	[0, 0, 0]	n/a	FR1	0	R1342M
1167.021	0.0	1167354	COUNTDOWN_END	n/a	n/a	n/a	-999	8	[0, 0, 0]	n/a	FR1	0	R1342M
1167.021	1.073	1167354	ORIENT_START	n/a	n/a	n/a	-999	8	[0, 0, 0]	n/a	FR1	0	R1342M
1168.094	0.001	1168427	ORIENT_END	n/a	n/a	n/a	-999	8	[0, 0, 0]	n/a	FR1	0	R1342M
1168.095	1.134	1168428	ENCODING_START	n/a	n/a	n/a	-999	8	[0, 0, 0]	n/a	FR1	0	R1342M
1169.229	1.633	1169562	WORD	n/a	wordpools/wordpool_EN.txt	DIME	1	8	[0, 0, 0]	n/a	FR1	0	R1342M
1170.862	0.838	1171195	WORD_OFF	n/a	n/a	DIME	1	8	[0, 0, 0]	n/a	FR1	0	R1342M
1171.7	1.629	1172033	WORD	n/a	wordpools/wordpool_EN.txt	VEST	2	8	[0, 0, 0]	n/a	FR1	0	R1342M
1173.329	1.021	1173662	WORD_OFF	n/a	n/a	VEST	2	8	[0, 0, 0]	n/a	FR1	0	R1342M
1174.35	1.629	1174682	WORD	n/a	wordpools/wordpool_EN.txt	CAGE	3	8	[0, 0, 0]	n/a	FR1	0	R1342M
1175.979	1.118	1176311	WORD_OFF	n/a	n/a	CAGE	3	8	[0, 0, 0]	n/a	FR1	0	R1342M
1177.097	1.617	1177429	WORD	n/a	wordpools/wordpool_EN.txt	DOCK	4	8	[0, 0, 0]	n/a	FR1	0	R1342M
1178.714	0.94	1179046	WORD_OFF	n/a	n/a	DOCK	4	8	[0, 0, 0]	n/a	FR1	0	R1342M
1179.654	1.627	1179986	WORD	n/a	wordpools/wordpool_EN.txt	FROG	5	8	[0, 0, 0]	n/a	FR1	0	R1342M
1181.281	1.135	1181613	WORD_OFF	n/a	n/a	FROG	5	8	[0, 0, 0]	n/a	FR1	0	R1342M
1182.416	1.631	1182748	WORD	n/a	wordpools/wordpool_EN.txt	SEA	6	8	[0, 0, 0]	n/a	FR1	0	R1342M
1184.047	0.753	1184379	WORD_OFF	n/a	n/a	SEA	6	8	[0, 0, 0]	n/a	FR1	0	R1342M
1184.8	1.632	1185132	WORD	n/a	wordpools/wordpool_EN.txt	BROOM	7	8	[0, 0, 0]	n/a	FR1	0	R1342M
1186.432	0.899	1186764	WORD_OFF	n/a	n/a	BROOM	7	8	[0, 0, 0]	n/a	FR1	0	R1342M
1187.331	1.634	1187663	WORD	n/a	wordpools/wordpool_EN.txt	RAT	8	8	[0, 0, 0]	n/a	FR1	0	R1342M
1188.965	0.858	1189297	WORD_OFF	n/a	n/a	RAT	8	8	[0, 0, 0]	n/a	FR1	0	R1342M
1189.823	1.627	1190155	WORD	n/a	wordpools/wordpool_EN.txt	BED	9	8	[0, 0, 0]	n/a	FR1	0	R1342M
1191.45	0.826	1191782	WORD_OFF	n/a	n/a	BED	9	8	[0, 0, 0]	n/a	FR1	0	R1342M
1192.276	1.623	1192608	WORD	n/a	wordpools/wordpool_EN.txt	SQUARE	10	8	[0, 0, 0]	n/a	FR1	0	R1342M
1193.899	0.844	1194230	WORD_OFF	n/a	n/a	SQUARE	10	8	[0, 0, 0]	n/a	FR1	0	R1342M
1194.743	1.624	1195074	WORD	n/a	wordpools/wordpool_EN.txt	STEM	11	8	[0, 0, 0]	n/a	FR1	0	R1342M
1196.367	0.787	1196698	WORD_OFF	n/a	n/a	STEM	11	8	[0, 0, 0]	n/a	FR1	0	R1342M
1197.154	1.63	1197485	WORD	n/a	wordpools/wordpool_EN.txt	HEN	12	8	[0, 0, 0]	n/a	FR1	0	R1342M
1198.784	0.001	1199115	WORD_OFF	n/a	n/a	HEN	12	8	[0, 0, 0]	n/a	FR1	0	R1342M
1198.785	0.0	1199116	ENCODING_END	n/a	n/a	n/a	-999	8	[0, 0, 0]	n/a	FR1	0	R1342M
1198.785	0.0	1199116	DISTRACT_START	n/a	n/a	n/a	-999	8	[0, 0, 0]	n/a	FR1	0	R1342M
1198.785	0.016	1199116	START	n/a	n/a	n/a	-999	8	[-999, -999, -999]	n/a	FR1	0	R1342M
1198.801	4.316	1199132	PROB	4.316	n/a	n/a	-999	8	[9, 1, 2]	12	FR1	0	R1342M
1203.117	7.519	1203448	PROB	7.519	n/a	n/a	-999	8	[1, 6, 9]	16	FR1	0	R1342M
1210.636	3.918	1210967	PROB	3.918	n/a	n/a	-999	8	[5, 1, 5]	11	FR1	0	R1342M
1214.554	4.017	1214884	PROB	4.017	n/a	n/a	-999	8	[1, 3, 2]	6	FR1	0	R1342M
1218.571	5.147	1218901	PROB	5.147	n/a	n/a	-999	8	[1, 7, 2]	10	FR1	0	R1342M
1223.718	0.021	1224048	STOP	n/a	n/a	n/a	-999	8	[-999, -999, -999]	n/a	FR1	0	R1342M
1223.739	0.507	1224069	DISTRACT_END	n/a	n/a	n/a	-999	8	[0, 0, 0]	n/a	FR1	0	R1342M
1224.246	1.61	1224576	RETRIEVAL_ORIENT_START	n/a	n/a	n/a	-999	8	[0, 0, 0]	n/a	FR1	0	R1342M
1225.856	0.001	1226186	RETRIEVAL_ORIENT_END	n/a	n/a	n/a	-999	8	[0, 0, 0]	n/a	FR1	0	R1342M
1225.857	3.233	1226187	REC_START	n/a	n/a	n/a	-999	8	[0, 0, 0]	n/a	FR1	0	R1342M
1229.09	2.748	1229420	REC_WORD	2.748	n/a	DIME	1	8	[0, 0, 0]	n/a	FR1	0	R1342M
1231.838	4.4	1232168	REC_WORD	4.4	n/a	SQUARE	10	8	[0, 0, 0]	n/a	FR1	0	R1342M
1236.238	19.631	1236567	REC_WORD	19.631	n/a	VEST	2	8	[0, 0, 0]	n/a	FR1	0	R1342M
1255.869	0.0	1256197	REC_END	n/a	n/a	n/a	-999	8	[0, 0, 0]	n/a	FR1	0	R1342M
1255.869	0.013	1256197	TRIAL_END	n/a	n/a	n/a	-999	8	[0, 0, 0]	n/a	FR1	0	R1342M
1255.882	0.0	1256210	TRIAL_START	n/a	n/a	n/a	-999	9	[0, 0, 0]	n/a	FR1	0	R1342M
1255.882	0.0	1256210	TRIAL	n/a	n/a	n/a	-999	9	[0, 0, 0]	n/a	FR1	0	R1342M
1255.882	8.582	1256210	WAITING_START	n/a	n/a	n/a	-999	9	[0, 0, 0]	n/a	FR1	0	R1342M
1264.464	0.0	1264792	WAITING_END	n/a	n/a	n/a	-999	9	[0, 0, 0]	n/a	FR1	0	R1342M
1264.464	10.429	1264792	COUNTDOWN_START	n/a	n/a	n/a	-999	9	[0, 0, 0]	n/a	FR1	0	R1342M
1274.893	0.001	1275220	COUNTDOWN_END	n/a	n/a	n/a	-999	9	[0, 0, 0]	n/a	FR1	0	R1342M
1274.894	1.054	1275221	ORIENT_START	n/a	n/a	n/a	-999	9	[0, 0, 0]	n/a	FR1	0	R1342M
1275.948	0.001	1276275	ORIENT_END	n/a	n/a	n/a	-999	9	[0, 0, 0]	n/a	FR1	0	R1342M
1275.949	1.142	1276276	ENCODING_START	n/a	n/a	n/a	-999	9	[0, 0, 0]	n/a	FR1	0	R1342M
1277.091	1.626	1277418	WORD	n/a	wordpools/wordpool_EN.txt	PET	1	9	[0, 0, 0]	n/a	FR1	0	R1342M
1278.717	0.881	1279044	WORD_OFF	n/a	n/a	PET	1	9	[0, 0, 0]	n/a	FR1	0	R1342M
1279.598	1.636	1279925	WORD	n/a	wordpools/wordpool_EN.txt	ANT	2	9	[0, 0, 0]	n/a	FR1	0	R1342M
1281.234	0.964	1281561	WORD_OFF	n/a	n/a	ANT	2	9	[0, 0, 0]	n/a	FR1	0	R1342M
1282.198	1.636	1282525	WORD	n/a	wordpools/wordpool_EN.txt	PEACH	3	9	[0, 0, 0]	n/a	FR1	0	R1342M
1283.834	0.751	1284161	WORD_OFF	n/a	n/a	PEACH	3	9	[0, 0, 0]	n/a	FR1	0	R1342M
1284.585	1.632	1284912	WORD	n/a	wordpools/wordpool_EN.txt	SEED	4	9	[0, 0, 0]	n/a	FR1	0	R1342M
1286.217	0.752	1286544	WORD_OFF	n/a	n/a	SEED	4	9	[0, 0, 0]	n/a	FR1	0	R1342M
1286.969	1.616	1287296	WORD	n/a	wordpools/wordpool_EN.txt	STAIR	5	9	[0, 0, 0]	n/a	FR1	0	R1342M
1288.585	1.038	1288912	WORD_OFF	n/a	n/a	STAIR	5	9	[0, 0, 0]	n/a	FR1	0	R1342M
1289.623	1.629	1289950	WORD	n/a	wordpools/wordpool_EN.txt	FORT	6	9	[0, 0, 0]	n/a	FR1	0	R1342M
1291.252	0.912	1291579	WORD_OFF	n/a	n/a	FORT	6	9	[0, 0, 0]	n/a	FR1	0	R1342M
1292.164	1.622	1292491	WORD	n/a	wordpools/wordpool_EN.txt	SHEET	7	9	[0, 0, 0]	n/a	FR1	0	R1342M
1293.786	0.769	1294112	WORD_OFF	n/a	n/a	SHEET	7	9	[0, 0, 0]	n/a	FR1	0	R1342M
1294.555	1.631	1294881	WORD	n/a	wordpools/wordpool_EN.txt	DRUM	8	9	[0, 0, 0]	n/a	FR1	0	R1342M
1296.186	0.798	1296512	WORD_OFF	n/a	n/a	DRUM	8	9	[0, 0, 0]	n/a	FR1	0	R1342M
1296.984	1.62	1297310	WORD	n/a	wordpools/wordpool_EN.txt	LAMB	9	9	[0, 0, 0]	n/a	FR1	0	R1342M
1298.604	1.047	1298930	WORD_OFF	n/a	n/a	LAMB	9	9	[0, 0, 0]	n/a	FR1	0	R1342M
1299.651	1.637	1299977	WORD	n/a	wordpools/wordpool_EN.txt	ROAD	10	9	[0, 0, 0]	n/a	FR1	0	R1342M
1301.288	1.145	1301614	WORD_OFF	n/a	n/a	ROAD	10	9	[0, 0, 0]	n/a	FR1	0	R1342M
1302.433	1.621	1302759	WORD	n/a	wordpools/wordpool_EN.txt	POOL	11	9	[0, 0, 0]	n/a	FR1	0	R1342M
1304.054	0.824	1304380	WORD_OFF	n/a	n/a	POOL	11	9	[0, 0, 0]	n/a	FR1	0	R1342M
1304.878	1.627	1305204	WORD	n/a	wordpools/wordpool_EN.txt	SEAL	12	9	[0, 0, 0]	n/a	FR1	0	R1342M
1306.505	0.001	1306831	WORD_OFF	n/a	n/a	SEAL	12	9	[0, 0, 0]	n/a	FR1	0	R1342M
1306.506	0.0	1306832	ENCODING_END	n/a	n/a	n/a	-999	9	[0, 0, 0]	n/a	FR1	0	R1342M
1306.506	0.0	1306832	DISTRACT_START	n/a	n/a	n/a	-999	9	[0, 0, 0]	n/a	FR1	0	R1342M
1306.506	0.016	1306832	START	n/a	n/a	n/a	-999	9	[-999, -999, -999]	n/a	FR1	0	R1342M
1306.522	5.633	1306848	PROB	5.633	n/a	n/a	-999	9	[9, 3, 1]	13	FR1	0	R1342M
1312.155	5.068	1312481	PROB	5.068	n/a	n/a	-999	9	[7, 8, 5]	20	FR1	0	R1342M
1317.223	5.485	1317548	PROB	5.485	n/a	n/a	-999	9	[1, 9, 5]	15	FR1	0	R1342M
1322.708	7.067	1323033	PROB	7.067	n/a	n/a	-999	9	[8, 4, 7]	19	FR1	0	R1342M
1329.775	0.018	1330100	STOP	n/a	n/a	n/a	-999	9	[-999, -999, -999]	n/a	FR1	0	R1342M
1329.793	0.56	1330118	DISTRACT_END	n/a	n/a	n/a	-999	9	[0, 0, 0]	n/a	FR1	0	R1342M
1330.353	1.573	1330678	RETRIEVAL_ORIENT_START	n/a	n/a	n/a	-999	9	[0, 0, 0]	n/a	FR1	0	R1342M
1331.926	0.0	1332251	RETRIEVAL_ORIENT_END	n/a	n/a	n/a	-999	9	[0, 0, 0]	n/a	FR1	0	R1342M
1331.926	2.379	1332251	REC_START	n/a	n/a	n/a	-999	9	[0, 0, 0]	n/a	FR1	0	R1342M
1334.305	3.146	1334629	REC_WORD	3.146	n/a	FORT	6	9	[0, 0, 0]	n/a	FR1	0	R1342M
1337.451	24.488	1337775	REC_WORD	24.488	n/a	STEAM	-999	9	[0, 0, 0]	n/a	FR1	0	R1342M
1361.939	0.0	1362262	TRIAL_END	n/a	n/a	n/a	-999	9	[0, 0, 0]	n/a	FR1	0	R1342M
1361.939	0.015	1362262	REC_END	n/a	n/a	n/a	-999	9	[0, 0, 0]	n/a	FR1	0	R1342M
1361.954	0.0	1362277	TRIAL_START	n/a	n/a	n/a	-999	10	[0, 0, 0]	n/a	FR1	0	R1342M
1361.954	0.0	1362277	TRIAL	n/a	n/a	n/a	-999	10	[0, 0, 0]	n/a	FR1	0	R1342M
1361.954	16.398	1362277	WAITING_START	n/a	n/a	n/a	-999	10	[0, 0, 0]	n/a	FR1	0	R1342M
1378.352	0.001	1378674	WAITING_END	n/a	n/a	n/a	-999	10	[0, 0, 0]	n/a	FR1	0	R1342M
1378.353	10.429	1378675	COUNTDOWN_START	n/a	n/a	n/a	-999	10	[0, 0, 0]	n/a	FR1	0	R1342M
1388.782	0.0	1389104	COUNTDOWN_END	n/a	n/a	n/a	-999	10	[0, 0, 0]	n/a	FR1	0	R1342M
1388.782	1.089	1389104	ORIENT_START	n/a	n/a	n/a	-999	10	[0, 0, 0]	n/a	FR1	0	R1342M
1389.871	0.001	1390193	ORIENT_END	n/a	n/a	n/a	-999	10	[0, 0, 0]	n/a	FR1	0	R1342M
1389.872	0.966	1390194	ENCODING_START	n/a	n/a	n/a	-999	10	[0, 0, 0]	n/a	FR1	0	R1342M
1390.838	1.634	1391160	WORD	n/a	wordpools/wordpool_EN.txt	MAZE	1	10	[0, 0, 0]	n/a	FR1	0	R1342M
1392.472	1.092	1392794	WORD_OFF	n/a	n/a	MAZE	1	10	[0, 0, 0]	n/a	FR1	0	R1342M
1393.564	1.624	1393885	WORD	n/a	wordpools/wordpool_EN.txt	BRICK	2	10	[0, 0, 0]	n/a	FR1	0	R1342M
1395.188	0.852	1395509	WORD_OFF	n/a	n/a	BRICK	2	10	[0, 0, 0]	n/a	FR1	0	R1342M
1396.04	1.633	1396361	WORD	n/a	wordpools/wordpool_EN.txt	SCHOOL	3	10	[0, 0, 0]	n/a	FR1	0	R1342M
1397.673	0.829	1397994	WORD_OFF	n/a	n/a	SCHOOL	3	10	[0, 0, 0]	n/a	FR1	0	R1342M
1398.502	1.637	1398823	WORD	n/a	wordpools/wordpool_EN.txt	MUG	4	10	[0, 0, 0]	n/a	FR1	0	R1342M
1400.139	0.796	1400460	WORD_OFF	n/a	n/a	MUG	4	10	[0, 0, 0]	n/a	FR1	0	R1342M
1400.935	1.622	1401256	WORD	n/a	wordpools/wordpool_EN.txt	SAIL	5	10	[0, 0, 0]	n/a	FR1	0	R1342M
1402.557	0.912	1402878	WORD_OFF	n/a	n/a	SAIL	5	10	[0, 0, 0]	n/a	FR1	0	R1342M
1403.469	1.638	1403790	WORD	n/a	wordpools/wordpool_EN.txt	FENCE	6	10	[0, 0, 0]	n/a	FR1	0	R1342M
1405.107	0.914	1405428	WORD_OFF	n/a	n/a	FENCE	6	10	[0, 0, 0]	n/a	FR1	0	R1342M
1406.021	1.621	1406342	WORD	n/a	wordpools/wordpool_EN.txt	BAG	7	10	[0, 0, 0]	n/a	FR1	0	R1342M
1407.642	1.066	1407963	WORD_OFF	n/a	n/a	BAG	7	10	[0, 0, 0]	n/a	FR1	0	R1342M
1408.708	1.634	1409029	WORD	n/a	wordpools/wordpool_EN.txt	STEAK	8	10	[0, 0, 0]	n/a	FR1	0	R1342M
1410.342	0.963	1410663	WORD_OFF	n/a	n/a	STEAK	8	10	[0, 0, 0]	n/a	FR1	0	R1342M
1411.305	1.62	1411626	WORD	n/a	wordpools/wordpool_EN.txt	STICK	9	10	[0, 0, 0]	n/a	FR1	0	R1342M
1412.925	0.95	1413245	WORD_OFF	n/a	n/a	STICK	9	10	[0, 0, 0]	n/a	FR1	0	R1342M
1413.875	1.618	1414195	WORD	n/a	wordpools/wordpool_EN.txt	CHIN	10	10	[0, 0, 0]	n/a	FR1	0	R1342M
1415.493	1.093	1415813	WORD_OFF	n/a	n/a	CHIN	10	10	[0, 0, 0]	n/a	FR1	0	R1342M
1416.586	1.623	1416906	WORD	n/a	wordpools/wordpool_EN.txt	FLEA	11	10	[0, 0, 0]	n/a	FR1	0	R1342M
1418.209	1.085	1418529	WORD_OFF	n/a	n/a	FLEA	11	10	[0, 0, 0]	n/a	FR1	0	R1342M
1419.294	1.632	1419614	WORD	n/a	wordpools/wordpool_EN.txt	SLEEVE	12	10	[0, 0, 0]	n/a	FR1	0	R1342M
1420.926	0.001	1421246	WORD_OFF	n/a	n/a	SLEEVE	12	10	[0, 0, 0]	n/a	FR1	0	R1342M
1420.927	0.0	1421247	DISTRACT_START	n/a	n/a	n/a	-999	10	[0, 0, 0]	n/a	FR1	0	R1342M
1420.927	0.0	1421247	ENCODING_END	n/a	n/a	n/a	-999	10	[0, 0, 0]	n/a	FR1	0	R1342M
1420.927	0.016	1421247	START	n/a	n/a	n/a	-999	10	[-999, -999, -999]	n/a	FR1	0	R1342M
1420.943	5.685	1421263	PROB	5.685	n/a	n/a	-999	10	[4, 6, 9]	19	FR1	0	R1342M
1426.628	4.818	1426948	PROB	4.818	n/a	n/a	-999	10	[1, 7, 2]	10	FR1	0	R1342M
1431.446	6.5	1431766	PROB	6.5	n/a	n/a	-999	10	[8, 6, 5]	19	FR1	0	R1342M
1437.946	5.471	1438265	PROB	5.471	n/a	n/a	-999	10	[5, 8, 8]	21	FR1	0	R1342M
1443.417	0.015	1443736	STOP	n/a	n/a	n/a	-999	10	[-999, -999, -999]	n/a	FR1	0	R1342M
1443.432	0.687	1443751	DISTRACT_END	n/a	n/a	n/a	-999	10	[0, 0, 0]	n/a	FR1	0	R1342M
1444.119	1.596	1444438	RETRIEVAL_ORIENT_START	n/a	n/a	n/a	-999	10	[0, 0, 0]	n/a	FR1	0	R1342M
1445.715	0.001	1446034	RETRIEVAL_ORIENT_END	n/a	n/a	n/a	-999	10	[0, 0, 0]	n/a	FR1	0	R1342M
1445.716	3.318	1446035	REC_START	n/a	n/a	n/a	-999	10	[0, 0, 0]	n/a	FR1	0	R1342M
1449.034	2.315	1449353	REC_WORD	2.315	n/a	BRICK	2	10	[0, 0, 0]	n/a	FR1	0	R1342M
1451.349	5.498	1451668	REC_WORD	5.498	n/a	SCHOOL	3	10	[0, 0, 0]	n/a	FR1	0	R1342M
1456.847	18.881	1457165	REC_WORD	18.881	n/a	MUG	4	10	[0, 0, 0]	n/a	FR1	0	R1342M
1475.728	0.001	1476045	REC_END	n/a	n/a	n/a	-999	10	[0, 0, 0]	n/a	FR1	0	R1342M
1475.729	0.016	1476046	TRIAL_END	n/a	n/a	n/a	-999	10	[0, 0, 0]	n/a	FR1	0	R1342M
1475.745	0.0	1476062	TRIAL_START	n/a	n/a	n/a	-999	11	[0, 0, 0]	n/a	FR1	0	R1342M
1475.745	0.001	1476062	TRIAL	n/a	n/a	n/a	-999	11	[0, 0, 0]	n/a	FR1	0	R1342M
1475.746	10.011	1476063	WAITING_START	n/a	n/a	n/a	-999	11	[0, 0, 0]	n/a	FR1	0	R1342M
1485.757	0.0	1486074	WAITING_END	n/a	n/a	n/a	-999	11	[0, 0, 0]	n/a	FR1	0	R1342M
1485.757	10.428	1486074	COUNTDOWN_START	n/a	n/a	n/a	-999	11	[0, 0, 0]	n/a	FR1	0	R1342M
1496.185	0.001	1496501	COUNTDOWN_END	n/a	n/a	n/a	-999	11	[0, 0, 0]	n/a	FR1	0	R1342M
1496.186	1.223	1496502	ORIENT_START	n/a	n/a	n/a	-999	11	[0, 0, 0]	n/a	FR1	0	R1342M
1497.409	0.0	1497725	ENCODING_START	n/a	n/a	n/a	-999	11	[0, 0, 0]	n/a	FR1	0	R1342M
1497.409	1.043	1497725	ORIENT_END	n/a	n/a	n/a	-999	11	[0, 0, 0]	n/a	FR1	0	R1342M
1498.452	1.623	1498768	WORD	n/a	wordpools/wordpool_EN.txt	STREET	1	11	[0, 0, 0]	n/a	FR1	0	R1342M
1500.075	0.868	1500391	WORD_OFF	n/a	n/a	STREET	1	11	[0, 0, 0]	n/a	FR1	0	R1342M
1500.943	1.617	1501259	WORD	n/a	wordpools/wordpool_EN.txt	HAT	2	11	[0, 0, 0]	n/a	FR1	0	R1342M
1502.56	0.873	1502876	WORD_OFF	n/a	n/a	HAT	2	11	[0, 0, 0]	n/a	FR1	0	R1342M
1503.433	1.626	1503749	WORD	n/a	wordpools/wordpool_EN.txt	PLATE	3	11	[0, 0, 0]	n/a	FR1	0	R1342M
1505.059	0.883	1505375	WORD_OFF	n/a	n/a	PLATE	3	11	[0, 0, 0]	n/a	FR1	0	R1342M
1505.942	1.619	1506258	WORD	n/a	wordpools/wordpool_EN.txt	GOAT	4	11	[0, 0, 0]	n/a	FR1	0	R1342M
1507.561	1.014	1507877	WORD_OFF	n/a	n/a	GOAT	4	11	[0, 0, 0]	n/a	FR1	0	R1342M
1508.575	1.635	1508891	WORD	n/a	wordpools/wordpool_EN.txt	CLAY	5	11	[0, 0, 0]	n/a	FR1	0	R1342M
1510.21	0.98	1510526	WORD_OFF	n/a	n/a	CLAY	5	11	[0, 0, 0]	n/a	FR1	0	R1342M
1511.19	1.622	1511506	WORD	n/a	wordpools/wordpool_EN.txt	BANK	6	11	[0, 0, 0]	n/a	FR1	0	R1342M
1512.812	1.036	1513127	WORD_OFF	n/a	n/a	BANK	6	11	[0, 0, 0]	n/a	FR1	0	R1342M
1513.848	1.631	1514163	WORD	n/a	wordpools/wordpool_EN.txt	CART	7	11	[0, 0, 0]	n/a	FR1	0	R1342M
1515.479	1.145	1515794	WORD_OFF	n/a	n/a	CART	7	11	[0, 0, 0]	n/a	FR1	0	R1342M
1516.624	1.622	1516939	WORD	n/a	wordpools/wordpool_EN.txt	HOOF	8	11	[0, 0, 0]	n/a	FR1	0	R1342M
1518.246	0.811	1518561	WORD_OFF	n/a	n/a	HOOF	8	11	[0, 0, 0]	n/a	FR1	0	R1342M
1519.057	1.623	1519372	WORD	n/a	wordpools/wordpool_EN.txt	OAK	9	11	[0, 0, 0]	n/a	FR1	0	R1342M
1520.68	0.959	1520995	WORD_OFF	n/a	n/a	OAK	9	11	[0, 0, 0]	n/a	FR1	0	R1342M
1521.639	1.625	1521954	WORD	n/a	wordpools/wordpool_EN.txt	SPARK	10	11	[0, 0, 0]	n/a	FR1	0	R1342M
1523.264	0.794	1523579	WORD_OFF	n/a	n/a	SPARK	10	11	[0, 0, 0]	n/a	FR1	0	R1342M
1524.058	1.623	1524373	WORD	n/a	wordpools/wordpool_EN.txt	HORN	11	11	[0, 0, 0]	n/a	FR1	0	R1342M
1525.681	0.869	1525996	WORD_OFF	n/a	n/a	HORN	11	11	[0, 0, 0]	n/a	FR1	0	R1342M
1526.55	1.631	1526865	WORD	n/a	wordpools/wordpool_EN.txt	ROPE	12	11	[0, 0, 0]	n/a	FR1	0	R1342M
1528.181	0.0	1528496	WORD_OFF	n/a	n/a	ROPE	12	11	[0, 0, 0]	n/a	FR1	0	R1342M
1528.181	0.0	1528496	ENCODING_END	n/a	n/a	n/a	-999	11	[0, 0, 0]	n/a	FR1	0	R1342M
1528.181	0.001	1528496	DISTRACT_START	n/a	n/a	n/a	-999	11	[0, 0, 0]	n/a	FR1	0	R1342M
1528.182	0.015	1528497	START	n/a	n/a	n/a	-999	11	[-999, -999, -999]	n/a	FR1	0	R1342M
1528.197	10.852	1528512	PROB	10.852	n/a	n/a	-999	11	[9, 8, 5]	22	FR1	0	R1342M
1539.049	7.552	1539363	PROB	7.552	n/a	n/a	-999	11	[7, 2, 8]	17	FR1	0	R1342M
1546.601	5.492	1546915	PROB	5.492	n/a	n/a	-999	11	[9, 5, 1]	15	FR1	0	R1342M
1552.093	0.009	1552406	STOP	n/a	n/a	n/a	-999	11	[-999, -999, -999]	n/a	FR1	0	R1342M
1552.102	0.617	1552415	DISTRACT_END	n/a	n/a	n/a	-999	11	[0, 0, 0]	n/a	FR1	0	R1342M
1552.719	1.551	1553032	RETRIEVAL_ORIENT_START	n/a	n/a	n/a	-999	11	[0, 0, 0]	n/a	FR1	0	R1342M
1554.27	0.0	1554583	RETRIEVAL_ORIENT_END	n/a	n/a	n/a	-999	11	[0, 0, 0]	n/a	FR1	0	R1342M
1554.27	23.039	1554583	REC_START	n/a	n/a	n/a	-999	11	[0, 0, 0]	n/a	FR1	0	R1342M
1577.309	6.765	1577621	REC_WORD	6.765	n/a	STREET	1	11	[0, 0, 0]	n/a	FR1	0	R1342M
1584.074	0.208	1584386	REC_WORD	0.208	n/a	CLAY	5	11	[0, 0, 0]	n/a	FR1	0	R1342M
1584.282	0.0	1584594	REC_END	n/a	n/a	n/a	-999	11	[0, 0, 0]	n/a	FR1	0	R1342M
1584.282	0.014	1584594	TRIAL_END	n/a	n/a	n/a	-999	11	[0, 0, 0]	n/a	FR1	0	R1342M
1584.296	0.0	1584608	TRIAL	n/a	n/a	n/a	-999	12	[0, 0, 0]	n/a	FR1	0	R1342M
1584.296	0.001	1584608	TRIAL_START	n/a	n/a	n/a	-999	12	[0, 0, 0]	n/a	FR1	0	R1342M
1584.297	48.455	1584609	WAITING_START	n/a	n/a	n/a	-999	12	[0, 0, 0]	n/a	FR1	0	R1342M
1632.752	0.0	1633061	WAITING_END	n/a	n/a	n/a	-999	12	[0, 0, 0]	n/a	FR1	0	R1342M
1632.752	10.428	1633061	COUNTDOWN_START	n/a	n/a	n/a	-999	12	[0, 0, 0]	n/a	FR1	0	R1342M
1643.18	0.001	1643489	COUNTDOWN_END	n/a	n/a	n/a	-999	12	[0, 0, 0]	n/a	FR1	0	R1342M
1643.181	1.073	1643490	ORIENT_START	n/a	n/a	n/a	-999	12	[0, 0, 0]	n/a	FR1	0	R1342M
1644.254	0.0	1644563	ENCODING_START	n/a	n/a	n/a	-999	12	[0, 0, 0]	n/a	FR1	0	R1342M
1644.254	0.77	1644563	ORIENT_END	n/a	n/a	n/a	-999	12	[0, 0, 0]	n/a	FR1	0	R1342M
1645.024	1.63	1645333	WORD	n/a	wordpools/wordpool_EN.txt	TRAIN	1	12	[0, 0, 0]	n/a	FR1	0	R1342M
1646.654	0.974	1646963	WORD_OFF	n/a	n/a	TRAIN	1	12	[0, 0, 0]	n/a	FR1	0	R1342M
1647.628	1.627	1647937	WORD	n/a	wordpools/wordpool_EN.txt	VAN	2	12	[0, 0, 0]	n/a	FR1	0	R1342M
1649.255	0.77	1649564	WORD_OFF	n/a	n/a	VAN	2	12	[0, 0, 0]	n/a	FR1	0	R1342M
1650.025	1.63	1650334	WORD	n/a	wordpools/wordpool_EN.txt	JAIL	3	12	[0, 0, 0]	n/a	FR1	0	R1342M
1651.655	0.791	1651963	WORD_OFF	n/a	n/a	JAIL	3	12	[0, 0, 0]	n/a	FR1	0	R1342M
1652.446	1.625	1652754	WORD	n/a	wordpools/wordpool_EN.txt	KITE	4	12	[0, 0, 0]	n/a	FR1	0	R1342M
1654.071	0.937	1654379	WORD_OFF	n/a	n/a	KITE	4	12	[0, 0, 0]	n/a	FR1	0	R1342M
1655.008	1.632	1655316	WORD	n/a	wordpools/wordpool_EN.txt	PIG	5	12	[0, 0, 0]	n/a	FR1	0	R1342M
1656.64	1.08	1656948	WORD_OFF	n/a	n/a	PIG	5	12	[0, 0, 0]	n/a	FR1	0	R1342M
1657.72	1.637	1658028	WORD	n/a	wordpools/wordpool_EN.txt	RUG	6	12	[0, 0, 0]	n/a	FR1	0	R1342M
1659.357	0.782	1659665	WORD_OFF	n/a	n/a	RUG	6	12	[0, 0, 0]	n/a	FR1	0	R1342M
1660.139	1.635	1660447	WORD	n/a	wordpools/wordpool_EN.txt	PLANT	7	12	[0, 0, 0]	n/a	FR1	0	R1342M
1661.774	1.141	1662082	WORD_OFF	n/a	n/a	PLANT	7	12	[0, 0, 0]	n/a	FR1	0	R1342M
1662.915	1.626	1663223	WORD	n/a	wordpools/wordpool_EN.txt	SLIME	8	12	[0, 0, 0]	n/a	FR1	0	R1342M
1664.541	0.793	1664849	WORD_OFF	n/a	n/a	SLIME	8	12	[0, 0, 0]	n/a	FR1	0	R1342M
1665.334	1.623	1665642	WORD	n/a	wordpools/wordpool_EN.txt	CUP	9	12	[0, 0, 0]	n/a	FR1	0	R1342M
1666.957	1.014	1667265	WORD_OFF	n/a	n/a	CUP	9	12	[0, 0, 0]	n/a	FR1	0	R1342M
1667.971	1.621	1668279	WORD	n/a	wordpools/wordpool_EN.txt	NOSE	10	12	[0, 0, 0]	n/a	FR1	0	R1342M
1669.592	0.932	1669900	WORD_OFF	n/a	n/a	NOSE	10	12	[0, 0, 0]	n/a	FR1	0	R1342M
1670.524	1.634	1670832	WORD	n/a	wordpools/wordpool_EN.txt	ROCK	11	12	[0, 0, 0]	n/a	FR1	0	R1342M
1672.158	0.841	1672465	WORD_OFF	n/a	n/a	ROCK	11	12	[0, 0, 0]	n/a	FR1	0	R1342M
1672.999	1.627	1673306	WORD	n/a	wordpools/wordpool_EN.txt	ROOT	12	12	[0, 0, 0]	n/a	FR1	0	R1342M
1674.626	0.001	1674933	WORD_OFF	n/a	n/a	ROOT	12	12	[0, 0, 0]	n/a	FR1	0	R1342M
1674.627	0.0	1674934	ENCODING_END	n/a	n/a	n/a	-999	12	[0, 0, 0]	n/a	FR1	0	R1342M
1674.627	0.0	1674934	DISTRACT_START	n/a	n/a	n/a	-999	12	[0, 0, 0]	n/a	FR1	0	R1342M
1674.627	0.016	1674934	START	n/a	n/a	n/a	-999	12	[-999, -999, -999]	n/a	FR1	0	R1342M
1674.643	4.651	1674950	PROB	4.651	n/a	n/a	-999	12	[2, 2, 1]	5	FR1	0	R1342M
1679.294	5.733	1679601	PROB	5.733	n/a	n/a	-999	12	[6, 1, 5]	12	FR1	0	R1342M
1685.027	5.918	1685334	PROB	5.918	n/a	n/a	-999	12	[7, 4, 7]	18	FR1	0	R1342M
1690.945	7.872	1691251	PROB	7.872	n/a	n/a	-999	12	[9, 1, 9]	19	FR1	0	R1342M
1698.817	0.014	1699123	STOP	n/a	n/a	n/a	-999	12	[-999, -999, -999]	n/a	FR1	0	R1342M
1698.831	0.53	1699137	DISTRACT_END	n/a	n/a	n/a	-999	12	[0, 0, 0]	n/a	FR1	0	R1342M
1699.361	1.586	1699667	RETRIEVAL_ORIENT_START	n/a	n/a	n/a	-999	12	[0, 0, 0]	n/a	FR1	0	R1342M
1700.947	0.0	1701253	REC_START	n/a	n/a	n/a	-999	12	[0, 0, 0]	n/a	FR1	0	R1342M
1700.947	3.491	1701253	RETRIEVAL_ORIENT_END	n/a	n/a	n/a	-999	12	[0, 0, 0]	n/a	FR1	0	R1342M
1704.438	3.266	1704744	REC_WORD	3.266	n/a	VAN	2	12	[0, 0, 0]	n/a	FR1	0	R1342M
1707.704	1.674	1708010	REC_WORD	1.674	n/a	JAIL	3	12	[0, 0, 0]	n/a	FR1	0	R1342M
1709.378	21.583	1709684	REC_WORD	21.583	n/a	KITE	4	12	[0, 0, 0]	n/a	FR1	0	R1342M
1730.961	0.0	1731265	REC_END	n/a	n/a	n/a	-999	12	[0, 0, 0]	n/a	FR1	0	R1342M
1730.961	0.014	1731265	TRIAL_END	n/a	n/a	n/a	-999	12	[0, 0, 0]	n/a	FR1	0	R1342M
1730.975	0.0	1731279	TRIAL_START	n/a	n/a	n/a	-999	13	[0, 0, 0]	n/a	FR1	0	R1342M
1730.975	0.001	1731279	TRIAL	n/a	n/a	n/a	-999	13	[0, 0, 0]	n/a	FR1	0	R1342M
1730.976	85.345	1731280	WAITING_START	n/a	n/a	n/a	-999	13	[0, 0, 0]	n/a	FR1	0	R1342M
1816.321	0.0	1816621	COUNTDOWN_START	n/a	n/a	n/a	-999	13	[0, 0, 0]	n/a	FR1	0	R1342M
1816.321	10.428	1816621	WAITING_END	n/a	n/a	n/a	-999	13	[0, 0, 0]	n/a	FR1	0	R1342M
1826.749	0.001	1827049	COUNTDOWN_END	n/a	n/a	n/a	-999	13	[0, 0, 0]	n/a	FR1	0	R1342M
1826.75	1.172	1827050	ORIENT_START	n/a	n/a	n/a	-999	13	[0, 0, 0]	n/a	FR1	0	R1342M
1827.922	0.0	1828222	ORIENT_END	n/a	n/a	n/a	-999	13	[0, 0, 0]	n/a	FR1	0	R1342M
1827.922	0.892	1828222	ENCODING_START	n/a	n/a	n/a	-999	13	[0, 0, 0]	n/a	FR1	0	R1342M
1828.814	1.626	1829114	WORD	n/a	wordpools/wordpool_EN.txt	HAWK	1	13	[0, 0, 0]	n/a	FR1	0	R1342M
1830.44	0.783	1830739	WORD_OFF	n/a	n/a	HAWK	1	13	[0, 0, 0]	n/a	FR1	0	R1342M
1831.223	1.634	1831522	WORD	n/a	wordpools/wordpool_EN.txt	BRANCH	2	13	[0, 0, 0]	n/a	FR1	0	R1342M
1832.857	1.101	1833156	WORD_OFF	n/a	n/a	BRANCH	2	13	[0, 0, 0]	n/a	FR1	0	R1342M
1833.958	1.633	1834257	WORD	n/a	wordpools/wordpool_EN.txt	HILL	3	13	[0, 0, 0]	n/a	FR1	0	R1342M
1835.591	0.795	1835890	WORD_OFF	n/a	n/a	HILL	3	13	[0, 0, 0]	n/a	FR1	0	R1342M
1836.386	1.621	1836685	WORD	n/a	wordpools/wordpool_EN.txt	CRANE	4	13	[0, 0, 0]	n/a	FR1	0	R1342M
1838.007	1.051	1838306	WORD_OFF	n/a	n/a	CRANE	4	13	[0, 0, 0]	n/a	FR1	0	R1342M
1839.058	1.617	1839357	WORD	n/a	wordpools/wordpool_EN.txt	TOY	5	13	[0, 0, 0]	n/a	FR1	0	R1342M
1840.675	1.024	1840974	WORD_OFF	n/a	n/a	TOY	5	13	[0, 0, 0]	n/a	FR1	0	R1342M
1841.699	1.627	1841998	WORD	n/a	wordpools/wordpool_EN.txt	GEESE	6	13	[0, 0, 0]	n/a	FR1	0	R1342M
1843.326	1.102	1843625	WORD_OFF	n/a	n/a	GEESE	6	13	[0, 0, 0]	n/a	FR1	0	R1342M
1844.428	1.63	1844727	WORD	n/a	wordpools/wordpool_EN.txt	WHEEL	7	13	[0, 0, 0]	n/a	FR1	0	R1342M
1846.058	1.142	1846357	WORD_OFF	n/a	n/a	WHEEL	7	13	[0, 0, 0]	n/a	FR1	0	R1342M
1847.2	1.627	1847499	WORD	n/a	wordpools/wordpool_EN.txt	TOOTH	8	13	[0, 0, 0]	n/a	FR1	0	R1342M
1848.827	1.119	1849126	WORD_OFF	n/a	n/a	TOOTH	8	13	[0, 0, 0]	n/a	FR1	0	R1342M
1849.946	1.631	1850244	WORD	n/a	wordpools/wordpool_EN.txt	LOCK	9	13	[0, 0, 0]	n/a	FR1	0	R1342M
1851.577	0.839	1851875	WORD_OFF	n/a	n/a	LOCK	9	13	[0, 0, 0]	n/a	FR1	0	R1342M
1852.416	1.627	1852714	WORD	n/a	wordpools/wordpool_EN.txt	CORD	10	13	[0, 0, 0]	n/a	FR1	0	R1342M
1854.043	1.034	1854341	WORD_OFF	n/a	n/a	CORD	10	13	[0, 0, 0]	n/a	FR1	0	R1342M
1855.077	1.618	1855375	WORD	n/a	wordpools/wordpool_EN.txt	FUR	11	13	[0, 0, 0]	n/a	FR1	0	R1342M
1856.695	0.907	1856993	WORD_OFF	n/a	n/a	FUR	11	13	[0, 0, 0]	n/a	FR1	0	R1342M
1857.602	1.627	1857900	WORD	n/a	wordpools/wordpool_EN.txt	WOLF	12	13	[0, 0, 0]	n/a	FR1	0	R1342M
1859.229	0.0	1859527	WORD_OFF	n/a	n/a	WOLF	12	13	[0, 0, 0]	n/a	FR1	0	R1342M
1859.229	0.0	1859527	ENCODING_END	n/a	n/a	n/a	-999	13	[0, 0, 0]	n/a	FR1	0	R1342M
1859.229	0.0	1859527	DISTRACT_START	n/a	n/a	n/a	-999	13	[0, 0, 0]	n/a	FR1	0	R1342M
1859.229	0.016	1859527	START	n/a	n/a	n/a	-999	13	[-999, -999, -999]	n/a	FR1	0	R1342M
1859.245	5.585	1859543	PROB	5.585	n/a	n/a	-999	13	[5, 2, 8]	15	FR1	0	R1342M
1864.83	6.001	1865128	PROB	6.001	n/a	n/a	-999	13	[8, 3, 8]	19	FR1	0	R1342M
1870.831	5.684	1871128	PROB	5.684	n/a	n/a	-999	13	[4, 8, 4]	16	FR1	0	R1342M
1876.515	10.05	1876812	PROB	10.05	n/a	n/a	-999	13	[9, 7, 5]	17	FR1	0	R1342M
1886.565	0.019	1886862	STOP	n/a	n/a	n/a	-999	13	[-999, -999, -999]	n/a	FR1	0	R1342M
1886.584	0.591	1886881	DISTRACT_END	n/a	n/a	n/a	-999	13	[0, 0, 0]	n/a	FR1	0	R1342M
1887.175	1.609	1887472	RETRIEVAL_ORIENT_START	n/a	n/a	n/a	-999	13	[0, 0, 0]	n/a	FR1	0	R1342M
1888.784	0.001	1889081	RETRIEVAL_ORIENT_END	n/a	n/a	n/a	-999	13	[0, 0, 0]	n/a	FR1	0	R1342M
1888.785	4.886	1889082	REC_START	n/a	n/a	n/a	-999	13	[0, 0, 0]	n/a	FR1	0	R1342M
1893.671	2.767	1893967	REC_WORD	2.767	n/a	BRANCH	2	13	[0, 0, 0]	n/a	FR1	0	R1342M
1896.438	4.352	1896734	REC_WORD	4.352	n/a	CRANE	4	13	[0, 0, 0]	n/a	FR1	0	R1342M
1900.79	5.869	1901086	REC_WORD	5.869	n/a	HAWK	1	13	[0, 0, 0]	n/a	FR1	0	R1342M
1906.659	12.138	1906955	REC_WORD	12.138	n/a	TOOTH	8	13	[0, 0, 0]	n/a	FR1	0	R1342M
1918.797	0.0	1919092	REC_END	n/a	n/a	n/a	-999	13	[0, 0, 0]	n/a	FR1	0	R1342M
1918.797	0.014	1919092	TRIAL_END	n/a	n/a	n/a	-999	13	[0, 0, 0]	n/a	FR1	0	R1342M
1918.811	0.001	1919106	TRIAL_START	n/a	n/a	n/a	-999	14	[0, 0, 0]	n/a	FR1	0	R1342M
1918.812	0.0	1919107	TRIAL	n/a	n/a	n/a	-999	14	[0, 0, 0]	n/a	FR1	0	R1342M
1918.812	10.213	1919107	WAITING_START	n/a	n/a	n/a	-999	14	[0, 0, 0]	n/a	FR1	0	R1342M
1929.025	0.0	1929320	COUNTDOWN_START	n/a	n/a	n/a	-999	14	[0, 0, 0]	n/a	FR1	0	R1342M
1929.025	10.428	1929320	WAITING_END	n/a	n/a	n/a	-999	14	[0, 0, 0]	n/a	FR1	0	R1342M
1939.453	0.001	1939747	COUNTDOWN_END	n/a	n/a	n/a	-999	14	[0, 0, 0]	n/a	FR1	0	R1342M
1939.454	1.257	1939748	ORIENT_START	n/a	n/a	n/a	-999	14	[0, 0, 0]	n/a	FR1	0	R1342M
1940.711	0.001	1941005	ORIENT_END	n/a	n/a	n/a	-999	14	[0, 0, 0]	n/a	FR1	0	R1342M
1940.712	1.087	1941006	ENCODING_START	n/a	n/a	n/a	-999	14	[0, 0, 0]	n/a	FR1	0	R1342M
1941.799	1.629	1942093	WORD	n/a	wordpools/wordpool_EN.txt	RIB	1	14	[0, 0, 0]	n/a	FR1	0	R1342M
1943.428	0.832	1943722	WORD_OFF	n/a	n/a	RIB	1	14	[0, 0, 0]	n/a	FR1	0	R1342M
1944.26	1.634	1944554	WORD	n/a	wordpools/wordpool_EN.txt	FLOOR	2	14	[0, 0, 0]	n/a	FR1	0	R1342M
1945.894	0.767	1946188	WORD_OFF	n/a	n/a	FLOOR	2	14	[0, 0, 0]	n/a	FR1	0	R1342M
1946.661	1.635	1946955	WORD	n/a	wordpools/wordpool_EN.txt	GATE	3	14	[0, 0, 0]	n/a	FR1	0	R1342M
1948.296	1.107	1948590	WORD_OFF	n/a	n/a	GATE	3	14	[0, 0, 0]	n/a	FR1	0	R1342M
1949.403	1.626	1949696	WORD	n/a	wordpools/wordpool_EN.txt	POLE	4	14	[0, 0, 0]	n/a	FR1	0	R1342M
1951.029	1.078	1951322	WORD_OFF	n/a	n/a	POLE	4	14	[0, 0, 0]	n/a	FR1	0	R1342M
1952.107	1.623	1952400	WORD	n/a	wordpools/wordpool_EN.txt	YARD	5	14	[0, 0, 0]	n/a	FR1	0	R1342M
1953.73	0.886	1954023	WORD_OFF	n/a	n/a	YARD	5	14	[0, 0, 0]	n/a	FR1	0	R1342M
1954.616	1.631	1954909	WORD	n/a	wordpools/wordpool_EN.txt	TOAST	6	14	[0, 0, 0]	n/a	FR1	0	R1342M
1956.247	0.856	1956540	WORD_OFF	n/a	n/a	TOAST	6	14	[0, 0, 0]	n/a	FR1	0	R1342M
1957.103	1.628	1957396	WORD	n/a	wordpools/wordpool_EN.txt	CONE	7	14	[0, 0, 0]	n/a	FR1	0	R1342M
1958.731	0.871	1959024	WORD_OFF	n/a	n/a	CONE	7	14	[0, 0, 0]	n/a	FR1	0	R1342M
1959.602	1.63	1959895	WORD	n/a	wordpools/wordpool_EN.txt	SINK	8	14	[0, 0, 0]	n/a	FR1	0	R1342M
1961.232	1.107	1961525	WORD_OFF	n/a	n/a	SINK	8	14	[0, 0, 0]	n/a	FR1	0	R1342M
1962.339	1.626	1962632	WORD	n/a	wordpools/wordpool_EN.txt	JET	9	14	[0, 0, 0]	n/a	FR1	0	R1342M
1963.965	0.955	1964258	WORD_OFF	n/a	n/a	JET	9	14	[0, 0, 0]	n/a	FR1	0	R1342M
1964.92	1.613	1965213	WORD	n/a	wordpools/wordpool_EN.txt	CAT	10	14	[0, 0, 0]	n/a	FR1	0	R1342M
1966.533	1.066	1966826	WORD_OFF	n/a	n/a	CAT	10	14	[0, 0, 0]	n/a	FR1	0	R1342M
1967.599	1.634	1967892	WORD	n/a	wordpools/wordpool_EN.txt	BLUSH	11	14	[0, 0, 0]	n/a	FR1	0	R1342M
1969.233	0.953	1969525	WORD_OFF	n/a	n/a	BLUSH	11	14	[0, 0, 0]	n/a	FR1	0	R1342M
1970.186	1.631	1970478	WORD	n/a	wordpools/wordpool_EN.txt	WEED	12	14	[0, 0, 0]	n/a	FR1	0	R1342M
1971.817	0.001	1972109	WORD_OFF	n/a	n/a	WEED	12	14	[0, 0, 0]	n/a	FR1	0	R1342M
1971.818	0.0	1972110	ENCODING_END	n/a	n/a	n/a	-999	14	[0, 0, 0]	n/a	FR1	0	R1342M
1971.818	0.0	1972110	DISTRACT_START	n/a	n/a	n/a	-999	14	[0, 0, 0]	n/a	FR1	0	R1342M
1971.818	0.016	1972110	START	n/a	n/a	n/a	-999	14	[-999, -999, -999]	n/a	FR1	0	R1342M
1971.834	5.934	1972126	PROB	5.934	n/a	n/a	-999	14	[1, 3, 6]	10	FR1	0	R1342M
1977.768	5.618	1978060	PROB	5.618	n/a	n/a	-999	14	[7, 6, 1]	14	FR1	0	R1342M
1983.386	5.783	1983678	PROB	5.783	n/a	n/a	-999	14	[4, 6, 3]	13	FR1	0	R1342M
1989.169	9.922	1989460	PROB	9.922	n/a	n/a	-999	14	[8, 8, 7]	23	FR1	0	R1342M
1999.091	0.014	1999382	STOP	n/a	n/a	n/a	-999	14	[-999, -999, -999]	n/a	FR1	0	R1342M
1999.105	0.665	1999396	DISTRACT_END	n/a	n/a	n/a	-999	14	[0, 0, 0]	n/a	FR1	0	R1342M
1999.77	1.52	2000061	RETRIEVAL_ORIENT_START	n/a	n/a	n/a	-999	14	[0, 0, 0]	n/a	FR1	0	R1342M
2001.29	0.0	2001581	RETRIEVAL_ORIENT_END	n/a	n/a	n/a	-999	14	[0, 0, 0]	n/a	FR1	0	R1342M
2001.29	4.336	2001581	REC_START	n/a	n/a	n/a	-999	14	[0, 0, 0]	n/a	FR1	0	R1342M
2005.626	3.867	2005917	REC_WORD	3.867	n/a	GATE	3	14	[0, 0, 0]	n/a	FR1	0	R1342M
2009.493	21.808	2009783	REC_WORD	21.808	n/a	POLE	4	14	[0, 0, 0]	n/a	FR1	0	R1342M
2031.301	0.0	2031590	REC_END	n/a	n/a	n/a	-999	14	[0, 0, 0]	n/a	FR1	0	R1342M
2031.301	0.016	2031590	TRIAL_END	n/a	n/a	n/a	-999	14	[0, 0, 0]	n/a	FR1	0	R1342M
2031.317	0.001	2031606	TRIAL_START	n/a	n/a	n/a	-999	15	[0, 0, 0]	n/a	FR1	0	R1342M
2031.318	0.0	2031607	TRIAL	n/a	n/a	n/a	-999	15	[0, 0, 0]	n/a	FR1	0	R1342M
2031.318	8.845	2031607	WAITING_START	n/a	n/a	n/a	-999	15	[0, 0, 0]	n/a	FR1	0	R1342M
2040.163	0.0	2040452	WAITING_END	n/a	n/a	n/a	-999	15	[0, 0, 0]	n/a	FR1	0	R1342M
2040.163	10.428	2040452	COUNTDOWN_START	n/a	n/a	n/a	-999	15	[0, 0, 0]	n/a	FR1	0	R1342M
2050.591	0.001	2050879	COUNTDOWN_END	n/a	n/a	n/a	-999	15	[0, 0, 0]	n/a	FR1	0	R1342M
2050.592	1.257	2050880	ORIENT_START	n/a	n/a	n/a	-999	15	[0, 0, 0]	n/a	FR1	0	R1342M
2051.849	0.001	2052137	ORIENT_END	n/a	n/a	n/a	-999	15	[0, 0, 0]	n/a	FR1	0	R1342M
2051.85	0.833	2052138	ENCODING_START	n/a	n/a	n/a	-999	15	[0, 0, 0]	n/a	FR1	0	R1342M
2052.683	1.634	2052971	WORD	n/a	wordpools/wordpool_EN.txt	TOAD	1	15	[0, 0, 0]	n/a	FR1	0	R1342M
2054.317	1.093	2054605	WORD_OFF	n/a	n/a	TOAD	1	15	[0, 0, 0]	n/a	FR1	0	R1342M
2055.41	1.623	2055698	WORD	n/a	wordpools/wordpool_EN.txt	SWORD	2	15	[0, 0, 0]	n/a	FR1	0	R1342M
2057.033	0.825	2057321	WORD_OFF	n/a	n/a	SWORD	2	15	[0, 0, 0]	n/a	FR1	0	R1342M
2057.858	1.626	2058146	WORD	n/a	wordpools/wordpool_EN.txt	HORSE	3	15	[0, 0, 0]	n/a	FR1	0	R1342M
2059.484	0.973	2059772	WORD_OFF	n/a	n/a	HORSE	3	15	[0, 0, 0]	n/a	FR1	0	R1342M
2060.457	1.627	2060745	WORD	n/a	wordpools/wordpool_EN.txt	SHARK	4	15	[0, 0, 0]	n/a	FR1	0	R1342M
2062.084	0.957	2062372	WORD_OFF	n/a	n/a	SHARK	4	15	[0, 0, 0]	n/a	FR1	0	R1342M
2063.041	1.611	2063329	WORD	n/a	wordpools/wordpool_EN.txt	JUICE	5	15	[0, 0, 0]	n/a	FR1	0	R1342M
2064.652	0.966	2064940	WORD_OFF	n/a	n/a	JUICE	5	15	[0, 0, 0]	n/a	FR1	0	R1342M
2065.618	1.634	2065906	WORD	n/a	wordpools/wordpool_EN.txt	SOUP	6	15	[0, 0, 0]	n/a	FR1	0	R1342M
2067.252	1.046	2067540	WORD_OFF	n/a	n/a	SOUP	6	15	[0, 0, 0]	n/a	FR1	0	R1342M
2068.298	1.621	2068586	WORD	n/a	wordpools/wordpool_EN.txt	STOOL	7	15	[0, 0, 0]	n/a	FR1	0	R1342M
2069.919	0.852	2070206	WORD_OFF	n/a	n/a	STOOL	7	15	[0, 0, 0]	n/a	FR1	0	R1342M
2070.771	1.632	2071058	WORD	n/a	wordpools/wordpool_EN.txt	FACE	8	15	[0, 0, 0]	n/a	FR1	0	R1342M
2072.403	0.753	2072690	WORD_OFF	n/a	n/a	FACE	8	15	[0, 0, 0]	n/a	FR1	0	R1342M
2073.156	1.631	2073443	WORD	n/a	wordpools/wordpool_EN.txt	SKUNK	9	15	[0, 0, 0]	n/a	FR1	0	R1342M
2074.787	1.005	2075074	WORD_OFF	n/a	n/a	SKUNK	9	15	[0, 0, 0]	n/a	FR1	0	R1342M
2075.792	1.629	2076079	WORD	n/a	wordpools/wordpool_EN.txt	SPEAR	10	15	[0, 0, 0]	n/a	FR1	0	R1342M
2077.421	1.105	2077708	WORD_OFF	n/a	n/a	SPEAR	10	15	[0, 0, 0]	n/a	FR1	0	R1342M
2078.526	1.628	2078813	WORD	n/a	wordpools/wordpool_EN.txt	PIT	11	15	[0, 0, 0]	n/a	FR1	0	R1342M
2080.154	0.839	2080441	WORD_OFF	n/a	n/a	PIT	11	15	[0, 0, 0]	n/a	FR1	0	R1342M
2080.993	1.629	2081280	WORD	n/a	wordpools/wordpool_EN.txt	OWL	12	15	[0, 0, 0]	n/a	FR1	0	R1342M
2082.622	0.0	2082909	ENCODING_END	n/a	n/a	n/a	-999	15	[0, 0, 0]	n/a	FR1	0	R1342M
2082.622	0.001	2082909	WORD_OFF	n/a	n/a	OWL	12	15	[0, 0, 0]	n/a	FR1	0	R1342M
2082.623	0.0	2082910	DISTRACT_START	n/a	n/a	n/a	-999	15	[0, 0, 0]	n/a	FR1	0	R1342M
2082.623	0.015	2082910	START	n/a	n/a	n/a	-999	15	[-999, -999, -999]	n/a	FR1	0	R1342M
2082.638	5.334	2082925	PROB	5.334	n/a	n/a	-999	15	[2, 1, 4]	7	FR1	0	R1342M
2087.972	7.051	2088259	PROB	7.051	n/a	n/a	-999	15	[6, 2, 6]	14	FR1	0	R1342M
2095.023	6.636	2095309	PROB	6.636	n/a	n/a	-999	15	[9, 2, 6]	17	FR1	0	R1342M
2101.659	5.777	2101945	PROB	5.777	n/a	n/a	-999	15	[2, 7, 1]	10	FR1	0	R1342M
2107.436	0.007	2107722	STOP	n/a	n/a	n/a	-999	15	[-999, -999, -999]	n/a	FR1	0	R1342M
2107.443	0.686	2107729	DISTRACT_END	n/a	n/a	n/a	-999	15	[0, 0, 0]	n/a	FR1	0	R1342M
2108.129	1.682	2108415	RETRIEVAL_ORIENT_START	n/a	n/a	n/a	-999	15	[0, 0, 0]	n/a	FR1	0	R1342M
2109.811	0.0	2110096	RETRIEVAL_ORIENT_END	n/a	n/a	n/a	-999	15	[0, 0, 0]	n/a	FR1	0	R1342M
2109.811	3.826	2110096	REC_START	n/a	n/a	n/a	-999	15	[0, 0, 0]	n/a	FR1	0	R1342M
2113.637	4.675	2113922	REC_WORD	4.675	n/a	TOAD	1	15	[0, 0, 0]	n/a	FR1	0	R1342M
2118.312	5.696	2118597	REC_WORD	5.696	n/a	SWORD	2	15	[0, 0, 0]	n/a	FR1	0	R1342M
2124.008	6.484	2124293	REC_WORD	6.484	n/a	HORSE	3	15	[0, 0, 0]	n/a	FR1	0	R1342M
2130.492	9.33	2130776	REC_WORD	9.33	n/a	SKUNK	9	15	[0, 0, 0]	n/a	FR1	0	R1342M
2139.822	0.0	2140106	REC_END	n/a	n/a	n/a	-999	15	[0, 0, 0]	n/a	FR1	0	R1342M
2139.822	0.015	2140106	TRIAL_END	n/a	n/a	n/a	-999	15	[0, 0, 0]	n/a	FR1	0	R1342M
2139.837	0.0	2140121	TRIAL_START	n/a	n/a	n/a	-999	16	[0, 0, 0]	n/a	FR1	0	R1342M
2139.837	0.0	2140121	TRIAL	n/a	n/a	n/a	-999	16	[0, 0, 0]	n/a	FR1	0	R1342M
2139.837	22.366	2140121	WAITING_START	n/a	n/a	n/a	-999	16	[0, 0, 0]	n/a	FR1	0	R1342M
2162.203	0.0	2162486	WAITING_END	n/a	n/a	n/a	-999	16	[0, 0, 0]	n/a	FR1	0	R1342M
2162.203	10.429	2162486	COUNTDOWN_START	n/a	n/a	n/a	-999	16	[0, 0, 0]	n/a	FR1	0	R1342M
2172.632	0.0	2172914	ORIENT_START	n/a	n/a	n/a	-999	16	[0, 0, 0]	n/a	FR1	0	R1342M
2172.632	1.124	2172914	COUNTDOWN_END	n/a	n/a	n/a	-999	16	[0, 0, 0]	n/a	FR1	0	R1342M
2173.756	0.001	2174038	ORIENT_END	n/a	n/a	n/a	-999	16	[0, 0, 0]	n/a	FR1	0	R1342M
2173.757	0.959	2174039	ENCODING_START	n/a	n/a	n/a	-999	16	[0, 0, 0]	n/a	FR1	0	R1342M
2174.716	1.624	2174998	WORD	n/a	wordpools/wordpool_EN.txt	DESK	1	16	[0, 0, 0]	n/a	FR1	0	R1342M
2176.34	0.94	2176622	WORD_OFF	n/a	n/a	DESK	1	16	[0, 0, 0]	n/a	FR1	0	R1342M
2177.28	1.626	2177562	WORD	n/a	wordpools/wordpool_EN.txt	EEL	2	16	[0, 0, 0]	n/a	FR1	0	R1342M
2178.906	0.826	2179188	WORD_OFF	n/a	n/a	EEL	2	16	[0, 0, 0]	n/a	FR1	0	R1342M
2179.732	1.626	2180014	WORD	n/a	wordpools/wordpool_EN.txt	ELF	3	16	[0, 0, 0]	n/a	FR1	0	R1342M
2181.358	1.068	2181640	WORD_OFF	n/a	n/a	ELF	3	16	[0, 0, 0]	n/a	FR1	0	R1342M
2182.426	1.631	2182708	WORD	n/a	wordpools/wordpool_EN.txt	WALL	4	16	[0, 0, 0]	n/a	FR1	0	R1342M
2184.057	1.03	2184339	WORD_OFF	n/a	n/a	WALL	4	16	[0, 0, 0]	n/a	FR1	0	R1342M
2185.087	1.638	2185369	WORD	n/a	wordpools/wordpool_EN.txt	BOARD	5	16	[0, 0, 0]	n/a	FR1	0	R1342M
2186.725	0.985	2187007	WORD_OFF	n/a	n/a	BOARD	5	16	[0, 0, 0]	n/a	FR1	0	R1342M
2187.71	1.633	2187992	WORD	n/a	wordpools/wordpool_EN.txt	SIGN	6	16	[0, 0, 0]	n/a	FR1	0	R1342M
2189.343	0.841	2189624	WORD_OFF	n/a	n/a	SIGN	6	16	[0, 0, 0]	n/a	FR1	0	R1342M
2190.184	1.609	2190465	WORD	n/a	wordpools/wordpool_EN.txt	BRUSH	7	16	[0, 0, 0]	n/a	FR1	0	R1342M
2191.793	1.069	2192074	WORD_OFF	n/a	n/a	BRUSH	7	16	[0, 0, 0]	n/a	FR1	0	R1342M
2192.862	1.632	2193143	WORD	n/a	wordpools/wordpool_EN.txt	ZOO	8	16	[0, 0, 0]	n/a	FR1	0	R1342M
2194.494	0.973	2194775	WORD_OFF	n/a	n/a	ZOO	8	16	[0, 0, 0]	n/a	FR1	0	R1342M
2195.467	1.626	2195748	WORD	n/a	wordpools/wordpool_EN.txt	SPRING	9	16	[0, 0, 0]	n/a	FR1	0	R1342M
2197.093	0.976	2197374	WORD_OFF	n/a	n/a	SPRING	9	16	[0, 0, 0]	n/a	FR1	0	R1342M
2198.069	1.609	2198350	WORD	n/a	wordpools/wordpool_EN.txt	BOMB	10	16	[0, 0, 0]	n/a	FR1	0	R1342M
2199.678	1.016	2199959	WORD_OFF	n/a	n/a	BOMB	10	16	[0, 0, 0]	n/a	FR1	0	R1342M
2200.694	1.634	2200975	WORD	n/a	wordpools/wordpool_EN.txt	PURSE	11	16	[0, 0, 0]	n/a	FR1	0	R1342M
2202.328	0.757	2202609	WORD_OFF	n/a	n/a	PURSE	11	16	[0, 0, 0]	n/a	FR1	0	R1342M
2203.085	1.627	2203366	WORD	n/a	wordpools/wordpool_EN.txt	TOE	12	16	[0, 0, 0]	n/a	FR1	0	R1342M
2204.712	0.001	2204993	WORD_OFF	n/a	n/a	TOE	12	16	[0, 0, 0]	n/a	FR1	0	R1342M
2204.713	0.0	2204994	DISTRACT_START	n/a	n/a	n/a	-999	16	[0, 0, 0]	n/a	FR1	0	R1342M
2204.713	0.0	2204994	ENCODING_END	n/a	n/a	n/a	-999	16	[0, 0, 0]	n/a	FR1	0	R1342M
2204.713	0.016	2204994	START	n/a	n/a	n/a	-999	16	[-999, -999, -999]	n/a	FR1	0	R1342M
2204.729	5.166	2205010	PROB	5.166	n/a	n/a	-999	16	[1, 2, 9]	12	FR1	0	R1342M
2209.895	5.285	2210175	PROB	5.285	n/a	n/a	-999	16	[2, 6, 4]	12	FR1	0	R1342M
2215.18	6.319	2215460	PROB	6.319	n/a	n/a	-999	16	[4, 7, 6]	17	FR1	0	R1342M
2221.499	6.609	2221779	PROB	6.609	n/a	n/a	-999	16	[7, 3, 7]	17	FR1	0	R1342M
2228.108	0.008	2228387	STOP	n/a	n/a	n/a	-999	16	[-999, -999, -999]	n/a	FR1	0	R1342M
2228.116	0.634	2228395	DISTRACT_END	n/a	n/a	n/a	-999	16	[0, 0, 0]	n/a	FR1	0	R1342M
2228.75	1.684	2229029	RETRIEVAL_ORIENT_START	n/a	n/a	n/a	-999	16	[0, 0, 0]	n/a	FR1	0	R1342M
2230.434	0.0	2230713	RETRIEVAL_ORIENT_END	n/a	n/a	n/a	-999	16	[0, 0, 0]	n/a	FR1	0	R1342M
2230.434	4.847	2230713	REC_START	n/a	n/a	n/a	-999	16	[0, 0, 0]	n/a	FR1	0	R1342M
2235.281	2.962	2235560	REC_WORD	2.962	n/a	EEL	2	16	[0, 0, 0]	n/a	FR1	0	R1342M
2238.243	7.993	2238522	REC_WORD	7.993	n/a	ELF	3	16	[0, 0, 0]	n/a	FR1	0	R1342M
2246.236	1.673	2246515	REC_WORD	1.673	n/a	WALL	4	16	[0, 0, 0]	n/a	FR1	0	R1342M
2247.909	3.928	2248187	REC_WORD	3.928	n/a	BOARD	5	16	[0, 0, 0]	n/a	FR1	0	R1342M
2251.837	8.612	2252115	REC_WORD	8.612	n/a	BOMB	10	16	[0, 0, 0]	n/a	FR1	0	R1342M
2260.449	0.0	2260727	REC_END	n/a	n/a	n/a	-999	16	[0, 0, 0]	n/a	FR1	0	R1342M
2260.449	0.017	2260727	TRIAL_END	n/a	n/a	n/a	-999	16	[0, 0, 0]	n/a	FR1	0	R1342M
2260.466	0.0	2260744	TRIAL_START	n/a	n/a	n/a	-999	17	[0, 0, 0]	n/a	FR1	0	R1342M
2260.466	0.0	2260744	TRIAL	n/a	n/a	n/a	-999	17	[0, 0, 0]	n/a	FR1	0	R1342M
2260.466	24.945	2260744	WAITING_START	n/a	n/a	n/a	-999	17	[0, 0, 0]	n/a	FR1	0	R1342M
2285.411	0.001	2285688	WAITING_END	n/a	n/a	n/a	-999	17	[0, 0, 0]	n/a	FR1	0	R1342M
2285.412	10.428	2285689	COUNTDOWN_START	n/a	n/a	n/a	-999	17	[0, 0, 0]	n/a	FR1	0	R1342M
2295.84	0.001	2296116	COUNTDOWN_END	n/a	n/a	n/a	-999	17	[0, 0, 0]	n/a	FR1	0	R1342M
2295.841	1.221	2296117	ORIENT_START	n/a	n/a	n/a	-999	17	[0, 0, 0]	n/a	FR1	0	R1342M
2297.062	0.001	2297338	ORIENT_END	n/a	n/a	n/a	-999	17	[0, 0, 0]	n/a	FR1	0	R1342M
2297.063	1.085	2297339	ENCODING_START	n/a	n/a	n/a	-999	17	[0, 0, 0]	n/a	FR1	0	R1342M
2298.148	1.616	2298424	WORD	n/a	wordpools/wordpool_EN.txt	STORM	1	17	[0, 0, 0]	n/a	FR1	0	R1342M
2299.764	1.134	2300040	WORD_OFF	n/a	n/a	STORM	1	17	[0, 0, 0]	n/a	FR1	0	R1342M
2300.898	1.616	2301174	WORD	n/a	wordpools/wordpool_EN.txt	DRESS	2	17	[0, 0, 0]	n/a	FR1	0	R1342M
2302.514	1.105	2302790	WORD_OFF	n/a	n/a	DRESS	2	17	[0, 0, 0]	n/a	FR1	0	R1342M
2303.619	1.629	2303895	WORD	n/a	wordpools/wordpool_EN.txt	LAMP	3	17	[0, 0, 0]	n/a	FR1	0	R1342M
2305.248	0.904	2305524	WORD_OFF	n/a	n/a	LAMP	3	17	[0, 0, 0]	n/a	FR1	0	R1342M
2306.152	1.63	2306428	WORD	n/a	wordpools/wordpool_EN.txt	SWAMP	4	17	[0, 0, 0]	n/a	FR1	0	R1342M
2307.782	1.009	2308057	WORD_OFF	n/a	n/a	SWAMP	4	17	[0, 0, 0]	n/a	FR1	0	R1342M
2308.791	1.625	2309066	WORD	n/a	wordpools/wordpool_EN.txt	SHIRT	5	17	[0, 0, 0]	n/a	FR1	0	R1342M
2310.416	0.836	2310691	WORD_OFF	n/a	n/a	SHIRT	5	17	[0, 0, 0]	n/a	FR1	0	R1342M
2311.252	1.63	2311527	WORD	n/a	wordpools/wordpool_EN.txt	BOOT	6	17	[0, 0, 0]	n/a	FR1	0	R1342M
2312.882	0.87	2313157	WORD_OFF	n/a	n/a	BOOT	6	17	[0, 0, 0]	n/a	FR1	0	R1342M
2313.752	1.632	2314027	WORD	n/a	wordpools/wordpool_EN.txt	MAP	7	17	[0, 0, 0]	n/a	FR1	0	R1342M
2315.384	0.769	2315659	WORD_OFF	n/a	n/a	MAP	7	17	[0, 0, 0]	n/a	FR1	0	R1342M
2316.153	1.631	2316428	WORD	n/a	wordpools/wordpool_EN.txt	WING	8	17	[0, 0, 0]	n/a	FR1	0	R1342M
2317.784	0.946	2318059	WORD_OFF	n/a	n/a	WING	8	17	[0, 0, 0]	n/a	FR1	0	R1342M
2318.73	1.621	2319005	WORD	n/a	wordpools/wordpool_EN.txt	HOLE	9	17	[0, 0, 0]	n/a	FR1	0	R1342M
2320.351	0.919	2320626	WORD_OFF	n/a	n/a	HOLE	9	17	[0, 0, 0]	n/a	FR1	0	R1342M
2321.27	1.632	2321545	WORD	n/a	wordpools/wordpool_EN.txt	STORE	10	17	[0, 0, 0]	n/a	FR1	0	R1342M
2322.902	0.783	2323177	WORD_OFF	n/a	n/a	STORE	10	17	[0, 0, 0]	n/a	FR1	0	R1342M
2323.685	1.634	2323960	WORD	n/a	wordpools/wordpool_EN.txt	SPONGE	11	17	[0, 0, 0]	n/a	FR1	0	R1342M
2325.319	0.799	2325594	WORD_OFF	n/a	n/a	SPONGE	11	17	[0, 0, 0]	n/a	FR1	0	R1342M
2326.118	1.618	2326393	WORD	n/a	wordpools/wordpool_EN.txt	BARN	12	17	[0, 0, 0]	n/a	FR1	0	R1342M
2327.736	0.0	2328010	ENCODING_END	n/a	n/a	n/a	-999	17	[0, 0, 0]	n/a	FR1	0	R1342M
2327.736	0.001	2328010	WORD_OFF	n/a	n/a	BARN	12	17	[0, 0, 0]	n/a	FR1	0	R1342M
2327.737	0.0	2328011	DISTRACT_START	n/a	n/a	n/a	-999	17	[0, 0, 0]	n/a	FR1	0	R1342M
2327.737	0.015	2328011	START	n/a	n/a	n/a	-999	17	[-999, -999, -999]	n/a	FR1	0	R1342M
2327.752	10.102	2328026	PROB	10.102	n/a	n/a	-999	17	[8, 9, 7]	24	FR1	0	R1342M
2337.854	6.201	2338128	PROB	6.201	n/a	n/a	-999	17	[9, 7, 2]	18	FR1	0	R1342M
2344.055	5.822	2344329	PROB	5.822	n/a	n/a	-999	17	[5, 2, 9]	16	FR1	0	R1342M
2349.877	0.012	2350150	STOP	n/a	n/a	n/a	-999	17	[-999, -999, -999]	n/a	FR1	0	R1342M
2349.889	0.577	2350162	DISTRACT_END	n/a	n/a	n/a	-999	17	[0, 0, 0]	n/a	FR1	0	R1342M
2350.466	1.624	2350739	RETRIEVAL_ORIENT_START	n/a	n/a	n/a	-999	17	[0, 0, 0]	n/a	FR1	0	R1342M
2352.09	0.0	2352363	RETRIEVAL_ORIENT_END	n/a	n/a	n/a	-999	17	[0, 0, 0]	n/a	FR1	0	R1342M
2352.09	5.029	2352363	REC_START	n/a	n/a	n/a	-999	17	[0, 0, 0]	n/a	FR1	0	R1342M
2357.119	3.993	2357392	REC_WORD	3.993	n/a	STORM	1	17	[0, 0, 0]	n/a	FR1	0	R1342M
2361.112	2.029	2361385	REC_WORD	2.029	n/a	DRESS	2	17	[0, 0, 0]	n/a	FR1	0	R1342M
2363.141	2.447	2363414	REC_WORD	2.447	n/a	LAMP	3	17	[0, 0, 0]	n/a	FR1	0	R1342M
2365.588	4.574	2365861	REC_WORD	4.574	n/a	SWAMP	4	17	[0, 0, 0]	n/a	FR1	0	R1342M
2370.162	11.94	2370434	REC_WORD	11.94	n/a	HOLE	9	17	[0, 0, 0]	n/a	FR1	0	R1342M
2382.102	0.0	2382374	REC_END	n/a	n/a	n/a	-999	17	[0, 0, 0]	n/a	FR1	0	R1342M
2382.102	0.015	2382374	TRIAL_END	n/a	n/a	n/a	-999	17	[0, 0, 0]	n/a	FR1	0	R1342M
2382.117	0.0	2382389	TRIAL_START	n/a	n/a	n/a	-999	18	[0, 0, 0]	n/a	FR1	0	R1342M
2382.117	0.001	2382389	TRIAL	n/a	n/a	n/a	-999	18	[0, 0, 0]	n/a	FR1	0	R1342M
2382.118	17.632	2382390	WAITING_START	n/a	n/a	n/a	-999	18	[0, 0, 0]	n/a	FR1	0	R1342M
2399.75	0.0	2400021	COUNTDOWN_START	n/a	n/a	n/a	-999	18	[0, 0, 0]	n/a	FR1	0	R1342M
2399.75	10.43	2400021	WAITING_END	n/a	n/a	n/a	-999	18	[0, 0, 0]	n/a	FR1	0	R1342M
2410.18	0.001	2410450	COUNTDOWN_END	n/a	n/a	n/a	-999	18	[0, 0, 0]	n/a	FR1	0	R1342M
2410.181	1.188	2410451	ORIENT_START	n/a	n/a	n/a	-999	18	[0, 0, 0]	n/a	FR1	0	R1342M
2411.369	0.0	2411639	ORIENT_END	n/a	n/a	n/a	-999	18	[0, 0, 0]	n/a	FR1	0	R1342M
2411.369	1.005	2411639	ENCODING_START	n/a	n/a	n/a	-999	18	[0, 0, 0]	n/a	FR1	0	R1342M
2412.374	1.628	2412644	WORD	n/a	wordpools/wordpool_EN.txt	SUN	1	18	[0, 0, 0]	n/a	FR1	0	R1342M
2414.002	0.997	2414272	WORD_OFF	n/a	n/a	SUN	1	18	[0, 0, 0]	n/a	FR1	0	R1342M
2414.999	1.638	2415269	WORD	n/a	wordpools/wordpool_EN.txt	DITCH	2	18	[0, 0, 0]	n/a	FR1	0	R1342M
2416.637	0.749	2416907	WORD_OFF	n/a	n/a	DITCH	2	18	[0, 0, 0]	n/a	FR1	0	R1342M
2417.386	1.633	2417656	WORD	n/a	wordpools/wordpool_EN.txt	BOWL	3	18	[0, 0, 0]	n/a	FR1	0	R1342M
2419.019	1.071	2419289	WORD_OFF	n/a	n/a	BOWL	3	18	[0, 0, 0]	n/a	FR1	0	R1342M
2420.09	1.631	2420360	WORD	n/a	wordpools/wordpool_EN.txt	TRAY	4	18	[0, 0, 0]	n/a	FR1	0	R1342M
2421.721	1.06	2421991	WORD_OFF	n/a	n/a	TRAY	4	18	[0, 0, 0]	n/a	FR1	0	R1342M
2422.781	1.624	2423051	WORD	n/a	wordpools/wordpool_EN.txt	POND	5	18	[0, 0, 0]	n/a	FR1	0	R1342M
2424.405	0.965	2424675	WORD_OFF	n/a	n/a	POND	5	18	[0, 0, 0]	n/a	FR1	0	R1342M
2425.37	1.634	2425640	WORD	n/a	wordpools/wordpool_EN.txt	COIN	6	18	[0, 0, 0]	n/a	FR1	0	R1342M
2427.004	1.103	2427273	WORD_OFF	n/a	n/a	COIN	6	18	[0, 0, 0]	n/a	FR1	0	R1342M
2428.107	1.632	2428376	WORD	n/a	wordpools/wordpool_EN.txt	DEER	7	18	[0, 0, 0]	n/a	FR1	0	R1342M
2429.739	1.043	2430008	WORD_OFF	n/a	n/a	DEER	7	18	[0, 0, 0]	n/a	FR1	0	R1342M
2430.782	1.624	2431051	WORD	n/a	wordpools/wordpool_EN.txt	SHOE	8	18	[0, 0, 0]	n/a	FR1	0	R1342M
2432.406	0.804	2432675	WORD_OFF	n/a	n/a	SHOE	8	18	[0, 0, 0]	n/a	FR1	0	R1342M
2433.21	1.63	2433479	WORD	n/a	wordpools/wordpool_EN.txt	BOX	9	18	[0, 0, 0]	n/a	FR1	0	R1342M
2434.84	0.979	2435109	WORD_OFF	n/a	n/a	BOX	9	18	[0, 0, 0]	n/a	FR1	0	R1342M
2435.819	1.622	2436088	WORD	n/a	wordpools/wordpool_EN.txt	PIPE	10	18	[0, 0, 0]	n/a	FR1	0	R1342M
2437.441	0.862	2437710	WORD_OFF	n/a	n/a	PIPE	10	18	[0, 0, 0]	n/a	FR1	0	R1342M
2438.303	1.62	2438572	WORD	n/a	wordpools/wordpool_EN.txt	GUARD	11	18	[0, 0, 0]	n/a	FR1	0	R1342M
2439.923	0.83	2440192	WORD_OFF	n/a	n/a	GUARD	11	18	[0, 0, 0]	n/a	FR1	0	R1342M
2440.753	1.638	2441022	WORD	n/a	wordpools/wordpool_EN.txt	WORLD	12	18	[0, 0, 0]	n/a	FR1	0	R1342M
2442.391	0.001	2442660	WORD_OFF	n/a	n/a	WORLD	12	18	[0, 0, 0]	n/a	FR1	0	R1342M
2442.392	0.0	2442661	ENCODING_END	n/a	n/a	n/a	-999	18	[0, 0, 0]	n/a	FR1	0	R1342M
2442.392	0.0	2442661	DISTRACT_START	n/a	n/a	n/a	-999	18	[0, 0, 0]	n/a	FR1	0	R1342M
2442.392	0.016	2442661	START	n/a	n/a	n/a	-999	18	[-999, -999, -999]	n/a	FR1	0	R1342M
2442.408	9.235	2442677	PROB	9.235	n/a	n/a	-999	18	[8, 5, 1]	14	FR1	0	R1342M
2451.643	5.3	2451911	PROB	5.3	n/a	n/a	-999	18	[4, 3, 1]	8	FR1	0	R1342M
2456.943	4.251	2457211	PROB	4.251	n/a	n/a	-999	18	[2, 3, 3]	8	FR1	0	R1342M
2461.194	4.432	2461462	PROB	4.432	n/a	n/a	-999	18	[9, 8, 1]	18	FR1	0	R1342M
2465.626	0.02	2465894	STOP	n/a	n/a	n/a	-999	18	[-999, -999, -999]	n/a	FR1	0	R1342M
2465.646	0.632	2465914	DISTRACT_END	n/a	n/a	n/a	-999	18	[0, 0, 0]	n/a	FR1	0	R1342M
2466.278	1.701	2466545	RETRIEVAL_ORIENT_START	n/a	n/a	n/a	-999	18	[0, 0, 0]	n/a	FR1	0	R1342M
2467.979	0.0	2468246	RETRIEVAL_ORIENT_END	n/a	n/a	n/a	-999	18	[0, 0, 0]	n/a	FR1	0	R1342M
2467.979	6.69	2468246	REC_START	n/a	n/a	n/a	-999	18	[0, 0, 0]	n/a	FR1	0	R1342M
2474.669	10.762	2474936	REC_WORD	10.762	n/a	SUN	1	18	[0, 0, 0]	n/a	FR1	0	R1342M
2485.431	12.562	2485698	REC_WORD	12.562	n/a	DEER	7	18	[0, 0, 0]	n/a	FR1	0	R1342M
2497.993	0.0	2498259	REC_END	n/a	n/a	n/a	-999	18	[0, 0, 0]	n/a	FR1	0	R1342M
2497.993	0.014	2498259	TRIAL_END	n/a	n/a	n/a	-999	18	[0, 0, 0]	n/a	FR1	0	R1342M
2498.007	0.001	2498273	TRIAL_START	n/a	n/a	n/a	-999	19	[0, 0, 0]	n/a	FR1	0	R1342M
2498.008	0.0	2498274	TRIAL	n/a	n/a	n/a	-999	19	[0, 0, 0]	n/a	FR1	0	R1342M
2498.008	9.178	2498274	WAITING_START	n/a	n/a	n/a	-999	19	[0, 0, 0]	n/a	FR1	0	R1342M
2507.186	0.001	2507451	WAITING_END	n/a	n/a	n/a	-999	19	[0, 0, 0]	n/a	FR1	0	R1342M
2507.187	10.428	2507452	COUNTDOWN_START	n/a	n/a	n/a	-999	19	[0, 0, 0]	n/a	FR1	0	R1342M
2517.615	0.001	2517880	COUNTDOWN_END	n/a	n/a	n/a	-999	19	[0, 0, 0]	n/a	FR1	0	R1342M
2517.616	1.04	2517881	ORIENT_START	n/a	n/a	n/a	-999	19	[0, 0, 0]	n/a	FR1	0	R1342M
2518.656	0.001	2518921	ORIENT_END	n/a	n/a	n/a	-999	19	[0, 0, 0]	n/a	FR1	0	R1342M
2518.657	0.949	2518922	ENCODING_START	n/a	n/a	n/a	-999	19	[0, 0, 0]	n/a	FR1	0	R1342M
2519.606	1.634	2519871	WORD	n/a	wordpools/wordpool_EN.txt	BUSH	1	19	[0, 0, 0]	n/a	FR1	0	R1342M
2521.24	0.892	2521505	WORD_OFF	n/a	n/a	BUSH	1	19	[0, 0, 0]	n/a	FR1	0	R1342M
2522.132	1.608	2522397	WORD	n/a	wordpools/wordpool_EN.txt	CASH	2	19	[0, 0, 0]	n/a	FR1	0	R1342M
2523.74	0.904	2524005	WORD_OFF	n/a	n/a	CASH	2	19	[0, 0, 0]	n/a	FR1	0	R1342M
2524.644	1.63	2524909	WORD	n/a	wordpools/wordpool_EN.txt	THREAD	3	19	[0, 0, 0]	n/a	FR1	0	R1342M
2526.274	1.05	2526538	WORD_OFF	n/a	n/a	THREAD	3	19	[0, 0, 0]	n/a	FR1	0	R1342M
2527.324	1.633	2527588	WORD	n/a	wordpools/wordpool_EN.txt	EAR	4	19	[0, 0, 0]	n/a	FR1	0	R1342M
2528.957	0.77	2529221	WORD_OFF	n/a	n/a	EAR	4	19	[0, 0, 0]	n/a	FR1	0	R1342M
2529.727	1.632	2529991	WORD	n/a	wordpools/wordpool_EN.txt	BREAD	5	19	[0, 0, 0]	n/a	FR1	0	R1342M
2531.359	1.098	2531623	WORD_OFF	n/a	n/a	BREAD	5	19	[0, 0, 0]	n/a	FR1	0	R1342M
2532.457	1.635	2532721	WORD	n/a	wordpools/wordpool_EN.txt	SNAIL	6	19	[0, 0, 0]	n/a	FR1	0	R1342M
2534.092	0.895	2534356	WORD_OFF	n/a	n/a	SNAIL	6	19	[0, 0, 0]	n/a	FR1	0	R1342M
2534.987	1.623	2535251	WORD	n/a	wordpools/wordpool_EN.txt	BALL	7	19	[0, 0, 0]	n/a	FR1	0	R1342M
2536.61	0.974	2536874	WORD_OFF	n/a	n/a	BALL	7	19	[0, 0, 0]	n/a	FR1	0	R1342M
2537.584	1.625	2537848	WORD	n/a	wordpools/wordpool_EN.txt	TRUCK	8	19	[0, 0, 0]	n/a	FR1	0	R1342M
2539.209	0.89	2539473	WORD_OFF	n/a	n/a	TRUCK	8	19	[0, 0, 0]	n/a	FR1	0	R1342M
2540.099	1.612	2540363	WORD	n/a	wordpools/wordpool_EN.txt	BATH	9	19	[0, 0, 0]	n/a	FR1	0	R1342M
2541.711	0.929	2541975	WORD_OFF	n/a	n/a	BATH	9	19	[0, 0, 0]	n/a	FR1	0	R1342M
2542.64	1.621	2542904	WORD	n/a	wordpools/wordpool_EN.txt	WOOD	10	19	[0, 0, 0]	n/a	FR1	0	R1342M
2544.261	1.101	2544525	WORD_OFF	n/a	n/a	WOOD	10	19	[0, 0, 0]	n/a	FR1	0	R1342M
2545.362	1.632	2545626	WORD	n/a	wordpools/wordpool_EN.txt	SHELL	11	19	[0, 0, 0]	n/a	FR1	0	R1342M
2546.994	0.908	2547257	WORD_OFF	n/a	n/a	SHELL	11	19	[0, 0, 0]	n/a	FR1	0	R1342M
2547.902	1.61	2548165	WORD	n/a	wordpools/wordpool_EN.txt	TRASH	12	19	[0, 0, 0]	n/a	FR1	0	R1342M
2549.512	0.001	2549775	WORD_OFF	n/a	n/a	TRASH	12	19	[0, 0, 0]	n/a	FR1	0	R1342M
2549.513	0.0	2549776	DISTRACT_START	n/a	n/a	n/a	-999	19	[0, 0, 0]	n/a	FR1	0	R1342M
2549.513	0.0	2549776	ENCODING_END	n/a	n/a	n/a	-999	19	[0, 0, 0]	n/a	FR1	0	R1342M
2549.513	0.016	2549776	START	n/a	n/a	n/a	-999	19	[-999, -999, -999]	n/a	FR1	0	R1342M
2549.529	7.851	2549792	PROB	7.851	n/a	n/a	-999	19	[4, 5, 8]	17	FR1	0	R1342M
2557.38	4.767	2557643	PROB	4.767	n/a	n/a	-999	19	[5, 4, 8]	19	FR1	0	R1342M
2562.147	5.469	2562410	PROB	5.469	n/a	n/a	-999	19	[1, 9, 4]	14	FR1	0	R1342M
2567.616	7.473	2567878	PROB	7.473	n/a	n/a	-999	19	[7, 9, 6]	23	FR1	0	R1342M
2575.089	0.011	2575351	STOP	n/a	n/a	n/a	-999	19	[-999, -999, -999]	n/a	FR1	0	R1342M
2575.1	0.541	2575362	DISTRACT_END	n/a	n/a	n/a	-999	19	[0, 0, 0]	n/a	FR1	0	R1342M
2575.641	1.61	2575903	RETRIEVAL_ORIENT_START	n/a	n/a	n/a	-999	19	[0, 0, 0]	n/a	FR1	0	R1342M
2577.251	0.0	2577513	RETRIEVAL_ORIENT_END	n/a	n/a	n/a	-999	19	[0, 0, 0]	n/a	FR1	0	R1342M
2577.251	5.62	2577513	REC_START	n/a	n/a	n/a	-999	19	[0, 0, 0]	n/a	FR1	0	R1342M
2582.871	4.209	2583133	REC_WORD	4.209	n/a	BUSH	1	19	[0, 0, 0]	n/a	FR1	0	R1342M
2587.08	3.419	2587341	REC_WORD	3.419	n/a	CASH	2	19	[0, 0, 0]	n/a	FR1	0	R1342M
2590.499	5.114	2590760	REC_WORD	5.114	n/a	THREAD	3	19	[0, 0, 0]	n/a	FR1	0	R1342M
2595.613	11.651	2595874	REC_WORD	11.651	n/a	EAR	4	19	[0, 0, 0]	n/a	FR1	0	R1342M
2607.264	0.0	2607524	TRIAL_END	n/a	n/a	n/a	-999	19	[0, 0, 0]	n/a	FR1	0	R1342M
2607.264	0.014	2607524	REC_END	n/a	n/a	n/a	-999	19	[0, 0, 0]	n/a	FR1	0	R1342M
2607.278	0.0	2607538	TRIAL_START	n/a	n/a	n/a	-999	20	[0, 0, 0]	n/a	FR1	0	R1342M
2607.278	0.001	2607538	TRIAL	n/a	n/a	n/a	-999	20	[0, 0, 0]	n/a	FR1	0	R1342M
2607.279	10.862	2607539	WAITING_START	n/a	n/a	n/a	-999	20	[0, 0, 0]	n/a	FR1	0	R1342M
2618.141	0.001	2618401	WAITING_END	n/a	n/a	n/a	-999	20	[0, 0, 0]	n/a	FR1	0	R1342M
2618.142	10.429	2618402	COUNTDOWN_START	n/a	n/a	n/a	-999	20	[0, 0, 0]	n/a	FR1	0	R1342M
2628.571	0.0	2628830	COUNTDOWN_END	n/a	n/a	n/a	-999	20	[0, 0, 0]	n/a	FR1	0	R1342M
2628.571	1.14	2628830	ORIENT_START	n/a	n/a	n/a	-999	20	[0, 0, 0]	n/a	FR1	0	R1342M
2629.711	0.001	2629970	ORIENT_END	n/a	n/a	n/a	-999	20	[0, 0, 0]	n/a	FR1	0	R1342M
2629.712	0.777	2629971	ENCODING_START	n/a	n/a	n/a	-999	20	[0, 0, 0]	n/a	FR1	0	R1342M
2630.489	1.622	2630748	WORD	n/a	wordpools/wordpool_EN.txt	JAR	1	20	[0, 0, 0]	n/a	FR1	0	R1342M
2632.111	0.99	2632370	WORD_OFF	n/a	n/a	JAR	1	20	[0, 0, 0]	n/a	FR1	0	R1342M
2633.101	1.628	2633360	WORD	n/a	wordpools/wordpool_EN.txt	STONE	2	20	[0, 0, 0]	n/a	FR1	0	R1342M
2634.729	0.961	2634988	WORD_OFF	n/a	n/a	STONE	2	20	[0, 0, 0]	n/a	FR1	0	R1342M
2635.69	1.622	2635949	WORD	n/a	wordpools/wordpool_EN.txt	FISH	3	20	[0, 0, 0]	n/a	FR1	0	R1342M
2637.312	0.872	2637571	WORD_OFF	n/a	n/a	FISH	3	20	[0, 0, 0]	n/a	FR1	0	R1342M
2638.184	1.629	2638443	WORD	n/a	wordpools/wordpool_EN.txt	SMILE	4	20	[0, 0, 0]	n/a	FR1	0	R1342M
2639.813	0.75	2640072	WORD_OFF	n/a	n/a	SMILE	4	20	[0, 0, 0]	n/a	FR1	0	R1342M
2640.563	1.633	2640822	WORD	n/a	wordpools/wordpool_EN.txt	FOX	5	20	[0, 0, 0]	n/a	FR1	0	R1342M
2642.196	0.979	2642455	WORD_OFF	n/a	n/a	FOX	5	20	[0, 0, 0]	n/a	FR1	0	R1342M
2643.175	1.639	2643434	WORD	n/a	wordpools/wordpool_EN.txt	MOLE	6	20	[0, 0, 0]	n/a	FR1	0	R1342M
2644.814	1.1	2645073	WORD_OFF	n/a	n/a	MOLE	6	20	[0, 0, 0]	n/a	FR1	0	R1342M
2645.914	1.634	2646172	WORD	n/a	wordpools/wordpool_EN.txt	PLANE	7	20	[0, 0, 0]	n/a	FR1	0	R1342M
2647.548	0.939	2647806	WORD_OFF	n/a	n/a	PLANE	7	20	[0, 0, 0]	n/a	FR1	0	R1342M
2648.487	1.627	2648745	WORD	n/a	wordpools/wordpool_EN.txt	COW	8	20	[0, 0, 0]	n/a	FR1	0	R1342M
2650.114	1.15	2650372	WORD_OFF	n/a	n/a	COW	8	20	[0, 0, 0]	n/a	FR1	0	R1342M
2651.264	1.634	2651522	WORD	n/a	wordpools/wordpool_EN.txt	WAND	9	20	[0, 0, 0]	n/a	FR1	0	R1342M
2652.898	0.795	2653156	WORD_OFF	n/a	n/a	WAND	9	20	[0, 0, 0]	n/a	FR1	0	R1342M
2653.693	1.623	2653951	WORD	n/a	wordpools/wordpool_EN.txt	BEE	10	20	[0, 0, 0]	n/a	FR1	0	R1342M
2655.316	0.99	2655574	WORD_OFF	n/a	n/a	BEE	10	20	[0, 0, 0]	n/a	FR1	0	R1342M
2656.306	1.626	2656564	WORD	n/a	wordpools/wordpool_EN.txt	JUDGE	11	20	[0, 0, 0]	n/a	FR1	0	R1342M
2657.932	0.755	2658190	WORD_OFF	n/a	n/a	JUDGE	11	20	[0, 0, 0]	n/a	FR1	0	R1342M
2658.687	1.63	2658945	WORD	n/a	wordpools/wordpool_EN.txt	CHAIR	12	20	[0, 0, 0]	n/a	FR1	0	R1342M
2660.317	0.001	2660575	WORD_OFF	n/a	n/a	CHAIR	12	20	[0, 0, 0]	n/a	FR1	0	R1342M
2660.318	0.0	2660576	DISTRACT_START	n/a	n/a	n/a	-999	20	[0, 0, 0]	n/a	FR1	0	R1342M
2660.318	0.0	2660576	ENCODING_END	n/a	n/a	n/a	-999	20	[0, 0, 0]	n/a	FR1	0	R1342M
2660.318	0.016	2660576	START	n/a	n/a	n/a	-999	20	[-999, -999, -999]	n/a	FR1	0	R1342M
2660.334	5.2	2660592	PROB	5.2	n/a	n/a	-999	20	[1, 5, 9]	15	FR1	0	R1342M
2665.534	5.002	2665791	PROB	5.002	n/a	n/a	-999	20	[1, 4, 9]	14	FR1	0	R1342M
2670.536	4.917	2670793	PROB	4.917	n/a	n/a	-999	20	[4, 1, 5]	9	FR1	0	R1342M
2675.453	8.42	2675710	PROB	8.42	n/a	n/a	-999	20	[4, 3, 8]	15	FR1	0	R1342M
2683.873	0.014	2684130	STOP	n/a	n/a	n/a	-999	20	[-999, -999, -999]	n/a	FR1	0	R1342M
2683.887	0.579	2684144	DISTRACT_END	n/a	n/a	n/a	-999	20	[0, 0, 0]	n/a	FR1	0	R1342M
2684.466	1.555	2684723	RETRIEVAL_ORIENT_START	n/a	n/a	n/a	-999	20	[0, 0, 0]	n/a	FR1	0	R1342M
2686.021	0.0	2686277	RETRIEVAL_ORIENT_END	n/a	n/a	n/a	-999	20	[0, 0, 0]	n/a	FR1	0	R1342M
2686.021	4.602	2686277	REC_START	n/a	n/a	n/a	-999	20	[0, 0, 0]	n/a	FR1	0	R1342M
2690.623	4.12	2690879	REC_WORD	4.12	n/a	JAR	1	20	[0, 0, 0]	n/a	FR1	0	R1342M
2694.743	3.297	2694999	REC_WORD	3.297	n/a	STONE	2	20	[0, 0, 0]	n/a	FR1	0	R1342M
2698.04	4.735	2698296	REC_WORD	4.735	n/a	FISH	3	20	[0, 0, 0]	n/a	FR1	0	R1342M
2702.775	5.999	2703031	REC_WORD	5.999	n/a	FOX	5	20	[0, 0, 0]	n/a	FR1	0	R1342M
2708.774	7.261	2709029	REC_WORD	7.261	n/a	SMILE	4	20	[0, 0, 0]	n/a	FR1	0	R1342M
2716.035	0.0	2716290	REC_END	n/a	n/a	n/a	-999	20	[0, 0, 0]	n/a	FR1	0	R1342M
2716.035	0.017	2716290	TRIAL_END	n/a	n/a	n/a	-999	20	[0, 0, 0]	n/a	FR1	0	R1342M
2716.052	0.0	2716307	TRIAL_START	n/a	n/a	n/a	-999	21	[0, 0, 0]	n/a	FR1	0	R1342M
2716.052	0.0	2716307	TRIAL	n/a	n/a	n/a	-999	21	[0, 0, 0]	n/a	FR1	0	R1342M
2716.052	16.945	2716307	WAITING_START	n/a	n/a	n/a	-999	21	[0, 0, 0]	n/a	FR1	0	R1342M
2732.997	0.0	2733251	COUNTDOWN_START	n/a	n/a	n/a	-999	21	[0, 0, 0]	n/a	FR1	0	R1342M
2732.997	10.428	2733251	WAITING_END	n/a	n/a	n/a	-999	21	[0, 0, 0]	n/a	FR1	0	R1342M
2743.425	0.001	2743679	COUNTDOWN_END	n/a	n/a	n/a	-999	21	[0, 0, 0]	n/a	FR1	0	R1342M
2743.426	1.057	2743680	ORIENT_START	n/a	n/a	n/a	-999	21	[0, 0, 0]	n/a	FR1	0	R1342M
2744.483	0.001	2744736	ORIENT_END	n/a	n/a	n/a	-999	21	[0, 0, 0]	n/a	FR1	0	R1342M
2744.484	0.934	2744737	ENCODING_START	n/a	n/a	n/a	-999	21	[0, 0, 0]	n/a	FR1	0	R1342M
2745.418	1.632	2745671	WORD	n/a	wordpools/wordpool_EN.txt	ROSE	1	21	[0, 0, 0]	n/a	FR1	0	R1342M
2747.05	0.915	2747303	WORD_OFF	n/a	n/a	ROSE	1	21	[0, 0, 0]	n/a	FR1	0	R1342M
2747.965	1.636	2748218	WORD	n/a	wordpools/wordpool_EN.txt	MOUSE	2	21	[0, 0, 0]	n/a	FR1	0	R1342M
2749.601	1.133	2749854	WORD_OFF	n/a	n/a	MOUSE	2	21	[0, 0, 0]	n/a	FR1	0	R1342M
2750.734	1.634	2750987	WORD	n/a	wordpools/wordpool_EN.txt	STOVE	3	21	[0, 0, 0]	n/a	FR1	0	R1342M
2752.368	0.914	2752621	WORD_OFF	n/a	n/a	STOVE	3	21	[0, 0, 0]	n/a	FR1	0	R1342M
2753.282	1.636	2753535	WORD	n/a	wordpools/wordpool_EN.txt	CALF	4	21	[0, 0, 0]	n/a	FR1	0	R1342M
2754.918	1.073	2755171	WORD_OFF	n/a	n/a	CALF	4	21	[0, 0, 0]	n/a	FR1	0	R1342M
2755.991	1.628	2756244	WORD	n/a	wordpools/wordpool_EN.txt	MUD	5	21	[0, 0, 0]	n/a	FR1	0	R1342M
2757.619	0.771	2757872	WORD_OFF	n/a	n/a	MUD	5	21	[0, 0, 0]	n/a	FR1	0	R1342M
2758.39	1.629	2758643	WORD	n/a	wordpools/wordpool_EN.txt	SALT	6	21	[0, 0, 0]	n/a	FR1	0	R1342M
2760.019	1.138	2760272	WORD_OFF	n/a	n/a	SALT	6	21	[0, 0, 0]	n/a	FR1	0	R1342M
2761.157	1.613	2761410	WORD	n/a	wordpools/wordpool_EN.txt	PARK	7	21	[0, 0, 0]	n/a	FR1	0	R1342M
2762.77	1.096	2763023	WORD_OFF	n/a	n/a	PARK	7	21	[0, 0, 0]	n/a	FR1	0	R1342M
2763.866	1.638	2764119	WORD	n/a	wordpools/wordpool_EN.txt	MOUTH	8	21	[0, 0, 0]	n/a	FR1	0	R1342M
2765.504	0.841	2765756	WORD_OFF	n/a	n/a	MOUTH	8	21	[0, 0, 0]	n/a	FR1	0	R1342M
2766.345	1.625	2766597	WORD	n/a	wordpools/wordpool_EN.txt	KEY	9	21	[0, 0, 0]	n/a	FR1	0	R1342M
2767.97	0.845	2768222	WORD_OFF	n/a	n/a	KEY	9	21	[0, 0, 0]	n/a	FR1	0	R1342M
2768.815	1.623	2769067	WORD	n/a	wordpools/wordpool_EN.txt	HAND	10	21	[0, 0, 0]	n/a	FR1	0	R1342M
2770.438	1.006	2770690	WORD_OFF	n/a	n/a	HAND	10	21	[0, 0, 0]	n/a	FR1	0	R1342M
2771.444	1.627	2771696	WORD	n/a	wordpools/wordpool_EN.txt	SKY	11	21	[0, 0, 0]	n/a	FR1	0	R1342M
2773.071	0.757	2773323	WORD_OFF	n/a	n/a	SKY	11	21	[0, 0, 0]	n/a	FR1	0	R1342M
2773.828	1.628	2774080	WORD	n/a	wordpools/wordpool_EN.txt	WAVE	12	21	[0, 0, 0]	n/a	FR1	0	R1342M
2775.456	0.0	2775708	ENCODING_END	n/a	n/a	n/a	-999	21	[0, 0, 0]	n/a	FR1	0	R1342M
2775.456	0.001	2775708	WORD_OFF	n/a	n/a	WAVE	12	21	[0, 0, 0]	n/a	FR1	0	R1342M
2775.457	0.0	2775709	DISTRACT_START	n/a	n/a	n/a	-999	21	[0, 0, 0]	n/a	FR1	0	R1342M
2775.457	0.015	2775709	START	n/a	n/a	n/a	-999	21	[-999, -999, -999]	n/a	FR1	0	R1342M
2775.472	6.785	2775724	PROB	6.785	n/a	n/a	-999	21	[4, 8, 4]	16	FR1	0	R1342M
2782.257	6.717	2782509	PROB	6.717	n/a	n/a	-999	21	[3, 4, 9]	16	FR1	0	R1342M
2788.974	7.551	2789225	PROB	7.551	n/a	n/a	-999	21	[7, 8, 8]	23	FR1	0	R1342M
2796.525	0.018	2796776	STOP	n/a	n/a	n/a	-999	21	[-999, -999, -999]	n/a	FR1	0	R1342M
2796.543	0.513	2796794	DISTRACT_END	n/a	n/a	n/a	-999	21	[0, 0, 0]	n/a	FR1	0	R1342M
2797.056	1.554	2797307	RETRIEVAL_ORIENT_START	n/a	n/a	n/a	-999	21	[0, 0, 0]	n/a	FR1	0	R1342M
2798.61	0.001	2798861	RETRIEVAL_ORIENT_END	n/a	n/a	n/a	-999	21	[0, 0, 0]	n/a	FR1	0	R1342M
2798.611	6.447	2798862	REC_START	n/a	n/a	n/a	-999	21	[0, 0, 0]	n/a	FR1	0	R1342M
2805.058	2.77	2805308	REC_WORD	2.77	n/a	ROSE	1	21	[0, 0, 0]	n/a	FR1	0	R1342M
2807.828	5.298	2808078	REC_WORD	5.298	n/a	MOUSE	2	21	[0, 0, 0]	n/a	FR1	0	R1342M
2813.126	5.385	2813376	REC_WORD	5.385	n/a	CALF	4	21	[0, 0, 0]	n/a	FR1	0	R1342M
2818.511	10.113	2818761	REC_WORD	10.113	n/a	MOUTH	8	21	[0, 0, 0]	n/a	FR1	0	R1342M
2828.624	0.0	2828873	REC_END	n/a	n/a	n/a	-999	21	[0, 0, 0]	n/a	FR1	0	R1342M
2828.624	0.017	2828873	TRIAL_END	n/a	n/a	n/a	-999	21	[0, 0, 0]	n/a	FR1	0	R1342M
2828.641	0.0	2828890	TRIAL_START	n/a	n/a	n/a	-999	22	[0, 0, 0]	n/a	FR1	0	R1342M
2828.641	0.0	2828890	TRIAL	n/a	n/a	n/a	-999	22	[0, 0, 0]	n/a	FR1	0	R1342M
2828.641	9.694	2828890	WAITING_START	n/a	n/a	n/a	-999	22	[0, 0, 0]	n/a	FR1	0	R1342M
2838.335	0.0	2838584	WAITING_END	n/a	n/a	n/a	-999	22	[0, 0, 0]	n/a	FR1	0	R1342M
2838.335	10.429	2838584	COUNTDOWN_START	n/a	n/a	n/a	-999	22	[0, 0, 0]	n/a	FR1	0	R1342M
2848.764	0.0	2849012	ORIENT_START	n/a	n/a	n/a	-999	22	[0, 0, 0]	n/a	FR1	0	R1342M
2848.764	1.139	2849012	COUNTDOWN_END	n/a	n/a	n/a	-999	22	[0, 0, 0]	n/a	FR1	0	R1342M
2849.903	0.0	2850151	ORIENT_END	n/a	n/a	n/a	-999	22	[0, 0, 0]	n/a	FR1	0	R1342M
2849.903	0.975	2850151	ENCODING_START	n/a	n/a	n/a	-999	22	[0, 0, 0]	n/a	FR1	0	R1342M
2850.878	1.626	2851126	WORD	n/a	wordpools/wordpool_EN.txt	WORM	1	22	[0, 0, 0]	n/a	FR1	0	R1342M
2852.504	0.837	2852752	WORD_OFF	n/a	n/a	WORM	1	22	[0, 0, 0]	n/a	FR1	0	R1342M
2853.341	1.629	2853589	WORD	n/a	wordpools/wordpool_EN.txt	CAKE	2	22	[0, 0, 0]	n/a	FR1	0	R1342M
2854.97	1.121	2855218	WORD_OFF	n/a	n/a	CAKE	2	22	[0, 0, 0]	n/a	FR1	0	R1342M
2856.091	1.631	2856339	WORD	n/a	wordpools/wordpool_EN.txt	TAIL	3	22	[0, 0, 0]	n/a	FR1	0	R1342M
2857.722	0.768	2857970	WORD_OFF	n/a	n/a	TAIL	3	22	[0, 0, 0]	n/a	FR1	0	R1342M
2858.49	1.631	2858738	WORD	n/a	wordpools/wordpool_EN.txt	APE	4	22	[0, 0, 0]	n/a	FR1	0	R1342M
2860.121	0.81	2860369	WORD_OFF	n/a	n/a	APE	4	22	[0, 0, 0]	n/a	FR1	0	R1342M
2860.931	1.625	2861179	WORD	n/a	wordpools/wordpool_EN.txt	BLOOM	5	22	[0, 0, 0]	n/a	FR1	0	R1342M
2862.556	0.883	2862804	WORD_OFF	n/a	n/a	BLOOM	5	22	[0, 0, 0]	n/a	FR1	0	R1342M
2863.439	1.633	2863687	WORD	n/a	wordpools/wordpool_EN.txt	FUDGE	6	22	[0, 0, 0]	n/a	FR1	0	R1342M
2865.072	0.861	2865319	WORD_OFF	n/a	n/a	FUDGE	6	22	[0, 0, 0]	n/a	FR1	0	R1342M
2865.933	1.624	2866180	WORD	n/a	wordpools/wordpool_EN.txt	VINE	7	22	[0, 0, 0]	n/a	FR1	0	R1342M
2867.557	0.869	2867804	WORD_OFF	n/a	n/a	VINE	7	22	[0, 0, 0]	n/a	FR1	0	R1342M
2868.426	1.631	2868673	WORD	n/a	wordpools/wordpool_EN.txt	LEAF	8	22	[0, 0, 0]	n/a	FR1	0	R1342M
2870.057	0.857	2870304	WORD_OFF	n/a	n/a	LEAF	8	22	[0, 0, 0]	n/a	FR1	0	R1342M
2870.914	1.627	2871161	WORD	n/a	wordpools/wordpool_EN.txt	SHRIMP	9	22	[0, 0, 0]	n/a	FR1	0	R1342M
2872.541	1.117	2872788	WORD_OFF	n/a	n/a	SHRIMP	9	22	[0, 0, 0]	n/a	FR1	0	R1342M
2873.658	1.634	2873905	WORD	n/a	wordpools/wordpool_EN.txt	SHIELD	10	22	[0, 0, 0]	n/a	FR1	0	R1342M
2875.292	0.839	2875539	WORD_OFF	n/a	n/a	SHIELD	10	22	[0, 0, 0]	n/a	FR1	0	R1342M
2876.131	1.628	2876378	WORD	n/a	wordpools/wordpool_EN.txt	OAR	11	22	[0, 0, 0]	n/a	FR1	0	R1342M
2877.759	0.766	2878006	WORD_OFF	n/a	n/a	OAR	11	22	[0, 0, 0]	n/a	FR1	0	R1342M
2878.525	1.634	2878772	WORD	n/a	wordpools/wordpool_EN.txt	BEAN	12	22	[0, 0, 0]	n/a	FR1	0	R1342M
2880.159	0.0	2880406	DISTRACT_START	n/a	n/a	n/a	-999	22	[0, 0, 0]	n/a	FR1	0	R1342M
2880.159	0.0	2880406	ENCODING_END	n/a	n/a	n/a	-999	22	[0, 0, 0]	n/a	FR1	0	R1342M
2880.159	0.0	2880406	WORD_OFF	n/a	n/a	BEAN	12	22	[0, 0, 0]	n/a	FR1	0	R1342M
2880.159	0.016	2880406	START	n/a	n/a	n/a	-999	22	[-999, -999, -999]	n/a	FR1	0	R1342M
2880.175	6.935	2880422	PROB	6.935	n/a	n/a	-999	22	[2, 3, 8]	13	FR1	0	R1342M
2887.11	4.151	2887356	PROB	4.151	n/a	n/a	-999	22	[3, 1, 9]	13	FR1	0	R1342M
2891.261	4.65	2891507	PROB	4.65	n/a	n/a	-999	22	[6, 4, 4]	14	FR1	0	R1342M
2895.911	5.254	2896157	PROB	5.254	n/a	n/a	-999	22	[7, 9, 4]	20	FR1	0	R1342M
2901.165	0.014	2901411	STOP	n/a	n/a	n/a	-999	22	[-999, -999, -999]	n/a	FR1	0	R1342M
2901.179	0.544	2901425	DISTRACT_END	n/a	n/a	n/a	-999	22	[0, 0, 0]	n/a	FR1	0	R1342M
2901.723	1.708	2901969	RETRIEVAL_ORIENT_START	n/a	n/a	n/a	-999	22	[0, 0, 0]	n/a	FR1	0	R1342M
2903.431	0.0	2903677	RETRIEVAL_ORIENT_END	n/a	n/a	n/a	-999	22	[0, 0, 0]	n/a	FR1	0	R1342M
2903.431	3.784	2903677	REC_START	n/a	n/a	n/a	-999	22	[0, 0, 0]	n/a	FR1	0	R1342M
2907.215	3.456	2907460	REC_WORD	3.456	n/a	WORM	1	22	[0, 0, 0]	n/a	FR1	0	R1342M
2910.671	4.241	2910916	REC_WORD	4.241	n/a	CAKE	2	22	[0, 0, 0]	n/a	FR1	0	R1342M
2914.912	6.013	2915157	REC_WORD	6.013	n/a	TAIL	3	22	[0, 0, 0]	n/a	FR1	0	R1342M
2920.925	3.254	2921170	REC_WORD	3.254	n/a	APE	4	22	[0, 0, 0]	n/a	FR1	0	R1342M
2924.179	9.266	2924423	REC_WORD	9.266	n/a	SHIELD	10	22	[0, 0, 0]	n/a	FR1	0	R1342M
2933.445	0.0	2933689	REC_END	n/a	n/a	n/a	-999	22	[0, 0, 0]	n/a	FR1	0	R1342M
2933.445	0.015	2933689	TRIAL_END	n/a	n/a	n/a	-999	22	[0, 0, 0]	n/a	FR1	0	R1342M
2933.46	0.0	2933704	TRIAL_START	n/a	n/a	n/a	-999	23	[0, 0, 0]	n/a	FR1	0	R1342M
2933.46	0.0	2933704	TRIAL	n/a	n/a	n/a	-999	23	[0, 0, 0]	n/a	FR1	0	R1342M
2933.46	11.812	2933704	WAITING_START	n/a	n/a	n/a	-999	23	[0, 0, 0]	n/a	FR1	0	R1342M
2945.272	0.001	2945515	WAITING_END	n/a	n/a	n/a	-999	23	[0, 0, 0]	n/a	FR1	0	R1342M
2945.273	10.429	2945516	COUNTDOWN_START	n/a	n/a	n/a	-999	23	[0, 0, 0]	n/a	FR1	0	R1342M
2955.702	0.001	2955945	COUNTDOWN_END	n/a	n/a	n/a	-999	23	[0, 0, 0]	n/a	FR1	0	R1342M
2955.703	1.155	2955946	ORIENT_START	n/a	n/a	n/a	-999	23	[0, 0, 0]	n/a	FR1	0	R1342M
2956.858	0.0	2957101	ORIENT_END	n/a	n/a	n/a	-999	23	[0, 0, 0]	n/a	FR1	0	R1342M
2956.858	0.891	2957101	ENCODING_START	n/a	n/a	n/a	-999	23	[0, 0, 0]	n/a	FR1	0	R1342M
2957.749	1.626	2957992	WORD	n/a	wordpools/wordpool_EN.txt	PALM	1	23	[0, 0, 0]	n/a	FR1	0	R1342M
2959.375	1.055	2959618	WORD_OFF	n/a	n/a	PALM	1	23	[0, 0, 0]	n/a	FR1	0	R1342M
2960.43	1.628	2960673	WORD	n/a	wordpools/wordpool_EN.txt	CANE	2	23	[0, 0, 0]	n/a	FR1	0	R1342M
2962.058	1.09	2962301	WORD_OFF	n/a	n/a	CANE	2	23	[0, 0, 0]	n/a	FR1	0	R1342M
2963.148	1.628	2963390	WORD	n/a	wordpools/wordpool_EN.txt	CLOTH	3	23	[0, 0, 0]	n/a	FR1	0	R1342M
2964.776	1.077	2965018	WORD_OFF	n/a	n/a	CLOTH	3	23	[0, 0, 0]	n/a	FR1	0	R1342M
2965.853	1.623	2966095	WORD	n/a	wordpools/wordpool_EN.txt	DOOR	4	23	[0, 0, 0]	n/a	FR1	0	R1342M
2967.476	0.851	2967718	WORD_OFF	n/a	n/a	DOOR	4	23	[0, 0, 0]	n/a	FR1	0	R1342M
2968.327	1.632	2968569	WORD	n/a	wordpools/wordpool_EN.txt	PIN	5	23	[0, 0, 0]	n/a	FR1	0	R1342M
2969.959	0.839	2970201	WORD_OFF	n/a	n/a	PIN	5	23	[0, 0, 0]	n/a	FR1	0	R1342M
2970.798	1.629	2971040	WORD	n/a	wordpools/wordpool_EN.txt	PEA	6	23	[0, 0, 0]	n/a	FR1	0	R1342M
2972.427	1.128	2972669	WORD_OFF	n/a	n/a	PEA	6	23	[0, 0, 0]	n/a	FR1	0	R1342M
2973.555	1.622	2973797	WORD	n/a	wordpools/wordpool_EN.txt	SEAT	7	23	[0, 0, 0]	n/a	FR1	0	R1342M
2975.177	0.931	2975419	WORD_OFF	n/a	n/a	SEAT	7	23	[0, 0, 0]	n/a	FR1	0	R1342M
2976.108	1.637	2976350	WORD	n/a	wordpools/wordpool_EN.txt	DOLL	8	23	[0, 0, 0]	n/a	FR1	0	R1342M
2977.745	1.026	2977987	WORD_OFF	n/a	n/a	DOLL	8	23	[0, 0, 0]	n/a	FR1	0	R1342M
2978.771	1.625	2979013	WORD	n/a	wordpools/wordpool_EN.txt	FARM	9	23	[0, 0, 0]	n/a	FR1	0	R1342M
2980.396	1.101	2980638	WORD_OFF	n/a	n/a	FARM	9	23	[0, 0, 0]	n/a	FR1	0	R1342M
2981.497	1.632	2981739	WORD	n/a	wordpools/wordpool_EN.txt	SHIP	10	23	[0, 0, 0]	n/a	FR1	0	R1342M
2983.129	0.934	2983370	WORD_OFF	n/a	n/a	SHIP	10	23	[0, 0, 0]	n/a	FR1	0	R1342M
2984.063	1.617	2984304	WORD	n/a	wordpools/wordpool_EN.txt	LAND	11	23	[0, 0, 0]	n/a	FR1	0	R1342M
2985.68	0.784	2985921	WORD_OFF	n/a	n/a	LAND	11	23	[0, 0, 0]	n/a	FR1	0	R1342M
2986.464	1.632	2986705	WORD	n/a	wordpools/wordpool_EN.txt	STRING	12	23	[0, 0, 0]	n/a	FR1	0	R1342M
2988.096	0.0	2988337	ENCODING_END	n/a	n/a	n/a	-999	23	[0, 0, 0]	n/a	FR1	0	R1342M
2988.096	0.001	2988337	WORD_OFF	n/a	n/a	STRING	12	23	[0, 0, 0]	n/a	FR1	0	R1342M
2988.097	0.0	2988338	DISTRACT_START	n/a	n/a	n/a	-999	23	[0, 0, 0]	n/a	FR1	0	R1342M
2988.097	0.016	2988338	START	n/a	n/a	n/a	-999	23	[-999, -999, -999]	n/a	FR1	0	R1342M
2988.113	5.135	2988354	PROB	5.135	n/a	n/a	-999	23	[1, 1, 7]	9	FR1	0	R1342M
2993.248	6.985	2993489	PROB	6.985	n/a	n/a	-999	23	[4, 5, 7]	16	FR1	0	R1342M
3000.233	5.284	3000474	PROB	5.284	n/a	n/a	-999	23	[2, 1, 7]	10	FR1	0	R1342M
3005.517	6.89	3005757	PROB	6.89	n/a	n/a	-999	23	[1, 6, 8]	15	FR1	0	R1342M
3012.407	0.011	3012647	STOP	n/a	n/a	n/a	-999	23	[-999, -999, -999]	n/a	FR1	0	R1342M
3012.418	0.609	3012658	DISTRACT_END	n/a	n/a	n/a	-999	23	[0, 0, 0]	n/a	FR1	0	R1342M
3013.027	1.658	3013267	RETRIEVAL_ORIENT_START	n/a	n/a	n/a	-999	23	[0, 0, 0]	n/a	FR1	0	R1342M
3014.685	0.001	3014925	RETRIEVAL_ORIENT_END	n/a	n/a	n/a	-999	23	[0, 0, 0]	n/a	FR1	0	R1342M
3014.686	4.861	3014926	REC_START	n/a	n/a	n/a	-999	23	[0, 0, 0]	n/a	FR1	0	R1342M
3019.547	3.645	3019787	REC_WORD	3.645	n/a	PALM	1	23	[0, 0, 0]	n/a	FR1	0	R1342M
3023.192	21.507	3023431	REC_WORD	21.507	n/a	CLOTH	3	23	[0, 0, 0]	n/a	FR1	0	R1342M
3044.699	0.0	3044937	TRIAL_END	n/a	n/a	n/a	-999	23	[0, 0, 0]	n/a	FR1	0	R1342M
3044.699	0.014	3044937	REC_END	n/a	n/a	n/a	-999	23	[0, 0, 0]	n/a	FR1	0	R1342M
3044.713	0.0	3044951	TRIAL_START	n/a	n/a	n/a	-999	24	[0, 0, 0]	n/a	FR1	0	R1342M
3044.713	0.001	3044951	TRIAL	n/a	n/a	n/a	-999	24	[0, 0, 0]	n/a	FR1	0	R1342M
3044.714	6.244	3044952	WAITING_START	n/a	n/a	n/a	-999	24	[0, 0, 0]	n/a	FR1	0	R1342M
