onset	duration	sample	trial_type	response_time	stim_file	item_name	serialpos	list	test	answer	experiment	session	subject
0.0	40.267	80860	SESS_START	n/a	n/a	n/a	-999	-999	[0, 0, 0]	n/a	FR1	0	R1104D
40.267	10.428	145283	COUNTDOWN_START	n/a	n/a	n/a	-999	-999	[0, 0, 0]	n/a	FR1	0	R1104D
50.695	3.792	161967	COUNTDOWN_END	n/a	n/a	n/a	-999	-999	[0, 0, 0]	n/a	FR1	0	R1104D
54.487	2.434	168034	PRACTICE_WORD	n/a	n/a	CHEST	1	-1	[0, 0, 0]	n/a	FR1	0	R1104D
56.921	2.617	171928	PRACTICE_WORD	n/a	n/a	WATCH	2	-1	[0, 0, 0]	n/a	FR1	0	R1104D
59.538	2.451	176115	PRACTICE_WORD	n/a	n/a	COTTON	3	-1	[0, 0, 0]	n/a	FR1	0	R1104D
61.989	2.484	180036	PRACTICE_WORD	n/a	n/a	FLOOD	4	-1	[0, 0, 0]	n/a	FR1	0	R1104D
64.473	2.582	184010	PRACTICE_WORD	n/a	n/a	IRON	5	-1	[0, 0, 0]	n/a	FR1	0	R1104D
67.055	2.469	188141	PRACTICE_WORD	n/a	n/a	RHINO	6	-1	[0, 0, 0]	n/a	FR1	0	R1104D
69.524	2.532	192092	PRACTICE_WORD	n/a	n/a	TONGUE	7	-1	[0, 0, 0]	n/a	FR1	0	R1104D
72.056	2.535	196143	PRACTICE_WORD	n/a	n/a	WAGON	8	-1	[0, 0, 0]	n/a	FR1	0	R1104D
74.591	2.583	200198	PRACTICE_WORD	n/a	n/a	ATTIC	9	-1	[0, 0, 0]	n/a	FR1	0	R1104D
77.174	2.435	204331	PRACTICE_WORD	n/a	n/a	CAMEL	10	-1	[0, 0, 0]	n/a	FR1	0	R1104D
79.609	2.583	208227	PRACTICE_WORD	n/a	n/a	RING	11	-1	[0, 0, 0]	n/a	FR1	0	R1104D
82.192	1.618	212359	PRACTICE_WORD	n/a	n/a	BEAM	12	-1	[0, 0, 0]	n/a	FR1	0	R1104D
83.81	0.0	214948	PRACTICE_DISTRACT_START	n/a	n/a	n/a	-999	-1	[0, 0, 0]	n/a	FR1	0	R1104D
83.81	0.016	214948	START	n/a	n/a	n/a	-999	-1	[-999, -999, -999]	n/a	FR1	0	R1104D
83.826	6.417	214973	PROB	6.417	n/a	n/a	-999	-1	[3, 6, 5]	14	FR1	0	R1104D
90.243	6.735	225240	PROB	6.735	n/a	n/a	-999	-1	[4, 9, 8]	21	FR1	0	R1104D
96.978	7.147	236015	PROB	7.147	n/a	n/a	-999	-1	[8, 9, 9]	26	FR1	0	R1104D
104.125	0.004	247450	STOP	n/a	n/a	n/a	-999	-1	[-999, -999, -999]	n/a	FR1	0	R1104D
104.129	0.603	247456	PRACTICE_DISTRACT_END	n/a	n/a	n/a	-999	-1	[0, 0, 0]	n/a	FR1	0	R1104D
104.732	30.514	248421	PRACTICE_REC_START	n/a	n/a	n/a	-999	-1	[0, 0, 0]	n/a	FR1	0	R1104D
135.246	19.009	297240	PRACTICE_REC_END	n/a	n/a	n/a	-999	-1	[0, 0, 0]	n/a	FR1	0	R1104D
154.255	0.0	327653	TRIAL	n/a	n/a	n/a	-999	1	[0, 0, 0]	n/a	FR1	0	R1104D
154.255	10.428	327653	COUNTDOWN_START	n/a	n/a	n/a	-999	1	[0, 0, 0]	n/a	FR1	0	R1104D
164.683	0.008	344336	COUNTDOWN_END	n/a	n/a	n/a	-999	1	[0, 0, 0]	n/a	FR1	0	R1104D
164.691	2.449	344349	ORIENT	n/a	n/a	n/a	-999	1	[0, 0, 0]	n/a	FR1	0	R1104D
167.14	2.519	348267	WORD	n/a	wordpools/wordpool_EN.txt	HOUSE	1	1	[0, 0, 0]	n/a	FR1	0	R1104D
169.659	2.582	352297	WORD	n/a	wordpools/wordpool_EN.txt	TRUCK	2	1	[0, 0, 0]	n/a	FR1	0	R1104D
172.241	2.385	356428	WORD	n/a	wordpools/wordpool_EN.txt	FARM	3	1	[0, 0, 0]	n/a	FR1	0	R1104D
174.626	2.616	360244	WORD	n/a	wordpools/wordpool_EN.txt	BLUSH	4	1	[0, 0, 0]	n/a	FR1	0	R1104D
177.242	2.602	364429	WORD	n/a	wordpools/wordpool_EN.txt	SMILE	5	1	[0, 0, 0]	n/a	FR1	0	R1104D
179.844	2.533	368592	WORD	n/a	wordpools/wordpool_EN.txt	SPRING	6	1	[0, 0, 0]	n/a	FR1	0	R1104D
182.377	2.501	372645	WORD	n/a	wordpools/wordpool_EN.txt	VINE	7	1	[0, 0, 0]	n/a	FR1	0	R1104D
184.878	2.433	376646	WORD	n/a	wordpools/wordpool_EN.txt	LIP	8	1	[0, 0, 0]	n/a	FR1	0	R1104D
187.311	2.551	380539	WORD	n/a	wordpools/wordpool_EN.txt	LAWN	9	1	[0, 0, 0]	n/a	FR1	0	R1104D
189.862	2.567	384620	WORD	n/a	wordpools/wordpool_EN.txt	STICK	10	1	[0, 0, 0]	n/a	FR1	0	R1104D
192.429	2.534	388727	WORD	n/a	wordpools/wordpool_EN.txt	TREE	11	1	[0, 0, 0]	n/a	FR1	0	R1104D
194.963	1.617	392781	WORD	n/a	wordpools/wordpool_EN.txt	TENT	12	1	[0, 0, 0]	n/a	FR1	0	R1104D
196.58	0.001	395368	DISTRACT_START	n/a	n/a	n/a	-999	1	[0, 0, 0]	n/a	FR1	0	R1104D
196.581	0.016	395370	START	n/a	n/a	n/a	-999	1	[-999, -999, -999]	n/a	FR1	0	R1104D
196.597	7.368	395395	PROB	7.368	n/a	n/a	-999	1	[5, 3, 6]	14	FR1	0	R1104D
203.965	4.283	407183	PROB	4.283	n/a	n/a	-999	1	[4, 6, 5]	15	FR1	0	R1104D
208.248	4.552	414036	PROB	4.552	n/a	n/a	-999	1	[3, 5, 6]	14	FR1	0	R1104D
212.8	3.846	421319	PROB	3.846	n/a	n/a	-999	1	[4, 6, 9]	19	FR1	0	R1104D
216.646	0.004	427472	STOP	n/a	n/a	n/a	-999	1	[-999, -999, -999]	n/a	FR1	0	R1104D
216.65	1.189	427478	DISTRACT_END	n/a	n/a	n/a	-999	1	[0, 0, 0]	n/a	FR1	0	R1104D
217.839	2.753	429380	REC_START	n/a	n/a	n/a	-999	1	[0, 0, 0]	n/a	FR1	0	R1104D
220.592	0.935	433785	REC_WORD	0.935	n/a	HOUSE	1	1	[0, 0, 0]	n/a	FR1	0	R1104D
221.527	0.647	435281	REC_WORD	0.647	n/a	TRUCK	2	1	[0, 0, 0]	n/a	FR1	0	R1104D
222.174	0.965	436316	REC_WORD	0.965	n/a	FARM	3	1	[0, 0, 0]	n/a	FR1	0	R1104D
223.139	1.005	437860	REC_WORD	1.005	n/a	BLUSH	4	1	[0, 0, 0]	n/a	FR1	0	R1104D
224.144	6.214	439468	REC_WORD	6.214	n/a	SMILE	5	1	[0, 0, 0]	n/a	FR1	0	R1104D
230.358	17.489	449410	REC_WORD	17.489	n/a	TREE	11	1	[0, 0, 0]	n/a	FR1	0	R1104D
247.847	2.51	477390	REC_END	n/a	n/a	n/a	-999	1	[0, 0, 0]	n/a	FR1	0	R1104D
250.357	0.0	481406	COUNTDOWN_START	n/a	n/a	n/a	-999	2	[0, 0, 0]	n/a	FR1	0	R1104D
250.357	10.428	481406	TRIAL	n/a	n/a	n/a	-999	2	[0, 0, 0]	n/a	FR1	0	R1104D
260.785	0.007	498090	COUNTDOWN_END	n/a	n/a	n/a	-999	2	[0, 0, 0]	n/a	FR1	0	R1104D
260.792	2.416	498101	ORIENT	n/a	n/a	n/a	-999	2	[0, 0, 0]	n/a	FR1	0	R1104D
263.208	2.385	501966	WORD	n/a	wordpools/wordpool_EN.txt	CROW	1	2	[0, 0, 0]	n/a	FR1	0	R1104D
265.593	2.633	505782	WORD	n/a	wordpools/wordpool_EN.txt	CLOWN	2	2	[0, 0, 0]	n/a	FR1	0	R1104D
268.226	2.601	509994	WORD	n/a	wordpools/wordpool_EN.txt	SCHOOL	3	2	[0, 0, 0]	n/a	FR1	0	R1104D
270.827	2.45	514156	WORD	n/a	wordpools/wordpool_EN.txt	PRINCE	4	2	[0, 0, 0]	n/a	FR1	0	R1104D
273.277	2.401	518076	WORD	n/a	wordpools/wordpool_EN.txt	JUICE	5	2	[0, 0, 0]	n/a	FR1	0	R1104D
275.678	2.416	521917	WORD	n/a	wordpools/wordpool_EN.txt	BOARD	6	2	[0, 0, 0]	n/a	FR1	0	R1104D
278.094	2.485	525782	WORD	n/a	wordpools/wordpool_EN.txt	WING	7	2	[0, 0, 0]	n/a	FR1	0	R1104D
280.579	2.549	529758	WORD	n/a	wordpools/wordpool_EN.txt	DOLL	8	2	[0, 0, 0]	n/a	FR1	0	R1104D
283.128	2.602	533836	WORD	n/a	wordpools/wordpool_EN.txt	BRANCH	9	2	[0, 0, 0]	n/a	FR1	0	R1104D
285.73	2.566	537999	WORD	n/a	wordpools/wordpool_EN.txt	HORSE	10	2	[0, 0, 0]	n/a	FR1	0	R1104D
288.296	2.601	542104	WORD	n/a	wordpools/wordpool_EN.txt	BEAR	11	2	[0, 0, 0]	n/a	FR1	0	R1104D
290.897	1.617	546266	WORD	n/a	wordpools/wordpool_EN.txt	KITE	12	2	[0, 0, 0]	n/a	FR1	0	R1104D
292.514	0.001	548853	DISTRACT_START	n/a	n/a	n/a	-999	2	[0, 0, 0]	n/a	FR1	0	R1104D
292.515	0.016	548854	START	n/a	n/a	n/a	-999	2	[-999, -999, -999]	n/a	FR1	0	R1104D
292.531	4.667	548880	PROB	4.667	n/a	n/a	-999	2	[9, 6, 1]	16	FR1	0	R1104D
297.198	2.768	556347	PROB	2.768	n/a	n/a	-999	2	[2, 8, 9]	18	FR1	0	R1104D
299.966	6.267	560775	PROB	6.267	n/a	n/a	-999	2	[3, 5, 6]	14	FR1	0	R1104D
306.233	6.572	570802	PROB	6.572	n/a	n/a	-999	2	[6, 5, 9]	20	FR1	0	R1104D
312.805	0.013	581316	STOP	n/a	n/a	n/a	-999	2	[-999, -999, -999]	n/a	FR1	0	R1104D
312.818	1.217	581337	DISTRACT_END	n/a	n/a	n/a	-999	2	[0, 0, 0]	n/a	FR1	0	R1104D
314.035	3.226	583284	REC_START	n/a	n/a	n/a	-999	2	[0, 0, 0]	n/a	FR1	0	R1104D
317.261	1.165	588445	REC_WORD	1.165	n/a	CROW	1	2	[0, 0, 0]	n/a	FR1	0	R1104D
318.426	25.62	590309	REC_WORD	25.62	n/a	CLOWN	2	2	[0, 0, 0]	n/a	FR1	0	R1104D
344.046	5.028	631299	REC_END	n/a	n/a	n/a	-999	2	[0, 0, 0]	n/a	FR1	0	R1104D
349.074	0.0	639343	TRIAL	n/a	n/a	n/a	-999	3	[0, 0, 0]	n/a	FR1	0	R1104D
349.074	10.428	639343	COUNTDOWN_START	n/a	n/a	n/a	-999	3	[0, 0, 0]	n/a	FR1	0	R1104D
359.502	0.008	656027	COUNTDOWN_END	n/a	n/a	n/a	-999	3	[0, 0, 0]	n/a	FR1	0	R1104D
359.51	2.549	656040	ORIENT	n/a	n/a	n/a	-999	3	[0, 0, 0]	n/a	FR1	0	R1104D
362.059	2.502	660118	WORD	n/a	wordpools/wordpool_EN.txt	CAVE	1	3	[0, 0, 0]	n/a	FR1	0	R1104D
364.561	2.549	664121	WORD	n/a	wordpools/wordpool_EN.txt	STAIR	2	3	[0, 0, 0]	n/a	FR1	0	R1104D
367.11	2.518	668199	WORD	n/a	wordpools/wordpool_EN.txt	COUCH	3	3	[0, 0, 0]	n/a	FR1	0	R1104D
369.628	2.384	672227	WORD	n/a	wordpools/wordpool_EN.txt	DART	4	3	[0, 0, 0]	n/a	FR1	0	R1104D
372.012	2.551	676041	WORD	n/a	wordpools/wordpool_EN.txt	BED	5	3	[0, 0, 0]	n/a	FR1	0	R1104D
374.563	2.45	680123	WORD	n/a	wordpools/wordpool_EN.txt	MAZE	6	3	[0, 0, 0]	n/a	FR1	0	R1104D
377.013	2.451	684043	WORD	n/a	wordpools/wordpool_EN.txt	SNAKE	7	3	[0, 0, 0]	n/a	FR1	0	R1104D
379.464	2.483	687964	WORD	n/a	wordpools/wordpool_EN.txt	CLIFF	8	3	[0, 0, 0]	n/a	FR1	0	R1104D
381.947	2.401	691936	WORD	n/a	wordpools/wordpool_EN.txt	TOE	9	3	[0, 0, 0]	n/a	FR1	0	R1104D
384.348	2.4	695778	WORD	n/a	wordpools/wordpool_EN.txt	CHAIR	10	3	[0, 0, 0]	n/a	FR1	0	R1104D
386.748	2.5	699618	WORD	n/a	wordpools/wordpool_EN.txt	MUD	11	3	[0, 0, 0]	n/a	FR1	0	R1104D
389.248	1.618	703617	WORD	n/a	wordpools/wordpool_EN.txt	BROOM	12	3	[0, 0, 0]	n/a	FR1	0	R1104D
390.866	0.0	706206	DISTRACT_START	n/a	n/a	n/a	-999	3	[0, 0, 0]	n/a	FR1	0	R1104D
390.866	0.016	706206	START	n/a	n/a	n/a	-999	3	[-999, -999, -999]	n/a	FR1	0	R1104D
390.882	7.518	706232	PROB	7.518	n/a	n/a	-999	3	[6, 9, 6]	21	FR1	0	R1104D
398.4	3.168	718260	PROB	3.168	n/a	n/a	-999	3	[7, 6, 3]	16	FR1	0	R1104D
401.568	2.817	723328	PROB	2.817	n/a	n/a	-999	3	[1, 6, 4]	11	FR1	0	R1104D
404.385	4.534	727835	PROB	4.534	n/a	n/a	-999	3	[7, 6, 3]	16	FR1	0	R1104D
408.919	4.823	735089	PROB	4.823	n/a	n/a	-999	3	[6, 7, 7]	20	FR1	0	R1104D
413.742	0.011	742805	STOP	n/a	n/a	n/a	-999	3	[-999, -999, -999]	n/a	FR1	0	R1104D
413.753	1.118	742823	DISTRACT_END	n/a	n/a	n/a	-999	3	[0, 0, 0]	n/a	FR1	0	R1104D
414.871	2.279	744612	REC_START	n/a	n/a	n/a	-999	3	[0, 0, 0]	n/a	FR1	0	R1104D
417.15	8.435	748258	REC_WORD	8.435	n/a	MUD	11	3	[0, 0, 0]	n/a	FR1	0	R1104D
425.585	19.297	761753	REC_WORD	19.297	n/a	CAVE	1	3	[0, 0, 0]	n/a	FR1	0	R1104D
444.882	5.444	792626	REC_END	n/a	n/a	n/a	-999	3	[0, 0, 0]	n/a	FR1	0	R1104D
450.326	0.0	801336	TRIAL	n/a	n/a	n/a	-999	4	[0, 0, 0]	n/a	FR1	0	R1104D
450.326	10.428	801336	COUNTDOWN_START	n/a	n/a	n/a	-999	4	[0, 0, 0]	n/a	FR1	0	R1104D
460.754	0.008	818020	COUNTDOWN_END	n/a	n/a	n/a	-999	4	[0, 0, 0]	n/a	FR1	0	R1104D
460.762	2.549	818032	ORIENT	n/a	n/a	n/a	-999	4	[0, 0, 0]	n/a	FR1	0	R1104D
463.311	2.368	822111	WORD	n/a	wordpools/wordpool_EN.txt	ROOF	1	4	[0, 0, 0]	n/a	FR1	0	R1104D
465.679	2.416	825899	WORD	n/a	wordpools/wordpool_EN.txt	GATE	2	4	[0, 0, 0]	n/a	FR1	0	R1104D
468.095	2.469	829764	WORD	n/a	wordpools/wordpool_EN.txt	ROCK	3	4	[0, 0, 0]	n/a	FR1	0	R1104D
470.564	2.466	833715	WORD	n/a	wordpools/wordpool_EN.txt	FLAME	4	4	[0, 0, 0]	n/a	FR1	0	R1104D
473.03	2.418	837660	WORD	n/a	wordpools/wordpool_EN.txt	CLAY	5	4	[0, 0, 0]	n/a	FR1	0	R1104D
475.448	2.616	841529	WORD	n/a	wordpools/wordpool_EN.txt	BOX	6	4	[0, 0, 0]	n/a	FR1	0	R1104D
478.064	2.401	845714	WORD	n/a	wordpools/wordpool_EN.txt	HOLE	7	4	[0, 0, 0]	n/a	FR1	0	R1104D
480.465	2.418	849555	WORD	n/a	wordpools/wordpool_EN.txt	WHALE	8	4	[0, 0, 0]	n/a	FR1	0	R1104D
482.883	2.449	853424	WORD	n/a	wordpools/wordpool_EN.txt	BEAN	9	4	[0, 0, 0]	n/a	FR1	0	R1104D
485.332	2.485	857342	WORD	n/a	wordpools/wordpool_EN.txt	THREAD	10	4	[0, 0, 0]	n/a	FR1	0	R1104D
487.817	2.6	861318	WORD	n/a	wordpools/wordpool_EN.txt	FOAM	11	4	[0, 0, 0]	n/a	FR1	0	R1104D
490.417	1.616	865477	WORD	n/a	wordpools/wordpool_EN.txt	SMOKE	12	4	[0, 0, 0]	n/a	FR1	0	R1104D
492.033	0.001	868063	DISTRACT_START	n/a	n/a	n/a	-999	4	[0, 0, 0]	n/a	FR1	0	R1104D
492.034	0.016	868064	START	n/a	n/a	n/a	-999	4	[-999, -999, -999]	n/a	FR1	0	R1104D
492.05	6.984	868090	PROB	6.984	n/a	n/a	-999	4	[8, 5, 7]	20	FR1	0	R1104D
499.034	4.001	879264	PROB	4.001	n/a	n/a	-999	4	[7, 4, 4]	15	FR1	0	R1104D
503.035	6.168	885665	PROB	6.168	n/a	n/a	-999	4	[2, 7, 4]	13	FR1	0	R1104D
509.203	3.089	895533	PROB	3.089	n/a	n/a	-999	4	[3, 2, 4]	9	FR1	0	R1104D
512.292	0.012	900475	STOP	n/a	n/a	n/a	-999	4	[-999, -999, -999]	n/a	FR1	0	R1104D
512.304	1.151	900494	DISTRACT_END	n/a	n/a	n/a	-999	4	[0, 0, 0]	n/a	FR1	0	R1104D
513.455	2.003	902336	REC_START	n/a	n/a	n/a	-999	4	[0, 0, 0]	n/a	FR1	0	R1104D
515.458	0.906	905540	REC_WORD	0.906	n/a	WHALE	8	4	[0, 0, 0]	n/a	FR1	0	R1104D
516.364	3.993	906990	REC_WORD	3.993	n/a	BEAN	9	4	[0, 0, 0]	n/a	FR1	0	R1104D
520.357	13.095	913378	REC_WORD	13.095	n/a	THREAD	10	4	[0, 0, 0]	n/a	FR1	0	R1104D
533.452	7.477	934329	REC_WORD	7.477	n/a	ROOF	1	4	[0, 0, 0]	n/a	FR1	0	R1104D
540.929	2.538	946291	REC_WORD	2.538	n/a	GATE	2	4	[0, 0, 0]	n/a	FR1	0	R1104D
543.467	6.76	950352	REC_END	n/a	n/a	n/a	-999	4	[0, 0, 0]	n/a	FR1	0	R1104D
550.227	0.0	961167	COUNTDOWN_START	n/a	n/a	n/a	-999	5	[0, 0, 0]	n/a	FR1	0	R1104D
550.227	10.428	961167	TRIAL	n/a	n/a	n/a	-999	5	[0, 0, 0]	n/a	FR1	0	R1104D
560.655	0.008	977851	COUNTDOWN_END	n/a	n/a	n/a	-999	5	[0, 0, 0]	n/a	FR1	0	R1104D
560.663	2.6	977864	ORIENT	n/a	n/a	n/a	-999	5	[0, 0, 0]	n/a	FR1	0	R1104D
563.263	2.435	982024	WORD	n/a	wordpools/wordpool_EN.txt	LAKE	1	5	[0, 0, 0]	n/a	FR1	0	R1104D
565.698	2.582	985919	WORD	n/a	wordpools/wordpool_EN.txt	MOUTH	2	5	[0, 0, 0]	n/a	FR1	0	R1104D
568.28	2.435	990050	WORD	n/a	wordpools/wordpool_EN.txt	PEACH	3	5	[0, 0, 0]	n/a	FR1	0	R1104D
570.715	2.45	993946	WORD	n/a	wordpools/wordpool_EN.txt	SQUARE	4	5	[0, 0, 0]	n/a	FR1	0	R1104D
573.165	2.451	997866	WORD	n/a	wordpools/wordpool_EN.txt	BLOOM	5	5	[0, 0, 0]	n/a	FR1	0	R1104D
575.616	2.616	1001787	WORD	n/a	wordpools/wordpool_EN.txt	BIRD	6	5	[0, 0, 0]	n/a	FR1	0	R1104D
578.232	2.418	1005972	WORD	n/a	wordpools/wordpool_EN.txt	TAIL	7	5	[0, 0, 0]	n/a	FR1	0	R1104D
580.65	2.383	1009841	WORD	n/a	wordpools/wordpool_EN.txt	LAND	8	5	[0, 0, 0]	n/a	FR1	0	R1104D
583.033	2.401	1013654	WORD	n/a	wordpools/wordpool_EN.txt	FACE	9	5	[0, 0, 0]	n/a	FR1	0	R1104D
585.434	2.534	1017495	WORD	n/a	wordpools/wordpool_EN.txt	HAWK	10	5	[0, 0, 0]	n/a	FR1	0	R1104D
587.968	2.567	1021549	WORD	n/a	wordpools/wordpool_EN.txt	EEL	11	5	[0, 0, 0]	n/a	FR1	0	R1104D
590.535	1.616	1025656	WORD	n/a	wordpools/wordpool_EN.txt	SIGN	12	5	[0, 0, 0]	n/a	FR1	0	R1104D
592.151	0.001	1028241	DISTRACT_START	n/a	n/a	n/a	-999	5	[0, 0, 0]	n/a	FR1	0	R1104D
592.152	0.016	1028243	START	n/a	n/a	n/a	-999	5	[-999, -999, -999]	n/a	FR1	0	R1104D
592.168	7.419	1028269	PROB	7.419	n/a	n/a	-999	5	[7, 7, 9]	23	FR1	0	R1104D
599.587	4.118	1040138	PROB	4.118	n/a	n/a	-999	5	[7, 3, 8]	18	FR1	0	R1104D
603.705	4.967	1046727	PROB	4.967	n/a	n/a	-999	5	[4, 3, 5]	12	FR1	0	R1104D
608.672	5.364	1054673	PROB	5.364	n/a	n/a	-999	5	[6, 9, 3]	18	FR1	0	R1104D
614.036	0.019	1063255	STOP	n/a	n/a	n/a	-999	5	[-999, -999, -999]	n/a	FR1	0	R1104D
614.055	1.035	1063286	DISTRACT_END	n/a	n/a	n/a	-999	5	[0, 0, 0]	n/a	FR1	0	R1104D
615.09	1.471	1064941	REC_START	n/a	n/a	n/a	-999	5	[0, 0, 0]	n/a	FR1	0	R1104D
616.561	0.863	1067295	REC_WORD	0.863	n/a	EEL	11	5	[0, 0, 0]	n/a	FR1	0	R1104D
617.424	3.699	1068676	REC_WORD	3.699	n/a	PEACH	3	5	[0, 0, 0]	n/a	FR1	0	R1104D
621.123	0.642	1074594	REC_WORD	0.642	n/a	BLOOM	5	5	[0, 0, 0]	n/a	FR1	0	R1104D
621.765	16.821	1075621	REC_WORD	16.821	n/a	FLAME	-999	5	[0, 0, 0]	n/a	FR1	0	R1104D
638.586	6.514	1102533	REC_WORD	6.514	n/a	PHONE	-999	5	[0, 0, 0]	n/a	FR1	0	R1104D
645.1	14.147	1112954	REC_END	n/a	n/a	n/a	-999	5	[0, 0, 0]	n/a	FR1	0	R1104D
659.247	0.0	1135588	TRIAL	n/a	n/a	n/a	-999	6	[0, 0, 0]	n/a	FR1	0	R1104D
659.247	10.428	1135588	COUNTDOWN_START	n/a	n/a	n/a	-999	6	[0, 0, 0]	n/a	FR1	0	R1104D
669.675	0.008	1152272	COUNTDOWN_END	n/a	n/a	n/a	-999	6	[0, 0, 0]	n/a	FR1	0	R1104D
669.683	2.483	1152285	ORIENT	n/a	n/a	n/a	-999	6	[0, 0, 0]	n/a	FR1	0	R1104D
672.166	2.602	1156257	WORD	n/a	wordpools/wordpool_EN.txt	BRICK	1	6	[0, 0, 0]	n/a	FR1	0	R1104D
674.768	2.532	1160420	WORD	n/a	wordpools/wordpool_EN.txt	SEED	2	6	[0, 0, 0]	n/a	FR1	0	R1104D
677.3	2.385	1164471	WORD	n/a	wordpools/wordpool_EN.txt	CORN	3	6	[0, 0, 0]	n/a	FR1	0	R1104D
679.685	2.4	1168287	WORD	n/a	wordpools/wordpool_EN.txt	NET	4	6	[0, 0, 0]	n/a	FR1	0	R1104D
682.085	2.451	1172127	WORD	n/a	wordpools/wordpool_EN.txt	STEM	5	6	[0, 0, 0]	n/a	FR1	0	R1104D
684.536	2.451	1176048	WORD	n/a	wordpools/wordpool_EN.txt	HEART	6	6	[0, 0, 0]	n/a	FR1	0	R1104D
686.987	2.416	1179969	WORD	n/a	wordpools/wordpool_EN.txt	TOY	7	6	[0, 0, 0]	n/a	FR1	0	R1104D
689.403	2.601	1183835	WORD	n/a	wordpools/wordpool_EN.txt	CORD	8	6	[0, 0, 0]	n/a	FR1	0	R1104D
692.004	2.534	1187996	WORD	n/a	wordpools/wordpool_EN.txt	SHRIMP	9	6	[0, 0, 0]	n/a	FR1	0	R1104D
694.538	2.4	1192050	WORD	n/a	wordpools/wordpool_EN.txt	WOOD	10	6	[0, 0, 0]	n/a	FR1	0	R1104D
696.938	2.568	1195890	WORD	n/a	wordpools/wordpool_EN.txt	BALL	11	6	[0, 0, 0]	n/a	FR1	0	R1104D
699.506	1.615	1199998	WORD	n/a	wordpools/wordpool_EN.txt	ROOT	12	6	[0, 0, 0]	n/a	FR1	0	R1104D
701.121	0.001	1202582	DISTRACT_START	n/a	n/a	n/a	-999	6	[0, 0, 0]	n/a	FR1	0	R1104D
701.122	0.016	1202584	START	n/a	n/a	n/a	-999	6	[-999, -999, -999]	n/a	FR1	0	R1104D
701.138	13.919	1202609	PROB	13.919	n/a	n/a	-999	6	[9, 8, 4]	21	FR1	0	R1104D
715.057	5.586	1224878	PROB	5.586	n/a	n/a	-999	6	[6, 5, 1]	12	FR1	0	R1104D
720.643	7.099	1233815	PROB	7.099	n/a	n/a	-999	6	[3, 5, 6]	14	FR1	0	R1104D
727.742	0.019	1245173	STOP	n/a	n/a	n/a	-999	6	[-999, -999, -999]	n/a	FR1	0	R1104D
727.761	1.034	1245204	DISTRACT_END	n/a	n/a	n/a	-999	6	[0, 0, 0]	n/a	FR1	0	R1104D
728.795	12.716	1246858	REC_START	n/a	n/a	n/a	-999	6	[0, 0, 0]	n/a	FR1	0	R1104D
741.511	3.34	1267202	REC_WORD	3.34	n/a	SEED	2	6	[0, 0, 0]	n/a	FR1	0	R1104D
744.851	4.807	1272546	REC_WORD	4.807	n/a	CORN	3	6	[0, 0, 0]	n/a	FR1	0	R1104D
749.658	9.148	1280237	REC_WORD	9.148	n/a	ROOT	12	6	[0, 0, 0]	n/a	FR1	0	R1104D
758.806	4.527	1294872	REC_END	n/a	n/a	n/a	-999	6	[0, 0, 0]	n/a	FR1	0	R1104D
763.333	0.0	1302115	COUNTDOWN_START	n/a	n/a	n/a	-999	7	[0, 0, 0]	n/a	FR1	0	R1104D
763.333	10.428	1302115	TRIAL	n/a	n/a	n/a	-999	7	[0, 0, 0]	n/a	FR1	0	R1104D
773.761	0.008	1318799	COUNTDOWN_END	n/a	n/a	n/a	-999	7	[0, 0, 0]	n/a	FR1	0	R1104D
773.769	2.449	1318812	ORIENT	n/a	n/a	n/a	-999	7	[0, 0, 0]	n/a	FR1	0	R1104D
776.218	2.369	1322730	WORD	n/a	wordpools/wordpool_EN.txt	CAPE	1	7	[0, 0, 0]	n/a	FR1	0	R1104D
778.587	2.4	1326520	WORD	n/a	wordpools/wordpool_EN.txt	BAG	2	7	[0, 0, 0]	n/a	FR1	0	R1104D
780.987	2.4	1330360	WORD	n/a	wordpools/wordpool_EN.txt	MAT	3	7	[0, 0, 0]	n/a	FR1	0	R1104D
783.387	2.401	1334199	WORD	n/a	wordpools/wordpool_EN.txt	DOOR	4	7	[0, 0, 0]	n/a	FR1	0	R1104D
785.788	2.6	1338041	WORD	n/a	wordpools/wordpool_EN.txt	STOVE	5	7	[0, 0, 0]	n/a	FR1	0	R1104D
788.388	2.501	1342201	WORD	n/a	wordpools/wordpool_EN.txt	PURSE	6	7	[0, 0, 0]	n/a	FR1	0	R1104D
790.889	2.399	1346202	WORD	n/a	wordpools/wordpool_EN.txt	SHIRT	7	7	[0, 0, 0]	n/a	FR1	0	R1104D
793.288	2.585	1350040	WORD	n/a	wordpools/wordpool_EN.txt	BOOT	8	7	[0, 0, 0]	n/a	FR1	0	R1104D
795.873	2.584	1354176	WORD	n/a	wordpools/wordpool_EN.txt	BATH	9	7	[0, 0, 0]	n/a	FR1	0	R1104D
798.457	2.5	1358310	WORD	n/a	wordpools/wordpool_EN.txt	TEA	10	7	[0, 0, 0]	n/a	FR1	0	R1104D
800.957	2.584	1362310	WORD	n/a	wordpools/wordpool_EN.txt	PEA	11	7	[0, 0, 0]	n/a	FR1	0	R1104D
803.541	1.616	1366444	WORD	n/a	wordpools/wordpool_EN.txt	CLOTH	12	7	[0, 0, 0]	n/a	FR1	0	R1104D
805.157	0.001	1369029	DISTRACT_START	n/a	n/a	n/a	-999	7	[0, 0, 0]	n/a	FR1	0	R1104D
805.158	0.016	1369031	START	n/a	n/a	n/a	-999	7	[-999, -999, -999]	n/a	FR1	0	R1104D
805.174	5.101	1369056	PROB	5.101	n/a	n/a	-999	7	[8, 4, 7]	19	FR1	0	R1104D
810.275	4.285	1377218	PROB	4.285	n/a	n/a	-999	7	[6, 4, 6]	16	FR1	0	R1104D
814.56	5.667	1384073	PROB	5.667	n/a	n/a	-999	7	[9, 7, 4]	20	FR1	0	R1104D
820.227	3.668	1393140	PROB	3.668	n/a	n/a	-999	7	[4, 1, 8]	13	FR1	0	R1104D
823.895	7.333	1399008	PROB	7.333	n/a	n/a	-999	7	[7, 1, 3]	11	FR1	0	R1104D
831.228	0.017	1410740	STOP	n/a	n/a	n/a	-999	7	[-999, -999, -999]	n/a	FR1	0	R1104D
831.245	1.202	1410767	DISTRACT_END	n/a	n/a	n/a	-999	7	[0, 0, 0]	n/a	FR1	0	R1104D
832.447	2.328	1412690	REC_START	n/a	n/a	n/a	-999	7	[0, 0, 0]	n/a	FR1	0	R1104D
834.775	1.263	1416415	REC_WORD	1.263	n/a	TEA	10	7	[0, 0, 0]	n/a	FR1	0	R1104D
836.038	1.291	1418436	REC_WORD	1.291	n/a	PEA	11	7	[0, 0, 0]	n/a	FR1	0	R1104D
837.329	1.52	1420501	REC_WORD	1.52	n/a	PURSE	6	7	[0, 0, 0]	n/a	FR1	0	R1104D
838.849	1.07	1422933	REC_WORD	1.07	n/a	SHIRT	7	7	[0, 0, 0]	n/a	FR1	0	R1104D
839.919	22.539	1424645	REC_WORD	22.539	n/a	STOVE	5	7	[0, 0, 0]	n/a	FR1	0	R1104D
862.458	3.978	1460705	REC_END	n/a	n/a	n/a	-999	7	[0, 0, 0]	n/a	FR1	0	R1104D
866.436	0.0	1467069	TRIAL	n/a	n/a	n/a	-999	8	[0, 0, 0]	n/a	FR1	0	R1104D
866.436	10.428	1467069	COUNTDOWN_START	n/a	n/a	n/a	-999	8	[0, 0, 0]	n/a	FR1	0	R1104D
876.864	0.007	1483753	COUNTDOWN_END	n/a	n/a	n/a	-999	8	[0, 0, 0]	n/a	FR1	0	R1104D
876.871	2.567	1483764	ORIENT	n/a	n/a	n/a	-999	8	[0, 0, 0]	n/a	FR1	0	R1104D
879.438	2.517	1487871	WORD	n/a	wordpools/wordpool_EN.txt	LEG	1	8	[0, 0, 0]	n/a	FR1	0	R1104D
881.955	2.551	1491898	WORD	n/a	wordpools/wordpool_EN.txt	PIG	2	8	[0, 0, 0]	n/a	FR1	0	R1104D
884.506	2.549	1495980	WORD	n/a	wordpools/wordpool_EN.txt	RAT	3	8	[0, 0, 0]	n/a	FR1	0	R1104D
887.055	2.402	1500058	WORD	n/a	wordpools/wordpool_EN.txt	CUBE	4	8	[0, 0, 0]	n/a	FR1	0	R1104D
889.457	2.599	1503901	WORD	n/a	wordpools/wordpool_EN.txt	HILL	5	8	[0, 0, 0]	n/a	FR1	0	R1104D
892.056	2.585	1508059	WORD	n/a	wordpools/wordpool_EN.txt	LAMB	6	8	[0, 0, 0]	n/a	FR1	0	R1104D
894.641	2.4	1512194	WORD	n/a	wordpools/wordpool_EN.txt	ROAD	7	8	[0, 0, 0]	n/a	FR1	0	R1104D
897.041	2.384	1516034	WORD	n/a	wordpools/wordpool_EN.txt	FENCE	8	8	[0, 0, 0]	n/a	FR1	0	R1104D
899.425	2.567	1519848	WORD	n/a	wordpools/wordpool_EN.txt	COW	9	8	[0, 0, 0]	n/a	FR1	0	R1104D
901.992	2.584	1523955	WORD	n/a	wordpools/wordpool_EN.txt	PET	10	8	[0, 0, 0]	n/a	FR1	0	R1104D
904.576	2.516	1528089	WORD	n/a	wordpools/wordpool_EN.txt	CAT	11	8	[0, 0, 0]	n/a	FR1	0	R1104D
907.092	1.601	1532115	WORD	n/a	wordpools/wordpool_EN.txt	CALF	12	8	[0, 0, 0]	n/a	FR1	0	R1104D
908.693	0.001	1534676	DISTRACT_START	n/a	n/a	n/a	-999	8	[0, 0, 0]	n/a	FR1	0	R1104D
908.694	0.016	1534678	START	n/a	n/a	n/a	-999	8	[-999, -999, -999]	n/a	FR1	0	R1104D
908.71	6.185	1534703	PROB	6.185	n/a	n/a	-999	8	[2, 1, 5]	8	FR1	0	R1104D
914.895	3.017	1544599	PROB	3.017	n/a	n/a	-999	8	[7, 2, 5]	14	FR1	0	R1104D
917.912	2.834	1549426	PROB	2.834	n/a	n/a	-999	8	[9, 6, 5]	20	FR1	0	R1104D
920.746	5.851	1553960	PROB	5.851	n/a	n/a	-999	8	[6, 7, 9]	22	FR1	0	R1104D
926.597	4.28	1563321	PROB	4.28	n/a	n/a	-999	8	[8, 3, 4]	15	FR1	0	R1104D
930.877	0.004	1570168	STOP	n/a	n/a	n/a	-999	8	[-999, -999, -999]	n/a	FR1	0	R1104D
930.881	1.034	1570175	DISTRACT_END	n/a	n/a	n/a	-999	8	[0, 0, 0]	n/a	FR1	0	R1104D
931.915	2.436	1571829	REC_START	n/a	n/a	n/a	-999	8	[0, 0, 0]	n/a	FR1	0	R1104D
934.351	1.104	1575726	REC_WORD	1.104	n/a	PIG	2	8	[0, 0, 0]	n/a	FR1	0	R1104D
935.455	0.923	1577493	REC_WORD	0.923	n/a	LEG	1	8	[0, 0, 0]	n/a	FR1	0	R1104D
936.378	10.0	1578969	REC_WORD	10.0	n/a	CAT	11	8	[0, 0, 0]	n/a	FR1	0	R1104D
946.378	2.861	1594968	REC_WORD	2.861	n/a	COW	9	8	[0, 0, 0]	n/a	FR1	0	R1104D
949.239	12.691	1599546	REC_WORD	12.691	n/a	PET	10	8	[0, 0, 0]	n/a	FR1	0	R1104D
961.93	3.14	1619850	REC_END	n/a	n/a	n/a	-999	8	[0, 0, 0]	n/a	FR1	0	R1104D
965.07	0.0	1624874	TRIAL	n/a	n/a	n/a	-999	9	[0, 0, 0]	n/a	FR1	0	R1104D
965.07	10.428	1624874	COUNTDOWN_START	n/a	n/a	n/a	-999	9	[0, 0, 0]	n/a	FR1	0	R1104D
975.498	0.008	1641557	COUNTDOWN_END	n/a	n/a	n/a	-999	9	[0, 0, 0]	n/a	FR1	0	R1104D
975.506	2.549	1641570	ORIENT	n/a	n/a	n/a	-999	9	[0, 0, 0]	n/a	FR1	0	R1104D
978.055	2.585	1645648	WORD	n/a	wordpools/wordpool_EN.txt	CLOCK	1	9	[0, 0, 0]	n/a	FR1	0	R1104D
980.64	2.433	1649784	WORD	n/a	wordpools/wordpool_EN.txt	FORT	2	9	[0, 0, 0]	n/a	FR1	0	R1104D
983.073	2.435	1653677	WORD	n/a	wordpools/wordpool_EN.txt	PIE	3	9	[0, 0, 0]	n/a	FR1	0	R1104D
985.508	2.566	1657572	WORD	n/a	wordpools/wordpool_EN.txt	VAN	4	9	[0, 0, 0]	n/a	FR1	0	R1104D
988.074	2.418	1661678	WORD	n/a	wordpools/wordpool_EN.txt	FLEA	5	9	[0, 0, 0]	n/a	FR1	0	R1104D
990.492	2.384	1665546	WORD	n/a	wordpools/wordpool_EN.txt	SHIELD	6	9	[0, 0, 0]	n/a	FR1	0	R1104D
992.876	2.533	1669360	WORD	n/a	wordpools/wordpool_EN.txt	WEED	7	9	[0, 0, 0]	n/a	FR1	0	R1104D
995.409	2.568	1673413	WORD	n/a	wordpools/wordpool_EN.txt	CAR	8	9	[0, 0, 0]	n/a	FR1	0	R1104D
997.977	2.617	1677522	WORD	n/a	wordpools/wordpool_EN.txt	CONE	9	9	[0, 0, 0]	n/a	FR1	0	R1104D
1000.594	2.516	1681708	WORD	n/a	wordpools/wordpool_EN.txt	JAIL	10	9	[0, 0, 0]	n/a	FR1	0	R1104D
1003.11	2.385	1685734	WORD	n/a	wordpools/wordpool_EN.txt	PHONE	11	9	[0, 0, 0]	n/a	FR1	0	R1104D
1005.495	1.616	1689550	WORD	n/a	wordpools/wordpool_EN.txt	BAND	12	9	[0, 0, 0]	n/a	FR1	0	R1104D
1007.111	0.001	1692135	DISTRACT_START	n/a	n/a	n/a	-999	9	[0, 0, 0]	n/a	FR1	0	R1104D
1007.112	0.015	1692137	START	n/a	n/a	n/a	-999	9	[-999, -999, -999]	n/a	FR1	0	R1104D
1007.127	6.469	1692161	PROB	6.469	n/a	n/a	-999	9	[3, 9, 9]	21	FR1	0	R1104D
1013.596	6.185	1702510	PROB	6.185	n/a	n/a	-999	9	[4, 9, 6]	19	FR1	0	R1104D
1019.781	2.867	1712406	PROB	2.867	n/a	n/a	-999	9	[5, 2, 5]	12	FR1	0	R1104D
1022.648	4.184	1716993	PROB	4.184	n/a	n/a	-999	9	[6, 9, 7]	22	FR1	0	R1104D
1026.832	3.813	1723687	PROB	3.813	n/a	n/a	-999	9	[9, 9, 4]	22	FR1	0	R1104D
1030.645	0.004	1729787	STOP	n/a	n/a	n/a	-999	9	[-999, -999, -999]	n/a	FR1	0	R1104D
1030.649	1.068	1729793	DISTRACT_END	n/a	n/a	n/a	-999	9	[0, 0, 0]	n/a	FR1	0	R1104D
1031.717	10.69	1731502	REC_START	n/a	n/a	n/a	-999	9	[0, 0, 0]	n/a	FR1	0	R1104D
1042.407	8.848	1748605	REC_WORD	8.848	n/a	SHIELD	6	9	[0, 0, 0]	n/a	FR1	0	R1104D
1051.255	10.473	1762761	REC_WORD	10.473	n/a	PIE	3	9	[0, 0, 0]	n/a	FR1	0	R1104D
1061.728	3.961	1779517	REC_END	n/a	n/a	n/a	-999	9	[0, 0, 0]	n/a	FR1	0	R1104D
1065.689	0.0	1785854	TRIAL	n/a	n/a	n/a	-999	10	[0, 0, 0]	n/a	FR1	0	R1104D
1065.689	10.428	1785854	COUNTDOWN_START	n/a	n/a	n/a	-999	10	[0, 0, 0]	n/a	FR1	0	R1104D
1076.117	0.006	1802538	COUNTDOWN_END	n/a	n/a	n/a	-999	10	[0, 0, 0]	n/a	FR1	0	R1104D
1076.123	2.535	1802547	ORIENT	n/a	n/a	n/a	-999	10	[0, 0, 0]	n/a	FR1	0	R1104D
1078.658	2.466	1806603	WORD	n/a	wordpools/wordpool_EN.txt	CUP	1	10	[0, 0, 0]	n/a	FR1	0	R1104D
1081.124	2.418	1810548	WORD	n/a	wordpools/wordpool_EN.txt	SOUP	2	10	[0, 0, 0]	n/a	FR1	0	R1104D
1083.542	2.583	1814417	WORD	n/a	wordpools/wordpool_EN.txt	SLUSH	3	10	[0, 0, 0]	n/a	FR1	0	R1104D
1086.125	2.635	1818549	WORD	n/a	wordpools/wordpool_EN.txt	BRUSH	4	10	[0, 0, 0]	n/a	FR1	0	R1104D
1088.76	2.566	1822765	WORD	n/a	wordpools/wordpool_EN.txt	FRUIT	5	10	[0, 0, 0]	n/a	FR1	0	R1104D
1091.326	2.601	1826870	WORD	n/a	wordpools/wordpool_EN.txt	THUMB	6	10	[0, 0, 0]	n/a	FR1	0	R1104D
1093.927	2.484	1831032	WORD	n/a	wordpools/wordpool_EN.txt	SUIT	7	10	[0, 0, 0]	n/a	FR1	0	R1104D
1096.411	2.567	1835006	WORD	n/a	wordpools/wordpool_EN.txt	PLATE	8	10	[0, 0, 0]	n/a	FR1	0	R1104D
1098.978	2.601	1839113	WORD	n/a	wordpools/wordpool_EN.txt	GRAPE	9	10	[0, 0, 0]	n/a	FR1	0	R1104D
1101.579	2.384	1843274	WORD	n/a	wordpools/wordpool_EN.txt	CHEEK	10	10	[0, 0, 0]	n/a	FR1	0	R1104D
1103.963	2.517	1847088	WORD	n/a	wordpools/wordpool_EN.txt	VASE	11	10	[0, 0, 0]	n/a	FR1	0	R1104D
1106.48	1.616	1851115	WORD	n/a	wordpools/wordpool_EN.txt	NOSE	12	10	[0, 0, 0]	n/a	FR1	0	R1104D
1108.096	0.0	1853701	DISTRACT_START	n/a	n/a	n/a	-999	10	[0, 0, 0]	n/a	FR1	0	R1104D
1108.096	0.016	1853701	START	n/a	n/a	n/a	-999	10	[-999, -999, -999]	n/a	FR1	0	R1104D
1108.112	4.286	1853726	PROB	4.286	n/a	n/a	-999	10	[4, 7, 3]	14	FR1	0	R1104D
1112.398	7.883	1860583	PROB	7.883	n/a	n/a	-999	10	[9, 3, 5]	17	FR1	0	R1104D
1120.281	6.935	1873195	PROB	6.935	n/a	n/a	-999	10	[2, 7, 7]	16	FR1	0	R1104D
1127.216	3.373	1884291	PROB	3.373	n/a	n/a	-999	10	[9, 8, 1]	18	FR1	0	R1104D
1130.589	0.012	1889687	STOP	n/a	n/a	n/a	-999	10	[-999, -999, -999]	n/a	FR1	0	R1104D
1130.601	1.117	1889706	DISTRACT_END	n/a	n/a	n/a	-999	10	[0, 0, 0]	n/a	FR1	0	R1104D
1131.718	6.975	1891493	REC_START	n/a	n/a	n/a	-999	10	[0, 0, 0]	n/a	FR1	0	R1104D
1138.693	1.591	1902653	REC_WORD	1.591	n/a	VASE	11	10	[0, 0, 0]	n/a	FR1	0	R1104D
1140.284	0.74	1905198	REC_WORD	0.74	n/a	FRUIT	5	10	[0, 0, 0]	n/a	FR1	0	R1104D
1141.024	10.682	1906382	REC_WORD	10.682	n/a	CUP	1	10	[0, 0, 0]	n/a	FR1	0	R1104D
1151.706	10.027	1923472	REC_WORD	10.027	n/a	SLUSH	3	10	[0, 0, 0]	n/a	FR1	0	R1104D
1161.733	4.573	1939514	REC_END	n/a	n/a	n/a	-999	10	[0, 0, 0]	n/a	FR1	0	R1104D
1166.306	0.001	1946831	COUNTDOWN_START	n/a	n/a	n/a	-999	11	[0, 0, 0]	n/a	FR1	0	R1104D
1166.307	10.427	1946832	TRIAL	n/a	n/a	n/a	-999	11	[0, 0, 0]	n/a	FR1	0	R1104D
1176.734	0.009	1963514	COUNTDOWN_END	n/a	n/a	n/a	-999	11	[0, 0, 0]	n/a	FR1	0	R1104D
1176.743	2.6	1963529	ORIENT	n/a	n/a	n/a	-999	11	[0, 0, 0]	n/a	FR1	0	R1104D
1179.343	2.417	1967689	WORD	n/a	wordpools/wordpool_EN.txt	CHIN	1	11	[0, 0, 0]	n/a	FR1	0	R1104D
1181.76	2.584	1971556	WORD	n/a	wordpools/wordpool_EN.txt	STRAW	2	11	[0, 0, 0]	n/a	FR1	0	R1104D
1184.344	2.534	1975690	WORD	n/a	wordpools/wordpool_EN.txt	APE	3	11	[0, 0, 0]	n/a	FR1	0	R1104D
1186.878	2.55	1979744	WORD	n/a	wordpools/wordpool_EN.txt	CART	4	11	[0, 0, 0]	n/a	FR1	0	R1104D
1189.428	2.617	1983824	WORD	n/a	wordpools/wordpool_EN.txt	STEAK	5	11	[0, 0, 0]	n/a	FR1	0	R1104D
1192.045	2.568	1988011	WORD	n/a	wordpools/wordpool_EN.txt	VEST	6	11	[0, 0, 0]	n/a	FR1	0	R1104D
1194.613	2.532	1992119	WORD	n/a	wordpools/wordpool_EN.txt	DRESS	7	11	[0, 0, 0]	n/a	FR1	0	R1104D
1197.145	2.602	1996170	WORD	n/a	wordpools/wordpool_EN.txt	BOWL	8	11	[0, 0, 0]	n/a	FR1	0	R1104D
1199.747	2.583	2000333	WORD	n/a	wordpools/wordpool_EN.txt	BENCH	9	11	[0, 0, 0]	n/a	FR1	0	R1104D
1202.33	2.534	2004465	WORD	n/a	wordpools/wordpool_EN.txt	SWORD	10	11	[0, 0, 0]	n/a	FR1	0	R1104D
1204.864	2.45	2008520	WORD	n/a	wordpools/wordpool_EN.txt	GLOVE	11	11	[0, 0, 0]	n/a	FR1	0	R1104D
1207.314	1.618	2012439	WORD	n/a	wordpools/wordpool_EN.txt	GUARD	12	11	[0, 0, 0]	n/a	FR1	0	R1104D
1208.932	0.001	2015028	DISTRACT_START	n/a	n/a	n/a	-999	11	[0, 0, 0]	n/a	FR1	0	R1104D
1208.933	0.016	2015030	START	n/a	n/a	n/a	-999	11	[-999, -999, -999]	n/a	FR1	0	R1104D
1208.949	2.95	2015055	PROB	2.95	n/a	n/a	-999	11	[8, 6, 2]	16	FR1	0	R1104D
1211.899	2.651	2019775	PROB	2.651	n/a	n/a	-999	11	[7, 1, 3]	11	FR1	0	R1104D
1214.55	4.234	2024016	PROB	4.234	n/a	n/a	-999	11	[7, 1, 7]	15	FR1	0	R1104D
1218.784	4.3	2030790	PROB	4.3	n/a	n/a	-999	11	[3, 6, 1]	10	FR1	0	R1104D
1223.084	3.183	2037670	PROB	3.183	n/a	n/a	-999	11	[9, 1, 7]	17	FR1	0	R1104D
1226.267	6.579	2042762	PROB	6.579	n/a	n/a	-999	11	[7, 7, 9]	23	FR1	0	R1104D
1232.846	0.007	2053288	STOP	n/a	n/a	n/a	-999	11	[-999, -999, -999]	n/a	FR1	0	R1104D
1232.853	1.118	2053299	DISTRACT_END	n/a	n/a	n/a	-999	11	[0, 0, 0]	n/a	FR1	0	R1104D
1233.971	10.997	2055088	REC_START	n/a	n/a	n/a	-999	11	[0, 0, 0]	n/a	FR1	0	R1104D
1244.968	19.013	2072682	REC_WORD	19.013	n/a	APE	3	11	[0, 0, 0]	n/a	FR1	0	R1104D
1263.981	2.628	2103101	REC_END	n/a	n/a	n/a	-999	11	[0, 0, 0]	n/a	FR1	0	R1104D
1266.609	0.0	2107305	TRIAL	n/a	n/a	n/a	-999	12	[0, 0, 0]	n/a	FR1	0	R1104D
1266.609	10.428	2107305	COUNTDOWN_START	n/a	n/a	n/a	-999	12	[0, 0, 0]	n/a	FR1	0	R1104D
1277.037	0.006	2123989	COUNTDOWN_END	n/a	n/a	n/a	-999	12	[0, 0, 0]	n/a	FR1	0	R1104D
1277.043	2.435	2123999	ORIENT	n/a	n/a	n/a	-999	12	[0, 0, 0]	n/a	FR1	0	R1104D
1279.478	2.517	2127894	WORD	n/a	wordpools/wordpool_EN.txt	GOLD	1	12	[0, 0, 0]	n/a	FR1	0	R1104D
1281.995	2.467	2131921	WORD	n/a	wordpools/wordpool_EN.txt	LAMP	2	12	[0, 0, 0]	n/a	FR1	0	R1104D
1284.462	2.468	2135868	WORD	n/a	wordpools/wordpool_EN.txt	MOLE	3	12	[0, 0, 0]	n/a	FR1	0	R1104D
1286.93	2.567	2139817	WORD	n/a	wordpools/wordpool_EN.txt	CROWN	4	12	[0, 0, 0]	n/a	FR1	0	R1104D
1289.497	2.599	2143924	WORD	n/a	wordpools/wordpool_EN.txt	SHIP	5	12	[0, 0, 0]	n/a	FR1	0	R1104D
1292.096	2.468	2148082	WORD	n/a	wordpools/wordpool_EN.txt	MOTH	6	12	[0, 0, 0]	n/a	FR1	0	R1104D
1294.564	2.417	2152030	WORD	n/a	wordpools/wordpool_EN.txt	NEST	7	12	[0, 0, 0]	n/a	FR1	0	R1104D
1296.981	2.584	2155897	WORD	n/a	wordpools/wordpool_EN.txt	BEE	8	12	[0, 0, 0]	n/a	FR1	0	R1104D
1299.565	2.401	2160032	WORD	n/a	wordpools/wordpool_EN.txt	EGG	9	12	[0, 0, 0]	n/a	FR1	0	R1104D
1301.966	2.583	2163873	WORD	n/a	wordpools/wordpool_EN.txt	TOAD	10	12	[0, 0, 0]	n/a	FR1	0	R1104D
1304.549	2.483	2168005	WORD	n/a	wordpools/wordpool_EN.txt	SHELL	11	12	[0, 0, 0]	n/a	FR1	0	R1104D
1307.032	1.601	2171978	WORD	n/a	wordpools/wordpool_EN.txt	HOOF	12	12	[0, 0, 0]	n/a	FR1	0	R1104D
1308.633	0.001	2174539	DISTRACT_START	n/a	n/a	n/a	-999	12	[0, 0, 0]	n/a	FR1	0	R1104D
1308.634	0.016	2174541	START	n/a	n/a	n/a	-999	12	[-999, -999, -999]	n/a	FR1	0	R1104D
1308.65	7.268	2174567	PROB	7.268	n/a	n/a	-999	12	[3, 4, 4]	11	FR1	0	R1104D
1315.918	3.784	2186195	PROB	3.784	n/a	n/a	-999	12	[7, 3, 7]	17	FR1	0	R1104D
1319.702	6.051	2192249	PROB	6.051	n/a	n/a	-999	12	[4, 8, 4]	16	FR1	0	R1104D
1325.753	4.133	2201930	PROB	4.133	n/a	n/a	-999	12	[8, 3, 5]	16	FR1	0	R1104D
1329.886	0.018	2208542	STOP	n/a	n/a	n/a	-999	12	[-999, -999, -999]	n/a	FR1	0	R1104D
1329.904	1.101	2208571	DISTRACT_END	n/a	n/a	n/a	-999	12	[0, 0, 0]	n/a	FR1	0	R1104D
1331.005	2.171	2210332	REC_START	n/a	n/a	n/a	-999	12	[0, 0, 0]	n/a	FR1	0	R1104D
1333.176	0.651	2213806	REC_WORD	0.651	n/a	SHELL	11	12	[0, 0, 0]	n/a	FR1	0	R1104D
1333.827	0.802	2214847	REC_WORD	0.802	n/a	EGG	9	12	[0, 0, 0]	n/a	FR1	0	R1104D
1334.629	2.078	2216130	REC_WORD	2.078	n/a	TOAD	10	12	[0, 0, 0]	n/a	FR1	0	R1104D
1336.707	1.73	2219455	REC_WORD	1.73	n/a	BEE	8	12	[0, 0, 0]	n/a	FR1	0	R1104D
1338.437	22.579	2222223	REC_WORD	22.579	n/a	NEST	7	12	[0, 0, 0]	n/a	FR1	0	R1104D
1361.016	2.928	2258347	REC_END	n/a	n/a	n/a	-999	12	[0, 0, 0]	n/a	FR1	0	R1104D
1363.944	0.0	2263031	TRIAL	n/a	n/a	n/a	-999	13	[0, 0, 0]	n/a	FR1	0	R1104D
1363.944	10.428	2263031	COUNTDOWN_START	n/a	n/a	n/a	-999	13	[0, 0, 0]	n/a	FR1	0	R1104D
1374.372	0.007	2279715	COUNTDOWN_END	n/a	n/a	n/a	-999	13	[0, 0, 0]	n/a	FR1	0	R1104D
1374.379	2.517	2279726	ORIENT	n/a	n/a	n/a	-999	13	[0, 0, 0]	n/a	FR1	0	R1104D
1376.896	2.617	2283753	WORD	n/a	wordpools/wordpool_EN.txt	SHEEP	1	13	[0, 0, 0]	n/a	FR1	0	R1104D
1379.513	2.501	2287940	WORD	n/a	wordpools/wordpool_EN.txt	GOAT	2	13	[0, 0, 0]	n/a	FR1	0	R1104D
1382.014	2.417	2291942	WORD	n/a	wordpools/wordpool_EN.txt	MOOSE	3	13	[0, 0, 0]	n/a	FR1	0	R1104D
1384.431	2.5	2295808	WORD	n/a	wordpools/wordpool_EN.txt	MAIL	4	13	[0, 0, 0]	n/a	FR1	0	R1104D
1386.931	2.551	2299808	WORD	n/a	wordpools/wordpool_EN.txt	SKI	5	13	[0, 0, 0]	n/a	FR1	0	R1104D
1389.482	2.5	2303890	WORD	n/a	wordpools/wordpool_EN.txt	BREAD	6	13	[0, 0, 0]	n/a	FR1	0	R1104D
1391.982	2.467	2307889	WORD	n/a	wordpools/wordpool_EN.txt	HAT	7	13	[0, 0, 0]	n/a	FR1	0	R1104D
1394.449	2.467	2311836	WORD	n/a	wordpools/wordpool_EN.txt	BADGE	8	13	[0, 0, 0]	n/a	FR1	0	R1104D
1396.916	2.517	2315783	WORD	n/a	wordpools/wordpool_EN.txt	RICE	9	13	[0, 0, 0]	n/a	FR1	0	R1104D
1399.433	2.568	2319810	WORD	n/a	wordpools/wordpool_EN.txt	SNOW	10	13	[0, 0, 0]	n/a	FR1	0	R1104D
1402.001	2.6	2323919	WORD	n/a	wordpools/wordpool_EN.txt	FOG	11	13	[0, 0, 0]	n/a	FR1	0	R1104D
1404.601	1.616	2328078	WORD	n/a	wordpools/wordpool_EN.txt	STORE	12	13	[0, 0, 0]	n/a	FR1	0	R1104D
1406.217	0.001	2330664	DISTRACT_START	n/a	n/a	n/a	-999	13	[0, 0, 0]	n/a	FR1	0	R1104D
1406.218	0.016	2330665	START	n/a	n/a	n/a	-999	13	[-999, -999, -999]	n/a	FR1	0	R1104D
1406.234	5.084	2330691	PROB	5.084	n/a	n/a	-999	13	[3, 8, 5]	16	FR1	0	R1104D
1411.318	3.185	2338825	PROB	3.185	n/a	n/a	-999	13	[3, 9, 5]	17	FR1	0	R1104D
1414.503	6.151	2343921	PROB	6.151	n/a	n/a	-999	13	[1, 7, 2]	10	FR1	0	R1104D
1420.654	4.134	2353762	PROB	4.134	n/a	n/a	-999	13	[9, 5, 3]	17	FR1	0	R1104D
1424.788	4.881	2360376	PROB	4.881	n/a	n/a	-999	13	[1, 3, 1]	5	FR1	0	R1104D
1429.669	0.003	2368185	STOP	n/a	n/a	n/a	-999	13	[-999, -999, -999]	n/a	FR1	0	R1104D
1429.672	1.118	2368189	DISTRACT_END	n/a	n/a	n/a	-999	13	[0, 0, 0]	n/a	FR1	0	R1104D
1430.79	2.15	2369978	REC_START	n/a	n/a	n/a	-999	13	[0, 0, 0]	n/a	FR1	0	R1104D
1432.94	0.738	2373418	REC_WORD	0.738	n/a	SHEEP	1	13	[0, 0, 0]	n/a	FR1	0	R1104D
1433.678	2.387	2374599	REC_WORD	2.387	n/a	GOAT	2	13	[0, 0, 0]	n/a	FR1	0	R1104D
1436.065	4.496	2378418	REC_WORD_VV	4.496	n/a	<>	-999	13	[0, 0, 0]	n/a	FR1	0	R1104D
1440.561	12.165	2385611	REC_WORD	12.165	n/a	MOOSE	3	13	[0, 0, 0]	n/a	FR1	0	R1104D
1452.726	1.064	2405073	REC_WORD	1.064	n/a	MAIL	4	13	[0, 0, 0]	n/a	FR1	0	R1104D
1453.79	7.011	2406776	REC_WORD	7.011	n/a	BADGE	8	13	[0, 0, 0]	n/a	FR1	0	R1104D
1460.801	5.41	2417993	REC_END	n/a	n/a	n/a	-999	13	[0, 0, 0]	n/a	FR1	0	R1104D
1466.211	0.001	2426648	COUNTDOWN_START	n/a	n/a	n/a	-999	14	[0, 0, 0]	n/a	FR1	0	R1104D
1466.212	10.427	2426650	TRIAL	n/a	n/a	n/a	-999	14	[0, 0, 0]	n/a	FR1	0	R1104D
1476.639	0.009	2443332	COUNTDOWN_END	n/a	n/a	n/a	-999	14	[0, 0, 0]	n/a	FR1	0	R1104D
1476.648	2.399	2443346	ORIENT	n/a	n/a	n/a	-999	14	[0, 0, 0]	n/a	FR1	0	R1104D
1479.047	2.602	2447184	WORD	n/a	wordpools/wordpool_EN.txt	FOOT	1	14	[0, 0, 0]	n/a	FR1	0	R1104D
1481.649	2.616	2451347	WORD	n/a	wordpools/wordpool_EN.txt	MOON	2	14	[0, 0, 0]	n/a	FR1	0	R1104D
1484.265	2.601	2455533	WORD	n/a	wordpools/wordpool_EN.txt	PALM	3	14	[0, 0, 0]	n/a	FR1	0	R1104D
1486.866	2.484	2459694	WORD	n/a	wordpools/wordpool_EN.txt	STORM	4	14	[0, 0, 0]	n/a	FR1	0	R1104D
1489.35	2.467	2463668	WORD	n/a	wordpools/wordpool_EN.txt	FORK	5	14	[0, 0, 0]	n/a	FR1	0	R1104D
1491.817	2.416	2467615	WORD	n/a	wordpools/wordpool_EN.txt	SNAIL	6	14	[0, 0, 0]	n/a	FR1	0	R1104D
1494.233	2.585	2471480	WORD	n/a	wordpools/wordpool_EN.txt	OAR	7	14	[0, 0, 0]	n/a	FR1	0	R1104D
1496.818	2.516	2475616	WORD	n/a	wordpools/wordpool_EN.txt	CLOUD	8	14	[0, 0, 0]	n/a	FR1	0	R1104D
1499.334	2.368	2479642	WORD	n/a	wordpools/wordpool_EN.txt	BOAT	9	14	[0, 0, 0]	n/a	FR1	0	R1104D
1501.702	2.483	2483430	WORD	n/a	wordpools/wordpool_EN.txt	OAK	10	14	[0, 0, 0]	n/a	FR1	0	R1104D
1504.185	2.601	2487403	WORD	n/a	wordpools/wordpool_EN.txt	STOOL	11	14	[0, 0, 0]	n/a	FR1	0	R1104D
1506.786	1.617	2491564	WORD	n/a	wordpools/wordpool_EN.txt	BEACH	12	14	[0, 0, 0]	n/a	FR1	0	R1104D
1508.403	0.001	2494151	DISTRACT_START	n/a	n/a	n/a	-999	14	[0, 0, 0]	n/a	FR1	0	R1104D
1508.404	0.016	2494153	START	n/a	n/a	n/a	-999	14	[-999, -999, -999]	n/a	FR1	0	R1104D
1508.42	3.217	2494178	PROB	3.217	n/a	n/a	-999	14	[3, 2, 4]	9	FR1	0	R1104D
1511.637	5.4	2499325	PROB	5.4	n/a	n/a	-999	14	[8, 6, 5]	19	FR1	0	R1104D
1517.037	3.268	2507965	PROB	3.268	n/a	n/a	-999	14	[2, 6, 2]	10	FR1	0	R1104D
1520.305	6.001	2513193	PROB	6.001	n/a	n/a	-999	14	[5, 6, 7]	18	FR1	0	R1104D
1526.306	5.364	2522794	PROB	5.364	n/a	n/a	-999	14	[6, 8, 1]	15	FR1	0	R1104D
1531.67	0.004	2531376	STOP	n/a	n/a	n/a	-999	14	[-999, -999, -999]	n/a	FR1	0	R1104D
1531.674	1.118	2531382	DISTRACT_END	n/a	n/a	n/a	-999	14	[0, 0, 0]	n/a	FR1	0	R1104D
1532.792	1.86	2533171	REC_START	n/a	n/a	n/a	-999	14	[0, 0, 0]	n/a	FR1	0	R1104D
1534.652	0.525	2536147	REC_WORD	0.525	n/a	FOOT	1	14	[0, 0, 0]	n/a	FR1	0	R1104D
1535.177	1.626	2536987	REC_WORD	1.626	n/a	MOON	2	14	[0, 0, 0]	n/a	FR1	0	R1104D
1536.803	0.745	2539588	REC_WORD	0.745	n/a	SNAIL	6	14	[0, 0, 0]	n/a	FR1	0	R1104D
1537.548	2.751	2540780	REC_WORD	2.751	n/a	FORK	5	14	[0, 0, 0]	n/a	FR1	0	R1104D
1540.299	22.504	2545181	REC_WORD	22.504	n/a	PALM	3	14	[0, 0, 0]	n/a	FR1	0	R1104D
1562.803	4.293	2581185	REC_END	n/a	n/a	n/a	-999	14	[0, 0, 0]	n/a	FR1	0	R1104D
1567.096	0.0	2588054	COUNTDOWN_START	n/a	n/a	n/a	-999	15	[0, 0, 0]	n/a	FR1	0	R1104D
1567.096	10.428	2588054	TRIAL	n/a	n/a	n/a	-999	15	[0, 0, 0]	n/a	FR1	0	R1104D
1577.524	0.009	2604738	COUNTDOWN_END	n/a	n/a	n/a	-999	15	[0, 0, 0]	n/a	FR1	0	R1104D
1577.533	2.433	2604752	ORIENT	n/a	n/a	n/a	-999	15	[0, 0, 0]	n/a	FR1	0	R1104D
1579.966	2.418	2608644	WORD	n/a	wordpools/wordpool_EN.txt	STREET	1	15	[0, 0, 0]	n/a	FR1	0	R1104D
1582.384	2.533	2612513	WORD	n/a	wordpools/wordpool_EN.txt	CAGE	2	15	[0, 0, 0]	n/a	FR1	0	R1104D
1584.917	2.534	2616566	WORD	n/a	wordpools/wordpool_EN.txt	DIME	3	15	[0, 0, 0]	n/a	FR1	0	R1104D
1587.451	2.4	2620620	WORD	n/a	wordpools/wordpool_EN.txt	SLIME	4	15	[0, 0, 0]	n/a	FR1	0	R1104D
1589.851	2.551	2624459	WORD	n/a	wordpools/wordpool_EN.txt	PANTS	5	15	[0, 0, 0]	n/a	FR1	0	R1104D
1592.402	2.617	2628541	WORD	n/a	wordpools/wordpool_EN.txt	SINK	6	15	[0, 0, 0]	n/a	FR1	0	R1104D
1595.019	2.384	2632728	WORD	n/a	wordpools/wordpool_EN.txt	FUR	7	15	[0, 0, 0]	n/a	FR1	0	R1104D
1597.403	2.434	2636542	WORD	n/a	wordpools/wordpool_EN.txt	AXE	8	15	[0, 0, 0]	n/a	FR1	0	R1104D
1599.837	2.449	2640436	WORD	n/a	wordpools/wordpool_EN.txt	TRAIN	9	15	[0, 0, 0]	n/a	FR1	0	R1104D
1602.286	2.568	2644354	WORD	n/a	wordpools/wordpool_EN.txt	SLEEVE	10	15	[0, 0, 0]	n/a	FR1	0	R1104D
1604.854	2.484	2648463	WORD	n/a	wordpools/wordpool_EN.txt	TIE	11	15	[0, 0, 0]	n/a	FR1	0	R1104D
1607.338	1.617	2652437	WORD	n/a	wordpools/wordpool_EN.txt	HAND	12	15	[0, 0, 0]	n/a	FR1	0	R1104D
1608.955	0.001	2655024	DISTRACT_START	n/a	n/a	n/a	-999	15	[0, 0, 0]	n/a	FR1	0	R1104D
1608.956	0.016	2655026	START	n/a	n/a	n/a	-999	15	[-999, -999, -999]	n/a	FR1	0	R1104D
1608.972	2.85	2655051	PROB	2.85	n/a	n/a	-999	15	[6, 4, 1]	11	FR1	0	R1104D
1611.822	2.466	2659611	PROB	2.466	n/a	n/a	-999	15	[4, 6, 2]	12	FR1	0	R1104D
1614.288	2.435	2663556	PROB	2.435	n/a	n/a	-999	15	[4, 3, 6]	13	FR1	0	R1104D
1616.723	4.45	2667452	PROB	4.45	n/a	n/a	-999	15	[5, 7, 7]	19	FR1	0	R1104D
1621.173	3.218	2674571	PROB	3.218	n/a	n/a	-999	15	[8, 1, 1]	10	FR1	0	R1104D
1624.391	5.007	2679720	PROB	5.007	n/a	n/a	-999	15	[7, 6, 2]	15	FR1	0	R1104D
1629.398	0.011	2687731	STOP	n/a	n/a	n/a	-999	15	[-999, -999, -999]	n/a	FR1	0	R1104D
1629.409	1.151	2687748	DISTRACT_END	n/a	n/a	n/a	-999	15	[0, 0, 0]	n/a	FR1	0	R1104D
1630.56	3.074	2689590	REC_START	n/a	n/a	n/a	-999	15	[0, 0, 0]	n/a	FR1	0	R1104D
1633.634	2.97	2694508	REC_WORD	2.97	n/a	STREET	1	15	[0, 0, 0]	n/a	FR1	0	R1104D
1636.604	2.931	2699259	REC_WORD	2.931	n/a	FUR	7	15	[0, 0, 0]	n/a	FR1	0	R1104D
1639.535	21.034	2703949	REC_WORD	21.034	n/a	CAGE	2	15	[0, 0, 0]	n/a	FR1	0	R1104D
1660.569	3.163	2737601	REC_END	n/a	n/a	n/a	-999	15	[0, 0, 0]	n/a	FR1	0	R1104D
1663.732	0.0	2742662	TRIAL	n/a	n/a	n/a	-999	16	[0, 0, 0]	n/a	FR1	0	R1104D
1663.732	10.428	2742662	COUNTDOWN_START	n/a	n/a	n/a	-999	16	[0, 0, 0]	n/a	FR1	0	R1104D
1674.16	0.006	2759345	COUNTDOWN_END	n/a	n/a	n/a	-999	16	[0, 0, 0]	n/a	FR1	0	R1104D
1674.166	2.435	2759355	ORIENT	n/a	n/a	n/a	-999	16	[0, 0, 0]	n/a	FR1	0	R1104D
1676.601	2.616	2763251	WORD	n/a	wordpools/wordpool_EN.txt	BOY	1	16	[0, 0, 0]	n/a	FR1	0	R1104D
1679.217	2.485	2767436	WORD	n/a	wordpools/wordpool_EN.txt	MOUSE	2	16	[0, 0, 0]	n/a	FR1	0	R1104D
1681.702	2.482	2771412	WORD	n/a	wordpools/wordpool_EN.txt	HOOK	3	16	[0, 0, 0]	n/a	FR1	0	R1104D
1684.184	2.485	2775383	WORD	n/a	wordpools/wordpool_EN.txt	WAND	4	16	[0, 0, 0]	n/a	FR1	0	R1104D
1686.669	2.616	2779358	WORD	n/a	wordpools/wordpool_EN.txt	RAIN	5	16	[0, 0, 0]	n/a	FR1	0	R1104D
1689.285	2.502	2783544	WORD	n/a	wordpools/wordpool_EN.txt	FAN	6	16	[0, 0, 0]	n/a	FR1	0	R1104D
1691.787	2.466	2787547	WORD	n/a	wordpools/wordpool_EN.txt	SKY	7	16	[0, 0, 0]	n/a	FR1	0	R1104D
1694.253	2.501	2791492	WORD	n/a	wordpools/wordpool_EN.txt	NAIL	8	16	[0, 0, 0]	n/a	FR1	0	R1104D
1696.754	2.416	2795493	WORD	n/a	wordpools/wordpool_EN.txt	BAT	9	16	[0, 0, 0]	n/a	FR1	0	R1104D
1699.17	2.602	2799359	WORD	n/a	wordpools/wordpool_EN.txt	GRASS	10	16	[0, 0, 0]	n/a	FR1	0	R1104D
1701.772	2.466	2803522	WORD	n/a	wordpools/wordpool_EN.txt	ANT	11	16	[0, 0, 0]	n/a	FR1	0	R1104D
1704.238	1.601	2807467	WORD	n/a	wordpools/wordpool_EN.txt	CHALK	12	16	[0, 0, 0]	n/a	FR1	0	R1104D
1705.839	0.001	2810028	DISTRACT_START	n/a	n/a	n/a	-999	16	[0, 0, 0]	n/a	FR1	0	R1104D
1705.84	0.016	2810030	START	n/a	n/a	n/a	-999	16	[-999, -999, -999]	n/a	FR1	0	R1104D
1705.856	3.734	2810056	PROB	3.734	n/a	n/a	-999	16	[7, 2, 8]	17	FR1	0	R1104D
1709.59	2.167	2816030	PROB	2.167	n/a	n/a	-999	16	[5, 1, 5]	11	FR1	0	R1104D
1711.757	2.884	2819497	PROB	2.884	n/a	n/a	-999	16	[6, 3, 9]	18	FR1	0	R1104D
1714.641	3.683	2824111	PROB	3.683	n/a	n/a	-999	16	[3, 4, 1]	8	FR1	0	R1104D
1718.324	2.901	2830003	PROB	2.901	n/a	n/a	-999	16	[2, 8, 4]	14	FR1	0	R1104D
1721.225	2.234	2834644	PROB	2.234	n/a	n/a	-999	16	[3, 7, 8]	18	FR1	0	R1104D
1723.459	5.019	2838219	PROB	5.019	n/a	n/a	-999	16	[5, 2, 7]	14	FR1	0	R1104D
1728.478	0.016	2846249	STOP	n/a	n/a	n/a	-999	16	[-999, -999, -999]	n/a	FR1	0	R1104D
1728.494	1.184	2846274	DISTRACT_END	n/a	n/a	n/a	-999	16	[0, 0, 0]	n/a	FR1	0	R1104D
1729.678	2.005	2848168	REC_START	n/a	n/a	n/a	-999	16	[0, 0, 0]	n/a	FR1	0	R1104D
1731.683	0.573	2851376	REC_WORD	0.573	n/a	GRASS	10	16	[0, 0, 0]	n/a	FR1	0	R1104D
1732.256	5.597	2852293	REC_WORD	5.597	n/a	ANT	11	16	[0, 0, 0]	n/a	FR1	0	R1104D
1737.853	14.503	2861248	REC_WORD	14.503	n/a	CHALK	12	16	[0, 0, 0]	n/a	FR1	0	R1104D
1752.356	2.062	2884451	REC_WORD	2.062	n/a	MOUSE	2	16	[0, 0, 0]	n/a	FR1	0	R1104D
1754.418	5.271	2887750	REC_WORD	5.271	n/a	BOY	1	16	[0, 0, 0]	n/a	FR1	0	R1104D
1759.689	5.728	2896183	REC_END	n/a	n/a	n/a	-999	16	[0, 0, 0]	n/a	FR1	0	R1104D
1765.417	0.0	2905347	COUNTDOWN_START	n/a	n/a	n/a	-999	17	[0, 0, 0]	n/a	FR1	0	R1104D
1765.417	10.428	2905347	TRIAL	n/a	n/a	n/a	-999	17	[0, 0, 0]	n/a	FR1	0	R1104D
1775.845	0.007	2922031	COUNTDOWN_END	n/a	n/a	n/a	-999	17	[0, 0, 0]	n/a	FR1	0	R1104D
1775.852	2.601	2922042	ORIENT	n/a	n/a	n/a	-999	17	[0, 0, 0]	n/a	FR1	0	R1104D
1778.453	2.55	2926203	WORD	n/a	wordpools/wordpool_EN.txt	ROSE	1	17	[0, 0, 0]	n/a	FR1	0	R1104D
1781.003	2.551	2930283	WORD	n/a	wordpools/wordpool_EN.txt	FLAG	2	17	[0, 0, 0]	n/a	FR1	0	R1104D
1783.554	2.599	2934364	WORD	n/a	wordpools/wordpool_EN.txt	WHEEL	3	17	[0, 0, 0]	n/a	FR1	0	R1104D
1786.153	2.535	2938523	WORD	n/a	wordpools/wordpool_EN.txt	WORLD	4	17	[0, 0, 0]	n/a	FR1	0	R1104D
1788.688	2.5	2942578	WORD	n/a	wordpools/wordpool_EN.txt	SPOON	5	17	[0, 0, 0]	n/a	FR1	0	R1104D
1791.188	2.518	2946578	WORD	n/a	wordpools/wordpool_EN.txt	CAKE	6	17	[0, 0, 0]	n/a	FR1	0	R1104D
1793.706	2.482	2950607	WORD	n/a	wordpools/wordpool_EN.txt	YARD	7	17	[0, 0, 0]	n/a	FR1	0	R1104D
1796.188	2.402	2954578	WORD	n/a	wordpools/wordpool_EN.txt	DOCK	8	17	[0, 0, 0]	n/a	FR1	0	R1104D
1798.59	2.516	2958421	WORD	n/a	wordpools/wordpool_EN.txt	KEY	9	17	[0, 0, 0]	n/a	FR1	0	R1104D
1801.106	2.401	2962446	WORD	n/a	wordpools/wordpool_EN.txt	TOOL	10	17	[0, 0, 0]	n/a	FR1	0	R1104D
1803.507	2.484	2966287	WORD	n/a	wordpools/wordpool_EN.txt	STRING	11	17	[0, 0, 0]	n/a	FR1	0	R1104D
1805.991	1.617	2970261	WORD	n/a	wordpools/wordpool_EN.txt	HOSE	12	17	[0, 0, 0]	n/a	FR1	0	R1104D
1807.608	0.001	2972848	DISTRACT_START	n/a	n/a	n/a	-999	17	[0, 0, 0]	n/a	FR1	0	R1104D
1807.609	0.016	2972850	START	n/a	n/a	n/a	-999	17	[-999, -999, -999]	n/a	FR1	0	R1104D
1807.625	8.567	2972876	PROB	8.567	n/a	n/a	-999	17	[4, 2, 9]	15	FR1	0	R1104D
1816.192	3.835	2986582	PROB	3.835	n/a	n/a	-999	17	[6, 5, 7]	18	FR1	0	R1104D
1820.027	2.351	2992718	PROB	2.351	n/a	n/a	-999	17	[8, 6, 8]	22	FR1	0	R1104D
1822.378	7.195	2996479	PROB	7.195	n/a	n/a	-999	17	[4, 3, 9]	16	FR1	0	R1104D
1829.573	0.006	3007990	STOP	n/a	n/a	n/a	-999	17	[-999, -999, -999]	n/a	FR1	0	R1104D
1829.579	1.034	3008000	DISTRACT_END	n/a	n/a	n/a	-999	17	[0, 0, 0]	n/a	FR1	0	R1104D
1830.613	2.251	3009654	REC_START	n/a	n/a	n/a	-999	17	[0, 0, 0]	n/a	FR1	0	R1104D
1832.864	0.888	3013255	REC_WORD	0.888	n/a	ROSE	1	17	[0, 0, 0]	n/a	FR1	0	R1104D
1833.752	0.878	3014676	REC_WORD	0.878	n/a	FLAG	2	17	[0, 0, 0]	n/a	FR1	0	R1104D
1834.63	0.757	3016081	REC_WORD	0.757	n/a	STRING	11	17	[0, 0, 0]	n/a	FR1	0	R1104D
1835.387	25.237	3017292	REC_WORD	25.237	n/a	HOSE	12	17	[0, 0, 0]	n/a	FR1	0	R1104D
1860.624	5.978	3057669	REC_END	n/a	n/a	n/a	-999	17	[0, 0, 0]	n/a	FR1	0	R1104D
1866.602	0.0	3067233	TRIAL	n/a	n/a	n/a	-999	18	[0, 0, 0]	n/a	FR1	0	R1104D
1866.602	10.428	3067233	COUNTDOWN_START	n/a	n/a	n/a	-999	18	[0, 0, 0]	n/a	FR1	0	R1104D
1877.03	0.007	3083917	COUNTDOWN_END	n/a	n/a	n/a	-999	18	[0, 0, 0]	n/a	FR1	0	R1104D
1877.037	2.451	3083928	ORIENT	n/a	n/a	n/a	-999	18	[0, 0, 0]	n/a	FR1	0	R1104D
1879.488	2.566	3087849	WORD	n/a	wordpools/wordpool_EN.txt	SEAT	1	18	[0, 0, 0]	n/a	FR1	0	R1104D
1882.054	2.451	3091954	WORD	n/a	wordpools/wordpool_EN.txt	MULE	2	18	[0, 0, 0]	n/a	FR1	0	R1104D
1884.505	2.434	3095876	WORD	n/a	wordpools/wordpool_EN.txt	TOOTH	3	18	[0, 0, 0]	n/a	FR1	0	R1104D
1886.939	2.584	3099770	WORD	n/a	wordpools/wordpool_EN.txt	PASTE	4	18	[0, 0, 0]	n/a	FR1	0	R1104D
1889.523	2.384	3103904	WORD	n/a	wordpools/wordpool_EN.txt	TRAY	5	18	[0, 0, 0]	n/a	FR1	0	R1104D
1891.907	2.584	3107718	WORD	n/a	wordpools/wordpool_EN.txt	TEETH	6	18	[0, 0, 0]	n/a	FR1	0	R1104D
1894.491	2.4	3111852	WORD	n/a	wordpools/wordpool_EN.txt	BEAK	7	18	[0, 0, 0]	n/a	FR1	0	R1104D
1896.891	2.433	3115692	WORD	n/a	wordpools/wordpool_EN.txt	BRIDGE	8	18	[0, 0, 0]	n/a	FR1	0	R1104D
1899.324	2.601	3119585	WORD	n/a	wordpools/wordpool_EN.txt	SALT	9	18	[0, 0, 0]	n/a	FR1	0	R1104D
1901.925	2.383	3123746	WORD	n/a	wordpools/wordpool_EN.txt	PIPE	10	18	[0, 0, 0]	n/a	FR1	0	R1104D
1904.308	2.518	3127559	WORD	n/a	wordpools/wordpool_EN.txt	SOAP	11	18	[0, 0, 0]	n/a	FR1	0	R1104D
1906.826	1.617	3131587	WORD	n/a	wordpools/wordpool_EN.txt	TOAST	12	18	[0, 0, 0]	n/a	FR1	0	R1104D
1908.443	0.001	3134174	DISTRACT_START	n/a	n/a	n/a	-999	18	[0, 0, 0]	n/a	FR1	0	R1104D
1908.444	0.016	3134176	START	n/a	n/a	n/a	-999	18	[-999, -999, -999]	n/a	FR1	0	R1104D
1908.46	7.318	3134201	PROB	7.318	n/a	n/a	-999	18	[6, 9, 8]	23	FR1	0	R1104D
1915.778	3.4	3145909	PROB	3.4	n/a	n/a	-999	18	[3, 6, 8]	17	FR1	0	R1104D
1919.178	2.701	3151349	PROB	2.701	n/a	n/a	-999	18	[6, 5, 2]	13	FR1	0	R1104D
1921.879	2.433	3155670	PROB	2.433	n/a	n/a	-999	18	[5, 5, 8]	18	FR1	0	R1104D
1924.312	5.709	3159563	PROB	5.709	n/a	n/a	-999	18	[6, 3, 5]	14	FR1	0	R1104D
1930.021	0.009	3168697	STOP	n/a	n/a	n/a	-999	18	[-999, -999, -999]	n/a	FR1	0	R1104D
1930.03	1.167	3168711	DISTRACT_END	n/a	n/a	n/a	-999	18	[0, 0, 0]	n/a	FR1	0	R1104D
1931.197	5.041	3170578	REC_START	n/a	n/a	n/a	-999	18	[0, 0, 0]	n/a	FR1	0	R1104D
1936.238	2.517	3178643	REC_WORD	2.517	n/a	MULE	2	18	[0, 0, 0]	n/a	FR1	0	R1104D
1938.755	1.117	3182670	REC_WORD	1.117	n/a	TOOTH	3	18	[0, 0, 0]	n/a	FR1	0	R1104D
1939.872	1.103	3184457	REC_WORD	1.103	n/a	PASTE	4	18	[0, 0, 0]	n/a	FR1	0	R1104D
1940.975	12.02	3186222	REC_WORD	12.02	n/a	TRAY	5	18	[0, 0, 0]	n/a	FR1	0	R1104D
1952.995	8.213	3205453	REC_WORD	8.213	n/a	SEAT	1	18	[0, 0, 0]	n/a	FR1	0	R1104D
1961.208	4.978	3218593	REC_END	n/a	n/a	n/a	-999	18	[0, 0, 0]	n/a	FR1	0	R1104D
1966.186	0.0	3226557	COUNTDOWN_START	n/a	n/a	n/a	-999	19	[0, 0, 0]	n/a	FR1	0	R1104D
1966.186	10.428	3226557	TRIAL	n/a	n/a	n/a	-999	19	[0, 0, 0]	n/a	FR1	0	R1104D
1976.614	0.008	3243241	COUNTDOWN_END	n/a	n/a	n/a	-999	19	[0, 0, 0]	n/a	FR1	0	R1104D
1976.622	2.633	3243254	ORIENT	n/a	n/a	n/a	-999	19	[0, 0, 0]	n/a	FR1	0	R1104D
1979.255	2.485	3247466	WORD	n/a	wordpools/wordpool_EN.txt	JUDGE	1	19	[0, 0, 0]	n/a	FR1	0	R1104D
1981.74	2.582	3251442	WORD	n/a	wordpools/wordpool_EN.txt	BOMB	2	19	[0, 0, 0]	n/a	FR1	0	R1104D
1984.322	2.502	3255573	WORD	n/a	wordpools/wordpool_EN.txt	EAR	3	19	[0, 0, 0]	n/a	FR1	0	R1104D
1986.824	2.383	3259576	WORD	n/a	wordpools/wordpool_EN.txt	TRASH	4	19	[0, 0, 0]	n/a	FR1	0	R1104D
1989.207	2.418	3263388	WORD	n/a	wordpools/wordpool_EN.txt	MILK	5	19	[0, 0, 0]	n/a	FR1	0	R1104D
1991.625	2.401	3267257	WORD	n/a	wordpools/wordpool_EN.txt	STAR	6	19	[0, 0, 0]	n/a	FR1	0	R1104D
1994.026	2.5	3271098	WORD	n/a	wordpools/wordpool_EN.txt	DOG	7	19	[0, 0, 0]	n/a	FR1	0	R1104D
1996.526	2.566	3275098	WORD	n/a	wordpools/wordpool_EN.txt	FILM	8	19	[0, 0, 0]	n/a	FR1	0	R1104D
1999.092	2.602	3279203	WORD	n/a	wordpools/wordpool_EN.txt	WAVE	9	19	[0, 0, 0]	n/a	FR1	0	R1104D
2001.694	2.466	3283366	WORD	n/a	wordpools/wordpool_EN.txt	ZOO	10	19	[0, 0, 0]	n/a	FR1	0	R1104D
2004.16	2.385	3287312	WORD	n/a	wordpools/wordpool_EN.txt	POLE	11	19	[0, 0, 0]	n/a	FR1	0	R1104D
2006.545	1.615	3291127	WORD	n/a	wordpools/wordpool_EN.txt	ARK	12	19	[0, 0, 0]	n/a	FR1	0	R1104D
2008.16	0.001	3293711	DISTRACT_START	n/a	n/a	n/a	-999	19	[0, 0, 0]	n/a	FR1	0	R1104D
2008.161	0.016	3293713	START	n/a	n/a	n/a	-999	19	[-999, -999, -999]	n/a	FR1	0	R1104D
2008.177	4.134	3293738	PROB	4.134	n/a	n/a	-999	19	[3, 2, 2]	7	FR1	0	R1104D
2012.311	4.469	3300352	PROB	4.469	n/a	n/a	-999	19	[3, 3, 2]	8	FR1	0	R1104D
2016.78	3.017	3307502	PROB	3.017	n/a	n/a	-999	19	[8, 3, 1]	12	FR1	0	R1104D
2019.797	4.867	3312329	PROB	4.867	n/a	n/a	-999	19	[4, 9, 5]	18	FR1	0	R1104D
2024.664	4.021	3320116	PROB	4.021	n/a	n/a	-999	19	[3, 8, 1]	12	FR1	0	R1104D
2028.685	0.014	3326549	STOP	n/a	n/a	n/a	-999	19	[-999, -999, -999]	n/a	FR1	0	R1104D
2028.699	1.2	3326571	DISTRACT_END	n/a	n/a	n/a	-999	19	[0, 0, 0]	n/a	FR1	0	R1104D
2029.899	1.776	3328491	REC_START	n/a	n/a	n/a	-999	19	[0, 0, 0]	n/a	FR1	0	R1104D
2031.675	7.108	3331333	REC_WORD	7.108	n/a	STAR	6	19	[0, 0, 0]	n/a	FR1	0	R1104D
2038.783	9.423	3342705	REC_WORD	9.423	n/a	ZOO	10	19	[0, 0, 0]	n/a	FR1	0	R1104D
2048.206	11.705	3357781	REC_WORD	11.705	n/a	POLE	11	19	[0, 0, 0]	n/a	FR1	0	R1104D
2059.911	4.011	3376507	REC_END	n/a	n/a	n/a	-999	19	[0, 0, 0]	n/a	FR1	0	R1104D
2063.922	0.0	3382925	TRIAL	n/a	n/a	n/a	-999	20	[0, 0, 0]	n/a	FR1	0	R1104D
2063.922	10.428	3382925	COUNTDOWN_START	n/a	n/a	n/a	-999	20	[0, 0, 0]	n/a	FR1	0	R1104D
2074.35	0.007	3399608	COUNTDOWN_END	n/a	n/a	n/a	-999	20	[0, 0, 0]	n/a	FR1	0	R1104D
2074.357	2.467	3399620	ORIENT	n/a	n/a	n/a	-999	20	[0, 0, 0]	n/a	FR1	0	R1104D
2076.824	2.534	3403567	WORD	n/a	wordpools/wordpool_EN.txt	DUCK	1	20	[0, 0, 0]	n/a	FR1	0	R1104D
2079.358	2.617	3407621	WORD	n/a	wordpools/wordpool_EN.txt	CASH	2	20	[0, 0, 0]	n/a	FR1	0	R1104D
2081.975	2.517	3411808	WORD	n/a	wordpools/wordpool_EN.txt	BARN	3	20	[0, 0, 0]	n/a	FR1	0	R1104D
2084.492	2.501	3415835	WORD	n/a	wordpools/wordpool_EN.txt	FROG	4	20	[0, 0, 0]	n/a	FR1	0	R1104D
2086.993	2.583	3419836	WORD	n/a	wordpools/wordpool_EN.txt	POND	5	20	[0, 0, 0]	n/a	FR1	0	R1104D
2089.576	2.517	3423968	WORD	n/a	wordpools/wordpool_EN.txt	ARM	6	20	[0, 0, 0]	n/a	FR1	0	R1104D
2092.093	2.484	3427995	WORD	n/a	wordpools/wordpool_EN.txt	DEER	7	20	[0, 0, 0]	n/a	FR1	0	R1104D
2094.577	2.616	3431970	WORD	n/a	wordpools/wordpool_EN.txt	RAKE	8	20	[0, 0, 0]	n/a	FR1	0	R1104D
2097.193	2.585	3436155	WORD	n/a	wordpools/wordpool_EN.txt	JEEP	9	20	[0, 0, 0]	n/a	FR1	0	R1104D
2099.778	2.466	3440291	WORD	n/a	wordpools/wordpool_EN.txt	PARK	10	20	[0, 0, 0]	n/a	FR1	0	R1104D
2102.244	2.569	3444236	WORD	n/a	wordpools/wordpool_EN.txt	WOLF	11	20	[0, 0, 0]	n/a	FR1	0	R1104D
2104.813	1.616	3448346	WORD	n/a	wordpools/wordpool_EN.txt	ROPE	12	20	[0, 0, 0]	n/a	FR1	0	R1104D
2106.429	0.001	3450932	DISTRACT_START	n/a	n/a	n/a	-999	20	[0, 0, 0]	n/a	FR1	0	R1104D
2106.43	0.016	3450933	START	n/a	n/a	n/a	-999	20	[-999, -999, -999]	n/a	FR1	0	R1104D
2106.446	3.501	3450959	PROB	3.501	n/a	n/a	-999	20	[2, 7, 2]	11	FR1	0	R1104D
2109.947	2.282	3456560	PROB	2.282	n/a	n/a	-999	20	[7, 5, 5]	17	FR1	0	R1104D
2112.229	5.686	3460211	PROB	5.686	n/a	n/a	-999	20	[9, 9, 1]	19	FR1	0	R1104D
2117.915	4.067	3469308	PROB	4.067	n/a	n/a	-999	20	[8, 8, 3]	19	FR1	0	R1104D
2121.982	3.2	3475815	PROB	3.2	n/a	n/a	-999	20	[2, 4, 2]	8	FR1	0	R1104D
2125.182	3.263	3480934	PROB	3.263	n/a	n/a	-999	20	[3, 8, 9]	20	FR1	0	R1104D
2128.445	0.005	3486155	STOP	n/a	n/a	n/a	-999	20	[-999, -999, -999]	n/a	FR1	0	R1104D
2128.45	1.134	3486163	DISTRACT_END	n/a	n/a	n/a	-999	20	[0, 0, 0]	n/a	FR1	0	R1104D
2129.584	2.537	3487977	REC_START	n/a	n/a	n/a	-999	20	[0, 0, 0]	n/a	FR1	0	R1104D
2132.121	0.916	3492036	REC_WORD	0.916	n/a	DUCK	1	20	[0, 0, 0]	n/a	FR1	0	R1104D
2133.037	1.506	3493502	REC_WORD	1.506	n/a	RAKE	8	20	[0, 0, 0]	n/a	FR1	0	R1104D
2134.543	7.325	3495911	REC_WORD	7.325	n/a	WOLF	11	20	[0, 0, 0]	n/a	FR1	0	R1104D
2141.868	17.731	3507630	REC_WORD	17.731	n/a	JEEP	9	20	[0, 0, 0]	n/a	FR1	0	R1104D
2159.599	2.456	3535998	REC_END	n/a	n/a	n/a	-999	20	[0, 0, 0]	n/a	FR1	0	R1104D
2162.055	0.001	3539927	COUNTDOWN_START	n/a	n/a	n/a	-999	21	[0, 0, 0]	n/a	FR1	0	R1104D
2162.056	10.427	3539929	TRIAL	n/a	n/a	n/a	-999	21	[0, 0, 0]	n/a	FR1	0	R1104D
2172.483	0.009	3556611	COUNTDOWN_END	n/a	n/a	n/a	-999	21	[0, 0, 0]	n/a	FR1	0	R1104D
2172.492	2.517	3556626	ORIENT	n/a	n/a	n/a	-999	21	[0, 0, 0]	n/a	FR1	0	R1104D
2175.009	2.433	3560652	WORD	n/a	wordpools/wordpool_EN.txt	STONE	1	21	[0, 0, 0]	n/a	FR1	0	R1104D
2177.442	2.518	3564545	WORD	n/a	wordpools/wordpool_EN.txt	HORN	2	21	[0, 0, 0]	n/a	FR1	0	R1104D
2179.96	2.533	3568574	WORD	n/a	wordpools/wordpool_EN.txt	SPEAR	3	21	[0, 0, 0]	n/a	FR1	0	R1104D
2182.493	2.451	3572626	WORD	n/a	wordpools/wordpool_EN.txt	BUSH	4	21	[0, 0, 0]	n/a	FR1	0	R1104D
2184.944	2.584	3576547	WORD	n/a	wordpools/wordpool_EN.txt	DRUM	5	21	[0, 0, 0]	n/a	FR1	0	R1104D
2187.528	2.616	3580682	WORD	n/a	wordpools/wordpool_EN.txt	PEAR	6	21	[0, 0, 0]	n/a	FR1	0	R1104D
2190.144	2.568	3584867	WORD	n/a	wordpools/wordpool_EN.txt	SWAMP	7	21	[0, 0, 0]	n/a	FR1	0	R1104D
2192.712	2.399	3588975	WORD	n/a	wordpools/wordpool_EN.txt	FOX	8	21	[0, 0, 0]	n/a	FR1	0	R1104D
2195.111	2.602	3592814	WORD	n/a	wordpools/wordpool_EN.txt	LEAF	9	21	[0, 0, 0]	n/a	FR1	0	R1104D
2197.713	2.566	3596977	WORD	n/a	wordpools/wordpool_EN.txt	CHIEF	10	21	[0, 0, 0]	n/a	FR1	0	R1104D
2200.279	2.368	3601082	WORD	n/a	wordpools/wordpool_EN.txt	FLUTE	11	21	[0, 0, 0]	n/a	FR1	0	R1104D
2202.647	1.616	3604870	WORD	n/a	wordpools/wordpool_EN.txt	PLANT	12	21	[0, 0, 0]	n/a	FR1	0	R1104D
2204.263	0.001	3607456	DISTRACT_START	n/a	n/a	n/a	-999	21	[0, 0, 0]	n/a	FR1	0	R1104D
2204.264	0.016	3607458	START	n/a	n/a	n/a	-999	21	[-999, -999, -999]	n/a	FR1	0	R1104D
2204.28	6.001	3607483	PROB	6.001	n/a	n/a	-999	21	[4, 4, 7]	15	FR1	0	R1104D
2210.281	4.218	3617084	PROB	4.218	n/a	n/a	-999	21	[8, 1, 4]	13	FR1	0	R1104D
2214.499	2.816	3623832	PROB	2.816	n/a	n/a	-999	21	[8, 2, 9]	19	FR1	0	R1104D
2217.315	3.352	3628338	PROB	3.352	n/a	n/a	-999	21	[3, 5, 8]	16	FR1	0	R1104D
2220.667	4.851	3633701	PROB	4.851	n/a	n/a	-999	21	[3, 3, 4]	10	FR1	0	R1104D
2225.518	0.017	3641462	STOP	n/a	n/a	n/a	-999	21	[-999, -999, -999]	n/a	FR1	0	R1104D
2225.535	1.167	3641489	DISTRACT_END	n/a	n/a	n/a	-999	21	[0, 0, 0]	n/a	FR1	0	R1104D
2226.702	28.336	3643356	REC_START	n/a	n/a	n/a	-999	21	[0, 0, 0]	n/a	FR1	0	R1104D
2255.038	1.675	3688691	REC_WORD_VV	1.675	n/a	<>	-999	21	[0, 0, 0]	n/a	FR1	0	R1104D
2256.713	4.828	3691371	REC_END	n/a	n/a	n/a	-999	21	[0, 0, 0]	n/a	FR1	0	R1104D
2261.541	0.0	3699095	COUNTDOWN_START	n/a	n/a	n/a	-999	22	[0, 0, 0]	n/a	FR1	0	R1104D
2261.541	10.428	3699095	TRIAL	n/a	n/a	n/a	-999	22	[0, 0, 0]	n/a	FR1	0	R1104D
2271.969	0.007	3715779	COUNTDOWN_END	n/a	n/a	n/a	-999	22	[0, 0, 0]	n/a	FR1	0	R1104D
2271.976	2.434	3715790	ORIENT	n/a	n/a	n/a	-999	22	[0, 0, 0]	n/a	FR1	0	R1104D
2274.41	2.517	3719684	WORD	n/a	wordpools/wordpool_EN.txt	CRANE	1	22	[0, 0, 0]	n/a	FR1	0	R1104D
2276.927	2.383	3723711	WORD	n/a	wordpools/wordpool_EN.txt	SEAL	2	22	[0, 0, 0]	n/a	FR1	0	R1104D
2279.31	2.518	3727523	WORD	n/a	wordpools/wordpool_EN.txt	FUDGE	3	22	[0, 0, 0]	n/a	FR1	0	R1104D
2281.828	2.45	3731552	WORD	n/a	wordpools/wordpool_EN.txt	PEN	4	22	[0, 0, 0]	n/a	FR1	0	R1104D
2284.278	2.418	3735472	WORD	n/a	wordpools/wordpool_EN.txt	INK	5	22	[0, 0, 0]	n/a	FR1	0	R1104D
2286.696	2.533	3739340	WORD	n/a	wordpools/wordpool_EN.txt	BANK	6	22	[0, 0, 0]	n/a	FR1	0	R1104D
2289.229	2.418	3743393	WORD	n/a	wordpools/wordpool_EN.txt	SHEET	7	22	[0, 0, 0]	n/a	FR1	0	R1104D
2291.647	2.582	3747261	WORD	n/a	wordpools/wordpool_EN.txt	BOOK	8	22	[0, 0, 0]	n/a	FR1	0	R1104D
2294.229	2.585	3751392	WORD	n/a	wordpools/wordpool_EN.txt	DESK	9	22	[0, 0, 0]	n/a	FR1	0	R1104D
2296.814	2.534	3755528	WORD	n/a	wordpools/wordpool_EN.txt	WALL	10	22	[0, 0, 0]	n/a	FR1	0	R1104D
2299.348	2.451	3759582	WORD	n/a	wordpools/wordpool_EN.txt	DITCH	11	22	[0, 0, 0]	n/a	FR1	0	R1104D
2301.799	1.616	3763504	WORD	n/a	wordpools/wordpool_EN.txt	COIN	12	22	[0, 0, 0]	n/a	FR1	0	R1104D
2303.415	0.001	3766089	DISTRACT_START	n/a	n/a	n/a	-999	22	[0, 0, 0]	n/a	FR1	0	R1104D
2303.416	0.016	3766091	START	n/a	n/a	n/a	-999	22	[-999, -999, -999]	n/a	FR1	0	R1104D
2303.432	2.65	3766116	PROB	2.65	n/a	n/a	-999	22	[1, 6, 1]	8	FR1	0	R1104D
2306.082	4.668	3770356	PROB	4.668	n/a	n/a	-999	22	[1, 2, 6]	9	FR1	0	R1104D
2310.75	3.751	3777824	PROB	3.751	n/a	n/a	-999	22	[3, 1, 4]	8	FR1	0	R1104D
2314.501	3.967	3783825	PROB	3.967	n/a	n/a	-999	22	[4, 2, 7]	15	FR1	0	R1104D
2318.468	6.792	3790172	PROB	6.792	n/a	n/a	-999	22	[9, 6, 3]	18	FR1	0	R1104D
2325.26	0.008	3801039	STOP	n/a	n/a	n/a	-999	22	[-999, -999, -999]	n/a	FR1	0	R1104D
2325.268	1.069	3801052	DISTRACT_END	n/a	n/a	n/a	-999	22	[0, 0, 0]	n/a	FR1	0	R1104D
2326.337	2.874	3802762	REC_START	n/a	n/a	n/a	-999	22	[0, 0, 0]	n/a	FR1	0	R1104D
2329.211	0.335	3807360	REC_WORD	0.335	n/a	PEN	4	22	[0, 0, 0]	n/a	FR1	0	R1104D
2329.546	0.646	3807896	REC_WORD	0.646	n/a	INK	5	22	[0, 0, 0]	n/a	FR1	0	R1104D
2330.192	1.655	3808929	REC_WORD	1.655	n/a	COIN	12	22	[0, 0, 0]	n/a	FR1	0	R1104D
2331.847	24.502	3811577	REC_WORD	24.502	n/a	DITCH	11	22	[0, 0, 0]	n/a	FR1	0	R1104D
2356.349	2.393	3850778	REC_END	n/a	n/a	n/a	-999	22	[0, 0, 0]	n/a	FR1	0	R1104D
2358.742	0.0	3854607	TRIAL	n/a	n/a	n/a	-999	23	[0, 0, 0]	n/a	FR1	0	R1104D
2358.742	10.428	3854607	COUNTDOWN_START	n/a	n/a	n/a	-999	23	[0, 0, 0]	n/a	FR1	0	R1104D
2369.17	0.007	3871290	COUNTDOWN_END	n/a	n/a	n/a	-999	23	[0, 0, 0]	n/a	FR1	0	R1104D
2369.177	2.484	3871301	ORIENT	n/a	n/a	n/a	-999	23	[0, 0, 0]	n/a	FR1	0	R1104D
2371.661	2.45	3875276	WORD	n/a	wordpools/wordpool_EN.txt	PEARL	1	23	[0, 0, 0]	n/a	FR1	0	R1104D
2374.111	2.401	3879195	WORD	n/a	wordpools/wordpool_EN.txt	STEAM	2	23	[0, 0, 0]	n/a	FR1	0	R1104D
2376.512	2.45	3883037	WORD	n/a	wordpools/wordpool_EN.txt	JET	3	23	[0, 0, 0]	n/a	FR1	0	R1104D
2378.962	2.451	3886956	WORD	n/a	wordpools/wordpool_EN.txt	ICE	4	23	[0, 0, 0]	n/a	FR1	0	R1104D
2381.413	2.551	3890878	WORD	n/a	wordpools/wordpool_EN.txt	SEA	5	23	[0, 0, 0]	n/a	FR1	0	R1104D
2383.964	2.483	3894959	WORD	n/a	wordpools/wordpool_EN.txt	SPARK	6	23	[0, 0, 0]	n/a	FR1	0	R1104D
2386.447	2.484	3898932	WORD	n/a	wordpools/wordpool_EN.txt	SUN	7	23	[0, 0, 0]	n/a	FR1	0	R1104D
2388.931	2.4	3902906	WORD	n/a	wordpools/wordpool_EN.txt	SHARK	8	23	[0, 0, 0]	n/a	FR1	0	R1104D
2391.331	2.567	3906746	WORD	n/a	wordpools/wordpool_EN.txt	PIT	9	23	[0, 0, 0]	n/a	FR1	0	R1104D
2393.898	2.468	3910853	WORD	n/a	wordpools/wordpool_EN.txt	MAP	10	23	[0, 0, 0]	n/a	FR1	0	R1104D
2396.366	2.384	3914801	WORD	n/a	wordpools/wordpool_EN.txt	PLANE	11	23	[0, 0, 0]	n/a	FR1	0	R1104D
2398.75	1.617	3918615	WORD	n/a	wordpools/wordpool_EN.txt	SAIL	12	23	[0, 0, 0]	n/a	FR1	0	R1104D
2400.367	0.0	3921202	DISTRACT_START	n/a	n/a	n/a	-999	23	[0, 0, 0]	n/a	FR1	0	R1104D
2400.367	0.016	3921202	START	n/a	n/a	n/a	-999	23	[-999, -999, -999]	n/a	FR1	0	R1104D
2400.383	3.833	3921228	PROB	3.833	n/a	n/a	-999	23	[5, 5, 4]	14	FR1	0	R1104D
2404.216	2.752	3927360	PROB	2.752	n/a	n/a	-999	23	[2, 8, 6]	16	FR1	0	R1104D
2406.968	2.817	3931763	PROB	2.817	n/a	n/a	-999	23	[8, 5, 5]	18	FR1	0	R1104D
2409.785	2.967	3936270	PROB	2.967	n/a	n/a	-999	23	[4, 9, 6]	19	FR1	0	R1104D
2412.752	2.601	3941017	PROB	2.601	n/a	n/a	-999	23	[5, 7, 1]	13	FR1	0	R1104D
2415.353	2.833	3945178	PROB	2.833	n/a	n/a	-999	23	[1, 1, 5]	7	FR1	0	R1104D
2418.186	4.603	3949711	PROB	4.603	n/a	n/a	-999	23	[4, 4, 9]	17	FR1	0	R1104D
2422.789	0.015	3957075	STOP	n/a	n/a	n/a	-999	23	[-999, -999, -999]	n/a	FR1	0	R1104D
2422.804	1.184	3957099	DISTRACT_END	n/a	n/a	n/a	-999	23	[0, 0, 0]	n/a	FR1	0	R1104D
2423.988	2.693	3958993	REC_START	n/a	n/a	n/a	-999	23	[0, 0, 0]	n/a	FR1	0	R1104D
2426.681	0.674	3963302	REC_WORD	0.674	n/a	MAP	10	23	[0, 0, 0]	n/a	FR1	0	R1104D
2427.355	2.839	3964380	REC_WORD	2.839	n/a	PLANE	11	23	[0, 0, 0]	n/a	FR1	0	R1104D
2430.194	2.031	3968922	REC_WORD	2.031	n/a	STEAM	2	23	[0, 0, 0]	n/a	FR1	0	R1104D
2432.225	4.602	3972172	REC_WORD	4.602	n/a	SPARK	6	23	[0, 0, 0]	n/a	FR1	0	R1104D
2436.827	1.306	3979535	REC_WORD	1.306	n/a	ICE	4	23	[0, 0, 0]	n/a	FR1	0	R1104D
2438.133	15.87	3981624	REC_WORD	15.87	n/a	SEA	5	23	[0, 0, 0]	n/a	FR1	0	R1104D
2454.003	2.541	4007014	REC_END	n/a	n/a	n/a	-999	23	[0, 0, 0]	n/a	FR1	0	R1104D
2456.544	0.0	4011080	TRIAL	n/a	n/a	n/a	-999	24	[0, 0, 0]	n/a	FR1	0	R1104D
2456.544	10.428	4011080	COUNTDOWN_START	n/a	n/a	n/a	-999	24	[0, 0, 0]	n/a	FR1	0	R1104D
2466.972	0.007	4027763	COUNTDOWN_END	n/a	n/a	n/a	-999	24	[0, 0, 0]	n/a	FR1	0	R1104D
2466.979	2.434	4027775	ORIENT	n/a	n/a	n/a	-999	24	[0, 0, 0]	n/a	FR1	0	R1104D
2469.413	2.517	4031669	WORD	n/a	wordpools/wordpool_EN.txt	GLASS	1	24	[0, 0, 0]	n/a	FR1	0	R1104D
2471.93	2.517	4035696	WORD	n/a	wordpools/wordpool_EN.txt	MUG	2	24	[0, 0, 0]	n/a	FR1	0	R1104D
2474.447	2.567	4039723	WORD	n/a	wordpools/wordpool_EN.txt	SOCK	3	24	[0, 0, 0]	n/a	FR1	0	R1104D
2477.014	2.55	4043830	WORD	n/a	wordpools/wordpool_EN.txt	FLOOR	4	24	[0, 0, 0]	n/a	FR1	0	R1104D
2479.564	2.533	4047909	WORD	n/a	wordpools/wordpool_EN.txt	SHOE	5	24	[0, 0, 0]	n/a	FR1	0	R1104D
2482.097	2.402	4051962	WORD	n/a	wordpools/wordpool_EN.txt	JAR	6	24	[0, 0, 0]	n/a	FR1	0	R1104D
2484.499	2.45	4055805	WORD	n/a	wordpools/wordpool_EN.txt	ELF	7	24	[0, 0, 0]	n/a	FR1	0	R1104D
2486.949	2.417	4059725	WORD	n/a	wordpools/wordpool_EN.txt	TANK	8	24	[0, 0, 0]	n/a	FR1	0	R1104D
2489.366	2.551	4063592	WORD	n/a	wordpools/wordpool_EN.txt	POOL	9	24	[0, 0, 0]	n/a	FR1	0	R1104D
2491.917	2.416	4067673	WORD	n/a	wordpools/wordpool_EN.txt	ROOM	10	24	[0, 0, 0]	n/a	FR1	0	R1104D
2494.333	2.501	4071538	WORD	n/a	wordpools/wordpool_EN.txt	CANE	11	24	[0, 0, 0]	n/a	FR1	0	R1104D
2496.834	1.617	4075540	WORD	n/a	wordpools/wordpool_EN.txt	RUG	12	24	[0, 0, 0]	n/a	FR1	0	R1104D
2498.451	0.001	4078127	DISTRACT_START	n/a	n/a	n/a	-999	24	[0, 0, 0]	n/a	FR1	0	R1104D
2498.452	0.016	4078128	START	n/a	n/a	n/a	-999	24	[-999, -999, -999]	n/a	FR1	0	R1104D
2498.468	5.384	4078154	PROB	5.384	n/a	n/a	-999	24	[6, 6, 2]	14	FR1	0	R1104D
2503.852	4.918	4086768	PROB	4.918	n/a	n/a	-999	24	[7, 1, 9]	17	FR1	0	R1104D
2508.77	4.601	4094636	PROB	4.601	n/a	n/a	-999	24	[3, 1, 4]	8	FR1	0	R1104D
2513.371	3.317	4101997	PROB	3.317	n/a	n/a	-999	24	[4, 4, 4]	12	FR1	0	R1104D
2516.688	3.309	4107304	PROB	3.309	n/a	n/a	-999	24	[9, 1, 4]	14	FR1	0	R1104D
2519.997	0.008	4112598	STOP	n/a	n/a	n/a	-999	24	[-999, -999, -999]	n/a	FR1	0	R1104D
2520.005	1.183	4112611	DISTRACT_END	n/a	n/a	n/a	-999	24	[0, 0, 0]	n/a	FR1	0	R1104D
2521.188	12.172	4114504	REC_START	n/a	n/a	n/a	-999	24	[0, 0, 0]	n/a	FR1	0	R1104D
2533.36	0.688	4133977	REC_WORD	0.688	n/a	GLASS	1	24	[0, 0, 0]	n/a	FR1	0	R1104D
2534.048	17.152	4135078	REC_WORD	17.152	n/a	MUG	2	24	[0, 0, 0]	n/a	FR1	0	R1104D
2551.2	3.478	4162520	REC_END	n/a	n/a	n/a	-999	24	[0, 0, 0]	n/a	FR1	0	R1104D
2554.678	0.0	4168084	TRIAL	n/a	n/a	n/a	-999	25	[0, 0, 0]	n/a	FR1	0	R1104D
2554.678	10.428	4168084	COUNTDOWN_START	n/a	n/a	n/a	-999	25	[0, 0, 0]	n/a	FR1	0	R1104D
2565.106	0.006	4184768	COUNTDOWN_END	n/a	n/a	n/a	-999	25	[0, 0, 0]	n/a	FR1	0	R1104D
2565.112	2.452	4184777	ORIENT	n/a	n/a	n/a	-999	25	[0, 0, 0]	n/a	FR1	0	R1104D
2567.564	2.467	4188700	WORD	n/a	wordpools/wordpool_EN.txt	GEESE	1	25	[0, 0, 0]	n/a	FR1	0	R1104D
2570.031	2.417	4192647	WORD	n/a	wordpools/wordpool_EN.txt	SKUNK	2	25	[0, 0, 0]	n/a	FR1	0	R1104D
2572.448	2.5	4196514	WORD	n/a	wordpools/wordpool_EN.txt	RIB	3	25	[0, 0, 0]	n/a	FR1	0	R1104D
2574.948	2.517	4200514	WORD	n/a	wordpools/wordpool_EN.txt	WORM	4	25	[0, 0, 0]	n/a	FR1	0	R1104D
2577.465	2.567	4204541	WORD	n/a	wordpools/wordpool_EN.txt	LOCK	5	25	[0, 0, 0]	n/a	FR1	0	R1104D
2580.032	2.601	4208648	WORD	n/a	wordpools/wordpool_EN.txt	SPONGE	6	25	[0, 0, 0]	n/a	FR1	0	R1104D
2582.633	2.416	4212809	WORD	n/a	wordpools/wordpool_EN.txt	OWL	7	25	[0, 0, 0]	n/a	FR1	0	R1104D
2585.049	2.585	4216675	WORD	n/a	wordpools/wordpool_EN.txt	HEN	8	25	[0, 0, 0]	n/a	FR1	0	R1104D
2587.634	2.483	4220810	WORD	n/a	wordpools/wordpool_EN.txt	PIN	9	25	[0, 0, 0]	n/a	FR1	0	R1104D
2590.117	2.551	4224783	WORD	n/a	wordpools/wordpool_EN.txt	FOOD	10	25	[0, 0, 0]	n/a	FR1	0	R1104D
2592.668	2.567	4228864	WORD	n/a	wordpools/wordpool_EN.txt	FISH	11	25	[0, 0, 0]	n/a	FR1	0	R1104D
2595.235	1.601	4232971	WORD	n/a	wordpools/wordpool_EN.txt	WEB	12	25	[0, 0, 0]	n/a	FR1	0	R1104D
2596.836	0.001	4235533	DISTRACT_START	n/a	n/a	n/a	-999	25	[0, 0, 0]	n/a	FR1	0	R1104D
2596.837	0.016	4235534	START	n/a	n/a	n/a	-999	25	[-999, -999, -999]	n/a	FR1	0	R1104D
2596.853	5.117	4235560	PROB	5.117	n/a	n/a	-999	25	[5, 9, 9]	23	FR1	0	R1104D
2601.97	4.934	4243746	PROB	4.934	n/a	n/a	-999	25	[3, 6, 3]	12	FR1	0	R1104D
2606.904	3.183	4251640	PROB	3.183	n/a	n/a	-999	25	[1, 8, 2]	11	FR1	0	R1104D
2610.087	2.418	4256733	PROB	2.418	n/a	n/a	-999	25	[1, 3, 8]	12	FR1	0	R1104D
2612.505	5.452	4260601	PROB	5.452	n/a	n/a	-999	25	[1, 8, 3]	12	FR1	0	R1104D
2617.957	0.016	4269324	STOP	n/a	n/a	n/a	-999	25	[-999, -999, -999]	n/a	FR1	0	R1104D
2617.973	1.051	4269350	DISTRACT_END	n/a	n/a	n/a	-999	25	[0, 0, 0]	n/a	FR1	0	R1104D
2619.024	2.209	4271031	REC_START	n/a	n/a	n/a	-999	25	[0, 0, 0]	n/a	FR1	0	R1104D
2621.233	5.566	4274565	REC_WORD	5.566	n/a	GEESE	1	25	[0, 0, 0]	n/a	FR1	0	R1104D
2626.799	4.452	4283470	REC_WORD	4.452	n/a	SPONGE	6	25	[0, 0, 0]	n/a	FR1	0	R1104D
2631.251	13.516	4290593	REC_WORD	13.516	n/a	HEN	8	25	[0, 0, 0]	n/a	FR1	0	R1104D
2644.767	3.045	4312217	REC_WORD	3.045	n/a	FOOD	10	25	[0, 0, 0]	n/a	FR1	0	R1104D
2647.812	1.222	4317089	REC_WORD	1.222	n/a	OWL	7	25	[0, 0, 0]	n/a	FR1	0	R1104D
2649.034	9.262	4319044	REC_END	n/a	n/a	n/a	-999	25	[0, 0, 0]	n/a	FR1	0	R1104D
2658.296	0.0	4333862	SESS_END	n/a	n/a	n/a	-999	25	[0, 0, 0]	n/a	FR1	0	R1104D
