onset	duration	sample	trial_type	response_time	stim_file	item_name	serialpos	list	test	answer	experiment	session	subject
0.0	22.447	-1	SESS_START	n/a	n/a	n/a	-999	-999	[0, 0, 0]	n/a	FR1	0	R1113T
22.447	10.428	-1	COUNTDOWN_START	n/a	n/a	n/a	-999	-999	[0, 0, 0]	n/a	FR1	0	R1113T
32.875	3.608	-1	COUNTDOWN_END	n/a	n/a	n/a	-999	-999	[0, 0, 0]	n/a	FR1	0	R1113T
36.483	2.485	-1	PRACTICE_WORD	n/a	n/a	IRON	1	-1	[0, 0, 0]	n/a	FR1	0	R1113T
38.968	2.466	-1	PRACTICE_WORD	n/a	n/a	WAGON	2	-1	[0, 0, 0]	n/a	FR1	0	R1113T
41.434	2.585	-1	PRACTICE_WORD	n/a	n/a	CHEST	3	-1	[0, 0, 0]	n/a	FR1	0	R1113T
44.019	2.517	-1	PRACTICE_WORD	n/a	n/a	RING	4	-1	[0, 0, 0]	n/a	FR1	0	R1113T
46.536	2.616	-1	PRACTICE_WORD	n/a	n/a	COTTON	5	-1	[0, 0, 0]	n/a	FR1	0	R1113T
49.152	2.602	-1	PRACTICE_WORD	n/a	n/a	TONGUE	6	-1	[0, 0, 0]	n/a	FR1	0	R1113T
51.754	2.532	-1	PRACTICE_WORD	n/a	n/a	BEAM	7	-1	[0, 0, 0]	n/a	FR1	0	R1113T
54.286	2.402	-1	PRACTICE_WORD	n/a	n/a	FLOOD	8	-1	[0, 0, 0]	n/a	FR1	0	R1113T
56.688	2.499	-1	PRACTICE_WORD	n/a	n/a	WATCH	9	-1	[0, 0, 0]	n/a	FR1	0	R1113T
59.187	2.435	-1	PRACTICE_WORD	n/a	n/a	RHINO	10	-1	[0, 0, 0]	n/a	FR1	0	R1113T
61.622	2.466	-1	PRACTICE_WORD	n/a	n/a	ATTIC	11	-1	[0, 0, 0]	n/a	FR1	0	R1113T
64.088	1.601	-1	PRACTICE_WORD	n/a	n/a	CAMEL	12	-1	[0, 0, 0]	n/a	FR1	0	R1113T
65.689	0.001	-1	PRACTICE_DISTRACT_START	n/a	n/a	n/a	-999	-1	[0, 0, 0]	n/a	FR1	0	R1113T
65.69	0.016	-1	START	n/a	n/a	n/a	-999	-1	[-999, -999, -999]	n/a	FR1	0	R1113T
65.706	18.954	-1	PROB	18.954	n/a	n/a	-999	-1	[7, 5, 2]	14	FR1	0	R1113T
84.66	11.861	-1	PROB	11.861	n/a	n/a	-999	-1	[4, 7, 6]	16	FR1	0	R1113T
96.521	0.006	-1	STOP	n/a	n/a	n/a	-999	-1	[-999, -999, -999]	n/a	FR1	0	R1113T
96.527	0.636	-1	PRACTICE_DISTRACT_END	n/a	n/a	n/a	-999	-1	[0, 0, 0]	n/a	FR1	0	R1113T
97.163	30.516	-1	PRACTICE_REC_START	n/a	n/a	n/a	-999	-1	[0, 0, 0]	n/a	FR1	0	R1113T
127.679	407.879	-1	PRACTICE_REC_END	n/a	n/a	n/a	-999	-1	[0, 0, 0]	n/a	FR1	0	R1113T
535.558	0.0	-1	TRIAL	n/a	n/a	n/a	-999	1	[0, 0, 0]	n/a	FR1	0	R1113T
535.558	10.428	-1	COUNTDOWN_START	n/a	n/a	n/a	-999	1	[0, 0, 0]	n/a	FR1	0	R1113T
545.986	0.007	-1	COUNTDOWN_END	n/a	n/a	n/a	-999	1	[0, 0, 0]	n/a	FR1	0	R1113T
545.993	2.433	-1	ORIENT	n/a	n/a	n/a	-999	1	[0, 0, 0]	n/a	FR1	0	R1113T
548.426	2.501	-1	WORD	n/a	wordpools/wordpool_EN.txt	TANK	1	1	[0, 0, 0]	n/a	FR1	0	R1113T
550.927	2.483	-1	WORD	n/a	wordpools/wordpool_EN.txt	LIP	2	1	[0, 0, 0]	n/a	FR1	0	R1113T
553.41	2.369	-1	WORD	n/a	wordpools/wordpool_EN.txt	HOOF	3	1	[0, 0, 0]	n/a	FR1	0	R1113T
555.779	2.582	-1	WORD	n/a	wordpools/wordpool_EN.txt	PARK	4	1	[0, 0, 0]	n/a	FR1	0	R1113T
558.361	2.402	-1	WORD	n/a	wordpools/wordpool_EN.txt	STICK	5	1	[0, 0, 0]	n/a	FR1	0	R1113T
560.763	2.499	-1	WORD	n/a	wordpools/wordpool_EN.txt	CASH	6	1	[0, 0, 0]	n/a	FR1	0	R1113T
563.262	2.418	-1	WORD	n/a	wordpools/wordpool_EN.txt	FUR	7	1	[0, 0, 0]	n/a	FR1	0	R1113T
565.68	2.533	-1	WORD	n/a	wordpools/wordpool_EN.txt	CAVE	8	1	[0, 0, 0]	n/a	FR1	0	R1113T
568.213	2.552	-1	WORD	n/a	wordpools/wordpool_EN.txt	CALF	9	1	[0, 0, 0]	n/a	FR1	0	R1113T
570.765	2.566	-1	WORD	n/a	wordpools/wordpool_EN.txt	ZOO	10	1	[0, 0, 0]	n/a	FR1	0	R1113T
573.331	2.501	-1	WORD	n/a	wordpools/wordpool_EN.txt	SPRING	11	1	[0, 0, 0]	n/a	FR1	0	R1113T
575.832	1.616	-1	WORD	n/a	wordpools/wordpool_EN.txt	ARM	12	1	[0, 0, 0]	n/a	FR1	0	R1113T
577.448	0.001	-1	DISTRACT_START	n/a	n/a	n/a	-999	1	[0, 0, 0]	n/a	FR1	0	R1113T
577.449	0.016	-1	START	n/a	n/a	n/a	-999	1	[-999, -999, -999]	n/a	FR1	0	R1113T
577.465	7.018	-1	PROB	7.018	n/a	n/a	-999	1	[4, 1, 1]	6	FR1	0	R1113T
584.483	13.511	-1	PROB	13.511	n/a	n/a	-999	1	[6, 9, 6]	21	FR1	0	R1113T
597.994	0.009	-1	STOP	n/a	n/a	n/a	-999	1	[-999, -999, -999]	n/a	FR1	0	R1113T
598.003	1.22	-1	DISTRACT_END	n/a	n/a	n/a	-999	1	[0, 0, 0]	n/a	FR1	0	R1113T
599.223	4.927	-1	REC_START	n/a	n/a	n/a	-999	1	[0, 0, 0]	n/a	FR1	0	R1113T
604.15	3.06	-1	REC_WORD	3.06	n/a	TANK	-999	1	[0, 0, 0]	n/a	FR1	0	R1113T
607.21	2.642	-1	REC_WORD	2.642	n/a	LIP	-999	1	[0, 0, 0]	n/a	FR1	0	R1113T
609.852	3.903	-1	REC_WORD	3.903	n/a	HOOF	-999	1	[0, 0, 0]	n/a	FR1	0	R1113T
613.755	15.475	-1	REC_WORD	15.475	n/a	FUR	-999	1	[0, 0, 0]	n/a	FR1	0	R1113T
629.23	5.078	-1	REC_END	n/a	n/a	n/a	-999	1	[0, 0, 0]	n/a	FR1	0	R1113T
634.308	0.0	-1	TRIAL	n/a	n/a	n/a	-999	2	[0, 0, 0]	n/a	FR1	0	R1113T
634.308	10.428	-1	COUNTDOWN_START	n/a	n/a	n/a	-999	2	[0, 0, 0]	n/a	FR1	0	R1113T
644.736	0.009	-1	COUNTDOWN_END	n/a	n/a	n/a	-999	2	[0, 0, 0]	n/a	FR1	0	R1113T
644.745	2.616	-1	ORIENT	n/a	n/a	n/a	-999	2	[0, 0, 0]	n/a	FR1	0	R1113T
647.361	2.451	-1	WORD	n/a	wordpools/wordpool_EN.txt	BENCH	1	2	[0, 0, 0]	n/a	FR1	0	R1113T
649.812	2.583	-1	WORD	n/a	wordpools/wordpool_EN.txt	CLOCK	2	2	[0, 0, 0]	n/a	FR1	0	R1113T
652.395	2.385	-1	WORD	n/a	wordpools/wordpool_EN.txt	TRUCK	3	2	[0, 0, 0]	n/a	FR1	0	R1113T
654.78	2.383	-1	WORD	n/a	wordpools/wordpool_EN.txt	DESK	4	2	[0, 0, 0]	n/a	FR1	0	R1113T
657.163	2.517	-1	WORD	n/a	wordpools/wordpool_EN.txt	BATH	5	2	[0, 0, 0]	n/a	FR1	0	R1113T
659.68	2.55	-1	WORD	n/a	wordpools/wordpool_EN.txt	BAG	6	2	[0, 0, 0]	n/a	FR1	0	R1113T
662.23	2.552	-1	WORD	n/a	wordpools/wordpool_EN.txt	SPOON	7	2	[0, 0, 0]	n/a	FR1	0	R1113T
664.782	2.566	-1	WORD	n/a	wordpools/wordpool_EN.txt	FUDGE	8	2	[0, 0, 0]	n/a	FR1	0	R1113T
667.348	2.418	-1	WORD	n/a	wordpools/wordpool_EN.txt	BOX	9	2	[0, 0, 0]	n/a	FR1	0	R1113T
669.766	2.433	-1	WORD	n/a	wordpools/wordpool_EN.txt	MUG	10	2	[0, 0, 0]	n/a	FR1	0	R1113T
672.199	2.518	-1	WORD	n/a	wordpools/wordpool_EN.txt	HAND	11	2	[0, 0, 0]	n/a	FR1	0	R1113T
674.717	1.616	-1	WORD	n/a	wordpools/wordpool_EN.txt	VAN	12	2	[0, 0, 0]	n/a	FR1	0	R1113T
676.333	0.001	-1	DISTRACT_START	n/a	n/a	n/a	-999	2	[0, 0, 0]	n/a	FR1	0	R1113T
676.334	0.016	-1	START	n/a	n/a	n/a	-999	2	[-999, -999, -999]	n/a	FR1	0	R1113T
676.35	8.901	-1	PROB	8.901	n/a	n/a	-999	2	[6, 7, 3]	16	FR1	0	R1113T
685.251	13.391	-1	PROB	13.391	n/a	n/a	-999	2	[6, 3, 9]	18	FR1	0	R1113T
698.642	0.013	-1	STOP	n/a	n/a	n/a	-999	2	[-999, -999, -999]	n/a	FR1	0	R1113T
698.655	1.2	-1	DISTRACT_END	n/a	n/a	n/a	-999	2	[0, 0, 0]	n/a	FR1	0	R1113T
699.855	30.0	-1	REC_START	n/a	n/a	n/a	-999	2	[0, 0, 0]	n/a	FR1	0	R1113T
729.855	0.012	-1	REC_WORD_VV	0.012	n/a	<>	-999	2	[0, 0, 0]	n/a	FR1	0	R1113T
729.867	106.796	-1	REC_END	n/a	n/a	n/a	-999	2	[0, 0, 0]	n/a	FR1	0	R1113T
836.663	0.0	-1	TRIAL	n/a	n/a	n/a	-999	3	[0, 0, 0]	n/a	FR1	0	R1113T
836.663	10.428	-1	COUNTDOWN_START	n/a	n/a	n/a	-999	3	[0, 0, 0]	n/a	FR1	0	R1113T
847.091	0.006	-1	COUNTDOWN_END	n/a	n/a	n/a	-999	3	[0, 0, 0]	n/a	FR1	0	R1113T
847.097	2.434	-1	ORIENT	n/a	n/a	n/a	-999	3	[0, 0, 0]	n/a	FR1	0	R1113T
849.531	2.634	-1	WORD	n/a	wordpools/wordpool_EN.txt	CONE	1	3	[0, 0, 0]	n/a	FR1	0	R1113T
852.165	2.568	-1	WORD	n/a	wordpools/wordpool_EN.txt	TRASH	2	3	[0, 0, 0]	n/a	FR1	0	R1113T
854.733	2.616	-1	WORD	n/a	wordpools/wordpool_EN.txt	PLANT	3	3	[0, 0, 0]	n/a	FR1	0	R1113T
857.349	2.568	-1	WORD	n/a	wordpools/wordpool_EN.txt	SMOKE	4	3	[0, 0, 0]	n/a	FR1	0	R1113T
859.917	2.483	-1	WORD	n/a	wordpools/wordpool_EN.txt	DOG	5	3	[0, 0, 0]	n/a	FR1	0	R1113T
862.4	2.551	-1	WORD	n/a	wordpools/wordpool_EN.txt	TOAD	6	3	[0, 0, 0]	n/a	FR1	0	R1113T
864.951	2.567	-1	WORD	n/a	wordpools/wordpool_EN.txt	FLAME	7	3	[0, 0, 0]	n/a	FR1	0	R1113T
867.518	2.468	-1	WORD	n/a	wordpools/wordpool_EN.txt	WEED	8	3	[0, 0, 0]	n/a	FR1	0	R1113T
869.986	2.432	-1	WORD	n/a	wordpools/wordpool_EN.txt	BEE	9	3	[0, 0, 0]	n/a	FR1	0	R1113T
872.418	2.452	-1	WORD	n/a	wordpools/wordpool_EN.txt	SEED	10	3	[0, 0, 0]	n/a	FR1	0	R1113T
874.87	2.466	-1	WORD	n/a	wordpools/wordpool_EN.txt	BUSH	11	3	[0, 0, 0]	n/a	FR1	0	R1113T
877.336	1.618	-1	WORD	n/a	wordpools/wordpool_EN.txt	FOG	12	3	[0, 0, 0]	n/a	FR1	0	R1113T
878.954	0.001	-1	DISTRACT_START	n/a	n/a	n/a	-999	3	[0, 0, 0]	n/a	FR1	0	R1113T
878.955	0.016	-1	START	n/a	n/a	n/a	-999	3	[-999, -999, -999]	n/a	FR1	0	R1113T
878.971	12.019	-1	PROB	12.019	n/a	n/a	-999	3	[9, 8, 6]	23	FR1	0	R1113T
890.99	6.551	-1	PROB	6.551	n/a	n/a	-999	3	[5, 5, 6]	16	FR1	0	R1113T
897.541	7.668	-1	PROB	7.668	n/a	n/a	-999	3	[7, 7, 6]	20	FR1	0	R1113T
905.209	0.016	-1	STOP	n/a	n/a	n/a	-999	3	[-999, -999, -999]	n/a	FR1	0	R1113T
905.225	1.05	-1	DISTRACT_END	n/a	n/a	n/a	-999	3	[0, 0, 0]	n/a	FR1	0	R1113T
906.275	3.528	-1	REC_START	n/a	n/a	n/a	-999	3	[0, 0, 0]	n/a	FR1	0	R1113T
909.803	1.368	-1	REC_WORD	1.368	n/a	CONE	-999	3	[0, 0, 0]	n/a	FR1	0	R1113T
911.171	2.179	-1	REC_WORD	2.179	n/a	TRASH	-999	3	[0, 0, 0]	n/a	FR1	0	R1113T
913.35	22.939	-1	REC_WORD	22.939	n/a	DOG	-999	3	[0, 0, 0]	n/a	FR1	0	R1113T
936.289	2.892	-1	REC_END	n/a	n/a	n/a	-999	3	[0, 0, 0]	n/a	FR1	0	R1113T
939.181	0.0	-1	TRIAL	n/a	n/a	n/a	-999	4	[0, 0, 0]	n/a	FR1	0	R1113T
939.181	10.428	-1	COUNTDOWN_START	n/a	n/a	n/a	-999	4	[0, 0, 0]	n/a	FR1	0	R1113T
949.609	0.008	-1	COUNTDOWN_END	n/a	n/a	n/a	-999	4	[0, 0, 0]	n/a	FR1	0	R1113T
949.617	2.533	-1	ORIENT	n/a	n/a	n/a	-999	4	[0, 0, 0]	n/a	FR1	0	R1113T
952.15	2.618	-1	WORD	n/a	wordpools/wordpool_EN.txt	BROOM	1	4	[0, 0, 0]	n/a	FR1	0	R1113T
954.768	2.416	-1	WORD	n/a	wordpools/wordpool_EN.txt	PANTS	2	4	[0, 0, 0]	n/a	FR1	0	R1113T
957.184	2.568	-1	WORD	n/a	wordpools/wordpool_EN.txt	SWAMP	3	4	[0, 0, 0]	n/a	FR1	0	R1113T
959.752	2.6	-1	WORD	n/a	wordpools/wordpool_EN.txt	BREAD	4	4	[0, 0, 0]	n/a	FR1	0	R1113T
962.352	2.484	-1	WORD	n/a	wordpools/wordpool_EN.txt	BRANCH	5	4	[0, 0, 0]	n/a	FR1	0	R1113T
964.836	2.633	-1	WORD	n/a	wordpools/wordpool_EN.txt	FOX	6	4	[0, 0, 0]	n/a	FR1	0	R1113T
967.469	2.568	-1	WORD	n/a	wordpools/wordpool_EN.txt	BOWL	7	4	[0, 0, 0]	n/a	FR1	0	R1113T
970.037	2.601	-1	WORD	n/a	wordpools/wordpool_EN.txt	CROW	8	4	[0, 0, 0]	n/a	FR1	0	R1113T
972.638	2.533	-1	WORD	n/a	wordpools/wordpool_EN.txt	TREE	9	4	[0, 0, 0]	n/a	FR1	0	R1113T
975.171	2.534	-1	WORD	n/a	wordpools/wordpool_EN.txt	BEAR	10	4	[0, 0, 0]	n/a	FR1	0	R1113T
977.705	2.466	-1	WORD	n/a	wordpools/wordpool_EN.txt	SHOE	11	4	[0, 0, 0]	n/a	FR1	0	R1113T
980.171	1.601	-1	WORD	n/a	wordpools/wordpool_EN.txt	PEA	12	4	[0, 0, 0]	n/a	FR1	0	R1113T
981.772	0.001	-1	DISTRACT_START	n/a	n/a	n/a	-999	4	[0, 0, 0]	n/a	FR1	0	R1113T
981.773	0.016	-1	START	n/a	n/a	n/a	-999	4	[-999, -999, -999]	n/a	FR1	0	R1113T
981.789	7.002	-1	PROB	7.002	n/a	n/a	-999	4	[2, 8, 1]	11	FR1	0	R1113T
988.791	8.018	-1	PROB	8.018	n/a	n/a	-999	4	[2, 3, 6]	11	FR1	0	R1113T
996.809	7.256	-1	PROB	7.256	n/a	n/a	-999	4	[2, 3, 4]	9	FR1	0	R1113T
1004.065	0.011	-1	STOP	n/a	n/a	n/a	-999	4	[-999, -999, -999]	n/a	FR1	0	R1113T
1004.076	1.067	-1	DISTRACT_END	n/a	n/a	n/a	-999	4	[0, 0, 0]	n/a	FR1	0	R1113T
1005.143	5.968	-1	REC_START	n/a	n/a	n/a	-999	4	[0, 0, 0]	n/a	FR1	0	R1113T
1011.111	2.216	-1	REC_WORD	2.216	n/a	BROOM	-999	4	[0, 0, 0]	n/a	FR1	0	R1113T
1013.327	2.987	-1	REC_WORD	2.987	n/a	PANTS	-999	4	[0, 0, 0]	n/a	FR1	0	R1113T
1016.314	2.312	-1	REC_WORD	2.312	n/a	BEAR	-999	4	[0, 0, 0]	n/a	FR1	0	R1113T
1018.626	16.528	-1	REC_WORD	16.528	n/a	PEA	-999	4	[0, 0, 0]	n/a	FR1	0	R1113T
1035.154	2.796	-1	REC_END	n/a	n/a	n/a	-999	4	[0, 0, 0]	n/a	FR1	0	R1113T
1037.95	0.0	-1	TRIAL	n/a	n/a	n/a	-999	5	[0, 0, 0]	n/a	FR1	0	R1113T
1037.95	10.428	-1	COUNTDOWN_START	n/a	n/a	n/a	-999	5	[0, 0, 0]	n/a	FR1	0	R1113T
1048.378	0.006	-1	COUNTDOWN_END	n/a	n/a	n/a	-999	5	[0, 0, 0]	n/a	FR1	0	R1113T
1048.384	2.401	-1	ORIENT	n/a	n/a	n/a	-999	5	[0, 0, 0]	n/a	FR1	0	R1113T
1050.785	2.5	-1	WORD	n/a	wordpools/wordpool_EN.txt	CLOWN	1	5	[0, 0, 0]	n/a	FR1	0	R1113T
1053.285	2.618	-1	WORD	n/a	wordpools/wordpool_EN.txt	BOOT	2	5	[0, 0, 0]	n/a	FR1	0	R1113T
1055.903	2.383	-1	WORD	n/a	wordpools/wordpool_EN.txt	WORM	3	5	[0, 0, 0]	n/a	FR1	0	R1113T
1058.286	2.518	-1	WORD	n/a	wordpools/wordpool_EN.txt	DEER	4	5	[0, 0, 0]	n/a	FR1	0	R1113T
1060.804	2.516	-1	WORD	n/a	wordpools/wordpool_EN.txt	HAWK	5	5	[0, 0, 0]	n/a	FR1	0	R1113T
1063.32	2.501	-1	WORD	n/a	wordpools/wordpool_EN.txt	CROWN	6	5	[0, 0, 0]	n/a	FR1	0	R1113T
1065.821	2.416	-1	WORD	n/a	wordpools/wordpool_EN.txt	PIT	7	5	[0, 0, 0]	n/a	FR1	0	R1113T
1068.237	2.585	-1	WORD	n/a	wordpools/wordpool_EN.txt	FISH	8	5	[0, 0, 0]	n/a	FR1	0	R1113T
1070.822	2.617	-1	WORD	n/a	wordpools/wordpool_EN.txt	MOUSE	9	5	[0, 0, 0]	n/a	FR1	0	R1113T
1073.439	2.384	-1	WORD	n/a	wordpools/wordpool_EN.txt	STEAK	10	5	[0, 0, 0]	n/a	FR1	0	R1113T
1075.823	2.583	-1	WORD	n/a	wordpools/wordpool_EN.txt	TAIL	11	5	[0, 0, 0]	n/a	FR1	0	R1113T
1078.406	1.618	-1	WORD	n/a	wordpools/wordpool_EN.txt	WORLD	12	5	[0, 0, 0]	n/a	FR1	0	R1113T
1080.024	0.001	-1	DISTRACT_START	n/a	n/a	n/a	-999	5	[0, 0, 0]	n/a	FR1	0	R1113T
1080.025	0.016	-1	START	n/a	n/a	n/a	-999	5	[-999, -999, -999]	n/a	FR1	0	R1113T
1080.041	9.117	-1	PROB	9.117	n/a	n/a	-999	5	[8, 5, 9]	22	FR1	0	R1113T
1089.158	6.886	-1	PROB	6.886	n/a	n/a	-999	5	[8, 1, 6]	15	FR1	0	R1113T
1096.044	9.95	-1	PROB	9.95	n/a	n/a	-999	5	[9, 3, 5]	17	FR1	0	R1113T
1105.994	0.018	-1	STOP	n/a	n/a	n/a	-999	5	[-999, -999, -999]	n/a	FR1	0	R1113T
1106.012	1.217	-1	DISTRACT_END	n/a	n/a	n/a	-999	5	[0, 0, 0]	n/a	FR1	0	R1113T
1107.229	5.563	-1	REC_START	n/a	n/a	n/a	-999	5	[0, 0, 0]	n/a	FR1	0	R1113T
1112.792	2.277	-1	REC_WORD	2.277	n/a	CLOWN	-999	5	[0, 0, 0]	n/a	FR1	0	R1113T
1115.069	2.58	-1	REC_WORD	2.58	n/a	FISH	-999	5	[0, 0, 0]	n/a	FR1	0	R1113T
1117.649	7.143	-1	REC_WORD	7.143	n/a	CROWN	-999	5	[0, 0, 0]	n/a	FR1	0	R1113T
1124.792	12.449	-1	REC_WORD	12.449	n/a	BOOT	-999	5	[0, 0, 0]	n/a	FR1	0	R1113T
1137.241	2.876	-1	REC_END	n/a	n/a	n/a	-999	5	[0, 0, 0]	n/a	FR1	0	R1113T
1140.117	0.0	-1	COUNTDOWN_START	n/a	n/a	n/a	-999	6	[0, 0, 0]	n/a	FR1	0	R1113T
1140.117	10.428	-1	TRIAL	n/a	n/a	n/a	-999	6	[0, 0, 0]	n/a	FR1	0	R1113T
1150.545	0.008	-1	COUNTDOWN_END	n/a	n/a	n/a	-999	6	[0, 0, 0]	n/a	FR1	0	R1113T
1150.553	2.401	-1	ORIENT	n/a	n/a	n/a	-999	6	[0, 0, 0]	n/a	FR1	0	R1113T
1152.954	2.383	-1	WORD	n/a	wordpools/wordpool_EN.txt	JUICE	1	6	[0, 0, 0]	n/a	FR1	0	R1113T
1155.337	2.568	-1	WORD	n/a	wordpools/wordpool_EN.txt	SPONGE	2	6	[0, 0, 0]	n/a	FR1	0	R1113T
1157.905	2.566	-1	WORD	n/a	wordpools/wordpool_EN.txt	SOAP	3	6	[0, 0, 0]	n/a	FR1	0	R1113T
1160.471	2.484	-1	WORD	n/a	wordpools/wordpool_EN.txt	FROG	4	6	[0, 0, 0]	n/a	FR1	0	R1113T
1162.955	2.534	-1	WORD	n/a	wordpools/wordpool_EN.txt	ROOM	5	6	[0, 0, 0]	n/a	FR1	0	R1113T
1165.489	2.583	-1	WORD	n/a	wordpools/wordpool_EN.txt	PALM	6	6	[0, 0, 0]	n/a	FR1	0	R1113T
1168.072	2.451	-1	WORD	n/a	wordpools/wordpool_EN.txt	SEA	7	6	[0, 0, 0]	n/a	FR1	0	R1113T
1170.523	2.567	-1	WORD	n/a	wordpools/wordpool_EN.txt	TEETH	8	6	[0, 0, 0]	n/a	FR1	0	R1113T
1173.09	2.551	-1	WORD	n/a	wordpools/wordpool_EN.txt	PLATE	9	6	[0, 0, 0]	n/a	FR1	0	R1113T
1175.641	2.5	-1	WORD	n/a	wordpools/wordpool_EN.txt	TOOTH	10	6	[0, 0, 0]	n/a	FR1	0	R1113T
1178.141	2.468	-1	WORD	n/a	wordpools/wordpool_EN.txt	SNAIL	11	6	[0, 0, 0]	n/a	FR1	0	R1113T
1180.609	1.616	-1	WORD	n/a	wordpools/wordpool_EN.txt	SALT	12	6	[0, 0, 0]	n/a	FR1	0	R1113T
1182.225	0.001	-1	DISTRACT_START	n/a	n/a	n/a	-999	6	[0, 0, 0]	n/a	FR1	0	R1113T
1182.226	0.016	-1	START	n/a	n/a	n/a	-999	6	[-999, -999, -999]	n/a	FR1	0	R1113T
1182.242	7.569	-1	PROB	7.569	n/a	n/a	-999	6	[1, 9, 1]	11	FR1	0	R1113T
1189.811	7.667	-1	PROB	7.667	n/a	n/a	-999	6	[2, 1, 6]	9	FR1	0	R1113T
1197.478	22.027	-1	PROB	22.027	n/a	n/a	-999	6	[3, 9, 7]	20	FR1	0	R1113T
1219.505	0.01	-1	STOP	n/a	n/a	n/a	-999	6	[-999, -999, -999]	n/a	FR1	0	R1113T
1219.515	1.102	-1	DISTRACT_END	n/a	n/a	n/a	-999	6	[0, 0, 0]	n/a	FR1	0	R1113T
1220.617	6.622	-1	REC_START	n/a	n/a	n/a	-999	6	[0, 0, 0]	n/a	FR1	0	R1113T
1227.239	2.957	-1	REC_WORD	2.957	n/a	TEETH	-999	6	[0, 0, 0]	n/a	FR1	0	R1113T
1230.196	20.432	-1	REC_WORD	20.432	n/a	TOOTH	-999	6	[0, 0, 0]	n/a	FR1	0	R1113T
1250.628	3.211	-1	REC_END	n/a	n/a	n/a	-999	6	[0, 0, 0]	n/a	FR1	0	R1113T
1253.839	0.0	-1	TRIAL	n/a	n/a	n/a	-999	7	[0, 0, 0]	n/a	FR1	0	R1113T
1253.839	10.428	-1	COUNTDOWN_START	n/a	n/a	n/a	-999	7	[0, 0, 0]	n/a	FR1	0	R1113T
1264.267	0.006	-1	COUNTDOWN_END	n/a	n/a	n/a	-999	7	[0, 0, 0]	n/a	FR1	0	R1113T
1264.273	2.585	-1	ORIENT	n/a	n/a	n/a	-999	7	[0, 0, 0]	n/a	FR1	0	R1113T
1266.858	2.433	-1	WORD	n/a	wordpools/wordpool_EN.txt	JAR	1	7	[0, 0, 0]	n/a	FR1	0	R1113T
1269.291	2.501	-1	WORD	n/a	wordpools/wordpool_EN.txt	MILK	2	7	[0, 0, 0]	n/a	FR1	0	R1113T
1271.792	2.583	-1	WORD	n/a	wordpools/wordpool_EN.txt	STORM	3	7	[0, 0, 0]	n/a	FR1	0	R1113T
1274.375	2.485	-1	WORD	n/a	wordpools/wordpool_EN.txt	DITCH	4	7	[0, 0, 0]	n/a	FR1	0	R1113T
1276.86	2.549	-1	WORD	n/a	wordpools/wordpool_EN.txt	FLEA	5	7	[0, 0, 0]	n/a	FR1	0	R1113T
1279.409	2.518	-1	WORD	n/a	wordpools/wordpool_EN.txt	MOTH	6	7	[0, 0, 0]	n/a	FR1	0	R1113T
1281.927	2.618	-1	WORD	n/a	wordpools/wordpool_EN.txt	STRAW	7	7	[0, 0, 0]	n/a	FR1	0	R1113T
1284.545	2.599	-1	WORD	n/a	wordpools/wordpool_EN.txt	SOUP	8	7	[0, 0, 0]	n/a	FR1	0	R1113T
1287.144	2.501	-1	WORD	n/a	wordpools/wordpool_EN.txt	CHEEK	9	7	[0, 0, 0]	n/a	FR1	0	R1113T
1289.645	2.45	-1	WORD	n/a	wordpools/wordpool_EN.txt	RAKE	10	7	[0, 0, 0]	n/a	FR1	0	R1113T
1292.095	2.585	-1	WORD	n/a	wordpools/wordpool_EN.txt	ARK	11	7	[0, 0, 0]	n/a	FR1	0	R1113T
1294.68	1.616	-1	WORD	n/a	wordpools/wordpool_EN.txt	FRUIT	12	7	[0, 0, 0]	n/a	FR1	0	R1113T
1296.296	0.001	-1	DISTRACT_START	n/a	n/a	n/a	-999	7	[0, 0, 0]	n/a	FR1	0	R1113T
1296.297	0.015	-1	START	n/a	n/a	n/a	-999	7	[-999, -999, -999]	n/a	FR1	0	R1113T
1296.312	8.185	-1	PROB	8.185	n/a	n/a	-999	7	[2, 7, 8]	17	FR1	0	R1113T
1304.497	8.652	-1	PROB	8.652	n/a	n/a	-999	7	[8, 1, 4]	13	FR1	0	R1113T
1313.149	10.445	-1	PROB	10.445	n/a	n/a	-999	7	[7, 2, 8]	17	FR1	0	R1113T
1323.594	0.008	-1	STOP	n/a	n/a	n/a	-999	7	[-999, -999, -999]	n/a	FR1	0	R1113T
1323.602	1.034	-1	DISTRACT_END	n/a	n/a	n/a	-999	7	[0, 0, 0]	n/a	FR1	0	R1113T
1324.636	4.332	-1	REC_START	n/a	n/a	n/a	-999	7	[0, 0, 0]	n/a	FR1	0	R1113T
1328.968	1.631	-1	REC_WORD	1.631	n/a	JAR	-999	7	[0, 0, 0]	n/a	FR1	0	R1113T
1330.599	2.32	-1	REC_WORD	2.32	n/a	MILK	-999	7	[0, 0, 0]	n/a	FR1	0	R1113T
1332.919	21.729	-1	REC_WORD	21.729	n/a	STORM	-999	7	[0, 0, 0]	n/a	FR1	0	R1113T
1354.648	2.642	-1	REC_END	n/a	n/a	n/a	-999	7	[0, 0, 0]	n/a	FR1	0	R1113T
1357.29	0.001	-1	COUNTDOWN_START	n/a	n/a	n/a	-999	8	[0, 0, 0]	n/a	FR1	0	R1113T
1357.291	10.427	-1	TRIAL	n/a	n/a	n/a	-999	8	[0, 0, 0]	n/a	FR1	0	R1113T
1367.718	0.008	-1	COUNTDOWN_END	n/a	n/a	n/a	-999	8	[0, 0, 0]	n/a	FR1	0	R1113T
1367.726	2.583	-1	ORIENT	n/a	n/a	n/a	-999	8	[0, 0, 0]	n/a	FR1	0	R1113T
1370.309	2.452	-1	WORD	n/a	wordpools/wordpool_EN.txt	POND	1	8	[0, 0, 0]	n/a	FR1	0	R1113T
1372.761	2.449	-1	WORD	n/a	wordpools/wordpool_EN.txt	COW	2	8	[0, 0, 0]	n/a	FR1	0	R1113T
1375.21	2.602	-1	WORD	n/a	wordpools/wordpool_EN.txt	BOY	3	8	[0, 0, 0]	n/a	FR1	0	R1113T
1377.812	2.599	-1	WORD	n/a	wordpools/wordpool_EN.txt	HEART	4	8	[0, 0, 0]	n/a	FR1	0	R1113T
1380.411	2.485	-1	WORD	n/a	wordpools/wordpool_EN.txt	CORD	5	8	[0, 0, 0]	n/a	FR1	0	R1113T
1382.896	2.466	-1	WORD	n/a	wordpools/wordpool_EN.txt	FOAM	6	8	[0, 0, 0]	n/a	FR1	0	R1113T
1385.362	2.401	-1	WORD	n/a	wordpools/wordpool_EN.txt	PEAR	7	8	[0, 0, 0]	n/a	FR1	0	R1113T
1387.763	2.45	-1	WORD	n/a	wordpools/wordpool_EN.txt	BED	8	8	[0, 0, 0]	n/a	FR1	0	R1113T
1390.213	2.618	-1	WORD	n/a	wordpools/wordpool_EN.txt	EGG	9	8	[0, 0, 0]	n/a	FR1	0	R1113T
1392.831	2.533	-1	WORD	n/a	wordpools/wordpool_EN.txt	TOAST	10	8	[0, 0, 0]	n/a	FR1	0	R1113T
1395.364	2.401	-1	WORD	n/a	wordpools/wordpool_EN.txt	HILL	11	8	[0, 0, 0]	n/a	FR1	0	R1113T
1397.765	1.616	-1	WORD	n/a	wordpools/wordpool_EN.txt	TOY	12	8	[0, 0, 0]	n/a	FR1	0	R1113T
1399.381	0.001	-1	DISTRACT_START	n/a	n/a	n/a	-999	8	[0, 0, 0]	n/a	FR1	0	R1113T
1399.382	0.016	-1	START	n/a	n/a	n/a	-999	8	[-999, -999, -999]	n/a	FR1	0	R1113T
1399.398	7.001	-1	PROB	7.001	n/a	n/a	-999	8	[5, 6, 1]	12	FR1	0	R1113T
1406.399	18.818	-1	PROB	18.818	n/a	n/a	-999	8	[9, 7, 8]	24	FR1	0	R1113T
1425.217	0.019	-1	STOP	n/a	n/a	n/a	-999	8	[-999, -999, -999]	n/a	FR1	0	R1113T
1425.236	1.184	-1	DISTRACT_END	n/a	n/a	n/a	-999	8	[0, 0, 0]	n/a	FR1	0	R1113T
1426.42	2.288	-1	REC_START	n/a	n/a	n/a	-999	8	[0, 0, 0]	n/a	FR1	0	R1113T
1428.708	1.401	-1	REC_WORD	1.401	n/a	POND	-999	8	[0, 0, 0]	n/a	FR1	0	R1113T
1430.109	2.039	-1	REC_WORD	2.039	n/a	COW	-999	8	[0, 0, 0]	n/a	FR1	0	R1113T
1432.148	1.442	-1	REC_WORD	1.442	n/a	BOY	-999	8	[0, 0, 0]	n/a	FR1	0	R1113T
1433.59	22.842	-1	REC_WORD	22.842	n/a	HEART	-999	8	[0, 0, 0]	n/a	FR1	0	R1113T
1456.432	2.361	-1	REC_END	n/a	n/a	n/a	-999	8	[0, 0, 0]	n/a	FR1	0	R1113T
1458.793	0.0	-1	TRIAL	n/a	n/a	n/a	-999	9	[0, 0, 0]	n/a	FR1	0	R1113T
1458.793	10.428	-1	COUNTDOWN_START	n/a	n/a	n/a	-999	9	[0, 0, 0]	n/a	FR1	0	R1113T
1469.221	0.006	-1	COUNTDOWN_END	n/a	n/a	n/a	-999	9	[0, 0, 0]	n/a	FR1	0	R1113T
1469.227	2.568	-1	ORIENT	n/a	n/a	n/a	-999	9	[0, 0, 0]	n/a	FR1	0	R1113T
1471.795	2.567	-1	WORD	n/a	wordpools/wordpool_EN.txt	STRING	1	9	[0, 0, 0]	n/a	FR1	0	R1113T
1474.362	2.418	-1	WORD	n/a	wordpools/wordpool_EN.txt	BOAT	2	9	[0, 0, 0]	n/a	FR1	0	R1113T
1476.78	2.582	-1	WORD	n/a	wordpools/wordpool_EN.txt	HEN	3	9	[0, 0, 0]	n/a	FR1	0	R1113T
1479.362	2.485	-1	WORD	n/a	wordpools/wordpool_EN.txt	CLIFF	4	9	[0, 0, 0]	n/a	FR1	0	R1113T
1481.847	2.416	-1	WORD	n/a	wordpools/wordpool_EN.txt	STEAM	5	9	[0, 0, 0]	n/a	FR1	0	R1113T
1484.263	2.368	-1	WORD	n/a	wordpools/wordpool_EN.txt	CHALK	6	9	[0, 0, 0]	n/a	FR1	0	R1113T
1486.631	2.583	-1	WORD	n/a	wordpools/wordpool_EN.txt	STONE	7	9	[0, 0, 0]	n/a	FR1	0	R1113T
1489.214	2.368	-1	WORD	n/a	wordpools/wordpool_EN.txt	SHEET	8	9	[0, 0, 0]	n/a	FR1	0	R1113T
1491.582	2.533	-1	WORD	n/a	wordpools/wordpool_EN.txt	OWL	9	9	[0, 0, 0]	n/a	FR1	0	R1113T
1494.115	2.602	-1	WORD	n/a	wordpools/wordpool_EN.txt	PEN	10	9	[0, 0, 0]	n/a	FR1	0	R1113T
1496.717	2.466	-1	WORD	n/a	wordpools/wordpool_EN.txt	WHALE	11	9	[0, 0, 0]	n/a	FR1	0	R1113T
1499.183	1.618	-1	WORD	n/a	wordpools/wordpool_EN.txt	GRASS	12	9	[0, 0, 0]	n/a	FR1	0	R1113T
1500.801	0.001	-1	DISTRACT_START	n/a	n/a	n/a	-999	9	[0, 0, 0]	n/a	FR1	0	R1113T
1500.802	0.015	-1	START	n/a	n/a	n/a	-999	9	[-999, -999, -999]	n/a	FR1	0	R1113T
1500.817	14.485	-1	PROB	14.485	n/a	n/a	-999	9	[6, 8, 9]	23	FR1	0	R1113T
1515.302	4.385	-1	PROB	4.385	n/a	n/a	-999	9	[1, 7, 1]	9	FR1	0	R1113T
1519.687	6.891	-1	PROB	6.891	n/a	n/a	-999	9	[2, 2, 4]	8	FR1	0	R1113T
1526.578	0.011	-1	STOP	n/a	n/a	n/a	-999	9	[-999, -999, -999]	n/a	FR1	0	R1113T
1526.589	1.167	-1	DISTRACT_END	n/a	n/a	n/a	-999	9	[0, 0, 0]	n/a	FR1	0	R1113T
1527.756	3.751	-1	REC_START	n/a	n/a	n/a	-999	9	[0, 0, 0]	n/a	FR1	0	R1113T
1531.507	1.475	-1	REC_WORD	1.475	n/a	BOAT	-999	9	[0, 0, 0]	n/a	FR1	0	R1113T
1532.982	1.866	-1	REC_WORD	1.866	n/a	WHALE	-999	9	[0, 0, 0]	n/a	FR1	0	R1113T
1534.848	1.756	-1	REC_WORD	1.756	n/a	PEN	-999	9	[0, 0, 0]	n/a	FR1	0	R1113T
1536.604	21.164	-1	REC_WORD	21.164	n/a	STRING	-999	9	[0, 0, 0]	n/a	FR1	0	R1113T
1557.768	2.692	-1	REC_END	n/a	n/a	n/a	-999	9	[0, 0, 0]	n/a	FR1	0	R1113T
1560.46	0.001	-1	COUNTDOWN_START	n/a	n/a	n/a	-999	10	[0, 0, 0]	n/a	FR1	0	R1113T
1560.461	10.427	-1	TRIAL	n/a	n/a	n/a	-999	10	[0, 0, 0]	n/a	FR1	0	R1113T
1570.888	0.009	-1	COUNTDOWN_END	n/a	n/a	n/a	-999	10	[0, 0, 0]	n/a	FR1	0	R1113T
1570.897	2.599	-1	ORIENT	n/a	n/a	n/a	-999	10	[0, 0, 0]	n/a	FR1	0	R1113T
1573.496	2.402	-1	WORD	n/a	wordpools/wordpool_EN.txt	BRICK	1	10	[0, 0, 0]	n/a	FR1	0	R1113T
1575.898	2.466	-1	WORD	n/a	wordpools/wordpool_EN.txt	CRANE	2	10	[0, 0, 0]	n/a	FR1	0	R1113T
1578.364	2.501	-1	WORD	n/a	wordpools/wordpool_EN.txt	TOOL	3	10	[0, 0, 0]	n/a	FR1	0	R1113T
1580.865	2.516	-1	WORD	n/a	wordpools/wordpool_EN.txt	HOSE	4	10	[0, 0, 0]	n/a	FR1	0	R1113T
1583.381	2.452	-1	WORD	n/a	wordpools/wordpool_EN.txt	AXE	5	10	[0, 0, 0]	n/a	FR1	0	R1113T
1585.833	2.416	-1	WORD	n/a	wordpools/wordpool_EN.txt	THUMB	6	10	[0, 0, 0]	n/a	FR1	0	R1113T
1588.249	2.535	-1	WORD	n/a	wordpools/wordpool_EN.txt	VINE	7	10	[0, 0, 0]	n/a	FR1	0	R1113T
1590.784	2.449	-1	WORD	n/a	wordpools/wordpool_EN.txt	SUIT	8	10	[0, 0, 0]	n/a	FR1	0	R1113T
1593.233	2.385	-1	WORD	n/a	wordpools/wordpool_EN.txt	WOOD	9	10	[0, 0, 0]	n/a	FR1	0	R1113T
1595.618	2.516	-1	WORD	n/a	wordpools/wordpool_EN.txt	PIPE	10	10	[0, 0, 0]	n/a	FR1	0	R1113T
1598.134	2.551	-1	WORD	n/a	wordpools/wordpool_EN.txt	OAK	11	10	[0, 0, 0]	n/a	FR1	0	R1113T
1600.685	1.616	-1	WORD	n/a	wordpools/wordpool_EN.txt	EEL	12	10	[0, 0, 0]	n/a	FR1	0	R1113T
1602.301	0.001	-1	DISTRACT_START	n/a	n/a	n/a	-999	10	[0, 0, 0]	n/a	FR1	0	R1113T
1602.302	0.016	-1	START	n/a	n/a	n/a	-999	10	[-999, -999, -999]	n/a	FR1	0	R1113T
1602.318	10.002	-1	PROB	10.002	n/a	n/a	-999	10	[8, 2, 9]	19	FR1	0	R1113T
1612.32	9.603	-1	PROB	9.603	n/a	n/a	-999	10	[2, 4, 7]	13	FR1	0	R1113T
1621.923	10.871	-1	PROB	10.871	n/a	n/a	-999	10	[9, 8, 5]	22	FR1	0	R1113T
1632.794	0.014	-1	STOP	n/a	n/a	n/a	-999	10	[-999, -999, -999]	n/a	FR1	0	R1113T
1632.808	1.201	-1	DISTRACT_END	n/a	n/a	n/a	-999	10	[0, 0, 0]	n/a	FR1	0	R1113T
1634.009	4.062	-1	REC_START	n/a	n/a	n/a	-999	10	[0, 0, 0]	n/a	FR1	0	R1113T
1638.071	1.896	-1	REC_WORD	1.896	n/a	TOOL	-999	10	[0, 0, 0]	n/a	FR1	0	R1113T
1639.967	2.13	-1	REC_WORD	2.13	n/a	HOSE	-999	10	[0, 0, 0]	n/a	FR1	0	R1113T
1642.097	4.876	-1	REC_WORD	4.876	n/a	AXE	-999	10	[0, 0, 0]	n/a	FR1	0	R1113T
1646.973	17.048	-1	REC_WORD	17.048	n/a	WOOD	-999	10	[0, 0, 0]	n/a	FR1	0	R1113T
1664.021	2.475	-1	REC_END	n/a	n/a	n/a	-999	10	[0, 0, 0]	n/a	FR1	0	R1113T
1666.496	0.001	-1	COUNTDOWN_START	n/a	n/a	n/a	-999	11	[0, 0, 0]	n/a	FR1	0	R1113T
1666.497	10.427	-1	TRIAL	n/a	n/a	n/a	-999	11	[0, 0, 0]	n/a	FR1	0	R1113T
1676.924	0.009	-1	COUNTDOWN_END	n/a	n/a	n/a	-999	11	[0, 0, 0]	n/a	FR1	0	R1113T
1676.933	2.399	-1	ORIENT	n/a	n/a	n/a	-999	11	[0, 0, 0]	n/a	FR1	0	R1113T
1679.332	2.585	-1	WORD	n/a	wordpools/wordpool_EN.txt	SKI	1	11	[0, 0, 0]	n/a	FR1	0	R1113T
1681.917	2.466	-1	WORD	n/a	wordpools/wordpool_EN.txt	SHRIMP	2	11	[0, 0, 0]	n/a	FR1	0	R1113T
1684.383	2.435	-1	WORD	n/a	wordpools/wordpool_EN.txt	PLANE	3	11	[0, 0, 0]	n/a	FR1	0	R1113T
1686.818	2.616	-1	WORD	n/a	wordpools/wordpool_EN.txt	DART	4	11	[0, 0, 0]	n/a	FR1	0	R1113T
1689.434	2.535	-1	WORD	n/a	wordpools/wordpool_EN.txt	CLAY	5	11	[0, 0, 0]	n/a	FR1	0	R1113T
1691.969	2.382	-1	WORD	n/a	wordpools/wordpool_EN.txt	CLOUD	6	11	[0, 0, 0]	n/a	FR1	0	R1113T
1694.351	2.385	-1	WORD	n/a	wordpools/wordpool_EN.txt	BALL	7	11	[0, 0, 0]	n/a	FR1	0	R1113T
1696.736	2.383	-1	WORD	n/a	wordpools/wordpool_EN.txt	BOMB	8	11	[0, 0, 0]	n/a	FR1	0	R1113T
1699.119	2.418	-1	WORD	n/a	wordpools/wordpool_EN.txt	MOON	9	11	[0, 0, 0]	n/a	FR1	0	R1113T
1701.537	2.583	-1	WORD	n/a	wordpools/wordpool_EN.txt	WHEEL	10	11	[0, 0, 0]	n/a	FR1	0	R1113T
1704.12	2.501	-1	WORD	n/a	wordpools/wordpool_EN.txt	FILM	11	11	[0, 0, 0]	n/a	FR1	0	R1113T
1706.621	1.616	-1	WORD	n/a	wordpools/wordpool_EN.txt	BAT	12	11	[0, 0, 0]	n/a	FR1	0	R1113T
1708.237	0.001	-1	DISTRACT_START	n/a	n/a	n/a	-999	11	[0, 0, 0]	n/a	FR1	0	R1113T
1708.238	0.016	-1	START	n/a	n/a	n/a	-999	11	[-999, -999, -999]	n/a	FR1	0	R1113T
1708.254	11.135	-1	PROB	11.135	n/a	n/a	-999	11	[7, 7, 8]	22	FR1	0	R1113T
1719.389	11.669	-1	PROB	11.669	n/a	n/a	-999	11	[2, 2, 6]	10	FR1	0	R1113T
1731.058	0.017	-1	STOP	n/a	n/a	n/a	-999	11	[-999, -999, -999]	n/a	FR1	0	R1113T
1731.075	1.184	-1	DISTRACT_END	n/a	n/a	n/a	-999	11	[0, 0, 0]	n/a	FR1	0	R1113T
1732.259	2.226	-1	REC_START	n/a	n/a	n/a	-999	11	[0, 0, 0]	n/a	FR1	0	R1113T
1734.485	2.033	-1	REC_WORD	2.033	n/a	SKI	-999	11	[0, 0, 0]	n/a	FR1	0	R1113T
1736.518	1.77	-1	REC_WORD	1.77	n/a	PLANE	-999	11	[0, 0, 0]	n/a	FR1	0	R1113T
1738.288	1.729	-1	REC_WORD	1.729	n/a	DART	-999	11	[0, 0, 0]	n/a	FR1	0	R1113T
1740.017	22.254	-1	REC_WORD	22.254	n/a	MOON	-999	11	[0, 0, 0]	n/a	FR1	0	R1113T
1762.271	7.462	-1	REC_END	n/a	n/a	n/a	-999	11	[0, 0, 0]	n/a	FR1	0	R1113T
1769.733	0.0	-1	TRIAL	n/a	n/a	n/a	-999	12	[0, 0, 0]	n/a	FR1	0	R1113T
1769.733	10.428	-1	COUNTDOWN_START	n/a	n/a	n/a	-999	12	[0, 0, 0]	n/a	FR1	0	R1113T
1780.161	0.006	-1	COUNTDOWN_END	n/a	n/a	n/a	-999	12	[0, 0, 0]	n/a	FR1	0	R1113T
1780.167	2.618	-1	ORIENT	n/a	n/a	n/a	-999	12	[0, 0, 0]	n/a	FR1	0	R1113T
1782.785	2.583	-1	WORD	n/a	wordpools/wordpool_EN.txt	RAT	1	12	[0, 0, 0]	n/a	FR1	0	R1113T
1785.368	2.451	-1	WORD	n/a	wordpools/wordpool_EN.txt	CAT	2	12	[0, 0, 0]	n/a	FR1	0	R1113T
1787.819	2.483	-1	WORD	n/a	wordpools/wordpool_EN.txt	ANT	3	12	[0, 0, 0]	n/a	FR1	0	R1113T
1790.302	2.535	-1	WORD	n/a	wordpools/wordpool_EN.txt	FOOD	4	12	[0, 0, 0]	n/a	FR1	0	R1113T
1792.837	2.566	-1	WORD	n/a	wordpools/wordpool_EN.txt	STORE	5	12	[0, 0, 0]	n/a	FR1	0	R1113T
1795.403	2.618	-1	WORD	n/a	wordpools/wordpool_EN.txt	BANK	6	12	[0, 0, 0]	n/a	FR1	0	R1113T
1798.021	2.4	-1	WORD	n/a	wordpools/wordpool_EN.txt	DUCK	7	12	[0, 0, 0]	n/a	FR1	0	R1113T
1800.421	2.401	-1	WORD	n/a	wordpools/wordpool_EN.txt	PIG	8	12	[0, 0, 0]	n/a	FR1	0	R1113T
1802.822	2.583	-1	WORD	n/a	wordpools/wordpool_EN.txt	GEESE	9	12	[0, 0, 0]	n/a	FR1	0	R1113T
1805.405	2.401	-1	WORD	n/a	wordpools/wordpool_EN.txt	WOLF	10	12	[0, 0, 0]	n/a	FR1	0	R1113T
1807.806	2.416	-1	WORD	n/a	wordpools/wordpool_EN.txt	FLUTE	11	12	[0, 0, 0]	n/a	FR1	0	R1113T
1810.222	1.602	-1	WORD	n/a	wordpools/wordpool_EN.txt	LAMB	12	12	[0, 0, 0]	n/a	FR1	0	R1113T
1811.824	0.0	-1	DISTRACT_START	n/a	n/a	n/a	-999	12	[0, 0, 0]	n/a	FR1	0	R1113T
1811.824	0.016	-1	START	n/a	n/a	n/a	-999	12	[-999, -999, -999]	n/a	FR1	0	R1113T
1811.84	15.352	-1	PROB	15.352	n/a	n/a	-999	12	[9, 8, 6]	23	FR1	0	R1113T
1827.192	7.754	-1	PROB	7.754	n/a	n/a	-999	12	[8, 9, 1]	18	FR1	0	R1113T
1834.946	0.015	-1	STOP	n/a	n/a	n/a	-999	12	[-999, -999, -999]	n/a	FR1	0	R1113T
1834.961	1.1	-1	DISTRACT_END	n/a	n/a	n/a	-999	12	[0, 0, 0]	n/a	FR1	0	R1113T
1836.061	2.038	-1	REC_START	n/a	n/a	n/a	-999	12	[0, 0, 0]	n/a	FR1	0	R1113T
1838.099	1.542	-1	REC_WORD	1.542	n/a	RAT	-999	12	[0, 0, 0]	n/a	FR1	0	R1113T
1839.641	2.495	-1	REC_WORD	2.495	n/a	CAT	-999	12	[0, 0, 0]	n/a	FR1	0	R1113T
1842.136	1.989	-1	REC_WORD	1.989	n/a	ANT	-999	12	[0, 0, 0]	n/a	FR1	0	R1113T
1844.125	2.125	-1	REC_WORD	2.125	n/a	FOOD	-999	12	[0, 0, 0]	n/a	FR1	0	R1113T
1846.25	2.591	-1	REC_WORD	2.591	n/a	PIG	-999	12	[0, 0, 0]	n/a	FR1	0	R1113T
1848.841	17.235	-1	REC_WORD	17.235	n/a	GEESE	-999	12	[0, 0, 0]	n/a	FR1	0	R1113T
1866.076	3.341	-1	REC_END	n/a	n/a	n/a	-999	12	[0, 0, 0]	n/a	FR1	0	R1113T
1869.417	0.0	-1	TRIAL	n/a	n/a	n/a	-999	13	[0, 0, 0]	n/a	FR1	0	R1113T
1869.417	10.428	-1	COUNTDOWN_START	n/a	n/a	n/a	-999	13	[0, 0, 0]	n/a	FR1	0	R1113T
1879.845	0.008	-1	COUNTDOWN_END	n/a	n/a	n/a	-999	13	[0, 0, 0]	n/a	FR1	0	R1113T
1879.853	2.466	-1	ORIENT	n/a	n/a	n/a	-999	13	[0, 0, 0]	n/a	FR1	0	R1113T
1882.319	2.568	-1	WORD	n/a	wordpools/wordpool_EN.txt	TRAY	1	13	[0, 0, 0]	n/a	FR1	0	R1113T
1884.887	2.616	-1	WORD	n/a	wordpools/wordpool_EN.txt	JET	2	13	[0, 0, 0]	n/a	FR1	0	R1113T
1887.503	2.385	-1	WORD	n/a	wordpools/wordpool_EN.txt	FORK	3	13	[0, 0, 0]	n/a	FR1	0	R1113T
1889.888	2.466	-1	WORD	n/a	wordpools/wordpool_EN.txt	NOSE	4	13	[0, 0, 0]	n/a	FR1	0	R1113T
1892.354	2.468	-1	WORD	n/a	wordpools/wordpool_EN.txt	TEA	5	13	[0, 0, 0]	n/a	FR1	0	R1113T
1894.822	2.55	-1	WORD	n/a	wordpools/wordpool_EN.txt	SHIRT	6	13	[0, 0, 0]	n/a	FR1	0	R1113T
1897.372	2.501	-1	WORD	n/a	wordpools/wordpool_EN.txt	RUG	7	13	[0, 0, 0]	n/a	FR1	0	R1113T
1899.873	2.45	-1	WORD	n/a	wordpools/wordpool_EN.txt	LEG	8	13	[0, 0, 0]	n/a	FR1	0	R1113T
1902.323	2.501	-1	WORD	n/a	wordpools/wordpool_EN.txt	HAT	9	13	[0, 0, 0]	n/a	FR1	0	R1113T
1904.824	2.55	-1	WORD	n/a	wordpools/wordpool_EN.txt	TOE	10	13	[0, 0, 0]	n/a	FR1	0	R1113T
1907.374	2.401	-1	WORD	n/a	wordpools/wordpool_EN.txt	CLOTH	11	13	[0, 0, 0]	n/a	FR1	0	R1113T
1909.775	1.616	-1	WORD	n/a	wordpools/wordpool_EN.txt	RIB	12	13	[0, 0, 0]	n/a	FR1	0	R1113T
1911.391	0.0	-1	DISTRACT_START	n/a	n/a	n/a	-999	13	[0, 0, 0]	n/a	FR1	0	R1113T
1911.391	0.017	-1	START	n/a	n/a	n/a	-999	13	[-999, -999, -999]	n/a	FR1	0	R1113T
1911.408	26.554	-1	PROB	26.554	n/a	n/a	-999	13	[8, 7, 3]	18	FR1	0	R1113T
1937.962	0.018	-1	STOP	n/a	n/a	n/a	-999	13	[-999, -999, -999]	n/a	FR1	0	R1113T
1937.98	1.167	-1	DISTRACT_END	n/a	n/a	n/a	-999	13	[0, 0, 0]	n/a	FR1	0	R1113T
1939.147	3.952	-1	REC_START	n/a	n/a	n/a	-999	13	[0, 0, 0]	n/a	FR1	0	R1113T
1943.099	3.485	-1	REC_WORD	3.485	n/a	TRAY	-999	13	[0, 0, 0]	n/a	FR1	0	R1113T
1946.584	1.802	-1	REC_WORD	1.802	n/a	CLOTH	-999	13	[0, 0, 0]	n/a	FR1	0	R1113T
1948.386	1.482	-1	REC_WORD	1.482	n/a	SHIRT	-999	13	[0, 0, 0]	n/a	FR1	0	R1113T
1949.868	6.944	-1	REC_WORD	6.944	n/a	FORK	-999	13	[0, 0, 0]	n/a	FR1	0	R1113T
1956.812	12.347	-1	REC_WORD	12.347	n/a	TEA	-999	13	[0, 0, 0]	n/a	FR1	0	R1113T
1969.159	2.293	-1	REC_END	n/a	n/a	n/a	-999	13	[0, 0, 0]	n/a	FR1	0	R1113T
1971.452	0.0	-1	TRIAL	n/a	n/a	n/a	-999	14	[0, 0, 0]	n/a	FR1	0	R1113T
1971.452	10.428	-1	COUNTDOWN_START	n/a	n/a	n/a	-999	14	[0, 0, 0]	n/a	FR1	0	R1113T
1981.88	0.008	-1	COUNTDOWN_END	n/a	n/a	n/a	-999	14	[0, 0, 0]	n/a	FR1	0	R1113T
1981.888	2.533	-1	ORIENT	n/a	n/a	n/a	-999	14	[0, 0, 0]	n/a	FR1	0	R1113T
1984.421	2.601	-1	WORD	n/a	wordpools/wordpool_EN.txt	MAP	1	14	[0, 0, 0]	n/a	FR1	0	R1113T
1987.022	2.534	-1	WORD	n/a	wordpools/wordpool_EN.txt	LAKE	2	14	[0, 0, 0]	n/a	FR1	0	R1113T
1989.556	2.616	-1	WORD	n/a	wordpools/wordpool_EN.txt	SNOW	3	14	[0, 0, 0]	n/a	FR1	0	R1113T
1992.172	2.585	-1	WORD	n/a	wordpools/wordpool_EN.txt	TRAIN	4	14	[0, 0, 0]	n/a	FR1	0	R1113T
1994.757	2.516	-1	WORD	n/a	wordpools/wordpool_EN.txt	SKUNK	5	14	[0, 0, 0]	n/a	FR1	0	R1113T
1997.273	2.568	-1	WORD	n/a	wordpools/wordpool_EN.txt	CAPE	6	14	[0, 0, 0]	n/a	FR1	0	R1113T
1999.841	2.483	-1	WORD	n/a	wordpools/wordpool_EN.txt	ICE	7	14	[0, 0, 0]	n/a	FR1	0	R1113T
2002.324	2.602	-1	WORD	n/a	wordpools/wordpool_EN.txt	ROCK	8	14	[0, 0, 0]	n/a	FR1	0	R1113T
2004.926	2.516	-1	WORD	n/a	wordpools/wordpool_EN.txt	RAIN	9	14	[0, 0, 0]	n/a	FR1	0	R1113T
2007.442	2.618	-1	WORD	n/a	wordpools/wordpool_EN.txt	POLE	10	14	[0, 0, 0]	n/a	FR1	0	R1113T
2010.06	2.449	-1	WORD	n/a	wordpools/wordpool_EN.txt	BAND	11	14	[0, 0, 0]	n/a	FR1	0	R1113T
2012.509	1.617	-1	WORD	n/a	wordpools/wordpool_EN.txt	SLIME	12	14	[0, 0, 0]	n/a	FR1	0	R1113T
2014.126	0.001	-1	DISTRACT_START	n/a	n/a	n/a	-999	14	[0, 0, 0]	n/a	FR1	0	R1113T
2014.127	0.016	-1	START	n/a	n/a	n/a	-999	14	[-999, -999, -999]	n/a	FR1	0	R1113T
2014.143	11.168	-1	PROB	11.168	n/a	n/a	-999	14	[3, 4, 6]	13	FR1	0	R1113T
2025.311	17.387	-1	PROB	17.387	n/a	n/a	-999	14	[6, 7, 3]	13	FR1	0	R1113T
2042.698	0.018	-1	STOP	n/a	n/a	n/a	-999	14	[-999, -999, -999]	n/a	FR1	0	R1113T
2042.716	1.084	-1	DISTRACT_END	n/a	n/a	n/a	-999	14	[0, 0, 0]	n/a	FR1	0	R1113T
2043.8	3.631	-1	REC_START	n/a	n/a	n/a	-999	14	[0, 0, 0]	n/a	FR1	0	R1113T
2047.431	1.833	-1	REC_WORD	1.833	n/a	LAKE	-999	14	[0, 0, 0]	n/a	FR1	0	R1113T
2049.264	2.053	-1	REC_WORD	2.053	n/a	SNOW	-999	14	[0, 0, 0]	n/a	FR1	0	R1113T
2051.317	22.495	-1	REC_WORD	22.495	n/a	RAIN	-999	14	[0, 0, 0]	n/a	FR1	0	R1113T
2073.812	2.275	-1	REC_END	n/a	n/a	n/a	-999	14	[0, 0, 0]	n/a	FR1	0	R1113T
2076.087	0.001	-1	COUNTDOWN_START	n/a	n/a	n/a	-999	15	[0, 0, 0]	n/a	FR1	0	R1113T
2076.088	10.427	-1	TRIAL	n/a	n/a	n/a	-999	15	[0, 0, 0]	n/a	FR1	0	R1113T
2086.515	0.008	-1	COUNTDOWN_END	n/a	n/a	n/a	-999	15	[0, 0, 0]	n/a	FR1	0	R1113T
2086.523	2.583	-1	ORIENT	n/a	n/a	n/a	-999	15	[0, 0, 0]	n/a	FR1	0	R1113T
2089.106	2.435	-1	WORD	n/a	wordpools/wordpool_EN.txt	LAMP	1	15	[0, 0, 0]	n/a	FR1	0	R1113T
2091.541	2.434	-1	WORD	n/a	wordpools/wordpool_EN.txt	BRIDGE	2	15	[0, 0, 0]	n/a	FR1	0	R1113T
2093.975	2.516	-1	WORD	n/a	wordpools/wordpool_EN.txt	MOLE	3	15	[0, 0, 0]	n/a	FR1	0	R1113T
2096.491	2.601	-1	WORD	n/a	wordpools/wordpool_EN.txt	STAIR	4	15	[0, 0, 0]	n/a	FR1	0	R1113T
2099.092	2.601	-1	WORD	n/a	wordpools/wordpool_EN.txt	CHIEF	5	15	[0, 0, 0]	n/a	FR1	0	R1113T
2101.693	2.583	-1	WORD	n/a	wordpools/wordpool_EN.txt	NET	6	15	[0, 0, 0]	n/a	FR1	0	R1113T
2104.276	2.501	-1	WORD	n/a	wordpools/wordpool_EN.txt	LOCK	7	15	[0, 0, 0]	n/a	FR1	0	R1113T
2106.777	2.433	-1	WORD	n/a	wordpools/wordpool_EN.txt	CART	8	15	[0, 0, 0]	n/a	FR1	0	R1113T
2109.21	2.418	-1	WORD	n/a	wordpools/wordpool_EN.txt	PHONE	9	15	[0, 0, 0]	n/a	FR1	0	R1113T
2111.628	2.417	-1	WORD	n/a	wordpools/wordpool_EN.txt	MAZE	10	15	[0, 0, 0]	n/a	FR1	0	R1113T
2114.045	2.517	-1	WORD	n/a	wordpools/wordpool_EN.txt	FARM	11	15	[0, 0, 0]	n/a	FR1	0	R1113T
2116.562	1.616	-1	WORD	n/a	wordpools/wordpool_EN.txt	WAND	12	15	[0, 0, 0]	n/a	FR1	0	R1113T
2118.178	0.001	-1	DISTRACT_START	n/a	n/a	n/a	-999	15	[0, 0, 0]	n/a	FR1	0	R1113T
2118.179	0.016	-1	START	n/a	n/a	n/a	-999	15	[-999, -999, -999]	n/a	FR1	0	R1113T
2118.195	14.869	-1	PROB	14.869	n/a	n/a	-999	15	[1, 5, 7]	13	FR1	0	R1113T
2133.064	8.802	-1	PROB	8.802	n/a	n/a	-999	15	[8, 8, 6]	22	FR1	0	R1113T
2141.866	0.018	-1	STOP	n/a	n/a	n/a	-999	15	[-999, -999, -999]	n/a	FR1	0	R1113T
2141.884	1.167	-1	DISTRACT_END	n/a	n/a	n/a	-999	15	[0, 0, 0]	n/a	FR1	0	R1113T
2143.051	2.196	-1	REC_START	n/a	n/a	n/a	-999	15	[0, 0, 0]	n/a	FR1	0	R1113T
2145.247	1.357	-1	REC_WORD	1.357	n/a	LAMP	-999	15	[0, 0, 0]	n/a	FR1	0	R1113T
2146.604	1.815	-1	REC_WORD	1.815	n/a	BRIDGE	-999	15	[0, 0, 0]	n/a	FR1	0	R1113T
2148.419	1.891	-1	REC_WORD	1.891	n/a	MOLE	-999	15	[0, 0, 0]	n/a	FR1	0	R1113T
2150.31	2.148	-1	REC_WORD	2.148	n/a	STAIR	-999	15	[0, 0, 0]	n/a	FR1	0	R1113T
2152.458	20.609	-1	REC_WORD	20.609	n/a	WAND	-999	15	[0, 0, 0]	n/a	FR1	0	R1113T
2173.067	2.906	-1	REC_END	n/a	n/a	n/a	-999	15	[0, 0, 0]	n/a	FR1	0	R1113T
2175.973	0.0	-1	TRIAL	n/a	n/a	n/a	-999	16	[0, 0, 0]	n/a	FR1	0	R1113T
2175.973	10.428	-1	COUNTDOWN_START	n/a	n/a	n/a	-999	16	[0, 0, 0]	n/a	FR1	0	R1113T
2186.401	0.006	-1	COUNTDOWN_END	n/a	n/a	n/a	-999	16	[0, 0, 0]	n/a	FR1	0	R1113T
2186.407	2.402	-1	ORIENT	n/a	n/a	n/a	-999	16	[0, 0, 0]	n/a	FR1	0	R1113T
2188.809	2.399	-1	WORD	n/a	wordpools/wordpool_EN.txt	SIGN	1	16	[0, 0, 0]	n/a	FR1	0	R1113T
2191.208	2.585	-1	WORD	n/a	wordpools/wordpool_EN.txt	KEY	2	16	[0, 0, 0]	n/a	FR1	0	R1113T
2193.793	2.633	-1	WORD	n/a	wordpools/wordpool_EN.txt	MOUTH	3	16	[0, 0, 0]	n/a	FR1	0	R1113T
2196.426	2.435	-1	WORD	n/a	wordpools/wordpool_EN.txt	DRUM	4	16	[0, 0, 0]	n/a	FR1	0	R1113T
2198.861	2.549	-1	WORD	n/a	wordpools/wordpool_EN.txt	JAIL	5	16	[0, 0, 0]	n/a	FR1	0	R1113T
2201.41	2.435	-1	WORD	n/a	wordpools/wordpool_EN.txt	SCHOOL	6	16	[0, 0, 0]	n/a	FR1	0	R1113T
2203.845	2.549	-1	WORD	n/a	wordpools/wordpool_EN.txt	JUDGE	7	16	[0, 0, 0]	n/a	FR1	0	R1113T
2206.394	2.468	-1	WORD	n/a	wordpools/wordpool_EN.txt	BLUSH	8	16	[0, 0, 0]	n/a	FR1	0	R1113T
2208.862	2.45	-1	WORD	n/a	wordpools/wordpool_EN.txt	FOOT	9	16	[0, 0, 0]	n/a	FR1	0	R1113T
2211.312	2.485	-1	WORD	n/a	wordpools/wordpool_EN.txt	PASTE	10	16	[0, 0, 0]	n/a	FR1	0	R1113T
2213.797	2.549	-1	WORD	n/a	wordpools/wordpool_EN.txt	INK	11	16	[0, 0, 0]	n/a	FR1	0	R1113T
2216.346	1.601	-1	WORD	n/a	wordpools/wordpool_EN.txt	BOARD	12	16	[0, 0, 0]	n/a	FR1	0	R1113T
2217.947	0.001	-1	DISTRACT_START	n/a	n/a	n/a	-999	16	[0, 0, 0]	n/a	FR1	0	R1113T
2217.948	0.016	-1	START	n/a	n/a	n/a	-999	16	[-999, -999, -999]	n/a	FR1	0	R1113T
2217.964	10.251	-1	PROB	10.251	n/a	n/a	-999	16	[7, 8, 6]	21	FR1	0	R1113T
2228.215	9.811	-1	PROB	9.811	n/a	n/a	-999	16	[7, 4, 7]	18	FR1	0	R1113T
2238.026	0.009	-1	STOP	n/a	n/a	n/a	-999	16	[-999, -999, -999]	n/a	FR1	0	R1113T
2238.035	1.116	-1	DISTRACT_END	n/a	n/a	n/a	-999	16	[0, 0, 0]	n/a	FR1	0	R1113T
2239.151	3.867	-1	REC_START	n/a	n/a	n/a	-999	16	[0, 0, 0]	n/a	FR1	0	R1113T
2243.018	1.566	-1	REC_WORD	1.566	n/a	SIGN	-999	16	[0, 0, 0]	n/a	FR1	0	R1113T
2244.584	1.89	-1	REC_WORD	1.89	n/a	KEY	-999	16	[0, 0, 0]	n/a	FR1	0	R1113T
2246.474	2.919	-1	REC_WORD	2.919	n/a	MOUTH	-999	16	[0, 0, 0]	n/a	FR1	0	R1113T
2249.393	1.858	-1	REC_WORD	1.858	n/a	JAIL	-999	16	[0, 0, 0]	n/a	FR1	0	R1113T
2251.251	1.728	-1	REC_WORD	1.728	n/a	JUDGE	-999	16	[0, 0, 0]	n/a	FR1	0	R1113T
2252.979	16.183	-1	REC_WORD	16.183	n/a	DRUM	-999	16	[0, 0, 0]	n/a	FR1	0	R1113T
2269.162	2.595	-1	REC_END	n/a	n/a	n/a	-999	16	[0, 0, 0]	n/a	FR1	0	R1113T
2271.757	0.001	-1	COUNTDOWN_START	n/a	n/a	n/a	-999	17	[0, 0, 0]	n/a	FR1	0	R1113T
2271.758	10.427	-1	TRIAL	n/a	n/a	n/a	-999	17	[0, 0, 0]	n/a	FR1	0	R1113T
2282.185	0.007	-1	COUNTDOWN_END	n/a	n/a	n/a	-999	17	[0, 0, 0]	n/a	FR1	0	R1113T
2282.192	2.501	-1	ORIENT	n/a	n/a	n/a	-999	17	[0, 0, 0]	n/a	FR1	0	R1113T
2284.693	2.449	-1	WORD	n/a	wordpools/wordpool_EN.txt	VASE	1	17	[0, 0, 0]	n/a	FR1	0	R1113T
2287.142	2.452	-1	WORD	n/a	wordpools/wordpool_EN.txt	BIRD	2	17	[0, 0, 0]	n/a	FR1	0	R1113T
2289.594	2.566	-1	WORD	n/a	wordpools/wordpool_EN.txt	NEST	3	17	[0, 0, 0]	n/a	FR1	0	R1113T
2292.16	2.568	-1	WORD	n/a	wordpools/wordpool_EN.txt	SHARK	4	17	[0, 0, 0]	n/a	FR1	0	R1113T
2294.728	2.4	-1	WORD	n/a	wordpools/wordpool_EN.txt	HOUSE	5	17	[0, 0, 0]	n/a	FR1	0	R1113T
2297.128	2.534	-1	WORD	n/a	wordpools/wordpool_EN.txt	DOOR	6	17	[0, 0, 0]	n/a	FR1	0	R1113T
2299.662	2.566	-1	WORD	n/a	wordpools/wordpool_EN.txt	WING	7	17	[0, 0, 0]	n/a	FR1	0	R1113T
2302.228	2.619	-1	WORD	n/a	wordpools/wordpool_EN.txt	CAGE	8	17	[0, 0, 0]	n/a	FR1	0	R1113T
2304.847	2.566	-1	WORD	n/a	wordpools/wordpool_EN.txt	ROPE	9	17	[0, 0, 0]	n/a	FR1	0	R1113T
2307.413	2.485	-1	WORD	n/a	wordpools/wordpool_EN.txt	SEAL	10	17	[0, 0, 0]	n/a	FR1	0	R1113T
2309.898	2.415	-1	WORD	n/a	wordpools/wordpool_EN.txt	WEB	11	17	[0, 0, 0]	n/a	FR1	0	R1113T
2312.313	1.602	-1	WORD	n/a	wordpools/wordpool_EN.txt	SNAKE	12	17	[0, 0, 0]	n/a	FR1	0	R1113T
2313.915	0.001	-1	DISTRACT_START	n/a	n/a	n/a	-999	17	[0, 0, 0]	n/a	FR1	0	R1113T
2313.916	0.016	-1	START	n/a	n/a	n/a	-999	17	[-999, -999, -999]	n/a	FR1	0	R1113T
2313.932	10.434	-1	PROB	10.434	n/a	n/a	-999	17	[5, 1, 9]	15	FR1	0	R1113T
2324.366	7.118	-1	PROB	7.118	n/a	n/a	-999	17	[2, 3, 4]	9	FR1	0	R1113T
2331.484	16.478	-1	PROB	16.478	n/a	n/a	-999	17	[9, 1, 6]	16	FR1	0	R1113T
2347.962	0.009	-1	STOP	n/a	n/a	n/a	-999	17	[-999, -999, -999]	n/a	FR1	0	R1113T
2347.971	1.133	-1	DISTRACT_END	n/a	n/a	n/a	-999	17	[0, 0, 0]	n/a	FR1	0	R1113T
2349.104	1.926	-1	REC_START	n/a	n/a	n/a	-999	17	[0, 0, 0]	n/a	FR1	0	R1113T
2351.03	1.641	-1	REC_WORD	1.641	n/a	VASE	-999	17	[0, 0, 0]	n/a	FR1	0	R1113T
2352.671	1.649	-1	REC_WORD	1.649	n/a	BIRD	-999	17	[0, 0, 0]	n/a	FR1	0	R1113T
2354.32	1.95	-1	REC_WORD	1.95	n/a	NEST	-999	17	[0, 0, 0]	n/a	FR1	0	R1113T
2356.27	2.094	-1	REC_WORD	2.094	n/a	HOUSE	-999	17	[0, 0, 0]	n/a	FR1	0	R1113T
2358.364	20.757	-1	REC_WORD	20.757	n/a	DOOR	-999	17	[0, 0, 0]	n/a	FR1	0	R1113T
2379.121	2.756	16569	REC_END	n/a	n/a	n/a	-999	17	[0, 0, 0]	n/a	FR1	0	R1113T
2381.877	0.0	19325	TRIAL	n/a	n/a	n/a	-999	18	[0, 0, 0]	n/a	FR1	0	R1113T
2381.877	10.428	19325	COUNTDOWN_START	n/a	n/a	n/a	-999	18	[0, 0, 0]	n/a	FR1	0	R1113T
2392.305	0.007	29752	COUNTDOWN_END	n/a	n/a	n/a	-999	18	[0, 0, 0]	n/a	FR1	0	R1113T
2392.312	2.601	29759	ORIENT	n/a	n/a	n/a	-999	18	[0, 0, 0]	n/a	FR1	0	R1113T
2394.913	2.533	32360	WORD	n/a	wordpools/wordpool_EN.txt	MAT	1	18	[0, 0, 0]	n/a	FR1	0	R1113T
2397.446	2.551	34893	WORD	n/a	wordpools/wordpool_EN.txt	HOOK	2	18	[0, 0, 0]	n/a	FR1	0	R1113T
2399.997	2.516	37444	WORD	n/a	wordpools/wordpool_EN.txt	MOOSE	3	18	[0, 0, 0]	n/a	FR1	0	R1113T
2402.513	2.618	39960	WORD	n/a	wordpools/wordpool_EN.txt	SKY	4	18	[0, 0, 0]	n/a	FR1	0	R1113T
2405.131	2.601	42578	WORD	n/a	wordpools/wordpool_EN.txt	SUN	5	18	[0, 0, 0]	n/a	FR1	0	R1113T
2407.732	2.433	45178	WORD	n/a	wordpools/wordpool_EN.txt	BEACH	6	18	[0, 0, 0]	n/a	FR1	0	R1113T
2410.165	2.568	47611	WORD	n/a	wordpools/wordpool_EN.txt	DOCK	7	18	[0, 0, 0]	n/a	FR1	0	R1113T
2412.733	2.583	50179	WORD	n/a	wordpools/wordpool_EN.txt	WAVE	8	18	[0, 0, 0]	n/a	FR1	0	R1113T
2415.316	2.485	52762	WORD	n/a	wordpools/wordpool_EN.txt	FLAG	9	18	[0, 0, 0]	n/a	FR1	0	R1113T
2417.801	2.582	55247	WORD	n/a	wordpools/wordpool_EN.txt	EAR	10	18	[0, 0, 0]	n/a	FR1	0	R1113T
2420.383	2.418	57829	WORD	n/a	wordpools/wordpool_EN.txt	SPEAR	11	18	[0, 0, 0]	n/a	FR1	0	R1113T
2422.801	1.616	60247	WORD	n/a	wordpools/wordpool_EN.txt	BADGE	12	18	[0, 0, 0]	n/a	FR1	0	R1113T
2424.417	0.001	61863	DISTRACT_START	n/a	n/a	n/a	-999	18	[0, 0, 0]	n/a	FR1	0	R1113T
2424.418	0.016	61864	START	n/a	n/a	n/a	-999	18	[-999, -999, -999]	n/a	FR1	0	R1113T
2424.434	10.186	61880	PROB	10.186	n/a	n/a	-999	18	[1, 6, 6]	13	FR1	0	R1113T
2434.62	11.485	72065	PROB	11.485	n/a	n/a	-999	18	[7, 9, 2]	18	FR1	0	R1113T
2446.105	0.016	83550	STOP	n/a	n/a	n/a	-999	18	[-999, -999, -999]	n/a	FR1	0	R1113T
2446.121	1.118	83566	DISTRACT_END	n/a	n/a	n/a	-999	18	[0, 0, 0]	n/a	FR1	0	R1113T
2447.239	4.339	84684	REC_START	n/a	n/a	n/a	-999	18	[0, 0, 0]	n/a	FR1	0	R1113T
2451.578	1.162	89022	REC_WORD	1.162	n/a	MAT	-999	18	[0, 0, 0]	n/a	FR1	0	R1113T
2452.74	1.153	90184	REC_WORD	1.153	n/a	MOOSE	-999	18	[0, 0, 0]	n/a	FR1	0	R1113T
2453.893	1.306	91337	REC_WORD	1.306	n/a	SKY	-999	18	[0, 0, 0]	n/a	FR1	0	R1113T
2455.199	1.031	92643	REC_WORD	1.031	n/a	EAR	-999	18	[0, 0, 0]	n/a	FR1	0	R1113T
2456.23	21.021	93674	REC_WORD	21.021	n/a	BADGE	-999	18	[0, 0, 0]	n/a	FR1	0	R1113T
2477.251	2.86	114694	REC_END	n/a	n/a	n/a	-999	18	[0, 0, 0]	n/a	FR1	0	R1113T
2480.111	0.0	117554	TRIAL	n/a	n/a	n/a	-999	19	[0, 0, 0]	n/a	FR1	0	R1113T
2480.111	10.428	117554	COUNTDOWN_START	n/a	n/a	n/a	-999	19	[0, 0, 0]	n/a	FR1	0	R1113T
2490.539	0.008	127981	COUNTDOWN_END	n/a	n/a	n/a	-999	19	[0, 0, 0]	n/a	FR1	0	R1113T
2490.547	2.616	127989	ORIENT	n/a	n/a	n/a	-999	19	[0, 0, 0]	n/a	FR1	0	R1113T
2493.163	2.402	130605	WORD	n/a	wordpools/wordpool_EN.txt	PIE	1	19	[0, 0, 0]	n/a	FR1	0	R1113T
2495.565	2.483	133007	WORD	n/a	wordpools/wordpool_EN.txt	CUP	2	19	[0, 0, 0]	n/a	FR1	0	R1113T
2498.048	2.466	135490	WORD	n/a	wordpools/wordpool_EN.txt	SEAT	3	19	[0, 0, 0]	n/a	FR1	0	R1113T
2500.514	2.435	137956	WORD	n/a	wordpools/wordpool_EN.txt	SINK	4	19	[0, 0, 0]	n/a	FR1	0	R1113T
2502.949	2.583	140391	WORD	n/a	wordpools/wordpool_EN.txt	SMILE	5	19	[0, 0, 0]	n/a	FR1	0	R1113T
2505.532	2.567	142974	WORD	n/a	wordpools/wordpool_EN.txt	VEST	6	19	[0, 0, 0]	n/a	FR1	0	R1113T
2508.099	2.367	145541	WORD	n/a	wordpools/wordpool_EN.txt	OAR	7	19	[0, 0, 0]	n/a	FR1	0	R1113T
2510.466	2.418	147907	WORD	n/a	wordpools/wordpool_EN.txt	PEACH	8	19	[0, 0, 0]	n/a	FR1	0	R1113T
2512.884	2.433	150325	WORD	n/a	wordpools/wordpool_EN.txt	CAKE	9	19	[0, 0, 0]	n/a	FR1	0	R1113T
2515.317	2.585	152758	WORD	n/a	wordpools/wordpool_EN.txt	SHIELD	10	19	[0, 0, 0]	n/a	FR1	0	R1113T
2517.902	2.549	155343	WORD	n/a	wordpools/wordpool_EN.txt	GLOVE	11	19	[0, 0, 0]	n/a	FR1	0	R1113T
2520.451	1.602	157892	WORD	n/a	wordpools/wordpool_EN.txt	DIME	12	19	[0, 0, 0]	n/a	FR1	0	R1113T
2522.053	0.0	159494	DISTRACT_START	n/a	n/a	n/a	-999	19	[0, 0, 0]	n/a	FR1	0	R1113T
2522.053	0.015	159494	START	n/a	n/a	n/a	-999	19	[-999, -999, -999]	n/a	FR1	0	R1113T
2522.068	9.235	159509	PROB	9.235	n/a	n/a	-999	19	[5, 8, 8]	21	FR1	0	R1113T
2531.303	14.81	168743	PROB	14.81	n/a	n/a	-999	19	[8, 3, 2]	13	FR1	0	R1113T
2546.113	0.01	183553	STOP	n/a	n/a	n/a	-999	19	[-999, -999, -999]	n/a	FR1	0	R1113T
2546.123	1.167	183563	DISTRACT_END	n/a	n/a	n/a	-999	19	[0, 0, 0]	n/a	FR1	0	R1113T
2547.29	3.584	184730	REC_START	n/a	n/a	n/a	-999	19	[0, 0, 0]	n/a	FR1	0	R1113T
2550.874	1.263	188314	REC_WORD	1.263	n/a	CAKE	-999	19	[0, 0, 0]	n/a	FR1	0	R1113T
2552.137	1.931	189576	REC_WORD	1.931	n/a	PIE	-999	19	[0, 0, 0]	n/a	FR1	0	R1113T
2554.068	1.463	191507	REC_WORD	1.463	n/a	SEAT	-999	19	[0, 0, 0]	n/a	FR1	0	R1113T
2555.531	1.382	192970	REC_WORD	1.382	n/a	SINK	-999	19	[0, 0, 0]	n/a	FR1	0	R1113T
2556.913	1.206	194352	REC_WORD	1.206	n/a	CUP	-999	19	[0, 0, 0]	n/a	FR1	0	R1113T
2558.119	19.188	195558	REC_WORD	19.188	n/a	SMILE	-999	19	[0, 0, 0]	n/a	FR1	0	R1113T
2577.307	3.005	214745	REC_END	n/a	n/a	n/a	-999	19	[0, 0, 0]	n/a	FR1	0	R1113T
2580.312	0.0	217750	TRIAL	n/a	n/a	n/a	-999	20	[0, 0, 0]	n/a	FR1	0	R1113T
2580.312	10.428	217750	COUNTDOWN_START	n/a	n/a	n/a	-999	20	[0, 0, 0]	n/a	FR1	0	R1113T
2590.74	0.009	228178	COUNTDOWN_END	n/a	n/a	n/a	-999	20	[0, 0, 0]	n/a	FR1	0	R1113T
2590.749	2.499	228187	ORIENT	n/a	n/a	n/a	-999	20	[0, 0, 0]	n/a	FR1	0	R1113T
2593.248	2.385	230685	WORD	n/a	wordpools/wordpool_EN.txt	PET	1	20	[0, 0, 0]	n/a	FR1	0	R1113T
2595.633	2.483	233070	WORD	n/a	wordpools/wordpool_EN.txt	HOLE	2	20	[0, 0, 0]	n/a	FR1	0	R1113T
2598.116	2.501	235553	WORD	n/a	wordpools/wordpool_EN.txt	SLEEVE	3	20	[0, 0, 0]	n/a	FR1	0	R1113T
2600.617	2.566	238054	WORD	n/a	wordpools/wordpool_EN.txt	CUBE	4	20	[0, 0, 0]	n/a	FR1	0	R1113T
2603.183	2.402	240620	WORD	n/a	wordpools/wordpool_EN.txt	NAIL	5	20	[0, 0, 0]	n/a	FR1	0	R1113T
2605.585	2.616	243022	WORD	n/a	wordpools/wordpool_EN.txt	COUCH	6	20	[0, 0, 0]	n/a	FR1	0	R1113T
2608.201	2.401	245638	WORD	n/a	wordpools/wordpool_EN.txt	BARN	7	20	[0, 0, 0]	n/a	FR1	0	R1113T
2610.602	2.616	248039	WORD	n/a	wordpools/wordpool_EN.txt	YARD	8	20	[0, 0, 0]	n/a	FR1	0	R1113T
2613.218	2.435	250654	WORD	n/a	wordpools/wordpool_EN.txt	PIN	9	20	[0, 0, 0]	n/a	FR1	0	R1113T
2615.653	2.533	253089	WORD	n/a	wordpools/wordpool_EN.txt	WALL	10	20	[0, 0, 0]	n/a	FR1	0	R1113T
2618.186	2.551	255622	WORD	n/a	wordpools/wordpool_EN.txt	LAWN	11	20	[0, 0, 0]	n/a	FR1	0	R1113T
2620.737	1.616	258173	WORD	n/a	wordpools/wordpool_EN.txt	TIE	12	20	[0, 0, 0]	n/a	FR1	0	R1113T
2622.353	0.001	259789	DISTRACT_START	n/a	n/a	n/a	-999	20	[0, 0, 0]	n/a	FR1	0	R1113T
2622.354	0.016	259790	START	n/a	n/a	n/a	-999	20	[-999, -999, -999]	n/a	FR1	0	R1113T
2622.37	9.169	259806	PROB	9.169	n/a	n/a	-999	20	[2, 6, 3]	11	FR1	0	R1113T
2631.539	6.834	268975	PROB	6.834	n/a	n/a	-999	20	[3, 2, 1]	6	FR1	0	R1113T
2638.373	10.948	275808	PROB	10.948	n/a	n/a	-999	20	[9, 4, 1]	14	FR1	0	R1113T
2649.321	0.004	286756	STOP	n/a	n/a	n/a	-999	20	[-999, -999, -999]	n/a	FR1	0	R1113T
2649.325	1.151	286760	DISTRACT_END	n/a	n/a	n/a	-999	20	[0, 0, 0]	n/a	FR1	0	R1113T
2650.476	2.587	287911	REC_START	n/a	n/a	n/a	-999	20	[0, 0, 0]	n/a	FR1	0	R1113T
2653.063	1.081	290498	REC_WORD	1.081	n/a	PET	-999	20	[0, 0, 0]	n/a	FR1	0	R1113T
2654.144	2.584	291579	REC_WORD	2.584	n/a	HOLE	-999	20	[0, 0, 0]	n/a	FR1	0	R1113T
2656.728	1.739	294162	REC_WORD	1.739	n/a	SLEEVE	-999	20	[0, 0, 0]	n/a	FR1	0	R1113T
2658.467	1.429	295901	REC_WORD	1.429	n/a	COUCH	-999	20	[0, 0, 0]	n/a	FR1	0	R1113T
2659.896	20.592	297330	REC_WORD	20.592	n/a	BARN	-999	20	[0, 0, 0]	n/a	FR1	0	R1113T
2680.488	3.061	317921	REC_END	n/a	n/a	n/a	-999	20	[0, 0, 0]	n/a	FR1	0	R1113T
2683.549	0.0	320982	TRIAL	n/a	n/a	n/a	-999	21	[0, 0, 0]	n/a	FR1	0	R1113T
2683.549	10.428	320982	COUNTDOWN_START	n/a	n/a	n/a	-999	21	[0, 0, 0]	n/a	FR1	0	R1113T
2693.977	0.007	331410	COUNTDOWN_END	n/a	n/a	n/a	-999	21	[0, 0, 0]	n/a	FR1	0	R1113T
2693.984	2.466	331417	ORIENT	n/a	n/a	n/a	-999	21	[0, 0, 0]	n/a	FR1	0	R1113T
2696.45	2.602	333882	WORD	n/a	wordpools/wordpool_EN.txt	PURSE	1	21	[0, 0, 0]	n/a	FR1	0	R1113T
2699.052	2.416	336484	WORD	n/a	wordpools/wordpool_EN.txt	CHAIR	2	21	[0, 0, 0]	n/a	FR1	0	R1113T
2701.468	2.585	338900	WORD	n/a	wordpools/wordpool_EN.txt	KITE	3	21	[0, 0, 0]	n/a	FR1	0	R1113T
2704.053	2.517	341485	WORD	n/a	wordpools/wordpool_EN.txt	STOOL	4	21	[0, 0, 0]	n/a	FR1	0	R1113T
2706.57	2.45	344002	WORD	n/a	wordpools/wordpool_EN.txt	CHIN	5	21	[0, 0, 0]	n/a	FR1	0	R1113T
2709.02	2.567	346452	WORD	n/a	wordpools/wordpool_EN.txt	BRUSH	6	21	[0, 0, 0]	n/a	FR1	0	R1113T
2711.587	2.55	349019	WORD	n/a	wordpools/wordpool_EN.txt	CANE	7	21	[0, 0, 0]	n/a	FR1	0	R1113T
2714.137	2.568	351569	WORD	n/a	wordpools/wordpool_EN.txt	ROSE	8	21	[0, 0, 0]	n/a	FR1	0	R1113T
2716.705	2.383	354136	WORD	n/a	wordpools/wordpool_EN.txt	DRESS	9	21	[0, 0, 0]	n/a	FR1	0	R1113T
2719.088	2.618	356519	WORD	n/a	wordpools/wordpool_EN.txt	BLOOM	10	21	[0, 0, 0]	n/a	FR1	0	R1113T
2721.706	2.616	359137	WORD	n/a	wordpools/wordpool_EN.txt	SQUARE	11	21	[0, 0, 0]	n/a	FR1	0	R1113T
2724.322	1.601	361753	WORD	n/a	wordpools/wordpool_EN.txt	SOCK	12	21	[0, 0, 0]	n/a	FR1	0	R1113T
2725.923	0.001	363354	DISTRACT_START	n/a	n/a	n/a	-999	21	[0, 0, 0]	n/a	FR1	0	R1113T
2725.924	0.016	363355	START	n/a	n/a	n/a	-999	21	[-999, -999, -999]	n/a	FR1	0	R1113T
2725.94	11.752	363371	PROB	11.752	n/a	n/a	-999	21	[7, 5, 5]	17	FR1	0	R1113T
2737.692	16.254	375122	PROB	16.254	n/a	n/a	-999	21	[7, 8, 1]	16	FR1	0	R1113T
2753.946	0.016	391376	STOP	n/a	n/a	n/a	-999	21	[-999, -999, -999]	n/a	FR1	0	R1113T
2753.962	1.133	391392	DISTRACT_END	n/a	n/a	n/a	-999	21	[0, 0, 0]	n/a	FR1	0	R1113T
2755.095	8.418	392525	REC_START	n/a	n/a	n/a	-999	21	[0, 0, 0]	n/a	FR1	0	R1113T
2763.513	1.355	400942	REC_WORD	1.355	n/a	COUCH	-999	21	[0, 0, 0]	n/a	FR1	0	R1113T
2764.868	1.257	402297	REC_WORD	1.257	n/a	BARN	-999	21	[0, 0, 0]	n/a	FR1	0	R1113T
2766.125	0.868	403554	REC_WORD	0.868	n/a	PURSE	-999	21	[0, 0, 0]	n/a	FR1	0	R1113T
2766.993	18.114	404422	REC_WORD	18.114	n/a	CHAIR	-999	21	[0, 0, 0]	n/a	FR1	0	R1113T
2785.107	2.31	422535	REC_END	n/a	n/a	n/a	-999	21	[0, 0, 0]	n/a	FR1	0	R1113T
2787.417	0.0	424845	TRIAL	n/a	n/a	n/a	-999	22	[0, 0, 0]	n/a	FR1	0	R1113T
2787.417	10.428	424845	COUNTDOWN_START	n/a	n/a	n/a	-999	22	[0, 0, 0]	n/a	FR1	0	R1113T
2797.845	0.008	435273	COUNTDOWN_END	n/a	n/a	n/a	-999	22	[0, 0, 0]	n/a	FR1	0	R1113T
2797.853	2.533	435281	ORIENT	n/a	n/a	n/a	-999	22	[0, 0, 0]	n/a	FR1	0	R1113T
2800.386	2.451	437813	WORD	n/a	wordpools/wordpool_EN.txt	CAR	1	22	[0, 0, 0]	n/a	FR1	0	R1113T
2802.837	2.5	440264	WORD	n/a	wordpools/wordpool_EN.txt	FLOOR	2	22	[0, 0, 0]	n/a	FR1	0	R1113T
2805.337	2.468	442764	WORD	n/a	wordpools/wordpool_EN.txt	ROAD	3	22	[0, 0, 0]	n/a	FR1	0	R1113T
2807.805	2.432	445232	WORD	n/a	wordpools/wordpool_EN.txt	GUARD	4	22	[0, 0, 0]	n/a	FR1	0	R1113T
2810.237	2.602	447664	WORD	n/a	wordpools/wordpool_EN.txt	ROOF	5	22	[0, 0, 0]	n/a	FR1	0	R1113T
2812.839	2.433	450266	WORD	n/a	wordpools/wordpool_EN.txt	GOAT	6	22	[0, 0, 0]	n/a	FR1	0	R1113T
2815.272	2.634	452699	WORD	n/a	wordpools/wordpool_EN.txt	MUD	7	22	[0, 0, 0]	n/a	FR1	0	R1113T
2817.906	2.483	455333	WORD	n/a	wordpools/wordpool_EN.txt	SLUSH	8	22	[0, 0, 0]	n/a	FR1	0	R1113T
2820.389	2.435	457815	WORD	n/a	wordpools/wordpool_EN.txt	GLASS	9	22	[0, 0, 0]	n/a	FR1	0	R1113T
2822.824	2.433	460250	WORD	n/a	wordpools/wordpool_EN.txt	STOVE	10	22	[0, 0, 0]	n/a	FR1	0	R1113T
2825.257	2.601	462683	WORD	n/a	wordpools/wordpool_EN.txt	FAN	11	22	[0, 0, 0]	n/a	FR1	0	R1113T
2827.858	1.616	465284	WORD	n/a	wordpools/wordpool_EN.txt	JEEP	12	22	[0, 0, 0]	n/a	FR1	0	R1113T
2829.474	0.001	466900	DISTRACT_START	n/a	n/a	n/a	-999	22	[0, 0, 0]	n/a	FR1	0	R1113T
2829.475	0.016	466901	START	n/a	n/a	n/a	-999	22	[-999, -999, -999]	n/a	FR1	0	R1113T
2829.491	10.735	466917	PROB	10.735	n/a	n/a	-999	22	[5, 5, 5]	15	FR1	0	R1113T
2840.226	19.167	477652	PROB	19.167	n/a	n/a	-999	22	[7, 9, 6]	22	FR1	0	R1113T
2859.393	0.003	496818	STOP	n/a	n/a	n/a	-999	22	[-999, -999, -999]	n/a	FR1	0	R1113T
2859.396	1.101	496821	DISTRACT_END	n/a	n/a	n/a	-999	22	[0, 0, 0]	n/a	FR1	0	R1113T
2860.497	1.576	497922	REC_START	n/a	n/a	n/a	-999	22	[0, 0, 0]	n/a	FR1	0	R1113T
2862.073	1.289	499497	REC_WORD	1.289	n/a	CAR	-999	22	[0, 0, 0]	n/a	FR1	0	R1113T
2863.362	1.031	500786	REC_WORD	1.031	n/a	FLOOR	-999	22	[0, 0, 0]	n/a	FR1	0	R1113T
2864.393	0.914	501817	REC_WORD	0.914	n/a	ROAD	-999	22	[0, 0, 0]	n/a	FR1	0	R1113T
2865.307	1.005	502731	REC_WORD	1.005	n/a	JEEP	-999	22	[0, 0, 0]	n/a	FR1	0	R1113T
2866.312	24.202	503736	REC_WORD	24.202	n/a	FAN	-999	22	[0, 0, 0]	n/a	FR1	0	R1113T
2890.514	2.955	527937	REC_END	n/a	n/a	n/a	-999	22	[0, 0, 0]	n/a	FR1	0	R1113T
2893.469	0.0	530892	TRIAL	n/a	n/a	n/a	-999	23	[0, 0, 0]	n/a	FR1	0	R1113T
2893.469	10.428	530892	COUNTDOWN_START	n/a	n/a	n/a	-999	23	[0, 0, 0]	n/a	FR1	0	R1113T
2903.897	0.008	541319	COUNTDOWN_END	n/a	n/a	n/a	-999	23	[0, 0, 0]	n/a	FR1	0	R1113T
2903.905	2.6	541327	ORIENT	n/a	n/a	n/a	-999	23	[0, 0, 0]	n/a	FR1	0	R1113T
2906.505	2.501	543927	WORD	n/a	wordpools/wordpool_EN.txt	HORN	1	23	[0, 0, 0]	n/a	FR1	0	R1113T
2909.006	2.4	546428	WORD	n/a	wordpools/wordpool_EN.txt	PRINCE	2	23	[0, 0, 0]	n/a	FR1	0	R1113T
2911.406	2.418	548828	WORD	n/a	wordpools/wordpool_EN.txt	GATE	3	23	[0, 0, 0]	n/a	FR1	0	R1113T
2913.824	2.616	551246	WORD	n/a	wordpools/wordpool_EN.txt	FACE	4	23	[0, 0, 0]	n/a	FR1	0	R1113T
2916.44	2.468	553862	WORD	n/a	wordpools/wordpool_EN.txt	THREAD	5	23	[0, 0, 0]	n/a	FR1	0	R1113T
2918.908	2.516	556330	WORD	n/a	wordpools/wordpool_EN.txt	FENCE	6	23	[0, 0, 0]	n/a	FR1	0	R1113T
2921.424	2.485	558846	WORD	n/a	wordpools/wordpool_EN.txt	ELF	7	23	[0, 0, 0]	n/a	FR1	0	R1113T
2923.909	2.45	561330	WORD	n/a	wordpools/wordpool_EN.txt	POOL	8	23	[0, 0, 0]	n/a	FR1	0	R1113T
2926.359	2.434	563780	WORD	n/a	wordpools/wordpool_EN.txt	STREET	9	23	[0, 0, 0]	n/a	FR1	0	R1113T
2928.793	2.45	566214	WORD	n/a	wordpools/wordpool_EN.txt	SPARK	10	23	[0, 0, 0]	n/a	FR1	0	R1113T
2931.243	2.401	568664	WORD	n/a	wordpools/wordpool_EN.txt	DOLL	11	23	[0, 0, 0]	n/a	FR1	0	R1113T
2933.644	1.616	571065	WORD	n/a	wordpools/wordpool_EN.txt	TENT	12	23	[0, 0, 0]	n/a	FR1	0	R1113T
2935.26	0.001	572681	DISTRACT_START	n/a	n/a	n/a	-999	23	[0, 0, 0]	n/a	FR1	0	R1113T
2935.261	0.016	572682	START	n/a	n/a	n/a	-999	23	[-999, -999, -999]	n/a	FR1	0	R1113T
2935.277	7.302	572698	PROB	7.302	n/a	n/a	-999	23	[4, 1, 6]	11	FR1	0	R1113T
2942.579	6.8	580000	PROB	6.8	n/a	n/a	-999	23	[2, 9, 1]	12	FR1	0	R1113T
2949.379	13.062	586799	PROB	13.062	n/a	n/a	-999	23	[5, 4, 7]	16	FR1	0	R1113T
2962.441	0.008	599861	STOP	n/a	n/a	n/a	-999	23	[-999, -999, -999]	n/a	FR1	0	R1113T
2962.449	1.051	599869	DISTRACT_END	n/a	n/a	n/a	-999	23	[0, 0, 0]	n/a	FR1	0	R1113T
2963.5	1.697	600920	REC_START	n/a	n/a	n/a	-999	23	[0, 0, 0]	n/a	FR1	0	R1113T
2965.197	1.195	602616	REC_WORD	1.195	n/a	HORN	-999	23	[0, 0, 0]	n/a	FR1	0	R1113T
2966.392	1.914	603811	REC_WORD	1.914	n/a	PRINCE	-999	23	[0, 0, 0]	n/a	FR1	0	R1113T
2968.306	3.046	605725	REC_WORD	3.046	n/a	GATE	-999	23	[0, 0, 0]	n/a	FR1	0	R1113T
2971.352	22.16	608771	REC_WORD	22.16	n/a	FENCE	-999	23	[0, 0, 0]	n/a	FR1	0	R1113T
2993.512	2.31	630930	REC_END	n/a	n/a	n/a	-999	23	[0, 0, 0]	n/a	FR1	0	R1113T
2995.822	0.0	633240	TRIAL	n/a	n/a	n/a	-999	24	[0, 0, 0]	n/a	FR1	0	R1113T
2995.822	10.428	633240	COUNTDOWN_START	n/a	n/a	n/a	-999	24	[0, 0, 0]	n/a	FR1	0	R1113T
3006.25	0.006	643667	COUNTDOWN_END	n/a	n/a	n/a	-999	24	[0, 0, 0]	n/a	FR1	0	R1113T
3006.256	2.535	643673	ORIENT	n/a	n/a	n/a	-999	24	[0, 0, 0]	n/a	FR1	0	R1113T
3008.791	2.516	646208	WORD	n/a	wordpools/wordpool_EN.txt	PEARL	1	24	[0, 0, 0]	n/a	FR1	0	R1113T
3011.307	2.368	648724	WORD	n/a	wordpools/wordpool_EN.txt	MAIL	2	24	[0, 0, 0]	n/a	FR1	0	R1113T
3013.675	2.516	651092	WORD	n/a	wordpools/wordpool_EN.txt	BOOK	3	24	[0, 0, 0]	n/a	FR1	0	R1113T
3016.191	2.402	653608	WORD	n/a	wordpools/wordpool_EN.txt	MULE	4	24	[0, 0, 0]	n/a	FR1	0	R1113T
3018.593	2.5	656010	WORD	n/a	wordpools/wordpool_EN.txt	SHEEP	5	24	[0, 0, 0]	n/a	FR1	0	R1113T
3021.093	2.417	658510	WORD	n/a	wordpools/wordpool_EN.txt	BEAN	6	24	[0, 0, 0]	n/a	FR1	0	R1113T
3023.51	2.534	660927	WORD	n/a	wordpools/wordpool_EN.txt	CORN	7	24	[0, 0, 0]	n/a	FR1	0	R1113T
3026.044	2.617	663461	WORD	n/a	wordpools/wordpool_EN.txt	BEAK	8	24	[0, 0, 0]	n/a	FR1	0	R1113T
3028.661	2.617	666077	WORD	n/a	wordpools/wordpool_EN.txt	GRAPE	9	24	[0, 0, 0]	n/a	FR1	0	R1113T
3031.278	2.501	668694	WORD	n/a	wordpools/wordpool_EN.txt	RICE	10	24	[0, 0, 0]	n/a	FR1	0	R1113T
3033.779	2.6	671195	WORD	n/a	wordpools/wordpool_EN.txt	LAND	11	24	[0, 0, 0]	n/a	FR1	0	R1113T
3036.379	1.618	673795	WORD	n/a	wordpools/wordpool_EN.txt	GOLD	12	24	[0, 0, 0]	n/a	FR1	0	R1113T
3037.997	0.001	675413	DISTRACT_START	n/a	n/a	n/a	-999	24	[0, 0, 0]	n/a	FR1	0	R1113T
3037.998	0.015	675414	START	n/a	n/a	n/a	-999	24	[-999, -999, -999]	n/a	FR1	0	R1113T
3038.013	8.885	675429	PROB	8.885	n/a	n/a	-999	24	[6, 1, 6]	13	FR1	0	R1113T
3046.898	8.768	684314	PROB	8.768	n/a	n/a	-999	24	[1, 5, 5]	11	FR1	0	R1113T
3055.666	10.024	693081	PROB	10.024	n/a	n/a	-999	24	[4, 2, 8]	14	FR1	0	R1113T
3065.69	0.012	703105	STOP	n/a	n/a	n/a	-999	24	[-999, -999, -999]	n/a	FR1	0	R1113T
3065.702	1.134	703117	DISTRACT_END	n/a	n/a	n/a	-999	24	[0, 0, 0]	n/a	FR1	0	R1113T
3066.836	2.823	704251	REC_START	n/a	n/a	n/a	-999	24	[0, 0, 0]	n/a	FR1	0	R1113T
3069.659	1.151	707073	REC_WORD	1.151	n/a	PEARL	-999	24	[0, 0, 0]	n/a	FR1	0	R1113T
3070.81	2.146	708224	REC_WORD	2.146	n/a	SHEEP	-999	24	[0, 0, 0]	n/a	FR1	0	R1113T
3072.956	3.293	710370	REC_WORD	3.293	n/a	RICE	-999	24	[0, 0, 0]	n/a	FR1	0	R1113T
3076.249	1.076	713663	REC_WORD	1.076	n/a	GATE	-999	24	[0, 0, 0]	n/a	FR1	0	R1113T
3077.325	19.52	714739	REC_WORD	19.52	n/a	GOLD	-999	24	[0, 0, 0]	n/a	FR1	0	R1113T
3096.845	3.029	734258	REC_END	n/a	n/a	n/a	-999	24	[0, 0, 0]	n/a	FR1	0	R1113T
3099.874	0.001	737287	COUNTDOWN_START	n/a	n/a	n/a	-999	25	[0, 0, 0]	n/a	FR1	0	R1113T
3099.875	10.427	737288	TRIAL	n/a	n/a	n/a	-999	25	[0, 0, 0]	n/a	FR1	0	R1113T
3110.302	0.007	747714	COUNTDOWN_END	n/a	n/a	n/a	-999	25	[0, 0, 0]	n/a	FR1	0	R1113T
3110.309	2.584	747721	ORIENT	n/a	n/a	n/a	-999	25	[0, 0, 0]	n/a	FR1	0	R1113T
3112.893	2.417	750305	WORD	n/a	wordpools/wordpool_EN.txt	FORT	1	25	[0, 0, 0]	n/a	FR1	0	R1113T
3115.31	2.401	752722	WORD	n/a	wordpools/wordpool_EN.txt	STEM	2	25	[0, 0, 0]	n/a	FR1	0	R1113T
3117.711	2.6	755123	WORD	n/a	wordpools/wordpool_EN.txt	SWORD	3	25	[0, 0, 0]	n/a	FR1	0	R1113T
3120.311	2.384	757723	WORD	n/a	wordpools/wordpool_EN.txt	HORSE	4	25	[0, 0, 0]	n/a	FR1	0	R1113T
3122.695	2.433	760107	WORD	n/a	wordpools/wordpool_EN.txt	SAIL	5	25	[0, 0, 0]	n/a	FR1	0	R1113T
3125.128	2.418	762540	WORD	n/a	wordpools/wordpool_EN.txt	COIN	6	25	[0, 0, 0]	n/a	FR1	0	R1113T
3127.546	2.384	764958	WORD	n/a	wordpools/wordpool_EN.txt	ROOT	7	25	[0, 0, 0]	n/a	FR1	0	R1113T
3129.93	2.516	767342	WORD	n/a	wordpools/wordpool_EN.txt	STAR	8	25	[0, 0, 0]	n/a	FR1	0	R1113T
3132.446	2.535	769857	WORD	n/a	wordpools/wordpool_EN.txt	LEAF	9	25	[0, 0, 0]	n/a	FR1	0	R1113T
3134.981	2.416	772392	WORD	n/a	wordpools/wordpool_EN.txt	SHIP	10	25	[0, 0, 0]	n/a	FR1	0	R1113T
3137.397	2.385	774808	WORD	n/a	wordpools/wordpool_EN.txt	SHELL	11	25	[0, 0, 0]	n/a	FR1	0	R1113T
3139.782	1.616	777193	WORD	n/a	wordpools/wordpool_EN.txt	APE	12	25	[0, 0, 0]	n/a	FR1	0	R1113T
3141.398	0.0	778809	DISTRACT_START	n/a	n/a	n/a	-999	25	[0, 0, 0]	n/a	FR1	0	R1113T
3141.398	0.016	778809	START	n/a	n/a	n/a	-999	25	[-999, -999, -999]	n/a	FR1	0	R1113T
3141.414	8.035	778825	PROB	8.035	n/a	n/a	-999	25	[2, 4, 5]	11	FR1	0	R1113T
3149.449	9.219	786860	PROB	9.219	n/a	n/a	-999	25	[4, 5, 3]	12	FR1	0	R1113T
3158.668	8.87	796078	PROB	8.87	n/a	n/a	-999	25	[4, 6, 2]	12	FR1	0	R1113T
3167.538	0.015	804948	STOP	n/a	n/a	n/a	-999	25	[-999, -999, -999]	n/a	FR1	0	R1113T
3167.553	1.169	804963	DISTRACT_END	n/a	n/a	n/a	-999	25	[0, 0, 0]	n/a	FR1	0	R1113T
3168.722	4.235	806132	REC_START	n/a	n/a	n/a	-999	25	[0, 0, 0]	n/a	FR1	0	R1113T
3172.957	1.503	810366	REC_WORD	1.503	n/a	HORSE	-999	25	[0, 0, 0]	n/a	FR1	0	R1113T
3174.46	2.305	811869	REC_WORD	2.305	n/a	STEM	-999	25	[0, 0, 0]	n/a	FR1	0	R1113T
3176.765	21.968	814174	REC_WORD	21.968	n/a	LEAF	-999	25	[0, 0, 0]	n/a	FR1	0	R1113T
3198.733	6.111	836141	REC_END	n/a	n/a	n/a	-999	25	[0, 0, 0]	n/a	FR1	0	R1113T
3204.844	0.0	842252	SESS_END	n/a	n/a	n/a	-999	25	[0, 0, 0]	n/a	FR1	0	R1113T
