onset	duration	sample	trial_type	response_time	stim_file	item_name	serialpos	list	test	answer	experiment	session	subject
0.0	17.555	114976	SESS_START	n/a	n/a	n/a	-999	-999	[0, 0, 0]	n/a	FR1	1	R1059J
17.555	10.428	132530	COUNTDOWN_START	n/a	n/a	n/a	-999	-999	[0, 0, 0]	n/a	FR1	1	R1059J
27.983	3.663	142958	COUNTDOWN_END	n/a	n/a	n/a	-999	-999	[0, 0, 0]	n/a	FR1	1	R1059J
31.646	2.588	146621	PRACTICE_WORD	n/a	n/a	CHEST	1	-1	[0, 0, 0]	n/a	FR1	1	R1059J
34.234	2.387	149209	PRACTICE_WORD	n/a	n/a	ATTIC	2	-1	[0, 0, 0]	n/a	FR1	1	R1059J
36.621	2.388	151595	PRACTICE_WORD	n/a	n/a	RHINO	3	-1	[0, 0, 0]	n/a	FR1	1	R1059J
39.009	2.454	153983	PRACTICE_WORD	n/a	n/a	TONGUE	4	-1	[0, 0, 0]	n/a	FR1	1	R1059J
41.463	2.403	156437	PRACTICE_WORD	n/a	n/a	WATCH	5	-1	[0, 0, 0]	n/a	FR1	1	R1059J
43.866	2.405	158840	PRACTICE_WORD	n/a	n/a	BEAM	6	-1	[0, 0, 0]	n/a	FR1	1	R1059J
46.271	2.57	161245	PRACTICE_WORD	n/a	n/a	COTTON	7	-1	[0, 0, 0]	n/a	FR1	1	R1059J
48.841	2.405	163815	PRACTICE_WORD	n/a	n/a	RING	8	-1	[0, 0, 0]	n/a	FR1	1	R1059J
51.246	2.404	166220	PRACTICE_WORD	n/a	n/a	FLOOD	9	-1	[0, 0, 0]	n/a	FR1	1	R1059J
53.65	2.521	168624	PRACTICE_WORD	n/a	n/a	WAGON	10	-1	[0, 0, 0]	n/a	FR1	1	R1059J
56.171	2.604	171145	PRACTICE_WORD	n/a	n/a	IRON	11	-1	[0, 0, 0]	n/a	FR1	1	R1059J
58.775	1.619	173749	PRACTICE_WORD	n/a	n/a	CAMEL	12	-1	[0, 0, 0]	n/a	FR1	1	R1059J
60.394	0.0	175368	PRACTICE_DISTRACT_START	n/a	n/a	n/a	-999	-1	[0, 0, 0]	n/a	FR1	1	R1059J
60.394	0.351	175368	START	n/a	n/a	n/a	-999	-1	[-999, -999, -999]	n/a	FR1	1	R1059J
60.745	7.028	175719	PROB	7.028	n/a	n/a	-999	-1	[6, 8, 8]	18	FR1	1	R1059J
67.773	4.342	182746	PROB	4.342	n/a	n/a	-999	-1	[2, 5, 2]	9	FR1	1	R1059J
72.115	4.023	187088	PROB	4.023	n/a	n/a	-999	-1	[4, 3, 7]	14	FR1	1	R1059J
76.138	5.881	191111	PROB	5.881	n/a	n/a	-999	-1	[7, 8, 5]	20	FR1	1	R1059J
82.019	0.012	196992	STOP	n/a	n/a	n/a	-999	-1	[-999, -999, -999]	n/a	FR1	1	R1059J
82.031	0.702	197004	PRACTICE_DISTRACT_END	n/a	n/a	n/a	-999	-1	[0, 0, 0]	n/a	FR1	1	R1059J
82.733	30.517	197706	PRACTICE_REC_START	n/a	n/a	n/a	-999	-1	[0, 0, 0]	n/a	FR1	1	R1059J
113.25	14.074	228222	PRACTICE_REC_END	n/a	n/a	n/a	-999	-1	[0, 0, 0]	n/a	FR1	1	R1059J
127.324	0.001	242295	COUNTDOWN_START	n/a	n/a	n/a	-999	1	[0, 0, 0]	n/a	FR1	1	R1059J
127.325	10.427	242296	TRIAL	n/a	n/a	n/a	-999	1	[0, 0, 0]	n/a	FR1	1	R1059J
137.752	0.005	252723	COUNTDOWN_END	n/a	n/a	n/a	-999	1	[0, 0, 0]	n/a	FR1	1	R1059J
137.757	2.539	252728	ORIENT	n/a	n/a	n/a	-999	1	[0, 0, 0]	n/a	FR1	1	R1059J
140.296	2.387	255267	WORD	n/a	wordpools/wordpool_EN.txt	SHELL	1	1	[0, 0, 0]	n/a	FR1	1	R1059J
142.683	2.605	257654	WORD	n/a	wordpools/wordpool_EN.txt	PEAR	2	1	[0, 0, 0]	n/a	FR1	1	R1059J
145.288	2.52	260259	WORD	n/a	wordpools/wordpool_EN.txt	SHRIMP	3	1	[0, 0, 0]	n/a	FR1	1	R1059J
147.808	2.587	262778	WORD	n/a	wordpools/wordpool_EN.txt	BOX	4	1	[0, 0, 0]	n/a	FR1	1	R1059J
150.395	2.538	265365	WORD	n/a	wordpools/wordpool_EN.txt	PALM	5	1	[0, 0, 0]	n/a	FR1	1	R1059J
152.933	2.454	267903	WORD	n/a	wordpools/wordpool_EN.txt	PIT	6	1	[0, 0, 0]	n/a	FR1	1	R1059J
155.387	2.454	270357	WORD	n/a	wordpools/wordpool_EN.txt	BEACH	7	1	[0, 0, 0]	n/a	FR1	1	R1059J
157.841	2.405	272811	WORD	n/a	wordpools/wordpool_EN.txt	JAR	8	1	[0, 0, 0]	n/a	FR1	1	R1059J
160.246	2.387	275216	WORD	n/a	wordpools/wordpool_EN.txt	WOOD	9	1	[0, 0, 0]	n/a	FR1	1	R1059J
162.633	2.605	277603	WORD	n/a	wordpools/wordpool_EN.txt	SEA	10	1	[0, 0, 0]	n/a	FR1	1	R1059J
165.238	2.386	280208	WORD	n/a	wordpools/wordpool_EN.txt	FUDGE	11	1	[0, 0, 0]	n/a	FR1	1	R1059J
167.624	1.604	282594	WORD	n/a	wordpools/wordpool_EN.txt	ARM	12	1	[0, 0, 0]	n/a	FR1	1	R1059J
169.228	0.001	284198	DISTRACT_START	n/a	n/a	n/a	-999	1	[0, 0, 0]	n/a	FR1	1	R1059J
169.229	0.016	284199	START	n/a	n/a	n/a	-999	1	[-999, -999, -999]	n/a	FR1	1	R1059J
169.245	7.211	284215	PROB	7.211	n/a	n/a	-999	1	[7, 5, 9]	21	FR1	1	R1059J
176.456	6.311	291425	PROB	6.311	n/a	n/a	-999	1	[8, 7, 4]	19	FR1	1	R1059J
182.767	9.291	297736	PROB	9.291	n/a	n/a	-999	1	[5, 7, 9]	21	FR1	1	R1059J
192.058	0.009	307027	STOP	n/a	n/a	n/a	-999	1	[-999, -999, -999]	n/a	FR1	1	R1059J
192.067	1.889	307036	DISTRACT_END	n/a	n/a	n/a	-999	1	[0, 0, 0]	n/a	FR1	1	R1059J
193.956	5.894	308925	REC_START	n/a	n/a	n/a	-999	1	[0, 0, 0]	n/a	FR1	1	R1059J
199.85	0.75	314819	REC_WORD	0.75	n/a	CHEST	-999	1	[0, 0, 0]	n/a	FR1	1	R1059J
200.6	1.708	315569	REC_WORD	1.708	n/a	RHINO	-999	1	[0, 0, 0]	n/a	FR1	1	R1059J
202.308	6.421	317276	REC_WORD	6.421	n/a	PIT	-999	1	[0, 0, 0]	n/a	FR1	1	R1059J
208.729	14.414	323697	REC_WORD	14.414	n/a	TONGUE	-999	1	[0, 0, 0]	n/a	FR1	1	R1059J
223.143	2.997	338111	REC_END	n/a	n/a	n/a	-999	1	[0, 0, 0]	n/a	FR1	1	R1059J
226.14	0.001	341108	COUNTDOWN_START	n/a	n/a	n/a	-999	2	[0, 0, 0]	n/a	FR1	1	R1059J
226.141	10.427	341109	TRIAL	n/a	n/a	n/a	-999	2	[0, 0, 0]	n/a	FR1	1	R1059J
236.568	0.006	351535	COUNTDOWN_END	n/a	n/a	n/a	-999	2	[0, 0, 0]	n/a	FR1	1	R1059J
236.574	2.522	351541	ORIENT	n/a	n/a	n/a	-999	2	[0, 0, 0]	n/a	FR1	1	R1059J
239.096	2.57	354063	WORD	n/a	wordpools/wordpool_EN.txt	THUMB	1	2	[0, 0, 0]	n/a	FR1	1	R1059J
241.666	2.438	356633	WORD	n/a	wordpools/wordpool_EN.txt	SLEEVE	2	2	[0, 0, 0]	n/a	FR1	1	R1059J
244.104	2.436	359071	WORD	n/a	wordpools/wordpool_EN.txt	FENCE	3	2	[0, 0, 0]	n/a	FR1	1	R1059J
246.54	2.421	361507	WORD	n/a	wordpools/wordpool_EN.txt	YARD	4	2	[0, 0, 0]	n/a	FR1	1	R1059J
248.961	2.571	363928	WORD	n/a	wordpools/wordpool_EN.txt	PEN	5	2	[0, 0, 0]	n/a	FR1	1	R1059J
251.532	2.589	366499	WORD	n/a	wordpools/wordpool_EN.txt	COUCH	6	2	[0, 0, 0]	n/a	FR1	1	R1059J
254.121	2.603	369088	WORD	n/a	wordpools/wordpool_EN.txt	TAIL	7	2	[0, 0, 0]	n/a	FR1	1	R1059J
256.724	2.489	371691	WORD	n/a	wordpools/wordpool_EN.txt	GATE	8	2	[0, 0, 0]	n/a	FR1	1	R1059J
259.213	2.62	374179	WORD	n/a	wordpools/wordpool_EN.txt	POOL	9	2	[0, 0, 0]	n/a	FR1	1	R1059J
261.833	2.406	376799	WORD	n/a	wordpools/wordpool_EN.txt	BAG	10	2	[0, 0, 0]	n/a	FR1	1	R1059J
264.239	2.602	379205	WORD	n/a	wordpools/wordpool_EN.txt	CUBE	11	2	[0, 0, 0]	n/a	FR1	1	R1059J
266.841	1.62	381807	WORD	n/a	wordpools/wordpool_EN.txt	ROOM	12	2	[0, 0, 0]	n/a	FR1	1	R1059J
268.461	0.0	383427	DISTRACT_START	n/a	n/a	n/a	-999	2	[0, 0, 0]	n/a	FR1	1	R1059J
268.461	0.016	383427	START	n/a	n/a	n/a	-999	2	[-999, -999, -999]	n/a	FR1	1	R1059J
268.477	4.324	383443	PROB	4.324	n/a	n/a	-999	2	[2, 2, 9]	13	FR1	1	R1059J
272.801	7.73	387767	PROB	7.73	n/a	n/a	-999	2	[5, 9, 3]	18	FR1	1	R1059J
280.531	5.694	395497	PROB	5.694	n/a	n/a	-999	2	[3, 9, 6]	18	FR1	1	R1059J
286.225	8.984	401190	PROB	8.984	n/a	n/a	-999	2	[4, 7, 5]	1	FR1	1	R1059J
295.209	0.014	410174	STOP	n/a	n/a	n/a	-999	2	[-999, -999, -999]	n/a	FR1	1	R1059J
295.223	1.119	410188	DISTRACT_END	n/a	n/a	n/a	-999	2	[0, 0, 0]	n/a	FR1	1	R1059J
296.342	30.017	411307	REC_START	n/a	n/a	n/a	-999	2	[0, 0, 0]	n/a	FR1	1	R1059J
326.359	0.002	441323	REC_WORD_VV	0.002	n/a	<>	-999	2	[0, 0, 0]	n/a	FR1	1	R1059J
326.361	5.34	441325	REC_END	n/a	n/a	n/a	-999	2	[0, 0, 0]	n/a	FR1	1	R1059J
331.701	0.0	446665	TRIAL	n/a	n/a	n/a	-999	3	[0, 0, 0]	n/a	FR1	1	R1059J
331.701	10.428	446665	COUNTDOWN_START	n/a	n/a	n/a	-999	3	[0, 0, 0]	n/a	FR1	1	R1059J
342.129	0.007	457092	COUNTDOWN_END	n/a	n/a	n/a	-999	3	[0, 0, 0]	n/a	FR1	1	R1059J
342.136	2.586	457099	ORIENT	n/a	n/a	n/a	-999	3	[0, 0, 0]	n/a	FR1	1	R1059J
344.722	2.405	459685	WORD	n/a	wordpools/wordpool_EN.txt	GEESE	1	3	[0, 0, 0]	n/a	FR1	1	R1059J
347.127	2.487	462090	WORD	n/a	wordpools/wordpool_EN.txt	ICE	2	3	[0, 0, 0]	n/a	FR1	1	R1059J
349.614	2.389	464577	WORD	n/a	wordpools/wordpool_EN.txt	FISH	3	3	[0, 0, 0]	n/a	FR1	1	R1059J
352.003	2.586	466966	WORD	n/a	wordpools/wordpool_EN.txt	SLIME	4	3	[0, 0, 0]	n/a	FR1	1	R1059J
354.589	2.422	469552	WORD	n/a	wordpools/wordpool_EN.txt	CAPE	5	3	[0, 0, 0]	n/a	FR1	1	R1059J
357.011	2.503	471974	WORD	n/a	wordpools/wordpool_EN.txt	FORT	6	3	[0, 0, 0]	n/a	FR1	1	R1059J
359.514	2.387	474477	WORD	n/a	wordpools/wordpool_EN.txt	TANK	7	3	[0, 0, 0]	n/a	FR1	1	R1059J
361.901	2.422	476864	WORD	n/a	wordpools/wordpool_EN.txt	STRING	8	3	[0, 0, 0]	n/a	FR1	1	R1059J
364.323	2.621	479286	WORD	n/a	wordpools/wordpool_EN.txt	GOAT	9	3	[0, 0, 0]	n/a	FR1	1	R1059J
366.944	2.437	481907	WORD	n/a	wordpools/wordpool_EN.txt	SKY	10	3	[0, 0, 0]	n/a	FR1	1	R1059J
369.381	2.42	484343	WORD	n/a	wordpools/wordpool_EN.txt	BAT	11	3	[0, 0, 0]	n/a	FR1	1	R1059J
371.801	1.62	486763	WORD	n/a	wordpools/wordpool_EN.txt	LAKE	12	3	[0, 0, 0]	n/a	FR1	1	R1059J
373.421	0.0	488383	DISTRACT_START	n/a	n/a	n/a	-999	3	[0, 0, 0]	n/a	FR1	1	R1059J
373.421	0.016	488383	START	n/a	n/a	n/a	-999	3	[-999, -999, -999]	n/a	FR1	1	R1059J
373.437	3.406	488399	PROB	3.406	n/a	n/a	-999	3	[1, 9, 1]	11	FR1	1	R1059J
376.843	5.143	491805	PROB	5.143	n/a	n/a	-999	3	[8, 3, 5]	16	FR1	1	R1059J
381.986	4.406	496948	PROB	4.406	n/a	n/a	-999	3	[3, 3, 5]	11	FR1	1	R1059J
386.392	4.157	501354	PROB	4.157	n/a	n/a	-999	3	[3, 6, 3]	12	FR1	1	R1059J
390.549	5.124	505511	PROB	5.124	n/a	n/a	-999	3	[7, 9, 7]	20	FR1	1	R1059J
395.673	0.018	510635	STOP	n/a	n/a	n/a	-999	3	[-999, -999, -999]	n/a	FR1	1	R1059J
395.691	1.203	510653	DISTRACT_END	n/a	n/a	n/a	-999	3	[0, 0, 0]	n/a	FR1	1	R1059J
396.894	6.464	511855	REC_START	n/a	n/a	n/a	-999	3	[0, 0, 0]	n/a	FR1	1	R1059J
403.358	0.857	518319	REC_WORD	0.857	n/a	FISH	-999	3	[0, 0, 0]	n/a	FR1	1	R1059J
404.215	1.21	519176	REC_WORD	1.21	n/a	SLIME	-999	3	[0, 0, 0]	n/a	FR1	1	R1059J
405.425	10.876	520386	REC_WORD	10.876	n/a	CAPE	-999	3	[0, 0, 0]	n/a	FR1	1	R1059J
416.301	10.606	531262	REC_WORD	10.606	n/a	SPRING	-999	3	[0, 0, 0]	n/a	FR1	1	R1059J
426.907	5.263	541867	REC_END	n/a	n/a	n/a	-999	3	[0, 0, 0]	n/a	FR1	1	R1059J
432.17	0.001	547130	COUNTDOWN_START	n/a	n/a	n/a	-999	4	[0, 0, 0]	n/a	FR1	1	R1059J
432.171	10.427	547131	TRIAL	n/a	n/a	n/a	-999	4	[0, 0, 0]	n/a	FR1	1	R1059J
442.598	0.006	557558	COUNTDOWN_END	n/a	n/a	n/a	-999	4	[0, 0, 0]	n/a	FR1	1	R1059J
442.604	2.622	557564	ORIENT	n/a	n/a	n/a	-999	4	[0, 0, 0]	n/a	FR1	1	R1059J
445.226	2.52	560186	WORD	n/a	wordpools/wordpool_EN.txt	POLE	1	4	[0, 0, 0]	n/a	FR1	1	R1059J
447.746	2.405	562706	WORD	n/a	wordpools/wordpool_EN.txt	CART	2	4	[0, 0, 0]	n/a	FR1	1	R1059J
450.151	2.536	565111	WORD	n/a	wordpools/wordpool_EN.txt	SUIT	3	4	[0, 0, 0]	n/a	FR1	1	R1059J
452.687	2.589	567646	WORD	n/a	wordpools/wordpool_EN.txt	ELF	4	4	[0, 0, 0]	n/a	FR1	1	R1059J
455.276	2.553	570235	WORD	n/a	wordpools/wordpool_EN.txt	PARK	5	4	[0, 0, 0]	n/a	FR1	1	R1059J
457.829	2.439	572788	WORD	n/a	wordpools/wordpool_EN.txt	SEAT	6	4	[0, 0, 0]	n/a	FR1	1	R1059J
460.268	2.553	575227	WORD	n/a	wordpools/wordpool_EN.txt	FLAG	7	4	[0, 0, 0]	n/a	FR1	1	R1059J
462.821	2.571	577780	WORD	n/a	wordpools/wordpool_EN.txt	TENT	8	4	[0, 0, 0]	n/a	FR1	1	R1059J
465.392	2.538	580351	WORD	n/a	wordpools/wordpool_EN.txt	TRUCK	9	4	[0, 0, 0]	n/a	FR1	1	R1059J
467.93	2.571	582889	WORD	n/a	wordpools/wordpool_EN.txt	ROOF	10	4	[0, 0, 0]	n/a	FR1	1	R1059J
470.501	2.404	585460	WORD	n/a	wordpools/wordpool_EN.txt	VEST	11	4	[0, 0, 0]	n/a	FR1	1	R1059J
472.905	1.619	587864	WORD	n/a	wordpools/wordpool_EN.txt	BAND	12	4	[0, 0, 0]	n/a	FR1	1	R1059J
474.524	0.001	589483	DISTRACT_START	n/a	n/a	n/a	-999	4	[0, 0, 0]	n/a	FR1	1	R1059J
474.525	0.016	589484	START	n/a	n/a	n/a	-999	4	[-999, -999, -999]	n/a	FR1	1	R1059J
474.541	6.177	589500	PROB	6.177	n/a	n/a	-999	4	[3, 3, 9]	15	FR1	1	R1059J
480.718	6.227	595676	PROB	6.227	n/a	n/a	-999	4	[6, 2, 4]	12	FR1	1	R1059J
486.945	5.776	601903	PROB	5.776	n/a	n/a	-999	4	[4, 8, 4]	16	FR1	1	R1059J
492.721	5.448	607679	PROB	5.448	n/a	n/a	-999	4	[7, 2, 4]	13	FR1	1	R1059J
498.169	0.013	613127	STOP	n/a	n/a	n/a	-999	4	[-999, -999, -999]	n/a	FR1	1	R1059J
498.182	1.185	613140	DISTRACT_END	n/a	n/a	n/a	-999	4	[0, 0, 0]	n/a	FR1	1	R1059J
499.367	16.272	614325	REC_START	n/a	n/a	n/a	-999	4	[0, 0, 0]	n/a	FR1	1	R1059J
515.639	2.182	630596	REC_WORD	2.182	n/a	PIT	-999	4	[0, 0, 0]	n/a	FR1	1	R1059J
517.821	0.553	632778	REC_WORD	0.553	n/a	RHINO	-999	4	[0, 0, 0]	n/a	FR1	1	R1059J
518.374	11.006	633331	REC_WORD	11.006	n/a	TONGUE	-999	4	[0, 0, 0]	n/a	FR1	1	R1059J
529.38	2.507	644337	REC_END	n/a	n/a	n/a	-999	4	[0, 0, 0]	n/a	FR1	1	R1059J
531.887	0.001	646844	COUNTDOWN_START	n/a	n/a	n/a	-999	5	[0, 0, 0]	n/a	FR1	1	R1059J
531.888	10.427	646845	TRIAL	n/a	n/a	n/a	-999	5	[0, 0, 0]	n/a	FR1	1	R1059J
542.315	0.008	657271	COUNTDOWN_END	n/a	n/a	n/a	-999	5	[0, 0, 0]	n/a	FR1	1	R1059J
542.323	2.62	657279	ORIENT	n/a	n/a	n/a	-999	5	[0, 0, 0]	n/a	FR1	1	R1059J
544.943	2.504	659899	WORD	n/a	wordpools/wordpool_EN.txt	LEG	1	5	[0, 0, 0]	n/a	FR1	1	R1059J
547.447	2.404	662403	WORD	n/a	wordpools/wordpool_EN.txt	SHOE	2	5	[0, 0, 0]	n/a	FR1	1	R1059J
549.851	2.537	664807	WORD	n/a	wordpools/wordpool_EN.txt	SWAMP	3	5	[0, 0, 0]	n/a	FR1	1	R1059J
552.388	2.538	667344	WORD	n/a	wordpools/wordpool_EN.txt	SKI	4	5	[0, 0, 0]	n/a	FR1	1	R1059J
554.926	2.521	669882	WORD	n/a	wordpools/wordpool_EN.txt	SHIRT	5	5	[0, 0, 0]	n/a	FR1	1	R1059J
557.447	2.404	672403	WORD	n/a	wordpools/wordpool_EN.txt	TOE	6	5	[0, 0, 0]	n/a	FR1	1	R1059J
559.851	2.588	674807	WORD	n/a	wordpools/wordpool_EN.txt	CLIFF	7	5	[0, 0, 0]	n/a	FR1	1	R1059J
562.439	2.555	677395	WORD	n/a	wordpools/wordpool_EN.txt	BOOT	8	5	[0, 0, 0]	n/a	FR1	1	R1059J
564.994	2.52	679949	WORD	n/a	wordpools/wordpool_EN.txt	BADGE	9	5	[0, 0, 0]	n/a	FR1	1	R1059J
567.514	2.371	682469	WORD	n/a	wordpools/wordpool_EN.txt	STREET	10	5	[0, 0, 0]	n/a	FR1	1	R1059J
569.885	2.438	684840	WORD	n/a	wordpools/wordpool_EN.txt	ARK	11	5	[0, 0, 0]	n/a	FR1	1	R1059J
572.323	1.618	687278	WORD	n/a	wordpools/wordpool_EN.txt	HILL	12	5	[0, 0, 0]	n/a	FR1	1	R1059J
573.941	0.001	688896	DISTRACT_START	n/a	n/a	n/a	-999	5	[0, 0, 0]	n/a	FR1	1	R1059J
573.942	0.016	688897	START	n/a	n/a	n/a	-999	5	[-999, -999, -999]	n/a	FR1	1	R1059J
573.958	6.128	688913	PROB	6.128	n/a	n/a	-999	5	[8, 1, 2]	11	FR1	1	R1059J
580.086	3.789	695041	PROB	3.789	n/a	n/a	-999	5	[3, 7, 6]	16	FR1	1	R1059J
583.875	3.656	698830	PROB	3.656	n/a	n/a	-999	5	[9, 1, 4]	14	FR1	1	R1059J
587.531	5.727	702486	PROB	5.727	n/a	n/a	-999	5	[1, 3, 2]	7	FR1	1	R1059J
593.258	10.0	708212	PROB	10.0	n/a	n/a	-999	5	[6, 4, 7]	17	FR1	1	R1059J
603.258	0.017	718212	STOP	n/a	n/a	n/a	-999	5	[-999, -999, -999]	n/a	FR1	1	R1059J
603.275	1.118	718229	DISTRACT_END	n/a	n/a	n/a	-999	5	[0, 0, 0]	n/a	FR1	1	R1059J
604.393	12.813	719347	REC_START	n/a	n/a	n/a	-999	5	[0, 0, 0]	n/a	FR1	1	R1059J
617.206	0.746	732160	REC_WORD	0.746	n/a	LEG	-999	5	[0, 0, 0]	n/a	FR1	1	R1059J
617.952	1.225	732906	REC_WORD	1.225	n/a	SWAMP	-999	5	[0, 0, 0]	n/a	FR1	1	R1059J
619.177	11.277	734131	REC_WORD	11.277	n/a	SHOE	-999	5	[0, 0, 0]	n/a	FR1	1	R1059J
630.454	3.953	745407	REC_WORD	3.953	n/a	FOOT	-999	5	[0, 0, 0]	n/a	FR1	1	R1059J
634.407	2.323	749360	REC_END	n/a	n/a	n/a	-999	5	[0, 0, 0]	n/a	FR1	1	R1059J
636.73	0.001	751683	COUNTDOWN_START	n/a	n/a	n/a	-999	6	[0, 0, 0]	n/a	FR1	1	R1059J
636.731	10.427	751684	TRIAL	n/a	n/a	n/a	-999	6	[0, 0, 0]	n/a	FR1	1	R1059J
647.158	0.008	762110	COUNTDOWN_END	n/a	n/a	n/a	-999	6	[0, 0, 0]	n/a	FR1	1	R1059J
647.166	2.453	762118	ORIENT	n/a	n/a	n/a	-999	6	[0, 0, 0]	n/a	FR1	1	R1059J
649.619	2.588	764571	WORD	n/a	wordpools/wordpool_EN.txt	HAND	1	6	[0, 0, 0]	n/a	FR1	1	R1059J
652.207	2.387	767159	WORD	n/a	wordpools/wordpool_EN.txt	BEE	2	6	[0, 0, 0]	n/a	FR1	1	R1059J
654.594	2.555	769546	WORD	n/a	wordpools/wordpool_EN.txt	DOOR	3	6	[0, 0, 0]	n/a	FR1	1	R1059J
657.149	2.42	772101	WORD	n/a	wordpools/wordpool_EN.txt	FLUTE	4	6	[0, 0, 0]	n/a	FR1	1	R1059J
659.569	2.589	774521	WORD	n/a	wordpools/wordpool_EN.txt	BRANCH	5	6	[0, 0, 0]	n/a	FR1	1	R1059J
662.158	2.62	777110	WORD	n/a	wordpools/wordpool_EN.txt	TREE	6	6	[0, 0, 0]	n/a	FR1	1	R1059J
664.778	2.522	779730	WORD	n/a	wordpools/wordpool_EN.txt	MOLE	7	6	[0, 0, 0]	n/a	FR1	1	R1059J
667.3	2.57	782252	WORD	n/a	wordpools/wordpool_EN.txt	CANE	8	6	[0, 0, 0]	n/a	FR1	1	R1059J
669.87	2.537	784822	WORD	n/a	wordpools/wordpool_EN.txt	DOLL	9	6	[0, 0, 0]	n/a	FR1	1	R1059J
672.407	2.504	787359	WORD	n/a	wordpools/wordpool_EN.txt	HOLE	10	6	[0, 0, 0]	n/a	FR1	1	R1059J
674.911	2.505	789863	WORD	n/a	wordpools/wordpool_EN.txt	WEB	11	6	[0, 0, 0]	n/a	FR1	1	R1059J
677.416	1.62	792367	WORD	n/a	wordpools/wordpool_EN.txt	SNAKE	12	6	[0, 0, 0]	n/a	FR1	1	R1059J
679.036	0.001	793987	DISTRACT_START	n/a	n/a	n/a	-999	6	[0, 0, 0]	n/a	FR1	1	R1059J
679.037	0.016	793988	START	n/a	n/a	n/a	-999	6	[-999, -999, -999]	n/a	FR1	1	R1059J
679.053	6.727	794004	PROB	6.727	n/a	n/a	-999	6	[3, 7, 7]	17	FR1	1	R1059J
685.78	3.889	800731	PROB	3.889	n/a	n/a	-999	6	[4, 5, 4]	1	FR1	1	R1059J
689.669	5.444	804620	PROB	5.444	n/a	n/a	-999	6	[1, 2, 7]	310	FR1	1	R1059J
695.113	6.228	810064	PROB	6.228	n/a	n/a	-999	6	[1, 7, 6]	14	FR1	1	R1059J
701.341	0.015	816292	STOP	n/a	n/a	n/a	-999	6	[-999, -999, -999]	n/a	FR1	1	R1059J
701.356	1.052	816307	DISTRACT_END	n/a	n/a	n/a	-999	6	[0, 0, 0]	n/a	FR1	1	R1059J
702.408	30.011	817359	REC_START	n/a	n/a	n/a	-999	6	[0, 0, 0]	n/a	FR1	1	R1059J
732.419	0.01	847368	REC_WORD_VV	0.01	n/a	<>	-999	6	[0, 0, 0]	n/a	FR1	1	R1059J
732.429	2.283	847378	REC_END	n/a	n/a	n/a	-999	6	[0, 0, 0]	n/a	FR1	1	R1059J
734.712	0.0	849661	TRIAL	n/a	n/a	n/a	-999	7	[0, 0, 0]	n/a	FR1	1	R1059J
734.712	10.428	849661	COUNTDOWN_START	n/a	n/a	n/a	-999	7	[0, 0, 0]	n/a	FR1	1	R1059J
745.14	0.007	860089	COUNTDOWN_END	n/a	n/a	n/a	-999	7	[0, 0, 0]	n/a	FR1	1	R1059J
745.147	2.487	860096	ORIENT	n/a	n/a	n/a	-999	7	[0, 0, 0]	n/a	FR1	1	R1059J
747.634	2.421	862583	WORD	n/a	wordpools/wordpool_EN.txt	DESK	1	7	[0, 0, 0]	n/a	FR1	1	R1059J
750.055	2.387	865004	WORD	n/a	wordpools/wordpool_EN.txt	BREAD	2	7	[0, 0, 0]	n/a	FR1	1	R1059J
752.442	2.572	867391	WORD	n/a	wordpools/wordpool_EN.txt	WORLD	3	7	[0, 0, 0]	n/a	FR1	1	R1059J
755.014	2.538	869963	WORD	n/a	wordpools/wordpool_EN.txt	BENCH	4	7	[0, 0, 0]	n/a	FR1	1	R1059J
757.552	2.604	872501	WORD	n/a	wordpools/wordpool_EN.txt	STOOL	5	7	[0, 0, 0]	n/a	FR1	1	R1059J
760.156	2.436	875104	WORD	n/a	wordpools/wordpool_EN.txt	MOUTH	6	7	[0, 0, 0]	n/a	FR1	1	R1059J
762.592	2.522	877540	WORD	n/a	wordpools/wordpool_EN.txt	SKUNK	7	7	[0, 0, 0]	n/a	FR1	1	R1059J
765.114	2.62	880062	WORD	n/a	wordpools/wordpool_EN.txt	RAT	8	7	[0, 0, 0]	n/a	FR1	1	R1059J
767.734	2.605	882682	WORD	n/a	wordpools/wordpool_EN.txt	BUSH	9	7	[0, 0, 0]	n/a	FR1	1	R1059J
770.339	2.621	885287	WORD	n/a	wordpools/wordpool_EN.txt	SINK	10	7	[0, 0, 0]	n/a	FR1	1	R1059J
772.96	2.454	887908	WORD	n/a	wordpools/wordpool_EN.txt	BROOM	11	7	[0, 0, 0]	n/a	FR1	1	R1059J
775.414	1.62	890362	WORD	n/a	wordpools/wordpool_EN.txt	VASE	12	7	[0, 0, 0]	n/a	FR1	1	R1059J
777.034	0.001	891982	DISTRACT_START	n/a	n/a	n/a	-999	7	[0, 0, 0]	n/a	FR1	1	R1059J
777.035	0.016	891983	START	n/a	n/a	n/a	-999	7	[-999, -999, -999]	n/a	FR1	1	R1059J
777.051	6.71	891999	PROB	6.71	n/a	n/a	-999	7	[9, 5, 8]	22	FR1	1	R1059J
783.761	4.024	898709	PROB	4.024	n/a	n/a	-999	7	[3, 8, 1]	12	FR1	1	R1059J
787.785	6.378	902732	PROB	6.378	n/a	n/a	-999	7	[6, 6, 5]	17	FR1	1	R1059J
794.163	4.298	909110	PROB	4.298	n/a	n/a	-999	7	[3, 1, 8]	12	FR1	1	R1059J
798.461	0.008	913408	STOP	n/a	n/a	n/a	-999	7	[-999, -999, -999]	n/a	FR1	1	R1059J
798.469	1.153	913416	DISTRACT_END	n/a	n/a	n/a	-999	7	[0, 0, 0]	n/a	FR1	1	R1059J
799.622	30.0	914569	REC_START	n/a	n/a	n/a	-999	7	[0, 0, 0]	n/a	FR1	1	R1059J
829.622	0.013	944568	REC_WORD_VV	0.013	n/a	<>	-999	7	[0, 0, 0]	n/a	FR1	1	R1059J
829.635	4.745	944581	REC_END	n/a	n/a	n/a	-999	7	[0, 0, 0]	n/a	FR1	1	R1059J
834.38	0.0	949326	TRIAL	n/a	n/a	n/a	-999	8	[0, 0, 0]	n/a	FR1	1	R1059J
834.38	10.428	949326	COUNTDOWN_START	n/a	n/a	n/a	-999	8	[0, 0, 0]	n/a	FR1	1	R1059J
844.808	0.006	959753	COUNTDOWN_END	n/a	n/a	n/a	-999	8	[0, 0, 0]	n/a	FR1	1	R1059J
844.814	2.438	959759	ORIENT	n/a	n/a	n/a	-999	8	[0, 0, 0]	n/a	FR1	1	R1059J
847.252	2.47	962197	WORD	n/a	wordpools/wordpool_EN.txt	STAIR	1	8	[0, 0, 0]	n/a	FR1	1	R1059J
849.722	2.489	964667	WORD	n/a	wordpools/wordpool_EN.txt	NET	2	8	[0, 0, 0]	n/a	FR1	1	R1059J
852.211	2.52	967156	WORD	n/a	wordpools/wordpool_EN.txt	BALL	3	8	[0, 0, 0]	n/a	FR1	1	R1059J
854.731	2.637	969676	WORD	n/a	wordpools/wordpool_EN.txt	SHEET	4	8	[0, 0, 0]	n/a	FR1	1	R1059J
857.368	2.555	972313	WORD	n/a	wordpools/wordpool_EN.txt	SCHOOL	5	8	[0, 0, 0]	n/a	FR1	1	R1059J
859.923	2.587	974868	WORD	n/a	wordpools/wordpool_EN.txt	MAP	6	8	[0, 0, 0]	n/a	FR1	1	R1059J
862.51	2.539	977455	WORD	n/a	wordpools/wordpool_EN.txt	WAND	7	8	[0, 0, 0]	n/a	FR1	1	R1059J
865.049	2.587	979994	WORD	n/a	wordpools/wordpool_EN.txt	BOARD	8	8	[0, 0, 0]	n/a	FR1	1	R1059J
867.636	2.438	982581	WORD	n/a	wordpools/wordpool_EN.txt	BOOK	9	8	[0, 0, 0]	n/a	FR1	1	R1059J
870.074	2.453	985018	WORD	n/a	wordpools/wordpool_EN.txt	TRAIN	10	8	[0, 0, 0]	n/a	FR1	1	R1059J
872.527	2.489	987471	WORD	n/a	wordpools/wordpool_EN.txt	DUCK	11	8	[0, 0, 0]	n/a	FR1	1	R1059J
875.016	1.618	989960	WORD	n/a	wordpools/wordpool_EN.txt	JUDGE	12	8	[0, 0, 0]	n/a	FR1	1	R1059J
876.634	0.001	991578	DISTRACT_START	n/a	n/a	n/a	-999	8	[0, 0, 0]	n/a	FR1	1	R1059J
876.635	0.016	991579	START	n/a	n/a	n/a	-999	8	[-999, -999, -999]	n/a	FR1	1	R1059J
876.651	4.575	991595	PROB	4.575	n/a	n/a	-999	8	[1, 1, 9]	11	FR1	1	R1059J
881.226	4.24	996170	PROB	4.24	n/a	n/a	-999	8	[9, 5, 1]	15	FR1	1	R1059J
885.466	5.492	1000410	PROB	5.492	n/a	n/a	-999	8	[2, 3, 3]	8	FR1	1	R1059J
890.958	8.499	1005902	PROB	8.499	n/a	n/a	-999	8	[5, 8, 6]	19	FR1	1	R1059J
899.457	0.016	1014400	STOP	n/a	n/a	n/a	-999	8	[-999, -999, -999]	n/a	FR1	1	R1059J
899.473	1.22	1014416	DISTRACT_END	n/a	n/a	n/a	-999	8	[0, 0, 0]	n/a	FR1	1	R1059J
900.693	18.343	1015636	REC_START	n/a	n/a	n/a	-999	8	[0, 0, 0]	n/a	FR1	1	R1059J
919.036	3.507	1033979	REC_WORD	3.507	n/a	STAIR	-999	8	[0, 0, 0]	n/a	FR1	1	R1059J
922.543	8.178	1037486	REC_WORD	8.178	n/a	LEG	-999	8	[0, 0, 0]	n/a	FR1	1	R1059J
930.721	4.579	1045663	REC_END	n/a	n/a	n/a	-999	8	[0, 0, 0]	n/a	FR1	1	R1059J
935.3	0.001	1050242	COUNTDOWN_START	n/a	n/a	n/a	-999	9	[0, 0, 0]	n/a	FR1	1	R1059J
935.301	10.427	1050243	TRIAL	n/a	n/a	n/a	-999	9	[0, 0, 0]	n/a	FR1	1	R1059J
945.728	0.006	1060670	COUNTDOWN_END	n/a	n/a	n/a	-999	9	[0, 0, 0]	n/a	FR1	1	R1059J
945.734	2.405	1060676	ORIENT	n/a	n/a	n/a	-999	9	[0, 0, 0]	n/a	FR1	1	R1059J
948.139	2.421	1063081	WORD	n/a	wordpools/wordpool_EN.txt	SIGN	1	9	[0, 0, 0]	n/a	FR1	1	R1059J
950.56	2.454	1065502	WORD	n/a	wordpools/wordpool_EN.txt	DOG	2	9	[0, 0, 0]	n/a	FR1	1	R1059J
953.014	2.553	1067956	WORD	n/a	wordpools/wordpool_EN.txt	WEED	3	9	[0, 0, 0]	n/a	FR1	1	R1059J
955.567	2.438	1070508	WORD	n/a	wordpools/wordpool_EN.txt	CHIN	4	9	[0, 0, 0]	n/a	FR1	1	R1059J
958.005	2.403	1072946	WORD	n/a	wordpools/wordpool_EN.txt	VAN	5	9	[0, 0, 0]	n/a	FR1	1	R1059J
960.408	2.488	1075349	WORD	n/a	wordpools/wordpool_EN.txt	PET	6	9	[0, 0, 0]	n/a	FR1	1	R1059J
962.896	2.487	1077837	WORD	n/a	wordpools/wordpool_EN.txt	BATH	7	9	[0, 0, 0]	n/a	FR1	1	R1059J
965.383	2.538	1080324	WORD	n/a	wordpools/wordpool_EN.txt	SMILE	8	9	[0, 0, 0]	n/a	FR1	1	R1059J
967.921	2.422	1082862	WORD	n/a	wordpools/wordpool_EN.txt	CONE	9	9	[0, 0, 0]	n/a	FR1	1	R1059J
970.343	2.403	1085284	WORD	n/a	wordpools/wordpool_EN.txt	CHALK	10	9	[0, 0, 0]	n/a	FR1	1	R1059J
972.746	2.422	1087687	WORD	n/a	wordpools/wordpool_EN.txt	FLEA	11	9	[0, 0, 0]	n/a	FR1	1	R1059J
975.168	1.618	1090109	WORD	n/a	wordpools/wordpool_EN.txt	EAR	12	9	[0, 0, 0]	n/a	FR1	1	R1059J
976.786	0.001	1091727	DISTRACT_START	n/a	n/a	n/a	-999	9	[0, 0, 0]	n/a	FR1	1	R1059J
976.787	0.016	1091728	START	n/a	n/a	n/a	-999	9	[-999, -999, -999]	n/a	FR1	1	R1059J
976.803	7.896	1091744	PROB	7.896	n/a	n/a	-999	9	[4, 8, 3]	15	FR1	1	R1059J
984.699	12.296	1099639	PROB	12.296	n/a	n/a	-999	9	[7, 2, 8]	116	FR1	1	R1059J
996.995	0.01	1111935	STOP	n/a	n/a	n/a	-999	9	[-999, -999, -999]	n/a	FR1	1	R1059J
997.005	1.118	1111945	DISTRACT_END	n/a	n/a	n/a	-999	9	[0, 0, 0]	n/a	FR1	1	R1059J
998.123	7.423	1113063	REC_START	n/a	n/a	n/a	-999	9	[0, 0, 0]	n/a	FR1	1	R1059J
1005.546	2.53	1120486	REC_WORD	2.53	n/a	DOG	-999	9	[0, 0, 0]	n/a	FR1	1	R1059J
1008.076	3.506	1123016	REC_WORD	3.506	n/a	PET	-999	9	[0, 0, 0]	n/a	FR1	1	R1059J
1011.582	16.562	1126521	REC_WORD	16.562	n/a	PATH	-999	9	[0, 0, 0]	n/a	FR1	1	R1059J
1028.144	4.336	1143083	REC_END	n/a	n/a	n/a	-999	9	[0, 0, 0]	n/a	FR1	1	R1059J
1032.48	0.0	1147419	TRIAL	n/a	n/a	n/a	-999	10	[0, 0, 0]	n/a	FR1	1	R1059J
1032.48	10.428	1147419	COUNTDOWN_START	n/a	n/a	n/a	-999	10	[0, 0, 0]	n/a	FR1	1	R1059J
1042.908	0.006	1157846	COUNTDOWN_END	n/a	n/a	n/a	-999	10	[0, 0, 0]	n/a	FR1	1	R1059J
1042.914	2.571	1157852	ORIENT	n/a	n/a	n/a	-999	10	[0, 0, 0]	n/a	FR1	1	R1059J
1045.485	2.404	1160423	WORD	n/a	wordpools/wordpool_EN.txt	TOOL	1	10	[0, 0, 0]	n/a	FR1	1	R1059J
1047.889	2.487	1162827	WORD	n/a	wordpools/wordpool_EN.txt	CLOWN	2	10	[0, 0, 0]	n/a	FR1	1	R1059J
1050.376	2.588	1165314	WORD	n/a	wordpools/wordpool_EN.txt	EGG	3	10	[0, 0, 0]	n/a	FR1	1	R1059J
1052.964	2.554	1167902	WORD	n/a	wordpools/wordpool_EN.txt	POND	4	10	[0, 0, 0]	n/a	FR1	1	R1059J
1055.518	2.606	1170456	WORD	n/a	wordpools/wordpool_EN.txt	ZOO	5	10	[0, 0, 0]	n/a	FR1	1	R1059J
1058.124	2.453	1173062	WORD	n/a	wordpools/wordpool_EN.txt	WHEEL	6	10	[0, 0, 0]	n/a	FR1	1	R1059J
1060.577	2.572	1175515	WORD	n/a	wordpools/wordpool_EN.txt	TOAD	7	10	[0, 0, 0]	n/a	FR1	1	R1059J
1063.149	2.47	1178087	WORD	n/a	wordpools/wordpool_EN.txt	CAT	8	10	[0, 0, 0]	n/a	FR1	1	R1059J
1065.619	2.488	1180556	WORD	n/a	wordpools/wordpool_EN.txt	MOUSE	9	10	[0, 0, 0]	n/a	FR1	1	R1059J
1068.107	2.57	1183044	WORD	n/a	wordpools/wordpool_EN.txt	SPONGE	10	10	[0, 0, 0]	n/a	FR1	1	R1059J
1070.677	2.455	1185614	WORD	n/a	wordpools/wordpool_EN.txt	MOOSE	11	10	[0, 0, 0]	n/a	FR1	1	R1059J
1073.132	1.619	1188069	WORD	n/a	wordpools/wordpool_EN.txt	CLOCK	12	10	[0, 0, 0]	n/a	FR1	1	R1059J
1074.751	0.001	1189688	DISTRACT_START	n/a	n/a	n/a	-999	10	[0, 0, 0]	n/a	FR1	1	R1059J
1074.752	0.015	1189689	START	n/a	n/a	n/a	-999	10	[-999, -999, -999]	n/a	FR1	1	R1059J
1074.767	4.492	1189704	PROB	4.492	n/a	n/a	-999	10	[5, 5, 1]	11	FR1	1	R1059J
1079.259	4.725	1194196	PROB	4.725	n/a	n/a	-999	10	[7, 8, 2]	17	FR1	1	R1059J
1083.984	3.956	1198921	PROB	3.956	n/a	n/a	-999	10	[7, 7, 2]	16	FR1	1	R1059J
1087.94	3.99	1202877	PROB	3.99	n/a	n/a	-999	10	[7, 1, 7]	15	FR1	1	R1059J
1091.93	5.979	1206867	PROB	5.979	n/a	n/a	-999	10	[2, 1, 5]	8	FR1	1	R1059J
1097.909	0.014	1212845	STOP	n/a	n/a	n/a	-999	10	[-999, -999, -999]	n/a	FR1	1	R1059J
1097.923	1.154	1212859	DISTRACT_END	n/a	n/a	n/a	-999	10	[0, 0, 0]	n/a	FR1	1	R1059J
1099.077	15.848	1214013	REC_START	n/a	n/a	n/a	-999	10	[0, 0, 0]	n/a	FR1	1	R1059J
1114.925	1.227	1229861	REC_WORD	1.227	n/a	POND	-999	10	[0, 0, 0]	n/a	FR1	1	R1059J
1116.152	2.675	1231088	REC_WORD	2.675	n/a	FISH	-999	10	[0, 0, 0]	n/a	FR1	1	R1059J
1118.827	10.264	1233763	REC_WORD	10.264	n/a	CAT	-999	10	[0, 0, 0]	n/a	FR1	1	R1059J
1129.091	2.472	1244026	REC_END	n/a	n/a	n/a	-999	10	[0, 0, 0]	n/a	FR1	1	R1059J
1131.563	0.001	1246498	COUNTDOWN_START	n/a	n/a	n/a	-999	11	[0, 0, 0]	n/a	FR1	1	R1059J
1131.564	10.427	1246499	TRIAL	n/a	n/a	n/a	-999	11	[0, 0, 0]	n/a	FR1	1	R1059J
1141.991	0.007	1256926	COUNTDOWN_END	n/a	n/a	n/a	-999	11	[0, 0, 0]	n/a	FR1	1	R1059J
1141.998	2.437	1256933	ORIENT	n/a	n/a	n/a	-999	11	[0, 0, 0]	n/a	FR1	1	R1059J
1144.435	2.487	1259370	WORD	n/a	wordpools/wordpool_EN.txt	SHEEP	1	11	[0, 0, 0]	n/a	FR1	1	R1059J
1146.922	2.471	1261857	WORD	n/a	wordpools/wordpool_EN.txt	DRUM	2	11	[0, 0, 0]	n/a	FR1	1	R1059J
1149.393	2.404	1264327	WORD	n/a	wordpools/wordpool_EN.txt	VINE	3	11	[0, 0, 0]	n/a	FR1	1	R1059J
1151.797	2.455	1266731	WORD	n/a	wordpools/wordpool_EN.txt	CROW	4	11	[0, 0, 0]	n/a	FR1	1	R1059J
1154.252	2.57	1269186	WORD	n/a	wordpools/wordpool_EN.txt	RAIN	5	11	[0, 0, 0]	n/a	FR1	1	R1059J
1156.822	2.405	1271756	WORD	n/a	wordpools/wordpool_EN.txt	BRUSH	6	11	[0, 0, 0]	n/a	FR1	1	R1059J
1159.227	2.453	1274161	WORD	n/a	wordpools/wordpool_EN.txt	DEER	7	11	[0, 0, 0]	n/a	FR1	1	R1059J
1161.68	2.506	1276614	WORD	n/a	wordpools/wordpool_EN.txt	FROG	8	11	[0, 0, 0]	n/a	FR1	1	R1059J
1164.186	2.603	1279120	WORD	n/a	wordpools/wordpool_EN.txt	PASTE	9	11	[0, 0, 0]	n/a	FR1	1	R1059J
1166.789	2.638	1281723	WORD	n/a	wordpools/wordpool_EN.txt	TEETH	10	11	[0, 0, 0]	n/a	FR1	1	R1059J
1169.427	2.572	1284361	WORD	n/a	wordpools/wordpool_EN.txt	ROOT	11	11	[0, 0, 0]	n/a	FR1	1	R1059J
1171.999	1.618	1286933	WORD	n/a	wordpools/wordpool_EN.txt	CHIEF	12	11	[0, 0, 0]	n/a	FR1	1	R1059J
1173.617	0.001	1288551	DISTRACT_START	n/a	n/a	n/a	-999	11	[0, 0, 0]	n/a	FR1	1	R1059J
1173.618	0.016	1288552	START	n/a	n/a	n/a	-999	11	[-999, -999, -999]	n/a	FR1	1	R1059J
1173.634	4.992	1288568	PROB	4.992	n/a	n/a	-999	11	[9, 4, 1]	14	FR1	1	R1059J
1178.626	2.187	1293559	PROB	2.187	n/a	n/a	-999	11	[4, 6, 4]	14	FR1	1	R1059J
1180.813	9.132	1295746	PROB	9.132	n/a	n/a	-999	11	[9, 9, 8]	16	FR1	1	R1059J
1189.945	4.61	1304878	PROB	4.61	n/a	n/a	-999	11	[5, 8, 7]	20	FR1	1	R1059J
1194.555	0.014	1309488	STOP	n/a	n/a	n/a	-999	11	[-999, -999, -999]	n/a	FR1	1	R1059J
1194.569	1.219	1309502	DISTRACT_END	n/a	n/a	n/a	-999	11	[0, 0, 0]	n/a	FR1	1	R1059J
1195.788	30.017	1310721	REC_START	n/a	n/a	n/a	-999	11	[0, 0, 0]	n/a	FR1	1	R1059J
1225.805	0.005	1340737	REC_WORD_VV	0.005	n/a	<>	-999	11	[0, 0, 0]	n/a	FR1	1	R1059J
1225.81	3.083	1340742	REC_END	n/a	n/a	n/a	-999	11	[0, 0, 0]	n/a	FR1	1	R1059J
1228.893	0.001	1343825	COUNTDOWN_START	n/a	n/a	n/a	-999	12	[0, 0, 0]	n/a	FR1	1	R1059J
1228.894	10.427	1343826	TRIAL	n/a	n/a	n/a	-999	12	[0, 0, 0]	n/a	FR1	1	R1059J
1239.321	0.008	1354252	COUNTDOWN_END	n/a	n/a	n/a	-999	12	[0, 0, 0]	n/a	FR1	1	R1059J
1239.329	2.603	1354260	ORIENT	n/a	n/a	n/a	-999	12	[0, 0, 0]	n/a	FR1	1	R1059J
1241.932	2.538	1356863	WORD	n/a	wordpools/wordpool_EN.txt	STEM	1	12	[0, 0, 0]	n/a	FR1	1	R1059J
1244.47	2.471	1359401	WORD	n/a	wordpools/wordpool_EN.txt	WORM	2	12	[0, 0, 0]	n/a	FR1	1	R1059J
1246.941	2.47	1361872	WORD	n/a	wordpools/wordpool_EN.txt	SALT	3	12	[0, 0, 0]	n/a	FR1	1	R1059J
1249.411	2.572	1364342	WORD	n/a	wordpools/wordpool_EN.txt	CORD	4	12	[0, 0, 0]	n/a	FR1	1	R1059J
1251.983	2.621	1366914	WORD	n/a	wordpools/wordpool_EN.txt	RAKE	5	12	[0, 0, 0]	n/a	FR1	1	R1059J
1254.604	2.588	1369535	WORD	n/a	wordpools/wordpool_EN.txt	SNAIL	6	12	[0, 0, 0]	n/a	FR1	1	R1059J
1257.192	2.403	1372123	WORD	n/a	wordpools/wordpool_EN.txt	RIB	7	12	[0, 0, 0]	n/a	FR1	1	R1059J
1259.595	2.422	1374525	WORD	n/a	wordpools/wordpool_EN.txt	ANT	8	12	[0, 0, 0]	n/a	FR1	1	R1059J
1262.017	2.62	1376947	WORD	n/a	wordpools/wordpool_EN.txt	MILK	9	12	[0, 0, 0]	n/a	FR1	1	R1059J
1264.637	2.589	1379567	WORD	n/a	wordpools/wordpool_EN.txt	HEART	10	12	[0, 0, 0]	n/a	FR1	1	R1059J
1267.226	2.486	1382156	WORD	n/a	wordpools/wordpool_EN.txt	MOTH	11	12	[0, 0, 0]	n/a	FR1	1	R1059J
1269.712	1.604	1384642	WORD	n/a	wordpools/wordpool_EN.txt	FRUIT	12	12	[0, 0, 0]	n/a	FR1	1	R1059J
1271.316	0.001	1386246	DISTRACT_START	n/a	n/a	n/a	-999	12	[0, 0, 0]	n/a	FR1	1	R1059J
1271.317	0.016	1386247	START	n/a	n/a	n/a	-999	12	[-999, -999, -999]	n/a	FR1	1	R1059J
1271.333	5.475	1386263	PROB	5.475	n/a	n/a	-999	12	[9, 3, 2]	14	FR1	1	R1059J
1276.808	5.141	1391738	PROB	5.141	n/a	n/a	-999	12	[2, 7, 4]	13	FR1	1	R1059J
1281.949	3.473	1396879	PROB	3.473	n/a	n/a	-999	12	[1, 1, 4]	6	FR1	1	R1059J
1285.422	4.709	1400352	PROB	4.709	n/a	n/a	-999	12	[5, 9, 5]	19	FR1	1	R1059J
1290.131	3.507	1405060	PROB	3.507	n/a	n/a	-999	12	[3, 2, 4]	9	FR1	1	R1059J
1293.638	0.014	1408567	STOP	n/a	n/a	n/a	-999	12	[-999, -999, -999]	n/a	FR1	1	R1059J
1293.652	1.186	1408581	DISTRACT_END	n/a	n/a	n/a	-999	12	[0, 0, 0]	n/a	FR1	1	R1059J
1294.838	15.003	1409767	REC_START	n/a	n/a	n/a	-999	12	[0, 0, 0]	n/a	FR1	1	R1059J
1309.841	0.987	1424770	REC_WORD_VV	0.987	n/a	<>	-999	12	[0, 0, 0]	n/a	FR1	1	R1059J
1310.828	0.917	1425757	REC_WORD	0.917	n/a	RHINO	-999	12	[0, 0, 0]	n/a	FR1	1	R1059J
1311.745	13.113	1426674	REC_WORD	13.113	n/a	TONGUE	-999	12	[0, 0, 0]	n/a	FR1	1	R1059J
1324.858	29.096	1439786	REC_END	n/a	n/a	n/a	-999	12	[0, 0, 0]	n/a	FR1	1	R1059J
1353.954	0.0	1468881	COUNTDOWN_START	n/a	n/a	n/a	-999	13	[0, 0, 0]	n/a	FR1	1	R1059J
1353.954	10.428	1468881	TRIAL	n/a	n/a	n/a	-999	13	[0, 0, 0]	n/a	FR1	1	R1059J
1364.382	0.006	1479309	COUNTDOWN_END	n/a	n/a	n/a	-999	13	[0, 0, 0]	n/a	FR1	1	R1059J
1364.388	2.404	1479315	ORIENT	n/a	n/a	n/a	-999	13	[0, 0, 0]	n/a	FR1	1	R1059J
1366.792	2.621	1481719	WORD	n/a	wordpools/wordpool_EN.txt	INK	1	13	[0, 0, 0]	n/a	FR1	1	R1059J
1369.413	2.506	1484340	WORD	n/a	wordpools/wordpool_EN.txt	BOY	2	13	[0, 0, 0]	n/a	FR1	1	R1059J
1371.919	2.387	1486845	WORD	n/a	wordpools/wordpool_EN.txt	FILM	3	13	[0, 0, 0]	n/a	FR1	1	R1059J
1374.306	2.603	1489232	WORD	n/a	wordpools/wordpool_EN.txt	WHALE	4	13	[0, 0, 0]	n/a	FR1	1	R1059J
1376.909	2.571	1491835	WORD	n/a	wordpools/wordpool_EN.txt	CASH	5	13	[0, 0, 0]	n/a	FR1	1	R1059J
1379.48	2.505	1494406	WORD	n/a	wordpools/wordpool_EN.txt	AXE	6	13	[0, 0, 0]	n/a	FR1	1	R1059J
1381.985	2.387	1496911	WORD	n/a	wordpools/wordpool_EN.txt	CRANE	7	13	[0, 0, 0]	n/a	FR1	1	R1059J
1384.372	2.554	1499298	WORD	n/a	wordpools/wordpool_EN.txt	BLOOM	8	13	[0, 0, 0]	n/a	FR1	1	R1059J
1386.926	2.604	1501852	WORD	n/a	wordpools/wordpool_EN.txt	BRICK	9	13	[0, 0, 0]	n/a	FR1	1	R1059J
1389.53	2.522	1504456	WORD	n/a	wordpools/wordpool_EN.txt	MAZE	10	13	[0, 0, 0]	n/a	FR1	1	R1059J
1392.052	2.537	1506978	WORD	n/a	wordpools/wordpool_EN.txt	PEACH	11	13	[0, 0, 0]	n/a	FR1	1	R1059J
1394.589	1.604	1509515	WORD	n/a	wordpools/wordpool_EN.txt	STONE	12	13	[0, 0, 0]	n/a	FR1	1	R1059J
1396.193	0.001	1511119	DISTRACT_START	n/a	n/a	n/a	-999	13	[0, 0, 0]	n/a	FR1	1	R1059J
1396.194	0.015	1511120	START	n/a	n/a	n/a	-999	13	[-999, -999, -999]	n/a	FR1	1	R1059J
1396.209	4.457	1511135	PROB	4.457	n/a	n/a	-999	13	[3, 8, 1]	12	FR1	1	R1059J
1400.666	3.105	1515591	PROB	3.105	n/a	n/a	-999	13	[1, 3, 6]	10	FR1	1	R1059J
1403.771	2.655	1518696	PROB	2.655	n/a	n/a	-999	13	[4, 6, 3]	13	FR1	1	R1059J
1406.426	4.842	1521351	PROB	4.842	n/a	n/a	-999	13	[6, 4, 6]	16	FR1	1	R1059J
1411.268	2.67	1526193	PROB	2.67	n/a	n/a	-999	13	[5, 9, 5]	19	FR1	1	R1059J
1413.938	3.314	1528863	PROB	3.314	n/a	n/a	-999	13	[6, 2, 1]	9	FR1	1	R1059J
1417.252	0.011	1532177	STOP	n/a	n/a	n/a	-999	13	[-999, -999, -999]	n/a	FR1	1	R1059J
1417.263	1.051	1532188	DISTRACT_END	n/a	n/a	n/a	-999	13	[0, 0, 0]	n/a	FR1	1	R1059J
1418.314	6.495	1533239	REC_START	n/a	n/a	n/a	-999	13	[0, 0, 0]	n/a	FR1	1	R1059J
1424.809	1.15	1539734	REC_WORD	1.15	n/a	BOY	-999	13	[0, 0, 0]	n/a	FR1	1	R1059J
1425.959	3.296	1540884	REC_WORD	3.296	n/a	AXE	-999	13	[0, 0, 0]	n/a	FR1	1	R1059J
1429.255	5.746	1544179	REC_WORD	5.746	n/a	STINK	-999	13	[0, 0, 0]	n/a	FR1	1	R1059J
1435.001	13.326	1549925	REC_WORD	13.326	n/a	INK	-999	13	[0, 0, 0]	n/a	FR1	1	R1059J
1448.327	3.826	1563251	REC_END	n/a	n/a	n/a	-999	13	[0, 0, 0]	n/a	FR1	1	R1059J
1452.153	0.001	1567077	COUNTDOWN_START	n/a	n/a	n/a	-999	14	[0, 0, 0]	n/a	FR1	1	R1059J
1452.154	10.427	1567078	TRIAL	n/a	n/a	n/a	-999	14	[0, 0, 0]	n/a	FR1	1	R1059J
1462.581	0.006	1577504	COUNTDOWN_END	n/a	n/a	n/a	-999	14	[0, 0, 0]	n/a	FR1	1	R1059J
1462.587	2.588	1577510	ORIENT	n/a	n/a	n/a	-999	14	[0, 0, 0]	n/a	FR1	1	R1059J
1465.175	2.454	1580098	WORD	n/a	wordpools/wordpool_EN.txt	BED	1	14	[0, 0, 0]	n/a	FR1	1	R1059J
1467.629	2.622	1582552	WORD	n/a	wordpools/wordpool_EN.txt	TEA	2	14	[0, 0, 0]	n/a	FR1	1	R1059J
1470.251	2.536	1585174	WORD	n/a	wordpools/wordpool_EN.txt	PANTS	3	14	[0, 0, 0]	n/a	FR1	1	R1059J
1472.787	2.54	1587710	WORD	n/a	wordpools/wordpool_EN.txt	TOY	4	14	[0, 0, 0]	n/a	FR1	1	R1059J
1475.327	2.402	1590250	WORD	n/a	wordpools/wordpool_EN.txt	CLOTH	5	14	[0, 0, 0]	n/a	FR1	1	R1059J
1477.729	2.371	1592652	WORD	n/a	wordpools/wordpool_EN.txt	GRASS	6	14	[0, 0, 0]	n/a	FR1	1	R1059J
1480.1	2.52	1595023	WORD	n/a	wordpools/wordpool_EN.txt	OAK	7	14	[0, 0, 0]	n/a	FR1	1	R1059J
1482.62	2.472	1597542	WORD	n/a	wordpools/wordpool_EN.txt	FUR	8	14	[0, 0, 0]	n/a	FR1	1	R1059J
1485.092	2.554	1600014	WORD	n/a	wordpools/wordpool_EN.txt	SOCK	9	14	[0, 0, 0]	n/a	FR1	1	R1059J
1487.646	2.405	1602568	WORD	n/a	wordpools/wordpool_EN.txt	MAT	10	14	[0, 0, 0]	n/a	FR1	1	R1059J
1490.051	2.603	1604973	WORD	n/a	wordpools/wordpool_EN.txt	TIE	11	14	[0, 0, 0]	n/a	FR1	1	R1059J
1492.654	1.604	1607576	WORD	n/a	wordpools/wordpool_EN.txt	LAMB	12	14	[0, 0, 0]	n/a	FR1	1	R1059J
1494.258	0.0	1609180	DISTRACT_START	n/a	n/a	n/a	-999	14	[0, 0, 0]	n/a	FR1	1	R1059J
1494.258	0.016	1609180	START	n/a	n/a	n/a	-999	14	[-999, -999, -999]	n/a	FR1	1	R1059J
1494.274	6.712	1609196	PROB	6.712	n/a	n/a	-999	14	[5, 3, 8]	16	FR1	1	R1059J
1500.986	6.543	1615908	PROB	6.543	n/a	n/a	-999	14	[5, 6, 9]	20	FR1	1	R1059J
1507.529	3.907	1622451	PROB	3.907	n/a	n/a	-999	14	[2, 9, 4]	15	FR1	1	R1059J
1511.436	3.772	1626357	PROB	3.772	n/a	n/a	-999	14	[3, 4, 3]	10	FR1	1	R1059J
1515.208	0.018	1630129	STOP	n/a	n/a	n/a	-999	14	[-999, -999, -999]	n/a	FR1	1	R1059J
1515.226	1.185	1630147	DISTRACT_END	n/a	n/a	n/a	-999	14	[0, 0, 0]	n/a	FR1	1	R1059J
1516.411	11.901	1631332	REC_START	n/a	n/a	n/a	-999	14	[0, 0, 0]	n/a	FR1	1	R1059J
1528.312	1.698	1643233	REC_WORD	1.698	n/a	BEE	-999	14	[0, 0, 0]	n/a	FR1	1	R1059J
1530.01	16.415	1644931	REC_WORD	16.415	n/a	TEA	-999	14	[0, 0, 0]	n/a	FR1	1	R1059J
1546.425	2.173	1661345	REC_END	n/a	n/a	n/a	-999	14	[0, 0, 0]	n/a	FR1	1	R1059J
1548.598	0.001	1663518	COUNTDOWN_START	n/a	n/a	n/a	-999	15	[0, 0, 0]	n/a	FR1	1	R1059J
1548.599	10.427	1663519	TRIAL	n/a	n/a	n/a	-999	15	[0, 0, 0]	n/a	FR1	1	R1059J
1559.026	0.007	1673946	COUNTDOWN_END	n/a	n/a	n/a	-999	15	[0, 0, 0]	n/a	FR1	1	R1059J
1559.033	2.57	1673953	ORIENT	n/a	n/a	n/a	-999	15	[0, 0, 0]	n/a	FR1	1	R1059J
1561.603	2.439	1676523	WORD	n/a	wordpools/wordpool_EN.txt	HOSE	1	15	[0, 0, 0]	n/a	FR1	1	R1059J
1564.042	2.503	1678962	WORD	n/a	wordpools/wordpool_EN.txt	SOAP	2	15	[0, 0, 0]	n/a	FR1	1	R1059J
1566.545	2.589	1681464	WORD	n/a	wordpools/wordpool_EN.txt	MAIL	3	15	[0, 0, 0]	n/a	FR1	1	R1059J
1569.134	2.52	1684053	WORD	n/a	wordpools/wordpool_EN.txt	SLUSH	4	15	[0, 0, 0]	n/a	FR1	1	R1059J
1571.654	2.488	1686573	WORD	n/a	wordpools/wordpool_EN.txt	FOAM	5	15	[0, 0, 0]	n/a	FR1	1	R1059J
1574.142	2.52	1689061	WORD	n/a	wordpools/wordpool_EN.txt	STORE	6	15	[0, 0, 0]	n/a	FR1	1	R1059J
1576.662	2.489	1691581	WORD	n/a	wordpools/wordpool_EN.txt	GRAPE	7	15	[0, 0, 0]	n/a	FR1	1	R1059J
1579.151	2.553	1694070	WORD	n/a	wordpools/wordpool_EN.txt	JUICE	8	15	[0, 0, 0]	n/a	FR1	1	R1059J
1581.704	2.455	1696623	WORD	n/a	wordpools/wordpool_EN.txt	RICE	9	15	[0, 0, 0]	n/a	FR1	1	R1059J
1584.159	2.57	1699078	WORD	n/a	wordpools/wordpool_EN.txt	BANK	10	15	[0, 0, 0]	n/a	FR1	1	R1059J
1586.729	2.606	1701648	WORD	n/a	wordpools/wordpool_EN.txt	FOOD	11	15	[0, 0, 0]	n/a	FR1	1	R1059J
1589.335	1.618	1704254	WORD	n/a	wordpools/wordpool_EN.txt	MULE	12	15	[0, 0, 0]	n/a	FR1	1	R1059J
1590.953	0.0	1705872	DISTRACT_START	n/a	n/a	n/a	-999	15	[0, 0, 0]	n/a	FR1	1	R1059J
1590.953	0.016	1705872	START	n/a	n/a	n/a	-999	15	[-999, -999, -999]	n/a	FR1	1	R1059J
1590.969	4.558	1705888	PROB	4.558	n/a	n/a	-999	15	[5, 5, 4]	14	FR1	1	R1059J
1595.527	6.862	1710445	PROB	6.862	n/a	n/a	-999	15	[9, 9, 5]	23	FR1	1	R1059J
1602.389	5.81	1717307	PROB	5.81	n/a	n/a	-999	15	[5, 1, 7]	13	FR1	1	R1059J
1608.199	6.223	1723117	PROB	6.223	n/a	n/a	-999	15	[9, 2, 8]	19	FR1	1	R1059J
1614.422	0.02	1729340	STOP	n/a	n/a	n/a	-999	15	[-999, -999, -999]	n/a	FR1	1	R1059J
1614.442	1.219	1729360	DISTRACT_END	n/a	n/a	n/a	-999	15	[0, 0, 0]	n/a	FR1	1	R1059J
1615.661	30.0	1730579	REC_START	n/a	n/a	n/a	-999	15	[0, 0, 0]	n/a	FR1	1	R1059J
1645.661	0.014	1760578	REC_WORD_VV	0.014	n/a	<>	-999	15	[0, 0, 0]	n/a	FR1	1	R1059J
1645.675	4.861	1760592	REC_END	n/a	n/a	n/a	-999	15	[0, 0, 0]	n/a	FR1	1	R1059J
1650.536	0.001	1765452	COUNTDOWN_START	n/a	n/a	n/a	-999	16	[0, 0, 0]	n/a	FR1	1	R1059J
1650.537	10.427	1765453	TRIAL	n/a	n/a	n/a	-999	16	[0, 0, 0]	n/a	FR1	1	R1059J
1660.964	0.007	1775880	COUNTDOWN_END	n/a	n/a	n/a	-999	16	[0, 0, 0]	n/a	FR1	1	R1059J
1660.971	2.621	1775887	ORIENT	n/a	n/a	n/a	-999	16	[0, 0, 0]	n/a	FR1	1	R1059J
1663.592	2.521	1778508	WORD	n/a	wordpools/wordpool_EN.txt	TOAST	1	16	[0, 0, 0]	n/a	FR1	1	R1059J
1666.113	2.42	1781029	WORD	n/a	wordpools/wordpool_EN.txt	STICK	2	16	[0, 0, 0]	n/a	FR1	1	R1059J
1668.533	2.404	1783449	WORD	n/a	wordpools/wordpool_EN.txt	DART	3	16	[0, 0, 0]	n/a	FR1	1	R1059J
1670.937	2.588	1785853	WORD	n/a	wordpools/wordpool_EN.txt	CHEEK	4	16	[0, 0, 0]	n/a	FR1	1	R1059J
1673.525	2.539	1788441	WORD	n/a	wordpools/wordpool_EN.txt	FAN	5	16	[0, 0, 0]	n/a	FR1	1	R1059J
1676.064	2.57	1790980	WORD	n/a	wordpools/wordpool_EN.txt	CUP	6	16	[0, 0, 0]	n/a	FR1	1	R1059J
1678.634	2.455	1793549	WORD	n/a	wordpools/wordpool_EN.txt	DRESS	7	16	[0, 0, 0]	n/a	FR1	1	R1059J
1681.089	2.553	1796004	WORD	n/a	wordpools/wordpool_EN.txt	PIE	8	16	[0, 0, 0]	n/a	FR1	1	R1059J
1683.642	2.388	1798557	WORD	n/a	wordpools/wordpool_EN.txt	PLATE	9	16	[0, 0, 0]	n/a	FR1	1	R1059J
1686.03	2.554	1800945	WORD	n/a	wordpools/wordpool_EN.txt	WALL	10	16	[0, 0, 0]	n/a	FR1	1	R1059J
1688.584	2.505	1803499	WORD	n/a	wordpools/wordpool_EN.txt	FLOOR	11	16	[0, 0, 0]	n/a	FR1	1	R1059J
1691.089	1.618	1806004	WORD	n/a	wordpools/wordpool_EN.txt	ROSE	12	16	[0, 0, 0]	n/a	FR1	1	R1059J
1692.707	0.001	1807622	DISTRACT_START	n/a	n/a	n/a	-999	16	[0, 0, 0]	n/a	FR1	1	R1059J
1692.708	0.016	1807623	START	n/a	n/a	n/a	-999	16	[-999, -999, -999]	n/a	FR1	1	R1059J
1692.724	7.78	1807639	PROB	7.78	n/a	n/a	-999	16	[5, 6, 3]	14	FR1	1	R1059J
1700.504	2.789	1815419	PROB	2.789	n/a	n/a	-999	16	[1, 7, 1]	9	FR1	1	R1059J
1703.293	2.052	1818208	PROB	2.052	n/a	n/a	-999	16	[8, 2, 9]	19	FR1	1	R1059J
1705.345	5.526	1820259	PROB	5.526	n/a	n/a	-999	16	[8, 9, 6]	23	FR1	1	R1059J
1710.871	3.404	1825785	PROB	3.404	n/a	n/a	-999	16	[2, 5, 5]	12	FR1	1	R1059J
1714.275	0.02	1829189	STOP	n/a	n/a	n/a	-999	16	[-999, -999, -999]	n/a	FR1	1	R1059J
1714.295	1.201	1829209	DISTRACT_END	n/a	n/a	n/a	-999	16	[0, 0, 0]	n/a	FR1	1	R1059J
1715.496	9.11	1830410	REC_START	n/a	n/a	n/a	-999	16	[0, 0, 0]	n/a	FR1	1	R1059J
1724.606	1.067	1839520	REC_WORD	1.067	n/a	STICK	-999	16	[0, 0, 0]	n/a	FR1	1	R1059J
1725.673	11.281	1840587	REC_WORD	11.281	n/a	CHICK	-999	16	[0, 0, 0]	n/a	FR1	1	R1059J
1736.954	1.055	1851867	REC_WORD	1.055	n/a	PIE	-999	16	[0, 0, 0]	n/a	FR1	1	R1059J
1738.009	7.501	1852922	REC_WORD	7.501	n/a	PLATE	-999	16	[0, 0, 0]	n/a	FR1	1	R1059J
1745.51	4.11	1860423	REC_END	n/a	n/a	n/a	-999	16	[0, 0, 0]	n/a	FR1	1	R1059J
1749.62	0.0	1864533	COUNTDOWN_START	n/a	n/a	n/a	-999	17	[0, 0, 0]	n/a	FR1	1	R1059J
1749.62	10.428	1864533	TRIAL	n/a	n/a	n/a	-999	17	[0, 0, 0]	n/a	FR1	1	R1059J
1760.048	0.007	1874960	COUNTDOWN_END	n/a	n/a	n/a	-999	17	[0, 0, 0]	n/a	FR1	1	R1059J
1760.055	2.52	1874967	ORIENT	n/a	n/a	n/a	-999	17	[0, 0, 0]	n/a	FR1	1	R1059J
1762.575	2.455	1877487	WORD	n/a	wordpools/wordpool_EN.txt	STOVE	1	17	[0, 0, 0]	n/a	FR1	1	R1059J
1765.03	2.453	1879942	WORD	n/a	wordpools/wordpool_EN.txt	CALF	2	17	[0, 0, 0]	n/a	FR1	1	R1059J
1767.483	2.605	1882395	WORD	n/a	wordpools/wordpool_EN.txt	MUG	3	17	[0, 0, 0]	n/a	FR1	1	R1059J
1770.088	2.621	1885000	WORD	n/a	wordpools/wordpool_EN.txt	APE	4	17	[0, 0, 0]	n/a	FR1	1	R1059J
1772.709	2.538	1887621	WORD	n/a	wordpools/wordpool_EN.txt	FOX	5	17	[0, 0, 0]	n/a	FR1	1	R1059J
1775.247	2.52	1890159	WORD	n/a	wordpools/wordpool_EN.txt	WOLF	6	17	[0, 0, 0]	n/a	FR1	1	R1059J
1777.767	2.422	1892679	WORD	n/a	wordpools/wordpool_EN.txt	HOOK	7	17	[0, 0, 0]	n/a	FR1	1	R1059J
1780.189	2.603	1895101	WORD	n/a	wordpools/wordpool_EN.txt	BARN	8	17	[0, 0, 0]	n/a	FR1	1	R1059J
1782.792	2.555	1897704	WORD	n/a	wordpools/wordpool_EN.txt	NOSE	9	17	[0, 0, 0]	n/a	FR1	1	R1059J
1785.347	2.47	1900259	WORD	n/a	wordpools/wordpool_EN.txt	HEN	10	17	[0, 0, 0]	n/a	FR1	1	R1059J
1787.817	2.505	1902728	WORD	n/a	wordpools/wordpool_EN.txt	FARM	11	17	[0, 0, 0]	n/a	FR1	1	R1059J
1790.322	1.619	1905233	WORD	n/a	wordpools/wordpool_EN.txt	FORK	12	17	[0, 0, 0]	n/a	FR1	1	R1059J
1791.941	0.001	1906852	DISTRACT_START	n/a	n/a	n/a	-999	17	[0, 0, 0]	n/a	FR1	1	R1059J
1791.942	0.016	1906853	START	n/a	n/a	n/a	-999	17	[-999, -999, -999]	n/a	FR1	1	R1059J
1791.958	4.674	1906869	PROB	4.674	n/a	n/a	-999	17	[4, 8, 8]	20	FR1	1	R1059J
1796.632	3.574	1911543	PROB	3.574	n/a	n/a	-999	17	[6, 9, 1]	16	FR1	1	R1059J
1800.206	3.388	1915117	PROB	3.388	n/a	n/a	-999	17	[9, 8, 1]	18	FR1	1	R1059J
1803.594	2.771	1918505	PROB	2.771	n/a	n/a	-999	17	[4, 3, 1]	8	FR1	1	R1059J
1806.365	4.374	1921276	PROB	4.374	n/a	n/a	-999	17	[3, 5, 1]	9	FR1	1	R1059J
1810.739	4.207	1925650	PROB	4.207	n/a	n/a	-999	17	[9, 1, 4]	14	FR1	1	R1059J
1814.946	0.017	1929857	STOP	n/a	n/a	n/a	-999	17	[-999, -999, -999]	n/a	FR1	1	R1059J
1814.963	1.187	1929874	DISTRACT_END	n/a	n/a	n/a	-999	17	[0, 0, 0]	n/a	FR1	1	R1059J
1816.15	10.65	1931060	REC_START	n/a	n/a	n/a	-999	17	[0, 0, 0]	n/a	FR1	1	R1059J
1826.8	1.523	1941710	REC_WORD	1.523	n/a	FARM	-999	17	[0, 0, 0]	n/a	FR1	1	R1059J
1828.323	10.49	1943233	REC_WORD	10.49	n/a	HAT	-999	17	[0, 0, 0]	n/a	FR1	1	R1059J
1838.813	7.35	1953723	REC_WORD	7.35	n/a	STICK	-999	17	[0, 0, 0]	n/a	FR1	1	R1059J
1846.163	2.574	1961072	REC_END	n/a	n/a	n/a	-999	17	[0, 0, 0]	n/a	FR1	1	R1059J
1848.737	0.0	1963646	TRIAL	n/a	n/a	n/a	-999	18	[0, 0, 0]	n/a	FR1	1	R1059J
1848.737	10.428	1963646	COUNTDOWN_START	n/a	n/a	n/a	-999	18	[0, 0, 0]	n/a	FR1	1	R1059J
1859.165	0.007	1974074	COUNTDOWN_END	n/a	n/a	n/a	-999	18	[0, 0, 0]	n/a	FR1	1	R1059J
1859.172	2.57	1974081	ORIENT	n/a	n/a	n/a	-999	18	[0, 0, 0]	n/a	FR1	1	R1059J
1861.742	2.522	1976651	WORD	n/a	wordpools/wordpool_EN.txt	ROPE	1	18	[0, 0, 0]	n/a	FR1	1	R1059J
1864.264	2.62	1979173	WORD	n/a	wordpools/wordpool_EN.txt	HAWK	2	18	[0, 0, 0]	n/a	FR1	1	R1059J
1866.884	2.438	1981793	WORD	n/a	wordpools/wordpool_EN.txt	OWL	3	18	[0, 0, 0]	n/a	FR1	1	R1059J
1869.322	2.52	1984231	WORD	n/a	wordpools/wordpool_EN.txt	PIG	4	18	[0, 0, 0]	n/a	FR1	1	R1059J
1871.842	2.388	1986750	WORD	n/a	wordpools/wordpool_EN.txt	LAWN	5	18	[0, 0, 0]	n/a	FR1	1	R1059J
1874.23	2.487	1989138	WORD	n/a	wordpools/wordpool_EN.txt	HOUSE	6	18	[0, 0, 0]	n/a	FR1	1	R1059J
1876.717	2.405	1991625	WORD	n/a	wordpools/wordpool_EN.txt	FOOT	7	18	[0, 0, 0]	n/a	FR1	1	R1059J
1879.122	2.453	1994030	WORD	n/a	wordpools/wordpool_EN.txt	BIRD	8	18	[0, 0, 0]	n/a	FR1	1	R1059J
1881.575	2.539	1996483	WORD	n/a	wordpools/wordpool_EN.txt	COW	9	18	[0, 0, 0]	n/a	FR1	1	R1059J
1884.114	2.486	1999022	WORD	n/a	wordpools/wordpool_EN.txt	CAVE	10	18	[0, 0, 0]	n/a	FR1	1	R1059J
1886.6	2.489	2001508	WORD	n/a	wordpools/wordpool_EN.txt	SPRING	11	18	[0, 0, 0]	n/a	FR1	1	R1059J
1889.089	1.618	2003997	WORD	n/a	wordpools/wordpool_EN.txt	BLUSH	12	18	[0, 0, 0]	n/a	FR1	1	R1059J
1890.707	0.001	2005615	DISTRACT_START	n/a	n/a	n/a	-999	18	[0, 0, 0]	n/a	FR1	1	R1059J
1890.708	0.016	2005616	START	n/a	n/a	n/a	-999	18	[-999, -999, -999]	n/a	FR1	1	R1059J
1890.724	6.562	2005632	PROB	6.562	n/a	n/a	-999	18	[9, 2, 7]	18	FR1	1	R1059J
1897.286	2.687	2012194	PROB	2.687	n/a	n/a	-999	18	[2, 3, 1]	6	FR1	1	R1059J
1899.973	6.561	2014880	PROB	6.561	n/a	n/a	-999	18	[1, 4, 7]	10	FR1	1	R1059J
1906.534	5.797	2021441	PROB	5.797	n/a	n/a	-999	18	[9, 8, 7]	14	FR1	1	R1059J
1912.331	0.012	2027238	STOP	n/a	n/a	n/a	-999	18	[-999, -999, -999]	n/a	FR1	1	R1059J
1912.343	1.153	2027250	DISTRACT_END	n/a	n/a	n/a	-999	18	[0, 0, 0]	n/a	FR1	1	R1059J
1913.496	21.713	2028403	REC_START	n/a	n/a	n/a	-999	18	[0, 0, 0]	n/a	FR1	1	R1059J
1935.209	6.197	2050115	REC_WORD	6.197	n/a	OWL	-999	18	[0, 0, 0]	n/a	FR1	1	R1059J
1941.406	2.107	2056312	REC_WORD	2.107	n/a	STICK	-999	18	[0, 0, 0]	n/a	FR1	1	R1059J
1943.513	2.103	2058419	REC_END	n/a	n/a	n/a	-999	18	[0, 0, 0]	n/a	FR1	1	R1059J
1945.616	0.001	2060522	COUNTDOWN_START	n/a	n/a	n/a	-999	19	[0, 0, 0]	n/a	FR1	1	R1059J
1945.617	10.427	2060523	TRIAL	n/a	n/a	n/a	-999	19	[0, 0, 0]	n/a	FR1	1	R1059J
1956.044	0.007	2070949	COUNTDOWN_END	n/a	n/a	n/a	-999	19	[0, 0, 0]	n/a	FR1	1	R1059J
1956.051	2.404	2070956	ORIENT	n/a	n/a	n/a	-999	19	[0, 0, 0]	n/a	FR1	1	R1059J
1958.455	2.555	2073360	WORD	n/a	wordpools/wordpool_EN.txt	PEARL	1	19	[0, 0, 0]	n/a	FR1	1	R1059J
1961.01	2.503	2075915	WORD	n/a	wordpools/wordpool_EN.txt	CAR	2	19	[0, 0, 0]	n/a	FR1	1	R1059J
1963.513	2.437	2078418	WORD	n/a	wordpools/wordpool_EN.txt	HORSE	3	19	[0, 0, 0]	n/a	FR1	1	R1059J
1965.95	2.505	2080855	WORD	n/a	wordpools/wordpool_EN.txt	PEA	4	19	[0, 0, 0]	n/a	FR1	1	R1059J
1968.455	2.605	2083360	WORD	n/a	wordpools/wordpool_EN.txt	BEAR	5	19	[0, 0, 0]	n/a	FR1	1	R1059J
1971.06	2.503	2085965	WORD	n/a	wordpools/wordpool_EN.txt	SHIP	6	19	[0, 0, 0]	n/a	FR1	1	R1059J
1973.563	2.371	2088468	WORD	n/a	wordpools/wordpool_EN.txt	ROCK	7	19	[0, 0, 0]	n/a	FR1	1	R1059J
1975.934	2.604	2090839	WORD	n/a	wordpools/wordpool_EN.txt	SMOKE	8	19	[0, 0, 0]	n/a	FR1	1	R1059J
1978.538	2.455	2093443	WORD	n/a	wordpools/wordpool_EN.txt	NEST	9	19	[0, 0, 0]	n/a	FR1	1	R1059J
1980.993	2.487	2095898	WORD	n/a	wordpools/wordpool_EN.txt	MOON	10	19	[0, 0, 0]	n/a	FR1	1	R1059J
1983.48	2.471	2098384	WORD	n/a	wordpools/wordpool_EN.txt	STAR	11	19	[0, 0, 0]	n/a	FR1	1	R1059J
1985.951	1.619	2100855	WORD	n/a	wordpools/wordpool_EN.txt	TOOTH	12	19	[0, 0, 0]	n/a	FR1	1	R1059J
1987.57	0.001	2102474	DISTRACT_START	n/a	n/a	n/a	-999	19	[0, 0, 0]	n/a	FR1	1	R1059J
1987.571	0.016	2102475	START	n/a	n/a	n/a	-999	19	[-999, -999, -999]	n/a	FR1	1	R1059J
1987.587	7.796	2102491	PROB	7.796	n/a	n/a	-999	19	[4, 6, 9]	19	FR1	1	R1059J
1995.383	3.925	2110287	PROB	3.925	n/a	n/a	-999	19	[5, 3, 5]	13	FR1	1	R1059J
1999.308	3.488	2114212	PROB	3.488	n/a	n/a	-999	19	[5, 2, 1]	8	FR1	1	R1059J
2002.796	4.157	2117700	PROB	4.157	n/a	n/a	-999	19	[6, 9, 6]	21	FR1	1	R1059J
2006.953	3.872	2121857	PROB	3.872	n/a	n/a	-999	19	[3, 8, 9]	20	FR1	1	R1059J
2010.825	0.018	2125728	STOP	n/a	n/a	n/a	-999	19	[-999, -999, -999]	n/a	FR1	1	R1059J
2010.843	1.153	2125746	DISTRACT_END	n/a	n/a	n/a	-999	19	[0, 0, 0]	n/a	FR1	1	R1059J
2011.996	30.0	2126899	REC_START	n/a	n/a	n/a	-999	19	[0, 0, 0]	n/a	FR1	1	R1059J
2041.996	0.014	2156898	REC_WORD_VV	0.014	n/a	<>	-999	19	[0, 0, 0]	n/a	FR1	1	R1059J
2042.01	2.489	2156912	REC_END	n/a	n/a	n/a	-999	19	[0, 0, 0]	n/a	FR1	1	R1059J
2044.499	0.001	2159401	COUNTDOWN_START	n/a	n/a	n/a	-999	20	[0, 0, 0]	n/a	FR1	1	R1059J
2044.5	10.427	2159402	TRIAL	n/a	n/a	n/a	-999	20	[0, 0, 0]	n/a	FR1	1	R1059J
2054.927	0.006	2169829	COUNTDOWN_END	n/a	n/a	n/a	-999	20	[0, 0, 0]	n/a	FR1	1	R1059J
2054.933	2.572	2169835	ORIENT	n/a	n/a	n/a	-999	20	[0, 0, 0]	n/a	FR1	1	R1059J
2057.505	2.488	2172407	WORD	n/a	wordpools/wordpool_EN.txt	PIPE	1	20	[0, 0, 0]	n/a	FR1	1	R1059J
2059.993	2.603	2174895	WORD	n/a	wordpools/wordpool_EN.txt	HAT	2	20	[0, 0, 0]	n/a	FR1	1	R1059J
2062.596	2.556	2177498	WORD	n/a	wordpools/wordpool_EN.txt	CAKE	3	20	[0, 0, 0]	n/a	FR1	1	R1059J
2065.152	2.503	2180054	WORD	n/a	wordpools/wordpool_EN.txt	GUARD	4	20	[0, 0, 0]	n/a	FR1	1	R1059J
2067.655	2.605	2182556	WORD	n/a	wordpools/wordpool_EN.txt	DIME	5	20	[0, 0, 0]	n/a	FR1	1	R1059J
2070.26	2.437	2185161	WORD	n/a	wordpools/wordpool_EN.txt	GLASS	6	20	[0, 0, 0]	n/a	FR1	1	R1059J
2072.697	2.522	2187598	WORD	n/a	wordpools/wordpool_EN.txt	GLOVE	7	20	[0, 0, 0]	n/a	FR1	1	R1059J
2075.219	2.553	2190120	WORD	n/a	wordpools/wordpool_EN.txt	SWORD	8	20	[0, 0, 0]	n/a	FR1	1	R1059J
2077.772	2.423	2192673	WORD	n/a	wordpools/wordpool_EN.txt	CHAIR	9	20	[0, 0, 0]	n/a	FR1	1	R1059J
2080.195	2.619	2195096	WORD	n/a	wordpools/wordpool_EN.txt	TRAY	10	20	[0, 0, 0]	n/a	FR1	1	R1059J
2082.814	2.621	2197715	WORD	n/a	wordpools/wordpool_EN.txt	CROWN	11	20	[0, 0, 0]	n/a	FR1	1	R1059J
2085.435	1.62	2200336	WORD	n/a	wordpools/wordpool_EN.txt	KITE	12	20	[0, 0, 0]	n/a	FR1	1	R1059J
2087.055	0.001	2201956	DISTRACT_START	n/a	n/a	n/a	-999	20	[0, 0, 0]	n/a	FR1	1	R1059J
2087.056	0.016	2201957	START	n/a	n/a	n/a	-999	20	[-999, -999, -999]	n/a	FR1	1	R1059J
2087.072	5.943	2201973	PROB	5.943	n/a	n/a	-999	20	[8, 8, 5]	21	FR1	1	R1059J
2093.015	4.992	2207916	PROB	4.992	n/a	n/a	-999	20	[2, 6, 6]	14	FR1	1	R1059J
2098.007	6.41	2212907	PROB	6.41	n/a	n/a	-999	20	[7, 2, 5]	13	FR1	1	R1059J
2104.417	4.798	2219317	PROB	4.798	n/a	n/a	-999	20	[6, 6, 3]	15	FR1	1	R1059J
2109.215	0.011	2224115	STOP	n/a	n/a	n/a	-999	20	[-999, -999, -999]	n/a	FR1	1	R1059J
2109.226	1.085	2224126	DISTRACT_END	n/a	n/a	n/a	-999	20	[0, 0, 0]	n/a	FR1	1	R1059J
2110.311	30.0	2225211	REC_START	n/a	n/a	n/a	-999	20	[0, 0, 0]	n/a	FR1	1	R1059J
2140.311	0.014	2255210	REC_WORD_VV	0.014	n/a	<>	-999	20	[0, 0, 0]	n/a	FR1	1	R1059J
2140.325	13.057	2255224	REC_END	n/a	n/a	n/a	-999	20	[0, 0, 0]	n/a	FR1	1	R1059J
2153.382	0.001	2268280	COUNTDOWN_START	n/a	n/a	n/a	-999	21	[0, 0, 0]	n/a	FR1	1	R1059J
2153.383	10.427	2268281	TRIAL	n/a	n/a	n/a	-999	21	[0, 0, 0]	n/a	FR1	1	R1059J
2163.81	0.007	2278708	COUNTDOWN_END	n/a	n/a	n/a	-999	21	[0, 0, 0]	n/a	FR1	1	R1059J
2163.817	2.588	2278715	ORIENT	n/a	n/a	n/a	-999	21	[0, 0, 0]	n/a	FR1	1	R1059J
2166.405	2.487	2281303	WORD	n/a	wordpools/wordpool_EN.txt	JEEP	1	21	[0, 0, 0]	n/a	FR1	1	R1059J
2168.892	2.438	2283790	WORD	n/a	wordpools/wordpool_EN.txt	DITCH	2	21	[0, 0, 0]	n/a	FR1	1	R1059J
2171.33	2.621	2286228	WORD	n/a	wordpools/wordpool_EN.txt	JAIL	3	21	[0, 0, 0]	n/a	FR1	1	R1059J
2173.951	2.454	2288849	WORD	n/a	wordpools/wordpool_EN.txt	NAIL	4	21	[0, 0, 0]	n/a	FR1	1	R1059J
2176.405	2.42	2291303	WORD	n/a	wordpools/wordpool_EN.txt	LOCK	5	21	[0, 0, 0]	n/a	FR1	1	R1059J
2178.825	2.571	2293722	WORD	n/a	wordpools/wordpool_EN.txt	PHONE	6	21	[0, 0, 0]	n/a	FR1	1	R1059J
2181.396	2.538	2296293	WORD	n/a	wordpools/wordpool_EN.txt	HOOF	7	21	[0, 0, 0]	n/a	FR1	1	R1059J
2183.934	2.538	2298831	WORD	n/a	wordpools/wordpool_EN.txt	WING	8	21	[0, 0, 0]	n/a	FR1	1	R1059J
2186.472	2.487	2301369	WORD	n/a	wordpools/wordpool_EN.txt	CAGE	9	21	[0, 0, 0]	n/a	FR1	1	R1059J
2188.959	2.521	2303856	WORD	n/a	wordpools/wordpool_EN.txt	FLAME	10	21	[0, 0, 0]	n/a	FR1	1	R1059J
2191.48	2.371	2306377	WORD	n/a	wordpools/wordpool_EN.txt	PIN	11	21	[0, 0, 0]	n/a	FR1	1	R1059J
2193.851	1.619	2308748	WORD	n/a	wordpools/wordpool_EN.txt	HORN	12	21	[0, 0, 0]	n/a	FR1	1	R1059J
2195.47	0.001	2310367	DISTRACT_START	n/a	n/a	n/a	-999	21	[0, 0, 0]	n/a	FR1	1	R1059J
2195.471	0.016	2310368	START	n/a	n/a	n/a	-999	21	[-999, -999, -999]	n/a	FR1	1	R1059J
2195.487	10.234	2310384	PROB	10.234	n/a	n/a	-999	21	[5, 2, 1]	8	FR1	1	R1059J
2205.721	4.841	2320617	PROB	4.841	n/a	n/a	-999	21	[7, 7, 6]	21	FR1	1	R1059J
2210.562	6.016	2325458	PROB	6.016	n/a	n/a	-999	21	[8, 7, 6]	21	FR1	1	R1059J
2216.578	0.011	2331474	STOP	n/a	n/a	n/a	-999	21	[-999, -999, -999]	n/a	FR1	1	R1059J
2216.589	1.169	2331485	DISTRACT_END	n/a	n/a	n/a	-999	21	[0, 0, 0]	n/a	FR1	1	R1059J
2217.758	9.514	2332654	REC_START	n/a	n/a	n/a	-999	21	[0, 0, 0]	n/a	FR1	1	R1059J
2227.272	2.246	2342168	REC_WORD	2.246	n/a	JEEP	-999	21	[0, 0, 0]	n/a	FR1	1	R1059J
2229.518	18.262	2344414	REC_WORD	18.262	n/a	PHONE	-999	21	[0, 0, 0]	n/a	FR1	1	R1059J
2247.78	12.833	2362675	REC_END	n/a	n/a	n/a	-999	21	[0, 0, 0]	n/a	FR1	1	R1059J
2260.613	0.0	2375508	COUNTDOWN_START	n/a	n/a	n/a	-999	22	[0, 0, 0]	n/a	FR1	1	R1059J
2260.613	10.428	2375508	TRIAL	n/a	n/a	n/a	-999	22	[0, 0, 0]	n/a	FR1	1	R1059J
2271.041	0.007	2385935	COUNTDOWN_END	n/a	n/a	n/a	-999	22	[0, 0, 0]	n/a	FR1	1	R1059J
2271.048	2.386	2385942	ORIENT	n/a	n/a	n/a	-999	22	[0, 0, 0]	n/a	FR1	1	R1059J
2273.434	2.505	2388328	WORD	n/a	wordpools/wordpool_EN.txt	JET	1	22	[0, 0, 0]	n/a	FR1	1	R1059J
2275.939	2.471	2390833	WORD	n/a	wordpools/wordpool_EN.txt	BRIDGE	2	22	[0, 0, 0]	n/a	FR1	1	R1059J
2278.41	2.554	2393304	WORD	n/a	wordpools/wordpool_EN.txt	WAVE	3	22	[0, 0, 0]	n/a	FR1	1	R1059J
2280.964	2.554	2395858	WORD	n/a	wordpools/wordpool_EN.txt	SPEAR	4	22	[0, 0, 0]	n/a	FR1	1	R1059J
2283.518	2.589	2398412	WORD	n/a	wordpools/wordpool_EN.txt	SAIL	5	22	[0, 0, 0]	n/a	FR1	1	R1059J
2286.107	2.503	2401001	WORD	n/a	wordpools/wordpool_EN.txt	PRINCE	6	22	[0, 0, 0]	n/a	FR1	1	R1059J
2288.61	2.505	2403503	WORD	n/a	wordpools/wordpool_EN.txt	ROAD	7	22	[0, 0, 0]	n/a	FR1	1	R1059J
2291.115	2.403	2406008	WORD	n/a	wordpools/wordpool_EN.txt	PLANE	8	22	[0, 0, 0]	n/a	FR1	1	R1059J
2293.518	2.404	2408411	WORD	n/a	wordpools/wordpool_EN.txt	BOAT	9	22	[0, 0, 0]	n/a	FR1	1	R1059J
2295.922	2.521	2410815	WORD	n/a	wordpools/wordpool_EN.txt	FOG	10	22	[0, 0, 0]	n/a	FR1	1	R1059J
2298.443	2.421	2413336	WORD	n/a	wordpools/wordpool_EN.txt	DOCK	11	22	[0, 0, 0]	n/a	FR1	1	R1059J
2300.864	1.619	2415757	WORD	n/a	wordpools/wordpool_EN.txt	BEAK	12	22	[0, 0, 0]	n/a	FR1	1	R1059J
2302.483	0.001	2417376	DISTRACT_START	n/a	n/a	n/a	-999	22	[0, 0, 0]	n/a	FR1	1	R1059J
2302.484	0.016	2417377	START	n/a	n/a	n/a	-999	22	[-999, -999, -999]	n/a	FR1	1	R1059J
2302.5	5.008	2417393	PROB	5.008	n/a	n/a	-999	22	[6, 3, 1]	10	FR1	1	R1059J
2307.508	5.561	2422401	PROB	5.561	n/a	n/a	-999	22	[3, 4, 4]	11	FR1	1	R1059J
2313.069	5.375	2427962	PROB	5.375	n/a	n/a	-999	22	[2, 2, 4]	8	FR1	1	R1059J
2318.444	3.238	2433336	PROB	3.238	n/a	n/a	-999	22	[3, 2, 1]	6	FR1	1	R1059J
2321.682	5.505	2436574	PROB	5.505	n/a	n/a	-999	22	[7, 1, 8]	16	FR1	1	R1059J
2327.187	0.006	2442079	STOP	n/a	n/a	n/a	-999	22	[-999, -999, -999]	n/a	FR1	1	R1059J
2327.193	1.035	2442085	DISTRACT_END	n/a	n/a	n/a	-999	22	[0, 0, 0]	n/a	FR1	1	R1059J
2328.228	11.717	2443120	REC_START	n/a	n/a	n/a	-999	22	[0, 0, 0]	n/a	FR1	1	R1059J
2339.945	1.658	2454837	REC_WORD	1.658	n/a	JET	-999	22	[0, 0, 0]	n/a	FR1	1	R1059J
2341.603	16.646	2456495	REC_WORD	16.646	n/a	SET	-999	22	[0, 0, 0]	n/a	FR1	1	R1059J
2358.249	2.834	2473140	REC_END	n/a	n/a	n/a	-999	22	[0, 0, 0]	n/a	FR1	1	R1059J
2361.083	0.0	2475974	TRIAL	n/a	n/a	n/a	-999	23	[0, 0, 0]	n/a	FR1	1	R1059J
2361.083	10.428	2475974	COUNTDOWN_START	n/a	n/a	n/a	-999	23	[0, 0, 0]	n/a	FR1	1	R1059J
2371.511	0.005	2486402	COUNTDOWN_END	n/a	n/a	n/a	-999	23	[0, 0, 0]	n/a	FR1	1	R1059J
2371.516	2.605	2486407	ORIENT	n/a	n/a	n/a	-999	23	[0, 0, 0]	n/a	FR1	1	R1059J
2374.121	2.454	2489011	WORD	n/a	wordpools/wordpool_EN.txt	GOLD	1	23	[0, 0, 0]	n/a	FR1	1	R1059J
2376.575	2.505	2491465	WORD	n/a	wordpools/wordpool_EN.txt	KEY	2	23	[0, 0, 0]	n/a	FR1	1	R1059J
2379.08	2.603	2493970	WORD	n/a	wordpools/wordpool_EN.txt	SUN	3	23	[0, 0, 0]	n/a	FR1	1	R1059J
2381.683	2.389	2496573	WORD	n/a	wordpools/wordpool_EN.txt	SEED	4	23	[0, 0, 0]	n/a	FR1	1	R1059J
2384.072	2.436	2498962	WORD	n/a	wordpools/wordpool_EN.txt	SPARK	5	23	[0, 0, 0]	n/a	FR1	1	R1059J
2386.508	2.387	2501398	WORD	n/a	wordpools/wordpool_EN.txt	STEAM	6	23	[0, 0, 0]	n/a	FR1	1	R1059J
2388.895	2.621	2503785	WORD	n/a	wordpools/wordpool_EN.txt	LEAF	7	23	[0, 0, 0]	n/a	FR1	1	R1059J
2391.516	2.606	2506406	WORD	n/a	wordpools/wordpool_EN.txt	OAR	8	23	[0, 0, 0]	n/a	FR1	1	R1059J
2394.122	2.62	2509012	WORD	n/a	wordpools/wordpool_EN.txt	PLANT	9	23	[0, 0, 0]	n/a	FR1	1	R1059J
2396.742	2.505	2511632	WORD	n/a	wordpools/wordpool_EN.txt	COIN	10	23	[0, 0, 0]	n/a	FR1	1	R1059J
2399.247	2.52	2514137	WORD	n/a	wordpools/wordpool_EN.txt	BOMB	11	23	[0, 0, 0]	n/a	FR1	1	R1059J
2401.767	1.619	2516656	WORD	n/a	wordpools/wordpool_EN.txt	CORN	12	23	[0, 0, 0]	n/a	FR1	1	R1059J
2403.386	0.001	2518275	DISTRACT_START	n/a	n/a	n/a	-999	23	[0, 0, 0]	n/a	FR1	1	R1059J
2403.387	0.016	2518276	START	n/a	n/a	n/a	-999	23	[-999, -999, -999]	n/a	FR1	1	R1059J
2403.403	6.127	2518292	PROB	6.127	n/a	n/a	-999	23	[8, 4, 8]	20	FR1	1	R1059J
2409.53	7.83	2524419	PROB	7.83	n/a	n/a	-999	23	[2, 9, 5]	16	FR1	1	R1059J
2417.36	2.354	2532249	PROB	2.354	n/a	n/a	-999	23	[6, 4, 1]	11	FR1	1	R1059J
2419.714	4.347	2534603	PROB	4.347	n/a	n/a	-999	23	[6, 4, 9]	19	FR1	1	R1059J
2424.061	0.011	2538950	STOP	n/a	n/a	n/a	-999	23	[-999, -999, -999]	n/a	FR1	1	R1059J
2424.072	1.169	2538961	DISTRACT_END	n/a	n/a	n/a	-999	23	[0, 0, 0]	n/a	FR1	1	R1059J
2425.241	10.198	2540130	REC_START	n/a	n/a	n/a	-999	23	[0, 0, 0]	n/a	FR1	1	R1059J
2435.439	1.042	2550327	REC_WORD	1.042	n/a	GOLD	-999	23	[0, 0, 0]	n/a	FR1	1	R1059J
2436.481	16.953	2551369	REC_WORD	16.953	n/a	SUN	-999	23	[0, 0, 0]	n/a	FR1	1	R1059J
2453.434	1.746	2568322	REC_WORD	1.746	n/a	SLIME	-999	23	[0, 0, 0]	n/a	FR1	1	R1059J
2455.18	0.083	2570068	REC_WORD_VV	0.083	n/a	<>	-999	23	[0, 0, 0]	n/a	FR1	1	R1059J
2455.263	3.868	2570151	REC_END	n/a	n/a	n/a	-999	23	[0, 0, 0]	n/a	FR1	1	R1059J
2459.131	0.001	2574018	COUNTDOWN_START	n/a	n/a	n/a	-999	24	[0, 0, 0]	n/a	FR1	1	R1059J
2459.132	10.427	2574019	TRIAL	n/a	n/a	n/a	-999	24	[0, 0, 0]	n/a	FR1	1	R1059J
2469.559	0.005	2584446	COUNTDOWN_END	n/a	n/a	n/a	-999	24	[0, 0, 0]	n/a	FR1	1	R1059J
2469.564	2.404	2584451	ORIENT	n/a	n/a	n/a	-999	24	[0, 0, 0]	n/a	FR1	1	R1059J
2471.968	2.521	2586855	WORD	n/a	wordpools/wordpool_EN.txt	SNOW	1	24	[0, 0, 0]	n/a	FR1	1	R1059J
2474.489	2.454	2589376	WORD	n/a	wordpools/wordpool_EN.txt	CLAY	2	24	[0, 0, 0]	n/a	FR1	1	R1059J
2476.943	2.439	2591830	WORD	n/a	wordpools/wordpool_EN.txt	STRAW	3	24	[0, 0, 0]	n/a	FR1	1	R1059J
2479.382	2.536	2594269	WORD	n/a	wordpools/wordpool_EN.txt	SQUARE	4	24	[0, 0, 0]	n/a	FR1	1	R1059J
2481.918	2.422	2596805	WORD	n/a	wordpools/wordpool_EN.txt	MUD	5	24	[0, 0, 0]	n/a	FR1	1	R1059J
2484.34	2.387	2599226	WORD	n/a	wordpools/wordpool_EN.txt	STORM	6	24	[0, 0, 0]	n/a	FR1	1	R1059J
2486.727	2.471	2601613	WORD	n/a	wordpools/wordpool_EN.txt	THREAD	7	24	[0, 0, 0]	n/a	FR1	1	R1059J
2489.198	2.42	2604084	WORD	n/a	wordpools/wordpool_EN.txt	CLOUD	8	24	[0, 0, 0]	n/a	FR1	1	R1059J
2491.618	2.606	2606504	WORD	n/a	wordpools/wordpool_EN.txt	LAND	9	24	[0, 0, 0]	n/a	FR1	1	R1059J
2494.224	2.419	2609110	WORD	n/a	wordpools/wordpool_EN.txt	LAMP	10	24	[0, 0, 0]	n/a	FR1	1	R1059J
2496.643	2.439	2611529	WORD	n/a	wordpools/wordpool_EN.txt	SHARK	11	24	[0, 0, 0]	n/a	FR1	1	R1059J
2499.082	1.618	2613968	WORD	n/a	wordpools/wordpool_EN.txt	RUG	12	24	[0, 0, 0]	n/a	FR1	1	R1059J
2500.7	0.001	2615586	DISTRACT_START	n/a	n/a	n/a	-999	24	[0, 0, 0]	n/a	FR1	1	R1059J
2500.701	0.016	2615587	START	n/a	n/a	n/a	-999	24	[-999, -999, -999]	n/a	FR1	1	R1059J
2500.717	4.741	2615603	PROB	4.741	n/a	n/a	-999	24	[1, 2, 1]	4	FR1	1	R1059J
2505.458	10.719	2620344	PROB	10.719	n/a	n/a	-999	24	[5, 9, 9]	23	FR1	1	R1059J
2516.177	3.155	2631062	PROB	3.155	n/a	n/a	-999	24	[6, 9, 1]	1	FR1	1	R1059J
2519.332	4.368	2634217	PROB	4.368	n/a	n/a	-999	24	[3, 7, 5]	15	FR1	1	R1059J
2523.7	0.022	2638585	STOP	n/a	n/a	n/a	-999	24	[-999, -999, -999]	n/a	FR1	1	R1059J
2523.722	1.153	2638607	DISTRACT_END	n/a	n/a	n/a	-999	24	[0, 0, 0]	n/a	FR1	1	R1059J
2524.875	18.382	2639760	REC_START	n/a	n/a	n/a	-999	24	[0, 0, 0]	n/a	FR1	1	R1059J
2543.257	1.688	2658141	REC_WORD	1.688	n/a	STORM	-999	24	[0, 0, 0]	n/a	FR1	1	R1059J
2544.945	9.943	2659829	REC_WORD	9.943	n/a	SUN	-999	24	[0, 0, 0]	n/a	FR1	1	R1059J
2554.888	4.211	2669772	REC_END	n/a	n/a	n/a	-999	24	[0, 0, 0]	n/a	FR1	1	R1059J
2559.099	0.001	2673983	COUNTDOWN_START	n/a	n/a	n/a	-999	25	[0, 0, 0]	n/a	FR1	1	R1059J
2559.1	10.427	2673984	TRIAL	n/a	n/a	n/a	-999	25	[0, 0, 0]	n/a	FR1	1	R1059J
2569.527	0.022	2684410	COUNTDOWN_END	n/a	n/a	n/a	-999	25	[0, 0, 0]	n/a	FR1	1	R1059J
2569.549	2.505	2684432	ORIENT	n/a	n/a	n/a	-999	25	[0, 0, 0]	n/a	FR1	1	R1059J
2572.054	2.404	2686937	WORD	n/a	wordpools/wordpool_EN.txt	LIP	1	25	[0, 0, 0]	n/a	FR1	1	R1059J
2574.458	2.588	2689341	WORD	n/a	wordpools/wordpool_EN.txt	TRASH	2	25	[0, 0, 0]	n/a	FR1	1	R1059J
2577.046	2.47	2691929	WORD	n/a	wordpools/wordpool_EN.txt	BOWL	3	25	[0, 0, 0]	n/a	FR1	1	R1059J
2579.516	2.387	2694399	WORD	n/a	wordpools/wordpool_EN.txt	BEAN	4	25	[0, 0, 0]	n/a	FR1	1	R1059J
2581.903	2.571	2696786	WORD	n/a	wordpools/wordpool_EN.txt	STEAK	5	25	[0, 0, 0]	n/a	FR1	1	R1059J
2584.474	2.572	2699357	WORD	n/a	wordpools/wordpool_EN.txt	SPOON	6	25	[0, 0, 0]	n/a	FR1	1	R1059J
2587.046	2.403	2701929	WORD	n/a	wordpools/wordpool_EN.txt	FACE	7	25	[0, 0, 0]	n/a	FR1	1	R1059J
2589.449	2.421	2704332	WORD	n/a	wordpools/wordpool_EN.txt	EEL	8	25	[0, 0, 0]	n/a	FR1	1	R1059J
2591.87	2.488	2706753	WORD	n/a	wordpools/wordpool_EN.txt	SHIELD	9	25	[0, 0, 0]	n/a	FR1	1	R1059J
2594.358	2.538	2709241	WORD	n/a	wordpools/wordpool_EN.txt	SEAL	10	25	[0, 0, 0]	n/a	FR1	1	R1059J
2596.896	2.554	2711778	WORD	n/a	wordpools/wordpool_EN.txt	SOUP	11	25	[0, 0, 0]	n/a	FR1	1	R1059J
2599.45	1.62	2714332	WORD	n/a	wordpools/wordpool_EN.txt	PURSE	12	25	[0, 0, 0]	n/a	FR1	1	R1059J
2601.07	0.001	2715952	DISTRACT_START	n/a	n/a	n/a	-999	25	[0, 0, 0]	n/a	FR1	1	R1059J
2601.071	0.016	2715953	START	n/a	n/a	n/a	-999	25	[-999, -999, -999]	n/a	FR1	1	R1059J
2601.087	10.316	2715969	PROB	10.316	n/a	n/a	-999	25	[3, 9, 8]	20	FR1	1	R1059J
2611.403	4.742	2726285	PROB	4.742	n/a	n/a	-999	25	[8, 6, 7]	21	FR1	1	R1059J
2616.145	2.972	2731027	PROB	2.972	n/a	n/a	-999	25	[4, 2, 5]	11	FR1	1	R1059J
2619.117	3.559	2733999	PROB	3.559	n/a	n/a	-999	25	[1, 6, 3]	10	FR1	1	R1059J
2622.676	0.013	2737557	STOP	n/a	n/a	n/a	-999	25	[-999, -999, -999]	n/a	FR1	1	R1059J
2622.689	1.219	2737570	DISTRACT_END	n/a	n/a	n/a	-999	25	[0, 0, 0]	n/a	FR1	1	R1059J
2623.908	15.532	2738789	REC_START	n/a	n/a	n/a	-999	25	[0, 0, 0]	n/a	FR1	1	R1059J
2639.44	1.67	2754321	REC_WORD	1.67	n/a	LIP	-999	25	[0, 0, 0]	n/a	FR1	1	R1059J
2641.11	6.18	2755991	REC_WORD	6.18	n/a	MOUTH	-999	25	[0, 0, 0]	n/a	FR1	1	R1059J
2647.29	6.631	2762171	REC_WORD	6.631	n/a	SUN	-999	25	[0, 0, 0]	n/a	FR1	1	R1059J
2653.921	11.941	2768801	REC_END	n/a	n/a	n/a	-999	25	[0, 0, 0]	n/a	FR1	1	R1059J
2665.862	0.0	2780742	SESS_END	n/a	n/a	n/a	-999	25	[0, 0, 0]	n/a	FR1	1	R1059J
