onset	duration	sample	trial_type	response_time	stim_file	item_name	serialpos	list	test	answer	experiment	session	subject
0.0	0.0	20369	INSTRUCT_START	n/a	n/a	n/a	-999	-999	[0, 0, 0]	n/a	FR1	0	R1184M
0.0	10.858	20369	INSTRUCT_END	n/a	n/a	n/a	-999	-999	[0, 0, 0]	n/a	FR1	0	R1184M
10.858	0.0	31226	SESS_START	n/a	n/a	n/a	-999	-999	[0, 0, 0]	n/a	FR1	0	R1184M
10.858	202.935	31226	MIC_TEST	n/a	n/a	n/a	-999	-999	[0, 0, 0]	n/a	FR1	0	R1184M
213.793	9.067	234150	PRACTICE_TRIAL	n/a	n/a	n/a	-999	-1	[0, 0, 0]	n/a	FR1	0	R1184M
222.86	10.428	243216	COUNTDOWN_START	n/a	n/a	n/a	-999	-1	[0, 0, 0]	n/a	FR1	0	R1184M
233.288	0.007	253644	COUNTDOWN_END	n/a	n/a	n/a	-999	-1	[0, 0, 0]	n/a	FR1	0	R1184M
233.295	1.617	253651	PRACTICE_ORIENT	n/a	n/a	n/a	-999	-1	[0, 0, 0]	n/a	FR1	0	R1184M
234.912	1.9	255267	PRACTICE_ORIENT_OFF	n/a	n/a	n/a	-999	-1	[0, 0, 0]	n/a	FR1	0	R1184M
236.812	1.618	257167	PRACTICE_WORD	n/a	n/a	ATTIC	1	-1	[0, 0, 0]	n/a	FR1	0	R1184M
238.43	0.8	258785	PRACTICE_WORD_OFF	n/a	n/a	ATTIC	-999	-1	[0, 0, 0]	n/a	FR1	0	R1184M
239.23	1.617	259585	PRACTICE_WORD	n/a	n/a	CHEST	2	-1	[0, 0, 0]	n/a	FR1	0	R1184M
240.847	0.768	261202	PRACTICE_WORD_OFF	n/a	n/a	CHEST	-999	-1	[0, 0, 0]	n/a	FR1	0	R1184M
241.615	1.616	261970	PRACTICE_WORD	n/a	n/a	COTTON	3	-1	[0, 0, 0]	n/a	FR1	0	R1184M
243.231	0.883	263586	PRACTICE_WORD_OFF	n/a	n/a	COTTON	-999	-1	[0, 0, 0]	n/a	FR1	0	R1184M
244.114	1.618	264469	PRACTICE_WORD	n/a	n/a	WAGON	4	-1	[0, 0, 0]	n/a	FR1	0	R1184M
245.732	0.967	266087	PRACTICE_WORD_OFF	n/a	n/a	WAGON	-999	-1	[0, 0, 0]	n/a	FR1	0	R1184M
246.699	1.616	267054	PRACTICE_WORD	n/a	n/a	RING	5	-1	[0, 0, 0]	n/a	FR1	0	R1184M
248.315	0.867	268670	PRACTICE_WORD_OFF	n/a	n/a	RING	-999	-1	[0, 0, 0]	n/a	FR1	0	R1184M
249.182	1.617	269537	PRACTICE_WORD	n/a	n/a	FLOOD	6	-1	[0, 0, 0]	n/a	FR1	0	R1184M
250.799	0.784	271154	PRACTICE_WORD_OFF	n/a	n/a	FLOOD	-999	-1	[0, 0, 0]	n/a	FR1	0	R1184M
251.583	1.616	271937	PRACTICE_WORD	n/a	n/a	BEAM	7	-1	[0, 0, 0]	n/a	FR1	0	R1184M
253.199	0.867	273553	PRACTICE_WORD_OFF	n/a	n/a	BEAM	-999	-1	[0, 0, 0]	n/a	FR1	0	R1184M
254.066	1.601	274420	PRACTICE_WORD	n/a	n/a	IRON	8	-1	[0, 0, 0]	n/a	FR1	0	R1184M
255.667	0.867	276021	PRACTICE_WORD_OFF	n/a	n/a	IRON	-999	-1	[0, 0, 0]	n/a	FR1	0	R1184M
256.534	1.616	276888	PRACTICE_WORD	n/a	n/a	RHINO	9	-1	[0, 0, 0]	n/a	FR1	0	R1184M
258.15	0.95	278504	PRACTICE_WORD_OFF	n/a	n/a	RHINO	-999	-1	[0, 0, 0]	n/a	FR1	0	R1184M
259.1	1.602	279454	PRACTICE_WORD	n/a	n/a	TONGUE	10	-1	[0, 0, 0]	n/a	FR1	0	R1184M
260.702	0.816	281056	PRACTICE_WORD_OFF	n/a	n/a	TONGUE	-999	-1	[0, 0, 0]	n/a	FR1	0	R1184M
261.518	1.617	281872	PRACTICE_WORD	n/a	n/a	WATCH	11	-1	[0, 0, 0]	n/a	FR1	0	R1184M
263.135	0.866	283489	PRACTICE_WORD_OFF	n/a	n/a	WATCH	-999	-1	[0, 0, 0]	n/a	FR1	0	R1184M
264.001	1.618	284355	PRACTICE_WORD	n/a	n/a	CAMEL	12	-1	[0, 0, 0]	n/a	FR1	0	R1184M
265.619	0.0	285973	DISTRACT_START	n/a	n/a	n/a	-999	-1	[0, 0, 0]	n/a	FR1	0	R1184M
265.619	0.001	285973	PRACTICE_WORD_OFF	n/a	n/a	CAMEL	-999	-1	[0, 0, 0]	n/a	FR1	0	R1184M
265.62	0.016	285974	START	n/a	n/a	n/a	-999	-1	[-999, -999, -999]	n/a	FR1	0	R1184M
265.636	32.696	285990	PROB	32.696	n/a	n/a	-999	-1	[1, 7, 4]	12	FR1	0	R1184M
298.332	0.009	318684	STOP	n/a	n/a	n/a	-999	-1	[-999, -999, -999]	n/a	FR1	0	R1184M
298.341	0.701	318693	DISTRACT_END	n/a	n/a	n/a	-999	-1	[0, 0, 0]	n/a	FR1	0	R1184M
299.042	0.521	319394	RETRIEVAL_ORIENT	n/a	n/a	n/a	-999	-1	[0, 0, 0]	n/a	FR1	0	R1184M
299.563	30.008	319915	PRACTICE_REC_START	n/a	n/a	n/a	-999	-1	[0, 0, 0]	n/a	FR1	0	R1184M
329.571	61.372	349921	PRACTICE_REC_END	n/a	n/a	n/a	-999	-1	[0, 0, 0]	n/a	FR1	0	R1184M
390.943	0.5	411290	TRIAL	n/a	n/a	n/a	-999	1	[0, 0, 0]	n/a	FR1	0	R1184M
391.443	10.428	411790	COUNTDOWN_START	n/a	n/a	n/a	-999	1	[0, 0, 0]	n/a	FR1	0	R1184M
401.871	0.007	422217	COUNTDOWN_END	n/a	n/a	n/a	-999	1	[0, 0, 0]	n/a	FR1	0	R1184M
401.878	1.601	422224	ORIENT	n/a	n/a	n/a	-999	1	[0, 0, 0]	n/a	FR1	0	R1184M
403.479	1.9	423825	ORIENT_OFF	n/a	n/a	n/a	-999	1	[0, 0, 0]	n/a	FR1	0	R1184M
405.379	1.617	425725	WORD	n/a	wordpools/wordpool_EN.txt	SALT	1	1	[0, 0, 0]	n/a	FR1	0	R1184M
406.996	1.0	427342	WORD_OFF	n/a	n/a	SALT	1	1	[0, 0, 0]	n/a	FR1	0	R1184M
407.996	1.618	428342	WORD	n/a	wordpools/wordpool_EN.txt	AXE	2	1	[0, 0, 0]	n/a	FR1	0	R1184M
409.614	0.816	429960	WORD_OFF	n/a	n/a	AXE	2	1	[0, 0, 0]	n/a	FR1	0	R1184M
410.43	1.617	430776	WORD	n/a	wordpools/wordpool_EN.txt	BANK	3	1	[0, 0, 0]	n/a	FR1	0	R1184M
412.047	0.766	432393	WORD_OFF	n/a	n/a	BANK	3	1	[0, 0, 0]	n/a	FR1	0	R1184M
412.813	1.617	433158	WORD	n/a	wordpools/wordpool_EN.txt	RICE	4	1	[0, 0, 0]	n/a	FR1	0	R1184M
414.43	0.801	434775	WORD_OFF	n/a	n/a	RICE	4	1	[0, 0, 0]	n/a	FR1	0	R1184M
415.231	1.617	435576	WORD	n/a	wordpools/wordpool_EN.txt	FOOT	5	1	[0, 0, 0]	n/a	FR1	0	R1184M
416.848	0.9	437193	WORD_OFF	n/a	n/a	FOOT	5	1	[0, 0, 0]	n/a	FR1	0	R1184M
417.748	1.617	438093	WORD	n/a	wordpools/wordpool_EN.txt	GEESE	6	1	[0, 0, 0]	n/a	FR1	0	R1184M
419.365	0.967	439710	WORD_OFF	n/a	n/a	GEESE	6	1	[0, 0, 0]	n/a	FR1	0	R1184M
420.332	1.617	440677	WORD	n/a	wordpools/wordpool_EN.txt	HORSE	7	1	[0, 0, 0]	n/a	FR1	0	R1184M
421.949	0.866	442294	WORD_OFF	n/a	n/a	HORSE	7	1	[0, 0, 0]	n/a	FR1	0	R1184M
422.815	1.617	443160	WORD	n/a	wordpools/wordpool_EN.txt	FUR	8	1	[0, 0, 0]	n/a	FR1	0	R1184M
424.432	0.951	444777	WORD_OFF	n/a	n/a	FUR	8	1	[0, 0, 0]	n/a	FR1	0	R1184M
425.383	1.617	445728	WORD	n/a	wordpools/wordpool_EN.txt	SEED	9	1	[0, 0, 0]	n/a	FR1	0	R1184M
427.0	0.983	447345	WORD_OFF	n/a	n/a	SEED	9	1	[0, 0, 0]	n/a	FR1	0	R1184M
427.983	1.601	448328	WORD	n/a	wordpools/wordpool_EN.txt	SHEEP	10	1	[0, 0, 0]	n/a	FR1	0	R1184M
429.584	0.901	449929	WORD_OFF	n/a	n/a	SHEEP	10	1	[0, 0, 0]	n/a	FR1	0	R1184M
430.485	1.616	450829	WORD	n/a	wordpools/wordpool_EN.txt	WEB	11	1	[0, 0, 0]	n/a	FR1	0	R1184M
432.101	0.9	452445	WORD_OFF	n/a	n/a	WEB	11	1	[0, 0, 0]	n/a	FR1	0	R1184M
433.001	1.618	453345	WORD	n/a	wordpools/wordpool_EN.txt	TOY	12	1	[0, 0, 0]	n/a	FR1	0	R1184M
434.619	0.0	454963	WORD_OFF	n/a	n/a	TOY	12	1	[0, 0, 0]	n/a	FR1	0	R1184M
434.619	0.001	454963	DISTRACT_START	n/a	n/a	n/a	-999	1	[0, 0, 0]	n/a	FR1	0	R1184M
434.62	0.015	454964	START	n/a	n/a	n/a	-999	1	[-999, -999, -999]	n/a	FR1	0	R1184M
434.635	13.152	454979	PROB	13.152	n/a	n/a	-999	1	[1, 5, 9]	15	FR1	0	R1184M
447.787	8.201	468131	PROB	8.201	n/a	n/a	-999	1	[9, 2, 3]	14	FR1	0	R1184M
455.988	0.017	476331	STOP	n/a	n/a	n/a	-999	1	[-999, -999, -999]	n/a	FR1	0	R1184M
456.005	0.518	476348	DISTRACT_END	n/a	n/a	n/a	-999	1	[0, 0, 0]	n/a	FR1	0	R1184M
456.523	0.517	476866	RETRIEVAL_ORIENT	n/a	n/a	n/a	-999	1	[0, 0, 0]	n/a	FR1	0	R1184M
457.04	3.913	477383	REC_START	n/a	n/a	n/a	-999	1	[0, 0, 0]	n/a	FR1	0	R1184M
460.953	1.675	481296	REC_WORD	1.675	n/a	RICE	-999	1	[0, 0, 0]	n/a	FR1	0	R1184M
462.628	1.052	482971	REC_WORD	1.052	n/a	FOOT	-999	1	[0, 0, 0]	n/a	FR1	0	R1184M
463.68	0.572	484023	REC_WORD	0.572	n/a	TEA	-999	1	[0, 0, 0]	n/a	FR1	0	R1184M
464.252	1.758	484595	REC_WORD	1.758	n/a	AXE	-999	1	[0, 0, 0]	n/a	FR1	0	R1184M
466.01	12.131	486352	REC_WORD	12.131	n/a	HORSE	-999	1	[0, 0, 0]	n/a	FR1	0	R1184M
478.141	5.092	498483	REC_WORD	5.092	n/a	TOY	-999	1	[0, 0, 0]	n/a	FR1	0	R1184M
483.233	3.819	503575	REC_WORD	3.819	n/a	FUR	-999	1	[0, 0, 0]	n/a	FR1	0	R1184M
487.052	30.132	507393	REC_END	n/a	n/a	n/a	-999	1	[0, 0, 0]	n/a	FR1	0	R1184M
517.184	0.5	537524	TRIAL	n/a	n/a	n/a	-999	2	[0, 0, 0]	n/a	FR1	0	R1184M
517.684	10.428	538024	COUNTDOWN_START	n/a	n/a	n/a	-999	2	[0, 0, 0]	n/a	FR1	0	R1184M
528.112	0.007	548451	COUNTDOWN_END	n/a	n/a	n/a	-999	2	[0, 0, 0]	n/a	FR1	0	R1184M
528.119	1.601	548458	ORIENT	n/a	n/a	n/a	-999	2	[0, 0, 0]	n/a	FR1	0	R1184M
529.72	2.001	550059	ORIENT_OFF	n/a	n/a	n/a	-999	2	[0, 0, 0]	n/a	FR1	0	R1184M
531.721	1.616	552060	WORD	n/a	wordpools/wordpool_EN.txt	BOOT	1	2	[0, 0, 0]	n/a	FR1	0	R1184M
533.337	0.983	553676	WORD_OFF	n/a	n/a	BOOT	1	2	[0, 0, 0]	n/a	FR1	0	R1184M
534.32	1.617	554659	WORD	n/a	wordpools/wordpool_EN.txt	CROW	2	2	[0, 0, 0]	n/a	FR1	0	R1184M
535.937	0.867	556276	WORD_OFF	n/a	n/a	CROW	2	2	[0, 0, 0]	n/a	FR1	0	R1184M
536.804	1.617	557143	WORD	n/a	wordpools/wordpool_EN.txt	STEAM	3	2	[0, 0, 0]	n/a	FR1	0	R1184M
538.421	0.934	558759	WORD_OFF	n/a	n/a	STEAM	3	2	[0, 0, 0]	n/a	FR1	0	R1184M
539.355	1.617	559693	WORD	n/a	wordpools/wordpool_EN.txt	SHOE	4	2	[0, 0, 0]	n/a	FR1	0	R1184M
540.972	0.9	561310	WORD_OFF	n/a	n/a	SHOE	4	2	[0, 0, 0]	n/a	FR1	0	R1184M
541.872	1.618	562210	WORD	n/a	wordpools/wordpool_EN.txt	MAT	5	2	[0, 0, 0]	n/a	FR1	0	R1184M
543.49	0.967	563828	WORD_OFF	n/a	n/a	MAT	5	2	[0, 0, 0]	n/a	FR1	0	R1184M
544.457	1.616	564795	WORD	n/a	wordpools/wordpool_EN.txt	LIP	6	2	[0, 0, 0]	n/a	FR1	0	R1184M
546.073	0.883	566411	WORD_OFF	n/a	n/a	LIP	6	2	[0, 0, 0]	n/a	FR1	0	R1184M
546.956	1.618	567294	WORD	n/a	wordpools/wordpool_EN.txt	SEAL	7	2	[0, 0, 0]	n/a	FR1	0	R1184M
548.574	0.816	568912	WORD_OFF	n/a	n/a	SEAL	7	2	[0, 0, 0]	n/a	FR1	0	R1184M
549.39	1.617	569728	WORD	n/a	wordpools/wordpool_EN.txt	RIB	8	2	[0, 0, 0]	n/a	FR1	0	R1184M
551.007	0.983	571345	WORD_OFF	n/a	n/a	RIB	8	2	[0, 0, 0]	n/a	FR1	0	R1184M
551.99	1.602	572328	WORD	n/a	wordpools/wordpool_EN.txt	CAR	9	2	[0, 0, 0]	n/a	FR1	0	R1184M
553.592	0.95	573930	WORD_OFF	n/a	n/a	CAR	9	2	[0, 0, 0]	n/a	FR1	0	R1184M
554.542	1.616	574880	WORD	n/a	wordpools/wordpool_EN.txt	SOCK	10	2	[0, 0, 0]	n/a	FR1	0	R1184M
556.158	0.967	576495	WORD_OFF	n/a	n/a	SOCK	10	2	[0, 0, 0]	n/a	FR1	0	R1184M
557.125	1.617	577462	WORD	n/a	wordpools/wordpool_EN.txt	STAIR	11	2	[0, 0, 0]	n/a	FR1	0	R1184M
558.742	0.784	579079	WORD_OFF	n/a	n/a	STAIR	11	2	[0, 0, 0]	n/a	FR1	0	R1184M
559.526	1.616	579863	WORD	n/a	wordpools/wordpool_EN.txt	TIE	12	2	[0, 0, 0]	n/a	FR1	0	R1184M
561.142	0.0	581479	WORD_OFF	n/a	n/a	TIE	12	2	[0, 0, 0]	n/a	FR1	0	R1184M
561.142	0.001	581479	DISTRACT_START	n/a	n/a	n/a	-999	2	[0, 0, 0]	n/a	FR1	0	R1184M
561.143	0.016	581480	START	n/a	n/a	n/a	-999	2	[-999, -999, -999]	n/a	FR1	0	R1184M
561.159	7.068	581496	PROB	7.068	n/a	n/a	-999	2	[1, 6, 4]	11	FR1	0	R1184M
568.227	10.669	588564	PROB	10.669	n/a	n/a	-999	2	[4, 8, 6]	18	FR1	0	R1184M
578.896	5.558	599232	PROB	5.558	n/a	n/a	-999	2	[2, 5, 7]	14	FR1	0	R1184M
584.454	0.01	604790	STOP	n/a	n/a	n/a	-999	2	[-999, -999, -999]	n/a	FR1	0	R1184M
584.464	0.649	604800	DISTRACT_END	n/a	n/a	n/a	-999	2	[0, 0, 0]	n/a	FR1	0	R1184M
585.113	0.519	605449	RETRIEVAL_ORIENT	n/a	n/a	n/a	-999	2	[0, 0, 0]	n/a	FR1	0	R1184M
585.632	3.577	605968	REC_START	n/a	n/a	n/a	-999	2	[0, 0, 0]	n/a	FR1	0	R1184M
589.209	1.421	609545	REC_WORD	1.421	n/a	CROW	-999	2	[0, 0, 0]	n/a	FR1	0	R1184M
590.63	2.773	610966	REC_WORD	2.773	n/a	BOOT	-999	2	[0, 0, 0]	n/a	FR1	0	R1184M
593.403	2.913	613738	REC_WORD	2.913	n/a	FOOT	-999	2	[0, 0, 0]	n/a	FR1	0	R1184M
596.316	19.327	616651	REC_WORD_VV	19.327	n/a	<>	-999	2	[0, 0, 0]	n/a	FR1	0	R1184M
615.643	38.802	635977	REC_END	n/a	n/a	n/a	-999	2	[0, 0, 0]	n/a	FR1	0	R1184M
654.445	0.5	674777	TRIAL	n/a	n/a	n/a	-999	3	[0, 0, 0]	n/a	FR1	0	R1184M
654.945	10.428	675277	COUNTDOWN_START	n/a	n/a	n/a	-999	3	[0, 0, 0]	n/a	FR1	0	R1184M
665.373	0.006	685704	COUNTDOWN_END	n/a	n/a	n/a	-999	3	[0, 0, 0]	n/a	FR1	0	R1184M
665.379	1.617	685710	ORIENT	n/a	n/a	n/a	-999	3	[0, 0, 0]	n/a	FR1	0	R1184M
666.996	2.151	687327	ORIENT_OFF	n/a	n/a	n/a	-999	3	[0, 0, 0]	n/a	FR1	0	R1184M
669.147	1.617	689478	WORD	n/a	wordpools/wordpool_EN.txt	GOAT	1	3	[0, 0, 0]	n/a	FR1	0	R1184M
670.764	0.951	691095	WORD_OFF	n/a	n/a	GOAT	1	3	[0, 0, 0]	n/a	FR1	0	R1184M
671.715	1.616	692046	WORD	n/a	wordpools/wordpool_EN.txt	APE	2	3	[0, 0, 0]	n/a	FR1	0	R1184M
673.331	0.8	693662	WORD_OFF	n/a	n/a	APE	2	3	[0, 0, 0]	n/a	FR1	0	R1184M
674.131	1.617	694462	WORD	n/a	wordpools/wordpool_EN.txt	CASH	3	3	[0, 0, 0]	n/a	FR1	0	R1184M
675.748	0.951	696079	WORD_OFF	n/a	n/a	CASH	3	3	[0, 0, 0]	n/a	FR1	0	R1184M
676.699	1.616	697030	WORD	n/a	wordpools/wordpool_EN.txt	VASE	4	3	[0, 0, 0]	n/a	FR1	0	R1184M
678.315	0.817	698646	WORD_OFF	n/a	n/a	VASE	4	3	[0, 0, 0]	n/a	FR1	0	R1184M
679.132	1.617	699463	WORD	n/a	wordpools/wordpool_EN.txt	BENCH	5	3	[0, 0, 0]	n/a	FR1	0	R1184M
680.749	1.0	701079	WORD_OFF	n/a	n/a	BENCH	5	3	[0, 0, 0]	n/a	FR1	0	R1184M
681.749	1.617	702079	WORD	n/a	wordpools/wordpool_EN.txt	STORE	6	3	[0, 0, 0]	n/a	FR1	0	R1184M
683.366	0.867	703696	WORD_OFF	n/a	n/a	STORE	6	3	[0, 0, 0]	n/a	FR1	0	R1184M
684.233	1.617	704563	WORD	n/a	wordpools/wordpool_EN.txt	TEETH	7	3	[0, 0, 0]	n/a	FR1	0	R1184M
685.85	0.9	706180	WORD_OFF	n/a	n/a	TEETH	7	3	[0, 0, 0]	n/a	FR1	0	R1184M
686.75	1.617	707080	WORD	n/a	wordpools/wordpool_EN.txt	CONE	8	3	[0, 0, 0]	n/a	FR1	0	R1184M
688.367	0.95	708697	WORD_OFF	n/a	n/a	CONE	8	3	[0, 0, 0]	n/a	FR1	0	R1184M
689.317	1.617	709647	WORD	n/a	wordpools/wordpool_EN.txt	ROCK	9	3	[0, 0, 0]	n/a	FR1	0	R1184M
690.934	0.917	711264	WORD_OFF	n/a	n/a	ROCK	9	3	[0, 0, 0]	n/a	FR1	0	R1184M
691.851	1.618	712181	WORD	n/a	wordpools/wordpool_EN.txt	CLOUD	10	3	[0, 0, 0]	n/a	FR1	0	R1184M
693.469	0.967	713799	WORD_OFF	n/a	n/a	CLOUD	10	3	[0, 0, 0]	n/a	FR1	0	R1184M
694.436	1.616	714766	WORD	n/a	wordpools/wordpool_EN.txt	YARD	11	3	[0, 0, 0]	n/a	FR1	0	R1184M
696.052	0.8	716382	WORD_OFF	n/a	n/a	YARD	11	3	[0, 0, 0]	n/a	FR1	0	R1184M
696.852	1.618	717182	WORD	n/a	wordpools/wordpool_EN.txt	PANTS	12	3	[0, 0, 0]	n/a	FR1	0	R1184M
698.47	0.0	718799	WORD_OFF	n/a	n/a	PANTS	12	3	[0, 0, 0]	n/a	FR1	0	R1184M
698.47	0.0	718799	DISTRACT_START	n/a	n/a	n/a	-999	3	[0, 0, 0]	n/a	FR1	0	R1184M
698.47	0.017	718799	START	n/a	n/a	n/a	-999	3	[-999, -999, -999]	n/a	FR1	0	R1184M
698.487	6.667	718816	PROB	6.667	n/a	n/a	-999	3	[4, 2, 2]	8	FR1	0	R1184M
705.154	3.117	725483	PROB	3.117	n/a	n/a	-999	3	[7, 1, 1]	9	FR1	0	R1184M
708.271	11.085	728600	PROB	11.085	n/a	n/a	-999	3	[5, 9, 9]	24	FR1	0	R1184M
719.356	0.017	739684	STOP	n/a	n/a	n/a	-999	3	[-999, -999, -999]	n/a	FR1	0	R1184M
719.373	0.683	739701	DISTRACT_END	n/a	n/a	n/a	-999	3	[0, 0, 0]	n/a	FR1	0	R1184M
720.056	0.519	740384	RETRIEVAL_ORIENT	n/a	n/a	n/a	-999	3	[0, 0, 0]	n/a	FR1	0	R1184M
720.575	1.364	740903	REC_START	n/a	n/a	n/a	-999	3	[0, 0, 0]	n/a	FR1	0	R1184M
721.939	0.698	742267	REC_WORD	0.698	n/a	GOAT	-999	3	[0, 0, 0]	n/a	FR1	0	R1184M
722.637	1.552	742965	REC_WORD	1.552	n/a	APE	-999	3	[0, 0, 0]	n/a	FR1	0	R1184M
724.189	2.996	744517	REC_WORD	2.996	n/a	BENCH	-999	3	[0, 0, 0]	n/a	FR1	0	R1184M
727.185	2.339	747513	REC_WORD_VV	2.339	n/a	<>	-999	3	[0, 0, 0]	n/a	FR1	0	R1184M
729.524	0.589	749852	REC_WORD	0.589	n/a	ROCK	-999	3	[0, 0, 0]	n/a	FR1	0	R1184M
730.113	5.333	750441	REC_WORD	5.333	n/a	CONE	-999	3	[0, 0, 0]	n/a	FR1	0	R1184M
735.446	15.14	755773	REC_WORD_VV	15.14	n/a	<>	-999	3	[0, 0, 0]	n/a	FR1	0	R1184M
750.586	13.562	770913	REC_END	n/a	n/a	n/a	-999	3	[0, 0, 0]	n/a	FR1	0	R1184M
764.148	0.5	784474	TRIAL	n/a	n/a	n/a	-999	4	[0, 0, 0]	n/a	FR1	0	R1184M
764.648	10.428	784974	COUNTDOWN_START	n/a	n/a	n/a	-999	4	[0, 0, 0]	n/a	FR1	0	R1184M
775.076	0.008	795401	COUNTDOWN_END	n/a	n/a	n/a	-999	4	[0, 0, 0]	n/a	FR1	0	R1184M
775.084	1.601	795409	ORIENT	n/a	n/a	n/a	-999	4	[0, 0, 0]	n/a	FR1	0	R1184M
776.685	1.917	797010	ORIENT_OFF	n/a	n/a	n/a	-999	4	[0, 0, 0]	n/a	FR1	0	R1184M
778.602	1.616	798927	WORD	n/a	wordpools/wordpool_EN.txt	LAMB	1	4	[0, 0, 0]	n/a	FR1	0	R1184M
780.218	0.934	800543	WORD_OFF	n/a	n/a	LAMB	1	4	[0, 0, 0]	n/a	FR1	0	R1184M
781.152	1.617	801477	WORD	n/a	wordpools/wordpool_EN.txt	COW	2	4	[0, 0, 0]	n/a	FR1	0	R1184M
782.769	0.801	803094	WORD_OFF	n/a	n/a	COW	2	4	[0, 0, 0]	n/a	FR1	0	R1184M
783.57	1.616	803895	WORD	n/a	wordpools/wordpool_EN.txt	CLOTH	3	4	[0, 0, 0]	n/a	FR1	0	R1184M
785.186	0.916	805511	WORD_OFF	n/a	n/a	CLOTH	3	4	[0, 0, 0]	n/a	FR1	0	R1184M
786.102	1.619	806427	WORD	n/a	wordpools/wordpool_EN.txt	SHIRT	4	4	[0, 0, 0]	n/a	FR1	0	R1184M
787.721	0.949	808045	WORD_OFF	n/a	n/a	SHIRT	4	4	[0, 0, 0]	n/a	FR1	0	R1184M
788.67	1.617	808994	WORD	n/a	wordpools/wordpool_EN.txt	CAGE	5	4	[0, 0, 0]	n/a	FR1	0	R1184M
790.287	1.0	810611	WORD_OFF	n/a	n/a	CAGE	5	4	[0, 0, 0]	n/a	FR1	0	R1184M
791.287	1.617	811611	WORD	n/a	wordpools/wordpool_EN.txt	SNAIL	6	4	[0, 0, 0]	n/a	FR1	0	R1184M
792.904	1.017	813228	WORD_OFF	n/a	n/a	SNAIL	6	4	[0, 0, 0]	n/a	FR1	0	R1184M
793.921	1.618	814245	WORD	n/a	wordpools/wordpool_EN.txt	ROPE	7	4	[0, 0, 0]	n/a	FR1	0	R1184M
795.539	0.983	815863	WORD_OFF	n/a	n/a	ROPE	7	4	[0, 0, 0]	n/a	FR1	0	R1184M
796.522	1.616	816846	WORD	n/a	wordpools/wordpool_EN.txt	MAZE	8	4	[0, 0, 0]	n/a	FR1	0	R1184M
798.138	0.784	818462	WORD_OFF	n/a	n/a	MAZE	8	4	[0, 0, 0]	n/a	FR1	0	R1184M
798.922	1.601	819246	WORD	n/a	wordpools/wordpool_EN.txt	TRASH	9	4	[0, 0, 0]	n/a	FR1	0	R1184M
800.523	0.816	820847	WORD_OFF	n/a	n/a	TRASH	9	4	[0, 0, 0]	n/a	FR1	0	R1184M
801.339	1.617	821663	WORD	n/a	wordpools/wordpool_EN.txt	TREE	10	4	[0, 0, 0]	n/a	FR1	0	R1184M
802.956	0.768	823280	WORD_OFF	n/a	n/a	TREE	10	4	[0, 0, 0]	n/a	FR1	0	R1184M
803.724	1.616	824048	WORD	n/a	wordpools/wordpool_EN.txt	CHALK	11	4	[0, 0, 0]	n/a	FR1	0	R1184M
805.34	0.8	825663	WORD_OFF	n/a	n/a	CHALK	11	4	[0, 0, 0]	n/a	FR1	0	R1184M
806.14	1.617	826463	WORD	n/a	wordpools/wordpool_EN.txt	ARK	12	4	[0, 0, 0]	n/a	FR1	0	R1184M
807.757	0.0	828080	WORD_OFF	n/a	n/a	ARK	12	4	[0, 0, 0]	n/a	FR1	0	R1184M
807.757	0.0	828080	DISTRACT_START	n/a	n/a	n/a	-999	4	[0, 0, 0]	n/a	FR1	0	R1184M
807.757	0.016	828080	START	n/a	n/a	n/a	-999	4	[-999, -999, -999]	n/a	FR1	0	R1184M
807.773	7.018	828096	PROB	7.018	n/a	n/a	-999	4	[1, 4, 9]	13	FR1	0	R1184M
814.791	8.786	835114	PROB	8.786	n/a	n/a	-999	4	[3, 3, 7]	15	FR1	0	R1184M
823.577	7.38	843899	PROB	7.38	n/a	n/a	-999	4	[8, 7, 2]	17	FR1	0	R1184M
830.957	0.021	851279	STOP	n/a	n/a	n/a	-999	4	[-999, -999, -999]	n/a	FR1	0	R1184M
830.978	0.701	851300	DISTRACT_END	n/a	n/a	n/a	-999	4	[0, 0, 0]	n/a	FR1	0	R1184M
831.679	0.516	852001	RETRIEVAL_ORIENT	n/a	n/a	n/a	-999	4	[0, 0, 0]	n/a	FR1	0	R1184M
832.195	8.448	852517	REC_START	n/a	n/a	n/a	-999	4	[0, 0, 0]	n/a	FR1	0	R1184M
840.643	7.687	860965	REC_WORD_VV	7.687	n/a	<>	-999	4	[0, 0, 0]	n/a	FR1	0	R1184M
848.33	0.938	868651	REC_WORD	0.938	n/a	SHEET	-999	4	[0, 0, 0]	n/a	FR1	0	R1184M
849.268	2.413	869589	REC_WORD	2.413	n/a	GOAT	-999	4	[0, 0, 0]	n/a	FR1	0	R1184M
851.681	5.31	872002	REC_WORD	5.31	n/a	APE	-999	4	[0, 0, 0]	n/a	FR1	0	R1184M
856.991	5.216	877312	REC_WORD	5.216	n/a	TIN	-999	4	[0, 0, 0]	n/a	FR1	0	R1184M
862.207	17.097	882527	REC_END	n/a	n/a	n/a	-999	4	[0, 0, 0]	n/a	FR1	0	R1184M
879.304	0.5	899623	TRIAL	n/a	n/a	n/a	-999	5	[0, 0, 0]	n/a	FR1	0	R1184M
879.804	10.428	900123	COUNTDOWN_START	n/a	n/a	n/a	-999	5	[0, 0, 0]	n/a	FR1	0	R1184M
890.232	0.007	910551	COUNTDOWN_END	n/a	n/a	n/a	-999	5	[0, 0, 0]	n/a	FR1	0	R1184M
890.239	1.617	910558	ORIENT	n/a	n/a	n/a	-999	5	[0, 0, 0]	n/a	FR1	0	R1184M
891.856	2.334	912175	ORIENT_OFF	n/a	n/a	n/a	-999	5	[0, 0, 0]	n/a	FR1	0	R1184M
894.19	1.617	914509	WORD	n/a	wordpools/wordpool_EN.txt	SKY	1	5	[0, 0, 0]	n/a	FR1	0	R1184M
895.807	0.835	916125	WORD_OFF	n/a	n/a	SKY	1	5	[0, 0, 0]	n/a	FR1	0	R1184M
896.642	1.616	916960	WORD	n/a	wordpools/wordpool_EN.txt	HEART	2	5	[0, 0, 0]	n/a	FR1	0	R1184M
898.258	0.867	918576	WORD_OFF	n/a	n/a	HEART	2	5	[0, 0, 0]	n/a	FR1	0	R1184M
899.125	1.616	919443	WORD	n/a	wordpools/wordpool_EN.txt	DRUM	3	5	[0, 0, 0]	n/a	FR1	0	R1184M
900.741	0.918	921059	WORD_OFF	n/a	n/a	DRUM	3	5	[0, 0, 0]	n/a	FR1	0	R1184M
901.659	1.616	921977	WORD	n/a	wordpools/wordpool_EN.txt	FROG	4	5	[0, 0, 0]	n/a	FR1	0	R1184M
903.275	0.967	923593	WORD_OFF	n/a	n/a	FROG	4	5	[0, 0, 0]	n/a	FR1	0	R1184M
904.242	1.617	924560	WORD	n/a	wordpools/wordpool_EN.txt	RUG	5	5	[0, 0, 0]	n/a	FR1	0	R1184M
905.859	0.835	926177	WORD_OFF	n/a	n/a	RUG	5	5	[0, 0, 0]	n/a	FR1	0	R1184M
906.694	1.616	927012	WORD	n/a	wordpools/wordpool_EN.txt	BEAN	6	5	[0, 0, 0]	n/a	FR1	0	R1184M
908.31	0.833	928628	WORD_OFF	n/a	n/a	BEAN	6	5	[0, 0, 0]	n/a	FR1	0	R1184M
909.143	1.617	929461	WORD	n/a	wordpools/wordpool_EN.txt	EGG	7	5	[0, 0, 0]	n/a	FR1	0	R1184M
910.76	0.784	931078	WORD_OFF	n/a	n/a	EGG	7	5	[0, 0, 0]	n/a	FR1	0	R1184M
911.544	1.616	931862	WORD	n/a	wordpools/wordpool_EN.txt	ROOT	8	5	[0, 0, 0]	n/a	FR1	0	R1184M
913.16	0.984	933477	WORD_OFF	n/a	n/a	ROOT	8	5	[0, 0, 0]	n/a	FR1	0	R1184M
914.144	1.617	934461	WORD	n/a	wordpools/wordpool_EN.txt	HOLE	9	5	[0, 0, 0]	n/a	FR1	0	R1184M
915.761	0.951	936078	WORD_OFF	n/a	n/a	HOLE	9	5	[0, 0, 0]	n/a	FR1	0	R1184M
916.712	1.616	937029	WORD	n/a	wordpools/wordpool_EN.txt	STAR	10	5	[0, 0, 0]	n/a	FR1	0	R1184M
918.328	0.85	938645	WORD_OFF	n/a	n/a	STAR	10	5	[0, 0, 0]	n/a	FR1	0	R1184M
919.178	1.617	939495	WORD	n/a	wordpools/wordpool_EN.txt	SPONGE	11	5	[0, 0, 0]	n/a	FR1	0	R1184M
920.795	0.835	941112	WORD_OFF	n/a	n/a	SPONGE	11	5	[0, 0, 0]	n/a	FR1	0	R1184M
921.63	1.616	941947	WORD	n/a	wordpools/wordpool_EN.txt	CAPE	12	5	[0, 0, 0]	n/a	FR1	0	R1184M
923.246	0.0	943563	WORD_OFF	n/a	n/a	CAPE	12	5	[0, 0, 0]	n/a	FR1	0	R1184M
923.246	0.0	943563	DISTRACT_START	n/a	n/a	n/a	-999	5	[0, 0, 0]	n/a	FR1	0	R1184M
923.246	0.016	943563	START	n/a	n/a	n/a	-999	5	[-999, -999, -999]	n/a	FR1	0	R1184M
923.262	17.671	943579	PROB	17.671	n/a	n/a	-999	5	[8, 4, 2]	14	FR1	0	R1184M
940.933	4.785	961249	PROB	4.785	n/a	n/a	-999	5	[5, 7, 2]	14	FR1	0	R1184M
945.718	0.017	966034	STOP	n/a	n/a	n/a	-999	5	[-999, -999, -999]	n/a	FR1	0	R1184M
945.735	0.582	966051	DISTRACT_END	n/a	n/a	n/a	-999	5	[0, 0, 0]	n/a	FR1	0	R1184M
946.317	0.517	966633	RETRIEVAL_ORIENT	n/a	n/a	n/a	-999	5	[0, 0, 0]	n/a	FR1	0	R1184M
946.834	1.95	967150	REC_START	n/a	n/a	n/a	-999	5	[0, 0, 0]	n/a	FR1	0	R1184M
948.784	0.859	969099	REC_WORD	0.859	n/a	SKY	-999	5	[0, 0, 0]	n/a	FR1	0	R1184M
949.643	4.153	969958	REC_WORD	4.153	n/a	ROPE	-999	5	[0, 0, 0]	n/a	FR1	0	R1184M
953.796	2.19	974111	REC_WORD	2.19	n/a	APE	-999	5	[0, 0, 0]	n/a	FR1	0	R1184M
955.986	3.049	976301	REC_WORD_VV	3.049	n/a	<>	-999	5	[0, 0, 0]	n/a	FR1	0	R1184M
959.035	4.389	979350	REC_WORD_VV	4.389	n/a	<>	-999	5	[0, 0, 0]	n/a	FR1	0	R1184M
963.424	3.295	983739	REC_WORD	3.295	n/a	ROOT	-999	5	[0, 0, 0]	n/a	FR1	0	R1184M
966.719	8.415	987033	REC_WORD	8.415	n/a	CAPE	-999	5	[0, 0, 0]	n/a	FR1	0	R1184M
975.134	1.711	995448	REC_WORD_VV	1.711	n/a	<>	-999	5	[0, 0, 0]	n/a	FR1	0	R1184M
976.845	13.064	997159	REC_END	n/a	n/a	n/a	-999	5	[0, 0, 0]	n/a	FR1	0	R1184M
989.909	0.5	1010222	TRIAL	n/a	n/a	n/a	-999	6	[0, 0, 0]	n/a	FR1	0	R1184M
990.409	10.428	1010722	COUNTDOWN_START	n/a	n/a	n/a	-999	6	[0, 0, 0]	n/a	FR1	0	R1184M
1000.837	0.007	1021150	COUNTDOWN_END	n/a	n/a	n/a	-999	6	[0, 0, 0]	n/a	FR1	0	R1184M
1000.844	1.618	1021157	ORIENT	n/a	n/a	n/a	-999	6	[0, 0, 0]	n/a	FR1	0	R1184M
1002.462	1.966	1022774	ORIENT_OFF	n/a	n/a	n/a	-999	6	[0, 0, 0]	n/a	FR1	0	R1184M
1004.428	1.617	1024740	WORD	n/a	wordpools/wordpool_EN.txt	HAND	1	6	[0, 0, 0]	n/a	FR1	0	R1184M
1006.045	0.8	1026357	WORD_OFF	n/a	n/a	HAND	1	6	[0, 0, 0]	n/a	FR1	0	R1184M
1006.845	1.602	1027157	WORD	n/a	wordpools/wordpool_EN.txt	SPEAR	2	6	[0, 0, 0]	n/a	FR1	0	R1184M
1008.447	0.799	1028759	WORD_OFF	n/a	n/a	SPEAR	2	6	[0, 0, 0]	n/a	FR1	0	R1184M
1009.246	1.617	1029558	WORD	n/a	wordpools/wordpool_EN.txt	WING	3	6	[0, 0, 0]	n/a	FR1	0	R1184M
1010.863	0.784	1031175	WORD_OFF	n/a	n/a	WING	3	6	[0, 0, 0]	n/a	FR1	0	R1184M
1011.647	1.616	1031959	WORD	n/a	wordpools/wordpool_EN.txt	SWORD	4	6	[0, 0, 0]	n/a	FR1	0	R1184M
1013.263	0.867	1033575	WORD_OFF	n/a	n/a	SWORD	4	6	[0, 0, 0]	n/a	FR1	0	R1184M
1014.13	1.601	1034442	WORD	n/a	wordpools/wordpool_EN.txt	PRINCE	5	6	[0, 0, 0]	n/a	FR1	0	R1184M
1015.731	0.834	1036043	WORD_OFF	n/a	n/a	PRINCE	5	6	[0, 0, 0]	n/a	FR1	0	R1184M
1016.565	1.616	1036877	WORD	n/a	wordpools/wordpool_EN.txt	STONE	6	6	[0, 0, 0]	n/a	FR1	0	R1184M
1018.181	0.933	1038493	WORD_OFF	n/a	n/a	STONE	6	6	[0, 0, 0]	n/a	FR1	0	R1184M
1019.114	1.602	1039426	WORD	n/a	wordpools/wordpool_EN.txt	FACE	7	6	[0, 0, 0]	n/a	FR1	0	R1184M
1020.716	0.983	1041027	WORD_OFF	n/a	n/a	FACE	7	6	[0, 0, 0]	n/a	FR1	0	R1184M
1021.699	1.616	1042010	WORD	n/a	wordpools/wordpool_EN.txt	LAWN	8	6	[0, 0, 0]	n/a	FR1	0	R1184M
1023.315	0.934	1043626	WORD_OFF	n/a	n/a	LAWN	8	6	[0, 0, 0]	n/a	FR1	0	R1184M
1024.249	1.617	1044560	WORD	n/a	wordpools/wordpool_EN.txt	BLOOM	9	6	[0, 0, 0]	n/a	FR1	0	R1184M
1025.866	0.883	1046177	WORD_OFF	n/a	n/a	BLOOM	9	6	[0, 0, 0]	n/a	FR1	0	R1184M
1026.749	1.617	1047060	WORD	n/a	wordpools/wordpool_EN.txt	BLUSH	10	6	[0, 0, 0]	n/a	FR1	0	R1184M
1028.366	0.9	1048677	WORD_OFF	n/a	n/a	BLUSH	10	6	[0, 0, 0]	n/a	FR1	0	R1184M
1029.266	1.617	1049577	WORD	n/a	wordpools/wordpool_EN.txt	CROWN	11	6	[0, 0, 0]	n/a	FR1	0	R1184M
1030.883	0.95	1051194	WORD_OFF	n/a	n/a	CROWN	11	6	[0, 0, 0]	n/a	FR1	0	R1184M
1031.833	1.619	1052144	WORD	n/a	wordpools/wordpool_EN.txt	PIN	12	6	[0, 0, 0]	n/a	FR1	0	R1184M
1033.452	0.0	1053763	WORD_OFF	n/a	n/a	PIN	12	6	[0, 0, 0]	n/a	FR1	0	R1184M
1033.452	0.0	1053763	DISTRACT_START	n/a	n/a	n/a	-999	6	[0, 0, 0]	n/a	FR1	0	R1184M
1033.452	0.016	1053763	START	n/a	n/a	n/a	-999	6	[-999, -999, -999]	n/a	FR1	0	R1184M
1033.468	13.485	1053779	PROB	13.485	n/a	n/a	-999	6	[9, 6, 6]	22	FR1	0	R1184M
1046.953	6.637	1067263	PROB	6.637	n/a	n/a	-999	6	[7, 2, 1]	10	FR1	0	R1184M
1053.59	0.015	1073900	STOP	n/a	n/a	n/a	-999	6	[-999, -999, -999]	n/a	FR1	0	R1184M
1053.605	0.583	1073915	DISTRACT_END	n/a	n/a	n/a	-999	6	[0, 0, 0]	n/a	FR1	0	R1184M
1054.188	0.518	1074498	RETRIEVAL_ORIENT	n/a	n/a	n/a	-999	6	[0, 0, 0]	n/a	FR1	0	R1184M
1054.706	4.119	1075016	REC_START	n/a	n/a	n/a	-999	6	[0, 0, 0]	n/a	FR1	0	R1184M
1058.825	0.832	1079134	REC_WORD	0.832	n/a	HAND	-999	6	[0, 0, 0]	n/a	FR1	0	R1184M
1059.657	9.546	1079966	REC_WORD	9.546	n/a	FACE	-999	6	[0, 0, 0]	n/a	FR1	0	R1184M
1069.203	5.272	1089512	REC_WORD	5.272	n/a	PIN	-999	6	[0, 0, 0]	n/a	FR1	0	R1184M
1074.475	6.306	1094783	REC_WORD	6.306	n/a	CROWN	-999	6	[0, 0, 0]	n/a	FR1	0	R1184M
1080.781	1.638	1101089	REC_WORD	1.638	n/a	SWORD	-999	6	[0, 0, 0]	n/a	FR1	0	R1184M
1082.419	1.305	1102727	REC_WORD	1.305	n/a	SPEAR	-999	6	[0, 0, 0]	n/a	FR1	0	R1184M
1083.724	0.996	1104032	REC_WORD	0.996	n/a	STORE	-999	6	[0, 0, 0]	n/a	FR1	0	R1184M
1084.72	23.512	1105028	REC_END	n/a	n/a	n/a	-999	6	[0, 0, 0]	n/a	FR1	0	R1184M
1108.232	0.5	1128539	TRIAL	n/a	n/a	n/a	-999	7	[0, 0, 0]	n/a	FR1	0	R1184M
1108.732	10.428	1129038	COUNTDOWN_START	n/a	n/a	n/a	-999	7	[0, 0, 0]	n/a	FR1	0	R1184M
1119.16	0.007	1139466	COUNTDOWN_END	n/a	n/a	n/a	-999	7	[0, 0, 0]	n/a	FR1	0	R1184M
1119.167	1.617	1139473	ORIENT	n/a	n/a	n/a	-999	7	[0, 0, 0]	n/a	FR1	0	R1184M
1120.784	2.017	1141090	ORIENT_OFF	n/a	n/a	n/a	-999	7	[0, 0, 0]	n/a	FR1	0	R1184M
1122.801	1.617	1143107	WORD	n/a	wordpools/wordpool_EN.txt	HOOF	1	7	[0, 0, 0]	n/a	FR1	0	R1184M
1124.418	0.983	1144724	WORD_OFF	n/a	n/a	HOOF	1	7	[0, 0, 0]	n/a	FR1	0	R1184M
1125.401	1.618	1145707	WORD	n/a	wordpools/wordpool_EN.txt	SHELL	2	7	[0, 0, 0]	n/a	FR1	0	R1184M
1127.019	0.983	1147324	WORD_OFF	n/a	n/a	SHELL	2	7	[0, 0, 0]	n/a	FR1	0	R1184M
1128.002	1.618	1148307	WORD	n/a	wordpools/wordpool_EN.txt	MAP	3	7	[0, 0, 0]	n/a	FR1	0	R1184M
1129.62	0.766	1149925	WORD_OFF	n/a	n/a	MAP	3	7	[0, 0, 0]	n/a	FR1	0	R1184M
1130.386	1.617	1150691	WORD	n/a	wordpools/wordpool_EN.txt	SEA	4	7	[0, 0, 0]	n/a	FR1	0	R1184M
1132.003	0.8	1152308	WORD_OFF	n/a	n/a	SEA	4	7	[0, 0, 0]	n/a	FR1	0	R1184M
1132.803	1.617	1153108	WORD	n/a	wordpools/wordpool_EN.txt	PHONE	5	7	[0, 0, 0]	n/a	FR1	0	R1184M
1134.42	0.817	1154725	WORD_OFF	n/a	n/a	PHONE	5	7	[0, 0, 0]	n/a	FR1	0	R1184M
1135.237	1.617	1155542	WORD	n/a	wordpools/wordpool_EN.txt	LAKE	6	7	[0, 0, 0]	n/a	FR1	0	R1184M
1136.854	0.834	1157159	WORD_OFF	n/a	n/a	LAKE	6	7	[0, 0, 0]	n/a	FR1	0	R1184M
1137.688	1.616	1157993	WORD	n/a	wordpools/wordpool_EN.txt	SHEET	7	7	[0, 0, 0]	n/a	FR1	0	R1184M
1139.304	0.784	1159609	WORD_OFF	n/a	n/a	SHEET	7	7	[0, 0, 0]	n/a	FR1	0	R1184M
1140.088	1.618	1160393	WORD	n/a	wordpools/wordpool_EN.txt	POND	8	7	[0, 0, 0]	n/a	FR1	0	R1184M
1141.706	1.0	1162011	WORD_OFF	n/a	n/a	POND	8	7	[0, 0, 0]	n/a	FR1	0	R1184M
1142.706	1.616	1163011	WORD	n/a	wordpools/wordpool_EN.txt	FRUIT	9	7	[0, 0, 0]	n/a	FR1	0	R1184M
1144.322	1.0	1164626	WORD_OFF	n/a	n/a	FRUIT	9	7	[0, 0, 0]	n/a	FR1	0	R1184M
1145.322	1.617	1165626	WORD	n/a	wordpools/wordpool_EN.txt	FILM	10	7	[0, 0, 0]	n/a	FR1	0	R1184M
1146.939	1.0	1167243	WORD_OFF	n/a	n/a	FILM	10	7	[0, 0, 0]	n/a	FR1	0	R1184M
1147.939	1.618	1168243	WORD	n/a	wordpools/wordpool_EN.txt	PEARL	11	7	[0, 0, 0]	n/a	FR1	0	R1184M
1149.557	0.95	1169861	WORD_OFF	n/a	n/a	PEARL	11	7	[0, 0, 0]	n/a	FR1	0	R1184M
1150.507	1.617	1170811	WORD	n/a	wordpools/wordpool_EN.txt	JUDGE	12	7	[0, 0, 0]	n/a	FR1	0	R1184M
1152.124	0.0	1172428	WORD_OFF	n/a	n/a	JUDGE	12	7	[0, 0, 0]	n/a	FR1	0	R1184M
1152.124	0.0	1172428	DISTRACT_START	n/a	n/a	n/a	-999	7	[0, 0, 0]	n/a	FR1	0	R1184M
1152.124	0.016	1172428	START	n/a	n/a	n/a	-999	7	[-999, -999, -999]	n/a	FR1	0	R1184M
1152.14	14.27	1172444	PROB	14.27	n/a	n/a	-999	7	[5, 4, 6]	15	FR1	0	R1184M
1166.41	4.667	1186713	PROB	4.667	n/a	n/a	-999	7	[2, 5, 1]	8	FR1	0	R1184M
1171.077	7.951	1191380	PROB	7.951	n/a	n/a	-999	7	[5, 6, 7]	18	FR1	0	R1184M
1179.028	0.017	1199331	STOP	n/a	n/a	n/a	-999	7	[-999, -999, -999]	n/a	FR1	0	R1184M
1179.045	0.668	1199348	DISTRACT_END	n/a	n/a	n/a	-999	7	[0, 0, 0]	n/a	FR1	0	R1184M
1179.713	0.517	1200016	RETRIEVAL_ORIENT	n/a	n/a	n/a	-999	7	[0, 0, 0]	n/a	FR1	0	R1184M
1180.23	2.057	1200532	REC_START	n/a	n/a	n/a	-999	7	[0, 0, 0]	n/a	FR1	0	R1184M
1182.287	2.223	1202589	REC_WORD	2.223	n/a	HOOF	-999	7	[0, 0, 0]	n/a	FR1	0	R1184M
1184.51	17.289	1204812	REC_WORD	17.289	n/a	PANTS	-999	7	[0, 0, 0]	n/a	FR1	0	R1184M
1201.799	8.442	1222100	REC_WORD_VV	8.442	n/a	<>	-999	7	[0, 0, 0]	n/a	FR1	0	R1184M
1210.241	13.464	1230542	REC_END	n/a	n/a	n/a	-999	7	[0, 0, 0]	n/a	FR1	0	R1184M
1223.705	0.5	1244005	TRIAL	n/a	n/a	n/a	-999	8	[0, 0, 0]	n/a	FR1	0	R1184M
1224.205	10.428	1244505	COUNTDOWN_START	n/a	n/a	n/a	-999	8	[0, 0, 0]	n/a	FR1	0	R1184M
1234.633	0.008	1254932	COUNTDOWN_END	n/a	n/a	n/a	-999	8	[0, 0, 0]	n/a	FR1	0	R1184M
1234.641	1.616	1254940	ORIENT	n/a	n/a	n/a	-999	8	[0, 0, 0]	n/a	FR1	0	R1184M
1236.257	2.251	1256556	ORIENT_OFF	n/a	n/a	n/a	-999	8	[0, 0, 0]	n/a	FR1	0	R1184M
1238.508	1.616	1258807	WORD	n/a	wordpools/wordpool_EN.txt	FARM	1	8	[0, 0, 0]	n/a	FR1	0	R1184M
1240.124	0.9	1260423	WORD_OFF	n/a	n/a	FARM	1	8	[0, 0, 0]	n/a	FR1	0	R1184M
1241.024	1.601	1261323	WORD	n/a	wordpools/wordpool_EN.txt	SMOKE	2	8	[0, 0, 0]	n/a	FR1	0	R1184M
1242.625	1.017	1262924	WORD_OFF	n/a	n/a	SMOKE	2	8	[0, 0, 0]	n/a	FR1	0	R1184M
1243.642	1.616	1263941	WORD	n/a	wordpools/wordpool_EN.txt	VAN	3	8	[0, 0, 0]	n/a	FR1	0	R1184M
1245.258	0.95	1265557	WORD_OFF	n/a	n/a	VAN	3	8	[0, 0, 0]	n/a	FR1	0	R1184M
1246.208	1.618	1266507	WORD	n/a	wordpools/wordpool_EN.txt	MILK	4	8	[0, 0, 0]	n/a	FR1	0	R1184M
1247.826	0.983	1268125	WORD_OFF	n/a	n/a	MILK	4	8	[0, 0, 0]	n/a	FR1	0	R1184M
1248.809	1.617	1269108	WORD	n/a	wordpools/wordpool_EN.txt	PIPE	5	8	[0, 0, 0]	n/a	FR1	0	R1184M
1250.426	0.95	1270725	WORD_OFF	n/a	n/a	PIPE	5	8	[0, 0, 0]	n/a	FR1	0	R1184M
1251.376	1.617	1271675	WORD	n/a	wordpools/wordpool_EN.txt	WEED	6	8	[0, 0, 0]	n/a	FR1	0	R1184M
1252.993	0.984	1273291	WORD_OFF	n/a	n/a	WEED	6	8	[0, 0, 0]	n/a	FR1	0	R1184M
1253.977	1.618	1274275	WORD	n/a	wordpools/wordpool_EN.txt	BOMB	7	8	[0, 0, 0]	n/a	FR1	0	R1184M
1255.595	1.016	1275893	WORD_OFF	n/a	n/a	BOMB	7	8	[0, 0, 0]	n/a	FR1	0	R1184M
1256.611	1.616	1276909	WORD	n/a	wordpools/wordpool_EN.txt	JAIL	8	8	[0, 0, 0]	n/a	FR1	0	R1184M
1258.227	0.867	1278525	WORD_OFF	n/a	n/a	JAIL	8	8	[0, 0, 0]	n/a	FR1	0	R1184M
1259.094	1.601	1279392	WORD	n/a	wordpools/wordpool_EN.txt	CLOWN	9	8	[0, 0, 0]	n/a	FR1	0	R1184M
1260.695	0.867	1280993	WORD_OFF	n/a	n/a	CLOWN	9	8	[0, 0, 0]	n/a	FR1	0	R1184M
1261.562	1.616	1281860	WORD	n/a	wordpools/wordpool_EN.txt	COIN	10	8	[0, 0, 0]	n/a	FR1	0	R1184M
1263.178	0.867	1283476	WORD_OFF	n/a	n/a	COIN	10	8	[0, 0, 0]	n/a	FR1	0	R1184M
1264.045	1.601	1284343	WORD	n/a	wordpools/wordpool_EN.txt	SOAP	11	8	[0, 0, 0]	n/a	FR1	0	R1184M
1265.646	0.783	1285944	WORD_OFF	n/a	n/a	SOAP	11	8	[0, 0, 0]	n/a	FR1	0	R1184M
1266.429	1.617	1286727	WORD	n/a	wordpools/wordpool_EN.txt	SNOW	12	8	[0, 0, 0]	n/a	FR1	0	R1184M
1268.046	0.0	1288344	DISTRACT_START	n/a	n/a	n/a	-999	8	[0, 0, 0]	n/a	FR1	0	R1184M
1268.046	0.001	1288344	WORD_OFF	n/a	n/a	SNOW	12	8	[0, 0, 0]	n/a	FR1	0	R1184M
1268.047	0.016	1288345	START	n/a	n/a	n/a	-999	8	[-999, -999, -999]	n/a	FR1	0	R1184M
1268.063	9.852	1288361	PROB	9.852	n/a	n/a	-999	8	[6, 8, 2]	16	FR1	0	R1184M
1277.915	10.658	1298212	PROB	10.658	n/a	n/a	-999	8	[9, 7, 1]	16	FR1	0	R1184M
1288.573	0.011	1308869	STOP	n/a	n/a	n/a	-999	8	[-999, -999, -999]	n/a	FR1	0	R1184M
1288.584	0.616	1308880	DISTRACT_END	n/a	n/a	n/a	-999	8	[0, 0, 0]	n/a	FR1	0	R1184M
1289.2	0.518	1309496	RETRIEVAL_ORIENT	n/a	n/a	n/a	-999	8	[0, 0, 0]	n/a	FR1	0	R1184M
1289.718	4.933	1310014	REC_START	n/a	n/a	n/a	-999	8	[0, 0, 0]	n/a	FR1	0	R1184M
1294.651	2.774	1314947	REC_WORD_VV	2.774	n/a	<>	-999	8	[0, 0, 0]	n/a	FR1	0	R1184M
1297.425	1.33	1317721	REC_WORD	1.33	n/a	CLOWN	-999	8	[0, 0, 0]	n/a	FR1	0	R1184M
1298.755	4.644	1319051	REC_WORD	4.644	n/a	HOOF	-999	8	[0, 0, 0]	n/a	FR1	0	R1184M
1303.399	2.1	1323695	REC_WORD_VV	2.1	n/a	<>	-999	8	[0, 0, 0]	n/a	FR1	0	R1184M
1305.499	14.231	1325794	REC_WORD	14.231	n/a	SNOW	-999	8	[0, 0, 0]	n/a	FR1	0	R1184M
1319.73	270.796	1340025	REC_END	n/a	n/a	n/a	-999	8	[0, 0, 0]	n/a	FR1	0	R1184M
1590.526	0.5	1610806	TRIAL	n/a	n/a	n/a	-999	9	[0, 0, 0]	n/a	FR1	0	R1184M
1591.026	10.428	1611305	COUNTDOWN_START	n/a	n/a	n/a	-999	9	[0, 0, 0]	n/a	FR1	0	R1184M
1601.454	0.008	1621733	COUNTDOWN_END	n/a	n/a	n/a	-999	9	[0, 0, 0]	n/a	FR1	0	R1184M
1601.462	1.616	1621741	ORIENT	n/a	n/a	n/a	-999	9	[0, 0, 0]	n/a	FR1	0	R1184M
1603.078	2.317	1623357	ORIENT_OFF	n/a	n/a	n/a	-999	9	[0, 0, 0]	n/a	FR1	0	R1184M
1605.395	1.617	1625674	WORD	n/a	wordpools/wordpool_EN.txt	CLAY	1	9	[0, 0, 0]	n/a	FR1	0	R1184M
1607.012	0.967	1627291	WORD_OFF	n/a	n/a	CLAY	1	9	[0, 0, 0]	n/a	FR1	0	R1184M
1607.979	1.618	1628258	WORD	n/a	wordpools/wordpool_EN.txt	HOUSE	2	9	[0, 0, 0]	n/a	FR1	0	R1184M
1609.597	0.815	1629875	WORD_OFF	n/a	n/a	HOUSE	2	9	[0, 0, 0]	n/a	FR1	0	R1184M
1610.412	1.617	1630690	WORD	n/a	wordpools/wordpool_EN.txt	FENCE	3	9	[0, 0, 0]	n/a	FR1	0	R1184M
1612.029	0.784	1632307	WORD_OFF	n/a	n/a	FENCE	3	9	[0, 0, 0]	n/a	FR1	0	R1184M
1612.813	1.617	1633091	WORD	n/a	wordpools/wordpool_EN.txt	ELF	4	9	[0, 0, 0]	n/a	FR1	0	R1184M
1614.43	0.917	1634708	WORD_OFF	n/a	n/a	ELF	4	9	[0, 0, 0]	n/a	FR1	0	R1184M
1615.347	1.617	1635625	WORD	n/a	wordpools/wordpool_EN.txt	STRING	5	9	[0, 0, 0]	n/a	FR1	0	R1184M
1616.964	1.0	1637242	WORD_OFF	n/a	n/a	STRING	5	9	[0, 0, 0]	n/a	FR1	0	R1184M
1617.964	1.618	1638242	WORD	n/a	wordpools/wordpool_EN.txt	BARN	6	9	[0, 0, 0]	n/a	FR1	0	R1184M
1619.582	0.766	1639860	WORD_OFF	n/a	n/a	BARN	6	9	[0, 0, 0]	n/a	FR1	0	R1184M
1620.348	1.617	1640626	WORD	n/a	wordpools/wordpool_EN.txt	SKI	7	9	[0, 0, 0]	n/a	FR1	0	R1184M
1621.965	0.883	1642243	WORD_OFF	n/a	n/a	SKI	7	9	[0, 0, 0]	n/a	FR1	0	R1184M
1622.848	1.618	1643126	WORD	n/a	wordpools/wordpool_EN.txt	CAT	8	9	[0, 0, 0]	n/a	FR1	0	R1184M
1624.466	0.766	1644744	WORD_OFF	n/a	n/a	CAT	8	9	[0, 0, 0]	n/a	FR1	0	R1184M
1625.232	1.617	1645510	WORD	n/a	wordpools/wordpool_EN.txt	HEN	9	9	[0, 0, 0]	n/a	FR1	0	R1184M
1626.849	0.983	1647126	WORD_OFF	n/a	n/a	HEN	9	9	[0, 0, 0]	n/a	FR1	0	R1184M
1627.832	1.618	1648109	WORD	n/a	wordpools/wordpool_EN.txt	PALM	10	9	[0, 0, 0]	n/a	FR1	0	R1184M
1629.45	0.966	1649727	WORD_OFF	n/a	n/a	PALM	10	9	[0, 0, 0]	n/a	FR1	0	R1184M
1630.416	1.617	1650693	WORD	n/a	wordpools/wordpool_EN.txt	FORT	11	9	[0, 0, 0]	n/a	FR1	0	R1184M
1632.033	0.9	1652310	WORD_OFF	n/a	n/a	FORT	11	9	[0, 0, 0]	n/a	FR1	0	R1184M
1632.933	1.602	1653210	WORD	n/a	wordpools/wordpool_EN.txt	SUN	12	9	[0, 0, 0]	n/a	FR1	0	R1184M
1634.535	0.0	1654812	WORD_OFF	n/a	n/a	SUN	12	9	[0, 0, 0]	n/a	FR1	0	R1184M
1634.535	0.0	1654812	DISTRACT_START	n/a	n/a	n/a	-999	9	[0, 0, 0]	n/a	FR1	0	R1184M
1634.535	0.016	1654812	START	n/a	n/a	n/a	-999	9	[-999, -999, -999]	n/a	FR1	0	R1184M
1634.551	6.284	1654828	PROB	6.284	n/a	n/a	-999	9	[7, 2, 1]	10	FR1	0	R1184M
1640.835	5.886	1661112	PROB	5.886	n/a	n/a	-999	9	[5, 8, 5]	18	FR1	0	R1184M
1646.721	6.984	1666997	PROB	6.984	n/a	n/a	-999	9	[4, 1, 1]	6	FR1	0	R1184M
1653.705	15.476	1673981	PROB	15.476	n/a	n/a	-999	9	[9, 6, 5]	21	FR1	0	R1184M
1669.181	0.009	1689456	STOP	n/a	n/a	n/a	-999	9	[-999, -999, -999]	n/a	FR1	0	R1184M
1669.19	0.634	1689465	DISTRACT_END	n/a	n/a	n/a	-999	9	[0, 0, 0]	n/a	FR1	0	R1184M
1669.824	0.517	1690099	RETRIEVAL_ORIENT	n/a	n/a	n/a	-999	9	[0, 0, 0]	n/a	FR1	0	R1184M
1670.341	6.265	1690616	REC_START	n/a	n/a	n/a	-999	9	[0, 0, 0]	n/a	FR1	0	R1184M
1676.606	0.487	1696881	REC_WORD	0.487	n/a	CLAY	-999	9	[0, 0, 0]	n/a	FR1	0	R1184M
1677.093	0.863	1697368	REC_WORD	0.863	n/a	HEN	-999	9	[0, 0, 0]	n/a	FR1	0	R1184M
1677.956	16.316	1698231	REC_WORD	16.316	n/a	HOUSE	-999	9	[0, 0, 0]	n/a	FR1	0	R1184M
1694.272	6.082	1714546	REC_WORD	6.082	n/a	ELF	-999	9	[0, 0, 0]	n/a	FR1	0	R1184M
1700.354	20.53	1720627	REC_END	n/a	n/a	n/a	-999	9	[0, 0, 0]	n/a	FR1	0	R1184M
1720.884	0.5	1741156	TRIAL	n/a	n/a	n/a	-999	10	[0, 0, 0]	n/a	FR1	0	R1184M
1721.384	10.428	1741656	COUNTDOWN_START	n/a	n/a	n/a	-999	10	[0, 0, 0]	n/a	FR1	0	R1184M
1731.812	0.007	1752084	COUNTDOWN_END	n/a	n/a	n/a	-999	10	[0, 0, 0]	n/a	FR1	0	R1184M
1731.819	1.618	1752091	ORIENT	n/a	n/a	n/a	-999	10	[0, 0, 0]	n/a	FR1	0	R1184M
1733.437	2.017	1753709	ORIENT_OFF	n/a	n/a	n/a	-999	10	[0, 0, 0]	n/a	FR1	0	R1184M
1735.454	1.616	1755725	WORD	n/a	wordpools/wordpool_EN.txt	SNAKE	1	10	[0, 0, 0]	n/a	FR1	0	R1184M
1737.07	0.917	1757341	WORD_OFF	n/a	n/a	SNAKE	1	10	[0, 0, 0]	n/a	FR1	0	R1184M
1737.987	1.601	1758258	WORD	n/a	wordpools/wordpool_EN.txt	PEAR	2	10	[0, 0, 0]	n/a	FR1	0	R1184M
1739.588	0.816	1759859	WORD_OFF	n/a	n/a	PEAR	2	10	[0, 0, 0]	n/a	FR1	0	R1184M
1740.404	1.617	1760675	WORD	n/a	wordpools/wordpool_EN.txt	FLUTE	3	10	[0, 0, 0]	n/a	FR1	0	R1184M
1742.021	1.001	1762292	WORD_OFF	n/a	n/a	FLUTE	3	10	[0, 0, 0]	n/a	FR1	0	R1184M
1743.022	1.617	1763293	WORD	n/a	wordpools/wordpool_EN.txt	TOOL	4	10	[0, 0, 0]	n/a	FR1	0	R1184M
1744.639	0.817	1764910	WORD_OFF	n/a	n/a	TOOL	4	10	[0, 0, 0]	n/a	FR1	0	R1184M
1745.456	1.616	1765727	WORD	n/a	wordpools/wordpool_EN.txt	RAIN	5	10	[0, 0, 0]	n/a	FR1	0	R1184M
1747.072	0.967	1767343	WORD_OFF	n/a	n/a	RAIN	5	10	[0, 0, 0]	n/a	FR1	0	R1184M
1748.039	1.618	1768310	WORD	n/a	wordpools/wordpool_EN.txt	INK	6	10	[0, 0, 0]	n/a	FR1	0	R1184M
1749.657	0.95	1769928	WORD_OFF	n/a	n/a	INK	6	10	[0, 0, 0]	n/a	FR1	0	R1184M
1750.607	1.616	1770878	WORD	n/a	wordpools/wordpool_EN.txt	CLOCK	7	10	[0, 0, 0]	n/a	FR1	0	R1184M
1752.223	0.95	1772493	WORD_OFF	n/a	n/a	CLOCK	7	10	[0, 0, 0]	n/a	FR1	0	R1184M
1753.173	1.617	1773443	WORD	n/a	wordpools/wordpool_EN.txt	GRAPE	8	10	[0, 0, 0]	n/a	FR1	0	R1184M
1754.79	0.967	1775060	WORD_OFF	n/a	n/a	GRAPE	8	10	[0, 0, 0]	n/a	FR1	0	R1184M
1755.757	1.617	1776027	WORD	n/a	wordpools/wordpool_EN.txt	BED	9	10	[0, 0, 0]	n/a	FR1	0	R1184M
1757.374	0.884	1777644	WORD_OFF	n/a	n/a	BED	9	10	[0, 0, 0]	n/a	FR1	0	R1184M
1758.258	1.617	1778528	WORD	n/a	wordpools/wordpool_EN.txt	BOY	10	10	[0, 0, 0]	n/a	FR1	0	R1184M
1759.875	0.883	1780145	WORD_OFF	n/a	n/a	BOY	10	10	[0, 0, 0]	n/a	FR1	0	R1184M
1760.758	1.617	1781028	WORD	n/a	wordpools/wordpool_EN.txt	FOAM	11	10	[0, 0, 0]	n/a	FR1	0	R1184M
1762.375	0.917	1782645	WORD_OFF	n/a	n/a	FOAM	11	10	[0, 0, 0]	n/a	FR1	0	R1184M
1763.292	1.617	1783562	WORD	n/a	wordpools/wordpool_EN.txt	BRUSH	12	10	[0, 0, 0]	n/a	FR1	0	R1184M
1764.909	0.0	1785179	WORD_OFF	n/a	n/a	BRUSH	12	10	[0, 0, 0]	n/a	FR1	0	R1184M
1764.909	0.001	1785179	DISTRACT_START	n/a	n/a	n/a	-999	10	[0, 0, 0]	n/a	FR1	0	R1184M
1764.91	0.016	1785180	START	n/a	n/a	n/a	-999	10	[-999, -999, -999]	n/a	FR1	0	R1184M
1764.926	5.618	1785196	PROB	5.618	n/a	n/a	-999	10	[2, 9, 1]	12	FR1	0	R1184M
1770.544	6.002	1790813	PROB	6.002	n/a	n/a	-999	10	[7, 7, 5]	16	FR1	0	R1184M
1776.546	5.084	1796815	PROB	5.084	n/a	n/a	-999	10	[5, 4, 2]	11	FR1	0	R1184M
1781.63	5.999	1801899	PROB	5.999	n/a	n/a	-999	10	[6, 4, 6]	16	FR1	0	R1184M
1787.629	0.019	1807897	STOP	n/a	n/a	n/a	-999	10	[-999, -999, -999]	n/a	FR1	0	R1184M
1787.648	0.632	1807916	DISTRACT_END	n/a	n/a	n/a	-999	10	[0, 0, 0]	n/a	FR1	0	R1184M
1788.28	0.518	1808548	RETRIEVAL_ORIENT	n/a	n/a	n/a	-999	10	[0, 0, 0]	n/a	FR1	0	R1184M
1788.798	5.166	1809066	REC_START	n/a	n/a	n/a	-999	10	[0, 0, 0]	n/a	FR1	0	R1184M
1793.964	0.837	1814232	REC_WORD	0.837	n/a	SNAKE	-999	10	[0, 0, 0]	n/a	FR1	0	R1184M
1794.801	2.506	1815069	REC_WORD	2.506	n/a	TOOL	-999	10	[0, 0, 0]	n/a	FR1	0	R1184M
1797.307	1.247	1817575	REC_WORD	1.247	n/a	BED	-999	10	[0, 0, 0]	n/a	FR1	0	R1184M
1798.554	2.512	1818822	REC_WORD	2.512	n/a	BOY	-999	10	[0, 0, 0]	n/a	FR1	0	R1184M
1801.066	5.573	1821334	REC_WORD	5.573	n/a	CLOCK	-999	10	[0, 0, 0]	n/a	FR1	0	R1184M
1806.639	12.171	1826906	REC_WORD_VV	12.171	n/a	<>	-999	10	[0, 0, 0]	n/a	FR1	0	R1184M
1818.81	16.112	1839077	REC_END	n/a	n/a	n/a	-999	10	[0, 0, 0]	n/a	FR1	0	R1184M
1834.922	0.5	1855188	TRIAL	n/a	n/a	n/a	-999	11	[0, 0, 0]	n/a	FR1	0	R1184M
1835.422	10.428	1855688	COUNTDOWN_START	n/a	n/a	n/a	-999	11	[0, 0, 0]	n/a	FR1	0	R1184M
1845.85	0.008	1866115	COUNTDOWN_END	n/a	n/a	n/a	-999	11	[0, 0, 0]	n/a	FR1	0	R1184M
1845.858	1.618	1866123	ORIENT	n/a	n/a	n/a	-999	11	[0, 0, 0]	n/a	FR1	0	R1184M
1847.476	2.084	1867741	ORIENT_OFF	n/a	n/a	n/a	-999	11	[0, 0, 0]	n/a	FR1	0	R1184M
1849.56	1.616	1869825	WORD	n/a	wordpools/wordpool_EN.txt	FOG	1	11	[0, 0, 0]	n/a	FR1	0	R1184M
1851.176	0.933	1871441	WORD_OFF	n/a	n/a	FOG	1	11	[0, 0, 0]	n/a	FR1	0	R1184M
1852.109	1.618	1872374	WORD	n/a	wordpools/wordpool_EN.txt	LOCK	2	11	[0, 0, 0]	n/a	FR1	0	R1184M
1853.727	0.917	1873992	WORD_OFF	n/a	n/a	LOCK	2	11	[0, 0, 0]	n/a	FR1	0	R1184M
1854.644	1.616	1874909	WORD	n/a	wordpools/wordpool_EN.txt	BATH	3	11	[0, 0, 0]	n/a	FR1	0	R1184M
1856.26	0.884	1876525	WORD_OFF	n/a	n/a	BATH	3	11	[0, 0, 0]	n/a	FR1	0	R1184M
1857.144	1.617	1877409	WORD	n/a	wordpools/wordpool_EN.txt	SHIP	4	11	[0, 0, 0]	n/a	FR1	0	R1184M
1858.761	0.817	1879025	WORD_OFF	n/a	n/a	SHIP	4	11	[0, 0, 0]	n/a	FR1	0	R1184M
1859.578	1.616	1879842	WORD	n/a	wordpools/wordpool_EN.txt	FOOD	5	11	[0, 0, 0]	n/a	FR1	0	R1184M
1861.194	0.901	1881458	WORD_OFF	n/a	n/a	FOOD	5	11	[0, 0, 0]	n/a	FR1	0	R1184M
1862.095	1.618	1882359	WORD	n/a	wordpools/wordpool_EN.txt	LAMP	6	11	[0, 0, 0]	n/a	FR1	0	R1184M
1863.713	0.966	1883977	WORD_OFF	n/a	n/a	LAMP	6	11	[0, 0, 0]	n/a	FR1	0	R1184M
1864.679	1.616	1884943	WORD	n/a	wordpools/wordpool_EN.txt	SPOON	7	11	[0, 0, 0]	n/a	FR1	0	R1184M
1866.295	0.967	1886559	WORD_OFF	n/a	n/a	SPOON	7	11	[0, 0, 0]	n/a	FR1	0	R1184M
1867.262	1.617	1887526	WORD	n/a	wordpools/wordpool_EN.txt	STREET	8	11	[0, 0, 0]	n/a	FR1	0	R1184M
1868.879	0.901	1889143	WORD_OFF	n/a	n/a	STREET	8	11	[0, 0, 0]	n/a	FR1	0	R1184M
1869.78	1.616	1890044	WORD	n/a	wordpools/wordpool_EN.txt	GLOVE	9	11	[0, 0, 0]	n/a	FR1	0	R1184M
1871.396	0.984	1891660	WORD_OFF	n/a	n/a	GLOVE	9	11	[0, 0, 0]	n/a	FR1	0	R1184M
1872.38	1.617	1892644	WORD	n/a	wordpools/wordpool_EN.txt	WAND	10	11	[0, 0, 0]	n/a	FR1	0	R1184M
1873.997	0.8	1894261	WORD_OFF	n/a	n/a	WAND	10	11	[0, 0, 0]	n/a	FR1	0	R1184M
1874.797	1.617	1895061	WORD	n/a	wordpools/wordpool_EN.txt	DEER	11	11	[0, 0, 0]	n/a	FR1	0	R1184M
1876.414	0.867	1896677	WORD_OFF	n/a	n/a	DEER	11	11	[0, 0, 0]	n/a	FR1	0	R1184M
1877.281	1.617	1897544	WORD	n/a	wordpools/wordpool_EN.txt	JET	12	11	[0, 0, 0]	n/a	FR1	0	R1184M
1878.898	0.0	1899161	WORD_OFF	n/a	n/a	JET	12	11	[0, 0, 0]	n/a	FR1	0	R1184M
1878.898	0.0	1899161	DISTRACT_START	n/a	n/a	n/a	-999	11	[0, 0, 0]	n/a	FR1	0	R1184M
1878.898	0.017	1899161	START	n/a	n/a	n/a	-999	11	[-999, -999, -999]	n/a	FR1	0	R1184M
1878.915	11.753	1899178	PROB	11.753	n/a	n/a	-999	11	[3, 4, 5]	12	FR1	0	R1184M
1890.668	8.15	1910931	PROB	8.15	n/a	n/a	-999	11	[6, 1, 8]	15	FR1	0	R1184M
1898.818	9.835	1919080	PROB	9.835	n/a	n/a	-999	11	[4, 5, 5]	14	FR1	0	R1184M
1908.653	0.018	1928915	STOP	n/a	n/a	n/a	-999	11	[-999, -999, -999]	n/a	FR1	0	R1184M
1908.671	0.699	1928933	DISTRACT_END	n/a	n/a	n/a	-999	11	[0, 0, 0]	n/a	FR1	0	R1184M
1909.37	0.518	1929632	RETRIEVAL_ORIENT	n/a	n/a	n/a	-999	11	[0, 0, 0]	n/a	FR1	0	R1184M
1909.888	2.143	1930150	REC_START	n/a	n/a	n/a	-999	11	[0, 0, 0]	n/a	FR1	0	R1184M
1912.031	1.369	1932292	REC_WORD	1.369	n/a	SNAKE	-999	11	[0, 0, 0]	n/a	FR1	0	R1184M
1913.4	2.475	1933661	REC_WORD	2.475	n/a	LOCK	-999	11	[0, 0, 0]	n/a	FR1	0	R1184M
1915.875	2.813	1936136	REC_WORD	2.813	n/a	BED	-999	11	[0, 0, 0]	n/a	FR1	0	R1184M
1918.688	8.65	1938949	REC_WORD	8.65	n/a	DEER	-999	11	[0, 0, 0]	n/a	FR1	0	R1184M
1927.338	0.741	1947599	REC_WORD	0.741	n/a	CLOCK	-999	11	[0, 0, 0]	n/a	FR1	0	R1184M
1928.079	8.53	1948340	REC_WORD	8.53	n/a	BOY	-999	11	[0, 0, 0]	n/a	FR1	0	R1184M
1936.609	3.291	1956869	REC_WORD	3.291	n/a	SPOON	-999	11	[0, 0, 0]	n/a	FR1	0	R1184M
1939.9	14.079	1960160	REC_END	n/a	n/a	n/a	-999	11	[0, 0, 0]	n/a	FR1	0	R1184M
1953.979	0.5	1974238	TRIAL	n/a	n/a	n/a	-999	12	[0, 0, 0]	n/a	FR1	0	R1184M
1954.479	10.428	1974738	COUNTDOWN_START	n/a	n/a	n/a	-999	12	[0, 0, 0]	n/a	FR1	0	R1184M
1964.907	0.008	1985166	COUNTDOWN_END	n/a	n/a	n/a	-999	12	[0, 0, 0]	n/a	FR1	0	R1184M
1964.915	1.617	1985174	ORIENT	n/a	n/a	n/a	-999	12	[0, 0, 0]	n/a	FR1	0	R1184M
1966.532	2.134	1986790	ORIENT_OFF	n/a	n/a	n/a	-999	12	[0, 0, 0]	n/a	FR1	0	R1184M
1968.666	1.616	1988924	WORD	n/a	wordpools/wordpool_EN.txt	TAIL	1	12	[0, 0, 0]	n/a	FR1	0	R1184M
1970.282	0.834	1990540	WORD_OFF	n/a	n/a	TAIL	1	12	[0, 0, 0]	n/a	FR1	0	R1184M
1971.116	1.601	1991374	WORD	n/a	wordpools/wordpool_EN.txt	EEL	2	12	[0, 0, 0]	n/a	FR1	0	R1184M
1972.717	0.934	1992975	WORD_OFF	n/a	n/a	EEL	2	12	[0, 0, 0]	n/a	FR1	0	R1184M
1973.651	1.616	1993909	WORD	n/a	wordpools/wordpool_EN.txt	ROSE	3	12	[0, 0, 0]	n/a	FR1	0	R1184M
1975.267	0.799	1995525	WORD_OFF	n/a	n/a	ROSE	3	12	[0, 0, 0]	n/a	FR1	0	R1184M
1976.066	1.602	1996324	WORD	n/a	wordpools/wordpool_EN.txt	FISH	4	12	[0, 0, 0]	n/a	FR1	0	R1184M
1977.668	1.0	1997926	WORD_OFF	n/a	n/a	FISH	4	12	[0, 0, 0]	n/a	FR1	0	R1184M
1978.668	1.616	1998926	WORD	n/a	wordpools/wordpool_EN.txt	BIRD	5	12	[0, 0, 0]	n/a	FR1	0	R1184M
1980.284	0.8	2000542	WORD_OFF	n/a	n/a	BIRD	5	12	[0, 0, 0]	n/a	FR1	0	R1184M
1981.084	1.618	2001342	WORD	n/a	wordpools/wordpool_EN.txt	MAIL	6	12	[0, 0, 0]	n/a	FR1	0	R1184M
1982.702	0.951	2002960	WORD_OFF	n/a	n/a	MAIL	6	12	[0, 0, 0]	n/a	FR1	0	R1184M
1983.653	1.615	2003910	WORD	n/a	wordpools/wordpool_EN.txt	DOCK	7	12	[0, 0, 0]	n/a	FR1	0	R1184M
1985.268	0.784	2005525	WORD_OFF	n/a	n/a	DOCK	7	12	[0, 0, 0]	n/a	FR1	0	R1184M
1986.052	1.618	2006309	WORD	n/a	wordpools/wordpool_EN.txt	JUICE	8	12	[0, 0, 0]	n/a	FR1	0	R1184M
1987.67	0.8	2007927	WORD_OFF	n/a	n/a	JUICE	8	12	[0, 0, 0]	n/a	FR1	0	R1184M
1988.47	1.616	2008727	WORD	n/a	wordpools/wordpool_EN.txt	STOOL	9	12	[0, 0, 0]	n/a	FR1	0	R1184M
1990.086	0.8	2010343	WORD_OFF	n/a	n/a	STOOL	9	12	[0, 0, 0]	n/a	FR1	0	R1184M
1990.886	1.601	2011143	WORD	n/a	wordpools/wordpool_EN.txt	CALF	10	12	[0, 0, 0]	n/a	FR1	0	R1184M
1992.487	0.933	2012744	WORD_OFF	n/a	n/a	CALF	10	12	[0, 0, 0]	n/a	FR1	0	R1184M
1993.42	1.617	2013677	WORD	n/a	wordpools/wordpool_EN.txt	EAR	11	12	[0, 0, 0]	n/a	FR1	0	R1184M
1995.037	0.95	2015294	WORD_OFF	n/a	n/a	EAR	11	12	[0, 0, 0]	n/a	FR1	0	R1184M
1995.987	1.601	2016244	WORD	n/a	wordpools/wordpool_EN.txt	PLANE	12	12	[0, 0, 0]	n/a	FR1	0	R1184M
1997.588	0.0	2017845	WORD_OFF	n/a	n/a	PLANE	12	12	[0, 0, 0]	n/a	FR1	0	R1184M
1997.588	0.001	2017845	DISTRACT_START	n/a	n/a	n/a	-999	12	[0, 0, 0]	n/a	FR1	0	R1184M
1997.589	0.016	2017846	START	n/a	n/a	n/a	-999	12	[-999, -999, -999]	n/a	FR1	0	R1184M
1997.605	8.251	2017862	PROB	8.251	n/a	n/a	-999	12	[8, 9, 1]	18	FR1	0	R1184M
2005.856	21.63	2026112	PROB	21.63	n/a	n/a	-999	12	[3, 7, 2]	12	FR1	0	R1184M
2027.486	0.008	2047741	STOP	n/a	n/a	n/a	-999	12	[-999, -999, -999]	n/a	FR1	0	R1184M
2027.494	0.566	2047749	DISTRACT_END	n/a	n/a	n/a	-999	12	[0, 0, 0]	n/a	FR1	0	R1184M
2028.06	0.502	2048315	RETRIEVAL_ORIENT	n/a	n/a	n/a	-999	12	[0, 0, 0]	n/a	FR1	0	R1184M
2028.562	1.358	2048817	REC_START	n/a	n/a	n/a	-999	12	[0, 0, 0]	n/a	FR1	0	R1184M
2029.92	0.534	2050175	REC_WORD	0.534	n/a	TAIL	-999	12	[0, 0, 0]	n/a	FR1	0	R1184M
2030.454	2.152	2050709	REC_WORD	2.152	n/a	EEL	-999	12	[0, 0, 0]	n/a	FR1	0	R1184M
2032.606	3.693	2052861	REC_WORD_VV	3.693	n/a	<>	-999	12	[0, 0, 0]	n/a	FR1	0	R1184M
2036.299	0.696	2056554	REC_WORD	0.696	n/a	ROSE	-999	12	[0, 0, 0]	n/a	FR1	0	R1184M
2036.995	6.927	2057249	REC_WORD	6.927	n/a	BIRD	-999	12	[0, 0, 0]	n/a	FR1	0	R1184M
2043.922	14.65	2064176	REC_WORD_VV	14.65	n/a	<>	-999	12	[0, 0, 0]	n/a	FR1	0	R1184M
2058.572	16.031	2078825	REC_END	n/a	n/a	n/a	-999	12	[0, 0, 0]	n/a	FR1	0	R1184M
2074.603	0.5	2094855	TRIAL	n/a	n/a	n/a	-999	13	[0, 0, 0]	n/a	FR1	0	R1184M
2075.103	10.428	2095355	COUNTDOWN_START	n/a	n/a	n/a	-999	13	[0, 0, 0]	n/a	FR1	0	R1184M
2085.531	0.008	2105783	COUNTDOWN_END	n/a	n/a	n/a	-999	13	[0, 0, 0]	n/a	FR1	0	R1184M
2085.539	1.616	2105791	ORIENT	n/a	n/a	n/a	-999	13	[0, 0, 0]	n/a	FR1	0	R1184M
2087.155	1.967	2107407	ORIENT_OFF	n/a	n/a	n/a	-999	13	[0, 0, 0]	n/a	FR1	0	R1184M
2089.122	1.617	2109374	WORD	n/a	wordpools/wordpool_EN.txt	OAK	1	13	[0, 0, 0]	n/a	FR1	0	R1184M
2090.739	0.818	2110990	WORD_OFF	n/a	n/a	OAK	1	13	[0, 0, 0]	n/a	FR1	0	R1184M
2091.557	1.616	2111808	WORD	n/a	wordpools/wordpool_EN.txt	SHRIMP	2	13	[0, 0, 0]	n/a	FR1	0	R1184M
2093.173	0.917	2113424	WORD_OFF	n/a	n/a	SHRIMP	2	13	[0, 0, 0]	n/a	FR1	0	R1184M
2094.09	1.618	2114341	WORD	n/a	wordpools/wordpool_EN.txt	HORN	3	13	[0, 0, 0]	n/a	FR1	0	R1184M
2095.708	0.866	2115959	WORD_OFF	n/a	n/a	HORN	3	13	[0, 0, 0]	n/a	FR1	0	R1184M
2096.574	1.616	2116825	WORD	n/a	wordpools/wordpool_EN.txt	KITE	4	13	[0, 0, 0]	n/a	FR1	0	R1184M
2098.19	0.901	2118441	WORD_OFF	n/a	n/a	KITE	4	13	[0, 0, 0]	n/a	FR1	0	R1184M
2099.091	1.618	2119342	WORD	n/a	wordpools/wordpool_EN.txt	CHIN	5	13	[0, 0, 0]	n/a	FR1	0	R1184M
2100.709	0.783	2120960	WORD_OFF	n/a	n/a	CHIN	5	13	[0, 0, 0]	n/a	FR1	0	R1184M
2101.492	1.616	2121743	WORD	n/a	wordpools/wordpool_EN.txt	WHEEL	6	13	[0, 0, 0]	n/a	FR1	0	R1184M
2103.108	0.9	2123359	WORD_OFF	n/a	n/a	WHEEL	6	13	[0, 0, 0]	n/a	FR1	0	R1184M
2104.008	1.618	2124259	WORD	n/a	wordpools/wordpool_EN.txt	DOG	7	13	[0, 0, 0]	n/a	FR1	0	R1184M
2105.626	0.984	2125877	WORD_OFF	n/a	n/a	DOG	7	13	[0, 0, 0]	n/a	FR1	0	R1184M
2106.61	1.616	2126861	WORD	n/a	wordpools/wordpool_EN.txt	SPRING	8	13	[0, 0, 0]	n/a	FR1	0	R1184M
2108.226	0.9	2128477	WORD_OFF	n/a	n/a	SPRING	8	13	[0, 0, 0]	n/a	FR1	0	R1184M
2109.126	1.617	2129376	WORD	n/a	wordpools/wordpool_EN.txt	TRUCK	9	13	[0, 0, 0]	n/a	FR1	0	R1184M
2110.743	1.0	2130993	WORD_OFF	n/a	n/a	TRUCK	9	13	[0, 0, 0]	n/a	FR1	0	R1184M
2111.743	1.617	2131993	WORD	n/a	wordpools/wordpool_EN.txt	BOWL	10	13	[0, 0, 0]	n/a	FR1	0	R1184M
2113.36	0.8	2133610	WORD_OFF	n/a	n/a	BOWL	10	13	[0, 0, 0]	n/a	FR1	0	R1184M
2114.16	1.617	2134410	WORD	n/a	wordpools/wordpool_EN.txt	OWL	11	13	[0, 0, 0]	n/a	FR1	0	R1184M
2115.777	0.785	2136027	WORD_OFF	n/a	n/a	OWL	11	13	[0, 0, 0]	n/a	FR1	0	R1184M
2116.562	1.616	2136812	WORD	n/a	wordpools/wordpool_EN.txt	BOX	12	13	[0, 0, 0]	n/a	FR1	0	R1184M
2118.178	0.0	2138428	WORD_OFF	n/a	n/a	BOX	12	13	[0, 0, 0]	n/a	FR1	0	R1184M
2118.178	0.0	2138428	DISTRACT_START	n/a	n/a	n/a	-999	13	[0, 0, 0]	n/a	FR1	0	R1184M
2118.178	0.016	2138428	START	n/a	n/a	n/a	-999	13	[-999, -999, -999]	n/a	FR1	0	R1184M
2118.194	6.269	2138444	PROB	6.269	n/a	n/a	-999	13	[1, 8, 1]	10	FR1	0	R1184M
2124.463	6.767	2144713	PROB	6.767	n/a	n/a	-999	13	[1, 7, 5]	13	FR1	0	R1184M
2131.23	5.585	2151479	PROB	5.585	n/a	n/a	-999	13	[9, 1, 2]	13	FR1	0	R1184M
2136.815	13.19	2157064	PROB	13.19	n/a	n/a	-999	13	[2, 7, 6]	14	FR1	0	R1184M
2150.005	0.012	2170253	STOP	n/a	n/a	n/a	-999	13	[-999, -999, -999]	n/a	FR1	0	R1184M
2150.017	0.518	2170265	DISTRACT_END	n/a	n/a	n/a	-999	13	[0, 0, 0]	n/a	FR1	0	R1184M
2150.535	0.516	2170783	RETRIEVAL_ORIENT	n/a	n/a	n/a	-999	13	[0, 0, 0]	n/a	FR1	0	R1184M
2151.051	2.89	2171299	REC_START	n/a	n/a	n/a	-999	13	[0, 0, 0]	n/a	FR1	0	R1184M
2153.941	4.795	2174189	REC_WORD_VV	4.795	n/a	<>	-999	13	[0, 0, 0]	n/a	FR1	0	R1184M
2158.736	0.416	2178984	REC_WORD	0.416	n/a	OAK	-999	13	[0, 0, 0]	n/a	FR1	0	R1184M
2159.152	0.862	2179400	REC_WORD	0.862	n/a	SHRIMP	-999	13	[0, 0, 0]	n/a	FR1	0	R1184M
2160.014	0.66	2180262	REC_WORD	0.66	n/a	TAIL	-999	13	[0, 0, 0]	n/a	FR1	0	R1184M
2160.674	0.577	2180922	REC_WORD	0.577	n/a	HORN	-999	13	[0, 0, 0]	n/a	FR1	0	R1184M
2161.251	19.811	2181499	REC_WORD	19.811	n/a	TRUCK	-999	13	[0, 0, 0]	n/a	FR1	0	R1184M
2181.062	28.083	2201308	REC_END	n/a	n/a	n/a	-999	13	[0, 0, 0]	n/a	FR1	0	R1184M
2209.145	0.5	2229390	TRIAL	n/a	n/a	n/a	-999	14	[0, 0, 0]	n/a	FR1	0	R1184M
2209.645	10.428	2229890	COUNTDOWN_START	n/a	n/a	n/a	-999	14	[0, 0, 0]	n/a	FR1	0	R1184M
2220.073	0.008	2240317	COUNTDOWN_END	n/a	n/a	n/a	-999	14	[0, 0, 0]	n/a	FR1	0	R1184M
2220.081	1.618	2240325	ORIENT	n/a	n/a	n/a	-999	14	[0, 0, 0]	n/a	FR1	0	R1184M
2221.699	2.233	2241943	ORIENT_OFF	n/a	n/a	n/a	-999	14	[0, 0, 0]	n/a	FR1	0	R1184M
2223.932	1.618	2244176	WORD	n/a	wordpools/wordpool_EN.txt	STEAK	1	14	[0, 0, 0]	n/a	FR1	0	R1184M
2225.55	0.933	2245794	WORD_OFF	n/a	n/a	STEAK	1	14	[0, 0, 0]	n/a	FR1	0	R1184M
2226.483	1.616	2246727	WORD	n/a	wordpools/wordpool_EN.txt	CUBE	2	14	[0, 0, 0]	n/a	FR1	0	R1184M
2228.099	0.934	2248343	WORD_OFF	n/a	n/a	CUBE	2	14	[0, 0, 0]	n/a	FR1	0	R1184M
2229.033	1.617	2249277	WORD	n/a	wordpools/wordpool_EN.txt	GLASS	3	14	[0, 0, 0]	n/a	FR1	0	R1184M
2230.65	0.951	2250894	WORD_OFF	n/a	n/a	GLASS	3	14	[0, 0, 0]	n/a	FR1	0	R1184M
2231.601	1.616	2251845	WORD	n/a	wordpools/wordpool_EN.txt	STICK	4	14	[0, 0, 0]	n/a	FR1	0	R1184M
2233.217	0.8	2253461	WORD_OFF	n/a	n/a	STICK	4	14	[0, 0, 0]	n/a	FR1	0	R1184M
2234.017	1.618	2254260	WORD	n/a	wordpools/wordpool_EN.txt	TOOTH	5	14	[0, 0, 0]	n/a	FR1	0	R1184M
2235.635	0.917	2255878	WORD_OFF	n/a	n/a	TOOTH	5	14	[0, 0, 0]	n/a	FR1	0	R1184M
2236.552	1.616	2256795	WORD	n/a	wordpools/wordpool_EN.txt	GOLD	6	14	[0, 0, 0]	n/a	FR1	0	R1184M
2238.168	0.85	2258411	WORD_OFF	n/a	n/a	GOLD	6	14	[0, 0, 0]	n/a	FR1	0	R1184M
2239.018	1.618	2259261	WORD	n/a	wordpools/wordpool_EN.txt	NAIL	7	14	[0, 0, 0]	n/a	FR1	0	R1184M
2240.636	0.983	2260879	WORD_OFF	n/a	n/a	NAIL	7	14	[0, 0, 0]	n/a	FR1	0	R1184M
2241.619	1.616	2261862	WORD	n/a	wordpools/wordpool_EN.txt	GUARD	8	14	[0, 0, 0]	n/a	FR1	0	R1184M
2243.235	0.9	2263478	WORD_OFF	n/a	n/a	GUARD	8	14	[0, 0, 0]	n/a	FR1	0	R1184M
2244.135	1.617	2264378	WORD	n/a	wordpools/wordpool_EN.txt	RAKE	9	14	[0, 0, 0]	n/a	FR1	0	R1184M
2245.752	0.852	2265995	WORD_OFF	n/a	n/a	RAKE	9	14	[0, 0, 0]	n/a	FR1	0	R1184M
2246.604	1.616	2266847	WORD	n/a	wordpools/wordpool_EN.txt	SIGN	10	14	[0, 0, 0]	n/a	FR1	0	R1184M
2248.22	0.95	2268463	WORD_OFF	n/a	n/a	SIGN	10	14	[0, 0, 0]	n/a	FR1	0	R1184M
2249.17	1.617	2269413	WORD	n/a	wordpools/wordpool_EN.txt	FORK	11	14	[0, 0, 0]	n/a	FR1	0	R1184M
2250.787	0.768	2271030	WORD_OFF	n/a	n/a	FORK	11	14	[0, 0, 0]	n/a	FR1	0	R1184M
2251.555	1.616	2271797	WORD	n/a	wordpools/wordpool_EN.txt	BROOM	12	14	[0, 0, 0]	n/a	FR1	0	R1184M
2253.171	0.0	2273413	WORD_OFF	n/a	n/a	BROOM	12	14	[0, 0, 0]	n/a	FR1	0	R1184M
2253.171	0.0	2273413	DISTRACT_START	n/a	n/a	n/a	-999	14	[0, 0, 0]	n/a	FR1	0	R1184M
2253.171	0.016	2273413	START	n/a	n/a	n/a	-999	14	[-999, -999, -999]	n/a	FR1	0	R1184M
2253.187	14.703	2273429	PROB	14.703	n/a	n/a	-999	14	[6, 3, 4]	13	FR1	0	R1184M
2267.89	2.702	2288132	PROB	2.702	n/a	n/a	-999	14	[2, 1, 1]	4	FR1	0	R1184M
2270.592	7.196	2290833	PROB	7.196	n/a	n/a	-999	14	[2, 7, 8]	17	FR1	0	R1184M
2277.788	0.021	2298029	STOP	n/a	n/a	n/a	-999	14	[-999, -999, -999]	n/a	FR1	0	R1184M
2277.809	0.701	2298050	DISTRACT_END	n/a	n/a	n/a	-999	14	[0, 0, 0]	n/a	FR1	0	R1184M
2278.51	0.516	2298751	RETRIEVAL_ORIENT	n/a	n/a	n/a	-999	14	[0, 0, 0]	n/a	FR1	0	R1184M
2279.026	1.978	2299267	REC_START	n/a	n/a	n/a	-999	14	[0, 0, 0]	n/a	FR1	0	R1184M
2281.004	1.08	2301245	REC_WORD	1.08	n/a	STEAK	-999	14	[0, 0, 0]	n/a	FR1	0	R1184M
2282.084	0.73	2302325	REC_WORD	0.73	n/a	GOLD	-999	14	[0, 0, 0]	n/a	FR1	0	R1184M
2282.814	7.627	2303055	REC_WORD	7.627	n/a	NAIL	-999	14	[0, 0, 0]	n/a	FR1	0	R1184M
2290.441	18.597	2310681	REC_WORD	18.597	n/a	SHRIMP	-999	14	[0, 0, 0]	n/a	FR1	0	R1184M
2309.038	14.746	2329277	REC_END	n/a	n/a	n/a	-999	14	[0, 0, 0]	n/a	FR1	0	R1184M
2323.784	0.5	2344022	TRIAL	n/a	n/a	n/a	-999	15	[0, 0, 0]	n/a	FR1	0	R1184M
2324.284	10.428	2344522	COUNTDOWN_START	n/a	n/a	n/a	-999	15	[0, 0, 0]	n/a	FR1	0	R1184M
2334.712	0.009	2354950	COUNTDOWN_END	n/a	n/a	n/a	-999	15	[0, 0, 0]	n/a	FR1	0	R1184M
2334.721	1.616	2354959	ORIENT	n/a	n/a	n/a	-999	15	[0, 0, 0]	n/a	FR1	0	R1184M
2336.337	1.883	2356575	ORIENT_OFF	n/a	n/a	n/a	-999	15	[0, 0, 0]	n/a	FR1	0	R1184M
2338.22	1.617	2358458	WORD	n/a	wordpools/wordpool_EN.txt	SLEEVE	1	15	[0, 0, 0]	n/a	FR1	0	R1184M
2339.837	0.934	2360075	WORD_OFF	n/a	n/a	SLEEVE	1	15	[0, 0, 0]	n/a	FR1	0	R1184M
2340.771	1.617	2361008	WORD	n/a	wordpools/wordpool_EN.txt	BRICK	2	15	[0, 0, 0]	n/a	FR1	0	R1184M
2342.388	1.0	2362625	WORD_OFF	n/a	n/a	BRICK	2	15	[0, 0, 0]	n/a	FR1	0	R1184M
2343.388	1.617	2363625	WORD	n/a	wordpools/wordpool_EN.txt	JEEP	3	15	[0, 0, 0]	n/a	FR1	0	R1184M
2345.005	0.967	2365242	WORD_OFF	n/a	n/a	JEEP	3	15	[0, 0, 0]	n/a	FR1	0	R1184M
2345.972	1.618	2366209	WORD	n/a	wordpools/wordpool_EN.txt	DUCK	4	15	[0, 0, 0]	n/a	FR1	0	R1184M
2347.59	0.799	2367827	WORD_OFF	n/a	n/a	DUCK	4	15	[0, 0, 0]	n/a	FR1	0	R1184M
2348.389	1.617	2368626	WORD	n/a	wordpools/wordpool_EN.txt	SLIME	5	15	[0, 0, 0]	n/a	FR1	0	R1184M
2350.006	0.984	2370243	WORD_OFF	n/a	n/a	SLIME	5	15	[0, 0, 0]	n/a	FR1	0	R1184M
2350.99	1.618	2371227	WORD	n/a	wordpools/wordpool_EN.txt	FLAME	6	15	[0, 0, 0]	n/a	FR1	0	R1184M
2352.608	0.883	2372845	WORD_OFF	n/a	n/a	FLAME	6	15	[0, 0, 0]	n/a	FR1	0	R1184M
2353.491	1.616	2373728	WORD	n/a	wordpools/wordpool_EN.txt	SWAMP	7	15	[0, 0, 0]	n/a	FR1	0	R1184M
2355.107	0.767	2375344	WORD_OFF	n/a	n/a	SWAMP	7	15	[0, 0, 0]	n/a	FR1	0	R1184M
2355.874	1.601	2376111	WORD	n/a	wordpools/wordpool_EN.txt	DESK	8	15	[0, 0, 0]	n/a	FR1	0	R1184M
2357.475	0.883	2377712	WORD_OFF	n/a	n/a	DESK	8	15	[0, 0, 0]	n/a	FR1	0	R1184M
2358.358	1.617	2378594	WORD	n/a	wordpools/wordpool_EN.txt	BOAT	9	15	[0, 0, 0]	n/a	FR1	0	R1184M
2359.975	0.816	2380211	WORD_OFF	n/a	n/a	BOAT	9	15	[0, 0, 0]	n/a	FR1	0	R1184M
2360.791	1.617	2381027	WORD	n/a	wordpools/wordpool_EN.txt	STRAW	10	15	[0, 0, 0]	n/a	FR1	0	R1184M
2362.408	0.967	2382644	WORD_OFF	n/a	n/a	STRAW	10	15	[0, 0, 0]	n/a	FR1	0	R1184M
2363.375	1.617	2383611	WORD	n/a	wordpools/wordpool_EN.txt	SQUARE	11	15	[0, 0, 0]	n/a	FR1	0	R1184M
2364.992	0.817	2385228	WORD_OFF	n/a	n/a	SQUARE	11	15	[0, 0, 0]	n/a	FR1	0	R1184M
2365.809	1.617	2386045	WORD	n/a	wordpools/wordpool_EN.txt	MOTH	12	15	[0, 0, 0]	n/a	FR1	0	R1184M
2367.426	0.0	2387662	WORD_OFF	n/a	n/a	MOTH	12	15	[0, 0, 0]	n/a	FR1	0	R1184M
2367.426	0.0	2387662	DISTRACT_START	n/a	n/a	n/a	-999	15	[0, 0, 0]	n/a	FR1	0	R1184M
2367.426	0.018	2387662	START	n/a	n/a	n/a	-999	15	[-999, -999, -999]	n/a	FR1	0	R1184M
2367.444	9.085	2387680	PROB	9.085	n/a	n/a	-999	15	[7, 2, 4]	13	FR1	0	R1184M
2376.529	5.417	2396764	PROB	5.417	n/a	n/a	-999	15	[7, 4, 7]	17	FR1	0	R1184M
2381.946	4.568	2402181	PROB	4.568	n/a	n/a	-999	15	[1, 4, 5]	10	FR1	0	R1184M
2386.514	16.818	2406749	PROB	16.818	n/a	n/a	-999	15	[6, 6, 1]	13	FR1	0	R1184M
2403.332	0.018	2423566	STOP	n/a	n/a	n/a	-999	15	[-999, -999, -999]	n/a	FR1	0	R1184M
2403.35	0.7	2423584	DISTRACT_END	n/a	n/a	n/a	-999	15	[0, 0, 0]	n/a	FR1	0	R1184M
2404.05	0.518	2424284	RETRIEVAL_ORIENT	n/a	n/a	n/a	-999	15	[0, 0, 0]	n/a	FR1	0	R1184M
2404.568	8.336	2424802	REC_START	n/a	n/a	n/a	-999	15	[0, 0, 0]	n/a	FR1	0	R1184M
2412.904	4.62	2433137	REC_WORD	4.62	n/a	SLIME	-999	15	[0, 0, 0]	n/a	FR1	0	R1184M
2417.524	17.054	2437757	REC_WORD_VV	17.054	n/a	<>	-999	15	[0, 0, 0]	n/a	FR1	0	R1184M
2434.578	9.68	2454810	REC_END	n/a	n/a	n/a	-999	15	[0, 0, 0]	n/a	FR1	0	R1184M
2444.258	0.5	2464490	TRIAL	n/a	n/a	n/a	-999	16	[0, 0, 0]	n/a	FR1	0	R1184M
2444.758	10.428	2464990	COUNTDOWN_START	n/a	n/a	n/a	-999	16	[0, 0, 0]	n/a	FR1	0	R1184M
2455.186	0.007	2475417	COUNTDOWN_END	n/a	n/a	n/a	-999	16	[0, 0, 0]	n/a	FR1	0	R1184M
2455.193	1.617	2475424	ORIENT	n/a	n/a	n/a	-999	16	[0, 0, 0]	n/a	FR1	0	R1184M
2456.81	1.801	2477041	ORIENT_OFF	n/a	n/a	n/a	-999	16	[0, 0, 0]	n/a	FR1	0	R1184M
2458.611	1.616	2478842	WORD	n/a	wordpools/wordpool_EN.txt	CUP	1	16	[0, 0, 0]	n/a	FR1	0	R1184M
2460.227	1.001	2480458	WORD_OFF	n/a	n/a	CUP	1	16	[0, 0, 0]	n/a	FR1	0	R1184M
2461.228	1.617	2481459	WORD	n/a	wordpools/wordpool_EN.txt	POOL	2	16	[0, 0, 0]	n/a	FR1	0	R1184M
2462.845	0.916	2483076	WORD_OFF	n/a	n/a	POOL	2	16	[0, 0, 0]	n/a	FR1	0	R1184M
2463.761	1.617	2483992	WORD	n/a	wordpools/wordpool_EN.txt	MOUTH	3	16	[0, 0, 0]	n/a	FR1	0	R1184M
2465.378	0.967	2485609	WORD_OFF	n/a	n/a	MOUTH	3	16	[0, 0, 0]	n/a	FR1	0	R1184M
2466.345	1.617	2486575	WORD	n/a	wordpools/wordpool_EN.txt	CORN	4	16	[0, 0, 0]	n/a	FR1	0	R1184M
2467.962	0.95	2488192	WORD_OFF	n/a	n/a	CORN	4	16	[0, 0, 0]	n/a	FR1	0	R1184M
2468.912	1.602	2489142	WORD	n/a	wordpools/wordpool_EN.txt	TRAIN	5	16	[0, 0, 0]	n/a	FR1	0	R1184M
2470.514	0.933	2490744	WORD_OFF	n/a	n/a	TRAIN	5	16	[0, 0, 0]	n/a	FR1	0	R1184M
2471.447	1.616	2491677	WORD	n/a	wordpools/wordpool_EN.txt	POLE	6	16	[0, 0, 0]	n/a	FR1	0	R1184M
2473.063	0.884	2493293	WORD_OFF	n/a	n/a	POLE	6	16	[0, 0, 0]	n/a	FR1	0	R1184M
2473.947	1.618	2494177	WORD	n/a	wordpools/wordpool_EN.txt	THUMB	7	16	[0, 0, 0]	n/a	FR1	0	R1184M
2475.565	0.832	2495795	WORD_OFF	n/a	n/a	THUMB	7	16	[0, 0, 0]	n/a	FR1	0	R1184M
2476.397	1.617	2496627	WORD	n/a	wordpools/wordpool_EN.txt	FLEA	8	16	[0, 0, 0]	n/a	FR1	0	R1184M
2478.014	0.917	2498244	WORD_OFF	n/a	n/a	FLEA	8	16	[0, 0, 0]	n/a	FR1	0	R1184M
2478.931	1.601	2499161	WORD	n/a	wordpools/wordpool_EN.txt	SKUNK	9	16	[0, 0, 0]	n/a	FR1	0	R1184M
2480.532	0.967	2500762	WORD_OFF	n/a	n/a	SKUNK	9	16	[0, 0, 0]	n/a	FR1	0	R1184M
2481.499	1.616	2501729	WORD	n/a	wordpools/wordpool_EN.txt	STOVE	10	16	[0, 0, 0]	n/a	FR1	0	R1184M
2483.115	1.0	2503345	WORD_OFF	n/a	n/a	STOVE	10	16	[0, 0, 0]	n/a	FR1	0	R1184M
2484.115	1.601	2504344	WORD	n/a	wordpools/wordpool_EN.txt	OAR	11	16	[0, 0, 0]	n/a	FR1	0	R1184M
2485.716	0.868	2505945	WORD_OFF	n/a	n/a	OAR	11	16	[0, 0, 0]	n/a	FR1	0	R1184M
2486.584	1.616	2506813	WORD	n/a	wordpools/wordpool_EN.txt	ZOO	12	16	[0, 0, 0]	n/a	FR1	0	R1184M
2488.2	0.0	2508429	DISTRACT_START	n/a	n/a	n/a	-999	16	[0, 0, 0]	n/a	FR1	0	R1184M
2488.2	0.0	2508429	WORD_OFF	n/a	n/a	ZOO	12	16	[0, 0, 0]	n/a	FR1	0	R1184M
2488.2	0.016	2508429	START	n/a	n/a	n/a	-999	16	[-999, -999, -999]	n/a	FR1	0	R1184M
2488.216	8.152	2508445	PROB	8.152	n/a	n/a	-999	16	[3, 5, 2]	10	FR1	0	R1184M
2496.368	7.319	2516597	PROB	7.319	n/a	n/a	-999	16	[5, 4, 3]	12	FR1	0	R1184M
2503.687	4.366	2523915	PROB	4.366	n/a	n/a	-999	16	[5, 7, 2]	14	FR1	0	R1184M
2508.053	8.327	2528281	PROB	8.327	n/a	n/a	-999	16	[3, 6, 4]	13	FR1	0	R1184M
2516.38	0.008	2536608	STOP	n/a	n/a	n/a	-999	16	[-999, -999, -999]	n/a	FR1	0	R1184M
2516.388	0.634	2536616	DISTRACT_END	n/a	n/a	n/a	-999	16	[0, 0, 0]	n/a	FR1	0	R1184M
2517.022	0.518	2537250	RETRIEVAL_ORIENT	n/a	n/a	n/a	-999	16	[0, 0, 0]	n/a	FR1	0	R1184M
2517.54	9.584	2537768	REC_START	n/a	n/a	n/a	-999	16	[0, 0, 0]	n/a	FR1	0	R1184M
2527.124	4.351	2547351	REC_WORD	4.351	n/a	SKUNK	-999	16	[0, 0, 0]	n/a	FR1	0	R1184M
2531.475	0.718	2551702	REC_WORD	0.718	n/a	CUP	-999	16	[0, 0, 0]	n/a	FR1	0	R1184M
2532.193	15.359	2552420	REC_WORD	15.359	n/a	POOL	-999	16	[0, 0, 0]	n/a	FR1	0	R1184M
2547.552	13.428	2567778	REC_END	n/a	n/a	n/a	-999	16	[0, 0, 0]	n/a	FR1	0	R1184M
2560.98	0.5	2581205	TRIAL	n/a	n/a	n/a	-999	17	[0, 0, 0]	n/a	FR1	0	R1184M
2561.48	10.428	2581705	COUNTDOWN_START	n/a	n/a	n/a	-999	17	[0, 0, 0]	n/a	FR1	0	R1184M
2571.908	0.008	2592133	COUNTDOWN_END	n/a	n/a	n/a	-999	17	[0, 0, 0]	n/a	FR1	0	R1184M
2571.916	1.618	2592141	ORIENT	n/a	n/a	n/a	-999	17	[0, 0, 0]	n/a	FR1	0	R1184M
2573.534	1.883	2593758	ORIENT_OFF	n/a	n/a	n/a	-999	17	[0, 0, 0]	n/a	FR1	0	R1184M
2575.417	1.617	2595641	WORD	n/a	wordpools/wordpool_EN.txt	CHAIR	1	17	[0, 0, 0]	n/a	FR1	0	R1184M
2577.034	0.816	2597258	WORD_OFF	n/a	n/a	CHAIR	1	17	[0, 0, 0]	n/a	FR1	0	R1184M
2577.85	1.618	2598074	WORD	n/a	wordpools/wordpool_EN.txt	ROOF	2	17	[0, 0, 0]	n/a	FR1	0	R1184M
2579.468	0.984	2599692	WORD_OFF	n/a	n/a	ROOF	2	17	[0, 0, 0]	n/a	FR1	0	R1184M
2580.452	1.616	2600676	WORD	n/a	wordpools/wordpool_EN.txt	PEA	3	17	[0, 0, 0]	n/a	FR1	0	R1184M
2582.068	0.883	2602292	WORD_OFF	n/a	n/a	PEA	3	17	[0, 0, 0]	n/a	FR1	0	R1184M
2582.951	1.601	2603175	WORD	n/a	wordpools/wordpool_EN.txt	ANT	4	17	[0, 0, 0]	n/a	FR1	0	R1184M
2584.552	0.984	2604776	WORD_OFF	n/a	n/a	ANT	4	17	[0, 0, 0]	n/a	FR1	0	R1184M
2585.536	1.616	2605760	WORD	n/a	wordpools/wordpool_EN.txt	CHEEK	5	17	[0, 0, 0]	n/a	FR1	0	R1184M
2587.152	0.984	2607376	WORD_OFF	n/a	n/a	CHEEK	5	17	[0, 0, 0]	n/a	FR1	0	R1184M
2588.136	1.617	2608360	WORD	n/a	wordpools/wordpool_EN.txt	HAWK	6	17	[0, 0, 0]	n/a	FR1	0	R1184M
2589.753	0.984	2609977	WORD_OFF	n/a	n/a	HAWK	6	17	[0, 0, 0]	n/a	FR1	0	R1184M
2590.737	1.616	2610960	WORD	n/a	wordpools/wordpool_EN.txt	NET	7	17	[0, 0, 0]	n/a	FR1	0	R1184M
2592.353	0.9	2612576	WORD_OFF	n/a	n/a	NET	7	17	[0, 0, 0]	n/a	FR1	0	R1184M
2593.253	1.617	2613476	WORD	n/a	wordpools/wordpool_EN.txt	NEST	8	17	[0, 0, 0]	n/a	FR1	0	R1184M
2594.87	0.768	2615093	WORD_OFF	n/a	n/a	NEST	8	17	[0, 0, 0]	n/a	FR1	0	R1184M
2595.638	1.616	2615861	WORD	n/a	wordpools/wordpool_EN.txt	TOE	9	17	[0, 0, 0]	n/a	FR1	0	R1184M
2597.254	0.934	2617477	WORD_OFF	n/a	n/a	TOE	9	17	[0, 0, 0]	n/a	FR1	0	R1184M
2598.188	1.617	2618411	WORD	n/a	wordpools/wordpool_EN.txt	LEAF	10	17	[0, 0, 0]	n/a	FR1	0	R1184M
2599.805	0.801	2620028	WORD_OFF	n/a	n/a	LEAF	10	17	[0, 0, 0]	n/a	FR1	0	R1184M
2600.606	1.616	2620829	WORD	n/a	wordpools/wordpool_EN.txt	CLIFF	11	17	[0, 0, 0]	n/a	FR1	0	R1184M
2602.222	0.95	2622445	WORD_OFF	n/a	n/a	CLIFF	11	17	[0, 0, 0]	n/a	FR1	0	R1184M
2603.172	1.617	2623395	WORD	n/a	wordpools/wordpool_EN.txt	MULE	12	17	[0, 0, 0]	n/a	FR1	0	R1184M
2604.789	0.0	2625012	WORD_OFF	n/a	n/a	MULE	12	17	[0, 0, 0]	n/a	FR1	0	R1184M
2604.789	0.0	2625012	DISTRACT_START	n/a	n/a	n/a	-999	17	[0, 0, 0]	n/a	FR1	0	R1184M
2604.789	0.017	2625012	START	n/a	n/a	n/a	-999	17	[-999, -999, -999]	n/a	FR1	0	R1184M
2604.806	21.695	2625029	PROB	21.695	n/a	n/a	-999	17	[7, 4, 5]	16	FR1	0	R1184M
2626.501	0.01	2646722	STOP	n/a	n/a	n/a	-999	17	[-999, -999, -999]	n/a	FR1	0	R1184M
2626.511	0.632	2646732	DISTRACT_END	n/a	n/a	n/a	-999	17	[0, 0, 0]	n/a	FR1	0	R1184M
2627.143	0.519	2647364	RETRIEVAL_ORIENT	n/a	n/a	n/a	-999	17	[0, 0, 0]	n/a	FR1	0	R1184M
2627.662	9.488	2647883	REC_START	n/a	n/a	n/a	-999	17	[0, 0, 0]	n/a	FR1	0	R1184M
2637.15	0.471	2657371	REC_WORD	0.471	n/a	PEA	-999	17	[0, 0, 0]	n/a	FR1	0	R1184M
2637.621	4.39	2657842	REC_WORD	4.39	n/a	ANT	-999	17	[0, 0, 0]	n/a	FR1	0	R1184M
2642.011	15.662	2662232	REC_WORD	15.662	n/a	CUP	-999	17	[0, 0, 0]	n/a	FR1	0	R1184M
2657.673	9.896	2677893	REC_END	n/a	n/a	n/a	-999	17	[0, 0, 0]	n/a	FR1	0	R1184M
2667.569	0.5	2687788	TRIAL	n/a	n/a	n/a	-999	18	[0, 0, 0]	n/a	FR1	0	R1184M
2668.069	10.428	2688288	COUNTDOWN_START	n/a	n/a	n/a	-999	18	[0, 0, 0]	n/a	FR1	0	R1184M
2678.497	0.007	2698716	COUNTDOWN_END	n/a	n/a	n/a	-999	18	[0, 0, 0]	n/a	FR1	0	R1184M
2678.504	1.616	2698723	ORIENT	n/a	n/a	n/a	-999	18	[0, 0, 0]	n/a	FR1	0	R1184M
2680.12	1.984	2700338	ORIENT_OFF	n/a	n/a	n/a	-999	18	[0, 0, 0]	n/a	FR1	0	R1184M
2682.104	1.601	2702322	WORD	n/a	wordpools/wordpool_EN.txt	MOUSE	1	18	[0, 0, 0]	n/a	FR1	0	R1184M
2683.705	0.934	2703923	WORD_OFF	n/a	n/a	MOUSE	1	18	[0, 0, 0]	n/a	FR1	0	R1184M
2684.639	1.616	2704857	WORD	n/a	wordpools/wordpool_EN.txt	BEE	2	18	[0, 0, 0]	n/a	FR1	0	R1184M
2686.255	0.95	2706473	WORD_OFF	n/a	n/a	BEE	2	18	[0, 0, 0]	n/a	FR1	0	R1184M
2687.205	1.617	2707423	WORD	n/a	wordpools/wordpool_EN.txt	DART	3	18	[0, 0, 0]	n/a	FR1	0	R1184M
2688.822	0.967	2709040	WORD_OFF	n/a	n/a	DART	3	18	[0, 0, 0]	n/a	FR1	0	R1184M
2689.789	1.617	2710007	WORD	n/a	wordpools/wordpool_EN.txt	BEACH	4	18	[0, 0, 0]	n/a	FR1	0	R1184M
2691.406	0.95	2711624	WORD_OFF	n/a	n/a	BEACH	4	18	[0, 0, 0]	n/a	FR1	0	R1184M
2692.356	1.617	2712574	WORD	n/a	wordpools/wordpool_EN.txt	BAND	5	18	[0, 0, 0]	n/a	FR1	0	R1184M
2693.973	0.933	2714191	WORD_OFF	n/a	n/a	BAND	5	18	[0, 0, 0]	n/a	FR1	0	R1184M
2694.906	1.618	2715124	WORD	n/a	wordpools/wordpool_EN.txt	SPARK	6	18	[0, 0, 0]	n/a	FR1	0	R1184M
2696.524	0.9	2716742	WORD_OFF	n/a	n/a	SPARK	6	18	[0, 0, 0]	n/a	FR1	0	R1184M
2697.424	1.617	2717642	WORD	n/a	wordpools/wordpool_EN.txt	STORM	7	18	[0, 0, 0]	n/a	FR1	0	R1184M
2699.041	0.8	2719258	WORD_OFF	n/a	n/a	STORM	7	18	[0, 0, 0]	n/a	FR1	0	R1184M
2699.841	1.618	2720058	WORD	n/a	wordpools/wordpool_EN.txt	HOOK	8	18	[0, 0, 0]	n/a	FR1	0	R1184M
2701.459	0.983	2721676	WORD_OFF	n/a	n/a	HOOK	8	18	[0, 0, 0]	n/a	FR1	0	R1184M
2702.442	1.616	2722659	WORD	n/a	wordpools/wordpool_EN.txt	BOARD	9	18	[0, 0, 0]	n/a	FR1	0	R1184M
2704.058	0.784	2724275	WORD_OFF	n/a	n/a	BOARD	9	18	[0, 0, 0]	n/a	FR1	0	R1184M
2704.842	1.618	2725059	WORD	n/a	wordpools/wordpool_EN.txt	FLAG	10	18	[0, 0, 0]	n/a	FR1	0	R1184M
2706.46	1.0	2726677	WORD_OFF	n/a	n/a	FLAG	10	18	[0, 0, 0]	n/a	FR1	0	R1184M
2707.46	1.616	2727677	WORD	n/a	wordpools/wordpool_EN.txt	ROOM	11	18	[0, 0, 0]	n/a	FR1	0	R1184M
2709.076	0.933	2729293	WORD_OFF	n/a	n/a	ROOM	11	18	[0, 0, 0]	n/a	FR1	0	R1184M
2710.009	1.601	2730226	WORD	n/a	wordpools/wordpool_EN.txt	BRIDGE	12	18	[0, 0, 0]	n/a	FR1	0	R1184M
2711.61	0.0	2731827	WORD_OFF	n/a	n/a	BRIDGE	12	18	[0, 0, 0]	n/a	FR1	0	R1184M
2711.61	0.001	2731827	DISTRACT_START	n/a	n/a	n/a	-999	18	[0, 0, 0]	n/a	FR1	0	R1184M
2711.611	0.016	2731828	START	n/a	n/a	n/a	-999	18	[-999, -999, -999]	n/a	FR1	0	R1184M
2711.627	13.252	2731844	PROB	13.252	n/a	n/a	-999	18	[8, 9, 4]	22	FR1	0	R1184M
2724.879	11.286	2745095	PROB	11.286	n/a	n/a	-999	18	[8, 5, 5]	18	FR1	0	R1184M
2736.165	0.016	2756380	STOP	n/a	n/a	n/a	-999	18	[-999, -999, -999]	n/a	FR1	0	R1184M
2736.181	0.617	2756396	DISTRACT_END	n/a	n/a	n/a	-999	18	[0, 0, 0]	n/a	FR1	0	R1184M
2736.798	0.517	2757013	RETRIEVAL_ORIENT	n/a	n/a	n/a	-999	18	[0, 0, 0]	n/a	FR1	0	R1184M
2737.315	5.283	2757530	REC_START	n/a	n/a	n/a	-999	18	[0, 0, 0]	n/a	FR1	0	R1184M
2742.598	1.368	2762813	REC_WORD	1.368	n/a	MOUSE	-999	18	[0, 0, 0]	n/a	FR1	0	R1184M
2743.966	23.361	2764181	REC_WORD	23.361	n/a	PEA	-999	18	[0, 0, 0]	n/a	FR1	0	R1184M
2767.327	22.698	2787541	REC_END	n/a	n/a	n/a	-999	18	[0, 0, 0]	n/a	FR1	0	R1184M
2790.025	0.0	2810237	TRIAL	n/a	n/a	n/a	-999	19	[0, 0, 0]	n/a	FR1	0	R1184M
