onset	duration	sample	trial_type	response_time	stim_file	item_name	serialpos	list	test	answer	experiment	session	subject
0.0	63.093	-1	SESS_START	n/a	n/a	n/a	-999	-999	[0, 0, 0]	n/a	FR1	2	R1134T
63.093	10.428	10928	COUNTDOWN_START	n/a	n/a	n/a	-999	-999	[0, 0, 0]	n/a	FR1	2	R1134T
73.521	3.842	21356	COUNTDOWN_END	n/a	n/a	n/a	-999	-999	[0, 0, 0]	n/a	FR1	2	R1134T
77.363	2.383	25198	PRACTICE_WORD	n/a	n/a	RINOCERONTE	1	-1	[0, 0, 0]	n/a	FR1	2	R1134T
79.746	2.534	27581	PRACTICE_WORD	n/a	n/a	ANILLO	2	-1	[0, 0, 0]	n/a	FR1	2	R1134T
82.28	2.451	30115	PRACTICE_WORD	n/a	n/a	CAMELLO	3	-1	[0, 0, 0]	n/a	FR1	2	R1134T
84.731	2.6	32565	PRACTICE_WORD	n/a	n/a	PECHO	4	-1	[0, 0, 0]	n/a	FR1	2	R1134T
87.331	2.484	35165	PRACTICE_WORD	n/a	n/a	VAGON	5	-1	[0, 0, 0]	n/a	FR1	2	R1134T
89.815	2.617	37649	PRACTICE_WORD	n/a	n/a	HIERRO	6	-1	[0, 0, 0]	n/a	FR1	2	R1134T
92.432	2.434	40266	PRACTICE_WORD	n/a	n/a	ATICO	7	-1	[0, 0, 0]	n/a	FR1	2	R1134T
94.866	2.55	42700	PRACTICE_WORD	n/a	n/a	LENGUA	8	-1	[0, 0, 0]	n/a	FR1	2	R1134T
97.416	2.534	45250	PRACTICE_WORD	n/a	n/a	RELOJ	9	-1	[0, 0, 0]	n/a	FR1	2	R1134T
99.95	2.602	47784	PRACTICE_WORD	n/a	n/a	HAZ	10	-1	[0, 0, 0]	n/a	FR1	2	R1134T
102.552	2.416	50386	PRACTICE_WORD	n/a	n/a	ALGODON	11	-1	[0, 0, 0]	n/a	FR1	2	R1134T
104.968	1.618	52801	PRACTICE_WORD	n/a	n/a	INUNDACION	12	-1	[0, 0, 0]	n/a	FR1	2	R1134T
106.586	0.0	54419	PRACTICE_DISTRACT_START	n/a	n/a	n/a	-999	-1	[0, 0, 0]	n/a	FR1	2	R1134T
106.586	0.016	54419	START	n/a	n/a	n/a	-999	-1	[-999, -999, -999]	n/a	FR1	2	R1134T
106.602	33.882	54435	PROB	33.882	n/a	n/a	-999	-1	[5, 4, 8]	55	FR1	2	R1134T
140.484	0.008	88316	STOP	n/a	n/a	n/a	-999	-1	[-999, -999, -999]	n/a	FR1	2	R1134T
140.492	0.551	88324	PRACTICE_DISTRACT_END	n/a	n/a	n/a	-999	-1	[0, 0, 0]	n/a	FR1	2	R1134T
141.043	30.516	88875	PRACTICE_REC_START	n/a	n/a	n/a	-999	-1	[0, 0, 0]	n/a	FR1	2	R1134T
171.559	30.061	119389	PRACTICE_REC_END	n/a	n/a	n/a	-999	-1	[0, 0, 0]	n/a	FR1	2	R1134T
201.62	0.0	149449	TRIAL	n/a	n/a	n/a	-999	1	[0, 0, 0]	n/a	FR1	2	R1134T
201.62	10.428	149449	COUNTDOWN_START	n/a	n/a	n/a	-999	1	[0, 0, 0]	n/a	FR1	2	R1134T
212.048	0.006	159876	COUNTDOWN_END	n/a	n/a	n/a	-999	1	[0, 0, 0]	n/a	FR1	2	R1134T
212.054	2.4	159882	ORIENT	n/a	n/a	n/a	-999	1	[0, 0, 0]	n/a	FR1	2	R1134T
214.454	2.517	162282	WORD	n/a	wordpools/wordpool_SP.txt	ROCA	1	1	[0, 0, 0]	n/a	FR1	2	R1134T
216.971	2.518	164799	WORD	n/a	wordpools/wordpool_SP.txt	PRECIPICIO	2	1	[0, 0, 0]	n/a	FR1	2	R1134T
219.489	2.467	167317	WORD	n/a	wordpools/wordpool_SP.txt	PELAJE	3	1	[0, 0, 0]	n/a	FR1	2	R1134T
221.956	2.568	169784	WORD	n/a	wordpools/wordpool_SP.txt	CERDO	4	1	[0, 0, 0]	n/a	FR1	2	R1134T
224.524	2.549	172351	WORD	n/a	wordpools/wordpool_SP.txt	TIENDA	5	1	[0, 0, 0]	n/a	FR1	2	R1134T
227.073	2.502	174900	WORD	n/a	wordpools/wordpool_SP.txt	TARRO	6	1	[0, 0, 0]	n/a	FR1	2	R1134T
229.575	2.532	177402	WORD	n/a	wordpools/wordpool_SP.txt	MAIZ	7	1	[0, 0, 0]	n/a	FR1	2	R1134T
232.107	2.502	179934	WORD	n/a	wordpools/wordpool_SP.txt	PICO	8	1	[0, 0, 0]	n/a	FR1	2	R1134T
234.609	2.616	182436	WORD	n/a	wordpools/wordpool_SP.txt	CUEVA	9	1	[0, 0, 0]	n/a	FR1	2	R1134T
237.225	2.434	185052	WORD	n/a	wordpools/wordpool_SP.txt	PLAYA	10	1	[0, 0, 0]	n/a	FR1	2	R1134T
239.659	2.534	187486	WORD	n/a	wordpools/wordpool_SP.txt	TAMBOR	11	1	[0, 0, 0]	n/a	FR1	2	R1134T
242.193	1.617	190020	WORD	n/a	wordpools/wordpool_SP.txt	VID	12	1	[0, 0, 0]	n/a	FR1	2	R1134T
243.81	0.0	191636	DISTRACT_START	n/a	n/a	n/a	-999	1	[0, 0, 0]	n/a	FR1	2	R1134T
243.81	0.016	191636	START	n/a	n/a	n/a	-999	1	[-999, -999, -999]	n/a	FR1	2	R1134T
243.826	8.703	191652	PROB	8.703	n/a	n/a	-999	1	[1, 1, 2]	1	FR1	2	R1134T
252.529	1.849	200355	PROB	1.849	n/a	n/a	-999	1	[9, 4, 7]	6	FR1	2	R1134T
254.378	1.617	202204	PROB	1.617	n/a	n/a	-999	1	[6, 5, 3]	7	FR1	2	R1134T
255.995	1.4	203821	PROB	1.4	n/a	n/a	-999	1	[4, 7, 6]	7	FR1	2	R1134T
257.395	1.701	205221	PROB	1.701	n/a	n/a	-999	1	[1, 5, 6]	7	FR1	2	R1134T
259.096	1.35	206922	PROB	1.35	n/a	n/a	-999	1	[8, 2, 2]	7	FR1	2	R1134T
260.446	1.417	208272	PROB	1.417	n/a	n/a	-999	1	[2, 9, 1]	7	FR1	2	R1134T
261.863	1.55	209689	PROB	1.55	n/a	n/a	-999	1	[8, 3, 3]	7	FR1	2	R1134T
263.413	1.334	211239	PROB	1.334	n/a	n/a	-999	1	[2, 7, 2]	7	FR1	2	R1134T
264.747	0.016	212572	STOP	n/a	n/a	n/a	-999	1	[-999, -999, -999]	n/a	FR1	2	R1134T
264.763	1.038	212588	DISTRACT_END	n/a	n/a	n/a	-999	1	[0, 0, 0]	n/a	FR1	2	R1134T
265.801	1.152	213626	REC_START	n/a	n/a	n/a	-999	1	[0, 0, 0]	n/a	FR1	2	R1134T
266.953	4.522	214778	REC_WORD	4.522	n/a	ROCA	-999	1	[0, 0, 0]	n/a	FR1	2	R1134T
271.475	3.858	219300	REC_WORD	3.858	n/a	CAJA	-999	1	[0, 0, 0]	n/a	FR1	2	R1134T
275.333	20.475	223158	REC_WORD	20.475	n/a	PICO	-999	1	[0, 0, 0]	n/a	FR1	2	R1134T
295.808	5.379	243632	REC_END	n/a	n/a	n/a	-999	1	[0, 0, 0]	n/a	FR1	2	R1134T
301.187	0.0	249011	TRIAL	n/a	n/a	n/a	-999	2	[0, 0, 0]	n/a	FR1	2	R1134T
301.187	10.428	249011	COUNTDOWN_START	n/a	n/a	n/a	-999	2	[0, 0, 0]	n/a	FR1	2	R1134T
311.615	0.008	259438	COUNTDOWN_END	n/a	n/a	n/a	-999	2	[0, 0, 0]	n/a	FR1	2	R1134T
311.623	2.416	259446	ORIENT	n/a	n/a	n/a	-999	2	[0, 0, 0]	n/a	FR1	2	R1134T
314.039	2.451	261862	WORD	n/a	wordpools/wordpool_SP.txt	FILETE	1	2	[0, 0, 0]	n/a	FR1	2	R1134T
316.49	2.416	264313	WORD	n/a	wordpools/wordpool_SP.txt	OREJA	2	2	[0, 0, 0]	n/a	FR1	2	R1134T
318.906	2.368	266729	WORD	n/a	wordpools/wordpool_SP.txt	BOCA	3	2	[0, 0, 0]	n/a	FR1	2	R1134T
321.274	2.583	269097	WORD	n/a	wordpools/wordpool_SP.txt	JAULA	4	2	[0, 0, 0]	n/a	FR1	2	R1134T
323.857	2.567	271680	WORD	n/a	wordpools/wordpool_SP.txt	TELEFONO	5	2	[0, 0, 0]	n/a	FR1	2	R1134T
326.424	2.434	274246	WORD	n/a	wordpools/wordpool_SP.txt	MULA	6	2	[0, 0, 0]	n/a	FR1	2	R1134T
328.858	2.4	276680	WORD	n/a	wordpools/wordpool_SP.txt	ARCA	7	2	[0, 0, 0]	n/a	FR1	2	R1134T
331.258	2.551	279080	WORD	n/a	wordpools/wordpool_SP.txt	NINO	8	2	[0, 0, 0]	n/a	FR1	2	R1134T
333.809	2.501	281631	WORD	n/a	wordpools/wordpool_SP.txt	DIENTES	9	2	[0, 0, 0]	n/a	FR1	2	R1134T
336.31	2.417	284132	WORD	n/a	wordpools/wordpool_SP.txt	SELLO	10	2	[0, 0, 0]	n/a	FR1	2	R1134T
338.727	2.4	286549	WORD	n/a	wordpools/wordpool_SP.txt	DIENTE	11	2	[0, 0, 0]	n/a	FR1	2	R1134T
341.127	1.617	288949	WORD	n/a	wordpools/wordpool_SP.txt	PERA	12	2	[0, 0, 0]	n/a	FR1	2	R1134T
342.744	0.001	290566	DISTRACT_START	n/a	n/a	n/a	-999	2	[0, 0, 0]	n/a	FR1	2	R1134T
342.745	0.016	290567	START	n/a	n/a	n/a	-999	2	[-999, -999, -999]	n/a	FR1	2	R1134T
342.761	155.027	290583	PROB	155.027	n/a	n/a	-999	2	[8, 7, 3]	34	FR1	2	R1134T
497.788	0.018	445602	STOP	n/a	n/a	n/a	-999	2	[-999, -999, -999]	n/a	FR1	2	R1134T
497.806	1.2	445620	DISTRACT_END	n/a	n/a	n/a	-999	2	[0, 0, 0]	n/a	FR1	2	R1134T
499.006	30.011	446820	REC_START	n/a	n/a	n/a	-999	2	[0, 0, 0]	n/a	FR1	2	R1134T
529.017	0.003	476829	REC_WORD_VV	0.003	n/a	<>	-999	2	[0, 0, 0]	n/a	FR1	2	R1134T
529.02	2.075	476832	REC_END	n/a	n/a	n/a	-999	2	[0, 0, 0]	n/a	FR1	2	R1134T
531.095	0.0	478907	TRIAL	n/a	n/a	n/a	-999	3	[0, 0, 0]	n/a	FR1	2	R1134T
531.095	10.428	478907	COUNTDOWN_START	n/a	n/a	n/a	-999	3	[0, 0, 0]	n/a	FR1	2	R1134T
541.523	0.008	489335	COUNTDOWN_END	n/a	n/a	n/a	-999	3	[0, 0, 0]	n/a	FR1	2	R1134T
541.531	2.566	489343	ORIENT	n/a	n/a	n/a	-999	3	[0, 0, 0]	n/a	FR1	2	R1134T
544.097	2.435	491909	WORD	n/a	wordpools/wordpool_SP.txt	LLAVE	1	3	[0, 0, 0]	n/a	FR1	2	R1134T
546.532	2.549	494343	WORD	n/a	wordpools/wordpool_SP.txt	MAPA	2	3	[0, 0, 0]	n/a	FR1	2	R1134T
549.081	2.384	496892	WORD	n/a	wordpools/wordpool_SP.txt	PAYASO	3	3	[0, 0, 0]	n/a	FR1	2	R1134T
551.465	2.517	499276	WORD	n/a	wordpools/wordpool_SP.txt	FRUTA	4	3	[0, 0, 0]	n/a	FR1	2	R1134T
553.982	2.451	501793	WORD	n/a	wordpools/wordpool_SP.txt	PEZ	5	3	[0, 0, 0]	n/a	FR1	2	R1134T
556.433	2.484	504244	WORD	n/a	wordpools/wordpool_SP.txt	JEFE	6	3	[0, 0, 0]	n/a	FR1	2	R1134T
558.917	2.5	506728	WORD	n/a	wordpools/wordpool_SP.txt	LECHE	7	3	[0, 0, 0]	n/a	FR1	2	R1134T
561.417	2.484	509228	WORD	n/a	wordpools/wordpool_SP.txt	TIBURON	8	3	[0, 0, 0]	n/a	FR1	2	R1134T
563.901	2.45	511712	WORD	n/a	wordpools/wordpool_SP.txt	FUERTE	9	3	[0, 0, 0]	n/a	FR1	2	R1134T
566.351	2.484	514161	WORD	n/a	wordpools/wordpool_SP.txt	MAR	10	3	[0, 0, 0]	n/a	FR1	2	R1134T
568.835	2.451	516645	WORD	n/a	wordpools/wordpool_SP.txt	JUEZ	11	3	[0, 0, 0]	n/a	FR1	2	R1134T
571.286	1.616	519096	WORD	n/a	wordpools/wordpool_SP.txt	PASTA	12	3	[0, 0, 0]	n/a	FR1	2	R1134T
572.902	0.001	520712	DISTRACT_START	n/a	n/a	n/a	-999	3	[0, 0, 0]	n/a	FR1	2	R1134T
572.903	0.016	520713	START	n/a	n/a	n/a	-999	3	[-999, -999, -999]	n/a	FR1	2	R1134T
572.919	3.635	520729	PROB	3.635	n/a	n/a	-999	3	[9, 7, 9]	7	FR1	2	R1134T
576.554	2.4	524364	PROB	2.4	n/a	n/a	-999	3	[2, 9, 1]	7	FR1	2	R1134T
578.954	2.2	526764	PROB	2.2	n/a	n/a	-999	3	[7, 5, 7]	77	FR1	2	R1134T
581.154	1.884	528964	PROB	1.884	n/a	n/a	-999	3	[1, 7, 5]	7	FR1	2	R1134T
583.038	2.083	530848	PROB	2.083	n/a	n/a	-999	3	[1, 6, 8]	7	FR1	2	R1134T
585.121	2.201	532930	PROB	2.201	n/a	n/a	-999	3	[1, 7, 8]	7	FR1	2	R1134T
587.322	2.117	535131	PROB	2.117	n/a	n/a	-999	3	[8, 8, 2]	7	FR1	2	R1134T
589.439	2.168	537248	PROB	2.168	n/a	n/a	-999	3	[6, 8, 6]	7	FR1	2	R1134T
591.607	2.341	539416	PROB	2.341	n/a	n/a	-999	3	[2, 4, 4]	7	FR1	2	R1134T
593.948	0.008	541757	STOP	n/a	n/a	n/a	-999	3	[-999, -999, -999]	n/a	FR1	2	R1134T
593.956	1.185	541765	DISTRACT_END	n/a	n/a	n/a	-999	3	[0, 0, 0]	n/a	FR1	2	R1134T
595.141	1.123	542950	REC_START	n/a	n/a	n/a	-999	3	[0, 0, 0]	n/a	FR1	2	R1134T
596.264	2.987	544073	REC_WORD	2.987	n/a	PAYASO	-999	3	[0, 0, 0]	n/a	FR1	2	R1134T
599.251	2.404	547060	REC_WORD	2.404	n/a	LLAVE	-999	3	[0, 0, 0]	n/a	FR1	2	R1134T
601.655	1.571	549464	REC_WORD	1.571	n/a	LLAVE	-999	3	[0, 0, 0]	n/a	FR1	2	R1134T
603.226	21.925	551035	REC_WORD	21.925	n/a	INTRUSION	-999	3	[0, 0, 0]	n/a	FR1	2	R1134T
625.151	1.945	572958	REC_END	n/a	n/a	n/a	-999	3	[0, 0, 0]	n/a	FR1	2	R1134T
627.096	0.0	574903	TRIAL	n/a	n/a	n/a	-999	4	[0, 0, 0]	n/a	FR1	2	R1134T
627.096	10.428	574903	COUNTDOWN_START	n/a	n/a	n/a	-999	4	[0, 0, 0]	n/a	FR1	2	R1134T
637.524	0.008	585331	COUNTDOWN_END	n/a	n/a	n/a	-999	4	[0, 0, 0]	n/a	FR1	2	R1134T
637.532	2.583	585339	ORIENT	n/a	n/a	n/a	-999	4	[0, 0, 0]	n/a	FR1	2	R1134T
640.115	2.6	587922	WORD	n/a	wordpools/wordpool_SP.txt	PAN	1	4	[0, 0, 0]	n/a	FR1	2	R1134T
642.715	2.551	590522	WORD	n/a	wordpools/wordpool_SP.txt	CUCHARA	2	4	[0, 0, 0]	n/a	FR1	2	R1134T
645.266	2.483	593072	WORD	n/a	wordpools/wordpool_SP.txt	RATA	3	4	[0, 0, 0]	n/a	FR1	2	R1134T
647.749	2.418	595555	WORD	n/a	wordpools/wordpool_SP.txt	BARRO	4	4	[0, 0, 0]	n/a	FR1	2	R1134T
650.167	2.434	597973	WORD	n/a	wordpools/wordpool_SP.txt	PIPA	5	4	[0, 0, 0]	n/a	FR1	2	R1134T
652.601	2.599	600407	WORD	n/a	wordpools/wordpool_SP.txt	POZO	6	4	[0, 0, 0]	n/a	FR1	2	R1134T
655.2	2.468	603006	WORD	n/a	wordpools/wordpool_SP.txt	COPA	7	4	[0, 0, 0]	n/a	FR1	2	R1134T
657.668	2.567	605474	WORD	n/a	wordpools/wordpool_SP.txt	MANO	8	4	[0, 0, 0]	n/a	FR1	2	R1134T
660.235	2.534	608041	WORD	n/a	wordpools/wordpool_SP.txt	DURAZNO	9	4	[0, 0, 0]	n/a	FR1	2	R1134T
662.769	2.567	610575	WORD	n/a	wordpools/wordpool_SP.txt	PIEDRA	10	4	[0, 0, 0]	n/a	FR1	2	R1134T
665.336	2.45	613141	WORD	n/a	wordpools/wordpool_SP.txt	FLAUTA	11	4	[0, 0, 0]	n/a	FR1	2	R1134T
667.786	1.617	615591	WORD	n/a	wordpools/wordpool_SP.txt	DEDO	12	4	[0, 0, 0]	n/a	FR1	2	R1134T
669.403	0.001	617208	DISTRACT_START	n/a	n/a	n/a	-999	4	[0, 0, 0]	n/a	FR1	2	R1134T
669.404	0.016	617209	START	n/a	n/a	n/a	-999	4	[-999, -999, -999]	n/a	FR1	2	R1134T
669.42	3.102	617225	PROB	3.102	n/a	n/a	-999	4	[5, 7, 7]	7	FR1	2	R1134T
672.522	2.017	620327	PROB	2.017	n/a	n/a	-999	4	[3, 7, 4]	7	FR1	2	R1134T
674.539	1.832	622344	PROB	1.832	n/a	n/a	-999	4	[6, 1, 6]	7	FR1	2	R1134T
676.371	1.917	624176	PROB	1.917	n/a	n/a	-999	4	[3, 7, 6]	7	FR1	2	R1134T
678.288	2.167	626093	PROB	2.167	n/a	n/a	-999	4	[8, 6, 9]	7	FR1	2	R1134T
680.455	1.784	628260	PROB	1.784	n/a	n/a	-999	4	[7, 2, 6]	7	FR1	2	R1134T
682.239	1.767	630044	PROB	1.767	n/a	n/a	-999	4	[6, 1, 8]	7	FR1	2	R1134T
684.006	1.585	631811	PROB	1.585	n/a	n/a	-999	4	[4, 3, 4]	7	FR1	2	R1134T
685.591	1.866	633395	PROB	1.866	n/a	n/a	-999	4	[3, 2, 9]	7	FR1	2	R1134T
687.457	1.733	635261	PROB	1.733	n/a	n/a	-999	4	[3, 3, 9]	7	FR1	2	R1134T
689.19	1.926	636994	PROB	1.926	n/a	n/a	-999	4	[2, 4, 5]	7	FR1	2	R1134T
691.116	0.008	638920	STOP	n/a	n/a	n/a	-999	4	[-999, -999, -999]	n/a	FR1	2	R1134T
691.124	1.101	638928	DISTRACT_END	n/a	n/a	n/a	-999	4	[0, 0, 0]	n/a	FR1	2	R1134T
692.225	1.272	640029	REC_START	n/a	n/a	n/a	-999	4	[0, 0, 0]	n/a	FR1	2	R1134T
693.497	1.733	641301	REC_WORD	1.733	n/a	PAN	-999	4	[0, 0, 0]	n/a	FR1	2	R1134T
695.23	6.825	643034	REC_WORD	6.825	n/a	CUCHARA	-999	4	[0, 0, 0]	n/a	FR1	2	R1134T
702.055	12.658	649859	REC_WORD	12.658	n/a	FLAUTA	-999	4	[0, 0, 0]	n/a	FR1	2	R1134T
714.713	7.522	662516	REC_WORD	7.522	n/a	POZO	-999	4	[0, 0, 0]	n/a	FR1	2	R1134T
722.235	3.095	670038	REC_END	n/a	n/a	n/a	-999	4	[0, 0, 0]	n/a	FR1	2	R1134T
725.33	0.001	673132	COUNTDOWN_START	n/a	n/a	n/a	-999	5	[0, 0, 0]	n/a	FR1	2	R1134T
725.331	10.427	673133	TRIAL	n/a	n/a	n/a	-999	5	[0, 0, 0]	n/a	FR1	2	R1134T
735.758	0.007	683560	COUNTDOWN_END	n/a	n/a	n/a	-999	5	[0, 0, 0]	n/a	FR1	2	R1134T
735.765	2.484	683567	ORIENT	n/a	n/a	n/a	-999	5	[0, 0, 0]	n/a	FR1	2	R1134T
738.249	2.467	686051	WORD	n/a	wordpools/wordpool_SP.txt	BANCA	1	5	[0, 0, 0]	n/a	FR1	2	R1134T
740.716	2.467	688518	WORD	n/a	wordpools/wordpool_SP.txt	SORBETE	2	5	[0, 0, 0]	n/a	FR1	2	R1134T
743.183	2.484	690985	WORD	n/a	wordpools/wordpool_SP.txt	PATIO	3	5	[0, 0, 0]	n/a	FR1	2	R1134T
745.667	2.551	693468	WORD	n/a	wordpools/wordpool_SP.txt	PIE	4	5	[0, 0, 0]	n/a	FR1	2	R1134T
748.218	2.384	696019	WORD	n/a	wordpools/wordpool_SP.txt	CAMISA	5	5	[0, 0, 0]	n/a	FR1	2	R1134T
750.602	2.517	698403	WORD	n/a	wordpools/wordpool_SP.txt	TAZON	6	5	[0, 0, 0]	n/a	FR1	2	R1134T
753.119	2.633	700920	WORD	n/a	wordpools/wordpool_SP.txt	RANA	7	5	[0, 0, 0]	n/a	FR1	2	R1134T
755.752	2.418	703553	WORD	n/a	wordpools/wordpool_SP.txt	ROSA	8	5	[0, 0, 0]	n/a	FR1	2	R1134T
758.17	2.617	705971	WORD	n/a	wordpools/wordpool_SP.txt	PUERTA	9	5	[0, 0, 0]	n/a	FR1	2	R1134T
760.787	2.433	708588	WORD	n/a	wordpools/wordpool_SP.txt	CEPILLO	10	5	[0, 0, 0]	n/a	FR1	2	R1134T
763.22	2.451	711021	WORD	n/a	wordpools/wordpool_SP.txt	SILLA	11	5	[0, 0, 0]	n/a	FR1	2	R1134T
765.671	1.617	713471	WORD	n/a	wordpools/wordpool_SP.txt	CORBATA	12	5	[0, 0, 0]	n/a	FR1	2	R1134T
767.288	0.001	715088	DISTRACT_START	n/a	n/a	n/a	-999	5	[0, 0, 0]	n/a	FR1	2	R1134T
767.289	0.015	715089	START	n/a	n/a	n/a	-999	5	[-999, -999, -999]	n/a	FR1	2	R1134T
767.304	11.486	715104	PROB	11.486	n/a	n/a	-999	5	[3, 7, 9]	7	FR1	2	R1134T
778.79	1.4	726590	PROB	1.4	n/a	n/a	-999	5	[8, 7, 6]	7	FR1	2	R1134T
780.19	1.234	727990	PROB	1.234	n/a	n/a	-999	5	[1, 1, 3]	7	FR1	2	R1134T
781.424	1.55	729224	PROB	1.55	n/a	n/a	-999	5	[7, 8, 3]	7	FR1	2	R1134T
782.974	1.484	730774	PROB	1.484	n/a	n/a	-999	5	[1, 2, 7]	7	FR1	2	R1134T
784.458	1.4	732258	PROB	1.4	n/a	n/a	-999	5	[9, 6, 4]	7	FR1	2	R1134T
785.858	1.498	733657	PROB	1.498	n/a	n/a	-999	5	[5, 4, 6]	7	FR1	2	R1134T
787.356	0.019	735155	STOP	n/a	n/a	n/a	-999	5	[-999, -999, -999]	n/a	FR1	2	R1134T
787.375	1.034	735174	DISTRACT_END	n/a	n/a	n/a	-999	5	[0, 0, 0]	n/a	FR1	2	R1134T
788.409	0.945	736208	REC_START	n/a	n/a	n/a	-999	5	[0, 0, 0]	n/a	FR1	2	R1134T
789.354	0.866	737153	REC_WORD	0.866	n/a	BANCA	-999	5	[0, 0, 0]	n/a	FR1	2	R1134T
790.22	1.767	738019	REC_WORD	1.767	n/a	SORBETE	-999	5	[0, 0, 0]	n/a	FR1	2	R1134T
791.987	3.772	739786	REC_WORD	3.772	n/a	PIE	-999	5	[0, 0, 0]	n/a	FR1	2	R1134T
795.759	5.557	743558	REC_WORD	5.557	n/a	CAPA	-999	5	[0, 0, 0]	n/a	FR1	2	R1134T
801.316	17.102	749115	REC_WORD	17.102	n/a	INTRUSION	-999	5	[0, 0, 0]	n/a	FR1	2	R1134T
818.418	86.861	766216	REC_END	n/a	n/a	n/a	-999	5	[0, 0, 0]	n/a	FR1	2	R1134T
905.279	0.001	853073	COUNTDOWN_START	n/a	n/a	n/a	-999	6	[0, 0, 0]	n/a	FR1	2	R1134T
905.28	10.427	853074	TRIAL	n/a	n/a	n/a	-999	6	[0, 0, 0]	n/a	FR1	2	R1134T
915.707	0.008	863500	COUNTDOWN_END	n/a	n/a	n/a	-999	6	[0, 0, 0]	n/a	FR1	2	R1134T
915.715	2.416	863508	ORIENT	n/a	n/a	n/a	-999	6	[0, 0, 0]	n/a	FR1	2	R1134T
918.131	2.585	865924	WORD	n/a	wordpools/wordpool_SP.txt	GATO	1	6	[0, 0, 0]	n/a	FR1	2	R1134T
920.716	2.533	868509	WORD	n/a	wordpools/wordpool_SP.txt	TREN	2	6	[0, 0, 0]	n/a	FR1	2	R1134T
923.249	2.534	871042	WORD	n/a	wordpools/wordpool_SP.txt	JEEP	3	6	[0, 0, 0]	n/a	FR1	2	R1134T
925.783	2.601	873576	WORD	n/a	wordpools/wordpool_SP.txt	LUNA	4	6	[0, 0, 0]	n/a	FR1	2	R1134T
928.384	2.45	876176	WORD	n/a	wordpools/wordpool_SP.txt	PRINCIPE	5	6	[0, 0, 0]	n/a	FR1	2	R1134T
930.834	2.451	878626	WORD	n/a	wordpools/wordpool_SP.txt	CORAZON	6	6	[0, 0, 0]	n/a	FR1	2	R1134T
933.285	2.467	881077	WORD	n/a	wordpools/wordpool_SP.txt	OSO	7	6	[0, 0, 0]	n/a	FR1	2	R1134T
935.752	2.467	883544	WORD	n/a	wordpools/wordpool_SP.txt	ORO	8	6	[0, 0, 0]	n/a	FR1	2	R1134T
938.219	2.534	886011	WORD	n/a	wordpools/wordpool_SP.txt	UVA	9	6	[0, 0, 0]	n/a	FR1	2	R1134T
940.753	2.383	888545	WORD	n/a	wordpools/wordpool_SP.txt	BOLA	10	6	[0, 0, 0]	n/a	FR1	2	R1134T
943.136	2.551	890928	WORD	n/a	wordpools/wordpool_SP.txt	GRANJA	11	6	[0, 0, 0]	n/a	FR1	2	R1134T
945.687	1.617	893479	WORD	n/a	wordpools/wordpool_SP.txt	MONO	12	6	[0, 0, 0]	n/a	FR1	2	R1134T
947.304	0.001	895095	DISTRACT_START	n/a	n/a	n/a	-999	6	[0, 0, 0]	n/a	FR1	2	R1134T
947.305	0.015	895096	START	n/a	n/a	n/a	-999	6	[-999, -999, -999]	n/a	FR1	2	R1134T
947.32	8.569	895111	PROB	8.569	n/a	n/a	-999	6	[5, 1, 2]	7	FR1	2	R1134T
955.889	2.95	903680	PROB	2.95	n/a	n/a	-999	6	[5, 1, 9]	7	FR1	2	R1134T
958.839	2.752	906630	PROB	2.752	n/a	n/a	-999	6	[3, 4, 7]	7	FR1	2	R1134T
961.591	2.816	909382	PROB	2.816	n/a	n/a	-999	6	[4, 6, 3]	7	FR1	2	R1134T
964.407	2.817	912198	PROB	2.817	n/a	n/a	-999	6	[7, 2, 4]	7	FR1	2	R1134T
967.224	2.531	915014	PROB	2.531	n/a	n/a	-999	6	[3, 7, 2]	7	FR1	2	R1134T
969.755	0.019	917545	STOP	n/a	n/a	n/a	-999	6	[-999, -999, -999]	n/a	FR1	2	R1134T
969.774	1.201	917564	DISTRACT_END	n/a	n/a	n/a	-999	6	[0, 0, 0]	n/a	FR1	2	R1134T
970.975	1.31	918765	REC_START	n/a	n/a	n/a	-999	6	[0, 0, 0]	n/a	FR1	2	R1134T
972.285	6.671	920075	REC_WORD	6.671	n/a	GATO	-999	6	[0, 0, 0]	n/a	FR1	2	R1134T
978.956	9.825	926746	REC_WORD	9.825	n/a	INTRUSION	-999	6	[0, 0, 0]	n/a	FR1	2	R1134T
988.781	1.493	936570	REC_WORD	1.493	n/a	TAZON	-999	6	[0, 0, 0]	n/a	FR1	2	R1134T
990.274	2.722	938063	REC_WORD	2.722	n/a	TAZA	-999	6	[0, 0, 0]	n/a	FR1	2	R1134T
992.996	0.998	940785	REC_WORD	0.998	n/a	POZO	-999	6	[0, 0, 0]	n/a	FR1	2	R1134T
993.994	6.995	941783	REC_WORD	6.995	n/a	CEPILLO	-999	6	[0, 0, 0]	n/a	FR1	2	R1134T
1000.989	1.458	948778	REC_END	n/a	n/a	n/a	-999	6	[0, 0, 0]	n/a	FR1	2	R1134T
1002.447	0.0	950236	TRIAL	n/a	n/a	n/a	-999	7	[0, 0, 0]	n/a	FR1	2	R1134T
1002.447	10.428	950236	COUNTDOWN_START	n/a	n/a	n/a	-999	7	[0, 0, 0]	n/a	FR1	2	R1134T
1012.875	0.007	960663	COUNTDOWN_END	n/a	n/a	n/a	-999	7	[0, 0, 0]	n/a	FR1	2	R1134T
1012.882	2.517	960670	ORIENT	n/a	n/a	n/a	-999	7	[0, 0, 0]	n/a	FR1	2	R1134T
1015.399	2.468	963187	WORD	n/a	wordpools/wordpool_SP.txt	NARIZ	1	7	[0, 0, 0]	n/a	FR1	2	R1134T
1017.867	2.417	965655	WORD	n/a	wordpools/wordpool_SP.txt	RASTRILLO	2	7	[0, 0, 0]	n/a	FR1	2	R1134T
1020.284	2.4	968072	WORD	n/a	wordpools/wordpool_SP.txt	ZORRO	3	7	[0, 0, 0]	n/a	FR1	2	R1134T
1022.684	2.551	970472	WORD	n/a	wordpools/wordpool_SP.txt	ZOOLOGICO	4	7	[0, 0, 0]	n/a	FR1	2	R1134T
1025.235	2.483	973023	WORD	n/a	wordpools/wordpool_SP.txt	SERPIENTE	5	7	[0, 0, 0]	n/a	FR1	2	R1134T
1027.718	2.584	975505	WORD	n/a	wordpools/wordpool_SP.txt	PULGA	6	7	[0, 0, 0]	n/a	FR1	2	R1134T
1030.302	2.417	978089	WORD	n/a	wordpools/wordpool_SP.txt	CASA	7	7	[0, 0, 0]	n/a	FR1	2	R1134T
1032.719	2.534	980506	WORD	n/a	wordpools/wordpool_SP.txt	PATO	8	7	[0, 0, 0]	n/a	FR1	2	R1134T
1035.253	2.584	983040	WORD	n/a	wordpools/wordpool_SP.txt	PALMA	9	7	[0, 0, 0]	n/a	FR1	2	R1134T
1037.837	2.4	985624	WORD	n/a	wordpools/wordpool_SP.txt	PASTEL	10	7	[0, 0, 0]	n/a	FR1	2	R1134T
1040.237	2.501	988024	WORD	n/a	wordpools/wordpool_SP.txt	RUBOR	11	7	[0, 0, 0]	n/a	FR1	2	R1134T
1042.738	1.617	990525	WORD	n/a	wordpools/wordpool_SP.txt	AVE	12	7	[0, 0, 0]	n/a	FR1	2	R1134T
1044.355	0.001	992142	DISTRACT_START	n/a	n/a	n/a	-999	7	[0, 0, 0]	n/a	FR1	2	R1134T
1044.356	0.015	992143	START	n/a	n/a	n/a	-999	7	[-999, -999, -999]	n/a	FR1	2	R1134T
1044.371	3.235	992158	PROB	3.235	n/a	n/a	-999	7	[7, 5, 4]	6	FR1	2	R1134T
1047.606	1.75	995392	PROB	1.75	n/a	n/a	-999	7	[3, 7, 7]	6	FR1	2	R1134T
1049.356	1.817	997142	PROB	1.817	n/a	n/a	-999	7	[4, 9, 6]	6	FR1	2	R1134T
1051.173	1.967	998959	PROB	1.967	n/a	n/a	-999	7	[8, 6, 6]	6	FR1	2	R1134T
1053.14	2.017	1000926	PROB	2.017	n/a	n/a	-999	7	[3, 4, 3]	6	FR1	2	R1134T
1055.157	2.0	1002943	PROB	2.0	n/a	n/a	-999	7	[6, 6, 2]	6	FR1	2	R1134T
1057.157	1.8	1004943	PROB	1.8	n/a	n/a	-999	7	[6, 7, 1]	6	FR1	2	R1134T
1058.957	1.834	1006743	PROB	1.834	n/a	n/a	-999	7	[8, 4, 3]	6	FR1	2	R1134T
1060.791	1.667	1008577	PROB	1.667	n/a	n/a	-999	7	[4, 7, 2]	6	FR1	2	R1134T
1062.458	1.634	1010244	PROB	1.634	n/a	n/a	-999	7	[7, 1, 6]	6	FR1	2	R1134T
1064.092	2.096	1011878	PROB	2.096	n/a	n/a	-999	7	[4, 8, 2]	6	FR1	2	R1134T
1066.188	0.004	1013974	STOP	n/a	n/a	n/a	-999	7	[-999, -999, -999]	n/a	FR1	2	R1134T
1066.192	1.234	1013978	DISTRACT_END	n/a	n/a	n/a	-999	7	[0, 0, 0]	n/a	FR1	2	R1134T
1067.426	0.866	1015211	REC_START	n/a	n/a	n/a	-999	7	[0, 0, 0]	n/a	FR1	2	R1134T
1068.292	5.28	1016077	REC_WORD	5.28	n/a	NARIZ	-999	7	[0, 0, 0]	n/a	FR1	2	R1134T
1073.572	4.273	1021357	REC_WORD	4.273	n/a	DIENTE	-999	7	[0, 0, 0]	n/a	FR1	2	R1134T
1077.845	10.392	1025630	REC_WORD	10.392	n/a	CEPILLO	-999	7	[0, 0, 0]	n/a	FR1	2	R1134T
1088.237	9.203	1036021	REC_WORD	9.203	n/a	AVE	-999	7	[0, 0, 0]	n/a	FR1	2	R1134T
1097.44	3.925	1045224	REC_END	n/a	n/a	n/a	-999	7	[0, 0, 0]	n/a	FR1	2	R1134T
1101.365	0.0	1049149	TRIAL	n/a	n/a	n/a	-999	8	[0, 0, 0]	n/a	FR1	2	R1134T
1101.365	10.428	1049149	COUNTDOWN_START	n/a	n/a	n/a	-999	8	[0, 0, 0]	n/a	FR1	2	R1134T
1111.793	0.007	1059576	COUNTDOWN_END	n/a	n/a	n/a	-999	8	[0, 0, 0]	n/a	FR1	2	R1134T
1111.8	2.417	1059583	ORIENT	n/a	n/a	n/a	-999	8	[0, 0, 0]	n/a	FR1	2	R1134T
1114.217	2.568	1062000	WORD	n/a	wordpools/wordpool_SP.txt	GRUA	1	8	[0, 0, 0]	n/a	FR1	2	R1134T
1116.785	2.516	1064568	WORD	n/a	wordpools/wordpool_SP.txt	CANDADO	2	8	[0, 0, 0]	n/a	FR1	2	R1134T
1119.301	2.451	1067084	WORD	n/a	wordpools/wordpool_SP.txt	CUERVO	3	8	[0, 0, 0]	n/a	FR1	2	R1134T
1121.752	2.601	1069535	WORD	n/a	wordpools/wordpool_SP.txt	ROBLE	4	8	[0, 0, 0]	n/a	FR1	2	R1134T
1124.353	2.55	1072136	WORD	n/a	wordpools/wordpool_SP.txt	HOYO	5	8	[0, 0, 0]	n/a	FR1	2	R1134T
1126.903	2.501	1074685	WORD	n/a	wordpools/wordpool_SP.txt	GUARDIA	6	8	[0, 0, 0]	n/a	FR1	2	R1134T
1129.404	2.4	1077186	WORD	n/a	wordpools/wordpool_SP.txt	LABIO	7	8	[0, 0, 0]	n/a	FR1	2	R1134T
1131.804	2.55	1079586	WORD	n/a	wordpools/wordpool_SP.txt	HERRAMIENTA	8	8	[0, 0, 0]	n/a	FR1	2	R1134T
1134.354	2.451	1082136	WORD	n/a	wordpools/wordpool_SP.txt	CATRE	9	8	[0, 0, 0]	n/a	FR1	2	R1134T
1136.805	2.617	1084587	WORD	n/a	wordpools/wordpool_SP.txt	CESPED	10	8	[0, 0, 0]	n/a	FR1	2	R1134T
1139.422	2.467	1087204	WORD	n/a	wordpools/wordpool_SP.txt	CARPA	11	8	[0, 0, 0]	n/a	FR1	2	R1134T
1141.889	1.601	1089671	WORD	n/a	wordpools/wordpool_SP.txt	CUBO	12	8	[0, 0, 0]	n/a	FR1	2	R1134T
1143.49	0.001	1091272	DISTRACT_START	n/a	n/a	n/a	-999	8	[0, 0, 0]	n/a	FR1	2	R1134T
1143.491	0.016	1091273	START	n/a	n/a	n/a	-999	8	[-999, -999, -999]	n/a	FR1	2	R1134T
1143.507	3.633	1091289	PROB	3.633	n/a	n/a	-999	8	[1, 6, 2]	7	FR1	2	R1134T
1147.14	1.485	1094921	PROB	1.485	n/a	n/a	-999	8	[1, 9, 6]	7	FR1	2	R1134T
1148.625	1.632	1096406	PROB	1.632	n/a	n/a	-999	8	[3, 6, 6]	7	FR1	2	R1134T
1150.257	1.567	1098038	PROB	1.567	n/a	n/a	-999	8	[9, 4, 6]	7	FR1	2	R1134T
1151.824	1.651	1099605	PROB	1.651	n/a	n/a	-999	8	[9, 2, 1]	7	FR1	2	R1134T
1153.475	1.467	1101256	PROB	1.467	n/a	n/a	-999	8	[8, 8, 4]	7	FR1	2	R1134T
1154.942	1.483	1102723	PROB	1.483	n/a	n/a	-999	8	[3, 4, 8]	7	FR1	2	R1134T
1156.425	1.3	1104206	PROB	1.3	n/a	n/a	-999	8	[8, 1, 5]	7	FR1	2	R1134T
1157.725	1.434	1105506	PROB	1.434	n/a	n/a	-999	8	[3, 3, 5]	7	FR1	2	R1134T
1159.159	1.283	1106940	PROB	1.283	n/a	n/a	-999	8	[4, 4, 3]	7	FR1	2	R1134T
1160.442	1.417	1108223	PROB	1.417	n/a	n/a	-999	8	[5, 4, 6]	7	FR1	2	R1134T
1161.859	1.601	1109640	PROB	1.601	n/a	n/a	-999	8	[1, 9, 4]	7	FR1	2	R1134T
1163.46	1.711	1111241	PROB	1.711	n/a	n/a	-999	8	[7, 8, 1]	7	FR1	2	R1134T
1165.171	0.006	1112952	STOP	n/a	n/a	n/a	-999	8	[-999, -999, -999]	n/a	FR1	2	R1134T
1165.177	1.167	1112958	DISTRACT_END	n/a	n/a	n/a	-999	8	[0, 0, 0]	n/a	FR1	2	R1134T
1166.344	0.899	1114125	REC_START	n/a	n/a	n/a	-999	8	[0, 0, 0]	n/a	FR1	2	R1134T
1167.243	1.748	1115023	REC_WORD	1.748	n/a	GRUA	-999	8	[0, 0, 0]	n/a	FR1	2	R1134T
1168.991	4.535	1116771	REC_WORD	4.535	n/a	CANDADO	-999	8	[0, 0, 0]	n/a	FR1	2	R1134T
1173.526	22.832	1121306	REC_WORD	22.832	n/a	JEEP	-999	8	[0, 0, 0]	n/a	FR1	2	R1134T
1196.358	2.341	1144137	REC_END	n/a	n/a	n/a	-999	8	[0, 0, 0]	n/a	FR1	2	R1134T
1198.699	0.001	1146478	COUNTDOWN_START	n/a	n/a	n/a	-999	9	[0, 0, 0]	n/a	FR1	2	R1134T
1198.7	10.427	1146479	TRIAL	n/a	n/a	n/a	-999	9	[0, 0, 0]	n/a	FR1	2	R1134T
1209.127	0.008	1156905	COUNTDOWN_END	n/a	n/a	n/a	-999	9	[0, 0, 0]	n/a	FR1	2	R1134T
1209.135	2.434	1156913	ORIENT	n/a	n/a	n/a	-999	9	[0, 0, 0]	n/a	FR1	2	R1134T
1211.569	2.45	1159347	WORD	n/a	wordpools/wordpool_SP.txt	SOMBRERO	1	9	[0, 0, 0]	n/a	FR1	2	R1134T
1214.019	2.601	1161797	WORD	n/a	wordpools/wordpool_SP.txt	BANO	2	9	[0, 0, 0]	n/a	FR1	2	R1134T
1216.62	2.433	1164398	WORD	n/a	wordpools/wordpool_SP.txt	VACA	3	9	[0, 0, 0]	n/a	FR1	2	R1134T
1219.053	2.452	1166831	WORD	n/a	wordpools/wordpool_SP.txt	VERJA	4	9	[0, 0, 0]	n/a	FR1	2	R1134T
1221.505	2.549	1169283	WORD	n/a	wordpools/wordpool_SP.txt	LODO	5	9	[0, 0, 0]	n/a	FR1	2	R1134T
1224.054	2.601	1171832	WORD	n/a	wordpools/wordpool_SP.txt	FICHA	6	9	[0, 0, 0]	n/a	FR1	2	R1134T
1226.655	2.55	1174433	WORD	n/a	wordpools/wordpool_SP.txt	ALCES	7	9	[0, 0, 0]	n/a	FR1	2	R1134T
1229.205	2.517	1176982	WORD	n/a	wordpools/wordpool_SP.txt	PRIMAVERA	8	9	[0, 0, 0]	n/a	FR1	2	R1134T
1231.722	2.484	1179499	WORD	n/a	wordpools/wordpool_SP.txt	CARA	9	9	[0, 0, 0]	n/a	FR1	2	R1134T
1234.206	2.384	1181983	WORD	n/a	wordpools/wordpool_SP.txt	CABRA	10	9	[0, 0, 0]	n/a	FR1	2	R1134T
1236.59	2.45	1184367	WORD	n/a	wordpools/wordpool_SP.txt	FREGADERO	11	9	[0, 0, 0]	n/a	FR1	2	R1134T
1239.04	1.617	1186817	WORD	n/a	wordpools/wordpool_SP.txt	TE	12	9	[0, 0, 0]	n/a	FR1	2	R1134T
1240.657	0.001	1188434	DISTRACT_START	n/a	n/a	n/a	-999	9	[0, 0, 0]	n/a	FR1	2	R1134T
1240.658	0.016	1188435	START	n/a	n/a	n/a	-999	9	[-999, -999, -999]	n/a	FR1	2	R1134T
1240.674	2.818	1188451	PROB	2.818	n/a	n/a	-999	9	[7, 4, 5]	9	FR1	2	R1134T
1243.492	2.034	1191269	PROB	2.034	n/a	n/a	-999	9	[7, 9, 9]	9	FR1	2	R1134T
1245.526	1.682	1193303	PROB	1.682	n/a	n/a	-999	9	[3, 5, 4]	9	FR1	2	R1134T
1247.208	2.151	1194984	PROB	2.151	n/a	n/a	-999	9	[9, 1, 6]	9	FR1	2	R1134T
1249.359	1.833	1197135	PROB	1.833	n/a	n/a	-999	9	[3, 8, 8]	9	FR1	2	R1134T
1251.192	1.717	1198968	PROB	1.717	n/a	n/a	-999	9	[8, 1, 1]	9	FR1	2	R1134T
1252.909	1.867	1200685	PROB	1.867	n/a	n/a	-999	9	[6, 4, 2]	9	FR1	2	R1134T
1254.776	1.667	1202552	PROB	1.667	n/a	n/a	-999	9	[1, 3, 3]	9	FR1	2	R1134T
1256.443	1.884	1204219	PROB	1.884	n/a	n/a	-999	9	[6, 1, 7]	9	FR1	2	R1134T
1258.327	1.6	1206103	PROB	1.6	n/a	n/a	-999	9	[1, 2, 2]	9	FR1	2	R1134T
1259.927	1.589	1207703	PROB	1.589	n/a	n/a	-999	9	[3, 9, 8]	9	FR1	2	R1134T
1261.516	0.012	1209292	STOP	n/a	n/a	n/a	-999	9	[-999, -999, -999]	n/a	FR1	2	R1134T
1261.528	1.184	1209304	DISTRACT_END	n/a	n/a	n/a	-999	9	[0, 0, 0]	n/a	FR1	2	R1134T
1262.712	0.854	1210488	REC_START	n/a	n/a	n/a	-999	9	[0, 0, 0]	n/a	FR1	2	R1134T
1263.566	13.455	1211342	REC_WORD	13.455	n/a	SOMBRERO	-999	9	[0, 0, 0]	n/a	FR1	2	R1134T
1277.021	2.433	1224796	REC_WORD	2.433	n/a	CABALLO	-999	9	[0, 0, 0]	n/a	FR1	2	R1134T
1279.454	13.268	1227229	REC_WORD	13.268	n/a	AVE	-999	9	[0, 0, 0]	n/a	FR1	2	R1134T
1292.722	2.395	1240496	REC_END	n/a	n/a	n/a	-999	9	[0, 0, 0]	n/a	FR1	2	R1134T
1295.117	0.0	1242891	TRIAL	n/a	n/a	n/a	-999	10	[0, 0, 0]	n/a	FR1	2	R1134T
1295.117	10.428	1242891	COUNTDOWN_START	n/a	n/a	n/a	-999	10	[0, 0, 0]	n/a	FR1	2	R1134T
1305.545	0.008	1253319	COUNTDOWN_END	n/a	n/a	n/a	-999	10	[0, 0, 0]	n/a	FR1	2	R1134T
1305.553	2.533	1253327	ORIENT	n/a	n/a	n/a	-999	10	[0, 0, 0]	n/a	FR1	2	R1134T
1308.086	2.6	1255859	WORD	n/a	wordpools/wordpool_SP.txt	TANQUE	1	10	[0, 0, 0]	n/a	FR1	2	R1134T
1310.686	2.484	1258459	WORD	n/a	wordpools/wordpool_SP.txt	LABERINTO	2	10	[0, 0, 0]	n/a	FR1	2	R1134T
1313.17	2.584	1260943	WORD	n/a	wordpools/wordpool_SP.txt	AUTO	3	10	[0, 0, 0]	n/a	FR1	2	R1134T
1315.754	2.55	1263527	WORD	n/a	wordpools/wordpool_SP.txt	CAMIONETA	4	10	[0, 0, 0]	n/a	FR1	2	R1134T
1318.304	2.484	1266077	WORD	n/a	wordpools/wordpool_SP.txt	VELA	5	10	[0, 0, 0]	n/a	FR1	2	R1134T
1320.788	2.417	1268561	WORD	n/a	wordpools/wordpool_SP.txt	TABLERO	6	10	[0, 0, 0]	n/a	FR1	2	R1134T
1323.205	2.601	1270978	WORD	n/a	wordpools/wordpool_SP.txt	SOPA	7	10	[0, 0, 0]	n/a	FR1	2	R1134T
1325.806	2.55	1273579	WORD	n/a	wordpools/wordpool_SP.txt	JUGUETE	8	10	[0, 0, 0]	n/a	FR1	2	R1134T
1328.356	2.451	1276128	WORD	n/a	wordpools/wordpool_SP.txt	LADRILLO	9	10	[0, 0, 0]	n/a	FR1	2	R1134T
1330.807	2.433	1278579	WORD	n/a	wordpools/wordpool_SP.txt	CARCEL	10	10	[0, 0, 0]	n/a	FR1	2	R1134T
1333.24	2.534	1281012	WORD	n/a	wordpools/wordpool_SP.txt	TORMENTA	11	10	[0, 0, 0]	n/a	FR1	2	R1134T
1335.774	1.617	1283546	WORD	n/a	wordpools/wordpool_SP.txt	BANCO	12	10	[0, 0, 0]	n/a	FR1	2	R1134T
1337.391	0.001	1285163	DISTRACT_START	n/a	n/a	n/a	-999	10	[0, 0, 0]	n/a	FR1	2	R1134T
1337.392	0.016	1285164	START	n/a	n/a	n/a	-999	10	[-999, -999, -999]	n/a	FR1	2	R1134T
1337.408	2.667	1285180	PROB	2.667	n/a	n/a	-999	10	[2, 7, 1]	6	FR1	2	R1134T
1340.075	1.584	1287847	PROB	1.584	n/a	n/a	-999	10	[1, 7, 9]	8	FR1	2	R1134T
1341.659	1.367	1289431	PROB	1.367	n/a	n/a	-999	10	[6, 7, 4]	8	FR1	2	R1134T
1343.026	1.95	1290798	PROB	1.95	n/a	n/a	-999	10	[5, 2, 9]	8	FR1	2	R1134T
1344.976	1.767	1292748	PROB	1.767	n/a	n/a	-999	10	[6, 4, 8]	8	FR1	2	R1134T
1346.743	1.901	1294515	PROB	1.901	n/a	n/a	-999	10	[6, 4, 7]	8	FR1	2	R1134T
1348.644	1.783	1296415	PROB	1.783	n/a	n/a	-999	10	[4, 6, 5]	8	FR1	2	R1134T
1350.427	1.667	1298198	PROB	1.667	n/a	n/a	-999	10	[3, 4, 1]	8	FR1	2	R1134T
1352.094	1.65	1299865	PROB	1.65	n/a	n/a	-999	10	[8, 2, 6]	8	FR1	2	R1134T
1353.744	1.634	1301515	PROB	1.634	n/a	n/a	-999	10	[6, 6, 7]	8	FR1	2	R1134T
1355.378	1.534	1303149	PROB	1.534	n/a	n/a	-999	10	[4, 6, 7]	8	FR1	2	R1134T
1356.912	1.404	1304683	PROB	1.404	n/a	n/a	-999	10	[9, 3, 1]	8	FR1	2	R1134T
1358.316	0.012	1306087	STOP	n/a	n/a	n/a	-999	10	[-999, -999, -999]	n/a	FR1	2	R1134T
1358.328	1.219	1306099	DISTRACT_END	n/a	n/a	n/a	-999	10	[0, 0, 0]	n/a	FR1	2	R1134T
1359.547	0.962	1307318	REC_START	n/a	n/a	n/a	-999	10	[0, 0, 0]	n/a	FR1	2	R1134T
1360.509	4.496	1308280	REC_WORD	4.496	n/a	TANQUE	-999	10	[0, 0, 0]	n/a	FR1	2	R1134T
1365.005	4.333	1312776	REC_WORD	4.333	n/a	LABERINTO	-999	10	[0, 0, 0]	n/a	FR1	2	R1134T
1369.338	20.219	1317108	REC_WORD	20.219	n/a	POZO	-999	10	[0, 0, 0]	n/a	FR1	2	R1134T
1389.557	1.978	1337326	REC_END	n/a	n/a	n/a	-999	10	[0, 0, 0]	n/a	FR1	2	R1134T
1391.535	0.0	1339304	TRIAL	n/a	n/a	n/a	-999	11	[0, 0, 0]	n/a	FR1	2	R1134T
1391.535	10.428	1339304	COUNTDOWN_START	n/a	n/a	n/a	-999	11	[0, 0, 0]	n/a	FR1	2	R1134T
1401.963	0.007	1349732	COUNTDOWN_END	n/a	n/a	n/a	-999	11	[0, 0, 0]	n/a	FR1	2	R1134T
1401.97	2.601	1349739	ORIENT	n/a	n/a	n/a	-999	11	[0, 0, 0]	n/a	FR1	2	R1134T
1404.571	2.516	1352340	WORD	n/a	wordpools/wordpool_SP.txt	PERRO	1	11	[0, 0, 0]	n/a	FR1	2	R1134T
1407.087	2.452	1354856	WORD	n/a	wordpools/wordpool_SP.txt	PIERNA	2	11	[0, 0, 0]	n/a	FR1	2	R1134T
1409.539	2.583	1357307	WORD	n/a	wordpools/wordpool_SP.txt	TABURETE	3	11	[0, 0, 0]	n/a	FR1	2	R1134T
1412.122	2.468	1359890	WORD	n/a	wordpools/wordpool_SP.txt	PLATO	4	11	[0, 0, 0]	n/a	FR1	2	R1134T
1414.59	2.482	1362358	WORD	n/a	wordpools/wordpool_SP.txt	TIZA	5	11	[0, 0, 0]	n/a	FR1	2	R1134T
1417.072	2.402	1364840	WORD	n/a	wordpools/wordpool_SP.txt	BANDEJA	6	11	[0, 0, 0]	n/a	FR1	2	R1134T
1419.474	2.399	1367242	WORD	n/a	wordpools/wordpool_SP.txt	MADERA	7	11	[0, 0, 0]	n/a	FR1	2	R1134T
1421.873	2.417	1369641	WORD	n/a	wordpools/wordpool_SP.txt	VASO	8	11	[0, 0, 0]	n/a	FR1	2	R1134T
1424.29	2.484	1372058	WORD	n/a	wordpools/wordpool_SP.txt	ESCALERA	9	11	[0, 0, 0]	n/a	FR1	2	R1134T
1426.774	2.534	1374542	WORD	n/a	wordpools/wordpool_SP.txt	CORONA	10	11	[0, 0, 0]	n/a	FR1	2	R1134T
1429.308	2.6	1377075	WORD	n/a	wordpools/wordpool_SP.txt	AGUANIEVE	11	11	[0, 0, 0]	n/a	FR1	2	R1134T
1431.908	1.602	1379675	WORD	n/a	wordpools/wordpool_SP.txt	MEDIA	12	11	[0, 0, 0]	n/a	FR1	2	R1134T
1433.51	0.0	1381277	DISTRACT_START	n/a	n/a	n/a	-999	11	[0, 0, 0]	n/a	FR1	2	R1134T
1433.51	0.016	1381277	START	n/a	n/a	n/a	-999	11	[-999, -999, -999]	n/a	FR1	2	R1134T
1433.526	4.001	1381293	PROB	4.001	n/a	n/a	-999	11	[5, 7, 2]	8	FR1	2	R1134T
1437.527	1.766	1385294	PROB	1.766	n/a	n/a	-999	11	[5, 6, 1]	8	FR1	2	R1134T
1439.293	1.75	1387060	PROB	1.75	n/a	n/a	-999	11	[1, 3, 4]	8	FR1	2	R1134T
1441.043	1.901	1388810	PROB	1.901	n/a	n/a	-999	11	[5, 6, 3]	8	FR1	2	R1134T
1442.944	1.9	1390711	PROB	1.9	n/a	n/a	-999	11	[9, 6, 7]	8	FR1	2	R1134T
1444.844	2.15	1392611	PROB	2.15	n/a	n/a	-999	11	[1, 1, 3]	8	FR1	2	R1134T
1446.994	3.234	1394761	PROB	3.234	n/a	n/a	-999	11	[8, 1, 5]	8	FR1	2	R1134T
1450.228	1.734	1397994	PROB	1.734	n/a	n/a	-999	11	[3, 7, 6]	8	FR1	2	R1134T
1451.962	1.738	1399728	PROB	1.738	n/a	n/a	-999	11	[5, 5, 4]	8	FR1	2	R1134T
1453.7	0.012	1401466	STOP	n/a	n/a	n/a	-999	11	[-999, -999, -999]	n/a	FR1	2	R1134T
1453.712	1.102	1401478	DISTRACT_END	n/a	n/a	n/a	-999	11	[0, 0, 0]	n/a	FR1	2	R1134T
1454.814	1.091	1402580	REC_START	n/a	n/a	n/a	-999	11	[0, 0, 0]	n/a	FR1	2	R1134T
1455.905	4.407	1403671	REC_WORD	4.407	n/a	PIERNA	-999	11	[0, 0, 0]	n/a	FR1	2	R1134T
1460.312	2.694	1408078	REC_WORD	2.694	n/a	TABURETE	-999	11	[0, 0, 0]	n/a	FR1	2	R1134T
1463.006	21.817	1410772	REC_WORD	21.817	n/a	CAMION	-999	11	[0, 0, 0]	n/a	FR1	2	R1134T
1484.823	24.399	1432588	REC_END	n/a	n/a	n/a	-999	11	[0, 0, 0]	n/a	FR1	2	R1134T
1509.222	0.001	1456985	COUNTDOWN_START	n/a	n/a	n/a	-999	12	[0, 0, 0]	n/a	FR1	2	R1134T
1509.223	10.427	1456986	TRIAL	n/a	n/a	n/a	-999	12	[0, 0, 0]	n/a	FR1	2	R1134T
1519.65	0.008	1467413	COUNTDOWN_END	n/a	n/a	n/a	-999	12	[0, 0, 0]	n/a	FR1	2	R1134T
1519.658	2.483	1467421	ORIENT	n/a	n/a	n/a	-999	12	[0, 0, 0]	n/a	FR1	2	R1134T
1522.141	2.534	1469904	WORD	n/a	wordpools/wordpool_SP.txt	ESCUELA	1	12	[0, 0, 0]	n/a	FR1	2	R1134T
1524.675	2.601	1472438	WORD	n/a	wordpools/wordpool_SP.txt	VESTIDO	2	12	[0, 0, 0]	n/a	FR1	2	R1134T
1527.276	2.4	1475039	WORD	n/a	wordpools/wordpool_SP.txt	CUERNO	3	12	[0, 0, 0]	n/a	FR1	2	R1134T
1529.676	2.517	1477438	WORD	n/a	wordpools/wordpool_SP.txt	TECHO	4	12	[0, 0, 0]	n/a	FR1	2	R1134T
1532.193	2.452	1479955	WORD	n/a	wordpools/wordpool_SP.txt	CALLE	5	12	[0, 0, 0]	n/a	FR1	2	R1134T
1534.645	2.633	1482407	WORD	n/a	wordpools/wordpool_SP.txt	MANGA	6	12	[0, 0, 0]	n/a	FR1	2	R1134T
1537.278	2.6	1485040	WORD	n/a	wordpools/wordpool_SP.txt	DARDO	7	12	[0, 0, 0]	n/a	FR1	2	R1134T
1539.878	2.45	1487640	WORD	n/a	wordpools/wordpool_SP.txt	PULGAR	8	12	[0, 0, 0]	n/a	FR1	2	R1134T
1542.328	2.601	1490090	WORD	n/a	wordpools/wordpool_SP.txt	BOLIGRAFO	9	12	[0, 0, 0]	n/a	FR1	2	R1134T
1544.929	2.551	1492691	WORD	n/a	wordpools/wordpool_SP.txt	CHALECO	10	12	[0, 0, 0]	n/a	FR1	2	R1134T
1547.48	2.617	1495242	WORD	n/a	wordpools/wordpool_SP.txt	PALO	11	12	[0, 0, 0]	n/a	FR1	2	R1134T
1550.097	1.617	1497858	WORD	n/a	wordpools/wordpool_SP.txt	BOLSO	12	12	[0, 0, 0]	n/a	FR1	2	R1134T
1551.714	0.001	1499475	DISTRACT_START	n/a	n/a	n/a	-999	12	[0, 0, 0]	n/a	FR1	2	R1134T
1551.715	0.015	1499476	START	n/a	n/a	n/a	-999	12	[-999, -999, -999]	n/a	FR1	2	R1134T
1551.73	3.667	1499491	PROB	3.667	n/a	n/a	-999	12	[3, 4, 9]	7	FR1	2	R1134T
1555.397	1.751	1503158	PROB	1.751	n/a	n/a	-999	12	[6, 8, 5]	7	FR1	2	R1134T
1557.148	1.683	1504909	PROB	1.683	n/a	n/a	-999	12	[8, 4, 7]	7	FR1	2	R1134T
1558.831	1.484	1506592	PROB	1.484	n/a	n/a	-999	12	[1, 8, 9]	7	FR1	2	R1134T
1560.315	1.617	1508076	PROB	1.617	n/a	n/a	-999	12	[4, 9, 8]	7	FR1	2	R1134T
1561.932	1.834	1509693	PROB	1.834	n/a	n/a	-999	12	[1, 5, 7]	7	FR1	2	R1134T
1563.766	1.617	1511527	PROB	1.617	n/a	n/a	-999	12	[2, 9, 7]	7	FR1	2	R1134T
1565.383	1.55	1513144	PROB	1.55	n/a	n/a	-999	12	[9, 8, 2]	7	FR1	2	R1134T
1566.933	1.618	1514694	PROB	1.618	n/a	n/a	-999	12	[8, 3, 2]	7	FR1	2	R1134T
1568.551	1.433	1516311	PROB	1.433	n/a	n/a	-999	12	[3, 3, 7]	7	FR1	2	R1134T
1569.984	1.466	1517744	PROB	1.466	n/a	n/a	-999	12	[1, 9, 4]	7	FR1	2	R1134T
1571.45	1.537	1519210	PROB	1.537	n/a	n/a	-999	12	[5, 9, 1]	7	FR1	2	R1134T
1572.987	0.014	1520747	STOP	n/a	n/a	n/a	-999	12	[-999, -999, -999]	n/a	FR1	2	R1134T
1573.001	1.034	1520761	DISTRACT_END	n/a	n/a	n/a	-999	12	[0, 0, 0]	n/a	FR1	2	R1134T
1574.035	6.826	1521795	REC_START	n/a	n/a	n/a	-999	12	[0, 0, 0]	n/a	FR1	2	R1134T
1580.861	23.184	1528621	REC_WORD	23.184	n/a	TABURETE	-999	12	[0, 0, 0]	n/a	FR1	2	R1134T
1604.045	18.081	1551804	REC_END	n/a	n/a	n/a	-999	12	[0, 0, 0]	n/a	FR1	2	R1134T
1622.126	0.0	1569884	COUNTDOWN_START	n/a	n/a	n/a	-999	13	[0, 0, 0]	n/a	FR1	2	R1134T
1622.126	10.428	1569884	TRIAL	n/a	n/a	n/a	-999	13	[0, 0, 0]	n/a	FR1	2	R1134T
1632.554	0.008	1580311	COUNTDOWN_END	n/a	n/a	n/a	-999	13	[0, 0, 0]	n/a	FR1	2	R1134T
1632.562	2.55	1580319	ORIENT	n/a	n/a	n/a	-999	13	[0, 0, 0]	n/a	FR1	2	R1134T
1635.112	2.584	1582869	WORD	n/a	wordpools/wordpool_SP.txt	CORDEL	1	13	[0, 0, 0]	n/a	FR1	2	R1134T
1637.696	2.417	1585453	WORD	n/a	wordpools/wordpool_SP.txt	NUBE	2	13	[0, 0, 0]	n/a	FR1	2	R1134T
1640.113	2.451	1587870	WORD	n/a	wordpools/wordpool_SP.txt	ANZUELO	3	13	[0, 0, 0]	n/a	FR1	2	R1134T
1642.564	2.483	1590321	WORD	n/a	wordpools/wordpool_SP.txt	GUISANTE	4	13	[0, 0, 0]	n/a	FR1	2	R1134T
1645.047	2.417	1592804	WORD	n/a	wordpools/wordpool_SP.txt	ARBOL	5	13	[0, 0, 0]	n/a	FR1	2	R1134T
1647.464	2.567	1595221	WORD	n/a	wordpools/wordpool_SP.txt	GALLINA	6	13	[0, 0, 0]	n/a	FR1	2	R1134T
1650.031	2.485	1597787	WORD	n/a	wordpools/wordpool_SP.txt	BUHO	7	13	[0, 0, 0]	n/a	FR1	2	R1134T
1652.516	2.533	1600272	WORD	n/a	wordpools/wordpool_SP.txt	ALFILER	8	13	[0, 0, 0]	n/a	FR1	2	R1134T
1655.049	2.468	1602805	WORD	n/a	wordpools/wordpool_SP.txt	AVION	9	13	[0, 0, 0]	n/a	FR1	2	R1134T
1657.517	2.599	1605273	WORD	n/a	wordpools/wordpool_SP.txt	CIELO	10	13	[0, 0, 0]	n/a	FR1	2	R1134T
1660.116	2.469	1607872	WORD	n/a	wordpools/wordpool_SP.txt	NIDO	11	13	[0, 0, 0]	n/a	FR1	2	R1134T
1662.585	1.616	1610341	WORD	n/a	wordpools/wordpool_SP.txt	CUADRADO	12	13	[0, 0, 0]	n/a	FR1	2	R1134T
1664.201	0.001	1611957	DISTRACT_START	n/a	n/a	n/a	-999	13	[0, 0, 0]	n/a	FR1	2	R1134T
1664.202	0.015	1611958	START	n/a	n/a	n/a	-999	13	[-999, -999, -999]	n/a	FR1	2	R1134T
1664.217	2.868	1611973	PROB	2.868	n/a	n/a	-999	13	[1, 8, 1]	8	FR1	2	R1134T
1667.085	1.467	1614841	PROB	1.467	n/a	n/a	-999	13	[6, 5, 9]	8	FR1	2	R1134T
1668.552	1.5	1616308	PROB	1.5	n/a	n/a	-999	13	[5, 3, 1]	8	FR1	2	R1134T
1670.052	1.518	1617807	PROB	1.518	n/a	n/a	-999	13	[9, 4, 7]	8	FR1	2	R1134T
1671.57	1.499	1619325	PROB	1.499	n/a	n/a	-999	13	[3, 3, 7]	8	FR1	2	R1134T
1673.069	1.451	1620824	PROB	1.451	n/a	n/a	-999	13	[8, 9, 9]	8	FR1	2	R1134T
1674.52	1.566	1622275	PROB	1.566	n/a	n/a	-999	13	[7, 8, 3]	8	FR1	2	R1134T
1676.086	1.535	1623841	PROB	1.535	n/a	n/a	-999	13	[4, 5, 3]	8	FR1	2	R1134T
1677.621	1.599	1625376	PROB	1.599	n/a	n/a	-999	13	[7, 8, 1]	8	FR1	2	R1134T
1679.22	1.634	1626975	PROB	1.634	n/a	n/a	-999	13	[7, 1, 5]	8	FR1	2	R1134T
1680.854	1.35	1628609	PROB	1.35	n/a	n/a	-999	13	[4, 4, 6]	8	FR1	2	R1134T
1682.204	1.517	1629959	PROB	1.517	n/a	n/a	-999	13	[2, 7, 2]	8	FR1	2	R1134T
1683.721	1.443	1631476	PROB	1.443	n/a	n/a	-999	13	[6, 6, 3]	8	FR1	2	R1134T
1685.164	0.007	1632919	STOP	n/a	n/a	n/a	-999	13	[-999, -999, -999]	n/a	FR1	2	R1134T
1685.171	1.118	1632926	DISTRACT_END	n/a	n/a	n/a	-999	13	[0, 0, 0]	n/a	FR1	2	R1134T
1686.289	3.268	1634044	REC_START	n/a	n/a	n/a	-999	13	[0, 0, 0]	n/a	FR1	2	R1134T
1689.557	1.261	1637311	REC_WORD	1.261	n/a	AVE	-999	13	[0, 0, 0]	n/a	FR1	2	R1134T
1690.818	2.74	1638572	REC_WORD	2.74	n/a	INTRUSION	-999	13	[0, 0, 0]	n/a	FR1	2	R1134T
1693.558	2.039	1641312	REC_WORD	2.039	n/a	CORDEL	-999	13	[0, 0, 0]	n/a	FR1	2	R1134T
1695.597	20.702	1643351	REC_WORD	20.702	n/a	AVION	-999	13	[0, 0, 0]	n/a	FR1	2	R1134T
1716.299	2.662	1664052	REC_END	n/a	n/a	n/a	-999	13	[0, 0, 0]	n/a	FR1	2	R1134T
1718.961	0.0	1666714	TRIAL	n/a	n/a	n/a	-999	14	[0, 0, 0]	n/a	FR1	2	R1134T
1718.961	10.428	1666714	COUNTDOWN_START	n/a	n/a	n/a	-999	14	[0, 0, 0]	n/a	FR1	2	R1134T
1729.389	0.007	1677141	COUNTDOWN_END	n/a	n/a	n/a	-999	14	[0, 0, 0]	n/a	FR1	2	R1134T
1729.396	2.417	1677148	ORIENT	n/a	n/a	n/a	-999	14	[0, 0, 0]	n/a	FR1	2	R1134T
1731.813	2.6	1679565	WORD	n/a	wordpools/wordpool_SP.txt	PISCINA	1	14	[0, 0, 0]	n/a	FR1	2	R1134T
1734.413	2.534	1682165	WORD	n/a	wordpools/wordpool_SP.txt	SAL	2	14	[0, 0, 0]	n/a	FR1	2	R1134T
1736.947	2.384	1684699	WORD	n/a	wordpools/wordpool_SP.txt	REMO	3	14	[0, 0, 0]	n/a	FR1	2	R1134T
1739.331	2.434	1687083	WORD	n/a	wordpools/wordpool_SP.txt	FRIJOL	4	14	[0, 0, 0]	n/a	FR1	2	R1134T
1741.765	2.45	1689517	WORD	n/a	wordpools/wordpool_SP.txt	CAMARON	5	14	[0, 0, 0]	n/a	FR1	2	R1134T
1744.215	2.467	1691967	WORD	n/a	wordpools/wordpool_SP.txt	LLAMA	6	14	[0, 0, 0]	n/a	FR1	2	R1134T
1746.682	2.401	1694434	WORD	n/a	wordpools/wordpool_SP.txt	GANSOS	7	14	[0, 0, 0]	n/a	FR1	2	R1134T
1749.083	2.617	1696834	WORD	n/a	wordpools/wordpool_SP.txt	ALA	8	14	[0, 0, 0]	n/a	FR1	2	R1134T
1751.7	2.384	1699451	WORD	n/a	wordpools/wordpool_SP.txt	ESTUFA	9	14	[0, 0, 0]	n/a	FR1	2	R1134T
1754.084	2.583	1701835	WORD	n/a	wordpools/wordpool_SP.txt	PANTANO	10	14	[0, 0, 0]	n/a	FR1	2	R1134T
1756.667	2.451	1704418	WORD	n/a	wordpools/wordpool_SP.txt	VENADO	11	14	[0, 0, 0]	n/a	FR1	2	R1134T
1759.118	1.617	1706869	WORD	n/a	wordpools/wordpool_SP.txt	TARTA	12	14	[0, 0, 0]	n/a	FR1	2	R1134T
1760.735	0.001	1708486	DISTRACT_START	n/a	n/a	n/a	-999	14	[0, 0, 0]	n/a	FR1	2	R1134T
1760.736	0.016	1708487	START	n/a	n/a	n/a	-999	14	[-999, -999, -999]	n/a	FR1	2	R1134T
1760.752	6.917	1708503	PROB	6.917	n/a	n/a	-999	14	[8, 2, 5]	8	FR1	2	R1134T
1767.669	1.868	1715420	PROB	1.868	n/a	n/a	-999	14	[9, 5, 8]	8	FR1	2	R1134T
1769.537	1.934	1717287	PROB	1.934	n/a	n/a	-999	14	[1, 1, 5]	8	FR1	2	R1134T
1771.471	1.449	1719221	PROB	1.449	n/a	n/a	-999	14	[3, 4, 7]	8	FR1	2	R1134T
1772.92	1.685	1720670	PROB	1.685	n/a	n/a	-999	14	[8, 7, 1]	8	FR1	2	R1134T
1774.605	1.884	1722355	PROB	1.884	n/a	n/a	-999	14	[8, 4, 4]	8	FR1	2	R1134T
1776.489	1.532	1724239	PROB	1.532	n/a	n/a	-999	14	[6, 8, 8]	8	FR1	2	R1134T
1778.021	1.634	1725771	PROB	1.634	n/a	n/a	-999	14	[4, 2, 6]	8	FR1	2	R1134T
1779.655	2.052	1727405	PROB	2.052	n/a	n/a	-999	14	[9, 5, 5]	8	FR1	2	R1134T
1781.707	0.015	1729457	STOP	n/a	n/a	n/a	-999	14	[-999, -999, -999]	n/a	FR1	2	R1134T
1781.722	1.101	1729472	DISTRACT_END	n/a	n/a	n/a	-999	14	[0, 0, 0]	n/a	FR1	2	R1134T
1782.823	3.984	1730573	REC_START	n/a	n/a	n/a	-999	14	[0, 0, 0]	n/a	FR1	2	R1134T
1786.807	4.914	1734557	REC_WORD	4.914	n/a	CAMARON	-999	14	[0, 0, 0]	n/a	FR1	2	R1134T
1791.721	2.941	1739470	REC_WORD	2.941	n/a	PANTANO	-999	14	[0, 0, 0]	n/a	FR1	2	R1134T
1794.662	9.61	1742411	REC_WORD	9.61	n/a	ANZUELO	-999	14	[0, 0, 0]	n/a	FR1	2	R1134T
1804.272	8.561	1752021	REC_WORD	8.561	n/a	ESTUFA	-999	14	[0, 0, 0]	n/a	FR1	2	R1134T
1812.833	104.614	1760581	REC_END	n/a	n/a	n/a	-999	14	[0, 0, 0]	n/a	FR1	2	R1134T
1917.447	0.0	1865190	TRIAL	n/a	n/a	n/a	-999	15	[0, 0, 0]	n/a	FR1	2	R1134T
1917.447	10.428	1865190	COUNTDOWN_START	n/a	n/a	n/a	-999	15	[0, 0, 0]	n/a	FR1	2	R1134T
1927.875	0.007	1875618	COUNTDOWN_END	n/a	n/a	n/a	-999	15	[0, 0, 0]	n/a	FR1	2	R1134T
1927.882	2.567	1875625	ORIENT	n/a	n/a	n/a	-999	15	[0, 0, 0]	n/a	FR1	2	R1134T
1930.449	2.4	1878191	WORD	n/a	wordpools/wordpool_SP.txt	MEJILLA	1	15	[0, 0, 0]	n/a	FR1	2	R1134T
1932.849	2.517	1880591	WORD	n/a	wordpools/wordpool_SP.txt	LLUVIA	2	15	[0, 0, 0]	n/a	FR1	2	R1134T
1935.366	2.584	1883108	WORD	n/a	wordpools/wordpool_SP.txt	TOSTADA	3	15	[0, 0, 0]	n/a	FR1	2	R1134T
1937.95	2.618	1885692	WORD	n/a	wordpools/wordpool_SP.txt	CAPA	4	15	[0, 0, 0]	n/a	FR1	2	R1134T
1940.568	2.55	1888310	WORD	n/a	wordpools/wordpool_SP.txt	TERRENO	5	15	[0, 0, 0]	n/a	FR1	2	R1134T
1943.118	2.468	1890860	WORD	n/a	wordpools/wordpool_SP.txt	ARROZ	6	15	[0, 0, 0]	n/a	FR1	2	R1134T
1945.586	2.516	1893328	WORD	n/a	wordpools/wordpool_SP.txt	MUELLE	7	15	[0, 0, 0]	n/a	FR1	2	R1134T
1948.102	2.435	1895844	WORD	n/a	wordpools/wordpool_SP.txt	BASTON	8	15	[0, 0, 0]	n/a	FR1	2	R1134T
1950.537	2.516	1898278	WORD	n/a	wordpools/wordpool_SP.txt	SOL	9	15	[0, 0, 0]	n/a	FR1	2	R1134T
1953.053	2.634	1900794	WORD	n/a	wordpools/wordpool_SP.txt	BARCO	10	15	[0, 0, 0]	n/a	FR1	2	R1134T
1955.687	2.517	1903428	WORD	n/a	wordpools/wordpool_SP.txt	ANGUILA	11	15	[0, 0, 0]	n/a	FR1	2	R1134T
1958.204	1.617	1905945	WORD	n/a	wordpools/wordpool_SP.txt	ESPUMA	12	15	[0, 0, 0]	n/a	FR1	2	R1134T
1959.821	0.001	1907562	DISTRACT_START	n/a	n/a	n/a	-999	15	[0, 0, 0]	n/a	FR1	2	R1134T
1959.822	0.016	1907563	START	n/a	n/a	n/a	-999	15	[-999, -999, -999]	n/a	FR1	2	R1134T
1959.838	3.718	1907579	PROB	3.718	n/a	n/a	-999	15	[6, 7, 7]	7	FR1	2	R1134T
1963.556	1.883	1911297	PROB	1.883	n/a	n/a	-999	15	[7, 8, 2]	7	FR1	2	R1134T
1965.439	2.051	1913180	PROB	2.051	n/a	n/a	-999	15	[6, 2, 7]	7	FR1	2	R1134T
1967.49	2.566	1915231	PROB	2.566	n/a	n/a	-999	15	[9, 8, 8]	7	FR1	2	R1134T
1970.056	2.35	1917796	PROB	2.35	n/a	n/a	-999	15	[8, 1, 7]	7	FR1	2	R1134T
1972.406	2.401	1920146	PROB	2.401	n/a	n/a	-999	15	[5, 8, 7]	7	FR1	2	R1134T
1974.807	2.434	1922547	PROB	2.434	n/a	n/a	-999	15	[6, 4, 9]	7	FR1	2	R1134T
1977.241	2.335	1924981	PROB	2.335	n/a	n/a	-999	15	[5, 8, 4]	7	FR1	2	R1134T
1979.576	2.3	1927316	PROB	2.3	n/a	n/a	-999	15	[7, 9, 4]	7	FR1	2	R1134T
1981.876	0.016	1929616	STOP	n/a	n/a	n/a	-999	15	[-999, -999, -999]	n/a	FR1	2	R1134T
1981.892	1.101	1929632	DISTRACT_END	n/a	n/a	n/a	-999	15	[0, 0, 0]	n/a	FR1	2	R1134T
1982.993	6.456	1930733	REC_START	n/a	n/a	n/a	-999	15	[0, 0, 0]	n/a	FR1	2	R1134T
1989.449	23.554	1937189	REC_WORD	23.554	n/a	CARA	-999	15	[0, 0, 0]	n/a	FR1	2	R1134T
2013.003	1.711	1960741	REC_END	n/a	n/a	n/a	-999	15	[0, 0, 0]	n/a	FR1	2	R1134T
2014.714	0.001	1962452	COUNTDOWN_START	n/a	n/a	n/a	-999	16	[0, 0, 0]	n/a	FR1	2	R1134T
2014.715	10.427	1962453	TRIAL	n/a	n/a	n/a	-999	16	[0, 0, 0]	n/a	FR1	2	R1134T
2025.142	0.008	1972880	COUNTDOWN_END	n/a	n/a	n/a	-999	16	[0, 0, 0]	n/a	FR1	2	R1134T
2025.15	2.55	1972888	ORIENT	n/a	n/a	n/a	-999	16	[0, 0, 0]	n/a	FR1	2	R1134T
2027.7	2.384	1975438	WORD	n/a	wordpools/wordpool_SP.txt	COLA	1	16	[0, 0, 0]	n/a	FR1	2	R1134T
2030.084	2.518	1977821	WORD	n/a	wordpools/wordpool_SP.txt	RATON	2	16	[0, 0, 0]	n/a	FR1	2	R1134T
2032.602	2.383	1980339	WORD	n/a	wordpools/wordpool_SP.txt	SOGA	3	16	[0, 0, 0]	n/a	FR1	2	R1134T
2034.985	2.501	1982722	WORD	n/a	wordpools/wordpool_SP.txt	TELARANA	4	16	[0, 0, 0]	n/a	FR1	2	R1134T
2037.486	2.616	1985223	WORD	n/a	wordpools/wordpool_SP.txt	TAZA	5	16	[0, 0, 0]	n/a	FR1	2	R1134T
2040.102	2.567	1987839	WORD	n/a	wordpools/wordpool_SP.txt	MOFETA	6	16	[0, 0, 0]	n/a	FR1	2	R1134T
2042.669	2.434	1990406	WORD	n/a	wordpools/wordpool_SP.txt	OVEJA	7	16	[0, 0, 0]	n/a	FR1	2	R1134T
2045.103	2.468	1992840	WORD	n/a	wordpools/wordpool_SP.txt	MASCOTA	8	16	[0, 0, 0]	n/a	FR1	2	R1134T
2047.571	2.616	1995308	WORD	n/a	wordpools/wordpool_SP.txt	TRAPO	9	16	[0, 0, 0]	n/a	FR1	2	R1134T
2050.187	2.452	1997923	WORD	n/a	wordpools/wordpool_SP.txt	HALCON	10	16	[0, 0, 0]	n/a	FR1	2	R1134T
2052.639	2.399	2000375	WORD	n/a	wordpools/wordpool_SP.txt	DULCE	11	16	[0, 0, 0]	n/a	FR1	2	R1134T
2055.038	1.601	2002774	WORD	n/a	wordpools/wordpool_SP.txt	CRIA	12	16	[0, 0, 0]	n/a	FR1	2	R1134T
2056.639	0.001	2004375	DISTRACT_START	n/a	n/a	n/a	-999	16	[0, 0, 0]	n/a	FR1	2	R1134T
2056.64	0.015	2004376	START	n/a	n/a	n/a	-999	16	[-999, -999, -999]	n/a	FR1	2	R1134T
2056.655	3.051	2004391	PROB	3.051	n/a	n/a	-999	16	[1, 7, 9]	88	FR1	2	R1134T
2059.706	2.167	2007442	PROB	2.167	n/a	n/a	-999	16	[4, 5, 7]	8	FR1	2	R1134T
2061.873	2.35	2009609	PROB	2.35	n/a	n/a	-999	16	[2, 3, 5]	8	FR1	2	R1134T
2064.223	2.318	2011959	PROB	2.318	n/a	n/a	-999	16	[2, 5, 4]	8	FR1	2	R1134T
2066.541	2.017	2014277	PROB	2.017	n/a	n/a	-999	16	[4, 5, 1]	8	FR1	2	R1134T
2068.558	2.167	2016294	PROB	2.167	n/a	n/a	-999	16	[3, 2, 9]	8	FR1	2	R1134T
2070.725	2.383	2018460	PROB	2.383	n/a	n/a	-999	16	[6, 7, 8]	8	FR1	2	R1134T
2073.108	2.134	2020843	PROB	2.134	n/a	n/a	-999	16	[5, 7, 6]	8	FR1	2	R1134T
2075.242	2.209	2022977	PROB	2.209	n/a	n/a	-999	16	[2, 1, 9]	8	FR1	2	R1134T
2077.451	0.008	2025186	STOP	n/a	n/a	n/a	-999	16	[-999, -999, -999]	n/a	FR1	2	R1134T
2077.459	1.069	2025194	DISTRACT_END	n/a	n/a	n/a	-999	16	[0, 0, 0]	n/a	FR1	2	R1134T
2078.528	1.383	2026263	REC_START	n/a	n/a	n/a	-999	16	[0, 0, 0]	n/a	FR1	2	R1134T
2079.911	1.026	2027646	REC_WORD	1.026	n/a	CORONA	-999	16	[0, 0, 0]	n/a	FR1	2	R1134T
2080.937	13.403	2028672	REC_WORD	13.403	n/a	RATON	-999	16	[0, 0, 0]	n/a	FR1	2	R1134T
2094.34	9.257	2042074	REC_WORD	9.257	n/a	HERRAMIENTA	-999	16	[0, 0, 0]	n/a	FR1	2	R1134T
2103.597	4.941	2051331	REC_WORD	4.941	n/a	FRUTA	-999	16	[0, 0, 0]	n/a	FR1	2	R1134T
2108.538	7.911	2056272	REC_END	n/a	n/a	n/a	-999	16	[0, 0, 0]	n/a	FR1	2	R1134T
2116.449	0.001	2064182	COUNTDOWN_START	n/a	n/a	n/a	-999	17	[0, 0, 0]	n/a	FR1	2	R1134T
2116.45	10.427	2064183	TRIAL	n/a	n/a	n/a	-999	17	[0, 0, 0]	n/a	FR1	2	R1134T
2126.877	0.008	2074610	COUNTDOWN_END	n/a	n/a	n/a	-999	17	[0, 0, 0]	n/a	FR1	2	R1134T
2126.885	2.5	2074618	ORIENT	n/a	n/a	n/a	-999	17	[0, 0, 0]	n/a	FR1	2	R1134T
2129.385	2.584	2077118	WORD	n/a	wordpools/wordpool_SP.txt	SONRISA	1	17	[0, 0, 0]	n/a	FR1	2	R1134T
2131.969	2.568	2079701	WORD	n/a	wordpools/wordpool_SP.txt	VENTILADOR	2	17	[0, 0, 0]	n/a	FR1	2	R1134T
2134.537	2.516	2082269	WORD	n/a	wordpools/wordpool_SP.txt	CARRO	3	17	[0, 0, 0]	n/a	FR1	2	R1134T
2137.053	2.384	2084785	WORD	n/a	wordpools/wordpool_SP.txt	ASIENTO	4	17	[0, 0, 0]	n/a	FR1	2	R1134T
2139.437	2.567	2087169	WORD	n/a	wordpools/wordpool_SP.txt	CAJA	5	17	[0, 0, 0]	n/a	FR1	2	R1134T
2142.004	2.552	2089736	WORD	n/a	wordpools/wordpool_SP.txt	GUANTE	6	17	[0, 0, 0]	n/a	FR1	2	R1134T
2144.556	2.465	2092288	WORD	n/a	wordpools/wordpool_SP.txt	VARITA	7	17	[0, 0, 0]	n/a	FR1	2	R1134T
2147.021	2.418	2094753	WORD	n/a	wordpools/wordpool_SP.txt	BRAZO	8	17	[0, 0, 0]	n/a	FR1	2	R1134T
2149.439	2.517	2097171	WORD	n/a	wordpools/wordpool_SP.txt	BOLSA	9	17	[0, 0, 0]	n/a	FR1	2	R1134T
2151.956	2.551	2099687	WORD	n/a	wordpools/wordpool_SP.txt	ESCOBA	10	17	[0, 0, 0]	n/a	FR1	2	R1134T
2154.507	2.617	2102238	WORD	n/a	wordpools/wordpool_SP.txt	CERCA	11	17	[0, 0, 0]	n/a	FR1	2	R1134T
2157.124	1.616	2104855	WORD	n/a	wordpools/wordpool_SP.txt	SIGNO	12	17	[0, 0, 0]	n/a	FR1	2	R1134T
2158.74	0.001	2106471	DISTRACT_START	n/a	n/a	n/a	-999	17	[0, 0, 0]	n/a	FR1	2	R1134T
2158.741	0.016	2106472	START	n/a	n/a	n/a	-999	17	[-999, -999, -999]	n/a	FR1	2	R1134T
2158.757	3.017	2106488	PROB	3.017	n/a	n/a	-999	17	[7, 6, 2]	9	FR1	2	R1134T
2161.774	2.351	2109505	PROB	2.351	n/a	n/a	-999	17	[9, 4, 7]	9	FR1	2	R1134T
2164.125	2.117	2111856	PROB	2.117	n/a	n/a	-999	17	[8, 8, 7]	9	FR1	2	R1134T
2166.242	2.184	2113973	PROB	2.184	n/a	n/a	-999	17	[9, 7, 7]	9	FR1	2	R1134T
2168.426	2.333	2116157	PROB	2.333	n/a	n/a	-999	17	[7, 9, 7]	9	FR1	2	R1134T
2170.759	2.134	2118489	PROB	2.134	n/a	n/a	-999	17	[2, 4, 1]	9	FR1	2	R1134T
2172.893	2.167	2120623	PROB	2.167	n/a	n/a	-999	17	[6, 2, 2]	9	FR1	2	R1134T
2175.06	2.167	2122790	PROB	2.167	n/a	n/a	-999	17	[4, 8, 6]	9	FR1	2	R1134T
2177.227	1.952	2124957	PROB	1.952	n/a	n/a	-999	17	[4, 2, 8]	9	FR1	2	R1134T
2179.179	0.015	2126909	STOP	n/a	n/a	n/a	-999	17	[-999, -999, -999]	n/a	FR1	2	R1134T
2179.194	1.134	2126924	DISTRACT_END	n/a	n/a	n/a	-999	17	[0, 0, 0]	n/a	FR1	2	R1134T
2180.328	1.534	2128058	REC_START	n/a	n/a	n/a	-999	17	[0, 0, 0]	n/a	FR1	2	R1134T
2181.862	28.477	2129592	REC_WORD	28.477	n/a	CERCA	-999	17	[0, 0, 0]	n/a	FR1	2	R1134T
2210.339	2.245	2158068	REC_END	n/a	n/a	n/a	-999	17	[0, 0, 0]	n/a	FR1	2	R1134T
2212.584	0.001	2160312	COUNTDOWN_START	n/a	n/a	n/a	-999	18	[0, 0, 0]	n/a	FR1	2	R1134T
2212.585	10.427	2160313	TRIAL	n/a	n/a	n/a	-999	18	[0, 0, 0]	n/a	FR1	2	R1134T
2223.012	0.007	2170740	COUNTDOWN_END	n/a	n/a	n/a	-999	18	[0, 0, 0]	n/a	FR1	2	R1134T
2223.019	2.585	2170747	ORIENT	n/a	n/a	n/a	-999	18	[0, 0, 0]	n/a	FR1	2	R1134T
2225.604	2.516	2173332	WORD	n/a	wordpools/wordpool_SP.txt	CARNET	1	18	[0, 0, 0]	n/a	FR1	2	R1134T
2228.12	2.384	2175848	WORD	n/a	wordpools/wordpool_SP.txt	BANDA	2	18	[0, 0, 0]	n/a	FR1	2	R1134T
2230.504	2.567	2178232	WORD	n/a	wordpools/wordpool_SP.txt	MUNECO	3	18	[0, 0, 0]	n/a	FR1	2	R1134T
2233.071	2.551	2180798	WORD	n/a	wordpools/wordpool_SP.txt	MANGUERA	4	18	[0, 0, 0]	n/a	FR1	2	R1134T
2235.622	2.4	2183349	WORD	n/a	wordpools/wordpool_SP.txt	PANTALONES	5	18	[0, 0, 0]	n/a	FR1	2	R1134T
2238.022	2.501	2185749	WORD	n/a	wordpools/wordpool_SP.txt	HABITACION	6	18	[0, 0, 0]	n/a	FR1	2	R1134T
2240.523	2.433	2188250	WORD	n/a	wordpools/wordpool_SP.txt	TAPETE	7	18	[0, 0, 0]	n/a	FR1	2	R1134T
2242.956	2.467	2190683	WORD	n/a	wordpools/wordpool_SP.txt	PEZUNA	8	18	[0, 0, 0]	n/a	FR1	2	R1134T
2245.423	2.45	2193150	WORD	n/a	wordpools/wordpool_SP.txt	OLA	9	18	[0, 0, 0]	n/a	FR1	2	R1134T
2247.873	2.367	2195600	WORD	n/a	wordpools/wordpool_SP.txt	COLINA	10	18	[0, 0, 0]	n/a	FR1	2	R1134T
2250.24	2.568	2197967	WORD	n/a	wordpools/wordpool_SP.txt	ESCUDO	11	18	[0, 0, 0]	n/a	FR1	2	R1134T
2252.808	1.617	2200534	WORD	n/a	wordpools/wordpool_SP.txt	LAGO	12	18	[0, 0, 0]	n/a	FR1	2	R1134T
2254.425	0.0	2202151	DISTRACT_START	n/a	n/a	n/a	-999	18	[0, 0, 0]	n/a	FR1	2	R1134T
2254.425	0.016	2202151	START	n/a	n/a	n/a	-999	18	[-999, -999, -999]	n/a	FR1	2	R1134T
2254.441	10.736	2202167	PROB	10.736	n/a	n/a	-999	18	[6, 6, 8]	9	FR1	2	R1134T
2265.177	1.7	2212903	PROB	1.7	n/a	n/a	-999	18	[8, 2, 8]	9	FR1	2	R1134T
2266.877	2.434	2214603	PROB	2.434	n/a	n/a	-999	18	[4, 2, 3]	9	FR1	2	R1134T
2269.311	2.218	2217037	PROB	2.218	n/a	n/a	-999	18	[6, 1, 9]	9	FR1	2	R1134T
2271.529	2.117	2219254	PROB	2.117	n/a	n/a	-999	18	[1, 8, 1]	9	FR1	2	R1134T
2273.646	2.053	2221371	PROB	2.053	n/a	n/a	-999	18	[7, 2, 7]	9	FR1	2	R1134T
2275.699	0.013	2223424	STOP	n/a	n/a	n/a	-999	18	[-999, -999, -999]	n/a	FR1	2	R1134T
2275.712	1.151	2223437	DISTRACT_END	n/a	n/a	n/a	-999	18	[0, 0, 0]	n/a	FR1	2	R1134T
2276.863	1.11	2224588	REC_START	n/a	n/a	n/a	-999	18	[0, 0, 0]	n/a	FR1	2	R1134T
2277.973	2.988	2225698	REC_WORD	2.988	n/a	INTRUSION	-999	18	[0, 0, 0]	n/a	FR1	2	R1134T
2280.961	15.932	2228686	REC_WORD	15.932	n/a	NINO	-999	18	[0, 0, 0]	n/a	FR1	2	R1134T
2296.893	2.933	2244617	REC_WORD	2.933	n/a	PEZUNA	-999	18	[0, 0, 0]	n/a	FR1	2	R1134T
2299.826	3.4	2247550	REC_WORD	3.4	n/a	PIE	-999	18	[0, 0, 0]	n/a	FR1	2	R1134T
2303.226	3.647	2250950	REC_WORD	3.647	n/a	PIERNA	-999	18	[0, 0, 0]	n/a	FR1	2	R1134T
2306.873	2.061	2254597	REC_END	n/a	n/a	n/a	-999	18	[0, 0, 0]	n/a	FR1	2	R1134T
2308.934	0.001	2256658	COUNTDOWN_START	n/a	n/a	n/a	-999	19	[0, 0, 0]	n/a	FR1	2	R1134T
2308.935	10.427	2256659	TRIAL	n/a	n/a	n/a	-999	19	[0, 0, 0]	n/a	FR1	2	R1134T
2319.362	0.008	2267085	COUNTDOWN_END	n/a	n/a	n/a	-999	19	[0, 0, 0]	n/a	FR1	2	R1134T
2319.37	2.617	2267093	ORIENT	n/a	n/a	n/a	-999	19	[0, 0, 0]	n/a	FR1	2	R1134T
2321.987	2.618	2269710	WORD	n/a	wordpools/wordpool_SP.txt	PAGINA	1	19	[0, 0, 0]	n/a	FR1	2	R1134T
2324.605	2.616	2272328	WORD	n/a	wordpools/wordpool_SP.txt	ESTRELLA	2	19	[0, 0, 0]	n/a	FR1	2	R1134T
2327.221	2.467	2274944	WORD	n/a	wordpools/wordpool_SP.txt	LOBO	3	19	[0, 0, 0]	n/a	FR1	2	R1134T
2329.688	2.617	2277411	WORD	n/a	wordpools/wordpool_SP.txt	CABALLO	4	19	[0, 0, 0]	n/a	FR1	2	R1134T
2332.305	2.484	2280027	WORD	n/a	wordpools/wordpool_SP.txt	BASURA	5	19	[0, 0, 0]	n/a	FR1	2	R1134T
2334.789	2.484	2282511	WORD	n/a	wordpools/wordpool_SP.txt	CUERDA	6	19	[0, 0, 0]	n/a	FR1	2	R1134T
2337.273	2.6	2284995	WORD	n/a	wordpools/wordpool_SP.txt	HORMIGA	7	19	[0, 0, 0]	n/a	FR1	2	R1134T
2339.873	2.451	2287595	WORD	n/a	wordpools/wordpool_SP.txt	LIBRO	8	19	[0, 0, 0]	n/a	FR1	2	R1134T
2342.324	2.617	2290046	WORD	n/a	wordpools/wordpool_SP.txt	SAPO	9	19	[0, 0, 0]	n/a	FR1	2	R1134T
2344.941	2.384	2292663	WORD	n/a	wordpools/wordpool_SP.txt	EFECTIVO	10	19	[0, 0, 0]	n/a	FR1	2	R1134T
2347.325	2.6	2295047	WORD	n/a	wordpools/wordpool_SP.txt	COSTILLA	11	19	[0, 0, 0]	n/a	FR1	2	R1134T
2349.925	1.601	2297647	WORD	n/a	wordpools/wordpool_SP.txt	HUEVO	12	19	[0, 0, 0]	n/a	FR1	2	R1134T
2351.526	0.001	2299247	DISTRACT_START	n/a	n/a	n/a	-999	19	[0, 0, 0]	n/a	FR1	2	R1134T
2351.527	0.016	2299248	START	n/a	n/a	n/a	-999	19	[-999, -999, -999]	n/a	FR1	2	R1134T
2351.543	47.165	2299264	PROB	47.165	n/a	n/a	-999	19	[9, 1, 9]	8	FR1	2	R1134T
2398.708	0.009	2346427	STOP	n/a	n/a	n/a	-999	19	[-999, -999, -999]	n/a	FR1	2	R1134T
2398.717	1.068	2346436	DISTRACT_END	n/a	n/a	n/a	-999	19	[0, 0, 0]	n/a	FR1	2	R1134T
2399.785	30.0	2347504	REC_START	n/a	n/a	n/a	-999	19	[0, 0, 0]	n/a	FR1	2	R1134T
2429.785	0.01	2377503	REC_WORD_VV	0.01	n/a	<>	-999	19	[0, 0, 0]	n/a	FR1	2	R1134T
2429.795	15.782	2377513	REC_END	n/a	n/a	n/a	-999	19	[0, 0, 0]	n/a	FR1	2	R1134T
2445.577	0.0	2393294	TRIAL	n/a	n/a	n/a	-999	20	[0, 0, 0]	n/a	FR1	2	R1134T
2445.577	10.428	2393294	COUNTDOWN_START	n/a	n/a	n/a	-999	20	[0, 0, 0]	n/a	FR1	2	R1134T
2456.005	0.006	2403721	COUNTDOWN_END	n/a	n/a	n/a	-999	20	[0, 0, 0]	n/a	FR1	2	R1134T
2456.011	2.518	2403727	ORIENT	n/a	n/a	n/a	-999	20	[0, 0, 0]	n/a	FR1	2	R1134T
2458.529	2.616	2406245	WORD	n/a	wordpools/wordpool_SP.txt	ZANJA	1	20	[0, 0, 0]	n/a	FR1	2	R1134T
2461.145	2.551	2408861	WORD	n/a	wordpools/wordpool_SP.txt	MENTON	2	20	[0, 0, 0]	n/a	FR1	2	R1134T
2463.696	2.4	2411412	WORD	n/a	wordpools/wordpool_SP.txt	PUENTE	3	20	[0, 0, 0]	n/a	FR1	2	R1134T
2466.096	2.551	2413812	WORD	n/a	wordpools/wordpool_SP.txt	CAMION	4	20	[0, 0, 0]	n/a	FR1	2	R1134T
2468.647	2.434	2416363	WORD	n/a	wordpools/wordpool_SP.txt	HUMO	5	20	[0, 0, 0]	n/a	FR1	2	R1134T
2471.081	2.534	2418797	WORD	n/a	wordpools/wordpool_SP.txt	VAPOR	6	20	[0, 0, 0]	n/a	FR1	2	R1134T
2473.615	2.4	2421330	WORD	n/a	wordpools/wordpool_SP.txt	LIMO	7	20	[0, 0, 0]	n/a	FR1	2	R1134T
2476.015	2.485	2423730	WORD	n/a	wordpools/wordpool_SP.txt	ZAPATO	8	20	[0, 0, 0]	n/a	FR1	2	R1134T
2478.5	2.582	2426215	WORD	n/a	wordpools/wordpool_SP.txt	ARBUSTO	9	20	[0, 0, 0]	n/a	FR1	2	R1134T
2481.082	2.502	2428797	WORD	n/a	wordpools/wordpool_SP.txt	GRANERO	10	20	[0, 0, 0]	n/a	FR1	2	R1134T
2483.584	2.449	2431299	WORD	n/a	wordpools/wordpool_SP.txt	CARRETERA	11	20	[0, 0, 0]	n/a	FR1	2	R1134T
2486.033	1.601	2433748	WORD	n/a	wordpools/wordpool_SP.txt	TENEDOR	12	20	[0, 0, 0]	n/a	FR1	2	R1134T
2487.634	0.001	2435349	DISTRACT_START	n/a	n/a	n/a	-999	20	[0, 0, 0]	n/a	FR1	2	R1134T
2487.635	0.015	2435350	START	n/a	n/a	n/a	-999	20	[-999, -999, -999]	n/a	FR1	2	R1134T
2487.65	2.952	2435365	PROB	2.952	n/a	n/a	-999	20	[6, 8, 9]	9	FR1	2	R1134T
2490.602	2.249	2438317	PROB	2.249	n/a	n/a	-999	20	[2, 1, 3]	9	FR1	2	R1134T
2492.851	2.217	2440565	PROB	2.217	n/a	n/a	-999	20	[4, 3, 8]	9	FR1	2	R1134T
2495.068	2.435	2442782	PROB	2.435	n/a	n/a	-999	20	[8, 7, 5]	9	FR1	2	R1134T
2497.503	2.149	2445217	PROB	2.149	n/a	n/a	-999	20	[9, 3, 3]	9	FR1	2	R1134T
2499.652	2.284	2447366	PROB	2.284	n/a	n/a	-999	20	[2, 1, 8]	9	FR1	2	R1134T
2501.936	2.234	2449650	PROB	2.234	n/a	n/a	-999	20	[5, 9, 6]	9	FR1	2	R1134T
2504.17	2.435	2451884	PROB	2.435	n/a	n/a	-999	20	[5, 7, 9]	9	FR1	2	R1134T
2506.605	2.238	2454319	PROB	2.238	n/a	n/a	-999	20	[7, 6, 7]	9	FR1	2	R1134T
2508.843	0.011	2456557	STOP	n/a	n/a	n/a	-999	20	[-999, -999, -999]	n/a	FR1	2	R1134T
2508.854	1.118	2456568	DISTRACT_END	n/a	n/a	n/a	-999	20	[0, 0, 0]	n/a	FR1	2	R1134T
2509.972	4.406	2457686	REC_START	n/a	n/a	n/a	-999	20	[0, 0, 0]	n/a	FR1	2	R1134T
2514.378	25.606	2462091	REC_WORD	25.606	n/a	LIMO	-999	20	[0, 0, 0]	n/a	FR1	2	R1134T
2539.984	0.0	2487696	REC_END	n/a	n/a	n/a	-999	20	[0, 0, 0]	n/a	FR1	2	R1134T
