onset	duration	sample	trial_type	response_time	stim_file	item_name	serialpos	list	test	answer	experiment	session	subject
0.0	0.0	6474	INSTRUCT_START	n/a	n/a	n/a	-999	-999	[0, 0, 0]	n/a	FR1	1	R1228M
0.0	11.141	6474	INSTRUCT_END	n/a	n/a	n/a	-999	-999	[0, 0, 0]	n/a	FR1	1	R1228M
11.141	0.0	17614	SESS_START	n/a	n/a	n/a	-999	-999	[0, 0, 0]	n/a	FR1	1	R1228M
11.141	20.0	17614	MIC_TEST	n/a	n/a	n/a	-999	-999	[0, 0, 0]	n/a	FR1	1	R1228M
31.141	3.566	37613	PRACTICE_TRIAL	n/a	n/a	n/a	-999	-1	[0, 0, 0]	n/a	FR1	1	R1228M
34.707	10.428	41179	COUNTDOWN_START	n/a	n/a	n/a	-999	-1	[0, 0, 0]	n/a	FR1	1	R1228M
45.135	0.007	51606	COUNTDOWN_END	n/a	n/a	n/a	-999	-1	[0, 0, 0]	n/a	FR1	1	R1228M
45.142	1.617	51613	PRACTICE_ORIENT	n/a	n/a	n/a	-999	-1	[0, 0, 0]	n/a	FR1	1	R1228M
46.759	2.051	53230	PRACTICE_ORIENT_OFF	n/a	n/a	n/a	-999	-1	[0, 0, 0]	n/a	FR1	1	R1228M
48.81	1.617	55281	PRACTICE_WORD	n/a	n/a	RHINO	1	-1	[0, 0, 0]	n/a	FR1	1	R1228M
50.427	0.8	56898	PRACTICE_WORD_OFF	n/a	n/a	RHINO	-999	-1	[0, 0, 0]	n/a	FR1	1	R1228M
51.227	1.617	57698	PRACTICE_WORD	n/a	n/a	COTTON	2	-1	[0, 0, 0]	n/a	FR1	1	R1228M
52.844	0.867	59315	PRACTICE_WORD_OFF	n/a	n/a	COTTON	-999	-1	[0, 0, 0]	n/a	FR1	1	R1228M
53.711	1.617	60181	PRACTICE_WORD	n/a	n/a	TONGUE	3	-1	[0, 0, 0]	n/a	FR1	1	R1228M
55.328	0.9	61798	PRACTICE_WORD_OFF	n/a	n/a	TONGUE	-999	-1	[0, 0, 0]	n/a	FR1	1	R1228M
56.228	1.617	62698	PRACTICE_WORD	n/a	n/a	CHEST	4	-1	[0, 0, 0]	n/a	FR1	1	R1228M
57.845	0.767	64315	PRACTICE_WORD_OFF	n/a	n/a	CHEST	-999	-1	[0, 0, 0]	n/a	FR1	1	R1228M
58.612	1.617	65082	PRACTICE_WORD	n/a	n/a	FLOOD	5	-1	[0, 0, 0]	n/a	FR1	1	R1228M
60.229	0.766	66699	PRACTICE_WORD_OFF	n/a	n/a	FLOOD	-999	-1	[0, 0, 0]	n/a	FR1	1	R1228M
60.995	1.617	67465	PRACTICE_WORD	n/a	n/a	IRON	6	-1	[0, 0, 0]	n/a	FR1	1	R1228M
62.612	0.851	69082	PRACTICE_WORD_OFF	n/a	n/a	IRON	-999	-1	[0, 0, 0]	n/a	FR1	1	R1228M
63.463	1.616	69933	PRACTICE_WORD	n/a	n/a	WAGON	7	-1	[0, 0, 0]	n/a	FR1	1	R1228M
65.079	0.901	71549	PRACTICE_WORD_OFF	n/a	n/a	WAGON	-999	-1	[0, 0, 0]	n/a	FR1	1	R1228M
65.98	1.617	72450	PRACTICE_WORD	n/a	n/a	RING	8	-1	[0, 0, 0]	n/a	FR1	1	R1228M
67.597	0.883	74067	PRACTICE_WORD_OFF	n/a	n/a	RING	-999	-1	[0, 0, 0]	n/a	FR1	1	R1228M
68.48	1.617	74950	PRACTICE_WORD	n/a	n/a	WATCH	9	-1	[0, 0, 0]	n/a	FR1	1	R1228M
70.097	0.934	76567	PRACTICE_WORD_OFF	n/a	n/a	WATCH	-999	-1	[0, 0, 0]	n/a	FR1	1	R1228M
71.031	1.617	77500	PRACTICE_WORD	n/a	n/a	BEAM	10	-1	[0, 0, 0]	n/a	FR1	1	R1228M
72.648	0.8	79117	PRACTICE_WORD_OFF	n/a	n/a	BEAM	-999	-1	[0, 0, 0]	n/a	FR1	1	R1228M
73.448	1.617	79917	PRACTICE_WORD	n/a	n/a	ATTIC	11	-1	[0, 0, 0]	n/a	FR1	1	R1228M
75.065	0.85	81534	PRACTICE_WORD_OFF	n/a	n/a	ATTIC	-999	-1	[0, 0, 0]	n/a	FR1	1	R1228M
75.915	1.618	82384	PRACTICE_WORD	n/a	n/a	CAMEL	12	-1	[0, 0, 0]	n/a	FR1	1	R1228M
77.533	0.0	84002	DISTRACT_START	n/a	n/a	n/a	-999	-1	[0, 0, 0]	n/a	FR1	1	R1228M
77.533	0.001	84002	PRACTICE_WORD_OFF	n/a	n/a	CAMEL	-999	-1	[0, 0, 0]	n/a	FR1	1	R1228M
77.534	0.015	84003	START	n/a	n/a	n/a	-999	-1	[-999, -999, -999]	n/a	FR1	1	R1228M
77.549	4.267	84018	PROB	4.267	n/a	n/a	-999	-1	[2, 2, 5]	9	FR1	1	R1228M
81.816	6.518	88285	PROB	6.518	n/a	n/a	-999	-1	[9, 5, 8]	22	FR1	1	R1228M
88.334	6.401	94803	PROB	6.401	n/a	n/a	-999	-1	[8, 4, 7]	19	FR1	1	R1228M
94.735	2.975	101203	PROB	2.975	n/a	n/a	-999	-1	[4, 6, 8]	18	FR1	1	R1228M
97.71	0.009	104178	STOP	n/a	n/a	n/a	-999	-1	[-999, -999, -999]	n/a	FR1	1	R1228M
97.719	0.667	104187	DISTRACT_END	n/a	n/a	n/a	-999	-1	[0, 0, 0]	n/a	FR1	1	R1228M
98.386	0.52	104854	RETRIEVAL_ORIENT	n/a	n/a	n/a	-999	-1	[0, 0, 0]	n/a	FR1	1	R1228M
98.906	30.008	105374	PRACTICE_REC_START	n/a	n/a	n/a	-999	-1	[0, 0, 0]	n/a	FR1	1	R1228M
128.914	13.397	135380	PRACTICE_REC_END	n/a	n/a	n/a	-999	-1	[0, 0, 0]	n/a	FR1	1	R1228M
142.311	0.5	148776	TRIAL	n/a	n/a	n/a	-999	1	[0, 0, 0]	n/a	FR1	1	R1228M
142.811	10.428	149276	COUNTDOWN_START	n/a	n/a	n/a	-999	1	[0, 0, 0]	n/a	FR1	1	R1228M
153.239	0.008	159704	COUNTDOWN_END	n/a	n/a	n/a	-999	1	[0, 0, 0]	n/a	FR1	1	R1228M
153.247	1.616	159712	ORIENT	n/a	n/a	n/a	-999	1	[0, 0, 0]	n/a	FR1	1	R1228M
154.863	1.984	161328	ORIENT_OFF	n/a	n/a	n/a	-999	1	[0, 0, 0]	n/a	FR1	1	R1228M
156.847	1.617	163312	WORD	n/a	wordpools/wordpool_EN.txt	SINK	1	1	[0, 0, 0]	n/a	FR1	1	R1228M
158.464	0.884	164929	WORD_OFF	n/a	n/a	SINK	1	1	[0, 0, 0]	n/a	FR1	1	R1228M
159.348	1.617	165812	WORD	n/a	wordpools/wordpool_EN.txt	WEED	2	1	[0, 0, 0]	n/a	FR1	1	R1228M
160.965	0.783	167429	WORD_OFF	n/a	n/a	WEED	2	1	[0, 0, 0]	n/a	FR1	1	R1228M
161.748	1.617	168212	WORD	n/a	wordpools/wordpool_EN.txt	TOAST	3	1	[0, 0, 0]	n/a	FR1	1	R1228M
163.365	0.967	169829	WORD_OFF	n/a	n/a	TOAST	3	1	[0, 0, 0]	n/a	FR1	1	R1228M
164.332	1.617	170796	WORD	n/a	wordpools/wordpool_EN.txt	GEESE	4	1	[0, 0, 0]	n/a	FR1	1	R1228M
165.949	0.8	172413	WORD_OFF	n/a	n/a	GEESE	4	1	[0, 0, 0]	n/a	FR1	1	R1228M
166.749	1.617	173213	WORD	n/a	wordpools/wordpool_EN.txt	PALM	5	1	[0, 0, 0]	n/a	FR1	1	R1228M
168.366	0.967	174830	WORD_OFF	n/a	n/a	PALM	5	1	[0, 0, 0]	n/a	FR1	1	R1228M
169.333	1.617	175797	WORD	n/a	wordpools/wordpool_EN.txt	FOAM	6	1	[0, 0, 0]	n/a	FR1	1	R1228M
170.95	0.933	177414	WORD_OFF	n/a	n/a	FOAM	6	1	[0, 0, 0]	n/a	FR1	1	R1228M
171.883	1.617	178347	WORD	n/a	wordpools/wordpool_EN.txt	BAG	7	1	[0, 0, 0]	n/a	FR1	1	R1228M
173.5	1.001	179964	WORD_OFF	n/a	n/a	BAG	7	1	[0, 0, 0]	n/a	FR1	1	R1228M
174.501	1.617	180965	WORD	n/a	wordpools/wordpool_EN.txt	NEST	8	1	[0, 0, 0]	n/a	FR1	1	R1228M
176.118	0.766	182582	WORD_OFF	n/a	n/a	NEST	8	1	[0, 0, 0]	n/a	FR1	1	R1228M
176.884	1.617	183347	WORD	n/a	wordpools/wordpool_EN.txt	TRAY	9	1	[0, 0, 0]	n/a	FR1	1	R1228M
178.501	0.867	184964	WORD_OFF	n/a	n/a	TRAY	9	1	[0, 0, 0]	n/a	FR1	1	R1228M
179.368	1.617	185831	WORD	n/a	wordpools/wordpool_EN.txt	SNOW	10	1	[0, 0, 0]	n/a	FR1	1	R1228M
180.985	0.85	187448	WORD_OFF	n/a	n/a	SNOW	10	1	[0, 0, 0]	n/a	FR1	1	R1228M
181.835	1.617	188298	WORD	n/a	wordpools/wordpool_EN.txt	COW	11	1	[0, 0, 0]	n/a	FR1	1	R1228M
183.452	0.867	189915	WORD_OFF	n/a	n/a	COW	11	1	[0, 0, 0]	n/a	FR1	1	R1228M
184.319	1.617	190782	WORD	n/a	wordpools/wordpool_EN.txt	FENCE	12	1	[0, 0, 0]	n/a	FR1	1	R1228M
185.936	0.0	192399	WORD_OFF	n/a	n/a	FENCE	12	1	[0, 0, 0]	n/a	FR1	1	R1228M
185.936	0.001	192399	DISTRACT_START	n/a	n/a	n/a	-999	1	[0, 0, 0]	n/a	FR1	1	R1228M
185.937	0.016	192400	START	n/a	n/a	n/a	-999	1	[-999, -999, -999]	n/a	FR1	1	R1228M
185.953	3.517	192416	PROB	3.517	n/a	n/a	-999	1	[9, 8, 2]	19	FR1	1	R1228M
189.47	3.267	195933	PROB	3.267	n/a	n/a	-999	1	[1, 3, 5]	9	FR1	1	R1228M
192.737	3.618	199200	PROB	3.618	n/a	n/a	-999	1	[1, 7, 1]	9	FR1	1	R1228M
196.355	2.867	202817	PROB	2.867	n/a	n/a	-999	1	[5, 4, 3]	12	FR1	1	R1228M
199.222	3.367	205684	PROB	3.367	n/a	n/a	-999	1	[6, 1, 9]	16	FR1	1	R1228M
202.589	2.884	209051	PROB	2.884	n/a	n/a	-999	1	[6, 4, 4]	14	FR1	1	R1228M
205.473	2.749	211935	PROB	2.749	n/a	n/a	-999	1	[9, 6, 1]	16	FR1	1	R1228M
208.222	0.018	214684	STOP	n/a	n/a	n/a	-999	1	[-999, -999, -999]	n/a	FR1	1	R1228M
208.24	0.567	214702	DISTRACT_END	n/a	n/a	n/a	-999	1	[0, 0, 0]	n/a	FR1	1	R1228M
208.807	0.518	215269	RETRIEVAL_ORIENT	n/a	n/a	n/a	-999	1	[0, 0, 0]	n/a	FR1	1	R1228M
209.325	1.995	215787	REC_START	n/a	n/a	n/a	-999	1	[0, 0, 0]	n/a	FR1	1	R1228M
211.32	1.816	217782	REC_WORD	1.816	n/a	SINK	1	1	[0, 0, 0]	n/a	FR1	1	R1228M
213.136	1.858	219597	REC_WORD	1.858	n/a	WEED	2	1	[0, 0, 0]	n/a	FR1	1	R1228M
214.994	9.953	221455	REC_WORD	9.953	n/a	GOOSE	-999	1	[0, 0, 0]	n/a	FR1	1	R1228M
224.947	1.426	231408	REC_WORD	1.426	n/a	SNOW	10	1	[0, 0, 0]	n/a	FR1	1	R1228M
226.373	6.384	232834	REC_WORD	6.384	n/a	TOAST	3	1	[0, 0, 0]	n/a	FR1	1	R1228M
232.757	6.579	239217	REC_WORD	6.579	n/a	FENCE	12	1	[0, 0, 0]	n/a	FR1	1	R1228M
239.336	12.346	245796	REC_END	n/a	n/a	n/a	-999	1	[0, 0, 0]	n/a	FR1	1	R1228M
251.682	0.5	258141	TRIAL	n/a	n/a	n/a	-999	2	[0, 0, 0]	n/a	FR1	1	R1228M
252.182	10.428	258641	COUNTDOWN_START	n/a	n/a	n/a	-999	2	[0, 0, 0]	n/a	FR1	1	R1228M
262.61	0.008	269069	COUNTDOWN_END	n/a	n/a	n/a	-999	2	[0, 0, 0]	n/a	FR1	1	R1228M
262.618	1.617	269077	ORIENT	n/a	n/a	n/a	-999	2	[0, 0, 0]	n/a	FR1	1	R1228M
264.235	1.967	270694	ORIENT_OFF	n/a	n/a	n/a	-999	2	[0, 0, 0]	n/a	FR1	1	R1228M
266.202	1.617	272660	WORD	n/a	wordpools/wordpool_EN.txt	MULE	1	2	[0, 0, 0]	n/a	FR1	1	R1228M
267.819	0.866	274277	WORD_OFF	n/a	n/a	MULE	1	2	[0, 0, 0]	n/a	FR1	1	R1228M
268.685	1.617	275143	WORD	n/a	wordpools/wordpool_EN.txt	SHELL	2	2	[0, 0, 0]	n/a	FR1	1	R1228M
270.302	0.834	276760	WORD_OFF	n/a	n/a	SHELL	2	2	[0, 0, 0]	n/a	FR1	1	R1228M
271.136	1.617	277594	WORD	n/a	wordpools/wordpool_EN.txt	CRANE	3	2	[0, 0, 0]	n/a	FR1	1	R1228M
272.753	0.784	279211	WORD_OFF	n/a	n/a	CRANE	3	2	[0, 0, 0]	n/a	FR1	1	R1228M
273.537	1.616	279995	WORD	n/a	wordpools/wordpool_EN.txt	SHRIMP	4	2	[0, 0, 0]	n/a	FR1	1	R1228M
275.153	0.934	281611	WORD_OFF	n/a	n/a	SHRIMP	4	2	[0, 0, 0]	n/a	FR1	1	R1228M
276.087	1.617	282545	WORD	n/a	wordpools/wordpool_EN.txt	TRAIN	5	2	[0, 0, 0]	n/a	FR1	1	R1228M
277.704	0.95	284162	WORD_OFF	n/a	n/a	TRAIN	5	2	[0, 0, 0]	n/a	FR1	1	R1228M
278.654	1.617	285112	WORD	n/a	wordpools/wordpool_EN.txt	BOARD	6	2	[0, 0, 0]	n/a	FR1	1	R1228M
280.271	0.767	286729	WORD_OFF	n/a	n/a	BOARD	6	2	[0, 0, 0]	n/a	FR1	1	R1228M
281.038	1.617	287496	WORD	n/a	wordpools/wordpool_EN.txt	BEAK	7	2	[0, 0, 0]	n/a	FR1	1	R1228M
282.655	0.917	289113	WORD_OFF	n/a	n/a	BEAK	7	2	[0, 0, 0]	n/a	FR1	1	R1228M
283.572	1.617	290029	WORD	n/a	wordpools/wordpool_EN.txt	PIN	8	2	[0, 0, 0]	n/a	FR1	1	R1228M
285.189	0.983	291646	WORD_OFF	n/a	n/a	PIN	8	2	[0, 0, 0]	n/a	FR1	1	R1228M
286.172	1.617	292629	WORD	n/a	wordpools/wordpool_EN.txt	KEY	9	2	[0, 0, 0]	n/a	FR1	1	R1228M
287.789	1.0	294246	WORD_OFF	n/a	n/a	KEY	9	2	[0, 0, 0]	n/a	FR1	1	R1228M
288.789	1.617	295246	WORD	n/a	wordpools/wordpool_EN.txt	JUICE	10	2	[0, 0, 0]	n/a	FR1	1	R1228M
290.406	0.934	296863	WORD_OFF	n/a	n/a	JUICE	10	2	[0, 0, 0]	n/a	FR1	1	R1228M
291.34	1.617	297797	WORD	n/a	wordpools/wordpool_EN.txt	BOOT	11	2	[0, 0, 0]	n/a	FR1	1	R1228M
292.957	0.933	299414	WORD_OFF	n/a	n/a	BOOT	11	2	[0, 0, 0]	n/a	FR1	1	R1228M
293.89	1.617	300347	WORD	n/a	wordpools/wordpool_EN.txt	TRASH	12	2	[0, 0, 0]	n/a	FR1	1	R1228M
295.507	0.0	301964	WORD_OFF	n/a	n/a	TRASH	12	2	[0, 0, 0]	n/a	FR1	1	R1228M
295.507	0.001	301964	DISTRACT_START	n/a	n/a	n/a	-999	2	[0, 0, 0]	n/a	FR1	1	R1228M
295.508	0.017	301965	START	n/a	n/a	n/a	-999	2	[-999, -999, -999]	n/a	FR1	1	R1228M
295.525	3.183	301982	PROB	3.183	n/a	n/a	-999	2	[5, 6, 5]	16	FR1	1	R1228M
298.708	2.467	305165	PROB	2.467	n/a	n/a	-999	2	[3, 4, 1]	8	FR1	1	R1228M
301.175	2.884	307631	PROB	2.884	n/a	n/a	-999	2	[1, 7, 2]	10	FR1	1	R1228M
304.059	4.668	310515	PROB	4.668	n/a	n/a	-999	2	[7, 6, 2]	15	FR1	1	R1228M
308.727	3.484	315183	PROB	3.484	n/a	n/a	-999	2	[9, 3, 9]	21	FR1	1	R1228M
312.211	4.554	318667	PROB	4.554	n/a	n/a	-999	2	[5, 5, 7]	17	FR1	1	R1228M
316.765	0.013	323221	STOP	n/a	n/a	n/a	-999	2	[-999, -999, -999]	n/a	FR1	1	R1228M
316.778	0.6	323234	DISTRACT_END	n/a	n/a	n/a	-999	2	[0, 0, 0]	n/a	FR1	1	R1228M
317.378	0.518	323834	RETRIEVAL_ORIENT	n/a	n/a	n/a	-999	2	[0, 0, 0]	n/a	FR1	1	R1228M
317.896	2.042	324352	REC_START	n/a	n/a	n/a	-999	2	[0, 0, 0]	n/a	FR1	1	R1228M
319.938	1.13	326393	REC_WORD	1.13	n/a	SHELL	2	2	[0, 0, 0]	n/a	FR1	1	R1228M
321.068	13.162	327523	REC_WORD	13.162	n/a	BEAK	7	2	[0, 0, 0]	n/a	FR1	1	R1228M
334.23	13.678	340685	REC_WORD	13.678	n/a	PIN	8	2	[0, 0, 0]	n/a	FR1	1	R1228M
347.908	3.893	354362	REC_END	n/a	n/a	n/a	-999	2	[0, 0, 0]	n/a	FR1	1	R1228M
351.801	0.5	358255	TRIAL	n/a	n/a	n/a	-999	3	[0, 0, 0]	n/a	FR1	1	R1228M
352.301	10.428	358755	COUNTDOWN_START	n/a	n/a	n/a	-999	3	[0, 0, 0]	n/a	FR1	1	R1228M
362.729	0.008	369182	COUNTDOWN_END	n/a	n/a	n/a	-999	3	[0, 0, 0]	n/a	FR1	1	R1228M
362.737	1.617	369190	ORIENT	n/a	n/a	n/a	-999	3	[0, 0, 0]	n/a	FR1	1	R1228M
364.354	2.168	370807	ORIENT_OFF	n/a	n/a	n/a	-999	3	[0, 0, 0]	n/a	FR1	1	R1228M
366.522	1.616	372975	WORD	n/a	wordpools/wordpool_EN.txt	ROOT	1	3	[0, 0, 0]	n/a	FR1	1	R1228M
368.138	0.917	374591	WORD_OFF	n/a	n/a	ROOT	1	3	[0, 0, 0]	n/a	FR1	1	R1228M
369.055	1.617	375508	WORD	n/a	wordpools/wordpool_EN.txt	STEM	2	3	[0, 0, 0]	n/a	FR1	1	R1228M
370.672	0.883	377125	WORD_OFF	n/a	n/a	STEM	2	3	[0, 0, 0]	n/a	FR1	1	R1228M
371.555	1.617	378007	WORD	n/a	wordpools/wordpool_EN.txt	MOUTH	3	3	[0, 0, 0]	n/a	FR1	1	R1228M
373.172	0.767	379624	WORD_OFF	n/a	n/a	MOUTH	3	3	[0, 0, 0]	n/a	FR1	1	R1228M
373.939	1.617	380391	WORD	n/a	wordpools/wordpool_EN.txt	MILK	4	3	[0, 0, 0]	n/a	FR1	1	R1228M
375.556	0.984	382008	WORD_OFF	n/a	n/a	MILK	4	3	[0, 0, 0]	n/a	FR1	1	R1228M
376.54	1.617	382992	WORD	n/a	wordpools/wordpool_EN.txt	MAIL	5	3	[0, 0, 0]	n/a	FR1	1	R1228M
378.157	0.95	384609	WORD_OFF	n/a	n/a	MAIL	5	3	[0, 0, 0]	n/a	FR1	1	R1228M
379.107	1.617	385559	WORD	n/a	wordpools/wordpool_EN.txt	ELF	6	3	[0, 0, 0]	n/a	FR1	1	R1228M
380.724	0.867	387176	WORD_OFF	n/a	n/a	ELF	6	3	[0, 0, 0]	n/a	FR1	1	R1228M
381.591	1.617	388043	WORD	n/a	wordpools/wordpool_EN.txt	GUARD	7	3	[0, 0, 0]	n/a	FR1	1	R1228M
383.208	0.866	389660	WORD_OFF	n/a	n/a	GUARD	7	3	[0, 0, 0]	n/a	FR1	1	R1228M
384.074	1.618	390526	WORD	n/a	wordpools/wordpool_EN.txt	SPRING	8	3	[0, 0, 0]	n/a	FR1	1	R1228M
385.692	0.834	392144	WORD_OFF	n/a	n/a	SPRING	8	3	[0, 0, 0]	n/a	FR1	1	R1228M
386.526	1.616	392978	WORD	n/a	wordpools/wordpool_EN.txt	COIN	9	3	[0, 0, 0]	n/a	FR1	1	R1228M
388.142	0.9	394594	WORD_OFF	n/a	n/a	COIN	9	3	[0, 0, 0]	n/a	FR1	1	R1228M
389.042	1.617	395493	WORD	n/a	wordpools/wordpool_EN.txt	SEA	10	3	[0, 0, 0]	n/a	FR1	1	R1228M
390.659	0.917	397110	WORD_OFF	n/a	n/a	SEA	10	3	[0, 0, 0]	n/a	FR1	1	R1228M
391.576	1.617	398027	WORD	n/a	wordpools/wordpool_EN.txt	FOOT	11	3	[0, 0, 0]	n/a	FR1	1	R1228M
393.193	0.917	399644	WORD_OFF	n/a	n/a	FOOT	11	3	[0, 0, 0]	n/a	FR1	1	R1228M
394.11	1.616	400561	WORD	n/a	wordpools/wordpool_EN.txt	CAT	12	3	[0, 0, 0]	n/a	FR1	1	R1228M
395.726	0.0	402177	WORD_OFF	n/a	n/a	CAT	12	3	[0, 0, 0]	n/a	FR1	1	R1228M
395.726	0.001	402177	DISTRACT_START	n/a	n/a	n/a	-999	3	[0, 0, 0]	n/a	FR1	1	R1228M
395.727	0.016	402178	START	n/a	n/a	n/a	-999	3	[-999, -999, -999]	n/a	FR1	1	R1228M
395.743	3.151	402194	PROB	3.151	n/a	n/a	-999	3	[3, 4, 9]	16	FR1	1	R1228M
398.894	2.85	405345	PROB	2.85	n/a	n/a	-999	3	[7, 5, 3]	15	FR1	1	R1228M
401.744	3.151	408195	PROB	3.151	n/a	n/a	-999	3	[6, 2, 7]	15	FR1	1	R1228M
404.895	2.184	411346	PROB	2.184	n/a	n/a	-999	3	[8, 2, 4]	14	FR1	1	R1228M
407.079	3.784	413529	PROB	3.784	n/a	n/a	-999	3	[4, 8, 7]	19	FR1	1	R1228M
410.863	5.486	417313	PROB	5.486	n/a	n/a	-999	3	[8, 6, 7]	21	FR1	1	R1228M
416.349	0.015	422799	STOP	n/a	n/a	n/a	-999	3	[-999, -999, -999]	n/a	FR1	1	R1228M
416.364	0.667	422814	DISTRACT_END	n/a	n/a	n/a	-999	3	[0, 0, 0]	n/a	FR1	1	R1228M
417.031	0.518	423481	RETRIEVAL_ORIENT	n/a	n/a	n/a	-999	3	[0, 0, 0]	n/a	FR1	1	R1228M
417.549	1.643	423999	REC_START	n/a	n/a	n/a	-999	3	[0, 0, 0]	n/a	FR1	1	R1228M
419.192	1.299	425642	REC_WORD	1.299	n/a	FOOT	11	3	[0, 0, 0]	n/a	FR1	1	R1228M
420.491	0.966	426941	REC_WORD	0.966	n/a	MOUTH	3	3	[0, 0, 0]	n/a	FR1	1	R1228M
421.457	1.778	427907	REC_WORD	1.778	n/a	SHELL	-999	3	[0, 0, 0]	n/a	FR1	1	R1228M
423.235	1.748	429685	REC_WORD	1.748	n/a	STEM	2	3	[0, 0, 0]	n/a	FR1	1	R1228M
424.983	22.576	431432	REC_WORD	22.576	n/a	ROOT	1	3	[0, 0, 0]	n/a	FR1	1	R1228M
447.559	4.895	454007	REC_END	n/a	n/a	n/a	-999	3	[0, 0, 0]	n/a	FR1	1	R1228M
452.454	0.5	458902	TRIAL	n/a	n/a	n/a	-999	4	[0, 0, 0]	n/a	FR1	1	R1228M
452.954	10.428	459402	COUNTDOWN_START	n/a	n/a	n/a	-999	4	[0, 0, 0]	n/a	FR1	1	R1228M
463.382	0.008	469829	COUNTDOWN_END	n/a	n/a	n/a	-999	4	[0, 0, 0]	n/a	FR1	1	R1228M
463.39	1.617	469837	ORIENT	n/a	n/a	n/a	-999	4	[0, 0, 0]	n/a	FR1	1	R1228M
465.007	2.0	471454	ORIENT_OFF	n/a	n/a	n/a	-999	4	[0, 0, 0]	n/a	FR1	1	R1228M
467.007	1.617	473454	WORD	n/a	wordpools/wordpool_EN.txt	TREE	1	4	[0, 0, 0]	n/a	FR1	1	R1228M
468.624	0.817	475071	WORD_OFF	n/a	n/a	TREE	1	4	[0, 0, 0]	n/a	FR1	1	R1228M
469.441	1.617	475888	WORD	n/a	wordpools/wordpool_EN.txt	STRING	2	4	[0, 0, 0]	n/a	FR1	1	R1228M
471.058	0.9	477505	WORD_OFF	n/a	n/a	STRING	2	4	[0, 0, 0]	n/a	FR1	1	R1228M
471.958	1.617	478405	WORD	n/a	wordpools/wordpool_EN.txt	MOLE	3	4	[0, 0, 0]	n/a	FR1	1	R1228M
473.575	0.917	480022	WORD_OFF	n/a	n/a	MOLE	3	4	[0, 0, 0]	n/a	FR1	1	R1228M
474.492	1.617	480939	WORD	n/a	wordpools/wordpool_EN.txt	WORLD	4	4	[0, 0, 0]	n/a	FR1	1	R1228M
476.109	1.017	482556	WORD_OFF	n/a	n/a	WORLD	4	4	[0, 0, 0]	n/a	FR1	1	R1228M
477.126	1.617	483572	WORD	n/a	wordpools/wordpool_EN.txt	SMOKE	5	4	[0, 0, 0]	n/a	FR1	1	R1228M
478.743	0.883	485189	WORD_OFF	n/a	n/a	SMOKE	5	4	[0, 0, 0]	n/a	FR1	1	R1228M
479.626	1.617	486072	WORD	n/a	wordpools/wordpool_EN.txt	STORE	6	4	[0, 0, 0]	n/a	FR1	1	R1228M
481.243	0.784	487689	WORD_OFF	n/a	n/a	STORE	6	4	[0, 0, 0]	n/a	FR1	1	R1228M
482.027	1.617	488473	WORD	n/a	wordpools/wordpool_EN.txt	TEETH	7	4	[0, 0, 0]	n/a	FR1	1	R1228M
483.644	0.9	490090	WORD_OFF	n/a	n/a	TEETH	7	4	[0, 0, 0]	n/a	FR1	1	R1228M
484.544	1.617	490990	WORD	n/a	wordpools/wordpool_EN.txt	PRINCE	8	4	[0, 0, 0]	n/a	FR1	1	R1228M
486.161	0.85	492607	WORD_OFF	n/a	n/a	PRINCE	8	4	[0, 0, 0]	n/a	FR1	1	R1228M
487.011	1.617	493457	WORD	n/a	wordpools/wordpool_EN.txt	DOCK	9	4	[0, 0, 0]	n/a	FR1	1	R1228M
488.628	0.917	495074	WORD_OFF	n/a	n/a	DOCK	9	4	[0, 0, 0]	n/a	FR1	1	R1228M
489.545	1.617	495991	WORD	n/a	wordpools/wordpool_EN.txt	ICE	10	4	[0, 0, 0]	n/a	FR1	1	R1228M
491.162	0.933	497608	WORD_OFF	n/a	n/a	ICE	10	4	[0, 0, 0]	n/a	FR1	1	R1228M
492.095	1.617	498541	WORD	n/a	wordpools/wordpool_EN.txt	MOUSE	11	4	[0, 0, 0]	n/a	FR1	1	R1228M
493.712	0.917	500158	WORD_OFF	n/a	n/a	MOUSE	11	4	[0, 0, 0]	n/a	FR1	1	R1228M
494.629	1.617	501074	WORD	n/a	wordpools/wordpool_EN.txt	WHEEL	12	4	[0, 0, 0]	n/a	FR1	1	R1228M
496.246	0.0	502691	DISTRACT_START	n/a	n/a	n/a	-999	4	[0, 0, 0]	n/a	FR1	1	R1228M
496.246	0.001	502691	WORD_OFF	n/a	n/a	WHEEL	12	4	[0, 0, 0]	n/a	FR1	1	R1228M
496.247	0.016	502692	START	n/a	n/a	n/a	-999	4	[-999, -999, -999]	n/a	FR1	1	R1228M
496.263	4.101	502708	PROB	4.101	n/a	n/a	-999	4	[4, 2, 7]	13	FR1	1	R1228M
500.364	3.233	506809	PROB	3.233	n/a	n/a	-999	4	[1, 6, 8]	15	FR1	1	R1228M
503.597	4.335	510042	PROB	4.335	n/a	n/a	-999	4	[5, 1, 1]	7	FR1	1	R1228M
507.932	3.184	514377	PROB	3.184	n/a	n/a	-999	4	[1, 2, 4]	7	FR1	1	R1228M
511.116	3.367	517561	PROB	3.367	n/a	n/a	-999	4	[3, 9, 3]	15	FR1	1	R1228M
514.483	2.441	520927	PROB	2.441	n/a	n/a	-999	4	[3, 2, 8]	13	FR1	1	R1228M
516.924	0.009	523368	STOP	n/a	n/a	n/a	-999	4	[-999, -999, -999]	n/a	FR1	1	R1228M
516.933	0.551	523377	DISTRACT_END	n/a	n/a	n/a	-999	4	[0, 0, 0]	n/a	FR1	1	R1228M
517.484	0.517	523928	RETRIEVAL_ORIENT	n/a	n/a	n/a	-999	4	[0, 0, 0]	n/a	FR1	1	R1228M
518.001	1.977	524445	REC_START	n/a	n/a	n/a	-999	4	[0, 0, 0]	n/a	FR1	1	R1228M
519.978	2.325	526422	REC_WORD_VV	2.325	n/a	<>	-999	4	[0, 0, 0]	n/a	FR1	1	R1228M
522.303	1.462	528747	REC_WORD	1.462	n/a	WORLD	4	4	[0, 0, 0]	n/a	FR1	1	R1228M
523.765	7.409	530209	REC_WORD	7.409	n/a	MOUSE	11	4	[0, 0, 0]	n/a	FR1	1	R1228M
531.174	1.069	537617	REC_WORD	1.069	n/a	TREE	1	4	[0, 0, 0]	n/a	FR1	1	R1228M
532.243	8.626	538686	REC_WORD	8.626	n/a	SWAMP	-999	4	[0, 0, 0]	n/a	FR1	1	R1228M
540.869	7.146	547312	REC_WORD	7.146	n/a	SHELL	-999	4	[0, 0, 0]	n/a	FR1	1	R1228M
548.015	5.442	554457	REC_END	n/a	n/a	n/a	-999	4	[0, 0, 0]	n/a	FR1	1	R1228M
553.457	0.5	559899	TRIAL	n/a	n/a	n/a	-999	5	[0, 0, 0]	n/a	FR1	1	R1228M
553.957	10.428	560399	COUNTDOWN_START	n/a	n/a	n/a	-999	5	[0, 0, 0]	n/a	FR1	1	R1228M
564.385	0.008	570827	COUNTDOWN_END	n/a	n/a	n/a	-999	5	[0, 0, 0]	n/a	FR1	1	R1228M
564.393	1.617	570835	ORIENT	n/a	n/a	n/a	-999	5	[0, 0, 0]	n/a	FR1	1	R1228M
566.01	2.067	572451	ORIENT_OFF	n/a	n/a	n/a	-999	5	[0, 0, 0]	n/a	FR1	1	R1228M
568.077	1.617	574518	WORD	n/a	wordpools/wordpool_EN.txt	DART	1	5	[0, 0, 0]	n/a	FR1	1	R1228M
569.694	0.8	576135	WORD_OFF	n/a	n/a	DART	1	5	[0, 0, 0]	n/a	FR1	1	R1228M
570.494	1.617	576935	WORD	n/a	wordpools/wordpool_EN.txt	CLAY	2	5	[0, 0, 0]	n/a	FR1	1	R1228M
572.111	0.817	578552	WORD_OFF	n/a	n/a	CLAY	2	5	[0, 0, 0]	n/a	FR1	1	R1228M
572.928	1.617	579369	WORD	n/a	wordpools/wordpool_EN.txt	TIE	3	5	[0, 0, 0]	n/a	FR1	1	R1228M
574.545	0.8	580986	WORD_OFF	n/a	n/a	TIE	3	5	[0, 0, 0]	n/a	FR1	1	R1228M
575.345	1.617	581786	WORD	n/a	wordpools/wordpool_EN.txt	FAN	4	5	[0, 0, 0]	n/a	FR1	1	R1228M
576.962	0.867	583403	WORD_OFF	n/a	n/a	FAN	4	5	[0, 0, 0]	n/a	FR1	1	R1228M
577.829	1.617	584270	WORD	n/a	wordpools/wordpool_EN.txt	CLOTH	5	5	[0, 0, 0]	n/a	FR1	1	R1228M
579.446	0.816	585887	WORD_OFF	n/a	n/a	CLOTH	5	5	[0, 0, 0]	n/a	FR1	1	R1228M
580.262	1.617	586703	WORD	n/a	wordpools/wordpool_EN.txt	CROW	6	5	[0, 0, 0]	n/a	FR1	1	R1228M
581.879	0.85	588320	WORD_OFF	n/a	n/a	CROW	6	5	[0, 0, 0]	n/a	FR1	1	R1228M
582.729	1.618	589170	WORD	n/a	wordpools/wordpool_EN.txt	BOX	7	5	[0, 0, 0]	n/a	FR1	1	R1228M
584.347	0.9	590787	WORD_OFF	n/a	n/a	BOX	7	5	[0, 0, 0]	n/a	FR1	1	R1228M
585.247	1.617	591687	WORD	n/a	wordpools/wordpool_EN.txt	CLOWN	8	5	[0, 0, 0]	n/a	FR1	1	R1228M
586.864	0.783	593304	WORD_OFF	n/a	n/a	CLOWN	8	5	[0, 0, 0]	n/a	FR1	1	R1228M
587.647	1.617	594087	WORD	n/a	wordpools/wordpool_EN.txt	HAND	9	5	[0, 0, 0]	n/a	FR1	1	R1228M
589.264	0.85	595704	WORD_OFF	n/a	n/a	HAND	9	5	[0, 0, 0]	n/a	FR1	1	R1228M
590.114	1.617	596554	WORD	n/a	wordpools/wordpool_EN.txt	BEAN	10	5	[0, 0, 0]	n/a	FR1	1	R1228M
591.731	1.0	598171	WORD_OFF	n/a	n/a	BEAN	10	5	[0, 0, 0]	n/a	FR1	1	R1228M
592.731	1.617	599171	WORD	n/a	wordpools/wordpool_EN.txt	JAR	11	5	[0, 0, 0]	n/a	FR1	1	R1228M
594.348	0.867	600788	WORD_OFF	n/a	n/a	JAR	11	5	[0, 0, 0]	n/a	FR1	1	R1228M
595.215	1.617	601655	WORD	n/a	wordpools/wordpool_EN.txt	WAVE	12	5	[0, 0, 0]	n/a	FR1	1	R1228M
596.832	0.0	603272	WORD_OFF	n/a	n/a	WAVE	12	5	[0, 0, 0]	n/a	FR1	1	R1228M
596.832	0.001	603272	DISTRACT_START	n/a	n/a	n/a	-999	5	[0, 0, 0]	n/a	FR1	1	R1228M
596.833	0.016	603273	START	n/a	n/a	n/a	-999	5	[-999, -999, -999]	n/a	FR1	1	R1228M
596.849	6.501	603289	PROB	6.501	n/a	n/a	-999	5	[8, 4, 9]	21	FR1	1	R1228M
603.35	2.984	609789	PROB	2.984	n/a	n/a	-999	5	[3, 1, 9]	13	FR1	1	R1228M
606.334	2.567	612773	PROB	2.567	n/a	n/a	-999	5	[7, 5, 5]	17	FR1	1	R1228M
608.901	3.067	615340	PROB	3.067	n/a	n/a	-999	5	[1, 7, 6]	14	FR1	1	R1228M
611.968	2.034	618407	PROB	2.034	n/a	n/a	-999	5	[6, 4, 3]	13	FR1	1	R1228M
614.002	8.011	620441	PROB	8.011	n/a	n/a	-999	5	[7, 6, 6]	19	FR1	1	R1228M
622.013	0.007	628451	STOP	n/a	n/a	n/a	-999	5	[-999, -999, -999]	n/a	FR1	1	R1228M
622.02	0.7	628458	DISTRACT_END	n/a	n/a	n/a	-999	5	[0, 0, 0]	n/a	FR1	1	R1228M
622.72	0.518	629158	RETRIEVAL_ORIENT	n/a	n/a	n/a	-999	5	[0, 0, 0]	n/a	FR1	1	R1228M
623.238	2.256	629676	REC_START	n/a	n/a	n/a	-999	5	[0, 0, 0]	n/a	FR1	1	R1228M
625.494	0.929	631932	REC_WORD	0.929	n/a	SHELL	-999	5	[0, 0, 0]	n/a	FR1	1	R1228M
626.423	0.779	632861	REC_WORD	0.779	n/a	HAND	9	5	[0, 0, 0]	n/a	FR1	1	R1228M
627.202	4.303	633640	REC_WORD	4.303	n/a	CLOWN	8	5	[0, 0, 0]	n/a	FR1	1	R1228M
631.505	9.082	637943	REC_WORD	9.082	n/a	TIE	3	5	[0, 0, 0]	n/a	FR1	1	R1228M
640.587	12.664	647024	REC_WORD	12.664	n/a	CLAY	2	5	[0, 0, 0]	n/a	FR1	1	R1228M
653.251	6.61	659688	REC_END	n/a	n/a	n/a	-999	5	[0, 0, 0]	n/a	FR1	1	R1228M
659.861	0.5	666297	TRIAL	n/a	n/a	n/a	-999	6	[0, 0, 0]	n/a	FR1	1	R1228M
660.361	10.428	666797	COUNTDOWN_START	n/a	n/a	n/a	-999	6	[0, 0, 0]	n/a	FR1	1	R1228M
670.789	0.008	677225	COUNTDOWN_END	n/a	n/a	n/a	-999	6	[0, 0, 0]	n/a	FR1	1	R1228M
670.797	1.617	677233	ORIENT	n/a	n/a	n/a	-999	6	[0, 0, 0]	n/a	FR1	1	R1228M
672.414	1.783	678849	ORIENT_OFF	n/a	n/a	n/a	-999	6	[0, 0, 0]	n/a	FR1	1	R1228M
674.197	1.617	680632	WORD	n/a	wordpools/wordpool_EN.txt	SPEAR	1	6	[0, 0, 0]	n/a	FR1	1	R1228M
675.814	0.834	682249	WORD_OFF	n/a	n/a	SPEAR	1	6	[0, 0, 0]	n/a	FR1	1	R1228M
676.648	1.617	683083	WORD	n/a	wordpools/wordpool_EN.txt	LAMP	2	6	[0, 0, 0]	n/a	FR1	1	R1228M
678.265	0.983	684700	WORD_OFF	n/a	n/a	LAMP	2	6	[0, 0, 0]	n/a	FR1	1	R1228M
679.248	1.617	685683	WORD	n/a	wordpools/wordpool_EN.txt	LAMB	3	6	[0, 0, 0]	n/a	FR1	1	R1228M
680.865	0.867	687300	WORD_OFF	n/a	n/a	LAMB	3	6	[0, 0, 0]	n/a	FR1	1	R1228M
681.732	1.617	688167	WORD	n/a	wordpools/wordpool_EN.txt	SEAT	4	6	[0, 0, 0]	n/a	FR1	1	R1228M
683.349	0.917	689784	WORD_OFF	n/a	n/a	SEAT	4	6	[0, 0, 0]	n/a	FR1	1	R1228M
684.266	1.617	690701	WORD	n/a	wordpools/wordpool_EN.txt	FACE	5	6	[0, 0, 0]	n/a	FR1	1	R1228M
685.883	0.867	692318	WORD_OFF	n/a	n/a	FACE	5	6	[0, 0, 0]	n/a	FR1	1	R1228M
686.75	1.617	693185	WORD	n/a	wordpools/wordpool_EN.txt	DESK	6	6	[0, 0, 0]	n/a	FR1	1	R1228M
688.367	0.95	694802	WORD_OFF	n/a	n/a	DESK	6	6	[0, 0, 0]	n/a	FR1	1	R1228M
689.317	1.617	695751	WORD	n/a	wordpools/wordpool_EN.txt	GOAT	7	6	[0, 0, 0]	n/a	FR1	1	R1228M
690.934	0.783	697368	WORD_OFF	n/a	n/a	GOAT	7	6	[0, 0, 0]	n/a	FR1	1	R1228M
691.717	1.617	698151	WORD	n/a	wordpools/wordpool_EN.txt	SWORD	8	6	[0, 0, 0]	n/a	FR1	1	R1228M
693.334	0.984	699768	WORD_OFF	n/a	n/a	SWORD	8	6	[0, 0, 0]	n/a	FR1	1	R1228M
694.318	1.617	700752	WORD	n/a	wordpools/wordpool_EN.txt	STEAM	9	6	[0, 0, 0]	n/a	FR1	1	R1228M
695.935	0.883	702369	WORD_OFF	n/a	n/a	STEAM	9	6	[0, 0, 0]	n/a	FR1	1	R1228M
696.818	1.617	703252	WORD	n/a	wordpools/wordpool_EN.txt	SHIELD	10	6	[0, 0, 0]	n/a	FR1	1	R1228M
698.435	0.884	704869	WORD_OFF	n/a	n/a	SHIELD	10	6	[0, 0, 0]	n/a	FR1	1	R1228M
699.319	1.617	705753	WORD	n/a	wordpools/wordpool_EN.txt	ARK	11	6	[0, 0, 0]	n/a	FR1	1	R1228M
700.936	0.783	707370	WORD_OFF	n/a	n/a	ARK	11	6	[0, 0, 0]	n/a	FR1	1	R1228M
701.719	1.617	708153	WORD	n/a	wordpools/wordpool_EN.txt	LIP	12	6	[0, 0, 0]	n/a	FR1	1	R1228M
703.336	0.0	709770	DISTRACT_START	n/a	n/a	n/a	-999	6	[0, 0, 0]	n/a	FR1	1	R1228M
703.336	0.001	709770	WORD_OFF	n/a	n/a	LIP	12	6	[0, 0, 0]	n/a	FR1	1	R1228M
703.337	0.016	709771	START	n/a	n/a	n/a	-999	6	[-999, -999, -999]	n/a	FR1	1	R1228M
703.353	3.168	709787	PROB	3.168	n/a	n/a	-999	6	[7, 1, 8]	16	FR1	1	R1228M
706.521	3.083	712954	PROB	3.083	n/a	n/a	-999	6	[8, 4, 5]	17	FR1	1	R1228M
709.604	9.319	716037	PROB	9.319	n/a	n/a	-999	6	[8, 6, 8]	22	FR1	1	R1228M
718.923	2.467	725356	PROB	2.467	n/a	n/a	-999	6	[2, 2, 1]	5	FR1	1	R1228M
721.39	3.303	727823	PROB	3.303	n/a	n/a	-999	6	[3, 3, 3]	9	FR1	1	R1228M
724.693	0.014	731125	STOP	n/a	n/a	n/a	-999	6	[-999, -999, -999]	n/a	FR1	1	R1228M
724.707	0.7	731139	DISTRACT_END	n/a	n/a	n/a	-999	6	[0, 0, 0]	n/a	FR1	1	R1228M
725.407	0.518	731839	RETRIEVAL_ORIENT	n/a	n/a	n/a	-999	6	[0, 0, 0]	n/a	FR1	1	R1228M
725.925	1.666	732357	REC_START	n/a	n/a	n/a	-999	6	[0, 0, 0]	n/a	FR1	1	R1228M
727.591	1.656	734023	REC_WORD	1.656	n/a	SHIELD	10	6	[0, 0, 0]	n/a	FR1	1	R1228M
729.247	1.935	735679	REC_WORD	1.935	n/a	CLOWN	-999	6	[0, 0, 0]	n/a	FR1	1	R1228M
731.182	1.368	737614	REC_WORD	1.368	n/a	DESK	6	6	[0, 0, 0]	n/a	FR1	1	R1228M
732.55	1.906	738982	REC_WORD	1.906	n/a	FACE	5	6	[0, 0, 0]	n/a	FR1	1	R1228M
734.456	21.48	740888	REC_WORD	21.48	n/a	SWORD	8	6	[0, 0, 0]	n/a	FR1	1	R1228M
755.936	4.478	762367	REC_END	n/a	n/a	n/a	-999	6	[0, 0, 0]	n/a	FR1	1	R1228M
760.414	0.5	766844	TRIAL	n/a	n/a	n/a	-999	7	[0, 0, 0]	n/a	FR1	1	R1228M
760.914	10.428	767344	COUNTDOWN_START	n/a	n/a	n/a	-999	7	[0, 0, 0]	n/a	FR1	1	R1228M
771.342	0.007	777772	COUNTDOWN_END	n/a	n/a	n/a	-999	7	[0, 0, 0]	n/a	FR1	1	R1228M
771.349	1.617	777779	ORIENT	n/a	n/a	n/a	-999	7	[0, 0, 0]	n/a	FR1	1	R1228M
772.966	2.201	779396	ORIENT_OFF	n/a	n/a	n/a	-999	7	[0, 0, 0]	n/a	FR1	1	R1228M
775.167	1.617	781597	WORD	n/a	wordpools/wordpool_EN.txt	LEG	1	7	[0, 0, 0]	n/a	FR1	1	R1228M
776.784	0.867	783214	WORD_OFF	n/a	n/a	LEG	1	7	[0, 0, 0]	n/a	FR1	1	R1228M
777.651	1.617	784080	WORD	n/a	wordpools/wordpool_EN.txt	VEST	2	7	[0, 0, 0]	n/a	FR1	1	R1228M
779.268	0.9	785697	WORD_OFF	n/a	n/a	VEST	2	7	[0, 0, 0]	n/a	FR1	1	R1228M
780.168	1.617	786597	WORD	n/a	wordpools/wordpool_EN.txt	BRICK	3	7	[0, 0, 0]	n/a	FR1	1	R1228M
781.785	0.883	788214	WORD_OFF	n/a	n/a	BRICK	3	7	[0, 0, 0]	n/a	FR1	1	R1228M
782.668	1.617	789097	WORD	n/a	wordpools/wordpool_EN.txt	DOLL	4	7	[0, 0, 0]	n/a	FR1	1	R1228M
784.285	0.884	790714	WORD_OFF	n/a	n/a	DOLL	4	7	[0, 0, 0]	n/a	FR1	1	R1228M
785.169	1.617	791598	WORD	n/a	wordpools/wordpool_EN.txt	SHIRT	5	7	[0, 0, 0]	n/a	FR1	1	R1228M
786.786	0.933	793215	WORD_OFF	n/a	n/a	SHIRT	5	7	[0, 0, 0]	n/a	FR1	1	R1228M
787.719	1.617	794148	WORD	n/a	wordpools/wordpool_EN.txt	JEEP	6	7	[0, 0, 0]	n/a	FR1	1	R1228M
789.336	0.817	795765	WORD_OFF	n/a	n/a	JEEP	6	7	[0, 0, 0]	n/a	FR1	1	R1228M
790.153	1.617	796582	WORD	n/a	wordpools/wordpool_EN.txt	ARM	7	7	[0, 0, 0]	n/a	FR1	1	R1228M
791.77	0.8	798199	WORD_OFF	n/a	n/a	ARM	7	7	[0, 0, 0]	n/a	FR1	1	R1228M
792.57	1.617	798999	WORD	n/a	wordpools/wordpool_EN.txt	LOCK	8	7	[0, 0, 0]	n/a	FR1	1	R1228M
794.187	0.917	800616	WORD_OFF	n/a	n/a	LOCK	8	7	[0, 0, 0]	n/a	FR1	1	R1228M
795.104	1.617	801532	WORD	n/a	wordpools/wordpool_EN.txt	STEAK	9	7	[0, 0, 0]	n/a	FR1	1	R1228M
796.721	1.0	803149	WORD_OFF	n/a	n/a	STEAK	9	7	[0, 0, 0]	n/a	FR1	1	R1228M
797.721	1.617	804149	WORD	n/a	wordpools/wordpool_EN.txt	SHOE	10	7	[0, 0, 0]	n/a	FR1	1	R1228M
799.338	0.967	805766	WORD_OFF	n/a	n/a	SHOE	10	7	[0, 0, 0]	n/a	FR1	1	R1228M
800.305	1.617	806733	WORD	n/a	wordpools/wordpool_EN.txt	MOOSE	11	7	[0, 0, 0]	n/a	FR1	1	R1228M
801.922	0.917	808350	WORD_OFF	n/a	n/a	MOOSE	11	7	[0, 0, 0]	n/a	FR1	1	R1228M
802.839	1.617	809267	WORD	n/a	wordpools/wordpool_EN.txt	FOX	12	7	[0, 0, 0]	n/a	FR1	1	R1228M
804.456	0.0	810884	WORD_OFF	n/a	n/a	FOX	12	7	[0, 0, 0]	n/a	FR1	1	R1228M
804.456	0.0	810884	DISTRACT_START	n/a	n/a	n/a	-999	7	[0, 0, 0]	n/a	FR1	1	R1228M
804.456	0.016	810884	START	n/a	n/a	n/a	-999	7	[-999, -999, -999]	n/a	FR1	1	R1228M
804.472	4.668	810900	PROB	4.668	n/a	n/a	-999	7	[4, 9, 9]	22	FR1	1	R1228M
809.14	4.451	815568	PROB	4.451	n/a	n/a	-999	7	[8, 6, 2]	16	FR1	1	R1228M
813.591	4.084	820018	PROB	4.084	n/a	n/a	-999	7	[4, 9, 8]	21	FR1	1	R1228M
817.675	3.167	824102	PROB	3.167	n/a	n/a	-999	7	[6, 5, 2]	13	FR1	1	R1228M
820.842	4.38	827269	PROB	4.38	n/a	n/a	-999	7	[9, 5, 6]	20	FR1	1	R1228M
825.222	0.021	831649	STOP	n/a	n/a	n/a	-999	7	[-999, -999, -999]	n/a	FR1	1	R1228M
825.243	0.667	831670	DISTRACT_END	n/a	n/a	n/a	-999	7	[0, 0, 0]	n/a	FR1	1	R1228M
825.91	0.518	832337	RETRIEVAL_ORIENT	n/a	n/a	n/a	-999	7	[0, 0, 0]	n/a	FR1	1	R1228M
826.428	1.984	832855	REC_START	n/a	n/a	n/a	-999	7	[0, 0, 0]	n/a	FR1	1	R1228M
828.412	1.215	834839	REC_WORD	1.215	n/a	LEG	1	7	[0, 0, 0]	n/a	FR1	1	R1228M
829.627	1.547	836054	REC_WORD	1.547	n/a	SHELL	-999	7	[0, 0, 0]	n/a	FR1	1	R1228M
831.174	4.561	837600	REC_WORD	4.561	n/a	JEEP	6	7	[0, 0, 0]	n/a	FR1	1	R1228M
835.735	3.502	842161	REC_WORD	3.502	n/a	SHIRT	5	7	[0, 0, 0]	n/a	FR1	1	R1228M
839.237	17.205	845663	REC_WORD	17.205	n/a	ARM	7	7	[0, 0, 0]	n/a	FR1	1	R1228M
856.442	5.258	862867	REC_END	n/a	n/a	n/a	-999	7	[0, 0, 0]	n/a	FR1	1	R1228M
861.7	0.5	868125	TRIAL	n/a	n/a	n/a	-999	8	[0, 0, 0]	n/a	FR1	1	R1228M
862.2	10.428	868625	COUNTDOWN_START	n/a	n/a	n/a	-999	8	[0, 0, 0]	n/a	FR1	1	R1228M
872.628	0.008	879052	COUNTDOWN_END	n/a	n/a	n/a	-999	8	[0, 0, 0]	n/a	FR1	1	R1228M
872.636	1.617	879060	ORIENT	n/a	n/a	n/a	-999	8	[0, 0, 0]	n/a	FR1	1	R1228M
874.253	2.133	880677	ORIENT_OFF	n/a	n/a	n/a	-999	8	[0, 0, 0]	n/a	FR1	1	R1228M
876.386	1.617	882810	WORD	n/a	wordpools/wordpool_EN.txt	RAKE	1	8	[0, 0, 0]	n/a	FR1	1	R1228M
878.003	0.917	884427	WORD_OFF	n/a	n/a	RAKE	1	8	[0, 0, 0]	n/a	FR1	1	R1228M
878.92	1.601	885344	WORD	n/a	wordpools/wordpool_EN.txt	HAT	2	8	[0, 0, 0]	n/a	FR1	1	R1228M
880.521	0.783	886945	WORD_OFF	n/a	n/a	HAT	2	8	[0, 0, 0]	n/a	FR1	1	R1228M
881.304	1.617	887728	WORD	n/a	wordpools/wordpool_EN.txt	THUMB	3	8	[0, 0, 0]	n/a	FR1	1	R1228M
882.921	0.9	889345	WORD_OFF	n/a	n/a	THUMB	3	8	[0, 0, 0]	n/a	FR1	1	R1228M
883.821	1.617	890244	WORD	n/a	wordpools/wordpool_EN.txt	BREAD	4	8	[0, 0, 0]	n/a	FR1	1	R1228M
885.438	1.0	891861	WORD_OFF	n/a	n/a	BREAD	4	8	[0, 0, 0]	n/a	FR1	1	R1228M
886.438	1.617	892861	WORD	n/a	wordpools/wordpool_EN.txt	TOOL	5	8	[0, 0, 0]	n/a	FR1	1	R1228M
888.055	0.85	894478	WORD_OFF	n/a	n/a	TOOL	5	8	[0, 0, 0]	n/a	FR1	1	R1228M
888.905	1.619	895328	WORD	n/a	wordpools/wordpool_EN.txt	DITCH	6	8	[0, 0, 0]	n/a	FR1	1	R1228M
890.524	0.932	896947	WORD_OFF	n/a	n/a	DITCH	6	8	[0, 0, 0]	n/a	FR1	1	R1228M
891.456	1.617	897879	WORD	n/a	wordpools/wordpool_EN.txt	CONE	7	8	[0, 0, 0]	n/a	FR1	1	R1228M
893.073	0.783	899496	WORD_OFF	n/a	n/a	CONE	7	8	[0, 0, 0]	n/a	FR1	1	R1228M
893.856	1.617	900279	WORD	n/a	wordpools/wordpool_EN.txt	POLE	8	8	[0, 0, 0]	n/a	FR1	1	R1228M
895.473	0.901	901896	WORD_OFF	n/a	n/a	POLE	8	8	[0, 0, 0]	n/a	FR1	1	R1228M
896.374	1.617	902797	WORD	n/a	wordpools/wordpool_EN.txt	HEN	9	8	[0, 0, 0]	n/a	FR1	1	R1228M
897.991	0.966	904414	WORD_OFF	n/a	n/a	HEN	9	8	[0, 0, 0]	n/a	FR1	1	R1228M
898.957	1.617	905380	WORD	n/a	wordpools/wordpool_EN.txt	WAND	10	8	[0, 0, 0]	n/a	FR1	1	R1228M
900.574	0.952	906997	WORD_OFF	n/a	n/a	WAND	10	8	[0, 0, 0]	n/a	FR1	1	R1228M
901.526	1.616	907948	WORD	n/a	wordpools/wordpool_EN.txt	CART	11	8	[0, 0, 0]	n/a	FR1	1	R1228M
903.142	0.9	909564	WORD_OFF	n/a	n/a	CART	11	8	[0, 0, 0]	n/a	FR1	1	R1228M
904.042	1.617	910464	WORD	n/a	wordpools/wordpool_EN.txt	YARD	12	8	[0, 0, 0]	n/a	FR1	1	R1228M
905.659	0.0	912081	WORD_OFF	n/a	n/a	YARD	12	8	[0, 0, 0]	n/a	FR1	1	R1228M
905.659	0.0	912081	DISTRACT_START	n/a	n/a	n/a	-999	8	[0, 0, 0]	n/a	FR1	1	R1228M
905.659	0.016	912081	START	n/a	n/a	n/a	-999	8	[-999, -999, -999]	n/a	FR1	1	R1228M
905.675	3.468	912097	PROB	3.468	n/a	n/a	-999	8	[6, 3, 2]	11	FR1	1	R1228M
909.143	2.834	915565	PROB	2.834	n/a	n/a	-999	8	[8, 2, 8]	18	FR1	1	R1228M
911.977	2.267	918399	PROB	2.267	n/a	n/a	-999	8	[4, 5, 3]	12	FR1	1	R1228M
914.244	5.984	920666	PROB	5.984	n/a	n/a	-999	8	[3, 8, 9]	20	FR1	1	R1228M
920.228	3.651	926649	PROB	3.651	n/a	n/a	-999	8	[5, 7, 5]	17	FR1	1	R1228M
923.879	5.999	930300	PROB	5.999	n/a	n/a	-999	8	[5, 3, 4]	12	FR1	1	R1228M
929.878	0.019	936299	STOP	n/a	n/a	n/a	-999	8	[-999, -999, -999]	n/a	FR1	1	R1228M
929.897	0.634	936318	DISTRACT_END	n/a	n/a	n/a	-999	8	[0, 0, 0]	n/a	FR1	1	R1228M
930.531	0.517	936952	RETRIEVAL_ORIENT	n/a	n/a	n/a	-999	8	[0, 0, 0]	n/a	FR1	1	R1228M
931.048	1.338	937469	REC_START	n/a	n/a	n/a	-999	8	[0, 0, 0]	n/a	FR1	1	R1228M
932.386	1.624	938807	REC_WORD	1.624	n/a	SHELL	-999	8	[0, 0, 0]	n/a	FR1	1	R1228M
934.01	27.051	940431	REC_WORD	27.051	n/a	JEEP	-999	8	[0, 0, 0]	n/a	FR1	1	R1228M
961.061	4.059	967480	REC_END	n/a	n/a	n/a	-999	8	[0, 0, 0]	n/a	FR1	1	R1228M
965.12	0.5	971539	TRIAL	n/a	n/a	n/a	-999	9	[0, 0, 0]	n/a	FR1	1	R1228M
965.62	10.428	972039	COUNTDOWN_START	n/a	n/a	n/a	-999	9	[0, 0, 0]	n/a	FR1	1	R1228M
976.048	0.008	982466	COUNTDOWN_END	n/a	n/a	n/a	-999	9	[0, 0, 0]	n/a	FR1	1	R1228M
976.056	1.617	982474	ORIENT	n/a	n/a	n/a	-999	9	[0, 0, 0]	n/a	FR1	1	R1228M
977.673	2.233	984091	ORIENT_OFF	n/a	n/a	n/a	-999	9	[0, 0, 0]	n/a	FR1	1	R1228M
979.906	1.618	986324	WORD	n/a	wordpools/wordpool_EN.txt	DRESS	1	9	[0, 0, 0]	n/a	FR1	1	R1228M
981.524	0.8	987942	WORD_OFF	n/a	n/a	DRESS	1	9	[0, 0, 0]	n/a	FR1	1	R1228M
982.324	1.617	988742	WORD	n/a	wordpools/wordpool_EN.txt	PIT	2	9	[0, 0, 0]	n/a	FR1	1	R1228M
983.941	0.916	990359	WORD_OFF	n/a	n/a	PIT	2	9	[0, 0, 0]	n/a	FR1	1	R1228M
984.857	1.617	991275	WORD	n/a	wordpools/wordpool_EN.txt	BEAR	3	9	[0, 0, 0]	n/a	FR1	1	R1228M
986.474	0.884	992892	WORD_OFF	n/a	n/a	BEAR	3	9	[0, 0, 0]	n/a	FR1	1	R1228M
987.358	1.617	993776	WORD	n/a	wordpools/wordpool_EN.txt	PARK	4	9	[0, 0, 0]	n/a	FR1	1	R1228M
988.975	1.0	995392	WORD_OFF	n/a	n/a	PARK	4	9	[0, 0, 0]	n/a	FR1	1	R1228M
989.975	1.617	996392	WORD	n/a	wordpools/wordpool_EN.txt	SMILE	5	9	[0, 0, 0]	n/a	FR1	1	R1228M
991.592	0.967	998009	WORD_OFF	n/a	n/a	SMILE	5	9	[0, 0, 0]	n/a	FR1	1	R1228M
992.559	1.617	998976	WORD	n/a	wordpools/wordpool_EN.txt	BUSH	6	9	[0, 0, 0]	n/a	FR1	1	R1228M
994.176	0.767	1000593	WORD_OFF	n/a	n/a	BUSH	6	9	[0, 0, 0]	n/a	FR1	1	R1228M
994.943	1.617	1001360	WORD	n/a	wordpools/wordpool_EN.txt	RAIN	7	9	[0, 0, 0]	n/a	FR1	1	R1228M
996.56	0.85	1002977	WORD_OFF	n/a	n/a	RAIN	7	9	[0, 0, 0]	n/a	FR1	1	R1228M
997.41	1.617	1003827	WORD	n/a	wordpools/wordpool_EN.txt	SHEET	8	9	[0, 0, 0]	n/a	FR1	1	R1228M
999.027	0.8	1005444	WORD_OFF	n/a	n/a	SHEET	8	9	[0, 0, 0]	n/a	FR1	1	R1228M
999.827	1.617	1006244	WORD	n/a	wordpools/wordpool_EN.txt	CUBE	9	9	[0, 0, 0]	n/a	FR1	1	R1228M
1001.444	0.767	1007861	WORD_OFF	n/a	n/a	CUBE	9	9	[0, 0, 0]	n/a	FR1	1	R1228M
1002.211	1.617	1008628	WORD	n/a	wordpools/wordpool_EN.txt	EGG	10	9	[0, 0, 0]	n/a	FR1	1	R1228M
1003.828	0.8	1010245	WORD_OFF	n/a	n/a	EGG	10	9	[0, 0, 0]	n/a	FR1	1	R1228M
1004.628	1.617	1011045	WORD	n/a	wordpools/wordpool_EN.txt	CROWN	11	9	[0, 0, 0]	n/a	FR1	1	R1228M
1006.245	0.933	1012662	WORD_OFF	n/a	n/a	CROWN	11	9	[0, 0, 0]	n/a	FR1	1	R1228M
1007.178	1.617	1013594	WORD	n/a	wordpools/wordpool_EN.txt	GLASS	12	9	[0, 0, 0]	n/a	FR1	1	R1228M
1008.795	0.0	1015211	WORD_OFF	n/a	n/a	GLASS	12	9	[0, 0, 0]	n/a	FR1	1	R1228M
1008.795	0.001	1015211	DISTRACT_START	n/a	n/a	n/a	-999	9	[0, 0, 0]	n/a	FR1	1	R1228M
1008.796	0.016	1015212	START	n/a	n/a	n/a	-999	9	[-999, -999, -999]	n/a	FR1	1	R1228M
1008.812	3.567	1015228	PROB	3.567	n/a	n/a	-999	9	[6, 6, 7]	19	FR1	1	R1228M
1012.379	5.118	1018795	PROB	5.118	n/a	n/a	-999	9	[9, 9, 6]	24	FR1	1	R1228M
1017.497	3.117	1023913	PROB	3.117	n/a	n/a	-999	9	[9, 2, 4]	15	FR1	1	R1228M
1020.614	3.684	1027030	PROB	3.684	n/a	n/a	-999	9	[1, 7, 6]	14	FR1	1	R1228M
1024.298	4.826	1030713	PROB	4.826	n/a	n/a	-999	9	[1, 1, 6]	8	FR1	1	R1228M
1029.124	0.009	1035539	STOP	n/a	n/a	n/a	-999	9	[-999, -999, -999]	n/a	FR1	1	R1228M
1029.133	0.666	1035548	DISTRACT_END	n/a	n/a	n/a	-999	9	[0, 0, 0]	n/a	FR1	1	R1228M
1029.799	0.518	1036214	RETRIEVAL_ORIENT	n/a	n/a	n/a	-999	9	[0, 0, 0]	n/a	FR1	1	R1228M
1030.317	3.525	1036732	REC_START	n/a	n/a	n/a	-999	9	[0, 0, 0]	n/a	FR1	1	R1228M
1033.842	1.159	1040257	REC_WORD	1.159	n/a	BEAR	3	9	[0, 0, 0]	n/a	FR1	1	R1228M
1035.001	1.49	1041416	REC_WORD	1.49	n/a	PIT	2	9	[0, 0, 0]	n/a	FR1	1	R1228M
1036.491	1.228	1042906	REC_WORD	1.228	n/a	BUSH	6	9	[0, 0, 0]	n/a	FR1	1	R1228M
1037.719	9.362	1044134	REC_WORD	9.362	n/a	DRESS	1	9	[0, 0, 0]	n/a	FR1	1	R1228M
1047.081	13.247	1053495	REC_WORD	13.247	n/a	PARK	4	9	[0, 0, 0]	n/a	FR1	1	R1228M
1060.328	4.328	1066741	REC_END	n/a	n/a	n/a	-999	9	[0, 0, 0]	n/a	FR1	1	R1228M
1064.656	0.5	1071069	TRIAL	n/a	n/a	n/a	-999	10	[0, 0, 0]	n/a	FR1	1	R1228M
1065.156	10.428	1071569	COUNTDOWN_START	n/a	n/a	n/a	-999	10	[0, 0, 0]	n/a	FR1	1	R1228M
1075.584	0.008	1081997	COUNTDOWN_END	n/a	n/a	n/a	-999	10	[0, 0, 0]	n/a	FR1	1	R1228M
1075.592	1.617	1082005	ORIENT	n/a	n/a	n/a	-999	10	[0, 0, 0]	n/a	FR1	1	R1228M
1077.209	2.083	1083621	ORIENT_OFF	n/a	n/a	n/a	-999	10	[0, 0, 0]	n/a	FR1	1	R1228M
1079.292	1.617	1085704	WORD	n/a	wordpools/wordpool_EN.txt	BEACH	1	10	[0, 0, 0]	n/a	FR1	1	R1228M
1080.909	0.967	1087321	WORD_OFF	n/a	n/a	BEACH	1	10	[0, 0, 0]	n/a	FR1	1	R1228M
1081.876	1.617	1088288	WORD	n/a	wordpools/wordpool_EN.txt	MAZE	2	10	[0, 0, 0]	n/a	FR1	1	R1228M
1083.493	0.8	1089905	WORD_OFF	n/a	n/a	MAZE	2	10	[0, 0, 0]	n/a	FR1	1	R1228M
1084.293	1.617	1090705	WORD	n/a	wordpools/wordpool_EN.txt	KITE	3	10	[0, 0, 0]	n/a	FR1	1	R1228M
1085.91	0.767	1092322	WORD_OFF	n/a	n/a	KITE	3	10	[0, 0, 0]	n/a	FR1	1	R1228M
1086.677	1.617	1093089	WORD	n/a	wordpools/wordpool_EN.txt	STAR	4	10	[0, 0, 0]	n/a	FR1	1	R1228M
1088.294	1.0	1094706	WORD_OFF	n/a	n/a	STAR	4	10	[0, 0, 0]	n/a	FR1	1	R1228M
1089.294	1.617	1095706	WORD	n/a	wordpools/wordpool_EN.txt	BLOOM	5	10	[0, 0, 0]	n/a	FR1	1	R1228M
1090.911	0.95	1097323	WORD_OFF	n/a	n/a	BLOOM	5	10	[0, 0, 0]	n/a	FR1	1	R1228M
1091.861	1.618	1098273	WORD	n/a	wordpools/wordpool_EN.txt	SIGN	6	10	[0, 0, 0]	n/a	FR1	1	R1228M
1093.479	0.866	1099891	WORD_OFF	n/a	n/a	SIGN	6	10	[0, 0, 0]	n/a	FR1	1	R1228M
1094.345	1.617	1100757	WORD	n/a	wordpools/wordpool_EN.txt	SCHOOL	7	10	[0, 0, 0]	n/a	FR1	1	R1228M
1095.962	0.934	1102373	WORD_OFF	n/a	n/a	SCHOOL	7	10	[0, 0, 0]	n/a	FR1	1	R1228M
1096.896	1.618	1103307	WORD	n/a	wordpools/wordpool_EN.txt	BOWL	8	10	[0, 0, 0]	n/a	FR1	1	R1228M
1098.514	0.882	1104925	WORD_OFF	n/a	n/a	BOWL	8	10	[0, 0, 0]	n/a	FR1	1	R1228M
1099.396	1.617	1105807	WORD	n/a	wordpools/wordpool_EN.txt	NET	9	10	[0, 0, 0]	n/a	FR1	1	R1228M
1101.013	0.884	1107424	WORD_OFF	n/a	n/a	NET	9	10	[0, 0, 0]	n/a	FR1	1	R1228M
1101.897	1.618	1108308	WORD	n/a	wordpools/wordpool_EN.txt	MOON	10	10	[0, 0, 0]	n/a	FR1	1	R1228M
1103.515	0.866	1109926	WORD_OFF	n/a	n/a	MOON	10	10	[0, 0, 0]	n/a	FR1	1	R1228M
1104.381	1.617	1110792	WORD	n/a	wordpools/wordpool_EN.txt	BALL	11	10	[0, 0, 0]	n/a	FR1	1	R1228M
1105.998	0.833	1112409	WORD_OFF	n/a	n/a	BALL	11	10	[0, 0, 0]	n/a	FR1	1	R1228M
1106.831	1.617	1113242	WORD	n/a	wordpools/wordpool_EN.txt	SPONGE	12	10	[0, 0, 0]	n/a	FR1	1	R1228M
1108.448	0.0	1114859	WORD_OFF	n/a	n/a	SPONGE	12	10	[0, 0, 0]	n/a	FR1	1	R1228M
1108.448	0.0	1114859	DISTRACT_START	n/a	n/a	n/a	-999	10	[0, 0, 0]	n/a	FR1	1	R1228M
1108.448	0.017	1114859	START	n/a	n/a	n/a	-999	10	[-999, -999, -999]	n/a	FR1	1	R1228M
1108.465	5.434	1114876	PROB	5.434	n/a	n/a	-999	10	[4, 4, 6]	14	FR1	1	R1228M
1113.899	5.718	1120309	PROB	5.718	n/a	n/a	-999	10	[4, 9, 7]	20	FR1	1	R1228M
1119.617	2.65	1126027	PROB	2.65	n/a	n/a	-999	10	[6, 3, 3]	12	FR1	1	R1228M
1122.267	2.451	1128677	PROB	2.451	n/a	n/a	-999	10	[1, 8, 6]	15	FR1	1	R1228M
1124.718	2.117	1131128	PROB	2.117	n/a	n/a	-999	10	[2, 5, 5]	12	FR1	1	R1228M
1126.835	2.947	1133245	PROB	2.947	n/a	n/a	-999	10	[3, 6, 8]	17	FR1	1	R1228M
1129.782	0.02	1136192	STOP	n/a	n/a	n/a	-999	10	[-999, -999, -999]	n/a	FR1	1	R1228M
1129.802	0.55	1136212	DISTRACT_END	n/a	n/a	n/a	-999	10	[0, 0, 0]	n/a	FR1	1	R1228M
1130.352	0.518	1136761	RETRIEVAL_ORIENT	n/a	n/a	n/a	-999	10	[0, 0, 0]	n/a	FR1	1	R1228M
1130.87	2.011	1137279	REC_START	n/a	n/a	n/a	-999	10	[0, 0, 0]	n/a	FR1	1	R1228M
1132.881	1.548	1139290	REC_WORD	1.548	n/a	BEACH	1	10	[0, 0, 0]	n/a	FR1	1	R1228M
1134.429	2.286	1140838	REC_WORD	2.286	n/a	BALL	11	10	[0, 0, 0]	n/a	FR1	1	R1228M
1136.715	1.436	1143124	REC_WORD	1.436	n/a	MOON	10	10	[0, 0, 0]	n/a	FR1	1	R1228M
1138.151	10.493	1144560	REC_WORD	10.493	n/a	SCHOOL	7	10	[0, 0, 0]	n/a	FR1	1	R1228M
1148.644	12.237	1155052	REC_WORD	12.237	n/a	BLOOM	5	10	[0, 0, 0]	n/a	FR1	1	R1228M
1160.881	4.861	1167289	REC_END	n/a	n/a	n/a	-999	10	[0, 0, 0]	n/a	FR1	1	R1228M
1165.742	0.5	1172149	TRIAL	n/a	n/a	n/a	-999	11	[0, 0, 0]	n/a	FR1	1	R1228M
1166.242	10.428	1172649	COUNTDOWN_START	n/a	n/a	n/a	-999	11	[0, 0, 0]	n/a	FR1	1	R1228M
1176.67	0.008	1183077	COUNTDOWN_END	n/a	n/a	n/a	-999	11	[0, 0, 0]	n/a	FR1	1	R1228M
1176.678	1.617	1183085	ORIENT	n/a	n/a	n/a	-999	11	[0, 0, 0]	n/a	FR1	1	R1228M
1178.295	2.1	1184702	ORIENT_OFF	n/a	n/a	n/a	-999	11	[0, 0, 0]	n/a	FR1	1	R1228M
1180.395	1.617	1186802	WORD	n/a	wordpools/wordpool_EN.txt	PLATE	1	11	[0, 0, 0]	n/a	FR1	1	R1228M
1182.012	0.817	1188419	WORD_OFF	n/a	n/a	PLATE	1	11	[0, 0, 0]	n/a	FR1	1	R1228M
1182.829	1.617	1189236	WORD	n/a	wordpools/wordpool_EN.txt	HOSE	2	11	[0, 0, 0]	n/a	FR1	1	R1228M
1184.446	0.9	1190852	WORD_OFF	n/a	n/a	HOSE	2	11	[0, 0, 0]	n/a	FR1	1	R1228M
1185.346	1.617	1191752	WORD	n/a	wordpools/wordpool_EN.txt	CUP	3	11	[0, 0, 0]	n/a	FR1	1	R1228M
1186.963	0.95	1193369	WORD_OFF	n/a	n/a	CUP	3	11	[0, 0, 0]	n/a	FR1	1	R1228M
1187.913	1.618	1194319	WORD	n/a	wordpools/wordpool_EN.txt	CORN	4	11	[0, 0, 0]	n/a	FR1	1	R1228M
1189.531	0.984	1195937	WORD_OFF	n/a	n/a	CORN	4	11	[0, 0, 0]	n/a	FR1	1	R1228M
1190.515	1.616	1196921	WORD	n/a	wordpools/wordpool_EN.txt	BATH	5	11	[0, 0, 0]	n/a	FR1	1	R1228M
1192.131	0.783	1198537	WORD_OFF	n/a	n/a	BATH	5	11	[0, 0, 0]	n/a	FR1	1	R1228M
1192.914	1.618	1199320	WORD	n/a	wordpools/wordpool_EN.txt	PEN	6	11	[0, 0, 0]	n/a	FR1	1	R1228M
1194.532	0.85	1200938	WORD_OFF	n/a	n/a	PEN	6	11	[0, 0, 0]	n/a	FR1	1	R1228M
1195.382	1.617	1201788	WORD	n/a	wordpools/wordpool_EN.txt	SUN	7	11	[0, 0, 0]	n/a	FR1	1	R1228M
1196.999	0.999	1203405	WORD_OFF	n/a	n/a	SUN	7	11	[0, 0, 0]	n/a	FR1	1	R1228M
1197.998	1.601	1204404	WORD	n/a	wordpools/wordpool_EN.txt	VAN	8	11	[0, 0, 0]	n/a	FR1	1	R1228M
1199.599	0.867	1206005	WORD_OFF	n/a	n/a	VAN	8	11	[0, 0, 0]	n/a	FR1	1	R1228M
1200.466	1.617	1206872	WORD	n/a	wordpools/wordpool_EN.txt	FLAME	9	11	[0, 0, 0]	n/a	FR1	1	R1228M
1202.083	0.8	1208488	WORD_OFF	n/a	n/a	FLAME	9	11	[0, 0, 0]	n/a	FR1	1	R1228M
1202.883	1.617	1209288	WORD	n/a	wordpools/wordpool_EN.txt	GATE	10	11	[0, 0, 0]	n/a	FR1	1	R1228M
1204.5	0.984	1210905	WORD_OFF	n/a	n/a	GATE	10	11	[0, 0, 0]	n/a	FR1	1	R1228M
1205.484	1.617	1211889	WORD	n/a	wordpools/wordpool_EN.txt	PEA	11	11	[0, 0, 0]	n/a	FR1	1	R1228M
1207.101	0.916	1213506	WORD_OFF	n/a	n/a	PEA	11	11	[0, 0, 0]	n/a	FR1	1	R1228M
1208.017	1.617	1214422	WORD	n/a	wordpools/wordpool_EN.txt	BRUSH	12	11	[0, 0, 0]	n/a	FR1	1	R1228M
1209.634	0.0	1216039	WORD_OFF	n/a	n/a	BRUSH	12	11	[0, 0, 0]	n/a	FR1	1	R1228M
1209.634	0.001	1216039	DISTRACT_START	n/a	n/a	n/a	-999	11	[0, 0, 0]	n/a	FR1	1	R1228M
1209.635	0.016	1216040	START	n/a	n/a	n/a	-999	11	[-999, -999, -999]	n/a	FR1	1	R1228M
1209.651	3.934	1216056	PROB	3.934	n/a	n/a	-999	11	[7, 6, 6]	19	FR1	1	R1228M
1213.585	3.017	1219990	PROB	3.017	n/a	n/a	-999	11	[8, 9, 1]	18	FR1	1	R1228M
1216.602	3.101	1223007	PROB	3.101	n/a	n/a	-999	11	[1, 4, 9]	14	FR1	1	R1228M
1219.703	3.15	1226107	PROB	3.15	n/a	n/a	-999	11	[3, 6, 8]	17	FR1	1	R1228M
1222.853	4.301	1229257	PROB	4.301	n/a	n/a	-999	11	[7, 5, 2]	14	FR1	1	R1228M
1227.154	3.306	1233558	PROB	3.306	n/a	n/a	-999	11	[9, 9, 4]	22	FR1	1	R1228M
1230.46	0.012	1236864	STOP	n/a	n/a	n/a	-999	11	[-999, -999, -999]	n/a	FR1	1	R1228M
1230.472	0.55	1236876	DISTRACT_END	n/a	n/a	n/a	-999	11	[0, 0, 0]	n/a	FR1	1	R1228M
1231.022	0.517	1237426	RETRIEVAL_ORIENT	n/a	n/a	n/a	-999	11	[0, 0, 0]	n/a	FR1	1	R1228M
1231.539	2.101	1237943	REC_START	n/a	n/a	n/a	-999	11	[0, 0, 0]	n/a	FR1	1	R1228M
1233.64	0.911	1240044	REC_WORD	0.911	n/a	PLATE	1	11	[0, 0, 0]	n/a	FR1	1	R1228M
1234.551	3.528	1240955	REC_WORD	3.528	n/a	CUP	3	11	[0, 0, 0]	n/a	FR1	1	R1228M
1238.079	0.741	1244482	REC_WORD	0.741	n/a	FAN	-999	11	[0, 0, 0]	n/a	FR1	1	R1228M
1238.82	22.736	1245223	REC_WORD	22.736	n/a	SHELL	-999	11	[0, 0, 0]	n/a	FR1	1	R1228M
1261.556	8.607	1267958	REC_END	n/a	n/a	n/a	-999	11	[0, 0, 0]	n/a	FR1	1	R1228M
1270.163	0.5	1276565	TRIAL	n/a	n/a	n/a	-999	12	[0, 0, 0]	n/a	FR1	1	R1228M
1270.663	10.428	1277065	COUNTDOWN_START	n/a	n/a	n/a	-999	12	[0, 0, 0]	n/a	FR1	1	R1228M
1281.091	0.007	1287492	COUNTDOWN_END	n/a	n/a	n/a	-999	12	[0, 0, 0]	n/a	FR1	1	R1228M
1281.098	1.617	1287499	ORIENT	n/a	n/a	n/a	-999	12	[0, 0, 0]	n/a	FR1	1	R1228M
1282.715	2.267	1289116	ORIENT_OFF	n/a	n/a	n/a	-999	12	[0, 0, 0]	n/a	FR1	1	R1228M
1284.982	1.617	1291383	WORD	n/a	wordpools/wordpool_EN.txt	CALF	1	12	[0, 0, 0]	n/a	FR1	1	R1228M
1286.599	0.817	1293000	WORD_OFF	n/a	n/a	CALF	1	12	[0, 0, 0]	n/a	FR1	1	R1228M
1287.416	1.617	1293817	WORD	n/a	wordpools/wordpool_EN.txt	TOY	2	12	[0, 0, 0]	n/a	FR1	1	R1228M
1289.033	0.817	1295434	WORD_OFF	n/a	n/a	TOY	2	12	[0, 0, 0]	n/a	FR1	1	R1228M
1289.85	1.617	1296250	WORD	n/a	wordpools/wordpool_EN.txt	BARN	3	12	[0, 0, 0]	n/a	FR1	1	R1228M
1291.467	0.783	1297867	WORD_OFF	n/a	n/a	BARN	3	12	[0, 0, 0]	n/a	FR1	1	R1228M
1292.25	1.617	1298650	WORD	n/a	wordpools/wordpool_EN.txt	PIPE	4	12	[0, 0, 0]	n/a	FR1	1	R1228M
1293.867	1.0	1300267	WORD_OFF	n/a	n/a	PIPE	4	12	[0, 0, 0]	n/a	FR1	1	R1228M
1294.867	1.617	1301267	WORD	n/a	wordpools/wordpool_EN.txt	BOY	5	12	[0, 0, 0]	n/a	FR1	1	R1228M
1296.484	0.851	1302884	WORD_OFF	n/a	n/a	BOY	5	12	[0, 0, 0]	n/a	FR1	1	R1228M
1297.335	1.617	1303735	WORD	n/a	wordpools/wordpool_EN.txt	SPOON	6	12	[0, 0, 0]	n/a	FR1	1	R1228M
1298.952	0.983	1305352	WORD_OFF	n/a	n/a	SPOON	6	12	[0, 0, 0]	n/a	FR1	1	R1228M
1299.935	1.617	1306335	WORD	n/a	wordpools/wordpool_EN.txt	CHEEK	7	12	[0, 0, 0]	n/a	FR1	1	R1228M
1301.552	0.85	1307952	WORD_OFF	n/a	n/a	CHEEK	7	12	[0, 0, 0]	n/a	FR1	1	R1228M
1302.402	1.617	1308802	WORD	n/a	wordpools/wordpool_EN.txt	BED	8	12	[0, 0, 0]	n/a	FR1	1	R1228M
1304.019	0.834	1310419	WORD_OFF	n/a	n/a	BED	8	12	[0, 0, 0]	n/a	FR1	1	R1228M
1304.853	1.617	1311253	WORD	n/a	wordpools/wordpool_EN.txt	ROPE	9	12	[0, 0, 0]	n/a	FR1	1	R1228M
1306.47	1.017	1312870	WORD_OFF	n/a	n/a	ROPE	9	12	[0, 0, 0]	n/a	FR1	1	R1228M
1307.487	1.617	1313886	WORD	n/a	wordpools/wordpool_EN.txt	RUG	10	12	[0, 0, 0]	n/a	FR1	1	R1228M
1309.104	0.833	1315503	WORD_OFF	n/a	n/a	RUG	10	12	[0, 0, 0]	n/a	FR1	1	R1228M
1309.937	1.601	1316336	WORD	n/a	wordpools/wordpool_EN.txt	LAWN	11	12	[0, 0, 0]	n/a	FR1	1	R1228M
1311.538	0.883	1317937	WORD_OFF	n/a	n/a	LAWN	11	12	[0, 0, 0]	n/a	FR1	1	R1228M
1312.421	1.617	1318820	WORD	n/a	wordpools/wordpool_EN.txt	DOG	12	12	[0, 0, 0]	n/a	FR1	1	R1228M
1314.038	0.0	1320437	DISTRACT_START	n/a	n/a	n/a	-999	12	[0, 0, 0]	n/a	FR1	1	R1228M
1314.038	0.001	1320437	WORD_OFF	n/a	n/a	DOG	12	12	[0, 0, 0]	n/a	FR1	1	R1228M
1314.039	0.016	1320438	START	n/a	n/a	n/a	-999	12	[-999, -999, -999]	n/a	FR1	1	R1228M
1314.055	2.683	1320454	PROB	2.683	n/a	n/a	-999	12	[1, 1, 7]	9	FR1	1	R1228M
1316.738	7.118	1323137	PROB	7.118	n/a	n/a	-999	12	[6, 9, 7]	22	FR1	1	R1228M
1323.856	4.035	1330255	PROB	4.035	n/a	n/a	-999	12	[7, 2, 9]	18	FR1	1	R1228M
1327.891	2.634	1334289	PROB	2.634	n/a	n/a	-999	12	[6, 7, 4]	17	FR1	1	R1228M
1330.525	2.517	1336923	PROB	2.517	n/a	n/a	-999	12	[3, 3, 1]	7	FR1	1	R1228M
1333.042	2.57	1339440	PROB	2.57	n/a	n/a	-999	12	[1, 6, 1]	8	FR1	1	R1228M
1335.612	0.013	1342010	STOP	n/a	n/a	n/a	-999	12	[-999, -999, -999]	n/a	FR1	1	R1228M
1335.625	0.684	1342023	DISTRACT_END	n/a	n/a	n/a	-999	12	[0, 0, 0]	n/a	FR1	1	R1228M
1336.309	0.518	1342707	RETRIEVAL_ORIENT	n/a	n/a	n/a	-999	12	[0, 0, 0]	n/a	FR1	1	R1228M
1336.827	2.394	1343225	REC_START	n/a	n/a	n/a	-999	12	[0, 0, 0]	n/a	FR1	1	R1228M
1339.221	1.435	1345619	REC_WORD	1.435	n/a	BOY	5	12	[0, 0, 0]	n/a	FR1	1	R1228M
1340.656	2.16	1347054	REC_WORD	2.16	n/a	BARN	3	12	[0, 0, 0]	n/a	FR1	1	R1228M
1342.816	1.793	1349213	REC_WORD	1.793	n/a	CALF	1	12	[0, 0, 0]	n/a	FR1	1	R1228M
1344.609	6.329	1351006	REC_WORD	6.329	n/a	PIPE	4	12	[0, 0, 0]	n/a	FR1	1	R1228M
1350.938	4.143	1357335	REC_WORD	4.143	n/a	DOG	12	12	[0, 0, 0]	n/a	FR1	1	R1228M
1355.081	7.721	1361478	REC_WORD	7.721	n/a	POND	-999	12	[0, 0, 0]	n/a	FR1	1	R1228M
1362.802	4.037	1369198	REC_WORD	4.037	n/a	TOY	2	12	[0, 0, 0]	n/a	FR1	1	R1228M
1366.839	4.793	1373235	REC_END	n/a	n/a	n/a	-999	12	[0, 0, 0]	n/a	FR1	1	R1228M
1371.632	0.5	1378028	TRIAL	n/a	n/a	n/a	-999	13	[0, 0, 0]	n/a	FR1	1	R1228M
1372.132	10.428	1378528	COUNTDOWN_START	n/a	n/a	n/a	-999	13	[0, 0, 0]	n/a	FR1	1	R1228M
1382.56	0.008	1388955	COUNTDOWN_END	n/a	n/a	n/a	-999	13	[0, 0, 0]	n/a	FR1	1	R1228M
1382.568	1.617	1388963	ORIENT	n/a	n/a	n/a	-999	13	[0, 0, 0]	n/a	FR1	1	R1228M
1384.185	2.384	1390580	ORIENT_OFF	n/a	n/a	n/a	-999	13	[0, 0, 0]	n/a	FR1	1	R1228M
1386.569	1.617	1392964	WORD	n/a	wordpools/wordpool_EN.txt	MUG	1	13	[0, 0, 0]	n/a	FR1	1	R1228M
1388.186	0.966	1394581	WORD_OFF	n/a	n/a	MUG	1	13	[0, 0, 0]	n/a	FR1	1	R1228M
1389.152	1.617	1395547	WORD	n/a	wordpools/wordpool_EN.txt	APE	2	13	[0, 0, 0]	n/a	FR1	1	R1228M
1390.769	0.901	1397164	WORD_OFF	n/a	n/a	APE	2	13	[0, 0, 0]	n/a	FR1	1	R1228M
1391.67	1.617	1398065	WORD	n/a	wordpools/wordpool_EN.txt	TANK	3	13	[0, 0, 0]	n/a	FR1	1	R1228M
1393.287	0.95	1399682	WORD_OFF	n/a	n/a	TANK	3	13	[0, 0, 0]	n/a	FR1	1	R1228M
1394.237	1.617	1400632	WORD	n/a	wordpools/wordpool_EN.txt	BANK	4	13	[0, 0, 0]	n/a	FR1	1	R1228M
1395.854	0.967	1402248	WORD_OFF	n/a	n/a	BANK	4	13	[0, 0, 0]	n/a	FR1	1	R1228M
1396.821	1.617	1403215	WORD	n/a	wordpools/wordpool_EN.txt	WEB	5	13	[0, 0, 0]	n/a	FR1	1	R1228M
1398.438	0.883	1404832	WORD_OFF	n/a	n/a	WEB	5	13	[0, 0, 0]	n/a	FR1	1	R1228M
1399.321	1.617	1405715	WORD	n/a	wordpools/wordpool_EN.txt	HAWK	6	13	[0, 0, 0]	n/a	FR1	1	R1228M
1400.938	0.85	1407332	WORD_OFF	n/a	n/a	HAWK	6	13	[0, 0, 0]	n/a	FR1	1	R1228M
1401.788	1.617	1408182	WORD	n/a	wordpools/wordpool_EN.txt	CASH	7	13	[0, 0, 0]	n/a	FR1	1	R1228M
1403.405	0.85	1409799	WORD_OFF	n/a	n/a	CASH	7	13	[0, 0, 0]	n/a	FR1	1	R1228M
1404.255	1.617	1410649	WORD	n/a	wordpools/wordpool_EN.txt	DEER	8	13	[0, 0, 0]	n/a	FR1	1	R1228M
1405.872	0.767	1412266	WORD_OFF	n/a	n/a	DEER	8	13	[0, 0, 0]	n/a	FR1	1	R1228M
1406.639	1.617	1413033	WORD	n/a	wordpools/wordpool_EN.txt	SEAL	9	13	[0, 0, 0]	n/a	FR1	1	R1228M
1408.256	0.85	1414650	WORD_OFF	n/a	n/a	SEAL	9	13	[0, 0, 0]	n/a	FR1	1	R1228M
1409.106	1.617	1415500	WORD	n/a	wordpools/wordpool_EN.txt	BOAT	10	13	[0, 0, 0]	n/a	FR1	1	R1228M
1410.723	0.851	1417117	WORD_OFF	n/a	n/a	BOAT	10	13	[0, 0, 0]	n/a	FR1	1	R1228M
1411.574	1.616	1417968	WORD	n/a	wordpools/wordpool_EN.txt	DUCK	11	13	[0, 0, 0]	n/a	FR1	1	R1228M
1413.19	0.934	1419583	WORD_OFF	n/a	n/a	DUCK	11	13	[0, 0, 0]	n/a	FR1	1	R1228M
1414.124	1.617	1420517	WORD	n/a	wordpools/wordpool_EN.txt	BRANCH	12	13	[0, 0, 0]	n/a	FR1	1	R1228M
1415.741	0.0	1422134	WORD_OFF	n/a	n/a	BRANCH	12	13	[0, 0, 0]	n/a	FR1	1	R1228M
1415.741	0.0	1422134	DISTRACT_START	n/a	n/a	n/a	-999	13	[0, 0, 0]	n/a	FR1	1	R1228M
1415.741	0.017	1422134	START	n/a	n/a	n/a	-999	13	[-999, -999, -999]	n/a	FR1	1	R1228M
1415.758	2.717	1422151	PROB	2.717	n/a	n/a	-999	13	[3, 5, 5]	13	FR1	1	R1228M
1418.475	3.284	1424868	PROB	3.284	n/a	n/a	-999	13	[9, 1, 5]	15	FR1	1	R1228M
1421.759	2.65	1428152	PROB	2.65	n/a	n/a	-999	13	[4, 3, 3]	10	FR1	1	R1228M
1424.409	4.234	1430802	PROB	4.234	n/a	n/a	-999	13	[2, 9, 6]	17	FR1	1	R1228M
1428.643	2.951	1435036	PROB	2.951	n/a	n/a	-999	13	[3, 5, 8]	16	FR1	1	R1228M
1431.594	3.601	1437986	PROB	3.601	n/a	n/a	-999	13	[8, 1, 2]	11	FR1	1	R1228M
1435.195	2.697	1441587	PROB	2.697	n/a	n/a	-999	13	[6, 3, 4]	13	FR1	1	R1228M
1437.892	0.02	1444284	STOP	n/a	n/a	n/a	-999	13	[-999, -999, -999]	n/a	FR1	1	R1228M
1437.912	0.618	1444304	DISTRACT_END	n/a	n/a	n/a	-999	13	[0, 0, 0]	n/a	FR1	1	R1228M
1438.53	0.516	1444922	RETRIEVAL_ORIENT	n/a	n/a	n/a	-999	13	[0, 0, 0]	n/a	FR1	1	R1228M
1439.046	10.14	1445438	REC_START	n/a	n/a	n/a	-999	13	[0, 0, 0]	n/a	FR1	1	R1228M
1449.186	2.618	1455577	REC_WORD	2.618	n/a	BANK	4	13	[0, 0, 0]	n/a	FR1	1	R1228M
1451.804	6.973	1458195	REC_WORD	6.973	n/a	TANK	3	13	[0, 0, 0]	n/a	FR1	1	R1228M
1458.777	10.28	1465168	REC_WORD	10.28	n/a	CROW	-999	13	[0, 0, 0]	n/a	FR1	1	R1228M
1469.057	4.562	1475447	REC_END	n/a	n/a	n/a	-999	13	[0, 0, 0]	n/a	FR1	1	R1228M
1473.619	0.5	1480009	TRIAL	n/a	n/a	n/a	-999	14	[0, 0, 0]	n/a	FR1	1	R1228M
1474.119	10.428	1480509	COUNTDOWN_START	n/a	n/a	n/a	-999	14	[0, 0, 0]	n/a	FR1	1	R1228M
1484.547	0.007	1490936	COUNTDOWN_END	n/a	n/a	n/a	-999	14	[0, 0, 0]	n/a	FR1	1	R1228M
1484.554	1.617	1490943	ORIENT	n/a	n/a	n/a	-999	14	[0, 0, 0]	n/a	FR1	1	R1228M
1486.171	2.084	1492560	ORIENT_OFF	n/a	n/a	n/a	-999	14	[0, 0, 0]	n/a	FR1	1	R1228M
1488.255	1.617	1494644	WORD	n/a	wordpools/wordpool_EN.txt	INK	1	14	[0, 0, 0]	n/a	FR1	1	R1228M
1489.872	0.834	1496261	WORD_OFF	n/a	n/a	INK	1	14	[0, 0, 0]	n/a	FR1	1	R1228M
1490.706	1.616	1497095	WORD	n/a	wordpools/wordpool_EN.txt	CAPE	2	14	[0, 0, 0]	n/a	FR1	1	R1228M
1492.322	0.967	1498711	WORD_OFF	n/a	n/a	CAPE	2	14	[0, 0, 0]	n/a	FR1	1	R1228M
1493.289	1.617	1499678	WORD	n/a	wordpools/wordpool_EN.txt	WALL	3	14	[0, 0, 0]	n/a	FR1	1	R1228M
1494.906	0.884	1501295	WORD_OFF	n/a	n/a	WALL	3	14	[0, 0, 0]	n/a	FR1	1	R1228M
1495.79	1.617	1502179	WORD	n/a	wordpools/wordpool_EN.txt	GLOVE	4	14	[0, 0, 0]	n/a	FR1	1	R1228M
1497.407	1.0	1503796	WORD_OFF	n/a	n/a	GLOVE	4	14	[0, 0, 0]	n/a	FR1	1	R1228M
1498.407	1.617	1504796	WORD	n/a	wordpools/wordpool_EN.txt	CHIEF	5	14	[0, 0, 0]	n/a	FR1	1	R1228M
1500.024	0.816	1506413	WORD_OFF	n/a	n/a	CHIEF	5	14	[0, 0, 0]	n/a	FR1	1	R1228M
1500.84	1.618	1507229	WORD	n/a	wordpools/wordpool_EN.txt	WHALE	6	14	[0, 0, 0]	n/a	FR1	1	R1228M
1502.458	0.933	1508846	WORD_OFF	n/a	n/a	WHALE	6	14	[0, 0, 0]	n/a	FR1	1	R1228M
1503.391	1.617	1509779	WORD	n/a	wordpools/wordpool_EN.txt	JAIL	7	14	[0, 0, 0]	n/a	FR1	1	R1228M
1505.008	0.934	1511396	WORD_OFF	n/a	n/a	JAIL	7	14	[0, 0, 0]	n/a	FR1	1	R1228M
1505.942	1.617	1512330	WORD	n/a	wordpools/wordpool_EN.txt	OWL	8	14	[0, 0, 0]	n/a	FR1	1	R1228M
1507.559	0.867	1513947	WORD_OFF	n/a	n/a	OWL	8	14	[0, 0, 0]	n/a	FR1	1	R1228M
1508.426	1.617	1514814	WORD	n/a	wordpools/wordpool_EN.txt	ZOO	9	14	[0, 0, 0]	n/a	FR1	1	R1228M
1510.043	0.9	1516431	WORD_OFF	n/a	n/a	ZOO	9	14	[0, 0, 0]	n/a	FR1	1	R1228M
1510.943	1.617	1517331	WORD	n/a	wordpools/wordpool_EN.txt	EAR	10	14	[0, 0, 0]	n/a	FR1	1	R1228M
1512.56	0.783	1518948	WORD_OFF	n/a	n/a	EAR	10	14	[0, 0, 0]	n/a	FR1	1	R1228M
1513.343	1.617	1519731	WORD	n/a	wordpools/wordpool_EN.txt	MAP	11	14	[0, 0, 0]	n/a	FR1	1	R1228M
1514.96	0.834	1521348	WORD_OFF	n/a	n/a	MAP	11	14	[0, 0, 0]	n/a	FR1	1	R1228M
1515.794	1.617	1522182	WORD	n/a	wordpools/wordpool_EN.txt	CAR	12	14	[0, 0, 0]	n/a	FR1	1	R1228M
1517.411	0.0	1523799	WORD_OFF	n/a	n/a	CAR	12	14	[0, 0, 0]	n/a	FR1	1	R1228M
1517.411	0.0	1523799	DISTRACT_START	n/a	n/a	n/a	-999	14	[0, 0, 0]	n/a	FR1	1	R1228M
1517.411	0.016	1523799	START	n/a	n/a	n/a	-999	14	[-999, -999, -999]	n/a	FR1	1	R1228M
1517.427	3.818	1523815	PROB	3.818	n/a	n/a	-999	14	[2, 7, 9]	18	FR1	1	R1228M
1521.245	3.167	1527632	PROB	3.167	n/a	n/a	-999	14	[2, 5, 7]	16	FR1	1	R1228M
1524.412	2.534	1530799	PROB	2.534	n/a	n/a	-999	14	[1, 4, 6]	11	FR1	1	R1228M
1526.946	2.568	1533333	PROB	2.568	n/a	n/a	-999	14	[4, 9, 1]	14	FR1	1	R1228M
1529.514	2.116	1535901	PROB	2.116	n/a	n/a	-999	14	[1, 9, 5]	15	FR1	1	R1228M
1531.63	2.951	1538017	PROB	2.951	n/a	n/a	-999	14	[6, 5, 8]	19	FR1	1	R1228M
1534.581	2.4	1540968	PROB	2.4	n/a	n/a	-999	14	[5, 3, 8]	16	FR1	1	R1228M
1536.981	3.336	1543367	PROB	3.336	n/a	n/a	-999	14	[5, 1, 4]	10	FR1	1	R1228M
1540.317	0.015	1546703	STOP	n/a	n/a	n/a	-999	14	[-999, -999, -999]	n/a	FR1	1	R1228M
1540.332	0.65	1546718	DISTRACT_END	n/a	n/a	n/a	-999	14	[0, 0, 0]	n/a	FR1	1	R1228M
1540.982	0.517	1547368	RETRIEVAL_ORIENT	n/a	n/a	n/a	-999	14	[0, 0, 0]	n/a	FR1	1	R1228M
1541.499	1.642	1547885	REC_START	n/a	n/a	n/a	-999	14	[0, 0, 0]	n/a	FR1	1	R1228M
1543.141	4.241	1549527	REC_WORD	4.241	n/a	CAPE	2	14	[0, 0, 0]	n/a	FR1	1	R1228M
1547.382	7.777	1553768	REC_WORD	7.777	n/a	WALL	3	14	[0, 0, 0]	n/a	FR1	1	R1228M
1555.159	14.685	1561544	REC_WORD	14.685	n/a	PIE	-999	14	[0, 0, 0]	n/a	FR1	1	R1228M
1569.844	1.667	1576229	REC_WORD	1.667	n/a	TOWN	-999	14	[0, 0, 0]	n/a	FR1	1	R1228M
1571.511	345.66	1577896	REC_END	n/a	n/a	n/a	-999	14	[0, 0, 0]	n/a	FR1	1	R1228M
1917.171	0.5	1923536	TRIAL	n/a	n/a	n/a	-999	15	[0, 0, 0]	n/a	FR1	1	R1228M
1917.671	10.428	1924036	COUNTDOWN_START	n/a	n/a	n/a	-999	15	[0, 0, 0]	n/a	FR1	1	R1228M
1928.099	0.008	1934463	COUNTDOWN_END	n/a	n/a	n/a	-999	15	[0, 0, 0]	n/a	FR1	1	R1228M
1928.107	1.617	1934471	ORIENT	n/a	n/a	n/a	-999	15	[0, 0, 0]	n/a	FR1	1	R1228M
1929.724	1.817	1936088	ORIENT_OFF	n/a	n/a	n/a	-999	15	[0, 0, 0]	n/a	FR1	1	R1228M
1931.541	1.617	1937905	WORD	n/a	wordpools/wordpool_EN.txt	ROOF	1	15	[0, 0, 0]	n/a	FR1	1	R1228M
1933.158	0.9	1939522	WORD_OFF	n/a	n/a	ROOF	1	15	[0, 0, 0]	n/a	FR1	1	R1228M
1934.058	1.617	1940422	WORD	n/a	wordpools/wordpool_EN.txt	RIB	2	15	[0, 0, 0]	n/a	FR1	1	R1228M
1935.675	0.917	1942039	WORD_OFF	n/a	n/a	RIB	2	15	[0, 0, 0]	n/a	FR1	1	R1228M
1936.592	1.617	1942956	WORD	n/a	wordpools/wordpool_EN.txt	FUR	3	15	[0, 0, 0]	n/a	FR1	1	R1228M
1938.209	0.833	1944573	WORD_OFF	n/a	n/a	FUR	3	15	[0, 0, 0]	n/a	FR1	1	R1228M
1939.042	1.617	1945406	WORD	n/a	wordpools/wordpool_EN.txt	CLIFF	4	15	[0, 0, 0]	n/a	FR1	1	R1228M
1940.659	0.784	1947023	WORD_OFF	n/a	n/a	CLIFF	4	15	[0, 0, 0]	n/a	FR1	1	R1228M
1941.443	1.617	1947807	WORD	n/a	wordpools/wordpool_EN.txt	BAND	5	15	[0, 0, 0]	n/a	FR1	1	R1228M
1943.06	0.883	1949423	WORD_OFF	n/a	n/a	BAND	5	15	[0, 0, 0]	n/a	FR1	1	R1228M
1943.943	1.617	1950306	WORD	n/a	wordpools/wordpool_EN.txt	GOLD	6	15	[0, 0, 0]	n/a	FR1	1	R1228M
1945.56	0.95	1951923	WORD_OFF	n/a	n/a	GOLD	6	15	[0, 0, 0]	n/a	FR1	1	R1228M
1946.51	1.617	1952873	WORD	n/a	wordpools/wordpool_EN.txt	PIG	7	15	[0, 0, 0]	n/a	FR1	1	R1228M
1948.127	0.901	1954490	WORD_OFF	n/a	n/a	PIG	7	15	[0, 0, 0]	n/a	FR1	1	R1228M
1949.028	1.617	1955391	WORD	n/a	wordpools/wordpool_EN.txt	BADGE	8	15	[0, 0, 0]	n/a	FR1	1	R1228M
1950.645	0.8	1957008	WORD_OFF	n/a	n/a	BADGE	8	15	[0, 0, 0]	n/a	FR1	1	R1228M
1951.445	1.617	1957808	WORD	n/a	wordpools/wordpool_EN.txt	ROSE	9	15	[0, 0, 0]	n/a	FR1	1	R1228M
1953.062	0.833	1959425	WORD_OFF	n/a	n/a	ROSE	9	15	[0, 0, 0]	n/a	FR1	1	R1228M
1953.895	1.618	1960258	WORD	n/a	wordpools/wordpool_EN.txt	STORM	10	15	[0, 0, 0]	n/a	FR1	1	R1228M
1955.513	0.766	1961876	WORD_OFF	n/a	n/a	STORM	10	15	[0, 0, 0]	n/a	FR1	1	R1228M
1956.279	1.617	1962642	WORD	n/a	wordpools/wordpool_EN.txt	TAIL	11	15	[0, 0, 0]	n/a	FR1	1	R1228M
1957.896	1.017	1964259	WORD_OFF	n/a	n/a	TAIL	11	15	[0, 0, 0]	n/a	FR1	1	R1228M
1958.913	1.618	1965276	WORD	n/a	wordpools/wordpool_EN.txt	TRUCK	12	15	[0, 0, 0]	n/a	FR1	1	R1228M
1960.531	0.0	1966893	WORD_OFF	n/a	n/a	TRUCK	12	15	[0, 0, 0]	n/a	FR1	1	R1228M
1960.531	0.0	1966893	DISTRACT_START	n/a	n/a	n/a	-999	15	[0, 0, 0]	n/a	FR1	1	R1228M
1960.531	0.015	1966893	START	n/a	n/a	n/a	-999	15	[-999, -999, -999]	n/a	FR1	1	R1228M
1960.546	4.101	1966908	PROB	4.101	n/a	n/a	-999	15	[7, 8, 2]	17	FR1	1	R1228M
1964.647	3.869	1971009	PROB	3.869	n/a	n/a	-999	15	[1, 4, 3]	8	FR1	1	R1228M
1968.516	2.949	1974878	PROB	2.949	n/a	n/a	-999	15	[8, 1, 3]	12	FR1	1	R1228M
1971.465	2.601	1977827	PROB	2.601	n/a	n/a	-999	15	[1, 9, 2]	12	FR1	1	R1228M
1974.066	2.95	1980428	PROB	2.95	n/a	n/a	-999	15	[9, 3, 7]	19	FR1	1	R1228M
1977.016	3.051	1983378	PROB	3.051	n/a	n/a	-999	15	[1, 6, 2]	9	FR1	1	R1228M
1980.067	5.658	1986428	PROB	5.658	n/a	n/a	-999	15	[8, 6, 8]	22	FR1	1	R1228M
1985.725	0.01	1992086	STOP	n/a	n/a	n/a	-999	15	[-999, -999, -999]	n/a	FR1	1	R1228M
1985.735	0.683	1992096	DISTRACT_END	n/a	n/a	n/a	-999	15	[0, 0, 0]	n/a	FR1	1	R1228M
1986.418	0.518	1992779	RETRIEVAL_ORIENT	n/a	n/a	n/a	-999	15	[0, 0, 0]	n/a	FR1	1	R1228M
1986.936	3.217	1993297	REC_START	n/a	n/a	n/a	-999	15	[0, 0, 0]	n/a	FR1	1	R1228M
1990.153	1.549	1996514	REC_WORD	1.549	n/a	CLIFF	4	15	[0, 0, 0]	n/a	FR1	1	R1228M
1991.702	1.968	1998063	REC_WORD	1.968	n/a	PIG	7	15	[0, 0, 0]	n/a	FR1	1	R1228M
1993.67	2.301	2000031	REC_WORD	2.301	n/a	GOLD	6	15	[0, 0, 0]	n/a	FR1	1	R1228M
1995.971	7.695	2002331	REC_WORD	7.695	n/a	STORM	10	15	[0, 0, 0]	n/a	FR1	1	R1228M
2003.666	13.281	2010026	REC_WORD	13.281	n/a	TRAIL	-999	15	[0, 0, 0]	n/a	FR1	1	R1228M
2016.947	4.795	2023306	REC_END	n/a	n/a	n/a	-999	15	[0, 0, 0]	n/a	FR1	1	R1228M
2021.742	0.5	2028101	TRIAL	n/a	n/a	n/a	-999	16	[0, 0, 0]	n/a	FR1	1	R1228M
2022.242	10.428	2028601	COUNTDOWN_START	n/a	n/a	n/a	-999	16	[0, 0, 0]	n/a	FR1	1	R1228M
2032.67	0.007	2039028	COUNTDOWN_END	n/a	n/a	n/a	-999	16	[0, 0, 0]	n/a	FR1	1	R1228M
2032.677	1.617	2039035	ORIENT	n/a	n/a	n/a	-999	16	[0, 0, 0]	n/a	FR1	1	R1228M
2034.294	2.084	2040652	ORIENT_OFF	n/a	n/a	n/a	-999	16	[0, 0, 0]	n/a	FR1	1	R1228M
2036.378	1.617	2042736	WORD	n/a	wordpools/wordpool_EN.txt	FRUIT	1	16	[0, 0, 0]	n/a	FR1	1	R1228M
2037.995	0.783	2044353	WORD_OFF	n/a	n/a	FRUIT	1	16	[0, 0, 0]	n/a	FR1	1	R1228M
2038.778	1.617	2045136	WORD	n/a	wordpools/wordpool_EN.txt	LAKE	2	16	[0, 0, 0]	n/a	FR1	1	R1228M
2040.395	0.967	2046753	WORD_OFF	n/a	n/a	LAKE	2	16	[0, 0, 0]	n/a	FR1	1	R1228M
2041.362	1.617	2047720	WORD	n/a	wordpools/wordpool_EN.txt	TENT	3	16	[0, 0, 0]	n/a	FR1	1	R1228M
2042.979	0.95	2049337	WORD_OFF	n/a	n/a	TENT	3	16	[0, 0, 0]	n/a	FR1	1	R1228M
2043.929	1.617	2050287	WORD	n/a	wordpools/wordpool_EN.txt	ROAD	4	16	[0, 0, 0]	n/a	FR1	1	R1228M
2045.546	0.9	2051904	WORD_OFF	n/a	n/a	ROAD	4	16	[0, 0, 0]	n/a	FR1	1	R1228M
2046.446	1.617	2052804	WORD	n/a	wordpools/wordpool_EN.txt	SAIL	5	16	[0, 0, 0]	n/a	FR1	1	R1228M
2048.063	0.934	2054421	WORD_OFF	n/a	n/a	SAIL	5	16	[0, 0, 0]	n/a	FR1	1	R1228M
2048.997	1.617	2055354	WORD	n/a	wordpools/wordpool_EN.txt	SOUP	6	16	[0, 0, 0]	n/a	FR1	1	R1228M
2050.614	0.817	2056971	WORD_OFF	n/a	n/a	SOUP	6	16	[0, 0, 0]	n/a	FR1	1	R1228M
2051.431	1.617	2057788	WORD	n/a	wordpools/wordpool_EN.txt	GRASS	7	16	[0, 0, 0]	n/a	FR1	1	R1228M
2053.048	0.783	2059405	WORD_OFF	n/a	n/a	GRASS	7	16	[0, 0, 0]	n/a	FR1	1	R1228M
2053.831	1.617	2060188	WORD	n/a	wordpools/wordpool_EN.txt	BOOK	8	16	[0, 0, 0]	n/a	FR1	1	R1228M
2055.448	0.9	2061805	WORD_OFF	n/a	n/a	BOOK	8	16	[0, 0, 0]	n/a	FR1	1	R1228M
2056.348	1.617	2062705	WORD	n/a	wordpools/wordpool_EN.txt	BAT	9	16	[0, 0, 0]	n/a	FR1	1	R1228M
2057.965	0.934	2064322	WORD_OFF	n/a	n/a	BAT	9	16	[0, 0, 0]	n/a	FR1	1	R1228M
2058.899	1.618	2065256	WORD	n/a	wordpools/wordpool_EN.txt	FUDGE	10	16	[0, 0, 0]	n/a	FR1	1	R1228M
2060.517	0.782	2066874	WORD_OFF	n/a	n/a	FUDGE	10	16	[0, 0, 0]	n/a	FR1	1	R1228M
2061.299	1.617	2067656	WORD	n/a	wordpools/wordpool_EN.txt	BEE	11	16	[0, 0, 0]	n/a	FR1	1	R1228M
2062.916	0.85	2069273	WORD_OFF	n/a	n/a	BEE	11	16	[0, 0, 0]	n/a	FR1	1	R1228M
2063.766	1.618	2070123	WORD	n/a	wordpools/wordpool_EN.txt	RICE	12	16	[0, 0, 0]	n/a	FR1	1	R1228M
2065.384	0.0	2071741	WORD_OFF	n/a	n/a	RICE	12	16	[0, 0, 0]	n/a	FR1	1	R1228M
2065.384	0.0	2071741	DISTRACT_START	n/a	n/a	n/a	-999	16	[0, 0, 0]	n/a	FR1	1	R1228M
2065.384	0.016	2071741	START	n/a	n/a	n/a	-999	16	[-999, -999, -999]	n/a	FR1	1	R1228M
2065.4	2.467	2071757	PROB	2.467	n/a	n/a	-999	16	[7, 3, 1]	11	FR1	1	R1228M
2067.867	3.918	2074223	PROB	3.918	n/a	n/a	-999	16	[9, 7, 2]	18	FR1	1	R1228M
2071.785	3.967	2078141	PROB	3.967	n/a	n/a	-999	16	[7, 2, 7]	16	FR1	1	R1228M
2075.752	6.018	2082108	PROB	6.018	n/a	n/a	-999	16	[5, 7, 9]	21	FR1	1	R1228M
2081.77	4.467	2088126	PROB	4.467	n/a	n/a	-999	16	[9, 6, 8]	24	FR1	1	R1228M
2086.237	0.017	2092592	STOP	n/a	n/a	n/a	-999	16	[-999, -999, -999]	n/a	FR1	1	R1228M
2086.254	0.584	2092609	DISTRACT_END	n/a	n/a	n/a	-999	16	[0, 0, 0]	n/a	FR1	1	R1228M
2086.838	0.517	2093193	RETRIEVAL_ORIENT	n/a	n/a	n/a	-999	16	[0, 0, 0]	n/a	FR1	1	R1228M
2087.355	3.314	2093710	REC_START	n/a	n/a	n/a	-999	16	[0, 0, 0]	n/a	FR1	1	R1228M
2090.669	0.844	2097024	REC_WORD	0.844	n/a	LAKE	2	16	[0, 0, 0]	n/a	FR1	1	R1228M
2091.513	1.049	2097868	REC_WORD	1.049	n/a	TRAIL	-999	16	[0, 0, 0]	n/a	FR1	1	R1228M
2092.562	2.678	2098917	REC_WORD	2.678	n/a	TENT	3	16	[0, 0, 0]	n/a	FR1	1	R1228M
2095.24	3.605	2101595	REC_WORD	3.605	n/a	SAIL	5	16	[0, 0, 0]	n/a	FR1	1	R1228M
2098.845	1.712	2105200	REC_WORD	1.712	n/a	GRASS	7	16	[0, 0, 0]	n/a	FR1	1	R1228M
2100.557	16.81	2106912	REC_WORD	16.81	n/a	SOUP	6	16	[0, 0, 0]	n/a	FR1	1	R1228M
2117.367	4.411	2123721	REC_END	n/a	n/a	n/a	-999	16	[0, 0, 0]	n/a	FR1	1	R1228M
2121.778	0.5	2128131	TRIAL	n/a	n/a	n/a	-999	17	[0, 0, 0]	n/a	FR1	1	R1228M
2122.278	10.428	2128631	COUNTDOWN_START	n/a	n/a	n/a	-999	17	[0, 0, 0]	n/a	FR1	1	R1228M
2132.706	0.007	2139059	COUNTDOWN_END	n/a	n/a	n/a	-999	17	[0, 0, 0]	n/a	FR1	1	R1228M
2132.713	1.617	2139066	ORIENT	n/a	n/a	n/a	-999	17	[0, 0, 0]	n/a	FR1	1	R1228M
2134.33	2.217	2140683	ORIENT_OFF	n/a	n/a	n/a	-999	17	[0, 0, 0]	n/a	FR1	1	R1228M
2136.547	1.617	2142900	WORD	n/a	wordpools/wordpool_EN.txt	COUCH	1	17	[0, 0, 0]	n/a	FR1	1	R1228M
2138.164	0.867	2144516	WORD_OFF	n/a	n/a	COUCH	1	17	[0, 0, 0]	n/a	FR1	1	R1228M
2139.031	1.617	2145383	WORD	n/a	wordpools/wordpool_EN.txt	DIME	2	17	[0, 0, 0]	n/a	FR1	1	R1228M
2140.648	0.8	2147000	WORD_OFF	n/a	n/a	DIME	2	17	[0, 0, 0]	n/a	FR1	1	R1228M
2141.448	1.617	2147800	WORD	n/a	wordpools/wordpool_EN.txt	VINE	3	17	[0, 0, 0]	n/a	FR1	1	R1228M
2143.065	0.884	2149417	WORD_OFF	n/a	n/a	VINE	3	17	[0, 0, 0]	n/a	FR1	1	R1228M
2143.949	1.617	2150301	WORD	n/a	wordpools/wordpool_EN.txt	FLUTE	4	17	[0, 0, 0]	n/a	FR1	1	R1228M
2145.566	0.817	2151918	WORD_OFF	n/a	n/a	FLUTE	4	17	[0, 0, 0]	n/a	FR1	1	R1228M
2146.383	1.617	2152735	WORD	n/a	wordpools/wordpool_EN.txt	NOSE	5	17	[0, 0, 0]	n/a	FR1	1	R1228M
2148.0	0.966	2154352	WORD_OFF	n/a	n/a	NOSE	5	17	[0, 0, 0]	n/a	FR1	1	R1228M
2148.966	1.617	2155318	WORD	n/a	wordpools/wordpool_EN.txt	STREET	6	17	[0, 0, 0]	n/a	FR1	1	R1228M
2150.583	0.952	2156935	WORD_OFF	n/a	n/a	STREET	6	17	[0, 0, 0]	n/a	FR1	1	R1228M
2151.535	1.616	2157887	WORD	n/a	wordpools/wordpool_EN.txt	THREAD	7	17	[0, 0, 0]	n/a	FR1	1	R1228M
2153.151	0.85	2159503	WORD_OFF	n/a	n/a	THREAD	7	17	[0, 0, 0]	n/a	FR1	1	R1228M
2154.001	1.617	2160353	WORD	n/a	wordpools/wordpool_EN.txt	HOLE	8	17	[0, 0, 0]	n/a	FR1	1	R1228M
2155.618	0.901	2161969	WORD_OFF	n/a	n/a	HOLE	8	17	[0, 0, 0]	n/a	FR1	1	R1228M
2156.519	1.616	2162870	WORD	n/a	wordpools/wordpool_EN.txt	HOOK	9	17	[0, 0, 0]	n/a	FR1	1	R1228M
2158.135	0.95	2164486	WORD_OFF	n/a	n/a	HOOK	9	17	[0, 0, 0]	n/a	FR1	1	R1228M
2159.085	1.617	2165436	WORD	n/a	wordpools/wordpool_EN.txt	MAT	10	17	[0, 0, 0]	n/a	FR1	1	R1228M
2160.702	0.984	2167053	WORD_OFF	n/a	n/a	MAT	10	17	[0, 0, 0]	n/a	FR1	1	R1228M
2161.686	1.617	2168037	WORD	n/a	wordpools/wordpool_EN.txt	FISH	11	17	[0, 0, 0]	n/a	FR1	1	R1228M
2163.303	0.766	2169654	WORD_OFF	n/a	n/a	FISH	11	17	[0, 0, 0]	n/a	FR1	1	R1228M
2164.069	1.617	2170420	WORD	n/a	wordpools/wordpool_EN.txt	CHIN	12	17	[0, 0, 0]	n/a	FR1	1	R1228M
2165.686	0.0	2172037	DISTRACT_START	n/a	n/a	n/a	-999	17	[0, 0, 0]	n/a	FR1	1	R1228M
2165.686	0.001	2172037	WORD_OFF	n/a	n/a	CHIN	12	17	[0, 0, 0]	n/a	FR1	1	R1228M
2165.687	0.016	2172038	START	n/a	n/a	n/a	-999	17	[-999, -999, -999]	n/a	FR1	1	R1228M
2165.703	3.201	2172054	PROB	3.201	n/a	n/a	-999	17	[5, 8, 4]	17	FR1	1	R1228M
2168.904	1.933	2175255	PROB	1.933	n/a	n/a	-999	17	[7, 3, 1]	11	FR1	1	R1228M
2170.837	5.068	2177188	PROB	5.068	n/a	n/a	-999	17	[7, 1, 5]	13	FR1	1	R1228M
2175.905	2.484	2182255	PROB	2.484	n/a	n/a	-999	17	[8, 2, 8]	18	FR1	1	R1228M
2178.389	3.084	2184739	PROB	3.084	n/a	n/a	-999	17	[3, 3, 1]	7	FR1	1	R1228M
2181.473	3.284	2187823	PROB	3.284	n/a	n/a	-999	17	[4, 2, 8]	14	FR1	1	R1228M
2184.757	3.048	2191107	PROB	3.048	n/a	n/a	-999	17	[2, 9, 2]	13	FR1	1	R1228M
2187.805	0.019	2194155	STOP	n/a	n/a	n/a	-999	17	[-999, -999, -999]	n/a	FR1	1	R1228M
2187.824	0.567	2194174	DISTRACT_END	n/a	n/a	n/a	-999	17	[0, 0, 0]	n/a	FR1	1	R1228M
2188.391	0.517	2194741	RETRIEVAL_ORIENT	n/a	n/a	n/a	-999	17	[0, 0, 0]	n/a	FR1	1	R1228M
2188.908	1.706	2195258	REC_START	n/a	n/a	n/a	-999	17	[0, 0, 0]	n/a	FR1	1	R1228M
2190.614	1.493	2196963	REC_WORD	1.493	n/a	CHIN	12	17	[0, 0, 0]	n/a	FR1	1	R1228M
2192.107	1.067	2198456	REC_WORD	1.067	n/a	HOOK	9	17	[0, 0, 0]	n/a	FR1	1	R1228M
2193.174	5.008	2199523	REC_WORD	5.008	n/a	FISH	11	17	[0, 0, 0]	n/a	FR1	1	R1228M
2198.182	20.739	2204531	REC_WORD	20.739	n/a	HOLE	8	17	[0, 0, 0]	n/a	FR1	1	R1228M
2218.921	388.818	2225269	REC_END	n/a	n/a	n/a	-999	17	[0, 0, 0]	n/a	FR1	1	R1228M
2607.739	0.5	2614065	TRIAL	n/a	n/a	n/a	-999	18	[0, 0, 0]	n/a	FR1	1	R1228M
2608.239	10.428	2614565	COUNTDOWN_START	n/a	n/a	n/a	-999	18	[0, 0, 0]	n/a	FR1	1	R1228M
2618.667	0.007	2624992	COUNTDOWN_END	n/a	n/a	n/a	-999	18	[0, 0, 0]	n/a	FR1	1	R1228M
2618.674	1.617	2624999	ORIENT	n/a	n/a	n/a	-999	18	[0, 0, 0]	n/a	FR1	1	R1228M
2620.291	2.134	2626616	ORIENT_OFF	n/a	n/a	n/a	-999	18	[0, 0, 0]	n/a	FR1	1	R1228M
2622.425	1.617	2628750	WORD	n/a	wordpools/wordpool_EN.txt	SHIP	1	18	[0, 0, 0]	n/a	FR1	1	R1228M
2624.042	0.783	2630367	WORD_OFF	n/a	n/a	SHIP	1	18	[0, 0, 0]	n/a	FR1	1	R1228M
2624.825	1.617	2631150	WORD	n/a	wordpools/wordpool_EN.txt	POND	2	18	[0, 0, 0]	n/a	FR1	1	R1228M
2626.442	0.817	2632767	WORD_OFF	n/a	n/a	POND	2	18	[0, 0, 0]	n/a	FR1	1	R1228M
2627.259	1.617	2633584	WORD	n/a	wordpools/wordpool_EN.txt	JUDGE	3	18	[0, 0, 0]	n/a	FR1	1	R1228M
2628.876	0.834	2635201	WORD_OFF	n/a	n/a	JUDGE	3	18	[0, 0, 0]	n/a	FR1	1	R1228M
2629.71	1.617	2636035	WORD	n/a	wordpools/wordpool_EN.txt	PLANE	4	18	[0, 0, 0]	n/a	FR1	1	R1228M
2631.327	0.883	2637651	WORD_OFF	n/a	n/a	PLANE	4	18	[0, 0, 0]	n/a	FR1	1	R1228M
2632.21	1.617	2638534	WORD	n/a	wordpools/wordpool_EN.txt	LEAF	5	18	[0, 0, 0]	n/a	FR1	1	R1228M
2633.827	0.85	2640151	WORD_OFF	n/a	n/a	LEAF	5	18	[0, 0, 0]	n/a	FR1	1	R1228M
2634.677	1.617	2641001	WORD	n/a	wordpools/wordpool_EN.txt	HOUSE	6	18	[0, 0, 0]	n/a	FR1	1	R1228M
2636.294	0.884	2642618	WORD_OFF	n/a	n/a	HOUSE	6	18	[0, 0, 0]	n/a	FR1	1	R1228M
2637.178	1.617	2643502	WORD	n/a	wordpools/wordpool_EN.txt	EEL	7	18	[0, 0, 0]	n/a	FR1	1	R1228M
2638.795	0.933	2645119	WORD_OFF	n/a	n/a	EEL	7	18	[0, 0, 0]	n/a	FR1	1	R1228M
2639.728	1.617	2646052	WORD	n/a	wordpools/wordpool_EN.txt	CORD	8	18	[0, 0, 0]	n/a	FR1	1	R1228M
2641.345	1.0	2647669	WORD_OFF	n/a	n/a	CORD	8	18	[0, 0, 0]	n/a	FR1	1	R1228M
2642.345	1.617	2648669	WORD	n/a	wordpools/wordpool_EN.txt	TOAD	9	18	[0, 0, 0]	n/a	FR1	1	R1228M
2643.962	0.851	2650286	WORD_OFF	n/a	n/a	TOAD	9	18	[0, 0, 0]	n/a	FR1	1	R1228M
2644.813	1.616	2651137	WORD	n/a	wordpools/wordpool_EN.txt	DRUM	10	18	[0, 0, 0]	n/a	FR1	1	R1228M
2646.429	0.967	2652753	WORD_OFF	n/a	n/a	DRUM	10	18	[0, 0, 0]	n/a	FR1	1	R1228M
2647.396	1.617	2653720	WORD	n/a	wordpools/wordpool_EN.txt	HORSE	11	18	[0, 0, 0]	n/a	FR1	1	R1228M
2649.013	1.017	2655336	WORD_OFF	n/a	n/a	HORSE	11	18	[0, 0, 0]	n/a	FR1	1	R1228M
2650.03	1.617	2656353	WORD	n/a	wordpools/wordpool_EN.txt	HORN	12	18	[0, 0, 0]	n/a	FR1	1	R1228M
2651.647	0.0	2657970	WORD_OFF	n/a	n/a	HORN	12	18	[0, 0, 0]	n/a	FR1	1	R1228M
2651.647	0.001	2657970	DISTRACT_START	n/a	n/a	n/a	-999	18	[0, 0, 0]	n/a	FR1	1	R1228M
2651.648	0.016	2657971	START	n/a	n/a	n/a	-999	18	[-999, -999, -999]	n/a	FR1	1	R1228M
2651.664	4.684	2657987	PROB	4.684	n/a	n/a	-999	18	[5, 8, 6]	19	FR1	1	R1228M
2656.348	3.334	2662671	PROB	3.334	n/a	n/a	-999	18	[4, 9, 9]	22	FR1	1	R1228M
2659.682	2.484	2666005	PROB	2.484	n/a	n/a	-999	18	[5, 3, 3]	11	FR1	1	R1228M
2662.166	2.967	2668489	PROB	2.967	n/a	n/a	-999	18	[3, 6, 6]	15	FR1	1	R1228M
2665.133	3.201	2671456	PROB	3.201	n/a	n/a	-999	18	[1, 1, 8]	10	FR1	1	R1228M
2668.334	4.175	2674656	PROB	4.175	n/a	n/a	-999	18	[3, 4, 8]	15	FR1	1	R1228M
2672.509	0.01	2678831	STOP	n/a	n/a	n/a	-999	18	[-999, -999, -999]	n/a	FR1	1	R1228M
2672.519	0.665	2678841	DISTRACT_END	n/a	n/a	n/a	-999	18	[0, 0, 0]	n/a	FR1	1	R1228M
2673.184	0.518	2679506	RETRIEVAL_ORIENT	n/a	n/a	n/a	-999	18	[0, 0, 0]	n/a	FR1	1	R1228M
2673.702	1.949	2680024	REC_START	n/a	n/a	n/a	-999	18	[0, 0, 0]	n/a	FR1	1	R1228M
2675.651	8.7	2681973	REC_WORD	8.7	n/a	SHIP	1	18	[0, 0, 0]	n/a	FR1	1	R1228M
2684.351	19.361	2690672	REC_WORD	19.361	n/a	FUCK	-999	18	[0, 0, 0]	n/a	FR1	1	R1228M
2703.712	18.499	2710032	REC_END	n/a	n/a	n/a	-999	18	[0, 0, 0]	n/a	FR1	1	R1228M
2722.211	0.0	2728530	TRIAL	n/a	n/a	n/a	-999	19	[0, 0, 0]	n/a	FR1	1	R1228M
