onset	duration	sample	trial_type	response_time	stim_file	item_name	serialpos	list	test	answer	experiment	session	subject
0.0	2.516	78454	INSTRUCT_START	n/a	n/a	n/a	-999	-999	[0, 0, 0]	n/a	FR1	0	R1387E
2.516	5.8	80955	INSTRUCT_END	n/a	n/a	n/a	-999	-999	[0, 0, 0]	n/a	FR1	0	R1387E
8.316	161.65	86764	INSTRUCT_START	n/a	n/a	n/a	-999	-999	[0, 0, 0]	n/a	FR1	0	R1387E
169.966	158.116	248402	INSTRUCT_END	n/a	n/a	n/a	-999	-999	[0, 0, 0]	n/a	FR1	0	R1387E
328.082	10.351	406518	COUNTDOWN_START	n/a	n/a	n/a	-999	-999	[0, 0, 0]	n/a	FR1	0	R1387E
338.433	0.001	416869	COUNTDOWN_END	n/a	n/a	n/a	-999	-999	[0, 0, 0]	n/a	FR1	0	R1387E
338.434	2.165	416869	ENCODING_START	n/a	n/a	n/a	-999	-1	[0, 0, 0]	n/a	FR1	0	R1387E
340.599	1.6	419040	WORD	n/a	n/a	BABY	1	-1	[0, 0, 0]	n/a	FR1	0	R1387E
342.199	0.933	420636	WORD_OFF	n/a	n/a	BABY	1	-1	[0, 0, 0]	n/a	FR1	0	R1387E
343.132	1.617	421570	WORD	n/a	n/a	FLOOD	2	-1	[0, 0, 0]	n/a	FR1	0	R1387E
344.749	0.933	423181	WORD_OFF	n/a	n/a	FLOOD	2	-1	[0, 0, 0]	n/a	FR1	0	R1387E
345.682	1.616	424115	WORD	n/a	n/a	RHINO	3	-1	[0, 0, 0]	n/a	FR1	0	R1387E
347.298	0.884	425740	WORD_OFF	n/a	n/a	RHINO	3	-1	[0, 0, 0]	n/a	FR1	0	R1387E
348.182	1.616	426617	WORD	n/a	n/a	WAGON	4	-1	[0, 0, 0]	n/a	FR1	0	R1387E
349.798	0.8	428227	WORD_OFF	n/a	n/a	WAGON	4	-1	[0, 0, 0]	n/a	FR1	0	R1387E
350.598	1.617	429032	WORD	n/a	n/a	CHEST	5	-1	[0, 0, 0]	n/a	FR1	0	R1387E
352.215	0.883	430656	WORD_OFF	n/a	n/a	CHEST	5	-1	[0, 0, 0]	n/a	FR1	0	R1387E
353.098	1.617	431533	WORD	n/a	n/a	COTTON	6	-1	[0, 0, 0]	n/a	FR1	0	R1387E
354.715	0.9	433144	WORD_OFF	n/a	n/a	COTTON	6	-1	[0, 0, 0]	n/a	FR1	0	R1387E
355.615	1.6	434049	WORD	n/a	n/a	CAMEL	7	-1	[0, 0, 0]	n/a	FR1	0	R1387E
357.215	0.85	435660	WORD_OFF	n/a	n/a	CAMEL	7	-1	[0, 0, 0]	n/a	FR1	0	R1387E
358.065	1.6	436493	WORD	n/a	n/a	TONGUE	8	-1	[0, 0, 0]	n/a	FR1	0	R1387E
359.665	0.767	438104	WORD_OFF	n/a	n/a	TONGUE	8	-1	[0, 0, 0]	n/a	FR1	0	R1387E
360.432	1.616	438866	WORD	n/a	n/a	IMAGE	9	-1	[0, 0, 0]	n/a	FR1	0	R1387E
362.048	0.817	440476	WORD_OFF	n/a	n/a	IMAGE	9	-1	[0, 0, 0]	n/a	FR1	0	R1387E
362.865	1.616	441295	WORD	n/a	n/a	BEAM	10	-1	[0, 0, 0]	n/a	FR1	0	R1387E
364.481	1.0	442920	WORD_OFF	n/a	n/a	BEAM	10	-1	[0, 0, 0]	n/a	FR1	0	R1387E
365.481	1.617	443912	WORD	n/a	n/a	WATCH	11	-1	[0, 0, 0]	n/a	FR1	0	R1387E
367.098	0.767	445536	WORD_OFF	n/a	n/a	WATCH	11	-1	[0, 0, 0]	n/a	FR1	0	R1387E
367.865	1.6	446298	WORD	n/a	n/a	RING	12	-1	[0, 0, 0]	n/a	FR1	0	R1387E
369.465	0.001	447894	WORD_OFF	n/a	n/a	RING	12	-1	[0, 0, 0]	n/a	FR1	0	R1387E
369.466	0.0	447894	ENCODING_END	n/a	n/a	n/a	-999	-1	[0, 0, 0]	n/a	FR1	0	R1387E
369.466	0.001	447899	PROB	0.001	n/a	n/a	-999	-1	[8, 7, 5]	20	FR1	0	R1387E
369.467	0.0	447900	START	n/a	n/a	n/a	-999	-1	[-999, -999, -999]	n/a	FR1	0	R1387E
369.467	17.433	447909	DISTRACT_START	n/a	n/a	n/a	-999	-1	[0, 0, 0]	n/a	FR1	0	R1387E
386.9	5.782	465332	PROB	5.782	n/a	n/a	-999	-1	[6, 2, 8]	16	FR1	0	R1387E
392.682	0.0	471113	DISTRACT_END	n/a	n/a	n/a	-999	-1	[0, 0, 0]	n/a	FR1	0	R1387E
392.682	1.785	471114	STOP	n/a	n/a	n/a	-999	-1	[-999, -999, -999]	n/a	FR1	0	R1387E
394.467	3.223	472892	REC_START	n/a	n/a	n/a	-999	-1	[0, 0, 0]	n/a	FR1	0	R1387E
397.69	0.939	476122	REC_WORD_VV	0.939	n/a	<>	-999	-1	[0, 0, 0]	n/a	FR1	0	R1387E
398.629	1.022	477061	REC_WORD	1.022	n/a	BABY	1	-1	[0, 0, 0]	n/a	FR1	0	R1387E
399.651	1.526	478083	REC_WORD	1.526	n/a	RHINO	3	-1	[0, 0, 0]	n/a	FR1	0	R1387E
401.177	4.483	479609	REC_WORD	4.483	n/a	WAGON	4	-1	[0, 0, 0]	n/a	FR1	0	R1387E
405.66	16.127	484092	REC_WORD	16.127	n/a	CATTLE	-999	-1	[0, 0, 0]	n/a	FR1	0	R1387E
421.787	2.965	500218	REC_WORD	2.965	n/a	SAND	-999	-1	[0, 0, 0]	n/a	FR1	0	R1387E
424.752	54.414	503184	REC_END	n/a	n/a	n/a	-999	-1	[0, 0, 0]	n/a	FR1	0	R1387E
479.166	10.35	557589	COUNTDOWN_START	n/a	n/a	n/a	-999	1	[0, 0, 0]	n/a	FR1	0	R1387E
489.516	0.0	567941	COUNTDOWN_END	n/a	n/a	n/a	-999	1	[0, 0, 0]	n/a	FR1	0	R1387E
489.516	2.049	567941	ENCODING_START	n/a	n/a	n/a	-999	1	[0, 0, 0]	n/a	FR1	0	R1387E
491.565	1.601	569996	WORD	n/a	n/a	AISLE	1	1	[0, 0, 0]	n/a	FR1	0	R1387E
493.166	0.95	571592	WORD_OFF	n/a	n/a	AISLE	1	1	[0, 0, 0]	n/a	FR1	0	R1387E
494.116	1.616	572541	WORD	n/a	n/a	RAT	2	1	[0, 0, 0]	n/a	FR1	0	R1387E
495.732	0.816	574166	WORD_OFF	n/a	n/a	RAT	2	1	[0, 0, 0]	n/a	FR1	0	R1387E
496.548	1.601	574971	WORD	n/a	n/a	GLOVE	3	1	[0, 0, 0]	n/a	FR1	0	R1387E
498.149	0.866	576581	WORD_OFF	n/a	n/a	GLOVE	3	1	[0, 0, 0]	n/a	FR1	0	R1387E
499.015	1.617	577444	WORD	n/a	n/a	FROST	4	1	[0, 0, 0]	n/a	FR1	0	R1387E
500.632	0.834	579068	WORD_OFF	n/a	n/a	FROST	4	1	[0, 0, 0]	n/a	FR1	0	R1387E
501.466	1.616	579888	WORD	n/a	n/a	BROOM	5	1	[0, 0, 0]	n/a	FR1	0	R1387E
503.082	0.884	581512	WORD_OFF	n/a	n/a	BROOM	5	1	[0, 0, 0]	n/a	FR1	0	R1387E
503.966	1.6	582389	WORD	n/a	n/a	MOSS	6	1	[0, 0, 0]	n/a	FR1	0	R1387E
505.566	0.9	583999	WORD_OFF	n/a	n/a	MOSS	6	1	[0, 0, 0]	n/a	FR1	0	R1387E
506.466	1.6	584891	WORD	n/a	n/a	YARD	7	1	[0, 0, 0]	n/a	FR1	0	R1387E
508.066	0.983	586501	WORD_OFF	n/a	n/a	YARD	7	1	[0, 0, 0]	n/a	FR1	0	R1387E
509.049	1.6	587479	WORD	n/a	n/a	STAR	8	1	[0, 0, 0]	n/a	FR1	0	R1387E
510.649	0.983	589074	WORD_OFF	n/a	n/a	STAR	8	1	[0, 0, 0]	n/a	FR1	0	R1387E
511.632	1.616	590066	WORD	n/a	n/a	FORT	9	1	[0, 0, 0]	n/a	FR1	0	R1387E
513.248	0.851	591677	WORD_OFF	n/a	n/a	FORT	9	1	[0, 0, 0]	n/a	FR1	0	R1387E
514.099	1.617	592525	WORD	n/a	n/a	SHED	10	1	[0, 0, 0]	n/a	FR1	0	R1387E
515.716	0.85	594149	WORD_OFF	n/a	n/a	SHED	10	1	[0, 0, 0]	n/a	FR1	0	R1387E
516.566	1.6	594998	WORD	n/a	n/a	ELF	11	1	[0, 0, 0]	n/a	FR1	0	R1387E
518.166	0.9	596594	WORD_OFF	n/a	n/a	ELF	11	1	[0, 0, 0]	n/a	FR1	0	R1387E
519.066	1.616	597499	WORD	n/a	n/a	HAY	12	1	[0, 0, 0]	n/a	FR1	0	R1387E
520.682	0.002	599109	WORD_OFF	n/a	n/a	HAY	12	1	[0, 0, 0]	n/a	FR1	0	R1387E
520.684	0.0	599109	ENCODING_END	n/a	n/a	n/a	-999	1	[0, 0, 0]	n/a	FR1	0	R1387E
520.684	0.0	599109	DISTRACT_START	n/a	n/a	n/a	-999	1	[0, 0, 0]	n/a	FR1	0	R1387E
520.683	0.001	599111	PROB	0.001	n/a	n/a	-999	1	[1, 8, 5]	14	FR1	0	R1387E
520.684	8.648	599112	START	n/a	n/a	n/a	-999	1	[-999, -999, -999]	n/a	FR1	0	R1387E
529.332	7.267	607759	PROB	7.267	n/a	n/a	-999	1	[2, 6, 5]	13	FR1	0	R1387E
536.599	4.983	615026	PROB	4.983	n/a	n/a	-999	1	[6, 1, 2]	9	FR1	0	R1387E
541.582	0.0	620009	STOP	n/a	n/a	n/a	-999	1	[-999, -999, -999]	n/a	FR1	0	R1387E
541.582	1.716	620013	DISTRACT_END	n/a	n/a	n/a	-999	1	[0, 0, 0]	n/a	FR1	0	R1387E
543.298	2.162	621721	REC_START	n/a	n/a	n/a	-999	1	[0, 0, 0]	n/a	FR1	0	R1387E
545.46	2.275	623887	REC_WORD	2.275	n/a	AISLE	1	1	[0, 0, 0]	n/a	FR1	0	R1387E
547.735	4.837	626162	REC_WORD	4.837	n/a	RAT	2	1	[0, 0, 0]	n/a	FR1	0	R1387E
552.572	2.001	630999	REC_WORD	2.001	n/a	SHED	10	1	[0, 0, 0]	n/a	FR1	0	R1387E
554.573	19.025	633000	REC_WORD	19.025	n/a	HAY	12	1	[0, 0, 0]	n/a	FR1	0	R1387E
573.598	9.801	652027	REC_END	n/a	n/a	n/a	-999	1	[0, 0, 0]	n/a	FR1	0	R1387E
583.399	10.35	661821	COUNTDOWN_START	n/a	n/a	n/a	-999	2	[0, 0, 0]	n/a	FR1	0	R1387E
593.749	0.001	672172	COUNTDOWN_END	n/a	n/a	n/a	-999	2	[0, 0, 0]	n/a	FR1	0	R1387E
593.75	1.866	672172	ENCODING_START	n/a	n/a	n/a	-999	2	[0, 0, 0]	n/a	FR1	0	R1387E
595.616	1.616	674041	WORD	n/a	n/a	BOWL	1	2	[0, 0, 0]	n/a	FR1	0	R1387E
597.232	0.884	675652	WORD_OFF	n/a	n/a	BOWL	1	2	[0, 0, 0]	n/a	FR1	0	R1387E
598.116	1.6	676543	WORD	n/a	n/a	SOAP	2	2	[0, 0, 0]	n/a	FR1	0	R1387E
599.716	0.766	678139	WORD_OFF	n/a	n/a	SOAP	2	2	[0, 0, 0]	n/a	FR1	0	R1387E
600.482	1.6	678915	WORD	n/a	n/a	MIST	3	2	[0, 0, 0]	n/a	FR1	0	R1387E
602.082	1.0	680511	WORD_OFF	n/a	n/a	MIST	3	2	[0, 0, 0]	n/a	FR1	0	R1387E
603.082	1.6	681503	WORD	n/a	n/a	GUN	4	2	[0, 0, 0]	n/a	FR1	0	R1387E
604.682	0.783	683113	WORD_OFF	n/a	n/a	GUN	4	2	[0, 0, 0]	n/a	FR1	0	R1387E
605.465	1.601	683889	WORD	n/a	n/a	FLAG	5	2	[0, 0, 0]	n/a	FR1	0	R1387E
607.066	0.766	685485	WORD_OFF	n/a	n/a	FLAG	5	2	[0, 0, 0]	n/a	FR1	0	R1387E
607.832	1.6	686262	WORD	n/a	n/a	POT	6	2	[0, 0, 0]	n/a	FR1	0	R1387E
609.432	0.917	687857	WORD_OFF	n/a	n/a	POT	6	2	[0, 0, 0]	n/a	FR1	0	R1387E
610.349	1.616	688778	WORD	n/a	n/a	JAR	7	2	[0, 0, 0]	n/a	FR1	0	R1387E
611.965	0.818	690388	WORD_OFF	n/a	n/a	JAR	7	2	[0, 0, 0]	n/a	FR1	0	R1387E
612.783	1.616	691207	WORD	n/a	n/a	PIN	8	2	[0, 0, 0]	n/a	FR1	0	R1387E
614.399	0.95	692817	WORD_OFF	n/a	n/a	PIN	8	2	[0, 0, 0]	n/a	FR1	0	R1387E
615.349	1.6	693781	WORD	n/a	n/a	BADGE	9	2	[0, 0, 0]	n/a	FR1	0	R1387E
616.949	0.85	695376	WORD_OFF	n/a	n/a	BADGE	9	2	[0, 0, 0]	n/a	FR1	0	R1387E
617.799	1.6	696225	WORD	n/a	n/a	PALM	10	2	[0, 0, 0]	n/a	FR1	0	R1387E
619.399	0.866	697821	WORD_OFF	n/a	n/a	PALM	10	2	[0, 0, 0]	n/a	FR1	0	R1387E
620.265	1.616	698683	WORD	n/a	n/a	CAVE	11	2	[0, 0, 0]	n/a	FR1	0	R1387E
621.881	0.884	700308	WORD_OFF	n/a	n/a	CAVE	11	2	[0, 0, 0]	n/a	FR1	0	R1387E
622.765	1.601	701185	WORD	n/a	n/a	CHAIN	12	2	[0, 0, 0]	n/a	FR1	0	R1387E
624.366	0.001	702790	PROB	0.001	n/a	n/a	-999	2	[6, 2, 4]	12	FR1	0	R1387E
624.367	0.0	702791	START	n/a	n/a	n/a	-999	2	[-999, -999, -999]	n/a	FR1	0	R1387E
624.365	0.002	702795	WORD_OFF	n/a	n/a	CHAIN	12	2	[0, 0, 0]	n/a	FR1	0	R1387E
624.367	0.0	702795	ENCODING_END	n/a	n/a	n/a	-999	2	[0, 0, 0]	n/a	FR1	0	R1387E
624.367	6.299	702795	DISTRACT_START	n/a	n/a	n/a	-999	2	[0, 0, 0]	n/a	FR1	0	R1387E
630.666	8.049	709090	PROB	8.049	n/a	n/a	-999	2	[7, 5, 3]	15	FR1	0	R1387E
638.715	7.883	717139	PROB	7.883	n/a	n/a	-999	2	[8, 5, 1]	14	FR1	0	R1387E
646.598	0.0	725021	DISTRACT_END	n/a	n/a	n/a	-999	2	[0, 0, 0]	n/a	FR1	0	R1387E
646.598	1.7	725022	STOP	n/a	n/a	n/a	-999	2	[-999, -999, -999]	n/a	FR1	0	R1387E
648.298	5.203	726729	REC_START	n/a	n/a	n/a	-999	2	[0, 0, 0]	n/a	FR1	0	R1387E
653.501	3.222	731924	REC_WORD	3.222	n/a	PIN	8	2	[0, 0, 0]	n/a	FR1	0	R1387E
656.723	2.265	735146	REC_WORD	2.265	n/a	BADGE	9	2	[0, 0, 0]	n/a	FR1	0	R1387E
658.988	4.236	737411	REC_WORD	4.236	n/a	JAR	7	2	[0, 0, 0]	n/a	FR1	0	R1387E
663.224	15.372	741647	REC_WORD	15.372	n/a	AISLE	-999	2	[0, 0, 0]	n/a	FR1	0	R1387E
678.596	6.736	757021	REC_END	n/a	n/a	n/a	-999	2	[0, 0, 0]	n/a	FR1	0	R1387E
685.332	10.351	763753	COUNTDOWN_START	n/a	n/a	n/a	-999	3	[0, 0, 0]	n/a	FR1	0	R1387E
695.683	0.0	774104	COUNTDOWN_END	n/a	n/a	n/a	-999	3	[0, 0, 0]	n/a	FR1	0	R1387E
695.683	2.266	774104	ENCODING_START	n/a	n/a	n/a	-999	3	[0, 0, 0]	n/a	FR1	0	R1387E
697.949	1.617	776375	WORD	n/a	n/a	CHEEK	1	3	[0, 0, 0]	n/a	FR1	0	R1387E
699.566	0.833	777986	WORD_OFF	n/a	n/a	CHEEK	1	3	[0, 0, 0]	n/a	FR1	0	R1387E
700.399	1.6	778819	WORD	n/a	n/a	FLAME	2	3	[0, 0, 0]	n/a	FR1	0	R1387E
701.999	0.966	780415	WORD_OFF	n/a	n/a	FLAME	2	3	[0, 0, 0]	n/a	FR1	0	R1387E
702.965	1.601	781393	WORD	n/a	n/a	THROAT	3	3	[0, 0, 0]	n/a	FR1	0	R1387E
704.566	0.933	782989	WORD_OFF	n/a	n/a	THROAT	3	3	[0, 0, 0]	n/a	FR1	0	R1387E
705.499	1.616	783923	WORD	n/a	n/a	KITE	4	3	[0, 0, 0]	n/a	FR1	0	R1387E
707.115	0.9	785533	WORD_OFF	n/a	n/a	KITE	4	3	[0, 0, 0]	n/a	FR1	0	R1387E
708.015	1.6	786439	WORD	n/a	n/a	LIP	5	3	[0, 0, 0]	n/a	FR1	0	R1387E
709.615	0.984	788035	WORD_OFF	n/a	n/a	LIP	5	3	[0, 0, 0]	n/a	FR1	0	R1387E
710.599	1.6	789027	WORD	n/a	n/a	NECK	6	3	[0, 0, 0]	n/a	FR1	0	R1387E
712.199	0.833	790623	WORD_OFF	n/a	n/a	NECK	6	3	[0, 0, 0]	n/a	FR1	0	R1387E
713.032	1.617	791457	WORD	n/a	n/a	NURSE	7	3	[0, 0, 0]	n/a	FR1	0	R1387E
714.649	0.849	793067	WORD_OFF	n/a	n/a	NURSE	7	3	[0, 0, 0]	n/a	FR1	0	R1387E
715.498	1.601	793915	WORD	n/a	n/a	TAIL	8	3	[0, 0, 0]	n/a	FR1	0	R1387E
717.099	0.783	795525	WORD_OFF	n/a	n/a	TAIL	8	3	[0, 0, 0]	n/a	FR1	0	R1387E
717.882	1.6	796302	WORD	n/a	n/a	CORD	9	3	[0, 0, 0]	n/a	FR1	0	R1387E
719.482	0.767	797897	WORD_OFF	n/a	n/a	CORD	9	3	[0, 0, 0]	n/a	FR1	0	R1387E
720.249	1.616	798674	WORD	n/a	n/a	TOAD	10	3	[0, 0, 0]	n/a	FR1	0	R1387E
721.865	0.933	800284	WORD_OFF	n/a	n/a	TOAD	10	3	[0, 0, 0]	n/a	FR1	0	R1387E
722.798	1.6	801218	WORD	n/a	n/a	SALT	11	3	[0, 0, 0]	n/a	FR1	0	R1387E
724.398	1.0	802814	WORD_OFF	n/a	n/a	SALT	11	3	[0, 0, 0]	n/a	FR1	0	R1387E
725.398	1.617	803821	WORD	n/a	n/a	PET	12	3	[0, 0, 0]	n/a	FR1	0	R1387E
727.015	0.001	805431	WORD_OFF	n/a	n/a	PET	12	3	[0, 0, 0]	n/a	FR1	0	R1387E
727.016	0.0	805437	START	n/a	n/a	n/a	-999	3	[-999, -999, -999]	n/a	FR1	0	R1387E
727.016	0.0	805437	PROB	0.0	n/a	n/a	-999	3	[2, 4, 5]	11	FR1	0	R1387E
727.016	0.0	805445	ENCODING_END	n/a	n/a	n/a	-999	3	[0, 0, 0]	n/a	FR1	0	R1387E
727.016	7.166	805445	DISTRACT_START	n/a	n/a	n/a	-999	3	[0, 0, 0]	n/a	FR1	0	R1387E
734.182	6.617	812603	PROB	6.617	n/a	n/a	-999	3	[2, 7, 3]	12	FR1	0	R1387E
740.799	3.967	819219	PROB	3.967	n/a	n/a	-999	3	[2, 3, 3]	8	FR1	0	R1387E
744.766	6.233	823186	PROB	6.233	n/a	n/a	-999	3	[1, 7, 3]	11	FR1	0	R1387E
750.999	0.0	829419	STOP	n/a	n/a	n/a	-999	3	[-999, -999, -999]	n/a	FR1	0	R1387E
750.999	1.6	829426	DISTRACT_END	n/a	n/a	n/a	-999	3	[0, 0, 0]	n/a	FR1	0	R1387E
752.599	8.613	831018	REC_START	n/a	n/a	n/a	-999	3	[0, 0, 0]	n/a	FR1	0	R1387E
761.212	1.952	839632	REC_WORD	1.952	n/a	NURSE	7	3	[0, 0, 0]	n/a	FR1	0	R1387E
763.164	2.026	841584	REC_WORD	2.026	n/a	TAIL	8	3	[0, 0, 0]	n/a	FR1	0	R1387E
765.19	1.676	843610	REC_WORD	1.676	n/a	CHEEK	1	3	[0, 0, 0]	n/a	FR1	0	R1387E
766.866	6.682	845286	REC_WORD	6.682	n/a	LIP	5	3	[0, 0, 0]	n/a	FR1	0	R1387E
773.548	9.358	851967	REC_WORD_VV	9.358	n/a	<>	-999	3	[0, 0, 0]	n/a	FR1	0	R1387E
782.906	7.593	861325	REC_END	n/a	n/a	n/a	-999	3	[0, 0, 0]	n/a	FR1	0	R1387E
790.499	10.351	868919	COUNTDOWN_START	n/a	n/a	n/a	-999	4	[0, 0, 0]	n/a	FR1	0	R1387E
800.85	0.0	879270	COUNTDOWN_END	n/a	n/a	n/a	-999	4	[0, 0, 0]	n/a	FR1	0	R1387E
800.85	1.882	879270	ENCODING_START	n/a	n/a	n/a	-999	4	[0, 0, 0]	n/a	FR1	0	R1387E
802.732	1.617	881153	WORD	n/a	n/a	CHILD	1	4	[0, 0, 0]	n/a	FR1	0	R1387E
804.349	0.933	882764	WORD_OFF	n/a	n/a	CHILD	1	4	[0, 0, 0]	n/a	FR1	0	R1387E
805.282	1.6	883698	WORD	n/a	n/a	THUMB	2	4	[0, 0, 0]	n/a	FR1	0	R1387E
806.882	0.9	885294	WORD_OFF	n/a	n/a	THUMB	2	4	[0, 0, 0]	n/a	FR1	0	R1387E
807.782	1.6	886200	WORD	n/a	n/a	PORK	3	4	[0, 0, 0]	n/a	FR1	0	R1387E
809.382	0.967	887796	WORD_OFF	n/a	n/a	PORK	3	4	[0, 0, 0]	n/a	FR1	0	R1387E
810.349	1.599	888773	WORD	n/a	n/a	MULE	4	4	[0, 0, 0]	n/a	FR1	0	R1387E
811.948	0.95	890369	WORD_OFF	n/a	n/a	MULE	4	4	[0, 0, 0]	n/a	FR1	0	R1387E
812.898	1.601	891318	WORD	n/a	n/a	STREET	5	4	[0, 0, 0]	n/a	FR1	0	R1387E
814.499	0.783	892914	WORD_OFF	n/a	n/a	STREET	5	4	[0, 0, 0]	n/a	FR1	0	R1387E
815.282	1.6	893704	WORD	n/a	n/a	TEETH	6	4	[0, 0, 0]	n/a	FR1	0	R1387E
816.882	0.833	895300	WORD_OFF	n/a	n/a	TEETH	6	4	[0, 0, 0]	n/a	FR1	0	R1387E
817.715	1.6	896134	WORD	n/a	n/a	WAX	7	4	[0, 0, 0]	n/a	FR1	0	R1387E
819.315	0.967	897730	WORD_OFF	n/a	n/a	WAX	7	4	[0, 0, 0]	n/a	FR1	0	R1387E
820.282	1.6	898693	WORD	n/a	n/a	LIMB	8	4	[0, 0, 0]	n/a	FR1	0	R1387E
821.882	0.766	900303	WORD_OFF	n/a	n/a	LIMB	8	4	[0, 0, 0]	n/a	FR1	0	R1387E
822.648	1.617	901065	WORD	n/a	n/a	CRANE	9	4	[0, 0, 0]	n/a	FR1	0	R1387E
824.265	0.866	902690	WORD_OFF	n/a	n/a	CRANE	9	4	[0, 0, 0]	n/a	FR1	0	R1387E
825.131	1.6	903552	WORD	n/a	n/a	DEER	10	4	[0, 0, 0]	n/a	FR1	0	R1387E
826.731	0.967	905148	WORD_OFF	n/a	n/a	DEER	10	4	[0, 0, 0]	n/a	FR1	0	R1387E
827.698	1.6	906112	WORD	n/a	n/a	WOOD	11	4	[0, 0, 0]	n/a	FR1	0	R1387E
829.298	0.833	907722	WORD_OFF	n/a	n/a	WOOD	11	4	[0, 0, 0]	n/a	FR1	0	R1387E
830.131	1.601	908556	WORD	n/a	n/a	PAGE	12	4	[0, 0, 0]	n/a	FR1	0	R1387E
831.732	0.001	910149	PROB	0.001	n/a	n/a	-999	4	[6, 7, 5]	18	FR1	0	R1387E
831.733	0.0	910150	START	n/a	n/a	n/a	-999	4	[-999, -999, -999]	n/a	FR1	0	R1387E
831.731	0.002	910151	WORD_OFF	n/a	n/a	PAGE	12	4	[0, 0, 0]	n/a	FR1	0	R1387E
831.733	0.0	910151	ENCODING_END	n/a	n/a	n/a	-999	4	[0, 0, 0]	n/a	FR1	0	R1387E
831.733	9.101	910151	DISTRACT_START	n/a	n/a	n/a	-999	4	[0, 0, 0]	n/a	FR1	0	R1387E
840.834	8.099	919251	PROB	8.099	n/a	n/a	-999	4	[7, 8, 3]	18	FR1	0	R1387E
848.933	3.649	927350	PROB	3.649	n/a	n/a	-999	4	[1, 2, 1]	4	FR1	0	R1387E
852.582	0.0	930998	DISTRACT_END	n/a	n/a	n/a	-999	4	[0, 0, 0]	n/a	FR1	0	R1387E
852.582	1.817	930999	STOP	n/a	n/a	n/a	-999	4	[-999, -999, -999]	n/a	FR1	0	R1387E
854.399	2.352	932820	REC_START	n/a	n/a	n/a	-999	4	[0, 0, 0]	n/a	FR1	0	R1387E
856.751	3.858	935168	REC_WORD	3.858	n/a	JAW	-999	4	[0, 0, 0]	n/a	FR1	0	R1387E
860.609	4.143	939025	REC_WORD	4.143	n/a	TEETH	6	4	[0, 0, 0]	n/a	FR1	0	R1387E
864.752	4.524	943168	REC_WORD	4.524	n/a	PHONE	-999	4	[0, 0, 0]	n/a	FR1	0	R1387E
869.276	5.468	947692	REC_WORD	5.468	n/a	CHILD	1	4	[0, 0, 0]	n/a	FR1	0	R1387E
874.744	1.0	953160	REC_WORD	1.0	n/a	STREET	5	4	[0, 0, 0]	n/a	FR1	0	R1387E
875.744	8.955	954160	REC_WORD_VV	8.955	n/a	<>	-999	4	[0, 0, 0]	n/a	FR1	0	R1387E
884.699	3.949	963112	REC_END	n/a	n/a	n/a	-999	4	[0, 0, 0]	n/a	FR1	0	R1387E
888.648	10.352	967069	COUNTDOWN_START	n/a	n/a	n/a	-999	5	[0, 0, 0]	n/a	FR1	0	R1387E
899.0	0.0	977420	COUNTDOWN_END	n/a	n/a	n/a	-999	5	[0, 0, 0]	n/a	FR1	0	R1387E
899.0	2.232	977420	ENCODING_START	n/a	n/a	n/a	-999	5	[0, 0, 0]	n/a	FR1	0	R1387E
901.232	1.617	979649	WORD	n/a	n/a	TENT	1	5	[0, 0, 0]	n/a	FR1	0	R1387E
902.849	0.8	981259	WORD_OFF	n/a	n/a	TENT	1	5	[0, 0, 0]	n/a	FR1	0	R1387E
903.649	1.616	982064	WORD	n/a	n/a	SPARK	2	5	[0, 0, 0]	n/a	FR1	0	R1387E
905.265	0.967	983674	WORD_OFF	n/a	n/a	SPARK	2	5	[0, 0, 0]	n/a	FR1	0	R1387E
906.232	1.616	984652	WORD	n/a	n/a	MAP	3	5	[0, 0, 0]	n/a	FR1	0	R1387E
907.848	0.767	986262	WORD_OFF	n/a	n/a	MAP	3	5	[0, 0, 0]	n/a	FR1	0	R1387E
908.615	1.617	987024	WORD	n/a	n/a	BRANCH	4	5	[0, 0, 0]	n/a	FR1	0	R1387E
910.232	0.866	988649	WORD_OFF	n/a	n/a	BRANCH	4	5	[0, 0, 0]	n/a	FR1	0	R1387E
911.098	1.6	989511	WORD	n/a	n/a	POND	5	5	[0, 0, 0]	n/a	FR1	0	R1387E
912.698	0.984	991107	WORD_OFF	n/a	n/a	POND	5	5	[0, 0, 0]	n/a	FR1	0	R1387E
913.682	1.616	992099	WORD	n/a	n/a	POLE	6	5	[0, 0, 0]	n/a	FR1	0	R1387E
915.298	0.9	993709	WORD_OFF	n/a	n/a	POLE	6	5	[0, 0, 0]	n/a	FR1	0	R1387E
916.198	1.6	994615	WORD	n/a	n/a	BEEF	7	5	[0, 0, 0]	n/a	FR1	0	R1387E
917.798	0.9	996225	WORD_OFF	n/a	n/a	BEEF	7	5	[0, 0, 0]	n/a	FR1	0	R1387E
918.698	1.6	997117	WORD	n/a	n/a	CAMP	8	5	[0, 0, 0]	n/a	FR1	0	R1387E
920.298	0.916	998713	WORD_OFF	n/a	n/a	CAMP	8	5	[0, 0, 0]	n/a	FR1	0	R1387E
921.214	1.601	999633	WORD	n/a	n/a	PEA	9	5	[0, 0, 0]	n/a	FR1	0	R1387E
922.815	0.866	1001228	WORD_OFF	n/a	n/a	PEA	9	5	[0, 0, 0]	n/a	FR1	0	R1387E
923.681	1.601	1002091	WORD	n/a	n/a	SHIELD	10	5	[0, 0, 0]	n/a	FR1	0	R1387E
925.282	0.983	1003701	WORD_OFF	n/a	n/a	SHIELD	10	5	[0, 0, 0]	n/a	FR1	0	R1387E
926.265	1.601	1004679	WORD	n/a	n/a	BOLT	11	5	[0, 0, 0]	n/a	FR1	0	R1387E
927.866	0.833	1006275	WORD_OFF	n/a	n/a	BOLT	11	5	[0, 0, 0]	n/a	FR1	0	R1387E
928.699	1.617	1007109	WORD	n/a	n/a	SCHOOL	12	5	[0, 0, 0]	n/a	FR1	0	R1387E
930.316	0.001	1008730	PROB	0.001	n/a	n/a	-999	5	[8, 6, 7]	21	FR1	0	R1387E
930.317	0.0	1008731	START	n/a	n/a	n/a	-999	5	[-999, -999, -999]	n/a	FR1	0	R1387E
930.316	0.001	1008733	WORD_OFF	n/a	n/a	SCHOOL	12	5	[0, 0, 0]	n/a	FR1	0	R1387E
930.317	0.0	1008733	ENCODING_END	n/a	n/a	n/a	-999	5	[0, 0, 0]	n/a	FR1	0	R1387E
930.317	11.366	1008733	DISTRACT_START	n/a	n/a	n/a	-999	5	[0, 0, 0]	n/a	FR1	0	R1387E
941.683	15.383	1020097	PROB	15.383	n/a	n/a	-999	5	[6, 6, 4]	16	FR1	0	R1387E
957.066	0.0	1035474	DISTRACT_END	n/a	n/a	n/a	-999	5	[0, 0, 0]	n/a	FR1	0	R1387E
957.066	1.749	1035479	STOP	n/a	n/a	n/a	-999	5	[-999, -999, -999]	n/a	FR1	0	R1387E
958.815	3.591	1037225	REC_START	n/a	n/a	n/a	-999	5	[0, 0, 0]	n/a	FR1	0	R1387E
962.406	1.323	1040819	REC_WORD	1.323	n/a	POND	5	5	[0, 0, 0]	n/a	FR1	0	R1387E
963.729	10.985	1042142	REC_WORD	10.985	n/a	POLE	6	5	[0, 0, 0]	n/a	FR1	0	R1387E
974.714	2.839	1053127	REC_WORD	2.839	n/a	SCHOOL	12	5	[0, 0, 0]	n/a	FR1	0	R1387E
977.553	6.292	1055966	REC_WORD	6.292	n/a	STREET	-999	5	[0, 0, 0]	n/a	FR1	0	R1387E
983.845	5.267	1062257	REC_WORD	5.267	n/a	TENT	1	5	[0, 0, 0]	n/a	FR1	0	R1387E
989.112	3.453	1067531	REC_END	n/a	n/a	n/a	-999	5	[0, 0, 0]	n/a	FR1	0	R1387E
992.565	10.351	1070985	COUNTDOWN_START	n/a	n/a	n/a	-999	6	[0, 0, 0]	n/a	FR1	0	R1387E
1002.916	0.0	1081322	COUNTDOWN_END	n/a	n/a	n/a	-999	6	[0, 0, 0]	n/a	FR1	0	R1387E
1002.916	1.965	1081336	ENCODING_START	n/a	n/a	n/a	-999	6	[0, 0, 0]	n/a	FR1	0	R1387E
1004.881	1.601	1083291	WORD	n/a	n/a	SUIT	1	6	[0, 0, 0]	n/a	FR1	0	R1387E
1006.482	0.866	1084887	WORD_OFF	n/a	n/a	SUIT	1	6	[0, 0, 0]	n/a	FR1	0	R1387E
1007.348	1.616	1085764	WORD	n/a	n/a	SLIME	2	6	[0, 0, 0]	n/a	FR1	0	R1387E
1008.964	0.851	1087374	WORD_OFF	n/a	n/a	SLIME	2	6	[0, 0, 0]	n/a	FR1	0	R1387E
1009.815	1.6	1088222	WORD	n/a	n/a	BRICK	3	6	[0, 0, 0]	n/a	FR1	0	R1387E
1011.415	0.916	1089833	WORD_OFF	n/a	n/a	BRICK	3	6	[0, 0, 0]	n/a	FR1	0	R1387E
1012.331	1.617	1090738	WORD	n/a	n/a	BIRD	4	6	[0, 0, 0]	n/a	FR1	0	R1387E
1013.948	0.85	1092363	WORD_OFF	n/a	n/a	BIRD	4	6	[0, 0, 0]	n/a	FR1	0	R1387E
1014.798	1.6	1093211	WORD	n/a	n/a	OWL	5	6	[0, 0, 0]	n/a	FR1	0	R1387E
1016.398	0.983	1094807	WORD_OFF	n/a	n/a	OWL	5	6	[0, 0, 0]	n/a	FR1	0	R1387E
1017.381	1.601	1095799	WORD	n/a	n/a	TOY	6	6	[0, 0, 0]	n/a	FR1	0	R1387E
1018.982	0.833	1097395	WORD_OFF	n/a	n/a	TOY	6	6	[0, 0, 0]	n/a	FR1	0	R1387E
1019.815	1.601	1098229	WORD	n/a	n/a	GOLD	7	6	[0, 0, 0]	n/a	FR1	0	R1387E
1021.416	0.817	1099825	WORD_OFF	n/a	n/a	GOLD	7	6	[0, 0, 0]	n/a	FR1	0	R1387E
1022.233	1.6	1100644	WORD	n/a	n/a	POOL	8	6	[0, 0, 0]	n/a	FR1	0	R1387E
1023.833	0.983	1102240	WORD_OFF	n/a	n/a	POOL	8	6	[0, 0, 0]	n/a	FR1	0	R1387E
1024.816	1.601	1103232	WORD	n/a	n/a	BLUSH	9	6	[0, 0, 0]	n/a	FR1	0	R1387E
1026.417	0.967	1104828	WORD_OFF	n/a	n/a	BLUSH	9	6	[0, 0, 0]	n/a	FR1	0	R1387E
1027.384	1.615	1105791	WORD	n/a	n/a	CLOWN	10	6	[0, 0, 0]	n/a	FR1	0	R1387E
1028.999	0.917	1107416	WORD_OFF	n/a	n/a	CLOWN	10	6	[0, 0, 0]	n/a	FR1	0	R1387E
1029.916	1.6	1108321	WORD	n/a	n/a	DOCK	11	6	[0, 0, 0]	n/a	FR1	0	R1387E
1031.516	0.883	1109931	WORD_OFF	n/a	n/a	DOCK	11	6	[0, 0, 0]	n/a	FR1	0	R1387E
1032.399	1.6	1110808	WORD	n/a	n/a	COURT	12	6	[0, 0, 0]	n/a	FR1	0	R1387E
1033.999	0.001	1112404	WORD_OFF	n/a	n/a	COURT	12	6	[0, 0, 0]	n/a	FR1	0	R1387E
1034.0	0.0	1112411	START	n/a	n/a	n/a	-999	6	[-999, -999, -999]	n/a	FR1	0	R1387E
1034.0	0.0	1112411	PROB	0.0	n/a	n/a	-999	6	[2, 8, 8]	18	FR1	0	R1387E
1034.0	0.0	1112419	ENCODING_END	n/a	n/a	n/a	-999	6	[0, 0, 0]	n/a	FR1	0	R1387E
1034.0	5.316	1112419	DISTRACT_START	n/a	n/a	n/a	-999	6	[0, 0, 0]	n/a	FR1	0	R1387E
1039.316	6.85	1117727	PROB	6.85	n/a	n/a	-999	6	[2, 7, 4]	13	FR1	0	R1387E
1046.166	4.217	1124576	PROB	4.217	n/a	n/a	-999	6	[4, 1, 3]	7	FR1	0	R1387E
1050.383	10.066	1128793	PROB	10.066	n/a	n/a	-999	6	[5, 7, 6]	18	FR1	0	R1387E
1060.449	0.0	1138859	STOP	n/a	n/a	n/a	-999	6	[-999, -999, -999]	n/a	FR1	0	R1387E
1060.449	1.517	1138861	DISTRACT_END	n/a	n/a	n/a	-999	6	[0, 0, 0]	n/a	FR1	0	R1387E
1061.966	27.775	1140382	REC_START	n/a	n/a	n/a	-999	6	[0, 0, 0]	n/a	FR1	0	R1387E
1089.741	2.542	1168150	REC_WORD	2.542	n/a	PILLOW	-999	6	[0, 0, 0]	n/a	FR1	0	R1387E
1092.283	4.466	1170688	REC_END	n/a	n/a	n/a	-999	6	[0, 0, 0]	n/a	FR1	0	R1387E
1096.749	10.351	1175163	COUNTDOWN_START	n/a	n/a	n/a	-999	7	[0, 0, 0]	n/a	FR1	0	R1387E
1107.1	0.0	1185514	COUNTDOWN_END	n/a	n/a	n/a	-999	7	[0, 0, 0]	n/a	FR1	0	R1387E
1107.1	1.815	1185514	ENCODING_START	n/a	n/a	n/a	-999	7	[0, 0, 0]	n/a	FR1	0	R1387E
1108.915	1.617	1187325	WORD	n/a	n/a	SEA	1	7	[0, 0, 0]	n/a	FR1	0	R1387E
1110.532	0.883	1188936	WORD_OFF	n/a	n/a	SEA	1	7	[0, 0, 0]	n/a	FR1	0	R1387E
1111.415	1.6	1189827	WORD	n/a	n/a	MINK	2	7	[0, 0, 0]	n/a	FR1	0	R1387E
1113.015	0.966	1191423	WORD_OFF	n/a	n/a	MINK	2	7	[0, 0, 0]	n/a	FR1	0	R1387E
1113.981	1.601	1192386	WORD	n/a	n/a	DART	3	7	[0, 0, 0]	n/a	FR1	0	R1387E
1115.582	0.866	1193996	WORD_OFF	n/a	n/a	DART	3	7	[0, 0, 0]	n/a	FR1	0	R1387E
1116.448	1.601	1194859	WORD	n/a	n/a	BRUSH	4	7	[0, 0, 0]	n/a	FR1	0	R1387E
1118.049	0.866	1196455	WORD_OFF	n/a	n/a	BRUSH	4	7	[0, 0, 0]	n/a	FR1	0	R1387E
1118.915	1.601	1197317	WORD	n/a	n/a	LENS	5	7	[0, 0, 0]	n/a	FR1	0	R1387E
1120.516	0.95	1198928	WORD_OFF	n/a	n/a	LENS	5	7	[0, 0, 0]	n/a	FR1	0	R1387E
1121.466	1.6	1199876	WORD	n/a	n/a	DRAIN	6	7	[0, 0, 0]	n/a	FR1	0	R1387E
1123.066	0.9	1201472	WORD_OFF	n/a	n/a	DRAIN	6	7	[0, 0, 0]	n/a	FR1	0	R1387E
1123.966	1.616	1202378	WORD	n/a	n/a	TRAY	7	7	[0, 0, 0]	n/a	FR1	0	R1387E
1125.582	0.967	1203988	WORD_OFF	n/a	n/a	TRAY	7	7	[0, 0, 0]	n/a	FR1	0	R1387E
1126.549	1.6	1204951	WORD	n/a	n/a	WAND	8	7	[0, 0, 0]	n/a	FR1	0	R1387E
1128.149	0.85	1206562	WORD_OFF	n/a	n/a	WAND	8	7	[0, 0, 0]	n/a	FR1	0	R1387E
1128.999	1.616	1207410	WORD	n/a	n/a	MEAT	9	7	[0, 0, 0]	n/a	FR1	0	R1387E
1130.615	0.95	1209020	WORD_OFF	n/a	n/a	MEAT	9	7	[0, 0, 0]	n/a	FR1	0	R1387E
1131.565	1.601	1209969	WORD	n/a	n/a	BRIDGE	10	7	[0, 0, 0]	n/a	FR1	0	R1387E
1133.166	0.983	1211579	WORD_OFF	n/a	n/a	BRIDGE	10	7	[0, 0, 0]	n/a	FR1	0	R1387E
1134.149	1.6	1212557	WORD	n/a	n/a	PAINT	11	7	[0, 0, 0]	n/a	FR1	0	R1387E
1135.749	0.783	1214153	WORD_OFF	n/a	n/a	PAINT	11	7	[0, 0, 0]	n/a	FR1	0	R1387E
1136.532	1.6	1214943	WORD	n/a	n/a	NIGHT	12	7	[0, 0, 0]	n/a	FR1	0	R1387E
1138.132	0.002	1216539	WORD_OFF	n/a	n/a	NIGHT	12	7	[0, 0, 0]	n/a	FR1	0	R1387E
1138.134	0.0	1216539	ENCODING_END	n/a	n/a	n/a	-999	7	[0, 0, 0]	n/a	FR1	0	R1387E
1138.133	0.001	1216540	PROB	0.001	n/a	n/a	-999	7	[2, 2, 6]	10	FR1	0	R1387E
1138.134	0.0	1216541	START	n/a	n/a	n/a	-999	7	[-999, -999, -999]	n/a	FR1	0	R1387E
1138.134	5.215	1216553	DISTRACT_START	n/a	n/a	n/a	-999	7	[0, 0, 0]	n/a	FR1	0	R1387E
1143.349	9.4	1221756	PROB	9.4	n/a	n/a	-999	7	[7, 4, 1]	12	FR1	0	R1387E
1152.749	9.9	1231156	PROB	9.9	n/a	n/a	-999	7	[7, 6, 7]	20	FR1	0	R1387E
1162.649	0.0	1241052	DISTRACT_END	n/a	n/a	n/a	-999	7	[0, 0, 0]	n/a	FR1	0	R1387E
1162.649	1.883	1241055	STOP	n/a	n/a	n/a	-999	7	[-999, -999, -999]	n/a	FR1	0	R1387E
1164.532	2.042	1242946	REC_START	n/a	n/a	n/a	-999	7	[0, 0, 0]	n/a	FR1	0	R1387E
1166.574	6.19	1244980	REC_WORD	6.19	n/a	TRAY	7	7	[0, 0, 0]	n/a	FR1	0	R1387E
1172.764	1.0	1251170	REC_WORD	1.0	n/a	POND	-999	7	[0, 0, 0]	n/a	FR1	0	R1387E
1173.764	5.101	1252170	REC_WORD_VV	5.101	n/a	<>	-999	7	[0, 0, 0]	n/a	FR1	0	R1387E
1178.865	1.0	1257271	REC_WORD	1.0	n/a	MINK	2	7	[0, 0, 0]	n/a	FR1	0	R1387E
1179.865	1.0	1258271	REC_WORD_VV	1.0	n/a	<>	-999	7	[0, 0, 0]	n/a	FR1	0	R1387E
1180.865	0.688	1259271	REC_WORD_VV	0.688	n/a	<>	-999	7	[0, 0, 0]	n/a	FR1	0	R1387E
1181.553	3.305	1259959	REC_WORD_VV	3.305	n/a	<>	-999	7	[0, 0, 0]	n/a	FR1	0	R1387E
1184.858	1.0	1263264	REC_WORD_VV	1.0	n/a	<>	-999	7	[0, 0, 0]	n/a	FR1	0	R1387E
1185.858	1.0	1264264	REC_WORD_VV	1.0	n/a	<>	-999	7	[0, 0, 0]	n/a	FR1	0	R1387E
1186.858	7.979	1265264	REC_WORD_VV	7.979	n/a	<>	-999	7	[0, 0, 0]	n/a	FR1	0	R1387E
1194.837	4.879	1273238	REC_END	n/a	n/a	n/a	-999	7	[0, 0, 0]	n/a	FR1	0	R1387E
1199.716	10.35	1278129	COUNTDOWN_START	n/a	n/a	n/a	-999	8	[0, 0, 0]	n/a	FR1	0	R1387E
1210.066	0.0	1288466	COUNTDOWN_END	n/a	n/a	n/a	-999	8	[0, 0, 0]	n/a	FR1	0	R1387E
1210.066	2.283	1288466	ENCODING_START	n/a	n/a	n/a	-999	8	[0, 0, 0]	n/a	FR1	0	R1387E
1212.349	1.6	1290752	WORD	n/a	n/a	TOOTH	1	8	[0, 0, 0]	n/a	FR1	0	R1387E
1213.949	0.816	1292348	WORD_OFF	n/a	n/a	TOOTH	1	8	[0, 0, 0]	n/a	FR1	0	R1387E
1214.765	1.617	1293167	WORD	n/a	n/a	PASTE	2	8	[0, 0, 0]	n/a	FR1	0	R1387E
1216.382	0.95	1294792	WORD_OFF	n/a	n/a	PASTE	2	8	[0, 0, 0]	n/a	FR1	0	R1387E
1217.332	1.6	1295741	WORD	n/a	n/a	STEW	3	8	[0, 0, 0]	n/a	FR1	0	R1387E
1218.932	0.867	1297337	WORD_OFF	n/a	n/a	STEW	3	8	[0, 0, 0]	n/a	FR1	0	R1387E
1219.799	1.6	1298199	WORD	n/a	n/a	NET	4	8	[0, 0, 0]	n/a	FR1	0	R1387E
1221.399	0.767	1299810	WORD_OFF	n/a	n/a	NET	4	8	[0, 0, 0]	n/a	FR1	0	R1387E
1222.166	1.616	1300572	WORD	n/a	n/a	GLOBE	5	8	[0, 0, 0]	n/a	FR1	0	R1387E
1223.782	0.866	1302182	WORD_OFF	n/a	n/a	GLOBE	5	8	[0, 0, 0]	n/a	FR1	0	R1387E
1224.648	1.601	1303059	WORD	n/a	n/a	STOOL	6	8	[0, 0, 0]	n/a	FR1	0	R1387E
1226.249	0.8	1304655	WORD_OFF	n/a	n/a	STOOL	6	8	[0, 0, 0]	n/a	FR1	0	R1387E
1227.049	1.616	1305460	WORD	n/a	n/a	ASH	7	8	[0, 0, 0]	n/a	FR1	0	R1387E
1228.665	0.767	1307070	WORD_OFF	n/a	n/a	ASH	7	8	[0, 0, 0]	n/a	FR1	0	R1387E
1229.432	1.617	1307832	WORD	n/a	n/a	HOUSE	8	8	[0, 0, 0]	n/a	FR1	0	R1387E
1231.049	0.817	1309456	WORD_OFF	n/a	n/a	HOUSE	8	8	[0, 0, 0]	n/a	FR1	0	R1387E
1231.866	1.6	1310276	WORD	n/a	n/a	MAT	9	8	[0, 0, 0]	n/a	FR1	0	R1387E
1233.466	0.833	1311872	WORD_OFF	n/a	n/a	MAT	9	8	[0, 0, 0]	n/a	FR1	0	R1387E
1234.299	1.617	1312706	WORD	n/a	n/a	BOOK	10	8	[0, 0, 0]	n/a	FR1	0	R1387E
1235.916	0.983	1314316	WORD_OFF	n/a	n/a	BOOK	10	8	[0, 0, 0]	n/a	FR1	0	R1387E
1236.899	1.6	1315308	WORD	n/a	n/a	SEAL	11	8	[0, 0, 0]	n/a	FR1	0	R1387E
1238.499	0.8	1316904	WORD_OFF	n/a	n/a	SEAL	11	8	[0, 0, 0]	n/a	FR1	0	R1387E
1239.299	1.6	1317709	WORD	n/a	n/a	PURSE	12	8	[0, 0, 0]	n/a	FR1	0	R1387E
1240.899	0.001	1319304	WORD_OFF	n/a	n/a	PURSE	12	8	[0, 0, 0]	n/a	FR1	0	R1387E
1240.9	0.0	1319304	ENCODING_END	n/a	n/a	n/a	-999	8	[0, 0, 0]	n/a	FR1	0	R1387E
1240.9	0.0	1319304	DISTRACT_START	n/a	n/a	n/a	-999	8	[0, 0, 0]	n/a	FR1	0	R1387E
1240.9	0.0	1319304	START	n/a	n/a	n/a	-999	8	[-999, -999, -999]	n/a	FR1	0	R1387E
1240.9	8.933	1319304	PROB	8.933	n/a	n/a	-999	8	[3, 8, 5]	16	FR1	0	R1387E
1249.833	2.9	1328237	PROB	2.9	n/a	n/a	-999	8	[2, 1, 1]	4	FR1	0	R1387E
1252.733	8.882	1331136	PROB	8.882	n/a	n/a	-999	8	[6, 5, 7]	19	FR1	0	R1387E
1261.615	0.0	1340018	STOP	n/a	n/a	n/a	-999	8	[-999, -999, -999]	n/a	FR1	0	R1387E
1261.615	1.8	1340021	DISTRACT_END	n/a	n/a	n/a	-999	8	[0, 0, 0]	n/a	FR1	0	R1387E
1263.415	1.387	1341815	REC_START	n/a	n/a	n/a	-999	8	[0, 0, 0]	n/a	FR1	0	R1387E
1264.802	1.087	1343205	REC_WORD	1.087	n/a	TOOTH	1	8	[0, 0, 0]	n/a	FR1	0	R1387E
1265.889	8.33	1344292	REC_WORD	8.33	n/a	PASTE	2	8	[0, 0, 0]	n/a	FR1	0	R1387E
1274.219	13.999	1352622	REC_WORD	13.999	n/a	BRUSH	-999	8	[0, 0, 0]	n/a	FR1	0	R1387E
1288.218	5.512	1366620	REC_WORD	5.512	n/a	SEAL	11	8	[0, 0, 0]	n/a	FR1	0	R1387E
1293.73	4.602	1372136	REC_END	n/a	n/a	n/a	-999	8	[0, 0, 0]	n/a	FR1	0	R1387E
1298.332	10.351	1376740	COUNTDOWN_START	n/a	n/a	n/a	-999	9	[0, 0, 0]	n/a	FR1	0	R1387E
1308.683	0.0	1387091	COUNTDOWN_END	n/a	n/a	n/a	-999	9	[0, 0, 0]	n/a	FR1	0	R1387E
1308.683	2.033	1387091	ENCODING_START	n/a	n/a	n/a	-999	9	[0, 0, 0]	n/a	FR1	0	R1387E
1310.716	1.616	1389118	WORD	n/a	n/a	BEAK	1	9	[0, 0, 0]	n/a	FR1	0	R1387E
1312.332	0.95	1390728	WORD_OFF	n/a	n/a	BEAK	1	9	[0, 0, 0]	n/a	FR1	0	R1387E
1313.282	1.6	1391677	WORD	n/a	n/a	MOUSE	2	9	[0, 0, 0]	n/a	FR1	0	R1387E
1314.882	0.85	1393287	WORD_OFF	n/a	n/a	MOUSE	2	9	[0, 0, 0]	n/a	FR1	0	R1387E
1315.732	1.6	1394136	WORD	n/a	n/a	SOUP	3	9	[0, 0, 0]	n/a	FR1	0	R1387E
1317.332	0.95	1395732	WORD_OFF	n/a	n/a	SOUP	3	9	[0, 0, 0]	n/a	FR1	0	R1387E
1318.282	1.6	1396680	WORD	n/a	n/a	CONE	4	9	[0, 0, 0]	n/a	FR1	0	R1387E
1319.882	1.0	1398276	WORD_OFF	n/a	n/a	CONE	4	9	[0, 0, 0]	n/a	FR1	0	R1387E
1320.882	1.6	1399283	WORD	n/a	n/a	CHALK	5	9	[0, 0, 0]	n/a	FR1	0	R1387E
1322.482	0.934	1400878	WORD_OFF	n/a	n/a	CHALK	5	9	[0, 0, 0]	n/a	FR1	0	R1387E
1323.416	1.6	1401813	WORD	n/a	n/a	BONE	6	9	[0, 0, 0]	n/a	FR1	0	R1387E
1325.016	0.916	1403423	WORD_OFF	n/a	n/a	BONE	6	9	[0, 0, 0]	n/a	FR1	0	R1387E
1325.932	1.6	1404329	WORD	n/a	n/a	SHEET	7	9	[0, 0, 0]	n/a	FR1	0	R1387E
1327.532	0.967	1405939	WORD_OFF	n/a	n/a	SHEET	7	9	[0, 0, 0]	n/a	FR1	0	R1387E
1328.499	1.6	1406902	WORD	n/a	n/a	SNAIL	8	9	[0, 0, 0]	n/a	FR1	0	R1387E
1330.099	0.834	1408498	WORD_OFF	n/a	n/a	SNAIL	8	9	[0, 0, 0]	n/a	FR1	0	R1387E
1330.933	1.616	1409332	WORD	n/a	n/a	SMOKE	9	9	[0, 0, 0]	n/a	FR1	0	R1387E
1332.549	0.917	1410942	WORD_OFF	n/a	n/a	SMOKE	9	9	[0, 0, 0]	n/a	FR1	0	R1387E
1333.466	1.6	1411862	WORD	n/a	n/a	BENCH	10	9	[0, 0, 0]	n/a	FR1	0	R1387E
1335.066	0.883	1413472	WORD_OFF	n/a	n/a	BENCH	10	9	[0, 0, 0]	n/a	FR1	0	R1387E
1335.949	1.6	1414349	WORD	n/a	n/a	ROCK	11	9	[0, 0, 0]	n/a	FR1	0	R1387E
1337.549	0.8	1415945	WORD_OFF	n/a	n/a	ROCK	11	9	[0, 0, 0]	n/a	FR1	0	R1387E
1338.349	1.617	1416750	WORD	n/a	n/a	SEAT	12	9	[0, 0, 0]	n/a	FR1	0	R1387E
1339.966	0.0	1418361	WORD_OFF	n/a	n/a	SEAT	12	9	[0, 0, 0]	n/a	FR1	0	R1387E
1339.966	0.001	1418367	PROB	0.001	n/a	n/a	-999	9	[7, 5, 7]	19	FR1	0	R1387E
1339.967	0.0	1418368	START	n/a	n/a	n/a	-999	9	[-999, -999, -999]	n/a	FR1	0	R1387E
1339.967	0.0	1418375	ENCODING_END	n/a	n/a	n/a	-999	9	[0, 0, 0]	n/a	FR1	0	R1387E
1339.967	6.565	1418375	DISTRACT_START	n/a	n/a	n/a	-999	9	[0, 0, 0]	n/a	FR1	0	R1387E
1346.532	11.667	1424932	PROB	11.667	n/a	n/a	-999	9	[6, 8, 6]	24	FR1	0	R1387E
1358.199	7.949	1436599	PROB	7.949	n/a	n/a	-999	9	[7, 2, 4]	13	FR1	0	R1387E
1366.148	0.0	1444541	DISTRACT_END	n/a	n/a	n/a	-999	9	[0, 0, 0]	n/a	FR1	0	R1387E
1366.148	1.733	1444548	STOP	n/a	n/a	n/a	-999	9	[-999, -999, -999]	n/a	FR1	0	R1387E
1367.881	1.576	1446277	REC_START	n/a	n/a	n/a	-999	9	[0, 0, 0]	n/a	FR1	0	R1387E
1369.457	1.024	1447857	REC_WORD	1.024	n/a	BENCH	10	9	[0, 0, 0]	n/a	FR1	0	R1387E
1370.481	1.0	1448881	REC_WORD	1.0	n/a	SMOKE	9	9	[0, 0, 0]	n/a	FR1	0	R1387E
1371.481	11.013	1449881	REC_WORD_VV	11.013	n/a	<>	-999	9	[0, 0, 0]	n/a	FR1	0	R1387E
1382.494	4.047	1460893	REC_WORD	4.047	n/a	MULE	-999	9	[0, 0, 0]	n/a	FR1	0	R1387E
1386.541	1.0	1464940	REC_WORD	1.0	n/a	SNAIL	8	9	[0, 0, 0]	n/a	FR1	0	R1387E
1387.541	10.629	1465940	REC_WORD_VV	10.629	n/a	<>	-999	9	[0, 0, 0]	n/a	FR1	0	R1387E
1398.17	4.829	1476569	REC_END	n/a	n/a	n/a	-999	9	[0, 0, 0]	n/a	FR1	0	R1387E
1402.999	10.351	1481403	COUNTDOWN_START	n/a	n/a	n/a	-999	10	[0, 0, 0]	n/a	FR1	0	R1387E
1413.35	0.0	1491754	COUNTDOWN_END	n/a	n/a	n/a	-999	10	[0, 0, 0]	n/a	FR1	0	R1387E
1413.35	2.099	1491754	ENCODING_START	n/a	n/a	n/a	-999	10	[0, 0, 0]	n/a	FR1	0	R1387E
1415.449	1.617	1493853	WORD	n/a	n/a	FOX	1	10	[0, 0, 0]	n/a	FR1	0	R1387E
1417.066	0.833	1495463	WORD_OFF	n/a	n/a	FOX	1	10	[0, 0, 0]	n/a	FR1	0	R1387E
1417.899	1.6	1496297	WORD	n/a	n/a	COKE	2	10	[0, 0, 0]	n/a	FR1	0	R1387E
1419.499	0.883	1497893	WORD_OFF	n/a	n/a	COKE	2	10	[0, 0, 0]	n/a	FR1	0	R1387E
1420.382	1.6	1498784	WORD	n/a	n/a	MAZE	3	10	[0, 0, 0]	n/a	FR1	0	R1387E
1421.982	0.967	1500380	WORD_OFF	n/a	n/a	MAZE	3	10	[0, 0, 0]	n/a	FR1	0	R1387E
1422.949	1.617	1501343	WORD	n/a	n/a	CLIFF	4	10	[0, 0, 0]	n/a	FR1	0	R1387E
1424.566	0.9	1502968	WORD_OFF	n/a	n/a	CLIFF	4	10	[0, 0, 0]	n/a	FR1	0	R1387E
1425.466	1.616	1503859	WORD	n/a	n/a	DOG	5	10	[0, 0, 0]	n/a	FR1	0	R1387E
1427.082	0.9	1505484	WORD_OFF	n/a	n/a	DOG	5	10	[0, 0, 0]	n/a	FR1	0	R1387E
1427.982	1.617	1506375	WORD	n/a	n/a	CAPE	6	10	[0, 0, 0]	n/a	FR1	0	R1387E
1429.599	0.95	1508000	WORD_OFF	n/a	n/a	CAPE	6	10	[0, 0, 0]	n/a	FR1	0	R1387E
1430.549	1.6	1508949	WORD	n/a	n/a	THREAD	7	10	[0, 0, 0]	n/a	FR1	0	R1387E
1432.149	0.933	1510545	WORD_OFF	n/a	n/a	THREAD	7	10	[0, 0, 0]	n/a	FR1	0	R1387E
1433.082	1.6	1511479	WORD	n/a	n/a	PLATE	8	10	[0, 0, 0]	n/a	FR1	0	R1387E
1434.682	1.0	1513075	WORD_OFF	n/a	n/a	PLATE	8	10	[0, 0, 0]	n/a	FR1	0	R1387E
1435.682	1.6	1514081	WORD	n/a	n/a	EEL	9	10	[0, 0, 0]	n/a	FR1	0	R1387E
1437.282	0.9	1515677	WORD_OFF	n/a	n/a	EEL	9	10	[0, 0, 0]	n/a	FR1	0	R1387E
1438.182	1.6	1516583	WORD	n/a	n/a	STORM	10	10	[0, 0, 0]	n/a	FR1	0	R1387E
1439.782	0.817	1518179	WORD_OFF	n/a	n/a	STORM	10	10	[0, 0, 0]	n/a	FR1	0	R1387E
1440.599	1.6	1518998	WORD	n/a	n/a	TIN	11	10	[0, 0, 0]	n/a	FR1	0	R1387E
1442.199	0.767	1520594	WORD_OFF	n/a	n/a	TIN	11	10	[0, 0, 0]	n/a	FR1	0	R1387E
1442.966	1.6	1521356	WORD	n/a	n/a	HEEL	12	10	[0, 0, 0]	n/a	FR1	0	R1387E
1444.566	0.001	1522963	PROB	0.001	n/a	n/a	-999	10	[7, 2, 2]	11	FR1	0	R1387E
1444.567	0.0	1522964	START	n/a	n/a	n/a	-999	10	[-999, -999, -999]	n/a	FR1	0	R1387E
1444.566	0.001	1522966	WORD_OFF	n/a	n/a	HEEL	12	10	[0, 0, 0]	n/a	FR1	0	R1387E
1444.567	0.0	1522966	ENCODING_END	n/a	n/a	n/a	-999	10	[0, 0, 0]	n/a	FR1	0	R1387E
1444.567	6.683	1522966	DISTRACT_START	n/a	n/a	n/a	-999	10	[0, 0, 0]	n/a	FR1	0	R1387E
1451.25	3.416	1529647	PROB	3.416	n/a	n/a	-999	10	[2, 2, 2]	6	FR1	0	R1387E
1454.666	9.182	1533063	PROB	9.182	n/a	n/a	-999	10	[8, 4, 7]	19	FR1	0	R1387E
1463.848	6.15	1542244	PROB	6.15	n/a	n/a	-999	10	[2, 2, 3]	7	FR1	0	R1387E
1469.998	0.0	1548394	STOP	n/a	n/a	n/a	-999	10	[-999, -999, -999]	n/a	FR1	0	R1387E
1469.998	1.85	1548399	DISTRACT_END	n/a	n/a	n/a	-999	10	[0, 0, 0]	n/a	FR1	0	R1387E
1471.848	3.389	1550250	REC_START	n/a	n/a	n/a	-999	10	[0, 0, 0]	n/a	FR1	0	R1387E
1475.237	1.386	1553633	REC_WORD	1.386	n/a	FOX	1	10	[0, 0, 0]	n/a	FR1	0	R1387E
1476.623	1.864	1555019	REC_WORD	1.864	n/a	EEL	9	10	[0, 0, 0]	n/a	FR1	0	R1387E
1478.487	9.504	1556883	REC_WORD	9.504	n/a	DOG	5	10	[0, 0, 0]	n/a	FR1	0	R1387E
1487.991	14.148	1566387	REC_WORD	14.148	n/a	BRANCH	-999	10	[0, 0, 0]	n/a	FR1	0	R1387E
1502.139	4.26	1580528	REC_END	n/a	n/a	n/a	-999	10	[0, 0, 0]	n/a	FR1	0	R1387E
1506.399	10.351	1584801	COUNTDOWN_START	n/a	n/a	n/a	-999	11	[0, 0, 0]	n/a	FR1	0	R1387E
1516.75	0.0	1595138	COUNTDOWN_END	n/a	n/a	n/a	-999	11	[0, 0, 0]	n/a	FR1	0	R1387E
1516.75	2.199	1595152	ENCODING_START	n/a	n/a	n/a	-999	11	[0, 0, 0]	n/a	FR1	0	R1387E
1518.949	1.6	1597337	WORD	n/a	n/a	GOWN	1	11	[0, 0, 0]	n/a	FR1	0	R1387E
1520.549	1.0	1598948	WORD_OFF	n/a	n/a	GOWN	1	11	[0, 0, 0]	n/a	FR1	0	R1387E
1521.549	1.617	1599940	WORD	n/a	n/a	SMILE	2	11	[0, 0, 0]	n/a	FR1	0	R1387E
1523.166	0.816	1601564	WORD_OFF	n/a	n/a	SMILE	2	11	[0, 0, 0]	n/a	FR1	0	R1387E
1523.982	1.6	1602384	WORD	n/a	n/a	PEARL	3	11	[0, 0, 0]	n/a	FR1	0	R1387E
1525.582	0.9	1603979	WORD_OFF	n/a	n/a	PEARL	3	11	[0, 0, 0]	n/a	FR1	0	R1387E
1526.482	1.6	1604871	WORD	n/a	n/a	HOOK	4	11	[0, 0, 0]	n/a	FR1	0	R1387E
1528.082	1.0	1606481	WORD_OFF	n/a	n/a	HOOK	4	11	[0, 0, 0]	n/a	FR1	0	R1387E
1529.082	1.6	1607473	WORD	n/a	n/a	FUR	5	11	[0, 0, 0]	n/a	FR1	0	R1387E
1530.682	0.8	1609083	WORD_OFF	n/a	n/a	FUR	5	11	[0, 0, 0]	n/a	FR1	0	R1387E
1531.482	1.6	1609874	WORD	n/a	n/a	CUBE	6	11	[0, 0, 0]	n/a	FR1	0	R1387E
1533.082	0.934	1611470	WORD_OFF	n/a	n/a	CUBE	6	11	[0, 0, 0]	n/a	FR1	0	R1387E
1534.016	1.616	1612404	WORD	n/a	n/a	OIL	7	11	[0, 0, 0]	n/a	FR1	0	R1387E
1535.632	0.784	1614029	WORD_OFF	n/a	n/a	OIL	7	11	[0, 0, 0]	n/a	FR1	0	R1387E
1536.416	1.599	1614805	WORD	n/a	n/a	CHIN	8	11	[0, 0, 0]	n/a	FR1	0	R1387E
1538.015	0.867	1616415	WORD_OFF	n/a	n/a	CHIN	8	11	[0, 0, 0]	n/a	FR1	0	R1387E
1538.882	1.617	1617278	WORD	n/a	n/a	PHONE	9	11	[0, 0, 0]	n/a	FR1	0	R1387E
1540.499	0.766	1618888	WORD_OFF	n/a	n/a	PHONE	9	11	[0, 0, 0]	n/a	FR1	0	R1387E
1541.265	1.6	1619665	WORD	n/a	n/a	FACE	10	11	[0, 0, 0]	n/a	FR1	0	R1387E
1542.865	0.767	1621260	WORD_OFF	n/a	n/a	FACE	10	11	[0, 0, 0]	n/a	FR1	0	R1387E
1543.632	1.6	1622022	WORD	n/a	n/a	CLAY	11	11	[0, 0, 0]	n/a	FR1	0	R1387E
1545.232	0.767	1623632	WORD_OFF	n/a	n/a	CLAY	11	11	[0, 0, 0]	n/a	FR1	0	R1387E
1545.999	1.6	1624394	WORD	n/a	n/a	LOCK	12	11	[0, 0, 0]	n/a	FR1	0	R1387E
1547.599	0.001	1625990	WORD_OFF	n/a	n/a	LOCK	12	11	[0, 0, 0]	n/a	FR1	0	R1387E
1547.6	0.0	1625990	ENCODING_END	n/a	n/a	n/a	-999	11	[0, 0, 0]	n/a	FR1	0	R1387E
1547.6	0.0	1625990	DISTRACT_START	n/a	n/a	n/a	-999	11	[0, 0, 0]	n/a	FR1	0	R1387E
1547.599	0.001	1625993	PROB	0.001	n/a	n/a	-999	11	[8, 7, 2]	17	FR1	0	R1387E
1547.6	9.782	1625994	START	n/a	n/a	n/a	-999	11	[-999, -999, -999]	n/a	FR1	0	R1387E
1557.382	5.15	1635775	PROB	5.15	n/a	n/a	-999	11	[3, 5, 1]	9	FR1	0	R1387E
1562.532	3.634	1640925	PROB	3.634	n/a	n/a	-999	11	[2, 2, 1]	5	FR1	0	R1387E
1566.166	6.865	1644559	PROB	6.865	n/a	n/a	-999	11	[4, 2, 1]	7	FR1	0	R1387E
1573.031	0.0	1651423	DISTRACT_END	n/a	n/a	n/a	-999	11	[0, 0, 0]	n/a	FR1	0	R1387E
1573.031	1.784	1651424	STOP	n/a	n/a	n/a	-999	11	[-999, -999, -999]	n/a	FR1	0	R1387E
1574.815	1.856	1653202	REC_START	n/a	n/a	n/a	-999	11	[0, 0, 0]	n/a	FR1	0	R1387E
1576.671	1.631	1655064	REC_WORD	1.631	n/a	HOOK	4	11	[0, 0, 0]	n/a	FR1	0	R1387E
1578.302	3.271	1656695	REC_WORD	3.271	n/a	DRESS	-999	11	[0, 0, 0]	n/a	FR1	0	R1387E
1581.573	4.588	1659966	REC_WORD	4.588	n/a	GOWN	1	11	[0, 0, 0]	n/a	FR1	0	R1387E
1586.161	10.896	1664553	REC_WORD	10.896	n/a	THREAD	-999	11	[0, 0, 0]	n/a	FR1	0	R1387E
1597.057	8.058	1675449	REC_WORD	8.058	n/a	PEARL	3	11	[0, 0, 0]	n/a	FR1	0	R1387E
1605.115	4.401	1683509	REC_END	n/a	n/a	n/a	-999	11	[0, 0, 0]	n/a	FR1	0	R1387E
1609.516	10.35	1687911	COUNTDOWN_START	n/a	n/a	n/a	-999	12	[0, 0, 0]	n/a	FR1	0	R1387E
1619.866	0.0	1698262	COUNTDOWN_END	n/a	n/a	n/a	-999	12	[0, 0, 0]	n/a	FR1	0	R1387E
1619.866	2.016	1698262	ENCODING_START	n/a	n/a	n/a	-999	12	[0, 0, 0]	n/a	FR1	0	R1387E
1621.882	1.617	1700275	WORD	n/a	n/a	CREAM	1	12	[0, 0, 0]	n/a	FR1	0	R1387E
1623.499	0.867	1701885	WORD_OFF	n/a	n/a	CREAM	1	12	[0, 0, 0]	n/a	FR1	0	R1387E
1624.366	1.6	1702762	WORD	n/a	n/a	MAIL	2	12	[0, 0, 0]	n/a	FR1	0	R1387E
1625.966	0.933	1704358	WORD_OFF	n/a	n/a	MAIL	2	12	[0, 0, 0]	n/a	FR1	0	R1387E
1626.899	1.617	1705293	WORD	n/a	n/a	HOSE	3	12	[0, 0, 0]	n/a	FR1	0	R1387E
1628.516	0.8	1706903	WORD_OFF	n/a	n/a	HOSE	3	12	[0, 0, 0]	n/a	FR1	0	R1387E
1629.316	1.616	1707708	WORD	n/a	n/a	STRING	4	12	[0, 0, 0]	n/a	FR1	0	R1387E
1630.932	0.767	1709318	WORD_OFF	n/a	n/a	STRING	4	12	[0, 0, 0]	n/a	FR1	0	R1387E
1631.699	1.616	1710095	WORD	n/a	n/a	VEST	5	12	[0, 0, 0]	n/a	FR1	0	R1387E
1633.315	1.0	1711705	WORD_OFF	n/a	n/a	VEST	5	12	[0, 0, 0]	n/a	FR1	0	R1387E
1634.315	1.617	1712711	WORD	n/a	n/a	TIE	6	12	[0, 0, 0]	n/a	FR1	0	R1387E
1635.932	0.85	1714321	WORD_OFF	n/a	n/a	TIE	6	12	[0, 0, 0]	n/a	FR1	0	R1387E
1636.782	1.617	1715170	WORD	n/a	n/a	NEST	7	12	[0, 0, 0]	n/a	FR1	0	R1387E
1638.399	0.866	1716794	WORD_OFF	n/a	n/a	NEST	7	12	[0, 0, 0]	n/a	FR1	0	R1387E
1639.265	1.617	1717657	WORD	n/a	n/a	SEED	8	12	[0, 0, 0]	n/a	FR1	0	R1387E
1640.882	0.916	1719267	WORD_OFF	n/a	n/a	SEED	8	12	[0, 0, 0]	n/a	FR1	0	R1387E
1641.798	1.6	1720187	WORD	n/a	n/a	DITCH	9	12	[0, 0, 0]	n/a	FR1	0	R1387E
1643.398	0.934	1721783	WORD_OFF	n/a	n/a	DITCH	9	12	[0, 0, 0]	n/a	FR1	0	R1387E
1644.332	1.616	1722717	WORD	n/a	n/a	LAND	10	12	[0, 0, 0]	n/a	FR1	0	R1387E
1645.948	0.817	1724342	WORD_OFF	n/a	n/a	LAND	10	12	[0, 0, 0]	n/a	FR1	0	R1387E
1646.765	1.6	1725161	WORD	n/a	n/a	STEEL	11	12	[0, 0, 0]	n/a	FR1	0	R1387E
1648.365	0.917	1726757	WORD_OFF	n/a	n/a	STEEL	11	12	[0, 0, 0]	n/a	FR1	0	R1387E
1649.282	1.616	1727677	WORD	n/a	n/a	MOOSE	12	12	[0, 0, 0]	n/a	FR1	0	R1387E
1650.898	0.002	1729288	WORD_OFF	n/a	n/a	MOOSE	12	12	[0, 0, 0]	n/a	FR1	0	R1387E
1650.9	0.0	1729288	ENCODING_END	n/a	n/a	n/a	-999	12	[0, 0, 0]	n/a	FR1	0	R1387E
1650.9	0.0	1729288	DISTRACT_START	n/a	n/a	n/a	-999	12	[0, 0, 0]	n/a	FR1	0	R1387E
1650.899	0.001	1729289	PROB	0.001	n/a	n/a	-999	12	[5, 8, 5]	18	FR1	0	R1387E
1650.9	4.932	1729290	START	n/a	n/a	n/a	-999	12	[-999, -999, -999]	n/a	FR1	0	R1387E
1655.832	10.167	1734222	PROB	10.167	n/a	n/a	-999	12	[5, 4, 8]	17	FR1	0	R1387E
1665.999	7.401	1744389	PROB	7.401	n/a	n/a	-999	12	[7, 3, 7]	17	FR1	0	R1387E
1673.4	0.0	1751787	DISTRACT_END	n/a	n/a	n/a	-999	12	[0, 0, 0]	n/a	FR1	0	R1387E
1673.4	1.566	1751790	STOP	n/a	n/a	n/a	-999	12	[-999, -999, -999]	n/a	FR1	0	R1387E
1674.966	2.548	1753351	REC_START	n/a	n/a	n/a	-999	12	[0, 0, 0]	n/a	FR1	0	R1387E
1677.514	1.999	1755903	REC_WORD	1.999	n/a	MOOSE	12	12	[0, 0, 0]	n/a	FR1	0	R1387E
1679.513	24.763	1757902	REC_WORD	24.763	n/a	CLAY	-999	12	[0, 0, 0]	n/a	FR1	0	R1387E
1704.276	1.004	1782665	REC_WORD	1.004	n/a	CREAM	1	12	[0, 0, 0]	n/a	FR1	0	R1387E
1705.28	0.0	1783672	REC_END	n/a	n/a	n/a	-999	12	[0, 0, 0]	n/a	FR1	0	R1387E
