onset	duration	sample	trial_type	response_time	stim_file	item_name	serialpos	list	test	answer	experiment	session	subject
0.0	505.862	211	INSTRUCT_START	n/a	n/a	n/a	-999	-999	[0, 0, 0]	n/a	FR1	1	R1281E
505.862	3.834	506054	INSTRUCT_END	n/a	n/a	n/a	-999	-999	[0, 0, 0]	n/a	FR1	1	R1281E
509.696	8.562	509887	MIC TEST_START	n/a	n/a	n/a	-999	-999	[0, 0, 0]	n/a	FR1	1	R1281E
518.258	0.015	518449	MIC TEST_END	n/a	n/a	n/a	-999	-999	[0, 0, 0]	n/a	FR1	1	R1281E
518.273	0.001	518464	TRIAL_START	n/a	n/a	n/a	-999	-1	[0, 0, 0]	n/a	FR1	1	R1281E
518.274	0.0	518465	TRIAL	n/a	n/a	n/a	-999	-1	[0, 0, 0]	n/a	FR1	1	R1281E
518.274	3.891	518465	WAITING_START	n/a	n/a	n/a	-999	-1	[0, 0, 0]	n/a	FR1	1	R1281E
522.165	0.0	522356	COUNTDOWN_START	n/a	n/a	n/a	-999	-1	[0, 0, 0]	n/a	FR1	1	R1281E
522.165	10.428	522356	WAITING_END	n/a	n/a	n/a	-999	-1	[0, 0, 0]	n/a	FR1	1	R1281E
532.593	0.001	532784	COUNTDOWN_END	n/a	n/a	n/a	-999	-1	[0, 0, 0]	n/a	FR1	1	R1281E
532.594	1.172	532785	ORIENT_START	n/a	n/a	n/a	-999	-1	[0, 0, 0]	n/a	FR1	1	R1281E
533.766	0.001	533957	ORIENT_END	n/a	n/a	n/a	-999	-1	[0, 0, 0]	n/a	FR1	1	R1281E
533.767	1.092	533958	ENCODING_START	n/a	n/a	n/a	-999	-1	[0, 0, 0]	n/a	FR1	1	R1281E
534.859	1.624	535049	WORD	n/a	n/a	ATTIC	1	-1	[0, 0, 0]	n/a	FR1	1	R1281E
536.483	0.915	536673	WORD_OFF	n/a	n/a	ATTIC	1	-1	[0, 0, 0]	n/a	FR1	1	R1281E
537.398	1.636	537588	WORD	n/a	n/a	BEAM	2	-1	[0, 0, 0]	n/a	FR1	1	R1281E
539.034	0.999	539224	WORD_OFF	n/a	n/a	BEAM	2	-1	[0, 0, 0]	n/a	FR1	1	R1281E
540.033	1.635	540223	WORD	n/a	n/a	CAMEL	3	-1	[0, 0, 0]	n/a	FR1	1	R1281E
541.668	1.149	541858	WORD_OFF	n/a	n/a	CAMEL	3	-1	[0, 0, 0]	n/a	FR1	1	R1281E
542.817	1.635	543007	WORD	n/a	n/a	CHEST	4	-1	[0, 0, 0]	n/a	FR1	1	R1281E
544.452	1.129	544642	WORD_OFF	n/a	n/a	CHEST	4	-1	[0, 0, 0]	n/a	FR1	1	R1281E
545.581	1.638	545771	WORD	n/a	n/a	COTTON	5	-1	[0, 0, 0]	n/a	FR1	1	R1281E
547.219	1.076	547409	WORD_OFF	n/a	n/a	COTTON	5	-1	[0, 0, 0]	n/a	FR1	1	R1281E
548.295	1.624	548485	WORD	n/a	n/a	FLOOD	6	-1	[0, 0, 0]	n/a	FR1	1	R1281E
549.919	0.895	550109	WORD_OFF	n/a	n/a	FLOOD	6	-1	[0, 0, 0]	n/a	FR1	1	R1281E
550.814	1.622	551004	WORD	n/a	n/a	IRON	7	-1	[0, 0, 0]	n/a	FR1	1	R1281E
552.436	0.911	552626	WORD_OFF	n/a	n/a	IRON	7	-1	[0, 0, 0]	n/a	FR1	1	R1281E
553.347	1.606	553537	WORD	n/a	n/a	RHINO	8	-1	[0, 0, 0]	n/a	FR1	1	R1281E
554.953	0.869	555143	WORD_OFF	n/a	n/a	RHINO	8	-1	[0, 0, 0]	n/a	FR1	1	R1281E
555.822	1.632	556012	WORD	n/a	n/a	RING	9	-1	[0, 0, 0]	n/a	FR1	1	R1281E
557.454	0.772	557644	WORD_OFF	n/a	n/a	RING	9	-1	[0, 0, 0]	n/a	FR1	1	R1281E
558.226	1.628	558416	WORD	n/a	n/a	TONGUE	10	-1	[0, 0, 0]	n/a	FR1	1	R1281E
559.854	0.752	560044	WORD_OFF	n/a	n/a	TONGUE	10	-1	[0, 0, 0]	n/a	FR1	1	R1281E
560.606	1.632	560795	WORD	n/a	n/a	WAGON	11	-1	[0, 0, 0]	n/a	FR1	1	R1281E
562.238	0.878	562427	WORD_OFF	n/a	n/a	WAGON	11	-1	[0, 0, 0]	n/a	FR1	1	R1281E
563.116	1.622	563305	WORD	n/a	n/a	WATCH	12	-1	[0, 0, 0]	n/a	FR1	1	R1281E
564.738	0.001	564927	WORD_OFF	n/a	n/a	WATCH	12	-1	[0, 0, 0]	n/a	FR1	1	R1281E
564.739	0.0	564928	ENCODING_END	n/a	n/a	n/a	-999	-1	[0, 0, 0]	n/a	FR1	1	R1281E
564.739	0.0	564928	DISTRACT_START	n/a	n/a	n/a	-999	-1	[0, 0, 0]	n/a	FR1	1	R1281E
564.739	0.016	564928	START	n/a	n/a	n/a	-999	-1	[-999, -999, -999]	n/a	FR1	1	R1281E
564.755	8.685	564944	PROB	8.685	n/a	n/a	-999	-1	[7, 8, 4]	20	FR1	1	R1281E
573.44	6.684	573629	PROB	6.684	n/a	n/a	-999	-1	[8, 1, 8]	17	FR1	1	R1281E
580.124	4.584	580313	PROB	4.584	n/a	n/a	-999	-1	[5, 1, 1]	7	FR1	1	R1281E
584.708	5.027	584897	PROB	5.027	n/a	n/a	-999	-1	[6, 8, 6]	20	FR1	1	R1281E
589.735	0.008	589923	STOP	n/a	n/a	n/a	-999	-1	[-999, -999, -999]	n/a	FR1	1	R1281E
589.743	0.603	589931	DISTRACT_END	n/a	n/a	n/a	-999	-1	[0, 0, 0]	n/a	FR1	1	R1281E
590.346	1.564	590534	RETRIEVAL_ORIENT_START	n/a	n/a	n/a	-999	-1	[0, 0, 0]	n/a	FR1	1	R1281E
591.91	0.0	592098	RETRIEVAL_ORIENT_END	n/a	n/a	n/a	-999	-1	[0, 0, 0]	n/a	FR1	1	R1281E
591.91	2.379	592098	REC_START	n/a	n/a	n/a	-999	-1	[0, 0, 0]	n/a	FR1	1	R1281E
594.289	2.484	594477	REC_WORD	2.484	n/a	ATTIC	-999	-1	[0, 0, 0]	n/a	FR1	1	R1281E
596.773	4.76	596961	REC_WORD	4.76	n/a	CAMEL	-999	-1	[0, 0, 0]	n/a	FR1	1	R1281E
601.533	9.088	601721	REC_WORD	9.088	n/a	COTTON	-999	-1	[0, 0, 0]	n/a	FR1	1	R1281E
610.621	11.302	610809	REC_WORD	11.302	n/a	CHAIR	-999	-1	[0, 0, 0]	n/a	FR1	1	R1281E
621.923	0.0	622110	REC_END	n/a	n/a	n/a	-999	-1	[0, 0, 0]	n/a	FR1	1	R1281E
621.923	31.348	622110	PRACTICE_POST_INSTRUCT_START	n/a	n/a	n/a	-999	-1	[0, 0, 0]	n/a	FR1	1	R1281E
653.271	0.001	653457	PRACTICE_POST_INSTRUCT_END	n/a	n/a	n/a	-999	-1	[0, 0, 0]	n/a	FR1	1	R1281E
653.272	0.01	653458	TRIAL_END	n/a	n/a	n/a	-999	-1	[0, 0, 0]	n/a	FR1	1	R1281E
653.282	0.0	653468	TRIAL	n/a	n/a	n/a	-999	1	[0, 0, 0]	n/a	FR1	1	R1281E
653.282	0.0	653468	WAITING_START	n/a	n/a	n/a	-999	1	[0, 0, 0]	n/a	FR1	1	R1281E
653.282	2.689	653468	TRIAL_START	n/a	n/a	n/a	-999	1	[0, 0, 0]	n/a	FR1	1	R1281E
655.971	0.001	656157	WAITING_END	n/a	n/a	n/a	-999	1	[0, 0, 0]	n/a	FR1	1	R1281E
655.972	10.43	656158	COUNTDOWN_START	n/a	n/a	n/a	-999	1	[0, 0, 0]	n/a	FR1	1	R1281E
666.402	0.0	666587	COUNTDOWN_END	n/a	n/a	n/a	-999	1	[0, 0, 0]	n/a	FR1	1	R1281E
666.402	1.071	666587	ORIENT_START	n/a	n/a	n/a	-999	1	[0, 0, 0]	n/a	FR1	1	R1281E
667.473	0.001	667658	ORIENT_END	n/a	n/a	n/a	-999	1	[0, 0, 0]	n/a	FR1	1	R1281E
667.474	0.955	667659	ENCODING_START	n/a	n/a	n/a	-999	1	[0, 0, 0]	n/a	FR1	1	R1281E
668.429	1.628	668614	WORD	n/a	n/a	MOON	1	1	[0, 0, 0]	n/a	FR1	1	R1281E
670.057	0.805	670242	WORD_OFF	n/a	n/a	MOON	1	1	[0, 0, 0]	n/a	FR1	1	R1281E
670.862	1.629	671047	WORD	n/a	n/a	PEACH	2	1	[0, 0, 0]	n/a	FR1	1	R1281E
672.491	0.914	672676	WORD_OFF	n/a	n/a	PEACH	2	1	[0, 0, 0]	n/a	FR1	1	R1281E
673.405	1.636	673590	WORD	n/a	n/a	SWAMP	3	1	[0, 0, 0]	n/a	FR1	1	R1281E
675.041	1.103	675226	WORD_OFF	n/a	n/a	SWAMP	3	1	[0, 0, 0]	n/a	FR1	1	R1281E
676.144	1.631	676329	WORD	n/a	n/a	THUMB	4	1	[0, 0, 0]	n/a	FR1	1	R1281E
677.775	1.106	677960	WORD_OFF	n/a	n/a	THUMB	4	1	[0, 0, 0]	n/a	FR1	1	R1281E
678.881	1.628	679066	WORD	n/a	n/a	HOUSE	5	1	[0, 0, 0]	n/a	FR1	1	R1281E
680.509	0.903	680694	WORD_OFF	n/a	n/a	HOUSE	5	1	[0, 0, 0]	n/a	FR1	1	R1281E
681.412	1.631	681597	WORD	n/a	n/a	OWL	6	1	[0, 0, 0]	n/a	FR1	1	R1281E
683.043	1.116	683228	WORD_OFF	n/a	n/a	OWL	6	1	[0, 0, 0]	n/a	FR1	1	R1281E
684.159	1.634	684344	WORD	n/a	n/a	LOCK	7	1	[0, 0, 0]	n/a	FR1	1	R1281E
685.793	0.93	685978	WORD_OFF	n/a	n/a	LOCK	7	1	[0, 0, 0]	n/a	FR1	1	R1281E
686.723	1.636	686908	WORD	n/a	n/a	DITCH	8	1	[0, 0, 0]	n/a	FR1	1	R1281E
688.359	0.817	688544	WORD_OFF	n/a	n/a	DITCH	8	1	[0, 0, 0]	n/a	FR1	1	R1281E
689.176	1.635	689360	WORD	n/a	n/a	RUG	9	1	[0, 0, 0]	n/a	FR1	1	R1281E
690.811	1.021	690995	WORD_OFF	n/a	n/a	RUG	9	1	[0, 0, 0]	n/a	FR1	1	R1281E
691.832	1.629	692016	WORD	n/a	n/a	DIME	10	1	[0, 0, 0]	n/a	FR1	1	R1281E
693.461	0.863	693645	WORD_OFF	n/a	n/a	DIME	10	1	[0, 0, 0]	n/a	FR1	1	R1281E
694.324	1.621	694508	WORD	n/a	n/a	CROWN	11	1	[0, 0, 0]	n/a	FR1	1	R1281E
695.945	1.068	696129	WORD_OFF	n/a	n/a	CROWN	11	1	[0, 0, 0]	n/a	FR1	1	R1281E
697.013	1.632	697197	WORD	n/a	n/a	STEAK	12	1	[0, 0, 0]	n/a	FR1	1	R1281E
698.645	0.001	698829	WORD_OFF	n/a	n/a	STEAK	12	1	[0, 0, 0]	n/a	FR1	1	R1281E
698.646	0.0	698830	ENCODING_END	n/a	n/a	n/a	-999	1	[0, 0, 0]	n/a	FR1	1	R1281E
698.646	0.0	698830	DISTRACT_START	n/a	n/a	n/a	-999	1	[0, 0, 0]	n/a	FR1	1	R1281E
698.646	0.016	698830	START	n/a	n/a	n/a	-999	1	[-999, -999, -999]	n/a	FR1	1	R1281E
698.662	3.9	698846	PROB	3.9	n/a	n/a	-999	1	[2, 1, 7]	10	FR1	1	R1281E
702.562	4.201	702746	PROB	4.201	n/a	n/a	-999	1	[9, 6, 4]	19	FR1	1	R1281E
706.763	5.151	706947	PROB	5.151	n/a	n/a	-999	1	[6, 3, 5]	14	FR1	1	R1281E
711.914	4.834	712098	PROB	4.834	n/a	n/a	-999	1	[7, 4, 2]	13	FR1	1	R1281E
716.748	4.657	716931	PROB	4.657	n/a	n/a	-999	1	[5, 1, 7]	13	FR1	1	R1281E
721.405	0.011	721588	STOP	n/a	n/a	n/a	-999	1	[-999, -999, -999]	n/a	FR1	1	R1281E
721.416	0.513	721599	DISTRACT_END	n/a	n/a	n/a	-999	1	[0, 0, 0]	n/a	FR1	1	R1281E
721.929	1.621	722112	RETRIEVAL_ORIENT_START	n/a	n/a	n/a	-999	1	[0, 0, 0]	n/a	FR1	1	R1281E
723.55	0.0	723733	RETRIEVAL_ORIENT_END	n/a	n/a	n/a	-999	1	[0, 0, 0]	n/a	FR1	1	R1281E
723.55	0.9	723733	REC_START	n/a	n/a	n/a	-999	1	[0, 0, 0]	n/a	FR1	1	R1281E
724.45	3.995	724633	REC_WORD	3.995	n/a	MOON	1	1	[0, 0, 0]	n/a	FR1	1	R1281E
728.445	3.948	728628	REC_WORD	3.948	n/a	CROWN	11	1	[0, 0, 0]	n/a	FR1	1	R1281E
732.393	3.543	732576	REC_WORD	3.543	n/a	STEAK	12	1	[0, 0, 0]	n/a	FR1	1	R1281E
735.936	1.602	736119	REC_WORD	1.602	n/a	COBLER	-999	1	[0, 0, 0]	n/a	FR1	1	R1281E
737.538	5.724	737721	REC_WORD	5.724	n/a	COBLER	-999	1	[0, 0, 0]	n/a	FR1	1	R1281E
743.262	10.3	743444	REC_WORD	10.3	n/a	COW	-999	1	[0, 0, 0]	n/a	FR1	1	R1281E
753.562	0.001	753744	REC_END	n/a	n/a	n/a	-999	1	[0, 0, 0]	n/a	FR1	1	R1281E
753.563	0.01	753745	TRIAL_END	n/a	n/a	n/a	-999	1	[0, 0, 0]	n/a	FR1	1	R1281E
753.573	0.0	753755	WAITING_START	n/a	n/a	n/a	-999	2	[0, 0, 0]	n/a	FR1	1	R1281E
753.573	0.0	753755	TRIAL	n/a	n/a	n/a	-999	2	[0, 0, 0]	n/a	FR1	1	R1281E
753.573	5.7	753755	TRIAL_START	n/a	n/a	n/a	-999	2	[0, 0, 0]	n/a	FR1	1	R1281E
759.273	0.0	759455	WAITING_END	n/a	n/a	n/a	-999	2	[0, 0, 0]	n/a	FR1	1	R1281E
759.273	10.428	759455	COUNTDOWN_START	n/a	n/a	n/a	-999	2	[0, 0, 0]	n/a	FR1	1	R1281E
769.701	0.001	769882	COUNTDOWN_END	n/a	n/a	n/a	-999	2	[0, 0, 0]	n/a	FR1	1	R1281E
769.702	1.039	769883	ORIENT_START	n/a	n/a	n/a	-999	2	[0, 0, 0]	n/a	FR1	1	R1281E
770.741	0.001	770922	ORIENT_END	n/a	n/a	n/a	-999	2	[0, 0, 0]	n/a	FR1	1	R1281E
770.742	0.843	770923	ENCODING_START	n/a	n/a	n/a	-999	2	[0, 0, 0]	n/a	FR1	1	R1281E
771.585	1.623	771766	WORD	n/a	n/a	CHAIR	1	2	[0, 0, 0]	n/a	FR1	1	R1281E
773.208	0.958	773389	WORD_OFF	n/a	n/a	CHAIR	1	2	[0, 0, 0]	n/a	FR1	1	R1281E
774.166	1.626	774347	WORD	n/a	n/a	GUARD	2	2	[0, 0, 0]	n/a	FR1	1	R1281E
775.792	0.797	775973	WORD_OFF	n/a	n/a	GUARD	2	2	[0, 0, 0]	n/a	FR1	1	R1281E
776.589	1.637	776770	WORD	n/a	n/a	SPRING	3	2	[0, 0, 0]	n/a	FR1	1	R1281E
778.226	0.946	778407	WORD_OFF	n/a	n/a	SPRING	3	2	[0, 0, 0]	n/a	FR1	1	R1281E
779.172	1.621	779353	WORD	n/a	n/a	TRUCK	4	2	[0, 0, 0]	n/a	FR1	1	R1281E
780.793	0.852	780974	WORD_OFF	n/a	n/a	TRUCK	4	2	[0, 0, 0]	n/a	FR1	1	R1281E
781.645	1.631	781826	WORD	n/a	n/a	HAT	5	2	[0, 0, 0]	n/a	FR1	1	R1281E
783.276	1.083	783457	WORD_OFF	n/a	n/a	HAT	5	2	[0, 0, 0]	n/a	FR1	1	R1281E
784.359	1.635	784540	WORD	n/a	n/a	BAND	6	2	[0, 0, 0]	n/a	FR1	1	R1281E
785.994	0.905	786175	WORD_OFF	n/a	n/a	BAND	6	2	[0, 0, 0]	n/a	FR1	1	R1281E
786.899	1.629	787080	WORD	n/a	n/a	DART	7	2	[0, 0, 0]	n/a	FR1	1	R1281E
788.528	1.062	788709	WORD_OFF	n/a	n/a	DART	7	2	[0, 0, 0]	n/a	FR1	1	R1281E
789.59	1.622	789771	WORD	n/a	n/a	SIGN	8	2	[0, 0, 0]	n/a	FR1	1	R1281E
791.212	0.781	791393	WORD_OFF	n/a	n/a	SIGN	8	2	[0, 0, 0]	n/a	FR1	1	R1281E
791.993	1.636	792173	WORD	n/a	n/a	JUDGE	9	2	[0, 0, 0]	n/a	FR1	1	R1281E
793.629	0.901	793809	WORD_OFF	n/a	n/a	JUDGE	9	2	[0, 0, 0]	n/a	FR1	1	R1281E
794.53	1.633	794710	WORD	n/a	n/a	FUDGE	10	2	[0, 0, 0]	n/a	FR1	1	R1281E
796.163	0.92	796343	WORD_OFF	n/a	n/a	FUDGE	10	2	[0, 0, 0]	n/a	FR1	1	R1281E
797.083	1.63	797263	WORD	n/a	n/a	SNAKE	11	2	[0, 0, 0]	n/a	FR1	1	R1281E
798.713	0.798	798893	WORD_OFF	n/a	n/a	SNAKE	11	2	[0, 0, 0]	n/a	FR1	1	R1281E
799.511	1.636	799691	WORD	n/a	n/a	BED	12	2	[0, 0, 0]	n/a	FR1	1	R1281E
801.147	0.0	801327	WORD_OFF	n/a	n/a	BED	12	2	[0, 0, 0]	n/a	FR1	1	R1281E
801.147	0.0	801327	ENCODING_END	n/a	n/a	n/a	-999	2	[0, 0, 0]	n/a	FR1	1	R1281E
801.147	0.001	801327	DISTRACT_START	n/a	n/a	n/a	-999	2	[0, 0, 0]	n/a	FR1	1	R1281E
801.148	0.015	801328	START	n/a	n/a	n/a	-999	2	[-999, -999, -999]	n/a	FR1	1	R1281E
801.163	5.334	801343	PROB	5.334	n/a	n/a	-999	2	[7, 9, 8]	22	FR1	1	R1281E
806.497	5.035	806677	PROB	5.035	n/a	n/a	-999	2	[8, 2, 7]	17	FR1	1	R1281E
811.532	4.25	811712	PROB	4.25	n/a	n/a	-999	2	[2, 6, 7]	15	FR1	1	R1281E
815.782	3.768	815962	PROB	3.768	n/a	n/a	-999	2	[8, 5, 4]	17	FR1	1	R1281E
819.55	3.49	819729	PROB	3.49	n/a	n/a	-999	2	[7, 8, 2]	17	FR1	1	R1281E
823.04	0.011	823219	STOP	n/a	n/a	n/a	-999	2	[-999, -999, -999]	n/a	FR1	1	R1281E
823.051	0.626	823230	DISTRACT_END	n/a	n/a	n/a	-999	2	[0, 0, 0]	n/a	FR1	1	R1281E
823.677	1.69	823856	RETRIEVAL_ORIENT_START	n/a	n/a	n/a	-999	2	[0, 0, 0]	n/a	FR1	1	R1281E
825.367	0.0	825546	REC_START	n/a	n/a	n/a	-999	2	[0, 0, 0]	n/a	FR1	1	R1281E
825.367	2.789	825546	RETRIEVAL_ORIENT_END	n/a	n/a	n/a	-999	2	[0, 0, 0]	n/a	FR1	1	R1281E
828.156	1.0	828335	REC_WORD	1.0	n/a	FUDGE	10	2	[0, 0, 0]	n/a	FR1	1	R1281E
829.156	15.223	829335	REC_WORD_VV	15.223	n/a	<>	-999	2	[0, 0, 0]	n/a	FR1	1	R1281E
844.379	5.291	844557	REC_WORD	5.291	n/a	SIGN	8	2	[0, 0, 0]	n/a	FR1	1	R1281E
849.67	5.709	849848	REC_WORD	5.709	n/a	LETTER	-999	2	[0, 0, 0]	n/a	FR1	1	R1281E
855.379	0.0	855557	REC_END	n/a	n/a	n/a	-999	2	[0, 0, 0]	n/a	FR1	1	R1281E
855.379	0.01	855557	TRIAL_END	n/a	n/a	n/a	-999	2	[0, 0, 0]	n/a	FR1	1	R1281E
855.389	0.0	855567	TRIAL_START	n/a	n/a	n/a	-999	3	[0, 0, 0]	n/a	FR1	1	R1281E
855.389	0.001	855567	TRIAL	n/a	n/a	n/a	-999	3	[0, 0, 0]	n/a	FR1	1	R1281E
855.39	3.333	855568	WAITING_START	n/a	n/a	n/a	-999	3	[0, 0, 0]	n/a	FR1	1	R1281E
858.723	0.001	858901	WAITING_END	n/a	n/a	n/a	-999	3	[0, 0, 0]	n/a	FR1	1	R1281E
858.724	10.429	858902	COUNTDOWN_START	n/a	n/a	n/a	-999	3	[0, 0, 0]	n/a	FR1	1	R1281E
869.153	0.0	869330	COUNTDOWN_END	n/a	n/a	n/a	-999	3	[0, 0, 0]	n/a	FR1	1	R1281E
869.153	1.223	869330	ORIENT_START	n/a	n/a	n/a	-999	3	[0, 0, 0]	n/a	FR1	1	R1281E
870.376	0.0	870553	ORIENT_END	n/a	n/a	n/a	-999	3	[0, 0, 0]	n/a	FR1	1	R1281E
870.376	0.958	870553	ENCODING_START	n/a	n/a	n/a	-999	3	[0, 0, 0]	n/a	FR1	1	R1281E
871.334	1.625	871511	WORD	n/a	n/a	CAPE	1	3	[0, 0, 0]	n/a	FR1	1	R1281E
872.959	1.106	873136	WORD_OFF	n/a	n/a	CAPE	1	3	[0, 0, 0]	n/a	FR1	1	R1281E
874.065	1.628	874242	WORD	n/a	n/a	SEA	2	3	[0, 0, 0]	n/a	FR1	1	R1281E
875.693	0.777	875870	WORD_OFF	n/a	n/a	SEA	2	3	[0, 0, 0]	n/a	FR1	1	R1281E
876.47	1.624	876647	WORD	n/a	n/a	BADGE	3	3	[0, 0, 0]	n/a	FR1	1	R1281E
878.094	0.973	878271	WORD_OFF	n/a	n/a	BADGE	3	3	[0, 0, 0]	n/a	FR1	1	R1281E
879.067	1.627	879244	WORD	n/a	n/a	VINE	4	3	[0, 0, 0]	n/a	FR1	1	R1281E
880.694	1.073	880871	WORD_OFF	n/a	n/a	VINE	4	3	[0, 0, 0]	n/a	FR1	1	R1281E
881.767	1.628	881944	WORD	n/a	n/a	ZOO	5	3	[0, 0, 0]	n/a	FR1	1	R1281E
883.395	0.906	883572	WORD_OFF	n/a	n/a	ZOO	5	3	[0, 0, 0]	n/a	FR1	1	R1281E
884.301	1.61	884478	WORD	n/a	n/a	MOTH	6	3	[0, 0, 0]	n/a	FR1	1	R1281E
885.911	0.863	886088	WORD_OFF	n/a	n/a	MOTH	6	3	[0, 0, 0]	n/a	FR1	1	R1281E
886.774	1.621	886951	WORD	n/a	n/a	PALM	7	3	[0, 0, 0]	n/a	FR1	1	R1281E
888.395	0.878	888572	WORD_OFF	n/a	n/a	PALM	7	3	[0, 0, 0]	n/a	FR1	1	R1281E
889.273	1.623	889450	WORD	n/a	n/a	BOARD	8	3	[0, 0, 0]	n/a	FR1	1	R1281E
890.896	0.84	891073	WORD_OFF	n/a	n/a	BOARD	8	3	[0, 0, 0]	n/a	FR1	1	R1281E
891.736	1.626	891913	WORD	n/a	n/a	BOMB	9	3	[0, 0, 0]	n/a	FR1	1	R1281E
893.362	0.789	893539	WORD_OFF	n/a	n/a	BOMB	9	3	[0, 0, 0]	n/a	FR1	1	R1281E
894.151	1.629	894328	WORD	n/a	n/a	MAIL	10	3	[0, 0, 0]	n/a	FR1	1	R1281E
895.78	1.142	895956	WORD_OFF	n/a	n/a	MAIL	10	3	[0, 0, 0]	n/a	FR1	1	R1281E
896.922	1.625	897098	WORD	n/a	n/a	CLAY	11	3	[0, 0, 0]	n/a	FR1	1	R1281E
898.547	0.965	898723	WORD_OFF	n/a	n/a	CLAY	11	3	[0, 0, 0]	n/a	FR1	1	R1281E
899.512	1.636	899688	WORD	n/a	n/a	GOLD	12	3	[0, 0, 0]	n/a	FR1	1	R1281E
901.148	0.0	901324	WORD_OFF	n/a	n/a	GOLD	12	3	[0, 0, 0]	n/a	FR1	1	R1281E
901.148	0.0	901324	ENCODING_END	n/a	n/a	n/a	-999	3	[0, 0, 0]	n/a	FR1	1	R1281E
901.148	0.0	901324	DISTRACT_START	n/a	n/a	n/a	-999	3	[0, 0, 0]	n/a	FR1	1	R1281E
901.148	0.016	901324	START	n/a	n/a	n/a	-999	3	[-999, -999, -999]	n/a	FR1	1	R1281E
901.164	4.968	901340	PROB	4.968	n/a	n/a	-999	3	[7, 2, 6]	15	FR1	1	R1281E
906.132	3.117	906308	PROB	3.117	n/a	n/a	-999	3	[6, 3, 3]	12	FR1	1	R1281E
909.249	4.951	909425	PROB	4.951	n/a	n/a	-999	3	[4, 4, 6]	15	FR1	1	R1281E
914.2	3.967	914376	PROB	3.967	n/a	n/a	-999	3	[4, 9, 3]	16	FR1	1	R1281E
918.167	3.443	918343	PROB	3.443	n/a	n/a	-999	3	[1, 1, 7]	9	FR1	1	R1281E
921.61	0.008	921785	STOP	n/a	n/a	n/a	-999	3	[-999, -999, -999]	n/a	FR1	1	R1281E
921.618	0.652	921793	DISTRACT_END	n/a	n/a	n/a	-999	3	[0, 0, 0]	n/a	FR1	1	R1281E
922.27	1.715	922445	RETRIEVAL_ORIENT_START	n/a	n/a	n/a	-999	3	[0, 0, 0]	n/a	FR1	1	R1281E
923.985	0.0	924160	REC_START	n/a	n/a	n/a	-999	3	[0, 0, 0]	n/a	FR1	1	R1281E
923.985	0.579	924160	RETRIEVAL_ORIENT_END	n/a	n/a	n/a	-999	3	[0, 0, 0]	n/a	FR1	1	R1281E
924.564	1.755	924739	REC_WORD	1.755	n/a	MOTH	6	3	[0, 0, 0]	n/a	FR1	1	R1281E
926.319	9.589	926494	REC_WORD	9.589	n/a	ZOO	5	3	[0, 0, 0]	n/a	FR1	1	R1281E
935.908	5.257	936083	REC_WORD	5.257	n/a	VINE	4	3	[0, 0, 0]	n/a	FR1	1	R1281E
941.165	1.0	941340	REC_WORD	1.0	n/a	WOOD	-999	3	[0, 0, 0]	n/a	FR1	1	R1281E
942.165	11.833	942340	REC_WORD_VV	11.833	n/a	<>	-999	3	[0, 0, 0]	n/a	FR1	1	R1281E
953.998	0.0	954172	REC_END	n/a	n/a	n/a	-999	3	[0, 0, 0]	n/a	FR1	1	R1281E
953.998	0.01	954172	TRIAL_END	n/a	n/a	n/a	-999	3	[0, 0, 0]	n/a	FR1	1	R1281E
954.008	0.001	954182	TRIAL_START	n/a	n/a	n/a	-999	4	[0, 0, 0]	n/a	FR1	1	R1281E
954.009	0.0	954183	TRIAL	n/a	n/a	n/a	-999	4	[0, 0, 0]	n/a	FR1	1	R1281E
954.009	771.634	954183	WAITING_START	n/a	n/a	n/a	-999	4	[0, 0, 0]	n/a	FR1	1	R1281E
1725.643	0.0	1725787	WAITING_END	n/a	n/a	n/a	-999	4	[0, 0, 0]	n/a	FR1	1	R1281E
1725.643	10.428	1725787	COUNTDOWN_START	n/a	n/a	n/a	-999	4	[0, 0, 0]	n/a	FR1	1	R1281E
1736.071	0.001	1736215	COUNTDOWN_END	n/a	n/a	n/a	-999	4	[0, 0, 0]	n/a	FR1	1	R1281E
1736.072	1.089	1736216	ORIENT_START	n/a	n/a	n/a	-999	4	[0, 0, 0]	n/a	FR1	1	R1281E
1737.161	0.001	1737305	ORIENT_END	n/a	n/a	n/a	-999	4	[0, 0, 0]	n/a	FR1	1	R1281E
1737.162	0.818	1737306	ENCODING_START	n/a	n/a	n/a	-999	4	[0, 0, 0]	n/a	FR1	1	R1281E
1737.98	1.632	1738124	WORD	n/a	n/a	MOLE	1	4	[0, 0, 0]	n/a	FR1	1	R1281E
1739.612	0.75	1739756	WORD_OFF	n/a	n/a	MOLE	1	4	[0, 0, 0]	n/a	FR1	1	R1281E
1740.362	1.633	1740506	WORD	n/a	n/a	SCHOOL	2	4	[0, 0, 0]	n/a	FR1	1	R1281E
1741.995	1.119	1742139	WORD_OFF	n/a	n/a	SCHOOL	2	4	[0, 0, 0]	n/a	FR1	1	R1281E
1743.114	1.632	1743257	WORD	n/a	n/a	EAR	3	4	[0, 0, 0]	n/a	FR1	1	R1281E
1744.746	1.082	1744889	WORD_OFF	n/a	n/a	EAR	3	4	[0, 0, 0]	n/a	FR1	1	R1281E
1745.828	1.635	1745971	WORD	n/a	n/a	FISH	4	4	[0, 0, 0]	n/a	FR1	1	R1281E
1747.463	1.074	1747606	WORD_OFF	n/a	n/a	FISH	4	4	[0, 0, 0]	n/a	FR1	1	R1281E
1748.537	1.626	1748680	WORD	n/a	n/a	BEAK	5	4	[0, 0, 0]	n/a	FR1	1	R1281E
1750.163	0.911	1750306	WORD_OFF	n/a	n/a	BEAK	5	4	[0, 0, 0]	n/a	FR1	1	R1281E
1751.074	1.623	1751217	WORD	n/a	n/a	STICK	6	4	[0, 0, 0]	n/a	FR1	1	R1281E
1752.697	0.858	1752840	WORD_OFF	n/a	n/a	STICK	6	4	[0, 0, 0]	n/a	FR1	1	R1281E
1753.555	1.626	1753698	WORD	n/a	n/a	FROG	7	4	[0, 0, 0]	n/a	FR1	1	R1281E
1755.181	0.927	1755324	WORD_OFF	n/a	n/a	FROG	7	4	[0, 0, 0]	n/a	FR1	1	R1281E
1756.108	1.624	1756251	WORD	n/a	n/a	STOOL	8	4	[0, 0, 0]	n/a	FR1	1	R1281E
1757.732	0.889	1757875	WORD_OFF	n/a	n/a	STOOL	8	4	[0, 0, 0]	n/a	FR1	1	R1281E
1758.621	1.628	1758764	WORD	n/a	n/a	AXE	9	4	[0, 0, 0]	n/a	FR1	1	R1281E
1760.249	1.009	1760392	WORD_OFF	n/a	n/a	AXE	9	4	[0, 0, 0]	n/a	FR1	1	R1281E
1761.258	1.624	1761401	WORD	n/a	n/a	SHEEP	10	4	[0, 0, 0]	n/a	FR1	1	R1281E
1762.882	1.045	1763025	WORD_OFF	n/a	n/a	SHEEP	10	4	[0, 0, 0]	n/a	FR1	1	R1281E
1763.927	1.623	1764070	WORD	n/a	n/a	LEG	11	4	[0, 0, 0]	n/a	FR1	1	R1281E
1765.55	1.1	1765693	WORD_OFF	n/a	n/a	LEG	11	4	[0, 0, 0]	n/a	FR1	1	R1281E
1766.65	1.632	1766793	WORD	n/a	n/a	WORLD	12	4	[0, 0, 0]	n/a	FR1	1	R1281E
1768.282	0.001	1768424	WORD_OFF	n/a	n/a	WORLD	12	4	[0, 0, 0]	n/a	FR1	1	R1281E
1768.283	0.0	1768425	ENCODING_END	n/a	n/a	n/a	-999	4	[0, 0, 0]	n/a	FR1	1	R1281E
1768.283	0.0	1768425	DISTRACT_START	n/a	n/a	n/a	-999	4	[0, 0, 0]	n/a	FR1	1	R1281E
1768.283	0.016	1768425	START	n/a	n/a	n/a	-999	4	[-999, -999, -999]	n/a	FR1	1	R1281E
1768.299	6.001	1768441	PROB	6.001	n/a	n/a	-999	4	[8, 4, 9]	21	FR1	1	R1281E
1774.3	6.984	1774442	PROB	6.984	n/a	n/a	-999	4	[5, 7, 8]	20	FR1	1	R1281E
1781.284	4.385	1781426	PROB	4.385	n/a	n/a	-999	4	[3, 5, 3]	11	FR1	1	R1281E
1785.669	3.393	1785811	PROB	3.393	n/a	n/a	-999	4	[2, 4, 2]	8	FR1	1	R1281E
1789.062	0.008	1789204	STOP	n/a	n/a	n/a	-999	4	[-999, -999, -999]	n/a	FR1	1	R1281E
1789.07	0.546	1789212	DISTRACT_END	n/a	n/a	n/a	-999	4	[0, 0, 0]	n/a	FR1	1	R1281E
1789.616	1.555	1789758	RETRIEVAL_ORIENT_START	n/a	n/a	n/a	-999	4	[0, 0, 0]	n/a	FR1	1	R1281E
1791.171	0.0	1791313	REC_START	n/a	n/a	n/a	-999	4	[0, 0, 0]	n/a	FR1	1	R1281E
1791.171	1.23	1791313	RETRIEVAL_ORIENT_END	n/a	n/a	n/a	-999	4	[0, 0, 0]	n/a	FR1	1	R1281E
1792.401	1.915	1792543	REC_WORD	1.915	n/a	MOLE	1	4	[0, 0, 0]	n/a	FR1	1	R1281E
1794.316	2.575	1794457	REC_WORD	2.575	n/a	SHEEP	10	4	[0, 0, 0]	n/a	FR1	1	R1281E
1796.891	3.069	1797032	REC_WORD	3.069	n/a	FISH	4	4	[0, 0, 0]	n/a	FR1	1	R1281E
1799.96	21.222	1800101	REC_WORD	21.222	n/a	WORLD	12	4	[0, 0, 0]	n/a	FR1	1	R1281E
1821.182	0.0	1821322	REC_END	n/a	n/a	n/a	-999	4	[0, 0, 0]	n/a	FR1	1	R1281E
1821.182	0.01	1821322	TRIAL_END	n/a	n/a	n/a	-999	4	[0, 0, 0]	n/a	FR1	1	R1281E
1821.192	0.0	1821332	TRIAL_START	n/a	n/a	n/a	-999	5	[0, 0, 0]	n/a	FR1	1	R1281E
1821.192	0.001	1821332	TRIAL	n/a	n/a	n/a	-999	5	[0, 0, 0]	n/a	FR1	1	R1281E
1821.193	4.767	1821333	WAITING_START	n/a	n/a	n/a	-999	5	[0, 0, 0]	n/a	FR1	1	R1281E
1825.96	0.001	1826100	WAITING_END	n/a	n/a	n/a	-999	5	[0, 0, 0]	n/a	FR1	1	R1281E
1825.961	10.429	1826101	COUNTDOWN_START	n/a	n/a	n/a	-999	5	[0, 0, 0]	n/a	FR1	1	R1281E
1836.39	0.0	1836530	COUNTDOWN_END	n/a	n/a	n/a	-999	5	[0, 0, 0]	n/a	FR1	1	R1281E
1836.39	1.172	1836530	ORIENT_START	n/a	n/a	n/a	-999	5	[0, 0, 0]	n/a	FR1	1	R1281E
1837.562	0.001	1837702	ORIENT_END	n/a	n/a	n/a	-999	5	[0, 0, 0]	n/a	FR1	1	R1281E
1837.563	0.939	1837703	ENCODING_START	n/a	n/a	n/a	-999	5	[0, 0, 0]	n/a	FR1	1	R1281E
1838.502	1.627	1838642	WORD	n/a	n/a	FRUIT	1	5	[0, 0, 0]	n/a	FR1	1	R1281E
1840.129	0.778	1840269	WORD_OFF	n/a	n/a	FRUIT	1	5	[0, 0, 0]	n/a	FR1	1	R1281E
1840.907	1.623	1841047	WORD	n/a	n/a	TOOTH	2	5	[0, 0, 0]	n/a	FR1	1	R1281E
1842.53	0.785	1842670	WORD_OFF	n/a	n/a	TOOTH	2	5	[0, 0, 0]	n/a	FR1	1	R1281E
1843.315	1.615	1843455	WORD	n/a	n/a	GLASS	3	5	[0, 0, 0]	n/a	FR1	1	R1281E
1844.93	0.977	1845070	WORD_OFF	n/a	n/a	GLASS	3	5	[0, 0, 0]	n/a	FR1	1	R1281E
1845.907	1.624	1846046	WORD	n/a	n/a	CALF	4	5	[0, 0, 0]	n/a	FR1	1	R1281E
1847.531	0.949	1847670	WORD_OFF	n/a	n/a	CALF	4	5	[0, 0, 0]	n/a	FR1	1	R1281E
1848.48	1.635	1848619	WORD	n/a	n/a	SUIT	5	5	[0, 0, 0]	n/a	FR1	1	R1281E
1850.115	1.057	1850254	WORD_OFF	n/a	n/a	SUIT	5	5	[0, 0, 0]	n/a	FR1	1	R1281E
1851.172	1.626	1851311	WORD	n/a	n/a	DOCK	6	5	[0, 0, 0]	n/a	FR1	1	R1281E
1852.798	0.991	1852937	WORD_OFF	n/a	n/a	DOCK	6	5	[0, 0, 0]	n/a	FR1	1	R1281E
1853.789	1.626	1853928	WORD	n/a	n/a	SHOE	7	5	[0, 0, 0]	n/a	FR1	1	R1281E
1855.415	0.825	1855554	WORD_OFF	n/a	n/a	SHOE	7	5	[0, 0, 0]	n/a	FR1	1	R1281E
1856.24	1.626	1856379	WORD	n/a	n/a	ROCK	8	5	[0, 0, 0]	n/a	FR1	1	R1281E
1857.866	1.106	1858005	WORD_OFF	n/a	n/a	ROCK	8	5	[0, 0, 0]	n/a	FR1	1	R1281E
1858.972	1.628	1859111	WORD	n/a	n/a	SQUARE	9	5	[0, 0, 0]	n/a	FR1	1	R1281E
1860.6	0.776	1860739	WORD_OFF	n/a	n/a	SQUARE	9	5	[0, 0, 0]	n/a	FR1	1	R1281E
1861.376	1.624	1861515	WORD	n/a	n/a	LIP	10	5	[0, 0, 0]	n/a	FR1	1	R1281E
1863.0	0.813	1863139	WORD_OFF	n/a	n/a	LIP	10	5	[0, 0, 0]	n/a	FR1	1	R1281E
1863.813	1.637	1863952	WORD	n/a	n/a	MULE	11	5	[0, 0, 0]	n/a	FR1	1	R1281E
1865.45	0.881	1865589	WORD_OFF	n/a	n/a	MULE	11	5	[0, 0, 0]	n/a	FR1	1	R1281E
1866.331	1.62	1866470	WORD	n/a	n/a	LAND	12	5	[0, 0, 0]	n/a	FR1	1	R1281E
1867.951	0.0	1868090	WORD_OFF	n/a	n/a	LAND	12	5	[0, 0, 0]	n/a	FR1	1	R1281E
1867.951	0.0	1868090	ENCODING_END	n/a	n/a	n/a	-999	5	[0, 0, 0]	n/a	FR1	1	R1281E
1867.951	0.0	1868090	DISTRACT_START	n/a	n/a	n/a	-999	5	[0, 0, 0]	n/a	FR1	1	R1281E
1867.951	0.016	1868090	START	n/a	n/a	n/a	-999	5	[-999, -999, -999]	n/a	FR1	1	R1281E
1867.967	3.734	1868106	PROB	3.734	n/a	n/a	-999	5	[3, 7, 9]	19	FR1	1	R1281E
1871.701	3.067	1871839	PROB	3.067	n/a	n/a	-999	5	[3, 3, 2]	8	FR1	1	R1281E
1874.768	4.635	1874906	PROB	4.635	n/a	n/a	-999	5	[2, 4, 9]	15	FR1	1	R1281E
1879.403	3.567	1879541	PROB	3.567	n/a	n/a	-999	5	[3, 2, 2]	7	FR1	1	R1281E
1882.97	3.417	1883108	PROB	3.417	n/a	n/a	-999	5	[6, 4, 7]	18	FR1	1	R1281E
1886.387	5.889	1886525	PROB	5.889	n/a	n/a	-999	5	[8, 2, 3]	13	FR1	1	R1281E
1892.276	0.011	1892414	STOP	n/a	n/a	n/a	-999	5	[-999, -999, -999]	n/a	FR1	1	R1281E
1892.287	0.631	1892425	DISTRACT_END	n/a	n/a	n/a	-999	5	[0, 0, 0]	n/a	FR1	1	R1281E
1892.918	1.671	1893056	RETRIEVAL_ORIENT_START	n/a	n/a	n/a	-999	5	[0, 0, 0]	n/a	FR1	1	R1281E
1894.589	0.0	1894727	RETRIEVAL_ORIENT_END	n/a	n/a	n/a	-999	5	[0, 0, 0]	n/a	FR1	1	R1281E
1894.589	0.92	1894727	REC_START	n/a	n/a	n/a	-999	5	[0, 0, 0]	n/a	FR1	1	R1281E
1895.509	2.789	1895647	REC_WORD	2.789	n/a	MULE	11	5	[0, 0, 0]	n/a	FR1	1	R1281E
1898.298	2.261	1898435	REC_WORD	2.261	n/a	LIP	10	5	[0, 0, 0]	n/a	FR1	1	R1281E
1900.559	2.51	1900696	REC_WORD	2.51	n/a	SQUARE	9	5	[0, 0, 0]	n/a	FR1	1	R1281E
1903.069	6.827	1903206	REC_WORD	6.827	n/a	ROCK	8	5	[0, 0, 0]	n/a	FR1	1	R1281E
1909.896	14.706	1910033	REC_WORD	14.706	n/a	TOOTH	2	5	[0, 0, 0]	n/a	FR1	1	R1281E
1924.602	0.0	1924738	REC_END	n/a	n/a	n/a	-999	5	[0, 0, 0]	n/a	FR1	1	R1281E
1924.602	0.01	1924738	TRIAL_END	n/a	n/a	n/a	-999	5	[0, 0, 0]	n/a	FR1	1	R1281E
1924.612	0.0	1924748	TRIAL	n/a	n/a	n/a	-999	6	[0, 0, 0]	n/a	FR1	1	R1281E
1924.612	0.0	1924748	WAITING_START	n/a	n/a	n/a	-999	6	[0, 0, 0]	n/a	FR1	1	R1281E
1924.612	3.366	1924748	TRIAL_START	n/a	n/a	n/a	-999	6	[0, 0, 0]	n/a	FR1	1	R1281E
1927.978	0.0	1928114	WAITING_END	n/a	n/a	n/a	-999	6	[0, 0, 0]	n/a	FR1	1	R1281E
1927.978	10.43	1928114	COUNTDOWN_START	n/a	n/a	n/a	-999	6	[0, 0, 0]	n/a	FR1	1	R1281E
1938.408	0.0	1938544	COUNTDOWN_END	n/a	n/a	n/a	-999	6	[0, 0, 0]	n/a	FR1	1	R1281E
1938.408	1.255	1938544	ORIENT_START	n/a	n/a	n/a	-999	6	[0, 0, 0]	n/a	FR1	1	R1281E
1939.663	0.001	1939799	ORIENT_END	n/a	n/a	n/a	-999	6	[0, 0, 0]	n/a	FR1	1	R1281E
1939.664	0.754	1939800	ENCODING_START	n/a	n/a	n/a	-999	6	[0, 0, 0]	n/a	FR1	1	R1281E
1940.418	1.629	1940554	WORD	n/a	n/a	BROOM	1	6	[0, 0, 0]	n/a	FR1	1	R1281E
1942.047	1.021	1942183	WORD_OFF	n/a	n/a	BROOM	1	6	[0, 0, 0]	n/a	FR1	1	R1281E
1943.068	1.63	1943204	WORD	n/a	n/a	MOUTH	2	6	[0, 0, 0]	n/a	FR1	1	R1281E
1944.698	1.143	1944834	WORD_OFF	n/a	n/a	MOUTH	2	6	[0, 0, 0]	n/a	FR1	1	R1281E
1945.841	1.624	1945977	WORD	n/a	n/a	FLAME	3	6	[0, 0, 0]	n/a	FR1	1	R1281E
1947.465	0.971	1947601	WORD_OFF	n/a	n/a	FLAME	3	6	[0, 0, 0]	n/a	FR1	1	R1281E
1948.436	1.629	1948571	WORD	n/a	n/a	DESK	4	6	[0, 0, 0]	n/a	FR1	1	R1281E
1950.065	0.791	1950200	WORD_OFF	n/a	n/a	DESK	4	6	[0, 0, 0]	n/a	FR1	1	R1281E
1950.856	1.626	1950991	WORD	n/a	n/a	FORK	5	6	[0, 0, 0]	n/a	FR1	1	R1281E
1952.482	1.005	1952617	WORD_OFF	n/a	n/a	FORK	5	6	[0, 0, 0]	n/a	FR1	1	R1281E
1953.487	1.629	1953622	WORD	n/a	n/a	SINK	6	6	[0, 0, 0]	n/a	FR1	1	R1281E
1955.116	1.126	1955251	WORD_OFF	n/a	n/a	SINK	6	6	[0, 0, 0]	n/a	FR1	1	R1281E
1956.242	1.625	1956377	WORD	n/a	n/a	BAT	7	6	[0, 0, 0]	n/a	FR1	1	R1281E
1957.867	1.059	1958002	WORD_OFF	n/a	n/a	BAT	7	6	[0, 0, 0]	n/a	FR1	1	R1281E
1958.926	1.624	1959061	WORD	n/a	n/a	FOAM	8	6	[0, 0, 0]	n/a	FR1	1	R1281E
1960.55	0.764	1960685	WORD_OFF	n/a	n/a	FOAM	8	6	[0, 0, 0]	n/a	FR1	1	R1281E
1961.314	1.637	1961449	WORD	n/a	n/a	DRUM	9	6	[0, 0, 0]	n/a	FR1	1	R1281E
1962.951	0.984	1963086	WORD_OFF	n/a	n/a	DRUM	9	6	[0, 0, 0]	n/a	FR1	1	R1281E
1963.935	1.633	1964070	WORD	n/a	n/a	LEAF	10	6	[0, 0, 0]	n/a	FR1	1	R1281E
1965.568	1.016	1965703	WORD_OFF	n/a	n/a	LEAF	10	6	[0, 0, 0]	n/a	FR1	1	R1281E
1966.584	1.635	1966719	WORD	n/a	n/a	CLIFF	11	6	[0, 0, 0]	n/a	FR1	1	R1281E
1968.219	0.958	1968354	WORD_OFF	n/a	n/a	CLIFF	11	6	[0, 0, 0]	n/a	FR1	1	R1281E
1969.177	1.625	1969312	WORD	n/a	n/a	TOY	12	6	[0, 0, 0]	n/a	FR1	1	R1281E
1970.802	0.001	1970937	WORD_OFF	n/a	n/a	TOY	12	6	[0, 0, 0]	n/a	FR1	1	R1281E
1970.803	0.0	1970938	ENCODING_END	n/a	n/a	n/a	-999	6	[0, 0, 0]	n/a	FR1	1	R1281E
1970.803	0.0	1970938	DISTRACT_START	n/a	n/a	n/a	-999	6	[0, 0, 0]	n/a	FR1	1	R1281E
1970.803	0.016	1970938	START	n/a	n/a	n/a	-999	6	[-999, -999, -999]	n/a	FR1	1	R1281E
1970.819	3.95	1970954	PROB	3.95	n/a	n/a	-999	6	[5, 9, 5]	19	FR1	1	R1281E
1974.769	5.235	1974903	PROB	5.235	n/a	n/a	-999	6	[5, 3, 5]	13	FR1	1	R1281E
1980.004	3.467	1980138	PROB	3.467	n/a	n/a	-999	6	[9, 1, 6]	16	FR1	1	R1281E
1983.471	3.317	1983605	PROB	3.317	n/a	n/a	-999	6	[3, 2, 9]	14	FR1	1	R1281E
1986.788	4.112	1986922	PROB	4.112	n/a	n/a	-999	6	[2, 3, 7]	12	FR1	1	R1281E
1990.9	0.022	1991034	STOP	n/a	n/a	n/a	-999	6	[-999, -999, -999]	n/a	FR1	1	R1281E
1990.922	0.531	1991056	DISTRACT_END	n/a	n/a	n/a	-999	6	[0, 0, 0]	n/a	FR1	1	R1281E
1991.453	1.587	1991587	RETRIEVAL_ORIENT_START	n/a	n/a	n/a	-999	6	[0, 0, 0]	n/a	FR1	1	R1281E
1993.04	0.0	1993174	RETRIEVAL_ORIENT_END	n/a	n/a	n/a	-999	6	[0, 0, 0]	n/a	FR1	1	R1281E
1993.04	22.42	1993174	REC_START	n/a	n/a	n/a	-999	6	[0, 0, 0]	n/a	FR1	1	R1281E
2015.46	6.246	2015593	REC_WORD	6.246	n/a	LIP	-999	6	[0, 0, 0]	n/a	FR1	1	R1281E
2021.706	1.346	2021839	REC_WORD_VV	1.346	n/a	<>	-999	6	[0, 0, 0]	n/a	FR1	1	R1281E
2023.052	0.0	2023185	REC_END	n/a	n/a	n/a	-999	6	[0, 0, 0]	n/a	FR1	1	R1281E
2023.052	0.042	2023185	TRIAL_END	n/a	n/a	n/a	-999	6	[0, 0, 0]	n/a	FR1	1	R1281E
2023.094	0.001	2023227	TRIAL_START	n/a	n/a	n/a	-999	7	[0, 0, 0]	n/a	FR1	1	R1281E
2023.095	0.0	2023228	TRIAL	n/a	n/a	n/a	-999	7	[0, 0, 0]	n/a	FR1	1	R1281E
2023.095	56.86	2023228	WAITING_START	n/a	n/a	n/a	-999	7	[0, 0, 0]	n/a	FR1	1	R1281E
2079.955	0.0	2080085	WAITING_END	n/a	n/a	n/a	-999	7	[0, 0, 0]	n/a	FR1	1	R1281E
2079.955	10.428	2080085	COUNTDOWN_START	n/a	n/a	n/a	-999	7	[0, 0, 0]	n/a	FR1	1	R1281E
2090.383	0.001	2090513	COUNTDOWN_END	n/a	n/a	n/a	-999	7	[0, 0, 0]	n/a	FR1	1	R1281E
2090.384	1.239	2090514	ORIENT_START	n/a	n/a	n/a	-999	7	[0, 0, 0]	n/a	FR1	1	R1281E
2091.623	0.001	2091753	ORIENT_END	n/a	n/a	n/a	-999	7	[0, 0, 0]	n/a	FR1	1	R1281E
2091.624	0.958	2091754	ENCODING_START	n/a	n/a	n/a	-999	7	[0, 0, 0]	n/a	FR1	1	R1281E
2092.582	1.625	2092712	WORD	n/a	n/a	FOX	1	7	[0, 0, 0]	n/a	FR1	1	R1281E
2094.207	0.98	2094337	WORD_OFF	n/a	n/a	FOX	1	7	[0, 0, 0]	n/a	FR1	1	R1281E
2095.187	1.621	2095317	WORD	n/a	n/a	BEAR	2	7	[0, 0, 0]	n/a	FR1	1	R1281E
2096.808	0.762	2096938	WORD_OFF	n/a	n/a	BEAR	2	7	[0, 0, 0]	n/a	FR1	1	R1281E
2097.57	1.622	2097700	WORD	n/a	n/a	CRANE	3	7	[0, 0, 0]	n/a	FR1	1	R1281E
2099.192	1.116	2099322	WORD_OFF	n/a	n/a	CRANE	3	7	[0, 0, 0]	n/a	FR1	1	R1281E
2100.308	1.634	2100438	WORD	n/a	n/a	WORM	4	7	[0, 0, 0]	n/a	FR1	1	R1281E
2101.942	0.777	2102072	WORD_OFF	n/a	n/a	WORM	4	7	[0, 0, 0]	n/a	FR1	1	R1281E
2102.719	1.622	2102848	WORD	n/a	n/a	GOAT	5	7	[0, 0, 0]	n/a	FR1	1	R1281E
2104.341	0.85	2104470	WORD_OFF	n/a	n/a	GOAT	5	7	[0, 0, 0]	n/a	FR1	1	R1281E
2105.191	1.635	2105320	WORD	n/a	n/a	BEACH	6	7	[0, 0, 0]	n/a	FR1	1	R1281E
2106.826	1.1	2106955	WORD_OFF	n/a	n/a	BEACH	6	7	[0, 0, 0]	n/a	FR1	1	R1281E
2107.926	1.634	2108055	WORD	n/a	n/a	WEB	7	7	[0, 0, 0]	n/a	FR1	1	R1281E
2109.56	0.892	2109689	WORD_OFF	n/a	n/a	WEB	7	7	[0, 0, 0]	n/a	FR1	1	R1281E
2110.452	1.625	2110581	WORD	n/a	n/a	CHALK	8	7	[0, 0, 0]	n/a	FR1	1	R1281E
2112.077	1.089	2112206	WORD_OFF	n/a	n/a	CHALK	8	7	[0, 0, 0]	n/a	FR1	1	R1281E
2113.166	1.628	2113295	WORD	n/a	n/a	CROW	9	7	[0, 0, 0]	n/a	FR1	1	R1281E
2114.794	0.951	2114923	WORD_OFF	n/a	n/a	CROW	9	7	[0, 0, 0]	n/a	FR1	1	R1281E
2115.745	1.633	2115874	WORD	n/a	n/a	EGG	10	7	[0, 0, 0]	n/a	FR1	1	R1281E
2117.378	0.952	2117507	WORD_OFF	n/a	n/a	EGG	10	7	[0, 0, 0]	n/a	FR1	1	R1281E
2118.33	1.632	2118459	WORD	n/a	n/a	TAIL	11	7	[0, 0, 0]	n/a	FR1	1	R1281E
2119.962	1.075	2120091	WORD_OFF	n/a	n/a	TAIL	11	7	[0, 0, 0]	n/a	FR1	1	R1281E
2121.037	1.625	2121166	WORD	n/a	n/a	PIE	12	7	[0, 0, 0]	n/a	FR1	1	R1281E
2122.662	0.001	2122791	WORD_OFF	n/a	n/a	PIE	12	7	[0, 0, 0]	n/a	FR1	1	R1281E
2122.663	0.0	2122792	ENCODING_END	n/a	n/a	n/a	-999	7	[0, 0, 0]	n/a	FR1	1	R1281E
2122.663	0.0	2122792	DISTRACT_START	n/a	n/a	n/a	-999	7	[0, 0, 0]	n/a	FR1	1	R1281E
2122.663	0.016	2122792	START	n/a	n/a	n/a	-999	7	[-999, -999, -999]	n/a	FR1	1	R1281E
2122.679	5.034	2122808	PROB	5.034	n/a	n/a	-999	7	[8, 5, 5]	18	FR1	1	R1281E
2127.713	3.717	2127842	PROB	3.717	n/a	n/a	-999	7	[6, 3, 4]	13	FR1	1	R1281E
2131.43	3.651	2131558	PROB	3.651	n/a	n/a	-999	7	[8, 4, 6]	18	FR1	1	R1281E
2135.081	5.884	2135209	PROB	5.884	n/a	n/a	-999	7	[9, 8, 9]	26	FR1	1	R1281E
2140.965	3.372	2141093	PROB	3.372	n/a	n/a	-999	7	[4, 8, 9]	21	FR1	1	R1281E
2144.337	0.011	2144465	STOP	n/a	n/a	n/a	-999	7	[-999, -999, -999]	n/a	FR1	1	R1281E
2144.348	0.512	2144476	DISTRACT_END	n/a	n/a	n/a	-999	7	[0, 0, 0]	n/a	FR1	1	R1281E
2144.86	1.707	2144988	RETRIEVAL_ORIENT_START	n/a	n/a	n/a	-999	7	[0, 0, 0]	n/a	FR1	1	R1281E
2146.567	0.0	2146695	RETRIEVAL_ORIENT_END	n/a	n/a	n/a	-999	7	[0, 0, 0]	n/a	FR1	1	R1281E
2146.567	0.959	2146695	REC_START	n/a	n/a	n/a	-999	7	[0, 0, 0]	n/a	FR1	1	R1281E
2147.526	2.95	2147654	REC_WORD	2.95	n/a	CHALK	8	7	[0, 0, 0]	n/a	FR1	1	R1281E
2150.476	2.651	2150604	REC_WORD	2.651	n/a	CRANE	3	7	[0, 0, 0]	n/a	FR1	1	R1281E
2153.127	5.188	2153255	REC_WORD	5.188	n/a	WORM	4	7	[0, 0, 0]	n/a	FR1	1	R1281E
2158.315	1.0	2158442	REC_WORD	1.0	n/a	FOX	1	7	[0, 0, 0]	n/a	FR1	1	R1281E
2159.315	3.583	2159442	REC_WORD_VV	3.583	n/a	<>	-999	7	[0, 0, 0]	n/a	FR1	1	R1281E
2162.898	13.683	2163025	REC_WORD	13.683	n/a	SHEEP	-999	7	[0, 0, 0]	n/a	FR1	1	R1281E
2176.581	0.0	2176708	REC_END	n/a	n/a	n/a	-999	7	[0, 0, 0]	n/a	FR1	1	R1281E
2176.581	0.012	2176708	TRIAL_END	n/a	n/a	n/a	-999	7	[0, 0, 0]	n/a	FR1	1	R1281E
2176.593	0.0	2176720	TRIAL_START	n/a	n/a	n/a	-999	8	[0, 0, 0]	n/a	FR1	1	R1281E
2176.593	0.0	2176720	TRIAL	n/a	n/a	n/a	-999	8	[0, 0, 0]	n/a	FR1	1	R1281E
2176.593	7.713	2176720	WAITING_START	n/a	n/a	n/a	-999	8	[0, 0, 0]	n/a	FR1	1	R1281E
2184.306	0.0	2184432	COUNTDOWN_START	n/a	n/a	n/a	-999	8	[0, 0, 0]	n/a	FR1	1	R1281E
2184.306	10.429	2184432	WAITING_END	n/a	n/a	n/a	-999	8	[0, 0, 0]	n/a	FR1	1	R1281E
2194.735	0.0	2194861	COUNTDOWN_END	n/a	n/a	n/a	-999	8	[0, 0, 0]	n/a	FR1	1	R1281E
2194.735	1.107	2194861	ORIENT_START	n/a	n/a	n/a	-999	8	[0, 0, 0]	n/a	FR1	1	R1281E
2195.842	0.0	2195968	ORIENT_END	n/a	n/a	n/a	-999	8	[0, 0, 0]	n/a	FR1	1	R1281E
2195.842	1.11	2195968	ENCODING_START	n/a	n/a	n/a	-999	8	[0, 0, 0]	n/a	FR1	1	R1281E
2196.952	1.624	2197078	WORD	n/a	n/a	BENCH	1	8	[0, 0, 0]	n/a	FR1	1	R1281E
2198.576	0.752	2198702	WORD_OFF	n/a	n/a	BENCH	1	8	[0, 0, 0]	n/a	FR1	1	R1281E
2199.328	1.631	2199454	WORD	n/a	n/a	STRAW	2	8	[0, 0, 0]	n/a	FR1	1	R1281E
2200.959	1.006	2201085	WORD_OFF	n/a	n/a	STRAW	2	8	[0, 0, 0]	n/a	FR1	1	R1281E
2201.965	1.628	2202091	WORD	n/a	n/a	WHALE	3	8	[0, 0, 0]	n/a	FR1	1	R1281E
2203.593	0.892	2203719	WORD_OFF	n/a	n/a	WHALE	3	8	[0, 0, 0]	n/a	FR1	1	R1281E
2204.485	1.625	2204611	WORD	n/a	n/a	CHEEK	4	8	[0, 0, 0]	n/a	FR1	1	R1281E
2206.11	0.938	2206235	WORD_OFF	n/a	n/a	CHEEK	4	8	[0, 0, 0]	n/a	FR1	1	R1281E
2207.048	1.629	2207173	WORD	n/a	n/a	STOVE	5	8	[0, 0, 0]	n/a	FR1	1	R1281E
2208.677	0.781	2208802	WORD_OFF	n/a	n/a	STOVE	5	8	[0, 0, 0]	n/a	FR1	1	R1281E
2209.458	1.637	2209583	WORD	n/a	n/a	CLOCK	6	8	[0, 0, 0]	n/a	FR1	1	R1281E
2211.095	0.964	2211220	WORD_OFF	n/a	n/a	CLOCK	6	8	[0, 0, 0]	n/a	FR1	1	R1281E
2212.059	1.636	2212184	WORD	n/a	n/a	PLANT	7	8	[0, 0, 0]	n/a	FR1	1	R1281E
2213.695	0.763	2213820	WORD_OFF	n/a	n/a	PLANT	7	8	[0, 0, 0]	n/a	FR1	1	R1281E
2214.458	1.621	2214583	WORD	n/a	n/a	NOSE	8	8	[0, 0, 0]	n/a	FR1	1	R1281E
2216.079	0.897	2216204	WORD_OFF	n/a	n/a	NOSE	8	8	[0, 0, 0]	n/a	FR1	1	R1281E
2216.976	1.637	2217101	WORD	n/a	n/a	VAN	9	8	[0, 0, 0]	n/a	FR1	1	R1281E
2218.613	1.072	2218738	WORD_OFF	n/a	n/a	VAN	9	8	[0, 0, 0]	n/a	FR1	1	R1281E
2219.685	1.627	2219810	WORD	n/a	n/a	GEESE	10	8	[0, 0, 0]	n/a	FR1	1	R1281E
2221.312	0.934	2221437	WORD_OFF	n/a	n/a	GEESE	10	8	[0, 0, 0]	n/a	FR1	1	R1281E
2222.246	1.634	2222371	WORD	n/a	n/a	SNOW	11	8	[0, 0, 0]	n/a	FR1	1	R1281E
2223.88	1.095	2224005	WORD_OFF	n/a	n/a	SNOW	11	8	[0, 0, 0]	n/a	FR1	1	R1281E
2224.975	1.622	2225100	WORD	n/a	n/a	RAT	12	8	[0, 0, 0]	n/a	FR1	1	R1281E
2226.597	0.001	2226722	WORD_OFF	n/a	n/a	RAT	12	8	[0, 0, 0]	n/a	FR1	1	R1281E
2226.598	0.0	2226723	ENCODING_END	n/a	n/a	n/a	-999	8	[0, 0, 0]	n/a	FR1	1	R1281E
2226.598	0.0	2226723	DISTRACT_START	n/a	n/a	n/a	-999	8	[0, 0, 0]	n/a	FR1	1	R1281E
2226.598	0.016	2226723	START	n/a	n/a	n/a	-999	8	[-999, -999, -999]	n/a	FR1	1	R1281E
2226.614	4.184	2226739	PROB	4.184	n/a	n/a	-999	8	[6, 9, 5]	20	FR1	1	R1281E
2230.798	4.5	2230922	PROB	4.5	n/a	n/a	-999	8	[7, 7, 9]	23	FR1	1	R1281E
2235.298	3.718	2235422	PROB	3.718	n/a	n/a	-999	8	[9, 4, 6]	19	FR1	1	R1281E
2239.016	4.034	2239140	PROB	4.034	n/a	n/a	-999	8	[4, 1, 5]	10	FR1	1	R1281E
2243.05	3.646	2243174	PROB	3.646	n/a	n/a	-999	8	[7, 1, 7]	15	FR1	1	R1281E
2246.696	0.021	2246820	STOP	n/a	n/a	n/a	-999	8	[-999, -999, -999]	n/a	FR1	1	R1281E
2246.717	0.618	2246841	DISTRACT_END	n/a	n/a	n/a	-999	8	[0, 0, 0]	n/a	FR1	1	R1281E
2247.335	1.599	2247459	RETRIEVAL_ORIENT_START	n/a	n/a	n/a	-999	8	[0, 0, 0]	n/a	FR1	1	R1281E
2248.934	0.001	2249058	RETRIEVAL_ORIENT_END	n/a	n/a	n/a	-999	8	[0, 0, 0]	n/a	FR1	1	R1281E
2248.935	3.584	2249059	REC_START	n/a	n/a	n/a	-999	8	[0, 0, 0]	n/a	FR1	1	R1281E
2252.519	3.5	2252643	REC_WORD	3.5	n/a	SNOW	11	8	[0, 0, 0]	n/a	FR1	1	R1281E
2256.019	1.0	2256143	REC_WORD	1.0	n/a	STOVE	5	8	[0, 0, 0]	n/a	FR1	1	R1281E
2257.019	1.515	2257142	REC_WORD_VV	1.515	n/a	<>	-999	8	[0, 0, 0]	n/a	FR1	1	R1281E
2258.534	20.412	2258657	REC_WORD	20.412	n/a	CLOCK	6	8	[0, 0, 0]	n/a	FR1	1	R1281E
2278.946	0.0	2279069	REC_END	n/a	n/a	n/a	-999	8	[0, 0, 0]	n/a	FR1	1	R1281E
2278.946	0.01	2279069	TRIAL_END	n/a	n/a	n/a	-999	8	[0, 0, 0]	n/a	FR1	1	R1281E
2278.956	0.0	2279079	TRIAL_START	n/a	n/a	n/a	-999	9	[0, 0, 0]	n/a	FR1	1	R1281E
2278.956	0.0	2279079	TRIAL	n/a	n/a	n/a	-999	9	[0, 0, 0]	n/a	FR1	1	R1281E
2278.956	35.74	2279079	WAITING_START	n/a	n/a	n/a	-999	9	[0, 0, 0]	n/a	FR1	1	R1281E
2314.696	0.0	2314817	COUNTDOWN_START	n/a	n/a	n/a	-999	9	[0, 0, 0]	n/a	FR1	1	R1281E
2314.696	10.429	2314817	WAITING_END	n/a	n/a	n/a	-999	9	[0, 0, 0]	n/a	FR1	1	R1281E
2325.125	0.0	2325246	COUNTDOWN_END	n/a	n/a	n/a	-999	9	[0, 0, 0]	n/a	FR1	1	R1281E
2325.125	1.222	2325246	ORIENT_START	n/a	n/a	n/a	-999	9	[0, 0, 0]	n/a	FR1	1	R1281E
2326.347	0.001	2326468	ORIENT_END	n/a	n/a	n/a	-999	9	[0, 0, 0]	n/a	FR1	1	R1281E
2326.348	1.101	2326469	ENCODING_START	n/a	n/a	n/a	-999	9	[0, 0, 0]	n/a	FR1	1	R1281E
2327.449	1.633	2327570	WORD	n/a	n/a	STEM	1	9	[0, 0, 0]	n/a	FR1	1	R1281E
2329.082	1.064	2329203	WORD_OFF	n/a	n/a	STEM	1	9	[0, 0, 0]	n/a	FR1	1	R1281E
2330.146	1.636	2330267	WORD	n/a	n/a	SAIL	2	9	[0, 0, 0]	n/a	FR1	1	R1281E
2331.782	0.891	2331903	WORD_OFF	n/a	n/a	SAIL	2	9	[0, 0, 0]	n/a	FR1	1	R1281E
2332.673	1.626	2332794	WORD	n/a	n/a	STEAM	3	9	[0, 0, 0]	n/a	FR1	1	R1281E
2334.299	0.814	2334419	WORD_OFF	n/a	n/a	STEAM	3	9	[0, 0, 0]	n/a	FR1	1	R1281E
2335.113	1.62	2335233	WORD	n/a	n/a	TIE	4	9	[0, 0, 0]	n/a	FR1	1	R1281E
2336.733	0.859	2336853	WORD_OFF	n/a	n/a	TIE	4	9	[0, 0, 0]	n/a	FR1	1	R1281E
2337.592	1.625	2337712	WORD	n/a	n/a	ROOT	5	9	[0, 0, 0]	n/a	FR1	1	R1281E
2339.217	0.797	2339337	WORD_OFF	n/a	n/a	ROOT	5	9	[0, 0, 0]	n/a	FR1	1	R1281E
2340.014	1.637	2340134	WORD	n/a	n/a	BANK	6	9	[0, 0, 0]	n/a	FR1	1	R1281E
2341.651	0.986	2341771	WORD_OFF	n/a	n/a	BANK	6	9	[0, 0, 0]	n/a	FR1	1	R1281E
2342.637	1.631	2342757	WORD	n/a	n/a	HOOF	7	9	[0, 0, 0]	n/a	FR1	1	R1281E
2344.268	0.832	2344388	WORD_OFF	n/a	n/a	HOOF	7	9	[0, 0, 0]	n/a	FR1	1	R1281E
2345.1	1.635	2345220	WORD	n/a	n/a	MAZE	8	9	[0, 0, 0]	n/a	FR1	1	R1281E
2346.735	0.86	2346855	WORD_OFF	n/a	n/a	MAZE	8	9	[0, 0, 0]	n/a	FR1	1	R1281E
2347.595	1.624	2347715	WORD	n/a	n/a	CLOTH	9	9	[0, 0, 0]	n/a	FR1	1	R1281E
2349.219	1.089	2349339	WORD_OFF	n/a	n/a	CLOTH	9	9	[0, 0, 0]	n/a	FR1	1	R1281E
2350.308	1.628	2350428	WORD	n/a	n/a	ANT	10	9	[0, 0, 0]	n/a	FR1	1	R1281E
2351.936	0.825	2352056	WORD_OFF	n/a	n/a	ANT	10	9	[0, 0, 0]	n/a	FR1	1	R1281E
2352.761	1.625	2352881	WORD	n/a	n/a	NET	11	9	[0, 0, 0]	n/a	FR1	1	R1281E
2354.386	0.777	2354506	WORD_OFF	n/a	n/a	NET	11	9	[0, 0, 0]	n/a	FR1	1	R1281E
2355.163	1.624	2355283	WORD	n/a	n/a	PLANE	12	9	[0, 0, 0]	n/a	FR1	1	R1281E
2356.787	0.0	2356907	DISTRACT_START	n/a	n/a	n/a	-999	9	[0, 0, 0]	n/a	FR1	1	R1281E
2356.787	0.0	2356907	WORD_OFF	n/a	n/a	PLANE	12	9	[0, 0, 0]	n/a	FR1	1	R1281E
2356.787	0.001	2356907	ENCODING_END	n/a	n/a	n/a	-999	9	[0, 0, 0]	n/a	FR1	1	R1281E
2356.788	0.015	2356908	START	n/a	n/a	n/a	-999	9	[-999, -999, -999]	n/a	FR1	1	R1281E
2356.803	4.468	2356923	PROB	4.468	n/a	n/a	-999	9	[2, 5, 9]	16	FR1	1	R1281E
2361.271	3.517	2361390	PROB	3.517	n/a	n/a	-999	9	[4, 9, 4]	17	FR1	1	R1281E
2364.788	4.851	2364907	PROB	4.851	n/a	n/a	-999	9	[8, 9, 5]	22	FR1	1	R1281E
2369.639	2.95	2369758	PROB	2.95	n/a	n/a	-999	9	[6, 4, 5]	15	FR1	1	R1281E
2372.589	2.301	2372708	PROB	2.301	n/a	n/a	-999	9	[9, 1, 1]	11	FR1	1	R1281E
2374.89	4.006	2375009	PROB	4.006	n/a	n/a	-999	9	[4, 8, 7]	19	FR1	1	R1281E
2378.896	0.011	2379015	STOP	n/a	n/a	n/a	-999	9	[-999, -999, -999]	n/a	FR1	1	R1281E
2378.907	0.597	2379026	DISTRACT_END	n/a	n/a	n/a	-999	9	[0, 0, 0]	n/a	FR1	1	R1281E
2379.504	1.67	2379623	RETRIEVAL_ORIENT_START	n/a	n/a	n/a	-999	9	[0, 0, 0]	n/a	FR1	1	R1281E
2381.174	0.001	2381293	RETRIEVAL_ORIENT_END	n/a	n/a	n/a	-999	9	[0, 0, 0]	n/a	FR1	1	R1281E
2381.175	0.714	2381294	REC_START	n/a	n/a	n/a	-999	9	[0, 0, 0]	n/a	FR1	1	R1281E
2381.889	4.666	2382008	REC_WORD	4.666	n/a	STEM	1	9	[0, 0, 0]	n/a	FR1	1	R1281E
2386.555	8.147	2386673	REC_WORD	8.147	n/a	PLANE	12	9	[0, 0, 0]	n/a	FR1	1	R1281E
2394.702	6.344	2394820	REC_WORD	6.344	n/a	DECK	-999	9	[0, 0, 0]	n/a	FR1	1	R1281E
2401.046	10.14	2401164	REC_WORD	10.14	n/a	ANT	10	9	[0, 0, 0]	n/a	FR1	1	R1281E
2411.186	0.001	2411303	REC_END	n/a	n/a	n/a	-999	9	[0, 0, 0]	n/a	FR1	1	R1281E
2411.187	0.01	2411304	TRIAL_END	n/a	n/a	n/a	-999	9	[0, 0, 0]	n/a	FR1	1	R1281E
2411.197	0.0	2411314	TRIAL_START	n/a	n/a	n/a	-999	10	[0, 0, 0]	n/a	FR1	1	R1281E
2411.197	0.001	2411314	TRIAL	n/a	n/a	n/a	-999	10	[0, 0, 0]	n/a	FR1	1	R1281E
2411.198	11.584	2411315	WAITING_START	n/a	n/a	n/a	-999	10	[0, 0, 0]	n/a	FR1	1	R1281E
2422.782	0.0	2422899	WAITING_END	n/a	n/a	n/a	-999	10	[0, 0, 0]	n/a	FR1	1	R1281E
2422.782	10.429	2422899	COUNTDOWN_START	n/a	n/a	n/a	-999	10	[0, 0, 0]	n/a	FR1	1	R1281E
2433.211	0.0	2433328	ORIENT_START	n/a	n/a	n/a	-999	10	[0, 0, 0]	n/a	FR1	1	R1281E
2433.211	1.155	2433328	COUNTDOWN_END	n/a	n/a	n/a	-999	10	[0, 0, 0]	n/a	FR1	1	R1281E
2434.366	0.001	2434483	ORIENT_END	n/a	n/a	n/a	-999	10	[0, 0, 0]	n/a	FR1	1	R1281E
2434.367	0.992	2434484	ENCODING_START	n/a	n/a	n/a	-999	10	[0, 0, 0]	n/a	FR1	1	R1281E
2435.359	1.625	2435476	WORD	n/a	n/a	OAK	1	10	[0, 0, 0]	n/a	FR1	1	R1281E
2436.984	0.811	2437100	WORD_OFF	n/a	n/a	OAK	1	10	[0, 0, 0]	n/a	FR1	1	R1281E
2437.795	1.623	2437911	WORD	n/a	n/a	DRESS	2	10	[0, 0, 0]	n/a	FR1	1	R1281E
2439.418	1.032	2439534	WORD_OFF	n/a	n/a	DRESS	2	10	[0, 0, 0]	n/a	FR1	1	R1281E
2440.45	1.635	2440566	WORD	n/a	n/a	LAMP	3	10	[0, 0, 0]	n/a	FR1	1	R1281E
2442.085	0.812	2442201	WORD_OFF	n/a	n/a	LAMP	3	10	[0, 0, 0]	n/a	FR1	1	R1281E
2442.897	1.622	2443013	WORD	n/a	n/a	TOAD	4	10	[0, 0, 0]	n/a	FR1	1	R1281E
2444.519	0.961	2444635	WORD_OFF	n/a	n/a	TOAD	4	10	[0, 0, 0]	n/a	FR1	1	R1281E
2445.48	1.623	2445596	WORD	n/a	n/a	FOG	5	10	[0, 0, 0]	n/a	FR1	1	R1281E
2447.103	1.149	2447219	WORD_OFF	n/a	n/a	FOG	5	10	[0, 0, 0]	n/a	FR1	1	R1281E
2448.252	1.634	2448368	WORD	n/a	n/a	PIPE	6	10	[0, 0, 0]	n/a	FR1	1	R1281E
2449.886	1.061	2450002	WORD_OFF	n/a	n/a	PIPE	6	10	[0, 0, 0]	n/a	FR1	1	R1281E
2450.947	1.623	2451063	WORD	n/a	n/a	ARM	7	10	[0, 0, 0]	n/a	FR1	1	R1281E
2452.57	1.136	2452686	WORD_OFF	n/a	n/a	ARM	7	10	[0, 0, 0]	n/a	FR1	1	R1281E
2453.706	1.63	2453822	WORD	n/a	n/a	PEAR	8	10	[0, 0, 0]	n/a	FR1	1	R1281E
2455.336	0.883	2455452	WORD_OFF	n/a	n/a	PEAR	8	10	[0, 0, 0]	n/a	FR1	1	R1281E
2456.219	1.636	2456335	WORD	n/a	n/a	SWORD	9	10	[0, 0, 0]	n/a	FR1	1	R1281E
2457.855	0.951	2457971	WORD_OFF	n/a	n/a	SWORD	9	10	[0, 0, 0]	n/a	FR1	1	R1281E
2458.806	1.632	2458922	WORD	n/a	n/a	FAN	10	10	[0, 0, 0]	n/a	FR1	1	R1281E
2460.438	0.846	2460554	WORD_OFF	n/a	n/a	FAN	10	10	[0, 0, 0]	n/a	FR1	1	R1281E
2461.284	1.638	2461400	WORD	n/a	n/a	BLUSH	11	10	[0, 0, 0]	n/a	FR1	1	R1281E
2462.922	1.142	2463037	WORD_OFF	n/a	n/a	BLUSH	11	10	[0, 0, 0]	n/a	FR1	1	R1281E
2464.064	1.625	2464179	WORD	n/a	n/a	WAND	12	10	[0, 0, 0]	n/a	FR1	1	R1281E
2465.689	0.001	2465804	WORD_OFF	n/a	n/a	WAND	12	10	[0, 0, 0]	n/a	FR1	1	R1281E
2465.69	0.0	2465805	ENCODING_END	n/a	n/a	n/a	-999	10	[0, 0, 0]	n/a	FR1	1	R1281E
2465.69	0.0	2465805	DISTRACT_START	n/a	n/a	n/a	-999	10	[0, 0, 0]	n/a	FR1	1	R1281E
2465.69	0.016	2465805	START	n/a	n/a	n/a	-999	10	[-999, -999, -999]	n/a	FR1	1	R1281E
2465.706	5.001	2465821	PROB	5.001	n/a	n/a	-999	10	[8, 4, 2]	14	FR1	1	R1281E
2470.707	4.467	2470822	PROB	4.467	n/a	n/a	-999	10	[7, 6, 4]	17	FR1	1	R1281E
2475.174	3.567	2475289	PROB	3.567	n/a	n/a	-999	10	[9, 1, 5]	15	FR1	1	R1281E
2478.741	3.567	2478856	PROB	3.567	n/a	n/a	-999	10	[1, 6, 1]	8	FR1	1	R1281E
2482.308	3.168	2482423	PROB	3.168	n/a	n/a	-999	10	[3, 6, 1]	10	FR1	1	R1281E
2485.476	3.379	2485591	PROB	3.379	n/a	n/a	-999	10	[2, 2, 9]	13	FR1	1	R1281E
2488.855	0.022	2488969	STOP	n/a	n/a	n/a	-999	10	[-999, -999, -999]	n/a	FR1	1	R1281E
2488.877	0.531	2488991	DISTRACT_END	n/a	n/a	n/a	-999	10	[0, 0, 0]	n/a	FR1	1	R1281E
2489.408	1.703	2489522	RETRIEVAL_ORIENT_START	n/a	n/a	n/a	-999	10	[0, 0, 0]	n/a	FR1	1	R1281E
2491.111	0.0	2491225	RETRIEVAL_ORIENT_END	n/a	n/a	n/a	-999	10	[0, 0, 0]	n/a	FR1	1	R1281E
2491.111	7.379	2491225	REC_START	n/a	n/a	n/a	-999	10	[0, 0, 0]	n/a	FR1	1	R1281E
2498.49	2.465	2498604	REC_WORD	2.465	n/a	PIPE	6	10	[0, 0, 0]	n/a	FR1	1	R1281E
2500.955	5.474	2501069	REC_WORD	5.474	n/a	FOG	5	10	[0, 0, 0]	n/a	FR1	1	R1281E
2506.429	1.0	2506543	REC_WORD	1.0	n/a	DRESS	2	10	[0, 0, 0]	n/a	FR1	1	R1281E
2507.429	2.079	2507543	REC_WORD_VV	2.079	n/a	<>	-999	10	[0, 0, 0]	n/a	FR1	1	R1281E
2509.508	3.265	2509622	REC_WORD	3.265	n/a	OAK	1	10	[0, 0, 0]	n/a	FR1	1	R1281E
2512.773	8.35	2512887	REC_WORD	8.35	n/a	ARM	7	10	[0, 0, 0]	n/a	FR1	1	R1281E
2521.123	0.0	2521236	REC_END	n/a	n/a	n/a	-999	10	[0, 0, 0]	n/a	FR1	1	R1281E
2521.123	0.01	2521236	TRIAL_END	n/a	n/a	n/a	-999	10	[0, 0, 0]	n/a	FR1	1	R1281E
2521.133	0.0	2521246	TRIAL_START	n/a	n/a	n/a	-999	11	[0, 0, 0]	n/a	FR1	1	R1281E
2521.133	0.001	2521246	TRIAL	n/a	n/a	n/a	-999	11	[0, 0, 0]	n/a	FR1	1	R1281E
2521.134	30.104	2521247	WAITING_START	n/a	n/a	n/a	-999	11	[0, 0, 0]	n/a	FR1	1	R1281E
2551.238	0.0	2551350	COUNTDOWN_START	n/a	n/a	n/a	-999	11	[0, 0, 0]	n/a	FR1	1	R1281E
2551.238	10.429	2551350	WAITING_END	n/a	n/a	n/a	-999	11	[0, 0, 0]	n/a	FR1	1	R1281E
2561.667	0.0	2561779	COUNTDOWN_END	n/a	n/a	n/a	-999	11	[0, 0, 0]	n/a	FR1	1	R1281E
2561.667	1.056	2561779	ORIENT_START	n/a	n/a	n/a	-999	11	[0, 0, 0]	n/a	FR1	1	R1281E
2562.723	0.001	2562835	ORIENT_END	n/a	n/a	n/a	-999	11	[0, 0, 0]	n/a	FR1	1	R1281E
2562.724	1.064	2562836	ENCODING_START	n/a	n/a	n/a	-999	11	[0, 0, 0]	n/a	FR1	1	R1281E
2563.788	1.636	2563900	WORD	n/a	n/a	PLATE	1	11	[0, 0, 0]	n/a	FR1	1	R1281E
2565.424	0.749	2565535	WORD_OFF	n/a	n/a	PLATE	1	11	[0, 0, 0]	n/a	FR1	1	R1281E
2566.173	1.634	2566284	WORD	n/a	n/a	HEN	2	11	[0, 0, 0]	n/a	FR1	1	R1281E
2567.807	0.955	2567918	WORD_OFF	n/a	n/a	HEN	2	11	[0, 0, 0]	n/a	FR1	1	R1281E
2568.762	1.629	2568873	WORD	n/a	n/a	TOAST	3	11	[0, 0, 0]	n/a	FR1	1	R1281E
2570.391	0.834	2570502	WORD_OFF	n/a	n/a	TOAST	3	11	[0, 0, 0]	n/a	FR1	1	R1281E
2571.225	1.633	2571336	WORD	n/a	n/a	DOLL	4	11	[0, 0, 0]	n/a	FR1	1	R1281E
2572.858	1.047	2572969	WORD_OFF	n/a	n/a	DOLL	4	11	[0, 0, 0]	n/a	FR1	1	R1281E
2573.905	1.637	2574016	WORD	n/a	n/a	LAKE	5	11	[0, 0, 0]	n/a	FR1	1	R1281E
2575.542	0.888	2575653	WORD_OFF	n/a	n/a	LAKE	5	11	[0, 0, 0]	n/a	FR1	1	R1281E
2576.43	1.629	2576541	WORD	n/a	n/a	GATE	6	11	[0, 0, 0]	n/a	FR1	1	R1281E
2578.059	0.946	2578170	WORD_OFF	n/a	n/a	GATE	6	11	[0, 0, 0]	n/a	FR1	1	R1281E
2579.005	1.621	2579116	WORD	n/a	n/a	PIN	7	11	[0, 0, 0]	n/a	FR1	1	R1281E
2580.626	0.964	2580737	WORD_OFF	n/a	n/a	PIN	7	11	[0, 0, 0]	n/a	FR1	1	R1281E
2581.59	1.637	2581701	WORD	n/a	n/a	SEAT	8	11	[0, 0, 0]	n/a	FR1	1	R1281E
2583.227	1.048	2583338	WORD_OFF	n/a	n/a	SEAT	8	11	[0, 0, 0]	n/a	FR1	1	R1281E
2584.275	1.619	2584386	WORD	n/a	n/a	KITE	9	11	[0, 0, 0]	n/a	FR1	1	R1281E
2585.894	0.878	2586005	WORD_OFF	n/a	n/a	KITE	9	11	[0, 0, 0]	n/a	FR1	1	R1281E
2586.772	1.622	2586883	WORD	n/a	n/a	FORT	10	11	[0, 0, 0]	n/a	FR1	1	R1281E
2588.394	1.064	2588505	WORD_OFF	n/a	n/a	FORT	10	11	[0, 0, 0]	n/a	FR1	1	R1281E
2589.458	1.637	2589569	WORD	n/a	n/a	BRUSH	11	11	[0, 0, 0]	n/a	FR1	1	R1281E
2591.095	0.786	2591205	WORD_OFF	n/a	n/a	BRUSH	11	11	[0, 0, 0]	n/a	FR1	1	R1281E
2591.881	1.631	2591991	WORD	n/a	n/a	SHELL	12	11	[0, 0, 0]	n/a	FR1	1	R1281E
2593.512	0.0	2593622	WORD_OFF	n/a	n/a	SHELL	12	11	[0, 0, 0]	n/a	FR1	1	R1281E
2593.512	0.0	2593622	ENCODING_END	n/a	n/a	n/a	-999	11	[0, 0, 0]	n/a	FR1	1	R1281E
2593.512	0.001	2593622	DISTRACT_START	n/a	n/a	n/a	-999	11	[0, 0, 0]	n/a	FR1	1	R1281E
2593.513	0.015	2593623	START	n/a	n/a	n/a	-999	11	[-999, -999, -999]	n/a	FR1	1	R1281E
2593.528	4.618	2593638	PROB	4.618	n/a	n/a	-999	11	[9, 9, 1]	19	FR1	1	R1281E
2598.146	5.934	2598256	PROB	5.934	n/a	n/a	-999	11	[9, 2, 7]	18	FR1	1	R1281E
2604.08	2.867	2604190	PROB	2.867	n/a	n/a	-999	11	[1, 1, 3]	5	FR1	1	R1281E
2606.947	8.381	2607057	PROB	8.381	n/a	n/a	-999	11	[3, 4, 8]	15	FR1	1	R1281E
2615.328	0.02	2615438	STOP	n/a	n/a	n/a	-999	11	[-999, -999, -999]	n/a	FR1	1	R1281E
2615.348	0.626	2615458	DISTRACT_END	n/a	n/a	n/a	-999	11	[0, 0, 0]	n/a	FR1	1	R1281E
2615.974	1.625	2616084	RETRIEVAL_ORIENT_START	n/a	n/a	n/a	-999	11	[0, 0, 0]	n/a	FR1	1	R1281E
2617.599	0.001	2617708	RETRIEVAL_ORIENT_END	n/a	n/a	n/a	-999	11	[0, 0, 0]	n/a	FR1	1	R1281E
2617.6	1.374	2617709	REC_START	n/a	n/a	n/a	-999	11	[0, 0, 0]	n/a	FR1	1	R1281E
2618.974	5.771	2619083	REC_WORD	5.771	n/a	PIN	7	11	[0, 0, 0]	n/a	FR1	1	R1281E
2624.745	1.0	2624854	REC_WORD	1.0	n/a	LAKE	5	11	[0, 0, 0]	n/a	FR1	1	R1281E
2625.745	2.938	2625854	REC_WORD_VV	2.938	n/a	<>	-999	11	[0, 0, 0]	n/a	FR1	1	R1281E
2628.683	2.382	2628792	REC_WORD	2.382	n/a	PLATE	1	11	[0, 0, 0]	n/a	FR1	1	R1281E
2631.065	8.249	2631174	REC_WORD	8.249	n/a	HEN	2	11	[0, 0, 0]	n/a	FR1	1	R1281E
2639.314	8.298	2639423	REC_WORD	8.298	n/a	DRESS	-999	11	[0, 0, 0]	n/a	FR1	1	R1281E
2647.612	0.0	2647720	REC_END	n/a	n/a	n/a	-999	11	[0, 0, 0]	n/a	FR1	1	R1281E
2647.612	0.01	2647720	TRIAL_END	n/a	n/a	n/a	-999	11	[0, 0, 0]	n/a	FR1	1	R1281E
2647.622	0.0	2647730	TRIAL	n/a	n/a	n/a	-999	12	[0, 0, 0]	n/a	FR1	1	R1281E
2647.622	0.0	2647730	WAITING_START	n/a	n/a	n/a	-999	12	[0, 0, 0]	n/a	FR1	1	R1281E
2647.622	5.367	2647730	TRIAL_START	n/a	n/a	n/a	-999	12	[0, 0, 0]	n/a	FR1	1	R1281E
2652.989	0.0	2653097	WAITING_END	n/a	n/a	n/a	-999	12	[0, 0, 0]	n/a	FR1	1	R1281E
2652.989	10.429	2653097	COUNTDOWN_START	n/a	n/a	n/a	-999	12	[0, 0, 0]	n/a	FR1	1	R1281E
2663.418	0.001	2663526	COUNTDOWN_END	n/a	n/a	n/a	-999	12	[0, 0, 0]	n/a	FR1	1	R1281E
2663.419	1.239	2663527	ORIENT_START	n/a	n/a	n/a	-999	12	[0, 0, 0]	n/a	FR1	1	R1281E
2664.658	0.0	2664766	ORIENT_END	n/a	n/a	n/a	-999	12	[0, 0, 0]	n/a	FR1	1	R1281E
2664.658	0.941	2664766	ENCODING_START	n/a	n/a	n/a	-999	12	[0, 0, 0]	n/a	FR1	1	R1281E
2665.599	1.626	2665707	WORD	n/a	n/a	CORN	1	12	[0, 0, 0]	n/a	FR1	1	R1281E
2667.225	1.147	2667333	WORD_OFF	n/a	n/a	CORN	1	12	[0, 0, 0]	n/a	FR1	1	R1281E
2668.372	1.637	2668479	WORD	n/a	n/a	ROOM	2	12	[0, 0, 0]	n/a	FR1	1	R1281E
2670.009	0.818	2670116	WORD_OFF	n/a	n/a	ROOM	2	12	[0, 0, 0]	n/a	FR1	1	R1281E
2670.827	1.632	2670934	WORD	n/a	n/a	NEST	3	12	[0, 0, 0]	n/a	FR1	1	R1281E
2672.459	0.766	2672566	WORD_OFF	n/a	n/a	NEST	3	12	[0, 0, 0]	n/a	FR1	1	R1281E
2673.225	1.634	2673332	WORD	n/a	n/a	CAT	4	12	[0, 0, 0]	n/a	FR1	1	R1281E
2674.859	1.095	2674966	WORD_OFF	n/a	n/a	CAT	4	12	[0, 0, 0]	n/a	FR1	1	R1281E
2675.954	1.623	2676061	WORD	n/a	n/a	TEETH	5	12	[0, 0, 0]	n/a	FR1	1	R1281E
2677.577	1.021	2677684	WORD_OFF	n/a	n/a	TEETH	5	12	[0, 0, 0]	n/a	FR1	1	R1281E
2678.598	1.629	2678705	WORD	n/a	n/a	HEART	6	12	[0, 0, 0]	n/a	FR1	1	R1281E
2680.227	0.889	2680334	WORD_OFF	n/a	n/a	HEART	6	12	[0, 0, 0]	n/a	FR1	1	R1281E
2681.116	1.628	2681223	WORD	n/a	n/a	CONE	7	12	[0, 0, 0]	n/a	FR1	1	R1281E
2682.744	0.894	2682851	WORD_OFF	n/a	n/a	CONE	7	12	[0, 0, 0]	n/a	FR1	1	R1281E
2683.638	1.623	2683745	WORD	n/a	n/a	JUICE	8	12	[0, 0, 0]	n/a	FR1	1	R1281E
2685.261	1.072	2685368	WORD_OFF	n/a	n/a	JUICE	8	12	[0, 0, 0]	n/a	FR1	1	R1281E
2686.333	1.629	2686440	WORD	n/a	n/a	ROOF	9	12	[0, 0, 0]	n/a	FR1	1	R1281E
2687.962	0.836	2688069	WORD_OFF	n/a	n/a	ROOF	9	12	[0, 0, 0]	n/a	FR1	1	R1281E
2688.798	1.631	2688905	WORD	n/a	n/a	STREET	10	12	[0, 0, 0]	n/a	FR1	1	R1281E
2690.429	0.803	2690536	WORD_OFF	n/a	n/a	STREET	10	12	[0, 0, 0]	n/a	FR1	1	R1281E
2691.232	1.631	2691339	WORD	n/a	n/a	SNAIL	11	12	[0, 0, 0]	n/a	FR1	1	R1281E
2692.863	1.06	2692970	WORD_OFF	n/a	n/a	SNAIL	11	12	[0, 0, 0]	n/a	FR1	1	R1281E
2693.923	1.623	2694029	WORD	n/a	n/a	SHARK	12	12	[0, 0, 0]	n/a	FR1	1	R1281E
2695.546	0.001	2695652	WORD_OFF	n/a	n/a	SHARK	12	12	[0, 0, 0]	n/a	FR1	1	R1281E
2695.547	0.0	2695653	ENCODING_END	n/a	n/a	n/a	-999	12	[0, 0, 0]	n/a	FR1	1	R1281E
2695.547	0.0	2695653	DISTRACT_START	n/a	n/a	n/a	-999	12	[0, 0, 0]	n/a	FR1	1	R1281E
2695.547	0.016	2695653	START	n/a	n/a	n/a	-999	12	[-999, -999, -999]	n/a	FR1	1	R1281E
2695.563	4.834	2695669	PROB	4.834	n/a	n/a	-999	12	[9, 6, 2]	17	FR1	1	R1281E
2700.397	3.851	2700503	PROB	3.851	n/a	n/a	-999	12	[6, 4, 3]	13	FR1	1	R1281E
2704.248	9.985	2704354	PROB	9.985	n/a	n/a	-999	12	[2, 5, 9]	16	FR1	1	R1281E
2714.233	4.371	2714339	PROB	4.371	n/a	n/a	-999	12	[7, 7, 3]	17	FR1	1	R1281E
2718.604	0.013	2718710	STOP	n/a	n/a	n/a	-999	12	[-999, -999, -999]	n/a	FR1	1	R1281E
2718.617	0.65	2718723	DISTRACT_END	n/a	n/a	n/a	-999	12	[0, 0, 0]	n/a	FR1	1	R1281E
2719.267	1.6	2719372	RETRIEVAL_ORIENT_START	n/a	n/a	n/a	-999	12	[0, 0, 0]	n/a	FR1	1	R1281E
2720.867	0.001	2720972	RETRIEVAL_ORIENT_END	n/a	n/a	n/a	-999	12	[0, 0, 0]	n/a	FR1	1	R1281E
2720.868	0.995	2720973	REC_START	n/a	n/a	n/a	-999	12	[0, 0, 0]	n/a	FR1	1	R1281E
2721.863	2.494	2721968	REC_WORD	2.494	n/a	SHARK	12	12	[0, 0, 0]	n/a	FR1	1	R1281E
2724.357	1.0	2724462	REC_WORD	1.0	n/a	SNAKE	-999	12	[0, 0, 0]	n/a	FR1	1	R1281E
2725.357	8.241	2725462	REC_WORD_VV	8.241	n/a	<>	-999	12	[0, 0, 0]	n/a	FR1	1	R1281E
2733.598	1.0	2733703	REC_WORD	1.0	n/a	KITE	-999	12	[0, 0, 0]	n/a	FR1	1	R1281E
2734.598	6.895	2734703	REC_WORD_VV	6.895	n/a	<>	-999	12	[0, 0, 0]	n/a	FR1	1	R1281E
2741.493	9.387	2741598	REC_WORD	9.387	n/a	BIRD	-999	12	[0, 0, 0]	n/a	FR1	1	R1281E
2750.88	0.0	2750984	REC_END	n/a	n/a	n/a	-999	12	[0, 0, 0]	n/a	FR1	1	R1281E
2750.88	0.01	2750984	TRIAL_END	n/a	n/a	n/a	-999	12	[0, 0, 0]	n/a	FR1	1	R1281E
2750.89	0.0	2750994	TRIAL	n/a	n/a	n/a	-999	13	[0, 0, 0]	n/a	FR1	1	R1281E
2750.89	0.0	2750994	WAITING_START	n/a	n/a	n/a	-999	13	[0, 0, 0]	n/a	FR1	1	R1281E
2750.89	5.1	2750994	TRIAL_START	n/a	n/a	n/a	-999	13	[0, 0, 0]	n/a	FR1	1	R1281E
2755.99	0.001	2756094	WAITING_END	n/a	n/a	n/a	-999	13	[0, 0, 0]	n/a	FR1	1	R1281E
2755.991	10.428	2756095	COUNTDOWN_START	n/a	n/a	n/a	-999	13	[0, 0, 0]	n/a	FR1	1	R1281E
2766.419	0.001	2766523	COUNTDOWN_END	n/a	n/a	n/a	-999	13	[0, 0, 0]	n/a	FR1	1	R1281E
2766.42	1.256	2766524	ORIENT_START	n/a	n/a	n/a	-999	13	[0, 0, 0]	n/a	FR1	1	R1281E
2767.676	0.0	2767780	ORIENT_END	n/a	n/a	n/a	-999	13	[0, 0, 0]	n/a	FR1	1	R1281E
2767.676	1.082	2767780	ENCODING_START	n/a	n/a	n/a	-999	13	[0, 0, 0]	n/a	FR1	1	R1281E
2768.758	1.635	2768862	WORD	n/a	n/a	SLIME	1	13	[0, 0, 0]	n/a	FR1	1	R1281E
2770.393	0.91	2770496	WORD_OFF	n/a	n/a	SLIME	1	13	[0, 0, 0]	n/a	FR1	1	R1281E
2771.303	1.607	2771406	WORD	n/a	n/a	CART	2	13	[0, 0, 0]	n/a	FR1	1	R1281E
2772.91	0.857	2773013	WORD_OFF	n/a	n/a	CART	2	13	[0, 0, 0]	n/a	FR1	1	R1281E
2773.767	1.627	2773870	WORD	n/a	n/a	PEARL	3	13	[0, 0, 0]	n/a	FR1	1	R1281E
2775.394	1.072	2775497	WORD_OFF	n/a	n/a	PEARL	3	13	[0, 0, 0]	n/a	FR1	1	R1281E
2776.466	1.628	2776569	WORD	n/a	n/a	CUP	4	13	[0, 0, 0]	n/a	FR1	1	R1281E
2778.094	1.139	2778197	WORD_OFF	n/a	n/a	CUP	4	13	[0, 0, 0]	n/a	FR1	1	R1281E
2779.233	1.628	2779336	WORD	n/a	n/a	BATH	5	13	[0, 0, 0]	n/a	FR1	1	R1281E
2780.861	0.936	2780964	WORD_OFF	n/a	n/a	BATH	5	13	[0, 0, 0]	n/a	FR1	1	R1281E
2781.797	1.632	2781900	WORD	n/a	n/a	CAKE	6	13	[0, 0, 0]	n/a	FR1	1	R1281E
2783.429	0.873	2783532	WORD_OFF	n/a	n/a	CAKE	6	13	[0, 0, 0]	n/a	FR1	1	R1281E
2784.302	1.627	2784405	WORD	n/a	n/a	CLOWN	7	13	[0, 0, 0]	n/a	FR1	1	R1281E
2785.929	1.095	2786032	WORD_OFF	n/a	n/a	CLOWN	7	13	[0, 0, 0]	n/a	FR1	1	R1281E
2787.024	1.622	2787127	WORD	n/a	n/a	VASE	8	13	[0, 0, 0]	n/a	FR1	1	R1281E
2788.646	0.935	2788749	WORD_OFF	n/a	n/a	VASE	8	13	[0, 0, 0]	n/a	FR1	1	R1281E
2789.581	1.632	2789684	WORD	n/a	n/a	STAIR	9	13	[0, 0, 0]	n/a	FR1	1	R1281E
2791.213	1.017	2791316	WORD_OFF	n/a	n/a	STAIR	9	13	[0, 0, 0]	n/a	FR1	1	R1281E
2792.23	1.634	2792333	WORD	n/a	n/a	RICE	10	13	[0, 0, 0]	n/a	FR1	1	R1281E
2793.864	0.843	2793967	WORD_OFF	n/a	n/a	RICE	10	13	[0, 0, 0]	n/a	FR1	1	R1281E
2794.707	1.623	2794810	WORD	n/a	n/a	TREE	11	13	[0, 0, 0]	n/a	FR1	1	R1281E
2796.33	1.037	2796432	WORD_OFF	n/a	n/a	TREE	11	13	[0, 0, 0]	n/a	FR1	1	R1281E
2797.367	1.631	2797469	WORD	n/a	n/a	BEE	12	13	[0, 0, 0]	n/a	FR1	1	R1281E
2798.998	0.001	2799100	WORD_OFF	n/a	n/a	BEE	12	13	[0, 0, 0]	n/a	FR1	1	R1281E
2798.999	0.0	2799101	ENCODING_END	n/a	n/a	n/a	-999	13	[0, 0, 0]	n/a	FR1	1	R1281E
2798.999	0.0	2799101	DISTRACT_START	n/a	n/a	n/a	-999	13	[0, 0, 0]	n/a	FR1	1	R1281E
2798.999	0.015	2799101	START	n/a	n/a	n/a	-999	13	[-999, -999, -999]	n/a	FR1	1	R1281E
2799.014	4.701	2799116	PROB	4.701	n/a	n/a	-999	13	[5, 4, 3]	12	FR1	1	R1281E
2803.715	6.001	2803817	PROB	6.001	n/a	n/a	-999	13	[5, 9, 3]	17	FR1	1	R1281E
2809.716	3.65	2809818	PROB	3.65	n/a	n/a	-999	13	[7, 5, 4]	18	FR1	1	R1281E
2813.366	4.001	2813468	PROB	4.001	n/a	n/a	-999	13	[1, 3, 4]	8	FR1	1	R1281E
2817.367	3.475	2817469	PROB	3.475	n/a	n/a	-999	13	[6, 4, 7]	17	FR1	1	R1281E
2820.842	0.01	2820944	STOP	n/a	n/a	n/a	-999	13	[-999, -999, -999]	n/a	FR1	1	R1281E
2820.852	0.554	2820954	DISTRACT_END	n/a	n/a	n/a	-999	13	[0, 0, 0]	n/a	FR1	1	R1281E
2821.406	1.596	2821508	RETRIEVAL_ORIENT_START	n/a	n/a	n/a	-999	13	[0, 0, 0]	n/a	FR1	1	R1281E
2823.002	0.0	2823103	REC_START	n/a	n/a	n/a	-999	13	[0, 0, 0]	n/a	FR1	1	R1281E
2823.002	0.875	2823103	RETRIEVAL_ORIENT_END	n/a	n/a	n/a	-999	13	[0, 0, 0]	n/a	FR1	1	R1281E
2823.877	3.22	2823978	REC_WORD	3.22	n/a	SLIME	1	13	[0, 0, 0]	n/a	FR1	1	R1281E
2827.097	6.09	2827198	REC_WORD	6.09	n/a	SNAIL	-999	13	[0, 0, 0]	n/a	FR1	1	R1281E
2833.187	19.828	2833288	REC_WORD	19.828	n/a	CAKE	6	13	[0, 0, 0]	n/a	FR1	1	R1281E
2853.015	0.0	2853115	REC_END	n/a	n/a	n/a	-999	13	[0, 0, 0]	n/a	FR1	1	R1281E
2853.015	0.01	2853115	TRIAL_END	n/a	n/a	n/a	-999	13	[0, 0, 0]	n/a	FR1	1	R1281E
2853.025	0.0	2853125	WAITING_START	n/a	n/a	n/a	-999	14	[0, 0, 0]	n/a	FR1	1	R1281E
2853.025	0.0	2853125	TRIAL_START	n/a	n/a	n/a	-999	14	[0, 0, 0]	n/a	FR1	1	R1281E
2853.025	23.22	2853125	TRIAL	n/a	n/a	n/a	-999	14	[0, 0, 0]	n/a	FR1	1	R1281E
2876.245	0.0	2876344	COUNTDOWN_START	n/a	n/a	n/a	-999	14	[0, 0, 0]	n/a	FR1	1	R1281E
2876.245	10.429	2876344	WAITING_END	n/a	n/a	n/a	-999	14	[0, 0, 0]	n/a	FR1	1	R1281E
2886.674	0.001	2886773	COUNTDOWN_END	n/a	n/a	n/a	-999	14	[0, 0, 0]	n/a	FR1	1	R1281E
2886.675	1.039	2886774	ORIENT_START	n/a	n/a	n/a	-999	14	[0, 0, 0]	n/a	FR1	1	R1281E
2887.714	0.0	2887813	ORIENT_END	n/a	n/a	n/a	-999	14	[0, 0, 0]	n/a	FR1	1	R1281E
2887.714	0.915	2887813	ENCODING_START	n/a	n/a	n/a	-999	14	[0, 0, 0]	n/a	FR1	1	R1281E
2888.629	1.635	2888728	WORD	n/a	n/a	JAR	1	14	[0, 0, 0]	n/a	FR1	1	R1281E
2890.264	0.758	2890363	WORD_OFF	n/a	n/a	JAR	1	14	[0, 0, 0]	n/a	FR1	1	R1281E
2891.022	1.626	2891121	WORD	n/a	n/a	PIT	2	14	[0, 0, 0]	n/a	FR1	1	R1281E
2892.648	0.764	2892747	WORD_OFF	n/a	n/a	PIT	2	14	[0, 0, 0]	n/a	FR1	1	R1281E
2893.412	1.636	2893511	WORD	n/a	n/a	TENT	3	14	[0, 0, 0]	n/a	FR1	1	R1281E
2895.048	0.898	2895147	WORD_OFF	n/a	n/a	TENT	3	14	[0, 0, 0]	n/a	FR1	1	R1281E
2895.946	1.636	2896045	WORD	n/a	n/a	JAIL	4	14	[0, 0, 0]	n/a	FR1	1	R1281E
2897.582	0.848	2897681	WORD_OFF	n/a	n/a	JAIL	4	14	[0, 0, 0]	n/a	FR1	1	R1281E
2898.43	1.636	2898529	WORD	n/a	n/a	LAMB	5	14	[0, 0, 0]	n/a	FR1	1	R1281E
2900.066	0.927	2900164	WORD_OFF	n/a	n/a	LAMB	5	14	[0, 0, 0]	n/a	FR1	1	R1281E
2900.993	1.623	2901091	WORD	n/a	n/a	HILL	6	14	[0, 0, 0]	n/a	FR1	1	R1281E
2902.616	0.903	2902714	WORD_OFF	n/a	n/a	HILL	6	14	[0, 0, 0]	n/a	FR1	1	R1281E
2903.519	1.631	2903617	WORD	n/a	n/a	WAVE	7	14	[0, 0, 0]	n/a	FR1	1	R1281E
2905.15	1.048	2905248	WORD_OFF	n/a	n/a	WAVE	7	14	[0, 0, 0]	n/a	FR1	1	R1281E
2906.198	1.636	2906296	WORD	n/a	n/a	MAP	8	14	[0, 0, 0]	n/a	FR1	1	R1281E
2907.834	0.783	2907932	WORD_OFF	n/a	n/a	MAP	8	14	[0, 0, 0]	n/a	FR1	1	R1281E
2908.617	1.634	2908715	WORD	n/a	n/a	SHRIMP	9	14	[0, 0, 0]	n/a	FR1	1	R1281E
2910.251	1.091	2910349	WORD_OFF	n/a	n/a	SHRIMP	9	14	[0, 0, 0]	n/a	FR1	1	R1281E
2911.342	1.626	2911440	WORD	n/a	n/a	BAG	10	14	[0, 0, 0]	n/a	FR1	1	R1281E
2912.968	0.901	2913066	WORD_OFF	n/a	n/a	BAG	10	14	[0, 0, 0]	n/a	FR1	1	R1281E
2913.869	1.633	2913967	WORD	n/a	n/a	BOAT	11	14	[0, 0, 0]	n/a	FR1	1	R1281E
2915.502	0.977	2915600	WORD_OFF	n/a	n/a	BOAT	11	14	[0, 0, 0]	n/a	FR1	1	R1281E
2916.479	1.623	2916577	WORD	n/a	n/a	SUN	12	14	[0, 0, 0]	n/a	FR1	1	R1281E
2918.102	0.001	2918200	WORD_OFF	n/a	n/a	SUN	12	14	[0, 0, 0]	n/a	FR1	1	R1281E
2918.103	0.0	2918201	ENCODING_END	n/a	n/a	n/a	-999	14	[0, 0, 0]	n/a	FR1	1	R1281E
2918.103	0.0	2918201	DISTRACT_START	n/a	n/a	n/a	-999	14	[0, 0, 0]	n/a	FR1	1	R1281E
2918.103	0.016	2918201	START	n/a	n/a	n/a	-999	14	[-999, -999, -999]	n/a	FR1	1	R1281E
2918.119	4.017	2918217	PROB	4.017	n/a	n/a	-999	14	[2, 1, 3]	6	FR1	1	R1281E
2922.136	4.818	2922234	PROB	4.818	n/a	n/a	-999	14	[1, 3, 8]	12	FR1	1	R1281E
2926.954	4.383	2927051	PROB	4.383	n/a	n/a	-999	14	[8, 1, 3]	12	FR1	1	R1281E
2931.337	3.967	2931434	PROB	3.967	n/a	n/a	-999	14	[1, 9, 9]	19	FR1	1	R1281E
2935.304	4.514	2935401	PROB	4.514	n/a	n/a	-999	14	[3, 5, 9]	17	FR1	1	R1281E
2939.818	0.021	2939915	STOP	n/a	n/a	n/a	-999	14	[-999, -999, -999]	n/a	FR1	1	R1281E
2939.839	0.639	2939936	DISTRACT_END	n/a	n/a	n/a	-999	14	[0, 0, 0]	n/a	FR1	1	R1281E
2940.478	1.595	2940575	RETRIEVAL_ORIENT_START	n/a	n/a	n/a	-999	14	[0, 0, 0]	n/a	FR1	1	R1281E
2942.073	0.001	2942170	RETRIEVAL_ORIENT_END	n/a	n/a	n/a	-999	14	[0, 0, 0]	n/a	FR1	1	R1281E
2942.074	0.984	2942171	REC_START	n/a	n/a	n/a	-999	14	[0, 0, 0]	n/a	FR1	1	R1281E
2943.058	1.98	2943155	REC_WORD	1.98	n/a	LAMB	5	14	[0, 0, 0]	n/a	FR1	1	R1281E
2945.038	24.077	2945135	REC_WORD	24.077	n/a	JAIL	4	14	[0, 0, 0]	n/a	FR1	1	R1281E
2969.115	1.0	2969211	REC_WORD	1.0	n/a	DESK	-999	14	[0, 0, 0]	n/a	FR1	1	R1281E
2970.115	1.973	2970211	REC_WORD_VV	1.973	n/a	<>	-999	14	[0, 0, 0]	n/a	FR1	1	R1281E
2972.088	0.0	2972184	REC_END	n/a	n/a	n/a	-999	14	[0, 0, 0]	n/a	FR1	1	R1281E
2972.088	0.011	2972184	TRIAL_END	n/a	n/a	n/a	-999	14	[0, 0, 0]	n/a	FR1	1	R1281E
2972.099	0.0	2972195	TRIAL_START	n/a	n/a	n/a	-999	15	[0, 0, 0]	n/a	FR1	1	R1281E
2972.099	0.0	2972195	TRIAL	n/a	n/a	n/a	-999	15	[0, 0, 0]	n/a	FR1	1	R1281E
2972.099	6.597	2972195	WAITING_START	n/a	n/a	n/a	-999	15	[0, 0, 0]	n/a	FR1	1	R1281E
2978.696	0.001	2978791	WAITING_END	n/a	n/a	n/a	-999	15	[0, 0, 0]	n/a	FR1	1	R1281E
2978.697	10.429	2978792	COUNTDOWN_START	n/a	n/a	n/a	-999	15	[0, 0, 0]	n/a	FR1	1	R1281E
2989.126	0.0	2989221	ORIENT_START	n/a	n/a	n/a	-999	15	[0, 0, 0]	n/a	FR1	1	R1281E
2989.126	1.022	2989221	COUNTDOWN_END	n/a	n/a	n/a	-999	15	[0, 0, 0]	n/a	FR1	1	R1281E
2990.148	0.001	2990243	ORIENT_END	n/a	n/a	n/a	-999	15	[0, 0, 0]	n/a	FR1	1	R1281E
2990.149	1.104	2990244	ENCODING_START	n/a	n/a	n/a	-999	15	[0, 0, 0]	n/a	FR1	1	R1281E
2991.253	1.629	2991348	WORD	n/a	n/a	COW	1	15	[0, 0, 0]	n/a	FR1	1	R1281E
2992.882	0.956	2992977	WORD_OFF	n/a	n/a	COW	1	15	[0, 0, 0]	n/a	FR1	1	R1281E
2993.838	1.628	2993933	WORD	n/a	n/a	BLOOM	2	15	[0, 0, 0]	n/a	FR1	1	R1281E
2995.466	0.876	2995561	WORD_OFF	n/a	n/a	BLOOM	2	15	[0, 0, 0]	n/a	FR1	1	R1281E
2996.342	1.607	2996437	WORD	n/a	n/a	PEN	3	15	[0, 0, 0]	n/a	FR1	1	R1281E
2997.949	0.813	2998044	WORD_OFF	n/a	n/a	PEN	3	15	[0, 0, 0]	n/a	FR1	1	R1281E
2998.762	1.621	2998857	WORD	n/a	n/a	TRASH	4	15	[0, 0, 0]	n/a	FR1	1	R1281E
3000.383	1.144	3000478	WORD_OFF	n/a	n/a	TRASH	4	15	[0, 0, 0]	n/a	FR1	1	R1281E
3001.527	1.624	3001622	WORD	n/a	n/a	SHEET	5	15	[0, 0, 0]	n/a	FR1	1	R1281E
3003.151	1.051	3003245	WORD_OFF	n/a	n/a	SHEET	5	15	[0, 0, 0]	n/a	FR1	1	R1281E
3004.202	1.632	3004296	WORD	n/a	n/a	SHIELD	6	15	[0, 0, 0]	n/a	FR1	1	R1281E
3005.834	0.802	3005928	WORD_OFF	n/a	n/a	SHIELD	6	15	[0, 0, 0]	n/a	FR1	1	R1281E
3006.636	1.632	3006730	WORD	n/a	n/a	GLOVE	7	15	[0, 0, 0]	n/a	FR1	1	R1281E
3008.268	0.76	3008362	WORD_OFF	n/a	n/a	GLOVE	7	15	[0, 0, 0]	n/a	FR1	1	R1281E
3009.028	1.624	3009122	WORD	n/a	n/a	FARM	8	15	[0, 0, 0]	n/a	FR1	1	R1281E
3010.652	0.961	3010746	WORD_OFF	n/a	n/a	FARM	8	15	[0, 0, 0]	n/a	FR1	1	R1281E
3011.613	1.623	3011707	WORD	n/a	n/a	CANE	9	15	[0, 0, 0]	n/a	FR1	1	R1281E
3013.236	0.908	3013330	WORD_OFF	n/a	n/a	CANE	9	15	[0, 0, 0]	n/a	FR1	1	R1281E
3014.144	1.625	3014238	WORD	n/a	n/a	SHIRT	10	15	[0, 0, 0]	n/a	FR1	1	R1281E
3015.769	1.144	3015863	WORD_OFF	n/a	n/a	SHIRT	10	15	[0, 0, 0]	n/a	FR1	1	R1281E
3016.913	1.624	3017007	WORD	n/a	n/a	ICE	11	15	[0, 0, 0]	n/a	FR1	1	R1281E
3018.537	0.771	3018631	WORD_OFF	n/a	n/a	ICE	11	15	[0, 0, 0]	n/a	FR1	1	R1281E
3019.308	1.629	3019402	WORD	n/a	n/a	BALL	12	15	[0, 0, 0]	n/a	FR1	1	R1281E
3020.937	0.0	3021031	ENCODING_END	n/a	n/a	n/a	-999	15	[0, 0, 0]	n/a	FR1	1	R1281E
3020.937	0.001	3021031	WORD_OFF	n/a	n/a	BALL	12	15	[0, 0, 0]	n/a	FR1	1	R1281E
3020.938	0.0	3021032	DISTRACT_START	n/a	n/a	n/a	-999	15	[0, 0, 0]	n/a	FR1	1	R1281E
3020.938	0.015	3021032	START	n/a	n/a	n/a	-999	15	[-999, -999, -999]	n/a	FR1	1	R1281E
3020.953	6.535	3021047	PROB	6.535	n/a	n/a	-999	15	[6, 8, 3]	17	FR1	1	R1281E
3027.488	3.084	3027581	PROB	3.084	n/a	n/a	-999	15	[9, 1, 6]	16	FR1	1	R1281E
3030.572	4.334	3030665	PROB	4.334	n/a	n/a	-999	15	[3, 2, 4]	9	FR1	1	R1281E
3034.906	4.334	3034999	PROB	4.334	n/a	n/a	-999	15	[7, 4, 6]	17	FR1	1	R1281E
3039.24	3.422	3039333	PROB	3.422	n/a	n/a	-999	15	[1, 6, 8]	16	FR1	1	R1281E
3042.662	0.012	3042755	STOP	n/a	n/a	n/a	-999	15	[-999, -999, -999]	n/a	FR1	1	R1281E
3042.674	0.59	3042767	DISTRACT_END	n/a	n/a	n/a	-999	15	[0, 0, 0]	n/a	FR1	1	R1281E
3043.264	1.577	3043357	RETRIEVAL_ORIENT_START	n/a	n/a	n/a	-999	15	[0, 0, 0]	n/a	FR1	1	R1281E
3044.841	0.0	3044934	RETRIEVAL_ORIENT_END	n/a	n/a	n/a	-999	15	[0, 0, 0]	n/a	FR1	1	R1281E
3044.841	3.874	3044934	REC_START	n/a	n/a	n/a	-999	15	[0, 0, 0]	n/a	FR1	1	R1281E
3048.715	12.766	3048808	REC_WORD	12.766	n/a	COW	1	15	[0, 0, 0]	n/a	FR1	1	R1281E
3061.481	13.373	3061573	REC_WORD	13.373	n/a	LEAF	-999	15	[0, 0, 0]	n/a	FR1	1	R1281E
3074.854	0.0	3074946	TRIAL_END	n/a	n/a	n/a	-999	15	[0, 0, 0]	n/a	FR1	1	R1281E
3074.854	0.01	3074946	REC_END	n/a	n/a	n/a	-999	15	[0, 0, 0]	n/a	FR1	1	R1281E
3074.864	0.0	3074956	TRIAL_START	n/a	n/a	n/a	-999	16	[0, 0, 0]	n/a	FR1	1	R1281E
3074.864	0.0	3074956	TRIAL	n/a	n/a	n/a	-999	16	[0, 0, 0]	n/a	FR1	1	R1281E
3074.864	6.284	3074956	WAITING_START	n/a	n/a	n/a	-999	16	[0, 0, 0]	n/a	FR1	1	R1281E
3081.148	0.0	3081239	WAITING_END	n/a	n/a	n/a	-999	16	[0, 0, 0]	n/a	FR1	1	R1281E
3081.148	10.428	3081239	COUNTDOWN_START	n/a	n/a	n/a	-999	16	[0, 0, 0]	n/a	FR1	1	R1281E
3091.576	0.001	3091667	COUNTDOWN_END	n/a	n/a	n/a	-999	16	[0, 0, 0]	n/a	FR1	1	R1281E
3091.577	1.206	3091668	ORIENT_START	n/a	n/a	n/a	-999	16	[0, 0, 0]	n/a	FR1	1	R1281E
3092.783	0.0	3092874	ENCODING_START	n/a	n/a	n/a	-999	16	[0, 0, 0]	n/a	FR1	1	R1281E
3092.783	1.151	3092874	ORIENT_END	n/a	n/a	n/a	-999	16	[0, 0, 0]	n/a	FR1	1	R1281E
3093.934	1.633	3094025	WORD	n/a	n/a	WHEEL	1	16	[0, 0, 0]	n/a	FR1	1	R1281E
3095.567	0.924	3095658	WORD_OFF	n/a	n/a	WHEEL	1	16	[0, 0, 0]	n/a	FR1	1	R1281E
3096.491	1.626	3096582	WORD	n/a	n/a	SEED	2	16	[0, 0, 0]	n/a	FR1	1	R1281E
3098.117	1.119	3098208	WORD_OFF	n/a	n/a	SEED	2	16	[0, 0, 0]	n/a	FR1	1	R1281E
3099.236	1.632	3099327	WORD	n/a	n/a	FLUTE	3	16	[0, 0, 0]	n/a	FR1	1	R1281E
3100.868	1.015	3100959	WORD_OFF	n/a	n/a	FLUTE	3	16	[0, 0, 0]	n/a	FR1	1	R1281E
3101.883	1.635	3101974	WORD	n/a	n/a	CAVE	4	16	[0, 0, 0]	n/a	FR1	1	R1281E
3103.518	0.904	3103609	WORD_OFF	n/a	n/a	CAVE	4	16	[0, 0, 0]	n/a	FR1	1	R1281E
3104.422	1.63	3104513	WORD	n/a	n/a	INK	5	16	[0, 0, 0]	n/a	FR1	1	R1281E
3106.052	0.925	3106142	WORD_OFF	n/a	n/a	INK	5	16	[0, 0, 0]	n/a	FR1	1	R1281E
3106.977	1.625	3107067	WORD	n/a	n/a	POND	6	16	[0, 0, 0]	n/a	FR1	1	R1281E
3108.602	0.846	3108692	WORD_OFF	n/a	n/a	POND	6	16	[0, 0, 0]	n/a	FR1	1	R1281E
3109.448	1.622	3109538	WORD	n/a	n/a	SPONGE	7	16	[0, 0, 0]	n/a	FR1	1	R1281E
3111.07	1.02	3111160	WORD_OFF	n/a	n/a	SPONGE	7	16	[0, 0, 0]	n/a	FR1	1	R1281E
3112.09	1.63	3112180	WORD	n/a	n/a	WEED	8	16	[0, 0, 0]	n/a	FR1	1	R1281E
3113.72	0.878	3113810	WORD_OFF	n/a	n/a	WEED	8	16	[0, 0, 0]	n/a	FR1	1	R1281E
3114.598	1.623	3114688	WORD	n/a	n/a	PRINCE	9	16	[0, 0, 0]	n/a	FR1	1	R1281E
3116.221	0.85	3116311	WORD_OFF	n/a	n/a	PRINCE	9	16	[0, 0, 0]	n/a	FR1	1	R1281E
3117.071	1.633	3117161	WORD	n/a	n/a	HOLE	10	16	[0, 0, 0]	n/a	FR1	1	R1281E
3118.704	0.882	3118794	WORD_OFF	n/a	n/a	HOLE	10	16	[0, 0, 0]	n/a	FR1	1	R1281E
3119.586	1.635	3119676	WORD	n/a	n/a	BOY	11	16	[0, 0, 0]	n/a	FR1	1	R1281E
3121.221	0.806	3121311	WORD_OFF	n/a	n/a	BOY	11	16	[0, 0, 0]	n/a	FR1	1	R1281E
3122.027	1.628	3122117	WORD	n/a	n/a	STORE	12	16	[0, 0, 0]	n/a	FR1	1	R1281E
3123.655	0.001	3123745	WORD_OFF	n/a	n/a	STORE	12	16	[0, 0, 0]	n/a	FR1	1	R1281E
3123.656	0.0	3123746	ENCODING_END	n/a	n/a	n/a	-999	16	[0, 0, 0]	n/a	FR1	1	R1281E
3123.656	0.0	3123746	DISTRACT_START	n/a	n/a	n/a	-999	16	[0, 0, 0]	n/a	FR1	1	R1281E
3123.656	0.016	3123746	START	n/a	n/a	n/a	-999	16	[-999, -999, -999]	n/a	FR1	1	R1281E
3123.672	4.4	3123762	PROB	4.4	n/a	n/a	-999	16	[8, 6, 8]	22	FR1	1	R1281E
3128.072	3.934	3128162	PROB	3.934	n/a	n/a	-999	16	[7, 3, 7]	17	FR1	1	R1281E
3132.006	6.168	3132095	PROB	6.168	n/a	n/a	-999	16	[2, 5, 5]	12	FR1	1	R1281E
3138.174	4.301	3138263	PROB	4.301	n/a	n/a	-999	16	[8, 9, 5]	22	FR1	1	R1281E
3142.475	3.955	3142564	PROB	3.955	n/a	n/a	-999	16	[8, 6, 2]	16	FR1	1	R1281E
3146.43	0.012	3146519	STOP	n/a	n/a	n/a	-999	16	[-999, -999, -999]	n/a	FR1	1	R1281E
3146.442	0.578	3146531	DISTRACT_END	n/a	n/a	n/a	-999	16	[0, 0, 0]	n/a	FR1	1	R1281E
3147.02	1.639	3147109	RETRIEVAL_ORIENT_START	n/a	n/a	n/a	-999	16	[0, 0, 0]	n/a	FR1	1	R1281E
3148.659	0.001	3148748	RETRIEVAL_ORIENT_END	n/a	n/a	n/a	-999	16	[0, 0, 0]	n/a	FR1	1	R1281E
3148.66	0.904	3148749	REC_START	n/a	n/a	n/a	-999	16	[0, 0, 0]	n/a	FR1	1	R1281E
3149.564	29.108	3149653	REC_WORD	29.108	n/a	HOUSE	-999	16	[0, 0, 0]	n/a	FR1	1	R1281E
3178.672	0.0	3178760	REC_END	n/a	n/a	n/a	-999	16	[0, 0, 0]	n/a	FR1	1	R1281E
3178.672	0.01	3178760	TRIAL_END	n/a	n/a	n/a	-999	16	[0, 0, 0]	n/a	FR1	1	R1281E
3178.682	0.0	3178770	TRIAL	n/a	n/a	n/a	-999	17	[0, 0, 0]	n/a	FR1	1	R1281E
3178.682	0.0	3178770	WAITING_START	n/a	n/a	n/a	-999	17	[0, 0, 0]	n/a	FR1	1	R1281E
3178.682	22.904	3178770	TRIAL_START	n/a	n/a	n/a	-999	17	[0, 0, 0]	n/a	FR1	1	R1281E
3201.586	0.0	3201673	WAITING_END	n/a	n/a	n/a	-999	17	[0, 0, 0]	n/a	FR1	1	R1281E
3201.586	10.428	3201673	COUNTDOWN_START	n/a	n/a	n/a	-999	17	[0, 0, 0]	n/a	FR1	1	R1281E
3212.014	0.0	3212100	COUNTDOWN_END	n/a	n/a	n/a	-999	17	[0, 0, 0]	n/a	FR1	1	R1281E
3212.014	1.174	3212100	ORIENT_START	n/a	n/a	n/a	-999	17	[0, 0, 0]	n/a	FR1	1	R1281E
3213.188	0.0	3213274	ORIENT_END	n/a	n/a	n/a	-999	17	[0, 0, 0]	n/a	FR1	1	R1281E
3213.188	0.751	3213274	ENCODING_START	n/a	n/a	n/a	-999	17	[0, 0, 0]	n/a	FR1	1	R1281E
3213.939	1.632	3214025	WORD	n/a	n/a	BREAD	1	17	[0, 0, 0]	n/a	FR1	1	R1281E
3215.571	1.15	3215657	WORD_OFF	n/a	n/a	BREAD	1	17	[0, 0, 0]	n/a	FR1	1	R1281E
3216.721	1.633	3216807	WORD	n/a	n/a	BOOK	2	17	[0, 0, 0]	n/a	FR1	1	R1281E
3218.354	0.773	3218440	WORD_OFF	n/a	n/a	BOOK	2	17	[0, 0, 0]	n/a	FR1	1	R1281E
3219.127	1.629	3219213	WORD	n/a	n/a	RIB	3	17	[0, 0, 0]	n/a	FR1	1	R1281E
3220.756	1.013	3220842	WORD_OFF	n/a	n/a	RIB	3	17	[0, 0, 0]	n/a	FR1	1	R1281E
3221.769	1.62	3221855	WORD	n/a	n/a	EEL	4	17	[0, 0, 0]	n/a	FR1	1	R1281E
3223.389	1.093	3223475	WORD_OFF	n/a	n/a	EEL	4	17	[0, 0, 0]	n/a	FR1	1	R1281E
3224.482	1.624	3224568	WORD	n/a	n/a	MUG	5	17	[0, 0, 0]	n/a	FR1	1	R1281E
3226.106	0.995	3226192	WORD_OFF	n/a	n/a	MUG	5	17	[0, 0, 0]	n/a	FR1	1	R1281E
3227.101	1.623	3227187	WORD	n/a	n/a	TOE	6	17	[0, 0, 0]	n/a	FR1	1	R1281E
3228.724	0.95	3228810	WORD_OFF	n/a	n/a	TOE	6	17	[0, 0, 0]	n/a	FR1	1	R1281E
3229.674	1.633	3229760	WORD	n/a	n/a	BOWL	7	17	[0, 0, 0]	n/a	FR1	1	R1281E
3231.307	0.975	3231393	WORD_OFF	n/a	n/a	BOWL	7	17	[0, 0, 0]	n/a	FR1	1	R1281E
3232.282	1.626	3232368	WORD	n/a	n/a	ELF	8	17	[0, 0, 0]	n/a	FR1	1	R1281E
3233.908	1.038	3233993	WORD_OFF	n/a	n/a	ELF	8	17	[0, 0, 0]	n/a	FR1	1	R1281E
3234.946	1.629	3235031	WORD	n/a	n/a	BARN	9	17	[0, 0, 0]	n/a	FR1	1	R1281E
3236.575	0.887	3236660	WORD_OFF	n/a	n/a	BARN	9	17	[0, 0, 0]	n/a	FR1	1	R1281E
3237.462	1.63	3237547	WORD	n/a	n/a	CUBE	10	17	[0, 0, 0]	n/a	FR1	1	R1281E
3239.092	0.882	3239177	WORD_OFF	n/a	n/a	CUBE	10	17	[0, 0, 0]	n/a	FR1	1	R1281E
3239.974	1.635	3240059	WORD	n/a	n/a	CAR	11	17	[0, 0, 0]	n/a	FR1	1	R1281E
3241.609	0.832	3241694	WORD_OFF	n/a	n/a	CAR	11	17	[0, 0, 0]	n/a	FR1	1	R1281E
3242.441	1.635	3242526	WORD	n/a	n/a	BRIDGE	12	17	[0, 0, 0]	n/a	FR1	1	R1281E
3244.076	0.001	3244161	WORD_OFF	n/a	n/a	BRIDGE	12	17	[0, 0, 0]	n/a	FR1	1	R1281E
3244.077	0.0	3244162	ENCODING_END	n/a	n/a	n/a	-999	17	[0, 0, 0]	n/a	FR1	1	R1281E
3244.077	0.0	3244162	DISTRACT_START	n/a	n/a	n/a	-999	17	[0, 0, 0]	n/a	FR1	1	R1281E
3244.077	0.016	3244162	START	n/a	n/a	n/a	-999	17	[-999, -999, -999]	n/a	FR1	1	R1281E
3244.093	4.951	3244178	PROB	4.951	n/a	n/a	-999	17	[5, 5, 4]	14	FR1	1	R1281E
3249.044	4.184	3249129	PROB	4.184	n/a	n/a	-999	17	[8, 4, 5]	17	FR1	1	R1281E
3253.228	5.617	3253313	PROB	5.617	n/a	n/a	-999	17	[5, 9, 8]	22	FR1	1	R1281E
3258.845	2.851	3258929	PROB	2.851	n/a	n/a	-999	17	[4, 1, 6]	11	FR1	1	R1281E
3261.696	3.134	3261780	PROB	3.134	n/a	n/a	-999	17	[1, 2, 9]	12	FR1	1	R1281E
3264.83	0.017	3264914	STOP	n/a	n/a	n/a	-999	17	[-999, -999, -999]	n/a	FR1	1	R1281E
3264.847	0.644	3264931	DISTRACT_END	n/a	n/a	n/a	-999	17	[0, 0, 0]	n/a	FR1	1	R1281E
3265.491	1.623	3265575	RETRIEVAL_ORIENT_START	n/a	n/a	n/a	-999	17	[0, 0, 0]	n/a	FR1	1	R1281E
3267.114	0.0	3267198	RETRIEVAL_ORIENT_END	n/a	n/a	n/a	-999	17	[0, 0, 0]	n/a	FR1	1	R1281E
3267.114	1.009	3267198	REC_START	n/a	n/a	n/a	-999	17	[0, 0, 0]	n/a	FR1	1	R1281E
3268.123	4.65	3268207	REC_WORD	4.65	n/a	CUBE	10	17	[0, 0, 0]	n/a	FR1	1	R1281E
3272.773	7.416	3272857	REC_WORD	7.416	n/a	CANE	-999	17	[0, 0, 0]	n/a	FR1	1	R1281E
3280.189	9.472	3280273	REC_WORD	9.472	n/a	EEL	4	17	[0, 0, 0]	n/a	FR1	1	R1281E
3289.661	7.467	3289744	REC_WORD	7.467	n/a	BARN	9	17	[0, 0, 0]	n/a	FR1	1	R1281E
3297.128	0.0	3297211	REC_END	n/a	n/a	n/a	-999	17	[0, 0, 0]	n/a	FR1	1	R1281E
3297.128	0.011	3297211	TRIAL_END	n/a	n/a	n/a	-999	17	[0, 0, 0]	n/a	FR1	1	R1281E
3297.139	0.0	3297222	TRIAL_START	n/a	n/a	n/a	-999	18	[0, 0, 0]	n/a	FR1	1	R1281E
3297.139	0.0	3297222	TRIAL	n/a	n/a	n/a	-999	18	[0, 0, 0]	n/a	FR1	1	R1281E
3297.139	6.231	3297222	WAITING_START	n/a	n/a	n/a	-999	18	[0, 0, 0]	n/a	FR1	1	R1281E
3303.37	0.0	3303453	COUNTDOWN_START	n/a	n/a	n/a	-999	18	[0, 0, 0]	n/a	FR1	1	R1281E
3303.37	10.429	3303453	WAITING_END	n/a	n/a	n/a	-999	18	[0, 0, 0]	n/a	FR1	1	R1281E
3313.799	0.0	3313881	COUNTDOWN_END	n/a	n/a	n/a	-999	18	[0, 0, 0]	n/a	FR1	1	R1281E
3313.799	1.107	3313881	ORIENT_START	n/a	n/a	n/a	-999	18	[0, 0, 0]	n/a	FR1	1	R1281E
3314.906	0.0	3314988	ORIENT_END	n/a	n/a	n/a	-999	18	[0, 0, 0]	n/a	FR1	1	R1281E
3314.906	0.861	3314988	ENCODING_START	n/a	n/a	n/a	-999	18	[0, 0, 0]	n/a	FR1	1	R1281E
3315.767	1.622	3315849	WORD	n/a	n/a	HOOK	1	18	[0, 0, 0]	n/a	FR1	1	R1281E
3317.389	0.973	3317471	WORD_OFF	n/a	n/a	HOOK	1	18	[0, 0, 0]	n/a	FR1	1	R1281E
3318.362	1.627	3318444	WORD	n/a	n/a	CHIEF	2	18	[0, 0, 0]	n/a	FR1	1	R1281E
3319.989	0.785	3320071	WORD_OFF	n/a	n/a	CHIEF	2	18	[0, 0, 0]	n/a	FR1	1	R1281E
3320.774	1.633	3320856	WORD	n/a	n/a	MOUSE	3	18	[0, 0, 0]	n/a	FR1	1	R1281E
3322.407	1.022	3322489	WORD_OFF	n/a	n/a	MOUSE	3	18	[0, 0, 0]	n/a	FR1	1	R1281E
3323.429	1.628	3323511	WORD	n/a	n/a	GRASS	4	18	[0, 0, 0]	n/a	FR1	1	R1281E
3325.057	0.82	3325139	WORD_OFF	n/a	n/a	GRASS	4	18	[0, 0, 0]	n/a	FR1	1	R1281E
3325.877	1.631	3325959	WORD	n/a	n/a	MILK	5	18	[0, 0, 0]	n/a	FR1	1	R1281E
3327.508	1.065	3327590	WORD_OFF	n/a	n/a	MILK	5	18	[0, 0, 0]	n/a	FR1	1	R1281E
3328.573	1.635	3328655	WORD	n/a	n/a	BRANCH	6	18	[0, 0, 0]	n/a	FR1	1	R1281E
3330.208	1.031	3330290	WORD_OFF	n/a	n/a	BRANCH	6	18	[0, 0, 0]	n/a	FR1	1	R1281E
3331.239	1.636	3331321	WORD	n/a	n/a	SKI	7	18	[0, 0, 0]	n/a	FR1	1	R1281E
3332.875	1.127	3332957	WORD_OFF	n/a	n/a	SKI	7	18	[0, 0, 0]	n/a	FR1	1	R1281E
3334.002	1.624	3334084	WORD	n/a	n/a	PURSE	8	18	[0, 0, 0]	n/a	FR1	1	R1281E
3335.626	1.02	3335708	WORD_OFF	n/a	n/a	PURSE	8	18	[0, 0, 0]	n/a	FR1	1	R1281E
3336.646	1.629	3336727	WORD	n/a	n/a	DUCK	9	18	[0, 0, 0]	n/a	FR1	1	R1281E
3338.275	1.075	3338356	WORD_OFF	n/a	n/a	DUCK	9	18	[0, 0, 0]	n/a	FR1	1	R1281E
3339.35	1.627	3339431	WORD	n/a	n/a	FENCE	10	18	[0, 0, 0]	n/a	FR1	1	R1281E
3340.977	1.132	3341058	WORD_OFF	n/a	n/a	FENCE	10	18	[0, 0, 0]	n/a	FR1	1	R1281E
3342.109	1.635	3342190	WORD	n/a	n/a	SALT	11	18	[0, 0, 0]	n/a	FR1	1	R1281E
3343.744	0.933	3343825	WORD_OFF	n/a	n/a	SALT	11	18	[0, 0, 0]	n/a	FR1	1	R1281E
3344.677	1.633	3344758	WORD	n/a	n/a	CORD	12	18	[0, 0, 0]	n/a	FR1	1	R1281E
3346.31	0.0	3346391	WORD_OFF	n/a	n/a	CORD	12	18	[0, 0, 0]	n/a	FR1	1	R1281E
3346.31	0.001	3346391	ENCODING_END	n/a	n/a	n/a	-999	18	[0, 0, 0]	n/a	FR1	1	R1281E
3346.311	0.0	3346392	DISTRACT_START	n/a	n/a	n/a	-999	18	[0, 0, 0]	n/a	FR1	1	R1281E
3346.311	0.015	3346392	START	n/a	n/a	n/a	-999	18	[-999, -999, -999]	n/a	FR1	1	R1281E
3346.326	4.236	3346407	PROB	4.236	n/a	n/a	-999	18	[1, 3, 9]	13	FR1	1	R1281E
3350.562	4.567	3350643	PROB	4.567	n/a	n/a	-999	18	[1, 8, 6]	15	FR1	1	R1281E
3355.129	4.968	3355210	PROB	4.968	n/a	n/a	-999	18	[4, 8, 2]	14	FR1	1	R1281E
3360.097	3.483	3360178	PROB	3.483	n/a	n/a	-999	18	[5, 1, 2]	8	FR1	1	R1281E
3363.58	3.972	3363660	PROB	3.972	n/a	n/a	-999	18	[5, 7, 7]	19	FR1	1	R1281E
3367.552	0.013	3367632	STOP	n/a	n/a	n/a	-999	18	[-999, -999, -999]	n/a	FR1	1	R1281E
3367.565	0.675	3367645	DISTRACT_END	n/a	n/a	n/a	-999	18	[0, 0, 0]	n/a	FR1	1	R1281E
3368.24	1.592	3368320	RETRIEVAL_ORIENT_START	n/a	n/a	n/a	-999	18	[0, 0, 0]	n/a	FR1	1	R1281E
3369.832	0.0	3369912	RETRIEVAL_ORIENT_END	n/a	n/a	n/a	-999	18	[0, 0, 0]	n/a	FR1	1	R1281E
3369.832	7.609	3369912	REC_START	n/a	n/a	n/a	-999	18	[0, 0, 0]	n/a	FR1	1	R1281E
3377.441	20.199	3377521	REC_WORD	20.199	n/a	CAR	-999	18	[0, 0, 0]	n/a	FR1	1	R1281E
3397.64	2.205	3397719	REC_WORD	2.205	n/a	INK	-999	18	[0, 0, 0]	n/a	FR1	1	R1281E
3399.845	0.0	3399924	REC_END	n/a	n/a	n/a	-999	18	[0, 0, 0]	n/a	FR1	1	R1281E
3399.845	0.01	3399924	TRIAL_END	n/a	n/a	n/a	-999	18	[0, 0, 0]	n/a	FR1	1	R1281E
3399.855	0.0	3399934	TRIAL_START	n/a	n/a	n/a	-999	19	[0, 0, 0]	n/a	FR1	1	R1281E
3399.855	0.0	3399934	TRIAL	n/a	n/a	n/a	-999	19	[0, 0, 0]	n/a	FR1	1	R1281E
3399.855	17.019	3399934	WAITING_START	n/a	n/a	n/a	-999	19	[0, 0, 0]	n/a	FR1	1	R1281E
3416.874	0.0	3416952	WAITING_END	n/a	n/a	n/a	-999	19	[0, 0, 0]	n/a	FR1	1	R1281E
3416.874	10.429	3416952	COUNTDOWN_START	n/a	n/a	n/a	-999	19	[0, 0, 0]	n/a	FR1	1	R1281E
3427.303	0.0	3427381	ORIENT_START	n/a	n/a	n/a	-999	19	[0, 0, 0]	n/a	FR1	1	R1281E
3427.303	1.106	3427381	COUNTDOWN_END	n/a	n/a	n/a	-999	19	[0, 0, 0]	n/a	FR1	1	R1281E
3428.409	0.0	3428487	ORIENT_END	n/a	n/a	n/a	-999	19	[0, 0, 0]	n/a	FR1	1	R1281E
3428.409	1.113	3428487	ENCODING_START	n/a	n/a	n/a	-999	19	[0, 0, 0]	n/a	FR1	1	R1281E
3429.522	1.637	3429600	WORD	n/a	n/a	TRAIN	1	19	[0, 0, 0]	n/a	FR1	1	R1281E
3431.159	0.802	3431237	WORD_OFF	n/a	n/a	TRAIN	1	19	[0, 0, 0]	n/a	FR1	1	R1281E
3431.961	1.632	3432039	WORD	n/a	n/a	APE	2	19	[0, 0, 0]	n/a	FR1	1	R1281E
3433.593	0.849	3433671	WORD_OFF	n/a	n/a	APE	2	19	[0, 0, 0]	n/a	FR1	1	R1281E
3434.442	1.635	3434520	WORD	n/a	n/a	DEER	3	19	[0, 0, 0]	n/a	FR1	1	R1281E
3436.077	0.814	3436155	WORD_OFF	n/a	n/a	DEER	3	19	[0, 0, 0]	n/a	FR1	1	R1281E
3436.891	1.636	3436969	WORD	n/a	n/a	CASH	4	19	[0, 0, 0]	n/a	FR1	1	R1281E
3438.527	0.752	3438605	WORD_OFF	n/a	n/a	CASH	4	19	[0, 0, 0]	n/a	FR1	1	R1281E
3439.279	1.632	3439356	WORD	n/a	n/a	STORM	5	19	[0, 0, 0]	n/a	FR1	1	R1281E
3440.911	0.956	3440988	WORD_OFF	n/a	n/a	STORM	5	19	[0, 0, 0]	n/a	FR1	1	R1281E
3441.867	1.628	3441944	WORD	n/a	n/a	JEEP	6	19	[0, 0, 0]	n/a	FR1	1	R1281E
3443.495	1.037	3443572	WORD_OFF	n/a	n/a	JEEP	6	19	[0, 0, 0]	n/a	FR1	1	R1281E
3444.532	1.63	3444609	WORD	n/a	n/a	SKUNK	7	19	[0, 0, 0]	n/a	FR1	1	R1281E
3446.162	0.828	3446239	WORD_OFF	n/a	n/a	SKUNK	7	19	[0, 0, 0]	n/a	FR1	1	R1281E
3446.99	1.623	3447067	WORD	n/a	n/a	OAR	8	19	[0, 0, 0]	n/a	FR1	1	R1281E
3448.613	1.112	3448690	WORD_OFF	n/a	n/a	OAR	8	19	[0, 0, 0]	n/a	FR1	1	R1281E
3449.725	1.62	3449802	WORD	n/a	n/a	SKY	9	19	[0, 0, 0]	n/a	FR1	1	R1281E
3451.345	0.847	3451422	WORD_OFF	n/a	n/a	SKY	9	19	[0, 0, 0]	n/a	FR1	1	R1281E
3452.192	1.621	3452269	WORD	n/a	n/a	GRAPE	10	19	[0, 0, 0]	n/a	FR1	1	R1281E
3453.813	0.892	3453890	WORD_OFF	n/a	n/a	GRAPE	10	19	[0, 0, 0]	n/a	FR1	1	R1281E
3454.705	1.624	3454782	WORD	n/a	n/a	HORN	11	19	[0, 0, 0]	n/a	FR1	1	R1281E
3456.329	0.933	3456406	WORD_OFF	n/a	n/a	HORN	11	19	[0, 0, 0]	n/a	FR1	1	R1281E
3457.262	1.619	3457339	WORD	n/a	n/a	LAWN	12	19	[0, 0, 0]	n/a	FR1	1	R1281E
3458.881	0.0	3458958	DISTRACT_START	n/a	n/a	n/a	-999	19	[0, 0, 0]	n/a	FR1	1	R1281E
3458.881	0.0	3458958	ENCODING_END	n/a	n/a	n/a	-999	19	[0, 0, 0]	n/a	FR1	1	R1281E
3458.881	0.0	3458958	WORD_OFF	n/a	n/a	LAWN	12	19	[0, 0, 0]	n/a	FR1	1	R1281E
3458.881	0.016	3458958	START	n/a	n/a	n/a	-999	19	[-999, -999, -999]	n/a	FR1	1	R1281E
3458.897	5.035	3458974	PROB	5.035	n/a	n/a	-999	19	[4, 3, 7]	14	FR1	1	R1281E
3463.932	5.084	3464009	PROB	5.084	n/a	n/a	-999	19	[1, 5, 8]	14	FR1	1	R1281E
3469.016	4.384	3469092	PROB	4.384	n/a	n/a	-999	19	[8, 3, 8]	20	FR1	1	R1281E
3473.4	7.297	3473476	PROB	7.297	n/a	n/a	-999	19	[7, 5, 1]	13	FR1	1	R1281E
3480.697	0.021	3480773	STOP	n/a	n/a	n/a	-999	19	[-999, -999, -999]	n/a	FR1	1	R1281E
3480.718	0.605	3480794	DISTRACT_END	n/a	n/a	n/a	-999	19	[0, 0, 0]	n/a	FR1	1	R1281E
3481.323	1.545	3481399	RETRIEVAL_ORIENT_START	n/a	n/a	n/a	-999	19	[0, 0, 0]	n/a	FR1	1	R1281E
3482.868	0.001	3482944	RETRIEVAL_ORIENT_END	n/a	n/a	n/a	-999	19	[0, 0, 0]	n/a	FR1	1	R1281E
3482.869	5.114	3482945	REC_START	n/a	n/a	n/a	-999	19	[0, 0, 0]	n/a	FR1	1	R1281E
3487.983	7.474	3488059	REC_WORD	7.474	n/a	OAR	8	19	[0, 0, 0]	n/a	FR1	1	R1281E
3495.457	17.423	3495532	REC_WORD	17.423	n/a	SKY	9	19	[0, 0, 0]	n/a	FR1	1	R1281E
3512.88	0.0	3512955	TRIAL_END	n/a	n/a	n/a	-999	19	[0, 0, 0]	n/a	FR1	1	R1281E
3512.88	0.01	3512955	REC_END	n/a	n/a	n/a	-999	19	[0, 0, 0]	n/a	FR1	1	R1281E
3512.89	0.0	3512965	TRIAL_START	n/a	n/a	n/a	-999	20	[0, 0, 0]	n/a	FR1	1	R1281E
3512.89	0.001	3512965	TRIAL	n/a	n/a	n/a	-999	20	[0, 0, 0]	n/a	FR1	1	R1281E
3512.891	11.185	3512966	WAITING_START	n/a	n/a	n/a	-999	20	[0, 0, 0]	n/a	FR1	1	R1281E
3524.076	0.0	3524150	WAITING_END	n/a	n/a	n/a	-999	20	[0, 0, 0]	n/a	FR1	1	R1281E
3524.076	10.429	3524150	COUNTDOWN_START	n/a	n/a	n/a	-999	20	[0, 0, 0]	n/a	FR1	1	R1281E
3534.505	0.0	3534579	ORIENT_START	n/a	n/a	n/a	-999	20	[0, 0, 0]	n/a	FR1	1	R1281E
3534.505	1.139	3534579	COUNTDOWN_END	n/a	n/a	n/a	-999	20	[0, 0, 0]	n/a	FR1	1	R1281E
3535.644	0.001	3535718	ORIENT_END	n/a	n/a	n/a	-999	20	[0, 0, 0]	n/a	FR1	1	R1281E
3535.645	1.043	3535719	ENCODING_START	n/a	n/a	n/a	-999	20	[0, 0, 0]	n/a	FR1	1	R1281E
3536.688	1.623	3536762	WORD	n/a	n/a	TEA	1	20	[0, 0, 0]	n/a	FR1	1	R1281E
3538.311	0.946	3538385	WORD_OFF	n/a	n/a	TEA	1	20	[0, 0, 0]	n/a	FR1	1	R1281E
3539.257	1.622	3539331	WORD	n/a	n/a	ROPE	2	20	[0, 0, 0]	n/a	FR1	1	R1281E
3540.879	0.856	3540953	WORD_OFF	n/a	n/a	ROPE	2	20	[0, 0, 0]	n/a	FR1	1	R1281E
3541.735	1.626	3541808	WORD	n/a	n/a	SOAP	3	20	[0, 0, 0]	n/a	FR1	1	R1281E
3543.361	0.75	3543434	WORD_OFF	n/a	n/a	SOAP	3	20	[0, 0, 0]	n/a	FR1	1	R1281E
3544.111	1.635	3544184	WORD	n/a	n/a	ARK	4	20	[0, 0, 0]	n/a	FR1	1	R1281E
3545.746	0.862	3545819	WORD_OFF	n/a	n/a	ARK	4	20	[0, 0, 0]	n/a	FR1	1	R1281E
3546.608	1.622	3546681	WORD	n/a	n/a	WOOD	5	20	[0, 0, 0]	n/a	FR1	1	R1281E
3548.23	1.012	3548303	WORD_OFF	n/a	n/a	WOOD	5	20	[0, 0, 0]	n/a	FR1	1	R1281E
3549.242	1.622	3549315	WORD	n/a	n/a	WING	6	20	[0, 0, 0]	n/a	FR1	1	R1281E
3550.864	0.888	3550937	WORD_OFF	n/a	n/a	WING	6	20	[0, 0, 0]	n/a	FR1	1	R1281E
3551.752	1.629	3551825	WORD	n/a	n/a	HAND	7	20	[0, 0, 0]	n/a	FR1	1	R1281E
3553.381	1.037	3553454	WORD_OFF	n/a	n/a	HAND	7	20	[0, 0, 0]	n/a	FR1	1	R1281E
3554.418	1.63	3554491	WORD	n/a	n/a	FOOT	8	20	[0, 0, 0]	n/a	FR1	1	R1281E
3556.048	1.132	3556121	WORD_OFF	n/a	n/a	FOOT	8	20	[0, 0, 0]	n/a	FR1	1	R1281E
3557.18	1.635	3557253	WORD	n/a	n/a	WOLF	9	20	[0, 0, 0]	n/a	FR1	1	R1281E
3558.815	1.086	3558888	WORD_OFF	n/a	n/a	WOLF	9	20	[0, 0, 0]	n/a	FR1	1	R1281E
3559.901	1.631	3559974	WORD	n/a	n/a	SHIP	10	20	[0, 0, 0]	n/a	FR1	1	R1281E
3561.532	0.765	3561605	WORD_OFF	n/a	n/a	SHIP	10	20	[0, 0, 0]	n/a	FR1	1	R1281E
3562.297	1.636	3562370	WORD	n/a	n/a	PASTE	11	20	[0, 0, 0]	n/a	FR1	1	R1281E
3563.933	0.89	3564006	WORD_OFF	n/a	n/a	PASTE	11	20	[0, 0, 0]	n/a	FR1	1	R1281E
3564.823	1.627	3564896	WORD	n/a	n/a	BUSH	12	20	[0, 0, 0]	n/a	FR1	1	R1281E
3566.45	0.0	3566523	WORD_OFF	n/a	n/a	BUSH	12	20	[0, 0, 0]	n/a	FR1	1	R1281E
3566.45	0.0	3566523	ENCODING_END	n/a	n/a	n/a	-999	20	[0, 0, 0]	n/a	FR1	1	R1281E
3566.45	0.001	3566523	DISTRACT_START	n/a	n/a	n/a	-999	20	[0, 0, 0]	n/a	FR1	1	R1281E
3566.451	0.015	3566524	START	n/a	n/a	n/a	-999	20	[-999, -999, -999]	n/a	FR1	1	R1281E
3566.466	4.518	3566539	PROB	4.518	n/a	n/a	-999	20	[7, 1, 8]	16	FR1	1	R1281E
3570.984	3.45	3571056	PROB	3.45	n/a	n/a	-999	20	[4, 4, 8]	20	FR1	1	R1281E
3574.434	4.168	3574506	PROB	4.168	n/a	n/a	-999	20	[2, 8, 5]	15	FR1	1	R1281E
3578.602	3.35	3578674	PROB	3.35	n/a	n/a	-999	20	[4, 7, 7]	18	FR1	1	R1281E
3581.952	4.954	3582024	PROB	4.954	n/a	n/a	-999	20	[6, 1, 5]	12	FR1	1	R1281E
3586.906	0.014	3586978	STOP	n/a	n/a	n/a	-999	20	[-999, -999, -999]	n/a	FR1	1	R1281E
3586.92	0.689	3586992	DISTRACT_END	n/a	n/a	n/a	-999	20	[0, 0, 0]	n/a	FR1	1	R1281E
3587.609	1.561	3587681	RETRIEVAL_ORIENT_START	n/a	n/a	n/a	-999	20	[0, 0, 0]	n/a	FR1	1	R1281E
3589.17	0.001	3589242	RETRIEVAL_ORIENT_END	n/a	n/a	n/a	-999	20	[0, 0, 0]	n/a	FR1	1	R1281E
3589.171	1.344	3589243	REC_START	n/a	n/a	n/a	-999	20	[0, 0, 0]	n/a	FR1	1	R1281E
3590.515	5.94	3590587	REC_WORD	5.94	n/a	FLOAT	-999	20	[0, 0, 0]	n/a	FR1	1	R1281E
3596.455	3.828	3596526	REC_WORD	3.828	n/a	SOAP	3	20	[0, 0, 0]	n/a	FR1	1	R1281E
3600.283	9.694	3600354	REC_WORD	9.694	n/a	ROPE	2	20	[0, 0, 0]	n/a	FR1	1	R1281E
3609.977	9.206	3610048	REC_WORD	9.206	n/a	WOOD	5	20	[0, 0, 0]	n/a	FR1	1	R1281E
3619.183	0.0	3619253	REC_END	n/a	n/a	n/a	-999	20	[0, 0, 0]	n/a	FR1	1	R1281E
3619.183	0.01	3619253	TRIAL_END	n/a	n/a	n/a	-999	20	[0, 0, 0]	n/a	FR1	1	R1281E
3619.193	0.001	3619263	TRIAL_START	n/a	n/a	n/a	-999	21	[0, 0, 0]	n/a	FR1	1	R1281E
3619.194	0.0	3619264	TRIAL	n/a	n/a	n/a	-999	21	[0, 0, 0]	n/a	FR1	1	R1281E
3619.194	18.052	3619264	WAITING_START	n/a	n/a	n/a	-999	21	[0, 0, 0]	n/a	FR1	1	R1281E
3637.246	0.0	3637316	WAITING_END	n/a	n/a	n/a	-999	21	[0, 0, 0]	n/a	FR1	1	R1281E
3637.246	10.428	3637316	COUNTDOWN_START	n/a	n/a	n/a	-999	21	[0, 0, 0]	n/a	FR1	1	R1281E
3647.674	0.001	3647743	COUNTDOWN_END	n/a	n/a	n/a	-999	21	[0, 0, 0]	n/a	FR1	1	R1281E
3647.675	1.256	3647744	ORIENT_START	n/a	n/a	n/a	-999	21	[0, 0, 0]	n/a	FR1	1	R1281E
3648.931	0.0	3649000	ORIENT_END	n/a	n/a	n/a	-999	21	[0, 0, 0]	n/a	FR1	1	R1281E
3648.931	0.9	3649000	ENCODING_START	n/a	n/a	n/a	-999	21	[0, 0, 0]	n/a	FR1	1	R1281E
3649.831	1.634	3649900	WORD	n/a	n/a	BOOT	1	21	[0, 0, 0]	n/a	FR1	1	R1281E
3651.465	0.877	3651534	WORD_OFF	n/a	n/a	BOOT	1	21	[0, 0, 0]	n/a	FR1	1	R1281E
3652.342	1.623	3652411	WORD	n/a	n/a	SMOKE	2	21	[0, 0, 0]	n/a	FR1	1	R1281E
3653.965	0.778	3654034	WORD_OFF	n/a	n/a	SMOKE	2	21	[0, 0, 0]	n/a	FR1	1	R1281E
3654.743	1.622	3654812	WORD	n/a	n/a	JET	3	21	[0, 0, 0]	n/a	FR1	1	R1281E
3656.365	1.024	3656434	WORD_OFF	n/a	n/a	JET	3	21	[0, 0, 0]	n/a	FR1	1	R1281E
3657.389	1.627	3657458	WORD	n/a	n/a	SPARK	4	21	[0, 0, 0]	n/a	FR1	1	R1281E
3659.016	0.875	3659085	WORD_OFF	n/a	n/a	SPARK	4	21	[0, 0, 0]	n/a	FR1	1	R1281E
3659.891	1.626	3659960	WORD	n/a	n/a	ROAD	5	21	[0, 0, 0]	n/a	FR1	1	R1281E
3661.517	0.765	3661586	WORD_OFF	n/a	n/a	ROAD	5	21	[0, 0, 0]	n/a	FR1	1	R1281E
3662.282	1.635	3662351	WORD	n/a	n/a	CHIN	6	21	[0, 0, 0]	n/a	FR1	1	R1281E
3663.917	1.083	3663986	WORD_OFF	n/a	n/a	CHIN	6	21	[0, 0, 0]	n/a	FR1	1	R1281E
3665.0	1.634	3665069	WORD	n/a	n/a	DOOR	7	21	[0, 0, 0]	n/a	FR1	1	R1281E
3666.634	0.784	3666703	WORD_OFF	n/a	n/a	DOOR	7	21	[0, 0, 0]	n/a	FR1	1	R1281E
3667.418	1.633	3667487	WORD	n/a	n/a	SMILE	8	21	[0, 0, 0]	n/a	FR1	1	R1281E
3669.051	1.082	3669120	WORD_OFF	n/a	n/a	SMILE	8	21	[0, 0, 0]	n/a	FR1	1	R1281E
3670.133	1.635	3670201	WORD	n/a	n/a	BIRD	9	21	[0, 0, 0]	n/a	FR1	1	R1281E
3671.768	0.956	3671836	WORD_OFF	n/a	n/a	BIRD	9	21	[0, 0, 0]	n/a	FR1	1	R1281E
3672.724	1.627	3672792	WORD	n/a	n/a	BRICK	10	21	[0, 0, 0]	n/a	FR1	1	R1281E
3674.351	0.787	3674419	WORD_OFF	n/a	n/a	BRICK	10	21	[0, 0, 0]	n/a	FR1	1	R1281E
3675.138	1.631	3675206	WORD	n/a	n/a	STONE	11	21	[0, 0, 0]	n/a	FR1	1	R1281E
3676.769	0.998	3676837	WORD_OFF	n/a	n/a	STONE	11	21	[0, 0, 0]	n/a	FR1	1	R1281E
3677.767	1.636	3677835	WORD	n/a	n/a	STRING	12	21	[0, 0, 0]	n/a	FR1	1	R1281E
3679.403	0.0	3679471	WORD_OFF	n/a	n/a	STRING	12	21	[0, 0, 0]	n/a	FR1	1	R1281E
3679.403	0.001	3679471	ENCODING_END	n/a	n/a	n/a	-999	21	[0, 0, 0]	n/a	FR1	1	R1281E
3679.404	0.0	3679472	DISTRACT_START	n/a	n/a	n/a	-999	21	[0, 0, 0]	n/a	FR1	1	R1281E
3679.404	0.015	3679472	START	n/a	n/a	n/a	-999	21	[-999, -999, -999]	n/a	FR1	1	R1281E
3679.419	5.251	3679487	PROB	5.251	n/a	n/a	-999	21	[7, 6, 9]	22	FR1	1	R1281E
3684.67	3.401	3684738	PROB	3.401	n/a	n/a	-999	21	[8, 1, 6]	15	FR1	1	R1281E
3688.071	3.484	3688139	PROB	3.484	n/a	n/a	-999	21	[1, 8, 7]	16	FR1	1	R1281E
3691.555	3.701	3691623	PROB	3.701	n/a	n/a	-999	21	[8, 2, 6]	16	FR1	1	R1281E
3695.256	5.86	3695324	PROB	5.86	n/a	n/a	-999	21	[8, 7, 8]	21	FR1	1	R1281E
3701.116	0.007	3701183	STOP	n/a	n/a	n/a	-999	21	[-999, -999, -999]	n/a	FR1	1	R1281E
3701.123	0.533	3701190	DISTRACT_END	n/a	n/a	n/a	-999	21	[0, 0, 0]	n/a	FR1	1	R1281E
3701.656	1.718	3701723	RETRIEVAL_ORIENT_START	n/a	n/a	n/a	-999	21	[0, 0, 0]	n/a	FR1	1	R1281E
3703.374	0.0	3703441	REC_START	n/a	n/a	n/a	-999	21	[0, 0, 0]	n/a	FR1	1	R1281E
3703.374	2.944	3703441	RETRIEVAL_ORIENT_END	n/a	n/a	n/a	-999	21	[0, 0, 0]	n/a	FR1	1	R1281E
3706.318	2.205	3706385	REC_WORD	2.205	n/a	CHIN	6	21	[0, 0, 0]	n/a	FR1	1	R1281E
3708.523	24.864	3708590	REC_WORD	24.864	n/a	SMILE	8	21	[0, 0, 0]	n/a	FR1	1	R1281E
3733.387	0.0	3733453	REC_END	n/a	n/a	n/a	-999	21	[0, 0, 0]	n/a	FR1	1	R1281E
3733.387	0.01	3733453	TRIAL_END	n/a	n/a	n/a	-999	21	[0, 0, 0]	n/a	FR1	1	R1281E
3733.397	0.0	3733463	TRIAL_START	n/a	n/a	n/a	-999	22	[0, 0, 0]	n/a	FR1	1	R1281E
3733.397	0.0	3733463	TRIAL	n/a	n/a	n/a	-999	22	[0, 0, 0]	n/a	FR1	1	R1281E
3733.397	16.802	3733463	WAITING_START	n/a	n/a	n/a	-999	22	[0, 0, 0]	n/a	FR1	1	R1281E
3750.199	0.0	3750264	COUNTDOWN_START	n/a	n/a	n/a	-999	22	[0, 0, 0]	n/a	FR1	1	R1281E
3750.199	10.429	3750264	WAITING_END	n/a	n/a	n/a	-999	22	[0, 0, 0]	n/a	FR1	1	R1281E
3760.628	0.0	3760693	COUNTDOWN_END	n/a	n/a	n/a	-999	22	[0, 0, 0]	n/a	FR1	1	R1281E
3760.628	1.256	3760693	ORIENT_START	n/a	n/a	n/a	-999	22	[0, 0, 0]	n/a	FR1	1	R1281E
3761.884	0.001	3761949	ORIENT_END	n/a	n/a	n/a	-999	22	[0, 0, 0]	n/a	FR1	1	R1281E
3761.885	1.128	3761950	ENCODING_START	n/a	n/a	n/a	-999	22	[0, 0, 0]	n/a	FR1	1	R1281E
3763.013	1.622	3763078	WORD	n/a	n/a	KEY	1	22	[0, 0, 0]	n/a	FR1	1	R1281E
3764.635	0.791	3764700	WORD_OFF	n/a	n/a	KEY	1	22	[0, 0, 0]	n/a	FR1	1	R1281E
3765.426	1.626	3765491	WORD	n/a	n/a	STAR	2	22	[0, 0, 0]	n/a	FR1	1	R1281E
3767.052	0.967	3767117	WORD_OFF	n/a	n/a	STAR	2	22	[0, 0, 0]	n/a	FR1	1	R1281E
3768.019	1.633	3768084	WORD	n/a	n/a	PIG	3	22	[0, 0, 0]	n/a	FR1	1	R1281E
3769.652	0.777	3769717	WORD_OFF	n/a	n/a	PIG	3	22	[0, 0, 0]	n/a	FR1	1	R1281E
3770.429	1.624	3770494	WORD	n/a	n/a	CAGE	4	22	[0, 0, 0]	n/a	FR1	1	R1281E
3772.053	0.945	3772118	WORD_OFF	n/a	n/a	CAGE	4	22	[0, 0, 0]	n/a	FR1	1	R1281E
3772.998	1.622	3773062	WORD	n/a	n/a	TOOL	5	22	[0, 0, 0]	n/a	FR1	1	R1281E
3774.62	1.006	3774684	WORD_OFF	n/a	n/a	TOOL	5	22	[0, 0, 0]	n/a	FR1	1	R1281E
3775.626	1.628	3775690	WORD	n/a	n/a	FLOOR	6	22	[0, 0, 0]	n/a	FR1	1	R1281E
3777.254	1.127	3777318	WORD_OFF	n/a	n/a	FLOOR	6	22	[0, 0, 0]	n/a	FR1	1	R1281E
3778.381	1.623	3778445	WORD	n/a	n/a	THREAD	7	22	[0, 0, 0]	n/a	FR1	1	R1281E
3780.004	0.965	3780068	WORD_OFF	n/a	n/a	THREAD	7	22	[0, 0, 0]	n/a	FR1	1	R1281E
3780.969	1.636	3781033	WORD	n/a	n/a	SPOON	8	22	[0, 0, 0]	n/a	FR1	1	R1281E
3782.605	0.891	3782669	WORD_OFF	n/a	n/a	SPOON	8	22	[0, 0, 0]	n/a	FR1	1	R1281E
3783.496	1.625	3783560	WORD	n/a	n/a	TANK	9	22	[0, 0, 0]	n/a	FR1	1	R1281E
3785.121	1.062	3785185	WORD_OFF	n/a	n/a	TANK	9	22	[0, 0, 0]	n/a	FR1	1	R1281E
3786.183	1.622	3786247	WORD	n/a	n/a	BEAN	10	22	[0, 0, 0]	n/a	FR1	1	R1281E
3787.805	0.802	3787869	WORD_OFF	n/a	n/a	BEAN	10	22	[0, 0, 0]	n/a	FR1	1	R1281E
3788.607	1.632	3788671	WORD	n/a	n/a	FILM	11	22	[0, 0, 0]	n/a	FR1	1	R1281E
3790.239	1.03	3790303	WORD_OFF	n/a	n/a	FILM	11	22	[0, 0, 0]	n/a	FR1	1	R1281E
3791.269	1.621	3791333	WORD	n/a	n/a	HORSE	12	22	[0, 0, 0]	n/a	FR1	1	R1281E
3792.89	0.0	3792954	WORD_OFF	n/a	n/a	HORSE	12	22	[0, 0, 0]	n/a	FR1	1	R1281E
3792.89	0.0	3792954	ENCODING_END	n/a	n/a	n/a	-999	22	[0, 0, 0]	n/a	FR1	1	R1281E
3792.89	0.0	3792954	DISTRACT_START	n/a	n/a	n/a	-999	22	[0, 0, 0]	n/a	FR1	1	R1281E
3792.89	0.016	3792954	START	n/a	n/a	n/a	-999	22	[-999, -999, -999]	n/a	FR1	1	R1281E
3792.906	4.467	3792970	PROB	4.467	n/a	n/a	-999	22	[7, 2, 4]	13	FR1	1	R1281E
3797.373	3.818	3797437	PROB	3.818	n/a	n/a	-999	22	[8, 2, 4]	14	FR1	1	R1281E
3801.191	4.251	3801254	PROB	4.251	n/a	n/a	-999	22	[3, 5, 2]	10	FR1	1	R1281E
3805.442	4.05	3805505	PROB	4.05	n/a	n/a	-999	22	[5, 8, 3]	16	FR1	1	R1281E
3809.492	3.693	3809555	PROB	3.693	n/a	n/a	-999	22	[9, 9, 1]	19	FR1	1	R1281E
3813.185	0.008	3813248	STOP	n/a	n/a	n/a	-999	22	[-999, -999, -999]	n/a	FR1	1	R1281E
3813.193	0.576	3813256	DISTRACT_END	n/a	n/a	n/a	-999	22	[0, 0, 0]	n/a	FR1	1	R1281E
3813.769	1.608	3813832	RETRIEVAL_ORIENT_START	n/a	n/a	n/a	-999	22	[0, 0, 0]	n/a	FR1	1	R1281E
3815.377	0.0	3815440	RETRIEVAL_ORIENT_END	n/a	n/a	n/a	-999	22	[0, 0, 0]	n/a	FR1	1	R1281E
3815.377	10.444	3815440	REC_START	n/a	n/a	n/a	-999	22	[0, 0, 0]	n/a	FR1	1	R1281E
3825.821	11.271	3825883	REC_WORD	11.271	n/a	CHAIR	-999	22	[0, 0, 0]	n/a	FR1	1	R1281E
3837.092	8.3	3837154	REC_WORD	8.3	n/a	RAKE	-999	22	[0, 0, 0]	n/a	FR1	1	R1281E
3845.392	0.001	3845454	REC_END	n/a	n/a	n/a	-999	22	[0, 0, 0]	n/a	FR1	1	R1281E
3845.393	0.01	3845455	TRIAL_END	n/a	n/a	n/a	-999	22	[0, 0, 0]	n/a	FR1	1	R1281E
3845.403	0.0	3845465	TRIAL_START	n/a	n/a	n/a	-999	23	[0, 0, 0]	n/a	FR1	1	R1281E
3845.403	0.0	3845465	TRIAL	n/a	n/a	n/a	-999	23	[0, 0, 0]	n/a	FR1	1	R1281E
3845.403	5.647	3845465	WAITING_START	n/a	n/a	n/a	-999	23	[0, 0, 0]	n/a	FR1	1	R1281E
3851.05	0.0	3851111	WAITING_END	n/a	n/a	n/a	-999	23	[0, 0, 0]	n/a	FR1	1	R1281E
3851.05	10.428	3851111	COUNTDOWN_START	n/a	n/a	n/a	-999	23	[0, 0, 0]	n/a	FR1	1	R1281E
3861.478	0.001	3861539	COUNTDOWN_END	n/a	n/a	n/a	-999	23	[0, 0, 0]	n/a	FR1	1	R1281E
3861.479	1.04	3861540	ORIENT_START	n/a	n/a	n/a	-999	23	[0, 0, 0]	n/a	FR1	1	R1281E
3862.519	0.0	3862580	ORIENT_END	n/a	n/a	n/a	-999	23	[0, 0, 0]	n/a	FR1	1	R1281E
3862.519	0.857	3862580	ENCODING_START	n/a	n/a	n/a	-999	23	[0, 0, 0]	n/a	FR1	1	R1281E
3863.376	1.626	3863437	WORD	n/a	n/a	CLOUD	1	23	[0, 0, 0]	n/a	FR1	1	R1281E
3865.002	1.058	3865063	WORD_OFF	n/a	n/a	CLOUD	1	23	[0, 0, 0]	n/a	FR1	1	R1281E
3866.06	1.626	3866121	WORD	n/a	n/a	HOSE	2	23	[0, 0, 0]	n/a	FR1	1	R1281E
3867.686	0.893	3867747	WORD_OFF	n/a	n/a	HOSE	2	23	[0, 0, 0]	n/a	FR1	1	R1281E
3868.579	1.624	3868640	WORD	n/a	n/a	NAIL	3	23	[0, 0, 0]	n/a	FR1	1	R1281E
3870.203	0.792	3870264	WORD_OFF	n/a	n/a	NAIL	3	23	[0, 0, 0]	n/a	FR1	1	R1281E
3870.995	1.625	3871056	WORD	n/a	n/a	SPEAR	4	23	[0, 0, 0]	n/a	FR1	1	R1281E
3872.62	1.0	3872681	WORD_OFF	n/a	n/a	SPEAR	4	23	[0, 0, 0]	n/a	FR1	1	R1281E
3873.62	1.634	3873681	WORD	n/a	n/a	MOOSE	5	23	[0, 0, 0]	n/a	FR1	1	R1281E
3875.254	0.815	3875315	WORD_OFF	n/a	n/a	MOOSE	5	23	[0, 0, 0]	n/a	FR1	1	R1281E
3876.069	1.636	3876129	WORD	n/a	n/a	MAT	6	23	[0, 0, 0]	n/a	FR1	1	R1281E
3877.705	0.84	3877765	WORD_OFF	n/a	n/a	MAT	6	23	[0, 0, 0]	n/a	FR1	1	R1281E
3878.545	1.627	3878605	WORD	n/a	n/a	SOCK	7	23	[0, 0, 0]	n/a	FR1	1	R1281E
3880.172	0.759	3880232	WORD_OFF	n/a	n/a	SOCK	7	23	[0, 0, 0]	n/a	FR1	1	R1281E
3880.931	1.625	3880991	WORD	n/a	n/a	PET	8	23	[0, 0, 0]	n/a	FR1	1	R1281E
3882.556	0.996	3882616	WORD_OFF	n/a	n/a	PET	8	23	[0, 0, 0]	n/a	FR1	1	R1281E
3883.552	1.621	3883612	WORD	n/a	n/a	POLE	9	23	[0, 0, 0]	n/a	FR1	1	R1281E
3885.173	0.879	3885233	WORD_OFF	n/a	n/a	POLE	9	23	[0, 0, 0]	n/a	FR1	1	R1281E
3886.052	1.621	3886112	WORD	n/a	n/a	COUCH	10	23	[0, 0, 0]	n/a	FR1	1	R1281E
3887.673	0.853	3887733	WORD_OFF	n/a	n/a	COUCH	10	23	[0, 0, 0]	n/a	FR1	1	R1281E
3888.526	1.631	3888586	WORD	n/a	n/a	RAKE	11	23	[0, 0, 0]	n/a	FR1	1	R1281E
3890.157	0.909	3890217	WORD_OFF	n/a	n/a	RAKE	11	23	[0, 0, 0]	n/a	FR1	1	R1281E
3891.066	1.625	3891126	WORD	n/a	n/a	COIN	12	23	[0, 0, 0]	n/a	FR1	1	R1281E
3892.691	0.0	3892751	WORD_OFF	n/a	n/a	COIN	12	23	[0, 0, 0]	n/a	FR1	1	R1281E
3892.691	0.0	3892751	ENCODING_END	n/a	n/a	n/a	-999	23	[0, 0, 0]	n/a	FR1	1	R1281E
3892.691	0.001	3892751	DISTRACT_START	n/a	n/a	n/a	-999	23	[0, 0, 0]	n/a	FR1	1	R1281E
3892.692	0.015	3892752	START	n/a	n/a	n/a	-999	23	[-999, -999, -999]	n/a	FR1	1	R1281E
3892.707	5.801	3892767	PROB	5.801	n/a	n/a	-999	23	[6, 9, 1]	16	FR1	1	R1281E
3898.508	3.067	3898568	PROB	3.067	n/a	n/a	-999	23	[2, 1, 6]	9	FR1	1	R1281E
3901.575	3.918	3901634	PROB	3.918	n/a	n/a	-999	23	[2, 3, 5]	10	FR1	1	R1281E
3905.493	5.0	3905552	PROB	5.0	n/a	n/a	-999	23	[7, 8, 9]	24	FR1	1	R1281E
3910.493	4.341	3910552	PROB	4.341	n/a	n/a	-999	23	[5, 7, 9]	21	FR1	1	R1281E
3914.834	0.01	3914893	STOP	n/a	n/a	n/a	-999	23	[-999, -999, -999]	n/a	FR1	1	R1281E
3914.844	0.606	3914903	DISTRACT_END	n/a	n/a	n/a	-999	23	[0, 0, 0]	n/a	FR1	1	R1281E
3915.45	1.545	3915509	RETRIEVAL_ORIENT_START	n/a	n/a	n/a	-999	23	[0, 0, 0]	n/a	FR1	1	R1281E
3916.995	0.0	3917054	RETRIEVAL_ORIENT_END	n/a	n/a	n/a	-999	23	[0, 0, 0]	n/a	FR1	1	R1281E
3916.995	9.273	3917054	REC_START	n/a	n/a	n/a	-999	23	[0, 0, 0]	n/a	FR1	1	R1281E
3926.268	15.729	3926327	REC_WORD	15.729	n/a	STAR	-999	23	[0, 0, 0]	n/a	FR1	1	R1281E
3941.997	5.011	3942055	REC_WORD	5.011	n/a	FARM	-999	23	[0, 0, 0]	n/a	FR1	1	R1281E
3947.008	0.0	3947066	TRIAL_END	n/a	n/a	n/a	-999	23	[0, 0, 0]	n/a	FR1	1	R1281E
3947.008	0.01	3947066	REC_END	n/a	n/a	n/a	-999	23	[0, 0, 0]	n/a	FR1	1	R1281E
3947.018	0.001	3947076	TRIAL_START	n/a	n/a	n/a	-999	24	[0, 0, 0]	n/a	FR1	1	R1281E
3947.019	0.0	3947077	TRIAL	n/a	n/a	n/a	-999	24	[0, 0, 0]	n/a	FR1	1	R1281E
3947.019	4.782	3947077	WAITING_START	n/a	n/a	n/a	-999	24	[0, 0, 0]	n/a	FR1	1	R1281E
3951.801	0.0	3951859	WAITING_END	n/a	n/a	n/a	-999	24	[0, 0, 0]	n/a	FR1	1	R1281E
3951.801	10.428	3951859	COUNTDOWN_START	n/a	n/a	n/a	-999	24	[0, 0, 0]	n/a	FR1	1	R1281E
3962.229	0.0	3962286	COUNTDOWN_END	n/a	n/a	n/a	-999	24	[0, 0, 0]	n/a	FR1	1	R1281E
3962.229	1.157	3962286	ORIENT_START	n/a	n/a	n/a	-999	24	[0, 0, 0]	n/a	FR1	1	R1281E
3963.386	0.001	3963443	ORIENT_END	n/a	n/a	n/a	-999	24	[0, 0, 0]	n/a	FR1	1	R1281E
3963.387	1.083	3963444	ENCODING_START	n/a	n/a	n/a	-999	24	[0, 0, 0]	n/a	FR1	1	R1281E
3964.47	1.634	3964527	WORD	n/a	n/a	FUR	1	24	[0, 0, 0]	n/a	FR1	1	R1281E
3966.104	1.078	3966161	WORD_OFF	n/a	n/a	FUR	1	24	[0, 0, 0]	n/a	FR1	1	R1281E
3967.182	1.622	3967239	WORD	n/a	n/a	MUD	2	24	[0, 0, 0]	n/a	FR1	1	R1281E
3968.804	1.073	3968861	WORD_OFF	n/a	n/a	MUD	2	24	[0, 0, 0]	n/a	FR1	1	R1281E
3969.877	1.627	3969934	WORD	n/a	n/a	BOX	3	24	[0, 0, 0]	n/a	FR1	1	R1281E
3971.504	0.752	3971561	WORD_OFF	n/a	n/a	BOX	3	24	[0, 0, 0]	n/a	FR1	1	R1281E
3972.256	1.632	3972313	WORD	n/a	n/a	FOOD	4	24	[0, 0, 0]	n/a	FR1	1	R1281E
3973.888	1.103	3973945	WORD_OFF	n/a	n/a	FOOD	4	24	[0, 0, 0]	n/a	FR1	1	R1281E
3974.991	1.631	3975048	WORD	n/a	n/a	TRAY	5	24	[0, 0, 0]	n/a	FR1	1	R1281E
3976.622	0.789	3976679	WORD_OFF	n/a	n/a	TRAY	5	24	[0, 0, 0]	n/a	FR1	1	R1281E
3977.411	1.628	3977468	WORD	n/a	n/a	FACE	6	24	[0, 0, 0]	n/a	FR1	1	R1281E
3979.039	0.875	3979095	WORD_OFF	n/a	n/a	FACE	6	24	[0, 0, 0]	n/a	FR1	1	R1281E
3979.914	1.626	3979970	WORD	n/a	n/a	SOUP	7	24	[0, 0, 0]	n/a	FR1	1	R1281E
3981.54	0.763	3981596	WORD_OFF	n/a	n/a	SOUP	7	24	[0, 0, 0]	n/a	FR1	1	R1281E
3982.303	1.637	3982359	WORD	n/a	n/a	DOG	8	24	[0, 0, 0]	n/a	FR1	1	R1281E
3983.94	1.005	3983996	WORD_OFF	n/a	n/a	DOG	8	24	[0, 0, 0]	n/a	FR1	1	R1281E
3984.945	1.629	3985001	WORD	n/a	n/a	ROSE	9	24	[0, 0, 0]	n/a	FR1	1	R1281E
3986.574	1.127	3986630	WORD_OFF	n/a	n/a	ROSE	9	24	[0, 0, 0]	n/a	FR1	1	R1281E
3987.701	1.622	3987757	WORD	n/a	n/a	RAIN	10	24	[0, 0, 0]	n/a	FR1	1	R1281E
3989.323	1.038	3989379	WORD_OFF	n/a	n/a	RAIN	10	24	[0, 0, 0]	n/a	FR1	1	R1281E
3990.361	1.63	3990417	WORD	n/a	n/a	HAWK	11	24	[0, 0, 0]	n/a	FR1	1	R1281E
3991.991	0.87	3992047	WORD_OFF	n/a	n/a	HAWK	11	24	[0, 0, 0]	n/a	FR1	1	R1281E
3992.861	1.631	3992917	WORD	n/a	n/a	FLAG	12	24	[0, 0, 0]	n/a	FR1	1	R1281E
3994.492	0.0	3994548	WORD_OFF	n/a	n/a	FLAG	12	24	[0, 0, 0]	n/a	FR1	1	R1281E
3994.492	0.0	3994548	ENCODING_END	n/a	n/a	n/a	-999	24	[0, 0, 0]	n/a	FR1	1	R1281E
3994.492	0.001	3994548	DISTRACT_START	n/a	n/a	n/a	-999	24	[0, 0, 0]	n/a	FR1	1	R1281E
3994.493	0.015	3994549	START	n/a	n/a	n/a	-999	24	[-999, -999, -999]	n/a	FR1	1	R1281E
3994.508	4.584	3994564	PROB	4.584	n/a	n/a	-999	24	[8, 2, 2]	12	FR1	1	R1281E
3999.092	3.484	3999148	PROB	3.484	n/a	n/a	-999	24	[9, 1, 5]	15	FR1	1	R1281E
4002.576	4.234	4002632	PROB	4.234	n/a	n/a	-999	24	[7, 4, 3]	14	FR1	1	R1281E
4006.81	4.085	4006865	PROB	4.085	n/a	n/a	-999	24	[2, 4, 4]	10	FR1	1	R1281E
