onset	duration	sample	trial_type	response_time	stim_file	item_name	serialpos	list	test	answer	experiment	session	subject
0.0	43.48	367570	SESS_START	n/a	n/a	n/a	-999	-999	[0, 0, 0]	n/a	FR1	1	R1010J
43.48	10.428	411049	COUNTDOWN_START	n/a	n/a	n/a	-999	-999	[0, 0, 0]	n/a	FR1	1	R1010J
53.908	3.764	421477	COUNTDOWN_END	n/a	n/a	n/a	-999	-999	[0, 0, 0]	n/a	FR1	1	R1010J
57.672	2.603	425240	PRACTICE_WORD	n/a	n/a	IRON	1	-1	[0, 0, 0]	n/a	FR1	1	R1010J
60.275	2.539	427843	PRACTICE_WORD	n/a	n/a	FLOOD	2	-1	[0, 0, 0]	n/a	FR1	1	R1010J
62.814	2.586	430382	PRACTICE_WORD	n/a	n/a	TONGUE	3	-1	[0, 0, 0]	n/a	FR1	1	R1010J
65.4	2.489	432968	PRACTICE_WORD	n/a	n/a	CHEST	4	-1	[0, 0, 0]	n/a	FR1	1	R1010J
67.889	2.503	435457	PRACTICE_WORD	n/a	n/a	WATCH	5	-1	[0, 0, 0]	n/a	FR1	1	R1010J
70.392	2.505	437960	PRACTICE_WORD	n/a	n/a	RHINO	6	-1	[0, 0, 0]	n/a	FR1	1	R1010J
72.897	2.52	440465	PRACTICE_WORD	n/a	n/a	RING	7	-1	[0, 0, 0]	n/a	FR1	1	R1010J
75.417	2.504	442985	PRACTICE_WORD	n/a	n/a	COTTON	8	-1	[0, 0, 0]	n/a	FR1	1	R1010J
77.921	2.505	445489	PRACTICE_WORD	n/a	n/a	ATTIC	9	-1	[0, 0, 0]	n/a	FR1	1	R1010J
80.426	2.637	447994	PRACTICE_WORD	n/a	n/a	WAGON	10	-1	[0, 0, 0]	n/a	FR1	1	R1010J
83.063	2.589	450631	PRACTICE_WORD	n/a	n/a	BEAM	11	-1	[0, 0, 0]	n/a	FR1	1	R1010J
85.652	1.618	453219	PRACTICE_WORD	n/a	n/a	CAMEL	12	-1	[0, 0, 0]	n/a	FR1	1	R1010J
87.27	0.001	454837	PRACTICE_DISTRACT_START	n/a	n/a	n/a	-999	-1	[0, 0, 0]	n/a	FR1	1	R1010J
87.271	0.066	454838	START	n/a	n/a	n/a	-999	-1	[-999, -999, -999]	n/a	FR1	1	R1010J
87.337	4.675	454904	PROB	4.675	n/a	n/a	-999	-1	[2, 5, 2]	9	FR1	1	R1010J
92.012	8.397	459579	PROB	8.397	n/a	n/a	-999	-1	[7, 9, 8]	24	FR1	1	R1010J
100.409	6.745	467976	PROB	6.745	n/a	n/a	-999	-1	[3, 4, 5]	12	FR1	1	R1010J
107.154	14.3	474721	PROB	14.3	n/a	n/a	-999	-1	[7, 9, 4]	20	FR1	1	R1010J
121.454	0.007	489020	STOP	n/a	n/a	n/a	-999	-1	[-999, -999, -999]	n/a	FR1	1	R1010J
121.461	0.603	489027	PRACTICE_DISTRACT_END	n/a	n/a	n/a	-999	-1	[0, 0, 0]	n/a	FR1	1	R1010J
122.064	30.517	489630	PRACTICE_REC_START	n/a	n/a	n/a	-999	-1	[0, 0, 0]	n/a	FR1	1	R1010J
152.581	18.231	520146	PRACTICE_REC_END	n/a	n/a	n/a	-999	-1	[0, 0, 0]	n/a	FR1	1	R1010J
170.812	0.0	538376	TRIAL	n/a	n/a	n/a	-999	1	[0, 0, 0]	n/a	FR1	1	R1010J
170.812	10.428	538376	COUNTDOWN_START	n/a	n/a	n/a	-999	1	[0, 0, 0]	n/a	FR1	1	R1010J
181.24	0.005	548804	COUNTDOWN_END	n/a	n/a	n/a	-999	1	[0, 0, 0]	n/a	FR1	1	R1010J
181.245	2.555	548809	ORIENT	n/a	n/a	n/a	-999	1	[0, 0, 0]	n/a	FR1	1	R1010J
183.8	2.487	551364	WORD	n/a	wordpools/wordpool_EN.txt	STEAK	1	1	[0, 0, 0]	n/a	FR1	1	R1010J
186.287	2.489	553851	WORD	n/a	wordpools/wordpool_EN.txt	EAR	2	1	[0, 0, 0]	n/a	FR1	1	R1010J
188.776	2.403	556340	WORD	n/a	wordpools/wordpool_EN.txt	MOUTH	3	1	[0, 0, 0]	n/a	FR1	1	R1010J
191.179	2.421	558743	WORD	n/a	wordpools/wordpool_EN.txt	CAGE	4	1	[0, 0, 0]	n/a	FR1	1	R1010J
193.6	2.537	561164	WORD	n/a	wordpools/wordpool_EN.txt	PHONE	5	1	[0, 0, 0]	n/a	FR1	1	R1010J
196.137	2.405	563700	WORD	n/a	wordpools/wordpool_EN.txt	MULE	6	1	[0, 0, 0]	n/a	FR1	1	R1010J
198.542	2.403	566105	WORD	n/a	wordpools/wordpool_EN.txt	ARK	7	1	[0, 0, 0]	n/a	FR1	1	R1010J
200.945	2.607	568508	WORD	n/a	wordpools/wordpool_EN.txt	BOY	8	1	[0, 0, 0]	n/a	FR1	1	R1010J
203.552	2.618	571115	WORD	n/a	wordpools/wordpool_EN.txt	TEETH	9	1	[0, 0, 0]	n/a	FR1	1	R1010J
206.17	2.556	573733	WORD	n/a	wordpools/wordpool_EN.txt	SEAL	10	1	[0, 0, 0]	n/a	FR1	1	R1010J
208.726	2.47	576289	WORD	n/a	wordpools/wordpool_EN.txt	TOOTH	11	1	[0, 0, 0]	n/a	FR1	1	R1010J
211.196	1.62	578759	WORD	n/a	wordpools/wordpool_EN.txt	PEAR	12	1	[0, 0, 0]	n/a	FR1	1	R1010J
212.816	0.001	580379	DISTRACT_START	n/a	n/a	n/a	-999	1	[0, 0, 0]	n/a	FR1	1	R1010J
212.817	0.016	580380	START	n/a	n/a	n/a	-999	1	[-999, -999, -999]	n/a	FR1	1	R1010J
212.833	5.025	580396	PROB	5.025	n/a	n/a	-999	1	[7, 7, 3]	17	FR1	1	R1010J
217.858	4.122	585421	PROB	4.122	n/a	n/a	-999	1	[3, 1, 4]	8	FR1	1	R1010J
221.98	4.826	589543	PROB	4.826	n/a	n/a	-999	1	[2, 7, 2]	11	FR1	1	R1010J
226.806	6.058	594368	PROB	6.058	n/a	n/a	-999	1	[8, 1, 8]	17	FR1	1	R1010J
232.864	0.019	600426	STOP	n/a	n/a	n/a	-999	1	[-999, -999, -999]	n/a	FR1	1	R1010J
232.883	1.1	600445	DISTRACT_END	n/a	n/a	n/a	-999	1	[0, 0, 0]	n/a	FR1	1	R1010J
233.983	2.05	601545	REC_START	n/a	n/a	n/a	-999	1	[0, 0, 0]	n/a	FR1	1	R1010J
236.033	1.373	603595	REC_WORD_VV	1.373	n/a	<>	-999	1	[0, 0, 0]	n/a	FR1	1	R1010J
237.406	1.233	604968	REC_WORD	1.233	n/a	EAR	-999	1	[0, 0, 0]	n/a	FR1	1	R1010J
238.639	3.276	606201	REC_WORD	3.276	n/a	TEETH	-999	1	[0, 0, 0]	n/a	FR1	1	R1010J
241.915	10.096	609477	REC_WORD_VV	10.096	n/a	<>	-999	1	[0, 0, 0]	n/a	FR1	1	R1010J
252.011	5.65	619572	REC_WORD	5.65	n/a	BOY	-999	1	[0, 0, 0]	n/a	FR1	1	R1010J
257.661	6.289	625222	REC_WORD	6.289	n/a	ARK	-999	1	[0, 0, 0]	n/a	FR1	1	R1010J
263.95	18.734	631511	REC_END	n/a	n/a	n/a	-999	1	[0, 0, 0]	n/a	FR1	1	R1010J
282.684	0.0	650244	COUNTDOWN_START	n/a	n/a	n/a	-999	2	[0, 0, 0]	n/a	FR1	1	R1010J
282.684	10.428	650244	TRIAL	n/a	n/a	n/a	-999	2	[0, 0, 0]	n/a	FR1	1	R1010J
293.112	0.005	660672	COUNTDOWN_END	n/a	n/a	n/a	-999	2	[0, 0, 0]	n/a	FR1	1	R1010J
293.117	2.456	660677	ORIENT	n/a	n/a	n/a	-999	2	[0, 0, 0]	n/a	FR1	1	R1010J
295.573	2.602	663133	WORD	n/a	wordpools/wordpool_EN.txt	TANK	1	2	[0, 0, 0]	n/a	FR1	1	R1010J
298.175	2.472	665735	WORD	n/a	wordpools/wordpool_EN.txt	MAZE	2	2	[0, 0, 0]	n/a	FR1	1	R1010J
300.647	2.487	668207	WORD	n/a	wordpools/wordpool_EN.txt	CAR	3	2	[0, 0, 0]	n/a	FR1	1	R1010J
303.134	2.522	670694	WORD	n/a	wordpools/wordpool_EN.txt	VAN	4	2	[0, 0, 0]	n/a	FR1	1	R1010J
305.656	2.519	673215	WORD	n/a	wordpools/wordpool_EN.txt	SAIL	5	2	[0, 0, 0]	n/a	FR1	1	R1010J
308.175	2.44	675734	WORD	n/a	wordpools/wordpool_EN.txt	BOARD	6	2	[0, 0, 0]	n/a	FR1	1	R1010J
310.615	2.419	678174	WORD	n/a	wordpools/wordpool_EN.txt	SOUP	7	2	[0, 0, 0]	n/a	FR1	1	R1010J
313.034	2.588	680593	WORD	n/a	wordpools/wordpool_EN.txt	TOY	8	2	[0, 0, 0]	n/a	FR1	1	R1010J
315.622	2.553	683181	WORD	n/a	wordpools/wordpool_EN.txt	BRICK	9	2	[0, 0, 0]	n/a	FR1	1	R1010J
318.175	2.489	685734	WORD	n/a	wordpools/wordpool_EN.txt	JAIL	10	2	[0, 0, 0]	n/a	FR1	1	R1010J
320.664	2.553	688223	WORD	n/a	wordpools/wordpool_EN.txt	STORM	11	2	[0, 0, 0]	n/a	FR1	1	R1010J
323.217	1.604	690776	WORD	n/a	wordpools/wordpool_EN.txt	BANK	12	2	[0, 0, 0]	n/a	FR1	1	R1010J
324.821	0.001	692380	DISTRACT_START	n/a	n/a	n/a	-999	2	[0, 0, 0]	n/a	FR1	1	R1010J
324.822	0.016	692381	START	n/a	n/a	n/a	-999	2	[-999, -999, -999]	n/a	FR1	1	R1010J
324.838	9.615	692397	PROB	9.615	n/a	n/a	-999	2	[8, 6, 6]	20	FR1	1	R1010J
334.453	6.995	702011	PROB	6.995	n/a	n/a	-999	2	[8, 8, 6]	22	FR1	1	R1010J
341.448	7.511	709006	PROB	7.511	n/a	n/a	-999	2	[8, 7, 3]	18	FR1	1	R1010J
348.959	0.018	716517	STOP	n/a	n/a	n/a	-999	2	[-999, -999, -999]	n/a	FR1	1	R1010J
348.977	1.069	716535	DISTRACT_END	n/a	n/a	n/a	-999	2	[0, 0, 0]	n/a	FR1	1	R1010J
350.046	3.85	717604	REC_START	n/a	n/a	n/a	-999	2	[0, 0, 0]	n/a	FR1	1	R1010J
353.896	1.703	721454	REC_WORD	1.703	n/a	TANK	-999	2	[0, 0, 0]	n/a	FR1	1	R1010J
355.599	3.369	723157	REC_WORD_VV	3.369	n/a	<>	-999	2	[0, 0, 0]	n/a	FR1	1	R1010J
358.968	2.596	726526	REC_WORD	2.596	n/a	SAIL	-999	2	[0, 0, 0]	n/a	FR1	1	R1010J
361.564	18.498	729121	REC_WORD	18.498	n/a	TOY	-999	2	[0, 0, 0]	n/a	FR1	1	R1010J
380.062	3.407	747619	REC_END	n/a	n/a	n/a	-999	2	[0, 0, 0]	n/a	FR1	1	R1010J
383.469	0.0	751026	TRIAL	n/a	n/a	n/a	-999	3	[0, 0, 0]	n/a	FR1	1	R1010J
383.469	10.428	751026	COUNTDOWN_START	n/a	n/a	n/a	-999	3	[0, 0, 0]	n/a	FR1	1	R1010J
393.897	0.007	761453	COUNTDOWN_END	n/a	n/a	n/a	-999	3	[0, 0, 0]	n/a	FR1	1	R1010J
393.904	2.553	761460	ORIENT	n/a	n/a	n/a	-999	3	[0, 0, 0]	n/a	FR1	1	R1010J
396.457	2.471	764013	WORD	n/a	wordpools/wordpool_EN.txt	BREAD	1	3	[0, 0, 0]	n/a	FR1	1	R1010J
398.928	2.488	766484	WORD	n/a	wordpools/wordpool_EN.txt	SPOON	2	3	[0, 0, 0]	n/a	FR1	1	R1010J
401.416	2.588	768972	WORD	n/a	wordpools/wordpool_EN.txt	RAT	3	3	[0, 0, 0]	n/a	FR1	1	R1010J
404.004	2.504	771560	WORD	n/a	wordpools/wordpool_EN.txt	CLAY	4	3	[0, 0, 0]	n/a	FR1	1	R1010J
406.508	2.621	774064	WORD	n/a	wordpools/wordpool_EN.txt	PIPE	5	3	[0, 0, 0]	n/a	FR1	1	R1010J
409.129	2.622	776685	WORD	n/a	wordpools/wordpool_EN.txt	PIT	6	3	[0, 0, 0]	n/a	FR1	1	R1010J
411.751	2.387	779307	WORD	n/a	wordpools/wordpool_EN.txt	CUP	7	3	[0, 0, 0]	n/a	FR1	1	R1010J
414.138	2.488	781694	WORD	n/a	wordpools/wordpool_EN.txt	HAND	8	3	[0, 0, 0]	n/a	FR1	1	R1010J
416.626	2.553	784182	WORD	n/a	wordpools/wordpool_EN.txt	PEACH	9	3	[0, 0, 0]	n/a	FR1	1	R1010J
419.179	2.555	786734	WORD	n/a	wordpools/wordpool_EN.txt	STONE	10	3	[0, 0, 0]	n/a	FR1	1	R1010J
421.734	2.453	789289	WORD	n/a	wordpools/wordpool_EN.txt	FLUTE	11	3	[0, 0, 0]	n/a	FR1	1	R1010J
424.187	1.604	791742	WORD	n/a	wordpools/wordpool_EN.txt	TOE	12	3	[0, 0, 0]	n/a	FR1	1	R1010J
425.791	0.001	793346	DISTRACT_START	n/a	n/a	n/a	-999	3	[0, 0, 0]	n/a	FR1	1	R1010J
425.792	0.016	793347	START	n/a	n/a	n/a	-999	3	[-999, -999, -999]	n/a	FR1	1	R1010J
425.808	9.665	793363	PROB	9.665	n/a	n/a	-999	3	[9, 6, 2]	17	FR1	1	R1010J
435.473	4.708	803028	PROB	4.708	n/a	n/a	-999	3	[3, 2, 1]	6	FR1	1	R1010J
440.181	3.088	807736	PROB	3.088	n/a	n/a	-999	3	[2, 6, 2]	10	FR1	1	R1010J
443.269	9.362	810824	PROB	9.362	n/a	n/a	-999	3	[5, 6, 9]	20	FR1	1	R1010J
452.631	0.022	820185	STOP	n/a	n/a	n/a	-999	3	[-999, -999, -999]	n/a	FR1	1	R1010J
452.653	1.224	820207	DISTRACT_END	n/a	n/a	n/a	-999	3	[0, 0, 0]	n/a	FR1	1	R1010J
453.877	10.888	821431	REC_START	n/a	n/a	n/a	-999	3	[0, 0, 0]	n/a	FR1	1	R1010J
464.765	19.106	832319	REC_WORD	19.106	n/a	BOARD	-999	3	[0, 0, 0]	n/a	FR1	1	R1010J
483.871	2.739	851424	REC_END	n/a	n/a	n/a	-999	3	[0, 0, 0]	n/a	FR1	1	R1010J
486.61	0.0	854163	COUNTDOWN_START	n/a	n/a	n/a	-999	4	[0, 0, 0]	n/a	FR1	1	R1010J
486.61	10.428	854163	TRIAL	n/a	n/a	n/a	-999	4	[0, 0, 0]	n/a	FR1	1	R1010J
497.038	0.005	864591	COUNTDOWN_END	n/a	n/a	n/a	-999	4	[0, 0, 0]	n/a	FR1	1	R1010J
497.043	2.387	864596	ORIENT	n/a	n/a	n/a	-999	4	[0, 0, 0]	n/a	FR1	1	R1010J
499.43	2.505	866983	WORD	n/a	wordpools/wordpool_EN.txt	CHEEK	1	4	[0, 0, 0]	n/a	FR1	1	R1010J
501.935	2.454	869487	WORD	n/a	wordpools/wordpool_EN.txt	RAIN	2	4	[0, 0, 0]	n/a	FR1	1	R1010J
504.389	2.604	871941	WORD	n/a	wordpools/wordpool_EN.txt	TOAST	3	4	[0, 0, 0]	n/a	FR1	1	R1010J
506.993	2.438	874545	WORD	n/a	wordpools/wordpool_EN.txt	CAPE	4	4	[0, 0, 0]	n/a	FR1	1	R1010J
509.431	2.421	876983	WORD	n/a	wordpools/wordpool_EN.txt	LAND	5	4	[0, 0, 0]	n/a	FR1	1	R1010J
511.852	2.42	879404	WORD	n/a	wordpools/wordpool_EN.txt	RICE	6	4	[0, 0, 0]	n/a	FR1	1	R1010J
514.272	2.405	881824	WORD	n/a	wordpools/wordpool_EN.txt	DOCK	7	4	[0, 0, 0]	n/a	FR1	1	R1010J
516.677	2.42	884229	WORD	n/a	wordpools/wordpool_EN.txt	CANE	8	4	[0, 0, 0]	n/a	FR1	1	R1010J
519.097	2.387	886649	WORD	n/a	wordpools/wordpool_EN.txt	SUN	9	4	[0, 0, 0]	n/a	FR1	1	R1010J
521.484	2.605	889036	WORD	n/a	wordpools/wordpool_EN.txt	SHIP	10	4	[0, 0, 0]	n/a	FR1	1	R1010J
524.089	2.588	891641	WORD	n/a	wordpools/wordpool_EN.txt	EEL	11	4	[0, 0, 0]	n/a	FR1	1	R1010J
526.677	1.619	894229	WORD	n/a	wordpools/wordpool_EN.txt	FOAM	12	4	[0, 0, 0]	n/a	FR1	1	R1010J
528.296	0.0	895847	DISTRACT_START	n/a	n/a	n/a	-999	4	[0, 0, 0]	n/a	FR1	1	R1010J
528.296	0.016	895847	START	n/a	n/a	n/a	-999	4	[-999, -999, -999]	n/a	FR1	1	R1010J
528.312	6.862	895863	PROB	6.862	n/a	n/a	-999	4	[1, 6, 7]	14	FR1	1	R1010J
535.174	5.125	902725	PROB	5.125	n/a	n/a	-999	4	[3, 6, 6]	15	FR1	1	R1010J
540.299	4.758	907850	PROB	4.758	n/a	n/a	-999	4	[7, 1, 2]	10	FR1	1	R1010J
545.057	5.429	912608	PROB	5.429	n/a	n/a	-999	4	[9, 2, 1]	12	FR1	1	R1010J
550.486	0.014	918037	STOP	n/a	n/a	n/a	-999	4	[-999, -999, -999]	n/a	FR1	1	R1010J
550.5	1.086	918051	DISTRACT_END	n/a	n/a	n/a	-999	4	[0, 0, 0]	n/a	FR1	1	R1010J
551.586	1.637	919137	REC_START	n/a	n/a	n/a	-999	4	[0, 0, 0]	n/a	FR1	1	R1010J
553.223	3.859	920774	REC_WORD	3.859	n/a	EEL	-999	4	[0, 0, 0]	n/a	FR1	1	R1010J
557.082	12.195	924632	REC_WORD	12.195	n/a	FOAM	-999	4	[0, 0, 0]	n/a	FR1	1	R1010J
569.277	12.325	936827	REC_WORD	12.325	n/a	CHECK	-999	4	[0, 0, 0]	n/a	FR1	1	R1010J
581.602	2.554	949152	REC_END	n/a	n/a	n/a	-999	4	[0, 0, 0]	n/a	FR1	1	R1010J
584.156	0.001	951705	COUNTDOWN_START	n/a	n/a	n/a	-999	5	[0, 0, 0]	n/a	FR1	1	R1010J
584.157	10.427	951706	TRIAL	n/a	n/a	n/a	-999	5	[0, 0, 0]	n/a	FR1	1	R1010J
594.584	0.008	962133	COUNTDOWN_END	n/a	n/a	n/a	-999	5	[0, 0, 0]	n/a	FR1	1	R1010J
594.592	2.403	962141	ORIENT	n/a	n/a	n/a	-999	5	[0, 0, 0]	n/a	FR1	1	R1010J
596.995	2.588	964544	WORD	n/a	wordpools/wordpool_EN.txt	BENCH	1	5	[0, 0, 0]	n/a	FR1	1	R1010J
599.583	2.47	967132	WORD	n/a	wordpools/wordpool_EN.txt	STRAW	2	5	[0, 0, 0]	n/a	FR1	1	R1010J
602.053	2.471	969602	WORD	n/a	wordpools/wordpool_EN.txt	YARD	3	5	[0, 0, 0]	n/a	FR1	1	R1010J
604.524	2.538	972073	WORD	n/a	wordpools/wordpool_EN.txt	FOOT	4	5	[0, 0, 0]	n/a	FR1	1	R1010J
607.062	2.454	974611	WORD	n/a	wordpools/wordpool_EN.txt	SHIRT	5	5	[0, 0, 0]	n/a	FR1	1	R1010J
609.516	2.504	977065	WORD	n/a	wordpools/wordpool_EN.txt	BOWL	6	5	[0, 0, 0]	n/a	FR1	1	R1010J
612.02	2.539	979568	WORD	n/a	wordpools/wordpool_EN.txt	FROG	7	5	[0, 0, 0]	n/a	FR1	1	R1010J
614.559	2.486	982107	WORD	n/a	wordpools/wordpool_EN.txt	ROSE	8	5	[0, 0, 0]	n/a	FR1	1	R1010J
617.045	2.489	984593	WORD	n/a	wordpools/wordpool_EN.txt	DOOR	9	5	[0, 0, 0]	n/a	FR1	1	R1010J
619.534	2.57	987082	WORD	n/a	wordpools/wordpool_EN.txt	BRUSH	10	5	[0, 0, 0]	n/a	FR1	1	R1010J
622.104	2.404	989652	WORD	n/a	wordpools/wordpool_EN.txt	CHAIR	11	5	[0, 0, 0]	n/a	FR1	1	R1010J
624.508	1.619	992056	WORD	n/a	wordpools/wordpool_EN.txt	TIE	12	5	[0, 0, 0]	n/a	FR1	1	R1010J
626.127	0.001	993675	DISTRACT_START	n/a	n/a	n/a	-999	5	[0, 0, 0]	n/a	FR1	1	R1010J
626.128	0.016	993676	START	n/a	n/a	n/a	-999	5	[-999, -999, -999]	n/a	FR1	1	R1010J
626.144	6.861	993692	PROB	6.861	n/a	n/a	-999	5	[5, 3, 9]	17	FR1	1	R1010J
633.005	4.408	1000553	PROB	4.408	n/a	n/a	-999	5	[1, 3, 5]	9	FR1	1	R1010J
637.413	6.345	1004961	PROB	6.345	n/a	n/a	-999	5	[2, 9, 6]	17	FR1	1	R1010J
643.758	4.993	1011305	PROB	4.993	n/a	n/a	-999	5	[1, 8, 9]	18	FR1	1	R1010J
648.751	0.015	1016298	STOP	n/a	n/a	n/a	-999	5	[-999, -999, -999]	n/a	FR1	1	R1010J
648.766	1.119	1016313	DISTRACT_END	n/a	n/a	n/a	-999	5	[0, 0, 0]	n/a	FR1	1	R1010J
649.885	30.017	1017432	REC_START	n/a	n/a	n/a	-999	5	[0, 0, 0]	n/a	FR1	1	R1010J
679.902	0.008	1047448	REC_WORD_VV	0.008	n/a	<>	-999	5	[0, 0, 0]	n/a	FR1	1	R1010J
679.91	2.379	1047456	REC_END	n/a	n/a	n/a	-999	5	[0, 0, 0]	n/a	FR1	1	R1010J
682.289	0.0	1049835	TRIAL	n/a	n/a	n/a	-999	6	[0, 0, 0]	n/a	FR1	1	R1010J
682.289	10.428	1049835	COUNTDOWN_START	n/a	n/a	n/a	-999	6	[0, 0, 0]	n/a	FR1	1	R1010J
692.717	0.006	1060263	COUNTDOWN_END	n/a	n/a	n/a	-999	6	[0, 0, 0]	n/a	FR1	1	R1010J
692.723	2.554	1060269	ORIENT	n/a	n/a	n/a	-999	6	[0, 0, 0]	n/a	FR1	1	R1010J
695.277	2.438	1062822	WORD	n/a	wordpools/wordpool_EN.txt	SCHOOL	1	6	[0, 0, 0]	n/a	FR1	1	R1010J
697.715	2.47	1065260	WORD	n/a	wordpools/wordpool_EN.txt	DRESS	2	6	[0, 0, 0]	n/a	FR1	1	R1010J
700.185	2.605	1067730	WORD	n/a	wordpools/wordpool_EN.txt	HORN	3	6	[0, 0, 0]	n/a	FR1	1	R1010J
702.79	2.487	1070335	WORD	n/a	wordpools/wordpool_EN.txt	ROOF	4	6	[0, 0, 0]	n/a	FR1	1	R1010J
705.277	2.589	1072822	WORD	n/a	wordpools/wordpool_EN.txt	STREET	5	6	[0, 0, 0]	n/a	FR1	1	R1010J
707.866	2.519	1075411	WORD	n/a	wordpools/wordpool_EN.txt	SLEEVE	6	6	[0, 0, 0]	n/a	FR1	1	R1010J
710.385	2.439	1077930	WORD	n/a	wordpools/wordpool_EN.txt	DART	7	6	[0, 0, 0]	n/a	FR1	1	R1010J
712.824	2.57	1080369	WORD	n/a	wordpools/wordpool_EN.txt	THUMB	8	6	[0, 0, 0]	n/a	FR1	1	R1010J
715.394	2.505	1082939	WORD	n/a	wordpools/wordpool_EN.txt	PEN	9	6	[0, 0, 0]	n/a	FR1	1	R1010J
717.899	2.42	1085444	WORD	n/a	wordpools/wordpool_EN.txt	VEST	10	6	[0, 0, 0]	n/a	FR1	1	R1010J
720.319	2.423	1087864	WORD	n/a	wordpools/wordpool_EN.txt	STICK	11	6	[0, 0, 0]	n/a	FR1	1	R1010J
722.742	1.617	1090286	WORD	n/a	wordpools/wordpool_EN.txt	PURSE	12	6	[0, 0, 0]	n/a	FR1	1	R1010J
724.359	0.001	1091903	DISTRACT_START	n/a	n/a	n/a	-999	6	[0, 0, 0]	n/a	FR1	1	R1010J
724.36	0.016	1091904	START	n/a	n/a	n/a	-999	6	[-999, -999, -999]	n/a	FR1	1	R1010J
724.376	7.263	1091920	PROB	7.263	n/a	n/a	-999	6	[8, 9, 1]	18	FR1	1	R1010J
731.639	3.906	1099183	PROB	3.906	n/a	n/a	-999	6	[3, 8, 8]	19	FR1	1	R1010J
735.545	9.094	1103089	PROB	9.094	n/a	n/a	-999	6	[4, 7, 8]	19	FR1	1	R1010J
744.639	0.022	1112183	STOP	n/a	n/a	n/a	-999	6	[-999, -999, -999]	n/a	FR1	1	R1010J
744.661	1.085	1112205	DISTRACT_END	n/a	n/a	n/a	-999	6	[0, 0, 0]	n/a	FR1	1	R1010J
745.746	1.935	1113290	REC_START	n/a	n/a	n/a	-999	6	[0, 0, 0]	n/a	FR1	1	R1010J
747.681	1.97	1115225	REC_WORD	1.97	n/a	HORN	-999	6	[0, 0, 0]	n/a	FR1	1	R1010J
749.651	3.521	1117195	REC_WORD	3.521	n/a	VEST	-999	6	[0, 0, 0]	n/a	FR1	1	R1010J
753.172	13.758	1120715	REC_WORD	13.758	n/a	SLEEVE	-999	6	[0, 0, 0]	n/a	FR1	1	R1010J
766.93	8.84	1134473	REC_WORD	8.84	n/a	BIKE	-999	6	[0, 0, 0]	n/a	FR1	1	R1010J
775.77	3.382	1143313	REC_END	n/a	n/a	n/a	-999	6	[0, 0, 0]	n/a	FR1	1	R1010J
779.152	0.001	1146694	COUNTDOWN_START	n/a	n/a	n/a	-999	7	[0, 0, 0]	n/a	FR1	1	R1010J
779.153	10.427	1146695	TRIAL	n/a	n/a	n/a	-999	7	[0, 0, 0]	n/a	FR1	1	R1010J
789.58	0.006	1157122	COUNTDOWN_END	n/a	n/a	n/a	-999	7	[0, 0, 0]	n/a	FR1	1	R1010J
789.586	2.504	1157128	ORIENT	n/a	n/a	n/a	-999	7	[0, 0, 0]	n/a	FR1	1	R1010J
792.09	2.455	1159632	WORD	n/a	wordpools/wordpool_EN.txt	SMILE	1	7	[0, 0, 0]	n/a	FR1	1	R1010J
794.545	2.604	1162087	WORD	n/a	wordpools/wordpool_EN.txt	FAN	2	7	[0, 0, 0]	n/a	FR1	1	R1010J
797.149	2.571	1164691	WORD	n/a	wordpools/wordpool_EN.txt	CART	3	7	[0, 0, 0]	n/a	FR1	1	R1010J
799.72	2.487	1167262	WORD	n/a	wordpools/wordpool_EN.txt	SEAT	4	7	[0, 0, 0]	n/a	FR1	1	R1010J
802.207	2.438	1169749	WORD	n/a	wordpools/wordpool_EN.txt	BOX	5	7	[0, 0, 0]	n/a	FR1	1	R1010J
804.645	2.52	1172187	WORD	n/a	wordpools/wordpool_EN.txt	GLOVE	6	7	[0, 0, 0]	n/a	FR1	1	R1010J
807.165	2.455	1174706	WORD	n/a	wordpools/wordpool_EN.txt	WAND	7	7	[0, 0, 0]	n/a	FR1	1	R1010J
809.62	2.487	1177161	WORD	n/a	wordpools/wordpool_EN.txt	ARM	8	7	[0, 0, 0]	n/a	FR1	1	R1010J
812.107	2.422	1179648	WORD	n/a	wordpools/wordpool_EN.txt	BAG	9	7	[0, 0, 0]	n/a	FR1	1	R1010J
814.529	2.619	1182070	WORD	n/a	wordpools/wordpool_EN.txt	BROOM	10	7	[0, 0, 0]	n/a	FR1	1	R1010J
817.148	2.489	1184689	WORD	n/a	wordpools/wordpool_EN.txt	FENCE	11	7	[0, 0, 0]	n/a	FR1	1	R1010J
819.637	1.618	1187178	WORD	n/a	wordpools/wordpool_EN.txt	SIGN	12	7	[0, 0, 0]	n/a	FR1	1	R1010J
821.255	0.001	1188796	DISTRACT_START	n/a	n/a	n/a	-999	7	[0, 0, 0]	n/a	FR1	1	R1010J
821.256	0.016	1188797	START	n/a	n/a	n/a	-999	7	[-999, -999, -999]	n/a	FR1	1	R1010J
821.272	7.614	1188813	PROB	7.614	n/a	n/a	-999	7	[4, 1, 8]	13	FR1	1	R1010J
828.886	9.716	1196427	PROB	9.716	n/a	n/a	-999	7	[5, 9, 3]	17	FR1	1	R1010J
838.602	3.42	1206142	PROB	3.42	n/a	n/a	-999	7	[8, 6, 4]	18	FR1	1	R1010J
842.022	0.018	1209562	STOP	n/a	n/a	n/a	-999	7	[-999, -999, -999]	n/a	FR1	1	R1010J
842.04	1.053	1209580	DISTRACT_END	n/a	n/a	n/a	-999	7	[0, 0, 0]	n/a	FR1	1	R1010J
843.093	3.33	1210633	REC_START	n/a	n/a	n/a	-999	7	[0, 0, 0]	n/a	FR1	1	R1010J
846.423	5.132	1213963	REC_WORD	5.132	n/a	SIGN	-999	7	[0, 0, 0]	n/a	FR1	1	R1010J
851.555	11.385	1219095	REC_WORD	11.385	n/a	BROOM	-999	7	[0, 0, 0]	n/a	FR1	1	R1010J
862.94	10.168	1230479	REC_WORD	10.168	n/a	THUMB	-999	7	[0, 0, 0]	n/a	FR1	1	R1010J
873.108	2.823	1240647	REC_END	n/a	n/a	n/a	-999	7	[0, 0, 0]	n/a	FR1	1	R1010J
875.931	0.0	1243470	TRIAL	n/a	n/a	n/a	-999	8	[0, 0, 0]	n/a	FR1	1	R1010J
875.931	10.428	1243470	COUNTDOWN_START	n/a	n/a	n/a	-999	8	[0, 0, 0]	n/a	FR1	1	R1010J
886.359	0.006	1253898	COUNTDOWN_END	n/a	n/a	n/a	-999	8	[0, 0, 0]	n/a	FR1	1	R1010J
886.365	2.604	1253904	ORIENT	n/a	n/a	n/a	-999	8	[0, 0, 0]	n/a	FR1	1	R1010J
888.969	2.421	1256508	WORD	n/a	wordpools/wordpool_EN.txt	BRANCH	1	8	[0, 0, 0]	n/a	FR1	1	R1010J
891.39	2.422	1258928	WORD	n/a	wordpools/wordpool_EN.txt	LAMB	2	8	[0, 0, 0]	n/a	FR1	1	R1010J
893.812	2.419	1261350	WORD	n/a	wordpools/wordpool_EN.txt	AXE	3	8	[0, 0, 0]	n/a	FR1	1	R1010J
896.231	2.389	1263769	WORD	n/a	wordpools/wordpool_EN.txt	WORLD	4	8	[0, 0, 0]	n/a	FR1	1	R1010J
898.62	2.47	1266158	WORD	n/a	wordpools/wordpool_EN.txt	SPEAR	5	8	[0, 0, 0]	n/a	FR1	1	R1010J
901.09	2.455	1268628	WORD	n/a	wordpools/wordpool_EN.txt	PEARL	6	8	[0, 0, 0]	n/a	FR1	1	R1010J
903.545	2.453	1271083	WORD	n/a	wordpools/wordpool_EN.txt	BLOOM	7	8	[0, 0, 0]	n/a	FR1	1	R1010J
905.998	2.487	1273536	WORD	n/a	wordpools/wordpool_EN.txt	THREAD	8	8	[0, 0, 0]	n/a	FR1	1	R1010J
908.485	2.521	1276023	WORD	n/a	wordpools/wordpool_EN.txt	MOTH	9	8	[0, 0, 0]	n/a	FR1	1	R1010J
911.006	2.606	1278544	WORD	n/a	wordpools/wordpool_EN.txt	PLANT	10	8	[0, 0, 0]	n/a	FR1	1	R1010J
913.612	2.62	1281150	WORD	n/a	wordpools/wordpool_EN.txt	FOOD	11	8	[0, 0, 0]	n/a	FR1	1	R1010J
916.232	1.62	1283770	WORD	n/a	wordpools/wordpool_EN.txt	BEE	12	8	[0, 0, 0]	n/a	FR1	1	R1010J
917.852	0.001	1285389	DISTRACT_START	n/a	n/a	n/a	-999	8	[0, 0, 0]	n/a	FR1	1	R1010J
917.853	0.016	1285390	START	n/a	n/a	n/a	-999	8	[-999, -999, -999]	n/a	FR1	1	R1010J
917.869	8.513	1285406	PROB	8.513	n/a	n/a	-999	8	[3, 8, 9]	20	FR1	1	R1010J
926.382	12.202	1293919	PROB	12.202	n/a	n/a	-999	8	[8, 6, 5]	19	FR1	1	R1010J
938.584	0.02	1306121	STOP	n/a	n/a	n/a	-999	8	[-999, -999, -999]	n/a	FR1	1	R1010J
938.604	1.202	1306141	DISTRACT_END	n/a	n/a	n/a	-999	8	[0, 0, 0]	n/a	FR1	1	R1010J
939.806	2.233	1307343	REC_START	n/a	n/a	n/a	-999	8	[0, 0, 0]	n/a	FR1	1	R1010J
942.039	1.934	1309576	REC_WORD	1.934	n/a	PLANT	-999	8	[0, 0, 0]	n/a	FR1	1	R1010J
943.973	2.132	1311510	REC_WORD	2.132	n/a	AXE	-999	8	[0, 0, 0]	n/a	FR1	1	R1010J
946.105	5.321	1313641	REC_WORD	5.321	n/a	BLOOM	-999	8	[0, 0, 0]	n/a	FR1	1	R1010J
951.426	18.395	1318962	REC_WORD	18.395	n/a	FLOOD	-999	8	[0, 0, 0]	n/a	FR1	1	R1010J
969.821	10.385	1337357	REC_END	n/a	n/a	n/a	-999	8	[0, 0, 0]	n/a	FR1	1	R1010J
980.206	0.001	1347741	COUNTDOWN_START	n/a	n/a	n/a	-999	9	[0, 0, 0]	n/a	FR1	1	R1010J
980.207	10.427	1347742	TRIAL	n/a	n/a	n/a	-999	9	[0, 0, 0]	n/a	FR1	1	R1010J
990.634	0.007	1358169	COUNTDOWN_END	n/a	n/a	n/a	-999	9	[0, 0, 0]	n/a	FR1	1	R1010J
990.641	2.403	1358176	ORIENT	n/a	n/a	n/a	-999	9	[0, 0, 0]	n/a	FR1	1	R1010J
993.044	2.421	1360579	WORD	n/a	wordpools/wordpool_EN.txt	SUIT	1	9	[0, 0, 0]	n/a	FR1	1	R1010J
995.465	2.504	1363000	WORD	n/a	wordpools/wordpool_EN.txt	SEED	2	9	[0, 0, 0]	n/a	FR1	1	R1010J
997.969	2.471	1365504	WORD	n/a	wordpools/wordpool_EN.txt	MAIL	3	9	[0, 0, 0]	n/a	FR1	1	R1010J
1000.44	2.388	1367975	WORD	n/a	wordpools/wordpool_EN.txt	FLOOR	4	9	[0, 0, 0]	n/a	FR1	1	R1010J
1002.828	2.57	1370362	WORD	n/a	wordpools/wordpool_EN.txt	VASE	5	9	[0, 0, 0]	n/a	FR1	1	R1010J
1005.398	2.538	1372932	WORD	n/a	wordpools/wordpool_EN.txt	DESK	6	9	[0, 0, 0]	n/a	FR1	1	R1010J
1007.936	2.605	1375470	WORD	n/a	wordpools/wordpool_EN.txt	CONE	7	9	[0, 0, 0]	n/a	FR1	1	R1010J
1010.541	2.454	1378075	WORD	n/a	wordpools/wordpool_EN.txt	ELF	8	9	[0, 0, 0]	n/a	FR1	1	R1010J
1012.995	2.622	1380529	WORD	n/a	wordpools/wordpool_EN.txt	SNOW	9	9	[0, 0, 0]	n/a	FR1	1	R1010J
1015.617	2.403	1383151	WORD	n/a	wordpools/wordpool_EN.txt	POLE	10	9	[0, 0, 0]	n/a	FR1	1	R1010J
1018.02	2.588	1385554	WORD	n/a	wordpools/wordpool_EN.txt	ICE	11	9	[0, 0, 0]	n/a	FR1	1	R1010J
1020.608	1.619	1388142	WORD	n/a	wordpools/wordpool_EN.txt	JUICE	12	9	[0, 0, 0]	n/a	FR1	1	R1010J
1022.227	0.001	1389761	DISTRACT_START	n/a	n/a	n/a	-999	9	[0, 0, 0]	n/a	FR1	1	R1010J
1022.228	0.016	1389762	START	n/a	n/a	n/a	-999	9	[-999, -999, -999]	n/a	FR1	1	R1010J
1022.244	7.446	1389778	PROB	7.446	n/a	n/a	-999	9	[4, 7, 2]	13	FR1	1	R1010J
1029.69	5.176	1397223	PROB	5.176	n/a	n/a	-999	9	[2, 6, 5]	13	FR1	1	R1010J
1034.866	5.976	1402399	PROB	5.976	n/a	n/a	-999	9	[8, 8, 3]	19	FR1	1	R1010J
1040.842	8.718	1408375	PROB	8.718	n/a	n/a	-999	9	[5, 7, 6]	18	FR1	1	R1010J
1049.56	0.014	1417093	STOP	n/a	n/a	n/a	-999	9	[-999, -999, -999]	n/a	FR1	1	R1010J
1049.574	1.219	1417107	DISTRACT_END	n/a	n/a	n/a	-999	9	[0, 0, 0]	n/a	FR1	1	R1010J
1050.793	2.303	1418326	REC_START	n/a	n/a	n/a	-999	9	[0, 0, 0]	n/a	FR1	1	R1010J
1053.096	2.358	1420629	REC_WORD	2.358	n/a	FLOOR	-999	9	[0, 0, 0]	n/a	FR1	1	R1010J
1055.454	2.206	1422987	REC_WORD	2.206	n/a	ELF	-999	9	[0, 0, 0]	n/a	FR1	1	R1010J
1057.66	1.809	1425192	REC_WORD	1.809	n/a	ICE	-999	9	[0, 0, 0]	n/a	FR1	1	R1010J
1059.469	21.338	1427001	REC_WORD	21.338	n/a	SNOW	-999	9	[0, 0, 0]	n/a	FR1	1	R1010J
1080.807	2.706	1448339	REC_END	n/a	n/a	n/a	-999	9	[0, 0, 0]	n/a	FR1	1	R1010J
1083.513	0.001	1451045	COUNTDOWN_START	n/a	n/a	n/a	-999	10	[0, 0, 0]	n/a	FR1	1	R1010J
1083.514	10.427	1451046	TRIAL	n/a	n/a	n/a	-999	10	[0, 0, 0]	n/a	FR1	1	R1010J
1093.941	0.006	1461472	COUNTDOWN_END	n/a	n/a	n/a	-999	10	[0, 0, 0]	n/a	FR1	1	R1010J
1093.947	2.421	1461478	ORIENT	n/a	n/a	n/a	-999	10	[0, 0, 0]	n/a	FR1	1	R1010J
1096.368	2.422	1463899	WORD	n/a	wordpools/wordpool_EN.txt	KEY	1	10	[0, 0, 0]	n/a	FR1	1	R1010J
1098.79	2.487	1466321	WORD	n/a	wordpools/wordpool_EN.txt	MAP	2	10	[0, 0, 0]	n/a	FR1	1	R1010J
1101.277	2.538	1468808	WORD	n/a	wordpools/wordpool_EN.txt	CLOWN	3	10	[0, 0, 0]	n/a	FR1	1	R1010J
1103.815	2.554	1471346	WORD	n/a	wordpools/wordpool_EN.txt	FRUIT	4	10	[0, 0, 0]	n/a	FR1	1	R1010J
1106.369	2.521	1473900	WORD	n/a	wordpools/wordpool_EN.txt	FISH	5	10	[0, 0, 0]	n/a	FR1	1	R1010J
1108.89	2.57	1476421	WORD	n/a	wordpools/wordpool_EN.txt	CHIEF	6	10	[0, 0, 0]	n/a	FR1	1	R1010J
1111.46	2.454	1478991	WORD	n/a	wordpools/wordpool_EN.txt	MILK	7	10	[0, 0, 0]	n/a	FR1	1	R1010J
1113.914	2.405	1481444	WORD	n/a	wordpools/wordpool_EN.txt	SHARK	8	10	[0, 0, 0]	n/a	FR1	1	R1010J
1116.319	2.438	1483849	WORD	n/a	wordpools/wordpool_EN.txt	FORT	9	10	[0, 0, 0]	n/a	FR1	1	R1010J
1118.757	2.62	1486287	WORD	n/a	wordpools/wordpool_EN.txt	SEA	10	10	[0, 0, 0]	n/a	FR1	1	R1010J
1121.377	2.604	1488907	WORD	n/a	wordpools/wordpool_EN.txt	JUDGE	11	10	[0, 0, 0]	n/a	FR1	1	R1010J
1123.981	1.604	1491511	WORD	n/a	wordpools/wordpool_EN.txt	PASTE	12	10	[0, 0, 0]	n/a	FR1	1	R1010J
1125.585	0.001	1493115	DISTRACT_START	n/a	n/a	n/a	-999	10	[0, 0, 0]	n/a	FR1	1	R1010J
1125.586	0.016	1493116	START	n/a	n/a	n/a	-999	10	[-999, -999, -999]	n/a	FR1	1	R1010J
1125.602	3.505	1493132	PROB	3.505	n/a	n/a	-999	10	[9, 8, 1]	18	FR1	1	R1010J
1129.107	6.394	1496637	PROB	6.394	n/a	n/a	-999	10	[9, 8, 1]	18	FR1	1	R1010J
1135.501	4.691	1503031	PROB	4.691	n/a	n/a	-999	10	[6, 9, 1]	16	FR1	1	R1010J
1140.192	11.551	1507721	PROB	11.551	n/a	n/a	-999	10	[9, 5, 7]	21	FR1	1	R1010J
1151.743	0.019	1519272	STOP	n/a	n/a	n/a	-999	10	[-999, -999, -999]	n/a	FR1	1	R1010J
1151.762	1.12	1519291	DISTRACT_END	n/a	n/a	n/a	-999	10	[0, 0, 0]	n/a	FR1	1	R1010J
1152.882	3.591	1520411	REC_START	n/a	n/a	n/a	-999	10	[0, 0, 0]	n/a	FR1	1	R1010J
1156.473	5.778	1524002	REC_WORD	5.778	n/a	JUDGE	-999	10	[0, 0, 0]	n/a	FR1	1	R1010J
1162.251	20.646	1529780	REC_WORD	20.646	n/a	ROOF	-999	10	[0, 0, 0]	n/a	FR1	1	R1010J
1182.897	3.456	1550425	REC_END	n/a	n/a	n/a	-999	10	[0, 0, 0]	n/a	FR1	1	R1010J
1186.353	0.0	1553881	TRIAL	n/a	n/a	n/a	-999	11	[0, 0, 0]	n/a	FR1	1	R1010J
1186.353	10.428	1553881	COUNTDOWN_START	n/a	n/a	n/a	-999	11	[0, 0, 0]	n/a	FR1	1	R1010J
1196.781	0.007	1564308	COUNTDOWN_END	n/a	n/a	n/a	-999	11	[0, 0, 0]	n/a	FR1	1	R1010J
1196.788	2.403	1564315	ORIENT	n/a	n/a	n/a	-999	11	[0, 0, 0]	n/a	FR1	1	R1010J
1199.191	2.539	1566718	WORD	n/a	wordpools/wordpool_EN.txt	CRANE	1	11	[0, 0, 0]	n/a	FR1	1	R1010J
1201.73	2.42	1569257	WORD	n/a	wordpools/wordpool_EN.txt	LOCK	2	11	[0, 0, 0]	n/a	FR1	1	R1010J
1204.15	2.539	1571677	WORD	n/a	wordpools/wordpool_EN.txt	CROW	3	11	[0, 0, 0]	n/a	FR1	1	R1010J
1206.689	2.452	1574216	WORD	n/a	wordpools/wordpool_EN.txt	OAK	4	11	[0, 0, 0]	n/a	FR1	1	R1010J
1209.141	2.574	1576668	WORD	n/a	wordpools/wordpool_EN.txt	HOLE	5	11	[0, 0, 0]	n/a	FR1	1	R1010J
1211.715	2.602	1579242	WORD	n/a	wordpools/wordpool_EN.txt	GUARD	6	11	[0, 0, 0]	n/a	FR1	1	R1010J
1214.317	2.455	1581844	WORD	n/a	wordpools/wordpool_EN.txt	LIP	7	11	[0, 0, 0]	n/a	FR1	1	R1010J
1216.772	2.62	1584299	WORD	n/a	wordpools/wordpool_EN.txt	TOOL	8	11	[0, 0, 0]	n/a	FR1	1	R1010J
1219.392	2.438	1586919	WORD	n/a	wordpools/wordpool_EN.txt	COUCH	9	11	[0, 0, 0]	n/a	FR1	1	R1010J
1221.83	2.454	1589357	WORD	n/a	wordpools/wordpool_EN.txt	LAWN	10	11	[0, 0, 0]	n/a	FR1	1	R1010J
1224.284	2.405	1591810	WORD	n/a	wordpools/wordpool_EN.txt	TENT	11	11	[0, 0, 0]	n/a	FR1	1	R1010J
1226.689	1.618	1594215	WORD	n/a	wordpools/wordpool_EN.txt	CUBE	12	11	[0, 0, 0]	n/a	FR1	1	R1010J
1228.307	0.001	1595833	DISTRACT_START	n/a	n/a	n/a	-999	11	[0, 0, 0]	n/a	FR1	1	R1010J
1228.308	0.016	1595834	START	n/a	n/a	n/a	-999	11	[-999, -999, -999]	n/a	FR1	1	R1010J
1228.324	10.183	1595850	PROB	10.183	n/a	n/a	-999	11	[7, 6, 6]	19	FR1	1	R1010J
1238.507	6.929	1606033	PROB	6.929	n/a	n/a	-999	11	[1, 7, 5]	13	FR1	1	R1010J
1245.436	5.786	1612962	PROB	5.786	n/a	n/a	-999	11	[8, 4, 3]	15	FR1	1	R1010J
1251.222	0.007	1618747	STOP	n/a	n/a	n/a	-999	11	[-999, -999, -999]	n/a	FR1	1	R1010J
1251.229	1.202	1618754	DISTRACT_END	n/a	n/a	n/a	-999	11	[0, 0, 0]	n/a	FR1	1	R1010J
1252.431	12.962	1619956	REC_START	n/a	n/a	n/a	-999	11	[0, 0, 0]	n/a	FR1	1	R1010J
1265.393	10.707	1632918	REC_WORD	10.707	n/a	CLOWN	-999	11	[0, 0, 0]	n/a	FR1	1	R1010J
1276.1	6.346	1643625	REC_WORD	6.346	n/a	LIP	-999	11	[0, 0, 0]	n/a	FR1	1	R1010J
1282.446	2.407	1649970	REC_END	n/a	n/a	n/a	-999	11	[0, 0, 0]	n/a	FR1	1	R1010J
1284.853	0.0	1652377	TRIAL	n/a	n/a	n/a	-999	12	[0, 0, 0]	n/a	FR1	1	R1010J
1284.853	10.428	1652377	COUNTDOWN_START	n/a	n/a	n/a	-999	12	[0, 0, 0]	n/a	FR1	1	R1010J
1295.281	0.005	1662805	COUNTDOWN_END	n/a	n/a	n/a	-999	12	[0, 0, 0]	n/a	FR1	1	R1010J
1295.286	2.606	1662810	ORIENT	n/a	n/a	n/a	-999	12	[0, 0, 0]	n/a	FR1	1	R1010J
1297.892	2.62	1665416	WORD	n/a	wordpools/wordpool_EN.txt	STRING	1	12	[0, 0, 0]	n/a	FR1	1	R1010J
1300.512	2.572	1668036	WORD	n/a	wordpools/wordpool_EN.txt	CLOUD	2	12	[0, 0, 0]	n/a	FR1	1	R1010J
1303.084	2.419	1670608	WORD	n/a	wordpools/wordpool_EN.txt	HOOK	3	12	[0, 0, 0]	n/a	FR1	1	R1010J
1305.503	2.488	1673027	WORD	n/a	wordpools/wordpool_EN.txt	PEA	4	12	[0, 0, 0]	n/a	FR1	1	R1010J
1307.991	2.521	1675514	WORD	n/a	wordpools/wordpool_EN.txt	TREE	5	12	[0, 0, 0]	n/a	FR1	1	R1010J
1310.512	2.554	1678035	WORD	n/a	wordpools/wordpool_EN.txt	HEN	6	12	[0, 0, 0]	n/a	FR1	1	R1010J
1313.066	2.572	1680589	WORD	n/a	wordpools/wordpool_EN.txt	OWL	7	12	[0, 0, 0]	n/a	FR1	1	R1010J
1315.638	2.553	1683161	WORD	n/a	wordpools/wordpool_EN.txt	PIN	8	12	[0, 0, 0]	n/a	FR1	1	R1010J
1318.191	2.606	1685714	WORD	n/a	wordpools/wordpool_EN.txt	PLANE	9	12	[0, 0, 0]	n/a	FR1	1	R1010J
1320.797	2.57	1688320	WORD	n/a	wordpools/wordpool_EN.txt	SKY	10	12	[0, 0, 0]	n/a	FR1	1	R1010J
1323.367	2.405	1690890	WORD	n/a	wordpools/wordpool_EN.txt	NEST	11	12	[0, 0, 0]	n/a	FR1	1	R1010J
1325.772	1.618	1693295	WORD	n/a	wordpools/wordpool_EN.txt	SQUARE	12	12	[0, 0, 0]	n/a	FR1	1	R1010J
1327.39	0.001	1694913	DISTRACT_START	n/a	n/a	n/a	-999	12	[0, 0, 0]	n/a	FR1	1	R1010J
1327.391	0.016	1694914	START	n/a	n/a	n/a	-999	12	[-999, -999, -999]	n/a	FR1	1	R1010J
1327.407	3.823	1694930	PROB	3.823	n/a	n/a	-999	12	[4, 6, 2]	12	FR1	1	R1010J
1331.23	4.442	1698753	PROB	4.442	n/a	n/a	-999	12	[3, 5, 3]	11	FR1	1	R1010J
1335.672	3.538	1703194	PROB	3.538	n/a	n/a	-999	12	[5, 2, 2]	9	FR1	1	R1010J
1339.21	6.646	1706732	PROB	6.646	n/a	n/a	-999	12	[9, 2, 3]	14	FR1	1	R1010J
1345.856	5.848	1713378	PROB	5.848	n/a	n/a	-999	12	[2, 5, 8]	15	FR1	1	R1010J
1351.704	0.012	1719226	STOP	n/a	n/a	n/a	-999	12	[-999, -999, -999]	n/a	FR1	1	R1010J
1351.716	1.052	1719238	DISTRACT_END	n/a	n/a	n/a	-999	12	[0, 0, 0]	n/a	FR1	1	R1010J
1352.768	1.501	1720290	REC_START	n/a	n/a	n/a	-999	12	[0, 0, 0]	n/a	FR1	1	R1010J
1354.269	5.682	1721791	REC_WORD	5.682	n/a	HEN	-999	12	[0, 0, 0]	n/a	FR1	1	R1010J
1359.951	14.923	1727473	REC_WORD	14.923	n/a	CLOUD	-999	12	[0, 0, 0]	n/a	FR1	1	R1010J
1374.874	4.294	1742395	REC_WORD	4.294	n/a	STRING	-999	12	[0, 0, 0]	n/a	FR1	1	R1010J
1379.168	3.614	1746689	REC_WORD	3.614	n/a	HOOK	-999	12	[0, 0, 0]	n/a	FR1	1	R1010J
1382.782	2.255	1750303	REC_END	n/a	n/a	n/a	-999	12	[0, 0, 0]	n/a	FR1	1	R1010J
1385.037	0.001	1752558	COUNTDOWN_START	n/a	n/a	n/a	-999	13	[0, 0, 0]	n/a	FR1	1	R1010J
1385.038	10.427	1752559	TRIAL	n/a	n/a	n/a	-999	13	[0, 0, 0]	n/a	FR1	1	R1010J
1395.465	0.007	1762985	COUNTDOWN_END	n/a	n/a	n/a	-999	13	[0, 0, 0]	n/a	FR1	1	R1010J
1395.472	2.571	1762992	ORIENT	n/a	n/a	n/a	-999	13	[0, 0, 0]	n/a	FR1	1	R1010J
1398.043	2.572	1765563	WORD	n/a	wordpools/wordpool_EN.txt	TAIL	1	13	[0, 0, 0]	n/a	FR1	1	R1010J
1400.615	2.436	1768135	WORD	n/a	wordpools/wordpool_EN.txt	MOUSE	2	13	[0, 0, 0]	n/a	FR1	1	R1010J
1403.051	2.437	1770571	WORD	n/a	wordpools/wordpool_EN.txt	ROPE	3	13	[0, 0, 0]	n/a	FR1	1	R1010J
1405.488	2.439	1773008	WORD	n/a	wordpools/wordpool_EN.txt	WEB	4	13	[0, 0, 0]	n/a	FR1	1	R1010J
1407.927	2.586	1775447	WORD	n/a	wordpools/wordpool_EN.txt	MUG	5	13	[0, 0, 0]	n/a	FR1	1	R1010J
1410.513	2.455	1778033	WORD	n/a	wordpools/wordpool_EN.txt	SKUNK	6	13	[0, 0, 0]	n/a	FR1	1	R1010J
1412.968	2.42	1780488	WORD	n/a	wordpools/wordpool_EN.txt	SHEEP	7	13	[0, 0, 0]	n/a	FR1	1	R1010J
1415.388	2.439	1782908	WORD	n/a	wordpools/wordpool_EN.txt	PET	8	13	[0, 0, 0]	n/a	FR1	1	R1010J
1417.827	2.403	1785346	WORD	n/a	wordpools/wordpool_EN.txt	CLOTH	9	13	[0, 0, 0]	n/a	FR1	1	R1010J
1420.23	2.405	1787749	WORD	n/a	wordpools/wordpool_EN.txt	HAWK	10	13	[0, 0, 0]	n/a	FR1	1	R1010J
1422.635	2.57	1790154	WORD	n/a	wordpools/wordpool_EN.txt	FUDGE	11	13	[0, 0, 0]	n/a	FR1	1	R1010J
1425.205	1.604	1792724	WORD	n/a	wordpools/wordpool_EN.txt	CALF	12	13	[0, 0, 0]	n/a	FR1	1	R1010J
1426.809	0.0	1794328	DISTRACT_START	n/a	n/a	n/a	-999	13	[0, 0, 0]	n/a	FR1	1	R1010J
1426.809	0.016	1794328	START	n/a	n/a	n/a	-999	13	[-999, -999, -999]	n/a	FR1	1	R1010J
1426.825	5.292	1794344	PROB	5.292	n/a	n/a	-999	13	[9, 2, 3]	14	FR1	1	R1010J
1432.117	6.377	1799636	PROB	6.377	n/a	n/a	-999	13	[7, 5, 4]	16	FR1	1	R1010J
1438.494	2.471	1806013	PROB	2.471	n/a	n/a	-999	13	[5, 5, 2]	12	FR1	1	R1010J
1440.965	3.422	1808484	PROB	3.422	n/a	n/a	-999	13	[4, 5, 5]	14	FR1	1	R1010J
1444.387	5.691	1811906	PROB	5.691	n/a	n/a	-999	13	[8, 9, 1]	18	FR1	1	R1010J
1450.078	0.019	1817596	STOP	n/a	n/a	n/a	-999	13	[-999, -999, -999]	n/a	FR1	1	R1010J
1450.097	1.102	1817615	DISTRACT_END	n/a	n/a	n/a	-999	13	[0, 0, 0]	n/a	FR1	1	R1010J
1451.199	2.224	1818717	REC_START	n/a	n/a	n/a	-999	13	[0, 0, 0]	n/a	FR1	1	R1010J
1453.423	1.91	1820941	REC_WORD	1.91	n/a	CALF	-999	13	[0, 0, 0]	n/a	FR1	1	R1010J
1455.333	2.09	1822851	REC_WORD	2.09	n/a	MOUSE	-999	13	[0, 0, 0]	n/a	FR1	1	R1010J
1457.423	2.606	1824941	REC_WORD	2.606	n/a	TAIL	-999	13	[0, 0, 0]	n/a	FR1	1	R1010J
1460.029	21.186	1827547	REC_WORD	21.186	n/a	ROPE	-999	13	[0, 0, 0]	n/a	FR1	1	R1010J
1481.215	2.389	1848732	REC_END	n/a	n/a	n/a	-999	13	[0, 0, 0]	n/a	FR1	1	R1010J
1483.604	0.001	1851121	COUNTDOWN_START	n/a	n/a	n/a	-999	14	[0, 0, 0]	n/a	FR1	1	R1010J
1483.605	10.427	1851122	TRIAL	n/a	n/a	n/a	-999	14	[0, 0, 0]	n/a	FR1	1	R1010J
1494.032	0.005	1861549	COUNTDOWN_END	n/a	n/a	n/a	-999	14	[0, 0, 0]	n/a	FR1	1	R1010J
1494.037	2.556	1861554	ORIENT	n/a	n/a	n/a	-999	14	[0, 0, 0]	n/a	FR1	1	R1010J
1496.593	2.586	1864110	WORD	n/a	wordpools/wordpool_EN.txt	LAMP	1	14	[0, 0, 0]	n/a	FR1	1	R1010J
1499.179	2.522	1866696	WORD	n/a	wordpools/wordpool_EN.txt	BOOT	2	14	[0, 0, 0]	n/a	FR1	1	R1010J
1501.701	2.42	1869217	WORD	n/a	wordpools/wordpool_EN.txt	FOG	3	14	[0, 0, 0]	n/a	FR1	1	R1010J
1504.121	2.472	1871637	WORD	n/a	wordpools/wordpool_EN.txt	FLAG	4	14	[0, 0, 0]	n/a	FR1	1	R1010J
1506.593	2.52	1874109	WORD	n/a	wordpools/wordpool_EN.txt	NAIL	5	14	[0, 0, 0]	n/a	FR1	1	R1010J
1509.113	2.387	1876629	WORD	n/a	wordpools/wordpool_EN.txt	PARK	6	14	[0, 0, 0]	n/a	FR1	1	R1010J
1511.5	2.604	1879016	WORD	n/a	wordpools/wordpool_EN.txt	CLOCK	7	14	[0, 0, 0]	n/a	FR1	1	R1010J
1514.104	2.573	1881620	WORD	n/a	wordpools/wordpool_EN.txt	BED	8	14	[0, 0, 0]	n/a	FR1	1	R1010J
1516.677	2.419	1884193	WORD	n/a	wordpools/wordpool_EN.txt	SWORD	9	14	[0, 0, 0]	n/a	FR1	1	R1010J
1519.096	2.472	1886612	WORD	n/a	wordpools/wordpool_EN.txt	BAT	10	14	[0, 0, 0]	n/a	FR1	1	R1010J
1521.568	2.503	1889084	WORD	n/a	wordpools/wordpool_EN.txt	SKI	11	14	[0, 0, 0]	n/a	FR1	1	R1010J
1524.071	1.604	1891587	WORD	n/a	wordpools/wordpool_EN.txt	WHALE	12	14	[0, 0, 0]	n/a	FR1	1	R1010J
1525.675	0.001	1893191	DISTRACT_START	n/a	n/a	n/a	-999	14	[0, 0, 0]	n/a	FR1	1	R1010J
1525.676	0.016	1893192	START	n/a	n/a	n/a	-999	14	[-999, -999, -999]	n/a	FR1	1	R1010J
1525.692	7.311	1893208	PROB	7.311	n/a	n/a	-999	14	[2, 8, 9]	19	FR1	1	R1010J
1533.003	17.284	1900518	PROB	17.284	n/a	n/a	-999	14	[4, 8, 9]	21	FR1	1	R1010J
1550.287	0.012	1917802	STOP	n/a	n/a	n/a	-999	14	[-999, -999, -999]	n/a	FR1	1	R1010J
1550.299	1.186	1917814	DISTRACT_END	n/a	n/a	n/a	-999	14	[0, 0, 0]	n/a	FR1	1	R1010J
1551.485	3.319	1919000	REC_START	n/a	n/a	n/a	-999	14	[0, 0, 0]	n/a	FR1	1	R1010J
1554.804	12.742	1922319	REC_WORD	12.742	n/a	BAT	-999	14	[0, 0, 0]	n/a	FR1	1	R1010J
1567.546	13.953	1935060	REC_WORD	13.953	n/a	LAMB	-999	14	[0, 0, 0]	n/a	FR1	1	R1010J
1581.499	2.173	1949013	REC_END	n/a	n/a	n/a	-999	14	[0, 0, 0]	n/a	FR1	1	R1010J
1583.672	0.001	1951186	COUNTDOWN_START	n/a	n/a	n/a	-999	15	[0, 0, 0]	n/a	FR1	1	R1010J
1583.673	10.427	1951187	TRIAL	n/a	n/a	n/a	-999	15	[0, 0, 0]	n/a	FR1	1	R1010J
1594.1	0.006	1961613	COUNTDOWN_END	n/a	n/a	n/a	-999	15	[0, 0, 0]	n/a	FR1	1	R1010J
1594.106	2.472	1961619	ORIENT	n/a	n/a	n/a	-999	15	[0, 0, 0]	n/a	FR1	1	R1010J
1596.578	2.453	1964091	WORD	n/a	wordpools/wordpool_EN.txt	CAT	1	15	[0, 0, 0]	n/a	FR1	1	R1010J
1599.031	2.404	1966544	WORD	n/a	wordpools/wordpool_EN.txt	TRAIN	2	15	[0, 0, 0]	n/a	FR1	1	R1010J
1601.435	2.455	1968948	WORD	n/a	wordpools/wordpool_EN.txt	JEEP	3	15	[0, 0, 0]	n/a	FR1	1	R1010J
1603.89	2.42	1971403	WORD	n/a	wordpools/wordpool_EN.txt	MOON	4	15	[0, 0, 0]	n/a	FR1	1	R1010J
1606.31	2.488	1973823	WORD	n/a	wordpools/wordpool_EN.txt	PRINCE	5	15	[0, 0, 0]	n/a	FR1	1	R1010J
1608.798	2.403	1976311	WORD	n/a	wordpools/wordpool_EN.txt	HEART	6	15	[0, 0, 0]	n/a	FR1	1	R1010J
1611.201	2.572	1978714	WORD	n/a	wordpools/wordpool_EN.txt	BEAR	7	15	[0, 0, 0]	n/a	FR1	1	R1010J
1613.773	2.553	1981285	WORD	n/a	wordpools/wordpool_EN.txt	GOLD	8	15	[0, 0, 0]	n/a	FR1	1	R1010J
1616.326	2.622	1983838	WORD	n/a	wordpools/wordpool_EN.txt	GRAPE	9	15	[0, 0, 0]	n/a	FR1	1	R1010J
1618.948	2.504	1986460	WORD	n/a	wordpools/wordpool_EN.txt	BALL	10	15	[0, 0, 0]	n/a	FR1	1	R1010J
1621.452	2.471	1988964	WORD	n/a	wordpools/wordpool_EN.txt	FARM	11	15	[0, 0, 0]	n/a	FR1	1	R1010J
1623.923	1.62	1991435	WORD	n/a	wordpools/wordpool_EN.txt	APE	12	15	[0, 0, 0]	n/a	FR1	1	R1010J
1625.543	0.001	1993055	DISTRACT_START	n/a	n/a	n/a	-999	15	[0, 0, 0]	n/a	FR1	1	R1010J
1625.544	0.016	1993056	START	n/a	n/a	n/a	-999	15	[-999, -999, -999]	n/a	FR1	1	R1010J
1625.56	3.772	1993072	PROB	3.772	n/a	n/a	-999	15	[1, 8, 1]	10	FR1	1	R1010J
1629.332	5.859	1996844	PROB	5.859	n/a	n/a	-999	15	[8, 4, 9]	21	FR1	1	R1010J
1635.191	7.564	2002703	PROB	7.564	n/a	n/a	-999	15	[6, 9, 3]	18	FR1	1	R1010J
1642.755	4.299	2010266	PROB	4.299	n/a	n/a	-999	15	[4, 3, 4]	11	FR1	1	R1010J
1647.054	0.008	2014565	STOP	n/a	n/a	n/a	-999	15	[-999, -999, -999]	n/a	FR1	1	R1010J
1647.062	1.152	2014573	DISTRACT_END	n/a	n/a	n/a	-999	15	[0, 0, 0]	n/a	FR1	1	R1010J
1648.214	3.098	2015725	REC_START	n/a	n/a	n/a	-999	15	[0, 0, 0]	n/a	FR1	1	R1010J
1651.312	4.139	2018823	REC_WORD	4.139	n/a	CAT	-999	15	[0, 0, 0]	n/a	FR1	1	R1010J
1655.451	9.589	2022962	REC_WORD	9.589	n/a	GRAPE	-999	15	[0, 0, 0]	n/a	FR1	1	R1010J
1665.04	13.188	2032551	REC_WORD	13.188	n/a	SWORD	-999	15	[0, 0, 0]	n/a	FR1	1	R1010J
1678.228	2.591	2045738	REC_END	n/a	n/a	n/a	-999	15	[0, 0, 0]	n/a	FR1	1	R1010J
1680.819	0.001	2048329	COUNTDOWN_START	n/a	n/a	n/a	-999	16	[0, 0, 0]	n/a	FR1	1	R1010J
1680.82	10.427	2048330	TRIAL	n/a	n/a	n/a	-999	16	[0, 0, 0]	n/a	FR1	1	R1010J
1691.247	0.005	2058757	COUNTDOWN_END	n/a	n/a	n/a	-999	16	[0, 0, 0]	n/a	FR1	1	R1010J
1691.252	2.439	2058762	ORIENT	n/a	n/a	n/a	-999	16	[0, 0, 0]	n/a	FR1	1	R1010J
1693.691	2.453	2061201	WORD	n/a	wordpools/wordpool_EN.txt	BADGE	1	16	[0, 0, 0]	n/a	FR1	1	R1010J
1696.144	2.405	2063653	WORD	n/a	wordpools/wordpool_EN.txt	BAND	2	16	[0, 0, 0]	n/a	FR1	1	R1010J
1698.549	2.521	2066058	WORD	n/a	wordpools/wordpool_EN.txt	DOLL	3	16	[0, 0, 0]	n/a	FR1	1	R1010J
1701.07	2.42	2068579	WORD	n/a	wordpools/wordpool_EN.txt	HOSE	4	16	[0, 0, 0]	n/a	FR1	1	R1010J
1703.49	2.437	2070999	WORD	n/a	wordpools/wordpool_EN.txt	PANTS	5	16	[0, 0, 0]	n/a	FR1	1	R1010J
1705.927	2.555	2073436	WORD	n/a	wordpools/wordpool_EN.txt	ROOM	6	16	[0, 0, 0]	n/a	FR1	1	R1010J
1708.482	2.504	2075991	WORD	n/a	wordpools/wordpool_EN.txt	RUG	7	16	[0, 0, 0]	n/a	FR1	1	R1010J
1710.986	2.471	2078495	WORD	n/a	wordpools/wordpool_EN.txt	HOOF	8	16	[0, 0, 0]	n/a	FR1	1	R1010J
1713.457	2.537	2080966	WORD	n/a	wordpools/wordpool_EN.txt	WAVE	9	16	[0, 0, 0]	n/a	FR1	1	R1010J
1715.994	2.488	2083503	WORD	n/a	wordpools/wordpool_EN.txt	HILL	10	16	[0, 0, 0]	n/a	FR1	1	R1010J
1718.482	2.388	2085991	WORD	n/a	wordpools/wordpool_EN.txt	SHIELD	11	16	[0, 0, 0]	n/a	FR1	1	R1010J
1720.87	1.618	2088379	WORD	n/a	wordpools/wordpool_EN.txt	LAKE	12	16	[0, 0, 0]	n/a	FR1	1	R1010J
1722.488	0.001	2089997	DISTRACT_START	n/a	n/a	n/a	-999	16	[0, 0, 0]	n/a	FR1	1	R1010J
1722.489	0.016	2089998	START	n/a	n/a	n/a	-999	16	[-999, -999, -999]	n/a	FR1	1	R1010J
1722.505	6.661	2090014	PROB	6.661	n/a	n/a	-999	16	[7, 6, 7]	20	FR1	1	R1010J
1729.166	12.154	2096674	PROB	12.154	n/a	n/a	-999	16	[8, 6, 9]	23	FR1	1	R1010J
1741.32	2.862	2108828	PROB	2.862	n/a	n/a	-999	16	[1, 5, 3]	9	FR1	1	R1010J
1744.182	0.01	2111690	STOP	n/a	n/a	n/a	-999	16	[-999, -999, -999]	n/a	FR1	1	R1010J
1744.192	1.085	2111700	DISTRACT_END	n/a	n/a	n/a	-999	16	[0, 0, 0]	n/a	FR1	1	R1010J
1745.277	2.796	2112785	REC_START	n/a	n/a	n/a	-999	16	[0, 0, 0]	n/a	FR1	1	R1010J
1748.073	2.729	2115581	REC_WORD	2.729	n/a	BADGE	-999	16	[0, 0, 0]	n/a	FR1	1	R1010J
1750.802	24.499	2118310	REC_WORD	24.499	n/a	SHIELD	-999	16	[0, 0, 0]	n/a	FR1	1	R1010J
1775.301	2.348	2142808	REC_END	n/a	n/a	n/a	-999	16	[0, 0, 0]	n/a	FR1	1	R1010J
1777.649	0.0	2145156	TRIAL	n/a	n/a	n/a	-999	17	[0, 0, 0]	n/a	FR1	1	R1010J
1777.649	10.428	2145156	COUNTDOWN_START	n/a	n/a	n/a	-999	17	[0, 0, 0]	n/a	FR1	1	R1010J
1788.077	0.005	2155583	COUNTDOWN_END	n/a	n/a	n/a	-999	17	[0, 0, 0]	n/a	FR1	1	R1010J
1788.082	2.573	2155588	ORIENT	n/a	n/a	n/a	-999	17	[0, 0, 0]	n/a	FR1	1	R1010J
1790.655	2.486	2158161	WORD	n/a	wordpools/wordpool_EN.txt	DITCH	1	17	[0, 0, 0]	n/a	FR1	1	R1010J
1793.141	2.605	2160647	WORD	n/a	wordpools/wordpool_EN.txt	CHIN	2	17	[0, 0, 0]	n/a	FR1	1	R1010J
1795.746	2.553	2163252	WORD	n/a	wordpools/wordpool_EN.txt	BRIDGE	3	17	[0, 0, 0]	n/a	FR1	1	R1010J
1798.299	2.372	2165805	WORD	n/a	wordpools/wordpool_EN.txt	TRUCK	4	17	[0, 0, 0]	n/a	FR1	1	R1010J
1800.671	2.471	2168177	WORD	n/a	wordpools/wordpool_EN.txt	SMOKE	5	17	[0, 0, 0]	n/a	FR1	1	R1010J
1803.142	2.387	2170648	WORD	n/a	wordpools/wordpool_EN.txt	STEAM	6	17	[0, 0, 0]	n/a	FR1	1	R1010J
1805.529	2.42	2173035	WORD	n/a	wordpools/wordpool_EN.txt	SLIME	7	17	[0, 0, 0]	n/a	FR1	1	R1010J
1807.949	2.521	2175454	WORD	n/a	wordpools/wordpool_EN.txt	SHOE	8	17	[0, 0, 0]	n/a	FR1	1	R1010J
1810.47	2.454	2177975	WORD	n/a	wordpools/wordpool_EN.txt	BUSH	9	17	[0, 0, 0]	n/a	FR1	1	R1010J
1812.924	2.404	2180429	WORD	n/a	wordpools/wordpool_EN.txt	BARN	10	17	[0, 0, 0]	n/a	FR1	1	R1010J
1815.328	2.488	2182833	WORD	n/a	wordpools/wordpool_EN.txt	ROAD	11	17	[0, 0, 0]	n/a	FR1	1	R1010J
1817.816	1.619	2185321	WORD	n/a	wordpools/wordpool_EN.txt	FORK	12	17	[0, 0, 0]	n/a	FR1	1	R1010J
1819.435	0.001	2186940	DISTRACT_START	n/a	n/a	n/a	-999	17	[0, 0, 0]	n/a	FR1	1	R1010J
1819.436	0.016	2186941	START	n/a	n/a	n/a	-999	17	[-999, -999, -999]	n/a	FR1	1	R1010J
1819.452	10.368	2186957	PROB	10.368	n/a	n/a	-999	17	[9, 2, 7]	18	FR1	1	R1010J
1829.82	7.662	2197325	PROB	7.662	n/a	n/a	-999	17	[1, 8, 3]	12	FR1	1	R1010J
1837.482	8.964	2204986	PROB	8.964	n/a	n/a	-999	17	[6, 7, 8]	21	FR1	1	R1010J
1846.446	0.018	2213950	STOP	n/a	n/a	n/a	-999	17	[-999, -999, -999]	n/a	FR1	1	R1010J
1846.464	1.17	2213968	DISTRACT_END	n/a	n/a	n/a	-999	17	[0, 0, 0]	n/a	FR1	1	R1010J
1847.634	3.307	2215138	REC_START	n/a	n/a	n/a	-999	17	[0, 0, 0]	n/a	FR1	1	R1010J
1850.941	2.569	2218445	REC_WORD	2.569	n/a	DITCH	-999	17	[0, 0, 0]	n/a	FR1	1	R1010J
1853.51	24.138	2221014	REC_WORD	24.138	n/a	CHIN	-999	17	[0, 0, 0]	n/a	FR1	1	R1010J
1877.648	2.372	2245151	REC_END	n/a	n/a	n/a	-999	17	[0, 0, 0]	n/a	FR1	1	R1010J
1880.02	0.0	2247523	TRIAL	n/a	n/a	n/a	-999	18	[0, 0, 0]	n/a	FR1	1	R1010J
1880.02	10.428	2247523	COUNTDOWN_START	n/a	n/a	n/a	-999	18	[0, 0, 0]	n/a	FR1	1	R1010J
1890.448	0.006	2257950	COUNTDOWN_END	n/a	n/a	n/a	-999	18	[0, 0, 0]	n/a	FR1	1	R1010J
1890.454	2.505	2257956	ORIENT	n/a	n/a	n/a	-999	18	[0, 0, 0]	n/a	FR1	1	R1010J
1892.959	2.554	2260461	WORD	n/a	wordpools/wordpool_EN.txt	JET	1	18	[0, 0, 0]	n/a	FR1	1	R1010J
1895.513	2.504	2263015	WORD	n/a	wordpools/wordpool_EN.txt	FILM	2	18	[0, 0, 0]	n/a	FR1	1	R1010J
1898.017	2.589	2265519	WORD	n/a	wordpools/wordpool_EN.txt	MOLE	3	18	[0, 0, 0]	n/a	FR1	1	R1010J
1900.606	2.62	2268108	WORD	n/a	wordpools/wordpool_EN.txt	BOAT	4	18	[0, 0, 0]	n/a	FR1	1	R1010J
1903.226	2.555	2270728	WORD	n/a	wordpools/wordpool_EN.txt	INK	5	18	[0, 0, 0]	n/a	FR1	1	R1010J
1905.781	2.42	2273283	WORD	n/a	wordpools/wordpool_EN.txt	BOMB	6	18	[0, 0, 0]	n/a	FR1	1	R1010J
1908.201	2.555	2275703	WORD	n/a	wordpools/wordpool_EN.txt	KITE	7	18	[0, 0, 0]	n/a	FR1	1	R1010J
1910.756	2.47	2278258	WORD	n/a	wordpools/wordpool_EN.txt	SOAP	8	18	[0, 0, 0]	n/a	FR1	1	R1010J
1913.226	2.422	2280728	WORD	n/a	wordpools/wordpool_EN.txt	SPARK	9	18	[0, 0, 0]	n/a	FR1	1	R1010J
1915.648	2.571	2283150	WORD	n/a	wordpools/wordpool_EN.txt	WHEEL	10	18	[0, 0, 0]	n/a	FR1	1	R1010J
1918.219	2.587	2285720	WORD	n/a	wordpools/wordpool_EN.txt	POND	11	18	[0, 0, 0]	n/a	FR1	1	R1010J
1920.806	1.619	2288307	WORD	n/a	wordpools/wordpool_EN.txt	NET	12	18	[0, 0, 0]	n/a	FR1	1	R1010J
1922.425	0.001	2289926	DISTRACT_START	n/a	n/a	n/a	-999	18	[0, 0, 0]	n/a	FR1	1	R1010J
1922.426	0.015	2289927	START	n/a	n/a	n/a	-999	18	[-999, -999, -999]	n/a	FR1	1	R1010J
1922.441	9.951	2289942	PROB	9.951	n/a	n/a	-999	18	[9, 2, 7]	18	FR1	1	R1010J
1932.392	4.09	2299893	PROB	4.09	n/a	n/a	-999	18	[6, 4, 1]	11	FR1	1	R1010J
1936.482	7.061	2303983	PROB	7.061	n/a	n/a	-999	18	[4, 9, 5]	18	FR1	1	R1010J
1943.543	0.018	2311044	STOP	n/a	n/a	n/a	-999	18	[-999, -999, -999]	n/a	FR1	1	R1010J
1943.561	1.036	2311062	DISTRACT_END	n/a	n/a	n/a	-999	18	[0, 0, 0]	n/a	FR1	1	R1010J
1944.597	2.981	2312098	REC_START	n/a	n/a	n/a	-999	18	[0, 0, 0]	n/a	FR1	1	R1010J
1947.578	2.091	2315078	REC_WORD	2.091	n/a	BOMB	-999	18	[0, 0, 0]	n/a	FR1	1	R1010J
1949.669	10.596	2317169	REC_WORD	10.596	n/a	JET	-999	18	[0, 0, 0]	n/a	FR1	1	R1010J
1960.265	14.357	2327765	REC_WORD	14.357	n/a	BOAT	-999	18	[0, 0, 0]	n/a	FR1	1	R1010J
1974.622	2.645	2342121	REC_END	n/a	n/a	n/a	-999	18	[0, 0, 0]	n/a	FR1	1	R1010J
1977.267	0.001	2344766	COUNTDOWN_START	n/a	n/a	n/a	-999	19	[0, 0, 0]	n/a	FR1	1	R1010J
1977.268	10.427	2344767	TRIAL	n/a	n/a	n/a	-999	19	[0, 0, 0]	n/a	FR1	1	R1010J
1987.695	0.007	2355194	COUNTDOWN_END	n/a	n/a	n/a	-999	19	[0, 0, 0]	n/a	FR1	1	R1010J
1987.702	2.504	2355201	ORIENT	n/a	n/a	n/a	-999	19	[0, 0, 0]	n/a	FR1	1	R1010J
1990.206	2.622	2357705	WORD	n/a	wordpools/wordpool_EN.txt	ROCK	1	19	[0, 0, 0]	n/a	FR1	1	R1010J
1992.828	2.47	2360327	WORD	n/a	wordpools/wordpool_EN.txt	CLIFF	2	19	[0, 0, 0]	n/a	FR1	1	R1010J
1995.298	2.471	2362797	WORD	n/a	wordpools/wordpool_EN.txt	FUR	3	19	[0, 0, 0]	n/a	FR1	1	R1010J
1997.769	2.42	2365268	WORD	n/a	wordpools/wordpool_EN.txt	PIG	4	19	[0, 0, 0]	n/a	FR1	1	R1010J
2000.189	2.388	2367688	WORD	n/a	wordpools/wordpool_EN.txt	STORE	5	19	[0, 0, 0]	n/a	FR1	1	R1010J
2002.577	2.52	2370075	WORD	n/a	wordpools/wordpool_EN.txt	JAR	6	19	[0, 0, 0]	n/a	FR1	1	R1010J
2005.097	2.572	2372595	WORD	n/a	wordpools/wordpool_EN.txt	CORN	7	19	[0, 0, 0]	n/a	FR1	1	R1010J
2007.669	2.62	2375167	WORD	n/a	wordpools/wordpool_EN.txt	BEAK	8	19	[0, 0, 0]	n/a	FR1	1	R1010J
2010.289	2.489	2377787	WORD	n/a	wordpools/wordpool_EN.txt	CAVE	9	19	[0, 0, 0]	n/a	FR1	1	R1010J
2012.778	2.403	2380276	WORD	n/a	wordpools/wordpool_EN.txt	BEACH	10	19	[0, 0, 0]	n/a	FR1	1	R1010J
2015.181	2.572	2382679	WORD	n/a	wordpools/wordpool_EN.txt	DRUM	11	19	[0, 0, 0]	n/a	FR1	1	R1010J
2017.753	1.618	2385251	WORD	n/a	wordpools/wordpool_EN.txt	VINE	12	19	[0, 0, 0]	n/a	FR1	1	R1010J
2019.371	0.001	2386869	DISTRACT_START	n/a	n/a	n/a	-999	19	[0, 0, 0]	n/a	FR1	1	R1010J
2019.372	0.016	2386870	START	n/a	n/a	n/a	-999	19	[-999, -999, -999]	n/a	FR1	1	R1010J
2019.388	8.13	2386886	PROB	8.13	n/a	n/a	-999	19	[8, 7, 8]	23	FR1	1	R1010J
2027.518	5.11	2395016	PROB	5.11	n/a	n/a	-999	19	[9, 9, 9]	24	FR1	1	R1010J
2032.628	13.362	2400125	PROB	13.362	n/a	n/a	-999	19	[8, 9, 8]	25	FR1	1	R1010J
2045.99	0.01	2413487	STOP	n/a	n/a	n/a	-999	19	[-999, -999, -999]	n/a	FR1	1	R1010J
2046.0	1.052	2413497	DISTRACT_END	n/a	n/a	n/a	-999	19	[0, 0, 0]	n/a	FR1	1	R1010J
2047.052	2.536	2414549	REC_START	n/a	n/a	n/a	-999	19	[0, 0, 0]	n/a	FR1	1	R1010J
2049.588	2.328	2417085	REC_WORD	2.328	n/a	CLIFF	-999	19	[0, 0, 0]	n/a	FR1	1	R1010J
2051.916	7.528	2419413	REC_WORD	7.528	n/a	ROCK	-999	19	[0, 0, 0]	n/a	FR1	1	R1010J
2059.444	3.715	2426940	REC_WORD	3.715	n/a	BEACH	-999	19	[0, 0, 0]	n/a	FR1	1	R1010J
2063.159	13.91	2430655	REC_WORD	13.91	n/a	VINE	-999	19	[0, 0, 0]	n/a	FR1	1	R1010J
2077.069	2.571	2444565	REC_END	n/a	n/a	n/a	-999	19	[0, 0, 0]	n/a	FR1	1	R1010J
2079.64	0.001	2447136	COUNTDOWN_START	n/a	n/a	n/a	-999	20	[0, 0, 0]	n/a	FR1	1	R1010J
2079.641	10.427	2447137	TRIAL	n/a	n/a	n/a	-999	20	[0, 0, 0]	n/a	FR1	1	R1010J
2090.068	0.006	2457563	COUNTDOWN_END	n/a	n/a	n/a	-999	20	[0, 0, 0]	n/a	FR1	1	R1010J
2090.074	2.555	2457569	ORIENT	n/a	n/a	n/a	-999	20	[0, 0, 0]	n/a	FR1	1	R1010J
2092.629	2.42	2460124	WORD	n/a	wordpools/wordpool_EN.txt	STEM	1	20	[0, 0, 0]	n/a	FR1	1	R1010J
2095.049	2.404	2462544	WORD	n/a	wordpools/wordpool_EN.txt	WALL	2	20	[0, 0, 0]	n/a	FR1	1	R1010J
2097.453	2.571	2464948	WORD	n/a	wordpools/wordpool_EN.txt	GRASS	3	20	[0, 0, 0]	n/a	FR1	1	R1010J
2100.024	2.622	2467519	WORD	n/a	wordpools/wordpool_EN.txt	WEED	4	20	[0, 0, 0]	n/a	FR1	1	R1010J
2102.646	2.536	2470141	WORD	n/a	wordpools/wordpool_EN.txt	SPONGE	5	20	[0, 0, 0]	n/a	FR1	1	R1010J
2105.182	2.607	2472677	WORD	n/a	wordpools/wordpool_EN.txt	SHELL	6	20	[0, 0, 0]	n/a	FR1	1	R1010J
2107.789	2.619	2475284	WORD	n/a	wordpools/wordpool_EN.txt	COIN	7	20	[0, 0, 0]	n/a	FR1	1	R1010J
2110.408	2.571	2477903	WORD	n/a	wordpools/wordpool_EN.txt	MAT	8	20	[0, 0, 0]	n/a	FR1	1	R1010J
2112.979	2.605	2480473	WORD	n/a	wordpools/wordpool_EN.txt	LEAF	9	20	[0, 0, 0]	n/a	FR1	1	R1010J
2115.584	2.52	2483078	WORD	n/a	wordpools/wordpool_EN.txt	ROOT	10	20	[0, 0, 0]	n/a	FR1	1	R1010J
2118.104	2.421	2485598	WORD	n/a	wordpools/wordpool_EN.txt	SNAIL	11	20	[0, 0, 0]	n/a	FR1	1	R1010J
2120.525	1.619	2488019	WORD	n/a	wordpools/wordpool_EN.txt	WORM	12	20	[0, 0, 0]	n/a	FR1	1	R1010J
2122.144	0.001	2489638	DISTRACT_START	n/a	n/a	n/a	-999	20	[0, 0, 0]	n/a	FR1	1	R1010J
2122.145	0.016	2489639	START	n/a	n/a	n/a	-999	20	[-999, -999, -999]	n/a	FR1	1	R1010J
2122.161	5.876	2489655	PROB	5.876	n/a	n/a	-999	20	[4, 1, 8]	13	FR1	1	R1010J
2128.037	6.261	2495531	PROB	6.261	n/a	n/a	-999	20	[9, 1, 4]	14	FR1	1	R1010J
2134.298	5.159	2501792	PROB	5.159	n/a	n/a	-999	20	[2, 8, 4]	14	FR1	1	R1010J
2139.457	6.606	2506951	PROB	6.606	n/a	n/a	-999	20	[5, 8, 1]	14	FR1	1	R1010J
2146.063	0.022	2513556	STOP	n/a	n/a	n/a	-999	20	[-999, -999, -999]	n/a	FR1	1	R1010J
2146.085	1.136	2513578	DISTRACT_END	n/a	n/a	n/a	-999	20	[0, 0, 0]	n/a	FR1	1	R1010J
2147.221	1.747	2514714	REC_START	n/a	n/a	n/a	-999	20	[0, 0, 0]	n/a	FR1	1	R1010J
2148.968	2.263	2516461	REC_WORD	2.263	n/a	SNAIL	-999	20	[0, 0, 0]	n/a	FR1	1	R1010J
2151.231	2.732	2518724	REC_WORD	2.732	n/a	SHELL	-999	20	[0, 0, 0]	n/a	FR1	1	R1010J
2153.963	23.272	2521456	REC_WORD	23.272	n/a	WEED	-999	20	[0, 0, 0]	n/a	FR1	1	R1010J
2177.235	2.624	2544727	REC_END	n/a	n/a	n/a	-999	20	[0, 0, 0]	n/a	FR1	1	R1010J
2179.859	0.0	2547351	COUNTDOWN_START	n/a	n/a	n/a	-999	21	[0, 0, 0]	n/a	FR1	1	R1010J
2179.859	10.428	2547351	TRIAL	n/a	n/a	n/a	-999	21	[0, 0, 0]	n/a	FR1	1	R1010J
2190.287	0.005	2557779	COUNTDOWN_END	n/a	n/a	n/a	-999	21	[0, 0, 0]	n/a	FR1	1	R1010J
2190.292	2.372	2557784	ORIENT	n/a	n/a	n/a	-999	21	[0, 0, 0]	n/a	FR1	1	R1010J
2192.664	2.52	2560156	WORD	n/a	wordpools/wordpool_EN.txt	POOL	1	21	[0, 0, 0]	n/a	FR1	1	R1010J
2195.184	2.472	2562676	WORD	n/a	wordpools/wordpool_EN.txt	SALT	2	21	[0, 0, 0]	n/a	FR1	1	R1010J
2197.656	2.536	2565147	WORD	n/a	wordpools/wordpool_EN.txt	OAR	3	21	[0, 0, 0]	n/a	FR1	1	R1010J
2200.192	2.522	2567683	WORD	n/a	wordpools/wordpool_EN.txt	BEAN	4	21	[0, 0, 0]	n/a	FR1	1	R1010J
2202.714	2.403	2570205	WORD	n/a	wordpools/wordpool_EN.txt	SHRIMP	5	21	[0, 0, 0]	n/a	FR1	1	R1010J
2205.117	2.555	2572608	WORD	n/a	wordpools/wordpool_EN.txt	FLAME	6	21	[0, 0, 0]	n/a	FR1	1	R1010J
2207.672	2.621	2575163	WORD	n/a	wordpools/wordpool_EN.txt	GEESE	7	21	[0, 0, 0]	n/a	FR1	1	R1010J
2210.293	2.488	2577784	WORD	n/a	wordpools/wordpool_EN.txt	WING	8	21	[0, 0, 0]	n/a	FR1	1	R1010J
2212.781	2.603	2580272	WORD	n/a	wordpools/wordpool_EN.txt	STOVE	9	21	[0, 0, 0]	n/a	FR1	1	R1010J
2215.384	2.405	2582875	WORD	n/a	wordpools/wordpool_EN.txt	SWAMP	10	21	[0, 0, 0]	n/a	FR1	1	R1010J
2217.789	2.454	2585280	WORD	n/a	wordpools/wordpool_EN.txt	DEER	11	21	[0, 0, 0]	n/a	FR1	1	R1010J
2220.243	1.62	2587734	WORD	n/a	wordpools/wordpool_EN.txt	PIE	12	21	[0, 0, 0]	n/a	FR1	1	R1010J
2221.863	0.001	2589354	DISTRACT_START	n/a	n/a	n/a	-999	21	[0, 0, 0]	n/a	FR1	1	R1010J
2221.864	0.016	2589355	START	n/a	n/a	n/a	-999	21	[-999, -999, -999]	n/a	FR1	1	R1010J
2221.88	6.995	2589371	PROB	6.995	n/a	n/a	-999	21	[3, 9, 3]	15	FR1	1	R1010J
2228.875	7.028	2596365	PROB	7.028	n/a	n/a	-999	21	[6, 7, 9]	22	FR1	1	R1010J
2235.903	5.81	2603393	PROB	5.81	n/a	n/a	-999	21	[3, 6, 8]	17	FR1	1	R1010J
2241.713	4.661	2609203	PROB	4.661	n/a	n/a	-999	21	[4, 9, 1]	14	FR1	1	R1010J
2246.374	0.013	2613864	STOP	n/a	n/a	n/a	-999	21	[-999, -999, -999]	n/a	FR1	1	R1010J
2246.387	1.085	2613877	DISTRACT_END	n/a	n/a	n/a	-999	21	[0, 0, 0]	n/a	FR1	1	R1010J
2247.472	30.017	2614962	REC_START	n/a	n/a	n/a	-999	21	[0, 0, 0]	n/a	FR1	1	R1010J
2277.489	0.007	2644978	REC_WORD_VV	0.007	n/a	<>	-999	21	[0, 0, 0]	n/a	FR1	1	R1010J
2277.496	1.946	2644985	REC_END	n/a	n/a	n/a	-999	21	[0, 0, 0]	n/a	FR1	1	R1010J
2279.442	0.001	2646931	COUNTDOWN_START	n/a	n/a	n/a	-999	22	[0, 0, 0]	n/a	FR1	1	R1010J
2279.443	10.427	2646932	TRIAL	n/a	n/a	n/a	-999	22	[0, 0, 0]	n/a	FR1	1	R1010J
2289.87	0.007	2657358	COUNTDOWN_END	n/a	n/a	n/a	-999	22	[0, 0, 0]	n/a	FR1	1	R1010J
2289.877	2.403	2657365	ORIENT	n/a	n/a	n/a	-999	22	[0, 0, 0]	n/a	FR1	1	R1010J
2292.28	2.522	2659768	WORD	n/a	wordpools/wordpool_EN.txt	HAT	1	22	[0, 0, 0]	n/a	FR1	1	R1010J
2294.802	2.487	2662290	WORD	n/a	wordpools/wordpool_EN.txt	BATH	2	22	[0, 0, 0]	n/a	FR1	1	R1010J
2297.289	2.555	2664777	WORD	n/a	wordpools/wordpool_EN.txt	COW	3	22	[0, 0, 0]	n/a	FR1	1	R1010J
2299.844	2.437	2667332	WORD	n/a	wordpools/wordpool_EN.txt	GATE	4	22	[0, 0, 0]	n/a	FR1	1	R1010J
2302.281	2.522	2669769	WORD	n/a	wordpools/wordpool_EN.txt	MUD	5	22	[0, 0, 0]	n/a	FR1	1	R1010J
2304.803	2.386	2672291	WORD	n/a	wordpools/wordpool_EN.txt	DIME	6	22	[0, 0, 0]	n/a	FR1	1	R1010J
2307.189	2.605	2674677	WORD	n/a	wordpools/wordpool_EN.txt	MOOSE	7	22	[0, 0, 0]	n/a	FR1	1	R1010J
2309.794	2.637	2677281	WORD	n/a	wordpools/wordpool_EN.txt	SPRING	8	22	[0, 0, 0]	n/a	FR1	1	R1010J
2312.431	2.571	2679918	WORD	n/a	wordpools/wordpool_EN.txt	FACE	9	22	[0, 0, 0]	n/a	FR1	1	R1010J
2315.002	2.589	2682489	WORD	n/a	wordpools/wordpool_EN.txt	GOAT	10	22	[0, 0, 0]	n/a	FR1	1	R1010J
2317.591	2.403	2685078	WORD	n/a	wordpools/wordpool_EN.txt	SINK	11	22	[0, 0, 0]	n/a	FR1	1	R1010J
2319.994	1.62	2687481	WORD	n/a	wordpools/wordpool_EN.txt	TEA	12	22	[0, 0, 0]	n/a	FR1	1	R1010J
2321.614	0.001	2689101	DISTRACT_START	n/a	n/a	n/a	-999	22	[0, 0, 0]	n/a	FR1	1	R1010J
2321.615	0.016	2689102	START	n/a	n/a	n/a	-999	22	[-999, -999, -999]	n/a	FR1	1	R1010J
2321.631	4.39	2689118	PROB	4.39	n/a	n/a	-999	22	[5, 6, 1]	12	FR1	1	R1010J
2326.021	5.242	2693508	PROB	5.242	n/a	n/a	-999	22	[2, 2, 9]	13	FR1	1	R1010J
2331.263	7.93	2698750	PROB	7.93	n/a	n/a	-999	22	[7, 1, 8]	16	FR1	1	R1010J
2339.193	7.254	2706679	PROB	7.254	n/a	n/a	-999	22	[8, 1, 7]	16	FR1	1	R1010J
2346.447	0.008	2713933	STOP	n/a	n/a	n/a	-999	22	[-999, -999, -999]	n/a	FR1	1	R1010J
2346.455	1.17	2713941	DISTRACT_END	n/a	n/a	n/a	-999	22	[0, 0, 0]	n/a	FR1	1	R1010J
2347.625	12.421	2715111	REC_START	n/a	n/a	n/a	-999	22	[0, 0, 0]	n/a	FR1	1	R1010J
2360.046	3.023	2727532	REC_WORD	3.023	n/a	DUCK	-999	22	[0, 0, 0]	n/a	FR1	1	R1010J
2363.069	5.514	2730554	REC_WORD	5.514	n/a	COW	-999	22	[0, 0, 0]	n/a	FR1	1	R1010J
2368.583	9.066	2736068	REC_WORD	9.066	n/a	HAT	-999	22	[0, 0, 0]	n/a	FR1	1	R1010J
2377.649	3.648	2745134	REC_END	n/a	n/a	n/a	-999	22	[0, 0, 0]	n/a	FR1	1	R1010J
2381.297	0.0	2748782	TRIAL	n/a	n/a	n/a	-999	23	[0, 0, 0]	n/a	FR1	1	R1010J
2381.297	10.428	2748782	COUNTDOWN_START	n/a	n/a	n/a	-999	23	[0, 0, 0]	n/a	FR1	1	R1010J
2391.725	0.007	2759209	COUNTDOWN_END	n/a	n/a	n/a	-999	23	[0, 0, 0]	n/a	FR1	1	R1010J
2391.732	2.537	2759216	ORIENT	n/a	n/a	n/a	-999	23	[0, 0, 0]	n/a	FR1	1	R1010J
2394.269	2.472	2761753	WORD	n/a	wordpools/wordpool_EN.txt	NOSE	1	23	[0, 0, 0]	n/a	FR1	1	R1010J
2396.741	2.536	2764225	WORD	n/a	wordpools/wordpool_EN.txt	RAKE	2	23	[0, 0, 0]	n/a	FR1	1	R1010J
2399.277	2.422	2766761	WORD	n/a	wordpools/wordpool_EN.txt	FOX	3	23	[0, 0, 0]	n/a	FR1	1	R1010J
2401.699	2.603	2769183	WORD	n/a	wordpools/wordpool_EN.txt	ZOO	4	23	[0, 0, 0]	n/a	FR1	1	R1010J
2404.302	2.606	2771786	WORD	n/a	wordpools/wordpool_EN.txt	SNAKE	5	23	[0, 0, 0]	n/a	FR1	1	R1010J
2406.908	2.436	2774392	WORD	n/a	wordpools/wordpool_EN.txt	FLEA	6	23	[0, 0, 0]	n/a	FR1	1	R1010J
2409.344	2.472	2776828	WORD	n/a	wordpools/wordpool_EN.txt	HOUSE	7	23	[0, 0, 0]	n/a	FR1	1	R1010J
2411.816	2.637	2779300	WORD	n/a	wordpools/wordpool_EN.txt	DUCK	8	23	[0, 0, 0]	n/a	FR1	1	R1010J
2414.453	2.571	2781937	WORD	n/a	wordpools/wordpool_EN.txt	PALM	9	23	[0, 0, 0]	n/a	FR1	1	R1010J
2417.024	2.572	2784508	WORD	n/a	wordpools/wordpool_EN.txt	CAKE	10	23	[0, 0, 0]	n/a	FR1	1	R1010J
2419.596	2.403	2787079	WORD	n/a	wordpools/wordpool_EN.txt	BLUSH	11	23	[0, 0, 0]	n/a	FR1	1	R1010J
2421.999	1.62	2789482	WORD	n/a	wordpools/wordpool_EN.txt	BIRD	12	23	[0, 0, 0]	n/a	FR1	1	R1010J
2423.619	0.002	2791102	DISTRACT_START	n/a	n/a	n/a	-999	23	[0, 0, 0]	n/a	FR1	1	R1010J
2423.621	0.015	2791104	START	n/a	n/a	n/a	-999	23	[-999, -999, -999]	n/a	FR1	1	R1010J
2423.636	6.127	2791119	PROB	6.127	n/a	n/a	-999	23	[7, 1, 3]	11	FR1	1	R1010J
2429.763	5.324	2797246	PROB	5.324	n/a	n/a	-999	23	[1, 2, 3]	6	FR1	1	R1010J
2435.087	6.094	2802570	PROB	6.094	n/a	n/a	-999	23	[6, 2, 8]	16	FR1	1	R1010J
2441.181	8.427	2808664	PROB	8.427	n/a	n/a	-999	23	[6, 3, 5]	14	FR1	1	R1010J
2449.608	0.022	2817090	STOP	n/a	n/a	n/a	-999	23	[-999, -999, -999]	n/a	FR1	1	R1010J
2449.63	1.135	2817112	DISTRACT_END	n/a	n/a	n/a	-999	23	[0, 0, 0]	n/a	FR1	1	R1010J
2450.765	4.94	2818247	REC_START	n/a	n/a	n/a	-999	23	[0, 0, 0]	n/a	FR1	1	R1010J
2455.705	1.645	2823187	REC_WORD	1.645	n/a	DUCK	-999	23	[0, 0, 0]	n/a	FR1	1	R1010J
2457.35	23.44	2824832	REC_WORD	23.44	n/a	CAKE	-999	23	[0, 0, 0]	n/a	FR1	1	R1010J
2480.79	2.245	2848271	REC_END	n/a	n/a	n/a	-999	23	[0, 0, 0]	n/a	FR1	1	R1010J
2483.035	0.0	2850516	TRIAL	n/a	n/a	n/a	-999	24	[0, 0, 0]	n/a	FR1	1	R1010J
2483.035	10.428	2850516	COUNTDOWN_START	n/a	n/a	n/a	-999	24	[0, 0, 0]	n/a	FR1	1	R1010J
2493.463	0.006	2860944	COUNTDOWN_END	n/a	n/a	n/a	-999	24	[0, 0, 0]	n/a	FR1	1	R1010J
2493.469	2.505	2860950	ORIENT	n/a	n/a	n/a	-999	24	[0, 0, 0]	n/a	FR1	1	R1010J
2495.974	2.42	2863455	WORD	n/a	wordpools/wordpool_EN.txt	SHEET	1	24	[0, 0, 0]	n/a	FR1	1	R1010J
2498.394	2.554	2865875	WORD	n/a	wordpools/wordpool_EN.txt	STAR	2	24	[0, 0, 0]	n/a	FR1	1	R1010J
2500.948	2.454	2868429	WORD	n/a	wordpools/wordpool_EN.txt	WOLF	3	24	[0, 0, 0]	n/a	FR1	1	R1010J
2503.402	2.738	2870882	WORD	n/a	wordpools/wordpool_EN.txt	HORSE	4	24	[0, 0, 0]	n/a	FR1	1	R1010J
2506.14	2.439	2873620	WORD	n/a	wordpools/wordpool_EN.txt	TRASH	5	24	[0, 0, 0]	n/a	FR1	1	R1010J
2508.579	2.57	2876059	WORD	n/a	wordpools/wordpool_EN.txt	CORD	6	24	[0, 0, 0]	n/a	FR1	1	R1010J
2511.149	2.605	2878629	WORD	n/a	wordpools/wordpool_EN.txt	ANT	7	24	[0, 0, 0]	n/a	FR1	1	R1010J
2513.754	2.387	2881234	WORD	n/a	wordpools/wordpool_EN.txt	BOOK	8	24	[0, 0, 0]	n/a	FR1	1	R1010J
2516.141	2.572	2883621	WORD	n/a	wordpools/wordpool_EN.txt	TOAD	9	24	[0, 0, 0]	n/a	FR1	1	R1010J
2518.713	2.419	2886193	WORD	n/a	wordpools/wordpool_EN.txt	CASH	10	24	[0, 0, 0]	n/a	FR1	1	R1010J
2521.132	2.606	2888612	WORD	n/a	wordpools/wordpool_EN.txt	RIB	11	24	[0, 0, 0]	n/a	FR1	1	R1010J
2523.738	1.618	2891218	WORD	n/a	wordpools/wordpool_EN.txt	EGG	12	24	[0, 0, 0]	n/a	FR1	1	R1010J
2525.356	0.001	2892836	DISTRACT_START	n/a	n/a	n/a	-999	24	[0, 0, 0]	n/a	FR1	1	R1010J
2525.357	0.016	2892837	START	n/a	n/a	n/a	-999	24	[-999, -999, -999]	n/a	FR1	1	R1010J
2525.373	6.428	2892853	PROB	6.428	n/a	n/a	-999	24	[4, 4, 6]	14	FR1	1	R1010J
2531.801	3.205	2899280	PROB	3.205	n/a	n/a	-999	24	[5, 3, 1]	9	FR1	1	R1010J
2535.006	4.44	2902485	PROB	4.44	n/a	n/a	-999	24	[5, 3, 2]	10	FR1	1	R1010J
2539.446	9.08	2906925	PROB	9.08	n/a	n/a	-999	24	[7, 4, 9]	20	FR1	1	R1010J
2548.526	0.02	2916005	STOP	n/a	n/a	n/a	-999	24	[-999, -999, -999]	n/a	FR1	1	R1010J
2548.546	1.119	2916025	DISTRACT_END	n/a	n/a	n/a	-999	24	[0, 0, 0]	n/a	FR1	1	R1010J
2549.665	1.819	2917144	REC_START	n/a	n/a	n/a	-999	24	[0, 0, 0]	n/a	FR1	1	R1010J
2551.484	28.196	2918963	REC_WORD	28.196	n/a	STAR	-999	24	[0, 0, 0]	n/a	FR1	1	R1010J
2579.68	2.189	2947158	REC_END	n/a	n/a	n/a	-999	24	[0, 0, 0]	n/a	FR1	1	R1010J
2581.869	0.0	2949347	TRIAL	n/a	n/a	n/a	-999	25	[0, 0, 0]	n/a	FR1	1	R1010J
2581.869	10.428	2949347	COUNTDOWN_START	n/a	n/a	n/a	-999	25	[0, 0, 0]	n/a	FR1	1	R1010J
2592.297	0.005	2959774	COUNTDOWN_END	n/a	n/a	n/a	-999	25	[0, 0, 0]	n/a	FR1	1	R1010J
2592.302	2.539	2959779	ORIENT	n/a	n/a	n/a	-999	25	[0, 0, 0]	n/a	FR1	1	R1010J
2594.841	2.586	2962318	WORD	n/a	wordpools/wordpool_EN.txt	DOG	1	25	[0, 0, 0]	n/a	FR1	1	R1010J
2597.427	2.621	2964904	WORD	n/a	wordpools/wordpool_EN.txt	LEG	2	25	[0, 0, 0]	n/a	FR1	1	R1010J
2600.048	2.421	2967525	WORD	n/a	wordpools/wordpool_EN.txt	STOOL	3	25	[0, 0, 0]	n/a	FR1	1	R1010J
2602.469	2.521	2969946	WORD	n/a	wordpools/wordpool_EN.txt	PLATE	4	25	[0, 0, 0]	n/a	FR1	1	R1010J
2604.99	2.404	2972467	WORD	n/a	wordpools/wordpool_EN.txt	CHALK	5	25	[0, 0, 0]	n/a	FR1	1	R1010J
2607.394	2.388	2974871	WORD	n/a	wordpools/wordpool_EN.txt	TRAY	6	25	[0, 0, 0]	n/a	FR1	1	R1010J
2609.782	2.537	2977259	WORD	n/a	wordpools/wordpool_EN.txt	WOOD	7	25	[0, 0, 0]	n/a	FR1	1	R1010J
2612.319	2.539	2979796	WORD	n/a	wordpools/wordpool_EN.txt	GLASS	8	25	[0, 0, 0]	n/a	FR1	1	R1010J
2614.858	2.62	2982334	WORD	n/a	wordpools/wordpool_EN.txt	STAIR	9	25	[0, 0, 0]	n/a	FR1	1	R1010J
2617.478	2.571	2984954	WORD	n/a	wordpools/wordpool_EN.txt	CROWN	10	25	[0, 0, 0]	n/a	FR1	1	R1010J
2620.049	2.404	2987525	WORD	n/a	wordpools/wordpool_EN.txt	SLUSH	11	25	[0, 0, 0]	n/a	FR1	1	R1010J
2622.453	1.619	2989929	WORD	n/a	wordpools/wordpool_EN.txt	SOCK	12	25	[0, 0, 0]	n/a	FR1	1	R1010J
2624.072	0.001	2991548	DISTRACT_START	n/a	n/a	n/a	-999	25	[0, 0, 0]	n/a	FR1	1	R1010J
2624.073	0.016	2991549	START	n/a	n/a	n/a	-999	25	[-999, -999, -999]	n/a	FR1	1	R1010J
2624.089	9.349	2991565	PROB	9.349	n/a	n/a	-999	25	[3, 8, 6]	17	FR1	1	R1010J
2633.438	3.457	3000914	PROB	3.457	n/a	n/a	-999	25	[2, 9, 1]	12	FR1	1	R1010J
2636.895	3.773	3004371	PROB	3.773	n/a	n/a	-999	25	[5, 4, 5]	14	FR1	1	R1010J
2640.668	7.61	3008144	PROB	7.61	n/a	n/a	-999	25	[6, 6, 9]	21	FR1	1	R1010J
2648.278	0.018	3015753	STOP	n/a	n/a	n/a	-999	25	[-999, -999, -999]	n/a	FR1	1	R1010J
2648.296	1.086	3015771	DISTRACT_END	n/a	n/a	n/a	-999	25	[0, 0, 0]	n/a	FR1	1	R1010J
2649.382	2.175	3016857	REC_START	n/a	n/a	n/a	-999	25	[0, 0, 0]	n/a	FR1	1	R1010J
2651.557	2.252	3019032	REC_WORD	2.252	n/a	DOG	-999	25	[0, 0, 0]	n/a	FR1	1	R1010J
2653.809	3.128	3021284	REC_WORD	3.128	n/a	LEG	-999	25	[0, 0, 0]	n/a	FR1	1	R1010J
2656.937	3.519	3024412	REC_WORD	3.519	n/a	STOOL	-999	25	[0, 0, 0]	n/a	FR1	1	R1010J
2660.456	18.941	3027931	REC_WORD	18.941	n/a	STAIR	-999	25	[0, 0, 0]	n/a	FR1	1	R1010J
2679.397	5.111	3046871	REC_END	n/a	n/a	n/a	-999	25	[0, 0, 0]	n/a	FR1	1	R1010J
2684.508	0.0	3051982	SESS_END	n/a	n/a	n/a	-999	25	[0, 0, 0]	n/a	FR1	1	R1010J
