onset	duration	sample	trial_type	response_time	stim_file	item_name	serialpos	list	test	answer	experiment	session	subject
0.0	14.553	362021	SESS_START	n/a	n/a	n/a	-999	-999	[0, 0, 0]	n/a	FR1	0	R1023J
14.553	10.428	376574	COUNTDOWN_START	n/a	n/a	n/a	-999	-999	[0, 0, 0]	n/a	FR1	0	R1023J
24.981	3.662	387001	COUNTDOWN_END	n/a	n/a	n/a	-999	-999	[0, 0, 0]	n/a	FR1	0	R1023J
28.643	2.572	390663	PRACTICE_WORD	n/a	n/a	ATTIC	1	-1	[0, 0, 0]	n/a	FR1	0	R1023J
31.215	2.487	393235	PRACTICE_WORD	n/a	n/a	IRON	2	-1	[0, 0, 0]	n/a	FR1	0	R1023J
33.702	2.522	395722	PRACTICE_WORD	n/a	n/a	WATCH	3	-1	[0, 0, 0]	n/a	FR1	0	R1023J
36.224	2.486	398244	PRACTICE_WORD	n/a	n/a	TONGUE	4	-1	[0, 0, 0]	n/a	FR1	0	R1023J
38.71	2.456	400730	PRACTICE_WORD	n/a	n/a	RHINO	5	-1	[0, 0, 0]	n/a	FR1	0	R1023J
41.166	2.436	403186	PRACTICE_WORD	n/a	n/a	CAMEL	6	-1	[0, 0, 0]	n/a	FR1	0	R1023J
43.602	2.404	405622	PRACTICE_WORD	n/a	n/a	WAGON	7	-1	[0, 0, 0]	n/a	FR1	0	R1023J
46.006	2.521	408026	PRACTICE_WORD	n/a	n/a	BEAM	8	-1	[0, 0, 0]	n/a	FR1	0	R1023J
48.527	2.487	410546	PRACTICE_WORD	n/a	n/a	FLOOD	9	-1	[0, 0, 0]	n/a	FR1	0	R1023J
51.014	2.606	413033	PRACTICE_WORD	n/a	n/a	COTTON	10	-1	[0, 0, 0]	n/a	FR1	0	R1023J
53.62	2.419	415639	PRACTICE_WORD	n/a	n/a	RING	11	-1	[0, 0, 0]	n/a	FR1	0	R1023J
56.039	1.62	418058	PRACTICE_WORD	n/a	n/a	CHEST	12	-1	[0, 0, 0]	n/a	FR1	0	R1023J
57.659	0.0	419678	PRACTICE_DISTRACT_START	n/a	n/a	n/a	-999	-1	[0, 0, 0]	n/a	FR1	0	R1023J
57.659	0.367	419678	START	n/a	n/a	n/a	-999	-1	[-999, -999, -999]	n/a	FR1	0	R1023J
58.026	13.69	420045	PROB	13.69	n/a	n/a	-999	-1	[9, 7, 3]	19	FR1	0	R1023J
71.716	11.852	433735	PROB	11.852	n/a	n/a	-999	-1	[3, 1, 3]	7	FR1	0	R1023J
83.568	0.018	445586	STOP	n/a	n/a	n/a	-999	-1	[-999, -999, -999]	n/a	FR1	0	R1023J
83.586	0.535	445604	PRACTICE_DISTRACT_END	n/a	n/a	n/a	-999	-1	[0, 0, 0]	n/a	FR1	0	R1023J
84.121	30.516	446139	PRACTICE_REC_START	n/a	n/a	n/a	-999	-1	[0, 0, 0]	n/a	FR1	0	R1023J
114.637	34.577	476654	PRACTICE_REC_END	n/a	n/a	n/a	-999	-1	[0, 0, 0]	n/a	FR1	0	R1023J
149.214	0.0	511230	TRIAL	n/a	n/a	n/a	-999	1	[0, 0, 0]	n/a	FR1	0	R1023J
149.214	10.428	511230	COUNTDOWN_START	n/a	n/a	n/a	-999	1	[0, 0, 0]	n/a	FR1	0	R1023J
159.642	0.005	521658	COUNTDOWN_END	n/a	n/a	n/a	-999	1	[0, 0, 0]	n/a	FR1	0	R1023J
159.647	2.404	521663	ORIENT	n/a	n/a	n/a	-999	1	[0, 0, 0]	n/a	FR1	0	R1023J
162.051	2.554	524066	WORD	n/a	wordpools/wordpool_EN.txt	SEAT	1	1	[0, 0, 0]	n/a	FR1	0	R1023J
164.605	2.371	526620	WORD	n/a	wordpools/wordpool_EN.txt	ROOF	2	1	[0, 0, 0]	n/a	FR1	0	R1023J
166.976	2.604	528991	WORD	n/a	wordpools/wordpool_EN.txt	HAND	3	1	[0, 0, 0]	n/a	FR1	0	R1023J
169.58	2.404	531595	WORD	n/a	wordpools/wordpool_EN.txt	BADGE	4	1	[0, 0, 0]	n/a	FR1	0	R1023J
171.984	2.555	533999	WORD	n/a	wordpools/wordpool_EN.txt	DIME	5	1	[0, 0, 0]	n/a	FR1	0	R1023J
174.539	2.537	536554	WORD	n/a	wordpools/wordpool_EN.txt	MAT	6	1	[0, 0, 0]	n/a	FR1	0	R1023J
177.076	2.621	539091	WORD	n/a	wordpools/wordpool_EN.txt	STICK	7	1	[0, 0, 0]	n/a	FR1	0	R1023J
179.697	2.522	541712	WORD	n/a	wordpools/wordpool_EN.txt	KITE	8	1	[0, 0, 0]	n/a	FR1	0	R1023J
182.219	2.537	544234	WORD	n/a	wordpools/wordpool_EN.txt	SMILE	9	1	[0, 0, 0]	n/a	FR1	0	R1023J
184.756	2.387	546771	WORD	n/a	wordpools/wordpool_EN.txt	SCHOOL	10	1	[0, 0, 0]	n/a	FR1	0	R1023J
187.143	2.388	549158	WORD	n/a	wordpools/wordpool_EN.txt	CANE	11	1	[0, 0, 0]	n/a	FR1	0	R1023J
189.531	1.619	551545	WORD	n/a	wordpools/wordpool_EN.txt	COUCH	12	1	[0, 0, 0]	n/a	FR1	0	R1023J
191.15	0.001	553164	DISTRACT_START	n/a	n/a	n/a	-999	1	[0, 0, 0]	n/a	FR1	0	R1023J
191.151	0.016	553165	START	n/a	n/a	n/a	-999	1	[-999, -999, -999]	n/a	FR1	0	R1023J
191.167	7.496	553181	PROB	7.496	n/a	n/a	-999	1	[9, 2, 4]	15	FR1	0	R1023J
198.663	10.801	560677	PROB	10.801	n/a	n/a	-999	1	[6, 7, 1]	14	FR1	0	R1023J
209.464	9.417	571478	PROB	9.417	n/a	n/a	-999	1	[9, 6, 4]	19	FR1	0	R1023J
218.881	0.016	580894	STOP	n/a	n/a	n/a	-999	1	[-999, -999, -999]	n/a	FR1	0	R1023J
218.897	1.904	580910	DISTRACT_END	n/a	n/a	n/a	-999	1	[0, 0, 0]	n/a	FR1	0	R1023J
220.801	5.453	582814	REC_START	n/a	n/a	n/a	-999	1	[0, 0, 0]	n/a	FR1	0	R1023J
226.254	1.051	588267	REC_WORD	1.051	n/a	SCHOOL	-999	1	[0, 0, 0]	n/a	FR1	0	R1023J
227.305	1.294	589318	REC_WORD	1.294	n/a	HAND	-999	1	[0, 0, 0]	n/a	FR1	0	R1023J
228.599	0.966	590612	REC_WORD	0.966	n/a	SEAT	-999	1	[0, 0, 0]	n/a	FR1	0	R1023J
229.565	20.442	591578	REC_WORD	20.442	n/a	ROOF	-999	1	[0, 0, 0]	n/a	FR1	0	R1023J
250.007	3.232	612019	REC_END	n/a	n/a	n/a	-999	1	[0, 0, 0]	n/a	FR1	0	R1023J
253.239	0.0	615251	TRIAL	n/a	n/a	n/a	-999	2	[0, 0, 0]	n/a	FR1	0	R1023J
253.239	10.428	615251	COUNTDOWN_START	n/a	n/a	n/a	-999	2	[0, 0, 0]	n/a	FR1	0	R1023J
263.667	0.005	625679	COUNTDOWN_END	n/a	n/a	n/a	-999	2	[0, 0, 0]	n/a	FR1	0	R1023J
263.672	2.572	625684	ORIENT	n/a	n/a	n/a	-999	2	[0, 0, 0]	n/a	FR1	0	R1023J
266.244	2.453	628256	WORD	n/a	wordpools/wordpool_EN.txt	ANT	1	2	[0, 0, 0]	n/a	FR1	0	R1023J
268.697	2.387	630709	WORD	n/a	wordpools/wordpool_EN.txt	RAT	2	2	[0, 0, 0]	n/a	FR1	0	R1023J
271.084	2.505	633096	WORD	n/a	wordpools/wordpool_EN.txt	PEAR	3	2	[0, 0, 0]	n/a	FR1	0	R1023J
273.589	2.537	635600	WORD	n/a	wordpools/wordpool_EN.txt	BRANCH	4	2	[0, 0, 0]	n/a	FR1	0	R1023J
276.126	2.454	638137	WORD	n/a	wordpools/wordpool_EN.txt	CAVE	5	2	[0, 0, 0]	n/a	FR1	0	R1023J
278.58	2.471	640591	WORD	n/a	wordpools/wordpool_EN.txt	MOLE	6	2	[0, 0, 0]	n/a	FR1	0	R1023J
281.051	2.539	643062	WORD	n/a	wordpools/wordpool_EN.txt	HEART	7	2	[0, 0, 0]	n/a	FR1	0	R1023J
283.59	2.47	645601	WORD	n/a	wordpools/wordpool_EN.txt	SLIME	8	2	[0, 0, 0]	n/a	FR1	0	R1023J
286.06	2.521	648071	WORD	n/a	wordpools/wordpool_EN.txt	FOOD	9	2	[0, 0, 0]	n/a	FR1	0	R1023J
288.581	2.437	650592	WORD	n/a	wordpools/wordpool_EN.txt	BEE	10	2	[0, 0, 0]	n/a	FR1	0	R1023J
291.018	2.621	653029	WORD	n/a	wordpools/wordpool_EN.txt	BED	11	2	[0, 0, 0]	n/a	FR1	0	R1023J
293.639	1.604	655650	WORD	n/a	wordpools/wordpool_EN.txt	PLANT	12	2	[0, 0, 0]	n/a	FR1	0	R1023J
295.243	0.001	657254	DISTRACT_START	n/a	n/a	n/a	-999	2	[0, 0, 0]	n/a	FR1	0	R1023J
295.244	0.016	657255	START	n/a	n/a	n/a	-999	2	[-999, -999, -999]	n/a	FR1	0	R1023J
295.26	8.446	657271	PROB	8.446	n/a	n/a	-999	2	[9, 3, 7]	19	FR1	0	R1023J
303.706	8.681	665716	PROB	8.681	n/a	n/a	-999	2	[1, 4, 9]	14	FR1	0	R1023J
312.387	10.508	674397	PROB	10.508	n/a	n/a	-999	2	[4, 7, 5]	16	FR1	0	R1023J
322.895	0.01	684905	STOP	n/a	n/a	n/a	-999	2	[-999, -999, -999]	n/a	FR1	0	R1023J
322.905	1.203	684915	DISTRACT_END	n/a	n/a	n/a	-999	2	[0, 0, 0]	n/a	FR1	0	R1023J
324.108	2.99	686118	REC_START	n/a	n/a	n/a	-999	2	[0, 0, 0]	n/a	FR1	0	R1023J
327.098	1.11	689108	REC_WORD	1.11	n/a	ANT	-999	2	[0, 0, 0]	n/a	FR1	0	R1023J
328.208	13.513	690218	REC_WORD	13.513	n/a	REAR	-999	2	[0, 0, 0]	n/a	FR1	0	R1023J
341.721	12.4	703730	REC_WORD	12.4	n/a	BRANCH	-999	2	[0, 0, 0]	n/a	FR1	0	R1023J
354.121	4.945	716130	REC_END	n/a	n/a	n/a	-999	2	[0, 0, 0]	n/a	FR1	0	R1023J
359.066	0.0	721074	TRIAL	n/a	n/a	n/a	-999	3	[0, 0, 0]	n/a	FR1	0	R1023J
359.066	10.428	721074	COUNTDOWN_START	n/a	n/a	n/a	-999	3	[0, 0, 0]	n/a	FR1	0	R1023J
369.494	0.006	731502	COUNTDOWN_END	n/a	n/a	n/a	-999	3	[0, 0, 0]	n/a	FR1	0	R1023J
369.5	2.505	731508	ORIENT	n/a	n/a	n/a	-999	3	[0, 0, 0]	n/a	FR1	0	R1023J
372.005	2.47	734013	WORD	n/a	wordpools/wordpool_EN.txt	LIP	1	3	[0, 0, 0]	n/a	FR1	0	R1023J
374.475	2.621	736483	WORD	n/a	wordpools/wordpool_EN.txt	STORE	2	3	[0, 0, 0]	n/a	FR1	0	R1023J
377.096	2.439	739104	WORD	n/a	wordpools/wordpool_EN.txt	SHIRT	3	3	[0, 0, 0]	n/a	FR1	0	R1023J
379.535	2.386	741543	WORD	n/a	wordpools/wordpool_EN.txt	RIB	4	3	[0, 0, 0]	n/a	FR1	0	R1023J
381.921	2.471	743929	WORD	n/a	wordpools/wordpool_EN.txt	MULE	5	3	[0, 0, 0]	n/a	FR1	0	R1023J
384.392	2.638	746400	WORD	n/a	wordpools/wordpool_EN.txt	BOWL	6	3	[0, 0, 0]	n/a	FR1	0	R1023J
387.03	2.42	749037	WORD	n/a	wordpools/wordpool_EN.txt	BREAD	7	3	[0, 0, 0]	n/a	FR1	0	R1023J
389.45	2.438	751457	WORD	n/a	wordpools/wordpool_EN.txt	CHAIR	8	3	[0, 0, 0]	n/a	FR1	0	R1023J
391.888	2.438	753895	WORD	n/a	wordpools/wordpool_EN.txt	BEAN	9	3	[0, 0, 0]	n/a	FR1	0	R1023J
394.326	2.62	756333	WORD	n/a	wordpools/wordpool_EN.txt	PANTS	10	3	[0, 0, 0]	n/a	FR1	0	R1023J
396.946	2.571	758953	WORD	n/a	wordpools/wordpool_EN.txt	BARN	11	3	[0, 0, 0]	n/a	FR1	0	R1023J
399.517	1.62	761524	WORD	n/a	wordpools/wordpool_EN.txt	STOVE	12	3	[0, 0, 0]	n/a	FR1	0	R1023J
401.137	0.0	763144	DISTRACT_START	n/a	n/a	n/a	-999	3	[0, 0, 0]	n/a	FR1	0	R1023J
401.137	0.016	763144	START	n/a	n/a	n/a	-999	3	[-999, -999, -999]	n/a	FR1	0	R1023J
401.153	5.243	763160	PROB	5.243	n/a	n/a	-999	3	[2, 1, 5]	8	FR1	0	R1023J
406.396	7.562	768403	PROB	7.562	n/a	n/a	-999	3	[3, 3, 7]	13	FR1	0	R1023J
413.958	8.659	775964	PROB	8.659	n/a	n/a	-999	3	[5, 4, 4]	13	FR1	0	R1023J
422.617	0.006	784623	STOP	n/a	n/a	n/a	-999	3	[-999, -999, -999]	n/a	FR1	0	R1023J
422.623	1.069	784629	DISTRACT_END	n/a	n/a	n/a	-999	3	[0, 0, 0]	n/a	FR1	0	R1023J
423.692	6.442	785698	REC_START	n/a	n/a	n/a	-999	3	[0, 0, 0]	n/a	FR1	0	R1023J
430.134	0.941	792140	REC_WORD	0.941	n/a	LIP	-999	3	[0, 0, 0]	n/a	FR1	0	R1023J
431.075	1.238	793081	REC_WORD	1.238	n/a	SHIRT	-999	3	[0, 0, 0]	n/a	FR1	0	R1023J
432.313	2.003	794319	REC_WORD	2.003	n/a	PANTS	-999	3	[0, 0, 0]	n/a	FR1	0	R1023J
434.316	19.39	796322	REC_WORD	19.39	n/a	STORE	-999	3	[0, 0, 0]	n/a	FR1	0	R1023J
453.706	2.291	815711	REC_END	n/a	n/a	n/a	-999	3	[0, 0, 0]	n/a	FR1	0	R1023J
455.997	0.0	818002	TRIAL	n/a	n/a	n/a	-999	4	[0, 0, 0]	n/a	FR1	0	R1023J
455.997	10.428	818002	COUNTDOWN_START	n/a	n/a	n/a	-999	4	[0, 0, 0]	n/a	FR1	0	R1023J
466.425	0.005	828430	COUNTDOWN_END	n/a	n/a	n/a	-999	4	[0, 0, 0]	n/a	FR1	0	R1023J
466.43	2.521	828435	ORIENT	n/a	n/a	n/a	-999	4	[0, 0, 0]	n/a	FR1	0	R1023J
468.951	2.537	830956	WORD	n/a	wordpools/wordpool_EN.txt	ROOT	1	4	[0, 0, 0]	n/a	FR1	0	R1023J
471.488	2.388	833492	WORD	n/a	wordpools/wordpool_EN.txt	TREE	2	4	[0, 0, 0]	n/a	FR1	0	R1023J
473.876	2.504	835880	WORD	n/a	wordpools/wordpool_EN.txt	POOL	3	4	[0, 0, 0]	n/a	FR1	0	R1023J
476.38	2.554	838384	WORD	n/a	wordpools/wordpool_EN.txt	DART	4	4	[0, 0, 0]	n/a	FR1	0	R1023J
478.934	2.488	840938	WORD	n/a	wordpools/wordpool_EN.txt	RICE	5	4	[0, 0, 0]	n/a	FR1	0	R1023J
481.422	2.437	843426	WORD	n/a	wordpools/wordpool_EN.txt	LEAF	6	4	[0, 0, 0]	n/a	FR1	0	R1023J
483.859	2.538	845863	WORD	n/a	wordpools/wordpool_EN.txt	OAK	7	4	[0, 0, 0]	n/a	FR1	0	R1023J
486.397	2.571	848401	WORD	n/a	wordpools/wordpool_EN.txt	STEM	8	4	[0, 0, 0]	n/a	FR1	0	R1023J
488.968	2.571	850972	WORD	n/a	wordpools/wordpool_EN.txt	SEED	9	4	[0, 0, 0]	n/a	FR1	0	R1023J
491.539	2.471	853543	WORD	n/a	wordpools/wordpool_EN.txt	LAMB	10	4	[0, 0, 0]	n/a	FR1	0	R1023J
494.01	2.504	856014	WORD	n/a	wordpools/wordpool_EN.txt	MUG	11	4	[0, 0, 0]	n/a	FR1	0	R1023J
496.514	1.619	858518	WORD	n/a	wordpools/wordpool_EN.txt	TEA	12	4	[0, 0, 0]	n/a	FR1	0	R1023J
498.133	0.001	860136	DISTRACT_START	n/a	n/a	n/a	-999	4	[0, 0, 0]	n/a	FR1	0	R1023J
498.134	0.016	860137	START	n/a	n/a	n/a	-999	4	[-999, -999, -999]	n/a	FR1	0	R1023J
498.15	12.471	860153	PROB	12.471	n/a	n/a	-999	4	[7, 9, 6]	22	FR1	0	R1023J
510.621	7.897	872624	PROB	7.897	n/a	n/a	-999	4	[4, 4, 9]	17	FR1	0	R1023J
518.518	0.016	880521	STOP	n/a	n/a	n/a	-999	4	[-999, -999, -999]	n/a	FR1	0	R1023J
518.534	1.137	880537	DISTRACT_END	n/a	n/a	n/a	-999	4	[0, 0, 0]	n/a	FR1	0	R1023J
519.671	13.145	881674	REC_START	n/a	n/a	n/a	-999	4	[0, 0, 0]	n/a	FR1	0	R1023J
532.816	4.578	894818	REC_WORD_VV	4.578	n/a	<>	-999	4	[0, 0, 0]	n/a	FR1	0	R1023J
537.394	4.868	899396	REC_WORD_VV	4.868	n/a	<>	-999	4	[0, 0, 0]	n/a	FR1	0	R1023J
542.262	1.323	904264	REC_WORD_VV	1.323	n/a	<>	-999	4	[0, 0, 0]	n/a	FR1	0	R1023J
543.585	1.512	905587	REC_WORD_VV	1.512	n/a	<>	-999	4	[0, 0, 0]	n/a	FR1	0	R1023J
545.097	0.672	907099	REC_WORD_VV	0.672	n/a	<>	-999	4	[0, 0, 0]	n/a	FR1	0	R1023J
545.769	1.019	907771	REC_WORD	1.019	n/a	OAK	-999	4	[0, 0, 0]	n/a	FR1	0	R1023J
546.788	1.04	908790	REC_WORD	1.04	n/a	TREE	-999	4	[0, 0, 0]	n/a	FR1	0	R1023J
547.828	1.827	909830	REC_WORD	1.827	n/a	STEM	-999	4	[0, 0, 0]	n/a	FR1	0	R1023J
549.655	0.028	911657	REC_WORD_VV	0.028	n/a	<>	-999	4	[0, 0, 0]	n/a	FR1	0	R1023J
549.683	36.749	911685	REC_END	n/a	n/a	n/a	-999	4	[0, 0, 0]	n/a	FR1	0	R1023J
586.432	0.0	948432	TRIAL	n/a	n/a	n/a	-999	5	[0, 0, 0]	n/a	FR1	0	R1023J
586.432	10.428	948432	COUNTDOWN_START	n/a	n/a	n/a	-999	5	[0, 0, 0]	n/a	FR1	0	R1023J
596.86	0.006	958860	COUNTDOWN_END	n/a	n/a	n/a	-999	5	[0, 0, 0]	n/a	FR1	0	R1023J
596.866	2.521	958866	ORIENT	n/a	n/a	n/a	-999	5	[0, 0, 0]	n/a	FR1	0	R1023J
599.387	2.638	961387	WORD	n/a	wordpools/wordpool_EN.txt	NET	1	5	[0, 0, 0]	n/a	FR1	0	R1023J
602.025	2.621	964025	WORD	n/a	wordpools/wordpool_EN.txt	MILK	2	5	[0, 0, 0]	n/a	FR1	0	R1023J
604.646	2.387	966646	WORD	n/a	wordpools/wordpool_EN.txt	CASH	3	5	[0, 0, 0]	n/a	FR1	0	R1023J
607.033	2.588	969033	WORD	n/a	wordpools/wordpool_EN.txt	GOLD	4	5	[0, 0, 0]	n/a	FR1	0	R1023J
609.621	2.556	971620	WORD	n/a	wordpools/wordpool_EN.txt	STEAK	5	5	[0, 0, 0]	n/a	FR1	0	R1023J
612.177	2.569	974176	WORD	n/a	wordpools/wordpool_EN.txt	GRAPE	6	5	[0, 0, 0]	n/a	FR1	0	R1023J
614.746	2.522	976745	WORD	n/a	wordpools/wordpool_EN.txt	CORN	7	5	[0, 0, 0]	n/a	FR1	0	R1023J
617.268	2.553	979267	WORD	n/a	wordpools/wordpool_EN.txt	CLOTH	8	5	[0, 0, 0]	n/a	FR1	0	R1023J
619.821	2.473	981820	WORD	n/a	wordpools/wordpool_EN.txt	FILM	9	5	[0, 0, 0]	n/a	FR1	0	R1023J
622.294	2.419	984293	WORD	n/a	wordpools/wordpool_EN.txt	PIG	10	5	[0, 0, 0]	n/a	FR1	0	R1023J
624.713	2.605	986712	WORD	n/a	wordpools/wordpool_EN.txt	BEAK	11	5	[0, 0, 0]	n/a	FR1	0	R1023J
627.318	1.619	989317	WORD	n/a	wordpools/wordpool_EN.txt	PEARL	12	5	[0, 0, 0]	n/a	FR1	0	R1023J
628.937	0.0	990936	DISTRACT_START	n/a	n/a	n/a	-999	5	[0, 0, 0]	n/a	FR1	0	R1023J
628.937	0.016	990936	START	n/a	n/a	n/a	-999	5	[-999, -999, -999]	n/a	FR1	0	R1023J
628.953	6.061	990952	PROB	6.061	n/a	n/a	-999	5	[7, 1, 2]	10	FR1	0	R1023J
635.014	8.748	997013	PROB	8.748	n/a	n/a	-999	5	[9, 8, 2]	19	FR1	0	R1023J
643.762	7.076	1005760	PROB	7.076	n/a	n/a	-999	5	[3, 2, 5]	10	FR1	0	R1023J
650.838	0.019	1012836	STOP	n/a	n/a	n/a	-999	5	[-999, -999, -999]	n/a	FR1	0	R1023J
650.857	1.103	1012855	DISTRACT_END	n/a	n/a	n/a	-999	5	[0, 0, 0]	n/a	FR1	0	R1023J
651.96	2.772	1013958	REC_START	n/a	n/a	n/a	-999	5	[0, 0, 0]	n/a	FR1	0	R1023J
654.732	0.727	1016730	REC_WORD	0.727	n/a	NET	-999	5	[0, 0, 0]	n/a	FR1	0	R1023J
655.459	1.261	1017457	REC_WORD	1.261	n/a	MILK	-999	5	[0, 0, 0]	n/a	FR1	0	R1023J
656.72	1.13	1018718	REC_WORD	1.13	n/a	CASH	-999	5	[0, 0, 0]	n/a	FR1	0	R1023J
657.85	5.445	1019848	REC_WORD	5.445	n/a	GOLD	-999	5	[0, 0, 0]	n/a	FR1	0	R1023J
663.295	18.678	1025293	REC_WORD	18.678	n/a	PIG	-999	5	[0, 0, 0]	n/a	FR1	0	R1023J
681.973	8.901	1043970	REC_END	n/a	n/a	n/a	-999	5	[0, 0, 0]	n/a	FR1	0	R1023J
690.874	0.001	1052871	COUNTDOWN_START	n/a	n/a	n/a	-999	6	[0, 0, 0]	n/a	FR1	0	R1023J
690.875	10.427	1052872	TRIAL	n/a	n/a	n/a	-999	6	[0, 0, 0]	n/a	FR1	0	R1023J
701.302	0.007	1063298	COUNTDOWN_END	n/a	n/a	n/a	-999	6	[0, 0, 0]	n/a	FR1	0	R1023J
701.309	2.471	1063305	ORIENT	n/a	n/a	n/a	-999	6	[0, 0, 0]	n/a	FR1	0	R1023J
703.78	2.637	1065776	WORD	n/a	wordpools/wordpool_EN.txt	GUARD	1	6	[0, 0, 0]	n/a	FR1	0	R1023J
706.417	2.604	1068413	WORD	n/a	wordpools/wordpool_EN.txt	FENCE	2	6	[0, 0, 0]	n/a	FR1	0	R1023J
709.021	2.538	1071017	WORD	n/a	wordpools/wordpool_EN.txt	DOLL	3	6	[0, 0, 0]	n/a	FR1	0	R1023J
711.559	2.421	1073555	WORD	n/a	wordpools/wordpool_EN.txt	BAT	4	6	[0, 0, 0]	n/a	FR1	0	R1023J
713.98	2.471	1075976	WORD	n/a	wordpools/wordpool_EN.txt	LEG	5	6	[0, 0, 0]	n/a	FR1	0	R1023J
716.451	2.604	1078447	WORD	n/a	wordpools/wordpool_EN.txt	HORN	6	6	[0, 0, 0]	n/a	FR1	0	R1023J
719.055	2.487	1081051	WORD	n/a	wordpools/wordpool_EN.txt	OAR	7	6	[0, 0, 0]	n/a	FR1	0	R1023J
721.542	2.404	1083538	WORD	n/a	wordpools/wordpool_EN.txt	FOOT	8	6	[0, 0, 0]	n/a	FR1	0	R1023J
723.946	2.572	1085941	WORD	n/a	wordpools/wordpool_EN.txt	BOY	9	6	[0, 0, 0]	n/a	FR1	0	R1023J
726.518	2.537	1088513	WORD	n/a	wordpools/wordpool_EN.txt	SOCK	10	6	[0, 0, 0]	n/a	FR1	0	R1023J
729.055	2.389	1091050	WORD	n/a	wordpools/wordpool_EN.txt	LOCK	11	6	[0, 0, 0]	n/a	FR1	0	R1023J
731.444	1.618	1093439	WORD	n/a	wordpools/wordpool_EN.txt	PEN	12	6	[0, 0, 0]	n/a	FR1	0	R1023J
733.062	0.001	1095057	DISTRACT_START	n/a	n/a	n/a	-999	6	[0, 0, 0]	n/a	FR1	0	R1023J
733.063	0.015	1095058	START	n/a	n/a	n/a	-999	6	[-999, -999, -999]	n/a	FR1	0	R1023J
733.078	7.697	1095073	PROB	7.697	n/a	n/a	-999	6	[8, 3, 2]	13	FR1	0	R1023J
740.775	11.235	1102770	PROB	11.235	n/a	n/a	-999	6	[3, 2, 8]	13	FR1	0	R1023J
752.01	18.372	1114004	PROB	18.372	n/a	n/a	-999	6	[5, 8, 4]	17	FR1	0	R1023J
770.382	0.01	1132376	STOP	n/a	n/a	n/a	-999	6	[-999, -999, -999]	n/a	FR1	0	R1023J
770.392	1.035	1132386	DISTRACT_END	n/a	n/a	n/a	-999	6	[0, 0, 0]	n/a	FR1	0	R1023J
771.427	13.912	1133421	REC_START	n/a	n/a	n/a	-999	6	[0, 0, 0]	n/a	FR1	0	R1023J
785.339	1.091	1147332	REC_WORD_VV	1.091	n/a	<>	-999	6	[0, 0, 0]	n/a	FR1	0	R1023J
786.43	0.856	1148423	REC_WORD_VV	0.856	n/a	<>	-999	6	[0, 0, 0]	n/a	FR1	0	R1023J
787.286	14.155	1149279	REC_WORD_VV	14.155	n/a	<>	-999	6	[0, 0, 0]	n/a	FR1	0	R1023J
801.441	3.793	1163434	REC_END	n/a	n/a	n/a	-999	6	[0, 0, 0]	n/a	FR1	0	R1023J
805.234	0.001	1167227	COUNTDOWN_START	n/a	n/a	n/a	-999	7	[0, 0, 0]	n/a	FR1	0	R1023J
805.235	10.427	1167228	TRIAL	n/a	n/a	n/a	-999	7	[0, 0, 0]	n/a	FR1	0	R1023J
815.662	0.006	1177654	COUNTDOWN_END	n/a	n/a	n/a	-999	7	[0, 0, 0]	n/a	FR1	0	R1023J
815.668	2.387	1177660	ORIENT	n/a	n/a	n/a	-999	7	[0, 0, 0]	n/a	FR1	0	R1023J
818.055	2.538	1180047	WORD	n/a	wordpools/wordpool_EN.txt	BRUSH	1	7	[0, 0, 0]	n/a	FR1	0	R1023J
820.593	2.52	1182585	WORD	n/a	wordpools/wordpool_EN.txt	MUD	2	7	[0, 0, 0]	n/a	FR1	0	R1023J
823.113	2.421	1185105	WORD	n/a	wordpools/wordpool_EN.txt	PHONE	3	7	[0, 0, 0]	n/a	FR1	0	R1023J
825.534	2.488	1187526	WORD	n/a	wordpools/wordpool_EN.txt	CHALK	4	7	[0, 0, 0]	n/a	FR1	0	R1023J
828.022	2.554	1190014	WORD	n/a	wordpools/wordpool_EN.txt	SMOKE	5	7	[0, 0, 0]	n/a	FR1	0	R1023J
830.576	2.571	1192568	WORD	n/a	wordpools/wordpool_EN.txt	BATH	6	7	[0, 0, 0]	n/a	FR1	0	R1023J
833.147	2.454	1195139	WORD	n/a	wordpools/wordpool_EN.txt	FOAM	7	7	[0, 0, 0]	n/a	FR1	0	R1023J
835.601	2.488	1197592	WORD	n/a	wordpools/wordpool_EN.txt	FROG	8	7	[0, 0, 0]	n/a	FR1	0	R1023J
838.089	2.52	1200080	WORD	n/a	wordpools/wordpool_EN.txt	STRING	9	7	[0, 0, 0]	n/a	FR1	0	R1023J
840.609	2.538	1202600	WORD	n/a	wordpools/wordpool_EN.txt	BOARD	10	7	[0, 0, 0]	n/a	FR1	0	R1023J
843.147	2.454	1205138	WORD	n/a	wordpools/wordpool_EN.txt	PIE	11	7	[0, 0, 0]	n/a	FR1	0	R1023J
845.601	1.604	1207592	WORD	n/a	wordpools/wordpool_EN.txt	TOOTH	12	7	[0, 0, 0]	n/a	FR1	0	R1023J
847.205	0.001	1209196	DISTRACT_START	n/a	n/a	n/a	-999	7	[0, 0, 0]	n/a	FR1	0	R1023J
847.206	0.016	1209197	START	n/a	n/a	n/a	-999	7	[-999, -999, -999]	n/a	FR1	0	R1023J
847.222	5.825	1209213	PROB	5.825	n/a	n/a	-999	7	[7, 2, 1]	10	FR1	0	R1023J
853.047	11.837	1215038	PROB	11.837	n/a	n/a	-999	7	[8, 7, 9]	24	FR1	0	R1023J
864.884	14.555	1226874	PROB	14.555	n/a	n/a	-999	7	[7, 9, 8]	24	FR1	0	R1023J
879.439	0.019	1241429	STOP	n/a	n/a	n/a	-999	7	[-999, -999, -999]	n/a	FR1	0	R1023J
879.458	1.22	1241448	DISTRACT_END	n/a	n/a	n/a	-999	7	[0, 0, 0]	n/a	FR1	0	R1023J
880.678	10.988	1242668	REC_START	n/a	n/a	n/a	-999	7	[0, 0, 0]	n/a	FR1	0	R1023J
891.666	1.277	1253655	REC_WORD_VV	1.277	n/a	<>	-999	7	[0, 0, 0]	n/a	FR1	0	R1023J
892.943	1.207	1254932	REC_WORD_VV	1.207	n/a	<>	-999	7	[0, 0, 0]	n/a	FR1	0	R1023J
894.15	6.762	1256139	REC_WORD_VV	6.762	n/a	<>	-999	7	[0, 0, 0]	n/a	FR1	0	R1023J
900.912	1.3	1262901	REC_WORD_VV	1.3	n/a	<>	-999	7	[0, 0, 0]	n/a	FR1	0	R1023J
902.212	8.48	1264201	REC_WORD_VV	8.48	n/a	<>	-999	7	[0, 0, 0]	n/a	FR1	0	R1023J
910.692	3.024	1272681	REC_END	n/a	n/a	n/a	-999	7	[0, 0, 0]	n/a	FR1	0	R1023J
913.716	0.0	1275705	TRIAL	n/a	n/a	n/a	-999	8	[0, 0, 0]	n/a	FR1	0	R1023J
913.716	10.428	1275705	COUNTDOWN_START	n/a	n/a	n/a	-999	8	[0, 0, 0]	n/a	FR1	0	R1023J
924.144	0.006	1286132	COUNTDOWN_END	n/a	n/a	n/a	-999	8	[0, 0, 0]	n/a	FR1	0	R1023J
924.15	2.437	1286138	ORIENT	n/a	n/a	n/a	-999	8	[0, 0, 0]	n/a	FR1	0	R1023J
926.587	2.538	1288575	WORD	n/a	wordpools/wordpool_EN.txt	WORM	1	8	[0, 0, 0]	n/a	FR1	0	R1023J
929.125	2.455	1291113	WORD	n/a	wordpools/wordpool_EN.txt	EGG	2	8	[0, 0, 0]	n/a	FR1	0	R1023J
931.58	2.605	1293568	WORD	n/a	wordpools/wordpool_EN.txt	HOOK	3	8	[0, 0, 0]	n/a	FR1	0	R1023J
934.185	2.386	1296173	WORD	n/a	wordpools/wordpool_EN.txt	WING	4	8	[0, 0, 0]	n/a	FR1	0	R1023J
936.571	2.471	1298559	WORD	n/a	wordpools/wordpool_EN.txt	FISH	5	8	[0, 0, 0]	n/a	FR1	0	R1023J
939.042	2.504	1301030	WORD	n/a	wordpools/wordpool_EN.txt	STORM	6	8	[0, 0, 0]	n/a	FR1	0	R1023J
941.546	2.621	1303534	WORD	n/a	wordpools/wordpool_EN.txt	SEA	7	8	[0, 0, 0]	n/a	FR1	0	R1023J
944.167	2.387	1306155	WORD	n/a	wordpools/wordpool_EN.txt	WEB	8	8	[0, 0, 0]	n/a	FR1	0	R1023J
946.554	2.438	1308541	WORD	n/a	wordpools/wordpool_EN.txt	SHRIMP	9	8	[0, 0, 0]	n/a	FR1	0	R1023J
948.992	2.621	1310979	WORD	n/a	wordpools/wordpool_EN.txt	SHELL	10	8	[0, 0, 0]	n/a	FR1	0	R1023J
951.613	2.454	1313600	WORD	n/a	wordpools/wordpool_EN.txt	CUBE	11	8	[0, 0, 0]	n/a	FR1	0	R1023J
954.067	1.62	1316054	WORD	n/a	wordpools/wordpool_EN.txt	BOAT	12	8	[0, 0, 0]	n/a	FR1	0	R1023J
955.687	0.0	1317674	DISTRACT_START	n/a	n/a	n/a	-999	8	[0, 0, 0]	n/a	FR1	0	R1023J
955.687	0.016	1317674	START	n/a	n/a	n/a	-999	8	[-999, -999, -999]	n/a	FR1	0	R1023J
955.703	15.309	1317690	PROB	15.309	n/a	n/a	-999	8	[8, 6, 5]	19	FR1	0	R1023J
971.012	11.299	1332999	PROB	11.299	n/a	n/a	-999	8	[5, 9, 2]	16	FR1	0	R1023J
982.311	0.021	1344297	STOP	n/a	n/a	n/a	-999	8	[-999, -999, -999]	n/a	FR1	0	R1023J
982.332	1.119	1344318	DISTRACT_END	n/a	n/a	n/a	-999	8	[0, 0, 0]	n/a	FR1	0	R1023J
983.451	2.163	1345437	REC_START	n/a	n/a	n/a	-999	8	[0, 0, 0]	n/a	FR1	0	R1023J
985.614	0.782	1347600	REC_WORD	0.782	n/a	WORM	-999	8	[0, 0, 0]	n/a	FR1	0	R1023J
986.396	0.715	1348382	REC_WORD	0.715	n/a	EGG	-999	8	[0, 0, 0]	n/a	FR1	0	R1023J
987.111	0.734	1349097	REC_WORD	0.734	n/a	FISH	-999	8	[0, 0, 0]	n/a	FR1	0	R1023J
987.845	1.629	1349831	REC_WORD	1.629	n/a	HOOK	-999	8	[0, 0, 0]	n/a	FR1	0	R1023J
989.474	23.99	1351460	REC_WORD	23.99	n/a	SEA	-999	8	[0, 0, 0]	n/a	FR1	0	R1023J
1013.464	3.309	1375449	REC_END	n/a	n/a	n/a	-999	8	[0, 0, 0]	n/a	FR1	0	R1023J
1016.773	0.0	1378758	TRIAL	n/a	n/a	n/a	-999	9	[0, 0, 0]	n/a	FR1	0	R1023J
1016.773	10.428	1378758	COUNTDOWN_START	n/a	n/a	n/a	-999	9	[0, 0, 0]	n/a	FR1	0	R1023J
1027.201	0.007	1389186	COUNTDOWN_END	n/a	n/a	n/a	-999	9	[0, 0, 0]	n/a	FR1	0	R1023J
1027.208	2.403	1389193	ORIENT	n/a	n/a	n/a	-999	9	[0, 0, 0]	n/a	FR1	0	R1023J
1029.611	2.622	1391596	WORD	n/a	wordpools/wordpool_EN.txt	CLAY	1	9	[0, 0, 0]	n/a	FR1	0	R1023J
1032.233	2.47	1394217	WORD	n/a	wordpools/wordpool_EN.txt	INK	2	9	[0, 0, 0]	n/a	FR1	0	R1023J
1034.703	2.572	1396687	WORD	n/a	wordpools/wordpool_EN.txt	CHIN	3	9	[0, 0, 0]	n/a	FR1	0	R1023J
1037.275	2.436	1399259	WORD	n/a	wordpools/wordpool_EN.txt	BANK	4	9	[0, 0, 0]	n/a	FR1	0	R1023J
1039.711	2.404	1401695	WORD	n/a	wordpools/wordpool_EN.txt	PEACH	5	9	[0, 0, 0]	n/a	FR1	0	R1023J
1042.115	2.605	1404099	WORD	n/a	wordpools/wordpool_EN.txt	STOOL	6	9	[0, 0, 0]	n/a	FR1	0	R1023J
1044.72	2.471	1406704	WORD	n/a	wordpools/wordpool_EN.txt	BENCH	7	9	[0, 0, 0]	n/a	FR1	0	R1023J
1047.191	2.554	1409175	WORD	n/a	wordpools/wordpool_EN.txt	THREAD	8	9	[0, 0, 0]	n/a	FR1	0	R1023J
1049.745	2.438	1411729	WORD	n/a	wordpools/wordpool_EN.txt	LAMP	9	9	[0, 0, 0]	n/a	FR1	0	R1023J
1052.183	2.553	1414167	WORD	n/a	wordpools/wordpool_EN.txt	SOAP	10	9	[0, 0, 0]	n/a	FR1	0	R1023J
1054.736	2.539	1416720	WORD	n/a	wordpools/wordpool_EN.txt	FLUTE	11	9	[0, 0, 0]	n/a	FR1	0	R1023J
1057.275	1.619	1419259	WORD	n/a	wordpools/wordpool_EN.txt	PASTE	12	9	[0, 0, 0]	n/a	FR1	0	R1023J
1058.894	0.0	1420877	DISTRACT_START	n/a	n/a	n/a	-999	9	[0, 0, 0]	n/a	FR1	0	R1023J
1058.894	0.016	1420877	START	n/a	n/a	n/a	-999	9	[-999, -999, -999]	n/a	FR1	0	R1023J
1058.91	10.201	1420893	PROB	10.201	n/a	n/a	-999	9	[7, 4, 2]	13	FR1	0	R1023J
1069.111	11.087	1431094	PROB	11.087	n/a	n/a	-999	9	[8, 5, 9]	22	FR1	0	R1023J
1080.198	0.016	1442181	STOP	n/a	n/a	n/a	-999	9	[-999, -999, -999]	n/a	FR1	0	R1023J
1080.214	1.119	1442197	DISTRACT_END	n/a	n/a	n/a	-999	9	[0, 0, 0]	n/a	FR1	0	R1023J
1081.333	6.435	1443316	REC_START	n/a	n/a	n/a	-999	9	[0, 0, 0]	n/a	FR1	0	R1023J
1087.768	1.105	1449750	REC_WORD	1.105	n/a	STOOL	-999	9	[0, 0, 0]	n/a	FR1	0	R1023J
1088.873	22.473	1450855	REC_WORD	22.473	n/a	BENCH	-999	9	[0, 0, 0]	n/a	FR1	0	R1023J
1111.346	3.458	1473328	REC_END	n/a	n/a	n/a	-999	9	[0, 0, 0]	n/a	FR1	0	R1023J
1114.804	0.001	1476785	COUNTDOWN_START	n/a	n/a	n/a	-999	10	[0, 0, 0]	n/a	FR1	0	R1023J
1114.805	10.427	1476786	TRIAL	n/a	n/a	n/a	-999	10	[0, 0, 0]	n/a	FR1	0	R1023J
1125.232	0.007	1487213	COUNTDOWN_END	n/a	n/a	n/a	-999	10	[0, 0, 0]	n/a	FR1	0	R1023J
1125.239	2.47	1487220	ORIENT	n/a	n/a	n/a	-999	10	[0, 0, 0]	n/a	FR1	0	R1023J
1127.709	2.371	1489690	WORD	n/a	wordpools/wordpool_EN.txt	COW	1	10	[0, 0, 0]	n/a	FR1	0	R1023J
1130.08	2.538	1492061	WORD	n/a	wordpools/wordpool_EN.txt	STAR	2	10	[0, 0, 0]	n/a	FR1	0	R1023J
1132.618	2.487	1494599	WORD	n/a	wordpools/wordpool_EN.txt	HOUSE	3	10	[0, 0, 0]	n/a	FR1	0	R1023J
1135.105	2.471	1497086	WORD	n/a	wordpools/wordpool_EN.txt	DRESS	4	10	[0, 0, 0]	n/a	FR1	0	R1023J
1137.576	2.489	1499557	WORD	n/a	wordpools/wordpool_EN.txt	BRIDGE	5	10	[0, 0, 0]	n/a	FR1	0	R1023J
1140.065	2.553	1502046	WORD	n/a	wordpools/wordpool_EN.txt	GATE	6	10	[0, 0, 0]	n/a	FR1	0	R1023J
1142.618	2.387	1504598	WORD	n/a	wordpools/wordpool_EN.txt	STONE	7	10	[0, 0, 0]	n/a	FR1	0	R1023J
1145.005	2.421	1506985	WORD	n/a	wordpools/wordpool_EN.txt	FOX	8	10	[0, 0, 0]	n/a	FR1	0	R1023J
1147.426	2.421	1509406	WORD	n/a	wordpools/wordpool_EN.txt	TIE	9	10	[0, 0, 0]	n/a	FR1	0	R1023J
1149.847	2.537	1511827	WORD	n/a	wordpools/wordpool_EN.txt	SKY	10	10	[0, 0, 0]	n/a	FR1	0	R1023J
1152.384	2.571	1514364	WORD	n/a	wordpools/wordpool_EN.txt	PEA	11	10	[0, 0, 0]	n/a	FR1	0	R1023J
1154.955	1.619	1516935	WORD	n/a	wordpools/wordpool_EN.txt	HILL	12	10	[0, 0, 0]	n/a	FR1	0	R1023J
1156.574	0.001	1518554	DISTRACT_START	n/a	n/a	n/a	-999	10	[0, 0, 0]	n/a	FR1	0	R1023J
1156.575	0.016	1518555	START	n/a	n/a	n/a	-999	10	[-999, -999, -999]	n/a	FR1	0	R1023J
1156.591	5.576	1518571	PROB	5.576	n/a	n/a	-999	10	[3, 2, 1]	6	FR1	0	R1023J
1162.167	5.076	1524147	PROB	5.076	n/a	n/a	-999	10	[7, 7, 1]	15	FR1	0	R1023J
1167.243	10.306	1529223	PROB	10.306	n/a	n/a	-999	10	[6, 8, 2]	16	FR1	0	R1023J
1177.549	0.011	1539528	STOP	n/a	n/a	n/a	-999	10	[-999, -999, -999]	n/a	FR1	0	R1023J
1177.56	1.136	1539539	DISTRACT_END	n/a	n/a	n/a	-999	10	[0, 0, 0]	n/a	FR1	0	R1023J
1178.696	3.904	1540675	REC_START	n/a	n/a	n/a	-999	10	[0, 0, 0]	n/a	FR1	0	R1023J
1182.6	1.398	1544579	REC_WORD	1.398	n/a	COW	-999	10	[0, 0, 0]	n/a	FR1	0	R1023J
1183.998	0.667	1545977	REC_WORD	0.667	n/a	GATE	-999	10	[0, 0, 0]	n/a	FR1	0	R1023J
1184.665	24.045	1546644	REC_WORD	24.045	n/a	STONE	-999	10	[0, 0, 0]	n/a	FR1	0	R1023J
1208.71	4.126	1570688	REC_END	n/a	n/a	n/a	-999	10	[0, 0, 0]	n/a	FR1	0	R1023J
1212.836	0.0	1574814	TRIAL	n/a	n/a	n/a	-999	11	[0, 0, 0]	n/a	FR1	0	R1023J
1212.836	10.428	1574814	COUNTDOWN_START	n/a	n/a	n/a	-999	11	[0, 0, 0]	n/a	FR1	0	R1023J
1223.264	0.007	1585242	COUNTDOWN_END	n/a	n/a	n/a	-999	11	[0, 0, 0]	n/a	FR1	0	R1023J
1223.271	2.503	1585249	ORIENT	n/a	n/a	n/a	-999	11	[0, 0, 0]	n/a	FR1	0	R1023J
1225.774	2.439	1587752	WORD	n/a	wordpools/wordpool_EN.txt	SLEEVE	1	11	[0, 0, 0]	n/a	FR1	0	R1023J
1228.213	2.553	1590190	WORD	n/a	wordpools/wordpool_EN.txt	DITCH	2	11	[0, 0, 0]	n/a	FR1	0	R1023J
1230.766	2.522	1592743	WORD	n/a	wordpools/wordpool_EN.txt	VINE	3	11	[0, 0, 0]	n/a	FR1	0	R1023J
1233.288	2.386	1595265	WORD	n/a	wordpools/wordpool_EN.txt	BUSH	4	11	[0, 0, 0]	n/a	FR1	0	R1023J
1235.674	2.572	1597651	WORD	n/a	wordpools/wordpool_EN.txt	SNAIL	5	11	[0, 0, 0]	n/a	FR1	0	R1023J
1238.246	2.62	1600223	WORD	n/a	wordpools/wordpool_EN.txt	WHEEL	6	11	[0, 0, 0]	n/a	FR1	0	R1023J
1240.866	2.605	1602843	WORD	n/a	wordpools/wordpool_EN.txt	BIRD	7	11	[0, 0, 0]	n/a	FR1	0	R1023J
1243.471	2.587	1605448	WORD	n/a	wordpools/wordpool_EN.txt	EAR	8	11	[0, 0, 0]	n/a	FR1	0	R1023J
1246.058	2.605	1608035	WORD	n/a	wordpools/wordpool_EN.txt	SWAMP	9	11	[0, 0, 0]	n/a	FR1	0	R1023J
1248.663	2.454	1610640	WORD	n/a	wordpools/wordpool_EN.txt	HOLE	10	11	[0, 0, 0]	n/a	FR1	0	R1023J
1251.117	2.487	1613094	WORD	n/a	wordpools/wordpool_EN.txt	EEL	11	11	[0, 0, 0]	n/a	FR1	0	R1023J
1253.604	1.604	1615581	WORD	n/a	wordpools/wordpool_EN.txt	CRANE	12	11	[0, 0, 0]	n/a	FR1	0	R1023J
1255.208	0.001	1617184	DISTRACT_START	n/a	n/a	n/a	-999	11	[0, 0, 0]	n/a	FR1	0	R1023J
1255.209	0.016	1617185	START	n/a	n/a	n/a	-999	11	[-999, -999, -999]	n/a	FR1	0	R1023J
1255.225	10.183	1617201	PROB	10.183	n/a	n/a	-999	11	[4, 7, 3]	14	FR1	0	R1023J
1265.408	7.529	1627384	PROB	7.529	n/a	n/a	-999	11	[5, 6, 5]	16	FR1	0	R1023J
1272.937	5.938	1634913	PROB	5.938	n/a	n/a	-999	11	[1, 4, 5]	10	FR1	0	R1023J
1278.875	0.022	1640851	STOP	n/a	n/a	n/a	-999	11	[-999, -999, -999]	n/a	FR1	0	R1023J
1278.897	1.052	1640873	DISTRACT_END	n/a	n/a	n/a	-999	11	[0, 0, 0]	n/a	FR1	0	R1023J
1279.949	10.585	1641925	REC_START	n/a	n/a	n/a	-999	11	[0, 0, 0]	n/a	FR1	0	R1023J
1290.534	1.184	1652509	REC_WORD_VV	1.184	n/a	<>	-999	11	[0, 0, 0]	n/a	FR1	0	R1023J
1291.718	18.252	1653693	REC_WORD_VV	18.252	n/a	<>	-999	11	[0, 0, 0]	n/a	FR1	0	R1023J
1309.97	11.916	1671945	REC_END	n/a	n/a	n/a	-999	11	[0, 0, 0]	n/a	FR1	0	R1023J
1321.886	0.0	1683860	TRIAL	n/a	n/a	n/a	-999	12	[0, 0, 0]	n/a	FR1	0	R1023J
1321.886	10.428	1683860	COUNTDOWN_START	n/a	n/a	n/a	-999	12	[0, 0, 0]	n/a	FR1	0	R1023J
1332.314	0.007	1694288	COUNTDOWN_END	n/a	n/a	n/a	-999	12	[0, 0, 0]	n/a	FR1	0	R1023J
1332.321	2.554	1694295	ORIENT	n/a	n/a	n/a	-999	12	[0, 0, 0]	n/a	FR1	0	R1023J
1334.875	2.587	1696849	WORD	n/a	wordpools/wordpool_EN.txt	ROPE	1	12	[0, 0, 0]	n/a	FR1	0	R1023J
1337.462	2.504	1699436	WORD	n/a	wordpools/wordpool_EN.txt	DUCK	2	12	[0, 0, 0]	n/a	FR1	0	R1023J
1339.966	2.521	1701939	WORD	n/a	wordpools/wordpool_EN.txt	SNAKE	3	12	[0, 0, 0]	n/a	FR1	0	R1023J
1342.487	2.488	1704460	WORD	n/a	wordpools/wordpool_EN.txt	TENT	4	12	[0, 0, 0]	n/a	FR1	0	R1023J
1344.975	2.571	1706948	WORD	n/a	wordpools/wordpool_EN.txt	MAZE	5	12	[0, 0, 0]	n/a	FR1	0	R1023J
1347.546	2.521	1709519	WORD	n/a	wordpools/wordpool_EN.txt	HAWK	6	12	[0, 0, 0]	n/a	FR1	0	R1023J
1350.067	2.437	1712040	WORD	n/a	wordpools/wordpool_EN.txt	WEED	7	12	[0, 0, 0]	n/a	FR1	0	R1023J
1352.504	2.404	1714477	WORD	n/a	wordpools/wordpool_EN.txt	OWL	8	12	[0, 0, 0]	n/a	FR1	0	R1023J
1354.908	2.621	1716881	WORD	n/a	wordpools/wordpool_EN.txt	DEER	9	12	[0, 0, 0]	n/a	FR1	0	R1023J
1357.529	2.421	1719502	WORD	n/a	wordpools/wordpool_EN.txt	BROOM	10	12	[0, 0, 0]	n/a	FR1	0	R1023J
1359.95	2.421	1721923	WORD	n/a	wordpools/wordpool_EN.txt	ROAD	11	12	[0, 0, 0]	n/a	FR1	0	R1023J
1362.371	1.619	1724344	WORD	n/a	wordpools/wordpool_EN.txt	DOCK	12	12	[0, 0, 0]	n/a	FR1	0	R1023J
1363.99	0.002	1725963	DISTRACT_START	n/a	n/a	n/a	-999	12	[0, 0, 0]	n/a	FR1	0	R1023J
1363.992	0.015	1725965	START	n/a	n/a	n/a	-999	12	[-999, -999, -999]	n/a	FR1	0	R1023J
1364.007	6.043	1725980	PROB	6.043	n/a	n/a	-999	12	[1, 8, 1]	10	FR1	0	R1023J
1370.05	15.854	1732022	PROB	15.854	n/a	n/a	-999	12	[1, 3, 4]	8	FR1	0	R1023J
1385.904	0.006	1747876	STOP	n/a	n/a	n/a	-999	12	[-999, -999, -999]	n/a	FR1	0	R1023J
1385.91	1.053	1747882	DISTRACT_END	n/a	n/a	n/a	-999	12	[0, 0, 0]	n/a	FR1	0	R1023J
1386.963	3.473	1748935	REC_START	n/a	n/a	n/a	-999	12	[0, 0, 0]	n/a	FR1	0	R1023J
1390.436	1.032	1752408	REC_WORD	1.032	n/a	ROPE	-999	12	[0, 0, 0]	n/a	FR1	0	R1023J
1391.468	1.292	1753440	REC_WORD	1.292	n/a	STEAK	-999	12	[0, 0, 0]	n/a	FR1	0	R1023J
1392.76	24.216	1754732	REC_WORD	24.216	n/a	TENT	-999	12	[0, 0, 0]	n/a	FR1	0	R1023J
1416.976	6.748	1778947	REC_END	n/a	n/a	n/a	-999	12	[0, 0, 0]	n/a	FR1	0	R1023J
1423.724	0.0	1785694	TRIAL	n/a	n/a	n/a	-999	13	[0, 0, 0]	n/a	FR1	0	R1023J
1423.724	10.428	1785694	COUNTDOWN_START	n/a	n/a	n/a	-999	13	[0, 0, 0]	n/a	FR1	0	R1023J
1434.152	0.006	1796122	COUNTDOWN_END	n/a	n/a	n/a	-999	13	[0, 0, 0]	n/a	FR1	0	R1023J
1434.158	2.588	1796128	ORIENT	n/a	n/a	n/a	-999	13	[0, 0, 0]	n/a	FR1	0	R1023J
1436.746	2.572	1798716	WORD	n/a	wordpools/wordpool_EN.txt	NOSE	1	13	[0, 0, 0]	n/a	FR1	0	R1023J
1439.318	2.537	1801288	WORD	n/a	wordpools/wordpool_EN.txt	TAIL	2	13	[0, 0, 0]	n/a	FR1	0	R1023J
1441.855	2.604	1803825	WORD	n/a	wordpools/wordpool_EN.txt	PIT	3	13	[0, 0, 0]	n/a	FR1	0	R1023J
1444.459	2.521	1806429	WORD	n/a	wordpools/wordpool_EN.txt	PRINCE	4	13	[0, 0, 0]	n/a	FR1	0	R1023J
1446.98	2.572	1808950	WORD	n/a	wordpools/wordpool_EN.txt	MOUSE	5	13	[0, 0, 0]	n/a	FR1	0	R1023J
1449.552	2.52	1811522	WORD	n/a	wordpools/wordpool_EN.txt	SHIELD	6	13	[0, 0, 0]	n/a	FR1	0	R1023J
1452.072	2.421	1814041	WORD	n/a	wordpools/wordpool_EN.txt	ARM	7	13	[0, 0, 0]	n/a	FR1	0	R1023J
1454.493	2.554	1816462	WORD	n/a	wordpools/wordpool_EN.txt	TOE	8	13	[0, 0, 0]	n/a	FR1	0	R1023J
1457.047	2.471	1819016	WORD	n/a	wordpools/wordpool_EN.txt	WALL	9	13	[0, 0, 0]	n/a	FR1	0	R1023J
1459.518	2.571	1821487	WORD	n/a	wordpools/wordpool_EN.txt	SPEAR	10	13	[0, 0, 0]	n/a	FR1	0	R1023J
1462.089	2.437	1824058	WORD	n/a	wordpools/wordpool_EN.txt	HOOF	11	13	[0, 0, 0]	n/a	FR1	0	R1023J
1464.526	1.619	1826495	WORD	n/a	wordpools/wordpool_EN.txt	LAWN	12	13	[0, 0, 0]	n/a	FR1	0	R1023J
1466.145	0.001	1828114	DISTRACT_START	n/a	n/a	n/a	-999	13	[0, 0, 0]	n/a	FR1	0	R1023J
1466.146	0.016	1828115	START	n/a	n/a	n/a	-999	13	[-999, -999, -999]	n/a	FR1	0	R1023J
1466.162	5.292	1828131	PROB	5.292	n/a	n/a	-999	13	[3, 3, 1]	7	FR1	0	R1023J
1471.454	7.296	1833423	PROB	7.296	n/a	n/a	-999	13	[9, 7, 6]	22	FR1	0	R1023J
1478.75	7.045	1840719	PROB	7.045	n/a	n/a	-999	13	[6, 6, 2]	14	FR1	0	R1023J
1485.795	5.023	1847763	PROB	5.023	n/a	n/a	-999	13	[2, 1, 3]	6	FR1	0	R1023J
1490.818	0.019	1852786	STOP	n/a	n/a	n/a	-999	13	[-999, -999, -999]	n/a	FR1	0	R1023J
1490.837	1.169	1852805	DISTRACT_END	n/a	n/a	n/a	-999	13	[0, 0, 0]	n/a	FR1	0	R1023J
1492.006	1.986	1853974	REC_START	n/a	n/a	n/a	-999	13	[0, 0, 0]	n/a	FR1	0	R1023J
1493.992	1.039	1855960	REC_WORD	1.039	n/a	NOSE	-999	13	[0, 0, 0]	n/a	FR1	0	R1023J
1495.031	1.398	1856999	REC_WORD	1.398	n/a	TAIL	-999	13	[0, 0, 0]	n/a	FR1	0	R1023J
1496.429	1.939	1858397	REC_WORD	1.939	n/a	PIT	-999	13	[0, 0, 0]	n/a	FR1	0	R1023J
1498.368	23.652	1860336	REC_WORD	23.652	n/a	MOUSE	-999	13	[0, 0, 0]	n/a	FR1	0	R1023J
1522.02	6.681	1883987	REC_END	n/a	n/a	n/a	-999	13	[0, 0, 0]	n/a	FR1	0	R1023J
1528.701	0.0	1890668	TRIAL	n/a	n/a	n/a	-999	14	[0, 0, 0]	n/a	FR1	0	R1023J
1528.701	10.428	1890668	COUNTDOWN_START	n/a	n/a	n/a	-999	14	[0, 0, 0]	n/a	FR1	0	R1023J
1539.129	0.006	1901095	COUNTDOWN_END	n/a	n/a	n/a	-999	14	[0, 0, 0]	n/a	FR1	0	R1023J
1539.135	2.521	1901101	ORIENT	n/a	n/a	n/a	-999	14	[0, 0, 0]	n/a	FR1	0	R1023J
1541.656	2.42	1903622	WORD	n/a	wordpools/wordpool_EN.txt	WOLF	1	14	[0, 0, 0]	n/a	FR1	0	R1023J
1544.076	2.405	1906042	WORD	n/a	wordpools/wordpool_EN.txt	SHEEP	2	14	[0, 0, 0]	n/a	FR1	0	R1023J
1546.481	2.571	1908447	WORD	n/a	wordpools/wordpool_EN.txt	RUG	3	14	[0, 0, 0]	n/a	FR1	0	R1023J
1549.052	2.621	1911018	WORD	n/a	wordpools/wordpool_EN.txt	SPARK	4	14	[0, 0, 0]	n/a	FR1	0	R1023J
1551.673	2.42	1913639	WORD	n/a	wordpools/wordpool_EN.txt	SUN	5	14	[0, 0, 0]	n/a	FR1	0	R1023J
1554.093	2.521	1916059	WORD	n/a	wordpools/wordpool_EN.txt	CONE	6	14	[0, 0, 0]	n/a	FR1	0	R1023J
1556.614	2.405	1918580	WORD	n/a	wordpools/wordpool_EN.txt	ICE	7	14	[0, 0, 0]	n/a	FR1	0	R1023J
1559.019	2.57	1920985	WORD	n/a	wordpools/wordpool_EN.txt	WHALE	8	14	[0, 0, 0]	n/a	FR1	0	R1023J
1561.589	2.488	1923555	WORD	n/a	wordpools/wordpool_EN.txt	NAIL	9	14	[0, 0, 0]	n/a	FR1	0	R1023J
1564.077	2.588	1926042	WORD	n/a	wordpools/wordpool_EN.txt	CLIFF	10	14	[0, 0, 0]	n/a	FR1	0	R1023J
1566.665	2.387	1928630	WORD	n/a	wordpools/wordpool_EN.txt	JEEP	11	14	[0, 0, 0]	n/a	FR1	0	R1023J
1569.052	1.619	1931017	WORD	n/a	wordpools/wordpool_EN.txt	CROW	12	14	[0, 0, 0]	n/a	FR1	0	R1023J
1570.671	0.001	1932636	DISTRACT_START	n/a	n/a	n/a	-999	14	[0, 0, 0]	n/a	FR1	0	R1023J
1570.672	0.016	1932637	START	n/a	n/a	n/a	-999	14	[-999, -999, -999]	n/a	FR1	0	R1023J
1570.688	4.825	1932653	PROB	4.825	n/a	n/a	-999	14	[1, 1, 6]	8	FR1	0	R1023J
1575.513	4.759	1937478	PROB	4.759	n/a	n/a	-999	14	[1, 7, 7]	15	FR1	0	R1023J
1580.272	7.411	1942237	PROB	7.411	n/a	n/a	-999	14	[1, 7, 8]	16	FR1	0	R1023J
1587.683	4.938	1949648	PROB	4.938	n/a	n/a	-999	14	[8, 4, 4]	16	FR1	0	R1023J
1592.621	0.021	1954585	STOP	n/a	n/a	n/a	-999	14	[-999, -999, -999]	n/a	FR1	0	R1023J
1592.642	1.103	1954606	DISTRACT_END	n/a	n/a	n/a	-999	14	[0, 0, 0]	n/a	FR1	0	R1023J
1593.745	7.755	1955709	REC_START	n/a	n/a	n/a	-999	14	[0, 0, 0]	n/a	FR1	0	R1023J
1601.5	2.782	1963464	REC_WORD_VV	2.782	n/a	<>	-999	14	[0, 0, 0]	n/a	FR1	0	R1023J
1604.282	19.476	1966246	REC_WORD_VV	19.476	n/a	<>	-999	14	[0, 0, 0]	n/a	FR1	0	R1023J
1623.758	27.883	1985721	REC_END	n/a	n/a	n/a	-999	14	[0, 0, 0]	n/a	FR1	0	R1023J
1651.641	0.0	2013603	COUNTDOWN_START	n/a	n/a	n/a	-999	15	[0, 0, 0]	n/a	FR1	0	R1023J
1651.641	10.428	2013603	TRIAL	n/a	n/a	n/a	-999	15	[0, 0, 0]	n/a	FR1	0	R1023J
1662.069	0.006	2024031	COUNTDOWN_END	n/a	n/a	n/a	-999	15	[0, 0, 0]	n/a	FR1	0	R1023J
1662.075	2.555	2024037	ORIENT	n/a	n/a	n/a	-999	15	[0, 0, 0]	n/a	FR1	0	R1023J
1664.63	2.571	2026592	WORD	n/a	wordpools/wordpool_EN.txt	GLASS	1	15	[0, 0, 0]	n/a	FR1	0	R1023J
1667.201	2.47	2029163	WORD	n/a	wordpools/wordpool_EN.txt	FOG	2	15	[0, 0, 0]	n/a	FR1	0	R1023J
1669.671	2.421	2031633	WORD	n/a	wordpools/wordpool_EN.txt	TRAY	3	15	[0, 0, 0]	n/a	FR1	0	R1023J
1672.092	2.604	2034054	WORD	n/a	wordpools/wordpool_EN.txt	FUDGE	4	15	[0, 0, 0]	n/a	FR1	0	R1023J
1674.696	2.421	2036658	WORD	n/a	wordpools/wordpool_EN.txt	STEAM	5	15	[0, 0, 0]	n/a	FR1	0	R1023J
1677.117	2.621	2039078	WORD	n/a	wordpools/wordpool_EN.txt	JET	6	15	[0, 0, 0]	n/a	FR1	0	R1023J
1679.738	2.539	2041699	WORD	n/a	wordpools/wordpool_EN.txt	LAND	7	15	[0, 0, 0]	n/a	FR1	0	R1023J
1682.277	2.586	2044238	WORD	n/a	wordpools/wordpool_EN.txt	SALT	8	15	[0, 0, 0]	n/a	FR1	0	R1023J
1684.863	2.422	2046824	WORD	n/a	wordpools/wordpool_EN.txt	FLAME	9	15	[0, 0, 0]	n/a	FR1	0	R1023J
1687.285	2.52	2049246	WORD	n/a	wordpools/wordpool_EN.txt	CLOUD	10	15	[0, 0, 0]	n/a	FR1	0	R1023J
1689.805	2.571	2051766	WORD	n/a	wordpools/wordpool_EN.txt	SHIP	11	15	[0, 0, 0]	n/a	FR1	0	R1023J
1692.376	1.619	2054337	WORD	n/a	wordpools/wordpool_EN.txt	SPONGE	12	15	[0, 0, 0]	n/a	FR1	0	R1023J
1693.995	0.001	2055956	DISTRACT_START	n/a	n/a	n/a	-999	15	[0, 0, 0]	n/a	FR1	0	R1023J
1693.996	0.016	2055957	START	n/a	n/a	n/a	-999	15	[-999, -999, -999]	n/a	FR1	0	R1023J
1694.012	12.188	2055973	PROB	12.188	n/a	n/a	-999	15	[8, 5, 4]	17	FR1	0	R1023J
1706.2	6.176	2068160	PROB	6.176	n/a	n/a	-999	15	[2, 8, 3]	13	FR1	0	R1023J
1712.376	6.012	2074336	PROB	6.012	n/a	n/a	-999	15	[6, 6, 3]	15	FR1	0	R1023J
1718.388	0.015	2080348	STOP	n/a	n/a	n/a	-999	15	[-999, -999, -999]	n/a	FR1	0	R1023J
1718.403	1.237	2080363	DISTRACT_END	n/a	n/a	n/a	-999	15	[0, 0, 0]	n/a	FR1	0	R1023J
1719.64	2.256	2081600	REC_START	n/a	n/a	n/a	-999	15	[0, 0, 0]	n/a	FR1	0	R1023J
1721.896	0.714	2083856	REC_WORD	0.714	n/a	GLASS	-999	15	[0, 0, 0]	n/a	FR1	0	R1023J
1722.61	2.639	2084570	REC_WORD	2.639	n/a	FOG	-999	15	[0, 0, 0]	n/a	FR1	0	R1023J
1725.249	1.988	2087209	REC_WORD	1.988	n/a	SHIP	-999	15	[0, 0, 0]	n/a	FR1	0	R1023J
1727.237	22.416	2089197	REC_WORD	22.416	n/a	FUDGE	-999	15	[0, 0, 0]	n/a	FR1	0	R1023J
1749.653	4.21	2111612	REC_END	n/a	n/a	n/a	-999	15	[0, 0, 0]	n/a	FR1	0	R1023J
1753.863	0.0	2115822	TRIAL	n/a	n/a	n/a	-999	16	[0, 0, 0]	n/a	FR1	0	R1023J
1753.863	10.428	2115822	COUNTDOWN_START	n/a	n/a	n/a	-999	16	[0, 0, 0]	n/a	FR1	0	R1023J
1764.291	0.007	2126249	COUNTDOWN_END	n/a	n/a	n/a	-999	16	[0, 0, 0]	n/a	FR1	0	R1023J
1764.298	2.42	2126256	ORIENT	n/a	n/a	n/a	-999	16	[0, 0, 0]	n/a	FR1	0	R1023J
1766.718	2.421	2128676	WORD	n/a	wordpools/wordpool_EN.txt	MOUTH	1	16	[0, 0, 0]	n/a	FR1	0	R1023J
1769.139	2.604	2131097	WORD	n/a	wordpools/wordpool_EN.txt	ROSE	2	16	[0, 0, 0]	n/a	FR1	0	R1023J
1771.743	2.371	2133701	WORD	n/a	wordpools/wordpool_EN.txt	FLOOR	3	16	[0, 0, 0]	n/a	FR1	0	R1023J
1774.114	2.47	2136072	WORD	n/a	wordpools/wordpool_EN.txt	PARK	4	16	[0, 0, 0]	n/a	FR1	0	R1023J
1776.584	2.623	2138542	WORD	n/a	wordpools/wordpool_EN.txt	SHOE	5	16	[0, 0, 0]	n/a	FR1	0	R1023J
1779.207	2.453	2141165	WORD	n/a	wordpools/wordpool_EN.txt	BOOT	6	16	[0, 0, 0]	n/a	FR1	0	R1023J
1781.66	2.572	2143618	WORD	n/a	wordpools/wordpool_EN.txt	CLOWN	7	16	[0, 0, 0]	n/a	FR1	0	R1023J
1784.232	2.403	2146190	WORD	n/a	wordpools/wordpool_EN.txt	SUIT	8	16	[0, 0, 0]	n/a	FR1	0	R1023J
1786.635	2.638	2148593	WORD	n/a	wordpools/wordpool_EN.txt	CAPE	9	16	[0, 0, 0]	n/a	FR1	0	R1023J
1789.273	2.554	2151230	WORD	n/a	wordpools/wordpool_EN.txt	JUICE	10	16	[0, 0, 0]	n/a	FR1	0	R1023J
1791.827	2.587	2153784	WORD	n/a	wordpools/wordpool_EN.txt	WORLD	11	16	[0, 0, 0]	n/a	FR1	0	R1023J
1794.414	1.62	2156371	WORD	n/a	wordpools/wordpool_EN.txt	BAG	12	16	[0, 0, 0]	n/a	FR1	0	R1023J
1796.034	0.001	2157991	DISTRACT_START	n/a	n/a	n/a	-999	16	[0, 0, 0]	n/a	FR1	0	R1023J
1796.035	0.015	2157992	START	n/a	n/a	n/a	-999	16	[-999, -999, -999]	n/a	FR1	0	R1023J
1796.05	7.797	2158007	PROB	7.797	n/a	n/a	-999	16	[6, 3, 9]	18	FR1	0	R1023J
1803.847	4.674	2165804	PROB	4.674	n/a	n/a	-999	16	[1, 8, 2]	11	FR1	0	R1023J
1808.521	6.061	2170478	PROB	6.061	n/a	n/a	-999	16	[1, 8, 3]	12	FR1	0	R1023J
1814.582	10.275	2176539	PROB	10.275	n/a	n/a	-999	16	[2, 1, 6]	9	FR1	0	R1023J
1824.857	0.009	2186813	STOP	n/a	n/a	n/a	-999	16	[-999, -999, -999]	n/a	FR1	0	R1023J
1824.866	1.185	2186822	DISTRACT_END	n/a	n/a	n/a	-999	16	[0, 0, 0]	n/a	FR1	0	R1023J
1826.051	1.834	2188007	REC_START	n/a	n/a	n/a	-999	16	[0, 0, 0]	n/a	FR1	0	R1023J
1827.885	0.869	2189841	REC_WORD	0.869	n/a	MOUTH	-999	16	[0, 0, 0]	n/a	FR1	0	R1023J
1828.754	1.825	2190710	REC_WORD	1.825	n/a	ROSE	-999	16	[0, 0, 0]	n/a	FR1	0	R1023J
1830.579	1.318	2192535	REC_WORD	1.318	n/a	FLOOR	-999	16	[0, 0, 0]	n/a	FR1	0	R1023J
1831.897	24.168	2193853	REC_WORD	24.168	n/a	WORLD	-999	16	[0, 0, 0]	n/a	FR1	0	R1023J
1856.065	3.109	2218020	REC_END	n/a	n/a	n/a	-999	16	[0, 0, 0]	n/a	FR1	0	R1023J
1859.174	0.001	2221129	COUNTDOWN_START	n/a	n/a	n/a	-999	17	[0, 0, 0]	n/a	FR1	0	R1023J
1859.175	10.427	2221130	TRIAL	n/a	n/a	n/a	-999	17	[0, 0, 0]	n/a	FR1	0	R1023J
1869.602	0.006	2231557	COUNTDOWN_END	n/a	n/a	n/a	-999	17	[0, 0, 0]	n/a	FR1	0	R1023J
1869.608	2.404	2231563	ORIENT	n/a	n/a	n/a	-999	17	[0, 0, 0]	n/a	FR1	0	R1023J
1872.012	2.537	2233966	WORD	n/a	wordpools/wordpool_EN.txt	CLOCK	1	17	[0, 0, 0]	n/a	FR1	0	R1023J
1874.549	2.588	2236503	WORD	n/a	wordpools/wordpool_EN.txt	SPOON	2	17	[0, 0, 0]	n/a	FR1	0	R1023J
1877.137	2.421	2239091	WORD	n/a	wordpools/wordpool_EN.txt	SWORD	3	17	[0, 0, 0]	n/a	FR1	0	R1023J
1879.558	2.604	2241512	WORD	n/a	wordpools/wordpool_EN.txt	VAN	4	17	[0, 0, 0]	n/a	FR1	0	R1023J
1882.162	2.438	2244116	WORD	n/a	wordpools/wordpool_EN.txt	BOOK	5	17	[0, 0, 0]	n/a	FR1	0	R1023J
1884.6	2.387	2246554	WORD	n/a	wordpools/wordpool_EN.txt	ROOM	6	17	[0, 0, 0]	n/a	FR1	0	R1023J
1886.987	2.454	2248941	WORD	n/a	wordpools/wordpool_EN.txt	STREET	7	17	[0, 0, 0]	n/a	FR1	0	R1023J
1889.441	2.504	2251395	WORD	n/a	wordpools/wordpool_EN.txt	BLUSH	8	17	[0, 0, 0]	n/a	FR1	0	R1023J
1891.945	2.554	2253899	WORD	n/a	wordpools/wordpool_EN.txt	SOUP	9	17	[0, 0, 0]	n/a	FR1	0	R1023J
1894.499	2.438	2256453	WORD	n/a	wordpools/wordpool_EN.txt	TRUCK	10	17	[0, 0, 0]	n/a	FR1	0	R1023J
1896.937	2.504	2258891	WORD	n/a	wordpools/wordpool_EN.txt	GOAT	11	17	[0, 0, 0]	n/a	FR1	0	R1023J
1899.441	1.62	2261395	WORD	n/a	wordpools/wordpool_EN.txt	CART	12	17	[0, 0, 0]	n/a	FR1	0	R1023J
1901.061	0.0	2263014	DISTRACT_START	n/a	n/a	n/a	-999	17	[0, 0, 0]	n/a	FR1	0	R1023J
1901.061	0.016	2263014	START	n/a	n/a	n/a	-999	17	[-999, -999, -999]	n/a	FR1	0	R1023J
1901.077	9.133	2263030	PROB	9.133	n/a	n/a	-999	17	[5, 3, 6]	14	FR1	0	R1023J
1910.21	12.276	2272163	PROB	12.276	n/a	n/a	-999	17	[8, 6, 5]	19	FR1	0	R1023J
1922.486	0.011	2284439	STOP	n/a	n/a	n/a	-999	17	[-999, -999, -999]	n/a	FR1	0	R1023J
1922.497	1.085	2284450	DISTRACT_END	n/a	n/a	n/a	-999	17	[0, 0, 0]	n/a	FR1	0	R1023J
1923.582	1.856	2285535	REC_START	n/a	n/a	n/a	-999	17	[0, 0, 0]	n/a	FR1	0	R1023J
1925.438	1.364	2287391	REC_WORD	1.364	n/a	CLOCK	-999	17	[0, 0, 0]	n/a	FR1	0	R1023J
1926.802	1.49	2288755	REC_WORD	1.49	n/a	SPOON	-999	17	[0, 0, 0]	n/a	FR1	0	R1023J
1928.292	25.311	2290244	REC_WORD	25.311	n/a	ROOM	-999	17	[0, 0, 0]	n/a	FR1	0	R1023J
1953.603	2.718	2315555	REC_END	n/a	n/a	n/a	-999	17	[0, 0, 0]	n/a	FR1	0	R1023J
1956.321	0.001	2318272	COUNTDOWN_START	n/a	n/a	n/a	-999	18	[0, 0, 0]	n/a	FR1	0	R1023J
1956.322	10.427	2318273	TRIAL	n/a	n/a	n/a	-999	18	[0, 0, 0]	n/a	FR1	0	R1023J
1966.749	0.005	2328700	COUNTDOWN_END	n/a	n/a	n/a	-999	18	[0, 0, 0]	n/a	FR1	0	R1023J
1966.754	2.539	2328705	ORIENT	n/a	n/a	n/a	-999	18	[0, 0, 0]	n/a	FR1	0	R1023J
1969.293	2.454	2331244	WORD	n/a	wordpools/wordpool_EN.txt	RAIN	1	18	[0, 0, 0]	n/a	FR1	0	R1023J
1971.747	2.42	2333698	WORD	n/a	wordpools/wordpool_EN.txt	SKI	2	18	[0, 0, 0]	n/a	FR1	0	R1023J
1974.167	2.604	2336118	WORD	n/a	wordpools/wordpool_EN.txt	DRUM	3	18	[0, 0, 0]	n/a	FR1	0	R1023J
1976.771	2.44	2338722	WORD	n/a	wordpools/wordpool_EN.txt	CAR	4	18	[0, 0, 0]	n/a	FR1	0	R1023J
1979.211	2.385	2341162	WORD	n/a	wordpools/wordpool_EN.txt	CROWN	5	18	[0, 0, 0]	n/a	FR1	0	R1023J
1981.596	2.538	2343547	WORD	n/a	wordpools/wordpool_EN.txt	STAIR	6	18	[0, 0, 0]	n/a	FR1	0	R1023J
1984.134	2.521	2346084	WORD	n/a	wordpools/wordpool_EN.txt	KEY	7	18	[0, 0, 0]	n/a	FR1	0	R1023J
1986.655	2.487	2348605	WORD	n/a	wordpools/wordpool_EN.txt	DOOR	8	18	[0, 0, 0]	n/a	FR1	0	R1023J
1989.142	2.387	2351092	WORD	n/a	wordpools/wordpool_EN.txt	CHIEF	9	18	[0, 0, 0]	n/a	FR1	0	R1023J
1991.529	2.588	2353479	WORD	n/a	wordpools/wordpool_EN.txt	WAVE	10	18	[0, 0, 0]	n/a	FR1	0	R1023J
1994.117	2.404	2356067	WORD	n/a	wordpools/wordpool_EN.txt	TOY	11	18	[0, 0, 0]	n/a	FR1	0	R1023J
1996.521	1.62	2358471	WORD	n/a	wordpools/wordpool_EN.txt	BLOOM	12	18	[0, 0, 0]	n/a	FR1	0	R1023J
1998.141	0.0	2360091	DISTRACT_START	n/a	n/a	n/a	-999	18	[0, 0, 0]	n/a	FR1	0	R1023J
1998.141	0.016	2360091	START	n/a	n/a	n/a	-999	18	[-999, -999, -999]	n/a	FR1	0	R1023J
1998.157	5.71	2360107	PROB	5.71	n/a	n/a	-999	18	[7, 1, 8]	16	FR1	0	R1023J
2003.867	10.2	2365817	PROB	10.2	n/a	n/a	-999	18	[1, 5, 7]	13	FR1	0	R1023J
2014.067	8.355	2376016	PROB	8.355	n/a	n/a	-999	18	[7, 4, 4]	15	FR1	0	R1023J
2022.422	0.01	2384371	STOP	n/a	n/a	n/a	-999	18	[-999, -999, -999]	n/a	FR1	0	R1023J
2022.432	1.152	2384381	DISTRACT_END	n/a	n/a	n/a	-999	18	[0, 0, 0]	n/a	FR1	0	R1023J
2023.584	1.798	2385533	REC_START	n/a	n/a	n/a	-999	18	[0, 0, 0]	n/a	FR1	0	R1023J
2025.382	1.148	2387331	REC_WORD	1.148	n/a	KEY	-999	18	[0, 0, 0]	n/a	FR1	0	R1023J
2026.53	1.175	2388479	REC_WORD	1.175	n/a	DOOR	-999	18	[0, 0, 0]	n/a	FR1	0	R1023J
2027.705	1.53	2389654	REC_WORD	1.53	n/a	CAR	-999	18	[0, 0, 0]	n/a	FR1	0	R1023J
2029.235	24.361	2391184	REC_WORD	24.361	n/a	SKI	-999	18	[0, 0, 0]	n/a	FR1	0	R1023J
2053.596	3.36	2415544	REC_END	n/a	n/a	n/a	-999	18	[0, 0, 0]	n/a	FR1	0	R1023J
2056.956	0.001	2418904	COUNTDOWN_START	n/a	n/a	n/a	-999	19	[0, 0, 0]	n/a	FR1	0	R1023J
2056.957	10.427	2418905	TRIAL	n/a	n/a	n/a	-999	19	[0, 0, 0]	n/a	FR1	0	R1023J
2067.384	0.006	2429332	COUNTDOWN_END	n/a	n/a	n/a	-999	19	[0, 0, 0]	n/a	FR1	0	R1023J
2067.39	2.455	2429338	ORIENT	n/a	n/a	n/a	-999	19	[0, 0, 0]	n/a	FR1	0	R1023J
2069.845	2.587	2431792	WORD	n/a	wordpools/wordpool_EN.txt	NEST	1	19	[0, 0, 0]	n/a	FR1	0	R1023J
2072.432	2.571	2434379	WORD	n/a	wordpools/wordpool_EN.txt	CAKE	2	19	[0, 0, 0]	n/a	FR1	0	R1023J
2075.003	2.538	2436950	WORD	n/a	wordpools/wordpool_EN.txt	CHEEK	3	19	[0, 0, 0]	n/a	FR1	0	R1023J
2077.541	2.404	2439488	WORD	n/a	wordpools/wordpool_EN.txt	FACE	4	19	[0, 0, 0]	n/a	FR1	0	R1023J
2079.945	2.487	2441892	WORD	n/a	wordpools/wordpool_EN.txt	FORK	5	19	[0, 0, 0]	n/a	FR1	0	R1023J
2082.432	2.555	2444379	WORD	n/a	wordpools/wordpool_EN.txt	CUP	6	19	[0, 0, 0]	n/a	FR1	0	R1023J
2084.987	2.487	2446934	WORD	n/a	wordpools/wordpool_EN.txt	MOOSE	7	19	[0, 0, 0]	n/a	FR1	0	R1023J
2087.474	2.538	2449421	WORD	n/a	wordpools/wordpool_EN.txt	AXE	8	19	[0, 0, 0]	n/a	FR1	0	R1023J
2090.012	2.454	2451959	WORD	n/a	wordpools/wordpool_EN.txt	TOAST	9	19	[0, 0, 0]	n/a	FR1	0	R1023J
2092.466	2.454	2454413	WORD	n/a	wordpools/wordpool_EN.txt	HEN	10	19	[0, 0, 0]	n/a	FR1	0	R1023J
2094.92	2.605	2456867	WORD	n/a	wordpools/wordpool_EN.txt	FRUIT	11	19	[0, 0, 0]	n/a	FR1	0	R1023J
2097.525	1.619	2459471	WORD	n/a	wordpools/wordpool_EN.txt	PALM	12	19	[0, 0, 0]	n/a	FR1	0	R1023J
2099.144	0.001	2461090	DISTRACT_START	n/a	n/a	n/a	-999	19	[0, 0, 0]	n/a	FR1	0	R1023J
2099.145	0.015	2461091	START	n/a	n/a	n/a	-999	19	[-999, -999, -999]	n/a	FR1	0	R1023J
2099.16	8.832	2461106	PROB	8.832	n/a	n/a	-999	19	[6, 4, 5]	15	FR1	0	R1023J
2107.992	4.608	2469938	PROB	4.608	n/a	n/a	-999	19	[1, 6, 2]	9	FR1	0	R1023J
2112.6	6.194	2474546	PROB	6.194	n/a	n/a	-999	19	[6, 3, 9]	18	FR1	0	R1023J
2118.794	6.02	2480740	PROB	6.02	n/a	n/a	-999	19	[7, 4, 6]	17	FR1	0	R1023J
2124.814	0.006	2486759	STOP	n/a	n/a	n/a	-999	19	[-999, -999, -999]	n/a	FR1	0	R1023J
2124.82	1.136	2486765	DISTRACT_END	n/a	n/a	n/a	-999	19	[0, 0, 0]	n/a	FR1	0	R1023J
2125.956	1.761	2487901	REC_START	n/a	n/a	n/a	-999	19	[0, 0, 0]	n/a	FR1	0	R1023J
2127.717	1.383	2489662	REC_WORD	1.383	n/a	CHEEK	-999	19	[0, 0, 0]	n/a	FR1	0	R1023J
2129.1	1.153	2491045	REC_WORD	1.153	n/a	FACE	-999	19	[0, 0, 0]	n/a	FR1	0	R1023J
2130.253	25.724	2492198	REC_WORD	25.724	n/a	FORK	-999	19	[0, 0, 0]	n/a	FR1	0	R1023J
2155.977	4.437	2517921	REC_END	n/a	n/a	n/a	-999	19	[0, 0, 0]	n/a	FR1	0	R1023J
2160.414	0.0	2522358	TRIAL	n/a	n/a	n/a	-999	20	[0, 0, 0]	n/a	FR1	0	R1023J
2160.414	10.428	2522358	COUNTDOWN_START	n/a	n/a	n/a	-999	20	[0, 0, 0]	n/a	FR1	0	R1023J
2170.842	0.006	2532786	COUNTDOWN_END	n/a	n/a	n/a	-999	20	[0, 0, 0]	n/a	FR1	0	R1023J
2170.848	2.571	2532792	ORIENT	n/a	n/a	n/a	-999	20	[0, 0, 0]	n/a	FR1	0	R1023J
2173.419	2.388	2535363	WORD	n/a	wordpools/wordpool_EN.txt	FARM	1	20	[0, 0, 0]	n/a	FR1	0	R1023J
2175.807	2.57	2537751	WORD	n/a	wordpools/wordpool_EN.txt	LAKE	2	20	[0, 0, 0]	n/a	FR1	0	R1023J
2178.377	2.521	2540321	WORD	n/a	wordpools/wordpool_EN.txt	SNOW	3	20	[0, 0, 0]	n/a	FR1	0	R1023J
2180.898	2.488	2542841	WORD	n/a	wordpools/wordpool_EN.txt	RAKE	4	20	[0, 0, 0]	n/a	FR1	0	R1023J
2183.386	2.571	2545329	WORD	n/a	wordpools/wordpool_EN.txt	CALF	5	20	[0, 0, 0]	n/a	FR1	0	R1023J
2185.957	2.554	2547900	WORD	n/a	wordpools/wordpool_EN.txt	SPRING	6	20	[0, 0, 0]	n/a	FR1	0	R1023J
2188.511	2.604	2550454	WORD	n/a	wordpools/wordpool_EN.txt	GRASS	7	20	[0, 0, 0]	n/a	FR1	0	R1023J
2191.115	2.571	2553058	WORD	n/a	wordpools/wordpool_EN.txt	SKUNK	8	20	[0, 0, 0]	n/a	FR1	0	R1023J
2193.686	2.489	2555629	WORD	n/a	wordpools/wordpool_EN.txt	WOOD	9	20	[0, 0, 0]	n/a	FR1	0	R1023J
2196.175	2.503	2558118	WORD	n/a	wordpools/wordpool_EN.txt	SIGN	10	20	[0, 0, 0]	n/a	FR1	0	R1023J
2198.678	2.572	2560621	WORD	n/a	wordpools/wordpool_EN.txt	ELF	11	20	[0, 0, 0]	n/a	FR1	0	R1023J
2201.25	1.618	2563193	WORD	n/a	wordpools/wordpool_EN.txt	MOTH	12	20	[0, 0, 0]	n/a	FR1	0	R1023J
2202.868	0.001	2564811	DISTRACT_START	n/a	n/a	n/a	-999	20	[0, 0, 0]	n/a	FR1	0	R1023J
2202.869	0.016	2564812	START	n/a	n/a	n/a	-999	20	[-999, -999, -999]	n/a	FR1	0	R1023J
2202.885	6.127	2564828	PROB	6.127	n/a	n/a	-999	20	[2, 4, 1]	7	FR1	0	R1023J
2209.012	8.564	2570954	PROB	8.564	n/a	n/a	-999	20	[1, 7, 2]	10	FR1	0	R1023J
2217.576	9.688	2579518	PROB	9.688	n/a	n/a	-999	20	[3, 4, 5]	12	FR1	0	R1023J
2227.264	0.013	2589206	STOP	n/a	n/a	n/a	-999	20	[-999, -999, -999]	n/a	FR1	0	R1023J
2227.277	1.169	2589219	DISTRACT_END	n/a	n/a	n/a	-999	20	[0, 0, 0]	n/a	FR1	0	R1023J
2228.446	1.547	2590388	REC_START	n/a	n/a	n/a	-999	20	[0, 0, 0]	n/a	FR1	0	R1023J
2229.993	1.014	2591935	REC_WORD	1.014	n/a	FARM	-999	20	[0, 0, 0]	n/a	FR1	0	R1023J
2231.007	0.8	2592949	REC_WORD	0.8	n/a	LAKE	-999	20	[0, 0, 0]	n/a	FR1	0	R1023J
2231.807	1.142	2593749	REC_WORD	1.142	n/a	SNOW	-999	20	[0, 0, 0]	n/a	FR1	0	R1023J
2232.949	1.264	2594891	REC_WORD	1.264	n/a	GRASS	-999	20	[0, 0, 0]	n/a	FR1	0	R1023J
2234.213	24.246	2596155	REC_WORD	24.246	n/a	CALF	-999	20	[0, 0, 0]	n/a	FR1	0	R1023J
2258.459	3.976	2620400	REC_END	n/a	n/a	n/a	-999	20	[0, 0, 0]	n/a	FR1	0	R1023J
2262.435	0.001	2624376	COUNTDOWN_START	n/a	n/a	n/a	-999	21	[0, 0, 0]	n/a	FR1	0	R1023J
2262.436	10.427	2624377	TRIAL	n/a	n/a	n/a	-999	21	[0, 0, 0]	n/a	FR1	0	R1023J
2272.863	0.007	2634803	COUNTDOWN_END	n/a	n/a	n/a	-999	21	[0, 0, 0]	n/a	FR1	0	R1023J
2272.87	2.438	2634810	ORIENT	n/a	n/a	n/a	-999	21	[0, 0, 0]	n/a	FR1	0	R1023J
2275.308	2.453	2637248	WORD	n/a	wordpools/wordpool_EN.txt	POLE	1	21	[0, 0, 0]	n/a	FR1	0	R1023J
2277.761	2.505	2639701	WORD	n/a	wordpools/wordpool_EN.txt	HORSE	2	21	[0, 0, 0]	n/a	FR1	0	R1023J
2280.266	2.621	2642206	WORD	n/a	wordpools/wordpool_EN.txt	BALL	3	21	[0, 0, 0]	n/a	FR1	0	R1023J
2282.887	2.454	2644827	WORD	n/a	wordpools/wordpool_EN.txt	APE	4	21	[0, 0, 0]	n/a	FR1	0	R1023J
2285.341	2.454	2647281	WORD	n/a	wordpools/wordpool_EN.txt	CORD	5	21	[0, 0, 0]	n/a	FR1	0	R1023J
2287.795	2.521	2649735	WORD	n/a	wordpools/wordpool_EN.txt	MAP	6	21	[0, 0, 0]	n/a	FR1	0	R1023J
2290.316	2.487	2652256	WORD	n/a	wordpools/wordpool_EN.txt	MAIL	7	21	[0, 0, 0]	n/a	FR1	0	R1023J
2292.803	2.571	2654742	WORD	n/a	wordpools/wordpool_EN.txt	TOAD	8	21	[0, 0, 0]	n/a	FR1	0	R1023J
2295.374	2.621	2657313	WORD	n/a	wordpools/wordpool_EN.txt	TEETH	9	21	[0, 0, 0]	n/a	FR1	0	R1023J
2297.995	2.388	2659934	WORD	n/a	wordpools/wordpool_EN.txt	BEAR	10	21	[0, 0, 0]	n/a	FR1	0	R1023J
2300.383	2.437	2662322	WORD	n/a	wordpools/wordpool_EN.txt	CAT	11	21	[0, 0, 0]	n/a	FR1	0	R1023J
2302.82	1.619	2664759	WORD	n/a	wordpools/wordpool_EN.txt	JUDGE	12	21	[0, 0, 0]	n/a	FR1	0	R1023J
2304.439	0.001	2666378	DISTRACT_START	n/a	n/a	n/a	-999	21	[0, 0, 0]	n/a	FR1	0	R1023J
2304.44	0.016	2666379	START	n/a	n/a	n/a	-999	21	[-999, -999, -999]	n/a	FR1	0	R1023J
2304.456	4.574	2666395	PROB	4.574	n/a	n/a	-999	21	[9, 9, 1]	19	FR1	0	R1023J
2309.03	9.6	2670969	PROB	9.6	n/a	n/a	-999	21	[8, 6, 9]	23	FR1	0	R1023J
2318.63	5.949	2680569	PROB	5.949	n/a	n/a	-999	21	[2, 8, 1]	11	FR1	0	R1023J
2324.579	0.011	2686517	STOP	n/a	n/a	n/a	-999	21	[-999, -999, -999]	n/a	FR1	0	R1023J
2324.59	1.102	2686528	DISTRACT_END	n/a	n/a	n/a	-999	21	[0, 0, 0]	n/a	FR1	0	R1023J
2325.692	12.413	2687630	REC_START	n/a	n/a	n/a	-999	21	[0, 0, 0]	n/a	FR1	0	R1023J
2338.105	1.877	2700043	REC_WORD	1.877	n/a	POLE	-999	21	[0, 0, 0]	n/a	FR1	0	R1023J
2339.982	1.164	2701920	REC_WORD	1.164	n/a	BALL	-999	21	[0, 0, 0]	n/a	FR1	0	R1023J
2341.146	14.567	2703084	REC_WORD	14.567	n/a	HORSE	-999	21	[0, 0, 0]	n/a	FR1	0	R1023J
2355.713	4.203	2717650	REC_END	n/a	n/a	n/a	-999	21	[0, 0, 0]	n/a	FR1	0	R1023J
2359.916	0.0	2721853	TRIAL	n/a	n/a	n/a	-999	22	[0, 0, 0]	n/a	FR1	0	R1023J
2359.916	10.428	2721853	COUNTDOWN_START	n/a	n/a	n/a	-999	22	[0, 0, 0]	n/a	FR1	0	R1023J
2370.344	0.006	2732281	COUNTDOWN_END	n/a	n/a	n/a	-999	22	[0, 0, 0]	n/a	FR1	0	R1023J
2370.35	2.405	2732287	ORIENT	n/a	n/a	n/a	-999	22	[0, 0, 0]	n/a	FR1	0	R1023J
2372.755	2.438	2734692	WORD	n/a	wordpools/wordpool_EN.txt	FORT	1	22	[0, 0, 0]	n/a	FR1	0	R1023J
2375.193	2.52	2737130	WORD	n/a	wordpools/wordpool_EN.txt	ZOO	2	22	[0, 0, 0]	n/a	FR1	0	R1023J
2377.713	2.588	2739649	WORD	n/a	wordpools/wordpool_EN.txt	SHARK	3	22	[0, 0, 0]	n/a	FR1	0	R1023J
2380.301	2.605	2742237	WORD	n/a	wordpools/wordpool_EN.txt	ROCK	4	22	[0, 0, 0]	n/a	FR1	0	R1023J
2382.906	2.553	2744842	WORD	n/a	wordpools/wordpool_EN.txt	SAIL	5	22	[0, 0, 0]	n/a	FR1	0	R1023J
2385.459	2.471	2747395	WORD	n/a	wordpools/wordpool_EN.txt	BEACH	6	22	[0, 0, 0]	n/a	FR1	0	R1023J
2387.93	2.454	2749866	WORD	n/a	wordpools/wordpool_EN.txt	FLAG	7	22	[0, 0, 0]	n/a	FR1	0	R1023J
2390.384	2.621	2752320	WORD	n/a	wordpools/wordpool_EN.txt	FUR	8	22	[0, 0, 0]	n/a	FR1	0	R1023J
2393.005	2.421	2754941	WORD	n/a	wordpools/wordpool_EN.txt	DOG	9	22	[0, 0, 0]	n/a	FR1	0	R1023J
2395.426	2.521	2757362	WORD	n/a	wordpools/wordpool_EN.txt	FLEA	10	22	[0, 0, 0]	n/a	FR1	0	R1023J
2397.947	2.504	2759883	WORD	n/a	wordpools/wordpool_EN.txt	JAIL	11	22	[0, 0, 0]	n/a	FR1	0	R1023J
2400.451	1.619	2762387	WORD	n/a	wordpools/wordpool_EN.txt	TRASH	12	22	[0, 0, 0]	n/a	FR1	0	R1023J
2402.07	0.001	2764006	DISTRACT_START	n/a	n/a	n/a	-999	22	[0, 0, 0]	n/a	FR1	0	R1023J
2402.071	0.016	2764007	START	n/a	n/a	n/a	-999	22	[-999, -999, -999]	n/a	FR1	0	R1023J
2402.087	9.015	2764023	PROB	9.015	n/a	n/a	-999	22	[3, 7, 6]	16	FR1	0	R1023J
2411.102	7.346	2773037	PROB	7.346	n/a	n/a	-999	22	[3, 9, 3]	15	FR1	0	R1023J
2418.448	7.953	2780383	PROB	7.953	n/a	n/a	-999	22	[2, 5, 2]	9	FR1	0	R1023J
2426.401	0.011	2788336	STOP	n/a	n/a	n/a	-999	22	[-999, -999, -999]	n/a	FR1	0	R1023J
2426.412	1.152	2788347	DISTRACT_END	n/a	n/a	n/a	-999	22	[0, 0, 0]	n/a	FR1	0	R1023J
2427.564	1.649	2789499	REC_START	n/a	n/a	n/a	-999	22	[0, 0, 0]	n/a	FR1	0	R1023J
2429.213	1.971	2791148	REC_WORD	1.971	n/a	FORT	-999	22	[0, 0, 0]	n/a	FR1	0	R1023J
2431.184	1.328	2793119	REC_WORD	1.328	n/a	ZOO	-999	22	[0, 0, 0]	n/a	FR1	0	R1023J
2432.512	1.595	2794447	REC_WORD	1.595	n/a	SHARK	-999	22	[0, 0, 0]	n/a	FR1	0	R1023J
2434.107	3.077	2796041	REC_WORD	3.077	n/a	ROCK	-999	22	[0, 0, 0]	n/a	FR1	0	R1023J
2437.184	20.393	2799118	REC_WORD	20.393	n/a	BEACH	-999	22	[0, 0, 0]	n/a	FR1	0	R1023J
2457.577	2.424	2819511	REC_END	n/a	n/a	n/a	-999	22	[0, 0, 0]	n/a	FR1	0	R1023J
2460.001	0.0	2821935	TRIAL	n/a	n/a	n/a	-999	23	[0, 0, 0]	n/a	FR1	0	R1023J
2460.001	10.428	2821935	COUNTDOWN_START	n/a	n/a	n/a	-999	23	[0, 0, 0]	n/a	FR1	0	R1023J
2470.429	0.006	2832362	COUNTDOWN_END	n/a	n/a	n/a	-999	23	[0, 0, 0]	n/a	FR1	0	R1023J
2470.435	2.621	2832368	ORIENT	n/a	n/a	n/a	-999	23	[0, 0, 0]	n/a	FR1	0	R1023J
2473.056	2.455	2834989	WORD	n/a	wordpools/wordpool_EN.txt	GLOVE	1	23	[0, 0, 0]	n/a	FR1	0	R1023J
2475.511	2.504	2837444	WORD	n/a	wordpools/wordpool_EN.txt	PIPE	2	23	[0, 0, 0]	n/a	FR1	0	R1023J
2478.015	2.537	2839948	WORD	n/a	wordpools/wordpool_EN.txt	FAN	3	23	[0, 0, 0]	n/a	FR1	0	R1023J
2480.552	2.455	2842485	WORD	n/a	wordpools/wordpool_EN.txt	PURSE	4	23	[0, 0, 0]	n/a	FR1	0	R1023J
2483.007	2.487	2844940	WORD	n/a	wordpools/wordpool_EN.txt	BAND	5	23	[0, 0, 0]	n/a	FR1	0	R1023J
2485.494	2.571	2847427	WORD	n/a	wordpools/wordpool_EN.txt	PIN	6	23	[0, 0, 0]	n/a	FR1	0	R1023J
2488.065	2.504	2849998	WORD	n/a	wordpools/wordpool_EN.txt	WAND	7	23	[0, 0, 0]	n/a	FR1	0	R1023J
2490.569	2.606	2852501	WORD	n/a	wordpools/wordpool_EN.txt	TOOL	8	23	[0, 0, 0]	n/a	FR1	0	R1023J
2493.175	2.536	2855107	WORD	n/a	wordpools/wordpool_EN.txt	THUMB	9	23	[0, 0, 0]	n/a	FR1	0	R1023J
2495.711	2.572	2857643	WORD	n/a	wordpools/wordpool_EN.txt	YARD	10	23	[0, 0, 0]	n/a	FR1	0	R1023J
2498.283	2.42	2860215	WORD	n/a	wordpools/wordpool_EN.txt	VEST	11	23	[0, 0, 0]	n/a	FR1	0	R1023J
2500.703	1.604	2862635	WORD	n/a	wordpools/wordpool_EN.txt	DESK	12	23	[0, 0, 0]	n/a	FR1	0	R1023J
2502.307	0.001	2864239	DISTRACT_START	n/a	n/a	n/a	-999	23	[0, 0, 0]	n/a	FR1	0	R1023J
2502.308	0.016	2864240	START	n/a	n/a	n/a	-999	23	[-999, -999, -999]	n/a	FR1	0	R1023J
2502.324	8.245	2864256	PROB	8.245	n/a	n/a	-999	23	[6, 2, 4]	12	FR1	0	R1023J
2510.569	5.46	2872501	PROB	5.46	n/a	n/a	-999	23	[4, 3, 2]	9	FR1	0	R1023J
2516.029	9.377	2877961	PROB	9.377	n/a	n/a	-999	23	[1, 7, 6]	14	FR1	0	R1023J
2525.406	0.022	2887337	STOP	n/a	n/a	n/a	-999	23	[-999, -999, -999]	n/a	FR1	0	R1023J
2525.428	1.186	2887359	DISTRACT_END	n/a	n/a	n/a	-999	23	[0, 0, 0]	n/a	FR1	0	R1023J
2526.614	2.138	2888545	REC_START	n/a	n/a	n/a	-999	23	[0, 0, 0]	n/a	FR1	0	R1023J
2528.752	1.172	2890683	REC_WORD	1.172	n/a	GLOVE	-999	23	[0, 0, 0]	n/a	FR1	0	R1023J
2529.924	1.622	2891855	REC_WORD	1.622	n/a	PIPE	-999	23	[0, 0, 0]	n/a	FR1	0	R1023J
2531.546	2.05	2893477	REC_WORD	2.05	n/a	TOOL	-999	23	[0, 0, 0]	n/a	FR1	0	R1023J
2533.596	23.031	2895527	REC_WORD	23.031	n/a	FAN	-999	23	[0, 0, 0]	n/a	FR1	0	R1023J
2556.627	3.109	2918557	REC_END	n/a	n/a	n/a	-999	23	[0, 0, 0]	n/a	FR1	0	R1023J
2559.736	0.0	2921666	TRIAL	n/a	n/a	n/a	-999	24	[0, 0, 0]	n/a	FR1	0	R1023J
2559.736	10.428	2921666	COUNTDOWN_START	n/a	n/a	n/a	-999	24	[0, 0, 0]	n/a	FR1	0	R1023J
2570.164	0.006	2932094	COUNTDOWN_END	n/a	n/a	n/a	-999	24	[0, 0, 0]	n/a	FR1	0	R1023J
2570.17	2.537	2932100	ORIENT	n/a	n/a	n/a	-999	24	[0, 0, 0]	n/a	FR1	0	R1023J
2572.707	2.539	2934637	WORD	n/a	wordpools/wordpool_EN.txt	POND	1	24	[0, 0, 0]	n/a	FR1	0	R1023J
2575.246	2.637	2937175	WORD	n/a	wordpools/wordpool_EN.txt	STRAW	2	24	[0, 0, 0]	n/a	FR1	0	R1023J
2577.883	2.488	2939812	WORD	n/a	wordpools/wordpool_EN.txt	SLUSH	3	24	[0, 0, 0]	n/a	FR1	0	R1023J
2580.371	2.403	2942300	WORD	n/a	wordpools/wordpool_EN.txt	CAGE	4	24	[0, 0, 0]	n/a	FR1	0	R1023J
2582.774	2.422	2944703	WORD	n/a	wordpools/wordpool_EN.txt	VASE	5	24	[0, 0, 0]	n/a	FR1	0	R1023J
2585.196	2.437	2947125	WORD	n/a	wordpools/wordpool_EN.txt	SINK	6	24	[0, 0, 0]	n/a	FR1	0	R1023J
2587.633	2.387	2949562	WORD	n/a	wordpools/wordpool_EN.txt	JAR	7	24	[0, 0, 0]	n/a	FR1	0	R1023J
2590.02	2.621	2951949	WORD	n/a	wordpools/wordpool_EN.txt	SEAL	8	24	[0, 0, 0]	n/a	FR1	0	R1023J
2592.641	2.471	2954570	WORD	n/a	wordpools/wordpool_EN.txt	GEESE	9	24	[0, 0, 0]	n/a	FR1	0	R1023J
2595.112	2.587	2957041	WORD	n/a	wordpools/wordpool_EN.txt	HAT	10	24	[0, 0, 0]	n/a	FR1	0	R1023J
2597.699	2.421	2959628	WORD	n/a	wordpools/wordpool_EN.txt	BOX	11	24	[0, 0, 0]	n/a	FR1	0	R1023J
2600.12	1.62	2962049	WORD	n/a	wordpools/wordpool_EN.txt	PET	12	24	[0, 0, 0]	n/a	FR1	0	R1023J
2601.74	0.0	2963668	DISTRACT_START	n/a	n/a	n/a	-999	24	[0, 0, 0]	n/a	FR1	0	R1023J
2601.74	0.016	2963668	START	n/a	n/a	n/a	-999	24	[-999, -999, -999]	n/a	FR1	0	R1023J
2601.756	3.707	2963684	PROB	3.707	n/a	n/a	-999	24	[3, 3, 3]	9	FR1	0	R1023J
2605.463	6.477	2967391	PROB	6.477	n/a	n/a	-999	24	[2, 9, 1]	12	FR1	0	R1023J
2611.94	7.029	2973868	PROB	7.029	n/a	n/a	-999	24	[2, 2, 3]	7	FR1	0	R1023J
2618.969	7.776	2980897	PROB	7.776	n/a	n/a	-999	24	[2, 5, 6]	13	FR1	0	R1023J
2626.745	0.02	2988673	STOP	n/a	n/a	n/a	-999	24	[-999, -999, -999]	n/a	FR1	0	R1023J
2626.765	1.236	2988693	DISTRACT_END	n/a	n/a	n/a	-999	24	[0, 0, 0]	n/a	FR1	0	R1023J
2628.001	14.028	2989929	REC_START	n/a	n/a	n/a	-999	24	[0, 0, 0]	n/a	FR1	0	R1023J
2642.029	0.749	3003956	REC_WORD	0.749	n/a	POND	-999	24	[0, 0, 0]	n/a	FR1	0	R1023J
2642.778	15.236	3004705	REC_WORD	15.236	n/a	STRAW	-999	24	[0, 0, 0]	n/a	FR1	0	R1023J
2658.014	3.793	3019940	REC_END	n/a	n/a	n/a	-999	24	[0, 0, 0]	n/a	FR1	0	R1023J
2661.807	0.001	3023733	COUNTDOWN_START	n/a	n/a	n/a	-999	25	[0, 0, 0]	n/a	FR1	0	R1023J
2661.808	10.427	3023734	TRIAL	n/a	n/a	n/a	-999	25	[0, 0, 0]	n/a	FR1	0	R1023J
2672.235	0.007	3034161	COUNTDOWN_END	n/a	n/a	n/a	-999	25	[0, 0, 0]	n/a	FR1	0	R1023J
2672.242	2.604	3034168	ORIENT	n/a	n/a	n/a	-999	25	[0, 0, 0]	n/a	FR1	0	R1023J
2674.846	2.588	3036772	WORD	n/a	wordpools/wordpool_EN.txt	TANK	1	25	[0, 0, 0]	n/a	FR1	0	R1023J
2677.434	2.554	3039360	WORD	n/a	wordpools/wordpool_EN.txt	HOSE	2	25	[0, 0, 0]	n/a	FR1	0	R1023J
2679.988	2.554	3041914	WORD	n/a	wordpools/wordpool_EN.txt	BOMB	3	25	[0, 0, 0]	n/a	FR1	0	R1023J
2682.542	2.571	3044468	WORD	n/a	wordpools/wordpool_EN.txt	COIN	4	25	[0, 0, 0]	n/a	FR1	0	R1023J
2685.113	2.389	3047039	WORD	n/a	wordpools/wordpool_EN.txt	PLANE	5	25	[0, 0, 0]	n/a	FR1	0	R1023J
2687.502	2.57	3049427	WORD	n/a	wordpools/wordpool_EN.txt	BRICK	6	25	[0, 0, 0]	n/a	FR1	0	R1023J
2690.072	2.437	3051997	WORD	n/a	wordpools/wordpool_EN.txt	PLATE	7	25	[0, 0, 0]	n/a	FR1	0	R1023J
2692.509	2.471	3054434	WORD	n/a	wordpools/wordpool_EN.txt	SQUARE	8	25	[0, 0, 0]	n/a	FR1	0	R1023J
2694.98	2.504	3056905	WORD	n/a	wordpools/wordpool_EN.txt	MOON	9	25	[0, 0, 0]	n/a	FR1	0	R1023J
2697.484	2.571	3059409	WORD	n/a	wordpools/wordpool_EN.txt	SHEET	10	25	[0, 0, 0]	n/a	FR1	0	R1023J
2700.055	2.521	3061980	WORD	n/a	wordpools/wordpool_EN.txt	ARK	11	25	[0, 0, 0]	n/a	FR1	0	R1023J
2702.576	1.62	3064501	WORD	n/a	wordpools/wordpool_EN.txt	TRAIN	12	25	[0, 0, 0]	n/a	FR1	0	R1023J
2704.196	0.001	3066121	DISTRACT_START	n/a	n/a	n/a	-999	25	[0, 0, 0]	n/a	FR1	0	R1023J
2704.197	0.016	3066122	START	n/a	n/a	n/a	-999	25	[-999, -999, -999]	n/a	FR1	0	R1023J
2704.213	10.4	3066138	PROB	10.4	n/a	n/a	-999	25	[7, 5, 2]	14	FR1	0	R1023J
2714.613	10.198	3076537	PROB	10.198	n/a	n/a	-999	25	[9, 7, 9]	25	FR1	0	R1023J
2724.811	0.019	3086735	STOP	n/a	n/a	n/a	-999	25	[-999, -999, -999]	n/a	FR1	0	R1023J
2724.83	1.17	3086754	DISTRACT_END	n/a	n/a	n/a	-999	25	[0, 0, 0]	n/a	FR1	0	R1023J
2726.0	1.541	3087924	REC_START	n/a	n/a	n/a	-999	25	[0, 0, 0]	n/a	FR1	0	R1023J
2727.541	1.147	3089465	REC_WORD	1.147	n/a	TANK	-999	25	[0, 0, 0]	n/a	FR1	0	R1023J
2728.688	1.188	3090612	REC_WORD	1.188	n/a	HOSE	-999	25	[0, 0, 0]	n/a	FR1	0	R1023J
2729.876	26.136	3091800	REC_WORD	26.136	n/a	BOMB	-999	25	[0, 0, 0]	n/a	FR1	0	R1023J
2756.012	15.714	3117935	REC_END	n/a	n/a	n/a	-999	25	[0, 0, 0]	n/a	FR1	0	R1023J
2771.726	0.0	3133648	SESS_END	n/a	n/a	n/a	-999	25	[0, 0, 0]	n/a	FR1	0	R1023J
