onset	duration	sample	trial_type	response_time	stim_file	item_name	serialpos	list	test	answer	experiment	session	subject
0.0	11.451	136671	INSTRUCT_START	n/a	n/a	n/a	-999	-999	[0, 0, 0]	n/a	FR1	1	R1386T
11.451	36.915	148118	INSTRUCT_END	n/a	n/a	n/a	-999	-999	[0, 0, 0]	n/a	FR1	1	R1386T
48.366	10.351	185029	COUNTDOWN_START	n/a	n/a	n/a	-999	-999	[0, 0, 0]	n/a	FR1	1	R1386T
58.717	0.001	195380	COUNTDOWN_END	n/a	n/a	n/a	-999	-999	[0, 0, 0]	n/a	FR1	1	R1386T
58.718	2.182	195380	ENCODING_START	n/a	n/a	n/a	-999	-1	[0, 0, 0]	n/a	FR1	1	R1386T
60.9	1.599	197563	WORD	n/a	n/a	FLOOD	1	-1	[0, 0, 0]	n/a	FR1	1	R1386T
62.499	0.967	199158	WORD_OFF	n/a	n/a	FLOOD	1	-1	[0, 0, 0]	n/a	FR1	1	R1386T
63.466	1.6	200125	WORD	n/a	n/a	RHINO	2	-1	[0, 0, 0]	n/a	FR1	1	R1386T
65.066	0.8	201729	WORD_OFF	n/a	n/a	RHINO	2	-1	[0, 0, 0]	n/a	FR1	1	R1386T
65.866	1.617	202531	WORD	n/a	n/a	IMAGE	3	-1	[0, 0, 0]	n/a	FR1	1	R1386T
67.483	0.866	204144	WORD_OFF	n/a	n/a	IMAGE	3	-1	[0, 0, 0]	n/a	FR1	1	R1386T
68.349	1.601	205007	WORD	n/a	n/a	CHEST	4	-1	[0, 0, 0]	n/a	FR1	1	R1386T
69.95	0.933	206611	WORD_OFF	n/a	n/a	CHEST	4	-1	[0, 0, 0]	n/a	FR1	1	R1386T
70.883	1.617	207543	WORD	n/a	n/a	BEAM	5	-1	[0, 0, 0]	n/a	FR1	1	R1386T
72.5	0.899	209165	WORD_OFF	n/a	n/a	BEAM	5	-1	[0, 0, 0]	n/a	FR1	1	R1386T
73.399	1.601	210062	WORD	n/a	n/a	RING	6	-1	[0, 0, 0]	n/a	FR1	1	R1386T
75.0	0.983	211658	WORD_OFF	n/a	n/a	RING	6	-1	[0, 0, 0]	n/a	FR1	1	R1386T
75.983	1.616	212641	WORD	n/a	n/a	COTTON	7	-1	[0, 0, 0]	n/a	FR1	1	R1386T
77.599	0.834	214263	WORD_OFF	n/a	n/a	COTTON	7	-1	[0, 0, 0]	n/a	FR1	1	R1386T
78.433	1.617	215091	WORD	n/a	n/a	CAMEL	8	-1	[0, 0, 0]	n/a	FR1	1	R1386T
80.05	0.883	216713	WORD_OFF	n/a	n/a	CAMEL	8	-1	[0, 0, 0]	n/a	FR1	1	R1386T
80.933	1.616	217592	WORD	n/a	n/a	WAGON	9	-1	[0, 0, 0]	n/a	FR1	1	R1386T
82.549	0.867	219214	WORD_OFF	n/a	n/a	WAGON	9	-1	[0, 0, 0]	n/a	FR1	1	R1386T
83.416	1.6	220077	WORD	n/a	n/a	BABY	10	-1	[0, 0, 0]	n/a	FR1	1	R1386T
85.016	0.85	221681	WORD_OFF	n/a	n/a	BABY	10	-1	[0, 0, 0]	n/a	FR1	1	R1386T
85.866	1.616	222527	WORD	n/a	n/a	WATCH	11	-1	[0, 0, 0]	n/a	FR1	1	R1386T
87.482	0.817	224140	WORD_OFF	n/a	n/a	WATCH	11	-1	[0, 0, 0]	n/a	FR1	1	R1386T
88.299	1.601	224959	WORD	n/a	n/a	TONGUE	12	-1	[0, 0, 0]	n/a	FR1	1	R1386T
89.9	0.002	226560	PROB	0.002	n/a	n/a	-999	-1	[3, 1, 5]	9	FR1	1	R1386T
89.902	0.0	226562	START	n/a	n/a	n/a	-999	-1	[-999, -999, -999]	n/a	FR1	1	R1386T
89.899	0.002	226564	WORD_OFF	n/a	n/a	TONGUE	12	-1	[0, 0, 0]	n/a	FR1	1	R1386T
89.901	0.001	226564	ENCODING_END	n/a	n/a	n/a	-999	-1	[0, 0, 0]	n/a	FR1	1	R1386T
89.902	3.648	226564	DISTRACT_START	n/a	n/a	n/a	-999	-1	[0, 0, 0]	n/a	FR1	1	R1386T
93.55	3.933	230210	PROB	3.933	n/a	n/a	-999	-1	[4, 2, 4]	10	FR1	1	R1386T
97.483	3.667	234142	PROB	3.667	n/a	n/a	-999	-1	[1, 6, 2]	9	FR1	1	R1386T
101.15	2.683	237809	PROB	2.683	n/a	n/a	-999	-1	[4, 8, 2]	13	FR1	1	R1386T
103.833	3.8	240492	PROB	3.8	n/a	n/a	-999	-1	[5, 8, 1]	14	FR1	1	R1386T
107.633	3.166	244292	PROB	3.166	n/a	n/a	-999	-1	[6, 1, 5]	12	FR1	1	R1386T
110.799	0.0	247456	DISTRACT_END	n/a	n/a	n/a	-999	-1	[0, 0, 0]	n/a	FR1	1	R1386T
110.799	1.201	247458	STOP	n/a	n/a	n/a	-999	-1	[-999, -999, -999]	n/a	FR1	1	R1386T
112.0	3.09	248655	REC_START	n/a	n/a	n/a	-999	-1	[0, 0, 0]	n/a	FR1	1	R1386T
115.09	1.345	251748	REC_WORD	1.345	n/a	FLOOD	1	-1	[0, 0, 0]	n/a	FR1	1	R1386T
116.435	1.354	253093	REC_WORD	1.354	n/a	RHINO	2	-1	[0, 0, 0]	n/a	FR1	1	R1386T
117.789	1.169	254447	REC_WORD	1.169	n/a	IMAGE	3	-1	[0, 0, 0]	n/a	FR1	1	R1386T
118.958	1.149	255616	REC_WORD	1.149	n/a	BABY	10	-1	[0, 0, 0]	n/a	FR1	1	R1386T
120.107	3.2	256765	REC_WORD	3.2	n/a	CHEST	4	-1	[0, 0, 0]	n/a	FR1	1	R1386T
123.307	6.262	259965	REC_WORD_VV	6.262	n/a	<>	-999	-1	[0, 0, 0]	n/a	FR1	1	R1386T
129.569	12.687	266227	REC_WORD	12.687	n/a	RING	6	-1	[0, 0, 0]	n/a	FR1	1	R1386T
142.256	11.944	278915	REC_END	n/a	n/a	n/a	-999	-1	[0, 0, 0]	n/a	FR1	1	R1386T
154.2	10.35	290854	COUNTDOWN_START	n/a	n/a	n/a	-999	1	[0, 0, 0]	n/a	FR1	1	R1386T
164.55	0.0	301205	COUNTDOWN_END	n/a	n/a	n/a	-999	1	[0, 0, 0]	n/a	FR1	1	R1386T
164.55	2.065	301205	ENCODING_START	n/a	n/a	n/a	-999	1	[0, 0, 0]	n/a	FR1	1	R1386T
166.615	1.601	303275	WORD	n/a	n/a	GOWN	1	1	[0, 0, 0]	n/a	FR1	1	R1386T
168.216	0.784	304871	WORD_OFF	n/a	n/a	GOWN	1	1	[0, 0, 0]	n/a	FR1	1	R1386T
169.0	1.601	305656	WORD	n/a	n/a	KITE	2	1	[0, 0, 0]	n/a	FR1	1	R1386T
170.601	0.965	307261	WORD_OFF	n/a	n/a	KITE	2	1	[0, 0, 0]	n/a	FR1	1	R1386T
171.566	1.617	308227	WORD	n/a	n/a	FLAME	3	1	[0, 0, 0]	n/a	FR1	1	R1386T
173.183	0.766	309840	WORD_OFF	n/a	n/a	FLAME	3	1	[0, 0, 0]	n/a	FR1	1	R1386T
173.949	1.617	310607	WORD	n/a	n/a	BEAK	4	1	[0, 0, 0]	n/a	FR1	1	R1386T
175.566	0.833	312221	WORD_OFF	n/a	n/a	BEAK	4	1	[0, 0, 0]	n/a	FR1	1	R1386T
176.399	1.616	313057	WORD	n/a	n/a	CRANE	5	1	[0, 0, 0]	n/a	FR1	1	R1386T
178.015	0.901	314670	WORD_OFF	n/a	n/a	CRANE	5	1	[0, 0, 0]	n/a	FR1	1	R1386T
178.916	1.617	315576	WORD	n/a	n/a	CLAY	6	1	[0, 0, 0]	n/a	FR1	1	R1386T
180.533	1.0	317189	WORD_OFF	n/a	n/a	CLAY	6	1	[0, 0, 0]	n/a	FR1	1	R1386T
181.533	1.6	318190	WORD	n/a	n/a	HOOK	7	1	[0, 0, 0]	n/a	FR1	1	R1386T
183.133	0.95	319786	WORD_OFF	n/a	n/a	HOOK	7	1	[0, 0, 0]	n/a	FR1	1	R1386T
184.083	1.616	320734	WORD	n/a	n/a	BAT	8	1	[0, 0, 0]	n/a	FR1	1	R1386T
185.699	0.967	322356	WORD_OFF	n/a	n/a	BAT	8	1	[0, 0, 0]	n/a	FR1	1	R1386T
186.666	1.616	323322	WORD	n/a	n/a	MUD	9	1	[0, 0, 0]	n/a	FR1	1	R1386T
188.282	0.767	324935	WORD_OFF	n/a	n/a	MUD	9	1	[0, 0, 0]	n/a	FR1	1	R1386T
189.049	1.617	325703	WORD	n/a	n/a	CAPE	10	1	[0, 0, 0]	n/a	FR1	1	R1386T
190.666	0.9	327325	WORD_OFF	n/a	n/a	CAPE	10	1	[0, 0, 0]	n/a	FR1	1	R1386T
191.566	1.616	328222	WORD	n/a	n/a	WOLF	11	1	[0, 0, 0]	n/a	FR1	1	R1386T
193.182	0.95	329835	WORD_OFF	n/a	n/a	WOLF	11	1	[0, 0, 0]	n/a	FR1	1	R1386T
194.132	1.601	330784	WORD	n/a	n/a	CORD	12	1	[0, 0, 0]	n/a	FR1	1	R1386T
195.733	0.0	332387	PROB	0.0	n/a	n/a	-999	1	[3, 5, 3]	11	FR1	1	R1386T
195.732	0.002	332388	WORD_OFF	n/a	n/a	CORD	12	1	[0, 0, 0]	n/a	FR1	1	R1386T
195.734	0.0	332388	ENCODING_END	n/a	n/a	n/a	-999	1	[0, 0, 0]	n/a	FR1	1	R1386T
195.734	0.0	332388	DISTRACT_START	n/a	n/a	n/a	-999	1	[0, 0, 0]	n/a	FR1	1	R1386T
195.734	3.749	332388	START	n/a	n/a	n/a	-999	1	[-999, -999, -999]	n/a	FR1	1	R1386T
199.483	2.433	336137	PROB	2.433	n/a	n/a	-999	1	[2, 1, 1]	4	FR1	1	R1386T
201.916	5.333	338570	PROB	5.333	n/a	n/a	-999	1	[4, 7, 3]	14	FR1	1	R1386T
207.249	3.734	343903	PROB	3.734	n/a	n/a	-999	1	[3, 1, 6]	10	FR1	1	R1386T
210.983	3.317	347637	PROB	3.317	n/a	n/a	-999	1	[5, 2, 8]	15	FR1	1	R1386T
214.3	3.367	350953	PROB	3.367	n/a	n/a	-999	1	[5, 4, 4]	13	FR1	1	R1386T
217.667	0.0	354320	STOP	n/a	n/a	n/a	-999	1	[-999, -999, -999]	n/a	FR1	1	R1386T
217.667	1.166	354324	DISTRACT_END	n/a	n/a	n/a	-999	1	[0, 0, 0]	n/a	FR1	1	R1386T
218.833	2.867	355489	REC_START	n/a	n/a	n/a	-999	1	[0, 0, 0]	n/a	FR1	1	R1386T
221.7	1.292	358353	REC_WORD	1.292	n/a	GOWN	1	1	[0, 0, 0]	n/a	FR1	1	R1386T
222.992	5.466	359645	REC_WORD	5.466	n/a	KITE	2	1	[0, 0, 0]	n/a	FR1	1	R1386T
228.458	13.901	365111	REC_WORD	13.901	n/a	FLOOD	-999	1	[0, 0, 0]	n/a	FR1	1	R1386T
242.359	6.748	379011	REC_WORD	6.748	n/a	COTTON	-999	1	[0, 0, 0]	n/a	FR1	1	R1386T
249.107	2.576	385758	REC_END	n/a	n/a	n/a	-999	1	[0, 0, 0]	n/a	FR1	1	R1386T
251.683	10.35	388337	COUNTDOWN_START	n/a	n/a	n/a	-999	2	[0, 0, 0]	n/a	FR1	1	R1386T
262.033	0.001	398688	COUNTDOWN_END	n/a	n/a	n/a	-999	2	[0, 0, 0]	n/a	FR1	1	R1386T
262.034	2.132	398688	ENCODING_START	n/a	n/a	n/a	-999	2	[0, 0, 0]	n/a	FR1	1	R1386T
264.166	1.617	400819	WORD	n/a	n/a	MOUTH	1	2	[0, 0, 0]	n/a	FR1	1	R1386T
265.783	0.883	402432	WORD_OFF	n/a	n/a	MOUTH	1	2	[0, 0, 0]	n/a	FR1	1	R1386T
266.666	1.617	403321	WORD	n/a	n/a	BLOOD	2	2	[0, 0, 0]	n/a	FR1	1	R1386T
268.283	0.999	404934	WORD_OFF	n/a	n/a	BLOOD	2	2	[0, 0, 0]	n/a	FR1	1	R1386T
269.282	1.601	405934	WORD	n/a	n/a	MOUSE	3	2	[0, 0, 0]	n/a	FR1	1	R1386T
270.883	0.95	407530	WORD_OFF	n/a	n/a	MOUSE	3	2	[0, 0, 0]	n/a	FR1	1	R1386T
271.833	1.616	408488	WORD	n/a	n/a	SKI	4	2	[0, 0, 0]	n/a	FR1	1	R1386T
273.449	0.984	410101	WORD_OFF	n/a	n/a	SKI	4	2	[0, 0, 0]	n/a	FR1	1	R1386T
274.433	1.616	411084	WORD	n/a	n/a	SQUARE	5	2	[0, 0, 0]	n/a	FR1	1	R1386T
276.049	0.85	412697	WORD_OFF	n/a	n/a	SQUARE	5	2	[0, 0, 0]	n/a	FR1	1	R1386T
276.899	1.6	413551	WORD	n/a	n/a	SOUP	6	2	[0, 0, 0]	n/a	FR1	1	R1386T
278.499	0.767	415147	WORD_OFF	n/a	n/a	SOUP	6	2	[0, 0, 0]	n/a	FR1	1	R1386T
279.266	1.6	415915	WORD	n/a	n/a	POLE	7	2	[0, 0, 0]	n/a	FR1	1	R1386T
280.866	0.866	417519	WORD_OFF	n/a	n/a	POLE	7	2	[0, 0, 0]	n/a	FR1	1	R1386T
281.732	1.617	418382	WORD	n/a	n/a	BENCH	8	2	[0, 0, 0]	n/a	FR1	1	R1386T
283.349	0.85	420003	WORD_OFF	n/a	n/a	BENCH	8	2	[0, 0, 0]	n/a	FR1	1	R1386T
284.199	1.6	420849	WORD	n/a	n/a	BOARD	9	2	[0, 0, 0]	n/a	FR1	1	R1386T
285.799	0.883	422453	WORD_OFF	n/a	n/a	BOARD	9	2	[0, 0, 0]	n/a	FR1	1	R1386T
286.682	1.617	423333	WORD	n/a	n/a	BOX	10	2	[0, 0, 0]	n/a	FR1	1	R1386T
288.299	0.866	424946	WORD_OFF	n/a	n/a	BOX	10	2	[0, 0, 0]	n/a	FR1	1	R1386T
289.165	1.601	425817	WORD	n/a	n/a	SHORE	11	2	[0, 0, 0]	n/a	FR1	1	R1386T
290.766	0.766	427413	WORD_OFF	n/a	n/a	SHORE	11	2	[0, 0, 0]	n/a	FR1	1	R1386T
291.532	1.6	428181	WORD	n/a	n/a	TIN	12	2	[0, 0, 0]	n/a	FR1	1	R1386T
293.132	0.001	429781	PROB	0.001	n/a	n/a	-999	2	[1, 4, 4]	9	FR1	1	R1386T
293.133	0.0	429782	START	n/a	n/a	n/a	-999	2	[-999, -999, -999]	n/a	FR1	1	R1386T
293.132	0.001	429785	WORD_OFF	n/a	n/a	TIN	12	2	[0, 0, 0]	n/a	FR1	1	R1386T
293.133	0.0	429785	ENCODING_END	n/a	n/a	n/a	-999	2	[0, 0, 0]	n/a	FR1	1	R1386T
293.133	3.5	429785	DISTRACT_START	n/a	n/a	n/a	-999	2	[0, 0, 0]	n/a	FR1	1	R1386T
296.633	2.983	433282	PROB	2.983	n/a	n/a	-999	2	[4, 5, 5]	14	FR1	1	R1386T
299.616	5.301	436265	PROB	5.301	n/a	n/a	-999	2	[7, 1, 6]	14	FR1	1	R1386T
304.917	3.767	441566	PROB	3.767	n/a	n/a	-999	2	[8, 4, 4]	16	FR1	1	R1386T
308.684	3.333	445333	PROB	3.333	n/a	n/a	-999	2	[8, 2, 5]	15	FR1	1	R1386T
312.017	3.182	448665	PROB	3.182	n/a	n/a	-999	2	[1, 1, 6]	8	FR1	1	R1386T
315.199	0.0	451847	STOP	n/a	n/a	n/a	-999	2	[-999, -999, -999]	n/a	FR1	1	R1386T
315.199	1.333	451851	DISTRACT_END	n/a	n/a	n/a	-999	2	[0, 0, 0]	n/a	FR1	1	R1386T
316.532	2.242	453179	REC_START	n/a	n/a	n/a	-999	2	[0, 0, 0]	n/a	FR1	1	R1386T
318.774	1.288	455422	REC_WORD	1.288	n/a	MOUTH	1	2	[0, 0, 0]	n/a	FR1	1	R1386T
320.062	1.297	456710	REC_WORD	1.297	n/a	BLOOD	2	2	[0, 0, 0]	n/a	FR1	1	R1386T
321.359	1.221	458007	REC_WORD	1.221	n/a	COTTON	-999	2	[0, 0, 0]	n/a	FR1	1	R1386T
322.58	0.339	459228	REC_WORD_VV	0.339	n/a	<>	-999	2	[0, 0, 0]	n/a	FR1	1	R1386T
322.919	23.875	459567	REC_WORD	23.875	n/a	GIN	-999	2	[0, 0, 0]	n/a	FR1	1	R1386T
346.794	2.156	483440	REC_END	n/a	n/a	n/a	-999	2	[0, 0, 0]	n/a	FR1	1	R1386T
348.95	10.35	485596	COUNTDOWN_START	n/a	n/a	n/a	-999	3	[0, 0, 0]	n/a	FR1	1	R1386T
359.3	0.0	495947	COUNTDOWN_END	n/a	n/a	n/a	-999	3	[0, 0, 0]	n/a	FR1	1	R1386T
359.3	1.916	495947	ENCODING_START	n/a	n/a	n/a	-999	3	[0, 0, 0]	n/a	FR1	1	R1386T
361.216	1.6	497862	WORD	n/a	n/a	HAIR	1	3	[0, 0, 0]	n/a	FR1	1	R1386T
362.816	0.967	499467	WORD_OFF	n/a	n/a	HAIR	1	3	[0, 0, 0]	n/a	FR1	1	R1386T
363.783	1.616	500433	WORD	n/a	n/a	THREAD	2	3	[0, 0, 0]	n/a	FR1	1	R1386T
365.399	0.967	502046	WORD_OFF	n/a	n/a	THREAD	2	3	[0, 0, 0]	n/a	FR1	1	R1386T
366.366	1.616	503012	WORD	n/a	n/a	FOX	3	3	[0, 0, 0]	n/a	FR1	1	R1386T
367.982	0.884	504625	WORD_OFF	n/a	n/a	FOX	3	3	[0, 0, 0]	n/a	FR1	1	R1386T
368.866	1.6	505514	WORD	n/a	n/a	GATE	4	3	[0, 0, 0]	n/a	FR1	1	R1386T
370.466	0.883	507110	WORD_OFF	n/a	n/a	GATE	4	3	[0, 0, 0]	n/a	FR1	1	R1386T
371.349	1.6	507998	WORD	n/a	n/a	EARTH	5	3	[0, 0, 0]	n/a	FR1	1	R1386T
372.949	0.8	509594	WORD_OFF	n/a	n/a	EARTH	5	3	[0, 0, 0]	n/a	FR1	1	R1386T
373.749	1.6	510396	WORD	n/a	n/a	PURSE	6	3	[0, 0, 0]	n/a	FR1	1	R1386T
375.349	0.883	511992	WORD_OFF	n/a	n/a	PURSE	6	3	[0, 0, 0]	n/a	FR1	1	R1386T
376.232	1.6	512880	WORD	n/a	n/a	CURB	7	3	[0, 0, 0]	n/a	FR1	1	R1386T
377.832	0.768	514476	WORD_OFF	n/a	n/a	CURB	7	3	[0, 0, 0]	n/a	FR1	1	R1386T
378.6	1.599	515244	WORD	n/a	n/a	SWAMP	8	3	[0, 0, 0]	n/a	FR1	1	R1386T
380.199	0.833	516848	WORD_OFF	n/a	n/a	SWAMP	8	3	[0, 0, 0]	n/a	FR1	1	R1386T
381.032	1.617	517677	WORD	n/a	n/a	STAIR	9	3	[0, 0, 0]	n/a	FR1	1	R1386T
382.649	0.933	519298	WORD_OFF	n/a	n/a	STAIR	9	3	[0, 0, 0]	n/a	FR1	1	R1386T
383.582	1.6	520230	WORD	n/a	n/a	SEA	10	3	[0, 0, 0]	n/a	FR1	1	R1386T
385.182	0.933	521826	WORD_OFF	n/a	n/a	SEA	10	3	[0, 0, 0]	n/a	FR1	1	R1386T
386.115	1.617	522757	WORD	n/a	n/a	CLOWN	11	3	[0, 0, 0]	n/a	FR1	1	R1386T
387.732	0.816	524379	WORD_OFF	n/a	n/a	CLOWN	11	3	[0, 0, 0]	n/a	FR1	1	R1386T
388.548	1.601	525190	WORD	n/a	n/a	GLOVE	12	3	[0, 0, 0]	n/a	FR1	1	R1386T
390.149	0.0	526793	PROB	0.0	n/a	n/a	-999	3	[5, 2, 4]	11	FR1	1	R1386T
390.148	0.002	526794	WORD_OFF	n/a	n/a	GLOVE	12	3	[0, 0, 0]	n/a	FR1	1	R1386T
390.15	0.0	526794	ENCODING_END	n/a	n/a	n/a	-999	3	[0, 0, 0]	n/a	FR1	1	R1386T
390.15	0.0	526794	DISTRACT_START	n/a	n/a	n/a	-999	3	[0, 0, 0]	n/a	FR1	1	R1386T
390.15	4.167	526794	START	n/a	n/a	n/a	-999	3	[-999, -999, -999]	n/a	FR1	1	R1386T
394.317	4.284	530961	PROB	4.284	n/a	n/a	-999	3	[2, 4, 2]	8	FR1	1	R1386T
398.601	3.549	535245	PROB	3.549	n/a	n/a	-999	3	[6, 6, 8]	20	FR1	1	R1386T
402.15	2.95	538794	PROB	2.95	n/a	n/a	-999	3	[8, 1, 8]	17	FR1	1	R1386T
405.1	3.333	541744	PROB	3.333	n/a	n/a	-999	3	[2, 5, 8]	15	FR1	1	R1386T
408.433	3.5	545077	PROB	3.5	n/a	n/a	-999	3	[8, 6, 7]	21	FR1	1	R1386T
411.933	0.0	548575	DISTRACT_END	n/a	n/a	n/a	-999	3	[0, 0, 0]	n/a	FR1	1	R1386T
411.933	1.4	548576	STOP	n/a	n/a	n/a	-999	3	[-999, -999, -999]	n/a	FR1	1	R1386T
413.333	2.333	549973	REC_START	n/a	n/a	n/a	-999	3	[0, 0, 0]	n/a	FR1	1	R1386T
415.666	1.304	552309	REC_WORD	1.304	n/a	HAIR	1	3	[0, 0, 0]	n/a	FR1	1	R1386T
416.97	1.305	553613	REC_WORD	1.305	n/a	THREAD	2	3	[0, 0, 0]	n/a	FR1	1	R1386T
418.275	1.096	554918	REC_WORD	1.096	n/a	FOX	3	3	[0, 0, 0]	n/a	FR1	1	R1386T
419.371	10.902	556014	REC_WORD	10.902	n/a	GATE	4	3	[0, 0, 0]	n/a	FR1	1	R1386T
430.273	5.461	566915	REC_WORD	5.461	n/a	PURSE	6	3	[0, 0, 0]	n/a	FR1	1	R1386T
435.734	7.862	572376	REC_WORD	7.862	n/a	FOX	3	3	[0, 0, 0]	n/a	FR1	1	R1386T
443.596	1.937	580242	REC_END	n/a	n/a	n/a	-999	3	[0, 0, 0]	n/a	FR1	1	R1386T
445.533	10.35	582174	COUNTDOWN_START	n/a	n/a	n/a	-999	4	[0, 0, 0]	n/a	FR1	1	R1386T
455.883	0.0	592525	COUNTDOWN_END	n/a	n/a	n/a	-999	4	[0, 0, 0]	n/a	FR1	1	R1386T
455.883	1.933	592525	ENCODING_START	n/a	n/a	n/a	-999	4	[0, 0, 0]	n/a	FR1	1	R1386T
457.816	1.616	594457	WORD	n/a	n/a	BEAN	1	4	[0, 0, 0]	n/a	FR1	1	R1386T
459.432	0.934	596070	WORD_OFF	n/a	n/a	BEAN	1	4	[0, 0, 0]	n/a	FR1	1	R1386T
460.366	1.6	597011	WORD	n/a	n/a	RIB	2	4	[0, 0, 0]	n/a	FR1	1	R1386T
461.966	0.816	598615	WORD_OFF	n/a	n/a	RIB	2	4	[0, 0, 0]	n/a	FR1	1	R1386T
462.782	1.6	599426	WORD	n/a	n/a	PRINCE	3	4	[0, 0, 0]	n/a	FR1	1	R1386T
464.382	0.834	601022	WORD_OFF	n/a	n/a	PRINCE	3	4	[0, 0, 0]	n/a	FR1	1	R1386T
465.216	1.6	601858	WORD	n/a	n/a	BUSH	4	4	[0, 0, 0]	n/a	FR1	1	R1386T
466.816	0.766	603454	WORD_OFF	n/a	n/a	BUSH	4	4	[0, 0, 0]	n/a	FR1	1	R1386T
467.582	1.617	604222	WORD	n/a	n/a	SEED	5	4	[0, 0, 0]	n/a	FR1	1	R1386T
469.199	1.0	605844	WORD_OFF	n/a	n/a	SEED	5	4	[0, 0, 0]	n/a	FR1	1	R1386T
470.199	1.616	606836	WORD	n/a	n/a	CUP	6	4	[0, 0, 0]	n/a	FR1	1	R1386T
471.815	0.884	608457	WORD_OFF	n/a	n/a	CUP	6	4	[0, 0, 0]	n/a	FR1	1	R1386T
472.699	1.6	609337	WORD	n/a	n/a	SAUCE	7	4	[0, 0, 0]	n/a	FR1	1	R1386T
474.299	0.816	610942	WORD_OFF	n/a	n/a	SAUCE	7	4	[0, 0, 0]	n/a	FR1	1	R1386T
475.115	1.617	611753	WORD	n/a	n/a	SUN	8	4	[0, 0, 0]	n/a	FR1	1	R1386T
476.732	0.8	613374	WORD_OFF	n/a	n/a	SUN	8	4	[0, 0, 0]	n/a	FR1	1	R1386T
477.532	1.6	614177	WORD	n/a	n/a	SLIME	9	4	[0, 0, 0]	n/a	FR1	1	R1386T
479.132	1.0	615772	WORD_OFF	n/a	n/a	SLIME	9	4	[0, 0, 0]	n/a	FR1	1	R1386T
480.132	1.6	616773	WORD	n/a	n/a	FROST	10	4	[0, 0, 0]	n/a	FR1	1	R1386T
481.732	0.983	618369	WORD_OFF	n/a	n/a	FROST	10	4	[0, 0, 0]	n/a	FR1	1	R1386T
482.715	1.601	619352	WORD	n/a	n/a	MIST	11	4	[0, 0, 0]	n/a	FR1	1	R1386T
484.316	0.917	620957	WORD_OFF	n/a	n/a	MIST	11	4	[0, 0, 0]	n/a	FR1	1	R1386T
485.233	1.601	621871	WORD	n/a	n/a	PILL	12	4	[0, 0, 0]	n/a	FR1	1	R1386T
486.834	0.0	623474	PROB	0.0	n/a	n/a	-999	4	[3, 7, 3]	13	FR1	1	R1386T
486.833	0.002	623475	WORD_OFF	n/a	n/a	PILL	12	4	[0, 0, 0]	n/a	FR1	1	R1386T
486.835	0.0	623475	ENCODING_END	n/a	n/a	n/a	-999	4	[0, 0, 0]	n/a	FR1	1	R1386T
486.835	0.0	623475	DISTRACT_START	n/a	n/a	n/a	-999	4	[0, 0, 0]	n/a	FR1	1	R1386T
486.835	3.548	623475	START	n/a	n/a	n/a	-999	4	[-999, -999, -999]	n/a	FR1	1	R1386T
490.383	2.667	627022	PROB	2.667	n/a	n/a	-999	4	[2, 1, 2]	5	FR1	1	R1386T
493.05	3.95	629689	PROB	3.95	n/a	n/a	-999	4	[8, 7, 3]	18	FR1	1	R1386T
497.0	3.383	633639	PROB	3.383	n/a	n/a	-999	4	[8, 5, 3]	16	FR1	1	R1386T
500.383	2.601	637022	PROB	2.601	n/a	n/a	-999	4	[7, 5, 1]	13	FR1	1	R1386T
502.984	2.383	639623	PROB	2.383	n/a	n/a	-999	4	[6, 5, 1]	12	FR1	1	R1386T
505.367	3.633	642006	PROB	3.633	n/a	n/a	-999	4	[4, 3, 6]	13	FR1	1	R1386T
509.0	0.0	645636	DISTRACT_END	n/a	n/a	n/a	-999	4	[0, 0, 0]	n/a	FR1	1	R1386T
509.0	1.1	645638	STOP	n/a	n/a	n/a	-999	4	[-999, -999, -999]	n/a	FR1	1	R1386T
510.1	2.419	646740	REC_START	n/a	n/a	n/a	-999	4	[0, 0, 0]	n/a	FR1	1	R1386T
512.519	1.05	649157	REC_WORD	1.05	n/a	BEAN	1	4	[0, 0, 0]	n/a	FR1	1	R1386T
513.569	1.018	650207	REC_WORD	1.018	n/a	RIB	2	4	[0, 0, 0]	n/a	FR1	1	R1386T
514.587	0.877	651225	REC_WORD	0.877	n/a	PRINCE	3	4	[0, 0, 0]	n/a	FR1	1	R1386T
515.464	24.91	652102	REC_WORD	24.91	n/a	SLIME	9	4	[0, 0, 0]	n/a	FR1	1	R1386T
540.374	2.392	677009	REC_END	n/a	n/a	n/a	-999	4	[0, 0, 0]	n/a	FR1	1	R1386T
542.766	10.35	679407	COUNTDOWN_START	n/a	n/a	n/a	-999	5	[0, 0, 0]	n/a	FR1	1	R1386T
553.116	0.0	689750	COUNTDOWN_END	n/a	n/a	n/a	-999	5	[0, 0, 0]	n/a	FR1	1	R1386T
553.116	2.266	689758	ENCODING_START	n/a	n/a	n/a	-999	5	[0, 0, 0]	n/a	FR1	1	R1386T
555.382	1.6	692018	WORD	n/a	n/a	WHEAT	1	5	[0, 0, 0]	n/a	FR1	1	R1386T
556.982	0.934	693623	WORD_OFF	n/a	n/a	WHEAT	1	5	[0, 0, 0]	n/a	FR1	1	R1386T
557.916	1.616	694554	WORD	n/a	n/a	CROWN	2	5	[0, 0, 0]	n/a	FR1	1	R1386T
559.532	0.883	696167	WORD_OFF	n/a	n/a	CROWN	2	5	[0, 0, 0]	n/a	FR1	1	R1386T
560.415	1.617	697056	WORD	n/a	n/a	SMOKE	3	5	[0, 0, 0]	n/a	FR1	1	R1386T
562.032	0.783	698669	WORD_OFF	n/a	n/a	SMOKE	3	5	[0, 0, 0]	n/a	FR1	1	R1386T
562.815	1.6	699454	WORD	n/a	n/a	TAIL	4	5	[0, 0, 0]	n/a	FR1	1	R1386T
564.415	0.917	701050	WORD_OFF	n/a	n/a	TAIL	4	5	[0, 0, 0]	n/a	FR1	1	R1386T
565.332	1.6	701964	WORD	n/a	n/a	SEAT	5	5	[0, 0, 0]	n/a	FR1	1	R1386T
566.932	0.8	703569	WORD_OFF	n/a	n/a	SEAT	5	5	[0, 0, 0]	n/a	FR1	1	R1386T
567.732	1.617	704371	WORD	n/a	n/a	STRAW	6	5	[0, 0, 0]	n/a	FR1	1	R1386T
569.349	0.849	705984	WORD_OFF	n/a	n/a	STRAW	6	5	[0, 0, 0]	n/a	FR1	1	R1386T
570.198	1.601	706838	WORD	n/a	n/a	HOUSE	7	5	[0, 0, 0]	n/a	FR1	1	R1386T
571.799	0.867	708434	WORD_OFF	n/a	n/a	HOUSE	7	5	[0, 0, 0]	n/a	FR1	1	R1386T
572.666	1.617	709305	WORD	n/a	n/a	EGG	8	5	[0, 0, 0]	n/a	FR1	1	R1386T
574.283	0.983	710918	WORD_OFF	n/a	n/a	EGG	8	5	[0, 0, 0]	n/a	FR1	1	R1386T
575.266	1.6	711901	WORD	n/a	n/a	POOL	9	5	[0, 0, 0]	n/a	FR1	1	R1386T
576.866	0.868	713506	WORD_OFF	n/a	n/a	POOL	9	5	[0, 0, 0]	n/a	FR1	1	R1386T
577.734	1.616	714369	WORD	n/a	n/a	PORK	10	5	[0, 0, 0]	n/a	FR1	1	R1386T
579.35	0.967	715982	WORD_OFF	n/a	n/a	PORK	10	5	[0, 0, 0]	n/a	FR1	1	R1386T
580.317	1.616	716956	WORD	n/a	n/a	MAIL	11	5	[0, 0, 0]	n/a	FR1	1	R1386T
581.933	0.782	718569	WORD_OFF	n/a	n/a	MAIL	11	5	[0, 0, 0]	n/a	FR1	1	R1386T
582.715	1.601	719354	WORD	n/a	n/a	WEB	12	5	[0, 0, 0]	n/a	FR1	1	R1386T
584.316	0.002	720950	WORD_OFF	n/a	n/a	WEB	12	5	[0, 0, 0]	n/a	FR1	1	R1386T
584.318	0.0	720950	ENCODING_END	n/a	n/a	n/a	-999	5	[0, 0, 0]	n/a	FR1	1	R1386T
584.317	0.001	720952	PROB	0.001	n/a	n/a	-999	5	[6, 7, 7]	20	FR1	1	R1386T
584.318	0.0	720953	START	n/a	n/a	n/a	-999	5	[-999, -999, -999]	n/a	FR1	1	R1386T
584.318	4.164	720959	DISTRACT_START	n/a	n/a	n/a	-999	5	[0, 0, 0]	n/a	FR1	1	R1386T
588.482	3.085	725116	PROB	3.085	n/a	n/a	-999	5	[2, 5, 7]	14	FR1	1	R1386T
591.567	2.333	728201	PROB	2.333	n/a	n/a	-999	5	[3, 7, 2]	12	FR1	1	R1386T
593.9	3.9	730534	PROB	3.9	n/a	n/a	-999	5	[5, 6, 7]	18	FR1	1	R1386T
597.8	2.383	734434	PROB	2.383	n/a	n/a	-999	5	[1, 2, 4]	7	FR1	1	R1386T
600.183	4.402	736817	PROB	4.402	n/a	n/a	-999	5	[2, 7, 1]	10	FR1	1	R1386T
604.585	0.0	741219	STOP	n/a	n/a	n/a	-999	5	[-999, -999, -999]	n/a	FR1	1	R1386T
604.585	1.348	741221	DISTRACT_END	n/a	n/a	n/a	-999	5	[0, 0, 0]	n/a	FR1	1	R1386T
605.933	2.462	742567	REC_START	n/a	n/a	n/a	-999	5	[0, 0, 0]	n/a	FR1	1	R1386T
608.395	1.124	745028	REC_WORD	1.124	n/a	PORK	10	5	[0, 0, 0]	n/a	FR1	1	R1386T
609.519	1.113	746152	REC_WORD	1.113	n/a	MAIL	11	5	[0, 0, 0]	n/a	FR1	1	R1386T
610.632	1.058	747265	REC_WORD	1.058	n/a	RIB	-999	5	[0, 0, 0]	n/a	FR1	1	R1386T
611.69	5.148	748323	REC_WORD	5.148	n/a	SLIME	-999	5	[0, 0, 0]	n/a	FR1	1	R1386T
616.838	19.385	753471	REC_WORD	19.385	n/a	WHEAT	1	5	[0, 0, 0]	n/a	FR1	1	R1386T
636.223	2.709	772853	REC_END	n/a	n/a	n/a	-999	5	[0, 0, 0]	n/a	FR1	1	R1386T
638.932	10.351	775562	COUNTDOWN_START	n/a	n/a	n/a	-999	6	[0, 0, 0]	n/a	FR1	1	R1386T
649.283	0.001	785913	COUNTDOWN_END	n/a	n/a	n/a	-999	6	[0, 0, 0]	n/a	FR1	1	R1386T
649.284	2.115	785913	ENCODING_START	n/a	n/a	n/a	-999	6	[0, 0, 0]	n/a	FR1	1	R1386T
651.399	1.617	788035	WORD	n/a	n/a	DOCK	1	6	[0, 0, 0]	n/a	FR1	1	R1386T
653.016	0.967	789648	WORD_OFF	n/a	n/a	DOCK	1	6	[0, 0, 0]	n/a	FR1	1	R1386T
653.983	1.6	790614	WORD	n/a	n/a	SNAIL	2	6	[0, 0, 0]	n/a	FR1	1	R1386T
655.583	0.983	792210	WORD_OFF	n/a	n/a	SNAIL	2	6	[0, 0, 0]	n/a	FR1	1	R1386T
656.566	1.6	793202	WORD	n/a	n/a	STREET	3	6	[0, 0, 0]	n/a	FR1	1	R1386T
658.166	0.95	794798	WORD_OFF	n/a	n/a	STREET	3	6	[0, 0, 0]	n/a	FR1	1	R1386T
659.116	1.6	795747	WORD	n/a	n/a	GOLD	4	6	[0, 0, 0]	n/a	FR1	1	R1386T
660.716	0.783	797351	WORD_OFF	n/a	n/a	GOLD	4	6	[0, 0, 0]	n/a	FR1	1	R1386T
661.499	1.6	798128	WORD	n/a	n/a	MOOSE	5	6	[0, 0, 0]	n/a	FR1	1	R1386T
663.099	0.917	799732	WORD_OFF	n/a	n/a	MOOSE	5	6	[0, 0, 0]	n/a	FR1	1	R1386T
664.016	1.6	800647	WORD	n/a	n/a	ASH	6	6	[0, 0, 0]	n/a	FR1	1	R1386T
665.616	0.967	802242	WORD_OFF	n/a	n/a	ASH	6	6	[0, 0, 0]	n/a	FR1	1	R1386T
666.583	1.6	803217	WORD	n/a	n/a	TEETH	7	6	[0, 0, 0]	n/a	FR1	1	R1386T
668.183	1.0	804813	WORD_OFF	n/a	n/a	TEETH	7	6	[0, 0, 0]	n/a	FR1	1	R1386T
669.183	1.6	805814	WORD	n/a	n/a	CLIFF	8	6	[0, 0, 0]	n/a	FR1	1	R1386T
670.783	0.933	807409	WORD_OFF	n/a	n/a	CLIFF	8	6	[0, 0, 0]	n/a	FR1	1	R1386T
671.716	1.6	808350	WORD	n/a	n/a	NURSE	9	6	[0, 0, 0]	n/a	FR1	1	R1386T
673.316	0.95	809945	WORD_OFF	n/a	n/a	NURSE	9	6	[0, 0, 0]	n/a	FR1	1	R1386T
674.266	1.6	810894	WORD	n/a	n/a	INK	10	6	[0, 0, 0]	n/a	FR1	1	R1386T
675.866	0.933	812499	WORD_OFF	n/a	n/a	INK	10	6	[0, 0, 0]	n/a	FR1	1	R1386T
676.799	1.617	813430	WORD	n/a	n/a	HILL	11	6	[0, 0, 0]	n/a	FR1	1	R1386T
678.416	0.833	815044	WORD_OFF	n/a	n/a	HILL	11	6	[0, 0, 0]	n/a	FR1	1	R1386T
679.249	1.601	815880	WORD	n/a	n/a	PIT	12	6	[0, 0, 0]	n/a	FR1	1	R1386T
680.85	0.0	817476	WORD_OFF	n/a	n/a	PIT	12	6	[0, 0, 0]	n/a	FR1	1	R1386T
680.85	0.001	817480	PROB	0.001	n/a	n/a	-999	6	[7, 5, 1]	13	FR1	1	R1386T
680.851	0.0	817481	START	n/a	n/a	n/a	-999	6	[-999, -999, -999]	n/a	FR1	1	R1386T
680.851	0.0	817485	ENCODING_END	n/a	n/a	n/a	-999	6	[0, 0, 0]	n/a	FR1	1	R1386T
680.851	4.199	817485	DISTRACT_START	n/a	n/a	n/a	-999	6	[0, 0, 0]	n/a	FR1	1	R1386T
685.05	3.716	821679	PROB	3.716	n/a	n/a	-999	6	[2, 8, 5]	15	FR1	1	R1386T
688.766	3.568	825395	PROB	3.568	n/a	n/a	-999	6	[2, 8, 3]	13	FR1	1	R1386T
692.334	4.282	828963	PROB	4.282	n/a	n/a	-999	6	[7, 5, 6]	18	FR1	1	R1386T
696.616	3.968	833245	PROB	3.968	n/a	n/a	-999	6	[2, 6, 2]	10	FR1	1	R1386T
700.584	2.765	837213	PROB	2.765	n/a	n/a	-999	6	[4, 2, 1]	7	FR1	1	R1386T
703.349	0.0	839978	STOP	n/a	n/a	n/a	-999	6	[-999, -999, -999]	n/a	FR1	1	R1386T
703.349	1.184	839982	DISTRACT_END	n/a	n/a	n/a	-999	6	[0, 0, 0]	n/a	FR1	1	R1386T
704.533	5.323	841163	REC_START	n/a	n/a	n/a	-999	6	[0, 0, 0]	n/a	FR1	1	R1386T
709.856	2.639	846484	REC_WORD	2.639	n/a	ASH	6	6	[0, 0, 0]	n/a	FR1	1	R1386T
712.495	4.011	849123	REC_WORD	4.011	n/a	STREET	3	6	[0, 0, 0]	n/a	FR1	1	R1386T
716.506	18.307	853134	REC_WORD	18.307	n/a	CLIFF	8	6	[0, 0, 0]	n/a	FR1	1	R1386T
734.813	2.303	871441	REC_END	n/a	n/a	n/a	-999	6	[0, 0, 0]	n/a	FR1	1	R1386T
737.116	10.35	873744	COUNTDOWN_START	n/a	n/a	n/a	-999	7	[0, 0, 0]	n/a	FR1	1	R1386T
747.466	0.0	884095	COUNTDOWN_END	n/a	n/a	n/a	-999	7	[0, 0, 0]	n/a	FR1	1	R1386T
747.466	2.132	884095	ENCODING_START	n/a	n/a	n/a	-999	7	[0, 0, 0]	n/a	FR1	1	R1386T
749.598	1.601	886226	WORD	n/a	n/a	MAP	1	7	[0, 0, 0]	n/a	FR1	1	R1386T
751.199	0.783	887822	WORD_OFF	n/a	n/a	MAP	1	7	[0, 0, 0]	n/a	FR1	1	R1386T
751.982	1.617	888607	WORD	n/a	n/a	MINK	2	7	[0, 0, 0]	n/a	FR1	1	R1386T
753.599	0.783	890228	WORD_OFF	n/a	n/a	MINK	2	7	[0, 0, 0]	n/a	FR1	1	R1386T
754.382	1.6	891005	WORD	n/a	n/a	PASTE	3	7	[0, 0, 0]	n/a	FR1	1	R1386T
755.982	0.834	892609	WORD_OFF	n/a	n/a	PASTE	3	7	[0, 0, 0]	n/a	FR1	1	R1386T
756.816	1.6	893446	WORD	n/a	n/a	TRAY	4	7	[0, 0, 0]	n/a	FR1	1	R1386T
758.416	0.768	895042	WORD_OFF	n/a	n/a	TRAY	4	7	[0, 0, 0]	n/a	FR1	1	R1386T
759.184	1.6	895810	WORD	n/a	n/a	SNAKE	5	7	[0, 0, 0]	n/a	FR1	1	R1386T
760.784	0.899	897414	WORD_OFF	n/a	n/a	SNAKE	5	7	[0, 0, 0]	n/a	FR1	1	R1386T
761.683	1.616	898311	WORD	n/a	n/a	SACK	6	7	[0, 0, 0]	n/a	FR1	1	R1386T
763.299	0.851	899924	WORD_OFF	n/a	n/a	SACK	6	7	[0, 0, 0]	n/a	FR1	1	R1386T
764.15	1.6	900778	WORD	n/a	n/a	DEER	7	7	[0, 0, 0]	n/a	FR1	1	R1386T
765.75	0.833	902374	WORD_OFF	n/a	n/a	DEER	7	7	[0, 0, 0]	n/a	FR1	1	R1386T
766.583	1.6	903211	WORD	n/a	n/a	CHEEK	8	7	[0, 0, 0]	n/a	FR1	1	R1386T
768.183	0.783	904806	WORD_OFF	n/a	n/a	CHEEK	8	7	[0, 0, 0]	n/a	FR1	1	R1386T
768.966	1.618	905591	WORD	n/a	n/a	COAL	9	7	[0, 0, 0]	n/a	FR1	1	R1386T
770.584	0.865	907213	WORD_OFF	n/a	n/a	COAL	9	7	[0, 0, 0]	n/a	FR1	1	R1386T
771.449	1.6	908076	WORD	n/a	n/a	HOSE	10	7	[0, 0, 0]	n/a	FR1	1	R1386T
773.049	0.917	909672	WORD_OFF	n/a	n/a	HOSE	10	7	[0, 0, 0]	n/a	FR1	1	R1386T
773.966	1.6	910595	WORD	n/a	n/a	CAVE	11	7	[0, 0, 0]	n/a	FR1	1	R1386T
775.566	0.966	912190	WORD_OFF	n/a	n/a	CAVE	11	7	[0, 0, 0]	n/a	FR1	1	R1386T
776.532	1.602	913157	WORD	n/a	n/a	TENT	12	7	[0, 0, 0]	n/a	FR1	1	R1386T
778.134	0.0	914759	START	n/a	n/a	n/a	-999	7	[-999, -999, -999]	n/a	FR1	1	R1386T
778.134	0.0	914759	PROB	0.0	n/a	n/a	-999	7	[3, 2, 1]	6	FR1	1	R1386T
778.133	0.001	914761	WORD_OFF	n/a	n/a	TENT	12	7	[0, 0, 0]	n/a	FR1	1	R1386T
778.134	0.0	914761	ENCODING_END	n/a	n/a	n/a	-999	7	[0, 0, 0]	n/a	FR1	1	R1386T
778.134	3.833	914761	DISTRACT_START	n/a	n/a	n/a	-999	7	[0, 0, 0]	n/a	FR1	1	R1386T
781.967	3.716	918592	PROB	3.716	n/a	n/a	-999	7	[2, 6, 2]	10	FR1	1	R1386T
785.683	3.533	922307	PROB	3.533	n/a	n/a	-999	7	[6, 2, 4]	12	FR1	1	R1386T
789.216	3.117	925840	PROB	3.117	n/a	n/a	-999	7	[1, 3, 7]	11	FR1	1	R1386T
792.333	3.317	928957	PROB	3.317	n/a	n/a	-999	7	[5, 2, 2]	9	FR1	1	R1386T
795.65	4.833	932274	PROB	4.833	n/a	n/a	-999	7	[6, 3, 4]	13	FR1	1	R1386T
800.483	0.0	937107	STOP	n/a	n/a	n/a	-999	7	[-999, -999, -999]	n/a	FR1	1	R1386T
800.483	1.15	937111	DISTRACT_END	n/a	n/a	n/a	-999	7	[0, 0, 0]	n/a	FR1	1	R1386T
801.633	2.043	938258	REC_START	n/a	n/a	n/a	-999	7	[0, 0, 0]	n/a	FR1	1	R1386T
803.676	1.373	940299	REC_WORD	1.373	n/a	MAP	1	7	[0, 0, 0]	n/a	FR1	1	R1386T
805.049	1.394	941672	REC_WORD	1.394	n/a	MOOSE	-999	7	[0, 0, 0]	n/a	FR1	1	R1386T
806.443	6.594	943066	REC_WORD	6.594	n/a	PASTE	3	7	[0, 0, 0]	n/a	FR1	1	R1386T
813.037	18.884	949660	REC_WORD	18.884	n/a	CAVE	11	7	[0, 0, 0]	n/a	FR1	1	R1386T
831.921	2.795	968545	REC_END	n/a	n/a	n/a	-999	7	[0, 0, 0]	n/a	FR1	1	R1386T
834.716	10.35	971339	COUNTDOWN_START	n/a	n/a	n/a	-999	8	[0, 0, 0]	n/a	FR1	1	R1386T
845.066	0.0	981691	COUNTDOWN_END	n/a	n/a	n/a	-999	8	[0, 0, 0]	n/a	FR1	1	R1386T
845.066	2.099	981691	ENCODING_START	n/a	n/a	n/a	-999	8	[0, 0, 0]	n/a	FR1	1	R1386T
847.165	1.601	983787	WORD	n/a	n/a	HAY	1	8	[0, 0, 0]	n/a	FR1	1	R1386T
848.766	0.85	985391	WORD_OFF	n/a	n/a	HAY	1	8	[0, 0, 0]	n/a	FR1	1	R1386T
849.616	1.616	986237	WORD	n/a	n/a	AISLE	2	8	[0, 0, 0]	n/a	FR1	1	R1386T
851.232	0.951	987850	WORD_OFF	n/a	n/a	AISLE	2	8	[0, 0, 0]	n/a	FR1	1	R1386T
852.183	1.6	988807	WORD	n/a	n/a	BIRD	3	8	[0, 0, 0]	n/a	FR1	1	R1386T
853.783	0.967	990403	WORD_OFF	n/a	n/a	BIRD	3	8	[0, 0, 0]	n/a	FR1	1	R1386T
854.75	1.616	991369	WORD	n/a	n/a	WING	4	8	[0, 0, 0]	n/a	FR1	1	R1386T
856.366	0.984	992991	WORD_OFF	n/a	n/a	WING	4	8	[0, 0, 0]	n/a	FR1	1	R1386T
857.35	1.6	993974	WORD	n/a	n/a	MAT	5	8	[0, 0, 0]	n/a	FR1	1	R1386T
858.95	0.915	995570	WORD_OFF	n/a	n/a	MAT	5	8	[0, 0, 0]	n/a	FR1	1	R1386T
859.865	1.6	996485	WORD	n/a	n/a	PAN	6	8	[0, 0, 0]	n/a	FR1	1	R1386T
861.465	0.968	998089	WORD_OFF	n/a	n/a	PAN	6	8	[0, 0, 0]	n/a	FR1	1	R1386T
862.433	1.6	999055	WORD	n/a	n/a	SWORD	7	8	[0, 0, 0]	n/a	FR1	1	R1386T
864.033	0.833	1000651	WORD_OFF	n/a	n/a	SWORD	7	8	[0, 0, 0]	n/a	FR1	1	R1386T
864.866	1.6	1001488	WORD	n/a	n/a	SPRING	8	8	[0, 0, 0]	n/a	FR1	1	R1386T
866.466	0.917	1003083	WORD_OFF	n/a	n/a	SPRING	8	8	[0, 0, 0]	n/a	FR1	1	R1386T
867.383	1.6	1004006	WORD	n/a	n/a	JUDGE	9	8	[0, 0, 0]	n/a	FR1	1	R1386T
868.983	0.9	1005602	WORD_OFF	n/a	n/a	JUDGE	9	8	[0, 0, 0]	n/a	FR1	1	R1386T
869.883	1.6	1006499	WORD	n/a	n/a	FLAG	10	8	[0, 0, 0]	n/a	FR1	1	R1386T
871.483	0.85	1008104	WORD_OFF	n/a	n/a	FLAG	10	8	[0, 0, 0]	n/a	FR1	1	R1386T
872.333	1.6	1008949	WORD	n/a	n/a	COKE	11	8	[0, 0, 0]	n/a	FR1	1	R1386T
873.933	0.8	1010554	WORD_OFF	n/a	n/a	COKE	11	8	[0, 0, 0]	n/a	FR1	1	R1386T
874.733	1.616	1011356	WORD	n/a	n/a	STOOL	12	8	[0, 0, 0]	n/a	FR1	1	R1386T
876.349	0.001	1012969	WORD_OFF	n/a	n/a	STOOL	12	8	[0, 0, 0]	n/a	FR1	1	R1386T
876.35	0.0	1012969	ENCODING_END	n/a	n/a	n/a	-999	8	[0, 0, 0]	n/a	FR1	1	R1386T
876.35	0.0	1012969	DISTRACT_START	n/a	n/a	n/a	-999	8	[0, 0, 0]	n/a	FR1	1	R1386T
876.349	0.001	1012969	PROB	0.001	n/a	n/a	-999	8	[1, 5, 6]	12	FR1	1	R1386T
876.35	3.75	1012970	START	n/a	n/a	n/a	-999	8	[-999, -999, -999]	n/a	FR1	1	R1386T
880.1	2.666	1016720	PROB	2.666	n/a	n/a	-999	8	[4, 2, 5]	11	FR1	1	R1386T
882.766	3.35	1019385	PROB	3.35	n/a	n/a	-999	8	[7, 1, 6]	14	FR1	1	R1386T
886.116	2.784	1022735	PROB	2.784	n/a	n/a	-999	8	[2, 2, 5]	9	FR1	1	R1386T
888.9	3.65	1025519	PROB	3.65	n/a	n/a	-999	8	[7, 7, 8]	22	FR1	1	R1386T
892.55	3.333	1029169	PROB	3.333	n/a	n/a	-999	8	[5, 2, 8]	15	FR1	1	R1386T
895.883	2.8	1032502	PROB	2.8	n/a	n/a	-999	8	[4, 3, 6]	13	FR1	1	R1386T
898.683	0.0	1035302	DISTRACT_END	n/a	n/a	n/a	-999	8	[0, 0, 0]	n/a	FR1	1	R1386T
898.683	1.35	1035302	STOP	n/a	n/a	n/a	-999	8	[-999, -999, -999]	n/a	FR1	1	R1386T
900.033	2.226	1036648	REC_START	n/a	n/a	n/a	-999	8	[0, 0, 0]	n/a	FR1	1	R1386T
902.259	1.224	1038877	REC_WORD	1.224	n/a	AISLE	2	8	[0, 0, 0]	n/a	FR1	1	R1386T
903.483	1.159	1040101	REC_WORD	1.159	n/a	BIRD	3	8	[0, 0, 0]	n/a	FR1	1	R1386T
904.642	1.769	1041260	REC_WORD	1.769	n/a	WING	4	8	[0, 0, 0]	n/a	FR1	1	R1386T
906.411	23.904	1043029	REC_WORD	23.904	n/a	FLAG	10	8	[0, 0, 0]	n/a	FR1	1	R1386T
930.315	2.867	1066934	REC_END	n/a	n/a	n/a	-999	8	[0, 0, 0]	n/a	FR1	1	R1386T
933.182	10.351	1069798	COUNTDOWN_START	n/a	n/a	n/a	-999	9	[0, 0, 0]	n/a	FR1	1	R1386T
943.533	0.0	1080149	COUNTDOWN_END	n/a	n/a	n/a	-999	9	[0, 0, 0]	n/a	FR1	1	R1386T
943.533	1.967	1080149	ENCODING_START	n/a	n/a	n/a	-999	9	[0, 0, 0]	n/a	FR1	1	R1386T
945.5	1.6	1082116	WORD	n/a	n/a	HAT	1	9	[0, 0, 0]	n/a	FR1	1	R1386T
947.1	0.95	1083720	WORD_OFF	n/a	n/a	HAT	1	9	[0, 0, 0]	n/a	FR1	1	R1386T
948.05	1.6	1084669	WORD	n/a	n/a	POT	2	9	[0, 0, 0]	n/a	FR1	1	R1386T
949.65	0.799	1086265	WORD_OFF	n/a	n/a	POT	2	9	[0, 0, 0]	n/a	FR1	1	R1386T
950.449	1.617	1087067	WORD	n/a	n/a	PLATE	3	9	[0, 0, 0]	n/a	FR1	1	R1386T
952.066	0.934	1088680	WORD_OFF	n/a	n/a	PLATE	3	9	[0, 0, 0]	n/a	FR1	1	R1386T
953.0	1.6	1089612	WORD	n/a	n/a	SHED	4	9	[0, 0, 0]	n/a	FR1	1	R1386T
954.6	0.799	1091216	WORD_OFF	n/a	n/a	SHED	4	9	[0, 0, 0]	n/a	FR1	1	R1386T
955.399	1.617	1092018	WORD	n/a	n/a	BOOT	5	9	[0, 0, 0]	n/a	FR1	1	R1386T
957.016	0.983	1093631	WORD_OFF	n/a	n/a	BOOT	5	9	[0, 0, 0]	n/a	FR1	1	R1386T
957.999	1.601	1094615	WORD	n/a	n/a	FORT	6	9	[0, 0, 0]	n/a	FR1	1	R1386T
959.6	0.866	1096219	WORD_OFF	n/a	n/a	FORT	6	9	[0, 0, 0]	n/a	FR1	1	R1386T
960.466	1.617	1097082	WORD	n/a	n/a	TRAIL	7	9	[0, 0, 0]	n/a	FR1	1	R1386T
962.083	1.0	1098695	WORD_OFF	n/a	n/a	TRAIL	7	9	[0, 0, 0]	n/a	FR1	1	R1386T
963.083	1.6	1099696	WORD	n/a	n/a	FROG	8	9	[0, 0, 0]	n/a	FR1	1	R1386T
964.683	0.766	1101300	WORD_OFF	n/a	n/a	FROG	8	9	[0, 0, 0]	n/a	FR1	1	R1386T
965.449	1.617	1102068	WORD	n/a	n/a	MEN	9	9	[0, 0, 0]	n/a	FR1	1	R1386T
967.066	0.85	1103681	WORD_OFF	n/a	n/a	MEN	9	9	[0, 0, 0]	n/a	FR1	1	R1386T
967.916	1.6	1104535	WORD	n/a	n/a	STICK	10	9	[0, 0, 0]	n/a	FR1	1	R1386T
969.516	0.95	1106131	WORD_OFF	n/a	n/a	STICK	10	9	[0, 0, 0]	n/a	FR1	1	R1386T
970.466	1.6	1107080	WORD	n/a	n/a	GLOBE	11	9	[0, 0, 0]	n/a	FR1	1	R1386T
972.066	0.983	1108684	WORD_OFF	n/a	n/a	GLOBE	11	9	[0, 0, 0]	n/a	FR1	1	R1386T
973.049	1.6	1109667	WORD	n/a	n/a	CHIN	12	9	[0, 0, 0]	n/a	FR1	1	R1386T
974.649	0.002	1111263	WORD_OFF	n/a	n/a	CHIN	12	9	[0, 0, 0]	n/a	FR1	1	R1386T
974.651	0.0	1111263	ENCODING_END	n/a	n/a	n/a	-999	9	[0, 0, 0]	n/a	FR1	1	R1386T
974.65	0.001	1111265	PROB	0.001	n/a	n/a	-999	9	[7, 8, 4]	19	FR1	1	R1386T
974.651	0.0	1111266	START	n/a	n/a	n/a	-999	9	[-999, -999, -999]	n/a	FR1	1	R1386T
974.651	4.699	1111272	DISTRACT_START	n/a	n/a	n/a	-999	9	[0, 0, 0]	n/a	FR1	1	R1386T
979.35	3.566	1115965	PROB	3.566	n/a	n/a	-999	9	[7, 2, 8]	16	FR1	1	R1386T
982.916	3.434	1119530	PROB	3.434	n/a	n/a	-999	9	[7, 7, 5]	19	FR1	1	R1386T
986.35	4.099	1122964	PROB	4.099	n/a	n/a	-999	9	[4, 3, 4]	11	FR1	1	R1386T
990.449	4.317	1127063	PROB	4.317	n/a	n/a	-999	9	[7, 2, 3]	10	FR1	1	R1386T
994.766	0.0	1131379	DISTRACT_END	n/a	n/a	n/a	-999	9	[0, 0, 0]	n/a	FR1	1	R1386T
994.766	1.083	1131380	STOP	n/a	n/a	n/a	-999	9	[-999, -999, -999]	n/a	FR1	1	R1386T
995.849	2.157	1132466	REC_START	n/a	n/a	n/a	-999	9	[0, 0, 0]	n/a	FR1	1	R1386T
998.006	3.465	1134620	REC_WORD	3.465	n/a	POT	2	9	[0, 0, 0]	n/a	FR1	1	R1386T
1001.471	4.087	1138084	REC_WORD	4.087	n/a	PASTE	-999	9	[0, 0, 0]	n/a	FR1	1	R1386T
1005.558	20.563	1142171	REC_WORD	20.563	n/a	WING	-999	9	[0, 0, 0]	n/a	FR1	1	R1386T
1026.121	2.528	1162735	REC_END	n/a	n/a	n/a	-999	9	[0, 0, 0]	n/a	FR1	1	R1386T
1028.649	10.351	1165262	COUNTDOWN_START	n/a	n/a	n/a	-999	10	[0, 0, 0]	n/a	FR1	1	R1386T
1039.0	0.0	1175614	COUNTDOWN_END	n/a	n/a	n/a	-999	10	[0, 0, 0]	n/a	FR1	1	R1386T
1039.0	2.233	1175614	ENCODING_START	n/a	n/a	n/a	-999	10	[0, 0, 0]	n/a	FR1	1	R1386T
1041.233	1.6	1177848	WORD	n/a	n/a	STEAK	1	10	[0, 0, 0]	n/a	FR1	1	R1386T
1042.833	0.966	1179444	WORD_OFF	n/a	n/a	STEAK	1	10	[0, 0, 0]	n/a	FR1	1	R1386T
1043.799	1.617	1180410	WORD	n/a	n/a	PHONE	2	10	[0, 0, 0]	n/a	FR1	1	R1386T
1045.416	0.784	1182032	WORD_OFF	n/a	n/a	PHONE	2	10	[0, 0, 0]	n/a	FR1	1	R1386T
1046.2	1.6	1182817	WORD	n/a	n/a	BADGE	3	10	[0, 0, 0]	n/a	FR1	1	R1386T
1047.8	0.916	1184412	WORD_OFF	n/a	n/a	BADGE	3	10	[0, 0, 0]	n/a	FR1	1	R1386T
1048.716	1.6	1185327	WORD	n/a	n/a	FUR	4	10	[0, 0, 0]	n/a	FR1	1	R1386T
1050.316	0.833	1186931	WORD_OFF	n/a	n/a	FUR	4	10	[0, 0, 0]	n/a	FR1	1	R1386T
1051.149	1.601	1187759	WORD	n/a	n/a	WORLD	5	10	[0, 0, 0]	n/a	FR1	1	R1386T
1052.75	0.916	1189364	WORD_OFF	n/a	n/a	WORLD	5	10	[0, 0, 0]	n/a	FR1	1	R1386T
1053.666	1.616	1190278	WORD	n/a	n/a	WAX	6	10	[0, 0, 0]	n/a	FR1	1	R1386T
1055.282	0.917	1191891	WORD_OFF	n/a	n/a	WAX	6	10	[0, 0, 0]	n/a	FR1	1	R1386T
1056.199	1.6	1192814	WORD	n/a	n/a	WAND	7	10	[0, 0, 0]	n/a	FR1	1	R1386T
1057.799	0.784	1194410	WORD_OFF	n/a	n/a	WAND	7	10	[0, 0, 0]	n/a	FR1	1	R1386T
1058.583	1.6	1195195	WORD	n/a	n/a	LAMP	8	10	[0, 0, 0]	n/a	FR1	1	R1386T
1060.183	0.817	1196791	WORD_OFF	n/a	n/a	LAMP	8	10	[0, 0, 0]	n/a	FR1	1	R1386T
1061.0	1.6	1197610	WORD	n/a	n/a	SHELL	9	10	[0, 0, 0]	n/a	FR1	1	R1386T
1062.6	0.816	1199206	WORD_OFF	n/a	n/a	SHELL	9	10	[0, 0, 0]	n/a	FR1	1	R1386T
1063.416	1.6	1200026	WORD	n/a	n/a	STEW	10	10	[0, 0, 0]	n/a	FR1	1	R1386T
1065.016	0.817	1201630	WORD_OFF	n/a	n/a	STEW	10	10	[0, 0, 0]	n/a	FR1	1	R1386T
1065.833	1.6	1202441	WORD	n/a	n/a	SINK	11	10	[0, 0, 0]	n/a	FR1	1	R1386T
1067.433	0.766	1204045	WORD_OFF	n/a	n/a	SINK	11	10	[0, 0, 0]	n/a	FR1	1	R1386T
1068.199	1.601	1204813	WORD	n/a	n/a	STONE	12	10	[0, 0, 0]	n/a	FR1	1	R1386T
1069.8	0.001	1206409	WORD_OFF	n/a	n/a	STONE	12	10	[0, 0, 0]	n/a	FR1	1	R1386T
1069.801	0.0	1206409	ENCODING_END	n/a	n/a	n/a	-999	10	[0, 0, 0]	n/a	FR1	1	R1386T
1069.8	0.001	1206410	PROB	0.001	n/a	n/a	-999	10	[4, 1, 1]	9	FR1	1	R1386T
1069.801	0.0	1206411	START	n/a	n/a	n/a	-999	10	[-999, -999, -999]	n/a	FR1	1	R1386T
1069.801	5.815	1206417	DISTRACT_START	n/a	n/a	n/a	-999	10	[0, 0, 0]	n/a	FR1	1	R1386T
1075.616	4.551	1212226	PROB	4.551	n/a	n/a	-999	10	[3, 7, 7]	17	FR1	1	R1386T
1080.167	4.032	1216776	PROB	4.032	n/a	n/a	-999	10	[7, 5, 6]	18	FR1	1	R1386T
1084.199	3.985	1220808	PROB	3.985	n/a	n/a	-999	10	[3, 6, 3]	12	FR1	1	R1386T
1088.184	3.615	1224793	PROB	3.615	n/a	n/a	-999	10	[1, 7, 3]	11	FR1	1	R1386T
1091.799	0.0	1228405	DISTRACT_END	n/a	n/a	n/a	-999	10	[0, 0, 0]	n/a	FR1	1	R1386T
1091.799	1.133	1228408	STOP	n/a	n/a	n/a	-999	10	[-999, -999, -999]	n/a	FR1	1	R1386T
1092.932	2.388	1229544	REC_START	n/a	n/a	n/a	-999	10	[0, 0, 0]	n/a	FR1	1	R1386T
1095.32	1.47	1231929	REC_WORD	1.47	n/a	PHONE	2	10	[0, 0, 0]	n/a	FR1	1	R1386T
1096.79	1.135	1233399	REC_WORD	1.135	n/a	BADGE	3	10	[0, 0, 0]	n/a	FR1	1	R1386T
1097.925	1.283	1234533	REC_WORD	1.283	n/a	WAX	6	10	[0, 0, 0]	n/a	FR1	1	R1386T
1099.208	23.973	1235816	REC_WORD	23.973	n/a	WORLD	5	10	[0, 0, 0]	n/a	FR1	1	R1386T
1123.181	2.669	1259787	REC_END	n/a	n/a	n/a	-999	10	[0, 0, 0]	n/a	FR1	1	R1386T
1125.85	10.35	1262461	COUNTDOWN_START	n/a	n/a	n/a	-999	11	[0, 0, 0]	n/a	FR1	1	R1386T
1136.2	0.0	1272804	COUNTDOWN_END	n/a	n/a	n/a	-999	11	[0, 0, 0]	n/a	FR1	1	R1386T
1136.2	2.149	1272812	ENCODING_START	n/a	n/a	n/a	-999	11	[0, 0, 0]	n/a	FR1	1	R1386T
1138.349	1.617	1274952	WORD	n/a	n/a	MOSS	1	11	[0, 0, 0]	n/a	FR1	1	R1386T
1139.966	0.934	1276573	WORD_OFF	n/a	n/a	MOSS	1	11	[0, 0, 0]	n/a	FR1	1	R1386T
1140.9	1.6	1277505	WORD	n/a	n/a	PIPE	2	11	[0, 0, 0]	n/a	FR1	1	R1386T
1142.5	1.0	1279109	WORD_OFF	n/a	n/a	PIPE	2	11	[0, 0, 0]	n/a	FR1	1	R1386T
1143.5	1.6	1280110	WORD	n/a	n/a	MOLE	3	11	[0, 0, 0]	n/a	FR1	1	R1386T
1145.1	0.933	1281706	WORD_OFF	n/a	n/a	MOLE	3	11	[0, 0, 0]	n/a	FR1	1	R1386T
1146.033	1.6	1282638	WORD	n/a	n/a	BOOK	4	11	[0, 0, 0]	n/a	FR1	1	R1386T
1147.633	0.8	1284242	WORD_OFF	n/a	n/a	BOOK	4	11	[0, 0, 0]	n/a	FR1	1	R1386T
1148.433	1.6	1285036	WORD	n/a	n/a	PAINT	5	11	[0, 0, 0]	n/a	FR1	1	R1386T
1150.033	0.817	1286640	WORD_OFF	n/a	n/a	PAINT	5	11	[0, 0, 0]	n/a	FR1	1	R1386T
1150.85	1.599	1287460	WORD	n/a	n/a	FOOD	6	11	[0, 0, 0]	n/a	FR1	1	R1386T
1152.449	0.934	1289055	WORD_OFF	n/a	n/a	FOOD	6	11	[0, 0, 0]	n/a	FR1	1	R1386T
1153.383	1.6	1289987	WORD	n/a	n/a	HOLE	7	11	[0, 0, 0]	n/a	FR1	1	R1386T
1154.983	0.9	1291591	WORD_OFF	n/a	n/a	HOLE	7	11	[0, 0, 0]	n/a	FR1	1	R1386T
1155.883	1.617	1292489	WORD	n/a	n/a	SALT	8	11	[0, 0, 0]	n/a	FR1	1	R1386T
1157.5	0.883	1294102	WORD_OFF	n/a	n/a	SALT	8	11	[0, 0, 0]	n/a	FR1	1	R1386T
1158.383	1.617	1294990	WORD	n/a	n/a	FLEA	9	11	[0, 0, 0]	n/a	FR1	1	R1386T
1160.0	0.882	1296603	WORD_OFF	n/a	n/a	FLEA	9	11	[0, 0, 0]	n/a	FR1	1	R1386T
1160.882	1.601	1297492	WORD	n/a	n/a	WAVE	10	11	[0, 0, 0]	n/a	FR1	1	R1386T
1162.483	0.983	1299087	WORD_OFF	n/a	n/a	WAVE	10	11	[0, 0, 0]	n/a	FR1	1	R1386T
1163.466	1.6	1300071	WORD	n/a	n/a	NET	11	11	[0, 0, 0]	n/a	FR1	1	R1386T
1165.066	0.934	1301675	WORD_OFF	n/a	n/a	NET	11	11	[0, 0, 0]	n/a	FR1	1	R1386T
1166.0	1.6	1302607	WORD	n/a	n/a	BOWL	12	11	[0, 0, 0]	n/a	FR1	1	R1386T
1167.6	0.001	1304203	WORD_OFF	n/a	n/a	BOWL	12	11	[0, 0, 0]	n/a	FR1	1	R1386T
1167.601	0.0	1304206	START	n/a	n/a	n/a	-999	11	[-999, -999, -999]	n/a	FR1	1	R1386T
1167.601	0.0	1304206	PROB	0.0	n/a	n/a	-999	11	[6, 5, 6]	17	FR1	1	R1386T
1167.601	0.0	1304211	ENCODING_END	n/a	n/a	n/a	-999	11	[0, 0, 0]	n/a	FR1	1	R1386T
1167.601	4.532	1304211	DISTRACT_START	n/a	n/a	n/a	-999	11	[0, 0, 0]	n/a	FR1	1	R1386T
1172.133	2.517	1308738	PROB	2.517	n/a	n/a	-999	11	[7, 3, 3]	13	FR1	1	R1386T
1174.65	2.65	1311255	PROB	2.65	n/a	n/a	-999	11	[3, 2, 1]	6	FR1	1	R1386T
1177.3	3.883	1313904	PROB	3.883	n/a	n/a	-999	11	[8, 3, 7]	18	FR1	1	R1386T
1181.183	3.567	1317787	PROB	3.567	n/a	n/a	-999	11	[4, 7, 8]	19	FR1	1	R1386T
1184.75	3.715	1321354	PROB	3.715	n/a	n/a	-999	11	[2, 6, 5]	13	FR1	1	R1386T
1188.465	0.0	1325069	DISTRACT_END	n/a	n/a	n/a	-999	11	[0, 0, 0]	n/a	FR1	1	R1386T
1188.465	1.051	1325069	STOP	n/a	n/a	n/a	-999	11	[-999, -999, -999]	n/a	FR1	1	R1386T
1189.516	4.774	1326122	REC_START	n/a	n/a	n/a	-999	11	[0, 0, 0]	n/a	FR1	1	R1386T
1194.29	2.472	1330894	REC_WORD	2.472	n/a	BADGE	-999	11	[0, 0, 0]	n/a	FR1	1	R1386T
1196.762	1.889	1333365	REC_WORD	1.889	n/a	WORLD	-999	11	[0, 0, 0]	n/a	FR1	1	R1386T
1198.651	15.051	1335254	REC_WORD	15.051	n/a	PHONE	-999	11	[0, 0, 0]	n/a	FR1	1	R1386T
1213.702	6.061	1350305	REC_WORD	6.061	n/a	MOLE	3	11	[0, 0, 0]	n/a	FR1	1	R1386T
1219.763	2.137	1356365	REC_END	n/a	n/a	n/a	-999	11	[0, 0, 0]	n/a	FR1	1	R1386T
1221.9	10.349	1358504	COUNTDOWN_START	n/a	n/a	n/a	-999	12	[0, 0, 0]	n/a	FR1	1	R1386T
1232.249	0.001	1368855	COUNTDOWN_END	n/a	n/a	n/a	-999	12	[0, 0, 0]	n/a	FR1	1	R1386T
1232.25	1.882	1368855	ENCODING_START	n/a	n/a	n/a	-999	12	[0, 0, 0]	n/a	FR1	1	R1386T
1234.132	1.6	1370736	WORD	n/a	n/a	PEARL	1	12	[0, 0, 0]	n/a	FR1	1	R1386T
1235.732	0.951	1372332	WORD_OFF	n/a	n/a	PEARL	1	12	[0, 0, 0]	n/a	FR1	1	R1386T
1236.683	1.617	1373280	WORD	n/a	n/a	TRASH	2	12	[0, 0, 0]	n/a	FR1	1	R1386T
1238.3	0.983	1374902	WORD_OFF	n/a	n/a	TRASH	2	12	[0, 0, 0]	n/a	FR1	1	R1386T
1239.283	1.617	1375885	WORD	n/a	n/a	ROOT	3	12	[0, 0, 0]	n/a	FR1	1	R1386T
1240.9	0.933	1377499	WORD_OFF	n/a	n/a	ROOT	3	12	[0, 0, 0]	n/a	FR1	1	R1386T
1241.833	1.6	1378430	WORD	n/a	n/a	GEESE	4	12	[0, 0, 0]	n/a	FR1	1	R1386T
1243.433	0.916	1380035	WORD_OFF	n/a	n/a	GEESE	4	12	[0, 0, 0]	n/a	FR1	1	R1386T
1244.349	1.617	1380949	WORD	n/a	n/a	BLADE	5	12	[0, 0, 0]	n/a	FR1	1	R1386T
1245.966	1.0	1382571	WORD_OFF	n/a	n/a	BLADE	5	12	[0, 0, 0]	n/a	FR1	1	R1386T
1246.966	1.6	1383571	WORD	n/a	n/a	SKUNK	6	12	[0, 0, 0]	n/a	FR1	1	R1386T
1248.566	0.767	1385167	WORD_OFF	n/a	n/a	SKUNK	6	12	[0, 0, 0]	n/a	FR1	1	R1386T
1249.333	1.6	1385935	WORD	n/a	n/a	TREE	7	12	[0, 0, 0]	n/a	FR1	1	R1386T
1250.933	0.833	1387531	WORD_OFF	n/a	n/a	TREE	7	12	[0, 0, 0]	n/a	FR1	1	R1386T
1251.766	1.6	1388367	WORD	n/a	n/a	OWL	8	12	[0, 0, 0]	n/a	FR1	1	R1386T
1253.366	0.85	1389963	WORD_OFF	n/a	n/a	OWL	8	12	[0, 0, 0]	n/a	FR1	1	R1386T
1254.216	1.617	1390817	WORD	n/a	n/a	CREAM	9	12	[0, 0, 0]	n/a	FR1	1	R1386T
1255.833	0.9	1392430	WORD_OFF	n/a	n/a	CREAM	9	12	[0, 0, 0]	n/a	FR1	1	R1386T
1256.733	1.6	1393336	WORD	n/a	n/a	SKIN	10	12	[0, 0, 0]	n/a	FR1	1	R1386T
1258.333	0.933	1394932	WORD_OFF	n/a	n/a	SKIN	10	12	[0, 0, 0]	n/a	FR1	1	R1386T
1259.266	1.6	1395863	WORD	n/a	n/a	HOOF	11	12	[0, 0, 0]	n/a	FR1	1	R1386T
1260.866	0.867	1397468	WORD_OFF	n/a	n/a	HOOF	11	12	[0, 0, 0]	n/a	FR1	1	R1386T
1261.733	1.616	1398331	WORD	n/a	n/a	PLANT	12	12	[0, 0, 0]	n/a	FR1	1	R1386T
1263.349	0.001	1399949	PROB	0.001	n/a	n/a	-999	12	[8, 2, 3]	13	FR1	1	R1386T
1263.35	0.0	1399950	START	n/a	n/a	n/a	-999	12	[-999, -999, -999]	n/a	FR1	1	R1386T
1263.349	0.001	1399952	WORD_OFF	n/a	n/a	PLANT	12	12	[0, 0, 0]	n/a	FR1	1	R1386T
1263.35	0.0	1399952	ENCODING_END	n/a	n/a	n/a	-999	12	[0, 0, 0]	n/a	FR1	1	R1386T
1263.35	3.516	1399952	DISTRACT_START	n/a	n/a	n/a	-999	12	[0, 0, 0]	n/a	FR1	1	R1386T
1266.866	2.5	1403466	PROB	2.5	n/a	n/a	-999	12	[8, 7, 7]	22	FR1	1	R1386T
1269.366	2.65	1405966	PROB	2.65	n/a	n/a	-999	12	[4, 3, 6]	13	FR1	1	R1386T
1272.016	3.334	1408616	PROB	3.334	n/a	n/a	-999	12	[8, 6, 4]	18	FR1	1	R1386T
1275.35	3.367	1411949	PROB	3.367	n/a	n/a	-999	12	[4, 6, 7]	17	FR1	1	R1386T
1278.717	2.217	1415316	PROB	2.217	n/a	n/a	-999	12	[5, 2, 4]	11	FR1	1	R1386T
1280.934	2.398	1417533	PROB	2.398	n/a	n/a	-999	12	[7, 1, 4]	12	FR1	1	R1386T
1283.332	3.2	1419931	PROB	3.2	n/a	n/a	-999	12	[1, 6, 1]	8	FR1	1	R1386T
1286.532	0.0	1423131	DISTRACT_END	n/a	n/a	n/a	-999	12	[0, 0, 0]	n/a	FR1	1	R1386T
1286.532	1.367	1423131	STOP	n/a	n/a	n/a	-999	12	[-999, -999, -999]	n/a	FR1	1	R1386T
1287.899	2.109	1424502	REC_START	n/a	n/a	n/a	-999	12	[0, 0, 0]	n/a	FR1	1	R1386T
1290.008	1.194	1426607	REC_WORD	1.194	n/a	PEARL	1	12	[0, 0, 0]	n/a	FR1	1	R1386T
1291.202	1.479	1427801	REC_WORD	1.479	n/a	TRASH	2	12	[0, 0, 0]	n/a	FR1	1	R1386T
1292.681	1.492	1429280	REC_WORD	1.492	n/a	WORLD	-999	12	[0, 0, 0]	n/a	FR1	1	R1386T
1294.173	2.489	1430772	REC_WORD	2.489	n/a	SKIN	10	12	[0, 0, 0]	n/a	FR1	1	R1386T
1296.662	21.464	1433260	REC_WORD	21.464	n/a	BADGE	-999	12	[0, 0, 0]	n/a	FR1	1	R1386T
1318.126	0.0	1454719	REC_END	n/a	n/a	n/a	-999	12	[0, 0, 0]	n/a	FR1	1	R1386T
