onset	duration	sample	trial_type	response_time	stim_file	item_name	serialpos	list	test	answer	experiment	session	subject
0.0	0.0	7797	INSTRUCT_START	n/a	n/a	n/a	-999	-999	[0, 0, 0]	n/a	FR1	1	R1297T
0.0	10.927	7797	INSTRUCT_END	n/a	n/a	n/a	-999	-999	[0, 0, 0]	n/a	FR1	1	R1297T
10.927	0.0	18723	SESS_START	n/a	n/a	n/a	-999	-999	[0, 0, 0]	n/a	FR1	1	R1297T
10.927	16.001	18723	MIC_TEST	n/a	n/a	n/a	-999	-999	[0, 0, 0]	n/a	FR1	1	R1297T
26.928	5.777	34723	PRACTICE_TRIAL	n/a	n/a	n/a	-999	-1	[0, 0, 0]	n/a	FR1	1	R1297T
32.705	10.428	40500	COUNTDOWN_START	n/a	n/a	n/a	-999	-1	[0, 0, 0]	n/a	FR1	1	R1297T
43.133	0.008	50927	COUNTDOWN_END	n/a	n/a	n/a	-999	-1	[0, 0, 0]	n/a	FR1	1	R1297T
43.141	1.618	50935	PRACTICE_ORIENT	n/a	n/a	n/a	-999	-1	[0, 0, 0]	n/a	FR1	1	R1297T
44.759	2.282	52553	PRACTICE_ORIENT_OFF	n/a	n/a	n/a	-999	-1	[0, 0, 0]	n/a	FR1	1	R1297T
47.041	1.617	54835	PRACTICE_WORD	n/a	n/a	IRON	1	-1	[0, 0, 0]	n/a	FR1	1	R1297T
48.658	0.934	56452	PRACTICE_WORD_OFF	n/a	n/a	IRON	-999	-1	[0, 0, 0]	n/a	FR1	1	R1297T
49.592	1.617	57386	PRACTICE_WORD	n/a	n/a	TONGUE	2	-1	[0, 0, 0]	n/a	FR1	1	R1297T
51.209	0.767	59003	PRACTICE_WORD_OFF	n/a	n/a	TONGUE	-999	-1	[0, 0, 0]	n/a	FR1	1	R1297T
51.976	1.617	59769	PRACTICE_WORD	n/a	n/a	WAGON	3	-1	[0, 0, 0]	n/a	FR1	1	R1297T
53.593	0.816	61386	PRACTICE_WORD_OFF	n/a	n/a	WAGON	-999	-1	[0, 0, 0]	n/a	FR1	1	R1297T
54.409	1.617	62202	PRACTICE_WORD	n/a	n/a	ATTIC	4	-1	[0, 0, 0]	n/a	FR1	1	R1297T
56.026	0.852	63819	PRACTICE_WORD_OFF	n/a	n/a	ATTIC	-999	-1	[0, 0, 0]	n/a	FR1	1	R1297T
56.878	1.616	64671	PRACTICE_WORD	n/a	n/a	RHINO	5	-1	[0, 0, 0]	n/a	FR1	1	R1297T
58.494	0.916	66287	PRACTICE_WORD_OFF	n/a	n/a	RHINO	-999	-1	[0, 0, 0]	n/a	FR1	1	R1297T
59.41	1.617	67203	PRACTICE_WORD	n/a	n/a	RING	6	-1	[0, 0, 0]	n/a	FR1	1	R1297T
61.027	0.934	68820	PRACTICE_WORD_OFF	n/a	n/a	RING	-999	-1	[0, 0, 0]	n/a	FR1	1	R1297T
61.961	1.617	69754	PRACTICE_WORD	n/a	n/a	CAMEL	7	-1	[0, 0, 0]	n/a	FR1	1	R1297T
63.578	0.917	71371	PRACTICE_WORD_OFF	n/a	n/a	CAMEL	-999	-1	[0, 0, 0]	n/a	FR1	1	R1297T
64.495	1.617	72288	PRACTICE_WORD	n/a	n/a	COTTON	8	-1	[0, 0, 0]	n/a	FR1	1	R1297T
66.112	0.983	73905	PRACTICE_WORD_OFF	n/a	n/a	COTTON	-999	-1	[0, 0, 0]	n/a	FR1	1	R1297T
67.095	1.618	74888	PRACTICE_WORD	n/a	n/a	WATCH	9	-1	[0, 0, 0]	n/a	FR1	1	R1297T
68.713	0.783	76505	PRACTICE_WORD_OFF	n/a	n/a	WATCH	-999	-1	[0, 0, 0]	n/a	FR1	1	R1297T
69.496	1.616	77288	PRACTICE_WORD	n/a	n/a	CHEST	10	-1	[0, 0, 0]	n/a	FR1	1	R1297T
71.112	0.851	78904	PRACTICE_WORD_OFF	n/a	n/a	CHEST	-999	-1	[0, 0, 0]	n/a	FR1	1	R1297T
71.963	1.617	79755	PRACTICE_WORD	n/a	n/a	FLOOD	11	-1	[0, 0, 0]	n/a	FR1	1	R1297T
73.58	1.0	81372	PRACTICE_WORD_OFF	n/a	n/a	FLOOD	-999	-1	[0, 0, 0]	n/a	FR1	1	R1297T
74.58	1.617	82372	PRACTICE_WORD	n/a	n/a	BEAM	12	-1	[0, 0, 0]	n/a	FR1	1	R1297T
76.197	0.0	83989	PRACTICE_WORD_OFF	n/a	n/a	BEAM	-999	-1	[0, 0, 0]	n/a	FR1	1	R1297T
76.197	0.0	83989	DISTRACT_START	n/a	n/a	n/a	-999	-1	[0, 0, 0]	n/a	FR1	1	R1297T
76.197	0.016	83989	START	n/a	n/a	n/a	-999	-1	[-999, -999, -999]	n/a	FR1	1	R1297T
76.213	4.536	84005	PROB	4.536	n/a	n/a	-999	-1	[6, 7, 3]	16	FR1	1	R1297T
80.749	2.933	88541	PROB	2.933	n/a	n/a	-999	-1	[6, 4, 4]	14	FR1	1	R1297T
83.682	7.818	91474	PROB	7.818	n/a	n/a	-999	-1	[6, 9, 8]	23	FR1	1	R1297T
91.5	5.965	99291	PROB	5.965	n/a	n/a	-999	-1	[7, 4, 8]	19	FR1	1	R1297T
97.465	0.019	105256	STOP	n/a	n/a	n/a	-999	-1	[-999, -999, -999]	n/a	FR1	1	R1297T
97.484	0.667	105275	DISTRACT_END	n/a	n/a	n/a	-999	-1	[0, 0, 0]	n/a	FR1	1	R1297T
98.151	0.517	105942	RETRIEVAL_ORIENT	n/a	n/a	n/a	-999	-1	[0, 0, 0]	n/a	FR1	1	R1297T
98.668	30.013	106459	PRACTICE_REC_START	n/a	n/a	n/a	-999	-1	[0, 0, 0]	n/a	FR1	1	R1297T
128.681	30.032	136470	PRACTICE_REC_END	n/a	n/a	n/a	-999	-1	[0, 0, 0]	n/a	FR1	1	R1297T
158.713	0.5	166500	TRIAL	n/a	n/a	n/a	-999	1	[0, 0, 0]	n/a	FR1	1	R1297T
159.213	10.428	167000	COUNTDOWN_START	n/a	n/a	n/a	-999	1	[0, 0, 0]	n/a	FR1	1	R1297T
169.641	0.006	177427	COUNTDOWN_END	n/a	n/a	n/a	-999	1	[0, 0, 0]	n/a	FR1	1	R1297T
169.647	1.617	177433	ORIENT	n/a	n/a	n/a	-999	1	[0, 0, 0]	n/a	FR1	1	R1297T
171.264	2.117	179050	ORIENT_OFF	n/a	n/a	n/a	-999	1	[0, 0, 0]	n/a	FR1	1	R1297T
173.381	1.617	181167	WORD	n/a	wordpools/wordpool_EN.txt	CROWN	1	1	[0, 0, 0]	n/a	FR1	1	R1297T
174.998	0.868	182784	WORD_OFF	n/a	n/a	CROWN	1	1	[0, 0, 0]	n/a	FR1	1	R1297T
175.866	1.616	183652	WORD	n/a	wordpools/wordpool_EN.txt	BOOT	2	1	[0, 0, 0]	n/a	FR1	1	R1297T
177.482	0.933	185268	WORD_OFF	n/a	n/a	BOOT	2	1	[0, 0, 0]	n/a	FR1	1	R1297T
178.415	1.617	186201	WORD	n/a	wordpools/wordpool_EN.txt	TIE	3	1	[0, 0, 0]	n/a	FR1	1	R1297T
180.032	0.95	187818	WORD_OFF	n/a	n/a	TIE	3	1	[0, 0, 0]	n/a	FR1	1	R1297T
180.982	1.617	188768	WORD	n/a	wordpools/wordpool_EN.txt	CART	4	1	[0, 0, 0]	n/a	FR1	1	R1297T
182.599	0.8	190385	WORD_OFF	n/a	n/a	CART	4	1	[0, 0, 0]	n/a	FR1	1	R1297T
183.399	1.617	191185	WORD	n/a	wordpools/wordpool_EN.txt	DIME	5	1	[0, 0, 0]	n/a	FR1	1	R1297T
185.016	0.917	192802	WORD_OFF	n/a	n/a	DIME	5	1	[0, 0, 0]	n/a	FR1	1	R1297T
185.933	1.617	193718	WORD	n/a	wordpools/wordpool_EN.txt	PEA	6	1	[0, 0, 0]	n/a	FR1	1	R1297T
187.55	0.784	195335	WORD_OFF	n/a	n/a	PEA	6	1	[0, 0, 0]	n/a	FR1	1	R1297T
188.334	1.617	196119	WORD	n/a	wordpools/wordpool_EN.txt	STEAK	7	1	[0, 0, 0]	n/a	FR1	1	R1297T
189.951	0.834	197736	WORD_OFF	n/a	n/a	STEAK	7	1	[0, 0, 0]	n/a	FR1	1	R1297T
190.785	1.616	198570	WORD	n/a	wordpools/wordpool_EN.txt	CALF	8	1	[0, 0, 0]	n/a	FR1	1	R1297T
192.401	0.784	200186	WORD_OFF	n/a	n/a	CALF	8	1	[0, 0, 0]	n/a	FR1	1	R1297T
193.185	1.618	200970	WORD	n/a	wordpools/wordpool_EN.txt	GRASS	9	1	[0, 0, 0]	n/a	FR1	1	R1297T
194.803	0.799	202588	WORD_OFF	n/a	n/a	GRASS	9	1	[0, 0, 0]	n/a	FR1	1	R1297T
195.602	1.617	203387	WORD	n/a	wordpools/wordpool_EN.txt	HAND	10	1	[0, 0, 0]	n/a	FR1	1	R1297T
197.219	0.95	205004	WORD_OFF	n/a	n/a	HAND	10	1	[0, 0, 0]	n/a	FR1	1	R1297T
198.169	1.618	205954	WORD	n/a	wordpools/wordpool_EN.txt	STOOL	11	1	[0, 0, 0]	n/a	FR1	1	R1297T
199.787	0.832	207572	WORD_OFF	n/a	n/a	STOOL	11	1	[0, 0, 0]	n/a	FR1	1	R1297T
200.619	1.617	208404	WORD	n/a	wordpools/wordpool_EN.txt	CLAY	12	1	[0, 0, 0]	n/a	FR1	1	R1297T
202.236	0.0	210020	WORD_OFF	n/a	n/a	CLAY	12	1	[0, 0, 0]	n/a	FR1	1	R1297T
202.236	0.001	210020	DISTRACT_START	n/a	n/a	n/a	-999	1	[0, 0, 0]	n/a	FR1	1	R1297T
202.237	0.016	210021	START	n/a	n/a	n/a	-999	1	[-999, -999, -999]	n/a	FR1	1	R1297T
202.253	4.568	210037	PROB	4.568	n/a	n/a	-999	1	[3, 6, 1]	10	FR1	1	R1297T
206.821	6.852	214605	PROB	6.852	n/a	n/a	-999	1	[7, 8, 8]	23	FR1	1	R1297T
213.673	5.966	221457	PROB	5.966	n/a	n/a	-999	1	[9, 2, 9]	20	FR1	1	R1297T
219.639	3.083	227422	PROB	3.083	n/a	n/a	-999	1	[9, 3, 3]	15	FR1	1	R1297T
222.722	0.019	230505	STOP	n/a	n/a	n/a	-999	1	[-999, -999, -999]	n/a	FR1	1	R1297T
222.741	0.582	230524	DISTRACT_END	n/a	n/a	n/a	-999	1	[0, 0, 0]	n/a	FR1	1	R1297T
223.323	0.519	231106	RETRIEVAL_ORIENT	n/a	n/a	n/a	-999	1	[0, 0, 0]	n/a	FR1	1	R1297T
223.842	2.297	231625	REC_START	n/a	n/a	n/a	-999	1	[0, 0, 0]	n/a	FR1	1	R1297T
226.139	2.453	233922	REC_WORD	2.453	n/a	CLAY	-999	1	[0, 0, 0]	n/a	FR1	1	R1297T
228.592	0.819	236375	REC_WORD	0.819	n/a	STOOL	-999	1	[0, 0, 0]	n/a	FR1	1	R1297T
229.411	1.206	237194	REC_WORD	1.206	n/a	CROWN	-999	1	[0, 0, 0]	n/a	FR1	1	R1297T
230.617	4.727	238400	REC_WORD	4.727	n/a	BOOT	-999	1	[0, 0, 0]	n/a	FR1	1	R1297T
235.344	18.511	243126	REC_WORD	18.511	n/a	TIE	-999	1	[0, 0, 0]	n/a	FR1	1	R1297T
253.855	9.659	261636	REC_END	n/a	n/a	n/a	-999	1	[0, 0, 0]	n/a	FR1	1	R1297T
263.514	0.5	271295	TRIAL	n/a	n/a	n/a	-999	2	[0, 0, 0]	n/a	FR1	1	R1297T
264.014	10.428	271795	COUNTDOWN_START	n/a	n/a	n/a	-999	2	[0, 0, 0]	n/a	FR1	1	R1297T
274.442	0.007	282222	COUNTDOWN_END	n/a	n/a	n/a	-999	2	[0, 0, 0]	n/a	FR1	1	R1297T
274.449	1.617	282229	ORIENT	n/a	n/a	n/a	-999	2	[0, 0, 0]	n/a	FR1	1	R1297T
276.066	1.967	283846	ORIENT_OFF	n/a	n/a	n/a	-999	2	[0, 0, 0]	n/a	FR1	1	R1297T
278.033	1.617	285813	WORD	n/a	wordpools/wordpool_EN.txt	HOLE	1	2	[0, 0, 0]	n/a	FR1	1	R1297T
279.65	0.884	287430	WORD_OFF	n/a	n/a	HOLE	1	2	[0, 0, 0]	n/a	FR1	1	R1297T
280.534	1.617	288314	WORD	n/a	wordpools/wordpool_EN.txt	SOCK	2	2	[0, 0, 0]	n/a	FR1	1	R1297T
282.151	0.983	289931	WORD_OFF	n/a	n/a	SOCK	2	2	[0, 0, 0]	n/a	FR1	1	R1297T
283.134	1.618	290914	WORD	n/a	wordpools/wordpool_EN.txt	SUN	3	2	[0, 0, 0]	n/a	FR1	1	R1297T
284.752	0.967	292532	WORD_OFF	n/a	n/a	SUN	3	2	[0, 0, 0]	n/a	FR1	1	R1297T
285.719	1.616	293498	WORD	n/a	wordpools/wordpool_EN.txt	TEA	4	2	[0, 0, 0]	n/a	FR1	1	R1297T
287.335	0.934	295114	WORD_OFF	n/a	n/a	TEA	4	2	[0, 0, 0]	n/a	FR1	1	R1297T
288.269	1.617	296048	WORD	n/a	wordpools/wordpool_EN.txt	CAGE	5	2	[0, 0, 0]	n/a	FR1	1	R1297T
289.886	0.984	297665	WORD_OFF	n/a	n/a	CAGE	5	2	[0, 0, 0]	n/a	FR1	1	R1297T
290.87	1.616	298649	WORD	n/a	wordpools/wordpool_EN.txt	FOG	6	2	[0, 0, 0]	n/a	FR1	1	R1297T
292.486	0.817	300265	WORD_OFF	n/a	n/a	FOG	6	2	[0, 0, 0]	n/a	FR1	1	R1297T
293.303	1.618	301082	WORD	n/a	wordpools/wordpool_EN.txt	FORK	7	2	[0, 0, 0]	n/a	FR1	1	R1297T
294.921	0.85	302700	WORD_OFF	n/a	n/a	FORK	7	2	[0, 0, 0]	n/a	FR1	1	R1297T
295.771	1.616	303550	WORD	n/a	wordpools/wordpool_EN.txt	TRUCK	8	2	[0, 0, 0]	n/a	FR1	1	R1297T
297.387	0.933	305166	WORD_OFF	n/a	n/a	TRUCK	8	2	[0, 0, 0]	n/a	FR1	1	R1297T
298.32	1.617	306099	WORD	n/a	wordpools/wordpool_EN.txt	PRINCE	9	2	[0, 0, 0]	n/a	FR1	1	R1297T
299.937	0.768	307716	WORD_OFF	n/a	n/a	PRINCE	9	2	[0, 0, 0]	n/a	FR1	1	R1297T
300.705	1.616	308484	WORD	n/a	wordpools/wordpool_EN.txt	BEAR	10	2	[0, 0, 0]	n/a	FR1	1	R1297T
302.321	0.884	310099	WORD_OFF	n/a	n/a	BEAR	10	2	[0, 0, 0]	n/a	FR1	1	R1297T
303.205	1.617	310983	WORD	n/a	wordpools/wordpool_EN.txt	APE	11	2	[0, 0, 0]	n/a	FR1	1	R1297T
304.822	0.833	312600	WORD_OFF	n/a	n/a	APE	11	2	[0, 0, 0]	n/a	FR1	1	R1297T
305.655	1.617	313433	WORD	n/a	wordpools/wordpool_EN.txt	DOG	12	2	[0, 0, 0]	n/a	FR1	1	R1297T
307.272	0.0	315050	DISTRACT_START	n/a	n/a	n/a	-999	2	[0, 0, 0]	n/a	FR1	1	R1297T
307.272	0.001	315050	WORD_OFF	n/a	n/a	DOG	12	2	[0, 0, 0]	n/a	FR1	1	R1297T
307.273	0.016	315051	START	n/a	n/a	n/a	-999	2	[-999, -999, -999]	n/a	FR1	1	R1297T
307.289	3.75	315067	PROB	3.75	n/a	n/a	-999	2	[1, 4, 1]	6	FR1	1	R1297T
311.039	1.818	318817	PROB	1.818	n/a	n/a	-999	2	[4, 4, 4]	12	FR1	1	R1297T
312.857	5.018	320635	PROB	5.018	n/a	n/a	-999	2	[4, 7, 2]	13	FR1	1	R1297T
317.875	4.55	325653	PROB	4.55	n/a	n/a	-999	2	[9, 5, 9]	23	FR1	1	R1297T
322.425	3.917	330202	PROB	3.917	n/a	n/a	-999	2	[3, 2, 4]	9	FR1	1	R1297T
326.342	3.435	334119	PROB	3.435	n/a	n/a	-999	2	[2, 1, 4]	7	FR1	1	R1297T
329.777	0.017	337554	STOP	n/a	n/a	n/a	-999	2	[-999, -999, -999]	n/a	FR1	1	R1297T
329.794	0.532	337571	DISTRACT_END	n/a	n/a	n/a	-999	2	[0, 0, 0]	n/a	FR1	1	R1297T
330.326	0.519	338103	RETRIEVAL_ORIENT	n/a	n/a	n/a	-999	2	[0, 0, 0]	n/a	FR1	1	R1297T
330.845	0.733	338622	REC_START	n/a	n/a	n/a	-999	2	[0, 0, 0]	n/a	FR1	1	R1297T
331.578	0.702	339355	REC_WORD	0.702	n/a	BEAR	-999	2	[0, 0, 0]	n/a	FR1	1	R1297T
332.28	0.803	340057	REC_WORD	0.803	n/a	APE	-999	2	[0, 0, 0]	n/a	FR1	1	R1297T
333.083	27.775	340860	REC_WORD	27.775	n/a	DOG	-999	2	[0, 0, 0]	n/a	FR1	1	R1297T
360.858	5.475	368633	REC_END	n/a	n/a	n/a	-999	2	[0, 0, 0]	n/a	FR1	1	R1297T
366.333	0.5	374108	TRIAL	n/a	n/a	n/a	-999	3	[0, 0, 0]	n/a	FR1	1	R1297T
366.833	10.428	374608	COUNTDOWN_START	n/a	n/a	n/a	-999	3	[0, 0, 0]	n/a	FR1	1	R1297T
377.261	0.007	385035	COUNTDOWN_END	n/a	n/a	n/a	-999	3	[0, 0, 0]	n/a	FR1	1	R1297T
377.268	1.618	385042	ORIENT	n/a	n/a	n/a	-999	3	[0, 0, 0]	n/a	FR1	1	R1297T
378.886	2.199	386660	ORIENT_OFF	n/a	n/a	n/a	-999	3	[0, 0, 0]	n/a	FR1	1	R1297T
381.085	1.601	388859	WORD	n/a	wordpools/wordpool_EN.txt	STOVE	1	3	[0, 0, 0]	n/a	FR1	1	R1297T
382.686	1.001	390460	WORD_OFF	n/a	n/a	STOVE	1	3	[0, 0, 0]	n/a	FR1	1	R1297T
383.687	1.616	391461	WORD	n/a	wordpools/wordpool_EN.txt	HORN	2	3	[0, 0, 0]	n/a	FR1	1	R1297T
385.303	0.933	393076	WORD_OFF	n/a	n/a	HORN	2	3	[0, 0, 0]	n/a	FR1	1	R1297T
386.236	1.618	394009	WORD	n/a	wordpools/wordpool_EN.txt	PEACH	3	3	[0, 0, 0]	n/a	FR1	1	R1297T
387.854	0.817	395627	WORD_OFF	n/a	n/a	PEACH	3	3	[0, 0, 0]	n/a	FR1	1	R1297T
388.671	1.616	396444	WORD	n/a	wordpools/wordpool_EN.txt	VINE	4	3	[0, 0, 0]	n/a	FR1	1	R1297T
390.287	0.9	398060	WORD_OFF	n/a	n/a	VINE	4	3	[0, 0, 0]	n/a	FR1	1	R1297T
391.187	1.601	398960	WORD	n/a	wordpools/wordpool_EN.txt	BENCH	5	3	[0, 0, 0]	n/a	FR1	1	R1297T
392.788	0.917	400561	WORD_OFF	n/a	n/a	BENCH	5	3	[0, 0, 0]	n/a	FR1	1	R1297T
393.705	1.616	401478	WORD	n/a	wordpools/wordpool_EN.txt	LOCK	6	3	[0, 0, 0]	n/a	FR1	1	R1297T
395.321	0.85	403094	WORD_OFF	n/a	n/a	LOCK	6	3	[0, 0, 0]	n/a	FR1	1	R1297T
396.171	1.618	403944	WORD	n/a	wordpools/wordpool_EN.txt	WALL	7	3	[0, 0, 0]	n/a	FR1	1	R1297T
397.789	0.766	405562	WORD_OFF	n/a	n/a	WALL	7	3	[0, 0, 0]	n/a	FR1	1	R1297T
398.555	1.617	406328	WORD	n/a	wordpools/wordpool_EN.txt	CLOTH	8	3	[0, 0, 0]	n/a	FR1	1	R1297T
400.172	0.817	407945	WORD_OFF	n/a	n/a	CLOTH	8	3	[0, 0, 0]	n/a	FR1	1	R1297T
400.989	1.617	408762	WORD	n/a	wordpools/wordpool_EN.txt	BOARD	9	3	[0, 0, 0]	n/a	FR1	1	R1297T
402.606	0.983	410378	WORD_OFF	n/a	n/a	BOARD	9	3	[0, 0, 0]	n/a	FR1	1	R1297T
403.589	1.617	411361	WORD	n/a	wordpools/wordpool_EN.txt	NAIL	10	3	[0, 0, 0]	n/a	FR1	1	R1297T
405.206	0.901	412978	WORD_OFF	n/a	n/a	NAIL	10	3	[0, 0, 0]	n/a	FR1	1	R1297T
406.107	1.618	413879	WORD	n/a	wordpools/wordpool_EN.txt	WHALE	11	3	[0, 0, 0]	n/a	FR1	1	R1297T
407.725	0.983	415497	WORD_OFF	n/a	n/a	WHALE	11	3	[0, 0, 0]	n/a	FR1	1	R1297T
408.708	1.616	416480	WORD	n/a	wordpools/wordpool_EN.txt	SCHOOL	12	3	[0, 0, 0]	n/a	FR1	1	R1297T
410.324	0.0	418096	WORD_OFF	n/a	n/a	SCHOOL	12	3	[0, 0, 0]	n/a	FR1	1	R1297T
410.324	0.001	418096	DISTRACT_START	n/a	n/a	n/a	-999	3	[0, 0, 0]	n/a	FR1	1	R1297T
410.325	0.016	418097	START	n/a	n/a	n/a	-999	3	[-999, -999, -999]	n/a	FR1	1	R1297T
410.341	2.767	418113	PROB	2.767	n/a	n/a	-999	3	[1, 3, 4]	8	FR1	1	R1297T
413.108	2.067	420880	PROB	2.067	n/a	n/a	-999	3	[5, 5, 1]	11	FR1	1	R1297T
415.175	4.101	422947	PROB	4.101	n/a	n/a	-999	3	[3, 7, 9]	19	FR1	1	R1297T
419.276	3.884	427047	PROB	3.884	n/a	n/a	-999	3	[5, 8, 9]	22	FR1	1	R1297T
423.16	3.267	430931	PROB	3.267	n/a	n/a	-999	3	[6, 2, 6]	14	FR1	1	R1297T
426.427	1.667	434198	PROB	1.667	n/a	n/a	-999	3	[2, 5, 5]	12	FR1	1	R1297T
428.094	2.134	435865	PROB	2.134	n/a	n/a	-999	3	[8, 9, 1]	18	FR1	1	R1297T
430.228	2.685	437999	PROB	2.685	n/a	n/a	-999	3	[4, 9, 4]	17	FR1	1	R1297T
432.913	0.015	440684	STOP	n/a	n/a	n/a	-999	3	[-999, -999, -999]	n/a	FR1	1	R1297T
432.928	0.584	440699	DISTRACT_END	n/a	n/a	n/a	-999	3	[0, 0, 0]	n/a	FR1	1	R1297T
433.512	0.517	441283	RETRIEVAL_ORIENT	n/a	n/a	n/a	-999	3	[0, 0, 0]	n/a	FR1	1	R1297T
434.029	1.363	441800	REC_START	n/a	n/a	n/a	-999	3	[0, 0, 0]	n/a	FR1	1	R1297T
435.392	1.227	443162	REC_WORD	1.227	n/a	SCHOOL	-999	3	[0, 0, 0]	n/a	FR1	1	R1297T
436.619	1.076	444389	REC_WORD	1.076	n/a	BOARD	-999	3	[0, 0, 0]	n/a	FR1	1	R1297T
437.695	1.316	445465	REC_WORD	1.316	n/a	WALL	-999	3	[0, 0, 0]	n/a	FR1	1	R1297T
439.011	4.252	446781	REC_WORD	4.252	n/a	NAIL	-999	3	[0, 0, 0]	n/a	FR1	1	R1297T
443.263	0.915	451033	REC_WORD	0.915	n/a	HORN	-999	3	[0, 0, 0]	n/a	FR1	1	R1297T
444.178	19.862	451948	REC_WORD	19.862	n/a	FOG	-999	3	[0, 0, 0]	n/a	FR1	1	R1297T
464.04	6.345	471809	REC_END	n/a	n/a	n/a	-999	3	[0, 0, 0]	n/a	FR1	1	R1297T
470.385	0.5	478153	TRIAL	n/a	n/a	n/a	-999	4	[0, 0, 0]	n/a	FR1	1	R1297T
470.885	10.428	478653	COUNTDOWN_START	n/a	n/a	n/a	-999	4	[0, 0, 0]	n/a	FR1	1	R1297T
481.313	0.007	489081	COUNTDOWN_END	n/a	n/a	n/a	-999	4	[0, 0, 0]	n/a	FR1	1	R1297T
481.32	1.601	489088	ORIENT	n/a	n/a	n/a	-999	4	[0, 0, 0]	n/a	FR1	1	R1297T
482.921	2.267	490689	ORIENT_OFF	n/a	n/a	n/a	-999	4	[0, 0, 0]	n/a	FR1	1	R1297T
485.188	1.618	492956	WORD	n/a	wordpools/wordpool_EN.txt	HOSE	1	4	[0, 0, 0]	n/a	FR1	1	R1297T
486.806	0.883	494573	WORD_OFF	n/a	n/a	HOSE	1	4	[0, 0, 0]	n/a	FR1	1	R1297T
487.689	1.616	495456	WORD	n/a	wordpools/wordpool_EN.txt	JAR	2	4	[0, 0, 0]	n/a	FR1	1	R1297T
489.305	1.0	497072	WORD_OFF	n/a	n/a	JAR	2	4	[0, 0, 0]	n/a	FR1	1	R1297T
490.305	1.617	498072	WORD	n/a	wordpools/wordpool_EN.txt	INK	3	4	[0, 0, 0]	n/a	FR1	1	R1297T
491.922	0.801	499689	WORD_OFF	n/a	n/a	INK	3	4	[0, 0, 0]	n/a	FR1	1	R1297T
492.723	1.616	500490	WORD	n/a	wordpools/wordpool_EN.txt	FLEA	4	4	[0, 0, 0]	n/a	FR1	1	R1297T
494.339	0.8	502106	WORD_OFF	n/a	n/a	FLEA	4	4	[0, 0, 0]	n/a	FR1	1	R1297T
495.139	1.618	502906	WORD	n/a	wordpools/wordpool_EN.txt	STRING	5	4	[0, 0, 0]	n/a	FR1	1	R1297T
496.757	1.0	504524	WORD_OFF	n/a	n/a	STRING	5	4	[0, 0, 0]	n/a	FR1	1	R1297T
497.757	1.616	505524	WORD	n/a	wordpools/wordpool_EN.txt	TEETH	6	4	[0, 0, 0]	n/a	FR1	1	R1297T
499.373	0.901	507140	WORD_OFF	n/a	n/a	TEETH	6	4	[0, 0, 0]	n/a	FR1	1	R1297T
500.274	1.618	508041	WORD	n/a	wordpools/wordpool_EN.txt	WOOD	7	4	[0, 0, 0]	n/a	FR1	1	R1297T
501.892	1.0	509659	WORD_OFF	n/a	n/a	WOOD	7	4	[0, 0, 0]	n/a	FR1	1	R1297T
502.892	1.616	510658	WORD	n/a	wordpools/wordpool_EN.txt	CLOCK	8	4	[0, 0, 0]	n/a	FR1	1	R1297T
504.508	0.783	512274	WORD_OFF	n/a	n/a	CLOCK	8	4	[0, 0, 0]	n/a	FR1	1	R1297T
505.291	1.618	513057	WORD	n/a	wordpools/wordpool_EN.txt	WAND	9	4	[0, 0, 0]	n/a	FR1	1	R1297T
506.909	0.917	514675	WORD_OFF	n/a	n/a	WAND	9	4	[0, 0, 0]	n/a	FR1	1	R1297T
507.826	1.616	515592	WORD	n/a	wordpools/wordpool_EN.txt	CLOUD	10	4	[0, 0, 0]	n/a	FR1	1	R1297T
509.442	1.017	517208	WORD_OFF	n/a	n/a	CLOUD	10	4	[0, 0, 0]	n/a	FR1	1	R1297T
510.459	1.617	518225	WORD	n/a	wordpools/wordpool_EN.txt	FLOOR	11	4	[0, 0, 0]	n/a	FR1	1	R1297T
512.076	0.834	519842	WORD_OFF	n/a	n/a	FLOOR	11	4	[0, 0, 0]	n/a	FR1	1	R1297T
512.91	1.616	520676	WORD	n/a	wordpools/wordpool_EN.txt	DITCH	12	4	[0, 0, 0]	n/a	FR1	1	R1297T
514.526	0.0	522292	DISTRACT_START	n/a	n/a	n/a	-999	4	[0, 0, 0]	n/a	FR1	1	R1297T
514.526	0.001	522292	WORD_OFF	n/a	n/a	DITCH	12	4	[0, 0, 0]	n/a	FR1	1	R1297T
514.527	0.016	522293	START	n/a	n/a	n/a	-999	4	[-999, -999, -999]	n/a	FR1	1	R1297T
514.543	3.034	522309	PROB	3.034	n/a	n/a	-999	4	[2, 5, 4]	11	FR1	1	R1297T
517.577	1.867	525343	PROB	1.867	n/a	n/a	-999	4	[6, 4, 6]	14	FR1	1	R1297T
519.444	3.65	527209	PROB	3.65	n/a	n/a	-999	4	[4, 2, 9]	17	FR1	1	R1297T
523.094	4.951	530859	PROB	4.951	n/a	n/a	-999	4	[4, 2, 5]	11	FR1	1	R1297T
528.045	4.935	535810	PROB	4.935	n/a	n/a	-999	4	[5, 3, 6]	14	FR1	1	R1297T
532.98	4.83	540745	PROB	4.83	n/a	n/a	-999	4	[6, 5, 9]	20	FR1	1	R1297T
537.81	0.022	545574	STOP	n/a	n/a	n/a	-999	4	[-999, -999, -999]	n/a	FR1	1	R1297T
537.832	0.615	545596	DISTRACT_END	n/a	n/a	n/a	-999	4	[0, 0, 0]	n/a	FR1	1	R1297T
538.447	0.518	546211	RETRIEVAL_ORIENT	n/a	n/a	n/a	-999	4	[0, 0, 0]	n/a	FR1	1	R1297T
538.965	2.007	546729	REC_START	n/a	n/a	n/a	-999	4	[0, 0, 0]	n/a	FR1	1	R1297T
540.972	0.561	548736	REC_WORD	0.561	n/a	HOSE	-999	4	[0, 0, 0]	n/a	FR1	1	R1297T
541.533	1.141	549297	REC_WORD	1.141	n/a	FLOOR	-999	4	[0, 0, 0]	n/a	FR1	1	R1297T
542.674	3.048	550438	REC_WORD	3.048	n/a	CLOUD	-999	4	[0, 0, 0]	n/a	FR1	1	R1297T
545.722	23.253	553486	REC_WORD	23.253	n/a	WAND	-999	4	[0, 0, 0]	n/a	FR1	1	R1297T
568.975	7.279	576737	REC_END	n/a	n/a	n/a	-999	4	[0, 0, 0]	n/a	FR1	1	R1297T
576.254	0.5	584016	TRIAL	n/a	n/a	n/a	-999	5	[0, 0, 0]	n/a	FR1	1	R1297T
576.754	10.428	584516	COUNTDOWN_START	n/a	n/a	n/a	-999	5	[0, 0, 0]	n/a	FR1	1	R1297T
587.182	0.007	594943	COUNTDOWN_END	n/a	n/a	n/a	-999	5	[0, 0, 0]	n/a	FR1	1	R1297T
587.189	1.618	594950	ORIENT	n/a	n/a	n/a	-999	5	[0, 0, 0]	n/a	FR1	1	R1297T
588.807	2.3	596568	ORIENT_OFF	n/a	n/a	n/a	-999	5	[0, 0, 0]	n/a	FR1	1	R1297T
591.107	1.618	598868	WORD	n/a	wordpools/wordpool_EN.txt	KEY	1	5	[0, 0, 0]	n/a	FR1	1	R1297T
592.725	0.782	600486	WORD_OFF	n/a	n/a	KEY	1	5	[0, 0, 0]	n/a	FR1	1	R1297T
593.507	1.617	601268	WORD	n/a	wordpools/wordpool_EN.txt	VAN	2	5	[0, 0, 0]	n/a	FR1	1	R1297T
595.124	0.917	602885	WORD_OFF	n/a	n/a	VAN	2	5	[0, 0, 0]	n/a	FR1	1	R1297T
596.041	1.617	603802	WORD	n/a	wordpools/wordpool_EN.txt	SNAKE	3	5	[0, 0, 0]	n/a	FR1	1	R1297T
597.658	0.95	605419	WORD_OFF	n/a	n/a	SNAKE	3	5	[0, 0, 0]	n/a	FR1	1	R1297T
598.608	1.617	606369	WORD	n/a	wordpools/wordpool_EN.txt	PEN	4	5	[0, 0, 0]	n/a	FR1	1	R1297T
600.225	0.834	607986	WORD_OFF	n/a	n/a	PEN	4	5	[0, 0, 0]	n/a	FR1	1	R1297T
601.059	1.618	608820	WORD	n/a	wordpools/wordpool_EN.txt	HAWK	5	5	[0, 0, 0]	n/a	FR1	1	R1297T
602.677	0.882	610437	WORD_OFF	n/a	n/a	HAWK	5	5	[0, 0, 0]	n/a	FR1	1	R1297T
603.559	1.617	611319	WORD	n/a	wordpools/wordpool_EN.txt	HORSE	6	5	[0, 0, 0]	n/a	FR1	1	R1297T
605.176	0.934	612936	WORD_OFF	n/a	n/a	HORSE	6	5	[0, 0, 0]	n/a	FR1	1	R1297T
606.11	1.618	613870	WORD	n/a	wordpools/wordpool_EN.txt	DEER	7	5	[0, 0, 0]	n/a	FR1	1	R1297T
607.728	0.899	615488	WORD_OFF	n/a	n/a	DEER	7	5	[0, 0, 0]	n/a	FR1	1	R1297T
608.627	1.617	616387	WORD	n/a	wordpools/wordpool_EN.txt	WORLD	8	5	[0, 0, 0]	n/a	FR1	1	R1297T
610.244	0.766	618004	WORD_OFF	n/a	n/a	WORLD	8	5	[0, 0, 0]	n/a	FR1	1	R1297T
611.01	1.617	618770	WORD	n/a	wordpools/wordpool_EN.txt	COW	9	5	[0, 0, 0]	n/a	FR1	1	R1297T
612.627	0.801	620387	WORD_OFF	n/a	n/a	COW	9	5	[0, 0, 0]	n/a	FR1	1	R1297T
613.428	1.617	621188	WORD	n/a	wordpools/wordpool_EN.txt	MAP	10	5	[0, 0, 0]	n/a	FR1	1	R1297T
615.045	0.983	622805	WORD_OFF	n/a	n/a	MAP	10	5	[0, 0, 0]	n/a	FR1	1	R1297T
616.028	1.617	623788	WORD	n/a	wordpools/wordpool_EN.txt	BLOOM	11	5	[0, 0, 0]	n/a	FR1	1	R1297T
617.645	0.9	625405	WORD_OFF	n/a	n/a	BLOOM	11	5	[0, 0, 0]	n/a	FR1	1	R1297T
618.545	1.617	626305	WORD	n/a	wordpools/wordpool_EN.txt	SPOON	12	5	[0, 0, 0]	n/a	FR1	1	R1297T
620.162	0.0	627921	WORD_OFF	n/a	n/a	SPOON	12	5	[0, 0, 0]	n/a	FR1	1	R1297T
620.162	0.001	627921	DISTRACT_START	n/a	n/a	n/a	-999	5	[0, 0, 0]	n/a	FR1	1	R1297T
620.163	0.016	627922	START	n/a	n/a	n/a	-999	5	[-999, -999, -999]	n/a	FR1	1	R1297T
620.179	12.62	627938	PROB	12.62	n/a	n/a	-999	5	[7, 6, 9]	22	FR1	1	R1297T
632.799	5.001	640558	PROB	5.001	n/a	n/a	-999	5	[5, 6, 3]	14	FR1	1	R1297T
637.8	2.216	645558	PROB	2.216	n/a	n/a	-999	5	[5, 9, 1]	15	FR1	1	R1297T
640.016	4.273	647774	PROB	4.273	n/a	n/a	-999	5	[4, 4, 7]	15	FR1	1	R1297T
644.289	0.011	652047	STOP	n/a	n/a	n/a	-999	5	[-999, -999, -999]	n/a	FR1	1	R1297T
644.3	0.667	652058	DISTRACT_END	n/a	n/a	n/a	-999	5	[0, 0, 0]	n/a	FR1	1	R1297T
644.967	0.517	652725	RETRIEVAL_ORIENT	n/a	n/a	n/a	-999	5	[0, 0, 0]	n/a	FR1	1	R1297T
645.484	1.007	653242	REC_START	n/a	n/a	n/a	-999	5	[0, 0, 0]	n/a	FR1	1	R1297T
646.491	0.601	654249	REC_WORD	0.601	n/a	MAP	-999	5	[0, 0, 0]	n/a	FR1	1	R1297T
647.092	0.782	654850	REC_WORD	0.782	n/a	WORLD	-999	5	[0, 0, 0]	n/a	FR1	1	R1297T
647.874	0.989	655632	REC_WORD	0.989	n/a	BLOOM	-999	5	[0, 0, 0]	n/a	FR1	1	R1297T
648.863	0.62	656621	REC_WORD	0.62	n/a	HAWK	-999	5	[0, 0, 0]	n/a	FR1	1	R1297T
649.483	26.013	657241	REC_WORD	26.013	n/a	SNAKE	-999	5	[0, 0, 0]	n/a	FR1	1	R1297T
675.496	5.295	683252	REC_END	n/a	n/a	n/a	-999	5	[0, 0, 0]	n/a	FR1	1	R1297T
680.791	0.5	688547	TRIAL	n/a	n/a	n/a	-999	6	[0, 0, 0]	n/a	FR1	1	R1297T
681.291	10.428	689047	COUNTDOWN_START	n/a	n/a	n/a	-999	6	[0, 0, 0]	n/a	FR1	1	R1297T
691.719	0.007	699474	COUNTDOWN_END	n/a	n/a	n/a	-999	6	[0, 0, 0]	n/a	FR1	1	R1297T
691.726	1.616	699481	ORIENT	n/a	n/a	n/a	-999	6	[0, 0, 0]	n/a	FR1	1	R1297T
693.342	2.051	701097	ORIENT_OFF	n/a	n/a	n/a	-999	6	[0, 0, 0]	n/a	FR1	1	R1297T
695.393	1.617	703148	WORD	n/a	wordpools/wordpool_EN.txt	BAND	1	6	[0, 0, 0]	n/a	FR1	1	R1297T
697.01	0.933	704765	WORD_OFF	n/a	n/a	BAND	1	6	[0, 0, 0]	n/a	FR1	1	R1297T
697.943	1.617	705698	WORD	n/a	wordpools/wordpool_EN.txt	YARD	2	6	[0, 0, 0]	n/a	FR1	1	R1297T
699.56	1.0	707315	WORD_OFF	n/a	n/a	YARD	2	6	[0, 0, 0]	n/a	FR1	1	R1297T
700.56	1.617	708315	WORD	n/a	wordpools/wordpool_EN.txt	ELF	3	6	[0, 0, 0]	n/a	FR1	1	R1297T
702.177	0.784	709931	WORD_OFF	n/a	n/a	ELF	3	6	[0, 0, 0]	n/a	FR1	1	R1297T
702.961	1.617	710715	WORD	n/a	wordpools/wordpool_EN.txt	PANTS	4	6	[0, 0, 0]	n/a	FR1	1	R1297T
704.578	0.833	712332	WORD_OFF	n/a	n/a	PANTS	4	6	[0, 0, 0]	n/a	FR1	1	R1297T
705.411	1.617	713165	WORD	n/a	wordpools/wordpool_EN.txt	SHIELD	5	6	[0, 0, 0]	n/a	FR1	1	R1297T
707.028	0.868	714782	WORD_OFF	n/a	n/a	SHIELD	5	6	[0, 0, 0]	n/a	FR1	1	R1297T
707.896	1.616	715650	WORD	n/a	wordpools/wordpool_EN.txt	CHIN	6	6	[0, 0, 0]	n/a	FR1	1	R1297T
709.512	0.983	717266	WORD_OFF	n/a	n/a	CHIN	6	6	[0, 0, 0]	n/a	FR1	1	R1297T
710.495	1.617	718249	WORD	n/a	wordpools/wordpool_EN.txt	DRESS	7	6	[0, 0, 0]	n/a	FR1	1	R1297T
712.112	0.785	719866	WORD_OFF	n/a	n/a	DRESS	7	6	[0, 0, 0]	n/a	FR1	1	R1297T
712.897	1.616	720651	WORD	n/a	wordpools/wordpool_EN.txt	STONE	8	6	[0, 0, 0]	n/a	FR1	1	R1297T
714.513	0.783	722267	WORD_OFF	n/a	n/a	STONE	8	6	[0, 0, 0]	n/a	FR1	1	R1297T
715.296	1.618	723050	WORD	n/a	wordpools/wordpool_EN.txt	STICK	9	6	[0, 0, 0]	n/a	FR1	1	R1297T
716.914	0.867	724668	WORD_OFF	n/a	n/a	STICK	9	6	[0, 0, 0]	n/a	FR1	1	R1297T
717.781	1.616	725535	WORD	n/a	wordpools/wordpool_EN.txt	OAK	10	6	[0, 0, 0]	n/a	FR1	1	R1297T
719.397	0.8	727150	WORD_OFF	n/a	n/a	OAK	10	6	[0, 0, 0]	n/a	FR1	1	R1297T
720.197	1.618	727950	WORD	n/a	wordpools/wordpool_EN.txt	DESK	11	6	[0, 0, 0]	n/a	FR1	1	R1297T
721.815	0.933	729568	WORD_OFF	n/a	n/a	DESK	11	6	[0, 0, 0]	n/a	FR1	1	R1297T
722.748	1.616	730501	WORD	n/a	wordpools/wordpool_EN.txt	LEG	12	6	[0, 0, 0]	n/a	FR1	1	R1297T
724.364	0.0	732117	DISTRACT_START	n/a	n/a	n/a	-999	6	[0, 0, 0]	n/a	FR1	1	R1297T
724.364	0.001	732117	WORD_OFF	n/a	n/a	LEG	12	6	[0, 0, 0]	n/a	FR1	1	R1297T
724.365	0.016	732118	START	n/a	n/a	n/a	-999	6	[-999, -999, -999]	n/a	FR1	1	R1297T
724.381	4.284	732134	PROB	4.284	n/a	n/a	-999	6	[9, 9, 1]	20	FR1	1	R1297T
728.665	6.435	736418	PROB	6.435	n/a	n/a	-999	6	[3, 4, 8]	15	FR1	1	R1297T
735.1	3.2	742853	PROB	3.2	n/a	n/a	-999	6	[3, 5, 2]	10	FR1	1	R1297T
738.3	1.585	746052	PROB	1.585	n/a	n/a	-999	6	[4, 4, 4]	12	FR1	1	R1297T
739.885	2.216	747637	PROB	2.216	n/a	n/a	-999	6	[4, 5, 3]	12	FR1	1	R1297T
742.101	3.716	749853	PROB	3.716	n/a	n/a	-999	6	[4, 8, 7]	19	FR1	1	R1297T
745.817	0.019	753569	STOP	n/a	n/a	n/a	-999	6	[-999, -999, -999]	n/a	FR1	1	R1297T
745.836	0.566	753588	DISTRACT_END	n/a	n/a	n/a	-999	6	[0, 0, 0]	n/a	FR1	1	R1297T
746.402	0.518	754154	RETRIEVAL_ORIENT	n/a	n/a	n/a	-999	6	[0, 0, 0]	n/a	FR1	1	R1297T
746.92	1.383	754672	REC_START	n/a	n/a	n/a	-999	6	[0, 0, 0]	n/a	FR1	1	R1297T
748.303	0.94	756055	REC_WORD	0.94	n/a	LEGS	-999	6	[0, 0, 0]	n/a	FR1	1	R1297T
749.243	6.186	756995	REC_WORD	6.186	n/a	DRESS	-999	6	[0, 0, 0]	n/a	FR1	1	R1297T
755.429	0.752	763180	REC_WORD	0.752	n/a	ELF	-999	6	[0, 0, 0]	n/a	FR1	1	R1297T
756.181	20.756	763932	REC_WORD	20.756	n/a	YARD	-999	6	[0, 0, 0]	n/a	FR1	1	R1297T
776.937	4.488	784687	REC_END	n/a	n/a	n/a	-999	6	[0, 0, 0]	n/a	FR1	1	R1297T
781.425	0.5	789175	TRIAL	n/a	n/a	n/a	-999	7	[0, 0, 0]	n/a	FR1	1	R1297T
781.925	10.428	789675	COUNTDOWN_START	n/a	n/a	n/a	-999	7	[0, 0, 0]	n/a	FR1	1	R1297T
792.353	0.007	800102	COUNTDOWN_END	n/a	n/a	n/a	-999	7	[0, 0, 0]	n/a	FR1	1	R1297T
792.36	1.617	800109	ORIENT	n/a	n/a	n/a	-999	7	[0, 0, 0]	n/a	FR1	1	R1297T
793.977	2.134	801726	ORIENT_OFF	n/a	n/a	n/a	-999	7	[0, 0, 0]	n/a	FR1	1	R1297T
796.111	1.618	803860	WORD	n/a	wordpools/wordpool_EN.txt	SHRIMP	1	7	[0, 0, 0]	n/a	FR1	1	R1297T
797.729	0.849	805478	WORD_OFF	n/a	n/a	SHRIMP	1	7	[0, 0, 0]	n/a	FR1	1	R1297T
798.578	1.617	806327	WORD	n/a	wordpools/wordpool_EN.txt	NEST	2	7	[0, 0, 0]	n/a	FR1	1	R1297T
800.195	0.817	807944	WORD_OFF	n/a	n/a	NEST	2	7	[0, 0, 0]	n/a	FR1	1	R1297T
801.012	1.617	808761	WORD	n/a	wordpools/wordpool_EN.txt	POND	3	7	[0, 0, 0]	n/a	FR1	1	R1297T
802.629	0.999	810377	WORD_OFF	n/a	n/a	POND	3	7	[0, 0, 0]	n/a	FR1	1	R1297T
803.628	1.618	811376	WORD	n/a	wordpools/wordpool_EN.txt	ROCK	4	7	[0, 0, 0]	n/a	FR1	1	R1297T
805.246	0.817	812994	WORD_OFF	n/a	n/a	ROCK	4	7	[0, 0, 0]	n/a	FR1	1	R1297T
806.063	1.617	813811	WORD	n/a	wordpools/wordpool_EN.txt	GOLD	5	7	[0, 0, 0]	n/a	FR1	1	R1297T
807.68	0.966	815428	WORD_OFF	n/a	n/a	GOLD	5	7	[0, 0, 0]	n/a	FR1	1	R1297T
808.646	1.617	816394	WORD	n/a	wordpools/wordpool_EN.txt	CORD	6	7	[0, 0, 0]	n/a	FR1	1	R1297T
810.263	0.901	818011	WORD_OFF	n/a	n/a	CORD	6	7	[0, 0, 0]	n/a	FR1	1	R1297T
811.164	1.617	818912	WORD	n/a	wordpools/wordpool_EN.txt	FILM	7	7	[0, 0, 0]	n/a	FR1	1	R1297T
812.781	1.001	820529	WORD_OFF	n/a	n/a	FILM	7	7	[0, 0, 0]	n/a	FR1	1	R1297T
813.782	1.616	821530	WORD	n/a	wordpools/wordpool_EN.txt	TRASH	8	7	[0, 0, 0]	n/a	FR1	1	R1297T
815.398	0.833	823146	WORD_OFF	n/a	n/a	TRASH	8	7	[0, 0, 0]	n/a	FR1	1	R1297T
816.231	1.601	823979	WORD	n/a	wordpools/wordpool_EN.txt	CHALK	9	7	[0, 0, 0]	n/a	FR1	1	R1297T
817.832	0.934	825580	WORD_OFF	n/a	n/a	CHALK	9	7	[0, 0, 0]	n/a	FR1	1	R1297T
818.766	1.616	826513	WORD	n/a	wordpools/wordpool_EN.txt	MOTH	10	7	[0, 0, 0]	n/a	FR1	1	R1297T
820.382	0.9	828129	WORD_OFF	n/a	n/a	MOTH	10	7	[0, 0, 0]	n/a	FR1	1	R1297T
821.282	1.618	829029	WORD	n/a	wordpools/wordpool_EN.txt	SLUSH	11	7	[0, 0, 0]	n/a	FR1	1	R1297T
822.9	0.8	830647	WORD_OFF	n/a	n/a	SLUSH	11	7	[0, 0, 0]	n/a	FR1	1	R1297T
823.7	1.616	831447	WORD	n/a	wordpools/wordpool_EN.txt	BED	12	7	[0, 0, 0]	n/a	FR1	1	R1297T
825.316	0.0	833063	WORD_OFF	n/a	n/a	BED	12	7	[0, 0, 0]	n/a	FR1	1	R1297T
825.316	0.001	833063	DISTRACT_START	n/a	n/a	n/a	-999	7	[0, 0, 0]	n/a	FR1	1	R1297T
825.317	0.016	833064	START	n/a	n/a	n/a	-999	7	[-999, -999, -999]	n/a	FR1	1	R1297T
825.333	2.984	833080	PROB	2.984	n/a	n/a	-999	7	[2, 1, 2]	5	FR1	1	R1297T
828.317	4.0	836064	PROB	4.0	n/a	n/a	-999	7	[3, 9, 7]	21	FR1	1	R1297T
832.317	2.818	840064	PROB	2.818	n/a	n/a	-999	7	[4, 4, 8]	16	FR1	1	R1297T
835.135	2.483	842882	PROB	2.483	n/a	n/a	-999	7	[3, 1, 2]	6	FR1	1	R1297T
837.618	8.998	845364	PROB	8.998	n/a	n/a	-999	7	[9, 8, 5]	22	FR1	1	R1297T
846.616	0.02	854362	STOP	n/a	n/a	n/a	-999	7	[-999, -999, -999]	n/a	FR1	1	R1297T
846.636	0.6	854382	DISTRACT_END	n/a	n/a	n/a	-999	7	[0, 0, 0]	n/a	FR1	1	R1297T
847.236	0.504	854982	RETRIEVAL_ORIENT	n/a	n/a	n/a	-999	7	[0, 0, 0]	n/a	FR1	1	R1297T
847.74	1.42	855486	REC_START	n/a	n/a	n/a	-999	7	[0, 0, 0]	n/a	FR1	1	R1297T
849.16	0.772	856906	REC_WORD	0.772	n/a	ROCK	-999	7	[0, 0, 0]	n/a	FR1	1	R1297T
849.932	0.654	857678	REC_WORD	0.654	n/a	BED	-999	7	[0, 0, 0]	n/a	FR1	1	R1297T
850.586	1.913	858332	REC_WORD	1.913	n/a	SHRIMP	-999	7	[0, 0, 0]	n/a	FR1	1	R1297T
852.499	18.037	860244	REC_WORD	18.037	n/a	POND	-999	7	[0, 0, 0]	n/a	FR1	1	R1297T
870.536	7.215	878280	REC_WORD	7.215	n/a	TRASH	-999	7	[0, 0, 0]	n/a	FR1	1	R1297T
877.751	7.426	885495	REC_END	n/a	n/a	n/a	-999	7	[0, 0, 0]	n/a	FR1	1	R1297T
885.177	0.5	892921	TRIAL	n/a	n/a	n/a	-999	8	[0, 0, 0]	n/a	FR1	1	R1297T
885.677	10.428	893420	COUNTDOWN_START	n/a	n/a	n/a	-999	8	[0, 0, 0]	n/a	FR1	1	R1297T
896.105	0.007	903848	COUNTDOWN_END	n/a	n/a	n/a	-999	8	[0, 0, 0]	n/a	FR1	1	R1297T
896.112	1.601	903855	ORIENT	n/a	n/a	n/a	-999	8	[0, 0, 0]	n/a	FR1	1	R1297T
897.713	1.9	905456	ORIENT_OFF	n/a	n/a	n/a	-999	8	[0, 0, 0]	n/a	FR1	1	R1297T
899.613	1.617	907356	WORD	n/a	wordpools/wordpool_EN.txt	CAKE	1	8	[0, 0, 0]	n/a	FR1	1	R1297T
901.23	0.833	908973	WORD_OFF	n/a	n/a	CAKE	1	8	[0, 0, 0]	n/a	FR1	1	R1297T
902.063	1.618	909805	WORD	n/a	wordpools/wordpool_EN.txt	FUR	2	8	[0, 0, 0]	n/a	FR1	1	R1297T
903.681	0.799	911423	WORD_OFF	n/a	n/a	FUR	2	8	[0, 0, 0]	n/a	FR1	1	R1297T
904.48	1.617	912222	WORD	n/a	wordpools/wordpool_EN.txt	DOOR	3	8	[0, 0, 0]	n/a	FR1	1	R1297T
906.097	0.917	913839	WORD_OFF	n/a	n/a	DOOR	3	8	[0, 0, 0]	n/a	FR1	1	R1297T
907.014	1.617	914756	WORD	n/a	wordpools/wordpool_EN.txt	EAR	4	8	[0, 0, 0]	n/a	FR1	1	R1297T
908.631	0.85	916373	WORD_OFF	n/a	n/a	EAR	4	8	[0, 0, 0]	n/a	FR1	1	R1297T
909.481	1.617	917223	WORD	n/a	wordpools/wordpool_EN.txt	POLE	5	8	[0, 0, 0]	n/a	FR1	1	R1297T
911.098	0.834	918840	WORD_OFF	n/a	n/a	POLE	5	8	[0, 0, 0]	n/a	FR1	1	R1297T
911.932	1.617	919674	WORD	n/a	wordpools/wordpool_EN.txt	CHAIR	6	8	[0, 0, 0]	n/a	FR1	1	R1297T
913.549	0.883	921291	WORD_OFF	n/a	n/a	CHAIR	6	8	[0, 0, 0]	n/a	FR1	1	R1297T
914.432	1.617	922174	WORD	n/a	wordpools/wordpool_EN.txt	EGG	7	8	[0, 0, 0]	n/a	FR1	1	R1297T
916.049	1.0	923791	WORD_OFF	n/a	n/a	EGG	7	8	[0, 0, 0]	n/a	FR1	1	R1297T
917.049	1.617	924791	WORD	n/a	wordpools/wordpool_EN.txt	SHOE	8	8	[0, 0, 0]	n/a	FR1	1	R1297T
918.666	0.834	926407	WORD_OFF	n/a	n/a	SHOE	8	8	[0, 0, 0]	n/a	FR1	1	R1297T
919.5	1.617	927241	WORD	n/a	wordpools/wordpool_EN.txt	WOLF	9	8	[0, 0, 0]	n/a	FR1	1	R1297T
921.117	0.95	928858	WORD_OFF	n/a	n/a	WOLF	9	8	[0, 0, 0]	n/a	FR1	1	R1297T
922.067	1.618	929808	WORD	n/a	wordpools/wordpool_EN.txt	CLIFF	10	8	[0, 0, 0]	n/a	FR1	1	R1297T
923.685	0.949	931426	WORD_OFF	n/a	n/a	CLIFF	10	8	[0, 0, 0]	n/a	FR1	1	R1297T
924.634	1.617	932375	WORD	n/a	wordpools/wordpool_EN.txt	OAR	11	8	[0, 0, 0]	n/a	FR1	1	R1297T
926.251	0.967	933992	WORD_OFF	n/a	n/a	OAR	11	8	[0, 0, 0]	n/a	FR1	1	R1297T
927.218	1.618	934959	WORD	n/a	wordpools/wordpool_EN.txt	STREET	12	8	[0, 0, 0]	n/a	FR1	1	R1297T
928.836	0.0	936577	WORD_OFF	n/a	n/a	STREET	12	8	[0, 0, 0]	n/a	FR1	1	R1297T
928.836	0.001	936577	DISTRACT_START	n/a	n/a	n/a	-999	8	[0, 0, 0]	n/a	FR1	1	R1297T
928.837	0.016	936578	START	n/a	n/a	n/a	-999	8	[-999, -999, -999]	n/a	FR1	1	R1297T
928.853	6.733	936594	PROB	6.733	n/a	n/a	-999	8	[6, 8, 1]	16	FR1	1	R1297T
935.586	6.286	943326	PROB	6.286	n/a	n/a	-999	8	[9, 1, 9]	19	FR1	1	R1297T
941.872	5.45	949612	PROB	5.45	n/a	n/a	-999	8	[3, 9, 6]	18	FR1	1	R1297T
947.322	2.871	955062	PROB	2.871	n/a	n/a	-999	8	[1, 5, 4]	10	FR1	1	R1297T
950.193	0.012	957933	STOP	n/a	n/a	n/a	-999	8	[-999, -999, -999]	n/a	FR1	1	R1297T
950.205	0.717	957945	DISTRACT_END	n/a	n/a	n/a	-999	8	[0, 0, 0]	n/a	FR1	1	R1297T
950.922	0.518	958662	RETRIEVAL_ORIENT	n/a	n/a	n/a	-999	8	[0, 0, 0]	n/a	FR1	1	R1297T
951.44	1.499	959180	REC_START	n/a	n/a	n/a	-999	8	[0, 0, 0]	n/a	FR1	1	R1297T
952.939	28.513	960678	REC_WORD	28.513	n/a	OAR	-999	8	[0, 0, 0]	n/a	FR1	1	R1297T
981.452	5.96	989190	REC_END	n/a	n/a	n/a	-999	8	[0, 0, 0]	n/a	FR1	1	R1297T
987.412	0.5	995149	TRIAL	n/a	n/a	n/a	-999	9	[0, 0, 0]	n/a	FR1	1	R1297T
987.912	10.428	995649	COUNTDOWN_START	n/a	n/a	n/a	-999	9	[0, 0, 0]	n/a	FR1	1	R1297T
998.34	0.007	1006077	COUNTDOWN_END	n/a	n/a	n/a	-999	9	[0, 0, 0]	n/a	FR1	1	R1297T
998.347	1.617	1006084	ORIENT	n/a	n/a	n/a	-999	9	[0, 0, 0]	n/a	FR1	1	R1297T
999.964	1.835	1007701	ORIENT_OFF	n/a	n/a	n/a	-999	9	[0, 0, 0]	n/a	FR1	1	R1297T
1001.799	1.616	1009536	WORD	n/a	wordpools/wordpool_EN.txt	BUSH	1	9	[0, 0, 0]	n/a	FR1	1	R1297T
1003.415	0.85	1011151	WORD_OFF	n/a	n/a	BUSH	1	9	[0, 0, 0]	n/a	FR1	1	R1297T
1004.265	1.601	1012001	WORD	n/a	wordpools/wordpool_EN.txt	GUARD	2	9	[0, 0, 0]	n/a	FR1	1	R1297T
1005.866	0.884	1013602	WORD_OFF	n/a	n/a	GUARD	2	9	[0, 0, 0]	n/a	FR1	1	R1297T
1006.75	1.616	1014486	WORD	n/a	wordpools/wordpool_EN.txt	FRUIT	3	9	[0, 0, 0]	n/a	FR1	1	R1297T
1008.366	0.883	1016102	WORD_OFF	n/a	n/a	FRUIT	3	9	[0, 0, 0]	n/a	FR1	1	R1297T
1009.249	1.618	1016985	WORD	n/a	wordpools/wordpool_EN.txt	ROSE	4	9	[0, 0, 0]	n/a	FR1	1	R1297T
1010.867	1.001	1018603	WORD_OFF	n/a	n/a	ROSE	4	9	[0, 0, 0]	n/a	FR1	1	R1297T
1011.868	1.616	1019604	WORD	n/a	wordpools/wordpool_EN.txt	BOX	5	9	[0, 0, 0]	n/a	FR1	1	R1297T
1013.484	0.883	1021220	WORD_OFF	n/a	n/a	BOX	5	9	[0, 0, 0]	n/a	FR1	1	R1297T
1014.367	1.617	1022103	WORD	n/a	wordpools/wordpool_EN.txt	FLAME	6	9	[0, 0, 0]	n/a	FR1	1	R1297T
1015.984	0.983	1023720	WORD_OFF	n/a	n/a	FLAME	6	9	[0, 0, 0]	n/a	FR1	1	R1297T
1016.967	1.617	1024703	WORD	n/a	wordpools/wordpool_EN.txt	SPRING	7	9	[0, 0, 0]	n/a	FR1	1	R1297T
1018.584	0.851	1026319	WORD_OFF	n/a	n/a	SPRING	7	9	[0, 0, 0]	n/a	FR1	1	R1297T
1019.435	1.617	1027170	WORD	n/a	wordpools/wordpool_EN.txt	FACE	8	9	[0, 0, 0]	n/a	FR1	1	R1297T
1021.052	1.016	1028787	WORD_OFF	n/a	n/a	FACE	8	9	[0, 0, 0]	n/a	FR1	1	R1297T
1022.068	1.618	1029803	WORD	n/a	wordpools/wordpool_EN.txt	MOOSE	9	9	[0, 0, 0]	n/a	FR1	1	R1297T
1023.686	1.017	1031421	WORD_OFF	n/a	n/a	MOOSE	9	9	[0, 0, 0]	n/a	FR1	1	R1297T
1024.703	1.616	1032438	WORD	n/a	wordpools/wordpool_EN.txt	COUCH	10	9	[0, 0, 0]	n/a	FR1	1	R1297T
1026.319	0.834	1034054	WORD_OFF	n/a	n/a	COUCH	10	9	[0, 0, 0]	n/a	FR1	1	R1297T
1027.153	1.618	1034888	WORD	n/a	wordpools/wordpool_EN.txt	PURSE	11	9	[0, 0, 0]	n/a	FR1	1	R1297T
1028.771	0.882	1036506	WORD_OFF	n/a	n/a	PURSE	11	9	[0, 0, 0]	n/a	FR1	1	R1297T
1029.653	1.617	1037388	WORD	n/a	wordpools/wordpool_EN.txt	PHONE	12	9	[0, 0, 0]	n/a	FR1	1	R1297T
1031.27	0.0	1039005	WORD_OFF	n/a	n/a	PHONE	12	9	[0, 0, 0]	n/a	FR1	1	R1297T
1031.27	0.001	1039005	DISTRACT_START	n/a	n/a	n/a	-999	9	[0, 0, 0]	n/a	FR1	1	R1297T
1031.271	0.016	1039006	START	n/a	n/a	n/a	-999	9	[-999, -999, -999]	n/a	FR1	1	R1297T
1031.287	5.435	1039022	PROB	5.435	n/a	n/a	-999	9	[5, 4, 9]	18	FR1	1	R1297T
1036.722	5.25	1044456	PROB	5.25	n/a	n/a	-999	9	[7, 4, 5]	16	FR1	1	R1297T
1041.972	4.351	1049706	PROB	4.351	n/a	n/a	-999	9	[3, 4, 1]	8	FR1	1	R1297T
1046.323	3.817	1054057	PROB	3.817	n/a	n/a	-999	9	[6, 3, 6]	15	FR1	1	R1297T
1050.14	4.646	1057874	PROB	4.646	n/a	n/a	-999	9	[3, 8, 3]	14	FR1	1	R1297T
1054.786	0.006	1062519	STOP	n/a	n/a	n/a	-999	9	[-999, -999, -999]	n/a	FR1	1	R1297T
1054.792	0.682	1062525	DISTRACT_END	n/a	n/a	n/a	-999	9	[0, 0, 0]	n/a	FR1	1	R1297T
1055.474	0.518	1063207	RETRIEVAL_ORIENT	n/a	n/a	n/a	-999	9	[0, 0, 0]	n/a	FR1	1	R1297T
1055.992	3.907	1063725	REC_START	n/a	n/a	n/a	-999	9	[0, 0, 0]	n/a	FR1	1	R1297T
1059.899	4.287	1067632	REC_WORD_VV	4.287	n/a	<>	-999	9	[0, 0, 0]	n/a	FR1	1	R1297T
1064.186	13.609	1071919	REC_WORD	13.609	n/a	FLAME	-999	9	[0, 0, 0]	n/a	FR1	1	R1297T
1077.795	8.209	1085527	REC_WORD	8.209	n/a	COUCH	-999	9	[0, 0, 0]	n/a	FR1	1	R1297T
1086.004	220.834	1093735	REC_END	n/a	n/a	n/a	-999	9	[0, 0, 0]	n/a	FR1	1	R1297T
1306.838	0.5	1314556	TRIAL	n/a	n/a	n/a	-999	10	[0, 0, 0]	n/a	FR1	1	R1297T
1307.338	10.428	1315056	COUNTDOWN_START	n/a	n/a	n/a	-999	10	[0, 0, 0]	n/a	FR1	1	R1297T
1317.766	0.007	1325484	COUNTDOWN_END	n/a	n/a	n/a	-999	10	[0, 0, 0]	n/a	FR1	1	R1297T
1317.773	1.616	1325491	ORIENT	n/a	n/a	n/a	-999	10	[0, 0, 0]	n/a	FR1	1	R1297T
1319.389	1.967	1327106	ORIENT_OFF	n/a	n/a	n/a	-999	10	[0, 0, 0]	n/a	FR1	1	R1297T
1321.356	1.617	1329073	WORD	n/a	wordpools/wordpool_EN.txt	SMILE	1	10	[0, 0, 0]	n/a	FR1	1	R1297T
1322.973	0.983	1330690	WORD_OFF	n/a	n/a	SMILE	1	10	[0, 0, 0]	n/a	FR1	1	R1297T
1323.956	1.617	1331673	WORD	n/a	wordpools/wordpool_EN.txt	FENCE	2	10	[0, 0, 0]	n/a	FR1	1	R1297T
1325.573	0.884	1333290	WORD_OFF	n/a	n/a	FENCE	2	10	[0, 0, 0]	n/a	FR1	1	R1297T
1326.457	1.617	1334174	WORD	n/a	wordpools/wordpool_EN.txt	TENT	3	10	[0, 0, 0]	n/a	FR1	1	R1297T
1328.074	1.0	1335791	WORD_OFF	n/a	n/a	TENT	3	10	[0, 0, 0]	n/a	FR1	1	R1297T
1329.074	1.618	1336791	WORD	n/a	wordpools/wordpool_EN.txt	SUIT	4	10	[0, 0, 0]	n/a	FR1	1	R1297T
1330.692	0.866	1338409	WORD_OFF	n/a	n/a	SUIT	4	10	[0, 0, 0]	n/a	FR1	1	R1297T
1331.558	1.617	1339275	WORD	n/a	wordpools/wordpool_EN.txt	PIE	5	10	[0, 0, 0]	n/a	FR1	1	R1297T
1333.175	0.8	1340892	WORD_OFF	n/a	n/a	PIE	5	10	[0, 0, 0]	n/a	FR1	1	R1297T
1333.975	1.617	1341692	WORD	n/a	wordpools/wordpool_EN.txt	CHEEK	6	10	[0, 0, 0]	n/a	FR1	1	R1297T
1335.592	0.833	1343308	WORD_OFF	n/a	n/a	CHEEK	6	10	[0, 0, 0]	n/a	FR1	1	R1297T
1336.425	1.617	1344141	WORD	n/a	wordpools/wordpool_EN.txt	RIB	7	10	[0, 0, 0]	n/a	FR1	1	R1297T
1338.042	0.984	1345758	WORD_OFF	n/a	n/a	RIB	7	10	[0, 0, 0]	n/a	FR1	1	R1297T
1339.026	1.617	1346742	WORD	n/a	wordpools/wordpool_EN.txt	BRICK	8	10	[0, 0, 0]	n/a	FR1	1	R1297T
1340.643	0.817	1348359	WORD_OFF	n/a	n/a	BRICK	8	10	[0, 0, 0]	n/a	FR1	1	R1297T
1341.46	1.617	1349176	WORD	n/a	wordpools/wordpool_EN.txt	MUG	9	10	[0, 0, 0]	n/a	FR1	1	R1297T
1343.077	0.801	1350793	WORD_OFF	n/a	n/a	MUG	9	10	[0, 0, 0]	n/a	FR1	1	R1297T
1343.878	1.616	1351594	WORD	n/a	wordpools/wordpool_EN.txt	LAMP	10	10	[0, 0, 0]	n/a	FR1	1	R1297T
1345.494	0.966	1353210	WORD_OFF	n/a	n/a	LAMP	10	10	[0, 0, 0]	n/a	FR1	1	R1297T
1346.46	1.617	1354176	WORD	n/a	wordpools/wordpool_EN.txt	PASTE	11	10	[0, 0, 0]	n/a	FR1	1	R1297T
1348.077	0.951	1355793	WORD_OFF	n/a	n/a	PASTE	11	10	[0, 0, 0]	n/a	FR1	1	R1297T
1349.028	1.617	1356744	WORD	n/a	wordpools/wordpool_EN.txt	PLATE	12	10	[0, 0, 0]	n/a	FR1	1	R1297T
1350.645	0.0	1358361	WORD_OFF	n/a	n/a	PLATE	12	10	[0, 0, 0]	n/a	FR1	1	R1297T
1350.645	0.0	1358361	DISTRACT_START	n/a	n/a	n/a	-999	10	[0, 0, 0]	n/a	FR1	1	R1297T
1350.645	0.016	1358361	START	n/a	n/a	n/a	-999	10	[-999, -999, -999]	n/a	FR1	1	R1297T
1350.661	5.601	1358377	PROB	5.601	n/a	n/a	-999	10	[6, 2, 7]	16	FR1	1	R1297T
1356.262	4.684	1363977	PROB	4.684	n/a	n/a	-999	10	[8, 4, 7]	19	FR1	1	R1297T
1360.946	5.135	1368661	PROB	5.135	n/a	n/a	-999	10	[1, 3, 1]	5	FR1	1	R1297T
1366.081	2.067	1373796	PROB	2.067	n/a	n/a	-999	10	[3, 2, 8]	13	FR1	1	R1297T
1368.148	3.356	1375863	PROB	3.356	n/a	n/a	-999	10	[3, 5, 3]	11	FR1	1	R1297T
1371.504	0.011	1379218	STOP	n/a	n/a	n/a	-999	10	[-999, -999, -999]	n/a	FR1	1	R1297T
1371.515	0.583	1379229	DISTRACT_END	n/a	n/a	n/a	-999	10	[0, 0, 0]	n/a	FR1	1	R1297T
1372.098	0.518	1379812	RETRIEVAL_ORIENT	n/a	n/a	n/a	-999	10	[0, 0, 0]	n/a	FR1	1	R1297T
1372.616	16.396	1380330	REC_START	n/a	n/a	n/a	-999	10	[0, 0, 0]	n/a	FR1	1	R1297T
1389.012	2.853	1396725	REC_WORD	2.853	n/a	FENCE	-999	10	[0, 0, 0]	n/a	FR1	1	R1297T
1391.865	2.951	1399578	REC_WORD	2.951	n/a	PIE	-999	10	[0, 0, 0]	n/a	FR1	1	R1297T
1394.816	7.812	1402529	REC_WORD	7.812	n/a	SMILE	-999	10	[0, 0, 0]	n/a	FR1	1	R1297T
1402.628	4.593	1410340	REC_END	n/a	n/a	n/a	-999	10	[0, 0, 0]	n/a	FR1	1	R1297T
1407.221	0.5	1414933	TRIAL	n/a	n/a	n/a	-999	11	[0, 0, 0]	n/a	FR1	1	R1297T
1407.721	10.428	1415433	COUNTDOWN_START	n/a	n/a	n/a	-999	11	[0, 0, 0]	n/a	FR1	1	R1297T
1418.149	0.008	1425861	COUNTDOWN_END	n/a	n/a	n/a	-999	11	[0, 0, 0]	n/a	FR1	1	R1297T
1418.157	1.618	1425869	ORIENT	n/a	n/a	n/a	-999	11	[0, 0, 0]	n/a	FR1	1	R1297T
1419.775	2.366	1427486	ORIENT_OFF	n/a	n/a	n/a	-999	11	[0, 0, 0]	n/a	FR1	1	R1297T
1422.141	1.618	1429852	WORD	n/a	wordpools/wordpool_EN.txt	PEAR	1	11	[0, 0, 0]	n/a	FR1	1	R1297T
1423.759	0.782	1431470	WORD_OFF	n/a	n/a	PEAR	1	11	[0, 0, 0]	n/a	FR1	1	R1297T
1424.541	1.617	1432252	WORD	n/a	wordpools/wordpool_EN.txt	PET	2	11	[0, 0, 0]	n/a	FR1	1	R1297T
1426.158	0.784	1433869	WORD_OFF	n/a	n/a	PET	2	11	[0, 0, 0]	n/a	FR1	1	R1297T
1426.942	1.617	1434653	WORD	n/a	wordpools/wordpool_EN.txt	TREE	3	11	[0, 0, 0]	n/a	FR1	1	R1297T
1428.559	0.966	1436270	WORD_OFF	n/a	n/a	TREE	3	11	[0, 0, 0]	n/a	FR1	1	R1297T
1429.525	1.601	1437236	WORD	n/a	wordpools/wordpool_EN.txt	MAIL	4	11	[0, 0, 0]	n/a	FR1	1	R1297T
1431.126	0.833	1438837	WORD_OFF	n/a	n/a	MAIL	4	11	[0, 0, 0]	n/a	FR1	1	R1297T
1431.959	1.617	1439670	WORD	n/a	wordpools/wordpool_EN.txt	FORT	5	11	[0, 0, 0]	n/a	FR1	1	R1297T
1433.576	0.95	1441287	WORD_OFF	n/a	n/a	FORT	5	11	[0, 0, 0]	n/a	FR1	1	R1297T
1434.526	1.617	1442237	WORD	n/a	wordpools/wordpool_EN.txt	ZOO	6	11	[0, 0, 0]	n/a	FR1	1	R1297T
1436.143	0.801	1443853	WORD_OFF	n/a	n/a	ZOO	6	11	[0, 0, 0]	n/a	FR1	1	R1297T
1436.944	1.616	1444654	WORD	n/a	wordpools/wordpool_EN.txt	GOAT	7	11	[0, 0, 0]	n/a	FR1	1	R1297T
1438.56	0.884	1446270	WORD_OFF	n/a	n/a	GOAT	7	11	[0, 0, 0]	n/a	FR1	1	R1297T
1439.444	1.617	1447154	WORD	n/a	wordpools/wordpool_EN.txt	JET	8	11	[0, 0, 0]	n/a	FR1	1	R1297T
1441.061	0.784	1448771	WORD_OFF	n/a	n/a	JET	8	11	[0, 0, 0]	n/a	FR1	1	R1297T
1441.845	1.617	1449555	WORD	n/a	wordpools/wordpool_EN.txt	EEL	9	11	[0, 0, 0]	n/a	FR1	1	R1297T
1443.462	0.983	1451172	WORD_OFF	n/a	n/a	EEL	9	11	[0, 0, 0]	n/a	FR1	1	R1297T
1444.445	1.617	1452155	WORD	n/a	wordpools/wordpool_EN.txt	BOAT	10	11	[0, 0, 0]	n/a	FR1	1	R1297T
1446.062	0.9	1453772	WORD_OFF	n/a	n/a	BOAT	10	11	[0, 0, 0]	n/a	FR1	1	R1297T
1446.962	1.617	1454672	WORD	n/a	wordpools/wordpool_EN.txt	SHIP	11	11	[0, 0, 0]	n/a	FR1	1	R1297T
1448.579	0.933	1456289	WORD_OFF	n/a	n/a	SHIP	11	11	[0, 0, 0]	n/a	FR1	1	R1297T
1449.512	1.617	1457222	WORD	n/a	wordpools/wordpool_EN.txt	STAIR	12	11	[0, 0, 0]	n/a	FR1	1	R1297T
1451.129	0.0	1458839	WORD_OFF	n/a	n/a	STAIR	12	11	[0, 0, 0]	n/a	FR1	1	R1297T
1451.129	0.001	1458839	DISTRACT_START	n/a	n/a	n/a	-999	11	[0, 0, 0]	n/a	FR1	1	R1297T
1451.13	0.016	1458840	START	n/a	n/a	n/a	-999	11	[-999, -999, -999]	n/a	FR1	1	R1297T
1451.146	4.251	1458856	PROB	4.251	n/a	n/a	-999	11	[1, 6, 7]	15	FR1	1	R1297T
1455.397	8.968	1463106	PROB	8.968	n/a	n/a	-999	11	[7, 1, 5]	13	FR1	1	R1297T
1464.365	2.485	1472074	PROB	2.485	n/a	n/a	-999	11	[3, 1, 2]	6	FR1	1	R1297T
1466.85	2.516	1474559	PROB	2.516	n/a	n/a	-999	11	[2, 7, 7]	16	FR1	1	R1297T
1469.366	5.458	1477074	PROB	5.458	n/a	n/a	-999	11	[2, 5, 7]	14	FR1	1	R1297T
1474.824	0.011	1482532	STOP	n/a	n/a	n/a	-999	11	[-999, -999, -999]	n/a	FR1	1	R1297T
1474.835	0.632	1482543	DISTRACT_END	n/a	n/a	n/a	-999	11	[0, 0, 0]	n/a	FR1	1	R1297T
1475.467	0.518	1483175	RETRIEVAL_ORIENT	n/a	n/a	n/a	-999	11	[0, 0, 0]	n/a	FR1	1	R1297T
1475.985	1.019	1483693	REC_START	n/a	n/a	n/a	-999	11	[0, 0, 0]	n/a	FR1	1	R1297T
1477.004	1.467	1484712	REC_WORD	1.467	n/a	SHIP	-999	11	[0, 0, 0]	n/a	FR1	1	R1297T
1478.471	1.759	1486179	REC_WORD	1.759	n/a	JET	-999	11	[0, 0, 0]	n/a	FR1	1	R1297T
1480.23	2.141	1487938	REC_WORD	2.141	n/a	ZOO	-999	11	[0, 0, 0]	n/a	FR1	1	R1297T
1482.371	1.019	1490079	REC_WORD	1.019	n/a	PET	-999	11	[0, 0, 0]	n/a	FR1	1	R1297T
1483.39	1.282	1491098	REC_WORD	1.282	n/a	PEAR	-999	11	[0, 0, 0]	n/a	FR1	1	R1297T
1484.672	16.2	1492380	REC_WORD	16.2	n/a	TREE	-999	11	[0, 0, 0]	n/a	FR1	1	R1297T
1500.872	2.829	1508579	REC_WORD	2.829	n/a	EEL	-999	11	[0, 0, 0]	n/a	FR1	1	R1297T
1503.701	2.295	1511407	REC_WORD	2.295	n/a	GOAT	-999	11	[0, 0, 0]	n/a	FR1	1	R1297T
1505.996	5.244	1513702	REC_END	n/a	n/a	n/a	-999	11	[0, 0, 0]	n/a	FR1	1	R1297T
1511.24	0.5	1518946	TRIAL	n/a	n/a	n/a	-999	12	[0, 0, 0]	n/a	FR1	1	R1297T
1511.74	10.428	1519446	COUNTDOWN_START	n/a	n/a	n/a	-999	12	[0, 0, 0]	n/a	FR1	1	R1297T
1522.168	0.008	1529873	COUNTDOWN_END	n/a	n/a	n/a	-999	12	[0, 0, 0]	n/a	FR1	1	R1297T
1522.176	1.618	1529881	ORIENT	n/a	n/a	n/a	-999	12	[0, 0, 0]	n/a	FR1	1	R1297T
1523.794	1.883	1531499	ORIENT_OFF	n/a	n/a	n/a	-999	12	[0, 0, 0]	n/a	FR1	1	R1297T
1525.677	1.616	1533382	WORD	n/a	wordpools/wordpool_EN.txt	PLANT	1	12	[0, 0, 0]	n/a	FR1	1	R1297T
1527.293	0.817	1534998	WORD_OFF	n/a	n/a	PLANT	1	12	[0, 0, 0]	n/a	FR1	1	R1297T
1528.11	1.618	1535815	WORD	n/a	wordpools/wordpool_EN.txt	DUCK	2	12	[0, 0, 0]	n/a	FR1	1	R1297T
1529.728	0.799	1537433	WORD_OFF	n/a	n/a	DUCK	2	12	[0, 0, 0]	n/a	FR1	1	R1297T
1530.527	1.617	1538232	WORD	n/a	wordpools/wordpool_EN.txt	BEE	3	12	[0, 0, 0]	n/a	FR1	1	R1297T
1532.144	0.917	1539849	WORD_OFF	n/a	n/a	BEE	3	12	[0, 0, 0]	n/a	FR1	1	R1297T
1533.061	1.618	1540766	WORD	n/a	wordpools/wordpool_EN.txt	PALM	4	12	[0, 0, 0]	n/a	FR1	1	R1297T
1534.679	0.899	1542384	WORD_OFF	n/a	n/a	PALM	4	12	[0, 0, 0]	n/a	FR1	1	R1297T
1535.578	1.617	1543282	WORD	n/a	wordpools/wordpool_EN.txt	SHIRT	5	12	[0, 0, 0]	n/a	FR1	1	R1297T
1537.195	0.833	1544899	WORD_OFF	n/a	n/a	SHIRT	5	12	[0, 0, 0]	n/a	FR1	1	R1297T
1538.028	1.617	1545732	WORD	n/a	wordpools/wordpool_EN.txt	ROOF	6	12	[0, 0, 0]	n/a	FR1	1	R1297T
1539.645	0.851	1547349	WORD_OFF	n/a	n/a	ROOF	6	12	[0, 0, 0]	n/a	FR1	1	R1297T
1540.496	1.617	1548200	WORD	n/a	wordpools/wordpool_EN.txt	SOUP	7	12	[0, 0, 0]	n/a	FR1	1	R1297T
1542.113	0.983	1549817	WORD_OFF	n/a	n/a	SOUP	7	12	[0, 0, 0]	n/a	FR1	1	R1297T
1543.096	1.601	1550800	WORD	n/a	wordpools/wordpool_EN.txt	CANE	8	12	[0, 0, 0]	n/a	FR1	1	R1297T
1544.697	0.8	1552401	WORD_OFF	n/a	n/a	CANE	8	12	[0, 0, 0]	n/a	FR1	1	R1297T
1545.497	1.617	1553201	WORD	n/a	wordpools/wordpool_EN.txt	CROW	9	12	[0, 0, 0]	n/a	FR1	1	R1297T
1547.114	0.784	1554818	WORD_OFF	n/a	n/a	CROW	9	12	[0, 0, 0]	n/a	FR1	1	R1297T
1547.898	1.616	1555602	WORD	n/a	wordpools/wordpool_EN.txt	FROG	10	12	[0, 0, 0]	n/a	FR1	1	R1297T
1549.514	0.867	1557218	WORD_OFF	n/a	n/a	FROG	10	12	[0, 0, 0]	n/a	FR1	1	R1297T
1550.381	1.617	1558085	WORD	n/a	wordpools/wordpool_EN.txt	CUP	11	12	[0, 0, 0]	n/a	FR1	1	R1297T
1551.998	0.784	1559701	WORD_OFF	n/a	n/a	CUP	11	12	[0, 0, 0]	n/a	FR1	1	R1297T
1552.782	1.616	1560485	WORD	n/a	wordpools/wordpool_EN.txt	BROOM	12	12	[0, 0, 0]	n/a	FR1	1	R1297T
1554.398	0.0	1562101	WORD_OFF	n/a	n/a	BROOM	12	12	[0, 0, 0]	n/a	FR1	1	R1297T
1554.398	0.001	1562101	DISTRACT_START	n/a	n/a	n/a	-999	12	[0, 0, 0]	n/a	FR1	1	R1297T
1554.399	0.016	1562102	START	n/a	n/a	n/a	-999	12	[-999, -999, -999]	n/a	FR1	1	R1297T
1554.415	7.751	1562118	PROB	7.751	n/a	n/a	-999	12	[9, 7, 9]	23	FR1	1	R1297T
1562.166	7.018	1569869	PROB	7.018	n/a	n/a	-999	12	[4, 8, 7]	19	FR1	1	R1297T
1569.184	4.519	1576886	PROB	4.519	n/a	n/a	-999	12	[1, 8, 9]	19	FR1	1	R1297T
1573.703	5.897	1581405	PROB	5.897	n/a	n/a	-999	12	[6, 8, 5]	19	FR1	1	R1297T
1579.6	0.019	1587302	STOP	n/a	n/a	n/a	-999	12	[-999, -999, -999]	n/a	FR1	1	R1297T
1579.619	0.551	1587321	DISTRACT_END	n/a	n/a	n/a	-999	12	[0, 0, 0]	n/a	FR1	1	R1297T
1580.17	0.518	1587872	RETRIEVAL_ORIENT	n/a	n/a	n/a	-999	12	[0, 0, 0]	n/a	FR1	1	R1297T
1580.688	13.819	1588390	REC_START	n/a	n/a	n/a	-999	12	[0, 0, 0]	n/a	FR1	1	R1297T
1594.507	16.193	1602208	REC_WORD	16.193	n/a	BROOM	-999	12	[0, 0, 0]	n/a	FR1	1	R1297T
1610.7	5.259	1618400	REC_END	n/a	n/a	n/a	-999	12	[0, 0, 0]	n/a	FR1	1	R1297T
1615.959	0.5	1623659	TRIAL	n/a	n/a	n/a	-999	13	[0, 0, 0]	n/a	FR1	1	R1297T
1616.459	10.428	1624159	COUNTDOWN_START	n/a	n/a	n/a	-999	13	[0, 0, 0]	n/a	FR1	1	R1297T
1626.887	0.009	1634586	COUNTDOWN_END	n/a	n/a	n/a	-999	13	[0, 0, 0]	n/a	FR1	1	R1297T
1626.896	1.616	1634595	ORIENT	n/a	n/a	n/a	-999	13	[0, 0, 0]	n/a	FR1	1	R1297T
1628.512	1.983	1636211	ORIENT_OFF	n/a	n/a	n/a	-999	13	[0, 0, 0]	n/a	FR1	1	R1297T
1630.495	1.617	1638194	WORD	n/a	wordpools/wordpool_EN.txt	MOON	1	13	[0, 0, 0]	n/a	FR1	1	R1297T
1632.112	0.817	1639811	WORD_OFF	n/a	n/a	MOON	1	13	[0, 0, 0]	n/a	FR1	1	R1297T
1632.929	1.617	1640628	WORD	n/a	wordpools/wordpool_EN.txt	TANK	2	13	[0, 0, 0]	n/a	FR1	1	R1297T
1634.546	0.9	1642245	WORD_OFF	n/a	n/a	TANK	2	13	[0, 0, 0]	n/a	FR1	1	R1297T
1635.446	1.617	1643144	WORD	n/a	wordpools/wordpool_EN.txt	PLANE	3	13	[0, 0, 0]	n/a	FR1	1	R1297T
1637.063	0.818	1644761	WORD_OFF	n/a	n/a	PLANE	3	13	[0, 0, 0]	n/a	FR1	1	R1297T
1637.881	1.616	1645579	WORD	n/a	wordpools/wordpool_EN.txt	HOUSE	4	13	[0, 0, 0]	n/a	FR1	1	R1297T
1639.497	0.834	1647195	WORD_OFF	n/a	n/a	HOUSE	4	13	[0, 0, 0]	n/a	FR1	1	R1297T
1640.331	1.616	1648029	WORD	n/a	wordpools/wordpool_EN.txt	SEED	5	13	[0, 0, 0]	n/a	FR1	1	R1297T
1641.947	0.952	1649645	WORD_OFF	n/a	n/a	SEED	5	13	[0, 0, 0]	n/a	FR1	1	R1297T
1642.899	1.616	1650597	WORD	n/a	wordpools/wordpool_EN.txt	FOOD	6	13	[0, 0, 0]	n/a	FR1	1	R1297T
1644.515	0.883	1652213	WORD_OFF	n/a	n/a	FOOD	6	13	[0, 0, 0]	n/a	FR1	1	R1297T
1645.398	1.617	1653096	WORD	n/a	wordpools/wordpool_EN.txt	BARN	7	13	[0, 0, 0]	n/a	FR1	1	R1297T
1647.015	0.784	1654713	WORD_OFF	n/a	n/a	BARN	7	13	[0, 0, 0]	n/a	FR1	1	R1297T
1647.799	1.616	1655497	WORD	n/a	wordpools/wordpool_EN.txt	OWL	8	13	[0, 0, 0]	n/a	FR1	1	R1297T
1649.415	0.984	1657113	WORD_OFF	n/a	n/a	OWL	8	13	[0, 0, 0]	n/a	FR1	1	R1297T
1650.399	1.617	1658097	WORD	n/a	wordpools/wordpool_EN.txt	STORE	9	13	[0, 0, 0]	n/a	FR1	1	R1297T
1652.016	0.868	1659713	WORD_OFF	n/a	n/a	STORE	9	13	[0, 0, 0]	n/a	FR1	1	R1297T
1652.884	1.616	1660581	WORD	n/a	wordpools/wordpool_EN.txt	HOOF	10	13	[0, 0, 0]	n/a	FR1	1	R1297T
1654.5	0.933	1662197	WORD_OFF	n/a	n/a	HOOF	10	13	[0, 0, 0]	n/a	FR1	1	R1297T
1655.433	1.617	1663130	WORD	n/a	wordpools/wordpool_EN.txt	SKY	11	13	[0, 0, 0]	n/a	FR1	1	R1297T
1657.05	0.95	1664747	WORD_OFF	n/a	n/a	SKY	11	13	[0, 0, 0]	n/a	FR1	1	R1297T
1658.0	1.617	1665697	WORD	n/a	wordpools/wordpool_EN.txt	STEM	12	13	[0, 0, 0]	n/a	FR1	1	R1297T
1659.617	0.0	1667314	WORD_OFF	n/a	n/a	STEM	12	13	[0, 0, 0]	n/a	FR1	1	R1297T
1659.617	0.001	1667314	DISTRACT_START	n/a	n/a	n/a	-999	13	[0, 0, 0]	n/a	FR1	1	R1297T
1659.618	0.016	1667315	START	n/a	n/a	n/a	-999	13	[-999, -999, -999]	n/a	FR1	1	R1297T
1659.634	6.169	1667331	PROB	6.169	n/a	n/a	-999	13	[2, 4, 8]	14	FR1	1	R1297T
1665.803	1.782	1673500	PROB	1.782	n/a	n/a	-999	13	[1, 3, 7]	11	FR1	1	R1297T
1667.585	2.185	1675282	PROB	2.185	n/a	n/a	-999	13	[1, 1, 8]	10	FR1	1	R1297T
1669.77	5.233	1677466	PROB	5.233	n/a	n/a	-999	13	[8, 8, 4]	20	FR1	1	R1297T
1675.003	3.451	1682699	PROB	3.451	n/a	n/a	-999	13	[2, 1, 7]	10	FR1	1	R1297T
1678.454	10.723	1686150	PROB	10.723	n/a	n/a	-999	13	[8, 6, 9]	23	FR1	1	R1297T
1689.177	0.012	1696872	STOP	n/a	n/a	n/a	-999	13	[-999, -999, -999]	n/a	FR1	1	R1297T
1689.189	0.535	1696884	DISTRACT_END	n/a	n/a	n/a	-999	13	[0, 0, 0]	n/a	FR1	1	R1297T
1689.724	0.516	1697419	RETRIEVAL_ORIENT	n/a	n/a	n/a	-999	13	[0, 0, 0]	n/a	FR1	1	R1297T
1690.24	1.745	1697935	REC_START	n/a	n/a	n/a	-999	13	[0, 0, 0]	n/a	FR1	1	R1297T
1691.985	1.259	1699680	REC_WORD	1.259	n/a	SKY	-999	13	[0, 0, 0]	n/a	FR1	1	R1297T
1693.244	27.008	1700939	REC_WORD	27.008	n/a	MOON	-999	13	[0, 0, 0]	n/a	FR1	1	R1297T
1720.252	5.111	1727945	REC_END	n/a	n/a	n/a	-999	13	[0, 0, 0]	n/a	FR1	1	R1297T
1725.363	0.5	1733056	TRIAL	n/a	n/a	n/a	-999	14	[0, 0, 0]	n/a	FR1	1	R1297T
1725.863	10.428	1733556	COUNTDOWN_START	n/a	n/a	n/a	-999	14	[0, 0, 0]	n/a	FR1	1	R1297T
1736.291	0.007	1743983	COUNTDOWN_END	n/a	n/a	n/a	-999	14	[0, 0, 0]	n/a	FR1	1	R1297T
1736.298	1.601	1743990	ORIENT	n/a	n/a	n/a	-999	14	[0, 0, 0]	n/a	FR1	1	R1297T
1737.899	2.149	1745591	ORIENT_OFF	n/a	n/a	n/a	-999	14	[0, 0, 0]	n/a	FR1	1	R1297T
1740.048	1.618	1747740	WORD	n/a	wordpools/wordpool_EN.txt	ROPE	1	14	[0, 0, 0]	n/a	FR1	1	R1297T
1741.666	0.9	1749358	WORD_OFF	n/a	n/a	ROPE	1	14	[0, 0, 0]	n/a	FR1	1	R1297T
1742.566	1.617	1750258	WORD	n/a	wordpools/wordpool_EN.txt	BEAK	2	14	[0, 0, 0]	n/a	FR1	1	R1297T
1744.183	0.983	1751875	WORD_OFF	n/a	n/a	BEAK	2	14	[0, 0, 0]	n/a	FR1	1	R1297T
1745.166	1.618	1752858	WORD	n/a	wordpools/wordpool_EN.txt	SPARK	3	14	[0, 0, 0]	n/a	FR1	1	R1297T
1746.784	0.766	1754476	WORD_OFF	n/a	n/a	SPARK	3	14	[0, 0, 0]	n/a	FR1	1	R1297T
1747.55	1.617	1755242	WORD	n/a	wordpools/wordpool_EN.txt	HOOK	4	14	[0, 0, 0]	n/a	FR1	1	R1297T
1749.167	1.0	1756859	WORD_OFF	n/a	n/a	HOOK	4	14	[0, 0, 0]	n/a	FR1	1	R1297T
1750.167	1.601	1757859	WORD	n/a	wordpools/wordpool_EN.txt	JUICE	5	14	[0, 0, 0]	n/a	FR1	1	R1297T
1751.768	0.883	1759459	WORD_OFF	n/a	n/a	JUICE	5	14	[0, 0, 0]	n/a	FR1	1	R1297T
1752.651	1.617	1760342	WORD	n/a	wordpools/wordpool_EN.txt	AXE	6	14	[0, 0, 0]	n/a	FR1	1	R1297T
1754.268	0.867	1761959	WORD_OFF	n/a	n/a	AXE	6	14	[0, 0, 0]	n/a	FR1	1	R1297T
1755.135	1.618	1762826	WORD	n/a	wordpools/wordpool_EN.txt	MAT	7	14	[0, 0, 0]	n/a	FR1	1	R1297T
1756.753	0.799	1764444	WORD_OFF	n/a	n/a	MAT	7	14	[0, 0, 0]	n/a	FR1	1	R1297T
1757.552	1.617	1765243	WORD	n/a	wordpools/wordpool_EN.txt	FAN	8	14	[0, 0, 0]	n/a	FR1	1	R1297T
1759.169	0.783	1766860	WORD_OFF	n/a	n/a	FAN	8	14	[0, 0, 0]	n/a	FR1	1	R1297T
1759.952	1.617	1767643	WORD	n/a	wordpools/wordpool_EN.txt	SLEEVE	9	14	[0, 0, 0]	n/a	FR1	1	R1297T
1761.569	0.834	1769260	WORD_OFF	n/a	n/a	SLEEVE	9	14	[0, 0, 0]	n/a	FR1	1	R1297T
1762.403	1.617	1770094	WORD	n/a	wordpools/wordpool_EN.txt	BEAN	10	14	[0, 0, 0]	n/a	FR1	1	R1297T
1764.02	0.95	1771711	WORD_OFF	n/a	n/a	BEAN	10	14	[0, 0, 0]	n/a	FR1	1	R1297T
1764.97	1.617	1772661	WORD	n/a	wordpools/wordpool_EN.txt	MULE	11	14	[0, 0, 0]	n/a	FR1	1	R1297T
1766.587	0.8	1774278	WORD_OFF	n/a	n/a	MULE	11	14	[0, 0, 0]	n/a	FR1	1	R1297T
1767.387	1.617	1775078	WORD	n/a	wordpools/wordpool_EN.txt	NOSE	12	14	[0, 0, 0]	n/a	FR1	1	R1297T
1769.004	0.0	1776694	WORD_OFF	n/a	n/a	NOSE	12	14	[0, 0, 0]	n/a	FR1	1	R1297T
1769.004	0.0	1776694	DISTRACT_START	n/a	n/a	n/a	-999	14	[0, 0, 0]	n/a	FR1	1	R1297T
1769.004	0.016	1776694	START	n/a	n/a	n/a	-999	14	[-999, -999, -999]	n/a	FR1	1	R1297T
1769.02	3.535	1776710	PROB	3.535	n/a	n/a	-999	14	[7, 1, 1]	9	FR1	1	R1297T
1772.555	3.55	1780245	PROB	3.55	n/a	n/a	-999	14	[2, 3, 7]	12	FR1	1	R1297T
1776.105	2.201	1783795	PROB	2.201	n/a	n/a	-999	14	[8, 8, 1]	17	FR1	1	R1297T
1778.306	3.067	1785996	PROB	3.067	n/a	n/a	-999	14	[2, 6, 5]	13	FR1	1	R1297T
1781.373	2.7	1789063	PROB	2.7	n/a	n/a	-999	14	[3, 2, 4]	11	FR1	1	R1297T
1784.073	2.584	1791763	PROB	2.584	n/a	n/a	-999	14	[1, 1, 4]	6	FR1	1	R1297T
1786.657	2.911	1794346	PROB	2.911	n/a	n/a	-999	14	[3, 9, 4]	16	FR1	1	R1297T
1789.568	0.006	1797257	STOP	n/a	n/a	n/a	-999	14	[-999, -999, -999]	n/a	FR1	1	R1297T
1789.574	0.6	1797263	DISTRACT_END	n/a	n/a	n/a	-999	14	[0, 0, 0]	n/a	FR1	1	R1297T
1790.174	0.519	1797863	RETRIEVAL_ORIENT	n/a	n/a	n/a	-999	14	[0, 0, 0]	n/a	FR1	1	R1297T
1790.693	2.042	1798382	REC_START	n/a	n/a	n/a	-999	14	[0, 0, 0]	n/a	FR1	1	R1297T
1792.735	1.135	1800424	REC_WORD	1.135	n/a	NOSE	-999	14	[0, 0, 0]	n/a	FR1	1	R1297T
1793.87	3.458	1801559	REC_WORD	3.458	n/a	MULE	-999	14	[0, 0, 0]	n/a	FR1	1	R1297T
1797.328	2.06	1805017	REC_WORD	2.06	n/a	BEAN	-999	14	[0, 0, 0]	n/a	FR1	1	R1297T
1799.388	6.036	1807077	REC_WORD	6.036	n/a	ROPE	-999	14	[0, 0, 0]	n/a	FR1	1	R1297T
1805.424	15.28	1813112	REC_WORD	15.28	n/a	AXE	-999	14	[0, 0, 0]	n/a	FR1	1	R1297T
1820.704	5.86	1828391	REC_END	n/a	n/a	n/a	-999	14	[0, 0, 0]	n/a	FR1	1	R1297T
1826.564	0.5	1834251	TRIAL	n/a	n/a	n/a	-999	15	[0, 0, 0]	n/a	FR1	1	R1297T
1827.064	10.428	1834751	COUNTDOWN_START	n/a	n/a	n/a	-999	15	[0, 0, 0]	n/a	FR1	1	R1297T
1837.492	0.008	1845178	COUNTDOWN_END	n/a	n/a	n/a	-999	15	[0, 0, 0]	n/a	FR1	1	R1297T
1837.5	1.617	1845186	ORIENT	n/a	n/a	n/a	-999	15	[0, 0, 0]	n/a	FR1	1	R1297T
1839.117	2.183	1846803	ORIENT_OFF	n/a	n/a	n/a	-999	15	[0, 0, 0]	n/a	FR1	1	R1297T
1841.3	1.601	1848986	WORD	n/a	wordpools/wordpool_EN.txt	CUBE	1	15	[0, 0, 0]	n/a	FR1	1	R1297T
1842.901	0.784	1850587	WORD_OFF	n/a	n/a	CUBE	1	15	[0, 0, 0]	n/a	FR1	1	R1297T
1843.685	1.616	1851371	WORD	n/a	wordpools/wordpool_EN.txt	PIPE	2	15	[0, 0, 0]	n/a	FR1	1	R1297T
1845.301	1.0	1852987	WORD_OFF	n/a	n/a	PIPE	2	15	[0, 0, 0]	n/a	FR1	1	R1297T
1846.301	1.602	1853987	WORD	n/a	wordpools/wordpool_EN.txt	BATH	3	15	[0, 0, 0]	n/a	FR1	1	R1297T
1847.903	0.8	1855589	WORD_OFF	n/a	n/a	BATH	3	15	[0, 0, 0]	n/a	FR1	1	R1297T
1848.703	1.616	1856389	WORD	n/a	wordpools/wordpool_EN.txt	BOWL	4	15	[0, 0, 0]	n/a	FR1	1	R1297T
1850.319	0.933	1858005	WORD_OFF	n/a	n/a	BOWL	4	15	[0, 0, 0]	n/a	FR1	1	R1297T
1851.252	1.601	1858938	WORD	n/a	wordpools/wordpool_EN.txt	TOE	5	15	[0, 0, 0]	n/a	FR1	1	R1297T
1852.853	0.967	1860538	WORD_OFF	n/a	n/a	TOE	5	15	[0, 0, 0]	n/a	FR1	1	R1297T
1853.82	1.616	1861505	WORD	n/a	wordpools/wordpool_EN.txt	PIT	6	15	[0, 0, 0]	n/a	FR1	1	R1297T
1855.436	1.0	1863121	WORD_OFF	n/a	n/a	PIT	6	15	[0, 0, 0]	n/a	FR1	1	R1297T
1856.436	1.617	1864121	WORD	n/a	wordpools/wordpool_EN.txt	SHEET	7	15	[0, 0, 0]	n/a	FR1	1	R1297T
1858.053	1.0	1865738	WORD_OFF	n/a	n/a	SHEET	7	15	[0, 0, 0]	n/a	FR1	1	R1297T
1859.053	1.618	1866738	WORD	n/a	wordpools/wordpool_EN.txt	STRAW	8	15	[0, 0, 0]	n/a	FR1	1	R1297T
1860.671	0.799	1868356	WORD_OFF	n/a	n/a	STRAW	8	15	[0, 0, 0]	n/a	FR1	1	R1297T
1861.47	1.618	1869155	WORD	n/a	wordpools/wordpool_EN.txt	GLASS	9	15	[0, 0, 0]	n/a	FR1	1	R1297T
1863.088	0.817	1870773	WORD_OFF	n/a	n/a	GLASS	9	15	[0, 0, 0]	n/a	FR1	1	R1297T
1863.905	1.616	1871590	WORD	n/a	wordpools/wordpool_EN.txt	TOOL	10	15	[0, 0, 0]	n/a	FR1	1	R1297T
1865.521	0.884	1873206	WORD_OFF	n/a	n/a	TOOL	10	15	[0, 0, 0]	n/a	FR1	1	R1297T
1866.405	1.617	1874090	WORD	n/a	wordpools/wordpool_EN.txt	SWAMP	11	15	[0, 0, 0]	n/a	FR1	1	R1297T
1868.022	0.851	1875707	WORD_OFF	n/a	n/a	SWAMP	11	15	[0, 0, 0]	n/a	FR1	1	R1297T
1868.873	1.616	1876557	WORD	n/a	wordpools/wordpool_EN.txt	BRIDGE	12	15	[0, 0, 0]	n/a	FR1	1	R1297T
1870.489	0.0	1878173	WORD_OFF	n/a	n/a	BRIDGE	12	15	[0, 0, 0]	n/a	FR1	1	R1297T
1870.489	0.001	1878173	DISTRACT_START	n/a	n/a	n/a	-999	15	[0, 0, 0]	n/a	FR1	1	R1297T
1870.49	0.016	1878174	START	n/a	n/a	n/a	-999	15	[-999, -999, -999]	n/a	FR1	1	R1297T
1870.506	4.8	1878190	PROB	4.8	n/a	n/a	-999	15	[4, 7, 5]	16	FR1	1	R1297T
1875.306	2.851	1882990	PROB	2.851	n/a	n/a	-999	15	[3, 1, 2]	6	FR1	1	R1297T
1878.157	2.017	1885841	PROB	2.017	n/a	n/a	-999	15	[5, 5, 7]	17	FR1	1	R1297T
1880.174	1.618	1887858	PROB	1.618	n/a	n/a	-999	15	[5, 5, 5]	15	FR1	1	R1297T
1881.792	1.884	1889476	PROB	1.884	n/a	n/a	-999	15	[1, 7, 7]	15	FR1	1	R1297T
1883.676	3.533	1891360	PROB	3.533	n/a	n/a	-999	15	[1, 4, 8]	13	FR1	1	R1297T
1887.209	2.95	1894892	PROB	2.95	n/a	n/a	-999	15	[9, 8, 3]	20	FR1	1	R1297T
1890.159	2.937	1897842	PROB	2.937	n/a	n/a	-999	15	[5, 2, 6]	13	FR1	1	R1297T
1893.096	0.014	1900779	STOP	n/a	n/a	n/a	-999	15	[-999, -999, -999]	n/a	FR1	1	R1297T
1893.11	0.584	1900793	DISTRACT_END	n/a	n/a	n/a	-999	15	[0, 0, 0]	n/a	FR1	1	R1297T
1893.694	0.517	1901377	RETRIEVAL_ORIENT	n/a	n/a	n/a	-999	15	[0, 0, 0]	n/a	FR1	1	R1297T
1894.211	1.249	1901894	REC_START	n/a	n/a	n/a	-999	15	[0, 0, 0]	n/a	FR1	1	R1297T
1895.46	0.984	1903143	REC_WORD	0.984	n/a	SWAMP	-999	15	[0, 0, 0]	n/a	FR1	1	R1297T
1896.444	4.374	1904127	REC_WORD	4.374	n/a	BRIDGE	-999	15	[0, 0, 0]	n/a	FR1	1	R1297T
1900.818	1.332	1908501	REC_WORD	1.332	n/a	ICE	-999	15	[0, 0, 0]	n/a	FR1	1	R1297T
1902.15	22.073	1909832	REC_WORD	22.073	n/a	BOWL	-999	15	[0, 0, 0]	n/a	FR1	1	R1297T
1924.223	6.21	1931904	REC_END	n/a	n/a	n/a	-999	15	[0, 0, 0]	n/a	FR1	1	R1297T
1930.433	0.5	1938114	TRIAL	n/a	n/a	n/a	-999	16	[0, 0, 0]	n/a	FR1	1	R1297T
1930.933	10.428	1938614	COUNTDOWN_START	n/a	n/a	n/a	-999	16	[0, 0, 0]	n/a	FR1	1	R1297T
1941.361	0.007	1949041	COUNTDOWN_END	n/a	n/a	n/a	-999	16	[0, 0, 0]	n/a	FR1	1	R1297T
1941.368	1.617	1949048	ORIENT	n/a	n/a	n/a	-999	16	[0, 0, 0]	n/a	FR1	1	R1297T
1942.985	1.902	1950665	ORIENT_OFF	n/a	n/a	n/a	-999	16	[0, 0, 0]	n/a	FR1	1	R1297T
1944.887	1.616	1952567	WORD	n/a	wordpools/wordpool_EN.txt	DOLL	1	16	[0, 0, 0]	n/a	FR1	1	R1297T
1946.503	0.983	1954183	WORD_OFF	n/a	n/a	DOLL	1	16	[0, 0, 0]	n/a	FR1	1	R1297T
1947.486	1.617	1955166	WORD	n/a	wordpools/wordpool_EN.txt	RAT	2	16	[0, 0, 0]	n/a	FR1	1	R1297T
1949.103	0.967	1956783	WORD_OFF	n/a	n/a	RAT	2	16	[0, 0, 0]	n/a	FR1	1	R1297T
1950.07	1.618	1957750	WORD	n/a	wordpools/wordpool_EN.txt	JUDGE	3	16	[0, 0, 0]	n/a	FR1	1	R1297T
1951.688	0.766	1959368	WORD_OFF	n/a	n/a	JUDGE	3	16	[0, 0, 0]	n/a	FR1	1	R1297T
1952.454	1.617	1960133	WORD	n/a	wordpools/wordpool_EN.txt	MILK	4	16	[0, 0, 0]	n/a	FR1	1	R1297T
1954.071	0.767	1961750	WORD_OFF	n/a	n/a	MILK	4	16	[0, 0, 0]	n/a	FR1	1	R1297T
1954.838	1.617	1962517	WORD	n/a	wordpools/wordpool_EN.txt	WEED	5	16	[0, 0, 0]	n/a	FR1	1	R1297T
1956.455	0.8	1964134	WORD_OFF	n/a	n/a	WEED	5	16	[0, 0, 0]	n/a	FR1	1	R1297T
1957.255	1.618	1964934	WORD	n/a	wordpools/wordpool_EN.txt	STEAM	6	16	[0, 0, 0]	n/a	FR1	1	R1297T
1958.873	0.833	1966552	WORD_OFF	n/a	n/a	STEAM	6	16	[0, 0, 0]	n/a	FR1	1	R1297T
1959.706	1.616	1967385	WORD	n/a	wordpools/wordpool_EN.txt	VASE	7	16	[0, 0, 0]	n/a	FR1	1	R1297T
1961.322	0.917	1969001	WORD_OFF	n/a	n/a	VASE	7	16	[0, 0, 0]	n/a	FR1	1	R1297T
1962.239	1.618	1969918	WORD	n/a	wordpools/wordpool_EN.txt	RICE	8	16	[0, 0, 0]	n/a	FR1	1	R1297T
1963.857	0.817	1971536	WORD_OFF	n/a	n/a	RICE	8	16	[0, 0, 0]	n/a	FR1	1	R1297T
1964.674	1.616	1972353	WORD	n/a	wordpools/wordpool_EN.txt	BOY	9	16	[0, 0, 0]	n/a	FR1	1	R1297T
1966.29	0.917	1973969	WORD_OFF	n/a	n/a	BOY	9	16	[0, 0, 0]	n/a	FR1	1	R1297T
1967.207	1.617	1974886	WORD	n/a	wordpools/wordpool_EN.txt	SKI	10	16	[0, 0, 0]	n/a	FR1	1	R1297T
1968.824	0.833	1976502	WORD_OFF	n/a	n/a	SKI	10	16	[0, 0, 0]	n/a	FR1	1	R1297T
1969.657	1.617	1977335	WORD	n/a	wordpools/wordpool_EN.txt	TOAD	11	16	[0, 0, 0]	n/a	FR1	1	R1297T
1971.274	0.983	1978952	WORD_OFF	n/a	n/a	TOAD	11	16	[0, 0, 0]	n/a	FR1	1	R1297T
1972.257	1.618	1979935	WORD	n/a	wordpools/wordpool_EN.txt	DRUM	12	16	[0, 0, 0]	n/a	FR1	1	R1297T
1973.875	0.0	1981553	WORD_OFF	n/a	n/a	DRUM	12	16	[0, 0, 0]	n/a	FR1	1	R1297T
1973.875	0.001	1981553	DISTRACT_START	n/a	n/a	n/a	-999	16	[0, 0, 0]	n/a	FR1	1	R1297T
1973.876	0.016	1981554	START	n/a	n/a	n/a	-999	16	[-999, -999, -999]	n/a	FR1	1	R1297T
1973.892	4.533	1981570	PROB	4.533	n/a	n/a	-999	16	[3, 7, 6]	16	FR1	1	R1297T
1978.425	3.034	1986103	PROB	3.034	n/a	n/a	-999	16	[6, 1, 1]	8	FR1	1	R1297T
1981.459	5.184	1989137	PROB	5.184	n/a	n/a	-999	16	[9, 2, 4]	15	FR1	1	R1297T
1986.643	6.652	1994320	PROB	6.652	n/a	n/a	-999	16	[5, 4, 3]	12	FR1	1	R1297T
1993.295	5.05	2000972	PROB	5.05	n/a	n/a	-999	16	[8, 9, 3]	20	FR1	1	R1297T
1998.345	0.017	2006022	STOP	n/a	n/a	n/a	-999	16	[-999, -999, -999]	n/a	FR1	1	R1297T
1998.362	0.551	2006039	DISTRACT_END	n/a	n/a	n/a	-999	16	[0, 0, 0]	n/a	FR1	1	R1297T
1998.913	0.517	2006590	RETRIEVAL_ORIENT	n/a	n/a	n/a	-999	16	[0, 0, 0]	n/a	FR1	1	R1297T
1999.43	9.538	2007107	REC_START	n/a	n/a	n/a	-999	16	[0, 0, 0]	n/a	FR1	1	R1297T
2008.968	0.826	2016644	REC_WORD	0.826	n/a	ROAD	-999	16	[0, 0, 0]	n/a	FR1	1	R1297T
2009.794	19.646	2017470	REC_WORD	19.646	n/a	TOAD	-999	16	[0, 0, 0]	n/a	FR1	1	R1297T
2029.44	6.012	2037115	REC_END	n/a	n/a	n/a	-999	16	[0, 0, 0]	n/a	FR1	1	R1297T
2035.452	0.5	2043126	TRIAL	n/a	n/a	n/a	-999	17	[0, 0, 0]	n/a	FR1	1	R1297T
2035.952	10.428	2043626	COUNTDOWN_START	n/a	n/a	n/a	-999	17	[0, 0, 0]	n/a	FR1	1	R1297T
2046.38	0.008	2054054	COUNTDOWN_END	n/a	n/a	n/a	-999	17	[0, 0, 0]	n/a	FR1	1	R1297T
2046.388	1.616	2054062	ORIENT	n/a	n/a	n/a	-999	17	[0, 0, 0]	n/a	FR1	1	R1297T
2048.004	2.234	2055678	ORIENT_OFF	n/a	n/a	n/a	-999	17	[0, 0, 0]	n/a	FR1	1	R1297T
2050.238	1.601	2057912	WORD	n/a	wordpools/wordpool_EN.txt	FISH	1	17	[0, 0, 0]	n/a	FR1	1	R1297T
2051.839	0.984	2059512	WORD_OFF	n/a	n/a	FISH	1	17	[0, 0, 0]	n/a	FR1	1	R1297T
2052.823	1.616	2060496	WORD	n/a	wordpools/wordpool_EN.txt	LAKE	2	17	[0, 0, 0]	n/a	FR1	1	R1297T
2054.439	1.017	2062112	WORD_OFF	n/a	n/a	LAKE	2	17	[0, 0, 0]	n/a	FR1	1	R1297T
2055.456	1.617	2063129	WORD	n/a	wordpools/wordpool_EN.txt	SPONGE	3	17	[0, 0, 0]	n/a	FR1	1	R1297T
2057.073	0.85	2064746	WORD_OFF	n/a	n/a	SPONGE	3	17	[0, 0, 0]	n/a	FR1	1	R1297T
2057.923	1.617	2065596	WORD	n/a	wordpools/wordpool_EN.txt	TRAIN	4	17	[0, 0, 0]	n/a	FR1	1	R1297T
2059.54	0.95	2067213	WORD_OFF	n/a	n/a	TRAIN	4	17	[0, 0, 0]	n/a	FR1	1	R1297T
2060.49	1.617	2068163	WORD	n/a	wordpools/wordpool_EN.txt	JEEP	5	17	[0, 0, 0]	n/a	FR1	1	R1297T
2062.107	0.984	2069780	WORD_OFF	n/a	n/a	JEEP	5	17	[0, 0, 0]	n/a	FR1	1	R1297T
2063.091	1.618	2070764	WORD	n/a	wordpools/wordpool_EN.txt	CAR	6	17	[0, 0, 0]	n/a	FR1	1	R1297T
2064.709	0.832	2072382	WORD_OFF	n/a	n/a	CAR	6	17	[0, 0, 0]	n/a	FR1	1	R1297T
2065.541	1.617	2073214	WORD	n/a	wordpools/wordpool_EN.txt	COIN	7	17	[0, 0, 0]	n/a	FR1	1	R1297T
2067.158	0.934	2074831	WORD_OFF	n/a	n/a	COIN	7	17	[0, 0, 0]	n/a	FR1	1	R1297T
2068.092	1.617	2075765	WORD	n/a	wordpools/wordpool_EN.txt	SHARK	8	17	[0, 0, 0]	n/a	FR1	1	R1297T
2069.709	0.916	2077381	WORD_OFF	n/a	n/a	SHARK	8	17	[0, 0, 0]	n/a	FR1	1	R1297T
2070.625	1.617	2078297	WORD	n/a	wordpools/wordpool_EN.txt	SPEAR	9	17	[0, 0, 0]	n/a	FR1	1	R1297T
2072.242	0.834	2079914	WORD_OFF	n/a	n/a	SPEAR	9	17	[0, 0, 0]	n/a	FR1	1	R1297T
2073.076	1.618	2080748	WORD	n/a	wordpools/wordpool_EN.txt	SEAT	10	17	[0, 0, 0]	n/a	FR1	1	R1297T
2074.694	0.782	2082366	WORD_OFF	n/a	n/a	SEAT	10	17	[0, 0, 0]	n/a	FR1	1	R1297T
2075.476	1.617	2083148	WORD	n/a	wordpools/wordpool_EN.txt	POOL	11	17	[0, 0, 0]	n/a	FR1	1	R1297T
2077.093	0.984	2084765	WORD_OFF	n/a	n/a	POOL	11	17	[0, 0, 0]	n/a	FR1	1	R1297T
2078.077	1.601	2085749	WORD	n/a	wordpools/wordpool_EN.txt	CHIEF	12	17	[0, 0, 0]	n/a	FR1	1	R1297T
2079.678	0.0	2087350	DISTRACT_START	n/a	n/a	n/a	-999	17	[0, 0, 0]	n/a	FR1	1	R1297T
2079.678	0.001	2087350	WORD_OFF	n/a	n/a	CHIEF	12	17	[0, 0, 0]	n/a	FR1	1	R1297T
2079.679	0.016	2087351	START	n/a	n/a	n/a	-999	17	[-999, -999, -999]	n/a	FR1	1	R1297T
2079.695	3.899	2087367	PROB	3.899	n/a	n/a	-999	17	[6, 2, 3]	11	FR1	1	R1297T
2083.594	3.484	2091266	PROB	3.484	n/a	n/a	-999	17	[1, 6, 8]	15	FR1	1	R1297T
2087.078	1.752	2094749	PROB	1.752	n/a	n/a	-999	17	[7, 3, 3]	13	FR1	1	R1297T
2088.83	5.583	2096501	PROB	5.583	n/a	n/a	-999	17	[6, 6, 5]	17	FR1	1	R1297T
2094.413	9.955	2102084	PROB	9.955	n/a	n/a	-999	17	[9, 6, 7]	22	FR1	1	R1297T
2104.368	0.013	2112038	STOP	n/a	n/a	n/a	-999	17	[-999, -999, -999]	n/a	FR1	1	R1297T
2104.381	0.651	2112051	DISTRACT_END	n/a	n/a	n/a	-999	17	[0, 0, 0]	n/a	FR1	1	R1297T
2105.032	0.517	2112702	RETRIEVAL_ORIENT	n/a	n/a	n/a	-999	17	[0, 0, 0]	n/a	FR1	1	R1297T
2105.549	2.173	2113219	REC_START	n/a	n/a	n/a	-999	17	[0, 0, 0]	n/a	FR1	1	R1297T
2107.722	0.9	2115392	REC_WORD	0.9	n/a	CHIEF	-999	17	[0, 0, 0]	n/a	FR1	1	R1297T
2108.622	3.323	2116292	REC_WORD	3.323	n/a	SPONGE	-999	17	[0, 0, 0]	n/a	FR1	1	R1297T
2111.945	2.731	2119615	REC_WORD	2.731	n/a	SEAT	-999	17	[0, 0, 0]	n/a	FR1	1	R1297T
2114.676	3.466	2122346	REC_WORD	3.466	n/a	LAKE	-999	17	[0, 0, 0]	n/a	FR1	1	R1297T
2118.142	10.207	2125812	REC_WORD	10.207	n/a	FISH	-999	17	[0, 0, 0]	n/a	FR1	1	R1297T
2128.349	7.213	2136018	REC_WORD	7.213	n/a	CAR	-999	17	[0, 0, 0]	n/a	FR1	1	R1297T
2135.562	9.76	2143230	REC_END	n/a	n/a	n/a	-999	17	[0, 0, 0]	n/a	FR1	1	R1297T
2145.322	0.5	2152990	TRIAL	n/a	n/a	n/a	-999	18	[0, 0, 0]	n/a	FR1	1	R1297T
2145.822	10.428	2153490	COUNTDOWN_START	n/a	n/a	n/a	-999	18	[0, 0, 0]	n/a	FR1	1	R1297T
2156.25	0.007	2163917	COUNTDOWN_END	n/a	n/a	n/a	-999	18	[0, 0, 0]	n/a	FR1	1	R1297T
2156.257	1.602	2163924	ORIENT	n/a	n/a	n/a	-999	18	[0, 0, 0]	n/a	FR1	1	R1297T
2157.859	2.216	2165526	ORIENT_OFF	n/a	n/a	n/a	-999	18	[0, 0, 0]	n/a	FR1	1	R1297T
2160.075	1.618	2167742	WORD	n/a	wordpools/wordpool_EN.txt	BIRD	1	18	[0, 0, 0]	n/a	FR1	1	R1297T
2161.693	1.017	2169360	WORD_OFF	n/a	n/a	BIRD	1	18	[0, 0, 0]	n/a	FR1	1	R1297T
2162.71	1.616	2170377	WORD	n/a	wordpools/wordpool_EN.txt	CLOWN	2	18	[0, 0, 0]	n/a	FR1	1	R1297T
2164.326	0.8	2171993	WORD_OFF	n/a	n/a	CLOWN	2	18	[0, 0, 0]	n/a	FR1	1	R1297T
2165.126	1.618	2172793	WORD	n/a	wordpools/wordpool_EN.txt	MOLE	3	18	[0, 0, 0]	n/a	FR1	1	R1297T
2166.744	0.933	2174411	WORD_OFF	n/a	n/a	MOLE	3	18	[0, 0, 0]	n/a	FR1	1	R1297T
2167.677	1.616	2175344	WORD	n/a	wordpools/wordpool_EN.txt	CAVE	4	18	[0, 0, 0]	n/a	FR1	1	R1297T
2169.293	0.784	2176959	WORD_OFF	n/a	n/a	CAVE	4	18	[0, 0, 0]	n/a	FR1	1	R1297T
2170.077	1.618	2177743	WORD	n/a	wordpools/wordpool_EN.txt	SINK	5	18	[0, 0, 0]	n/a	FR1	1	R1297T
2171.695	0.932	2179361	WORD_OFF	n/a	n/a	SINK	5	18	[0, 0, 0]	n/a	FR1	1	R1297T
2172.627	1.617	2180293	WORD	n/a	wordpools/wordpool_EN.txt	THUMB	6	18	[0, 0, 0]	n/a	FR1	1	R1297T
2174.244	0.767	2181910	WORD_OFF	n/a	n/a	THUMB	6	18	[0, 0, 0]	n/a	FR1	1	R1297T
2175.011	1.617	2182677	WORD	n/a	wordpools/wordpool_EN.txt	SKUNK	7	18	[0, 0, 0]	n/a	FR1	1	R1297T
2176.628	0.85	2184294	WORD_OFF	n/a	n/a	SKUNK	7	18	[0, 0, 0]	n/a	FR1	1	R1297T
2177.478	1.617	2185144	WORD	n/a	wordpools/wordpool_EN.txt	DOCK	8	18	[0, 0, 0]	n/a	FR1	1	R1297T
2179.095	0.85	2186761	WORD_OFF	n/a	n/a	DOCK	8	18	[0, 0, 0]	n/a	FR1	1	R1297T
2179.945	1.617	2187611	WORD	n/a	wordpools/wordpool_EN.txt	TOAST	9	18	[0, 0, 0]	n/a	FR1	1	R1297T
2181.562	0.784	2189228	WORD_OFF	n/a	n/a	TOAST	9	18	[0, 0, 0]	n/a	FR1	1	R1297T
2182.346	1.617	2190012	WORD	n/a	wordpools/wordpool_EN.txt	FUDGE	10	18	[0, 0, 0]	n/a	FR1	1	R1297T
2183.963	0.917	2191629	WORD_OFF	n/a	n/a	FUDGE	10	18	[0, 0, 0]	n/a	FR1	1	R1297T
2184.88	1.616	2192546	WORD	n/a	wordpools/wordpool_EN.txt	TAIL	11	18	[0, 0, 0]	n/a	FR1	1	R1297T
2186.496	0.767	2194161	WORD_OFF	n/a	n/a	TAIL	11	18	[0, 0, 0]	n/a	FR1	1	R1297T
2187.263	1.601	2194928	WORD	n/a	wordpools/wordpool_EN.txt	LAMB	12	18	[0, 0, 0]	n/a	FR1	1	R1297T
2188.864	0.0	2196529	WORD_OFF	n/a	n/a	LAMB	12	18	[0, 0, 0]	n/a	FR1	1	R1297T
2188.864	0.001	2196529	DISTRACT_START	n/a	n/a	n/a	-999	18	[0, 0, 0]	n/a	FR1	1	R1297T
2188.865	0.016	2196530	START	n/a	n/a	n/a	-999	18	[-999, -999, -999]	n/a	FR1	1	R1297T
2188.881	2.884	2196546	PROB	2.884	n/a	n/a	-999	18	[7, 3, 2]	12	FR1	1	R1297T
2191.765	3.366	2199430	PROB	3.366	n/a	n/a	-999	18	[8, 8, 4]	20	FR1	1	R1297T
2195.131	3.569	2202796	PROB	3.569	n/a	n/a	-999	18	[2, 4, 2]	8	FR1	1	R1297T
2198.7	3.233	2206365	PROB	3.233	n/a	n/a	-999	18	[4, 2, 2]	8	FR1	1	R1297T
2201.933	3.083	2209597	PROB	3.083	n/a	n/a	-999	18	[5, 7, 9]	21	FR1	1	R1297T
2205.016	8.056	2212680	PROB	8.056	n/a	n/a	-999	18	[9, 7, 8]	24	FR1	1	R1297T
2213.072	0.013	2220736	STOP	n/a	n/a	n/a	-999	18	[-999, -999, -999]	n/a	FR1	1	R1297T
2213.085	0.533	2220749	DISTRACT_END	n/a	n/a	n/a	-999	18	[0, 0, 0]	n/a	FR1	1	R1297T
2213.618	0.518	2221282	RETRIEVAL_ORIENT	n/a	n/a	n/a	-999	18	[0, 0, 0]	n/a	FR1	1	R1297T
2214.136	22.9	2221800	REC_START	n/a	n/a	n/a	-999	18	[0, 0, 0]	n/a	FR1	1	R1297T
2237.036	7.113	2244698	REC_WORD_VV	7.113	n/a	<>	-999	18	[0, 0, 0]	n/a	FR1	1	R1297T
2244.149	5.342	2251811	REC_END	n/a	n/a	n/a	-999	18	[0, 0, 0]	n/a	FR1	1	R1297T
2249.491	0.5	2257153	TRIAL	n/a	n/a	n/a	-999	19	[0, 0, 0]	n/a	FR1	1	R1297T
2249.991	10.428	2257653	COUNTDOWN_START	n/a	n/a	n/a	-999	19	[0, 0, 0]	n/a	FR1	1	R1297T
2260.419	0.007	2268080	COUNTDOWN_END	n/a	n/a	n/a	-999	19	[0, 0, 0]	n/a	FR1	1	R1297T
2260.426	1.618	2268087	ORIENT	n/a	n/a	n/a	-999	19	[0, 0, 0]	n/a	FR1	1	R1297T
2262.044	1.916	2269705	ORIENT_OFF	n/a	n/a	n/a	-999	19	[0, 0, 0]	n/a	FR1	1	R1297T
2263.96	1.617	2271621	WORD	n/a	wordpools/wordpool_EN.txt	ICE	1	19	[0, 0, 0]	n/a	FR1	1	R1297T
2265.577	0.984	2273238	WORD_OFF	n/a	n/a	ICE	1	19	[0, 0, 0]	n/a	FR1	1	R1297T
2266.561	1.617	2274222	WORD	n/a	wordpools/wordpool_EN.txt	MAZE	2	19	[0, 0, 0]	n/a	FR1	1	R1297T
2268.178	0.783	2275839	WORD_OFF	n/a	n/a	MAZE	2	19	[0, 0, 0]	n/a	FR1	1	R1297T
2268.961	1.617	2276621	WORD	n/a	wordpools/wordpool_EN.txt	SAIL	3	19	[0, 0, 0]	n/a	FR1	1	R1297T
2270.578	1.001	2278238	WORD_OFF	n/a	n/a	SAIL	3	19	[0, 0, 0]	n/a	FR1	1	R1297T
2271.579	1.616	2279239	WORD	n/a	wordpools/wordpool_EN.txt	TOOTH	4	19	[0, 0, 0]	n/a	FR1	1	R1297T
2273.195	0.901	2280855	WORD_OFF	n/a	n/a	TOOTH	4	19	[0, 0, 0]	n/a	FR1	1	R1297T
2274.096	1.618	2281756	WORD	n/a	wordpools/wordpool_EN.txt	TOY	5	19	[0, 0, 0]	n/a	FR1	1	R1297T
2275.714	0.815	2283374	WORD_OFF	n/a	n/a	TOY	5	19	[0, 0, 0]	n/a	FR1	1	R1297T
2276.529	1.617	2284189	WORD	n/a	wordpools/wordpool_EN.txt	ARM	6	19	[0, 0, 0]	n/a	FR1	1	R1297T
2278.146	0.85	2285806	WORD_OFF	n/a	n/a	ARM	6	19	[0, 0, 0]	n/a	FR1	1	R1297T
2278.996	1.618	2286656	WORD	n/a	wordpools/wordpool_EN.txt	FLAG	7	19	[0, 0, 0]	n/a	FR1	1	R1297T
2280.614	0.8	2288274	WORD_OFF	n/a	n/a	FLAG	7	19	[0, 0, 0]	n/a	FR1	1	R1297T
2281.414	1.617	2289074	WORD	n/a	wordpools/wordpool_EN.txt	LAND	8	19	[0, 0, 0]	n/a	FR1	1	R1297T
2283.031	0.784	2290691	WORD_OFF	n/a	n/a	LAND	8	19	[0, 0, 0]	n/a	FR1	1	R1297T
2283.815	1.616	2291475	WORD	n/a	wordpools/wordpool_EN.txt	RAKE	9	19	[0, 0, 0]	n/a	FR1	1	R1297T
2285.431	0.883	2293090	WORD_OFF	n/a	n/a	RAKE	9	19	[0, 0, 0]	n/a	FR1	1	R1297T
2286.314	1.617	2293973	WORD	n/a	wordpools/wordpool_EN.txt	SNOW	10	19	[0, 0, 0]	n/a	FR1	1	R1297T
2287.931	0.768	2295590	WORD_OFF	n/a	n/a	SNOW	10	19	[0, 0, 0]	n/a	FR1	1	R1297T
2288.699	1.616	2296358	WORD	n/a	wordpools/wordpool_EN.txt	RAIN	11	19	[0, 0, 0]	n/a	FR1	1	R1297T
2290.315	0.917	2297974	WORD_OFF	n/a	n/a	RAIN	11	19	[0, 0, 0]	n/a	FR1	1	R1297T
2291.232	1.618	2298891	WORD	n/a	wordpools/wordpool_EN.txt	CAT	12	19	[0, 0, 0]	n/a	FR1	1	R1297T
2292.85	0.0	2300509	WORD_OFF	n/a	n/a	CAT	12	19	[0, 0, 0]	n/a	FR1	1	R1297T
2292.85	0.001	2300509	DISTRACT_START	n/a	n/a	n/a	-999	19	[0, 0, 0]	n/a	FR1	1	R1297T
2292.851	0.016	2300510	START	n/a	n/a	n/a	-999	19	[-999, -999, -999]	n/a	FR1	1	R1297T
2292.867	11.351	2300526	PROB	11.351	n/a	n/a	-999	19	[7, 8, 6]	20	FR1	1	R1297T
2304.218	3.784	2311876	PROB	3.784	n/a	n/a	-999	19	[7, 3, 8]	18	FR1	1	R1297T
2308.002	3.701	2315660	PROB	3.701	n/a	n/a	-999	19	[3, 1, 3]	7	FR1	1	R1297T
2311.703	2.658	2319361	PROB	2.658	n/a	n/a	-999	19	[6, 1, 8]	15	FR1	1	R1297T
2314.361	0.009	2322019	STOP	n/a	n/a	n/a	-999	19	[-999, -999, -999]	n/a	FR1	1	R1297T
2314.37	0.583	2322028	DISTRACT_END	n/a	n/a	n/a	-999	19	[0, 0, 0]	n/a	FR1	1	R1297T
2314.953	0.517	2322611	RETRIEVAL_ORIENT	n/a	n/a	n/a	-999	19	[0, 0, 0]	n/a	FR1	1	R1297T
2315.47	2.932	2323128	REC_START	n/a	n/a	n/a	-999	19	[0, 0, 0]	n/a	FR1	1	R1297T
2318.402	0.675	2326059	REC_WORD	0.675	n/a	RAIN	-999	19	[0, 0, 0]	n/a	FR1	1	R1297T
2319.077	1.172	2326734	REC_WORD	1.172	n/a	SNOW	-999	19	[0, 0, 0]	n/a	FR1	1	R1297T
2320.249	0.914	2327906	REC_WORD	0.914	n/a	ICE	-999	19	[0, 0, 0]	n/a	FR1	1	R1297T
2321.163	1.348	2328820	REC_WORD	1.348	n/a	LAND	-999	19	[0, 0, 0]	n/a	FR1	1	R1297T
2322.511	22.971	2330168	REC_WORD	22.971	n/a	RAKE	-999	19	[0, 0, 0]	n/a	FR1	1	R1297T
2345.482	11.313	2353138	REC_END	n/a	n/a	n/a	-999	19	[0, 0, 0]	n/a	FR1	1	R1297T
2356.795	0.5	2364450	TRIAL	n/a	n/a	n/a	-999	20	[0, 0, 0]	n/a	FR1	1	R1297T
2357.295	10.428	2364950	COUNTDOWN_START	n/a	n/a	n/a	-999	20	[0, 0, 0]	n/a	FR1	1	R1297T
2367.723	0.007	2375378	COUNTDOWN_END	n/a	n/a	n/a	-999	20	[0, 0, 0]	n/a	FR1	1	R1297T
2367.73	1.616	2375385	ORIENT	n/a	n/a	n/a	-999	20	[0, 0, 0]	n/a	FR1	1	R1297T
2369.346	2.267	2377000	ORIENT_OFF	n/a	n/a	n/a	-999	20	[0, 0, 0]	n/a	FR1	1	R1297T
2371.613	1.617	2379267	WORD	n/a	wordpools/wordpool_EN.txt	NET	1	20	[0, 0, 0]	n/a	FR1	1	R1297T
2373.23	0.8	2380884	WORD_OFF	n/a	n/a	NET	1	20	[0, 0, 0]	n/a	FR1	1	R1297T
2374.03	1.617	2381684	WORD	n/a	wordpools/wordpool_EN.txt	BRANCH	2	20	[0, 0, 0]	n/a	FR1	1	R1297T
2375.647	0.867	2383301	WORD_OFF	n/a	n/a	BRANCH	2	20	[0, 0, 0]	n/a	FR1	1	R1297T
2376.514	1.617	2384168	WORD	n/a	wordpools/wordpool_EN.txt	GRAPE	3	20	[0, 0, 0]	n/a	FR1	1	R1297T
2378.131	0.817	2385785	WORD_OFF	n/a	n/a	GRAPE	3	20	[0, 0, 0]	n/a	FR1	1	R1297T
2378.948	1.617	2386602	WORD	n/a	wordpools/wordpool_EN.txt	SHEEP	4	20	[0, 0, 0]	n/a	FR1	1	R1297T
2380.565	0.767	2388219	WORD_OFF	n/a	n/a	SHEEP	4	20	[0, 0, 0]	n/a	FR1	1	R1297T
2381.332	1.617	2388986	WORD	n/a	wordpools/wordpool_EN.txt	JAIL	5	20	[0, 0, 0]	n/a	FR1	1	R1297T
2382.949	1.0	2390603	WORD_OFF	n/a	n/a	JAIL	5	20	[0, 0, 0]	n/a	FR1	1	R1297T
2383.949	1.617	2391603	WORD	n/a	wordpools/wordpool_EN.txt	BREAD	6	20	[0, 0, 0]	n/a	FR1	1	R1297T
2385.566	0.883	2393219	WORD_OFF	n/a	n/a	BREAD	6	20	[0, 0, 0]	n/a	FR1	1	R1297T
2386.449	1.617	2394102	WORD	n/a	wordpools/wordpool_EN.txt	THREAD	7	20	[0, 0, 0]	n/a	FR1	1	R1297T
2388.066	0.785	2395719	WORD_OFF	n/a	n/a	THREAD	7	20	[0, 0, 0]	n/a	FR1	1	R1297T
2388.851	1.616	2396504	WORD	n/a	wordpools/wordpool_EN.txt	FLUTE	8	20	[0, 0, 0]	n/a	FR1	1	R1297T
2390.467	0.983	2398120	WORD_OFF	n/a	n/a	FLUTE	8	20	[0, 0, 0]	n/a	FR1	1	R1297T
2391.45	1.617	2399103	WORD	n/a	wordpools/wordpool_EN.txt	GEESE	9	20	[0, 0, 0]	n/a	FR1	1	R1297T
2393.067	0.835	2400720	WORD_OFF	n/a	n/a	GEESE	9	20	[0, 0, 0]	n/a	FR1	1	R1297T
2393.902	1.616	2401555	WORD	n/a	wordpools/wordpool_EN.txt	BEACH	10	20	[0, 0, 0]	n/a	FR1	1	R1297T
2395.518	0.85	2403171	WORD_OFF	n/a	n/a	BEACH	10	20	[0, 0, 0]	n/a	FR1	1	R1297T
2396.368	1.617	2404021	WORD	n/a	wordpools/wordpool_EN.txt	LEAF	11	20	[0, 0, 0]	n/a	FR1	1	R1297T
2397.985	0.901	2405638	WORD_OFF	n/a	n/a	LEAF	11	20	[0, 0, 0]	n/a	FR1	1	R1297T
2398.886	1.616	2406539	WORD	n/a	wordpools/wordpool_EN.txt	ROOM	12	20	[0, 0, 0]	n/a	FR1	1	R1297T
2400.502	0.0	2408155	WORD_OFF	n/a	n/a	ROOM	12	20	[0, 0, 0]	n/a	FR1	1	R1297T
2400.502	0.001	2408155	DISTRACT_START	n/a	n/a	n/a	-999	20	[0, 0, 0]	n/a	FR1	1	R1297T
2400.503	0.016	2408156	START	n/a	n/a	n/a	-999	20	[-999, -999, -999]	n/a	FR1	1	R1297T
2400.519	4.567	2408172	PROB	4.567	n/a	n/a	-999	20	[5, 6, 6]	17	FR1	1	R1297T
2405.086	9.102	2412738	PROB	9.102	n/a	n/a	-999	20	[5, 9, 8]	22	FR1	1	R1297T
2414.188	3.35	2421840	PROB	3.35	n/a	n/a	-999	20	[4, 2, 7]	13	FR1	1	R1297T
2417.538	3.086	2425190	PROB	3.086	n/a	n/a	-999	20	[2, 5, 5]	12	FR1	1	R1297T
2420.624	0.015	2428275	STOP	n/a	n/a	n/a	-999	20	[-999, -999, -999]	n/a	FR1	1	R1297T
2420.639	0.567	2428290	DISTRACT_END	n/a	n/a	n/a	-999	20	[0, 0, 0]	n/a	FR1	1	R1297T
2421.206	0.518	2428857	RETRIEVAL_ORIENT	n/a	n/a	n/a	-999	20	[0, 0, 0]	n/a	FR1	1	R1297T
2421.724	29.575	2429375	REC_START	n/a	n/a	n/a	-999	20	[0, 0, 0]	n/a	FR1	1	R1297T
2451.299	0.437	2458949	REC_WORD_VV	0.437	n/a	<>	-999	20	[0, 0, 0]	n/a	FR1	1	R1297T
2451.736	5.46	2459385	REC_END	n/a	n/a	n/a	-999	20	[0, 0, 0]	n/a	FR1	1	R1297T
2457.196	0.5	2464845	TRIAL	n/a	n/a	n/a	-999	21	[0, 0, 0]	n/a	FR1	1	R1297T
2457.696	10.428	2465345	COUNTDOWN_START	n/a	n/a	n/a	-999	21	[0, 0, 0]	n/a	FR1	1	R1297T
2468.124	0.007	2475773	COUNTDOWN_END	n/a	n/a	n/a	-999	21	[0, 0, 0]	n/a	FR1	1	R1297T
2468.131	1.618	2475780	ORIENT	n/a	n/a	n/a	-999	21	[0, 0, 0]	n/a	FR1	1	R1297T
2469.749	2.117	2477397	ORIENT_OFF	n/a	n/a	n/a	-999	21	[0, 0, 0]	n/a	FR1	1	R1297T
2471.866	1.616	2479514	WORD	n/a	wordpools/wordpool_EN.txt	CRANE	1	21	[0, 0, 0]	n/a	FR1	1	R1297T
2473.482	0.966	2481130	WORD_OFF	n/a	n/a	CRANE	1	21	[0, 0, 0]	n/a	FR1	1	R1297T
2474.448	1.618	2482096	WORD	n/a	wordpools/wordpool_EN.txt	SNAIL	2	21	[0, 0, 0]	n/a	FR1	1	R1297T
2476.066	0.784	2483714	WORD_OFF	n/a	n/a	SNAIL	2	21	[0, 0, 0]	n/a	FR1	1	R1297T
2476.85	1.616	2484498	WORD	n/a	wordpools/wordpool_EN.txt	PARK	3	21	[0, 0, 0]	n/a	FR1	1	R1297T
2478.466	0.884	2486114	WORD_OFF	n/a	n/a	PARK	3	21	[0, 0, 0]	n/a	FR1	1	R1297T
2479.35	1.617	2486998	WORD	n/a	wordpools/wordpool_EN.txt	HILL	4	21	[0, 0, 0]	n/a	FR1	1	R1297T
2480.967	0.966	2488615	WORD_OFF	n/a	n/a	HILL	4	21	[0, 0, 0]	n/a	FR1	1	R1297T
2481.933	1.617	2489581	WORD	n/a	wordpools/wordpool_EN.txt	BALL	5	21	[0, 0, 0]	n/a	FR1	1	R1297T
2483.55	0.851	2491198	WORD_OFF	n/a	n/a	BALL	5	21	[0, 0, 0]	n/a	FR1	1	R1297T
2484.401	1.617	2492049	WORD	n/a	wordpools/wordpool_EN.txt	HEART	6	21	[0, 0, 0]	n/a	FR1	1	R1297T
2486.018	0.95	2493665	WORD_OFF	n/a	n/a	HEART	6	21	[0, 0, 0]	n/a	FR1	1	R1297T
2486.968	1.617	2494615	WORD	n/a	wordpools/wordpool_EN.txt	FOX	7	21	[0, 0, 0]	n/a	FR1	1	R1297T
2488.585	0.85	2496232	WORD_OFF	n/a	n/a	FOX	7	21	[0, 0, 0]	n/a	FR1	1	R1297T
2489.435	1.617	2497082	WORD	n/a	wordpools/wordpool_EN.txt	BANK	8	21	[0, 0, 0]	n/a	FR1	1	R1297T
2491.052	0.768	2498699	WORD_OFF	n/a	n/a	BANK	8	21	[0, 0, 0]	n/a	FR1	1	R1297T
2491.82	1.616	2499467	WORD	n/a	wordpools/wordpool_EN.txt	SEA	9	21	[0, 0, 0]	n/a	FR1	1	R1297T
2493.436	0.916	2501083	WORD_OFF	n/a	n/a	SEA	9	21	[0, 0, 0]	n/a	FR1	1	R1297T
2494.352	1.617	2501999	WORD	n/a	wordpools/wordpool_EN.txt	WEB	10	21	[0, 0, 0]	n/a	FR1	1	R1297T
2495.969	0.868	2503616	WORD_OFF	n/a	n/a	WEB	10	21	[0, 0, 0]	n/a	FR1	1	R1297T
2496.837	1.616	2504484	WORD	n/a	wordpools/wordpool_EN.txt	BLUSH	11	21	[0, 0, 0]	n/a	FR1	1	R1297T
2498.453	0.834	2506100	WORD_OFF	n/a	n/a	BLUSH	11	21	[0, 0, 0]	n/a	FR1	1	R1297T
2499.287	1.618	2506934	WORD	n/a	wordpools/wordpool_EN.txt	PEARL	12	21	[0, 0, 0]	n/a	FR1	1	R1297T
2500.905	0.0	2508552	WORD_OFF	n/a	n/a	PEARL	12	21	[0, 0, 0]	n/a	FR1	1	R1297T
2500.905	0.0	2508552	DISTRACT_START	n/a	n/a	n/a	-999	21	[0, 0, 0]	n/a	FR1	1	R1297T
2500.905	0.016	2508552	START	n/a	n/a	n/a	-999	21	[-999, -999, -999]	n/a	FR1	1	R1297T
2500.921	2.967	2508568	PROB	2.967	n/a	n/a	-999	21	[1, 4, 6]	11	FR1	1	R1297T
2503.888	2.6	2511534	PROB	2.6	n/a	n/a	-999	21	[5, 8, 8]	21	FR1	1	R1297T
2506.488	3.767	2514134	PROB	3.767	n/a	n/a	-999	21	[3, 6, 8]	17	FR1	1	R1297T
2510.255	3.701	2517901	PROB	3.701	n/a	n/a	-999	21	[9, 7, 2]	18	FR1	1	R1297T
2513.956	2.935	2521602	PROB	2.935	n/a	n/a	-999	21	[3, 5, 8]	16	FR1	1	R1297T
2516.891	2.633	2524537	PROB	2.633	n/a	n/a	-999	21	[9, 6, 4]	19	FR1	1	R1297T
2519.524	2.716	2527169	PROB	2.716	n/a	n/a	-999	21	[5, 4, 4]	13	FR1	1	R1297T
2522.24	0.017	2529885	STOP	n/a	n/a	n/a	-999	21	[-999, -999, -999]	n/a	FR1	1	R1297T
2522.257	0.651	2529902	DISTRACT_END	n/a	n/a	n/a	-999	21	[0, 0, 0]	n/a	FR1	1	R1297T
2522.908	0.517	2530553	RETRIEVAL_ORIENT	n/a	n/a	n/a	-999	21	[0, 0, 0]	n/a	FR1	1	R1297T
2523.425	5.356	2531070	REC_START	n/a	n/a	n/a	-999	21	[0, 0, 0]	n/a	FR1	1	R1297T
2528.781	24.656	2536426	REC_WORD	24.656	n/a	PEARL	-999	21	[0, 0, 0]	n/a	FR1	1	R1297T
2553.437	5.594	2561080	REC_END	n/a	n/a	n/a	-999	21	[0, 0, 0]	n/a	FR1	1	R1297T
2559.031	0.5	2566674	TRIAL	n/a	n/a	n/a	-999	22	[0, 0, 0]	n/a	FR1	1	R1297T
2559.531	10.428	2567174	COUNTDOWN_START	n/a	n/a	n/a	-999	22	[0, 0, 0]	n/a	FR1	1	R1297T
2569.959	0.007	2577601	COUNTDOWN_END	n/a	n/a	n/a	-999	22	[0, 0, 0]	n/a	FR1	1	R1297T
2569.966	1.617	2577608	ORIENT	n/a	n/a	n/a	-999	22	[0, 0, 0]	n/a	FR1	1	R1297T
2571.583	2.084	2579225	ORIENT_OFF	n/a	n/a	n/a	-999	22	[0, 0, 0]	n/a	FR1	1	R1297T
2573.667	1.617	2581309	WORD	n/a	wordpools/wordpool_EN.txt	WING	1	22	[0, 0, 0]	n/a	FR1	1	R1297T
2575.284	0.85	2582926	WORD_OFF	n/a	n/a	WING	1	22	[0, 0, 0]	n/a	FR1	1	R1297T
2576.134	1.618	2583776	WORD	n/a	wordpools/wordpool_EN.txt	CASH	2	22	[0, 0, 0]	n/a	FR1	1	R1297T
2577.752	0.849	2585394	WORD_OFF	n/a	n/a	CASH	2	22	[0, 0, 0]	n/a	FR1	1	R1297T
2578.601	1.617	2586243	WORD	n/a	wordpools/wordpool_EN.txt	WORM	3	22	[0, 0, 0]	n/a	FR1	1	R1297T
2580.218	0.933	2587860	WORD_OFF	n/a	n/a	WORM	3	22	[0, 0, 0]	n/a	FR1	1	R1297T
2581.151	1.602	2588793	WORD	n/a	wordpools/wordpool_EN.txt	HAT	4	22	[0, 0, 0]	n/a	FR1	1	R1297T
2582.753	0.816	2590395	WORD_OFF	n/a	n/a	HAT	4	22	[0, 0, 0]	n/a	FR1	1	R1297T
2583.569	1.617	2591211	WORD	n/a	wordpools/wordpool_EN.txt	SEAL	5	22	[0, 0, 0]	n/a	FR1	1	R1297T
2585.186	0.783	2592827	WORD_OFF	n/a	n/a	SEAL	5	22	[0, 0, 0]	n/a	FR1	1	R1297T
2585.969	1.617	2593610	WORD	n/a	wordpools/wordpool_EN.txt	STAR	6	22	[0, 0, 0]	n/a	FR1	1	R1297T
2587.586	0.933	2595227	WORD_OFF	n/a	n/a	STAR	6	22	[0, 0, 0]	n/a	FR1	1	R1297T
2588.519	1.617	2596160	WORD	n/a	wordpools/wordpool_EN.txt	ANT	7	22	[0, 0, 0]	n/a	FR1	1	R1297T
2590.136	0.95	2597777	WORD_OFF	n/a	n/a	ANT	7	22	[0, 0, 0]	n/a	FR1	1	R1297T
2591.086	1.602	2598727	WORD	n/a	wordpools/wordpool_EN.txt	SALT	8	22	[0, 0, 0]	n/a	FR1	1	R1297T
2592.688	0.983	2600329	WORD_OFF	n/a	n/a	SALT	8	22	[0, 0, 0]	n/a	FR1	1	R1297T
2593.671	1.616	2601312	WORD	n/a	wordpools/wordpool_EN.txt	SMOKE	9	22	[0, 0, 0]	n/a	FR1	1	R1297T
2595.287	0.801	2602928	WORD_OFF	n/a	n/a	SMOKE	9	22	[0, 0, 0]	n/a	FR1	1	R1297T
2596.088	1.618	2603729	WORD	n/a	wordpools/wordpool_EN.txt	DART	10	22	[0, 0, 0]	n/a	FR1	1	R1297T
2597.706	0.799	2605347	WORD_OFF	n/a	n/a	DART	10	22	[0, 0, 0]	n/a	FR1	1	R1297T
2598.505	1.617	2606146	WORD	n/a	wordpools/wordpool_EN.txt	CORN	11	22	[0, 0, 0]	n/a	FR1	1	R1297T
2600.122	0.883	2607763	WORD_OFF	n/a	n/a	CORN	11	22	[0, 0, 0]	n/a	FR1	1	R1297T
2601.005	1.617	2608646	WORD	n/a	wordpools/wordpool_EN.txt	GLOVE	12	22	[0, 0, 0]	n/a	FR1	1	R1297T
2602.622	0.0	2610262	DISTRACT_START	n/a	n/a	n/a	-999	22	[0, 0, 0]	n/a	FR1	1	R1297T
2602.622	0.001	2610262	WORD_OFF	n/a	n/a	GLOVE	12	22	[0, 0, 0]	n/a	FR1	1	R1297T
2602.623	0.016	2610263	START	n/a	n/a	n/a	-999	22	[-999, -999, -999]	n/a	FR1	1	R1297T
2602.639	5.617	2610279	PROB	5.617	n/a	n/a	-999	22	[9, 3, 6]	18	FR1	1	R1297T
2608.256	6.602	2615896	PROB	6.602	n/a	n/a	-999	22	[1, 6, 2]	9	FR1	1	R1297T
2614.858	7.251	2622498	PROB	7.251	n/a	n/a	-999	22	[4, 2, 8]	16	FR1	1	R1297T
2622.109	5.172	2629748	PROB	5.172	n/a	n/a	-999	22	[3, 5, 7]	15	FR1	1	R1297T
2627.281	0.012	2634920	STOP	n/a	n/a	n/a	-999	22	[-999, -999, -999]	n/a	FR1	1	R1297T
2627.293	0.667	2634932	DISTRACT_END	n/a	n/a	n/a	-999	22	[0, 0, 0]	n/a	FR1	1	R1297T
2627.96	0.517	2635599	RETRIEVAL_ORIENT	n/a	n/a	n/a	-999	22	[0, 0, 0]	n/a	FR1	1	R1297T
2628.477	1.703	2636116	REC_START	n/a	n/a	n/a	-999	22	[0, 0, 0]	n/a	FR1	1	R1297T
2630.18	1.039	2637819	REC_WORD	1.039	n/a	SMOKE	-999	22	[0, 0, 0]	n/a	FR1	1	R1297T
2631.219	2.594	2638858	REC_WORD	2.594	n/a	GLOVE	-999	22	[0, 0, 0]	n/a	FR1	1	R1297T
2633.813	3.523	2641452	REC_WORD	3.523	n/a	SEAL	-999	22	[0, 0, 0]	n/a	FR1	1	R1297T
2637.336	4.699	2644974	REC_WORD	4.699	n/a	SALT	-999	22	[0, 0, 0]	n/a	FR1	1	R1297T
2642.035	16.454	2649673	REC_WORD	16.454	n/a	SNAIL	-999	22	[0, 0, 0]	n/a	FR1	1	R1297T
2658.489	6.161	2666126	REC_END	n/a	n/a	n/a	-999	22	[0, 0, 0]	n/a	FR1	1	R1297T
2664.65	0.5	2672287	TRIAL	n/a	n/a	n/a	-999	23	[0, 0, 0]	n/a	FR1	1	R1297T
2665.15	10.428	2672787	COUNTDOWN_START	n/a	n/a	n/a	-999	23	[0, 0, 0]	n/a	FR1	1	R1297T
2675.578	0.007	2683214	COUNTDOWN_END	n/a	n/a	n/a	-999	23	[0, 0, 0]	n/a	FR1	1	R1297T
2675.585	1.617	2683221	ORIENT	n/a	n/a	n/a	-999	23	[0, 0, 0]	n/a	FR1	1	R1297T
2677.202	2.184	2684838	ORIENT_OFF	n/a	n/a	n/a	-999	23	[0, 0, 0]	n/a	FR1	1	R1297T
2679.386	1.617	2687022	WORD	n/a	wordpools/wordpool_EN.txt	SOAP	1	23	[0, 0, 0]	n/a	FR1	1	R1297T
2681.003	0.768	2688639	WORD_OFF	n/a	n/a	SOAP	1	23	[0, 0, 0]	n/a	FR1	1	R1297T
2681.771	1.616	2689407	WORD	n/a	wordpools/wordpool_EN.txt	ARK	2	23	[0, 0, 0]	n/a	FR1	1	R1297T
2683.387	0.783	2691023	WORD_OFF	n/a	n/a	ARK	2	23	[0, 0, 0]	n/a	FR1	1	R1297T
2684.17	1.601	2691806	WORD	n/a	wordpools/wordpool_EN.txt	BOMB	3	23	[0, 0, 0]	n/a	FR1	1	R1297T
2685.771	0.833	2693406	WORD_OFF	n/a	n/a	BOMB	3	23	[0, 0, 0]	n/a	FR1	1	R1297T
2686.604	1.617	2694239	WORD	n/a	wordpools/wordpool_EN.txt	SQUARE	4	23	[0, 0, 0]	n/a	FR1	1	R1297T
2688.221	0.85	2695856	WORD_OFF	n/a	n/a	SQUARE	4	23	[0, 0, 0]	n/a	FR1	1	R1297T
2689.071	1.618	2696706	WORD	n/a	wordpools/wordpool_EN.txt	FOAM	5	23	[0, 0, 0]	n/a	FR1	1	R1297T
2690.689	0.899	2698324	WORD_OFF	n/a	n/a	FOAM	5	23	[0, 0, 0]	n/a	FR1	1	R1297T
2691.588	1.617	2699223	WORD	n/a	wordpools/wordpool_EN.txt	SIGN	6	23	[0, 0, 0]	n/a	FR1	1	R1297T
2693.205	0.984	2700840	WORD_OFF	n/a	n/a	SIGN	6	23	[0, 0, 0]	n/a	FR1	1	R1297T
2694.189	1.618	2701824	WORD	n/a	wordpools/wordpool_EN.txt	LIP	7	23	[0, 0, 0]	n/a	FR1	1	R1297T
2695.807	0.849	2703442	WORD_OFF	n/a	n/a	LIP	7	23	[0, 0, 0]	n/a	FR1	1	R1297T
2696.656	1.617	2704291	WORD	n/a	wordpools/wordpool_EN.txt	STORM	8	23	[0, 0, 0]	n/a	FR1	1	R1297T
2698.273	0.867	2705908	WORD_OFF	n/a	n/a	STORM	8	23	[0, 0, 0]	n/a	FR1	1	R1297T
2699.14	1.618	2706775	WORD	n/a	wordpools/wordpool_EN.txt	PIN	9	23	[0, 0, 0]	n/a	FR1	1	R1297T
2700.758	0.95	2708393	WORD_OFF	n/a	n/a	PIN	9	23	[0, 0, 0]	n/a	FR1	1	R1297T
2701.708	1.616	2709342	WORD	n/a	wordpools/wordpool_EN.txt	MOUSE	10	23	[0, 0, 0]	n/a	FR1	1	R1297T
2703.324	0.8	2710958	WORD_OFF	n/a	n/a	MOUSE	10	23	[0, 0, 0]	n/a	FR1	1	R1297T
2704.124	1.618	2711758	WORD	n/a	wordpools/wordpool_EN.txt	BAG	11	23	[0, 0, 0]	n/a	FR1	1	R1297T
2705.742	1.0	2713376	WORD_OFF	n/a	n/a	BAG	11	23	[0, 0, 0]	n/a	FR1	1	R1297T
2706.742	1.616	2714376	WORD	n/a	wordpools/wordpool_EN.txt	LAWN	12	23	[0, 0, 0]	n/a	FR1	1	R1297T
2708.358	0.0	2715992	WORD_OFF	n/a	n/a	LAWN	12	23	[0, 0, 0]	n/a	FR1	1	R1297T
2708.358	0.001	2715992	DISTRACT_START	n/a	n/a	n/a	-999	23	[0, 0, 0]	n/a	FR1	1	R1297T
2708.359	0.016	2715993	START	n/a	n/a	n/a	-999	23	[-999, -999, -999]	n/a	FR1	1	R1297T
2708.375	7.701	2716009	PROB	7.701	n/a	n/a	-999	23	[5, 2, 4]	11	FR1	1	R1297T
2716.076	2.751	2723710	PROB	2.751	n/a	n/a	-999	23	[7, 2, 4]	13	FR1	1	R1297T
2718.827	3.001	2726460	PROB	3.001	n/a	n/a	-999	23	[8, 8, 4]	20	FR1	1	R1297T
2721.828	2.783	2729461	PROB	2.783	n/a	n/a	-999	23	[2, 2, 4]	8	FR1	1	R1297T
2724.611	2.251	2732244	PROB	2.251	n/a	n/a	-999	23	[9, 1, 6]	16	FR1	1	R1297T
2726.862	3.218	2734495	PROB	3.218	n/a	n/a	-999	23	[5, 4, 8]	17	FR1	1	R1297T
2730.08	0.015	2737713	STOP	n/a	n/a	n/a	-999	23	[-999, -999, -999]	n/a	FR1	1	R1297T
2730.095	0.635	2737728	DISTRACT_END	n/a	n/a	n/a	-999	23	[0, 0, 0]	n/a	FR1	1	R1297T
2730.73	0.516	2738363	RETRIEVAL_ORIENT	n/a	n/a	n/a	-999	23	[0, 0, 0]	n/a	FR1	1	R1297T
2731.246	1.62	2738879	REC_START	n/a	n/a	n/a	-999	23	[0, 0, 0]	n/a	FR1	1	R1297T
2732.866	0.765	2740499	REC_WORD	0.765	n/a	ARK	-999	23	[0, 0, 0]	n/a	FR1	1	R1297T
2733.631	1.031	2741264	REC_WORD	1.031	n/a	STONE	-999	23	[0, 0, 0]	n/a	FR1	1	R1297T
2734.662	2.774	2742295	REC_WORD	2.774	n/a	STORM	-999	23	[0, 0, 0]	n/a	FR1	1	R1297T
2737.436	23.821	2745068	REC_WORD	23.821	n/a	MOUSE	-999	23	[0, 0, 0]	n/a	FR1	1	R1297T
2761.257	5.078	2768888	REC_END	n/a	n/a	n/a	-999	23	[0, 0, 0]	n/a	FR1	1	R1297T
2766.335	0.5	2773966	TRIAL	n/a	n/a	n/a	-999	24	[0, 0, 0]	n/a	FR1	1	R1297T
2766.835	10.428	2774466	COUNTDOWN_START	n/a	n/a	n/a	-999	24	[0, 0, 0]	n/a	FR1	1	R1297T
2777.263	0.008	2784893	COUNTDOWN_END	n/a	n/a	n/a	-999	24	[0, 0, 0]	n/a	FR1	1	R1297T
2777.271	1.617	2784901	ORIENT	n/a	n/a	n/a	-999	24	[0, 0, 0]	n/a	FR1	1	R1297T
2778.888	2.116	2786518	ORIENT_OFF	n/a	n/a	n/a	-999	24	[0, 0, 0]	n/a	FR1	1	R1297T
2781.004	1.617	2788634	WORD	n/a	wordpools/wordpool_EN.txt	GATE	1	24	[0, 0, 0]	n/a	FR1	1	R1297T
2782.621	0.951	2790251	WORD_OFF	n/a	n/a	GATE	1	24	[0, 0, 0]	n/a	FR1	1	R1297T
2783.572	1.617	2791202	WORD	n/a	wordpools/wordpool_EN.txt	WHEEL	2	24	[0, 0, 0]	n/a	FR1	1	R1297T
2785.189	0.95	2792818	WORD_OFF	n/a	n/a	WHEEL	2	24	[0, 0, 0]	n/a	FR1	1	R1297T
2786.139	1.618	2793768	WORD	n/a	wordpools/wordpool_EN.txt	MUD	3	24	[0, 0, 0]	n/a	FR1	1	R1297T
2787.757	1.0	2795386	WORD_OFF	n/a	n/a	MUD	3	24	[0, 0, 0]	n/a	FR1	1	R1297T
2788.757	1.616	2796386	WORD	n/a	wordpools/wordpool_EN.txt	ROAD	4	24	[0, 0, 0]	n/a	FR1	1	R1297T
2790.373	0.783	2798002	WORD_OFF	n/a	n/a	ROAD	4	24	[0, 0, 0]	n/a	FR1	1	R1297T
2791.156	1.601	2798785	WORD	n/a	wordpools/wordpool_EN.txt	FOOT	5	24	[0, 0, 0]	n/a	FR1	1	R1297T
2792.757	0.866	2800386	WORD_OFF	n/a	n/a	FOOT	5	24	[0, 0, 0]	n/a	FR1	1	R1297T
2793.623	1.617	2801252	WORD	n/a	wordpools/wordpool_EN.txt	TRAY	6	24	[0, 0, 0]	n/a	FR1	1	R1297T
2795.24	0.867	2802869	WORD_OFF	n/a	n/a	TRAY	6	24	[0, 0, 0]	n/a	FR1	1	R1297T
2796.107	1.618	2803736	WORD	n/a	wordpools/wordpool_EN.txt	FARM	7	24	[0, 0, 0]	n/a	FR1	1	R1297T
2797.725	0.899	2805354	WORD_OFF	n/a	n/a	FARM	7	24	[0, 0, 0]	n/a	FR1	1	R1297T
2798.624	1.617	2806253	WORD	n/a	wordpools/wordpool_EN.txt	MOUTH	8	24	[0, 0, 0]	n/a	FR1	1	R1297T
2800.241	0.917	2807870	WORD_OFF	n/a	n/a	MOUTH	8	24	[0, 0, 0]	n/a	FR1	1	R1297T
2801.158	1.618	2808787	WORD	n/a	wordpools/wordpool_EN.txt	RUG	9	24	[0, 0, 0]	n/a	FR1	1	R1297T
2802.776	0.799	2810404	WORD_OFF	n/a	n/a	RUG	9	24	[0, 0, 0]	n/a	FR1	1	R1297T
2803.575	1.617	2811203	WORD	n/a	wordpools/wordpool_EN.txt	SLIME	10	24	[0, 0, 0]	n/a	FR1	1	R1297T
2805.192	0.95	2812820	WORD_OFF	n/a	n/a	SLIME	10	24	[0, 0, 0]	n/a	FR1	1	R1297T
2806.142	1.601	2813770	WORD	n/a	wordpools/wordpool_EN.txt	BRUSH	11	24	[0, 0, 0]	n/a	FR1	1	R1297T
2807.743	0.917	2815371	WORD_OFF	n/a	n/a	BRUSH	11	24	[0, 0, 0]	n/a	FR1	1	R1297T
2808.66	1.616	2816288	WORD	n/a	wordpools/wordpool_EN.txt	HEN	12	24	[0, 0, 0]	n/a	FR1	1	R1297T
2810.276	0.0	2817904	DISTRACT_START	n/a	n/a	n/a	-999	24	[0, 0, 0]	n/a	FR1	1	R1297T
2810.276	0.001	2817904	WORD_OFF	n/a	n/a	HEN	12	24	[0, 0, 0]	n/a	FR1	1	R1297T
2810.277	0.016	2817905	START	n/a	n/a	n/a	-999	24	[-999, -999, -999]	n/a	FR1	1	R1297T
2810.293	3.734	2817921	PROB	3.734	n/a	n/a	-999	24	[4, 7, 9]	20	FR1	1	R1297T
2814.027	3.217	2821655	PROB	3.217	n/a	n/a	-999	24	[2, 4, 3]	9	FR1	1	R1297T
2817.244	2.868	2824872	PROB	2.868	n/a	n/a	-999	24	[4, 8, 8]	20	FR1	1	R1297T
2820.112	5.551	2827739	PROB	5.551	n/a	n/a	-999	24	[9, 3, 9]	21	FR1	1	R1297T
2825.663	3.151	2833290	PROB	3.151	n/a	n/a	-999	24	[3, 8, 6]	17	FR1	1	R1297T
2828.814	6.338	2836441	PROB	6.338	n/a	n/a	-999	24	[7, 1, 5]	13	FR1	1	R1297T
2835.152	0.012	2842778	STOP	n/a	n/a	n/a	-999	24	[-999, -999, -999]	n/a	FR1	1	R1297T
2835.164	0.618	2842790	DISTRACT_END	n/a	n/a	n/a	-999	24	[0, 0, 0]	n/a	FR1	1	R1297T
2835.782	0.517	2843408	RETRIEVAL_ORIENT	n/a	n/a	n/a	-999	24	[0, 0, 0]	n/a	FR1	1	R1297T
2836.299	1.329	2843925	REC_START	n/a	n/a	n/a	-999	24	[0, 0, 0]	n/a	FR1	1	R1297T
2837.628	0.908	2845254	REC_WORD	0.908	n/a	FARM	-999	24	[0, 0, 0]	n/a	FR1	1	R1297T
2838.536	0.706	2846162	REC_WORD	0.706	n/a	HEN	-999	24	[0, 0, 0]	n/a	FR1	1	R1297T
2839.242	1.209	2846868	REC_WORD	1.209	n/a	BRUSH	-999	24	[0, 0, 0]	n/a	FR1	1	R1297T
2840.451	0.796	2848077	REC_WORD	0.796	n/a	GATE	-999	24	[0, 0, 0]	n/a	FR1	1	R1297T
2841.247	1.865	2848873	REC_WORD	1.865	n/a	ROAD	-999	24	[0, 0, 0]	n/a	FR1	1	R1297T
2843.112	23.198	2850738	REC_WORD	23.198	n/a	WHEEL	-999	24	[0, 0, 0]	n/a	FR1	1	R1297T
2866.31	7.161	2873935	REC_END	n/a	n/a	n/a	-999	24	[0, 0, 0]	n/a	FR1	1	R1297T
2873.471	0.5	2881095	TRIAL	n/a	n/a	n/a	-999	25	[0, 0, 0]	n/a	FR1	1	R1297T
2873.971	10.428	2881595	COUNTDOWN_START	n/a	n/a	n/a	-999	25	[0, 0, 0]	n/a	FR1	1	R1297T
2884.399	0.008	2892023	COUNTDOWN_END	n/a	n/a	n/a	-999	25	[0, 0, 0]	n/a	FR1	1	R1297T
2884.407	1.617	2892031	ORIENT	n/a	n/a	n/a	-999	25	[0, 0, 0]	n/a	FR1	1	R1297T
2886.024	2.083	2893647	ORIENT_OFF	n/a	n/a	n/a	-999	25	[0, 0, 0]	n/a	FR1	1	R1297T
2888.107	1.618	2895730	WORD	n/a	wordpools/wordpool_EN.txt	VEST	1	25	[0, 0, 0]	n/a	FR1	1	R1297T
2889.725	0.833	2897348	WORD_OFF	n/a	n/a	VEST	1	25	[0, 0, 0]	n/a	FR1	1	R1297T
2890.558	1.617	2898181	WORD	n/a	wordpools/wordpool_EN.txt	PIG	2	25	[0, 0, 0]	n/a	FR1	1	R1297T
2892.175	0.833	2899798	WORD_OFF	n/a	n/a	PIG	2	25	[0, 0, 0]	n/a	FR1	1	R1297T
2893.008	1.617	2900631	WORD	n/a	wordpools/wordpool_EN.txt	BOOK	3	25	[0, 0, 0]	n/a	FR1	1	R1297T
2894.625	0.834	2902248	WORD_OFF	n/a	n/a	BOOK	3	25	[0, 0, 0]	n/a	FR1	1	R1297T
2895.459	1.617	2903082	WORD	n/a	wordpools/wordpool_EN.txt	BAT	4	25	[0, 0, 0]	n/a	FR1	1	R1297T
2897.076	0.817	2904699	WORD_OFF	n/a	n/a	BAT	4	25	[0, 0, 0]	n/a	FR1	1	R1297T
2897.893	1.616	2905516	WORD	n/a	wordpools/wordpool_EN.txt	SHELL	5	25	[0, 0, 0]	n/a	FR1	1	R1297T
2899.509	0.984	2907132	WORD_OFF	n/a	n/a	SHELL	5	25	[0, 0, 0]	n/a	FR1	1	R1297T
2900.493	1.617	2908116	WORD	n/a	wordpools/wordpool_EN.txt	CAPE	6	25	[0, 0, 0]	n/a	FR1	1	R1297T
2902.11	0.801	2909732	WORD_OFF	n/a	n/a	CAPE	6	25	[0, 0, 0]	n/a	FR1	1	R1297T
2902.911	1.616	2910533	WORD	n/a	wordpools/wordpool_EN.txt	CONE	7	25	[0, 0, 0]	n/a	FR1	1	R1297T
2904.527	0.85	2912149	WORD_OFF	n/a	n/a	CONE	7	25	[0, 0, 0]	n/a	FR1	1	R1297T
2905.377	1.617	2912999	WORD	n/a	wordpools/wordpool_EN.txt	ROOT	8	25	[0, 0, 0]	n/a	FR1	1	R1297T
2906.994	0.95	2914616	WORD_OFF	n/a	n/a	ROOT	8	25	[0, 0, 0]	n/a	FR1	1	R1297T
2907.944	1.617	2915566	WORD	n/a	wordpools/wordpool_EN.txt	BADGE	9	25	[0, 0, 0]	n/a	FR1	1	R1297T
2909.561	0.8	2917183	WORD_OFF	n/a	n/a	BADGE	9	25	[0, 0, 0]	n/a	FR1	1	R1297T
2910.361	1.617	2917983	WORD	n/a	wordpools/wordpool_EN.txt	SWORD	10	25	[0, 0, 0]	n/a	FR1	1	R1297T
2911.978	0.868	2919600	WORD_OFF	n/a	n/a	SWORD	10	25	[0, 0, 0]	n/a	FR1	1	R1297T
2912.846	1.616	2920468	WORD	n/a	wordpools/wordpool_EN.txt	KITE	11	25	[0, 0, 0]	n/a	FR1	1	R1297T
2914.462	0.984	2922084	WORD_OFF	n/a	n/a	KITE	11	25	[0, 0, 0]	n/a	FR1	1	R1297T
2915.446	1.617	2923068	WORD	n/a	wordpools/wordpool_EN.txt	WAVE	12	25	[0, 0, 0]	n/a	FR1	1	R1297T
2917.063	0.0	2924685	WORD_OFF	n/a	n/a	WAVE	12	25	[0, 0, 0]	n/a	FR1	1	R1297T
2917.063	0.0	2924685	DISTRACT_START	n/a	n/a	n/a	-999	25	[0, 0, 0]	n/a	FR1	1	R1297T
2917.063	0.016	2924685	START	n/a	n/a	n/a	-999	25	[-999, -999, -999]	n/a	FR1	1	R1297T
2917.079	4.635	2924701	PROB	4.635	n/a	n/a	-999	25	[5, 2, 7]	14	FR1	1	R1297T
2921.714	3.267	2929335	PROB	3.267	n/a	n/a	-999	25	[3, 9, 3]	15	FR1	1	R1297T
2924.981	1.533	2932602	PROB	1.533	n/a	n/a	-999	25	[9, 1, 1]	11	FR1	1	R1297T
2926.514	9.069	2934135	PROB	9.069	n/a	n/a	-999	25	[8, 7, 7]	22	FR1	1	R1297T
2935.583	7.002	2943203	PROB	7.002	n/a	n/a	-999	25	[9, 2, 8]	19	FR1	1	R1297T
2942.585	0.016	2950205	STOP	n/a	n/a	n/a	-999	25	[-999, -999, -999]	n/a	FR1	1	R1297T
2942.601	0.516	2950221	DISTRACT_END	n/a	n/a	n/a	-999	25	[0, 0, 0]	n/a	FR1	1	R1297T
2943.117	0.518	2950737	RETRIEVAL_ORIENT	n/a	n/a	n/a	-999	25	[0, 0, 0]	n/a	FR1	1	R1297T
2943.635	18.277	2951255	REC_START	n/a	n/a	n/a	-999	25	[0, 0, 0]	n/a	FR1	1	R1297T
2961.912	11.735	2969531	REC_WORD	11.735	n/a	BOOK	-999	25	[0, 0, 0]	n/a	FR1	1	R1297T
2973.647	0.0	2981265	REC_END	n/a	n/a	n/a	-999	25	[0, 0, 0]	n/a	FR1	1	R1297T
