onset	duration	sample	trial_type	response_time	stim_file	item_name	serialpos	list	test	answer	experiment	session	subject
0.0	27.259	252191	SESS_START	n/a	n/a	n/a	-999	-999	[0, 0, 0]	n/a	FR1	0	R1569T
27.259	10.428	279449	COUNTDOWN_START	n/a	n/a	n/a	-999	-999	[0, 0, 0]	n/a	FR1	0	R1569T
37.687	3.84	289877	COUNTDOWN_END	n/a	n/a	n/a	-999	-999	[0, 0, 0]	n/a	FR1	0	R1569T
41.527	2.468	293717	PRACTICE_WORD	n/a	n/a	WAGON	1	-1	[0, 0, 0]	n/a	FR1	0	R1569T
43.995	2.483	296185	PRACTICE_WORD	n/a	n/a	CHEST	2	-1	[0, 0, 0]	n/a	FR1	0	R1569T
46.478	2.451	298668	PRACTICE_WORD	n/a	n/a	WATCH	3	-1	[0, 0, 0]	n/a	FR1	0	R1569T
48.929	2.468	301118	PRACTICE_WORD	n/a	n/a	TONGUE	4	-1	[0, 0, 0]	n/a	FR1	0	R1569T
51.397	2.432	303586	PRACTICE_WORD	n/a	n/a	ATTIC	5	-1	[0, 0, 0]	n/a	FR1	0	R1569T
53.829	2.584	306018	PRACTICE_WORD	n/a	n/a	RHINO	6	-1	[0, 0, 0]	n/a	FR1	0	R1569T
56.413	2.551	308602	PRACTICE_WORD	n/a	n/a	FLOOD	7	-1	[0, 0, 0]	n/a	FR1	0	R1569T
58.964	2.567	311153	PRACTICE_WORD	n/a	n/a	BEAM	8	-1	[0, 0, 0]	n/a	FR1	0	R1569T
61.531	2.55	313720	PRACTICE_WORD	n/a	n/a	CAMEL	9	-1	[0, 0, 0]	n/a	FR1	0	R1569T
64.081	2.467	316270	PRACTICE_WORD	n/a	n/a	RING	10	-1	[0, 0, 0]	n/a	FR1	0	R1569T
66.548	2.417	318737	PRACTICE_WORD	n/a	n/a	IRON	11	-1	[0, 0, 0]	n/a	FR1	0	R1569T
68.965	1.617	321154	PRACTICE_WORD	n/a	n/a	COTTON	12	-1	[0, 0, 0]	n/a	FR1	0	R1569T
70.582	0.0	322771	PRACTICE_DISTRACT_START	n/a	n/a	n/a	-999	-1	[0, 0, 0]	n/a	FR1	0	R1569T
70.582	0.017	322771	START	n/a	n/a	n/a	-999	-1	[-999, -999, -999]	n/a	FR1	0	R1569T
70.599	9.518	322788	PROB	9.518	n/a	n/a	-999	-1	[8, 7, 7]	22	FR1	0	R1569T
80.117	5.651	332305	PROB	5.651	n/a	n/a	-999	-1	[8, 7, 8]	23	FR1	0	R1569T
85.768	4.585	337956	PROB	4.585	n/a	n/a	-999	-1	[1, 7, 2]	10	FR1	0	R1569T
90.353	7.776	342541	PROB	7.776	n/a	n/a	-999	-1	[5, 7, 8]	20	FR1	0	R1569T
98.129	0.007	350317	STOP	n/a	n/a	n/a	-999	-1	[-999, -999, -999]	n/a	FR1	0	R1569T
98.136	0.519	350324	PRACTICE_DISTRACT_END	n/a	n/a	n/a	-999	-1	[0, 0, 0]	n/a	FR1	0	R1569T
98.655	30.515	350843	PRACTICE_REC_START	n/a	n/a	n/a	-999	-1	[0, 0, 0]	n/a	FR1	0	R1569T
129.17	39.66	381356	PRACTICE_REC_END	n/a	n/a	n/a	-999	-1	[0, 0, 0]	n/a	FR1	0	R1569T
168.83	0.001	421015	COUNTDOWN_START	n/a	n/a	n/a	-999	1	[0, 0, 0]	n/a	FR1	0	R1569T
168.831	10.427	421016	TRIAL	n/a	n/a	n/a	-999	1	[0, 0, 0]	n/a	FR1	0	R1569T
179.258	0.007	431443	COUNTDOWN_END	n/a	n/a	n/a	-999	1	[0, 0, 0]	n/a	FR1	0	R1569T
179.265	2.551	431450	ORIENT	n/a	n/a	n/a	-999	1	[0, 0, 0]	n/a	FR1	0	R1569T
181.816	2.45	434000	WORD	n/a	wordpools/wordpool_EN.txt	COUCH	1	1	[0, 0, 0]	n/a	FR1	0	R1569T
184.266	2.434	436450	WORD	n/a	wordpools/wordpool_EN.txt	HORN	2	1	[0, 0, 0]	n/a	FR1	0	R1569T
186.7	2.55	438884	WORD	n/a	wordpools/wordpool_EN.txt	JUDGE	3	1	[0, 0, 0]	n/a	FR1	0	R1569T
189.25	2.484	441434	WORD	n/a	wordpools/wordpool_EN.txt	OAK	4	1	[0, 0, 0]	n/a	FR1	0	R1569T
191.734	2.5	443918	WORD	n/a	wordpools/wordpool_EN.txt	MUD	5	1	[0, 0, 0]	n/a	FR1	0	R1569T
194.234	2.467	446418	WORD	n/a	wordpools/wordpool_EN.txt	STRAW	6	1	[0, 0, 0]	n/a	FR1	0	R1569T
196.701	2.484	448885	WORD	n/a	wordpools/wordpool_EN.txt	APE	7	1	[0, 0, 0]	n/a	FR1	0	R1569T
199.185	2.584	451369	WORD	n/a	wordpools/wordpool_EN.txt	ARM	8	1	[0, 0, 0]	n/a	FR1	0	R1569T
201.769	2.4	453953	WORD	n/a	wordpools/wordpool_EN.txt	MOUTH	9	1	[0, 0, 0]	n/a	FR1	0	R1569T
204.169	2.617	456353	WORD	n/a	wordpools/wordpool_EN.txt	JAIL	10	1	[0, 0, 0]	n/a	FR1	0	R1569T
206.786	2.551	458970	WORD	n/a	wordpools/wordpool_EN.txt	SNAKE	11	1	[0, 0, 0]	n/a	FR1	0	R1569T
209.337	1.616	461520	WORD	n/a	wordpools/wordpool_EN.txt	BATH	12	1	[0, 0, 0]	n/a	FR1	0	R1569T
210.953	0.001	463136	DISTRACT_START	n/a	n/a	n/a	-999	1	[0, 0, 0]	n/a	FR1	0	R1569T
210.954	0.016	463137	START	n/a	n/a	n/a	-999	1	[-999, -999, -999]	n/a	FR1	0	R1569T
210.97	6.368	463153	PROB	6.368	n/a	n/a	-999	1	[3, 9, 8]	20	FR1	0	R1569T
217.338	6.517	469521	PROB	6.517	n/a	n/a	-999	1	[3, 5, 6]	14	FR1	0	R1569T
223.855	3.284	476038	PROB	3.284	n/a	n/a	-999	1	[1, 6, 6]	13	FR1	0	R1569T
227.139	3.384	479322	PROB	3.384	n/a	n/a	-999	1	[2, 3, 1]	6	FR1	0	R1569T
230.523	3.083	482706	PROB	3.083	n/a	n/a	-999	1	[2, 6, 1]	9	FR1	0	R1569T
233.606	0.018	485789	STOP	n/a	n/a	n/a	-999	1	[-999, -999, -999]	n/a	FR1	0	R1569T
233.624	1.039	485807	DISTRACT_END	n/a	n/a	n/a	-999	1	[0, 0, 0]	n/a	FR1	0	R1569T
234.663	0.632	486845	REC_START	n/a	n/a	n/a	-999	1	[0, 0, 0]	n/a	FR1	0	R1569T
235.295	1.0	487477	REC_WORD	1.0	n/a	STRAW	6	1	[0, 0, 0]	n/a	FR1	0	R1569T
236.295	1.034	488477	REC_WORD_VV	1.034	n/a	<>	-999	1	[0, 0, 0]	n/a	FR1	0	R1569T
237.329	1.874	489511	REC_WORD	1.874	n/a	AIM	-999	1	[0, 0, 0]	n/a	FR1	0	R1569T
239.203	5.646	491385	REC_WORD	5.646	n/a	ROPE	-999	1	[0, 0, 0]	n/a	FR1	0	R1569T
244.849	3.239	497031	REC_WORD_VV	3.239	n/a	<>	-999	1	[0, 0, 0]	n/a	FR1	0	R1569T
248.088	1.0	500270	REC_WORD_VV	1.0	n/a	<>	-999	1	[0, 0, 0]	n/a	FR1	0	R1569T
249.088	1.516	501270	REC_WORD_VV	1.516	n/a	<>	-999	1	[0, 0, 0]	n/a	FR1	0	R1569T
250.604	14.066	502786	REC_WORD	14.066	n/a	RHINO	-999	1	[0, 0, 0]	n/a	FR1	0	R1569T
264.67	2.975	516851	REC_END	n/a	n/a	n/a	-999	1	[0, 0, 0]	n/a	FR1	0	R1569T
267.645	0.001	519826	COUNTDOWN_START	n/a	n/a	n/a	-999	2	[0, 0, 0]	n/a	FR1	0	R1569T
267.646	10.427	519827	TRIAL	n/a	n/a	n/a	-999	2	[0, 0, 0]	n/a	FR1	0	R1569T
278.073	0.007	530254	COUNTDOWN_END	n/a	n/a	n/a	-999	2	[0, 0, 0]	n/a	FR1	0	R1569T
278.08	2.517	530261	ORIENT	n/a	n/a	n/a	-999	2	[0, 0, 0]	n/a	FR1	0	R1569T
280.597	2.601	532778	WORD	n/a	wordpools/wordpool_EN.txt	STRING	1	2	[0, 0, 0]	n/a	FR1	0	R1569T
283.198	2.484	535379	WORD	n/a	wordpools/wordpool_EN.txt	VAN	2	2	[0, 0, 0]	n/a	FR1	0	R1569T
285.682	2.567	537863	WORD	n/a	wordpools/wordpool_EN.txt	CART	3	2	[0, 0, 0]	n/a	FR1	0	R1569T
288.249	2.45	540429	WORD	n/a	wordpools/wordpool_EN.txt	CLIFF	4	2	[0, 0, 0]	n/a	FR1	0	R1569T
290.699	2.567	542879	WORD	n/a	wordpools/wordpool_EN.txt	LEG	5	2	[0, 0, 0]	n/a	FR1	0	R1569T
293.266	2.484	545446	WORD	n/a	wordpools/wordpool_EN.txt	TOOL	6	2	[0, 0, 0]	n/a	FR1	0	R1569T
295.75	2.467	547930	WORD	n/a	wordpools/wordpool_EN.txt	SKI	7	2	[0, 0, 0]	n/a	FR1	0	R1569T
298.217	2.567	550397	WORD	n/a	wordpools/wordpool_EN.txt	SPEAR	8	2	[0, 0, 0]	n/a	FR1	0	R1569T
300.784	2.601	552964	WORD	n/a	wordpools/wordpool_EN.txt	CRANE	9	2	[0, 0, 0]	n/a	FR1	0	R1569T
303.385	2.383	555565	WORD	n/a	wordpools/wordpool_EN.txt	WAVE	10	2	[0, 0, 0]	n/a	FR1	0	R1569T
305.768	2.384	557948	WORD	n/a	wordpools/wordpool_EN.txt	RIB	11	2	[0, 0, 0]	n/a	FR1	0	R1569T
308.152	1.617	560332	WORD	n/a	wordpools/wordpool_EN.txt	TRUCK	12	2	[0, 0, 0]	n/a	FR1	0	R1569T
309.769	0.0	561949	DISTRACT_START	n/a	n/a	n/a	-999	2	[0, 0, 0]	n/a	FR1	0	R1569T
309.769	0.016	561949	START	n/a	n/a	n/a	-999	2	[-999, -999, -999]	n/a	FR1	0	R1569T
309.785	3.784	561965	PROB	3.784	n/a	n/a	-999	2	[8, 2, 3]	13	FR1	0	R1569T
313.569	3.818	565748	PROB	3.818	n/a	n/a	-999	2	[2, 6, 4]	12	FR1	0	R1569T
317.387	5.5	569566	PROB	5.5	n/a	n/a	-999	2	[8, 4, 3]	15	FR1	0	R1569T
322.887	4.818	575066	PROB	4.818	n/a	n/a	-999	2	[9, 9, 4]	22	FR1	0	R1569T
327.705	3.17	579884	PROB	3.17	n/a	n/a	-999	2	[1, 1, 2]	4	FR1	0	R1569T
330.875	0.014	583054	STOP	n/a	n/a	n/a	-999	2	[-999, -999, -999]	n/a	FR1	0	R1569T
330.889	1.202	583068	DISTRACT_END	n/a	n/a	n/a	-999	2	[0, 0, 0]	n/a	FR1	0	R1569T
332.091	0.993	584270	REC_START	n/a	n/a	n/a	-999	2	[0, 0, 0]	n/a	FR1	0	R1569T
333.084	1.0	585263	REC_WORD	1.0	n/a	STRAW	-999	2	[0, 0, 0]	n/a	FR1	0	R1569T
334.084	0.834	586263	REC_WORD_VV	0.834	n/a	<>	-999	2	[0, 0, 0]	n/a	FR1	0	R1569T
334.918	4.934	587097	REC_WORD	4.934	n/a	ARM	-999	2	[0, 0, 0]	n/a	FR1	0	R1569T
339.852	22.25	592030	REC_WORD	22.25	n/a	APE	-999	2	[0, 0, 0]	n/a	FR1	0	R1569T
362.102	3.242	614280	REC_END	n/a	n/a	n/a	-999	2	[0, 0, 0]	n/a	FR1	0	R1569T
365.344	0.0	617522	COUNTDOWN_START	n/a	n/a	n/a	-999	3	[0, 0, 0]	n/a	FR1	0	R1569T
365.344	10.428	617522	TRIAL	n/a	n/a	n/a	-999	3	[0, 0, 0]	n/a	FR1	0	R1569T
375.772	0.007	627949	COUNTDOWN_END	n/a	n/a	n/a	-999	3	[0, 0, 0]	n/a	FR1	0	R1569T
375.779	2.533	627956	ORIENT	n/a	n/a	n/a	-999	3	[0, 0, 0]	n/a	FR1	0	R1569T
378.312	2.584	630489	WORD	n/a	wordpools/wordpool_EN.txt	MILK	1	3	[0, 0, 0]	n/a	FR1	0	R1569T
380.896	2.451	633073	WORD	n/a	wordpools/wordpool_EN.txt	DIME	2	3	[0, 0, 0]	n/a	FR1	0	R1569T
383.347	2.567	635524	WORD	n/a	wordpools/wordpool_EN.txt	FOOD	3	3	[0, 0, 0]	n/a	FR1	0	R1569T
385.914	2.383	638091	WORD	n/a	wordpools/wordpool_EN.txt	OAR	4	3	[0, 0, 0]	n/a	FR1	0	R1569T
388.297	2.534	640474	WORD	n/a	wordpools/wordpool_EN.txt	HEART	5	3	[0, 0, 0]	n/a	FR1	0	R1569T
390.831	2.45	643008	WORD	n/a	wordpools/wordpool_EN.txt	CROWN	6	3	[0, 0, 0]	n/a	FR1	0	R1569T
393.281	2.501	645457	WORD	n/a	wordpools/wordpool_EN.txt	STEAK	7	3	[0, 0, 0]	n/a	FR1	0	R1569T
395.782	2.517	647958	WORD	n/a	wordpools/wordpool_EN.txt	TRAIN	8	3	[0, 0, 0]	n/a	FR1	0	R1569T
398.299	2.484	650475	WORD	n/a	wordpools/wordpool_EN.txt	LAMB	9	3	[0, 0, 0]	n/a	FR1	0	R1569T
400.783	2.467	652959	WORD	n/a	wordpools/wordpool_EN.txt	SMOKE	10	3	[0, 0, 0]	n/a	FR1	0	R1569T
403.25	2.533	655426	WORD	n/a	wordpools/wordpool_EN.txt	EGG	11	3	[0, 0, 0]	n/a	FR1	0	R1569T
405.783	1.601	657959	WORD	n/a	wordpools/wordpool_EN.txt	PLATE	12	3	[0, 0, 0]	n/a	FR1	0	R1569T
407.384	0.001	659560	DISTRACT_START	n/a	n/a	n/a	-999	3	[0, 0, 0]	n/a	FR1	0	R1569T
407.385	0.016	659561	START	n/a	n/a	n/a	-999	3	[-999, -999, -999]	n/a	FR1	0	R1569T
407.401	7.951	659577	PROB	7.951	n/a	n/a	-999	3	[9, 8, 7]	24	FR1	0	R1569T
415.352	4.433	667528	PROB	4.433	n/a	n/a	-999	3	[5, 5, 6]	16	FR1	0	R1569T
419.785	3.734	671960	PROB	3.734	n/a	n/a	-999	3	[8, 4, 6]	18	FR1	0	R1569T
423.519	4.834	675694	PROB	4.834	n/a	n/a	-999	3	[2, 8, 1]	11	FR1	0	R1569T
428.353	0.018	680528	STOP	n/a	n/a	n/a	-999	3	[-999, -999, -999]	n/a	FR1	0	R1569T
428.371	1.217	680546	DISTRACT_END	n/a	n/a	n/a	-999	3	[0, 0, 0]	n/a	FR1	0	R1569T
429.588	1.003	681763	REC_START	n/a	n/a	n/a	-999	3	[0, 0, 0]	n/a	FR1	0	R1569T
430.591	1.086	682766	REC_WORD	1.086	n/a	MILK	1	3	[0, 0, 0]	n/a	FR1	0	R1569T
431.677	1.0	683852	REC_WORD	1.0	n/a	STEAK	7	3	[0, 0, 0]	n/a	FR1	0	R1569T
432.677	0.954	684852	REC_WORD_VV	0.954	n/a	<>	-999	3	[0, 0, 0]	n/a	FR1	0	R1569T
433.631	2.987	685806	REC_WORD	2.987	n/a	COW	-999	3	[0, 0, 0]	n/a	FR1	0	R1569T
436.618	1.0	688793	REC_WORD	1.0	n/a	STREAM	-999	3	[0, 0, 0]	n/a	FR1	0	R1569T
437.618	16.713	689793	REC_WORD_VV	16.713	n/a	<>	-999	3	[0, 0, 0]	n/a	FR1	0	R1569T
454.331	1.0	706505	REC_WORD	1.0	n/a	COW	-999	3	[0, 0, 0]	n/a	FR1	0	R1569T
455.331	4.269	707505	REC_WORD_VV	4.269	n/a	<>	-999	3	[0, 0, 0]	n/a	FR1	0	R1569T
459.6	3.793	711774	REC_END	n/a	n/a	n/a	-999	3	[0, 0, 0]	n/a	FR1	0	R1569T
463.393	0.0	715567	TRIAL	n/a	n/a	n/a	-999	4	[0, 0, 0]	n/a	FR1	0	R1569T
463.393	10.428	715567	COUNTDOWN_START	n/a	n/a	n/a	-999	4	[0, 0, 0]	n/a	FR1	0	R1569T
473.821	0.006	725994	COUNTDOWN_END	n/a	n/a	n/a	-999	4	[0, 0, 0]	n/a	FR1	0	R1569T
473.827	2.484	726000	ORIENT	n/a	n/a	n/a	-999	4	[0, 0, 0]	n/a	FR1	0	R1569T
476.311	2.567	728484	WORD	n/a	wordpools/wordpool_EN.txt	TAIL	1	4	[0, 0, 0]	n/a	FR1	0	R1569T
478.878	2.4	731051	WORD	n/a	wordpools/wordpool_EN.txt	WOLF	2	4	[0, 0, 0]	n/a	FR1	0	R1569T
481.278	2.434	733451	WORD	n/a	wordpools/wordpool_EN.txt	NEST	3	4	[0, 0, 0]	n/a	FR1	0	R1569T
483.712	2.617	735885	WORD	n/a	wordpools/wordpool_EN.txt	KITE	4	4	[0, 0, 0]	n/a	FR1	0	R1569T
486.329	2.417	738502	WORD	n/a	wordpools/wordpool_EN.txt	DUCK	5	4	[0, 0, 0]	n/a	FR1	0	R1569T
488.746	2.434	740919	WORD	n/a	wordpools/wordpool_EN.txt	RAT	6	4	[0, 0, 0]	n/a	FR1	0	R1569T
491.18	2.417	743353	WORD	n/a	wordpools/wordpool_EN.txt	HOLE	7	4	[0, 0, 0]	n/a	FR1	0	R1569T
493.597	2.567	745770	WORD	n/a	wordpools/wordpool_EN.txt	PIG	8	4	[0, 0, 0]	n/a	FR1	0	R1569T
496.164	2.6	748337	WORD	n/a	wordpools/wordpool_EN.txt	PRINCE	9	4	[0, 0, 0]	n/a	FR1	0	R1569T
498.764	2.467	750936	WORD	n/a	wordpools/wordpool_EN.txt	RAKE	10	4	[0, 0, 0]	n/a	FR1	0	R1569T
501.231	2.451	753403	WORD	n/a	wordpools/wordpool_EN.txt	BARN	11	4	[0, 0, 0]	n/a	FR1	0	R1569T
503.682	1.617	755854	WORD	n/a	wordpools/wordpool_EN.txt	PEN	12	4	[0, 0, 0]	n/a	FR1	0	R1569T
505.299	0.0	757471	DISTRACT_START	n/a	n/a	n/a	-999	4	[0, 0, 0]	n/a	FR1	0	R1569T
505.299	0.016	757471	START	n/a	n/a	n/a	-999	4	[-999, -999, -999]	n/a	FR1	0	R1569T
505.315	7.385	757487	PROB	7.385	n/a	n/a	-999	4	[7, 6, 9]	22	FR1	0	R1569T
512.7	6.534	764872	PROB	6.534	n/a	n/a	-999	4	[5, 3, 6]	14	FR1	0	R1569T
519.234	9.091	771406	PROB	9.091	n/a	n/a	-999	4	[4, 9, 4]	17	FR1	0	R1569T
528.325	0.01	780496	STOP	n/a	n/a	n/a	-999	4	[-999, -999, -999]	n/a	FR1	0	R1569T
528.335	1.201	780506	DISTRACT_END	n/a	n/a	n/a	-999	4	[0, 0, 0]	n/a	FR1	0	R1569T
529.536	1.259	781707	REC_START	n/a	n/a	n/a	-999	4	[0, 0, 0]	n/a	FR1	0	R1569T
530.795	1.119	782966	REC_WORD	1.119	n/a	TAIL	1	4	[0, 0, 0]	n/a	FR1	0	R1569T
531.914	0.988	784085	REC_WORD	0.988	n/a	WOLF	2	4	[0, 0, 0]	n/a	FR1	0	R1569T
532.902	1.0	785073	REC_WORD	1.0	n/a	RAT	6	4	[0, 0, 0]	n/a	FR1	0	R1569T
533.902	3.585	786073	REC_WORD_VV	3.585	n/a	<>	-999	4	[0, 0, 0]	n/a	FR1	0	R1569T
537.487	22.065	789658	REC_WORD_VV	22.065	n/a	<>	-999	4	[0, 0, 0]	n/a	FR1	0	R1569T
559.552	12.323	811722	REC_END	n/a	n/a	n/a	-999	4	[0, 0, 0]	n/a	FR1	0	R1569T
571.875	0.001	824045	COUNTDOWN_START	n/a	n/a	n/a	-999	5	[0, 0, 0]	n/a	FR1	0	R1569T
571.876	10.427	824046	TRIAL	n/a	n/a	n/a	-999	5	[0, 0, 0]	n/a	FR1	0	R1569T
582.303	0.007	834472	COUNTDOWN_END	n/a	n/a	n/a	-999	5	[0, 0, 0]	n/a	FR1	0	R1569T
582.31	2.534	834479	ORIENT	n/a	n/a	n/a	-999	5	[0, 0, 0]	n/a	FR1	0	R1569T
584.844	2.451	837013	WORD	n/a	wordpools/wordpool_EN.txt	PEAR	1	5	[0, 0, 0]	n/a	FR1	0	R1569T
587.295	2.4	839464	WORD	n/a	wordpools/wordpool_EN.txt	POND	2	5	[0, 0, 0]	n/a	FR1	0	R1569T
589.695	2.617	841864	WORD	n/a	wordpools/wordpool_EN.txt	GLASS	3	5	[0, 0, 0]	n/a	FR1	0	R1569T
592.312	2.517	844481	WORD	n/a	wordpools/wordpool_EN.txt	SOAP	4	5	[0, 0, 0]	n/a	FR1	0	R1569T
594.829	2.4	846998	WORD	n/a	wordpools/wordpool_EN.txt	SPOON	5	5	[0, 0, 0]	n/a	FR1	0	R1569T
597.229	2.501	849398	WORD	n/a	wordpools/wordpool_EN.txt	SPONGE	6	5	[0, 0, 0]	n/a	FR1	0	R1569T
599.73	2.433	851899	WORD	n/a	wordpools/wordpool_EN.txt	GRAPE	7	5	[0, 0, 0]	n/a	FR1	0	R1569T
602.163	2.484	854332	WORD	n/a	wordpools/wordpool_EN.txt	SHRIMP	8	5	[0, 0, 0]	n/a	FR1	0	R1569T
604.647	2.484	856815	WORD	n/a	wordpools/wordpool_EN.txt	WORM	9	5	[0, 0, 0]	n/a	FR1	0	R1569T
607.131	2.534	859299	WORD	n/a	wordpools/wordpool_EN.txt	JAR	10	5	[0, 0, 0]	n/a	FR1	0	R1569T
609.665	2.55	861833	WORD	n/a	wordpools/wordpool_EN.txt	WORLD	11	5	[0, 0, 0]	n/a	FR1	0	R1569T
612.215	1.617	864383	WORD	n/a	wordpools/wordpool_EN.txt	PEACH	12	5	[0, 0, 0]	n/a	FR1	0	R1569T
613.832	0.0	866000	DISTRACT_START	n/a	n/a	n/a	-999	5	[0, 0, 0]	n/a	FR1	0	R1569T
613.832	0.017	866000	START	n/a	n/a	n/a	-999	5	[-999, -999, -999]	n/a	FR1	0	R1569T
613.849	6.367	866017	PROB	6.367	n/a	n/a	-999	5	[6, 8, 2]	16	FR1	0	R1569T
620.216	6.568	872384	PROB	6.568	n/a	n/a	-999	5	[6, 1, 6]	13	FR1	0	R1569T
626.784	4.568	878952	PROB	4.568	n/a	n/a	-999	5	[7, 9, 9]	25	FR1	0	R1569T
631.352	5.138	883519	PROB	5.138	n/a	n/a	-999	5	[4, 2, 4]	10	FR1	0	R1569T
636.49	0.012	888657	STOP	n/a	n/a	n/a	-999	5	[-999, -999, -999]	n/a	FR1	0	R1569T
636.502	1.217	888669	DISTRACT_END	n/a	n/a	n/a	-999	5	[0, 0, 0]	n/a	FR1	0	R1569T
637.719	0.926	889886	REC_START	n/a	n/a	n/a	-999	5	[0, 0, 0]	n/a	FR1	0	R1569T
638.645	1.308	890812	REC_WORD	1.308	n/a	GLASS	3	5	[0, 0, 0]	n/a	FR1	0	R1569T
639.953	1.104	892120	REC_WORD	1.104	n/a	POND	2	5	[0, 0, 0]	n/a	FR1	0	R1569T
641.057	4.241	893224	REC_WORD	4.241	n/a	SNAIL	-999	5	[0, 0, 0]	n/a	FR1	0	R1569T
645.298	7.801	897465	REC_WORD	7.801	n/a	OAR	-999	5	[0, 0, 0]	n/a	FR1	0	R1569T
653.099	1.0	905266	REC_WORD	1.0	n/a	NEST	-999	5	[0, 0, 0]	n/a	FR1	0	R1569T
654.099	13.634	906266	REC_WORD_VV	13.634	n/a	<>	-999	5	[0, 0, 0]	n/a	FR1	0	R1569T
667.733	2.557	919899	REC_END	n/a	n/a	n/a	-999	5	[0, 0, 0]	n/a	FR1	0	R1569T
670.29	0.001	922456	COUNTDOWN_START	n/a	n/a	n/a	-999	6	[0, 0, 0]	n/a	FR1	0	R1569T
670.291	10.427	922457	TRIAL	n/a	n/a	n/a	-999	6	[0, 0, 0]	n/a	FR1	0	R1569T
680.718	0.008	932884	COUNTDOWN_END	n/a	n/a	n/a	-999	6	[0, 0, 0]	n/a	FR1	0	R1569T
680.726	2.583	932892	ORIENT	n/a	n/a	n/a	-999	6	[0, 0, 0]	n/a	FR1	0	R1569T
683.309	2.601	935475	WORD	n/a	wordpools/wordpool_EN.txt	HOUSE	1	6	[0, 0, 0]	n/a	FR1	0	R1569T
685.91	2.533	938075	WORD	n/a	wordpools/wordpool_EN.txt	HAWK	2	6	[0, 0, 0]	n/a	FR1	0	R1569T
688.443	2.401	940608	WORD	n/a	wordpools/wordpool_EN.txt	WAND	3	6	[0, 0, 0]	n/a	FR1	0	R1569T
690.844	2.4	943009	WORD	n/a	wordpools/wordpool_EN.txt	GEESE	4	6	[0, 0, 0]	n/a	FR1	0	R1569T
693.244	2.4	945409	WORD	n/a	wordpools/wordpool_EN.txt	STAR	5	6	[0, 0, 0]	n/a	FR1	0	R1569T
695.644	2.534	947809	WORD	n/a	wordpools/wordpool_EN.txt	CLOUD	6	6	[0, 0, 0]	n/a	FR1	0	R1569T
698.178	2.434	950343	WORD	n/a	wordpools/wordpool_EN.txt	PEARL	7	6	[0, 0, 0]	n/a	FR1	0	R1569T
700.612	2.584	952777	WORD	n/a	wordpools/wordpool_EN.txt	SWORD	8	6	[0, 0, 0]	n/a	FR1	0	R1569T
703.196	2.45	955361	WORD	n/a	wordpools/wordpool_EN.txt	STAIR	9	6	[0, 0, 0]	n/a	FR1	0	R1569T
705.646	2.534	957811	WORD	n/a	wordpools/wordpool_EN.txt	GOLD	10	6	[0, 0, 0]	n/a	FR1	0	R1569T
708.18	2.533	960345	WORD	n/a	wordpools/wordpool_EN.txt	ROAD	11	6	[0, 0, 0]	n/a	FR1	0	R1569T
710.713	1.617	962877	WORD	n/a	wordpools/wordpool_EN.txt	BRIDGE	12	6	[0, 0, 0]	n/a	FR1	0	R1569T
712.33	0.001	964494	DISTRACT_START	n/a	n/a	n/a	-999	6	[0, 0, 0]	n/a	FR1	0	R1569T
712.331	0.017	964495	START	n/a	n/a	n/a	-999	6	[-999, -999, -999]	n/a	FR1	0	R1569T
712.348	6.933	964512	PROB	6.933	n/a	n/a	-999	6	[6, 8, 4]	18	FR1	0	R1569T
719.281	7.285	971445	PROB	7.285	n/a	n/a	-999	6	[6, 9, 5]	20	FR1	0	R1569T
726.566	3.234	978730	PROB	3.234	n/a	n/a	-999	6	[3, 5, 5]	13	FR1	0	R1569T
729.8	5.295	981964	PROB	5.295	n/a	n/a	-999	6	[2, 7, 8]	17	FR1	0	R1569T
735.095	0.006	987259	STOP	n/a	n/a	n/a	-999	6	[-999, -999, -999]	n/a	FR1	0	R1569T
735.101	1.084	987265	DISTRACT_END	n/a	n/a	n/a	-999	6	[0, 0, 0]	n/a	FR1	0	R1569T
736.185	1.072	988349	REC_START	n/a	n/a	n/a	-999	6	[0, 0, 0]	n/a	FR1	0	R1569T
737.257	1.183	989420	REC_WORD	1.183	n/a	CLOUD	6	6	[0, 0, 0]	n/a	FR1	0	R1569T
738.44	1.0	990603	REC_WORD	1.0	n/a	SNAIL	-999	6	[0, 0, 0]	n/a	FR1	0	R1569T
739.44	1.265	991603	REC_WORD_VV	1.265	n/a	<>	-999	6	[0, 0, 0]	n/a	FR1	0	R1569T
740.705	25.49	992868	REC_WORD	25.49	n/a	POND	-999	6	[0, 0, 0]	n/a	FR1	0	R1569T
766.195	2.195	1018357	REC_END	n/a	n/a	n/a	-999	6	[0, 0, 0]	n/a	FR1	0	R1569T
768.39	0.0	1020552	TRIAL	n/a	n/a	n/a	-999	7	[0, 0, 0]	n/a	FR1	0	R1569T
768.39	10.428	1020552	COUNTDOWN_START	n/a	n/a	n/a	-999	7	[0, 0, 0]	n/a	FR1	0	R1569T
778.818	0.006	1030980	COUNTDOWN_END	n/a	n/a	n/a	-999	7	[0, 0, 0]	n/a	FR1	0	R1569T
778.824	2.484	1030986	ORIENT	n/a	n/a	n/a	-999	7	[0, 0, 0]	n/a	FR1	0	R1569T
781.308	2.55	1033470	WORD	n/a	wordpools/wordpool_EN.txt	SALT	1	7	[0, 0, 0]	n/a	FR1	0	R1569T
783.858	2.501	1036020	WORD	n/a	wordpools/wordpool_EN.txt	TRASH	2	7	[0, 0, 0]	n/a	FR1	0	R1569T
786.359	2.583	1038521	WORD	n/a	wordpools/wordpool_EN.txt	MAP	3	7	[0, 0, 0]	n/a	FR1	0	R1569T
788.942	2.584	1041104	WORD	n/a	wordpools/wordpool_EN.txt	ICE	4	7	[0, 0, 0]	n/a	FR1	0	R1569T
791.526	2.55	1043687	WORD	n/a	wordpools/wordpool_EN.txt	SNOW	5	7	[0, 0, 0]	n/a	FR1	0	R1569T
794.076	2.417	1046237	WORD	n/a	wordpools/wordpool_EN.txt	STEAM	6	7	[0, 0, 0]	n/a	FR1	0	R1569T
796.493	2.484	1048654	WORD	n/a	wordpools/wordpool_EN.txt	BOMB	7	7	[0, 0, 0]	n/a	FR1	0	R1569T
798.977	2.6	1051138	WORD	n/a	wordpools/wordpool_EN.txt	ROCK	8	7	[0, 0, 0]	n/a	FR1	0	R1569T
801.577	2.567	1053738	WORD	n/a	wordpools/wordpool_EN.txt	TANK	9	7	[0, 0, 0]	n/a	FR1	0	R1569T
804.144	2.468	1056305	WORD	n/a	wordpools/wordpool_EN.txt	LAKE	10	7	[0, 0, 0]	n/a	FR1	0	R1569T
806.612	2.416	1058773	WORD	n/a	wordpools/wordpool_EN.txt	MOOSE	11	7	[0, 0, 0]	n/a	FR1	0	R1569T
809.028	1.617	1061189	WORD	n/a	wordpools/wordpool_EN.txt	STONE	12	7	[0, 0, 0]	n/a	FR1	0	R1569T
810.645	0.001	1062806	DISTRACT_START	n/a	n/a	n/a	-999	7	[0, 0, 0]	n/a	FR1	0	R1569T
810.646	0.016	1062807	START	n/a	n/a	n/a	-999	7	[-999, -999, -999]	n/a	FR1	0	R1569T
810.662	5.818	1062823	PROB	5.818	n/a	n/a	-999	7	[3, 9, 2]	14	FR1	0	R1569T
816.48	14.149	1068640	PROB	14.149	n/a	n/a	-999	7	[5, 9, 8]	22	FR1	0	R1569T
830.629	0.019	1082789	STOP	n/a	n/a	n/a	-999	7	[-999, -999, -999]	n/a	FR1	0	R1569T
830.648	1.186	1082808	DISTRACT_END	n/a	n/a	n/a	-999	7	[0, 0, 0]	n/a	FR1	0	R1569T
831.834	1.391	1083994	REC_START	n/a	n/a	n/a	-999	7	[0, 0, 0]	n/a	FR1	0	R1569T
833.225	1.0	1085385	REC_WORD	1.0	n/a	SALT	1	7	[0, 0, 0]	n/a	FR1	0	R1569T
834.225	0.489	1086385	REC_WORD_VV	0.489	n/a	<>	-999	7	[0, 0, 0]	n/a	FR1	0	R1569T
834.714	1.0	1086874	REC_WORD	1.0	n/a	SNAKE	-999	7	[0, 0, 0]	n/a	FR1	0	R1569T
835.714	1.109	1087874	REC_WORD_VV	1.109	n/a	<>	-999	7	[0, 0, 0]	n/a	FR1	0	R1569T
836.823	1.0	1088983	REC_WORD	1.0	n/a	MOOSE	11	7	[0, 0, 0]	n/a	FR1	0	R1569T
837.823	2.071	1089983	REC_WORD_VV	2.071	n/a	<>	-999	7	[0, 0, 0]	n/a	FR1	0	R1569T
839.894	1.011	1092054	REC_WORD_VV	1.011	n/a	<>	-999	7	[0, 0, 0]	n/a	FR1	0	R1569T
840.905	3.393	1093065	REC_WORD	3.393	n/a	MOOSE	11	7	[0, 0, 0]	n/a	FR1	0	R1569T
844.298	1.0	1096457	REC_WORD	1.0	n/a	TRAIL	-999	7	[0, 0, 0]	n/a	FR1	0	R1569T
845.298	3.327	1097457	REC_WORD_VV	3.327	n/a	<>	-999	7	[0, 0, 0]	n/a	FR1	0	R1569T
848.625	0.865	1100784	REC_WORD	0.865	n/a	SNAKE	-999	7	[0, 0, 0]	n/a	FR1	0	R1569T
849.49	0.454	1101649	REC_WORD	0.454	n/a	MOOSE	11	7	[0, 0, 0]	n/a	FR1	0	R1569T
849.944	11.9	1102103	REC_WORD	11.9	n/a	TRAIL	-999	7	[0, 0, 0]	n/a	FR1	0	R1569T
861.844	2.243	1114003	REC_END	n/a	n/a	n/a	-999	7	[0, 0, 0]	n/a	FR1	0	R1569T
864.087	0.0	1116246	TRIAL	n/a	n/a	n/a	-999	8	[0, 0, 0]	n/a	FR1	0	R1569T
864.087	10.428	1116246	COUNTDOWN_START	n/a	n/a	n/a	-999	8	[0, 0, 0]	n/a	FR1	0	R1569T
874.515	0.007	1126673	COUNTDOWN_END	n/a	n/a	n/a	-999	8	[0, 0, 0]	n/a	FR1	0	R1569T
874.522	2.467	1126680	ORIENT	n/a	n/a	n/a	-999	8	[0, 0, 0]	n/a	FR1	0	R1569T
876.989	2.584	1129147	WORD	n/a	wordpools/wordpool_EN.txt	HOOK	1	8	[0, 0, 0]	n/a	FR1	0	R1569T
879.573	2.483	1131731	WORD	n/a	wordpools/wordpool_EN.txt	POOL	2	8	[0, 0, 0]	n/a	FR1	0	R1569T
882.056	2.601	1134214	WORD	n/a	wordpools/wordpool_EN.txt	MOUSE	3	8	[0, 0, 0]	n/a	FR1	0	R1569T
884.657	2.567	1136815	WORD	n/a	wordpools/wordpool_EN.txt	MAT	4	8	[0, 0, 0]	n/a	FR1	0	R1569T
887.224	2.567	1139382	WORD	n/a	wordpools/wordpool_EN.txt	PET	5	8	[0, 0, 0]	n/a	FR1	0	R1569T
889.791	2.585	1141949	WORD	n/a	wordpools/wordpool_EN.txt	BALL	6	8	[0, 0, 0]	n/a	FR1	0	R1569T
892.376	2.532	1144534	WORD	n/a	wordpools/wordpool_EN.txt	TOY	7	8	[0, 0, 0]	n/a	FR1	0	R1569T
894.908	2.417	1147065	WORD	n/a	wordpools/wordpool_EN.txt	FLAME	8	8	[0, 0, 0]	n/a	FR1	0	R1569T
897.325	2.534	1149482	WORD	n/a	wordpools/wordpool_EN.txt	DOLL	9	8	[0, 0, 0]	n/a	FR1	0	R1569T
899.859	2.535	1152016	WORD	n/a	wordpools/wordpool_EN.txt	CAT	10	8	[0, 0, 0]	n/a	FR1	0	R1569T
902.394	2.483	1154551	WORD	n/a	wordpools/wordpool_EN.txt	NAIL	11	8	[0, 0, 0]	n/a	FR1	0	R1569T
904.877	1.616	1157034	WORD	n/a	wordpools/wordpool_EN.txt	FISH	12	8	[0, 0, 0]	n/a	FR1	0	R1569T
906.493	0.001	1158650	DISTRACT_START	n/a	n/a	n/a	-999	8	[0, 0, 0]	n/a	FR1	0	R1569T
906.494	0.016	1158651	START	n/a	n/a	n/a	-999	8	[-999, -999, -999]	n/a	FR1	0	R1569T
906.51	3.734	1158667	PROB	3.734	n/a	n/a	-999	8	[7, 4, 6]	17	FR1	0	R1569T
910.244	4.201	1162401	PROB	4.201	n/a	n/a	-999	8	[9, 5, 4]	18	FR1	0	R1569T
914.445	5.084	1166602	PROB	5.084	n/a	n/a	-999	8	[1, 5, 3]	9	FR1	0	R1569T
919.529	3.0	1171686	PROB	3.0	n/a	n/a	-999	8	[1, 5, 1]	7	FR1	0	R1569T
922.529	3.234	1174685	PROB	3.234	n/a	n/a	-999	8	[6, 4, 7]	17	FR1	0	R1569T
925.763	3.327	1177919	PROB	3.327	n/a	n/a	-999	8	[5, 2, 2]	9	FR1	0	R1569T
929.09	0.007	1181246	STOP	n/a	n/a	n/a	-999	8	[-999, -999, -999]	n/a	FR1	0	R1569T
929.097	1.134	1181253	DISTRACT_END	n/a	n/a	n/a	-999	8	[0, 0, 0]	n/a	FR1	0	R1569T
930.231	2.314	1182387	REC_START	n/a	n/a	n/a	-999	8	[0, 0, 0]	n/a	FR1	0	R1569T
932.545	1.167	1184701	REC_WORD	1.167	n/a	CAT	10	8	[0, 0, 0]	n/a	FR1	0	R1569T
933.712	1.805	1185868	REC_WORD	1.805	n/a	SNAIL	-999	8	[0, 0, 0]	n/a	FR1	0	R1569T
935.517	8.451	1187673	REC_WORD	8.451	n/a	FISH	12	8	[0, 0, 0]	n/a	FR1	0	R1569T
943.968	1.0	1196124	REC_WORD_VV	1.0	n/a	<>	-999	8	[0, 0, 0]	n/a	FR1	0	R1569T
944.968	15.278	1197124	REC_WORD_VV	15.278	n/a	<>	-999	8	[0, 0, 0]	n/a	FR1	0	R1569T
960.246	4.54	1212401	REC_END	n/a	n/a	n/a	-999	8	[0, 0, 0]	n/a	FR1	0	R1569T
964.786	0.0	1216941	TRIAL	n/a	n/a	n/a	-999	9	[0, 0, 0]	n/a	FR1	0	R1569T
964.786	10.428	1216941	COUNTDOWN_START	n/a	n/a	n/a	-999	9	[0, 0, 0]	n/a	FR1	0	R1569T
975.214	0.007	1227368	COUNTDOWN_END	n/a	n/a	n/a	-999	9	[0, 0, 0]	n/a	FR1	0	R1569T
975.221	2.417	1227375	ORIENT	n/a	n/a	n/a	-999	9	[0, 0, 0]	n/a	FR1	0	R1569T
977.638	2.617	1229792	WORD	n/a	wordpools/wordpool_EN.txt	CONE	1	9	[0, 0, 0]	n/a	FR1	0	R1569T
980.255	2.484	1232409	WORD	n/a	wordpools/wordpool_EN.txt	TRAY	2	9	[0, 0, 0]	n/a	FR1	0	R1569T
982.739	2.483	1234893	WORD	n/a	wordpools/wordpool_EN.txt	SWAMP	3	9	[0, 0, 0]	n/a	FR1	0	R1569T
985.222	2.434	1237376	WORD	n/a	wordpools/wordpool_EN.txt	LAND	4	9	[0, 0, 0]	n/a	FR1	0	R1569T
987.656	2.5	1239810	WORD	n/a	wordpools/wordpool_EN.txt	LEAF	5	9	[0, 0, 0]	n/a	FR1	0	R1569T
990.156	2.601	1242310	WORD	n/a	wordpools/wordpool_EN.txt	FORK	6	9	[0, 0, 0]	n/a	FR1	0	R1569T
992.757	2.618	1244911	WORD	n/a	wordpools/wordpool_EN.txt	DRESS	7	9	[0, 0, 0]	n/a	FR1	0	R1569T
995.375	2.533	1247529	WORD	n/a	wordpools/wordpool_EN.txt	ARK	8	9	[0, 0, 0]	n/a	FR1	0	R1569T
997.908	2.617	1250062	WORD	n/a	wordpools/wordpool_EN.txt	ROOT	9	9	[0, 0, 0]	n/a	FR1	0	R1569T
1000.525	2.6	1252679	WORD	n/a	wordpools/wordpool_EN.txt	SEED	10	9	[0, 0, 0]	n/a	FR1	0	R1569T
1003.125	2.534	1255278	WORD	n/a	wordpools/wordpool_EN.txt	LAWN	11	9	[0, 0, 0]	n/a	FR1	0	R1569T
1005.659	1.617	1257812	WORD	n/a	wordpools/wordpool_EN.txt	TOAST	12	9	[0, 0, 0]	n/a	FR1	0	R1569T
1007.276	0.001	1259429	DISTRACT_START	n/a	n/a	n/a	-999	9	[0, 0, 0]	n/a	FR1	0	R1569T
1007.277	0.015	1259430	START	n/a	n/a	n/a	-999	9	[-999, -999, -999]	n/a	FR1	0	R1569T
1007.292	3.184	1259445	PROB	3.184	n/a	n/a	-999	9	[1, 3, 3]	7	FR1	0	R1569T
1010.476	3.051	1262629	PROB	3.051	n/a	n/a	-999	9	[5, 5, 5]	15	FR1	0	R1569T
1013.527	5.117	1265680	PROB	5.117	n/a	n/a	-999	9	[3, 8, 8]	19	FR1	0	R1569T
1018.644	3.034	1270797	PROB	3.034	n/a	n/a	-999	9	[8, 2, 1]	11	FR1	0	R1569T
1021.678	3.317	1273831	PROB	3.317	n/a	n/a	-999	9	[8, 2, 3]	13	FR1	0	R1569T
1024.995	8.94	1277148	PROB	8.94	n/a	n/a	-999	9	[9, 5, 2]	16	FR1	0	R1569T
1033.935	0.011	1286087	STOP	n/a	n/a	n/a	-999	9	[-999, -999, -999]	n/a	FR1	0	R1569T
1033.946	1.084	1286098	DISTRACT_END	n/a	n/a	n/a	-999	9	[0, 0, 0]	n/a	FR1	0	R1569T
1035.03	1.709	1287182	REC_START	n/a	n/a	n/a	-999	9	[0, 0, 0]	n/a	FR1	0	R1569T
1036.739	0.892	1288891	REC_WORD	0.892	n/a	COT	-999	9	[0, 0, 0]	n/a	FR1	0	R1569T
1037.631	1.005	1289783	REC_WORD	1.005	n/a	SNAIL	-999	9	[0, 0, 0]	n/a	FR1	0	R1569T
1038.636	3.74	1290788	REC_WORD_VV	3.74	n/a	<>	-999	9	[0, 0, 0]	n/a	FR1	0	R1569T
1042.376	3.649	1294528	REC_WORD_VV	3.649	n/a	<>	-999	9	[0, 0, 0]	n/a	FR1	0	R1569T
1046.025	1.0	1298177	REC_WORD	1.0	n/a	LAND	4	9	[0, 0, 0]	n/a	FR1	0	R1569T
1047.025	18.021	1299177	REC_WORD_VV	18.021	n/a	<>	-999	9	[0, 0, 0]	n/a	FR1	0	R1569T
1065.046	3.539	1317197	REC_END	n/a	n/a	n/a	-999	9	[0, 0, 0]	n/a	FR1	0	R1569T
1068.585	0.0	1320736	TRIAL	n/a	n/a	n/a	-999	10	[0, 0, 0]	n/a	FR1	0	R1569T
1068.585	10.428	1320736	COUNTDOWN_START	n/a	n/a	n/a	-999	10	[0, 0, 0]	n/a	FR1	0	R1569T
1079.013	0.007	1331164	COUNTDOWN_END	n/a	n/a	n/a	-999	10	[0, 0, 0]	n/a	FR1	0	R1569T
1079.02	2.55	1331171	ORIENT	n/a	n/a	n/a	-999	10	[0, 0, 0]	n/a	FR1	0	R1569T
1081.57	2.434	1333720	WORD	n/a	wordpools/wordpool_EN.txt	BAT	1	10	[0, 0, 0]	n/a	FR1	0	R1569T
1084.004	2.584	1336154	WORD	n/a	wordpools/wordpool_EN.txt	MOTH	2	10	[0, 0, 0]	n/a	FR1	0	R1569T
1086.588	2.534	1338738	WORD	n/a	wordpools/wordpool_EN.txt	STEM	3	10	[0, 0, 0]	n/a	FR1	0	R1569T
1089.122	2.517	1341272	WORD	n/a	wordpools/wordpool_EN.txt	STORE	4	10	[0, 0, 0]	n/a	FR1	0	R1569T
1091.639	2.417	1343789	WORD	n/a	wordpools/wordpool_EN.txt	CAPE	5	10	[0, 0, 0]	n/a	FR1	0	R1569T
1094.056	2.417	1346206	WORD	n/a	wordpools/wordpool_EN.txt	FOG	6	10	[0, 0, 0]	n/a	FR1	0	R1569T
1096.473	2.4	1348623	WORD	n/a	wordpools/wordpool_EN.txt	PLANT	7	10	[0, 0, 0]	n/a	FR1	0	R1569T
1098.873	2.417	1351023	WORD	n/a	wordpools/wordpool_EN.txt	HOOF	8	10	[0, 0, 0]	n/a	FR1	0	R1569T
1101.29	2.567	1353440	WORD	n/a	wordpools/wordpool_EN.txt	MOON	9	10	[0, 0, 0]	n/a	FR1	0	R1569T
1103.857	2.4	1356007	WORD	n/a	wordpools/wordpool_EN.txt	BIRD	10	10	[0, 0, 0]	n/a	FR1	0	R1569T
1106.257	2.418	1358407	WORD	n/a	wordpools/wordpool_EN.txt	WING	11	10	[0, 0, 0]	n/a	FR1	0	R1569T
1108.675	1.617	1360824	WORD	n/a	wordpools/wordpool_EN.txt	ANT	12	10	[0, 0, 0]	n/a	FR1	0	R1569T
1110.292	0.0	1362441	DISTRACT_START	n/a	n/a	n/a	-999	10	[0, 0, 0]	n/a	FR1	0	R1569T
1110.292	0.016	1362441	START	n/a	n/a	n/a	-999	10	[-999, -999, -999]	n/a	FR1	0	R1569T
1110.308	11.018	1362457	PROB	11.018	n/a	n/a	-999	10	[7, 2, 3]	12	FR1	0	R1569T
1121.326	4.118	1373475	PROB	4.118	n/a	n/a	-999	10	[6, 4, 9]	19	FR1	0	R1569T
1125.444	3.284	1377593	PROB	3.284	n/a	n/a	-999	10	[6, 3, 7]	16	FR1	0	R1569T
1128.728	2.604	1380877	PROB	2.604	n/a	n/a	-999	10	[1, 3, 1]	5	FR1	0	R1569T
1131.332	0.013	1383481	STOP	n/a	n/a	n/a	-999	10	[-999, -999, -999]	n/a	FR1	0	R1569T
1131.345	1.102	1383494	DISTRACT_END	n/a	n/a	n/a	-999	10	[0, 0, 0]	n/a	FR1	0	R1569T
1132.447	1.237	1384596	REC_START	n/a	n/a	n/a	-999	10	[0, 0, 0]	n/a	FR1	0	R1569T
1133.684	0.93	1385832	REC_WORD	0.93	n/a	BAT	1	10	[0, 0, 0]	n/a	FR1	0	R1569T
1134.614	1.0	1386762	REC_WORD	1.0	n/a	MOTH	2	10	[0, 0, 0]	n/a	FR1	0	R1569T
1135.614	0.965	1387762	REC_WORD_VV	0.965	n/a	<>	-999	10	[0, 0, 0]	n/a	FR1	0	R1569T
1136.579	2.448	1388727	REC_WORD	2.448	n/a	WING	11	10	[0, 0, 0]	n/a	FR1	0	R1569T
1139.027	1.0	1391175	REC_WORD_VV	1.0	n/a	<>	-999	10	[0, 0, 0]	n/a	FR1	0	R1569T
1140.027	1.0	1392175	REC_WORD_VV	1.0	n/a	<>	-999	10	[0, 0, 0]	n/a	FR1	0	R1569T
1141.027	1.0	1393175	REC_WORD_VV	1.0	n/a	<>	-999	10	[0, 0, 0]	n/a	FR1	0	R1569T
1142.027	2.883	1394175	REC_WORD_VV	2.883	n/a	<>	-999	10	[0, 0, 0]	n/a	FR1	0	R1569T
1144.91	2.223	1397058	REC_WORD	2.223	n/a	ANT	12	10	[0, 0, 0]	n/a	FR1	0	R1569T
1147.133	1.0	1399281	REC_WORD_VV	1.0	n/a	<>	-999	10	[0, 0, 0]	n/a	FR1	0	R1569T
1148.133	14.325	1400281	REC_WORD_VV	14.325	n/a	<>	-999	10	[0, 0, 0]	n/a	FR1	0	R1569T
1162.458	2.208	1414605	REC_END	n/a	n/a	n/a	-999	10	[0, 0, 0]	n/a	FR1	0	R1569T
1164.666	0.0	1416813	TRIAL	n/a	n/a	n/a	-999	11	[0, 0, 0]	n/a	FR1	0	R1569T
1164.666	10.428	1416813	COUNTDOWN_START	n/a	n/a	n/a	-999	11	[0, 0, 0]	n/a	FR1	0	R1569T
1175.094	0.007	1427241	COUNTDOWN_END	n/a	n/a	n/a	-999	11	[0, 0, 0]	n/a	FR1	0	R1569T
1175.101	2.617	1427248	ORIENT	n/a	n/a	n/a	-999	11	[0, 0, 0]	n/a	FR1	0	R1569T
1177.718	2.484	1429865	WORD	n/a	wordpools/wordpool_EN.txt	CALF	1	11	[0, 0, 0]	n/a	FR1	0	R1569T
1180.202	2.434	1432349	WORD	n/a	wordpools/wordpool_EN.txt	DITCH	2	11	[0, 0, 0]	n/a	FR1	0	R1569T
1182.636	2.5	1434783	WORD	n/a	wordpools/wordpool_EN.txt	BEACH	3	11	[0, 0, 0]	n/a	FR1	0	R1569T
1185.136	2.567	1437283	WORD	n/a	wordpools/wordpool_EN.txt	OWL	4	11	[0, 0, 0]	n/a	FR1	0	R1569T
1187.703	2.634	1439849	WORD	n/a	wordpools/wordpool_EN.txt	SEA	5	11	[0, 0, 0]	n/a	FR1	0	R1569T
1190.337	2.417	1442483	WORD	n/a	wordpools/wordpool_EN.txt	SHELL	6	11	[0, 0, 0]	n/a	FR1	0	R1569T
1192.754	2.417	1444900	WORD	n/a	wordpools/wordpool_EN.txt	PEA	7	11	[0, 0, 0]	n/a	FR1	0	R1569T
1195.171	2.517	1447317	WORD	n/a	wordpools/wordpool_EN.txt	HORSE	8	11	[0, 0, 0]	n/a	FR1	0	R1569T
1197.688	2.451	1449834	WORD	n/a	wordpools/wordpool_EN.txt	SOCK	9	11	[0, 0, 0]	n/a	FR1	0	R1569T
1200.139	2.4	1452285	WORD	n/a	wordpools/wordpool_EN.txt	MULE	10	11	[0, 0, 0]	n/a	FR1	0	R1569T
1202.539	2.617	1454685	WORD	n/a	wordpools/wordpool_EN.txt	SKUNK	11	11	[0, 0, 0]	n/a	FR1	0	R1569T
1205.156	1.617	1457302	WORD	n/a	wordpools/wordpool_EN.txt	CLAY	12	11	[0, 0, 0]	n/a	FR1	0	R1569T
1206.773	0.001	1458919	DISTRACT_START	n/a	n/a	n/a	-999	11	[0, 0, 0]	n/a	FR1	0	R1569T
1206.774	0.016	1458920	START	n/a	n/a	n/a	-999	11	[-999, -999, -999]	n/a	FR1	0	R1569T
1206.79	6.434	1458936	PROB	6.434	n/a	n/a	-999	11	[7, 6, 1]	14	FR1	0	R1569T
1213.224	11.169	1465369	PROB	11.169	n/a	n/a	-999	11	[5, 9, 4]	18	FR1	0	R1569T
1224.393	5.017	1476538	PROB	5.017	n/a	n/a	-999	11	[6, 4, 7]	17	FR1	0	R1569T
1229.41	0.016	1481555	STOP	n/a	n/a	n/a	-999	11	[-999, -999, -999]	n/a	FR1	0	R1569T
1229.426	1.035	1481571	DISTRACT_END	n/a	n/a	n/a	-999	11	[0, 0, 0]	n/a	FR1	0	R1569T
1230.461	1.734	1482606	REC_START	n/a	n/a	n/a	-999	11	[0, 0, 0]	n/a	FR1	0	R1569T
1232.195	1.137	1484340	REC_WORD	1.137	n/a	CALF	1	11	[0, 0, 0]	n/a	FR1	0	R1569T
1233.332	1.622	1485477	REC_WORD	1.622	n/a	OWL	4	11	[0, 0, 0]	n/a	FR1	0	R1569T
1234.954	1.69	1487099	REC_WORD	1.69	n/a	BEACH	3	11	[0, 0, 0]	n/a	FR1	0	R1569T
1236.644	1.728	1488789	REC_WORD	1.728	n/a	SEA	5	11	[0, 0, 0]	n/a	FR1	0	R1569T
1238.372	21.956	1490517	REC_WORD	21.956	n/a	SHELL	6	11	[0, 0, 0]	n/a	FR1	0	R1569T
1260.328	0.145	1512472	REC_WORD_VV	0.145	n/a	<>	-999	11	[0, 0, 0]	n/a	FR1	0	R1569T
1260.473	2.041	1512617	REC_END	n/a	n/a	n/a	-999	11	[0, 0, 0]	n/a	FR1	0	R1569T
1262.514	0.001	1514658	COUNTDOWN_START	n/a	n/a	n/a	-999	12	[0, 0, 0]	n/a	FR1	0	R1569T
1262.515	10.427	1514659	TRIAL	n/a	n/a	n/a	-999	12	[0, 0, 0]	n/a	FR1	0	R1569T
1272.942	0.008	1525085	COUNTDOWN_END	n/a	n/a	n/a	-999	12	[0, 0, 0]	n/a	FR1	0	R1569T
1272.95	2.434	1525093	ORIENT	n/a	n/a	n/a	-999	12	[0, 0, 0]	n/a	FR1	0	R1569T
1275.384	2.617	1527527	WORD	n/a	wordpools/wordpool_EN.txt	CORD	1	12	[0, 0, 0]	n/a	FR1	0	R1569T
1278.001	2.55	1530144	WORD	n/a	wordpools/wordpool_EN.txt	SHEEP	2	12	[0, 0, 0]	n/a	FR1	0	R1569T
1280.551	2.6	1532694	WORD	n/a	wordpools/wordpool_EN.txt	FILM	3	12	[0, 0, 0]	n/a	FR1	0	R1569T
1283.151	2.534	1535294	WORD	n/a	wordpools/wordpool_EN.txt	TOOTH	4	12	[0, 0, 0]	n/a	FR1	0	R1569T
1285.685	2.584	1537828	WORD	n/a	wordpools/wordpool_EN.txt	FORT	5	12	[0, 0, 0]	n/a	FR1	0	R1569T
1288.269	2.467	1540412	WORD	n/a	wordpools/wordpool_EN.txt	CASH	6	12	[0, 0, 0]	n/a	FR1	0	R1569T
1290.736	2.434	1542879	WORD	n/a	wordpools/wordpool_EN.txt	BEAN	7	12	[0, 0, 0]	n/a	FR1	0	R1569T
1293.17	2.583	1545312	WORD	n/a	wordpools/wordpool_EN.txt	SHARK	8	12	[0, 0, 0]	n/a	FR1	0	R1569T
1295.753	2.534	1547895	WORD	n/a	wordpools/wordpool_EN.txt	TOAD	9	12	[0, 0, 0]	n/a	FR1	0	R1569T
1298.287	2.634	1550429	WORD	n/a	wordpools/wordpool_EN.txt	BANK	10	12	[0, 0, 0]	n/a	FR1	0	R1569T
1300.921	2.633	1553063	WORD	n/a	wordpools/wordpool_EN.txt	BOOK	11	12	[0, 0, 0]	n/a	FR1	0	R1569T
1303.554	1.617	1555696	WORD	n/a	wordpools/wordpool_EN.txt	TEETH	12	12	[0, 0, 0]	n/a	FR1	0	R1569T
1305.171	0.001	1557313	DISTRACT_START	n/a	n/a	n/a	-999	12	[0, 0, 0]	n/a	FR1	0	R1569T
1305.172	0.016	1557314	START	n/a	n/a	n/a	-999	12	[-999, -999, -999]	n/a	FR1	0	R1569T
1305.188	3.851	1557330	PROB	3.851	n/a	n/a	-999	12	[1, 4, 6]	11	FR1	0	R1569T
1309.039	4.5	1561181	PROB	4.5	n/a	n/a	-999	12	[4, 1, 2]	7	FR1	0	R1569T
1313.539	2.401	1565681	PROB	2.401	n/a	n/a	-999	12	[1, 1, 2]	4	FR1	0	R1569T
1315.94	3.717	1568082	PROB	3.717	n/a	n/a	-999	12	[4, 5, 2]	11	FR1	0	R1569T
1319.657	4.634	1571798	PROB	4.634	n/a	n/a	-999	12	[7, 1, 8]	16	FR1	0	R1569T
1324.291	5.756	1576432	PROB	5.756	n/a	n/a	-999	12	[9, 8, 3]	20	FR1	0	R1569T
1330.047	0.011	1582188	STOP	n/a	n/a	n/a	-999	12	[-999, -999, -999]	n/a	FR1	0	R1569T
1330.058	1.035	1582199	DISTRACT_END	n/a	n/a	n/a	-999	12	[0, 0, 0]	n/a	FR1	0	R1569T
1331.093	1.637	1583234	REC_START	n/a	n/a	n/a	-999	12	[0, 0, 0]	n/a	FR1	0	R1569T
1332.73	1.46	1584871	REC_WORD	1.46	n/a	SHEEP	2	12	[0, 0, 0]	n/a	FR1	0	R1569T
1334.19	3.178	1586331	REC_WORD	3.178	n/a	TEETH	12	12	[0, 0, 0]	n/a	FR1	0	R1569T
1337.368	1.407	1589509	REC_WORD	1.407	n/a	SHEEP	2	12	[0, 0, 0]	n/a	FR1	0	R1569T
1338.775	22.33	1590916	REC_WORD	22.33	n/a	TEETH	12	12	[0, 0, 0]	n/a	FR1	0	R1569T
1361.105	2.459	1613245	REC_END	n/a	n/a	n/a	-999	12	[0, 0, 0]	n/a	FR1	0	R1569T
1363.564	0.0	1615704	TRIAL	n/a	n/a	n/a	-999	13	[0, 0, 0]	n/a	FR1	0	R1569T
1363.564	10.428	1615704	COUNTDOWN_START	n/a	n/a	n/a	-999	13	[0, 0, 0]	n/a	FR1	0	R1569T
1373.992	0.007	1626131	COUNTDOWN_END	n/a	n/a	n/a	-999	13	[0, 0, 0]	n/a	FR1	0	R1569T
1373.999	2.433	1626138	ORIENT	n/a	n/a	n/a	-999	13	[0, 0, 0]	n/a	FR1	0	R1569T
1376.432	2.534	1628571	WORD	n/a	wordpools/wordpool_EN.txt	CLOTH	1	13	[0, 0, 0]	n/a	FR1	0	R1569T
1378.966	2.484	1631105	WORD	n/a	wordpools/wordpool_EN.txt	ZOO	2	13	[0, 0, 0]	n/a	FR1	0	R1569T
1381.45	2.384	1633589	WORD	n/a	wordpools/wordpool_EN.txt	GUARD	3	13	[0, 0, 0]	n/a	FR1	0	R1569T
1383.834	2.517	1635973	WORD	n/a	wordpools/wordpool_EN.txt	DEER	4	13	[0, 0, 0]	n/a	FR1	0	R1569T
1386.351	2.533	1638490	WORD	n/a	wordpools/wordpool_EN.txt	INK	5	13	[0, 0, 0]	n/a	FR1	0	R1569T
1388.884	2.417	1641023	WORD	n/a	wordpools/wordpool_EN.txt	MAIL	6	13	[0, 0, 0]	n/a	FR1	0	R1569T
1391.301	2.534	1643440	WORD	n/a	wordpools/wordpool_EN.txt	FOAM	7	13	[0, 0, 0]	n/a	FR1	0	R1569T
1393.835	2.484	1645974	WORD	n/a	wordpools/wordpool_EN.txt	PIT	8	13	[0, 0, 0]	n/a	FR1	0	R1569T
1396.319	2.567	1648458	WORD	n/a	wordpools/wordpool_EN.txt	BADGE	9	13	[0, 0, 0]	n/a	FR1	0	R1569T
1398.886	2.584	1651024	WORD	n/a	wordpools/wordpool_EN.txt	CAGE	10	13	[0, 0, 0]	n/a	FR1	0	R1569T
1401.47	2.416	1653608	WORD	n/a	wordpools/wordpool_EN.txt	BEAK	11	13	[0, 0, 0]	n/a	FR1	0	R1569T
1403.886	1.617	1656024	WORD	n/a	wordpools/wordpool_EN.txt	SHEET	12	13	[0, 0, 0]	n/a	FR1	0	R1569T
1405.503	0.001	1657641	DISTRACT_START	n/a	n/a	n/a	-999	13	[0, 0, 0]	n/a	FR1	0	R1569T
1405.504	0.016	1657642	START	n/a	n/a	n/a	-999	13	[-999, -999, -999]	n/a	FR1	0	R1569T
1405.52	2.567	1657658	PROB	2.567	n/a	n/a	-999	13	[2, 2, 2]	6	FR1	0	R1569T
1408.087	5.401	1660225	PROB	5.401	n/a	n/a	-999	13	[3, 8, 7]	18	FR1	0	R1569T
1413.488	2.885	1665626	PROB	2.885	n/a	n/a	-999	13	[1, 1, 7]	9	FR1	0	R1569T
1416.373	2.899	1668511	PROB	2.899	n/a	n/a	-999	13	[7, 3, 1]	11	FR1	0	R1569T
1419.272	11.5	1671410	PROB	11.5	n/a	n/a	-999	13	[6, 5, 4]	13	FR1	0	R1569T
1430.772	0.019	1682909	STOP	n/a	n/a	n/a	-999	13	[-999, -999, -999]	n/a	FR1	0	R1569T
1430.791	1.184	1682928	DISTRACT_END	n/a	n/a	n/a	-999	13	[0, 0, 0]	n/a	FR1	0	R1569T
1431.975	3.678	1684112	REC_START	n/a	n/a	n/a	-999	13	[0, 0, 0]	n/a	FR1	0	R1569T
1435.653	1.832	1687790	REC_WORD	1.832	n/a	DEER	4	13	[0, 0, 0]	n/a	FR1	0	R1569T
1437.485	2.01	1689622	REC_WORD	2.01	n/a	FOAM	7	13	[0, 0, 0]	n/a	FR1	0	R1569T
1439.495	13.268	1691632	REC_WORD	13.268	n/a	PIT	8	13	[0, 0, 0]	n/a	FR1	0	R1569T
1452.763	1.0	1704899	REC_WORD	1.0	n/a	CLOTH	1	13	[0, 0, 0]	n/a	FR1	0	R1569T
1453.763	8.221	1705899	REC_WORD_VV	8.221	n/a	<>	-999	13	[0, 0, 0]	n/a	FR1	0	R1569T
1461.984	2.295	1714120	REC_END	n/a	n/a	n/a	-999	13	[0, 0, 0]	n/a	FR1	0	R1569T
1464.279	0.0	1716415	TRIAL	n/a	n/a	n/a	-999	14	[0, 0, 0]	n/a	FR1	0	R1569T
1464.279	10.428	1716415	COUNTDOWN_START	n/a	n/a	n/a	-999	14	[0, 0, 0]	n/a	FR1	0	R1569T
1474.707	0.007	1726843	COUNTDOWN_END	n/a	n/a	n/a	-999	14	[0, 0, 0]	n/a	FR1	0	R1569T
1474.714	2.434	1726850	ORIENT	n/a	n/a	n/a	-999	14	[0, 0, 0]	n/a	FR1	0	R1569T
1477.148	2.434	1729283	WORD	n/a	wordpools/wordpool_EN.txt	WALL	1	14	[0, 0, 0]	n/a	FR1	0	R1569T
1479.582	2.417	1731717	WORD	n/a	wordpools/wordpool_EN.txt	VEST	2	14	[0, 0, 0]	n/a	FR1	0	R1569T
1481.999	2.384	1734134	WORD	n/a	wordpools/wordpool_EN.txt	SLUSH	3	14	[0, 0, 0]	n/a	FR1	0	R1569T
1484.383	2.4	1736518	WORD	n/a	wordpools/wordpool_EN.txt	BOX	4	14	[0, 0, 0]	n/a	FR1	0	R1569T
1486.783	2.433	1738918	WORD	n/a	wordpools/wordpool_EN.txt	THREAD	5	14	[0, 0, 0]	n/a	FR1	0	R1569T
1489.216	2.434	1741351	WORD	n/a	wordpools/wordpool_EN.txt	PASTE	6	14	[0, 0, 0]	n/a	FR1	0	R1569T
1491.65	2.417	1743785	WORD	n/a	wordpools/wordpool_EN.txt	WOOD	7	14	[0, 0, 0]	n/a	FR1	0	R1569T
1494.067	2.484	1746202	WORD	n/a	wordpools/wordpool_EN.txt	PIN	8	14	[0, 0, 0]	n/a	FR1	0	R1569T
1496.551	2.584	1748686	WORD	n/a	wordpools/wordpool_EN.txt	SQUARE	9	14	[0, 0, 0]	n/a	FR1	0	R1569T
1499.135	2.6	1751270	WORD	n/a	wordpools/wordpool_EN.txt	DOCK	10	14	[0, 0, 0]	n/a	FR1	0	R1569T
1501.735	2.467	1753870	WORD	n/a	wordpools/wordpool_EN.txt	BOARD	11	14	[0, 0, 0]	n/a	FR1	0	R1569T
1504.202	1.617	1756336	WORD	n/a	wordpools/wordpool_EN.txt	YARD	12	14	[0, 0, 0]	n/a	FR1	0	R1569T
1505.819	0.0	1757953	DISTRACT_START	n/a	n/a	n/a	-999	14	[0, 0, 0]	n/a	FR1	0	R1569T
1505.819	0.016	1757953	START	n/a	n/a	n/a	-999	14	[-999, -999, -999]	n/a	FR1	0	R1569T
1505.835	4.301	1757969	PROB	4.301	n/a	n/a	-999	14	[1, 2, 9]	12	FR1	0	R1569T
1510.136	3.984	1762270	PROB	3.984	n/a	n/a	-999	14	[6, 2, 3]	11	FR1	0	R1569T
1514.12	9.152	1766254	PROB	9.152	n/a	n/a	-999	14	[8, 5, 4]	17	FR1	0	R1569T
1523.272	4.665	1775406	PROB	4.665	n/a	n/a	-999	14	[4, 4, 5]	13	FR1	0	R1569T
1527.937	0.019	1780071	STOP	n/a	n/a	n/a	-999	14	[-999, -999, -999]	n/a	FR1	0	R1569T
1527.956	1.184	1780090	DISTRACT_END	n/a	n/a	n/a	-999	14	[0, 0, 0]	n/a	FR1	0	R1569T
1529.14	1.301	1781274	REC_START	n/a	n/a	n/a	-999	14	[0, 0, 0]	n/a	FR1	0	R1569T
1530.441	1.305	1782574	REC_WORD	1.305	n/a	PIN	8	14	[0, 0, 0]	n/a	FR1	0	R1569T
1531.746	1.0	1783879	REC_WORD	1.0	n/a	SQUARE	9	14	[0, 0, 0]	n/a	FR1	0	R1569T
1532.746	1.248	1784879	REC_WORD_VV	1.248	n/a	<>	-999	14	[0, 0, 0]	n/a	FR1	0	R1569T
1533.994	1.0	1786127	REC_WORD	1.0	n/a	DOCK	10	14	[0, 0, 0]	n/a	FR1	0	R1569T
1534.994	7.773	1787127	REC_WORD_VV	7.773	n/a	<>	-999	14	[0, 0, 0]	n/a	FR1	0	R1569T
1542.767	16.383	1794900	REC_WORD	16.383	n/a	DEER	-999	14	[0, 0, 0]	n/a	FR1	0	R1569T
1559.15	3.261	1811282	REC_END	n/a	n/a	n/a	-999	14	[0, 0, 0]	n/a	FR1	0	R1569T
1562.411	0.0	1814543	TRIAL	n/a	n/a	n/a	-999	15	[0, 0, 0]	n/a	FR1	0	R1569T
1562.411	10.428	1814543	COUNTDOWN_START	n/a	n/a	n/a	-999	15	[0, 0, 0]	n/a	FR1	0	R1569T
1572.839	0.007	1824971	COUNTDOWN_END	n/a	n/a	n/a	-999	15	[0, 0, 0]	n/a	FR1	0	R1569T
1572.846	2.583	1824978	ORIENT	n/a	n/a	n/a	-999	15	[0, 0, 0]	n/a	FR1	0	R1569T
1575.429	2.468	1827561	WORD	n/a	wordpools/wordpool_EN.txt	STICK	1	15	[0, 0, 0]	n/a	FR1	0	R1569T
1577.897	2.583	1830029	WORD	n/a	wordpools/wordpool_EN.txt	MUG	2	15	[0, 0, 0]	n/a	FR1	0	R1569T
1580.48	2.601	1832612	WORD	n/a	wordpools/wordpool_EN.txt	FOOT	3	15	[0, 0, 0]	n/a	FR1	0	R1569T
1583.081	2.633	1835212	WORD	n/a	wordpools/wordpool_EN.txt	CHEEK	4	15	[0, 0, 0]	n/a	FR1	0	R1569T
1585.714	2.484	1837845	WORD	n/a	wordpools/wordpool_EN.txt	RUG	5	15	[0, 0, 0]	n/a	FR1	0	R1569T
1588.198	2.567	1840329	WORD	n/a	wordpools/wordpool_EN.txt	DOOR	6	15	[0, 0, 0]	n/a	FR1	0	R1569T
1590.765	2.567	1842896	WORD	n/a	wordpools/wordpool_EN.txt	THUMB	7	15	[0, 0, 0]	n/a	FR1	0	R1569T
1593.332	2.601	1845463	WORD	n/a	wordpools/wordpool_EN.txt	EEL	8	15	[0, 0, 0]	n/a	FR1	0	R1569T
1595.933	2.4	1848064	WORD	n/a	wordpools/wordpool_EN.txt	CHIN	9	15	[0, 0, 0]	n/a	FR1	0	R1569T
1598.333	2.6	1850464	WORD	n/a	wordpools/wordpool_EN.txt	LIP	10	15	[0, 0, 0]	n/a	FR1	0	R1569T
1600.933	2.452	1853064	WORD	n/a	wordpools/wordpool_EN.txt	SIGN	11	15	[0, 0, 0]	n/a	FR1	0	R1569T
1603.385	1.616	1855516	WORD	n/a	wordpools/wordpool_EN.txt	BED	12	15	[0, 0, 0]	n/a	FR1	0	R1569T
1605.001	0.001	1857132	DISTRACT_START	n/a	n/a	n/a	-999	15	[0, 0, 0]	n/a	FR1	0	R1569T
1605.002	0.015	1857133	START	n/a	n/a	n/a	-999	15	[-999, -999, -999]	n/a	FR1	0	R1569T
1605.017	3.301	1857148	PROB	3.301	n/a	n/a	-999	15	[5, 4, 5]	14	FR1	0	R1569T
1608.318	3.734	1860449	PROB	3.734	n/a	n/a	-999	15	[6, 2, 8]	16	FR1	0	R1569T
1612.052	5.717	1864182	PROB	5.717	n/a	n/a	-999	15	[1, 8, 9]	16	FR1	0	R1569T
1617.769	11.525	1869899	PROB	11.525	n/a	n/a	-999	15	[8, 9, 3]	20	FR1	0	R1569T
1629.294	0.01	1881424	STOP	n/a	n/a	n/a	-999	15	[-999, -999, -999]	n/a	FR1	0	R1569T
1629.304	1.069	1881434	DISTRACT_END	n/a	n/a	n/a	-999	15	[0, 0, 0]	n/a	FR1	0	R1569T
1630.373	2.211	1882503	REC_START	n/a	n/a	n/a	-999	15	[0, 0, 0]	n/a	FR1	0	R1569T
1632.584	1.0	1884714	REC_WORD	1.0	n/a	STICK	1	15	[0, 0, 0]	n/a	FR1	0	R1569T
1633.584	0.623	1885714	REC_WORD_VV	0.623	n/a	<>	-999	15	[0, 0, 0]	n/a	FR1	0	R1569T
1634.207	1.0	1886337	REC_WORD	1.0	n/a	FLOOR	-999	15	[0, 0, 0]	n/a	FR1	0	R1569T
1635.207	11.263	1887337	REC_WORD_VV	11.263	n/a	<>	-999	15	[0, 0, 0]	n/a	FR1	0	R1569T
1646.47	5.777	1898599	REC_WORD	5.777	n/a	DOCK	-999	15	[0, 0, 0]	n/a	FR1	0	R1569T
1652.247	1.0	1904376	REC_WORD_VV	1.0	n/a	<>	-999	15	[0, 0, 0]	n/a	FR1	0	R1569T
1653.247	7.138	1905376	REC_WORD_VV	7.138	n/a	<>	-999	15	[0, 0, 0]	n/a	FR1	0	R1569T
1660.385	2.925	1912514	REC_END	n/a	n/a	n/a	-999	15	[0, 0, 0]	n/a	FR1	0	R1569T
1663.31	0.0	1915438	TRIAL	n/a	n/a	n/a	-999	16	[0, 0, 0]	n/a	FR1	0	R1569T
1663.31	10.428	1915438	COUNTDOWN_START	n/a	n/a	n/a	-999	16	[0, 0, 0]	n/a	FR1	0	R1569T
1673.738	0.007	1925866	COUNTDOWN_END	n/a	n/a	n/a	-999	16	[0, 0, 0]	n/a	FR1	0	R1569T
1673.745	2.433	1925873	ORIENT	n/a	n/a	n/a	-999	16	[0, 0, 0]	n/a	FR1	0	R1569T
1676.178	2.584	1928306	WORD	n/a	wordpools/wordpool_EN.txt	CHIEF	1	16	[0, 0, 0]	n/a	FR1	0	R1569T
1678.762	2.484	1930890	WORD	n/a	wordpools/wordpool_EN.txt	BENCH	2	16	[0, 0, 0]	n/a	FR1	0	R1569T
1681.246	2.5	1933374	WORD	n/a	wordpools/wordpool_EN.txt	PALM	3	16	[0, 0, 0]	n/a	FR1	0	R1569T
1683.746	2.618	1935874	WORD	n/a	wordpools/wordpool_EN.txt	SHIELD	4	16	[0, 0, 0]	n/a	FR1	0	R1569T
1686.364	2.6	1938492	WORD	n/a	wordpools/wordpool_EN.txt	CAKE	5	16	[0, 0, 0]	n/a	FR1	0	R1569T
1688.964	2.567	1941091	WORD	n/a	wordpools/wordpool_EN.txt	COIN	6	16	[0, 0, 0]	n/a	FR1	0	R1569T
1691.531	2.567	1943658	WORD	n/a	wordpools/wordpool_EN.txt	ROSE	7	16	[0, 0, 0]	n/a	FR1	0	R1569T
1694.098	2.567	1946225	WORD	n/a	wordpools/wordpool_EN.txt	RICE	8	16	[0, 0, 0]	n/a	FR1	0	R1569T
1696.665	2.617	1948792	WORD	n/a	wordpools/wordpool_EN.txt	CHAIR	9	16	[0, 0, 0]	n/a	FR1	0	R1569T
1699.282	2.534	1951409	WORD	n/a	wordpools/wordpool_EN.txt	CUP	10	16	[0, 0, 0]	n/a	FR1	0	R1569T
1701.816	2.433	1953943	WORD	n/a	wordpools/wordpool_EN.txt	DRUM	11	16	[0, 0, 0]	n/a	FR1	0	R1569T
1704.249	1.617	1956376	WORD	n/a	wordpools/wordpool_EN.txt	FROG	12	16	[0, 0, 0]	n/a	FR1	0	R1569T
1705.866	0.001	1957993	DISTRACT_START	n/a	n/a	n/a	-999	16	[0, 0, 0]	n/a	FR1	0	R1569T
1705.867	0.016	1957994	START	n/a	n/a	n/a	-999	16	[-999, -999, -999]	n/a	FR1	0	R1569T
1705.883	5.801	1958010	PROB	5.801	n/a	n/a	-999	16	[6, 6, 9]	21	FR1	0	R1569T
1711.684	2.983	1963811	PROB	2.983	n/a	n/a	-999	16	[4, 2, 2]	8	FR1	0	R1569T
1714.667	3.201	1966793	PROB	3.201	n/a	n/a	-999	16	[6, 4, 7]	17	FR1	0	R1569T
1717.868	3.667	1969994	PROB	3.667	n/a	n/a	-999	16	[4, 2, 6]	12	FR1	0	R1569T
1721.535	3.184	1973661	PROB	3.184	n/a	n/a	-999	16	[1, 4, 3]	8	FR1	0	R1569T
1724.719	4.654	1976845	PROB	4.654	n/a	n/a	-999	16	[7, 8, 2]	17	FR1	0	R1569T
1729.373	0.014	1981499	STOP	n/a	n/a	n/a	-999	16	[-999, -999, -999]	n/a	FR1	0	R1569T
1729.387	1.05	1981513	DISTRACT_END	n/a	n/a	n/a	-999	16	[0, 0, 0]	n/a	FR1	0	R1569T
1730.437	1.862	1982563	REC_START	n/a	n/a	n/a	-999	16	[0, 0, 0]	n/a	FR1	0	R1569T
1732.299	1.649	1984425	REC_WORD	1.649	n/a	CHIEF	1	16	[0, 0, 0]	n/a	FR1	0	R1569T
1733.948	1.998	1986074	REC_WORD	1.998	n/a	PALM	3	16	[0, 0, 0]	n/a	FR1	0	R1569T
1735.946	5.899	1988072	REC_WORD	5.899	n/a	COIN	6	16	[0, 0, 0]	n/a	FR1	0	R1569T
1741.845	9.09	1993970	REC_WORD_VV	9.09	n/a	<>	-999	16	[0, 0, 0]	n/a	FR1	0	R1569T
1750.935	1.157	2003060	REC_WORD	1.157	n/a	ROCK	-999	16	[0, 0, 0]	n/a	FR1	0	R1569T
1752.092	8.36	2004217	REC_WORD_VV	8.36	n/a	<>	-999	16	[0, 0, 0]	n/a	FR1	0	R1569T
1760.452	2.84	2012577	REC_END	n/a	n/a	n/a	-999	16	[0, 0, 0]	n/a	FR1	0	R1569T
1763.292	0.0	2015417	TRIAL	n/a	n/a	n/a	-999	17	[0, 0, 0]	n/a	FR1	0	R1569T
1763.292	10.428	2015417	COUNTDOWN_START	n/a	n/a	n/a	-999	17	[0, 0, 0]	n/a	FR1	0	R1569T
1773.72	0.007	2025844	COUNTDOWN_END	n/a	n/a	n/a	-999	17	[0, 0, 0]	n/a	FR1	0	R1569T
1773.727	2.533	2025851	ORIENT	n/a	n/a	n/a	-999	17	[0, 0, 0]	n/a	FR1	0	R1569T
1776.26	2.617	2028384	WORD	n/a	wordpools/wordpool_EN.txt	TEA	1	17	[0, 0, 0]	n/a	FR1	0	R1569T
1778.877	2.485	2031001	WORD	n/a	wordpools/wordpool_EN.txt	FARM	2	17	[0, 0, 0]	n/a	FR1	0	R1569T
1781.362	2.549	2033486	WORD	n/a	wordpools/wordpool_EN.txt	SEAT	3	17	[0, 0, 0]	n/a	FR1	0	R1569T
1783.911	2.517	2036035	WORD	n/a	wordpools/wordpool_EN.txt	BRUSH	4	17	[0, 0, 0]	n/a	FR1	0	R1569T
1786.428	2.434	2038552	WORD	n/a	wordpools/wordpool_EN.txt	AXE	5	17	[0, 0, 0]	n/a	FR1	0	R1569T
1788.862	2.502	2040986	WORD	n/a	wordpools/wordpool_EN.txt	SLEEVE	6	17	[0, 0, 0]	n/a	FR1	0	R1569T
1791.364	2.416	2043488	WORD	n/a	wordpools/wordpool_EN.txt	CORN	7	17	[0, 0, 0]	n/a	FR1	0	R1569T
1793.78	2.5	2045904	WORD	n/a	wordpools/wordpool_EN.txt	HOSE	8	17	[0, 0, 0]	n/a	FR1	0	R1569T
1796.28	2.417	2048403	WORD	n/a	wordpools/wordpool_EN.txt	SMILE	9	17	[0, 0, 0]	n/a	FR1	0	R1569T
1798.697	2.5	2050820	WORD	n/a	wordpools/wordpool_EN.txt	POLE	10	17	[0, 0, 0]	n/a	FR1	0	R1569T
1801.197	2.484	2053320	WORD	n/a	wordpools/wordpool_EN.txt	DART	11	17	[0, 0, 0]	n/a	FR1	0	R1569T
1803.681	1.617	2055804	WORD	n/a	wordpools/wordpool_EN.txt	HAT	12	17	[0, 0, 0]	n/a	FR1	0	R1569T
1805.298	0.001	2057421	DISTRACT_START	n/a	n/a	n/a	-999	17	[0, 0, 0]	n/a	FR1	0	R1569T
1805.299	0.016	2057422	START	n/a	n/a	n/a	-999	17	[-999, -999, -999]	n/a	FR1	0	R1569T
1805.315	4.384	2057438	PROB	4.384	n/a	n/a	-999	17	[9, 9, 1]	19	FR1	0	R1569T
1809.699	9.968	2061822	PROB	9.968	n/a	n/a	-999	17	[7, 3, 4]	14	FR1	0	R1569T
1819.667	4.567	2071790	PROB	4.567	n/a	n/a	-999	17	[2, 6, 1]	9	FR1	0	R1569T
1824.234	4.711	2076356	PROB	4.711	n/a	n/a	-999	17	[6, 1, 8]	15	FR1	0	R1569T
1828.945	0.007	2081067	STOP	n/a	n/a	n/a	-999	17	[-999, -999, -999]	n/a	FR1	0	R1569T
1828.952	1.085	2081074	DISTRACT_END	n/a	n/a	n/a	-999	17	[0, 0, 0]	n/a	FR1	0	R1569T
1830.037	2.06	2082159	REC_START	n/a	n/a	n/a	-999	17	[0, 0, 0]	n/a	FR1	0	R1569T
1832.097	1.0	2084219	REC_WORD	1.0	n/a	HOSE	8	17	[0, 0, 0]	n/a	FR1	0	R1569T
1833.097	1.291	2085219	REC_WORD_VV	1.291	n/a	<>	-999	17	[0, 0, 0]	n/a	FR1	0	R1569T
1834.388	2.435	2086510	REC_WORD	2.435	n/a	CORN	7	17	[0, 0, 0]	n/a	FR1	0	R1569T
1836.823	1.0	2088945	REC_WORD	1.0	n/a	AXE	5	17	[0, 0, 0]	n/a	FR1	0	R1569T
1837.823	1.692	2089945	REC_WORD_VV	1.692	n/a	<>	-999	17	[0, 0, 0]	n/a	FR1	0	R1569T
1839.515	20.533	2091637	REC_WORD	20.533	n/a	PALM	-999	17	[0, 0, 0]	n/a	FR1	0	R1569T
1860.048	5.743	2112169	REC_END	n/a	n/a	n/a	-999	17	[0, 0, 0]	n/a	FR1	0	R1569T
1865.791	0.0	2117912	TRIAL	n/a	n/a	n/a	-999	18	[0, 0, 0]	n/a	FR1	0	R1569T
1865.791	10.428	2117912	COUNTDOWN_START	n/a	n/a	n/a	-999	18	[0, 0, 0]	n/a	FR1	0	R1569T
1876.219	0.007	2128339	COUNTDOWN_END	n/a	n/a	n/a	-999	18	[0, 0, 0]	n/a	FR1	0	R1569T
1876.226	2.383	2128346	ORIENT	n/a	n/a	n/a	-999	18	[0, 0, 0]	n/a	FR1	0	R1569T
1878.609	2.384	2130729	WORD	n/a	wordpools/wordpool_EN.txt	SINK	1	18	[0, 0, 0]	n/a	FR1	0	R1569T
1880.993	2.484	2133113	WORD	n/a	wordpools/wordpool_EN.txt	RAIN	2	18	[0, 0, 0]	n/a	FR1	0	R1569T
1883.477	2.6	2135597	WORD	n/a	wordpools/wordpool_EN.txt	PURSE	3	18	[0, 0, 0]	n/a	FR1	0	R1569T
1886.077	2.567	2138197	WORD	n/a	wordpools/wordpool_EN.txt	BAG	4	18	[0, 0, 0]	n/a	FR1	0	R1569T
1888.644	2.534	2140764	WORD	n/a	wordpools/wordpool_EN.txt	NOSE	5	18	[0, 0, 0]	n/a	FR1	0	R1569T
1891.178	2.5	2143298	WORD	n/a	wordpools/wordpool_EN.txt	FENCE	6	18	[0, 0, 0]	n/a	FR1	0	R1569T
1893.678	2.617	2145798	WORD	n/a	wordpools/wordpool_EN.txt	PIPE	7	18	[0, 0, 0]	n/a	FR1	0	R1569T
1896.295	2.567	2148415	WORD	n/a	wordpools/wordpool_EN.txt	HAND	8	18	[0, 0, 0]	n/a	FR1	0	R1569T
1898.862	2.451	2150982	WORD	n/a	wordpools/wordpool_EN.txt	SUIT	9	18	[0, 0, 0]	n/a	FR1	0	R1569T
1901.313	2.55	2153432	WORD	n/a	wordpools/wordpool_EN.txt	BOY	10	18	[0, 0, 0]	n/a	FR1	0	R1569T
1903.863	2.601	2155982	WORD	n/a	wordpools/wordpool_EN.txt	FLUTE	11	18	[0, 0, 0]	n/a	FR1	0	R1569T
1906.464	1.617	2158583	WORD	n/a	wordpools/wordpool_EN.txt	SHIRT	12	18	[0, 0, 0]	n/a	FR1	0	R1569T
1908.081	0.0	2160200	DISTRACT_START	n/a	n/a	n/a	-999	18	[0, 0, 0]	n/a	FR1	0	R1569T
1908.081	0.016	2160200	START	n/a	n/a	n/a	-999	18	[-999, -999, -999]	n/a	FR1	0	R1569T
1908.097	8.286	2160216	PROB	8.286	n/a	n/a	-999	18	[3, 9, 6]	18	FR1	0	R1569T
1916.383	4.399	2168502	PROB	4.399	n/a	n/a	-999	18	[1, 3, 8]	12	FR1	0	R1569T
1920.782	12.352	2172901	PROB	12.352	n/a	n/a	-999	18	[3, 8, 4]	15	FR1	0	R1569T
1933.134	0.017	2185252	STOP	n/a	n/a	n/a	-999	18	[-999, -999, -999]	n/a	FR1	0	R1569T
1933.151	1.168	2185269	DISTRACT_END	n/a	n/a	n/a	-999	18	[0, 0, 0]	n/a	FR1	0	R1569T
1934.319	1.69	2186437	REC_START	n/a	n/a	n/a	-999	18	[0, 0, 0]	n/a	FR1	0	R1569T
1936.009	1.0	2188127	REC_WORD	1.0	n/a	SINK	1	18	[0, 0, 0]	n/a	FR1	0	R1569T
1937.009	0.669	2189127	REC_WORD_VV	0.669	n/a	<>	-999	18	[0, 0, 0]	n/a	FR1	0	R1569T
1937.678	1.854	2189796	REC_WORD	1.854	n/a	RING	-999	18	[0, 0, 0]	n/a	FR1	0	R1569T
1939.532	1.975	2191650	REC_WORD	1.975	n/a	PURSE	3	18	[0, 0, 0]	n/a	FR1	0	R1569T
1941.507	2.189	2193625	REC_WORD	2.189	n/a	HAND	8	18	[0, 0, 0]	n/a	FR1	0	R1569T
1943.696	0.329	2195814	REC_WORD	0.329	n/a	SINK	1	18	[0, 0, 0]	n/a	FR1	0	R1569T
1944.025	0.397	2196143	REC_WORD	0.397	n/a	RING	-999	18	[0, 0, 0]	n/a	FR1	0	R1569T
1944.422	0.546	2196540	REC_WORD	0.546	n/a	PURSE	3	18	[0, 0, 0]	n/a	FR1	0	R1569T
1944.968	19.363	2197086	REC_WORD	19.363	n/a	HAND	8	18	[0, 0, 0]	n/a	FR1	0	R1569T
1964.331	2.675	2216448	REC_END	n/a	n/a	n/a	-999	18	[0, 0, 0]	n/a	FR1	0	R1569T
1967.006	0.0	2219123	TRIAL	n/a	n/a	n/a	-999	19	[0, 0, 0]	n/a	FR1	0	R1569T
1967.006	10.428	2219123	COUNTDOWN_START	n/a	n/a	n/a	-999	19	[0, 0, 0]	n/a	FR1	0	R1569T
1977.434	0.007	2229551	COUNTDOWN_END	n/a	n/a	n/a	-999	19	[0, 0, 0]	n/a	FR1	0	R1569T
1977.441	2.55	2229558	ORIENT	n/a	n/a	n/a	-999	19	[0, 0, 0]	n/a	FR1	0	R1569T
1979.991	2.501	2232107	WORD	n/a	wordpools/wordpool_EN.txt	WEB	1	19	[0, 0, 0]	n/a	FR1	0	R1569T
1982.492	2.55	2234608	WORD	n/a	wordpools/wordpool_EN.txt	SHOE	2	19	[0, 0, 0]	n/a	FR1	0	R1569T
1985.042	2.584	2237158	WORD	n/a	wordpools/wordpool_EN.txt	WHALE	3	19	[0, 0, 0]	n/a	FR1	0	R1569T
1987.626	2.467	2239742	WORD	n/a	wordpools/wordpool_EN.txt	TENT	4	19	[0, 0, 0]	n/a	FR1	0	R1569T
1990.093	2.467	2242209	WORD	n/a	wordpools/wordpool_EN.txt	FUR	5	19	[0, 0, 0]	n/a	FR1	0	R1569T
1992.56	2.451	2244676	WORD	n/a	wordpools/wordpool_EN.txt	STOOL	6	19	[0, 0, 0]	n/a	FR1	0	R1569T
1995.011	2.5	2247127	WORD	n/a	wordpools/wordpool_EN.txt	PANTS	7	19	[0, 0, 0]	n/a	FR1	0	R1569T
1997.511	2.45	2249627	WORD	n/a	wordpools/wordpool_EN.txt	TOE	8	19	[0, 0, 0]	n/a	FR1	0	R1569T
1999.961	2.567	2252077	WORD	n/a	wordpools/wordpool_EN.txt	GOAT	9	19	[0, 0, 0]	n/a	FR1	0	R1569T
2002.528	2.501	2254644	WORD	n/a	wordpools/wordpool_EN.txt	ROOF	10	19	[0, 0, 0]	n/a	FR1	0	R1569T
2005.029	2.6	2257145	WORD	n/a	wordpools/wordpool_EN.txt	FAN	11	19	[0, 0, 0]	n/a	FR1	0	R1569T
2007.629	1.617	2259744	WORD	n/a	wordpools/wordpool_EN.txt	FACE	12	19	[0, 0, 0]	n/a	FR1	0	R1569T
2009.246	0.0	2261361	DISTRACT_START	n/a	n/a	n/a	-999	19	[0, 0, 0]	n/a	FR1	0	R1569T
2009.246	0.017	2261361	START	n/a	n/a	n/a	-999	19	[-999, -999, -999]	n/a	FR1	0	R1569T
2009.263	4.4	2261378	PROB	4.4	n/a	n/a	-999	19	[7, 8, 1]	16	FR1	0	R1569T
2013.663	4.651	2265778	PROB	4.651	n/a	n/a	-999	19	[9, 3, 2]	14	FR1	0	R1569T
2018.314	2.884	2270429	PROB	2.884	n/a	n/a	-999	19	[6, 4, 1]	11	FR1	0	R1569T
2021.198	5.434	2273313	PROB	5.434	n/a	n/a	-999	19	[7, 2, 6]	15	FR1	0	R1569T
2026.632	4.211	2278747	PROB	4.211	n/a	n/a	-999	19	[2, 5, 5]	12	FR1	0	R1569T
2030.843	0.006	2282958	STOP	n/a	n/a	n/a	-999	19	[-999, -999, -999]	n/a	FR1	0	R1569T
2030.849	1.035	2282964	DISTRACT_END	n/a	n/a	n/a	-999	19	[0, 0, 0]	n/a	FR1	0	R1569T
2031.884	1.939	2283999	REC_START	n/a	n/a	n/a	-999	19	[0, 0, 0]	n/a	FR1	0	R1569T
2033.823	2.053	2285937	REC_WORD	2.053	n/a	WEB	1	19	[0, 0, 0]	n/a	FR1	0	R1569T
2035.876	10.514	2287990	REC_WORD	10.514	n/a	SHOE	2	19	[0, 0, 0]	n/a	FR1	0	R1569T
2046.39	15.506	2298504	REC_WORD	15.506	n/a	FUR	5	19	[0, 0, 0]	n/a	FR1	0	R1569T
2061.896	2.425	2314009	REC_END	n/a	n/a	n/a	-999	19	[0, 0, 0]	n/a	FR1	0	R1569T
2064.321	0.0	2316434	TRIAL	n/a	n/a	n/a	-999	20	[0, 0, 0]	n/a	FR1	0	R1569T
2064.321	10.428	2316434	COUNTDOWN_START	n/a	n/a	n/a	-999	20	[0, 0, 0]	n/a	FR1	0	R1569T
2074.749	0.007	2326862	COUNTDOWN_END	n/a	n/a	n/a	-999	20	[0, 0, 0]	n/a	FR1	0	R1569T
2074.756	2.484	2326869	ORIENT	n/a	n/a	n/a	-999	20	[0, 0, 0]	n/a	FR1	0	R1569T
2077.24	2.583	2329353	WORD	n/a	wordpools/wordpool_EN.txt	JET	1	20	[0, 0, 0]	n/a	FR1	0	R1569T
2079.823	2.401	2331936	WORD	n/a	wordpools/wordpool_EN.txt	SAIL	2	20	[0, 0, 0]	n/a	FR1	0	R1569T
2082.224	2.634	2334337	WORD	n/a	wordpools/wordpool_EN.txt	CLOCK	3	20	[0, 0, 0]	n/a	FR1	0	R1569T
2084.858	2.534	2336971	WORD	n/a	wordpools/wordpool_EN.txt	SPARK	4	20	[0, 0, 0]	n/a	FR1	0	R1569T
2087.392	2.433	2339504	WORD	n/a	wordpools/wordpool_EN.txt	EAR	5	20	[0, 0, 0]	n/a	FR1	0	R1569T
2089.825	2.584	2341937	WORD	n/a	wordpools/wordpool_EN.txt	SHIP	6	20	[0, 0, 0]	n/a	FR1	0	R1569T
2092.409	2.55	2344521	WORD	n/a	wordpools/wordpool_EN.txt	BLUSH	7	20	[0, 0, 0]	n/a	FR1	0	R1569T
2094.959	2.467	2347071	WORD	n/a	wordpools/wordpool_EN.txt	PLANE	8	20	[0, 0, 0]	n/a	FR1	0	R1569T
2097.426	2.601	2349538	WORD	n/a	wordpools/wordpool_EN.txt	LAMP	9	20	[0, 0, 0]	n/a	FR1	0	R1569T
2100.027	2.483	2352139	WORD	n/a	wordpools/wordpool_EN.txt	PHONE	10	20	[0, 0, 0]	n/a	FR1	0	R1569T
2102.51	2.484	2354622	WORD	n/a	wordpools/wordpool_EN.txt	CAR	11	20	[0, 0, 0]	n/a	FR1	0	R1569T
2104.994	1.617	2357106	WORD	n/a	wordpools/wordpool_EN.txt	DOG	12	20	[0, 0, 0]	n/a	FR1	0	R1569T
2106.611	0.0	2358723	DISTRACT_START	n/a	n/a	n/a	-999	20	[0, 0, 0]	n/a	FR1	0	R1569T
2106.611	0.017	2358723	START	n/a	n/a	n/a	-999	20	[-999, -999, -999]	n/a	FR1	0	R1569T
2106.628	5.3	2358740	PROB	5.3	n/a	n/a	-999	20	[3, 8, 8]	19	FR1	0	R1569T
2111.928	3.469	2364039	PROB	3.469	n/a	n/a	-999	20	[6, 1, 4]	11	FR1	0	R1569T
2115.397	3.282	2367508	PROB	3.282	n/a	n/a	-999	20	[4, 1, 8]	15	FR1	0	R1569T
2118.679	5.085	2370790	PROB	5.085	n/a	n/a	-999	20	[8, 3, 7]	18	FR1	0	R1569T
2123.764	5.789	2375875	PROB	5.789	n/a	n/a	-999	20	[9, 8, 9]	26	FR1	0	R1569T
2129.553	0.011	2381664	STOP	n/a	n/a	n/a	-999	20	[-999, -999, -999]	n/a	FR1	0	R1569T
2129.564	1.151	2381675	DISTRACT_END	n/a	n/a	n/a	-999	20	[0, 0, 0]	n/a	FR1	0	R1569T
2130.715	1.465	2382826	REC_START	n/a	n/a	n/a	-999	20	[0, 0, 0]	n/a	FR1	0	R1569T
2132.18	1.69	2384291	REC_WORD	1.69	n/a	JET	1	20	[0, 0, 0]	n/a	FR1	0	R1569T
2133.87	2.03	2385981	REC_WORD	2.03	n/a	SAIL	2	20	[0, 0, 0]	n/a	FR1	0	R1569T
2135.9	1.389	2388011	REC_WORD	1.389	n/a	CAR	11	20	[0, 0, 0]	n/a	FR1	0	R1569T
2137.289	23.438	2389400	REC_WORD	23.438	n/a	DOG	12	20	[0, 0, 0]	n/a	FR1	0	R1569T
2160.727	3.143	2412837	REC_END	n/a	n/a	n/a	-999	20	[0, 0, 0]	n/a	FR1	0	R1569T
2163.87	0.0	2415980	COUNTDOWN_START	n/a	n/a	n/a	-999	21	[0, 0, 0]	n/a	FR1	0	R1569T
2163.87	10.428	2415980	TRIAL	n/a	n/a	n/a	-999	21	[0, 0, 0]	n/a	FR1	0	R1569T
2174.298	0.007	2426407	COUNTDOWN_END	n/a	n/a	n/a	-999	21	[0, 0, 0]	n/a	FR1	0	R1569T
2174.305	2.517	2426414	ORIENT	n/a	n/a	n/a	-999	21	[0, 0, 0]	n/a	FR1	0	R1569T
2176.822	2.517	2428931	WORD	n/a	wordpools/wordpool_EN.txt	STREET	1	21	[0, 0, 0]	n/a	FR1	0	R1569T
2179.339	2.55	2431448	WORD	n/a	wordpools/wordpool_EN.txt	PARK	2	21	[0, 0, 0]	n/a	FR1	0	R1569T
2181.889	2.45	2433998	WORD	n/a	wordpools/wordpool_EN.txt	CLOWN	3	21	[0, 0, 0]	n/a	FR1	0	R1569T
2184.339	2.384	2436448	WORD	n/a	wordpools/wordpool_EN.txt	TREE	4	21	[0, 0, 0]	n/a	FR1	0	R1569T
2186.723	2.401	2438832	WORD	n/a	wordpools/wordpool_EN.txt	BLOOM	5	21	[0, 0, 0]	n/a	FR1	0	R1569T
2189.124	2.55	2441233	WORD	n/a	wordpools/wordpool_EN.txt	VASE	6	21	[0, 0, 0]	n/a	FR1	0	R1569T
2191.674	2.384	2443782	WORD	n/a	wordpools/wordpool_EN.txt	HILL	7	21	[0, 0, 0]	n/a	FR1	0	R1569T
2194.058	2.533	2446166	WORD	n/a	wordpools/wordpool_EN.txt	PIE	8	21	[0, 0, 0]	n/a	FR1	0	R1569T
2196.591	2.584	2448699	WORD	n/a	wordpools/wordpool_EN.txt	BEE	9	21	[0, 0, 0]	n/a	FR1	0	R1569T
2199.175	2.45	2451283	WORD	n/a	wordpools/wordpool_EN.txt	JUICE	10	21	[0, 0, 0]	n/a	FR1	0	R1569T
2201.625	2.568	2453733	WORD	n/a	wordpools/wordpool_EN.txt	ELF	11	21	[0, 0, 0]	n/a	FR1	0	R1569T
2204.193	1.616	2456301	WORD	n/a	wordpools/wordpool_EN.txt	BREAD	12	21	[0, 0, 0]	n/a	FR1	0	R1569T
2205.809	0.001	2457917	DISTRACT_START	n/a	n/a	n/a	-999	21	[0, 0, 0]	n/a	FR1	0	R1569T
2205.81	0.016	2457918	START	n/a	n/a	n/a	-999	21	[-999, -999, -999]	n/a	FR1	0	R1569T
2205.826	3.851	2457934	PROB	3.851	n/a	n/a	-999	21	[5, 5, 1]	11	FR1	0	R1569T
2209.677	4.25	2461785	PROB	4.25	n/a	n/a	-999	21	[2, 7, 7]	16	FR1	0	R1569T
2213.927	3.484	2466035	PROB	3.484	n/a	n/a	-999	21	[6, 3, 4]	13	FR1	0	R1569T
2217.411	6.034	2469518	PROB	6.034	n/a	n/a	-999	21	[5, 4, 3]	12	FR1	0	R1569T
2223.445	7.001	2475552	PROB	7.001	n/a	n/a	-999	21	[8, 5, 7]	20	FR1	0	R1569T
2230.446	0.017	2482553	STOP	n/a	n/a	n/a	-999	21	[-999, -999, -999]	n/a	FR1	0	R1569T
2230.463	1.168	2482570	DISTRACT_END	n/a	n/a	n/a	-999	21	[0, 0, 0]	n/a	FR1	0	R1569T
2231.631	1.278	2483738	REC_START	n/a	n/a	n/a	-999	21	[0, 0, 0]	n/a	FR1	0	R1569T
2232.909	1.0	2485016	REC_WORD	1.0	n/a	STREET	1	21	[0, 0, 0]	n/a	FR1	0	R1569T
2233.909	0.859	2486016	REC_WORD_VV	0.859	n/a	<>	-999	21	[0, 0, 0]	n/a	FR1	0	R1569T
2234.768	1.881	2486875	REC_WORD	1.881	n/a	PARK	2	21	[0, 0, 0]	n/a	FR1	0	R1569T
2236.649	24.992	2488756	REC_WORD	24.992	n/a	SAIL	-999	21	[0, 0, 0]	n/a	FR1	0	R1569T
2261.641	2.311	2513747	REC_END	n/a	n/a	n/a	-999	21	[0, 0, 0]	n/a	FR1	0	R1569T
2263.952	0.0	2516058	TRIAL	n/a	n/a	n/a	-999	22	[0, 0, 0]	n/a	FR1	0	R1569T
2263.952	10.428	2516058	COUNTDOWN_START	n/a	n/a	n/a	-999	22	[0, 0, 0]	n/a	FR1	0	R1569T
2274.38	0.008	2526485	COUNTDOWN_END	n/a	n/a	n/a	-999	22	[0, 0, 0]	n/a	FR1	0	R1569T
2274.388	2.549	2526493	ORIENT	n/a	n/a	n/a	-999	22	[0, 0, 0]	n/a	FR1	0	R1569T
2276.937	2.567	2529042	WORD	n/a	wordpools/wordpool_EN.txt	MOLE	1	22	[0, 0, 0]	n/a	FR1	0	R1569T
2279.504	2.4	2531609	WORD	n/a	wordpools/wordpool_EN.txt	SNAIL	2	22	[0, 0, 0]	n/a	FR1	0	R1569T
2281.904	2.417	2534009	WORD	n/a	wordpools/wordpool_EN.txt	CAVE	3	22	[0, 0, 0]	n/a	FR1	0	R1569T
2284.321	2.601	2536426	WORD	n/a	wordpools/wordpool_EN.txt	BEAR	4	22	[0, 0, 0]	n/a	FR1	0	R1569T
2286.922	2.617	2539027	WORD	n/a	wordpools/wordpool_EN.txt	JEEP	5	22	[0, 0, 0]	n/a	FR1	0	R1569T
2289.539	2.584	2541644	WORD	n/a	wordpools/wordpool_EN.txt	SEAL	6	22	[0, 0, 0]	n/a	FR1	0	R1569T
2292.123	2.5	2544228	WORD	n/a	wordpools/wordpool_EN.txt	WEED	7	22	[0, 0, 0]	n/a	FR1	0	R1569T
2294.623	2.584	2546728	WORD	n/a	wordpools/wordpool_EN.txt	LOCK	8	22	[0, 0, 0]	n/a	FR1	0	R1569T
2297.207	2.4	2549311	WORD	n/a	wordpools/wordpool_EN.txt	WHEEL	9	22	[0, 0, 0]	n/a	FR1	0	R1569T
2299.607	2.384	2551711	WORD	n/a	wordpools/wordpool_EN.txt	FLEA	10	22	[0, 0, 0]	n/a	FR1	0	R1569T
2301.991	2.385	2554095	WORD	n/a	wordpools/wordpool_EN.txt	GATE	11	22	[0, 0, 0]	n/a	FR1	0	R1569T
2304.376	1.615	2556480	WORD	n/a	wordpools/wordpool_EN.txt	KEY	12	22	[0, 0, 0]	n/a	FR1	0	R1569T
2305.991	0.001	2558095	DISTRACT_START	n/a	n/a	n/a	-999	22	[0, 0, 0]	n/a	FR1	0	R1569T
2305.992	0.016	2558096	START	n/a	n/a	n/a	-999	22	[-999, -999, -999]	n/a	FR1	0	R1569T
2306.008	8.768	2558112	PROB	8.768	n/a	n/a	-999	22	[7, 7, 9]	23	FR1	0	R1569T
2314.776	14.979	2566880	PROB	14.979	n/a	n/a	-999	22	[5, 6, 7]	18	FR1	0	R1569T
2329.755	0.007	2581858	STOP	n/a	n/a	n/a	-999	22	[-999, -999, -999]	n/a	FR1	0	R1569T
2329.762	1.034	2581865	DISTRACT_END	n/a	n/a	n/a	-999	22	[0, 0, 0]	n/a	FR1	0	R1569T
2330.796	2.514	2582899	REC_START	n/a	n/a	n/a	-999	22	[0, 0, 0]	n/a	FR1	0	R1569T
2333.31	1.449	2585413	REC_WORD	1.449	n/a	SHARK	-999	22	[0, 0, 0]	n/a	FR1	0	R1569T
2334.759	1.0	2586862	REC_WORD	1.0	n/a	SNAIL	2	22	[0, 0, 0]	n/a	FR1	0	R1569T
2335.759	8.903	2587862	REC_WORD_VV	8.903	n/a	<>	-999	22	[0, 0, 0]	n/a	FR1	0	R1569T
2344.662	16.144	2596765	REC_WORD	16.144	n/a	WEED	7	22	[0, 0, 0]	n/a	FR1	0	R1569T
2360.806	4.745	2612908	REC_END	n/a	n/a	n/a	-999	22	[0, 0, 0]	n/a	FR1	0	R1569T
2365.551	0.0	2617653	TRIAL	n/a	n/a	n/a	-999	23	[0, 0, 0]	n/a	FR1	0	R1569T
2365.551	10.428	2617653	COUNTDOWN_START	n/a	n/a	n/a	-999	23	[0, 0, 0]	n/a	FR1	0	R1569T
2375.979	0.007	2628080	COUNTDOWN_END	n/a	n/a	n/a	-999	23	[0, 0, 0]	n/a	FR1	0	R1569T
2375.986	2.384	2628087	ORIENT	n/a	n/a	n/a	-999	23	[0, 0, 0]	n/a	FR1	0	R1569T
2378.37	2.466	2630471	WORD	n/a	wordpools/wordpool_EN.txt	ROPE	1	23	[0, 0, 0]	n/a	FR1	0	R1569T
2380.836	2.518	2632937	WORD	n/a	wordpools/wordpool_EN.txt	NET	2	23	[0, 0, 0]	n/a	FR1	0	R1569T
2383.354	2.416	2635455	WORD	n/a	wordpools/wordpool_EN.txt	FUDGE	3	23	[0, 0, 0]	n/a	FR1	0	R1569T
2385.77	2.451	2637871	WORD	n/a	wordpools/wordpool_EN.txt	FOX	4	23	[0, 0, 0]	n/a	FR1	0	R1569T
2388.221	2.4	2640322	WORD	n/a	wordpools/wordpool_EN.txt	SUN	5	23	[0, 0, 0]	n/a	FR1	0	R1569T
2390.621	2.45	2642722	WORD	n/a	wordpools/wordpool_EN.txt	SOUP	6	23	[0, 0, 0]	n/a	FR1	0	R1569T
2393.071	2.534	2645172	WORD	n/a	wordpools/wordpool_EN.txt	VINE	7	23	[0, 0, 0]	n/a	FR1	0	R1569T
2395.605	2.517	2647706	WORD	n/a	wordpools/wordpool_EN.txt	SKY	8	23	[0, 0, 0]	n/a	FR1	0	R1569T
2398.122	2.517	2650223	WORD	n/a	wordpools/wordpool_EN.txt	FRUIT	9	23	[0, 0, 0]	n/a	FR1	0	R1569T
2400.639	2.401	2652740	WORD	n/a	wordpools/wordpool_EN.txt	BRANCH	10	23	[0, 0, 0]	n/a	FR1	0	R1569T
2403.04	2.45	2655140	WORD	n/a	wordpools/wordpool_EN.txt	STORM	11	23	[0, 0, 0]	n/a	FR1	0	R1569T
2405.49	1.617	2657590	WORD	n/a	wordpools/wordpool_EN.txt	BOAT	12	23	[0, 0, 0]	n/a	FR1	0	R1569T
2407.107	0.001	2659207	DISTRACT_START	n/a	n/a	n/a	-999	23	[0, 0, 0]	n/a	FR1	0	R1569T
2407.108	0.016	2659208	START	n/a	n/a	n/a	-999	23	[-999, -999, -999]	n/a	FR1	0	R1569T
2407.124	7.484	2659224	PROB	7.484	n/a	n/a	-999	23	[2, 8, 8]	18	FR1	0	R1569T
2414.608	5.084	2666708	PROB	5.084	n/a	n/a	-999	23	[1, 4, 3]	8	FR1	0	R1569T
2419.692	7.964	2671792	PROB	7.964	n/a	n/a	-999	23	[3, 5, 3]	11	FR1	0	R1569T
2427.656	0.004	2679756	STOP	n/a	n/a	n/a	-999	23	[-999, -999, -999]	n/a	FR1	0	R1569T
2427.66	1.101	2679760	DISTRACT_END	n/a	n/a	n/a	-999	23	[0, 0, 0]	n/a	FR1	0	R1569T
2428.761	1.819	2680860	REC_START	n/a	n/a	n/a	-999	23	[0, 0, 0]	n/a	FR1	0	R1569T
2430.58	1.672	2682679	REC_WORD	1.672	n/a	ROPE	1	23	[0, 0, 0]	n/a	FR1	0	R1569T
2432.252	1.0	2684351	REC_WORD	1.0	n/a	SNAKE	-999	23	[0, 0, 0]	n/a	FR1	0	R1569T
2433.252	0.857	2685351	REC_WORD_VV	0.857	n/a	<>	-999	23	[0, 0, 0]	n/a	FR1	0	R1569T
2434.109	2.163	2686208	REC_WORD	2.163	n/a	SAIL	-999	23	[0, 0, 0]	n/a	FR1	0	R1569T
2436.272	1.0	2688371	REC_WORD	1.0	n/a	FUDGE	3	23	[0, 0, 0]	n/a	FR1	0	R1569T
2437.272	21.498	2689371	REC_WORD_VV	21.498	n/a	<>	-999	23	[0, 0, 0]	n/a	FR1	0	R1569T
2458.77	2.729	2710868	REC_END	n/a	n/a	n/a	-999	23	[0, 0, 0]	n/a	FR1	0	R1569T
2461.499	0.0	2713597	TRIAL	n/a	n/a	n/a	-999	24	[0, 0, 0]	n/a	FR1	0	R1569T
2461.499	10.428	2713597	COUNTDOWN_START	n/a	n/a	n/a	-999	24	[0, 0, 0]	n/a	FR1	0	R1569T
2471.927	0.007	2724025	COUNTDOWN_END	n/a	n/a	n/a	-999	24	[0, 0, 0]	n/a	FR1	0	R1569T
2471.934	2.383	2724032	ORIENT	n/a	n/a	n/a	-999	24	[0, 0, 0]	n/a	FR1	0	R1569T
2474.317	2.384	2726415	WORD	n/a	wordpools/wordpool_EN.txt	BOOT	1	24	[0, 0, 0]	n/a	FR1	0	R1569T
2476.701	2.417	2728799	WORD	n/a	wordpools/wordpool_EN.txt	CROW	2	24	[0, 0, 0]	n/a	FR1	0	R1569T
2479.118	2.434	2731216	WORD	n/a	wordpools/wordpool_EN.txt	CANE	3	24	[0, 0, 0]	n/a	FR1	0	R1569T
2481.552	2.4	2733649	WORD	n/a	wordpools/wordpool_EN.txt	BOWL	4	24	[0, 0, 0]	n/a	FR1	0	R1569T
2483.952	2.484	2736049	WORD	n/a	wordpools/wordpool_EN.txt	SPRING	5	24	[0, 0, 0]	n/a	FR1	0	R1569T
2486.436	2.484	2738533	WORD	n/a	wordpools/wordpool_EN.txt	COW	6	24	[0, 0, 0]	n/a	FR1	0	R1569T
2488.92	2.434	2741017	WORD	n/a	wordpools/wordpool_EN.txt	GRASS	7	24	[0, 0, 0]	n/a	FR1	0	R1569T
2491.354	2.6	2743451	WORD	n/a	wordpools/wordpool_EN.txt	BROOM	8	24	[0, 0, 0]	n/a	FR1	0	R1569T
2493.954	2.451	2746051	WORD	n/a	wordpools/wordpool_EN.txt	BUSH	9	24	[0, 0, 0]	n/a	FR1	0	R1569T
2496.405	2.383	2748502	WORD	n/a	wordpools/wordpool_EN.txt	STOVE	10	24	[0, 0, 0]	n/a	FR1	0	R1569T
2498.788	2.568	2750885	WORD	n/a	wordpools/wordpool_EN.txt	CUBE	11	24	[0, 0, 0]	n/a	FR1	0	R1569T
2501.356	1.616	2753453	WORD	n/a	wordpools/wordpool_EN.txt	HEN	12	24	[0, 0, 0]	n/a	FR1	0	R1569T
2502.972	0.0	2755069	DISTRACT_START	n/a	n/a	n/a	-999	24	[0, 0, 0]	n/a	FR1	0	R1569T
2502.972	0.016	2755069	START	n/a	n/a	n/a	-999	24	[-999, -999, -999]	n/a	FR1	0	R1569T
2502.988	4.784	2755085	PROB	4.784	n/a	n/a	-999	24	[7, 2, 1]	10	FR1	0	R1569T
2507.772	5.318	2759869	PROB	5.318	n/a	n/a	-999	24	[3, 5, 1]	9	FR1	0	R1569T
2513.09	3.75	2765186	PROB	3.75	n/a	n/a	-999	24	[4, 3, 1]	8	FR1	0	R1569T
2516.84	3.951	2768936	PROB	3.951	n/a	n/a	-999	24	[1, 7, 9]	17	FR1	0	R1569T
2520.791	4.998	2772887	PROB	4.998	n/a	n/a	-999	24	[1, 5, 2]	9	FR1	0	R1569T
2525.789	0.019	2777885	STOP	n/a	n/a	n/a	-999	24	[-999, -999, -999]	n/a	FR1	0	R1569T
2525.808	1.051	2777904	DISTRACT_END	n/a	n/a	n/a	-999	24	[0, 0, 0]	n/a	FR1	0	R1569T
2526.859	2.157	2778955	REC_START	n/a	n/a	n/a	-999	24	[0, 0, 0]	n/a	FR1	0	R1569T
2529.016	1.675	2781112	REC_WORD	1.675	n/a	BOOT	1	24	[0, 0, 0]	n/a	FR1	0	R1569T
2530.691	2.468	2782787	REC_WORD	2.468	n/a	CROW	2	24	[0, 0, 0]	n/a	FR1	0	R1569T
2533.159	2.344	2785255	REC_WORD	2.344	n/a	CANE	3	24	[0, 0, 0]	n/a	FR1	0	R1569T
2535.503	1.845	2787598	REC_WORD	1.845	n/a	COW	6	24	[0, 0, 0]	n/a	FR1	0	R1569T
2537.348	1.0	2789443	REC_WORD	1.0	n/a	GRASS	7	24	[0, 0, 0]	n/a	FR1	0	R1569T
2538.348	18.526	2790443	REC_WORD_VV	18.526	n/a	<>	-999	24	[0, 0, 0]	n/a	FR1	0	R1569T
2556.874	1.873	2808969	REC_END	n/a	n/a	n/a	-999	24	[0, 0, 0]	n/a	FR1	0	R1569T
2558.747	0.0	2810842	TRIAL	n/a	n/a	n/a	-999	25	[0, 0, 0]	n/a	FR1	0	R1569T
2558.747	10.428	2810842	COUNTDOWN_START	n/a	n/a	n/a	-999	25	[0, 0, 0]	n/a	FR1	0	R1569T
2569.175	0.007	2821269	COUNTDOWN_END	n/a	n/a	n/a	-999	25	[0, 0, 0]	n/a	FR1	0	R1569T
2569.182	2.45	2821276	ORIENT	n/a	n/a	n/a	-999	25	[0, 0, 0]	n/a	FR1	0	R1569T
2571.632	2.417	2823726	WORD	n/a	wordpools/wordpool_EN.txt	BRICK	1	25	[0, 0, 0]	n/a	FR1	0	R1569T
2574.049	2.567	2826143	WORD	n/a	wordpools/wordpool_EN.txt	ROOM	2	25	[0, 0, 0]	n/a	FR1	0	R1569T
2576.616	2.534	2828710	WORD	n/a	wordpools/wordpool_EN.txt	TIE	3	25	[0, 0, 0]	n/a	FR1	0	R1569T
2579.15	2.517	2831244	WORD	n/a	wordpools/wordpool_EN.txt	SLIME	4	25	[0, 0, 0]	n/a	FR1	0	R1569T
2581.667	2.434	2833761	WORD	n/a	wordpools/wordpool_EN.txt	DESK	5	25	[0, 0, 0]	n/a	FR1	0	R1569T
2584.101	2.567	2836195	WORD	n/a	wordpools/wordpool_EN.txt	CHALK	6	25	[0, 0, 0]	n/a	FR1	0	R1569T
2586.668	2.533	2838762	WORD	n/a	wordpools/wordpool_EN.txt	MAZE	7	25	[0, 0, 0]	n/a	FR1	0	R1569T
2589.201	2.601	2841294	WORD	n/a	wordpools/wordpool_EN.txt	SCHOOL	8	25	[0, 0, 0]	n/a	FR1	0	R1569T
2591.802	2.4	2843895	WORD	n/a	wordpools/wordpool_EN.txt	BAND	9	25	[0, 0, 0]	n/a	FR1	0	R1569T
2594.202	2.534	2846295	WORD	n/a	wordpools/wordpool_EN.txt	FLAG	10	25	[0, 0, 0]	n/a	FR1	0	R1569T
2596.736	2.567	2848829	WORD	n/a	wordpools/wordpool_EN.txt	FLOOR	11	25	[0, 0, 0]	n/a	FR1	0	R1569T
2599.303	1.617	2851396	WORD	n/a	wordpools/wordpool_EN.txt	GLOVE	12	25	[0, 0, 0]	n/a	FR1	0	R1569T
2600.92	0.001	2853013	DISTRACT_START	n/a	n/a	n/a	-999	25	[0, 0, 0]	n/a	FR1	0	R1569T
2600.921	0.016	2853014	START	n/a	n/a	n/a	-999	25	[-999, -999, -999]	n/a	FR1	0	R1569T
2600.937	5.0	2853030	PROB	5.0	n/a	n/a	-999	25	[2, 1, 1]	4	FR1	0	R1569T
2605.937	5.436	2858030	PROB	5.436	n/a	n/a	-999	25	[4, 1, 8]	13	FR1	0	R1569T
2611.373	5.949	2863466	PROB	5.949	n/a	n/a	-999	25	[9, 4, 2]	15	FR1	0	R1569T
2617.322	3.234	2869414	PROB	3.234	n/a	n/a	-999	25	[1, 1, 4]	6	FR1	0	R1569T
2620.556	5.903	2872648	PROB	5.903	n/a	n/a	-999	25	[7, 9, 2]	18	FR1	0	R1569T
2626.459	0.015	2878551	STOP	n/a	n/a	n/a	-999	25	[-999, -999, -999]	n/a	FR1	0	R1569T
2626.474	1.034	2878566	DISTRACT_END	n/a	n/a	n/a	-999	25	[0, 0, 0]	n/a	FR1	0	R1569T
2627.508	2.556	2879600	REC_START	n/a	n/a	n/a	-999	25	[0, 0, 0]	n/a	FR1	0	R1569T
2630.064	1.0	2882156	REC_WORD	1.0	n/a	FLAG	10	25	[0, 0, 0]	n/a	FR1	0	R1569T
2631.064	2.132	2883156	REC_WORD_VV	2.132	n/a	<>	-999	25	[0, 0, 0]	n/a	FR1	0	R1569T
2633.196	1.0	2885288	REC_WORD	1.0	n/a	CROW	-999	25	[0, 0, 0]	n/a	FR1	0	R1569T
2634.196	3.2	2886288	REC_WORD_VV	3.2	n/a	<>	-999	25	[0, 0, 0]	n/a	FR1	0	R1569T
2637.396	1.0	2889488	REC_WORD	1.0	n/a	SNAIL	-999	25	[0, 0, 0]	n/a	FR1	0	R1569T
2638.396	19.123	2890488	REC_WORD_VV	19.123	n/a	<>	-999	25	[0, 0, 0]	n/a	FR1	0	R1569T
2657.519	34.966	2909610	REC_END	n/a	n/a	n/a	-999	25	[0, 0, 0]	n/a	FR1	0	R1569T
2692.485	0.0	2944575	SESS_END	n/a	n/a	n/a	-999	25	[0, 0, 0]	n/a	FR1	0	R1569T
