onset	duration	sample	trial_type	response_time	stim_file	item_name	serialpos	list	test	answer	experiment	session	subject
0.0	1.314	33644	INSTRUCT_START	n/a	n/a	n/a	-999	-999	[0, 0, 0]	n/a	FR1	2	R1441T
1.314	37.973	34943	INSTRUCT_END	n/a	n/a	n/a	-999	-999	[0, 0, 0]	n/a	FR1	2	R1441T
39.287	10.348	72932	COUNTDOWN_START	n/a	n/a	n/a	-999	-999	[0, 0, 0]	n/a	FR1	2	R1441T
49.635	0.0	83286	COUNTDOWN_END	n/a	n/a	n/a	-999	-999	[0, 0, 0]	n/a	FR1	2	R1441T
49.635	1.983	83286	ENCODING_START	n/a	n/a	n/a	-999	-1	[0, 0, 0]	n/a	FR1	2	R1441T
51.618	1.616	85270	WORD	n/a	n/a	DRINK	1	-1	[0, 0, 0]	n/a	FR1	2	R1441T
53.234	0.8	86876	WORD_OFF	n/a	n/a	DRINK	1	-1	[0, 0, 0]	n/a	FR1	2	R1441T
54.034	1.6	87687	WORD	n/a	n/a	PET	2	-1	[0, 0, 0]	n/a	FR1	2	R1441T
55.634	0.899	89280	WORD_OFF	n/a	n/a	PET	2	-1	[0, 0, 0]	n/a	FR1	2	R1441T
56.533	1.616	90174	WORD	n/a	n/a	RICE	3	-1	[0, 0, 0]	n/a	FR1	2	R1441T
58.149	0.85	91794	WORD_OFF	n/a	n/a	RICE	3	-1	[0, 0, 0]	n/a	FR1	2	R1441T
58.999	1.617	92647	WORD	n/a	n/a	SPONGE	4	-1	[0, 0, 0]	n/a	FR1	2	R1441T
60.616	0.815	94267	WORD_OFF	n/a	n/a	SPONGE	4	-1	[0, 0, 0]	n/a	FR1	2	R1441T
61.431	1.617	95078	WORD	n/a	n/a	LUNCH	5	-1	[0, 0, 0]	n/a	FR1	2	R1441T
63.048	0.95	96699	WORD_OFF	n/a	n/a	LUNCH	5	-1	[0, 0, 0]	n/a	FR1	2	R1441T
63.998	1.616	97649	WORD	n/a	n/a	TOOTH	6	-1	[0, 0, 0]	n/a	FR1	2	R1441T
65.614	0.817	99269	WORD_OFF	n/a	n/a	TOOTH	6	-1	[0, 0, 0]	n/a	FR1	2	R1441T
66.431	1.616	100080	WORD	n/a	n/a	ARK	7	-1	[0, 0, 0]	n/a	FR1	2	R1441T
68.047	0.983	101700	WORD_OFF	n/a	n/a	ARK	7	-1	[0, 0, 0]	n/a	FR1	2	R1441T
69.03	1.616	102678	WORD	n/a	n/a	SHIP	8	-1	[0, 0, 0]	n/a	FR1	2	R1441T
70.646	0.85	104299	WORD_OFF	n/a	n/a	SHIP	8	-1	[0, 0, 0]	n/a	FR1	2	R1441T
71.496	1.616	105152	WORD	n/a	n/a	ROCK	9	-1	[0, 0, 0]	n/a	FR1	2	R1441T
73.112	1.0	106758	WORD_OFF	n/a	n/a	ROCK	9	-1	[0, 0, 0]	n/a	FR1	2	R1441T
74.112	1.617	107764	WORD	n/a	n/a	OAR	10	-1	[0, 0, 0]	n/a	FR1	2	R1441T
75.729	0.999	109385	WORD_OFF	n/a	n/a	OAR	10	-1	[0, 0, 0]	n/a	FR1	2	R1441T
76.728	1.6	110377	WORD	n/a	n/a	SHEET	11	-1	[0, 0, 0]	n/a	FR1	2	R1441T
78.328	0.983	111984	WORD_OFF	n/a	n/a	SHEET	11	-1	[0, 0, 0]	n/a	FR1	2	R1441T
79.311	1.618	112962	WORD	n/a	n/a	SLUSH	12	-1	[0, 0, 0]	n/a	FR1	2	R1441T
80.929	0.0	114578	START	n/a	n/a	n/a	-999	-1	[-999, -999, -999]	n/a	FR1	2	R1441T
80.929	0.0	114578	PROB	0.0	n/a	n/a	-999	-1	[1, 6, 4]	11	FR1	2	R1441T
80.927	0.002	114582	WORD_OFF	n/a	n/a	SLUSH	12	-1	[0, 0, 0]	n/a	FR1	2	R1441T
80.929	0.0	114582	ENCODING_END	n/a	n/a	n/a	-999	-1	[0, 0, 0]	n/a	FR1	2	R1441T
80.929	6.614	114582	DISTRACT_START	n/a	n/a	n/a	-999	-1	[0, 0, 0]	n/a	FR1	2	R1441T
87.543	7.781	121193	PROB	7.781	n/a	n/a	-999	-1	[3, 7, 4]	14	FR1	2	R1441T
95.324	6.298	128975	PROB	6.298	n/a	n/a	-999	-1	[3, 6, 4]	13	FR1	2	R1441T
101.622	0.0	135275	DISTRACT_END	n/a	n/a	n/a	-999	-1	[0, 0, 0]	n/a	FR1	2	R1441T
101.622	2.333	135275	STOP	n/a	n/a	n/a	-999	-1	[-999, -999, -999]	n/a	FR1	2	R1441T
103.955	0.278	137616	REC_START	n/a	n/a	n/a	-999	-1	[0, 0, 0]	n/a	FR1	2	R1441T
104.233	0.82	137886	REC_WORD	0.82	n/a	DRINK	1	-1	[0, 0, 0]	n/a	FR1	2	R1441T
105.053	0.769	138706	REC_WORD	0.769	n/a	PET	2	-1	[0, 0, 0]	n/a	FR1	2	R1441T
105.822	0.684	139475	REC_WORD	0.684	n/a	RICE	3	-1	[0, 0, 0]	n/a	FR1	2	R1441T
106.506	1.069	140159	REC_WORD	1.069	n/a	SPONGE	4	-1	[0, 0, 0]	n/a	FR1	2	R1441T
107.575	1.049	141229	REC_WORD	1.049	n/a	LUNCH	5	-1	[0, 0, 0]	n/a	FR1	2	R1441T
108.624	9.164	142278	REC_WORD	9.164	n/a	OAR	10	-1	[0, 0, 0]	n/a	FR1	2	R1441T
117.788	1.0	151443	REC_WORD_VV	1.0	n/a	<>	-999	-1	[0, 0, 0]	n/a	FR1	2	R1441T
118.788	1.0	152444	REC_WORD_VV	1.0	n/a	<>	-999	-1	[0, 0, 0]	n/a	FR1	2	R1441T
119.788	2.455	153444	REC_WORD_VV	2.455	n/a	<>	-999	-1	[0, 0, 0]	n/a	FR1	2	R1441T
122.243	11.907	155899	REC_WORD_VV	11.907	n/a	<>	-999	-1	[0, 0, 0]	n/a	FR1	2	R1441T
134.15	44.936	167815	REC_END	n/a	n/a	n/a	-999	-1	[0, 0, 0]	n/a	FR1	2	R1441T
179.086	10.348	212762	COUNTDOWN_START	n/a	n/a	n/a	-999	1	[0, 0, 0]	n/a	FR1	2	R1441T
189.434	0.001	223102	COUNTDOWN_END	n/a	n/a	n/a	-999	1	[0, 0, 0]	n/a	FR1	2	R1441T
189.435	1.915	223102	ENCODING_START	n/a	n/a	n/a	-999	1	[0, 0, 0]	n/a	FR1	2	R1441T
191.35	1.616	225030	WORD	n/a	wordpools/wordpool_long_EN.txt	NET	1	1	[0, 0, 0]	n/a	FR1	2	R1441T
192.966	0.833	226636	WORD_OFF	n/a	n/a	NET	1	1	[0, 0, 0]	n/a	FR1	2	R1441T
193.799	1.616	227475	WORD	n/a	wordpools/wordpool_long_EN.txt	CHEST	2	1	[0, 0, 0]	n/a	FR1	2	R1441T
195.415	0.783	229082	WORD_OFF	n/a	n/a	CHEST	2	1	[0, 0, 0]	n/a	FR1	2	R1441T
196.198	1.601	229878	WORD	n/a	wordpools/wordpool_long_EN.txt	BREAD	3	1	[0, 0, 0]	n/a	FR1	2	R1441T
197.799	0.883	231471	WORD_OFF	n/a	n/a	BREAD	3	1	[0, 0, 0]	n/a	FR1	2	R1441T
198.682	1.615	232351	WORD	n/a	wordpools/wordpool_long_EN.txt	COIN	4	1	[0, 0, 0]	n/a	FR1	2	R1441T
200.297	0.851	233972	WORD_OFF	n/a	n/a	COIN	4	1	[0, 0, 0]	n/a	FR1	2	R1441T
201.148	1.6	234824	WORD	n/a	wordpools/wordpool_long_EN.txt	GIRL	5	1	[0, 0, 0]	n/a	FR1	2	R1441T
202.748	0.866	236417	WORD_OFF	n/a	n/a	GIRL	5	1	[0, 0, 0]	n/a	FR1	2	R1441T
203.614	1.615	237283	WORD	n/a	wordpools/wordpool_long_EN.txt	BOWL	6	1	[0, 0, 0]	n/a	FR1	2	R1441T
205.229	1.001	238904	WORD_OFF	n/a	n/a	BOWL	6	1	[0, 0, 0]	n/a	FR1	2	R1441T
206.23	1.616	239910	WORD	n/a	wordpools/wordpool_long_EN.txt	PIPE	7	1	[0, 0, 0]	n/a	FR1	2	R1441T
207.846	0.8	241516	WORD_OFF	n/a	n/a	PIPE	7	1	[0, 0, 0]	n/a	FR1	2	R1441T
208.646	1.616	242327	WORD	n/a	wordpools/wordpool_long_EN.txt	LINT	8	1	[0, 0, 0]	n/a	FR1	2	R1441T
210.262	1.0	243934	WORD_OFF	n/a	n/a	LINT	8	1	[0, 0, 0]	n/a	FR1	2	R1441T
211.262	1.617	244940	WORD	n/a	wordpools/wordpool_long_EN.txt	ELF	9	1	[0, 0, 0]	n/a	FR1	2	R1441T
212.879	0.916	246560	WORD_OFF	n/a	n/a	ELF	9	1	[0, 0, 0]	n/a	FR1	2	R1441T
213.795	1.616	247468	WORD	n/a	wordpools/wordpool_long_EN.txt	SWORD	10	1	[0, 0, 0]	n/a	FR1	2	R1441T
215.411	0.783	249089	WORD_OFF	n/a	n/a	SWORD	10	1	[0, 0, 0]	n/a	FR1	2	R1441T
216.194	1.616	249872	WORD	n/a	wordpools/wordpool_long_EN.txt	CLOCK	11	1	[0, 0, 0]	n/a	FR1	2	R1441T
217.81	0.85	251492	WORD_OFF	n/a	n/a	CLOCK	11	1	[0, 0, 0]	n/a	FR1	2	R1441T
218.66	1.616	252331	WORD	n/a	wordpools/wordpool_long_EN.txt	FLEET	12	1	[0, 0, 0]	n/a	FR1	2	R1441T
220.276	0.002	253951	WORD_OFF	n/a	n/a	FLEET	12	1	[0, 0, 0]	n/a	FR1	2	R1441T
220.278	0.0	253951	ENCODING_END	n/a	n/a	n/a	-999	1	[0, 0, 0]	n/a	FR1	2	R1441T
220.277	0.001	253952	PROB	0.001	n/a	n/a	-999	1	[4, 7, 5]	16	FR1	2	R1441T
220.278	0.0	253953	START	n/a	n/a	n/a	-999	1	[-999, -999, -999]	n/a	FR1	2	R1441T
220.278	11.795	253965	DISTRACT_START	n/a	n/a	n/a	-999	1	[0, 0, 0]	n/a	FR1	2	R1441T
232.073	5.415	265750	PROB	5.415	n/a	n/a	-999	1	[2, 7, 7]	16	FR1	2	R1441T
237.488	6.683	271166	PROB	6.683	n/a	n/a	-999	1	[7, 6, 7]	20	FR1	2	R1441T
244.171	0.0	277851	STOP	n/a	n/a	n/a	-999	1	[-999, -999, -999]	n/a	FR1	2	R1441T
244.171	2.099	277857	DISTRACT_END	n/a	n/a	n/a	-999	1	[0, 0, 0]	n/a	FR1	2	R1441T
246.27	0.062	279947	REC_START	n/a	n/a	n/a	-999	1	[0, 0, 0]	n/a	FR1	2	R1441T
246.332	0.768	280012	REC_WORD	0.768	n/a	NET	1	1	[0, 0, 0]	n/a	FR1	2	R1441T
247.1	0.769	280780	REC_WORD	0.769	n/a	CHEST	2	1	[0, 0, 0]	n/a	FR1	2	R1441T
247.869	0.866	281549	REC_WORD	0.866	n/a	BREAD	3	1	[0, 0, 0]	n/a	FR1	2	R1441T
248.735	0.945	282415	REC_WORD	0.945	n/a	COIN	4	1	[0, 0, 0]	n/a	FR1	2	R1441T
249.68	0.87	283361	REC_WORD	0.87	n/a	GIRL	5	1	[0, 0, 0]	n/a	FR1	2	R1441T
250.55	0.76	284231	REC_WORD	0.76	n/a	PIPE	7	1	[0, 0, 0]	n/a	FR1	2	R1441T
251.31	25.173	284991	REC_WORD	25.173	n/a	BOWL	6	1	[0, 0, 0]	n/a	FR1	2	R1441T
276.483	2.045	310174	REC_END	n/a	n/a	n/a	-999	1	[0, 0, 0]	n/a	FR1	2	R1441T
278.528	10.348	312214	COUNTDOWN_START	n/a	n/a	n/a	-999	2	[0, 0, 0]	n/a	FR1	2	R1441T
288.876	0.0	322567	COUNTDOWN_END	n/a	n/a	n/a	-999	2	[0, 0, 0]	n/a	FR1	2	R1441T
288.876	2.083	322567	ENCODING_START	n/a	n/a	n/a	-999	2	[0, 0, 0]	n/a	FR1	2	R1441T
290.959	1.617	324649	WORD	n/a	wordpools/wordpool_long_EN.txt	MOOSE	1	2	[0, 0, 0]	n/a	FR1	2	R1441T
292.576	0.966	326269	WORD_OFF	n/a	n/a	MOOSE	1	2	[0, 0, 0]	n/a	FR1	2	R1441T
293.542	1.615	327234	WORD	n/a	wordpools/wordpool_long_EN.txt	TANK	2	2	[0, 0, 0]	n/a	FR1	2	R1441T
295.157	0.818	328854	WORD_OFF	n/a	n/a	TANK	2	2	[0, 0, 0]	n/a	FR1	2	R1441T
295.975	1.615	329665	WORD	n/a	wordpools/wordpool_long_EN.txt	BAT	3	2	[0, 0, 0]	n/a	FR1	2	R1441T
297.59	0.901	331285	WORD_OFF	n/a	n/a	BAT	3	2	[0, 0, 0]	n/a	FR1	2	R1441T
298.491	1.616	332180	WORD	n/a	wordpools/wordpool_long_EN.txt	MAIL	4	2	[0, 0, 0]	n/a	FR1	2	R1441T
300.107	0.899	333800	WORD_OFF	n/a	n/a	MAIL	4	2	[0, 0, 0]	n/a	FR1	2	R1441T
301.006	1.6	334694	WORD	n/a	wordpools/wordpool_long_EN.txt	THRONE	5	2	[0, 0, 0]	n/a	FR1	2	R1441T
302.606	0.766	336301	WORD_OFF	n/a	n/a	THRONE	5	2	[0, 0, 0]	n/a	FR1	2	R1441T
303.372	1.616	337070	WORD	n/a	wordpools/wordpool_long_EN.txt	GRASS	6	2	[0, 0, 0]	n/a	FR1	2	R1441T
304.988	0.768	338676	WORD_OFF	n/a	n/a	GRASS	6	2	[0, 0, 0]	n/a	FR1	2	R1441T
305.756	1.616	339445	WORD	n/a	wordpools/wordpool_long_EN.txt	PALM	7	2	[0, 0, 0]	n/a	FR1	2	R1441T
307.372	0.915	341066	WORD_OFF	n/a	n/a	PALM	7	2	[0, 0, 0]	n/a	FR1	2	R1441T
308.287	1.601	341988	WORD	n/a	wordpools/wordpool_long_EN.txt	HAT	8	2	[0, 0, 0]	n/a	FR1	2	R1441T
309.888	0.899	343581	WORD_OFF	n/a	n/a	HAT	8	2	[0, 0, 0]	n/a	FR1	2	R1441T
310.787	1.615	344475	WORD	n/a	wordpools/wordpool_long_EN.txt	JUDGE	9	2	[0, 0, 0]	n/a	FR1	2	R1441T
312.402	0.934	346096	WORD_OFF	n/a	n/a	JUDGE	9	2	[0, 0, 0]	n/a	FR1	2	R1441T
313.336	1.6	347032	WORD	n/a	wordpools/wordpool_long_EN.txt	ROOT	10	2	[0, 0, 0]	n/a	FR1	2	R1441T
314.936	0.9	348638	WORD_OFF	n/a	n/a	ROOT	10	2	[0, 0, 0]	n/a	FR1	2	R1441T
315.836	1.616	349533	WORD	n/a	wordpools/wordpool_long_EN.txt	DART	11	2	[0, 0, 0]	n/a	FR1	2	R1441T
317.452	0.916	351153	WORD_OFF	n/a	n/a	DART	11	2	[0, 0, 0]	n/a	FR1	2	R1441T
318.368	1.617	352061	WORD	n/a	wordpools/wordpool_long_EN.txt	TOOL	12	2	[0, 0, 0]	n/a	FR1	2	R1441T
319.985	0.001	353679	PROB	0.001	n/a	n/a	-999	2	[5, 6, 6]	17	FR1	2	R1441T
319.986	0.0	353680	START	n/a	n/a	n/a	-999	2	[-999, -999, -999]	n/a	FR1	2	R1441T
319.985	0.001	353682	WORD_OFF	n/a	n/a	TOOL	12	2	[0, 0, 0]	n/a	FR1	2	R1441T
319.986	0.0	353682	ENCODING_END	n/a	n/a	n/a	-999	2	[0, 0, 0]	n/a	FR1	2	R1441T
319.986	9.913	353682	DISTRACT_START	n/a	n/a	n/a	-999	2	[0, 0, 0]	n/a	FR1	2	R1441T
329.899	11.315	363595	PROB	11.315	n/a	n/a	-999	2	[8, 4, 7]	19	FR1	2	R1441T
341.214	0.0	374912	STOP	n/a	n/a	n/a	-999	2	[-999, -999, -999]	n/a	FR1	2	R1441T
341.214	2.133	374919	DISTRACT_END	n/a	n/a	n/a	-999	2	[0, 0, 0]	n/a	FR1	2	R1441T
343.347	0.795	377051	REC_START	n/a	n/a	n/a	-999	2	[0, 0, 0]	n/a	FR1	2	R1441T
344.142	0.953	377841	REC_WORD	0.953	n/a	MOOSE	1	2	[0, 0, 0]	n/a	FR1	2	R1441T
345.095	0.949	378794	REC_WORD	0.949	n/a	TANK	2	2	[0, 0, 0]	n/a	FR1	2	R1441T
346.044	0.763	379743	REC_WORD	0.763	n/a	BAT	3	2	[0, 0, 0]	n/a	FR1	2	R1441T
346.807	0.936	380506	REC_WORD	0.936	n/a	MAIL	4	2	[0, 0, 0]	n/a	FR1	2	R1441T
347.743	0.834	381442	REC_WORD	0.834	n/a	THRONE	5	2	[0, 0, 0]	n/a	FR1	2	R1441T
348.577	8.777	382276	REC_WORD	8.777	n/a	GRASS	6	2	[0, 0, 0]	n/a	FR1	2	R1441T
357.354	1.0	391055	REC_WORD_VV	1.0	n/a	<>	-999	2	[0, 0, 0]	n/a	FR1	2	R1441T
358.354	15.253	392055	REC_WORD_VV	15.253	n/a	<>	-999	2	[0, 0, 0]	n/a	FR1	2	R1441T
373.607	2.948	407320	REC_END	n/a	n/a	n/a	-999	2	[0, 0, 0]	n/a	FR1	2	R1441T
376.555	10.347	410268	COUNTDOWN_START	n/a	n/a	n/a	-999	3	[0, 0, 0]	n/a	FR1	2	R1441T
386.902	0.0	420607	COUNTDOWN_END	n/a	n/a	n/a	-999	3	[0, 0, 0]	n/a	FR1	2	R1441T
386.902	2.051	420607	ENCODING_START	n/a	n/a	n/a	-999	3	[0, 0, 0]	n/a	FR1	2	R1441T
388.953	1.614	422661	WORD	n/a	wordpools/wordpool_long_EN.txt	BENCH	1	3	[0, 0, 0]	n/a	FR1	2	R1441T
390.567	0.817	424282	WORD_OFF	n/a	n/a	BENCH	1	3	[0, 0, 0]	n/a	FR1	2	R1441T
391.384	1.6	425092	WORD	n/a	wordpools/wordpool_long_EN.txt	CLIFF	2	3	[0, 0, 0]	n/a	FR1	2	R1441T
392.984	0.933	426699	WORD_OFF	n/a	n/a	CLIFF	2	3	[0, 0, 0]	n/a	FR1	2	R1441T
393.917	1.616	427621	WORD	n/a	wordpools/wordpool_long_EN.txt	SKATE	3	3	[0, 0, 0]	n/a	FR1	2	R1441T
395.533	0.966	429242	WORD_OFF	n/a	n/a	SKATE	3	3	[0, 0, 0]	n/a	FR1	2	R1441T
396.499	1.616	430206	WORD	n/a	wordpools/wordpool_long_EN.txt	VEST	4	3	[0, 0, 0]	n/a	FR1	2	R1441T
398.115	0.768	431827	WORD_OFF	n/a	n/a	VEST	4	3	[0, 0, 0]	n/a	FR1	2	R1441T
398.883	1.616	432595	WORD	n/a	wordpools/wordpool_long_EN.txt	POLE	5	3	[0, 0, 0]	n/a	FR1	2	R1441T
400.499	0.816	434216	WORD_OFF	n/a	n/a	POLE	5	3	[0, 0, 0]	n/a	FR1	2	R1441T
401.315	1.617	435026	WORD	n/a	wordpools/wordpool_long_EN.txt	MOUTH	6	3	[0, 0, 0]	n/a	FR1	2	R1441T
402.932	0.949	436647	WORD_OFF	n/a	n/a	MOUTH	6	3	[0, 0, 0]	n/a	FR1	2	R1441T
403.881	1.6	437597	WORD	n/a	wordpools/wordpool_long_EN.txt	BATH	7	3	[0, 0, 0]	n/a	FR1	2	R1441T
405.481	0.983	439190	WORD_OFF	n/a	n/a	BATH	7	3	[0, 0, 0]	n/a	FR1	2	R1441T
406.464	1.616	440182	WORD	n/a	wordpools/wordpool_long_EN.txt	GUARD	8	3	[0, 0, 0]	n/a	FR1	2	R1441T
408.08	0.949	441788	WORD_OFF	n/a	n/a	GUARD	8	3	[0, 0, 0]	n/a	FR1	2	R1441T
409.029	1.6	442739	WORD	n/a	wordpools/wordpool_long_EN.txt	PLATE	9	3	[0, 0, 0]	n/a	FR1	2	R1441T
410.629	0.984	444345	WORD_OFF	n/a	n/a	PLATE	9	3	[0, 0, 0]	n/a	FR1	2	R1441T
411.613	1.615	445323	WORD	n/a	wordpools/wordpool_long_EN.txt	SKUNK	10	3	[0, 0, 0]	n/a	FR1	2	R1441T
413.228	0.768	446944	WORD_OFF	n/a	n/a	SKUNK	10	3	[0, 0, 0]	n/a	FR1	2	R1441T
413.996	1.616	447713	WORD	n/a	wordpools/wordpool_long_EN.txt	SEED	11	3	[0, 0, 0]	n/a	FR1	2	R1441T
415.612	0.882	449333	WORD_OFF	n/a	n/a	SEED	11	3	[0, 0, 0]	n/a	FR1	2	R1441T
416.494	1.601	450213	WORD	n/a	wordpools/wordpool_long_EN.txt	MEAT	12	3	[0, 0, 0]	n/a	FR1	2	R1441T
418.095	0.001	451806	WORD_OFF	n/a	n/a	MEAT	12	3	[0, 0, 0]	n/a	FR1	2	R1441T
418.096	0.0	451806	ENCODING_END	n/a	n/a	n/a	-999	3	[0, 0, 0]	n/a	FR1	2	R1441T
418.096	0.0	451809	PROB	0.0	n/a	n/a	-999	3	[7, 7, 5]	19	FR1	2	R1441T
418.096	0.0	451809	START	n/a	n/a	n/a	-999	3	[-999, -999, -999]	n/a	FR1	2	R1441T
418.096	13.429	451820	DISTRACT_START	n/a	n/a	n/a	-999	3	[0, 0, 0]	n/a	FR1	2	R1441T
431.525	5.865	465240	PROB	5.865	n/a	n/a	-999	3	[1, 7, 8]	16	FR1	2	R1441T
437.39	14.213	471107	PROB	14.213	n/a	n/a	-999	3	[7, 8, 7]	22	FR1	2	R1441T
451.603	0.0	485322	STOP	n/a	n/a	n/a	-999	3	[-999, -999, -999]	n/a	FR1	2	R1441T
451.603	2.384	485325	DISTRACT_END	n/a	n/a	n/a	-999	3	[0, 0, 0]	n/a	FR1	2	R1441T
453.987	0.355	487708	REC_START	n/a	n/a	n/a	-999	3	[0, 0, 0]	n/a	FR1	2	R1441T
454.342	0.643	488062	REC_WORD	0.643	n/a	BENCH	1	3	[0, 0, 0]	n/a	FR1	2	R1441T
454.985	0.756	488705	REC_WORD	0.756	n/a	CLIFF	2	3	[0, 0, 0]	n/a	FR1	2	R1441T
455.741	0.832	489461	REC_WORD	0.832	n/a	SKATE	3	3	[0, 0, 0]	n/a	FR1	2	R1441T
456.573	0.725	490293	REC_WORD	0.725	n/a	VEST	4	3	[0, 0, 0]	n/a	FR1	2	R1441T
457.298	0.894	491018	REC_WORD	0.894	n/a	SEED	11	3	[0, 0, 0]	n/a	FR1	2	R1441T
458.192	26.043	491912	REC_WORD	26.043	n/a	GUARD	8	3	[0, 0, 0]	n/a	FR1	2	R1441T
484.235	3.841	517963	REC_END	n/a	n/a	n/a	-999	3	[0, 0, 0]	n/a	FR1	2	R1441T
488.076	10.349	521805	COUNTDOWN_START	n/a	n/a	n/a	-999	4	[0, 0, 0]	n/a	FR1	2	R1441T
498.425	0.0	532158	COUNTDOWN_END	n/a	n/a	n/a	-999	4	[0, 0, 0]	n/a	FR1	2	R1441T
498.425	2.149	532158	ENCODING_START	n/a	n/a	n/a	-999	4	[0, 0, 0]	n/a	FR1	2	R1441T
500.574	1.616	534310	WORD	n/a	wordpools/wordpool_long_EN.txt	THREAD	1	4	[0, 0, 0]	n/a	FR1	2	R1441T
502.19	0.901	535917	WORD_OFF	n/a	n/a	THREAD	1	4	[0, 0, 0]	n/a	FR1	2	R1441T
503.091	1.615	536825	WORD	n/a	wordpools/wordpool_long_EN.txt	FUR	2	4	[0, 0, 0]	n/a	FR1	2	R1441T
504.706	0.951	538446	WORD_OFF	n/a	n/a	FUR	2	4	[0, 0, 0]	n/a	FR1	2	R1441T
505.657	1.616	539396	WORD	n/a	wordpools/wordpool_long_EN.txt	PLANT	3	4	[0, 0, 0]	n/a	FR1	2	R1441T
507.273	0.934	541002	WORD_OFF	n/a	n/a	PLANT	3	4	[0, 0, 0]	n/a	FR1	2	R1441T
508.207	1.617	541938	WORD	n/a	wordpools/wordpool_long_EN.txt	TROUT	4	4	[0, 0, 0]	n/a	FR1	2	R1441T
509.824	0.965	543559	WORD_OFF	n/a	n/a	TROUT	4	4	[0, 0, 0]	n/a	FR1	2	R1441T
510.789	1.601	544523	WORD	n/a	wordpools/wordpool_long_EN.txt	FARM	5	4	[0, 0, 0]	n/a	FR1	2	R1441T
512.39	0.998	546116	WORD_OFF	n/a	n/a	FARM	5	4	[0, 0, 0]	n/a	FR1	2	R1441T
513.388	1.601	547122	WORD	n/a	wordpools/wordpool_long_EN.txt	MOLE	6	4	[0, 0, 0]	n/a	FR1	2	R1441T
514.989	0.8	548729	WORD_OFF	n/a	n/a	MOLE	6	4	[0, 0, 0]	n/a	FR1	2	R1441T
515.789	1.615	549525	WORD	n/a	wordpools/wordpool_long_EN.txt	GRILL	7	4	[0, 0, 0]	n/a	FR1	2	R1441T
517.404	0.815	551132	WORD_OFF	n/a	n/a	GRILL	7	4	[0, 0, 0]	n/a	FR1	2	R1441T
518.219	1.602	551956	WORD	n/a	wordpools/wordpool_long_EN.txt	LOCK	8	4	[0, 0, 0]	n/a	FR1	2	R1441T
519.821	0.899	553549	WORD_OFF	n/a	n/a	LOCK	8	4	[0, 0, 0]	n/a	FR1	2	R1441T
520.72	1.601	554457	WORD	n/a	wordpools/wordpool_long_EN.txt	FOAM	9	4	[0, 0, 0]	n/a	FR1	2	R1441T
522.321	0.915	556050	WORD_OFF	n/a	n/a	FOAM	9	4	[0, 0, 0]	n/a	FR1	2	R1441T
523.236	1.617	556972	WORD	n/a	wordpools/wordpool_long_EN.txt	SMILE	10	4	[0, 0, 0]	n/a	FR1	2	R1441T
524.853	0.85	558593	WORD_OFF	n/a	n/a	SMILE	10	4	[0, 0, 0]	n/a	FR1	2	R1441T
525.703	1.616	559438	WORD	n/a	wordpools/wordpool_long_EN.txt	GIFT	11	4	[0, 0, 0]	n/a	FR1	2	R1441T
527.319	0.883	561052	WORD_OFF	n/a	n/a	GIFT	11	4	[0, 0, 0]	n/a	FR1	2	R1441T
528.202	1.617	561932	WORD	n/a	wordpools/wordpool_long_EN.txt	PARK	12	4	[0, 0, 0]	n/a	FR1	2	R1441T
529.819	0.001	563553	WORD_OFF	n/a	n/a	PARK	12	4	[0, 0, 0]	n/a	FR1	2	R1441T
529.82	0.0	563553	ENCODING_END	n/a	n/a	n/a	-999	4	[0, 0, 0]	n/a	FR1	2	R1441T
529.82	0.0	563553	DISTRACT_START	n/a	n/a	n/a	-999	4	[0, 0, 0]	n/a	FR1	2	R1441T
529.82	0.0	563554	START	n/a	n/a	n/a	-999	4	[-999, -999, -999]	n/a	FR1	2	R1441T
529.82	11.296	563554	PROB	11.296	n/a	n/a	-999	4	[4, 2, 6]	12	FR1	2	R1441T
541.116	8.165	574852	PROB	8.165	n/a	n/a	-999	4	[7, 4, 3]	14	FR1	2	R1441T
549.281	6.814	583019	PROB	6.814	n/a	n/a	-999	4	[3, 3, 5]	11	FR1	2	R1441T
556.095	0.0	589834	DISTRACT_END	n/a	n/a	n/a	-999	4	[0, 0, 0]	n/a	FR1	2	R1441T
556.095	2.15	589834	STOP	n/a	n/a	n/a	-999	4	[-999, -999, -999]	n/a	FR1	2	R1441T
558.245	0.489	591980	REC_START	n/a	n/a	n/a	-999	4	[0, 0, 0]	n/a	FR1	2	R1441T
558.734	0.845	592473	REC_WORD	0.845	n/a	FARM	5	4	[0, 0, 0]	n/a	FR1	2	R1441T
559.579	0.843	593319	REC_WORD	0.843	n/a	MOLE	6	4	[0, 0, 0]	n/a	FR1	2	R1441T
560.422	1.002	594162	REC_WORD	1.002	n/a	THREAD	1	4	[0, 0, 0]	n/a	FR1	2	R1441T
561.424	0.69	595164	REC_WORD	0.69	n/a	GRILL	7	4	[0, 0, 0]	n/a	FR1	2	R1441T
562.114	26.388	595854	REC_WORD	26.388	n/a	LOCK	8	4	[0, 0, 0]	n/a	FR1	2	R1441T
588.502	4.999	622248	REC_END	n/a	n/a	n/a	-999	4	[0, 0, 0]	n/a	FR1	2	R1441T
593.501	10.348	627250	COUNTDOWN_START	n/a	n/a	n/a	-999	5	[0, 0, 0]	n/a	FR1	2	R1441T
603.849	0.001	637604	COUNTDOWN_END	n/a	n/a	n/a	-999	5	[0, 0, 0]	n/a	FR1	2	R1441T
603.85	2.15	637604	ENCODING_START	n/a	n/a	n/a	-999	5	[0, 0, 0]	n/a	FR1	2	R1441T
606.0	1.615	639755	WORD	n/a	wordpools/wordpool_long_EN.txt	TEETH	1	5	[0, 0, 0]	n/a	FR1	2	R1441T
607.615	0.785	641362	WORD_OFF	n/a	n/a	TEETH	1	5	[0, 0, 0]	n/a	FR1	2	R1441T
608.4	1.615	642144	WORD	n/a	wordpools/wordpool_long_EN.txt	LIP	2	5	[0, 0, 0]	n/a	FR1	2	R1441T
610.015	0.901	643765	WORD_OFF	n/a	n/a	LIP	2	5	[0, 0, 0]	n/a	FR1	2	R1441T
610.916	1.616	644673	WORD	n/a	wordpools/wordpool_long_EN.txt	OWL	3	5	[0, 0, 0]	n/a	FR1	2	R1441T
612.532	0.765	646280	WORD_OFF	n/a	n/a	OWL	3	5	[0, 0, 0]	n/a	FR1	2	R1441T
613.297	1.6	647048	WORD	n/a	wordpools/wordpool_long_EN.txt	COOK	4	5	[0, 0, 0]	n/a	FR1	2	R1441T
614.897	0.951	648655	WORD_OFF	n/a	n/a	COOK	4	5	[0, 0, 0]	n/a	FR1	2	R1441T
615.848	1.616	649605	WORD	n/a	wordpools/wordpool_long_EN.txt	TILE	5	5	[0, 0, 0]	n/a	FR1	2	R1441T
617.464	0.999	651212	WORD_OFF	n/a	n/a	TILE	5	5	[0, 0, 0]	n/a	FR1	2	R1441T
618.463	1.6	652218	WORD	n/a	wordpools/wordpool_long_EN.txt	TRIBE	6	5	[0, 0, 0]	n/a	FR1	2	R1441T
620.063	0.784	653811	WORD_OFF	n/a	n/a	TRIBE	6	5	[0, 0, 0]	n/a	FR1	2	R1441T
620.847	1.616	654607	WORD	n/a	wordpools/wordpool_long_EN.txt	FAN	7	5	[0, 0, 0]	n/a	FR1	2	R1441T
622.463	0.915	656214	WORD_OFF	n/a	n/a	FAN	7	5	[0, 0, 0]	n/a	FR1	2	R1441T
623.378	1.601	657136	WORD	n/a	wordpools/wordpool_long_EN.txt	SPARK	8	5	[0, 0, 0]	n/a	FR1	2	R1441T
624.979	1.016	658729	WORD_OFF	n/a	n/a	SPARK	8	5	[0, 0, 0]	n/a	FR1	2	R1441T
625.995	1.6	659749	WORD	n/a	wordpools/wordpool_long_EN.txt	KITE	9	5	[0, 0, 0]	n/a	FR1	2	R1441T
627.595	0.932	661356	WORD_OFF	n/a	n/a	KITE	9	5	[0, 0, 0]	n/a	FR1	2	R1441T
628.527	1.601	662278	WORD	n/a	wordpools/wordpool_long_EN.txt	PASTE	10	5	[0, 0, 0]	n/a	FR1	2	R1441T
630.128	0.983	663884	WORD_OFF	n/a	n/a	PASTE	10	5	[0, 0, 0]	n/a	FR1	2	R1441T
631.111	1.616	664862	WORD	n/a	wordpools/wordpool_long_EN.txt	BUG	11	5	[0, 0, 0]	n/a	FR1	2	R1441T
632.727	0.999	666483	WORD_OFF	n/a	n/a	BUG	11	5	[0, 0, 0]	n/a	FR1	2	R1441T
633.726	1.601	667475	WORD	n/a	wordpools/wordpool_long_EN.txt	YARN	12	5	[0, 0, 0]	n/a	FR1	2	R1441T
635.327	0.0	669081	PROB	0.0	n/a	n/a	-999	5	[7, 7, 3]	17	FR1	2	R1441T
635.326	0.002	669082	WORD_OFF	n/a	n/a	YARN	12	5	[0, 0, 0]	n/a	FR1	2	R1441T
635.328	0.0	669082	ENCODING_END	n/a	n/a	n/a	-999	5	[0, 0, 0]	n/a	FR1	2	R1441T
635.328	0.0	669082	DISTRACT_START	n/a	n/a	n/a	-999	5	[0, 0, 0]	n/a	FR1	2	R1441T
635.328	18.16	669082	START	n/a	n/a	n/a	-999	5	[-999, -999, -999]	n/a	FR1	2	R1441T
653.488	9.432	687246	PROB	9.432	n/a	n/a	-999	5	[2, 3, 6]	11	FR1	2	R1441T
662.92	0.0	696676	DISTRACT_END	n/a	n/a	n/a	-999	5	[0, 0, 0]	n/a	FR1	2	R1441T
662.92	2.365	696679	STOP	n/a	n/a	n/a	-999	5	[-999, -999, -999]	n/a	FR1	2	R1441T
665.285	0.56	699046	REC_START	n/a	n/a	n/a	-999	5	[0, 0, 0]	n/a	FR1	2	R1441T
665.845	0.8	699605	REC_WORD	0.8	n/a	TEETH	1	5	[0, 0, 0]	n/a	FR1	2	R1441T
666.645	0.919	700405	REC_WORD	0.919	n/a	LIP	2	5	[0, 0, 0]	n/a	FR1	2	R1441T
667.564	0.854	701324	REC_WORD	0.854	n/a	OWL	3	5	[0, 0, 0]	n/a	FR1	2	R1441T
668.418	0.774	702178	REC_WORD	0.774	n/a	COOK	4	5	[0, 0, 0]	n/a	FR1	2	R1441T
669.192	0.965	702952	REC_WORD	0.965	n/a	TRIBE	6	5	[0, 0, 0]	n/a	FR1	2	R1441T
670.157	25.365	703918	REC_WORD	25.365	n/a	BUG	11	5	[0, 0, 0]	n/a	FR1	2	R1441T
695.522	1.64	729287	REC_END	n/a	n/a	n/a	-999	5	[0, 0, 0]	n/a	FR1	2	R1441T
697.162	10.346	730935	COUNTDOWN_START	n/a	n/a	n/a	-999	6	[0, 0, 0]	n/a	FR1	2	R1441T
707.508	0.0	741274	COUNTDOWN_END	n/a	n/a	n/a	-999	6	[0, 0, 0]	n/a	FR1	2	R1441T
707.508	2.034	741274	ENCODING_START	n/a	n/a	n/a	-999	6	[0, 0, 0]	n/a	FR1	2	R1441T
709.542	1.616	743314	WORD	n/a	wordpools/wordpool_long_EN.txt	GLOBE	1	6	[0, 0, 0]	n/a	FR1	2	R1441T
711.158	0.799	744935	WORD_OFF	n/a	n/a	GLOBE	1	6	[0, 0, 0]	n/a	FR1	2	R1441T
711.957	1.601	745731	WORD	n/a	wordpools/wordpool_long_EN.txt	CLAM	2	6	[0, 0, 0]	n/a	FR1	2	R1441T
713.558	0.765	747324	WORD_OFF	n/a	n/a	CLAM	2	6	[0, 0, 0]	n/a	FR1	2	R1441T
714.323	1.601	748093	WORD	n/a	wordpools/wordpool_long_EN.txt	LOFT	3	6	[0, 0, 0]	n/a	FR1	2	R1441T
715.924	0.849	749699	WORD_OFF	n/a	n/a	LOFT	3	6	[0, 0, 0]	n/a	FR1	2	R1441T
716.773	1.6	750538	WORD	n/a	wordpools/wordpool_long_EN.txt	CAVE	4	6	[0, 0, 0]	n/a	FR1	2	R1441T
718.373	0.932	752144	WORD_OFF	n/a	n/a	CAVE	4	6	[0, 0, 0]	n/a	FR1	2	R1441T
719.305	1.6	753081	WORD	n/a	wordpools/wordpool_long_EN.txt	SNACK	5	6	[0, 0, 0]	n/a	FR1	2	R1441T
720.905	0.833	754673	WORD_OFF	n/a	n/a	SNACK	5	6	[0, 0, 0]	n/a	FR1	2	R1441T
721.738	1.617	755512	WORD	n/a	wordpools/wordpool_long_EN.txt	CLAY	6	6	[0, 0, 0]	n/a	FR1	2	R1441T
723.355	0.799	757132	WORD_OFF	n/a	n/a	CLAY	6	6	[0, 0, 0]	n/a	FR1	2	R1441T
724.154	1.617	757929	WORD	n/a	wordpools/wordpool_long_EN.txt	HORN	7	6	[0, 0, 0]	n/a	FR1	2	R1441T
725.771	0.783	759550	WORD_OFF	n/a	n/a	HORN	7	6	[0, 0, 0]	n/a	FR1	2	R1441T
726.554	1.617	760332	WORD	n/a	wordpools/wordpool_long_EN.txt	SHIELD	8	6	[0, 0, 0]	n/a	FR1	2	R1441T
728.171	0.983	761939	WORD_OFF	n/a	n/a	SHIELD	8	6	[0, 0, 0]	n/a	FR1	2	R1441T
729.154	1.616	762931	WORD	n/a	wordpools/wordpool_long_EN.txt	SNAKE	9	6	[0, 0, 0]	n/a	FR1	2	R1441T
730.77	0.882	764551	WORD_OFF	n/a	n/a	SNAKE	9	6	[0, 0, 0]	n/a	FR1	2	R1441T
731.652	1.616	765432	WORD	n/a	wordpools/wordpool_long_EN.txt	ZOO	10	6	[0, 0, 0]	n/a	FR1	2	R1441T
733.268	0.967	767038	WORD_OFF	n/a	n/a	ZOO	10	6	[0, 0, 0]	n/a	FR1	2	R1441T
734.235	1.6	768016	WORD	n/a	wordpools/wordpool_long_EN.txt	LAND	11	6	[0, 0, 0]	n/a	FR1	2	R1441T
735.835	0.85	769609	WORD_OFF	n/a	n/a	LAND	11	6	[0, 0, 0]	n/a	FR1	2	R1441T
736.685	1.617	770462	WORD	n/a	wordpools/wordpool_long_EN.txt	STAIR	12	6	[0, 0, 0]	n/a	FR1	2	R1441T
738.302	0.002	772076	PROB	0.002	n/a	n/a	-999	6	[2, 8, 4]	14	FR1	2	R1441T
738.304	0.0	772078	START	n/a	n/a	n/a	-999	6	[-999, -999, -999]	n/a	FR1	2	R1441T
738.301	0.003	772082	WORD_OFF	n/a	n/a	STAIR	12	6	[0, 0, 0]	n/a	FR1	2	R1441T
738.304	0.0	772082	ENCODING_END	n/a	n/a	n/a	-999	6	[0, 0, 0]	n/a	FR1	2	R1441T
738.304	19.676	772082	DISTRACT_START	n/a	n/a	n/a	-999	6	[0, 0, 0]	n/a	FR1	2	R1441T
757.98	7.868	791758	PROB	7.868	n/a	n/a	-999	6	[4, 3, 5]	12	FR1	2	R1441T
765.848	0.0	799627	STOP	n/a	n/a	n/a	-999	6	[-999, -999, -999]	n/a	FR1	2	R1441T
765.848	2.212	799635	DISTRACT_END	n/a	n/a	n/a	-999	6	[0, 0, 0]	n/a	FR1	2	R1441T
768.06	0.351	801836	REC_START	n/a	n/a	n/a	-999	6	[0, 0, 0]	n/a	FR1	2	R1441T
768.411	0.931	802190	REC_WORD	0.931	n/a	GLOBE	1	6	[0, 0, 0]	n/a	FR1	2	R1441T
769.342	0.758	803122	REC_WORD	0.758	n/a	CLAM	2	6	[0, 0, 0]	n/a	FR1	2	R1441T
770.1	1.352	803880	REC_WORD	1.352	n/a	SHIELD	8	6	[0, 0, 0]	n/a	FR1	2	R1441T
771.452	11.139	805232	REC_WORD	11.139	n/a	CAVE	4	6	[0, 0, 0]	n/a	FR1	2	R1441T
782.591	15.71	816373	REC_WORD	15.71	n/a	BUG	-999	6	[0, 0, 0]	n/a	FR1	2	R1441T
798.301	1.619	832091	REC_END	n/a	n/a	n/a	-999	6	[0, 0, 0]	n/a	FR1	2	R1441T
799.92	10.346	833712	COUNTDOWN_START	n/a	n/a	n/a	-999	7	[0, 0, 0]	n/a	FR1	2	R1441T
810.266	0.001	844051	COUNTDOWN_END	n/a	n/a	n/a	-999	7	[0, 0, 0]	n/a	FR1	2	R1441T
810.267	2.2	844065	ENCODING_START	n/a	n/a	n/a	-999	7	[0, 0, 0]	n/a	FR1	2	R1441T
812.467	1.614	846259	WORD	n/a	wordpools/wordpool_long_EN.txt	DIME	1	7	[0, 0, 0]	n/a	FR1	2	R1441T
814.081	0.869	847865	WORD_OFF	n/a	n/a	DIME	1	7	[0, 0, 0]	n/a	FR1	2	R1441T
814.95	1.614	848746	WORD	n/a	wordpools/wordpool_long_EN.txt	INN	2	7	[0, 0, 0]	n/a	FR1	2	R1441T
816.564	0.984	850352	WORD_OFF	n/a	n/a	INN	2	7	[0, 0, 0]	n/a	FR1	2	R1441T
817.548	1.618	851344	WORD	n/a	wordpools/wordpool_long_EN.txt	ARCH	3	7	[0, 0, 0]	n/a	FR1	2	R1441T
819.166	0.965	852951	WORD_OFF	n/a	n/a	ARCH	3	7	[0, 0, 0]	n/a	FR1	2	R1441T
820.131	1.616	853929	WORD	n/a	wordpools/wordpool_long_EN.txt	WAND	4	7	[0, 0, 0]	n/a	FR1	2	R1441T
821.747	0.783	855536	WORD_OFF	n/a	n/a	WAND	4	7	[0, 0, 0]	n/a	FR1	2	R1441T
822.53	1.601	856318	WORD	n/a	wordpools/wordpool_long_EN.txt	RAKE	5	7	[0, 0, 0]	n/a	FR1	2	R1441T
824.131	0.799	857925	WORD_OFF	n/a	n/a	RAKE	5	7	[0, 0, 0]	n/a	FR1	2	R1441T
824.93	1.617	858721	WORD	n/a	wordpools/wordpool_long_EN.txt	CHILD	6	7	[0, 0, 0]	n/a	FR1	2	R1441T
826.547	0.865	860342	WORD_OFF	n/a	n/a	CHILD	6	7	[0, 0, 0]	n/a	FR1	2	R1441T
827.412	1.601	861208	WORD	n/a	wordpools/wordpool_long_EN.txt	HOUND	7	7	[0, 0, 0]	n/a	FR1	2	R1441T
829.013	0.981	862815	WORD_OFF	n/a	n/a	HOUND	7	7	[0, 0, 0]	n/a	FR1	2	R1441T
829.994	1.601	863793	WORD	n/a	wordpools/wordpool_long_EN.txt	CRANE	8	7	[0, 0, 0]	n/a	FR1	2	R1441T
831.595	0.883	865386	WORD_OFF	n/a	n/a	CRANE	8	7	[0, 0, 0]	n/a	FR1	2	R1441T
832.478	1.616	866266	WORD	n/a	wordpools/wordpool_long_EN.txt	EGG	9	7	[0, 0, 0]	n/a	FR1	2	R1441T
834.094	0.899	867887	WORD_OFF	n/a	n/a	EGG	9	7	[0, 0, 0]	n/a	FR1	2	R1441T
834.993	1.601	868795	WORD	n/a	wordpools/wordpool_long_EN.txt	STREET	10	7	[0, 0, 0]	n/a	FR1	2	R1441T
836.594	0.983	870388	WORD_OFF	n/a	n/a	STREET	10	7	[0, 0, 0]	n/a	FR1	2	R1441T
837.577	1.617	871366	WORD	n/a	wordpools/wordpool_long_EN.txt	RUST	11	7	[0, 0, 0]	n/a	FR1	2	R1441T
839.194	0.816	872987	WORD_OFF	n/a	n/a	RUST	11	7	[0, 0, 0]	n/a	FR1	2	R1441T
840.01	1.616	873811	WORD	n/a	wordpools/wordpool_long_EN.txt	PRINCE	12	7	[0, 0, 0]	n/a	FR1	2	R1441T
841.626	0.001	875418	WORD_OFF	n/a	n/a	PRINCE	12	7	[0, 0, 0]	n/a	FR1	2	R1441T
841.627	0.0	875418	ENCODING_END	n/a	n/a	n/a	-999	7	[0, 0, 0]	n/a	FR1	2	R1441T
841.627	0.0	875420	START	n/a	n/a	n/a	-999	7	[-999, -999, -999]	n/a	FR1	2	R1441T
841.627	0.0	875420	PROB	0.0	n/a	n/a	-999	7	[3, 3, 6]	12	FR1	2	R1441T
841.627	12.929	875432	DISTRACT_START	n/a	n/a	n/a	-999	7	[0, 0, 0]	n/a	FR1	2	R1441T
854.556	6.865	888352	PROB	6.865	n/a	n/a	-999	7	[5, 8, 7]	20	FR1	2	R1441T
861.421	6.481	895218	PROB	6.481	n/a	n/a	-999	7	[2, 1, 2]	5	FR1	2	R1441T
867.902	0.0	901699	DISTRACT_END	n/a	n/a	n/a	-999	7	[0, 0, 0]	n/a	FR1	2	R1441T
867.902	2.083	901700	STOP	n/a	n/a	n/a	-999	7	[-999, -999, -999]	n/a	FR1	2	R1441T
869.985	0.162	903789	REC_START	n/a	n/a	n/a	-999	7	[0, 0, 0]	n/a	FR1	2	R1441T
870.147	1.068	903946	REC_WORD	1.068	n/a	DIME	1	7	[0, 0, 0]	n/a	FR1	2	R1441T
871.215	1.159	905014	REC_WORD	1.159	n/a	INN	2	7	[0, 0, 0]	n/a	FR1	2	R1441T
872.374	0.933	906173	REC_WORD	0.933	n/a	ARK	-999	7	[0, 0, 0]	n/a	FR1	2	R1441T
873.307	0.777	907106	REC_WORD	0.777	n/a	EGG	9	7	[0, 0, 0]	n/a	FR1	2	R1441T
874.084	1.18	907883	REC_WORD	1.18	n/a	STREET	10	7	[0, 0, 0]	n/a	FR1	2	R1441T
875.264	24.962	909064	REC_WORD	24.962	n/a	PRINT	-999	7	[0, 0, 0]	n/a	FR1	2	R1441T
900.226	3.218	934030	REC_END	n/a	n/a	n/a	-999	7	[0, 0, 0]	n/a	FR1	2	R1441T
903.444	10.348	937257	COUNTDOWN_START	n/a	n/a	n/a	-999	8	[0, 0, 0]	n/a	FR1	2	R1441T
913.792	0.0	947596	COUNTDOWN_END	n/a	n/a	n/a	-999	8	[0, 0, 0]	n/a	FR1	2	R1441T
913.792	2.282	947610	ENCODING_START	n/a	n/a	n/a	-999	8	[0, 0, 0]	n/a	FR1	2	R1441T
916.074	1.617	949888	WORD	n/a	wordpools/wordpool_long_EN.txt	CASH	1	8	[0, 0, 0]	n/a	FR1	2	R1441T
917.691	0.865	951508	WORD_OFF	n/a	n/a	CASH	1	8	[0, 0, 0]	n/a	FR1	2	R1441T
918.556	1.601	952361	WORD	n/a	wordpools/wordpool_long_EN.txt	BIRD	2	8	[0, 0, 0]	n/a	FR1	2	R1441T
920.157	0.866	953967	WORD_OFF	n/a	n/a	BIRD	2	8	[0, 0, 0]	n/a	FR1	2	R1441T
921.023	1.617	954834	WORD	n/a	wordpools/wordpool_long_EN.txt	MARSH	3	8	[0, 0, 0]	n/a	FR1	2	R1441T
922.64	0.766	956454	WORD_OFF	n/a	n/a	MARSH	3	8	[0, 0, 0]	n/a	FR1	2	R1441T
923.406	1.617	957223	WORD	n/a	wordpools/wordpool_long_EN.txt	FENCE	4	8	[0, 0, 0]	n/a	FR1	2	R1441T
925.023	0.931	958830	WORD_OFF	n/a	n/a	FENCE	4	8	[0, 0, 0]	n/a	FR1	2	R1441T
925.954	1.601	959766	WORD	n/a	wordpools/wordpool_long_EN.txt	SLEEVE	5	8	[0, 0, 0]	n/a	FR1	2	R1441T
927.555	0.983	961372	WORD_OFF	n/a	n/a	SLEEVE	5	8	[0, 0, 0]	n/a	FR1	2	R1441T
928.538	1.617	962350	WORD	n/a	wordpools/wordpool_long_EN.txt	SPACE	6	8	[0, 0, 0]	n/a	FR1	2	R1441T
930.155	0.899	963971	WORD_OFF	n/a	n/a	SPACE	6	8	[0, 0, 0]	n/a	FR1	2	R1441T
931.054	1.6	964865	WORD	n/a	wordpools/wordpool_long_EN.txt	BRANCH	7	8	[0, 0, 0]	n/a	FR1	2	R1441T
932.654	0.983	966472	WORD_OFF	n/a	n/a	BRANCH	7	8	[0, 0, 0]	n/a	FR1	2	R1441T
933.637	1.615	967450	WORD	n/a	wordpools/wordpool_long_EN.txt	FRUIT	8	8	[0, 0, 0]	n/a	FR1	2	R1441T
935.252	0.818	969071	WORD_OFF	n/a	n/a	FRUIT	8	8	[0, 0, 0]	n/a	FR1	2	R1441T
936.07	1.616	969881	WORD	n/a	wordpools/wordpool_long_EN.txt	APE	9	8	[0, 0, 0]	n/a	FR1	2	R1441T
937.686	0.799	971502	WORD_OFF	n/a	n/a	APE	9	8	[0, 0, 0]	n/a	FR1	2	R1441T
938.485	1.615	972298	WORD	n/a	wordpools/wordpool_long_EN.txt	MAT	10	8	[0, 0, 0]	n/a	FR1	2	R1441T
940.1	0.869	973919	WORD_OFF	n/a	n/a	MAT	10	8	[0, 0, 0]	n/a	FR1	2	R1441T
940.969	1.615	974785	WORD	n/a	wordpools/wordpool_long_EN.txt	MUG	11	8	[0, 0, 0]	n/a	FR1	2	R1441T
942.584	0.767	976406	WORD_OFF	n/a	n/a	MUG	11	8	[0, 0, 0]	n/a	FR1	2	R1441T
943.351	1.617	977161	WORD	n/a	wordpools/wordpool_long_EN.txt	SLOPE	12	8	[0, 0, 0]	n/a	FR1	2	R1441T
944.968	0.0	978781	WORD_OFF	n/a	n/a	SLOPE	12	8	[0, 0, 0]	n/a	FR1	2	R1441T
944.968	0.003	978781	PROB	0.003	n/a	n/a	-999	8	[5, 3, 5]	13	FR1	2	R1441T
944.971	0.0	978784	START	n/a	n/a	n/a	-999	8	[-999, -999, -999]	n/a	FR1	2	R1441T
944.971	0.0	978795	ENCODING_END	n/a	n/a	n/a	-999	8	[0, 0, 0]	n/a	FR1	2	R1441T
944.971	6.962	978795	DISTRACT_START	n/a	n/a	n/a	-999	8	[0, 0, 0]	n/a	FR1	2	R1441T
951.933	10.398	985747	PROB	10.398	n/a	n/a	-999	8	[4, 7, 7]	18	FR1	2	R1441T
962.331	5.948	996147	PROB	5.948	n/a	n/a	-999	8	[7, 5, 8]	20	FR1	2	R1441T
968.279	0.0	1002097	STOP	n/a	n/a	n/a	-999	8	[-999, -999, -999]	n/a	FR1	2	R1441T
968.279	2.148	1002100	DISTRACT_END	n/a	n/a	n/a	-999	8	[0, 0, 0]	n/a	FR1	2	R1441T
970.427	0.384	1004246	REC_START	n/a	n/a	n/a	-999	8	[0, 0, 0]	n/a	FR1	2	R1441T
970.811	0.788	1004629	REC_WORD	0.788	n/a	CASH	1	8	[0, 0, 0]	n/a	FR1	2	R1441T
971.599	0.647	1005417	REC_WORD	0.647	n/a	BIRD	2	8	[0, 0, 0]	n/a	FR1	2	R1441T
972.246	1.055	1006064	REC_WORD	1.055	n/a	FENCE	4	8	[0, 0, 0]	n/a	FR1	2	R1441T
973.301	3.035	1007119	REC_WORD	3.035	n/a	LEAVE	-999	8	[0, 0, 0]	n/a	FR1	2	R1441T
976.336	24.346	1010155	REC_WORD	24.346	n/a	MUG	11	8	[0, 0, 0]	n/a	FR1	2	R1441T
1000.682	1.987	1034501	REC_END	n/a	n/a	n/a	-999	8	[0, 0, 0]	n/a	FR1	2	R1441T
1002.669	10.349	1036499	COUNTDOWN_START	n/a	n/a	n/a	-999	9	[0, 0, 0]	n/a	FR1	2	R1441T
1013.018	0.0	1046852	COUNTDOWN_END	n/a	n/a	n/a	-999	9	[0, 0, 0]	n/a	FR1	2	R1441T
1013.018	1.949	1046852	ENCODING_START	n/a	n/a	n/a	-999	9	[0, 0, 0]	n/a	FR1	2	R1441T
1014.967	1.6	1048794	WORD	n/a	wordpools/wordpool_long_EN.txt	CANE	1	9	[0, 0, 0]	n/a	FR1	2	R1441T
1016.567	0.9	1050401	WORD_OFF	n/a	n/a	CANE	1	9	[0, 0, 0]	n/a	FR1	2	R1441T
1017.467	1.616	1051295	WORD	n/a	wordpools/wordpool_long_EN.txt	ICE	2	9	[0, 0, 0]	n/a	FR1	2	R1441T
1019.083	0.932	1052916	WORD_OFF	n/a	n/a	ICE	2	9	[0, 0, 0]	n/a	FR1	2	R1441T
1020.015	1.618	1053852	WORD	n/a	wordpools/wordpool_long_EN.txt	HAZE	3	9	[0, 0, 0]	n/a	FR1	2	R1441T
1021.633	0.799	1055459	WORD_OFF	n/a	n/a	HAZE	3	9	[0, 0, 0]	n/a	FR1	2	R1441T
1022.432	1.616	1056269	WORD	n/a	wordpools/wordpool_long_EN.txt	NAIL	4	9	[0, 0, 0]	n/a	FR1	2	R1441T
1024.048	0.883	1057876	WORD_OFF	n/a	n/a	NAIL	4	9	[0, 0, 0]	n/a	FR1	2	R1441T
1024.931	1.615	1058756	WORD	n/a	wordpools/wordpool_long_EN.txt	FORT	5	9	[0, 0, 0]	n/a	FR1	2	R1441T
1026.546	0.784	1060377	WORD_OFF	n/a	n/a	FORT	5	9	[0, 0, 0]	n/a	FR1	2	R1441T
1027.33	1.601	1061159	WORD	n/a	wordpools/wordpool_long_EN.txt	SCHOOL	6	9	[0, 0, 0]	n/a	FR1	2	R1441T
1028.931	0.783	1062766	WORD_OFF	n/a	n/a	SCHOOL	6	9	[0, 0, 0]	n/a	FR1	2	R1441T
1029.714	1.616	1063548	WORD	n/a	wordpools/wordpool_long_EN.txt	DITCH	7	9	[0, 0, 0]	n/a	FR1	2	R1441T
1031.33	0.832	1065155	WORD_OFF	n/a	n/a	DITCH	7	9	[0, 0, 0]	n/a	FR1	2	R1441T
1032.162	1.601	1065993	WORD	n/a	wordpools/wordpool_long_EN.txt	BOOK	8	9	[0, 0, 0]	n/a	FR1	2	R1441T
1033.763	0.964	1067600	WORD_OFF	n/a	n/a	BOOK	8	9	[0, 0, 0]	n/a	FR1	2	R1441T
1034.727	1.602	1068564	WORD	n/a	wordpools/wordpool_long_EN.txt	PORK	9	9	[0, 0, 0]	n/a	FR1	2	R1441T
1036.329	0.998	1070157	WORD_OFF	n/a	n/a	PORK	9	9	[0, 0, 0]	n/a	FR1	2	R1441T
1037.327	1.617	1071163	WORD	n/a	wordpools/wordpool_long_EN.txt	CART	10	9	[0, 0, 0]	n/a	FR1	2	R1441T
1038.944	0.767	1072784	WORD_OFF	n/a	n/a	CART	10	9	[0, 0, 0]	n/a	FR1	2	R1441T
1039.711	1.615	1073538	WORD	n/a	wordpools/wordpool_long_EN.txt	BROOK	11	9	[0, 0, 0]	n/a	FR1	2	R1441T
1041.326	0.817	1075159	WORD_OFF	n/a	n/a	BROOK	11	9	[0, 0, 0]	n/a	FR1	2	R1441T
1042.143	1.618	1075983	WORD	n/a	wordpools/wordpool_long_EN.txt	SLIDE	12	9	[0, 0, 0]	n/a	FR1	2	R1441T
1043.761	0.005	1077593	PROB	0.005	n/a	n/a	-999	9	[8, 3, 7]	18	FR1	2	R1441T
1043.766	0.0	1077598	START	n/a	n/a	n/a	-999	9	[-999, -999, -999]	n/a	FR1	2	R1441T
1043.761	0.005	1077604	WORD_OFF	n/a	n/a	SLIDE	12	9	[0, 0, 0]	n/a	FR1	2	R1441T
1043.766	0.0	1077604	ENCODING_END	n/a	n/a	n/a	-999	9	[0, 0, 0]	n/a	FR1	2	R1441T
1043.766	6.66	1077604	DISTRACT_START	n/a	n/a	n/a	-999	9	[0, 0, 0]	n/a	FR1	2	R1441T
1050.426	4.931	1084259	PROB	4.931	n/a	n/a	-999	9	[6, 3, 1]	10	FR1	2	R1441T
1055.357	11.896	1089191	PROB	11.896	n/a	n/a	-999	9	[6, 8, 8]	22	FR1	2	R1441T
1067.253	0.0	1101089	STOP	n/a	n/a	n/a	-999	9	[-999, -999, -999]	n/a	FR1	2	R1441T
1067.253	2.299	1101091	DISTRACT_END	n/a	n/a	n/a	-999	9	[0, 0, 0]	n/a	FR1	2	R1441T
1069.552	0.34	1103390	REC_START	n/a	n/a	n/a	-999	9	[0, 0, 0]	n/a	FR1	2	R1441T
1069.892	0.846	1103729	REC_WORD	0.846	n/a	CANE	1	9	[0, 0, 0]	n/a	FR1	2	R1441T
1070.738	0.729	1104575	REC_WORD	0.729	n/a	ICE	2	9	[0, 0, 0]	n/a	FR1	2	R1441T
1071.467	0.91	1105304	REC_WORD	0.91	n/a	HAZE	3	9	[0, 0, 0]	n/a	FR1	2	R1441T
1072.377	0.683	1106214	REC_WORD	0.683	n/a	NAIL	4	9	[0, 0, 0]	n/a	FR1	2	R1441T
1073.06	1.062	1106897	REC_WORD	1.062	n/a	FORT	5	9	[0, 0, 0]	n/a	FR1	2	R1441T
1074.122	0.676	1107960	REC_WORD	0.676	n/a	CART	10	9	[0, 0, 0]	n/a	FR1	2	R1441T
1074.798	24.989	1108636	REC_WORD	24.989	n/a	SCHOOL	6	9	[0, 0, 0]	n/a	FR1	2	R1441T
1099.787	1.891	1133631	REC_END	n/a	n/a	n/a	-999	9	[0, 0, 0]	n/a	FR1	2	R1441T
1101.678	10.35	1135531	COUNTDOWN_START	n/a	n/a	n/a	-999	10	[0, 0, 0]	n/a	FR1	2	R1441T
1112.028	0.0	1145870	COUNTDOWN_END	n/a	n/a	n/a	-999	10	[0, 0, 0]	n/a	FR1	2	R1441T
1112.028	2.098	1145884	ENCODING_START	n/a	n/a	n/a	-999	10	[0, 0, 0]	n/a	FR1	2	R1441T
1114.126	1.617	1147980	WORD	n/a	wordpools/wordpool_long_EN.txt	TIE	1	10	[0, 0, 0]	n/a	FR1	2	R1441T
1115.743	0.849	1149587	WORD_OFF	n/a	n/a	TIE	1	10	[0, 0, 0]	n/a	FR1	2	R1441T
1116.592	1.616	1150439	WORD	n/a	wordpools/wordpool_long_EN.txt	GATE	2	10	[0, 0, 0]	n/a	FR1	2	R1441T
1118.208	0.783	1152060	WORD_OFF	n/a	n/a	GATE	2	10	[0, 0, 0]	n/a	FR1	2	R1441T
1118.991	1.601	1152842	WORD	n/a	wordpools/wordpool_long_EN.txt	MASK	3	10	[0, 0, 0]	n/a	FR1	2	R1441T
1120.592	0.799	1154449	WORD_OFF	n/a	n/a	MASK	3	10	[0, 0, 0]	n/a	FR1	2	R1441T
1121.391	1.617	1155245	WORD	n/a	wordpools/wordpool_long_EN.txt	STEAK	4	10	[0, 0, 0]	n/a	FR1	2	R1441T
1123.008	0.915	1156852	WORD_OFF	n/a	n/a	STEAK	4	10	[0, 0, 0]	n/a	FR1	2	R1441T
1123.923	1.617	1157774	WORD	n/a	wordpools/wordpool_long_EN.txt	CONE	5	10	[0, 0, 0]	n/a	FR1	2	R1441T
1125.54	0.9	1159395	WORD_OFF	n/a	n/a	CONE	5	10	[0, 0, 0]	n/a	FR1	2	R1441T
1126.44	1.599	1160289	WORD	n/a	wordpools/wordpool_long_EN.txt	SPEAR	6	10	[0, 0, 0]	n/a	FR1	2	R1441T
1128.039	0.934	1161896	WORD_OFF	n/a	n/a	SPEAR	6	10	[0, 0, 0]	n/a	FR1	2	R1441T
1128.973	1.599	1162818	WORD	n/a	wordpools/wordpool_long_EN.txt	HOOD	7	10	[0, 0, 0]	n/a	FR1	2	R1441T
1130.572	1.0	1164425	WORD_OFF	n/a	n/a	HOOD	7	10	[0, 0, 0]	n/a	FR1	2	R1441T
1131.572	1.616	1165417	WORD	n/a	wordpools/wordpool_long_EN.txt	ROAD	8	10	[0, 0, 0]	n/a	FR1	2	R1441T
1133.188	0.832	1167038	WORD_OFF	n/a	n/a	ROAD	8	10	[0, 0, 0]	n/a	FR1	2	R1441T
1134.02	1.601	1167876	WORD	n/a	wordpools/wordpool_long_EN.txt	MAP	9	10	[0, 0, 0]	n/a	FR1	2	R1441T
1135.621	0.95	1169469	WORD_OFF	n/a	n/a	MAP	9	10	[0, 0, 0]	n/a	FR1	2	R1441T
1136.571	1.616	1170419	WORD	n/a	wordpools/wordpool_long_EN.txt	CHIEF	10	10	[0, 0, 0]	n/a	FR1	2	R1441T
1138.187	0.933	1172040	WORD_OFF	n/a	n/a	CHIEF	10	10	[0, 0, 0]	n/a	FR1	2	R1441T
1139.12	1.6	1172976	WORD	n/a	wordpools/wordpool_long_EN.txt	RAT	11	10	[0, 0, 0]	n/a	FR1	2	R1441T
1140.72	0.95	1174568	WORD_OFF	n/a	n/a	RAT	11	10	[0, 0, 0]	n/a	FR1	2	R1441T
1141.67	1.617	1175518	WORD	n/a	wordpools/wordpool_long_EN.txt	FLAME	12	10	[0, 0, 0]	n/a	FR1	2	R1441T
1143.287	0.0	1177138	PROB	0.0	n/a	n/a	-999	10	[8, 3, 4]	15	FR1	2	R1441T
1143.286	0.003	1177139	WORD_OFF	n/a	n/a	FLAME	12	10	[0, 0, 0]	n/a	FR1	2	R1441T
1143.289	0.0	1177139	ENCODING_END	n/a	n/a	n/a	-999	10	[0, 0, 0]	n/a	FR1	2	R1441T
1143.289	0.0	1177139	DISTRACT_START	n/a	n/a	n/a	-999	10	[0, 0, 0]	n/a	FR1	2	R1441T
1143.289	12.094	1177140	START	n/a	n/a	n/a	-999	10	[-999, -999, -999]	n/a	FR1	2	R1441T
1155.383	4.616	1189236	PROB	4.616	n/a	n/a	-999	10	[6, 5, 6]	17	FR1	2	R1441T
1159.999	9.28	1193853	PROB	9.28	n/a	n/a	-999	10	[4, 7, 1]	12	FR1	2	R1441T
1169.279	0.0	1203135	STOP	n/a	n/a	n/a	-999	10	[-999, -999, -999]	n/a	FR1	2	R1441T
1169.279	2.116	1203141	DISTRACT_END	n/a	n/a	n/a	-999	10	[0, 0, 0]	n/a	FR1	2	R1441T
1171.395	0.56	1205258	REC_START	n/a	n/a	n/a	-999	10	[0, 0, 0]	n/a	FR1	2	R1441T
1171.955	0.698	1205811	REC_WORD	0.698	n/a	TIE	1	10	[0, 0, 0]	n/a	FR1	2	R1441T
1172.653	0.715	1206509	REC_WORD	0.715	n/a	GATE	2	10	[0, 0, 0]	n/a	FR1	2	R1441T
1173.368	1.019	1207224	REC_WORD	1.019	n/a	STEAK	4	10	[0, 0, 0]	n/a	FR1	2	R1441T
1174.387	0.982	1208244	REC_WORD	0.982	n/a	HOOD	7	10	[0, 0, 0]	n/a	FR1	2	R1441T
1175.369	26.263	1209226	REC_WORD	26.263	n/a	ROAD	8	10	[0, 0, 0]	n/a	FR1	2	R1441T
1201.632	1.572	1235500	REC_END	n/a	n/a	n/a	-999	10	[0, 0, 0]	n/a	FR1	2	R1441T
1203.204	10.348	1237067	COUNTDOWN_START	n/a	n/a	n/a	-999	11	[0, 0, 0]	n/a	FR1	2	R1441T
1213.552	0.0	1247417	COUNTDOWN_END	n/a	n/a	n/a	-999	11	[0, 0, 0]	n/a	FR1	2	R1441T
1213.552	2.265	1247417	ENCODING_START	n/a	n/a	n/a	-999	11	[0, 0, 0]	n/a	FR1	2	R1441T
1215.817	1.601	1249681	WORD	n/a	wordpools/wordpool_long_EN.txt	YACHT	1	11	[0, 0, 0]	n/a	FR1	2	R1441T
1217.418	0.9	1251288	WORD_OFF	n/a	n/a	YACHT	1	11	[0, 0, 0]	n/a	FR1	2	R1441T
1218.318	1.615	1252182	WORD	n/a	wordpools/wordpool_long_EN.txt	CUP	2	11	[0, 0, 0]	n/a	FR1	2	R1441T
1219.933	0.85	1253803	WORD_OFF	n/a	n/a	CUP	2	11	[0, 0, 0]	n/a	FR1	2	R1441T
1220.783	1.601	1254655	WORD	n/a	wordpools/wordpool_long_EN.txt	WHEEL	3	11	[0, 0, 0]	n/a	FR1	2	R1441T
1222.384	0.999	1256248	WORD_OFF	n/a	n/a	WHEEL	3	11	[0, 0, 0]	n/a	FR1	2	R1441T
1223.383	1.616	1257254	WORD	n/a	wordpools/wordpool_long_EN.txt	STAR	4	11	[0, 0, 0]	n/a	FR1	2	R1441T
1224.999	0.932	1258874	WORD_OFF	n/a	n/a	STAR	4	11	[0, 0, 0]	n/a	FR1	2	R1441T
1225.931	1.601	1259797	WORD	n/a	wordpools/wordpool_long_EN.txt	ROD	5	11	[0, 0, 0]	n/a	FR1	2	R1441T
1227.532	0.95	1261403	WORD_OFF	n/a	n/a	ROD	5	11	[0, 0, 0]	n/a	FR1	2	R1441T
1228.482	1.616	1262353	WORD	n/a	wordpools/wordpool_long_EN.txt	DOG	6	11	[0, 0, 0]	n/a	FR1	2	R1441T
1230.098	0.934	1263974	WORD_OFF	n/a	n/a	DOG	6	11	[0, 0, 0]	n/a	FR1	2	R1441T
1231.032	1.616	1264896	WORD	n/a	wordpools/wordpool_long_EN.txt	SKY	7	11	[0, 0, 0]	n/a	FR1	2	R1441T
1232.648	0.767	1266517	WORD_OFF	n/a	n/a	SKY	7	11	[0, 0, 0]	n/a	FR1	2	R1441T
1233.415	1.614	1267285	WORD	n/a	wordpools/wordpool_long_EN.txt	DEER	8	11	[0, 0, 0]	n/a	FR1	2	R1441T
1235.029	0.768	1268906	WORD_OFF	n/a	n/a	DEER	8	11	[0, 0, 0]	n/a	FR1	2	R1441T
1235.797	1.616	1269675	WORD	n/a	wordpools/wordpool_long_EN.txt	HOSE	9	11	[0, 0, 0]	n/a	FR1	2	R1441T
1237.413	0.883	1271281	WORD_OFF	n/a	n/a	HOSE	9	11	[0, 0, 0]	n/a	FR1	2	R1441T
1238.296	1.616	1272162	WORD	n/a	wordpools/wordpool_long_EN.txt	TOAST	10	11	[0, 0, 0]	n/a	FR1	2	R1441T
1239.912	0.967	1273782	WORD_OFF	n/a	n/a	TOAST	10	11	[0, 0, 0]	n/a	FR1	2	R1441T
1240.879	1.616	1274746	WORD	n/a	wordpools/wordpool_long_EN.txt	PURSE	11	11	[0, 0, 0]	n/a	FR1	2	R1441T
1242.495	0.965	1276367	WORD_OFF	n/a	n/a	PURSE	11	11	[0, 0, 0]	n/a	FR1	2	R1441T
1243.46	1.6	1277331	WORD	n/a	wordpools/wordpool_long_EN.txt	CAPE	12	11	[0, 0, 0]	n/a	FR1	2	R1441T
1245.06	0.004	1278930	PROB	0.004	n/a	n/a	-999	11	[6, 3, 8]	17	FR1	2	R1441T
1245.064	0.0	1278934	START	n/a	n/a	n/a	-999	11	[-999, -999, -999]	n/a	FR1	2	R1441T
1245.061	0.003	1278938	WORD_OFF	n/a	n/a	CAPE	12	11	[0, 0, 0]	n/a	FR1	2	R1441T
1245.064	0.0	1278938	ENCODING_END	n/a	n/a	n/a	-999	11	[0, 0, 0]	n/a	FR1	2	R1441T
1245.064	10.878	1278938	DISTRACT_START	n/a	n/a	n/a	-999	11	[0, 0, 0]	n/a	FR1	2	R1441T
1255.942	5.015	1289814	PROB	5.015	n/a	n/a	-999	11	[2, 6, 3]	11	FR1	2	R1441T
1260.957	8.931	1294830	PROB	8.931	n/a	n/a	-999	11	[4, 5, 4]	13	FR1	2	R1441T
1269.888	0.0	1303763	STOP	n/a	n/a	n/a	-999	11	[-999, -999, -999]	n/a	FR1	2	R1441T
1269.888	2.299	1303766	DISTRACT_END	n/a	n/a	n/a	-999	11	[0, 0, 0]	n/a	FR1	2	R1441T
1272.187	0.287	1306065	REC_START	n/a	n/a	n/a	-999	11	[0, 0, 0]	n/a	FR1	2	R1441T
1272.474	0.784	1306349	REC_WORD	0.784	n/a	YACHT	1	11	[0, 0, 0]	n/a	FR1	2	R1441T
1273.258	0.799	1307133	REC_WORD	0.799	n/a	CUP	2	11	[0, 0, 0]	n/a	FR1	2	R1441T
1274.057	0.691	1307933	REC_WORD	0.691	n/a	WHEEL	3	11	[0, 0, 0]	n/a	FR1	2	R1441T
1274.748	1.088	1308624	REC_WORD	1.088	n/a	STAR	4	11	[0, 0, 0]	n/a	FR1	2	R1441T
1275.836	0.867	1309712	REC_WORD	0.867	n/a	DOG	6	11	[0, 0, 0]	n/a	FR1	2	R1441T
1276.703	25.741	1310579	REC_WORD	25.741	n/a	DEER	8	11	[0, 0, 0]	n/a	FR1	2	R1441T
1302.444	1.535	1336334	REC_END	n/a	n/a	n/a	-999	11	[0, 0, 0]	n/a	FR1	2	R1441T
1303.979	10.348	1337871	COUNTDOWN_START	n/a	n/a	n/a	-999	12	[0, 0, 0]	n/a	FR1	2	R1441T
1314.327	0.0	1348210	COUNTDOWN_END	n/a	n/a	n/a	-999	12	[0, 0, 0]	n/a	FR1	2	R1441T
1314.327	2.034	1348210	ENCODING_START	n/a	n/a	n/a	-999	12	[0, 0, 0]	n/a	FR1	2	R1441T
1316.361	1.616	1350250	WORD	n/a	wordpools/wordpool_long_EN.txt	RUG	1	12	[0, 0, 0]	n/a	FR1	2	R1441T
1317.977	0.8	1351871	WORD_OFF	n/a	n/a	RUG	1	12	[0, 0, 0]	n/a	FR1	2	R1441T
1318.777	1.615	1352667	WORD	n/a	wordpools/wordpool_long_EN.txt	FRAME	2	12	[0, 0, 0]	n/a	FR1	2	R1441T
1320.392	0.9	1354274	WORD_OFF	n/a	n/a	FRAME	2	12	[0, 0, 0]	n/a	FR1	2	R1441T
1321.292	1.616	1355182	WORD	n/a	wordpools/wordpool_long_EN.txt	BRICK	3	12	[0, 0, 0]	n/a	FR1	2	R1441T
1322.908	0.917	1356803	WORD_OFF	n/a	n/a	BRICK	3	12	[0, 0, 0]	n/a	FR1	2	R1441T
1323.825	1.601	1357711	WORD	n/a	wordpools/wordpool_long_EN.txt	PLAID	4	12	[0, 0, 0]	n/a	FR1	2	R1441T
1325.426	0.949	1359318	WORD_OFF	n/a	n/a	PLAID	4	12	[0, 0, 0]	n/a	FR1	2	R1441T
1326.375	1.616	1360268	WORD	n/a	wordpools/wordpool_long_EN.txt	HOOK	5	12	[0, 0, 0]	n/a	FR1	2	R1441T
1327.991	0.783	1361875	WORD_OFF	n/a	n/a	HOOK	5	12	[0, 0, 0]	n/a	FR1	2	R1441T
1328.774	1.616	1362671	WORD	n/a	wordpools/wordpool_long_EN.txt	BEAK	6	12	[0, 0, 0]	n/a	FR1	2	R1441T
1330.39	0.984	1364278	WORD_OFF	n/a	n/a	BEAK	6	12	[0, 0, 0]	n/a	FR1	2	R1441T
1331.374	1.616	1365270	WORD	n/a	wordpools/wordpool_long_EN.txt	SUN	7	12	[0, 0, 0]	n/a	FR1	2	R1441T
1332.99	0.967	1366877	WORD_OFF	n/a	n/a	SUN	7	12	[0, 0, 0]	n/a	FR1	2	R1441T
1333.957	1.615	1367841	WORD	n/a	wordpools/wordpool_long_EN.txt	SOUP	8	12	[0, 0, 0]	n/a	FR1	2	R1441T
1335.572	0.865	1369461	WORD_OFF	n/a	n/a	SOUP	8	12	[0, 0, 0]	n/a	FR1	2	R1441T
1336.437	1.602	1370328	WORD	n/a	wordpools/wordpool_long_EN.txt	PIT	9	12	[0, 0, 0]	n/a	FR1	2	R1441T
1338.039	0.916	1371934	WORD_OFF	n/a	n/a	PIT	9	12	[0, 0, 0]	n/a	FR1	2	R1441T
1338.955	1.6	1372842	WORD	n/a	wordpools/wordpool_long_EN.txt	VASE	10	12	[0, 0, 0]	n/a	FR1	2	R1441T
1340.555	0.883	1374449	WORD_OFF	n/a	n/a	VASE	10	12	[0, 0, 0]	n/a	FR1	2	R1441T
1341.438	1.616	1375329	WORD	n/a	wordpools/wordpool_long_EN.txt	SCOTCH	11	12	[0, 0, 0]	n/a	FR1	2	R1441T
1343.054	0.915	1376950	WORD_OFF	n/a	n/a	SCOTCH	11	12	[0, 0, 0]	n/a	FR1	2	R1441T
1343.969	1.602	1377858	WORD	n/a	wordpools/wordpool_long_EN.txt	HUT	12	12	[0, 0, 0]	n/a	FR1	2	R1441T
1345.571	0.002	1379460	PROB	0.002	n/a	n/a	-999	12	[7, 8, 3]	18	FR1	2	R1441T
1345.573	0.0	1379462	START	n/a	n/a	n/a	-999	12	[-999, -999, -999]	n/a	FR1	2	R1441T
1345.57	0.003	1379465	WORD_OFF	n/a	n/a	HUT	12	12	[0, 0, 0]	n/a	FR1	2	R1441T
1345.573	0.0	1379465	ENCODING_END	n/a	n/a	n/a	-999	12	[0, 0, 0]	n/a	FR1	2	R1441T
1345.573	17.392	1379465	DISTRACT_START	n/a	n/a	n/a	-999	12	[0, 0, 0]	n/a	FR1	2	R1441T
1362.965	7.299	1396858	PROB	7.299	n/a	n/a	-999	12	[4, 3, 7]	14	FR1	2	R1441T
1370.264	0.0	1404158	STOP	n/a	n/a	n/a	-999	12	[-999, -999, -999]	n/a	FR1	2	R1441T
1370.264	2.167	1404167	DISTRACT_END	n/a	n/a	n/a	-999	12	[0, 0, 0]	n/a	FR1	2	R1441T
1372.431	0.396	1406327	REC_START	n/a	n/a	n/a	-999	12	[0, 0, 0]	n/a	FR1	2	R1441T
1372.827	0.862	1406721	REC_WORD	0.862	n/a	ROAD	-999	12	[0, 0, 0]	n/a	FR1	2	R1441T
1373.689	1.091	1407584	REC_WORD	1.091	n/a	FRAME	2	12	[0, 0, 0]	n/a	FR1	2	R1441T
1374.78	0.831	1408675	REC_WORD	0.831	n/a	BRICK	3	12	[0, 0, 0]	n/a	FR1	2	R1441T
1375.611	27.074	1409506	REC_WORD	27.074	n/a	PLAID	4	12	[0, 0, 0]	n/a	FR1	2	R1441T
1402.685	0.0	1436582	REC_END	n/a	n/a	n/a	-999	12	[0, 0, 0]	n/a	FR1	2	R1441T
