onset	duration	sample	trial_type	response_time	stim_file	item_name	serialpos	list	test	answer	experiment	session	subject
0.0	0.0	6859	INSTRUCT_START	n/a	n/a	n/a	-999	-999	[0, 0, 0]	n/a	FR1	1	R1234D
0.0	11.08	6859	INSTRUCT_END	n/a	n/a	n/a	-999	-999	[0, 0, 0]	n/a	FR1	1	R1234D
11.08	0.0	17938	SESS_START	n/a	n/a	n/a	-999	-999	[0, 0, 0]	n/a	FR1	1	R1234D
11.08	18.502	17938	MIC_TEST	n/a	n/a	n/a	-999	-999	[0, 0, 0]	n/a	FR1	1	R1234D
29.582	4.108	36439	PRACTICE_TRIAL	n/a	n/a	n/a	-999	-1	[0, 0, 0]	n/a	FR1	1	R1234D
33.69	10.428	40547	COUNTDOWN_START	n/a	n/a	n/a	-999	-1	[0, 0, 0]	n/a	FR1	1	R1234D
44.118	0.007	50974	COUNTDOWN_END	n/a	n/a	n/a	-999	-1	[0, 0, 0]	n/a	FR1	1	R1234D
44.125	1.617	50981	PRACTICE_ORIENT	n/a	n/a	n/a	-999	-1	[0, 0, 0]	n/a	FR1	1	R1234D
45.742	2.084	52598	PRACTICE_ORIENT_OFF	n/a	n/a	n/a	-999	-1	[0, 0, 0]	n/a	FR1	1	R1234D
47.826	1.618	54682	PRACTICE_WORD	n/a	n/a	CHEST	1	-1	[0, 0, 0]	n/a	FR1	1	R1234D
49.444	0.916	56300	PRACTICE_WORD_OFF	n/a	n/a	CHEST	-999	-1	[0, 0, 0]	n/a	FR1	1	R1234D
50.36	1.616	57216	PRACTICE_WORD	n/a	n/a	BEAM	2	-1	[0, 0, 0]	n/a	FR1	1	R1234D
51.976	0.817	58832	PRACTICE_WORD_OFF	n/a	n/a	BEAM	-999	-1	[0, 0, 0]	n/a	FR1	1	R1234D
52.793	1.618	59649	PRACTICE_WORD	n/a	n/a	COTTON	3	-1	[0, 0, 0]	n/a	FR1	1	R1234D
54.411	0.866	61267	PRACTICE_WORD_OFF	n/a	n/a	COTTON	-999	-1	[0, 0, 0]	n/a	FR1	1	R1234D
55.277	1.617	62133	PRACTICE_WORD	n/a	n/a	IRON	4	-1	[0, 0, 0]	n/a	FR1	1	R1234D
56.894	0.917	63749	PRACTICE_WORD_OFF	n/a	n/a	IRON	-999	-1	[0, 0, 0]	n/a	FR1	1	R1234D
57.811	1.601	64666	PRACTICE_WORD	n/a	n/a	TONGUE	5	-1	[0, 0, 0]	n/a	FR1	1	R1234D
59.412	0.766	66267	PRACTICE_WORD_OFF	n/a	n/a	TONGUE	-999	-1	[0, 0, 0]	n/a	FR1	1	R1234D
60.178	1.617	67033	PRACTICE_WORD	n/a	n/a	RING	6	-1	[0, 0, 0]	n/a	FR1	1	R1234D
61.795	0.884	68650	PRACTICE_WORD_OFF	n/a	n/a	RING	-999	-1	[0, 0, 0]	n/a	FR1	1	R1234D
62.679	1.616	69534	PRACTICE_WORD	n/a	n/a	CAMEL	7	-1	[0, 0, 0]	n/a	FR1	1	R1234D
64.295	0.984	71150	PRACTICE_WORD_OFF	n/a	n/a	CAMEL	-999	-1	[0, 0, 0]	n/a	FR1	1	R1234D
65.279	1.617	72134	PRACTICE_WORD	n/a	n/a	WAGON	8	-1	[0, 0, 0]	n/a	FR1	1	R1234D
66.896	0.817	73751	PRACTICE_WORD_OFF	n/a	n/a	WAGON	-999	-1	[0, 0, 0]	n/a	FR1	1	R1234D
67.713	1.617	74568	PRACTICE_WORD	n/a	n/a	ATTIC	9	-1	[0, 0, 0]	n/a	FR1	1	R1234D
69.33	0.916	76185	PRACTICE_WORD_OFF	n/a	n/a	ATTIC	-999	-1	[0, 0, 0]	n/a	FR1	1	R1234D
70.246	1.601	77101	PRACTICE_WORD	n/a	n/a	FLOOD	10	-1	[0, 0, 0]	n/a	FR1	1	R1234D
71.847	0.85	78702	PRACTICE_WORD_OFF	n/a	n/a	FLOOD	-999	-1	[0, 0, 0]	n/a	FR1	1	R1234D
72.697	1.617	79552	PRACTICE_WORD	n/a	n/a	WATCH	11	-1	[0, 0, 0]	n/a	FR1	1	R1234D
74.314	1.0	81168	PRACTICE_WORD_OFF	n/a	n/a	WATCH	-999	-1	[0, 0, 0]	n/a	FR1	1	R1234D
75.314	1.617	82168	PRACTICE_WORD	n/a	n/a	RHINO	12	-1	[0, 0, 0]	n/a	FR1	1	R1234D
76.931	0.0	83785	PRACTICE_WORD_OFF	n/a	n/a	RHINO	-999	-1	[0, 0, 0]	n/a	FR1	1	R1234D
76.931	0.001	83785	DISTRACT_START	n/a	n/a	n/a	-999	-1	[0, 0, 0]	n/a	FR1	1	R1234D
76.932	0.016	83786	START	n/a	n/a	n/a	-999	-1	[-999, -999, -999]	n/a	FR1	1	R1234D
76.948	5.3	83802	PROB	5.3	n/a	n/a	-999	-1	[9, 1, 5]	15	FR1	1	R1234D
82.248	6.935	89102	PROB	6.935	n/a	n/a	-999	-1	[4, 7, 3]	15	FR1	1	R1234D
89.183	7.269	96037	PROB	7.269	n/a	n/a	-999	-1	[5, 8, 4]	17	FR1	1	R1234D
96.452	4.939	103305	PROB	4.939	n/a	n/a	-999	-1	[2, 2, 6]	10	FR1	1	R1234D
101.391	0.012	108244	STOP	n/a	n/a	n/a	-999	-1	[-999, -999, -999]	n/a	FR1	1	R1234D
101.403	0.516	108256	DISTRACT_END	n/a	n/a	n/a	-999	-1	[0, 0, 0]	n/a	FR1	1	R1234D
101.919	0.522	108772	RETRIEVAL_ORIENT	n/a	n/a	n/a	-999	-1	[0, 0, 0]	n/a	FR1	1	R1234D
102.441	30.008	109294	PRACTICE_REC_START	n/a	n/a	n/a	-999	-1	[0, 0, 0]	n/a	FR1	1	R1234D
132.449	16.196	139300	PRACTICE_REC_END	n/a	n/a	n/a	-999	-1	[0, 0, 0]	n/a	FR1	1	R1234D
148.645	0.5	155495	TRIAL	n/a	n/a	n/a	-999	1	[0, 0, 0]	n/a	FR1	1	R1234D
149.145	10.428	155995	COUNTDOWN_START	n/a	n/a	n/a	-999	1	[0, 0, 0]	n/a	FR1	1	R1234D
159.573	0.008	166423	COUNTDOWN_END	n/a	n/a	n/a	-999	1	[0, 0, 0]	n/a	FR1	1	R1234D
159.581	1.616	166431	ORIENT	n/a	n/a	n/a	-999	1	[0, 0, 0]	n/a	FR1	1	R1234D
161.197	2.167	168047	ORIENT_OFF	n/a	n/a	n/a	-999	1	[0, 0, 0]	n/a	FR1	1	R1234D
163.364	1.617	170214	WORD	n/a	wordpools/wordpool_EN.txt	FUDGE	1	1	[0, 0, 0]	n/a	FR1	1	R1234D
164.981	0.8	171830	WORD_OFF	n/a	n/a	FUDGE	1	1	[0, 0, 0]	n/a	FR1	1	R1234D
165.781	1.618	172630	WORD	n/a	wordpools/wordpool_EN.txt	ZOO	2	1	[0, 0, 0]	n/a	FR1	1	R1234D
167.399	0.766	174248	WORD_OFF	n/a	n/a	ZOO	2	1	[0, 0, 0]	n/a	FR1	1	R1234D
168.165	1.617	175014	WORD	n/a	wordpools/wordpool_EN.txt	FILM	3	1	[0, 0, 0]	n/a	FR1	1	R1234D
169.782	0.9	176631	WORD_OFF	n/a	n/a	FILM	3	1	[0, 0, 0]	n/a	FR1	1	R1234D
170.682	1.617	177531	WORD	n/a	wordpools/wordpool_EN.txt	LAMP	4	1	[0, 0, 0]	n/a	FR1	1	R1234D
172.299	0.867	179148	WORD_OFF	n/a	n/a	LAMP	4	1	[0, 0, 0]	n/a	FR1	1	R1234D
173.166	1.616	180015	WORD	n/a	wordpools/wordpool_EN.txt	CLOUD	5	1	[0, 0, 0]	n/a	FR1	1	R1234D
174.782	0.785	181631	WORD_OFF	n/a	n/a	CLOUD	5	1	[0, 0, 0]	n/a	FR1	1	R1234D
175.567	1.616	182416	WORD	n/a	wordpools/wordpool_EN.txt	TOE	6	1	[0, 0, 0]	n/a	FR1	1	R1234D
177.183	1.0	184032	WORD_OFF	n/a	n/a	TOE	6	1	[0, 0, 0]	n/a	FR1	1	R1234D
178.183	1.617	185032	WORD	n/a	wordpools/wordpool_EN.txt	PEN	7	1	[0, 0, 0]	n/a	FR1	1	R1234D
179.8	0.801	186649	WORD_OFF	n/a	n/a	PEN	7	1	[0, 0, 0]	n/a	FR1	1	R1234D
180.601	1.616	187450	WORD	n/a	wordpools/wordpool_EN.txt	PRINCE	8	1	[0, 0, 0]	n/a	FR1	1	R1234D
182.217	0.817	189065	WORD_OFF	n/a	n/a	PRINCE	8	1	[0, 0, 0]	n/a	FR1	1	R1234D
183.034	1.601	189882	WORD	n/a	wordpools/wordpool_EN.txt	ROSE	9	1	[0, 0, 0]	n/a	FR1	1	R1234D
184.635	0.884	191483	WORD_OFF	n/a	n/a	ROSE	9	1	[0, 0, 0]	n/a	FR1	1	R1234D
185.519	1.616	192367	WORD	n/a	wordpools/wordpool_EN.txt	CORD	10	1	[0, 0, 0]	n/a	FR1	1	R1234D
187.135	0.783	193983	WORD_OFF	n/a	n/a	CORD	10	1	[0, 0, 0]	n/a	FR1	1	R1234D
187.918	1.601	194766	WORD	n/a	wordpools/wordpool_EN.txt	MULE	11	1	[0, 0, 0]	n/a	FR1	1	R1234D
189.519	0.901	196367	WORD_OFF	n/a	n/a	MULE	11	1	[0, 0, 0]	n/a	FR1	1	R1234D
190.42	1.616	197268	WORD	n/a	wordpools/wordpool_EN.txt	BOAT	12	1	[0, 0, 0]	n/a	FR1	1	R1234D
192.036	0.0	198884	WORD_OFF	n/a	n/a	BOAT	12	1	[0, 0, 0]	n/a	FR1	1	R1234D
192.036	0.0	198884	DISTRACT_START	n/a	n/a	n/a	-999	1	[0, 0, 0]	n/a	FR1	1	R1234D
192.036	0.016	198884	START	n/a	n/a	n/a	-999	1	[-999, -999, -999]	n/a	FR1	1	R1234D
192.052	12.019	198900	PROB	12.019	n/a	n/a	-999	1	[3, 4, 7]	14	FR1	1	R1234D
204.071	4.984	210918	PROB	4.984	n/a	n/a	-999	1	[3, 4, 5]	12	FR1	1	R1234D
209.055	6.874	215902	PROB	6.874	n/a	n/a	-999	1	[9, 5, 5]	19	FR1	1	R1234D
215.929	0.011	222776	STOP	n/a	n/a	n/a	-999	1	[-999, -999, -999]	n/a	FR1	1	R1234D
215.94	0.651	222787	DISTRACT_END	n/a	n/a	n/a	-999	1	[0, 0, 0]	n/a	FR1	1	R1234D
216.591	0.517	223438	RETRIEVAL_ORIENT	n/a	n/a	n/a	-999	1	[0, 0, 0]	n/a	FR1	1	R1234D
217.108	1.802	223955	REC_START	n/a	n/a	n/a	-999	1	[0, 0, 0]	n/a	FR1	1	R1234D
218.91	2.114	225756	REC_WORD_VV	2.114	n/a	<>	-999	1	[0, 0, 0]	n/a	FR1	1	R1234D
221.024	1.641	227870	REC_WORD	1.641	n/a	FUDGE	-999	1	[0, 0, 0]	n/a	FR1	1	R1234D
222.665	0.594	229511	REC_WORD	0.594	n/a	CAMEL	-999	1	[0, 0, 0]	n/a	FR1	1	R1234D
223.259	1.965	230105	REC_WORD	1.965	n/a	TOE	-999	1	[0, 0, 0]	n/a	FR1	1	R1234D
225.224	3.559	232070	REC_WORD_VV	3.559	n/a	<>	-999	1	[0, 0, 0]	n/a	FR1	1	R1234D
228.783	4.259	235629	REC_WORD_VV	4.259	n/a	<>	-999	1	[0, 0, 0]	n/a	FR1	1	R1234D
233.042	14.076	239888	REC_WORD	14.076	n/a	COTTON	-999	1	[0, 0, 0]	n/a	FR1	1	R1234D
247.118	6.413	253963	REC_END	n/a	n/a	n/a	-999	1	[0, 0, 0]	n/a	FR1	1	R1234D
253.531	0.5	260375	TRIAL	n/a	n/a	n/a	-999	2	[0, 0, 0]	n/a	FR1	1	R1234D
254.031	10.428	260875	COUNTDOWN_START	n/a	n/a	n/a	-999	2	[0, 0, 0]	n/a	FR1	1	R1234D
264.459	0.008	271303	COUNTDOWN_END	n/a	n/a	n/a	-999	2	[0, 0, 0]	n/a	FR1	1	R1234D
264.467	1.616	271311	ORIENT	n/a	n/a	n/a	-999	2	[0, 0, 0]	n/a	FR1	1	R1234D
266.083	1.917	272927	ORIENT_OFF	n/a	n/a	n/a	-999	2	[0, 0, 0]	n/a	FR1	1	R1234D
268.0	1.618	274844	WORD	n/a	wordpools/wordpool_EN.txt	ANT	1	2	[0, 0, 0]	n/a	FR1	1	R1234D
269.618	0.85	276462	WORD_OFF	n/a	n/a	ANT	1	2	[0, 0, 0]	n/a	FR1	1	R1234D
270.468	1.616	277312	WORD	n/a	wordpools/wordpool_EN.txt	GATE	2	2	[0, 0, 0]	n/a	FR1	1	R1234D
272.084	0.8	278927	WORD_OFF	n/a	n/a	GATE	2	2	[0, 0, 0]	n/a	FR1	1	R1234D
272.884	1.618	279727	WORD	n/a	wordpools/wordpool_EN.txt	RAT	3	2	[0, 0, 0]	n/a	FR1	1	R1234D
274.502	0.95	281345	WORD_OFF	n/a	n/a	RAT	3	2	[0, 0, 0]	n/a	FR1	1	R1234D
275.452	1.616	282295	WORD	n/a	wordpools/wordpool_EN.txt	SPARK	4	2	[0, 0, 0]	n/a	FR1	1	R1234D
277.068	0.917	283911	WORD_OFF	n/a	n/a	SPARK	4	2	[0, 0, 0]	n/a	FR1	1	R1234D
277.985	1.618	284828	WORD	n/a	wordpools/wordpool_EN.txt	MOON	5	2	[0, 0, 0]	n/a	FR1	1	R1234D
279.603	0.917	286446	WORD_OFF	n/a	n/a	MOON	5	2	[0, 0, 0]	n/a	FR1	1	R1234D
280.52	1.616	287363	WORD	n/a	wordpools/wordpool_EN.txt	HOOF	6	2	[0, 0, 0]	n/a	FR1	1	R1234D
282.136	0.866	288979	WORD_OFF	n/a	n/a	HOOF	6	2	[0, 0, 0]	n/a	FR1	1	R1234D
283.002	1.618	289845	WORD	n/a	wordpools/wordpool_EN.txt	SOUP	7	2	[0, 0, 0]	n/a	FR1	1	R1234D
284.62	0.951	291463	WORD_OFF	n/a	n/a	SOUP	7	2	[0, 0, 0]	n/a	FR1	1	R1234D
285.571	1.616	292414	WORD	n/a	wordpools/wordpool_EN.txt	TEETH	8	2	[0, 0, 0]	n/a	FR1	1	R1234D
287.187	0.883	294030	WORD_OFF	n/a	n/a	TEETH	8	2	[0, 0, 0]	n/a	FR1	1	R1234D
288.07	1.617	294913	WORD	n/a	wordpools/wordpool_EN.txt	HOLE	9	2	[0, 0, 0]	n/a	FR1	1	R1234D
289.687	0.934	296529	WORD_OFF	n/a	n/a	HOLE	9	2	[0, 0, 0]	n/a	FR1	1	R1234D
290.621	1.616	297463	WORD	n/a	wordpools/wordpool_EN.txt	HAWK	10	2	[0, 0, 0]	n/a	FR1	1	R1234D
292.237	0.951	299079	WORD_OFF	n/a	n/a	HAWK	10	2	[0, 0, 0]	n/a	FR1	1	R1234D
293.188	1.617	300030	WORD	n/a	wordpools/wordpool_EN.txt	BRICK	11	2	[0, 0, 0]	n/a	FR1	1	R1234D
294.805	0.966	301647	WORD_OFF	n/a	n/a	BRICK	11	2	[0, 0, 0]	n/a	FR1	1	R1234D
295.771	1.617	302613	WORD	n/a	wordpools/wordpool_EN.txt	CLIFF	12	2	[0, 0, 0]	n/a	FR1	1	R1234D
297.388	0.0	304230	WORD_OFF	n/a	n/a	CLIFF	12	2	[0, 0, 0]	n/a	FR1	1	R1234D
297.388	0.001	304230	DISTRACT_START	n/a	n/a	n/a	-999	2	[0, 0, 0]	n/a	FR1	1	R1234D
297.389	0.017	304231	START	n/a	n/a	n/a	-999	2	[-999, -999, -999]	n/a	FR1	1	R1234D
297.406	14.818	304248	PROB	14.818	n/a	n/a	-999	2	[8, 8, 8]	24	FR1	1	R1234D
312.224	3.935	319065	PROB	3.935	n/a	n/a	-999	2	[7, 1, 1]	9	FR1	1	R1234D
316.159	4.721	323000	PROB	4.721	n/a	n/a	-999	2	[2, 4, 7]	13	FR1	1	R1234D
320.88	0.013	327721	STOP	n/a	n/a	n/a	-999	2	[-999, -999, -999]	n/a	FR1	1	R1234D
320.893	0.601	327734	DISTRACT_END	n/a	n/a	n/a	-999	2	[0, 0, 0]	n/a	FR1	1	R1234D
321.494	0.517	328335	RETRIEVAL_ORIENT	n/a	n/a	n/a	-999	2	[0, 0, 0]	n/a	FR1	1	R1234D
322.011	1.517	328852	REC_START	n/a	n/a	n/a	-999	2	[0, 0, 0]	n/a	FR1	1	R1234D
323.528	1.605	330369	REC_WORD_VV	1.605	n/a	<>	-999	2	[0, 0, 0]	n/a	FR1	1	R1234D
325.133	2.546	331973	REC_WORD_VV	2.546	n/a	<>	-999	2	[0, 0, 0]	n/a	FR1	1	R1234D
327.679	2.454	334519	REC_WORD	2.454	n/a	SPARK	-999	2	[0, 0, 0]	n/a	FR1	1	R1234D
330.133	4.721	336973	REC_WORD	4.721	n/a	CLIFF	-999	2	[0, 0, 0]	n/a	FR1	1	R1234D
334.854	1.98	341694	REC_WORD_VV	1.98	n/a	<>	-999	2	[0, 0, 0]	n/a	FR1	1	R1234D
336.834	15.187	343674	REC_WORD	15.187	n/a	GATE	-999	2	[0, 0, 0]	n/a	FR1	1	R1234D
352.021	5.112	358860	REC_END	n/a	n/a	n/a	-999	2	[0, 0, 0]	n/a	FR1	1	R1234D
357.133	0.5	363972	TRIAL	n/a	n/a	n/a	-999	3	[0, 0, 0]	n/a	FR1	1	R1234D
357.633	10.428	364472	COUNTDOWN_START	n/a	n/a	n/a	-999	3	[0, 0, 0]	n/a	FR1	1	R1234D
368.061	0.007	374899	COUNTDOWN_END	n/a	n/a	n/a	-999	3	[0, 0, 0]	n/a	FR1	1	R1234D
368.068	1.617	374906	ORIENT	n/a	n/a	n/a	-999	3	[0, 0, 0]	n/a	FR1	1	R1234D
369.685	1.835	376523	ORIENT_OFF	n/a	n/a	n/a	-999	3	[0, 0, 0]	n/a	FR1	1	R1234D
371.52	1.616	378358	WORD	n/a	wordpools/wordpool_EN.txt	BANK	1	3	[0, 0, 0]	n/a	FR1	1	R1234D
373.136	0.867	379974	WORD_OFF	n/a	n/a	BANK	1	3	[0, 0, 0]	n/a	FR1	1	R1234D
374.003	1.617	380841	WORD	n/a	wordpools/wordpool_EN.txt	STAIR	2	3	[0, 0, 0]	n/a	FR1	1	R1234D
375.62	0.901	382458	WORD_OFF	n/a	n/a	STAIR	2	3	[0, 0, 0]	n/a	FR1	1	R1234D
376.521	1.616	383359	WORD	n/a	wordpools/wordpool_EN.txt	JAR	3	3	[0, 0, 0]	n/a	FR1	1	R1234D
378.137	0.833	384975	WORD_OFF	n/a	n/a	JAR	3	3	[0, 0, 0]	n/a	FR1	1	R1234D
378.97	1.601	385807	WORD	n/a	wordpools/wordpool_EN.txt	SUIT	4	3	[0, 0, 0]	n/a	FR1	1	R1234D
380.571	0.901	387408	WORD_OFF	n/a	n/a	SUIT	4	3	[0, 0, 0]	n/a	FR1	1	R1234D
381.472	1.615	388309	WORD	n/a	wordpools/wordpool_EN.txt	ROAD	5	3	[0, 0, 0]	n/a	FR1	1	R1234D
383.087	0.934	389924	WORD_OFF	n/a	n/a	ROAD	5	3	[0, 0, 0]	n/a	FR1	1	R1234D
384.021	1.618	390858	WORD	n/a	wordpools/wordpool_EN.txt	CONE	6	3	[0, 0, 0]	n/a	FR1	1	R1234D
385.639	0.967	392476	WORD_OFF	n/a	n/a	CONE	6	3	[0, 0, 0]	n/a	FR1	1	R1234D
386.606	1.616	393443	WORD	n/a	wordpools/wordpool_EN.txt	VAN	7	3	[0, 0, 0]	n/a	FR1	1	R1234D
388.222	0.967	395059	WORD_OFF	n/a	n/a	VAN	7	3	[0, 0, 0]	n/a	FR1	1	R1234D
389.189	1.617	396026	WORD	n/a	wordpools/wordpool_EN.txt	MUG	8	3	[0, 0, 0]	n/a	FR1	1	R1234D
390.806	0.933	397643	WORD_OFF	n/a	n/a	MUG	8	3	[0, 0, 0]	n/a	FR1	1	R1234D
391.739	1.617	398576	WORD	n/a	wordpools/wordpool_EN.txt	WEB	9	3	[0, 0, 0]	n/a	FR1	1	R1234D
393.356	0.833	400193	WORD_OFF	n/a	n/a	WEB	9	3	[0, 0, 0]	n/a	FR1	1	R1234D
394.189	1.618	401026	WORD	n/a	wordpools/wordpool_EN.txt	TOY	10	3	[0, 0, 0]	n/a	FR1	1	R1234D
395.807	1.0	402644	WORD_OFF	n/a	n/a	TOY	10	3	[0, 0, 0]	n/a	FR1	1	R1234D
396.807	1.618	403644	WORD	n/a	wordpools/wordpool_EN.txt	POND	11	3	[0, 0, 0]	n/a	FR1	1	R1234D
398.425	0.782	405261	WORD_OFF	n/a	n/a	POND	11	3	[0, 0, 0]	n/a	FR1	1	R1234D
399.207	1.617	406043	WORD	n/a	wordpools/wordpool_EN.txt	YARD	12	3	[0, 0, 0]	n/a	FR1	1	R1234D
400.824	0.0	407660	WORD_OFF	n/a	n/a	YARD	12	3	[0, 0, 0]	n/a	FR1	1	R1234D
400.824	0.001	407660	DISTRACT_START	n/a	n/a	n/a	-999	3	[0, 0, 0]	n/a	FR1	1	R1234D
400.825	0.016	407661	START	n/a	n/a	n/a	-999	3	[-999, -999, -999]	n/a	FR1	1	R1234D
400.841	9.968	407677	PROB	9.968	n/a	n/a	-999	3	[9, 2, 6]	17	FR1	1	R1234D
410.809	13.174	417645	PROB	13.174	n/a	n/a	-999	3	[9, 7, 8]	24	FR1	1	R1234D
423.983	0.012	430818	STOP	n/a	n/a	n/a	-999	3	[-999, -999, -999]	n/a	FR1	1	R1234D
423.995	0.7	430830	DISTRACT_END	n/a	n/a	n/a	-999	3	[0, 0, 0]	n/a	FR1	1	R1234D
424.695	0.518	431530	RETRIEVAL_ORIENT	n/a	n/a	n/a	-999	3	[0, 0, 0]	n/a	FR1	1	R1234D
425.213	30.0	432048	REC_START	n/a	n/a	n/a	-999	3	[0, 0, 0]	n/a	FR1	1	R1234D
455.213	0.012	462046	REC_WORD_VV	0.012	n/a	<>	-999	3	[0, 0, 0]	n/a	FR1	1	R1234D
455.225	4.394	462058	REC_END	n/a	n/a	n/a	-999	3	[0, 0, 0]	n/a	FR1	1	R1234D
459.619	0.5	466452	TRIAL	n/a	n/a	n/a	-999	4	[0, 0, 0]	n/a	FR1	1	R1234D
460.119	10.428	466952	COUNTDOWN_START	n/a	n/a	n/a	-999	4	[0, 0, 0]	n/a	FR1	1	R1234D
470.547	0.008	477379	COUNTDOWN_END	n/a	n/a	n/a	-999	4	[0, 0, 0]	n/a	FR1	1	R1234D
470.555	1.616	477387	ORIENT	n/a	n/a	n/a	-999	4	[0, 0, 0]	n/a	FR1	1	R1234D
472.171	2.05	479003	ORIENT_OFF	n/a	n/a	n/a	-999	4	[0, 0, 0]	n/a	FR1	1	R1234D
474.221	1.617	481053	WORD	n/a	wordpools/wordpool_EN.txt	TOOL	1	4	[0, 0, 0]	n/a	FR1	1	R1234D
475.838	0.95	482670	WORD_OFF	n/a	n/a	TOOL	1	4	[0, 0, 0]	n/a	FR1	1	R1234D
476.788	1.618	483620	WORD	n/a	wordpools/wordpool_EN.txt	BUSH	2	4	[0, 0, 0]	n/a	FR1	1	R1234D
478.406	0.966	485238	WORD_OFF	n/a	n/a	BUSH	2	4	[0, 0, 0]	n/a	FR1	1	R1234D
479.372	1.617	486204	WORD	n/a	wordpools/wordpool_EN.txt	STRAW	3	4	[0, 0, 0]	n/a	FR1	1	R1234D
480.989	0.85	487821	WORD_OFF	n/a	n/a	STRAW	3	4	[0, 0, 0]	n/a	FR1	1	R1234D
481.839	1.618	488671	WORD	n/a	wordpools/wordpool_EN.txt	VEST	4	4	[0, 0, 0]	n/a	FR1	1	R1234D
483.457	0.833	490289	WORD_OFF	n/a	n/a	VEST	4	4	[0, 0, 0]	n/a	FR1	1	R1234D
484.29	1.616	491122	WORD	n/a	wordpools/wordpool_EN.txt	CUBE	5	4	[0, 0, 0]	n/a	FR1	1	R1234D
485.906	0.817	492738	WORD_OFF	n/a	n/a	CUBE	5	4	[0, 0, 0]	n/a	FR1	1	R1234D
486.723	1.617	493554	WORD	n/a	wordpools/wordpool_EN.txt	JAIL	6	4	[0, 0, 0]	n/a	FR1	1	R1234D
488.34	0.8	495171	WORD_OFF	n/a	n/a	JAIL	6	4	[0, 0, 0]	n/a	FR1	1	R1234D
489.14	1.617	495971	WORD	n/a	wordpools/wordpool_EN.txt	PIPE	7	4	[0, 0, 0]	n/a	FR1	1	R1234D
490.757	0.984	497588	WORD_OFF	n/a	n/a	PIPE	7	4	[0, 0, 0]	n/a	FR1	1	R1234D
491.741	1.617	498572	WORD	n/a	wordpools/wordpool_EN.txt	SALT	8	4	[0, 0, 0]	n/a	FR1	1	R1234D
493.358	1.0	500189	WORD_OFF	n/a	n/a	SALT	8	4	[0, 0, 0]	n/a	FR1	1	R1234D
494.358	1.617	501189	WORD	n/a	wordpools/wordpool_EN.txt	DEER	9	4	[0, 0, 0]	n/a	FR1	1	R1234D
495.975	0.967	502806	WORD_OFF	n/a	n/a	DEER	9	4	[0, 0, 0]	n/a	FR1	1	R1234D
496.942	1.618	503773	WORD	n/a	wordpools/wordpool_EN.txt	SEAL	10	4	[0, 0, 0]	n/a	FR1	1	R1234D
498.56	0.933	505391	WORD_OFF	n/a	n/a	SEAL	10	4	[0, 0, 0]	n/a	FR1	1	R1234D
499.493	1.616	506324	WORD	n/a	wordpools/wordpool_EN.txt	CHIN	11	4	[0, 0, 0]	n/a	FR1	1	R1234D
501.109	0.9	507940	WORD_OFF	n/a	n/a	CHIN	11	4	[0, 0, 0]	n/a	FR1	1	R1234D
502.009	1.618	508840	WORD	n/a	wordpools/wordpool_EN.txt	ROOM	12	4	[0, 0, 0]	n/a	FR1	1	R1234D
503.627	0.0	510458	WORD_OFF	n/a	n/a	ROOM	12	4	[0, 0, 0]	n/a	FR1	1	R1234D
503.627	0.001	510458	DISTRACT_START	n/a	n/a	n/a	-999	4	[0, 0, 0]	n/a	FR1	1	R1234D
503.628	0.016	510459	START	n/a	n/a	n/a	-999	4	[-999, -999, -999]	n/a	FR1	1	R1234D
503.644	6.434	510475	PROB	6.434	n/a	n/a	-999	4	[3, 7, 7]	17	FR1	1	R1234D
510.078	2.451	516908	PROB	2.451	n/a	n/a	-999	4	[5, 5, 1]	11	FR1	1	R1234D
512.529	8.467	519359	PROB	8.467	n/a	n/a	-999	4	[4, 4, 8]	16	FR1	1	R1234D
520.996	8.989	527826	PROB	8.989	n/a	n/a	-999	4	[7, 3, 3]	13	FR1	1	R1234D
529.985	0.013	536814	STOP	n/a	n/a	n/a	-999	4	[-999, -999, -999]	n/a	FR1	1	R1234D
529.998	0.551	536827	DISTRACT_END	n/a	n/a	n/a	-999	4	[0, 0, 0]	n/a	FR1	1	R1234D
530.549	0.517	537378	RETRIEVAL_ORIENT	n/a	n/a	n/a	-999	4	[0, 0, 0]	n/a	FR1	1	R1234D
531.066	1.154	537895	REC_START	n/a	n/a	n/a	-999	4	[0, 0, 0]	n/a	FR1	1	R1234D
532.22	3.636	539049	REC_WORD_VV	3.636	n/a	<>	-999	4	[0, 0, 0]	n/a	FR1	1	R1234D
535.856	3.135	542685	REC_WORD	3.135	n/a	TOOL	-999	4	[0, 0, 0]	n/a	FR1	1	R1234D
538.991	2.55	545820	REC_WORD	2.55	n/a	BENCH	-999	4	[0, 0, 0]	n/a	FR1	1	R1234D
541.541	17.217	548369	REC_WORD_VV	17.217	n/a	<>	-999	4	[0, 0, 0]	n/a	FR1	1	R1234D
558.758	2.317	565585	REC_WORD	2.317	n/a	SEAL	-999	4	[0, 0, 0]	n/a	FR1	1	R1234D
561.075	4.863	567902	REC_END	n/a	n/a	n/a	-999	4	[0, 0, 0]	n/a	FR1	1	R1234D
565.938	0.5	572765	TRIAL	n/a	n/a	n/a	-999	5	[0, 0, 0]	n/a	FR1	1	R1234D
566.438	10.428	573265	COUNTDOWN_START	n/a	n/a	n/a	-999	5	[0, 0, 0]	n/a	FR1	1	R1234D
576.866	0.007	583692	COUNTDOWN_END	n/a	n/a	n/a	-999	5	[0, 0, 0]	n/a	FR1	1	R1234D
576.873	1.618	583699	ORIENT	n/a	n/a	n/a	-999	5	[0, 0, 0]	n/a	FR1	1	R1234D
578.491	2.2	585317	ORIENT_OFF	n/a	n/a	n/a	-999	5	[0, 0, 0]	n/a	FR1	1	R1234D
580.691	1.617	587517	WORD	n/a	wordpools/wordpool_EN.txt	SNAIL	1	5	[0, 0, 0]	n/a	FR1	1	R1234D
582.308	1.0	589134	WORD_OFF	n/a	n/a	SNAIL	1	5	[0, 0, 0]	n/a	FR1	1	R1234D
583.308	1.617	590134	WORD	n/a	wordpools/wordpool_EN.txt	HAND	2	5	[0, 0, 0]	n/a	FR1	1	R1234D
584.925	0.833	591751	WORD_OFF	n/a	n/a	HAND	2	5	[0, 0, 0]	n/a	FR1	1	R1234D
585.758	1.617	592584	WORD	n/a	wordpools/wordpool_EN.txt	MAP	3	5	[0, 0, 0]	n/a	FR1	1	R1234D
587.375	0.85	594201	WORD_OFF	n/a	n/a	MAP	3	5	[0, 0, 0]	n/a	FR1	1	R1234D
588.225	1.617	595051	WORD	n/a	wordpools/wordpool_EN.txt	FROG	4	5	[0, 0, 0]	n/a	FR1	1	R1234D
589.842	0.867	596668	WORD_OFF	n/a	n/a	FROG	4	5	[0, 0, 0]	n/a	FR1	1	R1234D
590.709	1.617	597535	WORD	n/a	wordpools/wordpool_EN.txt	BREAD	5	5	[0, 0, 0]	n/a	FR1	1	R1234D
592.326	0.95	599152	WORD_OFF	n/a	n/a	BREAD	5	5	[0, 0, 0]	n/a	FR1	1	R1234D
593.276	1.617	600102	WORD	n/a	wordpools/wordpool_EN.txt	STAR	6	5	[0, 0, 0]	n/a	FR1	1	R1234D
594.893	0.784	601718	WORD_OFF	n/a	n/a	STAR	6	5	[0, 0, 0]	n/a	FR1	1	R1234D
595.677	1.617	602502	WORD	n/a	wordpools/wordpool_EN.txt	BEACH	7	5	[0, 0, 0]	n/a	FR1	1	R1234D
597.294	0.85	604119	WORD_OFF	n/a	n/a	BEACH	7	5	[0, 0, 0]	n/a	FR1	1	R1234D
598.144	1.617	604969	WORD	n/a	wordpools/wordpool_EN.txt	COIN	8	5	[0, 0, 0]	n/a	FR1	1	R1234D
599.761	1.0	606586	WORD_OFF	n/a	n/a	COIN	8	5	[0, 0, 0]	n/a	FR1	1	R1234D
600.761	1.617	607586	WORD	n/a	wordpools/wordpool_EN.txt	PIG	9	5	[0, 0, 0]	n/a	FR1	1	R1234D
602.378	0.983	609203	WORD_OFF	n/a	n/a	PIG	9	5	[0, 0, 0]	n/a	FR1	1	R1234D
603.361	1.617	610186	WORD	n/a	wordpools/wordpool_EN.txt	MOUTH	10	5	[0, 0, 0]	n/a	FR1	1	R1234D
604.978	0.834	611803	WORD_OFF	n/a	n/a	MOUTH	10	5	[0, 0, 0]	n/a	FR1	1	R1234D
605.812	1.618	612637	WORD	n/a	wordpools/wordpool_EN.txt	CAR	11	5	[0, 0, 0]	n/a	FR1	1	R1234D
607.43	0.967	614255	WORD_OFF	n/a	n/a	CAR	11	5	[0, 0, 0]	n/a	FR1	1	R1234D
608.397	1.616	615222	WORD	n/a	wordpools/wordpool_EN.txt	SHELL	12	5	[0, 0, 0]	n/a	FR1	1	R1234D
610.013	0.0	616838	WORD_OFF	n/a	n/a	SHELL	12	5	[0, 0, 0]	n/a	FR1	1	R1234D
610.013	0.0	616838	DISTRACT_START	n/a	n/a	n/a	-999	5	[0, 0, 0]	n/a	FR1	1	R1234D
610.013	0.016	616838	START	n/a	n/a	n/a	-999	5	[-999, -999, -999]	n/a	FR1	1	R1234D
610.029	8.553	616854	PROB	8.553	n/a	n/a	-999	5	[7, 2, 4]	13	FR1	1	R1234D
618.582	6.35	625406	PROB	6.35	n/a	n/a	-999	5	[9, 3, 1]	13	FR1	1	R1234D
624.932	8.42	631756	PROB	8.42	n/a	n/a	-999	5	[7, 8, 3]	18	FR1	1	R1234D
633.352	0.015	640175	STOP	n/a	n/a	n/a	-999	5	[-999, -999, -999]	n/a	FR1	1	R1234D
633.367	0.583	640190	DISTRACT_END	n/a	n/a	n/a	-999	5	[0, 0, 0]	n/a	FR1	1	R1234D
633.95	0.519	640773	RETRIEVAL_ORIENT	n/a	n/a	n/a	-999	5	[0, 0, 0]	n/a	FR1	1	R1234D
634.469	1.983	641292	REC_START	n/a	n/a	n/a	-999	5	[0, 0, 0]	n/a	FR1	1	R1234D
636.452	0.615	643275	REC_WORD	0.615	n/a	SNAIL	-999	5	[0, 0, 0]	n/a	FR1	1	R1234D
637.067	0.57	643890	REC_WORD	0.57	n/a	BEACH	-999	5	[0, 0, 0]	n/a	FR1	1	R1234D
637.637	2.509	644460	REC_WORD	2.509	n/a	CAR	-999	5	[0, 0, 0]	n/a	FR1	1	R1234D
640.146	1.586	646969	REC_WORD_VV	1.586	n/a	<>	-999	5	[0, 0, 0]	n/a	FR1	1	R1234D
641.732	0.466	648555	REC_WORD	0.466	n/a	SNAIL	-999	5	[0, 0, 0]	n/a	FR1	1	R1234D
642.198	0.449	649021	REC_WORD	0.449	n/a	BEACH	-999	5	[0, 0, 0]	n/a	FR1	1	R1234D
642.647	2.844	649470	REC_WORD	2.844	n/a	CAR	-999	5	[0, 0, 0]	n/a	FR1	1	R1234D
645.491	1.981	652314	REC_WORD_VV	1.981	n/a	<>	-999	5	[0, 0, 0]	n/a	FR1	1	R1234D
647.472	0.396	654295	REC_WORD	0.396	n/a	SNAIL	-999	5	[0, 0, 0]	n/a	FR1	1	R1234D
647.868	0.457	654691	REC_WORD	0.457	n/a	BEACH	-999	5	[0, 0, 0]	n/a	FR1	1	R1234D
648.325	16.154	655147	REC_WORD	16.154	n/a	CAR	-999	5	[0, 0, 0]	n/a	FR1	1	R1234D
664.479	5.029	671301	REC_END	n/a	n/a	n/a	-999	5	[0, 0, 0]	n/a	FR1	1	R1234D
669.508	0.5	676329	TRIAL	n/a	n/a	n/a	-999	6	[0, 0, 0]	n/a	FR1	1	R1234D
670.008	10.428	676829	COUNTDOWN_START	n/a	n/a	n/a	-999	6	[0, 0, 0]	n/a	FR1	1	R1234D
680.436	0.007	687257	COUNTDOWN_END	n/a	n/a	n/a	-999	6	[0, 0, 0]	n/a	FR1	1	R1234D
680.443	1.616	687264	ORIENT	n/a	n/a	n/a	-999	6	[0, 0, 0]	n/a	FR1	1	R1234D
682.059	2.117	688880	ORIENT_OFF	n/a	n/a	n/a	-999	6	[0, 0, 0]	n/a	FR1	1	R1234D
684.176	1.617	690997	WORD	n/a	wordpools/wordpool_EN.txt	BOMB	1	6	[0, 0, 0]	n/a	FR1	1	R1234D
685.793	1.017	692613	WORD_OFF	n/a	n/a	BOMB	1	6	[0, 0, 0]	n/a	FR1	1	R1234D
686.81	1.601	693630	WORD	n/a	wordpools/wordpool_EN.txt	BEAK	2	6	[0, 0, 0]	n/a	FR1	1	R1234D
688.411	0.883	695231	WORD_OFF	n/a	n/a	BEAK	2	6	[0, 0, 0]	n/a	FR1	1	R1234D
689.294	1.617	696114	WORD	n/a	wordpools/wordpool_EN.txt	SMOKE	3	6	[0, 0, 0]	n/a	FR1	1	R1234D
690.911	0.95	697731	WORD_OFF	n/a	n/a	SMOKE	3	6	[0, 0, 0]	n/a	FR1	1	R1234D
691.861	1.601	698681	WORD	n/a	wordpools/wordpool_EN.txt	DRESS	4	6	[0, 0, 0]	n/a	FR1	1	R1234D
693.462	0.899	700282	WORD_OFF	n/a	n/a	DRESS	4	6	[0, 0, 0]	n/a	FR1	1	R1234D
694.361	1.617	701181	WORD	n/a	wordpools/wordpool_EN.txt	WAVE	5	6	[0, 0, 0]	n/a	FR1	1	R1234D
695.978	0.884	702798	WORD_OFF	n/a	n/a	WAVE	5	6	[0, 0, 0]	n/a	FR1	1	R1234D
696.862	1.618	703682	WORD	n/a	wordpools/wordpool_EN.txt	BATH	6	6	[0, 0, 0]	n/a	FR1	1	R1234D
698.48	0.866	705300	WORD_OFF	n/a	n/a	BATH	6	6	[0, 0, 0]	n/a	FR1	1	R1234D
699.346	1.617	706166	WORD	n/a	wordpools/wordpool_EN.txt	RICE	7	6	[0, 0, 0]	n/a	FR1	1	R1234D
700.963	0.783	707783	WORD_OFF	n/a	n/a	RICE	7	6	[0, 0, 0]	n/a	FR1	1	R1234D
701.746	1.617	708566	WORD	n/a	wordpools/wordpool_EN.txt	TEA	8	6	[0, 0, 0]	n/a	FR1	1	R1234D
703.363	0.817	710182	WORD_OFF	n/a	n/a	TEA	8	6	[0, 0, 0]	n/a	FR1	1	R1234D
704.18	1.617	710999	WORD	n/a	wordpools/wordpool_EN.txt	FOG	9	6	[0, 0, 0]	n/a	FR1	1	R1234D
705.797	0.95	712616	WORD_OFF	n/a	n/a	FOG	9	6	[0, 0, 0]	n/a	FR1	1	R1234D
706.747	1.617	713566	WORD	n/a	wordpools/wordpool_EN.txt	JET	10	6	[0, 0, 0]	n/a	FR1	1	R1234D
708.364	0.8	715183	WORD_OFF	n/a	n/a	JET	10	6	[0, 0, 0]	n/a	FR1	1	R1234D
709.164	1.617	715983	WORD	n/a	wordpools/wordpool_EN.txt	GRASS	11	6	[0, 0, 0]	n/a	FR1	1	R1234D
710.781	0.95	717600	WORD_OFF	n/a	n/a	GRASS	11	6	[0, 0, 0]	n/a	FR1	1	R1234D
711.731	1.617	718550	WORD	n/a	wordpools/wordpool_EN.txt	BOX	12	6	[0, 0, 0]	n/a	FR1	1	R1234D
713.348	0.0	720167	WORD_OFF	n/a	n/a	BOX	12	6	[0, 0, 0]	n/a	FR1	1	R1234D
713.348	0.001	720167	DISTRACT_START	n/a	n/a	n/a	-999	6	[0, 0, 0]	n/a	FR1	1	R1234D
713.349	0.016	720168	START	n/a	n/a	n/a	-999	6	[-999, -999, -999]	n/a	FR1	1	R1234D
713.365	10.335	720184	PROB	10.335	n/a	n/a	-999	6	[7, 6, 8]	21	FR1	1	R1234D
723.7	5.168	730518	PROB	5.168	n/a	n/a	-999	6	[9, 5, 1]	15	FR1	1	R1234D
728.868	16.574	735686	PROB	16.574	n/a	n/a	-999	6	[6, 7, 3]	19	FR1	1	R1234D
745.442	0.013	752259	STOP	n/a	n/a	n/a	-999	6	[-999, -999, -999]	n/a	FR1	1	R1234D
745.455	0.599	752272	DISTRACT_END	n/a	n/a	n/a	-999	6	[0, 0, 0]	n/a	FR1	1	R1234D
746.054	0.518	752871	RETRIEVAL_ORIENT	n/a	n/a	n/a	-999	6	[0, 0, 0]	n/a	FR1	1	R1234D
746.572	1.031	753389	REC_START	n/a	n/a	n/a	-999	6	[0, 0, 0]	n/a	FR1	1	R1234D
747.603	0.706	754420	REC_WORD_VV	0.706	n/a	<>	-999	6	[0, 0, 0]	n/a	FR1	1	R1234D
748.309	0.699	755126	REC_WORD	0.699	n/a	BOMB	-999	6	[0, 0, 0]	n/a	FR1	1	R1234D
749.008	0.658	755825	REC_WORD	0.658	n/a	BATH	-999	6	[0, 0, 0]	n/a	FR1	1	R1234D
749.666	2.51	756483	REC_WORD	2.51	n/a	SMOKE	-999	6	[0, 0, 0]	n/a	FR1	1	R1234D
752.176	0.337	758993	REC_WORD_VV	0.337	n/a	<>	-999	6	[0, 0, 0]	n/a	FR1	1	R1234D
752.513	0.276	759330	REC_WORD	0.276	n/a	BATH	-999	6	[0, 0, 0]	n/a	FR1	1	R1234D
752.789	1.55	759606	REC_WORD	1.55	n/a	SMOKE	-999	6	[0, 0, 0]	n/a	FR1	1	R1234D
754.339	2.714	761156	REC_WORD	2.714	n/a	GRASS	-999	6	[0, 0, 0]	n/a	FR1	1	R1234D
757.053	10.31	763869	REC_WORD_VV	10.31	n/a	<>	-999	6	[0, 0, 0]	n/a	FR1	1	R1234D
767.363	0.249	774179	REC_WORD_VV	0.249	n/a	<>	-999	6	[0, 0, 0]	n/a	FR1	1	R1234D
767.612	8.973	774428	REC_WORD	8.973	n/a	BEAK	-999	6	[0, 0, 0]	n/a	FR1	1	R1234D
776.585	4.525	783400	REC_END	n/a	n/a	n/a	-999	6	[0, 0, 0]	n/a	FR1	1	R1234D
781.11	0.5	787925	TRIAL	n/a	n/a	n/a	-999	7	[0, 0, 0]	n/a	FR1	1	R1234D
781.61	10.428	788425	COUNTDOWN_START	n/a	n/a	n/a	-999	7	[0, 0, 0]	n/a	FR1	1	R1234D
792.038	0.008	798852	COUNTDOWN_END	n/a	n/a	n/a	-999	7	[0, 0, 0]	n/a	FR1	1	R1234D
792.046	1.617	798860	ORIENT	n/a	n/a	n/a	-999	7	[0, 0, 0]	n/a	FR1	1	R1234D
793.663	2.184	800477	ORIENT_OFF	n/a	n/a	n/a	-999	7	[0, 0, 0]	n/a	FR1	1	R1234D
795.847	1.618	802661	WORD	n/a	wordpools/wordpool_EN.txt	SEED	1	7	[0, 0, 0]	n/a	FR1	1	R1234D
797.465	0.899	804279	WORD_OFF	n/a	n/a	SEED	1	7	[0, 0, 0]	n/a	FR1	1	R1234D
798.364	1.617	805178	WORD	n/a	wordpools/wordpool_EN.txt	STEM	2	7	[0, 0, 0]	n/a	FR1	1	R1234D
799.981	0.85	806795	WORD_OFF	n/a	n/a	STEM	2	7	[0, 0, 0]	n/a	FR1	1	R1234D
800.831	1.618	807645	WORD	n/a	wordpools/wordpool_EN.txt	HEART	3	7	[0, 0, 0]	n/a	FR1	1	R1234D
802.449	0.883	809263	WORD_OFF	n/a	n/a	HEART	3	7	[0, 0, 0]	n/a	FR1	1	R1234D
803.332	1.616	810146	WORD	n/a	wordpools/wordpool_EN.txt	ROPE	4	7	[0, 0, 0]	n/a	FR1	1	R1234D
804.948	1.001	811762	WORD_OFF	n/a	n/a	ROPE	4	7	[0, 0, 0]	n/a	FR1	1	R1234D
805.949	1.618	812763	WORD	n/a	wordpools/wordpool_EN.txt	HOUSE	5	7	[0, 0, 0]	n/a	FR1	1	R1234D
807.567	0.799	814381	WORD_OFF	n/a	n/a	HOUSE	5	7	[0, 0, 0]	n/a	FR1	1	R1234D
808.366	1.617	815180	WORD	n/a	wordpools/wordpool_EN.txt	MAZE	6	7	[0, 0, 0]	n/a	FR1	1	R1234D
809.983	0.967	816796	WORD_OFF	n/a	n/a	MAZE	6	7	[0, 0, 0]	n/a	FR1	1	R1234D
810.95	1.617	817763	WORD	n/a	wordpools/wordpool_EN.txt	MOOSE	7	7	[0, 0, 0]	n/a	FR1	1	R1234D
812.567	1.001	819380	WORD_OFF	n/a	n/a	MOOSE	7	7	[0, 0, 0]	n/a	FR1	1	R1234D
813.568	1.616	820381	WORD	n/a	wordpools/wordpool_EN.txt	SNOW	8	7	[0, 0, 0]	n/a	FR1	1	R1234D
815.184	0.883	821997	WORD_OFF	n/a	n/a	SNOW	8	7	[0, 0, 0]	n/a	FR1	1	R1234D
816.067	1.617	822880	WORD	n/a	wordpools/wordpool_EN.txt	LAKE	9	7	[0, 0, 0]	n/a	FR1	1	R1234D
817.684	0.901	824497	WORD_OFF	n/a	n/a	LAKE	9	7	[0, 0, 0]	n/a	FR1	1	R1234D
818.585	1.616	825398	WORD	n/a	wordpools/wordpool_EN.txt	COW	10	7	[0, 0, 0]	n/a	FR1	1	R1234D
820.201	0.867	827014	WORD_OFF	n/a	n/a	COW	10	7	[0, 0, 0]	n/a	FR1	1	R1234D
821.068	1.617	827881	WORD	n/a	wordpools/wordpool_EN.txt	WOOD	11	7	[0, 0, 0]	n/a	FR1	1	R1234D
822.685	0.935	829498	WORD_OFF	n/a	n/a	WOOD	11	7	[0, 0, 0]	n/a	FR1	1	R1234D
823.62	1.615	830433	WORD	n/a	wordpools/wordpool_EN.txt	BEAR	12	7	[0, 0, 0]	n/a	FR1	1	R1234D
825.235	0.0	832048	WORD_OFF	n/a	n/a	BEAR	12	7	[0, 0, 0]	n/a	FR1	1	R1234D
825.235	0.001	832048	DISTRACT_START	n/a	n/a	n/a	-999	7	[0, 0, 0]	n/a	FR1	1	R1234D
825.236	0.016	832049	START	n/a	n/a	n/a	-999	7	[-999, -999, -999]	n/a	FR1	1	R1234D
825.252	6.135	832065	PROB	6.135	n/a	n/a	-999	7	[3, 1, 5]	9	FR1	1	R1234D
831.387	8.985	838199	PROB	8.985	n/a	n/a	-999	7	[8, 9, 4]	20	FR1	1	R1234D
840.372	6.524	847184	PROB	6.524	n/a	n/a	-999	7	[8, 8, 2]	18	FR1	1	R1234D
846.896	0.01	853707	STOP	n/a	n/a	n/a	-999	7	[-999, -999, -999]	n/a	FR1	1	R1234D
846.906	0.534	853717	DISTRACT_END	n/a	n/a	n/a	-999	7	[0, 0, 0]	n/a	FR1	1	R1234D
847.44	0.517	854251	RETRIEVAL_ORIENT	n/a	n/a	n/a	-999	7	[0, 0, 0]	n/a	FR1	1	R1234D
847.957	0.813	854768	REC_START	n/a	n/a	n/a	-999	7	[0, 0, 0]	n/a	FR1	1	R1234D
848.77	0.396	855581	REC_WORD_VV	0.396	n/a	<>	-999	7	[0, 0, 0]	n/a	FR1	1	R1234D
849.166	0.476	855977	REC_WORD	0.476	n/a	MOOSE	-999	7	[0, 0, 0]	n/a	FR1	1	R1234D
849.642	1.431	856453	REC_WORD	1.431	n/a	COW	-999	7	[0, 0, 0]	n/a	FR1	1	R1234D
851.073	3.285	857884	REC_WORD	3.285	n/a	BEAR	-999	7	[0, 0, 0]	n/a	FR1	1	R1234D
854.358	23.61	861169	REC_WORD_VV	23.61	n/a	<>	-999	7	[0, 0, 0]	n/a	FR1	1	R1234D
877.968	4.328	884778	REC_END	n/a	n/a	n/a	-999	7	[0, 0, 0]	n/a	FR1	1	R1234D
882.296	0.5	889105	TRIAL	n/a	n/a	n/a	-999	8	[0, 0, 0]	n/a	FR1	1	R1234D
882.796	10.428	889605	COUNTDOWN_START	n/a	n/a	n/a	-999	8	[0, 0, 0]	n/a	FR1	1	R1234D
893.224	0.007	900033	COUNTDOWN_END	n/a	n/a	n/a	-999	8	[0, 0, 0]	n/a	FR1	1	R1234D
893.231	1.617	900040	ORIENT	n/a	n/a	n/a	-999	8	[0, 0, 0]	n/a	FR1	1	R1234D
894.848	2.067	901657	ORIENT_OFF	n/a	n/a	n/a	-999	8	[0, 0, 0]	n/a	FR1	1	R1234D
896.915	1.618	903724	WORD	n/a	wordpools/wordpool_EN.txt	TENT	1	8	[0, 0, 0]	n/a	FR1	1	R1234D
898.533	0.85	905342	WORD_OFF	n/a	n/a	TENT	1	8	[0, 0, 0]	n/a	FR1	1	R1234D
899.383	1.616	906192	WORD	n/a	wordpools/wordpool_EN.txt	KEY	2	8	[0, 0, 0]	n/a	FR1	1	R1234D
900.999	0.917	907807	WORD_OFF	n/a	n/a	KEY	2	8	[0, 0, 0]	n/a	FR1	1	R1234D
901.916	1.618	908724	WORD	n/a	wordpools/wordpool_EN.txt	CHIEF	3	8	[0, 0, 0]	n/a	FR1	1	R1234D
903.534	1.0	910342	WORD_OFF	n/a	n/a	CHIEF	3	8	[0, 0, 0]	n/a	FR1	1	R1234D
904.534	1.616	911342	WORD	n/a	wordpools/wordpool_EN.txt	FISH	4	8	[0, 0, 0]	n/a	FR1	1	R1234D
906.15	0.967	912958	WORD_OFF	n/a	n/a	FISH	4	8	[0, 0, 0]	n/a	FR1	1	R1234D
907.117	1.617	913925	WORD	n/a	wordpools/wordpool_EN.txt	PARK	5	8	[0, 0, 0]	n/a	FR1	1	R1234D
908.734	0.885	915542	WORD_OFF	n/a	n/a	PARK	5	8	[0, 0, 0]	n/a	FR1	1	R1234D
909.619	1.616	916427	WORD	n/a	wordpools/wordpool_EN.txt	CHEEK	6	8	[0, 0, 0]	n/a	FR1	1	R1234D
911.235	0.766	918043	WORD_OFF	n/a	n/a	CHEEK	6	8	[0, 0, 0]	n/a	FR1	1	R1234D
912.001	1.618	918809	WORD	n/a	wordpools/wordpool_EN.txt	RAIN	7	8	[0, 0, 0]	n/a	FR1	1	R1234D
913.619	0.917	920427	WORD_OFF	n/a	n/a	RAIN	7	8	[0, 0, 0]	n/a	FR1	1	R1234D
914.536	1.616	921344	WORD	n/a	wordpools/wordpool_EN.txt	SKUNK	8	8	[0, 0, 0]	n/a	FR1	1	R1234D
916.152	0.984	922960	WORD_OFF	n/a	n/a	SKUNK	8	8	[0, 0, 0]	n/a	FR1	1	R1234D
917.136	1.617	923944	WORD	n/a	wordpools/wordpool_EN.txt	MAIL	9	8	[0, 0, 0]	n/a	FR1	1	R1234D
918.753	0.851	925560	WORD_OFF	n/a	n/a	MAIL	9	8	[0, 0, 0]	n/a	FR1	1	R1234D
919.604	1.616	926411	WORD	n/a	wordpools/wordpool_EN.txt	SHIP	10	8	[0, 0, 0]	n/a	FR1	1	R1234D
921.22	0.95	928027	WORD_OFF	n/a	n/a	SHIP	10	8	[0, 0, 0]	n/a	FR1	1	R1234D
922.17	1.617	928977	WORD	n/a	wordpools/wordpool_EN.txt	WORLD	11	8	[0, 0, 0]	n/a	FR1	1	R1234D
923.787	1.0	930594	WORD_OFF	n/a	n/a	WORLD	11	8	[0, 0, 0]	n/a	FR1	1	R1234D
924.787	1.618	931594	WORD	n/a	wordpools/wordpool_EN.txt	CASH	12	8	[0, 0, 0]	n/a	FR1	1	R1234D
926.405	0.0	933212	WORD_OFF	n/a	n/a	CASH	12	8	[0, 0, 0]	n/a	FR1	1	R1234D
926.405	0.001	933212	DISTRACT_START	n/a	n/a	n/a	-999	8	[0, 0, 0]	n/a	FR1	1	R1234D
926.406	0.016	933213	START	n/a	n/a	n/a	-999	8	[-999, -999, -999]	n/a	FR1	1	R1234D
926.422	10.367	933229	PROB	10.367	n/a	n/a	-999	8	[7, 4, 6]	17	FR1	1	R1234D
936.789	4.535	943595	PROB	4.535	n/a	n/a	-999	8	[4, 2, 7]	13	FR1	1	R1234D
941.324	9.548	948130	PROB	9.548	n/a	n/a	-999	8	[8, 6, 9]	23	FR1	1	R1234D
950.872	0.02	957678	STOP	n/a	n/a	n/a	-999	8	[-999, -999, -999]	n/a	FR1	1	R1234D
950.892	0.534	957698	DISTRACT_END	n/a	n/a	n/a	-999	8	[0, 0, 0]	n/a	FR1	1	R1234D
951.426	0.517	958232	RETRIEVAL_ORIENT	n/a	n/a	n/a	-999	8	[0, 0, 0]	n/a	FR1	1	R1234D
951.943	2.365	958749	REC_START	n/a	n/a	n/a	-999	8	[0, 0, 0]	n/a	FR1	1	R1234D
954.308	0.205	961113	REC_WORD_VV	0.205	n/a	<>	-999	8	[0, 0, 0]	n/a	FR1	1	R1234D
954.513	0.698	961318	REC_WORD	0.698	n/a	CHIEF	-999	8	[0, 0, 0]	n/a	FR1	1	R1234D
955.211	1.42	962016	REC_WORD	1.42	n/a	CASH	-999	8	[0, 0, 0]	n/a	FR1	1	R1234D
956.631	2.457	963436	REC_WORD	2.457	n/a	TENT	-999	8	[0, 0, 0]	n/a	FR1	1	R1234D
959.088	22.865	965893	REC_WORD_VV	22.865	n/a	<>	-999	8	[0, 0, 0]	n/a	FR1	1	R1234D
981.953	4.463	988757	REC_END	n/a	n/a	n/a	-999	8	[0, 0, 0]	n/a	FR1	1	R1234D
986.416	0.5	993220	TRIAL	n/a	n/a	n/a	-999	9	[0, 0, 0]	n/a	FR1	1	R1234D
986.916	10.428	993720	COUNTDOWN_START	n/a	n/a	n/a	-999	9	[0, 0, 0]	n/a	FR1	1	R1234D
997.344	0.006	1004147	COUNTDOWN_END	n/a	n/a	n/a	-999	9	[0, 0, 0]	n/a	FR1	1	R1234D
997.35	1.617	1004153	ORIENT	n/a	n/a	n/a	-999	9	[0, 0, 0]	n/a	FR1	1	R1234D
998.967	2.084	1005770	ORIENT_OFF	n/a	n/a	n/a	-999	9	[0, 0, 0]	n/a	FR1	1	R1234D
1001.051	1.617	1007854	WORD	n/a	wordpools/wordpool_EN.txt	OAK	1	9	[0, 0, 0]	n/a	FR1	1	R1234D
1002.668	0.901	1009471	WORD_OFF	n/a	n/a	OAK	1	9	[0, 0, 0]	n/a	FR1	1	R1234D
1003.569	1.616	1010372	WORD	n/a	wordpools/wordpool_EN.txt	JEEP	2	9	[0, 0, 0]	n/a	FR1	1	R1234D
1005.185	0.8	1011988	WORD_OFF	n/a	n/a	JEEP	2	9	[0, 0, 0]	n/a	FR1	1	R1234D
1005.985	1.618	1012788	WORD	n/a	wordpools/wordpool_EN.txt	STEAM	3	9	[0, 0, 0]	n/a	FR1	1	R1234D
1007.603	0.934	1014405	WORD_OFF	n/a	n/a	STEAM	3	9	[0, 0, 0]	n/a	FR1	1	R1234D
1008.537	1.616	1015339	WORD	n/a	wordpools/wordpool_EN.txt	DRUM	4	9	[0, 0, 0]	n/a	FR1	1	R1234D
1010.153	0.983	1016955	WORD_OFF	n/a	n/a	DRUM	4	9	[0, 0, 0]	n/a	FR1	1	R1234D
1011.136	1.617	1017938	WORD	n/a	wordpools/wordpool_EN.txt	BRANCH	5	9	[0, 0, 0]	n/a	FR1	1	R1234D
1012.753	0.835	1019555	WORD_OFF	n/a	n/a	BRANCH	5	9	[0, 0, 0]	n/a	FR1	1	R1234D
1013.588	1.616	1020390	WORD	n/a	wordpools/wordpool_EN.txt	SLIME	6	9	[0, 0, 0]	n/a	FR1	1	R1234D
1015.204	0.883	1022006	WORD_OFF	n/a	n/a	SLIME	6	9	[0, 0, 0]	n/a	FR1	1	R1234D
1016.087	1.617	1022889	WORD	n/a	wordpools/wordpool_EN.txt	RAKE	7	9	[0, 0, 0]	n/a	FR1	1	R1234D
1017.704	0.935	1024506	WORD_OFF	n/a	n/a	RAKE	7	9	[0, 0, 0]	n/a	FR1	1	R1234D
1018.639	1.616	1025441	WORD	n/a	wordpools/wordpool_EN.txt	SOAP	8	9	[0, 0, 0]	n/a	FR1	1	R1234D
1020.255	0.783	1027057	WORD_OFF	n/a	n/a	SOAP	8	9	[0, 0, 0]	n/a	FR1	1	R1234D
1021.038	1.601	1027840	WORD	n/a	wordpools/wordpool_EN.txt	SHIRT	9	9	[0, 0, 0]	n/a	FR1	1	R1234D
1022.639	0.801	1029441	WORD_OFF	n/a	n/a	SHIRT	9	9	[0, 0, 0]	n/a	FR1	1	R1234D
1023.44	1.616	1030242	WORD	n/a	wordpools/wordpool_EN.txt	GOLD	10	9	[0, 0, 0]	n/a	FR1	1	R1234D
1025.056	0.799	1031858	WORD_OFF	n/a	n/a	GOLD	10	9	[0, 0, 0]	n/a	FR1	1	R1234D
1025.855	1.619	1032656	WORD	n/a	wordpools/wordpool_EN.txt	SHEET	11	9	[0, 0, 0]	n/a	FR1	1	R1234D
1027.474	0.849	1034275	WORD_OFF	n/a	n/a	SHEET	11	9	[0, 0, 0]	n/a	FR1	1	R1234D
1028.323	1.617	1035124	WORD	n/a	wordpools/wordpool_EN.txt	BAG	12	9	[0, 0, 0]	n/a	FR1	1	R1234D
1029.94	0.0	1036741	WORD_OFF	n/a	n/a	BAG	12	9	[0, 0, 0]	n/a	FR1	1	R1234D
1029.94	0.0	1036741	DISTRACT_START	n/a	n/a	n/a	-999	9	[0, 0, 0]	n/a	FR1	1	R1234D
1029.94	0.016	1036741	START	n/a	n/a	n/a	-999	9	[-999, -999, -999]	n/a	FR1	1	R1234D
1029.956	10.169	1036757	PROB	10.169	n/a	n/a	-999	9	[6, 6, 4]	16	FR1	1	R1234D
1040.125	7.985	1046926	PROB	7.985	n/a	n/a	-999	9	[6, 3, 9]	17	FR1	1	R1234D
1048.11	4.754	1054910	PROB	4.754	n/a	n/a	-999	9	[2, 2, 8]	12	FR1	1	R1234D
1052.864	0.013	1059664	STOP	n/a	n/a	n/a	-999	9	[-999, -999, -999]	n/a	FR1	1	R1234D
1052.877	0.551	1059677	DISTRACT_END	n/a	n/a	n/a	-999	9	[0, 0, 0]	n/a	FR1	1	R1234D
1053.428	0.517	1060228	RETRIEVAL_ORIENT	n/a	n/a	n/a	-999	9	[0, 0, 0]	n/a	FR1	1	R1234D
1053.945	1.877	1060745	REC_START	n/a	n/a	n/a	-999	9	[0, 0, 0]	n/a	FR1	1	R1234D
1055.822	3.008	1062622	REC_WORD_VV	3.008	n/a	<>	-999	9	[0, 0, 0]	n/a	FR1	1	R1234D
1058.83	9.856	1065630	REC_WORD_VV	9.856	n/a	<>	-999	9	[0, 0, 0]	n/a	FR1	1	R1234D
1068.686	3.594	1075485	REC_WORD_VV	3.594	n/a	<>	-999	9	[0, 0, 0]	n/a	FR1	1	R1234D
1072.28	11.676	1079079	REC_WORD_VV	11.676	n/a	<>	-999	9	[0, 0, 0]	n/a	FR1	1	R1234D
1083.956	4.529	1090754	REC_END	n/a	n/a	n/a	-999	9	[0, 0, 0]	n/a	FR1	1	R1234D
1088.485	0.5	1095283	TRIAL	n/a	n/a	n/a	-999	10	[0, 0, 0]	n/a	FR1	1	R1234D
1088.985	10.428	1095783	COUNTDOWN_START	n/a	n/a	n/a	-999	10	[0, 0, 0]	n/a	FR1	1	R1234D
1099.413	0.007	1106210	COUNTDOWN_END	n/a	n/a	n/a	-999	10	[0, 0, 0]	n/a	FR1	1	R1234D
1099.42	1.616	1106217	ORIENT	n/a	n/a	n/a	-999	10	[0, 0, 0]	n/a	FR1	1	R1234D
1101.036	2.201	1107833	ORIENT_OFF	n/a	n/a	n/a	-999	10	[0, 0, 0]	n/a	FR1	1	R1234D
1103.237	1.617	1110034	WORD	n/a	wordpools/wordpool_EN.txt	NEST	1	10	[0, 0, 0]	n/a	FR1	1	R1234D
1104.854	0.983	1111651	WORD_OFF	n/a	n/a	NEST	1	10	[0, 0, 0]	n/a	FR1	1	R1234D
1105.837	1.601	1112634	WORD	n/a	wordpools/wordpool_EN.txt	SHEEP	2	10	[0, 0, 0]	n/a	FR1	1	R1234D
1107.438	0.9	1114235	WORD_OFF	n/a	n/a	SHEEP	2	10	[0, 0, 0]	n/a	FR1	1	R1234D
1108.338	1.616	1115135	WORD	n/a	wordpools/wordpool_EN.txt	SNAKE	3	10	[0, 0, 0]	n/a	FR1	1	R1234D
1109.954	0.851	1116751	WORD_OFF	n/a	n/a	SNAKE	3	10	[0, 0, 0]	n/a	FR1	1	R1234D
1110.805	1.618	1117602	WORD	n/a	wordpools/wordpool_EN.txt	PEAR	4	10	[0, 0, 0]	n/a	FR1	1	R1234D
1112.423	0.949	1119220	WORD_OFF	n/a	n/a	PEAR	4	10	[0, 0, 0]	n/a	FR1	1	R1234D
1113.372	1.617	1120169	WORD	n/a	wordpools/wordpool_EN.txt	BLOOM	5	10	[0, 0, 0]	n/a	FR1	1	R1234D
1114.989	0.867	1121786	WORD_OFF	n/a	n/a	BLOOM	5	10	[0, 0, 0]	n/a	FR1	1	R1234D
1115.856	1.618	1122652	WORD	n/a	wordpools/wordpool_EN.txt	SUN	6	10	[0, 0, 0]	n/a	FR1	1	R1234D
1117.474	0.882	1124270	WORD_OFF	n/a	n/a	SUN	6	10	[0, 0, 0]	n/a	FR1	1	R1234D
1118.356	1.617	1125152	WORD	n/a	wordpools/wordpool_EN.txt	BALL	7	10	[0, 0, 0]	n/a	FR1	1	R1234D
1119.973	0.833	1126769	WORD_OFF	n/a	n/a	BALL	7	10	[0, 0, 0]	n/a	FR1	1	R1234D
1120.806	1.601	1127602	WORD	n/a	wordpools/wordpool_EN.txt	WING	8	10	[0, 0, 0]	n/a	FR1	1	R1234D
1122.407	0.917	1129203	WORD_OFF	n/a	n/a	WING	8	10	[0, 0, 0]	n/a	FR1	1	R1234D
1123.324	1.617	1130120	WORD	n/a	wordpools/wordpool_EN.txt	WHALE	9	10	[0, 0, 0]	n/a	FR1	1	R1234D
1124.941	0.916	1131737	WORD_OFF	n/a	n/a	WHALE	9	10	[0, 0, 0]	n/a	FR1	1	R1234D
1125.857	1.618	1132653	WORD	n/a	wordpools/wordpool_EN.txt	FRUIT	10	10	[0, 0, 0]	n/a	FR1	1	R1234D
1127.475	0.816	1134271	WORD_OFF	n/a	n/a	FRUIT	10	10	[0, 0, 0]	n/a	FR1	1	R1234D
1128.291	1.617	1135087	WORD	n/a	wordpools/wordpool_EN.txt	GEESE	11	10	[0, 0, 0]	n/a	FR1	1	R1234D
1129.908	0.967	1136704	WORD_OFF	n/a	n/a	GEESE	11	10	[0, 0, 0]	n/a	FR1	1	R1234D
1130.875	1.601	1137671	WORD	n/a	wordpools/wordpool_EN.txt	LAWN	12	10	[0, 0, 0]	n/a	FR1	1	R1234D
1132.476	0.0	1139272	WORD_OFF	n/a	n/a	LAWN	12	10	[0, 0, 0]	n/a	FR1	1	R1234D
1132.476	0.001	1139272	DISTRACT_START	n/a	n/a	n/a	-999	10	[0, 0, 0]	n/a	FR1	1	R1234D
1132.477	0.016	1139273	START	n/a	n/a	n/a	-999	10	[-999, -999, -999]	n/a	FR1	1	R1234D
1132.493	6.25	1139289	PROB	6.25	n/a	n/a	-999	10	[7, 2, 2]	11	FR1	1	R1234D
1138.743	8.452	1145538	PROB	8.452	n/a	n/a	-999	10	[7, 8, 7]	22	FR1	1	R1234D
1147.195	8.581	1153990	PROB	8.581	n/a	n/a	-999	10	[1, 8, 9]	18	FR1	1	R1234D
1155.776	0.02	1162570	STOP	n/a	n/a	n/a	-999	10	[-999, -999, -999]	n/a	FR1	1	R1234D
1155.796	0.567	1162590	DISTRACT_END	n/a	n/a	n/a	-999	10	[0, 0, 0]	n/a	FR1	1	R1234D
1156.363	0.517	1163157	RETRIEVAL_ORIENT	n/a	n/a	n/a	-999	10	[0, 0, 0]	n/a	FR1	1	R1234D
1156.88	1.555	1163674	REC_START	n/a	n/a	n/a	-999	10	[0, 0, 0]	n/a	FR1	1	R1234D
1158.435	0.17	1165229	REC_WORD_VV	0.17	n/a	<>	-999	10	[0, 0, 0]	n/a	FR1	1	R1234D
1158.605	1.049	1165399	REC_WORD	1.049	n/a	SUN	-999	10	[0, 0, 0]	n/a	FR1	1	R1234D
1159.654	5.019	1166448	REC_WORD	5.019	n/a	WHALE	-999	10	[0, 0, 0]	n/a	FR1	1	R1234D
1164.673	0.321	1171467	REC_WORD_VV	0.321	n/a	<>	-999	10	[0, 0, 0]	n/a	FR1	1	R1234D
1164.994	5.302	1171788	REC_WORD	5.302	n/a	BEACH	-999	10	[0, 0, 0]	n/a	FR1	1	R1234D
1170.296	8.648	1177089	REC_WORD_VV	8.648	n/a	<>	-999	10	[0, 0, 0]	n/a	FR1	1	R1234D
1178.944	7.947	1185737	REC_WORD_VV	7.947	n/a	<>	-999	10	[0, 0, 0]	n/a	FR1	1	R1234D
1186.891	4.195	1193684	REC_END	n/a	n/a	n/a	-999	10	[0, 0, 0]	n/a	FR1	1	R1234D
1191.086	0.5	1197878	TRIAL	n/a	n/a	n/a	-999	11	[0, 0, 0]	n/a	FR1	1	R1234D
1191.586	10.428	1198378	COUNTDOWN_START	n/a	n/a	n/a	-999	11	[0, 0, 0]	n/a	FR1	1	R1234D
1202.014	0.007	1208806	COUNTDOWN_END	n/a	n/a	n/a	-999	11	[0, 0, 0]	n/a	FR1	1	R1234D
1202.021	1.601	1208813	ORIENT	n/a	n/a	n/a	-999	11	[0, 0, 0]	n/a	FR1	1	R1234D
1203.622	1.984	1210414	ORIENT_OFF	n/a	n/a	n/a	-999	11	[0, 0, 0]	n/a	FR1	1	R1234D
1205.606	1.616	1212397	WORD	n/a	wordpools/wordpool_EN.txt	PLANE	1	11	[0, 0, 0]	n/a	FR1	1	R1234D
1207.222	1.001	1214013	WORD_OFF	n/a	n/a	PLANE	1	11	[0, 0, 0]	n/a	FR1	1	R1234D
1208.223	1.616	1215014	WORD	n/a	wordpools/wordpool_EN.txt	CLAY	2	11	[0, 0, 0]	n/a	FR1	1	R1234D
1209.839	0.851	1216630	WORD_OFF	n/a	n/a	CLAY	2	11	[0, 0, 0]	n/a	FR1	1	R1234D
1210.69	1.617	1217481	WORD	n/a	wordpools/wordpool_EN.txt	FLAG	3	11	[0, 0, 0]	n/a	FR1	1	R1234D
1212.307	1.0	1219098	WORD_OFF	n/a	n/a	FLAG	3	11	[0, 0, 0]	n/a	FR1	1	R1234D
1213.307	1.617	1220098	WORD	n/a	wordpools/wordpool_EN.txt	TAIL	4	11	[0, 0, 0]	n/a	FR1	1	R1234D
1214.924	0.833	1221715	WORD_OFF	n/a	n/a	TAIL	4	11	[0, 0, 0]	n/a	FR1	1	R1234D
1215.757	1.617	1222548	WORD	n/a	wordpools/wordpool_EN.txt	ELF	5	11	[0, 0, 0]	n/a	FR1	1	R1234D
1217.374	0.834	1224165	WORD_OFF	n/a	n/a	ELF	5	11	[0, 0, 0]	n/a	FR1	1	R1234D
1218.208	1.617	1224999	WORD	n/a	wordpools/wordpool_EN.txt	DITCH	6	11	[0, 0, 0]	n/a	FR1	1	R1234D
1219.825	0.983	1226616	WORD_OFF	n/a	n/a	DITCH	6	11	[0, 0, 0]	n/a	FR1	1	R1234D
1220.808	1.618	1227599	WORD	n/a	wordpools/wordpool_EN.txt	TREE	7	11	[0, 0, 0]	n/a	FR1	1	R1234D
1222.426	0.816	1229217	WORD_OFF	n/a	n/a	TREE	7	11	[0, 0, 0]	n/a	FR1	1	R1234D
1223.242	1.617	1230032	WORD	n/a	wordpools/wordpool_EN.txt	SQUARE	8	11	[0, 0, 0]	n/a	FR1	1	R1234D
1224.859	0.934	1231649	WORD_OFF	n/a	n/a	SQUARE	8	11	[0, 0, 0]	n/a	FR1	1	R1234D
1225.793	1.617	1232583	WORD	n/a	wordpools/wordpool_EN.txt	FLOOR	9	11	[0, 0, 0]	n/a	FR1	1	R1234D
1227.41	0.783	1234200	WORD_OFF	n/a	n/a	FLOOR	9	11	[0, 0, 0]	n/a	FR1	1	R1234D
1228.193	1.617	1234983	WORD	n/a	wordpools/wordpool_EN.txt	JUDGE	10	11	[0, 0, 0]	n/a	FR1	1	R1234D
1229.81	0.867	1236600	WORD_OFF	n/a	n/a	JUDGE	10	11	[0, 0, 0]	n/a	FR1	1	R1234D
1230.677	1.617	1237467	WORD	n/a	wordpools/wordpool_EN.txt	TRUCK	11	11	[0, 0, 0]	n/a	FR1	1	R1234D
1232.294	0.767	1239084	WORD_OFF	n/a	n/a	TRUCK	11	11	[0, 0, 0]	n/a	FR1	1	R1234D
1233.061	1.616	1239851	WORD	n/a	wordpools/wordpool_EN.txt	FOX	12	11	[0, 0, 0]	n/a	FR1	1	R1234D
1234.677	0.0	1241467	WORD_OFF	n/a	n/a	FOX	12	11	[0, 0, 0]	n/a	FR1	1	R1234D
1234.677	0.001	1241467	DISTRACT_START	n/a	n/a	n/a	-999	11	[0, 0, 0]	n/a	FR1	1	R1234D
1234.678	0.016	1241468	START	n/a	n/a	n/a	-999	11	[-999, -999, -999]	n/a	FR1	1	R1234D
1234.694	3.534	1241484	PROB	3.534	n/a	n/a	-999	11	[5, 5, 4]	14	FR1	1	R1234D
1238.228	20.749	1245018	PROB	20.749	n/a	n/a	-999	11	[9, 7, 6]	22	FR1	1	R1234D
1258.977	0.022	1265765	STOP	n/a	n/a	n/a	-999	11	[-999, -999, -999]	n/a	FR1	1	R1234D
1258.999	0.601	1265787	DISTRACT_END	n/a	n/a	n/a	-999	11	[0, 0, 0]	n/a	FR1	1	R1234D
1259.6	0.516	1266388	RETRIEVAL_ORIENT	n/a	n/a	n/a	-999	11	[0, 0, 0]	n/a	FR1	1	R1234D
1260.116	1.195	1266904	REC_START	n/a	n/a	n/a	-999	11	[0, 0, 0]	n/a	FR1	1	R1234D
1261.311	0.245	1268099	REC_WORD_VV	0.245	n/a	<>	-999	11	[0, 0, 0]	n/a	FR1	1	R1234D
1261.556	0.54	1268344	REC_WORD	0.54	n/a	DITCH	-999	11	[0, 0, 0]	n/a	FR1	1	R1234D
1262.096	2.537	1268884	REC_WORD	2.537	n/a	TREE	-999	11	[0, 0, 0]	n/a	FR1	1	R1234D
1264.633	9.139	1271421	REC_WORD	9.139	n/a	TRUCK	-999	11	[0, 0, 0]	n/a	FR1	1	R1234D
1273.772	2.278	1280560	REC_WORD_VV	2.278	n/a	<>	-999	11	[0, 0, 0]	n/a	FR1	1	R1234D
1276.05	14.075	1282838	REC_WORD	14.075	n/a	LAWN	-999	11	[0, 0, 0]	n/a	FR1	1	R1234D
1290.125	5.014	1296912	REC_END	n/a	n/a	n/a	-999	11	[0, 0, 0]	n/a	FR1	1	R1234D
1295.139	0.5	1301925	TRIAL	n/a	n/a	n/a	-999	12	[0, 0, 0]	n/a	FR1	1	R1234D
1295.639	10.428	1302425	COUNTDOWN_START	n/a	n/a	n/a	-999	12	[0, 0, 0]	n/a	FR1	1	R1234D
1306.067	0.007	1312853	COUNTDOWN_END	n/a	n/a	n/a	-999	12	[0, 0, 0]	n/a	FR1	1	R1234D
1306.074	1.617	1312860	ORIENT	n/a	n/a	n/a	-999	12	[0, 0, 0]	n/a	FR1	1	R1234D
1307.691	2.167	1314477	ORIENT_OFF	n/a	n/a	n/a	-999	12	[0, 0, 0]	n/a	FR1	1	R1234D
1309.858	1.618	1316644	WORD	n/a	wordpools/wordpool_EN.txt	BOWL	1	12	[0, 0, 0]	n/a	FR1	1	R1234D
1311.476	1.0	1318262	WORD_OFF	n/a	n/a	BOWL	1	12	[0, 0, 0]	n/a	FR1	1	R1234D
1312.476	1.616	1319262	WORD	n/a	wordpools/wordpool_EN.txt	GLASS	2	12	[0, 0, 0]	n/a	FR1	1	R1234D
1314.092	0.817	1320877	WORD_OFF	n/a	n/a	GLASS	2	12	[0, 0, 0]	n/a	FR1	1	R1234D
1314.909	1.618	1321694	WORD	n/a	wordpools/wordpool_EN.txt	BENCH	3	12	[0, 0, 0]	n/a	FR1	1	R1234D
1316.527	0.765	1323312	WORD_OFF	n/a	n/a	BENCH	3	12	[0, 0, 0]	n/a	FR1	1	R1234D
1317.292	1.618	1324077	WORD	n/a	wordpools/wordpool_EN.txt	HILL	4	12	[0, 0, 0]	n/a	FR1	1	R1234D
1318.91	0.916	1325695	WORD_OFF	n/a	n/a	HILL	4	12	[0, 0, 0]	n/a	FR1	1	R1234D
1319.826	1.601	1326611	WORD	n/a	wordpools/wordpool_EN.txt	LEG	5	12	[0, 0, 0]	n/a	FR1	1	R1234D
1321.427	0.817	1328212	WORD_OFF	n/a	n/a	LEG	5	12	[0, 0, 0]	n/a	FR1	1	R1234D
1322.244	1.617	1329029	WORD	n/a	wordpools/wordpool_EN.txt	MUD	6	12	[0, 0, 0]	n/a	FR1	1	R1234D
1323.861	0.883	1330646	WORD_OFF	n/a	n/a	MUD	6	12	[0, 0, 0]	n/a	FR1	1	R1234D
1324.744	1.617	1331529	WORD	n/a	wordpools/wordpool_EN.txt	WORM	7	12	[0, 0, 0]	n/a	FR1	1	R1234D
1326.361	0.85	1333146	WORD_OFF	n/a	n/a	WORM	7	12	[0, 0, 0]	n/a	FR1	1	R1234D
1327.211	1.617	1333996	WORD	n/a	wordpools/wordpool_EN.txt	NOSE	8	12	[0, 0, 0]	n/a	FR1	1	R1234D
1328.828	0.95	1335613	WORD_OFF	n/a	n/a	NOSE	8	12	[0, 0, 0]	n/a	FR1	1	R1234D
1329.778	1.617	1336563	WORD	n/a	wordpools/wordpool_EN.txt	SHARK	9	12	[0, 0, 0]	n/a	FR1	1	R1234D
1331.395	0.884	1338179	WORD_OFF	n/a	n/a	SHARK	9	12	[0, 0, 0]	n/a	FR1	1	R1234D
1332.279	1.617	1339063	WORD	n/a	wordpools/wordpool_EN.txt	FACE	10	12	[0, 0, 0]	n/a	FR1	1	R1234D
1333.896	0.85	1340680	WORD_OFF	n/a	n/a	FACE	10	12	[0, 0, 0]	n/a	FR1	1	R1234D
1334.746	1.617	1341530	WORD	n/a	wordpools/wordpool_EN.txt	BED	11	12	[0, 0, 0]	n/a	FR1	1	R1234D
1336.363	0.867	1343147	WORD_OFF	n/a	n/a	BED	11	12	[0, 0, 0]	n/a	FR1	1	R1234D
1337.23	1.617	1344014	WORD	n/a	wordpools/wordpool_EN.txt	FOOD	12	12	[0, 0, 0]	n/a	FR1	1	R1234D
1338.847	0.0	1345631	WORD_OFF	n/a	n/a	FOOD	12	12	[0, 0, 0]	n/a	FR1	1	R1234D
1338.847	0.0	1345631	DISTRACT_START	n/a	n/a	n/a	-999	12	[0, 0, 0]	n/a	FR1	1	R1234D
1338.847	0.016	1345631	START	n/a	n/a	n/a	-999	12	[-999, -999, -999]	n/a	FR1	1	R1234D
1338.863	14.47	1345647	PROB	14.47	n/a	n/a	-999	12	[7, 5, 1]	13	FR1	1	R1234D
1353.333	3.4	1360116	PROB	3.4	n/a	n/a	-999	12	[4, 5, 5]	14	FR1	1	R1234D
1356.733	8.765	1363516	PROB	8.765	n/a	n/a	-999	12	[2, 3, 6]	11	FR1	1	R1234D
1365.498	0.021	1372281	STOP	n/a	n/a	n/a	-999	12	[-999, -999, -999]	n/a	FR1	1	R1234D
1365.519	0.566	1372302	DISTRACT_END	n/a	n/a	n/a	-999	12	[0, 0, 0]	n/a	FR1	1	R1234D
1366.085	0.518	1372868	RETRIEVAL_ORIENT	n/a	n/a	n/a	-999	12	[0, 0, 0]	n/a	FR1	1	R1234D
1366.603	1.718	1373385	REC_START	n/a	n/a	n/a	-999	12	[0, 0, 0]	n/a	FR1	1	R1234D
1368.321	1.917	1375103	REC_WORD_VV	1.917	n/a	<>	-999	12	[0, 0, 0]	n/a	FR1	1	R1234D
1370.238	0.423	1377020	REC_WORD	0.423	n/a	BENCH	-999	12	[0, 0, 0]	n/a	FR1	1	R1234D
1370.661	3.214	1377443	REC_WORD	3.214	n/a	HILL	-999	12	[0, 0, 0]	n/a	FR1	1	R1234D
1373.875	0.508	1380657	REC_WORD	0.508	n/a	BENCH	-999	12	[0, 0, 0]	n/a	FR1	1	R1234D
1374.383	11.82	1381165	REC_WORD	11.82	n/a	HILL	-999	12	[0, 0, 0]	n/a	FR1	1	R1234D
1386.203	10.411	1392984	REC_WORD	10.411	n/a	MUD	-999	12	[0, 0, 0]	n/a	FR1	1	R1234D
1396.614	5.277	1403395	REC_END	n/a	n/a	n/a	-999	12	[0, 0, 0]	n/a	FR1	1	R1234D
1401.891	0.5	1408672	TRIAL	n/a	n/a	n/a	-999	13	[0, 0, 0]	n/a	FR1	1	R1234D
1402.391	10.428	1409172	COUNTDOWN_START	n/a	n/a	n/a	-999	13	[0, 0, 0]	n/a	FR1	1	R1234D
1412.819	0.008	1419599	COUNTDOWN_END	n/a	n/a	n/a	-999	13	[0, 0, 0]	n/a	FR1	1	R1234D
1412.827	1.618	1419607	ORIENT	n/a	n/a	n/a	-999	13	[0, 0, 0]	n/a	FR1	1	R1234D
1414.445	2.117	1421225	ORIENT_OFF	n/a	n/a	n/a	-999	13	[0, 0, 0]	n/a	FR1	1	R1234D
1416.562	1.616	1423342	WORD	n/a	wordpools/wordpool_EN.txt	TOAD	1	13	[0, 0, 0]	n/a	FR1	1	R1234D
1418.178	0.833	1424958	WORD_OFF	n/a	n/a	TOAD	1	13	[0, 0, 0]	n/a	FR1	1	R1234D
1419.011	1.618	1425791	WORD	n/a	wordpools/wordpool_EN.txt	CROW	2	13	[0, 0, 0]	n/a	FR1	1	R1234D
1420.629	0.834	1427408	WORD_OFF	n/a	n/a	CROW	2	13	[0, 0, 0]	n/a	FR1	1	R1234D
1421.463	1.616	1428242	WORD	n/a	wordpools/wordpool_EN.txt	FLUTE	3	13	[0, 0, 0]	n/a	FR1	1	R1234D
1423.079	0.766	1429858	WORD_OFF	n/a	n/a	FLUTE	3	13	[0, 0, 0]	n/a	FR1	1	R1234D
1423.845	1.618	1430624	WORD	n/a	wordpools/wordpool_EN.txt	BAT	4	13	[0, 0, 0]	n/a	FR1	1	R1234D
1425.463	0.833	1432242	WORD_OFF	n/a	n/a	BAT	4	13	[0, 0, 0]	n/a	FR1	1	R1234D
1426.296	1.617	1433075	WORD	n/a	wordpools/wordpool_EN.txt	GOAT	5	13	[0, 0, 0]	n/a	FR1	1	R1234D
1427.913	0.833	1434692	WORD_OFF	n/a	n/a	GOAT	5	13	[0, 0, 0]	n/a	FR1	1	R1234D
1428.746	1.601	1435525	WORD	n/a	wordpools/wordpool_EN.txt	DOLL	6	13	[0, 0, 0]	n/a	FR1	1	R1234D
1430.347	0.883	1437126	WORD_OFF	n/a	n/a	DOLL	6	13	[0, 0, 0]	n/a	FR1	1	R1234D
1431.23	1.617	1438009	WORD	n/a	wordpools/wordpool_EN.txt	SPEAR	7	13	[0, 0, 0]	n/a	FR1	1	R1234D
1432.847	0.917	1439626	WORD_OFF	n/a	n/a	SPEAR	7	13	[0, 0, 0]	n/a	FR1	1	R1234D
1433.764	1.617	1440543	WORD	n/a	wordpools/wordpool_EN.txt	BOOT	8	13	[0, 0, 0]	n/a	FR1	1	R1234D
1435.381	0.867	1442160	WORD_OFF	n/a	n/a	BOOT	8	13	[0, 0, 0]	n/a	FR1	1	R1234D
1436.248	1.617	1443027	WORD	n/a	wordpools/wordpool_EN.txt	FORK	9	13	[0, 0, 0]	n/a	FR1	1	R1234D
1437.865	0.9	1444644	WORD_OFF	n/a	n/a	FORK	9	13	[0, 0, 0]	n/a	FR1	1	R1234D
1438.765	1.617	1445543	WORD	n/a	wordpools/wordpool_EN.txt	FAN	10	13	[0, 0, 0]	n/a	FR1	1	R1234D
1440.382	0.85	1447160	WORD_OFF	n/a	n/a	FAN	10	13	[0, 0, 0]	n/a	FR1	1	R1234D
1441.232	1.617	1448010	WORD	n/a	wordpools/wordpool_EN.txt	LAMB	11	13	[0, 0, 0]	n/a	FR1	1	R1234D
1442.849	0.95	1449627	WORD_OFF	n/a	n/a	LAMB	11	13	[0, 0, 0]	n/a	FR1	1	R1234D
1443.799	1.618	1450577	WORD	n/a	wordpools/wordpool_EN.txt	LIP	12	13	[0, 0, 0]	n/a	FR1	1	R1234D
1445.417	0.0	1452195	DISTRACT_START	n/a	n/a	n/a	-999	13	[0, 0, 0]	n/a	FR1	1	R1234D
1445.417	0.001	1452195	WORD_OFF	n/a	n/a	LIP	12	13	[0, 0, 0]	n/a	FR1	1	R1234D
1445.418	0.016	1452196	START	n/a	n/a	n/a	-999	13	[-999, -999, -999]	n/a	FR1	1	R1234D
1445.434	7.884	1452212	PROB	7.884	n/a	n/a	-999	13	[3, 7, 5]	15	FR1	1	R1234D
1453.318	4.567	1460096	PROB	4.567	n/a	n/a	-999	13	[1, 8, 4]	13	FR1	1	R1234D
1457.885	6.118	1464662	PROB	6.118	n/a	n/a	-999	13	[8, 3, 4]	15	FR1	1	R1234D
1464.003	6.021	1470780	PROB	6.021	n/a	n/a	-999	13	[6, 6, 3]	15	FR1	1	R1234D
1470.024	0.013	1476801	STOP	n/a	n/a	n/a	-999	13	[-999, -999, -999]	n/a	FR1	1	R1234D
1470.037	0.701	1476814	DISTRACT_END	n/a	n/a	n/a	-999	13	[0, 0, 0]	n/a	FR1	1	R1234D
1470.738	0.517	1477515	RETRIEVAL_ORIENT	n/a	n/a	n/a	-999	13	[0, 0, 0]	n/a	FR1	1	R1234D
1471.255	3.006	1478032	REC_START	n/a	n/a	n/a	-999	13	[0, 0, 0]	n/a	FR1	1	R1234D
1474.261	1.084	1481038	REC_WORD	1.084	n/a	TOAD	-999	13	[0, 0, 0]	n/a	FR1	1	R1234D
1475.345	25.921	1482121	REC_WORD	25.921	n/a	SPEAR	-999	13	[0, 0, 0]	n/a	FR1	1	R1234D
1501.266	4.411	1508041	REC_END	n/a	n/a	n/a	-999	13	[0, 0, 0]	n/a	FR1	1	R1234D
1505.677	0.5	1512452	TRIAL	n/a	n/a	n/a	-999	14	[0, 0, 0]	n/a	FR1	1	R1234D
1506.177	10.428	1512952	COUNTDOWN_START	n/a	n/a	n/a	-999	14	[0, 0, 0]	n/a	FR1	1	R1234D
1516.605	0.009	1523379	COUNTDOWN_END	n/a	n/a	n/a	-999	14	[0, 0, 0]	n/a	FR1	1	R1234D
1516.614	1.616	1523388	ORIENT	n/a	n/a	n/a	-999	14	[0, 0, 0]	n/a	FR1	1	R1234D
1518.23	2.218	1525004	ORIENT_OFF	n/a	n/a	n/a	-999	14	[0, 0, 0]	n/a	FR1	1	R1234D
1520.448	1.616	1527222	WORD	n/a	wordpools/wordpool_EN.txt	CHAIR	1	14	[0, 0, 0]	n/a	FR1	1	R1234D
1522.064	0.816	1528838	WORD_OFF	n/a	n/a	CHAIR	1	14	[0, 0, 0]	n/a	FR1	1	R1234D
1522.88	1.601	1529654	WORD	n/a	wordpools/wordpool_EN.txt	DUCK	2	14	[0, 0, 0]	n/a	FR1	1	R1234D
1524.481	0.918	1531255	WORD_OFF	n/a	n/a	DUCK	2	14	[0, 0, 0]	n/a	FR1	1	R1234D
1525.399	1.616	1532173	WORD	n/a	wordpools/wordpool_EN.txt	CAGE	3	14	[0, 0, 0]	n/a	FR1	1	R1234D
1527.015	0.95	1533789	WORD_OFF	n/a	n/a	CAGE	3	14	[0, 0, 0]	n/a	FR1	1	R1234D
1527.965	1.618	1534739	WORD	n/a	wordpools/wordpool_EN.txt	TRAY	4	14	[0, 0, 0]	n/a	FR1	1	R1234D
1529.583	0.933	1536356	WORD_OFF	n/a	n/a	TRAY	4	14	[0, 0, 0]	n/a	FR1	1	R1234D
1530.516	1.616	1537289	WORD	n/a	wordpools/wordpool_EN.txt	PALM	5	14	[0, 0, 0]	n/a	FR1	1	R1234D
1532.132	0.984	1538905	WORD_OFF	n/a	n/a	PALM	5	14	[0, 0, 0]	n/a	FR1	1	R1234D
1533.116	1.617	1539889	WORD	n/a	wordpools/wordpool_EN.txt	CUP	6	14	[0, 0, 0]	n/a	FR1	1	R1234D
1534.733	0.966	1541506	WORD_OFF	n/a	n/a	CUP	6	14	[0, 0, 0]	n/a	FR1	1	R1234D
1535.699	1.617	1542472	WORD	n/a	wordpools/wordpool_EN.txt	BRUSH	7	14	[0, 0, 0]	n/a	FR1	1	R1234D
1537.316	0.901	1544089	WORD_OFF	n/a	n/a	BRUSH	7	14	[0, 0, 0]	n/a	FR1	1	R1234D
1538.217	1.617	1544990	WORD	n/a	wordpools/wordpool_EN.txt	PIN	8	14	[0, 0, 0]	n/a	FR1	1	R1234D
1539.834	0.784	1546607	WORD_OFF	n/a	n/a	PIN	8	14	[0, 0, 0]	n/a	FR1	1	R1234D
1540.618	1.616	1547391	WORD	n/a	wordpools/wordpool_EN.txt	SINK	9	14	[0, 0, 0]	n/a	FR1	1	R1234D
1542.234	0.934	1549007	WORD_OFF	n/a	n/a	SINK	9	14	[0, 0, 0]	n/a	FR1	1	R1234D
1543.168	1.616	1549941	WORD	n/a	wordpools/wordpool_EN.txt	SMILE	10	14	[0, 0, 0]	n/a	FR1	1	R1234D
1544.784	0.901	1551557	WORD_OFF	n/a	n/a	SMILE	10	14	[0, 0, 0]	n/a	FR1	1	R1234D
1545.685	1.617	1552458	WORD	n/a	wordpools/wordpool_EN.txt	BAND	11	14	[0, 0, 0]	n/a	FR1	1	R1234D
1547.302	0.8	1554074	WORD_OFF	n/a	n/a	BAND	11	14	[0, 0, 0]	n/a	FR1	1	R1234D
1548.102	1.617	1554874	WORD	n/a	wordpools/wordpool_EN.txt	RIB	12	14	[0, 0, 0]	n/a	FR1	1	R1234D
1549.719	0.0	1556491	WORD_OFF	n/a	n/a	RIB	12	14	[0, 0, 0]	n/a	FR1	1	R1234D
1549.719	0.0	1556491	DISTRACT_START	n/a	n/a	n/a	-999	14	[0, 0, 0]	n/a	FR1	1	R1234D
1549.719	0.016	1556491	START	n/a	n/a	n/a	-999	14	[-999, -999, -999]	n/a	FR1	1	R1234D
1549.735	10.336	1556507	PROB	10.336	n/a	n/a	-999	14	[9, 9, 7]	26	FR1	1	R1234D
1560.071	7.184	1566843	PROB	7.184	n/a	n/a	-999	14	[3, 5, 9]	17	FR1	1	R1234D
1567.255	9.064	1574026	PROB	9.064	n/a	n/a	-999	14	[2, 6, 5]	13	FR1	1	R1234D
1576.319	0.021	1583090	STOP	n/a	n/a	n/a	-999	14	[-999, -999, -999]	n/a	FR1	1	R1234D
1576.34	0.567	1583111	DISTRACT_END	n/a	n/a	n/a	-999	14	[0, 0, 0]	n/a	FR1	1	R1234D
1576.907	0.518	1583678	RETRIEVAL_ORIENT	n/a	n/a	n/a	-999	14	[0, 0, 0]	n/a	FR1	1	R1234D
1577.425	2.52	1584196	REC_START	n/a	n/a	n/a	-999	14	[0, 0, 0]	n/a	FR1	1	R1234D
1579.945	0.523	1586716	REC_WORD_VV	0.523	n/a	<>	-999	14	[0, 0, 0]	n/a	FR1	1	R1234D
1580.468	4.183	1587239	REC_WORD	4.183	n/a	DUCK	-999	14	[0, 0, 0]	n/a	FR1	1	R1234D
1584.651	3.383	1591421	REC_WORD_VV	3.383	n/a	<>	-999	14	[0, 0, 0]	n/a	FR1	1	R1234D
1588.034	2.409	1594804	REC_WORD	2.409	n/a	DUCK	-999	14	[0, 0, 0]	n/a	FR1	1	R1234D
1590.443	8.149	1597213	REC_WORD_VV	8.149	n/a	<>	-999	14	[0, 0, 0]	n/a	FR1	1	R1234D
1598.592	0.357	1605362	REC_WORD_VV	0.357	n/a	<>	-999	14	[0, 0, 0]	n/a	FR1	1	R1234D
1598.949	8.486	1605719	REC_WORD	8.486	n/a	HAND	-999	14	[0, 0, 0]	n/a	FR1	1	R1234D
1607.435	61.772	1614204	REC_END	n/a	n/a	n/a	-999	14	[0, 0, 0]	n/a	FR1	1	R1234D
1669.207	0.5	1675973	TRIAL	n/a	n/a	n/a	-999	15	[0, 0, 0]	n/a	FR1	1	R1234D
1669.707	10.428	1676473	COUNTDOWN_START	n/a	n/a	n/a	-999	15	[0, 0, 0]	n/a	FR1	1	R1234D
1680.135	0.008	1686900	COUNTDOWN_END	n/a	n/a	n/a	-999	15	[0, 0, 0]	n/a	FR1	1	R1234D
1680.143	1.617	1686908	ORIENT	n/a	n/a	n/a	-999	15	[0, 0, 0]	n/a	FR1	1	R1234D
1681.76	2.017	1688525	ORIENT_OFF	n/a	n/a	n/a	-999	15	[0, 0, 0]	n/a	FR1	1	R1234D
1683.777	1.617	1690542	WORD	n/a	wordpools/wordpool_EN.txt	CHALK	1	15	[0, 0, 0]	n/a	FR1	1	R1234D
1685.394	0.933	1692159	WORD_OFF	n/a	n/a	CHALK	1	15	[0, 0, 0]	n/a	FR1	1	R1234D
1686.327	1.617	1693092	WORD	n/a	wordpools/wordpool_EN.txt	HAT	2	15	[0, 0, 0]	n/a	FR1	1	R1234D
1687.944	0.95	1694709	WORD_OFF	n/a	n/a	HAT	2	15	[0, 0, 0]	n/a	FR1	1	R1234D
1688.894	1.618	1695659	WORD	n/a	wordpools/wordpool_EN.txt	DESK	3	15	[0, 0, 0]	n/a	FR1	1	R1234D
1690.512	0.783	1697276	WORD_OFF	n/a	n/a	DESK	3	15	[0, 0, 0]	n/a	FR1	1	R1234D
1691.295	1.617	1698059	WORD	n/a	wordpools/wordpool_EN.txt	FUR	4	15	[0, 0, 0]	n/a	FR1	1	R1234D
1692.912	0.916	1699676	WORD_OFF	n/a	n/a	FUR	4	15	[0, 0, 0]	n/a	FR1	1	R1234D
1693.828	1.618	1700592	WORD	n/a	wordpools/wordpool_EN.txt	FLEA	5	15	[0, 0, 0]	n/a	FR1	1	R1234D
1695.446	0.866	1702210	WORD_OFF	n/a	n/a	FLEA	5	15	[0, 0, 0]	n/a	FR1	1	R1234D
1696.312	1.617	1703076	WORD	n/a	wordpools/wordpool_EN.txt	BADGE	6	15	[0, 0, 0]	n/a	FR1	1	R1234D
1697.929	0.967	1704693	WORD_OFF	n/a	n/a	BADGE	6	15	[0, 0, 0]	n/a	FR1	1	R1234D
1698.896	1.601	1705660	WORD	n/a	wordpools/wordpool_EN.txt	DIME	7	15	[0, 0, 0]	n/a	FR1	1	R1234D
1700.497	0.833	1707261	WORD_OFF	n/a	n/a	DIME	7	15	[0, 0, 0]	n/a	FR1	1	R1234D
1701.33	1.617	1708094	WORD	n/a	wordpools/wordpool_EN.txt	ARK	8	15	[0, 0, 0]	n/a	FR1	1	R1234D
1702.947	0.867	1709711	WORD_OFF	n/a	n/a	ARK	8	15	[0, 0, 0]	n/a	FR1	1	R1234D
1703.814	1.618	1710578	WORD	n/a	wordpools/wordpool_EN.txt	SHRIMP	9	15	[0, 0, 0]	n/a	FR1	1	R1234D
1705.432	0.949	1712196	WORD_OFF	n/a	n/a	SHRIMP	9	15	[0, 0, 0]	n/a	FR1	1	R1234D
1706.381	1.617	1713145	WORD	n/a	wordpools/wordpool_EN.txt	MOTH	10	15	[0, 0, 0]	n/a	FR1	1	R1234D
1707.998	0.95	1714761	WORD_OFF	n/a	n/a	MOTH	10	15	[0, 0, 0]	n/a	FR1	1	R1234D
1708.948	1.618	1715711	WORD	n/a	wordpools/wordpool_EN.txt	POOL	11	15	[0, 0, 0]	n/a	FR1	1	R1234D
1710.566	0.833	1717329	WORD_OFF	n/a	n/a	POOL	11	15	[0, 0, 0]	n/a	FR1	1	R1234D
1711.399	1.616	1718162	WORD	n/a	wordpools/wordpool_EN.txt	HOOK	12	15	[0, 0, 0]	n/a	FR1	1	R1234D
1713.015	0.0	1719778	WORD_OFF	n/a	n/a	HOOK	12	15	[0, 0, 0]	n/a	FR1	1	R1234D
1713.015	0.001	1719778	DISTRACT_START	n/a	n/a	n/a	-999	15	[0, 0, 0]	n/a	FR1	1	R1234D
1713.016	0.016	1719779	START	n/a	n/a	n/a	-999	15	[-999, -999, -999]	n/a	FR1	1	R1234D
1713.032	5.184	1719795	PROB	5.184	n/a	n/a	-999	15	[1, 4, 8]	13	FR1	1	R1234D
1718.216	5.085	1724979	PROB	5.085	n/a	n/a	-999	15	[6, 1, 3]	10	FR1	1	R1234D
1723.301	4.05	1730064	PROB	4.05	n/a	n/a	-999	15	[3, 2, 6]	11	FR1	1	R1234D
1727.351	7.88	1734113	PROB	7.88	n/a	n/a	-999	15	[8, 7, 7]	22	FR1	1	R1234D
1735.231	0.022	1741993	STOP	n/a	n/a	n/a	-999	15	[-999, -999, -999]	n/a	FR1	1	R1234D
1735.253	0.55	1742015	DISTRACT_END	n/a	n/a	n/a	-999	15	[0, 0, 0]	n/a	FR1	1	R1234D
1735.803	0.518	1742565	RETRIEVAL_ORIENT	n/a	n/a	n/a	-999	15	[0, 0, 0]	n/a	FR1	1	R1234D
1736.321	1.35	1743083	REC_START	n/a	n/a	n/a	-999	15	[0, 0, 0]	n/a	FR1	1	R1234D
1737.671	0.22	1744433	REC_WORD_VV	0.22	n/a	<>	-999	15	[0, 0, 0]	n/a	FR1	1	R1234D
1737.891	0.587	1744653	REC_WORD	0.587	n/a	POOL	-999	15	[0, 0, 0]	n/a	FR1	1	R1234D
1738.478	3.002	1745240	REC_WORD	3.002	n/a	MOTH	-999	15	[0, 0, 0]	n/a	FR1	1	R1234D
1741.48	2.321	1748242	REC_WORD_VV	2.321	n/a	<>	-999	15	[0, 0, 0]	n/a	FR1	1	R1234D
1743.801	0.209	1750562	REC_WORD	0.209	n/a	POOL	-999	15	[0, 0, 0]	n/a	FR1	1	R1234D
1744.01	16.387	1750771	REC_WORD	16.387	n/a	MOTH	-999	15	[0, 0, 0]	n/a	FR1	1	R1234D
1760.397	0.598	1767158	REC_WORD_VV	0.598	n/a	<>	-999	15	[0, 0, 0]	n/a	FR1	1	R1234D
1760.995	2.206	1767756	REC_WORD	2.206	n/a	DUCK	-999	15	[0, 0, 0]	n/a	FR1	1	R1234D
1763.201	2.69	1769961	REC_WORD_VV	2.69	n/a	<>	-999	15	[0, 0, 0]	n/a	FR1	1	R1234D
1765.891	0.441	1772651	REC_WORD_VV	0.441	n/a	<>	-999	15	[0, 0, 0]	n/a	FR1	1	R1234D
1766.332	4.627	1773092	REC_END	n/a	n/a	n/a	-999	15	[0, 0, 0]	n/a	FR1	1	R1234D
1770.959	0.5	1777719	TRIAL	n/a	n/a	n/a	-999	16	[0, 0, 0]	n/a	FR1	1	R1234D
1771.459	10.428	1778219	COUNTDOWN_START	n/a	n/a	n/a	-999	16	[0, 0, 0]	n/a	FR1	1	R1234D
1781.887	0.008	1788646	COUNTDOWN_END	n/a	n/a	n/a	-999	16	[0, 0, 0]	n/a	FR1	1	R1234D
1781.895	1.618	1788654	ORIENT	n/a	n/a	n/a	-999	16	[0, 0, 0]	n/a	FR1	1	R1234D
1783.513	2.249	1790272	ORIENT_OFF	n/a	n/a	n/a	-999	16	[0, 0, 0]	n/a	FR1	1	R1234D
1785.762	1.617	1792521	WORD	n/a	wordpools/wordpool_EN.txt	TIE	1	16	[0, 0, 0]	n/a	FR1	1	R1234D
1787.379	0.984	1794138	WORD_OFF	n/a	n/a	TIE	1	16	[0, 0, 0]	n/a	FR1	1	R1234D
1788.363	1.616	1795122	WORD	n/a	wordpools/wordpool_EN.txt	SPRING	2	16	[0, 0, 0]	n/a	FR1	1	R1234D
1789.979	0.851	1796738	WORD_OFF	n/a	n/a	SPRING	2	16	[0, 0, 0]	n/a	FR1	1	R1234D
1790.83	1.618	1797589	WORD	n/a	wordpools/wordpool_EN.txt	BARN	3	16	[0, 0, 0]	n/a	FR1	1	R1234D
1792.448	1.0	1799207	WORD_OFF	n/a	n/a	BARN	3	16	[0, 0, 0]	n/a	FR1	1	R1234D
1793.448	1.616	1800207	WORD	n/a	wordpools/wordpool_EN.txt	NAIL	4	16	[0, 0, 0]	n/a	FR1	1	R1234D
1795.064	0.767	1801823	WORD_OFF	n/a	n/a	NAIL	4	16	[0, 0, 0]	n/a	FR1	1	R1234D
1795.831	1.618	1802590	WORD	n/a	wordpools/wordpool_EN.txt	SPOON	5	16	[0, 0, 0]	n/a	FR1	1	R1234D
1797.449	0.849	1804208	WORD_OFF	n/a	n/a	SPOON	5	16	[0, 0, 0]	n/a	FR1	1	R1234D
1798.298	1.617	1805056	WORD	n/a	wordpools/wordpool_EN.txt	STICK	6	16	[0, 0, 0]	n/a	FR1	1	R1234D
1799.915	0.866	1806673	WORD_OFF	n/a	n/a	STICK	6	16	[0, 0, 0]	n/a	FR1	1	R1234D
1800.781	1.618	1807539	WORD	n/a	wordpools/wordpool_EN.txt	DART	7	16	[0, 0, 0]	n/a	FR1	1	R1234D
1802.399	1.001	1809157	WORD_OFF	n/a	n/a	DART	7	16	[0, 0, 0]	n/a	FR1	1	R1234D
1803.4	1.616	1810158	WORD	n/a	wordpools/wordpool_EN.txt	BEAN	8	16	[0, 0, 0]	n/a	FR1	1	R1234D
1805.016	0.833	1811774	WORD_OFF	n/a	n/a	BEAN	8	16	[0, 0, 0]	n/a	FR1	1	R1234D
1805.849	1.618	1812607	WORD	n/a	wordpools/wordpool_EN.txt	CANE	9	16	[0, 0, 0]	n/a	FR1	1	R1234D
1807.467	0.95	1814225	WORD_OFF	n/a	n/a	CANE	9	16	[0, 0, 0]	n/a	FR1	1	R1234D
1808.417	1.616	1815175	WORD	n/a	wordpools/wordpool_EN.txt	THREAD	10	16	[0, 0, 0]	n/a	FR1	1	R1234D
1810.033	0.767	1816791	WORD_OFF	n/a	n/a	THREAD	10	16	[0, 0, 0]	n/a	FR1	1	R1234D
1810.8	1.618	1817558	WORD	n/a	wordpools/wordpool_EN.txt	MAT	11	16	[0, 0, 0]	n/a	FR1	1	R1234D
1812.418	0.966	1819176	WORD_OFF	n/a	n/a	MAT	11	16	[0, 0, 0]	n/a	FR1	1	R1234D
1813.384	1.617	1820142	WORD	n/a	wordpools/wordpool_EN.txt	CAKE	12	16	[0, 0, 0]	n/a	FR1	1	R1234D
1815.001	0.0	1821759	WORD_OFF	n/a	n/a	CAKE	12	16	[0, 0, 0]	n/a	FR1	1	R1234D
1815.001	0.0	1821759	DISTRACT_START	n/a	n/a	n/a	-999	16	[0, 0, 0]	n/a	FR1	1	R1234D
1815.001	0.016	1821759	START	n/a	n/a	n/a	-999	16	[-999, -999, -999]	n/a	FR1	1	R1234D
1815.017	5.768	1821775	PROB	5.768	n/a	n/a	-999	16	[2, 2, 3]	7	FR1	1	R1234D
1820.785	4.918	1827542	PROB	4.918	n/a	n/a	-999	16	[2, 4, 8]	14	FR1	1	R1234D
1825.703	9.827	1832460	PROB	9.827	n/a	n/a	-999	16	[4, 6, 8]	19	FR1	1	R1234D
1835.53	0.009	1842286	STOP	n/a	n/a	n/a	-999	16	[-999, -999, -999]	n/a	FR1	1	R1234D
1835.539	0.699	1842295	DISTRACT_END	n/a	n/a	n/a	-999	16	[0, 0, 0]	n/a	FR1	1	R1234D
1836.238	0.518	1842994	RETRIEVAL_ORIENT	n/a	n/a	n/a	-999	16	[0, 0, 0]	n/a	FR1	1	R1234D
1836.756	1.261	1843512	REC_START	n/a	n/a	n/a	-999	16	[0, 0, 0]	n/a	FR1	1	R1234D
1838.017	0.267	1844773	REC_WORD_VV	0.267	n/a	<>	-999	16	[0, 0, 0]	n/a	FR1	1	R1234D
1838.284	0.377	1845040	REC_WORD	0.377	n/a	TIE	-999	16	[0, 0, 0]	n/a	FR1	1	R1234D
1838.661	0.921	1845417	REC_WORD	0.921	n/a	SPRING	-999	16	[0, 0, 0]	n/a	FR1	1	R1234D
1839.582	2.878	1846338	REC_WORD	2.878	n/a	BARN	-999	16	[0, 0, 0]	n/a	FR1	1	R1234D
1842.46	2.118	1849216	REC_WORD	2.118	n/a	NAIL	-999	16	[0, 0, 0]	n/a	FR1	1	R1234D
1844.578	22.188	1851334	REC_WORD	22.188	n/a	DART	-999	16	[0, 0, 0]	n/a	FR1	1	R1234D
1866.766	5.329	1873521	REC_END	n/a	n/a	n/a	-999	16	[0, 0, 0]	n/a	FR1	1	R1234D
1872.095	0.5	1878849	TRIAL	n/a	n/a	n/a	-999	17	[0, 0, 0]	n/a	FR1	1	R1234D
1872.595	10.428	1879349	COUNTDOWN_START	n/a	n/a	n/a	-999	17	[0, 0, 0]	n/a	FR1	1	R1234D
1883.023	0.007	1889777	COUNTDOWN_END	n/a	n/a	n/a	-999	17	[0, 0, 0]	n/a	FR1	1	R1234D
1883.03	1.617	1889784	ORIENT	n/a	n/a	n/a	-999	17	[0, 0, 0]	n/a	FR1	1	R1234D
1884.647	1.985	1891401	ORIENT_OFF	n/a	n/a	n/a	-999	17	[0, 0, 0]	n/a	FR1	1	R1234D
1886.632	1.616	1893386	WORD	n/a	wordpools/wordpool_EN.txt	BOARD	1	17	[0, 0, 0]	n/a	FR1	1	R1234D
1888.248	0.983	1895001	WORD_OFF	n/a	n/a	BOARD	1	17	[0, 0, 0]	n/a	FR1	1	R1234D
1889.231	1.617	1895984	WORD	n/a	wordpools/wordpool_EN.txt	PIE	2	17	[0, 0, 0]	n/a	FR1	1	R1234D
1890.848	0.768	1897601	WORD_OFF	n/a	n/a	PIE	2	17	[0, 0, 0]	n/a	FR1	1	R1234D
1891.616	1.616	1898369	WORD	n/a	wordpools/wordpool_EN.txt	FOAM	3	17	[0, 0, 0]	n/a	FR1	1	R1234D
1893.232	0.867	1899985	WORD_OFF	n/a	n/a	FOAM	3	17	[0, 0, 0]	n/a	FR1	1	R1234D
1894.099	1.617	1900852	WORD	n/a	wordpools/wordpool_EN.txt	SCHOOL	4	17	[0, 0, 0]	n/a	FR1	1	R1234D
1895.716	0.95	1902469	WORD_OFF	n/a	n/a	SCHOOL	4	17	[0, 0, 0]	n/a	FR1	1	R1234D
1896.666	1.617	1903419	WORD	n/a	wordpools/wordpool_EN.txt	SLUSH	5	17	[0, 0, 0]	n/a	FR1	1	R1234D
1898.283	0.983	1905036	WORD_OFF	n/a	n/a	SLUSH	5	17	[0, 0, 0]	n/a	FR1	1	R1234D
1899.266	1.617	1906019	WORD	n/a	wordpools/wordpool_EN.txt	STRING	6	17	[0, 0, 0]	n/a	FR1	1	R1234D
1900.883	0.8	1907636	WORD_OFF	n/a	n/a	STRING	6	17	[0, 0, 0]	n/a	FR1	1	R1234D
1901.683	1.617	1908436	WORD	n/a	wordpools/wordpool_EN.txt	STREET	7	17	[0, 0, 0]	n/a	FR1	1	R1234D
1903.3	0.917	1910053	WORD_OFF	n/a	n/a	STREET	7	17	[0, 0, 0]	n/a	FR1	1	R1234D
1904.217	1.617	1910970	WORD	n/a	wordpools/wordpool_EN.txt	BEE	8	17	[0, 0, 0]	n/a	FR1	1	R1234D
1905.834	0.9	1912586	WORD_OFF	n/a	n/a	BEE	8	17	[0, 0, 0]	n/a	FR1	1	R1234D
1906.734	1.617	1913486	WORD	n/a	wordpools/wordpool_EN.txt	GUARD	9	17	[0, 0, 0]	n/a	FR1	1	R1234D
1908.351	1.0	1915103	WORD_OFF	n/a	n/a	GUARD	9	17	[0, 0, 0]	n/a	FR1	1	R1234D
1909.351	1.617	1916103	WORD	n/a	wordpools/wordpool_EN.txt	SOCK	10	17	[0, 0, 0]	n/a	FR1	1	R1234D
1910.968	0.951	1917720	WORD_OFF	n/a	n/a	SOCK	10	17	[0, 0, 0]	n/a	FR1	1	R1234D
1911.919	1.617	1918671	WORD	n/a	wordpools/wordpool_EN.txt	SWORD	11	17	[0, 0, 0]	n/a	FR1	1	R1234D
1913.536	0.901	1920288	WORD_OFF	n/a	n/a	SWORD	11	17	[0, 0, 0]	n/a	FR1	1	R1234D
1914.437	1.616	1921189	WORD	n/a	wordpools/wordpool_EN.txt	CALF	12	17	[0, 0, 0]	n/a	FR1	1	R1234D
1916.053	0.0	1922805	DISTRACT_START	n/a	n/a	n/a	-999	17	[0, 0, 0]	n/a	FR1	1	R1234D
1916.053	0.0	1922805	WORD_OFF	n/a	n/a	CALF	12	17	[0, 0, 0]	n/a	FR1	1	R1234D
1916.053	0.016	1922805	START	n/a	n/a	n/a	-999	17	[-999, -999, -999]	n/a	FR1	1	R1234D
1916.069	8.752	1922821	PROB	8.752	n/a	n/a	-999	17	[9, 5, 8]	22	FR1	1	R1234D
1924.821	6.685	1931572	PROB	6.685	n/a	n/a	-999	17	[5, 3, 8]	16	FR1	1	R1234D
1931.506	3.167	1938257	PROB	3.167	n/a	n/a	-999	17	[3, 3, 3]	9	FR1	1	R1234D
1934.673	6.063	1941424	PROB	6.063	n/a	n/a	-999	17	[9, 2, 3]	14	FR1	1	R1234D
1940.736	0.021	1947487	STOP	n/a	n/a	n/a	-999	17	[-999, -999, -999]	n/a	FR1	1	R1234D
1940.757	0.633	1947508	DISTRACT_END	n/a	n/a	n/a	-999	17	[0, 0, 0]	n/a	FR1	1	R1234D
1941.39	0.518	1948140	RETRIEVAL_ORIENT	n/a	n/a	n/a	-999	17	[0, 0, 0]	n/a	FR1	1	R1234D
1941.908	4.467	1948658	REC_START	n/a	n/a	n/a	-999	17	[0, 0, 0]	n/a	FR1	1	R1234D
1946.375	1.997	1953125	REC_WORD_VV	1.997	n/a	<>	-999	17	[0, 0, 0]	n/a	FR1	1	R1234D
1948.372	6.439	1955122	REC_WORD_VV	6.439	n/a	<>	-999	17	[0, 0, 0]	n/a	FR1	1	R1234D
1954.811	17.108	1961561	REC_WORD	17.108	n/a	TIE	-999	17	[0, 0, 0]	n/a	FR1	1	R1234D
1971.919	5.395	1978668	REC_END	n/a	n/a	n/a	-999	17	[0, 0, 0]	n/a	FR1	1	R1234D
1977.314	0.5	1984062	TRIAL	n/a	n/a	n/a	-999	18	[0, 0, 0]	n/a	FR1	1	R1234D
1977.814	10.428	1984562	COUNTDOWN_START	n/a	n/a	n/a	-999	18	[0, 0, 0]	n/a	FR1	1	R1234D
1988.242	0.007	1994990	COUNTDOWN_END	n/a	n/a	n/a	-999	18	[0, 0, 0]	n/a	FR1	1	R1234D
1988.249	1.617	1994997	ORIENT	n/a	n/a	n/a	-999	18	[0, 0, 0]	n/a	FR1	1	R1234D
1989.866	2.051	1996614	ORIENT_OFF	n/a	n/a	n/a	-999	18	[0, 0, 0]	n/a	FR1	1	R1234D
1991.917	1.618	1998665	WORD	n/a	wordpools/wordpool_EN.txt	FLAME	1	18	[0, 0, 0]	n/a	FR1	1	R1234D
1993.535	0.883	2000283	WORD_OFF	n/a	n/a	FLAME	1	18	[0, 0, 0]	n/a	FR1	1	R1234D
1994.418	1.616	2001166	WORD	n/a	wordpools/wordpool_EN.txt	ROOF	2	18	[0, 0, 0]	n/a	FR1	1	R1234D
1996.034	0.767	2002781	WORD_OFF	n/a	n/a	ROOF	2	18	[0, 0, 0]	n/a	FR1	1	R1234D
1996.801	1.618	2003548	WORD	n/a	wordpools/wordpool_EN.txt	MOUSE	3	18	[0, 0, 0]	n/a	FR1	1	R1234D
1998.419	0.882	2005166	WORD_OFF	n/a	n/a	MOUSE	3	18	[0, 0, 0]	n/a	FR1	1	R1234D
1999.301	1.617	2006048	WORD	n/a	wordpools/wordpool_EN.txt	MILK	4	18	[0, 0, 0]	n/a	FR1	1	R1234D
2000.918	0.85	2007665	WORD_OFF	n/a	n/a	MILK	4	18	[0, 0, 0]	n/a	FR1	1	R1234D
2001.768	1.617	2008515	WORD	n/a	wordpools/wordpool_EN.txt	BLUSH	5	18	[0, 0, 0]	n/a	FR1	1	R1234D
2003.385	0.867	2010132	WORD_OFF	n/a	n/a	BLUSH	5	18	[0, 0, 0]	n/a	FR1	1	R1234D
2004.252	1.617	2010999	WORD	n/a	wordpools/wordpool_EN.txt	SIGN	6	18	[0, 0, 0]	n/a	FR1	1	R1234D
2005.869	0.967	2012616	WORD_OFF	n/a	n/a	SIGN	6	18	[0, 0, 0]	n/a	FR1	1	R1234D
2006.836	1.618	2013583	WORD	n/a	wordpools/wordpool_EN.txt	FENCE	7	18	[0, 0, 0]	n/a	FR1	1	R1234D
2008.454	0.832	2015201	WORD_OFF	n/a	n/a	FENCE	7	18	[0, 0, 0]	n/a	FR1	1	R1234D
2009.286	1.617	2016033	WORD	n/a	wordpools/wordpool_EN.txt	SHOE	8	18	[0, 0, 0]	n/a	FR1	1	R1234D
2010.903	0.901	2017650	WORD_OFF	n/a	n/a	SHOE	8	18	[0, 0, 0]	n/a	FR1	1	R1234D
2011.804	1.618	2018551	WORD	n/a	wordpools/wordpool_EN.txt	PIT	9	18	[0, 0, 0]	n/a	FR1	1	R1234D
2013.422	0.915	2020168	WORD_OFF	n/a	n/a	PIT	9	18	[0, 0, 0]	n/a	FR1	1	R1234D
2014.337	1.617	2021083	WORD	n/a	wordpools/wordpool_EN.txt	CART	10	18	[0, 0, 0]	n/a	FR1	1	R1234D
2015.954	0.8	2022700	WORD_OFF	n/a	n/a	CART	10	18	[0, 0, 0]	n/a	FR1	1	R1234D
2016.754	1.617	2023500	WORD	n/a	wordpools/wordpool_EN.txt	AXE	11	18	[0, 0, 0]	n/a	FR1	1	R1234D
2018.371	0.917	2025117	WORD_OFF	n/a	n/a	AXE	11	18	[0, 0, 0]	n/a	FR1	1	R1234D
2019.288	1.617	2026034	WORD	n/a	wordpools/wordpool_EN.txt	VASE	12	18	[0, 0, 0]	n/a	FR1	1	R1234D
2020.905	0.0	2027651	WORD_OFF	n/a	n/a	VASE	12	18	[0, 0, 0]	n/a	FR1	1	R1234D
2020.905	0.001	2027651	DISTRACT_START	n/a	n/a	n/a	-999	18	[0, 0, 0]	n/a	FR1	1	R1234D
2020.906	0.016	2027652	START	n/a	n/a	n/a	-999	18	[-999, -999, -999]	n/a	FR1	1	R1234D
2020.922	8.968	2027668	PROB	8.968	n/a	n/a	-999	18	[7, 4, 9]	20	FR1	1	R1234D
2029.89	5.251	2036636	PROB	5.251	n/a	n/a	-999	18	[4, 3, 5]	12	FR1	1	R1234D
2035.141	4.634	2041886	PROB	4.634	n/a	n/a	-999	18	[4, 1, 4]	9	FR1	1	R1234D
2039.775	5.273	2046520	PROB	5.273	n/a	n/a	-999	18	[9, 2, 4]	15	FR1	1	R1234D
2045.048	0.012	2051793	STOP	n/a	n/a	n/a	-999	18	[-999, -999, -999]	n/a	FR1	1	R1234D
2045.06	0.649	2051805	DISTRACT_END	n/a	n/a	n/a	-999	18	[0, 0, 0]	n/a	FR1	1	R1234D
2045.709	0.518	2052454	RETRIEVAL_ORIENT	n/a	n/a	n/a	-999	18	[0, 0, 0]	n/a	FR1	1	R1234D
2046.227	1.63	2052972	REC_START	n/a	n/a	n/a	-999	18	[0, 0, 0]	n/a	FR1	1	R1234D
2047.857	0.465	2054602	REC_WORD	0.465	n/a	MILK	-999	18	[0, 0, 0]	n/a	FR1	1	R1234D
2048.322	3.048	2055067	REC_WORD	3.048	n/a	VASE	-999	18	[0, 0, 0]	n/a	FR1	1	R1234D
2051.37	0.317	2058114	REC_WORD	0.317	n/a	MILK	-999	18	[0, 0, 0]	n/a	FR1	1	R1234D
2051.687	1.809	2058431	REC_WORD	1.809	n/a	VASE	-999	18	[0, 0, 0]	n/a	FR1	1	R1234D
2053.496	7.008	2060240	REC_WORD_VV	7.008	n/a	<>	-999	18	[0, 0, 0]	n/a	FR1	1	R1234D
2060.504	15.733	2067248	REC_WORD_VV	15.733	n/a	<>	-999	18	[0, 0, 0]	n/a	FR1	1	R1234D
2076.237	5.38	2082980	REC_END	n/a	n/a	n/a	-999	18	[0, 0, 0]	n/a	FR1	1	R1234D
2081.617	0.5	2088360	TRIAL	n/a	n/a	n/a	-999	19	[0, 0, 0]	n/a	FR1	1	R1234D
2082.117	10.428	2088860	COUNTDOWN_START	n/a	n/a	n/a	-999	19	[0, 0, 0]	n/a	FR1	1	R1234D
2092.545	0.008	2099287	COUNTDOWN_END	n/a	n/a	n/a	-999	19	[0, 0, 0]	n/a	FR1	1	R1234D
2092.553	1.616	2099295	ORIENT	n/a	n/a	n/a	-999	19	[0, 0, 0]	n/a	FR1	1	R1234D
2094.169	1.983	2100911	ORIENT_OFF	n/a	n/a	n/a	-999	19	[0, 0, 0]	n/a	FR1	1	R1234D
2096.152	1.617	2102894	WORD	n/a	wordpools/wordpool_EN.txt	EAR	1	19	[0, 0, 0]	n/a	FR1	1	R1234D
2097.769	0.951	2104511	WORD_OFF	n/a	n/a	EAR	1	19	[0, 0, 0]	n/a	FR1	1	R1234D
2098.72	1.616	2105462	WORD	n/a	wordpools/wordpool_EN.txt	WAND	2	19	[0, 0, 0]	n/a	FR1	1	R1234D
2100.336	0.784	2107078	WORD_OFF	n/a	n/a	WAND	2	19	[0, 0, 0]	n/a	FR1	1	R1234D
2101.12	1.617	2107862	WORD	n/a	wordpools/wordpool_EN.txt	LOCK	3	19	[0, 0, 0]	n/a	FR1	1	R1234D
2102.737	0.983	2109479	WORD_OFF	n/a	n/a	LOCK	3	19	[0, 0, 0]	n/a	FR1	1	R1234D
2103.72	1.617	2110461	WORD	n/a	wordpools/wordpool_EN.txt	SEAT	4	19	[0, 0, 0]	n/a	FR1	1	R1234D
2105.337	0.967	2112078	WORD_OFF	n/a	n/a	SEAT	4	19	[0, 0, 0]	n/a	FR1	1	R1234D
2106.304	1.617	2113045	WORD	n/a	wordpools/wordpool_EN.txt	JUICE	5	19	[0, 0, 0]	n/a	FR1	1	R1234D
2107.921	0.834	2114662	WORD_OFF	n/a	n/a	JUICE	5	19	[0, 0, 0]	n/a	FR1	1	R1234D
2108.755	1.617	2115496	WORD	n/a	wordpools/wordpool_EN.txt	FARM	6	19	[0, 0, 0]	n/a	FR1	1	R1234D
2110.372	0.8	2117113	WORD_OFF	n/a	n/a	FARM	6	19	[0, 0, 0]	n/a	FR1	1	R1234D
2111.172	1.617	2117913	WORD	n/a	wordpools/wordpool_EN.txt	CAVE	7	19	[0, 0, 0]	n/a	FR1	1	R1234D
2112.789	0.768	2119530	WORD_OFF	n/a	n/a	CAVE	7	19	[0, 0, 0]	n/a	FR1	1	R1234D
2113.557	1.616	2120298	WORD	n/a	wordpools/wordpool_EN.txt	CORN	8	19	[0, 0, 0]	n/a	FR1	1	R1234D
2115.173	0.983	2121914	WORD_OFF	n/a	n/a	CORN	8	19	[0, 0, 0]	n/a	FR1	1	R1234D
2116.156	1.617	2122897	WORD	n/a	wordpools/wordpool_EN.txt	COUCH	9	19	[0, 0, 0]	n/a	FR1	1	R1234D
2117.773	0.917	2124514	WORD_OFF	n/a	n/a	COUCH	9	19	[0, 0, 0]	n/a	FR1	1	R1234D
2118.69	1.617	2125431	WORD	n/a	wordpools/wordpool_EN.txt	SLEEVE	10	19	[0, 0, 0]	n/a	FR1	1	R1234D
2120.307	0.783	2127048	WORD_OFF	n/a	n/a	SLEEVE	10	19	[0, 0, 0]	n/a	FR1	1	R1234D
2121.09	1.617	2127830	WORD	n/a	wordpools/wordpool_EN.txt	GRAPE	11	19	[0, 0, 0]	n/a	FR1	1	R1234D
2122.707	0.851	2129447	WORD_OFF	n/a	n/a	GRAPE	11	19	[0, 0, 0]	n/a	FR1	1	R1234D
2123.558	1.616	2130298	WORD	n/a	wordpools/wordpool_EN.txt	CRANE	12	19	[0, 0, 0]	n/a	FR1	1	R1234D
2125.174	0.0	2131914	WORD_OFF	n/a	n/a	CRANE	12	19	[0, 0, 0]	n/a	FR1	1	R1234D
2125.174	0.001	2131914	DISTRACT_START	n/a	n/a	n/a	-999	19	[0, 0, 0]	n/a	FR1	1	R1234D
2125.175	0.016	2131915	START	n/a	n/a	n/a	-999	19	[-999, -999, -999]	n/a	FR1	1	R1234D
2125.191	5.219	2131931	PROB	5.219	n/a	n/a	-999	19	[8, 9, 1]	18	FR1	1	R1234D
2130.41	5.766	2137150	PROB	5.766	n/a	n/a	-999	19	[1, 4, 3]	8	FR1	1	R1234D
2136.176	6.835	2142916	PROB	6.835	n/a	n/a	-999	19	[5, 3, 8]	16	FR1	1	R1234D
2143.011	1.9	2149750	PROB	1.9	n/a	n/a	-999	19	[1, 1, 1]	3	FR1	1	R1234D
2144.911	10.418	2151650	PROB	10.418	n/a	n/a	-999	19	[9, 6, 3]	18	FR1	1	R1234D
2155.329	0.018	2162068	STOP	n/a	n/a	n/a	-999	19	[-999, -999, -999]	n/a	FR1	1	R1234D
2155.347	0.6	2162086	DISTRACT_END	n/a	n/a	n/a	-999	19	[0, 0, 0]	n/a	FR1	1	R1234D
2155.947	0.518	2162686	RETRIEVAL_ORIENT	n/a	n/a	n/a	-999	19	[0, 0, 0]	n/a	FR1	1	R1234D
2156.465	30.0	2163204	REC_START	n/a	n/a	n/a	-999	19	[0, 0, 0]	n/a	FR1	1	R1234D
2186.465	0.01	2193202	REC_WORD_VV	0.01	n/a	<>	-999	19	[0, 0, 0]	n/a	FR1	1	R1234D
2186.475	4.628	2193212	REC_END	n/a	n/a	n/a	-999	19	[0, 0, 0]	n/a	FR1	1	R1234D
2191.103	0.5	2197840	TRIAL	n/a	n/a	n/a	-999	20	[0, 0, 0]	n/a	FR1	1	R1234D
2191.603	10.428	2198340	COUNTDOWN_START	n/a	n/a	n/a	-999	20	[0, 0, 0]	n/a	FR1	1	R1234D
2202.031	0.007	2208767	COUNTDOWN_END	n/a	n/a	n/a	-999	20	[0, 0, 0]	n/a	FR1	1	R1234D
2202.038	1.602	2208774	ORIENT	n/a	n/a	n/a	-999	20	[0, 0, 0]	n/a	FR1	1	R1234D
2203.64	2.349	2210376	ORIENT_OFF	n/a	n/a	n/a	-999	20	[0, 0, 0]	n/a	FR1	1	R1234D
2205.989	1.618	2212725	WORD	n/a	wordpools/wordpool_EN.txt	TRAIN	1	20	[0, 0, 0]	n/a	FR1	1	R1234D
2207.607	0.95	2214343	WORD_OFF	n/a	n/a	TRAIN	1	20	[0, 0, 0]	n/a	FR1	1	R1234D
2208.557	1.616	2215293	WORD	n/a	wordpools/wordpool_EN.txt	SEA	2	20	[0, 0, 0]	n/a	FR1	1	R1234D
2210.173	1.0	2216909	WORD_OFF	n/a	n/a	SEA	2	20	[0, 0, 0]	n/a	FR1	1	R1234D
2211.173	1.617	2217908	WORD	n/a	wordpools/wordpool_EN.txt	DOOR	3	20	[0, 0, 0]	n/a	FR1	1	R1234D
2212.79	0.951	2219525	WORD_OFF	n/a	n/a	DOOR	3	20	[0, 0, 0]	n/a	FR1	1	R1234D
2213.741	1.616	2220476	WORD	n/a	wordpools/wordpool_EN.txt	OAR	4	20	[0, 0, 0]	n/a	FR1	1	R1234D
2215.357	0.851	2222092	WORD_OFF	n/a	n/a	OAR	4	20	[0, 0, 0]	n/a	FR1	1	R1234D
2216.208	1.617	2222943	WORD	n/a	wordpools/wordpool_EN.txt	TANK	5	20	[0, 0, 0]	n/a	FR1	1	R1234D
2217.825	0.833	2224560	WORD_OFF	n/a	n/a	TANK	5	20	[0, 0, 0]	n/a	FR1	1	R1234D
2218.658	1.617	2225393	WORD	n/a	wordpools/wordpool_EN.txt	DOCK	6	20	[0, 0, 0]	n/a	FR1	1	R1234D
2220.275	0.984	2227010	WORD_OFF	n/a	n/a	DOCK	6	20	[0, 0, 0]	n/a	FR1	1	R1234D
2221.259	1.617	2227994	WORD	n/a	wordpools/wordpool_EN.txt	LEAF	7	20	[0, 0, 0]	n/a	FR1	1	R1234D
2222.876	0.833	2229611	WORD_OFF	n/a	n/a	LEAF	7	20	[0, 0, 0]	n/a	FR1	1	R1234D
2223.709	1.617	2230444	WORD	n/a	wordpools/wordpool_EN.txt	CAT	8	20	[0, 0, 0]	n/a	FR1	1	R1234D
2225.326	1.0	2232061	WORD_OFF	n/a	n/a	CAT	8	20	[0, 0, 0]	n/a	FR1	1	R1234D
2226.326	1.617	2233061	WORD	n/a	wordpools/wordpool_EN.txt	STEAK	9	20	[0, 0, 0]	n/a	FR1	1	R1234D
2227.943	0.984	2234678	WORD_OFF	n/a	n/a	STEAK	9	20	[0, 0, 0]	n/a	FR1	1	R1234D
2228.927	1.618	2235661	WORD	n/a	wordpools/wordpool_EN.txt	TOAST	10	20	[0, 0, 0]	n/a	FR1	1	R1234D
2230.545	0.832	2237279	WORD_OFF	n/a	n/a	TOAST	10	20	[0, 0, 0]	n/a	FR1	1	R1234D
2231.377	1.617	2238111	WORD	n/a	wordpools/wordpool_EN.txt	CROWN	11	20	[0, 0, 0]	n/a	FR1	1	R1234D
2232.994	0.967	2239728	WORD_OFF	n/a	n/a	CROWN	11	20	[0, 0, 0]	n/a	FR1	1	R1234D
2233.961	1.618	2240695	WORD	n/a	wordpools/wordpool_EN.txt	PASTE	12	20	[0, 0, 0]	n/a	FR1	1	R1234D
2235.579	0.0	2242313	WORD_OFF	n/a	n/a	PASTE	12	20	[0, 0, 0]	n/a	FR1	1	R1234D
2235.579	0.001	2242313	DISTRACT_START	n/a	n/a	n/a	-999	20	[0, 0, 0]	n/a	FR1	1	R1234D
2235.58	0.016	2242314	START	n/a	n/a	n/a	-999	20	[-999, -999, -999]	n/a	FR1	1	R1234D
2235.596	6.45	2242330	PROB	6.45	n/a	n/a	-999	20	[7, 4, 7]	18	FR1	1	R1234D
2242.046	5.234	2248780	PROB	5.234	n/a	n/a	-999	20	[1, 9, 9]	19	FR1	1	R1234D
2247.28	4.169	2254013	PROB	4.169	n/a	n/a	-999	20	[1, 4, 2]	7	FR1	1	R1234D
2251.449	3.733	2258182	PROB	3.733	n/a	n/a	-999	20	[8, 2, 2]	12	FR1	1	R1234D
2255.182	4.21	2261915	PROB	4.21	n/a	n/a	-999	20	[1, 3, 5]	9	FR1	1	R1234D
2259.392	0.008	2266125	STOP	n/a	n/a	n/a	-999	20	[-999, -999, -999]	n/a	FR1	1	R1234D
2259.4	0.532	2266133	DISTRACT_END	n/a	n/a	n/a	-999	20	[0, 0, 0]	n/a	FR1	1	R1234D
2259.932	0.519	2266665	RETRIEVAL_ORIENT	n/a	n/a	n/a	-999	20	[0, 0, 0]	n/a	FR1	1	R1234D
2260.451	1.703	2267184	REC_START	n/a	n/a	n/a	-999	20	[0, 0, 0]	n/a	FR1	1	R1234D
2262.154	0.25	2268887	REC_WORD_VV	0.25	n/a	<>	-999	20	[0, 0, 0]	n/a	FR1	1	R1234D
2262.404	0.521	2269137	REC_WORD	0.521	n/a	TRAIN	-999	20	[0, 0, 0]	n/a	FR1	1	R1234D
2262.925	2.523	2269658	REC_WORD	2.523	n/a	TANK	-999	20	[0, 0, 0]	n/a	FR1	1	R1234D
2265.448	0.351	2272180	REC_WORD	0.351	n/a	TRAIN	-999	20	[0, 0, 0]	n/a	FR1	1	R1234D
2265.799	24.661	2272531	REC_WORD	24.661	n/a	TANK	-999	20	[0, 0, 0]	n/a	FR1	1	R1234D
2290.46	5.562	2297191	REC_END	n/a	n/a	n/a	-999	20	[0, 0, 0]	n/a	FR1	1	R1234D
2296.022	0.5	2302753	TRIAL	n/a	n/a	n/a	-999	21	[0, 0, 0]	n/a	FR1	1	R1234D
2296.522	10.428	2303253	COUNTDOWN_START	n/a	n/a	n/a	-999	21	[0, 0, 0]	n/a	FR1	1	R1234D
2306.95	0.008	2313680	COUNTDOWN_END	n/a	n/a	n/a	-999	21	[0, 0, 0]	n/a	FR1	1	R1234D
2306.958	1.618	2313688	ORIENT	n/a	n/a	n/a	-999	21	[0, 0, 0]	n/a	FR1	1	R1234D
2308.576	2.082	2315306	ORIENT_OFF	n/a	n/a	n/a	-999	21	[0, 0, 0]	n/a	FR1	1	R1234D
2310.658	1.617	2317388	WORD	n/a	wordpools/wordpool_EN.txt	SKI	1	21	[0, 0, 0]	n/a	FR1	1	R1234D
2312.275	0.867	2319005	WORD_OFF	n/a	n/a	SKI	1	21	[0, 0, 0]	n/a	FR1	1	R1234D
2313.142	1.617	2319872	WORD	n/a	wordpools/wordpool_EN.txt	PURSE	2	21	[0, 0, 0]	n/a	FR1	1	R1234D
2314.759	0.785	2321489	WORD_OFF	n/a	n/a	PURSE	2	21	[0, 0, 0]	n/a	FR1	1	R1234D
2315.544	1.616	2322274	WORD	n/a	wordpools/wordpool_EN.txt	BOOK	3	21	[0, 0, 0]	n/a	FR1	1	R1234D
2317.16	0.933	2323890	WORD_OFF	n/a	n/a	BOOK	3	21	[0, 0, 0]	n/a	FR1	1	R1234D
2318.093	1.617	2324823	WORD	n/a	wordpools/wordpool_EN.txt	SPONGE	4	21	[0, 0, 0]	n/a	FR1	1	R1234D
2319.71	0.818	2326439	WORD_OFF	n/a	n/a	SPONGE	4	21	[0, 0, 0]	n/a	FR1	1	R1234D
2320.528	1.616	2327257	WORD	n/a	wordpools/wordpool_EN.txt	ROCK	5	21	[0, 0, 0]	n/a	FR1	1	R1234D
2322.144	0.917	2328873	WORD_OFF	n/a	n/a	ROCK	5	21	[0, 0, 0]	n/a	FR1	1	R1234D
2323.061	1.617	2329790	WORD	n/a	wordpools/wordpool_EN.txt	EGG	6	21	[0, 0, 0]	n/a	FR1	1	R1234D
2324.678	0.784	2331407	WORD_OFF	n/a	n/a	EGG	6	21	[0, 0, 0]	n/a	FR1	1	R1234D
2325.462	1.616	2332191	WORD	n/a	wordpools/wordpool_EN.txt	BRIDGE	7	21	[0, 0, 0]	n/a	FR1	1	R1234D
2327.078	0.784	2333807	WORD_OFF	n/a	n/a	BRIDGE	7	21	[0, 0, 0]	n/a	FR1	1	R1234D
2327.862	1.618	2334591	WORD	n/a	wordpools/wordpool_EN.txt	APE	8	21	[0, 0, 0]	n/a	FR1	1	R1234D
2329.48	0.882	2336209	WORD_OFF	n/a	n/a	APE	8	21	[0, 0, 0]	n/a	FR1	1	R1234D
2330.362	1.617	2337091	WORD	n/a	wordpools/wordpool_EN.txt	ARM	9	21	[0, 0, 0]	n/a	FR1	1	R1234D
2331.979	0.817	2338708	WORD_OFF	n/a	n/a	ARM	9	21	[0, 0, 0]	n/a	FR1	1	R1234D
2332.796	1.618	2339525	WORD	n/a	wordpools/wordpool_EN.txt	PET	10	21	[0, 0, 0]	n/a	FR1	1	R1234D
2334.414	0.849	2341143	WORD_OFF	n/a	n/a	PET	10	21	[0, 0, 0]	n/a	FR1	1	R1234D
2335.263	1.617	2341992	WORD	n/a	wordpools/wordpool_EN.txt	HEN	11	21	[0, 0, 0]	n/a	FR1	1	R1234D
2336.88	0.867	2343608	WORD_OFF	n/a	n/a	HEN	11	21	[0, 0, 0]	n/a	FR1	1	R1234D
2337.747	1.617	2344475	WORD	n/a	wordpools/wordpool_EN.txt	SWAMP	12	21	[0, 0, 0]	n/a	FR1	1	R1234D
2339.364	0.0	2346092	WORD_OFF	n/a	n/a	SWAMP	12	21	[0, 0, 0]	n/a	FR1	1	R1234D
2339.364	0.0	2346092	DISTRACT_START	n/a	n/a	n/a	-999	21	[0, 0, 0]	n/a	FR1	1	R1234D
2339.364	0.016	2346092	START	n/a	n/a	n/a	-999	21	[-999, -999, -999]	n/a	FR1	1	R1234D
2339.38	5.435	2346108	PROB	5.435	n/a	n/a	-999	21	[5, 1, 4]	10	FR1	1	R1234D
2344.815	6.652	2351543	PROB	6.652	n/a	n/a	-999	21	[7, 6, 7]	20	FR1	1	R1234D
2351.467	12.862	2358195	PROB	12.862	n/a	n/a	-999	21	[7, 6, 3]	15	FR1	1	R1234D
2364.329	0.006	2371056	STOP	n/a	n/a	n/a	-999	21	[-999, -999, -999]	n/a	FR1	1	R1234D
2364.335	0.6	2371062	DISTRACT_END	n/a	n/a	n/a	-999	21	[0, 0, 0]	n/a	FR1	1	R1234D
2364.935	0.518	2371662	RETRIEVAL_ORIENT	n/a	n/a	n/a	-999	21	[0, 0, 0]	n/a	FR1	1	R1234D
2365.453	2.963	2372180	REC_START	n/a	n/a	n/a	-999	21	[0, 0, 0]	n/a	FR1	1	R1234D
2368.416	5.743	2375143	REC_WORD_VV	5.743	n/a	<>	-999	21	[0, 0, 0]	n/a	FR1	1	R1234D
2374.159	4.025	2380885	REC_WORD_VV	4.025	n/a	<>	-999	21	[0, 0, 0]	n/a	FR1	1	R1234D
2378.184	13.344	2384910	REC_WORD	13.344	n/a	BOOK	-999	21	[0, 0, 0]	n/a	FR1	1	R1234D
2391.528	3.936	2398253	REC_WORD	3.936	n/a	CITY	-999	21	[0, 0, 0]	n/a	FR1	1	R1234D
2395.464	5.278	2402189	REC_END	n/a	n/a	n/a	-999	21	[0, 0, 0]	n/a	FR1	1	R1234D
2400.742	0.5	2407467	TRIAL	n/a	n/a	n/a	-999	22	[0, 0, 0]	n/a	FR1	1	R1234D
2401.242	10.428	2407967	COUNTDOWN_START	n/a	n/a	n/a	-999	22	[0, 0, 0]	n/a	FR1	1	R1234D
2411.67	0.007	2418394	COUNTDOWN_END	n/a	n/a	n/a	-999	22	[0, 0, 0]	n/a	FR1	1	R1234D
2411.677	1.617	2418401	ORIENT	n/a	n/a	n/a	-999	22	[0, 0, 0]	n/a	FR1	1	R1234D
2413.294	2.067	2420018	ORIENT_OFF	n/a	n/a	n/a	-999	22	[0, 0, 0]	n/a	FR1	1	R1234D
2415.361	1.617	2422085	WORD	n/a	wordpools/wordpool_EN.txt	MOLE	1	22	[0, 0, 0]	n/a	FR1	1	R1234D
2416.978	0.9	2423702	WORD_OFF	n/a	n/a	MOLE	1	22	[0, 0, 0]	n/a	FR1	1	R1234D
2417.878	1.618	2424602	WORD	n/a	wordpools/wordpool_EN.txt	STONE	2	22	[0, 0, 0]	n/a	FR1	1	R1234D
2419.496	0.866	2426220	WORD_OFF	n/a	n/a	STONE	2	22	[0, 0, 0]	n/a	FR1	1	R1234D
2420.362	1.617	2427086	WORD	n/a	wordpools/wordpool_EN.txt	THUMB	3	22	[0, 0, 0]	n/a	FR1	1	R1234D
2421.979	0.867	2428703	WORD_OFF	n/a	n/a	THUMB	3	22	[0, 0, 0]	n/a	FR1	1	R1234D
2422.846	1.618	2429570	WORD	n/a	wordpools/wordpool_EN.txt	ROOT	4	22	[0, 0, 0]	n/a	FR1	1	R1234D
2424.464	0.915	2431188	WORD_OFF	n/a	n/a	ROOT	4	22	[0, 0, 0]	n/a	FR1	1	R1234D
2425.379	1.617	2432103	WORD	n/a	wordpools/wordpool_EN.txt	WHEEL	5	22	[0, 0, 0]	n/a	FR1	1	R1234D
2426.996	0.967	2433719	WORD_OFF	n/a	n/a	WHEEL	5	22	[0, 0, 0]	n/a	FR1	1	R1234D
2427.963	1.618	2434686	WORD	n/a	wordpools/wordpool_EN.txt	HORSE	6	22	[0, 0, 0]	n/a	FR1	1	R1234D
2429.581	0.799	2436304	WORD_OFF	n/a	n/a	HORSE	6	22	[0, 0, 0]	n/a	FR1	1	R1234D
2430.38	1.617	2437103	WORD	n/a	wordpools/wordpool_EN.txt	PEA	7	22	[0, 0, 0]	n/a	FR1	1	R1234D
2431.997	0.984	2438720	WORD_OFF	n/a	n/a	PEA	7	22	[0, 0, 0]	n/a	FR1	1	R1234D
2432.981	1.618	2439704	WORD	n/a	wordpools/wordpool_EN.txt	CLOTH	8	22	[0, 0, 0]	n/a	FR1	1	R1234D
2434.599	0.917	2441322	WORD_OFF	n/a	n/a	CLOTH	8	22	[0, 0, 0]	n/a	FR1	1	R1234D
2435.516	1.616	2442239	WORD	n/a	wordpools/wordpool_EN.txt	WOLF	9	22	[0, 0, 0]	n/a	FR1	1	R1234D
2437.132	0.883	2443855	WORD_OFF	n/a	n/a	WOLF	9	22	[0, 0, 0]	n/a	FR1	1	R1234D
2438.015	1.618	2444738	WORD	n/a	wordpools/wordpool_EN.txt	CLOWN	10	22	[0, 0, 0]	n/a	FR1	1	R1234D
2439.633	0.867	2446356	WORD_OFF	n/a	n/a	CLOWN	10	22	[0, 0, 0]	n/a	FR1	1	R1234D
2440.5	1.616	2447223	WORD	n/a	wordpools/wordpool_EN.txt	SAIL	11	22	[0, 0, 0]	n/a	FR1	1	R1234D
2442.116	0.984	2448839	WORD_OFF	n/a	n/a	SAIL	11	22	[0, 0, 0]	n/a	FR1	1	R1234D
2443.1	1.616	2449823	WORD	n/a	wordpools/wordpool_EN.txt	FORT	12	22	[0, 0, 0]	n/a	FR1	1	R1234D
2444.716	0.0	2451438	WORD_OFF	n/a	n/a	FORT	12	22	[0, 0, 0]	n/a	FR1	1	R1234D
2444.716	0.001	2451438	DISTRACT_START	n/a	n/a	n/a	-999	22	[0, 0, 0]	n/a	FR1	1	R1234D
2444.717	0.016	2451439	START	n/a	n/a	n/a	-999	22	[-999, -999, -999]	n/a	FR1	1	R1234D
2444.733	4.819	2451455	PROB	4.819	n/a	n/a	-999	22	[3, 1, 1]	5	FR1	1	R1234D
2449.552	9.467	2456274	PROB	9.467	n/a	n/a	-999	22	[8, 7, 5]	20	FR1	1	R1234D
2459.019	4.385	2465741	PROB	4.385	n/a	n/a	-999	22	[1, 6, 1]	8	FR1	1	R1234D
2463.404	6.493	2470125	PROB	6.493	n/a	n/a	-999	22	[2, 9, 5]	16	FR1	1	R1234D
2469.897	0.007	2476618	STOP	n/a	n/a	n/a	-999	22	[-999, -999, -999]	n/a	FR1	1	R1234D
2469.904	0.635	2476625	DISTRACT_END	n/a	n/a	n/a	-999	22	[0, 0, 0]	n/a	FR1	1	R1234D
2470.539	0.516	2477260	RETRIEVAL_ORIENT	n/a	n/a	n/a	-999	22	[0, 0, 0]	n/a	FR1	1	R1234D
2471.055	1.449	2477776	REC_START	n/a	n/a	n/a	-999	22	[0, 0, 0]	n/a	FR1	1	R1234D
2472.504	0.153	2479225	REC_WORD_VV	0.153	n/a	<>	-999	22	[0, 0, 0]	n/a	FR1	1	R1234D
2472.657	0.771	2479378	REC_WORD	0.771	n/a	MOLE	-999	22	[0, 0, 0]	n/a	FR1	1	R1234D
2473.428	5.369	2480149	REC_WORD	5.369	n/a	CLOWN	-999	22	[0, 0, 0]	n/a	FR1	1	R1234D
2478.797	0.347	2485518	REC_WORD	0.347	n/a	MOLE	-999	22	[0, 0, 0]	n/a	FR1	1	R1234D
2479.144	21.923	2485865	REC_WORD	21.923	n/a	CLOWN	-999	22	[0, 0, 0]	n/a	FR1	1	R1234D
2501.067	7.395	2507786	REC_END	n/a	n/a	n/a	-999	22	[0, 0, 0]	n/a	FR1	1	R1234D
2508.462	0.5	2515181	TRIAL	n/a	n/a	n/a	-999	23	[0, 0, 0]	n/a	FR1	1	R1234D
2508.962	10.428	2515681	COUNTDOWN_START	n/a	n/a	n/a	-999	23	[0, 0, 0]	n/a	FR1	1	R1234D
2519.39	0.008	2526108	COUNTDOWN_END	n/a	n/a	n/a	-999	23	[0, 0, 0]	n/a	FR1	1	R1234D
2519.398	1.616	2526116	ORIENT	n/a	n/a	n/a	-999	23	[0, 0, 0]	n/a	FR1	1	R1234D
2521.014	2.2	2527732	ORIENT_OFF	n/a	n/a	n/a	-999	23	[0, 0, 0]	n/a	FR1	1	R1234D
2523.214	1.617	2529932	WORD	n/a	wordpools/wordpool_EN.txt	INK	1	23	[0, 0, 0]	n/a	FR1	1	R1234D
2524.831	0.967	2531549	WORD_OFF	n/a	n/a	INK	1	23	[0, 0, 0]	n/a	FR1	1	R1234D
2525.798	1.618	2532516	WORD	n/a	wordpools/wordpool_EN.txt	RUG	2	23	[0, 0, 0]	n/a	FR1	1	R1234D
2527.416	0.899	2534134	WORD_OFF	n/a	n/a	RUG	2	23	[0, 0, 0]	n/a	FR1	1	R1234D
2528.315	1.617	2535033	WORD	n/a	wordpools/wordpool_EN.txt	NET	3	23	[0, 0, 0]	n/a	FR1	1	R1234D
2529.932	0.85	2536650	WORD_OFF	n/a	n/a	NET	3	23	[0, 0, 0]	n/a	FR1	1	R1234D
2530.782	1.618	2537500	WORD	n/a	wordpools/wordpool_EN.txt	EEL	4	23	[0, 0, 0]	n/a	FR1	1	R1234D
2532.4	1.0	2539118	WORD_OFF	n/a	n/a	EEL	4	23	[0, 0, 0]	n/a	FR1	1	R1234D
2533.4	1.616	2540118	WORD	n/a	wordpools/wordpool_EN.txt	TOOTH	5	23	[0, 0, 0]	n/a	FR1	1	R1234D
2535.016	0.8	2541733	WORD_OFF	n/a	n/a	TOOTH	5	23	[0, 0, 0]	n/a	FR1	1	R1234D
2535.816	1.601	2542533	WORD	n/a	wordpools/wordpool_EN.txt	BIRD	6	23	[0, 0, 0]	n/a	FR1	1	R1234D
2537.417	0.867	2544134	WORD_OFF	n/a	n/a	BIRD	6	23	[0, 0, 0]	n/a	FR1	1	R1234D
2538.284	1.617	2545001	WORD	n/a	wordpools/wordpool_EN.txt	STORM	7	23	[0, 0, 0]	n/a	FR1	1	R1234D
2539.901	0.766	2546618	WORD_OFF	n/a	n/a	STORM	7	23	[0, 0, 0]	n/a	FR1	1	R1234D
2540.667	1.617	2547384	WORD	n/a	wordpools/wordpool_EN.txt	ICE	8	23	[0, 0, 0]	n/a	FR1	1	R1234D
2542.284	0.884	2549001	WORD_OFF	n/a	n/a	ICE	8	23	[0, 0, 0]	n/a	FR1	1	R1234D
2543.168	1.617	2549885	WORD	n/a	wordpools/wordpool_EN.txt	LAND	9	23	[0, 0, 0]	n/a	FR1	1	R1234D
2544.785	0.883	2551502	WORD_OFF	n/a	n/a	LAND	9	23	[0, 0, 0]	n/a	FR1	1	R1234D
2545.668	1.617	2552385	WORD	n/a	wordpools/wordpool_EN.txt	SKY	10	23	[0, 0, 0]	n/a	FR1	1	R1234D
2547.285	0.95	2554002	WORD_OFF	n/a	n/a	SKY	10	23	[0, 0, 0]	n/a	FR1	1	R1234D
2548.235	1.617	2554952	WORD	n/a	wordpools/wordpool_EN.txt	CLOCK	11	23	[0, 0, 0]	n/a	FR1	1	R1234D
2549.852	0.967	2556569	WORD_OFF	n/a	n/a	CLOCK	11	23	[0, 0, 0]	n/a	FR1	1	R1234D
2550.819	1.601	2557536	WORD	n/a	wordpools/wordpool_EN.txt	DOG	12	23	[0, 0, 0]	n/a	FR1	1	R1234D
2552.42	0.0	2559136	WORD_OFF	n/a	n/a	DOG	12	23	[0, 0, 0]	n/a	FR1	1	R1234D
2552.42	0.001	2559136	DISTRACT_START	n/a	n/a	n/a	-999	23	[0, 0, 0]	n/a	FR1	1	R1234D
2552.421	0.016	2559137	START	n/a	n/a	n/a	-999	23	[-999, -999, -999]	n/a	FR1	1	R1234D
2552.437	21.419	2559153	PROB	21.419	n/a	n/a	-999	23	[7, 8, 4]	19	FR1	1	R1234D
2573.856	0.017	2580571	STOP	n/a	n/a	n/a	-999	23	[-999, -999, -999]	n/a	FR1	1	R1234D
2573.873	0.668	2580588	DISTRACT_END	n/a	n/a	n/a	-999	23	[0, 0, 0]	n/a	FR1	1	R1234D
2574.541	0.517	2581256	RETRIEVAL_ORIENT	n/a	n/a	n/a	-999	23	[0, 0, 0]	n/a	FR1	1	R1234D
2575.058	1.679	2581773	REC_START	n/a	n/a	n/a	-999	23	[0, 0, 0]	n/a	FR1	1	R1234D
2576.737	0.322	2583452	REC_WORD_VV	0.322	n/a	<>	-999	23	[0, 0, 0]	n/a	FR1	1	R1234D
2577.059	0.527	2583774	REC_WORD	0.527	n/a	STORM	-999	23	[0, 0, 0]	n/a	FR1	1	R1234D
2577.586	0.448	2584301	REC_WORD	0.448	n/a	LAND	-999	23	[0, 0, 0]	n/a	FR1	1	R1234D
2578.034	0.885	2584749	REC_WORD	0.885	n/a	SKY	-999	23	[0, 0, 0]	n/a	FR1	1	R1234D
2578.919	0.928	2585634	REC_WORD	0.928	n/a	ICE	-999	23	[0, 0, 0]	n/a	FR1	1	R1234D
2579.847	2.925	2586562	REC_WORD	2.925	n/a	EEL	-999	23	[0, 0, 0]	n/a	FR1	1	R1234D
2582.772	4.478	2589487	REC_WORD_VV	4.478	n/a	<>	-999	23	[0, 0, 0]	n/a	FR1	1	R1234D
2587.25	17.818	2593965	REC_WORD_VV	17.818	n/a	<>	-999	23	[0, 0, 0]	n/a	FR1	1	R1234D
2605.068	5.162	2611782	REC_END	n/a	n/a	n/a	-999	23	[0, 0, 0]	n/a	FR1	1	R1234D
2610.23	0.5	2616943	TRIAL	n/a	n/a	n/a	-999	24	[0, 0, 0]	n/a	FR1	1	R1234D
2610.73	10.428	2617443	COUNTDOWN_START	n/a	n/a	n/a	-999	24	[0, 0, 0]	n/a	FR1	1	R1234D
2621.158	0.008	2627871	COUNTDOWN_END	n/a	n/a	n/a	-999	24	[0, 0, 0]	n/a	FR1	1	R1234D
2621.166	1.616	2627879	ORIENT	n/a	n/a	n/a	-999	24	[0, 0, 0]	n/a	FR1	1	R1234D
2622.782	1.951	2629495	ORIENT_OFF	n/a	n/a	n/a	-999	24	[0, 0, 0]	n/a	FR1	1	R1234D
2624.733	1.617	2631445	WORD	n/a	wordpools/wordpool_EN.txt	PLATE	1	24	[0, 0, 0]	n/a	FR1	1	R1234D
2626.35	0.933	2633062	WORD_OFF	n/a	n/a	PLATE	1	24	[0, 0, 0]	n/a	FR1	1	R1234D
2627.283	1.617	2633995	WORD	n/a	wordpools/wordpool_EN.txt	VINE	2	24	[0, 0, 0]	n/a	FR1	1	R1234D
2628.9	0.8	2635612	WORD_OFF	n/a	n/a	VINE	2	24	[0, 0, 0]	n/a	FR1	1	R1234D
2629.7	1.617	2636412	WORD	n/a	wordpools/wordpool_EN.txt	CAPE	3	24	[0, 0, 0]	n/a	FR1	1	R1234D
2631.317	0.801	2638029	WORD_OFF	n/a	n/a	CAPE	3	24	[0, 0, 0]	n/a	FR1	1	R1234D
2632.118	1.616	2638830	WORD	n/a	wordpools/wordpool_EN.txt	PEACH	4	24	[0, 0, 0]	n/a	FR1	1	R1234D
2633.734	0.984	2640446	WORD_OFF	n/a	n/a	PEACH	4	24	[0, 0, 0]	n/a	FR1	1	R1234D
2634.718	1.617	2641430	WORD	n/a	wordpools/wordpool_EN.txt	BROOM	5	24	[0, 0, 0]	n/a	FR1	1	R1234D
2636.335	0.9	2643047	WORD_OFF	n/a	n/a	BROOM	5	24	[0, 0, 0]	n/a	FR1	1	R1234D
2637.235	1.617	2643947	WORD	n/a	wordpools/wordpool_EN.txt	STOOL	6	24	[0, 0, 0]	n/a	FR1	1	R1234D
2638.852	0.884	2645564	WORD_OFF	n/a	n/a	STOOL	6	24	[0, 0, 0]	n/a	FR1	1	R1234D
2639.736	1.617	2646448	WORD	n/a	wordpools/wordpool_EN.txt	KITE	7	24	[0, 0, 0]	n/a	FR1	1	R1234D
2641.353	0.883	2648065	WORD_OFF	n/a	n/a	KITE	7	24	[0, 0, 0]	n/a	FR1	1	R1234D
2642.236	1.617	2648947	WORD	n/a	wordpools/wordpool_EN.txt	GLOVE	8	24	[0, 0, 0]	n/a	FR1	1	R1234D
2643.853	0.933	2650564	WORD_OFF	n/a	n/a	GLOVE	8	24	[0, 0, 0]	n/a	FR1	1	R1234D
2644.786	1.619	2651497	WORD	n/a	wordpools/wordpool_EN.txt	STOVE	9	24	[0, 0, 0]	n/a	FR1	1	R1234D
2646.405	0.965	2653116	WORD_OFF	n/a	n/a	STOVE	9	24	[0, 0, 0]	n/a	FR1	1	R1234D
2647.37	1.617	2654081	WORD	n/a	wordpools/wordpool_EN.txt	HOSE	10	24	[0, 0, 0]	n/a	FR1	1	R1234D
2648.987	0.817	2655698	WORD_OFF	n/a	n/a	HOSE	10	24	[0, 0, 0]	n/a	FR1	1	R1234D
2649.804	1.618	2656515	WORD	n/a	wordpools/wordpool_EN.txt	FOOT	11	24	[0, 0, 0]	n/a	FR1	1	R1234D
2651.422	0.849	2658133	WORD_OFF	n/a	n/a	FOOT	11	24	[0, 0, 0]	n/a	FR1	1	R1234D
2652.271	1.617	2658982	WORD	n/a	wordpools/wordpool_EN.txt	HORN	12	24	[0, 0, 0]	n/a	FR1	1	R1234D
2653.888	0.0	2660599	WORD_OFF	n/a	n/a	HORN	12	24	[0, 0, 0]	n/a	FR1	1	R1234D
2653.888	0.001	2660599	DISTRACT_START	n/a	n/a	n/a	-999	24	[0, 0, 0]	n/a	FR1	1	R1234D
2653.889	0.016	2660600	START	n/a	n/a	n/a	-999	24	[-999, -999, -999]	n/a	FR1	1	R1234D
2653.905	8.001	2660616	PROB	8.001	n/a	n/a	-999	24	[7, 5, 7]	19	FR1	1	R1234D
2661.906	11.436	2668616	PROB	11.436	n/a	n/a	-999	24	[7, 4, 5]	16	FR1	1	R1234D
2673.342	7.083	2680052	PROB	7.083	n/a	n/a	-999	24	[4, 6, 7]	17	FR1	1	R1234D
2680.425	0.019	2687134	STOP	n/a	n/a	n/a	-999	24	[-999, -999, -999]	n/a	FR1	1	R1234D
2680.444	0.666	2687153	DISTRACT_END	n/a	n/a	n/a	-999	24	[0, 0, 0]	n/a	FR1	1	R1234D
2681.11	0.518	2687819	RETRIEVAL_ORIENT	n/a	n/a	n/a	-999	24	[0, 0, 0]	n/a	FR1	1	R1234D
2681.628	1.593	2688337	REC_START	n/a	n/a	n/a	-999	24	[0, 0, 0]	n/a	FR1	1	R1234D
2683.221	0.378	2689930	REC_WORD_VV	0.378	n/a	<>	-999	24	[0, 0, 0]	n/a	FR1	1	R1234D
2683.599	0.469	2690308	REC_WORD	0.469	n/a	FOOT	-999	24	[0, 0, 0]	n/a	FR1	1	R1234D
2684.068	2.634	2690777	REC_WORD	2.634	n/a	HOSE	-999	24	[0, 0, 0]	n/a	FR1	1	R1234D
2686.702	0.334	2693411	REC_WORD	0.334	n/a	FOOT	-999	24	[0, 0, 0]	n/a	FR1	1	R1234D
2687.036	7.306	2693745	REC_WORD	7.306	n/a	HOSE	-999	24	[0, 0, 0]	n/a	FR1	1	R1234D
2694.342	2.369	2701051	REC_WORD	2.369	n/a	KITE	-999	24	[0, 0, 0]	n/a	FR1	1	R1234D
2696.711	14.929	2703419	REC_WORD	14.929	n/a	GLOVE	-999	24	[0, 0, 0]	n/a	FR1	1	R1234D
2711.64	5.376	2718348	REC_END	n/a	n/a	n/a	-999	24	[0, 0, 0]	n/a	FR1	1	R1234D
2717.016	0.5	2723723	TRIAL	n/a	n/a	n/a	-999	25	[0, 0, 0]	n/a	FR1	1	R1234D
2717.516	10.428	2724223	COUNTDOWN_START	n/a	n/a	n/a	-999	25	[0, 0, 0]	n/a	FR1	1	R1234D
2727.944	0.008	2734651	COUNTDOWN_END	n/a	n/a	n/a	-999	25	[0, 0, 0]	n/a	FR1	1	R1234D
2727.952	1.618	2734659	ORIENT	n/a	n/a	n/a	-999	25	[0, 0, 0]	n/a	FR1	1	R1234D
2729.57	2.133	2736277	ORIENT_OFF	n/a	n/a	n/a	-999	25	[0, 0, 0]	n/a	FR1	1	R1234D
2731.703	1.616	2738409	WORD	n/a	wordpools/wordpool_EN.txt	PEARL	1	25	[0, 0, 0]	n/a	FR1	1	R1234D
2733.319	1.017	2740025	WORD_OFF	n/a	n/a	PEARL	1	25	[0, 0, 0]	n/a	FR1	1	R1234D
2734.336	1.617	2741042	WORD	n/a	wordpools/wordpool_EN.txt	BOY	2	25	[0, 0, 0]	n/a	FR1	1	R1234D
2735.953	0.85	2742659	WORD_OFF	n/a	n/a	BOY	2	25	[0, 0, 0]	n/a	FR1	1	R1234D
2736.803	1.601	2743509	WORD	n/a	wordpools/wordpool_EN.txt	WALL	3	25	[0, 0, 0]	n/a	FR1	1	R1234D
2738.404	1.001	2745110	WORD_OFF	n/a	n/a	WALL	3	25	[0, 0, 0]	n/a	FR1	1	R1234D
2739.405	1.616	2746111	WORD	n/a	wordpools/wordpool_EN.txt	PANTS	4	25	[0, 0, 0]	n/a	FR1	1	R1234D
2741.021	0.967	2747727	WORD_OFF	n/a	n/a	PANTS	4	25	[0, 0, 0]	n/a	FR1	1	R1234D
2741.988	1.618	2748694	WORD	n/a	wordpools/wordpool_EN.txt	OWL	5	25	[0, 0, 0]	n/a	FR1	1	R1234D
2743.606	0.866	2750312	WORD_OFF	n/a	n/a	OWL	5	25	[0, 0, 0]	n/a	FR1	1	R1234D
2744.472	1.616	2751178	WORD	n/a	wordpools/wordpool_EN.txt	STORE	6	25	[0, 0, 0]	n/a	FR1	1	R1234D
2746.088	0.817	2752794	WORD_OFF	n/a	n/a	STORE	6	25	[0, 0, 0]	n/a	FR1	1	R1234D
2746.905	1.618	2753611	WORD	n/a	wordpools/wordpool_EN.txt	WEED	7	25	[0, 0, 0]	n/a	FR1	1	R1234D
2748.523	0.934	2755229	WORD_OFF	n/a	n/a	WEED	7	25	[0, 0, 0]	n/a	FR1	1	R1234D
2749.457	1.616	2756162	WORD	n/a	wordpools/wordpool_EN.txt	TRASH	8	25	[0, 0, 0]	n/a	FR1	1	R1234D
2751.073	0.816	2757778	WORD_OFF	n/a	n/a	TRASH	8	25	[0, 0, 0]	n/a	FR1	1	R1234D
2751.889	1.618	2758594	WORD	n/a	wordpools/wordpool_EN.txt	POLE	9	25	[0, 0, 0]	n/a	FR1	1	R1234D
2753.507	0.967	2760212	WORD_OFF	n/a	n/a	POLE	9	25	[0, 0, 0]	n/a	FR1	1	R1234D
2754.474	1.616	2761179	WORD	n/a	wordpools/wordpool_EN.txt	PHONE	10	25	[0, 0, 0]	n/a	FR1	1	R1234D
2756.09	1.017	2762795	WORD_OFF	n/a	n/a	PHONE	10	25	[0, 0, 0]	n/a	FR1	1	R1234D
2757.107	1.617	2763812	WORD	n/a	wordpools/wordpool_EN.txt	PLANT	11	25	[0, 0, 0]	n/a	FR1	1	R1234D
2758.724	0.967	2765429	WORD_OFF	n/a	n/a	PLANT	11	25	[0, 0, 0]	n/a	FR1	1	R1234D
2759.691	1.617	2766396	WORD	n/a	wordpools/wordpool_EN.txt	SHIELD	12	25	[0, 0, 0]	n/a	FR1	1	R1234D
2761.308	0.0	2768013	WORD_OFF	n/a	n/a	SHIELD	12	25	[0, 0, 0]	n/a	FR1	1	R1234D
2761.308	0.0	2768013	DISTRACT_START	n/a	n/a	n/a	-999	25	[0, 0, 0]	n/a	FR1	1	R1234D
2761.308	0.017	2768013	START	n/a	n/a	n/a	-999	25	[-999, -999, -999]	n/a	FR1	1	R1234D
2761.325	4.534	2768030	PROB	4.534	n/a	n/a	-999	25	[6, 1, 6]	13	FR1	1	R1234D
2765.859	11.318	2772564	PROB	11.318	n/a	n/a	-999	25	[6, 9, 7]	22	FR1	1	R1234D
2777.177	5.255	2783881	PROB	5.255	n/a	n/a	-999	25	[2, 2, 8]	12	FR1	1	R1234D
2782.432	0.014	2789136	STOP	n/a	n/a	n/a	-999	25	[-999, -999, -999]	n/a	FR1	1	R1234D
2782.446	0.683	2789150	DISTRACT_END	n/a	n/a	n/a	-999	25	[0, 0, 0]	n/a	FR1	1	R1234D
2783.129	0.517	2789833	RETRIEVAL_ORIENT	n/a	n/a	n/a	-999	25	[0, 0, 0]	n/a	FR1	1	R1234D
2783.646	1.863	2790350	REC_START	n/a	n/a	n/a	-999	25	[0, 0, 0]	n/a	FR1	1	R1234D
2785.509	0.151	2792212	REC_WORD_VV	0.151	n/a	<>	-999	25	[0, 0, 0]	n/a	FR1	1	R1234D
2785.66	2.152	2792363	REC_WORD	2.152	n/a	PHONE	-999	25	[0, 0, 0]	n/a	FR1	1	R1234D
2787.812	3.298	2794515	REC_WORD	3.298	n/a	PANTS	-999	25	[0, 0, 0]	n/a	FR1	1	R1234D
2791.11	0.344	2797813	REC_WORD	0.344	n/a	PHONE	-999	25	[0, 0, 0]	n/a	FR1	1	R1234D
2791.454	2.028	2798157	REC_WORD	2.028	n/a	PANTS	-999	25	[0, 0, 0]	n/a	FR1	1	R1234D
2793.482	7.935	2800185	REC_WORD	7.935	n/a	WALL	-999	25	[0, 0, 0]	n/a	FR1	1	R1234D
2801.417	12.239	2808120	REC_WORD	12.239	n/a	SHIELD	-999	25	[0, 0, 0]	n/a	FR1	1	R1234D
2813.656	23.516	2820358	REC_END	n/a	n/a	n/a	-999	25	[0, 0, 0]	n/a	FR1	1	R1234D
2837.172	0.0	2843873	SESS_END	n/a	n/a	n/a	-999	25	[0, 0, 0]	n/a	FR1	1	R1234D
