onset	duration	sample	trial_type	response_time	stim_file	item_name	serialpos	list	test	answer	experiment	session	subject
0.0	0.0	230427	INSTRUCT_START	n/a	n/a	n/a	-999	-999	[0, 0, 0]	n/a	FR1	0	R1250N
0.0	10.981	230427	INSTRUCT_END	n/a	n/a	n/a	-999	-999	[0, 0, 0]	n/a	FR1	0	R1250N
10.981	0.0	241408	SESS_START	n/a	n/a	n/a	-999	-999	[0, 0, 0]	n/a	FR1	0	R1250N
10.981	532.247	241408	MIC_TEST	n/a	n/a	n/a	-999	-999	[0, 0, 0]	n/a	FR1	0	R1250N
543.228	11.416	773663	PRACTICE_TRIAL	n/a	n/a	n/a	-999	-1	[0, 0, 0]	n/a	FR1	0	R1250N
554.644	10.428	785079	COUNTDOWN_START	n/a	n/a	n/a	-999	-1	[0, 0, 0]	n/a	FR1	0	R1250N
565.072	0.006	795508	COUNTDOWN_END	n/a	n/a	n/a	-999	-1	[0, 0, 0]	n/a	FR1	0	R1250N
565.078	1.616	795514	PRACTICE_ORIENT	n/a	n/a	n/a	-999	-1	[0, 0, 0]	n/a	FR1	0	R1250N
566.694	2.218	797130	PRACTICE_ORIENT_OFF	n/a	n/a	n/a	-999	-1	[0, 0, 0]	n/a	FR1	0	R1250N
568.912	1.616	799348	PRACTICE_WORD	n/a	n/a	CAMEL	1	-1	[0, 0, 0]	n/a	FR1	0	R1250N
570.528	1.0	800964	PRACTICE_WORD_OFF	n/a	n/a	CAMEL	-999	-1	[0, 0, 0]	n/a	FR1	0	R1250N
571.528	1.618	801964	PRACTICE_WORD	n/a	n/a	WAGON	2	-1	[0, 0, 0]	n/a	FR1	0	R1250N
573.146	0.967	803582	PRACTICE_WORD_OFF	n/a	n/a	WAGON	-999	-1	[0, 0, 0]	n/a	FR1	0	R1250N
574.113	1.616	804549	PRACTICE_WORD	n/a	n/a	ATTIC	3	-1	[0, 0, 0]	n/a	FR1	0	R1250N
575.729	0.966	806165	PRACTICE_WORD_OFF	n/a	n/a	ATTIC	-999	-1	[0, 0, 0]	n/a	FR1	0	R1250N
576.695	1.618	807131	PRACTICE_WORD	n/a	n/a	BEAM	4	-1	[0, 0, 0]	n/a	FR1	0	R1250N
578.313	0.8	808749	PRACTICE_WORD_OFF	n/a	n/a	BEAM	-999	-1	[0, 0, 0]	n/a	FR1	0	R1250N
579.113	1.617	809549	PRACTICE_WORD	n/a	n/a	COTTON	5	-1	[0, 0, 0]	n/a	FR1	0	R1250N
580.73	0.766	811166	PRACTICE_WORD_OFF	n/a	n/a	COTTON	-999	-1	[0, 0, 0]	n/a	FR1	0	R1250N
581.496	1.617	811932	PRACTICE_WORD	n/a	n/a	TONGUE	6	-1	[0, 0, 0]	n/a	FR1	0	R1250N
583.113	0.767	813549	PRACTICE_WORD_OFF	n/a	n/a	TONGUE	-999	-1	[0, 0, 0]	n/a	FR1	0	R1250N
583.88	1.616	814316	PRACTICE_WORD	n/a	n/a	FLOOD	7	-1	[0, 0, 0]	n/a	FR1	0	R1250N
585.496	0.967	815932	PRACTICE_WORD_OFF	n/a	n/a	FLOOD	-999	-1	[0, 0, 0]	n/a	FR1	0	R1250N
586.463	1.618	816899	PRACTICE_WORD	n/a	n/a	RHINO	8	-1	[0, 0, 0]	n/a	FR1	0	R1250N
588.081	0.983	818517	PRACTICE_WORD_OFF	n/a	n/a	RHINO	-999	-1	[0, 0, 0]	n/a	FR1	0	R1250N
589.064	1.616	819500	PRACTICE_WORD	n/a	n/a	WATCH	9	-1	[0, 0, 0]	n/a	FR1	0	R1250N
590.68	0.767	821116	PRACTICE_WORD_OFF	n/a	n/a	WATCH	-999	-1	[0, 0, 0]	n/a	FR1	0	R1250N
591.447	1.617	821883	PRACTICE_WORD	n/a	n/a	IRON	10	-1	[0, 0, 0]	n/a	FR1	0	R1250N
593.064	0.917	823500	PRACTICE_WORD_OFF	n/a	n/a	IRON	-999	-1	[0, 0, 0]	n/a	FR1	0	R1250N
593.981	1.616	824417	PRACTICE_WORD	n/a	n/a	RING	11	-1	[0, 0, 0]	n/a	FR1	0	R1250N
595.597	0.917	826033	PRACTICE_WORD_OFF	n/a	n/a	RING	-999	-1	[0, 0, 0]	n/a	FR1	0	R1250N
596.514	1.618	826950	PRACTICE_WORD	n/a	n/a	CHEST	12	-1	[0, 0, 0]	n/a	FR1	0	R1250N
598.132	0.0	828568	PRACTICE_WORD_OFF	n/a	n/a	CHEST	-999	-1	[0, 0, 0]	n/a	FR1	0	R1250N
598.132	0.0	828568	DISTRACT_START	n/a	n/a	n/a	-999	-1	[0, 0, 0]	n/a	FR1	0	R1250N
598.132	0.016	828568	START	n/a	n/a	n/a	-999	-1	[-999, -999, -999]	n/a	FR1	0	R1250N
598.148	6.2	828584	PROB	6.2	n/a	n/a	-999	-1	[8, 1, 5]	14	FR1	0	R1250N
604.348	5.602	834784	PROB	5.602	n/a	n/a	-999	-1	[2, 9, 4]	15	FR1	0	R1250N
609.95	6.433	840386	PROB	6.433	n/a	n/a	-999	-1	[1, 3, 9]	13	FR1	0	R1250N
616.383	5.396	846819	PROB	5.396	n/a	n/a	-999	-1	[2, 4, 9]	15	FR1	0	R1250N
621.779	0.005	852215	STOP	n/a	n/a	n/a	-999	-1	[-999, -999, -999]	n/a	FR1	0	R1250N
621.784	0.517	852220	DISTRACT_END	n/a	n/a	n/a	-999	-1	[0, 0, 0]	n/a	FR1	0	R1250N
622.301	0.52	852737	RETRIEVAL_ORIENT	n/a	n/a	n/a	-999	-1	[0, 0, 0]	n/a	FR1	0	R1250N
622.821	30.008	853257	PRACTICE_REC_START	n/a	n/a	n/a	-999	-1	[0, 0, 0]	n/a	FR1	0	R1250N
652.829	24.261	883266	PRACTICE_REC_END	n/a	n/a	n/a	-999	-1	[0, 0, 0]	n/a	FR1	0	R1250N
677.09	0.5	907527	TRIAL	n/a	n/a	n/a	-999	1	[0, 0, 0]	n/a	FR1	0	R1250N
677.59	10.428	908027	COUNTDOWN_START	n/a	n/a	n/a	-999	1	[0, 0, 0]	n/a	FR1	0	R1250N
688.018	0.007	918455	COUNTDOWN_END	n/a	n/a	n/a	-999	1	[0, 0, 0]	n/a	FR1	0	R1250N
688.025	1.616	918462	ORIENT	n/a	n/a	n/a	-999	1	[0, 0, 0]	n/a	FR1	0	R1250N
689.641	1.966	920078	ORIENT_OFF	n/a	n/a	n/a	-999	1	[0, 0, 0]	n/a	FR1	0	R1250N
691.607	1.601	922045	WORD	n/a	wordpools/wordpool_EN.txt	SHRIMP	1	1	[0, 0, 0]	n/a	FR1	0	R1250N
693.208	0.867	923646	WORD_OFF	n/a	n/a	SHRIMP	1	1	[0, 0, 0]	n/a	FR1	0	R1250N
694.075	1.616	924513	WORD	n/a	wordpools/wordpool_EN.txt	BOAT	2	1	[0, 0, 0]	n/a	FR1	0	R1250N
695.691	0.884	926129	WORD_OFF	n/a	n/a	BOAT	2	1	[0, 0, 0]	n/a	FR1	0	R1250N
696.575	1.617	927013	WORD	n/a	wordpools/wordpool_EN.txt	WING	3	1	[0, 0, 0]	n/a	FR1	0	R1250N
698.192	0.951	928630	WORD_OFF	n/a	n/a	WING	3	1	[0, 0, 0]	n/a	FR1	0	R1250N
699.143	1.616	929581	WORD	n/a	wordpools/wordpool_EN.txt	SAIL	4	1	[0, 0, 0]	n/a	FR1	0	R1250N
700.759	0.899	931197	WORD_OFF	n/a	n/a	SAIL	4	1	[0, 0, 0]	n/a	FR1	0	R1250N
701.658	1.601	932096	WORD	n/a	wordpools/wordpool_EN.txt	SUN	5	1	[0, 0, 0]	n/a	FR1	0	R1250N
703.259	0.767	933697	WORD_OFF	n/a	n/a	SUN	5	1	[0, 0, 0]	n/a	FR1	0	R1250N
704.026	1.616	934464	WORD	n/a	wordpools/wordpool_EN.txt	FLAG	6	1	[0, 0, 0]	n/a	FR1	0	R1250N
705.642	0.95	936080	WORD_OFF	n/a	n/a	FLAG	6	1	[0, 0, 0]	n/a	FR1	0	R1250N
706.592	1.618	937030	WORD	n/a	wordpools/wordpool_EN.txt	TANK	7	1	[0, 0, 0]	n/a	FR1	0	R1250N
708.21	1.0	938648	WORD_OFF	n/a	n/a	TANK	7	1	[0, 0, 0]	n/a	FR1	0	R1250N
709.21	1.617	939648	WORD	n/a	wordpools/wordpool_EN.txt	BEACH	8	1	[0, 0, 0]	n/a	FR1	0	R1250N
710.827	0.95	941265	WORD_OFF	n/a	n/a	BEACH	8	1	[0, 0, 0]	n/a	FR1	0	R1250N
711.777	1.616	942215	WORD	n/a	wordpools/wordpool_EN.txt	SKY	9	1	[0, 0, 0]	n/a	FR1	0	R1250N
713.393	0.934	943831	WORD_OFF	n/a	n/a	SKY	9	1	[0, 0, 0]	n/a	FR1	0	R1250N
714.327	1.617	944765	WORD	n/a	wordpools/wordpool_EN.txt	FISH	10	1	[0, 0, 0]	n/a	FR1	0	R1250N
715.944	0.85	946382	WORD_OFF	n/a	n/a	FISH	10	1	[0, 0, 0]	n/a	FR1	0	R1250N
716.794	1.616	947232	WORD	n/a	wordpools/wordpool_EN.txt	DART	11	1	[0, 0, 0]	n/a	FR1	0	R1250N
718.41	0.868	948848	WORD_OFF	n/a	n/a	DART	11	1	[0, 0, 0]	n/a	FR1	0	R1250N
719.278	1.617	949716	WORD	n/a	wordpools/wordpool_EN.txt	FOAM	12	1	[0, 0, 0]	n/a	FR1	0	R1250N
720.895	0.0	951333	WORD_OFF	n/a	n/a	FOAM	12	1	[0, 0, 0]	n/a	FR1	0	R1250N
720.895	0.0	951333	DISTRACT_START	n/a	n/a	n/a	-999	1	[0, 0, 0]	n/a	FR1	0	R1250N
720.895	0.017	951333	START	n/a	n/a	n/a	-999	1	[-999, -999, -999]	n/a	FR1	0	R1250N
720.912	7.25	951350	PROB	7.25	n/a	n/a	-999	1	[4, 4, 1]	9	FR1	0	R1250N
728.162	5.45	958600	PROB	5.45	n/a	n/a	-999	1	[1, 4, 3]	8	FR1	0	R1250N
733.612	3.767	964050	PROB	3.767	n/a	n/a	-999	1	[5, 3, 1]	9	FR1	0	R1250N
737.379	3.904	967817	PROB	3.904	n/a	n/a	-999	1	[2, 1, 8]	11	FR1	0	R1250N
741.283	0.014	971721	STOP	n/a	n/a	n/a	-999	1	[-999, -999, -999]	n/a	FR1	0	R1250N
741.297	0.6	971735	DISTRACT_END	n/a	n/a	n/a	-999	1	[0, 0, 0]	n/a	FR1	0	R1250N
741.897	0.516	972335	RETRIEVAL_ORIENT	n/a	n/a	n/a	-999	1	[0, 0, 0]	n/a	FR1	0	R1250N
742.413	3.528	972851	REC_START	n/a	n/a	n/a	-999	1	[0, 0, 0]	n/a	FR1	0	R1250N
745.941	2.288	976379	REC_WORD	2.288	n/a	SUN	-999	1	[0, 0, 0]	n/a	FR1	0	R1250N
748.229	3.969	978667	REC_WORD	3.969	n/a	SKY	-999	1	[0, 0, 0]	n/a	FR1	0	R1250N
752.198	2.648	982636	REC_WORD	2.648	n/a	FLAG	-999	1	[0, 0, 0]	n/a	FR1	0	R1250N
754.846	2.122	985285	REC_WORD	2.122	n/a	TANK	-999	1	[0, 0, 0]	n/a	FR1	0	R1250N
756.968	3.082	987407	REC_WORD	3.082	n/a	DART	-999	1	[0, 0, 0]	n/a	FR1	0	R1250N
760.05	2.098	990489	REC_WORD	2.098	n/a	WING	-999	1	[0, 0, 0]	n/a	FR1	0	R1250N
762.148	8.228	992587	REC_WORD_VV	8.228	n/a	<>	-999	1	[0, 0, 0]	n/a	FR1	0	R1250N
770.376	2.048	1000815	REC_WORD	2.048	n/a	BOAT	-999	1	[0, 0, 0]	n/a	FR1	0	R1250N
772.424	7.677	1002863	REC_END	n/a	n/a	n/a	-999	1	[0, 0, 0]	n/a	FR1	0	R1250N
780.101	0.5	1010540	TRIAL	n/a	n/a	n/a	-999	2	[0, 0, 0]	n/a	FR1	0	R1250N
780.601	10.428	1011040	COUNTDOWN_START	n/a	n/a	n/a	-999	2	[0, 0, 0]	n/a	FR1	0	R1250N
791.029	0.007	1021468	COUNTDOWN_END	n/a	n/a	n/a	-999	2	[0, 0, 0]	n/a	FR1	0	R1250N
791.036	1.616	1021475	ORIENT	n/a	n/a	n/a	-999	2	[0, 0, 0]	n/a	FR1	0	R1250N
792.652	2.234	1023091	ORIENT_OFF	n/a	n/a	n/a	-999	2	[0, 0, 0]	n/a	FR1	0	R1250N
794.886	1.616	1025325	WORD	n/a	wordpools/wordpool_EN.txt	TENT	1	2	[0, 0, 0]	n/a	FR1	0	R1250N
796.502	0.9	1026941	WORD_OFF	n/a	n/a	TENT	1	2	[0, 0, 0]	n/a	FR1	0	R1250N
797.402	1.601	1027841	WORD	n/a	wordpools/wordpool_EN.txt	CHAIR	2	2	[0, 0, 0]	n/a	FR1	0	R1250N
799.003	0.9	1029442	WORD_OFF	n/a	n/a	CHAIR	2	2	[0, 0, 0]	n/a	FR1	0	R1250N
799.903	1.616	1030342	WORD	n/a	wordpools/wordpool_EN.txt	TRUCK	3	2	[0, 0, 0]	n/a	FR1	0	R1250N
801.519	0.984	1031958	WORD_OFF	n/a	n/a	TRUCK	3	2	[0, 0, 0]	n/a	FR1	0	R1250N
802.503	1.618	1032942	WORD	n/a	wordpools/wordpool_EN.txt	BROOM	4	2	[0, 0, 0]	n/a	FR1	0	R1250N
804.121	0.883	1034560	WORD_OFF	n/a	n/a	BROOM	4	2	[0, 0, 0]	n/a	FR1	0	R1250N
805.004	1.616	1035443	WORD	n/a	wordpools/wordpool_EN.txt	BLUSH	5	2	[0, 0, 0]	n/a	FR1	0	R1250N
806.62	0.833	1037059	WORD_OFF	n/a	n/a	BLUSH	5	2	[0, 0, 0]	n/a	FR1	0	R1250N
807.453	1.601	1037892	WORD	n/a	wordpools/wordpool_EN.txt	HILL	6	2	[0, 0, 0]	n/a	FR1	0	R1250N
809.054	0.917	1039493	WORD_OFF	n/a	n/a	HILL	6	2	[0, 0, 0]	n/a	FR1	0	R1250N
809.971	1.616	1040410	WORD	n/a	wordpools/wordpool_EN.txt	HAND	7	2	[0, 0, 0]	n/a	FR1	0	R1250N
811.587	0.867	1042026	WORD_OFF	n/a	n/a	HAND	7	2	[0, 0, 0]	n/a	FR1	0	R1250N
812.454	1.618	1042893	WORD	n/a	wordpools/wordpool_EN.txt	GUARD	8	2	[0, 0, 0]	n/a	FR1	0	R1250N
814.072	0.883	1044511	WORD_OFF	n/a	n/a	GUARD	8	2	[0, 0, 0]	n/a	FR1	0	R1250N
814.955	1.616	1045394	WORD	n/a	wordpools/wordpool_EN.txt	HOLE	9	2	[0, 0, 0]	n/a	FR1	0	R1250N
816.571	0.8	1047010	WORD_OFF	n/a	n/a	HOLE	9	2	[0, 0, 0]	n/a	FR1	0	R1250N
817.371	1.618	1047810	WORD	n/a	wordpools/wordpool_EN.txt	BED	10	2	[0, 0, 0]	n/a	FR1	0	R1250N
818.989	0.867	1049429	WORD_OFF	n/a	n/a	BED	10	2	[0, 0, 0]	n/a	FR1	0	R1250N
819.856	1.615	1050296	WORD	n/a	wordpools/wordpool_EN.txt	STICK	11	2	[0, 0, 0]	n/a	FR1	0	R1250N
821.471	0.917	1051911	WORD_OFF	n/a	n/a	STICK	11	2	[0, 0, 0]	n/a	FR1	0	R1250N
822.388	1.601	1052828	WORD	n/a	wordpools/wordpool_EN.txt	SHOE	12	2	[0, 0, 0]	n/a	FR1	0	R1250N
823.989	0.0	1054429	WORD_OFF	n/a	n/a	SHOE	12	2	[0, 0, 0]	n/a	FR1	0	R1250N
823.989	0.001	1054429	DISTRACT_START	n/a	n/a	n/a	-999	2	[0, 0, 0]	n/a	FR1	0	R1250N
823.99	0.016	1054430	START	n/a	n/a	n/a	-999	2	[-999, -999, -999]	n/a	FR1	0	R1250N
824.006	4.767	1054446	PROB	4.767	n/a	n/a	-999	2	[3, 9, 1]	13	FR1	0	R1250N
828.773	6.051	1059213	PROB	6.051	n/a	n/a	-999	2	[8, 1, 6]	15	FR1	0	R1250N
834.824	9.629	1065264	PROB	9.629	n/a	n/a	-999	2	[7, 6, 6]	19	FR1	0	R1250N
844.453	0.004	1074893	STOP	n/a	n/a	n/a	-999	2	[-999, -999, -999]	n/a	FR1	0	R1250N
844.457	0.685	1074897	DISTRACT_END	n/a	n/a	n/a	-999	2	[0, 0, 0]	n/a	FR1	0	R1250N
845.142	0.516	1075582	RETRIEVAL_ORIENT	n/a	n/a	n/a	-999	2	[0, 0, 0]	n/a	FR1	0	R1250N
845.658	2.372	1076098	REC_START	n/a	n/a	n/a	-999	2	[0, 0, 0]	n/a	FR1	0	R1250N
848.03	2.008	1078470	REC_WORD	2.008	n/a	TENT	-999	2	[0, 0, 0]	n/a	FR1	0	R1250N
850.038	2.065	1080478	REC_WORD	2.065	n/a	HOLE	-999	2	[0, 0, 0]	n/a	FR1	0	R1250N
852.103	1.785	1082543	REC_WORD	1.785	n/a	HAND	-999	2	[0, 0, 0]	n/a	FR1	0	R1250N
853.888	11.219	1084328	REC_WORD	11.219	n/a	SHOE	-999	2	[0, 0, 0]	n/a	FR1	0	R1250N
865.107	10.56	1095547	REC_WORD	10.56	n/a	MOUNTAIN	-999	2	[0, 0, 0]	n/a	FR1	0	R1250N
875.667	6.562	1106107	REC_END	n/a	n/a	n/a	-999	2	[0, 0, 0]	n/a	FR1	0	R1250N
882.229	0.5	1112669	TRIAL	n/a	n/a	n/a	-999	3	[0, 0, 0]	n/a	FR1	0	R1250N
882.729	10.428	1113169	COUNTDOWN_START	n/a	n/a	n/a	-999	3	[0, 0, 0]	n/a	FR1	0	R1250N
893.157	0.006	1123598	COUNTDOWN_END	n/a	n/a	n/a	-999	3	[0, 0, 0]	n/a	FR1	0	R1250N
893.163	1.617	1123604	ORIENT	n/a	n/a	n/a	-999	3	[0, 0, 0]	n/a	FR1	0	R1250N
894.78	1.899	1125221	ORIENT_OFF	n/a	n/a	n/a	-999	3	[0, 0, 0]	n/a	FR1	0	R1250N
896.679	1.618	1127120	WORD	n/a	wordpools/wordpool_EN.txt	FLUTE	1	3	[0, 0, 0]	n/a	FR1	0	R1250N
898.297	0.934	1128738	WORD_OFF	n/a	n/a	FLUTE	1	3	[0, 0, 0]	n/a	FR1	0	R1250N
899.231	1.617	1129672	WORD	n/a	wordpools/wordpool_EN.txt	DRESS	2	3	[0, 0, 0]	n/a	FR1	0	R1250N
900.848	0.883	1131289	WORD_OFF	n/a	n/a	DRESS	2	3	[0, 0, 0]	n/a	FR1	0	R1250N
901.731	1.616	1132172	WORD	n/a	wordpools/wordpool_EN.txt	GATE	3	3	[0, 0, 0]	n/a	FR1	0	R1250N
903.347	0.918	1133788	WORD_OFF	n/a	n/a	GATE	3	3	[0, 0, 0]	n/a	FR1	0	R1250N
904.265	1.616	1134706	WORD	n/a	wordpools/wordpool_EN.txt	POOL	4	3	[0, 0, 0]	n/a	FR1	0	R1250N
905.881	0.766	1136322	WORD_OFF	n/a	n/a	POOL	4	3	[0, 0, 0]	n/a	FR1	0	R1250N
906.647	1.601	1137088	WORD	n/a	wordpools/wordpool_EN.txt	VASE	5	3	[0, 0, 0]	n/a	FR1	0	R1250N
908.248	0.851	1138689	WORD_OFF	n/a	n/a	VASE	5	3	[0, 0, 0]	n/a	FR1	0	R1250N
909.099	1.616	1139540	WORD	n/a	wordpools/wordpool_EN.txt	FAN	6	3	[0, 0, 0]	n/a	FR1	0	R1250N
910.715	0.932	1141156	WORD_OFF	n/a	n/a	FAN	6	3	[0, 0, 0]	n/a	FR1	0	R1250N
911.647	1.619	1142088	WORD	n/a	wordpools/wordpool_EN.txt	CLOTH	7	3	[0, 0, 0]	n/a	FR1	0	R1250N
913.266	0.833	1143707	WORD_OFF	n/a	n/a	CLOTH	7	3	[0, 0, 0]	n/a	FR1	0	R1250N
914.099	1.617	1144540	WORD	n/a	wordpools/wordpool_EN.txt	YARD	8	3	[0, 0, 0]	n/a	FR1	0	R1250N
915.716	0.766	1146157	WORD_OFF	n/a	n/a	YARD	8	3	[0, 0, 0]	n/a	FR1	0	R1250N
916.482	1.617	1146923	WORD	n/a	wordpools/wordpool_EN.txt	SHIELD	9	3	[0, 0, 0]	n/a	FR1	0	R1250N
918.099	0.967	1148540	WORD_OFF	n/a	n/a	SHIELD	9	3	[0, 0, 0]	n/a	FR1	0	R1250N
919.066	1.616	1149507	WORD	n/a	wordpools/wordpool_EN.txt	THREAD	10	3	[0, 0, 0]	n/a	FR1	0	R1250N
920.682	0.833	1151123	WORD_OFF	n/a	n/a	THREAD	10	3	[0, 0, 0]	n/a	FR1	0	R1250N
921.515	1.601	1151956	WORD	n/a	wordpools/wordpool_EN.txt	NAIL	11	3	[0, 0, 0]	n/a	FR1	0	R1250N
923.116	0.984	1153557	WORD_OFF	n/a	n/a	NAIL	11	3	[0, 0, 0]	n/a	FR1	0	R1250N
924.1	1.617	1154541	WORD	n/a	wordpools/wordpool_EN.txt	BENCH	12	3	[0, 0, 0]	n/a	FR1	0	R1250N
925.717	0.0	1156158	WORD_OFF	n/a	n/a	BENCH	12	3	[0, 0, 0]	n/a	FR1	0	R1250N
925.717	0.0	1156158	DISTRACT_START	n/a	n/a	n/a	-999	3	[0, 0, 0]	n/a	FR1	0	R1250N
925.717	0.017	1156158	START	n/a	n/a	n/a	-999	3	[-999, -999, -999]	n/a	FR1	0	R1250N
925.734	5.233	1156175	PROB	5.233	n/a	n/a	-999	3	[9, 7, 8]	21	FR1	0	R1250N
930.967	5.433	1161408	PROB	5.433	n/a	n/a	-999	3	[4, 6, 7]	17	FR1	0	R1250N
936.4	4.318	1166841	PROB	4.318	n/a	n/a	-999	3	[1, 6, 3]	10	FR1	0	R1250N
940.718	6.935	1171159	PROB	6.935	n/a	n/a	-999	3	[7, 4, 5]	16	FR1	0	R1250N
947.653	0.015	1178095	STOP	n/a	n/a	n/a	-999	3	[-999, -999, -999]	n/a	FR1	0	R1250N
947.668	0.684	1178110	DISTRACT_END	n/a	n/a	n/a	-999	3	[0, 0, 0]	n/a	FR1	0	R1250N
948.352	0.518	1178794	RETRIEVAL_ORIENT	n/a	n/a	n/a	-999	3	[0, 0, 0]	n/a	FR1	0	R1250N
948.87	1.519	1179312	REC_START	n/a	n/a	n/a	-999	3	[0, 0, 0]	n/a	FR1	0	R1250N
950.389	1.226	1180831	REC_WORD	1.226	n/a	FLUTE	-999	3	[0, 0, 0]	n/a	FR1	0	R1250N
951.615	1.932	1182057	REC_WORD	1.932	n/a	SHIELD	-999	3	[0, 0, 0]	n/a	FR1	0	R1250N
953.547	2.398	1183989	REC_WORD	2.398	n/a	THREAD	-999	3	[0, 0, 0]	n/a	FR1	0	R1250N
955.945	22.935	1186387	REC_WORD	22.935	n/a	CLOTH	-999	3	[0, 0, 0]	n/a	FR1	0	R1250N
978.88	7.459	1209322	REC_END	n/a	n/a	n/a	-999	3	[0, 0, 0]	n/a	FR1	0	R1250N
986.339	0.5	1216781	TRIAL	n/a	n/a	n/a	-999	4	[0, 0, 0]	n/a	FR1	0	R1250N
986.839	10.428	1217281	COUNTDOWN_START	n/a	n/a	n/a	-999	4	[0, 0, 0]	n/a	FR1	0	R1250N
997.267	0.008	1227709	COUNTDOWN_END	n/a	n/a	n/a	-999	4	[0, 0, 0]	n/a	FR1	0	R1250N
997.275	1.616	1227717	ORIENT	n/a	n/a	n/a	-999	4	[0, 0, 0]	n/a	FR1	0	R1250N
998.891	2.201	1229333	ORIENT_OFF	n/a	n/a	n/a	-999	4	[0, 0, 0]	n/a	FR1	0	R1250N
1001.092	1.617	1231534	WORD	n/a	wordpools/wordpool_EN.txt	PEA	1	4	[0, 0, 0]	n/a	FR1	0	R1250N
1002.709	0.932	1233151	WORD_OFF	n/a	n/a	PEA	1	4	[0, 0, 0]	n/a	FR1	0	R1250N
1003.641	1.601	1234083	WORD	n/a	wordpools/wordpool_EN.txt	LIP	2	4	[0, 0, 0]	n/a	FR1	0	R1250N
1005.242	0.967	1235684	WORD_OFF	n/a	n/a	LIP	2	4	[0, 0, 0]	n/a	FR1	0	R1250N
1006.209	1.617	1236651	WORD	n/a	wordpools/wordpool_EN.txt	TIE	3	4	[0, 0, 0]	n/a	FR1	0	R1250N
1007.826	1.0	1238268	WORD_OFF	n/a	n/a	TIE	3	4	[0, 0, 0]	n/a	FR1	0	R1250N
1008.826	1.616	1239268	WORD	n/a	wordpools/wordpool_EN.txt	MOUTH	4	4	[0, 0, 0]	n/a	FR1	0	R1250N
1010.442	0.817	1240884	WORD_OFF	n/a	n/a	MOUTH	4	4	[0, 0, 0]	n/a	FR1	0	R1250N
1011.259	1.617	1241701	WORD	n/a	wordpools/wordpool_EN.txt	LAMP	5	4	[0, 0, 0]	n/a	FR1	0	R1250N
1012.876	1.0	1243319	WORD_OFF	n/a	n/a	LAMP	5	4	[0, 0, 0]	n/a	FR1	0	R1250N
1013.876	1.616	1244319	WORD	n/a	wordpools/wordpool_EN.txt	DIME	6	4	[0, 0, 0]	n/a	FR1	0	R1250N
1015.492	0.785	1245935	WORD_OFF	n/a	n/a	DIME	6	4	[0, 0, 0]	n/a	FR1	0	R1250N
1016.277	1.616	1246720	WORD	n/a	wordpools/wordpool_EN.txt	COUCH	7	4	[0, 0, 0]	n/a	FR1	0	R1250N
1017.893	0.817	1248336	WORD_OFF	n/a	n/a	COUCH	7	4	[0, 0, 0]	n/a	FR1	0	R1250N
1018.71	1.616	1249153	WORD	n/a	wordpools/wordpool_EN.txt	TOE	8	4	[0, 0, 0]	n/a	FR1	0	R1250N
1020.326	0.768	1250769	WORD_OFF	n/a	n/a	TOE	8	4	[0, 0, 0]	n/a	FR1	0	R1250N
1021.094	1.617	1251537	WORD	n/a	wordpools/wordpool_EN.txt	TEA	9	4	[0, 0, 0]	n/a	FR1	0	R1250N
1022.711	0.782	1253154	WORD_OFF	n/a	n/a	TEA	9	4	[0, 0, 0]	n/a	FR1	0	R1250N
1023.493	1.601	1253936	WORD	n/a	wordpools/wordpool_EN.txt	WALL	10	4	[0, 0, 0]	n/a	FR1	0	R1250N
1025.094	0.9	1255537	WORD_OFF	n/a	n/a	WALL	10	4	[0, 0, 0]	n/a	FR1	0	R1250N
1025.994	1.616	1256437	WORD	n/a	wordpools/wordpool_EN.txt	FLOOR	11	4	[0, 0, 0]	n/a	FR1	0	R1250N
1027.61	0.984	1258053	WORD_OFF	n/a	n/a	FLOOR	11	4	[0, 0, 0]	n/a	FR1	0	R1250N
1028.594	1.618	1259037	WORD	n/a	wordpools/wordpool_EN.txt	RICE	12	4	[0, 0, 0]	n/a	FR1	0	R1250N
1030.212	0.0	1260655	WORD_OFF	n/a	n/a	RICE	12	4	[0, 0, 0]	n/a	FR1	0	R1250N
1030.212	0.0	1260655	DISTRACT_START	n/a	n/a	n/a	-999	4	[0, 0, 0]	n/a	FR1	0	R1250N
1030.212	0.016	1260655	START	n/a	n/a	n/a	-999	4	[-999, -999, -999]	n/a	FR1	0	R1250N
1030.228	5.3	1260671	PROB	5.3	n/a	n/a	-999	4	[5, 9, 8]	22	FR1	0	R1250N
1035.528	5.751	1265971	PROB	5.751	n/a	n/a	-999	4	[2, 4, 4]	10	FR1	0	R1250N
1041.279	5.333	1271722	PROB	5.333	n/a	n/a	-999	4	[2, 7, 6]	15	FR1	0	R1250N
1046.612	8.229	1277055	PROB	8.229	n/a	n/a	-999	4	[3, 2, 3]	8	FR1	0	R1250N
1054.841	0.006	1285284	STOP	n/a	n/a	n/a	-999	4	[-999, -999, -999]	n/a	FR1	0	R1250N
1054.847	0.583	1285290	DISTRACT_END	n/a	n/a	n/a	-999	4	[0, 0, 0]	n/a	FR1	0	R1250N
1055.43	0.518	1285873	RETRIEVAL_ORIENT	n/a	n/a	n/a	-999	4	[0, 0, 0]	n/a	FR1	0	R1250N
1055.948	3.212	1286391	REC_START	n/a	n/a	n/a	-999	4	[0, 0, 0]	n/a	FR1	0	R1250N
1059.16	2.025	1289603	REC_WORD_VV	2.025	n/a	<>	-999	4	[0, 0, 0]	n/a	FR1	0	R1250N
1061.185	2.421	1291628	REC_WORD	2.421	n/a	FLOOR	-999	4	[0, 0, 0]	n/a	FR1	0	R1250N
1063.606	1.919	1294049	REC_WORD	1.919	n/a	LIP	-999	4	[0, 0, 0]	n/a	FR1	0	R1250N
1065.525	2.062	1295968	REC_WORD	2.062	n/a	TIE	-999	4	[0, 0, 0]	n/a	FR1	0	R1250N
1067.587	2.147	1298030	REC_WORD	2.147	n/a	MOUTH	-999	4	[0, 0, 0]	n/a	FR1	0	R1250N
1069.734	16.225	1300177	REC_WORD	16.225	n/a	PEA	-999	4	[0, 0, 0]	n/a	FR1	0	R1250N
1085.959	5.458	1316403	REC_END	n/a	n/a	n/a	-999	4	[0, 0, 0]	n/a	FR1	0	R1250N
1091.417	0.5	1321861	TRIAL	n/a	n/a	n/a	-999	5	[0, 0, 0]	n/a	FR1	0	R1250N
1091.917	10.428	1322361	COUNTDOWN_START	n/a	n/a	n/a	-999	5	[0, 0, 0]	n/a	FR1	0	R1250N
1102.345	0.007	1332789	COUNTDOWN_END	n/a	n/a	n/a	-999	5	[0, 0, 0]	n/a	FR1	0	R1250N
1102.352	1.617	1332796	ORIENT	n/a	n/a	n/a	-999	5	[0, 0, 0]	n/a	FR1	0	R1250N
1103.969	2.201	1334413	ORIENT_OFF	n/a	n/a	n/a	-999	5	[0, 0, 0]	n/a	FR1	0	R1250N
1106.17	1.617	1336614	WORD	n/a	wordpools/wordpool_EN.txt	FORT	1	5	[0, 0, 0]	n/a	FR1	0	R1250N
1107.787	0.865	1338231	WORD_OFF	n/a	n/a	FORT	1	5	[0, 0, 0]	n/a	FR1	0	R1250N
1108.652	1.618	1339096	WORD	n/a	wordpools/wordpool_EN.txt	LEG	2	5	[0, 0, 0]	n/a	FR1	0	R1250N
1110.27	0.784	1340714	WORD_OFF	n/a	n/a	LEG	2	5	[0, 0, 0]	n/a	FR1	0	R1250N
1111.054	1.615	1341498	WORD	n/a	wordpools/wordpool_EN.txt	MAT	3	5	[0, 0, 0]	n/a	FR1	0	R1250N
1112.669	0.984	1343113	WORD_OFF	n/a	n/a	MAT	3	5	[0, 0, 0]	n/a	FR1	0	R1250N
1113.653	1.618	1344097	WORD	n/a	wordpools/wordpool_EN.txt	FARM	4	5	[0, 0, 0]	n/a	FR1	0	R1250N
1115.271	0.8	1345715	WORD_OFF	n/a	n/a	FARM	4	5	[0, 0, 0]	n/a	FR1	0	R1250N
1116.071	1.616	1346515	WORD	n/a	wordpools/wordpool_EN.txt	CAGE	5	5	[0, 0, 0]	n/a	FR1	0	R1250N
1117.687	0.85	1348131	WORD_OFF	n/a	n/a	CAGE	5	5	[0, 0, 0]	n/a	FR1	0	R1250N
1118.537	1.617	1348981	WORD	n/a	wordpools/wordpool_EN.txt	SLIME	6	5	[0, 0, 0]	n/a	FR1	0	R1250N
1120.154	0.917	1350598	WORD_OFF	n/a	n/a	SLIME	6	5	[0, 0, 0]	n/a	FR1	0	R1250N
1121.071	1.616	1351515	WORD	n/a	wordpools/wordpool_EN.txt	GRAPE	7	5	[0, 0, 0]	n/a	FR1	0	R1250N
1122.687	0.933	1353131	WORD_OFF	n/a	n/a	GRAPE	7	5	[0, 0, 0]	n/a	FR1	0	R1250N
1123.62	1.618	1354064	WORD	n/a	wordpools/wordpool_EN.txt	CROW	8	5	[0, 0, 0]	n/a	FR1	0	R1250N
1125.238	0.984	1355682	WORD_OFF	n/a	n/a	CROW	8	5	[0, 0, 0]	n/a	FR1	0	R1250N
1126.222	1.617	1356666	WORD	n/a	wordpools/wordpool_EN.txt	ROAD	9	5	[0, 0, 0]	n/a	FR1	0	R1250N
1127.839	0.883	1358283	WORD_OFF	n/a	n/a	ROAD	9	5	[0, 0, 0]	n/a	FR1	0	R1250N
1128.722	1.616	1359166	WORD	n/a	wordpools/wordpool_EN.txt	CART	10	5	[0, 0, 0]	n/a	FR1	0	R1250N
1130.338	0.983	1360782	WORD_OFF	n/a	n/a	CART	10	5	[0, 0, 0]	n/a	FR1	0	R1250N
1131.321	1.618	1361765	WORD	n/a	wordpools/wordpool_EN.txt	DOCK	11	5	[0, 0, 0]	n/a	FR1	0	R1250N
1132.939	0.95	1363383	WORD_OFF	n/a	n/a	DOCK	11	5	[0, 0, 0]	n/a	FR1	0	R1250N
1133.889	1.616	1364333	WORD	n/a	wordpools/wordpool_EN.txt	OWL	12	5	[0, 0, 0]	n/a	FR1	0	R1250N
1135.505	0.0	1365949	WORD_OFF	n/a	n/a	OWL	12	5	[0, 0, 0]	n/a	FR1	0	R1250N
1135.505	0.001	1365949	DISTRACT_START	n/a	n/a	n/a	-999	5	[0, 0, 0]	n/a	FR1	0	R1250N
1135.506	0.016	1365950	START	n/a	n/a	n/a	-999	5	[-999, -999, -999]	n/a	FR1	0	R1250N
1135.522	6.468	1365966	PROB	6.468	n/a	n/a	-999	5	[7, 6, 1]	14	FR1	0	R1250N
1141.99	9.667	1372435	PROB	9.667	n/a	n/a	-999	5	[8, 8, 7]	23	FR1	0	R1250N
1151.657	5.642	1382102	PROB	5.642	n/a	n/a	-999	5	[7, 6, 1]	14	FR1	0	R1250N
1157.299	0.009	1387744	STOP	n/a	n/a	n/a	-999	5	[-999, -999, -999]	n/a	FR1	0	R1250N
1157.308	0.634	1387753	DISTRACT_END	n/a	n/a	n/a	-999	5	[0, 0, 0]	n/a	FR1	0	R1250N
1157.942	0.516	1388387	RETRIEVAL_ORIENT	n/a	n/a	n/a	-999	5	[0, 0, 0]	n/a	FR1	0	R1250N
1158.458	2.398	1388903	REC_START	n/a	n/a	n/a	-999	5	[0, 0, 0]	n/a	FR1	0	R1250N
1160.856	1.729	1391301	REC_WORD_VV	1.729	n/a	<>	-999	5	[0, 0, 0]	n/a	FR1	0	R1250N
1162.585	3.995	1393030	REC_WORD	3.995	n/a	CROW	-999	5	[0, 0, 0]	n/a	FR1	0	R1250N
1166.58	2.263	1397025	REC_WORD	2.263	n/a	OWL	-999	5	[0, 0, 0]	n/a	FR1	0	R1250N
1168.843	2.454	1399288	REC_WORD	2.454	n/a	MAT	-999	5	[0, 0, 0]	n/a	FR1	0	R1250N
1171.297	11.737	1401742	REC_WORD	11.737	n/a	LEG	-999	5	[0, 0, 0]	n/a	FR1	0	R1250N
1183.034	3.078	1413479	REC_WORD	3.078	n/a	DOCK	-999	5	[0, 0, 0]	n/a	FR1	0	R1250N
1186.112	2.357	1416557	REC_WORD	2.357	n/a	SLIME	-999	5	[0, 0, 0]	n/a	FR1	0	R1250N
1188.469	8.56	1418914	REC_END	n/a	n/a	n/a	-999	5	[0, 0, 0]	n/a	FR1	0	R1250N
1197.029	0.5	1427474	TRIAL	n/a	n/a	n/a	-999	6	[0, 0, 0]	n/a	FR1	0	R1250N
1197.529	10.428	1427974	COUNTDOWN_START	n/a	n/a	n/a	-999	6	[0, 0, 0]	n/a	FR1	0	R1250N
1207.957	0.007	1438403	COUNTDOWN_END	n/a	n/a	n/a	-999	6	[0, 0, 0]	n/a	FR1	0	R1250N
1207.964	1.616	1438410	ORIENT	n/a	n/a	n/a	-999	6	[0, 0, 0]	n/a	FR1	0	R1250N
1209.58	2.318	1440026	ORIENT_OFF	n/a	n/a	n/a	-999	6	[0, 0, 0]	n/a	FR1	0	R1250N
1211.898	1.615	1442344	WORD	n/a	wordpools/wordpool_EN.txt	TOY	1	6	[0, 0, 0]	n/a	FR1	0	R1250N
1213.513	0.967	1443959	WORD_OFF	n/a	n/a	TOY	1	6	[0, 0, 0]	n/a	FR1	0	R1250N
1214.48	1.601	1444926	WORD	n/a	wordpools/wordpool_EN.txt	DESK	2	6	[0, 0, 0]	n/a	FR1	0	R1250N
1216.081	0.851	1446527	WORD_OFF	n/a	n/a	DESK	2	6	[0, 0, 0]	n/a	FR1	0	R1250N
1216.932	1.615	1447378	WORD	n/a	wordpools/wordpool_EN.txt	BADGE	3	6	[0, 0, 0]	n/a	FR1	0	R1250N
1218.547	0.768	1448993	WORD_OFF	n/a	n/a	BADGE	3	6	[0, 0, 0]	n/a	FR1	0	R1250N
1219.315	1.617	1449761	WORD	n/a	wordpools/wordpool_EN.txt	HAWK	4	6	[0, 0, 0]	n/a	FR1	0	R1250N
1220.932	0.95	1451378	WORD_OFF	n/a	n/a	HAWK	4	6	[0, 0, 0]	n/a	FR1	0	R1250N
1221.882	1.616	1452328	WORD	n/a	wordpools/wordpool_EN.txt	DUCK	5	6	[0, 0, 0]	n/a	FR1	0	R1250N
1223.498	0.9	1453944	WORD_OFF	n/a	n/a	DUCK	5	6	[0, 0, 0]	n/a	FR1	0	R1250N
1224.398	1.618	1454844	WORD	n/a	wordpools/wordpool_EN.txt	DOOR	6	6	[0, 0, 0]	n/a	FR1	0	R1250N
1226.016	1.0	1456462	WORD_OFF	n/a	n/a	DOOR	6	6	[0, 0, 0]	n/a	FR1	0	R1250N
1227.016	1.616	1457462	WORD	n/a	wordpools/wordpool_EN.txt	SMILE	7	6	[0, 0, 0]	n/a	FR1	0	R1250N
1228.632	1.0	1459078	WORD_OFF	n/a	n/a	SMILE	7	6	[0, 0, 0]	n/a	FR1	0	R1250N
1229.632	1.618	1460078	WORD	n/a	wordpools/wordpool_EN.txt	TOOTH	8	6	[0, 0, 0]	n/a	FR1	0	R1250N
1231.25	0.883	1461696	WORD_OFF	n/a	n/a	TOOTH	8	6	[0, 0, 0]	n/a	FR1	0	R1250N
1232.133	1.617	1462579	WORD	n/a	wordpools/wordpool_EN.txt	CLOWN	9	6	[0, 0, 0]	n/a	FR1	0	R1250N
1233.75	1.0	1464196	WORD_OFF	n/a	n/a	CLOWN	9	6	[0, 0, 0]	n/a	FR1	0	R1250N
1234.75	1.616	1465196	WORD	n/a	wordpools/wordpool_EN.txt	ROPE	10	6	[0, 0, 0]	n/a	FR1	0	R1250N
1236.366	0.934	1466812	WORD_OFF	n/a	n/a	ROPE	10	6	[0, 0, 0]	n/a	FR1	0	R1250N
1237.3	1.617	1467746	WORD	n/a	wordpools/wordpool_EN.txt	PASTE	11	6	[0, 0, 0]	n/a	FR1	0	R1250N
1238.917	0.934	1469363	WORD_OFF	n/a	n/a	PASTE	11	6	[0, 0, 0]	n/a	FR1	0	R1250N
1239.851	1.616	1470297	WORD	n/a	wordpools/wordpool_EN.txt	GLOVE	12	6	[0, 0, 0]	n/a	FR1	0	R1250N
1241.467	0.0	1471913	WORD_OFF	n/a	n/a	GLOVE	12	6	[0, 0, 0]	n/a	FR1	0	R1250N
1241.467	0.0	1471913	DISTRACT_START	n/a	n/a	n/a	-999	6	[0, 0, 0]	n/a	FR1	0	R1250N
1241.467	0.016	1471913	START	n/a	n/a	n/a	-999	6	[-999, -999, -999]	n/a	FR1	0	R1250N
1241.483	5.819	1471929	PROB	5.819	n/a	n/a	-999	6	[9, 2, 6]	17	FR1	0	R1250N
1247.302	5.232	1477748	PROB	5.232	n/a	n/a	-999	6	[5, 5, 7]	17	FR1	0	R1250N
1252.534	5.352	1482980	PROB	5.352	n/a	n/a	-999	6	[9, 3, 7]	19	FR1	0	R1250N
1257.886	3.949	1488332	PROB	3.949	n/a	n/a	-999	6	[2, 3, 7]	12	FR1	0	R1250N
1261.835	0.018	1492281	STOP	n/a	n/a	n/a	-999	6	[-999, -999, -999]	n/a	FR1	0	R1250N
1261.853	0.549	1492299	DISTRACT_END	n/a	n/a	n/a	-999	6	[0, 0, 0]	n/a	FR1	0	R1250N
1262.402	0.501	1492848	RETRIEVAL_ORIENT	n/a	n/a	n/a	-999	6	[0, 0, 0]	n/a	FR1	0	R1250N
1262.903	1.688	1493349	REC_START	n/a	n/a	n/a	-999	6	[0, 0, 0]	n/a	FR1	0	R1250N
1264.591	1.458	1495037	REC_WORD	1.458	n/a	DESK	-999	6	[0, 0, 0]	n/a	FR1	0	R1250N
1266.049	1.997	1496495	REC_WORD	1.997	n/a	TOY	-999	6	[0, 0, 0]	n/a	FR1	0	R1250N
1268.046	2.189	1498492	REC_WORD	2.189	n/a	GLOVE	-999	6	[0, 0, 0]	n/a	FR1	0	R1250N
1270.235	1.887	1500682	REC_WORD	1.887	n/a	BADGE	-999	6	[0, 0, 0]	n/a	FR1	0	R1250N
1272.122	1.953	1502569	REC_WORD	1.953	n/a	DUCK	-999	6	[0, 0, 0]	n/a	FR1	0	R1250N
1274.075	2.861	1504522	REC_WORD	2.861	n/a	HAWK	-999	6	[0, 0, 0]	n/a	FR1	0	R1250N
1276.936	15.978	1507383	REC_WORD	15.978	n/a	ROPE	-999	6	[0, 0, 0]	n/a	FR1	0	R1250N
1292.914	7.626	1523361	REC_END	n/a	n/a	n/a	-999	6	[0, 0, 0]	n/a	FR1	0	R1250N
1300.54	0.5	1530987	TRIAL	n/a	n/a	n/a	-999	7	[0, 0, 0]	n/a	FR1	0	R1250N
1301.04	10.428	1531487	COUNTDOWN_START	n/a	n/a	n/a	-999	7	[0, 0, 0]	n/a	FR1	0	R1250N
1311.468	0.006	1541915	COUNTDOWN_END	n/a	n/a	n/a	-999	7	[0, 0, 0]	n/a	FR1	0	R1250N
1311.474	1.618	1541921	ORIENT	n/a	n/a	n/a	-999	7	[0, 0, 0]	n/a	FR1	0	R1250N
1313.092	2.249	1543539	ORIENT_OFF	n/a	n/a	n/a	-999	7	[0, 0, 0]	n/a	FR1	0	R1250N
1315.341	1.618	1545788	WORD	n/a	wordpools/wordpool_EN.txt	STAR	1	7	[0, 0, 0]	n/a	FR1	0	R1250N
1316.959	0.967	1547406	WORD_OFF	n/a	n/a	STAR	1	7	[0, 0, 0]	n/a	FR1	0	R1250N
1317.926	1.615	1548373	WORD	n/a	wordpools/wordpool_EN.txt	EGG	2	7	[0, 0, 0]	n/a	FR1	0	R1250N
1319.541	0.851	1549988	WORD_OFF	n/a	n/a	EGG	2	7	[0, 0, 0]	n/a	FR1	0	R1250N
1320.392	1.617	1550839	WORD	n/a	wordpools/wordpool_EN.txt	MOON	3	7	[0, 0, 0]	n/a	FR1	0	R1250N
1322.009	0.784	1552456	WORD_OFF	n/a	n/a	MOON	3	7	[0, 0, 0]	n/a	FR1	0	R1250N
1322.793	1.616	1553240	WORD	n/a	wordpools/wordpool_EN.txt	BEE	4	7	[0, 0, 0]	n/a	FR1	0	R1250N
1324.409	0.917	1554856	WORD_OFF	n/a	n/a	BEE	4	7	[0, 0, 0]	n/a	FR1	0	R1250N
1325.326	1.617	1555773	WORD	n/a	wordpools/wordpool_EN.txt	CORD	5	7	[0, 0, 0]	n/a	FR1	0	R1250N
1326.943	0.817	1557390	WORD_OFF	n/a	n/a	CORD	5	7	[0, 0, 0]	n/a	FR1	0	R1250N
1327.76	1.616	1558207	WORD	n/a	wordpools/wordpool_EN.txt	HOOF	6	7	[0, 0, 0]	n/a	FR1	0	R1250N
1329.376	0.967	1559823	WORD_OFF	n/a	n/a	HOOF	6	7	[0, 0, 0]	n/a	FR1	0	R1250N
1330.343	1.618	1560790	WORD	n/a	wordpools/wordpool_EN.txt	JUICE	7	7	[0, 0, 0]	n/a	FR1	0	R1250N
1331.961	0.833	1562408	WORD_OFF	n/a	n/a	JUICE	7	7	[0, 0, 0]	n/a	FR1	0	R1250N
1332.794	1.616	1563241	WORD	n/a	wordpools/wordpool_EN.txt	POLE	8	7	[0, 0, 0]	n/a	FR1	0	R1250N
1334.41	0.884	1564857	WORD_OFF	n/a	n/a	POLE	8	7	[0, 0, 0]	n/a	FR1	0	R1250N
1335.294	1.617	1565742	WORD	n/a	wordpools/wordpool_EN.txt	CLOCK	9	7	[0, 0, 0]	n/a	FR1	0	R1250N
1336.911	0.917	1567359	WORD_OFF	n/a	n/a	CLOCK	9	7	[0, 0, 0]	n/a	FR1	0	R1250N
1337.828	1.616	1568276	WORD	n/a	wordpools/wordpool_EN.txt	SNAIL	10	7	[0, 0, 0]	n/a	FR1	0	R1250N
1339.444	0.817	1569892	WORD_OFF	n/a	n/a	SNAIL	10	7	[0, 0, 0]	n/a	FR1	0	R1250N
1340.261	1.617	1570709	WORD	n/a	wordpools/wordpool_EN.txt	HEART	11	7	[0, 0, 0]	n/a	FR1	0	R1250N
1341.878	0.834	1572326	WORD_OFF	n/a	n/a	HEART	11	7	[0, 0, 0]	n/a	FR1	0	R1250N
1342.712	1.616	1573160	WORD	n/a	wordpools/wordpool_EN.txt	TOAD	12	7	[0, 0, 0]	n/a	FR1	0	R1250N
1344.328	0.0	1574776	DISTRACT_START	n/a	n/a	n/a	-999	7	[0, 0, 0]	n/a	FR1	0	R1250N
1344.328	0.0	1574776	WORD_OFF	n/a	n/a	TOAD	12	7	[0, 0, 0]	n/a	FR1	0	R1250N
1344.328	0.016	1574776	START	n/a	n/a	n/a	-999	7	[-999, -999, -999]	n/a	FR1	0	R1250N
1344.344	12.869	1574792	PROB	12.869	n/a	n/a	-999	7	[9, 3, 8]	20	FR1	0	R1250N
1357.213	4.25	1587661	PROB	4.25	n/a	n/a	-999	7	[9, 8, 3]	20	FR1	0	R1250N
1361.463	3.99	1591911	PROB	3.99	n/a	n/a	-999	7	[8, 7, 7]	22	FR1	0	R1250N
1365.453	0.01	1595901	STOP	n/a	n/a	n/a	-999	7	[-999, -999, -999]	n/a	FR1	0	R1250N
1365.463	0.551	1595911	DISTRACT_END	n/a	n/a	n/a	-999	7	[0, 0, 0]	n/a	FR1	0	R1250N
1366.014	0.517	1596462	RETRIEVAL_ORIENT	n/a	n/a	n/a	-999	7	[0, 0, 0]	n/a	FR1	0	R1250N
1366.531	2.292	1596979	REC_START	n/a	n/a	n/a	-999	7	[0, 0, 0]	n/a	FR1	0	R1250N
1368.823	1.177	1599271	REC_WORD_VV	1.177	n/a	<>	-999	7	[0, 0, 0]	n/a	FR1	0	R1250N
1370.0	2.453	1600448	REC_WORD	2.453	n/a	SNAIL	-999	7	[0, 0, 0]	n/a	FR1	0	R1250N
1372.453	1.739	1602901	REC_WORD	1.739	n/a	JUICE	-999	7	[0, 0, 0]	n/a	FR1	0	R1250N
1374.192	1.839	1604640	REC_WORD	1.839	n/a	EGG	-999	7	[0, 0, 0]	n/a	FR1	0	R1250N
1376.031	1.892	1606479	REC_WORD	1.892	n/a	BEE	-999	7	[0, 0, 0]	n/a	FR1	0	R1250N
1377.923	18.619	1608371	REC_WORD	18.619	n/a	CLOCK	-999	7	[0, 0, 0]	n/a	FR1	0	R1250N
1396.542	5.259	1626990	REC_END	n/a	n/a	n/a	-999	7	[0, 0, 0]	n/a	FR1	0	R1250N
1401.801	0.5	1632250	TRIAL	n/a	n/a	n/a	-999	8	[0, 0, 0]	n/a	FR1	0	R1250N
1402.301	10.428	1632750	COUNTDOWN_START	n/a	n/a	n/a	-999	8	[0, 0, 0]	n/a	FR1	0	R1250N
1412.729	0.007	1643178	COUNTDOWN_END	n/a	n/a	n/a	-999	8	[0, 0, 0]	n/a	FR1	0	R1250N
1412.736	1.616	1643185	ORIENT	n/a	n/a	n/a	-999	8	[0, 0, 0]	n/a	FR1	0	R1250N
1414.352	2.033	1644801	ORIENT_OFF	n/a	n/a	n/a	-999	8	[0, 0, 0]	n/a	FR1	0	R1250N
1416.385	1.601	1646834	WORD	n/a	wordpools/wordpool_EN.txt	HOSE	1	8	[0, 0, 0]	n/a	FR1	0	R1250N
1417.986	0.967	1648435	WORD_OFF	n/a	n/a	HOSE	1	8	[0, 0, 0]	n/a	FR1	0	R1250N
1418.953	1.616	1649402	WORD	n/a	wordpools/wordpool_EN.txt	VEST	2	8	[0, 0, 0]	n/a	FR1	0	R1250N
1420.569	0.95	1651018	WORD_OFF	n/a	n/a	VEST	2	8	[0, 0, 0]	n/a	FR1	0	R1250N
1421.519	1.601	1651968	WORD	n/a	wordpools/wordpool_EN.txt	CHALK	3	8	[0, 0, 0]	n/a	FR1	0	R1250N
1423.12	0.867	1653569	WORD_OFF	n/a	n/a	CHALK	3	8	[0, 0, 0]	n/a	FR1	0	R1250N
1423.987	1.616	1654436	WORD	n/a	wordpools/wordpool_EN.txt	OAR	4	8	[0, 0, 0]	n/a	FR1	0	R1250N
1425.603	0.883	1656052	WORD_OFF	n/a	n/a	OAR	4	8	[0, 0, 0]	n/a	FR1	0	R1250N
1426.486	1.618	1656935	WORD	n/a	wordpools/wordpool_EN.txt	NOSE	5	8	[0, 0, 0]	n/a	FR1	0	R1250N
1428.104	0.85	1658553	WORD_OFF	n/a	n/a	NOSE	5	8	[0, 0, 0]	n/a	FR1	0	R1250N
1428.954	1.616	1659403	WORD	n/a	wordpools/wordpool_EN.txt	JEEP	6	8	[0, 0, 0]	n/a	FR1	0	R1250N
1430.57	0.8	1661019	WORD_OFF	n/a	n/a	JEEP	6	8	[0, 0, 0]	n/a	FR1	0	R1250N
1431.37	1.601	1661819	WORD	n/a	wordpools/wordpool_EN.txt	TREE	7	8	[0, 0, 0]	n/a	FR1	0	R1250N
1432.971	0.851	1663420	WORD_OFF	n/a	n/a	TREE	7	8	[0, 0, 0]	n/a	FR1	0	R1250N
1433.822	1.615	1664271	WORD	n/a	wordpools/wordpool_EN.txt	BRUSH	8	8	[0, 0, 0]	n/a	FR1	0	R1250N
1435.437	0.801	1665886	WORD_OFF	n/a	n/a	BRUSH	8	8	[0, 0, 0]	n/a	FR1	0	R1250N
1436.238	1.617	1666687	WORD	n/a	wordpools/wordpool_EN.txt	SLEEVE	9	8	[0, 0, 0]	n/a	FR1	0	R1250N
1437.855	0.967	1668304	WORD_OFF	n/a	n/a	SLEEVE	9	8	[0, 0, 0]	n/a	FR1	0	R1250N
1438.822	1.616	1669271	WORD	n/a	wordpools/wordpool_EN.txt	DOLL	10	8	[0, 0, 0]	n/a	FR1	0	R1250N
1440.438	0.768	1670887	WORD_OFF	n/a	n/a	DOLL	10	8	[0, 0, 0]	n/a	FR1	0	R1250N
1441.206	1.616	1671655	WORD	n/a	wordpools/wordpool_EN.txt	PEN	11	8	[0, 0, 0]	n/a	FR1	0	R1250N
1442.822	0.85	1673271	WORD_OFF	n/a	n/a	PEN	11	8	[0, 0, 0]	n/a	FR1	0	R1250N
1443.672	1.617	1674121	WORD	n/a	wordpools/wordpool_EN.txt	DRUM	12	8	[0, 0, 0]	n/a	FR1	0	R1250N
1445.289	0.0	1675738	WORD_OFF	n/a	n/a	DRUM	12	8	[0, 0, 0]	n/a	FR1	0	R1250N
1445.289	0.001	1675738	DISTRACT_START	n/a	n/a	n/a	-999	8	[0, 0, 0]	n/a	FR1	0	R1250N
1445.29	0.016	1675739	START	n/a	n/a	n/a	-999	8	[-999, -999, -999]	n/a	FR1	0	R1250N
1445.306	4.083	1675755	PROB	4.083	n/a	n/a	-999	8	[8, 8, 1]	17	FR1	0	R1250N
1449.389	2.083	1679838	PROB	2.083	n/a	n/a	-999	8	[2, 2, 2]	6	FR1	0	R1250N
1451.472	2.535	1681921	PROB	2.535	n/a	n/a	-999	8	[2, 1, 8]	11	FR1	0	R1250N
1454.007	6.683	1684456	PROB	6.683	n/a	n/a	-999	8	[7, 7, 3]	17	FR1	0	R1250N
1460.69	4.085	1691139	PROB	4.085	n/a	n/a	-999	8	[2, 5, 4]	11	FR1	0	R1250N
1464.775	2.799	1695225	PROB	2.799	n/a	n/a	-999	8	[5, 8, 1]	14	FR1	0	R1250N
1467.574	0.017	1698024	STOP	n/a	n/a	n/a	-999	8	[-999, -999, -999]	n/a	FR1	0	R1250N
1467.591	0.667	1698041	DISTRACT_END	n/a	n/a	n/a	-999	8	[0, 0, 0]	n/a	FR1	0	R1250N
1468.258	0.518	1698708	RETRIEVAL_ORIENT	n/a	n/a	n/a	-999	8	[0, 0, 0]	n/a	FR1	0	R1250N
1468.776	1.878	1699226	REC_START	n/a	n/a	n/a	-999	8	[0, 0, 0]	n/a	FR1	0	R1250N
1470.654	1.1	1701104	REC_WORD	1.1	n/a	HOSE	-999	8	[0, 0, 0]	n/a	FR1	0	R1250N
1471.754	2.239	1702204	REC_WORD	2.239	n/a	NOSE	-999	8	[0, 0, 0]	n/a	FR1	0	R1250N
1473.993	1.637	1704443	REC_WORD	1.637	n/a	CHALK	-999	8	[0, 0, 0]	n/a	FR1	0	R1250N
1475.63	2.449	1706080	REC_WORD	2.449	n/a	OAR	-999	8	[0, 0, 0]	n/a	FR1	0	R1250N
1478.079	5.287	1708529	REC_WORD	5.287	n/a	DARK	-999	8	[0, 0, 0]	n/a	FR1	0	R1250N
1483.366	4.583	1713816	REC_WORD	4.583	n/a	TREE	-999	8	[0, 0, 0]	n/a	FR1	0	R1250N
1487.949	6.437	1718399	REC_WORD	6.437	n/a	DRUM	-999	8	[0, 0, 0]	n/a	FR1	0	R1250N
1494.386	4.4	1724836	REC_WORD_VV	4.4	n/a	<>	-999	8	[0, 0, 0]	n/a	FR1	0	R1250N
1498.786	6.608	1729236	REC_END	n/a	n/a	n/a	-999	8	[0, 0, 0]	n/a	FR1	0	R1250N
1505.394	0.5	1735844	TRIAL	n/a	n/a	n/a	-999	9	[0, 0, 0]	n/a	FR1	0	R1250N
1505.894	10.428	1736344	COUNTDOWN_START	n/a	n/a	n/a	-999	9	[0, 0, 0]	n/a	FR1	0	R1250N
1516.322	0.007	1746772	COUNTDOWN_END	n/a	n/a	n/a	-999	9	[0, 0, 0]	n/a	FR1	0	R1250N
1516.329	1.618	1746779	ORIENT	n/a	n/a	n/a	-999	9	[0, 0, 0]	n/a	FR1	0	R1250N
1517.947	2.084	1748397	ORIENT_OFF	n/a	n/a	n/a	-999	9	[0, 0, 0]	n/a	FR1	0	R1250N
1520.031	1.616	1750481	WORD	n/a	wordpools/wordpool_EN.txt	BRICK	1	9	[0, 0, 0]	n/a	FR1	0	R1250N
1521.647	0.816	1752097	WORD_OFF	n/a	n/a	BRICK	1	9	[0, 0, 0]	n/a	FR1	0	R1250N
1522.463	1.618	1752913	WORD	n/a	wordpools/wordpool_EN.txt	AXE	2	9	[0, 0, 0]	n/a	FR1	0	R1250N
1524.081	0.984	1754531	WORD_OFF	n/a	n/a	AXE	2	9	[0, 0, 0]	n/a	FR1	0	R1250N
1525.065	1.615	1755515	WORD	n/a	wordpools/wordpool_EN.txt	MUG	3	9	[0, 0, 0]	n/a	FR1	0	R1250N
1526.68	0.801	1757130	WORD_OFF	n/a	n/a	MUG	3	9	[0, 0, 0]	n/a	FR1	0	R1250N
1527.481	1.617	1757931	WORD	n/a	wordpools/wordpool_EN.txt	RIB	4	9	[0, 0, 0]	n/a	FR1	0	R1250N
1529.098	0.9	1759549	WORD_OFF	n/a	n/a	RIB	4	9	[0, 0, 0]	n/a	FR1	0	R1250N
1529.998	1.616	1760449	WORD	n/a	wordpools/wordpool_EN.txt	PIE	5	9	[0, 0, 0]	n/a	FR1	0	R1250N
1531.614	0.85	1762065	WORD_OFF	n/a	n/a	PIE	5	9	[0, 0, 0]	n/a	FR1	0	R1250N
1532.464	1.618	1762915	WORD	n/a	wordpools/wordpool_EN.txt	FOOT	6	9	[0, 0, 0]	n/a	FR1	0	R1250N
1534.082	0.934	1764533	WORD_OFF	n/a	n/a	FOOT	6	9	[0, 0, 0]	n/a	FR1	0	R1250N
1535.016	1.616	1765467	WORD	n/a	wordpools/wordpool_EN.txt	STAIR	7	9	[0, 0, 0]	n/a	FR1	0	R1250N
1536.632	0.916	1767083	WORD_OFF	n/a	n/a	STAIR	7	9	[0, 0, 0]	n/a	FR1	0	R1250N
1537.548	1.601	1767999	WORD	n/a	wordpools/wordpool_EN.txt	SPOON	8	9	[0, 0, 0]	n/a	FR1	0	R1250N
1539.149	0.851	1769600	WORD_OFF	n/a	n/a	SPOON	8	9	[0, 0, 0]	n/a	FR1	0	R1250N
1540.0	1.615	1770451	WORD	n/a	wordpools/wordpool_EN.txt	BAG	9	9	[0, 0, 0]	n/a	FR1	0	R1250N
1541.615	0.95	1772066	WORD_OFF	n/a	n/a	BAG	9	9	[0, 0, 0]	n/a	FR1	0	R1250N
1542.565	1.618	1773016	WORD	n/a	wordpools/wordpool_EN.txt	TRAY	10	9	[0, 0, 0]	n/a	FR1	0	R1250N
1544.183	0.85	1774634	WORD_OFF	n/a	n/a	TRAY	10	9	[0, 0, 0]	n/a	FR1	0	R1250N
1545.033	1.616	1775484	WORD	n/a	wordpools/wordpool_EN.txt	WOOD	11	9	[0, 0, 0]	n/a	FR1	0	R1250N
1546.649	0.933	1777100	WORD_OFF	n/a	n/a	WOOD	11	9	[0, 0, 0]	n/a	FR1	0	R1250N
1547.582	1.619	1778033	WORD	n/a	wordpools/wordpool_EN.txt	ROOM	12	9	[0, 0, 0]	n/a	FR1	0	R1250N
1549.201	0.0	1779652	WORD_OFF	n/a	n/a	ROOM	12	9	[0, 0, 0]	n/a	FR1	0	R1250N
1549.201	0.0	1779652	DISTRACT_START	n/a	n/a	n/a	-999	9	[0, 0, 0]	n/a	FR1	0	R1250N
1549.201	0.016	1779652	START	n/a	n/a	n/a	-999	9	[-999, -999, -999]	n/a	FR1	0	R1250N
1549.217	4.634	1779668	PROB	4.634	n/a	n/a	-999	9	[1, 3, 6]	10	FR1	0	R1250N
1553.851	3.117	1784302	PROB	3.117	n/a	n/a	-999	9	[3, 7, 2]	12	FR1	0	R1250N
1556.968	2.967	1787419	PROB	2.967	n/a	n/a	-999	9	[5, 5, 6]	16	FR1	0	R1250N
1559.935	6.4	1790386	PROB	6.4	n/a	n/a	-999	9	[7, 6, 8]	21	FR1	0	R1250N
1566.335	6.034	1796786	PROB	6.034	n/a	n/a	-999	9	[7, 1, 8]	16	FR1	0	R1250N
1572.369	0.016	1802820	STOP	n/a	n/a	n/a	-999	9	[-999, -999, -999]	n/a	FR1	0	R1250N
1572.385	0.668	1802836	DISTRACT_END	n/a	n/a	n/a	-999	9	[0, 0, 0]	n/a	FR1	0	R1250N
1573.053	0.516	1803504	RETRIEVAL_ORIENT	n/a	n/a	n/a	-999	9	[0, 0, 0]	n/a	FR1	0	R1250N
1573.569	1.971	1804020	REC_START	n/a	n/a	n/a	-999	9	[0, 0, 0]	n/a	FR1	0	R1250N
1575.54	1.504	1805991	REC_WORD	1.504	n/a	BRICK	-999	9	[0, 0, 0]	n/a	FR1	0	R1250N
1577.044	26.537	1807495	REC_WORD	26.537	n/a	AXE	-999	9	[0, 0, 0]	n/a	FR1	0	R1250N
1603.581	10.593	1834033	REC_END	n/a	n/a	n/a	-999	9	[0, 0, 0]	n/a	FR1	0	R1250N
1614.174	0.5	1844626	TRIAL	n/a	n/a	n/a	-999	10	[0, 0, 0]	n/a	FR1	0	R1250N
1614.674	10.428	1845126	COUNTDOWN_START	n/a	n/a	n/a	-999	10	[0, 0, 0]	n/a	FR1	0	R1250N
1625.102	0.007	1855554	COUNTDOWN_END	n/a	n/a	n/a	-999	10	[0, 0, 0]	n/a	FR1	0	R1250N
1625.109	1.617	1855561	ORIENT	n/a	n/a	n/a	-999	10	[0, 0, 0]	n/a	FR1	0	R1250N
1626.726	2.116	1857178	ORIENT_OFF	n/a	n/a	n/a	-999	10	[0, 0, 0]	n/a	FR1	0	R1250N
1628.842	1.616	1859294	WORD	n/a	wordpools/wordpool_EN.txt	HAT	1	10	[0, 0, 0]	n/a	FR1	0	R1250N
1630.458	1.0	1860910	WORD_OFF	n/a	n/a	HAT	1	10	[0, 0, 0]	n/a	FR1	0	R1250N
1631.458	1.601	1861910	WORD	n/a	wordpools/wordpool_EN.txt	HORN	2	10	[0, 0, 0]	n/a	FR1	0	R1250N
1633.059	0.984	1863511	WORD_OFF	n/a	n/a	HORN	2	10	[0, 0, 0]	n/a	FR1	0	R1250N
1634.043	1.616	1864495	WORD	n/a	wordpools/wordpool_EN.txt	FUR	3	10	[0, 0, 0]	n/a	FR1	0	R1250N
1635.659	0.833	1866111	WORD_OFF	n/a	n/a	FUR	3	10	[0, 0, 0]	n/a	FR1	0	R1250N
1636.492	1.601	1866944	WORD	n/a	wordpools/wordpool_EN.txt	ELF	4	10	[0, 0, 0]	n/a	FR1	0	R1250N
1638.093	0.784	1868545	WORD_OFF	n/a	n/a	ELF	4	10	[0, 0, 0]	n/a	FR1	0	R1250N
1638.877	1.616	1869329	WORD	n/a	wordpools/wordpool_EN.txt	ROSE	5	10	[0, 0, 0]	n/a	FR1	0	R1250N
1640.493	0.983	1870945	WORD_OFF	n/a	n/a	ROSE	5	10	[0, 0, 0]	n/a	FR1	0	R1250N
1641.476	1.618	1871928	WORD	n/a	wordpools/wordpool_EN.txt	STOOL	6	10	[0, 0, 0]	n/a	FR1	0	R1250N
1643.094	1.0	1873546	WORD_OFF	n/a	n/a	STOOL	6	10	[0, 0, 0]	n/a	FR1	0	R1250N
1644.094	1.617	1874546	WORD	n/a	wordpools/wordpool_EN.txt	PET	7	10	[0, 0, 0]	n/a	FR1	0	R1250N
1645.711	0.966	1876163	WORD_OFF	n/a	n/a	PET	7	10	[0, 0, 0]	n/a	FR1	0	R1250N
1646.677	1.618	1877129	WORD	n/a	wordpools/wordpool_EN.txt	EAR	8	10	[0, 0, 0]	n/a	FR1	0	R1250N
1648.295	0.966	1878747	WORD_OFF	n/a	n/a	EAR	8	10	[0, 0, 0]	n/a	FR1	0	R1250N
1649.261	1.617	1879713	WORD	n/a	wordpools/wordpool_EN.txt	PANTS	9	10	[0, 0, 0]	n/a	FR1	0	R1250N
1650.878	0.95	1881330	WORD_OFF	n/a	n/a	PANTS	9	10	[0, 0, 0]	n/a	FR1	0	R1250N
1651.828	1.616	1882280	WORD	n/a	wordpools/wordpool_EN.txt	RAT	10	10	[0, 0, 0]	n/a	FR1	0	R1250N
1653.444	0.818	1883896	WORD_OFF	n/a	n/a	RAT	10	10	[0, 0, 0]	n/a	FR1	0	R1250N
1654.262	1.617	1884714	WORD	n/a	wordpools/wordpool_EN.txt	FENCE	11	10	[0, 0, 0]	n/a	FR1	0	R1250N
1655.879	0.883	1886331	WORD_OFF	n/a	n/a	FENCE	11	10	[0, 0, 0]	n/a	FR1	0	R1250N
1656.762	1.616	1887215	WORD	n/a	wordpools/wordpool_EN.txt	BARN	12	10	[0, 0, 0]	n/a	FR1	0	R1250N
1658.378	0.0	1888831	WORD_OFF	n/a	n/a	BARN	12	10	[0, 0, 0]	n/a	FR1	0	R1250N
1658.378	0.0	1888831	DISTRACT_START	n/a	n/a	n/a	-999	10	[0, 0, 0]	n/a	FR1	0	R1250N
1658.378	0.017	1888831	START	n/a	n/a	n/a	-999	10	[-999, -999, -999]	n/a	FR1	0	R1250N
1658.395	3.468	1888848	PROB	3.468	n/a	n/a	-999	10	[3, 2, 4]	9	FR1	0	R1250N
1661.863	3.649	1892316	PROB	3.649	n/a	n/a	-999	10	[2, 3, 5]	10	FR1	0	R1250N
1665.512	3.167	1895965	PROB	3.167	n/a	n/a	-999	10	[6, 3, 3]	12	FR1	0	R1250N
1668.679	3.368	1899132	PROB	3.368	n/a	n/a	-999	10	[3, 2, 2]	7	FR1	0	R1250N
1672.047	3.4	1902500	PROB	3.4	n/a	n/a	-999	10	[7, 3, 8]	18	FR1	0	R1250N
1675.447	3.179	1905900	PROB	3.179	n/a	n/a	-999	10	[2, 8, 5]	15	FR1	0	R1250N
1678.626	0.021	1909079	STOP	n/a	n/a	n/a	-999	10	[-999, -999, -999]	n/a	FR1	0	R1250N
1678.647	0.667	1909100	DISTRACT_END	n/a	n/a	n/a	-999	10	[0, 0, 0]	n/a	FR1	0	R1250N
1679.314	0.518	1909767	RETRIEVAL_ORIENT	n/a	n/a	n/a	-999	10	[0, 0, 0]	n/a	FR1	0	R1250N
1679.832	3.056	1910285	REC_START	n/a	n/a	n/a	-999	10	[0, 0, 0]	n/a	FR1	0	R1250N
1682.888	1.681	1913341	REC_WORD	1.681	n/a	HOUSE	-999	10	[0, 0, 0]	n/a	FR1	0	R1250N
1684.569	1.879	1915022	REC_WORD_VV	1.879	n/a	<>	-999	10	[0, 0, 0]	n/a	FR1	0	R1250N
1686.448	5.207	1916901	REC_WORD	5.207	n/a	BARN	-999	10	[0, 0, 0]	n/a	FR1	0	R1250N
1691.655	9.233	1922108	REC_WORD	9.233	n/a	FENCE	-999	10	[0, 0, 0]	n/a	FR1	0	R1250N
1700.888	8.954	1931341	REC_WORD	8.954	n/a	ROSE	-999	10	[0, 0, 0]	n/a	FR1	0	R1250N
1709.842	7.293	1940295	REC_END	n/a	n/a	n/a	-999	10	[0, 0, 0]	n/a	FR1	0	R1250N
1717.135	0.5	1947588	TRIAL	n/a	n/a	n/a	-999	11	[0, 0, 0]	n/a	FR1	0	R1250N
1717.635	10.428	1948088	COUNTDOWN_START	n/a	n/a	n/a	-999	11	[0, 0, 0]	n/a	FR1	0	R1250N
1728.063	0.007	1958517	COUNTDOWN_END	n/a	n/a	n/a	-999	11	[0, 0, 0]	n/a	FR1	0	R1250N
1728.07	1.616	1958524	ORIENT	n/a	n/a	n/a	-999	11	[0, 0, 0]	n/a	FR1	0	R1250N
1729.686	2.334	1960140	ORIENT_OFF	n/a	n/a	n/a	-999	11	[0, 0, 0]	n/a	FR1	0	R1250N
1732.02	1.616	1962474	WORD	n/a	wordpools/wordpool_EN.txt	FILM	1	11	[0, 0, 0]	n/a	FR1	0	R1250N
1733.636	0.917	1964090	WORD_OFF	n/a	n/a	FILM	1	11	[0, 0, 0]	n/a	FR1	0	R1250N
1734.553	1.618	1965007	WORD	n/a	wordpools/wordpool_EN.txt	SCHOOL	2	11	[0, 0, 0]	n/a	FR1	0	R1250N
1736.171	0.999	1966625	WORD_OFF	n/a	n/a	SCHOOL	2	11	[0, 0, 0]	n/a	FR1	0	R1250N
1737.17	1.618	1967624	WORD	n/a	wordpools/wordpool_EN.txt	PEARL	3	11	[0, 0, 0]	n/a	FR1	0	R1250N
1738.788	0.983	1969242	WORD_OFF	n/a	n/a	PEARL	3	11	[0, 0, 0]	n/a	FR1	0	R1250N
1739.771	1.616	1970225	WORD	n/a	wordpools/wordpool_EN.txt	INK	4	11	[0, 0, 0]	n/a	FR1	0	R1250N
1741.387	0.933	1971841	WORD_OFF	n/a	n/a	INK	4	11	[0, 0, 0]	n/a	FR1	0	R1250N
1742.32	1.618	1972774	WORD	n/a	wordpools/wordpool_EN.txt	BOOK	5	11	[0, 0, 0]	n/a	FR1	0	R1250N
1743.938	0.967	1974392	WORD_OFF	n/a	n/a	BOOK	5	11	[0, 0, 0]	n/a	FR1	0	R1250N
1744.905	1.616	1975359	WORD	n/a	wordpools/wordpool_EN.txt	CASH	6	11	[0, 0, 0]	n/a	FR1	0	R1250N
1746.521	0.867	1976975	WORD_OFF	n/a	n/a	CASH	6	11	[0, 0, 0]	n/a	FR1	0	R1250N
1747.388	1.617	1977842	WORD	n/a	wordpools/wordpool_EN.txt	PHONE	7	11	[0, 0, 0]	n/a	FR1	0	R1250N
1749.005	0.784	1979459	WORD_OFF	n/a	n/a	PHONE	7	11	[0, 0, 0]	n/a	FR1	0	R1250N
1749.789	1.616	1980243	WORD	n/a	wordpools/wordpool_EN.txt	BANK	8	11	[0, 0, 0]	n/a	FR1	0	R1250N
1751.405	1.0	1981859	WORD_OFF	n/a	n/a	BANK	8	11	[0, 0, 0]	n/a	FR1	0	R1250N
1752.405	1.618	1982859	WORD	n/a	wordpools/wordpool_EN.txt	JUDGE	9	11	[0, 0, 0]	n/a	FR1	0	R1250N
1754.023	0.783	1984477	WORD_OFF	n/a	n/a	JUDGE	9	11	[0, 0, 0]	n/a	FR1	0	R1250N
1754.806	1.616	1985260	WORD	n/a	wordpools/wordpool_EN.txt	KEY	10	11	[0, 0, 0]	n/a	FR1	0	R1250N
1756.422	0.851	1986876	WORD_OFF	n/a	n/a	KEY	10	11	[0, 0, 0]	n/a	FR1	0	R1250N
1757.273	1.617	1987727	WORD	n/a	wordpools/wordpool_EN.txt	WEED	11	11	[0, 0, 0]	n/a	FR1	0	R1250N
1758.89	1.0	1989344	WORD_OFF	n/a	n/a	WEED	11	11	[0, 0, 0]	n/a	FR1	0	R1250N
1759.89	1.616	1990344	WORD	n/a	wordpools/wordpool_EN.txt	MAIL	12	11	[0, 0, 0]	n/a	FR1	0	R1250N
1761.506	0.0	1991960	WORD_OFF	n/a	n/a	MAIL	12	11	[0, 0, 0]	n/a	FR1	0	R1250N
1761.506	0.0	1991960	DISTRACT_START	n/a	n/a	n/a	-999	11	[0, 0, 0]	n/a	FR1	0	R1250N
1761.506	0.016	1991960	START	n/a	n/a	n/a	-999	11	[-999, -999, -999]	n/a	FR1	0	R1250N
1761.522	4.252	1991976	PROB	4.252	n/a	n/a	-999	11	[5, 2, 1]	8	FR1	0	R1250N
1765.774	4.417	1996228	PROB	4.417	n/a	n/a	-999	11	[3, 7, 9]	19	FR1	0	R1250N
1770.191	3.466	2000645	PROB	3.466	n/a	n/a	-999	11	[1, 2, 7]	10	FR1	0	R1250N
1773.657	2.8	2004111	PROB	2.8	n/a	n/a	-999	11	[8, 6, 9]	23	FR1	0	R1250N
1776.457	4.385	2006911	PROB	4.385	n/a	n/a	-999	11	[7, 8, 7]	22	FR1	0	R1250N
1780.842	3.338	2011296	PROB	3.338	n/a	n/a	-999	11	[2, 5, 1]	8	FR1	0	R1250N
1784.18	0.012	2014634	STOP	n/a	n/a	n/a	-999	11	[-999, -999, -999]	n/a	FR1	0	R1250N
1784.192	0.667	2014646	DISTRACT_END	n/a	n/a	n/a	-999	11	[0, 0, 0]	n/a	FR1	0	R1250N
1784.859	0.516	2015313	RETRIEVAL_ORIENT	n/a	n/a	n/a	-999	11	[0, 0, 0]	n/a	FR1	0	R1250N
1785.375	1.582	2015829	REC_START	n/a	n/a	n/a	-999	11	[0, 0, 0]	n/a	FR1	0	R1250N
1786.957	2.01	2017412	REC_WORD	2.01	n/a	JUDGE	-999	11	[0, 0, 0]	n/a	FR1	0	R1250N
1788.967	2.113	2019422	REC_WORD	2.113	n/a	WEED	-999	11	[0, 0, 0]	n/a	FR1	0	R1250N
1791.08	2.418	2021535	REC_WORD	2.418	n/a	MAIL	-999	11	[0, 0, 0]	n/a	FR1	0	R1250N
1793.498	2.033	2023953	REC_WORD	2.033	n/a	BANK	-999	11	[0, 0, 0]	n/a	FR1	0	R1250N
1795.531	2.096	2025986	REC_WORD	2.096	n/a	CASH	-999	11	[0, 0, 0]	n/a	FR1	0	R1250N
1797.627	1.96	2028082	REC_WORD	1.96	n/a	INK	-999	11	[0, 0, 0]	n/a	FR1	0	R1250N
1799.587	15.799	2030042	REC_WORD	15.799	n/a	BOOK	-999	11	[0, 0, 0]	n/a	FR1	0	R1250N
1815.386	7.394	2045841	REC_END	n/a	n/a	n/a	-999	11	[0, 0, 0]	n/a	FR1	0	R1250N
1822.78	0.5	2053235	TRIAL	n/a	n/a	n/a	-999	12	[0, 0, 0]	n/a	FR1	0	R1250N
1823.28	10.428	2053735	COUNTDOWN_START	n/a	n/a	n/a	-999	12	[0, 0, 0]	n/a	FR1	0	R1250N
1833.708	0.006	2064163	COUNTDOWN_END	n/a	n/a	n/a	-999	12	[0, 0, 0]	n/a	FR1	0	R1250N
1833.714	1.616	2064169	ORIENT	n/a	n/a	n/a	-999	12	[0, 0, 0]	n/a	FR1	0	R1250N
1835.33	2.084	2065785	ORIENT_OFF	n/a	n/a	n/a	-999	12	[0, 0, 0]	n/a	FR1	0	R1250N
1837.414	1.618	2067869	WORD	n/a	wordpools/wordpool_EN.txt	HOUSE	1	12	[0, 0, 0]	n/a	FR1	0	R1250N
1839.032	0.866	2069487	WORD_OFF	n/a	n/a	HOUSE	1	12	[0, 0, 0]	n/a	FR1	0	R1250N
1839.898	1.616	2070353	WORD	n/a	wordpools/wordpool_EN.txt	MULE	2	12	[0, 0, 0]	n/a	FR1	0	R1250N
1841.514	0.917	2071969	WORD_OFF	n/a	n/a	MULE	2	12	[0, 0, 0]	n/a	FR1	0	R1250N
1842.431	1.618	2072886	WORD	n/a	wordpools/wordpool_EN.txt	RAKE	3	12	[0, 0, 0]	n/a	FR1	0	R1250N
1844.049	0.85	2074504	WORD_OFF	n/a	n/a	RAKE	3	12	[0, 0, 0]	n/a	FR1	0	R1250N
1844.899	1.616	2075354	WORD	n/a	wordpools/wordpool_EN.txt	SHIP	4	12	[0, 0, 0]	n/a	FR1	0	R1250N
1846.515	0.817	2076970	WORD_OFF	n/a	n/a	SHIP	4	12	[0, 0, 0]	n/a	FR1	0	R1250N
1847.332	1.617	2077787	WORD	n/a	wordpools/wordpool_EN.txt	CAPE	5	12	[0, 0, 0]	n/a	FR1	0	R1250N
1848.949	0.8	2079404	WORD_OFF	n/a	n/a	CAPE	5	12	[0, 0, 0]	n/a	FR1	0	R1250N
1849.749	1.616	2080204	WORD	n/a	wordpools/wordpool_EN.txt	LAWN	6	12	[0, 0, 0]	n/a	FR1	0	R1250N
1851.365	0.851	2081821	WORD_OFF	n/a	n/a	LAWN	6	12	[0, 0, 0]	n/a	FR1	0	R1250N
1852.216	1.617	2082672	WORD	n/a	wordpools/wordpool_EN.txt	CRANE	7	12	[0, 0, 0]	n/a	FR1	0	R1250N
1853.833	0.833	2084289	WORD_OFF	n/a	n/a	CRANE	7	12	[0, 0, 0]	n/a	FR1	0	R1250N
1854.666	1.617	2085122	WORD	n/a	wordpools/wordpool_EN.txt	STORM	8	12	[0, 0, 0]	n/a	FR1	0	R1250N
1856.283	0.851	2086739	WORD_OFF	n/a	n/a	STORM	8	12	[0, 0, 0]	n/a	FR1	0	R1250N
1857.134	1.616	2087590	WORD	n/a	wordpools/wordpool_EN.txt	SHARK	9	12	[0, 0, 0]	n/a	FR1	0	R1250N
1858.75	0.783	2089206	WORD_OFF	n/a	n/a	SHARK	9	12	[0, 0, 0]	n/a	FR1	0	R1250N
1859.533	1.618	2089989	WORD	n/a	wordpools/wordpool_EN.txt	DITCH	10	12	[0, 0, 0]	n/a	FR1	0	R1250N
1861.151	0.883	2091607	WORD_OFF	n/a	n/a	DITCH	10	12	[0, 0, 0]	n/a	FR1	0	R1250N
1862.034	1.616	2092490	WORD	n/a	wordpools/wordpool_EN.txt	GRASS	11	12	[0, 0, 0]	n/a	FR1	0	R1250N
1863.65	0.967	2094106	WORD_OFF	n/a	n/a	GRASS	11	12	[0, 0, 0]	n/a	FR1	0	R1250N
1864.617	1.618	2095073	WORD	n/a	wordpools/wordpool_EN.txt	CLIFF	12	12	[0, 0, 0]	n/a	FR1	0	R1250N
1866.235	0.0	2096691	DISTRACT_START	n/a	n/a	n/a	-999	12	[0, 0, 0]	n/a	FR1	0	R1250N
1866.235	0.0	2096691	WORD_OFF	n/a	n/a	CLIFF	12	12	[0, 0, 0]	n/a	FR1	0	R1250N
1866.235	0.016	2096691	START	n/a	n/a	n/a	-999	12	[-999, -999, -999]	n/a	FR1	0	R1250N
1866.251	3.801	2096707	PROB	3.801	n/a	n/a	-999	12	[5, 5, 6]	16	FR1	0	R1250N
1870.052	3.599	2100508	PROB	3.599	n/a	n/a	-999	12	[4, 4, 8]	16	FR1	0	R1250N
1873.651	2.518	2104107	PROB	2.518	n/a	n/a	-999	12	[1, 3, 3]	7	FR1	0	R1250N
1876.169	5.584	2106625	PROB	5.584	n/a	n/a	-999	12	[4, 5, 4]	13	FR1	0	R1250N
1881.753	7.534	2112209	PROB	7.534	n/a	n/a	-999	12	[6, 7, 8]	21	FR1	0	R1250N
1889.287	0.017	2119743	STOP	n/a	n/a	n/a	-999	12	[-999, -999, -999]	n/a	FR1	0	R1250N
1889.304	0.65	2119760	DISTRACT_END	n/a	n/a	n/a	-999	12	[0, 0, 0]	n/a	FR1	0	R1250N
1889.954	0.516	2120410	RETRIEVAL_ORIENT	n/a	n/a	n/a	-999	12	[0, 0, 0]	n/a	FR1	0	R1250N
1890.47	2.315	2120926	REC_START	n/a	n/a	n/a	-999	12	[0, 0, 0]	n/a	FR1	0	R1250N
1892.785	1.892	2123241	REC_WORD	1.892	n/a	LAWN	-999	12	[0, 0, 0]	n/a	FR1	0	R1250N
1894.677	2.571	2125133	REC_WORD	2.571	n/a	GRASS	-999	12	[0, 0, 0]	n/a	FR1	0	R1250N
1897.248	2.353	2127704	REC_WORD	2.353	n/a	SHIP	-999	12	[0, 0, 0]	n/a	FR1	0	R1250N
1899.601	3.688	2130057	REC_WORD	3.688	n/a	MULE	-999	12	[0, 0, 0]	n/a	FR1	0	R1250N
1903.289	4.22	2133745	REC_WORD	4.22	n/a	HOUSE	-999	12	[0, 0, 0]	n/a	FR1	0	R1250N
1907.509	2.664	2137965	REC_WORD	2.664	n/a	STORM	-999	12	[0, 0, 0]	n/a	FR1	0	R1250N
1910.173	10.307	2140629	REC_WORD	10.307	n/a	DITCH	-999	12	[0, 0, 0]	n/a	FR1	0	R1250N
1920.48	10.578	2150937	REC_END	n/a	n/a	n/a	-999	12	[0, 0, 0]	n/a	FR1	0	R1250N
1931.058	0.5	2161515	TRIAL	n/a	n/a	n/a	-999	13	[0, 0, 0]	n/a	FR1	0	R1250N
1931.558	10.428	2162015	COUNTDOWN_START	n/a	n/a	n/a	-999	13	[0, 0, 0]	n/a	FR1	0	R1250N
1941.986	0.007	2172443	COUNTDOWN_END	n/a	n/a	n/a	-999	13	[0, 0, 0]	n/a	FR1	0	R1250N
1941.993	1.616	2172450	ORIENT	n/a	n/a	n/a	-999	13	[0, 0, 0]	n/a	FR1	0	R1250N
1943.609	1.9	2174066	ORIENT_OFF	n/a	n/a	n/a	-999	13	[0, 0, 0]	n/a	FR1	0	R1250N
1945.509	1.618	2175966	WORD	n/a	wordpools/wordpool_EN.txt	WHEEL	1	13	[0, 0, 0]	n/a	FR1	0	R1250N
1947.127	0.766	2177584	WORD_OFF	n/a	n/a	WHEEL	1	13	[0, 0, 0]	n/a	FR1	0	R1250N
1947.893	1.616	2178350	WORD	n/a	wordpools/wordpool_EN.txt	BOMB	2	13	[0, 0, 0]	n/a	FR1	0	R1250N
1949.509	0.768	2179966	WORD_OFF	n/a	n/a	BOMB	2	13	[0, 0, 0]	n/a	FR1	0	R1250N
1950.277	1.617	2180734	WORD	n/a	wordpools/wordpool_EN.txt	CONE	3	13	[0, 0, 0]	n/a	FR1	0	R1250N
1951.894	0.766	2182351	WORD_OFF	n/a	n/a	CONE	3	13	[0, 0, 0]	n/a	FR1	0	R1250N
1952.66	1.617	2183117	WORD	n/a	wordpools/wordpool_EN.txt	BRIDGE	4	13	[0, 0, 0]	n/a	FR1	0	R1250N
1954.277	0.817	2184734	WORD_OFF	n/a	n/a	BRIDGE	4	13	[0, 0, 0]	n/a	FR1	0	R1250N
1955.094	1.617	2185551	WORD	n/a	wordpools/wordpool_EN.txt	SMOKE	5	13	[0, 0, 0]	n/a	FR1	0	R1250N
1956.711	0.816	2187168	WORD_OFF	n/a	n/a	SMOKE	5	13	[0, 0, 0]	n/a	FR1	0	R1250N
1957.527	1.618	2187984	WORD	n/a	wordpools/wordpool_EN.txt	WORLD	6	13	[0, 0, 0]	n/a	FR1	0	R1250N
1959.145	0.85	2189602	WORD_OFF	n/a	n/a	WORLD	6	13	[0, 0, 0]	n/a	FR1	0	R1250N
1959.995	1.615	2190452	WORD	n/a	wordpools/wordpool_EN.txt	CLOUD	7	13	[0, 0, 0]	n/a	FR1	0	R1250N
1961.61	0.784	2192067	WORD_OFF	n/a	n/a	CLOUD	7	13	[0, 0, 0]	n/a	FR1	0	R1250N
1962.394	1.618	2192851	WORD	n/a	wordpools/wordpool_EN.txt	STEAM	8	13	[0, 0, 0]	n/a	FR1	0	R1250N
1964.012	0.967	2194469	WORD_OFF	n/a	n/a	STEAM	8	13	[0, 0, 0]	n/a	FR1	0	R1250N
1964.979	1.615	2195436	WORD	n/a	wordpools/wordpool_EN.txt	SPARK	9	13	[0, 0, 0]	n/a	FR1	0	R1250N
1966.594	0.784	2197051	WORD_OFF	n/a	n/a	SPARK	9	13	[0, 0, 0]	n/a	FR1	0	R1250N
1967.378	1.618	2197835	WORD	n/a	wordpools/wordpool_EN.txt	RAIN	10	13	[0, 0, 0]	n/a	FR1	0	R1250N
1968.996	0.816	2199453	WORD_OFF	n/a	n/a	RAIN	10	13	[0, 0, 0]	n/a	FR1	0	R1250N
1969.812	1.616	2200269	WORD	n/a	wordpools/wordpool_EN.txt	ICE	11	13	[0, 0, 0]	n/a	FR1	0	R1250N
1971.428	0.801	2201885	WORD_OFF	n/a	n/a	ICE	11	13	[0, 0, 0]	n/a	FR1	0	R1250N
1972.229	1.617	2202686	WORD	n/a	wordpools/wordpool_EN.txt	CAR	12	13	[0, 0, 0]	n/a	FR1	0	R1250N
1973.846	0.0	2204303	WORD_OFF	n/a	n/a	CAR	12	13	[0, 0, 0]	n/a	FR1	0	R1250N
1973.846	0.001	2204303	DISTRACT_START	n/a	n/a	n/a	-999	13	[0, 0, 0]	n/a	FR1	0	R1250N
1973.847	0.016	2204304	START	n/a	n/a	n/a	-999	13	[-999, -999, -999]	n/a	FR1	0	R1250N
1973.863	7.466	2204320	PROB	7.466	n/a	n/a	-999	13	[1, 6, 9]	16	FR1	0	R1250N
1981.329	3.435	2211787	PROB	3.435	n/a	n/a	-999	13	[6, 1, 5]	12	FR1	0	R1250N
1984.764	2.899	2215222	PROB	2.899	n/a	n/a	-999	13	[4, 6, 3]	13	FR1	0	R1250N
1987.663	2.867	2218121	PROB	2.867	n/a	n/a	-999	13	[8, 2, 3]	13	FR1	0	R1250N
1990.53	6.461	2220988	PROB	6.461	n/a	n/a	-999	13	[1, 7, 6]	14	FR1	0	R1250N
1996.991	0.008	2227449	STOP	n/a	n/a	n/a	-999	13	[-999, -999, -999]	n/a	FR1	0	R1250N
1996.999	0.532	2227457	DISTRACT_END	n/a	n/a	n/a	-999	13	[0, 0, 0]	n/a	FR1	0	R1250N
1997.531	0.502	2227989	RETRIEVAL_ORIENT	n/a	n/a	n/a	-999	13	[0, 0, 0]	n/a	FR1	0	R1250N
1998.033	1.466	2228491	REC_START	n/a	n/a	n/a	-999	13	[0, 0, 0]	n/a	FR1	0	R1250N
1999.499	1.505	2229957	REC_WORD	1.505	n/a	SPARK	-999	13	[0, 0, 0]	n/a	FR1	0	R1250N
2001.004	1.924	2231462	REC_WORD	1.924	n/a	RAIN	-999	13	[0, 0, 0]	n/a	FR1	0	R1250N
2002.928	2.829	2233386	REC_WORD	2.829	n/a	ICE	-999	13	[0, 0, 0]	n/a	FR1	0	R1250N
2005.757	2.969	2236215	REC_WORD	2.969	n/a	BRIDGE	-999	13	[0, 0, 0]	n/a	FR1	0	R1250N
2008.726	2.053	2239184	REC_WORD	2.053	n/a	BOMB	-999	13	[0, 0, 0]	n/a	FR1	0	R1250N
2010.779	8.741	2241237	REC_WORD	8.741	n/a	WHEEL	-999	13	[0, 0, 0]	n/a	FR1	0	R1250N
2019.52	8.521	2249978	REC_WORD	8.521	n/a	WORLD	-999	13	[0, 0, 0]	n/a	FR1	0	R1250N
2028.041	617.61	2258499	REC_END	n/a	n/a	n/a	-999	13	[0, 0, 0]	n/a	FR1	0	R1250N
2645.651	0.5	2876119	TRIAL	n/a	n/a	n/a	-999	14	[0, 0, 0]	n/a	FR1	0	R1250N
2646.151	10.428	2876619	COUNTDOWN_START	n/a	n/a	n/a	-999	14	[0, 0, 0]	n/a	FR1	0	R1250N
2656.579	0.006	2887047	COUNTDOWN_END	n/a	n/a	n/a	-999	14	[0, 0, 0]	n/a	FR1	0	R1250N
2656.585	1.618	2887053	ORIENT	n/a	n/a	n/a	-999	14	[0, 0, 0]	n/a	FR1	0	R1250N
2658.203	2.149	2888671	ORIENT_OFF	n/a	n/a	n/a	-999	14	[0, 0, 0]	n/a	FR1	0	R1250N
2660.352	1.618	2890820	WORD	n/a	wordpools/wordpool_EN.txt	VAN	1	14	[0, 0, 0]	n/a	FR1	0	R1250N
2661.97	0.983	2892438	WORD_OFF	n/a	n/a	VAN	1	14	[0, 0, 0]	n/a	FR1	0	R1250N
2662.953	1.616	2893421	WORD	n/a	wordpools/wordpool_EN.txt	SQUARE	2	14	[0, 0, 0]	n/a	FR1	0	R1250N
2664.569	0.984	2895037	WORD_OFF	n/a	n/a	SQUARE	2	14	[0, 0, 0]	n/a	FR1	0	R1250N
2665.553	1.618	2896021	WORD	n/a	wordpools/wordpool_EN.txt	STOVE	3	14	[0, 0, 0]	n/a	FR1	0	R1250N
2667.171	0.766	2897639	WORD_OFF	n/a	n/a	STOVE	3	14	[0, 0, 0]	n/a	FR1	0	R1250N
2667.937	1.616	2898405	WORD	n/a	wordpools/wordpool_EN.txt	SEAT	4	14	[0, 0, 0]	n/a	FR1	0	R1250N
2669.553	0.8	2900021	WORD_OFF	n/a	n/a	SEAT	4	14	[0, 0, 0]	n/a	FR1	0	R1250N
2670.353	1.618	2900821	WORD	n/a	wordpools/wordpool_EN.txt	CUP	5	14	[0, 0, 0]	n/a	FR1	0	R1250N
2671.971	0.8	2902439	WORD_OFF	n/a	n/a	CUP	5	14	[0, 0, 0]	n/a	FR1	0	R1250N
2672.771	1.616	2903239	WORD	n/a	wordpools/wordpool_EN.txt	PIN	6	14	[0, 0, 0]	n/a	FR1	0	R1250N
2674.387	0.884	2904855	WORD_OFF	n/a	n/a	PIN	6	14	[0, 0, 0]	n/a	FR1	0	R1250N
2675.271	1.617	2905739	WORD	n/a	wordpools/wordpool_EN.txt	BALL	7	14	[0, 0, 0]	n/a	FR1	0	R1250N
2676.888	0.917	2907356	WORD_OFF	n/a	n/a	BALL	7	14	[0, 0, 0]	n/a	FR1	0	R1250N
2677.805	1.616	2908273	WORD	n/a	wordpools/wordpool_EN.txt	BATH	8	14	[0, 0, 0]	n/a	FR1	0	R1250N
2679.421	0.884	2909889	WORD_OFF	n/a	n/a	BATH	8	14	[0, 0, 0]	n/a	FR1	0	R1250N
2680.305	1.617	2910773	WORD	n/a	wordpools/wordpool_EN.txt	SIGN	9	14	[0, 0, 0]	n/a	FR1	0	R1250N
2681.922	0.782	2912390	WORD_OFF	n/a	n/a	SIGN	9	14	[0, 0, 0]	n/a	FR1	0	R1250N
2682.704	1.617	2913172	WORD	n/a	wordpools/wordpool_EN.txt	BOX	10	14	[0, 0, 0]	n/a	FR1	0	R1250N
2684.321	1.0	2914789	WORD_OFF	n/a	n/a	BOX	10	14	[0, 0, 0]	n/a	FR1	0	R1250N
2685.321	1.601	2915789	WORD	n/a	wordpools/wordpool_EN.txt	APE	11	14	[0, 0, 0]	n/a	FR1	0	R1250N
2686.922	0.783	2917390	WORD_OFF	n/a	n/a	APE	11	14	[0, 0, 0]	n/a	FR1	0	R1250N
2687.705	1.617	2918173	WORD	n/a	wordpools/wordpool_EN.txt	PIPE	12	14	[0, 0, 0]	n/a	FR1	0	R1250N
2689.322	0.0	2919791	DISTRACT_START	n/a	n/a	n/a	-999	14	[0, 0, 0]	n/a	FR1	0	R1250N
2689.322	0.0	2919791	WORD_OFF	n/a	n/a	PIPE	12	14	[0, 0, 0]	n/a	FR1	0	R1250N
2689.322	0.017	2919791	START	n/a	n/a	n/a	-999	14	[-999, -999, -999]	n/a	FR1	0	R1250N
2689.339	5.618	2919808	PROB	5.618	n/a	n/a	-999	14	[5, 9, 3]	17	FR1	0	R1250N
2694.957	2.532	2925426	PROB	2.532	n/a	n/a	-999	14	[1, 1, 4]	6	FR1	0	R1250N
2697.489	3.834	2927958	PROB	3.834	n/a	n/a	-999	14	[1, 5, 7]	13	FR1	0	R1250N
2701.323	4.051	2931792	PROB	4.051	n/a	n/a	-999	14	[3, 5, 7]	15	FR1	0	R1250N
2705.374	3.701	2935843	PROB	3.701	n/a	n/a	-999	14	[6, 7, 2]	15	FR1	0	R1250N
2709.075	3.553	2939544	PROB	3.553	n/a	n/a	-999	14	[6, 7, 1]	14	FR1	0	R1250N
2712.628	0.013	2943097	STOP	n/a	n/a	n/a	-999	14	[-999, -999, -999]	n/a	FR1	0	R1250N
2712.641	0.7	2943110	DISTRACT_END	n/a	n/a	n/a	-999	14	[0, 0, 0]	n/a	FR1	0	R1250N
2713.341	0.518	2943810	RETRIEVAL_ORIENT	n/a	n/a	n/a	-999	14	[0, 0, 0]	n/a	FR1	0	R1250N
2713.859	2.728	2944328	REC_START	n/a	n/a	n/a	-999	14	[0, 0, 0]	n/a	FR1	0	R1250N
2716.587	1.48	2947056	REC_WORD	1.48	n/a	STOVE	-999	14	[0, 0, 0]	n/a	FR1	0	R1250N
2718.067	1.493	2948536	REC_WORD	1.493	n/a	VAN	-999	14	[0, 0, 0]	n/a	FR1	0	R1250N
2719.56	1.953	2950029	REC_WORD	1.953	n/a	SQUARE	-999	14	[0, 0, 0]	n/a	FR1	0	R1250N
2721.513	3.332	2951982	REC_WORD	3.332	n/a	CUP	-999	14	[0, 0, 0]	n/a	FR1	0	R1250N
2724.845	1.791	2955314	REC_WORD	1.791	n/a	BALL	-999	14	[0, 0, 0]	n/a	FR1	0	R1250N
2726.636	1.967	2957105	REC_WORD	1.967	n/a	FLAG	-999	14	[0, 0, 0]	n/a	FR1	0	R1250N
2728.603	6.342	2959072	REC_WORD	6.342	n/a	APE	-999	14	[0, 0, 0]	n/a	FR1	0	R1250N
2734.945	8.924	2965414	REC_WORD	8.924	n/a	BOX	-999	14	[0, 0, 0]	n/a	FR1	0	R1250N
2743.869	6.06	2974338	REC_END	n/a	n/a	n/a	-999	14	[0, 0, 0]	n/a	FR1	0	R1250N
2749.929	0.5	2980398	TRIAL	n/a	n/a	n/a	-999	15	[0, 0, 0]	n/a	FR1	0	R1250N
2750.429	10.428	2980898	COUNTDOWN_START	n/a	n/a	n/a	-999	15	[0, 0, 0]	n/a	FR1	0	R1250N
2760.857	0.007	2991327	COUNTDOWN_END	n/a	n/a	n/a	-999	15	[0, 0, 0]	n/a	FR1	0	R1250N
2760.864	1.616	2991334	ORIENT	n/a	n/a	n/a	-999	15	[0, 0, 0]	n/a	FR1	0	R1250N
2762.48	2.017	2992950	ORIENT_OFF	n/a	n/a	n/a	-999	15	[0, 0, 0]	n/a	FR1	0	R1250N
2764.497	1.617	2994967	WORD	n/a	wordpools/wordpool_EN.txt	BEAR	1	15	[0, 0, 0]	n/a	FR1	0	R1250N
2766.114	0.9	2996584	WORD_OFF	n/a	n/a	BEAR	1	15	[0, 0, 0]	n/a	FR1	0	R1250N
2767.014	1.616	2997484	WORD	n/a	wordpools/wordpool_EN.txt	LAMB	2	15	[0, 0, 0]	n/a	FR1	0	R1250N
2768.63	0.934	2999100	WORD_OFF	n/a	n/a	LAMB	2	15	[0, 0, 0]	n/a	FR1	0	R1250N
2769.564	1.618	3000034	WORD	n/a	wordpools/wordpool_EN.txt	TAIL	3	15	[0, 0, 0]	n/a	FR1	0	R1250N
2771.182	0.966	3001652	WORD_OFF	n/a	n/a	TAIL	3	15	[0, 0, 0]	n/a	FR1	0	R1250N
2772.148	1.617	3002618	WORD	n/a	wordpools/wordpool_EN.txt	WOLF	4	15	[0, 0, 0]	n/a	FR1	0	R1250N
2773.765	0.933	3004235	WORD_OFF	n/a	n/a	WOLF	4	15	[0, 0, 0]	n/a	FR1	0	R1250N
2774.698	1.618	3005168	WORD	n/a	wordpools/wordpool_EN.txt	MOUSE	5	15	[0, 0, 0]	n/a	FR1	0	R1250N
2776.316	0.816	3006786	WORD_OFF	n/a	n/a	MOUSE	5	15	[0, 0, 0]	n/a	FR1	0	R1250N
2777.132	1.617	3007602	WORD	n/a	wordpools/wordpool_EN.txt	HEN	6	15	[0, 0, 0]	n/a	FR1	0	R1250N
2778.749	1.0	3009219	WORD_OFF	n/a	n/a	HEN	6	15	[0, 0, 0]	n/a	FR1	0	R1250N
2779.749	1.616	3010219	WORD	n/a	wordpools/wordpool_EN.txt	KITE	7	15	[0, 0, 0]	n/a	FR1	0	R1250N
2781.365	0.967	3011835	WORD_OFF	n/a	n/a	KITE	7	15	[0, 0, 0]	n/a	FR1	0	R1250N
2782.332	1.618	3012802	WORD	n/a	wordpools/wordpool_EN.txt	BIRD	8	15	[0, 0, 0]	n/a	FR1	0	R1250N
2783.95	0.9	3014420	WORD_OFF	n/a	n/a	BIRD	8	15	[0, 0, 0]	n/a	FR1	0	R1250N
2784.85	1.616	3015320	WORD	n/a	wordpools/wordpool_EN.txt	BEAN	9	15	[0, 0, 0]	n/a	FR1	0	R1250N
2786.466	0.851	3016936	WORD_OFF	n/a	n/a	BEAN	9	15	[0, 0, 0]	n/a	FR1	0	R1250N
2787.317	1.617	3017787	WORD	n/a	wordpools/wordpool_EN.txt	BOY	10	15	[0, 0, 0]	n/a	FR1	0	R1250N
2788.934	0.866	3019404	WORD_OFF	n/a	n/a	BOY	10	15	[0, 0, 0]	n/a	FR1	0	R1250N
2789.8	1.616	3020270	WORD	n/a	wordpools/wordpool_EN.txt	FOX	11	15	[0, 0, 0]	n/a	FR1	0	R1250N
2791.416	0.967	3021886	WORD_OFF	n/a	n/a	FOX	11	15	[0, 0, 0]	n/a	FR1	0	R1250N
2792.383	1.618	3022853	WORD	n/a	wordpools/wordpool_EN.txt	SKUNK	12	15	[0, 0, 0]	n/a	FR1	0	R1250N
2794.001	0.0	3024471	WORD_OFF	n/a	n/a	SKUNK	12	15	[0, 0, 0]	n/a	FR1	0	R1250N
2794.001	0.0	3024471	DISTRACT_START	n/a	n/a	n/a	-999	15	[0, 0, 0]	n/a	FR1	0	R1250N
2794.001	0.016	3024471	START	n/a	n/a	n/a	-999	15	[-999, -999, -999]	n/a	FR1	0	R1250N
2794.017	7.768	3024487	PROB	7.768	n/a	n/a	-999	15	[1, 8, 8]	17	FR1	0	R1250N
2801.785	3.484	3032255	PROB	3.484	n/a	n/a	-999	15	[6, 7, 9]	22	FR1	0	R1250N
2805.269	5.867	3035739	PROB	5.867	n/a	n/a	-999	15	[6, 5, 2]	13	FR1	0	R1250N
2811.136	3.421	3041606	PROB	3.421	n/a	n/a	-999	15	[1, 8, 6]	15	FR1	0	R1250N
2814.557	0.012	3045027	STOP	n/a	n/a	n/a	-999	15	[-999, -999, -999]	n/a	FR1	0	R1250N
2814.569	0.634	3045039	DISTRACT_END	n/a	n/a	n/a	-999	15	[0, 0, 0]	n/a	FR1	0	R1250N
2815.203	0.517	3045673	RETRIEVAL_ORIENT	n/a	n/a	n/a	-999	15	[0, 0, 0]	n/a	FR1	0	R1250N
2815.72	1.774	3046190	REC_START	n/a	n/a	n/a	-999	15	[0, 0, 0]	n/a	FR1	0	R1250N
2817.494	1.802	3047965	REC_WORD	1.802	n/a	BEAR	-999	15	[0, 0, 0]	n/a	FR1	0	R1250N
2819.296	1.943	3049767	REC_WORD	1.943	n/a	BIRD	-999	15	[0, 0, 0]	n/a	FR1	0	R1250N
2821.239	1.81	3051710	REC_WORD	1.81	n/a	WOLF	-999	15	[0, 0, 0]	n/a	FR1	0	R1250N
2823.049	2.181	3053520	REC_WORD	2.181	n/a	SKUNK	-999	15	[0, 0, 0]	n/a	FR1	0	R1250N
2825.23	2.383	3055701	REC_WORD	2.383	n/a	HEN	-999	15	[0, 0, 0]	n/a	FR1	0	R1250N
2827.613	2.478	3058084	REC_WORD	2.478	n/a	BEAN	-999	15	[0, 0, 0]	n/a	FR1	0	R1250N
2830.091	7.819	3060562	REC_WORD	7.819	n/a	BOY	-999	15	[0, 0, 0]	n/a	FR1	0	R1250N
2837.91	7.82	3068381	REC_WORD	7.82	n/a	KITE	-999	15	[0, 0, 0]	n/a	FR1	0	R1250N
2845.73	6.444	3076201	REC_END	n/a	n/a	n/a	-999	15	[0, 0, 0]	n/a	FR1	0	R1250N
2852.174	0.5	3082645	TRIAL	n/a	n/a	n/a	-999	16	[0, 0, 0]	n/a	FR1	0	R1250N
2852.674	10.428	3083145	COUNTDOWN_START	n/a	n/a	n/a	-999	16	[0, 0, 0]	n/a	FR1	0	R1250N
2863.102	0.006	3093573	COUNTDOWN_END	n/a	n/a	n/a	-999	16	[0, 0, 0]	n/a	FR1	0	R1250N
2863.108	1.617	3093579	ORIENT	n/a	n/a	n/a	-999	16	[0, 0, 0]	n/a	FR1	0	R1250N
2864.725	2.184	3095196	ORIENT_OFF	n/a	n/a	n/a	-999	16	[0, 0, 0]	n/a	FR1	0	R1250N
2866.909	1.615	3097380	WORD	n/a	wordpools/wordpool_EN.txt	SINK	1	16	[0, 0, 0]	n/a	FR1	0	R1250N
2868.524	0.85	3098995	WORD_OFF	n/a	n/a	SINK	1	16	[0, 0, 0]	n/a	FR1	0	R1250N
2869.374	1.601	3099845	WORD	n/a	wordpools/wordpool_EN.txt	ROOF	2	16	[0, 0, 0]	n/a	FR1	0	R1250N
2870.975	0.801	3101446	WORD_OFF	n/a	n/a	ROOF	2	16	[0, 0, 0]	n/a	FR1	0	R1250N
2871.776	1.615	3102247	WORD	n/a	wordpools/wordpool_EN.txt	PLATE	3	16	[0, 0, 0]	n/a	FR1	0	R1250N
2873.391	1.001	3103862	WORD_OFF	n/a	n/a	PLATE	3	16	[0, 0, 0]	n/a	FR1	0	R1250N
2874.392	1.618	3104863	WORD	n/a	wordpools/wordpool_EN.txt	PALM	4	16	[0, 0, 0]	n/a	FR1	0	R1250N
2876.01	0.866	3106481	WORD_OFF	n/a	n/a	PALM	4	16	[0, 0, 0]	n/a	FR1	0	R1250N
2876.876	1.616	3107347	WORD	n/a	wordpools/wordpool_EN.txt	BOWL	5	16	[0, 0, 0]	n/a	FR1	0	R1250N
2878.492	0.934	3108963	WORD_OFF	n/a	n/a	BOWL	5	16	[0, 0, 0]	n/a	FR1	0	R1250N
2879.426	1.617	3109897	WORD	n/a	wordpools/wordpool_EN.txt	WHALE	6	16	[0, 0, 0]	n/a	FR1	0	R1250N
2881.043	0.967	3111514	WORD_OFF	n/a	n/a	WHALE	6	16	[0, 0, 0]	n/a	FR1	0	R1250N
2882.01	1.616	3112482	WORD	n/a	wordpools/wordpool_EN.txt	FACE	7	16	[0, 0, 0]	n/a	FR1	0	R1250N
2883.626	0.817	3114098	WORD_OFF	n/a	n/a	FACE	7	16	[0, 0, 0]	n/a	FR1	0	R1250N
2884.443	1.618	3114915	WORD	n/a	wordpools/wordpool_EN.txt	PIT	8	16	[0, 0, 0]	n/a	FR1	0	R1250N
2886.061	0.766	3116533	WORD_OFF	n/a	n/a	PIT	8	16	[0, 0, 0]	n/a	FR1	0	R1250N
2886.827	1.616	3117299	WORD	n/a	wordpools/wordpool_EN.txt	ARM	9	16	[0, 0, 0]	n/a	FR1	0	R1250N
2888.443	0.818	3118915	WORD_OFF	n/a	n/a	ARM	9	16	[0, 0, 0]	n/a	FR1	0	R1250N
2889.261	1.617	3119733	WORD	n/a	wordpools/wordpool_EN.txt	VINE	10	16	[0, 0, 0]	n/a	FR1	0	R1250N
2890.878	1.0	3121350	WORD_OFF	n/a	n/a	VINE	10	16	[0, 0, 0]	n/a	FR1	0	R1250N
2891.878	1.616	3122350	WORD	n/a	wordpools/wordpool_EN.txt	NET	11	16	[0, 0, 0]	n/a	FR1	0	R1250N
2893.494	0.833	3123966	WORD_OFF	n/a	n/a	NET	11	16	[0, 0, 0]	n/a	FR1	0	R1250N
2894.327	1.618	3124799	WORD	n/a	wordpools/wordpool_EN.txt	BAT	12	16	[0, 0, 0]	n/a	FR1	0	R1250N
2895.945	0.0	3126417	WORD_OFF	n/a	n/a	BAT	12	16	[0, 0, 0]	n/a	FR1	0	R1250N
2895.945	0.001	3126417	DISTRACT_START	n/a	n/a	n/a	-999	16	[0, 0, 0]	n/a	FR1	0	R1250N
2895.946	0.016	3126418	START	n/a	n/a	n/a	-999	16	[-999, -999, -999]	n/a	FR1	0	R1250N
2895.962	4.017	3126434	PROB	4.017	n/a	n/a	-999	16	[7, 9, 1]	17	FR1	0	R1250N
2899.979	10.168	3130451	PROB	10.168	n/a	n/a	-999	16	[9, 8, 7]	21	FR1	0	R1250N
2910.147	7.173	3140619	PROB	7.173	n/a	n/a	-999	16	[5, 9, 7]	21	FR1	0	R1250N
2917.32	0.01	3147792	STOP	n/a	n/a	n/a	-999	16	[-999, -999, -999]	n/a	FR1	0	R1250N
2917.33	0.601	3147802	DISTRACT_END	n/a	n/a	n/a	-999	16	[0, 0, 0]	n/a	FR1	0	R1250N
2917.931	0.516	3148403	RETRIEVAL_ORIENT	n/a	n/a	n/a	-999	16	[0, 0, 0]	n/a	FR1	0	R1250N
2918.447	5.043	3148919	REC_START	n/a	n/a	n/a	-999	16	[0, 0, 0]	n/a	FR1	0	R1250N
2923.49	2.587	3153962	REC_WORD	2.587	n/a	SINK	-999	16	[0, 0, 0]	n/a	FR1	0	R1250N
2926.077	2.328	3156549	REC_WORD	2.328	n/a	ROOF	-999	16	[0, 0, 0]	n/a	FR1	0	R1250N
2928.405	1.706	3158877	REC_WORD	1.706	n/a	NET	-999	16	[0, 0, 0]	n/a	FR1	0	R1250N
2930.111	1.855	3160583	REC_WORD	1.855	n/a	PIT	-999	16	[0, 0, 0]	n/a	FR1	0	R1250N
2931.966	1.797	3162438	REC_WORD	1.797	n/a	BAT	-999	16	[0, 0, 0]	n/a	FR1	0	R1250N
2933.763	3.153	3164235	REC_WORD	3.153	n/a	PALM	-999	16	[0, 0, 0]	n/a	FR1	0	R1250N
2936.916	7.331	3167388	REC_WORD	7.331	n/a	WHALE	-999	16	[0, 0, 0]	n/a	FR1	0	R1250N
2944.247	4.21	3174719	REC_WORD_VV	4.21	n/a	<>	-999	16	[0, 0, 0]	n/a	FR1	0	R1250N
2948.457	5.828	3178930	REC_END	n/a	n/a	n/a	-999	16	[0, 0, 0]	n/a	FR1	0	R1250N
2954.285	0.5	3184758	TRIAL	n/a	n/a	n/a	-999	17	[0, 0, 0]	n/a	FR1	0	R1250N
2954.785	10.428	3185258	COUNTDOWN_START	n/a	n/a	n/a	-999	17	[0, 0, 0]	n/a	FR1	0	R1250N
2965.213	0.006	3195686	COUNTDOWN_END	n/a	n/a	n/a	-999	17	[0, 0, 0]	n/a	FR1	0	R1250N
2965.219	1.617	3195692	ORIENT	n/a	n/a	n/a	-999	17	[0, 0, 0]	n/a	FR1	0	R1250N
2966.836	2.033	3197309	ORIENT_OFF	n/a	n/a	n/a	-999	17	[0, 0, 0]	n/a	FR1	0	R1250N
2968.869	1.616	3199342	WORD	n/a	wordpools/wordpool_EN.txt	BEAK	1	17	[0, 0, 0]	n/a	FR1	0	R1250N
2970.485	0.834	3200958	WORD_OFF	n/a	n/a	BEAK	1	17	[0, 0, 0]	n/a	FR1	0	R1250N
2971.319	1.618	3201792	WORD	n/a	wordpools/wordpool_EN.txt	FLEA	2	17	[0, 0, 0]	n/a	FR1	0	R1250N
2972.937	0.95	3203410	WORD_OFF	n/a	n/a	FLEA	2	17	[0, 0, 0]	n/a	FR1	0	R1250N
2973.887	1.616	3204360	WORD	n/a	wordpools/wordpool_EN.txt	JAR	3	17	[0, 0, 0]	n/a	FR1	0	R1250N
2975.503	0.933	3205976	WORD_OFF	n/a	n/a	JAR	3	17	[0, 0, 0]	n/a	FR1	0	R1250N
2976.436	1.601	3206909	WORD	n/a	wordpools/wordpool_EN.txt	SHIRT	4	17	[0, 0, 0]	n/a	FR1	0	R1250N
2978.037	0.967	3208510	WORD_OFF	n/a	n/a	SHIRT	4	17	[0, 0, 0]	n/a	FR1	0	R1250N
2979.004	1.616	3209477	WORD	n/a	wordpools/wordpool_EN.txt	SEED	5	17	[0, 0, 0]	n/a	FR1	0	R1250N
2980.62	0.783	3211093	WORD_OFF	n/a	n/a	SEED	5	17	[0, 0, 0]	n/a	FR1	0	R1250N
2981.403	1.601	3211876	WORD	n/a	wordpools/wordpool_EN.txt	STEM	6	17	[0, 0, 0]	n/a	FR1	0	R1250N
2983.004	0.95	3213477	WORD_OFF	n/a	n/a	STEM	6	17	[0, 0, 0]	n/a	FR1	0	R1250N
2983.954	1.616	3214427	WORD	n/a	wordpools/wordpool_EN.txt	COIN	7	17	[0, 0, 0]	n/a	FR1	0	R1250N
2985.57	0.917	3216043	WORD_OFF	n/a	n/a	COIN	7	17	[0, 0, 0]	n/a	FR1	0	R1250N
2986.487	1.618	3216960	WORD	n/a	wordpools/wordpool_EN.txt	PURSE	8	17	[0, 0, 0]	n/a	FR1	0	R1250N
2988.105	0.85	3218578	WORD_OFF	n/a	n/a	PURSE	8	17	[0, 0, 0]	n/a	FR1	0	R1250N
2988.955	1.616	3219428	WORD	n/a	wordpools/wordpool_EN.txt	GLASS	9	17	[0, 0, 0]	n/a	FR1	0	R1250N
2990.571	0.767	3221044	WORD_OFF	n/a	n/a	GLASS	9	17	[0, 0, 0]	n/a	FR1	0	R1250N
2991.338	1.618	3221811	WORD	n/a	wordpools/wordpool_EN.txt	STORE	10	17	[0, 0, 0]	n/a	FR1	0	R1250N
2992.956	0.8	3223429	WORD_OFF	n/a	n/a	STORE	10	17	[0, 0, 0]	n/a	FR1	0	R1250N
2993.756	1.615	3224229	WORD	n/a	wordpools/wordpool_EN.txt	STREET	11	17	[0, 0, 0]	n/a	FR1	0	R1250N
2995.371	0.835	3225844	WORD_OFF	n/a	n/a	STREET	11	17	[0, 0, 0]	n/a	FR1	0	R1250N
2996.206	1.617	3226679	WORD	n/a	wordpools/wordpool_EN.txt	THUMB	12	17	[0, 0, 0]	n/a	FR1	0	R1250N
2997.823	0.0	3228296	WORD_OFF	n/a	n/a	THUMB	12	17	[0, 0, 0]	n/a	FR1	0	R1250N
2997.823	0.0	3228296	DISTRACT_START	n/a	n/a	n/a	-999	17	[0, 0, 0]	n/a	FR1	0	R1250N
2997.823	0.016	3228296	START	n/a	n/a	n/a	-999	17	[-999, -999, -999]	n/a	FR1	0	R1250N
2997.839	4.6	3228312	PROB	4.6	n/a	n/a	-999	17	[5, 1, 1]	7	FR1	0	R1250N
3002.439	3.835	3232912	PROB	3.835	n/a	n/a	-999	17	[4, 9, 5]	18	FR1	0	R1250N
3006.274	4.717	3236747	PROB	4.717	n/a	n/a	-999	17	[6, 5, 1]	12	FR1	0	R1250N
3010.991	5.267	3241465	PROB	5.267	n/a	n/a	-999	17	[3, 1, 3]	7	FR1	0	R1250N
3016.258	4.198	3246732	PROB	4.198	n/a	n/a	-999	17	[9, 7, 2]	18	FR1	0	R1250N
3020.456	0.018	3250930	STOP	n/a	n/a	n/a	-999	17	[-999, -999, -999]	n/a	FR1	0	R1250N
3020.474	0.684	3250948	DISTRACT_END	n/a	n/a	n/a	-999	17	[0, 0, 0]	n/a	FR1	0	R1250N
3021.158	0.517	3251632	RETRIEVAL_ORIENT	n/a	n/a	n/a	-999	17	[0, 0, 0]	n/a	FR1	0	R1250N
3021.675	1.677	3252149	REC_START	n/a	n/a	n/a	-999	17	[0, 0, 0]	n/a	FR1	0	R1250N
3023.352	3.645	3253826	REC_WORD	3.645	n/a	BEAK	-999	17	[0, 0, 0]	n/a	FR1	0	R1250N
3026.997	4.482	3257471	REC_WORD_VV	4.482	n/a	<>	-999	17	[0, 0, 0]	n/a	FR1	0	R1250N
3031.479	13.989	3261953	REC_WORD	13.989	n/a	BEAK	-999	17	[0, 0, 0]	n/a	FR1	0	R1250N
3045.468	5.415	3275942	REC_WORD	5.415	n/a	JAR	-999	17	[0, 0, 0]	n/a	FR1	0	R1250N
3050.883	0.802	3281357	REC_WORD	0.802	n/a	GLASS	-999	17	[0, 0, 0]	n/a	FR1	0	R1250N
3051.685	7.061	3282159	REC_END	n/a	n/a	n/a	-999	17	[0, 0, 0]	n/a	FR1	0	R1250N
3058.746	0.5	3289220	TRIAL	n/a	n/a	n/a	-999	18	[0, 0, 0]	n/a	FR1	0	R1250N
3059.246	10.428	3289720	COUNTDOWN_START	n/a	n/a	n/a	-999	18	[0, 0, 0]	n/a	FR1	0	R1250N
3069.674	0.005	3300148	COUNTDOWN_END	n/a	n/a	n/a	-999	18	[0, 0, 0]	n/a	FR1	0	R1250N
3069.679	1.618	3300153	ORIENT	n/a	n/a	n/a	-999	18	[0, 0, 0]	n/a	FR1	0	R1250N
3071.297	2.199	3301771	ORIENT_OFF	n/a	n/a	n/a	-999	18	[0, 0, 0]	n/a	FR1	0	R1250N
3073.496	1.618	3303970	WORD	n/a	wordpools/wordpool_EN.txt	CANE	1	18	[0, 0, 0]	n/a	FR1	0	R1250N
3075.114	0.85	3305589	WORD_OFF	n/a	n/a	CANE	1	18	[0, 0, 0]	n/a	FR1	0	R1250N
3075.964	1.616	3306439	WORD	n/a	wordpools/wordpool_EN.txt	GOAT	2	18	[0, 0, 0]	n/a	FR1	0	R1250N
3077.58	0.817	3308055	WORD_OFF	n/a	n/a	GOAT	2	18	[0, 0, 0]	n/a	FR1	0	R1250N
3078.397	1.618	3308872	WORD	n/a	wordpools/wordpool_EN.txt	SOAP	3	18	[0, 0, 0]	n/a	FR1	0	R1250N
3080.015	0.8	3310490	WORD_OFF	n/a	n/a	SOAP	3	18	[0, 0, 0]	n/a	FR1	0	R1250N
3080.815	1.615	3311290	WORD	n/a	wordpools/wordpool_EN.txt	SOUP	4	18	[0, 0, 0]	n/a	FR1	0	R1250N
3082.43	0.885	3312905	WORD_OFF	n/a	n/a	SOUP	4	18	[0, 0, 0]	n/a	FR1	0	R1250N
3083.315	1.617	3313790	WORD	n/a	wordpools/wordpool_EN.txt	SALT	5	18	[0, 0, 0]	n/a	FR1	0	R1250N
3084.932	0.9	3315407	WORD_OFF	n/a	n/a	SALT	5	18	[0, 0, 0]	n/a	FR1	0	R1250N
3085.832	1.616	3316307	WORD	n/a	wordpools/wordpool_EN.txt	CHIN	6	18	[0, 0, 0]	n/a	FR1	0	R1250N
3087.448	0.801	3317923	WORD_OFF	n/a	n/a	CHIN	6	18	[0, 0, 0]	n/a	FR1	0	R1250N
3088.249	1.617	3318724	WORD	n/a	wordpools/wordpool_EN.txt	STONE	7	18	[0, 0, 0]	n/a	FR1	0	R1250N
3089.866	0.983	3320341	WORD_OFF	n/a	n/a	STONE	7	18	[0, 0, 0]	n/a	FR1	0	R1250N
3090.849	1.616	3321324	WORD	n/a	wordpools/wordpool_EN.txt	CLAY	8	18	[0, 0, 0]	n/a	FR1	0	R1250N
3092.465	0.984	3322940	WORD_OFF	n/a	n/a	CLAY	8	18	[0, 0, 0]	n/a	FR1	0	R1250N
3093.449	1.617	3323924	WORD	n/a	wordpools/wordpool_EN.txt	CAKE	9	18	[0, 0, 0]	n/a	FR1	0	R1250N
3095.066	0.917	3325541	WORD_OFF	n/a	n/a	CAKE	9	18	[0, 0, 0]	n/a	FR1	0	R1250N
3095.983	1.616	3326458	WORD	n/a	wordpools/wordpool_EN.txt	STRAW	10	18	[0, 0, 0]	n/a	FR1	0	R1250N
3097.599	0.767	3328074	WORD_OFF	n/a	n/a	STRAW	10	18	[0, 0, 0]	n/a	FR1	0	R1250N
3098.366	1.618	3328841	WORD	n/a	wordpools/wordpool_EN.txt	MOOSE	11	18	[0, 0, 0]	n/a	FR1	0	R1250N
3099.984	0.8	3330459	WORD_OFF	n/a	n/a	MOOSE	11	18	[0, 0, 0]	n/a	FR1	0	R1250N
3100.784	1.616	3331259	WORD	n/a	wordpools/wordpool_EN.txt	PEACH	12	18	[0, 0, 0]	n/a	FR1	0	R1250N
3102.4	0.0	3332875	WORD_OFF	n/a	n/a	PEACH	12	18	[0, 0, 0]	n/a	FR1	0	R1250N
3102.4	0.0	3332875	DISTRACT_START	n/a	n/a	n/a	-999	18	[0, 0, 0]	n/a	FR1	0	R1250N
3102.4	0.016	3332875	START	n/a	n/a	n/a	-999	18	[-999, -999, -999]	n/a	FR1	0	R1250N
3102.416	5.469	3332891	PROB	5.469	n/a	n/a	-999	18	[6, 5, 7]	18	FR1	0	R1250N
3107.885	6.05	3338360	PROB	6.05	n/a	n/a	-999	18	[5, 7, 7]	19	FR1	0	R1250N
3113.935	4.633	3344410	PROB	4.633	n/a	n/a	-999	18	[8, 8, 4]	20	FR1	0	R1250N
3118.568	3.401	3349043	PROB	3.401	n/a	n/a	-999	18	[5, 3, 8]	16	FR1	0	R1250N
3121.969	8.665	3352444	PROB	8.665	n/a	n/a	-999	18	[4, 8, 9]	21	FR1	0	R1250N
3130.634	0.019	3361109	STOP	n/a	n/a	n/a	-999	18	[-999, -999, -999]	n/a	FR1	0	R1250N
3130.653	0.601	3361128	DISTRACT_END	n/a	n/a	n/a	-999	18	[0, 0, 0]	n/a	FR1	0	R1250N
3131.254	0.517	3361729	RETRIEVAL_ORIENT	n/a	n/a	n/a	-999	18	[0, 0, 0]	n/a	FR1	0	R1250N
3131.771	2.132	3362246	REC_START	n/a	n/a	n/a	-999	18	[0, 0, 0]	n/a	FR1	0	R1250N
3133.903	1.575	3364378	REC_WORD	1.575	n/a	GOAT	-999	18	[0, 0, 0]	n/a	FR1	0	R1250N
3135.478	26.303	3365953	REC_WORD	26.303	n/a	SOUP	-999	18	[0, 0, 0]	n/a	FR1	0	R1250N
3161.781	5.759	3392257	REC_END	n/a	n/a	n/a	-999	18	[0, 0, 0]	n/a	FR1	0	R1250N
3167.54	0.5	3398016	TRIAL	n/a	n/a	n/a	-999	19	[0, 0, 0]	n/a	FR1	0	R1250N
3168.04	10.428	3398516	COUNTDOWN_START	n/a	n/a	n/a	-999	19	[0, 0, 0]	n/a	FR1	0	R1250N
3178.468	0.006	3408944	COUNTDOWN_END	n/a	n/a	n/a	-999	19	[0, 0, 0]	n/a	FR1	0	R1250N
3178.474	1.601	3408950	ORIENT	n/a	n/a	n/a	-999	19	[0, 0, 0]	n/a	FR1	0	R1250N
3180.075	2.266	3410551	ORIENT_OFF	n/a	n/a	n/a	-999	19	[0, 0, 0]	n/a	FR1	0	R1250N
3182.341	1.618	3412817	WORD	n/a	wordpools/wordpool_EN.txt	BAND	1	19	[0, 0, 0]	n/a	FR1	0	R1250N
3183.959	0.984	3414435	WORD_OFF	n/a	n/a	BAND	1	19	[0, 0, 0]	n/a	FR1	0	R1250N
3184.943	1.616	3415419	WORD	n/a	wordpools/wordpool_EN.txt	JAIL	2	19	[0, 0, 0]	n/a	FR1	0	R1250N
3186.559	0.8	3417035	WORD_OFF	n/a	n/a	JAIL	2	19	[0, 0, 0]	n/a	FR1	0	R1250N
3187.359	1.617	3417835	WORD	n/a	wordpools/wordpool_EN.txt	BREAD	3	19	[0, 0, 0]	n/a	FR1	0	R1250N
3188.976	0.851	3419452	WORD_OFF	n/a	n/a	BREAD	3	19	[0, 0, 0]	n/a	FR1	0	R1250N
3189.827	1.615	3420303	WORD	n/a	wordpools/wordpool_EN.txt	SLUSH	4	19	[0, 0, 0]	n/a	FR1	0	R1250N
3191.442	0.852	3421918	WORD_OFF	n/a	n/a	SLUSH	4	19	[0, 0, 0]	n/a	FR1	0	R1250N
3192.294	1.616	3422770	WORD	n/a	wordpools/wordpool_EN.txt	LAND	5	19	[0, 0, 0]	n/a	FR1	0	R1250N
3193.91	0.834	3424386	WORD_OFF	n/a	n/a	LAND	5	19	[0, 0, 0]	n/a	FR1	0	R1250N
3194.744	1.616	3425220	WORD	n/a	wordpools/wordpool_EN.txt	DOG	6	19	[0, 0, 0]	n/a	FR1	0	R1250N
3196.36	0.767	3426836	WORD_OFF	n/a	n/a	DOG	6	19	[0, 0, 0]	n/a	FR1	0	R1250N
3197.127	1.617	3427603	WORD	n/a	wordpools/wordpool_EN.txt	TRASH	7	19	[0, 0, 0]	n/a	FR1	0	R1250N
3198.744	0.849	3429220	WORD_OFF	n/a	n/a	TRASH	7	19	[0, 0, 0]	n/a	FR1	0	R1250N
3199.593	1.618	3430069	WORD	n/a	wordpools/wordpool_EN.txt	SKI	8	19	[0, 0, 0]	n/a	FR1	0	R1250N
3201.211	0.85	3431687	WORD_OFF	n/a	n/a	SKI	8	19	[0, 0, 0]	n/a	FR1	0	R1250N
3202.061	1.616	3432537	WORD	n/a	wordpools/wordpool_EN.txt	CORN	9	19	[0, 0, 0]	n/a	FR1	0	R1250N
3203.677	0.834	3434153	WORD_OFF	n/a	n/a	CORN	9	19	[0, 0, 0]	n/a	FR1	0	R1250N
3204.511	1.617	3434988	WORD	n/a	wordpools/wordpool_EN.txt	CAT	10	19	[0, 0, 0]	n/a	FR1	0	R1250N
3206.128	1.0	3436605	WORD_OFF	n/a	n/a	CAT	10	19	[0, 0, 0]	n/a	FR1	0	R1250N
3207.128	1.617	3437605	WORD	n/a	wordpools/wordpool_EN.txt	PLANT	11	19	[0, 0, 0]	n/a	FR1	0	R1250N
3208.745	0.933	3439222	WORD_OFF	n/a	n/a	PLANT	11	19	[0, 0, 0]	n/a	FR1	0	R1250N
3209.678	1.618	3440155	WORD	n/a	wordpools/wordpool_EN.txt	MAP	12	19	[0, 0, 0]	n/a	FR1	0	R1250N
3211.296	0.0	3441773	WORD_OFF	n/a	n/a	MAP	12	19	[0, 0, 0]	n/a	FR1	0	R1250N
3211.296	0.0	3441773	DISTRACT_START	n/a	n/a	n/a	-999	19	[0, 0, 0]	n/a	FR1	0	R1250N
3211.296	0.016	3441773	START	n/a	n/a	n/a	-999	19	[-999, -999, -999]	n/a	FR1	0	R1250N
3211.312	4.967	3441789	PROB	4.967	n/a	n/a	-999	19	[6, 6, 5]	17	FR1	0	R1250N
3216.279	3.018	3446756	PROB	3.018	n/a	n/a	-999	19	[3, 3, 3]	9	FR1	0	R1250N
3219.297	4.282	3449774	PROB	4.282	n/a	n/a	-999	19	[2, 8, 7]	17	FR1	0	R1250N
3223.579	4.418	3454056	PROB	4.418	n/a	n/a	-999	19	[2, 5, 9]	16	FR1	0	R1250N
3227.997	3.801	3458474	PROB	3.801	n/a	n/a	-999	19	[6, 2, 9]	17	FR1	0	R1250N
3231.798	0.016	3462275	STOP	n/a	n/a	n/a	-999	19	[-999, -999, -999]	n/a	FR1	0	R1250N
3231.814	0.516	3462291	DISTRACT_END	n/a	n/a	n/a	-999	19	[0, 0, 0]	n/a	FR1	0	R1250N
3232.33	0.501	3462807	RETRIEVAL_ORIENT	n/a	n/a	n/a	-999	19	[0, 0, 0]	n/a	FR1	0	R1250N
3232.831	2.34	3463308	REC_START	n/a	n/a	n/a	-999	19	[0, 0, 0]	n/a	FR1	0	R1250N
3235.171	2.05	3465648	REC_WORD	2.05	n/a	BAND	-999	19	[0, 0, 0]	n/a	FR1	0	R1250N
3237.221	5.963	3467698	REC_WORD	5.963	n/a	JAIL	-999	19	[0, 0, 0]	n/a	FR1	0	R1250N
3243.184	19.659	3473661	REC_WORD	19.659	n/a	CAT	-999	19	[0, 0, 0]	n/a	FR1	0	R1250N
3262.843	10.976	3493320	REC_END	n/a	n/a	n/a	-999	19	[0, 0, 0]	n/a	FR1	0	R1250N
3273.819	0.5	3504297	TRIAL	n/a	n/a	n/a	-999	20	[0, 0, 0]	n/a	FR1	0	R1250N
3274.319	10.428	3504797	COUNTDOWN_START	n/a	n/a	n/a	-999	20	[0, 0, 0]	n/a	FR1	0	R1250N
3284.747	0.007	3515225	COUNTDOWN_END	n/a	n/a	n/a	-999	20	[0, 0, 0]	n/a	FR1	0	R1250N
3284.754	1.615	3515232	ORIENT	n/a	n/a	n/a	-999	20	[0, 0, 0]	n/a	FR1	0	R1250N
3286.369	2.151	3516847	ORIENT_OFF	n/a	n/a	n/a	-999	20	[0, 0, 0]	n/a	FR1	0	R1250N
3288.52	1.617	3518998	WORD	n/a	wordpools/wordpool_EN.txt	JET	1	20	[0, 0, 0]	n/a	FR1	0	R1250N
3290.137	0.934	3520615	WORD_OFF	n/a	n/a	JET	1	20	[0, 0, 0]	n/a	FR1	0	R1250N
3291.071	1.616	3521549	WORD	n/a	wordpools/wordpool_EN.txt	LOCK	2	20	[0, 0, 0]	n/a	FR1	0	R1250N
3292.687	0.9	3523165	WORD_OFF	n/a	n/a	LOCK	2	20	[0, 0, 0]	n/a	FR1	0	R1250N
3293.587	1.618	3524065	WORD	n/a	wordpools/wordpool_EN.txt	BOARD	3	20	[0, 0, 0]	n/a	FR1	0	R1250N
3295.205	0.916	3525683	WORD_OFF	n/a	n/a	BOARD	3	20	[0, 0, 0]	n/a	FR1	0	R1250N
3296.121	1.617	3526599	WORD	n/a	wordpools/wordpool_EN.txt	ARK	4	20	[0, 0, 0]	n/a	FR1	0	R1250N
3297.738	0.899	3528216	WORD_OFF	n/a	n/a	ARK	4	20	[0, 0, 0]	n/a	FR1	0	R1250N
3298.637	1.601	3529115	WORD	n/a	wordpools/wordpool_EN.txt	SOCK	5	20	[0, 0, 0]	n/a	FR1	0	R1250N
3300.238	0.967	3530716	WORD_OFF	n/a	n/a	SOCK	5	20	[0, 0, 0]	n/a	FR1	0	R1250N
3301.205	1.617	3531683	WORD	n/a	wordpools/wordpool_EN.txt	RUG	6	20	[0, 0, 0]	n/a	FR1	0	R1250N
3302.822	0.882	3533300	WORD_OFF	n/a	n/a	RUG	6	20	[0, 0, 0]	n/a	FR1	0	R1250N
3303.704	1.617	3534182	WORD	n/a	wordpools/wordpool_EN.txt	FORK	7	20	[0, 0, 0]	n/a	FR1	0	R1250N
3305.321	1.0	3535799	WORD_OFF	n/a	n/a	FORK	7	20	[0, 0, 0]	n/a	FR1	0	R1250N
3306.321	1.618	3536799	WORD	n/a	wordpools/wordpool_EN.txt	SUIT	8	20	[0, 0, 0]	n/a	FR1	0	R1250N
3307.939	0.867	3538417	WORD_OFF	n/a	n/a	SUIT	8	20	[0, 0, 0]	n/a	FR1	0	R1250N
3308.806	1.616	3539284	WORD	n/a	wordpools/wordpool_EN.txt	TOAST	9	20	[0, 0, 0]	n/a	FR1	0	R1250N
3310.422	0.95	3540900	WORD_OFF	n/a	n/a	TOAST	9	20	[0, 0, 0]	n/a	FR1	0	R1250N
3311.372	1.601	3541850	WORD	n/a	wordpools/wordpool_EN.txt	TRAIN	10	20	[0, 0, 0]	n/a	FR1	0	R1250N
3312.973	0.817	3543451	WORD_OFF	n/a	n/a	TRAIN	10	20	[0, 0, 0]	n/a	FR1	0	R1250N
3313.79	1.616	3544268	WORD	n/a	wordpools/wordpool_EN.txt	PEAR	11	20	[0, 0, 0]	n/a	FR1	0	R1250N
3315.406	0.801	3545884	WORD_OFF	n/a	n/a	PEAR	11	20	[0, 0, 0]	n/a	FR1	0	R1250N
3316.207	1.617	3546685	WORD	n/a	wordpools/wordpool_EN.txt	HOOK	12	20	[0, 0, 0]	n/a	FR1	0	R1250N
3317.824	0.0	3548302	WORD_OFF	n/a	n/a	HOOK	12	20	[0, 0, 0]	n/a	FR1	0	R1250N
3317.824	0.0	3548302	DISTRACT_START	n/a	n/a	n/a	-999	20	[0, 0, 0]	n/a	FR1	0	R1250N
3317.824	0.016	3548302	START	n/a	n/a	n/a	-999	20	[-999, -999, -999]	n/a	FR1	0	R1250N
3317.84	4.968	3548318	PROB	4.968	n/a	n/a	-999	20	[1, 7, 5]	13	FR1	0	R1250N
3322.808	2.882	3553286	PROB	2.882	n/a	n/a	-999	20	[5, 6, 2]	13	FR1	0	R1250N
3325.69	4.418	3556168	PROB	4.418	n/a	n/a	-999	20	[6, 2, 6]	14	FR1	0	R1250N
3330.108	6.55	3560586	PROB	6.55	n/a	n/a	-999	20	[7, 9, 5]	21	FR1	0	R1250N
3336.658	3.493	3567137	PROB	3.493	n/a	n/a	-999	20	[3, 5, 2]	10	FR1	0	R1250N
3340.151	0.008	3570630	STOP	n/a	n/a	n/a	-999	20	[-999, -999, -999]	n/a	FR1	0	R1250N
3340.159	0.617	3570638	DISTRACT_END	n/a	n/a	n/a	-999	20	[0, 0, 0]	n/a	FR1	0	R1250N
3340.776	0.517	3571255	RETRIEVAL_ORIENT	n/a	n/a	n/a	-999	20	[0, 0, 0]	n/a	FR1	0	R1250N
3341.293	1.641	3571772	REC_START	n/a	n/a	n/a	-999	20	[0, 0, 0]	n/a	FR1	0	R1250N
3342.934	1.587	3573413	REC_WORD	1.587	n/a	LOCK	-999	20	[0, 0, 0]	n/a	FR1	0	R1250N
3344.521	1.82	3575000	REC_WORD	1.82	n/a	JET	-999	20	[0, 0, 0]	n/a	FR1	0	R1250N
3346.341	2.054	3576820	REC_WORD_VV	2.054	n/a	<>	-999	20	[0, 0, 0]	n/a	FR1	0	R1250N
3348.395	2.036	3578874	REC_WORD	2.036	n/a	ARK	-999	20	[0, 0, 0]	n/a	FR1	0	R1250N
3350.431	2.105	3580910	REC_WORD	2.105	n/a	RUG	-999	20	[0, 0, 0]	n/a	FR1	0	R1250N
3352.536	1.88	3583015	REC_WORD	1.88	n/a	PEAR	-999	20	[0, 0, 0]	n/a	FR1	0	R1250N
3354.416	11.167	3584895	REC_WORD	11.167	n/a	TOAST	-999	20	[0, 0, 0]	n/a	FR1	0	R1250N
3365.583	5.722	3596062	REC_WORD	5.722	n/a	BOARD	-999	20	[0, 0, 0]	n/a	FR1	0	R1250N
3371.305	6.509	3601784	REC_END	n/a	n/a	n/a	-999	20	[0, 0, 0]	n/a	FR1	0	R1250N
3377.814	0.5	3608293	TRIAL	n/a	n/a	n/a	-999	21	[0, 0, 0]	n/a	FR1	0	R1250N
3378.314	10.428	3608793	COUNTDOWN_START	n/a	n/a	n/a	-999	21	[0, 0, 0]	n/a	FR1	0	R1250N
3388.742	0.006	3619221	COUNTDOWN_END	n/a	n/a	n/a	-999	21	[0, 0, 0]	n/a	FR1	0	R1250N
3388.748	1.616	3619227	ORIENT	n/a	n/a	n/a	-999	21	[0, 0, 0]	n/a	FR1	0	R1250N
3390.364	1.901	3620843	ORIENT_OFF	n/a	n/a	n/a	-999	21	[0, 0, 0]	n/a	FR1	0	R1250N
3392.265	1.617	3622744	WORD	n/a	wordpools/wordpool_EN.txt	STEAK	1	21	[0, 0, 0]	n/a	FR1	0	R1250N
3393.882	1.017	3624361	WORD_OFF	n/a	n/a	STEAK	1	21	[0, 0, 0]	n/a	FR1	0	R1250N
3394.899	1.615	3625378	WORD	n/a	wordpools/wordpool_EN.txt	SEA	2	21	[0, 0, 0]	n/a	FR1	0	R1250N
3396.514	0.967	3626993	WORD_OFF	n/a	n/a	SEA	2	21	[0, 0, 0]	n/a	FR1	0	R1250N
3397.481	1.601	3627961	WORD	n/a	wordpools/wordpool_EN.txt	PARK	3	21	[0, 0, 0]	n/a	FR1	0	R1250N
3399.082	0.867	3629562	WORD_OFF	n/a	n/a	PARK	3	21	[0, 0, 0]	n/a	FR1	0	R1250N
3399.949	1.616	3630429	WORD	n/a	wordpools/wordpool_EN.txt	HORSE	4	21	[0, 0, 0]	n/a	FR1	0	R1250N
3401.565	0.9	3632045	WORD_OFF	n/a	n/a	HORSE	4	21	[0, 0, 0]	n/a	FR1	0	R1250N
3402.465	1.618	3632945	WORD	n/a	wordpools/wordpool_EN.txt	EEL	5	21	[0, 0, 0]	n/a	FR1	0	R1250N
3404.083	0.933	3634563	WORD_OFF	n/a	n/a	EEL	5	21	[0, 0, 0]	n/a	FR1	0	R1250N
3405.016	1.616	3635496	WORD	n/a	wordpools/wordpool_EN.txt	LAKE	6	21	[0, 0, 0]	n/a	FR1	0	R1250N
3406.632	0.8	3637112	WORD_OFF	n/a	n/a	LAKE	6	21	[0, 0, 0]	n/a	FR1	0	R1250N
3407.432	1.601	3637912	WORD	n/a	wordpools/wordpool_EN.txt	CALF	7	21	[0, 0, 0]	n/a	FR1	0	R1250N
3409.033	0.784	3639513	WORD_OFF	n/a	n/a	CALF	7	21	[0, 0, 0]	n/a	FR1	0	R1250N
3409.817	1.616	3640297	WORD	n/a	wordpools/wordpool_EN.txt	GEESE	8	21	[0, 0, 0]	n/a	FR1	0	R1250N
3411.433	0.967	3641913	WORD_OFF	n/a	n/a	GEESE	8	21	[0, 0, 0]	n/a	FR1	0	R1250N
3412.4	1.617	3642880	WORD	n/a	wordpools/wordpool_EN.txt	PRINCE	9	21	[0, 0, 0]	n/a	FR1	0	R1250N
3414.017	0.934	3644497	WORD_OFF	n/a	n/a	PRINCE	9	21	[0, 0, 0]	n/a	FR1	0	R1250N
3414.951	1.616	3645431	WORD	n/a	wordpools/wordpool_EN.txt	GOLD	10	21	[0, 0, 0]	n/a	FR1	0	R1250N
3416.567	0.9	3647047	WORD_OFF	n/a	n/a	GOLD	10	21	[0, 0, 0]	n/a	FR1	0	R1250N
3417.467	1.618	3647947	WORD	n/a	wordpools/wordpool_EN.txt	ROCK	11	21	[0, 0, 0]	n/a	FR1	0	R1250N
3419.085	0.983	3649565	WORD_OFF	n/a	n/a	ROCK	11	21	[0, 0, 0]	n/a	FR1	0	R1250N
3420.068	1.616	3650548	WORD	n/a	wordpools/wordpool_EN.txt	PIG	12	21	[0, 0, 0]	n/a	FR1	0	R1250N
3421.684	0.0	3652164	WORD_OFF	n/a	n/a	PIG	12	21	[0, 0, 0]	n/a	FR1	0	R1250N
3421.684	0.0	3652164	DISTRACT_START	n/a	n/a	n/a	-999	21	[0, 0, 0]	n/a	FR1	0	R1250N
3421.684	0.017	3652164	START	n/a	n/a	n/a	-999	21	[-999, -999, -999]	n/a	FR1	0	R1250N
3421.701	7.385	3652181	PROB	7.385	n/a	n/a	-999	21	[7, 6, 9]	22	FR1	0	R1250N
3429.086	4.784	3659566	PROB	4.784	n/a	n/a	-999	21	[5, 6, 5]	16	FR1	0	R1250N
3433.87	3.549	3664350	PROB	3.549	n/a	n/a	-999	21	[9, 6, 8]	23	FR1	0	R1250N
3437.419	8.915	3667899	PROB	8.915	n/a	n/a	-999	21	[6, 3, 3]	12	FR1	0	R1250N
3446.334	0.019	3676814	STOP	n/a	n/a	n/a	-999	21	[-999, -999, -999]	n/a	FR1	0	R1250N
3446.353	0.551	3676833	DISTRACT_END	n/a	n/a	n/a	-999	21	[0, 0, 0]	n/a	FR1	0	R1250N
3446.904	0.517	3677384	RETRIEVAL_ORIENT	n/a	n/a	n/a	-999	21	[0, 0, 0]	n/a	FR1	0	R1250N
3447.421	1.391	3677901	REC_START	n/a	n/a	n/a	-999	21	[0, 0, 0]	n/a	FR1	0	R1250N
3448.812	1.183	3679292	REC_WORD	1.183	n/a	PRINCE	-999	21	[0, 0, 0]	n/a	FR1	0	R1250N
3449.995	1.498	3680475	REC_WORD	1.498	n/a	GOLD	-999	21	[0, 0, 0]	n/a	FR1	0	R1250N
3451.493	1.153	3681973	REC_WORD_VV	1.153	n/a	<>	-999	21	[0, 0, 0]	n/a	FR1	0	R1250N
3452.646	1.975	3683126	REC_WORD	1.975	n/a	LAKE	-999	21	[0, 0, 0]	n/a	FR1	0	R1250N
3454.621	1.264	3685101	REC_WORD	1.264	n/a	GEESE	-999	21	[0, 0, 0]	n/a	FR1	0	R1250N
3455.885	14.299	3686365	REC_WORD	14.299	n/a	PARK	-999	21	[0, 0, 0]	n/a	FR1	0	R1250N
3470.184	7.247	3700665	REC_WORD	7.247	n/a	STEAK	-999	21	[0, 0, 0]	n/a	FR1	0	R1250N
3477.431	6.761	3707912	REC_END	n/a	n/a	n/a	-999	21	[0, 0, 0]	n/a	FR1	0	R1250N
3484.192	0.5	3714673	TRIAL	n/a	n/a	n/a	-999	22	[0, 0, 0]	n/a	FR1	0	R1250N
3484.692	10.428	3715173	COUNTDOWN_START	n/a	n/a	n/a	-999	22	[0, 0, 0]	n/a	FR1	0	R1250N
3495.12	0.023	3725601	COUNTDOWN_END	n/a	n/a	n/a	-999	22	[0, 0, 0]	n/a	FR1	0	R1250N
3495.143	1.617	3725624	ORIENT	n/a	n/a	n/a	-999	22	[0, 0, 0]	n/a	FR1	0	R1250N
3496.76	1.932	3727241	ORIENT_OFF	n/a	n/a	n/a	-999	22	[0, 0, 0]	n/a	FR1	0	R1250N
3498.692	1.601	3729173	WORD	n/a	wordpools/wordpool_EN.txt	FRUIT	1	22	[0, 0, 0]	n/a	FR1	0	R1250N
3500.293	0.9	3730774	WORD_OFF	n/a	n/a	FRUIT	1	22	[0, 0, 0]	n/a	FR1	0	R1250N
3501.193	1.617	3731674	WORD	n/a	wordpools/wordpool_EN.txt	OAK	2	22	[0, 0, 0]	n/a	FR1	0	R1250N
3502.81	0.95	3733291	WORD_OFF	n/a	n/a	OAK	2	22	[0, 0, 0]	n/a	FR1	0	R1250N
3503.76	1.616	3734241	WORD	n/a	wordpools/wordpool_EN.txt	BUSH	3	22	[0, 0, 0]	n/a	FR1	0	R1250N
3505.376	0.768	3735857	WORD_OFF	n/a	n/a	BUSH	3	22	[0, 0, 0]	n/a	FR1	0	R1250N
3506.144	1.617	3736625	WORD	n/a	wordpools/wordpool_EN.txt	BOOT	4	22	[0, 0, 0]	n/a	FR1	0	R1250N
3507.761	1.0	3738242	WORD_OFF	n/a	n/a	BOOT	4	22	[0, 0, 0]	n/a	FR1	0	R1250N
3508.761	1.616	3739242	WORD	n/a	wordpools/wordpool_EN.txt	BLOOM	5	22	[0, 0, 0]	n/a	FR1	0	R1250N
3510.377	0.884	3740858	WORD_OFF	n/a	n/a	BLOOM	5	22	[0, 0, 0]	n/a	FR1	0	R1250N
3511.261	1.617	3741742	WORD	n/a	wordpools/wordpool_EN.txt	SNOW	6	22	[0, 0, 0]	n/a	FR1	0	R1250N
3512.878	0.983	3743359	WORD_OFF	n/a	n/a	SNOW	6	22	[0, 0, 0]	n/a	FR1	0	R1250N
3513.861	1.616	3744342	WORD	n/a	wordpools/wordpool_EN.txt	CUBE	7	22	[0, 0, 0]	n/a	FR1	0	R1250N
3515.477	0.95	3745958	WORD_OFF	n/a	n/a	CUBE	7	22	[0, 0, 0]	n/a	FR1	0	R1250N
3516.427	1.602	3746908	WORD	n/a	wordpools/wordpool_EN.txt	SPRING	8	22	[0, 0, 0]	n/a	FR1	0	R1250N
3518.029	0.966	3748510	WORD_OFF	n/a	n/a	SPRING	8	22	[0, 0, 0]	n/a	FR1	0	R1250N
3518.995	1.616	3749476	WORD	n/a	wordpools/wordpool_EN.txt	MOTH	9	22	[0, 0, 0]	n/a	FR1	0	R1250N
3520.611	0.85	3751092	WORD_OFF	n/a	n/a	MOTH	9	22	[0, 0, 0]	n/a	FR1	0	R1250N
3521.461	1.601	3751942	WORD	n/a	wordpools/wordpool_EN.txt	DEER	10	22	[0, 0, 0]	n/a	FR1	0	R1250N
3523.062	0.967	3753543	WORD_OFF	n/a	n/a	DEER	10	22	[0, 0, 0]	n/a	FR1	0	R1250N
3524.029	1.616	3754510	WORD	n/a	wordpools/wordpool_EN.txt	FOG	11	22	[0, 0, 0]	n/a	FR1	0	R1250N
3525.645	0.867	3756126	WORD_OFF	n/a	n/a	FOG	11	22	[0, 0, 0]	n/a	FR1	0	R1250N
3526.512	1.618	3756994	WORD	n/a	wordpools/wordpool_EN.txt	SWAMP	12	22	[0, 0, 0]	n/a	FR1	0	R1250N
3528.13	0.0	3758612	WORD_OFF	n/a	n/a	SWAMP	12	22	[0, 0, 0]	n/a	FR1	0	R1250N
3528.13	0.0	3758612	DISTRACT_START	n/a	n/a	n/a	-999	22	[0, 0, 0]	n/a	FR1	0	R1250N
3528.13	0.016	3758612	START	n/a	n/a	n/a	-999	22	[-999, -999, -999]	n/a	FR1	0	R1250N
3528.146	4.734	3758628	PROB	4.734	n/a	n/a	-999	22	[9, 9, 5]	23	FR1	0	R1250N
3532.88	4.267	3763362	PROB	4.267	n/a	n/a	-999	22	[5, 7, 5]	17	FR1	0	R1250N
3537.147	4.283	3767629	PROB	4.283	n/a	n/a	-999	22	[4, 7, 5]	16	FR1	0	R1250N
3541.43	4.934	3771912	PROB	4.934	n/a	n/a	-999	22	[4, 5, 7]	16	FR1	0	R1250N
3546.364	3.607	3776846	PROB	3.607	n/a	n/a	-999	22	[2, 3, 3]	8	FR1	0	R1250N
3549.971	0.011	3780453	STOP	n/a	n/a	n/a	-999	22	[-999, -999, -999]	n/a	FR1	0	R1250N
3549.982	0.516	3780464	DISTRACT_END	n/a	n/a	n/a	-999	22	[0, 0, 0]	n/a	FR1	0	R1250N
3550.498	0.518	3780980	RETRIEVAL_ORIENT	n/a	n/a	n/a	-999	22	[0, 0, 0]	n/a	FR1	0	R1250N
3551.016	2.134	3781498	REC_START	n/a	n/a	n/a	-999	22	[0, 0, 0]	n/a	FR1	0	R1250N
3553.15	2.283	3783632	REC_WORD	2.283	n/a	SWAMP	-999	22	[0, 0, 0]	n/a	FR1	0	R1250N
3555.433	1.977	3785915	REC_WORD	1.977	n/a	DEER	-999	22	[0, 0, 0]	n/a	FR1	0	R1250N
3557.41	1.934	3787892	REC_WORD	1.934	n/a	SPRING	-999	22	[0, 0, 0]	n/a	FR1	0	R1250N
3559.344	2.586	3789826	REC_WORD	2.586	n/a	MOTH	-999	22	[0, 0, 0]	n/a	FR1	0	R1250N
3561.93	1.802	3792412	REC_WORD	1.802	n/a	BLOOM	-999	22	[0, 0, 0]	n/a	FR1	0	R1250N
3563.732	2.03	3794214	REC_WORD	2.03	n/a	CUBE	-999	22	[0, 0, 0]	n/a	FR1	0	R1250N
3565.762	2.76	3796244	REC_WORD	2.76	n/a	OAK	-999	22	[0, 0, 0]	n/a	FR1	0	R1250N
3568.522	4.335	3799004	REC_WORD	4.335	n/a	GRASS	-999	22	[0, 0, 0]	n/a	FR1	0	R1250N
3572.857	8.169	3803339	REC_WORD_VV	8.169	n/a	<>	-999	22	[0, 0, 0]	n/a	FR1	0	R1250N
3581.026	5.576	3811508	REC_END	n/a	n/a	n/a	-999	22	[0, 0, 0]	n/a	FR1	0	R1250N
3586.602	0.5	3817084	TRIAL	n/a	n/a	n/a	-999	23	[0, 0, 0]	n/a	FR1	0	R1250N
3587.102	10.428	3817584	COUNTDOWN_START	n/a	n/a	n/a	-999	23	[0, 0, 0]	n/a	FR1	0	R1250N
3597.53	0.006	3828013	COUNTDOWN_END	n/a	n/a	n/a	-999	23	[0, 0, 0]	n/a	FR1	0	R1250N
3597.536	1.601	3828019	ORIENT	n/a	n/a	n/a	-999	23	[0, 0, 0]	n/a	FR1	0	R1250N
3599.137	1.984	3829620	ORIENT_OFF	n/a	n/a	n/a	-999	23	[0, 0, 0]	n/a	FR1	0	R1250N
3601.121	1.617	3831604	WORD	n/a	wordpools/wordpool_EN.txt	LEAF	1	23	[0, 0, 0]	n/a	FR1	0	R1250N
3602.738	0.815	3833221	WORD_OFF	n/a	n/a	LEAF	1	23	[0, 0, 0]	n/a	FR1	0	R1250N
3603.553	1.618	3834036	WORD	n/a	wordpools/wordpool_EN.txt	CHIEF	2	23	[0, 0, 0]	n/a	FR1	0	R1250N
3605.171	0.984	3835654	WORD_OFF	n/a	n/a	CHIEF	2	23	[0, 0, 0]	n/a	FR1	0	R1250N
3606.155	1.617	3836638	WORD	n/a	wordpools/wordpool_EN.txt	SHEEP	3	23	[0, 0, 0]	n/a	FR1	0	R1250N
3607.772	0.799	3838255	WORD_OFF	n/a	n/a	SHEEP	3	23	[0, 0, 0]	n/a	FR1	0	R1250N
3608.571	1.618	3839054	WORD	n/a	wordpools/wordpool_EN.txt	ANT	4	23	[0, 0, 0]	n/a	FR1	0	R1250N
3610.189	1.0	3840672	WORD_OFF	n/a	n/a	ANT	4	23	[0, 0, 0]	n/a	FR1	0	R1250N
3611.189	1.616	3841672	WORD	n/a	wordpools/wordpool_EN.txt	BRANCH	5	23	[0, 0, 0]	n/a	FR1	0	R1250N
3612.805	0.95	3843288	WORD_OFF	n/a	n/a	BRANCH	5	23	[0, 0, 0]	n/a	FR1	0	R1250N
3613.755	1.616	3844238	WORD	n/a	wordpools/wordpool_EN.txt	POND	6	23	[0, 0, 0]	n/a	FR1	0	R1250N
3615.371	0.951	3845854	WORD_OFF	n/a	n/a	POND	6	23	[0, 0, 0]	n/a	FR1	0	R1250N
3616.322	1.617	3846805	WORD	n/a	wordpools/wordpool_EN.txt	WAND	7	23	[0, 0, 0]	n/a	FR1	0	R1250N
3617.939	0.784	3848422	WORD_OFF	n/a	n/a	WAND	7	23	[0, 0, 0]	n/a	FR1	0	R1250N
3618.723	1.616	3849206	WORD	n/a	wordpools/wordpool_EN.txt	COW	8	23	[0, 0, 0]	n/a	FR1	0	R1250N
3620.339	0.801	3850822	WORD_OFF	n/a	n/a	COW	8	23	[0, 0, 0]	n/a	FR1	0	R1250N
3621.14	1.616	3851623	WORD	n/a	wordpools/wordpool_EN.txt	ROOT	9	23	[0, 0, 0]	n/a	FR1	0	R1250N
3622.756	1.0	3853239	WORD_OFF	n/a	n/a	ROOT	9	23	[0, 0, 0]	n/a	FR1	0	R1250N
3623.756	1.616	3854239	WORD	n/a	wordpools/wordpool_EN.txt	MILK	10	23	[0, 0, 0]	n/a	FR1	0	R1250N
3625.372	0.918	3855855	WORD_OFF	n/a	n/a	MILK	10	23	[0, 0, 0]	n/a	FR1	0	R1250N
3626.29	1.617	3856773	WORD	n/a	wordpools/wordpool_EN.txt	SPEAR	11	23	[0, 0, 0]	n/a	FR1	0	R1250N
3627.907	0.95	3858390	WORD_OFF	n/a	n/a	SPEAR	11	23	[0, 0, 0]	n/a	FR1	0	R1250N
3628.857	1.616	3859340	WORD	n/a	wordpools/wordpool_EN.txt	NEST	12	23	[0, 0, 0]	n/a	FR1	0	R1250N
3630.473	0.0	3860956	WORD_OFF	n/a	n/a	NEST	12	23	[0, 0, 0]	n/a	FR1	0	R1250N
3630.473	0.0	3860956	DISTRACT_START	n/a	n/a	n/a	-999	23	[0, 0, 0]	n/a	FR1	0	R1250N
3630.473	0.017	3860956	START	n/a	n/a	n/a	-999	23	[-999, -999, -999]	n/a	FR1	0	R1250N
3630.49	4.818	3860973	PROB	4.818	n/a	n/a	-999	23	[2, 6, 6]	14	FR1	0	R1250N
3635.308	3.149	3865791	PROB	3.149	n/a	n/a	-999	23	[9, 4, 2]	15	FR1	0	R1250N
3638.457	2.568	3868940	PROB	2.568	n/a	n/a	-999	23	[3, 1, 7]	11	FR1	0	R1250N
3641.025	2.767	3871508	PROB	2.767	n/a	n/a	-999	23	[9, 6, 1]	16	FR1	0	R1250N
3643.792	2.549	3874275	PROB	2.549	n/a	n/a	-999	23	[5, 1, 9]	15	FR1	0	R1250N
3646.341	2.818	3876824	PROB	2.818	n/a	n/a	-999	23	[3, 9, 2]	14	FR1	0	R1250N
3649.159	4.467	3879642	PROB	4.467	n/a	n/a	-999	23	[9, 7, 3]	19	FR1	0	R1250N
3653.626	0.016	3884109	STOP	n/a	n/a	n/a	-999	23	[-999, -999, -999]	n/a	FR1	0	R1250N
3653.642	0.618	3884125	DISTRACT_END	n/a	n/a	n/a	-999	23	[0, 0, 0]	n/a	FR1	0	R1250N
3654.26	0.517	3884743	RETRIEVAL_ORIENT	n/a	n/a	n/a	-999	23	[0, 0, 0]	n/a	FR1	0	R1250N
3654.777	1.256	3885260	REC_START	n/a	n/a	n/a	-999	23	[0, 0, 0]	n/a	FR1	0	R1250N
3656.033	1.288	3886517	REC_WORD	1.288	n/a	SPEAR	-999	23	[0, 0, 0]	n/a	FR1	0	R1250N
3657.321	1.824	3887805	REC_WORD	1.824	n/a	WAND	-999	23	[0, 0, 0]	n/a	FR1	0	R1250N
3659.145	1.347	3889629	REC_WORD	1.347	n/a	ANT	-999	23	[0, 0, 0]	n/a	FR1	0	R1250N
3660.492	1.385	3890976	REC_WORD_VV	1.385	n/a	<>	-999	23	[0, 0, 0]	n/a	FR1	0	R1250N
3661.877	1.688	3892361	REC_WORD	1.688	n/a	MILK	-999	23	[0, 0, 0]	n/a	FR1	0	R1250N
3663.565	2.247	3894049	REC_WORD	2.247	n/a	SHEEP	-999	23	[0, 0, 0]	n/a	FR1	0	R1250N
3665.812	18.981	3896296	REC_WORD	18.981	n/a	POND	-999	23	[0, 0, 0]	n/a	FR1	0	R1250N
3684.793	6.304	3915277	REC_END	n/a	n/a	n/a	-999	23	[0, 0, 0]	n/a	FR1	0	R1250N
3691.097	0.5	3921581	TRIAL	n/a	n/a	n/a	-999	24	[0, 0, 0]	n/a	FR1	0	R1250N
3691.597	10.428	3922081	COUNTDOWN_START	n/a	n/a	n/a	-999	24	[0, 0, 0]	n/a	FR1	0	R1250N
3702.025	0.007	3932509	COUNTDOWN_END	n/a	n/a	n/a	-999	24	[0, 0, 0]	n/a	FR1	0	R1250N
3702.032	1.616	3932516	ORIENT	n/a	n/a	n/a	-999	24	[0, 0, 0]	n/a	FR1	0	R1250N
3703.648	2.117	3934132	ORIENT_OFF	n/a	n/a	n/a	-999	24	[0, 0, 0]	n/a	FR1	0	R1250N
3705.765	1.616	3936249	WORD	n/a	wordpools/wordpool_EN.txt	MOLE	1	24	[0, 0, 0]	n/a	FR1	0	R1250N
3707.381	0.801	3937865	WORD_OFF	n/a	n/a	MOLE	1	24	[0, 0, 0]	n/a	FR1	0	R1250N
3708.182	1.617	3938666	WORD	n/a	wordpools/wordpool_EN.txt	MUD	2	24	[0, 0, 0]	n/a	FR1	0	R1250N
3709.799	0.883	3940283	WORD_OFF	n/a	n/a	MUD	2	24	[0, 0, 0]	n/a	FR1	0	R1250N
3710.682	1.618	3941166	WORD	n/a	wordpools/wordpool_EN.txt	SNAKE	3	24	[0, 0, 0]	n/a	FR1	0	R1250N
3712.3	1.0	3942784	WORD_OFF	n/a	n/a	SNAKE	3	24	[0, 0, 0]	n/a	FR1	0	R1250N
3713.3	1.616	3943784	WORD	n/a	wordpools/wordpool_EN.txt	ZOO	4	24	[0, 0, 0]	n/a	FR1	0	R1250N
3714.916	0.783	3945400	WORD_OFF	n/a	n/a	ZOO	4	24	[0, 0, 0]	n/a	FR1	0	R1250N
3715.699	1.618	3946183	WORD	n/a	wordpools/wordpool_EN.txt	SEAL	5	24	[0, 0, 0]	n/a	FR1	0	R1250N
3717.317	1.0	3947801	WORD_OFF	n/a	n/a	SEAL	5	24	[0, 0, 0]	n/a	FR1	0	R1250N
3718.317	1.617	3948801	WORD	n/a	wordpools/wordpool_EN.txt	WORM	6	24	[0, 0, 0]	n/a	FR1	0	R1250N
3719.934	1.0	3950419	WORD_OFF	n/a	n/a	WORM	6	24	[0, 0, 0]	n/a	FR1	0	R1250N
3720.934	1.616	3951419	WORD	n/a	wordpools/wordpool_EN.txt	CAVE	7	24	[0, 0, 0]	n/a	FR1	0	R1250N
3722.55	0.966	3953035	WORD_OFF	n/a	n/a	CAVE	7	24	[0, 0, 0]	n/a	FR1	0	R1250N
3723.516	1.618	3954001	WORD	n/a	wordpools/wordpool_EN.txt	WEB	8	24	[0, 0, 0]	n/a	FR1	0	R1250N
3725.134	0.784	3955619	WORD_OFF	n/a	n/a	WEB	8	24	[0, 0, 0]	n/a	FR1	0	R1250N
3725.918	1.615	3956403	WORD	n/a	wordpools/wordpool_EN.txt	FOOD	9	24	[0, 0, 0]	n/a	FR1	0	R1250N
3727.533	0.768	3958018	WORD_OFF	n/a	n/a	FOOD	9	24	[0, 0, 0]	n/a	FR1	0	R1250N
3728.301	1.617	3958786	WORD	n/a	wordpools/wordpool_EN.txt	FUDGE	10	24	[0, 0, 0]	n/a	FR1	0	R1250N
3729.918	0.9	3960403	WORD_OFF	n/a	n/a	FUDGE	10	24	[0, 0, 0]	n/a	FR1	0	R1250N
3730.818	1.616	3961303	WORD	n/a	wordpools/wordpool_EN.txt	SHELL	11	24	[0, 0, 0]	n/a	FR1	0	R1250N
3732.434	0.933	3962919	WORD_OFF	n/a	n/a	SHELL	11	24	[0, 0, 0]	n/a	FR1	0	R1250N
3733.367	1.601	3963852	WORD	n/a	wordpools/wordpool_EN.txt	SPONGE	12	24	[0, 0, 0]	n/a	FR1	0	R1250N
3734.968	0.0	3965453	WORD_OFF	n/a	n/a	SPONGE	12	24	[0, 0, 0]	n/a	FR1	0	R1250N
3734.968	0.001	3965453	DISTRACT_START	n/a	n/a	n/a	-999	24	[0, 0, 0]	n/a	FR1	0	R1250N
3734.969	0.016	3965454	START	n/a	n/a	n/a	-999	24	[-999, -999, -999]	n/a	FR1	0	R1250N
3734.985	5.818	3965470	PROB	5.818	n/a	n/a	-999	24	[9, 2, 6]	17	FR1	0	R1250N
3740.803	5.133	3971288	PROB	5.133	n/a	n/a	-999	24	[6, 7, 4]	17	FR1	0	R1250N
3745.936	3.317	3976421	PROB	3.317	n/a	n/a	-999	24	[5, 1, 6]	12	FR1	0	R1250N
3749.253	2.551	3979738	PROB	2.551	n/a	n/a	-999	24	[2, 1, 1]	4	FR1	0	R1250N
3751.804	4.793	3982289	PROB	4.793	n/a	n/a	-999	24	[7, 4, 8]	19	FR1	0	R1250N
3756.597	0.006	3987082	STOP	n/a	n/a	n/a	-999	24	[-999, -999, -999]	n/a	FR1	0	R1250N
3756.603	0.518	3987088	DISTRACT_END	n/a	n/a	n/a	-999	24	[0, 0, 0]	n/a	FR1	0	R1250N
3757.121	0.516	3987606	RETRIEVAL_ORIENT	n/a	n/a	n/a	-999	24	[0, 0, 0]	n/a	FR1	0	R1250N
3757.637	1.081	3988122	REC_START	n/a	n/a	n/a	-999	24	[0, 0, 0]	n/a	FR1	0	R1250N
3758.718	2.573	3989203	REC_WORD	2.573	n/a	MOLE	-999	24	[0, 0, 0]	n/a	FR1	0	R1250N
3761.291	1.813	3991776	REC_WORD	1.813	n/a	MUD	-999	24	[0, 0, 0]	n/a	FR1	0	R1250N
3763.104	2.466	3993589	REC_WORD	2.466	n/a	SNAKE	-999	24	[0, 0, 0]	n/a	FR1	0	R1250N
3765.57	4.007	3996055	REC_WORD	4.007	n/a	SPONGE	-999	24	[0, 0, 0]	n/a	FR1	0	R1250N
3769.577	2.169	4000062	REC_WORD	2.169	n/a	WORM	-999	24	[0, 0, 0]	n/a	FR1	0	R1250N
3771.746	3.652	4002231	REC_WORD	3.652	n/a	ZOO	-999	24	[0, 0, 0]	n/a	FR1	0	R1250N
3775.398	11.273	4005883	REC_WORD_VV	11.273	n/a	<>	-999	24	[0, 0, 0]	n/a	FR1	0	R1250N
3786.671	0.976	4017157	REC_WORD	0.976	n/a	MOLE	-999	24	[0, 0, 0]	n/a	FR1	0	R1250N
3787.647	5.027	4018133	REC_END	n/a	n/a	n/a	-999	24	[0, 0, 0]	n/a	FR1	0	R1250N
3792.674	0.5	4023160	TRIAL	n/a	n/a	n/a	-999	25	[0, 0, 0]	n/a	FR1	0	R1250N
3793.174	10.428	4023660	COUNTDOWN_START	n/a	n/a	n/a	-999	25	[0, 0, 0]	n/a	FR1	0	R1250N
3803.602	0.006	4034088	COUNTDOWN_END	n/a	n/a	n/a	-999	25	[0, 0, 0]	n/a	FR1	0	R1250N
3803.608	1.601	4034094	ORIENT	n/a	n/a	n/a	-999	25	[0, 0, 0]	n/a	FR1	0	R1250N
3805.209	2.166	4035695	ORIENT_OFF	n/a	n/a	n/a	-999	25	[0, 0, 0]	n/a	FR1	0	R1250N
3807.375	1.618	4037861	WORD	n/a	wordpools/wordpool_EN.txt	TOOL	1	25	[0, 0, 0]	n/a	FR1	0	R1250N
3808.993	0.934	4039479	WORD_OFF	n/a	n/a	TOOL	1	25	[0, 0, 0]	n/a	FR1	0	R1250N
3809.927	1.615	4040413	WORD	n/a	wordpools/wordpool_EN.txt	SWORD	2	25	[0, 0, 0]	n/a	FR1	0	R1250N
3811.542	0.884	4042028	WORD_OFF	n/a	n/a	SWORD	2	25	[0, 0, 0]	n/a	FR1	0	R1250N
3812.426	1.618	4042912	WORD	n/a	wordpools/wordpool_EN.txt	MAZE	3	25	[0, 0, 0]	n/a	FR1	0	R1250N
3814.044	0.783	4044530	WORD_OFF	n/a	n/a	MAZE	3	25	[0, 0, 0]	n/a	FR1	0	R1250N
3814.827	1.616	4045313	WORD	n/a	wordpools/wordpool_EN.txt	WAVE	4	25	[0, 0, 0]	n/a	FR1	0	R1250N
3816.443	0.801	4046929	WORD_OFF	n/a	n/a	WAVE	4	25	[0, 0, 0]	n/a	FR1	0	R1250N
3817.244	1.617	4047730	WORD	n/a	wordpools/wordpool_EN.txt	FLAME	5	25	[0, 0, 0]	n/a	FR1	0	R1250N
3818.861	0.967	4049347	WORD_OFF	n/a	n/a	FLAME	5	25	[0, 0, 0]	n/a	FR1	0	R1250N
3819.828	1.616	4050314	WORD	n/a	wordpools/wordpool_EN.txt	STRING	6	25	[0, 0, 0]	n/a	FR1	0	R1250N
3821.444	0.916	4051930	WORD_OFF	n/a	n/a	STRING	6	25	[0, 0, 0]	n/a	FR1	0	R1250N
3822.36	1.601	4052846	WORD	n/a	wordpools/wordpool_EN.txt	CROWN	7	25	[0, 0, 0]	n/a	FR1	0	R1250N
3823.961	1.017	4054447	WORD_OFF	n/a	n/a	CROWN	7	25	[0, 0, 0]	n/a	FR1	0	R1250N
3824.978	1.616	4055464	WORD	n/a	wordpools/wordpool_EN.txt	PLANE	8	25	[0, 0, 0]	n/a	FR1	0	R1250N
3826.594	0.783	4057080	WORD_OFF	n/a	n/a	PLANE	8	25	[0, 0, 0]	n/a	FR1	0	R1250N
3827.377	1.601	4057863	WORD	n/a	wordpools/wordpool_EN.txt	TEETH	9	25	[0, 0, 0]	n/a	FR1	0	R1250N
3828.978	0.917	4059464	WORD_OFF	n/a	n/a	TEETH	9	25	[0, 0, 0]	n/a	FR1	0	R1250N
3829.895	1.616	4060381	WORD	n/a	wordpools/wordpool_EN.txt	SHEET	10	25	[0, 0, 0]	n/a	FR1	0	R1250N
3831.511	1.001	4061997	WORD_OFF	n/a	n/a	SHEET	10	25	[0, 0, 0]	n/a	FR1	0	R1250N
3832.512	1.617	4062998	WORD	n/a	wordpools/wordpool_EN.txt	FROG	11	25	[0, 0, 0]	n/a	FR1	0	R1250N
3834.129	0.95	4064615	WORD_OFF	n/a	n/a	FROG	11	25	[0, 0, 0]	n/a	FR1	0	R1250N
3835.079	1.616	4065565	WORD	n/a	wordpools/wordpool_EN.txt	CHEEK	12	25	[0, 0, 0]	n/a	FR1	0	R1250N
3836.695	0.0	4067181	WORD_OFF	n/a	n/a	CHEEK	12	25	[0, 0, 0]	n/a	FR1	0	R1250N
3836.695	0.001	4067181	DISTRACT_START	n/a	n/a	n/a	-999	25	[0, 0, 0]	n/a	FR1	0	R1250N
3836.696	0.017	4067182	START	n/a	n/a	n/a	-999	25	[-999, -999, -999]	n/a	FR1	0	R1250N
3836.713	4.05	4067199	PROB	4.05	n/a	n/a	-999	25	[3, 1, 9]	13	FR1	0	R1250N
