onset	duration	sample	trial_type	response_time	stim_file	item_name	serialpos	list	test	answer	experiment	session	subject
0.0	335.715	2038	INSTRUCT_START	n/a	n/a	n/a	-999	-999	[0, 0, 0]	n/a	FR1	0	R1332M
335.715	2.702	337738	INSTRUCT_END	n/a	n/a	n/a	-999	-999	[0, 0, 0]	n/a	FR1	0	R1332M
338.417	19.744	340439	MIC TEST_START	n/a	n/a	n/a	-999	-999	[0, 0, 0]	n/a	FR1	0	R1332M
358.161	0.01	360182	MIC TEST_END	n/a	n/a	n/a	-999	-999	[0, 0, 0]	n/a	FR1	0	R1332M
358.171	0.0	360192	TRIAL_START	n/a	n/a	n/a	-999	-1	[0, 0, 0]	n/a	FR1	0	R1332M
358.171	0.0	360192	TRIAL	n/a	n/a	n/a	-999	-1	[0, 0, 0]	n/a	FR1	0	R1332M
358.171	5.5	360192	WAITING_START	n/a	n/a	n/a	-999	-1	[0, 0, 0]	n/a	FR1	0	R1332M
363.671	0.0	365692	COUNTDOWN_START	n/a	n/a	n/a	-999	-1	[0, 0, 0]	n/a	FR1	0	R1332M
363.671	10.43	365692	WAITING_END	n/a	n/a	n/a	-999	-1	[0, 0, 0]	n/a	FR1	0	R1332M
374.101	0.0	376122	COUNTDOWN_END	n/a	n/a	n/a	-999	-1	[0, 0, 0]	n/a	FR1	0	R1332M
374.101	1.206	376122	ORIENT_START	n/a	n/a	n/a	-999	-1	[0, 0, 0]	n/a	FR1	0	R1332M
375.307	0.001	377328	ORIENT_END	n/a	n/a	n/a	-999	-1	[0, 0, 0]	n/a	FR1	0	R1332M
375.308	1.095	377329	ENCODING_START	n/a	n/a	n/a	-999	-1	[0, 0, 0]	n/a	FR1	0	R1332M
376.403	1.621	378424	WORD	n/a	n/a	RING	1	-1	[0, 0, 0]	n/a	FR1	0	R1332M
378.024	1.01	380045	WORD_OFF	n/a	n/a	RING	1	-1	[0, 0, 0]	n/a	FR1	0	R1332M
379.034	1.623	381054	WORD	n/a	n/a	BEAM	2	-1	[0, 0, 0]	n/a	FR1	0	R1332M
380.657	0.968	382677	WORD_OFF	n/a	n/a	BEAM	2	-1	[0, 0, 0]	n/a	FR1	0	R1332M
381.625	1.634	383645	WORD	n/a	n/a	FLOOD	3	-1	[0, 0, 0]	n/a	FR1	0	R1332M
383.259	1.061	385279	WORD_OFF	n/a	n/a	FLOOD	3	-1	[0, 0, 0]	n/a	FR1	0	R1332M
384.32	1.623	386340	WORD	n/a	n/a	TONGUE	4	-1	[0, 0, 0]	n/a	FR1	0	R1332M
385.943	1.008	387963	WORD_OFF	n/a	n/a	TONGUE	4	-1	[0, 0, 0]	n/a	FR1	0	R1332M
386.951	1.624	388971	WORD	n/a	n/a	CHEST	5	-1	[0, 0, 0]	n/a	FR1	0	R1332M
388.575	1.007	390595	WORD_OFF	n/a	n/a	CHEST	5	-1	[0, 0, 0]	n/a	FR1	0	R1332M
389.582	1.628	391602	WORD	n/a	n/a	RHINO	6	-1	[0, 0, 0]	n/a	FR1	0	R1332M
391.21	1.04	393230	WORD_OFF	n/a	n/a	RHINO	6	-1	[0, 0, 0]	n/a	FR1	0	R1332M
392.25	1.611	394270	WORD	n/a	n/a	IMAGE	7	-1	[0, 0, 0]	n/a	FR1	0	R1332M
393.861	0.933	395881	WORD_OFF	n/a	n/a	IMAGE	7	-1	[0, 0, 0]	n/a	FR1	0	R1332M
394.794	1.634	396814	WORD	n/a	n/a	BABY	8	-1	[0, 0, 0]	n/a	FR1	0	R1332M
396.428	0.997	398448	WORD_OFF	n/a	n/a	BABY	8	-1	[0, 0, 0]	n/a	FR1	0	R1332M
397.425	1.637	399445	WORD	n/a	n/a	WATCH	9	-1	[0, 0, 0]	n/a	FR1	0	R1332M
399.062	0.807	401082	WORD_OFF	n/a	n/a	WATCH	9	-1	[0, 0, 0]	n/a	FR1	0	R1332M
399.869	1.627	401889	WORD	n/a	n/a	WAGON	10	-1	[0, 0, 0]	n/a	FR1	0	R1332M
401.496	0.958	403515	WORD_OFF	n/a	n/a	WAGON	10	-1	[0, 0, 0]	n/a	FR1	0	R1332M
402.454	1.625	404473	WORD	n/a	n/a	COTTON	11	-1	[0, 0, 0]	n/a	FR1	0	R1332M
404.079	0.754	406098	WORD_OFF	n/a	n/a	COTTON	11	-1	[0, 0, 0]	n/a	FR1	0	R1332M
404.833	1.63	406852	WORD	n/a	n/a	CAMEL	12	-1	[0, 0, 0]	n/a	FR1	0	R1332M
406.463	0.001	408482	WORD_OFF	n/a	n/a	CAMEL	12	-1	[0, 0, 0]	n/a	FR1	0	R1332M
406.464	0.0	408483	DISTRACT_START	n/a	n/a	n/a	-999	-1	[0, 0, 0]	n/a	FR1	0	R1332M
406.464	0.0	408483	ENCODING_END	n/a	n/a	n/a	-999	-1	[0, 0, 0]	n/a	FR1	0	R1332M
406.464	0.016	408483	START	n/a	n/a	n/a	-999	-1	[-999, -999, -999]	n/a	FR1	0	R1332M
406.48	6.351	408499	PROB	6.351	n/a	n/a	-999	-1	[6, 7, 3]	16	FR1	0	R1332M
412.831	3.267	414850	PROB	3.267	n/a	n/a	-999	-1	[4, 5, 5]	14	FR1	0	R1332M
416.098	3.717	418117	PROB	3.717	n/a	n/a	-999	-1	[9, 7, 6]	22	FR1	0	R1332M
419.815	2.284	421834	PROB	2.284	n/a	n/a	-999	-1	[4, 1, 2]	7	FR1	0	R1332M
422.099	3.751	424117	PROB	3.751	n/a	n/a	-999	-1	[6, 8, 2]	16	FR1	0	R1332M
425.85	2.592	427868	PROB	2.592	n/a	n/a	-999	-1	[7, 3, 3]	13	FR1	0	R1332M
428.442	0.009	430460	STOP	n/a	n/a	n/a	-999	-1	[-999, -999, -999]	n/a	FR1	0	R1332M
428.451	0.516	430469	DISTRACT_END	n/a	n/a	n/a	-999	-1	[0, 0, 0]	n/a	FR1	0	R1332M
428.967	1.583	430985	RETRIEVAL_ORIENT_START	n/a	n/a	n/a	-999	-1	[0, 0, 0]	n/a	FR1	0	R1332M
430.55	0.0	432568	RETRIEVAL_ORIENT_END	n/a	n/a	n/a	-999	-1	[0, 0, 0]	n/a	FR1	0	R1332M
430.55	1.251	432568	REC_START	n/a	n/a	n/a	-999	-1	[0, 0, 0]	n/a	FR1	0	R1332M
431.801	0.583	433819	REC_WORD	0.583	n/a	RING	-999	-1	[0, 0, 0]	n/a	FR1	0	R1332M
432.384	1.626	434402	REC_WORD	1.626	n/a	FLOOD	-999	-1	[0, 0, 0]	n/a	FR1	0	R1332M
434.01	2.074	436028	REC_WORD	2.074	n/a	COTTON	-999	-1	[0, 0, 0]	n/a	FR1	0	R1332M
436.084	1.856	438102	REC_WORD	1.856	n/a	BABY	-999	-1	[0, 0, 0]	n/a	FR1	0	R1332M
437.94	2.908	439958	REC_WORD	2.908	n/a	WATCH	-999	-1	[0, 0, 0]	n/a	FR1	0	R1332M
440.848	17.117	442866	REC_WORD	17.117	n/a	TONGUE	-999	-1	[0, 0, 0]	n/a	FR1	0	R1332M
457.965	2.598	459982	REC_WORD	2.598	n/a	CHEST	-999	-1	[0, 0, 0]	n/a	FR1	0	R1332M
460.563	0.0	462580	REC_END	n/a	n/a	n/a	-999	-1	[0, 0, 0]	n/a	FR1	0	R1332M
460.563	11.146	462580	PRACTICE_POST_INSTRUCT_START	n/a	n/a	n/a	-999	-1	[0, 0, 0]	n/a	FR1	0	R1332M
471.709	0.0	473725	PRACTICE_POST_INSTRUCT_END	n/a	n/a	n/a	-999	-1	[0, 0, 0]	n/a	FR1	0	R1332M
471.709	0.017	473725	TRIAL_END	n/a	n/a	n/a	-999	-1	[0, 0, 0]	n/a	FR1	0	R1332M
471.726	0.001	473742	TRIAL_START	n/a	n/a	n/a	-999	1	[0, 0, 0]	n/a	FR1	0	R1332M
471.727	0.0	473743	TRIAL	n/a	n/a	n/a	-999	1	[0, 0, 0]	n/a	FR1	0	R1332M
471.727	5.517	473743	WAITING_START	n/a	n/a	n/a	-999	1	[0, 0, 0]	n/a	FR1	0	R1332M
477.244	0.0	479260	COUNTDOWN_START	n/a	n/a	n/a	-999	1	[0, 0, 0]	n/a	FR1	0	R1332M
477.244	10.43	479260	WAITING_END	n/a	n/a	n/a	-999	1	[0, 0, 0]	n/a	FR1	0	R1332M
487.674	0.0	489689	COUNTDOWN_END	n/a	n/a	n/a	-999	1	[0, 0, 0]	n/a	FR1	0	R1332M
487.674	1.138	489689	ORIENT_START	n/a	n/a	n/a	-999	1	[0, 0, 0]	n/a	FR1	0	R1332M
488.812	0.0	490827	ORIENT_END	n/a	n/a	n/a	-999	1	[0, 0, 0]	n/a	FR1	0	R1332M
488.812	0.951	490827	ENCODING_START	n/a	n/a	n/a	-999	1	[0, 0, 0]	n/a	FR1	0	R1332M
489.763	1.617	491778	WORD	n/a	n/a	SINK	1	1	[0, 0, 0]	n/a	FR1	0	R1332M
491.38	1.149	493395	WORD_OFF	n/a	n/a	SINK	1	1	[0, 0, 0]	n/a	FR1	0	R1332M
492.529	1.618	494544	WORD	n/a	n/a	JEEP	2	1	[0, 0, 0]	n/a	FR1	0	R1332M
494.147	0.994	496162	WORD_OFF	n/a	n/a	JEEP	2	1	[0, 0, 0]	n/a	FR1	0	R1332M
495.141	1.622	497156	WORD	n/a	n/a	SWORD	3	1	[0, 0, 0]	n/a	FR1	0	R1332M
496.763	0.873	498778	WORD_OFF	n/a	n/a	SWORD	3	1	[0, 0, 0]	n/a	FR1	0	R1332M
497.636	1.629	499651	WORD	n/a	n/a	BEACH	4	1	[0, 0, 0]	n/a	FR1	0	R1332M
499.265	0.798	501280	WORD_OFF	n/a	n/a	BEACH	4	1	[0, 0, 0]	n/a	FR1	0	R1332M
500.063	1.634	502078	WORD	n/a	n/a	GRAPE	5	1	[0, 0, 0]	n/a	FR1	0	R1332M
501.697	1.116	503712	WORD_OFF	n/a	n/a	GRAPE	5	1	[0, 0, 0]	n/a	FR1	0	R1332M
502.813	1.636	504828	WORD	n/a	n/a	JAIL	6	1	[0, 0, 0]	n/a	FR1	0	R1332M
504.449	0.919	506464	WORD_OFF	n/a	n/a	JAIL	6	1	[0, 0, 0]	n/a	FR1	0	R1332M
505.368	1.631	507383	WORD	n/a	n/a	TEETH	7	1	[0, 0, 0]	n/a	FR1	0	R1332M
506.999	0.822	509013	WORD_OFF	n/a	n/a	TEETH	7	1	[0, 0, 0]	n/a	FR1	0	R1332M
507.821	1.629	509835	WORD	n/a	n/a	CHAIR	8	1	[0, 0, 0]	n/a	FR1	0	R1332M
509.45	0.837	511464	WORD_OFF	n/a	n/a	CHAIR	8	1	[0, 0, 0]	n/a	FR1	0	R1332M
510.287	1.63	512301	WORD	n/a	n/a	LAMP	9	1	[0, 0, 0]	n/a	FR1	0	R1332M
511.917	0.877	513931	WORD_OFF	n/a	n/a	LAMP	9	1	[0, 0, 0]	n/a	FR1	0	R1332M
512.794	1.607	514808	WORD	n/a	n/a	SKY	10	1	[0, 0, 0]	n/a	FR1	0	R1332M
514.401	1.112	516415	WORD_OFF	n/a	n/a	SKY	10	1	[0, 0, 0]	n/a	FR1	0	R1332M
515.513	1.622	517527	WORD	n/a	n/a	BED	11	1	[0, 0, 0]	n/a	FR1	0	R1332M
517.135	0.909	519149	WORD_OFF	n/a	n/a	BED	11	1	[0, 0, 0]	n/a	FR1	0	R1332M
518.044	1.623	520058	WORD	n/a	n/a	GLASS	12	1	[0, 0, 0]	n/a	FR1	0	R1332M
519.667	0.001	521681	WORD_OFF	n/a	n/a	GLASS	12	1	[0, 0, 0]	n/a	FR1	0	R1332M
519.668	0.0	521682	ENCODING_END	n/a	n/a	n/a	-999	1	[0, 0, 0]	n/a	FR1	0	R1332M
519.668	0.0	521682	DISTRACT_START	n/a	n/a	n/a	-999	1	[0, 0, 0]	n/a	FR1	0	R1332M
519.668	0.016	521682	START	n/a	n/a	n/a	-999	1	[-999, -999, -999]	n/a	FR1	0	R1332M
519.684	2.867	521698	PROB	2.867	n/a	n/a	-999	1	[2, 4, 1]	7	FR1	0	R1332M
522.551	2.418	524565	PROB	2.418	n/a	n/a	-999	1	[1, 5, 2]	8	FR1	0	R1332M
524.969	2.934	526983	PROB	2.934	n/a	n/a	-999	1	[2, 8, 8]	18	FR1	0	R1332M
527.903	2.134	529916	PROB	2.134	n/a	n/a	-999	1	[3, 5, 3]	11	FR1	0	R1332M
530.037	4.968	532050	PROB	4.968	n/a	n/a	-999	1	[1, 6, 6]	13	FR1	0	R1332M
535.005	6.788	537018	PROB	6.788	n/a	n/a	-999	1	[1, 5, 8]	14	FR1	0	R1332M
541.793	0.012	543806	STOP	n/a	n/a	n/a	-999	1	[-999, -999, -999]	n/a	FR1	0	R1332M
541.805	0.576	543818	DISTRACT_END	n/a	n/a	n/a	-999	1	[0, 0, 0]	n/a	FR1	0	R1332M
542.381	1.692	544394	RETRIEVAL_ORIENT_START	n/a	n/a	n/a	-999	1	[0, 0, 0]	n/a	FR1	0	R1332M
544.073	0.001	546086	RETRIEVAL_ORIENT_END	n/a	n/a	n/a	-999	1	[0, 0, 0]	n/a	FR1	0	R1332M
544.074	1.228	546087	REC_START	n/a	n/a	n/a	-999	1	[0, 0, 0]	n/a	FR1	0	R1332M
545.302	2.272	547315	REC_WORD	2.272	n/a	SINK	1	1	[0, 0, 0]	n/a	FR1	0	R1332M
547.574	1.097	549587	REC_WORD	1.097	n/a	JEEP	2	1	[0, 0, 0]	n/a	FR1	0	R1332M
548.671	1.935	550684	REC_WORD	1.935	n/a	BEAM	-999	1	[0, 0, 0]	n/a	FR1	0	R1332M
550.606	4.278	552618	REC_WORD	4.278	n/a	JAIL	6	1	[0, 0, 0]	n/a	FR1	0	R1332M
554.884	19.2	556896	REC_WORD	19.2	n/a	BEACH	4	1	[0, 0, 0]	n/a	FR1	0	R1332M
574.084	0.0	576095	REC_END	n/a	n/a	n/a	-999	1	[0, 0, 0]	n/a	FR1	0	R1332M
574.084	0.014	576095	TRIAL_END	n/a	n/a	n/a	-999	1	[0, 0, 0]	n/a	FR1	0	R1332M
574.098	0.0	576109	TRIAL_START	n/a	n/a	n/a	-999	2	[0, 0, 0]	n/a	FR1	0	R1332M
574.098	0.0	576109	TRIAL	n/a	n/a	n/a	-999	2	[0, 0, 0]	n/a	FR1	0	R1332M
574.098	15.417	576109	WAITING_START	n/a	n/a	n/a	-999	2	[0, 0, 0]	n/a	FR1	0	R1332M
589.515	0.001	591526	WAITING_END	n/a	n/a	n/a	-999	2	[0, 0, 0]	n/a	FR1	0	R1332M
589.516	10.429	591527	COUNTDOWN_START	n/a	n/a	n/a	-999	2	[0, 0, 0]	n/a	FR1	0	R1332M
599.945	0.001	601955	COUNTDOWN_END	n/a	n/a	n/a	-999	2	[0, 0, 0]	n/a	FR1	0	R1332M
599.946	1.222	601956	ORIENT_START	n/a	n/a	n/a	-999	2	[0, 0, 0]	n/a	FR1	0	R1332M
601.168	0.0	603178	ORIENT_END	n/a	n/a	n/a	-999	2	[0, 0, 0]	n/a	FR1	0	R1332M
601.168	0.89	603178	ENCODING_START	n/a	n/a	n/a	-999	2	[0, 0, 0]	n/a	FR1	0	R1332M
602.058	1.626	604068	WORD	n/a	n/a	LAWN	1	2	[0, 0, 0]	n/a	FR1	0	R1332M
603.684	0.78	605694	WORD_OFF	n/a	n/a	LAWN	1	2	[0, 0, 0]	n/a	FR1	0	R1332M
604.464	1.621	606474	WORD	n/a	n/a	RAT	2	2	[0, 0, 0]	n/a	FR1	0	R1332M
606.085	0.971	608095	WORD_OFF	n/a	n/a	RAT	2	2	[0, 0, 0]	n/a	FR1	0	R1332M
607.056	1.629	609066	WORD	n/a	n/a	WORM	3	2	[0, 0, 0]	n/a	FR1	0	R1332M
608.685	1.005	610695	WORD_OFF	n/a	n/a	WORM	3	2	[0, 0, 0]	n/a	FR1	0	R1332M
609.69	1.613	611700	WORD	n/a	n/a	BALL	4	2	[0, 0, 0]	n/a	FR1	0	R1332M
611.303	0.896	613313	WORD_OFF	n/a	n/a	BALL	4	2	[0, 0, 0]	n/a	FR1	0	R1332M
612.199	1.621	614209	WORD	n/a	n/a	SMOKE	5	2	[0, 0, 0]	n/a	FR1	0	R1332M
613.82	0.833	615829	WORD_OFF	n/a	n/a	SMOKE	5	2	[0, 0, 0]	n/a	FR1	0	R1332M
614.653	1.617	616662	WORD	n/a	n/a	BATH	6	2	[0, 0, 0]	n/a	FR1	0	R1332M
616.27	0.871	618279	WORD_OFF	n/a	n/a	BATH	6	2	[0, 0, 0]	n/a	FR1	0	R1332M
617.141	1.629	619150	WORD	n/a	n/a	PALM	7	2	[0, 0, 0]	n/a	FR1	0	R1332M
618.77	1.131	620779	WORD_OFF	n/a	n/a	PALM	7	2	[0, 0, 0]	n/a	FR1	0	R1332M
619.901	1.636	621910	WORD	n/a	n/a	NEST	8	2	[0, 0, 0]	n/a	FR1	0	R1332M
621.537	0.882	623546	WORD_OFF	n/a	n/a	NEST	8	2	[0, 0, 0]	n/a	FR1	0	R1332M
622.419	1.636	624428	WORD	n/a	n/a	CAKE	9	2	[0, 0, 0]	n/a	FR1	0	R1332M
624.055	0.975	626064	WORD_OFF	n/a	n/a	CAKE	9	2	[0, 0, 0]	n/a	FR1	0	R1332M
625.03	1.625	627039	WORD	n/a	n/a	STEAM	10	2	[0, 0, 0]	n/a	FR1	0	R1332M
626.655	0.918	628664	WORD_OFF	n/a	n/a	STEAM	10	2	[0, 0, 0]	n/a	FR1	0	R1332M
627.573	1.616	629582	WORD	n/a	n/a	SPONGE	11	2	[0, 0, 0]	n/a	FR1	0	R1332M
629.189	1.136	631198	WORD_OFF	n/a	n/a	SPONGE	11	2	[0, 0, 0]	n/a	FR1	0	R1332M
630.325	1.632	632334	WORD	n/a	n/a	FLOOR	12	2	[0, 0, 0]	n/a	FR1	0	R1332M
631.957	0.0	633966	WORD_OFF	n/a	n/a	FLOOR	12	2	[0, 0, 0]	n/a	FR1	0	R1332M
631.957	0.001	633966	ENCODING_END	n/a	n/a	n/a	-999	2	[0, 0, 0]	n/a	FR1	0	R1332M
631.958	0.0	633967	DISTRACT_START	n/a	n/a	n/a	-999	2	[0, 0, 0]	n/a	FR1	0	R1332M
631.958	0.015	633967	START	n/a	n/a	n/a	-999	2	[-999, -999, -999]	n/a	FR1	0	R1332M
631.973	5.418	633982	PROB	5.418	n/a	n/a	-999	2	[9, 6, 8]	23	FR1	0	R1332M
637.391	3.017	639399	PROB	3.017	n/a	n/a	-999	2	[5, 6, 4]	15	FR1	0	R1332M
640.408	2.3	642416	PROB	2.3	n/a	n/a	-999	2	[7, 8, 7]	22	FR1	0	R1332M
642.708	3.017	644716	PROB	3.017	n/a	n/a	-999	2	[1, 2, 2]	5	FR1	0	R1332M
645.725	3.152	647733	PROB	3.152	n/a	n/a	-999	2	[2, 7, 6]	16	FR1	0	R1332M
648.877	3.389	650885	PROB	3.389	n/a	n/a	-999	2	[8, 7, 8]	23	FR1	0	R1332M
652.266	0.011	654274	STOP	n/a	n/a	n/a	-999	2	[-999, -999, -999]	n/a	FR1	0	R1332M
652.277	0.606	654285	DISTRACT_END	n/a	n/a	n/a	-999	2	[0, 0, 0]	n/a	FR1	0	R1332M
652.883	1.645	654891	RETRIEVAL_ORIENT_START	n/a	n/a	n/a	-999	2	[0, 0, 0]	n/a	FR1	0	R1332M
654.528	0.0	656536	RETRIEVAL_ORIENT_END	n/a	n/a	n/a	-999	2	[0, 0, 0]	n/a	FR1	0	R1332M
654.528	0.909	656536	REC_START	n/a	n/a	n/a	-999	2	[0, 0, 0]	n/a	FR1	0	R1332M
655.437	0.639	657444	REC_WORD	0.639	n/a	LAWN	1	2	[0, 0, 0]	n/a	FR1	0	R1332M
656.076	2.197	658083	REC_WORD	2.197	n/a	RAT	2	2	[0, 0, 0]	n/a	FR1	0	R1332M
658.273	1.455	660280	REC_WORD	1.455	n/a	SPONGE	11	2	[0, 0, 0]	n/a	FR1	0	R1332M
659.728	16.044	661735	REC_WORD	16.044	n/a	FLOOR	12	2	[0, 0, 0]	n/a	FR1	0	R1332M
675.772	8.766	677779	REC_WORD	8.766	n/a	NEST	8	2	[0, 0, 0]	n/a	FR1	0	R1332M
684.538	0.0	686544	TRIAL_END	n/a	n/a	n/a	-999	2	[0, 0, 0]	n/a	FR1	0	R1332M
684.538	0.014	686544	REC_END	n/a	n/a	n/a	-999	2	[0, 0, 0]	n/a	FR1	0	R1332M
684.552	0.001	686558	TRIAL_START	n/a	n/a	n/a	-999	3	[0, 0, 0]	n/a	FR1	0	R1332M
684.553	0.0	686559	TRIAL	n/a	n/a	n/a	-999	3	[0, 0, 0]	n/a	FR1	0	R1332M
684.553	4.565	686559	WAITING_START	n/a	n/a	n/a	-999	3	[0, 0, 0]	n/a	FR1	0	R1332M
689.118	0.0	691124	WAITING_END	n/a	n/a	n/a	-999	3	[0, 0, 0]	n/a	FR1	0	R1332M
689.118	10.431	691124	COUNTDOWN_START	n/a	n/a	n/a	-999	3	[0, 0, 0]	n/a	FR1	0	R1332M
699.549	0.0	701554	COUNTDOWN_END	n/a	n/a	n/a	-999	3	[0, 0, 0]	n/a	FR1	0	R1332M
699.549	1.204	701554	ORIENT_START	n/a	n/a	n/a	-999	3	[0, 0, 0]	n/a	FR1	0	R1332M
700.753	0.0	702758	ORIENT_END	n/a	n/a	n/a	-999	3	[0, 0, 0]	n/a	FR1	0	R1332M
700.753	1.146	702758	ENCODING_START	n/a	n/a	n/a	-999	3	[0, 0, 0]	n/a	FR1	0	R1332M
701.899	1.637	703904	WORD	n/a	n/a	BRANCH	1	3	[0, 0, 0]	n/a	FR1	0	R1332M
703.536	0.976	705541	WORD_OFF	n/a	n/a	BRANCH	1	3	[0, 0, 0]	n/a	FR1	0	R1332M
704.512	1.626	706517	WORD	n/a	n/a	TOAD	2	3	[0, 0, 0]	n/a	FR1	0	R1332M
706.138	1.012	708143	WORD_OFF	n/a	n/a	TOAD	2	3	[0, 0, 0]	n/a	FR1	0	R1332M
707.15	1.621	709155	WORD	n/a	n/a	PASTE	3	3	[0, 0, 0]	n/a	FR1	0	R1332M
708.771	1.141	710776	WORD_OFF	n/a	n/a	PASTE	3	3	[0, 0, 0]	n/a	FR1	0	R1332M
709.912	1.626	711917	WORD	n/a	n/a	SNAIL	4	3	[0, 0, 0]	n/a	FR1	0	R1332M
711.538	0.762	713543	WORD_OFF	n/a	n/a	SNAIL	4	3	[0, 0, 0]	n/a	FR1	0	R1332M
712.3	1.623	714305	WORD	n/a	n/a	GATE	5	3	[0, 0, 0]	n/a	FR1	0	R1332M
713.923	0.942	715928	WORD_OFF	n/a	n/a	GATE	5	3	[0, 0, 0]	n/a	FR1	0	R1332M
714.865	1.625	716870	WORD	n/a	n/a	PEACH	6	3	[0, 0, 0]	n/a	FR1	0	R1332M
716.49	0.909	718495	WORD_OFF	n/a	n/a	PEACH	6	3	[0, 0, 0]	n/a	FR1	0	R1332M
717.399	1.625	719404	WORD	n/a	n/a	MULE	7	3	[0, 0, 0]	n/a	FR1	0	R1332M
719.024	1.073	721029	WORD_OFF	n/a	n/a	MULE	7	3	[0, 0, 0]	n/a	FR1	0	R1332M
720.097	1.626	722101	WORD	n/a	n/a	HOUSE	8	3	[0, 0, 0]	n/a	FR1	0	R1332M
721.723	0.944	723727	WORD_OFF	n/a	n/a	HOUSE	8	3	[0, 0, 0]	n/a	FR1	0	R1332M
722.667	1.624	724671	WORD	n/a	n/a	MOUTH	9	3	[0, 0, 0]	n/a	FR1	0	R1332M
724.291	1.008	726295	WORD_OFF	n/a	n/a	MOUTH	9	3	[0, 0, 0]	n/a	FR1	0	R1332M
725.299	1.626	727303	WORD	n/a	n/a	DIME	10	3	[0, 0, 0]	n/a	FR1	0	R1332M
726.925	0.903	728929	WORD_OFF	n/a	n/a	DIME	10	3	[0, 0, 0]	n/a	FR1	0	R1332M
727.828	1.631	729832	WORD	n/a	n/a	TANK	11	3	[0, 0, 0]	n/a	FR1	0	R1332M
729.459	1.143	731463	WORD_OFF	n/a	n/a	TANK	11	3	[0, 0, 0]	n/a	FR1	0	R1332M
730.602	1.624	732606	WORD	n/a	n/a	MAZE	12	3	[0, 0, 0]	n/a	FR1	0	R1332M
732.226	0.001	734230	WORD_OFF	n/a	n/a	MAZE	12	3	[0, 0, 0]	n/a	FR1	0	R1332M
732.227	0.0	734231	ENCODING_END	n/a	n/a	n/a	-999	3	[0, 0, 0]	n/a	FR1	0	R1332M
732.227	0.0	734231	DISTRACT_START	n/a	n/a	n/a	-999	3	[0, 0, 0]	n/a	FR1	0	R1332M
732.227	0.016	734231	START	n/a	n/a	n/a	-999	3	[-999, -999, -999]	n/a	FR1	0	R1332M
732.243	2.883	734247	PROB	2.883	n/a	n/a	-999	3	[4, 2, 6]	12	FR1	0	R1332M
735.126	3.735	737130	PROB	3.735	n/a	n/a	-999	3	[8, 8, 4]	20	FR1	0	R1332M
738.861	2.317	740865	PROB	2.317	n/a	n/a	-999	3	[3, 1, 4]	8	FR1	0	R1332M
741.178	6.084	743181	PROB	6.084	n/a	n/a	-999	3	[7, 1, 9]	18	FR1	0	R1332M
747.262	3.134	749265	PROB	3.134	n/a	n/a	-999	3	[6, 7, 5]	18	FR1	0	R1332M
750.396	1.567	752399	PROB	1.567	n/a	n/a	-999	3	[3, 7, 3]	13	FR1	0	R1332M
751.963	4.692	753966	PROB	4.692	n/a	n/a	-999	3	[9, 8, 7]	24	FR1	0	R1332M
756.655	0.008	758658	STOP	n/a	n/a	n/a	-999	3	[-999, -999, -999]	n/a	FR1	0	R1332M
756.663	0.684	758666	DISTRACT_END	n/a	n/a	n/a	-999	3	[0, 0, 0]	n/a	FR1	0	R1332M
757.347	1.618	759350	RETRIEVAL_ORIENT_START	n/a	n/a	n/a	-999	3	[0, 0, 0]	n/a	FR1	0	R1332M
758.965	0.0	760968	REC_START	n/a	n/a	n/a	-999	3	[0, 0, 0]	n/a	FR1	0	R1332M
758.965	1.531	760968	RETRIEVAL_ORIENT_END	n/a	n/a	n/a	-999	3	[0, 0, 0]	n/a	FR1	0	R1332M
760.496	2.116	762499	REC_WORD	2.116	n/a	BRANCH	1	3	[0, 0, 0]	n/a	FR1	0	R1332M
762.612	2.93	764614	REC_WORD	2.93	n/a	TOAD	2	3	[0, 0, 0]	n/a	FR1	0	R1332M
765.542	3.885	767544	REC_WORD	3.885	n/a	SNAIL	4	3	[0, 0, 0]	n/a	FR1	0	R1332M
769.427	6.747	771429	REC_WORD_VV	6.747	n/a	<>	-999	3	[0, 0, 0]	n/a	FR1	0	R1332M
776.174	7.441	778176	REC_WORD	7.441	n/a	LAWN	-999	3	[0, 0, 0]	n/a	FR1	0	R1332M
783.615	0.528	785616	REC_WORD	0.528	n/a	HOUSE	8	3	[0, 0, 0]	n/a	FR1	0	R1332M
784.143	0.06	786144	REC_WORD_VV	0.06	n/a	<>	-999	3	[0, 0, 0]	n/a	FR1	0	R1332M
784.203	4.773	786204	REC_WORD	4.773	n/a	MOUSE	-999	3	[0, 0, 0]	n/a	FR1	0	R1332M
788.976	0.001	790977	REC_END	n/a	n/a	n/a	-999	3	[0, 0, 0]	n/a	FR1	0	R1332M
788.977	0.017	790978	TRIAL_END	n/a	n/a	n/a	-999	3	[0, 0, 0]	n/a	FR1	0	R1332M
788.994	0.0	790995	TRIAL_START	n/a	n/a	n/a	-999	4	[0, 0, 0]	n/a	FR1	0	R1332M
788.994	0.0	790995	TRIAL	n/a	n/a	n/a	-999	4	[0, 0, 0]	n/a	FR1	0	R1332M
788.994	18.613	790995	WAITING_START	n/a	n/a	n/a	-999	4	[0, 0, 0]	n/a	FR1	0	R1332M
807.607	0.0	809607	WAITING_END	n/a	n/a	n/a	-999	4	[0, 0, 0]	n/a	FR1	0	R1332M
807.607	10.429	809607	COUNTDOWN_START	n/a	n/a	n/a	-999	4	[0, 0, 0]	n/a	FR1	0	R1332M
818.036	0.0	820036	COUNTDOWN_END	n/a	n/a	n/a	-999	4	[0, 0, 0]	n/a	FR1	0	R1332M
818.036	1.057	820036	ORIENT_START	n/a	n/a	n/a	-999	4	[0, 0, 0]	n/a	FR1	0	R1332M
819.093	0.0	821093	ENCODING_START	n/a	n/a	n/a	-999	4	[0, 0, 0]	n/a	FR1	0	R1332M
819.093	0.987	821093	ORIENT_END	n/a	n/a	n/a	-999	4	[0, 0, 0]	n/a	FR1	0	R1332M
820.08	1.629	822080	WORD	n/a	n/a	OAK	1	4	[0, 0, 0]	n/a	FR1	0	R1332M
821.709	1.007	823709	WORD_OFF	n/a	n/a	OAK	1	4	[0, 0, 0]	n/a	FR1	0	R1332M
822.716	1.628	824716	WORD	n/a	n/a	CLAY	2	4	[0, 0, 0]	n/a	FR1	0	R1332M
824.344	0.844	826344	WORD_OFF	n/a	n/a	CLAY	2	4	[0, 0, 0]	n/a	FR1	0	R1332M
825.188	1.622	827188	WORD	n/a	n/a	SKI	3	4	[0, 0, 0]	n/a	FR1	0	R1332M
826.81	1.106	828809	WORD_OFF	n/a	n/a	SKI	3	4	[0, 0, 0]	n/a	FR1	0	R1332M
827.916	1.628	829915	WORD	n/a	n/a	LAND	4	4	[0, 0, 0]	n/a	FR1	0	R1332M
829.544	1.065	831543	WORD_OFF	n/a	n/a	LAND	4	4	[0, 0, 0]	n/a	FR1	0	R1332M
830.609	1.62	832608	WORD	n/a	n/a	STAIR	5	4	[0, 0, 0]	n/a	FR1	0	R1332M
832.229	0.829	834228	WORD_OFF	n/a	n/a	STAIR	5	4	[0, 0, 0]	n/a	FR1	0	R1332M
833.058	1.62	835057	WORD	n/a	n/a	JAR	6	4	[0, 0, 0]	n/a	FR1	0	R1332M
834.678	0.752	836677	WORD_OFF	n/a	n/a	JAR	6	4	[0, 0, 0]	n/a	FR1	0	R1332M
835.43	1.633	837429	WORD	n/a	n/a	FOX	7	4	[0, 0, 0]	n/a	FR1	0	R1332M
837.063	1.141	839062	WORD_OFF	n/a	n/a	FOX	7	4	[0, 0, 0]	n/a	FR1	0	R1332M
838.204	1.626	840203	WORD	n/a	n/a	LIP	8	4	[0, 0, 0]	n/a	FR1	0	R1332M
839.83	0.824	841829	WORD_OFF	n/a	n/a	LIP	8	4	[0, 0, 0]	n/a	FR1	0	R1332M
840.654	1.627	842653	WORD	n/a	n/a	CRANE	9	4	[0, 0, 0]	n/a	FR1	0	R1332M
842.281	0.921	844280	WORD_OFF	n/a	n/a	CRANE	9	4	[0, 0, 0]	n/a	FR1	0	R1332M
843.202	1.629	845201	WORD	n/a	n/a	SHELL	10	4	[0, 0, 0]	n/a	FR1	0	R1332M
844.831	1.118	846830	WORD_OFF	n/a	n/a	SHELL	10	4	[0, 0, 0]	n/a	FR1	0	R1332M
845.949	1.632	847948	WORD	n/a	n/a	GUARD	11	4	[0, 0, 0]	n/a	FR1	0	R1332M
847.581	0.801	849579	WORD_OFF	n/a	n/a	GUARD	11	4	[0, 0, 0]	n/a	FR1	0	R1332M
848.382	1.634	850380	WORD	n/a	n/a	FORT	12	4	[0, 0, 0]	n/a	FR1	0	R1332M
850.016	0.0	852014	WORD_OFF	n/a	n/a	FORT	12	4	[0, 0, 0]	n/a	FR1	0	R1332M
850.016	0.0	852014	ENCODING_END	n/a	n/a	n/a	-999	4	[0, 0, 0]	n/a	FR1	0	R1332M
850.016	0.001	852014	DISTRACT_START	n/a	n/a	n/a	-999	4	[0, 0, 0]	n/a	FR1	0	R1332M
850.017	0.015	852015	START	n/a	n/a	n/a	-999	4	[-999, -999, -999]	n/a	FR1	0	R1332M
850.032	4.667	852030	PROB	4.667	n/a	n/a	-999	4	[7, 6, 4]	17	FR1	0	R1332M
854.699	4.552	856697	PROB	4.552	n/a	n/a	-999	4	[3, 9, 4]	16	FR1	0	R1332M
859.251	2.65	861249	PROB	2.65	n/a	n/a	-999	4	[1, 6, 9]	16	FR1	0	R1332M
861.901	1.666	863899	PROB	1.666	n/a	n/a	-999	4	[7, 7, 7]	21	FR1	0	R1332M
863.567	2.435	865565	PROB	2.435	n/a	n/a	-999	4	[5, 4, 5]	14	FR1	0	R1332M
866.002	1.867	868000	PROB	1.867	n/a	n/a	-999	4	[9, 4, 1]	14	FR1	0	R1332M
867.869	2.226	869866	PROB	2.226	n/a	n/a	-999	4	[4, 9, 2]	15	FR1	0	R1332M
870.095	0.008	872092	STOP	n/a	n/a	n/a	-999	4	[-999, -999, -999]	n/a	FR1	0	R1332M
870.103	0.519	872100	DISTRACT_END	n/a	n/a	n/a	-999	4	[0, 0, 0]	n/a	FR1	0	R1332M
870.622	1.648	872619	RETRIEVAL_ORIENT_START	n/a	n/a	n/a	-999	4	[0, 0, 0]	n/a	FR1	0	R1332M
872.27	0.0	874267	REC_START	n/a	n/a	n/a	-999	4	[0, 0, 0]	n/a	FR1	0	R1332M
872.27	0.946	874267	RETRIEVAL_ORIENT_END	n/a	n/a	n/a	-999	4	[0, 0, 0]	n/a	FR1	0	R1332M
873.216	0.471	875213	REC_WORD	0.471	n/a	OAK	1	4	[0, 0, 0]	n/a	FR1	0	R1332M
873.687	0.672	875684	REC_WORD	0.672	n/a	LAND	4	4	[0, 0, 0]	n/a	FR1	0	R1332M
874.359	4.149	876356	REC_WORD	4.149	n/a	SKI	3	4	[0, 0, 0]	n/a	FR1	0	R1332M
878.508	3.851	880505	REC_WORD	3.851	n/a	JAR	6	4	[0, 0, 0]	n/a	FR1	0	R1332M
882.359	5.678	884356	REC_WORD	5.678	n/a	CHAIR	-999	4	[0, 0, 0]	n/a	FR1	0	R1332M
888.037	5.073	890034	REC_WORD_VV	5.073	n/a	<>	-999	4	[0, 0, 0]	n/a	FR1	0	R1332M
893.11	1.052	895106	REC_WORD_VV	1.052	n/a	<>	-999	4	[0, 0, 0]	n/a	FR1	0	R1332M
894.162	8.118	896158	REC_WORD_VV	8.118	n/a	<>	-999	4	[0, 0, 0]	n/a	FR1	0	R1332M
902.28	0.001	904276	REC_END	n/a	n/a	n/a	-999	4	[0, 0, 0]	n/a	FR1	0	R1332M
902.281	0.015	904277	TRIAL_END	n/a	n/a	n/a	-999	4	[0, 0, 0]	n/a	FR1	0	R1332M
902.296	0.001	904292	TRIAL_START	n/a	n/a	n/a	-999	5	[0, 0, 0]	n/a	FR1	0	R1332M
902.297	0.0	904293	TRIAL	n/a	n/a	n/a	-999	5	[0, 0, 0]	n/a	FR1	0	R1332M
902.297	8.296	904293	WAITING_START	n/a	n/a	n/a	-999	5	[0, 0, 0]	n/a	FR1	0	R1332M
910.593	0.0	912588	WAITING_END	n/a	n/a	n/a	-999	5	[0, 0, 0]	n/a	FR1	0	R1332M
910.593	10.43	912588	COUNTDOWN_START	n/a	n/a	n/a	-999	5	[0, 0, 0]	n/a	FR1	0	R1332M
921.023	0.0	923018	COUNTDOWN_END	n/a	n/a	n/a	-999	5	[0, 0, 0]	n/a	FR1	0	R1332M
921.023	1.173	923018	ORIENT_START	n/a	n/a	n/a	-999	5	[0, 0, 0]	n/a	FR1	0	R1332M
922.196	0.001	924191	ORIENT_END	n/a	n/a	n/a	-999	5	[0, 0, 0]	n/a	FR1	0	R1332M
922.197	1.066	924192	ENCODING_START	n/a	n/a	n/a	-999	5	[0, 0, 0]	n/a	FR1	0	R1332M
923.263	1.634	925258	WORD	n/a	n/a	SMILE	1	5	[0, 0, 0]	n/a	FR1	0	R1332M
924.897	0.761	926892	WORD_OFF	n/a	n/a	SMILE	1	5	[0, 0, 0]	n/a	FR1	0	R1332M
925.658	1.622	927653	WORD	n/a	n/a	TOOL	2	5	[0, 0, 0]	n/a	FR1	0	R1332M
927.28	0.941	929275	WORD_OFF	n/a	n/a	TOOL	2	5	[0, 0, 0]	n/a	FR1	0	R1332M
928.221	1.627	930216	WORD	n/a	n/a	GOAT	3	5	[0, 0, 0]	n/a	FR1	0	R1332M
929.848	1.125	931843	WORD_OFF	n/a	n/a	GOAT	3	5	[0, 0, 0]	n/a	FR1	0	R1332M
930.973	1.624	932968	WORD	n/a	n/a	TRAIN	4	5	[0, 0, 0]	n/a	FR1	0	R1332M
932.597	0.917	934591	WORD_OFF	n/a	n/a	TRAIN	4	5	[0, 0, 0]	n/a	FR1	0	R1332M
933.514	1.635	935508	WORD	n/a	n/a	DRUM	5	5	[0, 0, 0]	n/a	FR1	0	R1332M
935.149	1.039	937143	WORD_OFF	n/a	n/a	DRUM	5	5	[0, 0, 0]	n/a	FR1	0	R1332M
936.188	1.627	938182	WORD	n/a	n/a	CORD	6	5	[0, 0, 0]	n/a	FR1	0	R1332M
937.815	0.94	939809	WORD_OFF	n/a	n/a	CORD	6	5	[0, 0, 0]	n/a	FR1	0	R1332M
938.755	1.628	940749	WORD	n/a	n/a	VINE	7	5	[0, 0, 0]	n/a	FR1	0	R1332M
940.383	0.845	942377	WORD_OFF	n/a	n/a	VINE	7	5	[0, 0, 0]	n/a	FR1	0	R1332M
941.228	1.622	943222	WORD	n/a	n/a	COIN	8	5	[0, 0, 0]	n/a	FR1	0	R1332M
942.85	0.946	944844	WORD_OFF	n/a	n/a	COIN	8	5	[0, 0, 0]	n/a	FR1	0	R1332M
943.796	1.638	945790	WORD	n/a	n/a	LEG	9	5	[0, 0, 0]	n/a	FR1	0	R1332M
945.434	0.997	947428	WORD_OFF	n/a	n/a	LEG	9	5	[0, 0, 0]	n/a	FR1	0	R1332M
946.431	1.62	948425	WORD	n/a	n/a	HAT	10	5	[0, 0, 0]	n/a	FR1	0	R1332M
948.051	0.766	950045	WORD_OFF	n/a	n/a	HAT	10	5	[0, 0, 0]	n/a	FR1	0	R1332M
948.817	1.635	950811	WORD	n/a	n/a	STAR	11	5	[0, 0, 0]	n/a	FR1	0	R1332M
950.452	0.765	952446	WORD_OFF	n/a	n/a	STAR	11	5	[0, 0, 0]	n/a	FR1	0	R1332M
951.217	1.635	953211	WORD	n/a	n/a	SPEAR	12	5	[0, 0, 0]	n/a	FR1	0	R1332M
952.852	0.001	954846	WORD_OFF	n/a	n/a	SPEAR	12	5	[0, 0, 0]	n/a	FR1	0	R1332M
952.853	0.0	954847	ENCODING_END	n/a	n/a	n/a	-999	5	[0, 0, 0]	n/a	FR1	0	R1332M
952.853	0.0	954847	DISTRACT_START	n/a	n/a	n/a	-999	5	[0, 0, 0]	n/a	FR1	0	R1332M
952.853	0.016	954847	START	n/a	n/a	n/a	-999	5	[-999, -999, -999]	n/a	FR1	0	R1332M
952.869	3.334	954862	PROB	3.334	n/a	n/a	-999	5	[1, 4, 3]	8	FR1	0	R1332M
956.203	2.733	958196	PROB	2.733	n/a	n/a	-999	5	[5, 9, 9]	23	FR1	0	R1332M
958.936	2.518	960929	PROB	2.518	n/a	n/a	-999	5	[2, 6, 7]	15	FR1	0	R1332M
961.454	3.784	963447	PROB	3.784	n/a	n/a	-999	5	[5, 6, 9]	20	FR1	0	R1332M
965.238	3.017	967231	PROB	3.017	n/a	n/a	-999	5	[1, 1, 9]	11	FR1	0	R1332M
968.255	3.316	970248	PROB	3.316	n/a	n/a	-999	5	[6, 9, 9]	24	FR1	0	R1332M
971.571	8.236	973564	PROB	8.236	n/a	n/a	-999	5	[1, 4, 7]	12	FR1	0	R1332M
979.807	0.017	981799	STOP	n/a	n/a	n/a	-999	5	[-999, -999, -999]	n/a	FR1	0	R1332M
979.824	0.679	981816	DISTRACT_END	n/a	n/a	n/a	-999	5	[0, 0, 0]	n/a	FR1	0	R1332M
980.503	1.705	982495	RETRIEVAL_ORIENT_START	n/a	n/a	n/a	-999	5	[0, 0, 0]	n/a	FR1	0	R1332M
982.208	0.0	984200	REC_START	n/a	n/a	n/a	-999	5	[0, 0, 0]	n/a	FR1	0	R1332M
982.208	0.586	984200	RETRIEVAL_ORIENT_END	n/a	n/a	n/a	-999	5	[0, 0, 0]	n/a	FR1	0	R1332M
982.794	2.516	984786	REC_WORD	2.516	n/a	SMILE	1	5	[0, 0, 0]	n/a	FR1	0	R1332M
985.31	3.643	987302	REC_WORD	3.643	n/a	HAT	10	5	[0, 0, 0]	n/a	FR1	0	R1332M
988.953	3.572	990945	REC_WORD	3.572	n/a	CHAIR	-999	5	[0, 0, 0]	n/a	FR1	0	R1332M
992.525	5.272	994517	REC_WORD	5.272	n/a	TOOL	2	5	[0, 0, 0]	n/a	FR1	0	R1332M
997.797	9.276	999788	REC_WORD	9.276	n/a	SKI	-999	5	[0, 0, 0]	n/a	FR1	0	R1332M
1007.073	1.931	1009064	REC_WORD	1.931	n/a	STAR	11	5	[0, 0, 0]	n/a	FR1	0	R1332M
1009.004	3.215	1010995	REC_WORD	3.215	n/a	SKY	-999	5	[0, 0, 0]	n/a	FR1	0	R1332M
1012.219	0.0	1014210	TRIAL_END	n/a	n/a	n/a	-999	5	[0, 0, 0]	n/a	FR1	0	R1332M
1012.219	0.017	1014210	REC_END	n/a	n/a	n/a	-999	5	[0, 0, 0]	n/a	FR1	0	R1332M
1012.236	0.001	1014227	TRIAL_START	n/a	n/a	n/a	-999	6	[0, 0, 0]	n/a	FR1	0	R1332M
1012.237	0.0	1014228	TRIAL	n/a	n/a	n/a	-999	6	[0, 0, 0]	n/a	FR1	0	R1332M
1012.237	14.013	1014228	WAITING_START	n/a	n/a	n/a	-999	6	[0, 0, 0]	n/a	FR1	0	R1332M
1026.25	0.0	1028240	WAITING_END	n/a	n/a	n/a	-999	6	[0, 0, 0]	n/a	FR1	0	R1332M
1026.25	10.429	1028240	COUNTDOWN_START	n/a	n/a	n/a	-999	6	[0, 0, 0]	n/a	FR1	0	R1332M
1036.679	0.001	1038669	COUNTDOWN_END	n/a	n/a	n/a	-999	6	[0, 0, 0]	n/a	FR1	0	R1332M
1036.68	1.104	1038670	ORIENT_START	n/a	n/a	n/a	-999	6	[0, 0, 0]	n/a	FR1	0	R1332M
1037.784	0.001	1039774	ORIENT_END	n/a	n/a	n/a	-999	6	[0, 0, 0]	n/a	FR1	0	R1332M
1037.785	1.098	1039775	ENCODING_START	n/a	n/a	n/a	-999	6	[0, 0, 0]	n/a	FR1	0	R1332M
1038.883	1.636	1040872	WORD	n/a	n/a	FILM	1	6	[0, 0, 0]	n/a	FR1	0	R1332M
1040.519	0.927	1042508	WORD_OFF	n/a	n/a	FILM	1	6	[0, 0, 0]	n/a	FR1	0	R1332M
1041.446	1.624	1043435	WORD	n/a	n/a	PIPE	2	6	[0, 0, 0]	n/a	FR1	0	R1332M
1043.07	0.771	1045059	WORD_OFF	n/a	n/a	PIPE	2	6	[0, 0, 0]	n/a	FR1	0	R1332M
1043.841	1.629	1045830	WORD	n/a	n/a	SHEEP	3	6	[0, 0, 0]	n/a	FR1	0	R1332M
1045.47	0.931	1047459	WORD_OFF	n/a	n/a	SHEEP	3	6	[0, 0, 0]	n/a	FR1	0	R1332M
1046.401	1.636	1048390	WORD	n/a	n/a	MOLE	4	6	[0, 0, 0]	n/a	FR1	0	R1332M
1048.037	1.086	1050026	WORD_OFF	n/a	n/a	MOLE	4	6	[0, 0, 0]	n/a	FR1	0	R1332M
1049.123	1.63	1051112	WORD	n/a	n/a	PLATE	5	6	[0, 0, 0]	n/a	FR1	0	R1332M
1050.753	0.832	1052742	WORD_OFF	n/a	n/a	PLATE	5	6	[0, 0, 0]	n/a	FR1	0	R1332M
1051.585	1.62	1053574	WORD	n/a	n/a	WAVE	6	6	[0, 0, 0]	n/a	FR1	0	R1332M
1053.205	0.978	1055194	WORD_OFF	n/a	n/a	WAVE	6	6	[0, 0, 0]	n/a	FR1	0	R1332M
1054.183	1.621	1056172	WORD	n/a	n/a	CROWN	7	6	[0, 0, 0]	n/a	FR1	0	R1332M
1055.804	1.019	1057793	WORD_OFF	n/a	n/a	CROWN	7	6	[0, 0, 0]	n/a	FR1	0	R1332M
1056.823	1.633	1058812	WORD	n/a	n/a	CLOCK	8	6	[0, 0, 0]	n/a	FR1	0	R1332M
1058.456	0.798	1060445	WORD_OFF	n/a	n/a	CLOCK	8	6	[0, 0, 0]	n/a	FR1	0	R1332M
1059.254	1.636	1061242	WORD	n/a	n/a	MOUSE	9	6	[0, 0, 0]	n/a	FR1	0	R1332M
1060.89	0.997	1062878	WORD_OFF	n/a	n/a	MOUSE	9	6	[0, 0, 0]	n/a	FR1	0	R1332M
1061.887	1.636	1063875	WORD	n/a	n/a	SOCK	10	6	[0, 0, 0]	n/a	FR1	0	R1332M
1063.523	0.87	1065511	WORD_OFF	n/a	n/a	SOCK	10	6	[0, 0, 0]	n/a	FR1	0	R1332M
1064.393	1.631	1066381	WORD	n/a	n/a	DART	11	6	[0, 0, 0]	n/a	FR1	0	R1332M
1066.024	0.976	1068012	WORD_OFF	n/a	n/a	DART	11	6	[0, 0, 0]	n/a	FR1	0	R1332M
1067.0	1.624	1068988	WORD	n/a	n/a	SAIL	12	6	[0, 0, 0]	n/a	FR1	0	R1332M
1068.624	0.0	1070612	WORD_OFF	n/a	n/a	SAIL	12	6	[0, 0, 0]	n/a	FR1	0	R1332M
1068.624	0.0	1070612	ENCODING_END	n/a	n/a	n/a	-999	6	[0, 0, 0]	n/a	FR1	0	R1332M
1068.624	0.0	1070612	DISTRACT_START	n/a	n/a	n/a	-999	6	[0, 0, 0]	n/a	FR1	0	R1332M
1068.624	0.016	1070612	START	n/a	n/a	n/a	-999	6	[-999, -999, -999]	n/a	FR1	0	R1332M
1068.64	2.167	1070628	PROB	2.167	n/a	n/a	-999	6	[7, 3, 2]	12	FR1	0	R1332M
1070.807	1.967	1072795	PROB	1.967	n/a	n/a	-999	6	[7, 4, 1]	12	FR1	0	R1332M
1072.774	2.085	1074762	PROB	2.085	n/a	n/a	-999	6	[8, 7, 1]	16	FR1	0	R1332M
1074.859	3.017	1076847	PROB	3.017	n/a	n/a	-999	6	[9, 8, 7]	24	FR1	0	R1332M
1077.876	3.301	1079864	PROB	3.301	n/a	n/a	-999	6	[9, 6, 8]	23	FR1	0	R1332M
1081.177	2.667	1083164	PROB	2.667	n/a	n/a	-999	6	[1, 6, 8]	15	FR1	0	R1332M
1083.844	1.866	1085831	PROB	1.866	n/a	n/a	-999	6	[9, 2, 6]	17	FR1	0	R1332M
1085.71	1.818	1087697	PROB	1.818	n/a	n/a	-999	6	[3, 2, 1]	6	FR1	0	R1332M
1087.528	1.956	1089515	PROB	1.956	n/a	n/a	-999	6	[3, 6, 2]	11	FR1	0	R1332M
1089.484	0.011	1091471	STOP	n/a	n/a	n/a	-999	6	[-999, -999, -999]	n/a	FR1	0	R1332M
1089.495	0.664	1091482	DISTRACT_END	n/a	n/a	n/a	-999	6	[0, 0, 0]	n/a	FR1	0	R1332M
1090.159	1.72	1092146	RETRIEVAL_ORIENT_START	n/a	n/a	n/a	-999	6	[0, 0, 0]	n/a	FR1	0	R1332M
1091.879	0.0	1093866	REC_START	n/a	n/a	n/a	-999	6	[0, 0, 0]	n/a	FR1	0	R1332M
1091.879	1.086	1093866	RETRIEVAL_ORIENT_END	n/a	n/a	n/a	-999	6	[0, 0, 0]	n/a	FR1	0	R1332M
1092.965	2.411	1094952	REC_WORD	2.411	n/a	FILM	1	6	[0, 0, 0]	n/a	FR1	0	R1332M
1095.376	1.579	1097363	REC_WORD	1.579	n/a	MOUSE	9	6	[0, 0, 0]	n/a	FR1	0	R1332M
1096.955	24.935	1098942	REC_WORD	24.935	n/a	SHEEP	3	6	[0, 0, 0]	n/a	FR1	0	R1332M
1121.89	0.001	1123876	REC_END	n/a	n/a	n/a	-999	6	[0, 0, 0]	n/a	FR1	0	R1332M
1121.891	0.015	1123877	TRIAL_END	n/a	n/a	n/a	-999	6	[0, 0, 0]	n/a	FR1	0	R1332M
1121.906	0.0	1123892	WAITING_START	n/a	n/a	n/a	-999	7	[0, 0, 0]	n/a	FR1	0	R1332M
1121.906	0.0	1123892	TRIAL_START	n/a	n/a	n/a	-999	7	[0, 0, 0]	n/a	FR1	0	R1332M
1121.906	6.447	1123892	TRIAL	n/a	n/a	n/a	-999	7	[0, 0, 0]	n/a	FR1	0	R1332M
1128.353	0.0	1130338	COUNTDOWN_START	n/a	n/a	n/a	-999	7	[0, 0, 0]	n/a	FR1	0	R1332M
1128.353	10.429	1130338	WAITING_END	n/a	n/a	n/a	-999	7	[0, 0, 0]	n/a	FR1	0	R1332M
1138.782	0.0	1140767	COUNTDOWN_END	n/a	n/a	n/a	-999	7	[0, 0, 0]	n/a	FR1	0	R1332M
1138.782	1.056	1140767	ORIENT_START	n/a	n/a	n/a	-999	7	[0, 0, 0]	n/a	FR1	0	R1332M
1139.838	0.001	1141823	ORIENT_END	n/a	n/a	n/a	-999	7	[0, 0, 0]	n/a	FR1	0	R1332M
1139.839	1.102	1141824	ENCODING_START	n/a	n/a	n/a	-999	7	[0, 0, 0]	n/a	FR1	0	R1332M
1140.941	1.63	1142926	WORD	n/a	n/a	FROG	1	7	[0, 0, 0]	n/a	FR1	0	R1332M
1142.571	0.867	1144556	WORD_OFF	n/a	n/a	FROG	1	7	[0, 0, 0]	n/a	FR1	0	R1332M
1143.438	1.635	1145423	WORD	n/a	n/a	BOOT	2	7	[0, 0, 0]	n/a	FR1	0	R1332M
1145.073	1.04	1147057	WORD_OFF	n/a	n/a	BOOT	2	7	[0, 0, 0]	n/a	FR1	0	R1332M
1146.113	1.626	1148097	WORD	n/a	n/a	TAIL	3	7	[0, 0, 0]	n/a	FR1	0	R1332M
1147.739	0.771	1149723	WORD_OFF	n/a	n/a	TAIL	3	7	[0, 0, 0]	n/a	FR1	0	R1332M
1148.51	1.63	1150494	WORD	n/a	n/a	ARM	4	7	[0, 0, 0]	n/a	FR1	0	R1332M
1150.14	0.764	1152124	WORD_OFF	n/a	n/a	ARM	4	7	[0, 0, 0]	n/a	FR1	0	R1332M
1150.904	1.636	1152888	WORD	n/a	n/a	HEN	5	7	[0, 0, 0]	n/a	FR1	0	R1332M
1152.54	0.934	1154524	WORD_OFF	n/a	n/a	HEN	5	7	[0, 0, 0]	n/a	FR1	0	R1332M
1153.474	1.634	1155458	WORD	n/a	n/a	FRUIT	6	7	[0, 0, 0]	n/a	FR1	0	R1332M
1155.108	0.808	1157092	WORD_OFF	n/a	n/a	FRUIT	6	7	[0, 0, 0]	n/a	FR1	0	R1332M
1155.916	1.625	1157900	WORD	n/a	n/a	POLE	7	7	[0, 0, 0]	n/a	FR1	0	R1332M
1157.541	0.99	1159525	WORD_OFF	n/a	n/a	POLE	7	7	[0, 0, 0]	n/a	FR1	0	R1332M
1158.531	1.611	1160515	WORD	n/a	n/a	WALL	8	7	[0, 0, 0]	n/a	FR1	0	R1332M
1160.142	1.148	1162126	WORD_OFF	n/a	n/a	WALL	8	7	[0, 0, 0]	n/a	FR1	0	R1332M
1161.29	1.636	1163274	WORD	n/a	n/a	ANT	9	7	[0, 0, 0]	n/a	FR1	0	R1332M
1162.926	0.916	1164910	WORD_OFF	n/a	n/a	ANT	9	7	[0, 0, 0]	n/a	FR1	0	R1332M
1163.842	1.635	1165826	WORD	n/a	n/a	TEA	10	7	[0, 0, 0]	n/a	FR1	0	R1332M
1165.477	0.794	1167460	WORD_OFF	n/a	n/a	TEA	10	7	[0, 0, 0]	n/a	FR1	0	R1332M
1166.271	1.623	1168254	WORD	n/a	n/a	DOCK	11	7	[0, 0, 0]	n/a	FR1	0	R1332M
1167.894	0.791	1169877	WORD_OFF	n/a	n/a	DOCK	11	7	[0, 0, 0]	n/a	FR1	0	R1332M
1168.685	1.626	1170668	WORD	n/a	n/a	SCHOOL	12	7	[0, 0, 0]	n/a	FR1	0	R1332M
1170.311	0.0	1172294	ENCODING_END	n/a	n/a	n/a	-999	7	[0, 0, 0]	n/a	FR1	0	R1332M
1170.311	0.001	1172294	WORD_OFF	n/a	n/a	SCHOOL	12	7	[0, 0, 0]	n/a	FR1	0	R1332M
1170.312	0.0	1172295	DISTRACT_START	n/a	n/a	n/a	-999	7	[0, 0, 0]	n/a	FR1	0	R1332M
1170.312	0.015	1172295	START	n/a	n/a	n/a	-999	7	[-999, -999, -999]	n/a	FR1	0	R1332M
1170.327	2.768	1172310	PROB	2.768	n/a	n/a	-999	7	[9, 4, 7]	20	FR1	0	R1332M
1173.095	2.85	1175078	PROB	2.85	n/a	n/a	-999	7	[9, 8, 2]	1	FR1	0	R1332M
1175.945	4.201	1177928	PROB	4.201	n/a	n/a	-999	7	[3, 4, 4]	11	FR1	0	R1332M
1180.146	2.817	1182129	PROB	2.817	n/a	n/a	-999	7	[8, 9, 1]	18	FR1	0	R1332M
1182.963	2.833	1184946	PROB	2.833	n/a	n/a	-999	7	[3, 2, 3]	8	FR1	0	R1332M
1185.796	2.867	1187779	PROB	2.867	n/a	n/a	-999	7	[8, 5, 6]	19	FR1	0	R1332M
1188.663	2.543	1190645	PROB	2.543	n/a	n/a	-999	7	[7, 5, 6]	18	FR1	0	R1332M
1191.206	0.009	1193188	STOP	n/a	n/a	n/a	-999	7	[-999, -999, -999]	n/a	FR1	0	R1332M
1191.215	0.631	1193197	DISTRACT_END	n/a	n/a	n/a	-999	7	[0, 0, 0]	n/a	FR1	0	R1332M
1191.846	1.569	1193828	RETRIEVAL_ORIENT_START	n/a	n/a	n/a	-999	7	[0, 0, 0]	n/a	FR1	0	R1332M
1193.415	0.0	1195397	RETRIEVAL_ORIENT_END	n/a	n/a	n/a	-999	7	[0, 0, 0]	n/a	FR1	0	R1332M
1193.415	0.745	1195397	REC_START	n/a	n/a	n/a	-999	7	[0, 0, 0]	n/a	FR1	0	R1332M
1194.16	1.151	1196142	REC_WORD	1.151	n/a	FROG	1	7	[0, 0, 0]	n/a	FR1	0	R1332M
1195.311	0.792	1197293	REC_WORD	0.792	n/a	ANT	9	7	[0, 0, 0]	n/a	FR1	0	R1332M
1196.103	5.705	1198085	REC_WORD	5.705	n/a	TAIL	3	7	[0, 0, 0]	n/a	FR1	0	R1332M
1201.808	7.47	1203790	REC_WORD	7.47	n/a	ARM	4	7	[0, 0, 0]	n/a	FR1	0	R1332M
1209.278	14.147	1211259	REC_WORD	14.147	n/a	BOOT	2	7	[0, 0, 0]	n/a	FR1	0	R1332M
1223.425	0.0	1225406	REC_END	n/a	n/a	n/a	-999	7	[0, 0, 0]	n/a	FR1	0	R1332M
1223.425	0.014	1225406	TRIAL_END	n/a	n/a	n/a	-999	7	[0, 0, 0]	n/a	FR1	0	R1332M
1223.439	0.0	1225420	TRIAL_START	n/a	n/a	n/a	-999	8	[0, 0, 0]	n/a	FR1	0	R1332M
1223.439	0.0	1225420	TRIAL	n/a	n/a	n/a	-999	8	[0, 0, 0]	n/a	FR1	0	R1332M
1223.439	4.016	1225420	WAITING_START	n/a	n/a	n/a	-999	8	[0, 0, 0]	n/a	FR1	0	R1332M
1227.455	0.001	1229436	WAITING_END	n/a	n/a	n/a	-999	8	[0, 0, 0]	n/a	FR1	0	R1332M
1227.456	10.43	1229437	COUNTDOWN_START	n/a	n/a	n/a	-999	8	[0, 0, 0]	n/a	FR1	0	R1332M
1237.886	0.0	1239866	COUNTDOWN_END	n/a	n/a	n/a	-999	8	[0, 0, 0]	n/a	FR1	0	R1332M
1237.886	1.171	1239866	ORIENT_START	n/a	n/a	n/a	-999	8	[0, 0, 0]	n/a	FR1	0	R1332M
1239.057	0.001	1241037	ORIENT_END	n/a	n/a	n/a	-999	8	[0, 0, 0]	n/a	FR1	0	R1332M
1239.058	1.036	1241038	ENCODING_START	n/a	n/a	n/a	-999	8	[0, 0, 0]	n/a	FR1	0	R1332M
1240.094	1.63	1242074	WORD	n/a	n/a	STRAW	1	8	[0, 0, 0]	n/a	FR1	0	R1332M
1241.724	0.774	1243704	WORD_OFF	n/a	n/a	STRAW	1	8	[0, 0, 0]	n/a	FR1	0	R1332M
1242.498	1.627	1244478	WORD	n/a	n/a	FISH	2	8	[0, 0, 0]	n/a	FR1	0	R1332M
1244.125	0.981	1246105	WORD_OFF	n/a	n/a	FISH	2	8	[0, 0, 0]	n/a	FR1	0	R1332M
1245.106	1.635	1247086	WORD	n/a	n/a	WHEEL	3	8	[0, 0, 0]	n/a	FR1	0	R1332M
1246.741	0.768	1248721	WORD_OFF	n/a	n/a	WHEEL	3	8	[0, 0, 0]	n/a	FR1	0	R1332M
1247.509	1.634	1249489	WORD	n/a	n/a	CASH	4	8	[0, 0, 0]	n/a	FR1	0	R1332M
1249.143	0.793	1251123	WORD_OFF	n/a	n/a	CASH	4	8	[0, 0, 0]	n/a	FR1	0	R1332M
1249.936	1.623	1251916	WORD	n/a	n/a	BAG	5	8	[0, 0, 0]	n/a	FR1	0	R1332M
1251.559	0.753	1253538	WORD_OFF	n/a	n/a	BAG	5	8	[0, 0, 0]	n/a	FR1	0	R1332M
1252.312	1.632	1254291	WORD	n/a	n/a	BEAN	6	8	[0, 0, 0]	n/a	FR1	0	R1332M
1253.944	0.758	1255923	WORD_OFF	n/a	n/a	BEAN	6	8	[0, 0, 0]	n/a	FR1	0	R1332M
1254.702	1.609	1256681	WORD	n/a	n/a	HILL	7	8	[0, 0, 0]	n/a	FR1	0	R1332M
1256.311	0.893	1258290	WORD_OFF	n/a	n/a	HILL	7	8	[0, 0, 0]	n/a	FR1	0	R1332M
1257.204	1.624	1259183	WORD	n/a	n/a	STRING	8	8	[0, 0, 0]	n/a	FR1	0	R1332M
1258.828	0.996	1260807	WORD_OFF	n/a	n/a	STRING	8	8	[0, 0, 0]	n/a	FR1	0	R1332M
1259.824	1.638	1261803	WORD	n/a	n/a	BOAT	9	8	[0, 0, 0]	n/a	FR1	0	R1332M
1261.462	0.982	1263441	WORD_OFF	n/a	n/a	BOAT	9	8	[0, 0, 0]	n/a	FR1	0	R1332M
1262.444	1.635	1264423	WORD	n/a	n/a	PIN	10	8	[0, 0, 0]	n/a	FR1	0	R1332M
1264.079	0.998	1266058	WORD_OFF	n/a	n/a	PIN	10	8	[0, 0, 0]	n/a	FR1	0	R1332M
1265.077	1.635	1267056	WORD	n/a	n/a	HOOK	11	8	[0, 0, 0]	n/a	FR1	0	R1332M
1266.712	0.973	1268691	WORD_OFF	n/a	n/a	HOOK	11	8	[0, 0, 0]	n/a	FR1	0	R1332M
1267.685	1.628	1269664	WORD	n/a	n/a	SHIP	12	8	[0, 0, 0]	n/a	FR1	0	R1332M
1269.313	0.001	1271292	WORD_OFF	n/a	n/a	SHIP	12	8	[0, 0, 0]	n/a	FR1	0	R1332M
1269.314	0.0	1271293	ENCODING_END	n/a	n/a	n/a	-999	8	[0, 0, 0]	n/a	FR1	0	R1332M
1269.314	0.0	1271293	DISTRACT_START	n/a	n/a	n/a	-999	8	[0, 0, 0]	n/a	FR1	0	R1332M
1269.314	0.016	1271293	START	n/a	n/a	n/a	-999	8	[-999, -999, -999]	n/a	FR1	0	R1332M
1269.33	3.934	1271309	PROB	3.934	n/a	n/a	-999	8	[9, 9, 4]	22	FR1	0	R1332M
1273.264	1.95	1275242	PROB	1.95	n/a	n/a	-999	8	[1, 1, 6]	8	FR1	0	R1332M
1275.214	2.184	1277192	PROB	2.184	n/a	n/a	-999	8	[7, 3, 5]	15	FR1	0	R1332M
1277.398	2.166	1279376	PROB	2.166	n/a	n/a	-999	8	[1, 4, 6]	11	FR1	0	R1332M
1279.564	2.768	1281542	PROB	2.768	n/a	n/a	-999	8	[9, 6, 3]	18	FR1	0	R1332M
1282.332	2.3	1284310	PROB	2.3	n/a	n/a	-999	8	[8, 9, 2]	19	FR1	0	R1332M
1284.632	1.868	1286610	PROB	1.868	n/a	n/a	-999	8	[6, 6, 1]	13	FR1	0	R1332M
1286.5	4.497	1288478	PROB	4.497	n/a	n/a	-999	8	[3, 1, 8]	12	FR1	0	R1332M
1290.997	0.021	1292975	STOP	n/a	n/a	n/a	-999	8	[-999, -999, -999]	n/a	FR1	0	R1332M
1291.018	0.681	1292996	DISTRACT_END	n/a	n/a	n/a	-999	8	[0, 0, 0]	n/a	FR1	0	R1332M
1291.699	1.652	1293677	RETRIEVAL_ORIENT_START	n/a	n/a	n/a	-999	8	[0, 0, 0]	n/a	FR1	0	R1332M
1293.351	0.001	1295328	RETRIEVAL_ORIENT_END	n/a	n/a	n/a	-999	8	[0, 0, 0]	n/a	FR1	0	R1332M
1293.352	0.985	1295329	REC_START	n/a	n/a	n/a	-999	8	[0, 0, 0]	n/a	FR1	0	R1332M
1294.337	1.051	1296314	REC_WORD	1.051	n/a	STRAW	1	8	[0, 0, 0]	n/a	FR1	0	R1332M
1295.388	2.147	1297365	REC_WORD	2.147	n/a	FISH	2	8	[0, 0, 0]	n/a	FR1	0	R1332M
1297.535	1.947	1299512	REC_WORD	1.947	n/a	SHIP	12	8	[0, 0, 0]	n/a	FR1	0	R1332M
1299.482	4.819	1301459	REC_WORD	4.819	n/a	PEN	-999	8	[0, 0, 0]	n/a	FR1	0	R1332M
1304.301	4.58	1306278	REC_WORD	4.58	n/a	WHEEL	3	8	[0, 0, 0]	n/a	FR1	0	R1332M
1308.881	0.965	1310858	REC_WORD_VV	0.965	n/a	<>	-999	8	[0, 0, 0]	n/a	FR1	0	R1332M
1309.846	13.515	1311823	REC_WORD	13.515	n/a	BOAT	9	8	[0, 0, 0]	n/a	FR1	0	R1332M
1323.361	0.0	1325337	TRIAL_END	n/a	n/a	n/a	-999	8	[0, 0, 0]	n/a	FR1	0	R1332M
1323.361	0.016	1325337	REC_END	n/a	n/a	n/a	-999	8	[0, 0, 0]	n/a	FR1	0	R1332M
1323.377	0.0	1325353	TRIAL_START	n/a	n/a	n/a	-999	9	[0, 0, 0]	n/a	FR1	0	R1332M
1323.377	0.0	1325353	TRIAL	n/a	n/a	n/a	-999	9	[0, 0, 0]	n/a	FR1	0	R1332M
1323.377	12.749	1325353	WAITING_START	n/a	n/a	n/a	-999	9	[0, 0, 0]	n/a	FR1	0	R1332M
1336.126	0.001	1338101	WAITING_END	n/a	n/a	n/a	-999	9	[0, 0, 0]	n/a	FR1	0	R1332M
1336.127	10.43	1338102	COUNTDOWN_START	n/a	n/a	n/a	-999	9	[0, 0, 0]	n/a	FR1	0	R1332M
1346.557	0.0	1348532	COUNTDOWN_END	n/a	n/a	n/a	-999	9	[0, 0, 0]	n/a	FR1	0	R1332M
1346.557	1.22	1348532	ORIENT_START	n/a	n/a	n/a	-999	9	[0, 0, 0]	n/a	FR1	0	R1332M
1347.777	0.001	1349752	ORIENT_END	n/a	n/a	n/a	-999	9	[0, 0, 0]	n/a	FR1	0	R1332M
1347.778	0.791	1349753	ENCODING_START	n/a	n/a	n/a	-999	9	[0, 0, 0]	n/a	FR1	0	R1332M
1348.569	1.61	1350544	WORD	n/a	n/a	SHARK	1	9	[0, 0, 0]	n/a	FR1	0	R1332M
1350.179	0.873	1352154	WORD_OFF	n/a	n/a	SHARK	1	9	[0, 0, 0]	n/a	FR1	0	R1332M
1351.052	1.626	1353027	WORD	n/a	n/a	SKUNK	2	9	[0, 0, 0]	n/a	FR1	0	R1332M
1352.678	0.842	1354653	WORD_OFF	n/a	n/a	SKUNK	2	9	[0, 0, 0]	n/a	FR1	0	R1332M
1353.52	1.627	1355495	WORD	n/a	n/a	BANK	3	9	[0, 0, 0]	n/a	FR1	0	R1332M
1355.147	0.785	1357122	WORD_OFF	n/a	n/a	BANK	3	9	[0, 0, 0]	n/a	FR1	0	R1332M
1355.932	1.631	1357907	WORD	n/a	n/a	ELF	4	9	[0, 0, 0]	n/a	FR1	0	R1332M
1357.563	0.986	1359537	WORD_OFF	n/a	n/a	ELF	4	9	[0, 0, 0]	n/a	FR1	0	R1332M
1358.549	1.632	1360523	WORD	n/a	n/a	CART	5	9	[0, 0, 0]	n/a	FR1	0	R1332M
1360.181	0.977	1362155	WORD_OFF	n/a	n/a	CART	5	9	[0, 0, 0]	n/a	FR1	0	R1332M
1361.158	1.622	1363132	WORD	n/a	n/a	LAKE	6	9	[0, 0, 0]	n/a	FR1	0	R1332M
1362.78	1.051	1364754	WORD_OFF	n/a	n/a	LAKE	6	9	[0, 0, 0]	n/a	FR1	0	R1332M
1363.831	1.634	1365805	WORD	n/a	n/a	SLEEVE	7	9	[0, 0, 0]	n/a	FR1	0	R1332M
1365.465	0.939	1367439	WORD_OFF	n/a	n/a	SLEEVE	7	9	[0, 0, 0]	n/a	FR1	0	R1332M
1366.404	1.629	1368378	WORD	n/a	n/a	YARD	8	9	[0, 0, 0]	n/a	FR1	0	R1332M
1368.033	0.985	1370007	WORD_OFF	n/a	n/a	YARD	8	9	[0, 0, 0]	n/a	FR1	0	R1332M
1369.018	1.631	1370992	WORD	n/a	n/a	BOY	9	9	[0, 0, 0]	n/a	FR1	0	R1332M
1370.649	0.97	1372623	WORD_OFF	n/a	n/a	BOY	9	9	[0, 0, 0]	n/a	FR1	0	R1332M
1371.619	1.631	1373593	WORD	n/a	n/a	GOLD	10	9	[0, 0, 0]	n/a	FR1	0	R1332M
1373.25	0.863	1375224	WORD_OFF	n/a	n/a	GOLD	10	9	[0, 0, 0]	n/a	FR1	0	R1332M
1374.113	1.637	1376087	WORD	n/a	n/a	DOLL	11	9	[0, 0, 0]	n/a	FR1	0	R1332M
1375.75	0.945	1377724	WORD_OFF	n/a	n/a	DOLL	11	9	[0, 0, 0]	n/a	FR1	0	R1332M
1376.695	1.623	1378669	WORD	n/a	n/a	CAVE	12	9	[0, 0, 0]	n/a	FR1	0	R1332M
1378.318	0.0	1380291	WORD_OFF	n/a	n/a	CAVE	12	9	[0, 0, 0]	n/a	FR1	0	R1332M
1378.318	0.0	1380291	ENCODING_END	n/a	n/a	n/a	-999	9	[0, 0, 0]	n/a	FR1	0	R1332M
1378.318	0.001	1380291	DISTRACT_START	n/a	n/a	n/a	-999	9	[0, 0, 0]	n/a	FR1	0	R1332M
1378.319	0.015	1380292	START	n/a	n/a	n/a	-999	9	[-999, -999, -999]	n/a	FR1	0	R1332M
1378.334	3.968	1380307	PROB	3.968	n/a	n/a	-999	9	[8, 3, 9]	20	FR1	0	R1332M
1382.302	2.717	1384275	PROB	2.717	n/a	n/a	-999	9	[9, 7, 6]	22	FR1	0	R1332M
1385.019	2.783	1386992	PROB	2.783	n/a	n/a	-999	9	[8, 6, 2]	16	FR1	0	R1332M
1387.802	2.051	1389775	PROB	2.051	n/a	n/a	-999	9	[1, 2, 9]	12	FR1	0	R1332M
1389.853	2.367	1391826	PROB	2.367	n/a	n/a	-999	9	[4, 9, 5]	18	FR1	0	R1332M
1392.22	1.784	1394193	PROB	1.784	n/a	n/a	-999	9	[1, 3, 4]	8	FR1	0	R1332M
1394.004	2.2	1395977	PROB	2.2	n/a	n/a	-999	9	[8, 9, 1]	18	FR1	0	R1332M
1396.204	2.185	1398177	PROB	2.185	n/a	n/a	-999	9	[4, 9, 5]	18	FR1	0	R1332M
1398.389	0.016	1400362	STOP	n/a	n/a	n/a	-999	9	[-999, -999, -999]	n/a	FR1	0	R1332M
1398.405	0.689	1400378	DISTRACT_END	n/a	n/a	n/a	-999	9	[0, 0, 0]	n/a	FR1	0	R1332M
1399.094	1.66	1401067	RETRIEVAL_ORIENT_START	n/a	n/a	n/a	-999	9	[0, 0, 0]	n/a	FR1	0	R1332M
1400.754	0.001	1402726	RETRIEVAL_ORIENT_END	n/a	n/a	n/a	-999	9	[0, 0, 0]	n/a	FR1	0	R1332M
1400.755	0.74	1402727	REC_START	n/a	n/a	n/a	-999	9	[0, 0, 0]	n/a	FR1	0	R1332M
1401.495	0.521	1403467	REC_WORD	0.521	n/a	SHARK	1	9	[0, 0, 0]	n/a	FR1	0	R1332M
1402.016	0.68	1403988	REC_WORD	0.68	n/a	SKUNK	2	9	[0, 0, 0]	n/a	FR1	0	R1332M
1402.696	1.317	1404668	REC_WORD	1.317	n/a	SLEEVE	7	9	[0, 0, 0]	n/a	FR1	0	R1332M
1404.013	8.115	1405985	REC_WORD	8.115	n/a	BOY	9	9	[0, 0, 0]	n/a	FR1	0	R1332M
1412.128	7.298	1414100	REC_WORD	7.298	n/a	GOLD	10	9	[0, 0, 0]	n/a	FR1	0	R1332M
1419.426	11.338	1421398	REC_WORD	11.338	n/a	ELF	4	9	[0, 0, 0]	n/a	FR1	0	R1332M
1430.764	0.001	1432735	REC_END	n/a	n/a	n/a	-999	9	[0, 0, 0]	n/a	FR1	0	R1332M
1430.765	0.013	1432736	TRIAL_END	n/a	n/a	n/a	-999	9	[0, 0, 0]	n/a	FR1	0	R1332M
1430.778	0.001	1432749	TRIAL_START	n/a	n/a	n/a	-999	10	[0, 0, 0]	n/a	FR1	0	R1332M
1430.779	0.0	1432750	TRIAL	n/a	n/a	n/a	-999	10	[0, 0, 0]	n/a	FR1	0	R1332M
1430.779	4.667	1432750	WAITING_START	n/a	n/a	n/a	-999	10	[0, 0, 0]	n/a	FR1	0	R1332M
1435.446	0.0	1437417	WAITING_END	n/a	n/a	n/a	-999	10	[0, 0, 0]	n/a	FR1	0	R1332M
1435.446	10.429	1437417	COUNTDOWN_START	n/a	n/a	n/a	-999	10	[0, 0, 0]	n/a	FR1	0	R1332M
1445.875	0.001	1447845	COUNTDOWN_END	n/a	n/a	n/a	-999	10	[0, 0, 0]	n/a	FR1	0	R1332M
1445.876	1.122	1447846	ORIENT_START	n/a	n/a	n/a	-999	10	[0, 0, 0]	n/a	FR1	0	R1332M
1446.998	0.0	1448968	ORIENT_END	n/a	n/a	n/a	-999	10	[0, 0, 0]	n/a	FR1	0	R1332M
1446.998	1.091	1448968	ENCODING_START	n/a	n/a	n/a	-999	10	[0, 0, 0]	n/a	FR1	0	R1332M
1448.089	1.625	1450059	WORD	n/a	n/a	HOSE	1	10	[0, 0, 0]	n/a	FR1	0	R1332M
1449.714	1.051	1451684	WORD_OFF	n/a	n/a	HOSE	1	10	[0, 0, 0]	n/a	FR1	0	R1332M
1450.765	1.634	1452735	WORD	n/a	n/a	SHRIMP	2	10	[0, 0, 0]	n/a	FR1	0	R1332M
1452.399	0.776	1454369	WORD_OFF	n/a	n/a	SHRIMP	2	10	[0, 0, 0]	n/a	FR1	0	R1332M
1453.175	1.623	1455145	WORD	n/a	n/a	FOAM	3	10	[0, 0, 0]	n/a	FR1	0	R1332M
1454.798	0.955	1456768	WORD_OFF	n/a	n/a	FOAM	3	10	[0, 0, 0]	n/a	FR1	0	R1332M
1455.753	1.613	1457723	WORD	n/a	n/a	KEY	4	10	[0, 0, 0]	n/a	FR1	0	R1332M
1457.366	0.916	1459336	WORD_OFF	n/a	n/a	KEY	4	10	[0, 0, 0]	n/a	FR1	0	R1332M
1458.282	1.635	1460252	WORD	n/a	n/a	TOY	5	10	[0, 0, 0]	n/a	FR1	0	R1332M
1459.917	0.956	1461887	WORD_OFF	n/a	n/a	TOY	5	10	[0, 0, 0]	n/a	FR1	0	R1332M
1460.873	1.628	1462843	WORD	n/a	n/a	SPRING	6	10	[0, 0, 0]	n/a	FR1	0	R1332M
1462.501	0.955	1464471	WORD_OFF	n/a	n/a	SPRING	6	10	[0, 0, 0]	n/a	FR1	0	R1332M
1463.456	1.628	1465425	WORD	n/a	n/a	FLEA	7	10	[0, 0, 0]	n/a	FR1	0	R1332M
1465.084	0.975	1467053	WORD_OFF	n/a	n/a	FLEA	7	10	[0, 0, 0]	n/a	FR1	0	R1332M
1466.059	1.625	1468028	WORD	n/a	n/a	FUDGE	8	10	[0, 0, 0]	n/a	FR1	0	R1332M
1467.684	1.081	1469653	WORD_OFF	n/a	n/a	FUDGE	8	10	[0, 0, 0]	n/a	FR1	0	R1332M
1468.765	1.62	1470734	WORD	n/a	n/a	PRINCE	9	10	[0, 0, 0]	n/a	FR1	0	R1332M
1470.385	1.023	1472354	WORD_OFF	n/a	n/a	PRINCE	9	10	[0, 0, 0]	n/a	FR1	0	R1332M
1471.408	1.628	1473377	WORD	n/a	n/a	TREE	10	10	[0, 0, 0]	n/a	FR1	0	R1332M
1473.036	1.063	1475005	WORD_OFF	n/a	n/a	TREE	10	10	[0, 0, 0]	n/a	FR1	0	R1332M
1474.099	1.62	1476068	WORD	n/a	n/a	EEL	11	10	[0, 0, 0]	n/a	FR1	0	R1332M
1475.719	0.821	1477688	WORD_OFF	n/a	n/a	EEL	11	10	[0, 0, 0]	n/a	FR1	0	R1332M
1476.54	1.614	1478509	WORD	n/a	n/a	PEA	12	10	[0, 0, 0]	n/a	FR1	0	R1332M
1478.154	0.0	1480123	WORD_OFF	n/a	n/a	PEA	12	10	[0, 0, 0]	n/a	FR1	0	R1332M
1478.154	0.0	1480123	ENCODING_END	n/a	n/a	n/a	-999	10	[0, 0, 0]	n/a	FR1	0	R1332M
1478.154	0.001	1480123	DISTRACT_START	n/a	n/a	n/a	-999	10	[0, 0, 0]	n/a	FR1	0	R1332M
1478.155	0.015	1480124	START	n/a	n/a	n/a	-999	10	[-999, -999, -999]	n/a	FR1	0	R1332M
1478.17	2.917	1480139	PROB	2.917	n/a	n/a	-999	10	[5, 4, 7]	16	FR1	0	R1332M
1481.087	2.234	1483056	PROB	2.234	n/a	n/a	-999	10	[9, 6, 2]	17	FR1	0	R1332M
1483.321	2.034	1485290	PROB	2.034	n/a	n/a	-999	10	[6, 6, 6]	18	FR1	0	R1332M
1485.355	2.65	1487323	PROB	2.65	n/a	n/a	-999	10	[9, 8, 3]	20	FR1	0	R1332M
1488.005	1.616	1489973	PROB	1.616	n/a	n/a	-999	10	[1, 9, 2]	12	FR1	0	R1332M
1489.621	1.835	1491589	PROB	1.835	n/a	n/a	-999	10	[9, 1, 2]	12	FR1	0	R1332M
1491.456	2.166	1493424	PROB	2.166	n/a	n/a	-999	10	[5, 6, 3]	14	FR1	0	R1332M
1493.622	2.452	1495590	PROB	2.452	n/a	n/a	-999	10	[7, 9, 5]	21	FR1	0	R1332M
1496.074	3.833	1498042	PROB	3.833	n/a	n/a	-999	10	[6, 5, 3]	14	FR1	0	R1332M
1499.907	0.017	1501875	STOP	n/a	n/a	n/a	-999	10	[-999, -999, -999]	n/a	FR1	0	R1332M
1499.924	0.538	1501892	DISTRACT_END	n/a	n/a	n/a	-999	10	[0, 0, 0]	n/a	FR1	0	R1332M
1500.462	1.646	1502430	RETRIEVAL_ORIENT_START	n/a	n/a	n/a	-999	10	[0, 0, 0]	n/a	FR1	0	R1332M
1502.108	0.001	1504076	RETRIEVAL_ORIENT_END	n/a	n/a	n/a	-999	10	[0, 0, 0]	n/a	FR1	0	R1332M
1502.109	2.807	1504077	REC_START	n/a	n/a	n/a	-999	10	[0, 0, 0]	n/a	FR1	0	R1332M
1504.916	1.952	1506884	REC_WORD	1.952	n/a	HOSE	1	10	[0, 0, 0]	n/a	FR1	0	R1332M
1506.868	5.908	1508835	REC_WORD	5.908	n/a	SKUNK	-999	10	[0, 0, 0]	n/a	FR1	0	R1332M
1512.776	3.838	1514743	REC_WORD_VV	3.838	n/a	<>	-999	10	[0, 0, 0]	n/a	FR1	0	R1332M
1516.614	7.719	1518581	REC_WORD	7.719	n/a	PEA	12	10	[0, 0, 0]	n/a	FR1	0	R1332M
1524.333	7.786	1526300	REC_WORD	7.786	n/a	SHRIMP	2	10	[0, 0, 0]	n/a	FR1	0	R1332M
1532.119	0.001	1534085	REC_END	n/a	n/a	n/a	-999	10	[0, 0, 0]	n/a	FR1	0	R1332M
1532.12	0.016	1534086	TRIAL_END	n/a	n/a	n/a	-999	10	[0, 0, 0]	n/a	FR1	0	R1332M
1532.136	0.0	1534102	TRIAL	n/a	n/a	n/a	-999	11	[0, 0, 0]	n/a	FR1	0	R1332M
1532.136	0.0	1534102	WAITING_START	n/a	n/a	n/a	-999	11	[0, 0, 0]	n/a	FR1	0	R1332M
1532.136	7.13	1534102	TRIAL_START	n/a	n/a	n/a	-999	11	[0, 0, 0]	n/a	FR1	0	R1332M
1539.266	0.0	1541232	WAITING_END	n/a	n/a	n/a	-999	11	[0, 0, 0]	n/a	FR1	0	R1332M
1539.266	10.429	1541232	COUNTDOWN_START	n/a	n/a	n/a	-999	11	[0, 0, 0]	n/a	FR1	0	R1332M
1549.695	0.0	1551660	COUNTDOWN_END	n/a	n/a	n/a	-999	11	[0, 0, 0]	n/a	FR1	0	R1332M
1549.695	1.055	1551660	ORIENT_START	n/a	n/a	n/a	-999	11	[0, 0, 0]	n/a	FR1	0	R1332M
1550.75	0.001	1552715	ORIENT_END	n/a	n/a	n/a	-999	11	[0, 0, 0]	n/a	FR1	0	R1332M
1550.751	0.871	1552716	ENCODING_START	n/a	n/a	n/a	-999	11	[0, 0, 0]	n/a	FR1	0	R1332M
1551.622	1.613	1553587	WORD	n/a	n/a	SUIT	1	11	[0, 0, 0]	n/a	FR1	0	R1332M
1553.235	0.789	1555200	WORD_OFF	n/a	n/a	SUIT	1	11	[0, 0, 0]	n/a	FR1	0	R1332M
1554.024	1.627	1555989	WORD	n/a	n/a	WORLD	2	11	[0, 0, 0]	n/a	FR1	0	R1332M
1555.651	1.091	1557616	WORD_OFF	n/a	n/a	WORLD	2	11	[0, 0, 0]	n/a	FR1	0	R1332M
1556.742	1.627	1558707	WORD	n/a	n/a	FACE	3	11	[0, 0, 0]	n/a	FR1	0	R1332M
1558.369	0.899	1560334	WORD_OFF	n/a	n/a	FACE	3	11	[0, 0, 0]	n/a	FR1	0	R1332M
1559.268	1.635	1561233	WORD	n/a	n/a	POND	4	11	[0, 0, 0]	n/a	FR1	0	R1332M
1560.903	0.901	1562868	WORD_OFF	n/a	n/a	POND	4	11	[0, 0, 0]	n/a	FR1	0	R1332M
1561.804	1.633	1563769	WORD	n/a	n/a	WEB	5	11	[0, 0, 0]	n/a	FR1	0	R1332M
1563.437	1.099	1565402	WORD_OFF	n/a	n/a	WEB	5	11	[0, 0, 0]	n/a	FR1	0	R1332M
1564.536	1.635	1566501	WORD	n/a	n/a	CLIFF	6	11	[0, 0, 0]	n/a	FR1	0	R1332M
1566.171	1.117	1568136	WORD_OFF	n/a	n/a	CLIFF	6	11	[0, 0, 0]	n/a	FR1	0	R1332M
1567.288	1.633	1569253	WORD	n/a	n/a	FUR	7	11	[0, 0, 0]	n/a	FR1	0	R1332M
1568.921	0.925	1570886	WORD_OFF	n/a	n/a	FUR	7	11	[0, 0, 0]	n/a	FR1	0	R1332M
1569.846	1.626	1571810	WORD	n/a	n/a	BOWL	8	11	[0, 0, 0]	n/a	FR1	0	R1332M
1571.472	0.777	1573436	WORD_OFF	n/a	n/a	BOWL	8	11	[0, 0, 0]	n/a	FR1	0	R1332M
1572.249	1.623	1574213	WORD	n/a	n/a	BUSH	9	11	[0, 0, 0]	n/a	FR1	0	R1332M
1573.872	1.048	1575836	WORD_OFF	n/a	n/a	BUSH	9	11	[0, 0, 0]	n/a	FR1	0	R1332M
1574.92	1.635	1576884	WORD	n/a	n/a	HOOF	10	11	[0, 0, 0]	n/a	FR1	0	R1332M
1576.555	0.779	1578519	WORD_OFF	n/a	n/a	HOOF	10	11	[0, 0, 0]	n/a	FR1	0	R1332M
1577.334	1.623	1579298	WORD	n/a	n/a	STOVE	11	11	[0, 0, 0]	n/a	FR1	0	R1332M
1578.957	0.848	1580921	WORD_OFF	n/a	n/a	STOVE	11	11	[0, 0, 0]	n/a	FR1	0	R1332M
1579.805	1.635	1581769	WORD	n/a	n/a	PEAR	12	11	[0, 0, 0]	n/a	FR1	0	R1332M
1581.44	0.001	1583404	WORD_OFF	n/a	n/a	PEAR	12	11	[0, 0, 0]	n/a	FR1	0	R1332M
1581.441	0.0	1583405	ENCODING_END	n/a	n/a	n/a	-999	11	[0, 0, 0]	n/a	FR1	0	R1332M
1581.441	0.0	1583405	DISTRACT_START	n/a	n/a	n/a	-999	11	[0, 0, 0]	n/a	FR1	0	R1332M
1581.441	0.016	1583405	START	n/a	n/a	n/a	-999	11	[-999, -999, -999]	n/a	FR1	0	R1332M
1581.457	2.767	1583421	PROB	2.767	n/a	n/a	-999	11	[6, 5, 9]	20	FR1	0	R1332M
1584.224	1.917	1586188	PROB	1.917	n/a	n/a	-999	11	[9, 9, 3]	21	FR1	0	R1332M
1586.141	3.134	1588105	PROB	3.134	n/a	n/a	-999	11	[9, 4, 8]	21	FR1	0	R1332M
1589.275	3.051	1591239	PROB	3.051	n/a	n/a	-999	11	[8, 6, 6]	20	FR1	0	R1332M
1592.326	3.183	1594289	PROB	3.183	n/a	n/a	-999	11	[8, 5, 9]	22	FR1	0	R1332M
1595.509	1.884	1597472	PROB	1.884	n/a	n/a	-999	11	[4, 2, 1]	7	FR1	0	R1332M
1597.393	2.3	1599356	PROB	2.3	n/a	n/a	-999	11	[6, 4, 5]	15	FR1	0	R1332M
1599.693	2.595	1601656	PROB	2.595	n/a	n/a	-999	11	[3, 7, 3]	13	FR1	0	R1332M
1602.288	0.006	1604251	STOP	n/a	n/a	n/a	-999	11	[-999, -999, -999]	n/a	FR1	0	R1332M
1602.294	0.629	1604257	DISTRACT_END	n/a	n/a	n/a	-999	11	[0, 0, 0]	n/a	FR1	0	R1332M
1602.923	1.687	1604886	RETRIEVAL_ORIENT_START	n/a	n/a	n/a	-999	11	[0, 0, 0]	n/a	FR1	0	R1332M
1604.61	0.001	1606573	RETRIEVAL_ORIENT_END	n/a	n/a	n/a	-999	11	[0, 0, 0]	n/a	FR1	0	R1332M
1604.611	0.716	1606574	REC_START	n/a	n/a	n/a	-999	11	[0, 0, 0]	n/a	FR1	0	R1332M
1605.327	0.403	1607290	REC_WORD_VV	0.403	n/a	<>	-999	11	[0, 0, 0]	n/a	FR1	0	R1332M
1605.73	1.792	1607693	REC_WORD	1.792	n/a	FACE	3	11	[0, 0, 0]	n/a	FR1	0	R1332M
1607.522	6.657	1609485	REC_WORD	6.657	n/a	WORLD	2	11	[0, 0, 0]	n/a	FR1	0	R1332M
1614.179	6.715	1616141	REC_WORD	6.715	n/a	POND	4	11	[0, 0, 0]	n/a	FR1	0	R1332M
1620.894	7.038	1622856	REC_WORD	7.038	n/a	HOOF	10	11	[0, 0, 0]	n/a	FR1	0	R1332M
1627.932	1.027	1629894	REC_WORD_VV	1.027	n/a	<>	-999	11	[0, 0, 0]	n/a	FR1	0	R1332M
1628.959	2.136	1630921	REC_WORD_VV	2.136	n/a	<>	-999	11	[0, 0, 0]	n/a	FR1	0	R1332M
1631.095	1.508	1633057	REC_WORD	1.508	n/a	POND	4	11	[0, 0, 0]	n/a	FR1	0	R1332M
1632.603	2.017	1634565	REC_WORD	2.017	n/a	WEB	5	11	[0, 0, 0]	n/a	FR1	0	R1332M
1634.62	0.001	1636581	REC_END	n/a	n/a	n/a	-999	11	[0, 0, 0]	n/a	FR1	0	R1332M
1634.621	0.014	1636582	TRIAL_END	n/a	n/a	n/a	-999	11	[0, 0, 0]	n/a	FR1	0	R1332M
1634.635	0.0	1636596	WAITING_START	n/a	n/a	n/a	-999	12	[0, 0, 0]	n/a	FR1	0	R1332M
1634.635	0.0	1636596	TRIAL	n/a	n/a	n/a	-999	12	[0, 0, 0]	n/a	FR1	0	R1332M
1634.635	4.567	1636596	TRIAL_START	n/a	n/a	n/a	-999	12	[0, 0, 0]	n/a	FR1	0	R1332M
1639.202	0.0	1641163	WAITING_END	n/a	n/a	n/a	-999	12	[0, 0, 0]	n/a	FR1	0	R1332M
1639.202	10.429	1641163	COUNTDOWN_START	n/a	n/a	n/a	-999	12	[0, 0, 0]	n/a	FR1	0	R1332M
1649.631	0.001	1651592	COUNTDOWN_END	n/a	n/a	n/a	-999	12	[0, 0, 0]	n/a	FR1	0	R1332M
1649.632	1.137	1651593	ORIENT_START	n/a	n/a	n/a	-999	12	[0, 0, 0]	n/a	FR1	0	R1332M
1650.769	0.001	1652730	ORIENT_END	n/a	n/a	n/a	-999	12	[0, 0, 0]	n/a	FR1	0	R1332M
1650.77	0.9	1652731	ENCODING_START	n/a	n/a	n/a	-999	12	[0, 0, 0]	n/a	FR1	0	R1332M
1651.67	1.634	1653631	WORD	n/a	n/a	STOOL	1	12	[0, 0, 0]	n/a	FR1	0	R1332M
1653.304	0.864	1655265	WORD_OFF	n/a	n/a	STOOL	1	12	[0, 0, 0]	n/a	FR1	0	R1332M
1654.168	1.636	1656129	WORD	n/a	n/a	VAN	2	12	[0, 0, 0]	n/a	FR1	0	R1332M
1655.804	0.86	1657764	WORD_OFF	n/a	n/a	VAN	2	12	[0, 0, 0]	n/a	FR1	0	R1332M
1656.664	1.608	1658624	WORD	n/a	n/a	BEAK	3	12	[0, 0, 0]	n/a	FR1	0	R1332M
1658.272	1.094	1660232	WORD_OFF	n/a	n/a	BEAK	3	12	[0, 0, 0]	n/a	FR1	0	R1332M
1659.366	1.623	1661326	WORD	n/a	n/a	CHIEF	4	12	[0, 0, 0]	n/a	FR1	0	R1332M
1660.989	0.789	1662949	WORD_OFF	n/a	n/a	CHIEF	4	12	[0, 0, 0]	n/a	FR1	0	R1332M
1661.778	1.628	1663738	WORD	n/a	n/a	BAND	5	12	[0, 0, 0]	n/a	FR1	0	R1332M
1663.406	1.061	1665366	WORD_OFF	n/a	n/a	BAND	5	12	[0, 0, 0]	n/a	FR1	0	R1332M
1664.467	1.623	1666427	WORD	n/a	n/a	BRUSH	6	12	[0, 0, 0]	n/a	FR1	0	R1332M
1666.09	1.042	1668050	WORD_OFF	n/a	n/a	BRUSH	6	12	[0, 0, 0]	n/a	FR1	0	R1332M
1667.132	1.624	1669092	WORD	n/a	n/a	MILK	7	12	[0, 0, 0]	n/a	FR1	0	R1332M
1668.756	0.892	1670716	WORD_OFF	n/a	n/a	MILK	7	12	[0, 0, 0]	n/a	FR1	0	R1332M
1669.648	1.61	1671608	WORD	n/a	n/a	BOARD	8	12	[0, 0, 0]	n/a	FR1	0	R1332M
1671.258	0.872	1673218	WORD_OFF	n/a	n/a	BOARD	8	12	[0, 0, 0]	n/a	FR1	0	R1332M
1672.13	1.627	1674090	WORD	n/a	n/a	WING	9	12	[0, 0, 0]	n/a	FR1	0	R1332M
1673.757	0.89	1675717	WORD_OFF	n/a	n/a	WING	9	12	[0, 0, 0]	n/a	FR1	0	R1332M
1674.647	1.612	1676607	WORD	n/a	n/a	CLOWN	10	12	[0, 0, 0]	n/a	FR1	0	R1332M
1676.259	0.753	1678218	WORD_OFF	n/a	n/a	CLOWN	10	12	[0, 0, 0]	n/a	FR1	0	R1332M
1677.012	1.629	1678971	WORD	n/a	n/a	AXE	11	12	[0, 0, 0]	n/a	FR1	0	R1332M
1678.641	0.824	1680600	WORD_OFF	n/a	n/a	AXE	11	12	[0, 0, 0]	n/a	FR1	0	R1332M
1679.465	1.628	1681424	WORD	n/a	n/a	MOON	12	12	[0, 0, 0]	n/a	FR1	0	R1332M
1681.093	0.0	1683052	WORD_OFF	n/a	n/a	MOON	12	12	[0, 0, 0]	n/a	FR1	0	R1332M
1681.093	0.001	1683052	ENCODING_END	n/a	n/a	n/a	-999	12	[0, 0, 0]	n/a	FR1	0	R1332M
1681.094	0.0	1683053	DISTRACT_START	n/a	n/a	n/a	-999	12	[0, 0, 0]	n/a	FR1	0	R1332M
1681.094	0.015	1683053	START	n/a	n/a	n/a	-999	12	[-999, -999, -999]	n/a	FR1	0	R1332M
1681.109	3.034	1683068	PROB	3.034	n/a	n/a	-999	12	[2, 1, 6]	9	FR1	0	R1332M
1684.143	2.433	1686102	PROB	2.433	n/a	n/a	-999	12	[2, 2, 9]	13	FR1	0	R1332M
1686.576	2.302	1688535	PROB	2.302	n/a	n/a	-999	12	[6, 8, 2]	16	FR1	0	R1332M
1688.878	2.15	1690837	PROB	2.15	n/a	n/a	-999	12	[1, 9, 7]	17	FR1	0	R1332M
1691.028	2.084	1692987	PROB	2.084	n/a	n/a	-999	12	[2, 8, 7]	17	FR1	0	R1332M
1693.112	2.35	1695071	PROB	2.35	n/a	n/a	-999	12	[6, 8, 4]	18	FR1	0	R1332M
1695.462	1.617	1697421	PROB	1.617	n/a	n/a	-999	12	[4, 1, 7]	12	FR1	0	R1332M
1697.079	1.45	1699037	PROB	1.45	n/a	n/a	-999	12	[1, 9, 3]	13	FR1	0	R1332M
1698.529	1.901	1700487	PROB	1.901	n/a	n/a	-999	12	[2, 5, 2]	9	FR1	0	R1332M
1700.43	2.508	1702388	PROB	2.508	n/a	n/a	-999	12	[2, 6, 3]	11	FR1	0	R1332M
1702.938	0.009	1704896	STOP	n/a	n/a	n/a	-999	12	[-999, -999, -999]	n/a	FR1	0	R1332M
1702.947	0.517	1704905	DISTRACT_END	n/a	n/a	n/a	-999	12	[0, 0, 0]	n/a	FR1	0	R1332M
1703.464	1.55	1705422	RETRIEVAL_ORIENT_START	n/a	n/a	n/a	-999	12	[0, 0, 0]	n/a	FR1	0	R1332M
1705.014	0.001	1706972	RETRIEVAL_ORIENT_END	n/a	n/a	n/a	-999	12	[0, 0, 0]	n/a	FR1	0	R1332M
1705.015	0.199	1706973	REC_START	n/a	n/a	n/a	-999	12	[0, 0, 0]	n/a	FR1	0	R1332M
1705.214	0.541	1707172	REC_WORD_VV	0.541	n/a	<>	-999	12	[0, 0, 0]	n/a	FR1	0	R1332M
1705.755	2.936	1707713	REC_WORD	2.936	n/a	BRUSH	6	12	[0, 0, 0]	n/a	FR1	0	R1332M
1708.691	3.573	1710649	REC_WORD	3.573	n/a	BANK	-999	12	[0, 0, 0]	n/a	FR1	0	R1332M
1712.264	0.561	1714222	REC_WORD	0.561	n/a	STOOL	1	12	[0, 0, 0]	n/a	FR1	0	R1332M
1712.825	22.201	1714783	REC_WORD	22.201	n/a	VAN	2	12	[0, 0, 0]	n/a	FR1	0	R1332M
1735.026	0.001	1736983	REC_END	n/a	n/a	n/a	-999	12	[0, 0, 0]	n/a	FR1	0	R1332M
1735.027	0.014	1736984	TRIAL_END	n/a	n/a	n/a	-999	12	[0, 0, 0]	n/a	FR1	0	R1332M
1735.041	0.0	1736998	TRIAL_START	n/a	n/a	n/a	-999	13	[0, 0, 0]	n/a	FR1	0	R1332M
1735.041	0.0	1736998	TRIAL	n/a	n/a	n/a	-999	13	[0, 0, 0]	n/a	FR1	0	R1332M
1735.041	6.529	1736998	WAITING_START	n/a	n/a	n/a	-999	13	[0, 0, 0]	n/a	FR1	0	R1332M
1741.57	0.001	1743526	WAITING_END	n/a	n/a	n/a	-999	13	[0, 0, 0]	n/a	FR1	0	R1332M
1741.571	10.429	1743527	COUNTDOWN_START	n/a	n/a	n/a	-999	13	[0, 0, 0]	n/a	FR1	0	R1332M
1752.0	0.001	1753956	COUNTDOWN_END	n/a	n/a	n/a	-999	13	[0, 0, 0]	n/a	FR1	0	R1332M
1752.001	1.189	1753957	ORIENT_START	n/a	n/a	n/a	-999	13	[0, 0, 0]	n/a	FR1	0	R1332M
1753.19	0.001	1755146	ORIENT_END	n/a	n/a	n/a	-999	13	[0, 0, 0]	n/a	FR1	0	R1332M
1753.191	0.856	1755147	ENCODING_START	n/a	n/a	n/a	-999	13	[0, 0, 0]	n/a	FR1	0	R1332M
1754.047	1.626	1756003	WORD	n/a	n/a	DRESS	1	13	[0, 0, 0]	n/a	FR1	0	R1332M
1755.673	0.896	1757629	WORD_OFF	n/a	n/a	DRESS	1	13	[0, 0, 0]	n/a	FR1	0	R1332M
1756.569	1.639	1758525	WORD	n/a	n/a	FARM	2	13	[0, 0, 0]	n/a	FR1	0	R1332M
1758.208	1.114	1760164	WORD_OFF	n/a	n/a	FARM	2	13	[0, 0, 0]	n/a	FR1	0	R1332M
1759.322	1.636	1761278	WORD	n/a	n/a	NET	3	13	[0, 0, 0]	n/a	FR1	0	R1332M
1760.958	1.087	1762913	WORD_OFF	n/a	n/a	NET	3	13	[0, 0, 0]	n/a	FR1	0	R1332M
1762.045	1.629	1764000	WORD	n/a	n/a	CORN	4	13	[0, 0, 0]	n/a	FR1	0	R1332M
1763.674	0.98	1765629	WORD_OFF	n/a	n/a	CORN	4	13	[0, 0, 0]	n/a	FR1	0	R1332M
1764.654	1.639	1766609	WORD	n/a	n/a	CONE	5	13	[0, 0, 0]	n/a	FR1	0	R1332M
1766.293	1.036	1768248	WORD_OFF	n/a	n/a	CONE	5	13	[0, 0, 0]	n/a	FR1	0	R1332M
1767.329	1.631	1769284	WORD	n/a	n/a	PLANE	6	13	[0, 0, 0]	n/a	FR1	0	R1332M
1768.96	0.832	1770915	WORD_OFF	n/a	n/a	PLANE	6	13	[0, 0, 0]	n/a	FR1	0	R1332M
1769.792	1.635	1771747	WORD	n/a	n/a	PIG	7	13	[0, 0, 0]	n/a	FR1	0	R1332M
1771.427	1.092	1773382	WORD_OFF	n/a	n/a	PIG	7	13	[0, 0, 0]	n/a	FR1	0	R1332M
1772.519	1.625	1774474	WORD	n/a	n/a	BIRD	8	13	[0, 0, 0]	n/a	FR1	0	R1332M
1774.144	0.761	1776099	WORD_OFF	n/a	n/a	BIRD	8	13	[0, 0, 0]	n/a	FR1	0	R1332M
1774.905	1.623	1776860	WORD	n/a	n/a	ROPE	9	13	[0, 0, 0]	n/a	FR1	0	R1332M
1776.528	1.094	1778483	WORD_OFF	n/a	n/a	ROPE	9	13	[0, 0, 0]	n/a	FR1	0	R1332M
1777.622	1.64	1779577	WORD	n/a	n/a	SWAMP	10	13	[0, 0, 0]	n/a	FR1	0	R1332M
1779.262	0.922	1781217	WORD_OFF	n/a	n/a	SWAMP	10	13	[0, 0, 0]	n/a	FR1	0	R1332M
1780.184	1.627	1782139	WORD	n/a	n/a	MAIL	11	13	[0, 0, 0]	n/a	FR1	0	R1332M
1781.811	0.966	1783765	WORD_OFF	n/a	n/a	MAIL	11	13	[0, 0, 0]	n/a	FR1	0	R1332M
1782.777	1.636	1784731	WORD	n/a	n/a	SALT	12	13	[0, 0, 0]	n/a	FR1	0	R1332M
1784.413	0.001	1786367	WORD_OFF	n/a	n/a	SALT	12	13	[0, 0, 0]	n/a	FR1	0	R1332M
1784.414	0.0	1786368	DISTRACT_START	n/a	n/a	n/a	-999	13	[0, 0, 0]	n/a	FR1	0	R1332M
1784.414	0.0	1786368	ENCODING_END	n/a	n/a	n/a	-999	13	[0, 0, 0]	n/a	FR1	0	R1332M
1784.414	0.015	1786368	START	n/a	n/a	n/a	-999	13	[-999, -999, -999]	n/a	FR1	0	R1332M
1784.429	3.068	1786383	PROB	3.068	n/a	n/a	-999	13	[4, 9, 1]	14	FR1	0	R1332M
1787.497	1.617	1789451	PROB	1.617	n/a	n/a	-999	13	[1, 1, 3]	5	FR1	0	R1332M
1789.114	2.4	1791068	PROB	2.4	n/a	n/a	-999	13	[6, 5, 7]	18	FR1	0	R1332M
1791.514	1.534	1793468	PROB	1.534	n/a	n/a	-999	13	[4, 2, 5]	11	FR1	0	R1332M
1793.048	1.85	1795002	PROB	1.85	n/a	n/a	-999	13	[2, 5, 1]	8	FR1	0	R1332M
1794.898	2.15	1796852	PROB	2.15	n/a	n/a	-999	13	[5, 4, 6]	15	FR1	0	R1332M
1797.048	2.268	1799002	PROB	2.268	n/a	n/a	-999	13	[6, 8, 7]	21	FR1	0	R1332M
1799.316	2.15	1801270	PROB	2.15	n/a	n/a	-999	13	[2, 4, 4]	8	FR1	0	R1332M
1801.466	2.939	1803420	PROB	2.939	n/a	n/a	-999	13	[2, 6, 3]	11	FR1	0	R1332M
1804.405	0.012	1806358	STOP	n/a	n/a	n/a	-999	13	[-999, -999, -999]	n/a	FR1	0	R1332M
1804.417	0.663	1806370	DISTRACT_END	n/a	n/a	n/a	-999	13	[0, 0, 0]	n/a	FR1	0	R1332M
1805.08	1.553	1807033	RETRIEVAL_ORIENT_START	n/a	n/a	n/a	-999	13	[0, 0, 0]	n/a	FR1	0	R1332M
1806.633	0.0	1808586	RETRIEVAL_ORIENT_END	n/a	n/a	n/a	-999	13	[0, 0, 0]	n/a	FR1	0	R1332M
1806.633	0.091	1808586	REC_START	n/a	n/a	n/a	-999	13	[0, 0, 0]	n/a	FR1	0	R1332M
1806.724	1.438	1808677	REC_WORD_VV	1.438	n/a	<>	-999	13	[0, 0, 0]	n/a	FR1	0	R1332M
1808.162	0.565	1810115	REC_WORD	0.565	n/a	SWAMP	10	13	[0, 0, 0]	n/a	FR1	0	R1332M
1808.727	0.732	1810680	REC_WORD	0.732	n/a	FARM	2	13	[0, 0, 0]	n/a	FR1	0	R1332M
1809.459	1.113	1811412	REC_WORD	1.113	n/a	CONE	5	13	[0, 0, 0]	n/a	FR1	0	R1332M
1810.572	0.157	1812525	REC_WORD_VV	0.157	n/a	<>	-999	13	[0, 0, 0]	n/a	FR1	0	R1332M
1810.729	1.773	1812682	REC_WORD	1.773	n/a	CORN	4	13	[0, 0, 0]	n/a	FR1	0	R1332M
1812.502	10.324	1814455	REC_WORD_VV	10.324	n/a	<>	-999	13	[0, 0, 0]	n/a	FR1	0	R1332M
1822.826	13.818	1824779	REC_WORD	13.818	n/a	MAIL	11	13	[0, 0, 0]	n/a	FR1	0	R1332M
1836.644	0.0	1838596	REC_END	n/a	n/a	n/a	-999	13	[0, 0, 0]	n/a	FR1	0	R1332M
1836.644	0.017	1838596	TRIAL_END	n/a	n/a	n/a	-999	13	[0, 0, 0]	n/a	FR1	0	R1332M
1836.661	0.0	1838613	TRIAL_START	n/a	n/a	n/a	-999	14	[0, 0, 0]	n/a	FR1	0	R1332M
1836.661	0.0	1838613	TRIAL	n/a	n/a	n/a	-999	14	[0, 0, 0]	n/a	FR1	0	R1332M
1836.661	5.012	1838613	WAITING_START	n/a	n/a	n/a	-999	14	[0, 0, 0]	n/a	FR1	0	R1332M
1841.673	0.0	1843625	COUNTDOWN_START	n/a	n/a	n/a	-999	14	[0, 0, 0]	n/a	FR1	0	R1332M
1841.673	10.43	1843625	WAITING_END	n/a	n/a	n/a	-999	14	[0, 0, 0]	n/a	FR1	0	R1332M
1852.103	0.001	1854054	COUNTDOWN_END	n/a	n/a	n/a	-999	14	[0, 0, 0]	n/a	FR1	0	R1332M
1852.104	1.022	1854055	ORIENT_START	n/a	n/a	n/a	-999	14	[0, 0, 0]	n/a	FR1	0	R1332M
1853.126	0.001	1855077	ORIENT_END	n/a	n/a	n/a	-999	14	[0, 0, 0]	n/a	FR1	0	R1332M
1853.127	0.931	1855078	ENCODING_START	n/a	n/a	n/a	-999	14	[0, 0, 0]	n/a	FR1	0	R1332M
1854.058	1.634	1856009	WORD	n/a	n/a	MOTH	1	14	[0, 0, 0]	n/a	FR1	0	R1332M
1855.692	0.892	1857643	WORD_OFF	n/a	n/a	MOTH	1	14	[0, 0, 0]	n/a	FR1	0	R1332M
1856.584	1.61	1858535	WORD	n/a	n/a	RIB	2	14	[0, 0, 0]	n/a	FR1	0	R1332M
1858.194	0.892	1860145	WORD_OFF	n/a	n/a	RIB	2	14	[0, 0, 0]	n/a	FR1	0	R1332M
1859.086	1.624	1861037	WORD	n/a	n/a	TENT	3	14	[0, 0, 0]	n/a	FR1	0	R1332M
1860.71	0.945	1862661	WORD_OFF	n/a	n/a	TENT	3	14	[0, 0, 0]	n/a	FR1	0	R1332M
1861.655	1.623	1863606	WORD	n/a	n/a	GEESE	4	14	[0, 0, 0]	n/a	FR1	0	R1332M
1863.278	1.149	1865229	WORD_OFF	n/a	n/a	GEESE	4	14	[0, 0, 0]	n/a	FR1	0	R1332M
1864.427	1.635	1866378	WORD	n/a	n/a	RICE	5	14	[0, 0, 0]	n/a	FR1	0	R1332M
1866.062	1.085	1868013	WORD_OFF	n/a	n/a	RICE	5	14	[0, 0, 0]	n/a	FR1	0	R1332M
1867.147	1.631	1869097	WORD	n/a	n/a	CAT	6	14	[0, 0, 0]	n/a	FR1	0	R1332M
1868.778	0.824	1870728	WORD_OFF	n/a	n/a	CAT	6	14	[0, 0, 0]	n/a	FR1	0	R1332M
1869.602	1.611	1871552	WORD	n/a	n/a	FOG	7	14	[0, 0, 0]	n/a	FR1	0	R1332M
1871.213	1.088	1873163	WORD_OFF	n/a	n/a	FOG	7	14	[0, 0, 0]	n/a	FR1	0	R1332M
1872.301	1.629	1874251	WORD	n/a	n/a	ZOO	8	14	[0, 0, 0]	n/a	FR1	0	R1332M
1873.93	0.911	1875880	WORD_OFF	n/a	n/a	ZOO	8	14	[0, 0, 0]	n/a	FR1	0	R1332M
1874.841	1.623	1876791	WORD	n/a	n/a	HORN	9	14	[0, 0, 0]	n/a	FR1	0	R1332M
1876.464	0.823	1878414	WORD_OFF	n/a	n/a	HORN	9	14	[0, 0, 0]	n/a	FR1	0	R1332M
1877.287	1.627	1879237	WORD	n/a	n/a	CAGE	10	14	[0, 0, 0]	n/a	FR1	0	R1332M
1878.914	0.872	1880864	WORD_OFF	n/a	n/a	CAGE	10	14	[0, 0, 0]	n/a	FR1	0	R1332M
1879.786	1.629	1881736	WORD	n/a	n/a	CHEEK	11	14	[0, 0, 0]	n/a	FR1	0	R1332M
1881.415	0.798	1883365	WORD_OFF	n/a	n/a	CHEEK	11	14	[0, 0, 0]	n/a	FR1	0	R1332M
1882.213	1.636	1884163	WORD	n/a	n/a	VASE	12	14	[0, 0, 0]	n/a	FR1	0	R1332M
1883.849	0.0	1885799	WORD_OFF	n/a	n/a	VASE	12	14	[0, 0, 0]	n/a	FR1	0	R1332M
1883.849	0.001	1885799	ENCODING_END	n/a	n/a	n/a	-999	14	[0, 0, 0]	n/a	FR1	0	R1332M
1883.85	0.0	1885800	DISTRACT_START	n/a	n/a	n/a	-999	14	[0, 0, 0]	n/a	FR1	0	R1332M
1883.85	0.015	1885800	START	n/a	n/a	n/a	-999	14	[-999, -999, -999]	n/a	FR1	0	R1332M
1883.865	2.984	1885815	PROB	2.984	n/a	n/a	-999	14	[9, 1, 3]	13	FR1	0	R1332M
1886.849	4.601	1888799	PROB	4.601	n/a	n/a	-999	14	[9, 8, 9]	28	FR1	0	R1332M
1891.45	1.784	1893399	PROB	1.784	n/a	n/a	-999	14	[2, 8, 1]	11	FR1	0	R1332M
1893.234	2.349	1895183	PROB	2.349	n/a	n/a	-999	14	[1, 4, 7]	12	FR1	0	R1332M
1895.583	1.585	1897532	PROB	1.585	n/a	n/a	-999	14	[2, 8, 6]	16	FR1	0	R1332M
1897.168	3.284	1899117	PROB	3.284	n/a	n/a	-999	14	[3, 3, 9]	15	FR1	0	R1332M
1900.452	1.984	1902401	PROB	1.984	n/a	n/a	-999	14	[3, 4, 1]	8	FR1	0	R1332M
1902.436	2.098	1904385	PROB	2.098	n/a	n/a	-999	14	[1, 7, 8]	16	FR1	0	R1332M
1904.534	0.018	1906483	STOP	n/a	n/a	n/a	-999	14	[-999, -999, -999]	n/a	FR1	0	R1332M
1904.552	0.517	1906501	DISTRACT_END	n/a	n/a	n/a	-999	14	[0, 0, 0]	n/a	FR1	0	R1332M
1905.069	1.583	1907018	RETRIEVAL_ORIENT_START	n/a	n/a	n/a	-999	14	[0, 0, 0]	n/a	FR1	0	R1332M
1906.652	0.001	1908601	RETRIEVAL_ORIENT_END	n/a	n/a	n/a	-999	14	[0, 0, 0]	n/a	FR1	0	R1332M
1906.653	0.263	1908602	REC_START	n/a	n/a	n/a	-999	14	[0, 0, 0]	n/a	FR1	0	R1332M
1906.916	0.683	1908865	REC_WORD_VV	0.683	n/a	<>	-999	14	[0, 0, 0]	n/a	FR1	0	R1332M
1907.599	3.679	1909548	REC_WORD	3.679	n/a	MOTH	1	14	[0, 0, 0]	n/a	FR1	0	R1332M
1911.278	1.045	1913226	REC_WORD	1.045	n/a	ZOO	8	14	[0, 0, 0]	n/a	FR1	0	R1332M
1912.323	1.144	1914271	REC_WORD	1.144	n/a	CAGE	10	14	[0, 0, 0]	n/a	FR1	0	R1332M
1913.467	15.939	1915415	REC_WORD	15.939	n/a	CAT	6	14	[0, 0, 0]	n/a	FR1	0	R1332M
1929.406	2.25	1931354	REC_WORD	2.25	n/a	FILM	-999	14	[0, 0, 0]	n/a	FR1	0	R1332M
1931.656	5.008	1933603	REC_WORD_VV	5.008	n/a	<>	-999	14	[0, 0, 0]	n/a	FR1	0	R1332M
1936.664	0.001	1938611	REC_END	n/a	n/a	n/a	-999	14	[0, 0, 0]	n/a	FR1	0	R1332M
1936.665	0.015	1938612	TRIAL_END	n/a	n/a	n/a	-999	14	[0, 0, 0]	n/a	FR1	0	R1332M
1936.68	0.0	1938627	TRIAL_START	n/a	n/a	n/a	-999	15	[0, 0, 0]	n/a	FR1	0	R1332M
1936.68	0.0	1938627	TRIAL	n/a	n/a	n/a	-999	15	[0, 0, 0]	n/a	FR1	0	R1332M
1936.68	6.63	1938627	WAITING_START	n/a	n/a	n/a	-999	15	[0, 0, 0]	n/a	FR1	0	R1332M
1943.31	0.001	1945257	WAITING_END	n/a	n/a	n/a	-999	15	[0, 0, 0]	n/a	FR1	0	R1332M
1943.311	10.429	1945258	COUNTDOWN_START	n/a	n/a	n/a	-999	15	[0, 0, 0]	n/a	FR1	0	R1332M
1953.74	0.001	1955686	COUNTDOWN_END	n/a	n/a	n/a	-999	15	[0, 0, 0]	n/a	FR1	0	R1332M
1953.741	1.222	1955687	ORIENT_START	n/a	n/a	n/a	-999	15	[0, 0, 0]	n/a	FR1	0	R1332M
1954.963	0.0	1956909	ORIENT_END	n/a	n/a	n/a	-999	15	[0, 0, 0]	n/a	FR1	0	R1332M
1954.963	0.95	1956909	ENCODING_START	n/a	n/a	n/a	-999	15	[0, 0, 0]	n/a	FR1	0	R1332M
1955.913	1.632	1957859	WORD	n/a	n/a	VEST	1	15	[0, 0, 0]	n/a	FR1	0	R1332M
1957.545	1.124	1959491	WORD_OFF	n/a	n/a	VEST	1	15	[0, 0, 0]	n/a	FR1	0	R1332M
1958.669	1.628	1960615	WORD	n/a	n/a	CUP	2	15	[0, 0, 0]	n/a	FR1	0	R1332M
1960.297	1.003	1962243	WORD_OFF	n/a	n/a	CUP	2	15	[0, 0, 0]	n/a	FR1	0	R1332M
1961.3	1.631	1963246	WORD	n/a	n/a	FLAG	3	15	[0, 0, 0]	n/a	FR1	0	R1332M
1962.931	1.033	1964877	WORD_OFF	n/a	n/a	FLAG	3	15	[0, 0, 0]	n/a	FR1	0	R1332M
1963.964	1.633	1965910	WORD	n/a	n/a	STEM	4	15	[0, 0, 0]	n/a	FR1	0	R1332M
1965.597	0.982	1967543	WORD_OFF	n/a	n/a	STEM	4	15	[0, 0, 0]	n/a	FR1	0	R1332M
1966.579	1.636	1968525	WORD	n/a	n/a	SNAKE	5	15	[0, 0, 0]	n/a	FR1	0	R1332M
1968.215	0.806	1970161	WORD_OFF	n/a	n/a	SNAKE	5	15	[0, 0, 0]	n/a	FR1	0	R1332M
1969.021	1.627	1970967	WORD	n/a	n/a	HORSE	6	15	[0, 0, 0]	n/a	FR1	0	R1332M
1970.648	0.839	1972594	WORD_OFF	n/a	n/a	HORSE	6	15	[0, 0, 0]	n/a	FR1	0	R1332M
1971.487	1.629	1973433	WORD	n/a	n/a	SNOW	7	15	[0, 0, 0]	n/a	FR1	0	R1332M
1973.116	0.765	1975061	WORD_OFF	n/a	n/a	SNOW	7	15	[0, 0, 0]	n/a	FR1	0	R1332M
1973.881	1.636	1975826	WORD	n/a	n/a	STICK	8	15	[0, 0, 0]	n/a	FR1	0	R1332M
1975.517	1.135	1977462	WORD_OFF	n/a	n/a	STICK	8	15	[0, 0, 0]	n/a	FR1	0	R1332M
1976.652	1.632	1978597	WORD	n/a	n/a	SOAP	9	15	[0, 0, 0]	n/a	FR1	0	R1332M
1978.284	0.769	1980229	WORD_OFF	n/a	n/a	SOAP	9	15	[0, 0, 0]	n/a	FR1	0	R1332M
1979.053	1.63	1980998	WORD	n/a	n/a	ROSE	10	15	[0, 0, 0]	n/a	FR1	0	R1332M
1980.683	0.842	1982628	WORD_OFF	n/a	n/a	ROSE	10	15	[0, 0, 0]	n/a	FR1	0	R1332M
1981.525	1.626	1983470	WORD	n/a	n/a	THUMB	11	15	[0, 0, 0]	n/a	FR1	0	R1332M
1983.151	1.106	1985096	WORD_OFF	n/a	n/a	THUMB	11	15	[0, 0, 0]	n/a	FR1	0	R1332M
1984.257	1.628	1986202	WORD	n/a	n/a	TRAY	12	15	[0, 0, 0]	n/a	FR1	0	R1332M
1985.885	0.001	1987830	WORD_OFF	n/a	n/a	TRAY	12	15	[0, 0, 0]	n/a	FR1	0	R1332M
1985.886	0.0	1987831	DISTRACT_START	n/a	n/a	n/a	-999	15	[0, 0, 0]	n/a	FR1	0	R1332M
1985.886	0.0	1987831	ENCODING_END	n/a	n/a	n/a	-999	15	[0, 0, 0]	n/a	FR1	0	R1332M
1985.886	0.016	1987831	START	n/a	n/a	n/a	-999	15	[-999, -999, -999]	n/a	FR1	0	R1332M
1985.902	2.6	1987847	PROB	2.6	n/a	n/a	-999	15	[3, 4, 5]	12	FR1	0	R1332M
1988.502	1.984	1990447	PROB	1.984	n/a	n/a	-999	15	[5, 5, 8]	18	FR1	0	R1332M
1990.486	1.934	1992431	PROB	1.934	n/a	n/a	-999	15	[5, 8, 1]	14	FR1	0	R1332M
1992.42	2.934	1994365	PROB	2.934	n/a	n/a	-999	15	[5, 8, 7]	20	FR1	0	R1332M
1995.354	1.633	1997298	PROB	1.633	n/a	n/a	-999	15	[3, 5, 5]	13	FR1	0	R1332M
1996.987	2.034	1998931	PROB	2.034	n/a	n/a	-999	15	[6, 3, 4]	13	FR1	0	R1332M
1999.021	2.8	2000965	PROB	2.8	n/a	n/a	-999	15	[3, 8, 5]	16	FR1	0	R1332M
2001.821	2.251	2003765	PROB	2.251	n/a	n/a	-999	15	[3, 4, 6]	13	FR1	0	R1332M
2004.072	2.003	2006016	PROB	2.003	n/a	n/a	-999	15	[2, 1, 9]	12	FR1	0	R1332M
2006.075	0.014	2008019	STOP	n/a	n/a	n/a	-999	15	[-999, -999, -999]	n/a	FR1	0	R1332M
2006.089	0.644	2008033	DISTRACT_END	n/a	n/a	n/a	-999	15	[0, 0, 0]	n/a	FR1	0	R1332M
2006.733	1.556	2008677	RETRIEVAL_ORIENT_START	n/a	n/a	n/a	-999	15	[0, 0, 0]	n/a	FR1	0	R1332M
2008.289	0.001	2010233	RETRIEVAL_ORIENT_END	n/a	n/a	n/a	-999	15	[0, 0, 0]	n/a	FR1	0	R1332M
2008.29	0.94	2010234	REC_START	n/a	n/a	n/a	-999	15	[0, 0, 0]	n/a	FR1	0	R1332M
2009.23	1.29	2011174	REC_WORD	1.29	n/a	STEM	4	15	[0, 0, 0]	n/a	FR1	0	R1332M
2010.52	2.651	2012464	REC_WORD	2.651	n/a	ROSE	10	15	[0, 0, 0]	n/a	FR1	0	R1332M
2013.171	1.706	2015115	REC_WORD	1.706	n/a	VEST	1	15	[0, 0, 0]	n/a	FR1	0	R1332M
2014.877	1.55	2016821	REC_WORD	1.55	n/a	SNOW	7	15	[0, 0, 0]	n/a	FR1	0	R1332M
2016.427	8.649	2018370	REC_WORD	8.649	n/a	STICK	8	15	[0, 0, 0]	n/a	FR1	0	R1332M
2025.076	10.482	2027019	REC_WORD_VV	10.482	n/a	<>	-999	15	[0, 0, 0]	n/a	FR1	0	R1332M
2035.558	1.054	2037501	REC_WORD	1.054	n/a	SNOWY	-999	15	[0, 0, 0]	n/a	FR1	0	R1332M
2036.612	1.687	2038555	REC_WORD_VV	1.687	n/a	<>	-999	15	[0, 0, 0]	n/a	FR1	0	R1332M
2038.299	0.001	2040241	REC_END	n/a	n/a	n/a	-999	15	[0, 0, 0]	n/a	FR1	0	R1332M
2038.3	0.013	2040242	TRIAL_END	n/a	n/a	n/a	-999	15	[0, 0, 0]	n/a	FR1	0	R1332M
2038.313	0.001	2040255	TRIAL_START	n/a	n/a	n/a	-999	16	[0, 0, 0]	n/a	FR1	0	R1332M
2038.314	0.0	2040256	TRIAL	n/a	n/a	n/a	-999	16	[0, 0, 0]	n/a	FR1	0	R1332M
2038.314	7.733	2040256	WAITING_START	n/a	n/a	n/a	-999	16	[0, 0, 0]	n/a	FR1	0	R1332M
2046.047	0.0	2047989	WAITING_END	n/a	n/a	n/a	-999	16	[0, 0, 0]	n/a	FR1	0	R1332M
2046.047	10.43	2047989	COUNTDOWN_START	n/a	n/a	n/a	-999	16	[0, 0, 0]	n/a	FR1	0	R1332M
2056.477	0.0	2058419	ORIENT_START	n/a	n/a	n/a	-999	16	[0, 0, 0]	n/a	FR1	0	R1332M
2056.477	1.155	2058419	COUNTDOWN_END	n/a	n/a	n/a	-999	16	[0, 0, 0]	n/a	FR1	0	R1332M
2057.632	0.0	2059574	ORIENT_END	n/a	n/a	n/a	-999	16	[0, 0, 0]	n/a	FR1	0	R1332M
2057.632	1.022	2059574	ENCODING_START	n/a	n/a	n/a	-999	16	[0, 0, 0]	n/a	FR1	0	R1332M
2058.654	1.629	2060595	WORD	n/a	n/a	OAR	1	16	[0, 0, 0]	n/a	FR1	0	R1332M
2060.283	0.844	2062224	WORD_OFF	n/a	n/a	OAR	1	16	[0, 0, 0]	n/a	FR1	0	R1332M
2061.127	1.622	2063068	WORD	n/a	n/a	STORM	2	16	[0, 0, 0]	n/a	FR1	0	R1332M
2062.749	1.017	2064690	WORD_OFF	n/a	n/a	STORM	2	16	[0, 0, 0]	n/a	FR1	0	R1332M
2063.766	1.618	2065707	WORD	n/a	n/a	BARN	3	16	[0, 0, 0]	n/a	FR1	0	R1332M
2065.384	0.847	2067325	WORD_OFF	n/a	n/a	BARN	3	16	[0, 0, 0]	n/a	FR1	0	R1332M
2066.231	1.637	2068172	WORD	n/a	n/a	CLOTH	4	16	[0, 0, 0]	n/a	FR1	0	R1332M
2067.868	1.019	2069809	WORD_OFF	n/a	n/a	CLOTH	4	16	[0, 0, 0]	n/a	FR1	0	R1332M
2068.887	1.631	2070828	WORD	n/a	n/a	MAP	5	16	[0, 0, 0]	n/a	FR1	0	R1332M
2070.518	1.042	2072459	WORD_OFF	n/a	n/a	MAP	5	16	[0, 0, 0]	n/a	FR1	0	R1332M
2071.56	1.609	2073501	WORD	n/a	n/a	ROAD	6	16	[0, 0, 0]	n/a	FR1	0	R1332M
2073.169	0.822	2075110	WORD_OFF	n/a	n/a	ROAD	6	16	[0, 0, 0]	n/a	FR1	0	R1332M
2073.991	1.627	2075932	WORD	n/a	n/a	JET	7	16	[0, 0, 0]	n/a	FR1	0	R1332M
2075.618	0.779	2077559	WORD_OFF	n/a	n/a	JET	7	16	[0, 0, 0]	n/a	FR1	0	R1332M
2076.397	1.623	2078338	WORD	n/a	n/a	LEAF	8	16	[0, 0, 0]	n/a	FR1	0	R1332M
2078.02	0.757	2079961	WORD_OFF	n/a	n/a	LEAF	8	16	[0, 0, 0]	n/a	FR1	0	R1332M
2078.777	1.61	2080718	WORD	n/a	n/a	CALF	9	16	[0, 0, 0]	n/a	FR1	0	R1332M
2080.387	1.071	2082327	WORD_OFF	n/a	n/a	CALF	9	16	[0, 0, 0]	n/a	FR1	0	R1332M
2081.458	1.629	2083398	WORD	n/a	n/a	PIT	10	16	[0, 0, 0]	n/a	FR1	0	R1332M
2083.087	0.997	2085027	WORD_OFF	n/a	n/a	PIT	10	16	[0, 0, 0]	n/a	FR1	0	R1332M
2084.084	1.62	2086024	WORD	n/a	n/a	PIE	11	16	[0, 0, 0]	n/a	FR1	0	R1332M
2085.704	1.06	2087644	WORD_OFF	n/a	n/a	PIE	11	16	[0, 0, 0]	n/a	FR1	0	R1332M
2086.764	1.608	2088704	WORD	n/a	n/a	ROCK	12	16	[0, 0, 0]	n/a	FR1	0	R1332M
2088.372	0.0	2090312	WORD_OFF	n/a	n/a	ROCK	12	16	[0, 0, 0]	n/a	FR1	0	R1332M
2088.372	0.0	2090312	ENCODING_END	n/a	n/a	n/a	-999	16	[0, 0, 0]	n/a	FR1	0	R1332M
2088.372	0.001	2090312	DISTRACT_START	n/a	n/a	n/a	-999	16	[0, 0, 0]	n/a	FR1	0	R1332M
2088.373	0.015	2090313	START	n/a	n/a	n/a	-999	16	[-999, -999, -999]	n/a	FR1	0	R1332M
2088.388	2.467	2090328	PROB	2.467	n/a	n/a	-999	16	[1, 8, 9]	18	FR1	0	R1332M
2090.855	4.034	2092795	PROB	4.034	n/a	n/a	-999	16	[7, 9, 7]	23	FR1	0	R1332M
2094.889	2.001	2096829	PROB	2.001	n/a	n/a	-999	16	[7, 6, 1]	14	FR1	0	R1332M
2096.89	3.234	2098830	PROB	3.234	n/a	n/a	-999	16	[1, 6, 4]	11	FR1	0	R1332M
2100.124	2.483	2102064	PROB	2.483	n/a	n/a	-999	16	[7, 7, 6]	20	FR1	0	R1332M
2102.607	1.884	2104546	PROB	1.884	n/a	n/a	-999	16	[4, 9, 3]	16	FR1	0	R1332M
2104.491	3.718	2106430	PROB	3.718	n/a	n/a	-999	16	[4, 8, 8]	20	FR1	0	R1332M
2108.209	4.161	2110148	PROB	4.161	n/a	n/a	-999	16	[1, 4, 4]	9	FR1	0	R1332M
2112.37	0.006	2114309	STOP	n/a	n/a	n/a	-999	16	[-999, -999, -999]	n/a	FR1	0	R1332M
2112.376	0.685	2114315	DISTRACT_END	n/a	n/a	n/a	-999	16	[0, 0, 0]	n/a	FR1	0	R1332M
2113.061	1.682	2115000	RETRIEVAL_ORIENT_START	n/a	n/a	n/a	-999	16	[0, 0, 0]	n/a	FR1	0	R1332M
2114.743	0.0	2116682	RETRIEVAL_ORIENT_END	n/a	n/a	n/a	-999	16	[0, 0, 0]	n/a	FR1	0	R1332M
2114.743	0.776	2116682	REC_START	n/a	n/a	n/a	-999	16	[0, 0, 0]	n/a	FR1	0	R1332M
2115.519	1.467	2117458	REC_WORD_VV	1.467	n/a	<>	-999	16	[0, 0, 0]	n/a	FR1	0	R1332M
2116.986	2.22	2118925	REC_WORD	2.22	n/a	OAR	1	16	[0, 0, 0]	n/a	FR1	0	R1332M
2119.206	0.596	2121145	REC_WORD	0.596	n/a	FARM	-999	16	[0, 0, 0]	n/a	FR1	0	R1332M
2119.802	3.159	2121741	REC_WORD	3.159	n/a	CALF	9	16	[0, 0, 0]	n/a	FR1	0	R1332M
2122.961	2.053	2124899	REC_WORD	2.053	n/a	JET	7	16	[0, 0, 0]	n/a	FR1	0	R1332M
2125.014	19.739	2126952	REC_WORD	19.739	n/a	MAP	5	16	[0, 0, 0]	n/a	FR1	0	R1332M
2144.753	0.001	2146690	REC_END	n/a	n/a	n/a	-999	16	[0, 0, 0]	n/a	FR1	0	R1332M
2144.754	0.014	2146691	TRIAL_END	n/a	n/a	n/a	-999	16	[0, 0, 0]	n/a	FR1	0	R1332M
2144.768	0.0	2146705	TRIAL_START	n/a	n/a	n/a	-999	17	[0, 0, 0]	n/a	FR1	0	R1332M
2144.768	0.0	2146705	TRIAL	n/a	n/a	n/a	-999	17	[0, 0, 0]	n/a	FR1	0	R1332M
2144.768	6.549	2146705	WAITING_START	n/a	n/a	n/a	-999	17	[0, 0, 0]	n/a	FR1	0	R1332M
2151.317	0.001	2153254	WAITING_END	n/a	n/a	n/a	-999	17	[0, 0, 0]	n/a	FR1	0	R1332M
2151.318	10.429	2153255	COUNTDOWN_START	n/a	n/a	n/a	-999	17	[0, 0, 0]	n/a	FR1	0	R1332M
2161.747	0.001	2163684	COUNTDOWN_END	n/a	n/a	n/a	-999	17	[0, 0, 0]	n/a	FR1	0	R1332M
2161.748	1.188	2163685	ORIENT_START	n/a	n/a	n/a	-999	17	[0, 0, 0]	n/a	FR1	0	R1332M
2162.936	0.0	2164873	ENCODING_START	n/a	n/a	n/a	-999	17	[0, 0, 0]	n/a	FR1	0	R1332M
2162.936	1.01	2164873	ORIENT_END	n/a	n/a	n/a	-999	17	[0, 0, 0]	n/a	FR1	0	R1332M
2163.946	1.623	2165883	WORD	n/a	n/a	PURSE	1	17	[0, 0, 0]	n/a	FR1	0	R1332M
2165.569	1.02	2167505	WORD_OFF	n/a	n/a	PURSE	1	17	[0, 0, 0]	n/a	FR1	0	R1332M
2166.589	1.632	2168525	WORD	n/a	n/a	PEARL	2	17	[0, 0, 0]	n/a	FR1	0	R1332M
2168.221	1.115	2170157	WORD_OFF	n/a	n/a	PEARL	2	17	[0, 0, 0]	n/a	FR1	0	R1332M
2169.336	1.635	2171272	WORD	n/a	n/a	TOE	3	17	[0, 0, 0]	n/a	FR1	0	R1332M
2170.971	0.769	2172907	WORD_OFF	n/a	n/a	TOE	3	17	[0, 0, 0]	n/a	FR1	0	R1332M
2171.74	1.632	2173676	WORD	n/a	n/a	SLUSH	4	17	[0, 0, 0]	n/a	FR1	0	R1332M
2173.372	0.787	2175308	WORD_OFF	n/a	n/a	SLUSH	4	17	[0, 0, 0]	n/a	FR1	0	R1332M
2174.159	1.629	2176095	WORD	n/a	n/a	SHOE	5	17	[0, 0, 0]	n/a	FR1	0	R1332M
2175.788	1.139	2177724	WORD_OFF	n/a	n/a	SHOE	5	17	[0, 0, 0]	n/a	FR1	0	R1332M
2176.927	1.628	2178863	WORD	n/a	n/a	FAN	6	17	[0, 0, 0]	n/a	FR1	0	R1332M
2178.555	0.88	2180491	WORD_OFF	n/a	n/a	FAN	6	17	[0, 0, 0]	n/a	FR1	0	R1332M
2179.435	1.621	2181371	WORD	n/a	n/a	MAT	7	17	[0, 0, 0]	n/a	FR1	0	R1332M
2181.056	1.113	2182992	WORD_OFF	n/a	n/a	MAT	7	17	[0, 0, 0]	n/a	FR1	0	R1332M
2182.169	1.637	2184105	WORD	n/a	n/a	ROOM	8	17	[0, 0, 0]	n/a	FR1	0	R1332M
2183.806	1.072	2185742	WORD_OFF	n/a	n/a	ROOM	8	17	[0, 0, 0]	n/a	FR1	0	R1332M
2184.878	1.629	2186814	WORD	n/a	n/a	POOL	9	17	[0, 0, 0]	n/a	FR1	0	R1332M
2186.507	1.091	2188442	WORD_OFF	n/a	n/a	POOL	9	17	[0, 0, 0]	n/a	FR1	0	R1332M
2187.598	1.61	2189533	WORD	n/a	n/a	MUG	10	17	[0, 0, 0]	n/a	FR1	0	R1332M
2189.208	0.781	2191143	WORD_OFF	n/a	n/a	MUG	10	17	[0, 0, 0]	n/a	FR1	0	R1332M
2189.989	1.635	2191924	WORD	n/a	n/a	TOAST	11	17	[0, 0, 0]	n/a	FR1	0	R1332M
2191.624	0.909	2193559	WORD_OFF	n/a	n/a	TOAST	11	17	[0, 0, 0]	n/a	FR1	0	R1332M
2192.533	1.626	2194468	WORD	n/a	n/a	COW	12	17	[0, 0, 0]	n/a	FR1	0	R1332M
2194.159	0.0	2196094	WORD_OFF	n/a	n/a	COW	12	17	[0, 0, 0]	n/a	FR1	0	R1332M
2194.159	0.001	2196094	ENCODING_END	n/a	n/a	n/a	-999	17	[0, 0, 0]	n/a	FR1	0	R1332M
2194.16	0.0	2196095	DISTRACT_START	n/a	n/a	n/a	-999	17	[0, 0, 0]	n/a	FR1	0	R1332M
2194.16	0.015	2196095	START	n/a	n/a	n/a	-999	17	[-999, -999, -999]	n/a	FR1	0	R1332M
2194.175	2.301	2196110	PROB	2.301	n/a	n/a	-999	17	[7, 4, 3]	14	FR1	0	R1332M
2196.476	2.6	2198411	PROB	2.6	n/a	n/a	-999	17	[4, 6, 1]	11	FR1	0	R1332M
2199.076	2.367	2201011	PROB	2.367	n/a	n/a	-999	17	[2, 9, 3]	14	FR1	0	R1332M
2201.443	2.084	2203378	PROB	2.084	n/a	n/a	-999	17	[4, 3, 2]	9	FR1	0	R1332M
2203.527	2.501	2205462	PROB	2.501	n/a	n/a	-999	17	[2, 2, 9]	13	FR1	0	R1332M
2206.028	2.516	2207963	PROB	2.516	n/a	n/a	-999	17	[5, 2, 7]	14	FR1	0	R1332M
2208.544	2.134	2210478	PROB	2.134	n/a	n/a	-999	17	[8, 5, 1]	14	FR1	0	R1332M
2210.678	1.801	2212612	PROB	1.801	n/a	n/a	-999	17	[3, 5, 3]	11	FR1	0	R1332M
2212.479	2.228	2214413	PROB	2.228	n/a	n/a	-999	17	[8, 6, 9]	23	FR1	0	R1332M
2214.707	0.021	2216641	STOP	n/a	n/a	n/a	-999	17	[-999, -999, -999]	n/a	FR1	0	R1332M
2214.728	0.618	2216662	DISTRACT_END	n/a	n/a	n/a	-999	17	[0, 0, 0]	n/a	FR1	0	R1332M
2215.346	1.634	2217280	RETRIEVAL_ORIENT_START	n/a	n/a	n/a	-999	17	[0, 0, 0]	n/a	FR1	0	R1332M
2216.98	0.0	2218914	REC_START	n/a	n/a	n/a	-999	17	[0, 0, 0]	n/a	FR1	0	R1332M
2216.98	0.652	2218914	RETRIEVAL_ORIENT_END	n/a	n/a	n/a	-999	17	[0, 0, 0]	n/a	FR1	0	R1332M
2217.632	0.529	2219566	REC_WORD	0.529	n/a	PEARL	2	17	[0, 0, 0]	n/a	FR1	0	R1332M
2218.161	2.828	2220095	REC_WORD	2.828	n/a	PURSE	1	17	[0, 0, 0]	n/a	FR1	0	R1332M
2220.989	7.681	2222923	REC_WORD	7.681	n/a	COW	12	17	[0, 0, 0]	n/a	FR1	0	R1332M
2228.67	1.55	2230603	REC_WORD	1.55	n/a	PIE	-999	17	[0, 0, 0]	n/a	FR1	0	R1332M
2230.22	0.336	2232153	REC_WORD_VV	0.336	n/a	<>	-999	17	[0, 0, 0]	n/a	FR1	0	R1332M
2230.556	0.217	2232489	REC_WORD	0.217	n/a	PIE	-999	17	[0, 0, 0]	n/a	FR1	0	R1332M
2230.773	16.219	2232706	REC_WORD_VV	16.219	n/a	<>	-999	17	[0, 0, 0]	n/a	FR1	0	R1332M
2246.992	0.0	2248925	TRIAL_END	n/a	n/a	n/a	-999	17	[0, 0, 0]	n/a	FR1	0	R1332M
2246.992	0.016	2248925	REC_END	n/a	n/a	n/a	-999	17	[0, 0, 0]	n/a	FR1	0	R1332M
2247.008	0.0	2248941	TRIAL_START	n/a	n/a	n/a	-999	18	[0, 0, 0]	n/a	FR1	0	R1332M
2247.008	0.0	2248941	TRIAL	n/a	n/a	n/a	-999	18	[0, 0, 0]	n/a	FR1	0	R1332M
2247.008	8.279	2248941	WAITING_START	n/a	n/a	n/a	-999	18	[0, 0, 0]	n/a	FR1	0	R1332M
2255.287	0.001	2257219	WAITING_END	n/a	n/a	n/a	-999	18	[0, 0, 0]	n/a	FR1	0	R1332M
2255.288	10.429	2257220	COUNTDOWN_START	n/a	n/a	n/a	-999	18	[0, 0, 0]	n/a	FR1	0	R1332M
2265.717	0.001	2267649	COUNTDOWN_END	n/a	n/a	n/a	-999	18	[0, 0, 0]	n/a	FR1	0	R1332M
2265.718	1.105	2267650	ORIENT_START	n/a	n/a	n/a	-999	18	[0, 0, 0]	n/a	FR1	0	R1332M
2266.823	0.0	2268755	ENCODING_START	n/a	n/a	n/a	-999	18	[0, 0, 0]	n/a	FR1	0	R1332M
2266.823	1.085	2268755	ORIENT_END	n/a	n/a	n/a	-999	18	[0, 0, 0]	n/a	FR1	0	R1332M
2267.908	1.631	2269840	WORD	n/a	n/a	LAMB	1	18	[0, 0, 0]	n/a	FR1	0	R1332M
2269.539	0.852	2271471	WORD_OFF	n/a	n/a	LAMB	1	18	[0, 0, 0]	n/a	FR1	0	R1332M
2270.391	1.633	2272323	WORD	n/a	n/a	HAWK	2	18	[0, 0, 0]	n/a	FR1	0	R1332M
2272.024	0.795	2273955	WORD_OFF	n/a	n/a	HAWK	2	18	[0, 0, 0]	n/a	FR1	0	R1332M
2272.819	1.622	2274750	WORD	n/a	n/a	BOX	3	18	[0, 0, 0]	n/a	FR1	0	R1332M
2274.441	1.124	2276372	WORD_OFF	n/a	n/a	BOX	3	18	[0, 0, 0]	n/a	FR1	0	R1332M
2275.565	1.627	2277496	WORD	n/a	n/a	PLANT	4	18	[0, 0, 0]	n/a	FR1	0	R1332M
2277.192	1.094	2279123	WORD_OFF	n/a	n/a	PLANT	4	18	[0, 0, 0]	n/a	FR1	0	R1332M
2278.286	1.623	2280217	WORD	n/a	n/a	HAND	5	18	[0, 0, 0]	n/a	FR1	0	R1332M
2279.909	0.965	2281840	WORD_OFF	n/a	n/a	HAND	5	18	[0, 0, 0]	n/a	FR1	0	R1332M
2280.874	1.635	2282805	WORD	n/a	n/a	FLAME	6	18	[0, 0, 0]	n/a	FR1	0	R1332M
2282.509	0.759	2284440	WORD_OFF	n/a	n/a	FLAME	6	18	[0, 0, 0]	n/a	FR1	0	R1332M
2283.268	1.625	2285199	WORD	n/a	n/a	GLOVE	7	18	[0, 0, 0]	n/a	FR1	0	R1332M
2284.893	1.123	2286824	WORD_OFF	n/a	n/a	GLOVE	7	18	[0, 0, 0]	n/a	FR1	0	R1332M
2286.016	1.627	2287947	WORD	n/a	n/a	BROOM	8	18	[0, 0, 0]	n/a	FR1	0	R1332M
2287.643	0.914	2289574	WORD_OFF	n/a	n/a	BROOM	8	18	[0, 0, 0]	n/a	FR1	0	R1332M
2288.557	1.637	2290488	WORD	n/a	n/a	MUD	9	18	[0, 0, 0]	n/a	FR1	0	R1332M
2290.194	0.756	2292125	WORD_OFF	n/a	n/a	MUD	9	18	[0, 0, 0]	n/a	FR1	0	R1332M
2290.95	1.627	2292881	WORD	n/a	n/a	CAPE	10	18	[0, 0, 0]	n/a	FR1	0	R1332M
2292.577	1.079	2294507	WORD_OFF	n/a	n/a	CAPE	10	18	[0, 0, 0]	n/a	FR1	0	R1332M
2293.656	1.623	2295586	WORD	n/a	n/a	CANE	11	18	[0, 0, 0]	n/a	FR1	0	R1332M
2295.279	0.828	2297209	WORD_OFF	n/a	n/a	CANE	11	18	[0, 0, 0]	n/a	FR1	0	R1332M
2296.107	1.621	2298037	WORD	n/a	n/a	FORK	12	18	[0, 0, 0]	n/a	FR1	0	R1332M
2297.728	0.001	2299658	WORD_OFF	n/a	n/a	FORK	12	18	[0, 0, 0]	n/a	FR1	0	R1332M
2297.729	0.0	2299659	ENCODING_END	n/a	n/a	n/a	-999	18	[0, 0, 0]	n/a	FR1	0	R1332M
2297.729	0.0	2299659	DISTRACT_START	n/a	n/a	n/a	-999	18	[0, 0, 0]	n/a	FR1	0	R1332M
2297.729	0.015	2299659	START	n/a	n/a	n/a	-999	18	[-999, -999, -999]	n/a	FR1	0	R1332M
2297.744	8.62	2299674	PROB	8.62	n/a	n/a	-999	18	[4, 8, 6]	18	FR1	0	R1332M
2306.364	3.85	2308294	PROB	3.85	n/a	n/a	-999	18	[3, 9, 3]	15	FR1	0	R1332M
2310.214	1.583	2312144	PROB	1.583	n/a	n/a	-999	18	[8, 2, 4]	14	FR1	0	R1332M
2311.797	2.485	2313727	PROB	2.485	n/a	n/a	-999	18	[2, 2, 4]	8	FR1	0	R1332M
2314.282	3.283	2316211	PROB	3.283	n/a	n/a	-999	18	[7, 5, 4]	16	FR1	0	R1332M
2317.565	2.949	2319494	PROB	2.949	n/a	n/a	-999	18	[8, 6, 6]	20	FR1	0	R1332M
2320.514	0.018	2322443	STOP	n/a	n/a	n/a	-999	18	[-999, -999, -999]	n/a	FR1	0	R1332M
2320.532	0.527	2322461	DISTRACT_END	n/a	n/a	n/a	-999	18	[0, 0, 0]	n/a	FR1	0	R1332M
2321.059	1.64	2322988	RETRIEVAL_ORIENT_START	n/a	n/a	n/a	-999	18	[0, 0, 0]	n/a	FR1	0	R1332M
2322.699	0.001	2324628	RETRIEVAL_ORIENT_END	n/a	n/a	n/a	-999	18	[0, 0, 0]	n/a	FR1	0	R1332M
2322.7	1.334	2324629	REC_START	n/a	n/a	n/a	-999	18	[0, 0, 0]	n/a	FR1	0	R1332M
2324.034	0.489	2325963	REC_WORD	0.489	n/a	LAMB	1	18	[0, 0, 0]	n/a	FR1	0	R1332M
2324.523	0.802	2326452	REC_WORD	0.802	n/a	HAWK	2	18	[0, 0, 0]	n/a	FR1	0	R1332M
2325.325	11.159	2327254	REC_WORD	11.159	n/a	BOX	3	18	[0, 0, 0]	n/a	FR1	0	R1332M
2336.484	0.979	2338412	REC_WORD_VV	0.979	n/a	<>	-999	18	[0, 0, 0]	n/a	FR1	0	R1332M
2337.463	1.622	2339391	REC_WORD_VV	1.622	n/a	<>	-999	18	[0, 0, 0]	n/a	FR1	0	R1332M
2339.085	10.236	2341013	REC_WORD_VV	10.236	n/a	<>	-999	18	[0, 0, 0]	n/a	FR1	0	R1332M
2349.321	3.388	2351249	REC_WORD_VV	3.388	n/a	<>	-999	18	[0, 0, 0]	n/a	FR1	0	R1332M
2352.709	0.001	2354637	REC_END	n/a	n/a	n/a	-999	18	[0, 0, 0]	n/a	FR1	0	R1332M
2352.71	0.016	2354638	TRIAL_END	n/a	n/a	n/a	-999	18	[0, 0, 0]	n/a	FR1	0	R1332M
2352.726	0.0	2354654	TRIAL_START	n/a	n/a	n/a	-999	19	[0, 0, 0]	n/a	FR1	0	R1332M
2352.726	0.0	2354654	TRIAL	n/a	n/a	n/a	-999	19	[0, 0, 0]	n/a	FR1	0	R1332M
2352.726	5.847	2354654	WAITING_START	n/a	n/a	n/a	-999	19	[0, 0, 0]	n/a	FR1	0	R1332M
2358.573	0.001	2360500	WAITING_END	n/a	n/a	n/a	-999	19	[0, 0, 0]	n/a	FR1	0	R1332M
2358.574	10.429	2360501	COUNTDOWN_START	n/a	n/a	n/a	-999	19	[0, 0, 0]	n/a	FR1	0	R1332M
2369.003	0.001	2370930	COUNTDOWN_END	n/a	n/a	n/a	-999	19	[0, 0, 0]	n/a	FR1	0	R1332M
2369.004	1.156	2370931	ORIENT_START	n/a	n/a	n/a	-999	19	[0, 0, 0]	n/a	FR1	0	R1332M
2370.16	0.0	2372087	ENCODING_START	n/a	n/a	n/a	-999	19	[0, 0, 0]	n/a	FR1	0	R1332M
2370.16	0.76	2372087	ORIENT_END	n/a	n/a	n/a	-999	19	[0, 0, 0]	n/a	FR1	0	R1332M
2370.92	1.622	2372847	WORD	n/a	n/a	TIE	1	19	[0, 0, 0]	n/a	FR1	0	R1332M
2372.542	0.771	2374469	WORD_OFF	n/a	n/a	TIE	1	19	[0, 0, 0]	n/a	FR1	0	R1332M
2373.313	1.631	2375240	WORD	n/a	n/a	CUBE	2	19	[0, 0, 0]	n/a	FR1	0	R1332M
2374.944	1.026	2376871	WORD_OFF	n/a	n/a	CUBE	2	19	[0, 0, 0]	n/a	FR1	0	R1332M
2375.97	1.623	2377897	WORD	n/a	n/a	SIGN	3	19	[0, 0, 0]	n/a	FR1	0	R1332M
2377.593	0.857	2379519	WORD_OFF	n/a	n/a	SIGN	3	19	[0, 0, 0]	n/a	FR1	0	R1332M
2378.45	1.628	2380376	WORD	n/a	n/a	THREAD	4	19	[0, 0, 0]	n/a	FR1	0	R1332M
2380.078	0.926	2382004	WORD_OFF	n/a	n/a	THREAD	4	19	[0, 0, 0]	n/a	FR1	0	R1332M
2381.004	1.624	2382930	WORD	n/a	n/a	FOOD	5	19	[0, 0, 0]	n/a	FR1	0	R1332M
2382.628	1.03	2384554	WORD_OFF	n/a	n/a	FOOD	5	19	[0, 0, 0]	n/a	FR1	0	R1332M
2383.658	1.621	2385584	WORD	n/a	n/a	SEAL	6	19	[0, 0, 0]	n/a	FR1	0	R1332M
2385.279	1.09	2387205	WORD_OFF	n/a	n/a	SEAL	6	19	[0, 0, 0]	n/a	FR1	0	R1332M
2386.369	1.627	2388295	WORD	n/a	n/a	WEED	7	19	[0, 0, 0]	n/a	FR1	0	R1332M
2387.996	0.992	2389922	WORD_OFF	n/a	n/a	WEED	7	19	[0, 0, 0]	n/a	FR1	0	R1332M
2388.988	1.625	2390914	WORD	n/a	n/a	TRASH	8	19	[0, 0, 0]	n/a	FR1	0	R1332M
2390.613	1.149	2392539	WORD_OFF	n/a	n/a	TRASH	8	19	[0, 0, 0]	n/a	FR1	0	R1332M
2391.762	1.619	2393688	WORD	n/a	n/a	LOCK	9	19	[0, 0, 0]	n/a	FR1	0	R1332M
2393.381	0.826	2395307	WORD_OFF	n/a	n/a	LOCK	9	19	[0, 0, 0]	n/a	FR1	0	R1332M
2394.207	1.624	2396133	WORD	n/a	n/a	STORE	10	19	[0, 0, 0]	n/a	FR1	0	R1332M
2395.831	0.933	2397757	WORD_OFF	n/a	n/a	STORE	10	19	[0, 0, 0]	n/a	FR1	0	R1332M
2396.764	1.618	2398690	WORD	n/a	n/a	TRUCK	11	19	[0, 0, 0]	n/a	FR1	0	R1332M
2398.382	0.825	2400307	WORD_OFF	n/a	n/a	TRUCK	11	19	[0, 0, 0]	n/a	FR1	0	R1332M
2399.207	1.625	2401132	WORD	n/a	n/a	COUCH	12	19	[0, 0, 0]	n/a	FR1	0	R1332M
2400.832	0.001	2402757	WORD_OFF	n/a	n/a	COUCH	12	19	[0, 0, 0]	n/a	FR1	0	R1332M
2400.833	0.0	2402758	ENCODING_END	n/a	n/a	n/a	-999	19	[0, 0, 0]	n/a	FR1	0	R1332M
2400.833	0.0	2402758	DISTRACT_START	n/a	n/a	n/a	-999	19	[0, 0, 0]	n/a	FR1	0	R1332M
2400.833	0.016	2402758	START	n/a	n/a	n/a	-999	19	[-999, -999, -999]	n/a	FR1	0	R1332M
2400.849	3.05	2402774	PROB	3.05	n/a	n/a	-999	19	[1, 5, 4]	10	FR1	0	R1332M
2403.899	49.225	2405824	PROB	49.225	n/a	n/a	-999	19	[1, 4, 1]	5	FR1	0	R1332M
2453.124	0.018	2455047	STOP	n/a	n/a	n/a	-999	19	[-999, -999, -999]	n/a	FR1	0	R1332M
2453.142	0.637	2455065	DISTRACT_END	n/a	n/a	n/a	-999	19	[0, 0, 0]	n/a	FR1	0	R1332M
2453.779	1.664	2455702	RETRIEVAL_ORIENT_START	n/a	n/a	n/a	-999	19	[0, 0, 0]	n/a	FR1	0	R1332M
2455.443	0.0	2457366	REC_START	n/a	n/a	n/a	-999	19	[0, 0, 0]	n/a	FR1	0	R1332M
2455.443	0.427	2457366	RETRIEVAL_ORIENT_END	n/a	n/a	n/a	-999	19	[0, 0, 0]	n/a	FR1	0	R1332M
2455.87	0.58	2457793	REC_WORD_VV	0.58	n/a	<>	-999	19	[0, 0, 0]	n/a	FR1	0	R1332M
2456.45	0.827	2458373	REC_WORD	0.827	n/a	TIE	1	19	[0, 0, 0]	n/a	FR1	0	R1332M
2457.277	1.726	2459200	REC_WORD	1.726	n/a	CUBE	2	19	[0, 0, 0]	n/a	FR1	0	R1332M
2459.003	3.249	2460926	REC_WORD	3.249	n/a	BOX	-999	19	[0, 0, 0]	n/a	FR1	0	R1332M
2462.252	6.127	2464174	REC_WORD_VV	6.127	n/a	<>	-999	19	[0, 0, 0]	n/a	FR1	0	R1332M
2468.379	0.447	2470301	REC_WORD	0.447	n/a	SQUAD	-999	19	[0, 0, 0]	n/a	FR1	0	R1332M
2468.826	2.335	2470748	REC_WORD_VV	2.335	n/a	<>	-999	19	[0, 0, 0]	n/a	FR1	0	R1332M
2471.161	4.324	2473083	REC_WORD	4.324	n/a	SQUAWK	-999	19	[0, 0, 0]	n/a	FR1	0	R1332M
2475.485	8.128	2477407	REC_WORD	8.128	n/a	TOOL	-999	19	[0, 0, 0]	n/a	FR1	0	R1332M
2483.613	1.841	2485534	REC_WORD	1.841	n/a	WEED	7	19	[0, 0, 0]	n/a	FR1	0	R1332M
2485.454	0.0	2487375	REC_END	n/a	n/a	n/a	-999	19	[0, 0, 0]	n/a	FR1	0	R1332M
2485.454	0.015	2487375	TRIAL_END	n/a	n/a	n/a	-999	19	[0, 0, 0]	n/a	FR1	0	R1332M
2485.469	0.001	2487390	TRIAL_START	n/a	n/a	n/a	-999	20	[0, 0, 0]	n/a	FR1	0	R1332M
2485.47	0.0	2487391	TRIAL	n/a	n/a	n/a	-999	20	[0, 0, 0]	n/a	FR1	0	R1332M
2485.47	9.964	2487391	WAITING_START	n/a	n/a	n/a	-999	20	[0, 0, 0]	n/a	FR1	0	R1332M
2495.434	0.0	2497355	WAITING_END	n/a	n/a	n/a	-999	20	[0, 0, 0]	n/a	FR1	0	R1332M
2495.434	10.43	2497355	COUNTDOWN_START	n/a	n/a	n/a	-999	20	[0, 0, 0]	n/a	FR1	0	R1332M
2505.864	0.001	2507784	COUNTDOWN_END	n/a	n/a	n/a	-999	20	[0, 0, 0]	n/a	FR1	0	R1332M
2505.865	1.038	2507785	ORIENT_START	n/a	n/a	n/a	-999	20	[0, 0, 0]	n/a	FR1	0	R1332M
2506.903	0.0	2508823	ORIENT_END	n/a	n/a	n/a	-999	20	[0, 0, 0]	n/a	FR1	0	R1332M
2506.903	0.883	2508823	ENCODING_START	n/a	n/a	n/a	-999	20	[0, 0, 0]	n/a	FR1	0	R1332M
2507.786	1.634	2509706	WORD	n/a	n/a	STREET	1	20	[0, 0, 0]	n/a	FR1	0	R1332M
2509.42	0.905	2511340	WORD_OFF	n/a	n/a	STREET	1	20	[0, 0, 0]	n/a	FR1	0	R1332M
2510.325	1.629	2512245	WORD	n/a	n/a	STEAK	2	20	[0, 0, 0]	n/a	FR1	0	R1332M
2511.954	0.931	2513874	WORD_OFF	n/a	n/a	STEAK	2	20	[0, 0, 0]	n/a	FR1	0	R1332M
2512.885	1.636	2514805	WORD	n/a	n/a	DESK	3	20	[0, 0, 0]	n/a	FR1	0	R1332M
2514.521	1.115	2516441	WORD_OFF	n/a	n/a	DESK	3	20	[0, 0, 0]	n/a	FR1	0	R1332M
2515.636	1.618	2517556	WORD	n/a	n/a	GRASS	4	20	[0, 0, 0]	n/a	FR1	0	R1332M
2517.254	0.755	2519174	WORD_OFF	n/a	n/a	GRASS	4	20	[0, 0, 0]	n/a	FR1	0	R1332M
2518.009	1.628	2519929	WORD	n/a	n/a	WAND	5	20	[0, 0, 0]	n/a	FR1	0	R1332M
2519.637	1.057	2521557	WORD_OFF	n/a	n/a	WAND	5	20	[0, 0, 0]	n/a	FR1	0	R1332M
2520.694	1.628	2522614	WORD	n/a	n/a	BREAD	6	20	[0, 0, 0]	n/a	FR1	0	R1332M
2522.322	0.79	2524242	WORD_OFF	n/a	n/a	BREAD	6	20	[0, 0, 0]	n/a	FR1	0	R1332M
2523.112	1.626	2525032	WORD	n/a	n/a	EAR	7	20	[0, 0, 0]	n/a	FR1	0	R1332M
2524.738	0.906	2526658	WORD_OFF	n/a	n/a	EAR	7	20	[0, 0, 0]	n/a	FR1	0	R1332M
2525.644	1.612	2527564	WORD	n/a	n/a	JUDGE	8	20	[0, 0, 0]	n/a	FR1	0	R1332M
2527.256	1.046	2529175	WORD_OFF	n/a	n/a	JUDGE	8	20	[0, 0, 0]	n/a	FR1	0	R1332M
2528.302	1.622	2530221	WORD	n/a	n/a	SEAT	9	20	[0, 0, 0]	n/a	FR1	0	R1332M
2529.924	1.086	2531843	WORD_OFF	n/a	n/a	SEAT	9	20	[0, 0, 0]	n/a	FR1	0	R1332M
2531.01	1.63	2532929	WORD	n/a	n/a	PEN	10	20	[0, 0, 0]	n/a	FR1	0	R1332M
2532.64	0.913	2534559	WORD_OFF	n/a	n/a	PEN	10	20	[0, 0, 0]	n/a	FR1	0	R1332M
2533.553	1.622	2535472	WORD	n/a	n/a	TOOTH	11	20	[0, 0, 0]	n/a	FR1	0	R1332M
2535.175	1.136	2537094	WORD_OFF	n/a	n/a	TOOTH	11	20	[0, 0, 0]	n/a	FR1	0	R1332M
2536.311	1.631	2538230	WORD	n/a	n/a	DUCK	12	20	[0, 0, 0]	n/a	FR1	0	R1332M
2537.942	0.001	2539861	WORD_OFF	n/a	n/a	DUCK	12	20	[0, 0, 0]	n/a	FR1	0	R1332M
2537.943	0.0	2539862	ENCODING_END	n/a	n/a	n/a	-999	20	[0, 0, 0]	n/a	FR1	0	R1332M
2537.943	0.0	2539862	DISTRACT_START	n/a	n/a	n/a	-999	20	[0, 0, 0]	n/a	FR1	0	R1332M
2537.943	0.016	2539862	START	n/a	n/a	n/a	-999	20	[-999, -999, -999]	n/a	FR1	0	R1332M
2537.959	1.799	2539878	PROB	1.799	n/a	n/a	-999	20	[8, 2, 2]	12	FR1	0	R1332M
2539.758	3.0	2541677	PROB	3.0	n/a	n/a	-999	20	[4, 8, 7]	19	FR1	0	R1332M
2542.758	2.219	2544677	PROB	2.219	n/a	n/a	-999	20	[3, 8, 4]	15	FR1	0	R1332M
2544.977	2.799	2546896	PROB	2.799	n/a	n/a	-999	20	[6, 7, 3]	16	FR1	0	R1332M
2547.776	1.718	2549694	PROB	1.718	n/a	n/a	-999	20	[5, 1, 8]	14	FR1	0	R1332M
2549.494	1.7	2551412	PROB	1.7	n/a	n/a	-999	20	[3, 6, 2]	11	FR1	0	R1332M
2551.194	2.251	2553112	PROB	2.251	n/a	n/a	-999	20	[7, 5, 5]	17	FR1	0	R1332M
2553.445	1.95	2555363	PROB	1.95	n/a	n/a	-999	20	[6, 6, 9]	21	FR1	0	R1332M
2555.395	3.757	2557313	PROB	3.757	n/a	n/a	-999	20	[9, 8, 7]	26	FR1	0	R1332M
2559.152	0.011	2561070	STOP	n/a	n/a	n/a	-999	20	[-999, -999, -999]	n/a	FR1	0	R1332M
2559.163	0.696	2561081	DISTRACT_END	n/a	n/a	n/a	-999	20	[0, 0, 0]	n/a	FR1	0	R1332M
2559.859	1.604	2561777	RETRIEVAL_ORIENT_START	n/a	n/a	n/a	-999	20	[0, 0, 0]	n/a	FR1	0	R1332M
2561.463	0.001	2563381	RETRIEVAL_ORIENT_END	n/a	n/a	n/a	-999	20	[0, 0, 0]	n/a	FR1	0	R1332M
2561.464	1.841	2563382	REC_START	n/a	n/a	n/a	-999	20	[0, 0, 0]	n/a	FR1	0	R1332M
2563.305	1.57	2565223	REC_WORD	1.57	n/a	STREET	1	20	[0, 0, 0]	n/a	FR1	0	R1332M
2564.875	2.479	2566793	REC_WORD	2.479	n/a	STEAK	2	20	[0, 0, 0]	n/a	FR1	0	R1332M
2567.354	1.893	2569272	REC_WORD	1.893	n/a	GRASS	4	20	[0, 0, 0]	n/a	FR1	0	R1332M
2569.247	13.971	2571164	REC_WORD	13.971	n/a	TOOTH	11	20	[0, 0, 0]	n/a	FR1	0	R1332M
2583.218	8.255	2585135	REC_WORD	8.255	n/a	LAWN	-999	20	[0, 0, 0]	n/a	FR1	0	R1332M
2591.473	0.0	2593389	TRIAL_END	n/a	n/a	n/a	-999	20	[0, 0, 0]	n/a	FR1	0	R1332M
2591.473	0.016	2593389	REC_END	n/a	n/a	n/a	-999	20	[0, 0, 0]	n/a	FR1	0	R1332M
2591.489	0.0	2593405	TRIAL_START	n/a	n/a	n/a	-999	21	[0, 0, 0]	n/a	FR1	0	R1332M
2591.489	0.001	2593405	TRIAL	n/a	n/a	n/a	-999	21	[0, 0, 0]	n/a	FR1	0	R1332M
2591.49	13.598	2593406	WAITING_START	n/a	n/a	n/a	-999	21	[0, 0, 0]	n/a	FR1	0	R1332M
2605.088	0.001	2607004	WAITING_END	n/a	n/a	n/a	-999	21	[0, 0, 0]	n/a	FR1	0	R1332M
2605.089	10.429	2607005	COUNTDOWN_START	n/a	n/a	n/a	-999	21	[0, 0, 0]	n/a	FR1	0	R1332M
2615.518	0.001	2617433	COUNTDOWN_END	n/a	n/a	n/a	-999	21	[0, 0, 0]	n/a	FR1	0	R1332M
2615.519	1.071	2617434	ORIENT_START	n/a	n/a	n/a	-999	21	[0, 0, 0]	n/a	FR1	0	R1332M
2616.59	0.0	2618505	ORIENT_END	n/a	n/a	n/a	-999	21	[0, 0, 0]	n/a	FR1	0	R1332M
2616.59	0.894	2618505	ENCODING_START	n/a	n/a	n/a	-999	21	[0, 0, 0]	n/a	FR1	0	R1332M
2617.484	1.624	2619399	WORD	n/a	n/a	NOSE	1	21	[0, 0, 0]	n/a	FR1	0	R1332M
2619.108	1.103	2621023	WORD_OFF	n/a	n/a	NOSE	1	21	[0, 0, 0]	n/a	FR1	0	R1332M
2620.211	1.631	2622126	WORD	n/a	n/a	RAIN	2	21	[0, 0, 0]	n/a	FR1	0	R1332M
2621.842	0.914	2623757	WORD_OFF	n/a	n/a	RAIN	2	21	[0, 0, 0]	n/a	FR1	0	R1332M
2622.756	1.619	2624671	WORD	n/a	n/a	PET	3	21	[0, 0, 0]	n/a	FR1	0	R1332M
2624.375	0.867	2626290	WORD_OFF	n/a	n/a	PET	3	21	[0, 0, 0]	n/a	FR1	0	R1332M
2625.242	1.634	2627157	WORD	n/a	n/a	SEED	4	21	[0, 0, 0]	n/a	FR1	0	R1332M
2626.876	1.121	2628791	WORD_OFF	n/a	n/a	SEED	4	21	[0, 0, 0]	n/a	FR1	0	R1332M
2627.997	1.628	2629912	WORD	n/a	n/a	SPARK	5	21	[0, 0, 0]	n/a	FR1	0	R1332M
2629.625	0.785	2631540	WORD_OFF	n/a	n/a	SPARK	5	21	[0, 0, 0]	n/a	FR1	0	R1332M
2630.41	1.634	2632325	WORD	n/a	n/a	BOMB	6	21	[0, 0, 0]	n/a	FR1	0	R1332M
2632.044	0.811	2633958	WORD_OFF	n/a	n/a	BOMB	6	21	[0, 0, 0]	n/a	FR1	0	R1332M
2632.855	1.622	2634769	WORD	n/a	n/a	ROOF	7	21	[0, 0, 0]	n/a	FR1	0	R1332M
2634.477	0.869	2636391	WORD_OFF	n/a	n/a	ROOF	7	21	[0, 0, 0]	n/a	FR1	0	R1332M
2635.346	1.632	2637260	WORD	n/a	n/a	CHIN	8	21	[0, 0, 0]	n/a	FR1	0	R1332M
2636.978	1.121	2638892	WORD_OFF	n/a	n/a	CHIN	8	21	[0, 0, 0]	n/a	FR1	0	R1332M
2638.099	1.629	2640013	WORD	n/a	n/a	BEE	9	21	[0, 0, 0]	n/a	FR1	0	R1332M
2639.728	0.897	2641642	WORD_OFF	n/a	n/a	BEE	9	21	[0, 0, 0]	n/a	FR1	0	R1332M
2640.625	1.637	2642539	WORD	n/a	n/a	BAT	10	21	[0, 0, 0]	n/a	FR1	0	R1332M
2642.262	1.08	2644176	WORD_OFF	n/a	n/a	BAT	10	21	[0, 0, 0]	n/a	FR1	0	R1332M
2643.342	1.637	2645256	WORD	n/a	n/a	BENCH	11	21	[0, 0, 0]	n/a	FR1	0	R1332M
2644.979	1.102	2646893	WORD_OFF	n/a	n/a	BENCH	11	21	[0, 0, 0]	n/a	FR1	0	R1332M
2646.081	1.631	2647995	WORD	n/a	n/a	CAR	12	21	[0, 0, 0]	n/a	FR1	0	R1332M
2647.712	0.001	2649626	WORD_OFF	n/a	n/a	CAR	12	21	[0, 0, 0]	n/a	FR1	0	R1332M
2647.713	0.0	2649627	ENCODING_END	n/a	n/a	n/a	-999	21	[0, 0, 0]	n/a	FR1	0	R1332M
2647.713	0.0	2649627	DISTRACT_START	n/a	n/a	n/a	-999	21	[0, 0, 0]	n/a	FR1	0	R1332M
2647.713	0.016	2649627	START	n/a	n/a	n/a	-999	21	[-999, -999, -999]	n/a	FR1	0	R1332M
2647.729	3.067	2649643	PROB	3.067	n/a	n/a	-999	21	[5, 7, 1]	13	FR1	0	R1332M
2650.796	3.152	2652710	PROB	3.152	n/a	n/a	-999	21	[8, 6, 6]	20	FR1	0	R1332M
2653.948	2.3	2655861	PROB	2.3	n/a	n/a	-999	21	[3, 4, 5]	12	FR1	0	R1332M
2656.248	2.383	2658161	PROB	2.383	n/a	n/a	-999	21	[4, 4, 7]	15	FR1	0	R1332M
2658.631	2.034	2660544	PROB	2.034	n/a	n/a	-999	21	[6, 3, 2]	11	FR1	0	R1332M
2660.665	3.601	2662578	PROB	3.601	n/a	n/a	-999	21	[6, 2, 4]	12	FR1	0	R1332M
2664.266	3.417	2666179	PROB	3.417	n/a	n/a	-999	21	[8, 7, 4]	19	FR1	0	R1332M
2667.683	3.618	2669596	PROB	3.618	n/a	n/a	-999	21	[5, 4, 5]	14	FR1	0	R1332M
2671.301	0.017	2673214	STOP	n/a	n/a	n/a	-999	21	[-999, -999, -999]	n/a	FR1	0	R1332M
2671.318	0.603	2673231	DISTRACT_END	n/a	n/a	n/a	-999	21	[0, 0, 0]	n/a	FR1	0	R1332M
2671.921	1.713	2673834	RETRIEVAL_ORIENT_START	n/a	n/a	n/a	-999	21	[0, 0, 0]	n/a	FR1	0	R1332M
2673.634	0.0	2675547	RETRIEVAL_ORIENT_END	n/a	n/a	n/a	-999	21	[0, 0, 0]	n/a	FR1	0	R1332M
2673.634	0.548	2675547	REC_START	n/a	n/a	n/a	-999	21	[0, 0, 0]	n/a	FR1	0	R1332M
2674.182	1.577	2676095	REC_WORD_VV	1.577	n/a	<>	-999	21	[0, 0, 0]	n/a	FR1	0	R1332M
2675.759	1.792	2677671	REC_WORD	1.792	n/a	NOSE	1	21	[0, 0, 0]	n/a	FR1	0	R1332M
2677.551	2.09	2679463	REC_WORD	2.09	n/a	RAIN	2	21	[0, 0, 0]	n/a	FR1	0	R1332M
2679.641	3.833	2681553	REC_WORD	3.833	n/a	CHIN	8	21	[0, 0, 0]	n/a	FR1	0	R1332M
2683.474	8.989	2685386	REC_WORD	8.989	n/a	BENCH	11	21	[0, 0, 0]	n/a	FR1	0	R1332M
2692.463	7.305	2694375	REC_WORD	7.305	n/a	BAT	10	21	[0, 0, 0]	n/a	FR1	0	R1332M
2699.768	3.876	2701679	REC_WORD	3.876	n/a	SEED	4	21	[0, 0, 0]	n/a	FR1	0	R1332M
2703.644	0.0	2705555	REC_END	n/a	n/a	n/a	-999	21	[0, 0, 0]	n/a	FR1	0	R1332M
2703.644	0.014	2705555	TRIAL_END	n/a	n/a	n/a	-999	21	[0, 0, 0]	n/a	FR1	0	R1332M
2703.658	0.0	2705569	TRIAL	n/a	n/a	n/a	-999	22	[0, 0, 0]	n/a	FR1	0	R1332M
2703.658	0.001	2705569	TRIAL_START	n/a	n/a	n/a	-999	22	[0, 0, 0]	n/a	FR1	0	R1332M
2703.659	4.316	2705570	WAITING_START	n/a	n/a	n/a	-999	22	[0, 0, 0]	n/a	FR1	0	R1332M
2707.975	0.0	2709886	WAITING_END	n/a	n/a	n/a	-999	22	[0, 0, 0]	n/a	FR1	0	R1332M
2707.975	10.429	2709886	COUNTDOWN_START	n/a	n/a	n/a	-999	22	[0, 0, 0]	n/a	FR1	0	R1332M
2718.404	0.001	2720314	COUNTDOWN_END	n/a	n/a	n/a	-999	22	[0, 0, 0]	n/a	FR1	0	R1332M
2718.405	1.022	2720315	ORIENT_START	n/a	n/a	n/a	-999	22	[0, 0, 0]	n/a	FR1	0	R1332M
2719.427	0.001	2721337	ORIENT_END	n/a	n/a	n/a	-999	22	[0, 0, 0]	n/a	FR1	0	R1332M
2719.428	1.116	2721338	ENCODING_START	n/a	n/a	n/a	-999	22	[0, 0, 0]	n/a	FR1	0	R1332M
2720.544	1.634	2722454	WORD	n/a	n/a	DEER	1	22	[0, 0, 0]	n/a	FR1	0	R1332M
2722.178	0.882	2724088	WORD_OFF	n/a	n/a	DEER	1	22	[0, 0, 0]	n/a	FR1	0	R1332M
2723.06	1.634	2724970	WORD	n/a	n/a	DOOR	2	22	[0, 0, 0]	n/a	FR1	0	R1332M
2724.694	1.011	2726604	WORD_OFF	n/a	n/a	DOOR	2	22	[0, 0, 0]	n/a	FR1	0	R1332M
2725.705	1.624	2727615	WORD	n/a	n/a	ARK	3	22	[0, 0, 0]	n/a	FR1	0	R1332M
2727.329	1.033	2729239	WORD_OFF	n/a	n/a	ARK	3	22	[0, 0, 0]	n/a	FR1	0	R1332M
2728.362	1.634	2730272	WORD	n/a	n/a	SHIELD	4	22	[0, 0, 0]	n/a	FR1	0	R1332M
2729.996	1.026	2731906	WORD_OFF	n/a	n/a	SHIELD	4	22	[0, 0, 0]	n/a	FR1	0	R1332M
2731.022	1.623	2732932	WORD	n/a	n/a	FENCE	5	22	[0, 0, 0]	n/a	FR1	0	R1332M
2732.645	0.785	2734555	WORD_OFF	n/a	n/a	FENCE	5	22	[0, 0, 0]	n/a	FR1	0	R1332M
2733.43	1.634	2735340	WORD	n/a	n/a	EGG	6	22	[0, 0, 0]	n/a	FR1	0	R1332M
2735.064	0.854	2736974	WORD_OFF	n/a	n/a	EGG	6	22	[0, 0, 0]	n/a	FR1	0	R1332M
2735.918	1.628	2737828	WORD	n/a	n/a	SUN	7	22	[0, 0, 0]	n/a	FR1	0	R1332M
2737.546	0.952	2739456	WORD_OFF	n/a	n/a	SUN	7	22	[0, 0, 0]	n/a	FR1	0	R1332M
2738.498	1.633	2740407	WORD	n/a	n/a	FOOT	8	22	[0, 0, 0]	n/a	FR1	0	R1332M
2740.131	1.034	2742040	WORD_OFF	n/a	n/a	FOOT	8	22	[0, 0, 0]	n/a	FR1	0	R1332M
2741.165	1.632	2743074	WORD	n/a	n/a	WOOD	9	22	[0, 0, 0]	n/a	FR1	0	R1332M
