onset	duration	sample	trial_type	response_time	stim_file	item_name	serialpos	list	test	answer	experiment	session	subject
0.0	17.958	135341	SESS_START	n/a	n/a	n/a	-999	-999	[0, 0, 0]	n/a	FR1	0	R1101T
17.958	10.428	153298	COUNTDOWN_START	n/a	n/a	n/a	-999	-999	[0, 0, 0]	n/a	FR1	0	R1101T
28.386	3.608	163726	COUNTDOWN_END	n/a	n/a	n/a	-999	-999	[0, 0, 0]	n/a	FR1	0	R1101T
31.994	2.467	167333	PRACTICE_WORD	n/a	n/a	FLOOD	1	-1	[0, 0, 0]	n/a	FR1	0	R1101T
34.461	2.484	169800	PRACTICE_WORD	n/a	n/a	ATTIC	2	-1	[0, 0, 0]	n/a	FR1	0	R1101T
36.945	2.517	172284	PRACTICE_WORD	n/a	n/a	COTTON	3	-1	[0, 0, 0]	n/a	FR1	0	R1101T
39.462	2.467	174801	PRACTICE_WORD	n/a	n/a	CAMEL	4	-1	[0, 0, 0]	n/a	FR1	0	R1101T
41.929	2.385	177268	PRACTICE_WORD	n/a	n/a	BEAM	5	-1	[0, 0, 0]	n/a	FR1	0	R1101T
44.314	2.399	179653	PRACTICE_WORD	n/a	n/a	RING	6	-1	[0, 0, 0]	n/a	FR1	0	R1101T
46.713	2.5	182052	PRACTICE_WORD	n/a	n/a	TONGUE	7	-1	[0, 0, 0]	n/a	FR1	0	R1101T
49.213	2.618	184552	PRACTICE_WORD	n/a	n/a	CHEST	8	-1	[0, 0, 0]	n/a	FR1	0	R1101T
51.831	2.55	187169	PRACTICE_WORD	n/a	n/a	IRON	9	-1	[0, 0, 0]	n/a	FR1	0	R1101T
54.381	2.451	189719	PRACTICE_WORD	n/a	n/a	WAGON	10	-1	[0, 0, 0]	n/a	FR1	0	R1101T
56.832	2.451	192170	PRACTICE_WORD	n/a	n/a	RHINO	11	-1	[0, 0, 0]	n/a	FR1	0	R1101T
59.283	1.616	194621	PRACTICE_WORD	n/a	n/a	WATCH	12	-1	[0, 0, 0]	n/a	FR1	0	R1101T
60.899	0.0	196237	PRACTICE_DISTRACT_START	n/a	n/a	n/a	-999	-1	[0, 0, 0]	n/a	FR1	0	R1101T
60.899	0.017	196237	START	n/a	n/a	n/a	-999	-1	[-999, -999, -999]	n/a	FR1	0	R1101T
60.916	10.468	196254	PROB	10.468	n/a	n/a	-999	-1	[4, 7, 6]	17	FR1	0	R1101T
71.384	5.434	206721	PROB	5.434	n/a	n/a	-999	-1	[4, 6, 9]	19	FR1	0	R1101T
76.818	4.398	212155	PROB	4.398	n/a	n/a	-999	-1	[7, 1, 9]	17	FR1	0	R1101T
81.216	0.021	216553	STOP	n/a	n/a	n/a	-999	-1	[-999, -999, -999]	n/a	FR1	0	R1101T
81.237	0.618	216574	PRACTICE_DISTRACT_END	n/a	n/a	n/a	-999	-1	[0, 0, 0]	n/a	FR1	0	R1101T
81.855	30.515	217192	PRACTICE_REC_START	n/a	n/a	n/a	-999	-1	[0, 0, 0]	n/a	FR1	0	R1101T
112.37	16.091	247705	PRACTICE_REC_END	n/a	n/a	n/a	-999	-1	[0, 0, 0]	n/a	FR1	0	R1101T
128.461	0.0	263796	TRIAL	n/a	n/a	n/a	-999	1	[0, 0, 0]	n/a	FR1	0	R1101T
128.461	10.428	263796	COUNTDOWN_START	n/a	n/a	n/a	-999	1	[0, 0, 0]	n/a	FR1	0	R1101T
138.889	0.008	274223	COUNTDOWN_END	n/a	n/a	n/a	-999	1	[0, 0, 0]	n/a	FR1	0	R1101T
138.897	2.633	274231	ORIENT	n/a	n/a	n/a	-999	1	[0, 0, 0]	n/a	FR1	0	R1101T
141.53	2.467	276864	WORD	n/a	wordpools/wordpool_EN.txt	NET	1	1	[0, 0, 0]	n/a	FR1	0	R1101T
143.997	2.451	279331	WORD	n/a	wordpools/wordpool_EN.txt	MOLE	2	1	[0, 0, 0]	n/a	FR1	0	R1101T
146.448	2.467	281782	WORD	n/a	wordpools/wordpool_EN.txt	THREAD	3	1	[0, 0, 0]	n/a	FR1	0	R1101T
148.915	2.584	284249	WORD	n/a	wordpools/wordpool_EN.txt	STAR	4	1	[0, 0, 0]	n/a	FR1	0	R1101T
151.499	2.4	286833	WORD	n/a	wordpools/wordpool_EN.txt	SHELL	5	1	[0, 0, 0]	n/a	FR1	0	R1101T
153.899	2.451	289232	WORD	n/a	wordpools/wordpool_EN.txt	SNOW	6	1	[0, 0, 0]	n/a	FR1	0	R1101T
156.35	2.45	291683	WORD	n/a	wordpools/wordpool_EN.txt	SHEET	7	1	[0, 0, 0]	n/a	FR1	0	R1101T
158.8	2.384	294133	WORD	n/a	wordpools/wordpool_EN.txt	BALL	8	1	[0, 0, 0]	n/a	FR1	0	R1101T
161.184	2.617	296517	WORD	n/a	wordpools/wordpool_EN.txt	CLOTH	9	1	[0, 0, 0]	n/a	FR1	0	R1101T
163.801	2.435	299134	WORD	n/a	wordpools/wordpool_EN.txt	CLOUD	10	1	[0, 0, 0]	n/a	FR1	0	R1101T
166.236	2.616	301569	WORD	n/a	wordpools/wordpool_EN.txt	WHEEL	11	1	[0, 0, 0]	n/a	FR1	0	R1101T
168.852	1.617	304185	WORD	n/a	wordpools/wordpool_EN.txt	SHARK	12	1	[0, 0, 0]	n/a	FR1	0	R1101T
170.469	0.001	305802	DISTRACT_START	n/a	n/a	n/a	-999	1	[0, 0, 0]	n/a	FR1	0	R1101T
170.47	0.016	305803	START	n/a	n/a	n/a	-999	1	[-999, -999, -999]	n/a	FR1	0	R1101T
170.486	5.934	305819	PROB	5.934	n/a	n/a	-999	1	[4, 8, 3]	15	FR1	0	R1101T
176.42	4.117	311752	PROB	4.117	n/a	n/a	-999	1	[3, 6, 6]	15	FR1	0	R1101T
180.537	4.368	315869	PROB	4.368	n/a	n/a	-999	1	[3, 1, 7]	11	FR1	0	R1101T
184.905	5.067	320237	PROB	5.067	n/a	n/a	-999	1	[6, 3, 7]	16	FR1	0	R1101T
189.972	5.716	325304	PROB	5.716	n/a	n/a	-999	1	[8, 1, 2]	11	FR1	0	R1101T
195.688	0.019	331019	STOP	n/a	n/a	n/a	-999	1	[-999, -999, -999]	n/a	FR1	0	R1101T
195.707	1.221	331038	DISTRACT_END	n/a	n/a	n/a	-999	1	[0, 0, 0]	n/a	FR1	0	R1101T
196.928	1.381	332259	REC_START	n/a	n/a	n/a	-999	1	[0, 0, 0]	n/a	FR1	0	R1101T
198.309	3.912	333640	REC_WORD	3.912	n/a	BALL	-999	1	[0, 0, 0]	n/a	FR1	0	R1101T
202.221	7.995	337552	REC_WORD	7.995	n/a	THREAD	-999	1	[0, 0, 0]	n/a	FR1	0	R1101T
210.216	15.052	345547	REC_WORD	15.052	n/a	NET	-999	1	[0, 0, 0]	n/a	FR1	0	R1101T
225.268	1.667	360598	REC_WORD	1.667	n/a	SHEET	-999	1	[0, 0, 0]	n/a	FR1	0	R1101T
226.935	3.778	362265	REC_END	n/a	n/a	n/a	-999	1	[0, 0, 0]	n/a	FR1	0	R1101T
230.713	0.0	366043	TRIAL	n/a	n/a	n/a	-999	2	[0, 0, 0]	n/a	FR1	0	R1101T
230.713	10.428	366043	COUNTDOWN_START	n/a	n/a	n/a	-999	2	[0, 0, 0]	n/a	FR1	0	R1101T
241.141	0.007	376470	COUNTDOWN_END	n/a	n/a	n/a	-999	2	[0, 0, 0]	n/a	FR1	0	R1101T
241.148	2.434	376477	ORIENT	n/a	n/a	n/a	-999	2	[0, 0, 0]	n/a	FR1	0	R1101T
243.582	2.4	378911	WORD	n/a	wordpools/wordpool_EN.txt	KEY	1	2	[0, 0, 0]	n/a	FR1	0	R1101T
245.982	2.534	381311	WORD	n/a	wordpools/wordpool_EN.txt	SCHOOL	2	2	[0, 0, 0]	n/a	FR1	0	R1101T
248.516	2.501	383845	WORD	n/a	wordpools/wordpool_EN.txt	PIE	3	2	[0, 0, 0]	n/a	FR1	0	R1101T
251.017	2.467	386346	WORD	n/a	wordpools/wordpool_EN.txt	VASE	4	2	[0, 0, 0]	n/a	FR1	0	R1101T
253.484	2.417	388812	WORD	n/a	wordpools/wordpool_EN.txt	STRAW	5	2	[0, 0, 0]	n/a	FR1	0	R1101T
255.901	2.517	391229	WORD	n/a	wordpools/wordpool_EN.txt	CHIEF	6	2	[0, 0, 0]	n/a	FR1	0	R1101T
258.418	2.584	393746	WORD	n/a	wordpools/wordpool_EN.txt	BOY	7	2	[0, 0, 0]	n/a	FR1	0	R1101T
261.002	2.6	396330	WORD	n/a	wordpools/wordpool_EN.txt	BAT	8	2	[0, 0, 0]	n/a	FR1	0	R1101T
263.602	2.468	398930	WORD	n/a	wordpools/wordpool_EN.txt	PHONE	9	2	[0, 0, 0]	n/a	FR1	0	R1101T
266.07	2.583	401398	WORD	n/a	wordpools/wordpool_EN.txt	NOSE	10	2	[0, 0, 0]	n/a	FR1	0	R1101T
268.653	2.619	403981	WORD	n/a	wordpools/wordpool_EN.txt	HOOF	11	2	[0, 0, 0]	n/a	FR1	0	R1101T
271.272	1.616	406600	WORD	n/a	wordpools/wordpool_EN.txt	COIN	12	2	[0, 0, 0]	n/a	FR1	0	R1101T
272.888	0.0	408216	DISTRACT_START	n/a	n/a	n/a	-999	2	[0, 0, 0]	n/a	FR1	0	R1101T
272.888	0.016	408216	START	n/a	n/a	n/a	-999	2	[-999, -999, -999]	n/a	FR1	0	R1101T
272.904	5.319	408232	PROB	5.319	n/a	n/a	-999	2	[5, 1, 2]	8	FR1	0	R1101T
278.223	2.733	413550	PROB	2.733	n/a	n/a	-999	2	[5, 3, 1]	9	FR1	0	R1101T
280.956	4.8	416283	PROB	4.8	n/a	n/a	-999	2	[2, 9, 4]	15	FR1	0	R1101T
285.756	4.985	421083	PROB	4.985	n/a	n/a	-999	2	[8, 3, 6]	17	FR1	0	R1101T
290.741	6.972	426068	PROB	6.972	n/a	n/a	-999	2	[2, 4, 9]	15	FR1	0	R1101T
297.713	0.012	433039	STOP	n/a	n/a	n/a	-999	2	[-999, -999, -999]	n/a	FR1	0	R1101T
297.725	1.168	433051	DISTRACT_END	n/a	n/a	n/a	-999	2	[0, 0, 0]	n/a	FR1	0	R1101T
298.893	1.38	434219	REC_START	n/a	n/a	n/a	-999	2	[0, 0, 0]	n/a	FR1	0	R1101T
300.273	0.868	435599	REC_WORD	0.868	n/a	BOY	-999	2	[0, 0, 0]	n/a	FR1	0	R1101T
301.141	1.192	436467	REC_WORD	1.192	n/a	SCHOOL	-999	2	[0, 0, 0]	n/a	FR1	0	R1101T
302.333	5.995	437659	REC_WORD	5.995	n/a	KEY	-999	2	[0, 0, 0]	n/a	FR1	0	R1101T
308.328	20.575	443654	REC_WORD	20.575	n/a	COIN	-999	2	[0, 0, 0]	n/a	FR1	0	R1101T
328.903	3.595	464228	REC_END	n/a	n/a	n/a	-999	2	[0, 0, 0]	n/a	FR1	0	R1101T
332.498	0.0	467823	TRIAL	n/a	n/a	n/a	-999	3	[0, 0, 0]	n/a	FR1	0	R1101T
332.498	10.428	467823	COUNTDOWN_START	n/a	n/a	n/a	-999	3	[0, 0, 0]	n/a	FR1	0	R1101T
342.926	0.008	478250	COUNTDOWN_END	n/a	n/a	n/a	-999	3	[0, 0, 0]	n/a	FR1	0	R1101T
342.934	2.55	478258	ORIENT	n/a	n/a	n/a	-999	3	[0, 0, 0]	n/a	FR1	0	R1101T
345.484	2.601	480808	WORD	n/a	wordpools/wordpool_EN.txt	MOTH	1	3	[0, 0, 0]	n/a	FR1	0	R1101T
348.085	2.4	483409	WORD	n/a	wordpools/wordpool_EN.txt	SHIELD	2	3	[0, 0, 0]	n/a	FR1	0	R1101T
350.485	2.617	485809	WORD	n/a	wordpools/wordpool_EN.txt	FUDGE	3	3	[0, 0, 0]	n/a	FR1	0	R1101T
353.102	2.417	488426	WORD	n/a	wordpools/wordpool_EN.txt	POND	4	3	[0, 0, 0]	n/a	FR1	0	R1101T
355.519	2.467	490842	WORD	n/a	wordpools/wordpool_EN.txt	SAIL	5	3	[0, 0, 0]	n/a	FR1	0	R1101T
357.986	2.617	493309	WORD	n/a	wordpools/wordpool_EN.txt	BEE	6	3	[0, 0, 0]	n/a	FR1	0	R1101T
360.603	2.484	495926	WORD	n/a	wordpools/wordpool_EN.txt	ROOT	7	3	[0, 0, 0]	n/a	FR1	0	R1101T
363.087	2.634	498410	WORD	n/a	wordpools/wordpool_EN.txt	BOAT	8	3	[0, 0, 0]	n/a	FR1	0	R1101T
365.721	2.518	501044	WORD	n/a	wordpools/wordpool_EN.txt	ANT	9	3	[0, 0, 0]	n/a	FR1	0	R1101T
368.239	2.6	503562	WORD	n/a	wordpools/wordpool_EN.txt	WAVE	10	3	[0, 0, 0]	n/a	FR1	0	R1101T
370.839	2.434	506162	WORD	n/a	wordpools/wordpool_EN.txt	SPONGE	11	3	[0, 0, 0]	n/a	FR1	0	R1101T
373.273	1.616	508596	WORD	n/a	wordpools/wordpool_EN.txt	BRANCH	12	3	[0, 0, 0]	n/a	FR1	0	R1101T
374.889	0.001	510212	DISTRACT_START	n/a	n/a	n/a	-999	3	[0, 0, 0]	n/a	FR1	0	R1101T
374.89	0.016	510213	START	n/a	n/a	n/a	-999	3	[-999, -999, -999]	n/a	FR1	0	R1101T
374.906	3.402	510229	PROB	3.402	n/a	n/a	-999	3	[4, 3, 2]	9	FR1	0	R1101T
378.308	5.1	513630	PROB	5.1	n/a	n/a	-999	3	[4, 7, 3]	14	FR1	0	R1101T
383.408	4.184	518730	PROB	4.184	n/a	n/a	-999	3	[7, 4, 2]	13	FR1	0	R1101T
387.592	6.134	522914	PROB	6.134	n/a	n/a	-999	3	[6, 5, 3]	14	FR1	0	R1101T
393.726	7.81	529048	PROB	7.81	n/a	n/a	-999	3	[6, 8, 8]	22	FR1	0	R1101T
401.536	0.008	536857	STOP	n/a	n/a	n/a	-999	3	[-999, -999, -999]	n/a	FR1	0	R1101T
401.544	1.034	536865	DISTRACT_END	n/a	n/a	n/a	-999	3	[0, 0, 0]	n/a	FR1	0	R1101T
402.578	30.011	537899	REC_START	n/a	n/a	n/a	-999	3	[0, 0, 0]	n/a	FR1	0	R1101T
432.589	0.003	567909	REC_WORD_VV	0.003	n/a	<>	-999	3	[0, 0, 0]	n/a	FR1	0	R1101T
432.592	2.975	567912	REC_END	n/a	n/a	n/a	-999	3	[0, 0, 0]	n/a	FR1	0	R1101T
435.567	0.0	570887	TRIAL	n/a	n/a	n/a	-999	4	[0, 0, 0]	n/a	FR1	0	R1101T
435.567	10.428	570887	COUNTDOWN_START	n/a	n/a	n/a	-999	4	[0, 0, 0]	n/a	FR1	0	R1101T
445.995	0.007	581314	COUNTDOWN_END	n/a	n/a	n/a	-999	4	[0, 0, 0]	n/a	FR1	0	R1101T
446.002	2.567	581321	ORIENT	n/a	n/a	n/a	-999	4	[0, 0, 0]	n/a	FR1	0	R1101T
448.569	2.384	583888	WORD	n/a	wordpools/wordpool_EN.txt	GLOVE	1	4	[0, 0, 0]	n/a	FR1	0	R1101T
450.953	2.551	586272	WORD	n/a	wordpools/wordpool_EN.txt	CHAIR	2	4	[0, 0, 0]	n/a	FR1	0	R1101T
453.504	2.583	588823	WORD	n/a	wordpools/wordpool_EN.txt	ARM	3	4	[0, 0, 0]	n/a	FR1	0	R1101T
456.087	2.518	591406	WORD	n/a	wordpools/wordpool_EN.txt	BOARD	4	4	[0, 0, 0]	n/a	FR1	0	R1101T
458.605	2.467	593923	WORD	n/a	wordpools/wordpool_EN.txt	FISH	5	4	[0, 0, 0]	n/a	FR1	0	R1101T
461.072	2.55	596390	WORD	n/a	wordpools/wordpool_EN.txt	SHIRT	6	4	[0, 0, 0]	n/a	FR1	0	R1101T
463.622	2.602	598940	WORD	n/a	wordpools/wordpool_EN.txt	TEETH	7	4	[0, 0, 0]	n/a	FR1	0	R1101T
466.224	2.382	601542	WORD	n/a	wordpools/wordpool_EN.txt	BARN	8	4	[0, 0, 0]	n/a	FR1	0	R1101T
468.606	2.551	603924	WORD	n/a	wordpools/wordpool_EN.txt	SHRIMP	9	4	[0, 0, 0]	n/a	FR1	0	R1101T
471.157	2.467	606475	WORD	n/a	wordpools/wordpool_EN.txt	CHALK	10	4	[0, 0, 0]	n/a	FR1	0	R1101T
473.624	2.434	608942	WORD	n/a	wordpools/wordpool_EN.txt	CLIFF	11	4	[0, 0, 0]	n/a	FR1	0	R1101T
476.058	1.617	611376	WORD	n/a	wordpools/wordpool_EN.txt	WORLD	12	4	[0, 0, 0]	n/a	FR1	0	R1101T
477.675	0.001	612992	DISTRACT_START	n/a	n/a	n/a	-999	4	[0, 0, 0]	n/a	FR1	0	R1101T
477.676	0.015	612993	START	n/a	n/a	n/a	-999	4	[-999, -999, -999]	n/a	FR1	0	R1101T
477.691	4.018	613008	PROB	4.018	n/a	n/a	-999	4	[3, 7, 3]	13	FR1	0	R1101T
481.709	4.134	617026	PROB	4.134	n/a	n/a	-999	4	[4, 9, 6]	19	FR1	0	R1101T
485.843	4.084	621160	PROB	4.084	n/a	n/a	-999	4	[2, 4, 9]	15	FR1	0	R1101T
489.927	4.151	625244	PROB	4.151	n/a	n/a	-999	4	[3, 1, 8]	12	FR1	0	R1101T
494.078	3.3	629395	PROB	3.3	n/a	n/a	-999	4	[9, 9, 1]	19	FR1	0	R1101T
497.378	4.478	632694	PROB	4.478	n/a	n/a	-999	4	[7, 1, 4]	12	FR1	0	R1101T
501.856	0.006	637172	STOP	n/a	n/a	n/a	-999	4	[-999, -999, -999]	n/a	FR1	0	R1101T
501.862	1.035	637178	DISTRACT_END	n/a	n/a	n/a	-999	4	[0, 0, 0]	n/a	FR1	0	R1101T
502.897	1.27	638213	REC_START	n/a	n/a	n/a	-999	4	[0, 0, 0]	n/a	FR1	0	R1101T
504.167	2.782	639483	REC_WORD	2.782	n/a	WORLD	-999	4	[0, 0, 0]	n/a	FR1	0	R1101T
506.949	13.344	642265	REC_WORD	13.344	n/a	CHAIR	-999	4	[0, 0, 0]	n/a	FR1	0	R1101T
520.293	7.434	655608	REC_WORD	7.434	n/a	ARM	-999	4	[0, 0, 0]	n/a	FR1	0	R1101T
527.727	5.18	663042	REC_WORD	5.18	n/a	NET	-999	4	[0, 0, 0]	n/a	FR1	0	R1101T
532.907	3.645	668222	REC_END	n/a	n/a	n/a	-999	4	[0, 0, 0]	n/a	FR1	0	R1101T
536.552	0.0	671867	TRIAL	n/a	n/a	n/a	-999	5	[0, 0, 0]	n/a	FR1	0	R1101T
536.552	10.428	671867	COUNTDOWN_START	n/a	n/a	n/a	-999	5	[0, 0, 0]	n/a	FR1	0	R1101T
546.98	0.007	682294	COUNTDOWN_END	n/a	n/a	n/a	-999	5	[0, 0, 0]	n/a	FR1	0	R1101T
546.987	2.501	682301	ORIENT	n/a	n/a	n/a	-999	5	[0, 0, 0]	n/a	FR1	0	R1101T
549.488	2.4	684802	WORD	n/a	wordpools/wordpool_EN.txt	BEAN	1	5	[0, 0, 0]	n/a	FR1	0	R1101T
551.888	2.418	687202	WORD	n/a	wordpools/wordpool_EN.txt	CRANE	2	5	[0, 0, 0]	n/a	FR1	0	R1101T
554.306	2.6	689620	WORD	n/a	wordpools/wordpool_EN.txt	GOAT	3	5	[0, 0, 0]	n/a	FR1	0	R1101T
556.906	2.45	692220	WORD	n/a	wordpools/wordpool_EN.txt	TOY	4	5	[0, 0, 0]	n/a	FR1	0	R1101T
559.356	2.501	694669	WORD	n/a	wordpools/wordpool_EN.txt	TOAD	5	5	[0, 0, 0]	n/a	FR1	0	R1101T
561.857	2.484	697170	WORD	n/a	wordpools/wordpool_EN.txt	TOAST	6	5	[0, 0, 0]	n/a	FR1	0	R1101T
564.341	2.433	699654	WORD	n/a	wordpools/wordpool_EN.txt	JAR	7	5	[0, 0, 0]	n/a	FR1	0	R1101T
566.774	2.434	702087	WORD	n/a	wordpools/wordpool_EN.txt	BRIDGE	8	5	[0, 0, 0]	n/a	FR1	0	R1101T
569.208	2.517	704521	WORD	n/a	wordpools/wordpool_EN.txt	BIRD	9	5	[0, 0, 0]	n/a	FR1	0	R1101T
571.725	2.401	707038	WORD	n/a	wordpools/wordpool_EN.txt	DUCK	10	5	[0, 0, 0]	n/a	FR1	0	R1101T
574.126	2.483	709439	WORD	n/a	wordpools/wordpool_EN.txt	COW	11	5	[0, 0, 0]	n/a	FR1	0	R1101T
576.609	1.618	711922	WORD	n/a	wordpools/wordpool_EN.txt	WORM	12	5	[0, 0, 0]	n/a	FR1	0	R1101T
578.227	0.001	713540	DISTRACT_START	n/a	n/a	n/a	-999	5	[0, 0, 0]	n/a	FR1	0	R1101T
578.228	0.016	713541	START	n/a	n/a	n/a	-999	5	[-999, -999, -999]	n/a	FR1	0	R1101T
578.244	3.7	713557	PROB	3.7	n/a	n/a	-999	5	[4, 9, 6]	19	FR1	0	R1101T
581.944	3.318	717256	PROB	3.318	n/a	n/a	-999	5	[4, 1, 3]	8	FR1	0	R1101T
585.262	3.916	720574	PROB	3.916	n/a	n/a	-999	5	[1, 6, 5]	12	FR1	0	R1101T
589.178	10.51	724490	PROB	10.51	n/a	n/a	-999	5	[8, 5, 7]	20	FR1	0	R1101T
599.688	0.009	734999	STOP	n/a	n/a	n/a	-999	5	[-999, -999, -999]	n/a	FR1	0	R1101T
599.697	1.167	735008	DISTRACT_END	n/a	n/a	n/a	-999	5	[0, 0, 0]	n/a	FR1	0	R1101T
600.864	2.347	736175	REC_START	n/a	n/a	n/a	-999	5	[0, 0, 0]	n/a	FR1	0	R1101T
603.211	2.38	738522	REC_WORD	2.38	n/a	WORM	-999	5	[0, 0, 0]	n/a	FR1	0	R1101T
605.591	3.324	740902	REC_WORD	3.324	n/a	COW	-999	5	[0, 0, 0]	n/a	FR1	0	R1101T
608.915	2.172	744226	REC_WORD	2.172	n/a	BIRD	-999	5	[0, 0, 0]	n/a	FR1	0	R1101T
611.087	19.791	746398	REC_WORD	19.791	n/a	DUCK	-999	5	[0, 0, 0]	n/a	FR1	0	R1101T
630.878	3.008	766188	REC_END	n/a	n/a	n/a	-999	5	[0, 0, 0]	n/a	FR1	0	R1101T
633.886	0.001	769196	COUNTDOWN_START	n/a	n/a	n/a	-999	6	[0, 0, 0]	n/a	FR1	0	R1101T
633.887	10.427	769197	TRIAL	n/a	n/a	n/a	-999	6	[0, 0, 0]	n/a	FR1	0	R1101T
644.314	0.009	779623	COUNTDOWN_END	n/a	n/a	n/a	-999	6	[0, 0, 0]	n/a	FR1	0	R1101T
644.323	2.549	779632	ORIENT	n/a	n/a	n/a	-999	6	[0, 0, 0]	n/a	FR1	0	R1101T
646.872	2.55	782181	WORD	n/a	wordpools/wordpool_EN.txt	STAIR	1	6	[0, 0, 0]	n/a	FR1	0	R1101T
649.422	2.484	784731	WORD	n/a	wordpools/wordpool_EN.txt	SMOKE	2	6	[0, 0, 0]	n/a	FR1	0	R1101T
651.906	2.402	787215	WORD	n/a	wordpools/wordpool_EN.txt	DART	3	6	[0, 0, 0]	n/a	FR1	0	R1101T
654.308	2.499	789617	WORD	n/a	wordpools/wordpool_EN.txt	PANTS	4	6	[0, 0, 0]	n/a	FR1	0	R1101T
656.807	2.518	792116	WORD	n/a	wordpools/wordpool_EN.txt	BADGE	5	6	[0, 0, 0]	n/a	FR1	0	R1101T
659.325	2.483	794634	WORD	n/a	wordpools/wordpool_EN.txt	CAR	6	6	[0, 0, 0]	n/a	FR1	0	R1101T
661.808	2.401	797116	WORD	n/a	wordpools/wordpool_EN.txt	WING	7	6	[0, 0, 0]	n/a	FR1	0	R1101T
664.209	2.483	799517	WORD	n/a	wordpools/wordpool_EN.txt	BRICK	8	6	[0, 0, 0]	n/a	FR1	0	R1101T
666.692	2.569	802000	WORD	n/a	wordpools/wordpool_EN.txt	FOG	9	6	[0, 0, 0]	n/a	FR1	0	R1101T
669.261	2.532	804569	WORD	n/a	wordpools/wordpool_EN.txt	TRASH	10	6	[0, 0, 0]	n/a	FR1	0	R1101T
671.793	2.617	807101	WORD	n/a	wordpools/wordpool_EN.txt	CANE	11	6	[0, 0, 0]	n/a	FR1	0	R1101T
674.41	1.617	809718	WORD	n/a	wordpools/wordpool_EN.txt	JAIL	12	6	[0, 0, 0]	n/a	FR1	0	R1101T
676.027	0.001	811335	DISTRACT_START	n/a	n/a	n/a	-999	6	[0, 0, 0]	n/a	FR1	0	R1101T
676.028	0.016	811336	START	n/a	n/a	n/a	-999	6	[-999, -999, -999]	n/a	FR1	0	R1101T
676.044	4.167	811352	PROB	4.167	n/a	n/a	-999	6	[5, 1, 9]	15	FR1	0	R1101T
680.211	6.235	815519	PROB	6.235	n/a	n/a	-999	6	[5, 9, 9]	23	FR1	0	R1101T
686.446	3.284	821753	PROB	3.284	n/a	n/a	-999	6	[2, 8, 6]	16	FR1	0	R1101T
689.73	3.784	825037	PROB	3.784	n/a	n/a	-999	6	[5, 7, 1]	13	FR1	0	R1101T
693.514	6.327	828821	PROB	6.327	n/a	n/a	-999	6	[9, 5, 8]	22	FR1	0	R1101T
699.841	0.007	835148	STOP	n/a	n/a	n/a	-999	6	[-999, -999, -999]	n/a	FR1	0	R1101T
699.848	1.201	835155	DISTRACT_END	n/a	n/a	n/a	-999	6	[0, 0, 0]	n/a	FR1	0	R1101T
701.049	4.957	836355	REC_START	n/a	n/a	n/a	-999	6	[0, 0, 0]	n/a	FR1	0	R1101T
706.006	13.036	841312	REC_WORD	13.036	n/a	JAIL	-999	6	[0, 0, 0]	n/a	FR1	0	R1101T
719.042	12.018	854348	REC_WORD	12.018	n/a	WING	-999	6	[0, 0, 0]	n/a	FR1	0	R1101T
731.06	3.311	866365	REC_END	n/a	n/a	n/a	-999	6	[0, 0, 0]	n/a	FR1	0	R1101T
734.371	0.001	869676	COUNTDOWN_START	n/a	n/a	n/a	-999	7	[0, 0, 0]	n/a	FR1	0	R1101T
734.372	10.427	869677	TRIAL	n/a	n/a	n/a	-999	7	[0, 0, 0]	n/a	FR1	0	R1101T
744.799	0.008	880103	COUNTDOWN_END	n/a	n/a	n/a	-999	7	[0, 0, 0]	n/a	FR1	0	R1101T
744.807	2.468	880111	ORIENT	n/a	n/a	n/a	-999	7	[0, 0, 0]	n/a	FR1	0	R1101T
747.275	2.583	882579	WORD	n/a	wordpools/wordpool_EN.txt	FAN	1	7	[0, 0, 0]	n/a	FR1	0	R1101T
749.858	2.401	885162	WORD	n/a	wordpools/wordpool_EN.txt	SIGN	2	7	[0, 0, 0]	n/a	FR1	0	R1101T
752.259	2.449	887563	WORD	n/a	wordpools/wordpool_EN.txt	FLAG	3	7	[0, 0, 0]	n/a	FR1	0	R1101T
754.708	2.602	890012	WORD	n/a	wordpools/wordpool_EN.txt	CROWN	4	7	[0, 0, 0]	n/a	FR1	0	R1101T
757.31	2.416	892614	WORD	n/a	wordpools/wordpool_EN.txt	POLE	5	7	[0, 0, 0]	n/a	FR1	0	R1101T
759.726	2.535	895030	WORD	n/a	wordpools/wordpool_EN.txt	NAIL	6	7	[0, 0, 0]	n/a	FR1	0	R1101T
762.261	2.516	897564	WORD	n/a	wordpools/wordpool_EN.txt	VEST	7	7	[0, 0, 0]	n/a	FR1	0	R1101T
764.777	2.468	900080	WORD	n/a	wordpools/wordpool_EN.txt	PURSE	8	7	[0, 0, 0]	n/a	FR1	0	R1101T
767.245	2.599	902548	WORD	n/a	wordpools/wordpool_EN.txt	PIN	9	7	[0, 0, 0]	n/a	FR1	0	R1101T
769.844	2.568	905147	WORD	n/a	wordpools/wordpool_EN.txt	ROSE	10	7	[0, 0, 0]	n/a	FR1	0	R1101T
772.412	2.517	907715	WORD	n/a	wordpools/wordpool_EN.txt	TANK	11	7	[0, 0, 0]	n/a	FR1	0	R1101T
774.929	1.617	910232	WORD	n/a	wordpools/wordpool_EN.txt	PEA	12	7	[0, 0, 0]	n/a	FR1	0	R1101T
776.546	0.0	911849	DISTRACT_START	n/a	n/a	n/a	-999	7	[0, 0, 0]	n/a	FR1	0	R1101T
776.546	0.016	911849	START	n/a	n/a	n/a	-999	7	[-999, -999, -999]	n/a	FR1	0	R1101T
776.562	3.001	911865	PROB	3.001	n/a	n/a	-999	7	[5, 2, 1]	8	FR1	0	R1101T
779.563	3.417	914866	PROB	3.417	n/a	n/a	-999	7	[3, 8, 7]	18	FR1	0	R1101T
782.98	6.735	918282	PROB	6.735	n/a	n/a	-999	7	[1, 8, 5]	14	FR1	0	R1101T
789.715	4.451	925017	PROB	4.451	n/a	n/a	-999	7	[5, 2, 8]	15	FR1	0	R1101T
794.166	7.698	929468	PROB	7.698	n/a	n/a	-999	7	[9, 3, 8]	20	FR1	0	R1101T
801.864	0.02	937166	STOP	n/a	n/a	n/a	-999	7	[-999, -999, -999]	n/a	FR1	0	R1101T
801.884	1.034	937186	DISTRACT_END	n/a	n/a	n/a	-999	7	[0, 0, 0]	n/a	FR1	0	R1101T
802.918	29.994	938219	REC_START	n/a	n/a	n/a	-999	7	[0, 0, 0]	n/a	FR1	0	R1101T
832.912	0.017	968212	REC_WORD_VV	0.017	n/a	<>	-999	7	[0, 0, 0]	n/a	FR1	0	R1101T
832.929	3.011	968229	REC_END	n/a	n/a	n/a	-999	7	[0, 0, 0]	n/a	FR1	0	R1101T
835.94	0.0	971240	TRIAL	n/a	n/a	n/a	-999	8	[0, 0, 0]	n/a	FR1	0	R1101T
835.94	10.428	971240	COUNTDOWN_START	n/a	n/a	n/a	-999	8	[0, 0, 0]	n/a	FR1	0	R1101T
846.368	0.007	981667	COUNTDOWN_END	n/a	n/a	n/a	-999	8	[0, 0, 0]	n/a	FR1	0	R1101T
846.375	2.584	981674	ORIENT	n/a	n/a	n/a	-999	8	[0, 0, 0]	n/a	FR1	0	R1101T
848.959	2.55	984258	WORD	n/a	wordpools/wordpool_EN.txt	HAND	1	8	[0, 0, 0]	n/a	FR1	0	R1101T
851.509	2.584	986808	WORD	n/a	wordpools/wordpool_EN.txt	ROOF	2	8	[0, 0, 0]	n/a	FR1	0	R1101T
854.093	2.517	989392	WORD	n/a	wordpools/wordpool_EN.txt	GLASS	3	8	[0, 0, 0]	n/a	FR1	0	R1101T
856.61	2.417	991909	WORD	n/a	wordpools/wordpool_EN.txt	PIPE	4	8	[0, 0, 0]	n/a	FR1	0	R1101T
859.027	2.501	994326	WORD	n/a	wordpools/wordpool_EN.txt	BROOM	5	8	[0, 0, 0]	n/a	FR1	0	R1101T
861.528	2.434	996827	WORD	n/a	wordpools/wordpool_EN.txt	ROPE	6	8	[0, 0, 0]	n/a	FR1	0	R1101T
863.962	2.45	999260	WORD	n/a	wordpools/wordpool_EN.txt	ELF	7	8	[0, 0, 0]	n/a	FR1	0	R1101T
866.412	2.567	1001710	WORD	n/a	wordpools/wordpool_EN.txt	MAT	8	8	[0, 0, 0]	n/a	FR1	0	R1101T
868.979	2.434	1004277	WORD	n/a	wordpools/wordpool_EN.txt	TRAY	9	8	[0, 0, 0]	n/a	FR1	0	R1101T
871.413	2.4	1006711	WORD	n/a	wordpools/wordpool_EN.txt	ROOM	10	8	[0, 0, 0]	n/a	FR1	0	R1101T
873.813	2.452	1009111	WORD	n/a	wordpools/wordpool_EN.txt	STORM	11	8	[0, 0, 0]	n/a	FR1	0	R1101T
876.265	1.616	1011563	WORD	n/a	wordpools/wordpool_EN.txt	WALL	12	8	[0, 0, 0]	n/a	FR1	0	R1101T
877.881	0.001	1013179	DISTRACT_START	n/a	n/a	n/a	-999	8	[0, 0, 0]	n/a	FR1	0	R1101T
877.882	0.015	1013180	START	n/a	n/a	n/a	-999	8	[-999, -999, -999]	n/a	FR1	0	R1101T
877.897	3.352	1013195	PROB	3.352	n/a	n/a	-999	8	[5, 5, 9]	19	FR1	0	R1101T
881.249	10.251	1016547	PROB	10.251	n/a	n/a	-999	8	[8, 8, 9]	25	FR1	0	R1101T
891.5	4.334	1026797	PROB	4.334	n/a	n/a	-999	8	[2, 9, 2]	13	FR1	0	R1101T
895.834	5.67	1031131	PROB	5.67	n/a	n/a	-999	8	[4, 1, 2]	7	FR1	0	R1101T
901.504	0.014	1036801	STOP	n/a	n/a	n/a	-999	8	[-999, -999, -999]	n/a	FR1	0	R1101T
901.518	1.151	1036815	DISTRACT_END	n/a	n/a	n/a	-999	8	[0, 0, 0]	n/a	FR1	0	R1101T
902.669	3.39	1037966	REC_START	n/a	n/a	n/a	-999	8	[0, 0, 0]	n/a	FR1	0	R1101T
906.059	1.816	1041355	REC_WORD	1.816	n/a	TRAY	-999	8	[0, 0, 0]	n/a	FR1	0	R1101T
907.875	5.902	1043171	REC_WORD	5.902	n/a	STORM	-999	8	[0, 0, 0]	n/a	FR1	0	R1101T
913.777	3.35	1049073	REC_WORD	3.35	n/a	ROOM	-999	8	[0, 0, 0]	n/a	FR1	0	R1101T
917.127	5.467	1052423	REC_WORD	5.467	n/a	ROOF	-999	8	[0, 0, 0]	n/a	FR1	0	R1101T
922.594	5.214	1057890	REC_WORD	5.214	n/a	HAND	-999	8	[0, 0, 0]	n/a	FR1	0	R1101T
927.808	4.875	1063103	REC_WORD	4.875	n/a	PIPE	-999	8	[0, 0, 0]	n/a	FR1	0	R1101T
932.683	6.809	1067978	REC_END	n/a	n/a	n/a	-999	8	[0, 0, 0]	n/a	FR1	0	R1101T
939.492	0.0	1074787	TRIAL	n/a	n/a	n/a	-999	9	[0, 0, 0]	n/a	FR1	0	R1101T
939.492	10.428	1074787	COUNTDOWN_START	n/a	n/a	n/a	-999	9	[0, 0, 0]	n/a	FR1	0	R1101T
949.92	0.007	1085214	COUNTDOWN_END	n/a	n/a	n/a	-999	9	[0, 0, 0]	n/a	FR1	0	R1101T
949.927	2.402	1085221	ORIENT	n/a	n/a	n/a	-999	9	[0, 0, 0]	n/a	FR1	0	R1101T
952.329	2.599	1087623	WORD	n/a	wordpools/wordpool_EN.txt	PIG	1	9	[0, 0, 0]	n/a	FR1	0	R1101T
954.928	2.567	1090222	WORD	n/a	wordpools/wordpool_EN.txt	BAG	2	9	[0, 0, 0]	n/a	FR1	0	R1101T
957.495	2.617	1092789	WORD	n/a	wordpools/wordpool_EN.txt	TOE	3	9	[0, 0, 0]	n/a	FR1	0	R1101T
960.112	2.517	1095406	WORD	n/a	wordpools/wordpool_EN.txt	BUSH	4	9	[0, 0, 0]	n/a	FR1	0	R1101T
962.629	2.568	1097923	WORD	n/a	wordpools/wordpool_EN.txt	HILL	5	9	[0, 0, 0]	n/a	FR1	0	R1101T
965.197	2.4	1100490	WORD	n/a	wordpools/wordpool_EN.txt	GATE	6	9	[0, 0, 0]	n/a	FR1	0	R1101T
967.597	2.617	1102890	WORD	n/a	wordpools/wordpool_EN.txt	FROG	7	9	[0, 0, 0]	n/a	FR1	0	R1101T
970.214	2.384	1105507	WORD	n/a	wordpools/wordpool_EN.txt	BOOT	8	9	[0, 0, 0]	n/a	FR1	0	R1101T
972.598	2.4	1107891	WORD	n/a	wordpools/wordpool_EN.txt	GUARD	9	9	[0, 0, 0]	n/a	FR1	0	R1101T
974.998	2.601	1110291	WORD	n/a	wordpools/wordpool_EN.txt	CHIN	10	9	[0, 0, 0]	n/a	FR1	0	R1101T
977.599	2.45	1112892	WORD	n/a	wordpools/wordpool_EN.txt	CAGE	11	9	[0, 0, 0]	n/a	FR1	0	R1101T
980.049	1.617	1115342	WORD	n/a	wordpools/wordpool_EN.txt	DOCK	12	9	[0, 0, 0]	n/a	FR1	0	R1101T
981.666	0.001	1116959	DISTRACT_START	n/a	n/a	n/a	-999	9	[0, 0, 0]	n/a	FR1	0	R1101T
981.667	0.016	1116960	START	n/a	n/a	n/a	-999	9	[-999, -999, -999]	n/a	FR1	0	R1101T
981.683	3.734	1116976	PROB	3.734	n/a	n/a	-999	9	[4, 3, 6]	13	FR1	0	R1101T
985.417	2.885	1120709	PROB	2.885	n/a	n/a	-999	9	[2, 1, 2]	5	FR1	0	R1101T
988.302	5.7	1123594	PROB	5.7	n/a	n/a	-999	9	[8, 4, 8]	20	FR1	0	R1101T
994.002	4.517	1129294	PROB	4.517	n/a	n/a	-999	9	[6, 1, 2]	9	FR1	0	R1101T
998.519	2.785	1133811	PROB	2.785	n/a	n/a	-999	9	[2, 7, 3]	12	FR1	0	R1101T
1001.304	6.009	1136596	PROB	6.009	n/a	n/a	-999	9	[9, 4, 7]	20	FR1	0	R1101T
1007.313	0.009	1142604	STOP	n/a	n/a	n/a	-999	9	[-999, -999, -999]	n/a	FR1	0	R1101T
1007.322	1.033	1142613	DISTRACT_END	n/a	n/a	n/a	-999	9	[0, 0, 0]	n/a	FR1	0	R1101T
1008.355	1.625	1143646	REC_START	n/a	n/a	n/a	-999	9	[0, 0, 0]	n/a	FR1	0	R1101T
1009.98	2.481	1145271	REC_WORD	2.481	n/a	GATE	-999	9	[0, 0, 0]	n/a	FR1	0	R1101T
1012.461	4.207	1147752	REC_WORD	4.207	n/a	HILL	-999	9	[0, 0, 0]	n/a	FR1	0	R1101T
1016.668	3.55	1151959	REC_WORD	3.55	n/a	FROG	-999	9	[0, 0, 0]	n/a	FR1	0	R1101T
1020.218	18.147	1155509	REC_WORD	18.147	n/a	PIG	-999	9	[0, 0, 0]	n/a	FR1	0	R1101T
1038.365	2.545	1173655	REC_END	n/a	n/a	n/a	-999	9	[0, 0, 0]	n/a	FR1	0	R1101T
1040.91	0.001	1176200	COUNTDOWN_START	n/a	n/a	n/a	-999	10	[0, 0, 0]	n/a	FR1	0	R1101T
1040.911	10.427	1176201	TRIAL	n/a	n/a	n/a	-999	10	[0, 0, 0]	n/a	FR1	0	R1101T
1051.338	0.008	1186627	COUNTDOWN_END	n/a	n/a	n/a	-999	10	[0, 0, 0]	n/a	FR1	0	R1101T
1051.346	2.6	1186635	ORIENT	n/a	n/a	n/a	-999	10	[0, 0, 0]	n/a	FR1	0	R1101T
1053.946	2.484	1189235	WORD	n/a	wordpools/wordpool_EN.txt	TAIL	1	10	[0, 0, 0]	n/a	FR1	0	R1101T
1056.43	2.55	1191719	WORD	n/a	wordpools/wordpool_EN.txt	FOOD	2	10	[0, 0, 0]	n/a	FR1	0	R1101T
1058.98	2.551	1194269	WORD	n/a	wordpools/wordpool_EN.txt	DEER	3	10	[0, 0, 0]	n/a	FR1	0	R1101T
1061.531	2.4	1196820	WORD	n/a	wordpools/wordpool_EN.txt	ARK	4	10	[0, 0, 0]	n/a	FR1	0	R1101T
1063.931	2.617	1199220	WORD	n/a	wordpools/wordpool_EN.txt	TREE	5	10	[0, 0, 0]	n/a	FR1	0	R1101T
1066.548	2.534	1201837	WORD	n/a	wordpools/wordpool_EN.txt	CALF	6	10	[0, 0, 0]	n/a	FR1	0	R1101T
1069.082	2.517	1204370	WORD	n/a	wordpools/wordpool_EN.txt	WOOD	7	10	[0, 0, 0]	n/a	FR1	0	R1101T
1071.599	2.501	1206887	WORD	n/a	wordpools/wordpool_EN.txt	TIE	8	10	[0, 0, 0]	n/a	FR1	0	R1101T
1074.1	2.5	1209388	WORD	n/a	wordpools/wordpool_EN.txt	RAKE	9	10	[0, 0, 0]	n/a	FR1	0	R1101T
1076.6	2.434	1211888	WORD	n/a	wordpools/wordpool_EN.txt	PEACH	10	10	[0, 0, 0]	n/a	FR1	0	R1101T
1079.034	2.517	1214322	WORD	n/a	wordpools/wordpool_EN.txt	FENCE	11	10	[0, 0, 0]	n/a	FR1	0	R1101T
1081.551	1.617	1216839	WORD	n/a	wordpools/wordpool_EN.txt	WEB	12	10	[0, 0, 0]	n/a	FR1	0	R1101T
1083.168	0.001	1218456	DISTRACT_START	n/a	n/a	n/a	-999	10	[0, 0, 0]	n/a	FR1	0	R1101T
1083.169	0.016	1218457	START	n/a	n/a	n/a	-999	10	[-999, -999, -999]	n/a	FR1	0	R1101T
1083.185	4.151	1218473	PROB	4.151	n/a	n/a	-999	10	[4, 3, 5]	12	FR1	0	R1101T
1087.336	3.517	1222623	PROB	3.517	n/a	n/a	-999	10	[3, 1, 1]	5	FR1	0	R1101T
1090.853	2.401	1226140	PROB	2.401	n/a	n/a	-999	10	[6, 4, 7]	17	FR1	0	R1101T
1093.254	3.483	1228541	PROB	3.483	n/a	n/a	-999	10	[1, 9, 8]	18	FR1	0	R1101T
1096.737	3.384	1232024	PROB	3.384	n/a	n/a	-999	10	[6, 1, 1]	8	FR1	0	R1101T
1100.121	7.192	1235408	PROB	7.192	n/a	n/a	-999	10	[9, 5, 3]	17	FR1	0	R1101T
1107.313	0.01	1242600	STOP	n/a	n/a	n/a	-999	10	[-999, -999, -999]	n/a	FR1	0	R1101T
1107.323	1.15	1242610	DISTRACT_END	n/a	n/a	n/a	-999	10	[0, 0, 0]	n/a	FR1	0	R1101T
1108.473	1.238	1243759	REC_START	n/a	n/a	n/a	-999	10	[0, 0, 0]	n/a	FR1	0	R1101T
1109.711	4.194	1244997	REC_WORD	4.194	n/a	RAKE	-999	10	[0, 0, 0]	n/a	FR1	0	R1101T
1113.905	11.348	1249191	REC_WORD	11.348	n/a	WEB	-999	10	[0, 0, 0]	n/a	FR1	0	R1101T
1125.253	13.234	1260539	REC_WORD	13.234	n/a	ROOM	-999	10	[0, 0, 0]	n/a	FR1	0	R1101T
1138.487	2.275	1273772	REC_END	n/a	n/a	n/a	-999	10	[0, 0, 0]	n/a	FR1	0	R1101T
1140.762	0.0	1276047	TRIAL	n/a	n/a	n/a	-999	11	[0, 0, 0]	n/a	FR1	0	R1101T
1140.762	10.428	1276047	COUNTDOWN_START	n/a	n/a	n/a	-999	11	[0, 0, 0]	n/a	FR1	0	R1101T
1151.19	0.007	1286474	COUNTDOWN_END	n/a	n/a	n/a	-999	11	[0, 0, 0]	n/a	FR1	0	R1101T
1151.197	2.484	1286481	ORIENT	n/a	n/a	n/a	-999	11	[0, 0, 0]	n/a	FR1	0	R1101T
1153.681	2.417	1288965	WORD	n/a	wordpools/wordpool_EN.txt	RUG	1	11	[0, 0, 0]	n/a	FR1	0	R1101T
1156.098	2.55	1291382	WORD	n/a	wordpools/wordpool_EN.txt	BATH	2	11	[0, 0, 0]	n/a	FR1	0	R1101T
1158.648	2.468	1293932	WORD	n/a	wordpools/wordpool_EN.txt	THUMB	3	11	[0, 0, 0]	n/a	FR1	0	R1101T
1161.116	2.617	1296400	WORD	n/a	wordpools/wordpool_EN.txt	LAWN	4	11	[0, 0, 0]	n/a	FR1	0	R1101T
1163.733	2.417	1299017	WORD	n/a	wordpools/wordpool_EN.txt	MUD	5	11	[0, 0, 0]	n/a	FR1	0	R1101T
1166.15	2.417	1301434	WORD	n/a	wordpools/wordpool_EN.txt	DOOR	6	11	[0, 0, 0]	n/a	FR1	0	R1101T
1168.567	2.417	1303850	WORD	n/a	wordpools/wordpool_EN.txt	ROAD	7	11	[0, 0, 0]	n/a	FR1	0	R1101T
1170.984	2.417	1306267	WORD	n/a	wordpools/wordpool_EN.txt	FOOT	8	11	[0, 0, 0]	n/a	FR1	0	R1101T
1173.401	2.601	1308684	WORD	n/a	wordpools/wordpool_EN.txt	HORN	9	11	[0, 0, 0]	n/a	FR1	0	R1101T
1176.002	2.55	1311285	WORD	n/a	wordpools/wordpool_EN.txt	SOAP	10	11	[0, 0, 0]	n/a	FR1	0	R1101T
1178.552	2.434	1313835	WORD	n/a	wordpools/wordpool_EN.txt	CUBE	11	11	[0, 0, 0]	n/a	FR1	0	R1101T
1180.986	1.617	1316269	WORD	n/a	wordpools/wordpool_EN.txt	SEAT	12	11	[0, 0, 0]	n/a	FR1	0	R1101T
1182.603	0.001	1317886	DISTRACT_START	n/a	n/a	n/a	-999	11	[0, 0, 0]	n/a	FR1	0	R1101T
1182.604	0.015	1317887	START	n/a	n/a	n/a	-999	11	[-999, -999, -999]	n/a	FR1	0	R1101T
1182.619	5.686	1317902	PROB	5.686	n/a	n/a	-999	11	[7, 2, 4]	13	FR1	0	R1101T
1188.305	3.316	1323588	PROB	3.316	n/a	n/a	-999	11	[4, 1, 3]	8	FR1	0	R1101T
1191.621	2.501	1326903	PROB	2.501	n/a	n/a	-999	11	[5, 5, 7]	17	FR1	0	R1101T
1194.122	3.517	1329404	PROB	3.517	n/a	n/a	-999	11	[5, 1, 3]	9	FR1	0	R1101T
1197.639	3.967	1332921	PROB	3.967	n/a	n/a	-999	11	[6, 8, 1]	15	FR1	0	R1101T
1201.606	4.954	1336888	PROB	4.954	n/a	n/a	-999	11	[2, 4, 1]	7	FR1	0	R1101T
1206.56	0.014	1341842	STOP	n/a	n/a	n/a	-999	11	[-999, -999, -999]	n/a	FR1	0	R1101T
1206.574	1.151	1341856	DISTRACT_END	n/a	n/a	n/a	-999	11	[0, 0, 0]	n/a	FR1	0	R1101T
1207.725	28.426	1343007	REC_START	n/a	n/a	n/a	-999	11	[0, 0, 0]	n/a	FR1	0	R1101T
1236.151	1.584	1371431	REC_WORD	1.584	n/a	RUG	-999	11	[0, 0, 0]	n/a	FR1	0	R1101T
1237.735	3.078	1373015	REC_END	n/a	n/a	n/a	-999	11	[0, 0, 0]	n/a	FR1	0	R1101T
1240.813	0.001	1376093	COUNTDOWN_START	n/a	n/a	n/a	-999	12	[0, 0, 0]	n/a	FR1	0	R1101T
1240.814	10.427	1376094	TRIAL	n/a	n/a	n/a	-999	12	[0, 0, 0]	n/a	FR1	0	R1101T
1251.241	0.009	1386520	COUNTDOWN_END	n/a	n/a	n/a	-999	12	[0, 0, 0]	n/a	FR1	0	R1101T
1251.25	2.449	1386529	ORIENT	n/a	n/a	n/a	-999	12	[0, 0, 0]	n/a	FR1	0	R1101T
1253.699	2.417	1388978	WORD	n/a	wordpools/wordpool_EN.txt	LAND	1	12	[0, 0, 0]	n/a	FR1	0	R1101T
1256.116	2.551	1391395	WORD	n/a	wordpools/wordpool_EN.txt	SQUARE	2	12	[0, 0, 0]	n/a	FR1	0	R1101T
1258.667	2.45	1393946	WORD	n/a	wordpools/wordpool_EN.txt	SPOON	3	12	[0, 0, 0]	n/a	FR1	0	R1101T
1261.117	2.534	1396396	WORD	n/a	wordpools/wordpool_EN.txt	GRAPE	4	12	[0, 0, 0]	n/a	FR1	0	R1101T
1263.651	2.484	1398930	WORD	n/a	wordpools/wordpool_EN.txt	FARM	5	12	[0, 0, 0]	n/a	FR1	0	R1101T
1266.135	2.517	1401414	WORD	n/a	wordpools/wordpool_EN.txt	STOOL	6	12	[0, 0, 0]	n/a	FR1	0	R1101T
1268.652	2.584	1403931	WORD	n/a	wordpools/wordpool_EN.txt	BLOOM	7	12	[0, 0, 0]	n/a	FR1	0	R1101T
1271.236	2.433	1406514	WORD	n/a	wordpools/wordpool_EN.txt	APE	8	12	[0, 0, 0]	n/a	FR1	0	R1101T
1273.669	2.568	1408947	WORD	n/a	wordpools/wordpool_EN.txt	FLOOR	9	12	[0, 0, 0]	n/a	FR1	0	R1101T
1276.237	2.6	1411515	WORD	n/a	wordpools/wordpool_EN.txt	RAIN	10	12	[0, 0, 0]	n/a	FR1	0	R1101T
1278.837	2.517	1414115	WORD	n/a	wordpools/wordpool_EN.txt	CUP	11	12	[0, 0, 0]	n/a	FR1	0	R1101T
1281.354	1.617	1416632	WORD	n/a	wordpools/wordpool_EN.txt	ROCK	12	12	[0, 0, 0]	n/a	FR1	0	R1101T
1282.971	0.001	1418249	DISTRACT_START	n/a	n/a	n/a	-999	12	[0, 0, 0]	n/a	FR1	0	R1101T
1282.972	0.016	1418250	START	n/a	n/a	n/a	-999	12	[-999, -999, -999]	n/a	FR1	0	R1101T
1282.988	3.867	1418266	PROB	3.867	n/a	n/a	-999	12	[5, 9, 5]	19	FR1	0	R1101T
1286.855	4.001	1422133	PROB	4.001	n/a	n/a	-999	12	[8, 3, 2]	13	FR1	0	R1101T
1290.856	6.151	1426133	PROB	6.151	n/a	n/a	-999	12	[4, 9, 4]	17	FR1	0	R1101T
1297.007	4.434	1432284	PROB	4.434	n/a	n/a	-999	12	[4, 3, 6]	13	FR1	0	R1101T
1301.441	7.023	1436718	PROB	7.023	n/a	n/a	-999	12	[4, 8, 5]	17	FR1	0	R1101T
1308.464	0.012	1443741	STOP	n/a	n/a	n/a	-999	12	[-999, -999, -999]	n/a	FR1	0	R1101T
1308.476	1.101	1443753	DISTRACT_END	n/a	n/a	n/a	-999	12	[0, 0, 0]	n/a	FR1	0	R1101T
1309.577	6.734	1444854	REC_START	n/a	n/a	n/a	-999	12	[0, 0, 0]	n/a	FR1	0	R1101T
1316.311	3.856	1451587	REC_WORD	3.856	n/a	CUP	-999	12	[0, 0, 0]	n/a	FR1	0	R1101T
1320.167	13.653	1455443	REC_WORD	13.653	n/a	STOOL	-999	12	[0, 0, 0]	n/a	FR1	0	R1101T
1333.82	5.767	1469095	REC_WORD	5.767	n/a	APE	-999	12	[0, 0, 0]	n/a	FR1	0	R1101T
1339.587	5.012	1474862	REC_END	n/a	n/a	n/a	-999	12	[0, 0, 0]	n/a	FR1	0	R1101T
1344.599	0.0	1479874	COUNTDOWN_START	n/a	n/a	n/a	-999	13	[0, 0, 0]	n/a	FR1	0	R1101T
1344.599	10.428	1479874	TRIAL	n/a	n/a	n/a	-999	13	[0, 0, 0]	n/a	FR1	0	R1101T
1355.027	0.007	1490301	COUNTDOWN_END	n/a	n/a	n/a	-999	13	[0, 0, 0]	n/a	FR1	0	R1101T
1355.034	2.484	1490308	ORIENT	n/a	n/a	n/a	-999	13	[0, 0, 0]	n/a	FR1	0	R1101T
1357.518	2.517	1492792	WORD	n/a	wordpools/wordpool_EN.txt	MOON	1	13	[0, 0, 0]	n/a	FR1	0	R1101T
1360.035	2.5	1495309	WORD	n/a	wordpools/wordpool_EN.txt	CASH	2	13	[0, 0, 0]	n/a	FR1	0	R1101T
1362.535	2.418	1497809	WORD	n/a	wordpools/wordpool_EN.txt	MAIL	3	13	[0, 0, 0]	n/a	FR1	0	R1101T
1364.953	2.533	1500227	WORD	n/a	wordpools/wordpool_EN.txt	BOMB	4	13	[0, 0, 0]	n/a	FR1	0	R1101T
1367.486	2.568	1502760	WORD	n/a	wordpools/wordpool_EN.txt	ICE	5	13	[0, 0, 0]	n/a	FR1	0	R1101T
1370.054	2.583	1505328	WORD	n/a	wordpools/wordpool_EN.txt	LEAF	6	13	[0, 0, 0]	n/a	FR1	0	R1101T
1372.637	2.585	1507910	WORD	n/a	wordpools/wordpool_EN.txt	MAP	7	13	[0, 0, 0]	n/a	FR1	0	R1101T
1375.222	2.383	1510495	WORD	n/a	wordpools/wordpool_EN.txt	FILM	8	13	[0, 0, 0]	n/a	FR1	0	R1101T
1377.605	2.517	1512878	WORD	n/a	wordpools/wordpool_EN.txt	FORT	9	13	[0, 0, 0]	n/a	FR1	0	R1101T
1380.122	2.467	1515395	WORD	n/a	wordpools/wordpool_EN.txt	TRUCK	10	13	[0, 0, 0]	n/a	FR1	0	R1101T
1382.589	2.384	1517862	WORD	n/a	wordpools/wordpool_EN.txt	CORD	11	13	[0, 0, 0]	n/a	FR1	0	R1101T
1384.973	1.617	1520246	WORD	n/a	wordpools/wordpool_EN.txt	OAR	12	13	[0, 0, 0]	n/a	FR1	0	R1101T
1386.59	0.001	1521863	DISTRACT_START	n/a	n/a	n/a	-999	13	[0, 0, 0]	n/a	FR1	0	R1101T
1386.591	0.015	1521864	START	n/a	n/a	n/a	-999	13	[-999, -999, -999]	n/a	FR1	0	R1101T
1386.606	4.001	1521879	PROB	4.001	n/a	n/a	-999	13	[4, 8, 5]	17	FR1	0	R1101T
1390.607	4.318	1525880	PROB	4.318	n/a	n/a	-999	13	[4, 2, 7]	13	FR1	0	R1101T
1394.925	2.984	1530197	PROB	2.984	n/a	n/a	-999	13	[8, 7, 1]	16	FR1	0	R1101T
1397.909	6.318	1533181	PROB	6.318	n/a	n/a	-999	13	[5, 6, 9]	20	FR1	0	R1101T
1404.227	3.981	1539499	PROB	3.981	n/a	n/a	-999	13	[3, 9, 8]	20	FR1	0	R1101T
1408.208	0.02	1543480	STOP	n/a	n/a	n/a	-999	13	[-999, -999, -999]	n/a	FR1	0	R1101T
1408.228	1.117	1543500	DISTRACT_END	n/a	n/a	n/a	-999	13	[0, 0, 0]	n/a	FR1	0	R1101T
1409.345	30.0	1544617	REC_START	n/a	n/a	n/a	-999	13	[0, 0, 0]	n/a	FR1	0	R1101T
1439.345	0.009	1574615	REC_WORD_VV	0.009	n/a	<>	-999	13	[0, 0, 0]	n/a	FR1	0	R1101T
1439.354	2.88	1574624	REC_END	n/a	n/a	n/a	-999	13	[0, 0, 0]	n/a	FR1	0	R1101T
1442.234	0.001	1577504	COUNTDOWN_START	n/a	n/a	n/a	-999	14	[0, 0, 0]	n/a	FR1	0	R1101T
1442.235	10.427	1577505	TRIAL	n/a	n/a	n/a	-999	14	[0, 0, 0]	n/a	FR1	0	R1101T
1452.662	0.006	1587932	COUNTDOWN_END	n/a	n/a	n/a	-999	14	[0, 0, 0]	n/a	FR1	0	R1101T
1452.668	2.401	1587938	ORIENT	n/a	n/a	n/a	-999	14	[0, 0, 0]	n/a	FR1	0	R1101T
1455.069	2.4	1590338	WORD	n/a	wordpools/wordpool_EN.txt	DRESS	1	14	[0, 0, 0]	n/a	FR1	0	R1101T
1457.469	2.618	1592738	WORD	n/a	wordpools/wordpool_EN.txt	TOOTH	2	14	[0, 0, 0]	n/a	FR1	0	R1101T
1460.087	2.567	1595356	WORD	n/a	wordpools/wordpool_EN.txt	HOLE	3	14	[0, 0, 0]	n/a	FR1	0	R1101T
1462.654	2.45	1597923	WORD	n/a	wordpools/wordpool_EN.txt	PASTE	4	14	[0, 0, 0]	n/a	FR1	0	R1101T
1465.104	2.584	1600373	WORD	n/a	wordpools/wordpool_EN.txt	DESK	5	14	[0, 0, 0]	n/a	FR1	0	R1101T
1467.688	2.484	1602957	WORD	n/a	wordpools/wordpool_EN.txt	PEAR	6	14	[0, 0, 0]	n/a	FR1	0	R1101T
1470.172	2.517	1605441	WORD	n/a	wordpools/wordpool_EN.txt	SMILE	7	14	[0, 0, 0]	n/a	FR1	0	R1101T
1472.689	2.5	1607958	WORD	n/a	wordpools/wordpool_EN.txt	BEAK	8	14	[0, 0, 0]	n/a	FR1	0	R1101T
1475.189	2.401	1610457	WORD	n/a	wordpools/wordpool_EN.txt	SHOE	9	14	[0, 0, 0]	n/a	FR1	0	R1101T
1477.59	2.635	1612858	WORD	n/a	wordpools/wordpool_EN.txt	PEN	10	14	[0, 0, 0]	n/a	FR1	0	R1101T
1480.225	2.549	1615493	WORD	n/a	wordpools/wordpool_EN.txt	PALM	11	14	[0, 0, 0]	n/a	FR1	0	R1101T
1482.774	1.617	1618042	WORD	n/a	wordpools/wordpool_EN.txt	FORK	12	14	[0, 0, 0]	n/a	FR1	0	R1101T
1484.391	0.001	1619659	DISTRACT_START	n/a	n/a	n/a	-999	14	[0, 0, 0]	n/a	FR1	0	R1101T
1484.392	0.016	1619660	START	n/a	n/a	n/a	-999	14	[-999, -999, -999]	n/a	FR1	0	R1101T
1484.408	4.234	1619676	PROB	4.234	n/a	n/a	-999	14	[2, 4, 3]	9	FR1	0	R1101T
1488.642	2.668	1623910	PROB	2.668	n/a	n/a	-999	14	[6, 4, 3]	13	FR1	0	R1101T
1491.31	4.666	1626578	PROB	4.666	n/a	n/a	-999	14	[9, 8, 2]	19	FR1	0	R1101T
1495.976	3.851	1631243	PROB	3.851	n/a	n/a	-999	14	[5, 2, 1]	8	FR1	0	R1101T
1499.827	5.438	1635094	PROB	5.438	n/a	n/a	-999	14	[3, 4, 9]	16	FR1	0	R1101T
1505.265	0.014	1640532	STOP	n/a	n/a	n/a	-999	14	[-999, -999, -999]	n/a	FR1	0	R1101T
1505.279	1.133	1640546	DISTRACT_END	n/a	n/a	n/a	-999	14	[0, 0, 0]	n/a	FR1	0	R1101T
1506.412	5.324	1641679	REC_START	n/a	n/a	n/a	-999	14	[0, 0, 0]	n/a	FR1	0	R1101T
1511.736	24.69	1647003	REC_WORD	24.69	n/a	FORK	-999	14	[0, 0, 0]	n/a	FR1	0	R1101T
1536.426	2.658	1671691	REC_END	n/a	n/a	n/a	-999	14	[0, 0, 0]	n/a	FR1	0	R1101T
1539.084	0.001	1674349	COUNTDOWN_START	n/a	n/a	n/a	-999	15	[0, 0, 0]	n/a	FR1	0	R1101T
1539.085	10.427	1674350	TRIAL	n/a	n/a	n/a	-999	15	[0, 0, 0]	n/a	FR1	0	R1101T
1549.512	0.007	1684777	COUNTDOWN_END	n/a	n/a	n/a	-999	15	[0, 0, 0]	n/a	FR1	0	R1101T
1549.519	2.617	1684784	ORIENT	n/a	n/a	n/a	-999	15	[0, 0, 0]	n/a	FR1	0	R1101T
1552.136	2.401	1687401	WORD	n/a	wordpools/wordpool_EN.txt	BOWL	1	15	[0, 0, 0]	n/a	FR1	0	R1101T
1554.537	2.4	1689802	WORD	n/a	wordpools/wordpool_EN.txt	STEAK	2	15	[0, 0, 0]	n/a	FR1	0	R1101T
1556.937	2.484	1692201	WORD	n/a	wordpools/wordpool_EN.txt	CLOWN	3	15	[0, 0, 0]	n/a	FR1	0	R1101T
1559.421	2.5	1694685	WORD	n/a	wordpools/wordpool_EN.txt	EGG	4	15	[0, 0, 0]	n/a	FR1	0	R1101T
1561.921	2.485	1697185	WORD	n/a	wordpools/wordpool_EN.txt	BEAR	5	15	[0, 0, 0]	n/a	FR1	0	R1101T
1564.406	2.433	1699670	WORD	n/a	wordpools/wordpool_EN.txt	SLEEVE	6	15	[0, 0, 0]	n/a	FR1	0	R1101T
1566.839	2.584	1702103	WORD	n/a	wordpools/wordpool_EN.txt	CAKE	7	15	[0, 0, 0]	n/a	FR1	0	R1101T
1569.423	2.501	1704687	WORD	n/a	wordpools/wordpool_EN.txt	LEG	8	15	[0, 0, 0]	n/a	FR1	0	R1101T
1571.924	2.467	1707188	WORD	n/a	wordpools/wordpool_EN.txt	DOLL	9	15	[0, 0, 0]	n/a	FR1	0	R1101T
1574.391	2.567	1709655	WORD	n/a	wordpools/wordpool_EN.txt	ZOO	10	15	[0, 0, 0]	n/a	FR1	0	R1101T
1576.958	2.6	1712221	WORD	n/a	wordpools/wordpool_EN.txt	WHALE	11	15	[0, 0, 0]	n/a	FR1	0	R1101T
1579.558	1.617	1714821	WORD	n/a	wordpools/wordpool_EN.txt	PIT	12	15	[0, 0, 0]	n/a	FR1	0	R1101T
1581.175	0.001	1716438	DISTRACT_START	n/a	n/a	n/a	-999	15	[0, 0, 0]	n/a	FR1	0	R1101T
1581.176	0.016	1716439	START	n/a	n/a	n/a	-999	15	[-999, -999, -999]	n/a	FR1	0	R1101T
1581.192	5.501	1716455	PROB	5.501	n/a	n/a	-999	15	[9, 7, 6]	22	FR1	0	R1101T
1586.693	6.251	1721956	PROB	6.251	n/a	n/a	-999	15	[7, 6, 6]	19	FR1	0	R1101T
1592.944	2.6	1728207	PROB	2.6	n/a	n/a	-999	15	[3, 7, 9]	119	FR1	0	R1101T
1595.544	7.672	1730806	PROB	7.672	n/a	n/a	-999	15	[2, 2, 8]	12	FR1	0	R1101T
1603.216	0.014	1738478	STOP	n/a	n/a	n/a	-999	15	[-999, -999, -999]	n/a	FR1	0	R1101T
1603.23	1.15	1738492	DISTRACT_END	n/a	n/a	n/a	-999	15	[0, 0, 0]	n/a	FR1	0	R1101T
1604.38	13.047	1739642	REC_START	n/a	n/a	n/a	-999	15	[0, 0, 0]	n/a	FR1	0	R1101T
1617.427	16.963	1752688	REC_WORD	16.963	n/a	SMILE	-999	15	[0, 0, 0]	n/a	FR1	0	R1101T
1634.39	3.612	1769651	REC_END	n/a	n/a	n/a	-999	15	[0, 0, 0]	n/a	FR1	0	R1101T
1638.002	0.0	1773262	TRIAL	n/a	n/a	n/a	-999	16	[0, 0, 0]	n/a	FR1	0	R1101T
1638.002	10.428	1773262	COUNTDOWN_START	n/a	n/a	n/a	-999	16	[0, 0, 0]	n/a	FR1	0	R1101T
1648.43	0.007	1783690	COUNTDOWN_END	n/a	n/a	n/a	-999	16	[0, 0, 0]	n/a	FR1	0	R1101T
1648.437	2.568	1783697	ORIENT	n/a	n/a	n/a	-999	16	[0, 0, 0]	n/a	FR1	0	R1101T
1651.005	2.517	1786265	WORD	n/a	wordpools/wordpool_EN.txt	BAND	1	16	[0, 0, 0]	n/a	FR1	0	R1101T
1653.522	2.4	1788782	WORD	n/a	wordpools/wordpool_EN.txt	TRAIN	2	16	[0, 0, 0]	n/a	FR1	0	R1101T
1655.922	2.501	1791182	WORD	n/a	wordpools/wordpool_EN.txt	VAN	3	16	[0, 0, 0]	n/a	FR1	0	R1101T
1658.423	2.617	1793682	WORD	n/a	wordpools/wordpool_EN.txt	FLUTE	4	16	[0, 0, 0]	n/a	FR1	0	R1101T
1661.04	2.55	1796299	WORD	n/a	wordpools/wordpool_EN.txt	HAT	5	16	[0, 0, 0]	n/a	FR1	0	R1101T
1663.59	2.484	1798849	WORD	n/a	wordpools/wordpool_EN.txt	DRUM	6	16	[0, 0, 0]	n/a	FR1	0	R1101T
1666.074	2.517	1801333	WORD	n/a	wordpools/wordpool_EN.txt	CART	7	16	[0, 0, 0]	n/a	FR1	0	R1101T
1668.591	2.434	1803850	WORD	n/a	wordpools/wordpool_EN.txt	STICK	8	16	[0, 0, 0]	n/a	FR1	0	R1101T
1671.025	2.584	1806284	WORD	n/a	wordpools/wordpool_EN.txt	SOCK	9	16	[0, 0, 0]	n/a	FR1	0	R1101T
1673.609	2.517	1808868	WORD	n/a	wordpools/wordpool_EN.txt	DIME	10	16	[0, 0, 0]	n/a	FR1	0	R1101T
1676.126	2.567	1811385	WORD	n/a	wordpools/wordpool_EN.txt	FACE	11	16	[0, 0, 0]	n/a	FR1	0	R1101T
1678.693	1.618	1813951	WORD	n/a	wordpools/wordpool_EN.txt	SKI	12	16	[0, 0, 0]	n/a	FR1	0	R1101T
1680.311	0.001	1815569	DISTRACT_START	n/a	n/a	n/a	-999	16	[0, 0, 0]	n/a	FR1	0	R1101T
1680.312	0.016	1815570	START	n/a	n/a	n/a	-999	16	[-999, -999, -999]	n/a	FR1	0	R1101T
1680.328	4.266	1815586	PROB	4.266	n/a	n/a	-999	16	[7, 1, 2]	10	FR1	0	R1101T
1684.594	6.151	1819852	PROB	6.151	n/a	n/a	-999	16	[6, 3, 5]	14	FR1	0	R1101T
1690.745	4.251	1826003	PROB	4.251	n/a	n/a	-999	16	[9, 1, 8]	18	FR1	0	R1101T
1694.996	7.38	1830254	PROB	7.38	n/a	n/a	-999	16	[8, 5, 3]	16	FR1	0	R1101T
1702.376	0.004	1837633	STOP	n/a	n/a	n/a	-999	16	[-999, -999, -999]	n/a	FR1	0	R1101T
1702.38	1.185	1837637	DISTRACT_END	n/a	n/a	n/a	-999	16	[0, 0, 0]	n/a	FR1	0	R1101T
1703.565	9.586	1838822	REC_START	n/a	n/a	n/a	-999	16	[0, 0, 0]	n/a	FR1	0	R1101T
1713.151	1.614	1848408	REC_WORD	1.614	n/a	DRUM	-999	16	[0, 0, 0]	n/a	FR1	0	R1101T
1714.765	14.496	1850022	REC_WORD	14.496	n/a	STICK	-999	16	[0, 0, 0]	n/a	FR1	0	R1101T
1729.261	3.097	1864517	REC_WORD	3.097	n/a	FACE	-999	16	[0, 0, 0]	n/a	FR1	0	R1101T
1732.358	1.218	1867614	REC_WORD	1.218	n/a	DIME	-999	16	[0, 0, 0]	n/a	FR1	0	R1101T
1733.576	5.995	1868832	REC_END	n/a	n/a	n/a	-999	16	[0, 0, 0]	n/a	FR1	0	R1101T
1739.571	0.0	1874826	TRIAL	n/a	n/a	n/a	-999	17	[0, 0, 0]	n/a	FR1	0	R1101T
1739.571	10.428	1874826	COUNTDOWN_START	n/a	n/a	n/a	-999	17	[0, 0, 0]	n/a	FR1	0	R1101T
1749.999	0.007	1885254	COUNTDOWN_END	n/a	n/a	n/a	-999	17	[0, 0, 0]	n/a	FR1	0	R1101T
1750.006	2.434	1885261	ORIENT	n/a	n/a	n/a	-999	17	[0, 0, 0]	n/a	FR1	0	R1101T
1752.44	2.433	1887695	WORD	n/a	wordpools/wordpool_EN.txt	MULE	1	17	[0, 0, 0]	n/a	FR1	0	R1101T
1754.873	2.568	1890128	WORD	n/a	wordpools/wordpool_EN.txt	SPEAR	2	17	[0, 0, 0]	n/a	FR1	0	R1101T
1757.441	2.617	1892696	WORD	n/a	wordpools/wordpool_EN.txt	LAMB	3	17	[0, 0, 0]	n/a	FR1	0	R1101T
1760.058	2.484	1895312	WORD	n/a	wordpools/wordpool_EN.txt	MOOSE	4	17	[0, 0, 0]	n/a	FR1	0	R1101T
1762.542	2.433	1897796	WORD	n/a	wordpools/wordpool_EN.txt	FLEA	5	17	[0, 0, 0]	n/a	FR1	0	R1101T
1764.975	2.567	1900229	WORD	n/a	wordpools/wordpool_EN.txt	GRASS	6	17	[0, 0, 0]	n/a	FR1	0	R1101T
1767.542	2.384	1902796	WORD	n/a	wordpools/wordpool_EN.txt	HORSE	7	17	[0, 0, 0]	n/a	FR1	0	R1101T
1769.926	2.534	1905180	WORD	n/a	wordpools/wordpool_EN.txt	SOUP	8	17	[0, 0, 0]	n/a	FR1	0	R1101T
1772.46	2.434	1907714	WORD	n/a	wordpools/wordpool_EN.txt	STEAM	9	17	[0, 0, 0]	n/a	FR1	0	R1101T
1774.894	2.533	1910148	WORD	n/a	wordpools/wordpool_EN.txt	VINE	10	17	[0, 0, 0]	n/a	FR1	0	R1101T
1777.427	2.484	1912681	WORD	n/a	wordpools/wordpool_EN.txt	PRINCE	11	17	[0, 0, 0]	n/a	FR1	0	R1101T
1779.911	1.617	1915164	WORD	n/a	wordpools/wordpool_EN.txt	SPARK	12	17	[0, 0, 0]	n/a	FR1	0	R1101T
1781.528	0.001	1916781	DISTRACT_START	n/a	n/a	n/a	-999	17	[0, 0, 0]	n/a	FR1	0	R1101T
1781.529	0.016	1916782	START	n/a	n/a	n/a	-999	17	[-999, -999, -999]	n/a	FR1	0	R1101T
1781.545	4.501	1916798	PROB	4.501	n/a	n/a	-999	17	[3, 1, 5]	9	FR1	0	R1101T
1786.046	3.235	1921299	PROB	3.235	n/a	n/a	-999	17	[5, 3, 2]	10	FR1	0	R1101T
1789.281	2.666	1924534	PROB	2.666	n/a	n/a	-999	17	[9, 1, 4]	14	FR1	0	R1101T
1791.947	4.717	1927200	PROB	4.717	n/a	n/a	-999	17	[8, 1, 6]	15	FR1	0	R1101T
1796.664	5.192	1931917	PROB	5.192	n/a	n/a	-999	17	[7, 8, 9]	24	FR1	0	R1101T
1801.856	0.009	1937108	STOP	n/a	n/a	n/a	-999	17	[-999, -999, -999]	n/a	FR1	0	R1101T
1801.865	1.218	1937117	DISTRACT_END	n/a	n/a	n/a	-999	17	[0, 0, 0]	n/a	FR1	0	R1101T
1803.083	1.854	1938335	REC_START	n/a	n/a	n/a	-999	17	[0, 0, 0]	n/a	FR1	0	R1101T
1804.937	14.107	1940189	REC_WORD	14.107	n/a	MOOSE	-999	17	[0, 0, 0]	n/a	FR1	0	R1101T
1819.044	13.386	1954295	REC_WORD	13.386	n/a	MULE	-999	17	[0, 0, 0]	n/a	FR1	0	R1101T
1832.43	0.663	1967681	REC_WORD	0.663	n/a	STEAK	-999	17	[0, 0, 0]	n/a	FR1	0	R1101T
1833.093	3.912	1968344	REC_END	n/a	n/a	n/a	-999	17	[0, 0, 0]	n/a	FR1	0	R1101T
1837.005	0.0	1972256	TRIAL	n/a	n/a	n/a	-999	18	[0, 0, 0]	n/a	FR1	0	R1101T
1837.005	10.428	1972256	COUNTDOWN_START	n/a	n/a	n/a	-999	18	[0, 0, 0]	n/a	FR1	0	R1101T
1847.433	0.007	1982683	COUNTDOWN_END	n/a	n/a	n/a	-999	18	[0, 0, 0]	n/a	FR1	0	R1101T
1847.44	2.434	1982690	ORIENT	n/a	n/a	n/a	-999	18	[0, 0, 0]	n/a	FR1	0	R1101T
1849.874	2.584	1985124	WORD	n/a	wordpools/wordpool_EN.txt	HEN	1	18	[0, 0, 0]	n/a	FR1	0	R1101T
1852.458	2.467	1987708	WORD	n/a	wordpools/wordpool_EN.txt	RICE	2	18	[0, 0, 0]	n/a	FR1	0	R1101T
1854.925	2.55	1990175	WORD	n/a	wordpools/wordpool_EN.txt	BLUSH	3	18	[0, 0, 0]	n/a	FR1	0	R1101T
1857.475	2.401	1992725	WORD	n/a	wordpools/wordpool_EN.txt	SUN	4	18	[0, 0, 0]	n/a	FR1	0	R1101T
1859.876	2.533	1995125	WORD	n/a	wordpools/wordpool_EN.txt	STREET	5	18	[0, 0, 0]	n/a	FR1	0	R1101T
1862.409	2.501	1997658	WORD	n/a	wordpools/wordpool_EN.txt	HOOK	6	18	[0, 0, 0]	n/a	FR1	0	R1101T
1864.91	2.617	2000159	WORD	n/a	wordpools/wordpool_EN.txt	HOSE	7	18	[0, 0, 0]	n/a	FR1	0	R1101T
1867.527	2.601	2002776	WORD	n/a	wordpools/wordpool_EN.txt	STORE	8	18	[0, 0, 0]	n/a	FR1	0	R1101T
1870.128	2.484	2005377	WORD	n/a	wordpools/wordpool_EN.txt	CAT	9	18	[0, 0, 0]	n/a	FR1	0	R1101T
1872.612	2.533	2007861	WORD	n/a	wordpools/wordpool_EN.txt	LAMP	10	18	[0, 0, 0]	n/a	FR1	0	R1101T
1875.145	2.417	2010394	WORD	n/a	wordpools/wordpool_EN.txt	STOVE	11	18	[0, 0, 0]	n/a	FR1	0	R1101T
1877.562	1.617	2012811	WORD	n/a	wordpools/wordpool_EN.txt	MILK	12	18	[0, 0, 0]	n/a	FR1	0	R1101T
1879.179	0.001	2014428	DISTRACT_START	n/a	n/a	n/a	-999	18	[0, 0, 0]	n/a	FR1	0	R1101T
1879.18	0.016	2014429	START	n/a	n/a	n/a	-999	18	[-999, -999, -999]	n/a	FR1	0	R1101T
1879.196	3.667	2014445	PROB	3.667	n/a	n/a	-999	18	[6, 7, 4]	17	FR1	0	R1101T
1882.863	5.485	2018111	PROB	5.485	n/a	n/a	-999	18	[6, 5, 8]	19	FR1	0	R1101T
1888.348	5.434	2023596	PROB	5.434	n/a	n/a	-999	18	[3, 6, 8]	17	FR1	0	R1101T
1893.782	4.817	2029030	PROB	4.817	n/a	n/a	-999	18	[2, 8, 6]	16	FR1	0	R1101T
1898.599	3.474	2033847	PROB	3.474	n/a	n/a	-999	18	[9, 4, 6]	19	FR1	0	R1101T
1902.073	0.01	2037320	STOP	n/a	n/a	n/a	-999	18	[-999, -999, -999]	n/a	FR1	0	R1101T
1902.083	1.236	2037330	DISTRACT_END	n/a	n/a	n/a	-999	18	[0, 0, 0]	n/a	FR1	0	R1101T
1903.319	1.333	2038566	REC_START	n/a	n/a	n/a	-999	18	[0, 0, 0]	n/a	FR1	0	R1101T
1904.652	1.372	2039899	REC_WORD	1.372	n/a	MILK	-999	18	[0, 0, 0]	n/a	FR1	0	R1101T
1906.024	2.636	2041271	REC_WORD	2.636	n/a	STORE	-999	18	[0, 0, 0]	n/a	FR1	0	R1101T
1908.66	9.679	2043907	REC_WORD	9.679	n/a	STOVE	-999	18	[0, 0, 0]	n/a	FR1	0	R1101T
1918.339	4.217	2053586	REC_WORD	4.217	n/a	HOOK	-999	18	[0, 0, 0]	n/a	FR1	0	R1101T
1922.556	10.773	2057802	REC_WORD	10.773	n/a	HOSE	-999	18	[0, 0, 0]	n/a	FR1	0	R1101T
1933.329	3.161	2068575	REC_END	n/a	n/a	n/a	-999	18	[0, 0, 0]	n/a	FR1	0	R1101T
1936.49	0.0	2071736	TRIAL	n/a	n/a	n/a	-999	19	[0, 0, 0]	n/a	FR1	0	R1101T
1936.49	10.428	2071736	COUNTDOWN_START	n/a	n/a	n/a	-999	19	[0, 0, 0]	n/a	FR1	0	R1101T
1946.918	0.007	2082163	COUNTDOWN_END	n/a	n/a	n/a	-999	19	[0, 0, 0]	n/a	FR1	0	R1101T
1946.925	2.434	2082170	ORIENT	n/a	n/a	n/a	-999	19	[0, 0, 0]	n/a	FR1	0	R1101T
1949.359	2.4	2084604	WORD	n/a	wordpools/wordpool_EN.txt	SPRING	1	19	[0, 0, 0]	n/a	FR1	0	R1101T
1951.759	2.468	2087004	WORD	n/a	wordpools/wordpool_EN.txt	SNAKE	2	19	[0, 0, 0]	n/a	FR1	0	R1101T
1954.227	2.433	2089472	WORD	n/a	wordpools/wordpool_EN.txt	KITE	3	19	[0, 0, 0]	n/a	FR1	0	R1101T
1956.66	2.585	2091905	WORD	n/a	wordpools/wordpool_EN.txt	FRUIT	4	19	[0, 0, 0]	n/a	FR1	0	R1101T
1959.245	2.616	2094490	WORD	n/a	wordpools/wordpool_EN.txt	FOX	5	19	[0, 0, 0]	n/a	FR1	0	R1101T
1961.861	2.452	2097105	WORD	n/a	wordpools/wordpool_EN.txt	CAVE	6	19	[0, 0, 0]	n/a	FR1	0	R1101T
1964.313	2.449	2099557	WORD	n/a	wordpools/wordpool_EN.txt	OWL	7	19	[0, 0, 0]	n/a	FR1	0	R1101T
1966.762	2.6	2102006	WORD	n/a	wordpools/wordpool_EN.txt	YARD	8	19	[0, 0, 0]	n/a	FR1	0	R1101T
1969.362	2.534	2104606	WORD	n/a	wordpools/wordpool_EN.txt	DITCH	9	19	[0, 0, 0]	n/a	FR1	0	R1101T
1971.896	2.451	2107140	WORD	n/a	wordpools/wordpool_EN.txt	TEA	10	19	[0, 0, 0]	n/a	FR1	0	R1101T
1974.347	2.517	2109591	WORD	n/a	wordpools/wordpool_EN.txt	BREAD	11	19	[0, 0, 0]	n/a	FR1	0	R1101T
1976.864	1.617	2112108	WORD	n/a	wordpools/wordpool_EN.txt	JUICE	12	19	[0, 0, 0]	n/a	FR1	0	R1101T
1978.481	0.001	2113725	DISTRACT_START	n/a	n/a	n/a	-999	19	[0, 0, 0]	n/a	FR1	0	R1101T
1978.482	0.015	2113726	START	n/a	n/a	n/a	-999	19	[-999, -999, -999]	n/a	FR1	0	R1101T
1978.497	4.985	2113741	PROB	4.985	n/a	n/a	-999	19	[8, 6, 2]	16	FR1	0	R1101T
1983.482	2.283	2118725	PROB	2.283	n/a	n/a	-999	19	[2, 5, 5]	12	FR1	0	R1101T
1985.765	6.252	2121008	PROB	6.252	n/a	n/a	-999	19	[4, 9, 5]	18	FR1	0	R1101T
1992.017	2.301	2127260	PROB	2.301	n/a	n/a	-999	19	[8, 1, 2]	11	FR1	0	R1101T
1994.318	7.05	2129561	PROB	7.05	n/a	n/a	-999	19	[5, 8, 4]	17	FR1	0	R1101T
2001.368	0.017	2136611	STOP	n/a	n/a	n/a	-999	19	[-999, -999, -999]	n/a	FR1	0	R1101T
2001.385	1.151	2136628	DISTRACT_END	n/a	n/a	n/a	-999	19	[0, 0, 0]	n/a	FR1	0	R1101T
2002.536	3.685	2137778	REC_START	n/a	n/a	n/a	-999	19	[0, 0, 0]	n/a	FR1	0	R1101T
2006.221	1.441	2141463	REC_WORD	1.441	n/a	SNAKE	-999	19	[0, 0, 0]	n/a	FR1	0	R1101T
2007.662	5.285	2142904	REC_WORD	5.285	n/a	SPRING	-999	19	[0, 0, 0]	n/a	FR1	0	R1101T
2012.947	19.599	2148189	REC_WORD	19.599	n/a	FRUIT	-999	19	[0, 0, 0]	n/a	FR1	0	R1101T
2032.546	2.412	2167787	REC_END	n/a	n/a	n/a	-999	19	[0, 0, 0]	n/a	FR1	0	R1101T
2034.958	0.0	2170199	COUNTDOWN_START	n/a	n/a	n/a	-999	20	[0, 0, 0]	n/a	FR1	0	R1101T
2034.958	10.428	2170199	TRIAL	n/a	n/a	n/a	-999	20	[0, 0, 0]	n/a	FR1	0	R1101T
2045.386	0.007	2180626	COUNTDOWN_END	n/a	n/a	n/a	-999	20	[0, 0, 0]	n/a	FR1	0	R1101T
2045.393	2.567	2180633	ORIENT	n/a	n/a	n/a	-999	20	[0, 0, 0]	n/a	FR1	0	R1101T
2047.96	2.467	2183200	WORD	n/a	wordpools/wordpool_EN.txt	SEED	1	20	[0, 0, 0]	n/a	FR1	0	R1101T
2050.427	2.501	2185667	WORD	n/a	wordpools/wordpool_EN.txt	PLANT	2	20	[0, 0, 0]	n/a	FR1	0	R1101T
2052.928	2.55	2188168	WORD	n/a	wordpools/wordpool_EN.txt	STONE	3	20	[0, 0, 0]	n/a	FR1	0	R1101T
2055.478	2.451	2190718	WORD	n/a	wordpools/wordpool_EN.txt	SLIME	4	20	[0, 0, 0]	n/a	FR1	0	R1101T
2057.929	2.5	2193169	WORD	n/a	wordpools/wordpool_EN.txt	CLOCK	5	20	[0, 0, 0]	n/a	FR1	0	R1101T
2060.429	2.6	2195669	WORD	n/a	wordpools/wordpool_EN.txt	STEM	6	20	[0, 0, 0]	n/a	FR1	0	R1101T
2063.029	2.451	2198268	WORD	n/a	wordpools/wordpool_EN.txt	HEART	7	20	[0, 0, 0]	n/a	FR1	0	R1101T
2065.48	2.617	2200719	WORD	n/a	wordpools/wordpool_EN.txt	CLAY	8	20	[0, 0, 0]	n/a	FR1	0	R1101T
2068.097	2.617	2203336	WORD	n/a	wordpools/wordpool_EN.txt	MOUSE	9	20	[0, 0, 0]	n/a	FR1	0	R1101T
2070.714	2.501	2205953	WORD	n/a	wordpools/wordpool_EN.txt	BOOK	10	20	[0, 0, 0]	n/a	FR1	0	R1101T
2073.215	2.434	2208454	WORD	n/a	wordpools/wordpool_EN.txt	PEARL	11	20	[0, 0, 0]	n/a	FR1	0	R1101T
2075.649	1.617	2210888	WORD	n/a	wordpools/wordpool_EN.txt	JUDGE	12	20	[0, 0, 0]	n/a	FR1	0	R1101T
2077.266	0.001	2212505	DISTRACT_START	n/a	n/a	n/a	-999	20	[0, 0, 0]	n/a	FR1	0	R1101T
2077.267	0.016	2212506	START	n/a	n/a	n/a	-999	20	[-999, -999, -999]	n/a	FR1	0	R1101T
2077.283	4.2	2212522	PROB	4.2	n/a	n/a	-999	20	[3, 7, 7]	17	FR1	0	R1101T
2081.483	5.134	2216722	PROB	5.134	n/a	n/a	-999	20	[6, 9, 2]	17	FR1	0	R1101T
2086.617	4.501	2221855	PROB	4.501	n/a	n/a	-999	20	[1, 5, 8]	14	FR1	0	R1101T
2091.118	4.734	2226356	PROB	4.734	n/a	n/a	-999	20	[7, 5, 7]	19	FR1	0	R1101T
2095.852	5.188	2231090	PROB	5.188	n/a	n/a	-999	20	[2, 6, 7]	15	FR1	0	R1101T
2101.04	0.013	2236278	STOP	n/a	n/a	n/a	-999	20	[-999, -999, -999]	n/a	FR1	0	R1101T
2101.053	1.202	2236291	DISTRACT_END	n/a	n/a	n/a	-999	20	[0, 0, 0]	n/a	FR1	0	R1101T
2102.255	1.776	2237493	REC_START	n/a	n/a	n/a	-999	20	[0, 0, 0]	n/a	FR1	0	R1101T
2104.031	5.725	2239268	REC_WORD	5.725	n/a	PEARL	-999	20	[0, 0, 0]	n/a	FR1	0	R1101T
2109.756	9.491	2244993	REC_WORD	9.491	n/a	BOOK	-999	20	[0, 0, 0]	n/a	FR1	0	R1101T
2119.247	13.018	2254484	REC_WORD	13.018	n/a	CLOCK	-999	20	[0, 0, 0]	n/a	FR1	0	R1101T
2132.265	3.194	2267501	REC_END	n/a	n/a	n/a	-999	20	[0, 0, 0]	n/a	FR1	0	R1101T
2135.459	0.0	2270695	TRIAL	n/a	n/a	n/a	-999	21	[0, 0, 0]	n/a	FR1	0	R1101T
2135.459	10.428	2270695	COUNTDOWN_START	n/a	n/a	n/a	-999	21	[0, 0, 0]	n/a	FR1	0	R1101T
2145.887	0.008	2281122	COUNTDOWN_END	n/a	n/a	n/a	-999	21	[0, 0, 0]	n/a	FR1	0	R1101T
2145.895	2.517	2281130	ORIENT	n/a	n/a	n/a	-999	21	[0, 0, 0]	n/a	FR1	0	R1101T
2148.412	2.617	2283647	WORD	n/a	wordpools/wordpool_EN.txt	FLAME	1	21	[0, 0, 0]	n/a	FR1	0	R1101T
2151.029	2.4	2286264	WORD	n/a	wordpools/wordpool_EN.txt	SHEEP	2	21	[0, 0, 0]	n/a	FR1	0	R1101T
2153.429	2.617	2288664	WORD	n/a	wordpools/wordpool_EN.txt	WAND	3	21	[0, 0, 0]	n/a	FR1	0	R1101T
2156.046	2.501	2291281	WORD	n/a	wordpools/wordpool_EN.txt	SWAMP	4	21	[0, 0, 0]	n/a	FR1	0	R1101T
2158.547	2.434	2293782	WORD	n/a	wordpools/wordpool_EN.txt	CORN	5	21	[0, 0, 0]	n/a	FR1	0	R1101T
2160.981	2.417	2296216	WORD	n/a	wordpools/wordpool_EN.txt	BRUSH	6	21	[0, 0, 0]	n/a	FR1	0	R1101T
2163.398	2.45	2298633	WORD	n/a	wordpools/wordpool_EN.txt	SKY	7	21	[0, 0, 0]	n/a	FR1	0	R1101T
2165.848	2.385	2301082	WORD	n/a	wordpools/wordpool_EN.txt	TENT	8	21	[0, 0, 0]	n/a	FR1	0	R1101T
2168.233	2.449	2303467	WORD	n/a	wordpools/wordpool_EN.txt	OAK	9	21	[0, 0, 0]	n/a	FR1	0	R1101T
2170.682	2.569	2305916	WORD	n/a	wordpools/wordpool_EN.txt	JEEP	10	21	[0, 0, 0]	n/a	FR1	0	R1101T
2173.251	2.582	2308485	WORD	n/a	wordpools/wordpool_EN.txt	CROW	11	21	[0, 0, 0]	n/a	FR1	0	R1101T
2175.833	1.617	2311067	WORD	n/a	wordpools/wordpool_EN.txt	LAKE	12	21	[0, 0, 0]	n/a	FR1	0	R1101T
2177.45	0.001	2312684	DISTRACT_START	n/a	n/a	n/a	-999	21	[0, 0, 0]	n/a	FR1	0	R1101T
2177.451	0.016	2312685	START	n/a	n/a	n/a	-999	21	[-999, -999, -999]	n/a	FR1	0	R1101T
2177.467	5.168	2312701	PROB	5.168	n/a	n/a	-999	21	[7, 5, 2]	14	FR1	0	R1101T
2182.635	3.767	2317869	PROB	3.767	n/a	n/a	-999	21	[3, 4, 3]	10	FR1	0	R1101T
2186.402	4.201	2321635	PROB	4.201	n/a	n/a	-999	21	[3, 6, 8]	17	FR1	0	R1101T
2190.603	5.034	2325836	PROB	5.034	n/a	n/a	-999	21	[8, 1, 5]	14	FR1	0	R1101T
2195.637	3.147	2330870	PROB	3.147	n/a	n/a	-999	21	[4, 6, 3]	13	FR1	0	R1101T
2198.784	0.003	2334017	STOP	n/a	n/a	n/a	-999	21	[-999, -999, -999]	n/a	FR1	0	R1101T
2198.787	1.068	2334020	DISTRACT_END	n/a	n/a	n/a	-999	21	[0, 0, 0]	n/a	FR1	0	R1101T
2199.855	1.275	2335088	REC_START	n/a	n/a	n/a	-999	21	[0, 0, 0]	n/a	FR1	0	R1101T
2201.13	3.665	2336363	REC_WORD	3.665	n/a	LAKE	-999	21	[0, 0, 0]	n/a	FR1	0	R1101T
2204.795	4.865	2340028	REC_WORD	4.865	n/a	FLAME	-999	21	[0, 0, 0]	n/a	FR1	0	R1101T
2209.66	6.199	2344892	REC_WORD	6.199	n/a	CROW	-999	21	[0, 0, 0]	n/a	FR1	0	R1101T
2215.859	14.007	2351091	REC_WORD	14.007	n/a	SNAKE	-999	21	[0, 0, 0]	n/a	FR1	0	R1101T
2229.866	2.429	2365097	REC_END	n/a	n/a	n/a	-999	21	[0, 0, 0]	n/a	FR1	0	R1101T
2232.295	0.0	2367526	TRIAL	n/a	n/a	n/a	-999	22	[0, 0, 0]	n/a	FR1	0	R1101T
2232.295	10.428	2367526	COUNTDOWN_START	n/a	n/a	n/a	-999	22	[0, 0, 0]	n/a	FR1	0	R1101T
2242.723	0.006	2377954	COUNTDOWN_END	n/a	n/a	n/a	-999	22	[0, 0, 0]	n/a	FR1	0	R1101T
2242.729	2.518	2377960	ORIENT	n/a	n/a	n/a	-999	22	[0, 0, 0]	n/a	FR1	0	R1101T
2245.247	2.399	2380478	WORD	n/a	wordpools/wordpool_EN.txt	PLANE	1	22	[0, 0, 0]	n/a	FR1	0	R1101T
2247.646	2.517	2382876	WORD	n/a	wordpools/wordpool_EN.txt	EAR	2	22	[0, 0, 0]	n/a	FR1	0	R1101T
2250.163	2.601	2385393	WORD	n/a	wordpools/wordpool_EN.txt	STRING	3	22	[0, 0, 0]	n/a	FR1	0	R1101T
2252.764	2.434	2387994	WORD	n/a	wordpools/wordpool_EN.txt	LOCK	4	22	[0, 0, 0]	n/a	FR1	0	R1101T
2255.198	2.55	2390428	WORD	n/a	wordpools/wordpool_EN.txt	PLATE	5	22	[0, 0, 0]	n/a	FR1	0	R1101T
2257.748	2.467	2392978	WORD	n/a	wordpools/wordpool_EN.txt	TOOL	6	22	[0, 0, 0]	n/a	FR1	0	R1101T
2260.215	2.434	2395445	WORD	n/a	wordpools/wordpool_EN.txt	NEST	7	22	[0, 0, 0]	n/a	FR1	0	R1101T
2262.649	2.517	2397879	WORD	n/a	wordpools/wordpool_EN.txt	EEL	8	22	[0, 0, 0]	n/a	FR1	0	R1101T
2265.166	2.517	2400396	WORD	n/a	wordpools/wordpool_EN.txt	JET	9	22	[0, 0, 0]	n/a	FR1	0	R1101T
2267.683	2.585	2402912	WORD	n/a	wordpools/wordpool_EN.txt	CONE	10	22	[0, 0, 0]	n/a	FR1	0	R1101T
2270.268	2.55	2405497	WORD	n/a	wordpools/wordpool_EN.txt	INK	11	22	[0, 0, 0]	n/a	FR1	0	R1101T
2272.818	1.617	2408047	WORD	n/a	wordpools/wordpool_EN.txt	HAWK	12	22	[0, 0, 0]	n/a	FR1	0	R1101T
2274.435	0.001	2409664	DISTRACT_START	n/a	n/a	n/a	-999	22	[0, 0, 0]	n/a	FR1	0	R1101T
2274.436	0.015	2409665	START	n/a	n/a	n/a	-999	22	[-999, -999, -999]	n/a	FR1	0	R1101T
2274.451	3.301	2409680	PROB	3.301	n/a	n/a	-999	22	[8, 2, 6]	16	FR1	0	R1101T
2277.752	2.334	2412981	PROB	2.334	n/a	n/a	-999	22	[4, 6, 8]	18	FR1	0	R1101T
2280.086	3.184	2415315	PROB	3.184	n/a	n/a	-999	22	[3, 6, 2]	11	FR1	0	R1101T
2283.27	5.767	2418499	PROB	5.767	n/a	n/a	-999	22	[7, 9, 6]	22	FR1	0	R1101T
2289.037	4.851	2424265	PROB	4.851	n/a	n/a	-999	22	[7, 7, 5]	19	FR1	0	R1101T
2293.888	2.752	2429116	PROB	2.752	n/a	n/a	-999	22	[4, 7, 4]	15	FR1	0	R1101T
2296.64	0.015	2431868	STOP	n/a	n/a	n/a	-999	22	[-999, -999, -999]	n/a	FR1	0	R1101T
2296.655	1.151	2431883	DISTRACT_END	n/a	n/a	n/a	-999	22	[0, 0, 0]	n/a	FR1	0	R1101T
2297.806	2.083	2433034	REC_START	n/a	n/a	n/a	-999	22	[0, 0, 0]	n/a	FR1	0	R1101T
2299.889	3.782	2435117	REC_WORD	3.782	n/a	PLANE	-999	22	[0, 0, 0]	n/a	FR1	0	R1101T
2303.671	2.386	2438899	REC_WORD	2.386	n/a	INK	-999	22	[0, 0, 0]	n/a	FR1	0	R1101T
2306.057	21.763	2441285	REC_WORD	21.763	n/a	EEL	-999	22	[0, 0, 0]	n/a	FR1	0	R1101T
2327.82	2.125	2463046	REC_END	n/a	n/a	n/a	-999	22	[0, 0, 0]	n/a	FR1	0	R1101T
2329.945	0.0	2465171	TRIAL	n/a	n/a	n/a	-999	23	[0, 0, 0]	n/a	FR1	0	R1101T
2329.945	10.428	2465171	COUNTDOWN_START	n/a	n/a	n/a	-999	23	[0, 0, 0]	n/a	FR1	0	R1101T
2340.373	0.007	2475599	COUNTDOWN_END	n/a	n/a	n/a	-999	23	[0, 0, 0]	n/a	FR1	0	R1101T
2340.38	2.417	2475606	ORIENT	n/a	n/a	n/a	-999	23	[0, 0, 0]	n/a	FR1	0	R1101T
2342.797	2.567	2478023	WORD	n/a	wordpools/wordpool_EN.txt	SUIT	1	23	[0, 0, 0]	n/a	FR1	0	R1101T
2345.364	2.467	2480590	WORD	n/a	wordpools/wordpool_EN.txt	WOLF	2	23	[0, 0, 0]	n/a	FR1	0	R1101T
2347.831	2.402	2483056	WORD	n/a	wordpools/wordpool_EN.txt	MAZE	3	23	[0, 0, 0]	n/a	FR1	0	R1101T
2350.233	2.432	2485458	WORD	n/a	wordpools/wordpool_EN.txt	BOX	4	23	[0, 0, 0]	n/a	FR1	0	R1101T
2352.665	2.551	2487890	WORD	n/a	wordpools/wordpool_EN.txt	CAPE	5	23	[0, 0, 0]	n/a	FR1	0	R1101T
2355.216	2.584	2490441	WORD	n/a	wordpools/wordpool_EN.txt	BEACH	6	23	[0, 0, 0]	n/a	FR1	0	R1101T
2357.8	2.434	2493025	WORD	n/a	wordpools/wordpool_EN.txt	SHIP	7	23	[0, 0, 0]	n/a	FR1	0	R1101T
2360.234	2.633	2495459	WORD	n/a	wordpools/wordpool_EN.txt	SEA	8	23	[0, 0, 0]	n/a	FR1	0	R1101T
2362.867	2.418	2498092	WORD	n/a	wordpools/wordpool_EN.txt	SEAL	9	23	[0, 0, 0]	n/a	FR1	0	R1101T
2365.285	2.483	2500510	WORD	n/a	wordpools/wordpool_EN.txt	SNAIL	10	23	[0, 0, 0]	n/a	FR1	0	R1101T
2367.768	2.634	2502993	WORD	n/a	wordpools/wordpool_EN.txt	SALT	11	23	[0, 0, 0]	n/a	FR1	0	R1101T
2370.402	1.617	2505626	WORD	n/a	wordpools/wordpool_EN.txt	SLUSH	12	23	[0, 0, 0]	n/a	FR1	0	R1101T
2372.019	0.001	2507243	DISTRACT_START	n/a	n/a	n/a	-999	23	[0, 0, 0]	n/a	FR1	0	R1101T
2372.02	0.016	2507244	START	n/a	n/a	n/a	-999	23	[-999, -999, -999]	n/a	FR1	0	R1101T
2372.036	4.584	2507260	PROB	4.584	n/a	n/a	-999	23	[4, 4, 9]	17	FR1	0	R1101T
2376.62	2.217	2511844	PROB	2.217	n/a	n/a	-999	23	[2, 4, 6]	12	FR1	0	R1101T
2378.837	5.485	2514061	PROB	5.485	n/a	n/a	-999	23	[8, 4, 6]	18	FR1	0	R1101T
2384.322	3.683	2519546	PROB	3.683	n/a	n/a	-999	23	[7, 5, 1]	13	FR1	0	R1101T
2388.005	2.701	2523229	PROB	2.701	n/a	n/a	-999	23	[7, 3, 6]	16	FR1	0	R1101T
2390.706	2.52	2525929	PROB	2.52	n/a	n/a	-999	23	[5, 5, 5]	15	FR1	0	R1101T
2393.226	0.015	2528449	STOP	n/a	n/a	n/a	-999	23	[-999, -999, -999]	n/a	FR1	0	R1101T
2393.241	1.199	2528464	DISTRACT_END	n/a	n/a	n/a	-999	23	[0, 0, 0]	n/a	FR1	0	R1101T
2394.44	0.999	2529663	REC_START	n/a	n/a	n/a	-999	23	[0, 0, 0]	n/a	FR1	0	R1101T
2395.439	1.494	2530662	REC_WORD	1.494	n/a	SEAL	-999	23	[0, 0, 0]	n/a	FR1	0	R1101T
2396.933	7.158	2532156	REC_WORD	7.158	n/a	SALT	-999	23	[0, 0, 0]	n/a	FR1	0	R1101T
2404.091	20.363	2539314	REC_WORD	20.363	n/a	SLUSH	-999	23	[0, 0, 0]	n/a	FR1	0	R1101T
2424.454	2.392	2559676	REC_END	n/a	n/a	n/a	-999	23	[0, 0, 0]	n/a	FR1	0	R1101T
2426.846	0.0	2562068	TRIAL	n/a	n/a	n/a	-999	24	[0, 0, 0]	n/a	FR1	0	R1101T
2426.846	10.428	2562068	COUNTDOWN_START	n/a	n/a	n/a	-999	24	[0, 0, 0]	n/a	FR1	0	R1101T
2437.274	0.008	2572495	COUNTDOWN_END	n/a	n/a	n/a	-999	24	[0, 0, 0]	n/a	FR1	0	R1101T
2437.282	2.416	2572503	ORIENT	n/a	n/a	n/a	-999	24	[0, 0, 0]	n/a	FR1	0	R1101T
2439.698	2.45	2574919	WORD	n/a	wordpools/wordpool_EN.txt	LIP	1	24	[0, 0, 0]	n/a	FR1	0	R1101T
2442.148	2.451	2577369	WORD	n/a	wordpools/wordpool_EN.txt	DOG	2	24	[0, 0, 0]	n/a	FR1	0	R1101T
2444.599	2.584	2579820	WORD	n/a	wordpools/wordpool_EN.txt	FUR	3	24	[0, 0, 0]	n/a	FR1	0	R1101T
2447.183	2.467	2582404	WORD	n/a	wordpools/wordpool_EN.txt	PET	4	24	[0, 0, 0]	n/a	FR1	0	R1101T
2449.65	2.585	2584870	WORD	n/a	wordpools/wordpool_EN.txt	GEESE	5	24	[0, 0, 0]	n/a	FR1	0	R1101T
2452.235	2.582	2587455	WORD	n/a	wordpools/wordpool_EN.txt	RAT	6	24	[0, 0, 0]	n/a	FR1	0	R1101T
2454.817	2.618	2590037	WORD	n/a	wordpools/wordpool_EN.txt	MOUTH	7	24	[0, 0, 0]	n/a	FR1	0	R1101T
2457.435	2.567	2592655	WORD	n/a	wordpools/wordpool_EN.txt	CHEEK	8	24	[0, 0, 0]	n/a	FR1	0	R1101T
2460.002	2.517	2595222	WORD	n/a	wordpools/wordpool_EN.txt	GOLD	9	24	[0, 0, 0]	n/a	FR1	0	R1101T
2462.519	2.384	2597739	WORD	n/a	wordpools/wordpool_EN.txt	BENCH	10	24	[0, 0, 0]	n/a	FR1	0	R1101T
2464.903	2.418	2600123	WORD	n/a	wordpools/wordpool_EN.txt	SKUNK	11	24	[0, 0, 0]	n/a	FR1	0	R1101T
2467.321	1.616	2602541	WORD	n/a	wordpools/wordpool_EN.txt	RIB	12	24	[0, 0, 0]	n/a	FR1	0	R1101T
2468.937	0.001	2604157	DISTRACT_START	n/a	n/a	n/a	-999	24	[0, 0, 0]	n/a	FR1	0	R1101T
2468.938	0.015	2604158	START	n/a	n/a	n/a	-999	24	[-999, -999, -999]	n/a	FR1	0	R1101T
2468.953	4.785	2604173	PROB	4.785	n/a	n/a	-999	24	[5, 3, 1]	9	FR1	0	R1101T
2473.738	4.317	2608957	PROB	4.317	n/a	n/a	-999	24	[9, 5, 3]	17	FR1	0	R1101T
2478.055	5.252	2613274	PROB	5.252	n/a	n/a	-999	24	[8, 4, 9]	21	FR1	0	R1101T
2483.307	2.034	2618526	PROB	2.034	n/a	n/a	-999	24	[9, 1, 3]	13	FR1	0	R1101T
2485.341	6.796	2620560	PROB	6.796	n/a	n/a	-999	24	[4, 9, 7]	20	FR1	0	R1101T
2492.137	0.004	2627355	STOP	n/a	n/a	n/a	-999	24	[-999, -999, -999]	n/a	FR1	0	R1101T
2492.141	1.085	2627359	DISTRACT_END	n/a	n/a	n/a	-999	24	[0, 0, 0]	n/a	FR1	0	R1101T
2493.226	11.64	2628444	REC_START	n/a	n/a	n/a	-999	24	[0, 0, 0]	n/a	FR1	0	R1101T
2504.866	2.873	2640084	REC_WORD	2.873	n/a	LIP	-999	24	[0, 0, 0]	n/a	FR1	0	R1101T
2507.739	5.528	2642957	REC_WORD	5.528	n/a	DOG	-999	24	[0, 0, 0]	n/a	FR1	0	R1101T
2513.267	4.932	2648484	REC_WORD	4.932	n/a	CHEEK	-999	24	[0, 0, 0]	n/a	FR1	0	R1101T
2518.199	5.038	2653416	REC_WORD	5.038	n/a	GEESE	-999	24	[0, 0, 0]	n/a	FR1	0	R1101T
2523.237	2.577	2658454	REC_END	n/a	n/a	n/a	-999	24	[0, 0, 0]	n/a	FR1	0	R1101T
2525.814	0.0	2661031	TRIAL	n/a	n/a	n/a	-999	25	[0, 0, 0]	n/a	FR1	0	R1101T
2525.814	10.428	2661031	COUNTDOWN_START	n/a	n/a	n/a	-999	25	[0, 0, 0]	n/a	FR1	0	R1101T
2536.242	0.008	2671458	COUNTDOWN_END	n/a	n/a	n/a	-999	25	[0, 0, 0]	n/a	FR1	0	R1101T
2536.25	2.533	2671466	ORIENT	n/a	n/a	n/a	-999	25	[0, 0, 0]	n/a	FR1	0	R1101T
2538.783	2.433	2673999	WORD	n/a	wordpools/wordpool_EN.txt	SWORD	1	25	[0, 0, 0]	n/a	FR1	0	R1101T
2541.216	2.568	2676432	WORD	n/a	wordpools/wordpool_EN.txt	PARK	2	25	[0, 0, 0]	n/a	FR1	0	R1101T
2543.784	2.501	2679000	WORD	n/a	wordpools/wordpool_EN.txt	AXE	3	25	[0, 0, 0]	n/a	FR1	0	R1101T
2546.285	2.499	2681501	WORD	n/a	wordpools/wordpool_EN.txt	COUCH	4	25	[0, 0, 0]	n/a	FR1	0	R1101T
2548.784	2.552	2684000	WORD	n/a	wordpools/wordpool_EN.txt	POOL	5	25	[0, 0, 0]	n/a	FR1	0	R1101T
2551.336	2.583	2686551	WORD	n/a	wordpools/wordpool_EN.txt	BANK	6	25	[0, 0, 0]	n/a	FR1	0	R1101T
2553.919	2.45	2689134	WORD	n/a	wordpools/wordpool_EN.txt	FOAM	7	25	[0, 0, 0]	n/a	FR1	0	R1101T
2556.369	2.451	2691584	WORD	n/a	wordpools/wordpool_EN.txt	WEED	8	25	[0, 0, 0]	n/a	FR1	0	R1101T
2558.82	2.6	2694035	WORD	n/a	wordpools/wordpool_EN.txt	BED	9	25	[0, 0, 0]	n/a	FR1	0	R1101T
2561.42	2.434	2696635	WORD	n/a	wordpools/wordpool_EN.txt	SINK	10	25	[0, 0, 0]	n/a	FR1	0	R1101T
2563.854	2.451	2699069	WORD	n/a	wordpools/wordpool_EN.txt	HOUSE	11	25	[0, 0, 0]	n/a	FR1	0	R1101T
2566.305	1.616	2701520	WORD	n/a	wordpools/wordpool_EN.txt	MUG	12	25	[0, 0, 0]	n/a	FR1	0	R1101T
2567.921	0.001	2703136	DISTRACT_START	n/a	n/a	n/a	-999	25	[0, 0, 0]	n/a	FR1	0	R1101T
2567.922	0.016	2703137	START	n/a	n/a	n/a	-999	25	[-999, -999, -999]	n/a	FR1	0	R1101T
2567.938	4.868	2703153	PROB	4.868	n/a	n/a	-999	25	[3, 9, 6]	18	FR1	0	R1101T
2572.806	2.633	2708020	PROB	2.633	n/a	n/a	-999	25	[6, 5, 5]	16	FR1	0	R1101T
2575.439	3.368	2710653	PROB	3.368	n/a	n/a	-999	25	[2, 7, 7]	16	FR1	0	R1101T
2578.807	3.134	2714021	PROB	3.134	n/a	n/a	-999	25	[7, 5, 6]	18	FR1	0	R1101T
2581.941	3.467	2717155	PROB	3.467	n/a	n/a	-999	25	[7, 2, 7]	16	FR1	0	R1101T
2585.408	3.144	2720622	PROB	3.144	n/a	n/a	-999	25	[2, 5, 1]	8	FR1	0	R1101T
2588.552	0.006	2723766	STOP	n/a	n/a	n/a	-999	25	[-999, -999, -999]	n/a	FR1	0	R1101T
2588.558	1.201	2723772	DISTRACT_END	n/a	n/a	n/a	-999	25	[0, 0, 0]	n/a	FR1	0	R1101T
2589.759	13.828	2724973	REC_START	n/a	n/a	n/a	-999	25	[0, 0, 0]	n/a	FR1	0	R1101T
2603.587	8.705	2738800	REC_WORD	8.705	n/a	MOUSE	-999	25	[0, 0, 0]	n/a	FR1	0	R1101T
2612.292	7.478	2747504	REC_WORD	7.478	n/a	HOUSE	-999	25	[0, 0, 0]	n/a	FR1	0	R1101T
2619.77	11.013	2754982	REC_END	n/a	n/a	n/a	-999	25	[0, 0, 0]	n/a	FR1	0	R1101T
2630.783	0.0	2765995	SESS_END	n/a	n/a	n/a	-999	25	[0, 0, 0]	n/a	FR1	0	R1101T
