onset	duration	sample	trial_type	response_time	stim_file	item_name	serialpos	list	test	answer	experiment	session	subject
0.0	19.764	284421	SESS_START	n/a	n/a	n/a	-999	-999	[0, 0, 0]	n/a	FR1	0	R1020J
19.764	10.428	304184	COUNTDOWN_START	n/a	n/a	n/a	-999	-999	[0, 0, 0]	n/a	FR1	0	R1020J
30.192	3.646	314612	COUNTDOWN_END	n/a	n/a	n/a	-999	-999	[0, 0, 0]	n/a	FR1	0	R1020J
33.838	2.47	318257	PRACTICE_WORD	n/a	n/a	TONGUE	1	-1	[0, 0, 0]	n/a	FR1	0	R1020J
36.308	2.404	320727	PRACTICE_WORD	n/a	n/a	RHINO	2	-1	[0, 0, 0]	n/a	FR1	0	R1020J
38.712	2.588	323131	PRACTICE_WORD	n/a	n/a	WAGON	3	-1	[0, 0, 0]	n/a	FR1	0	R1020J
41.3	2.488	325719	PRACTICE_WORD	n/a	n/a	CAMEL	4	-1	[0, 0, 0]	n/a	FR1	0	R1020J
43.788	2.521	328207	PRACTICE_WORD	n/a	n/a	BEAM	5	-1	[0, 0, 0]	n/a	FR1	0	R1020J
46.309	2.42	330728	PRACTICE_WORD	n/a	n/a	IRON	6	-1	[0, 0, 0]	n/a	FR1	0	R1020J
48.729	2.571	333148	PRACTICE_WORD	n/a	n/a	FLOOD	7	-1	[0, 0, 0]	n/a	FR1	0	R1020J
51.3	2.404	335719	PRACTICE_WORD	n/a	n/a	ATTIC	8	-1	[0, 0, 0]	n/a	FR1	0	R1020J
53.704	2.488	338123	PRACTICE_WORD	n/a	n/a	RING	9	-1	[0, 0, 0]	n/a	FR1	0	R1020J
56.192	2.589	340611	PRACTICE_WORD	n/a	n/a	COTTON	10	-1	[0, 0, 0]	n/a	FR1	0	R1020J
58.781	2.603	343200	PRACTICE_WORD	n/a	n/a	CHEST	11	-1	[0, 0, 0]	n/a	FR1	0	R1020J
61.384	1.619	345802	PRACTICE_WORD	n/a	n/a	WATCH	12	-1	[0, 0, 0]	n/a	FR1	0	R1020J
63.003	0.001	347421	PRACTICE_DISTRACT_START	n/a	n/a	n/a	-999	-1	[0, 0, 0]	n/a	FR1	0	R1020J
63.004	0.049	347422	START	n/a	n/a	n/a	-999	-1	[-999, -999, -999]	n/a	FR1	0	R1020J
63.053	10.184	347471	PROB	10.184	n/a	n/a	-999	-1	[4, 7, 7]	18	FR1	0	R1020J
73.237	3.139	357655	PROB	3.139	n/a	n/a	-999	-1	[1, 3, 1]	5	FR1	0	R1020J
76.376	4.173	360794	PROB	4.173	n/a	n/a	-999	-1	[3, 2, 9]	14	FR1	0	R1020J
80.549	7.017	364967	PROB	7.017	n/a	n/a	-999	-1	[5, 7, 8]	20	FR1	0	R1020J
87.566	0.012	371984	STOP	n/a	n/a	n/a	-999	-1	[-999, -999, -999]	n/a	FR1	0	R1020J
87.578	0.619	371996	PRACTICE_DISTRACT_END	n/a	n/a	n/a	-999	-1	[0, 0, 0]	n/a	FR1	0	R1020J
88.197	30.516	372615	PRACTICE_REC_START	n/a	n/a	n/a	-999	-1	[0, 0, 0]	n/a	FR1	0	R1020J
118.713	41.537	403129	PRACTICE_REC_END	n/a	n/a	n/a	-999	-1	[0, 0, 0]	n/a	FR1	0	R1020J
160.25	0.001	444665	COUNTDOWN_START	n/a	n/a	n/a	-999	1	[0, 0, 0]	n/a	FR1	0	R1020J
160.251	10.427	444666	TRIAL	n/a	n/a	n/a	-999	1	[0, 0, 0]	n/a	FR1	0	R1020J
170.678	0.006	455093	COUNTDOWN_END	n/a	n/a	n/a	-999	1	[0, 0, 0]	n/a	FR1	0	R1020J
170.684	2.455	455099	ORIENT	n/a	n/a	n/a	-999	1	[0, 0, 0]	n/a	FR1	0	R1020J
173.139	2.471	457553	WORD	n/a	wordpools/wordpool_EN.txt	SKI	1	1	[0, 0, 0]	n/a	FR1	0	R1020J
175.61	2.604	460024	WORD	n/a	wordpools/wordpool_EN.txt	SHRIMP	2	1	[0, 0, 0]	n/a	FR1	0	R1020J
178.214	2.487	462628	WORD	n/a	wordpools/wordpool_EN.txt	PLANE	3	1	[0, 0, 0]	n/a	FR1	0	R1020J
180.701	2.471	465115	WORD	n/a	wordpools/wordpool_EN.txt	DART	4	1	[0, 0, 0]	n/a	FR1	0	R1020J
183.172	2.605	467586	WORD	n/a	wordpools/wordpool_EN.txt	CLAY	5	1	[0, 0, 0]	n/a	FR1	0	R1020J
185.777	2.404	470191	WORD	n/a	wordpools/wordpool_EN.txt	CLOUD	6	1	[0, 0, 0]	n/a	FR1	0	R1020J
188.181	2.421	472595	WORD	n/a	wordpools/wordpool_EN.txt	BALL	7	1	[0, 0, 0]	n/a	FR1	0	R1020J
190.602	2.52	475016	WORD	n/a	wordpools/wordpool_EN.txt	BOMB	8	1	[0, 0, 0]	n/a	FR1	0	R1020J
193.122	2.588	477536	WORD	n/a	wordpools/wordpool_EN.txt	MOON	9	1	[0, 0, 0]	n/a	FR1	0	R1020J
195.71	2.571	480124	WORD	n/a	wordpools/wordpool_EN.txt	WHEEL	10	1	[0, 0, 0]	n/a	FR1	0	R1020J
198.281	2.521	482695	WORD	n/a	wordpools/wordpool_EN.txt	FILM	11	1	[0, 0, 0]	n/a	FR1	0	R1020J
200.802	1.619	485215	WORD	n/a	wordpools/wordpool_EN.txt	BAT	12	1	[0, 0, 0]	n/a	FR1	0	R1020J
202.421	0.001	486834	DISTRACT_START	n/a	n/a	n/a	-999	1	[0, 0, 0]	n/a	FR1	0	R1020J
202.422	0.016	486835	START	n/a	n/a	n/a	-999	1	[-999, -999, -999]	n/a	FR1	0	R1020J
202.438	4.357	486851	PROB	4.357	n/a	n/a	-999	1	[2, 5, 3]	10	FR1	0	R1020J
206.795	7.546	491208	PROB	7.546	n/a	n/a	-999	1	[9, 8, 6]	24	FR1	0	R1020J
214.341	3.606	498754	PROB	3.606	n/a	n/a	-999	1	[5, 6, 4]	15	FR1	0	R1020J
217.947	3.84	502360	PROB	3.84	n/a	n/a	-999	1	[2, 3, 8]	13	FR1	0	R1020J
221.787	4.332	506200	PROB	4.332	n/a	n/a	-999	1	[7, 2, 1]	10	FR1	0	R1020J
226.119	0.01	510532	STOP	n/a	n/a	n/a	-999	1	[-999, -999, -999]	n/a	FR1	0	R1020J
226.129	1.536	510542	DISTRACT_END	n/a	n/a	n/a	-999	1	[0, 0, 0]	n/a	FR1	0	R1020J
227.665	0.634	512078	REC_START	n/a	n/a	n/a	-999	1	[0, 0, 0]	n/a	FR1	0	R1020J
228.299	0.696	512711	REC_WORD	0.696	n/a	SKI	-999	1	[0, 0, 0]	n/a	FR1	0	R1020J
228.995	2.457	513407	REC_WORD	2.457	n/a	SHRIMP	-999	1	[0, 0, 0]	n/a	FR1	0	R1020J
231.452	1.94	515864	REC_WORD_VV	1.94	n/a	<>	-999	1	[0, 0, 0]	n/a	FR1	0	R1020J
233.392	0.819	517804	REC_WORD	0.819	n/a	DART	-999	1	[0, 0, 0]	n/a	FR1	0	R1020J
234.211	15.996	518623	REC_WORD	15.996	n/a	BOMB	-999	1	[0, 0, 0]	n/a	FR1	0	R1020J
250.207	5.158	534619	REC_WORD	5.158	n/a	SKI	-999	1	[0, 0, 0]	n/a	FR1	0	R1020J
255.365	1.977	539777	REC_WORD	1.977	n/a	BALL	-999	1	[0, 0, 0]	n/a	FR1	0	R1020J
257.342	5.481	541753	REC_END	n/a	n/a	n/a	-999	1	[0, 0, 0]	n/a	FR1	0	R1020J
262.823	0.0	547234	TRIAL	n/a	n/a	n/a	-999	2	[0, 0, 0]	n/a	FR1	0	R1020J
262.823	10.428	547234	COUNTDOWN_START	n/a	n/a	n/a	-999	2	[0, 0, 0]	n/a	FR1	0	R1020J
273.251	0.006	557662	COUNTDOWN_END	n/a	n/a	n/a	-999	2	[0, 0, 0]	n/a	FR1	0	R1020J
273.257	2.588	557668	ORIENT	n/a	n/a	n/a	-999	2	[0, 0, 0]	n/a	FR1	0	R1020J
275.845	2.454	560256	WORD	n/a	wordpools/wordpool_EN.txt	JUICE	1	2	[0, 0, 0]	n/a	FR1	0	R1020J
278.299	2.437	562710	WORD	n/a	wordpools/wordpool_EN.txt	SPONGE	2	2	[0, 0, 0]	n/a	FR1	0	R1020J
280.736	2.421	565147	WORD	n/a	wordpools/wordpool_EN.txt	SOAP	3	2	[0, 0, 0]	n/a	FR1	0	R1020J
283.157	2.504	567568	WORD	n/a	wordpools/wordpool_EN.txt	FROG	4	2	[0, 0, 0]	n/a	FR1	0	R1020J
285.661	2.538	570071	WORD	n/a	wordpools/wordpool_EN.txt	ROOM	5	2	[0, 0, 0]	n/a	FR1	0	R1020J
288.199	2.504	572609	WORD	n/a	wordpools/wordpool_EN.txt	PALM	6	2	[0, 0, 0]	n/a	FR1	0	R1020J
290.703	2.621	575113	WORD	n/a	wordpools/wordpool_EN.txt	SEA	7	2	[0, 0, 0]	n/a	FR1	0	R1020J
293.324	2.538	577734	WORD	n/a	wordpools/wordpool_EN.txt	TEETH	8	2	[0, 0, 0]	n/a	FR1	0	R1020J
295.862	2.504	580272	WORD	n/a	wordpools/wordpool_EN.txt	PLATE	9	2	[0, 0, 0]	n/a	FR1	0	R1020J
298.366	2.505	582776	WORD	n/a	wordpools/wordpool_EN.txt	TOOTH	10	2	[0, 0, 0]	n/a	FR1	0	R1020J
300.871	2.453	585281	WORD	n/a	wordpools/wordpool_EN.txt	SNAIL	11	2	[0, 0, 0]	n/a	FR1	0	R1020J
303.324	1.604	587734	WORD	n/a	wordpools/wordpool_EN.txt	SALT	12	2	[0, 0, 0]	n/a	FR1	0	R1020J
304.928	0.001	589338	DISTRACT_START	n/a	n/a	n/a	-999	2	[0, 0, 0]	n/a	FR1	0	R1020J
304.929	0.015	589339	START	n/a	n/a	n/a	-999	2	[-999, -999, -999]	n/a	FR1	0	R1020J
304.944	5.225	589354	PROB	5.225	n/a	n/a	-999	2	[8, 5, 9]	22	FR1	0	R1020J
310.169	3.741	594579	PROB	3.741	n/a	n/a	-999	2	[6, 3, 1]	10	FR1	0	R1020J
313.91	4.992	598319	PROB	4.992	n/a	n/a	-999	2	[3, 9, 2]	14	FR1	0	R1020J
318.902	6.61	603311	PROB	6.61	n/a	n/a	-999	2	[8, 4, 3]	15	FR1	0	R1020J
325.512	0.016	609921	STOP	n/a	n/a	n/a	-999	2	[-999, -999, -999]	n/a	FR1	0	R1020J
325.528	1.07	609937	DISTRACT_END	n/a	n/a	n/a	-999	2	[0, 0, 0]	n/a	FR1	0	R1020J
326.598	1.561	611007	REC_START	n/a	n/a	n/a	-999	2	[0, 0, 0]	n/a	FR1	0	R1020J
328.159	1.106	612568	REC_WORD	1.106	n/a	SEA	-999	2	[0, 0, 0]	n/a	FR1	0	R1020J
329.265	0.733	613674	REC_WORD	0.733	n/a	SPONGE	-999	2	[0, 0, 0]	n/a	FR1	0	R1020J
329.998	0.751	614407	REC_WORD	0.751	n/a	SALT	-999	2	[0, 0, 0]	n/a	FR1	0	R1020J
330.749	2.992	615158	REC_WORD	2.992	n/a	SNAIL	-999	2	[0, 0, 0]	n/a	FR1	0	R1020J
333.741	9.767	618150	REC_WORD	9.767	n/a	TEETH	-999	2	[0, 0, 0]	n/a	FR1	0	R1020J
343.508	13.103	627916	REC_WORD	13.103	n/a	PLATE	-999	2	[0, 0, 0]	n/a	FR1	0	R1020J
356.611	3.325	641019	REC_END	n/a	n/a	n/a	-999	2	[0, 0, 0]	n/a	FR1	0	R1020J
359.936	0.001	644344	COUNTDOWN_START	n/a	n/a	n/a	-999	3	[0, 0, 0]	n/a	FR1	0	R1020J
359.937	10.427	644345	TRIAL	n/a	n/a	n/a	-999	3	[0, 0, 0]	n/a	FR1	0	R1020J
370.364	0.006	654771	COUNTDOWN_END	n/a	n/a	n/a	-999	3	[0, 0, 0]	n/a	FR1	0	R1020J
370.37	2.606	654777	ORIENT	n/a	n/a	n/a	-999	3	[0, 0, 0]	n/a	FR1	0	R1020J
372.976	2.57	657383	WORD	n/a	wordpools/wordpool_EN.txt	PET	1	3	[0, 0, 0]	n/a	FR1	0	R1020J
375.546	2.438	659953	WORD	n/a	wordpools/wordpool_EN.txt	HOLE	2	3	[0, 0, 0]	n/a	FR1	0	R1020J
377.984	2.504	662391	WORD	n/a	wordpools/wordpool_EN.txt	SLEEVE	3	3	[0, 0, 0]	n/a	FR1	0	R1020J
380.488	2.487	664895	WORD	n/a	wordpools/wordpool_EN.txt	CUBE	4	3	[0, 0, 0]	n/a	FR1	0	R1020J
382.975	2.554	667382	WORD	n/a	wordpools/wordpool_EN.txt	NAIL	5	3	[0, 0, 0]	n/a	FR1	0	R1020J
385.529	2.606	669936	WORD	n/a	wordpools/wordpool_EN.txt	COUCH	6	3	[0, 0, 0]	n/a	FR1	0	R1020J
388.135	2.603	672542	WORD	n/a	wordpools/wordpool_EN.txt	BARN	7	3	[0, 0, 0]	n/a	FR1	0	R1020J
390.738	2.488	675145	WORD	n/a	wordpools/wordpool_EN.txt	YARD	8	3	[0, 0, 0]	n/a	FR1	0	R1020J
393.226	2.521	677633	WORD	n/a	wordpools/wordpool_EN.txt	PIN	9	3	[0, 0, 0]	n/a	FR1	0	R1020J
395.747	2.454	680153	WORD	n/a	wordpools/wordpool_EN.txt	WALL	10	3	[0, 0, 0]	n/a	FR1	0	R1020J
398.201	2.471	682607	WORD	n/a	wordpools/wordpool_EN.txt	LAWN	11	3	[0, 0, 0]	n/a	FR1	0	R1020J
400.672	1.619	685078	WORD	n/a	wordpools/wordpool_EN.txt	TIE	12	3	[0, 0, 0]	n/a	FR1	0	R1020J
402.291	0.001	686697	DISTRACT_START	n/a	n/a	n/a	-999	3	[0, 0, 0]	n/a	FR1	0	R1020J
402.292	0.016	686698	START	n/a	n/a	n/a	-999	3	[-999, -999, -999]	n/a	FR1	0	R1020J
402.308	4.507	686714	PROB	4.507	n/a	n/a	-999	3	[1, 6, 5]	12	FR1	0	R1020J
406.815	5.242	691221	PROB	5.242	n/a	n/a	-999	3	[5, 9, 8]	22	FR1	0	R1020J
412.057	4.458	696463	PROB	4.458	n/a	n/a	-999	3	[5, 7, 1]	13	FR1	0	R1020J
416.515	4.09	700921	PROB	4.09	n/a	n/a	-999	3	[2, 2, 5]	9	FR1	0	R1020J
420.605	5.403	705011	PROB	5.403	n/a	n/a	-999	3	[2, 8, 4]	14	FR1	0	R1020J
426.008	0.006	710413	STOP	n/a	n/a	n/a	-999	3	[-999, -999, -999]	n/a	FR1	0	R1020J
426.014	1.119	710419	DISTRACT_END	n/a	n/a	n/a	-999	3	[0, 0, 0]	n/a	FR1	0	R1020J
427.133	2.038	711538	REC_START	n/a	n/a	n/a	-999	3	[0, 0, 0]	n/a	FR1	0	R1020J
429.171	1.662	713576	REC_WORD	1.662	n/a	PET	-999	3	[0, 0, 0]	n/a	FR1	0	R1020J
430.833	1.39	715238	REC_WORD	1.39	n/a	HOLE	-999	3	[0, 0, 0]	n/a	FR1	0	R1020J
432.223	2.077	716628	REC_WORD	2.077	n/a	COUCH	-999	3	[0, 0, 0]	n/a	FR1	0	R1020J
434.3	22.855	718705	REC_WORD	22.855	n/a	TIE	-999	3	[0, 0, 0]	n/a	FR1	0	R1020J
457.155	3.952	741559	REC_END	n/a	n/a	n/a	-999	3	[0, 0, 0]	n/a	FR1	0	R1020J
461.107	0.0	745511	TRIAL	n/a	n/a	n/a	-999	4	[0, 0, 0]	n/a	FR1	0	R1020J
461.107	10.428	745511	COUNTDOWN_START	n/a	n/a	n/a	-999	4	[0, 0, 0]	n/a	FR1	0	R1020J
471.535	0.006	755939	COUNTDOWN_END	n/a	n/a	n/a	-999	4	[0, 0, 0]	n/a	FR1	0	R1020J
471.541	2.554	755945	ORIENT	n/a	n/a	n/a	-999	4	[0, 0, 0]	n/a	FR1	0	R1020J
474.095	2.404	758499	WORD	n/a	wordpools/wordpool_EN.txt	JAR	1	4	[0, 0, 0]	n/a	FR1	0	R1020J
476.499	2.621	760903	WORD	n/a	wordpools/wordpool_EN.txt	MILK	2	4	[0, 0, 0]	n/a	FR1	0	R1020J
479.12	2.538	763524	WORD	n/a	wordpools/wordpool_EN.txt	STORM	3	4	[0, 0, 0]	n/a	FR1	0	R1020J
481.658	2.504	766061	WORD	n/a	wordpools/wordpool_EN.txt	DITCH	4	4	[0, 0, 0]	n/a	FR1	0	R1020J
484.162	2.604	768565	WORD	n/a	wordpools/wordpool_EN.txt	FLEA	5	4	[0, 0, 0]	n/a	FR1	0	R1020J
486.766	2.588	771169	WORD	n/a	wordpools/wordpool_EN.txt	MOTH	6	4	[0, 0, 0]	n/a	FR1	0	R1020J
489.354	2.471	773757	WORD	n/a	wordpools/wordpool_EN.txt	STRAW	7	4	[0, 0, 0]	n/a	FR1	0	R1020J
491.825	2.538	776228	WORD	n/a	wordpools/wordpool_EN.txt	SOUP	8	4	[0, 0, 0]	n/a	FR1	0	R1020J
494.363	2.521	778766	WORD	n/a	wordpools/wordpool_EN.txt	CHEEK	9	4	[0, 0, 0]	n/a	FR1	0	R1020J
496.884	2.57	781287	WORD	n/a	wordpools/wordpool_EN.txt	RAKE	10	4	[0, 0, 0]	n/a	FR1	0	R1020J
499.454	2.638	783857	WORD	n/a	wordpools/wordpool_EN.txt	ARK	11	4	[0, 0, 0]	n/a	FR1	0	R1020J
502.092	1.62	786495	WORD	n/a	wordpools/wordpool_EN.txt	FRUIT	12	4	[0, 0, 0]	n/a	FR1	0	R1020J
503.712	0.0	788115	DISTRACT_START	n/a	n/a	n/a	-999	4	[0, 0, 0]	n/a	FR1	0	R1020J
503.712	0.016	788115	START	n/a	n/a	n/a	-999	4	[-999, -999, -999]	n/a	FR1	0	R1020J
503.728	5.025	788131	PROB	5.025	n/a	n/a	-999	4	[7, 7, 3]	17	FR1	0	R1020J
508.753	5.844	793155	PROB	5.844	n/a	n/a	-999	4	[6, 9, 8]	23	FR1	0	R1020J
514.597	5.091	798999	PROB	5.091	n/a	n/a	-999	4	[6, 2, 2]	10	FR1	0	R1020J
519.688	4.285	804090	PROB	4.285	n/a	n/a	-999	4	[7, 4, 2]	13	FR1	0	R1020J
523.973	0.006	808375	STOP	n/a	n/a	n/a	-999	4	[-999, -999, -999]	n/a	FR1	0	R1020J
523.979	1.219	808381	DISTRACT_END	n/a	n/a	n/a	-999	4	[0, 0, 0]	n/a	FR1	0	R1020J
525.198	2.236	809600	REC_START	n/a	n/a	n/a	-999	4	[0, 0, 0]	n/a	FR1	0	R1020J
527.434	2.54	811836	REC_WORD	2.54	n/a	ARK	-999	4	[0, 0, 0]	n/a	FR1	0	R1020J
529.974	1.38	814376	REC_WORD	1.38	n/a	STORM	-999	4	[0, 0, 0]	n/a	FR1	0	R1020J
531.354	3.19	815756	REC_WORD	3.19	n/a	DITCH	-999	4	[0, 0, 0]	n/a	FR1	0	R1020J
534.544	7.666	818946	REC_WORD	7.666	n/a	MOTH	-999	4	[0, 0, 0]	n/a	FR1	0	R1020J
542.21	9.374	826611	REC_WORD	9.374	n/a	FLEA	-999	4	[0, 0, 0]	n/a	FR1	0	R1020J
551.584	3.628	835985	REC_WORD	3.628	n/a	COUCH	-999	4	[0, 0, 0]	n/a	FR1	0	R1020J
555.212	2.49	839613	REC_END	n/a	n/a	n/a	-999	4	[0, 0, 0]	n/a	FR1	0	R1020J
557.702	0.001	842103	COUNTDOWN_START	n/a	n/a	n/a	-999	5	[0, 0, 0]	n/a	FR1	0	R1020J
557.703	10.427	842104	TRIAL	n/a	n/a	n/a	-999	5	[0, 0, 0]	n/a	FR1	0	R1020J
568.13	0.007	852530	COUNTDOWN_END	n/a	n/a	n/a	-999	5	[0, 0, 0]	n/a	FR1	0	R1020J
568.137	2.604	852537	ORIENT	n/a	n/a	n/a	-999	5	[0, 0, 0]	n/a	FR1	0	R1020J
570.741	2.404	855141	WORD	n/a	wordpools/wordpool_EN.txt	BRICK	1	5	[0, 0, 0]	n/a	FR1	0	R1020J
573.145	2.404	857545	WORD	n/a	wordpools/wordpool_EN.txt	CRANE	2	5	[0, 0, 0]	n/a	FR1	0	R1020J
575.549	2.471	859949	WORD	n/a	wordpools/wordpool_EN.txt	TOOL	3	5	[0, 0, 0]	n/a	FR1	0	R1020J
578.02	2.454	862420	WORD	n/a	wordpools/wordpool_EN.txt	HOSE	4	5	[0, 0, 0]	n/a	FR1	0	R1020J
580.474	2.387	864874	WORD	n/a	wordpools/wordpool_EN.txt	AXE	5	5	[0, 0, 0]	n/a	FR1	0	R1020J
582.861	2.571	867261	WORD	n/a	wordpools/wordpool_EN.txt	THUMB	6	5	[0, 0, 0]	n/a	FR1	0	R1020J
585.432	2.605	869832	WORD	n/a	wordpools/wordpool_EN.txt	VINE	7	5	[0, 0, 0]	n/a	FR1	0	R1020J
588.037	2.387	872437	WORD	n/a	wordpools/wordpool_EN.txt	SUIT	8	5	[0, 0, 0]	n/a	FR1	0	R1020J
590.424	2.621	874824	WORD	n/a	wordpools/wordpool_EN.txt	WOOD	9	5	[0, 0, 0]	n/a	FR1	0	R1020J
593.045	2.488	877444	WORD	n/a	wordpools/wordpool_EN.txt	PIPE	10	5	[0, 0, 0]	n/a	FR1	0	R1020J
595.533	2.437	879932	WORD	n/a	wordpools/wordpool_EN.txt	OAK	11	5	[0, 0, 0]	n/a	FR1	0	R1020J
597.97	1.62	882369	WORD	n/a	wordpools/wordpool_EN.txt	EEL	12	5	[0, 0, 0]	n/a	FR1	0	R1020J
599.59	0.0	883989	DISTRACT_START	n/a	n/a	n/a	-999	5	[0, 0, 0]	n/a	FR1	0	R1020J
599.59	0.016	883989	START	n/a	n/a	n/a	-999	5	[-999, -999, -999]	n/a	FR1	0	R1020J
599.606	3.156	884005	PROB	3.156	n/a	n/a	-999	5	[1, 6, 6]	13	FR1	0	R1020J
602.762	3.606	887161	PROB	3.606	n/a	n/a	-999	5	[5, 7, 5]	17	FR1	0	R1020J
606.368	7.228	890767	PROB	7.228	n/a	n/a	-999	5	[7, 5, 6]	18	FR1	0	R1020J
613.596	6.624	897995	PROB	6.624	n/a	n/a	-999	5	[9, 3, 6]	18	FR1	0	R1020J
620.22	0.021	904618	STOP	n/a	n/a	n/a	-999	5	[-999, -999, -999]	n/a	FR1	0	R1020J
620.241	1.136	904639	DISTRACT_END	n/a	n/a	n/a	-999	5	[0, 0, 0]	n/a	FR1	0	R1020J
621.377	1.305	905775	REC_START	n/a	n/a	n/a	-999	5	[0, 0, 0]	n/a	FR1	0	R1020J
622.682	0.84	907080	REC_WORD	0.84	n/a	BRICK	-999	5	[0, 0, 0]	n/a	FR1	0	R1020J
623.522	1.197	907920	REC_WORD	1.197	n/a	WOOD	-999	5	[0, 0, 0]	n/a	FR1	0	R1020J
624.719	2.315	909117	REC_WORD	2.315	n/a	AXE	-999	5	[0, 0, 0]	n/a	FR1	0	R1020J
627.034	2.953	911432	REC_WORD	2.953	n/a	SUIT	-999	5	[0, 0, 0]	n/a	FR1	0	R1020J
629.987	9.582	914385	REC_WORD	9.582	n/a	CRANE	-999	5	[0, 0, 0]	n/a	FR1	0	R1020J
639.569	11.821	923967	REC_WORD	11.821	n/a	TOOL	-999	5	[0, 0, 0]	n/a	FR1	0	R1020J
651.39	3.426	935787	REC_END	n/a	n/a	n/a	-999	5	[0, 0, 0]	n/a	FR1	0	R1020J
654.816	0.0	939213	TRIAL	n/a	n/a	n/a	-999	6	[0, 0, 0]	n/a	FR1	0	R1020J
654.816	10.428	939213	COUNTDOWN_START	n/a	n/a	n/a	-999	6	[0, 0, 0]	n/a	FR1	0	R1020J
665.244	0.006	949641	COUNTDOWN_END	n/a	n/a	n/a	-999	6	[0, 0, 0]	n/a	FR1	0	R1020J
665.25	2.555	949647	ORIENT	n/a	n/a	n/a	-999	6	[0, 0, 0]	n/a	FR1	0	R1020J
667.805	2.454	952202	WORD	n/a	wordpools/wordpool_EN.txt	CLOWN	1	6	[0, 0, 0]	n/a	FR1	0	R1020J
670.259	2.537	954656	WORD	n/a	wordpools/wordpool_EN.txt	BOOT	2	6	[0, 0, 0]	n/a	FR1	0	R1020J
672.796	2.588	957193	WORD	n/a	wordpools/wordpool_EN.txt	WORM	3	6	[0, 0, 0]	n/a	FR1	0	R1020J
675.384	2.588	959780	WORD	n/a	wordpools/wordpool_EN.txt	DEER	4	6	[0, 0, 0]	n/a	FR1	0	R1020J
677.972	2.571	962368	WORD	n/a	wordpools/wordpool_EN.txt	HAWK	5	6	[0, 0, 0]	n/a	FR1	0	R1020J
680.543	2.554	964939	WORD	n/a	wordpools/wordpool_EN.txt	CROWN	6	6	[0, 0, 0]	n/a	FR1	0	R1020J
683.097	2.454	967493	WORD	n/a	wordpools/wordpool_EN.txt	PIT	7	6	[0, 0, 0]	n/a	FR1	0	R1020J
685.551	2.571	969947	WORD	n/a	wordpools/wordpool_EN.txt	FISH	8	6	[0, 0, 0]	n/a	FR1	0	R1020J
688.122	2.504	972518	WORD	n/a	wordpools/wordpool_EN.txt	MOUSE	9	6	[0, 0, 0]	n/a	FR1	0	R1020J
690.626	2.521	975022	WORD	n/a	wordpools/wordpool_EN.txt	STEAK	10	6	[0, 0, 0]	n/a	FR1	0	R1020J
693.147	2.472	977543	WORD	n/a	wordpools/wordpool_EN.txt	TAIL	11	6	[0, 0, 0]	n/a	FR1	0	R1020J
695.619	1.618	980015	WORD	n/a	wordpools/wordpool_EN.txt	WORLD	12	6	[0, 0, 0]	n/a	FR1	0	R1020J
697.237	0.001	981633	DISTRACT_START	n/a	n/a	n/a	-999	6	[0, 0, 0]	n/a	FR1	0	R1020J
697.238	0.016	981634	START	n/a	n/a	n/a	-999	6	[-999, -999, -999]	n/a	FR1	0	R1020J
697.254	3.222	981650	PROB	3.222	n/a	n/a	-999	6	[1, 8, 2]	11	FR1	0	R1020J
700.476	3.155	984872	PROB	3.155	n/a	n/a	-999	6	[1, 3, 2]	6	FR1	0	R1020J
703.631	3.773	988026	PROB	3.773	n/a	n/a	-999	6	[3, 6, 1]	10	FR1	0	R1020J
707.404	3.623	991799	PROB	3.623	n/a	n/a	-999	6	[8, 4, 8]	20	FR1	0	R1020J
711.027	4.408	995422	PROB	4.408	n/a	n/a	-999	6	[3, 4, 2]	9	FR1	0	R1020J
715.435	7.228	999830	PROB	7.228	n/a	n/a	-999	6	[4, 7, 4]	15	FR1	0	R1020J
722.663	0.017	1007058	STOP	n/a	n/a	n/a	-999	6	[-999, -999, -999]	n/a	FR1	0	R1020J
722.68	1.169	1007075	DISTRACT_END	n/a	n/a	n/a	-999	6	[0, 0, 0]	n/a	FR1	0	R1020J
723.849	2.012	1008244	REC_START	n/a	n/a	n/a	-999	6	[0, 0, 0]	n/a	FR1	0	R1020J
725.861	1.359	1010256	REC_WORD	1.359	n/a	STEAK	-999	6	[0, 0, 0]	n/a	FR1	0	R1020J
727.22	1.527	1011615	REC_WORD	1.527	n/a	TAIL	-999	6	[0, 0, 0]	n/a	FR1	0	R1020J
728.747	2.761	1013142	REC_WORD	2.761	n/a	MOUSE	-999	6	[0, 0, 0]	n/a	FR1	0	R1020J
731.508	5.581	1015902	REC_WORD	5.581	n/a	WORLD	-999	6	[0, 0, 0]	n/a	FR1	0	R1020J
737.089	1.096	1021483	REC_WORD	1.096	n/a	AXE	-999	6	[0, 0, 0]	n/a	FR1	0	R1020J
738.185	11.455	1022579	REC_WORD	11.455	n/a	BOOT	-999	6	[0, 0, 0]	n/a	FR1	0	R1020J
749.64	4.23	1034034	REC_WORD	4.23	n/a	CLOWN	-999	6	[0, 0, 0]	n/a	FR1	0	R1020J
753.87	3.251	1038264	REC_END	n/a	n/a	n/a	-999	6	[0, 0, 0]	n/a	FR1	0	R1020J
757.121	0.001	1041515	COUNTDOWN_START	n/a	n/a	n/a	-999	7	[0, 0, 0]	n/a	FR1	0	R1020J
757.122	10.427	1041516	TRIAL	n/a	n/a	n/a	-999	7	[0, 0, 0]	n/a	FR1	0	R1020J
767.549	0.007	1051942	COUNTDOWN_END	n/a	n/a	n/a	-999	7	[0, 0, 0]	n/a	FR1	0	R1020J
767.556	2.554	1051949	ORIENT	n/a	n/a	n/a	-999	7	[0, 0, 0]	n/a	FR1	0	R1020J
770.11	2.589	1054503	WORD	n/a	wordpools/wordpool_EN.txt	MAP	1	7	[0, 0, 0]	n/a	FR1	0	R1020J
772.699	2.47	1057092	WORD	n/a	wordpools/wordpool_EN.txt	LAKE	2	7	[0, 0, 0]	n/a	FR1	0	R1020J
775.169	2.554	1059562	WORD	n/a	wordpools/wordpool_EN.txt	SNOW	3	7	[0, 0, 0]	n/a	FR1	0	R1020J
777.723	2.587	1062116	WORD	n/a	wordpools/wordpool_EN.txt	TRAIN	4	7	[0, 0, 0]	n/a	FR1	0	R1020J
780.31	2.521	1064703	WORD	n/a	wordpools/wordpool_EN.txt	SKUNK	5	7	[0, 0, 0]	n/a	FR1	0	R1020J
782.831	2.555	1067224	WORD	n/a	wordpools/wordpool_EN.txt	CAPE	6	7	[0, 0, 0]	n/a	FR1	0	R1020J
785.386	2.42	1069779	WORD	n/a	wordpools/wordpool_EN.txt	ICE	7	7	[0, 0, 0]	n/a	FR1	0	R1020J
787.806	2.588	1072198	WORD	n/a	wordpools/wordpool_EN.txt	ROCK	8	7	[0, 0, 0]	n/a	FR1	0	R1020J
790.394	2.437	1074786	WORD	n/a	wordpools/wordpool_EN.txt	RAIN	9	7	[0, 0, 0]	n/a	FR1	0	R1020J
792.831	2.404	1077223	WORD	n/a	wordpools/wordpool_EN.txt	POLE	10	7	[0, 0, 0]	n/a	FR1	0	R1020J
795.235	2.572	1079627	WORD	n/a	wordpools/wordpool_EN.txt	BAND	11	7	[0, 0, 0]	n/a	FR1	0	R1020J
797.807	1.619	1082199	WORD	n/a	wordpools/wordpool_EN.txt	SLIME	12	7	[0, 0, 0]	n/a	FR1	0	R1020J
799.426	0.001	1083818	DISTRACT_START	n/a	n/a	n/a	-999	7	[0, 0, 0]	n/a	FR1	0	R1020J
799.427	0.015	1083819	START	n/a	n/a	n/a	-999	7	[-999, -999, -999]	n/a	FR1	0	R1020J
799.442	3.657	1083834	PROB	3.657	n/a	n/a	-999	7	[3, 7, 4]	14	FR1	0	R1020J
803.099	4.792	1087491	PROB	4.792	n/a	n/a	-999	7	[1, 3, 8]	12	FR1	0	R1020J
807.891	2.42	1092283	PROB	2.42	n/a	n/a	-999	7	[8, 2, 1]	11	FR1	0	R1020J
810.311	7.796	1094703	PROB	7.796	n/a	n/a	-999	7	[8, 9, 8]	25	FR1	0	R1020J
818.107	3.476	1102498	PROB	3.476	n/a	n/a	-999	7	[5, 2, 7]	14	FR1	0	R1020J
821.583	0.013	1105974	STOP	n/a	n/a	n/a	-999	7	[-999, -999, -999]	n/a	FR1	0	R1020J
821.596	1.22	1105987	DISTRACT_END	n/a	n/a	n/a	-999	7	[0, 0, 0]	n/a	FR1	0	R1020J
822.816	1.798	1107207	REC_START	n/a	n/a	n/a	-999	7	[0, 0, 0]	n/a	FR1	0	R1020J
824.614	0.453	1109005	REC_WORD	0.453	n/a	ICE	-999	7	[0, 0, 0]	n/a	FR1	0	R1020J
825.067	0.888	1109458	REC_WORD	0.888	n/a	RAIN	-999	7	[0, 0, 0]	n/a	FR1	0	R1020J
825.955	1.983	1110346	REC_WORD	1.983	n/a	SNOW	-999	7	[0, 0, 0]	n/a	FR1	0	R1020J
827.938	0.855	1112329	REC_WORD	0.855	n/a	SLIME	-999	7	[0, 0, 0]	n/a	FR1	0	R1020J
828.793	21.681	1113184	REC_WORD	21.681	n/a	POLE	-999	7	[0, 0, 0]	n/a	FR1	0	R1020J
850.474	2.355	1134864	REC_WORD	2.355	n/a	SNOW	-999	7	[0, 0, 0]	n/a	FR1	0	R1020J
852.829	3.459	1137219	REC_END	n/a	n/a	n/a	-999	7	[0, 0, 0]	n/a	FR1	0	R1020J
856.288	0.001	1140678	COUNTDOWN_START	n/a	n/a	n/a	-999	8	[0, 0, 0]	n/a	FR1	0	R1020J
856.289	10.427	1140679	TRIAL	n/a	n/a	n/a	-999	8	[0, 0, 0]	n/a	FR1	0	R1020J
866.716	0.006	1151106	COUNTDOWN_END	n/a	n/a	n/a	-999	8	[0, 0, 0]	n/a	FR1	0	R1020J
866.722	2.439	1151112	ORIENT	n/a	n/a	n/a	-999	8	[0, 0, 0]	n/a	FR1	0	R1020J
869.161	2.536	1153551	WORD	n/a	wordpools/wordpool_EN.txt	TRAY	1	8	[0, 0, 0]	n/a	FR1	0	R1020J
871.697	2.605	1156086	WORD	n/a	wordpools/wordpool_EN.txt	JET	2	8	[0, 0, 0]	n/a	FR1	0	R1020J
874.302	2.404	1158691	WORD	n/a	wordpools/wordpool_EN.txt	FORK	3	8	[0, 0, 0]	n/a	FR1	0	R1020J
876.706	2.437	1161095	WORD	n/a	wordpools/wordpool_EN.txt	NOSE	4	8	[0, 0, 0]	n/a	FR1	0	R1020J
879.143	2.606	1163532	WORD	n/a	wordpools/wordpool_EN.txt	TEA	5	8	[0, 0, 0]	n/a	FR1	0	R1020J
881.749	2.536	1166138	WORD	n/a	wordpools/wordpool_EN.txt	SHIRT	6	8	[0, 0, 0]	n/a	FR1	0	R1020J
884.285	2.454	1168674	WORD	n/a	wordpools/wordpool_EN.txt	RUG	7	8	[0, 0, 0]	n/a	FR1	0	R1020J
886.739	2.471	1171128	WORD	n/a	wordpools/wordpool_EN.txt	LEG	8	8	[0, 0, 0]	n/a	FR1	0	R1020J
889.21	2.538	1173599	WORD	n/a	wordpools/wordpool_EN.txt	HAT	9	8	[0, 0, 0]	n/a	FR1	0	R1020J
891.748	2.404	1176137	WORD	n/a	wordpools/wordpool_EN.txt	TOE	10	8	[0, 0, 0]	n/a	FR1	0	R1020J
894.152	2.554	1178541	WORD	n/a	wordpools/wordpool_EN.txt	CLOTH	11	8	[0, 0, 0]	n/a	FR1	0	R1020J
896.706	1.62	1181095	WORD	n/a	wordpools/wordpool_EN.txt	RIB	12	8	[0, 0, 0]	n/a	FR1	0	R1020J
898.326	0.0	1182714	DISTRACT_START	n/a	n/a	n/a	-999	8	[0, 0, 0]	n/a	FR1	0	R1020J
898.326	0.016	1182714	START	n/a	n/a	n/a	-999	8	[-999, -999, -999]	n/a	FR1	0	R1020J
898.342	5.827	1182730	PROB	5.827	n/a	n/a	-999	8	[8, 2, 7]	17	FR1	0	R1020J
904.169	3.055	1188557	PROB	3.055	n/a	n/a	-999	8	[9, 1, 3]	13	FR1	0	R1020J
907.224	7.647	1191612	PROB	7.647	n/a	n/a	-999	8	[7, 9, 6]	22	FR1	0	R1020J
914.871	3.618	1199259	PROB	3.618	n/a	n/a	-999	8	[3, 8, 8]	19	FR1	0	R1020J
918.489	0.021	1202877	STOP	n/a	n/a	n/a	-999	8	[-999, -999, -999]	n/a	FR1	0	R1020J
918.51	1.069	1202898	DISTRACT_END	n/a	n/a	n/a	-999	8	[0, 0, 0]	n/a	FR1	0	R1020J
919.579	3.207	1203967	REC_START	n/a	n/a	n/a	-999	8	[0, 0, 0]	n/a	FR1	0	R1020J
922.786	1.757	1207174	REC_WORD	1.757	n/a	JET	-999	8	[0, 0, 0]	n/a	FR1	0	R1020J
924.543	1.645	1208931	REC_WORD	1.645	n/a	TOE	-999	8	[0, 0, 0]	n/a	FR1	0	R1020J
926.188	3.21	1210575	REC_WORD	3.21	n/a	RIB	-999	8	[0, 0, 0]	n/a	FR1	0	R1020J
929.398	3.237	1213785	REC_WORD	3.237	n/a	TRAY	-999	8	[0, 0, 0]	n/a	FR1	0	R1020J
932.635	5.377	1217022	REC_WORD	5.377	n/a	TOE	-999	8	[0, 0, 0]	n/a	FR1	0	R1020J
938.012	11.58	1222399	REC_WORD	11.58	n/a	FORK	-999	8	[0, 0, 0]	n/a	FR1	0	R1020J
949.592	2.491	1233979	REC_END	n/a	n/a	n/a	-999	8	[0, 0, 0]	n/a	FR1	0	R1020J
952.083	0.001	1236470	COUNTDOWN_START	n/a	n/a	n/a	-999	9	[0, 0, 0]	n/a	FR1	0	R1020J
952.084	10.427	1236471	TRIAL	n/a	n/a	n/a	-999	9	[0, 0, 0]	n/a	FR1	0	R1020J
962.511	0.006	1246897	COUNTDOWN_END	n/a	n/a	n/a	-999	9	[0, 0, 0]	n/a	FR1	0	R1020J
962.517	2.437	1246903	ORIENT	n/a	n/a	n/a	-999	9	[0, 0, 0]	n/a	FR1	0	R1020J
964.954	2.621	1249340	WORD	n/a	wordpools/wordpool_EN.txt	FORT	1	9	[0, 0, 0]	n/a	FR1	0	R1020J
967.575	2.622	1251961	WORD	n/a	wordpools/wordpool_EN.txt	STEM	2	9	[0, 0, 0]	n/a	FR1	0	R1020J
970.197	2.587	1254583	WORD	n/a	wordpools/wordpool_EN.txt	SWORD	3	9	[0, 0, 0]	n/a	FR1	0	R1020J
972.784	2.621	1257170	WORD	n/a	wordpools/wordpool_EN.txt	HORSE	4	9	[0, 0, 0]	n/a	FR1	0	R1020J
975.405	2.605	1259791	WORD	n/a	wordpools/wordpool_EN.txt	SAIL	5	9	[0, 0, 0]	n/a	FR1	0	R1020J
978.01	2.571	1262396	WORD	n/a	wordpools/wordpool_EN.txt	COIN	6	9	[0, 0, 0]	n/a	FR1	0	R1020J
980.581	2.604	1264967	WORD	n/a	wordpools/wordpool_EN.txt	ROOT	7	9	[0, 0, 0]	n/a	FR1	0	R1020J
983.185	2.554	1267570	WORD	n/a	wordpools/wordpool_EN.txt	STAR	8	9	[0, 0, 0]	n/a	FR1	0	R1020J
985.739	2.538	1270124	WORD	n/a	wordpools/wordpool_EN.txt	LEAF	9	9	[0, 0, 0]	n/a	FR1	0	R1020J
988.277	2.437	1272662	WORD	n/a	wordpools/wordpool_EN.txt	SHIP	10	9	[0, 0, 0]	n/a	FR1	0	R1020J
990.714	2.404	1275099	WORD	n/a	wordpools/wordpool_EN.txt	SHELL	11	9	[0, 0, 0]	n/a	FR1	0	R1020J
993.118	1.62	1277503	WORD	n/a	wordpools/wordpool_EN.txt	APE	12	9	[0, 0, 0]	n/a	FR1	0	R1020J
994.738	0.001	1279123	DISTRACT_START	n/a	n/a	n/a	-999	9	[0, 0, 0]	n/a	FR1	0	R1020J
994.739	0.016	1279124	START	n/a	n/a	n/a	-999	9	[-999, -999, -999]	n/a	FR1	0	R1020J
994.755	4.407	1279140	PROB	4.407	n/a	n/a	-999	9	[3, 5, 6]	14	FR1	0	R1020J
999.162	2.571	1283547	PROB	2.571	n/a	n/a	-999	9	[7, 7, 1]	15	FR1	0	R1020J
1001.733	3.506	1286118	PROB	3.506	n/a	n/a	-999	9	[9, 3, 7]	19	FR1	0	R1020J
1005.239	5.242	1289624	PROB	5.242	n/a	n/a	-999	9	[9, 8, 6]	23	FR1	0	R1020J
1010.481	4.09	1294865	PROB	4.09	n/a	n/a	-999	9	[7, 7, 2]	16	FR1	0	R1020J
1014.571	3.756	1298955	PROB	3.756	n/a	n/a	-999	9	[7, 4, 6]	17	FR1	0	R1020J
1018.327	0.017	1302711	STOP	n/a	n/a	n/a	-999	9	[-999, -999, -999]	n/a	FR1	0	R1020J
1018.344	1.053	1302728	DISTRACT_END	n/a	n/a	n/a	-999	9	[0, 0, 0]	n/a	FR1	0	R1020J
1019.397	6.786	1303781	REC_START	n/a	n/a	n/a	-999	9	[0, 0, 0]	n/a	FR1	0	R1020J
1026.183	1.67	1310567	REC_WORD	1.67	n/a	FORT	-999	9	[0, 0, 0]	n/a	FR1	0	R1020J
1027.853	4.44	1312237	REC_WORD	4.44	n/a	SWORD	-999	9	[0, 0, 0]	n/a	FR1	0	R1020J
1032.293	17.117	1316677	REC_WORD	17.117	n/a	SHIP	-999	9	[0, 0, 0]	n/a	FR1	0	R1020J
1049.41	2.424	1333793	REC_END	n/a	n/a	n/a	-999	9	[0, 0, 0]	n/a	FR1	0	R1020J
1051.834	0.0	1336217	TRIAL	n/a	n/a	n/a	-999	10	[0, 0, 0]	n/a	FR1	0	R1020J
1051.834	10.428	1336217	COUNTDOWN_START	n/a	n/a	n/a	-999	10	[0, 0, 0]	n/a	FR1	0	R1020J
1062.262	0.023	1346645	COUNTDOWN_END	n/a	n/a	n/a	-999	10	[0, 0, 0]	n/a	FR1	0	R1020J
1062.285	2.437	1346668	ORIENT	n/a	n/a	n/a	-999	10	[0, 0, 0]	n/a	FR1	0	R1020J
1064.722	2.605	1349105	WORD	n/a	wordpools/wordpool_EN.txt	PURSE	1	10	[0, 0, 0]	n/a	FR1	0	R1020J
1067.327	2.621	1351709	WORD	n/a	wordpools/wordpool_EN.txt	CHAIR	2	10	[0, 0, 0]	n/a	FR1	0	R1020J
1069.948	2.387	1354330	WORD	n/a	wordpools/wordpool_EN.txt	KITE	3	10	[0, 0, 0]	n/a	FR1	0	R1020J
1072.335	2.589	1356717	WORD	n/a	wordpools/wordpool_EN.txt	STOOL	4	10	[0, 0, 0]	n/a	FR1	0	R1020J
1074.924	2.57	1359306	WORD	n/a	wordpools/wordpool_EN.txt	CHIN	5	10	[0, 0, 0]	n/a	FR1	0	R1020J
1077.494	2.487	1361876	WORD	n/a	wordpools/wordpool_EN.txt	BRUSH	6	10	[0, 0, 0]	n/a	FR1	0	R1020J
1079.981	2.605	1364363	WORD	n/a	wordpools/wordpool_EN.txt	CANE	7	10	[0, 0, 0]	n/a	FR1	0	R1020J
1082.586	2.47	1366968	WORD	n/a	wordpools/wordpool_EN.txt	ROSE	8	10	[0, 0, 0]	n/a	FR1	0	R1020J
1085.056	2.555	1369438	WORD	n/a	wordpools/wordpool_EN.txt	DRESS	9	10	[0, 0, 0]	n/a	FR1	0	R1020J
1087.611	2.504	1371993	WORD	n/a	wordpools/wordpool_EN.txt	BLOOM	10	10	[0, 0, 0]	n/a	FR1	0	R1020J
1090.115	2.521	1374497	WORD	n/a	wordpools/wordpool_EN.txt	SQUARE	11	10	[0, 0, 0]	n/a	FR1	0	R1020J
1092.636	1.619	1377018	WORD	n/a	wordpools/wordpool_EN.txt	SOCK	12	10	[0, 0, 0]	n/a	FR1	0	R1020J
1094.255	0.001	1378636	DISTRACT_START	n/a	n/a	n/a	-999	10	[0, 0, 0]	n/a	FR1	0	R1020J
1094.256	0.016	1378637	START	n/a	n/a	n/a	-999	10	[-999, -999, -999]	n/a	FR1	0	R1020J
1094.272	4.157	1378653	PROB	4.157	n/a	n/a	-999	10	[1, 4, 8]	13	FR1	0	R1020J
1098.429	3.255	1382810	PROB	3.255	n/a	n/a	-999	10	[2, 9, 2]	13	FR1	0	R1020J
1101.684	3.456	1386065	PROB	3.456	n/a	n/a	-999	10	[9, 6, 1]	16	FR1	0	R1020J
1105.14	4.257	1389521	PROB	4.257	n/a	n/a	-999	10	[2, 6, 1]	9	FR1	0	R1020J
1109.397	3.339	1393778	PROB	3.339	n/a	n/a	-999	10	[3, 1, 9]	13	FR1	0	R1020J
1112.736	4.681	1397117	PROB	4.681	n/a	n/a	-999	10	[8, 2, 4]	14	FR1	0	R1020J
1117.417	0.011	1401798	STOP	n/a	n/a	n/a	-999	10	[-999, -999, -999]	n/a	FR1	0	R1020J
1117.428	1.102	1401809	DISTRACT_END	n/a	n/a	n/a	-999	10	[0, 0, 0]	n/a	FR1	0	R1020J
1118.53	1.463	1402911	REC_START	n/a	n/a	n/a	-999	10	[0, 0, 0]	n/a	FR1	0	R1020J
1119.993	1.945	1404374	REC_WORD	1.945	n/a	ROSE	-999	10	[0, 0, 0]	n/a	FR1	0	R1020J
1121.938	0.642	1406318	REC_WORD	0.642	n/a	ROSE	-999	10	[0, 0, 0]	n/a	FR1	0	R1020J
1122.58	1.542	1406960	REC_WORD	1.542	n/a	BLOOM	-999	10	[0, 0, 0]	n/a	FR1	0	R1020J
1124.122	0.791	1408502	REC_WORD	0.791	n/a	CHAIR	-999	10	[0, 0, 0]	n/a	FR1	0	R1020J
1124.913	1.537	1409293	REC_WORD	1.537	n/a	CANE	-999	10	[0, 0, 0]	n/a	FR1	0	R1020J
1126.45	1.338	1410830	REC_WORD	1.338	n/a	SQUARE	-999	10	[0, 0, 0]	n/a	FR1	0	R1020J
1127.788	13.215	1412168	REC_WORD	13.215	n/a	PURSE	-999	10	[0, 0, 0]	n/a	FR1	0	R1020J
1141.003	7.539	1425383	REC_WORD	7.539	n/a	COIN	-999	10	[0, 0, 0]	n/a	FR1	0	R1020J
1148.542	2.376	1432922	REC_END	n/a	n/a	n/a	-999	10	[0, 0, 0]	n/a	FR1	0	R1020J
1150.918	0.001	1435297	COUNTDOWN_START	n/a	n/a	n/a	-999	11	[0, 0, 0]	n/a	FR1	0	R1020J
1150.919	10.427	1435298	TRIAL	n/a	n/a	n/a	-999	11	[0, 0, 0]	n/a	FR1	0	R1020J
1161.346	0.005	1445725	COUNTDOWN_END	n/a	n/a	n/a	-999	11	[0, 0, 0]	n/a	FR1	0	R1020J
1161.351	2.488	1445730	ORIENT	n/a	n/a	n/a	-999	11	[0, 0, 0]	n/a	FR1	0	R1020J
1163.839	2.504	1448218	WORD	n/a	wordpools/wordpool_EN.txt	STRING	1	11	[0, 0, 0]	n/a	FR1	0	R1020J
1166.343	2.556	1450722	WORD	n/a	wordpools/wordpool_EN.txt	BOAT	2	11	[0, 0, 0]	n/a	FR1	0	R1020J
1168.899	2.57	1453278	WORD	n/a	wordpools/wordpool_EN.txt	HEN	3	11	[0, 0, 0]	n/a	FR1	0	R1020J
1171.469	2.537	1455848	WORD	n/a	wordpools/wordpool_EN.txt	CLIFF	4	11	[0, 0, 0]	n/a	FR1	0	R1020J
1174.006	2.454	1458385	WORD	n/a	wordpools/wordpool_EN.txt	STEAM	5	11	[0, 0, 0]	n/a	FR1	0	R1020J
1176.46	2.455	1460839	WORD	n/a	wordpools/wordpool_EN.txt	CHALK	6	11	[0, 0, 0]	n/a	FR1	0	R1020J
1178.915	2.57	1463293	WORD	n/a	wordpools/wordpool_EN.txt	STONE	7	11	[0, 0, 0]	n/a	FR1	0	R1020J
1181.485	2.439	1465863	WORD	n/a	wordpools/wordpool_EN.txt	SHEET	8	11	[0, 0, 0]	n/a	FR1	0	R1020J
1183.924	2.436	1468302	WORD	n/a	wordpools/wordpool_EN.txt	OWL	9	11	[0, 0, 0]	n/a	FR1	0	R1020J
1186.36	2.504	1470738	WORD	n/a	wordpools/wordpool_EN.txt	PEN	10	11	[0, 0, 0]	n/a	FR1	0	R1020J
1188.864	2.638	1473242	WORD	n/a	wordpools/wordpool_EN.txt	WHALE	11	11	[0, 0, 0]	n/a	FR1	0	R1020J
1191.502	1.62	1475880	WORD	n/a	wordpools/wordpool_EN.txt	GRASS	12	11	[0, 0, 0]	n/a	FR1	0	R1020J
1193.122	0.0	1477500	DISTRACT_START	n/a	n/a	n/a	-999	11	[0, 0, 0]	n/a	FR1	0	R1020J
1193.122	0.016	1477500	START	n/a	n/a	n/a	-999	11	[-999, -999, -999]	n/a	FR1	0	R1020J
1193.138	3.373	1477516	PROB	3.373	n/a	n/a	-999	11	[3, 9, 1]	13	FR1	0	R1020J
1196.511	2.955	1480889	PROB	2.955	n/a	n/a	-999	11	[4, 4, 1]	9	FR1	0	R1020J
1199.466	2.955	1483844	PROB	2.955	n/a	n/a	-999	11	[2, 2, 6]	10	FR1	0	R1020J
1202.421	5.041	1486799	PROB	5.041	n/a	n/a	-999	11	[4, 7, 1]	12	FR1	0	R1020J
1207.462	10.806	1491839	PROB	10.806	n/a	n/a	-999	11	[8, 6, 7]	21	FR1	0	R1020J
1218.268	0.013	1502645	STOP	n/a	n/a	n/a	-999	11	[-999, -999, -999]	n/a	FR1	0	R1020J
1218.281	1.185	1502658	DISTRACT_END	n/a	n/a	n/a	-999	11	[0, 0, 0]	n/a	FR1	0	R1020J
1219.466	3.685	1503843	REC_START	n/a	n/a	n/a	-999	11	[0, 0, 0]	n/a	FR1	0	R1020J
1223.151	2.086	1507528	REC_WORD	2.086	n/a	CLIFF	-999	11	[0, 0, 0]	n/a	FR1	0	R1020J
1225.237	8.358	1509614	REC_WORD	8.358	n/a	HEN	-999	11	[0, 0, 0]	n/a	FR1	0	R1020J
1233.595	15.892	1517971	REC_WORD	15.892	n/a	WHALE	-999	11	[0, 0, 0]	n/a	FR1	0	R1020J
1249.487	3.702	1533863	REC_END	n/a	n/a	n/a	-999	11	[0, 0, 0]	n/a	FR1	0	R1020J
1253.189	0.001	1537565	COUNTDOWN_START	n/a	n/a	n/a	-999	12	[0, 0, 0]	n/a	FR1	0	R1020J
1253.19	10.427	1537566	TRIAL	n/a	n/a	n/a	-999	12	[0, 0, 0]	n/a	FR1	0	R1020J
1263.617	0.007	1547992	COUNTDOWN_END	n/a	n/a	n/a	-999	12	[0, 0, 0]	n/a	FR1	0	R1020J
1263.624	2.504	1547999	ORIENT	n/a	n/a	n/a	-999	12	[0, 0, 0]	n/a	FR1	0	R1020J
1266.128	2.471	1550503	WORD	n/a	wordpools/wordpool_EN.txt	BENCH	1	12	[0, 0, 0]	n/a	FR1	0	R1020J
1268.599	2.387	1552974	WORD	n/a	wordpools/wordpool_EN.txt	CLOCK	2	12	[0, 0, 0]	n/a	FR1	0	R1020J
1270.986	2.437	1555361	WORD	n/a	wordpools/wordpool_EN.txt	TRUCK	3	12	[0, 0, 0]	n/a	FR1	0	R1020J
1273.423	2.555	1557798	WORD	n/a	wordpools/wordpool_EN.txt	DESK	4	12	[0, 0, 0]	n/a	FR1	0	R1020J
1275.978	2.587	1560353	WORD	n/a	wordpools/wordpool_EN.txt	BATH	5	12	[0, 0, 0]	n/a	FR1	0	R1020J
1278.565	2.404	1562940	WORD	n/a	wordpools/wordpool_EN.txt	BAG	6	12	[0, 0, 0]	n/a	FR1	0	R1020J
1280.969	2.438	1565344	WORD	n/a	wordpools/wordpool_EN.txt	SPOON	7	12	[0, 0, 0]	n/a	FR1	0	R1020J
1283.407	2.604	1567782	WORD	n/a	wordpools/wordpool_EN.txt	FUDGE	8	12	[0, 0, 0]	n/a	FR1	0	R1020J
1286.011	2.554	1570386	WORD	n/a	wordpools/wordpool_EN.txt	BOX	9	12	[0, 0, 0]	n/a	FR1	0	R1020J
1288.565	2.538	1572940	WORD	n/a	wordpools/wordpool_EN.txt	MUG	10	12	[0, 0, 0]	n/a	FR1	0	R1020J
1291.103	2.588	1575477	WORD	n/a	wordpools/wordpool_EN.txt	HAND	11	12	[0, 0, 0]	n/a	FR1	0	R1020J
1293.691	1.619	1578065	WORD	n/a	wordpools/wordpool_EN.txt	VAN	12	12	[0, 0, 0]	n/a	FR1	0	R1020J
1295.31	0.001	1579684	DISTRACT_START	n/a	n/a	n/a	-999	12	[0, 0, 0]	n/a	FR1	0	R1020J
1295.311	0.016	1579685	START	n/a	n/a	n/a	-999	12	[-999, -999, -999]	n/a	FR1	0	R1020J
1295.327	4.608	1579701	PROB	4.608	n/a	n/a	-999	12	[4, 4, 6]	14	FR1	0	R1020J
1299.935	7.228	1584309	PROB	7.228	n/a	n/a	-999	12	[6, 9, 6]	21	FR1	0	R1020J
1307.163	2.905	1591537	PROB	2.905	n/a	n/a	-999	12	[2, 3, 8]	13	FR1	0	R1020J
1310.068	5.812	1594442	PROB	5.812	n/a	n/a	-999	12	[8, 3, 1]	13	FR1	0	R1020J
1315.88	0.016	1600254	STOP	n/a	n/a	n/a	-999	12	[-999, -999, -999]	n/a	FR1	0	R1020J
1315.896	1.218	1600270	DISTRACT_END	n/a	n/a	n/a	-999	12	[0, 0, 0]	n/a	FR1	0	R1020J
1317.114	4.059	1601487	REC_START	n/a	n/a	n/a	-999	12	[0, 0, 0]	n/a	FR1	0	R1020J
1321.173	0.438	1605546	REC_WORD	0.438	n/a	BENCH	-999	12	[0, 0, 0]	n/a	FR1	0	R1020J
1321.611	1.616	1605984	REC_WORD	1.616	n/a	CHAIR	-999	12	[0, 0, 0]	n/a	FR1	0	R1020J
1323.227	3.227	1607600	REC_WORD	3.227	n/a	BOX	-999	12	[0, 0, 0]	n/a	FR1	0	R1020J
1326.454	2.46	1610827	REC_WORD	2.46	n/a	CLOCK	-999	12	[0, 0, 0]	n/a	FR1	0	R1020J
1328.914	7.627	1613287	REC_WORD	7.627	n/a	TRUCK	-999	12	[0, 0, 0]	n/a	FR1	0	R1020J
1336.541	10.587	1620914	REC_WORD	10.587	n/a	VAN	-999	12	[0, 0, 0]	n/a	FR1	0	R1020J
1347.128	2.758	1631500	REC_END	n/a	n/a	n/a	-999	12	[0, 0, 0]	n/a	FR1	0	R1020J
1349.886	0.001	1634258	COUNTDOWN_START	n/a	n/a	n/a	-999	13	[0, 0, 0]	n/a	FR1	0	R1020J
1349.887	10.427	1634259	TRIAL	n/a	n/a	n/a	-999	13	[0, 0, 0]	n/a	FR1	0	R1020J
1360.314	0.022	1644686	COUNTDOWN_END	n/a	n/a	n/a	-999	13	[0, 0, 0]	n/a	FR1	0	R1020J
1360.336	2.621	1644708	ORIENT	n/a	n/a	n/a	-999	13	[0, 0, 0]	n/a	FR1	0	R1020J
1362.957	2.421	1647329	WORD	n/a	wordpools/wordpool_EN.txt	VASE	1	13	[0, 0, 0]	n/a	FR1	0	R1020J
1365.378	2.522	1649750	WORD	n/a	wordpools/wordpool_EN.txt	BIRD	2	13	[0, 0, 0]	n/a	FR1	0	R1020J
1367.9	2.42	1652272	WORD	n/a	wordpools/wordpool_EN.txt	NEST	3	13	[0, 0, 0]	n/a	FR1	0	R1020J
1370.32	2.521	1654692	WORD	n/a	wordpools/wordpool_EN.txt	SHARK	4	13	[0, 0, 0]	n/a	FR1	0	R1020J
1372.841	2.404	1657212	WORD	n/a	wordpools/wordpool_EN.txt	HOUSE	5	13	[0, 0, 0]	n/a	FR1	0	R1020J
1375.245	2.387	1659616	WORD	n/a	wordpools/wordpool_EN.txt	DOOR	6	13	[0, 0, 0]	n/a	FR1	0	R1020J
1377.632	2.471	1662003	WORD	n/a	wordpools/wordpool_EN.txt	WING	7	13	[0, 0, 0]	n/a	FR1	0	R1020J
1380.103	2.521	1664474	WORD	n/a	wordpools/wordpool_EN.txt	CAGE	8	13	[0, 0, 0]	n/a	FR1	0	R1020J
1382.624	2.587	1666995	WORD	n/a	wordpools/wordpool_EN.txt	ROPE	9	13	[0, 0, 0]	n/a	FR1	0	R1020J
1385.211	2.622	1669582	WORD	n/a	wordpools/wordpool_EN.txt	SEAL	10	13	[0, 0, 0]	n/a	FR1	0	R1020J
1387.833	2.554	1672204	WORD	n/a	wordpools/wordpool_EN.txt	WEB	11	13	[0, 0, 0]	n/a	FR1	0	R1020J
1390.387	1.619	1674758	WORD	n/a	wordpools/wordpool_EN.txt	SNAKE	12	13	[0, 0, 0]	n/a	FR1	0	R1020J
1392.006	0.001	1676377	DISTRACT_START	n/a	n/a	n/a	-999	13	[0, 0, 0]	n/a	FR1	0	R1020J
1392.007	0.016	1676378	START	n/a	n/a	n/a	-999	13	[-999, -999, -999]	n/a	FR1	0	R1020J
1392.023	4.441	1676394	PROB	4.441	n/a	n/a	-999	13	[3, 4, 1]	8	FR1	0	R1020J
1396.464	5.96	1680835	PROB	5.96	n/a	n/a	-999	13	[7, 4, 4]	15	FR1	0	R1020J
1402.424	2.638	1686794	PROB	2.638	n/a	n/a	-999	13	[1, 5, 6]	12	FR1	0	R1020J
1405.062	8.873	1689432	PROB	8.873	n/a	n/a	-999	13	[8, 7, 4]	19	FR1	0	R1020J
1413.935	0.008	1698305	STOP	n/a	n/a	n/a	-999	13	[-999, -999, -999]	n/a	FR1	0	R1020J
1413.943	1.103	1698313	DISTRACT_END	n/a	n/a	n/a	-999	13	[0, 0, 0]	n/a	FR1	0	R1020J
1415.046	1.275	1699416	REC_START	n/a	n/a	n/a	-999	13	[0, 0, 0]	n/a	FR1	0	R1020J
1416.321	0.498	1700691	REC_WORD	0.498	n/a	BIRD	-999	13	[0, 0, 0]	n/a	FR1	0	R1020J
1416.819	3.382	1701189	REC_WORD	3.382	n/a	NEST	-999	13	[0, 0, 0]	n/a	FR1	0	R1020J
1420.201	1.069	1704571	REC_WORD	1.069	n/a	ROPE	-999	13	[0, 0, 0]	n/a	FR1	0	R1020J
1421.27	22.747	1705640	REC_WORD	22.747	n/a	SNAKE	-999	13	[0, 0, 0]	n/a	FR1	0	R1020J
1444.017	1.042	1728386	REC_WORD	1.042	n/a	STRING	-999	13	[0, 0, 0]	n/a	FR1	0	R1020J
1445.059	2.826	1729428	REC_END	n/a	n/a	n/a	-999	13	[0, 0, 0]	n/a	FR1	0	R1020J
1447.885	0.0	1732254	TRIAL	n/a	n/a	n/a	-999	14	[0, 0, 0]	n/a	FR1	0	R1020J
1447.885	10.428	1732254	COUNTDOWN_START	n/a	n/a	n/a	-999	14	[0, 0, 0]	n/a	FR1	0	R1020J
1458.313	0.005	1742681	COUNTDOWN_END	n/a	n/a	n/a	-999	14	[0, 0, 0]	n/a	FR1	0	R1020J
1458.318	2.606	1742686	ORIENT	n/a	n/a	n/a	-999	14	[0, 0, 0]	n/a	FR1	0	R1020J
1460.924	2.436	1745292	WORD	n/a	wordpools/wordpool_EN.txt	CAR	1	14	[0, 0, 0]	n/a	FR1	0	R1020J
1463.36	2.42	1747728	WORD	n/a	wordpools/wordpool_EN.txt	FLOOR	2	14	[0, 0, 0]	n/a	FR1	0	R1020J
1465.78	2.471	1750148	WORD	n/a	wordpools/wordpool_EN.txt	ROAD	3	14	[0, 0, 0]	n/a	FR1	0	R1020J
1468.251	2.404	1752619	WORD	n/a	wordpools/wordpool_EN.txt	GUARD	4	14	[0, 0, 0]	n/a	FR1	0	R1020J
1470.655	2.504	1755023	WORD	n/a	wordpools/wordpool_EN.txt	ROOF	5	14	[0, 0, 0]	n/a	FR1	0	R1020J
1473.159	2.521	1757527	WORD	n/a	wordpools/wordpool_EN.txt	GOAT	6	14	[0, 0, 0]	n/a	FR1	0	R1020J
1475.68	2.421	1760048	WORD	n/a	wordpools/wordpool_EN.txt	MUD	7	14	[0, 0, 0]	n/a	FR1	0	R1020J
1478.101	2.638	1762469	WORD	n/a	wordpools/wordpool_EN.txt	SLUSH	8	14	[0, 0, 0]	n/a	FR1	0	R1020J
1480.739	2.521	1765107	WORD	n/a	wordpools/wordpool_EN.txt	GLASS	9	14	[0, 0, 0]	n/a	FR1	0	R1020J
1483.26	2.571	1767628	WORD	n/a	wordpools/wordpool_EN.txt	STOVE	10	14	[0, 0, 0]	n/a	FR1	0	R1020J
1485.831	2.471	1770198	WORD	n/a	wordpools/wordpool_EN.txt	FAN	11	14	[0, 0, 0]	n/a	FR1	0	R1020J
1488.302	1.62	1772669	WORD	n/a	wordpools/wordpool_EN.txt	JEEP	12	14	[0, 0, 0]	n/a	FR1	0	R1020J
1489.922	0.001	1774289	DISTRACT_START	n/a	n/a	n/a	-999	14	[0, 0, 0]	n/a	FR1	0	R1020J
1489.923	0.015	1774290	START	n/a	n/a	n/a	-999	14	[-999, -999, -999]	n/a	FR1	0	R1020J
1489.938	6.127	1774305	PROB	6.127	n/a	n/a	-999	14	[3, 4, 9]	16	FR1	0	R1020J
1496.065	3.622	1780432	PROB	3.622	n/a	n/a	-999	14	[9, 3, 9]	21	FR1	0	R1020J
1499.687	5.827	1784054	PROB	5.827	n/a	n/a	-999	14	[4, 2, 9]	15	FR1	0	R1020J
1505.514	3.105	1789881	PROB	3.105	n/a	n/a	-999	14	[2, 2, 3]	7	FR1	0	R1020J
1508.619	8.303	1792986	PROB	8.303	n/a	n/a	-999	14	[9, 5, 6]	20	FR1	0	R1020J
1516.922	0.012	1801288	STOP	n/a	n/a	n/a	-999	14	[-999, -999, -999]	n/a	FR1	0	R1020J
1516.934	1.035	1801300	DISTRACT_END	n/a	n/a	n/a	-999	14	[0, 0, 0]	n/a	FR1	0	R1020J
1517.969	4.244	1802335	REC_START	n/a	n/a	n/a	-999	14	[0, 0, 0]	n/a	FR1	0	R1020J
1522.213	1.616	1806579	REC_WORD	1.616	n/a	JEEP	-999	14	[0, 0, 0]	n/a	FR1	0	R1020J
1523.829	2.52	1808195	REC_WORD	2.52	n/a	SLUSH	-999	14	[0, 0, 0]	n/a	FR1	0	R1020J
1526.349	13.798	1810715	REC_WORD	13.798	n/a	MUD	-999	14	[0, 0, 0]	n/a	FR1	0	R1020J
1540.147	7.835	1824513	REC_WORD	7.835	n/a	GRASS	-999	14	[0, 0, 0]	n/a	FR1	0	R1020J
1547.982	2.524	1832347	REC_END	n/a	n/a	n/a	-999	14	[0, 0, 0]	n/a	FR1	0	R1020J
1550.506	0.001	1834871	COUNTDOWN_START	n/a	n/a	n/a	-999	15	[0, 0, 0]	n/a	FR1	0	R1020J
1550.507	10.427	1834872	TRIAL	n/a	n/a	n/a	-999	15	[0, 0, 0]	n/a	FR1	0	R1020J
1560.934	0.006	1845299	COUNTDOWN_END	n/a	n/a	n/a	-999	15	[0, 0, 0]	n/a	FR1	0	R1020J
1560.94	2.505	1845305	ORIENT	n/a	n/a	n/a	-999	15	[0, 0, 0]	n/a	FR1	0	R1020J
1563.445	2.521	1847810	WORD	n/a	wordpools/wordpool_EN.txt	POND	1	15	[0, 0, 0]	n/a	FR1	0	R1020J
1565.966	2.487	1850331	WORD	n/a	wordpools/wordpool_EN.txt	COW	2	15	[0, 0, 0]	n/a	FR1	0	R1020J
1568.453	2.588	1852817	WORD	n/a	wordpools/wordpool_EN.txt	BOY	3	15	[0, 0, 0]	n/a	FR1	0	R1020J
1571.041	2.387	1855405	WORD	n/a	wordpools/wordpool_EN.txt	HEART	4	15	[0, 0, 0]	n/a	FR1	0	R1020J
1573.428	2.621	1857792	WORD	n/a	wordpools/wordpool_EN.txt	CORD	5	15	[0, 0, 0]	n/a	FR1	0	R1020J
1576.049	2.555	1860413	WORD	n/a	wordpools/wordpool_EN.txt	FOAM	6	15	[0, 0, 0]	n/a	FR1	0	R1020J
1578.604	2.571	1862968	WORD	n/a	wordpools/wordpool_EN.txt	PEAR	7	15	[0, 0, 0]	n/a	FR1	0	R1020J
1581.175	2.554	1865539	WORD	n/a	wordpools/wordpool_EN.txt	BED	8	15	[0, 0, 0]	n/a	FR1	0	R1020J
1583.729	2.421	1868093	WORD	n/a	wordpools/wordpool_EN.txt	EGG	9	15	[0, 0, 0]	n/a	FR1	0	R1020J
1586.15	2.537	1870514	WORD	n/a	wordpools/wordpool_EN.txt	TOAST	10	15	[0, 0, 0]	n/a	FR1	0	R1020J
1588.687	2.538	1873051	WORD	n/a	wordpools/wordpool_EN.txt	HILL	11	15	[0, 0, 0]	n/a	FR1	0	R1020J
1591.225	1.619	1875589	WORD	n/a	wordpools/wordpool_EN.txt	TOY	12	15	[0, 0, 0]	n/a	FR1	0	R1020J
1592.844	0.001	1877208	DISTRACT_START	n/a	n/a	n/a	-999	15	[0, 0, 0]	n/a	FR1	0	R1020J
1592.845	0.016	1877209	START	n/a	n/a	n/a	-999	15	[-999, -999, -999]	n/a	FR1	0	R1020J
1592.861	5.043	1877225	PROB	5.043	n/a	n/a	-999	15	[3, 9, 3]	15	FR1	0	R1020J
1597.904	5.107	1882267	PROB	5.107	n/a	n/a	-999	15	[4, 6, 8]	18	FR1	0	R1020J
1603.011	10.355	1887374	PROB	10.355	n/a	n/a	-999	15	[5, 9, 6]	20	FR1	0	R1020J
1613.366	0.013	1897729	STOP	n/a	n/a	n/a	-999	15	[-999, -999, -999]	n/a	FR1	0	R1020J
1613.379	1.069	1897742	DISTRACT_END	n/a	n/a	n/a	-999	15	[0, 0, 0]	n/a	FR1	0	R1020J
1614.448	2.26	1898811	REC_START	n/a	n/a	n/a	-999	15	[0, 0, 0]	n/a	FR1	0	R1020J
1616.708	0.725	1901071	REC_WORD	0.725	n/a	POND	-999	15	[0, 0, 0]	n/a	FR1	0	R1020J
1617.433	0.605	1901796	REC_WORD	0.605	n/a	BOY	-999	15	[0, 0, 0]	n/a	FR1	0	R1020J
1618.038	0.818	1902401	REC_WORD	0.818	n/a	TOY	-999	15	[0, 0, 0]	n/a	FR1	0	R1020J
1618.856	7.375	1903219	REC_WORD	7.375	n/a	HEART	-999	15	[0, 0, 0]	n/a	FR1	0	R1020J
1626.231	18.23	1910593	REC_WORD	18.23	n/a	HILL	-999	15	[0, 0, 0]	n/a	FR1	0	R1020J
1644.461	12.257	1928823	REC_END	n/a	n/a	n/a	-999	15	[0, 0, 0]	n/a	FR1	0	R1020J
1656.718	0.001	1941079	COUNTDOWN_START	n/a	n/a	n/a	-999	16	[0, 0, 0]	n/a	FR1	0	R1020J
1656.719	10.427	1941080	TRIAL	n/a	n/a	n/a	-999	16	[0, 0, 0]	n/a	FR1	0	R1020J
1667.146	0.007	1951507	COUNTDOWN_END	n/a	n/a	n/a	-999	16	[0, 0, 0]	n/a	FR1	0	R1020J
1667.153	2.504	1951514	ORIENT	n/a	n/a	n/a	-999	16	[0, 0, 0]	n/a	FR1	0	R1020J
1669.657	2.504	1954018	WORD	n/a	wordpools/wordpool_EN.txt	HORN	1	16	[0, 0, 0]	n/a	FR1	0	R1020J
1672.161	2.521	1956522	WORD	n/a	wordpools/wordpool_EN.txt	PRINCE	2	16	[0, 0, 0]	n/a	FR1	0	R1020J
1674.682	2.437	1959043	WORD	n/a	wordpools/wordpool_EN.txt	GATE	3	16	[0, 0, 0]	n/a	FR1	0	R1020J
1677.119	2.538	1961480	WORD	n/a	wordpools/wordpool_EN.txt	FACE	4	16	[0, 0, 0]	n/a	FR1	0	R1020J
1679.657	2.571	1964018	WORD	n/a	wordpools/wordpool_EN.txt	THREAD	5	16	[0, 0, 0]	n/a	FR1	0	R1020J
1682.228	2.521	1966588	WORD	n/a	wordpools/wordpool_EN.txt	FENCE	6	16	[0, 0, 0]	n/a	FR1	0	R1020J
1684.749	2.571	1969109	WORD	n/a	wordpools/wordpool_EN.txt	ELF	7	16	[0, 0, 0]	n/a	FR1	0	R1020J
1687.32	2.471	1971680	WORD	n/a	wordpools/wordpool_EN.txt	POOL	8	16	[0, 0, 0]	n/a	FR1	0	R1020J
1689.791	2.387	1974151	WORD	n/a	wordpools/wordpool_EN.txt	STREET	9	16	[0, 0, 0]	n/a	FR1	0	R1020J
1692.178	2.437	1976538	WORD	n/a	wordpools/wordpool_EN.txt	SPARK	10	16	[0, 0, 0]	n/a	FR1	0	R1020J
1694.615	2.471	1978975	WORD	n/a	wordpools/wordpool_EN.txt	DOLL	11	16	[0, 0, 0]	n/a	FR1	0	R1020J
1697.086	1.62	1981446	WORD	n/a	wordpools/wordpool_EN.txt	TENT	12	16	[0, 0, 0]	n/a	FR1	0	R1020J
1698.706	0.001	1983066	DISTRACT_START	n/a	n/a	n/a	-999	16	[0, 0, 0]	n/a	FR1	0	R1020J
1698.707	0.015	1983067	START	n/a	n/a	n/a	-999	16	[-999, -999, -999]	n/a	FR1	0	R1020J
1698.722	5.092	1983082	PROB	5.092	n/a	n/a	-999	16	[4, 8, 1]	13	FR1	0	R1020J
1703.814	2.605	1988174	PROB	2.605	n/a	n/a	-999	16	[2, 8, 2]	12	FR1	0	R1020J
1706.419	3.522	1990779	PROB	3.522	n/a	n/a	-999	16	[6, 2, 5]	13	FR1	0	R1020J
1709.941	3.239	1994300	PROB	3.239	n/a	n/a	-999	16	[9, 9, 2]	20	FR1	0	R1020J
1713.18	3.072	1997539	PROB	3.072	n/a	n/a	-999	16	[8, 8, 8]	24	FR1	0	R1020J
1716.252	4.206	2000611	PROB	4.206	n/a	n/a	-999	16	[6, 3, 8]	17	FR1	0	R1020J
1720.458	0.018	2004817	STOP	n/a	n/a	n/a	-999	16	[-999, -999, -999]	n/a	FR1	0	R1020J
1720.476	1.135	2004835	DISTRACT_END	n/a	n/a	n/a	-999	16	[0, 0, 0]	n/a	FR1	0	R1020J
1721.611	2.045	2005970	REC_START	n/a	n/a	n/a	-999	16	[0, 0, 0]	n/a	FR1	0	R1020J
1723.656	1.157	2008015	REC_WORD	1.157	n/a	PRINCE	-999	16	[0, 0, 0]	n/a	FR1	0	R1020J
1724.813	8.723	2009172	REC_WORD	8.723	n/a	ELF	-999	16	[0, 0, 0]	n/a	FR1	0	R1020J
1733.536	15.48	2017895	REC_WORD	15.48	n/a	GATE	-999	16	[0, 0, 0]	n/a	FR1	0	R1020J
1749.016	2.616	2033374	REC_WORD	2.616	n/a	SPARK	-999	16	[0, 0, 0]	n/a	FR1	0	R1020J
1751.632	2.851	2035990	REC_END	n/a	n/a	n/a	-999	16	[0, 0, 0]	n/a	FR1	0	R1020J
1754.483	0.0	2038841	COUNTDOWN_START	n/a	n/a	n/a	-999	17	[0, 0, 0]	n/a	FR1	0	R1020J
1754.483	10.428	2038841	TRIAL	n/a	n/a	n/a	-999	17	[0, 0, 0]	n/a	FR1	0	R1020J
1764.911	0.007	2049268	COUNTDOWN_END	n/a	n/a	n/a	-999	17	[0, 0, 0]	n/a	FR1	0	R1020J
1764.918	2.42	2049275	ORIENT	n/a	n/a	n/a	-999	17	[0, 0, 0]	n/a	FR1	0	R1020J
1767.338	2.487	2051695	WORD	n/a	wordpools/wordpool_EN.txt	MAT	1	17	[0, 0, 0]	n/a	FR1	0	R1020J
1769.825	2.421	2054182	WORD	n/a	wordpools/wordpool_EN.txt	HOOK	2	17	[0, 0, 0]	n/a	FR1	0	R1020J
1772.246	2.538	2056603	WORD	n/a	wordpools/wordpool_EN.txt	MOOSE	3	17	[0, 0, 0]	n/a	FR1	0	R1020J
1774.784	2.471	2059141	WORD	n/a	wordpools/wordpool_EN.txt	SKY	4	17	[0, 0, 0]	n/a	FR1	0	R1020J
1777.255	2.504	2061612	WORD	n/a	wordpools/wordpool_EN.txt	SUN	5	17	[0, 0, 0]	n/a	FR1	0	R1020J
1779.759	2.537	2064116	WORD	n/a	wordpools/wordpool_EN.txt	BEACH	6	17	[0, 0, 0]	n/a	FR1	0	R1020J
1782.296	2.388	2066653	WORD	n/a	wordpools/wordpool_EN.txt	DOCK	7	17	[0, 0, 0]	n/a	FR1	0	R1020J
1784.684	2.454	2069041	WORD	n/a	wordpools/wordpool_EN.txt	WAVE	8	17	[0, 0, 0]	n/a	FR1	0	R1020J
1787.138	2.504	2071495	WORD	n/a	wordpools/wordpool_EN.txt	FLAG	9	17	[0, 0, 0]	n/a	FR1	0	R1020J
1789.642	2.437	2073999	WORD	n/a	wordpools/wordpool_EN.txt	EAR	10	17	[0, 0, 0]	n/a	FR1	0	R1020J
1792.079	2.505	2076435	WORD	n/a	wordpools/wordpool_EN.txt	SPEAR	11	17	[0, 0, 0]	n/a	FR1	0	R1020J
1794.584	1.619	2078940	WORD	n/a	wordpools/wordpool_EN.txt	BADGE	12	17	[0, 0, 0]	n/a	FR1	0	R1020J
1796.203	0.001	2080559	DISTRACT_START	n/a	n/a	n/a	-999	17	[0, 0, 0]	n/a	FR1	0	R1020J
1796.204	0.016	2080560	START	n/a	n/a	n/a	-999	17	[-999, -999, -999]	n/a	FR1	0	R1020J
1796.22	4.557	2080576	PROB	4.557	n/a	n/a	-999	17	[4, 8, 4]	16	FR1	0	R1020J
1800.777	2.755	2085133	PROB	2.755	n/a	n/a	-999	17	[4, 9, 1]	14	FR1	0	R1020J
1803.532	6.277	2087888	PROB	6.277	n/a	n/a	-999	17	[8, 8, 9]	25	FR1	0	R1020J
1809.809	4.424	2094165	PROB	4.424	n/a	n/a	-999	17	[3, 7, 8]	18	FR1	0	R1020J
1814.233	2.804	2098589	PROB	2.804	n/a	n/a	-999	17	[5, 7, 3]	15	FR1	0	R1020J
1817.037	0.018	2101393	STOP	n/a	n/a	n/a	-999	17	[-999, -999, -999]	n/a	FR1	0	R1020J
1817.055	1.186	2101411	DISTRACT_END	n/a	n/a	n/a	-999	17	[0, 0, 0]	n/a	FR1	0	R1020J
1818.241	4.672	2102597	REC_START	n/a	n/a	n/a	-999	17	[0, 0, 0]	n/a	FR1	0	R1020J
1822.913	3.026	2107268	REC_WORD	3.026	n/a	EAR	-999	17	[0, 0, 0]	n/a	FR1	0	R1020J
1825.939	3.958	2110294	REC_WORD	3.958	n/a	MAT	-999	17	[0, 0, 0]	n/a	FR1	0	R1020J
1829.897	2.814	2114252	REC_WORD	2.814	n/a	BEACH	-999	17	[0, 0, 0]	n/a	FR1	0	R1020J
1832.711	1.764	2117066	REC_WORD	1.764	n/a	FLAG	-999	17	[0, 0, 0]	n/a	FR1	0	R1020J
1834.475	13.779	2118830	REC_WORD	13.779	n/a	WAVE	-999	17	[0, 0, 0]	n/a	FR1	0	R1020J
1848.254	2.324	2132608	REC_END	n/a	n/a	n/a	-999	17	[0, 0, 0]	n/a	FR1	0	R1020J
1850.578	0.0	2134932	TRIAL	n/a	n/a	n/a	-999	18	[0, 0, 0]	n/a	FR1	0	R1020J
1850.578	10.428	2134932	COUNTDOWN_START	n/a	n/a	n/a	-999	18	[0, 0, 0]	n/a	FR1	0	R1020J
1861.006	0.006	2145360	COUNTDOWN_END	n/a	n/a	n/a	-999	18	[0, 0, 0]	n/a	FR1	0	R1020J
1861.012	2.504	2145366	ORIENT	n/a	n/a	n/a	-999	18	[0, 0, 0]	n/a	FR1	0	R1020J
1863.516	2.421	2147870	WORD	n/a	wordpools/wordpool_EN.txt	PIE	1	18	[0, 0, 0]	n/a	FR1	0	R1020J
1865.937	2.538	2150291	WORD	n/a	wordpools/wordpool_EN.txt	CUP	2	18	[0, 0, 0]	n/a	FR1	0	R1020J
1868.475	2.554	2152829	WORD	n/a	wordpools/wordpool_EN.txt	SEAT	3	18	[0, 0, 0]	n/a	FR1	0	R1020J
1871.029	2.571	2155383	WORD	n/a	wordpools/wordpool_EN.txt	SINK	4	18	[0, 0, 0]	n/a	FR1	0	R1020J
1873.6	2.504	2157954	WORD	n/a	wordpools/wordpool_EN.txt	SMILE	5	18	[0, 0, 0]	n/a	FR1	0	R1020J
1876.104	2.605	2160457	WORD	n/a	wordpools/wordpool_EN.txt	VEST	6	18	[0, 0, 0]	n/a	FR1	0	R1020J
1878.709	2.554	2163062	WORD	n/a	wordpools/wordpool_EN.txt	OAR	7	18	[0, 0, 0]	n/a	FR1	0	R1020J
1881.263	2.571	2165616	WORD	n/a	wordpools/wordpool_EN.txt	PEACH	8	18	[0, 0, 0]	n/a	FR1	0	R1020J
1883.834	2.504	2168187	WORD	n/a	wordpools/wordpool_EN.txt	CAKE	9	18	[0, 0, 0]	n/a	FR1	0	R1020J
1886.338	2.604	2170691	WORD	n/a	wordpools/wordpool_EN.txt	SHIELD	10	18	[0, 0, 0]	n/a	FR1	0	R1020J
1888.942	2.454	2173295	WORD	n/a	wordpools/wordpool_EN.txt	GLOVE	11	18	[0, 0, 0]	n/a	FR1	0	R1020J
1891.396	1.62	2175749	WORD	n/a	wordpools/wordpool_EN.txt	DIME	12	18	[0, 0, 0]	n/a	FR1	0	R1020J
1893.016	0.001	2177369	DISTRACT_START	n/a	n/a	n/a	-999	18	[0, 0, 0]	n/a	FR1	0	R1020J
1893.017	0.016	2177370	START	n/a	n/a	n/a	-999	18	[-999, -999, -999]	n/a	FR1	0	R1020J
1893.033	9.566	2177386	PROB	9.566	n/a	n/a	-999	18	[4, 9, 8]	21	FR1	0	R1020J
1902.599	3.29	2186952	PROB	3.29	n/a	n/a	-999	18	[3, 7, 8]	18	FR1	0	R1020J
1905.889	4.473	2190241	PROB	4.473	n/a	n/a	-999	18	[4, 9, 9]	22	FR1	0	R1020J
1910.362	3.495	2194714	PROB	3.495	n/a	n/a	-999	18	[1, 4, 9]	14	FR1	0	R1020J
1913.857	0.011	2198209	STOP	n/a	n/a	n/a	-999	18	[-999, -999, -999]	n/a	FR1	0	R1020J
1913.868	1.169	2198220	DISTRACT_END	n/a	n/a	n/a	-999	18	[0, 0, 0]	n/a	FR1	0	R1020J
1915.037	0.0	2199389	REC_START	n/a	n/a	n/a	-999	18	[0, 0, 0]	n/a	FR1	0	R1020J
1915.037	13.179	2199389	REC_WORD_VV	13.179	n/a	<>	-999	18	[0, 0, 0]	n/a	FR1	0	R1020J
1928.216	16.834	2212568	REC_WORD	16.834	n/a	OAR	-999	18	[0, 0, 0]	n/a	FR1	0	R1020J
1945.05	419.31	2229401	REC_END	n/a	n/a	n/a	-999	18	[0, 0, 0]	n/a	FR1	0	R1020J
2364.36	0.0	2648696	TRIAL	n/a	n/a	n/a	-999	19	[0, 0, 0]	n/a	FR1	0	R1020J
2364.36	10.428	2648696	COUNTDOWN_START	n/a	n/a	n/a	-999	19	[0, 0, 0]	n/a	FR1	0	R1020J
2374.788	0.005	2659124	COUNTDOWN_END	n/a	n/a	n/a	-999	19	[0, 0, 0]	n/a	FR1	0	R1020J
2374.793	2.489	2659129	ORIENT	n/a	n/a	n/a	-999	19	[0, 0, 0]	n/a	FR1	0	R1020J
2377.282	2.486	2661618	WORD	n/a	wordpools/wordpool_EN.txt	RAT	1	19	[0, 0, 0]	n/a	FR1	0	R1020J
2379.768	2.604	2664103	WORD	n/a	wordpools/wordpool_EN.txt	CAT	2	19	[0, 0, 0]	n/a	FR1	0	R1020J
2382.372	2.421	2666707	WORD	n/a	wordpools/wordpool_EN.txt	ANT	3	19	[0, 0, 0]	n/a	FR1	0	R1020J
2384.793	2.538	2669128	WORD	n/a	wordpools/wordpool_EN.txt	FOOD	4	19	[0, 0, 0]	n/a	FR1	0	R1020J
2387.331	2.538	2671666	WORD	n/a	wordpools/wordpool_EN.txt	STORE	5	19	[0, 0, 0]	n/a	FR1	0	R1020J
2389.869	2.52	2674204	WORD	n/a	wordpools/wordpool_EN.txt	BANK	6	19	[0, 0, 0]	n/a	FR1	0	R1020J
2392.389	2.421	2676724	WORD	n/a	wordpools/wordpool_EN.txt	DUCK	7	19	[0, 0, 0]	n/a	FR1	0	R1020J
2394.81	2.554	2679145	WORD	n/a	wordpools/wordpool_EN.txt	PIG	8	19	[0, 0, 0]	n/a	FR1	0	R1020J
2397.364	2.556	2681699	WORD	n/a	wordpools/wordpool_EN.txt	GEESE	9	19	[0, 0, 0]	n/a	FR1	0	R1020J
2399.92	2.536	2684255	WORD	n/a	wordpools/wordpool_EN.txt	WOLF	10	19	[0, 0, 0]	n/a	FR1	0	R1020J
2402.456	2.571	2686791	WORD	n/a	wordpools/wordpool_EN.txt	FLUTE	11	19	[0, 0, 0]	n/a	FR1	0	R1020J
2405.027	1.62	2689362	WORD	n/a	wordpools/wordpool_EN.txt	LAMB	12	19	[0, 0, 0]	n/a	FR1	0	R1020J
2406.647	0.0	2690981	DISTRACT_START	n/a	n/a	n/a	-999	19	[0, 0, 0]	n/a	FR1	0	R1020J
2406.647	0.016	2690981	START	n/a	n/a	n/a	-999	19	[-999, -999, -999]	n/a	FR1	0	R1020J
2406.663	7.264	2690997	PROB	7.264	n/a	n/a	-999	19	[4, 7, 8]	19	FR1	0	R1020J
2413.927	11.869	2698261	PROB	11.869	n/a	n/a	-999	19	[8, 6, 5]	19	FR1	0	R1020J
2425.796	3.658	2710130	PROB	3.658	n/a	n/a	-999	19	[6, 5, 2]	13	FR1	0	R1020J
2429.454	0.014	2713788	STOP	n/a	n/a	n/a	-999	19	[-999, -999, -999]	n/a	FR1	0	R1020J
2429.468	1.22	2713802	DISTRACT_END	n/a	n/a	n/a	-999	19	[0, 0, 0]	n/a	FR1	0	R1020J
2430.688	1.351	2715022	REC_START	n/a	n/a	n/a	-999	19	[0, 0, 0]	n/a	FR1	0	R1020J
2432.039	1.259	2716373	REC_WORD	1.259	n/a	RAT	-999	19	[0, 0, 0]	n/a	FR1	0	R1020J
2433.298	2.485	2717632	REC_WORD	2.485	n/a	ANT	-999	19	[0, 0, 0]	n/a	FR1	0	R1020J
2435.783	1.857	2720116	REC_WORD	1.857	n/a	GEESE	-999	19	[0, 0, 0]	n/a	FR1	0	R1020J
2437.64	3.327	2721973	REC_WORD	3.327	n/a	LAMB	-999	19	[0, 0, 0]	n/a	FR1	0	R1020J
2440.967	4.437	2725300	REC_WORD	4.437	n/a	STORE	-999	19	[0, 0, 0]	n/a	FR1	0	R1020J
2445.404	2.573	2729737	REC_WORD	2.573	n/a	WOLF	-999	19	[0, 0, 0]	n/a	FR1	0	R1020J
2447.977	5.735	2732310	REC_WORD	5.735	n/a	FLOOD	-999	19	[0, 0, 0]	n/a	FR1	0	R1020J
2453.712	6.989	2738045	REC_WORD	6.989	n/a	PACK	-999	19	[0, 0, 0]	n/a	FR1	0	R1020J
2460.701	3.326	2745034	REC_END	n/a	n/a	n/a	-999	19	[0, 0, 0]	n/a	FR1	0	R1020J
2464.027	0.0	2748359	TRIAL	n/a	n/a	n/a	-999	20	[0, 0, 0]	n/a	FR1	0	R1020J
2464.027	10.428	2748359	COUNTDOWN_START	n/a	n/a	n/a	-999	20	[0, 0, 0]	n/a	FR1	0	R1020J
2474.455	0.006	2758787	COUNTDOWN_END	n/a	n/a	n/a	-999	20	[0, 0, 0]	n/a	FR1	0	R1020J
2474.461	2.539	2758793	ORIENT	n/a	n/a	n/a	-999	20	[0, 0, 0]	n/a	FR1	0	R1020J
2477.0	2.62	2761332	WORD	n/a	wordpools/wordpool_EN.txt	BROOM	1	20	[0, 0, 0]	n/a	FR1	0	R1020J
2479.62	2.437	2763952	WORD	n/a	wordpools/wordpool_EN.txt	PANTS	2	20	[0, 0, 0]	n/a	FR1	0	R1020J
2482.057	2.571	2766389	WORD	n/a	wordpools/wordpool_EN.txt	SWAMP	3	20	[0, 0, 0]	n/a	FR1	0	R1020J
2484.628	2.571	2768960	WORD	n/a	wordpools/wordpool_EN.txt	BREAD	4	20	[0, 0, 0]	n/a	FR1	0	R1020J
2487.199	2.604	2771531	WORD	n/a	wordpools/wordpool_EN.txt	BRANCH	5	20	[0, 0, 0]	n/a	FR1	0	R1020J
2489.803	2.538	2774134	WORD	n/a	wordpools/wordpool_EN.txt	FOX	6	20	[0, 0, 0]	n/a	FR1	0	R1020J
2492.341	2.471	2776672	WORD	n/a	wordpools/wordpool_EN.txt	BOWL	7	20	[0, 0, 0]	n/a	FR1	0	R1020J
2494.812	2.404	2779143	WORD	n/a	wordpools/wordpool_EN.txt	CROW	8	20	[0, 0, 0]	n/a	FR1	0	R1020J
2497.216	2.554	2781547	WORD	n/a	wordpools/wordpool_EN.txt	TREE	9	20	[0, 0, 0]	n/a	FR1	0	R1020J
2499.77	2.638	2784101	WORD	n/a	wordpools/wordpool_EN.txt	BEAR	10	20	[0, 0, 0]	n/a	FR1	0	R1020J
2502.408	2.421	2786739	WORD	n/a	wordpools/wordpool_EN.txt	SHOE	11	20	[0, 0, 0]	n/a	FR1	0	R1020J
2504.829	1.619	2789160	WORD	n/a	wordpools/wordpool_EN.txt	PEA	12	20	[0, 0, 0]	n/a	FR1	0	R1020J
2506.448	0.001	2790779	DISTRACT_START	n/a	n/a	n/a	-999	20	[0, 0, 0]	n/a	FR1	0	R1020J
2506.449	0.016	2790780	START	n/a	n/a	n/a	-999	20	[-999, -999, -999]	n/a	FR1	0	R1020J
2506.465	3.823	2790796	PROB	3.823	n/a	n/a	-999	20	[7, 1, 8]	16	FR1	0	R1020J
2510.288	3.272	2794619	PROB	3.272	n/a	n/a	-999	20	[8, 2, 5]	15	FR1	0	R1020J
2513.56	4.14	2797891	PROB	4.14	n/a	n/a	-999	20	[8, 9, 3]	20	FR1	0	R1020J
2517.7	10.005	2802030	PROB	10.005	n/a	n/a	-999	20	[9, 5, 6]	20	FR1	0	R1020J
2527.705	0.012	2812035	STOP	n/a	n/a	n/a	-999	20	[-999, -999, -999]	n/a	FR1	0	R1020J
2527.717	1.036	2812047	DISTRACT_END	n/a	n/a	n/a	-999	20	[0, 0, 0]	n/a	FR1	0	R1020J
2528.753	3.822	2813083	REC_START	n/a	n/a	n/a	-999	20	[0, 0, 0]	n/a	FR1	0	R1020J
2532.575	1.123	2816905	REC_WORD	1.123	n/a	BROOM	-999	20	[0, 0, 0]	n/a	FR1	0	R1020J
2533.698	2.426	2818028	REC_WORD	2.426	n/a	PANTS	-999	20	[0, 0, 0]	n/a	FR1	0	R1020J
2536.124	22.642	2820454	REC_WORD	22.642	n/a	SHOE	-999	20	[0, 0, 0]	n/a	FR1	0	R1020J
2558.766	5.898	2843095	REC_END	n/a	n/a	n/a	-999	20	[0, 0, 0]	n/a	FR1	0	R1020J
2564.664	0.0	2848993	TRIAL	n/a	n/a	n/a	-999	21	[0, 0, 0]	n/a	FR1	0	R1020J
2564.664	10.428	2848993	COUNTDOWN_START	n/a	n/a	n/a	-999	21	[0, 0, 0]	n/a	FR1	0	R1020J
2575.092	0.005	2859420	COUNTDOWN_END	n/a	n/a	n/a	-999	21	[0, 0, 0]	n/a	FR1	0	R1020J
2575.097	2.604	2859425	ORIENT	n/a	n/a	n/a	-999	21	[0, 0, 0]	n/a	FR1	0	R1020J
2577.701	2.438	2862029	WORD	n/a	wordpools/wordpool_EN.txt	SIGN	1	21	[0, 0, 0]	n/a	FR1	0	R1020J
2580.139	2.437	2864467	WORD	n/a	wordpools/wordpool_EN.txt	KEY	2	21	[0, 0, 0]	n/a	FR1	0	R1020J
2582.576	2.588	2866904	WORD	n/a	wordpools/wordpool_EN.txt	MOUTH	3	21	[0, 0, 0]	n/a	FR1	0	R1020J
2585.164	2.42	2869492	WORD	n/a	wordpools/wordpool_EN.txt	DRUM	4	21	[0, 0, 0]	n/a	FR1	0	R1020J
2587.584	2.505	2871912	WORD	n/a	wordpools/wordpool_EN.txt	JAIL	5	21	[0, 0, 0]	n/a	FR1	0	R1020J
2590.089	2.387	2874417	WORD	n/a	wordpools/wordpool_EN.txt	SCHOOL	6	21	[0, 0, 0]	n/a	FR1	0	R1020J
2592.476	2.604	2876804	WORD	n/a	wordpools/wordpool_EN.txt	JUDGE	7	21	[0, 0, 0]	n/a	FR1	0	R1020J
2595.08	2.438	2879408	WORD	n/a	wordpools/wordpool_EN.txt	BLUSH	8	21	[0, 0, 0]	n/a	FR1	0	R1020J
2597.518	2.405	2881846	WORD	n/a	wordpools/wordpool_EN.txt	FOOT	9	21	[0, 0, 0]	n/a	FR1	0	R1020J
2599.923	2.42	2884251	WORD	n/a	wordpools/wordpool_EN.txt	PASTE	10	21	[0, 0, 0]	n/a	FR1	0	R1020J
2602.343	2.487	2886670	WORD	n/a	wordpools/wordpool_EN.txt	INK	11	21	[0, 0, 0]	n/a	FR1	0	R1020J
2604.83	1.619	2889157	WORD	n/a	wordpools/wordpool_EN.txt	BOARD	12	21	[0, 0, 0]	n/a	FR1	0	R1020J
2606.449	0.002	2890776	DISTRACT_START	n/a	n/a	n/a	-999	21	[0, 0, 0]	n/a	FR1	0	R1020J
2606.451	0.015	2890778	START	n/a	n/a	n/a	-999	21	[-999, -999, -999]	n/a	FR1	0	R1020J
2606.466	3.473	2890793	PROB	3.473	n/a	n/a	-999	21	[5, 2, 1]	8	FR1	0	R1020J
2609.939	4.207	2894266	PROB	4.207	n/a	n/a	-999	21	[3, 3, 7]	13	FR1	0	R1020J
2614.146	5.342	2898473	PROB	5.342	n/a	n/a	-999	21	[9, 7, 9]	25	FR1	0	R1020J
2619.488	12.297	2903815	PROB	12.297	n/a	n/a	-999	21	[9, 7, 6]	22	FR1	0	R1020J
2631.785	0.007	2916111	STOP	n/a	n/a	n/a	-999	21	[-999, -999, -999]	n/a	FR1	0	R1020J
2631.792	1.203	2916118	DISTRACT_END	n/a	n/a	n/a	-999	21	[0, 0, 0]	n/a	FR1	0	R1020J
2632.995	1.567	2917321	REC_START	n/a	n/a	n/a	-999	21	[0, 0, 0]	n/a	FR1	0	R1020J
2634.562	3.163	2918888	REC_WORD	3.163	n/a	SIGN	-999	21	[0, 0, 0]	n/a	FR1	0	R1020J
2637.725	1.862	2922051	REC_WORD	1.862	n/a	BOARD	-999	21	[0, 0, 0]	n/a	FR1	0	R1020J
2639.587	2.064	2923913	REC_WORD	2.064	n/a	INK	-999	21	[0, 0, 0]	n/a	FR1	0	R1020J
2641.651	6.146	2925977	REC_WORD	6.146	n/a	FOOT	-999	21	[0, 0, 0]	n/a	FR1	0	R1020J
2647.797	2.082	2932123	REC_WORD	2.082	n/a	JAIL	-999	21	[0, 0, 0]	n/a	FR1	0	R1020J
2649.879	4.949	2934205	REC_WORD	4.949	n/a	SCHOOL	-999	21	[0, 0, 0]	n/a	FR1	0	R1020J
2654.828	8.181	2939154	REC_WORD	8.181	n/a	PASTE	-999	21	[0, 0, 0]	n/a	FR1	0	R1020J
2663.009	2.39	2947334	REC_END	n/a	n/a	n/a	-999	21	[0, 0, 0]	n/a	FR1	0	R1020J
2665.399	0.0	2949724	TRIAL	n/a	n/a	n/a	-999	22	[0, 0, 0]	n/a	FR1	0	R1020J
2665.399	10.428	2949724	COUNTDOWN_START	n/a	n/a	n/a	-999	22	[0, 0, 0]	n/a	FR1	0	R1020J
2675.827	0.006	2960152	COUNTDOWN_END	n/a	n/a	n/a	-999	22	[0, 0, 0]	n/a	FR1	0	R1020J
2675.833	2.537	2960158	ORIENT	n/a	n/a	n/a	-999	22	[0, 0, 0]	n/a	FR1	0	R1020J
2678.37	2.622	2962695	WORD	n/a	wordpools/wordpool_EN.txt	TANK	1	22	[0, 0, 0]	n/a	FR1	0	R1020J
2680.992	2.454	2965317	WORD	n/a	wordpools/wordpool_EN.txt	LIP	2	22	[0, 0, 0]	n/a	FR1	0	R1020J
2683.446	2.42	2967771	WORD	n/a	wordpools/wordpool_EN.txt	HOOF	3	22	[0, 0, 0]	n/a	FR1	0	R1020J
2685.866	2.505	2970190	WORD	n/a	wordpools/wordpool_EN.txt	PARK	4	22	[0, 0, 0]	n/a	FR1	0	R1020J
2688.371	2.538	2972695	WORD	n/a	wordpools/wordpool_EN.txt	STICK	5	22	[0, 0, 0]	n/a	FR1	0	R1020J
2690.909	2.537	2975233	WORD	n/a	wordpools/wordpool_EN.txt	CASH	6	22	[0, 0, 0]	n/a	FR1	0	R1020J
2693.446	2.421	2977770	WORD	n/a	wordpools/wordpool_EN.txt	FUR	7	22	[0, 0, 0]	n/a	FR1	0	R1020J
2695.867	2.621	2980191	WORD	n/a	wordpools/wordpool_EN.txt	CAVE	8	22	[0, 0, 0]	n/a	FR1	0	R1020J
2698.488	2.571	2982812	WORD	n/a	wordpools/wordpool_EN.txt	CALF	9	22	[0, 0, 0]	n/a	FR1	0	R1020J
2701.059	2.571	2985383	WORD	n/a	wordpools/wordpool_EN.txt	ZOO	10	22	[0, 0, 0]	n/a	FR1	0	R1020J
2703.63	2.454	2987954	WORD	n/a	wordpools/wordpool_EN.txt	SPRING	11	22	[0, 0, 0]	n/a	FR1	0	R1020J
2706.084	1.619	2990408	WORD	n/a	wordpools/wordpool_EN.txt	ARM	12	22	[0, 0, 0]	n/a	FR1	0	R1020J
2707.703	0.001	2992027	DISTRACT_START	n/a	n/a	n/a	-999	22	[0, 0, 0]	n/a	FR1	0	R1020J
2707.704	0.016	2992028	START	n/a	n/a	n/a	-999	22	[-999, -999, -999]	n/a	FR1	0	R1020J
2707.72	4.307	2992044	PROB	4.307	n/a	n/a	-999	22	[9, 3, 2]	14	FR1	0	R1020J
2712.027	4.307	2996351	PROB	4.307	n/a	n/a	-999	22	[4, 2, 7]	13	FR1	0	R1020J
2716.334	6.127	3000657	PROB	6.127	n/a	n/a	-999	22	[5, 1, 7]	13	FR1	0	R1020J
2722.461	2.722	3006784	PROB	2.722	n/a	n/a	-999	22	[3, 7, 1]	11	FR1	0	R1020J
2725.183	4.96	3009506	PROB	4.96	n/a	n/a	-999	22	[9, 8, 5]	22	FR1	0	R1020J
2730.143	0.015	3014466	STOP	n/a	n/a	n/a	-999	22	[-999, -999, -999]	n/a	FR1	0	R1020J
2730.158	1.136	3014481	DISTRACT_END	n/a	n/a	n/a	-999	22	[0, 0, 0]	n/a	FR1	0	R1020J
2731.294	1.172	3015617	REC_START	n/a	n/a	n/a	-999	22	[0, 0, 0]	n/a	FR1	0	R1020J
2732.466	1.17	3016789	REC_WORD	1.17	n/a	TANK	-999	22	[0, 0, 0]	n/a	FR1	0	R1020J
2733.636	1.412	3017959	REC_WORD	1.412	n/a	HOOF	-999	22	[0, 0, 0]	n/a	FR1	0	R1020J
2735.048	11.849	3019371	REC_WORD	11.849	n/a	LIP	-999	22	[0, 0, 0]	n/a	FR1	0	R1020J
2746.897	14.41	3031219	REC_WORD	14.41	n/a	CALF	-999	22	[0, 0, 0]	n/a	FR1	0	R1020J
2761.307	2.959	3045629	REC_END	n/a	n/a	n/a	-999	22	[0, 0, 0]	n/a	FR1	0	R1020J
2764.266	0.001	3048588	COUNTDOWN_START	n/a	n/a	n/a	-999	23	[0, 0, 0]	n/a	FR1	0	R1020J
2764.267	10.427	3048589	TRIAL	n/a	n/a	n/a	-999	23	[0, 0, 0]	n/a	FR1	0	R1020J
2774.694	0.005	3059015	COUNTDOWN_END	n/a	n/a	n/a	-999	23	[0, 0, 0]	n/a	FR1	0	R1020J
2774.699	2.538	3059020	ORIENT	n/a	n/a	n/a	-999	23	[0, 0, 0]	n/a	FR1	0	R1020J
2777.237	2.454	3061558	WORD	n/a	wordpools/wordpool_EN.txt	PEARL	1	23	[0, 0, 0]	n/a	FR1	0	R1020J
2779.691	2.454	3064012	WORD	n/a	wordpools/wordpool_EN.txt	MAIL	2	23	[0, 0, 0]	n/a	FR1	0	R1020J
2782.145	2.621	3066466	WORD	n/a	wordpools/wordpool_EN.txt	BOOK	3	23	[0, 0, 0]	n/a	FR1	0	R1020J
2784.766	2.438	3069087	WORD	n/a	wordpools/wordpool_EN.txt	MULE	4	23	[0, 0, 0]	n/a	FR1	0	R1020J
2787.204	2.404	3071525	WORD	n/a	wordpools/wordpool_EN.txt	SHEEP	5	23	[0, 0, 0]	n/a	FR1	0	R1020J
2789.608	2.604	3073929	WORD	n/a	wordpools/wordpool_EN.txt	BEAN	6	23	[0, 0, 0]	n/a	FR1	0	R1020J
2792.212	2.437	3076533	WORD	n/a	wordpools/wordpool_EN.txt	CORN	7	23	[0, 0, 0]	n/a	FR1	0	R1020J
2794.649	2.622	3078970	WORD	n/a	wordpools/wordpool_EN.txt	BEAK	8	23	[0, 0, 0]	n/a	FR1	0	R1020J
2797.271	2.622	3081591	WORD	n/a	wordpools/wordpool_EN.txt	GRAPE	9	23	[0, 0, 0]	n/a	FR1	0	R1020J
2799.893	2.62	3084213	WORD	n/a	wordpools/wordpool_EN.txt	RICE	10	23	[0, 0, 0]	n/a	FR1	0	R1020J
2802.513	2.604	3086833	WORD	n/a	wordpools/wordpool_EN.txt	LAND	11	23	[0, 0, 0]	n/a	FR1	0	R1020J
2805.117	1.619	3089437	WORD	n/a	wordpools/wordpool_EN.txt	GOLD	12	23	[0, 0, 0]	n/a	FR1	0	R1020J
2806.736	0.001	3091056	DISTRACT_START	n/a	n/a	n/a	-999	23	[0, 0, 0]	n/a	FR1	0	R1020J
2806.737	0.016	3091057	START	n/a	n/a	n/a	-999	23	[-999, -999, -999]	n/a	FR1	0	R1020J
2806.753	4.274	3091073	PROB	4.274	n/a	n/a	-999	23	[2, 5, 3]	10	FR1	0	R1020J
2811.027	3.339	3095347	PROB	3.339	n/a	n/a	-999	23	[1, 1, 7]	9	FR1	0	R1020J
2814.366	3.139	3098686	PROB	3.139	n/a	n/a	-999	23	[1, 4, 3]	8	FR1	0	R1020J
2817.505	10.151	3101825	PROB	10.151	n/a	n/a	-999	23	[5, 7, 4]	16	FR1	0	R1020J
2827.656	0.016	3111975	STOP	n/a	n/a	n/a	-999	23	[-999, -999, -999]	n/a	FR1	0	R1020J
2827.672	1.203	3111991	DISTRACT_END	n/a	n/a	n/a	-999	23	[0, 0, 0]	n/a	FR1	0	R1020J
2828.875	1.66	3113194	REC_START	n/a	n/a	n/a	-999	23	[0, 0, 0]	n/a	FR1	0	R1020J
2830.535	1.996	3114854	REC_WORD	1.996	n/a	GRAPE	-999	23	[0, 0, 0]	n/a	FR1	0	R1020J
2832.531	8.996	3116850	REC_WORD	8.996	n/a	BEAN	-999	23	[0, 0, 0]	n/a	FR1	0	R1020J
2841.527	1.722	3125846	REC_WORD	1.722	n/a	MULE	-999	23	[0, 0, 0]	n/a	FR1	0	R1020J
2843.249	4.365	3127568	REC_WORD	4.365	n/a	LAND	-999	23	[0, 0, 0]	n/a	FR1	0	R1020J
2847.614	5.735	3131933	REC_WORD	5.735	n/a	BEAK	-999	23	[0, 0, 0]	n/a	FR1	0	R1020J
2853.349	5.547	3137667	REC_WORD	5.547	n/a	BEAN	-999	23	[0, 0, 0]	n/a	FR1	0	R1020J
2858.896	2.282	3143214	REC_END	n/a	n/a	n/a	-999	23	[0, 0, 0]	n/a	FR1	0	R1020J
2861.178	0.001	3145496	COUNTDOWN_START	n/a	n/a	n/a	-999	24	[0, 0, 0]	n/a	FR1	0	R1020J
2861.179	10.427	3145497	TRIAL	n/a	n/a	n/a	-999	24	[0, 0, 0]	n/a	FR1	0	R1020J
2871.606	0.006	3155924	COUNTDOWN_END	n/a	n/a	n/a	-999	24	[0, 0, 0]	n/a	FR1	0	R1020J
2871.612	2.621	3155930	ORIENT	n/a	n/a	n/a	-999	24	[0, 0, 0]	n/a	FR1	0	R1020J
2874.233	2.538	3158551	WORD	n/a	wordpools/wordpool_EN.txt	LAMP	1	24	[0, 0, 0]	n/a	FR1	0	R1020J
2876.771	2.604	3161089	WORD	n/a	wordpools/wordpool_EN.txt	BRIDGE	2	24	[0, 0, 0]	n/a	FR1	0	R1020J
2879.375	2.404	3163693	WORD	n/a	wordpools/wordpool_EN.txt	MOLE	3	24	[0, 0, 0]	n/a	FR1	0	R1020J
2881.779	2.488	3166096	WORD	n/a	wordpools/wordpool_EN.txt	STAIR	4	24	[0, 0, 0]	n/a	FR1	0	R1020J
2884.267	2.537	3168584	WORD	n/a	wordpools/wordpool_EN.txt	CHIEF	5	24	[0, 0, 0]	n/a	FR1	0	R1020J
2886.804	2.638	3171121	WORD	n/a	wordpools/wordpool_EN.txt	NET	6	24	[0, 0, 0]	n/a	FR1	0	R1020J
2889.442	2.505	3173759	WORD	n/a	wordpools/wordpool_EN.txt	LOCK	7	24	[0, 0, 0]	n/a	FR1	0	R1020J
2891.947	2.554	3176264	WORD	n/a	wordpools/wordpool_EN.txt	CART	8	24	[0, 0, 0]	n/a	FR1	0	R1020J
2894.501	2.587	3178818	WORD	n/a	wordpools/wordpool_EN.txt	PHONE	9	24	[0, 0, 0]	n/a	FR1	0	R1020J
2897.088	2.405	3181405	WORD	n/a	wordpools/wordpool_EN.txt	MAZE	10	24	[0, 0, 0]	n/a	FR1	0	R1020J
2899.493	2.487	3183810	WORD	n/a	wordpools/wordpool_EN.txt	FARM	11	24	[0, 0, 0]	n/a	FR1	0	R1020J
2901.98	1.619	3186297	WORD	n/a	wordpools/wordpool_EN.txt	WAND	12	24	[0, 0, 0]	n/a	FR1	0	R1020J
2903.599	0.001	3187916	DISTRACT_START	n/a	n/a	n/a	-999	24	[0, 0, 0]	n/a	FR1	0	R1020J
2903.6	0.016	3187917	START	n/a	n/a	n/a	-999	24	[-999, -999, -999]	n/a	FR1	0	R1020J
2903.616	4.207	3187933	PROB	4.207	n/a	n/a	-999	24	[4, 8, 8]	20	FR1	0	R1020J
2907.823	4.307	3192140	PROB	4.307	n/a	n/a	-999	24	[6, 3, 8]	17	FR1	0	R1020J
2912.13	3.807	3196446	PROB	3.807	n/a	n/a	-999	24	[6, 4, 5]	15	FR1	0	R1020J
2915.937	5.76	3200253	PROB	5.76	n/a	n/a	-999	24	[4, 8, 5]	17	FR1	0	R1020J
2921.697	2.77	3206013	PROB	2.77	n/a	n/a	-999	24	[2, 2, 1]	5	FR1	0	R1020J
2924.467	0.018	3208783	STOP	n/a	n/a	n/a	-999	24	[-999, -999, -999]	n/a	FR1	0	R1020J
2924.485	1.185	3208801	DISTRACT_END	n/a	n/a	n/a	-999	24	[0, 0, 0]	n/a	FR1	0	R1020J
2925.67	0.854	3209986	REC_START	n/a	n/a	n/a	-999	24	[0, 0, 0]	n/a	FR1	0	R1020J
2926.524	0.819	3210840	REC_WORD	0.819	n/a	FARM	-999	24	[0, 0, 0]	n/a	FR1	0	R1020J
2927.343	3.116	3211659	REC_WORD	3.116	n/a	MAZE	-999	24	[0, 0, 0]	n/a	FR1	0	R1020J
2930.459	2.318	3214775	REC_WORD	2.318	n/a	WAND	-999	24	[0, 0, 0]	n/a	FR1	0	R1020J
2932.777	22.907	3217093	REC_WORD	22.907	n/a	CORN	-999	24	[0, 0, 0]	n/a	FR1	0	R1020J
2955.684	2.591	3239999	REC_END	n/a	n/a	n/a	-999	24	[0, 0, 0]	n/a	FR1	0	R1020J
2958.275	0.0	3242590	TRIAL	n/a	n/a	n/a	-999	25	[0, 0, 0]	n/a	FR1	0	R1020J
2958.275	10.428	3242590	COUNTDOWN_START	n/a	n/a	n/a	-999	25	[0, 0, 0]	n/a	FR1	0	R1020J
2968.703	0.006	3253017	COUNTDOWN_END	n/a	n/a	n/a	-999	25	[0, 0, 0]	n/a	FR1	0	R1020J
2968.709	2.538	3253023	ORIENT	n/a	n/a	n/a	-999	25	[0, 0, 0]	n/a	FR1	0	R1020J
2971.247	2.554	3255561	WORD	n/a	wordpools/wordpool_EN.txt	CONE	1	25	[0, 0, 0]	n/a	FR1	0	R1020J
2973.801	2.571	3258115	WORD	n/a	wordpools/wordpool_EN.txt	TRASH	2	25	[0, 0, 0]	n/a	FR1	0	R1020J
2976.372	2.487	3260686	WORD	n/a	wordpools/wordpool_EN.txt	PLANT	3	25	[0, 0, 0]	n/a	FR1	0	R1020J
2978.859	2.521	3263173	WORD	n/a	wordpools/wordpool_EN.txt	SMOKE	4	25	[0, 0, 0]	n/a	FR1	0	R1020J
2981.38	2.522	3265694	WORD	n/a	wordpools/wordpool_EN.txt	DOG	5	25	[0, 0, 0]	n/a	FR1	0	R1020J
2983.902	2.57	3268216	WORD	n/a	wordpools/wordpool_EN.txt	TOAD	6	25	[0, 0, 0]	n/a	FR1	0	R1020J
2986.472	2.538	3270786	WORD	n/a	wordpools/wordpool_EN.txt	FLAME	7	25	[0, 0, 0]	n/a	FR1	0	R1020J
2989.01	2.554	3273324	WORD	n/a	wordpools/wordpool_EN.txt	WEED	8	25	[0, 0, 0]	n/a	FR1	0	R1020J
2991.564	2.454	3275878	WORD	n/a	wordpools/wordpool_EN.txt	BEE	9	25	[0, 0, 0]	n/a	FR1	0	R1020J
2994.018	2.421	3278331	WORD	n/a	wordpools/wordpool_EN.txt	SEED	10	25	[0, 0, 0]	n/a	FR1	0	R1020J
2996.439	2.438	3280752	WORD	n/a	wordpools/wordpool_EN.txt	BUSH	11	25	[0, 0, 0]	n/a	FR1	0	R1020J
2998.877	1.619	3283190	WORD	n/a	wordpools/wordpool_EN.txt	FOG	12	25	[0, 0, 0]	n/a	FR1	0	R1020J
3000.496	0.001	3284809	DISTRACT_START	n/a	n/a	n/a	-999	25	[0, 0, 0]	n/a	FR1	0	R1020J
3000.497	0.015	3284810	START	n/a	n/a	n/a	-999	25	[-999, -999, -999]	n/a	FR1	0	R1020J
3000.512	4.191	3284825	PROB	4.191	n/a	n/a	-999	25	[8, 1, 3]	12	FR1	0	R1020J
3004.703	2.938	3289016	PROB	2.938	n/a	n/a	-999	25	[1, 9, 2]	12	FR1	0	R1020J
3007.641	3.322	3291954	PROB	3.322	n/a	n/a	-999	25	[1, 1, 6]	8	FR1	0	R1020J
3010.963	4.875	3295276	PROB	4.875	n/a	n/a	-999	25	[6, 5, 4]	15	FR1	0	R1020J
3015.838	4.274	3300151	PROB	4.274	n/a	n/a	-999	25	[6, 3, 9]	18	FR1	0	R1020J
3020.112	3.761	3304424	PROB	3.761	n/a	n/a	-999	25	[9, 9, 4]	22	FR1	0	R1020J
3023.873	0.013	3308185	STOP	n/a	n/a	n/a	-999	25	[-999, -999, -999]	n/a	FR1	0	R1020J
3023.886	1.185	3308198	DISTRACT_END	n/a	n/a	n/a	-999	25	[0, 0, 0]	n/a	FR1	0	R1020J
3025.071	1.192	3309383	REC_START	n/a	n/a	n/a	-999	25	[0, 0, 0]	n/a	FR1	0	R1020J
3026.263	1.402	3310575	REC_WORD	1.402	n/a	BUSH	-999	25	[0, 0, 0]	n/a	FR1	0	R1020J
3027.665	1.019	3311977	REC_WORD	1.019	n/a	WEED	-999	25	[0, 0, 0]	n/a	FR1	0	R1020J
3028.684	1.132	3312996	REC_WORD	1.132	n/a	FLAME	-999	25	[0, 0, 0]	n/a	FR1	0	R1020J
3029.816	2.955	3314128	REC_WORD	2.955	n/a	SMOKE	-999	25	[0, 0, 0]	n/a	FR1	0	R1020J
3032.771	22.314	3317083	REC_WORD	22.314	n/a	TOAD	-999	25	[0, 0, 0]	n/a	FR1	0	R1020J
3055.085	4.194	3339396	REC_END	n/a	n/a	n/a	-999	25	[0, 0, 0]	n/a	FR1	0	R1020J
3059.279	0.0	3343590	SESS_END	n/a	n/a	n/a	-999	25	[0, 0, 0]	n/a	FR1	0	R1020J
