onset	duration	sample	trial_type	response_time	stim_file	item_name	serialpos	list	test	answer	experiment	session	subject
0.0	19.704	9901	SESS_START	n/a	n/a	n/a	-999	-999	[0, 0, 0]	n/a	FR1	0	R1035M
19.704	10.428	19753	COUNTDOWN_START	n/a	n/a	n/a	-999	-999	[0, 0, 0]	n/a	FR1	0	R1035M
30.132	3.541	24966	COUNTDOWN_END	n/a	n/a	n/a	-999	-999	[0, 0, 0]	n/a	FR1	0	R1035M
33.673	2.45	26737	PRACTICE_WORD	n/a	n/a	ATTIC	1	-1	[0, 0, 0]	n/a	FR1	0	R1035M
36.123	2.534	27962	PRACTICE_WORD	n/a	n/a	WAGON	2	-1	[0, 0, 0]	n/a	FR1	0	R1035M
38.657	2.468	29229	PRACTICE_WORD	n/a	n/a	CAMEL	3	-1	[0, 0, 0]	n/a	FR1	0	R1035M
41.125	2.583	30463	PRACTICE_WORD	n/a	n/a	WATCH	4	-1	[0, 0, 0]	n/a	FR1	0	R1035M
43.708	2.567	31754	PRACTICE_WORD	n/a	n/a	IRON	5	-1	[0, 0, 0]	n/a	FR1	0	R1035M
46.275	2.418	33037	PRACTICE_WORD	n/a	n/a	FLOOD	6	-1	[0, 0, 0]	n/a	FR1	0	R1035M
48.693	2.5	34246	PRACTICE_WORD	n/a	n/a	CHEST	7	-1	[0, 0, 0]	n/a	FR1	0	R1035M
51.193	2.434	35496	PRACTICE_WORD	n/a	n/a	TONGUE	8	-1	[0, 0, 0]	n/a	FR1	0	R1035M
53.627	2.517	36713	PRACTICE_WORD	n/a	n/a	RHINO	9	-1	[0, 0, 0]	n/a	FR1	0	R1035M
56.144	2.534	37972	PRACTICE_WORD	n/a	n/a	COTTON	10	-1	[0, 0, 0]	n/a	FR1	0	R1035M
58.678	2.617	39239	PRACTICE_WORD	n/a	n/a	RING	11	-1	[0, 0, 0]	n/a	FR1	0	R1035M
61.295	1.618	40547	PRACTICE_WORD	n/a	n/a	BEAM	12	-1	[0, 0, 0]	n/a	FR1	0	R1035M
62.913	0.0	41356	PRACTICE_DISTRACT_START	n/a	n/a	n/a	-999	-1	[0, 0, 0]	n/a	FR1	0	R1035M
62.913	0.017	41356	START	n/a	n/a	n/a	-999	-1	[-999, -999, -999]	n/a	FR1	0	R1035M
62.93	4.733	41364	PROB	4.733	n/a	n/a	-999	-1	[6, 1, 8]	15	FR1	0	R1035M
67.663	5.001	43731	PROB	5.001	n/a	n/a	-999	-1	[9, 4, 6]	19	FR1	0	R1035M
72.664	4.252	46231	PROB	4.252	n/a	n/a	-999	-1	[7, 2, 8]	17	FR1	0	R1035M
76.916	4.35	48357	PROB	4.35	n/a	n/a	-999	-1	[9, 1, 5]	15	FR1	0	R1035M
81.266	4.192	50532	PROB	4.192	n/a	n/a	-999	-1	[9, 8, 2]	19	FR1	0	R1035M
85.458	0.008	52628	STOP	n/a	n/a	n/a	-999	-1	[-999, -999, -999]	n/a	FR1	0	R1035M
85.466	0.619	52632	PRACTICE_DISTRACT_END	n/a	n/a	n/a	-999	-1	[0, 0, 0]	n/a	FR1	0	R1035M
86.085	30.515	52941	PRACTICE_REC_START	n/a	n/a	n/a	-999	-1	[0, 0, 0]	n/a	FR1	0	R1035M
116.6	7.69	68198	PRACTICE_REC_END	n/a	n/a	n/a	-999	-1	[0, 0, 0]	n/a	FR1	0	R1035M
124.29	0.001	72043	COUNTDOWN_START	n/a	n/a	n/a	-999	1	[0, 0, 0]	n/a	FR1	0	R1035M
124.291	10.427	72043	TRIAL	n/a	n/a	n/a	-999	1	[0, 0, 0]	n/a	FR1	0	R1035M
134.718	0.008	77257	COUNTDOWN_END	n/a	n/a	n/a	-999	1	[0, 0, 0]	n/a	FR1	0	R1035M
134.726	2.4	77261	ORIENT	n/a	n/a	n/a	-999	1	[0, 0, 0]	n/a	FR1	0	R1035M
137.126	2.5	78460	WORD	n/a	wordpools/wordpool_EN.txt	STEAM	1	1	[0, 0, 0]	n/a	FR1	0	R1035M
139.626	2.385	79710	WORD	n/a	wordpools/wordpool_EN.txt	SIGN	2	1	[0, 0, 0]	n/a	FR1	0	R1035M
142.011	2.533	80903	WORD	n/a	wordpools/wordpool_EN.txt	WHALE	3	1	[0, 0, 0]	n/a	FR1	0	R1035M
144.544	2.451	82169	WORD	n/a	wordpools/wordpool_EN.txt	SHIELD	4	1	[0, 0, 0]	n/a	FR1	0	R1035M
146.995	2.4	83395	WORD	n/a	wordpools/wordpool_EN.txt	ICE	5	1	[0, 0, 0]	n/a	FR1	0	R1035M
149.395	2.434	84595	WORD	n/a	wordpools/wordpool_EN.txt	CROW	6	1	[0, 0, 0]	n/a	FR1	0	R1035M
151.829	2.434	85812	WORD	n/a	wordpools/wordpool_EN.txt	AXE	7	1	[0, 0, 0]	n/a	FR1	0	R1035M
154.263	2.45	87029	WORD	n/a	wordpools/wordpool_EN.txt	JEEP	8	1	[0, 0, 0]	n/a	FR1	0	R1035M
156.713	2.384	88253	WORD	n/a	wordpools/wordpool_EN.txt	SPRING	9	1	[0, 0, 0]	n/a	FR1	0	R1035M
159.097	2.384	89445	WORD	n/a	wordpools/wordpool_EN.txt	SLEEVE	10	1	[0, 0, 0]	n/a	FR1	0	R1035M
161.481	2.484	90637	WORD	n/a	wordpools/wordpool_EN.txt	GEESE	11	1	[0, 0, 0]	n/a	FR1	0	R1035M
163.965	1.617	91879	WORD	n/a	wordpools/wordpool_EN.txt	GATE	12	1	[0, 0, 0]	n/a	FR1	0	R1035M
165.582	0.0	92688	DISTRACT_START	n/a	n/a	n/a	-999	1	[0, 0, 0]	n/a	FR1	0	R1035M
165.582	0.016	92688	START	n/a	n/a	n/a	-999	1	[-999, -999, -999]	n/a	FR1	0	R1035M
165.598	4.801	92696	PROB	4.801	n/a	n/a	-999	1	[1, 9, 4]	14	FR1	0	R1035M
170.399	5.918	95096	PROB	5.918	n/a	n/a	-999	1	[9, 3, 5]	17	FR1	0	R1035M
176.317	3.867	98055	PROB	3.867	n/a	n/a	-999	1	[3, 5, 6]	14	FR1	0	R1035M
180.184	3.551	99988	PROB	3.551	n/a	n/a	-999	1	[7, 4, 3]	14	FR1	0	R1035M
183.735	4.931	101764	PROB	4.931	n/a	n/a	-999	1	[7, 4, 9]	20	FR1	0	R1035M
188.666	0.003	104229	STOP	n/a	n/a	n/a	-999	1	[-999, -999, -999]	n/a	FR1	0	R1035M
188.669	1.219	104231	DISTRACT_END	n/a	n/a	n/a	-999	1	[0, 0, 0]	n/a	FR1	0	R1035M
189.888	1.432	104840	REC_START	n/a	n/a	n/a	-999	1	[0, 0, 0]	n/a	FR1	0	R1035M
191.32	1.617	105556	REC_WORD	1.617	n/a	JEEP	8	1	[0, 0, 0]	n/a	FR1	0	R1035M
192.937	8.015	106365	REC_WORD	8.015	n/a	STEAM	1	1	[0, 0, 0]	n/a	FR1	0	R1035M
200.952	18.947	110372	REC_WORD	18.947	n/a	GEESE	11	1	[0, 0, 0]	n/a	FR1	0	R1035M
219.899	3.577	119845	REC_END	n/a	n/a	n/a	-999	1	[0, 0, 0]	n/a	FR1	0	R1035M
223.476	0.0	121633	TRIAL	n/a	n/a	n/a	-999	2	[0, 0, 0]	n/a	FR1	0	R1035M
223.476	10.428	121633	COUNTDOWN_START	n/a	n/a	n/a	-999	2	[0, 0, 0]	n/a	FR1	0	R1035M
233.904	0.009	126847	COUNTDOWN_END	n/a	n/a	n/a	-999	2	[0, 0, 0]	n/a	FR1	0	R1035M
233.913	2.532	126851	ORIENT	n/a	n/a	n/a	-999	2	[0, 0, 0]	n/a	FR1	0	R1035M
236.445	2.534	128117	WORD	n/a	wordpools/wordpool_EN.txt	TRAY	1	2	[0, 0, 0]	n/a	FR1	0	R1035M
238.979	2.567	129384	WORD	n/a	wordpools/wordpool_EN.txt	SPOON	2	2	[0, 0, 0]	n/a	FR1	0	R1035M
241.546	2.5	130668	WORD	n/a	wordpools/wordpool_EN.txt	TIE	3	2	[0, 0, 0]	n/a	FR1	0	R1035M
244.046	2.468	131918	WORD	n/a	wordpools/wordpool_EN.txt	FROG	4	2	[0, 0, 0]	n/a	FR1	0	R1035M
246.514	2.584	133152	WORD	n/a	wordpools/wordpool_EN.txt	SMILE	5	2	[0, 0, 0]	n/a	FR1	0	R1035M
249.098	2.584	134443	WORD	n/a	wordpools/wordpool_EN.txt	FORK	6	2	[0, 0, 0]	n/a	FR1	0	R1035M
251.682	2.433	135735	WORD	n/a	wordpools/wordpool_EN.txt	VEST	7	2	[0, 0, 0]	n/a	FR1	0	R1035M
254.115	2.601	136952	WORD	n/a	wordpools/wordpool_EN.txt	ARM	8	2	[0, 0, 0]	n/a	FR1	0	R1035M
256.716	2.467	138252	WORD	n/a	wordpools/wordpool_EN.txt	BREAD	9	2	[0, 0, 0]	n/a	FR1	0	R1035M
259.183	2.434	139486	WORD	n/a	wordpools/wordpool_EN.txt	GOAT	10	2	[0, 0, 0]	n/a	FR1	0	R1035M
261.617	2.45	140703	WORD	n/a	wordpools/wordpool_EN.txt	PIE	11	2	[0, 0, 0]	n/a	FR1	0	R1035M
264.067	1.617	141928	WORD	n/a	wordpools/wordpool_EN.txt	STEAK	12	2	[0, 0, 0]	n/a	FR1	0	R1035M
265.684	0.001	142736	DISTRACT_START	n/a	n/a	n/a	-999	2	[0, 0, 0]	n/a	FR1	0	R1035M
265.685	0.016	142737	START	n/a	n/a	n/a	-999	2	[-999, -999, -999]	n/a	FR1	0	R1035M
265.701	4.734	142745	PROB	4.734	n/a	n/a	-999	2	[5, 4, 4]	13	FR1	0	R1035M
270.435	3.468	145111	PROB	3.468	n/a	n/a	-999	2	[2, 6, 1]	9	FR1	0	R1035M
273.903	4.767	146845	PROB	4.767	n/a	n/a	-999	2	[8, 3, 6]	17	FR1	0	R1035M
278.67	4.601	149229	PROB	4.601	n/a	n/a	-999	2	[9, 4, 5]	18	FR1	0	R1035M
283.271	5.115	151529	PROB	5.115	n/a	n/a	-999	2	[6, 7, 6]	9	FR1	0	R1035M
288.386	0.019	154086	STOP	n/a	n/a	n/a	-999	2	[-999, -999, -999]	n/a	FR1	0	R1035M
288.405	1.084	154096	DISTRACT_END	n/a	n/a	n/a	-999	2	[0, 0, 0]	n/a	FR1	0	R1035M
289.489	1.757	154638	REC_START	n/a	n/a	n/a	-999	2	[0, 0, 0]	n/a	FR1	0	R1035M
291.246	1.485	155516	REC_WORD	1.485	n/a	FORK	6	2	[0, 0, 0]	n/a	FR1	0	R1035M
292.731	8.223	156259	REC_WORD	8.223	n/a	FROG	4	2	[0, 0, 0]	n/a	FR1	0	R1035M
300.954	18.55	160370	REC_WORD	18.55	n/a	SPOON	2	2	[0, 0, 0]	n/a	FR1	0	R1035M
319.504	14.527	169645	REC_END	n/a	n/a	n/a	-999	2	[0, 0, 0]	n/a	FR1	0	R1035M
334.031	0.0	176908	COUNTDOWN_START	n/a	n/a	n/a	-999	3	[0, 0, 0]	n/a	FR1	0	R1035M
334.031	10.428	176908	TRIAL	n/a	n/a	n/a	-999	3	[0, 0, 0]	n/a	FR1	0	R1035M
344.459	0.007	182121	COUNTDOWN_END	n/a	n/a	n/a	-999	3	[0, 0, 0]	n/a	FR1	0	R1035M
344.466	2.584	182125	ORIENT	n/a	n/a	n/a	-999	3	[0, 0, 0]	n/a	FR1	0	R1035M
347.05	2.567	183417	WORD	n/a	wordpools/wordpool_EN.txt	BALL	1	3	[0, 0, 0]	n/a	FR1	0	R1035M
349.617	2.584	184700	WORD	n/a	wordpools/wordpool_EN.txt	GLOVE	2	3	[0, 0, 0]	n/a	FR1	0	R1035M
352.201	2.45	185992	WORD	n/a	wordpools/wordpool_EN.txt	DRUM	3	3	[0, 0, 0]	n/a	FR1	0	R1035M
354.651	2.451	187217	WORD	n/a	wordpools/wordpool_EN.txt	PALM	4	3	[0, 0, 0]	n/a	FR1	0	R1035M
357.102	2.434	188443	WORD	n/a	wordpools/wordpool_EN.txt	PLATE	5	3	[0, 0, 0]	n/a	FR1	0	R1035M
359.536	2.433	189660	WORD	n/a	wordpools/wordpool_EN.txt	PRINCE	6	3	[0, 0, 0]	n/a	FR1	0	R1035M
361.969	2.618	190876	WORD	n/a	wordpools/wordpool_EN.txt	CHAIR	7	3	[0, 0, 0]	n/a	FR1	0	R1035M
364.587	2.417	192185	WORD	n/a	wordpools/wordpool_EN.txt	NET	8	3	[0, 0, 0]	n/a	FR1	0	R1035M
367.004	2.634	193393	WORD	n/a	wordpools/wordpool_EN.txt	TREE	9	3	[0, 0, 0]	n/a	FR1	0	R1035M
369.638	2.6	194710	WORD	n/a	wordpools/wordpool_EN.txt	VASE	10	3	[0, 0, 0]	n/a	FR1	0	R1035M
372.238	2.401	196010	WORD	n/a	wordpools/wordpool_EN.txt	SHARK	11	3	[0, 0, 0]	n/a	FR1	0	R1035M
374.639	1.617	197211	WORD	n/a	wordpools/wordpool_EN.txt	COIN	12	3	[0, 0, 0]	n/a	FR1	0	R1035M
376.256	0.001	198019	DISTRACT_START	n/a	n/a	n/a	-999	3	[0, 0, 0]	n/a	FR1	0	R1035M
376.257	0.015	198020	START	n/a	n/a	n/a	-999	3	[-999, -999, -999]	n/a	FR1	0	R1035M
376.272	5.218	198027	PROB	5.218	n/a	n/a	-999	3	[9, 3, 8]	20	FR1	0	R1035M
381.49	2.934	200636	PROB	2.934	n/a	n/a	-999	3	[1, 7, 7]	15	FR1	0	R1035M
384.424	2.917	202103	PROB	2.917	n/a	n/a	-999	3	[2, 8, 6]	16	FR1	0	R1035M
387.341	4.051	203561	PROB	4.051	n/a	n/a	-999	3	[6, 6, 3]	15	FR1	0	R1035M
391.392	3.834	205587	PROB	3.834	n/a	n/a	-999	3	[4, 3, 6]	13	FR1	0	R1035M
395.226	3.952	207504	PROB	3.952	n/a	n/a	-999	3	[8, 3, 4]	15	FR1	0	R1035M
399.178	0.015	209479	STOP	n/a	n/a	n/a	-999	3	[-999, -999, -999]	n/a	FR1	0	R1035M
399.193	1.168	209487	DISTRACT_END	n/a	n/a	n/a	-999	3	[0, 0, 0]	n/a	FR1	0	R1035M
400.361	1.441	210071	REC_START	n/a	n/a	n/a	-999	3	[0, 0, 0]	n/a	FR1	0	R1035M
401.802	2.275	210791	REC_WORD	2.275	n/a	TREE	9	3	[0, 0, 0]	n/a	FR1	0	R1035M
404.077	3.539	211929	REC_WORD	3.539	n/a	PALM	4	3	[0, 0, 0]	n/a	FR1	0	R1035M
407.616	2.226	213698	REC_WORD	2.226	n/a	BALL	1	3	[0, 0, 0]	n/a	FR1	0	R1035M
409.842	2.055	214811	REC_WORD	2.055	n/a	GLOVE	2	3	[0, 0, 0]	n/a	FR1	0	R1035M
411.897	6.083	215839	REC_WORD	6.083	n/a	COIN	12	3	[0, 0, 0]	n/a	FR1	0	R1035M
417.98	12.394	218880	REC_WORD	12.394	n/a	NET	8	3	[0, 0, 0]	n/a	FR1	0	R1035M
430.374	6.427	225077	REC_END	n/a	n/a	n/a	-999	3	[0, 0, 0]	n/a	FR1	0	R1035M
436.801	0.0	228290	TRIAL	n/a	n/a	n/a	-999	4	[0, 0, 0]	n/a	FR1	0	R1035M
436.801	10.428	228290	COUNTDOWN_START	n/a	n/a	n/a	-999	4	[0, 0, 0]	n/a	FR1	0	R1035M
447.229	0.007	233504	COUNTDOWN_END	n/a	n/a	n/a	-999	4	[0, 0, 0]	n/a	FR1	0	R1035M
447.236	2.484	233507	ORIENT	n/a	n/a	n/a	-999	4	[0, 0, 0]	n/a	FR1	0	R1035M
449.72	2.467	234749	WORD	n/a	wordpools/wordpool_EN.txt	MAIL	1	4	[0, 0, 0]	n/a	FR1	0	R1035M
452.187	2.45	235983	WORD	n/a	wordpools/wordpool_EN.txt	BANK	2	4	[0, 0, 0]	n/a	FR1	0	R1035M
454.637	2.384	237207	WORD	n/a	wordpools/wordpool_EN.txt	STORE	3	4	[0, 0, 0]	n/a	FR1	0	R1035M
457.021	2.501	238399	WORD	n/a	wordpools/wordpool_EN.txt	LAWN	4	4	[0, 0, 0]	n/a	FR1	0	R1035M
459.522	2.634	239650	WORD	n/a	wordpools/wordpool_EN.txt	PHONE	5	4	[0, 0, 0]	n/a	FR1	0	R1035M
462.156	2.467	240967	WORD	n/a	wordpools/wordpool_EN.txt	KEY	6	4	[0, 0, 0]	n/a	FR1	0	R1035M
464.623	2.583	242200	WORD	n/a	wordpools/wordpool_EN.txt	FUDGE	7	4	[0, 0, 0]	n/a	FR1	0	R1035M
467.206	2.484	243492	WORD	n/a	wordpools/wordpool_EN.txt	CASH	8	4	[0, 0, 0]	n/a	FR1	0	R1035M
469.69	2.551	244734	WORD	n/a	wordpools/wordpool_EN.txt	WALL	9	4	[0, 0, 0]	n/a	FR1	0	R1035M
472.241	2.55	246009	WORD	n/a	wordpools/wordpool_EN.txt	MILK	10	4	[0, 0, 0]	n/a	FR1	0	R1035M
474.791	2.534	247284	WORD	n/a	wordpools/wordpool_EN.txt	FOG	11	4	[0, 0, 0]	n/a	FR1	0	R1035M
477.325	1.601	248551	WORD	n/a	wordpools/wordpool_EN.txt	HEART	12	4	[0, 0, 0]	n/a	FR1	0	R1035M
478.926	0.001	249351	DISTRACT_START	n/a	n/a	n/a	-999	4	[0, 0, 0]	n/a	FR1	0	R1035M
478.927	0.016	249352	START	n/a	n/a	n/a	-999	4	[-999, -999, -999]	n/a	FR1	0	R1035M
478.943	4.6	249360	PROB	4.6	n/a	n/a	-999	4	[3, 5, 1]	9	FR1	0	R1035M
483.543	5.718	251660	PROB	5.718	n/a	n/a	-999	4	[2, 1, 8]	11	FR1	0	R1035M
489.261	3.017	254519	PROB	3.017	n/a	n/a	-999	4	[1, 1, 9]	11	FR1	0	R1035M
492.278	3.517	256027	PROB	3.517	n/a	n/a	-999	4	[2, 1, 4]	7	FR1	0	R1035M
495.795	4.199	257785	PROB	4.199	n/a	n/a	-999	4	[6, 4, 7]	17	FR1	0	R1035M
499.994	0.019	259885	STOP	n/a	n/a	n/a	-999	4	[-999, -999, -999]	n/a	FR1	0	R1035M
500.013	1.217	259894	DISTRACT_END	n/a	n/a	n/a	-999	4	[0, 0, 0]	n/a	FR1	0	R1035M
501.23	5.075	260503	REC_START	n/a	n/a	n/a	-999	4	[0, 0, 0]	n/a	FR1	0	R1035M
506.305	9.424	263040	REC_WORD	9.424	n/a	MAIL	1	4	[0, 0, 0]	n/a	FR1	0	R1035M
515.729	15.513	267752	REC_WORD	15.513	n/a	BANK	2	4	[0, 0, 0]	n/a	FR1	0	R1035M
531.242	9.179	275508	REC_END	n/a	n/a	n/a	-999	4	[0, 0, 0]	n/a	FR1	0	R1035M
540.421	0.0	280097	TRIAL	n/a	n/a	n/a	-999	5	[0, 0, 0]	n/a	FR1	0	R1035M
540.421	10.428	280097	COUNTDOWN_START	n/a	n/a	n/a	-999	5	[0, 0, 0]	n/a	FR1	0	R1035M
550.849	0.008	285311	COUNTDOWN_END	n/a	n/a	n/a	-999	5	[0, 0, 0]	n/a	FR1	0	R1035M
550.857	2.6	285315	ORIENT	n/a	n/a	n/a	-999	5	[0, 0, 0]	n/a	FR1	0	R1035M
553.457	2.468	286615	WORD	n/a	wordpools/wordpool_EN.txt	BRICK	1	5	[0, 0, 0]	n/a	FR1	0	R1035M
555.925	2.482	287849	WORD	n/a	wordpools/wordpool_EN.txt	POLE	2	5	[0, 0, 0]	n/a	FR1	0	R1035M
558.407	2.452	289090	WORD	n/a	wordpools/wordpool_EN.txt	JAIL	3	5	[0, 0, 0]	n/a	FR1	0	R1035M
560.859	2.599	290316	WORD	n/a	wordpools/wordpool_EN.txt	MAP	4	5	[0, 0, 0]	n/a	FR1	0	R1035M
563.458	2.419	291615	WORD	n/a	wordpools/wordpool_EN.txt	MOON	5	5	[0, 0, 0]	n/a	FR1	0	R1035M
565.877	2.482	292824	WORD	n/a	wordpools/wordpool_EN.txt	CORD	6	5	[0, 0, 0]	n/a	FR1	0	R1035M
568.359	2.618	294065	WORD	n/a	wordpools/wordpool_EN.txt	BOMB	7	5	[0, 0, 0]	n/a	FR1	0	R1035M
570.977	2.5	295374	WORD	n/a	wordpools/wordpool_EN.txt	OAR	8	5	[0, 0, 0]	n/a	FR1	0	R1035M
573.477	2.517	296624	WORD	n/a	wordpools/wordpool_EN.txt	STAR	9	5	[0, 0, 0]	n/a	FR1	0	R1035M
575.994	2.467	297883	WORD	n/a	wordpools/wordpool_EN.txt	STEM	10	5	[0, 0, 0]	n/a	FR1	0	R1035M
578.461	2.601	299116	WORD	n/a	wordpools/wordpool_EN.txt	BAT	11	5	[0, 0, 0]	n/a	FR1	0	R1035M
581.062	1.617	300417	WORD	n/a	wordpools/wordpool_EN.txt	TOOTH	12	5	[0, 0, 0]	n/a	FR1	0	R1035M
582.679	0.001	301225	DISTRACT_START	n/a	n/a	n/a	-999	5	[0, 0, 0]	n/a	FR1	0	R1035M
582.68	0.015	301226	START	n/a	n/a	n/a	-999	5	[-999, -999, -999]	n/a	FR1	0	R1035M
582.695	3.735	301233	PROB	3.735	n/a	n/a	-999	5	[6, 4, 2]	12	FR1	0	R1035M
586.43	4.667	303100	PROB	4.667	n/a	n/a	-999	5	[2, 9, 8]	19	FR1	0	R1035M
591.097	6.085	305434	PROB	6.085	n/a	n/a	-999	5	[3, 5, 5]	13	FR1	0	R1035M
597.182	6.276	308476	PROB	6.276	n/a	n/a	-999	5	[7, 3, 8]	18	FR1	0	R1035M
603.458	0.008	311614	STOP	n/a	n/a	n/a	-999	5	[-999, -999, -999]	n/a	FR1	0	R1035M
603.466	1.168	311618	DISTRACT_END	n/a	n/a	n/a	-999	5	[0, 0, 0]	n/a	FR1	0	R1035M
604.634	1.421	312202	REC_START	n/a	n/a	n/a	-999	5	[0, 0, 0]	n/a	FR1	0	R1035M
606.055	2.081	312912	REC_WORD	2.081	n/a	OAR	8	5	[0, 0, 0]	n/a	FR1	0	R1035M
608.136	2.711	313953	REC_WORD	2.711	n/a	BOAT	-999	5	[0, 0, 0]	n/a	FR1	0	R1035M
610.847	23.798	315308	REC_WORD	23.798	n/a	MAP	4	5	[0, 0, 0]	n/a	FR1	0	R1035M
634.645	6.628	327207	REC_END	n/a	n/a	n/a	-999	5	[0, 0, 0]	n/a	FR1	0	R1035M
641.273	0.001	330520	COUNTDOWN_START	n/a	n/a	n/a	-999	6	[0, 0, 0]	n/a	FR1	0	R1035M
641.274	10.427	330521	TRIAL	n/a	n/a	n/a	-999	6	[0, 0, 0]	n/a	FR1	0	R1035M
651.701	0.008	335734	COUNTDOWN_END	n/a	n/a	n/a	-999	6	[0, 0, 0]	n/a	FR1	0	R1035M
651.709	2.4	335738	ORIENT	n/a	n/a	n/a	-999	6	[0, 0, 0]	n/a	FR1	0	R1035M
654.109	2.601	336938	WORD	n/a	wordpools/wordpool_EN.txt	HAWK	1	6	[0, 0, 0]	n/a	FR1	0	R1035M
656.71	2.617	338239	WORD	n/a	wordpools/wordpool_EN.txt	BEE	2	6	[0, 0, 0]	n/a	FR1	0	R1035M
659.327	2.4	339547	WORD	n/a	wordpools/wordpool_EN.txt	SEAT	3	6	[0, 0, 0]	n/a	FR1	0	R1035M
661.727	2.418	340747	WORD	n/a	wordpools/wordpool_EN.txt	CORN	4	6	[0, 0, 0]	n/a	FR1	0	R1035M
664.145	2.6	341956	WORD	n/a	wordpools/wordpool_EN.txt	COW	5	6	[0, 0, 0]	n/a	FR1	0	R1035M
666.745	2.567	343256	WORD	n/a	wordpools/wordpool_EN.txt	BARN	6	6	[0, 0, 0]	n/a	FR1	0	R1035M
669.312	2.451	344539	WORD	n/a	wordpools/wordpool_EN.txt	OWL	7	6	[0, 0, 0]	n/a	FR1	0	R1035M
671.763	2.433	345765	WORD	n/a	wordpools/wordpool_EN.txt	PET	8	6	[0, 0, 0]	n/a	FR1	0	R1035M
674.196	2.468	346981	WORD	n/a	wordpools/wordpool_EN.txt	LAMB	9	6	[0, 0, 0]	n/a	FR1	0	R1035M
676.664	2.483	348215	WORD	n/a	wordpools/wordpool_EN.txt	SKY	10	6	[0, 0, 0]	n/a	FR1	0	R1035M
679.147	2.484	349456	WORD	n/a	wordpools/wordpool_EN.txt	FLEA	11	6	[0, 0, 0]	n/a	FR1	0	R1035M
681.631	1.617	350698	WORD	n/a	wordpools/wordpool_EN.txt	EEL	12	6	[0, 0, 0]	n/a	FR1	0	R1035M
683.248	0.001	351507	DISTRACT_START	n/a	n/a	n/a	-999	6	[0, 0, 0]	n/a	FR1	0	R1035M
683.249	0.016	351507	START	n/a	n/a	n/a	-999	6	[-999, -999, -999]	n/a	FR1	0	R1035M
683.265	4.334	351515	PROB	4.334	n/a	n/a	-999	6	[6, 8, 4]	18	FR1	0	R1035M
687.599	4.084	353682	PROB	4.084	n/a	n/a	-999	6	[8, 1, 6]	15	FR1	0	R1035M
691.683	3.934	355724	PROB	3.934	n/a	n/a	-999	6	[8, 1, 1]	10	FR1	0	R1035M
695.617	3.751	357691	PROB	3.751	n/a	n/a	-999	6	[1, 4, 2]	7	FR1	0	R1035M
699.368	3.834	359566	PROB	3.834	n/a	n/a	-999	6	[7, 4, 4]	15	FR1	0	R1035M
703.202	3.6	361483	PROB	3.6	n/a	n/a	-999	6	[1, 8, 2]	11	FR1	0	R1035M
706.802	0.017	363283	STOP	n/a	n/a	n/a	-999	6	[-999, -999, -999]	n/a	FR1	0	R1035M
706.819	1.102	363292	DISTRACT_END	n/a	n/a	n/a	-999	6	[0, 0, 0]	n/a	FR1	0	R1035M
707.921	0.89	363843	REC_START	n/a	n/a	n/a	-999	6	[0, 0, 0]	n/a	FR1	0	R1035M
708.811	1.898	364288	REC_WORD	1.898	n/a	PET	8	6	[0, 0, 0]	n/a	FR1	0	R1035M
710.709	1.843	365237	REC_WORD	1.843	n/a	COW	5	6	[0, 0, 0]	n/a	FR1	0	R1035M
712.552	5.346	366158	REC_WORD	5.346	n/a	BARN	6	6	[0, 0, 0]	n/a	FR1	0	R1035M
717.898	3.894	368831	REC_WORD	3.894	n/a	EEL	12	6	[0, 0, 0]	n/a	FR1	0	R1035M
721.792	16.146	370778	REC_WORD	16.146	n/a	SEAL	-999	6	[0, 0, 0]	n/a	FR1	0	R1035M
737.938	54.765	378850	REC_END	n/a	n/a	n/a	-999	6	[0, 0, 0]	n/a	FR1	0	R1035M
792.703	0.0	406231	TRIAL	n/a	n/a	n/a	-999	7	[0, 0, 0]	n/a	FR1	0	R1035M
792.703	10.428	406231	COUNTDOWN_START	n/a	n/a	n/a	-999	7	[0, 0, 0]	n/a	FR1	0	R1035M
803.131	0.007	411445	COUNTDOWN_END	n/a	n/a	n/a	-999	7	[0, 0, 0]	n/a	FR1	0	R1035M
803.138	2.601	411449	ORIENT	n/a	n/a	n/a	-999	7	[0, 0, 0]	n/a	FR1	0	R1035M
805.739	2.567	412749	WORD	n/a	wordpools/wordpool_EN.txt	PASTE	1	7	[0, 0, 0]	n/a	FR1	0	R1035M
808.306	2.467	414032	WORD	n/a	wordpools/wordpool_EN.txt	PEAR	2	7	[0, 0, 0]	n/a	FR1	0	R1035M
810.773	2.433	415266	WORD	n/a	wordpools/wordpool_EN.txt	LEG	3	7	[0, 0, 0]	n/a	FR1	0	R1035M
813.206	2.568	416482	WORD	n/a	wordpools/wordpool_EN.txt	APE	4	7	[0, 0, 0]	n/a	FR1	0	R1035M
815.774	2.6	417766	WORD	n/a	wordpools/wordpool_EN.txt	CONE	5	7	[0, 0, 0]	n/a	FR1	0	R1035M
818.374	2.552	419066	WORD	n/a	wordpools/wordpool_EN.txt	SEED	6	7	[0, 0, 0]	n/a	FR1	0	R1035M
820.926	2.399	420342	WORD	n/a	wordpools/wordpool_EN.txt	CLOTH	7	7	[0, 0, 0]	n/a	FR1	0	R1035M
823.325	2.518	421542	WORD	n/a	wordpools/wordpool_EN.txt	LEAF	8	7	[0, 0, 0]	n/a	FR1	0	R1035M
825.843	2.383	422801	WORD	n/a	wordpools/wordpool_EN.txt	RAT	9	7	[0, 0, 0]	n/a	FR1	0	R1035M
828.226	2.501	423992	WORD	n/a	wordpools/wordpool_EN.txt	WING	10	7	[0, 0, 0]	n/a	FR1	0	R1035M
830.727	2.467	425242	WORD	n/a	wordpools/wordpool_EN.txt	CHIEF	11	7	[0, 0, 0]	n/a	FR1	0	R1035M
833.194	1.617	426476	WORD	n/a	wordpools/wordpool_EN.txt	PLANT	12	7	[0, 0, 0]	n/a	FR1	0	R1035M
834.811	0.001	427284	DISTRACT_START	n/a	n/a	n/a	-999	7	[0, 0, 0]	n/a	FR1	0	R1035M
834.812	0.015	427285	START	n/a	n/a	n/a	-999	7	[-999, -999, -999]	n/a	FR1	0	R1035M
834.827	5.268	427292	PROB	5.268	n/a	n/a	-999	7	[3, 3, 2]	8	FR1	0	R1035M
840.095	3.251	429926	PROB	3.251	n/a	n/a	-999	7	[1, 9, 3]	13	FR1	0	R1035M
843.346	4.8	431552	PROB	4.8	n/a	n/a	-999	7	[3, 9, 9]	21	FR1	0	R1035M
848.146	9.912	433951	PROB	9.912	n/a	n/a	-999	7	[7, 9, 8]	24	FR1	0	R1035M
858.058	0.007	438907	STOP	n/a	n/a	n/a	-999	7	[-999, -999, -999]	n/a	FR1	0	R1035M
858.065	1.084	438911	DISTRACT_END	n/a	n/a	n/a	-999	7	[0, 0, 0]	n/a	FR1	0	R1035M
859.149	1.338	439453	REC_START	n/a	n/a	n/a	-999	7	[0, 0, 0]	n/a	FR1	0	R1035M
860.487	2.21	440122	REC_WORD	2.21	n/a	CONE	5	7	[0, 0, 0]	n/a	FR1	0	R1035M
862.697	4.999	441227	REC_WORD	4.999	n/a	PEAR	2	7	[0, 0, 0]	n/a	FR1	0	R1035M
867.696	21.465	443726	REC_WORD	21.465	n/a	SEED	6	7	[0, 0, 0]	n/a	FR1	0	R1035M
889.161	7.378	454458	REC_END	n/a	n/a	n/a	-999	7	[0, 0, 0]	n/a	FR1	0	R1035M
896.539	0.001	458147	COUNTDOWN_START	n/a	n/a	n/a	-999	8	[0, 0, 0]	n/a	FR1	0	R1035M
896.54	10.427	458147	TRIAL	n/a	n/a	n/a	-999	8	[0, 0, 0]	n/a	FR1	0	R1035M
906.967	0.008	463360	COUNTDOWN_END	n/a	n/a	n/a	-999	8	[0, 0, 0]	n/a	FR1	0	R1035M
906.975	2.467	463364	ORIENT	n/a	n/a	n/a	-999	8	[0, 0, 0]	n/a	FR1	0	R1035M
909.442	2.468	464598	WORD	n/a	wordpools/wordpool_EN.txt	BADGE	1	8	[0, 0, 0]	n/a	FR1	0	R1035M
911.91	2.533	465832	WORD	n/a	wordpools/wordpool_EN.txt	JUDGE	2	8	[0, 0, 0]	n/a	FR1	0	R1035M
914.443	2.6	467098	WORD	n/a	wordpools/wordpool_EN.txt	BOOK	3	8	[0, 0, 0]	n/a	FR1	0	R1035M
917.043	2.451	468398	WORD	n/a	wordpools/wordpool_EN.txt	PIG	4	8	[0, 0, 0]	n/a	FR1	0	R1035M
919.494	2.6	469623	WORD	n/a	wordpools/wordpool_EN.txt	PLANE	5	8	[0, 0, 0]	n/a	FR1	0	R1035M
922.094	2.617	470923	WORD	n/a	wordpools/wordpool_EN.txt	SHEET	6	8	[0, 0, 0]	n/a	FR1	0	R1035M
924.711	2.401	472232	WORD	n/a	wordpools/wordpool_EN.txt	CAR	7	8	[0, 0, 0]	n/a	FR1	0	R1035M
927.112	2.534	473432	WORD	n/a	wordpools/wordpool_EN.txt	SMOKE	8	8	[0, 0, 0]	n/a	FR1	0	R1035M
929.646	2.584	474699	WORD	n/a	wordpools/wordpool_EN.txt	SHEEP	9	8	[0, 0, 0]	n/a	FR1	0	R1035M
932.23	2.383	475991	WORD	n/a	wordpools/wordpool_EN.txt	WAVE	10	8	[0, 0, 0]	n/a	FR1	0	R1035M
934.613	2.584	477183	WORD	n/a	wordpools/wordpool_EN.txt	ARK	11	8	[0, 0, 0]	n/a	FR1	0	R1035M
937.197	1.617	478475	WORD	n/a	wordpools/wordpool_EN.txt	JET	12	8	[0, 0, 0]	n/a	FR1	0	R1035M
938.814	0.001	479283	DISTRACT_START	n/a	n/a	n/a	-999	8	[0, 0, 0]	n/a	FR1	0	R1035M
938.815	0.016	479283	START	n/a	n/a	n/a	-999	8	[-999, -999, -999]	n/a	FR1	0	R1035M
938.831	7.001	479291	PROB	7.001	n/a	n/a	-999	8	[5, 7, 7]	19	FR1	0	R1035M
945.832	4.451	482792	PROB	4.451	n/a	n/a	-999	8	[6, 9, 2]	17	FR1	0	R1035M
950.283	4.251	485017	PROB	4.251	n/a	n/a	-999	8	[8, 1, 1]	10	FR1	0	R1035M
954.534	4.084	487143	PROB	4.084	n/a	n/a	-999	8	[4, 6, 3]	13	FR1	0	R1035M
958.618	7.297	489184	PROB	7.297	n/a	n/a	-999	8	[7, 4, 5]	16	FR1	0	R1035M
965.915	0.005	492833	STOP	n/a	n/a	n/a	-999	8	[-999, -999, -999]	n/a	FR1	0	R1035M
965.92	1.117	492835	DISTRACT_END	n/a	n/a	n/a	-999	8	[0, 0, 0]	n/a	FR1	0	R1035M
967.037	1.694	493394	REC_START	n/a	n/a	n/a	-999	8	[0, 0, 0]	n/a	FR1	0	R1035M
968.731	4.241	494241	REC_WORD	4.241	n/a	CAR	7	8	[0, 0, 0]	n/a	FR1	0	R1035M
972.972	2.96	496361	REC_WORD	2.96	n/a	PIG	4	8	[0, 0, 0]	n/a	FR1	0	R1035M
975.932	7.475	497841	REC_WORD	7.475	n/a	SHEEP	9	8	[0, 0, 0]	n/a	FR1	0	R1035M
983.407	13.641	501578	REC_WORD	13.641	n/a	BARN	-999	8	[0, 0, 0]	n/a	FR1	0	R1035M
997.048	6.379	508398	REC_END	n/a	n/a	n/a	-999	8	[0, 0, 0]	n/a	FR1	0	R1035M
1003.427	0.0	511588	TRIAL	n/a	n/a	n/a	-999	9	[0, 0, 0]	n/a	FR1	0	R1035M
1003.427	10.428	511588	COUNTDOWN_START	n/a	n/a	n/a	-999	9	[0, 0, 0]	n/a	FR1	0	R1035M
1013.855	0.008	516801	COUNTDOWN_END	n/a	n/a	n/a	-999	9	[0, 0, 0]	n/a	FR1	0	R1035M
1013.863	2.583	516805	ORIENT	n/a	n/a	n/a	-999	9	[0, 0, 0]	n/a	FR1	0	R1035M
1016.446	2.401	518097	WORD	n/a	wordpools/wordpool_EN.txt	BLOOM	1	9	[0, 0, 0]	n/a	FR1	0	R1035M
1018.847	2.433	519297	WORD	n/a	wordpools/wordpool_EN.txt	BROOM	2	9	[0, 0, 0]	n/a	FR1	0	R1035M
1021.28	2.635	520514	WORD	n/a	wordpools/wordpool_EN.txt	BRANCH	3	9	[0, 0, 0]	n/a	FR1	0	R1035M
1023.915	2.516	521831	WORD	n/a	wordpools/wordpool_EN.txt	ROAD	4	9	[0, 0, 0]	n/a	FR1	0	R1035M
1026.431	2.468	523089	WORD	n/a	wordpools/wordpool_EN.txt	OAK	5	9	[0, 0, 0]	n/a	FR1	0	R1035M
1028.899	2.55	524323	WORD	n/a	wordpools/wordpool_EN.txt	GRASS	6	9	[0, 0, 0]	n/a	FR1	0	R1035M
1031.449	2.517	525598	WORD	n/a	wordpools/wordpool_EN.txt	VINE	7	9	[0, 0, 0]	n/a	FR1	0	R1035M
1033.966	2.517	526856	WORD	n/a	wordpools/wordpool_EN.txt	STRAW	8	9	[0, 0, 0]	n/a	FR1	0	R1035M
1036.483	2.451	528115	WORD	n/a	wordpools/wordpool_EN.txt	ROPE	9	9	[0, 0, 0]	n/a	FR1	0	R1035M
1038.934	2.583	529340	WORD	n/a	wordpools/wordpool_EN.txt	PANTS	10	9	[0, 0, 0]	n/a	FR1	0	R1035M
1041.517	2.567	530632	WORD	n/a	wordpools/wordpool_EN.txt	PEACH	11	9	[0, 0, 0]	n/a	FR1	0	R1035M
1044.084	1.617	531915	WORD	n/a	wordpools/wordpool_EN.txt	WEED	12	9	[0, 0, 0]	n/a	FR1	0	R1035M
1045.701	0.001	532724	DISTRACT_START	n/a	n/a	n/a	-999	9	[0, 0, 0]	n/a	FR1	0	R1035M
1045.702	0.016	532724	START	n/a	n/a	n/a	-999	9	[-999, -999, -999]	n/a	FR1	0	R1035M
1045.718	4.318	532732	PROB	4.318	n/a	n/a	-999	9	[8, 1, 6]	15	FR1	0	R1035M
1050.036	3.4	534891	PROB	3.4	n/a	n/a	-999	9	[2, 6, 8]	16	FR1	0	R1035M
1053.436	3.118	536591	PROB	3.118	n/a	n/a	-999	9	[2, 5, 4]	11	FR1	0	R1035M
1056.554	4.467	538150	PROB	4.467	n/a	n/a	-999	9	[8, 5, 6]	19	FR1	0	R1035M
1061.021	5.717	540383	PROB	5.717	n/a	n/a	-999	9	[8, 2, 9]	19	FR1	0	R1035M
1066.738	0.018	543242	STOP	n/a	n/a	n/a	-999	9	[-999, -999, -999]	n/a	FR1	0	R1035M
1066.756	1.234	543251	DISTRACT_END	n/a	n/a	n/a	-999	9	[0, 0, 0]	n/a	FR1	0	R1035M
1067.99	1.427	543867	REC_START	n/a	n/a	n/a	-999	9	[0, 0, 0]	n/a	FR1	0	R1035M
1069.417	2.182	544581	REC_WORD	2.182	n/a	BLOOM	1	9	[0, 0, 0]	n/a	FR1	0	R1035M
1071.599	2.276	545672	REC_WORD	2.276	n/a	BRANCH	3	9	[0, 0, 0]	n/a	FR1	0	R1035M
1073.875	3.321	546810	REC_WORD	3.321	n/a	ROAD	4	9	[0, 0, 0]	n/a	FR1	0	R1035M
1077.196	3.577	548470	REC_WORD	3.577	n/a	PANTS	10	9	[0, 0, 0]	n/a	FR1	0	R1035M
1080.773	16.357	550259	REC_WORD	16.357	n/a	PEACH	11	9	[0, 0, 0]	n/a	FR1	0	R1035M
1097.13	0.869	558437	REC_WORD	0.869	n/a	OAR	-999	9	[0, 0, 0]	n/a	FR1	0	R1035M
1097.999	8.882	558871	REC_END	n/a	n/a	n/a	-999	9	[0, 0, 0]	n/a	FR1	0	R1035M
1106.881	0.0	563312	TRIAL	n/a	n/a	n/a	-999	10	[0, 0, 0]	n/a	FR1	0	R1035M
1106.881	10.428	563312	COUNTDOWN_START	n/a	n/a	n/a	-999	10	[0, 0, 0]	n/a	FR1	0	R1035M
1117.309	0.006	568526	COUNTDOWN_END	n/a	n/a	n/a	-999	10	[0, 0, 0]	n/a	FR1	0	R1035M
1117.315	2.384	568529	ORIENT	n/a	n/a	n/a	-999	10	[0, 0, 0]	n/a	FR1	0	R1035M
1119.699	2.451	569721	WORD	n/a	wordpools/wordpool_EN.txt	PIPE	1	10	[0, 0, 0]	n/a	FR1	0	R1035M
1122.15	2.55	570946	WORD	n/a	wordpools/wordpool_EN.txt	STRING	2	10	[0, 0, 0]	n/a	FR1	0	R1035M
1124.7	2.467	572221	WORD	n/a	wordpools/wordpool_EN.txt	ROOM	3	10	[0, 0, 0]	n/a	FR1	0	R1035M
1127.167	2.617	573454	WORD	n/a	wordpools/wordpool_EN.txt	DART	4	10	[0, 0, 0]	n/a	FR1	0	R1035M
1129.784	2.618	574763	WORD	n/a	wordpools/wordpool_EN.txt	BAND	5	10	[0, 0, 0]	n/a	FR1	0	R1035M
1132.402	2.583	576072	WORD	n/a	wordpools/wordpool_EN.txt	CHEEK	6	10	[0, 0, 0]	n/a	FR1	0	R1035M
1134.985	2.384	577363	WORD	n/a	wordpools/wordpool_EN.txt	NEST	7	10	[0, 0, 0]	n/a	FR1	0	R1035M
1137.369	2.451	578555	WORD	n/a	wordpools/wordpool_EN.txt	HAT	8	10	[0, 0, 0]	n/a	FR1	0	R1035M
1139.82	2.617	579781	WORD	n/a	wordpools/wordpool_EN.txt	DOLL	9	10	[0, 0, 0]	n/a	FR1	0	R1035M
1142.437	2.55	581089	WORD	n/a	wordpools/wordpool_EN.txt	BIRD	10	10	[0, 0, 0]	n/a	FR1	0	R1035M
1144.987	2.484	582364	WORD	n/a	wordpools/wordpool_EN.txt	CRANE	11	10	[0, 0, 0]	n/a	FR1	0	R1035M
1147.471	1.617	583606	WORD	n/a	wordpools/wordpool_EN.txt	TAIL	12	10	[0, 0, 0]	n/a	FR1	0	R1035M
1149.088	0.001	584414	DISTRACT_START	n/a	n/a	n/a	-999	10	[0, 0, 0]	n/a	FR1	0	R1035M
1149.089	0.016	584415	START	n/a	n/a	n/a	-999	10	[-999, -999, -999]	n/a	FR1	0	R1035M
1149.105	5.384	584423	PROB	5.384	n/a	n/a	-999	10	[2, 5, 4]	11	FR1	0	R1035M
1154.489	4.968	587115	PROB	4.968	n/a	n/a	-999	10	[4, 5, 4]	13	FR1	0	R1035M
1159.457	4.767	589599	PROB	4.767	n/a	n/a	-999	10	[8, 7, 9]	24	FR1	0	R1035M
1164.224	4.978	591982	PROB	4.978	n/a	n/a	-999	10	[8, 5, 7]	20	FR1	0	R1035M
1169.202	0.007	594471	STOP	n/a	n/a	n/a	-999	10	[-999, -999, -999]	n/a	FR1	0	R1035M
1169.209	1.217	594474	DISTRACT_END	n/a	n/a	n/a	-999	10	[0, 0, 0]	n/a	FR1	0	R1035M
1170.426	3.408	595083	REC_START	n/a	n/a	n/a	-999	10	[0, 0, 0]	n/a	FR1	0	R1035M
1173.834	2.418	596787	REC_WORD	2.418	n/a	ARK	-999	10	[0, 0, 0]	n/a	FR1	0	R1035M
1176.252	6.247	597996	REC_WORD	6.247	n/a	DOLL	9	10	[0, 0, 0]	n/a	FR1	0	R1035M
1182.499	13.958	601119	REC_WORD	13.958	n/a	PIPE	1	10	[0, 0, 0]	n/a	FR1	0	R1035M
1196.457	3.98	608098	REC_WORD	3.98	n/a	STRING	2	10	[0, 0, 0]	n/a	FR1	0	R1035M
1200.437	7.179	610087	REC_END	n/a	n/a	n/a	-999	10	[0, 0, 0]	n/a	FR1	0	R1035M
1207.616	0.0	613677	TRIAL	n/a	n/a	n/a	-999	11	[0, 0, 0]	n/a	FR1	0	R1035M
1207.616	10.428	613677	COUNTDOWN_START	n/a	n/a	n/a	-999	11	[0, 0, 0]	n/a	FR1	0	R1035M
1218.044	0.008	618890	COUNTDOWN_END	n/a	n/a	n/a	-999	11	[0, 0, 0]	n/a	FR1	0	R1035M
1218.052	2.55	618894	ORIENT	n/a	n/a	n/a	-999	11	[0, 0, 0]	n/a	FR1	0	R1035M
1220.602	2.434	620169	WORD	n/a	wordpools/wordpool_EN.txt	SEAL	1	11	[0, 0, 0]	n/a	FR1	0	R1035M
1223.036	2.467	621386	WORD	n/a	wordpools/wordpool_EN.txt	GOLD	2	11	[0, 0, 0]	n/a	FR1	0	R1035M
1225.503	2.584	622620	WORD	n/a	wordpools/wordpool_EN.txt	GUARD	3	11	[0, 0, 0]	n/a	FR1	0	R1035M
1228.087	2.617	623912	WORD	n/a	wordpools/wordpool_EN.txt	NAIL	4	11	[0, 0, 0]	n/a	FR1	0	R1035M
1230.704	2.617	625220	WORD	n/a	wordpools/wordpool_EN.txt	SQUARE	5	11	[0, 0, 0]	n/a	FR1	0	R1035M
1233.321	2.585	626529	WORD	n/a	wordpools/wordpool_EN.txt	CAPE	6	11	[0, 0, 0]	n/a	FR1	0	R1035M
1235.906	2.449	627821	WORD	n/a	wordpools/wordpool_EN.txt	TOOL	7	11	[0, 0, 0]	n/a	FR1	0	R1035M
1238.355	2.434	629045	WORD	n/a	wordpools/wordpool_EN.txt	CROWN	8	11	[0, 0, 0]	n/a	FR1	0	R1035M
1240.789	2.484	630262	WORD	n/a	wordpools/wordpool_EN.txt	SWORD	9	11	[0, 0, 0]	n/a	FR1	0	R1035M
1243.273	2.517	631504	WORD	n/a	wordpools/wordpool_EN.txt	HAND	10	11	[0, 0, 0]	n/a	FR1	0	R1035M
1245.79	2.484	632763	WORD	n/a	wordpools/wordpool_EN.txt	BLUSH	11	11	[0, 0, 0]	n/a	FR1	0	R1035M
1248.274	1.601	634005	WORD	n/a	wordpools/wordpool_EN.txt	PIT	12	11	[0, 0, 0]	n/a	FR1	0	R1035M
1249.875	0.001	634805	DISTRACT_START	n/a	n/a	n/a	-999	11	[0, 0, 0]	n/a	FR1	0	R1035M
1249.876	0.016	634806	START	n/a	n/a	n/a	-999	11	[-999, -999, -999]	n/a	FR1	0	R1035M
1249.892	4.917	634814	PROB	4.917	n/a	n/a	-999	11	[4, 3, 7]	14	FR1	0	R1035M
1254.809	4.051	637272	PROB	4.051	n/a	n/a	-999	11	[7, 2, 5]	14	FR1	0	R1035M
1258.86	5.117	639297	PROB	5.117	n/a	n/a	-999	11	[9, 1, 1]	11	FR1	0	R1035M
1263.977	4.784	641856	PROB	4.784	n/a	n/a	-999	11	[6, 8, 9]	23	FR1	0	R1035M
1268.761	4.409	644248	PROB	4.409	n/a	n/a	-999	11	[7, 2, 4]	13	FR1	0	R1035M
1273.17	0.009	646452	STOP	n/a	n/a	n/a	-999	11	[-999, -999, -999]	n/a	FR1	0	R1035M
1273.179	1.167	646456	DISTRACT_END	n/a	n/a	n/a	-999	11	[0, 0, 0]	n/a	FR1	0	R1035M
1274.346	1.925	647040	REC_START	n/a	n/a	n/a	-999	11	[0, 0, 0]	n/a	FR1	0	R1035M
1276.271	4.086	648002	REC_WORD	4.086	n/a	PIT	12	11	[0, 0, 0]	n/a	FR1	0	R1035M
1280.357	9.17	650045	REC_WORD	9.17	n/a	SEAL	1	11	[0, 0, 0]	n/a	FR1	0	R1035M
1289.527	5.752	654630	REC_WORD	5.752	n/a	GOLD	2	11	[0, 0, 0]	n/a	FR1	0	R1035M
1295.279	9.083	657506	REC_WORD	9.083	n/a	PERCH	-999	11	[0, 0, 0]	n/a	FR1	0	R1035M
1304.362	9.291	662047	REC_END	n/a	n/a	n/a	-999	11	[0, 0, 0]	n/a	FR1	0	R1035M
1313.653	0.001	666692	COUNTDOWN_START	n/a	n/a	n/a	-999	12	[0, 0, 0]	n/a	FR1	0	R1035M
1313.654	10.427	666693	TRIAL	n/a	n/a	n/a	-999	12	[0, 0, 0]	n/a	FR1	0	R1035M
1324.081	0.008	671906	COUNTDOWN_END	n/a	n/a	n/a	-999	12	[0, 0, 0]	n/a	FR1	0	R1035M
1324.089	2.4	671910	ORIENT	n/a	n/a	n/a	-999	12	[0, 0, 0]	n/a	FR1	0	R1035M
1326.489	2.484	673110	WORD	n/a	wordpools/wordpool_EN.txt	MUG	1	12	[0, 0, 0]	n/a	FR1	0	R1035M
1328.973	2.417	674352	WORD	n/a	wordpools/wordpool_EN.txt	TRUCK	2	12	[0, 0, 0]	n/a	FR1	0	R1035M
1331.39	2.384	675560	WORD	n/a	wordpools/wordpool_EN.txt	STOOL	3	12	[0, 0, 0]	n/a	FR1	0	R1035M
1333.774	2.534	676752	WORD	n/a	wordpools/wordpool_EN.txt	PURSE	4	12	[0, 0, 0]	n/a	FR1	0	R1035M
1336.308	2.584	678019	WORD	n/a	wordpools/wordpool_EN.txt	SHELL	5	12	[0, 0, 0]	n/a	FR1	0	R1035M
1338.892	2.55	679311	WORD	n/a	wordpools/wordpool_EN.txt	PEARL	6	12	[0, 0, 0]	n/a	FR1	0	R1035M
1341.442	2.617	680586	WORD	n/a	wordpools/wordpool_EN.txt	MAZE	7	12	[0, 0, 0]	n/a	FR1	0	R1035M
1344.059	2.551	681895	WORD	n/a	wordpools/wordpool_EN.txt	FLOOR	8	12	[0, 0, 0]	n/a	FR1	0	R1035M
1346.61	2.567	683170	WORD	n/a	wordpools/wordpool_EN.txt	VAN	9	12	[0, 0, 0]	n/a	FR1	0	R1035M
1349.177	2.6	684453	WORD	n/a	wordpools/wordpool_EN.txt	HOOK	10	12	[0, 0, 0]	n/a	FR1	0	R1035M
1351.777	2.484	685753	WORD	n/a	wordpools/wordpool_EN.txt	PEA	11	12	[0, 0, 0]	n/a	FR1	0	R1035M
1354.261	1.601	686995	WORD	n/a	wordpools/wordpool_EN.txt	CLOWN	12	12	[0, 0, 0]	n/a	FR1	0	R1035M
1355.862	0.001	687796	DISTRACT_START	n/a	n/a	n/a	-999	12	[0, 0, 0]	n/a	FR1	0	R1035M
1355.863	0.016	687796	START	n/a	n/a	n/a	-999	12	[-999, -999, -999]	n/a	FR1	0	R1035M
1355.879	4.567	687804	PROB	4.567	n/a	n/a	-999	12	[7, 7, 1]	15	FR1	0	R1035M
1360.446	3.6	690088	PROB	3.6	n/a	n/a	-999	12	[4, 2, 9]	15	FR1	0	R1035M
1364.046	3.551	691888	PROB	3.551	n/a	n/a	-999	12	[3, 6, 2]	11	FR1	0	R1035M
1367.597	6.218	693663	PROB	6.218	n/a	n/a	-999	12	[9, 7, 7]	23	FR1	0	R1035M
1373.815	3.036	696772	PROB	3.036	n/a	n/a	-999	12	[2, 5, 5]	12	FR1	0	R1035M
1376.851	0.016	698290	STOP	n/a	n/a	n/a	-999	12	[-999, -999, -999]	n/a	FR1	0	R1035M
1376.867	1.116	698298	DISTRACT_END	n/a	n/a	n/a	-999	12	[0, 0, 0]	n/a	FR1	0	R1035M
1377.983	0.982	698856	REC_START	n/a	n/a	n/a	-999	12	[0, 0, 0]	n/a	FR1	0	R1035M
1378.965	1.758	699347	REC_WORD	1.758	n/a	MUG	1	12	[0, 0, 0]	n/a	FR1	0	R1035M
1380.723	2.191	700226	REC_WORD	2.191	n/a	TRUCK	2	12	[0, 0, 0]	n/a	FR1	0	R1035M
1382.914	2.469	701321	REC_WORD	2.469	n/a	PURSE	4	12	[0, 0, 0]	n/a	FR1	0	R1035M
1385.383	2.332	702555	REC_WORD	2.332	n/a	PEARL	6	12	[0, 0, 0]	n/a	FR1	0	R1035M
1387.715	14.508	703721	REC_WORD	14.508	n/a	MAZE	7	12	[0, 0, 0]	n/a	FR1	0	R1035M
1402.223	5.771	710975	REC_WORD	5.771	n/a	MUG	1	12	[0, 0, 0]	n/a	FR1	0	R1035M
1407.994	48.855	713860	REC_END	n/a	n/a	n/a	-999	12	[0, 0, 0]	n/a	FR1	0	R1035M
1456.849	0.0	738287	TRIAL	n/a	n/a	n/a	-999	13	[0, 0, 0]	n/a	FR1	0	R1035M
1456.849	0.0	738287	COUNTDOWN_START	n/a	n/a	n/a	-999	13	[0, 0, 0]	n/a	FR1	0	R1035M
