onset	duration	sample	trial_type	response_time	stim_file	item_name	serialpos	list	test	answer	experiment	session	subject
0.0	0.255	-1	Logging	n/a	n/a	n/a	-999	25	[0, 0, 0]	n/a	FR1	1	R1367D
0.255	4.832	-1	Logging	n/a	n/a	n/a	-999	-999	[0, 0, 0]	n/a	FR1	1	R1367D
5.087	326.143	-1	INSTRUCT_START	n/a	n/a	n/a	-999	-999	[0, 0, 0]	n/a	FR1	1	R1367D
331.23	0.0	310116	WAITING_START	n/a	n/a	n/a	-999	-1	[0, 0, 0]	n/a	FR1	1	R1367D
331.23	0.0	310116	TRIAL	n/a	n/a	n/a	-999	-1	[0, 0, 0]	n/a	FR1	1	R1367D
331.23	0.0	310116	INSTRUCT_END	n/a	n/a	n/a	-999	-999	[0, 0, 0]	n/a	FR1	1	R1367D
331.23	0.0	310116	MIC	n/a	n/a	n/a	-999	-999	[0, 0, 0]	n/a	FR1	1	R1367D
331.23	0.0	310116	TRIAL_START	n/a	n/a	n/a	-999	-1	[0, 0, 0]	n/a	FR1	1	R1367D
331.23	103.835	310116	MIC	n/a	n/a	n/a	-999	-999	[0, 0, 0]	n/a	FR1	1	R1367D
435.065	0.0	413946	ORIENT_START	n/a	n/a	n/a	-999	-1	[0, 0, 0]	n/a	FR1	1	R1367D
435.065	0.0	413946	WAITING_END	n/a	n/a	n/a	-999	-1	[0, 0, 0]	n/a	FR1	1	R1367D
435.065	0.0	413946	COUNTDOWN_START	n/a	n/a	n/a	-999	-1	[0, 0, 0]	n/a	FR1	1	R1367D
435.065	11.487	413946	COUNTDOWN_END	n/a	n/a	n/a	-999	-1	[0, 0, 0]	n/a	FR1	1	R1367D
446.552	0.0	425432	ENCODING_START	n/a	n/a	n/a	-999	-1	[0, 0, 0]	n/a	FR1	1	R1367D
446.552	1.052	425432	ORIENT_END	n/a	n/a	n/a	-999	-1	[0, 0, 0]	n/a	FR1	1	R1367D
447.604	1.631	426484	WORD	n/a	n/a	BEAM	1	-1	[0, 0, 0]	n/a	FR1	1	R1367D
449.235	0.78	428115	WORD_OFF	n/a	n/a	BEAM	1	-1	[0, 0, 0]	n/a	FR1	1	R1367D
450.015	1.638	428895	WORD	n/a	n/a	TONGUE	2	-1	[0, 0, 0]	n/a	FR1	1	R1367D
451.653	1.108	430533	WORD_OFF	n/a	n/a	TONGUE	2	-1	[0, 0, 0]	n/a	FR1	1	R1367D
452.761	1.625	431641	WORD	n/a	n/a	IMAGE	3	-1	[0, 0, 0]	n/a	FR1	1	R1367D
454.386	0.966	433266	WORD_OFF	n/a	n/a	IMAGE	3	-1	[0, 0, 0]	n/a	FR1	1	R1367D
455.352	1.635	434232	WORD	n/a	n/a	RING	4	-1	[0, 0, 0]	n/a	FR1	1	R1367D
456.987	1.025	435867	WORD_OFF	n/a	n/a	RING	4	-1	[0, 0, 0]	n/a	FR1	1	R1367D
458.012	1.625	436892	WORD	n/a	n/a	BABY	5	-1	[0, 0, 0]	n/a	FR1	1	R1367D
459.637	0.832	438517	WORD_OFF	n/a	n/a	BABY	5	-1	[0, 0, 0]	n/a	FR1	1	R1367D
460.469	1.634	439349	WORD	n/a	n/a	CAMEL	6	-1	[0, 0, 0]	n/a	FR1	1	R1367D
462.103	1.102	440983	WORD_OFF	n/a	n/a	CAMEL	6	-1	[0, 0, 0]	n/a	FR1	1	R1367D
463.205	1.633	442084	WORD	n/a	n/a	RHINO	7	-1	[0, 0, 0]	n/a	FR1	1	R1367D
464.838	0.939	443717	WORD_OFF	n/a	n/a	RHINO	7	-1	[0, 0, 0]	n/a	FR1	1	R1367D
465.777	1.628	444656	WORD	n/a	n/a	WAGON	8	-1	[0, 0, 0]	n/a	FR1	1	R1367D
467.405	1.132	446284	WORD_OFF	n/a	n/a	WAGON	8	-1	[0, 0, 0]	n/a	FR1	1	R1367D
468.537	1.635	447416	WORD	n/a	n/a	CHEST	9	-1	[0, 0, 0]	n/a	FR1	1	R1367D
470.172	0.875	449051	WORD_OFF	n/a	n/a	CHEST	9	-1	[0, 0, 0]	n/a	FR1	1	R1367D
471.047	1.626	449926	WORD	n/a	n/a	FLOOD	10	-1	[0, 0, 0]	n/a	FR1	1	R1367D
472.673	0.77	451552	WORD_OFF	n/a	n/a	FLOOD	10	-1	[0, 0, 0]	n/a	FR1	1	R1367D
473.443	1.63	452322	WORD	n/a	n/a	COTTON	11	-1	[0, 0, 0]	n/a	FR1	1	R1367D
475.073	0.75	453952	WORD_OFF	n/a	n/a	COTTON	11	-1	[0, 0, 0]	n/a	FR1	1	R1367D
475.823	1.634	454702	WORD	n/a	n/a	WATCH	12	-1	[0, 0, 0]	n/a	FR1	1	R1367D
477.457	0.0	456336	WORD_OFF	n/a	n/a	WATCH	12	-1	[0, 0, 0]	n/a	FR1	1	R1367D
477.457	0.0	456336	ENCODING_END	n/a	n/a	n/a	-999	-1	[0, 0, 0]	n/a	FR1	1	R1367D
477.457	0.002	456336	DISTRACT_START	n/a	n/a	n/a	-999	-1	[0, 0, 0]	n/a	FR1	1	R1367D
477.459	0.015	456338	START	n/a	n/a	n/a	-999	-1	[-999, -999, -999]	n/a	FR1	1	R1367D
477.474	6.951	456353	PROB	6.951	n/a	n/a	-999	-1	[6, 6, 1]	13	FR1	1	R1367D
484.425	3.001	463303	PROB	3.001	n/a	n/a	-999	-1	[3, 8, 4]	15	FR1	1	R1367D
487.426	6.268	466304	PROB	6.268	n/a	n/a	-999	-1	[9, 9, 5]	23	FR1	1	R1367D
493.694	3.814	472572	PROB	3.814	n/a	n/a	-999	-1	[9, 6, 6]	21	FR1	1	R1367D
497.508	0.02	476386	STOP	n/a	n/a	n/a	-999	-1	[-999, -999, -999]	n/a	FR1	1	R1367D
497.528	1.249	476406	DISTRACT_END	n/a	n/a	n/a	-999	-1	[0, 0, 0]	n/a	FR1	1	R1367D
498.777	1.034	477655	RETRIEVAL_ORIENT_START	n/a	n/a	n/a	-999	-1	[0, 0, 0]	n/a	FR1	1	R1367D
499.811	0.0	478689	RETRIEVAL_ORIENT_END	n/a	n/a	n/a	-999	-1	[0, 0, 0]	n/a	FR1	1	R1367D
499.811	0.0	478689	REC_START	n/a	n/a	n/a	-999	-1	[0, 0, 0]	n/a	FR1	1	R1367D
499.811	30.511	478689	REC_WORD_VV	30.511	n/a	<>	-999	-1	[0, 0, 0]	n/a	FR1	1	R1367D
530.322	0.0	509198	PRACTICE_POST_INSTRUCT_START	n/a	n/a	n/a	-999	-1	[0, 0, 0]	n/a	FR1	1	R1367D
530.322	3.862	509198	REC_END	n/a	n/a	n/a	-999	-1	[0, 0, 0]	n/a	FR1	1	R1367D
534.184	0.0	513060	WAITING_START	n/a	n/a	n/a	-999	1	[0, 0, 0]	n/a	FR1	1	R1367D
534.184	0.0	513060	TRIAL	n/a	n/a	n/a	-999	1	[0, 0, 0]	n/a	FR1	1	R1367D
534.184	0.0	513060	PRACTICE_POST_INSTRUCT_END	n/a	n/a	n/a	-999	-1	[0, 0, 0]	n/a	FR1	1	R1367D
534.184	0.0	513060	TRIAL_END	n/a	n/a	n/a	-999	-1	[0, 0, 0]	n/a	FR1	1	R1367D
534.184	4.034	513060	TRIAL_START	n/a	n/a	n/a	-999	1	[0, 0, 0]	n/a	FR1	1	R1367D
538.218	0.0	517094	WAITING_END	n/a	n/a	n/a	-999	1	[0, 0, 0]	n/a	FR1	1	R1367D
538.218	0.0	517094	COUNTDOWN_START	n/a	n/a	n/a	-999	1	[0, 0, 0]	n/a	FR1	1	R1367D
538.218	0.0	517094	COUNTDOWN_END	n/a	n/a	n/a	-999	1	[0, 0, 0]	n/a	FR1	1	R1367D
538.218	11.569	517094	ORIENT_START	n/a	n/a	n/a	-999	1	[0, 0, 0]	n/a	FR1	1	R1367D
549.787	0.0	528662	ORIENT_END	n/a	n/a	n/a	-999	1	[0, 0, 0]	n/a	FR1	1	R1367D
549.787	0.845	528662	ENCODING_START	n/a	n/a	n/a	-999	1	[0, 0, 0]	n/a	FR1	1	R1367D
550.632	1.622	529507	WORD	n/a	wordpools/wordpool_EN.txt	SOUP	1	1	[0, 0, 0]	n/a	FR1	1	R1367D
552.254	0.949	531129	WORD_OFF	n/a	n/a	SOUP	1	1	[0, 0, 0]	n/a	FR1	1	R1367D
553.203	1.635	532078	WORD	n/a	wordpools/wordpool_EN.txt	PRINCE	2	1	[0, 0, 0]	n/a	FR1	1	R1367D
554.838	0.893	533713	WORD_OFF	n/a	n/a	PRINCE	2	1	[0, 0, 0]	n/a	FR1	1	R1367D
555.731	1.624	534606	WORD	n/a	wordpools/wordpool_EN.txt	FORK	3	1	[0, 0, 0]	n/a	FR1	1	R1367D
557.355	0.987	536230	WORD_OFF	n/a	n/a	FORK	3	1	[0, 0, 0]	n/a	FR1	1	R1367D
558.342	1.63	537217	WORD	n/a	wordpools/wordpool_EN.txt	PANTS	4	1	[0, 0, 0]	n/a	FR1	1	R1367D
559.972	0.853	538846	WORD_OFF	n/a	n/a	PANTS	4	1	[0, 0, 0]	n/a	FR1	1	R1367D
560.825	1.631	539699	WORD	n/a	wordpools/wordpool_EN.txt	PURSE	5	1	[0, 0, 0]	n/a	FR1	1	R1367D
562.456	0.764	541330	WORD_OFF	n/a	n/a	PURSE	5	1	[0, 0, 0]	n/a	FR1	1	R1367D
563.22	1.637	542094	WORD	n/a	wordpools/wordpool_EN.txt	STEM	6	1	[0, 0, 0]	n/a	FR1	1	R1367D
564.857	1.115	543731	WORD_OFF	n/a	n/a	STEM	6	1	[0, 0, 0]	n/a	FR1	1	R1367D
565.972	1.635	544846	WORD	n/a	wordpools/wordpool_EN.txt	PIE	7	1	[0, 0, 0]	n/a	FR1	1	R1367D
567.607	1.09	546481	WORD_OFF	n/a	n/a	PIE	7	1	[0, 0, 0]	n/a	FR1	1	R1367D
568.697	1.627	547571	WORD	n/a	wordpools/wordpool_EN.txt	STORE	8	1	[0, 0, 0]	n/a	FR1	1	R1367D
570.324	0.819	549198	WORD_OFF	n/a	n/a	STORE	8	1	[0, 0, 0]	n/a	FR1	1	R1367D
571.143	1.632	550017	WORD	n/a	wordpools/wordpool_EN.txt	GUARD	9	1	[0, 0, 0]	n/a	FR1	1	R1367D
572.775	0.761	551649	WORD_OFF	n/a	n/a	GUARD	9	1	[0, 0, 0]	n/a	FR1	1	R1367D
573.536	1.622	552410	WORD	n/a	wordpools/wordpool_EN.txt	SNOW	10	1	[0, 0, 0]	n/a	FR1	1	R1367D
575.158	0.904	554032	WORD_OFF	n/a	n/a	SNOW	10	1	[0, 0, 0]	n/a	FR1	1	R1367D
576.062	1.63	554936	WORD	n/a	wordpools/wordpool_EN.txt	CORN	11	1	[0, 0, 0]	n/a	FR1	1	R1367D
577.692	1.005	556566	WORD_OFF	n/a	n/a	CORN	11	1	[0, 0, 0]	n/a	FR1	1	R1367D
578.697	1.629	557570	WORD	n/a	wordpools/wordpool_EN.txt	SINK	12	1	[0, 0, 0]	n/a	FR1	1	R1367D
580.326	0.0	559199	DISTRACT_START	n/a	n/a	n/a	-999	1	[0, 0, 0]	n/a	FR1	1	R1367D
580.326	0.0	559199	ENCODING_END	n/a	n/a	n/a	-999	1	[0, 0, 0]	n/a	FR1	1	R1367D
580.326	0.001	559199	WORD_OFF	n/a	n/a	SINK	12	1	[0, 0, 0]	n/a	FR1	1	R1367D
580.327	0.016	559200	START	n/a	n/a	n/a	-999	1	[-999, -999, -999]	n/a	FR1	1	R1367D
580.343	4.084	559216	PROB	4.084	n/a	n/a	-999	1	[2, 3, 3]	8	FR1	1	R1367D
584.427	2.666	563300	PROB	2.666	n/a	n/a	-999	1	[1, 7, 1]	9	FR1	1	R1367D
587.093	3.017	565966	PROB	3.017	n/a	n/a	-999	1	[1, 1, 8]	10	FR1	1	R1367D
590.11	3.235	568983	PROB	3.235	n/a	n/a	-999	1	[3, 5, 8]	16	FR1	1	R1367D
593.345	3.217	572218	PROB	3.217	n/a	n/a	-999	1	[3, 7, 8]	18	FR1	1	R1367D
596.562	2.818	575435	PROB	2.818	n/a	n/a	-999	1	[1, 6, 8]	15	FR1	1	R1367D
599.38	6.471	578252	PROB	6.471	n/a	n/a	-999	1	[7, 4, 9]	20	FR1	1	R1367D
605.851	0.013	584723	STOP	n/a	n/a	n/a	-999	1	[-999, -999, -999]	n/a	FR1	1	R1367D
605.864	1.305	584736	DISTRACT_END	n/a	n/a	n/a	-999	1	[0, 0, 0]	n/a	FR1	1	R1367D
607.169	1.029	586041	RETRIEVAL_ORIENT_START	n/a	n/a	n/a	-999	1	[0, 0, 0]	n/a	FR1	1	R1367D
608.198	0.0	587070	RETRIEVAL_ORIENT_END	n/a	n/a	n/a	-999	1	[0, 0, 0]	n/a	FR1	1	R1367D
608.198	2.76	587070	REC_START	n/a	n/a	n/a	-999	1	[0, 0, 0]	n/a	FR1	1	R1367D
610.958	1.776	589830	REC_WORD	1.776	n/a	PANTS	4	1	[0, 0, 0]	n/a	FR1	1	R1367D
612.734	3.041	591606	REC_WORD	3.041	n/a	SOUP	1	1	[0, 0, 0]	n/a	FR1	1	R1367D
615.775	0.32	594647	REC_WORD_VV	0.32	n/a	<>	-999	1	[0, 0, 0]	n/a	FR1	1	R1367D
616.095	2.646	594967	REC_WORD	2.646	n/a	CAN	-999	1	[0, 0, 0]	n/a	FR1	1	R1367D
618.741	2.448	597612	REC_WORD	2.448	n/a	FORK	3	1	[0, 0, 0]	n/a	FR1	1	R1367D
621.189	5.477	600060	REC_WORD	5.477	n/a	SALAD	-999	1	[0, 0, 0]	n/a	FR1	1	R1367D
626.666	1.0	605537	REC_WORD_VV	1.0	n/a	<>	-999	1	[0, 0, 0]	n/a	FR1	1	R1367D
627.666	1.0	606537	REC_WORD_VV	1.0	n/a	<>	-999	1	[0, 0, 0]	n/a	FR1	1	R1367D
628.666	1.0	607537	REC_WORD_VV	1.0	n/a	<>	-999	1	[0, 0, 0]	n/a	FR1	1	R1367D
629.666	1.0	608537	REC_WORD_VV	1.0	n/a	<>	-999	1	[0, 0, 0]	n/a	FR1	1	R1367D
630.666	8.045	609537	REC_WORD_VV	8.045	n/a	<>	-999	1	[0, 0, 0]	n/a	FR1	1	R1367D
638.711	0.0	617581	TRIAL	n/a	n/a	n/a	-999	2	[0, 0, 0]	n/a	FR1	1	R1367D
638.711	0.0	617581	WAITING_START	n/a	n/a	n/a	-999	2	[0, 0, 0]	n/a	FR1	1	R1367D
638.711	0.0	617581	TRIAL_END	n/a	n/a	n/a	-999	1	[0, 0, 0]	n/a	FR1	1	R1367D
638.711	0.0	617581	TRIAL_START	n/a	n/a	n/a	-999	2	[0, 0, 0]	n/a	FR1	1	R1367D
638.711	104.945	617581	REC_END	n/a	n/a	n/a	-999	1	[0, 0, 0]	n/a	FR1	1	R1367D
743.656	0.0	722521	WAITING_END	n/a	n/a	n/a	-999	2	[0, 0, 0]	n/a	FR1	1	R1367D
743.656	0.0	722521	COUNTDOWN_START	n/a	n/a	n/a	-999	2	[0, 0, 0]	n/a	FR1	1	R1367D
743.656	0.0	722521	COUNTDOWN_END	n/a	n/a	n/a	-999	2	[0, 0, 0]	n/a	FR1	1	R1367D
743.656	11.484	722521	ORIENT_START	n/a	n/a	n/a	-999	2	[0, 0, 0]	n/a	FR1	1	R1367D
755.14	0.0	734004	ORIENT_END	n/a	n/a	n/a	-999	2	[0, 0, 0]	n/a	FR1	1	R1367D
755.14	1.076	734004	ENCODING_START	n/a	n/a	n/a	-999	2	[0, 0, 0]	n/a	FR1	1	R1367D
756.216	1.626	735080	WORD	n/a	wordpools/wordpool_EN.txt	SAIL	1	2	[0, 0, 0]	n/a	FR1	1	R1367D
757.842	0.887	736706	WORD_OFF	n/a	n/a	SAIL	1	2	[0, 0, 0]	n/a	FR1	1	R1367D
758.729	1.63	737593	WORD	n/a	wordpools/wordpool_EN.txt	LAKE	2	2	[0, 0, 0]	n/a	FR1	1	R1367D
760.359	1.033	739223	WORD_OFF	n/a	n/a	LAKE	2	2	[0, 0, 0]	n/a	FR1	1	R1367D
761.392	1.633	740256	WORD	n/a	wordpools/wordpool_EN.txt	STICK	3	2	[0, 0, 0]	n/a	FR1	1	R1367D
763.025	0.985	741889	WORD_OFF	n/a	n/a	STICK	3	2	[0, 0, 0]	n/a	FR1	1	R1367D
764.01	1.633	742874	WORD	n/a	wordpools/wordpool_EN.txt	CRANE	4	2	[0, 0, 0]	n/a	FR1	1	R1367D
765.643	1.121	744507	WORD_OFF	n/a	n/a	CRANE	4	2	[0, 0, 0]	n/a	FR1	1	R1367D
766.764	1.63	745628	WORD	n/a	wordpools/wordpool_EN.txt	HOLE	5	2	[0, 0, 0]	n/a	FR1	1	R1367D
768.394	0.963	747258	WORD_OFF	n/a	n/a	HOLE	5	2	[0, 0, 0]	n/a	FR1	1	R1367D
769.357	1.637	748221	WORD	n/a	wordpools/wordpool_EN.txt	RAKE	6	2	[0, 0, 0]	n/a	FR1	1	R1367D
770.994	0.757	749857	WORD_OFF	n/a	n/a	RAKE	6	2	[0, 0, 0]	n/a	FR1	1	R1367D
771.751	1.627	750614	WORD	n/a	wordpools/wordpool_EN.txt	KEY	7	2	[0, 0, 0]	n/a	FR1	1	R1367D
773.378	1.12	752241	WORD_OFF	n/a	n/a	KEY	7	2	[0, 0, 0]	n/a	FR1	1	R1367D
774.498	1.629	753361	WORD	n/a	wordpools/wordpool_EN.txt	STRAW	8	2	[0, 0, 0]	n/a	FR1	1	R1367D
776.127	1.136	754990	WORD_OFF	n/a	n/a	STRAW	8	2	[0, 0, 0]	n/a	FR1	1	R1367D
777.263	1.632	756126	WORD	n/a	wordpools/wordpool_EN.txt	TENT	9	2	[0, 0, 0]	n/a	FR1	1	R1367D
778.895	0.91	757758	WORD_OFF	n/a	n/a	TENT	9	2	[0, 0, 0]	n/a	FR1	1	R1367D
779.805	1.624	758668	WORD	n/a	wordpools/wordpool_EN.txt	BOOK	10	2	[0, 0, 0]	n/a	FR1	1	R1367D
781.429	1.063	760292	WORD_OFF	n/a	n/a	BOOK	10	2	[0, 0, 0]	n/a	FR1	1	R1367D
782.492	1.62	761355	WORD	n/a	wordpools/wordpool_EN.txt	OAK	11	2	[0, 0, 0]	n/a	FR1	1	R1367D
784.112	0.813	762975	WORD_OFF	n/a	n/a	OAK	11	2	[0, 0, 0]	n/a	FR1	1	R1367D
784.925	1.622	763788	WORD	n/a	wordpools/wordpool_EN.txt	ARK	12	2	[0, 0, 0]	n/a	FR1	1	R1367D
786.547	0.0	765410	WORD_OFF	n/a	n/a	ARK	12	2	[0, 0, 0]	n/a	FR1	1	R1367D
786.547	0.0	765410	ENCODING_END	n/a	n/a	n/a	-999	2	[0, 0, 0]	n/a	FR1	1	R1367D
786.547	0.001	765410	DISTRACT_START	n/a	n/a	n/a	-999	2	[0, 0, 0]	n/a	FR1	1	R1367D
786.548	0.016	765411	START	n/a	n/a	n/a	-999	2	[-999, -999, -999]	n/a	FR1	1	R1367D
786.564	2.883	765427	PROB	2.883	n/a	n/a	-999	2	[3, 3, 6]	12	FR1	1	R1367D
789.447	3.501	768309	PROB	3.501	n/a	n/a	-999	2	[7, 8, 5]	20	FR1	1	R1367D
792.948	3.133	771810	PROB	3.133	n/a	n/a	-999	2	[9, 2, 8]	19	FR1	1	R1367D
796.081	3.268	774943	PROB	3.268	n/a	n/a	-999	2	[1, 4, 9]	14	FR1	1	R1367D
799.349	3.451	778211	PROB	3.451	n/a	n/a	-999	2	[5, 2, 1]	8	FR1	1	R1367D
802.8	3.017	781662	PROB	3.017	n/a	n/a	-999	2	[3, 2, 7]	12	FR1	1	R1367D
805.817	5.138	784679	PROB	5.138	n/a	n/a	-999	2	[9, 9, 8]	26	FR1	1	R1367D
810.955	0.013	789816	STOP	n/a	n/a	n/a	-999	2	[-999, -999, -999]	n/a	FR1	1	R1367D
810.968	1.106	789829	DISTRACT_END	n/a	n/a	n/a	-999	2	[0, 0, 0]	n/a	FR1	1	R1367D
812.074	1.027	790935	RETRIEVAL_ORIENT_START	n/a	n/a	n/a	-999	2	[0, 0, 0]	n/a	FR1	1	R1367D
813.101	0.0	791962	RETRIEVAL_ORIENT_END	n/a	n/a	n/a	-999	2	[0, 0, 0]	n/a	FR1	1	R1367D
813.101	2.874	791962	REC_START	n/a	n/a	n/a	-999	2	[0, 0, 0]	n/a	FR1	1	R1367D
815.975	2.931	794836	REC_WORD	2.931	n/a	SAIL	1	2	[0, 0, 0]	n/a	FR1	1	R1367D
818.906	0.666	797767	REC_WORD	0.666	n/a	OAK	11	2	[0, 0, 0]	n/a	FR1	1	R1367D
819.572	1.824	798433	REC_WORD	1.824	n/a	SOAK	-999	2	[0, 0, 0]	n/a	FR1	1	R1367D
821.396	5.398	800257	REC_WORD_VV	5.398	n/a	<>	-999	2	[0, 0, 0]	n/a	FR1	1	R1367D
826.794	16.822	805655	REC_WORD	16.822	n/a	LAKE	2	2	[0, 0, 0]	n/a	FR1	1	R1367D
843.616	0.0	822476	REC_END	n/a	n/a	n/a	-999	2	[0, 0, 0]	n/a	FR1	1	R1367D
843.616	0.0	822476	TRIAL_END	n/a	n/a	n/a	-999	2	[0, 0, 0]	n/a	FR1	1	R1367D
843.616	0.0	822476	TRIAL_START	n/a	n/a	n/a	-999	3	[0, 0, 0]	n/a	FR1	1	R1367D
843.616	0.0	822476	TRIAL	n/a	n/a	n/a	-999	3	[0, 0, 0]	n/a	FR1	1	R1367D
843.616	1.675	822476	WAITING_START	n/a	n/a	n/a	-999	3	[0, 0, 0]	n/a	FR1	1	R1367D
845.291	0.0	824151	ORIENT_START	n/a	n/a	n/a	-999	3	[0, 0, 0]	n/a	FR1	1	R1367D
845.291	0.0	824151	WAITING_END	n/a	n/a	n/a	-999	3	[0, 0, 0]	n/a	FR1	1	R1367D
845.291	0.0	824151	COUNTDOWN_START	n/a	n/a	n/a	-999	3	[0, 0, 0]	n/a	FR1	1	R1367D
845.291	11.452	824151	COUNTDOWN_END	n/a	n/a	n/a	-999	3	[0, 0, 0]	n/a	FR1	1	R1367D
856.743	0.0	835602	ORIENT_END	n/a	n/a	n/a	-999	3	[0, 0, 0]	n/a	FR1	1	R1367D
856.743	0.782	835602	ENCODING_START	n/a	n/a	n/a	-999	3	[0, 0, 0]	n/a	FR1	1	R1367D
857.525	1.635	836384	WORD	n/a	wordpools/wordpool_EN.txt	MOUTH	1	3	[0, 0, 0]	n/a	FR1	1	R1367D
859.16	0.856	838019	WORD_OFF	n/a	n/a	MOUTH	1	3	[0, 0, 0]	n/a	FR1	1	R1367D
860.016	1.628	838875	WORD	n/a	wordpools/wordpool_EN.txt	STORM	2	3	[0, 0, 0]	n/a	FR1	1	R1367D
861.644	0.963	840503	WORD_OFF	n/a	n/a	STORM	2	3	[0, 0, 0]	n/a	FR1	1	R1367D
862.607	1.637	841466	WORD	n/a	wordpools/wordpool_EN.txt	CLOUD	3	3	[0, 0, 0]	n/a	FR1	1	R1367D
864.244	1.04	843103	WORD_OFF	n/a	n/a	CLOUD	3	3	[0, 0, 0]	n/a	FR1	1	R1367D
865.284	1.627	844143	WORD	n/a	wordpools/wordpool_EN.txt	PIN	4	3	[0, 0, 0]	n/a	FR1	1	R1367D
866.911	0.973	845769	WORD_OFF	n/a	n/a	PIN	4	3	[0, 0, 0]	n/a	FR1	1	R1367D
867.884	1.628	846742	WORD	n/a	wordpools/wordpool_EN.txt	HAND	5	3	[0, 0, 0]	n/a	FR1	1	R1367D
869.512	0.991	848370	WORD_OFF	n/a	n/a	HAND	5	3	[0, 0, 0]	n/a	FR1	1	R1367D
870.503	1.625	849361	WORD	n/a	wordpools/wordpool_EN.txt	FLAG	6	3	[0, 0, 0]	n/a	FR1	1	R1367D
872.128	1.023	850986	WORD_OFF	n/a	n/a	FLAG	6	3	[0, 0, 0]	n/a	FR1	1	R1367D
873.151	1.629	852009	WORD	n/a	wordpools/wordpool_EN.txt	FOG	7	3	[0, 0, 0]	n/a	FR1	1	R1367D
874.78	0.937	853638	WORD_OFF	n/a	n/a	FOG	7	3	[0, 0, 0]	n/a	FR1	1	R1367D
875.717	1.63	854575	WORD	n/a	wordpools/wordpool_EN.txt	FRUIT	8	3	[0, 0, 0]	n/a	FR1	1	R1367D
877.347	0.781	856205	WORD_OFF	n/a	n/a	FRUIT	8	3	[0, 0, 0]	n/a	FR1	1	R1367D
878.128	1.636	856986	WORD	n/a	wordpools/wordpool_EN.txt	EGG	9	3	[0, 0, 0]	n/a	FR1	1	R1367D
879.764	1.072	858622	WORD_OFF	n/a	n/a	EGG	9	3	[0, 0, 0]	n/a	FR1	1	R1367D
880.836	1.628	859694	WORD	n/a	wordpools/wordpool_EN.txt	CLOWN	10	3	[0, 0, 0]	n/a	FR1	1	R1367D
882.464	1.137	861322	WORD_OFF	n/a	n/a	CLOWN	10	3	[0, 0, 0]	n/a	FR1	1	R1367D
883.601	1.63	862459	WORD	n/a	wordpools/wordpool_EN.txt	CAR	11	3	[0, 0, 0]	n/a	FR1	1	R1367D
885.231	1.029	864089	WORD_OFF	n/a	n/a	CAR	11	3	[0, 0, 0]	n/a	FR1	1	R1367D
886.26	1.622	865117	WORD	n/a	wordpools/wordpool_EN.txt	FORT	12	3	[0, 0, 0]	n/a	FR1	1	R1367D
887.882	0.0	866739	DISTRACT_START	n/a	n/a	n/a	-999	3	[0, 0, 0]	n/a	FR1	1	R1367D
887.882	0.0	866739	WORD_OFF	n/a	n/a	FORT	12	3	[0, 0, 0]	n/a	FR1	1	R1367D
887.882	0.001	866739	ENCODING_END	n/a	n/a	n/a	-999	3	[0, 0, 0]	n/a	FR1	1	R1367D
887.883	0.016	866740	START	n/a	n/a	n/a	-999	3	[-999, -999, -999]	n/a	FR1	1	R1367D
887.899	3.917	866756	PROB	3.917	n/a	n/a	-999	3	[1, 8, 9]	18	FR1	1	R1367D
891.816	1.817	870673	PROB	1.817	n/a	n/a	-999	3	[5, 4, 2]	11	FR1	1	R1367D
893.633	1.784	872490	PROB	1.784	n/a	n/a	-999	3	[6, 4, 1]	11	FR1	1	R1367D
895.417	3.934	874274	PROB	3.934	n/a	n/a	-999	3	[7, 7, 6]	19	FR1	1	R1367D
899.351	3.766	878208	PROB	3.766	n/a	n/a	-999	3	[3, 4, 2]	9	FR1	1	R1367D
903.117	3.252	881974	PROB	3.252	n/a	n/a	-999	3	[5, 6, 4]	15	FR1	1	R1367D
906.369	2.831	885225	PROB	2.831	n/a	n/a	-999	3	[9, 6, 2]	17	FR1	1	R1367D
909.2	0.019	888056	STOP	n/a	n/a	n/a	-999	3	[-999, -999, -999]	n/a	FR1	1	R1367D
909.219	1.149	888075	DISTRACT_END	n/a	n/a	n/a	-999	3	[0, 0, 0]	n/a	FR1	1	R1367D
910.368	1.035	889224	RETRIEVAL_ORIENT_START	n/a	n/a	n/a	-999	3	[0, 0, 0]	n/a	FR1	1	R1367D
911.403	0.0	890259	RETRIEVAL_ORIENT_END	n/a	n/a	n/a	-999	3	[0, 0, 0]	n/a	FR1	1	R1367D
911.403	0.294	890259	REC_START	n/a	n/a	n/a	-999	3	[0, 0, 0]	n/a	FR1	1	R1367D
911.697	3.94	890553	REC_WORD_VV	3.94	n/a	<>	-999	3	[0, 0, 0]	n/a	FR1	1	R1367D
915.637	1.794	894493	REC_WORD	1.794	n/a	EAT	-999	3	[0, 0, 0]	n/a	FR1	1	R1367D
917.431	1.0	896287	REC_WORD_VV	1.0	n/a	<>	-999	3	[0, 0, 0]	n/a	FR1	1	R1367D
918.431	1.0	897287	REC_WORD_VV	1.0	n/a	<>	-999	3	[0, 0, 0]	n/a	FR1	1	R1367D
919.431	1.0	898287	REC_WORD_VV	1.0	n/a	<>	-999	3	[0, 0, 0]	n/a	FR1	1	R1367D
920.431	1.0	899287	REC_WORD_VV	1.0	n/a	<>	-999	3	[0, 0, 0]	n/a	FR1	1	R1367D
921.431	1.0	900287	REC_WORD_VV	1.0	n/a	<>	-999	3	[0, 0, 0]	n/a	FR1	1	R1367D
922.431	1.0	901287	REC_WORD_VV	1.0	n/a	<>	-999	3	[0, 0, 0]	n/a	FR1	1	R1367D
923.431	1.14	902287	REC_WORD_VV	1.14	n/a	<>	-999	3	[0, 0, 0]	n/a	FR1	1	R1367D
924.571	4.435	903426	REC_WORD_VV	4.435	n/a	<>	-999	3	[0, 0, 0]	n/a	FR1	1	R1367D
929.006	0.425	907861	REC_WORD_VV	0.425	n/a	<>	-999	3	[0, 0, 0]	n/a	FR1	1	R1367D
929.431	0.855	908286	REC_WORD	0.855	n/a	CLOUD	3	3	[0, 0, 0]	n/a	FR1	1	R1367D
930.286	0.131	909141	REC_WORD_VV	0.131	n/a	<>	-999	3	[0, 0, 0]	n/a	FR1	1	R1367D
930.417	5.606	909272	REC_WORD	5.606	n/a	SKY	-999	3	[0, 0, 0]	n/a	FR1	1	R1367D
936.023	0.79	914878	REC_WORD	0.79	n/a	EAT	-999	3	[0, 0, 0]	n/a	FR1	1	R1367D
936.813	5.103	915668	REC_WORD	5.103	n/a	SOUP	-999	3	[0, 0, 0]	n/a	FR1	1	R1367D
941.916	0.0	920771	REC_END	n/a	n/a	n/a	-999	3	[0, 0, 0]	n/a	FR1	1	R1367D
941.916	0.0	920771	TRIAL_END	n/a	n/a	n/a	-999	3	[0, 0, 0]	n/a	FR1	1	R1367D
941.916	0.0	920771	TRIAL_START	n/a	n/a	n/a	-999	4	[0, 0, 0]	n/a	FR1	1	R1367D
941.916	0.0	920771	TRIAL	n/a	n/a	n/a	-999	4	[0, 0, 0]	n/a	FR1	1	R1367D
941.916	1.309	920771	WAITING_START	n/a	n/a	n/a	-999	4	[0, 0, 0]	n/a	FR1	1	R1367D
943.225	0.0	922079	WAITING_END	n/a	n/a	n/a	-999	4	[0, 0, 0]	n/a	FR1	1	R1367D
943.225	0.0	922079	COUNTDOWN_START	n/a	n/a	n/a	-999	4	[0, 0, 0]	n/a	FR1	1	R1367D
943.225	0.0	922079	COUNTDOWN_END	n/a	n/a	n/a	-999	4	[0, 0, 0]	n/a	FR1	1	R1367D
943.225	11.536	922079	ORIENT_START	n/a	n/a	n/a	-999	4	[0, 0, 0]	n/a	FR1	1	R1367D
954.761	0.0	933615	ORIENT_END	n/a	n/a	n/a	-999	4	[0, 0, 0]	n/a	FR1	1	R1367D
954.761	0.997	933615	ENCODING_START	n/a	n/a	n/a	-999	4	[0, 0, 0]	n/a	FR1	1	R1367D
955.758	1.637	934612	WORD	n/a	wordpools/wordpool_EN.txt	PARK	1	4	[0, 0, 0]	n/a	FR1	1	R1367D
957.395	0.883	936249	WORD_OFF	n/a	n/a	PARK	1	4	[0, 0, 0]	n/a	FR1	1	R1367D
958.278	1.634	937132	WORD	n/a	wordpools/wordpool_EN.txt	JUICE	2	4	[0, 0, 0]	n/a	FR1	1	R1367D
959.912	0.934	938766	WORD_OFF	n/a	n/a	JUICE	2	4	[0, 0, 0]	n/a	FR1	1	R1367D
960.846	1.633	939700	WORD	n/a	wordpools/wordpool_EN.txt	STEAM	3	4	[0, 0, 0]	n/a	FR1	1	R1367D
962.479	0.939	941332	WORD_OFF	n/a	n/a	STEAM	3	4	[0, 0, 0]	n/a	FR1	1	R1367D
963.418	1.627	942271	WORD	n/a	wordpools/wordpool_EN.txt	SEAT	4	4	[0, 0, 0]	n/a	FR1	1	R1367D
965.045	0.965	943898	WORD_OFF	n/a	n/a	SEAT	4	4	[0, 0, 0]	n/a	FR1	1	R1367D
966.01	1.636	944863	WORD	n/a	wordpools/wordpool_EN.txt	BOY	5	4	[0, 0, 0]	n/a	FR1	1	R1367D
967.646	0.864	946499	WORD_OFF	n/a	n/a	BOY	5	4	[0, 0, 0]	n/a	FR1	1	R1367D
968.51	1.636	947363	WORD	n/a	wordpools/wordpool_EN.txt	FLOOR	6	4	[0, 0, 0]	n/a	FR1	1	R1367D
970.146	1.136	948999	WORD_OFF	n/a	n/a	FLOOR	6	4	[0, 0, 0]	n/a	FR1	1	R1367D
971.282	1.632	950135	WORD	n/a	wordpools/wordpool_EN.txt	NET	7	4	[0, 0, 0]	n/a	FR1	1	R1367D
972.914	0.752	951767	WORD_OFF	n/a	n/a	NET	7	4	[0, 0, 0]	n/a	FR1	1	R1367D
973.666	1.632	952519	WORD	n/a	wordpools/wordpool_EN.txt	CHIN	8	4	[0, 0, 0]	n/a	FR1	1	R1367D
975.298	0.96	954151	WORD_OFF	n/a	n/a	CHIN	8	4	[0, 0, 0]	n/a	FR1	1	R1367D
976.258	1.624	955111	WORD	n/a	wordpools/wordpool_EN.txt	ROPE	9	4	[0, 0, 0]	n/a	FR1	1	R1367D
977.882	1.141	956735	WORD_OFF	n/a	n/a	ROPE	9	4	[0, 0, 0]	n/a	FR1	1	R1367D
979.023	1.609	957876	WORD	n/a	wordpools/wordpool_EN.txt	HOOF	10	4	[0, 0, 0]	n/a	FR1	1	R1367D
980.632	0.756	959485	WORD_OFF	n/a	n/a	HOOF	10	4	[0, 0, 0]	n/a	FR1	1	R1367D
981.388	1.627	960241	WORD	n/a	wordpools/wordpool_EN.txt	MOUSE	11	4	[0, 0, 0]	n/a	FR1	1	R1367D
983.015	0.894	961867	WORD_OFF	n/a	n/a	MOUSE	11	4	[0, 0, 0]	n/a	FR1	1	R1367D
983.909	1.624	962761	WORD	n/a	wordpools/wordpool_EN.txt	PEAR	12	4	[0, 0, 0]	n/a	FR1	1	R1367D
985.533	0.0	964385	ENCODING_END	n/a	n/a	n/a	-999	4	[0, 0, 0]	n/a	FR1	1	R1367D
985.533	0.0	964385	WORD_OFF	n/a	n/a	PEAR	12	4	[0, 0, 0]	n/a	FR1	1	R1367D
985.533	0.001	964385	DISTRACT_START	n/a	n/a	n/a	-999	4	[0, 0, 0]	n/a	FR1	1	R1367D
985.534	0.016	964386	START	n/a	n/a	n/a	-999	4	[-999, -999, -999]	n/a	FR1	1	R1367D
985.55	3.549	964402	PROB	3.549	n/a	n/a	-999	4	[5, 5, 6]	16	FR1	1	R1367D
989.099	2.185	967951	PROB	2.185	n/a	n/a	-999	4	[2, 4, 5]	11	FR1	1	R1367D
991.284	2.934	970136	PROB	2.934	n/a	n/a	-999	4	[8, 1, 8]	17	FR1	1	R1367D
994.218	2.701	973070	PROB	2.701	n/a	n/a	-999	4	[7, 2, 1]	10	FR1	1	R1367D
996.919	3.55	975771	PROB	3.55	n/a	n/a	-999	4	[5, 8, 6]	19	FR1	1	R1367D
1000.469	2.167	979321	PROB	2.167	n/a	n/a	-999	4	[3, 7, 2]	12	FR1	1	R1367D
1002.636	2.634	981487	PROB	2.634	n/a	n/a	-999	4	[1, 4, 9]	14	FR1	1	R1367D
1005.27	1.9	984121	PROB	1.9	n/a	n/a	-999	4	[1, 3, 7]	11	FR1	1	R1367D
1007.17	0.017	986021	STOP	n/a	n/a	n/a	-999	4	[-999, -999, -999]	n/a	FR1	1	R1367D
1007.187	1.164	986038	DISTRACT_END	n/a	n/a	n/a	-999	4	[0, 0, 0]	n/a	FR1	1	R1367D
1008.351	1.02	987202	RETRIEVAL_ORIENT_START	n/a	n/a	n/a	-999	4	[0, 0, 0]	n/a	FR1	1	R1367D
1009.371	0.0	988222	RETRIEVAL_ORIENT_END	n/a	n/a	n/a	-999	4	[0, 0, 0]	n/a	FR1	1	R1367D
1009.371	1.497	988222	REC_START	n/a	n/a	n/a	-999	4	[0, 0, 0]	n/a	FR1	1	R1367D
1010.868	1.262	989719	REC_WORD	1.262	n/a	PARK	1	4	[0, 0, 0]	n/a	FR1	1	R1367D
1012.13	1.299	990981	REC_WORD	1.299	n/a	JUICE	2	4	[0, 0, 0]	n/a	FR1	1	R1367D
1013.429	11.248	992280	REC_WORD	11.248	n/a	BOY	5	4	[0, 0, 0]	n/a	FR1	1	R1367D
1024.677	4.359	1003527	REC_WORD	4.359	n/a	LAKE	-999	4	[0, 0, 0]	n/a	FR1	1	R1367D
1029.036	3.809	1007886	REC_WORD	3.809	n/a	BEING	-999	4	[0, 0, 0]	n/a	FR1	1	R1367D
1032.845	7.041	1011695	REC_WORD	7.041	n/a	TREE	-999	4	[0, 0, 0]	n/a	FR1	1	R1367D
1039.886	0.0	1018735	REC_END	n/a	n/a	n/a	-999	4	[0, 0, 0]	n/a	FR1	1	R1367D
1039.886	0.0	1018735	TRIAL_END	n/a	n/a	n/a	-999	4	[0, 0, 0]	n/a	FR1	1	R1367D
1039.886	0.0	1018735	TRIAL_START	n/a	n/a	n/a	-999	5	[0, 0, 0]	n/a	FR1	1	R1367D
1039.886	0.0	1018735	TRIAL	n/a	n/a	n/a	-999	5	[0, 0, 0]	n/a	FR1	1	R1367D
1039.886	1.791	1018735	WAITING_START	n/a	n/a	n/a	-999	5	[0, 0, 0]	n/a	FR1	1	R1367D
1041.677	0.0	1020526	ORIENT_START	n/a	n/a	n/a	-999	5	[0, 0, 0]	n/a	FR1	1	R1367D
1041.677	0.0	1020526	COUNTDOWN_END	n/a	n/a	n/a	-999	5	[0, 0, 0]	n/a	FR1	1	R1367D
1041.677	0.0	1020526	WAITING_END	n/a	n/a	n/a	-999	5	[0, 0, 0]	n/a	FR1	1	R1367D
1041.677	11.635	1020526	COUNTDOWN_START	n/a	n/a	n/a	-999	5	[0, 0, 0]	n/a	FR1	1	R1367D
1053.312	0.0	1032161	ORIENT_END	n/a	n/a	n/a	-999	5	[0, 0, 0]	n/a	FR1	1	R1367D
1053.312	0.904	1032161	ENCODING_START	n/a	n/a	n/a	-999	5	[0, 0, 0]	n/a	FR1	1	R1367D
1054.216	1.63	1033065	WORD	n/a	wordpools/wordpool_EN.txt	BALL	1	5	[0, 0, 0]	n/a	FR1	1	R1367D
1055.846	0.801	1034695	WORD_OFF	n/a	n/a	BALL	1	5	[0, 0, 0]	n/a	FR1	1	R1367D
1056.647	1.633	1035496	WORD	n/a	wordpools/wordpool_EN.txt	CLOCK	2	5	[0, 0, 0]	n/a	FR1	1	R1367D
1058.28	0.974	1037129	WORD_OFF	n/a	n/a	CLOCK	2	5	[0, 0, 0]	n/a	FR1	1	R1367D
1059.254	1.626	1038102	WORD	n/a	wordpools/wordpool_EN.txt	MOTH	3	5	[0, 0, 0]	n/a	FR1	1	R1367D
1060.88	1.011	1039728	WORD_OFF	n/a	n/a	MOTH	3	5	[0, 0, 0]	n/a	FR1	1	R1367D
1061.891	1.623	1040739	WORD	n/a	wordpools/wordpool_EN.txt	SPONGE	4	5	[0, 0, 0]	n/a	FR1	1	R1367D
1063.514	1.037	1042362	WORD_OFF	n/a	n/a	SPONGE	4	5	[0, 0, 0]	n/a	FR1	1	R1367D
1064.551	1.63	1043399	WORD	n/a	wordpools/wordpool_EN.txt	DART	5	5	[0, 0, 0]	n/a	FR1	1	R1367D
1066.181	0.848	1045029	WORD_OFF	n/a	n/a	DART	5	5	[0, 0, 0]	n/a	FR1	1	R1367D
1067.029	1.619	1045877	WORD	n/a	wordpools/wordpool_EN.txt	SKI	6	5	[0, 0, 0]	n/a	FR1	1	R1367D
1068.648	0.823	1047496	WORD_OFF	n/a	n/a	SKI	6	5	[0, 0, 0]	n/a	FR1	1	R1367D
1069.471	1.627	1048319	WORD	n/a	wordpools/wordpool_EN.txt	SWORD	7	5	[0, 0, 0]	n/a	FR1	1	R1367D
1071.098	1.019	1049946	WORD_OFF	n/a	n/a	SWORD	7	5	[0, 0, 0]	n/a	FR1	1	R1367D
1072.117	1.615	1050965	WORD	n/a	wordpools/wordpool_EN.txt	WOOD	8	5	[0, 0, 0]	n/a	FR1	1	R1367D
1073.732	1.146	1052580	WORD_OFF	n/a	n/a	WOOD	8	5	[0, 0, 0]	n/a	FR1	1	R1367D
1074.878	1.622	1053726	WORD	n/a	wordpools/wordpool_EN.txt	DIME	9	5	[0, 0, 0]	n/a	FR1	1	R1367D
1076.5	1.004	1055348	WORD_OFF	n/a	n/a	DIME	9	5	[0, 0, 0]	n/a	FR1	1	R1367D
1077.504	1.628	1056352	WORD	n/a	wordpools/wordpool_EN.txt	WORLD	10	5	[0, 0, 0]	n/a	FR1	1	R1367D
1079.132	1.0	1057979	WORD_OFF	n/a	n/a	WORLD	10	5	[0, 0, 0]	n/a	FR1	1	R1367D
1080.132	1.635	1058979	WORD	n/a	wordpools/wordpool_EN.txt	PLANT	11	5	[0, 0, 0]	n/a	FR1	1	R1367D
1081.767	0.959	1060614	WORD_OFF	n/a	n/a	PLANT	11	5	[0, 0, 0]	n/a	FR1	1	R1367D
1082.726	1.625	1061573	WORD	n/a	wordpools/wordpool_EN.txt	BUSH	12	5	[0, 0, 0]	n/a	FR1	1	R1367D
1084.351	0.0	1063198	WORD_OFF	n/a	n/a	BUSH	12	5	[0, 0, 0]	n/a	FR1	1	R1367D
1084.351	0.0	1063198	ENCODING_END	n/a	n/a	n/a	-999	5	[0, 0, 0]	n/a	FR1	1	R1367D
1084.351	0.001	1063198	DISTRACT_START	n/a	n/a	n/a	-999	5	[0, 0, 0]	n/a	FR1	1	R1367D
1084.352	0.016	1063199	START	n/a	n/a	n/a	-999	5	[-999, -999, -999]	n/a	FR1	1	R1367D
1084.368	2.749	1063215	PROB	2.749	n/a	n/a	-999	5	[5, 5, 5]	15	FR1	1	R1367D
1087.117	4.519	1065964	PROB	4.519	n/a	n/a	-999	5	[9, 4, 5]	18	FR1	1	R1367D
1091.636	3.067	1070483	PROB	3.067	n/a	n/a	-999	5	[6, 8, 3]	17	FR1	1	R1367D
1094.703	2.867	1073550	PROB	2.867	n/a	n/a	-999	5	[5, 4, 3]	12	FR1	1	R1367D
1097.57	5.801	1076416	PROB	5.801	n/a	n/a	-999	5	[7, 5, 6]	17	FR1	1	R1367D
1103.371	4.582	1082217	PROB	4.582	n/a	n/a	-999	5	[4, 8, 7]	19	FR1	1	R1367D
1107.953	0.019	1086799	STOP	n/a	n/a	n/a	-999	5	[-999, -999, -999]	n/a	FR1	1	R1367D
1107.972	1.153	1086818	DISTRACT_END	n/a	n/a	n/a	-999	5	[0, 0, 0]	n/a	FR1	1	R1367D
1109.125	1.031	1087971	RETRIEVAL_ORIENT_START	n/a	n/a	n/a	-999	5	[0, 0, 0]	n/a	FR1	1	R1367D
1110.156	0.0	1089002	RETRIEVAL_ORIENT_END	n/a	n/a	n/a	-999	5	[0, 0, 0]	n/a	FR1	1	R1367D
1110.156	3.579	1089002	REC_START	n/a	n/a	n/a	-999	5	[0, 0, 0]	n/a	FR1	1	R1367D
1113.735	7.708	1092581	REC_WORD_VV	7.708	n/a	<>	-999	5	[0, 0, 0]	n/a	FR1	1	R1367D
1121.443	1.0	1100288	REC_WORD_VV	1.0	n/a	<>	-999	5	[0, 0, 0]	n/a	FR1	1	R1367D
1122.443	1.0	1101288	REC_WORD_VV	1.0	n/a	<>	-999	5	[0, 0, 0]	n/a	FR1	1	R1367D
1123.443	3.088	1102288	REC_WORD_VV	3.088	n/a	<>	-999	5	[0, 0, 0]	n/a	FR1	1	R1367D
1126.531	0.516	1105376	REC_WORD	0.516	n/a	SPONGE	4	5	[0, 0, 0]	n/a	FR1	1	R1367D
1127.047	3.208	1105892	REC_WORD_VV	3.208	n/a	<>	-999	5	[0, 0, 0]	n/a	FR1	1	R1367D
1130.255	0.414	1109100	REC_WORD	0.414	n/a	WOOD	8	5	[0, 0, 0]	n/a	FR1	1	R1367D
1130.669	0.11	1109514	REC_WORD_VV	0.11	n/a	<>	-999	5	[0, 0, 0]	n/a	FR1	1	R1367D
1130.779	1.061	1109624	REC_WORD	1.061	n/a	SWORD	7	5	[0, 0, 0]	n/a	FR1	1	R1367D
1131.84	8.828	1110685	REC_WORD_VV	8.828	n/a	<>	-999	5	[0, 0, 0]	n/a	FR1	1	R1367D
1140.668	0.0	1119512	REC_END	n/a	n/a	n/a	-999	5	[0, 0, 0]	n/a	FR1	1	R1367D
1140.668	0.0	1119512	TRIAL_END	n/a	n/a	n/a	-999	5	[0, 0, 0]	n/a	FR1	1	R1367D
1140.668	0.0	1119512	TRIAL_START	n/a	n/a	n/a	-999	6	[0, 0, 0]	n/a	FR1	1	R1367D
1140.668	0.0	1119512	WAITING_START	n/a	n/a	n/a	-999	6	[0, 0, 0]	n/a	FR1	1	R1367D
1140.668	1.66	1119512	TRIAL	n/a	n/a	n/a	-999	6	[0, 0, 0]	n/a	FR1	1	R1367D
1142.328	0.0	1121172	WAITING_END	n/a	n/a	n/a	-999	6	[0, 0, 0]	n/a	FR1	1	R1367D
1142.328	0.0	1121172	COUNTDOWN_START	n/a	n/a	n/a	-999	6	[0, 0, 0]	n/a	FR1	1	R1367D
1142.328	0.0	1121172	COUNTDOWN_END	n/a	n/a	n/a	-999	6	[0, 0, 0]	n/a	FR1	1	R1367D
1142.328	11.486	1121172	ORIENT_START	n/a	n/a	n/a	-999	6	[0, 0, 0]	n/a	FR1	1	R1367D
1153.814	0.0	1132658	ENCODING_START	n/a	n/a	n/a	-999	6	[0, 0, 0]	n/a	FR1	1	R1367D
1153.814	1.1	1132658	ORIENT_END	n/a	n/a	n/a	-999	6	[0, 0, 0]	n/a	FR1	1	R1367D
1154.914	1.634	1133757	WORD	n/a	wordpools/wordpool_EN.txt	MAT	1	6	[0, 0, 0]	n/a	FR1	1	R1367D
1156.548	0.816	1135391	WORD_OFF	n/a	n/a	MAT	1	6	[0, 0, 0]	n/a	FR1	1	R1367D
1157.364	1.634	1136207	WORD	n/a	wordpools/wordpool_EN.txt	COIN	2	6	[0, 0, 0]	n/a	FR1	1	R1367D
1158.998	1.093	1137841	WORD_OFF	n/a	n/a	COIN	2	6	[0, 0, 0]	n/a	FR1	1	R1367D
1160.091	1.607	1138934	WORD	n/a	wordpools/wordpool_EN.txt	BOOT	3	6	[0, 0, 0]	n/a	FR1	1	R1367D
1161.698	1.003	1140541	WORD_OFF	n/a	n/a	BOOT	3	6	[0, 0, 0]	n/a	FR1	1	R1367D
1162.701	1.631	1141544	WORD	n/a	wordpools/wordpool_EN.txt	WEB	4	6	[0, 0, 0]	n/a	FR1	1	R1367D
1164.332	0.986	1143175	WORD_OFF	n/a	n/a	WEB	4	6	[0, 0, 0]	n/a	FR1	1	R1367D
1165.318	1.631	1144161	WORD	n/a	wordpools/wordpool_EN.txt	SHIP	5	6	[0, 0, 0]	n/a	FR1	1	R1367D
1166.949	0.757	1145792	WORD_OFF	n/a	n/a	SHIP	5	6	[0, 0, 0]	n/a	FR1	1	R1367D
1167.706	1.627	1146549	WORD	n/a	wordpools/wordpool_EN.txt	WALL	6	6	[0, 0, 0]	n/a	FR1	1	R1367D
1169.333	0.986	1148176	WORD_OFF	n/a	n/a	WALL	6	6	[0, 0, 0]	n/a	FR1	1	R1367D
1170.319	1.631	1149162	WORD	n/a	wordpools/wordpool_EN.txt	BOMB	7	6	[0, 0, 0]	n/a	FR1	1	R1367D
1171.95	0.798	1150793	WORD_OFF	n/a	n/a	BOMB	7	6	[0, 0, 0]	n/a	FR1	1	R1367D
1172.748	1.636	1151591	WORD	n/a	wordpools/wordpool_EN.txt	LAWN	8	6	[0, 0, 0]	n/a	FR1	1	R1367D
1174.384	0.892	1153226	WORD_OFF	n/a	n/a	LAWN	8	6	[0, 0, 0]	n/a	FR1	1	R1367D
1175.276	1.625	1154118	WORD	n/a	wordpools/wordpool_EN.txt	SWAMP	9	6	[0, 0, 0]	n/a	FR1	1	R1367D
1176.901	1.097	1155743	WORD_OFF	n/a	n/a	SWAMP	9	6	[0, 0, 0]	n/a	FR1	1	R1367D
1177.998	1.62	1156840	WORD	n/a	wordpools/wordpool_EN.txt	SMILE	10	6	[0, 0, 0]	n/a	FR1	1	R1367D
1179.618	0.817	1158460	WORD_OFF	n/a	n/a	SMILE	10	6	[0, 0, 0]	n/a	FR1	1	R1367D
1180.435	1.633	1159277	WORD	n/a	wordpools/wordpool_EN.txt	FLUTE	11	6	[0, 0, 0]	n/a	FR1	1	R1367D
1182.068	1.047	1160910	WORD_OFF	n/a	n/a	FLUTE	11	6	[0, 0, 0]	n/a	FR1	1	R1367D
1183.115	1.638	1161957	WORD	n/a	wordpools/wordpool_EN.txt	CROWN	12	6	[0, 0, 0]	n/a	FR1	1	R1367D
1184.753	0.0	1163595	DISTRACT_START	n/a	n/a	n/a	-999	6	[0, 0, 0]	n/a	FR1	1	R1367D
1184.753	0.0	1163595	ENCODING_END	n/a	n/a	n/a	-999	6	[0, 0, 0]	n/a	FR1	1	R1367D
1184.753	0.001	1163595	WORD_OFF	n/a	n/a	CROWN	12	6	[0, 0, 0]	n/a	FR1	1	R1367D
1184.754	0.015	1163596	START	n/a	n/a	n/a	-999	6	[-999, -999, -999]	n/a	FR1	1	R1367D
1184.769	5.085	1163611	PROB	5.085	n/a	n/a	-999	6	[1, 1, 6]	8	FR1	1	R1367D
1189.854	6.534	1168696	PROB	6.534	n/a	n/a	-999	6	[6, 7, 9]	22	FR1	1	R1367D
1196.388	2.901	1175229	PROB	2.901	n/a	n/a	-999	6	[7, 7, 3]	17	FR1	1	R1367D
1199.289	3.484	1178130	PROB	3.484	n/a	n/a	-999	6	[6, 3, 5]	14	FR1	1	R1367D
1202.773	4.097	1181614	PROB	4.097	n/a	n/a	-999	6	[7, 5, 4]	16	FR1	1	R1367D
1206.87	0.02	1185711	STOP	n/a	n/a	n/a	-999	6	[-999, -999, -999]	n/a	FR1	1	R1367D
1206.89	1.195	1185731	DISTRACT_END	n/a	n/a	n/a	-999	6	[0, 0, 0]	n/a	FR1	1	R1367D
1208.085	1.021	1186926	RETRIEVAL_ORIENT_START	n/a	n/a	n/a	-999	6	[0, 0, 0]	n/a	FR1	1	R1367D
1209.106	0.0	1187947	RETRIEVAL_ORIENT_END	n/a	n/a	n/a	-999	6	[0, 0, 0]	n/a	FR1	1	R1367D
1209.106	0.759	1187947	REC_START	n/a	n/a	n/a	-999	6	[0, 0, 0]	n/a	FR1	1	R1367D
1209.865	0.529	1188706	REC_WORD_VV	0.529	n/a	<>	-999	6	[0, 0, 0]	n/a	FR1	1	R1367D
1210.394	3.244	1189235	REC_WORD	3.244	n/a	MAT	1	6	[0, 0, 0]	n/a	FR1	1	R1367D
1213.638	3.533	1192478	REC_WORD	3.533	n/a	BOOT	3	6	[0, 0, 0]	n/a	FR1	1	R1367D
1217.171	13.935	1196011	REC_WORD	13.935	n/a	JOINT	-999	6	[0, 0, 0]	n/a	FR1	1	R1367D
1231.106	1.0	1209946	REC_WORD_VV	1.0	n/a	<>	-999	6	[0, 0, 0]	n/a	FR1	1	R1367D
1232.106	3.735	1210945	REC_WORD_VV	3.735	n/a	<>	-999	6	[0, 0, 0]	n/a	FR1	1	R1367D
1235.841	0.561	1214680	REC_WORD_VV	0.561	n/a	<>	-999	6	[0, 0, 0]	n/a	FR1	1	R1367D
1236.402	1.27	1215241	REC_WORD	1.27	n/a	SPONGE	-999	6	[0, 0, 0]	n/a	FR1	1	R1367D
1237.672	1.947	1216511	REC_WORD	1.947	n/a	NUN	-999	6	[0, 0, 0]	n/a	FR1	1	R1367D
1239.619	0.0	1218458	WAITING_START	n/a	n/a	n/a	-999	7	[0, 0, 0]	n/a	FR1	1	R1367D
1239.619	0.0	1218458	TRIAL	n/a	n/a	n/a	-999	7	[0, 0, 0]	n/a	FR1	1	R1367D
1239.619	0.0	1218458	TRIAL_END	n/a	n/a	n/a	-999	6	[0, 0, 0]	n/a	FR1	1	R1367D
1239.619	0.0	1218458	TRIAL_START	n/a	n/a	n/a	-999	7	[0, 0, 0]	n/a	FR1	1	R1367D
1239.619	1.594	1218458	REC_END	n/a	n/a	n/a	-999	6	[0, 0, 0]	n/a	FR1	1	R1367D
1241.213	0.0	1220052	ORIENT_START	n/a	n/a	n/a	-999	7	[0, 0, 0]	n/a	FR1	1	R1367D
1241.213	0.0	1220052	WAITING_END	n/a	n/a	n/a	-999	7	[0, 0, 0]	n/a	FR1	1	R1367D
1241.213	0.0	1220052	COUNTDOWN_START	n/a	n/a	n/a	-999	7	[0, 0, 0]	n/a	FR1	1	R1367D
1241.213	11.535	1220052	COUNTDOWN_END	n/a	n/a	n/a	-999	7	[0, 0, 0]	n/a	FR1	1	R1367D
1252.748	0.0	1231586	ORIENT_END	n/a	n/a	n/a	-999	7	[0, 0, 0]	n/a	FR1	1	R1367D
1252.748	0.822	1231586	ENCODING_START	n/a	n/a	n/a	-999	7	[0, 0, 0]	n/a	FR1	1	R1367D
1253.57	1.629	1232408	WORD	n/a	wordpools/wordpool_EN.txt	SQUARE	1	7	[0, 0, 0]	n/a	FR1	1	R1367D
1255.199	0.8	1234037	WORD_OFF	n/a	n/a	SQUARE	1	7	[0, 0, 0]	n/a	FR1	1	R1367D
1255.999	1.617	1234837	WORD	n/a	wordpools/wordpool_EN.txt	GOLD	2	7	[0, 0, 0]	n/a	FR1	1	R1367D
1257.616	0.835	1236454	WORD_OFF	n/a	n/a	GOLD	2	7	[0, 0, 0]	n/a	FR1	1	R1367D
1258.451	1.631	1237289	WORD	n/a	wordpools/wordpool_EN.txt	PET	3	7	[0, 0, 0]	n/a	FR1	1	R1367D
1260.082	0.894	1238920	WORD_OFF	n/a	n/a	PET	3	7	[0, 0, 0]	n/a	FR1	1	R1367D
1260.976	1.624	1239814	WORD	n/a	wordpools/wordpool_EN.txt	LOCK	4	7	[0, 0, 0]	n/a	FR1	1	R1367D
1262.6	1.127	1241438	WORD_OFF	n/a	n/a	LOCK	4	7	[0, 0, 0]	n/a	FR1	1	R1367D
1263.727	1.624	1242565	WORD	n/a	wordpools/wordpool_EN.txt	RUG	5	7	[0, 0, 0]	n/a	FR1	1	R1367D
1265.351	0.861	1244189	WORD_OFF	n/a	n/a	RUG	5	7	[0, 0, 0]	n/a	FR1	1	R1367D
1266.212	1.639	1245050	WORD	n/a	wordpools/wordpool_EN.txt	COUCH	6	7	[0, 0, 0]	n/a	FR1	1	R1367D
1267.851	1.061	1246689	WORD_OFF	n/a	n/a	COUCH	6	7	[0, 0, 0]	n/a	FR1	1	R1367D
1268.912	1.623	1247750	WORD	n/a	wordpools/wordpool_EN.txt	SPARK	7	7	[0, 0, 0]	n/a	FR1	1	R1367D
1270.535	0.772	1249372	WORD_OFF	n/a	n/a	SPARK	7	7	[0, 0, 0]	n/a	FR1	1	R1367D
1271.307	1.628	1250144	WORD	n/a	wordpools/wordpool_EN.txt	PIG	8	7	[0, 0, 0]	n/a	FR1	1	R1367D
1272.935	1.067	1251772	WORD_OFF	n/a	n/a	PIG	8	7	[0, 0, 0]	n/a	FR1	1	R1367D
1274.002	1.634	1252839	WORD	n/a	wordpools/wordpool_EN.txt	GATE	9	7	[0, 0, 0]	n/a	FR1	1	R1367D
1275.636	1.135	1254473	WORD_OFF	n/a	n/a	GATE	9	7	[0, 0, 0]	n/a	FR1	1	R1367D
1276.771	1.632	1255608	WORD	n/a	wordpools/wordpool_EN.txt	OAR	10	7	[0, 0, 0]	n/a	FR1	1	R1367D
1278.403	0.819	1257240	WORD_OFF	n/a	n/a	OAR	10	7	[0, 0, 0]	n/a	FR1	1	R1367D
1279.222	1.632	1258059	WORD	n/a	wordpools/wordpool_EN.txt	BEAR	11	7	[0, 0, 0]	n/a	FR1	1	R1367D
1280.854	0.752	1259691	WORD_OFF	n/a	n/a	BEAR	11	7	[0, 0, 0]	n/a	FR1	1	R1367D
1281.606	1.631	1260443	WORD	n/a	wordpools/wordpool_EN.txt	TREE	12	7	[0, 0, 0]	n/a	FR1	1	R1367D
1283.237	0.0	1262074	WORD_OFF	n/a	n/a	TREE	12	7	[0, 0, 0]	n/a	FR1	1	R1367D
1283.237	0.0	1262074	ENCODING_END	n/a	n/a	n/a	-999	7	[0, 0, 0]	n/a	FR1	1	R1367D
1283.237	0.002	1262074	DISTRACT_START	n/a	n/a	n/a	-999	7	[0, 0, 0]	n/a	FR1	1	R1367D
1283.239	0.015	1262076	START	n/a	n/a	n/a	-999	7	[-999, -999, -999]	n/a	FR1	1	R1367D
1283.254	5.618	1262091	PROB	5.618	n/a	n/a	-999	7	[3, 8, 9]	21	FR1	1	R1367D
1288.872	2.834	1267709	PROB	2.834	n/a	n/a	-999	7	[1, 9, 3]	13	FR1	1	R1367D
1291.706	4.467	1270542	PROB	4.467	n/a	n/a	-999	7	[2, 4, 1]	7	FR1	1	R1367D
1296.173	3.384	1275009	PROB	3.384	n/a	n/a	-999	7	[9, 5, 4]	18	FR1	1	R1367D
1299.557	2.717	1278393	PROB	2.717	n/a	n/a	-999	7	[1, 2, 3]	6	FR1	1	R1367D
1302.274	2.956	1281110	PROB	2.956	n/a	n/a	-999	7	[4, 9, 1]	14	FR1	1	R1367D
1305.23	0.011	1284066	STOP	n/a	n/a	n/a	-999	7	[-999, -999, -999]	n/a	FR1	1	R1367D
1305.241	1.298	1284077	DISTRACT_END	n/a	n/a	n/a	-999	7	[0, 0, 0]	n/a	FR1	1	R1367D
1306.539	1.019	1285375	RETRIEVAL_ORIENT_START	n/a	n/a	n/a	-999	7	[0, 0, 0]	n/a	FR1	1	R1367D
1307.558	0.0	1286394	REC_START	n/a	n/a	n/a	-999	7	[0, 0, 0]	n/a	FR1	1	R1367D
1307.558	3.208	1286394	RETRIEVAL_ORIENT_END	n/a	n/a	n/a	-999	7	[0, 0, 0]	n/a	FR1	1	R1367D
1310.766	6.918	1289601	REC_WORD	6.918	n/a	OAR	10	7	[0, 0, 0]	n/a	FR1	1	R1367D
1317.684	0.805	1296519	REC_WORD_VV	0.805	n/a	<>	-999	7	[0, 0, 0]	n/a	FR1	1	R1367D
1318.489	0.795	1297324	REC_WORD	0.795	n/a	SOAR	-999	7	[0, 0, 0]	n/a	FR1	1	R1367D
1319.284	2.094	1298119	REC_WORD_VV	2.094	n/a	<>	-999	7	[0, 0, 0]	n/a	FR1	1	R1367D
1321.378	6.309	1300213	REC_WORD	6.309	n/a	MAT	-999	7	[0, 0, 0]	n/a	FR1	1	R1367D
1327.687	4.714	1306521	REC_WORD	4.714	n/a	LAKE	-999	7	[0, 0, 0]	n/a	FR1	1	R1367D
1332.401	5.67	1311235	REC_WORD	5.67	n/a	COUCH	6	7	[0, 0, 0]	n/a	FR1	1	R1367D
1338.071	0.0	1316905	REC_END	n/a	n/a	n/a	-999	7	[0, 0, 0]	n/a	FR1	1	R1367D
1338.071	0.0	1316905	TRIAL_END	n/a	n/a	n/a	-999	7	[0, 0, 0]	n/a	FR1	1	R1367D
1338.071	0.0	1316905	TRIAL_START	n/a	n/a	n/a	-999	8	[0, 0, 0]	n/a	FR1	1	R1367D
1338.071	0.0	1316905	TRIAL	n/a	n/a	n/a	-999	8	[0, 0, 0]	n/a	FR1	1	R1367D
1338.071	1.427	1316905	WAITING_START	n/a	n/a	n/a	-999	8	[0, 0, 0]	n/a	FR1	1	R1367D
1339.498	0.0	1318332	COUNTDOWN_START	n/a	n/a	n/a	-999	8	[0, 0, 0]	n/a	FR1	1	R1367D
1339.498	0.0	1318332	COUNTDOWN_END	n/a	n/a	n/a	-999	8	[0, 0, 0]	n/a	FR1	1	R1367D
1339.498	0.0	1318332	ORIENT_START	n/a	n/a	n/a	-999	8	[0, 0, 0]	n/a	FR1	1	R1367D
1339.498	11.517	1318332	WAITING_END	n/a	n/a	n/a	-999	8	[0, 0, 0]	n/a	FR1	1	R1367D
1351.015	0.0	1329848	ORIENT_END	n/a	n/a	n/a	-999	8	[0, 0, 0]	n/a	FR1	1	R1367D
1351.015	1.12	1329848	ENCODING_START	n/a	n/a	n/a	-999	8	[0, 0, 0]	n/a	FR1	1	R1367D
1352.135	1.632	1330968	WORD	n/a	wordpools/wordpool_EN.txt	FLAME	1	8	[0, 0, 0]	n/a	FR1	1	R1367D
1353.767	0.811	1332600	WORD_OFF	n/a	n/a	FLAME	1	8	[0, 0, 0]	n/a	FR1	1	R1367D
1354.578	1.623	1333411	WORD	n/a	wordpools/wordpool_EN.txt	FISH	2	8	[0, 0, 0]	n/a	FR1	1	R1367D
1356.201	0.815	1335034	WORD_OFF	n/a	n/a	FISH	2	8	[0, 0, 0]	n/a	FR1	1	R1367D
1357.016	1.635	1335849	WORD	n/a	wordpools/wordpool_EN.txt	CAT	3	8	[0, 0, 0]	n/a	FR1	1	R1367D
1358.651	0.931	1337484	WORD_OFF	n/a	n/a	CAT	3	8	[0, 0, 0]	n/a	FR1	1	R1367D
1359.582	1.636	1338415	WORD	n/a	wordpools/wordpool_EN.txt	SHRIMP	4	8	[0, 0, 0]	n/a	FR1	1	R1367D
1361.218	1.035	1340051	WORD_OFF	n/a	n/a	SHRIMP	4	8	[0, 0, 0]	n/a	FR1	1	R1367D
1362.253	1.632	1341086	WORD	n/a	wordpools/wordpool_EN.txt	BRIDGE	5	8	[0, 0, 0]	n/a	FR1	1	R1367D
1363.885	1.132	1342718	WORD_OFF	n/a	n/a	BRIDGE	5	8	[0, 0, 0]	n/a	FR1	1	R1367D
1365.017	1.635	1343850	WORD	n/a	wordpools/wordpool_EN.txt	HEN	6	8	[0, 0, 0]	n/a	FR1	1	R1367D
1366.652	0.965	1345484	WORD_OFF	n/a	n/a	HEN	6	8	[0, 0, 0]	n/a	FR1	1	R1367D
1367.617	1.636	1346449	WORD	n/a	wordpools/wordpool_EN.txt	BAG	7	8	[0, 0, 0]	n/a	FR1	1	R1367D
1369.253	0.799	1348085	WORD_OFF	n/a	n/a	BAG	7	8	[0, 0, 0]	n/a	FR1	1	R1367D
1370.052	1.635	1348884	WORD	n/a	wordpools/wordpool_EN.txt	INK	8	8	[0, 0, 0]	n/a	FR1	1	R1367D
1371.687	1.003	1350519	WORD_OFF	n/a	n/a	INK	8	8	[0, 0, 0]	n/a	FR1	1	R1367D
1372.69	1.631	1351522	WORD	n/a	wordpools/wordpool_EN.txt	FILM	9	8	[0, 0, 0]	n/a	FR1	1	R1367D
1374.321	0.781	1353153	WORD_OFF	n/a	n/a	FILM	9	8	[0, 0, 0]	n/a	FR1	1	R1367D
1375.102	1.636	1353934	WORD	n/a	wordpools/wordpool_EN.txt	ELF	10	8	[0, 0, 0]	n/a	FR1	1	R1367D
1376.738	0.949	1355570	WORD_OFF	n/a	n/a	ELF	10	8	[0, 0, 0]	n/a	FR1	1	R1367D
1377.687	1.634	1356519	WORD	n/a	wordpools/wordpool_EN.txt	WING	11	8	[0, 0, 0]	n/a	FR1	1	R1367D
1379.321	1.119	1358153	WORD_OFF	n/a	n/a	WING	11	8	[0, 0, 0]	n/a	FR1	1	R1367D
1380.44	1.631	1359272	WORD	n/a	wordpools/wordpool_EN.txt	ROOM	12	8	[0, 0, 0]	n/a	FR1	1	R1367D
1382.071	0.0	1360903	ENCODING_END	n/a	n/a	n/a	-999	8	[0, 0, 0]	n/a	FR1	1	R1367D
1382.071	0.0	1360903	DISTRACT_START	n/a	n/a	n/a	-999	8	[0, 0, 0]	n/a	FR1	1	R1367D
1382.071	0.001	1360903	WORD_OFF	n/a	n/a	ROOM	12	8	[0, 0, 0]	n/a	FR1	1	R1367D
1382.072	0.016	1360904	START	n/a	n/a	n/a	-999	8	[-999, -999, -999]	n/a	FR1	1	R1367D
1382.088	3.451	1360920	PROB	3.451	n/a	n/a	-999	8	[1, 1, 2]	4	FR1	1	R1367D
1385.539	2.917	1364370	PROB	2.917	n/a	n/a	-999	8	[5, 7, 8]	20	FR1	1	R1367D
1388.456	2.734	1367287	PROB	2.734	n/a	n/a	-999	8	[3, 5, 8]	16	FR1	1	R1367D
1391.19	3.351	1370021	PROB	3.351	n/a	n/a	-999	8	[1, 9, 8]	18	FR1	1	R1367D
1394.541	2.8	1373372	PROB	2.8	n/a	n/a	-999	8	[7, 6, 1]	14	FR1	1	R1367D
1397.341	2.767	1376172	PROB	2.767	n/a	n/a	-999	8	[6, 1, 5]	12	FR1	1	R1367D
1400.108	2.604	1378939	PROB	2.604	n/a	n/a	-999	8	[6, 4, 3]	13	FR1	1	R1367D
1402.712	0.014	1381543	STOP	n/a	n/a	n/a	-999	8	[-999, -999, -999]	n/a	FR1	1	R1367D
1402.726	1.079	1381557	DISTRACT_END	n/a	n/a	n/a	-999	8	[0, 0, 0]	n/a	FR1	1	R1367D
1403.805	1.021	1382636	RETRIEVAL_ORIENT_START	n/a	n/a	n/a	-999	8	[0, 0, 0]	n/a	FR1	1	R1367D
1404.826	0.0	1383656	RETRIEVAL_ORIENT_END	n/a	n/a	n/a	-999	8	[0, 0, 0]	n/a	FR1	1	R1367D
1404.826	1.472	1383656	REC_START	n/a	n/a	n/a	-999	8	[0, 0, 0]	n/a	FR1	1	R1367D
1406.298	0.52	1385128	REC_WORD_VV	0.52	n/a	<>	-999	8	[0, 0, 0]	n/a	FR1	1	R1367D
1406.818	1.688	1385648	REC_WORD	1.688	n/a	FLAME	1	8	[0, 0, 0]	n/a	FR1	1	R1367D
1408.506	3.352	1387336	REC_WORD	3.352	n/a	FISH	2	8	[0, 0, 0]	n/a	FR1	1	R1367D
1411.858	5.258	1390688	REC_WORD	5.258	n/a	CAT	3	8	[0, 0, 0]	n/a	FR1	1	R1367D
1417.116	10.226	1395946	REC_WORD	10.226	n/a	SINK	-999	8	[0, 0, 0]	n/a	FR1	1	R1367D
1427.342	7.998	1406171	REC_WORD	7.998	n/a	HOUSE	-999	8	[0, 0, 0]	n/a	FR1	1	R1367D
1435.34	0.0	1414169	TRIAL	n/a	n/a	n/a	-999	9	[0, 0, 0]	n/a	FR1	1	R1367D
1435.34	0.0	1414169	WAITING_START	n/a	n/a	n/a	-999	9	[0, 0, 0]	n/a	FR1	1	R1367D
1435.34	0.0	1414169	TRIAL_END	n/a	n/a	n/a	-999	8	[0, 0, 0]	n/a	FR1	1	R1367D
1435.34	0.0	1414169	TRIAL_START	n/a	n/a	n/a	-999	9	[0, 0, 0]	n/a	FR1	1	R1367D
1435.34	1.925	1414169	REC_END	n/a	n/a	n/a	-999	8	[0, 0, 0]	n/a	FR1	1	R1367D
1437.265	0.0	1416094	ORIENT_START	n/a	n/a	n/a	-999	9	[0, 0, 0]	n/a	FR1	1	R1367D
1437.265	0.0	1416094	WAITING_END	n/a	n/a	n/a	-999	9	[0, 0, 0]	n/a	FR1	1	R1367D
1437.265	0.0	1416094	COUNTDOWN_START	n/a	n/a	n/a	-999	9	[0, 0, 0]	n/a	FR1	1	R1367D
1437.265	11.519	1416094	COUNTDOWN_END	n/a	n/a	n/a	-999	9	[0, 0, 0]	n/a	FR1	1	R1367D
1448.784	0.0	1427612	ORIENT_END	n/a	n/a	n/a	-999	9	[0, 0, 0]	n/a	FR1	1	R1367D
1448.784	0.75	1427612	ENCODING_START	n/a	n/a	n/a	-999	9	[0, 0, 0]	n/a	FR1	1	R1367D
1449.534	1.634	1428362	WORD	n/a	wordpools/wordpool_EN.txt	CHEEK	1	9	[0, 0, 0]	n/a	FR1	1	R1367D
1451.168	0.85	1429996	WORD_OFF	n/a	n/a	CHEEK	1	9	[0, 0, 0]	n/a	FR1	1	R1367D
1452.018	1.634	1430846	WORD	n/a	wordpools/wordpool_EN.txt	BED	2	9	[0, 0, 0]	n/a	FR1	1	R1367D
1453.652	1.076	1432480	WORD_OFF	n/a	n/a	BED	2	9	[0, 0, 0]	n/a	FR1	1	R1367D
1454.728	1.624	1433556	WORD	n/a	wordpools/wordpool_EN.txt	BEAK	3	9	[0, 0, 0]	n/a	FR1	1	R1367D
1456.352	1.122	1435180	WORD_OFF	n/a	n/a	BEAK	3	9	[0, 0, 0]	n/a	FR1	1	R1367D
1457.474	1.628	1436302	WORD	n/a	wordpools/wordpool_EN.txt	HOUSE	4	9	[0, 0, 0]	n/a	FR1	1	R1367D
1459.102	1.095	1437930	WORD_OFF	n/a	n/a	HOUSE	4	9	[0, 0, 0]	n/a	FR1	1	R1367D
1460.197	1.64	1439025	WORD	n/a	wordpools/wordpool_EN.txt	SHIELD	5	9	[0, 0, 0]	n/a	FR1	1	R1367D
1461.837	0.94	1440665	WORD_OFF	n/a	n/a	SHIELD	5	9	[0, 0, 0]	n/a	FR1	1	R1367D
1462.777	1.627	1441604	WORD	n/a	wordpools/wordpool_EN.txt	RIB	6	9	[0, 0, 0]	n/a	FR1	1	R1367D
1464.404	1.068	1443231	WORD_OFF	n/a	n/a	RIB	6	9	[0, 0, 0]	n/a	FR1	1	R1367D
1465.472	1.631	1444299	WORD	n/a	wordpools/wordpool_EN.txt	STOOL	7	9	[0, 0, 0]	n/a	FR1	1	R1367D
1467.103	0.99	1445930	WORD_OFF	n/a	n/a	STOOL	7	9	[0, 0, 0]	n/a	FR1	1	R1367D
1468.093	1.612	1446920	WORD	n/a	wordpools/wordpool_EN.txt	BLUSH	8	9	[0, 0, 0]	n/a	FR1	1	R1367D
1469.705	0.84	1448532	WORD_OFF	n/a	n/a	BLUSH	8	9	[0, 0, 0]	n/a	FR1	1	R1367D
1470.545	1.627	1449372	WORD	n/a	wordpools/wordpool_EN.txt	TOAD	9	9	[0, 0, 0]	n/a	FR1	1	R1367D
1472.172	0.969	1450999	WORD_OFF	n/a	n/a	TOAD	9	9	[0, 0, 0]	n/a	FR1	1	R1367D
1473.141	1.631	1451968	WORD	n/a	wordpools/wordpool_EN.txt	LEAF	10	9	[0, 0, 0]	n/a	FR1	1	R1367D
1474.772	0.953	1453599	WORD_OFF	n/a	n/a	LEAF	10	9	[0, 0, 0]	n/a	FR1	1	R1367D
1475.725	1.631	1454552	WORD	n/a	wordpools/wordpool_EN.txt	CALF	11	9	[0, 0, 0]	n/a	FR1	1	R1367D
1477.356	1.066	1456183	WORD_OFF	n/a	n/a	CALF	11	9	[0, 0, 0]	n/a	FR1	1	R1367D
1478.422	1.634	1457249	WORD	n/a	wordpools/wordpool_EN.txt	SHELL	12	9	[0, 0, 0]	n/a	FR1	1	R1367D
1480.056	0.0	1458883	ENCODING_END	n/a	n/a	n/a	-999	9	[0, 0, 0]	n/a	FR1	1	R1367D
1480.056	0.0	1458883	DISTRACT_START	n/a	n/a	n/a	-999	9	[0, 0, 0]	n/a	FR1	1	R1367D
1480.056	0.001	1458883	WORD_OFF	n/a	n/a	SHELL	12	9	[0, 0, 0]	n/a	FR1	1	R1367D
1480.057	0.015	1458884	START	n/a	n/a	n/a	-999	9	[-999, -999, -999]	n/a	FR1	1	R1367D
1480.072	4.585	1458899	PROB	4.585	n/a	n/a	-999	9	[8, 9, 5]	22	FR1	1	R1367D
1484.657	2.433	1463483	PROB	2.433	n/a	n/a	-999	9	[1, 6, 7]	14	FR1	1	R1367D
1487.09	3.568	1465916	PROB	3.568	n/a	n/a	-999	9	[4, 3, 4]	11	FR1	1	R1367D
1490.658	3.634	1469484	PROB	3.634	n/a	n/a	-999	9	[7, 9, 3]	19	FR1	1	R1367D
1494.292	3.318	1473118	PROB	3.318	n/a	n/a	-999	9	[4, 3, 4]	11	FR1	1	R1367D
1497.61	2.644	1476436	PROB	2.644	n/a	n/a	-999	9	[1, 8, 5]	14	FR1	1	R1367D
1500.254	0.006	1479080	STOP	n/a	n/a	n/a	-999	9	[-999, -999, -999]	n/a	FR1	1	R1367D
1500.26	1.173	1479086	DISTRACT_END	n/a	n/a	n/a	-999	9	[0, 0, 0]	n/a	FR1	1	R1367D
1501.433	1.028	1480258	RETRIEVAL_ORIENT_START	n/a	n/a	n/a	-999	9	[0, 0, 0]	n/a	FR1	1	R1367D
1502.461	0.0	1481286	RETRIEVAL_ORIENT_END	n/a	n/a	n/a	-999	9	[0, 0, 0]	n/a	FR1	1	R1367D
1502.461	4.367	1481286	REC_START	n/a	n/a	n/a	-999	9	[0, 0, 0]	n/a	FR1	1	R1367D
1506.828	4.277	1485653	REC_WORD	4.277	n/a	CAT	-999	9	[0, 0, 0]	n/a	FR1	1	R1367D
1511.105	3.014	1489930	REC_WORD_VV	3.014	n/a	<>	-999	9	[0, 0, 0]	n/a	FR1	1	R1367D
1514.119	7.224	1492944	REC_WORD_VV	7.224	n/a	<>	-999	9	[0, 0, 0]	n/a	FR1	1	R1367D
1521.343	0.474	1500167	REC_WORD	0.474	n/a	SINK	-999	9	[0, 0, 0]	n/a	FR1	1	R1367D
1521.817	2.654	1500641	REC_WORD	2.654	n/a	HOLE	-999	9	[0, 0, 0]	n/a	FR1	1	R1367D
1524.471	3.995	1503295	REC_WORD	3.995	n/a	FLAME	-999	9	[0, 0, 0]	n/a	FR1	1	R1367D
1528.466	4.508	1507290	REC_WORD	4.508	n/a	SHRIMP	-999	9	[0, 0, 0]	n/a	FR1	1	R1367D
1532.974	0.0	1511798	REC_END	n/a	n/a	n/a	-999	9	[0, 0, 0]	n/a	FR1	1	R1367D
1532.974	0.0	1511798	TRIAL_END	n/a	n/a	n/a	-999	9	[0, 0, 0]	n/a	FR1	1	R1367D
1532.974	0.0	1511798	TRIAL_START	n/a	n/a	n/a	-999	10	[0, 0, 0]	n/a	FR1	1	R1367D
1532.974	0.0	1511798	TRIAL	n/a	n/a	n/a	-999	10	[0, 0, 0]	n/a	FR1	1	R1367D
1532.974	2.009	1511798	WAITING_START	n/a	n/a	n/a	-999	10	[0, 0, 0]	n/a	FR1	1	R1367D
1534.983	0.0	1513807	WAITING_END	n/a	n/a	n/a	-999	10	[0, 0, 0]	n/a	FR1	1	R1367D
1534.983	0.0	1513807	COUNTDOWN_START	n/a	n/a	n/a	-999	10	[0, 0, 0]	n/a	FR1	1	R1367D
1534.983	0.0	1513807	COUNTDOWN_END	n/a	n/a	n/a	-999	10	[0, 0, 0]	n/a	FR1	1	R1367D
1534.983	11.552	1513807	ORIENT_START	n/a	n/a	n/a	-999	10	[0, 0, 0]	n/a	FR1	1	R1367D
1546.535	0.0	1525358	ORIENT_END	n/a	n/a	n/a	-999	10	[0, 0, 0]	n/a	FR1	1	R1367D
1546.535	1.051	1525358	ENCODING_START	n/a	n/a	n/a	-999	10	[0, 0, 0]	n/a	FR1	1	R1367D
1547.586	1.633	1526409	WORD	n/a	wordpools/wordpool_EN.txt	SHEEP	1	10	[0, 0, 0]	n/a	FR1	1	R1367D
1549.219	0.792	1528042	WORD_OFF	n/a	n/a	SHEEP	1	10	[0, 0, 0]	n/a	FR1	1	R1367D
1550.011	1.608	1528834	WORD	n/a	wordpools/wordpool_EN.txt	PEA	2	10	[0, 0, 0]	n/a	FR1	1	R1367D
1551.619	0.758	1530442	WORD_OFF	n/a	n/a	PEA	2	10	[0, 0, 0]	n/a	FR1	1	R1367D
1552.377	1.625	1531200	WORD	n/a	wordpools/wordpool_EN.txt	YARD	3	10	[0, 0, 0]	n/a	FR1	1	R1367D
1554.002	1.119	1532825	WORD_OFF	n/a	n/a	YARD	3	10	[0, 0, 0]	n/a	FR1	1	R1367D
1555.121	1.633	1533944	WORD	n/a	wordpools/wordpool_EN.txt	BAT	4	10	[0, 0, 0]	n/a	FR1	1	R1367D
1556.754	0.835	1535577	WORD_OFF	n/a	n/a	BAT	4	10	[0, 0, 0]	n/a	FR1	1	R1367D
1557.589	1.632	1536412	WORD	n/a	wordpools/wordpool_EN.txt	JET	5	10	[0, 0, 0]	n/a	FR1	1	R1367D
1559.221	0.942	1538043	WORD_OFF	n/a	n/a	JET	5	10	[0, 0, 0]	n/a	FR1	1	R1367D
1560.163	1.625	1538985	WORD	n/a	wordpools/wordpool_EN.txt	FOX	6	10	[0, 0, 0]	n/a	FR1	1	R1367D
1561.788	0.801	1540610	WORD_OFF	n/a	n/a	FOX	6	10	[0, 0, 0]	n/a	FR1	1	R1367D
1562.589	1.633	1541411	WORD	n/a	wordpools/wordpool_EN.txt	APE	7	10	[0, 0, 0]	n/a	FR1	1	R1367D
1564.222	0.81	1543044	WORD_OFF	n/a	n/a	APE	7	10	[0, 0, 0]	n/a	FR1	1	R1367D
1565.032	1.624	1543854	WORD	n/a	wordpools/wordpool_EN.txt	SHEET	8	10	[0, 0, 0]	n/a	FR1	1	R1367D
1566.656	0.769	1545478	WORD_OFF	n/a	n/a	SHEET	8	10	[0, 0, 0]	n/a	FR1	1	R1367D
1567.425	1.63	1546247	WORD	n/a	wordpools/wordpool_EN.txt	SMOKE	9	10	[0, 0, 0]	n/a	FR1	1	R1367D
1569.055	0.759	1547877	WORD_OFF	n/a	n/a	SMOKE	9	10	[0, 0, 0]	n/a	FR1	1	R1367D
1569.814	1.626	1548636	WORD	n/a	wordpools/wordpool_EN.txt	FOAM	10	10	[0, 0, 0]	n/a	FR1	1	R1367D
1571.44	0.885	1550262	WORD_OFF	n/a	n/a	FOAM	10	10	[0, 0, 0]	n/a	FR1	1	R1367D
1572.325	1.632	1551147	WORD	n/a	wordpools/wordpool_EN.txt	DUCK	11	10	[0, 0, 0]	n/a	FR1	1	R1367D
1573.957	0.881	1552779	WORD_OFF	n/a	n/a	DUCK	11	10	[0, 0, 0]	n/a	FR1	1	R1367D
1574.838	1.636	1553660	WORD	n/a	wordpools/wordpool_EN.txt	BRICK	12	10	[0, 0, 0]	n/a	FR1	1	R1367D
1576.474	0.0	1555296	WORD_OFF	n/a	n/a	BRICK	12	10	[0, 0, 0]	n/a	FR1	1	R1367D
1576.474	0.0	1555296	ENCODING_END	n/a	n/a	n/a	-999	10	[0, 0, 0]	n/a	FR1	1	R1367D
1576.474	0.001	1555296	DISTRACT_START	n/a	n/a	n/a	-999	10	[0, 0, 0]	n/a	FR1	1	R1367D
1576.475	0.016	1555297	START	n/a	n/a	n/a	-999	10	[-999, -999, -999]	n/a	FR1	1	R1367D
1576.491	5.001	1555313	PROB	5.001	n/a	n/a	-999	10	[1, 2, 3]	6	FR1	1	R1367D
1581.492	6.434	1560313	PROB	6.434	n/a	n/a	-999	10	[9, 4, 4]	17	FR1	1	R1367D
1587.926	2.301	1566747	PROB	2.301	n/a	n/a	-999	10	[5, 3, 4]	12	FR1	1	R1367D
1590.227	1.95	1569048	PROB	1.95	n/a	n/a	-999	10	[1, 7, 4]	12	FR1	1	R1367D
1592.177	4.184	1570998	PROB	4.184	n/a	n/a	-999	10	[2, 1, 4]	7	FR1	1	R1367D
1596.361	3.168	1575182	PROB	3.168	n/a	n/a	-999	10	[7, 3, 7]	17	FR1	1	R1367D
1599.529	0.016	1578349	STOP	n/a	n/a	n/a	-999	10	[-999, -999, -999]	n/a	FR1	1	R1367D
1599.545	1.122	1578365	DISTRACT_END	n/a	n/a	n/a	-999	10	[0, 0, 0]	n/a	FR1	1	R1367D
1600.667	1.028	1579487	RETRIEVAL_ORIENT_START	n/a	n/a	n/a	-999	10	[0, 0, 0]	n/a	FR1	1	R1367D
1601.695	0.0	1580515	REC_WORD_VV	0.0	n/a	<>	-999	10	[0, 0, 0]	n/a	FR1	1	R1367D
1601.695	0.0	1580515	RETRIEVAL_ORIENT_END	n/a	n/a	n/a	-999	10	[0, 0, 0]	n/a	FR1	1	R1367D
1601.695	1.222	1580515	REC_START	n/a	n/a	n/a	-999	10	[0, 0, 0]	n/a	FR1	1	R1367D
1602.917	1.806	1581737	REC_WORD	1.806	n/a	SHEEP	1	10	[0, 0, 0]	n/a	FR1	1	R1367D
1604.723	2.212	1583543	REC_WORD	2.212	n/a	CAT	-999	10	[0, 0, 0]	n/a	FR1	1	R1367D
1606.935	1.868	1585755	REC_WORD	1.868	n/a	BAT	4	10	[0, 0, 0]	n/a	FR1	1	R1367D
1608.803	1.902	1587623	REC_WORD	1.902	n/a	APE	7	10	[0, 0, 0]	n/a	FR1	1	R1367D
1610.705	8.378	1589525	REC_WORD	8.378	n/a	DUCK	11	10	[0, 0, 0]	n/a	FR1	1	R1367D
1619.083	13.126	1597902	REC_WORD	13.126	n/a	WET	-999	10	[0, 0, 0]	n/a	FR1	1	R1367D
1632.209	0.0	1611028	TRIAL	n/a	n/a	n/a	-999	11	[0, 0, 0]	n/a	FR1	1	R1367D
1632.209	0.0	1611028	WAITING_START	n/a	n/a	n/a	-999	11	[0, 0, 0]	n/a	FR1	1	R1367D
1632.209	0.0	1611028	TRIAL_END	n/a	n/a	n/a	-999	10	[0, 0, 0]	n/a	FR1	1	R1367D
1632.209	0.0	1611028	TRIAL_START	n/a	n/a	n/a	-999	11	[0, 0, 0]	n/a	FR1	1	R1367D
1632.209	2.359	1611028	REC_END	n/a	n/a	n/a	-999	10	[0, 0, 0]	n/a	FR1	1	R1367D
1634.568	0.0	1613387	ORIENT_START	n/a	n/a	n/a	-999	11	[0, 0, 0]	n/a	FR1	1	R1367D
1634.568	0.0	1613387	WAITING_END	n/a	n/a	n/a	-999	11	[0, 0, 0]	n/a	FR1	1	R1367D
1634.568	0.0	1613387	COUNTDOWN_START	n/a	n/a	n/a	-999	11	[0, 0, 0]	n/a	FR1	1	R1367D
1634.568	11.451	1613387	COUNTDOWN_END	n/a	n/a	n/a	-999	11	[0, 0, 0]	n/a	FR1	1	R1367D
1646.019	0.0	1624837	ORIENT_END	n/a	n/a	n/a	-999	11	[0, 0, 0]	n/a	FR1	1	R1367D
1646.019	0.942	1624837	ENCODING_START	n/a	n/a	n/a	-999	11	[0, 0, 0]	n/a	FR1	1	R1367D
1646.961	1.626	1625779	WORD	n/a	wordpools/wordpool_EN.txt	ROOT	1	11	[0, 0, 0]	n/a	FR1	1	R1367D
1648.587	0.964	1627405	WORD_OFF	n/a	n/a	ROOT	1	11	[0, 0, 0]	n/a	FR1	1	R1367D
1649.551	1.637	1628369	WORD	n/a	wordpools/wordpool_EN.txt	WAND	2	11	[0, 0, 0]	n/a	FR1	1	R1367D
1651.188	0.83	1630006	WORD_OFF	n/a	n/a	WAND	2	11	[0, 0, 0]	n/a	FR1	1	R1367D
1652.018	1.637	1630836	WORD	n/a	wordpools/wordpool_EN.txt	TANK	3	11	[0, 0, 0]	n/a	FR1	1	R1367D
1653.655	1.086	1632473	WORD_OFF	n/a	n/a	TANK	3	11	[0, 0, 0]	n/a	FR1	1	R1367D
1654.741	1.631	1633558	WORD	n/a	wordpools/wordpool_EN.txt	MOLE	4	11	[0, 0, 0]	n/a	FR1	1	R1367D
1656.372	0.785	1635189	WORD_OFF	n/a	n/a	MOLE	4	11	[0, 0, 0]	n/a	FR1	1	R1367D
1657.157	1.632	1635974	WORD	n/a	wordpools/wordpool_EN.txt	EAR	5	11	[0, 0, 0]	n/a	FR1	1	R1367D
1658.789	1.062	1637606	WORD_OFF	n/a	n/a	EAR	5	11	[0, 0, 0]	n/a	FR1	1	R1367D
1659.851	1.622	1638668	WORD	n/a	wordpools/wordpool_EN.txt	MULE	6	11	[0, 0, 0]	n/a	FR1	1	R1367D
1661.473	1.053	1640290	WORD_OFF	n/a	n/a	MULE	6	11	[0, 0, 0]	n/a	FR1	1	R1367D
1662.526	1.631	1641343	WORD	n/a	wordpools/wordpool_EN.txt	SEED	7	11	[0, 0, 0]	n/a	FR1	1	R1367D
1664.157	0.794	1642974	WORD_OFF	n/a	n/a	SEED	7	11	[0, 0, 0]	n/a	FR1	1	R1367D
1664.951	1.623	1643768	WORD	n/a	wordpools/wordpool_EN.txt	WEED	8	11	[0, 0, 0]	n/a	FR1	1	R1367D
1666.574	0.797	1645391	WORD_OFF	n/a	n/a	WEED	8	11	[0, 0, 0]	n/a	FR1	1	R1367D
1667.371	1.636	1646188	WORD	n/a	wordpools/wordpool_EN.txt	FLEA	9	11	[0, 0, 0]	n/a	FR1	1	R1367D
1669.007	0.932	1647824	WORD_OFF	n/a	n/a	FLEA	9	11	[0, 0, 0]	n/a	FR1	1	R1367D
1669.939	1.636	1648756	WORD	n/a	wordpools/wordpool_EN.txt	FROG	10	11	[0, 0, 0]	n/a	FR1	1	R1367D
1671.575	0.804	1650392	WORD_OFF	n/a	n/a	FROG	10	11	[0, 0, 0]	n/a	FR1	1	R1367D
1672.379	1.628	1651196	WORD	n/a	wordpools/wordpool_EN.txt	DRESS	11	11	[0, 0, 0]	n/a	FR1	1	R1367D
1674.007	0.842	1652823	WORD_OFF	n/a	n/a	DRESS	11	11	[0, 0, 0]	n/a	FR1	1	R1367D
1674.849	1.627	1653665	WORD	n/a	wordpools/wordpool_EN.txt	BROOM	12	11	[0, 0, 0]	n/a	FR1	1	R1367D
1676.476	0.0	1655292	WORD_OFF	n/a	n/a	BROOM	12	11	[0, 0, 0]	n/a	FR1	1	R1367D
1676.476	0.0	1655292	ENCODING_END	n/a	n/a	n/a	-999	11	[0, 0, 0]	n/a	FR1	1	R1367D
1676.476	0.001	1655292	DISTRACT_START	n/a	n/a	n/a	-999	11	[0, 0, 0]	n/a	FR1	1	R1367D
1676.477	0.015	1655293	START	n/a	n/a	n/a	-999	11	[-999, -999, -999]	n/a	FR1	1	R1367D
1676.492	4.501	1655308	PROB	4.501	n/a	n/a	-999	11	[8, 8, 4]	20	FR1	1	R1367D
1680.993	2.851	1659809	PROB	2.851	n/a	n/a	-999	11	[5, 6, 6]	17	FR1	1	R1367D
1683.844	5.3	1662660	PROB	5.3	n/a	n/a	-999	11	[4, 8, 9]	21	FR1	1	R1367D
1689.144	3.034	1667960	PROB	3.034	n/a	n/a	-999	11	[7, 4, 7]	17	FR1	1	R1367D
1692.178	8.966	1670994	PROB	8.966	n/a	n/a	-999	11	[7, 4, 3]	14	FR1	1	R1367D
1701.144	0.019	1679959	STOP	n/a	n/a	n/a	-999	11	[-999, -999, -999]	n/a	FR1	1	R1367D
1701.163	1.302	1679978	DISTRACT_END	n/a	n/a	n/a	-999	11	[0, 0, 0]	n/a	FR1	1	R1367D
1702.465	1.032	1681280	RETRIEVAL_ORIENT_START	n/a	n/a	n/a	-999	11	[0, 0, 0]	n/a	FR1	1	R1367D
1703.497	0.0	1682312	REC_START	n/a	n/a	n/a	-999	11	[0, 0, 0]	n/a	FR1	1	R1367D
1703.497	1.16	1682312	RETRIEVAL_ORIENT_END	n/a	n/a	n/a	-999	11	[0, 0, 0]	n/a	FR1	1	R1367D
1704.657	1.169	1683472	REC_WORD	1.169	n/a	LUKE	-999	11	[0, 0, 0]	n/a	FR1	1	R1367D
1705.826	1.647	1684641	REC_WORD	1.647	n/a	SEED	7	11	[0, 0, 0]	n/a	FR1	1	R1367D
1707.473	3.298	1686288	REC_WORD	3.298	n/a	WEED	8	11	[0, 0, 0]	n/a	FR1	1	R1367D
1710.771	17.986	1689586	REC_WORD	17.986	n/a	MULE	6	11	[0, 0, 0]	n/a	FR1	1	R1367D
1728.757	5.253	1707571	REC_WORD	5.253	n/a	GREEN	-999	11	[0, 0, 0]	n/a	FR1	1	R1367D
1734.01	0.0	1712823	REC_END	n/a	n/a	n/a	-999	11	[0, 0, 0]	n/a	FR1	1	R1367D
1734.01	0.0	1712823	TRIAL_END	n/a	n/a	n/a	-999	11	[0, 0, 0]	n/a	FR1	1	R1367D
1734.01	0.0	1712823	TRIAL_START	n/a	n/a	n/a	-999	12	[0, 0, 0]	n/a	FR1	1	R1367D
1734.01	0.0	1712823	TRIAL	n/a	n/a	n/a	-999	12	[0, 0, 0]	n/a	FR1	1	R1367D
1734.01	1.343	1712823	WAITING_START	n/a	n/a	n/a	-999	12	[0, 0, 0]	n/a	FR1	1	R1367D
1735.353	0.0	1714166	ORIENT_START	n/a	n/a	n/a	-999	12	[0, 0, 0]	n/a	FR1	1	R1367D
1735.353	0.0	1714166	COUNTDOWN_END	n/a	n/a	n/a	-999	12	[0, 0, 0]	n/a	FR1	1	R1367D
1735.353	0.0	1714166	WAITING_END	n/a	n/a	n/a	-999	12	[0, 0, 0]	n/a	FR1	1	R1367D
1735.353	11.636	1714166	COUNTDOWN_START	n/a	n/a	n/a	-999	12	[0, 0, 0]	n/a	FR1	1	R1367D
1746.989	0.0	1725802	ORIENT_END	n/a	n/a	n/a	-999	12	[0, 0, 0]	n/a	FR1	1	R1367D
1746.989	1.018	1725802	ENCODING_START	n/a	n/a	n/a	-999	12	[0, 0, 0]	n/a	FR1	1	R1367D
1748.007	1.632	1726820	WORD	n/a	wordpools/wordpool_EN.txt	PLATE	1	12	[0, 0, 0]	n/a	FR1	1	R1367D
1749.639	0.794	1728452	WORD_OFF	n/a	n/a	PLATE	1	12	[0, 0, 0]	n/a	FR1	1	R1367D
1750.433	1.622	1729245	WORD	n/a	wordpools/wordpool_EN.txt	WORM	2	12	[0, 0, 0]	n/a	FR1	1	R1367D
1752.055	1.087	1730867	WORD_OFF	n/a	n/a	WORM	2	12	[0, 0, 0]	n/a	FR1	1	R1367D
1753.142	1.631	1731954	WORD	n/a	wordpools/wordpool_EN.txt	TIE	3	12	[0, 0, 0]	n/a	FR1	1	R1367D
1754.773	1.049	1733585	WORD_OFF	n/a	n/a	TIE	3	12	[0, 0, 0]	n/a	FR1	1	R1367D
1755.822	1.635	1734634	WORD	n/a	wordpools/wordpool_EN.txt	JAR	4	12	[0, 0, 0]	n/a	FR1	1	R1367D
1757.457	1.078	1736269	WORD_OFF	n/a	n/a	JAR	4	12	[0, 0, 0]	n/a	FR1	1	R1367D
1758.535	1.623	1737347	WORD	n/a	wordpools/wordpool_EN.txt	STREET	5	12	[0, 0, 0]	n/a	FR1	1	R1367D
1760.158	0.835	1738970	WORD_OFF	n/a	n/a	STREET	5	12	[0, 0, 0]	n/a	FR1	1	R1367D
1760.993	1.632	1739805	WORD	n/a	wordpools/wordpool_EN.txt	STAR	6	12	[0, 0, 0]	n/a	FR1	1	R1367D
1762.625	0.946	1741437	WORD_OFF	n/a	n/a	STAR	6	12	[0, 0, 0]	n/a	FR1	1	R1367D
1763.571	1.637	1742383	WORD	n/a	wordpools/wordpool_EN.txt	FARM	7	12	[0, 0, 0]	n/a	FR1	1	R1367D
1765.208	0.963	1744020	WORD_OFF	n/a	n/a	FARM	7	12	[0, 0, 0]	n/a	FR1	1	R1367D
1766.171	1.638	1744983	WORD	n/a	wordpools/wordpool_EN.txt	MUG	8	12	[0, 0, 0]	n/a	FR1	1	R1367D
1767.809	0.977	1746621	WORD_OFF	n/a	n/a	MUG	8	12	[0, 0, 0]	n/a	FR1	1	R1367D
1768.786	1.623	1747598	WORD	n/a	wordpools/wordpool_EN.txt	MOOSE	9	12	[0, 0, 0]	n/a	FR1	1	R1367D
1770.409	0.851	1749220	WORD_OFF	n/a	n/a	MOOSE	9	12	[0, 0, 0]	n/a	FR1	1	R1367D
1771.26	1.633	1750071	WORD	n/a	wordpools/wordpool_EN.txt	TOY	10	12	[0, 0, 0]	n/a	FR1	1	R1367D
1772.893	0.993	1751704	WORD_OFF	n/a	n/a	TOY	10	12	[0, 0, 0]	n/a	FR1	1	R1367D
1773.886	1.624	1752697	WORD	n/a	wordpools/wordpool_EN.txt	SLUSH	11	12	[0, 0, 0]	n/a	FR1	1	R1367D
1775.51	1.04	1754321	WORD_OFF	n/a	n/a	SLUSH	11	12	[0, 0, 0]	n/a	FR1	1	R1367D
1776.55	1.627	1755361	WORD	n/a	wordpools/wordpool_EN.txt	SLEEVE	12	12	[0, 0, 0]	n/a	FR1	1	R1367D
1778.177	0.0	1756988	DISTRACT_START	n/a	n/a	n/a	-999	12	[0, 0, 0]	n/a	FR1	1	R1367D
1778.177	0.0	1756988	WORD_OFF	n/a	n/a	SLEEVE	12	12	[0, 0, 0]	n/a	FR1	1	R1367D
1778.177	0.002	1756988	ENCODING_END	n/a	n/a	n/a	-999	12	[0, 0, 0]	n/a	FR1	1	R1367D
1778.179	0.015	1756990	START	n/a	n/a	n/a	-999	12	[-999, -999, -999]	n/a	FR1	1	R1367D
1778.194	11.818	1757005	PROB	11.818	n/a	n/a	-999	12	[8, 9, 5]	22	FR1	1	R1367D
1790.012	2.418	1768822	PROB	2.418	n/a	n/a	-999	12	[3, 5, 5]	13	FR1	1	R1367D
1792.43	4.583	1771240	PROB	4.583	n/a	n/a	-999	12	[5, 6, 4]	15	FR1	1	R1367D
1797.013	2.64	1775823	PROB	2.64	n/a	n/a	-999	12	[1, 5, 4]	10	FR1	1	R1367D
1799.653	0.012	1778463	STOP	n/a	n/a	n/a	-999	12	[-999, -999, -999]	n/a	FR1	1	R1367D
1799.665	1.101	1778475	DISTRACT_END	n/a	n/a	n/a	-999	12	[0, 0, 0]	n/a	FR1	1	R1367D
1800.766	1.032	1779576	RETRIEVAL_ORIENT_START	n/a	n/a	n/a	-999	12	[0, 0, 0]	n/a	FR1	1	R1367D
1801.798	0.0	1780608	REC_START	n/a	n/a	n/a	-999	12	[0, 0, 0]	n/a	FR1	1	R1367D
1801.798	2.34	1780608	RETRIEVAL_ORIENT_END	n/a	n/a	n/a	-999	12	[0, 0, 0]	n/a	FR1	1	R1367D
1804.138	3.355	1782948	REC_WORD	3.355	n/a	JAR	4	12	[0, 0, 0]	n/a	FR1	1	R1367D
1807.493	3.757	1786303	REC_WORD	3.757	n/a	MUG	8	12	[0, 0, 0]	n/a	FR1	1	R1367D
1811.25	9.324	1790059	REC_WORD	9.324	n/a	PLATE	1	12	[0, 0, 0]	n/a	FR1	1	R1367D
1820.574	11.737	1799383	REC_WORD	11.737	n/a	MULE	-999	12	[0, 0, 0]	n/a	FR1	1	R1367D
1832.311	0.0	1811119	REC_END	n/a	n/a	n/a	-999	12	[0, 0, 0]	n/a	FR1	1	R1367D
1832.311	0.0	1811119	TRIAL_END	n/a	n/a	n/a	-999	12	[0, 0, 0]	n/a	FR1	1	R1367D
1832.311	0.0	1811119	TRIAL_START	n/a	n/a	n/a	-999	13	[0, 0, 0]	n/a	FR1	1	R1367D
1832.311	0.0	1811119	TRIAL	n/a	n/a	n/a	-999	13	[0, 0, 0]	n/a	FR1	1	R1367D
1832.311	1.277	1811119	WAITING_START	n/a	n/a	n/a	-999	13	[0, 0, 0]	n/a	FR1	1	R1367D
1833.588	0.0	1812396	WAITING_END	n/a	n/a	n/a	-999	13	[0, 0, 0]	n/a	FR1	1	R1367D
1833.588	0.0	1812396	COUNTDOWN_START	n/a	n/a	n/a	-999	13	[0, 0, 0]	n/a	FR1	1	R1367D
1833.588	0.0	1812396	COUNTDOWN_END	n/a	n/a	n/a	-999	13	[0, 0, 0]	n/a	FR1	1	R1367D
1833.588	11.635	1812396	ORIENT_START	n/a	n/a	n/a	-999	13	[0, 0, 0]	n/a	FR1	1	R1367D
1845.223	0.0	1824031	ORIENT_END	n/a	n/a	n/a	-999	13	[0, 0, 0]	n/a	FR1	1	R1367D
1845.223	0.929	1824031	ENCODING_START	n/a	n/a	n/a	-999	13	[0, 0, 0]	n/a	FR1	1	R1367D
1846.152	1.638	1824960	WORD	n/a	wordpools/wordpool_EN.txt	TOAST	1	13	[0, 0, 0]	n/a	FR1	1	R1367D
1847.79	0.792	1826597	WORD_OFF	n/a	n/a	TOAST	1	13	[0, 0, 0]	n/a	FR1	1	R1367D
1848.582	1.625	1827389	WORD	n/a	wordpools/wordpool_EN.txt	SALT	2	13	[0, 0, 0]	n/a	FR1	1	R1367D
1850.207	0.865	1829014	WORD_OFF	n/a	n/a	SALT	2	13	[0, 0, 0]	n/a	FR1	1	R1367D
1851.072	1.619	1829879	WORD	n/a	wordpools/wordpool_EN.txt	SOCK	3	13	[0, 0, 0]	n/a	FR1	1	R1367D
1852.691	0.998	1831498	WORD_OFF	n/a	n/a	SOCK	3	13	[0, 0, 0]	n/a	FR1	1	R1367D
1853.689	1.636	1832496	WORD	n/a	wordpools/wordpool_EN.txt	WHALE	4	13	[0, 0, 0]	n/a	FR1	1	R1367D
1855.325	0.892	1834132	WORD_OFF	n/a	n/a	WHALE	4	13	[0, 0, 0]	n/a	FR1	1	R1367D
1856.217	1.625	1835024	WORD	n/a	wordpools/wordpool_EN.txt	PEARL	5	13	[0, 0, 0]	n/a	FR1	1	R1367D
1857.842	1.013	1836649	WORD_OFF	n/a	n/a	PEARL	5	13	[0, 0, 0]	n/a	FR1	1	R1367D
1858.855	1.621	1837662	WORD	n/a	wordpools/wordpool_EN.txt	ANT	6	13	[0, 0, 0]	n/a	FR1	1	R1367D
1860.476	1.058	1839283	WORD_OFF	n/a	n/a	ANT	6	13	[0, 0, 0]	n/a	FR1	1	R1367D
1861.534	1.626	1840341	WORD	n/a	wordpools/wordpool_EN.txt	CORD	7	13	[0, 0, 0]	n/a	FR1	1	R1367D
1863.16	0.776	1841967	WORD_OFF	n/a	n/a	CORD	7	13	[0, 0, 0]	n/a	FR1	1	R1367D
1863.936	1.624	1842743	WORD	n/a	wordpools/wordpool_EN.txt	CAPE	8	13	[0, 0, 0]	n/a	FR1	1	R1367D
1865.56	0.807	1844367	WORD_OFF	n/a	n/a	CAPE	8	13	[0, 0, 0]	n/a	FR1	1	R1367D
1866.367	1.627	1845173	WORD	n/a	wordpools/wordpool_EN.txt	TEETH	9	13	[0, 0, 0]	n/a	FR1	1	R1367D
1867.994	1.022	1846800	WORD_OFF	n/a	n/a	TEETH	9	13	[0, 0, 0]	n/a	FR1	1	R1367D
1869.016	1.612	1847822	WORD	n/a	wordpools/wordpool_EN.txt	BARN	10	13	[0, 0, 0]	n/a	FR1	1	R1367D
1870.628	0.921	1849434	WORD_OFF	n/a	n/a	BARN	10	13	[0, 0, 0]	n/a	FR1	1	R1367D
1871.549	1.629	1850355	WORD	n/a	wordpools/wordpool_EN.txt	ROOF	11	13	[0, 0, 0]	n/a	FR1	1	R1367D
1873.178	1.13	1851984	WORD_OFF	n/a	n/a	ROOF	11	13	[0, 0, 0]	n/a	FR1	1	R1367D
1874.308	1.637	1853114	WORD	n/a	wordpools/wordpool_EN.txt	SHARK	12	13	[0, 0, 0]	n/a	FR1	1	R1367D
1875.945	0.0	1854751	DISTRACT_START	n/a	n/a	n/a	-999	13	[0, 0, 0]	n/a	FR1	1	R1367D
1875.945	0.0	1854751	WORD_OFF	n/a	n/a	SHARK	12	13	[0, 0, 0]	n/a	FR1	1	R1367D
1875.945	0.001	1854751	ENCODING_END	n/a	n/a	n/a	-999	13	[0, 0, 0]	n/a	FR1	1	R1367D
1875.946	0.016	1854752	START	n/a	n/a	n/a	-999	13	[-999, -999, -999]	n/a	FR1	1	R1367D
1875.962	2.884	1854768	PROB	2.884	n/a	n/a	-999	13	[1, 1, 9]	11	FR1	1	R1367D
1878.846	4.467	1857652	PROB	4.467	n/a	n/a	-999	13	[8, 4, 6]	18	FR1	1	R1367D
1883.313	2.783	1862119	PROB	2.783	n/a	n/a	-999	13	[6, 2, 4]	12	FR1	1	R1367D
1886.096	2.902	1864901	PROB	2.902	n/a	n/a	-999	13	[2, 8, 5]	15	FR1	1	R1367D
1888.998	2.934	1867803	PROB	2.934	n/a	n/a	-999	13	[7, 1, 2]	10	FR1	1	R1367D
1891.932	2.85	1870737	PROB	2.85	n/a	n/a	-999	13	[4, 1, 8]	13	FR1	1	R1367D
1894.782	3.265	1873587	PROB	3.265	n/a	n/a	-999	13	[3, 1, 6]	10	FR1	1	R1367D
1898.047	0.018	1876852	STOP	n/a	n/a	n/a	-999	13	[-999, -999, -999]	n/a	FR1	1	R1367D
1898.065	1.181	1876870	DISTRACT_END	n/a	n/a	n/a	-999	13	[0, 0, 0]	n/a	FR1	1	R1367D
1899.246	1.02	1878051	RETRIEVAL_ORIENT_START	n/a	n/a	n/a	-999	13	[0, 0, 0]	n/a	FR1	1	R1367D
1900.266	0.0	1879071	RETRIEVAL_ORIENT_END	n/a	n/a	n/a	-999	13	[0, 0, 0]	n/a	FR1	1	R1367D
1900.266	0.842	1879071	REC_START	n/a	n/a	n/a	-999	13	[0, 0, 0]	n/a	FR1	1	R1367D
1901.108	3.542	1879913	REC_WORD	3.542	n/a	SHARK	12	13	[0, 0, 0]	n/a	FR1	1	R1367D
1904.65	4.494	1883454	REC_WORD	4.494	n/a	TEETH	9	13	[0, 0, 0]	n/a	FR1	1	R1367D
1909.144	3.688	1887948	REC_WORD	3.688	n/a	BARN	10	13	[0, 0, 0]	n/a	FR1	1	R1367D
1912.832	17.948	1891636	REC_WORD	17.948	n/a	CAPE	8	13	[0, 0, 0]	n/a	FR1	1	R1367D
1930.78	0.0	1909583	REC_END	n/a	n/a	n/a	-999	13	[0, 0, 0]	n/a	FR1	1	R1367D
1930.78	0.0	1909583	TRIAL_END	n/a	n/a	n/a	-999	13	[0, 0, 0]	n/a	FR1	1	R1367D
1930.78	0.0	1909583	TRIAL_START	n/a	n/a	n/a	-999	14	[0, 0, 0]	n/a	FR1	1	R1367D
1930.78	0.0	1909583	TRIAL	n/a	n/a	n/a	-999	14	[0, 0, 0]	n/a	FR1	1	R1367D
1930.78	1.209	1909583	WAITING_START	n/a	n/a	n/a	-999	14	[0, 0, 0]	n/a	FR1	1	R1367D
1931.989	0.0	1910792	COUNTDOWN_END	n/a	n/a	n/a	-999	14	[0, 0, 0]	n/a	FR1	1	R1367D
1931.989	0.0	1910792	ORIENT_START	n/a	n/a	n/a	-999	14	[0, 0, 0]	n/a	FR1	1	R1367D
1931.989	0.0	1910792	WAITING_END	n/a	n/a	n/a	-999	14	[0, 0, 0]	n/a	FR1	1	R1367D
1931.989	11.635	1910792	COUNTDOWN_START	n/a	n/a	n/a	-999	14	[0, 0, 0]	n/a	FR1	1	R1367D
1943.624	0.0	1922426	ENCODING_START	n/a	n/a	n/a	-999	14	[0, 0, 0]	n/a	FR1	1	R1367D
1943.624	1.088	1922426	ORIENT_END	n/a	n/a	n/a	-999	14	[0, 0, 0]	n/a	FR1	1	R1367D
1944.712	1.63	1923514	WORD	n/a	wordpools/wordpool_EN.txt	TAIL	1	14	[0, 0, 0]	n/a	FR1	1	R1367D
1946.342	0.939	1925144	WORD_OFF	n/a	n/a	TAIL	1	14	[0, 0, 0]	n/a	FR1	1	R1367D
1947.281	1.628	1926083	WORD	n/a	wordpools/wordpool_EN.txt	TRAIN	2	14	[0, 0, 0]	n/a	FR1	1	R1367D
1948.909	0.806	1927711	WORD_OFF	n/a	n/a	TRAIN	2	14	[0, 0, 0]	n/a	FR1	1	R1367D
1949.715	1.627	1928517	WORD	n/a	wordpools/wordpool_EN.txt	HAWK	3	14	[0, 0, 0]	n/a	FR1	1	R1367D
1951.342	1.105	1930144	WORD_OFF	n/a	n/a	HAWK	3	14	[0, 0, 0]	n/a	FR1	1	R1367D
1952.447	1.628	1931249	WORD	n/a	wordpools/wordpool_EN.txt	ARM	4	14	[0, 0, 0]	n/a	FR1	1	R1367D
1954.075	1.083	1932877	WORD_OFF	n/a	n/a	ARM	4	14	[0, 0, 0]	n/a	FR1	1	R1367D
1955.158	1.635	1933960	WORD	n/a	wordpools/wordpool_EN.txt	STONE	5	14	[0, 0, 0]	n/a	FR1	1	R1367D
1956.793	1.076	1935595	WORD_OFF	n/a	n/a	STONE	5	14	[0, 0, 0]	n/a	FR1	1	R1367D
1957.869	1.625	1936671	WORD	n/a	wordpools/wordpool_EN.txt	CAKE	6	14	[0, 0, 0]	n/a	FR1	1	R1367D
1959.494	1.147	1938296	WORD_OFF	n/a	n/a	CAKE	6	14	[0, 0, 0]	n/a	FR1	1	R1367D
1960.641	1.637	1939443	WORD	n/a	wordpools/wordpool_EN.txt	GRAPE	7	14	[0, 0, 0]	n/a	FR1	1	R1367D
1962.278	0.902	1941079	WORD_OFF	n/a	n/a	GRAPE	7	14	[0, 0, 0]	n/a	FR1	1	R1367D
1963.18	1.632	1941981	WORD	n/a	wordpools/wordpool_EN.txt	DITCH	8	14	[0, 0, 0]	n/a	FR1	1	R1367D
1964.812	1.128	1943613	WORD_OFF	n/a	n/a	DITCH	8	14	[0, 0, 0]	n/a	FR1	1	R1367D
1965.94	1.622	1944741	WORD	n/a	wordpools/wordpool_EN.txt	JEEP	9	14	[0, 0, 0]	n/a	FR1	1	R1367D
1967.562	1.025	1946363	WORD_OFF	n/a	n/a	JEEP	9	14	[0, 0, 0]	n/a	FR1	1	R1367D
1968.587	1.625	1947388	WORD	n/a	wordpools/wordpool_EN.txt	CUP	10	14	[0, 0, 0]	n/a	FR1	1	R1367D
1970.212	1.097	1949013	WORD_OFF	n/a	n/a	CUP	10	14	[0, 0, 0]	n/a	FR1	1	R1367D
1971.309	1.621	1950110	WORD	n/a	wordpools/wordpool_EN.txt	PALM	11	14	[0, 0, 0]	n/a	FR1	1	R1367D
1972.93	0.798	1951731	WORD_OFF	n/a	n/a	PALM	11	14	[0, 0, 0]	n/a	FR1	1	R1367D
1973.728	1.636	1952529	WORD	n/a	wordpools/wordpool_EN.txt	FENCE	12	14	[0, 0, 0]	n/a	FR1	1	R1367D
1975.364	0.0	1954165	WORD_OFF	n/a	n/a	FENCE	12	14	[0, 0, 0]	n/a	FR1	1	R1367D
1975.364	0.0	1954165	ENCODING_END	n/a	n/a	n/a	-999	14	[0, 0, 0]	n/a	FR1	1	R1367D
1975.364	0.001	1954165	DISTRACT_START	n/a	n/a	n/a	-999	14	[0, 0, 0]	n/a	FR1	1	R1367D
1975.365	0.015	1954166	START	n/a	n/a	n/a	-999	14	[-999, -999, -999]	n/a	FR1	1	R1367D
1975.38	4.151	1954181	PROB	4.151	n/a	n/a	-999	14	[1, 4, 9]	14	FR1	1	R1367D
1979.531	2.067	1958332	PROB	2.067	n/a	n/a	-999	14	[5, 2, 5]	12	FR1	1	R1367D
1981.598	2.734	1960398	PROB	2.734	n/a	n/a	-999	14	[2, 9, 1]	12	FR1	1	R1367D
1984.332	2.4	1963132	PROB	2.4	n/a	n/a	-999	14	[2, 8, 1]	11	FR1	1	R1367D
1986.732	2.951	1965532	PROB	2.951	n/a	n/a	-999	14	[4, 3, 1]	8	FR1	1	R1367D
1989.683	3.75	1968483	PROB	3.75	n/a	n/a	-999	14	[2, 9, 3]	14	FR1	1	R1367D
1993.433	2.356	1972233	PROB	2.356	n/a	n/a	-999	14	[8, 4, 4]	12	FR1	1	R1367D
1995.789	0.012	1974589	STOP	n/a	n/a	n/a	-999	14	[-999, -999, -999]	n/a	FR1	1	R1367D
1995.801	1.392	1974601	DISTRACT_END	n/a	n/a	n/a	-999	14	[0, 0, 0]	n/a	FR1	1	R1367D
1997.193	1.025	1975993	RETRIEVAL_ORIENT_START	n/a	n/a	n/a	-999	14	[0, 0, 0]	n/a	FR1	1	R1367D
1998.218	0.0	1977018	RETRIEVAL_ORIENT_END	n/a	n/a	n/a	-999	14	[0, 0, 0]	n/a	FR1	1	R1367D
1998.218	3.049	1977018	REC_START	n/a	n/a	n/a	-999	14	[0, 0, 0]	n/a	FR1	1	R1367D
2001.267	2.604	1980066	REC_WORD_VV	2.604	n/a	<>	-999	14	[0, 0, 0]	n/a	FR1	1	R1367D
2003.871	0.748	1982670	REC_WORD_VV	0.748	n/a	<>	-999	14	[0, 0, 0]	n/a	FR1	1	R1367D
2004.619	0.506	1983418	REC_WORD	0.506	n/a	CAPE	-999	14	[0, 0, 0]	n/a	FR1	1	R1367D
2005.125	2.622	1983924	REC_WORD_VV	2.622	n/a	<>	-999	14	[0, 0, 0]	n/a	FR1	1	R1367D
2007.747	0.342	1986546	REC_WORD_VV	0.342	n/a	<>	-999	14	[0, 0, 0]	n/a	FR1	1	R1367D
2008.089	3.352	1986888	REC_WORD	3.352	n/a	MULE	-999	14	[0, 0, 0]	n/a	FR1	1	R1367D
2011.441	4.648	1990240	REC_WORD	4.648	n/a	HOUSE	-999	14	[0, 0, 0]	n/a	FR1	1	R1367D
2016.089	6.636	1994888	REC_WORD	6.636	n/a	MATE	-999	14	[0, 0, 0]	n/a	FR1	1	R1367D
2022.725	6.007	2001523	REC_WORD	6.007	n/a	TOWER	-999	14	[0, 0, 0]	n/a	FR1	1	R1367D
2028.732	0.0	2007530	REC_END	n/a	n/a	n/a	-999	14	[0, 0, 0]	n/a	FR1	1	R1367D
2028.732	0.0	2007530	TRIAL_END	n/a	n/a	n/a	-999	14	[0, 0, 0]	n/a	FR1	1	R1367D
2028.732	0.0	2007530	TRIAL_START	n/a	n/a	n/a	-999	15	[0, 0, 0]	n/a	FR1	1	R1367D
2028.732	0.0	2007530	TRIAL	n/a	n/a	n/a	-999	15	[0, 0, 0]	n/a	FR1	1	R1367D
2028.732	1.841	2007530	WAITING_START	n/a	n/a	n/a	-999	15	[0, 0, 0]	n/a	FR1	1	R1367D
2030.573	0.0	2009371	WAITING_END	n/a	n/a	n/a	-999	15	[0, 0, 0]	n/a	FR1	1	R1367D
2030.573	0.0	2009371	COUNTDOWN_START	n/a	n/a	n/a	-999	15	[0, 0, 0]	n/a	FR1	1	R1367D
2030.573	0.0	2009371	COUNTDOWN_END	n/a	n/a	n/a	-999	15	[0, 0, 0]	n/a	FR1	1	R1367D
2030.573	11.518	2009371	ORIENT_START	n/a	n/a	n/a	-999	15	[0, 0, 0]	n/a	FR1	1	R1367D
2042.091	0.0	2020888	ORIENT_END	n/a	n/a	n/a	-999	15	[0, 0, 0]	n/a	FR1	1	R1367D
2042.091	1.042	2020888	ENCODING_START	n/a	n/a	n/a	-999	15	[0, 0, 0]	n/a	FR1	1	R1367D
2043.133	1.626	2021930	WORD	n/a	wordpools/wordpool_EN.txt	HOSE	1	15	[0, 0, 0]	n/a	FR1	1	R1367D
2044.759	0.852	2023556	WORD_OFF	n/a	n/a	HOSE	1	15	[0, 0, 0]	n/a	FR1	1	R1367D
2045.611	1.632	2024408	WORD	n/a	wordpools/wordpool_EN.txt	GEESE	2	15	[0, 0, 0]	n/a	FR1	1	R1367D
2047.243	0.934	2026040	WORD_OFF	n/a	n/a	GEESE	2	15	[0, 0, 0]	n/a	FR1	1	R1367D
2048.177	1.633	2026974	WORD	n/a	wordpools/wordpool_EN.txt	CROW	3	15	[0, 0, 0]	n/a	FR1	1	R1367D
2049.81	1.019	2028607	WORD_OFF	n/a	n/a	CROW	3	15	[0, 0, 0]	n/a	FR1	1	R1367D
2050.829	1.632	2029626	WORD	n/a	wordpools/wordpool_EN.txt	BREAD	4	15	[0, 0, 0]	n/a	FR1	1	R1367D
2052.461	0.871	2031258	WORD_OFF	n/a	n/a	BREAD	4	15	[0, 0, 0]	n/a	FR1	1	R1367D
2053.332	1.629	2032129	WORD	n/a	wordpools/wordpool_EN.txt	FUDGE	5	15	[0, 0, 0]	n/a	FR1	1	R1367D
2054.961	1.013	2033758	WORD_OFF	n/a	n/a	FUDGE	5	15	[0, 0, 0]	n/a	FR1	1	R1367D
2055.974	1.638	2034771	WORD	n/a	wordpools/wordpool_EN.txt	BATH	6	15	[0, 0, 0]	n/a	FR1	1	R1367D
2057.612	0.824	2036409	WORD_OFF	n/a	n/a	BATH	6	15	[0, 0, 0]	n/a	FR1	1	R1367D
2058.436	1.625	2037232	WORD	n/a	wordpools/wordpool_EN.txt	PEN	7	15	[0, 0, 0]	n/a	FR1	1	R1367D
2060.061	0.809	2038857	WORD_OFF	n/a	n/a	PEN	7	15	[0, 0, 0]	n/a	FR1	1	R1367D
2060.87	1.626	2039666	WORD	n/a	wordpools/wordpool_EN.txt	HORN	8	15	[0, 0, 0]	n/a	FR1	1	R1367D
2062.496	1.073	2041292	WORD_OFF	n/a	n/a	HORN	8	15	[0, 0, 0]	n/a	FR1	1	R1367D
2063.569	1.628	2042365	WORD	n/a	wordpools/wordpool_EN.txt	SPOON	9	15	[0, 0, 0]	n/a	FR1	1	R1367D
2065.197	0.767	2043993	WORD_OFF	n/a	n/a	SPOON	9	15	[0, 0, 0]	n/a	FR1	1	R1367D
2065.964	1.633	2044760	WORD	n/a	wordpools/wordpool_EN.txt	WAVE	10	15	[0, 0, 0]	n/a	FR1	1	R1367D
2067.597	0.969	2046393	WORD_OFF	n/a	n/a	WAVE	10	15	[0, 0, 0]	n/a	FR1	1	R1367D
2068.566	1.631	2047362	WORD	n/a	wordpools/wordpool_EN.txt	DEER	11	15	[0, 0, 0]	n/a	FR1	1	R1367D
2070.197	1.085	2048993	WORD_OFF	n/a	n/a	DEER	11	15	[0, 0, 0]	n/a	FR1	1	R1367D
2071.282	1.633	2050078	WORD	n/a	wordpools/wordpool_EN.txt	BOX	12	15	[0, 0, 0]	n/a	FR1	1	R1367D
2072.915	0.0	2051711	WORD_OFF	n/a	n/a	BOX	12	15	[0, 0, 0]	n/a	FR1	1	R1367D
2072.915	0.0	2051711	ENCODING_END	n/a	n/a	n/a	-999	15	[0, 0, 0]	n/a	FR1	1	R1367D
2072.915	0.001	2051711	DISTRACT_START	n/a	n/a	n/a	-999	15	[0, 0, 0]	n/a	FR1	1	R1367D
2072.916	0.015	2051712	START	n/a	n/a	n/a	-999	15	[-999, -999, -999]	n/a	FR1	1	R1367D
2072.931	3.251	2051727	PROB	3.251	n/a	n/a	-999	15	[2, 4, 5]	11	FR1	1	R1367D
2076.182	3.4	2054978	PROB	3.4	n/a	n/a	-999	15	[7, 5, 8]	20	FR1	1	R1367D
2079.582	3.701	2058377	PROB	3.701	n/a	n/a	-999	15	[4, 9, 4]	17	FR1	1	R1367D
2083.283	2.601	2062078	PROB	2.601	n/a	n/a	-999	15	[1, 9, 9]	19	FR1	1	R1367D
2085.884	3.5	2064679	PROB	3.5	n/a	n/a	-999	15	[6, 8, 6]	20	FR1	1	R1367D
2089.384	2.467	2068179	PROB	2.467	n/a	n/a	-999	15	[5, 1, 7]	13	FR1	1	R1367D
2091.851	2.509	2070646	PROB	2.509	n/a	n/a	-999	15	[1, 1, 7]	9	FR1	1	R1367D
2094.36	0.009	2073155	STOP	n/a	n/a	n/a	-999	15	[-999, -999, -999]	n/a	FR1	1	R1367D
2094.369	1.303	2073164	DISTRACT_END	n/a	n/a	n/a	-999	15	[0, 0, 0]	n/a	FR1	1	R1367D
2095.672	1.03	2074467	RETRIEVAL_ORIENT_START	n/a	n/a	n/a	-999	15	[0, 0, 0]	n/a	FR1	1	R1367D
2096.702	0.0	2075496	RETRIEVAL_ORIENT_END	n/a	n/a	n/a	-999	15	[0, 0, 0]	n/a	FR1	1	R1367D
2096.702	2.68	2075496	REC_START	n/a	n/a	n/a	-999	15	[0, 0, 0]	n/a	FR1	1	R1367D
2099.382	1.168	2078176	REC_WORD	1.168	n/a	GEESE	2	15	[0, 0, 0]	n/a	FR1	1	R1367D
2100.55	0.655	2079344	REC_WORD	0.655	n/a	PEN	7	15	[0, 0, 0]	n/a	FR1	1	R1367D
2101.205	1.994	2079999	REC_WORD	1.994	n/a	CROW	3	15	[0, 0, 0]	n/a	FR1	1	R1367D
2103.199	6.084	2081993	REC_WORD_VV	6.084	n/a	<>	-999	15	[0, 0, 0]	n/a	FR1	1	R1367D
2109.283	1.0	2088077	REC_WORD_VV	1.0	n/a	<>	-999	15	[0, 0, 0]	n/a	FR1	1	R1367D
2110.283	13.644	2089077	REC_WORD_VV	13.644	n/a	<>	-999	15	[0, 0, 0]	n/a	FR1	1	R1367D
2123.927	3.287	2102720	REC_WORD_VV	3.287	n/a	<>	-999	15	[0, 0, 0]	n/a	FR1	1	R1367D
2127.214	0.0	2106007	TRIAL	n/a	n/a	n/a	-999	16	[0, 0, 0]	n/a	FR1	1	R1367D
2127.214	0.0	2106007	WAITING_START	n/a	n/a	n/a	-999	16	[0, 0, 0]	n/a	FR1	1	R1367D
2127.214	0.0	2106007	TRIAL_END	n/a	n/a	n/a	-999	15	[0, 0, 0]	n/a	FR1	1	R1367D
2127.214	0.0	2106007	TRIAL_START	n/a	n/a	n/a	-999	16	[0, 0, 0]	n/a	FR1	1	R1367D
2127.214	1.694	2106007	REC_END	n/a	n/a	n/a	-999	15	[0, 0, 0]	n/a	FR1	1	R1367D
2128.908	0.0	2107701	ORIENT_START	n/a	n/a	n/a	-999	16	[0, 0, 0]	n/a	FR1	1	R1367D
2128.908	0.0	2107701	WAITING_END	n/a	n/a	n/a	-999	16	[0, 0, 0]	n/a	FR1	1	R1367D
2128.908	0.0	2107701	COUNTDOWN_START	n/a	n/a	n/a	-999	16	[0, 0, 0]	n/a	FR1	1	R1367D
2128.908	11.702	2107701	COUNTDOWN_END	n/a	n/a	n/a	-999	16	[0, 0, 0]	n/a	FR1	1	R1367D
2140.61	0.0	2119402	ENCODING_START	n/a	n/a	n/a	-999	16	[0, 0, 0]	n/a	FR1	1	R1367D
2140.61	1.017	2119402	ORIENT_END	n/a	n/a	n/a	-999	16	[0, 0, 0]	n/a	FR1	1	R1367D
2141.627	1.634	2120419	WORD	n/a	wordpools/wordpool_EN.txt	DOG	1	16	[0, 0, 0]	n/a	FR1	1	R1367D
2143.261	1.05	2122053	WORD_OFF	n/a	n/a	DOG	1	16	[0, 0, 0]	n/a	FR1	1	R1367D
2144.311	1.633	2123103	WORD	n/a	wordpools/wordpool_EN.txt	STAIR	2	16	[0, 0, 0]	n/a	FR1	1	R1367D
2145.944	0.792	2124736	WORD_OFF	n/a	n/a	STAIR	2	16	[0, 0, 0]	n/a	FR1	1	R1367D
2146.736	1.626	2125528	WORD	n/a	wordpools/wordpool_EN.txt	HAT	3	16	[0, 0, 0]	n/a	FR1	1	R1367D
2148.362	1.017	2127154	WORD_OFF	n/a	n/a	HAT	3	16	[0, 0, 0]	n/a	FR1	1	R1367D
2149.379	1.632	2128171	WORD	n/a	wordpools/wordpool_EN.txt	SHIRT	4	16	[0, 0, 0]	n/a	FR1	1	R1367D
2151.011	1.037	2129803	WORD_OFF	n/a	n/a	SHIRT	4	16	[0, 0, 0]	n/a	FR1	1	R1367D
2152.048	1.631	2130840	WORD	n/a	wordpools/wordpool_EN.txt	RICE	5	16	[0, 0, 0]	n/a	FR1	1	R1367D
2153.679	0.834	2132471	WORD_OFF	n/a	n/a	RICE	5	16	[0, 0, 0]	n/a	FR1	1	R1367D
2154.513	1.632	2133304	WORD	n/a	wordpools/wordpool_EN.txt	CLAY	6	16	[0, 0, 0]	n/a	FR1	1	R1367D
2156.145	0.932	2134936	WORD_OFF	n/a	n/a	CLAY	6	16	[0, 0, 0]	n/a	FR1	1	R1367D
2157.077	1.637	2135868	WORD	n/a	wordpools/wordpool_EN.txt	BENCH	7	16	[0, 0, 0]	n/a	FR1	1	R1367D
2158.714	1.034	2137505	WORD_OFF	n/a	n/a	BENCH	7	16	[0, 0, 0]	n/a	FR1	1	R1367D
2159.748	1.633	2138539	WORD	n/a	wordpools/wordpool_EN.txt	STEAK	8	16	[0, 0, 0]	n/a	FR1	1	R1367D
2161.381	0.951	2140172	WORD_OFF	n/a	n/a	STEAK	8	16	[0, 0, 0]	n/a	FR1	1	R1367D
2162.332	1.632	2141123	WORD	n/a	wordpools/wordpool_EN.txt	RAIN	9	16	[0, 0, 0]	n/a	FR1	1	R1367D
2163.964	1.065	2142755	WORD_OFF	n/a	n/a	RAIN	9	16	[0, 0, 0]	n/a	FR1	1	R1367D
2165.029	1.636	2143820	WORD	n/a	wordpools/wordpool_EN.txt	CLOTH	10	16	[0, 0, 0]	n/a	FR1	1	R1367D
2166.665	0.859	2145456	WORD_OFF	n/a	n/a	CLOTH	10	16	[0, 0, 0]	n/a	FR1	1	R1367D
2167.524	1.624	2146315	WORD	n/a	wordpools/wordpool_EN.txt	VAN	11	16	[0, 0, 0]	n/a	FR1	1	R1367D
2169.148	1.081	2147939	WORD_OFF	n/a	n/a	VAN	11	16	[0, 0, 0]	n/a	FR1	1	R1367D
2170.229	1.637	2149020	WORD	n/a	wordpools/wordpool_EN.txt	CONE	12	16	[0, 0, 0]	n/a	FR1	1	R1367D
2171.866	0.0	2150657	WORD_OFF	n/a	n/a	CONE	12	16	[0, 0, 0]	n/a	FR1	1	R1367D
2171.866	0.0	2150657	ENCODING_END	n/a	n/a	n/a	-999	16	[0, 0, 0]	n/a	FR1	1	R1367D
2171.866	0.001	2150657	DISTRACT_START	n/a	n/a	n/a	-999	16	[0, 0, 0]	n/a	FR1	1	R1367D
2171.867	0.016	2150658	START	n/a	n/a	n/a	-999	16	[-999, -999, -999]	n/a	FR1	1	R1367D
2171.883	4.1	2150674	PROB	4.1	n/a	n/a	-999	16	[2, 4, 4]	10	FR1	1	R1367D
2175.983	2.768	2154773	PROB	2.768	n/a	n/a	-999	16	[6, 6, 3]	15	FR1	1	R1367D
2178.751	2.366	2157541	PROB	2.366	n/a	n/a	-999	16	[6, 1, 7]	14	FR1	1	R1367D
2181.117	2.801	2159907	PROB	2.801	n/a	n/a	-999	16	[7, 1, 5]	13	FR1	1	R1367D
2183.918	2.484	2162708	PROB	2.484	n/a	n/a	-999	16	[5, 3, 4]	12	FR1	1	R1367D
2186.402	2.45	2165192	PROB	2.45	n/a	n/a	-999	16	[7, 1, 5]	13	FR1	1	R1367D
2188.852	4.881	2167642	PROB	4.881	n/a	n/a	-999	16	[5, 3, 8]	16	FR1	1	R1367D
2193.733	0.02	2172522	STOP	n/a	n/a	n/a	-999	16	[-999, -999, -999]	n/a	FR1	1	R1367D
2193.753	1.296	2172542	DISTRACT_END	n/a	n/a	n/a	-999	16	[0, 0, 0]	n/a	FR1	1	R1367D
2195.049	1.02	2173838	RETRIEVAL_ORIENT_START	n/a	n/a	n/a	-999	16	[0, 0, 0]	n/a	FR1	1	R1367D
2196.069	0.0	2174858	RETRIEVAL_ORIENT_END	n/a	n/a	n/a	-999	16	[0, 0, 0]	n/a	FR1	1	R1367D
2196.069	5.872	2174858	REC_START	n/a	n/a	n/a	-999	16	[0, 0, 0]	n/a	FR1	1	R1367D
2201.941	0.555	2180730	REC_WORD	0.555	n/a	STEAK	8	16	[0, 0, 0]	n/a	FR1	1	R1367D
2202.496	24.087	2181285	REC_WORD	24.087	n/a	RAIN	9	16	[0, 0, 0]	n/a	FR1	1	R1367D
2226.583	0.0	2205371	TRIAL	n/a	n/a	n/a	-999	17	[0, 0, 0]	n/a	FR1	1	R1367D
2226.583	0.0	2205371	WAITING_START	n/a	n/a	n/a	-999	17	[0, 0, 0]	n/a	FR1	1	R1367D
2226.583	0.0	2205371	TRIAL_START	n/a	n/a	n/a	-999	17	[0, 0, 0]	n/a	FR1	1	R1367D
2226.583	0.0	2205371	REC_END	n/a	n/a	n/a	-999	16	[0, 0, 0]	n/a	FR1	1	R1367D
2226.583	1.442	2205371	TRIAL_END	n/a	n/a	n/a	-999	16	[0, 0, 0]	n/a	FR1	1	R1367D
2228.025	0.0	2206813	COUNTDOWN_START	n/a	n/a	n/a	-999	17	[0, 0, 0]	n/a	FR1	1	R1367D
2228.025	0.0	2206813	COUNTDOWN_END	n/a	n/a	n/a	-999	17	[0, 0, 0]	n/a	FR1	1	R1367D
2228.025	0.0	2206813	ORIENT_START	n/a	n/a	n/a	-999	17	[0, 0, 0]	n/a	FR1	1	R1367D
2228.025	11.57	2206813	WAITING_END	n/a	n/a	n/a	-999	17	[0, 0, 0]	n/a	FR1	1	R1367D
2239.595	0.0	2218382	ORIENT_END	n/a	n/a	n/a	-999	17	[0, 0, 0]	n/a	FR1	1	R1367D
2239.595	1.124	2218382	ENCODING_START	n/a	n/a	n/a	-999	17	[0, 0, 0]	n/a	FR1	1	R1367D
2240.719	1.627	2219506	WORD	n/a	wordpools/wordpool_EN.txt	COW	1	17	[0, 0, 0]	n/a	FR1	1	R1367D
2242.346	0.973	2221133	WORD_OFF	n/a	n/a	COW	1	17	[0, 0, 0]	n/a	FR1	1	R1367D
2243.319	1.627	2222106	WORD	n/a	wordpools/wordpool_EN.txt	HOOK	2	17	[0, 0, 0]	n/a	FR1	1	R1367D
2244.946	1.105	2223733	WORD_OFF	n/a	n/a	HOOK	2	17	[0, 0, 0]	n/a	FR1	1	R1367D
2246.051	1.629	2224838	WORD	n/a	wordpools/wordpool_EN.txt	STRING	3	17	[0, 0, 0]	n/a	FR1	1	R1367D
2247.68	1.094	2226467	WORD_OFF	n/a	n/a	STRING	3	17	[0, 0, 0]	n/a	FR1	1	R1367D
2248.774	1.623	2227561	WORD	n/a	wordpools/wordpool_EN.txt	SCHOOL	4	17	[0, 0, 0]	n/a	FR1	1	R1367D
2250.397	1.015	2229183	WORD_OFF	n/a	n/a	SCHOOL	4	17	[0, 0, 0]	n/a	FR1	1	R1367D
2251.412	1.634	2230198	WORD	n/a	wordpools/wordpool_EN.txt	MILK	5	17	[0, 0, 0]	n/a	FR1	1	R1367D
2253.046	1.15	2231832	WORD_OFF	n/a	n/a	MILK	5	17	[0, 0, 0]	n/a	FR1	1	R1367D
2254.196	1.635	2232982	WORD	n/a	wordpools/wordpool_EN.txt	MAIL	6	17	[0, 0, 0]	n/a	FR1	1	R1367D
2255.831	1.134	2234617	WORD_OFF	n/a	n/a	MAIL	6	17	[0, 0, 0]	n/a	FR1	1	R1367D
2256.965	1.633	2235751	WORD	n/a	wordpools/wordpool_EN.txt	SIGN	7	17	[0, 0, 0]	n/a	FR1	1	R1367D
2258.598	1.113	2237384	WORD_OFF	n/a	n/a	SIGN	7	17	[0, 0, 0]	n/a	FR1	1	R1367D
2259.711	1.638	2238497	WORD	n/a	wordpools/wordpool_EN.txt	HORSE	8	17	[0, 0, 0]	n/a	FR1	1	R1367D
2261.349	0.9	2240135	WORD_OFF	n/a	n/a	HORSE	8	17	[0, 0, 0]	n/a	FR1	1	R1367D
2262.249	1.634	2241035	WORD	n/a	wordpools/wordpool_EN.txt	DOLL	9	17	[0, 0, 0]	n/a	FR1	1	R1367D
2263.883	1.006	2242669	WORD_OFF	n/a	n/a	DOLL	9	17	[0, 0, 0]	n/a	FR1	1	R1367D
2264.889	1.628	2243675	WORD	n/a	wordpools/wordpool_EN.txt	CUBE	10	17	[0, 0, 0]	n/a	FR1	1	R1367D
2266.517	1.12	2245303	WORD_OFF	n/a	n/a	CUBE	10	17	[0, 0, 0]	n/a	FR1	1	R1367D
2267.637	1.63	2246423	WORD	n/a	wordpools/wordpool_EN.txt	DOCK	11	17	[0, 0, 0]	n/a	FR1	1	R1367D
2269.267	1.056	2248053	WORD_OFF	n/a	n/a	DOCK	11	17	[0, 0, 0]	n/a	FR1	1	R1367D
2270.323	1.628	2249108	WORD	n/a	wordpools/wordpool_EN.txt	ZOO	12	17	[0, 0, 0]	n/a	FR1	1	R1367D
2271.951	0.0	2250736	WORD_OFF	n/a	n/a	ZOO	12	17	[0, 0, 0]	n/a	FR1	1	R1367D
2271.951	0.0	2250736	ENCODING_END	n/a	n/a	n/a	-999	17	[0, 0, 0]	n/a	FR1	1	R1367D
2271.951	0.001	2250736	DISTRACT_START	n/a	n/a	n/a	-999	17	[0, 0, 0]	n/a	FR1	1	R1367D
2271.952	0.015	2250737	START	n/a	n/a	n/a	-999	17	[-999, -999, -999]	n/a	FR1	1	R1367D
2271.967	7.769	2250752	PROB	7.769	n/a	n/a	-999	17	[4, 6, 9]	19	FR1	1	R1367D
2279.736	3.1	2258521	PROB	3.1	n/a	n/a	-999	17	[5, 2, 1]	8	FR1	1	R1367D
2282.836	3.951	2261621	PROB	3.951	n/a	n/a	-999	17	[9, 6, 5]	20	FR1	1	R1367D
2286.787	2.834	2265572	PROB	2.834	n/a	n/a	-999	17	[6, 5, 5]	16	FR1	1	R1367D
2289.621	11.03	2268405	PROB	11.03	n/a	n/a	-999	17	[7, 4, 4]	15	FR1	1	R1367D
2300.651	0.022	2279435	STOP	n/a	n/a	n/a	-999	17	[-999, -999, -999]	n/a	FR1	1	R1367D
2300.673	1.171	2279457	DISTRACT_END	n/a	n/a	n/a	-999	17	[0, 0, 0]	n/a	FR1	1	R1367D
2301.844	1.029	2280628	RETRIEVAL_ORIENT_START	n/a	n/a	n/a	-999	17	[0, 0, 0]	n/a	FR1	1	R1367D
2302.873	0.0	2281657	REC_START	n/a	n/a	n/a	-999	17	[0, 0, 0]	n/a	FR1	1	R1367D
2302.873	0.0	2281657	RETRIEVAL_ORIENT_END	n/a	n/a	n/a	-999	17	[0, 0, 0]	n/a	FR1	1	R1367D
2302.873	9.027	2281657	REC_WORD_VV	9.027	n/a	<>	-999	17	[0, 0, 0]	n/a	FR1	1	R1367D
2311.9	5.982	2290683	REC_WORD_VV	5.982	n/a	<>	-999	17	[0, 0, 0]	n/a	FR1	1	R1367D
2317.882	2.07	2296665	REC_WORD	2.07	n/a	COW	1	17	[0, 0, 0]	n/a	FR1	1	R1367D
2319.952	2.096	2298735	REC_WORD_VV	2.096	n/a	<>	-999	17	[0, 0, 0]	n/a	FR1	1	R1367D
2322.048	11.337	2300831	REC_WORD	11.337	n/a	FAIL	-999	17	[0, 0, 0]	n/a	FR1	1	R1367D
2333.385	0.0	2312167	REC_END	n/a	n/a	n/a	-999	17	[0, 0, 0]	n/a	FR1	1	R1367D
2333.385	0.0	2312167	TRIAL_END	n/a	n/a	n/a	-999	17	[0, 0, 0]	n/a	FR1	1	R1367D
2333.385	0.0	2312167	TRIAL_START	n/a	n/a	n/a	-999	18	[0, 0, 0]	n/a	FR1	1	R1367D
2333.385	0.0	2312167	TRIAL	n/a	n/a	n/a	-999	18	[0, 0, 0]	n/a	FR1	1	R1367D
2333.385	1.726	2312167	WAITING_START	n/a	n/a	n/a	-999	18	[0, 0, 0]	n/a	FR1	1	R1367D
2335.111	0.0	2313893	WAITING_END	n/a	n/a	n/a	-999	18	[0, 0, 0]	n/a	FR1	1	R1367D
2335.111	0.0	2313893	COUNTDOWN_START	n/a	n/a	n/a	-999	18	[0, 0, 0]	n/a	FR1	1	R1367D
2335.111	0.0	2313893	COUNTDOWN_END	n/a	n/a	n/a	-999	18	[0, 0, 0]	n/a	FR1	1	R1367D
2335.111	11.57	2313893	ORIENT_START	n/a	n/a	n/a	-999	18	[0, 0, 0]	n/a	FR1	1	R1367D
2346.681	0.0	2325462	ORIENT_END	n/a	n/a	n/a	-999	18	[0, 0, 0]	n/a	FR1	1	R1367D
2346.681	0.795	2325462	ENCODING_START	n/a	n/a	n/a	-999	18	[0, 0, 0]	n/a	FR1	1	R1367D
2347.476	1.621	2326257	WORD	n/a	wordpools/wordpool_EN.txt	HILL	1	18	[0, 0, 0]	n/a	FR1	1	R1367D
2349.097	0.82	2327878	WORD_OFF	n/a	n/a	HILL	1	18	[0, 0, 0]	n/a	FR1	1	R1367D
2349.917	1.632	2328698	WORD	n/a	wordpools/wordpool_EN.txt	ROCK	2	18	[0, 0, 0]	n/a	FR1	1	R1367D
2351.549	1.028	2330330	WORD_OFF	n/a	n/a	ROCK	2	18	[0, 0, 0]	n/a	FR1	1	R1367D
2352.577	1.622	2331358	WORD	n/a	wordpools/wordpool_EN.txt	SUIT	3	18	[0, 0, 0]	n/a	FR1	1	R1367D
2354.199	0.926	2332980	WORD_OFF	n/a	n/a	SUIT	3	18	[0, 0, 0]	n/a	FR1	1	R1367D
2355.125	1.625	2333906	WORD	n/a	wordpools/wordpool_EN.txt	DESK	4	18	[0, 0, 0]	n/a	FR1	1	R1367D
2356.75	0.86	2335531	WORD_OFF	n/a	n/a	DESK	4	18	[0, 0, 0]	n/a	FR1	1	R1367D
2357.61	1.623	2336391	WORD	n/a	wordpools/wordpool_EN.txt	LAND	5	18	[0, 0, 0]	n/a	FR1	1	R1367D
2359.233	1.011	2338014	WORD_OFF	n/a	n/a	LAND	5	18	[0, 0, 0]	n/a	FR1	1	R1367D
2360.244	1.623	2339025	WORD	n/a	wordpools/wordpool_EN.txt	SOAP	6	18	[0, 0, 0]	n/a	FR1	1	R1367D
2361.867	0.903	2340648	WORD_OFF	n/a	n/a	SOAP	6	18	[0, 0, 0]	n/a	FR1	1	R1367D
2362.77	1.631	2341551	WORD	n/a	wordpools/wordpool_EN.txt	ROAD	7	18	[0, 0, 0]	n/a	FR1	1	R1367D
2364.401	0.753	2343182	WORD_OFF	n/a	n/a	ROAD	7	18	[0, 0, 0]	n/a	FR1	1	R1367D
2365.154	1.631	2343935	WORD	n/a	wordpools/wordpool_EN.txt	SLIME	8	18	[0, 0, 0]	n/a	FR1	1	R1367D
2366.785	0.918	2345565	WORD_OFF	n/a	n/a	SLIME	8	18	[0, 0, 0]	n/a	FR1	1	R1367D
2367.703	1.632	2346483	WORD	n/a	wordpools/wordpool_EN.txt	PLANE	9	18	[0, 0, 0]	n/a	FR1	1	R1367D
2369.335	0.997	2348115	WORD_OFF	n/a	n/a	PLANE	9	18	[0, 0, 0]	n/a	FR1	1	R1367D
2370.332	1.637	2349112	WORD	n/a	wordpools/wordpool_EN.txt	FAN	10	18	[0, 0, 0]	n/a	FR1	1	R1367D
2371.969	0.899	2350749	WORD_OFF	n/a	n/a	FAN	10	18	[0, 0, 0]	n/a	FR1	1	R1367D
2372.868	1.635	2351648	WORD	n/a	wordpools/wordpool_EN.txt	GLASS	11	18	[0, 0, 0]	n/a	FR1	1	R1367D
2374.503	1.034	2353283	WORD_OFF	n/a	n/a	GLASS	11	18	[0, 0, 0]	n/a	FR1	1	R1367D
2375.537	1.633	2354317	WORD	n/a	wordpools/wordpool_EN.txt	NOSE	12	18	[0, 0, 0]	n/a	FR1	1	R1367D
2377.17	0.0	2355950	WORD_OFF	n/a	n/a	NOSE	12	18	[0, 0, 0]	n/a	FR1	1	R1367D
2377.17	0.0	2355950	ENCODING_END	n/a	n/a	n/a	-999	18	[0, 0, 0]	n/a	FR1	1	R1367D
2377.17	0.001	2355950	DISTRACT_START	n/a	n/a	n/a	-999	18	[0, 0, 0]	n/a	FR1	1	R1367D
2377.171	0.016	2355951	START	n/a	n/a	n/a	-999	18	[-999, -999, -999]	n/a	FR1	1	R1367D
2377.187	4.601	2355967	PROB	4.601	n/a	n/a	-999	18	[2, 3, 9]	14	FR1	1	R1367D
2381.788	2.017	2360568	PROB	2.017	n/a	n/a	-999	18	[5, 5, 1]	11	FR1	1	R1367D
2383.805	2.667	2362585	PROB	2.667	n/a	n/a	-999	18	[9, 1, 6]	16	FR1	1	R1367D
2386.472	2.35	2365251	PROB	2.35	n/a	n/a	-999	18	[2, 3, 5]	10	FR1	1	R1367D
2388.822	5.651	2367601	PROB	5.651	n/a	n/a	-999	18	[8, 9, 9]	26	FR1	1	R1367D
2394.473	1.934	2373252	PROB	1.934	n/a	n/a	-999	18	[1, 2, 8]	11	FR1	1	R1367D
2396.407	2.338	2375186	PROB	2.338	n/a	n/a	-999	18	[1, 6, 9]	16	FR1	1	R1367D
2398.745	0.012	2377524	STOP	n/a	n/a	n/a	-999	18	[-999, -999, -999]	n/a	FR1	1	R1367D
2398.757	1.188	2377536	DISTRACT_END	n/a	n/a	n/a	-999	18	[0, 0, 0]	n/a	FR1	1	R1367D
2399.945	1.029	2378724	RETRIEVAL_ORIENT_START	n/a	n/a	n/a	-999	18	[0, 0, 0]	n/a	FR1	1	R1367D
2400.974	0.0	2379753	RETRIEVAL_ORIENT_END	n/a	n/a	n/a	-999	18	[0, 0, 0]	n/a	FR1	1	R1367D
2400.974	1.17	2379753	REC_START	n/a	n/a	n/a	-999	18	[0, 0, 0]	n/a	FR1	1	R1367D
2402.144	0.436	2380923	REC_WORD	0.436	n/a	HILL	1	18	[0, 0, 0]	n/a	FR1	1	R1367D
2402.58	1.577	2381359	REC_WORD	1.577	n/a	ROCK	2	18	[0, 0, 0]	n/a	FR1	1	R1367D
2404.157	2.594	2382935	REC_WORD	2.594	n/a	SOAP	6	18	[0, 0, 0]	n/a	FR1	1	R1367D
2406.751	2.025	2385529	REC_WORD	2.025	n/a	PLANE	9	18	[0, 0, 0]	n/a	FR1	1	R1367D
2408.776	12.613	2387554	REC_WORD	12.613	n/a	DESK	4	18	[0, 0, 0]	n/a	FR1	1	R1367D
2421.389	10.1	2400167	REC_WORD	10.1	n/a	COW	-999	18	[0, 0, 0]	n/a	FR1	1	R1367D
2431.489	0.0	2410266	REC_END	n/a	n/a	n/a	-999	18	[0, 0, 0]	n/a	FR1	1	R1367D
2431.489	0.0	2410266	TRIAL_END	n/a	n/a	n/a	-999	18	[0, 0, 0]	n/a	FR1	1	R1367D
2431.489	0.0	2410266	TRIAL_START	n/a	n/a	n/a	-999	19	[0, 0, 0]	n/a	FR1	1	R1367D
2431.489	0.0	2410266	TRIAL	n/a	n/a	n/a	-999	19	[0, 0, 0]	n/a	FR1	1	R1367D
2431.489	1.458	2410266	WAITING_START	n/a	n/a	n/a	-999	19	[0, 0, 0]	n/a	FR1	1	R1367D
2432.947	0.0	2411724	ORIENT_START	n/a	n/a	n/a	-999	19	[0, 0, 0]	n/a	FR1	1	R1367D
2432.947	0.0	2411724	WAITING_END	n/a	n/a	n/a	-999	19	[0, 0, 0]	n/a	FR1	1	R1367D
2432.947	0.0	2411724	COUNTDOWN_START	n/a	n/a	n/a	-999	19	[0, 0, 0]	n/a	FR1	1	R1367D
2432.947	11.569	2411724	COUNTDOWN_END	n/a	n/a	n/a	-999	19	[0, 0, 0]	n/a	FR1	1	R1367D
2444.516	0.0	2423292	ORIENT_END	n/a	n/a	n/a	-999	19	[0, 0, 0]	n/a	FR1	1	R1367D
2444.516	1.042	2423292	ENCODING_START	n/a	n/a	n/a	-999	19	[0, 0, 0]	n/a	FR1	1	R1367D
2445.558	1.625	2424334	WORD	n/a	wordpools/wordpool_EN.txt	MAZE	1	19	[0, 0, 0]	n/a	FR1	1	R1367D
2447.183	0.928	2425959	WORD_OFF	n/a	n/a	MAZE	1	19	[0, 0, 0]	n/a	FR1	1	R1367D
2448.111	1.622	2426887	WORD	n/a	wordpools/wordpool_EN.txt	BEACH	2	19	[0, 0, 0]	n/a	FR1	1	R1367D
2449.733	1.135	2428509	WORD_OFF	n/a	n/a	BEACH	2	19	[0, 0, 0]	n/a	FR1	1	R1367D
2450.868	1.633	2429644	WORD	n/a	wordpools/wordpool_EN.txt	OWL	3	19	[0, 0, 0]	n/a	FR1	1	R1367D
2452.501	0.869	2431277	WORD_OFF	n/a	n/a	OWL	3	19	[0, 0, 0]	n/a	FR1	1	R1367D
2453.37	1.63	2432146	WORD	n/a	wordpools/wordpool_EN.txt	CHALK	4	19	[0, 0, 0]	n/a	FR1	1	R1367D
2455.0	0.996	2433776	WORD_OFF	n/a	n/a	CHALK	4	19	[0, 0, 0]	n/a	FR1	1	R1367D
2455.996	1.622	2434772	WORD	n/a	wordpools/wordpool_EN.txt	THREAD	5	19	[0, 0, 0]	n/a	FR1	1	R1367D
2457.618	0.796	2436394	WORD_OFF	n/a	n/a	THREAD	5	19	[0, 0, 0]	n/a	FR1	1	R1367D
2458.414	1.637	2437190	WORD	n/a	wordpools/wordpool_EN.txt	KITE	6	19	[0, 0, 0]	n/a	FR1	1	R1367D
2460.051	0.812	2438827	WORD_OFF	n/a	n/a	KITE	6	19	[0, 0, 0]	n/a	FR1	1	R1367D
2460.863	1.623	2439639	WORD	n/a	wordpools/wordpool_EN.txt	CAGE	7	19	[0, 0, 0]	n/a	FR1	1	R1367D
2462.486	0.945	2441261	WORD_OFF	n/a	n/a	CAGE	7	19	[0, 0, 0]	n/a	FR1	1	R1367D
2463.431	1.637	2442206	WORD	n/a	wordpools/wordpool_EN.txt	POLE	8	19	[0, 0, 0]	n/a	FR1	1	R1367D
2465.068	0.83	2443843	WORD_OFF	n/a	n/a	POLE	8	19	[0, 0, 0]	n/a	FR1	1	R1367D
2465.898	1.639	2444673	WORD	n/a	wordpools/wordpool_EN.txt	BLOOM	9	19	[0, 0, 0]	n/a	FR1	1	R1367D
2467.537	0.837	2446312	WORD_OFF	n/a	n/a	BLOOM	9	19	[0, 0, 0]	n/a	FR1	1	R1367D
2468.374	1.628	2447149	WORD	n/a	wordpools/wordpool_EN.txt	POND	10	19	[0, 0, 0]	n/a	FR1	1	R1367D
2470.002	0.836	2448777	WORD_OFF	n/a	n/a	POND	10	19	[0, 0, 0]	n/a	FR1	1	R1367D
2470.838	1.633	2449613	WORD	n/a	wordpools/wordpool_EN.txt	MAP	11	19	[0, 0, 0]	n/a	FR1	1	R1367D
2472.471	0.868	2451246	WORD_OFF	n/a	n/a	MAP	11	19	[0, 0, 0]	n/a	FR1	1	R1367D
2473.339	1.632	2452114	WORD	n/a	wordpools/wordpool_EN.txt	DRUM	12	19	[0, 0, 0]	n/a	FR1	1	R1367D
2474.971	0.0	2453746	WORD_OFF	n/a	n/a	DRUM	12	19	[0, 0, 0]	n/a	FR1	1	R1367D
2474.971	0.0	2453746	ENCODING_END	n/a	n/a	n/a	-999	19	[0, 0, 0]	n/a	FR1	1	R1367D
2474.971	0.001	2453746	DISTRACT_START	n/a	n/a	n/a	-999	19	[0, 0, 0]	n/a	FR1	1	R1367D
2474.972	0.016	2453747	START	n/a	n/a	n/a	-999	19	[-999, -999, -999]	n/a	FR1	1	R1367D
2474.988	3.667	2453763	PROB	3.667	n/a	n/a	-999	19	[8, 9, 1]	18	FR1	1	R1367D
2478.655	6.801	2457430	PROB	6.801	n/a	n/a	-999	19	[4, 5, 7]	16	FR1	1	R1367D
2485.456	4.101	2464230	PROB	4.101	n/a	n/a	-999	19	[6, 3, 4]	13	FR1	1	R1367D
2489.557	2.701	2468331	PROB	2.701	n/a	n/a	-999	19	[1, 9, 9]	19	FR1	1	R1367D
2492.258	2.2	2471032	PROB	2.2	n/a	n/a	-999	19	[6, 4, 1]	11	FR1	1	R1367D
2494.458	3.474	2473232	PROB	3.474	n/a	n/a	-999	19	[4, 8, 4]	16	FR1	1	R1367D
2497.932	0.01	2476706	STOP	n/a	n/a	n/a	-999	19	[-999, -999, -999]	n/a	FR1	1	R1367D
2497.942	1.148	2476716	DISTRACT_END	n/a	n/a	n/a	-999	19	[0, 0, 0]	n/a	FR1	1	R1367D
2499.09	1.018	2477864	RETRIEVAL_ORIENT_START	n/a	n/a	n/a	-999	19	[0, 0, 0]	n/a	FR1	1	R1367D
2500.108	0.0	2478881	RETRIEVAL_ORIENT_END	n/a	n/a	n/a	-999	19	[0, 0, 0]	n/a	FR1	1	R1367D
2500.108	3.511	2478881	REC_START	n/a	n/a	n/a	-999	19	[0, 0, 0]	n/a	FR1	1	R1367D
2503.619	4.376	2482392	REC_WORD	4.376	n/a	POLE	8	19	[0, 0, 0]	n/a	FR1	1	R1367D
2507.995	5.263	2486768	REC_WORD	5.263	n/a	FROG	-999	19	[0, 0, 0]	n/a	FR1	1	R1367D
2513.258	2.658	2492031	REC_WORD	2.658	n/a	POND	10	19	[0, 0, 0]	n/a	FR1	1	R1367D
2515.916	3.839	2494689	REC_WORD	3.839	n/a	CUP	-999	19	[0, 0, 0]	n/a	FR1	1	R1367D
2519.755	1.56	2498527	REC_WORD	1.56	n/a	OAK	-999	19	[0, 0, 0]	n/a	FR1	1	R1367D
2521.315	3.093	2500087	REC_WORD	3.093	n/a	OWL	3	19	[0, 0, 0]	n/a	FR1	1	R1367D
2524.408	6.212	2503180	REC_WORD	6.212	n/a	MAZE	1	19	[0, 0, 0]	n/a	FR1	1	R1367D
2530.62	0.0	2509392	WAITING_START	n/a	n/a	n/a	-999	20	[0, 0, 0]	n/a	FR1	1	R1367D
2530.62	0.0	2509392	TRIAL	n/a	n/a	n/a	-999	20	[0, 0, 0]	n/a	FR1	1	R1367D
2530.62	0.0	2509392	TRIAL_END	n/a	n/a	n/a	-999	19	[0, 0, 0]	n/a	FR1	1	R1367D
2530.62	0.0	2509392	TRIAL_START	n/a	n/a	n/a	-999	20	[0, 0, 0]	n/a	FR1	1	R1367D
2530.62	2.645	2509392	REC_END	n/a	n/a	n/a	-999	19	[0, 0, 0]	n/a	FR1	1	R1367D
2533.265	0.0	2512037	WAITING_END	n/a	n/a	n/a	-999	20	[0, 0, 0]	n/a	FR1	1	R1367D
2533.265	0.0	2512037	COUNTDOWN_START	n/a	n/a	n/a	-999	20	[0, 0, 0]	n/a	FR1	1	R1367D
2533.265	0.0	2512037	COUNTDOWN_END	n/a	n/a	n/a	-999	20	[0, 0, 0]	n/a	FR1	1	R1367D
2533.265	11.586	2512037	ORIENT_START	n/a	n/a	n/a	-999	20	[0, 0, 0]	n/a	FR1	1	R1367D
2544.851	0.0	2523622	ORIENT_END	n/a	n/a	n/a	-999	20	[0, 0, 0]	n/a	FR1	1	R1367D
2544.851	1.081	2523622	ENCODING_START	n/a	n/a	n/a	-999	20	[0, 0, 0]	n/a	FR1	1	R1367D
2545.932	1.636	2524703	WORD	n/a	wordpools/wordpool_EN.txt	TOOL	1	20	[0, 0, 0]	n/a	FR1	1	R1367D
2547.568	0.869	2526339	WORD_OFF	n/a	n/a	TOOL	1	20	[0, 0, 0]	n/a	FR1	1	R1367D
2548.437	1.63	2527208	WORD	n/a	wordpools/wordpool_EN.txt	SKY	2	20	[0, 0, 0]	n/a	FR1	1	R1367D
2550.067	1.047	2528838	WORD_OFF	n/a	n/a	SKY	2	20	[0, 0, 0]	n/a	FR1	1	R1367D
2551.114	1.638	2529885	WORD	n/a	wordpools/wordpool_EN.txt	LAMP	3	20	[0, 0, 0]	n/a	FR1	1	R1367D
2552.752	0.929	2531523	WORD_OFF	n/a	n/a	LAMP	3	20	[0, 0, 0]	n/a	FR1	1	R1367D
2553.681	1.638	2532452	WORD	n/a	wordpools/wordpool_EN.txt	BRUSH	4	20	[0, 0, 0]	n/a	FR1	1	R1367D
2555.319	0.827	2534090	WORD_OFF	n/a	n/a	BRUSH	4	20	[0, 0, 0]	n/a	FR1	1	R1367D
2556.146	1.624	2534917	WORD	n/a	wordpools/wordpool_EN.txt	CART	5	20	[0, 0, 0]	n/a	FR1	1	R1367D
2557.77	1.109	2536540	WORD_OFF	n/a	n/a	CART	5	20	[0, 0, 0]	n/a	FR1	1	R1367D
2558.879	1.625	2537649	WORD	n/a	wordpools/wordpool_EN.txt	SUN	6	20	[0, 0, 0]	n/a	FR1	1	R1367D
2560.504	1.026	2539274	WORD_OFF	n/a	n/a	SUN	6	20	[0, 0, 0]	n/a	FR1	1	R1367D
2561.53	1.624	2540300	WORD	n/a	wordpools/wordpool_EN.txt	PASTE	7	20	[0, 0, 0]	n/a	FR1	1	R1367D
2563.154	0.821	2541924	WORD_OFF	n/a	n/a	PASTE	7	20	[0, 0, 0]	n/a	FR1	1	R1367D
2563.975	1.629	2542745	WORD	n/a	wordpools/wordpool_EN.txt	PIPE	8	20	[0, 0, 0]	n/a	FR1	1	R1367D
2565.604	1.009	2544374	WORD_OFF	n/a	n/a	PIPE	8	20	[0, 0, 0]	n/a	FR1	1	R1367D
2566.613	1.625	2545383	WORD	n/a	wordpools/wordpool_EN.txt	FOOT	9	20	[0, 0, 0]	n/a	FR1	1	R1367D
2568.238	0.812	2547008	WORD_OFF	n/a	n/a	FOOT	9	20	[0, 0, 0]	n/a	FR1	1	R1367D
2569.05	1.606	2547820	WORD	n/a	wordpools/wordpool_EN.txt	MUD	10	20	[0, 0, 0]	n/a	FR1	1	R1367D
2570.656	1.091	2549426	WORD_OFF	n/a	n/a	MUD	10	20	[0, 0, 0]	n/a	FR1	1	R1367D
2571.747	1.626	2550517	WORD	n/a	wordpools/wordpool_EN.txt	ROSE	11	20	[0, 0, 0]	n/a	FR1	1	R1367D
2573.373	1.146	2552143	WORD_OFF	n/a	n/a	ROSE	11	20	[0, 0, 0]	n/a	FR1	1	R1367D
2574.519	1.637	2553289	WORD	n/a	wordpools/wordpool_EN.txt	SEA	12	20	[0, 0, 0]	n/a	FR1	1	R1367D
2576.156	0.0	2554926	WORD_OFF	n/a	n/a	SEA	12	20	[0, 0, 0]	n/a	FR1	1	R1367D
2576.156	0.0	2554926	ENCODING_END	n/a	n/a	n/a	-999	20	[0, 0, 0]	n/a	FR1	1	R1367D
2576.156	0.001	2554926	DISTRACT_START	n/a	n/a	n/a	-999	20	[0, 0, 0]	n/a	FR1	1	R1367D
2576.157	0.016	2554927	START	n/a	n/a	n/a	-999	20	[-999, -999, -999]	n/a	FR1	1	R1367D
2576.173	4.051	2554943	PROB	4.051	n/a	n/a	-999	20	[4, 2, 7]	13	FR1	1	R1367D
2580.224	10.635	2558993	PROB	10.635	n/a	n/a	-999	20	[7, 5, 9]	21	FR1	1	R1367D
2590.859	2.834	2569628	PROB	2.834	n/a	n/a	-999	20	[9, 4, 9]	22	FR1	1	R1367D
2593.693	3.004	2572462	PROB	3.004	n/a	n/a	-999	20	[7, 9, 1]	17	FR1	1	R1367D
2596.697	0.013	2575465	STOP	n/a	n/a	n/a	-999	20	[-999, -999, -999]	n/a	FR1	1	R1367D
2596.71	1.2	2575478	DISTRACT_END	n/a	n/a	n/a	-999	20	[0, 0, 0]	n/a	FR1	1	R1367D
2597.91	1.034	2576678	RETRIEVAL_ORIENT_START	n/a	n/a	n/a	-999	20	[0, 0, 0]	n/a	FR1	1	R1367D
2598.944	0.0	2577712	RETRIEVAL_ORIENT_END	n/a	n/a	n/a	-999	20	[0, 0, 0]	n/a	FR1	1	R1367D
2598.944	1.324	2577712	REC_START	n/a	n/a	n/a	-999	20	[0, 0, 0]	n/a	FR1	1	R1367D
2600.268	1.03	2579036	REC_WORD	1.03	n/a	ROSE	11	20	[0, 0, 0]	n/a	FR1	1	R1367D
2601.298	15.129	2580066	REC_WORD	15.129	n/a	SEA	12	20	[0, 0, 0]	n/a	FR1	1	R1367D
2616.427	4.828	2595194	REC_WORD	4.828	n/a	HOLE	-999	20	[0, 0, 0]	n/a	FR1	1	R1367D
2621.255	3.92	2600022	REC_WORD	3.92	n/a	FREE	-999	20	[0, 0, 0]	n/a	FR1	1	R1367D
2625.175	4.281	2603942	REC_WORD	4.281	n/a	BEEP	-999	20	[0, 0, 0]	n/a	FR1	1	R1367D
2629.456	0.0	2608223	REC_END	n/a	n/a	n/a	-999	20	[0, 0, 0]	n/a	FR1	1	R1367D
2629.456	0.0	2608223	TRIAL_START	n/a	n/a	n/a	-999	21	[0, 0, 0]	n/a	FR1	1	R1367D
2629.456	0.0	2608223	TRIAL	n/a	n/a	n/a	-999	21	[0, 0, 0]	n/a	FR1	1	R1367D
2629.456	0.0	2608223	WAITING_START	n/a	n/a	n/a	-999	21	[0, 0, 0]	n/a	FR1	1	R1367D
2629.456	1.194	2608223	TRIAL_END	n/a	n/a	n/a	-999	20	[0, 0, 0]	n/a	FR1	1	R1367D
2630.65	0.0	2609417	ORIENT_START	n/a	n/a	n/a	-999	21	[0, 0, 0]	n/a	FR1	1	R1367D
2630.65	0.0	2609417	WAITING_END	n/a	n/a	n/a	-999	21	[0, 0, 0]	n/a	FR1	1	R1367D
2630.65	0.0	2609417	COUNTDOWN_START	n/a	n/a	n/a	-999	21	[0, 0, 0]	n/a	FR1	1	R1367D
2630.65	11.618	2609417	COUNTDOWN_END	n/a	n/a	n/a	-999	21	[0, 0, 0]	n/a	FR1	1	R1367D
2642.268	0.0	2621034	ENCODING_START	n/a	n/a	n/a	-999	21	[0, 0, 0]	n/a	FR1	1	R1367D
2642.268	0.892	2621034	ORIENT_END	n/a	n/a	n/a	-999	21	[0, 0, 0]	n/a	FR1	1	R1367D
2643.16	1.626	2621926	WORD	n/a	wordpools/wordpool_EN.txt	NAIL	1	21	[0, 0, 0]	n/a	FR1	1	R1367D
2644.786	0.943	2623552	WORD_OFF	n/a	n/a	NAIL	1	21	[0, 0, 0]	n/a	FR1	1	R1367D
2645.729	1.624	2624495	WORD	n/a	wordpools/wordpool_EN.txt	THUMB	2	21	[0, 0, 0]	n/a	FR1	1	R1367D
2647.353	1.113	2626119	WORD_OFF	n/a	n/a	THUMB	2	21	[0, 0, 0]	n/a	FR1	1	R1367D
2648.466	1.636	2627232	WORD	n/a	wordpools/wordpool_EN.txt	BOARD	3	21	[0, 0, 0]	n/a	FR1	1	R1367D
2650.102	0.807	2628868	WORD_OFF	n/a	n/a	BOARD	3	21	[0, 0, 0]	n/a	FR1	1	R1367D
2650.909	1.628	2629675	WORD	n/a	wordpools/wordpool_EN.txt	BRANCH	4	21	[0, 0, 0]	n/a	FR1	1	R1367D
2652.537	1.14	2631303	WORD_OFF	n/a	n/a	BRANCH	4	21	[0, 0, 0]	n/a	FR1	1	R1367D
2653.677	1.627	2632443	WORD	n/a	wordpools/wordpool_EN.txt	TEA	5	21	[0, 0, 0]	n/a	FR1	1	R1367D
2655.304	1.087	2634069	WORD_OFF	n/a	n/a	TEA	5	21	[0, 0, 0]	n/a	FR1	1	R1367D
2656.391	1.629	2635156	WORD	n/a	wordpools/wordpool_EN.txt	PIT	6	21	[0, 0, 0]	n/a	FR1	1	R1367D
2658.02	0.807	2636785	WORD_OFF	n/a	n/a	PIT	6	21	[0, 0, 0]	n/a	FR1	1	R1367D
2658.827	1.628	2637592	WORD	n/a	wordpools/wordpool_EN.txt	BANK	7	21	[0, 0, 0]	n/a	FR1	1	R1367D
2660.455	0.998	2639220	WORD_OFF	n/a	n/a	BANK	7	21	[0, 0, 0]	n/a	FR1	1	R1367D
2661.453	1.635	2640218	WORD	n/a	wordpools/wordpool_EN.txt	EEL	8	21	[0, 0, 0]	n/a	FR1	1	R1367D
2663.088	0.806	2641853	WORD_OFF	n/a	n/a	EEL	8	21	[0, 0, 0]	n/a	FR1	1	R1367D
2663.894	1.629	2642659	WORD	n/a	wordpools/wordpool_EN.txt	TOE	9	21	[0, 0, 0]	n/a	FR1	1	R1367D
2665.523	1.126	2644288	WORD_OFF	n/a	n/a	TOE	9	21	[0, 0, 0]	n/a	FR1	1	R1367D
2666.649	1.624	2645414	WORD	n/a	wordpools/wordpool_EN.txt	BOAT	10	21	[0, 0, 0]	n/a	FR1	1	R1367D
2668.273	0.991	2647038	WORD_OFF	n/a	n/a	BOAT	10	21	[0, 0, 0]	n/a	FR1	1	R1367D
2669.264	1.626	2648029	WORD	n/a	wordpools/wordpool_EN.txt	RAT	11	21	[0, 0, 0]	n/a	FR1	1	R1367D
2670.89	1.112	2649655	WORD_OFF	n/a	n/a	RAT	11	21	[0, 0, 0]	n/a	FR1	1	R1367D
2672.002	1.639	2650767	WORD	n/a	wordpools/wordpool_EN.txt	CLIFF	12	21	[0, 0, 0]	n/a	FR1	1	R1367D
2673.641	0.0	2652405	ENCODING_END	n/a	n/a	n/a	-999	21	[0, 0, 0]	n/a	FR1	1	R1367D
2673.641	0.0	2652405	DISTRACT_START	n/a	n/a	n/a	-999	21	[0, 0, 0]	n/a	FR1	1	R1367D
2673.641	0.001	2652405	WORD_OFF	n/a	n/a	CLIFF	12	21	[0, 0, 0]	n/a	FR1	1	R1367D
2673.642	0.016	2652406	START	n/a	n/a	n/a	-999	21	[-999, -999, -999]	n/a	FR1	1	R1367D
2673.658	7.768	2652422	PROB	7.768	n/a	n/a	-999	21	[7, 8, 7]	22	FR1	1	R1367D
2681.426	3.284	2660190	PROB	3.284	n/a	n/a	-999	21	[9, 2, 2]	13	FR1	1	R1367D
2684.71	2.45	2663474	PROB	2.45	n/a	n/a	-999	21	[4, 2, 1]	7	FR1	1	R1367D
2687.16	4.351	2665924	PROB	4.351	n/a	n/a	-999	21	[7, 6, 3]	16	FR1	1	R1367D
2691.511	5.08	2670275	PROB	5.08	n/a	n/a	-999	21	[8, 4, 6]	18	FR1	1	R1367D
