onset	duration	sample	trial_type	response_time	stim_file	item_name	serialpos	list	test	answer	experiment	session	subject
0.0	33.714	4946407	SESS_START	n/a	n/a	n/a	-999	-999	[0, 0, 0]	n/a	FR1	2	R1068J
33.714	10.428	4980120	COUNTDOWN_START	n/a	n/a	n/a	-999	-999	[0, 0, 0]	n/a	FR1	2	R1068J
44.142	3.69	4990548	COUNTDOWN_END	n/a	n/a	n/a	-999	-999	[0, 0, 0]	n/a	FR1	2	R1068J
47.832	2.417	4994238	PRACTICE_WORD	n/a	n/a	WAGON	1	-1	[0, 0, 0]	n/a	FR1	2	R1068J
50.249	2.567	4996655	PRACTICE_WORD	n/a	n/a	WATCH	2	-1	[0, 0, 0]	n/a	FR1	2	R1068J
52.816	2.417	4999222	PRACTICE_WORD	n/a	n/a	COTTON	3	-1	[0, 0, 0]	n/a	FR1	2	R1068J
55.233	2.484	5001639	PRACTICE_WORD	n/a	n/a	TONGUE	4	-1	[0, 0, 0]	n/a	FR1	2	R1068J
57.717	2.4	5004123	PRACTICE_WORD	n/a	n/a	BEAM	5	-1	[0, 0, 0]	n/a	FR1	2	R1068J
60.117	2.368	5006523	PRACTICE_WORD	n/a	n/a	FLOOD	6	-1	[0, 0, 0]	n/a	FR1	2	R1068J
62.485	2.533	5008891	PRACTICE_WORD	n/a	n/a	IRON	7	-1	[0, 0, 0]	n/a	FR1	2	R1068J
65.018	2.551	5011424	PRACTICE_WORD	n/a	n/a	CHEST	8	-1	[0, 0, 0]	n/a	FR1	2	R1068J
67.569	2.5	5013974	PRACTICE_WORD	n/a	n/a	ATTIC	9	-1	[0, 0, 0]	n/a	FR1	2	R1068J
70.069	2.601	5016474	PRACTICE_WORD	n/a	n/a	CAMEL	10	-1	[0, 0, 0]	n/a	FR1	2	R1068J
72.67	2.433	5019075	PRACTICE_WORD	n/a	n/a	RHINO	11	-1	[0, 0, 0]	n/a	FR1	2	R1068J
75.103	1.617	5021508	PRACTICE_WORD	n/a	n/a	RING	12	-1	[0, 0, 0]	n/a	FR1	2	R1068J
76.72	0.0	5023125	PRACTICE_DISTRACT_START	n/a	n/a	n/a	-999	-1	[0, 0, 0]	n/a	FR1	2	R1068J
76.72	0.016	5023125	START	n/a	n/a	n/a	-999	-1	[-999, -999, -999]	n/a	FR1	2	R1068J
76.736	5.151	5023141	PROB	5.151	n/a	n/a	-999	-1	[9, 1, 7]	17	FR1	2	R1068J
81.887	2.668	5028292	PROB	2.668	n/a	n/a	-999	-1	[2, 8, 3]	13	FR1	2	R1068J
84.555	2.666	5030960	PROB	2.666	n/a	n/a	-999	-1	[4, 5, 1]	10	FR1	2	R1068J
87.221	5.568	5033626	PROB	5.568	n/a	n/a	-999	-1	[7, 6, 6]	19	FR1	2	R1068J
92.789	5.438	5039194	PROB	5.438	n/a	n/a	-999	-1	[9, 4, 8]	21	FR1	2	R1068J
98.227	0.013	5044632	STOP	n/a	n/a	n/a	-999	-1	[-999, -999, -999]	n/a	FR1	2	R1068J
98.24	0.602	5044645	PRACTICE_DISTRACT_END	n/a	n/a	n/a	-999	-1	[0, 0, 0]	n/a	FR1	2	R1068J
98.842	30.514	5045247	PRACTICE_REC_START	n/a	n/a	n/a	-999	-1	[0, 0, 0]	n/a	FR1	2	R1068J
129.356	8.022	5075760	PRACTICE_REC_END	n/a	n/a	n/a	-999	-1	[0, 0, 0]	n/a	FR1	2	R1068J
137.378	0.0	5083782	TRIAL	n/a	n/a	n/a	-999	1	[0, 0, 0]	n/a	FR1	2	R1068J
137.378	10.428	5083782	COUNTDOWN_START	n/a	n/a	n/a	-999	1	[0, 0, 0]	n/a	FR1	2	R1068J
147.806	0.007	5094210	COUNTDOWN_END	n/a	n/a	n/a	-999	1	[0, 0, 0]	n/a	FR1	2	R1068J
147.813	2.601	5094217	ORIENT	n/a	n/a	n/a	-999	1	[0, 0, 0]	n/a	FR1	2	R1068J
150.414	2.383	5096818	WORD	n/a	wordpools/wordpool_EN.txt	YARD	1	1	[0, 0, 0]	n/a	FR1	2	R1068J
152.797	2.401	5099201	WORD	n/a	wordpools/wordpool_EN.txt	HORN	2	1	[0, 0, 0]	n/a	FR1	2	R1068J
155.198	2.583	5101602	WORD	n/a	wordpools/wordpool_EN.txt	MOOSE	3	1	[0, 0, 0]	n/a	FR1	2	R1068J
157.781	2.567	5104185	WORD	n/a	wordpools/wordpool_EN.txt	GUARD	4	1	[0, 0, 0]	n/a	FR1	2	R1068J
160.348	2.468	5106752	WORD	n/a	wordpools/wordpool_EN.txt	SPOON	5	1	[0, 0, 0]	n/a	FR1	2	R1068J
162.816	2.483	5109220	WORD	n/a	wordpools/wordpool_EN.txt	PALM	6	1	[0, 0, 0]	n/a	FR1	2	R1068J
165.299	2.417	5111703	WORD	n/a	wordpools/wordpool_EN.txt	GOAT	7	1	[0, 0, 0]	n/a	FR1	2	R1068J
167.716	2.601	5114120	WORD	n/a	wordpools/wordpool_EN.txt	SINK	8	1	[0, 0, 0]	n/a	FR1	2	R1068J
170.317	2.617	5116721	WORD	n/a	wordpools/wordpool_EN.txt	HAT	9	1	[0, 0, 0]	n/a	FR1	2	R1068J
172.934	2.383	5119338	WORD	n/a	wordpools/wordpool_EN.txt	SMILE	10	1	[0, 0, 0]	n/a	FR1	2	R1068J
175.317	2.417	5121721	WORD	n/a	wordpools/wordpool_EN.txt	HOLE	11	1	[0, 0, 0]	n/a	FR1	2	R1068J
177.734	1.617	5124138	WORD	n/a	wordpools/wordpool_EN.txt	LIP	12	1	[0, 0, 0]	n/a	FR1	2	R1068J
179.351	0.001	5125754	DISTRACT_START	n/a	n/a	n/a	-999	1	[0, 0, 0]	n/a	FR1	2	R1068J
179.352	0.016	5125755	START	n/a	n/a	n/a	-999	1	[-999, -999, -999]	n/a	FR1	2	R1068J
179.368	6.135	5125771	PROB	6.135	n/a	n/a	-999	1	[7, 1, 9]	17	FR1	2	R1068J
185.503	3.733	5131906	PROB	3.733	n/a	n/a	-999	1	[5, 5, 4]	14	FR1	2	R1068J
189.236	3.7	5135639	PROB	3.7	n/a	n/a	-999	1	[4, 4, 8]	16	FR1	2	R1068J
192.936	4.951	5139339	PROB	4.951	n/a	n/a	-999	1	[8, 7, 9]	24	FR1	2	R1068J
197.887	4.065	5144290	PROB	4.065	n/a	n/a	-999	1	[1, 8, 8]	17	FR1	2	R1068J
201.952	0.019	5148355	STOP	n/a	n/a	n/a	-999	1	[-999, -999, -999]	n/a	FR1	2	R1068J
201.971	1.155	5148374	DISTRACT_END	n/a	n/a	n/a	-999	1	[0, 0, 0]	n/a	FR1	2	R1068J
203.126	1.333	5149529	REC_START	n/a	n/a	n/a	-999	1	[0, 0, 0]	n/a	FR1	2	R1068J
204.459	0.271	5150862	REC_WORD_VV	0.271	n/a	<>	-999	1	[0, 0, 0]	n/a	FR1	2	R1068J
204.73	1.617	5151133	REC_WORD	1.617	n/a	YARD	1	1	[0, 0, 0]	n/a	FR1	2	R1068J
206.347	1.36	5152750	REC_WORD	1.36	n/a	MOOSE	3	1	[0, 0, 0]	n/a	FR1	2	R1068J
207.707	2.214	5154110	REC_WORD	2.214	n/a	PALM	6	1	[0, 0, 0]	n/a	FR1	2	R1068J
209.921	2.738	5156324	REC_WORD	2.738	n/a	GOAT	7	1	[0, 0, 0]	n/a	FR1	2	R1068J
212.659	0.88	5159062	REC_WORD_VV	0.88	n/a	<>	-999	1	[0, 0, 0]	n/a	FR1	2	R1068J
213.539	3.181	5159942	REC_WORD	3.181	n/a	HORN	2	1	[0, 0, 0]	n/a	FR1	2	R1068J
216.72	0.841	5163123	REC_WORD_VV	0.841	n/a	<>	-999	1	[0, 0, 0]	n/a	FR1	2	R1068J
217.561	0.5	5163964	REC_WORD	0.5	n/a	HOLE	11	1	[0, 0, 0]	n/a	FR1	2	R1068J
218.061	3.507	5164464	REC_WORD_VV	3.507	n/a	<>	-999	1	[0, 0, 0]	n/a	FR1	2	R1068J
221.568	3.134	5167971	REC_WORD	3.134	n/a	HAT	9	1	[0, 0, 0]	n/a	FR1	2	R1068J
224.702	3.397	5171105	REC_WORD_VV	3.397	n/a	<>	-999	1	[0, 0, 0]	n/a	FR1	2	R1068J
228.099	1.0	5174502	REC_WORD_VV	1.0	n/a	<>	-999	1	[0, 0, 0]	n/a	FR1	2	R1068J
229.099	4.032	5175502	REC_WORD_VV	4.032	n/a	<>	-999	1	[0, 0, 0]	n/a	FR1	2	R1068J
233.131	4.762	5179534	REC_END	n/a	n/a	n/a	-999	1	[0, 0, 0]	n/a	FR1	2	R1068J
237.893	0.0	5184295	TRIAL	n/a	n/a	n/a	-999	2	[0, 0, 0]	n/a	FR1	2	R1068J
237.893	10.428	5184295	COUNTDOWN_START	n/a	n/a	n/a	-999	2	[0, 0, 0]	n/a	FR1	2	R1068J
248.321	0.007	5194723	COUNTDOWN_END	n/a	n/a	n/a	-999	2	[0, 0, 0]	n/a	FR1	2	R1068J
248.328	2.45	5194730	ORIENT	n/a	n/a	n/a	-999	2	[0, 0, 0]	n/a	FR1	2	R1068J
250.778	2.467	5197180	WORD	n/a	wordpools/wordpool_EN.txt	CAVE	1	2	[0, 0, 0]	n/a	FR1	2	R1068J
253.245	2.434	5199647	WORD	n/a	wordpools/wordpool_EN.txt	STEAM	2	2	[0, 0, 0]	n/a	FR1	2	R1068J
255.679	2.416	5202081	WORD	n/a	wordpools/wordpool_EN.txt	CAPE	3	2	[0, 0, 0]	n/a	FR1	2	R1068J
258.095	2.569	5204497	WORD	n/a	wordpools/wordpool_EN.txt	SALT	4	2	[0, 0, 0]	n/a	FR1	2	R1068J
260.664	2.599	5207066	WORD	n/a	wordpools/wordpool_EN.txt	BOMB	5	2	[0, 0, 0]	n/a	FR1	2	R1068J
263.263	2.567	5209665	WORD	n/a	wordpools/wordpool_EN.txt	MOUTH	6	2	[0, 0, 0]	n/a	FR1	2	R1068J
265.83	2.483	5212232	WORD	n/a	wordpools/wordpool_EN.txt	CLAY	7	2	[0, 0, 0]	n/a	FR1	2	R1068J
268.313	2.518	5214715	WORD	n/a	wordpools/wordpool_EN.txt	PLANE	8	2	[0, 0, 0]	n/a	FR1	2	R1068J
270.831	2.55	5217233	WORD	n/a	wordpools/wordpool_EN.txt	ICE	9	2	[0, 0, 0]	n/a	FR1	2	R1068J
273.381	2.584	5219783	WORD	n/a	wordpools/wordpool_EN.txt	CORD	10	2	[0, 0, 0]	n/a	FR1	2	R1068J
275.965	2.601	5222367	WORD	n/a	wordpools/wordpool_EN.txt	CUBE	11	2	[0, 0, 0]	n/a	FR1	2	R1068J
278.566	1.616	5224968	WORD	n/a	wordpools/wordpool_EN.txt	SMOKE	12	2	[0, 0, 0]	n/a	FR1	2	R1068J
280.182	0.001	5226584	DISTRACT_START	n/a	n/a	n/a	-999	2	[0, 0, 0]	n/a	FR1	2	R1068J
280.183	0.016	5226585	START	n/a	n/a	n/a	-999	2	[-999, -999, -999]	n/a	FR1	2	R1068J
280.199	6.117	5226601	PROB	6.117	n/a	n/a	-999	2	[7, 6, 7]	20	FR1	2	R1068J
286.316	5.968	5232718	PROB	5.968	n/a	n/a	-999	2	[5, 8, 1]	14	FR1	2	R1068J
292.284	6.451	5238685	PROB	6.451	n/a	n/a	-999	2	[9, 4, 3]	16	FR1	2	R1068J
298.735	3.671	5245136	PROB	3.671	n/a	n/a	-999	2	[7, 5, 3]	15	FR1	2	R1068J
302.406	0.014	5248807	STOP	n/a	n/a	n/a	-999	2	[-999, -999, -999]	n/a	FR1	2	R1068J
302.42	1.118	5248821	DISTRACT_END	n/a	n/a	n/a	-999	2	[0, 0, 0]	n/a	FR1	2	R1068J
303.538	1.057	5249939	REC_START	n/a	n/a	n/a	-999	2	[0, 0, 0]	n/a	FR1	2	R1068J
304.595	0.305	5250996	REC_WORD_VV	0.305	n/a	<>	-999	2	[0, 0, 0]	n/a	FR1	2	R1068J
304.9	1.277	5251301	REC_WORD	1.277	n/a	CAVE	1	2	[0, 0, 0]	n/a	FR1	2	R1068J
306.177	1.998	5252578	REC_WORD	1.998	n/a	STEAM	2	2	[0, 0, 0]	n/a	FR1	2	R1068J
308.175	2.73	5254576	REC_WORD	2.73	n/a	SALT	4	2	[0, 0, 0]	n/a	FR1	2	R1068J
310.905	2.667	5257306	REC_WORD	2.667	n/a	CUBE	11	2	[0, 0, 0]	n/a	FR1	2	R1068J
313.572	0.568	5259973	REC_WORD_VV	0.568	n/a	<>	-999	2	[0, 0, 0]	n/a	FR1	2	R1068J
314.14	2.128	5260541	REC_WORD	2.128	n/a	PLANE	8	2	[0, 0, 0]	n/a	FR1	2	R1068J
316.268	3.467	5262669	REC_WORD	3.467	n/a	GONG	-999	2	[0, 0, 0]	n/a	FR1	2	R1068J
319.735	2.922	5266136	REC_WORD	2.922	n/a	CAPE	3	2	[0, 0, 0]	n/a	FR1	2	R1068J
322.657	2.372	5269058	REC_WORD_VV	2.372	n/a	<>	-999	2	[0, 0, 0]	n/a	FR1	2	R1068J
325.029	1.0	5271430	REC_WORD_VV	1.0	n/a	<>	-999	2	[0, 0, 0]	n/a	FR1	2	R1068J
326.029	2.195	5272430	REC_WORD_VV	2.195	n/a	<>	-999	2	[0, 0, 0]	n/a	FR1	2	R1068J
328.224	0.392	5274625	REC_WORD	0.392	n/a	CUBE	11	2	[0, 0, 0]	n/a	FR1	2	R1068J
328.616	1.0	5275017	REC_WORD_VV	1.0	n/a	<>	-999	2	[0, 0, 0]	n/a	FR1	2	R1068J
329.616	0.993	5276017	REC_WORD_VV	0.993	n/a	<>	-999	2	[0, 0, 0]	n/a	FR1	2	R1068J
330.609	2.114	5277010	REC_WORD_VV	2.114	n/a	<>	-999	2	[0, 0, 0]	n/a	FR1	2	R1068J
332.723	0.825	5279124	REC_WORD_VV	0.825	n/a	<>	-999	2	[0, 0, 0]	n/a	FR1	2	R1068J
333.548	2.825	5279949	REC_END	n/a	n/a	n/a	-999	2	[0, 0, 0]	n/a	FR1	2	R1068J
336.373	0.001	5282774	COUNTDOWN_START	n/a	n/a	n/a	-999	3	[0, 0, 0]	n/a	FR1	2	R1068J
336.374	10.427	5282775	TRIAL	n/a	n/a	n/a	-999	3	[0, 0, 0]	n/a	FR1	2	R1068J
346.801	0.007	5293201	COUNTDOWN_END	n/a	n/a	n/a	-999	3	[0, 0, 0]	n/a	FR1	2	R1068J
346.808	2.602	5293208	ORIENT	n/a	n/a	n/a	-999	3	[0, 0, 0]	n/a	FR1	2	R1068J
349.41	2.549	5295810	WORD	n/a	wordpools/wordpool_EN.txt	TREE	1	3	[0, 0, 0]	n/a	FR1	2	R1068J
351.959	2.535	5298359	WORD	n/a	wordpools/wordpool_EN.txt	VINE	2	3	[0, 0, 0]	n/a	FR1	2	R1068J
354.494	2.432	5300894	WORD	n/a	wordpools/wordpool_EN.txt	MILK	3	3	[0, 0, 0]	n/a	FR1	2	R1068J
356.926	2.384	5303326	WORD	n/a	wordpools/wordpool_EN.txt	WHEEL	4	3	[0, 0, 0]	n/a	FR1	2	R1068J
359.31	2.584	5305710	WORD	n/a	wordpools/wordpool_EN.txt	STEM	5	3	[0, 0, 0]	n/a	FR1	2	R1068J
361.894	2.5	5308294	WORD	n/a	wordpools/wordpool_EN.txt	CONE	6	3	[0, 0, 0]	n/a	FR1	2	R1068J
364.394	2.634	5310794	WORD	n/a	wordpools/wordpool_EN.txt	ELF	7	3	[0, 0, 0]	n/a	FR1	2	R1068J
367.028	2.384	5313428	WORD	n/a	wordpools/wordpool_EN.txt	SEED	8	3	[0, 0, 0]	n/a	FR1	2	R1068J
369.412	2.5	5315812	WORD	n/a	wordpools/wordpool_EN.txt	THUMB	9	3	[0, 0, 0]	n/a	FR1	2	R1068J
371.912	2.551	5318312	WORD	n/a	wordpools/wordpool_EN.txt	BOOT	10	3	[0, 0, 0]	n/a	FR1	2	R1068J
374.463	2.399	5320863	WORD	n/a	wordpools/wordpool_EN.txt	WORM	11	3	[0, 0, 0]	n/a	FR1	2	R1068J
376.862	1.601	5323262	WORD	n/a	wordpools/wordpool_EN.txt	COW	12	3	[0, 0, 0]	n/a	FR1	2	R1068J
378.463	0.001	5324863	DISTRACT_START	n/a	n/a	n/a	-999	3	[0, 0, 0]	n/a	FR1	2	R1068J
378.464	0.016	5324864	START	n/a	n/a	n/a	-999	3	[-999, -999, -999]	n/a	FR1	2	R1068J
378.48	8.917	5324880	PROB	8.917	n/a	n/a	-999	3	[7, 5, 6]	18	FR1	2	R1068J
387.397	5.035	5333797	PROB	5.035	n/a	n/a	-999	3	[3, 8, 5]	16	FR1	2	R1068J
392.432	6.314	5338832	PROB	6.314	n/a	n/a	-999	3	[9, 6, 1]	16	FR1	2	R1068J
398.746	0.02	5345146	STOP	n/a	n/a	n/a	-999	3	[-999, -999, -999]	n/a	FR1	2	R1068J
398.766	1.05	5345166	DISTRACT_END	n/a	n/a	n/a	-999	3	[0, 0, 0]	n/a	FR1	2	R1068J
399.816	1.129	5346216	REC_START	n/a	n/a	n/a	-999	3	[0, 0, 0]	n/a	FR1	2	R1068J
400.945	2.208	5347345	REC_WORD_VV	2.208	n/a	<>	-999	3	[0, 0, 0]	n/a	FR1	2	R1068J
403.153	1.344	5349552	REC_WORD	1.344	n/a	STEM	5	3	[0, 0, 0]	n/a	FR1	2	R1068J
404.497	1.321	5350896	REC_WORD	1.321	n/a	TREE	1	3	[0, 0, 0]	n/a	FR1	2	R1068J
405.818	1.511	5352217	REC_WORD	1.511	n/a	VINE	2	3	[0, 0, 0]	n/a	FR1	2	R1068J
407.329	2.692	5353728	REC_WORD	2.692	n/a	SEED	8	3	[0, 0, 0]	n/a	FR1	2	R1068J
410.021	3.226	5356420	REC_WORD	3.226	n/a	COW	12	3	[0, 0, 0]	n/a	FR1	2	R1068J
413.247	1.058	5359646	REC_WORD	1.058	n/a	MILK	3	3	[0, 0, 0]	n/a	FR1	2	R1068J
414.305	2.837	5360704	REC_WORD	2.837	n/a	CONE	6	3	[0, 0, 0]	n/a	FR1	2	R1068J
417.142	1.0	5363541	REC_WORD_VV	1.0	n/a	<>	-999	3	[0, 0, 0]	n/a	FR1	2	R1068J
418.142	0.488	5364541	REC_WORD_VV	0.488	n/a	<>	-999	3	[0, 0, 0]	n/a	FR1	2	R1068J
418.63	1.533	5365029	REC_WORD	1.533	n/a	CREAM	-999	3	[0, 0, 0]	n/a	FR1	2	R1068J
420.163	1.629	5366562	REC_WORD	1.629	n/a	WORM	11	3	[0, 0, 0]	n/a	FR1	2	R1068J
421.792	4.549	5368191	REC_WORD	4.549	n/a	BOOT	10	3	[0, 0, 0]	n/a	FR1	2	R1068J
426.341	2.826	5372740	REC_WORD_VV	2.826	n/a	<>	-999	3	[0, 0, 0]	n/a	FR1	2	R1068J
429.167	0.663	5375566	REC_WORD_VV	0.663	n/a	<>	-999	3	[0, 0, 0]	n/a	FR1	2	R1068J
429.83	4.374	5376229	REC_END	n/a	n/a	n/a	-999	3	[0, 0, 0]	n/a	FR1	2	R1068J
434.204	0.0	5380603	TRIAL	n/a	n/a	n/a	-999	4	[0, 0, 0]	n/a	FR1	2	R1068J
434.204	10.428	5380603	COUNTDOWN_START	n/a	n/a	n/a	-999	4	[0, 0, 0]	n/a	FR1	2	R1068J
444.632	0.008	5391031	COUNTDOWN_END	n/a	n/a	n/a	-999	4	[0, 0, 0]	n/a	FR1	2	R1068J
444.64	2.416	5391039	ORIENT	n/a	n/a	n/a	-999	4	[0, 0, 0]	n/a	FR1	2	R1068J
447.056	2.451	5393455	WORD	n/a	wordpools/wordpool_EN.txt	RICE	1	4	[0, 0, 0]	n/a	FR1	2	R1068J
449.507	2.4	5395906	WORD	n/a	wordpools/wordpool_EN.txt	SOAP	2	4	[0, 0, 0]	n/a	FR1	2	R1068J
451.907	2.433	5398306	WORD	n/a	wordpools/wordpool_EN.txt	SEA	3	4	[0, 0, 0]	n/a	FR1	2	R1068J
454.34	2.467	5400739	WORD	n/a	wordpools/wordpool_EN.txt	PEACH	4	4	[0, 0, 0]	n/a	FR1	2	R1068J
456.807	2.451	5403205	WORD	n/a	wordpools/wordpool_EN.txt	SKY	5	4	[0, 0, 0]	n/a	FR1	2	R1068J
459.258	2.617	5405656	WORD	n/a	wordpools/wordpool_EN.txt	FARM	6	4	[0, 0, 0]	n/a	FR1	2	R1068J
461.875	2.551	5408273	WORD	n/a	wordpools/wordpool_EN.txt	DART	7	4	[0, 0, 0]	n/a	FR1	2	R1068J
464.426	2.533	5410824	WORD	n/a	wordpools/wordpool_EN.txt	SHEEP	8	4	[0, 0, 0]	n/a	FR1	2	R1068J
466.959	2.434	5413357	WORD	n/a	wordpools/wordpool_EN.txt	LAND	9	4	[0, 0, 0]	n/a	FR1	2	R1068J
469.393	2.617	5415791	WORD	n/a	wordpools/wordpool_EN.txt	SHIELD	10	4	[0, 0, 0]	n/a	FR1	2	R1068J
472.01	2.401	5418408	WORD	n/a	wordpools/wordpool_EN.txt	CHIEF	11	4	[0, 0, 0]	n/a	FR1	2	R1068J
474.411	1.616	5420809	WORD	n/a	wordpools/wordpool_EN.txt	SHIP	12	4	[0, 0, 0]	n/a	FR1	2	R1068J
476.027	0.001	5422425	DISTRACT_START	n/a	n/a	n/a	-999	4	[0, 0, 0]	n/a	FR1	2	R1068J
476.028	0.015	5422426	START	n/a	n/a	n/a	-999	4	[-999, -999, -999]	n/a	FR1	2	R1068J
476.043	5.851	5422441	PROB	5.851	n/a	n/a	-999	4	[3, 1, 6]	10	FR1	2	R1068J
481.894	5.468	5428292	PROB	5.468	n/a	n/a	-999	4	[8, 9, 9]	26	FR1	2	R1068J
487.362	3.251	5433760	PROB	3.251	n/a	n/a	-999	4	[1, 9, 6]	16	FR1	2	R1068J
490.613	3.934	5437011	PROB	3.934	n/a	n/a	-999	4	[3, 5, 3]	11	FR1	2	R1068J
494.547	3.429	5440945	PROB	3.429	n/a	n/a	-999	4	[1, 4, 1]	6	FR1	2	R1068J
497.976	0.003	5444374	STOP	n/a	n/a	n/a	-999	4	[-999, -999, -999]	n/a	FR1	2	R1068J
497.979	1.035	5444377	DISTRACT_END	n/a	n/a	n/a	-999	4	[0, 0, 0]	n/a	FR1	2	R1068J
499.014	1.15	5445412	REC_START	n/a	n/a	n/a	-999	4	[0, 0, 0]	n/a	FR1	2	R1068J
500.164	2.324	5446562	REC_WORD_VV	2.324	n/a	<>	-999	4	[0, 0, 0]	n/a	FR1	2	R1068J
502.488	1.074	5448886	REC_WORD	1.074	n/a	SEA	3	4	[0, 0, 0]	n/a	FR1	2	R1068J
503.562	3.69	5449960	REC_WORD	3.69	n/a	SKY	5	4	[0, 0, 0]	n/a	FR1	2	R1068J
507.252	3.052	5453650	REC_WORD	3.052	n/a	LAND	9	4	[0, 0, 0]	n/a	FR1	2	R1068J
510.304	0.345	5456702	REC_WORD_VV	0.345	n/a	<>	-999	4	[0, 0, 0]	n/a	FR1	2	R1068J
510.649	2.532	5457047	REC_WORD	2.532	n/a	SHIP	12	4	[0, 0, 0]	n/a	FR1	2	R1068J
513.181	2.528	5459578	REC_WORD	2.528	n/a	FARM	6	4	[0, 0, 0]	n/a	FR1	2	R1068J
515.709	1.0	5462106	REC_WORD_VV	1.0	n/a	<>	-999	4	[0, 0, 0]	n/a	FR1	2	R1068J
516.709	2.747	5463106	REC_WORD_VV	2.747	n/a	<>	-999	4	[0, 0, 0]	n/a	FR1	2	R1068J
519.456	1.0	5465853	REC_WORD_VV	1.0	n/a	<>	-999	4	[0, 0, 0]	n/a	FR1	2	R1068J
520.456	3.296	5466853	REC_WORD_VV	3.296	n/a	<>	-999	4	[0, 0, 0]	n/a	FR1	2	R1068J
523.752	5.272	5470149	REC_WORD_VV	5.272	n/a	<>	-999	4	[0, 0, 0]	n/a	FR1	2	R1068J
529.024	2.545	5475421	REC_END	n/a	n/a	n/a	-999	4	[0, 0, 0]	n/a	FR1	2	R1068J
531.569	0.0	5477966	TRIAL	n/a	n/a	n/a	-999	5	[0, 0, 0]	n/a	FR1	2	R1068J
531.569	10.428	5477966	COUNTDOWN_START	n/a	n/a	n/a	-999	5	[0, 0, 0]	n/a	FR1	2	R1068J
541.997	0.006	5488394	COUNTDOWN_END	n/a	n/a	n/a	-999	5	[0, 0, 0]	n/a	FR1	2	R1068J
542.003	2.567	5488400	ORIENT	n/a	n/a	n/a	-999	5	[0, 0, 0]	n/a	FR1	2	R1068J
544.57	2.517	5490967	WORD	n/a	wordpools/wordpool_EN.txt	FOX	1	5	[0, 0, 0]	n/a	FR1	2	R1068J
547.087	2.601	5493484	WORD	n/a	wordpools/wordpool_EN.txt	LAMB	2	5	[0, 0, 0]	n/a	FR1	2	R1068J
549.688	2.433	5496085	WORD	n/a	wordpools/wordpool_EN.txt	TAIL	3	5	[0, 0, 0]	n/a	FR1	2	R1068J
552.121	2.567	5498518	WORD	n/a	wordpools/wordpool_EN.txt	SPEAR	4	5	[0, 0, 0]	n/a	FR1	2	R1068J
554.688	2.383	5501085	WORD	n/a	wordpools/wordpool_EN.txt	GATE	5	5	[0, 0, 0]	n/a	FR1	2	R1068J
557.071	2.435	5503468	WORD	n/a	wordpools/wordpool_EN.txt	PEAR	6	5	[0, 0, 0]	n/a	FR1	2	R1068J
559.506	2.399	5505903	WORD	n/a	wordpools/wordpool_EN.txt	PIT	7	5	[0, 0, 0]	n/a	FR1	2	R1068J
561.905	2.384	5508302	WORD	n/a	wordpools/wordpool_EN.txt	CLIFF	8	5	[0, 0, 0]	n/a	FR1	2	R1068J
564.289	2.55	5510686	WORD	n/a	wordpools/wordpool_EN.txt	CALF	9	5	[0, 0, 0]	n/a	FR1	2	R1068J
566.839	2.384	5513236	WORD	n/a	wordpools/wordpool_EN.txt	ROCK	10	5	[0, 0, 0]	n/a	FR1	2	R1068J
569.223	2.534	5515619	WORD	n/a	wordpools/wordpool_EN.txt	MOLE	11	5	[0, 0, 0]	n/a	FR1	2	R1068J
571.757	1.617	5518153	WORD	n/a	wordpools/wordpool_EN.txt	FROG	12	5	[0, 0, 0]	n/a	FR1	2	R1068J
573.374	0.001	5519770	DISTRACT_START	n/a	n/a	n/a	-999	5	[0, 0, 0]	n/a	FR1	2	R1068J
573.375	0.015	5519771	START	n/a	n/a	n/a	-999	5	[-999, -999, -999]	n/a	FR1	2	R1068J
573.39	8.036	5519786	PROB	8.036	n/a	n/a	-999	5	[6, 2, 8]	16	FR1	2	R1068J
581.426	8.6	5527822	PROB	8.6	n/a	n/a	-999	5	[6, 9, 8]	23	FR1	2	R1068J
590.026	7.621	5536422	PROB	7.621	n/a	n/a	-999	5	[9, 3, 2]	14	FR1	2	R1068J
597.647	0.014	5544043	STOP	n/a	n/a	n/a	-999	5	[-999, -999, -999]	n/a	FR1	2	R1068J
597.661	1.084	5544057	DISTRACT_END	n/a	n/a	n/a	-999	5	[0, 0, 0]	n/a	FR1	2	R1068J
598.745	0.618	5545141	REC_START	n/a	n/a	n/a	-999	5	[0, 0, 0]	n/a	FR1	2	R1068J
599.363	1.232	5545759	REC_WORD_VV	1.232	n/a	<>	-999	5	[0, 0, 0]	n/a	FR1	2	R1068J
600.595	0.641	5546991	REC_WORD	0.641	n/a	CLIFF	8	5	[0, 0, 0]	n/a	FR1	2	R1068J
601.236	1.807	5547632	REC_WORD	1.807	n/a	ROCK	10	5	[0, 0, 0]	n/a	FR1	2	R1068J
603.043	0.988	5549439	REC_WORD	0.988	n/a	MOLE	11	5	[0, 0, 0]	n/a	FR1	2	R1068J
604.031	2.208	5550427	REC_WORD	2.208	n/a	LAMB	2	5	[0, 0, 0]	n/a	FR1	2	R1068J
606.239	1.368	5552635	REC_WORD	1.368	n/a	FOX	1	5	[0, 0, 0]	n/a	FR1	2	R1068J
607.607	4.514	5554003	REC_WORD	4.514	n/a	TAIL	3	5	[0, 0, 0]	n/a	FR1	2	R1068J
612.121	4.155	5558517	REC_WORD_VV	4.155	n/a	<>	-999	5	[0, 0, 0]	n/a	FR1	2	R1068J
616.276	5.021	5562672	REC_WORD_VV	5.021	n/a	<>	-999	5	[0, 0, 0]	n/a	FR1	2	R1068J
621.297	7.458	5567693	REC_WORD_VV	7.458	n/a	<>	-999	5	[0, 0, 0]	n/a	FR1	2	R1068J
628.755	2.694	5575150	REC_END	n/a	n/a	n/a	-999	5	[0, 0, 0]	n/a	FR1	2	R1068J
631.449	0.0	5577844	TRIAL	n/a	n/a	n/a	-999	6	[0, 0, 0]	n/a	FR1	2	R1068J
631.449	10.428	5577844	COUNTDOWN_START	n/a	n/a	n/a	-999	6	[0, 0, 0]	n/a	FR1	2	R1068J
641.877	0.007	5588272	COUNTDOWN_END	n/a	n/a	n/a	-999	6	[0, 0, 0]	n/a	FR1	2	R1068J
641.884	2.416	5588279	ORIENT	n/a	n/a	n/a	-999	6	[0, 0, 0]	n/a	FR1	2	R1068J
644.3	2.484	5590695	WORD	n/a	wordpools/wordpool_EN.txt	BARN	1	6	[0, 0, 0]	n/a	FR1	2	R1068J
646.784	2.434	5593179	WORD	n/a	wordpools/wordpool_EN.txt	LAKE	2	6	[0, 0, 0]	n/a	FR1	2	R1068J
649.218	2.6	5595613	WORD	n/a	wordpools/wordpool_EN.txt	CRANE	3	6	[0, 0, 0]	n/a	FR1	2	R1068J
651.818	2.5	5598213	WORD	n/a	wordpools/wordpool_EN.txt	CANE	4	6	[0, 0, 0]	n/a	FR1	2	R1068J
654.318	2.618	5600713	WORD	n/a	wordpools/wordpool_EN.txt	HEN	5	6	[0, 0, 0]	n/a	FR1	2	R1068J
656.936	2.584	5603331	WORD	n/a	wordpools/wordpool_EN.txt	GRASS	6	6	[0, 0, 0]	n/a	FR1	2	R1068J
659.52	2.466	5605915	WORD	n/a	wordpools/wordpool_EN.txt	JEEP	7	6	[0, 0, 0]	n/a	FR1	2	R1068J
661.986	2.384	5608381	WORD	n/a	wordpools/wordpool_EN.txt	CORN	8	6	[0, 0, 0]	n/a	FR1	2	R1068J
664.37	2.417	5610765	WORD	n/a	wordpools/wordpool_EN.txt	HILL	9	6	[0, 0, 0]	n/a	FR1	2	R1068J
666.787	2.6	5613182	WORD	n/a	wordpools/wordpool_EN.txt	SLEEVE	10	6	[0, 0, 0]	n/a	FR1	2	R1068J
669.387	2.55	5615782	WORD	n/a	wordpools/wordpool_EN.txt	OAR	11	6	[0, 0, 0]	n/a	FR1	2	R1068J
671.937	1.602	5618332	WORD	n/a	wordpools/wordpool_EN.txt	TENT	12	6	[0, 0, 0]	n/a	FR1	2	R1068J
673.539	0.001	5619934	DISTRACT_START	n/a	n/a	n/a	-999	6	[0, 0, 0]	n/a	FR1	2	R1068J
673.54	0.016	5619935	START	n/a	n/a	n/a	-999	6	[-999, -999, -999]	n/a	FR1	2	R1068J
673.556	4.699	5619951	PROB	4.699	n/a	n/a	-999	6	[2, 8, 4]	14	FR1	2	R1068J
678.255	4.101	5624650	PROB	4.101	n/a	n/a	-999	6	[7, 6, 3]	16	FR1	2	R1068J
682.356	3.567	5628750	PROB	3.567	n/a	n/a	-999	6	[5, 4, 6]	15	FR1	2	R1068J
685.923	3.551	5632317	PROB	3.551	n/a	n/a	-999	6	[2, 2, 3]	7	FR1	2	R1068J
689.474	3.034	5635868	PROB	3.034	n/a	n/a	-999	6	[8, 4, 4]	16	FR1	2	R1068J
692.508	5.152	5638902	PROB	5.152	n/a	n/a	-999	6	[8, 3, 6]	17	FR1	2	R1068J
697.66	0.016	5644054	STOP	n/a	n/a	n/a	-999	6	[-999, -999, -999]	n/a	FR1	2	R1068J
697.676	1.117	5644070	DISTRACT_END	n/a	n/a	n/a	-999	6	[0, 0, 0]	n/a	FR1	2	R1068J
698.793	1.369	5645187	REC_START	n/a	n/a	n/a	-999	6	[0, 0, 0]	n/a	FR1	2	R1068J
700.162	0.516	5646556	REC_WORD_VV	0.516	n/a	<>	-999	6	[0, 0, 0]	n/a	FR1	2	R1068J
700.678	1.044	5647072	REC_WORD	1.044	n/a	BARN	1	6	[0, 0, 0]	n/a	FR1	2	R1068J
701.722	1.869	5648116	REC_WORD	1.869	n/a	LAKE	2	6	[0, 0, 0]	n/a	FR1	2	R1068J
703.591	2.173	5649985	REC_WORD	2.173	n/a	GRASS	6	6	[0, 0, 0]	n/a	FR1	2	R1068J
705.764	3.139	5652158	REC_WORD	3.139	n/a	OAR	11	6	[0, 0, 0]	n/a	FR1	2	R1068J
708.903	3.9	5655297	REC_WORD_VV	3.9	n/a	<>	-999	6	[0, 0, 0]	n/a	FR1	2	R1068J
712.803	1.0	5659197	REC_WORD_VV	1.0	n/a	<>	-999	6	[0, 0, 0]	n/a	FR1	2	R1068J
713.803	1.0	5660197	REC_WORD_VV	1.0	n/a	<>	-999	6	[0, 0, 0]	n/a	FR1	2	R1068J
714.803	3.107	5661197	REC_WORD_VV	3.107	n/a	<>	-999	6	[0, 0, 0]	n/a	FR1	2	R1068J
717.91	0.984	5664304	REC_WORD_VV	0.984	n/a	<>	-999	6	[0, 0, 0]	n/a	FR1	2	R1068J
718.894	9.908	5665288	REC_WORD_VV	9.908	n/a	<>	-999	6	[0, 0, 0]	n/a	FR1	2	R1068J
728.802	5.394	5675196	REC_END	n/a	n/a	n/a	-999	6	[0, 0, 0]	n/a	FR1	2	R1068J
734.196	0.001	5680590	COUNTDOWN_START	n/a	n/a	n/a	-999	7	[0, 0, 0]	n/a	FR1	2	R1068J
734.197	10.427	5680591	TRIAL	n/a	n/a	n/a	-999	7	[0, 0, 0]	n/a	FR1	2	R1068J
744.624	0.008	5691017	COUNTDOWN_END	n/a	n/a	n/a	-999	7	[0, 0, 0]	n/a	FR1	2	R1068J
744.632	2.633	5691025	ORIENT	n/a	n/a	n/a	-999	7	[0, 0, 0]	n/a	FR1	2	R1068J
747.265	2.517	5693658	WORD	n/a	wordpools/wordpool_EN.txt	TRAY	1	7	[0, 0, 0]	n/a	FR1	2	R1068J
749.782	2.4	5696175	WORD	n/a	wordpools/wordpool_EN.txt	PET	2	7	[0, 0, 0]	n/a	FR1	2	R1068J
752.182	2.502	5698575	WORD	n/a	wordpools/wordpool_EN.txt	CAKE	3	7	[0, 0, 0]	n/a	FR1	2	R1068J
754.684	2.599	5701077	WORD	n/a	wordpools/wordpool_EN.txt	FUDGE	4	7	[0, 0, 0]	n/a	FR1	2	R1068J
757.283	2.551	5703676	WORD	n/a	wordpools/wordpool_EN.txt	TEETH	5	7	[0, 0, 0]	n/a	FR1	2	R1068J
759.834	2.434	5706227	WORD	n/a	wordpools/wordpool_EN.txt	GEESE	6	7	[0, 0, 0]	n/a	FR1	2	R1068J
762.268	2.566	5708661	WORD	n/a	wordpools/wordpool_EN.txt	JUICE	7	7	[0, 0, 0]	n/a	FR1	2	R1068J
764.834	2.501	5711227	WORD	n/a	wordpools/wordpool_EN.txt	MOUSE	8	7	[0, 0, 0]	n/a	FR1	2	R1068J
767.335	2.5	5713728	WORD	n/a	wordpools/wordpool_EN.txt	EGG	9	7	[0, 0, 0]	n/a	FR1	2	R1068J
769.835	2.517	5716228	WORD	n/a	wordpools/wordpool_EN.txt	FOOD	10	7	[0, 0, 0]	n/a	FR1	2	R1068J
772.352	2.4	5718745	WORD	n/a	wordpools/wordpool_EN.txt	ANT	11	7	[0, 0, 0]	n/a	FR1	2	R1068J
774.752	1.617	5721145	WORD	n/a	wordpools/wordpool_EN.txt	DUCK	12	7	[0, 0, 0]	n/a	FR1	2	R1068J
776.369	0.001	5722762	DISTRACT_START	n/a	n/a	n/a	-999	7	[0, 0, 0]	n/a	FR1	2	R1068J
776.37	0.016	5722763	START	n/a	n/a	n/a	-999	7	[-999, -999, -999]	n/a	FR1	2	R1068J
776.386	8.152	5722779	PROB	8.152	n/a	n/a	-999	7	[2, 7, 3]	12	FR1	2	R1068J
784.538	5.733	5730931	PROB	5.733	n/a	n/a	-999	7	[3, 2, 8]	13	FR1	2	R1068J
790.271	5.918	5736664	PROB	5.918	n/a	n/a	-999	7	[3, 8, 5]	16	FR1	2	R1068J
796.189	6.436	5742581	PROB	6.436	n/a	n/a	-999	7	[8, 1, 3]	12	FR1	2	R1068J
802.625	0.016	5749017	STOP	n/a	n/a	n/a	-999	7	[-999, -999, -999]	n/a	FR1	2	R1068J
802.641	1.15	5749033	DISTRACT_END	n/a	n/a	n/a	-999	7	[0, 0, 0]	n/a	FR1	2	R1068J
803.791	0.658	5750183	REC_START	n/a	n/a	n/a	-999	7	[0, 0, 0]	n/a	FR1	2	R1068J
804.449	1.089	5750841	REC_WORD_VV	1.089	n/a	<>	-999	7	[0, 0, 0]	n/a	FR1	2	R1068J
805.538	1.392	5751930	REC_WORD	1.392	n/a	FOOD	10	7	[0, 0, 0]	n/a	FR1	2	R1068J
806.93	2.043	5753322	REC_WORD	2.043	n/a	TRAY	1	7	[0, 0, 0]	n/a	FR1	2	R1068J
808.973	1.336	5755365	REC_WORD	1.336	n/a	FUDGE	4	7	[0, 0, 0]	n/a	FR1	2	R1068J
810.309	2.787	5756701	REC_WORD	2.787	n/a	CAKE	3	7	[0, 0, 0]	n/a	FR1	2	R1068J
813.096	0.29	5759488	REC_WORD_VV	0.29	n/a	<>	-999	7	[0, 0, 0]	n/a	FR1	2	R1068J
813.386	1.683	5759778	REC_WORD	1.683	n/a	PET	2	7	[0, 0, 0]	n/a	FR1	2	R1068J
815.069	1.084	5761461	REC_WORD	1.084	n/a	GEESE	6	7	[0, 0, 0]	n/a	FR1	2	R1068J
816.153	1.066	5762545	REC_WORD	1.066	n/a	MOUSE	8	7	[0, 0, 0]	n/a	FR1	2	R1068J
817.219	2.881	5763611	REC_WORD	2.881	n/a	ANT	11	7	[0, 0, 0]	n/a	FR1	2	R1068J
820.1	1.113	5766492	REC_WORD_VV	1.113	n/a	<>	-999	7	[0, 0, 0]	n/a	FR1	2	R1068J
821.213	0.322	5767605	REC_WORD_VV	0.322	n/a	<>	-999	7	[0, 0, 0]	n/a	FR1	2	R1068J
821.535	0.361	5767927	REC_WORD	0.361	n/a	FUDGE	4	7	[0, 0, 0]	n/a	FR1	2	R1068J
821.896	0.632	5768288	REC_WORD	0.632	n/a	CAKE	3	7	[0, 0, 0]	n/a	FR1	2	R1068J
822.528	0.377	5768920	REC_WORD_VV	0.377	n/a	<>	-999	7	[0, 0, 0]	n/a	FR1	2	R1068J
822.905	0.332	5769297	REC_WORD	0.332	n/a	FOOD	10	7	[0, 0, 0]	n/a	FR1	2	R1068J
823.237	2.313	5769629	REC_WORD_VV	2.313	n/a	<>	-999	7	[0, 0, 0]	n/a	FR1	2	R1068J
825.55	1.0	5771942	REC_WORD_VV	1.0	n/a	<>	-999	7	[0, 0, 0]	n/a	FR1	2	R1068J
826.55	1.0	5772942	REC_WORD_VV	1.0	n/a	<>	-999	7	[0, 0, 0]	n/a	FR1	2	R1068J
827.55	0.899	5773942	REC_WORD_VV	0.899	n/a	<>	-999	7	[0, 0, 0]	n/a	FR1	2	R1068J
828.449	1.0	5774841	REC_WORD_VV	1.0	n/a	<>	-999	7	[0, 0, 0]	n/a	FR1	2	R1068J
829.449	1.0	5775841	REC_WORD_VV	1.0	n/a	<>	-999	7	[0, 0, 0]	n/a	FR1	2	R1068J
830.449	1.393	5776841	REC_WORD_VV	1.393	n/a	<>	-999	7	[0, 0, 0]	n/a	FR1	2	R1068J
831.842	1.0	5778234	REC_WORD_VV	1.0	n/a	<>	-999	7	[0, 0, 0]	n/a	FR1	2	R1068J
832.842	0.959	5779234	REC_WORD_VV	0.959	n/a	<>	-999	7	[0, 0, 0]	n/a	FR1	2	R1068J
833.801	2.36	5780193	REC_END	n/a	n/a	n/a	-999	7	[0, 0, 0]	n/a	FR1	2	R1068J
836.161	0.001	5782553	COUNTDOWN_START	n/a	n/a	n/a	-999	8	[0, 0, 0]	n/a	FR1	2	R1068J
836.162	10.427	5782554	TRIAL	n/a	n/a	n/a	-999	8	[0, 0, 0]	n/a	FR1	2	R1068J
846.589	0.008	5792980	COUNTDOWN_END	n/a	n/a	n/a	-999	8	[0, 0, 0]	n/a	FR1	2	R1068J
846.597	2.616	5792988	ORIENT	n/a	n/a	n/a	-999	8	[0, 0, 0]	n/a	FR1	2	R1068J
849.213	2.634	5795604	WORD	n/a	wordpools/wordpool_EN.txt	SEAL	1	8	[0, 0, 0]	n/a	FR1	2	R1068J
851.847	2.55	5798238	WORD	n/a	wordpools/wordpool_EN.txt	BAND	2	8	[0, 0, 0]	n/a	FR1	2	R1068J
854.397	2.55	5800788	WORD	n/a	wordpools/wordpool_EN.txt	WORLD	3	8	[0, 0, 0]	n/a	FR1	2	R1068J
856.947	2.535	5803338	WORD	n/a	wordpools/wordpool_EN.txt	FRUIT	4	8	[0, 0, 0]	n/a	FR1	2	R1068J
859.482	2.533	5805873	WORD	n/a	wordpools/wordpool_EN.txt	SWORD	5	8	[0, 0, 0]	n/a	FR1	2	R1068J
862.015	2.551	5808406	WORD	n/a	wordpools/wordpool_EN.txt	JAR	6	8	[0, 0, 0]	n/a	FR1	2	R1068J
864.566	2.433	5810957	WORD	n/a	wordpools/wordpool_EN.txt	BREAD	7	8	[0, 0, 0]	n/a	FR1	2	R1068J
866.999	2.618	5813390	WORD	n/a	wordpools/wordpool_EN.txt	CUP	8	8	[0, 0, 0]	n/a	FR1	2	R1068J
869.617	2.383	5816008	WORD	n/a	wordpools/wordpool_EN.txt	WALL	9	8	[0, 0, 0]	n/a	FR1	2	R1068J
872.0	2.383	5818391	WORD	n/a	wordpools/wordpool_EN.txt	STICK	10	8	[0, 0, 0]	n/a	FR1	2	R1068J
874.383	2.618	5820774	WORD	n/a	wordpools/wordpool_EN.txt	ROSE	11	8	[0, 0, 0]	n/a	FR1	2	R1068J
877.001	1.617	5823392	WORD	n/a	wordpools/wordpool_EN.txt	LAMP	12	8	[0, 0, 0]	n/a	FR1	2	R1068J
878.618	0.001	5825009	DISTRACT_START	n/a	n/a	n/a	-999	8	[0, 0, 0]	n/a	FR1	2	R1068J
878.619	0.016	5825010	START	n/a	n/a	n/a	-999	8	[-999, -999, -999]	n/a	FR1	2	R1068J
878.635	5.018	5825026	PROB	5.018	n/a	n/a	-999	8	[3, 6, 4]	13	FR1	2	R1068J
883.653	4.516	5830044	PROB	4.516	n/a	n/a	-999	8	[4, 3, 7]	14	FR1	2	R1068J
888.169	4.285	5834560	PROB	4.285	n/a	n/a	-999	8	[4, 7, 3]	14	FR1	2	R1068J
892.454	8.145	5838845	PROB	8.145	n/a	n/a	-999	8	[4, 7, 5]	16	FR1	2	R1068J
900.599	0.006	5846990	STOP	n/a	n/a	n/a	-999	8	[-999, -999, -999]	n/a	FR1	2	R1068J
900.605	1.051	5846996	DISTRACT_END	n/a	n/a	n/a	-999	8	[0, 0, 0]	n/a	FR1	2	R1068J
901.656	1.219	5848047	REC_START	n/a	n/a	n/a	-999	8	[0, 0, 0]	n/a	FR1	2	R1068J
902.875	2.799	5849265	REC_WORD_VV	2.799	n/a	<>	-999	8	[0, 0, 0]	n/a	FR1	2	R1068J
905.674	2.326	5852064	REC_WORD	2.326	n/a	FRUIT	4	8	[0, 0, 0]	n/a	FR1	2	R1068J
908.0	1.944	5854390	REC_WORD	1.944	n/a	CUP	8	8	[0, 0, 0]	n/a	FR1	2	R1068J
909.944	1.735	5856334	REC_WORD	1.735	n/a	WORLD	3	8	[0, 0, 0]	n/a	FR1	2	R1068J
911.679	2.755	5858069	REC_WORD	2.755	n/a	SEAL	1	8	[0, 0, 0]	n/a	FR1	2	R1068J
914.434	4.701	5860824	REC_WORD_VV	4.701	n/a	<>	-999	8	[0, 0, 0]	n/a	FR1	2	R1068J
919.135	0.837	5865525	REC_WORD	0.837	n/a	SEAL	1	8	[0, 0, 0]	n/a	FR1	2	R1068J
919.972	1.0	5866362	REC_WORD_VV	1.0	n/a	<>	-999	8	[0, 0, 0]	n/a	FR1	2	R1068J
920.972	1.0	5867362	REC_WORD_VV	1.0	n/a	<>	-999	8	[0, 0, 0]	n/a	FR1	2	R1068J
921.972	3.388	5868362	REC_WORD_VV	3.388	n/a	<>	-999	8	[0, 0, 0]	n/a	FR1	2	R1068J
925.36	0.561	5871750	REC_WORD	0.561	n/a	BEAN	-999	8	[0, 0, 0]	n/a	FR1	2	R1068J
925.921	0.33	5872311	REC_WORD_VV	0.33	n/a	<>	-999	8	[0, 0, 0]	n/a	FR1	2	R1068J
926.251	0.307	5872641	REC_WORD	0.307	n/a	BEAN	-999	8	[0, 0, 0]	n/a	FR1	2	R1068J
926.558	0.894	5872948	REC_WORD	0.894	n/a	BREAD	7	8	[0, 0, 0]	n/a	FR1	2	R1068J
927.452	3.074	5873842	REC_WORD_VV	3.074	n/a	<>	-999	8	[0, 0, 0]	n/a	FR1	2	R1068J
930.526	1.14	5876916	REC_WORD	1.14	n/a	WORLD	3	8	[0, 0, 0]	n/a	FR1	2	R1068J
931.666	5.06	5878056	REC_END	n/a	n/a	n/a	-999	8	[0, 0, 0]	n/a	FR1	2	R1068J
936.726	0.0	5883116	TRIAL	n/a	n/a	n/a	-999	9	[0, 0, 0]	n/a	FR1	2	R1068J
936.726	10.428	5883116	COUNTDOWN_START	n/a	n/a	n/a	-999	9	[0, 0, 0]	n/a	FR1	2	R1068J
947.154	0.006	5893544	COUNTDOWN_END	n/a	n/a	n/a	-999	9	[0, 0, 0]	n/a	FR1	2	R1068J
947.16	2.534	5893550	ORIENT	n/a	n/a	n/a	-999	9	[0, 0, 0]	n/a	FR1	2	R1068J
949.694	2.384	5896084	WORD	n/a	wordpools/wordpool_EN.txt	GRAPE	1	9	[0, 0, 0]	n/a	FR1	2	R1068J
952.078	2.617	5898468	WORD	n/a	wordpools/wordpool_EN.txt	STORE	2	9	[0, 0, 0]	n/a	FR1	2	R1068J
954.695	2.584	5901085	WORD	n/a	wordpools/wordpool_EN.txt	PHONE	3	9	[0, 0, 0]	n/a	FR1	2	R1068J
957.279	2.583	5903669	WORD	n/a	wordpools/wordpool_EN.txt	PEN	4	9	[0, 0, 0]	n/a	FR1	2	R1068J
959.862	2.602	5906251	WORD	n/a	wordpools/wordpool_EN.txt	BADGE	5	9	[0, 0, 0]	n/a	FR1	2	R1068J
962.464	2.449	5908853	WORD	n/a	wordpools/wordpool_EN.txt	MUG	6	9	[0, 0, 0]	n/a	FR1	2	R1068J
964.913	2.551	5911302	WORD	n/a	wordpools/wordpool_EN.txt	FENCE	7	9	[0, 0, 0]	n/a	FR1	2	R1068J
967.464	2.6	5913853	WORD	n/a	wordpools/wordpool_EN.txt	VAN	8	9	[0, 0, 0]	n/a	FR1	2	R1068J
970.064	2.401	5916453	WORD	n/a	wordpools/wordpool_EN.txt	BOOK	9	9	[0, 0, 0]	n/a	FR1	2	R1068J
972.465	2.499	5918854	WORD	n/a	wordpools/wordpool_EN.txt	DOG	10	9	[0, 0, 0]	n/a	FR1	2	R1068J
974.964	2.384	5921353	WORD	n/a	wordpools/wordpool_EN.txt	JAIL	11	9	[0, 0, 0]	n/a	FR1	2	R1068J
977.348	1.617	5923737	WORD	n/a	wordpools/wordpool_EN.txt	APE	12	9	[0, 0, 0]	n/a	FR1	2	R1068J
978.965	0.001	5925354	DISTRACT_START	n/a	n/a	n/a	-999	9	[0, 0, 0]	n/a	FR1	2	R1068J
978.966	0.016	5925355	START	n/a	n/a	n/a	-999	9	[-999, -999, -999]	n/a	FR1	2	R1068J
978.982	5.284	5925371	PROB	5.284	n/a	n/a	-999	9	[1, 1, 3]	5	FR1	2	R1068J
984.266	5.268	5930655	PROB	5.268	n/a	n/a	-999	9	[7, 2, 2]	12	FR1	2	R1068J
989.534	4.017	5935923	PROB	4.017	n/a	n/a	-999	9	[2, 3, 4]	9	FR1	2	R1068J
993.551	4.101	5939940	PROB	4.101	n/a	n/a	-999	9	[4, 1, 9]	14	FR1	2	R1068J
997.652	7.968	5944041	PROB	7.968	n/a	n/a	-999	9	[9, 9, 7]	22	FR1	2	R1068J
1005.62	0.016	5952009	STOP	n/a	n/a	n/a	-999	9	[-999, -999, -999]	n/a	FR1	2	R1068J
1005.636	1.1	5952025	DISTRACT_END	n/a	n/a	n/a	-999	9	[0, 0, 0]	n/a	FR1	2	R1068J
1006.736	1.171	5953125	REC_START	n/a	n/a	n/a	-999	9	[0, 0, 0]	n/a	FR1	2	R1068J
1007.907	1.657	5954296	REC_WORD_VV	1.657	n/a	<>	-999	9	[0, 0, 0]	n/a	FR1	2	R1068J
1009.564	1.578	5955953	REC_WORD	1.578	n/a	STORE	2	9	[0, 0, 0]	n/a	FR1	2	R1068J
1011.142	1.985	5957531	REC_WORD	1.985	n/a	PHONE	3	9	[0, 0, 0]	n/a	FR1	2	R1068J
1013.127	2.167	5959515	REC_WORD	2.167	n/a	PEN	4	9	[0, 0, 0]	n/a	FR1	2	R1068J
1015.294	1.856	5961682	REC_WORD	1.856	n/a	MUG	6	9	[0, 0, 0]	n/a	FR1	2	R1068J
1017.15	2.146	5963538	REC_WORD	2.146	n/a	GRAPE	1	9	[0, 0, 0]	n/a	FR1	2	R1068J
1019.296	1.62	5965684	REC_WORD	1.62	n/a	DOG	10	9	[0, 0, 0]	n/a	FR1	2	R1068J
1020.916	2.205	5967304	REC_WORD	2.205	n/a	APE	12	9	[0, 0, 0]	n/a	FR1	2	R1068J
1023.121	3.647	5969509	REC_WORD_VV	3.647	n/a	<>	-999	9	[0, 0, 0]	n/a	FR1	2	R1068J
1026.768	1.0	5973156	REC_WORD_VV	1.0	n/a	<>	-999	9	[0, 0, 0]	n/a	FR1	2	R1068J
1027.768	1.0	5974156	REC_WORD_VV	1.0	n/a	<>	-999	9	[0, 0, 0]	n/a	FR1	2	R1068J
1028.768	1.321	5975156	REC_WORD_VV	1.321	n/a	<>	-999	9	[0, 0, 0]	n/a	FR1	2	R1068J
1030.089	1.0	5976477	REC_WORD_VV	1.0	n/a	<>	-999	9	[0, 0, 0]	n/a	FR1	2	R1068J
1031.089	5.661	5977477	REC_WORD_VV	5.661	n/a	<>	-999	9	[0, 0, 0]	n/a	FR1	2	R1068J
1036.75	4.974	5983138	REC_END	n/a	n/a	n/a	-999	9	[0, 0, 0]	n/a	FR1	2	R1068J
1041.724	0.0	5988112	TRIAL	n/a	n/a	n/a	-999	10	[0, 0, 0]	n/a	FR1	2	R1068J
1041.724	10.428	5988112	COUNTDOWN_START	n/a	n/a	n/a	-999	10	[0, 0, 0]	n/a	FR1	2	R1068J
1052.152	0.007	5998540	COUNTDOWN_END	n/a	n/a	n/a	-999	10	[0, 0, 0]	n/a	FR1	2	R1068J
1052.159	2.451	5998547	ORIENT	n/a	n/a	n/a	-999	10	[0, 0, 0]	n/a	FR1	2	R1068J
1054.61	2.4	6000998	WORD	n/a	wordpools/wordpool_EN.txt	BOARD	1	10	[0, 0, 0]	n/a	FR1	2	R1068J
1057.01	2.568	6003398	WORD	n/a	wordpools/wordpool_EN.txt	ARM	2	10	[0, 0, 0]	n/a	FR1	2	R1068J
1059.578	2.432	6005966	WORD	n/a	wordpools/wordpool_EN.txt	HOOK	3	10	[0, 0, 0]	n/a	FR1	2	R1068J
1062.01	2.384	6008398	WORD	n/a	wordpools/wordpool_EN.txt	VEST	4	10	[0, 0, 0]	n/a	FR1	2	R1068J
1064.394	2.434	6010782	WORD	n/a	wordpools/wordpool_EN.txt	SOCK	5	10	[0, 0, 0]	n/a	FR1	2	R1068J
1066.828	2.4	6013216	WORD	n/a	wordpools/wordpool_EN.txt	TOAST	6	10	[0, 0, 0]	n/a	FR1	2	R1068J
1069.228	2.401	6015615	WORD	n/a	wordpools/wordpool_EN.txt	MAT	7	10	[0, 0, 0]	n/a	FR1	2	R1068J
1071.629	2.616	6018016	WORD	n/a	wordpools/wordpool_EN.txt	NAIL	8	10	[0, 0, 0]	n/a	FR1	2	R1068J
1074.245	2.567	6020632	WORD	n/a	wordpools/wordpool_EN.txt	STOVE	9	10	[0, 0, 0]	n/a	FR1	2	R1068J
1076.812	2.551	6023199	WORD	n/a	wordpools/wordpool_EN.txt	ROOM	10	10	[0, 0, 0]	n/a	FR1	2	R1068J
1079.363	2.6	6025750	WORD	n/a	wordpools/wordpool_EN.txt	HOOF	11	10	[0, 0, 0]	n/a	FR1	2	R1068J
1081.963	1.601	6028350	WORD	n/a	wordpools/wordpool_EN.txt	BRUSH	12	10	[0, 0, 0]	n/a	FR1	2	R1068J
1083.564	0.001	6029951	DISTRACT_START	n/a	n/a	n/a	-999	10	[0, 0, 0]	n/a	FR1	2	R1068J
1083.565	0.016	6029952	START	n/a	n/a	n/a	-999	10	[-999, -999, -999]	n/a	FR1	2	R1068J
1083.581	8.184	6029968	PROB	8.184	n/a	n/a	-999	10	[4, 5, 9]	18	FR1	2	R1068J
1091.765	6.885	6038152	PROB	6.885	n/a	n/a	-999	10	[4, 7, 7]	18	FR1	2	R1068J
1098.65	5.784	6045037	PROB	5.784	n/a	n/a	-999	10	[6, 9, 3]	18	FR1	2	R1068J
1104.434	0.016	6050821	STOP	n/a	n/a	n/a	-999	10	[-999, -999, -999]	n/a	FR1	2	R1068J
1104.45	1.101	6050837	DISTRACT_END	n/a	n/a	n/a	-999	10	[0, 0, 0]	n/a	FR1	2	R1068J
1105.551	0.96	6051938	REC_START	n/a	n/a	n/a	-999	10	[0, 0, 0]	n/a	FR1	2	R1068J
1106.511	2.19	6052898	REC_WORD_VV	2.19	n/a	<>	-999	10	[0, 0, 0]	n/a	FR1	2	R1068J
1108.701	1.306	6055088	REC_WORD	1.306	n/a	TOAST	6	10	[0, 0, 0]	n/a	FR1	2	R1068J
1110.007	1.372	6056394	REC_WORD	1.372	n/a	MAT	7	10	[0, 0, 0]	n/a	FR1	2	R1068J
1111.379	1.86	6057766	REC_WORD	1.86	n/a	NAIL	8	10	[0, 0, 0]	n/a	FR1	2	R1068J
1113.239	1.37	6059626	REC_WORD	1.37	n/a	HOOF	11	10	[0, 0, 0]	n/a	FR1	2	R1068J
1114.609	1.384	6060996	REC_WORD	1.384	n/a	BRUSH	12	10	[0, 0, 0]	n/a	FR1	2	R1068J
1115.993	1.346	6062380	REC_WORD	1.346	n/a	ARM	2	10	[0, 0, 0]	n/a	FR1	2	R1068J
1117.339	1.477	6063726	REC_WORD	1.477	n/a	BOARD	1	10	[0, 0, 0]	n/a	FR1	2	R1068J
1118.816	1.217	6065203	REC_WORD	1.217	n/a	HOOK	3	10	[0, 0, 0]	n/a	FR1	2	R1068J
1120.033	1.291	6066420	REC_WORD	1.291	n/a	VEST	4	10	[0, 0, 0]	n/a	FR1	2	R1068J
1121.324	3.766	6067711	REC_WORD	3.766	n/a	SOCK	5	10	[0, 0, 0]	n/a	FR1	2	R1068J
1125.09	2.926	6071476	REC_WORD_VV	2.926	n/a	<>	-999	10	[0, 0, 0]	n/a	FR1	2	R1068J
1128.016	3.26	6074402	REC_WORD_VV	3.26	n/a	<>	-999	10	[0, 0, 0]	n/a	FR1	2	R1068J
1131.276	1.025	6077662	REC_WORD_VV	1.025	n/a	<>	-999	10	[0, 0, 0]	n/a	FR1	2	R1068J
1132.301	3.262	6078687	REC_WORD_VV	3.262	n/a	<>	-999	10	[0, 0, 0]	n/a	FR1	2	R1068J
1135.563	46.398	6081949	REC_END	n/a	n/a	n/a	-999	10	[0, 0, 0]	n/a	FR1	2	R1068J
1181.961	0.0	6128346	COUNTDOWN_START	n/a	n/a	n/a	-999	11	[0, 0, 0]	n/a	FR1	2	R1068J
1181.961	10.428	6128346	TRIAL	n/a	n/a	n/a	-999	11	[0, 0, 0]	n/a	FR1	2	R1068J
1192.389	0.007	6138774	COUNTDOWN_END	n/a	n/a	n/a	-999	11	[0, 0, 0]	n/a	FR1	2	R1068J
1192.396	2.567	6138781	ORIENT	n/a	n/a	n/a	-999	11	[0, 0, 0]	n/a	FR1	2	R1068J
1194.963	2.484	6141348	WORD	n/a	wordpools/wordpool_EN.txt	BROOM	1	11	[0, 0, 0]	n/a	FR1	2	R1068J
1197.447	2.616	6143832	WORD	n/a	wordpools/wordpool_EN.txt	DRESS	2	11	[0, 0, 0]	n/a	FR1	2	R1068J
1200.063	2.502	6146448	WORD	n/a	wordpools/wordpool_EN.txt	OAK	3	11	[0, 0, 0]	n/a	FR1	2	R1068J
1202.565	2.482	6148950	WORD	n/a	wordpools/wordpool_EN.txt	ROOF	4	11	[0, 0, 0]	n/a	FR1	2	R1068J
1205.047	2.385	6151432	WORD	n/a	wordpools/wordpool_EN.txt	HORSE	5	11	[0, 0, 0]	n/a	FR1	2	R1068J
1207.432	2.549	6153817	WORD	n/a	wordpools/wordpool_EN.txt	RAKE	6	11	[0, 0, 0]	n/a	FR1	2	R1068J
1209.981	2.417	6156366	WORD	n/a	wordpools/wordpool_EN.txt	WHALE	7	11	[0, 0, 0]	n/a	FR1	2	R1068J
1212.398	2.451	6158783	WORD	n/a	wordpools/wordpool_EN.txt	DRUM	8	11	[0, 0, 0]	n/a	FR1	2	R1068J
1214.849	2.584	6161234	WORD	n/a	wordpools/wordpool_EN.txt	BAG	9	11	[0, 0, 0]	n/a	FR1	2	R1068J
1217.433	2.55	6163818	WORD	n/a	wordpools/wordpool_EN.txt	FLAG	10	11	[0, 0, 0]	n/a	FR1	2	R1068J
1219.983	2.501	6166368	WORD	n/a	wordpools/wordpool_EN.txt	CLOWN	11	11	[0, 0, 0]	n/a	FR1	2	R1068J
1222.484	1.616	6168869	WORD	n/a	wordpools/wordpool_EN.txt	PARK	12	11	[0, 0, 0]	n/a	FR1	2	R1068J
1224.1	0.001	6170485	DISTRACT_START	n/a	n/a	n/a	-999	11	[0, 0, 0]	n/a	FR1	2	R1068J
1224.101	0.016	6170486	START	n/a	n/a	n/a	-999	11	[-999, -999, -999]	n/a	FR1	2	R1068J
1224.117	4.435	6170502	PROB	4.435	n/a	n/a	-999	11	[2, 3, 3]	8	FR1	2	R1068J
1228.552	2.832	6174937	PROB	2.832	n/a	n/a	-999	11	[6, 7, 4]	17	FR1	2	R1068J
1231.384	3.768	6177769	PROB	3.768	n/a	n/a	-999	11	[4, 9, 9]	22	FR1	2	R1068J
1235.152	3.368	6181537	PROB	3.368	n/a	n/a	-999	11	[3, 6, 3]	12	FR1	2	R1068J
1238.52	3.416	6184904	PROB	3.416	n/a	n/a	-999	11	[1, 6, 1]	8	FR1	2	R1068J
1241.936	4.117	6188320	PROB	4.117	n/a	n/a	-999	11	[4, 4, 8]	16	FR1	2	R1068J
1246.053	0.017	6192437	STOP	n/a	n/a	n/a	-999	11	[-999, -999, -999]	n/a	FR1	2	R1068J
1246.07	1.084	6192454	DISTRACT_END	n/a	n/a	n/a	-999	11	[0, 0, 0]	n/a	FR1	2	R1068J
1247.154	0.995	6193538	REC_START	n/a	n/a	n/a	-999	11	[0, 0, 0]	n/a	FR1	2	R1068J
1248.149	1.464	6194533	REC_WORD_VV	1.464	n/a	<>	-999	11	[0, 0, 0]	n/a	FR1	2	R1068J
1249.613	1.341	6195997	REC_WORD	1.341	n/a	CLOWN	11	11	[0, 0, 0]	n/a	FR1	2	R1068J
1250.954	1.201	6197338	REC_WORD	1.201	n/a	PARK	12	11	[0, 0, 0]	n/a	FR1	2	R1068J
1252.155	0.766	6198539	REC_WORD	0.766	n/a	BAG	9	11	[0, 0, 0]	n/a	FR1	2	R1068J
1252.921	1.669	6199305	REC_WORD	1.669	n/a	FLAG	10	11	[0, 0, 0]	n/a	FR1	2	R1068J
1254.59	1.605	6200974	REC_WORD	1.605	n/a	BROOM	1	11	[0, 0, 0]	n/a	FR1	2	R1068J
1256.195	1.06	6202579	REC_WORD	1.06	n/a	RAKE	6	11	[0, 0, 0]	n/a	FR1	2	R1068J
1257.255	1.359	6203639	REC_WORD	1.359	n/a	DRESS	2	11	[0, 0, 0]	n/a	FR1	2	R1068J
1258.614	1.15	6204998	REC_WORD	1.15	n/a	OAK	3	11	[0, 0, 0]	n/a	FR1	2	R1068J
1259.764	2.262	6206148	REC_WORD	2.262	n/a	ROOF	4	11	[0, 0, 0]	n/a	FR1	2	R1068J
1262.026	7.782	6208410	REC_WORD	7.782	n/a	HORSE	5	11	[0, 0, 0]	n/a	FR1	2	R1068J
1269.808	7.36	6216192	REC_WORD	7.36	n/a	WHALE	7	11	[0, 0, 0]	n/a	FR1	2	R1068J
1277.168	4.824	6223552	REC_END	n/a	n/a	n/a	-999	11	[0, 0, 0]	n/a	FR1	2	R1068J
1281.992	0.0	6228376	COUNTDOWN_START	n/a	n/a	n/a	-999	12	[0, 0, 0]	n/a	FR1	2	R1068J
1281.992	10.428	6228376	TRIAL	n/a	n/a	n/a	-999	12	[0, 0, 0]	n/a	FR1	2	R1068J
1292.42	0.008	6238803	COUNTDOWN_END	n/a	n/a	n/a	-999	12	[0, 0, 0]	n/a	FR1	2	R1068J
1292.428	2.466	6238811	ORIENT	n/a	n/a	n/a	-999	12	[0, 0, 0]	n/a	FR1	2	R1068J
1294.894	2.518	6241277	WORD	n/a	wordpools/wordpool_EN.txt	POND	1	12	[0, 0, 0]	n/a	FR1	2	R1068J
1297.412	2.433	6243795	WORD	n/a	wordpools/wordpool_EN.txt	HAND	2	12	[0, 0, 0]	n/a	FR1	2	R1068J
1299.845	2.4	6246228	WORD	n/a	wordpools/wordpool_EN.txt	SPONGE	3	12	[0, 0, 0]	n/a	FR1	2	R1068J
1302.245	2.6	6248628	WORD	n/a	wordpools/wordpool_EN.txt	WAVE	4	12	[0, 0, 0]	n/a	FR1	2	R1068J
1304.845	2.45	6251228	WORD	n/a	wordpools/wordpool_EN.txt	SHELL	5	12	[0, 0, 0]	n/a	FR1	2	R1068J
1307.295	2.501	6253678	WORD	n/a	wordpools/wordpool_EN.txt	EAR	6	12	[0, 0, 0]	n/a	FR1	2	R1068J
1309.796	2.618	6256179	WORD	n/a	wordpools/wordpool_EN.txt	BEACH	7	12	[0, 0, 0]	n/a	FR1	2	R1068J
1312.414	2.382	6258797	WORD	n/a	wordpools/wordpool_EN.txt	CAGE	8	12	[0, 0, 0]	n/a	FR1	2	R1068J
1314.796	2.384	6261179	WORD	n/a	wordpools/wordpool_EN.txt	SNAIL	9	12	[0, 0, 0]	n/a	FR1	2	R1068J
1317.18	2.601	6263563	WORD	n/a	wordpools/wordpool_EN.txt	NEST	10	12	[0, 0, 0]	n/a	FR1	2	R1068J
1319.781	2.567	6266164	WORD	n/a	wordpools/wordpool_EN.txt	BEAK	11	12	[0, 0, 0]	n/a	FR1	2	R1068J
1322.348	1.617	6268731	WORD	n/a	wordpools/wordpool_EN.txt	THREAD	12	12	[0, 0, 0]	n/a	FR1	2	R1068J
1323.965	0.0	6270348	DISTRACT_START	n/a	n/a	n/a	-999	12	[0, 0, 0]	n/a	FR1	2	R1068J
1323.965	0.016	6270348	START	n/a	n/a	n/a	-999	12	[-999, -999, -999]	n/a	FR1	2	R1068J
1323.981	6.051	6270364	PROB	6.051	n/a	n/a	-999	12	[3, 8, 1]	12	FR1	2	R1068J
1330.032	3.502	6276415	PROB	3.502	n/a	n/a	-999	12	[7, 2, 3]	12	FR1	2	R1068J
1333.534	5.233	6279917	PROB	5.233	n/a	n/a	-999	12	[7, 3, 1]	11	FR1	2	R1068J
1338.767	10.932	6285150	PROB	10.932	n/a	n/a	-999	12	[6, 8, 6]	18	FR1	2	R1068J
1349.699	0.019	6296081	STOP	n/a	n/a	n/a	-999	12	[-999, -999, -999]	n/a	FR1	2	R1068J
1349.718	1.184	6296100	DISTRACT_END	n/a	n/a	n/a	-999	12	[0, 0, 0]	n/a	FR1	2	R1068J
1350.902	0.864	6297284	REC_START	n/a	n/a	n/a	-999	12	[0, 0, 0]	n/a	FR1	2	R1068J
1351.766	1.68	6298148	REC_WORD_VV	1.68	n/a	<>	-999	12	[0, 0, 0]	n/a	FR1	2	R1068J
1353.446	1.984	6299828	REC_WORD	1.984	n/a	HAND	2	12	[0, 0, 0]	n/a	FR1	2	R1068J
1355.43	1.854	6301812	REC_WORD	1.854	n/a	WAVE	4	12	[0, 0, 0]	n/a	FR1	2	R1068J
1357.284	2.335	6303666	REC_WORD	2.335	n/a	POND	1	12	[0, 0, 0]	n/a	FR1	2	R1068J
1359.619	2.26	6306001	REC_WORD	2.26	n/a	NEST	10	12	[0, 0, 0]	n/a	FR1	2	R1068J
1361.879	4.2	6308261	REC_WORD	4.2	n/a	BEAK	11	12	[0, 0, 0]	n/a	FR1	2	R1068J
1366.079	2.339	6312461	REC_WORD_VV	2.339	n/a	<>	-999	12	[0, 0, 0]	n/a	FR1	2	R1068J
1368.418	8.712	6314800	REC_WORD_VV	8.712	n/a	<>	-999	12	[0, 0, 0]	n/a	FR1	2	R1068J
1377.13	2.549	6323512	REC_WORD_VV	2.549	n/a	<>	-999	12	[0, 0, 0]	n/a	FR1	2	R1068J
1379.679	1.237	6326061	REC_WORD	1.237	n/a	SNAIL	9	12	[0, 0, 0]	n/a	FR1	2	R1068J
1380.916	2.924	6327298	REC_END	n/a	n/a	n/a	-999	12	[0, 0, 0]	n/a	FR1	2	R1068J
1383.84	0.0	6330222	COUNTDOWN_START	n/a	n/a	n/a	-999	13	[0, 0, 0]	n/a	FR1	2	R1068J
1383.84	10.428	6330222	TRIAL	n/a	n/a	n/a	-999	13	[0, 0, 0]	n/a	FR1	2	R1068J
1394.268	0.006	6340650	COUNTDOWN_END	n/a	n/a	n/a	-999	13	[0, 0, 0]	n/a	FR1	2	R1068J
1394.274	2.534	6340656	ORIENT	n/a	n/a	n/a	-999	13	[0, 0, 0]	n/a	FR1	2	R1068J
1396.808	2.584	6343190	WORD	n/a	wordpools/wordpool_EN.txt	STEAK	1	13	[0, 0, 0]	n/a	FR1	2	R1068J
1399.392	2.6	6345774	WORD	n/a	wordpools/wordpool_EN.txt	GOLD	2	13	[0, 0, 0]	n/a	FR1	2	R1068J
1401.992	2.418	6348374	WORD	n/a	wordpools/wordpool_EN.txt	PRINCE	3	13	[0, 0, 0]	n/a	FR1	2	R1068J
1404.41	2.483	6350791	WORD	n/a	wordpools/wordpool_EN.txt	BOAT	4	13	[0, 0, 0]	n/a	FR1	2	R1068J
1406.893	2.4	6353274	WORD	n/a	wordpools/wordpool_EN.txt	TRAIN	5	13	[0, 0, 0]	n/a	FR1	2	R1068J
1409.293	2.551	6355674	WORD	n/a	wordpools/wordpool_EN.txt	JET	6	13	[0, 0, 0]	n/a	FR1	2	R1068J
1411.844	2.533	6358225	WORD	n/a	wordpools/wordpool_EN.txt	PEARL	7	13	[0, 0, 0]	n/a	FR1	2	R1068J
1414.377	2.567	6360758	WORD	n/a	wordpools/wordpool_EN.txt	TOOTH	8	13	[0, 0, 0]	n/a	FR1	2	R1068J
1416.944	2.552	6363325	WORD	n/a	wordpools/wordpool_EN.txt	SHRIMP	9	13	[0, 0, 0]	n/a	FR1	2	R1068J
1419.496	2.499	6365877	WORD	n/a	wordpools/wordpool_EN.txt	CROWN	10	13	[0, 0, 0]	n/a	FR1	2	R1068J
1421.995	2.568	6368376	WORD	n/a	wordpools/wordpool_EN.txt	FISH	11	13	[0, 0, 0]	n/a	FR1	2	R1068J
1424.563	1.616	6370944	WORD	n/a	wordpools/wordpool_EN.txt	SLIME	12	13	[0, 0, 0]	n/a	FR1	2	R1068J
1426.179	0.001	6372560	DISTRACT_START	n/a	n/a	n/a	-999	13	[0, 0, 0]	n/a	FR1	2	R1068J
1426.18	0.016	6372561	START	n/a	n/a	n/a	-999	13	[-999, -999, -999]	n/a	FR1	2	R1068J
1426.196	11.135	6372577	PROB	11.135	n/a	n/a	-999	13	[4, 5, 9]	18	FR1	2	R1068J
1437.331	3.118	6383712	PROB	3.118	n/a	n/a	-999	13	[9, 8, 1]	18	FR1	2	R1068J
1440.449	4.599	6386830	PROB	4.599	n/a	n/a	-999	13	[2, 2, 9]	13	FR1	2	R1068J
1445.048	3.681	6391429	PROB	3.681	n/a	n/a	-999	13	[1, 8, 6]	15	FR1	2	R1068J
1448.729	0.003	6395110	STOP	n/a	n/a	n/a	-999	13	[-999, -999, -999]	n/a	FR1	2	R1068J
1448.732	1.034	6395113	DISTRACT_END	n/a	n/a	n/a	-999	13	[0, 0, 0]	n/a	FR1	2	R1068J
1449.766	1.176	6396147	REC_START	n/a	n/a	n/a	-999	13	[0, 0, 0]	n/a	FR1	2	R1068J
1450.942	1.218	6397323	REC_WORD_VV	1.218	n/a	<>	-999	13	[0, 0, 0]	n/a	FR1	2	R1068J
1452.16	0.86	6398541	REC_WORD	0.86	n/a	GOLD	2	13	[0, 0, 0]	n/a	FR1	2	R1068J
1453.02	0.638	6399401	REC_WORD	0.638	n/a	PEARL	7	13	[0, 0, 0]	n/a	FR1	2	R1068J
1453.658	1.92	6400039	REC_WORD	1.92	n/a	CROWN	10	13	[0, 0, 0]	n/a	FR1	2	R1068J
1455.578	1.203	6401959	REC_WORD	1.203	n/a	SHRIMP	9	13	[0, 0, 0]	n/a	FR1	2	R1068J
1456.781	1.385	6403162	REC_WORD	1.385	n/a	FISH	11	13	[0, 0, 0]	n/a	FR1	2	R1068J
1458.166	2.915	6404546	REC_WORD_VV	2.915	n/a	<>	-999	13	[0, 0, 0]	n/a	FR1	2	R1068J
1461.081	1.0	6407461	REC_WORD_VV	1.0	n/a	<>	-999	13	[0, 0, 0]	n/a	FR1	2	R1068J
1462.081	2.028	6408461	REC_WORD_VV	2.028	n/a	<>	-999	13	[0, 0, 0]	n/a	FR1	2	R1068J
1464.109	15.67	6410489	REC_WORD_VV	15.67	n/a	<>	-999	13	[0, 0, 0]	n/a	FR1	2	R1068J
1479.779	12.043	6426159	REC_END	n/a	n/a	n/a	-999	13	[0, 0, 0]	n/a	FR1	2	R1068J
1491.822	0.0	6438202	COUNTDOWN_START	n/a	n/a	n/a	-999	14	[0, 0, 0]	n/a	FR1	2	R1068J
1491.822	10.428	6438202	TRIAL	n/a	n/a	n/a	-999	14	[0, 0, 0]	n/a	FR1	2	R1068J
1502.25	0.007	6448630	COUNTDOWN_END	n/a	n/a	n/a	-999	14	[0, 0, 0]	n/a	FR1	2	R1068J
1502.257	2.5	6448637	ORIENT	n/a	n/a	n/a	-999	14	[0, 0, 0]	n/a	FR1	2	R1068J
1504.757	2.584	6451137	WORD	n/a	wordpools/wordpool_EN.txt	FORT	1	14	[0, 0, 0]	n/a	FR1	2	R1068J
1507.341	2.483	6453721	WORD	n/a	wordpools/wordpool_EN.txt	MOON	2	14	[0, 0, 0]	n/a	FR1	2	R1068J
1509.824	2.384	6456204	WORD	n/a	wordpools/wordpool_EN.txt	FILM	3	14	[0, 0, 0]	n/a	FR1	2	R1068J
1512.208	2.617	6458588	WORD	n/a	wordpools/wordpool_EN.txt	INK	4	14	[0, 0, 0]	n/a	FR1	2	R1068J
1514.825	2.417	6461204	WORD	n/a	wordpools/wordpool_EN.txt	POLE	5	14	[0, 0, 0]	n/a	FR1	2	R1068J
1517.242	2.484	6463621	WORD	n/a	wordpools/wordpool_EN.txt	JUDGE	6	14	[0, 0, 0]	n/a	FR1	2	R1068J
1519.726	2.417	6466105	WORD	n/a	wordpools/wordpool_EN.txt	CASH	7	14	[0, 0, 0]	n/a	FR1	2	R1068J
1522.143	2.451	6468522	WORD	n/a	wordpools/wordpool_EN.txt	SHEET	8	14	[0, 0, 0]	n/a	FR1	2	R1068J
1524.594	2.533	6470973	WORD	n/a	wordpools/wordpool_EN.txt	MAIL	9	14	[0, 0, 0]	n/a	FR1	2	R1068J
1527.127	2.435	6473506	WORD	n/a	wordpools/wordpool_EN.txt	NET	10	14	[0, 0, 0]	n/a	FR1	2	R1068J
1529.562	2.582	6475941	WORD	n/a	wordpools/wordpool_EN.txt	TOAD	11	14	[0, 0, 0]	n/a	FR1	2	R1068J
1532.144	1.617	6478523	WORD	n/a	wordpools/wordpool_EN.txt	PEA	12	14	[0, 0, 0]	n/a	FR1	2	R1068J
1533.761	0.001	6480140	DISTRACT_START	n/a	n/a	n/a	-999	14	[0, 0, 0]	n/a	FR1	2	R1068J
1533.762	0.016	6480141	START	n/a	n/a	n/a	-999	14	[-999, -999, -999]	n/a	FR1	2	R1068J
1533.778	8.035	6480157	PROB	8.035	n/a	n/a	-999	14	[2, 3, 7]	11	FR1	2	R1068J
1541.813	4.45	6488192	PROB	4.45	n/a	n/a	-999	14	[3, 3, 3]	9	FR1	2	R1068J
1546.263	4.302	6492642	PROB	4.302	n/a	n/a	-999	14	[1, 3, 1]	5	FR1	2	R1068J
1550.565	5.216	6496944	PROB	5.216	n/a	n/a	-999	14	[4, 4, 5]	13	FR1	2	R1068J
1555.781	0.017	6502160	STOP	n/a	n/a	n/a	-999	14	[-999, -999, -999]	n/a	FR1	2	R1068J
1555.798	1.2	6502177	DISTRACT_END	n/a	n/a	n/a	-999	14	[0, 0, 0]	n/a	FR1	2	R1068J
1556.998	0.976	6503377	REC_START	n/a	n/a	n/a	-999	14	[0, 0, 0]	n/a	FR1	2	R1068J
1557.974	2.694	6504353	REC_WORD_VV	2.694	n/a	<>	-999	14	[0, 0, 0]	n/a	FR1	2	R1068J
1560.668	1.58	6507047	REC_WORD	1.58	n/a	FORT	1	14	[0, 0, 0]	n/a	FR1	2	R1068J
1562.248	1.888	6508627	REC_WORD	1.888	n/a	MOON	2	14	[0, 0, 0]	n/a	FR1	2	R1068J
1564.136	1.533	6510515	REC_WORD	1.533	n/a	POLE	5	14	[0, 0, 0]	n/a	FR1	2	R1068J
1565.669	1.641	6512048	REC_WORD	1.641	n/a	TOAD	11	14	[0, 0, 0]	n/a	FR1	2	R1068J
1567.31	10.403	6513689	REC_WORD	10.403	n/a	NET	10	14	[0, 0, 0]	n/a	FR1	2	R1068J
1577.713	1.112	6524091	REC_WORD_VV	1.112	n/a	<>	-999	14	[0, 0, 0]	n/a	FR1	2	R1068J
1578.825	1.0	6525203	REC_WORD_VV	1.0	n/a	<>	-999	14	[0, 0, 0]	n/a	FR1	2	R1068J
1579.825	3.711	6526203	REC_WORD_VV	3.711	n/a	<>	-999	14	[0, 0, 0]	n/a	FR1	2	R1068J
1583.536	3.478	6529914	REC_WORD_VV	3.478	n/a	<>	-999	14	[0, 0, 0]	n/a	FR1	2	R1068J
1587.014	14.791	6533392	REC_END	n/a	n/a	n/a	-999	14	[0, 0, 0]	n/a	FR1	2	R1068J
1601.805	0.0	6548183	TRIAL	n/a	n/a	n/a	-999	15	[0, 0, 0]	n/a	FR1	2	R1068J
1601.805	0.0	6548183	COUNTDOWN_START	n/a	n/a	n/a	-999	15	[0, 0, 0]	n/a	FR1	2	R1068J
