onset	duration	sample	trial_type	response_time	stim_file	item_name	serialpos	list	test	answer	experiment	session	subject
0.0	0.0	9255	INSTRUCT_START	n/a	n/a	n/a	-999	-999	[0, 0, 0]	n/a	FR1	0	R1202M
0.0	11.246	9255	INSTRUCT_END	n/a	n/a	n/a	-999	-999	[0, 0, 0]	n/a	FR1	0	R1202M
11.246	0.0	20501	SESS_START	n/a	n/a	n/a	-999	-999	[0, 0, 0]	n/a	FR1	0	R1202M
11.246	176.02	20501	MIC_TEST	n/a	n/a	n/a	-999	-999	[0, 0, 0]	n/a	FR1	0	R1202M
187.266	8.039	196511	PRACTICE_TRIAL	n/a	n/a	n/a	-999	-1	[0, 0, 0]	n/a	FR1	0	R1202M
195.305	10.428	204549	COUNTDOWN_START	n/a	n/a	n/a	-999	-1	[0, 0, 0]	n/a	FR1	0	R1202M
205.733	0.008	214977	COUNTDOWN_END	n/a	n/a	n/a	-999	-1	[0, 0, 0]	n/a	FR1	0	R1202M
205.741	1.617	214985	PRACTICE_ORIENT	n/a	n/a	n/a	-999	-1	[0, 0, 0]	n/a	FR1	0	R1202M
207.358	2.001	216602	PRACTICE_ORIENT_OFF	n/a	n/a	n/a	-999	-1	[0, 0, 0]	n/a	FR1	0	R1202M
209.359	1.616	218602	PRACTICE_WORD	n/a	n/a	IRON	1	-1	[0, 0, 0]	n/a	FR1	0	R1202M
210.975	0.8	220218	PRACTICE_WORD_OFF	n/a	n/a	IRON	-999	-1	[0, 0, 0]	n/a	FR1	0	R1202M
211.775	1.601	221018	PRACTICE_WORD	n/a	n/a	TONGUE	2	-1	[0, 0, 0]	n/a	FR1	0	R1202M
213.376	0.917	222619	PRACTICE_WORD_OFF	n/a	n/a	TONGUE	-999	-1	[0, 0, 0]	n/a	FR1	0	R1202M
214.293	1.616	223536	PRACTICE_WORD	n/a	n/a	CHEST	3	-1	[0, 0, 0]	n/a	FR1	0	R1202M
215.909	0.884	225152	PRACTICE_WORD_OFF	n/a	n/a	CHEST	-999	-1	[0, 0, 0]	n/a	FR1	0	R1202M
216.793	1.618	226036	PRACTICE_WORD	n/a	n/a	WAGON	4	-1	[0, 0, 0]	n/a	FR1	0	R1202M
218.411	0.95	227654	PRACTICE_WORD_OFF	n/a	n/a	WAGON	-999	-1	[0, 0, 0]	n/a	FR1	0	R1202M
219.361	1.616	228604	PRACTICE_WORD	n/a	n/a	RHINO	5	-1	[0, 0, 0]	n/a	FR1	0	R1202M
220.977	0.933	230220	PRACTICE_WORD_OFF	n/a	n/a	RHINO	-999	-1	[0, 0, 0]	n/a	FR1	0	R1202M
221.91	1.618	231153	PRACTICE_WORD	n/a	n/a	BEAM	6	-1	[0, 0, 0]	n/a	FR1	0	R1202M
223.528	0.95	232771	PRACTICE_WORD_OFF	n/a	n/a	BEAM	-999	-1	[0, 0, 0]	n/a	FR1	0	R1202M
224.478	1.617	233721	PRACTICE_WORD	n/a	n/a	ATTIC	7	-1	[0, 0, 0]	n/a	FR1	0	R1202M
226.095	0.916	235338	PRACTICE_WORD_OFF	n/a	n/a	ATTIC	-999	-1	[0, 0, 0]	n/a	FR1	0	R1202M
227.011	1.618	236254	PRACTICE_WORD	n/a	n/a	CAMEL	8	-1	[0, 0, 0]	n/a	FR1	0	R1202M
228.629	0.9	237871	PRACTICE_WORD_OFF	n/a	n/a	CAMEL	-999	-1	[0, 0, 0]	n/a	FR1	0	R1202M
229.529	1.617	238771	PRACTICE_WORD	n/a	n/a	COTTON	9	-1	[0, 0, 0]	n/a	FR1	0	R1202M
231.146	0.934	240388	PRACTICE_WORD_OFF	n/a	n/a	COTTON	-999	-1	[0, 0, 0]	n/a	FR1	0	R1202M
232.08	1.616	241322	PRACTICE_WORD	n/a	n/a	RING	10	-1	[0, 0, 0]	n/a	FR1	0	R1202M
233.696	0.818	242938	PRACTICE_WORD_OFF	n/a	n/a	RING	-999	-1	[0, 0, 0]	n/a	FR1	0	R1202M
234.514	1.617	243756	PRACTICE_WORD	n/a	n/a	FLOOD	11	-1	[0, 0, 0]	n/a	FR1	0	R1202M
236.131	0.816	245373	PRACTICE_WORD_OFF	n/a	n/a	FLOOD	-999	-1	[0, 0, 0]	n/a	FR1	0	R1202M
236.947	1.618	246189	PRACTICE_WORD	n/a	n/a	WATCH	12	-1	[0, 0, 0]	n/a	FR1	0	R1202M
238.565	0.0	247807	PRACTICE_WORD_OFF	n/a	n/a	WATCH	-999	-1	[0, 0, 0]	n/a	FR1	0	R1202M
238.565	0.0	247807	DISTRACT_START	n/a	n/a	n/a	-999	-1	[0, 0, 0]	n/a	FR1	0	R1202M
238.565	0.016	247807	START	n/a	n/a	n/a	-999	-1	[-999, -999, -999]	n/a	FR1	0	R1202M
238.581	7.384	247823	PROB	7.384	n/a	n/a	-999	-1	[1, 4, 8]	13	FR1	0	R1202M
245.965	8.735	255206	PROB	8.735	n/a	n/a	-999	-1	[1, 6, 2]	9	FR1	0	R1202M
254.7	4.962	263941	PROB	4.962	n/a	n/a	-999	-1	[7, 4, 6]	17	FR1	0	R1202M
259.662	0.006	268903	STOP	n/a	n/a	n/a	-999	-1	[-999, -999, -999]	n/a	FR1	0	R1202M
259.668	0.551	268909	DISTRACT_END	n/a	n/a	n/a	-999	-1	[0, 0, 0]	n/a	FR1	0	R1202M
260.219	0.516	269460	RETRIEVAL_ORIENT	n/a	n/a	n/a	-999	-1	[0, 0, 0]	n/a	FR1	0	R1202M
260.735	30.012	269976	PRACTICE_REC_START	n/a	n/a	n/a	-999	-1	[0, 0, 0]	n/a	FR1	0	R1202M
290.747	35.935	299986	PRACTICE_REC_END	n/a	n/a	n/a	-999	-1	[0, 0, 0]	n/a	FR1	0	R1202M
326.682	0.5	335919	TRIAL	n/a	n/a	n/a	-999	1	[0, 0, 0]	n/a	FR1	0	R1202M
327.182	10.428	336419	COUNTDOWN_START	n/a	n/a	n/a	-999	1	[0, 0, 0]	n/a	FR1	0	R1202M
337.61	0.007	346846	COUNTDOWN_END	n/a	n/a	n/a	-999	1	[0, 0, 0]	n/a	FR1	0	R1202M
337.617	1.617	346853	ORIENT	n/a	n/a	n/a	-999	1	[0, 0, 0]	n/a	FR1	0	R1202M
339.234	2.184	348470	ORIENT_OFF	n/a	n/a	n/a	-999	1	[0, 0, 0]	n/a	FR1	0	R1202M
341.418	1.616	350654	WORD	n/a	wordpools/wordpool_EN.txt	LAWN	1	1	[0, 0, 0]	n/a	FR1	0	R1202M
343.034	0.933	352270	WORD_OFF	n/a	n/a	LAWN	1	1	[0, 0, 0]	n/a	FR1	0	R1202M
343.967	1.601	353203	WORD	n/a	wordpools/wordpool_EN.txt	HAND	2	1	[0, 0, 0]	n/a	FR1	0	R1202M
345.568	0.784	354804	WORD_OFF	n/a	n/a	HAND	2	1	[0, 0, 0]	n/a	FR1	0	R1202M
346.352	1.616	355588	WORD	n/a	wordpools/wordpool_EN.txt	BENCH	3	1	[0, 0, 0]	n/a	FR1	0	R1202M
347.968	0.867	357204	WORD_OFF	n/a	n/a	BENCH	3	1	[0, 0, 0]	n/a	FR1	0	R1202M
348.835	1.618	358071	WORD	n/a	wordpools/wordpool_EN.txt	PURSE	4	1	[0, 0, 0]	n/a	FR1	0	R1202M
350.453	0.767	359689	WORD_OFF	n/a	n/a	PURSE	4	1	[0, 0, 0]	n/a	FR1	0	R1202M
351.22	1.616	360456	WORD	n/a	wordpools/wordpool_EN.txt	WEED	5	1	[0, 0, 0]	n/a	FR1	0	R1202M
352.836	0.95	362072	WORD_OFF	n/a	n/a	WEED	5	1	[0, 0, 0]	n/a	FR1	0	R1202M
353.786	1.618	363021	WORD	n/a	wordpools/wordpool_EN.txt	FACE	6	1	[0, 0, 0]	n/a	FR1	0	R1202M
355.404	1.017	364639	WORD_OFF	n/a	n/a	FACE	6	1	[0, 0, 0]	n/a	FR1	0	R1202M
356.421	1.616	365656	WORD	n/a	wordpools/wordpool_EN.txt	BALL	7	1	[0, 0, 0]	n/a	FR1	0	R1202M
358.037	0.833	367272	WORD_OFF	n/a	n/a	BALL	7	1	[0, 0, 0]	n/a	FR1	0	R1202M
358.87	1.618	368105	WORD	n/a	wordpools/wordpool_EN.txt	COUCH	8	1	[0, 0, 0]	n/a	FR1	0	R1202M
360.488	0.767	369723	WORD_OFF	n/a	n/a	COUCH	8	1	[0, 0, 0]	n/a	FR1	0	R1202M
361.255	1.616	370490	WORD	n/a	wordpools/wordpool_EN.txt	DOOR	9	1	[0, 0, 0]	n/a	FR1	0	R1202M
362.871	0.817	372106	WORD_OFF	n/a	n/a	DOOR	9	1	[0, 0, 0]	n/a	FR1	0	R1202M
363.688	1.618	372923	WORD	n/a	wordpools/wordpool_EN.txt	RUG	10	1	[0, 0, 0]	n/a	FR1	0	R1202M
365.306	0.983	374541	WORD_OFF	n/a	n/a	RUG	10	1	[0, 0, 0]	n/a	FR1	0	R1202M
366.289	1.616	375524	WORD	n/a	wordpools/wordpool_EN.txt	VASE	11	1	[0, 0, 0]	n/a	FR1	0	R1202M
367.905	0.784	377140	WORD_OFF	n/a	n/a	VASE	11	1	[0, 0, 0]	n/a	FR1	0	R1202M
368.689	1.618	377924	WORD	n/a	wordpools/wordpool_EN.txt	DIME	12	1	[0, 0, 0]	n/a	FR1	0	R1202M
370.307	0.0	379542	WORD_OFF	n/a	n/a	DIME	12	1	[0, 0, 0]	n/a	FR1	0	R1202M
370.307	0.0	379542	DISTRACT_START	n/a	n/a	n/a	-999	1	[0, 0, 0]	n/a	FR1	0	R1202M
370.307	0.017	379542	START	n/a	n/a	n/a	-999	1	[-999, -999, -999]	n/a	FR1	0	R1202M
370.324	6.251	379559	PROB	6.251	n/a	n/a	-999	1	[2, 9, 3]	14	FR1	0	R1202M
376.575	7.167	385809	PROB	7.167	n/a	n/a	-999	1	[6, 9, 5]	20	FR1	0	R1202M
383.742	10.142	392976	PROB	10.142	n/a	n/a	-999	1	[6, 7, 8]	21	FR1	0	R1202M
393.884	0.01	403117	STOP	n/a	n/a	n/a	-999	1	[-999, -999, -999]	n/a	FR1	0	R1202M
393.894	0.651	403127	DISTRACT_END	n/a	n/a	n/a	-999	1	[0, 0, 0]	n/a	FR1	0	R1202M
394.545	0.517	403778	RETRIEVAL_ORIENT	n/a	n/a	n/a	-999	1	[0, 0, 0]	n/a	FR1	0	R1202M
395.062	1.663	404295	REC_START	n/a	n/a	n/a	-999	1	[0, 0, 0]	n/a	FR1	0	R1202M
396.725	1.864	405958	REC_WORD	1.864	n/a	VASE	-999	1	[0, 0, 0]	n/a	FR1	0	R1202M
398.589	4.375	407822	REC_WORD	4.375	n/a	DOOR	-999	1	[0, 0, 0]	n/a	FR1	0	R1202M
402.964	12.179	412197	REC_WORD	12.179	n/a	BALL	-999	1	[0, 0, 0]	n/a	FR1	0	R1202M
415.143	5.96	424375	REC_WORD	5.96	n/a	COUCH	-999	1	[0, 0, 0]	n/a	FR1	0	R1202M
421.103	3.971	430335	REC_WORD	3.971	n/a	RUG	-999	1	[0, 0, 0]	n/a	FR1	0	R1202M
425.074	5.627	434305	REC_END	n/a	n/a	n/a	-999	1	[0, 0, 0]	n/a	FR1	0	R1202M
430.701	0.5	439932	TRIAL	n/a	n/a	n/a	-999	2	[0, 0, 0]	n/a	FR1	0	R1202M
431.201	10.428	440432	COUNTDOWN_START	n/a	n/a	n/a	-999	2	[0, 0, 0]	n/a	FR1	0	R1202M
441.629	0.008	450860	COUNTDOWN_END	n/a	n/a	n/a	-999	2	[0, 0, 0]	n/a	FR1	0	R1202M
441.637	1.617	450868	ORIENT	n/a	n/a	n/a	-999	2	[0, 0, 0]	n/a	FR1	0	R1202M
443.254	2.001	452484	ORIENT_OFF	n/a	n/a	n/a	-999	2	[0, 0, 0]	n/a	FR1	0	R1202M
445.255	1.616	454485	WORD	n/a	wordpools/wordpool_EN.txt	HOOF	1	2	[0, 0, 0]	n/a	FR1	0	R1202M
446.871	0.866	456101	WORD_OFF	n/a	n/a	HOOF	1	2	[0, 0, 0]	n/a	FR1	0	R1202M
447.737	1.601	456967	WORD	n/a	wordpools/wordpool_EN.txt	TRASH	2	2	[0, 0, 0]	n/a	FR1	0	R1202M
449.338	0.851	458568	WORD_OFF	n/a	n/a	TRASH	2	2	[0, 0, 0]	n/a	FR1	0	R1202M
450.189	1.616	459419	WORD	n/a	wordpools/wordpool_EN.txt	CLAY	3	2	[0, 0, 0]	n/a	FR1	0	R1202M
451.805	0.818	461035	WORD_OFF	n/a	n/a	CLAY	3	2	[0, 0, 0]	n/a	FR1	0	R1202M
452.623	1.617	461853	WORD	n/a	wordpools/wordpool_EN.txt	MILK	4	2	[0, 0, 0]	n/a	FR1	0	R1202M
454.24	0.833	463470	WORD_OFF	n/a	n/a	MILK	4	2	[0, 0, 0]	n/a	FR1	0	R1202M
455.073	1.616	464303	WORD	n/a	wordpools/wordpool_EN.txt	GLASS	5	2	[0, 0, 0]	n/a	FR1	0	R1202M
456.689	0.901	465919	WORD_OFF	n/a	n/a	GLASS	5	2	[0, 0, 0]	n/a	FR1	0	R1202M
457.59	1.617	466820	WORD	n/a	wordpools/wordpool_EN.txt	CORD	6	2	[0, 0, 0]	n/a	FR1	0	R1202M
459.207	0.867	468437	WORD_OFF	n/a	n/a	CORD	6	2	[0, 0, 0]	n/a	FR1	0	R1202M
460.074	1.616	469304	WORD	n/a	wordpools/wordpool_EN.txt	HEART	7	2	[0, 0, 0]	n/a	FR1	0	R1202M
461.69	0.985	470919	WORD_OFF	n/a	n/a	HEART	7	2	[0, 0, 0]	n/a	FR1	0	R1202M
462.675	1.617	471904	WORD	n/a	wordpools/wordpool_EN.txt	VEST	8	2	[0, 0, 0]	n/a	FR1	0	R1202M
464.292	0.8	473521	WORD_OFF	n/a	n/a	VEST	8	2	[0, 0, 0]	n/a	FR1	0	R1202M
465.092	1.616	474321	WORD	n/a	wordpools/wordpool_EN.txt	GRAPE	9	2	[0, 0, 0]	n/a	FR1	0	R1202M
466.708	1.017	475937	WORD_OFF	n/a	n/a	GRAPE	9	2	[0, 0, 0]	n/a	FR1	0	R1202M
467.725	1.618	476954	WORD	n/a	wordpools/wordpool_EN.txt	CUP	10	2	[0, 0, 0]	n/a	FR1	0	R1202M
469.343	0.8	478572	WORD_OFF	n/a	n/a	CUP	10	2	[0, 0, 0]	n/a	FR1	0	R1202M
470.143	1.616	479372	WORD	n/a	wordpools/wordpool_EN.txt	FISH	11	2	[0, 0, 0]	n/a	FR1	0	R1202M
471.759	0.901	480988	WORD_OFF	n/a	n/a	FISH	11	2	[0, 0, 0]	n/a	FR1	0	R1202M
472.66	1.617	481889	WORD	n/a	wordpools/wordpool_EN.txt	PET	12	2	[0, 0, 0]	n/a	FR1	0	R1202M
474.277	0.0	483506	WORD_OFF	n/a	n/a	PET	12	2	[0, 0, 0]	n/a	FR1	0	R1202M
474.277	0.0	483506	DISTRACT_START	n/a	n/a	n/a	-999	2	[0, 0, 0]	n/a	FR1	0	R1202M
474.277	0.017	483506	START	n/a	n/a	n/a	-999	2	[-999, -999, -999]	n/a	FR1	0	R1202M
474.294	12.551	483523	PROB	12.551	n/a	n/a	-999	2	[7, 9, 3]	18	FR1	0	R1202M
486.845	6.851	496073	PROB	6.851	n/a	n/a	-999	2	[6, 2, 2]	10	FR1	0	R1202M
493.696	7.34	502924	PROB	7.34	n/a	n/a	-999	2	[1, 5, 9]	15	FR1	0	R1202M
501.036	0.012	510263	STOP	n/a	n/a	n/a	-999	2	[-999, -999, -999]	n/a	FR1	0	R1202M
501.048	0.667	510275	DISTRACT_END	n/a	n/a	n/a	-999	2	[0, 0, 0]	n/a	FR1	0	R1202M
501.715	0.518	510942	RETRIEVAL_ORIENT	n/a	n/a	n/a	-999	2	[0, 0, 0]	n/a	FR1	0	R1202M
502.233	3.842	511460	REC_START	n/a	n/a	n/a	-999	2	[0, 0, 0]	n/a	FR1	0	R1202M
506.075	15.676	515302	REC_WORD	15.676	n/a	HOOF	-999	2	[0, 0, 0]	n/a	FR1	0	R1202M
521.751	10.494	530977	REC_WORD	10.494	n/a	CAMEL	-999	2	[0, 0, 0]	n/a	FR1	0	R1202M
532.245	8.095	541471	REC_END	n/a	n/a	n/a	-999	2	[0, 0, 0]	n/a	FR1	0	R1202M
540.34	0.5	549565	TRIAL	n/a	n/a	n/a	-999	3	[0, 0, 0]	n/a	FR1	0	R1202M
540.84	10.428	550065	COUNTDOWN_START	n/a	n/a	n/a	-999	3	[0, 0, 0]	n/a	FR1	0	R1202M
551.268	0.007	560492	COUNTDOWN_END	n/a	n/a	n/a	-999	3	[0, 0, 0]	n/a	FR1	0	R1202M
551.275	1.616	560499	ORIENT	n/a	n/a	n/a	-999	3	[0, 0, 0]	n/a	FR1	0	R1202M
552.891	2.067	562115	ORIENT_OFF	n/a	n/a	n/a	-999	3	[0, 0, 0]	n/a	FR1	0	R1202M
554.958	1.601	564182	WORD	n/a	wordpools/wordpool_EN.txt	DESK	1	3	[0, 0, 0]	n/a	FR1	0	R1202M
556.559	0.851	565783	WORD_OFF	n/a	n/a	DESK	1	3	[0, 0, 0]	n/a	FR1	0	R1202M
557.41	1.616	566634	WORD	n/a	wordpools/wordpool_EN.txt	MOUTH	2	3	[0, 0, 0]	n/a	FR1	0	R1202M
559.026	0.966	568250	WORD_OFF	n/a	n/a	MOUTH	2	3	[0, 0, 0]	n/a	FR1	0	R1202M
559.992	1.618	569216	WORD	n/a	wordpools/wordpool_EN.txt	TRAY	3	3	[0, 0, 0]	n/a	FR1	0	R1202M
561.61	0.817	570834	WORD_OFF	n/a	n/a	TRAY	3	3	[0, 0, 0]	n/a	FR1	0	R1202M
562.427	1.616	571651	WORD	n/a	wordpools/wordpool_EN.txt	TOAST	4	3	[0, 0, 0]	n/a	FR1	0	R1202M
564.043	0.834	573267	WORD_OFF	n/a	n/a	TOAST	4	3	[0, 0, 0]	n/a	FR1	0	R1202M
564.877	1.618	574101	WORD	n/a	wordpools/wordpool_EN.txt	SINK	5	3	[0, 0, 0]	n/a	FR1	0	R1202M
566.495	0.967	575719	WORD_OFF	n/a	n/a	SINK	5	3	[0, 0, 0]	n/a	FR1	0	R1202M
567.462	1.617	576686	WORD	n/a	wordpools/wordpool_EN.txt	SOAP	6	3	[0, 0, 0]	n/a	FR1	0	R1202M
569.079	0.865	578302	WORD_OFF	n/a	n/a	SOAP	6	3	[0, 0, 0]	n/a	FR1	0	R1202M
569.944	1.618	579167	WORD	n/a	wordpools/wordpool_EN.txt	SEAL	7	3	[0, 0, 0]	n/a	FR1	0	R1202M
571.562	0.951	580785	WORD_OFF	n/a	n/a	SEAL	7	3	[0, 0, 0]	n/a	FR1	0	R1202M
572.513	1.617	581736	WORD	n/a	wordpools/wordpool_EN.txt	CHALK	8	3	[0, 0, 0]	n/a	FR1	0	R1202M
574.13	0.899	583353	WORD_OFF	n/a	n/a	CHALK	8	3	[0, 0, 0]	n/a	FR1	0	R1202M
575.029	1.618	584252	WORD	n/a	wordpools/wordpool_EN.txt	SOUP	9	3	[0, 0, 0]	n/a	FR1	0	R1202M
576.647	0.966	585870	WORD_OFF	n/a	n/a	SOUP	9	3	[0, 0, 0]	n/a	FR1	0	R1202M
577.613	1.618	586836	WORD	n/a	wordpools/wordpool_EN.txt	WAND	10	3	[0, 0, 0]	n/a	FR1	0	R1202M
579.231	0.999	588454	WORD_OFF	n/a	n/a	WAND	10	3	[0, 0, 0]	n/a	FR1	0	R1202M
580.23	1.617	589453	WORD	n/a	wordpools/wordpool_EN.txt	MUD	11	3	[0, 0, 0]	n/a	FR1	0	R1202M
581.847	0.784	591070	WORD_OFF	n/a	n/a	MUD	11	3	[0, 0, 0]	n/a	FR1	0	R1202M
582.631	1.617	591854	WORD	n/a	wordpools/wordpool_EN.txt	NOSE	12	3	[0, 0, 0]	n/a	FR1	0	R1202M
584.248	0.0	593471	WORD_OFF	n/a	n/a	NOSE	12	3	[0, 0, 0]	n/a	FR1	0	R1202M
584.248	0.001	593471	DISTRACT_START	n/a	n/a	n/a	-999	3	[0, 0, 0]	n/a	FR1	0	R1202M
584.249	0.016	593472	START	n/a	n/a	n/a	-999	3	[-999, -999, -999]	n/a	FR1	0	R1202M
584.265	4.633	593488	PROB	4.633	n/a	n/a	-999	3	[6, 4, 1]	11	FR1	0	R1202M
588.898	6.152	598120	PROB	6.152	n/a	n/a	-999	3	[7, 5, 9]	21	FR1	0	R1202M
595.05	6.168	604272	PROB	6.168	n/a	n/a	-999	3	[3, 5, 6]	14	FR1	0	R1202M
601.218	3.947	610440	PROB	3.947	n/a	n/a	-999	3	[5, 5, 1]	11	FR1	0	R1202M
605.165	0.021	614386	STOP	n/a	n/a	n/a	-999	3	[-999, -999, -999]	n/a	FR1	0	R1202M
605.186	0.632	614407	DISTRACT_END	n/a	n/a	n/a	-999	3	[0, 0, 0]	n/a	FR1	0	R1202M
605.818	0.519	615039	RETRIEVAL_ORIENT	n/a	n/a	n/a	-999	3	[0, 0, 0]	n/a	FR1	0	R1202M
606.337	1.681	615558	REC_START	n/a	n/a	n/a	-999	3	[0, 0, 0]	n/a	FR1	0	R1202M
608.018	1.984	617239	REC_WORD	1.984	n/a	WAND	-999	3	[0, 0, 0]	n/a	FR1	0	R1202M
610.002	19.312	619223	REC_WORD	19.312	n/a	MUD	-999	3	[0, 0, 0]	n/a	FR1	0	R1202M
629.314	7.035	638534	REC_WORD	7.035	n/a	GLASS	-999	3	[0, 0, 0]	n/a	FR1	0	R1202M
636.349	13.779	645569	REC_END	n/a	n/a	n/a	-999	3	[0, 0, 0]	n/a	FR1	0	R1202M
650.128	0.5	659347	TRIAL	n/a	n/a	n/a	-999	4	[0, 0, 0]	n/a	FR1	0	R1202M
650.628	10.428	659847	COUNTDOWN_START	n/a	n/a	n/a	-999	4	[0, 0, 0]	n/a	FR1	0	R1202M
661.056	0.007	670274	COUNTDOWN_END	n/a	n/a	n/a	-999	4	[0, 0, 0]	n/a	FR1	0	R1202M
661.063	1.617	670281	ORIENT	n/a	n/a	n/a	-999	4	[0, 0, 0]	n/a	FR1	0	R1202M
662.68	1.85	671898	ORIENT_OFF	n/a	n/a	n/a	-999	4	[0, 0, 0]	n/a	FR1	0	R1202M
664.53	1.617	673748	WORD	n/a	wordpools/wordpool_EN.txt	BOWL	1	4	[0, 0, 0]	n/a	FR1	0	R1202M
666.147	0.782	675365	WORD_OFF	n/a	n/a	BOWL	1	4	[0, 0, 0]	n/a	FR1	0	R1202M
666.929	1.602	676147	WORD	n/a	wordpools/wordpool_EN.txt	MAZE	2	4	[0, 0, 0]	n/a	FR1	0	R1202M
668.531	0.817	677749	WORD_OFF	n/a	n/a	MAZE	2	4	[0, 0, 0]	n/a	FR1	0	R1202M
669.348	1.616	678566	WORD	n/a	wordpools/wordpool_EN.txt	SEA	3	4	[0, 0, 0]	n/a	FR1	0	R1202M
670.964	0.983	680182	WORD_OFF	n/a	n/a	SEA	3	4	[0, 0, 0]	n/a	FR1	0	R1202M
671.947	1.618	681165	WORD	n/a	wordpools/wordpool_EN.txt	BEACH	4	4	[0, 0, 0]	n/a	FR1	0	R1202M
673.565	0.984	682783	WORD_OFF	n/a	n/a	BEACH	4	4	[0, 0, 0]	n/a	FR1	0	R1202M
674.549	1.617	683767	WORD	n/a	wordpools/wordpool_EN.txt	MULE	5	4	[0, 0, 0]	n/a	FR1	0	R1202M
676.166	0.866	685384	WORD_OFF	n/a	n/a	MULE	5	4	[0, 0, 0]	n/a	FR1	0	R1202M
677.032	1.618	686249	WORD	n/a	wordpools/wordpool_EN.txt	SMILE	6	4	[0, 0, 0]	n/a	FR1	0	R1202M
678.65	0.967	687867	WORD_OFF	n/a	n/a	SMILE	6	4	[0, 0, 0]	n/a	FR1	0	R1202M
679.617	1.616	688834	WORD	n/a	wordpools/wordpool_EN.txt	PANTS	7	4	[0, 0, 0]	n/a	FR1	0	R1202M
681.233	0.967	690450	WORD_OFF	n/a	n/a	PANTS	7	4	[0, 0, 0]	n/a	FR1	0	R1202M
682.2	1.616	691417	WORD	n/a	wordpools/wordpool_EN.txt	FAN	8	4	[0, 0, 0]	n/a	FR1	0	R1202M
683.816	0.967	693033	WORD_OFF	n/a	n/a	FAN	8	4	[0, 0, 0]	n/a	FR1	0	R1202M
684.783	1.601	694000	WORD	n/a	wordpools/wordpool_EN.txt	BREAD	9	4	[0, 0, 0]	n/a	FR1	0	R1202M
686.384	1.0	695601	WORD_OFF	n/a	n/a	BREAD	9	4	[0, 0, 0]	n/a	FR1	0	R1202M
687.384	1.617	696601	WORD	n/a	wordpools/wordpool_EN.txt	POOL	10	4	[0, 0, 0]	n/a	FR1	0	R1202M
689.001	1.017	698218	WORD_OFF	n/a	n/a	POOL	10	4	[0, 0, 0]	n/a	FR1	0	R1202M
690.018	1.618	699235	WORD	n/a	wordpools/wordpool_EN.txt	FROG	11	4	[0, 0, 0]	n/a	FR1	0	R1202M
691.636	0.883	700853	WORD_OFF	n/a	n/a	FROG	11	4	[0, 0, 0]	n/a	FR1	0	R1202M
692.519	1.617	701736	WORD	n/a	wordpools/wordpool_EN.txt	BOOT	12	4	[0, 0, 0]	n/a	FR1	0	R1202M
694.136	0.0	703353	DISTRACT_START	n/a	n/a	n/a	-999	4	[0, 0, 0]	n/a	FR1	0	R1202M
694.136	0.001	703353	WORD_OFF	n/a	n/a	BOOT	12	4	[0, 0, 0]	n/a	FR1	0	R1202M
694.137	0.016	703354	START	n/a	n/a	n/a	-999	4	[-999, -999, -999]	n/a	FR1	0	R1202M
694.153	7.401	703370	PROB	7.401	n/a	n/a	-999	4	[8, 3, 9]	21	FR1	0	R1202M
701.554	6.918	710770	PROB	6.918	n/a	n/a	-999	4	[5, 1, 4]	10	FR1	0	R1202M
708.472	4.084	717688	PROB	4.084	n/a	n/a	-999	4	[6, 3, 2]	11	FR1	0	R1202M
712.556	6.706	721771	PROB	6.706	n/a	n/a	-999	4	[1, 3, 5]	9	FR1	0	R1202M
719.262	0.012	728477	STOP	n/a	n/a	n/a	-999	4	[-999, -999, -999]	n/a	FR1	0	R1202M
719.274	0.666	728489	DISTRACT_END	n/a	n/a	n/a	-999	4	[0, 0, 0]	n/a	FR1	0	R1202M
719.94	0.518	729155	RETRIEVAL_ORIENT	n/a	n/a	n/a	-999	4	[0, 0, 0]	n/a	FR1	0	R1202M
720.458	1.563	729673	REC_START	n/a	n/a	n/a	-999	4	[0, 0, 0]	n/a	FR1	0	R1202M
722.021	1.904	731236	REC_WORD	1.904	n/a	PANTS	-999	4	[0, 0, 0]	n/a	FR1	0	R1202M
723.925	7.663	733140	REC_WORD	7.663	n/a	BOOT	-999	4	[0, 0, 0]	n/a	FR1	0	R1202M
731.588	18.884	740802	REC_WORD	18.884	n/a	MULE	-999	4	[0, 0, 0]	n/a	FR1	0	R1202M
750.472	59.703	759685	REC_END	n/a	n/a	n/a	-999	4	[0, 0, 0]	n/a	FR1	0	R1202M
810.175	0.5	819385	TRIAL	n/a	n/a	n/a	-999	5	[0, 0, 0]	n/a	FR1	0	R1202M
810.675	10.428	819885	COUNTDOWN_START	n/a	n/a	n/a	-999	5	[0, 0, 0]	n/a	FR1	0	R1202M
821.103	0.008	830312	COUNTDOWN_END	n/a	n/a	n/a	-999	5	[0, 0, 0]	n/a	FR1	0	R1202M
821.111	1.615	830320	ORIENT	n/a	n/a	n/a	-999	5	[0, 0, 0]	n/a	FR1	0	R1202M
822.726	2.184	831935	ORIENT_OFF	n/a	n/a	n/a	-999	5	[0, 0, 0]	n/a	FR1	0	R1202M
824.91	1.601	834119	WORD	n/a	wordpools/wordpool_EN.txt	SHIP	1	5	[0, 0, 0]	n/a	FR1	0	R1202M
826.511	1.001	835720	WORD_OFF	n/a	n/a	SHIP	1	5	[0, 0, 0]	n/a	FR1	0	R1202M
827.512	1.617	836721	WORD	n/a	wordpools/wordpool_EN.txt	HOOK	2	5	[0, 0, 0]	n/a	FR1	0	R1202M
829.129	0.765	838338	WORD_OFF	n/a	n/a	HOOK	2	5	[0, 0, 0]	n/a	FR1	0	R1202M
829.894	1.602	839103	WORD	n/a	wordpools/wordpool_EN.txt	SWORD	3	5	[0, 0, 0]	n/a	FR1	0	R1202M
831.496	0.8	840705	WORD_OFF	n/a	n/a	SWORD	3	5	[0, 0, 0]	n/a	FR1	0	R1202M
832.296	1.616	841505	WORD	n/a	wordpools/wordpool_EN.txt	STEAM	4	5	[0, 0, 0]	n/a	FR1	0	R1202M
833.912	0.883	843121	WORD_OFF	n/a	n/a	STEAM	4	5	[0, 0, 0]	n/a	FR1	0	R1202M
834.795	1.602	844004	WORD	n/a	wordpools/wordpool_EN.txt	POLE	5	5	[0, 0, 0]	n/a	FR1	0	R1202M
836.397	0.883	845606	WORD_OFF	n/a	n/a	POLE	5	5	[0, 0, 0]	n/a	FR1	0	R1202M
837.28	1.616	846489	WORD	n/a	wordpools/wordpool_EN.txt	CAPE	6	5	[0, 0, 0]	n/a	FR1	0	R1202M
838.896	0.785	848104	WORD_OFF	n/a	n/a	CAPE	6	5	[0, 0, 0]	n/a	FR1	0	R1202M
839.681	1.617	848889	WORD	n/a	wordpools/wordpool_EN.txt	BRIDGE	7	5	[0, 0, 0]	n/a	FR1	0	R1202M
841.298	1.0	850506	WORD_OFF	n/a	n/a	BRIDGE	7	5	[0, 0, 0]	n/a	FR1	0	R1202M
842.298	1.616	851506	WORD	n/a	wordpools/wordpool_EN.txt	BRUSH	8	5	[0, 0, 0]	n/a	FR1	0	R1202M
843.914	0.917	853122	WORD_OFF	n/a	n/a	BRUSH	8	5	[0, 0, 0]	n/a	FR1	0	R1202M
844.831	1.618	854039	WORD	n/a	wordpools/wordpool_EN.txt	NAIL	9	5	[0, 0, 0]	n/a	FR1	0	R1202M
846.449	0.85	855657	WORD_OFF	n/a	n/a	NAIL	9	5	[0, 0, 0]	n/a	FR1	0	R1202M
847.299	1.616	856507	WORD	n/a	wordpools/wordpool_EN.txt	FOG	10	5	[0, 0, 0]	n/a	FR1	0	R1202M
848.915	0.85	858123	WORD_OFF	n/a	n/a	FOG	10	5	[0, 0, 0]	n/a	FR1	0	R1202M
849.765	1.601	858973	WORD	n/a	wordpools/wordpool_EN.txt	DOCK	11	5	[0, 0, 0]	n/a	FR1	0	R1202M
851.366	0.917	860574	WORD_OFF	n/a	n/a	DOCK	11	5	[0, 0, 0]	n/a	FR1	0	R1202M
852.283	1.616	861491	WORD	n/a	wordpools/wordpool_EN.txt	WORLD	12	5	[0, 0, 0]	n/a	FR1	0	R1202M
853.899	0.0	863107	WORD_OFF	n/a	n/a	WORLD	12	5	[0, 0, 0]	n/a	FR1	0	R1202M
853.899	0.001	863107	DISTRACT_START	n/a	n/a	n/a	-999	5	[0, 0, 0]	n/a	FR1	0	R1202M
853.9	0.016	863108	START	n/a	n/a	n/a	-999	5	[-999, -999, -999]	n/a	FR1	0	R1202M
853.916	6.619	863124	PROB	6.619	n/a	n/a	-999	5	[3, 2, 9]	14	FR1	0	R1202M
860.535	6.267	869742	PROB	6.267	n/a	n/a	-999	5	[9, 4, 2]	15	FR1	0	R1202M
866.802	6.335	876009	PROB	6.335	n/a	n/a	-999	5	[2, 8, 8]	18	FR1	0	R1202M
873.137	9.764	882344	PROB	9.764	n/a	n/a	-999	5	[8, 7, 6]	21	FR1	0	R1202M
882.901	0.02	892107	STOP	n/a	n/a	n/a	-999	5	[-999, -999, -999]	n/a	FR1	0	R1202M
882.921	0.635	892127	DISTRACT_END	n/a	n/a	n/a	-999	5	[0, 0, 0]	n/a	FR1	0	R1202M
883.556	0.517	892762	RETRIEVAL_ORIENT	n/a	n/a	n/a	-999	5	[0, 0, 0]	n/a	FR1	0	R1202M
884.073	1.219	893279	REC_START	n/a	n/a	n/a	-999	5	[0, 0, 0]	n/a	FR1	0	R1202M
885.292	1.93	894498	REC_WORD	1.93	n/a	SHIP	-999	5	[0, 0, 0]	n/a	FR1	0	R1202M
887.222	3.279	896428	REC_WORD	3.279	n/a	DOCK	-999	5	[0, 0, 0]	n/a	FR1	0	R1202M
890.501	6.913	899707	REC_WORD	6.913	n/a	FOG	-999	5	[0, 0, 0]	n/a	FR1	0	R1202M
897.414	8.273	906619	REC_WORD	8.273	n/a	FISH	-999	5	[0, 0, 0]	n/a	FR1	0	R1202M
905.687	8.399	914892	REC_WORD	8.399	n/a	BEACH	-999	5	[0, 0, 0]	n/a	FR1	0	R1202M
914.086	25.114	923290	REC_END	n/a	n/a	n/a	-999	5	[0, 0, 0]	n/a	FR1	0	R1202M
939.2	0.5	948403	TRIAL	n/a	n/a	n/a	-999	6	[0, 0, 0]	n/a	FR1	0	R1202M
939.7	10.428	948903	COUNTDOWN_START	n/a	n/a	n/a	-999	6	[0, 0, 0]	n/a	FR1	0	R1202M
950.128	0.007	959330	COUNTDOWN_END	n/a	n/a	n/a	-999	6	[0, 0, 0]	n/a	FR1	0	R1202M
950.135	1.616	959337	ORIENT	n/a	n/a	n/a	-999	6	[0, 0, 0]	n/a	FR1	0	R1202M
951.751	2.101	960953	ORIENT_OFF	n/a	n/a	n/a	-999	6	[0, 0, 0]	n/a	FR1	0	R1202M
953.852	1.601	963054	WORD	n/a	wordpools/wordpool_EN.txt	THUMB	1	6	[0, 0, 0]	n/a	FR1	0	R1202M
955.453	1.0	964655	WORD_OFF	n/a	n/a	THUMB	1	6	[0, 0, 0]	n/a	FR1	0	R1202M
956.453	1.617	965655	WORD	n/a	wordpools/wordpool_EN.txt	RIB	2	6	[0, 0, 0]	n/a	FR1	0	R1202M
958.07	0.883	967272	WORD_OFF	n/a	n/a	RIB	2	6	[0, 0, 0]	n/a	FR1	0	R1202M
958.953	1.601	968155	WORD	n/a	wordpools/wordpool_EN.txt	SPONGE	3	6	[0, 0, 0]	n/a	FR1	0	R1202M
960.554	0.9	969756	WORD_OFF	n/a	n/a	SPONGE	3	6	[0, 0, 0]	n/a	FR1	0	R1202M
961.454	1.617	970656	WORD	n/a	wordpools/wordpool_EN.txt	SPOON	4	6	[0, 0, 0]	n/a	FR1	0	R1202M
963.071	0.816	972273	WORD_OFF	n/a	n/a	SPOON	4	6	[0, 0, 0]	n/a	FR1	0	R1202M
963.887	1.618	973089	WORD	n/a	wordpools/wordpool_EN.txt	PLATE	5	6	[0, 0, 0]	n/a	FR1	0	R1202M
965.505	0.984	974706	WORD_OFF	n/a	n/a	PLATE	5	6	[0, 0, 0]	n/a	FR1	0	R1202M
966.489	1.617	975690	WORD	n/a	wordpools/wordpool_EN.txt	CONE	6	6	[0, 0, 0]	n/a	FR1	0	R1202M
968.106	0.849	977307	WORD_OFF	n/a	n/a	CONE	6	6	[0, 0, 0]	n/a	FR1	0	R1202M
968.955	1.618	978156	WORD	n/a	wordpools/wordpool_EN.txt	JUICE	7	6	[0, 0, 0]	n/a	FR1	0	R1202M
970.573	0.867	979774	WORD_OFF	n/a	n/a	JUICE	7	6	[0, 0, 0]	n/a	FR1	0	R1202M
971.44	1.616	980641	WORD	n/a	wordpools/wordpool_EN.txt	SHRIMP	8	6	[0, 0, 0]	n/a	FR1	0	R1202M
973.056	0.983	982257	WORD_OFF	n/a	n/a	SHRIMP	8	6	[0, 0, 0]	n/a	FR1	0	R1202M
974.039	1.601	983240	WORD	n/a	wordpools/wordpool_EN.txt	PIE	9	6	[0, 0, 0]	n/a	FR1	0	R1202M
975.64	0.85	984841	WORD_OFF	n/a	n/a	PIE	9	6	[0, 0, 0]	n/a	FR1	0	R1202M
976.49	1.617	985691	WORD	n/a	wordpools/wordpool_EN.txt	HOSE	10	6	[0, 0, 0]	n/a	FR1	0	R1202M
978.107	0.967	987308	WORD_OFF	n/a	n/a	HOSE	10	6	[0, 0, 0]	n/a	FR1	0	R1202M
979.074	1.616	988275	WORD	n/a	wordpools/wordpool_EN.txt	TANK	11	6	[0, 0, 0]	n/a	FR1	0	R1202M
980.69	0.801	989891	WORD_OFF	n/a	n/a	TANK	11	6	[0, 0, 0]	n/a	FR1	0	R1202M
981.491	1.618	990692	WORD	n/a	wordpools/wordpool_EN.txt	BOX	12	6	[0, 0, 0]	n/a	FR1	0	R1202M
983.109	0.0	992309	DISTRACT_START	n/a	n/a	n/a	-999	6	[0, 0, 0]	n/a	FR1	0	R1202M
983.109	0.0	992309	WORD_OFF	n/a	n/a	BOX	12	6	[0, 0, 0]	n/a	FR1	0	R1202M
983.109	0.016	992309	START	n/a	n/a	n/a	-999	6	[-999, -999, -999]	n/a	FR1	0	R1202M
983.125	8.135	992325	PROB	8.135	n/a	n/a	-999	6	[8, 6, 7]	21	FR1	0	R1202M
991.26	6.418	1000460	PROB	6.418	n/a	n/a	-999	6	[2, 3, 5]	10	FR1	0	R1202M
997.678	4.818	1006878	PROB	4.818	n/a	n/a	-999	6	[1, 1, 2]	4	FR1	0	R1202M
1002.496	8.285	1011695	PROB	8.285	n/a	n/a	-999	6	[6, 7, 8]	21	FR1	0	R1202M
1010.781	0.015	1019980	STOP	n/a	n/a	n/a	-999	6	[-999, -999, -999]	n/a	FR1	0	R1202M
1010.796	0.551	1019995	DISTRACT_END	n/a	n/a	n/a	-999	6	[0, 0, 0]	n/a	FR1	0	R1202M
1011.347	0.517	1020546	RETRIEVAL_ORIENT	n/a	n/a	n/a	-999	6	[0, 0, 0]	n/a	FR1	0	R1202M
1011.864	4.71	1021063	REC_START	n/a	n/a	n/a	-999	6	[0, 0, 0]	n/a	FR1	0	R1202M
1016.574	25.301	1025773	REC_WORD	25.301	n/a	THUMB	-999	6	[0, 0, 0]	n/a	FR1	0	R1202M
1041.875	6.263	1051072	REC_END	n/a	n/a	n/a	-999	6	[0, 0, 0]	n/a	FR1	0	R1202M
1048.138	0.5	1057335	TRIAL	n/a	n/a	n/a	-999	7	[0, 0, 0]	n/a	FR1	0	R1202M
1048.638	10.428	1057835	COUNTDOWN_START	n/a	n/a	n/a	-999	7	[0, 0, 0]	n/a	FR1	0	R1202M
1059.066	0.007	1068262	COUNTDOWN_END	n/a	n/a	n/a	-999	7	[0, 0, 0]	n/a	FR1	0	R1202M
1059.073	1.616	1068269	ORIENT	n/a	n/a	n/a	-999	7	[0, 0, 0]	n/a	FR1	0	R1202M
1060.689	2.101	1069885	ORIENT_OFF	n/a	n/a	n/a	-999	7	[0, 0, 0]	n/a	FR1	0	R1202M
1062.79	1.617	1071986	WORD	n/a	wordpools/wordpool_EN.txt	GRASS	1	7	[0, 0, 0]	n/a	FR1	0	R1202M
1064.407	0.817	1073603	WORD_OFF	n/a	n/a	GRASS	1	7	[0, 0, 0]	n/a	FR1	0	R1202M
1065.224	1.616	1074420	WORD	n/a	wordpools/wordpool_EN.txt	DOLL	2	7	[0, 0, 0]	n/a	FR1	0	R1202M
1066.84	1.001	1076036	WORD_OFF	n/a	n/a	DOLL	2	7	[0, 0, 0]	n/a	FR1	0	R1202M
1067.841	1.618	1077037	WORD	n/a	wordpools/wordpool_EN.txt	PEACH	3	7	[0, 0, 0]	n/a	FR1	0	R1202M
1069.459	0.983	1078655	WORD_OFF	n/a	n/a	PEACH	3	7	[0, 0, 0]	n/a	FR1	0	R1202M
1070.442	1.617	1079638	WORD	n/a	wordpools/wordpool_EN.txt	SKY	4	7	[0, 0, 0]	n/a	FR1	0	R1202M
1072.059	0.883	1081254	WORD_OFF	n/a	n/a	SKY	4	7	[0, 0, 0]	n/a	FR1	0	R1202M
1072.942	1.618	1082137	WORD	n/a	wordpools/wordpool_EN.txt	CAGE	5	7	[0, 0, 0]	n/a	FR1	0	R1202M
1074.56	1.0	1083755	WORD_OFF	n/a	n/a	CAGE	5	7	[0, 0, 0]	n/a	FR1	0	R1202M
1075.56	1.617	1084755	WORD	n/a	wordpools/wordpool_EN.txt	TOE	6	7	[0, 0, 0]	n/a	FR1	0	R1202M
1077.177	0.832	1086372	WORD_OFF	n/a	n/a	TOE	6	7	[0, 0, 0]	n/a	FR1	0	R1202M
1078.009	1.618	1087204	WORD	n/a	wordpools/wordpool_EN.txt	FLOOR	7	7	[0, 0, 0]	n/a	FR1	0	R1202M
1079.627	0.984	1088822	WORD_OFF	n/a	n/a	FLOOR	7	7	[0, 0, 0]	n/a	FR1	0	R1202M
1080.611	1.617	1089806	WORD	n/a	wordpools/wordpool_EN.txt	SHOE	8	7	[0, 0, 0]	n/a	FR1	0	R1202M
1082.228	0.867	1091423	WORD_OFF	n/a	n/a	SHOE	8	7	[0, 0, 0]	n/a	FR1	0	R1202M
1083.095	1.615	1092290	WORD	n/a	wordpools/wordpool_EN.txt	BROOM	9	7	[0, 0, 0]	n/a	FR1	0	R1202M
1084.71	0.802	1093905	WORD_OFF	n/a	n/a	BROOM	9	7	[0, 0, 0]	n/a	FR1	0	R1202M
1085.512	1.617	1094707	WORD	n/a	wordpools/wordpool_EN.txt	FUDGE	10	7	[0, 0, 0]	n/a	FR1	0	R1202M
1087.129	0.933	1096324	WORD_OFF	n/a	n/a	FUDGE	10	7	[0, 0, 0]	n/a	FR1	0	R1202M
1088.062	1.617	1097257	WORD	n/a	wordpools/wordpool_EN.txt	PIN	11	7	[0, 0, 0]	n/a	FR1	0	R1202M
1089.679	0.8	1098874	WORD_OFF	n/a	n/a	PIN	11	7	[0, 0, 0]	n/a	FR1	0	R1202M
1090.479	1.617	1099673	WORD	n/a	wordpools/wordpool_EN.txt	CHEEK	12	7	[0, 0, 0]	n/a	FR1	0	R1202M
1092.096	0.0	1101290	WORD_OFF	n/a	n/a	CHEEK	12	7	[0, 0, 0]	n/a	FR1	0	R1202M
1092.096	0.001	1101290	DISTRACT_START	n/a	n/a	n/a	-999	7	[0, 0, 0]	n/a	FR1	0	R1202M
1092.097	0.016	1101291	START	n/a	n/a	n/a	-999	7	[-999, -999, -999]	n/a	FR1	0	R1202M
1092.113	10.751	1101307	PROB	10.751	n/a	n/a	-999	7	[6, 9, 9]	24	FR1	0	R1202M
1102.864	6.369	1112058	PROB	6.369	n/a	n/a	-999	7	[7, 9, 7]	23	FR1	0	R1202M
1109.233	8.245	1118426	PROB	8.245	n/a	n/a	-999	7	[3, 7, 4]	14	FR1	0	R1202M
1117.478	0.006	1126671	STOP	n/a	n/a	n/a	-999	7	[-999, -999, -999]	n/a	FR1	0	R1202M
1117.484	0.617	1126677	DISTRACT_END	n/a	n/a	n/a	-999	7	[0, 0, 0]	n/a	FR1	0	R1202M
1118.101	0.518	1127294	RETRIEVAL_ORIENT	n/a	n/a	n/a	-999	7	[0, 0, 0]	n/a	FR1	0	R1202M
1118.619	9.79	1127812	REC_START	n/a	n/a	n/a	-999	7	[0, 0, 0]	n/a	FR1	0	R1202M
1128.409	20.223	1137601	REC_WORD	20.223	n/a	DOLL	-999	7	[0, 0, 0]	n/a	FR1	0	R1202M
1148.632	14.06	1157823	REC_END	n/a	n/a	n/a	-999	7	[0, 0, 0]	n/a	FR1	0	R1202M
1162.692	0.5	1171882	TRIAL	n/a	n/a	n/a	-999	8	[0, 0, 0]	n/a	FR1	0	R1202M
1163.192	10.428	1172382	COUNTDOWN_START	n/a	n/a	n/a	-999	8	[0, 0, 0]	n/a	FR1	0	R1202M
1173.62	0.009	1182810	COUNTDOWN_END	n/a	n/a	n/a	-999	8	[0, 0, 0]	n/a	FR1	0	R1202M
1173.629	1.617	1182819	ORIENT	n/a	n/a	n/a	-999	8	[0, 0, 0]	n/a	FR1	0	R1202M
1175.246	1.883	1184436	ORIENT_OFF	n/a	n/a	n/a	-999	8	[0, 0, 0]	n/a	FR1	0	R1202M
1177.129	1.616	1186319	WORD	n/a	wordpools/wordpool_EN.txt	BADGE	1	8	[0, 0, 0]	n/a	FR1	0	R1202M
1178.745	0.851	1187935	WORD_OFF	n/a	n/a	BADGE	1	8	[0, 0, 0]	n/a	FR1	0	R1202M
1179.596	1.617	1188786	WORD	n/a	wordpools/wordpool_EN.txt	CAR	2	8	[0, 0, 0]	n/a	FR1	0	R1202M
1181.213	0.951	1190402	WORD_OFF	n/a	n/a	CAR	2	8	[0, 0, 0]	n/a	FR1	0	R1202M
1182.164	1.616	1191353	WORD	n/a	wordpools/wordpool_EN.txt	JAIL	3	8	[0, 0, 0]	n/a	FR1	0	R1202M
1183.78	0.901	1192969	WORD_OFF	n/a	n/a	JAIL	3	8	[0, 0, 0]	n/a	FR1	0	R1202M
1184.681	1.616	1193870	WORD	n/a	wordpools/wordpool_EN.txt	LEAF	4	8	[0, 0, 0]	n/a	FR1	0	R1202M
1186.297	0.834	1195486	WORD_OFF	n/a	n/a	LEAF	4	8	[0, 0, 0]	n/a	FR1	0	R1202M
1187.131	1.616	1196320	WORD	n/a	wordpools/wordpool_EN.txt	ROOT	5	8	[0, 0, 0]	n/a	FR1	0	R1202M
1188.747	0.918	1197936	WORD_OFF	n/a	n/a	ROOT	5	8	[0, 0, 0]	n/a	FR1	0	R1202M
1189.665	1.617	1198854	WORD	n/a	wordpools/wordpool_EN.txt	TIE	6	8	[0, 0, 0]	n/a	FR1	0	R1202M
1191.282	1.0	1200471	WORD_OFF	n/a	n/a	TIE	6	8	[0, 0, 0]	n/a	FR1	0	R1202M
1192.282	1.616	1201471	WORD	n/a	wordpools/wordpool_EN.txt	PARK	7	8	[0, 0, 0]	n/a	FR1	0	R1202M
1193.898	0.9	1203087	WORD_OFF	n/a	n/a	PARK	7	8	[0, 0, 0]	n/a	FR1	0	R1202M
1194.798	1.618	1203987	WORD	n/a	wordpools/wordpool_EN.txt	KEY	8	8	[0, 0, 0]	n/a	FR1	0	R1202M
1196.416	0.8	1205605	WORD_OFF	n/a	n/a	KEY	8	8	[0, 0, 0]	n/a	FR1	0	R1202M
1197.216	1.617	1206405	WORD	n/a	wordpools/wordpool_EN.txt	LOCK	9	8	[0, 0, 0]	n/a	FR1	0	R1202M
1198.833	0.851	1208021	WORD_OFF	n/a	n/a	LOCK	9	8	[0, 0, 0]	n/a	FR1	0	R1202M
1199.684	1.616	1208872	WORD	n/a	wordpools/wordpool_EN.txt	RAKE	10	8	[0, 0, 0]	n/a	FR1	0	R1202M
1201.3	1.001	1210488	WORD_OFF	n/a	n/a	RAKE	10	8	[0, 0, 0]	n/a	FR1	0	R1202M
1202.301	1.616	1211489	WORD	n/a	wordpools/wordpool_EN.txt	STEM	11	8	[0, 0, 0]	n/a	FR1	0	R1202M
1203.917	0.966	1213105	WORD_OFF	n/a	n/a	STEM	11	8	[0, 0, 0]	n/a	FR1	0	R1202M
1204.883	1.602	1214071	WORD	n/a	wordpools/wordpool_EN.txt	ELF	12	8	[0, 0, 0]	n/a	FR1	0	R1202M
1206.485	0.0	1215673	WORD_OFF	n/a	n/a	ELF	12	8	[0, 0, 0]	n/a	FR1	0	R1202M
1206.485	0.0	1215673	DISTRACT_START	n/a	n/a	n/a	-999	8	[0, 0, 0]	n/a	FR1	0	R1202M
1206.485	0.017	1215673	START	n/a	n/a	n/a	-999	8	[-999, -999, -999]	n/a	FR1	0	R1202M
1206.502	5.3	1215690	PROB	5.3	n/a	n/a	-999	8	[8, 1, 4]	13	FR1	0	R1202M
1211.802	4.818	1220990	PROB	4.818	n/a	n/a	-999	8	[3, 3, 1]	7	FR1	0	R1202M
1216.62	4.918	1225807	PROB	4.918	n/a	n/a	-999	8	[6, 4, 4]	14	FR1	0	R1202M
1221.538	5.555	1230725	PROB	5.555	n/a	n/a	-999	8	[5, 9, 8]	22	FR1	0	R1202M
1227.093	0.013	1236280	STOP	n/a	n/a	n/a	-999	8	[-999, -999, -999]	n/a	FR1	0	R1202M
1227.106	0.649	1236293	DISTRACT_END	n/a	n/a	n/a	-999	8	[0, 0, 0]	n/a	FR1	0	R1202M
1227.755	0.518	1236942	RETRIEVAL_ORIENT	n/a	n/a	n/a	-999	8	[0, 0, 0]	n/a	FR1	0	R1202M
1228.273	2.735	1237460	REC_START	n/a	n/a	n/a	-999	8	[0, 0, 0]	n/a	FR1	0	R1202M
1231.008	2.809	1240195	REC_WORD	2.809	n/a	STEM	-999	8	[0, 0, 0]	n/a	FR1	0	R1202M
1233.817	5.438	1243003	REC_WORD	5.438	n/a	ELF	-999	8	[0, 0, 0]	n/a	FR1	0	R1202M
1239.255	12.21	1248441	REC_WORD	12.21	n/a	LEAF	-999	8	[0, 0, 0]	n/a	FR1	0	R1202M
1251.465	6.82	1260651	REC_WORD	6.82	n/a	NOSE	-999	8	[0, 0, 0]	n/a	FR1	0	R1202M
1258.285	79.092	1267470	REC_END	n/a	n/a	n/a	-999	8	[0, 0, 0]	n/a	FR1	0	R1202M
1337.377	0.5	1346558	TRIAL	n/a	n/a	n/a	-999	9	[0, 0, 0]	n/a	FR1	0	R1202M
1337.877	10.428	1347058	COUNTDOWN_START	n/a	n/a	n/a	-999	9	[0, 0, 0]	n/a	FR1	0	R1202M
1348.305	0.007	1357485	COUNTDOWN_END	n/a	n/a	n/a	-999	9	[0, 0, 0]	n/a	FR1	0	R1202M
1348.312	1.616	1357492	ORIENT	n/a	n/a	n/a	-999	9	[0, 0, 0]	n/a	FR1	0	R1202M
1349.928	1.984	1359108	ORIENT_OFF	n/a	n/a	n/a	-999	9	[0, 0, 0]	n/a	FR1	0	R1202M
1351.912	1.601	1361092	WORD	n/a	wordpools/wordpool_EN.txt	SHIELD	1	9	[0, 0, 0]	n/a	FR1	0	R1202M
1353.513	0.917	1362693	WORD_OFF	n/a	n/a	SHIELD	1	9	[0, 0, 0]	n/a	FR1	0	R1202M
1354.43	1.616	1363610	WORD	n/a	wordpools/wordpool_EN.txt	PIT	2	9	[0, 0, 0]	n/a	FR1	0	R1202M
1356.046	0.817	1365226	WORD_OFF	n/a	n/a	PIT	2	9	[0, 0, 0]	n/a	FR1	0	R1202M
1356.863	1.618	1366043	WORD	n/a	wordpools/wordpool_EN.txt	HOLE	3	9	[0, 0, 0]	n/a	FR1	0	R1202M
1358.481	0.933	1367661	WORD_OFF	n/a	n/a	HOLE	3	9	[0, 0, 0]	n/a	FR1	0	R1202M
1359.414	1.617	1368594	WORD	n/a	wordpools/wordpool_EN.txt	OAK	4	9	[0, 0, 0]	n/a	FR1	0	R1202M
1361.031	0.933	1370210	WORD_OFF	n/a	n/a	OAK	4	9	[0, 0, 0]	n/a	FR1	0	R1202M
1361.964	1.618	1371143	WORD	n/a	wordpools/wordpool_EN.txt	CHIN	5	9	[0, 0, 0]	n/a	FR1	0	R1202M
1363.582	0.917	1372761	WORD_OFF	n/a	n/a	CHIN	5	9	[0, 0, 0]	n/a	FR1	0	R1202M
1364.499	1.617	1373678	WORD	n/a	wordpools/wordpool_EN.txt	SPRING	6	9	[0, 0, 0]	n/a	FR1	0	R1202M
1366.116	0.95	1375295	WORD_OFF	n/a	n/a	SPRING	6	9	[0, 0, 0]	n/a	FR1	0	R1202M
1367.066	1.617	1376245	WORD	n/a	wordpools/wordpool_EN.txt	SLIME	7	9	[0, 0, 0]	n/a	FR1	0	R1202M
1368.683	0.8	1377862	WORD_OFF	n/a	n/a	SLIME	7	9	[0, 0, 0]	n/a	FR1	0	R1202M
1369.483	1.617	1378662	WORD	n/a	wordpools/wordpool_EN.txt	ROSE	8	9	[0, 0, 0]	n/a	FR1	0	R1202M
1371.1	0.849	1380279	WORD_OFF	n/a	n/a	ROSE	8	9	[0, 0, 0]	n/a	FR1	0	R1202M
1371.949	1.618	1381128	WORD	n/a	wordpools/wordpool_EN.txt	SLEEVE	9	9	[0, 0, 0]	n/a	FR1	0	R1202M
1373.567	0.85	1382746	WORD_OFF	n/a	n/a	SLEEVE	9	9	[0, 0, 0]	n/a	FR1	0	R1202M
1374.417	1.616	1383596	WORD	n/a	wordpools/wordpool_EN.txt	STOOL	10	9	[0, 0, 0]	n/a	FR1	0	R1202M
1376.033	0.934	1385212	WORD_OFF	n/a	n/a	STOOL	10	9	[0, 0, 0]	n/a	FR1	0	R1202M
1376.967	1.618	1386146	WORD	n/a	wordpools/wordpool_EN.txt	PALM	11	9	[0, 0, 0]	n/a	FR1	0	R1202M
1378.585	0.95	1387763	WORD_OFF	n/a	n/a	PALM	11	9	[0, 0, 0]	n/a	FR1	0	R1202M
1379.535	1.617	1388713	WORD	n/a	wordpools/wordpool_EN.txt	SPEAR	12	9	[0, 0, 0]	n/a	FR1	0	R1202M
1381.152	0.0	1390330	WORD_OFF	n/a	n/a	SPEAR	12	9	[0, 0, 0]	n/a	FR1	0	R1202M
1381.152	0.001	1390330	DISTRACT_START	n/a	n/a	n/a	-999	9	[0, 0, 0]	n/a	FR1	0	R1202M
1381.153	0.016	1390331	START	n/a	n/a	n/a	-999	9	[-999, -999, -999]	n/a	FR1	0	R1202M
1381.169	4.301	1390347	PROB	4.301	n/a	n/a	-999	9	[1, 3, 3]	7	FR1	0	R1202M
1385.47	5.101	1394648	PROB	5.101	n/a	n/a	-999	9	[6, 4, 6]	16	FR1	0	R1202M
1390.571	5.751	1399749	PROB	5.751	n/a	n/a	-999	9	[2, 2, 6]	10	FR1	0	R1202M
1396.322	6.756	1405499	PROB	6.756	n/a	n/a	-999	9	[6, 1, 2]	9	FR1	0	R1202M
1403.078	0.012	1412255	STOP	n/a	n/a	n/a	-999	9	[-999, -999, -999]	n/a	FR1	0	R1202M
1403.09	0.699	1412267	DISTRACT_END	n/a	n/a	n/a	-999	9	[0, 0, 0]	n/a	FR1	0	R1202M
1403.789	0.518	1412966	RETRIEVAL_ORIENT	n/a	n/a	n/a	-999	9	[0, 0, 0]	n/a	FR1	0	R1202M
1404.307	1.543	1413484	REC_START	n/a	n/a	n/a	-999	9	[0, 0, 0]	n/a	FR1	0	R1202M
1405.85	17.577	1415027	REC_WORD	17.577	n/a	SPEAR	-999	9	[0, 0, 0]	n/a	FR1	0	R1202M
1423.427	10.892	1432603	REC_WORD	10.892	n/a	STOOL	-999	9	[0, 0, 0]	n/a	FR1	0	R1202M
1434.319	6.394	1443494	REC_END	n/a	n/a	n/a	-999	9	[0, 0, 0]	n/a	FR1	0	R1202M
1440.713	0.5	1449888	TRIAL	n/a	n/a	n/a	-999	10	[0, 0, 0]	n/a	FR1	0	R1202M
1441.213	10.428	1450388	COUNTDOWN_START	n/a	n/a	n/a	-999	10	[0, 0, 0]	n/a	FR1	0	R1202M
1451.641	0.008	1460815	COUNTDOWN_END	n/a	n/a	n/a	-999	10	[0, 0, 0]	n/a	FR1	0	R1202M
1451.649	1.617	1460823	ORIENT	n/a	n/a	n/a	-999	10	[0, 0, 0]	n/a	FR1	0	R1202M
1453.266	2.0	1462440	ORIENT_OFF	n/a	n/a	n/a	-999	10	[0, 0, 0]	n/a	FR1	0	R1202M
1455.266	1.616	1464440	WORD	n/a	wordpools/wordpool_EN.txt	CLOTH	1	10	[0, 0, 0]	n/a	FR1	0	R1202M
1456.882	0.984	1466056	WORD_OFF	n/a	n/a	CLOTH	1	10	[0, 0, 0]	n/a	FR1	0	R1202M
1457.866	1.601	1467040	WORD	n/a	wordpools/wordpool_EN.txt	BAND	2	10	[0, 0, 0]	n/a	FR1	0	R1202M
1459.467	0.934	1468641	WORD_OFF	n/a	n/a	BAND	2	10	[0, 0, 0]	n/a	FR1	0	R1202M
1460.401	1.616	1469575	WORD	n/a	wordpools/wordpool_EN.txt	CROWN	3	10	[0, 0, 0]	n/a	FR1	0	R1202M
1462.017	0.983	1471191	WORD_OFF	n/a	n/a	CROWN	3	10	[0, 0, 0]	n/a	FR1	0	R1202M
1463.0	1.601	1472174	WORD	n/a	wordpools/wordpool_EN.txt	EAR	4	10	[0, 0, 0]	n/a	FR1	0	R1202M
1464.601	0.801	1473775	WORD_OFF	n/a	n/a	EAR	4	10	[0, 0, 0]	n/a	FR1	0	R1202M
1465.402	1.616	1474576	WORD	n/a	wordpools/wordpool_EN.txt	MOON	5	10	[0, 0, 0]	n/a	FR1	0	R1202M
1467.018	0.917	1476192	WORD_OFF	n/a	n/a	MOON	5	10	[0, 0, 0]	n/a	FR1	0	R1202M
1467.935	1.617	1477108	WORD	n/a	wordpools/wordpool_EN.txt	CANE	6	10	[0, 0, 0]	n/a	FR1	0	R1202M
1469.552	0.867	1478725	WORD_OFF	n/a	n/a	CANE	6	10	[0, 0, 0]	n/a	FR1	0	R1202M
1470.419	1.616	1479592	WORD	n/a	wordpools/wordpool_EN.txt	BOMB	7	10	[0, 0, 0]	n/a	FR1	0	R1202M
1472.035	0.967	1481208	WORD_OFF	n/a	n/a	BOMB	7	10	[0, 0, 0]	n/a	FR1	0	R1202M
1473.002	1.601	1482175	WORD	n/a	wordpools/wordpool_EN.txt	WING	8	10	[0, 0, 0]	n/a	FR1	0	R1202M
1474.603	0.817	1483776	WORD_OFF	n/a	n/a	WING	8	10	[0, 0, 0]	n/a	FR1	0	R1202M
1475.42	1.616	1484593	WORD	n/a	wordpools/wordpool_EN.txt	MOOSE	9	10	[0, 0, 0]	n/a	FR1	0	R1202M
1477.036	0.917	1486209	WORD_OFF	n/a	n/a	MOOSE	9	10	[0, 0, 0]	n/a	FR1	0	R1202M
1477.953	1.618	1487126	WORD	n/a	wordpools/wordpool_EN.txt	PRINCE	10	10	[0, 0, 0]	n/a	FR1	0	R1202M
1479.571	0.85	1488744	WORD_OFF	n/a	n/a	PRINCE	10	10	[0, 0, 0]	n/a	FR1	0	R1202M
1480.421	1.616	1489594	WORD	n/a	wordpools/wordpool_EN.txt	CROW	11	10	[0, 0, 0]	n/a	FR1	0	R1202M
1482.037	0.984	1491210	WORD_OFF	n/a	n/a	CROW	11	10	[0, 0, 0]	n/a	FR1	0	R1202M
1483.021	1.618	1492194	WORD	n/a	wordpools/wordpool_EN.txt	CHIEF	12	10	[0, 0, 0]	n/a	FR1	0	R1202M
1484.639	0.0	1493812	WORD_OFF	n/a	n/a	CHIEF	12	10	[0, 0, 0]	n/a	FR1	0	R1202M
1484.639	0.0	1493812	DISTRACT_START	n/a	n/a	n/a	-999	10	[0, 0, 0]	n/a	FR1	0	R1202M
1484.639	0.016	1493812	START	n/a	n/a	n/a	-999	10	[-999, -999, -999]	n/a	FR1	0	R1202M
1484.655	5.751	1493828	PROB	5.751	n/a	n/a	-999	10	[6, 6, 3]	15	FR1	0	R1202M
1490.406	5.601	1499578	PROB	5.601	n/a	n/a	-999	10	[7, 9, 1]	17	FR1	0	R1202M
1496.007	4.951	1505179	PROB	4.951	n/a	n/a	-999	10	[4, 2, 3]	9	FR1	0	R1202M
1500.958	8.006	1510130	PROB	8.006	n/a	n/a	-999	10	[3, 6, 7]	16	FR1	0	R1202M
1508.964	0.012	1518135	STOP	n/a	n/a	n/a	-999	10	[-999, -999, -999]	n/a	FR1	0	R1202M
1508.976	0.601	1518147	DISTRACT_END	n/a	n/a	n/a	-999	10	[0, 0, 0]	n/a	FR1	0	R1202M
1509.577	0.517	1518748	RETRIEVAL_ORIENT	n/a	n/a	n/a	-999	10	[0, 0, 0]	n/a	FR1	0	R1202M
1510.094	8.42	1519265	REC_START	n/a	n/a	n/a	-999	10	[0, 0, 0]	n/a	FR1	0	R1202M
1518.514	2.55	1527685	REC_WORD	2.55	n/a	BAND	-999	10	[0, 0, 0]	n/a	FR1	0	R1202M
1521.064	4.079	1530235	REC_WORD	4.079	n/a	CLOTH	-999	10	[0, 0, 0]	n/a	FR1	0	R1202M
1525.143	11.073	1534313	REC_WORD	11.073	n/a	MOON	-999	10	[0, 0, 0]	n/a	FR1	0	R1202M
1536.216	3.891	1545386	REC_WORD	3.891	n/a	MOOSE	-999	10	[0, 0, 0]	n/a	FR1	0	R1202M
1540.107	6.977	1549276	REC_END	n/a	n/a	n/a	-999	10	[0, 0, 0]	n/a	FR1	0	R1202M
1547.084	0.5	1556253	TRIAL	n/a	n/a	n/a	-999	11	[0, 0, 0]	n/a	FR1	0	R1202M
1547.584	10.428	1556753	COUNTDOWN_START	n/a	n/a	n/a	-999	11	[0, 0, 0]	n/a	FR1	0	R1202M
1558.012	0.007	1567180	COUNTDOWN_END	n/a	n/a	n/a	-999	11	[0, 0, 0]	n/a	FR1	0	R1202M
1558.019	1.618	1567187	ORIENT	n/a	n/a	n/a	-999	11	[0, 0, 0]	n/a	FR1	0	R1202M
1559.637	2.099	1568805	ORIENT_OFF	n/a	n/a	n/a	-999	11	[0, 0, 0]	n/a	FR1	0	R1202M
1561.736	1.601	1570904	WORD	n/a	wordpools/wordpool_EN.txt	VINE	1	11	[0, 0, 0]	n/a	FR1	0	R1202M
1563.337	0.801	1572505	WORD_OFF	n/a	n/a	VINE	1	11	[0, 0, 0]	n/a	FR1	0	R1202M
1564.138	1.615	1573306	WORD	n/a	wordpools/wordpool_EN.txt	BUSH	2	11	[0, 0, 0]	n/a	FR1	0	R1202M
1565.753	0.934	1574921	WORD_OFF	n/a	n/a	BUSH	2	11	[0, 0, 0]	n/a	FR1	0	R1202M
1566.687	1.601	1575855	WORD	n/a	wordpools/wordpool_EN.txt	DEER	3	11	[0, 0, 0]	n/a	FR1	0	R1202M
1568.288	0.784	1577456	WORD_OFF	n/a	n/a	DEER	3	11	[0, 0, 0]	n/a	FR1	0	R1202M
1569.072	1.616	1578240	WORD	n/a	wordpools/wordpool_EN.txt	BRANCH	4	11	[0, 0, 0]	n/a	FR1	0	R1202M
1570.688	0.868	1579856	WORD_OFF	n/a	n/a	BRANCH	4	11	[0, 0, 0]	n/a	FR1	0	R1202M
1571.556	1.617	1580724	WORD	n/a	wordpools/wordpool_EN.txt	GATE	5	11	[0, 0, 0]	n/a	FR1	0	R1202M
1573.173	0.865	1582341	WORD_OFF	n/a	n/a	GATE	5	11	[0, 0, 0]	n/a	FR1	0	R1202M
1574.038	1.618	1583206	WORD	n/a	wordpools/wordpool_EN.txt	TREE	6	11	[0, 0, 0]	n/a	FR1	0	R1202M
1575.656	0.967	1584823	WORD_OFF	n/a	n/a	TREE	6	11	[0, 0, 0]	n/a	FR1	0	R1202M
1576.623	1.617	1585790	WORD	n/a	wordpools/wordpool_EN.txt	LAKE	7	11	[0, 0, 0]	n/a	FR1	0	R1202M
1578.24	0.799	1587407	WORD_OFF	n/a	n/a	LAKE	7	11	[0, 0, 0]	n/a	FR1	0	R1202M
1579.039	1.601	1588206	WORD	n/a	wordpools/wordpool_EN.txt	FORT	8	11	[0, 0, 0]	n/a	FR1	0	R1202M
1580.64	0.901	1589807	WORD_OFF	n/a	n/a	FORT	8	11	[0, 0, 0]	n/a	FR1	0	R1202M
1581.541	1.617	1590708	WORD	n/a	wordpools/wordpool_EN.txt	BIRD	9	11	[0, 0, 0]	n/a	FR1	0	R1202M
1583.158	0.782	1592325	WORD_OFF	n/a	n/a	BIRD	9	11	[0, 0, 0]	n/a	FR1	0	R1202M
1583.94	1.601	1593107	WORD	n/a	wordpools/wordpool_EN.txt	DART	10	11	[0, 0, 0]	n/a	FR1	0	R1202M
1585.541	0.834	1594708	WORD_OFF	n/a	n/a	DART	10	11	[0, 0, 0]	n/a	FR1	0	R1202M
1586.375	1.616	1595542	WORD	n/a	wordpools/wordpool_EN.txt	TAIL	11	11	[0, 0, 0]	n/a	FR1	0	R1202M
1587.991	0.834	1597158	WORD_OFF	n/a	n/a	TAIL	11	11	[0, 0, 0]	n/a	FR1	0	R1202M
1588.825	1.617	1597992	WORD	n/a	wordpools/wordpool_EN.txt	SWAMP	12	11	[0, 0, 0]	n/a	FR1	0	R1202M
1590.442	0.0	1599609	WORD_OFF	n/a	n/a	SWAMP	12	11	[0, 0, 0]	n/a	FR1	0	R1202M
1590.442	0.001	1599609	DISTRACT_START	n/a	n/a	n/a	-999	11	[0, 0, 0]	n/a	FR1	0	R1202M
1590.443	0.016	1599610	START	n/a	n/a	n/a	-999	11	[-999, -999, -999]	n/a	FR1	0	R1202M
1590.459	10.086	1599626	PROB	10.086	n/a	n/a	-999	11	[5, 7, 9]	21	FR1	0	R1202M
1600.545	6.017	1609711	PROB	6.017	n/a	n/a	-999	11	[6, 3, 6]	15	FR1	0	R1202M
1606.562	14.516	1615728	PROB	14.516	n/a	n/a	-999	11	[6, 9, 5]	20	FR1	0	R1202M
1621.078	0.021	1630243	STOP	n/a	n/a	n/a	-999	11	[-999, -999, -999]	n/a	FR1	0	R1202M
1621.099	0.649	1630264	DISTRACT_END	n/a	n/a	n/a	-999	11	[0, 0, 0]	n/a	FR1	0	R1202M
1621.748	0.518	1630913	RETRIEVAL_ORIENT	n/a	n/a	n/a	-999	11	[0, 0, 0]	n/a	FR1	0	R1202M
1622.266	1.888	1631431	REC_START	n/a	n/a	n/a	-999	11	[0, 0, 0]	n/a	FR1	0	R1202M
1624.154	6.243	1633319	REC_WORD	6.243	n/a	GATE	-999	11	[0, 0, 0]	n/a	FR1	0	R1202M
1630.397	8.005	1639561	REC_WORD	8.005	n/a	LEAF	-999	11	[0, 0, 0]	n/a	FR1	0	R1202M
1638.402	3.75	1647566	REC_WORD	3.75	n/a	DEER	-999	11	[0, 0, 0]	n/a	FR1	0	R1202M
1642.152	5.743	1651316	REC_WORD	5.743	n/a	FOG	-999	11	[0, 0, 0]	n/a	FR1	0	R1202M
1647.895	4.383	1657058	REC_WORD	4.383	n/a	BRANCH	-999	11	[0, 0, 0]	n/a	FR1	0	R1202M
1652.278	20.98	1661441	REC_END	n/a	n/a	n/a	-999	11	[0, 0, 0]	n/a	FR1	0	R1202M
1673.258	0.5	1682420	TRIAL	n/a	n/a	n/a	-999	12	[0, 0, 0]	n/a	FR1	0	R1202M
1673.758	10.428	1682920	COUNTDOWN_START	n/a	n/a	n/a	-999	12	[0, 0, 0]	n/a	FR1	0	R1202M
1684.186	0.008	1693347	COUNTDOWN_END	n/a	n/a	n/a	-999	12	[0, 0, 0]	n/a	FR1	0	R1202M
1684.194	1.616	1693355	ORIENT	n/a	n/a	n/a	-999	12	[0, 0, 0]	n/a	FR1	0	R1202M
1685.81	1.983	1694971	ORIENT_OFF	n/a	n/a	n/a	-999	12	[0, 0, 0]	n/a	FR1	0	R1202M
1687.793	1.602	1696954	WORD	n/a	wordpools/wordpool_EN.txt	ROCK	1	12	[0, 0, 0]	n/a	FR1	0	R1202M
1689.395	0.767	1698556	WORD_OFF	n/a	n/a	ROCK	1	12	[0, 0, 0]	n/a	FR1	0	R1202M
1690.162	1.616	1699323	WORD	n/a	wordpools/wordpool_EN.txt	BOARD	2	12	[0, 0, 0]	n/a	FR1	0	R1202M
1691.778	0.784	1700939	WORD_OFF	n/a	n/a	BOARD	2	12	[0, 0, 0]	n/a	FR1	0	R1202M
1692.562	1.617	1701723	WORD	n/a	wordpools/wordpool_EN.txt	SAIL	3	12	[0, 0, 0]	n/a	FR1	0	R1202M
1694.179	0.934	1703340	WORD_OFF	n/a	n/a	SAIL	3	12	[0, 0, 0]	n/a	FR1	0	R1202M
1695.113	1.616	1704274	WORD	n/a	wordpools/wordpool_EN.txt	STAIR	4	12	[0, 0, 0]	n/a	FR1	0	R1202M
1696.729	0.818	1705890	WORD_OFF	n/a	n/a	STAIR	4	12	[0, 0, 0]	n/a	FR1	0	R1202M
1697.547	1.617	1706708	WORD	n/a	wordpools/wordpool_EN.txt	HAWK	5	12	[0, 0, 0]	n/a	FR1	0	R1202M
1699.164	0.799	1708325	WORD_OFF	n/a	n/a	HAWK	5	12	[0, 0, 0]	n/a	FR1	0	R1202M
1699.963	1.618	1709124	WORD	n/a	wordpools/wordpool_EN.txt	SEAT	6	12	[0, 0, 0]	n/a	FR1	0	R1202M
1701.581	0.95	1710741	WORD_OFF	n/a	n/a	SEAT	6	12	[0, 0, 0]	n/a	FR1	0	R1202M
1702.531	1.617	1711691	WORD	n/a	wordpools/wordpool_EN.txt	BOAT	7	12	[0, 0, 0]	n/a	FR1	0	R1202M
1704.148	0.917	1713308	WORD_OFF	n/a	n/a	BOAT	7	12	[0, 0, 0]	n/a	FR1	0	R1202M
1705.065	1.617	1714225	WORD	n/a	wordpools/wordpool_EN.txt	CLIFF	8	12	[0, 0, 0]	n/a	FR1	0	R1202M
1706.682	0.933	1715842	WORD_OFF	n/a	n/a	CLIFF	8	12	[0, 0, 0]	n/a	FR1	0	R1202M
1707.615	1.617	1716775	WORD	n/a	wordpools/wordpool_EN.txt	SNAKE	9	12	[0, 0, 0]	n/a	FR1	0	R1202M
1709.232	0.884	1718392	WORD_OFF	n/a	n/a	SNAKE	9	12	[0, 0, 0]	n/a	FR1	0	R1202M
1710.116	1.616	1719276	WORD	n/a	wordpools/wordpool_EN.txt	WHALE	10	12	[0, 0, 0]	n/a	FR1	0	R1202M
1711.732	0.784	1720892	WORD_OFF	n/a	n/a	WHALE	10	12	[0, 0, 0]	n/a	FR1	0	R1202M
1712.516	1.617	1721676	WORD	n/a	wordpools/wordpool_EN.txt	AXE	11	12	[0, 0, 0]	n/a	FR1	0	R1202M
1714.133	0.783	1723293	WORD_OFF	n/a	n/a	AXE	11	12	[0, 0, 0]	n/a	FR1	0	R1202M
1714.916	1.618	1724076	WORD	n/a	wordpools/wordpool_EN.txt	CRANE	12	12	[0, 0, 0]	n/a	FR1	0	R1202M
1716.534	0.0	1725694	WORD_OFF	n/a	n/a	CRANE	12	12	[0, 0, 0]	n/a	FR1	0	R1202M
1716.534	0.0	1725694	DISTRACT_START	n/a	n/a	n/a	-999	12	[0, 0, 0]	n/a	FR1	0	R1202M
1716.534	0.016	1725694	START	n/a	n/a	n/a	-999	12	[-999, -999, -999]	n/a	FR1	0	R1202M
1716.55	5.018	1725710	PROB	5.018	n/a	n/a	-999	12	[3, 1, 2]	6	FR1	0	R1202M
1721.568	3.634	1730727	PROB	3.634	n/a	n/a	-999	12	[5, 5, 2]	12	FR1	0	R1202M
1725.202	3.8	1734361	PROB	3.8	n/a	n/a	-999	12	[1, 6, 1]	8	FR1	0	R1202M
1729.002	5.934	1738161	PROB	5.934	n/a	n/a	-999	12	[2, 4, 9]	15	FR1	0	R1202M
1734.936	5.756	1744095	PROB	5.756	n/a	n/a	-999	12	[8, 9, 4]	21	FR1	0	R1202M
1740.692	0.012	1749850	STOP	n/a	n/a	n/a	-999	12	[-999, -999, -999]	n/a	FR1	0	R1202M
1740.704	0.601	1749862	DISTRACT_END	n/a	n/a	n/a	-999	12	[0, 0, 0]	n/a	FR1	0	R1202M
1741.305	0.516	1750463	RETRIEVAL_ORIENT	n/a	n/a	n/a	-999	12	[0, 0, 0]	n/a	FR1	0	R1202M
1741.821	6.546	1750979	REC_START	n/a	n/a	n/a	-999	12	[0, 0, 0]	n/a	FR1	0	R1202M
1748.367	11.971	1757525	REC_WORD	11.971	n/a	AXE	-999	12	[0, 0, 0]	n/a	FR1	0	R1202M
1760.338	7.163	1769495	REC_WORD	7.163	n/a	BOARD	-999	12	[0, 0, 0]	n/a	FR1	0	R1202M
1767.501	4.333	1776658	REC_WORD	4.333	n/a	TREE	-999	12	[0, 0, 0]	n/a	FR1	0	R1202M
1771.834	8.829	1780991	REC_END	n/a	n/a	n/a	-999	12	[0, 0, 0]	n/a	FR1	0	R1202M
1780.663	0.5	1789819	TRIAL	n/a	n/a	n/a	-999	13	[0, 0, 0]	n/a	FR1	0	R1202M
1781.163	10.428	1790319	COUNTDOWN_START	n/a	n/a	n/a	-999	13	[0, 0, 0]	n/a	FR1	0	R1202M
1791.591	0.007	1800746	COUNTDOWN_END	n/a	n/a	n/a	-999	13	[0, 0, 0]	n/a	FR1	0	R1202M
1791.598	1.617	1800753	ORIENT	n/a	n/a	n/a	-999	13	[0, 0, 0]	n/a	FR1	0	R1202M
1793.215	2.267	1802370	ORIENT_OFF	n/a	n/a	n/a	-999	13	[0, 0, 0]	n/a	FR1	0	R1202M
1795.482	1.617	1804637	WORD	n/a	wordpools/wordpool_EN.txt	DITCH	1	13	[0, 0, 0]	n/a	FR1	0	R1202M
1797.099	1.0	1806254	WORD_OFF	n/a	n/a	DITCH	1	13	[0, 0, 0]	n/a	FR1	0	R1202M
1798.099	1.616	1807254	WORD	n/a	wordpools/wordpool_EN.txt	SHIRT	2	13	[0, 0, 0]	n/a	FR1	0	R1202M
1799.715	0.952	1808870	WORD_OFF	n/a	n/a	SHIRT	2	13	[0, 0, 0]	n/a	FR1	0	R1202M
1800.667	1.617	1809822	WORD	n/a	wordpools/wordpool_EN.txt	SKUNK	3	13	[0, 0, 0]	n/a	FR1	0	R1202M
1802.284	0.833	1811439	WORD_OFF	n/a	n/a	SKUNK	3	13	[0, 0, 0]	n/a	FR1	0	R1202M
1803.117	1.616	1812272	WORD	n/a	wordpools/wordpool_EN.txt	GLOVE	4	13	[0, 0, 0]	n/a	FR1	0	R1202M
1804.733	0.801	1813888	WORD_OFF	n/a	n/a	GLOVE	4	13	[0, 0, 0]	n/a	FR1	0	R1202M
1805.534	1.617	1814689	WORD	n/a	wordpools/wordpool_EN.txt	FOAM	5	13	[0, 0, 0]	n/a	FR1	0	R1202M
1807.151	0.9	1816306	WORD_OFF	n/a	n/a	FOAM	5	13	[0, 0, 0]	n/a	FR1	0	R1202M
1808.051	1.617	1817206	WORD	n/a	wordpools/wordpool_EN.txt	EEL	6	13	[0, 0, 0]	n/a	FR1	0	R1202M
1809.668	1.017	1818822	WORD_OFF	n/a	n/a	EEL	6	13	[0, 0, 0]	n/a	FR1	0	R1202M
1810.685	1.617	1819839	WORD	n/a	wordpools/wordpool_EN.txt	BEE	7	13	[0, 0, 0]	n/a	FR1	0	R1202M
1812.302	0.95	1821456	WORD_OFF	n/a	n/a	BEE	7	13	[0, 0, 0]	n/a	FR1	0	R1202M
1813.252	1.616	1822406	WORD	n/a	wordpools/wordpool_EN.txt	JAR	8	13	[0, 0, 0]	n/a	FR1	0	R1202M
1814.868	0.817	1824022	WORD_OFF	n/a	n/a	JAR	8	13	[0, 0, 0]	n/a	FR1	0	R1202M
1815.685	1.601	1824839	WORD	n/a	wordpools/wordpool_EN.txt	LAMP	9	13	[0, 0, 0]	n/a	FR1	0	R1202M
1817.286	0.967	1826440	WORD_OFF	n/a	n/a	LAMP	9	13	[0, 0, 0]	n/a	FR1	0	R1202M
1818.253	1.616	1827407	WORD	n/a	wordpools/wordpool_EN.txt	WEB	10	13	[0, 0, 0]	n/a	FR1	0	R1202M
1819.869	0.984	1829023	WORD_OFF	n/a	n/a	WEB	10	13	[0, 0, 0]	n/a	FR1	0	R1202M
1820.853	1.618	1830007	WORD	n/a	wordpools/wordpool_EN.txt	LEG	11	13	[0, 0, 0]	n/a	FR1	0	R1202M
1822.471	0.833	1831625	WORD_OFF	n/a	n/a	LEG	11	13	[0, 0, 0]	n/a	FR1	0	R1202M
1823.304	1.616	1832458	WORD	n/a	wordpools/wordpool_EN.txt	THREAD	12	13	[0, 0, 0]	n/a	FR1	0	R1202M
1824.92	0.0	1834074	WORD_OFF	n/a	n/a	THREAD	12	13	[0, 0, 0]	n/a	FR1	0	R1202M
1824.92	0.001	1834074	DISTRACT_START	n/a	n/a	n/a	-999	13	[0, 0, 0]	n/a	FR1	0	R1202M
1824.921	0.016	1834075	START	n/a	n/a	n/a	-999	13	[-999, -999, -999]	n/a	FR1	0	R1202M
1824.937	5.269	1834091	PROB	5.269	n/a	n/a	-999	13	[5, 4, 2]	11	FR1	0	R1202M
1830.206	5.084	1839359	PROB	5.084	n/a	n/a	-999	13	[9, 9, 4]	22	FR1	0	R1202M
1835.29	5.467	1844443	PROB	5.467	n/a	n/a	-999	13	[5, 8, 2]	15	FR1	0	R1202M
1840.757	6.008	1849910	PROB	6.008	n/a	n/a	-999	13	[7, 7, 6]	20	FR1	0	R1202M
1846.765	0.009	1855917	STOP	n/a	n/a	n/a	-999	13	[-999, -999, -999]	n/a	FR1	0	R1202M
1846.774	0.635	1855926	DISTRACT_END	n/a	n/a	n/a	-999	13	[0, 0, 0]	n/a	FR1	0	R1202M
1847.409	0.517	1856561	RETRIEVAL_ORIENT	n/a	n/a	n/a	-999	13	[0, 0, 0]	n/a	FR1	0	R1202M
1847.926	2.822	1857078	REC_START	n/a	n/a	n/a	-999	13	[0, 0, 0]	n/a	FR1	0	R1202M
1850.748	5.124	1859900	REC_WORD	5.124	n/a	EEL	-999	13	[0, 0, 0]	n/a	FR1	0	R1202M
1855.872	5.929	1865024	REC_WORD	5.929	n/a	SKUNK	-999	13	[0, 0, 0]	n/a	FR1	0	R1202M
1861.801	16.138	1870953	REC_WORD	16.138	n/a	SHIRT	-999	13	[0, 0, 0]	n/a	FR1	0	R1202M
1877.939	6.727	1887090	REC_END	n/a	n/a	n/a	-999	13	[0, 0, 0]	n/a	FR1	0	R1202M
1884.666	0.5	1893816	TRIAL	n/a	n/a	n/a	-999	14	[0, 0, 0]	n/a	FR1	0	R1202M
1885.166	10.428	1894316	COUNTDOWN_START	n/a	n/a	n/a	-999	14	[0, 0, 0]	n/a	FR1	0	R1202M
1895.594	0.008	1904744	COUNTDOWN_END	n/a	n/a	n/a	-999	14	[0, 0, 0]	n/a	FR1	0	R1202M
1895.602	1.616	1904752	ORIENT	n/a	n/a	n/a	-999	14	[0, 0, 0]	n/a	FR1	0	R1202M
1897.218	2.001	1906368	ORIENT_OFF	n/a	n/a	n/a	-999	14	[0, 0, 0]	n/a	FR1	0	R1202M
1899.219	1.616	1908368	WORD	n/a	wordpools/wordpool_EN.txt	FILM	1	14	[0, 0, 0]	n/a	FR1	0	R1202M
1900.835	0.834	1909984	WORD_OFF	n/a	n/a	FILM	1	14	[0, 0, 0]	n/a	FR1	0	R1202M
1901.669	1.617	1910818	WORD	n/a	wordpools/wordpool_EN.txt	BAT	2	14	[0, 0, 0]	n/a	FR1	0	R1202M
1903.286	0.801	1912435	WORD_OFF	n/a	n/a	BAT	2	14	[0, 0, 0]	n/a	FR1	0	R1202M
1904.087	1.616	1913236	WORD	n/a	wordpools/wordpool_EN.txt	STAR	3	14	[0, 0, 0]	n/a	FR1	0	R1202M
1905.703	0.767	1914852	WORD_OFF	n/a	n/a	STAR	3	14	[0, 0, 0]	n/a	FR1	0	R1202M
1906.47	1.617	1915619	WORD	n/a	wordpools/wordpool_EN.txt	BLUSH	4	14	[0, 0, 0]	n/a	FR1	0	R1202M
1908.087	1.0	1917236	WORD_OFF	n/a	n/a	BLUSH	4	14	[0, 0, 0]	n/a	FR1	0	R1202M
1909.087	1.616	1918236	WORD	n/a	wordpools/wordpool_EN.txt	BRICK	5	14	[0, 0, 0]	n/a	FR1	0	R1202M
1910.703	0.935	1919852	WORD_OFF	n/a	n/a	BRICK	5	14	[0, 0, 0]	n/a	FR1	0	R1202M
1911.638	1.617	1920787	WORD	n/a	wordpools/wordpool_EN.txt	BANK	6	14	[0, 0, 0]	n/a	FR1	0	R1202M
1913.255	0.85	1922404	WORD_OFF	n/a	n/a	BANK	6	14	[0, 0, 0]	n/a	FR1	0	R1202M
1914.105	1.616	1923254	WORD	n/a	wordpools/wordpool_EN.txt	NET	7	14	[0, 0, 0]	n/a	FR1	0	R1202M
1915.721	0.885	1924870	WORD_OFF	n/a	n/a	NET	7	14	[0, 0, 0]	n/a	FR1	0	R1202M
1916.606	1.617	1925755	WORD	n/a	wordpools/wordpool_EN.txt	ROAD	8	14	[0, 0, 0]	n/a	FR1	0	R1202M
1918.223	1.016	1927371	WORD_OFF	n/a	n/a	ROAD	8	14	[0, 0, 0]	n/a	FR1	0	R1202M
1919.239	1.616	1928387	WORD	n/a	wordpools/wordpool_EN.txt	SHEET	9	14	[0, 0, 0]	n/a	FR1	0	R1202M
1920.855	1.001	1930003	WORD_OFF	n/a	n/a	SHEET	9	14	[0, 0, 0]	n/a	FR1	0	R1202M
1921.856	1.617	1931004	WORD	n/a	wordpools/wordpool_EN.txt	CASH	10	14	[0, 0, 0]	n/a	FR1	0	R1202M
1923.473	0.984	1932621	WORD_OFF	n/a	n/a	CASH	10	14	[0, 0, 0]	n/a	FR1	0	R1202M
1924.457	1.617	1933605	WORD	n/a	wordpools/wordpool_EN.txt	MAP	11	14	[0, 0, 0]	n/a	FR1	0	R1202M
1926.074	0.816	1935222	WORD_OFF	n/a	n/a	MAP	11	14	[0, 0, 0]	n/a	FR1	0	R1202M
1926.89	1.618	1936038	WORD	n/a	wordpools/wordpool_EN.txt	JUDGE	12	14	[0, 0, 0]	n/a	FR1	0	R1202M
1928.508	0.0	1937656	WORD_OFF	n/a	n/a	JUDGE	12	14	[0, 0, 0]	n/a	FR1	0	R1202M
1928.508	0.001	1937656	DISTRACT_START	n/a	n/a	n/a	-999	14	[0, 0, 0]	n/a	FR1	0	R1202M
1928.509	0.016	1937657	START	n/a	n/a	n/a	-999	14	[-999, -999, -999]	n/a	FR1	0	R1202M
1928.525	5.5	1937673	PROB	5.5	n/a	n/a	-999	14	[1, 1, 3]	5	FR1	0	R1202M
1934.025	7.818	1943173	PROB	7.818	n/a	n/a	-999	14	[7, 1, 6]	14	FR1	0	R1202M
1941.843	4.652	1950990	PROB	4.652	n/a	n/a	-999	14	[5, 6, 1]	12	FR1	0	R1202M
1946.495	5.646	1955642	PROB	5.646	n/a	n/a	-999	14	[6, 1, 8]	13	FR1	0	R1202M
1952.141	0.021	1961288	STOP	n/a	n/a	n/a	-999	14	[-999, -999, -999]	n/a	FR1	0	R1202M
1952.162	0.583	1961309	DISTRACT_END	n/a	n/a	n/a	-999	14	[0, 0, 0]	n/a	FR1	0	R1202M
1952.745	0.518	1961891	RETRIEVAL_ORIENT	n/a	n/a	n/a	-999	14	[0, 0, 0]	n/a	FR1	0	R1202M
1953.263	5.662	1962409	REC_START	n/a	n/a	n/a	-999	14	[0, 0, 0]	n/a	FR1	0	R1202M
1958.925	24.352	1968071	REC_WORD	24.352	n/a	BAT	-999	14	[0, 0, 0]	n/a	FR1	0	R1202M
1983.277	5.926	1992422	REC_END	n/a	n/a	n/a	-999	14	[0, 0, 0]	n/a	FR1	0	R1202M
1989.203	0.5	1998347	TRIAL	n/a	n/a	n/a	-999	15	[0, 0, 0]	n/a	FR1	0	R1202M
1989.703	10.428	1998847	COUNTDOWN_START	n/a	n/a	n/a	-999	15	[0, 0, 0]	n/a	FR1	0	R1202M
2000.131	0.008	2009275	COUNTDOWN_END	n/a	n/a	n/a	-999	15	[0, 0, 0]	n/a	FR1	0	R1202M
2000.139	1.615	2009283	ORIENT	n/a	n/a	n/a	-999	15	[0, 0, 0]	n/a	FR1	0	R1202M
2001.754	2.051	2010898	ORIENT_OFF	n/a	n/a	n/a	-999	15	[0, 0, 0]	n/a	FR1	0	R1202M
2003.805	1.618	2012949	WORD	n/a	wordpools/wordpool_EN.txt	PEN	1	15	[0, 0, 0]	n/a	FR1	0	R1202M
2005.423	0.95	2014567	WORD_OFF	n/a	n/a	PEN	1	15	[0, 0, 0]	n/a	FR1	0	R1202M
2006.373	1.616	2015517	WORD	n/a	wordpools/wordpool_EN.txt	WALL	2	15	[0, 0, 0]	n/a	FR1	0	R1202M
2007.989	0.867	2017132	WORD_OFF	n/a	n/a	WALL	2	15	[0, 0, 0]	n/a	FR1	0	R1202M
2008.856	1.601	2017999	WORD	n/a	wordpools/wordpool_EN.txt	FENCE	3	15	[0, 0, 0]	n/a	FR1	0	R1202M
2010.457	0.817	2019600	WORD_OFF	n/a	n/a	FENCE	3	15	[0, 0, 0]	n/a	FR1	0	R1202M
2011.274	1.616	2020417	WORD	n/a	wordpools/wordpool_EN.txt	ROOF	4	15	[0, 0, 0]	n/a	FR1	0	R1202M
2012.89	0.917	2022033	WORD_OFF	n/a	n/a	ROOF	4	15	[0, 0, 0]	n/a	FR1	0	R1202M
2013.807	1.618	2022950	WORD	n/a	wordpools/wordpool_EN.txt	SLUSH	5	15	[0, 0, 0]	n/a	FR1	0	R1202M
2015.425	1.0	2024568	WORD_OFF	n/a	n/a	SLUSH	5	15	[0, 0, 0]	n/a	FR1	0	R1202M
2016.425	1.616	2025568	WORD	n/a	wordpools/wordpool_EN.txt	PIPE	6	15	[0, 0, 0]	n/a	FR1	0	R1202M
2018.041	0.767	2027184	WORD_OFF	n/a	n/a	PIPE	6	15	[0, 0, 0]	n/a	FR1	0	R1202M
2018.808	1.618	2027951	WORD	n/a	wordpools/wordpool_EN.txt	DRUM	7	15	[0, 0, 0]	n/a	FR1	0	R1202M
2020.426	0.917	2029569	WORD_OFF	n/a	n/a	DRUM	7	15	[0, 0, 0]	n/a	FR1	0	R1202M
2021.343	1.616	2030486	WORD	n/a	wordpools/wordpool_EN.txt	PASTE	8	15	[0, 0, 0]	n/a	FR1	0	R1202M
2022.959	0.933	2032102	WORD_OFF	n/a	n/a	PASTE	8	15	[0, 0, 0]	n/a	FR1	0	R1202M
2023.892	1.618	2033035	WORD	n/a	wordpools/wordpool_EN.txt	WOOD	9	15	[0, 0, 0]	n/a	FR1	0	R1202M
2025.51	1.017	2034652	WORD_OFF	n/a	n/a	WOOD	9	15	[0, 0, 0]	n/a	FR1	0	R1202M
2026.527	1.617	2035669	WORD	n/a	wordpools/wordpool_EN.txt	STRING	10	15	[0, 0, 0]	n/a	FR1	0	R1202M
2028.144	0.782	2037286	WORD_OFF	n/a	n/a	STRING	10	15	[0, 0, 0]	n/a	FR1	0	R1202M
2028.926	1.601	2038068	WORD	n/a	wordpools/wordpool_EN.txt	GUARD	11	15	[0, 0, 0]	n/a	FR1	0	R1202M
2030.527	1.001	2039669	WORD_OFF	n/a	n/a	GUARD	11	15	[0, 0, 0]	n/a	FR1	0	R1202M
2031.528	1.617	2040670	WORD	n/a	wordpools/wordpool_EN.txt	PEAR	12	15	[0, 0, 0]	n/a	FR1	0	R1202M
2033.145	0.0	2042287	DISTRACT_START	n/a	n/a	n/a	-999	15	[0, 0, 0]	n/a	FR1	0	R1202M
2033.145	0.0	2042287	WORD_OFF	n/a	n/a	PEAR	12	15	[0, 0, 0]	n/a	FR1	0	R1202M
2033.145	0.016	2042287	START	n/a	n/a	n/a	-999	15	[-999, -999, -999]	n/a	FR1	0	R1202M
2033.161	8.469	2042303	PROB	8.469	n/a	n/a	-999	15	[9, 6, 6]	21	FR1	0	R1202M
2041.63	5.017	2050772	PROB	5.017	n/a	n/a	-999	15	[4, 8, 1]	13	FR1	0	R1202M
2046.647	3.851	2055788	PROB	3.851	n/a	n/a	-999	15	[1, 3, 4]	8	FR1	0	R1202M
2050.498	6.595	2059639	PROB	6.595	n/a	n/a	-999	15	[7, 7, 3]	17	FR1	0	R1202M
2057.093	0.006	2066234	STOP	n/a	n/a	n/a	-999	15	[-999, -999, -999]	n/a	FR1	0	R1202M
2057.099	0.65	2066240	DISTRACT_END	n/a	n/a	n/a	-999	15	[0, 0, 0]	n/a	FR1	0	R1202M
2057.749	0.518	2066890	RETRIEVAL_ORIENT	n/a	n/a	n/a	-999	15	[0, 0, 0]	n/a	FR1	0	R1202M
2058.267	28.189	2067408	REC_START	n/a	n/a	n/a	-999	15	[0, 0, 0]	n/a	FR1	0	R1202M
2086.456	1.823	2095595	REC_WORD_VV	1.823	n/a	<>	-999	15	[0, 0, 0]	n/a	FR1	0	R1202M
2088.279	252.059	2097418	REC_END	n/a	n/a	n/a	-999	15	[0, 0, 0]	n/a	FR1	0	R1202M
2340.338	0.5	2349463	TRIAL	n/a	n/a	n/a	-999	16	[0, 0, 0]	n/a	FR1	0	R1202M
2340.838	10.428	2349963	COUNTDOWN_START	n/a	n/a	n/a	-999	16	[0, 0, 0]	n/a	FR1	0	R1202M
2351.266	0.007	2360390	COUNTDOWN_END	n/a	n/a	n/a	-999	16	[0, 0, 0]	n/a	FR1	0	R1202M
2351.273	1.616	2360397	ORIENT	n/a	n/a	n/a	-999	16	[0, 0, 0]	n/a	FR1	0	R1202M
2352.889	2.117	2362013	ORIENT_OFF	n/a	n/a	n/a	-999	16	[0, 0, 0]	n/a	FR1	0	R1202M
2355.006	1.618	2364130	WORD	n/a	wordpools/wordpool_EN.txt	TEETH	1	16	[0, 0, 0]	n/a	FR1	0	R1202M
2356.624	0.784	2365748	WORD_OFF	n/a	n/a	TEETH	1	16	[0, 0, 0]	n/a	FR1	0	R1202M
2357.408	1.615	2366532	WORD	n/a	wordpools/wordpool_EN.txt	FLAG	2	16	[0, 0, 0]	n/a	FR1	0	R1202M
2359.023	0.934	2368147	WORD_OFF	n/a	n/a	FLAG	2	16	[0, 0, 0]	n/a	FR1	0	R1202M
2359.957	1.618	2369081	WORD	n/a	wordpools/wordpool_EN.txt	WHEEL	3	16	[0, 0, 0]	n/a	FR1	0	R1202M
2361.575	0.917	2370699	WORD_OFF	n/a	n/a	WHEEL	3	16	[0, 0, 0]	n/a	FR1	0	R1202M
2362.492	1.617	2371616	WORD	n/a	wordpools/wordpool_EN.txt	JEEP	4	16	[0, 0, 0]	n/a	FR1	0	R1202M
2364.109	0.916	2373233	WORD_OFF	n/a	n/a	JEEP	4	16	[0, 0, 0]	n/a	FR1	0	R1202M
2365.025	1.618	2374149	WORD	n/a	wordpools/wordpool_EN.txt	HORSE	5	16	[0, 0, 0]	n/a	FR1	0	R1202M
2366.643	1.0	2375766	WORD_OFF	n/a	n/a	HORSE	5	16	[0, 0, 0]	n/a	FR1	0	R1202M
2367.643	1.617	2376766	WORD	n/a	wordpools/wordpool_EN.txt	FARM	6	16	[0, 0, 0]	n/a	FR1	0	R1202M
2369.26	0.9	2378383	WORD_OFF	n/a	n/a	FARM	6	16	[0, 0, 0]	n/a	FR1	0	R1202M
2370.16	1.616	2379283	WORD	n/a	wordpools/wordpool_EN.txt	SKI	7	16	[0, 0, 0]	n/a	FR1	0	R1202M
2371.776	0.983	2380899	WORD_OFF	n/a	n/a	SKI	7	16	[0, 0, 0]	n/a	FR1	0	R1202M
2372.759	1.602	2381882	WORD	n/a	wordpools/wordpool_EN.txt	SCHOOL	8	16	[0, 0, 0]	n/a	FR1	0	R1202M
2374.361	0.817	2383484	WORD_OFF	n/a	n/a	SCHOOL	8	16	[0, 0, 0]	n/a	FR1	0	R1202M
2375.178	1.616	2384301	WORD	n/a	wordpools/wordpool_EN.txt	PEA	9	16	[0, 0, 0]	n/a	FR1	0	R1202M
2376.794	0.851	2385917	WORD_OFF	n/a	n/a	PEA	9	16	[0, 0, 0]	n/a	FR1	0	R1202M
2377.645	1.617	2386768	WORD	n/a	wordpools/wordpool_EN.txt	WAVE	10	16	[0, 0, 0]	n/a	FR1	0	R1202M
2379.262	0.867	2388385	WORD_OFF	n/a	n/a	WAVE	10	16	[0, 0, 0]	n/a	FR1	0	R1202M
2380.129	1.616	2389252	WORD	n/a	wordpools/wordpool_EN.txt	COW	11	16	[0, 0, 0]	n/a	FR1	0	R1202M
2381.745	0.801	2390868	WORD_OFF	n/a	n/a	COW	11	16	[0, 0, 0]	n/a	FR1	0	R1202M
2382.546	1.617	2391669	WORD	n/a	wordpools/wordpool_EN.txt	TOOTH	12	16	[0, 0, 0]	n/a	FR1	0	R1202M
2384.163	0.0	2393285	WORD_OFF	n/a	n/a	TOOTH	12	16	[0, 0, 0]	n/a	FR1	0	R1202M
2384.163	0.0	2393285	DISTRACT_START	n/a	n/a	n/a	-999	16	[0, 0, 0]	n/a	FR1	0	R1202M
2384.163	0.016	2393285	START	n/a	n/a	n/a	-999	16	[-999, -999, -999]	n/a	FR1	0	R1202M
2384.179	8.718	2393301	PROB	8.718	n/a	n/a	-999	16	[7, 8, 1]	16	FR1	0	R1202M
2392.897	5.051	2402019	PROB	5.051	n/a	n/a	-999	16	[6, 5, 5]	16	FR1	0	R1202M
2397.948	4.235	2407070	PROB	4.235	n/a	n/a	-999	16	[2, 6, 1]	9	FR1	0	R1202M
2402.183	5.991	2411304	PROB	5.991	n/a	n/a	-999	16	[8, 9, 6]	23	FR1	0	R1202M
2408.174	0.01	2417295	STOP	n/a	n/a	n/a	-999	16	[-999, -999, -999]	n/a	FR1	0	R1202M
2408.184	0.549	2417305	DISTRACT_END	n/a	n/a	n/a	-999	16	[0, 0, 0]	n/a	FR1	0	R1202M
2408.733	0.519	2417854	RETRIEVAL_ORIENT	n/a	n/a	n/a	-999	16	[0, 0, 0]	n/a	FR1	0	R1202M
2409.252	1.81	2418373	REC_START	n/a	n/a	n/a	-999	16	[0, 0, 0]	n/a	FR1	0	R1202M
2411.062	2.907	2420183	REC_WORD	2.907	n/a	SCHOOL	-999	16	[0, 0, 0]	n/a	FR1	0	R1202M
2413.969	25.295	2423090	REC_WORD	25.295	n/a	PEA	-999	16	[0, 0, 0]	n/a	FR1	0	R1202M
2439.264	5.894	2448383	REC_END	n/a	n/a	n/a	-999	16	[0, 0, 0]	n/a	FR1	0	R1202M
2445.158	0.5	2454277	TRIAL	n/a	n/a	n/a	-999	17	[0, 0, 0]	n/a	FR1	0	R1202M
2445.658	10.428	2454777	COUNTDOWN_START	n/a	n/a	n/a	-999	17	[0, 0, 0]	n/a	FR1	0	R1202M
2456.086	0.007	2465204	COUNTDOWN_END	n/a	n/a	n/a	-999	17	[0, 0, 0]	n/a	FR1	0	R1202M
2456.093	1.616	2465211	ORIENT	n/a	n/a	n/a	-999	17	[0, 0, 0]	n/a	FR1	0	R1202M
2457.709	2.201	2466827	ORIENT_OFF	n/a	n/a	n/a	-999	17	[0, 0, 0]	n/a	FR1	0	R1202M
2459.91	1.618	2469028	WORD	n/a	wordpools/wordpool_EN.txt	EGG	1	17	[0, 0, 0]	n/a	FR1	0	R1202M
2461.528	0.867	2470646	WORD_OFF	n/a	n/a	EGG	1	17	[0, 0, 0]	n/a	FR1	0	R1202M
2462.395	1.615	2471513	WORD	n/a	wordpools/wordpool_EN.txt	SHELL	2	17	[0, 0, 0]	n/a	FR1	0	R1202M
2464.01	0.934	2473128	WORD_OFF	n/a	n/a	SHELL	2	17	[0, 0, 0]	n/a	FR1	0	R1202M
2464.944	1.618	2474062	WORD	n/a	wordpools/wordpool_EN.txt	TOOL	3	17	[0, 0, 0]	n/a	FR1	0	R1202M
2466.562	0.867	2475680	WORD_OFF	n/a	n/a	TOOL	3	17	[0, 0, 0]	n/a	FR1	0	R1202M
2467.429	1.616	2476547	WORD	n/a	wordpools/wordpool_EN.txt	BEAK	4	17	[0, 0, 0]	n/a	FR1	0	R1202M
2469.045	0.933	2478163	WORD_OFF	n/a	n/a	BEAK	4	17	[0, 0, 0]	n/a	FR1	0	R1202M
2469.978	1.601	2479096	WORD	n/a	wordpools/wordpool_EN.txt	MAIL	5	17	[0, 0, 0]	n/a	FR1	0	R1202M
2471.579	0.817	2480697	WORD_OFF	n/a	n/a	MAIL	5	17	[0, 0, 0]	n/a	FR1	0	R1202M
2472.396	1.616	2481514	WORD	n/a	wordpools/wordpool_EN.txt	SQUARE	6	17	[0, 0, 0]	n/a	FR1	0	R1202M
2474.012	0.8	2483129	WORD_OFF	n/a	n/a	SQUARE	6	17	[0, 0, 0]	n/a	FR1	0	R1202M
2474.812	1.619	2483929	WORD	n/a	wordpools/wordpool_EN.txt	GOLD	7	17	[0, 0, 0]	n/a	FR1	0	R1202M
2476.431	0.883	2485548	WORD_OFF	n/a	n/a	GOLD	7	17	[0, 0, 0]	n/a	FR1	0	R1202M
2477.314	1.616	2486431	WORD	n/a	wordpools/wordpool_EN.txt	TRAIN	8	17	[0, 0, 0]	n/a	FR1	0	R1202M
2478.93	0.867	2488047	WORD_OFF	n/a	n/a	TRAIN	8	17	[0, 0, 0]	n/a	FR1	0	R1202M
2479.797	1.618	2488914	WORD	n/a	wordpools/wordpool_EN.txt	JET	9	17	[0, 0, 0]	n/a	FR1	0	R1202M
2481.415	0.817	2490532	WORD_OFF	n/a	n/a	JET	9	17	[0, 0, 0]	n/a	FR1	0	R1202M
2482.232	1.616	2491349	WORD	n/a	wordpools/wordpool_EN.txt	VAN	10	17	[0, 0, 0]	n/a	FR1	0	R1202M
2483.848	0.916	2492965	WORD_OFF	n/a	n/a	VAN	10	17	[0, 0, 0]	n/a	FR1	0	R1202M
2484.764	1.618	2493881	WORD	n/a	wordpools/wordpool_EN.txt	PLANE	11	17	[0, 0, 0]	n/a	FR1	0	R1202M
2486.382	0.867	2495499	WORD_OFF	n/a	n/a	PLANE	11	17	[0, 0, 0]	n/a	FR1	0	R1202M
2487.249	1.616	2496366	WORD	n/a	wordpools/wordpool_EN.txt	SALT	12	17	[0, 0, 0]	n/a	FR1	0	R1202M
2488.865	0.0	2497982	WORD_OFF	n/a	n/a	SALT	12	17	[0, 0, 0]	n/a	FR1	0	R1202M
2488.865	0.001	2497982	DISTRACT_START	n/a	n/a	n/a	-999	17	[0, 0, 0]	n/a	FR1	0	R1202M
2488.866	0.016	2497983	START	n/a	n/a	n/a	-999	17	[-999, -999, -999]	n/a	FR1	0	R1202M
2488.882	6.101	2497999	PROB	6.101	n/a	n/a	-999	17	[6, 6, 9]	21	FR1	0	R1202M
2494.983	7.486	2504099	PROB	7.486	n/a	n/a	-999	17	[2, 5, 8]	15	FR1	0	R1202M
2502.469	6.56	2511585	PROB	6.56	n/a	n/a	-999	17	[8, 5, 7]	20	FR1	0	R1202M
2509.029	0.007	2518145	STOP	n/a	n/a	n/a	-999	17	[-999, -999, -999]	n/a	FR1	0	R1202M
2509.036	0.65	2518152	DISTRACT_END	n/a	n/a	n/a	-999	17	[0, 0, 0]	n/a	FR1	0	R1202M
2509.686	0.518	2518802	RETRIEVAL_ORIENT	n/a	n/a	n/a	-999	17	[0, 0, 0]	n/a	FR1	0	R1202M
2510.204	3.007	2519319	REC_START	n/a	n/a	n/a	-999	17	[0, 0, 0]	n/a	FR1	0	R1202M
2513.211	13.011	2522326	REC_WORD	13.011	n/a	TRAIN	-999	17	[0, 0, 0]	n/a	FR1	0	R1202M
2526.222	11.692	2535337	REC_WORD	11.692	n/a	MALL	-999	17	[0, 0, 0]	n/a	FR1	0	R1202M
2537.914	2.303	2547028	REC_WORD	2.303	n/a	TRACK	-999	17	[0, 0, 0]	n/a	FR1	0	R1202M
2540.217	30.315	2549331	REC_END	n/a	n/a	n/a	-999	17	[0, 0, 0]	n/a	FR1	0	R1202M
2570.532	0.5	2579644	TRIAL	n/a	n/a	n/a	-999	18	[0, 0, 0]	n/a	FR1	0	R1202M
2571.032	10.428	2580144	COUNTDOWN_START	n/a	n/a	n/a	-999	18	[0, 0, 0]	n/a	FR1	0	R1202M
2581.46	0.008	2590572	COUNTDOWN_END	n/a	n/a	n/a	-999	18	[0, 0, 0]	n/a	FR1	0	R1202M
2581.468	1.617	2590580	ORIENT	n/a	n/a	n/a	-999	18	[0, 0, 0]	n/a	FR1	0	R1202M
2583.085	2.033	2592196	ORIENT_OFF	n/a	n/a	n/a	-999	18	[0, 0, 0]	n/a	FR1	0	R1202M
2585.118	1.616	2594229	WORD	n/a	wordpools/wordpool_EN.txt	RAIN	1	18	[0, 0, 0]	n/a	FR1	0	R1202M
2586.734	0.818	2595845	WORD_OFF	n/a	n/a	RAIN	1	18	[0, 0, 0]	n/a	FR1	0	R1202M
2587.552	1.617	2596663	WORD	n/a	wordpools/wordpool_EN.txt	SPARK	2	18	[0, 0, 0]	n/a	FR1	0	R1202M
2589.169	0.866	2598280	WORD_OFF	n/a	n/a	SPARK	2	18	[0, 0, 0]	n/a	FR1	0	R1202M
2590.035	1.601	2599146	WORD	n/a	wordpools/wordpool_EN.txt	CLOUD	3	18	[0, 0, 0]	n/a	FR1	0	R1202M
2591.636	0.834	2600747	WORD_OFF	n/a	n/a	CLOUD	3	18	[0, 0, 0]	n/a	FR1	0	R1202M
2592.47	1.617	2601581	WORD	n/a	wordpools/wordpool_EN.txt	LAND	4	18	[0, 0, 0]	n/a	FR1	0	R1202M
2594.087	0.865	2603198	WORD_OFF	n/a	n/a	LAND	4	18	[0, 0, 0]	n/a	FR1	0	R1202M
2594.952	1.618	2604063	WORD	n/a	wordpools/wordpool_EN.txt	CORN	5	18	[0, 0, 0]	n/a	FR1	0	R1202M
2596.57	0.917	2605681	WORD_OFF	n/a	n/a	CORN	5	18	[0, 0, 0]	n/a	FR1	0	R1202M
2597.487	1.617	2606598	WORD	n/a	wordpools/wordpool_EN.txt	FLAME	6	18	[0, 0, 0]	n/a	FR1	0	R1202M
2599.104	0.933	2608215	WORD_OFF	n/a	n/a	FLAME	6	18	[0, 0, 0]	n/a	FR1	0	R1202M
2600.037	1.618	2609147	WORD	n/a	wordpools/wordpool_EN.txt	SMOKE	7	18	[0, 0, 0]	n/a	FR1	0	R1202M
2601.655	0.867	2610765	WORD_OFF	n/a	n/a	SMOKE	7	18	[0, 0, 0]	n/a	FR1	0	R1202M
2602.522	1.617	2611632	WORD	n/a	wordpools/wordpool_EN.txt	SEED	8	18	[0, 0, 0]	n/a	FR1	0	R1202M
2604.139	0.933	2613249	WORD_OFF	n/a	n/a	SEED	8	18	[0, 0, 0]	n/a	FR1	0	R1202M
2605.072	1.616	2614182	WORD	n/a	wordpools/wordpool_EN.txt	CUBE	9	18	[0, 0, 0]	n/a	FR1	0	R1202M
2606.688	0.851	2615798	WORD_OFF	n/a	n/a	CUBE	9	18	[0, 0, 0]	n/a	FR1	0	R1202M
2607.539	1.617	2616649	WORD	n/a	wordpools/wordpool_EN.txt	STORM	10	18	[0, 0, 0]	n/a	FR1	0	R1202M
2609.156	0.984	2618266	WORD_OFF	n/a	n/a	STORM	10	18	[0, 0, 0]	n/a	FR1	0	R1202M
2610.14	1.616	2619250	WORD	n/a	wordpools/wordpool_EN.txt	FOOD	11	18	[0, 0, 0]	n/a	FR1	0	R1202M
2611.756	0.784	2620866	WORD_OFF	n/a	n/a	FOOD	11	18	[0, 0, 0]	n/a	FR1	0	R1202M
2612.54	1.617	2621650	WORD	n/a	wordpools/wordpool_EN.txt	BLOOM	12	18	[0, 0, 0]	n/a	FR1	0	R1202M
2614.157	0.0	2623267	WORD_OFF	n/a	n/a	BLOOM	12	18	[0, 0, 0]	n/a	FR1	0	R1202M
2614.157	0.001	2623267	DISTRACT_START	n/a	n/a	n/a	-999	18	[0, 0, 0]	n/a	FR1	0	R1202M
2614.158	0.016	2623268	START	n/a	n/a	n/a	-999	18	[-999, -999, -999]	n/a	FR1	0	R1202M
2614.174	7.368	2623284	PROB	7.368	n/a	n/a	-999	18	[8, 9, 5]	22	FR1	0	R1202M
2621.542	5.518	2630651	PROB	5.518	n/a	n/a	-999	18	[3, 5, 5]	13	FR1	0	R1202M
2627.06	8.64	2636169	PROB	8.64	n/a	n/a	-999	18	[7, 2, 8]	17	FR1	0	R1202M
2635.7	0.01	2644809	STOP	n/a	n/a	n/a	-999	18	[-999, -999, -999]	n/a	FR1	0	R1202M
2635.71	0.568	2644819	DISTRACT_END	n/a	n/a	n/a	-999	18	[0, 0, 0]	n/a	FR1	0	R1202M
2636.278	0.517	2645386	RETRIEVAL_ORIENT	n/a	n/a	n/a	-999	18	[0, 0, 0]	n/a	FR1	0	R1202M
2636.795	3.217	2645903	REC_START	n/a	n/a	n/a	-999	18	[0, 0, 0]	n/a	FR1	0	R1202M
2640.012	26.794	2649120	REC_WORD	26.794	n/a	BLOOM	-999	18	[0, 0, 0]	n/a	FR1	0	R1202M
2666.806	5.363	2675913	REC_END	n/a	n/a	n/a	-999	18	[0, 0, 0]	n/a	FR1	0	R1202M
2672.169	0.5	2681275	TRIAL	n/a	n/a	n/a	-999	19	[0, 0, 0]	n/a	FR1	0	R1202M
2672.669	10.428	2681775	COUNTDOWN_START	n/a	n/a	n/a	-999	19	[0, 0, 0]	n/a	FR1	0	R1202M
2683.097	0.007	2692203	COUNTDOWN_END	n/a	n/a	n/a	-999	19	[0, 0, 0]	n/a	FR1	0	R1202M
2683.104	1.616	2692210	ORIENT	n/a	n/a	n/a	-999	19	[0, 0, 0]	n/a	FR1	0	R1202M
2684.72	2.234	2693826	ORIENT_OFF	n/a	n/a	n/a	-999	19	[0, 0, 0]	n/a	FR1	0	R1202M
2686.954	1.618	2696060	WORD	n/a	wordpools/wordpool_EN.txt	SUIT	1	19	[0, 0, 0]	n/a	FR1	0	R1202M
2688.572	0.85	2697678	WORD_OFF	n/a	n/a	SUIT	1	19	[0, 0, 0]	n/a	FR1	0	R1202M
2689.422	1.616	2698528	WORD	n/a	wordpools/wordpool_EN.txt	BAG	2	19	[0, 0, 0]	n/a	FR1	0	R1202M
2691.038	0.917	2700143	WORD_OFF	n/a	n/a	BAG	2	19	[0, 0, 0]	n/a	FR1	0	R1202M
2691.955	1.618	2701060	WORD	n/a	wordpools/wordpool_EN.txt	SOCK	3	19	[0, 0, 0]	n/a	FR1	0	R1202M
2693.573	0.883	2702678	WORD_OFF	n/a	n/a	SOCK	3	19	[0, 0, 0]	n/a	FR1	0	R1202M
2694.456	1.617	2703561	WORD	n/a	wordpools/wordpool_EN.txt	YARD	4	19	[0, 0, 0]	n/a	FR1	0	R1202M
2696.073	0.883	2705178	WORD_OFF	n/a	n/a	YARD	4	19	[0, 0, 0]	n/a	FR1	0	R1202M
2696.956	1.618	2706061	WORD	n/a	wordpools/wordpool_EN.txt	HOUSE	5	19	[0, 0, 0]	n/a	FR1	0	R1202M
2698.574	0.933	2707679	WORD_OFF	n/a	n/a	HOUSE	5	19	[0, 0, 0]	n/a	FR1	0	R1202M
2699.507	1.617	2708612	WORD	n/a	wordpools/wordpool_EN.txt	MAT	6	19	[0, 0, 0]	n/a	FR1	0	R1202M
2701.124	0.934	2710229	WORD_OFF	n/a	n/a	MAT	6	19	[0, 0, 0]	n/a	FR1	0	R1202M
2702.058	1.616	2711163	WORD	n/a	wordpools/wordpool_EN.txt	APE	7	19	[0, 0, 0]	n/a	FR1	0	R1202M
2703.674	0.967	2712779	WORD_OFF	n/a	n/a	APE	7	19	[0, 0, 0]	n/a	FR1	0	R1202M
2704.641	1.617	2713746	WORD	n/a	wordpools/wordpool_EN.txt	BATH	8	19	[0, 0, 0]	n/a	FR1	0	R1202M
2706.258	0.817	2715363	WORD_OFF	n/a	n/a	BATH	8	19	[0, 0, 0]	n/a	FR1	0	R1202M
2707.075	1.616	2716180	WORD	n/a	wordpools/wordpool_EN.txt	ROOM	9	19	[0, 0, 0]	n/a	FR1	0	R1202M
2708.691	0.834	2717795	WORD_OFF	n/a	n/a	ROOM	9	19	[0, 0, 0]	n/a	FR1	0	R1202M
2709.525	1.618	2718629	WORD	n/a	wordpools/wordpool_EN.txt	STICK	10	19	[0, 0, 0]	n/a	FR1	0	R1202M
2711.143	0.832	2720247	WORD_OFF	n/a	n/a	STICK	10	19	[0, 0, 0]	n/a	FR1	0	R1202M
2711.975	1.601	2721079	WORD	n/a	wordpools/wordpool_EN.txt	DRESS	11	19	[0, 0, 0]	n/a	FR1	0	R1202M
2713.576	0.801	2722680	WORD_OFF	n/a	n/a	DRESS	11	19	[0, 0, 0]	n/a	FR1	0	R1202M
2714.377	1.616	2723481	WORD	n/a	wordpools/wordpool_EN.txt	ARM	12	19	[0, 0, 0]	n/a	FR1	0	R1202M
2715.993	0.0	2725097	WORD_OFF	n/a	n/a	ARM	12	19	[0, 0, 0]	n/a	FR1	0	R1202M
2715.993	0.0	2725097	DISTRACT_START	n/a	n/a	n/a	-999	19	[0, 0, 0]	n/a	FR1	0	R1202M
2715.993	0.016	2725097	START	n/a	n/a	n/a	-999	19	[-999, -999, -999]	n/a	FR1	0	R1202M
2716.009	5.602	2725113	PROB	5.602	n/a	n/a	-999	19	[3, 5, 1]	9	FR1	0	R1202M
2721.611	4.551	2730715	PROB	4.551	n/a	n/a	-999	19	[8, 1, 1]	10	FR1	0	R1202M
2726.162	3.8	2735265	PROB	3.8	n/a	n/a	-999	19	[2, 5, 5]	12	FR1	0	R1202M
2729.962	5.252	2739065	PROB	5.252	n/a	n/a	-999	19	[3, 7, 4]	14	FR1	0	R1202M
2735.214	3.574	2744317	PROB	3.574	n/a	n/a	-999	19	[4, 2, 2]	8	FR1	0	R1202M
2738.788	0.009	2747891	STOP	n/a	n/a	n/a	-999	19	[-999, -999, -999]	n/a	FR1	0	R1202M
2738.797	0.601	2747900	DISTRACT_END	n/a	n/a	n/a	-999	19	[0, 0, 0]	n/a	FR1	0	R1202M
2739.398	0.516	2748501	RETRIEVAL_ORIENT	n/a	n/a	n/a	-999	19	[0, 0, 0]	n/a	FR1	0	R1202M
2739.914	3.71	2749017	REC_START	n/a	n/a	n/a	-999	19	[0, 0, 0]	n/a	FR1	0	R1202M
2743.624	3.418	2752726	REC_WORD	3.418	n/a	SUIT	-999	19	[0, 0, 0]	n/a	FR1	0	R1202M
2747.042	2.971	2756144	REC_WORD	2.971	n/a	APE	-999	19	[0, 0, 0]	n/a	FR1	0	R1202M
2750.013	4.457	2759115	REC_WORD	4.457	n/a	BATH	-999	19	[0, 0, 0]	n/a	FR1	0	R1202M
2754.47	12.717	2763572	REC_WORD	12.717	n/a	ROOM	-999	19	[0, 0, 0]	n/a	FR1	0	R1202M
2767.187	2.739	2776288	REC_WORD	2.739	n/a	CLOTH	-999	19	[0, 0, 0]	n/a	FR1	0	R1202M
2769.926	8.795	2779027	REC_END	n/a	n/a	n/a	-999	19	[0, 0, 0]	n/a	FR1	0	R1202M
2778.721	0.5	2787822	TRIAL	n/a	n/a	n/a	-999	20	[0, 0, 0]	n/a	FR1	0	R1202M
2779.221	10.428	2788322	COUNTDOWN_START	n/a	n/a	n/a	-999	20	[0, 0, 0]	n/a	FR1	0	R1202M
2789.649	0.009	2798749	COUNTDOWN_END	n/a	n/a	n/a	-999	20	[0, 0, 0]	n/a	FR1	0	R1202M
2789.658	1.617	2798758	ORIENT	n/a	n/a	n/a	-999	20	[0, 0, 0]	n/a	FR1	0	R1202M
2791.275	2.084	2800375	ORIENT_OFF	n/a	n/a	n/a	-999	20	[0, 0, 0]	n/a	FR1	0	R1202M
2793.359	1.615	2802459	WORD	n/a	wordpools/wordpool_EN.txt	ZOO	1	20	[0, 0, 0]	n/a	FR1	0	R1202M
2794.974	0.767	2804074	WORD_OFF	n/a	n/a	ZOO	1	20	[0, 0, 0]	n/a	FR1	0	R1202M
2795.741	1.618	2804841	WORD	n/a	wordpools/wordpool_EN.txt	STREET	2	20	[0, 0, 0]	n/a	FR1	0	R1202M
2797.359	0.934	2806459	WORD_OFF	n/a	n/a	STREET	2	20	[0, 0, 0]	n/a	FR1	0	R1202M
2798.293	1.616	2807392	WORD	n/a	wordpools/wordpool_EN.txt	SHEEP	3	20	[0, 0, 0]	n/a	FR1	0	R1202M
2799.909	0.867	2809008	WORD_OFF	n/a	n/a	SHEEP	3	20	[0, 0, 0]	n/a	FR1	0	R1202M
2800.776	1.601	2809875	WORD	n/a	wordpools/wordpool_EN.txt	HEN	4	20	[0, 0, 0]	n/a	FR1	0	R1202M
2802.377	0.867	2811476	WORD_OFF	n/a	n/a	HEN	4	20	[0, 0, 0]	n/a	FR1	0	R1202M
2803.244	1.616	2812343	WORD	n/a	wordpools/wordpool_EN.txt	BEAR	5	20	[0, 0, 0]	n/a	FR1	0	R1202M
2804.86	0.9	2813959	WORD_OFF	n/a	n/a	BEAR	5	20	[0, 0, 0]	n/a	FR1	0	R1202M
2805.76	1.618	2814859	WORD	n/a	wordpools/wordpool_EN.txt	BED	6	20	[0, 0, 0]	n/a	FR1	0	R1202M
2807.378	0.95	2816477	WORD_OFF	n/a	n/a	BED	6	20	[0, 0, 0]	n/a	FR1	0	R1202M
2808.328	1.616	2817427	WORD	n/a	wordpools/wordpool_EN.txt	BOY	7	20	[0, 0, 0]	n/a	FR1	0	R1202M
2809.944	0.9	2819043	WORD_OFF	n/a	n/a	BOY	7	20	[0, 0, 0]	n/a	FR1	0	R1202M
2810.844	1.618	2819943	WORD	n/a	wordpools/wordpool_EN.txt	KITE	8	20	[0, 0, 0]	n/a	FR1	0	R1202M
2812.462	0.917	2821561	WORD_OFF	n/a	n/a	KITE	8	20	[0, 0, 0]	n/a	FR1	0	R1202M
2813.379	1.616	2822478	WORD	n/a	wordpools/wordpool_EN.txt	TENT	9	20	[0, 0, 0]	n/a	FR1	0	R1202M
2814.995	0.934	2824094	WORD_OFF	n/a	n/a	TENT	9	20	[0, 0, 0]	n/a	FR1	0	R1202M
2815.929	1.618	2825027	WORD	n/a	wordpools/wordpool_EN.txt	CLOWN	10	20	[0, 0, 0]	n/a	FR1	0	R1202M
2817.547	0.883	2826645	WORD_OFF	n/a	n/a	CLOWN	10	20	[0, 0, 0]	n/a	FR1	0	R1202M
2818.43	1.616	2827528	WORD	n/a	wordpools/wordpool_EN.txt	CALF	11	20	[0, 0, 0]	n/a	FR1	0	R1202M
2820.046	0.784	2829144	WORD_OFF	n/a	n/a	CALF	11	20	[0, 0, 0]	n/a	FR1	0	R1202M
2820.83	1.618	2829928	WORD	n/a	wordpools/wordpool_EN.txt	FUR	12	20	[0, 0, 0]	n/a	FR1	0	R1202M
2822.448	0.0	2831546	DISTRACT_START	n/a	n/a	n/a	-999	20	[0, 0, 0]	n/a	FR1	0	R1202M
2822.448	0.0	2831546	WORD_OFF	n/a	n/a	FUR	12	20	[0, 0, 0]	n/a	FR1	0	R1202M
2822.448	0.016	2831546	START	n/a	n/a	n/a	-999	20	[-999, -999, -999]	n/a	FR1	0	R1202M
2822.464	6.367	2831562	PROB	6.367	n/a	n/a	-999	20	[7, 4, 6]	17	FR1	0	R1202M
2828.831	5.669	2837929	PROB	5.669	n/a	n/a	-999	20	[6, 2, 8]	16	FR1	0	R1202M
2834.5	7.668	2843597	PROB	7.668	n/a	n/a	-999	20	[4, 4, 7]	15	FR1	0	R1202M
2842.168	5.39	2851265	PROB	5.39	n/a	n/a	-999	20	[3, 6, 5]	14	FR1	0	R1202M
2847.558	0.011	2856655	STOP	n/a	n/a	n/a	-999	20	[-999, -999, -999]	n/a	FR1	0	R1202M
2847.569	0.6	2856666	DISTRACT_END	n/a	n/a	n/a	-999	20	[0, 0, 0]	n/a	FR1	0	R1202M
2848.169	0.517	2857266	RETRIEVAL_ORIENT	n/a	n/a	n/a	-999	20	[0, 0, 0]	n/a	FR1	0	R1202M
2848.686	5.865	2857783	REC_START	n/a	n/a	n/a	-999	20	[0, 0, 0]	n/a	FR1	0	R1202M
2854.551	3.637	2863647	REC_WORD	3.637	n/a	ZOO	-999	20	[0, 0, 0]	n/a	FR1	0	R1202M
2858.188	3.152	2867284	REC_WORD	3.152	n/a	HEN	-999	20	[0, 0, 0]	n/a	FR1	0	R1202M
2861.34	3.601	2870436	REC_WORD	3.601	n/a	BOY	-999	20	[0, 0, 0]	n/a	FR1	0	R1202M
2864.941	6.94	2874037	REC_WORD	6.94	n/a	BEAR	-999	20	[0, 0, 0]	n/a	FR1	0	R1202M
2871.881	6.815	2880976	REC_WORD	6.815	n/a	SHEEP	-999	20	[0, 0, 0]	n/a	FR1	0	R1202M
2878.696	7.664	2887791	REC_END	n/a	n/a	n/a	-999	20	[0, 0, 0]	n/a	FR1	0	R1202M
2886.36	0.5	2895455	TRIAL	n/a	n/a	n/a	-999	21	[0, 0, 0]	n/a	FR1	0	R1202M
2886.86	10.428	2895955	COUNTDOWN_START	n/a	n/a	n/a	-999	21	[0, 0, 0]	n/a	FR1	0	R1202M
2897.288	0.007	2906382	COUNTDOWN_END	n/a	n/a	n/a	-999	21	[0, 0, 0]	n/a	FR1	0	R1202M
2897.295	1.616	2906389	ORIENT	n/a	n/a	n/a	-999	21	[0, 0, 0]	n/a	FR1	0	R1202M
2898.911	2.218	2908005	ORIENT_OFF	n/a	n/a	n/a	-999	21	[0, 0, 0]	n/a	FR1	0	R1202M
2901.129	1.616	2910223	WORD	n/a	wordpools/wordpool_EN.txt	ROPE	1	21	[0, 0, 0]	n/a	FR1	0	R1202M
2902.745	0.852	2911839	WORD_OFF	n/a	n/a	ROPE	1	21	[0, 0, 0]	n/a	FR1	0	R1202M
2903.597	1.617	2912691	WORD	n/a	wordpools/wordpool_EN.txt	SUN	2	21	[0, 0, 0]	n/a	FR1	0	R1202M
2905.214	0.85	2914308	WORD_OFF	n/a	n/a	SUN	2	21	[0, 0, 0]	n/a	FR1	0	R1202M
2906.064	1.617	2915157	WORD	n/a	wordpools/wordpool_EN.txt	LIP	3	21	[0, 0, 0]	n/a	FR1	0	R1202M
2907.681	0.85	2916774	WORD_OFF	n/a	n/a	LIP	3	21	[0, 0, 0]	n/a	FR1	0	R1202M
2908.531	1.617	2917624	WORD	n/a	wordpools/wordpool_EN.txt	PIG	4	21	[0, 0, 0]	n/a	FR1	0	R1202M
2910.148	0.917	2919241	WORD_OFF	n/a	n/a	PIG	4	21	[0, 0, 0]	n/a	FR1	0	R1202M
2911.065	1.617	2920158	WORD	n/a	wordpools/wordpool_EN.txt	TOY	5	21	[0, 0, 0]	n/a	FR1	0	R1202M
2912.682	0.816	2921775	WORD_OFF	n/a	n/a	TOY	5	21	[0, 0, 0]	n/a	FR1	0	R1202M
2913.498	1.617	2922591	WORD	n/a	wordpools/wordpool_EN.txt	ICE	6	21	[0, 0, 0]	n/a	FR1	0	R1202M
2915.115	0.866	2924208	WORD_OFF	n/a	n/a	ICE	6	21	[0, 0, 0]	n/a	FR1	0	R1202M
2915.981	1.601	2925074	WORD	n/a	wordpools/wordpool_EN.txt	POND	7	21	[0, 0, 0]	n/a	FR1	0	R1202M
2917.582	0.934	2926675	WORD_OFF	n/a	n/a	POND	7	21	[0, 0, 0]	n/a	FR1	0	R1202M
2918.516	1.617	2927609	WORD	n/a	wordpools/wordpool_EN.txt	WORM	8	21	[0, 0, 0]	n/a	FR1	0	R1202M
2920.133	0.799	2929226	WORD_OFF	n/a	n/a	WORM	8	21	[0, 0, 0]	n/a	FR1	0	R1202M
2920.932	1.618	2930025	WORD	n/a	wordpools/wordpool_EN.txt	CAKE	9	21	[0, 0, 0]	n/a	FR1	0	R1202M
2922.55	0.967	2931643	WORD_OFF	n/a	n/a	CAKE	9	21	[0, 0, 0]	n/a	FR1	0	R1202M
2923.517	1.617	2932609	WORD	n/a	wordpools/wordpool_EN.txt	GEESE	10	21	[0, 0, 0]	n/a	FR1	0	R1202M
2925.134	0.866	2934226	WORD_OFF	n/a	n/a	GEESE	10	21	[0, 0, 0]	n/a	FR1	0	R1202M
2926.0	1.601	2935092	WORD	n/a	wordpools/wordpool_EN.txt	STOVE	11	21	[0, 0, 0]	n/a	FR1	0	R1202M
2927.601	0.85	2936693	WORD_OFF	n/a	n/a	STOVE	11	21	[0, 0, 0]	n/a	FR1	0	R1202M
2928.451	1.617	2937543	WORD	n/a	wordpools/wordpool_EN.txt	CART	12	21	[0, 0, 0]	n/a	FR1	0	R1202M
2930.068	0.0	2939160	WORD_OFF	n/a	n/a	CART	12	21	[0, 0, 0]	n/a	FR1	0	R1202M
2930.068	0.001	2939160	DISTRACT_START	n/a	n/a	n/a	-999	21	[0, 0, 0]	n/a	FR1	0	R1202M
2930.069	0.016	2939161	START	n/a	n/a	n/a	-999	21	[-999, -999, -999]	n/a	FR1	0	R1202M
2930.085	6.235	2939177	PROB	6.235	n/a	n/a	-999	21	[8, 3, 9]	20	FR1	0	R1202M
2936.32	4.951	2945412	PROB	4.951	n/a	n/a	-999	21	[6, 3, 1]	10	FR1	0	R1202M
2941.271	4.483	2950363	PROB	4.483	n/a	n/a	-999	21	[7, 7, 1]	15	FR1	0	R1202M
2945.754	5.027	2954845	PROB	5.027	n/a	n/a	-999	21	[9, 1, 9]	19	FR1	0	R1202M
2950.781	0.007	2959872	STOP	n/a	n/a	n/a	-999	21	[-999, -999, -999]	n/a	FR1	0	R1202M
2950.788	0.634	2959879	DISTRACT_END	n/a	n/a	n/a	-999	21	[0, 0, 0]	n/a	FR1	0	R1202M
2951.422	0.517	2960513	RETRIEVAL_ORIENT	n/a	n/a	n/a	-999	21	[0, 0, 0]	n/a	FR1	0	R1202M
2951.939	1.707	2961030	REC_START	n/a	n/a	n/a	-999	21	[0, 0, 0]	n/a	FR1	0	R1202M
2953.646	2.731	2962737	REC_WORD	2.731	n/a	STOVE	-999	21	[0, 0, 0]	n/a	FR1	0	R1202M
2956.377	24.717	2965468	REC_WORD	24.717	n/a	POT	-999	21	[0, 0, 0]	n/a	FR1	0	R1202M
2981.094	0.857	2990183	REC_WORD	0.857	n/a	HEAT	-999	21	[0, 0, 0]	n/a	FR1	0	R1202M
2981.951	27.782	2991040	REC_END	n/a	n/a	n/a	-999	21	[0, 0, 0]	n/a	FR1	0	R1202M
3009.733	0.5	3018821	TRIAL	n/a	n/a	n/a	-999	22	[0, 0, 0]	n/a	FR1	0	R1202M
3010.233	10.428	3019321	COUNTDOWN_START	n/a	n/a	n/a	-999	22	[0, 0, 0]	n/a	FR1	0	R1202M
3020.661	0.008	3029748	COUNTDOWN_END	n/a	n/a	n/a	-999	22	[0, 0, 0]	n/a	FR1	0	R1202M
3020.669	1.617	3029756	ORIENT	n/a	n/a	n/a	-999	22	[0, 0, 0]	n/a	FR1	0	R1202M
3022.286	2.234	3031373	ORIENT_OFF	n/a	n/a	n/a	-999	22	[0, 0, 0]	n/a	FR1	0	R1202M
3024.52	1.617	3033607	WORD	n/a	wordpools/wordpool_EN.txt	RICE	1	22	[0, 0, 0]	n/a	FR1	0	R1202M
3026.137	0.866	3035224	WORD_OFF	n/a	n/a	RICE	1	22	[0, 0, 0]	n/a	FR1	0	R1202M
3027.003	1.618	3036090	WORD	n/a	wordpools/wordpool_EN.txt	OAR	2	22	[0, 0, 0]	n/a	FR1	0	R1202M
3028.621	0.917	3037708	WORD_OFF	n/a	n/a	OAR	2	22	[0, 0, 0]	n/a	FR1	0	R1202M
3029.538	1.617	3038625	WORD	n/a	wordpools/wordpool_EN.txt	FRUIT	3	22	[0, 0, 0]	n/a	FR1	0	R1202M
3031.155	0.916	3040242	WORD_OFF	n/a	n/a	FRUIT	3	22	[0, 0, 0]	n/a	FR1	0	R1202M
3032.071	1.616	3041157	WORD	n/a	wordpools/wordpool_EN.txt	DUCK	4	22	[0, 0, 0]	n/a	FR1	0	R1202M
3033.687	0.868	3042773	WORD_OFF	n/a	n/a	DUCK	4	22	[0, 0, 0]	n/a	FR1	0	R1202M
3034.555	1.617	3043641	WORD	n/a	wordpools/wordpool_EN.txt	PLANT	5	22	[0, 0, 0]	n/a	FR1	0	R1202M
3036.172	0.816	3045258	WORD_OFF	n/a	n/a	PLANT	5	22	[0, 0, 0]	n/a	FR1	0	R1202M
3036.988	1.601	3046074	WORD	n/a	wordpools/wordpool_EN.txt	CAVE	6	22	[0, 0, 0]	n/a	FR1	0	R1202M
3038.589	0.851	3047675	WORD_OFF	n/a	n/a	CAVE	6	22	[0, 0, 0]	n/a	FR1	0	R1202M
3039.44	1.617	3048526	WORD	n/a	wordpools/wordpool_EN.txt	BARN	7	22	[0, 0, 0]	n/a	FR1	0	R1202M
3041.057	0.915	3050143	WORD_OFF	n/a	n/a	BARN	7	22	[0, 0, 0]	n/a	FR1	0	R1202M
3041.972	1.618	3051058	WORD	n/a	wordpools/wordpool_EN.txt	MUG	8	22	[0, 0, 0]	n/a	FR1	0	R1202M
3043.59	0.801	3052676	WORD_OFF	n/a	n/a	MUG	8	22	[0, 0, 0]	n/a	FR1	0	R1202M
3044.391	1.615	3053477	WORD	n/a	wordpools/wordpool_EN.txt	RAT	9	22	[0, 0, 0]	n/a	FR1	0	R1202M
3046.006	0.917	3055092	WORD_OFF	n/a	n/a	RAT	9	22	[0, 0, 0]	n/a	FR1	0	R1202M
3046.923	1.602	3056009	WORD	n/a	wordpools/wordpool_EN.txt	STONE	10	22	[0, 0, 0]	n/a	FR1	0	R1202M
3048.525	0.983	3057611	WORD_OFF	n/a	n/a	STONE	10	22	[0, 0, 0]	n/a	FR1	0	R1202M
3049.508	1.617	3058593	WORD	n/a	wordpools/wordpool_EN.txt	STRAW	11	22	[0, 0, 0]	n/a	FR1	0	R1202M
3051.125	0.899	3060210	WORD_OFF	n/a	n/a	STRAW	11	22	[0, 0, 0]	n/a	FR1	0	R1202M
3052.024	1.601	3061109	WORD	n/a	wordpools/wordpool_EN.txt	CAT	12	22	[0, 0, 0]	n/a	FR1	0	R1202M
3053.625	0.0	3062710	WORD_OFF	n/a	n/a	CAT	12	22	[0, 0, 0]	n/a	FR1	0	R1202M
3053.625	0.001	3062710	DISTRACT_START	n/a	n/a	n/a	-999	22	[0, 0, 0]	n/a	FR1	0	R1202M
3053.626	0.016	3062711	START	n/a	n/a	n/a	-999	22	[-999, -999, -999]	n/a	FR1	0	R1202M
3053.642	5.935	3062727	PROB	5.935	n/a	n/a	-999	22	[7, 3, 8]	18	FR1	0	R1202M
3059.577	5.084	3068662	PROB	5.084	n/a	n/a	-999	22	[5, 4, 6]	15	FR1	0	R1202M
3064.661	5.183	3073746	PROB	5.183	n/a	n/a	-999	22	[4, 3, 1]	8	FR1	0	R1202M
3069.844	7.976	3078928	PROB	7.976	n/a	n/a	-999	22	[9, 7, 8]	24	FR1	0	R1202M
3077.82	0.009	3086904	STOP	n/a	n/a	n/a	-999	22	[-999, -999, -999]	n/a	FR1	0	R1202M
3077.829	0.601	3086913	DISTRACT_END	n/a	n/a	n/a	-999	22	[0, 0, 0]	n/a	FR1	0	R1202M
3078.43	0.517	3087514	RETRIEVAL_ORIENT	n/a	n/a	n/a	-999	22	[0, 0, 0]	n/a	FR1	0	R1202M
3078.947	2.424	3088031	REC_START	n/a	n/a	n/a	-999	22	[0, 0, 0]	n/a	FR1	0	R1202M
3081.371	16.032	3090455	REC_WORD	16.032	n/a	CAT	-999	22	[0, 0, 0]	n/a	FR1	0	R1202M
3097.403	8.456	3106486	REC_WORD	8.456	n/a	STONE	-999	22	[0, 0, 0]	n/a	FR1	0	R1202M
3105.859	3.099	3114941	REC_WORD	3.099	n/a	OAR	-999	22	[0, 0, 0]	n/a	FR1	0	R1202M
3108.958	5.995	3118040	REC_END	n/a	n/a	n/a	-999	22	[0, 0, 0]	n/a	FR1	0	R1202M
3114.953	0.5	3124035	TRIAL	n/a	n/a	n/a	-999	23	[0, 0, 0]	n/a	FR1	0	R1202M
3115.453	10.428	3124535	COUNTDOWN_START	n/a	n/a	n/a	-999	23	[0, 0, 0]	n/a	FR1	0	R1202M
3125.881	0.008	3134962	COUNTDOWN_END	n/a	n/a	n/a	-999	23	[0, 0, 0]	n/a	FR1	0	R1202M
3125.889	1.618	3134970	ORIENT	n/a	n/a	n/a	-999	23	[0, 0, 0]	n/a	FR1	0	R1202M
3127.507	2.216	3136588	ORIENT_OFF	n/a	n/a	n/a	-999	23	[0, 0, 0]	n/a	FR1	0	R1202M
3129.723	1.618	3138804	WORD	n/a	wordpools/wordpool_EN.txt	SNOW	1	23	[0, 0, 0]	n/a	FR1	0	R1202M
3131.341	0.85	3140422	WORD_OFF	n/a	n/a	SNOW	1	23	[0, 0, 0]	n/a	FR1	0	R1202M
3132.191	1.616	3141272	WORD	n/a	wordpools/wordpool_EN.txt	PEARL	2	23	[0, 0, 0]	n/a	FR1	0	R1202M
3133.807	0.784	3142888	WORD_OFF	n/a	n/a	PEARL	2	23	[0, 0, 0]	n/a	FR1	0	R1202M
3134.591	1.617	3143672	WORD	n/a	wordpools/wordpool_EN.txt	INK	3	23	[0, 0, 0]	n/a	FR1	0	R1202M
3136.208	0.934	3145289	WORD_OFF	n/a	n/a	INK	3	23	[0, 0, 0]	n/a	FR1	0	R1202M
3137.142	1.616	3146223	WORD	n/a	wordpools/wordpool_EN.txt	CLOCK	4	23	[0, 0, 0]	n/a	FR1	0	R1202M
3138.758	0.801	3147839	WORD_OFF	n/a	n/a	CLOCK	4	23	[0, 0, 0]	n/a	FR1	0	R1202M
3139.559	1.617	3148639	WORD	n/a	wordpools/wordpool_EN.txt	MOLE	5	23	[0, 0, 0]	n/a	FR1	0	R1202M
3141.176	0.967	3150256	WORD_OFF	n/a	n/a	MOLE	5	23	[0, 0, 0]	n/a	FR1	0	R1202M
3142.143	1.616	3151223	WORD	n/a	wordpools/wordpool_EN.txt	COIN	6	23	[0, 0, 0]	n/a	FR1	0	R1202M
3143.759	0.801	3152839	WORD_OFF	n/a	n/a	COIN	6	23	[0, 0, 0]	n/a	FR1	0	R1202M
3144.56	1.617	3153640	WORD	n/a	wordpools/wordpool_EN.txt	FLUTE	7	23	[0, 0, 0]	n/a	FR1	0	R1202M
3146.177	0.866	3155257	WORD_OFF	n/a	n/a	FLUTE	7	23	[0, 0, 0]	n/a	FR1	0	R1202M
3147.043	1.618	3156123	WORD	n/a	wordpools/wordpool_EN.txt	PHONE	8	23	[0, 0, 0]	n/a	FR1	0	R1202M
3148.661	0.967	3157741	WORD_OFF	n/a	n/a	PHONE	8	23	[0, 0, 0]	n/a	FR1	0	R1202M
3149.628	1.616	3158708	WORD	n/a	wordpools/wordpool_EN.txt	BOOK	9	23	[0, 0, 0]	n/a	FR1	0	R1202M
3151.244	0.884	3160324	WORD_OFF	n/a	n/a	BOOK	9	23	[0, 0, 0]	n/a	FR1	0	R1202M
3152.128	1.616	3161208	WORD	n/a	wordpools/wordpool_EN.txt	MOTH	10	23	[0, 0, 0]	n/a	FR1	0	R1202M
3153.744	0.784	3162824	WORD_OFF	n/a	n/a	MOTH	10	23	[0, 0, 0]	n/a	FR1	0	R1202M
3154.528	1.618	3163608	WORD	n/a	wordpools/wordpool_EN.txt	STORE	11	23	[0, 0, 0]	n/a	FR1	0	R1202M
3156.146	1.0	3165226	WORD_OFF	n/a	n/a	STORE	11	23	[0, 0, 0]	n/a	FR1	0	R1202M
3157.146	1.616	3166225	WORD	n/a	wordpools/wordpool_EN.txt	TOAD	12	23	[0, 0, 0]	n/a	FR1	0	R1202M
3158.762	0.0	3167841	WORD_OFF	n/a	n/a	TOAD	12	23	[0, 0, 0]	n/a	FR1	0	R1202M
3158.762	0.0	3167841	DISTRACT_START	n/a	n/a	n/a	-999	23	[0, 0, 0]	n/a	FR1	0	R1202M
3158.762	0.016	3167841	START	n/a	n/a	n/a	-999	23	[-999, -999, -999]	n/a	FR1	0	R1202M
3158.778	5.752	3167857	PROB	5.752	n/a	n/a	-999	23	[5, 6, 3]	14	FR1	0	R1202M
3164.53	5.135	3173609	PROB	5.135	n/a	n/a	-999	23	[4, 4, 8]	16	FR1	0	R1202M
3169.665	4.901	3178744	PROB	4.901	n/a	n/a	-999	23	[2, 9, 6]	17	FR1	0	R1202M
3174.566	5.847	3183645	PROB	5.847	n/a	n/a	-999	23	[5, 9, 8]	22	FR1	0	R1202M
3180.413	0.021	3189491	STOP	n/a	n/a	n/a	-999	23	[-999, -999, -999]	n/a	FR1	0	R1202M
3180.434	0.699	3189512	DISTRACT_END	n/a	n/a	n/a	-999	23	[0, 0, 0]	n/a	FR1	0	R1202M
3181.133	0.518	3190211	RETRIEVAL_ORIENT	n/a	n/a	n/a	-999	23	[0, 0, 0]	n/a	FR1	0	R1202M
3181.651	28.165	3190729	REC_START	n/a	n/a	n/a	-999	23	[0, 0, 0]	n/a	FR1	0	R1202M
3209.816	1.847	3218893	REC_WORD_VV	1.847	n/a	<>	-999	23	[0, 0, 0]	n/a	FR1	0	R1202M
3211.663	15.345	3220739	REC_END	n/a	n/a	n/a	-999	23	[0, 0, 0]	n/a	FR1	0	R1202M
3227.008	0.5	3236084	TRIAL	n/a	n/a	n/a	-999	24	[0, 0, 0]	n/a	FR1	0	R1202M
3227.508	10.428	3236584	COUNTDOWN_START	n/a	n/a	n/a	-999	24	[0, 0, 0]	n/a	FR1	0	R1202M
3237.936	0.008	3247011	COUNTDOWN_END	n/a	n/a	n/a	-999	24	[0, 0, 0]	n/a	FR1	0	R1202M
3237.944	1.618	3247019	ORIENT	n/a	n/a	n/a	-999	24	[0, 0, 0]	n/a	FR1	0	R1202M
3239.562	2.083	3248637	ORIENT_OFF	n/a	n/a	n/a	-999	24	[0, 0, 0]	n/a	FR1	0	R1202M
3241.645	1.617	3250720	WORD	n/a	wordpools/wordpool_EN.txt	SNAIL	1	24	[0, 0, 0]	n/a	FR1	0	R1202M
3243.262	0.917	3252337	WORD_OFF	n/a	n/a	SNAIL	1	24	[0, 0, 0]	n/a	FR1	0	R1202M
3244.179	1.616	3253254	WORD	n/a	wordpools/wordpool_EN.txt	DOG	2	24	[0, 0, 0]	n/a	FR1	0	R1202M
3245.795	0.818	3254870	WORD_OFF	n/a	n/a	DOG	2	24	[0, 0, 0]	n/a	FR1	0	R1202M
3246.613	1.617	3255688	WORD	n/a	wordpools/wordpool_EN.txt	OWL	3	24	[0, 0, 0]	n/a	FR1	0	R1202M
3248.23	1.017	3257304	WORD_OFF	n/a	n/a	OWL	3	24	[0, 0, 0]	n/a	FR1	0	R1202M
3249.247	1.616	3258321	WORD	n/a	wordpools/wordpool_EN.txt	NEST	4	24	[0, 0, 0]	n/a	FR1	0	R1202M
3250.863	1.0	3259937	WORD_OFF	n/a	n/a	NEST	4	24	[0, 0, 0]	n/a	FR1	0	R1202M
3251.863	1.618	3260937	WORD	n/a	wordpools/wordpool_EN.txt	FOX	5	24	[0, 0, 0]	n/a	FR1	0	R1202M
3253.481	0.884	3262555	WORD_OFF	n/a	n/a	FOX	5	24	[0, 0, 0]	n/a	FR1	0	R1202M
3254.365	1.616	3263439	WORD	n/a	wordpools/wordpool_EN.txt	ARK	6	24	[0, 0, 0]	n/a	FR1	0	R1202M
3255.981	0.833	3265055	WORD_OFF	n/a	n/a	ARK	6	24	[0, 0, 0]	n/a	FR1	0	R1202M
3256.814	1.601	3265888	WORD	n/a	wordpools/wordpool_EN.txt	ANT	7	24	[0, 0, 0]	n/a	FR1	0	R1202M
3258.415	0.767	3267489	WORD_OFF	n/a	n/a	ANT	7	24	[0, 0, 0]	n/a	FR1	0	R1202M
3259.182	1.616	3268256	WORD	n/a	wordpools/wordpool_EN.txt	LAMB	8	24	[0, 0, 0]	n/a	FR1	0	R1202M
3260.798	0.835	3269872	WORD_OFF	n/a	n/a	LAMB	8	24	[0, 0, 0]	n/a	FR1	0	R1202M
3261.633	1.617	3270707	WORD	n/a	wordpools/wordpool_EN.txt	BEAN	9	24	[0, 0, 0]	n/a	FR1	0	R1202M
3263.25	0.866	3272324	WORD_OFF	n/a	n/a	BEAN	9	24	[0, 0, 0]	n/a	FR1	0	R1202M
3264.116	1.616	3273190	WORD	n/a	wordpools/wordpool_EN.txt	WOLF	10	24	[0, 0, 0]	n/a	FR1	0	R1202M
3265.732	0.768	3274805	WORD_OFF	n/a	n/a	WOLF	10	24	[0, 0, 0]	n/a	FR1	0	R1202M
3266.5	1.617	3275573	WORD	n/a	wordpools/wordpool_EN.txt	FLEA	11	24	[0, 0, 0]	n/a	FR1	0	R1202M
3268.117	0.899	3277190	WORD_OFF	n/a	n/a	FLEA	11	24	[0, 0, 0]	n/a	FR1	0	R1202M
3269.016	1.601	3278089	WORD	n/a	wordpools/wordpool_EN.txt	MOUSE	12	24	[0, 0, 0]	n/a	FR1	0	R1202M
3270.617	0.0	3279690	WORD_OFF	n/a	n/a	MOUSE	12	24	[0, 0, 0]	n/a	FR1	0	R1202M
3270.617	0.001	3279690	DISTRACT_START	n/a	n/a	n/a	-999	24	[0, 0, 0]	n/a	FR1	0	R1202M
3270.618	0.016	3279691	START	n/a	n/a	n/a	-999	24	[-999, -999, -999]	n/a	FR1	0	R1202M
3270.634	6.25	3279707	PROB	6.25	n/a	n/a	-999	24	[4, 4, 7]	15	FR1	0	R1202M
3276.884	10.17	3285957	PROB	10.17	n/a	n/a	-999	24	[9, 8, 9]	26	FR1	0	R1202M
3287.054	5.024	3296126	PROB	5.024	n/a	n/a	-999	24	[2, 9, 9]	20	FR1	0	R1202M
3292.078	0.011	3301150	STOP	n/a	n/a	n/a	-999	24	[-999, -999, -999]	n/a	FR1	0	R1202M
3292.089	0.649	3301161	DISTRACT_END	n/a	n/a	n/a	-999	24	[0, 0, 0]	n/a	FR1	0	R1202M
3292.738	0.518	3301810	RETRIEVAL_ORIENT	n/a	n/a	n/a	-999	24	[0, 0, 0]	n/a	FR1	0	R1202M
3293.256	2.303	3302328	REC_START	n/a	n/a	n/a	-999	24	[0, 0, 0]	n/a	FR1	0	R1202M
3295.559	3.179	3304631	REC_WORD	3.179	n/a	MOUSE	-999	24	[0, 0, 0]	n/a	FR1	0	R1202M
3298.738	3.624	3307810	REC_WORD	3.624	n/a	ANT	-999	24	[0, 0, 0]	n/a	FR1	0	R1202M
3302.362	20.906	3311433	REC_WORD	20.906	n/a	FLEA	-999	24	[0, 0, 0]	n/a	FR1	0	R1202M
3323.268	6.211	3332338	REC_END	n/a	n/a	n/a	-999	24	[0, 0, 0]	n/a	FR1	0	R1202M
3329.479	0.5	3338549	TRIAL	n/a	n/a	n/a	-999	25	[0, 0, 0]	n/a	FR1	0	R1202M
3329.979	10.428	3339049	COUNTDOWN_START	n/a	n/a	n/a	-999	25	[0, 0, 0]	n/a	FR1	0	R1202M
3340.407	0.008	3349476	COUNTDOWN_END	n/a	n/a	n/a	-999	25	[0, 0, 0]	n/a	FR1	0	R1202M
3340.415	1.615	3349484	ORIENT	n/a	n/a	n/a	-999	25	[0, 0, 0]	n/a	FR1	0	R1202M
3342.03	2.169	3351099	ORIENT_OFF	n/a	n/a	n/a	-999	25	[0, 0, 0]	n/a	FR1	0	R1202M
3344.199	1.615	3353268	WORD	n/a	wordpools/wordpool_EN.txt	HAT	1	25	[0, 0, 0]	n/a	FR1	0	R1202M
3345.814	0.984	3354883	WORD_OFF	n/a	n/a	HAT	1	25	[0, 0, 0]	n/a	FR1	0	R1202M
3346.798	1.601	3355867	WORD	n/a	wordpools/wordpool_EN.txt	HORN	2	25	[0, 0, 0]	n/a	FR1	0	R1202M
3348.399	0.817	3357468	WORD_OFF	n/a	n/a	HORN	2	25	[0, 0, 0]	n/a	FR1	0	R1202M
3349.216	1.616	3358285	WORD	n/a	wordpools/wordpool_EN.txt	HILL	3	25	[0, 0, 0]	n/a	FR1	0	R1202M
3350.832	0.835	3359901	WORD_OFF	n/a	n/a	HILL	3	25	[0, 0, 0]	n/a	FR1	0	R1202M
3351.667	1.617	3360736	WORD	n/a	wordpools/wordpool_EN.txt	TEA	4	25	[0, 0, 0]	n/a	FR1	0	R1202M
3353.284	0.8	3362353	WORD_OFF	n/a	n/a	TEA	4	25	[0, 0, 0]	n/a	FR1	0	R1202M
3354.084	1.616	3363153	WORD	n/a	wordpools/wordpool_EN.txt	FOOT	5	25	[0, 0, 0]	n/a	FR1	0	R1202M
3355.7	0.934	3364768	WORD_OFF	n/a	n/a	FOOT	5	25	[0, 0, 0]	n/a	FR1	0	R1202M
3356.634	1.617	3365702	WORD	n/a	wordpools/wordpool_EN.txt	GOAT	6	25	[0, 0, 0]	n/a	FR1	0	R1202M
3358.251	0.984	3367319	WORD_OFF	n/a	n/a	GOAT	6	25	[0, 0, 0]	n/a	FR1	0	R1202M
3359.235	1.616	3368303	WORD	n/a	wordpools/wordpool_EN.txt	CHAIR	7	25	[0, 0, 0]	n/a	FR1	0	R1202M
3360.851	0.933	3369919	WORD_OFF	n/a	n/a	CHAIR	7	25	[0, 0, 0]	n/a	FR1	0	R1202M
3361.784	1.601	3370852	WORD	n/a	wordpools/wordpool_EN.txt	SIGN	8	25	[0, 0, 0]	n/a	FR1	0	R1202M
3363.385	0.967	3372453	WORD_OFF	n/a	n/a	SIGN	8	25	[0, 0, 0]	n/a	FR1	0	R1202M
3364.352	1.616	3373420	WORD	n/a	wordpools/wordpool_EN.txt	STEAK	9	25	[0, 0, 0]	n/a	FR1	0	R1202M
3365.968	0.851	3375036	WORD_OFF	n/a	n/a	STEAK	9	25	[0, 0, 0]	n/a	FR1	0	R1202M
3366.819	1.618	3375887	WORD	n/a	wordpools/wordpool_EN.txt	SHARK	10	25	[0, 0, 0]	n/a	FR1	0	R1202M
3368.437	0.95	3377505	WORD_OFF	n/a	n/a	SHARK	10	25	[0, 0, 0]	n/a	FR1	0	R1202M
3369.387	1.616	3378455	WORD	n/a	wordpools/wordpool_EN.txt	FORK	11	25	[0, 0, 0]	n/a	FR1	0	R1202M
3371.003	0.817	3380071	WORD_OFF	n/a	n/a	FORK	11	25	[0, 0, 0]	n/a	FR1	0	R1202M
3371.82	1.618	3380888	WORD	n/a	wordpools/wordpool_EN.txt	TRUCK	12	25	[0, 0, 0]	n/a	FR1	0	R1202M
3373.438	0.0	3382505	WORD_OFF	n/a	n/a	TRUCK	12	25	[0, 0, 0]	n/a	FR1	0	R1202M
3373.438	0.0	3382505	DISTRACT_START	n/a	n/a	n/a	-999	25	[0, 0, 0]	n/a	FR1	0	R1202M
3373.438	0.016	3382505	START	n/a	n/a	n/a	-999	25	[-999, -999, -999]	n/a	FR1	0	R1202M
3373.454	4.884	3382521	PROB	4.884	n/a	n/a	-999	25	[5, 4, 2]	11	FR1	0	R1202M
3378.338	4.251	3387405	PROB	4.251	n/a	n/a	-999	25	[6, 2, 3]	11	FR1	0	R1202M
3382.589	6.384	3391656	PROB	6.384	n/a	n/a	-999	25	[9, 7, 2]	18	FR1	0	R1202M
3388.973	5.705	3398040	PROB	5.705	n/a	n/a	-999	25	[3, 7, 8]	18	FR1	0	R1202M
3394.678	0.013	3403744	STOP	n/a	n/a	n/a	-999	25	[-999, -999, -999]	n/a	FR1	0	R1202M
3394.691	0.551	3403757	DISTRACT_END	n/a	n/a	n/a	-999	25	[0, 0, 0]	n/a	FR1	0	R1202M
3395.242	0.516	3404308	RETRIEVAL_ORIENT	n/a	n/a	n/a	-999	25	[0, 0, 0]	n/a	FR1	0	R1202M
3395.758	2.737	3404824	REC_START	n/a	n/a	n/a	-999	25	[0, 0, 0]	n/a	FR1	0	R1202M
3398.495	4.611	3407561	REC_WORD	4.611	n/a	TRUCK	-999	25	[0, 0, 0]	n/a	FR1	0	R1202M
3403.106	8.376	3412172	REC_WORD	8.376	n/a	HILL	-999	25	[0, 0, 0]	n/a	FR1	0	R1202M
3411.482	3.94	3420547	REC_WORD	3.94	n/a	HAT	-999	25	[0, 0, 0]	n/a	FR1	0	R1202M
3415.422	10.348	3424487	REC_WORD	10.348	n/a	TEA	-999	25	[0, 0, 0]	n/a	FR1	0	R1202M
3425.77	44.235	3434835	REC_END	n/a	n/a	n/a	-999	25	[0, 0, 0]	n/a	FR1	0	R1202M
3470.005	0.0	3479067	SESS_END	n/a	n/a	n/a	-999	25	[0, 0, 0]	n/a	FR1	0	R1202M
