onset	duration	sample	trial_type	response_time	stim_file	item_name	serialpos	list	test	answer	experiment	session	subject
0.0	73.374	122263	SESS_START	n/a	n/a	n/a	-999	-999	[0, 0, 0]	n/a	FR1	1	R1006P
73.374	10.428	158949	COUNTDOWN_START	n/a	n/a	n/a	-999	-999	[0, 0, 0]	n/a	FR1	1	R1006P
83.802	3.992	164162	COUNTDOWN_END	n/a	n/a	n/a	-999	-999	[0, 0, 0]	n/a	FR1	1	R1006P
87.794	2.4	166158	PRACTICE_WORD	n/a	n/a	FLOOD	1	-1	[0, 0, 0]	n/a	FR1	1	R1006P
90.194	2.435	167358	PRACTICE_WORD	n/a	n/a	WATCH	2	-1	[0, 0, 0]	n/a	FR1	1	R1006P
92.629	2.516	168576	PRACTICE_WORD	n/a	n/a	TONGUE	3	-1	[0, 0, 0]	n/a	FR1	1	R1006P
95.145	2.435	169833	PRACTICE_WORD	n/a	n/a	RING	4	-1	[0, 0, 0]	n/a	FR1	1	R1006P
97.58	2.566	171051	PRACTICE_WORD	n/a	n/a	IRON	5	-1	[0, 0, 0]	n/a	FR1	1	R1006P
100.146	2.6	172334	PRACTICE_WORD	n/a	n/a	BEAM	6	-1	[0, 0, 0]	n/a	FR1	1	R1006P
102.746	2.401	173634	PRACTICE_WORD	n/a	n/a	CAMEL	7	-1	[0, 0, 0]	n/a	FR1	1	R1006P
105.147	2.583	174834	PRACTICE_WORD	n/a	n/a	ATTIC	8	-1	[0, 0, 0]	n/a	FR1	1	R1006P
107.73	2.451	176126	PRACTICE_WORD	n/a	n/a	RHINO	9	-1	[0, 0, 0]	n/a	FR1	1	R1006P
110.181	2.385	177351	PRACTICE_WORD	n/a	n/a	CHEST	10	-1	[0, 0, 0]	n/a	FR1	1	R1006P
112.566	2.549	178544	PRACTICE_WORD	n/a	n/a	COTTON	11	-1	[0, 0, 0]	n/a	FR1	1	R1006P
115.115	1.617	179818	PRACTICE_WORD	n/a	n/a	WAGON	12	-1	[0, 0, 0]	n/a	FR1	1	R1006P
116.732	0.001	180626	PRACTICE_DISTRACT_START	n/a	n/a	n/a	-999	-1	[0, 0, 0]	n/a	FR1	1	R1006P
116.733	0.016	180627	START	n/a	n/a	n/a	-999	1	[-999, -999, -999]	n/a	FR1	1	R1006P
116.749	5.601	180635	PROB	5.601	n/a	n/a	-999	1	[3, 4, 3]	10	FR1	1	R1006P
122.35	7.051	183435	PROB	7.051	n/a	n/a	-999	1	[9, 4, 6]	19	FR1	1	R1006P
129.401	8.251	186961	PROB	8.251	n/a	n/a	-999	1	[8, 7, 4]	19	FR1	1	R1006P
137.652	0.018	191086	STOP	n/a	n/a	n/a	-999	1	[-999, -999, -999]	n/a	FR1	1	R1006P
137.67	0.635	191095	PRACTICE_DISTRACT_END	n/a	n/a	n/a	-999	-1	[0, 0, 0]	n/a	FR1	1	R1006P
138.305	30.515	191412	PRACTICE_REC_START	n/a	n/a	n/a	-999	-1	[0, 0, 0]	n/a	FR1	1	R1006P
168.82	13.608	206669	PRACTICE_REC_END	n/a	n/a	n/a	-999	-1	[0, 0, 0]	n/a	FR1	1	R1006P
182.428	0.0	213473	TRIAL	n/a	n/a	n/a	-999	1	[0, 0, 0]	n/a	FR1	1	R1006P
182.428	10.428	213473	COUNTDOWN_START	n/a	n/a	n/a	-999	1	[0, 0, 0]	n/a	FR1	1	R1006P
192.856	0.007	218687	COUNTDOWN_END	n/a	n/a	n/a	-999	1	[0, 0, 0]	n/a	FR1	1	R1006P
192.863	2.518	218690	ORIENT	n/a	n/a	n/a	-999	1	[0, 0, 0]	n/a	FR1	1	R1006P
195.381	2.533	219949	WORD	n/a	wordpools/wordpool_EN.txt	ROSE	1	1	[0, 0, 0]	n/a	FR1	1	R1006P
197.914	2.384	221215	WORD	n/a	wordpools/wordpool_EN.txt	FLAG	2	1	[0, 0, 0]	n/a	FR1	1	R1006P
200.298	2.467	222407	WORD	n/a	wordpools/wordpool_EN.txt	WHEEL	3	1	[0, 0, 0]	n/a	FR1	1	R1006P
202.765	2.567	223641	WORD	n/a	wordpools/wordpool_EN.txt	WORLD	4	1	[0, 0, 0]	n/a	FR1	1	R1006P
205.332	2.534	224924	WORD	n/a	wordpools/wordpool_EN.txt	SPOON	5	1	[0, 0, 0]	n/a	FR1	1	R1006P
207.866	2.501	226191	WORD	n/a	wordpools/wordpool_EN.txt	CAKE	6	1	[0, 0, 0]	n/a	FR1	1	R1006P
210.367	2.383	227442	WORD	n/a	wordpools/wordpool_EN.txt	YARD	7	1	[0, 0, 0]	n/a	FR1	1	R1006P
212.75	2.484	228633	WORD	n/a	wordpools/wordpool_EN.txt	DOCK	8	1	[0, 0, 0]	n/a	FR1	1	R1006P
215.234	2.467	229875	WORD	n/a	wordpools/wordpool_EN.txt	KEY	9	1	[0, 0, 0]	n/a	FR1	1	R1006P
217.701	2.401	231108	WORD	n/a	wordpools/wordpool_EN.txt	TOOL	10	1	[0, 0, 0]	n/a	FR1	1	R1006P
220.102	2.501	232309	WORD	n/a	wordpools/wordpool_EN.txt	STRING	11	1	[0, 0, 0]	n/a	FR1	1	R1006P
222.603	1.616	233559	WORD	n/a	wordpools/wordpool_EN.txt	HOSE	12	1	[0, 0, 0]	n/a	FR1	1	R1006P
224.219	0.001	234367	DISTRACT_START	n/a	n/a	n/a	-999	1	[0, 0, 0]	n/a	FR1	1	R1006P
224.22	0.016	234368	START	n/a	n/a	n/a	-999	2	[-999, -999, -999]	n/a	FR1	1	R1006P
224.236	7.485	234376	PROB	7.485	n/a	n/a	-999	2	[8, 3, 6]	17	FR1	1	R1006P
231.721	4.951	238118	PROB	4.951	n/a	n/a	-999	2	[6, 5, 5]	16	FR1	1	R1006P
236.672	5.251	240593	PROB	5.251	n/a	n/a	-999	2	[5, 3, 9]	17	FR1	1	R1006P
241.923	6.809	243219	PROB	6.809	n/a	n/a	-999	2	[4, 2, 7]	13	FR1	1	R1006P
248.732	0.009	246623	STOP	n/a	n/a	n/a	-999	2	[-999, -999, -999]	n/a	FR1	1	R1006P
248.741	1.067	246628	DISTRACT_END	n/a	n/a	n/a	-999	1	[0, 0, 0]	n/a	FR1	1	R1006P
249.808	2.738	247161	REC_START	n/a	n/a	n/a	-999	1	[0, 0, 0]	n/a	FR1	1	R1006P
252.546	0.911	248530	REC_WORD_VV	0.911	n/a	<>	-999	1	[0, 0, 0]	n/a	FR1	1	R1006P
253.457	0.751	248986	REC_WORD	0.751	n/a	FLAG	-999	1	[0, 0, 0]	n/a	FR1	1	R1006P
254.208	2.655	249361	REC_WORD	2.655	n/a	ROSE	-999	1	[0, 0, 0]	n/a	FR1	1	R1006P
256.863	1.486	250688	REC_WORD	1.486	n/a	WHEEL	-999	1	[0, 0, 0]	n/a	FR1	1	R1006P
258.349	1.352	251431	REC_WORD_VV	1.352	n/a	<>	-999	1	[0, 0, 0]	n/a	FR1	1	R1006P
259.701	1.427	252107	REC_WORD_VV	1.427	n/a	<>	-999	1	[0, 0, 0]	n/a	FR1	1	R1006P
261.128	2.181	252821	REC_WORD_VV	2.181	n/a	<>	-999	1	[0, 0, 0]	n/a	FR1	1	R1006P
263.309	1.757	253911	REC_WORD	1.757	n/a	TOOL	-999	1	[0, 0, 0]	n/a	FR1	1	R1006P
265.066	4.138	254790	REC_WORD_VV	4.138	n/a	<>	-999	1	[0, 0, 0]	n/a	FR1	1	R1006P
269.204	10.614	256859	REC_WORD	10.614	n/a	HOSE	-999	1	[0, 0, 0]	n/a	FR1	1	R1006P
279.818	3.179	262165	REC_END	n/a	n/a	n/a	-999	1	[0, 0, 0]	n/a	FR1	1	R1006P
282.997	0.0	263755	COUNTDOWN_START	n/a	n/a	n/a	-999	2	[0, 0, 0]	n/a	FR1	1	R1006P
282.997	10.428	263755	TRIAL	n/a	n/a	n/a	-999	2	[0, 0, 0]	n/a	FR1	1	R1006P
293.425	0.007	268969	COUNTDOWN_END	n/a	n/a	n/a	-999	2	[0, 0, 0]	n/a	FR1	1	R1006P
293.432	2.467	268972	ORIENT	n/a	n/a	n/a	-999	2	[0, 0, 0]	n/a	FR1	1	R1006P
295.899	2.584	270205	WORD	n/a	wordpools/wordpool_EN.txt	SHEEP	1	2	[0, 0, 0]	n/a	FR1	1	R1006P
298.483	2.551	271497	WORD	n/a	wordpools/wordpool_EN.txt	GOAT	2	2	[0, 0, 0]	n/a	FR1	1	R1006P
301.034	2.501	272773	WORD	n/a	wordpools/wordpool_EN.txt	MOOSE	3	2	[0, 0, 0]	n/a	FR1	1	R1006P
303.535	2.55	274023	WORD	n/a	wordpools/wordpool_EN.txt	MAIL	4	2	[0, 0, 0]	n/a	FR1	1	R1006P
306.085	2.451	275298	WORD	n/a	wordpools/wordpool_EN.txt	SKI	5	2	[0, 0, 0]	n/a	FR1	1	R1006P
308.536	2.4	276524	WORD	n/a	wordpools/wordpool_EN.txt	BREAD	6	2	[0, 0, 0]	n/a	FR1	1	R1006P
310.936	2.417	277724	WORD	n/a	wordpools/wordpool_EN.txt	HAT	7	2	[0, 0, 0]	n/a	FR1	1	R1006P
313.353	2.567	278932	WORD	n/a	wordpools/wordpool_EN.txt	BADGE	8	2	[0, 0, 0]	n/a	FR1	1	R1006P
315.92	2.601	280215	WORD	n/a	wordpools/wordpool_EN.txt	RICE	9	2	[0, 0, 0]	n/a	FR1	1	R1006P
318.521	2.583	281516	WORD	n/a	wordpools/wordpool_EN.txt	SNOW	10	2	[0, 0, 0]	n/a	FR1	1	R1006P
321.104	2.452	282807	WORD	n/a	wordpools/wordpool_EN.txt	FOG	11	2	[0, 0, 0]	n/a	FR1	1	R1006P
323.556	1.616	284033	WORD	n/a	wordpools/wordpool_EN.txt	STORE	12	2	[0, 0, 0]	n/a	FR1	1	R1006P
325.172	0.001	284841	DISTRACT_START	n/a	n/a	n/a	-999	2	[0, 0, 0]	n/a	FR1	1	R1006P
325.173	0.015	284842	START	n/a	n/a	n/a	-999	3	[-999, -999, -999]	n/a	FR1	1	R1006P
325.188	4.468	284849	PROB	4.468	n/a	n/a	-999	3	[3, 1, 6]	10	FR1	1	R1006P
329.656	10.185	287083	PROB	10.185	n/a	n/a	-999	3	[9, 9, 8]	26	FR1	1	R1006P
339.841	4.268	292175	PROB	4.268	n/a	n/a	-999	3	[7, 7, 4]	18	FR1	1	R1006P
344.109	4.471	294309	PROB	4.471	n/a	n/a	-999	3	[7, 9, 1]	17	FR1	1	R1006P
348.58	0.014	296545	STOP	n/a	n/a	n/a	-999	3	[-999, -999, -999]	n/a	FR1	1	R1006P
348.594	1.183	296552	DISTRACT_END	n/a	n/a	n/a	-999	2	[0, 0, 0]	n/a	FR1	1	R1006P
349.777	1.824	297143	REC_START	n/a	n/a	n/a	-999	2	[0, 0, 0]	n/a	FR1	1	R1006P
351.601	1.378	298055	REC_WORD	1.378	n/a	GOAT	-999	2	[0, 0, 0]	n/a	FR1	1	R1006P
352.979	0.943	298744	REC_WORD	0.943	n/a	SHEEP	-999	2	[0, 0, 0]	n/a	FR1	1	R1006P
353.922	6.5	299216	REC_WORD	6.5	n/a	BREAD	-999	2	[0, 0, 0]	n/a	FR1	1	R1006P
360.422	2.84	302465	REC_WORD_VV	2.84	n/a	<>	-999	2	[0, 0, 0]	n/a	FR1	1	R1006P
363.262	1.783	303885	REC_WORD	1.783	n/a	SNOW	-999	2	[0, 0, 0]	n/a	FR1	1	R1006P
365.045	13.025	304777	REC_WORD	13.025	n/a	FOG	-999	2	[0, 0, 0]	n/a	FR1	1	R1006P
378.07	1.717	311289	REC_WORD_VV	1.717	n/a	<>	-999	2	[0, 0, 0]	n/a	FR1	1	R1006P
379.787	1.945	312147	REC_END	n/a	n/a	n/a	-999	2	[0, 0, 0]	n/a	FR1	1	R1006P
381.732	0.0	313120	TRIAL	n/a	n/a	n/a	-999	3	[0, 0, 0]	n/a	FR1	1	R1006P
381.732	10.428	313120	COUNTDOWN_START	n/a	n/a	n/a	-999	3	[0, 0, 0]	n/a	FR1	1	R1006P
392.16	0.008	318334	COUNTDOWN_END	n/a	n/a	n/a	-999	3	[0, 0, 0]	n/a	FR1	1	R1006P
392.168	2.467	318338	ORIENT	n/a	n/a	n/a	-999	3	[0, 0, 0]	n/a	FR1	1	R1006P
394.635	2.6	319571	WORD	n/a	wordpools/wordpool_EN.txt	CROW	1	3	[0, 0, 0]	n/a	FR1	1	R1006P
397.235	2.417	320871	WORD	n/a	wordpools/wordpool_EN.txt	CLOWN	2	3	[0, 0, 0]	n/a	FR1	1	R1006P
399.652	2.451	322079	WORD	n/a	wordpools/wordpool_EN.txt	SCHOOL	3	3	[0, 0, 0]	n/a	FR1	1	R1006P
402.103	2.501	323305	WORD	n/a	wordpools/wordpool_EN.txt	PRINCE	4	3	[0, 0, 0]	n/a	FR1	1	R1006P
404.604	2.6	324555	WORD	n/a	wordpools/wordpool_EN.txt	JUICE	5	3	[0, 0, 0]	n/a	FR1	1	R1006P
407.204	2.418	325855	WORD	n/a	wordpools/wordpool_EN.txt	BOARD	6	3	[0, 0, 0]	n/a	FR1	1	R1006P
409.622	2.516	327064	WORD	n/a	wordpools/wordpool_EN.txt	WING	7	3	[0, 0, 0]	n/a	FR1	1	R1006P
412.138	2.468	328322	WORD	n/a	wordpools/wordpool_EN.txt	DOLL	8	3	[0, 0, 0]	n/a	FR1	1	R1006P
414.606	2.6	329556	WORD	n/a	wordpools/wordpool_EN.txt	BRANCH	9	3	[0, 0, 0]	n/a	FR1	1	R1006P
417.206	2.385	330856	WORD	n/a	wordpools/wordpool_EN.txt	HORSE	10	3	[0, 0, 0]	n/a	FR1	1	R1006P
419.591	2.499	332048	WORD	n/a	wordpools/wordpool_EN.txt	BEAR	11	3	[0, 0, 0]	n/a	FR1	1	R1006P
422.09	1.617	333298	WORD	n/a	wordpools/wordpool_EN.txt	KITE	12	3	[0, 0, 0]	n/a	FR1	1	R1006P
423.707	0.001	334106	DISTRACT_START	n/a	n/a	n/a	-999	3	[0, 0, 0]	n/a	FR1	1	R1006P
423.708	0.016	334107	START	n/a	n/a	n/a	-999	4	[-999, -999, -999]	n/a	FR1	1	R1006P
423.724	7.885	334115	PROB	7.885	n/a	n/a	-999	4	[4, 3, 2]	9	FR1	1	R1006P
431.609	6.767	338057	PROB	6.767	n/a	n/a	-999	4	[5, 6, 4]	15	FR1	1	R1006P
438.376	6.459	341440	PROB	6.459	n/a	n/a	-999	4	[8, 8, 5]	21	FR1	1	R1006P
444.835	0.009	344670	STOP	n/a	n/a	n/a	-999	4	[-999, -999, -999]	n/a	FR1	1	R1006P
444.844	1.134	344674	DISTRACT_END	n/a	n/a	n/a	-999	3	[0, 0, 0]	n/a	FR1	1	R1006P
445.978	1.17	345241	REC_START	n/a	n/a	n/a	-999	3	[0, 0, 0]	n/a	FR1	1	R1006P
447.148	0.652	345826	REC_WORD	0.652	n/a	CROW	-999	3	[0, 0, 0]	n/a	FR1	1	R1006P
447.8	0.585	346152	REC_WORD	0.585	n/a	DOLL	-999	3	[0, 0, 0]	n/a	FR1	1	R1006P
448.385	1.221	346445	REC_WORD	1.221	n/a	WING	-999	3	[0, 0, 0]	n/a	FR1	1	R1006P
449.606	7.81	347055	REC_WORD	7.81	n/a	HORSE	-999	3	[0, 0, 0]	n/a	FR1	1	R1006P
457.416	3.977	350960	REC_WORD	3.977	n/a	CROWN	-999	3	[0, 0, 0]	n/a	FR1	1	R1006P
461.393	7.399	352948	REC_WORD	7.399	n/a	CANE	-999	3	[0, 0, 0]	n/a	FR1	1	R1006P
468.792	3.886	356648	REC_WORD_VV	3.886	n/a	<>	-999	3	[0, 0, 0]	n/a	FR1	1	R1006P
472.678	3.315	358591	REC_WORD	3.315	n/a	WORLD	-999	3	[0, 0, 0]	n/a	FR1	1	R1006P
475.993	1.641	360248	REC_END	n/a	n/a	n/a	-999	3	[0, 0, 0]	n/a	FR1	1	R1006P
477.634	0.0	361068	TRIAL	n/a	n/a	n/a	-999	4	[0, 0, 0]	n/a	FR1	1	R1006P
477.634	10.428	361068	COUNTDOWN_START	n/a	n/a	n/a	-999	4	[0, 0, 0]	n/a	FR1	1	R1006P
488.062	0.007	366282	COUNTDOWN_END	n/a	n/a	n/a	-999	4	[0, 0, 0]	n/a	FR1	1	R1006P
488.069	2.452	366286	ORIENT	n/a	n/a	n/a	-999	4	[0, 0, 0]	n/a	FR1	1	R1006P
490.521	2.616	367512	WORD	n/a	wordpools/wordpool_EN.txt	CLOCK	1	4	[0, 0, 0]	n/a	FR1	1	R1006P
493.137	2.5	368820	WORD	n/a	wordpools/wordpool_EN.txt	FORT	2	4	[0, 0, 0]	n/a	FR1	1	R1006P
495.637	2.384	370069	WORD	n/a	wordpools/wordpool_EN.txt	PIE	3	4	[0, 0, 0]	n/a	FR1	1	R1006P
498.021	2.467	371261	WORD	n/a	wordpools/wordpool_EN.txt	VAN	4	4	[0, 0, 0]	n/a	FR1	1	R1006P
500.488	2.567	372495	WORD	n/a	wordpools/wordpool_EN.txt	FLEA	5	4	[0, 0, 0]	n/a	FR1	1	R1006P
503.055	2.518	373778	WORD	n/a	wordpools/wordpool_EN.txt	SHIELD	6	4	[0, 0, 0]	n/a	FR1	1	R1006P
505.573	2.566	375037	WORD	n/a	wordpools/wordpool_EN.txt	WEED	7	4	[0, 0, 0]	n/a	FR1	1	R1006P
508.139	2.501	376320	WORD	n/a	wordpools/wordpool_EN.txt	CAR	8	4	[0, 0, 0]	n/a	FR1	1	R1006P
510.64	2.517	377571	WORD	n/a	wordpools/wordpool_EN.txt	CONE	9	4	[0, 0, 0]	n/a	FR1	1	R1006P
513.157	2.418	378829	WORD	n/a	wordpools/wordpool_EN.txt	JAIL	10	4	[0, 0, 0]	n/a	FR1	1	R1006P
515.575	2.633	380038	WORD	n/a	wordpools/wordpool_EN.txt	PHONE	11	4	[0, 0, 0]	n/a	FR1	1	R1006P
518.208	1.617	381354	WORD	n/a	wordpools/wordpool_EN.txt	BAND	12	4	[0, 0, 0]	n/a	FR1	1	R1006P
519.825	0.001	382163	DISTRACT_START	n/a	n/a	n/a	-999	4	[0, 0, 0]	n/a	FR1	1	R1006P
519.826	0.016	382163	START	n/a	n/a	n/a	-999	5	[-999, -999, -999]	n/a	FR1	1	R1006P
519.842	5.685	382171	PROB	5.685	n/a	n/a	-999	5	[2, 3, 4]	9	FR1	1	R1006P
525.527	4.716	385014	PROB	4.716	n/a	n/a	-999	5	[3, 1, 6]	10	FR1	1	R1006P
530.243	2.551	387372	PROB	2.551	n/a	n/a	-999	5	[2, 2, 4]	8	FR1	1	R1006P
532.794	9.041	388647	PROB	9.041	n/a	n/a	-999	5	[2, 9, 8]	19	FR1	1	R1006P
541.835	0.011	393167	STOP	n/a	n/a	n/a	-999	5	[-999, -999, -999]	n/a	FR1	1	R1006P
541.846	1.167	393173	DISTRACT_END	n/a	n/a	n/a	-999	4	[0, 0, 0]	n/a	FR1	1	R1006P
543.013	4.272	393756	REC_START	n/a	n/a	n/a	-999	4	[0, 0, 0]	n/a	FR1	1	R1006P
547.285	0.896	395892	REC_WORD	0.896	n/a	CROW	-999	4	[0, 0, 0]	n/a	FR1	1	R1006P
548.181	2.701	396340	REC_WORD	2.701	n/a	FLEA	-999	4	[0, 0, 0]	n/a	FR1	1	R1006P
550.882	0.939	397691	REC_WORD	0.939	n/a	TRUCK	-999	4	[0, 0, 0]	n/a	FR1	1	R1006P
551.821	14.465	398160	REC_WORD	14.465	n/a	SHIELD	-999	4	[0, 0, 0]	n/a	FR1	1	R1006P
566.286	6.741	405392	REC_WORD	6.741	n/a	STONE	-999	4	[0, 0, 0]	n/a	FR1	1	R1006P
573.027	1.475	408763	REC_END	n/a	n/a	n/a	-999	4	[0, 0, 0]	n/a	FR1	1	R1006P
574.502	0.0	409500	TRIAL	n/a	n/a	n/a	-999	5	[0, 0, 0]	n/a	FR1	1	R1006P
574.502	10.428	409500	COUNTDOWN_START	n/a	n/a	n/a	-999	5	[0, 0, 0]	n/a	FR1	1	R1006P
584.93	0.007	414714	COUNTDOWN_END	n/a	n/a	n/a	-999	5	[0, 0, 0]	n/a	FR1	1	R1006P
584.937	2.585	414717	ORIENT	n/a	n/a	n/a	-999	5	[0, 0, 0]	n/a	FR1	1	R1006P
587.522	2.583	416010	WORD	n/a	wordpools/wordpool_EN.txt	DUCK	1	5	[0, 0, 0]	n/a	FR1	1	R1006P
590.105	2.551	417301	WORD	n/a	wordpools/wordpool_EN.txt	CASH	2	5	[0, 0, 0]	n/a	FR1	1	R1006P
592.656	2.517	418577	WORD	n/a	wordpools/wordpool_EN.txt	BARN	3	5	[0, 0, 0]	n/a	FR1	1	R1006P
595.173	2.451	419835	WORD	n/a	wordpools/wordpool_EN.txt	FROG	4	5	[0, 0, 0]	n/a	FR1	1	R1006P
597.624	2.583	421060	WORD	n/a	wordpools/wordpool_EN.txt	POND	5	5	[0, 0, 0]	n/a	FR1	1	R1006P
600.207	2.418	422352	WORD	n/a	wordpools/wordpool_EN.txt	ARM	6	5	[0, 0, 0]	n/a	FR1	1	R1006P
602.625	2.549	423561	WORD	n/a	wordpools/wordpool_EN.txt	DEER	7	5	[0, 0, 0]	n/a	FR1	1	R1006P
605.174	2.584	424835	WORD	n/a	wordpools/wordpool_EN.txt	RAKE	8	5	[0, 0, 0]	n/a	FR1	1	R1006P
607.758	2.451	426127	WORD	n/a	wordpools/wordpool_EN.txt	JEEP	9	5	[0, 0, 0]	n/a	FR1	1	R1006P
610.209	2.584	427353	WORD	n/a	wordpools/wordpool_EN.txt	PARK	10	5	[0, 0, 0]	n/a	FR1	1	R1006P
612.793	2.533	428645	WORD	n/a	wordpools/wordpool_EN.txt	WOLF	11	5	[0, 0, 0]	n/a	FR1	1	R1006P
615.326	1.617	429911	WORD	n/a	wordpools/wordpool_EN.txt	ROPE	12	5	[0, 0, 0]	n/a	FR1	1	R1006P
616.943	0.001	430719	DISTRACT_START	n/a	n/a	n/a	-999	5	[0, 0, 0]	n/a	FR1	1	R1006P
616.944	0.016	430720	START	n/a	n/a	n/a	-999	6	[-999, -999, -999]	n/a	FR1	1	R1006P
616.96	2.901	430728	PROB	2.901	n/a	n/a	-999	6	[1, 9, 2]	12	FR1	1	R1006P
619.861	7.551	432178	PROB	7.551	n/a	n/a	-999	6	[6, 7, 8]	21	FR1	1	R1006P
627.412	3.517	435954	PROB	3.517	n/a	n/a	-999	6	[9, 7, 3]	19	FR1	1	R1006P
630.929	14.547	437712	PROB	14.547	n/a	n/a	-999	6	[3, 6, 8]	17	FR1	1	R1006P
645.476	0.006	444985	STOP	n/a	n/a	n/a	-999	6	[-999, -999, -999]	n/a	FR1	1	R1006P
645.482	1.102	444988	DISTRACT_END	n/a	n/a	n/a	-999	5	[0, 0, 0]	n/a	FR1	1	R1006P
646.584	1.812	445539	REC_START	n/a	n/a	n/a	-999	5	[0, 0, 0]	n/a	FR1	1	R1006P
648.396	0.813	446445	REC_WORD	0.813	n/a	WOLF	-999	5	[0, 0, 0]	n/a	FR1	1	R1006P
649.209	0.732	446852	REC_WORD	0.732	n/a	DUCK	-999	5	[0, 0, 0]	n/a	FR1	1	R1006P
649.941	2.888	447218	REC_WORD	2.888	n/a	POND	-999	5	[0, 0, 0]	n/a	FR1	1	R1006P
652.829	2.228	448662	REC_WORD	2.228	n/a	ARK	-999	5	[0, 0, 0]	n/a	FR1	1	R1006P
655.057	3.999	449775	REC_WORD	3.999	n/a	RAKE	-999	5	[0, 0, 0]	n/a	FR1	1	R1006P
659.056	3.057	451775	REC_WORD	3.057	n/a	BARN	-999	5	[0, 0, 0]	n/a	FR1	1	R1006P
662.113	7.118	453303	REC_WORD	7.118	n/a	FROG	-999	5	[0, 0, 0]	n/a	FR1	1	R1006P
669.231	7.363	456862	REC_WORD	7.363	n/a	HOUSE	-999	5	[0, 0, 0]	n/a	FR1	1	R1006P
676.594	3.361	460543	REC_END	n/a	n/a	n/a	-999	5	[0, 0, 0]	n/a	FR1	1	R1006P
679.955	0.001	462224	COUNTDOWN_START	n/a	n/a	n/a	-999	6	[0, 0, 0]	n/a	FR1	1	R1006P
679.956	10.427	462224	TRIAL	n/a	n/a	n/a	-999	6	[0, 0, 0]	n/a	FR1	1	R1006P
690.383	0.008	467438	COUNTDOWN_END	n/a	n/a	n/a	-999	6	[0, 0, 0]	n/a	FR1	1	R1006P
690.391	2.583	467442	ORIENT	n/a	n/a	n/a	-999	6	[0, 0, 0]	n/a	FR1	1	R1006P
692.974	2.451	468733	WORD	n/a	wordpools/wordpool_EN.txt	LEG	1	6	[0, 0, 0]	n/a	FR1	1	R1006P
695.425	2.567	469958	WORD	n/a	wordpools/wordpool_EN.txt	PIG	2	6	[0, 0, 0]	n/a	FR1	1	R1006P
697.992	2.45	471242	WORD	n/a	wordpools/wordpool_EN.txt	RAT	3	6	[0, 0, 0]	n/a	FR1	1	R1006P
700.442	2.534	472467	WORD	n/a	wordpools/wordpool_EN.txt	CUBE	4	6	[0, 0, 0]	n/a	FR1	1	R1006P
702.976	2.451	473734	WORD	n/a	wordpools/wordpool_EN.txt	HILL	5	6	[0, 0, 0]	n/a	FR1	1	R1006P
705.427	2.467	474959	WORD	n/a	wordpools/wordpool_EN.txt	LAMB	6	6	[0, 0, 0]	n/a	FR1	1	R1006P
707.894	2.55	476193	WORD	n/a	wordpools/wordpool_EN.txt	ROAD	7	6	[0, 0, 0]	n/a	FR1	1	R1006P
710.444	2.468	477468	WORD	n/a	wordpools/wordpool_EN.txt	FENCE	8	6	[0, 0, 0]	n/a	FR1	1	R1006P
712.912	2.5	478702	WORD	n/a	wordpools/wordpool_EN.txt	COW	9	6	[0, 0, 0]	n/a	FR1	1	R1006P
715.412	2.617	479951	WORD	n/a	wordpools/wordpool_EN.txt	PET	10	6	[0, 0, 0]	n/a	FR1	1	R1006P
718.029	2.552	481260	WORD	n/a	wordpools/wordpool_EN.txt	CAT	11	6	[0, 0, 0]	n/a	FR1	1	R1006P
720.581	1.616	482536	WORD	n/a	wordpools/wordpool_EN.txt	CALF	12	6	[0, 0, 0]	n/a	FR1	1	R1006P
722.197	0.0	483344	DISTRACT_START	n/a	n/a	n/a	-999	6	[0, 0, 0]	n/a	FR1	1	R1006P
722.197	0.016	483344	START	n/a	n/a	n/a	-999	7	[-999, -999, -999]	n/a	FR1	1	R1006P
722.213	12.169	483352	PROB	12.169	n/a	n/a	-999	7	[4, 9, 4]	17	FR1	1	R1006P
734.382	3.301	489436	PROB	3.301	n/a	n/a	-999	7	[4, 7, 7]	18	FR1	1	R1006P
737.683	3.45	491086	PROB	3.45	n/a	n/a	-999	7	[1, 4, 3]	8	FR1	1	R1006P
741.133	2.606	492811	PROB	2.606	n/a	n/a	-999	7	[3, 3, 3]	9	FR1	1	R1006P
743.739	0.012	494114	STOP	n/a	n/a	n/a	-999	7	[-999, -999, -999]	n/a	FR1	1	R1006P
743.751	1.201	494120	DISTRACT_END	n/a	n/a	n/a	-999	6	[0, 0, 0]	n/a	FR1	1	R1006P
744.952	9.423	494721	REC_START	n/a	n/a	n/a	-999	6	[0, 0, 0]	n/a	FR1	1	R1006P
754.375	1.339	499432	REC_WORD	1.339	n/a	ROAD	-999	6	[0, 0, 0]	n/a	FR1	1	R1006P
755.714	4.017	500101	REC_WORD	4.017	n/a	PATH	-999	6	[0, 0, 0]	n/a	FR1	1	R1006P
759.731	1.572	502110	REC_WORD	1.572	n/a	LAMB	-999	6	[0, 0, 0]	n/a	FR1	1	R1006P
761.303	3.0	502896	REC_WORD	3.0	n/a	FENCE	-999	6	[0, 0, 0]	n/a	FR1	1	R1006P
764.303	10.183	504396	REC_WORD	10.183	n/a	COW	-999	6	[0, 0, 0]	n/a	FR1	1	R1006P
774.486	0.477	509487	REC_WORD	0.477	n/a	CUBE	-999	6	[0, 0, 0]	n/a	FR1	1	R1006P
774.963	4.595	509725	REC_END	n/a	n/a	n/a	-999	6	[0, 0, 0]	n/a	FR1	1	R1006P
779.558	0.001	512023	COUNTDOWN_START	n/a	n/a	n/a	-999	7	[0, 0, 0]	n/a	FR1	1	R1006P
779.559	10.427	512023	TRIAL	n/a	n/a	n/a	-999	7	[0, 0, 0]	n/a	FR1	1	R1006P
789.986	0.007	517237	COUNTDOWN_END	n/a	n/a	n/a	-999	7	[0, 0, 0]	n/a	FR1	1	R1006P
789.993	2.601	517240	ORIENT	n/a	n/a	n/a	-999	7	[0, 0, 0]	n/a	FR1	1	R1006P
792.594	2.483	518541	WORD	n/a	wordpools/wordpool_EN.txt	CAVE	1	7	[0, 0, 0]	n/a	FR1	1	R1006P
795.077	2.435	519782	WORD	n/a	wordpools/wordpool_EN.txt	STAIR	2	7	[0, 0, 0]	n/a	FR1	1	R1006P
797.512	2.599	520999	WORD	n/a	wordpools/wordpool_EN.txt	COUCH	3	7	[0, 0, 0]	n/a	FR1	1	R1006P
800.111	2.502	522299	WORD	n/a	wordpools/wordpool_EN.txt	DART	4	7	[0, 0, 0]	n/a	FR1	1	R1006P
802.613	2.566	523550	WORD	n/a	wordpools/wordpool_EN.txt	BED	5	7	[0, 0, 0]	n/a	FR1	1	R1006P
805.179	2.517	524833	WORD	n/a	wordpools/wordpool_EN.txt	MAZE	6	7	[0, 0, 0]	n/a	FR1	1	R1006P
807.696	2.384	526091	WORD	n/a	wordpools/wordpool_EN.txt	SNAKE	7	7	[0, 0, 0]	n/a	FR1	1	R1006P
810.08	2.451	527283	WORD	n/a	wordpools/wordpool_EN.txt	CLIFF	8	7	[0, 0, 0]	n/a	FR1	1	R1006P
812.531	2.6	528509	WORD	n/a	wordpools/wordpool_EN.txt	TOE	9	7	[0, 0, 0]	n/a	FR1	1	R1006P
815.131	2.418	529808	WORD	n/a	wordpools/wordpool_EN.txt	CHAIR	10	7	[0, 0, 0]	n/a	FR1	1	R1006P
817.549	2.433	531017	WORD	n/a	wordpools/wordpool_EN.txt	MUD	11	7	[0, 0, 0]	n/a	FR1	1	R1006P
819.982	1.618	532234	WORD	n/a	wordpools/wordpool_EN.txt	BROOM	12	7	[0, 0, 0]	n/a	FR1	1	R1006P
821.6	0.001	533043	DISTRACT_START	n/a	n/a	n/a	-999	7	[0, 0, 0]	n/a	FR1	1	R1006P
821.601	0.015	533043	START	n/a	n/a	n/a	-999	8	[-999, -999, -999]	n/a	FR1	1	R1006P
821.616	6.851	533051	PROB	6.851	n/a	n/a	-999	8	[9, 2, 9]	20	FR1	1	R1006P
828.467	6.334	536476	PROB	6.334	n/a	n/a	-999	8	[6, 9, 5]	20	FR1	1	R1006P
834.801	5.018	539643	PROB	5.018	n/a	n/a	-999	8	[8, 8, 5]	21	FR1	1	R1006P
839.819	3.201	542152	PROB	3.201	n/a	n/a	-999	8	[2, 1, 7]	10	FR1	1	R1006P
843.02	0.016	543752	STOP	n/a	n/a	n/a	-999	8	[-999, -999, -999]	n/a	FR1	1	R1006P
843.036	1.218	543760	DISTRACT_END	n/a	n/a	n/a	-999	7	[0, 0, 0]	n/a	FR1	1	R1006P
844.254	4.786	544369	REC_START	n/a	n/a	n/a	-999	7	[0, 0, 0]	n/a	FR1	1	R1006P
849.04	0.975	546762	REC_WORD	0.975	n/a	SNAKE	-999	7	[0, 0, 0]	n/a	FR1	1	R1006P
850.015	0.706	547250	REC_WORD	0.706	n/a	BED	-999	7	[0, 0, 0]	n/a	FR1	1	R1006P
850.721	14.05	547603	REC_WORD	14.05	n/a	MAZE	-999	7	[0, 0, 0]	n/a	FR1	1	R1006P
864.771	9.494	554627	REC_WORD	9.494	n/a	POND	-999	7	[0, 0, 0]	n/a	FR1	1	R1006P
874.265	1.994	559374	REC_END	n/a	n/a	n/a	-999	7	[0, 0, 0]	n/a	FR1	1	R1006P
876.259	0.0	560371	TRIAL	n/a	n/a	n/a	-999	8	[0, 0, 0]	n/a	FR1	1	R1006P
876.259	10.428	560371	COUNTDOWN_START	n/a	n/a	n/a	-999	8	[0, 0, 0]	n/a	FR1	1	R1006P
886.687	0.007	565585	COUNTDOWN_END	n/a	n/a	n/a	-999	8	[0, 0, 0]	n/a	FR1	1	R1006P
886.694	2.617	565588	ORIENT	n/a	n/a	n/a	-999	8	[0, 0, 0]	n/a	FR1	1	R1006P
889.311	2.534	566897	WORD	n/a	wordpools/wordpool_EN.txt	CRANE	1	8	[0, 0, 0]	n/a	FR1	1	R1006P
891.845	2.617	568164	WORD	n/a	wordpools/wordpool_EN.txt	SEAL	2	8	[0, 0, 0]	n/a	FR1	1	R1006P
894.462	2.501	569472	WORD	n/a	wordpools/wordpool_EN.txt	FUDGE	3	8	[0, 0, 0]	n/a	FR1	1	R1006P
896.963	2.517	570722	WORD	n/a	wordpools/wordpool_EN.txt	PEN	4	8	[0, 0, 0]	n/a	FR1	1	R1006P
899.48	2.5	571981	WORD	n/a	wordpools/wordpool_EN.txt	INK	5	8	[0, 0, 0]	n/a	FR1	1	R1006P
901.98	2.418	573231	WORD	n/a	wordpools/wordpool_EN.txt	BANK	6	8	[0, 0, 0]	n/a	FR1	1	R1006P
904.398	2.617	574440	WORD	n/a	wordpools/wordpool_EN.txt	SHEET	7	8	[0, 0, 0]	n/a	FR1	1	R1006P
907.015	2.45	575748	WORD	n/a	wordpools/wordpool_EN.txt	BOOK	8	8	[0, 0, 0]	n/a	FR1	1	R1006P
909.465	2.417	576973	WORD	n/a	wordpools/wordpool_EN.txt	DESK	9	8	[0, 0, 0]	n/a	FR1	1	R1006P
911.882	2.384	578182	WORD	n/a	wordpools/wordpool_EN.txt	WALL	10	8	[0, 0, 0]	n/a	FR1	1	R1006P
914.266	2.601	579374	WORD	n/a	wordpools/wordpool_EN.txt	DITCH	11	8	[0, 0, 0]	n/a	FR1	1	R1006P
916.867	1.617	580674	WORD	n/a	wordpools/wordpool_EN.txt	COIN	12	8	[0, 0, 0]	n/a	FR1	1	R1006P
918.484	0.0	581482	DISTRACT_START	n/a	n/a	n/a	-999	8	[0, 0, 0]	n/a	FR1	1	R1006P
918.484	0.016	581482	START	n/a	n/a	n/a	-999	9	[-999, -999, -999]	n/a	FR1	1	R1006P
918.5	5.418	581490	PROB	5.418	n/a	n/a	-999	9	[6, 3, 5]	14	FR1	1	R1006P
923.918	5.301	584199	PROB	5.301	n/a	n/a	-999	9	[1, 8, 6]	15	FR1	1	R1006P
929.219	4.001	586850	PROB	4.001	n/a	n/a	-999	9	[1, 9, 9]	19	FR1	1	R1006P
933.22	4.385	588850	PROB	4.385	n/a	n/a	-999	9	[2, 6, 9]	17	FR1	1	R1006P
937.605	9.078	591042	PROB	9.078	n/a	n/a	-999	9	[5, 7, 6]	18	FR1	1	R1006P
946.683	0.006	595581	STOP	n/a	n/a	n/a	-999	9	[-999, -999, -999]	n/a	FR1	1	R1006P
946.689	1.051	595584	DISTRACT_END	n/a	n/a	n/a	-999	8	[0, 0, 0]	n/a	FR1	1	R1006P
947.74	5.519	596110	REC_START	n/a	n/a	n/a	-999	8	[0, 0, 0]	n/a	FR1	1	R1006P
953.259	2.004	598869	REC_WORD	2.004	n/a	BANK	-999	8	[0, 0, 0]	n/a	FR1	1	R1006P
955.263	1.738	599871	REC_WORD	1.738	n/a	COIN	-999	8	[0, 0, 0]	n/a	FR1	1	R1006P
957.001	1.043	600740	REC_WORD	1.043	n/a	DESK	-999	8	[0, 0, 0]	n/a	FR1	1	R1006P
958.044	4.304	601261	REC_WORD	4.304	n/a	WALL	-999	8	[0, 0, 0]	n/a	FR1	1	R1006P
962.348	9.138	603413	REC_WORD	9.138	n/a	DITCH	-999	8	[0, 0, 0]	n/a	FR1	1	R1006P
971.486	6.264	607982	REC_WORD_VV	6.264	n/a	<>	-999	8	[0, 0, 0]	n/a	FR1	1	R1006P
977.75	0.961	611114	REC_END	n/a	n/a	n/a	-999	8	[0, 0, 0]	n/a	FR1	1	R1006P
978.711	0.001	611594	COUNTDOWN_START	n/a	n/a	n/a	-999	9	[0, 0, 0]	n/a	FR1	1	R1006P
978.712	10.427	611595	TRIAL	n/a	n/a	n/a	-999	9	[0, 0, 0]	n/a	FR1	1	R1006P
989.139	0.008	616808	COUNTDOWN_END	n/a	n/a	n/a	-999	9	[0, 0, 0]	n/a	FR1	1	R1006P
989.147	2.452	616812	ORIENT	n/a	n/a	n/a	-999	9	[0, 0, 0]	n/a	FR1	1	R1006P
991.599	2.482	618038	WORD	n/a	wordpools/wordpool_EN.txt	STREET	1	9	[0, 0, 0]	n/a	FR1	1	R1006P
994.081	2.584	619279	WORD	n/a	wordpools/wordpool_EN.txt	CAGE	2	9	[0, 0, 0]	n/a	FR1	1	R1006P
996.665	2.45	620571	WORD	n/a	wordpools/wordpool_EN.txt	DIME	3	9	[0, 0, 0]	n/a	FR1	1	R1006P
999.115	2.469	621796	WORD	n/a	wordpools/wordpool_EN.txt	SLIME	4	9	[0, 0, 0]	n/a	FR1	1	R1006P
1001.584	2.583	623030	WORD	n/a	wordpools/wordpool_EN.txt	PANTS	5	9	[0, 0, 0]	n/a	FR1	1	R1006P
1004.167	2.55	624322	WORD	n/a	wordpools/wordpool_EN.txt	SINK	6	9	[0, 0, 0]	n/a	FR1	1	R1006P
1006.717	2.617	625597	WORD	n/a	wordpools/wordpool_EN.txt	FUR	7	9	[0, 0, 0]	n/a	FR1	1	R1006P
1009.334	2.567	626905	WORD	n/a	wordpools/wordpool_EN.txt	AXE	8	9	[0, 0, 0]	n/a	FR1	1	R1006P
1011.901	2.451	628189	WORD	n/a	wordpools/wordpool_EN.txt	TRAIN	9	9	[0, 0, 0]	n/a	FR1	1	R1006P
1014.352	2.6	629414	WORD	n/a	wordpools/wordpool_EN.txt	SLEEVE	10	9	[0, 0, 0]	n/a	FR1	1	R1006P
1016.952	2.451	630714	WORD	n/a	wordpools/wordpool_EN.txt	TIE	11	9	[0, 0, 0]	n/a	FR1	1	R1006P
1019.403	1.617	631939	WORD	n/a	wordpools/wordpool_EN.txt	HAND	12	9	[0, 0, 0]	n/a	FR1	1	R1006P
1021.02	0.001	632748	DISTRACT_START	n/a	n/a	n/a	-999	9	[0, 0, 0]	n/a	FR1	1	R1006P
1021.021	0.015	632748	START	n/a	n/a	n/a	-999	10	[-999, -999, -999]	n/a	FR1	1	R1006P
1021.036	6.536	632756	PROB	6.536	n/a	n/a	-999	10	[6, 3, 5]	14	FR1	1	R1006P
1027.572	4.416	636024	PROB	4.416	n/a	n/a	-999	10	[2, 8, 5]	15	FR1	1	R1006P
1031.988	6.135	638232	PROB	6.135	n/a	n/a	-999	10	[7, 4, 7]	18	FR1	1	R1006P
1038.123	9.144	641299	PROB	9.144	n/a	n/a	-999	10	[4, 8, 7]	19	FR1	1	R1006P
1047.267	0.008	645871	STOP	n/a	n/a	n/a	-999	10	[-999, -999, -999]	n/a	FR1	1	R1006P
1047.275	1.117	645875	DISTRACT_END	n/a	n/a	n/a	-999	9	[0, 0, 0]	n/a	FR1	1	R1006P
1048.392	4.849	646433	REC_START	n/a	n/a	n/a	-999	9	[0, 0, 0]	n/a	FR1	1	R1006P
1053.241	1.198	648858	REC_WORD	1.198	n/a	CAGE	-999	9	[0, 0, 0]	n/a	FR1	1	R1006P
1054.439	1.551	649456	REC_WORD	1.551	n/a	FUR	-999	9	[0, 0, 0]	n/a	FR1	1	R1006P
1055.99	5.022	650232	REC_WORD	5.022	n/a	AXE	-999	9	[0, 0, 0]	n/a	FR1	1	R1006P
1061.012	4.241	652743	REC_WORD	4.241	n/a	SINK	-999	9	[0, 0, 0]	n/a	FR1	1	R1006P
1065.253	13.149	654863	REC_WORD	13.149	n/a	STREET	-999	9	[0, 0, 0]	n/a	FR1	1	R1006P
1078.402	1.512	661437	REC_END	n/a	n/a	n/a	-999	9	[0, 0, 0]	n/a	FR1	1	R1006P
1079.914	0.0	662193	TRIAL	n/a	n/a	n/a	-999	10	[0, 0, 0]	n/a	FR1	1	R1006P
1079.914	10.428	662193	COUNTDOWN_START	n/a	n/a	n/a	-999	10	[0, 0, 0]	n/a	FR1	1	R1006P
1090.342	0.007	667407	COUNTDOWN_END	n/a	n/a	n/a	-999	10	[0, 0, 0]	n/a	FR1	1	R1006P
1090.349	2.518	667411	ORIENT	n/a	n/a	n/a	-999	10	[0, 0, 0]	n/a	FR1	1	R1006P
1092.867	2.4	668670	WORD	n/a	wordpools/wordpool_EN.txt	ROOF	1	10	[0, 0, 0]	n/a	FR1	1	R1006P
1095.267	2.617	669869	WORD	n/a	wordpools/wordpool_EN.txt	GATE	2	10	[0, 0, 0]	n/a	FR1	1	R1006P
1097.884	2.467	671178	WORD	n/a	wordpools/wordpool_EN.txt	ROCK	3	10	[0, 0, 0]	n/a	FR1	1	R1006P
1100.351	2.501	672411	WORD	n/a	wordpools/wordpool_EN.txt	FLAME	4	10	[0, 0, 0]	n/a	FR1	1	R1006P
1102.852	2.45	673662	WORD	n/a	wordpools/wordpool_EN.txt	CLAY	5	10	[0, 0, 0]	n/a	FR1	1	R1006P
1105.302	2.534	674887	WORD	n/a	wordpools/wordpool_EN.txt	BOX	6	10	[0, 0, 0]	n/a	FR1	1	R1006P
1107.836	2.434	676154	WORD	n/a	wordpools/wordpool_EN.txt	HOLE	7	10	[0, 0, 0]	n/a	FR1	1	R1006P
1110.27	2.567	677371	WORD	n/a	wordpools/wordpool_EN.txt	WHALE	8	10	[0, 0, 0]	n/a	FR1	1	R1006P
1112.837	2.617	678654	WORD	n/a	wordpools/wordpool_EN.txt	BEAN	9	10	[0, 0, 0]	n/a	FR1	1	R1006P
1115.454	2.417	679962	WORD	n/a	wordpools/wordpool_EN.txt	THREAD	10	10	[0, 0, 0]	n/a	FR1	1	R1006P
1117.871	2.417	681171	WORD	n/a	wordpools/wordpool_EN.txt	FOAM	11	10	[0, 0, 0]	n/a	FR1	1	R1006P
1120.288	1.617	682379	WORD	n/a	wordpools/wordpool_EN.txt	SMOKE	12	10	[0, 0, 0]	n/a	FR1	1	R1006P
1121.905	0.001	683188	DISTRACT_START	n/a	n/a	n/a	-999	10	[0, 0, 0]	n/a	FR1	1	R1006P
1121.906	0.016	683188	START	n/a	n/a	n/a	-999	11	[-999, -999, -999]	n/a	FR1	1	R1006P
1121.922	13.269	683196	PROB	13.269	n/a	n/a	-999	11	[8, 7, 7]	21	FR1	1	R1006P
1135.191	9.773	689830	PROB	9.773	n/a	n/a	-999	11	[1, 9, 5]	15	FR1	1	R1006P
1144.964	0.012	694717	STOP	n/a	n/a	n/a	-999	11	[-999, -999, -999]	n/a	FR1	1	R1006P
1144.976	1.185	694723	DISTRACT_END	n/a	n/a	n/a	-999	10	[0, 0, 0]	n/a	FR1	1	R1006P
1146.161	5.093	695315	REC_START	n/a	n/a	n/a	-999	10	[0, 0, 0]	n/a	FR1	1	R1006P
1151.254	5.998	697862	REC_WORD	5.998	n/a	GATE	-999	10	[0, 0, 0]	n/a	FR1	1	R1006P
1157.252	6.562	700860	REC_WORD_VV	6.562	n/a	<>	-999	10	[0, 0, 0]	n/a	FR1	1	R1006P
1163.814	1.863	704141	REC_WORD	1.863	n/a	ROCK	-999	10	[0, 0, 0]	n/a	FR1	1	R1006P
1165.677	10.494	705073	REC_WORD	10.494	n/a	FLAME	-999	10	[0, 0, 0]	n/a	FR1	1	R1006P
1176.171	1.295	710319	REC_END	n/a	n/a	n/a	-999	10	[0, 0, 0]	n/a	FR1	1	R1006P
1177.466	0.0	710967	TRIAL	n/a	n/a	n/a	-999	11	[0, 0, 0]	n/a	FR1	1	R1006P
1177.466	10.428	710967	COUNTDOWN_START	n/a	n/a	n/a	-999	11	[0, 0, 0]	n/a	FR1	1	R1006P
1187.894	0.007	716181	COUNTDOWN_END	n/a	n/a	n/a	-999	11	[0, 0, 0]	n/a	FR1	1	R1006P
1187.901	2.467	716184	ORIENT	n/a	n/a	n/a	-999	11	[0, 0, 0]	n/a	FR1	1	R1006P
1190.368	2.401	717418	WORD	n/a	wordpools/wordpool_EN.txt	BOY	1	11	[0, 0, 0]	n/a	FR1	1	R1006P
1192.769	2.384	718618	WORD	n/a	wordpools/wordpool_EN.txt	MOUSE	2	11	[0, 0, 0]	n/a	FR1	1	R1006P
1195.153	2.55	719810	WORD	n/a	wordpools/wordpool_EN.txt	HOOK	3	11	[0, 0, 0]	n/a	FR1	1	R1006P
1197.703	2.584	721085	WORD	n/a	wordpools/wordpool_EN.txt	WAND	4	11	[0, 0, 0]	n/a	FR1	1	R1006P
1200.287	2.5	722377	WORD	n/a	wordpools/wordpool_EN.txt	RAIN	5	11	[0, 0, 0]	n/a	FR1	1	R1006P
1202.787	2.534	723627	WORD	n/a	wordpools/wordpool_EN.txt	FAN	6	11	[0, 0, 0]	n/a	FR1	1	R1006P
1205.321	2.451	724894	WORD	n/a	wordpools/wordpool_EN.txt	SKY	7	11	[0, 0, 0]	n/a	FR1	1	R1006P
1207.772	2.533	726119	WORD	n/a	wordpools/wordpool_EN.txt	NAIL	8	11	[0, 0, 0]	n/a	FR1	1	R1006P
1210.305	2.451	727386	WORD	n/a	wordpools/wordpool_EN.txt	BAT	9	11	[0, 0, 0]	n/a	FR1	1	R1006P
1212.756	2.484	728611	WORD	n/a	wordpools/wordpool_EN.txt	GRASS	10	11	[0, 0, 0]	n/a	FR1	1	R1006P
1215.24	2.433	729853	WORD	n/a	wordpools/wordpool_EN.txt	ANT	11	11	[0, 0, 0]	n/a	FR1	1	R1006P
1217.673	1.617	731069	WORD	n/a	wordpools/wordpool_EN.txt	CHALK	12	11	[0, 0, 0]	n/a	FR1	1	R1006P
1219.29	0.001	731878	DISTRACT_START	n/a	n/a	n/a	-999	11	[0, 0, 0]	n/a	FR1	1	R1006P
1219.291	0.016	731878	START	n/a	n/a	n/a	-999	12	[-999, -999, -999]	n/a	FR1	1	R1006P
1219.307	4.434	731886	PROB	4.434	n/a	n/a	-999	12	[3, 1, 1]	5	FR1	1	R1006P
1223.741	15.808	734103	PROB	15.808	n/a	n/a	-999	12	[5, 8, 6]	20	FR1	1	R1006P
1239.549	0.013	742007	STOP	n/a	n/a	n/a	-999	12	[-999, -999, -999]	n/a	FR1	1	R1006P
1239.562	1.216	742013	DISTRACT_END	n/a	n/a	n/a	-999	11	[0, 0, 0]	n/a	FR1	1	R1006P
1240.778	4.927	742621	REC_START	n/a	n/a	n/a	-999	11	[0, 0, 0]	n/a	FR1	1	R1006P
1245.705	1.393	745085	REC_WORD_VV	1.393	n/a	<>	-999	11	[0, 0, 0]	n/a	FR1	1	R1006P
1247.098	1.324	745781	REC_WORD_VV	1.324	n/a	<>	-999	11	[0, 0, 0]	n/a	FR1	1	R1006P
1248.422	2.768	746443	REC_WORD_VV	2.768	n/a	<>	-999	11	[0, 0, 0]	n/a	FR1	1	R1006P
1251.19	14.032	747827	REC_WORD_VV	14.032	n/a	<>	-999	11	[0, 0, 0]	n/a	FR1	1	R1006P
1265.222	5.571	754843	REC_WORD_VV	5.571	n/a	<>	-999	11	[0, 0, 0]	n/a	FR1	1	R1006P
1270.793	8.242	757628	REC_END	n/a	n/a	n/a	-999	11	[0, 0, 0]	n/a	FR1	1	R1006P
1279.035	0.0	761749	TRIAL	n/a	n/a	n/a	-999	12	[0, 0, 0]	n/a	FR1	1	R1006P
1279.035	10.428	761749	COUNTDOWN_START	n/a	n/a	n/a	-999	12	[0, 0, 0]	n/a	FR1	1	R1006P
1289.463	0.007	766963	COUNTDOWN_END	n/a	n/a	n/a	-999	12	[0, 0, 0]	n/a	FR1	1	R1006P
1289.47	2.551	766966	ORIENT	n/a	n/a	n/a	-999	12	[0, 0, 0]	n/a	FR1	1	R1006P
1292.021	2.568	768242	WORD	n/a	wordpools/wordpool_EN.txt	GLASS	1	12	[0, 0, 0]	n/a	FR1	1	R1006P
1294.589	2.416	769525	WORD	n/a	wordpools/wordpool_EN.txt	MUG	2	12	[0, 0, 0]	n/a	FR1	1	R1006P
1297.005	2.401	770733	WORD	n/a	wordpools/wordpool_EN.txt	SOCK	3	12	[0, 0, 0]	n/a	FR1	1	R1006P
1299.406	2.55	771934	WORD	n/a	wordpools/wordpool_EN.txt	FLOOR	4	12	[0, 0, 0]	n/a	FR1	1	R1006P
1301.956	2.551	773209	WORD	n/a	wordpools/wordpool_EN.txt	SHOE	5	12	[0, 0, 0]	n/a	FR1	1	R1006P
1304.507	2.433	774484	WORD	n/a	wordpools/wordpool_EN.txt	JAR	6	12	[0, 0, 0]	n/a	FR1	1	R1006P
1306.94	2.368	775701	WORD	n/a	wordpools/wordpool_EN.txt	ELF	7	12	[0, 0, 0]	n/a	FR1	1	R1006P
1309.308	2.6	776885	WORD	n/a	wordpools/wordpool_EN.txt	TANK	8	12	[0, 0, 0]	n/a	FR1	1	R1006P
1311.908	2.635	778185	WORD	n/a	wordpools/wordpool_EN.txt	POOL	9	12	[0, 0, 0]	n/a	FR1	1	R1006P
1314.543	2.549	779502	WORD	n/a	wordpools/wordpool_EN.txt	ROOM	10	12	[0, 0, 0]	n/a	FR1	1	R1006P
1317.092	2.435	780776	WORD	n/a	wordpools/wordpool_EN.txt	CANE	11	12	[0, 0, 0]	n/a	FR1	1	R1006P
1319.527	1.616	781994	WORD	n/a	wordpools/wordpool_EN.txt	RUG	12	12	[0, 0, 0]	n/a	FR1	1	R1006P
1321.143	0.001	782802	DISTRACT_START	n/a	n/a	n/a	-999	12	[0, 0, 0]	n/a	FR1	1	R1006P
1321.144	0.016	782802	START	n/a	n/a	n/a	-999	13	[-999, -999, -999]	n/a	FR1	1	R1006P
1321.16	5.402	782810	PROB	5.402	n/a	n/a	-999	13	[3, 9, 6]	18	FR1	1	R1006P
1326.562	6.483	785511	PROB	6.483	n/a	n/a	-999	13	[4, 7, 6]	17	FR1	1	R1006P
1333.045	3.284	788753	PROB	3.284	n/a	n/a	-999	13	[2, 2, 9]	13	FR1	1	R1006P
1336.329	3.269	790394	PROB	3.269	n/a	n/a	-999	13	[3, 3, 4]	10	FR1	1	R1006P
1339.598	3.141	792029	PROB	3.141	n/a	n/a	-999	13	[5, 2, 2]	9	FR1	1	R1006P
1342.739	0.008	793599	STOP	n/a	n/a	n/a	-999	13	[-999, -999, -999]	n/a	FR1	1	R1006P
1342.747	1.151	793603	DISTRACT_END	n/a	n/a	n/a	-999	12	[0, 0, 0]	n/a	FR1	1	R1006P
1343.898	5.901	794179	REC_START	n/a	n/a	n/a	-999	12	[0, 0, 0]	n/a	FR1	1	R1006P
1349.799	11.673	797129	REC_WORD	11.673	n/a	GLASS	-999	12	[0, 0, 0]	n/a	FR1	1	R1006P
1361.472	12.436	802965	REC_WORD_VV	12.436	n/a	<>	-999	12	[0, 0, 0]	n/a	FR1	1	R1006P
1373.908	7.664	809183	REC_END	n/a	n/a	n/a	-999	12	[0, 0, 0]	n/a	FR1	1	R1006P
1381.572	0.0	813015	TRIAL	n/a	n/a	n/a	-999	13	[0, 0, 0]	n/a	FR1	1	R1006P
1381.572	10.428	813015	COUNTDOWN_START	n/a	n/a	n/a	-999	13	[0, 0, 0]	n/a	FR1	1	R1006P
1392.0	0.006	818229	COUNTDOWN_END	n/a	n/a	n/a	-999	13	[0, 0, 0]	n/a	FR1	1	R1006P
1392.006	2.535	818232	ORIENT	n/a	n/a	n/a	-999	13	[0, 0, 0]	n/a	FR1	1	R1006P
1394.541	2.433	819499	WORD	n/a	wordpools/wordpool_EN.txt	LAKE	1	13	[0, 0, 0]	n/a	FR1	1	R1006P
1396.974	2.417	820715	WORD	n/a	wordpools/wordpool_EN.txt	MOUTH	2	13	[0, 0, 0]	n/a	FR1	1	R1006P
1399.391	2.567	821924	WORD	n/a	wordpools/wordpool_EN.txt	PEACH	3	13	[0, 0, 0]	n/a	FR1	1	R1006P
1401.958	2.484	823207	WORD	n/a	wordpools/wordpool_EN.txt	SQUARE	4	13	[0, 0, 0]	n/a	FR1	1	R1006P
1404.442	2.567	824449	WORD	n/a	wordpools/wordpool_EN.txt	BLOOM	5	13	[0, 0, 0]	n/a	FR1	1	R1006P
1407.009	2.467	825733	WORD	n/a	wordpools/wordpool_EN.txt	BIRD	6	13	[0, 0, 0]	n/a	FR1	1	R1006P
1409.476	2.467	826966	WORD	n/a	wordpools/wordpool_EN.txt	TAIL	7	13	[0, 0, 0]	n/a	FR1	1	R1006P
1411.943	2.585	828200	WORD	n/a	wordpools/wordpool_EN.txt	LAND	8	13	[0, 0, 0]	n/a	FR1	1	R1006P
1414.528	2.433	829492	WORD	n/a	wordpools/wordpool_EN.txt	FACE	9	13	[0, 0, 0]	n/a	FR1	1	R1006P
1416.961	2.384	830708	WORD	n/a	wordpools/wordpool_EN.txt	HAWK	10	13	[0, 0, 0]	n/a	FR1	1	R1006P
1419.345	2.5	831900	WORD	n/a	wordpools/wordpool_EN.txt	EEL	11	13	[0, 0, 0]	n/a	FR1	1	R1006P
1421.845	1.617	833150	WORD	n/a	wordpools/wordpool_EN.txt	SIGN	12	13	[0, 0, 0]	n/a	FR1	1	R1006P
1423.462	0.001	833959	DISTRACT_START	n/a	n/a	n/a	-999	13	[0, 0, 0]	n/a	FR1	1	R1006P
1423.463	0.016	833959	START	n/a	n/a	n/a	-999	14	[-999, -999, -999]	n/a	FR1	1	R1006P
1423.479	14.87	833967	PROB	14.87	n/a	n/a	-999	14	[5, 9, 8]	22	FR1	1	R1006P
1438.349	8.935	841402	PROB	8.935	n/a	n/a	-999	14	[8, 3, 1]	12	FR1	1	R1006P
1447.284	0.016	845869	STOP	n/a	n/a	n/a	-999	14	[-999, -999, -999]	n/a	FR1	1	R1006P
1447.3	1.035	845877	DISTRACT_END	n/a	n/a	n/a	-999	13	[0, 0, 0]	n/a	FR1	1	R1006P
1448.335	14.119	846395	REC_START	n/a	n/a	n/a	-999	13	[0, 0, 0]	n/a	FR1	1	R1006P
1462.454	0.814	853454	REC_WORD	0.814	n/a	MOUTH	-999	13	[0, 0, 0]	n/a	FR1	1	R1006P
1463.268	2.452	853861	REC_WORD	2.452	n/a	LAKE	-999	13	[0, 0, 0]	n/a	FR1	1	R1006P
1465.72	2.425	855087	REC_WORD	2.425	n/a	EEL	-999	13	[0, 0, 0]	n/a	FR1	1	R1006P
1468.145	2.569	856299	REC_WORD	2.569	n/a	HAWK	-999	13	[0, 0, 0]	n/a	FR1	1	R1006P
1470.714	1.837	857584	REC_WORD	1.837	n/a	BIRD	-999	13	[0, 0, 0]	n/a	FR1	1	R1006P
1472.551	5.794	858502	REC_WORD	5.794	n/a	BLOOM	-999	13	[0, 0, 0]	n/a	FR1	1	R1006P
1478.345	1.894	861399	REC_END	n/a	n/a	n/a	-999	13	[0, 0, 0]	n/a	FR1	1	R1006P
1480.239	0.001	862346	COUNTDOWN_START	n/a	n/a	n/a	-999	14	[0, 0, 0]	n/a	FR1	1	R1006P
1480.24	10.427	862346	TRIAL	n/a	n/a	n/a	-999	14	[0, 0, 0]	n/a	FR1	1	R1006P
1490.667	0.008	867560	COUNTDOWN_END	n/a	n/a	n/a	-999	14	[0, 0, 0]	n/a	FR1	1	R1006P
1490.675	2.567	867564	ORIENT	n/a	n/a	n/a	-999	14	[0, 0, 0]	n/a	FR1	1	R1006P
1493.242	2.551	868847	WORD	n/a	wordpools/wordpool_EN.txt	BRICK	1	14	[0, 0, 0]	n/a	FR1	1	R1006P
1495.793	2.517	870122	WORD	n/a	wordpools/wordpool_EN.txt	SEED	2	14	[0, 0, 0]	n/a	FR1	1	R1006P
1498.31	2.467	871381	WORD	n/a	wordpools/wordpool_EN.txt	CORN	3	14	[0, 0, 0]	n/a	FR1	1	R1006P
1500.777	2.534	872614	WORD	n/a	wordpools/wordpool_EN.txt	NET	4	14	[0, 0, 0]	n/a	FR1	1	R1006P
1503.311	2.4	873881	WORD	n/a	wordpools/wordpool_EN.txt	STEM	5	14	[0, 0, 0]	n/a	FR1	1	R1006P
1505.711	2.484	875081	WORD	n/a	wordpools/wordpool_EN.txt	HEART	6	14	[0, 0, 0]	n/a	FR1	1	R1006P
1508.195	2.467	876323	WORD	n/a	wordpools/wordpool_EN.txt	TOY	7	14	[0, 0, 0]	n/a	FR1	1	R1006P
1510.662	2.417	877557	WORD	n/a	wordpools/wordpool_EN.txt	CORD	8	14	[0, 0, 0]	n/a	FR1	1	R1006P
1513.079	2.601	878765	WORD	n/a	wordpools/wordpool_EN.txt	SHRIMP	9	14	[0, 0, 0]	n/a	FR1	1	R1006P
1515.68	2.6	880065	WORD	n/a	wordpools/wordpool_EN.txt	WOOD	10	14	[0, 0, 0]	n/a	FR1	1	R1006P
1518.28	2.584	881365	WORD	n/a	wordpools/wordpool_EN.txt	BALL	11	14	[0, 0, 0]	n/a	FR1	1	R1006P
1520.864	1.617	882657	WORD	n/a	wordpools/wordpool_EN.txt	ROOT	12	14	[0, 0, 0]	n/a	FR1	1	R1006P
1522.481	0.001	883466	DISTRACT_START	n/a	n/a	n/a	-999	14	[0, 0, 0]	n/a	FR1	1	R1006P
1522.482	0.016	883466	START	n/a	n/a	n/a	-999	15	[-999, -999, -999]	n/a	FR1	1	R1006P
1522.498	9.552	883474	PROB	9.552	n/a	n/a	-999	15	[4, 9, 4]	17	FR1	1	R1006P
1532.05	8.134	888250	PROB	8.134	n/a	n/a	-999	15	[4, 3, 9]	16	FR1	1	R1006P
1540.184	15.019	892317	PROB	15.019	n/a	n/a	-999	15	[8, 2, 7]	17	FR1	1	R1006P
1555.203	0.018	899826	STOP	n/a	n/a	n/a	-999	15	[-999, -999, -999]	n/a	FR1	1	R1006P
1555.221	1.084	899835	DISTRACT_END	n/a	n/a	n/a	-999	14	[0, 0, 0]	n/a	FR1	1	R1006P
1556.305	15.53	900377	REC_START	n/a	n/a	n/a	-999	14	[0, 0, 0]	n/a	FR1	1	R1006P
1571.835	14.48	908142	REC_WORD_VV	14.48	n/a	<>	-999	14	[0, 0, 0]	n/a	FR1	1	R1006P
1586.315	14.265	915381	REC_END	n/a	n/a	n/a	-999	14	[0, 0, 0]	n/a	FR1	1	R1006P
1600.58	0.0	922513	COUNTDOWN_START	n/a	n/a	n/a	-999	15	[0, 0, 0]	n/a	FR1	1	R1006P
1600.58	10.428	922513	TRIAL	n/a	n/a	n/a	-999	15	[0, 0, 0]	n/a	FR1	1	R1006P
1611.008	0.006	927727	COUNTDOWN_END	n/a	n/a	n/a	-999	15	[0, 0, 0]	n/a	FR1	1	R1006P
1611.014	2.384	927730	ORIENT	n/a	n/a	n/a	-999	15	[0, 0, 0]	n/a	FR1	1	R1006P
1613.398	2.401	928922	WORD	n/a	wordpools/wordpool_EN.txt	CUP	1	15	[0, 0, 0]	n/a	FR1	1	R1006P
1615.799	2.583	930122	WORD	n/a	wordpools/wordpool_EN.txt	SOUP	2	15	[0, 0, 0]	n/a	FR1	1	R1006P
1618.382	2.568	931414	WORD	n/a	wordpools/wordpool_EN.txt	SLUSH	3	15	[0, 0, 0]	n/a	FR1	1	R1006P
1620.95	2.4	932698	WORD	n/a	wordpools/wordpool_EN.txt	BRUSH	4	15	[0, 0, 0]	n/a	FR1	1	R1006P
1623.35	2.584	933898	WORD	n/a	wordpools/wordpool_EN.txt	FRUIT	5	15	[0, 0, 0]	n/a	FR1	1	R1006P
1625.934	2.467	935190	WORD	n/a	wordpools/wordpool_EN.txt	THUMB	6	15	[0, 0, 0]	n/a	FR1	1	R1006P
1628.401	2.434	936423	WORD	n/a	wordpools/wordpool_EN.txt	SUIT	7	15	[0, 0, 0]	n/a	FR1	1	R1006P
1630.835	2.517	937640	WORD	n/a	wordpools/wordpool_EN.txt	PLATE	8	15	[0, 0, 0]	n/a	FR1	1	R1006P
1633.352	2.467	938899	WORD	n/a	wordpools/wordpool_EN.txt	GRAPE	9	15	[0, 0, 0]	n/a	FR1	1	R1006P
1635.819	2.601	940132	WORD	n/a	wordpools/wordpool_EN.txt	CHEEK	10	15	[0, 0, 0]	n/a	FR1	1	R1006P
1638.42	2.384	941432	WORD	n/a	wordpools/wordpool_EN.txt	VASE	11	15	[0, 0, 0]	n/a	FR1	1	R1006P
1640.804	1.616	942624	WORD	n/a	wordpools/wordpool_EN.txt	NOSE	12	15	[0, 0, 0]	n/a	FR1	1	R1006P
1642.42	0.001	943432	DISTRACT_START	n/a	n/a	n/a	-999	15	[0, 0, 0]	n/a	FR1	1	R1006P
1642.421	0.016	943433	START	n/a	n/a	n/a	-999	16	[-999, -999, -999]	n/a	FR1	1	R1006P
1642.437	3.601	943441	PROB	3.601	n/a	n/a	-999	16	[1, 1, 5]	7	FR1	1	R1006P
1646.038	10.452	945241	PROB	10.452	n/a	n/a	-999	16	[5, 1, 7]	13	FR1	1	R1006P
1656.49	13.745	950467	PROB	13.745	n/a	n/a	-999	16	[4, 7, 8]	19	FR1	1	R1006P
1670.235	0.007	957339	STOP	n/a	n/a	n/a	-999	16	[-999, -999, -999]	n/a	FR1	1	R1006P
1670.242	1.168	957343	DISTRACT_END	n/a	n/a	n/a	-999	15	[0, 0, 0]	n/a	FR1	1	R1006P
1671.41	5.173	957927	REC_START	n/a	n/a	n/a	-999	15	[0, 0, 0]	n/a	FR1	1	R1006P
1676.583	2.701	960513	REC_WORD	2.701	n/a	SUIT	-999	15	[0, 0, 0]	n/a	FR1	1	R1006P
1679.284	3.678	961863	REC_WORD_VV	3.678	n/a	<>	-999	15	[0, 0, 0]	n/a	FR1	1	R1006P
1682.962	1.205	963702	REC_WORD_VV	1.205	n/a	<>	-999	15	[0, 0, 0]	n/a	FR1	1	R1006P
1684.167	17.253	964305	REC_WORD	17.253	n/a	SUIT	-999	15	[0, 0, 0]	n/a	FR1	1	R1006P
1701.42	19.899	972931	REC_END	n/a	n/a	n/a	-999	15	[0, 0, 0]	n/a	FR1	1	R1006P
1721.319	0.0	982880	TRIAL	n/a	n/a	n/a	-999	16	[0, 0, 0]	n/a	FR1	1	R1006P
1721.319	0.0	982880	COUNTDOWN_START	n/a	n/a	n/a	-999	16	[0, 0, 0]	n/a	FR1	1	R1006P
