onset	duration	sample	trial_type	response_time	stim_file	item_name	serialpos	list	test	answer	experiment	session	subject
0.0	59.653	9300	SESS_START	n/a	n/a	n/a	-999	-999	[0, 0, 0]	n/a	FR1	3	R1060M
59.653	10.428	39125	COUNTDOWN_START	n/a	n/a	n/a	-999	-999	[0, 0, 0]	n/a	FR1	3	R1060M
70.081	3.642	44338	COUNTDOWN_END	n/a	n/a	n/a	-999	-999	[0, 0, 0]	n/a	FR1	3	R1060M
73.723	2.533	46159	PRACTICE_WORD	n/a	n/a	CAMEL	1	-1	[0, 0, 0]	n/a	FR1	3	R1060M
76.256	2.534	47426	PRACTICE_WORD	n/a	n/a	TONGUE	2	-1	[0, 0, 0]	n/a	FR1	3	R1060M
78.79	2.584	48692	PRACTICE_WORD	n/a	n/a	BEAM	3	-1	[0, 0, 0]	n/a	FR1	3	R1060M
81.374	2.384	49984	PRACTICE_WORD	n/a	n/a	WATCH	4	-1	[0, 0, 0]	n/a	FR1	3	R1060M
83.758	2.517	51176	PRACTICE_WORD	n/a	n/a	IRON	5	-1	[0, 0, 0]	n/a	FR1	3	R1060M
86.275	2.634	52435	PRACTICE_WORD	n/a	n/a	RING	6	-1	[0, 0, 0]	n/a	FR1	3	R1060M
88.909	2.534	53752	PRACTICE_WORD	n/a	n/a	RHINO	7	-1	[0, 0, 0]	n/a	FR1	3	R1060M
91.443	2.567	55019	PRACTICE_WORD	n/a	n/a	ATTIC	8	-1	[0, 0, 0]	n/a	FR1	3	R1060M
94.01	2.484	56302	PRACTICE_WORD	n/a	n/a	CHEST	9	-1	[0, 0, 0]	n/a	FR1	3	R1060M
96.494	2.534	57544	PRACTICE_WORD	n/a	n/a	WAGON	10	-1	[0, 0, 0]	n/a	FR1	3	R1060M
99.028	2.551	58811	PRACTICE_WORD	n/a	n/a	COTTON	11	-1	[0, 0, 0]	n/a	FR1	3	R1060M
101.579	1.616	60086	PRACTICE_WORD	n/a	n/a	FLOOD	12	-1	[0, 0, 0]	n/a	FR1	3	R1060M
103.195	0.0	60894	PRACTICE_DISTRACT_START	n/a	n/a	n/a	-999	-1	[0, 0, 0]	n/a	FR1	3	R1060M
103.195	0.017	60894	START	n/a	n/a	n/a	-999	-1	[-999, -999, -999]	n/a	FR1	3	R1060M
103.212	2.784	60903	PROB	2.784	n/a	n/a	-999	-1	[1, 1, 4]	6	FR1	3	R1060M
105.996	2.767	62295	PROB	2.767	n/a	n/a	-999	-1	[9, 2, 7]	16	FR1	3	R1060M
108.763	3.852	63678	PROB	3.852	n/a	n/a	-999	-1	[7, 4, 8]	19	FR1	3	R1060M
112.615	3.616	65604	PROB	3.616	n/a	n/a	-999	-1	[5, 9, 7]	21	FR1	3	R1060M
116.231	2.8	67412	PROB	2.8	n/a	n/a	-999	-1	[7, 5, 5]	17	FR1	3	R1060M
119.031	2.468	68812	PROB	2.468	n/a	n/a	-999	-1	[7, 7, 2]	16	FR1	3	R1060M
121.499	2.524	70046	PROB	2.524	n/a	n/a	-999	-1	[7, 3, 2]	12	FR1	3	R1060M
124.023	0.009	71308	STOP	n/a	n/a	n/a	-999	-1	[-999, -999, -999]	n/a	FR1	3	R1060M
124.032	0.553	71312	PRACTICE_DISTRACT_END	n/a	n/a	n/a	-999	-1	[0, 0, 0]	n/a	FR1	3	R1060M
124.585	30.514	71589	PRACTICE_REC_START	n/a	n/a	n/a	-999	-1	[0, 0, 0]	n/a	FR1	3	R1060M
155.099	14.009	86845	PRACTICE_REC_END	n/a	n/a	n/a	-999	-1	[0, 0, 0]	n/a	FR1	3	R1060M
169.108	0.0	93849	TRIAL	n/a	n/a	n/a	-999	1	[0, 0, 0]	n/a	FR1	3	R1060M
169.108	10.428	93849	COUNTDOWN_START	n/a	n/a	n/a	-999	1	[0, 0, 0]	n/a	FR1	3	R1060M
179.536	0.008	99063	COUNTDOWN_END	n/a	n/a	n/a	-999	1	[0, 0, 0]	n/a	FR1	3	R1060M
179.544	2.616	99067	ORIENT	n/a	n/a	n/a	-999	1	[0, 0, 0]	n/a	FR1	3	R1060M
182.16	2.385	100375	WORD	n/a	wordpools/wordpool_EN.txt	DRESS	1	1	[0, 0, 0]	n/a	FR1	3	R1060M
184.545	2.533	101567	WORD	n/a	wordpools/wordpool_EN.txt	TOOTH	2	1	[0, 0, 0]	n/a	FR1	3	R1060M
187.078	2.535	102833	WORD	n/a	wordpools/wordpool_EN.txt	HOLE	3	1	[0, 0, 0]	n/a	FR1	3	R1060M
189.613	2.549	104101	WORD	n/a	wordpools/wordpool_EN.txt	PASTE	4	1	[0, 0, 0]	n/a	FR1	3	R1060M
192.162	2.467	105375	WORD	n/a	wordpools/wordpool_EN.txt	DESK	5	1	[0, 0, 0]	n/a	FR1	3	R1060M
194.629	2.534	106609	WORD	n/a	wordpools/wordpool_EN.txt	PEAR	6	1	[0, 0, 0]	n/a	FR1	3	R1060M
197.163	2.467	107876	WORD	n/a	wordpools/wordpool_EN.txt	SMILE	7	1	[0, 0, 0]	n/a	FR1	3	R1060M
199.63	2.584	109109	WORD	n/a	wordpools/wordpool_EN.txt	BEAK	8	1	[0, 0, 0]	n/a	FR1	3	R1060M
202.214	2.567	110401	WORD	n/a	wordpools/wordpool_EN.txt	SHOE	9	1	[0, 0, 0]	n/a	FR1	3	R1060M
204.781	2.534	111684	WORD	n/a	wordpools/wordpool_EN.txt	PEN	10	1	[0, 0, 0]	n/a	FR1	3	R1060M
207.315	2.567	112951	WORD	n/a	wordpools/wordpool_EN.txt	PALM	11	1	[0, 0, 0]	n/a	FR1	3	R1060M
209.882	1.617	114235	WORD	n/a	wordpools/wordpool_EN.txt	FORK	12	1	[0, 0, 0]	n/a	FR1	3	R1060M
211.499	0.001	115043	DISTRACT_START	n/a	n/a	n/a	-999	1	[0, 0, 0]	n/a	FR1	3	R1060M
211.5	0.016	115044	START	n/a	n/a	n/a	-999	1	[-999, -999, -999]	n/a	FR1	3	R1060M
211.516	3.2	115052	PROB	3.2	n/a	n/a	-999	1	[9, 1, 5]	15	FR1	3	R1060M
214.716	2.384	116652	PROB	2.384	n/a	n/a	-999	1	[9, 3, 7]	19	FR1	3	R1060M
217.1	2.317	117844	PROB	2.317	n/a	n/a	-999	1	[7, 7, 3]	17	FR1	3	R1060M
219.417	2.451	119002	PROB	2.451	n/a	n/a	-999	1	[7, 7, 2]	16	FR1	3	R1060M
221.868	2.0	120227	PROB	2.0	n/a	n/a	-999	1	[1, 7, 3]	11	FR1	3	R1060M
223.868	2.984	121227	PROB	2.984	n/a	n/a	-999	1	[1, 7, 2]	10	FR1	3	R1060M
226.852	2.567	122719	PROB	2.567	n/a	n/a	-999	1	[3, 2, 7]	12	FR1	3	R1060M
229.419	2.516	124003	PROB	2.516	n/a	n/a	-999	1	[7, 2, 1]	10	FR1	3	R1060M
231.935	0.018	125261	STOP	n/a	n/a	n/a	-999	1	[-999, -999, -999]	n/a	FR1	3	R1060M
231.953	1.134	125270	DISTRACT_END	n/a	n/a	n/a	-999	1	[0, 0, 0]	n/a	FR1	3	R1060M
233.087	1.104	125837	REC_START	n/a	n/a	n/a	-999	1	[0, 0, 0]	n/a	FR1	3	R1060M
234.191	1.316	126389	REC_WORD	1.316	n/a	BEAK	-999	1	[0, 0, 0]	n/a	FR1	3	R1060M
235.507	1.46	127047	REC_WORD	1.46	n/a	SHOE	-999	1	[0, 0, 0]	n/a	FR1	3	R1060M
236.967	1.304	127777	REC_WORD	1.304	n/a	PEN	-999	1	[0, 0, 0]	n/a	FR1	3	R1060M
238.271	2.474	128428	REC_WORD	2.474	n/a	PALM	-999	1	[0, 0, 0]	n/a	FR1	3	R1060M
240.745	22.353	129665	REC_WORD	22.353	n/a	FORK	-999	1	[0, 0, 0]	n/a	FR1	3	R1060M
263.098	1.595	140841	REC_END	n/a	n/a	n/a	-999	1	[0, 0, 0]	n/a	FR1	3	R1060M
264.693	0.0	141639	TRIAL	n/a	n/a	n/a	-999	2	[0, 0, 0]	n/a	FR1	3	R1060M
264.693	10.428	141639	COUNTDOWN_START	n/a	n/a	n/a	-999	2	[0, 0, 0]	n/a	FR1	3	R1060M
275.121	0.007	146852	COUNTDOWN_END	n/a	n/a	n/a	-999	2	[0, 0, 0]	n/a	FR1	3	R1060M
275.128	2.5	146856	ORIENT	n/a	n/a	n/a	-999	2	[0, 0, 0]	n/a	FR1	3	R1060M
277.628	2.484	148106	WORD	n/a	wordpools/wordpool_EN.txt	BEAN	1	2	[0, 0, 0]	n/a	FR1	3	R1060M
280.112	2.601	149348	WORD	n/a	wordpools/wordpool_EN.txt	CRANE	2	2	[0, 0, 0]	n/a	FR1	3	R1060M
282.713	2.567	150648	WORD	n/a	wordpools/wordpool_EN.txt	GOAT	3	2	[0, 0, 0]	n/a	FR1	3	R1060M
285.28	2.617	151932	WORD	n/a	wordpools/wordpool_EN.txt	TOY	4	2	[0, 0, 0]	n/a	FR1	3	R1060M
287.897	2.551	153240	WORD	n/a	wordpools/wordpool_EN.txt	TOAD	5	2	[0, 0, 0]	n/a	FR1	3	R1060M
290.448	2.55	154515	WORD	n/a	wordpools/wordpool_EN.txt	TOAST	6	2	[0, 0, 0]	n/a	FR1	3	R1060M
292.998	2.367	155790	WORD	n/a	wordpools/wordpool_EN.txt	JAR	7	2	[0, 0, 0]	n/a	FR1	3	R1060M
295.365	2.434	156974	WORD	n/a	wordpools/wordpool_EN.txt	BRIDGE	8	2	[0, 0, 0]	n/a	FR1	3	R1060M
297.799	2.451	158191	WORD	n/a	wordpools/wordpool_EN.txt	BIRD	9	2	[0, 0, 0]	n/a	FR1	3	R1060M
300.25	2.45	159416	WORD	n/a	wordpools/wordpool_EN.txt	DUCK	10	2	[0, 0, 0]	n/a	FR1	3	R1060M
302.7	2.5	160641	WORD	n/a	wordpools/wordpool_EN.txt	COW	11	2	[0, 0, 0]	n/a	FR1	3	R1060M
305.2	1.618	161891	WORD	n/a	wordpools/wordpool_EN.txt	WORM	12	2	[0, 0, 0]	n/a	FR1	3	R1060M
306.818	0.0	162700	DISTRACT_START	n/a	n/a	n/a	-999	2	[0, 0, 0]	n/a	FR1	3	R1060M
306.818	0.016	162700	START	n/a	n/a	n/a	-999	2	[-999, -999, -999]	n/a	FR1	3	R1060M
306.834	3.168	162708	PROB	3.168	n/a	n/a	-999	2	[7, 7, 5]	19	FR1	3	R1060M
310.002	1.983	164292	PROB	1.983	n/a	n/a	-999	2	[4, 3, 2]	9	FR1	3	R1060M
311.985	1.951	165283	PROB	1.951	n/a	n/a	-999	2	[2, 4, 6]	12	FR1	3	R1060M
313.936	4.017	166259	PROB	4.017	n/a	n/a	-999	2	[5, 8, 6]	19	FR1	3	R1060M
317.953	2.901	168267	PROB	2.901	n/a	n/a	-999	2	[3, 5, 9]	17	FR1	3	R1060M
320.854	2.767	169718	PROB	2.767	n/a	n/a	-999	2	[9, 5, 8]	21	FR1	3	R1060M
323.621	6.017	171101	PROB	6.017	n/a	n/a	-999	2	[9, 8, 5]	22	FR1	3	R1060M
329.638	0.017	174109	STOP	n/a	n/a	n/a	-999	2	[-999, -999, -999]	n/a	FR1	3	R1060M
329.655	1.101	174118	DISTRACT_END	n/a	n/a	n/a	-999	2	[0, 0, 0]	n/a	FR1	3	R1060M
330.756	1.041	174668	REC_START	n/a	n/a	n/a	-999	2	[0, 0, 0]	n/a	FR1	3	R1060M
331.797	1.367	175189	REC_WORD	1.367	n/a	JAR	-999	2	[0, 0, 0]	n/a	FR1	3	R1060M
333.164	1.604	175872	REC_WORD	1.604	n/a	BRIDGE	-999	2	[0, 0, 0]	n/a	FR1	3	R1060M
334.768	3.431	176674	REC_WORD	3.431	n/a	BIRD	-999	2	[0, 0, 0]	n/a	FR1	3	R1060M
338.199	4.687	178390	REC_WORD	4.687	n/a	DUCK	-999	2	[0, 0, 0]	n/a	FR1	3	R1060M
342.886	3.098	180733	REC_WORD	3.098	n/a	COW	-999	2	[0, 0, 0]	n/a	FR1	3	R1060M
345.984	14.786	182282	REC_WORD	14.786	n/a	PEN	-999	2	[0, 0, 0]	n/a	FR1	3	R1060M
360.77	1.708	189674	REC_END	n/a	n/a	n/a	-999	2	[0, 0, 0]	n/a	FR1	3	R1060M
362.478	0.001	190528	COUNTDOWN_START	n/a	n/a	n/a	-999	3	[0, 0, 0]	n/a	FR1	3	R1060M
362.479	10.427	190529	TRIAL	n/a	n/a	n/a	-999	3	[0, 0, 0]	n/a	FR1	3	R1060M
372.906	0.008	195742	COUNTDOWN_END	n/a	n/a	n/a	-999	3	[0, 0, 0]	n/a	FR1	3	R1060M
372.914	2.4	195746	ORIENT	n/a	n/a	n/a	-999	3	[0, 0, 0]	n/a	FR1	3	R1060M
375.314	2.634	196946	WORD	n/a	wordpools/wordpool_EN.txt	TAIL	1	3	[0, 0, 0]	n/a	FR1	3	R1060M
377.948	2.517	198263	WORD	n/a	wordpools/wordpool_EN.txt	FOOD	2	3	[0, 0, 0]	n/a	FR1	3	R1060M
380.465	2.567	199521	WORD	n/a	wordpools/wordpool_EN.txt	DEER	3	3	[0, 0, 0]	n/a	FR1	3	R1060M
383.032	2.417	200805	WORD	n/a	wordpools/wordpool_EN.txt	ARK	4	3	[0, 0, 0]	n/a	FR1	3	R1060M
385.449	2.568	202013	WORD	n/a	wordpools/wordpool_EN.txt	TREE	5	3	[0, 0, 0]	n/a	FR1	3	R1060M
388.017	2.517	203297	WORD	n/a	wordpools/wordpool_EN.txt	CALF	6	3	[0, 0, 0]	n/a	FR1	3	R1060M
390.534	2.55	204556	WORD	n/a	wordpools/wordpool_EN.txt	WOOD	7	3	[0, 0, 0]	n/a	FR1	3	R1060M
393.084	2.518	205831	WORD	n/a	wordpools/wordpool_EN.txt	TIE	8	3	[0, 0, 0]	n/a	FR1	3	R1060M
395.602	2.45	207090	WORD	n/a	wordpools/wordpool_EN.txt	RAKE	9	3	[0, 0, 0]	n/a	FR1	3	R1060M
398.052	2.584	208314	WORD	n/a	wordpools/wordpool_EN.txt	PEACH	10	3	[0, 0, 0]	n/a	FR1	3	R1060M
400.636	2.383	209606	WORD	n/a	wordpools/wordpool_EN.txt	FENCE	11	3	[0, 0, 0]	n/a	FR1	3	R1060M
403.019	1.617	210798	WORD	n/a	wordpools/wordpool_EN.txt	WEB	12	3	[0, 0, 0]	n/a	FR1	3	R1060M
404.636	0.001	211606	DISTRACT_START	n/a	n/a	n/a	-999	3	[0, 0, 0]	n/a	FR1	3	R1060M
404.637	0.016	211607	START	n/a	n/a	n/a	-999	3	[-999, -999, -999]	n/a	FR1	3	R1060M
404.653	2.918	211615	PROB	2.918	n/a	n/a	-999	3	[7, 1, 9]	14	FR1	3	R1060M
407.571	2.567	213074	PROB	2.567	n/a	n/a	-999	3	[6, 7, 2]	15	FR1	3	R1060M
410.138	3.767	214357	PROB	3.767	n/a	n/a	-999	3	[9, 7, 7]	23	FR1	3	R1060M
413.905	2.651	216240	PROB	2.651	n/a	n/a	-999	3	[2, 6, 2]	10	FR1	3	R1060M
416.556	1.75	217566	PROB	1.75	n/a	n/a	-999	3	[1, 8, 2]	11	FR1	3	R1060M
418.306	1.833	218441	PROB	1.833	n/a	n/a	-999	3	[5, 5, 3]	13	FR1	3	R1060M
420.139	1.884	219357	PROB	1.884	n/a	n/a	-999	3	[4, 4, 4]	12	FR1	3	R1060M
422.023	2.535	220299	PROB	2.535	n/a	n/a	-999	3	[5, 9, 3]	17	FR1	3	R1060M
424.558	2.481	221567	PROB	2.481	n/a	n/a	-999	3	[9, 5, 8]	21	FR1	3	R1060M
427.039	0.019	222807	STOP	n/a	n/a	n/a	-999	3	[-999, -999, -999]	n/a	FR1	3	R1060M
427.058	1.1	222817	DISTRACT_END	n/a	n/a	n/a	-999	3	[0, 0, 0]	n/a	FR1	3	R1060M
428.158	1.087	223367	REC_START	n/a	n/a	n/a	-999	3	[0, 0, 0]	n/a	FR1	3	R1060M
429.245	1.606	223910	REC_WORD	1.606	n/a	RAKE	-999	3	[0, 0, 0]	n/a	FR1	3	R1060M
430.851	2.271	224713	REC_WORD	2.271	n/a	PEACH	-999	3	[0, 0, 0]	n/a	FR1	3	R1060M
433.122	2.672	225848	REC_WORD	2.672	n/a	FENCE	-999	3	[0, 0, 0]	n/a	FR1	3	R1060M
435.794	2.121	227184	REC_WORD	2.121	n/a	JAR	-999	3	[0, 0, 0]	n/a	FR1	3	R1060M
437.915	20.256	228245	REC_WORD	20.256	n/a	FOOD	-999	3	[0, 0, 0]	n/a	FR1	3	R1060M
458.171	1.509	238372	REC_END	n/a	n/a	n/a	-999	3	[0, 0, 0]	n/a	FR1	3	R1060M
459.68	0.001	239127	COUNTDOWN_START	n/a	n/a	n/a	-999	4	[0, 0, 0]	n/a	FR1	3	R1060M
459.681	10.427	239127	TRIAL	n/a	n/a	n/a	-999	4	[0, 0, 0]	n/a	FR1	3	R1060M
470.108	0.008	244340	COUNTDOWN_END	n/a	n/a	n/a	-999	4	[0, 0, 0]	n/a	FR1	3	R1060M
470.116	2.485	244344	ORIENT	n/a	n/a	n/a	-999	4	[0, 0, 0]	n/a	FR1	3	R1060M
472.601	2.582	245587	WORD	n/a	wordpools/wordpool_EN.txt	HAND	1	4	[0, 0, 0]	n/a	FR1	3	R1060M
475.183	2.451	246878	WORD	n/a	wordpools/wordpool_EN.txt	ROOF	2	4	[0, 0, 0]	n/a	FR1	3	R1060M
477.634	2.534	248103	WORD	n/a	wordpools/wordpool_EN.txt	GLASS	3	4	[0, 0, 0]	n/a	FR1	3	R1060M
480.168	2.483	249370	WORD	n/a	wordpools/wordpool_EN.txt	PIPE	4	4	[0, 0, 0]	n/a	FR1	3	R1060M
482.651	2.568	250612	WORD	n/a	wordpools/wordpool_EN.txt	BROOM	5	4	[0, 0, 0]	n/a	FR1	3	R1060M
485.219	2.617	251895	WORD	n/a	wordpools/wordpool_EN.txt	ROPE	6	4	[0, 0, 0]	n/a	FR1	3	R1060M
487.836	2.467	253204	WORD	n/a	wordpools/wordpool_EN.txt	ELF	7	4	[0, 0, 0]	n/a	FR1	3	R1060M
490.303	2.601	254437	WORD	n/a	wordpools/wordpool_EN.txt	MAT	8	4	[0, 0, 0]	n/a	FR1	3	R1060M
492.904	2.4	255738	WORD	n/a	wordpools/wordpool_EN.txt	TRAY	9	4	[0, 0, 0]	n/a	FR1	3	R1060M
495.304	2.534	256938	WORD	n/a	wordpools/wordpool_EN.txt	ROOM	10	4	[0, 0, 0]	n/a	FR1	3	R1060M
497.838	2.517	258205	WORD	n/a	wordpools/wordpool_EN.txt	STORM	11	4	[0, 0, 0]	n/a	FR1	3	R1060M
500.355	1.617	259463	WORD	n/a	wordpools/wordpool_EN.txt	WALL	12	4	[0, 0, 0]	n/a	FR1	3	R1060M
501.972	0.0	260271	DISTRACT_START	n/a	n/a	n/a	-999	4	[0, 0, 0]	n/a	FR1	3	R1060M
501.972	0.017	260271	START	n/a	n/a	n/a	-999	4	[-999, -999, -999]	n/a	FR1	3	R1060M
501.989	3.734	260280	PROB	3.734	n/a	n/a	-999	4	[4, 4, 9]	27	FR1	3	R1060M
505.723	3.067	262147	PROB	3.067	n/a	n/a	-999	4	[7, 8, 8]	23	FR1	3	R1060M
508.79	4.001	263680	PROB	4.001	n/a	n/a	-999	4	[8, 6, 3]	17	FR1	3	R1060M
512.791	4.884	265681	PROB	4.884	n/a	n/a	-999	4	[6, 8, 7]	21	FR1	3	R1060M
517.675	4.748	268123	PROB	4.748	n/a	n/a	-999	4	[8, 9, 3]	20	FR1	3	R1060M
522.423	0.02	270496	STOP	n/a	n/a	n/a	-999	4	[-999, -999, -999]	n/a	FR1	3	R1060M
522.443	1.05	270506	DISTRACT_END	n/a	n/a	n/a	-999	4	[0, 0, 0]	n/a	FR1	3	R1060M
523.493	0.605	271031	REC_START	n/a	n/a	n/a	-999	4	[0, 0, 0]	n/a	FR1	3	R1060M
524.098	1.77	271334	REC_WORD	1.77	n/a	STORM	-999	4	[0, 0, 0]	n/a	FR1	3	R1060M
525.868	8.95	272219	REC_WORD	8.95	n/a	WALL	-999	4	[0, 0, 0]	n/a	FR1	3	R1060M
534.818	6.318	276694	REC_WORD	6.318	n/a	CLASS	-999	4	[0, 0, 0]	n/a	FR1	3	R1060M
541.136	3.183	279852	REC_WORD	3.183	n/a	JUNK	-999	4	[0, 0, 0]	n/a	FR1	3	R1060M
544.319	9.186	281444	REC_WORD	9.186	n/a	PIPE	-999	4	[0, 0, 0]	n/a	FR1	3	R1060M
553.505	2.177	286037	REC_END	n/a	n/a	n/a	-999	4	[0, 0, 0]	n/a	FR1	3	R1060M
555.682	0.0	287125	TRIAL	n/a	n/a	n/a	-999	5	[0, 0, 0]	n/a	FR1	3	R1060M
555.682	10.428	287125	COUNTDOWN_START	n/a	n/a	n/a	-999	5	[0, 0, 0]	n/a	FR1	3	R1060M
566.11	0.008	292339	COUNTDOWN_END	n/a	n/a	n/a	-999	5	[0, 0, 0]	n/a	FR1	3	R1060M
566.118	2.4	292343	ORIENT	n/a	n/a	n/a	-999	5	[0, 0, 0]	n/a	FR1	3	R1060M
568.518	2.384	293543	WORD	n/a	wordpools/wordpool_EN.txt	RUG	1	5	[0, 0, 0]	n/a	FR1	3	R1060M
570.902	2.467	294735	WORD	n/a	wordpools/wordpool_EN.txt	BATH	2	5	[0, 0, 0]	n/a	FR1	3	R1060M
573.369	2.384	295968	WORD	n/a	wordpools/wordpool_EN.txt	THUMB	3	5	[0, 0, 0]	n/a	FR1	3	R1060M
575.753	2.6	297160	WORD	n/a	wordpools/wordpool_EN.txt	LAWN	4	5	[0, 0, 0]	n/a	FR1	3	R1060M
578.353	2.384	298460	WORD	n/a	wordpools/wordpool_EN.txt	MUD	5	5	[0, 0, 0]	n/a	FR1	3	R1060M
580.737	2.501	299652	WORD	n/a	wordpools/wordpool_EN.txt	DOOR	6	5	[0, 0, 0]	n/a	FR1	3	R1060M
583.238	2.433	300902	WORD	n/a	wordpools/wordpool_EN.txt	ROAD	7	5	[0, 0, 0]	n/a	FR1	3	R1060M
585.671	2.384	302119	WORD	n/a	wordpools/wordpool_EN.txt	FOOT	8	5	[0, 0, 0]	n/a	FR1	3	R1060M
588.055	2.584	303311	WORD	n/a	wordpools/wordpool_EN.txt	HORN	9	5	[0, 0, 0]	n/a	FR1	3	R1060M
590.639	2.417	304602	WORD	n/a	wordpools/wordpool_EN.txt	SOAP	10	5	[0, 0, 0]	n/a	FR1	3	R1060M
593.056	2.45	305811	WORD	n/a	wordpools/wordpool_EN.txt	CUBE	11	5	[0, 0, 0]	n/a	FR1	3	R1060M
595.506	1.618	307036	WORD	n/a	wordpools/wordpool_EN.txt	SEAT	12	5	[0, 0, 0]	n/a	FR1	3	R1060M
597.124	0.0	307845	DISTRACT_START	n/a	n/a	n/a	-999	5	[0, 0, 0]	n/a	FR1	3	R1060M
597.124	0.016	307845	START	n/a	n/a	n/a	-999	5	[-999, -999, -999]	n/a	FR1	3	R1060M
597.14	3.051	307853	PROB	3.051	n/a	n/a	-999	5	[5, 4, 8]	17	FR1	3	R1060M
600.191	2.884	309378	PROB	2.884	n/a	n/a	-999	5	[7, 5, 7]	19	FR1	3	R1060M
603.075	2.05	310820	PROB	2.05	n/a	n/a	-999	5	[3, 4, 6]	13	FR1	3	R1060M
605.125	8.102	311845	PROB	8.102	n/a	n/a	-999	5	[9, 6, 5]	21	FR1	3	R1060M
613.227	2.55	315896	PROB	2.55	n/a	n/a	-999	5	[1, 1, 4]	6	FR1	3	R1060M
615.777	2.91	317171	PROB	2.91	n/a	n/a	-999	5	[4, 5, 7]	16	FR1	3	R1060M
618.687	0.007	318626	STOP	n/a	n/a	n/a	-999	5	[-999, -999, -999]	n/a	FR1	3	R1060M
618.694	1.084	318629	DISTRACT_END	n/a	n/a	n/a	-999	5	[0, 0, 0]	n/a	FR1	3	R1060M
619.778	0.915	319171	REC_START	n/a	n/a	n/a	-999	5	[0, 0, 0]	n/a	FR1	3	R1060M
620.693	2.104	319629	REC_WORD	2.104	n/a	DOOR	-999	5	[0, 0, 0]	n/a	FR1	3	R1060M
622.797	3.896	320681	REC_WORD	3.896	n/a	RUB	-999	5	[0, 0, 0]	n/a	FR1	3	R1060M
626.693	1.956	322628	REC_WORD	1.956	n/a	ROOM	-999	5	[0, 0, 0]	n/a	FR1	3	R1060M
628.649	2.879	323606	REC_WORD	2.879	n/a	CUFF?	-999	5	[0, 0, 0]	n/a	FR1	3	R1060M
631.528	5.281	325046	REC_WORD	5.281	n/a	PHONE	-999	5	[0, 0, 0]	n/a	FR1	3	R1060M
636.809	12.982	327686	REC_WORD	12.982	n/a	SINK	-999	5	[0, 0, 0]	n/a	FR1	3	R1060M
649.791	1.643	334177	REC_END	n/a	n/a	n/a	-999	5	[0, 0, 0]	n/a	FR1	3	R1060M
651.434	0.0	334998	TRIAL	n/a	n/a	n/a	-999	6	[0, 0, 0]	n/a	FR1	3	R1060M
651.434	10.428	334998	COUNTDOWN_START	n/a	n/a	n/a	-999	6	[0, 0, 0]	n/a	FR1	3	R1060M
661.862	0.007	340212	COUNTDOWN_END	n/a	n/a	n/a	-999	6	[0, 0, 0]	n/a	FR1	3	R1060M
661.869	2.434	340215	ORIENT	n/a	n/a	n/a	-999	6	[0, 0, 0]	n/a	FR1	3	R1060M
664.303	2.517	341432	WORD	n/a	wordpools/wordpool_EN.txt	LIP	1	6	[0, 0, 0]	n/a	FR1	3	R1060M
666.82	2.467	342691	WORD	n/a	wordpools/wordpool_EN.txt	DOG	2	6	[0, 0, 0]	n/a	FR1	3	R1060M
669.287	2.384	343924	WORD	n/a	wordpools/wordpool_EN.txt	FUR	3	6	[0, 0, 0]	n/a	FR1	3	R1060M
671.671	2.517	345116	WORD	n/a	wordpools/wordpool_EN.txt	PET	4	6	[0, 0, 0]	n/a	FR1	3	R1060M
674.188	2.402	346375	WORD	n/a	wordpools/wordpool_EN.txt	GEESE	5	6	[0, 0, 0]	n/a	FR1	3	R1060M
676.59	2.416	347576	WORD	n/a	wordpools/wordpool_EN.txt	RAT	6	6	[0, 0, 0]	n/a	FR1	3	R1060M
679.006	2.417	348783	WORD	n/a	wordpools/wordpool_EN.txt	MOUTH	7	6	[0, 0, 0]	n/a	FR1	3	R1060M
681.423	2.551	349992	WORD	n/a	wordpools/wordpool_EN.txt	CHEEK	8	6	[0, 0, 0]	n/a	FR1	3	R1060M
683.974	2.568	351267	WORD	n/a	wordpools/wordpool_EN.txt	GOLD	9	6	[0, 0, 0]	n/a	FR1	3	R1060M
686.542	2.616	352551	WORD	n/a	wordpools/wordpool_EN.txt	BENCH	10	6	[0, 0, 0]	n/a	FR1	3	R1060M
689.158	2.617	353859	WORD	n/a	wordpools/wordpool_EN.txt	SKUNK	11	6	[0, 0, 0]	n/a	FR1	3	R1060M
691.775	1.617	355168	WORD	n/a	wordpools/wordpool_EN.txt	RIB	12	6	[0, 0, 0]	n/a	FR1	3	R1060M
693.392	0.001	355976	DISTRACT_START	n/a	n/a	n/a	-999	6	[0, 0, 0]	n/a	FR1	3	R1060M
693.393	0.016	355977	START	n/a	n/a	n/a	-999	6	[-999, -999, -999]	n/a	FR1	3	R1060M
693.409	3.0	355985	PROB	3.0	n/a	n/a	-999	6	[3, 2, 8]	13	FR1	3	R1060M
696.409	2.718	357484	PROB	2.718	n/a	n/a	-999	6	[4, 8, 5]	17	FR1	3	R1060M
699.127	3.017	358843	PROB	3.017	n/a	n/a	-999	6	[9, 8, 6]	23	FR1	3	R1060M
702.144	2.884	360352	PROB	2.884	n/a	n/a	-999	6	[3, 9, 6]	18	FR1	3	R1060M
705.028	2.8	361794	PROB	2.8	n/a	n/a	-999	6	[8, 9, 4]	20	FR1	3	R1060M
707.828	2.818	363194	PROB	2.818	n/a	n/a	-999	6	[5, 1, 8]	14	FR1	3	R1060M
710.646	2.417	364603	PROB	2.417	n/a	n/a	-999	6	[9, 8, 2]	19	FR1	3	R1060M
713.063	2.68	365811	PROB	2.68	n/a	n/a	-999	6	[4, 5, 7]	16	FR1	3	R1060M
715.743	0.003	367151	STOP	n/a	n/a	n/a	-999	6	[-999, -999, -999]	n/a	FR1	3	R1060M
715.746	1.085	367152	DISTRACT_END	n/a	n/a	n/a	-999	6	[0, 0, 0]	n/a	FR1	3	R1060M
716.831	1.285	367695	REC_START	n/a	n/a	n/a	-999	6	[0, 0, 0]	n/a	FR1	3	R1060M
718.116	1.287	368337	REC_WORD	1.287	n/a	RAT	-999	6	[0, 0, 0]	n/a	FR1	3	R1060M
719.403	1.648	368981	REC_WORD	1.648	n/a	ROOF	-999	6	[0, 0, 0]	n/a	FR1	3	R1060M
721.051	2.327	369805	REC_WORD	2.327	n/a	MOUTH	-999	6	[0, 0, 0]	n/a	FR1	3	R1060M
723.378	8.259	370968	REC_WORD	8.259	n/a	LIP	-999	6	[0, 0, 0]	n/a	FR1	3	R1060M
731.637	13.668	375097	REC_WORD	13.668	n/a	SKUNK	-999	6	[0, 0, 0]	n/a	FR1	3	R1060M
745.305	0.336	381931	REC_WORD	0.336	n/a	DID I SAY	-999	6	[0, 0, 0]	n/a	FR1	3	R1060M
745.641	1.199	382099	REC_WORD	1.199	n/a	MOUTH	-999	6	[0, 0, 0]	n/a	FR1	3	R1060M
746.84	1.679	382699	REC_END	n/a	n/a	n/a	-999	6	[0, 0, 0]	n/a	FR1	3	R1060M
748.519	0.001	383538	COUNTDOWN_START	n/a	n/a	n/a	-999	7	[0, 0, 0]	n/a	FR1	3	R1060M
748.52	10.427	383538	TRIAL	n/a	n/a	n/a	-999	7	[0, 0, 0]	n/a	FR1	3	R1060M
758.947	0.008	388752	COUNTDOWN_END	n/a	n/a	n/a	-999	7	[0, 0, 0]	n/a	FR1	3	R1060M
758.955	2.467	388756	ORIENT	n/a	n/a	n/a	-999	7	[0, 0, 0]	n/a	FR1	3	R1060M
761.422	2.584	389989	WORD	n/a	wordpools/wordpool_EN.txt	HEN	1	7	[0, 0, 0]	n/a	FR1	3	R1060M
764.006	2.433	391281	WORD	n/a	wordpools/wordpool_EN.txt	RICE	2	7	[0, 0, 0]	n/a	FR1	3	R1060M
766.439	2.584	392497	WORD	n/a	wordpools/wordpool_EN.txt	BLUSH	3	7	[0, 0, 0]	n/a	FR1	3	R1060M
769.023	2.451	393789	WORD	n/a	wordpools/wordpool_EN.txt	SUN	4	7	[0, 0, 0]	n/a	FR1	3	R1060M
771.474	2.6	395015	WORD	n/a	wordpools/wordpool_EN.txt	STREET	5	7	[0, 0, 0]	n/a	FR1	3	R1060M
774.074	2.451	396315	WORD	n/a	wordpools/wordpool_EN.txt	HOOK	6	7	[0, 0, 0]	n/a	FR1	3	R1060M
776.525	2.401	397540	WORD	n/a	wordpools/wordpool_EN.txt	HOSE	7	7	[0, 0, 0]	n/a	FR1	3	R1060M
778.926	2.483	398741	WORD	n/a	wordpools/wordpool_EN.txt	STORE	8	7	[0, 0, 0]	n/a	FR1	3	R1060M
781.409	2.617	399982	WORD	n/a	wordpools/wordpool_EN.txt	CAT	9	7	[0, 0, 0]	n/a	FR1	3	R1060M
784.026	2.384	401290	WORD	n/a	wordpools/wordpool_EN.txt	LAMP	10	7	[0, 0, 0]	n/a	FR1	3	R1060M
786.41	2.501	402482	WORD	n/a	wordpools/wordpool_EN.txt	STOVE	11	7	[0, 0, 0]	n/a	FR1	3	R1060M
788.911	1.617	403733	WORD	n/a	wordpools/wordpool_EN.txt	MILK	12	7	[0, 0, 0]	n/a	FR1	3	R1060M
790.528	0.001	404541	DISTRACT_START	n/a	n/a	n/a	-999	7	[0, 0, 0]	n/a	FR1	3	R1060M
790.529	0.016	404542	START	n/a	n/a	n/a	-999	7	[-999, -999, -999]	n/a	FR1	3	R1060M
790.545	2.6	404550	PROB	2.6	n/a	n/a	-999	7	[1, 2, 4]	7	FR1	3	R1060M
793.145	3.567	405850	PROB	3.567	n/a	n/a	-999	7	[7, 8, 4]	19	FR1	3	R1060M
796.712	2.684	407633	PROB	2.684	n/a	n/a	-999	7	[9, 5, 6]	20	FR1	3	R1060M
799.396	2.0	408975	PROB	2.0	n/a	n/a	-999	7	[1, 9, 8]	18	FR1	3	R1060M
801.396	1.867	409975	PROB	1.867	n/a	n/a	-999	7	[5, 4, 2]	11	FR1	3	R1060M
803.263	2.335	410908	PROB	2.335	n/a	n/a	-999	7	[4, 2, 6]	12	FR1	3	R1060M
805.598	2.15	412076	PROB	2.15	n/a	n/a	-999	7	[2, 3, 1]	6	FR1	3	R1060M
807.748	2.804	413151	PROB	2.804	n/a	n/a	-999	7	[4, 5, 4]	13	FR1	3	R1060M
810.552	0.014	414553	STOP	n/a	n/a	n/a	-999	7	[-999, -999, -999]	n/a	FR1	3	R1060M
810.566	1.183	414560	DISTRACT_END	n/a	n/a	n/a	-999	7	[0, 0, 0]	n/a	FR1	3	R1060M
811.749	0.786	415151	REC_START	n/a	n/a	n/a	-999	7	[0, 0, 0]	n/a	FR1	3	R1060M
812.535	1.098	415544	REC_WORD	1.098	n/a	CAT	-999	7	[0, 0, 0]	n/a	FR1	3	R1060M
813.633	1.266	416093	REC_WORD	1.266	n/a	LAMP	-999	7	[0, 0, 0]	n/a	FR1	3	R1060M
814.899	2.187	416726	REC_WORD	2.187	n/a	STOVE	-999	7	[0, 0, 0]	n/a	FR1	3	R1060M
817.086	2.149	417820	REC_WORD	2.149	n/a	MILK	-999	7	[0, 0, 0]	n/a	FR1	3	R1060M
819.235	6.225	418894	REC_WORD	6.225	n/a	HEAT	-999	7	[0, 0, 0]	n/a	FR1	3	R1060M
825.46	16.298	422006	REC_WORD	16.298	n/a	ROOF	-999	7	[0, 0, 0]	n/a	FR1	3	R1060M
841.758	1.546	430155	REC_END	n/a	n/a	n/a	-999	7	[0, 0, 0]	n/a	FR1	3	R1060M
843.304	0.001	430928	COUNTDOWN_START	n/a	n/a	n/a	-999	8	[0, 0, 0]	n/a	FR1	3	R1060M
843.305	10.427	430928	TRIAL	n/a	n/a	n/a	-999	8	[0, 0, 0]	n/a	FR1	3	R1060M
853.732	0.008	436142	COUNTDOWN_END	n/a	n/a	n/a	-999	8	[0, 0, 0]	n/a	FR1	3	R1060M
853.74	2.434	436146	ORIENT	n/a	n/a	n/a	-999	8	[0, 0, 0]	n/a	FR1	3	R1060M
856.174	2.6	437362	WORD	n/a	wordpools/wordpool_EN.txt	KEY	1	8	[0, 0, 0]	n/a	FR1	3	R1060M
858.774	2.551	438662	WORD	n/a	wordpools/wordpool_EN.txt	SCHOOL	2	8	[0, 0, 0]	n/a	FR1	3	R1060M
861.325	2.45	439938	WORD	n/a	wordpools/wordpool_EN.txt	PIE	3	8	[0, 0, 0]	n/a	FR1	3	R1060M
863.775	2.6	441163	WORD	n/a	wordpools/wordpool_EN.txt	VASE	4	8	[0, 0, 0]	n/a	FR1	3	R1060M
866.375	2.484	442463	WORD	n/a	wordpools/wordpool_EN.txt	STRAW	5	8	[0, 0, 0]	n/a	FR1	3	R1060M
868.859	2.534	443705	WORD	n/a	wordpools/wordpool_EN.txt	CHIEF	6	8	[0, 0, 0]	n/a	FR1	3	R1060M
871.393	2.617	444972	WORD	n/a	wordpools/wordpool_EN.txt	BOY	7	8	[0, 0, 0]	n/a	FR1	3	R1060M
874.01	2.518	446280	WORD	n/a	wordpools/wordpool_EN.txt	BAT	8	8	[0, 0, 0]	n/a	FR1	3	R1060M
876.528	2.483	447539	WORD	n/a	wordpools/wordpool_EN.txt	PHONE	9	8	[0, 0, 0]	n/a	FR1	3	R1060M
879.011	2.585	448780	WORD	n/a	wordpools/wordpool_EN.txt	NOSE	10	8	[0, 0, 0]	n/a	FR1	3	R1060M
881.596	2.616	450073	WORD	n/a	wordpools/wordpool_EN.txt	HOOF	11	8	[0, 0, 0]	n/a	FR1	3	R1060M
884.212	1.617	451381	WORD	n/a	wordpools/wordpool_EN.txt	COIN	12	8	[0, 0, 0]	n/a	FR1	3	R1060M
885.829	0.001	452189	DISTRACT_START	n/a	n/a	n/a	-999	8	[0, 0, 0]	n/a	FR1	3	R1060M
885.83	0.016	452190	START	n/a	n/a	n/a	-999	8	[-999, -999, -999]	n/a	FR1	3	R1060M
885.846	3.134	452198	PROB	3.134	n/a	n/a	-999	8	[8, 7, 3]	18	FR1	3	R1060M
888.98	1.8	453765	PROB	1.8	n/a	n/a	-999	8	[4, 4, 1]	9	FR1	3	R1060M
890.78	2.802	454664	PROB	2.802	n/a	n/a	-999	8	[2, 4, 8]	14	FR1	3	R1060M
893.582	2.233	456065	PROB	2.233	n/a	n/a	-999	8	[4, 7, 3]	14	FR1	3	R1060M
895.815	12.568	457182	PROB	12.568	n/a	n/a	-999	8	[8, 7, 6]	21	FR1	3	R1060M
908.383	0.017	463465	STOP	n/a	n/a	n/a	-999	8	[-999, -999, -999]	n/a	FR1	3	R1060M
908.4	1.068	463474	DISTRACT_END	n/a	n/a	n/a	-999	8	[0, 0, 0]	n/a	FR1	3	R1060M
909.468	1.559	464008	REC_START	n/a	n/a	n/a	-999	8	[0, 0, 0]	n/a	FR1	3	R1060M
911.027	2.192	464787	REC_WORD	2.192	n/a	CHIEF	-999	8	[0, 0, 0]	n/a	FR1	3	R1060M
913.219	2.628	465883	REC_WORD	2.628	n/a	HOOF	-999	8	[0, 0, 0]	n/a	FR1	3	R1060M
915.847	6.362	467197	REC_WORD	6.362	n/a	BAT	-999	8	[0, 0, 0]	n/a	FR1	3	R1060M
922.209	3.746	470378	REC_WORD	3.746	n/a	SCHOOL	-999	8	[0, 0, 0]	n/a	FR1	3	R1060M
925.955	10.655	472251	REC_WORD	10.655	n/a	FOAM	-999	8	[0, 0, 0]	n/a	FR1	3	R1060M
936.61	2.867	477578	REC_WORD	2.867	n/a	VASE	-999	8	[0, 0, 0]	n/a	FR1	3	R1060M
939.477	1.563	479012	REC_END	n/a	n/a	n/a	-999	8	[0, 0, 0]	n/a	FR1	3	R1060M
941.04	0.0	479793	TRIAL	n/a	n/a	n/a	-999	9	[0, 0, 0]	n/a	FR1	3	R1060M
941.04	10.428	479793	COUNTDOWN_START	n/a	n/a	n/a	-999	9	[0, 0, 0]	n/a	FR1	3	R1060M
951.468	0.007	485007	COUNTDOWN_END	n/a	n/a	n/a	-999	9	[0, 0, 0]	n/a	FR1	3	R1060M
951.475	2.567	485010	ORIENT	n/a	n/a	n/a	-999	9	[0, 0, 0]	n/a	FR1	3	R1060M
954.042	2.519	486294	WORD	n/a	wordpools/wordpool_EN.txt	BOWL	1	9	[0, 0, 0]	n/a	FR1	3	R1060M
956.561	2.566	487553	WORD	n/a	wordpools/wordpool_EN.txt	STEAK	2	9	[0, 0, 0]	n/a	FR1	3	R1060M
959.127	2.468	488836	WORD	n/a	wordpools/wordpool_EN.txt	CLOWN	3	9	[0, 0, 0]	n/a	FR1	3	R1060M
961.595	2.549	490070	WORD	n/a	wordpools/wordpool_EN.txt	EGG	4	9	[0, 0, 0]	n/a	FR1	3	R1060M
964.144	2.501	491344	WORD	n/a	wordpools/wordpool_EN.txt	BEAR	5	9	[0, 0, 0]	n/a	FR1	3	R1060M
966.645	2.584	492595	WORD	n/a	wordpools/wordpool_EN.txt	SLEEVE	6	9	[0, 0, 0]	n/a	FR1	3	R1060M
969.229	2.55	493887	WORD	n/a	wordpools/wordpool_EN.txt	CAKE	7	9	[0, 0, 0]	n/a	FR1	3	R1060M
971.779	2.434	495162	WORD	n/a	wordpools/wordpool_EN.txt	LEG	8	9	[0, 0, 0]	n/a	FR1	3	R1060M
974.213	2.484	496379	WORD	n/a	wordpools/wordpool_EN.txt	DOLL	9	9	[0, 0, 0]	n/a	FR1	3	R1060M
976.697	2.45	497621	WORD	n/a	wordpools/wordpool_EN.txt	ZOO	10	9	[0, 0, 0]	n/a	FR1	3	R1060M
979.147	2.501	498845	WORD	n/a	wordpools/wordpool_EN.txt	WHALE	11	9	[0, 0, 0]	n/a	FR1	3	R1060M
981.648	1.617	500096	WORD	n/a	wordpools/wordpool_EN.txt	PIT	12	9	[0, 0, 0]	n/a	FR1	3	R1060M
983.265	0.0	500904	DISTRACT_START	n/a	n/a	n/a	-999	9	[0, 0, 0]	n/a	FR1	3	R1060M
983.265	0.016	500904	START	n/a	n/a	n/a	-999	9	[-999, -999, -999]	n/a	FR1	3	R1060M
983.281	2.684	500912	PROB	2.684	n/a	n/a	-999	9	[3, 6, 1]	10	FR1	3	R1060M
985.965	2.201	502254	PROB	2.201	n/a	n/a	-999	9	[8, 3, 8]	19	FR1	3	R1060M
988.166	3.184	503355	PROB	3.184	n/a	n/a	-999	9	[9, 8, 9]	26	FR1	3	R1060M
991.35	1.817	504947	PROB	1.817	n/a	n/a	-999	9	[6, 1, 4]	11	FR1	3	R1060M
993.167	2.25	505855	PROB	2.25	n/a	n/a	-999	9	[9, 7, 3]	19	FR1	3	R1060M
995.417	2.567	506980	PROB	2.567	n/a	n/a	-999	9	[4, 4, 7]	15	FR1	3	R1060M
997.984	3.801	508263	PROB	3.801	n/a	n/a	-999	9	[5, 6, 2]	13	FR1	3	R1060M
1001.785	3.166	510164	PROB	3.166	n/a	n/a	-999	9	[7, 2, 6]	15	FR1	3	R1060M
1004.951	0.018	511747	STOP	n/a	n/a	n/a	-999	9	[-999, -999, -999]	n/a	FR1	3	R1060M
1004.969	1.217	511756	DISTRACT_END	n/a	n/a	n/a	-999	9	[0, 0, 0]	n/a	FR1	3	R1060M
1006.186	0.89	512364	REC_START	n/a	n/a	n/a	-999	9	[0, 0, 0]	n/a	FR1	3	R1060M
1007.076	1.355	512809	REC_WORD	1.355	n/a	DOLL	-999	9	[0, 0, 0]	n/a	FR1	3	R1060M
1008.431	1.1	513487	REC_WORD	1.1	n/a	ZOO	-999	9	[0, 0, 0]	n/a	FR1	3	R1060M
1009.531	2.449	514037	REC_WORD	2.449	n/a	WHALE	-999	9	[0, 0, 0]	n/a	FR1	3	R1060M
1011.98	2.904	515261	REC_WORD	2.904	n/a	PIT	-999	9	[0, 0, 0]	n/a	FR1	3	R1060M
1014.884	2.319	516713	REC_WORD	2.319	n/a	CHIEF	-999	9	[0, 0, 0]	n/a	FR1	3	R1060M
1017.203	13.178	517872	REC_WORD	13.178	n/a	LEG	-999	9	[0, 0, 0]	n/a	FR1	3	R1060M
1030.381	5.818	524461	REC_WORD	5.818	n/a	FOAM	-999	9	[0, 0, 0]	n/a	FR1	3	R1060M
1036.199	1.743	527370	REC_END	n/a	n/a	n/a	-999	9	[0, 0, 0]	n/a	FR1	3	R1060M
1037.942	0.0	528241	COUNTDOWN_START	n/a	n/a	n/a	-999	10	[0, 0, 0]	n/a	FR1	3	R1060M
1037.942	10.428	528241	TRIAL	n/a	n/a	n/a	-999	10	[0, 0, 0]	n/a	FR1	3	R1060M
1048.37	0.007	533455	COUNTDOWN_END	n/a	n/a	n/a	-999	10	[0, 0, 0]	n/a	FR1	3	R1060M
1048.377	2.451	533458	ORIENT	n/a	n/a	n/a	-999	10	[0, 0, 0]	n/a	FR1	3	R1060M
1050.828	2.4	534684	WORD	n/a	wordpools/wordpool_EN.txt	FLAME	1	10	[0, 0, 0]	n/a	FR1	3	R1060M
1053.228	2.484	535884	WORD	n/a	wordpools/wordpool_EN.txt	SHEEP	2	10	[0, 0, 0]	n/a	FR1	3	R1060M
1055.712	2.4	537126	WORD	n/a	wordpools/wordpool_EN.txt	WAND	3	10	[0, 0, 0]	n/a	FR1	3	R1060M
1058.112	2.452	538326	WORD	n/a	wordpools/wordpool_EN.txt	SWAMP	4	10	[0, 0, 0]	n/a	FR1	3	R1060M
1060.564	2.499	539552	WORD	n/a	wordpools/wordpool_EN.txt	CORN	5	10	[0, 0, 0]	n/a	FR1	3	R1060M
1063.063	2.502	540801	WORD	n/a	wordpools/wordpool_EN.txt	BRUSH	6	10	[0, 0, 0]	n/a	FR1	3	R1060M
1065.565	2.466	542052	WORD	n/a	wordpools/wordpool_EN.txt	SKY	7	10	[0, 0, 0]	n/a	FR1	3	R1060M
1068.031	2.552	543285	WORD	n/a	wordpools/wordpool_EN.txt	TENT	8	10	[0, 0, 0]	n/a	FR1	3	R1060M
1070.583	2.582	544561	WORD	n/a	wordpools/wordpool_EN.txt	OAK	9	10	[0, 0, 0]	n/a	FR1	3	R1060M
1073.165	2.451	545852	WORD	n/a	wordpools/wordpool_EN.txt	JEEP	10	10	[0, 0, 0]	n/a	FR1	3	R1060M
1075.616	2.5	547077	WORD	n/a	wordpools/wordpool_EN.txt	CROW	11	10	[0, 0, 0]	n/a	FR1	3	R1060M
1078.116	1.617	548327	WORD	n/a	wordpools/wordpool_EN.txt	LAKE	12	10	[0, 0, 0]	n/a	FR1	3	R1060M
1079.733	0.001	549136	DISTRACT_START	n/a	n/a	n/a	-999	10	[0, 0, 0]	n/a	FR1	3	R1060M
1079.734	0.016	549136	START	n/a	n/a	n/a	-999	10	[-999, -999, -999]	n/a	FR1	3	R1060M
1079.75	2.567	549144	PROB	2.567	n/a	n/a	-999	10	[5, 1, 5]	11	FR1	3	R1060M
1082.317	2.151	550428	PROB	2.151	n/a	n/a	-999	10	[1, 5, 8]	14	FR1	3	R1060M
1084.468	5.251	551503	PROB	5.251	n/a	n/a	-999	10	[2, 8, 6]	16	FR1	3	R1060M
1089.719	3.0	554128	PROB	3.0	n/a	n/a	-999	10	[1, 5, 6]	12	FR1	3	R1060M
1092.719	2.234	555628	PROB	2.234	n/a	n/a	-999	10	[4, 2, 4]	10	FR1	3	R1060M
1094.953	2.534	556745	PROB	2.534	n/a	n/a	-999	10	[3, 1, 3]	7	FR1	3	R1060M
1097.487	2.432	558012	PROB	2.432	n/a	n/a	-999	10	[9, 5, 2]	16	FR1	3	R1060M
1099.919	0.018	559228	STOP	n/a	n/a	n/a	-999	10	[-999, -999, -999]	n/a	FR1	3	R1060M
1099.937	1.051	559237	DISTRACT_END	n/a	n/a	n/a	-999	10	[0, 0, 0]	n/a	FR1	3	R1060M
1100.988	0.784	559762	REC_START	n/a	n/a	n/a	-999	10	[0, 0, 0]	n/a	FR1	3	R1060M
1101.772	0.939	560154	REC_WORD	0.939	n/a	BRUSH	-999	10	[0, 0, 0]	n/a	FR1	3	R1060M
1102.711	1.365	560624	REC_WORD	1.365	n/a	SKY	-999	10	[0, 0, 0]	n/a	FR1	3	R1060M
1104.076	5.403	561306	REC_WORD	5.403	n/a	TENT	-999	10	[0, 0, 0]	n/a	FR1	3	R1060M
1109.479	13.703	564008	REC_WORD	13.703	n/a	CROW	-999	10	[0, 0, 0]	n/a	FR1	3	R1060M
1123.182	7.815	570859	REC_WORD	7.815	n/a	HOOF	-999	10	[0, 0, 0]	n/a	FR1	3	R1060M
1130.997	1.53	574766	REC_END	n/a	n/a	n/a	-999	10	[0, 0, 0]	n/a	FR1	3	R1060M
1132.527	0.0	575531	COUNTDOWN_START	n/a	n/a	n/a	-999	11	[0, 0, 0]	n/a	FR1	3	R1060M
1132.527	10.428	575531	TRIAL	n/a	n/a	n/a	-999	11	[0, 0, 0]	n/a	FR1	3	R1060M
1142.955	0.007	580745	COUNTDOWN_END	n/a	n/a	n/a	-999	11	[0, 0, 0]	n/a	FR1	3	R1060M
1142.962	2.551	580748	ORIENT	n/a	n/a	n/a	-999	11	[0, 0, 0]	n/a	FR1	3	R1060M
1145.513	2.6	582024	WORD	n/a	wordpools/wordpool_EN.txt	PLANE	1	11	[0, 0, 0]	n/a	FR1	3	R1060M
1148.113	2.551	583324	WORD	n/a	wordpools/wordpool_EN.txt	EAR	2	11	[0, 0, 0]	n/a	FR1	3	R1060M
1150.664	2.467	584599	WORD	n/a	wordpools/wordpool_EN.txt	STRING	3	11	[0, 0, 0]	n/a	FR1	3	R1060M
1153.131	2.584	585833	WORD	n/a	wordpools/wordpool_EN.txt	LOCK	4	11	[0, 0, 0]	n/a	FR1	3	R1060M
1155.715	2.484	587124	WORD	n/a	wordpools/wordpool_EN.txt	PLATE	5	11	[0, 0, 0]	n/a	FR1	3	R1060M
1158.199	2.483	588366	WORD	n/a	wordpools/wordpool_EN.txt	TOOL	6	11	[0, 0, 0]	n/a	FR1	3	R1060M
1160.682	2.567	589608	WORD	n/a	wordpools/wordpool_EN.txt	NEST	7	11	[0, 0, 0]	n/a	FR1	3	R1060M
1163.249	2.584	590891	WORD	n/a	wordpools/wordpool_EN.txt	EEL	8	11	[0, 0, 0]	n/a	FR1	3	R1060M
1165.833	2.484	592183	WORD	n/a	wordpools/wordpool_EN.txt	JET	9	11	[0, 0, 0]	n/a	FR1	3	R1060M
1168.317	2.484	593425	WORD	n/a	wordpools/wordpool_EN.txt	CONE	10	11	[0, 0, 0]	n/a	FR1	3	R1060M
1170.801	2.567	594667	WORD	n/a	wordpools/wordpool_EN.txt	INK	11	11	[0, 0, 0]	n/a	FR1	3	R1060M
1173.368	1.617	595950	WORD	n/a	wordpools/wordpool_EN.txt	HAWK	12	11	[0, 0, 0]	n/a	FR1	3	R1060M
1174.985	0.001	596759	DISTRACT_START	n/a	n/a	n/a	-999	11	[0, 0, 0]	n/a	FR1	3	R1060M
1174.986	0.016	596759	START	n/a	n/a	n/a	-999	11	[-999, -999, -999]	n/a	FR1	3	R1060M
1175.002	3.568	596767	PROB	3.568	n/a	n/a	-999	11	[7, 8, 6]	21	FR1	3	R1060M
1178.57	2.666	598551	PROB	2.666	n/a	n/a	-999	11	[6, 5, 5]	16	FR1	3	R1060M
1181.236	2.384	599884	PROB	2.384	n/a	n/a	-999	11	[4, 3, 4]	11	FR1	3	R1060M
1183.62	2.217	601076	PROB	2.217	n/a	n/a	-999	11	[5, 7, 8]	20	FR1	3	R1060M
1185.837	2.467	602185	PROB	2.467	n/a	n/a	-999	11	[8, 1, 3]	12	FR1	3	R1060M
1188.304	2.901	603418	PROB	2.901	n/a	n/a	-999	11	[3, 4, 5]	12	FR1	3	R1060M
1191.205	2.717	604868	PROB	2.717	n/a	n/a	-999	11	[9, 1, 5]	15	FR1	3	R1060M
1193.922	4.205	606227	PROB	4.205	n/a	n/a	-999	11	[6, 4, 8]	18	FR1	3	R1060M
1198.127	0.013	608329	STOP	n/a	n/a	n/a	-999	11	[-999, -999, -999]	n/a	FR1	3	R1060M
1198.14	1.168	608336	DISTRACT_END	n/a	n/a	n/a	-999	11	[0, 0, 0]	n/a	FR1	3	R1060M
1199.308	0.708	608920	REC_START	n/a	n/a	n/a	-999	11	[0, 0, 0]	n/a	FR1	3	R1060M
1200.016	1.447	609274	REC_WORD	1.447	n/a	TOOL	-999	11	[0, 0, 0]	n/a	FR1	3	R1060M
1201.463	1.967	609997	REC_WORD	1.967	n/a	NEST	-999	11	[0, 0, 0]	n/a	FR1	3	R1060M
1203.43	1.291	610981	REC_WORD	1.291	n/a	EAR	-999	11	[0, 0, 0]	n/a	FR1	3	R1060M
1204.721	1.508	611626	REC_WORD	1.508	n/a	HAWK	-999	11	[0, 0, 0]	n/a	FR1	3	R1060M
1206.229	10.073	612380	REC_WORD	10.073	n/a	PLANE	-999	11	[0, 0, 0]	n/a	FR1	3	R1060M
1216.302	13.015	617416	REC_WORD	13.015	n/a	JET	-999	11	[0, 0, 0]	n/a	FR1	3	R1060M
1229.317	1.629	623923	REC_END	n/a	n/a	n/a	-999	11	[0, 0, 0]	n/a	FR1	3	R1060M
1230.946	0.0	624738	COUNTDOWN_START	n/a	n/a	n/a	-999	12	[0, 0, 0]	n/a	FR1	3	R1060M
1230.946	10.428	624738	TRIAL	n/a	n/a	n/a	-999	12	[0, 0, 0]	n/a	FR1	3	R1060M
1241.374	0.007	629952	COUNTDOWN_END	n/a	n/a	n/a	-999	12	[0, 0, 0]	n/a	FR1	3	R1060M
1241.381	2.417	629955	ORIENT	n/a	n/a	n/a	-999	12	[0, 0, 0]	n/a	FR1	3	R1060M
1243.798	2.484	631163	WORD	n/a	wordpools/wordpool_EN.txt	PIG	1	12	[0, 0, 0]	n/a	FR1	3	R1060M
1246.282	2.567	632405	WORD	n/a	wordpools/wordpool_EN.txt	BAG	2	12	[0, 0, 0]	n/a	FR1	3	R1060M
1248.849	2.601	633689	WORD	n/a	wordpools/wordpool_EN.txt	TOE	3	12	[0, 0, 0]	n/a	FR1	3	R1060M
1251.45	2.534	634989	WORD	n/a	wordpools/wordpool_EN.txt	BUSH	4	12	[0, 0, 0]	n/a	FR1	3	R1060M
1253.984	2.45	636256	WORD	n/a	wordpools/wordpool_EN.txt	HILL	5	12	[0, 0, 0]	n/a	FR1	3	R1060M
1256.434	2.534	637481	WORD	n/a	wordpools/wordpool_EN.txt	GATE	6	12	[0, 0, 0]	n/a	FR1	3	R1060M
1258.968	2.384	638748	WORD	n/a	wordpools/wordpool_EN.txt	FROG	7	12	[0, 0, 0]	n/a	FR1	3	R1060M
1261.352	2.517	639940	WORD	n/a	wordpools/wordpool_EN.txt	BOOT	8	12	[0, 0, 0]	n/a	FR1	3	R1060M
1263.869	2.6	641198	WORD	n/a	wordpools/wordpool_EN.txt	GUARD	9	12	[0, 0, 0]	n/a	FR1	3	R1060M
1266.469	2.551	642498	WORD	n/a	wordpools/wordpool_EN.txt	CHIN	10	12	[0, 0, 0]	n/a	FR1	3	R1060M
1269.02	2.45	643774	WORD	n/a	wordpools/wordpool_EN.txt	CAGE	11	12	[0, 0, 0]	n/a	FR1	3	R1060M
1271.47	1.617	644999	WORD	n/a	wordpools/wordpool_EN.txt	DOCK	12	12	[0, 0, 0]	n/a	FR1	3	R1060M
1273.087	0.001	645807	DISTRACT_START	n/a	n/a	n/a	-999	12	[0, 0, 0]	n/a	FR1	3	R1060M
1273.088	0.016	645808	START	n/a	n/a	n/a	-999	12	[-999, -999, -999]	n/a	FR1	3	R1060M
1273.104	2.517	645816	PROB	2.517	n/a	n/a	-999	12	[4, 5, 1]	10	FR1	3	R1060M
1275.621	2.217	647074	PROB	2.217	n/a	n/a	-999	12	[4, 1, 5]	10	FR1	3	R1060M
1277.838	3.834	648182	PROB	3.834	n/a	n/a	-999	12	[5, 6, 2]	14	FR1	3	R1060M
1281.672	2.434	650099	PROB	2.434	n/a	n/a	-999	12	[9, 8, 2]	19	FR1	3	R1060M
1284.106	3.768	651316	PROB	3.768	n/a	n/a	-999	12	[4, 9, 7]	20	FR1	3	R1060M
1287.874	3.234	653200	PROB	3.234	n/a	n/a	-999	12	[9, 6, 5]	20	FR1	3	R1060M
1291.108	2.315	654817	PROB	2.315	n/a	n/a	-999	12	[3, 3, 1]	7	FR1	3	R1060M
1293.423	0.018	655975	STOP	n/a	n/a	n/a	-999	12	[-999, -999, -999]	n/a	FR1	3	R1060M
1293.441	1.118	655984	DISTRACT_END	n/a	n/a	n/a	-999	12	[0, 0, 0]	n/a	FR1	3	R1060M
1294.559	1.938	656542	REC_START	n/a	n/a	n/a	-999	12	[0, 0, 0]	n/a	FR1	3	R1060M
1296.497	6.298	657511	REC_WORD_VV	6.298	n/a	<>	-999	12	[0, 0, 0]	n/a	FR1	3	R1060M
1302.795	6.875	660660	REC_WORD	6.875	n/a	DOG	-999	12	[0, 0, 0]	n/a	FR1	3	R1060M
1309.67	3.299	664098	REC_WORD	3.299	n/a	FOOT	-999	12	[0, 0, 0]	n/a	FR1	3	R1060M
1312.969	6.623	665747	REC_WORD	6.623	n/a	CAGE	-999	12	[0, 0, 0]	n/a	FR1	3	R1060M
1319.592	4.977	669058	REC_WORD	4.977	n/a	YARD	-999	12	[0, 0, 0]	n/a	FR1	3	R1060M
1324.569	3.546	671547	REC_END	n/a	n/a	n/a	-999	12	[0, 0, 0]	n/a	FR1	3	R1060M
1328.115	0.0	673320	COUNTDOWN_START	n/a	n/a	n/a	-999	13	[0, 0, 0]	n/a	FR1	3	R1060M
1328.115	10.428	673320	TRIAL	n/a	n/a	n/a	-999	13	[0, 0, 0]	n/a	FR1	3	R1060M
1338.543	0.008	678533	COUNTDOWN_END	n/a	n/a	n/a	-999	13	[0, 0, 0]	n/a	FR1	3	R1060M
1338.551	2.433	678537	ORIENT	n/a	n/a	n/a	-999	13	[0, 0, 0]	n/a	FR1	3	R1060M
1340.984	2.417	679754	WORD	n/a	wordpools/wordpool_EN.txt	LAND	1	13	[0, 0, 0]	n/a	FR1	3	R1060M
1343.401	2.5	680962	WORD	n/a	wordpools/wordpool_EN.txt	SQUARE	2	13	[0, 0, 0]	n/a	FR1	3	R1060M
1345.901	2.568	682212	WORD	n/a	wordpools/wordpool_EN.txt	SPOON	3	13	[0, 0, 0]	n/a	FR1	3	R1060M
1348.469	2.433	683496	WORD	n/a	wordpools/wordpool_EN.txt	GRAPE	4	13	[0, 0, 0]	n/a	FR1	3	R1060M
1350.902	2.518	684712	WORD	n/a	wordpools/wordpool_EN.txt	FARM	5	13	[0, 0, 0]	n/a	FR1	3	R1060M
1353.42	2.617	685971	WORD	n/a	wordpools/wordpool_EN.txt	STOOL	6	13	[0, 0, 0]	n/a	FR1	3	R1060M
1356.037	2.501	687280	WORD	n/a	wordpools/wordpool_EN.txt	BLOOM	7	13	[0, 0, 0]	n/a	FR1	3	R1060M
1358.538	2.383	688530	WORD	n/a	wordpools/wordpool_EN.txt	APE	8	13	[0, 0, 0]	n/a	FR1	3	R1060M
1360.921	2.45	689722	WORD	n/a	wordpools/wordpool_EN.txt	FLOOR	9	13	[0, 0, 0]	n/a	FR1	3	R1060M
1363.371	2.384	690947	WORD	n/a	wordpools/wordpool_EN.txt	RAIN	10	13	[0, 0, 0]	n/a	FR1	3	R1060M
1365.755	2.567	692138	WORD	n/a	wordpools/wordpool_EN.txt	CUP	11	13	[0, 0, 0]	n/a	FR1	3	R1060M
1368.322	1.617	693422	WORD	n/a	wordpools/wordpool_EN.txt	ROCK	12	13	[0, 0, 0]	n/a	FR1	3	R1060M
1369.939	0.001	694230	DISTRACT_START	n/a	n/a	n/a	-999	13	[0, 0, 0]	n/a	FR1	3	R1060M
1369.94	0.016	694231	START	n/a	n/a	n/a	-999	13	[-999, -999, -999]	n/a	FR1	3	R1060M
1369.956	3.635	694239	PROB	3.635	n/a	n/a	-999	13	[8, 4, 9]	21	FR1	3	R1060M
1373.591	4.633	696056	PROB	4.633	n/a	n/a	-999	13	[7, 4, 9]	20	FR1	3	R1060M
1378.224	2.851	698373	PROB	2.851	n/a	n/a	-999	13	[9, 3, 7]	19	FR1	3	R1060M
1381.075	2.2	699798	PROB	2.2	n/a	n/a	-999	13	[1, 7, 6]	14	FR1	3	R1060M
1383.275	2.517	700898	PROB	2.517	n/a	n/a	-999	13	[6, 1, 3]	10	FR1	3	R1060M
1385.792	3.618	702156	PROB	3.618	n/a	n/a	-999	13	[8, 3, 5]	16	FR1	3	R1060M
1389.41	2.669	703965	PROB	2.669	n/a	n/a	-999	13	[8, 4, 2]	14	FR1	3	R1060M
1392.079	0.015	705300	STOP	n/a	n/a	n/a	-999	13	[-999, -999, -999]	n/a	FR1	3	R1060M
1392.094	1.067	705307	DISTRACT_END	n/a	n/a	n/a	-999	13	[0, 0, 0]	n/a	FR1	3	R1060M
1393.161	0.978	705841	REC_START	n/a	n/a	n/a	-999	13	[0, 0, 0]	n/a	FR1	3	R1060M
1394.139	1.597	706330	REC_WORD	1.597	n/a	FLAME	-999	13	[0, 0, 0]	n/a	FR1	3	R1060M
1395.736	1.969	707128	REC_WORD	1.969	n/a	CUP	-999	13	[0, 0, 0]	n/a	FR1	3	R1060M
1397.705	1.796	708113	REC_WORD	1.796	n/a	ROCK	-999	13	[0, 0, 0]	n/a	FR1	3	R1060M
1399.501	19.926	709011	REC_WORD	19.926	n/a	STOOL	-999	13	[0, 0, 0]	n/a	FR1	3	R1060M
1419.427	3.746	718973	REC_WORD	3.746	n/a	YARD	-999	13	[0, 0, 0]	n/a	FR1	3	R1060M
1423.173	1.81	720846	REC_END	n/a	n/a	n/a	-999	13	[0, 0, 0]	n/a	FR1	3	R1060M
1424.983	0.001	721751	COUNTDOWN_START	n/a	n/a	n/a	-999	14	[0, 0, 0]	n/a	FR1	3	R1060M
1424.984	10.427	721751	TRIAL	n/a	n/a	n/a	-999	14	[0, 0, 0]	n/a	FR1	3	R1060M
1435.411	0.008	726965	COUNTDOWN_END	n/a	n/a	n/a	-999	14	[0, 0, 0]	n/a	FR1	3	R1060M
1435.419	2.583	726969	ORIENT	n/a	n/a	n/a	-999	14	[0, 0, 0]	n/a	FR1	3	R1060M
1438.002	2.552	728260	WORD	n/a	wordpools/wordpool_EN.txt	SEED	1	14	[0, 0, 0]	n/a	FR1	3	R1060M
1440.554	2.466	729536	WORD	n/a	wordpools/wordpool_EN.txt	PLANT	2	14	[0, 0, 0]	n/a	FR1	3	R1060M
1443.02	2.535	730769	WORD	n/a	wordpools/wordpool_EN.txt	STONE	3	14	[0, 0, 0]	n/a	FR1	3	R1060M
1445.555	2.533	732036	WORD	n/a	wordpools/wordpool_EN.txt	SLIME	4	14	[0, 0, 0]	n/a	FR1	3	R1060M
1448.088	2.384	733303	WORD	n/a	wordpools/wordpool_EN.txt	CLOCK	5	14	[0, 0, 0]	n/a	FR1	3	R1060M
1450.472	2.584	734495	WORD	n/a	wordpools/wordpool_EN.txt	STEM	6	14	[0, 0, 0]	n/a	FR1	3	R1060M
1453.056	2.583	735787	WORD	n/a	wordpools/wordpool_EN.txt	HEART	7	14	[0, 0, 0]	n/a	FR1	3	R1060M
1455.639	2.601	737078	WORD	n/a	wordpools/wordpool_EN.txt	CLAY	8	14	[0, 0, 0]	n/a	FR1	3	R1060M
1458.24	2.567	738378	WORD	n/a	wordpools/wordpool_EN.txt	MOUSE	9	14	[0, 0, 0]	n/a	FR1	3	R1060M
1460.807	2.584	739662	WORD	n/a	wordpools/wordpool_EN.txt	BOOK	10	14	[0, 0, 0]	n/a	FR1	3	R1060M
1463.391	2.4	740954	WORD	n/a	wordpools/wordpool_EN.txt	PEARL	11	14	[0, 0, 0]	n/a	FR1	3	R1060M
1465.791	1.617	742154	WORD	n/a	wordpools/wordpool_EN.txt	JUDGE	12	14	[0, 0, 0]	n/a	FR1	3	R1060M
1467.408	0.001	742962	DISTRACT_START	n/a	n/a	n/a	-999	14	[0, 0, 0]	n/a	FR1	3	R1060M
1467.409	0.016	742963	START	n/a	n/a	n/a	-999	14	[-999, -999, -999]	n/a	FR1	3	R1060M
1467.425	2.934	742971	PROB	2.934	n/a	n/a	-999	14	[4, 8, 4]	16	FR1	3	R1060M
1470.359	2.484	744438	PROB	2.484	n/a	n/a	-999	14	[6, 8, 2]	16	FR1	3	R1060M
1472.843	2.083	745679	PROB	2.083	n/a	n/a	-999	14	[7, 2, 3]	12	FR1	3	R1060M
1474.926	2.868	746721	PROB	2.868	n/a	n/a	-999	14	[7, 3, 3]	13	FR1	3	R1060M
1477.794	4.5	748155	PROB	4.5	n/a	n/a	-999	14	[4, 9, 7]	20	FR1	3	R1060M
1482.294	1.634	750405	PROB	1.634	n/a	n/a	-999	14	[1, 5, 5]	11	FR1	3	R1060M
1483.928	2.451	751222	PROB	2.451	n/a	n/a	-999	14	[6, 6, 1]	13	FR1	3	R1060M
1486.379	4.876	752447	PROB	4.876	n/a	n/a	-999	14	[7, 2, 5]	14	FR1	3	R1060M
1491.255	0.008	754885	STOP	n/a	n/a	n/a	-999	14	[-999, -999, -999]	n/a	FR1	3	R1060M
1491.263	1.167	754889	DISTRACT_END	n/a	n/a	n/a	-999	14	[0, 0, 0]	n/a	FR1	3	R1060M
1492.43	1.051	755472	REC_START	n/a	n/a	n/a	-999	14	[0, 0, 0]	n/a	FR1	3	R1060M
1493.481	1.057	755998	REC_WORD	1.057	n/a	HEART	-999	14	[0, 0, 0]	n/a	FR1	3	R1060M
1494.538	1.664	756526	REC_WORD	1.664	n/a	CLAY	-999	14	[0, 0, 0]	n/a	FR1	3	R1060M
1496.202	1.49	757358	REC_WORD	1.49	n/a	MOUSE	-999	14	[0, 0, 0]	n/a	FR1	3	R1060M
1497.692	1.371	758103	REC_WORD	1.371	n/a	BOOK	-999	14	[0, 0, 0]	n/a	FR1	3	R1060M
1499.063	1.238	758789	REC_WORD	1.238	n/a	PEARL	-999	14	[0, 0, 0]	n/a	FR1	3	R1060M
1500.301	9.759	759408	REC_WORD	9.759	n/a	JUDGE	-999	14	[0, 0, 0]	n/a	FR1	3	R1060M
1510.06	12.381	764287	REC_WORD	12.381	n/a	FOOT	-999	14	[0, 0, 0]	n/a	FR1	3	R1060M
1522.441	2.146	770477	REC_END	n/a	n/a	n/a	-999	14	[0, 0, 0]	n/a	FR1	3	R1060M
1524.587	0.0	771550	TRIAL	n/a	n/a	n/a	-999	15	[0, 0, 0]	n/a	FR1	3	R1060M
1524.587	10.428	771550	COUNTDOWN_START	n/a	n/a	n/a	-999	15	[0, 0, 0]	n/a	FR1	3	R1060M
1535.015	0.006	776764	COUNTDOWN_END	n/a	n/a	n/a	-999	15	[0, 0, 0]	n/a	FR1	3	R1060M
1535.021	2.568	776767	ORIENT	n/a	n/a	n/a	-999	15	[0, 0, 0]	n/a	FR1	3	R1060M
1537.589	2.383	778051	WORD	n/a	wordpools/wordpool_EN.txt	MOON	1	15	[0, 0, 0]	n/a	FR1	3	R1060M
1539.972	2.484	779242	WORD	n/a	wordpools/wordpool_EN.txt	CASH	2	15	[0, 0, 0]	n/a	FR1	3	R1060M
1542.456	2.451	780484	WORD	n/a	wordpools/wordpool_EN.txt	MAIL	3	15	[0, 0, 0]	n/a	FR1	3	R1060M
1544.907	2.567	781709	WORD	n/a	wordpools/wordpool_EN.txt	BOMB	4	15	[0, 0, 0]	n/a	FR1	3	R1060M
1547.474	2.567	782993	WORD	n/a	wordpools/wordpool_EN.txt	ICE	5	15	[0, 0, 0]	n/a	FR1	3	R1060M
1550.041	2.467	784276	WORD	n/a	wordpools/wordpool_EN.txt	LEAF	6	15	[0, 0, 0]	n/a	FR1	3	R1060M
1552.508	2.517	785510	WORD	n/a	wordpools/wordpool_EN.txt	MAP	7	15	[0, 0, 0]	n/a	FR1	3	R1060M
1555.025	2.601	786768	WORD	n/a	wordpools/wordpool_EN.txt	FILM	8	15	[0, 0, 0]	n/a	FR1	3	R1060M
1557.626	2.55	788069	WORD	n/a	wordpools/wordpool_EN.txt	FORT	9	15	[0, 0, 0]	n/a	FR1	3	R1060M
1560.176	2.534	789343	WORD	n/a	wordpools/wordpool_EN.txt	TRUCK	10	15	[0, 0, 0]	n/a	FR1	3	R1060M
1562.71	2.6	790610	WORD	n/a	wordpools/wordpool_EN.txt	CORD	11	15	[0, 0, 0]	n/a	FR1	3	R1060M
1565.31	1.617	791910	WORD	n/a	wordpools/wordpool_EN.txt	OAR	12	15	[0, 0, 0]	n/a	FR1	3	R1060M
1566.927	0.001	792719	DISTRACT_START	n/a	n/a	n/a	-999	15	[0, 0, 0]	n/a	FR1	3	R1060M
1566.928	0.016	792719	START	n/a	n/a	n/a	-999	15	[-999, -999, -999]	n/a	FR1	3	R1060M
1566.944	2.917	792727	PROB	2.917	n/a	n/a	-999	15	[4, 6, 5]	15	FR1	3	R1060M
1569.861	2.351	794186	PROB	2.351	n/a	n/a	-999	15	[4, 7, 1]	12	FR1	3	R1060M
1572.212	2.368	795361	PROB	2.368	n/a	n/a	-999	15	[9, 4, 1]	14	FR1	3	R1060M
1574.58	5.034	796545	PROB	5.034	n/a	n/a	-999	15	[8, 7, 6]	21	FR1	3	R1060M
1579.614	2.5	799062	PROB	2.5	n/a	n/a	-999	15	[2, 5, 1]	8	FR1	3	R1060M
1582.114	3.367	800312	PROB	3.367	n/a	n/a	-999	15	[5, 6, 6]	17	FR1	3	R1060M
1585.481	4.326	801995	PROB	4.326	n/a	n/a	-999	15	[9, 7, 7]	23	FR1	3	R1060M
1589.807	0.008	804158	STOP	n/a	n/a	n/a	-999	15	[-999, -999, -999]	n/a	FR1	3	R1060M
1589.815	1.085	804162	DISTRACT_END	n/a	n/a	n/a	-999	15	[0, 0, 0]	n/a	FR1	3	R1060M
1590.9	0.9	804705	REC_START	n/a	n/a	n/a	-999	15	[0, 0, 0]	n/a	FR1	3	R1060M
1591.8	1.628	805155	REC_WORD	1.628	n/a	ICE	-999	15	[0, 0, 0]	n/a	FR1	3	R1060M
1593.428	1.973	805969	REC_WORD	1.973	n/a	ROAD	-999	15	[0, 0, 0]	n/a	FR1	3	R1060M
1595.401	6.199	806955	REC_WORD	6.199	n/a	TRUCK	-999	15	[0, 0, 0]	n/a	FR1	3	R1060M
1601.6	19.309	810054	REC_WORD	19.309	n/a	CORE	-999	15	[0, 0, 0]	n/a	FR1	3	R1060M
1620.909	12.214	819708	REC_END	n/a	n/a	n/a	-999	15	[0, 0, 0]	n/a	FR1	3	R1060M
1633.123	0.001	825815	COUNTDOWN_START	n/a	n/a	n/a	-999	16	[0, 0, 0]	n/a	FR1	3	R1060M
1633.124	0.0	825815	TRIAL	n/a	n/a	n/a	-999	16	[0, 0, 0]	n/a	FR1	3	R1060M
