onset	duration	sample	trial_type	response_time	stim_file	item_name	serialpos	list	test	answer	experiment	session	subject
0.0	40.389	-1	SESS_START	n/a	n/a	n/a	-999	-999	[0, 0, 0]	n/a	FR1	0	R1050M
40.389	10.428	-1	COUNTDOWN_START	n/a	n/a	n/a	-999	-999	[0, 0, 0]	n/a	FR1	0	R1050M
50.817	3.508	-1	COUNTDOWN_END	n/a	n/a	n/a	-999	-999	[0, 0, 0]	n/a	FR1	0	R1050M
54.325	2.434	-1	PRACTICE_WORD	n/a	n/a	WAGON	1	-1	[0, 0, 0]	n/a	FR1	0	R1050M
56.759	2.584	-1	PRACTICE_WORD	n/a	n/a	COTTON	2	-1	[0, 0, 0]	n/a	FR1	0	R1050M
59.343	2.499	-1	PRACTICE_WORD	n/a	n/a	BEAM	3	-1	[0, 0, 0]	n/a	FR1	0	R1050M
61.842	2.485	-1	PRACTICE_WORD	n/a	n/a	CAMEL	4	-1	[0, 0, 0]	n/a	FR1	0	R1050M
64.327	2.417	-1	PRACTICE_WORD	n/a	n/a	RHINO	5	-1	[0, 0, 0]	n/a	FR1	0	R1050M
66.744	2.418	-1	PRACTICE_WORD	n/a	n/a	ATTIC	6	-1	[0, 0, 0]	n/a	FR1	0	R1050M
69.162	2.583	-1	PRACTICE_WORD	n/a	n/a	WATCH	7	-1	[0, 0, 0]	n/a	FR1	0	R1050M
71.745	2.551	-1	PRACTICE_WORD	n/a	n/a	RING	8	-1	[0, 0, 0]	n/a	FR1	0	R1050M
74.296	2.549	-1	PRACTICE_WORD	n/a	n/a	TONGUE	9	-1	[0, 0, 0]	n/a	FR1	0	R1050M
76.845	2.569	-1	PRACTICE_WORD	n/a	n/a	CHEST	10	-1	[0, 0, 0]	n/a	FR1	0	R1050M
79.414	2.382	-1	PRACTICE_WORD	n/a	n/a	IRON	11	-1	[0, 0, 0]	n/a	FR1	0	R1050M
81.796	1.602	-1	PRACTICE_WORD	n/a	n/a	FLOOD	12	-1	[0, 0, 0]	n/a	FR1	0	R1050M
83.398	0.0	-1	PRACTICE_DISTRACT_START	n/a	n/a	n/a	-999	-1	[0, 0, 0]	n/a	FR1	0	R1050M
83.398	0.016	-1	START	n/a	n/a	n/a	-999	-1	[-999, -999, -999]	n/a	FR1	0	R1050M
83.414	11.119	-1	PROB	11.119	n/a	n/a	-999	-1	[5, 7, 8]	20	FR1	0	R1050M
94.533	5.101	-1	PROB	5.101	n/a	n/a	-999	-1	[1, 9, 4]	14	FR1	0	R1050M
99.634	4.476	-1	PROB	4.476	n/a	n/a	-999	-1	[8, 1, 4]	13	FR1	0	R1050M
104.11	0.008	-1	STOP	n/a	n/a	n/a	-999	-1	[-999, -999, -999]	n/a	FR1	0	R1050M
104.118	0.585	-1	PRACTICE_DISTRACT_END	n/a	n/a	n/a	-999	-1	[0, 0, 0]	n/a	FR1	0	R1050M
104.703	30.516	-1	PRACTICE_REC_START	n/a	n/a	n/a	-999	-1	[0, 0, 0]	n/a	FR1	0	R1050M
135.219	243.886	-1	PRACTICE_REC_END	n/a	n/a	n/a	-999	-1	[0, 0, 0]	n/a	FR1	0	R1050M
379.105	0.0	23621	COUNTDOWN_START	n/a	n/a	n/a	-999	1	[0, 0, 0]	n/a	FR1	0	R1050M
379.105	10.428	23621	TRIAL	n/a	n/a	n/a	-999	1	[0, 0, 0]	n/a	FR1	0	R1050M
389.533	0.008	28835	COUNTDOWN_END	n/a	n/a	n/a	-999	1	[0, 0, 0]	n/a	FR1	0	R1050M
389.541	2.534	28839	ORIENT	n/a	n/a	n/a	-999	1	[0, 0, 0]	n/a	FR1	0	R1050M
392.075	2.533	30106	WORD	n/a	wordpools/wordpool_EN.txt	STRING	1	1	[0, 0, 0]	n/a	FR1	0	R1050M
394.608	2.617	31372	WORD	n/a	wordpools/wordpool_EN.txt	BOAT	2	1	[0, 0, 0]	n/a	FR1	0	R1050M
397.225	2.583	32681	WORD	n/a	wordpools/wordpool_EN.txt	HEN	3	1	[0, 0, 0]	n/a	FR1	0	R1050M
399.808	2.552	33972	WORD	n/a	wordpools/wordpool_EN.txt	CLIFF	4	1	[0, 0, 0]	n/a	FR1	0	R1050M
402.36	2.549	35248	WORD	n/a	wordpools/wordpool_EN.txt	STEAM	5	1	[0, 0, 0]	n/a	FR1	0	R1050M
404.909	2.435	36522	WORD	n/a	wordpools/wordpool_EN.txt	CHALK	6	1	[0, 0, 0]	n/a	FR1	0	R1050M
407.344	2.466	37740	WORD	n/a	wordpools/wordpool_EN.txt	STONE	7	1	[0, 0, 0]	n/a	FR1	0	R1050M
409.81	2.568	38973	WORD	n/a	wordpools/wordpool_EN.txt	SHEET	8	1	[0, 0, 0]	n/a	FR1	0	R1050M
412.378	2.483	40257	WORD	n/a	wordpools/wordpool_EN.txt	OWL	9	1	[0, 0, 0]	n/a	FR1	0	R1050M
414.861	2.418	41498	WORD	n/a	wordpools/wordpool_EN.txt	PEN	10	1	[0, 0, 0]	n/a	FR1	0	R1050M
417.279	2.55	42707	WORD	n/a	wordpools/wordpool_EN.txt	WHALE	11	1	[0, 0, 0]	n/a	FR1	0	R1050M
419.829	1.618	43982	WORD	n/a	wordpools/wordpool_EN.txt	GRASS	12	1	[0, 0, 0]	n/a	FR1	0	R1050M
421.447	0.001	44791	DISTRACT_START	n/a	n/a	n/a	-999	1	[0, 0, 0]	n/a	FR1	0	R1050M
421.448	0.016	44791	START	n/a	n/a	n/a	-999	1	[-999, -999, -999]	n/a	FR1	0	R1050M
421.464	7.734	44799	PROB	7.734	n/a	n/a	-999	1	[8, 7, 7]	22	FR1	0	R1050M
429.198	9.035	48666	PROB	9.035	n/a	n/a	-999	1	[2, 9, 6]	17	FR1	0	R1050M
438.233	8.612	53183	PROB	8.612	n/a	n/a	-999	1	[1, 7, 6]	14	FR1	0	R1050M
446.845	0.006	57489	STOP	n/a	n/a	n/a	-999	1	[-999, -999, -999]	n/a	FR1	0	R1050M
446.851	1.051	57492	DISTRACT_END	n/a	n/a	n/a	-999	1	[0, 0, 0]	n/a	FR1	0	R1050M
447.902	1.992	58018	REC_START	n/a	n/a	n/a	-999	1	[0, 0, 0]	n/a	FR1	0	R1050M
449.894	1.104	59014	REC_WORD	1.104	n/a	BOAT	-999	1	[0, 0, 0]	n/a	FR1	0	R1050M
450.998	1.145	59566	REC_WORD	1.145	n/a	CLIFF	-999	1	[0, 0, 0]	n/a	FR1	0	R1050M
452.143	2.449	60138	REC_WORD	2.449	n/a	STRING	-999	1	[0, 0, 0]	n/a	FR1	0	R1050M
454.592	5.144	61362	REC_WORD	5.144	n/a	STEAM	-999	1	[0, 0, 0]	n/a	FR1	0	R1050M
459.736	10.723	63934	REC_WORD	10.723	n/a	HEN	-999	1	[0, 0, 0]	n/a	FR1	0	R1050M
470.459	7.453	69296	REC_WORD	7.453	n/a	PEN	-999	1	[0, 0, 0]	n/a	FR1	0	R1050M
477.912	22.082	73022	REC_END	n/a	n/a	n/a	-999	1	[0, 0, 0]	n/a	FR1	0	R1050M
499.994	0.001	84062	COUNTDOWN_START	n/a	n/a	n/a	-999	2	[0, 0, 0]	n/a	FR1	0	R1050M
499.995	10.427	84063	TRIAL	n/a	n/a	n/a	-999	2	[0, 0, 0]	n/a	FR1	0	R1050M
510.422	0.009	89276	COUNTDOWN_END	n/a	n/a	n/a	-999	2	[0, 0, 0]	n/a	FR1	0	R1050M
510.431	2.449	89280	ORIENT	n/a	n/a	n/a	-999	2	[0, 0, 0]	n/a	FR1	0	R1050M
512.88	2.485	90505	WORD	n/a	wordpools/wordpool_EN.txt	CONE	1	2	[0, 0, 0]	n/a	FR1	0	R1050M
515.365	2.566	91747	WORD	n/a	wordpools/wordpool_EN.txt	TRASH	2	2	[0, 0, 0]	n/a	FR1	0	R1050M
517.931	2.435	93030	WORD	n/a	wordpools/wordpool_EN.txt	PLANT	3	2	[0, 0, 0]	n/a	FR1	0	R1050M
520.366	2.6	94248	WORD	n/a	wordpools/wordpool_EN.txt	SMOKE	4	2	[0, 0, 0]	n/a	FR1	0	R1050M
522.966	2.484	95548	WORD	n/a	wordpools/wordpool_EN.txt	DOG	5	2	[0, 0, 0]	n/a	FR1	0	R1050M
525.45	2.601	96789	WORD	n/a	wordpools/wordpool_EN.txt	TOAD	6	2	[0, 0, 0]	n/a	FR1	0	R1050M
528.051	2.384	98090	WORD	n/a	wordpools/wordpool_EN.txt	FLAME	7	2	[0, 0, 0]	n/a	FR1	0	R1050M
530.435	2.466	99282	WORD	n/a	wordpools/wordpool_EN.txt	WEED	8	2	[0, 0, 0]	n/a	FR1	0	R1050M
532.901	2.418	100515	WORD	n/a	wordpools/wordpool_EN.txt	BEE	9	2	[0, 0, 0]	n/a	FR1	0	R1050M
535.319	2.466	101724	WORD	n/a	wordpools/wordpool_EN.txt	SEED	10	2	[0, 0, 0]	n/a	FR1	0	R1050M
537.785	2.485	102957	WORD	n/a	wordpools/wordpool_EN.txt	BUSH	11	2	[0, 0, 0]	n/a	FR1	0	R1050M
540.27	1.616	104199	WORD	n/a	wordpools/wordpool_EN.txt	FOG	12	2	[0, 0, 0]	n/a	FR1	0	R1050M
541.886	0.001	105007	DISTRACT_START	n/a	n/a	n/a	-999	2	[0, 0, 0]	n/a	FR1	0	R1050M
541.887	0.016	105008	START	n/a	n/a	n/a	-999	2	[-999, -999, -999]	n/a	FR1	0	R1050M
541.903	6.168	105016	PROB	6.168	n/a	n/a	-999	2	[4, 5, 7]	16	FR1	0	R1050M
548.071	5.935	108099	PROB	5.935	n/a	n/a	-999	2	[7, 9, 2]	18	FR1	0	R1050M
554.006	8.504	111067	PROB	8.504	n/a	n/a	-999	2	[6, 5, 6]	17	FR1	0	R1050M
562.51	0.014	115318	STOP	n/a	n/a	n/a	-999	2	[-999, -999, -999]	n/a	FR1	0	R1050M
562.524	1.085	115325	DISTRACT_END	n/a	n/a	n/a	-999	2	[0, 0, 0]	n/a	FR1	0	R1050M
563.609	4.181	115868	REC_START	n/a	n/a	n/a	-999	2	[0, 0, 0]	n/a	FR1	0	R1050M
567.79	3.743	117958	REC_WORD	3.743	n/a	DOG	-999	2	[0, 0, 0]	n/a	FR1	0	R1050M
571.533	10.998	119830	REC_WORD	10.998	n/a	STEAM	-999	2	[0, 0, 0]	n/a	FR1	0	R1050M
582.531	11.088	125328	REC_WORD	11.088	n/a	OWL	-999	2	[0, 0, 0]	n/a	FR1	0	R1050M
593.619	26.633	130872	REC_END	n/a	n/a	n/a	-999	2	[0, 0, 0]	n/a	FR1	0	R1050M
620.252	0.0	144188	COUNTDOWN_START	n/a	n/a	n/a	-999	3	[0, 0, 0]	n/a	FR1	0	R1050M
620.252	10.428	144188	TRIAL	n/a	n/a	n/a	-999	3	[0, 0, 0]	n/a	FR1	0	R1050M
630.68	0.007	149402	COUNTDOWN_END	n/a	n/a	n/a	-999	3	[0, 0, 0]	n/a	FR1	0	R1050M
630.687	2.501	149405	ORIENT	n/a	n/a	n/a	-999	3	[0, 0, 0]	n/a	FR1	0	R1050M
633.188	2.4	150655	WORD	n/a	wordpools/wordpool_EN.txt	BRICK	1	3	[0, 0, 0]	n/a	FR1	0	R1050M
635.588	2.584	151855	WORD	n/a	wordpools/wordpool_EN.txt	CRANE	2	3	[0, 0, 0]	n/a	FR1	0	R1050M
638.172	2.467	153147	WORD	n/a	wordpools/wordpool_EN.txt	TOOL	3	3	[0, 0, 0]	n/a	FR1	0	R1050M
640.639	2.618	154381	WORD	n/a	wordpools/wordpool_EN.txt	HOSE	4	3	[0, 0, 0]	n/a	FR1	0	R1050M
643.257	2.483	155690	WORD	n/a	wordpools/wordpool_EN.txt	AXE	5	3	[0, 0, 0]	n/a	FR1	0	R1050M
645.74	2.534	156931	WORD	n/a	wordpools/wordpool_EN.txt	THUMB	6	3	[0, 0, 0]	n/a	FR1	0	R1050M
648.274	2.467	158198	WORD	n/a	wordpools/wordpool_EN.txt	VINE	7	3	[0, 0, 0]	n/a	FR1	0	R1050M
650.741	2.384	159431	WORD	n/a	wordpools/wordpool_EN.txt	SUIT	8	3	[0, 0, 0]	n/a	FR1	0	R1050M
653.125	2.467	160623	WORD	n/a	wordpools/wordpool_EN.txt	WOOD	9	3	[0, 0, 0]	n/a	FR1	0	R1050M
655.592	2.634	161857	WORD	n/a	wordpools/wordpool_EN.txt	PIPE	10	3	[0, 0, 0]	n/a	FR1	0	R1050M
658.226	2.566	163174	WORD	n/a	wordpools/wordpool_EN.txt	OAK	11	3	[0, 0, 0]	n/a	FR1	0	R1050M
660.792	1.618	164457	WORD	n/a	wordpools/wordpool_EN.txt	EEL	12	3	[0, 0, 0]	n/a	FR1	0	R1050M
662.41	0.001	165266	DISTRACT_START	n/a	n/a	n/a	-999	3	[0, 0, 0]	n/a	FR1	0	R1050M
662.411	0.016	165266	START	n/a	n/a	n/a	-999	3	[-999, -999, -999]	n/a	FR1	0	R1050M
662.427	4.034	165274	PROB	4.034	n/a	n/a	-999	3	[6, 3, 1]	10	FR1	0	R1050M
666.461	5.201	167291	PROB	5.201	n/a	n/a	-999	3	[9, 2, 7]	18	FR1	0	R1050M
671.662	4.668	169891	PROB	4.668	n/a	n/a	-999	3	[6, 1, 2]	9	FR1	0	R1050M
676.33	2.75	172225	PROB	2.75	n/a	n/a	-999	3	[2, 3, 5]	10	FR1	0	R1050M
679.08	3.876	173600	PROB	3.876	n/a	n/a	-999	3	[6, 2, 8]	16	FR1	0	R1050M
682.956	0.007	175538	STOP	n/a	n/a	n/a	-999	3	[-999, -999, -999]	n/a	FR1	0	R1050M
682.963	1.202	175542	DISTRACT_END	n/a	n/a	n/a	-999	3	[0, 0, 0]	n/a	FR1	0	R1050M
684.165	0.701	176143	REC_START	n/a	n/a	n/a	-999	3	[0, 0, 0]	n/a	FR1	0	R1050M
684.866	2.702	176493	REC_WORD	2.702	n/a	BRICK	-999	3	[0, 0, 0]	n/a	FR1	0	R1050M
687.568	1.846	177844	REC_WORD	1.846	n/a	TOOL	-999	3	[0, 0, 0]	n/a	FR1	0	R1050M
689.414	12.104	178767	REC_WORD	12.104	n/a	EEL	-999	3	[0, 0, 0]	n/a	FR1	0	R1050M
701.518	7.683	184819	REC_WORD	7.683	n/a	WOOL	-999	3	[0, 0, 0]	n/a	FR1	0	R1050M
709.201	1.439	188660	REC_WORD	1.439	n/a	THUMB	-999	3	[0, 0, 0]	n/a	FR1	0	R1050M
710.64	3.535	189379	REC_WORD	3.535	n/a	VINE	-999	3	[0, 0, 0]	n/a	FR1	0	R1050M
714.175	29.084	191147	REC_END	n/a	n/a	n/a	-999	3	[0, 0, 0]	n/a	FR1	0	R1050M
743.259	0.0	205688	TRIAL	n/a	n/a	n/a	-999	4	[0, 0, 0]	n/a	FR1	0	R1050M
743.259	10.428	205688	COUNTDOWN_START	n/a	n/a	n/a	-999	4	[0, 0, 0]	n/a	FR1	0	R1050M
753.687	0.008	210902	COUNTDOWN_END	n/a	n/a	n/a	-999	4	[0, 0, 0]	n/a	FR1	0	R1050M
753.695	2.633	210906	ORIENT	n/a	n/a	n/a	-999	4	[0, 0, 0]	n/a	FR1	0	R1050M
756.328	2.6	212222	WORD	n/a	wordpools/wordpool_EN.txt	MAP	1	4	[0, 0, 0]	n/a	FR1	0	R1050M
758.928	2.568	213522	WORD	n/a	wordpools/wordpool_EN.txt	LAKE	2	4	[0, 0, 0]	n/a	FR1	0	R1050M
761.496	2.584	214806	WORD	n/a	wordpools/wordpool_EN.txt	SNOW	3	4	[0, 0, 0]	n/a	FR1	0	R1050M
764.08	2.6	216098	WORD	n/a	wordpools/wordpool_EN.txt	TRAIN	4	4	[0, 0, 0]	n/a	FR1	0	R1050M
766.68	2.451	217398	WORD	n/a	wordpools/wordpool_EN.txt	SKUNK	5	4	[0, 0, 0]	n/a	FR1	0	R1050M
769.131	2.617	218623	WORD	n/a	wordpools/wordpool_EN.txt	CAPE	6	4	[0, 0, 0]	n/a	FR1	0	R1050M
771.748	2.384	219932	WORD	n/a	wordpools/wordpool_EN.txt	ICE	7	4	[0, 0, 0]	n/a	FR1	0	R1050M
774.132	2.5	221124	WORD	n/a	wordpools/wordpool_EN.txt	ROCK	8	4	[0, 0, 0]	n/a	FR1	0	R1050M
776.632	2.567	222373	WORD	n/a	wordpools/wordpool_EN.txt	RAIN	9	4	[0, 0, 0]	n/a	FR1	0	R1050M
779.199	2.401	223657	WORD	n/a	wordpools/wordpool_EN.txt	POLE	10	4	[0, 0, 0]	n/a	FR1	0	R1050M
781.6	2.55	224857	WORD	n/a	wordpools/wordpool_EN.txt	BAND	11	4	[0, 0, 0]	n/a	FR1	0	R1050M
784.15	1.617	226132	WORD	n/a	wordpools/wordpool_EN.txt	SLIME	12	4	[0, 0, 0]	n/a	FR1	0	R1050M
785.767	0.001	226941	DISTRACT_START	n/a	n/a	n/a	-999	4	[0, 0, 0]	n/a	FR1	0	R1050M
785.768	0.015	226941	START	n/a	n/a	n/a	-999	4	[-999, -999, -999]	n/a	FR1	0	R1050M
785.783	8.503	226949	PROB	8.503	n/a	n/a	-999	4	[9, 6, 8]	23	FR1	0	R1050M
794.286	4.167	231200	PROB	4.167	n/a	n/a	-999	4	[5, 3, 5]	13	FR1	0	R1050M
798.453	6.268	233283	PROB	6.268	n/a	n/a	-999	4	[3, 9, 8]	20	FR1	0	R1050M
804.721	4.789	236417	PROB	4.789	n/a	n/a	-999	4	[9, 8, 4]	21	FR1	0	R1050M
809.51	0.012	238812	STOP	n/a	n/a	n/a	-999	4	[-999, -999, -999]	n/a	FR1	0	R1050M
809.522	1.084	238818	DISTRACT_END	n/a	n/a	n/a	-999	4	[0, 0, 0]	n/a	FR1	0	R1050M
810.606	4.284	239360	REC_START	n/a	n/a	n/a	-999	4	[0, 0, 0]	n/a	FR1	0	R1050M
814.89	4.826	241501	REC_WORD	4.826	n/a	MAP	-999	4	[0, 0, 0]	n/a	FR1	0	R1050M
819.716	1.092	243914	REC_WORD	1.092	n/a	LAKE	-999	4	[0, 0, 0]	n/a	FR1	0	R1050M
820.808	10.497	244460	REC_WORD	10.497	n/a	SNOW	-999	4	[0, 0, 0]	n/a	FR1	0	R1050M
831.305	3.756	249708	REC_WORD	3.756	n/a	CAPE	-999	4	[0, 0, 0]	n/a	FR1	0	R1050M
835.061	5.555	251586	REC_WORD	5.555	n/a	ROCK	-999	4	[0, 0, 0]	n/a	FR1	0	R1050M
840.616	9.647	254364	REC_END	n/a	n/a	n/a	-999	4	[0, 0, 0]	n/a	FR1	0	R1050M
850.263	0.0	259187	TRIAL	n/a	n/a	n/a	-999	5	[0, 0, 0]	n/a	FR1	0	R1050M
850.263	10.428	259187	COUNTDOWN_START	n/a	n/a	n/a	-999	5	[0, 0, 0]	n/a	FR1	0	R1050M
860.691	0.008	264401	COUNTDOWN_END	n/a	n/a	n/a	-999	5	[0, 0, 0]	n/a	FR1	0	R1050M
860.699	2.383	264405	ORIENT	n/a	n/a	n/a	-999	5	[0, 0, 0]	n/a	FR1	0	R1050M
863.082	2.501	265596	WORD	n/a	wordpools/wordpool_EN.txt	PURSE	1	5	[0, 0, 0]	n/a	FR1	0	R1050M
865.583	2.417	266846	WORD	n/a	wordpools/wordpool_EN.txt	CHAIR	2	5	[0, 0, 0]	n/a	FR1	0	R1050M
868.0	2.584	268055	WORD	n/a	wordpools/wordpool_EN.txt	KITE	3	5	[0, 0, 0]	n/a	FR1	0	R1050M
870.584	2.417	269347	WORD	n/a	wordpools/wordpool_EN.txt	STOOL	4	5	[0, 0, 0]	n/a	FR1	0	R1050M
873.001	2.55	270555	WORD	n/a	wordpools/wordpool_EN.txt	CHIN	5	5	[0, 0, 0]	n/a	FR1	0	R1050M
875.551	2.433	271830	WORD	n/a	wordpools/wordpool_EN.txt	BRUSH	6	5	[0, 0, 0]	n/a	FR1	0	R1050M
877.984	2.468	273047	WORD	n/a	wordpools/wordpool_EN.txt	CANE	7	5	[0, 0, 0]	n/a	FR1	0	R1050M
880.452	2.45	274281	WORD	n/a	wordpools/wordpool_EN.txt	ROSE	8	5	[0, 0, 0]	n/a	FR1	0	R1050M
882.902	2.585	275505	WORD	n/a	wordpools/wordpool_EN.txt	DRESS	9	5	[0, 0, 0]	n/a	FR1	0	R1050M
885.487	2.432	276798	WORD	n/a	wordpools/wordpool_EN.txt	BLOOM	10	5	[0, 0, 0]	n/a	FR1	0	R1050M
887.919	2.469	278014	WORD	n/a	wordpools/wordpool_EN.txt	SQUARE	11	5	[0, 0, 0]	n/a	FR1	0	R1050M
890.388	1.617	279248	WORD	n/a	wordpools/wordpool_EN.txt	SOCK	12	5	[0, 0, 0]	n/a	FR1	0	R1050M
892.005	0.0	280057	DISTRACT_START	n/a	n/a	n/a	-999	5	[0, 0, 0]	n/a	FR1	0	R1050M
892.005	0.016	280057	START	n/a	n/a	n/a	-999	5	[-999, -999, -999]	n/a	FR1	0	R1050M
892.021	5.485	280065	PROB	5.485	n/a	n/a	-999	5	[8, 8, 5]	21	FR1	0	R1050M
897.506	4.701	282807	PROB	4.701	n/a	n/a	-999	5	[8, 5, 5]	18	FR1	0	R1050M
902.207	3.334	285157	PROB	3.334	n/a	n/a	-999	5	[4, 2, 2]	8	FR1	0	R1050M
905.541	3.567	286824	PROB	3.567	n/a	n/a	-999	5	[1, 8, 4]	12	FR1	0	R1050M
909.108	10.21	288608	PROB	10.21	n/a	n/a	-999	5	[9, 6, 8]	23	FR1	0	R1050M
919.318	0.009	293712	STOP	n/a	n/a	n/a	-999	5	[-999, -999, -999]	n/a	FR1	0	R1050M
919.327	1.15	293717	DISTRACT_END	n/a	n/a	n/a	-999	5	[0, 0, 0]	n/a	FR1	0	R1050M
920.477	2.038	294292	REC_START	n/a	n/a	n/a	-999	5	[0, 0, 0]	n/a	FR1	0	R1050M
922.515	2.146	295311	REC_WORD	2.146	n/a	CANE	-999	5	[0, 0, 0]	n/a	FR1	0	R1050M
924.661	1.547	296384	REC_WORD	1.547	n/a	ROSE	-999	5	[0, 0, 0]	n/a	FR1	0	R1050M
926.208	1.544	297157	REC_WORD	1.544	n/a	BLOOM	-999	5	[0, 0, 0]	n/a	FR1	0	R1050M
927.752	1.563	297929	REC_WORD	1.563	n/a	CHAIR	-999	5	[0, 0, 0]	n/a	FR1	0	R1050M
929.315	5.747	298711	REC_WORD	5.747	n/a	PURSE	-999	5	[0, 0, 0]	n/a	FR1	0	R1050M
935.062	9.905	301584	REC_WORD	9.905	n/a	KITE	-999	5	[0, 0, 0]	n/a	FR1	0	R1050M
944.967	5.523	306536	REC_WORD	5.523	n/a	SOCK	-999	5	[0, 0, 0]	n/a	FR1	0	R1050M
950.49	21.013	309298	REC_END	n/a	n/a	n/a	-999	5	[0, 0, 0]	n/a	FR1	0	R1050M
971.503	0.0	319804	TRIAL	n/a	n/a	n/a	-999	6	[0, 0, 0]	n/a	FR1	0	R1050M
971.503	10.428	319804	COUNTDOWN_START	n/a	n/a	n/a	-999	6	[0, 0, 0]	n/a	FR1	0	R1050M
981.931	0.007	325017	COUNTDOWN_END	n/a	n/a	n/a	-999	6	[0, 0, 0]	n/a	FR1	0	R1050M
981.938	2.518	325021	ORIENT	n/a	n/a	n/a	-999	6	[0, 0, 0]	n/a	FR1	0	R1050M
984.456	2.6	326280	WORD	n/a	wordpools/wordpool_EN.txt	POND	1	6	[0, 0, 0]	n/a	FR1	0	R1050M
987.056	2.401	327580	WORD	n/a	wordpools/wordpool_EN.txt	COW	2	6	[0, 0, 0]	n/a	FR1	0	R1050M
989.457	2.533	328780	WORD	n/a	wordpools/wordpool_EN.txt	BOY	3	6	[0, 0, 0]	n/a	FR1	0	R1050M
991.99	2.451	330046	WORD	n/a	wordpools/wordpool_EN.txt	HEART	4	6	[0, 0, 0]	n/a	FR1	0	R1050M
994.441	2.55	331272	WORD	n/a	wordpools/wordpool_EN.txt	CORD	5	6	[0, 0, 0]	n/a	FR1	0	R1050M
996.991	2.551	332547	WORD	n/a	wordpools/wordpool_EN.txt	FOAM	6	6	[0, 0, 0]	n/a	FR1	0	R1050M
999.542	2.416	333822	WORD	n/a	wordpools/wordpool_EN.txt	PEAR	7	6	[0, 0, 0]	n/a	FR1	0	R1050M
1001.958	2.385	335030	WORD	n/a	wordpools/wordpool_EN.txt	BED	8	6	[0, 0, 0]	n/a	FR1	0	R1050M
1004.343	2.566	336223	WORD	n/a	wordpools/wordpool_EN.txt	EGG	9	6	[0, 0, 0]	n/a	FR1	0	R1050M
1006.909	2.485	337506	WORD	n/a	wordpools/wordpool_EN.txt	TOAST	10	6	[0, 0, 0]	n/a	FR1	0	R1050M
1009.394	2.449	338748	WORD	n/a	wordpools/wordpool_EN.txt	HILL	11	6	[0, 0, 0]	n/a	FR1	0	R1050M
1011.843	1.602	339972	WORD	n/a	wordpools/wordpool_EN.txt	TOY	12	6	[0, 0, 0]	n/a	FR1	0	R1050M
1013.445	0.0	340773	DISTRACT_START	n/a	n/a	n/a	-999	6	[0, 0, 0]	n/a	FR1	0	R1050M
1013.445	0.016	340773	START	n/a	n/a	n/a	-999	6	[-999, -999, -999]	n/a	FR1	0	R1050M
1013.461	4.051	340781	PROB	4.051	n/a	n/a	-999	6	[7, 7, 2]	16	FR1	0	R1050M
1017.512	5.685	342807	PROB	5.685	n/a	n/a	-999	6	[4, 7, 5]	16	FR1	0	R1050M
1023.197	7.8	345649	PROB	7.8	n/a	n/a	-999	6	[9, 3, 6]	18	FR1	0	R1050M
1030.997	9.641	349549	PROB	9.641	n/a	n/a	-999	6	[8, 2, 4]	14	FR1	0	R1050M
1040.638	0.012	354369	STOP	n/a	n/a	n/a	-999	6	[-999, -999, -999]	n/a	FR1	0	R1050M
1040.65	1.183	354375	DISTRACT_END	n/a	n/a	n/a	-999	6	[0, 0, 0]	n/a	FR1	0	R1050M
1041.833	1.226	354967	REC_START	n/a	n/a	n/a	-999	6	[0, 0, 0]	n/a	FR1	0	R1050M
1043.059	0.918	355580	REC_WORD	0.918	n/a	HILL	-999	6	[0, 0, 0]	n/a	FR1	0	R1050M
1043.977	1.886	356038	REC_WORD	1.886	n/a	POND	-999	6	[0, 0, 0]	n/a	FR1	0	R1050M
1045.863	1.397	356981	REC_WORD	1.397	n/a	COW	-999	6	[0, 0, 0]	n/a	FR1	0	R1050M
1047.26	3.661	357680	REC_WORD	3.661	n/a	BOY	-999	6	[0, 0, 0]	n/a	FR1	0	R1050M
1050.921	1.491	359510	REC_WORD	1.491	n/a	EGG	-999	6	[0, 0, 0]	n/a	FR1	0	R1050M
1052.412	3.656	360256	REC_WORD	3.656	n/a	TOAST	-999	6	[0, 0, 0]	n/a	FR1	0	R1050M
1056.068	15.783	362084	REC_WORD	15.783	n/a	TOY	-999	6	[0, 0, 0]	n/a	FR1	0	R1050M
1071.851	45.414	369975	REC_END	n/a	n/a	n/a	-999	6	[0, 0, 0]	n/a	FR1	0	R1050M
1117.265	0.0	392680	TRIAL	n/a	n/a	n/a	-999	7	[0, 0, 0]	n/a	FR1	0	R1050M
1117.265	10.428	392680	COUNTDOWN_START	n/a	n/a	n/a	-999	7	[0, 0, 0]	n/a	FR1	0	R1050M
1127.693	0.007	397894	COUNTDOWN_END	n/a	n/a	n/a	-999	7	[0, 0, 0]	n/a	FR1	0	R1050M
1127.7	2.551	397898	ORIENT	n/a	n/a	n/a	-999	7	[0, 0, 0]	n/a	FR1	0	R1050M
1130.251	2.533	399173	WORD	n/a	wordpools/wordpool_EN.txt	MAT	1	7	[0, 0, 0]	n/a	FR1	0	R1050M
1132.784	2.451	400439	WORD	n/a	wordpools/wordpool_EN.txt	HOOK	2	7	[0, 0, 0]	n/a	FR1	0	R1050M
1135.235	2.451	401665	WORD	n/a	wordpools/wordpool_EN.txt	MOOSE	3	7	[0, 0, 0]	n/a	FR1	0	R1050M
1137.686	2.533	402890	WORD	n/a	wordpools/wordpool_EN.txt	SKY	4	7	[0, 0, 0]	n/a	FR1	0	R1050M
1140.219	2.467	404157	WORD	n/a	wordpools/wordpool_EN.txt	SUN	5	7	[0, 0, 0]	n/a	FR1	0	R1050M
1142.686	2.468	405390	WORD	n/a	wordpools/wordpool_EN.txt	BEACH	6	7	[0, 0, 0]	n/a	FR1	0	R1050M
1145.154	2.383	406624	WORD	n/a	wordpools/wordpool_EN.txt	DOCK	7	7	[0, 0, 0]	n/a	FR1	0	R1050M
1147.537	2.551	407816	WORD	n/a	wordpools/wordpool_EN.txt	WAVE	8	7	[0, 0, 0]	n/a	FR1	0	R1050M
1150.088	2.384	409091	WORD	n/a	wordpools/wordpool_EN.txt	FLAG	9	7	[0, 0, 0]	n/a	FR1	0	R1050M
1152.472	2.399	410283	WORD	n/a	wordpools/wordpool_EN.txt	EAR	10	7	[0, 0, 0]	n/a	FR1	0	R1050M
1154.871	2.485	411482	WORD	n/a	wordpools/wordpool_EN.txt	SPEAR	11	7	[0, 0, 0]	n/a	FR1	0	R1050M
1157.356	1.616	412725	WORD	n/a	wordpools/wordpool_EN.txt	BADGE	12	7	[0, 0, 0]	n/a	FR1	0	R1050M
1158.972	0.001	413533	DISTRACT_START	n/a	n/a	n/a	-999	7	[0, 0, 0]	n/a	FR1	0	R1050M
1158.973	0.016	413533	START	n/a	n/a	n/a	-999	7	[-999, -999, -999]	n/a	FR1	0	R1050M
1158.989	3.485	413541	PROB	3.485	n/a	n/a	-999	7	[3, 1, 2]	6	FR1	0	R1050M
1162.474	5.801	415284	PROB	5.801	n/a	n/a	-999	7	[5, 6, 6]	17	FR1	0	R1050M
1168.275	10.77	418184	PROB	10.77	n/a	n/a	-999	7	[5, 7, 8]	20	FR1	0	R1050M
1179.045	0.015	423569	STOP	n/a	n/a	n/a	-999	7	[-999, -999, -999]	n/a	FR1	0	R1050M
1179.06	1.134	423576	DISTRACT_END	n/a	n/a	n/a	-999	7	[0, 0, 0]	n/a	FR1	0	R1050M
1180.194	2.685	424143	REC_START	n/a	n/a	n/a	-999	7	[0, 0, 0]	n/a	FR1	0	R1050M
1182.879	1.757	425486	REC_WORD	1.757	n/a	HOOK	-999	7	[0, 0, 0]	n/a	FR1	0	R1050M
1184.636	2.602	426364	REC_WORD	2.602	n/a	MOOSE	-999	7	[0, 0, 0]	n/a	FR1	0	R1050M
1187.238	1.335	427665	REC_WORD	1.335	n/a	DOCK	-999	7	[0, 0, 0]	n/a	FR1	0	R1050M
1188.573	1.952	428332	REC_WORD	1.952	n/a	SUN	-999	7	[0, 0, 0]	n/a	FR1	0	R1050M
1190.525	1.598	429308	REC_WORD	1.598	n/a	WAVE	-999	7	[0, 0, 0]	n/a	FR1	0	R1050M
1192.123	8.244	430107	REC_WORD	8.244	n/a	FLAG	-999	7	[0, 0, 0]	n/a	FR1	0	R1050M
1200.367	9.845	434229	REC_WORD	9.845	n/a	BEACH	-999	7	[0, 0, 0]	n/a	FR1	0	R1050M
1210.212	4.005	439151	REC_END	n/a	n/a	n/a	-999	7	[0, 0, 0]	n/a	FR1	0	R1050M
1214.217	0.0	441154	TRIAL	n/a	n/a	n/a	-999	8	[0, 0, 0]	n/a	FR1	0	R1050M
1214.217	10.428	441154	COUNTDOWN_START	n/a	n/a	n/a	-999	8	[0, 0, 0]	n/a	FR1	0	R1050M
1224.645	0.007	446367	COUNTDOWN_END	n/a	n/a	n/a	-999	8	[0, 0, 0]	n/a	FR1	0	R1050M
1224.652	2.567	446371	ORIENT	n/a	n/a	n/a	-999	8	[0, 0, 0]	n/a	FR1	0	R1050M
1227.219	2.617	447654	WORD	n/a	wordpools/wordpool_EN.txt	PET	1	8	[0, 0, 0]	n/a	FR1	0	R1050M
1229.836	2.584	448963	WORD	n/a	wordpools/wordpool_EN.txt	HOLE	2	8	[0, 0, 0]	n/a	FR1	0	R1050M
1232.42	2.618	450255	WORD	n/a	wordpools/wordpool_EN.txt	SLEEVE	3	8	[0, 0, 0]	n/a	FR1	0	R1050M
1235.038	2.467	451564	WORD	n/a	wordpools/wordpool_EN.txt	CUBE	4	8	[0, 0, 0]	n/a	FR1	0	R1050M
1237.505	2.534	452797	WORD	n/a	wordpools/wordpool_EN.txt	NAIL	5	8	[0, 0, 0]	n/a	FR1	0	R1050M
1240.039	2.583	454064	WORD	n/a	wordpools/wordpool_EN.txt	COUCH	6	8	[0, 0, 0]	n/a	FR1	0	R1050M
1242.622	2.551	455355	WORD	n/a	wordpools/wordpool_EN.txt	BARN	7	8	[0, 0, 0]	n/a	FR1	0	R1050M
1245.173	2.599	456631	WORD	n/a	wordpools/wordpool_EN.txt	YARD	8	8	[0, 0, 0]	n/a	FR1	0	R1050M
1247.772	2.502	457930	WORD	n/a	wordpools/wordpool_EN.txt	PIN	9	8	[0, 0, 0]	n/a	FR1	0	R1050M
1250.274	2.516	459181	WORD	n/a	wordpools/wordpool_EN.txt	WALL	10	8	[0, 0, 0]	n/a	FR1	0	R1050M
1252.79	2.468	460439	WORD	n/a	wordpools/wordpool_EN.txt	LAWN	11	8	[0, 0, 0]	n/a	FR1	0	R1050M
1255.258	1.616	461673	WORD	n/a	wordpools/wordpool_EN.txt	TIE	12	8	[0, 0, 0]	n/a	FR1	0	R1050M
1256.874	0.001	462481	DISTRACT_START	n/a	n/a	n/a	-999	8	[0, 0, 0]	n/a	FR1	0	R1050M
1256.875	0.016	462482	START	n/a	n/a	n/a	-999	8	[-999, -999, -999]	n/a	FR1	0	R1050M
1256.891	3.768	462490	PROB	3.768	n/a	n/a	-999	8	[1, 4, 3]	8	FR1	0	R1050M
1260.659	2.166	464373	PROB	2.166	n/a	n/a	-999	8	[1, 5, 5]	11	FR1	0	R1050M
1262.825	5.752	465456	PROB	5.752	n/a	n/a	-999	8	[9, 8, 8]	25	FR1	0	R1050M
1268.577	3.701	468332	PROB	3.701	n/a	n/a	-999	8	[2, 1, 5]	8	FR1	0	R1050M
1272.278	4.663	470183	PROB	4.663	n/a	n/a	-999	8	[1, 9, 6]	16	FR1	0	R1050M
1276.941	0.004	472514	STOP	n/a	n/a	n/a	-999	8	[-999, -999, -999]	n/a	FR1	0	R1050M
1276.945	1.118	472516	DISTRACT_END	n/a	n/a	n/a	-999	8	[0, 0, 0]	n/a	FR1	0	R1050M
1278.063	3.973	473075	REC_START	n/a	n/a	n/a	-999	8	[0, 0, 0]	n/a	FR1	0	R1050M
1282.036	10.374	475061	REC_WORD	10.374	n/a	PIN	-999	8	[0, 0, 0]	n/a	FR1	0	R1050M
1292.41	1.105	480248	REC_WORD	1.105	n/a	NAIL	-999	8	[0, 0, 0]	n/a	FR1	0	R1050M
1293.515	8.806	480800	REC_WORD	8.806	n/a	CUBE	-999	8	[0, 0, 0]	n/a	FR1	0	R1050M
1302.321	5.76	485203	REC_WORD	5.76	n/a	SLEEVE	-999	8	[0, 0, 0]	n/a	FR1	0	R1050M
1308.081	16.607	488083	REC_END	n/a	n/a	n/a	-999	8	[0, 0, 0]	n/a	FR1	0	R1050M
1324.688	0.0	496386	TRIAL	n/a	n/a	n/a	-999	9	[0, 0, 0]	n/a	FR1	0	R1050M
1324.688	10.428	496386	COUNTDOWN_START	n/a	n/a	n/a	-999	9	[0, 0, 0]	n/a	FR1	0	R1050M
1335.116	0.008	501600	COUNTDOWN_END	n/a	n/a	n/a	-999	9	[0, 0, 0]	n/a	FR1	0	R1050M
1335.124	2.567	501604	ORIENT	n/a	n/a	n/a	-999	9	[0, 0, 0]	n/a	FR1	0	R1050M
1337.691	2.417	502887	WORD	n/a	wordpools/wordpool_EN.txt	BENCH	1	9	[0, 0, 0]	n/a	FR1	0	R1050M
1340.108	2.45	504096	WORD	n/a	wordpools/wordpool_EN.txt	CLOCK	2	9	[0, 0, 0]	n/a	FR1	0	R1050M
1342.558	2.484	505321	WORD	n/a	wordpools/wordpool_EN.txt	TRUCK	3	9	[0, 0, 0]	n/a	FR1	0	R1050M
1345.042	2.434	506563	WORD	n/a	wordpools/wordpool_EN.txt	DESK	4	9	[0, 0, 0]	n/a	FR1	0	R1050M
1347.476	2.4	507779	WORD	n/a	wordpools/wordpool_EN.txt	BATH	5	9	[0, 0, 0]	n/a	FR1	0	R1050M
1349.876	2.467	508979	WORD	n/a	wordpools/wordpool_EN.txt	BAG	6	9	[0, 0, 0]	n/a	FR1	0	R1050M
1352.343	2.55	510213	WORD	n/a	wordpools/wordpool_EN.txt	SPOON	7	9	[0, 0, 0]	n/a	FR1	0	R1050M
1354.893	2.518	511488	WORD	n/a	wordpools/wordpool_EN.txt	FUDGE	8	9	[0, 0, 0]	n/a	FR1	0	R1050M
1357.411	2.383	512747	WORD	n/a	wordpools/wordpool_EN.txt	BOX	9	9	[0, 0, 0]	n/a	FR1	0	R1050M
1359.794	2.585	513938	WORD	n/a	wordpools/wordpool_EN.txt	MUG	10	9	[0, 0, 0]	n/a	FR1	0	R1050M
1362.379	2.449	515231	WORD	n/a	wordpools/wordpool_EN.txt	HAND	11	9	[0, 0, 0]	n/a	FR1	0	R1050M
1364.828	1.602	516455	WORD	n/a	wordpools/wordpool_EN.txt	VAN	12	9	[0, 0, 0]	n/a	FR1	0	R1050M
1366.43	0.001	517256	DISTRACT_START	n/a	n/a	n/a	-999	9	[0, 0, 0]	n/a	FR1	0	R1050M
1366.431	0.015	517256	START	n/a	n/a	n/a	-999	9	[-999, -999, -999]	n/a	FR1	0	R1050M
1366.446	3.433	517264	PROB	3.433	n/a	n/a	-999	9	[3, 3, 2]	8	FR1	0	R1050M
1369.879	6.319	518980	PROB	6.319	n/a	n/a	-999	9	[3, 7, 4]	14	FR1	0	R1050M
1376.198	2.851	522140	PROB	2.851	n/a	n/a	-999	9	[4, 6, 5]	15	FR1	0	R1050M
1379.049	3.883	523565	PROB	3.883	n/a	n/a	-999	9	[6, 3, 4]	13	FR1	0	R1050M
1382.932	2.451	525506	PROB	2.451	n/a	n/a	-999	9	[2, 4, 6]	12	FR1	0	R1050M
1385.383	3.279	526732	PROB	3.279	n/a	n/a	-999	9	[6, 4, 9]	19	FR1	0	R1050M
1388.662	0.005	528371	STOP	n/a	n/a	n/a	-999	9	[-999, -999, -999]	n/a	FR1	0	R1050M
1388.667	1.167	528374	DISTRACT_END	n/a	n/a	n/a	-999	9	[0, 0, 0]	n/a	FR1	0	R1050M
1389.834	0.59	528957	REC_START	n/a	n/a	n/a	-999	9	[0, 0, 0]	n/a	FR1	0	R1050M
1390.424	1.115	529252	REC_WORD	1.115	n/a	CLOCK	-999	9	[0, 0, 0]	n/a	FR1	0	R1050M
1391.539	1.24	529810	REC_WORD	1.24	n/a	BENCH	-999	9	[0, 0, 0]	n/a	FR1	0	R1050M
1392.779	5.333	530430	REC_WORD	5.333	n/a	HAND	-999	9	[0, 0, 0]	n/a	FR1	0	R1050M
1398.112	18.059	533096	REC_WORD	18.059	n/a	BOX	-999	9	[0, 0, 0]	n/a	FR1	0	R1050M
1416.171	3.675	542125	REC_WORD	3.675	n/a	DESK	-999	9	[0, 0, 0]	n/a	FR1	0	R1050M
1419.846	19.615	543962	REC_END	n/a	n/a	n/a	-999	9	[0, 0, 0]	n/a	FR1	0	R1050M
1439.461	0.0	553769	TRIAL	n/a	n/a	n/a	-999	10	[0, 0, 0]	n/a	FR1	0	R1050M
1439.461	10.428	553769	COUNTDOWN_START	n/a	n/a	n/a	-999	10	[0, 0, 0]	n/a	FR1	0	R1050M
1449.889	0.006	558983	COUNTDOWN_END	n/a	n/a	n/a	-999	10	[0, 0, 0]	n/a	FR1	0	R1050M
1449.895	2.601	558986	ORIENT	n/a	n/a	n/a	-999	10	[0, 0, 0]	n/a	FR1	0	R1050M
1452.496	2.466	560287	WORD	n/a	wordpools/wordpool_EN.txt	VASE	1	10	[0, 0, 0]	n/a	FR1	0	R1050M
1454.962	2.385	561519	WORD	n/a	wordpools/wordpool_EN.txt	BIRD	2	10	[0, 0, 0]	n/a	FR1	0	R1050M
1457.347	2.533	562712	WORD	n/a	wordpools/wordpool_EN.txt	NEST	3	10	[0, 0, 0]	n/a	FR1	0	R1050M
1459.88	2.568	563978	WORD	n/a	wordpools/wordpool_EN.txt	SHARK	4	10	[0, 0, 0]	n/a	FR1	0	R1050M
1462.448	2.617	565262	WORD	n/a	wordpools/wordpool_EN.txt	HOUSE	5	10	[0, 0, 0]	n/a	FR1	0	R1050M
1465.065	2.401	566571	WORD	n/a	wordpools/wordpool_EN.txt	DOOR	6	10	[0, 0, 0]	n/a	FR1	0	R1050M
1467.466	2.6	567771	WORD	n/a	wordpools/wordpool_EN.txt	WING	7	10	[0, 0, 0]	n/a	FR1	0	R1050M
1470.066	2.501	569071	WORD	n/a	wordpools/wordpool_EN.txt	CAGE	8	10	[0, 0, 0]	n/a	FR1	0	R1050M
1472.567	2.567	570321	WORD	n/a	wordpools/wordpool_EN.txt	ROPE	9	10	[0, 0, 0]	n/a	FR1	0	R1050M
1475.134	2.401	571605	WORD	n/a	wordpools/wordpool_EN.txt	SEAL	10	10	[0, 0, 0]	n/a	FR1	0	R1050M
1477.535	2.5	572805	WORD	n/a	wordpools/wordpool_EN.txt	WEB	11	10	[0, 0, 0]	n/a	FR1	0	R1050M
1480.035	1.617	574055	WORD	n/a	wordpools/wordpool_EN.txt	SNAKE	12	10	[0, 0, 0]	n/a	FR1	0	R1050M
1481.652	0.001	574864	DISTRACT_START	n/a	n/a	n/a	-999	10	[0, 0, 0]	n/a	FR1	0	R1050M
1481.653	0.016	574864	START	n/a	n/a	n/a	-999	10	[-999, -999, -999]	n/a	FR1	0	R1050M
1481.669	7.267	574872	PROB	7.267	n/a	n/a	-999	10	[9, 9, 4]	22	FR1	0	R1050M
1488.936	3.0	578506	PROB	3.0	n/a	n/a	-999	10	[4, 2, 5]	11	FR1	0	R1050M
1491.936	3.119	580005	PROB	3.119	n/a	n/a	-999	10	[1, 2, 2]	5	FR1	0	R1050M
1495.055	4.9	581565	PROB	4.9	n/a	n/a	-999	10	[8, 7, 1]	16	FR1	0	R1050M
1499.955	4.93	584015	PROB	4.93	n/a	n/a	-999	10	[6, 8, 4]	15	FR1	0	R1050M
1504.885	0.003	586480	STOP	n/a	n/a	n/a	-999	10	[-999, -999, -999]	n/a	FR1	0	R1050M
1504.888	1.052	586481	DISTRACT_END	n/a	n/a	n/a	-999	10	[0, 0, 0]	n/a	FR1	0	R1050M
1505.94	1.159	587007	REC_START	n/a	n/a	n/a	-999	10	[0, 0, 0]	n/a	FR1	0	R1050M
1507.099	1.139	587587	REC_WORD	1.139	n/a	VASE	-999	10	[0, 0, 0]	n/a	FR1	0	R1050M
1508.238	1.777	588156	REC_WORD	1.777	n/a	BIRD	-999	10	[0, 0, 0]	n/a	FR1	0	R1050M
1510.015	6.407	589044	REC_WORD	6.407	n/a	HOUSE	-999	10	[0, 0, 0]	n/a	FR1	0	R1050M
1516.422	4.203	592248	REC_WORD	4.203	n/a	CAGE	-999	10	[0, 0, 0]	n/a	FR1	0	R1050M
1520.625	11.928	594349	REC_WORD	11.928	n/a	NEST	-999	10	[0, 0, 0]	n/a	FR1	0	R1050M
1532.553	3.399	600313	REC_WORD	3.399	n/a	WING	-999	10	[0, 0, 0]	n/a	FR1	0	R1050M
1535.952	21.348	602012	REC_END	n/a	n/a	n/a	-999	10	[0, 0, 0]	n/a	FR1	0	R1050M
1557.3	0.0	612686	TRIAL	n/a	n/a	n/a	-999	11	[0, 0, 0]	n/a	FR1	0	R1050M
1557.3	10.428	612686	COUNTDOWN_START	n/a	n/a	n/a	-999	11	[0, 0, 0]	n/a	FR1	0	R1050M
1567.728	0.007	617899	COUNTDOWN_END	n/a	n/a	n/a	-999	11	[0, 0, 0]	n/a	FR1	0	R1050M
1567.735	2.567	617903	ORIENT	n/a	n/a	n/a	-999	11	[0, 0, 0]	n/a	FR1	0	R1050M
1570.302	2.567	619186	WORD	n/a	wordpools/wordpool_EN.txt	SIGN	1	11	[0, 0, 0]	n/a	FR1	0	R1050M
1572.869	2.534	620470	WORD	n/a	wordpools/wordpool_EN.txt	KEY	2	11	[0, 0, 0]	n/a	FR1	0	R1050M
1575.403	2.467	621737	WORD	n/a	wordpools/wordpool_EN.txt	MOUTH	3	11	[0, 0, 0]	n/a	FR1	0	R1050M
1577.87	2.434	622970	WORD	n/a	wordpools/wordpool_EN.txt	DRUM	4	11	[0, 0, 0]	n/a	FR1	0	R1050M
1580.304	2.6	624187	WORD	n/a	wordpools/wordpool_EN.txt	JAIL	5	11	[0, 0, 0]	n/a	FR1	0	R1050M
1582.904	2.518	625487	WORD	n/a	wordpools/wordpool_EN.txt	SCHOOL	6	11	[0, 0, 0]	n/a	FR1	0	R1050M
1585.422	2.6	626746	WORD	n/a	wordpools/wordpool_EN.txt	JUDGE	7	11	[0, 0, 0]	n/a	FR1	0	R1050M
1588.022	2.534	628046	WORD	n/a	wordpools/wordpool_EN.txt	BLUSH	8	11	[0, 0, 0]	n/a	FR1	0	R1050M
1590.556	2.601	629313	WORD	n/a	wordpools/wordpool_EN.txt	FOOT	9	11	[0, 0, 0]	n/a	FR1	0	R1050M
1593.157	2.55	630613	WORD	n/a	wordpools/wordpool_EN.txt	PASTE	10	11	[0, 0, 0]	n/a	FR1	0	R1050M
1595.707	2.517	631888	WORD	n/a	wordpools/wordpool_EN.txt	INK	11	11	[0, 0, 0]	n/a	FR1	0	R1050M
1598.224	1.617	633146	WORD	n/a	wordpools/wordpool_EN.txt	BOARD	12	11	[0, 0, 0]	n/a	FR1	0	R1050M
1599.841	0.0	633955	DISTRACT_START	n/a	n/a	n/a	-999	11	[0, 0, 0]	n/a	FR1	0	R1050M
1599.841	0.016	633955	START	n/a	n/a	n/a	-999	11	[-999, -999, -999]	n/a	FR1	0	R1050M
1599.857	4.819	633963	PROB	4.819	n/a	n/a	-999	11	[8, 8, 3]	19	FR1	0	R1050M
1604.676	6.518	636372	PROB	6.518	n/a	n/a	-999	11	[3, 3, 4]	10	FR1	0	R1050M
1611.194	2.2	639631	PROB	2.2	n/a	n/a	-999	11	[1, 2, 2]	5	FR1	0	R1050M
1613.394	4.018	640731	PROB	4.018	n/a	n/a	-999	11	[3, 7, 7]	17	FR1	0	R1050M
1617.412	6.089	642740	PROB	6.089	n/a	n/a	-999	11	[2, 1, 7]	10	FR1	0	R1050M
1623.501	0.012	645784	STOP	n/a	n/a	n/a	-999	11	[-999, -999, -999]	n/a	FR1	0	R1050M
1623.513	1.051	645790	DISTRACT_END	n/a	n/a	n/a	-999	11	[0, 0, 0]	n/a	FR1	0	R1050M
1624.564	6.543	646316	REC_START	n/a	n/a	n/a	-999	11	[0, 0, 0]	n/a	FR1	0	R1050M
1631.107	9.554	649587	REC_WORD	9.554	n/a	MOUTH	-999	11	[0, 0, 0]	n/a	FR1	0	R1050M
1640.661	3.452	654364	REC_WORD	3.452	n/a	SCHOOL	-999	11	[0, 0, 0]	n/a	FR1	0	R1050M
1644.113	3.501	656090	REC_WORD	3.501	n/a	PRISON	-999	11	[0, 0, 0]	n/a	FR1	0	R1050M
1647.614	3.427	657840	REC_WORD	3.427	n/a	SIGN	-999	11	[0, 0, 0]	n/a	FR1	0	R1050M
1651.041	3.535	659553	REC_WORD	3.535	n/a	FOOT	-999	11	[0, 0, 0]	n/a	FR1	0	R1050M
1654.576	17.796	661321	REC_END	n/a	n/a	n/a	-999	11	[0, 0, 0]	n/a	FR1	0	R1050M
1672.372	0.001	670218	COUNTDOWN_START	n/a	n/a	n/a	-999	12	[0, 0, 0]	n/a	FR1	0	R1050M
1672.373	10.427	670219	TRIAL	n/a	n/a	n/a	-999	12	[0, 0, 0]	n/a	FR1	0	R1050M
1682.8	0.007	675432	COUNTDOWN_END	n/a	n/a	n/a	-999	12	[0, 0, 0]	n/a	FR1	0	R1050M
1682.807	2.451	675436	ORIENT	n/a	n/a	n/a	-999	12	[0, 0, 0]	n/a	FR1	0	R1050M
1685.258	2.583	676661	WORD	n/a	wordpools/wordpool_EN.txt	BROOM	1	12	[0, 0, 0]	n/a	FR1	0	R1050M
1687.841	2.385	677952	WORD	n/a	wordpools/wordpool_EN.txt	PANTS	2	12	[0, 0, 0]	n/a	FR1	0	R1050M
1690.226	2.4	679145	WORD	n/a	wordpools/wordpool_EN.txt	SWAMP	3	12	[0, 0, 0]	n/a	FR1	0	R1050M
1692.626	2.384	680345	WORD	n/a	wordpools/wordpool_EN.txt	BREAD	4	12	[0, 0, 0]	n/a	FR1	0	R1050M
1695.01	2.5	681537	WORD	n/a	wordpools/wordpool_EN.txt	BRANCH	5	12	[0, 0, 0]	n/a	FR1	0	R1050M
1697.51	2.501	682787	WORD	n/a	wordpools/wordpool_EN.txt	FOX	6	12	[0, 0, 0]	n/a	FR1	0	R1050M
1700.011	2.434	684037	WORD	n/a	wordpools/wordpool_EN.txt	BOWL	7	12	[0, 0, 0]	n/a	FR1	0	R1050M
1702.445	2.499	685254	WORD	n/a	wordpools/wordpool_EN.txt	CROW	8	12	[0, 0, 0]	n/a	FR1	0	R1050M
1704.944	2.552	686503	WORD	n/a	wordpools/wordpool_EN.txt	TREE	9	12	[0, 0, 0]	n/a	FR1	0	R1050M
1707.496	2.449	687779	WORD	n/a	wordpools/wordpool_EN.txt	BEAR	10	12	[0, 0, 0]	n/a	FR1	0	R1050M
1709.945	2.635	689004	WORD	n/a	wordpools/wordpool_EN.txt	SHOE	11	12	[0, 0, 0]	n/a	FR1	0	R1050M
1712.58	1.617	690321	WORD	n/a	wordpools/wordpool_EN.txt	PEA	12	12	[0, 0, 0]	n/a	FR1	0	R1050M
1714.197	0.001	691130	DISTRACT_START	n/a	n/a	n/a	-999	12	[0, 0, 0]	n/a	FR1	0	R1050M
1714.198	0.016	691130	START	n/a	n/a	n/a	-999	12	[-999, -999, -999]	n/a	FR1	0	R1050M
1714.214	7.868	691138	PROB	7.868	n/a	n/a	-999	12	[9, 4, 9]	22	FR1	0	R1050M
1722.082	4.866	695072	PROB	4.866	n/a	n/a	-999	12	[6, 1, 3]	10	FR1	0	R1050M
1726.948	3.335	697505	PROB	3.335	n/a	n/a	-999	12	[5, 2, 4]	11	FR1	0	R1050M
1730.283	3.101	699172	PROB	3.101	n/a	n/a	-999	12	[9, 2, 5]	16	FR1	0	R1050M
1733.384	2.476	700723	PROB	2.476	n/a	n/a	-999	12	[1, 4, 9]	13	FR1	0	R1050M
1735.86	0.007	701961	STOP	n/a	n/a	n/a	-999	12	[-999, -999, -999]	n/a	FR1	0	R1050M
1735.867	1.152	701964	DISTRACT_END	n/a	n/a	n/a	-999	12	[0, 0, 0]	n/a	FR1	0	R1050M
1737.019	2.335	702540	REC_START	n/a	n/a	n/a	-999	12	[0, 0, 0]	n/a	FR1	0	R1050M
1739.354	1.306	703708	REC_WORD	1.306	n/a	BEAR	-999	12	[0, 0, 0]	n/a	FR1	0	R1050M
1740.66	9.247	704360	REC_WORD	9.247	n/a	CROW	-999	12	[0, 0, 0]	n/a	FR1	0	R1050M
1749.907	1.448	708984	REC_WORD	1.448	n/a	BREAD	-999	12	[0, 0, 0]	n/a	FR1	0	R1050M
1751.355	1.767	709708	REC_WORD	1.767	n/a	BRANCH	-999	12	[0, 0, 0]	n/a	FR1	0	R1050M
1753.122	12.855	710591	REC_WORD	12.855	n/a	TREE	-999	12	[0, 0, 0]	n/a	FR1	0	R1050M
1765.977	1.055	717018	REC_WORD	1.055	n/a	ROCK	-999	12	[0, 0, 0]	n/a	FR1	0	R1050M
1767.032	14.378	717546	REC_END	n/a	n/a	n/a	-999	12	[0, 0, 0]	n/a	FR1	0	R1050M
1781.41	0.0	724734	TRIAL	n/a	n/a	n/a	-999	13	[0, 0, 0]	n/a	FR1	0	R1050M
1781.41	10.428	724734	COUNTDOWN_START	n/a	n/a	n/a	-999	13	[0, 0, 0]	n/a	FR1	0	R1050M
1791.838	0.006	729948	COUNTDOWN_END	n/a	n/a	n/a	-999	13	[0, 0, 0]	n/a	FR1	0	R1050M
1791.844	2.435	729951	ORIENT	n/a	n/a	n/a	-999	13	[0, 0, 0]	n/a	FR1	0	R1050M
1794.279	2.616	731168	WORD	n/a	wordpools/wordpool_EN.txt	JAR	1	13	[0, 0, 0]	n/a	FR1	0	R1050M
1796.895	2.602	732476	WORD	n/a	wordpools/wordpool_EN.txt	MILK	2	13	[0, 0, 0]	n/a	FR1	0	R1050M
1799.497	2.383	733777	WORD	n/a	wordpools/wordpool_EN.txt	STORM	3	13	[0, 0, 0]	n/a	FR1	0	R1050M
1801.88	2.501	734969	WORD	n/a	wordpools/wordpool_EN.txt	DITCH	4	13	[0, 0, 0]	n/a	FR1	0	R1050M
1804.381	2.6	736219	WORD	n/a	wordpools/wordpool_EN.txt	FLEA	5	13	[0, 0, 0]	n/a	FR1	0	R1050M
1806.981	2.518	737519	WORD	n/a	wordpools/wordpool_EN.txt	MOTH	6	13	[0, 0, 0]	n/a	FR1	0	R1050M
1809.499	2.567	738778	WORD	n/a	wordpools/wordpool_EN.txt	STRAW	7	13	[0, 0, 0]	n/a	FR1	0	R1050M
1812.066	2.55	740061	WORD	n/a	wordpools/wordpool_EN.txt	SOUP	8	13	[0, 0, 0]	n/a	FR1	0	R1050M
1814.616	2.551	741336	WORD	n/a	wordpools/wordpool_EN.txt	CHEEK	9	13	[0, 0, 0]	n/a	FR1	0	R1050M
1817.167	2.616	742612	WORD	n/a	wordpools/wordpool_EN.txt	RAKE	10	13	[0, 0, 0]	n/a	FR1	0	R1050M
1819.783	2.551	743920	WORD	n/a	wordpools/wordpool_EN.txt	ARK	11	13	[0, 0, 0]	n/a	FR1	0	R1050M
1822.334	1.616	745195	WORD	n/a	wordpools/wordpool_EN.txt	FRUIT	12	13	[0, 0, 0]	n/a	FR1	0	R1050M
1823.95	0.001	746003	DISTRACT_START	n/a	n/a	n/a	-999	13	[0, 0, 0]	n/a	FR1	0	R1050M
1823.951	0.016	746004	START	n/a	n/a	n/a	-999	13	[-999, -999, -999]	n/a	FR1	0	R1050M
1823.967	4.001	746012	PROB	4.001	n/a	n/a	-999	13	[5, 7, 5]	17	FR1	0	R1050M
1827.968	10.386	748012	PROB	10.386	n/a	n/a	-999	13	[6, 5, 8]	19	FR1	0	R1050M
1838.354	5.101	753205	PROB	5.101	n/a	n/a	-999	13	[7, 2, 2]	11	FR1	0	R1050M
1843.455	4.719	755755	PROB	4.719	n/a	n/a	-999	13	[2, 6, 8]	16	FR1	0	R1050M
1848.174	0.016	758114	STOP	n/a	n/a	n/a	-999	13	[-999, -999, -999]	n/a	FR1	0	R1050M
1848.19	1.201	758122	DISTRACT_END	n/a	n/a	n/a	-999	13	[0, 0, 0]	n/a	FR1	0	R1050M
1849.391	1.945	758723	REC_START	n/a	n/a	n/a	-999	13	[0, 0, 0]	n/a	FR1	0	R1050M
1851.336	1.187	759695	REC_WORD	1.187	n/a	JAR	-999	13	[0, 0, 0]	n/a	FR1	0	R1050M
1852.523	1.122	760289	REC_WORD	1.122	n/a	MILK	-999	13	[0, 0, 0]	n/a	FR1	0	R1050M
1853.645	2.162	760850	REC_WORD	2.162	n/a	STRAW	-999	13	[0, 0, 0]	n/a	FR1	0	R1050M
1855.807	2.995	761931	REC_WORD	2.995	n/a	STORM	-999	13	[0, 0, 0]	n/a	FR1	0	R1050M
1858.802	20.601	763428	REC_WORD	20.601	n/a	DITCH	-999	13	[0, 0, 0]	n/a	FR1	0	R1050M
1879.403	168.474	773728	REC_END	n/a	n/a	n/a	-999	13	[0, 0, 0]	n/a	FR1	0	R1050M
2047.877	0.0	857960	TRIAL	n/a	n/a	n/a	-999	14	[0, 0, 0]	n/a	FR1	0	R1050M
2047.877	10.428	857960	COUNTDOWN_START	n/a	n/a	n/a	-999	14	[0, 0, 0]	n/a	FR1	0	R1050M
2058.305	0.009	863174	COUNTDOWN_END	n/a	n/a	n/a	-999	14	[0, 0, 0]	n/a	FR1	0	R1050M
2058.314	2.616	863179	ORIENT	n/a	n/a	n/a	-999	14	[0, 0, 0]	n/a	FR1	0	R1050M
2060.93	2.568	864487	WORD	n/a	wordpools/wordpool_EN.txt	FORT	1	14	[0, 0, 0]	n/a	FR1	0	R1050M
2063.498	2.433	865770	WORD	n/a	wordpools/wordpool_EN.txt	STEM	2	14	[0, 0, 0]	n/a	FR1	0	R1050M
2065.931	2.518	866987	WORD	n/a	wordpools/wordpool_EN.txt	SWORD	3	14	[0, 0, 0]	n/a	FR1	0	R1050M
2068.449	2.516	868246	WORD	n/a	wordpools/wordpool_EN.txt	HORSE	4	14	[0, 0, 0]	n/a	FR1	0	R1050M
2070.965	2.518	869504	WORD	n/a	wordpools/wordpool_EN.txt	SAIL	5	14	[0, 0, 0]	n/a	FR1	0	R1050M
2073.483	2.383	870763	WORD	n/a	wordpools/wordpool_EN.txt	COIN	6	14	[0, 0, 0]	n/a	FR1	0	R1050M
2075.866	2.585	871954	WORD	n/a	wordpools/wordpool_EN.txt	ROOT	7	14	[0, 0, 0]	n/a	FR1	0	R1050M
2078.451	2.483	873247	WORD	n/a	wordpools/wordpool_EN.txt	STAR	8	14	[0, 0, 0]	n/a	FR1	0	R1050M
2080.934	2.484	874488	WORD	n/a	wordpools/wordpool_EN.txt	LEAF	9	14	[0, 0, 0]	n/a	FR1	0	R1050M
2083.418	2.45	875730	WORD	n/a	wordpools/wordpool_EN.txt	SHIP	10	14	[0, 0, 0]	n/a	FR1	0	R1050M
2085.868	2.518	876955	WORD	n/a	wordpools/wordpool_EN.txt	SHELL	11	14	[0, 0, 0]	n/a	FR1	0	R1050M
2088.386	1.617	878214	WORD	n/a	wordpools/wordpool_EN.txt	APE	12	14	[0, 0, 0]	n/a	FR1	0	R1050M
2090.003	0.001	879022	DISTRACT_START	n/a	n/a	n/a	-999	14	[0, 0, 0]	n/a	FR1	0	R1050M
2090.004	0.016	879023	START	n/a	n/a	n/a	-999	14	[-999, -999, -999]	n/a	FR1	0	R1050M
2090.02	8.251	879031	PROB	8.251	n/a	n/a	-999	14	[9, 6, 8]	23	FR1	0	R1050M
2098.271	3.268	883156	PROB	3.268	n/a	n/a	-999	14	[5, 1, 3]	9	FR1	0	R1050M
2101.539	2.449	884790	PROB	2.449	n/a	n/a	-999	14	[5, 5, 2]	12	FR1	0	R1050M
2103.988	7.585	886014	PROB	7.585	n/a	n/a	-999	14	[2, 7, 8]	17	FR1	0	R1050M
2111.573	0.017	889807	STOP	n/a	n/a	n/a	-999	14	[-999, -999, -999]	n/a	FR1	0	R1050M
2111.59	1.068	889815	DISTRACT_END	n/a	n/a	n/a	-999	14	[0, 0, 0]	n/a	FR1	0	R1050M
2112.658	2.544	890349	REC_START	n/a	n/a	n/a	-999	14	[0, 0, 0]	n/a	FR1	0	R1050M
2115.202	10.753	891621	REC_WORD	10.753	n/a	ROOT	-999	14	[0, 0, 0]	n/a	FR1	0	R1050M
2125.955	12.477	896997	REC_WORD	12.477	n/a	FORT	-999	14	[0, 0, 0]	n/a	FR1	0	R1050M
2138.432	4.238	903235	REC_WORD	4.238	n/a	COIN	-999	14	[0, 0, 0]	n/a	FR1	0	R1050M
2142.67	17.146	905354	REC_END	n/a	n/a	n/a	-999	14	[0, 0, 0]	n/a	FR1	0	R1050M
2159.816	0.0	913927	COUNTDOWN_START	n/a	n/a	n/a	-999	15	[0, 0, 0]	n/a	FR1	0	R1050M
2159.816	10.428	913927	TRIAL	n/a	n/a	n/a	-999	15	[0, 0, 0]	n/a	FR1	0	R1050M
2170.244	0.008	919140	COUNTDOWN_END	n/a	n/a	n/a	-999	15	[0, 0, 0]	n/a	FR1	0	R1050M
2170.252	2.616	919144	ORIENT	n/a	n/a	n/a	-999	15	[0, 0, 0]	n/a	FR1	0	R1050M
2172.868	2.435	920452	WORD	n/a	wordpools/wordpool_EN.txt	RAT	1	15	[0, 0, 0]	n/a	FR1	0	R1050M
2175.303	2.417	921670	WORD	n/a	wordpools/wordpool_EN.txt	CAT	2	15	[0, 0, 0]	n/a	FR1	0	R1050M
2177.72	2.4	922878	WORD	n/a	wordpools/wordpool_EN.txt	ANT	3	15	[0, 0, 0]	n/a	FR1	0	R1050M
2180.12	2.551	924078	WORD	n/a	wordpools/wordpool_EN.txt	FOOD	4	15	[0, 0, 0]	n/a	FR1	0	R1050M
2182.671	2.534	925354	WORD	n/a	wordpools/wordpool_EN.txt	STORE	5	15	[0, 0, 0]	n/a	FR1	0	R1050M
2185.205	2.566	926621	WORD	n/a	wordpools/wordpool_EN.txt	BANK	6	15	[0, 0, 0]	n/a	FR1	0	R1050M
2187.771	2.518	927903	WORD	n/a	wordpools/wordpool_EN.txt	DUCK	7	15	[0, 0, 0]	n/a	FR1	0	R1050M
2190.289	2.616	929162	WORD	n/a	wordpools/wordpool_EN.txt	PIG	8	15	[0, 0, 0]	n/a	FR1	0	R1050M
2192.905	2.585	930470	WORD	n/a	wordpools/wordpool_EN.txt	GEESE	9	15	[0, 0, 0]	n/a	FR1	0	R1050M
2195.49	2.601	931763	WORD	n/a	wordpools/wordpool_EN.txt	WOLF	10	15	[0, 0, 0]	n/a	FR1	0	R1050M
2198.091	2.483	933063	WORD	n/a	wordpools/wordpool_EN.txt	FLUTE	11	15	[0, 0, 0]	n/a	FR1	0	R1050M
2200.574	1.617	934305	WORD	n/a	wordpools/wordpool_EN.txt	LAMB	12	15	[0, 0, 0]	n/a	FR1	0	R1050M
2202.191	0.001	935113	DISTRACT_START	n/a	n/a	n/a	-999	15	[0, 0, 0]	n/a	FR1	0	R1050M
2202.192	0.016	935114	START	n/a	n/a	n/a	-999	15	[-999, -999, -999]	n/a	FR1	0	R1050M
2202.208	5.218	935122	PROB	5.218	n/a	n/a	-999	15	[4, 3, 9]	16	FR1	0	R1050M
2207.426	2.967	937730	PROB	2.967	n/a	n/a	-999	15	[1, 8, 2]	11	FR1	0	R1050M
2210.393	4.4	939214	PROB	4.4	n/a	n/a	-999	15	[1, 6, 9]	16	FR1	0	R1050M
2214.793	7.051	941414	PROB	7.051	n/a	n/a	-999	15	[3, 9, 8]	19	FR1	0	R1050M
2221.844	7.714	944939	PROB	7.714	n/a	n/a	-999	15	[1, 7, 6]	14	FR1	0	R1050M
2229.558	0.005	948796	STOP	n/a	n/a	n/a	-999	15	[-999, -999, -999]	n/a	FR1	0	R1050M
2229.563	1.051	948798	DISTRACT_END	n/a	n/a	n/a	-999	15	[0, 0, 0]	n/a	FR1	0	R1050M
2230.614	0.683	949324	REC_START	n/a	n/a	n/a	-999	15	[0, 0, 0]	n/a	FR1	0	R1050M
2231.297	1.53	949665	REC_WORD	1.53	n/a	RAT	-999	15	[0, 0, 0]	n/a	FR1	0	R1050M
2232.827	0.912	950430	REC_WORD	0.912	n/a	CAT	-999	15	[0, 0, 0]	n/a	FR1	0	R1050M
2233.739	1.524	950886	REC_WORD	1.524	n/a	ANT	-999	15	[0, 0, 0]	n/a	FR1	0	R1050M
2235.263	1.747	951648	REC_WORD	1.747	n/a	WOLF	-999	15	[0, 0, 0]	n/a	FR1	0	R1050M
2237.01	4.789	952522	REC_WORD	4.789	n/a	PIG	-999	15	[0, 0, 0]	n/a	FR1	0	R1050M
2241.799	8.591	954916	REC_WORD	8.591	n/a	DUCK	-999	15	[0, 0, 0]	n/a	FR1	0	R1050M
2250.39	10.241	959211	REC_WORD	10.241	n/a	GEESE	-999	15	[0, 0, 0]	n/a	FR1	0	R1050M
2260.631	8.89	964331	REC_END	n/a	n/a	n/a	-999	15	[0, 0, 0]	n/a	FR1	0	R1050M
2269.521	0.0	968776	TRIAL	n/a	n/a	n/a	-999	16	[0, 0, 0]	n/a	FR1	0	R1050M
2269.521	10.428	968776	COUNTDOWN_START	n/a	n/a	n/a	-999	16	[0, 0, 0]	n/a	FR1	0	R1050M
2279.949	0.006	973990	COUNTDOWN_END	n/a	n/a	n/a	-999	16	[0, 0, 0]	n/a	FR1	0	R1050M
2279.955	2.585	973993	ORIENT	n/a	n/a	n/a	-999	16	[0, 0, 0]	n/a	FR1	0	R1050M
2282.54	2.567	975285	WORD	n/a	wordpools/wordpool_EN.txt	CLOWN	1	16	[0, 0, 0]	n/a	FR1	0	R1050M
2285.107	2.551	976569	WORD	n/a	wordpools/wordpool_EN.txt	BOOT	2	16	[0, 0, 0]	n/a	FR1	0	R1050M
2287.658	2.45	977844	WORD	n/a	wordpools/wordpool_EN.txt	WORM	3	16	[0, 0, 0]	n/a	FR1	0	R1050M
2290.108	2.451	979069	WORD	n/a	wordpools/wordpool_EN.txt	DEER	4	16	[0, 0, 0]	n/a	FR1	0	R1050M
2292.559	2.484	980295	WORD	n/a	wordpools/wordpool_EN.txt	HAWK	5	16	[0, 0, 0]	n/a	FR1	0	R1050M
2295.043	2.617	981536	WORD	n/a	wordpools/wordpool_EN.txt	CROWN	6	16	[0, 0, 0]	n/a	FR1	0	R1050M
2297.66	2.417	982845	WORD	n/a	wordpools/wordpool_EN.txt	PIT	7	16	[0, 0, 0]	n/a	FR1	0	R1050M
2300.077	2.484	984053	WORD	n/a	wordpools/wordpool_EN.txt	FISH	8	16	[0, 0, 0]	n/a	FR1	0	R1050M
2302.561	2.6	985295	WORD	n/a	wordpools/wordpool_EN.txt	MOUSE	9	16	[0, 0, 0]	n/a	FR1	0	R1050M
2305.161	2.551	986595	WORD	n/a	wordpools/wordpool_EN.txt	STEAK	10	16	[0, 0, 0]	n/a	FR1	0	R1050M
2307.712	2.484	987871	WORD	n/a	wordpools/wordpool_EN.txt	TAIL	11	16	[0, 0, 0]	n/a	FR1	0	R1050M
2310.196	1.616	989113	WORD	n/a	wordpools/wordpool_EN.txt	WORLD	12	16	[0, 0, 0]	n/a	FR1	0	R1050M
2311.812	0.001	989920	DISTRACT_START	n/a	n/a	n/a	-999	16	[0, 0, 0]	n/a	FR1	0	R1050M
2311.813	0.015	989921	START	n/a	n/a	n/a	-999	16	[-999, -999, -999]	n/a	FR1	0	R1050M
2311.828	6.051	989928	PROB	6.051	n/a	n/a	-999	16	[6, 2, 8]	16	FR1	0	R1050M
2317.879	3.685	992954	PROB	3.685	n/a	n/a	-999	16	[5, 3, 5]	13	FR1	0	R1050M
2321.564	5.417	994796	PROB	5.417	n/a	n/a	-999	16	[6, 1, 9]	16	FR1	0	R1050M
2326.981	8.064	997505	PROB	8.064	n/a	n/a	-999	16	[2, 4, 7]	12	FR1	0	R1050M
2335.045	0.005	1001536	STOP	n/a	n/a	n/a	-999	16	[-999, -999, -999]	n/a	FR1	0	R1050M
2335.05	1.118	1001539	DISTRACT_END	n/a	n/a	n/a	-999	16	[0, 0, 0]	n/a	FR1	0	R1050M
2336.168	7.783	1002098	REC_START	n/a	n/a	n/a	-999	16	[0, 0, 0]	n/a	FR1	0	R1050M
2343.951	2.126	1005989	REC_WORD	2.126	n/a	MOUSE	-999	16	[0, 0, 0]	n/a	FR1	0	R1050M
2346.077	2.522	1007052	REC_WORD	2.522	n/a	TAIL	-999	16	[0, 0, 0]	n/a	FR1	0	R1050M
2348.599	2.115	1008313	REC_WORD	2.115	n/a	WORLD	-999	16	[0, 0, 0]	n/a	FR1	0	R1050M
2350.714	2.094	1009370	REC_WORD	2.094	n/a	CLOWN	-999	16	[0, 0, 0]	n/a	FR1	0	R1050M
2352.808	2.847	1010417	REC_WORD	2.847	n/a	BOOT	-999	16	[0, 0, 0]	n/a	FR1	0	R1050M
2355.655	10.526	1011841	REC_WORD	10.526	n/a	HAWK	-999	16	[0, 0, 0]	n/a	FR1	0	R1050M
2366.181	44.267	1017103	REC_END	n/a	n/a	n/a	-999	16	[0, 0, 0]	n/a	FR1	0	R1050M
2410.448	0.001	1039236	COUNTDOWN_START	n/a	n/a	n/a	-999	17	[0, 0, 0]	n/a	FR1	0	R1050M
2410.449	10.427	1039236	TRIAL	n/a	n/a	n/a	-999	17	[0, 0, 0]	n/a	FR1	0	R1050M
2420.876	0.007	1044449	COUNTDOWN_END	n/a	n/a	n/a	-999	17	[0, 0, 0]	n/a	FR1	0	R1050M
2420.883	2.418	1044453	ORIENT	n/a	n/a	n/a	-999	17	[0, 0, 0]	n/a	FR1	0	R1050M
2423.301	2.434	1045662	WORD	n/a	wordpools/wordpool_EN.txt	PEARL	1	17	[0, 0, 0]	n/a	FR1	0	R1050M
2425.735	2.417	1046879	WORD	n/a	wordpools/wordpool_EN.txt	MAIL	2	17	[0, 0, 0]	n/a	FR1	0	R1050M
2428.152	2.384	1048087	WORD	n/a	wordpools/wordpool_EN.txt	BOOK	3	17	[0, 0, 0]	n/a	FR1	0	R1050M
2430.536	2.55	1049279	WORD	n/a	wordpools/wordpool_EN.txt	MULE	4	17	[0, 0, 0]	n/a	FR1	0	R1050M
2433.086	2.617	1050554	WORD	n/a	wordpools/wordpool_EN.txt	SHEEP	5	17	[0, 0, 0]	n/a	FR1	0	R1050M
2435.703	2.434	1051863	WORD	n/a	wordpools/wordpool_EN.txt	BEAN	6	17	[0, 0, 0]	n/a	FR1	0	R1050M
2438.137	2.417	1053079	WORD	n/a	wordpools/wordpool_EN.txt	CORN	7	17	[0, 0, 0]	n/a	FR1	0	R1050M
2440.554	2.551	1054288	WORD	n/a	wordpools/wordpool_EN.txt	BEAK	8	17	[0, 0, 0]	n/a	FR1	0	R1050M
2443.105	2.533	1055563	WORD	n/a	wordpools/wordpool_EN.txt	GRAPE	9	17	[0, 0, 0]	n/a	FR1	0	R1050M
2445.638	2.468	1056830	WORD	n/a	wordpools/wordpool_EN.txt	RICE	10	17	[0, 0, 0]	n/a	FR1	0	R1050M
2448.106	2.55	1058064	WORD	n/a	wordpools/wordpool_EN.txt	LAND	11	17	[0, 0, 0]	n/a	FR1	0	R1050M
2450.656	1.617	1059339	WORD	n/a	wordpools/wordpool_EN.txt	GOLD	12	17	[0, 0, 0]	n/a	FR1	0	R1050M
2452.273	0.001	1060147	DISTRACT_START	n/a	n/a	n/a	-999	17	[0, 0, 0]	n/a	FR1	0	R1050M
2452.274	0.016	1060148	START	n/a	n/a	n/a	-999	17	[-999, -999, -999]	n/a	FR1	0	R1050M
2452.29	3.834	1060156	PROB	3.834	n/a	n/a	-999	17	[3, 4, 8]	15	FR1	0	R1050M
2456.124	5.367	1062072	PROB	5.367	n/a	n/a	-999	17	[3, 4, 2]	9	FR1	0	R1050M
2461.491	4.467	1064756	PROB	4.467	n/a	n/a	-999	17	[8, 2, 3]	13	FR1	0	R1050M
2465.958	8.447	1066989	PROB	8.447	n/a	n/a	-999	17	[6, 8, 5]	19	FR1	0	R1050M
2474.405	0.006	1071212	STOP	n/a	n/a	n/a	-999	17	[-999, -999, -999]	n/a	FR1	0	R1050M
2474.411	1.067	1071215	DISTRACT_END	n/a	n/a	n/a	-999	17	[0, 0, 0]	n/a	FR1	0	R1050M
2475.478	1.773	1071749	REC_START	n/a	n/a	n/a	-999	17	[0, 0, 0]	n/a	FR1	0	R1050M
2477.251	1.357	1072635	REC_WORD	1.357	n/a	RICE	-999	17	[0, 0, 0]	n/a	FR1	0	R1050M
2478.608	2.032	1073314	REC_WORD	2.032	n/a	GOLD	-999	17	[0, 0, 0]	n/a	FR1	0	R1050M
2480.64	24.856	1074330	REC_WORD	24.856	n/a	BEAN	-999	17	[0, 0, 0]	n/a	FR1	0	R1050M
2505.496	40.879	1086757	REC_END	n/a	n/a	n/a	-999	17	[0, 0, 0]	n/a	FR1	0	R1050M
2546.375	0.0	1107195	TRIAL	n/a	n/a	n/a	-999	18	[0, 0, 0]	n/a	FR1	0	R1050M
2546.375	10.428	1107195	COUNTDOWN_START	n/a	n/a	n/a	-999	18	[0, 0, 0]	n/a	FR1	0	R1050M
2556.803	0.006	1112409	COUNTDOWN_END	n/a	n/a	n/a	-999	18	[0, 0, 0]	n/a	FR1	0	R1050M
2556.809	2.635	1112412	ORIENT	n/a	n/a	n/a	-999	18	[0, 0, 0]	n/a	FR1	0	R1050M
2559.444	2.499	1113730	WORD	n/a	wordpools/wordpool_EN.txt	JUICE	1	18	[0, 0, 0]	n/a	FR1	0	R1050M
2561.943	2.452	1114979	WORD	n/a	wordpools/wordpool_EN.txt	SPONGE	2	18	[0, 0, 0]	n/a	FR1	0	R1050M
2564.395	2.599	1116205	WORD	n/a	wordpools/wordpool_EN.txt	SOAP	3	18	[0, 0, 0]	n/a	FR1	0	R1050M
2566.994	2.485	1117504	WORD	n/a	wordpools/wordpool_EN.txt	FROG	4	18	[0, 0, 0]	n/a	FR1	0	R1050M
2569.479	2.567	1118747	WORD	n/a	wordpools/wordpool_EN.txt	ROOM	5	18	[0, 0, 0]	n/a	FR1	0	R1050M
2572.046	2.584	1120030	WORD	n/a	wordpools/wordpool_EN.txt	PALM	6	18	[0, 0, 0]	n/a	FR1	0	R1050M
2574.63	2.534	1121322	WORD	n/a	wordpools/wordpool_EN.txt	SEA	7	18	[0, 0, 0]	n/a	FR1	0	R1050M
2577.164	2.417	1122589	WORD	n/a	wordpools/wordpool_EN.txt	TEETH	8	18	[0, 0, 0]	n/a	FR1	0	R1050M
2579.581	2.467	1123797	WORD	n/a	wordpools/wordpool_EN.txt	PLATE	9	18	[0, 0, 0]	n/a	FR1	0	R1050M
2582.048	2.567	1125031	WORD	n/a	wordpools/wordpool_EN.txt	TOOTH	10	18	[0, 0, 0]	n/a	FR1	0	R1050M
2584.615	2.383	1126314	WORD	n/a	wordpools/wordpool_EN.txt	SNAIL	11	18	[0, 0, 0]	n/a	FR1	0	R1050M
2586.998	1.618	1127506	WORD	n/a	wordpools/wordpool_EN.txt	SALT	12	18	[0, 0, 0]	n/a	FR1	0	R1050M
2588.616	0.001	1128315	DISTRACT_START	n/a	n/a	n/a	-999	18	[0, 0, 0]	n/a	FR1	0	R1050M
2588.617	0.016	1128315	START	n/a	n/a	n/a	-999	18	[-999, -999, -999]	n/a	FR1	0	R1050M
2588.633	6.718	1128323	PROB	6.718	n/a	n/a	-999	18	[5, 6, 7]	18	FR1	0	R1050M
2595.351	6.684	1131682	PROB	6.684	n/a	n/a	-999	18	[9, 7, 7]	23	FR1	0	R1050M
2602.035	5.618	1135024	PROB	5.618	n/a	n/a	-999	18	[3, 8, 4]	15	FR1	0	R1050M
2607.653	5.288	1137833	PROB	5.288	n/a	n/a	-999	18	[5, 9, 1]	15	FR1	0	R1050M
2612.941	0.012	1140477	STOP	n/a	n/a	n/a	-999	18	[-999, -999, -999]	n/a	FR1	0	R1050M
2612.953	1.202	1140483	DISTRACT_END	n/a	n/a	n/a	-999	18	[0, 0, 0]	n/a	FR1	0	R1050M
2614.155	4.984	1141084	REC_START	n/a	n/a	n/a	-999	18	[0, 0, 0]	n/a	FR1	0	R1050M
2619.139	18.828	1143575	REC_WORD	18.828	n/a	TOOTH	-999	18	[0, 0, 0]	n/a	FR1	0	R1050M
2637.967	3.856	1152989	REC_WORD	3.856	n/a	PALM	-999	18	[0, 0, 0]	n/a	FR1	0	R1050M
2641.823	2.344	1154917	REC_WORD	2.344	n/a	FROG	-999	18	[0, 0, 0]	n/a	FR1	0	R1050M
2644.167	16.03	1156089	REC_END	n/a	n/a	n/a	-999	18	[0, 0, 0]	n/a	FR1	0	R1050M
2660.197	0.0	1164103	TRIAL	n/a	n/a	n/a	-999	19	[0, 0, 0]	n/a	FR1	0	R1050M
2660.197	10.428	1164103	COUNTDOWN_START	n/a	n/a	n/a	-999	19	[0, 0, 0]	n/a	FR1	0	R1050M
2670.625	0.007	1169317	COUNTDOWN_END	n/a	n/a	n/a	-999	19	[0, 0, 0]	n/a	FR1	0	R1050M
2670.632	2.467	1169320	ORIENT	n/a	n/a	n/a	-999	19	[0, 0, 0]	n/a	FR1	0	R1050M
2673.099	2.517	1170554	WORD	n/a	wordpools/wordpool_EN.txt	SKI	1	19	[0, 0, 0]	n/a	FR1	0	R1050M
2675.616	2.551	1171812	WORD	n/a	wordpools/wordpool_EN.txt	SHRIMP	2	19	[0, 0, 0]	n/a	FR1	0	R1050M
2678.167	2.434	1173088	WORD	n/a	wordpools/wordpool_EN.txt	PLANE	3	19	[0, 0, 0]	n/a	FR1	0	R1050M
2680.601	2.417	1174305	WORD	n/a	wordpools/wordpool_EN.txt	DART	4	19	[0, 0, 0]	n/a	FR1	0	R1050M
2683.018	2.4	1175513	WORD	n/a	wordpools/wordpool_EN.txt	CLAY	5	19	[0, 0, 0]	n/a	FR1	0	R1050M
2685.418	2.5	1176713	WORD	n/a	wordpools/wordpool_EN.txt	CLOUD	6	19	[0, 0, 0]	n/a	FR1	0	R1050M
2687.918	2.484	1177963	WORD	n/a	wordpools/wordpool_EN.txt	BALL	7	19	[0, 0, 0]	n/a	FR1	0	R1050M
2690.402	2.45	1179205	WORD	n/a	wordpools/wordpool_EN.txt	BOMB	8	19	[0, 0, 0]	n/a	FR1	0	R1050M
2692.852	2.451	1180430	WORD	n/a	wordpools/wordpool_EN.txt	MOON	9	19	[0, 0, 0]	n/a	FR1	0	R1050M
2695.303	2.567	1181655	WORD	n/a	wordpools/wordpool_EN.txt	WHEEL	10	19	[0, 0, 0]	n/a	FR1	0	R1050M
2697.87	2.551	1182939	WORD	n/a	wordpools/wordpool_EN.txt	FILM	11	19	[0, 0, 0]	n/a	FR1	0	R1050M
2700.421	1.617	1184214	WORD	n/a	wordpools/wordpool_EN.txt	BAT	12	19	[0, 0, 0]	n/a	FR1	0	R1050M
2702.038	0.001	1185023	DISTRACT_START	n/a	n/a	n/a	-999	19	[0, 0, 0]	n/a	FR1	0	R1050M
2702.039	0.016	1185023	START	n/a	n/a	n/a	-999	19	[-999, -999, -999]	n/a	FR1	0	R1050M
2702.055	4.434	1185031	PROB	4.434	n/a	n/a	-999	19	[1, 7, 6]	14	FR1	0	R1050M
2706.489	4.067	1187248	PROB	4.067	n/a	n/a	-999	19	[1, 2, 2]	5	FR1	0	R1050M
2710.556	5.835	1189281	PROB	5.835	n/a	n/a	-999	19	[2, 7, 8]	19	FR1	0	R1050M
2716.391	4.151	1192199	PROB	4.151	n/a	n/a	-999	19	[7, 6, 1]	14	FR1	0	R1050M
2720.542	8.389	1194274	PROB	8.389	n/a	n/a	-999	19	[3, 7, 5]	15	FR1	0	R1050M
2728.931	0.011	1198468	STOP	n/a	n/a	n/a	-999	19	[-999, -999, -999]	n/a	FR1	0	R1050M
2728.942	1.069	1198474	DISTRACT_END	n/a	n/a	n/a	-999	19	[0, 0, 0]	n/a	FR1	0	R1050M
2730.011	0.819	1199008	REC_START	n/a	n/a	n/a	-999	19	[0, 0, 0]	n/a	FR1	0	R1050M
2730.83	1.616	1199418	REC_WORD	1.616	n/a	MOON	-999	19	[0, 0, 0]	n/a	FR1	0	R1050M
2732.446	1.385	1200226	REC_WORD	1.385	n/a	BALL	-999	19	[0, 0, 0]	n/a	FR1	0	R1050M
2733.831	1.46	1200918	REC_WORD	1.46	n/a	SHRIMP	-999	19	[0, 0, 0]	n/a	FR1	0	R1050M
2735.291	3.09	1201648	REC_WORD	3.09	n/a	SKI	-999	19	[0, 0, 0]	n/a	FR1	0	R1050M
2738.381	9.373	1203193	REC_WORD	9.373	n/a	DART	-999	19	[0, 0, 0]	n/a	FR1	0	R1050M
2747.754	12.251	1207879	REC_WORD	12.251	n/a	BOMB	-999	19	[0, 0, 0]	n/a	FR1	0	R1050M
2760.005	0.018	1214004	REC_WORD	0.018	n/a	CLAY	-999	19	[0, 0, 0]	n/a	FR1	0	R1050M
2760.023	26.081	1214013	REC_END	n/a	n/a	n/a	-999	19	[0, 0, 0]	n/a	FR1	0	R1050M
2786.104	0.0	1227053	TRIAL	n/a	n/a	n/a	-999	20	[0, 0, 0]	n/a	FR1	0	R1050M
2786.104	10.428	1227053	COUNTDOWN_START	n/a	n/a	n/a	-999	20	[0, 0, 0]	n/a	FR1	0	R1050M
2796.532	0.008	1232267	COUNTDOWN_END	n/a	n/a	n/a	-999	20	[0, 0, 0]	n/a	FR1	0	R1050M
2796.54	2.483	1232271	ORIENT	n/a	n/a	n/a	-999	20	[0, 0, 0]	n/a	FR1	0	R1050M
2799.023	2.468	1233512	WORD	n/a	wordpools/wordpool_EN.txt	TRAY	1	20	[0, 0, 0]	n/a	FR1	0	R1050M
2801.491	2.433	1234746	WORD	n/a	wordpools/wordpool_EN.txt	JET	2	20	[0, 0, 0]	n/a	FR1	0	R1050M
2803.924	2.468	1235963	WORD	n/a	wordpools/wordpool_EN.txt	FORK	3	20	[0, 0, 0]	n/a	FR1	0	R1050M
2806.392	2.499	1237197	WORD	n/a	wordpools/wordpool_EN.txt	NOSE	4	20	[0, 0, 0]	n/a	FR1	0	R1050M
2808.891	2.385	1238446	WORD	n/a	wordpools/wordpool_EN.txt	TEA	5	20	[0, 0, 0]	n/a	FR1	0	R1050M
2811.276	2.467	1239639	WORD	n/a	wordpools/wordpool_EN.txt	SHIRT	6	20	[0, 0, 0]	n/a	FR1	0	R1050M
2813.743	2.5	1240872	WORD	n/a	wordpools/wordpool_EN.txt	RUG	7	20	[0, 0, 0]	n/a	FR1	0	R1050M
2816.243	2.418	1242122	WORD	n/a	wordpools/wordpool_EN.txt	LEG	8	20	[0, 0, 0]	n/a	FR1	0	R1050M
2818.661	2.55	1243331	WORD	n/a	wordpools/wordpool_EN.txt	HAT	9	20	[0, 0, 0]	n/a	FR1	0	R1050M
2821.211	2.616	1244606	WORD	n/a	wordpools/wordpool_EN.txt	TOE	10	20	[0, 0, 0]	n/a	FR1	0	R1050M
2823.827	2.602	1245914	WORD	n/a	wordpools/wordpool_EN.txt	CLOTH	11	20	[0, 0, 0]	n/a	FR1	0	R1050M
2826.429	1.617	1247215	WORD	n/a	wordpools/wordpool_EN.txt	RIB	12	20	[0, 0, 0]	n/a	FR1	0	R1050M
2828.046	0.001	1248023	DISTRACT_START	n/a	n/a	n/a	-999	20	[0, 0, 0]	n/a	FR1	0	R1050M
2828.047	0.015	1248024	START	n/a	n/a	n/a	-999	20	[-999, -999, -999]	n/a	FR1	0	R1050M
2828.062	3.668	1248031	PROB	3.668	n/a	n/a	-999	20	[8, 3, 2]	13	FR1	0	R1050M
2831.73	9.151	1249865	PROB	9.151	n/a	n/a	-999	20	[7, 5, 9]	21	FR1	0	R1050M
2840.881	2.718	1254440	PROB	2.718	n/a	n/a	-999	20	[5, 4, 5]	14	FR1	0	R1050M
2843.599	6.015	1255799	PROB	6.015	n/a	n/a	-999	20	[4, 3, 8]	15	FR1	0	R1050M
2849.614	0.019	1258806	STOP	n/a	n/a	n/a	-999	20	[-999, -999, -999]	n/a	FR1	0	R1050M
2849.633	1.068	1258816	DISTRACT_END	n/a	n/a	n/a	-999	20	[0, 0, 0]	n/a	FR1	0	R1050M
2850.701	1.234	1259350	REC_START	n/a	n/a	n/a	-999	20	[0, 0, 0]	n/a	FR1	0	R1050M
2851.935	1.377	1259967	REC_WORD	1.377	n/a	RUG	-999	20	[0, 0, 0]	n/a	FR1	0	R1050M
2853.312	4.363	1260655	REC_WORD	4.363	n/a	RIB	-999	20	[0, 0, 0]	n/a	FR1	0	R1050M
2857.675	4.838	1262837	REC_WORD	4.838	n/a	SHIRT	-999	20	[0, 0, 0]	n/a	FR1	0	R1050M
2862.513	7.026	1265256	REC_WORD	7.026	n/a	TRAY	-999	20	[0, 0, 0]	n/a	FR1	0	R1050M
2869.539	11.173	1268768	REC_WORD	11.173	n/a	LEG	-999	20	[0, 0, 0]	n/a	FR1	0	R1050M
2880.712	8.779	1274355	REC_END	n/a	n/a	n/a	-999	20	[0, 0, 0]	n/a	FR1	0	R1050M
2889.491	0.0	1278744	TRIAL	n/a	n/a	n/a	-999	21	[0, 0, 0]	n/a	FR1	0	R1050M
2889.491	10.428	1278744	COUNTDOWN_START	n/a	n/a	n/a	-999	21	[0, 0, 0]	n/a	FR1	0	R1050M
2899.919	0.006	1283958	COUNTDOWN_END	n/a	n/a	n/a	-999	21	[0, 0, 0]	n/a	FR1	0	R1050M
2899.925	2.485	1283961	ORIENT	n/a	n/a	n/a	-999	21	[0, 0, 0]	n/a	FR1	0	R1050M
2902.41	2.466	1285203	WORD	n/a	wordpools/wordpool_EN.txt	CAR	1	21	[0, 0, 0]	n/a	FR1	0	R1050M
2904.876	2.452	1286436	WORD	n/a	wordpools/wordpool_EN.txt	FLOOR	2	21	[0, 0, 0]	n/a	FR1	0	R1050M
2907.328	2.583	1287662	WORD	n/a	wordpools/wordpool_EN.txt	ROAD	3	21	[0, 0, 0]	n/a	FR1	0	R1050M
2909.911	2.384	1288953	WORD	n/a	wordpools/wordpool_EN.txt	GUARD	4	21	[0, 0, 0]	n/a	FR1	0	R1050M
2912.295	2.55	1290145	WORD	n/a	wordpools/wordpool_EN.txt	ROOF	5	21	[0, 0, 0]	n/a	FR1	0	R1050M
2914.845	2.568	1291420	WORD	n/a	wordpools/wordpool_EN.txt	GOAT	6	21	[0, 0, 0]	n/a	FR1	0	R1050M
2917.413	2.483	1292704	WORD	n/a	wordpools/wordpool_EN.txt	MUD	7	21	[0, 0, 0]	n/a	FR1	0	R1050M
2919.896	2.485	1293945	WORD	n/a	wordpools/wordpool_EN.txt	SLUSH	8	21	[0, 0, 0]	n/a	FR1	0	R1050M
2922.381	2.433	1295188	WORD	n/a	wordpools/wordpool_EN.txt	GLASS	9	21	[0, 0, 0]	n/a	FR1	0	R1050M
2924.814	2.467	1296404	WORD	n/a	wordpools/wordpool_EN.txt	STOVE	10	21	[0, 0, 0]	n/a	FR1	0	R1050M
2927.281	2.517	1297638	WORD	n/a	wordpools/wordpool_EN.txt	FAN	11	21	[0, 0, 0]	n/a	FR1	0	R1050M
2929.798	1.601	1298896	WORD	n/a	wordpools/wordpool_EN.txt	JEEP	12	21	[0, 0, 0]	n/a	FR1	0	R1050M
2931.399	0.001	1299697	DISTRACT_START	n/a	n/a	n/a	-999	21	[0, 0, 0]	n/a	FR1	0	R1050M
2931.4	0.016	1299697	START	n/a	n/a	n/a	-999	21	[-999, -999, -999]	n/a	FR1	0	R1050M
2931.416	5.751	1299705	PROB	5.751	n/a	n/a	-999	21	[4, 7, 5]	16	FR1	0	R1050M
2937.167	5.268	1302580	PROB	5.268	n/a	n/a	-999	21	[2, 7, 8]	16	FR1	0	R1050M
2942.435	3.383	1305214	PROB	3.383	n/a	n/a	-999	21	[7, 1, 1]	9	FR1	0	R1050M
2945.818	3.401	1306906	PROB	3.401	n/a	n/a	-999	21	[1, 1, 7]	9	FR1	0	R1050M
2949.219	4.931	1308606	PROB	4.931	n/a	n/a	-999	21	[7, 1, 6]	14	FR1	0	R1050M
2954.15	0.003	1311072	STOP	n/a	n/a	n/a	-999	21	[-999, -999, -999]	n/a	FR1	0	R1050M
2954.153	1.052	1311073	DISTRACT_END	n/a	n/a	n/a	-999	21	[0, 0, 0]	n/a	FR1	0	R1050M
2955.205	2.42	1311599	REC_START	n/a	n/a	n/a	-999	21	[0, 0, 0]	n/a	FR1	0	R1050M
2957.625	1.686	1312809	REC_WORD	1.686	n/a	CAR	-999	21	[0, 0, 0]	n/a	FR1	0	R1050M
2959.311	1.597	1313652	REC_WORD	1.597	n/a	JEEP	-999	21	[0, 0, 0]	n/a	FR1	0	R1050M
2960.908	1.651	1314450	REC_WORD	1.651	n/a	RUG	-999	21	[0, 0, 0]	n/a	FR1	0	R1050M
2962.559	1.735	1315276	REC_WORD	1.735	n/a	ROOF	-999	21	[0, 0, 0]	n/a	FR1	0	R1050M
2964.294	7.213	1316143	REC_WORD	7.213	n/a	FLOOR	-999	21	[0, 0, 0]	n/a	FR1	0	R1050M
2971.507	2.935	1319750	REC_WORD	2.935	n/a	MUD	-999	21	[0, 0, 0]	n/a	FR1	0	R1050M
2974.442	10.775	1321217	REC_WORD	10.775	n/a	SLUSH	-999	21	[0, 0, 0]	n/a	FR1	0	R1050M
2985.217	22.013	1326604	REC_END	n/a	n/a	n/a	-999	21	[0, 0, 0]	n/a	FR1	0	R1050M
3007.23	0.001	1337610	COUNTDOWN_START	n/a	n/a	n/a	-999	22	[0, 0, 0]	n/a	FR1	0	R1050M
3007.231	10.427	1337611	TRIAL	n/a	n/a	n/a	-999	22	[0, 0, 0]	n/a	FR1	0	R1050M
3017.658	0.008	1342824	COUNTDOWN_END	n/a	n/a	n/a	-999	22	[0, 0, 0]	n/a	FR1	0	R1050M
3017.666	2.484	1342828	ORIENT	n/a	n/a	n/a	-999	22	[0, 0, 0]	n/a	FR1	0	R1050M
3020.15	2.467	1344070	WORD	n/a	wordpools/wordpool_EN.txt	LAMP	1	22	[0, 0, 0]	n/a	FR1	0	R1050M
3022.617	2.4	1345303	WORD	n/a	wordpools/wordpool_EN.txt	BRIDGE	2	22	[0, 0, 0]	n/a	FR1	0	R1050M
3025.017	2.4	1346503	WORD	n/a	wordpools/wordpool_EN.txt	MOLE	3	22	[0, 0, 0]	n/a	FR1	0	R1050M
3027.417	2.4	1347703	WORD	n/a	wordpools/wordpool_EN.txt	STAIR	4	22	[0, 0, 0]	n/a	FR1	0	R1050M
3029.817	2.552	1348903	WORD	n/a	wordpools/wordpool_EN.txt	CHIEF	5	22	[0, 0, 0]	n/a	FR1	0	R1050M
3032.369	2.483	1350179	WORD	n/a	wordpools/wordpool_EN.txt	NET	6	22	[0, 0, 0]	n/a	FR1	0	R1050M
3034.852	2.451	1351420	WORD	n/a	wordpools/wordpool_EN.txt	LOCK	7	22	[0, 0, 0]	n/a	FR1	0	R1050M
3037.303	2.499	1352646	WORD	n/a	wordpools/wordpool_EN.txt	CART	8	22	[0, 0, 0]	n/a	FR1	0	R1050M
3039.802	2.452	1353895	WORD	n/a	wordpools/wordpool_EN.txt	PHONE	9	22	[0, 0, 0]	n/a	FR1	0	R1050M
3042.254	2.434	1355121	WORD	n/a	wordpools/wordpool_EN.txt	MAZE	10	22	[0, 0, 0]	n/a	FR1	0	R1050M
3044.688	2.467	1356338	WORD	n/a	wordpools/wordpool_EN.txt	FARM	11	22	[0, 0, 0]	n/a	FR1	0	R1050M
3047.155	1.616	1357571	WORD	n/a	wordpools/wordpool_EN.txt	WAND	12	22	[0, 0, 0]	n/a	FR1	0	R1050M
3048.771	0.001	1358379	DISTRACT_START	n/a	n/a	n/a	-999	22	[0, 0, 0]	n/a	FR1	0	R1050M
3048.772	0.016	1358380	START	n/a	n/a	n/a	-999	22	[-999, -999, -999]	n/a	FR1	0	R1050M
3048.788	6.218	1358388	PROB	6.218	n/a	n/a	-999	22	[8, 8, 6]	22	FR1	0	R1050M
3055.006	5.984	1361497	PROB	5.984	n/a	n/a	-999	22	[2, 5, 3]	10	FR1	0	R1050M
3060.99	6.901	1364489	PROB	6.901	n/a	n/a	-999	22	[9, 2, 5]	16	FR1	0	R1050M
3067.891	8.698	1367939	PROB	8.698	n/a	n/a	-999	22	[9, 3, 5]	17	FR1	0	R1050M
3076.589	0.005	1372288	STOP	n/a	n/a	n/a	-999	22	[-999, -999, -999]	n/a	FR1	0	R1050M
3076.594	1.034	1372290	DISTRACT_END	n/a	n/a	n/a	-999	22	[0, 0, 0]	n/a	FR1	0	R1050M
3077.628	1.671	1372807	REC_START	n/a	n/a	n/a	-999	22	[0, 0, 0]	n/a	FR1	0	R1050M
3079.299	2.661	1373643	REC_WORD	2.661	n/a	MAZE	-999	22	[0, 0, 0]	n/a	FR1	0	R1050M
3081.96	6.575	1374973	REC_WORD	6.575	n/a	WAND	-999	22	[0, 0, 0]	n/a	FR1	0	R1050M
3088.535	15.294	1378260	REC_WORD	15.294	n/a	CART	-999	22	[0, 0, 0]	n/a	FR1	0	R1050M
3103.829	3.816	1385907	REC_WORD	3.816	n/a	LAMP	-999	22	[0, 0, 0]	n/a	FR1	0	R1050M
3107.645	14.257	1387815	REC_END	n/a	n/a	n/a	-999	22	[0, 0, 0]	n/a	FR1	0	R1050M
3121.902	0.0	1394943	TRIAL	n/a	n/a	n/a	-999	23	[0, 0, 0]	n/a	FR1	0	R1050M
3121.902	10.428	1394943	COUNTDOWN_START	n/a	n/a	n/a	-999	23	[0, 0, 0]	n/a	FR1	0	R1050M
3132.33	0.008	1400157	COUNTDOWN_END	n/a	n/a	n/a	-999	23	[0, 0, 0]	n/a	FR1	0	R1050M
3132.338	2.417	1400161	ORIENT	n/a	n/a	n/a	-999	23	[0, 0, 0]	n/a	FR1	0	R1050M
3134.755	2.517	1401369	WORD	n/a	wordpools/wordpool_EN.txt	TANK	1	23	[0, 0, 0]	n/a	FR1	0	R1050M
3137.272	2.567	1402627	WORD	n/a	wordpools/wordpool_EN.txt	LIP	2	23	[0, 0, 0]	n/a	FR1	0	R1050M
3139.839	2.484	1403911	WORD	n/a	wordpools/wordpool_EN.txt	HOOF	3	23	[0, 0, 0]	n/a	FR1	0	R1050M
3142.323	2.418	1405153	WORD	n/a	wordpools/wordpool_EN.txt	PARK	4	23	[0, 0, 0]	n/a	FR1	0	R1050M
3144.741	2.483	1406362	WORD	n/a	wordpools/wordpool_EN.txt	STICK	5	23	[0, 0, 0]	n/a	FR1	0	R1050M
3147.224	2.534	1407603	WORD	n/a	wordpools/wordpool_EN.txt	CASH	6	23	[0, 0, 0]	n/a	FR1	0	R1050M
3149.758	2.4	1408870	WORD	n/a	wordpools/wordpool_EN.txt	FUR	7	23	[0, 0, 0]	n/a	FR1	0	R1050M
3152.158	2.568	1410070	WORD	n/a	wordpools/wordpool_EN.txt	CAVE	8	23	[0, 0, 0]	n/a	FR1	0	R1050M
3154.726	2.384	1411354	WORD	n/a	wordpools/wordpool_EN.txt	CALF	9	23	[0, 0, 0]	n/a	FR1	0	R1050M
3157.11	2.467	1412546	WORD	n/a	wordpools/wordpool_EN.txt	ZOO	10	23	[0, 0, 0]	n/a	FR1	0	R1050M
3159.577	2.467	1413779	WORD	n/a	wordpools/wordpool_EN.txt	SPRING	11	23	[0, 0, 0]	n/a	FR1	0	R1050M
3162.044	1.617	1415013	WORD	n/a	wordpools/wordpool_EN.txt	ARM	12	23	[0, 0, 0]	n/a	FR1	0	R1050M
3163.661	0.001	1415821	DISTRACT_START	n/a	n/a	n/a	-999	23	[0, 0, 0]	n/a	FR1	0	R1050M
3163.662	0.015	1415822	START	n/a	n/a	n/a	-999	23	[-999, -999, -999]	n/a	FR1	0	R1050M
3163.677	7.201	1415829	PROB	7.201	n/a	n/a	-999	23	[3, 1, 8]	12	FR1	0	R1050M
3170.878	8.935	1419429	PROB	8.935	n/a	n/a	-999	23	[9, 3, 3]	15	FR1	0	R1050M
3179.813	6.608	1423897	PROB	6.608	n/a	n/a	-999	23	[2, 4, 8]	14	FR1	0	R1050M
3186.421	0.011	1427201	STOP	n/a	n/a	n/a	-999	23	[-999, -999, -999]	n/a	FR1	0	R1050M
3186.432	1.217	1427206	DISTRACT_END	n/a	n/a	n/a	-999	23	[0, 0, 0]	n/a	FR1	0	R1050M
3187.649	1.198	1427814	REC_START	n/a	n/a	n/a	-999	23	[0, 0, 0]	n/a	FR1	0	R1050M
3188.847	1.233	1428413	REC_WORD	1.233	n/a	TANK	-999	23	[0, 0, 0]	n/a	FR1	0	R1050M
3190.08	1.95	1429030	REC_WORD	1.95	n/a	SPRING	-999	23	[0, 0, 0]	n/a	FR1	0	R1050M
3192.03	25.632	1430005	REC_WORD	25.632	n/a	STICK	-999	23	[0, 0, 0]	n/a	FR1	0	R1050M
3217.662	12.595	1442820	REC_END	n/a	n/a	n/a	-999	23	[0, 0, 0]	n/a	FR1	0	R1050M
3230.257	0.0	1449117	COUNTDOWN_START	n/a	n/a	n/a	-999	24	[0, 0, 0]	n/a	FR1	0	R1050M
3230.257	10.428	1449117	TRIAL	n/a	n/a	n/a	-999	24	[0, 0, 0]	n/a	FR1	0	R1050M
3240.685	0.007	1454331	COUNTDOWN_END	n/a	n/a	n/a	-999	24	[0, 0, 0]	n/a	FR1	0	R1050M
3240.692	2.517	1454334	ORIENT	n/a	n/a	n/a	-999	24	[0, 0, 0]	n/a	FR1	0	R1050M
3243.209	2.617	1455593	WORD	n/a	wordpools/wordpool_EN.txt	PIE	1	24	[0, 0, 0]	n/a	FR1	0	R1050M
3245.826	2.401	1456901	WORD	n/a	wordpools/wordpool_EN.txt	CUP	2	24	[0, 0, 0]	n/a	FR1	0	R1050M
3248.227	2.384	1458102	WORD	n/a	wordpools/wordpool_EN.txt	SEAT	3	24	[0, 0, 0]	n/a	FR1	0	R1050M
3250.611	2.4	1459294	WORD	n/a	wordpools/wordpool_EN.txt	SINK	4	24	[0, 0, 0]	n/a	FR1	0	R1050M
3253.011	2.418	1460494	WORD	n/a	wordpools/wordpool_EN.txt	SMILE	5	24	[0, 0, 0]	n/a	FR1	0	R1050M
3255.429	2.6	1461703	WORD	n/a	wordpools/wordpool_EN.txt	VEST	6	24	[0, 0, 0]	n/a	FR1	0	R1050M
3258.029	2.617	1463003	WORD	n/a	wordpools/wordpool_EN.txt	OAR	7	24	[0, 0, 0]	n/a	FR1	0	R1050M
3260.646	2.417	1464311	WORD	n/a	wordpools/wordpool_EN.txt	PEACH	8	24	[0, 0, 0]	n/a	FR1	0	R1050M
3263.063	2.601	1465519	WORD	n/a	wordpools/wordpool_EN.txt	CAKE	9	24	[0, 0, 0]	n/a	FR1	0	R1050M
3265.664	2.55	1466820	WORD	n/a	wordpools/wordpool_EN.txt	SHIELD	10	24	[0, 0, 0]	n/a	FR1	0	R1050M
3268.214	2.567	1468095	WORD	n/a	wordpools/wordpool_EN.txt	GLOVE	11	24	[0, 0, 0]	n/a	FR1	0	R1050M
3270.781	1.618	1469378	WORD	n/a	wordpools/wordpool_EN.txt	DIME	12	24	[0, 0, 0]	n/a	FR1	0	R1050M
3272.399	0.0	1470187	DISTRACT_START	n/a	n/a	n/a	-999	24	[0, 0, 0]	n/a	FR1	0	R1050M
3272.399	0.016	1470187	START	n/a	n/a	n/a	-999	24	[-999, -999, -999]	n/a	FR1	0	R1050M
3272.415	3.701	1470195	PROB	3.701	n/a	n/a	-999	24	[8, 1, 8]	17	FR1	0	R1050M
3276.116	8.218	1472046	PROB	8.218	n/a	n/a	-999	24	[5, 1, 7]	13	FR1	0	R1050M
3284.334	4.984	1476154	PROB	4.984	n/a	n/a	-999	24	[2, 7, 9]	18	FR1	0	R1050M
3289.318	7.391	1478646	PROB	7.391	n/a	n/a	-999	24	[4, 6, 6]	15	FR1	0	R1050M
3296.709	0.011	1482341	STOP	n/a	n/a	n/a	-999	24	[-999, -999, -999]	n/a	FR1	0	R1050M
3296.72	1.1	1482347	DISTRACT_END	n/a	n/a	n/a	-999	24	[0, 0, 0]	n/a	FR1	0	R1050M
3297.82	1.072	1482897	REC_START	n/a	n/a	n/a	-999	24	[0, 0, 0]	n/a	FR1	0	R1050M
3298.892	1.092	1483433	REC_WORD	1.092	n/a	CUP	-999	24	[0, 0, 0]	n/a	FR1	0	R1050M
3299.984	1.6	1483979	REC_WORD	1.6	n/a	SMILE	-999	24	[0, 0, 0]	n/a	FR1	0	R1050M
3301.584	1.738	1484779	REC_WORD	1.738	n/a	PEACH	-999	24	[0, 0, 0]	n/a	FR1	0	R1050M
3303.322	2.279	1485648	REC_WORD	2.279	n/a	SHIELD	-999	24	[0, 0, 0]	n/a	FR1	0	R1050M
3305.601	20.384	1486787	REC_WORD	20.384	n/a	OAR	-999	24	[0, 0, 0]	n/a	FR1	0	R1050M
3325.985	1.847	1496979	REC_WORD	1.847	n/a	SINK	-999	24	[0, 0, 0]	n/a	FR1	0	R1050M
3327.832	10.313	1497902	REC_END	n/a	n/a	n/a	-999	24	[0, 0, 0]	n/a	FR1	0	R1050M
3338.145	0.0	1503058	TRIAL	n/a	n/a	n/a	-999	25	[0, 0, 0]	n/a	FR1	0	R1050M
3338.145	10.428	1503058	COUNTDOWN_START	n/a	n/a	n/a	-999	25	[0, 0, 0]	n/a	FR1	0	R1050M
3348.573	0.007	1508272	COUNTDOWN_END	n/a	n/a	n/a	-999	25	[0, 0, 0]	n/a	FR1	0	R1050M
3348.58	2.5	1508275	ORIENT	n/a	n/a	n/a	-999	25	[0, 0, 0]	n/a	FR1	0	R1050M
3351.08	2.518	1509525	WORD	n/a	wordpools/wordpool_EN.txt	HORN	1	25	[0, 0, 0]	n/a	FR1	0	R1050M
3353.598	2.45	1510784	WORD	n/a	wordpools/wordpool_EN.txt	PRINCE	2	25	[0, 0, 0]	n/a	FR1	0	R1050M
3356.048	2.451	1512009	WORD	n/a	wordpools/wordpool_EN.txt	GATE	3	25	[0, 0, 0]	n/a	FR1	0	R1050M
3358.499	2.567	1513235	WORD	n/a	wordpools/wordpool_EN.txt	FACE	4	25	[0, 0, 0]	n/a	FR1	0	R1050M
3361.066	2.467	1514518	WORD	n/a	wordpools/wordpool_EN.txt	THREAD	5	25	[0, 0, 0]	n/a	FR1	0	R1050M
3363.533	2.6	1515752	WORD	n/a	wordpools/wordpool_EN.txt	FENCE	6	25	[0, 0, 0]	n/a	FR1	0	R1050M
3366.133	2.617	1517051	WORD	n/a	wordpools/wordpool_EN.txt	ELF	7	25	[0, 0, 0]	n/a	FR1	0	R1050M
3368.75	2.484	1518360	WORD	n/a	wordpools/wordpool_EN.txt	POOL	8	25	[0, 0, 0]	n/a	FR1	0	R1050M
3371.234	2.401	1519602	WORD	n/a	wordpools/wordpool_EN.txt	STREET	9	25	[0, 0, 0]	n/a	FR1	0	R1050M
3373.635	2.467	1520802	WORD	n/a	wordpools/wordpool_EN.txt	SPARK	10	25	[0, 0, 0]	n/a	FR1	0	R1050M
3376.102	2.384	1522036	WORD	n/a	wordpools/wordpool_EN.txt	DOLL	11	25	[0, 0, 0]	n/a	FR1	0	R1050M
3378.486	1.617	1523228	WORD	n/a	wordpools/wordpool_EN.txt	TENT	12	25	[0, 0, 0]	n/a	FR1	0	R1050M
3380.103	0.001	1524036	DISTRACT_START	n/a	n/a	n/a	-999	25	[0, 0, 0]	n/a	FR1	0	R1050M
3380.104	0.015	1524037	START	n/a	n/a	n/a	-999	25	[-999, -999, -999]	n/a	FR1	0	R1050M
3380.119	4.501	1524044	PROB	4.501	n/a	n/a	-999	25	[2, 4, 8]	14	FR1	0	R1050M
3384.62	8.769	1526294	PROB	8.769	n/a	n/a	-999	25	[3, 9, 8]	20	FR1	0	R1050M
3393.389	2.65	1530679	PROB	2.65	n/a	n/a	-999	25	[5, 1, 1]	7	FR1	0	R1050M
3396.039	5.287	1532004	PROB	5.287	n/a	n/a	-999	25	[2, 2, 7]	11	FR1	0	R1050M
3401.326	0.014	1534647	STOP	n/a	n/a	n/a	-999	25	[-999, -999, -999]	n/a	FR1	0	R1050M
3401.34	1.101	1534654	DISTRACT_END	n/a	n/a	n/a	-999	25	[0, 0, 0]	n/a	FR1	0	R1050M
3402.441	1.47	1535204	REC_START	n/a	n/a	n/a	-999	25	[0, 0, 0]	n/a	FR1	0	R1050M
3403.911	1.145	1535939	REC_WORD	1.145	n/a	GATE	-999	25	[0, 0, 0]	n/a	FR1	0	R1050M
3405.056	1.988	1536512	REC_WORD	1.988	n/a	FENCE	-999	25	[0, 0, 0]	n/a	FR1	0	R1050M
3407.044	3.485	1537506	REC_WORD	3.485	n/a	PRINCE	-999	25	[0, 0, 0]	n/a	FR1	0	R1050M
3410.529	4.469	1539248	REC_WORD	4.469	n/a	HORN	-999	25	[0, 0, 0]	n/a	FR1	0	R1050M
3414.998	10.414	1541483	REC_WORD	10.414	n/a	ELF	-999	25	[0, 0, 0]	n/a	FR1	0	R1050M
3425.412	7.04	1546689	REC_WORD	7.04	n/a	THREAD	-999	25	[0, 0, 0]	n/a	FR1	0	R1050M
3432.452	9.196	1550209	REC_END	n/a	n/a	n/a	-999	25	[0, 0, 0]	n/a	FR1	0	R1050M
3441.648	0.0	1554807	SESS_END	n/a	n/a	n/a	-999	25	[0, 0, 0]	n/a	FR1	0	R1050M
