onset	duration	sample	trial_type	response_time	stim_file	item_name	serialpos	list	test	answer	experiment	session	subject
0.0	0.0	44004	INSTRUCT_START	n/a	n/a	n/a	-999	-999	[0, 0, 0]	n/a	FR1	1	R1226D
0.0	11.053	44004	INSTRUCT_END	n/a	n/a	n/a	-999	-999	[0, 0, 0]	n/a	FR1	1	R1226D
11.053	0.0	55057	SESS_START	n/a	n/a	n/a	-999	-999	[0, 0, 0]	n/a	FR1	1	R1226D
11.053	14.001	55057	MIC_TEST	n/a	n/a	n/a	-999	-999	[0, 0, 0]	n/a	FR1	1	R1226D
25.054	7.669	69057	PRACTICE_TRIAL	n/a	n/a	n/a	-999	-1	[0, 0, 0]	n/a	FR1	1	R1226D
32.723	10.428	76725	COUNTDOWN_START	n/a	n/a	n/a	-999	-1	[0, 0, 0]	n/a	FR1	1	R1226D
43.151	0.008	87153	COUNTDOWN_END	n/a	n/a	n/a	-999	-1	[0, 0, 0]	n/a	FR1	1	R1226D
43.159	1.616	87161	PRACTICE_ORIENT	n/a	n/a	n/a	-999	-1	[0, 0, 0]	n/a	FR1	1	R1226D
44.775	2.167	88777	PRACTICE_ORIENT_OFF	n/a	n/a	n/a	-999	-1	[0, 0, 0]	n/a	FR1	1	R1226D
46.942	1.617	90944	PRACTICE_WORD	n/a	n/a	IRON	1	-1	[0, 0, 0]	n/a	FR1	1	R1226D
48.559	0.817	92561	PRACTICE_WORD_OFF	n/a	n/a	IRON	-999	-1	[0, 0, 0]	n/a	FR1	1	R1226D
49.376	1.616	93378	PRACTICE_WORD	n/a	n/a	COTTON	2	-1	[0, 0, 0]	n/a	FR1	1	R1226D
50.992	0.867	94993	PRACTICE_WORD_OFF	n/a	n/a	COTTON	-999	-1	[0, 0, 0]	n/a	FR1	1	R1226D
51.859	1.617	95860	PRACTICE_WORD	n/a	n/a	TONGUE	3	-1	[0, 0, 0]	n/a	FR1	1	R1226D
53.476	0.967	97477	PRACTICE_WORD_OFF	n/a	n/a	TONGUE	-999	-1	[0, 0, 0]	n/a	FR1	1	R1226D
54.443	1.617	98444	PRACTICE_WORD	n/a	n/a	WATCH	4	-1	[0, 0, 0]	n/a	FR1	1	R1226D
56.06	0.917	100061	PRACTICE_WORD_OFF	n/a	n/a	WATCH	-999	-1	[0, 0, 0]	n/a	FR1	1	R1226D
56.977	1.617	100978	PRACTICE_WORD	n/a	n/a	CHEST	5	-1	[0, 0, 0]	n/a	FR1	1	R1226D
58.594	0.967	102595	PRACTICE_WORD_OFF	n/a	n/a	CHEST	-999	-1	[0, 0, 0]	n/a	FR1	1	R1226D
59.561	1.618	103562	PRACTICE_WORD	n/a	n/a	RING	6	-1	[0, 0, 0]	n/a	FR1	1	R1226D
61.179	0.899	105180	PRACTICE_WORD_OFF	n/a	n/a	RING	-999	-1	[0, 0, 0]	n/a	FR1	1	R1226D
62.078	1.617	106079	PRACTICE_WORD	n/a	n/a	BEAM	7	-1	[0, 0, 0]	n/a	FR1	1	R1226D
63.695	0.9	107696	PRACTICE_WORD_OFF	n/a	n/a	BEAM	-999	-1	[0, 0, 0]	n/a	FR1	1	R1226D
64.595	1.618	108596	PRACTICE_WORD	n/a	n/a	RHINO	8	-1	[0, 0, 0]	n/a	FR1	1	R1226D
66.213	0.95	110214	PRACTICE_WORD_OFF	n/a	n/a	RHINO	-999	-1	[0, 0, 0]	n/a	FR1	1	R1226D
67.163	1.616	111164	PRACTICE_WORD	n/a	n/a	FLOOD	9	-1	[0, 0, 0]	n/a	FR1	1	R1226D
68.779	0.9	112780	PRACTICE_WORD_OFF	n/a	n/a	FLOOD	-999	-1	[0, 0, 0]	n/a	FR1	1	R1226D
69.679	1.617	113679	PRACTICE_WORD	n/a	n/a	ATTIC	10	-1	[0, 0, 0]	n/a	FR1	1	R1226D
71.296	0.851	115296	PRACTICE_WORD_OFF	n/a	n/a	ATTIC	-999	-1	[0, 0, 0]	n/a	FR1	1	R1226D
72.147	1.616	116147	PRACTICE_WORD	n/a	n/a	CAMEL	11	-1	[0, 0, 0]	n/a	FR1	1	R1226D
73.763	1.001	117763	PRACTICE_WORD_OFF	n/a	n/a	CAMEL	-999	-1	[0, 0, 0]	n/a	FR1	1	R1226D
74.764	1.616	118764	PRACTICE_WORD	n/a	n/a	WAGON	12	-1	[0, 0, 0]	n/a	FR1	1	R1226D
76.38	0.0	120380	PRACTICE_WORD_OFF	n/a	n/a	WAGON	-999	-1	[0, 0, 0]	n/a	FR1	1	R1226D
76.38	0.001	120380	DISTRACT_START	n/a	n/a	n/a	-999	-1	[0, 0, 0]	n/a	FR1	1	R1226D
76.381	0.016	120381	START	n/a	n/a	n/a	-999	-1	[-999, -999, -999]	n/a	FR1	1	R1226D
76.397	7.585	120397	PROB	7.585	n/a	n/a	-999	-1	[9, 9, 7]	25	FR1	1	R1226D
83.982	3.317	127982	PROB	3.317	n/a	n/a	-999	-1	[2, 4, 1]	7	FR1	1	R1226D
87.299	3.751	131298	PROB	3.751	n/a	n/a	-999	-1	[5, 1, 7]	13	FR1	1	R1226D
91.05	2.45	135049	PROB	2.45	n/a	n/a	-999	-1	[5, 2, 5]	12	FR1	1	R1226D
93.5	3.462	137499	PROB	3.462	n/a	n/a	-999	-1	[2, 9, 3]	14	FR1	1	R1226D
96.962	0.005	140961	STOP	n/a	n/a	n/a	-999	-1	[-999, -999, -999]	n/a	FR1	1	R1226D
96.967	0.601	140966	DISTRACT_END	n/a	n/a	n/a	-999	-1	[0, 0, 0]	n/a	FR1	1	R1226D
97.568	0.517	141567	RETRIEVAL_ORIENT	n/a	n/a	n/a	-999	-1	[0, 0, 0]	n/a	FR1	1	R1226D
98.085	30.011	142084	PRACTICE_REC_START	n/a	n/a	n/a	-999	-1	[0, 0, 0]	n/a	FR1	1	R1226D
128.096	27.332	172093	PRACTICE_REC_END	n/a	n/a	n/a	-999	-1	[0, 0, 0]	n/a	FR1	1	R1226D
155.428	0.5	199424	TRIAL	n/a	n/a	n/a	-999	1	[0, 0, 0]	n/a	FR1	1	R1226D
155.928	10.428	199924	COUNTDOWN_START	n/a	n/a	n/a	-999	1	[0, 0, 0]	n/a	FR1	1	R1226D
166.356	0.007	210351	COUNTDOWN_END	n/a	n/a	n/a	-999	1	[0, 0, 0]	n/a	FR1	1	R1226D
166.363	1.617	210358	ORIENT	n/a	n/a	n/a	-999	1	[0, 0, 0]	n/a	FR1	1	R1226D
167.98	2.169	211975	ORIENT_OFF	n/a	n/a	n/a	-999	1	[0, 0, 0]	n/a	FR1	1	R1226D
170.149	1.616	214144	WORD	n/a	wordpools/wordpool_EN.txt	SNOW	1	1	[0, 0, 0]	n/a	FR1	1	R1226D
171.765	0.783	215760	WORD_OFF	n/a	n/a	SNOW	1	1	[0, 0, 0]	n/a	FR1	1	R1226D
172.548	1.618	216543	WORD	n/a	wordpools/wordpool_EN.txt	HAWK	2	1	[0, 0, 0]	n/a	FR1	1	R1226D
174.166	1.0	218161	WORD_OFF	n/a	n/a	HAWK	2	1	[0, 0, 0]	n/a	FR1	1	R1226D
175.166	1.616	219161	WORD	n/a	wordpools/wordpool_EN.txt	PIE	3	1	[0, 0, 0]	n/a	FR1	1	R1226D
176.782	0.984	220777	WORD_OFF	n/a	n/a	PIE	3	1	[0, 0, 0]	n/a	FR1	1	R1226D
177.766	1.617	221761	WORD	n/a	wordpools/wordpool_EN.txt	FAN	4	1	[0, 0, 0]	n/a	FR1	1	R1226D
179.383	0.784	223377	WORD_OFF	n/a	n/a	FAN	4	1	[0, 0, 0]	n/a	FR1	1	R1226D
180.167	1.616	224161	WORD	n/a	wordpools/wordpool_EN.txt	DRUM	5	1	[0, 0, 0]	n/a	FR1	1	R1226D
181.783	0.817	225777	WORD_OFF	n/a	n/a	DRUM	5	1	[0, 0, 0]	n/a	FR1	1	R1226D
182.6	1.618	226594	WORD	n/a	wordpools/wordpool_EN.txt	TEA	6	1	[0, 0, 0]	n/a	FR1	1	R1226D
184.218	0.882	228212	WORD_OFF	n/a	n/a	TEA	6	1	[0, 0, 0]	n/a	FR1	1	R1226D
185.1	1.617	229094	WORD	n/a	wordpools/wordpool_EN.txt	FUR	7	1	[0, 0, 0]	n/a	FR1	1	R1226D
186.717	0.867	230711	WORD_OFF	n/a	n/a	FUR	7	1	[0, 0, 0]	n/a	FR1	1	R1226D
187.584	1.618	231578	WORD	n/a	wordpools/wordpool_EN.txt	STEM	8	1	[0, 0, 0]	n/a	FR1	1	R1226D
189.202	0.799	233196	WORD_OFF	n/a	n/a	STEM	8	1	[0, 0, 0]	n/a	FR1	1	R1226D
190.001	1.617	233995	WORD	n/a	wordpools/wordpool_EN.txt	VINE	9	1	[0, 0, 0]	n/a	FR1	1	R1226D
191.618	0.867	235612	WORD_OFF	n/a	n/a	VINE	9	1	[0, 0, 0]	n/a	FR1	1	R1226D
192.485	1.617	236479	WORD	n/a	wordpools/wordpool_EN.txt	COUCH	10	1	[0, 0, 0]	n/a	FR1	1	R1226D
194.102	0.817	238096	WORD_OFF	n/a	n/a	COUCH	10	1	[0, 0, 0]	n/a	FR1	1	R1226D
194.919	1.617	238913	WORD	n/a	wordpools/wordpool_EN.txt	HAT	11	1	[0, 0, 0]	n/a	FR1	1	R1226D
196.536	0.95	240529	WORD_OFF	n/a	n/a	HAT	11	1	[0, 0, 0]	n/a	FR1	1	R1226D
197.486	1.617	241479	WORD	n/a	wordpools/wordpool_EN.txt	EEL	12	1	[0, 0, 0]	n/a	FR1	1	R1226D
199.103	0.0	243096	WORD_OFF	n/a	n/a	EEL	12	1	[0, 0, 0]	n/a	FR1	1	R1226D
199.103	0.001	243096	DISTRACT_START	n/a	n/a	n/a	-999	1	[0, 0, 0]	n/a	FR1	1	R1226D
199.104	0.017	243097	START	n/a	n/a	n/a	-999	1	[-999, -999, -999]	n/a	FR1	1	R1226D
199.121	159.512	243114	PROB	159.512	n/a	n/a	-999	1	[9, 6, 2]	17	FR1	1	R1226D
358.633	0.016	402618	STOP	n/a	n/a	n/a	-999	1	[-999, -999, -999]	n/a	FR1	1	R1226D
358.649	0.584	402634	DISTRACT_END	n/a	n/a	n/a	-999	1	[0, 0, 0]	n/a	FR1	1	R1226D
359.233	0.516	403218	RETRIEVAL_ORIENT	n/a	n/a	n/a	-999	1	[0, 0, 0]	n/a	FR1	1	R1226D
359.749	0.0	403734	REC_START	n/a	n/a	n/a	-999	1	[0, 0, 0]	n/a	FR1	1	R1226D
359.749	30.012	403734	REC_WORD_VV	30.012	n/a	<>	-999	1	[0, 0, 0]	n/a	FR1	1	R1226D
389.761	10.912	433744	REC_END	n/a	n/a	n/a	-999	1	[0, 0, 0]	n/a	FR1	1	R1226D
400.673	0.5	444655	TRIAL	n/a	n/a	n/a	-999	2	[0, 0, 0]	n/a	FR1	1	R1226D
401.173	10.428	445155	COUNTDOWN_START	n/a	n/a	n/a	-999	2	[0, 0, 0]	n/a	FR1	1	R1226D
411.601	0.007	455583	COUNTDOWN_END	n/a	n/a	n/a	-999	2	[0, 0, 0]	n/a	FR1	1	R1226D
411.608	1.618	455590	ORIENT	n/a	n/a	n/a	-999	2	[0, 0, 0]	n/a	FR1	1	R1226D
413.226	2.233	457208	ORIENT_OFF	n/a	n/a	n/a	-999	2	[0, 0, 0]	n/a	FR1	1	R1226D
415.459	1.617	459440	WORD	n/a	wordpools/wordpool_EN.txt	STICK	1	2	[0, 0, 0]	n/a	FR1	1	R1226D
417.076	0.817	461057	WORD_OFF	n/a	n/a	STICK	1	2	[0, 0, 0]	n/a	FR1	1	R1226D
417.893	1.617	461874	WORD	n/a	wordpools/wordpool_EN.txt	BALL	2	2	[0, 0, 0]	n/a	FR1	1	R1226D
419.51	0.983	463491	WORD_OFF	n/a	n/a	BALL	2	2	[0, 0, 0]	n/a	FR1	1	R1226D
420.493	1.617	464474	WORD	n/a	wordpools/wordpool_EN.txt	FUDGE	3	2	[0, 0, 0]	n/a	FR1	1	R1226D
422.11	0.95	466091	WORD_OFF	n/a	n/a	FUDGE	3	2	[0, 0, 0]	n/a	FR1	1	R1226D
423.06	1.617	467041	WORD	n/a	wordpools/wordpool_EN.txt	OWL	4	2	[0, 0, 0]	n/a	FR1	1	R1226D
424.677	1.001	468658	WORD_OFF	n/a	n/a	OWL	4	2	[0, 0, 0]	n/a	FR1	1	R1226D
425.678	1.616	469659	WORD	n/a	wordpools/wordpool_EN.txt	DIME	5	2	[0, 0, 0]	n/a	FR1	1	R1226D
427.294	0.984	471275	WORD_OFF	n/a	n/a	DIME	5	2	[0, 0, 0]	n/a	FR1	1	R1226D
428.278	1.617	472259	WORD	n/a	wordpools/wordpool_EN.txt	VEST	6	2	[0, 0, 0]	n/a	FR1	1	R1226D
429.895	0.95	473876	WORD_OFF	n/a	n/a	VEST	6	2	[0, 0, 0]	n/a	FR1	1	R1226D
430.845	1.617	474826	WORD	n/a	wordpools/wordpool_EN.txt	CLOTH	7	2	[0, 0, 0]	n/a	FR1	1	R1226D
432.462	0.967	476443	WORD_OFF	n/a	n/a	CLOTH	7	2	[0, 0, 0]	n/a	FR1	1	R1226D
433.429	1.617	477409	WORD	n/a	wordpools/wordpool_EN.txt	FENCE	8	2	[0, 0, 0]	n/a	FR1	1	R1226D
435.046	0.917	479026	WORD_OFF	n/a	n/a	FENCE	8	2	[0, 0, 0]	n/a	FR1	1	R1226D
435.963	1.617	479943	WORD	n/a	wordpools/wordpool_EN.txt	HILL	9	2	[0, 0, 0]	n/a	FR1	1	R1226D
437.58	0.866	481560	WORD_OFF	n/a	n/a	HILL	9	2	[0, 0, 0]	n/a	FR1	1	R1226D
438.446	1.617	482426	WORD	n/a	wordpools/wordpool_EN.txt	DOCK	10	2	[0, 0, 0]	n/a	FR1	1	R1226D
440.063	0.951	484043	WORD_OFF	n/a	n/a	DOCK	10	2	[0, 0, 0]	n/a	FR1	1	R1226D
441.014	1.617	484994	WORD	n/a	wordpools/wordpool_EN.txt	BAG	11	2	[0, 0, 0]	n/a	FR1	1	R1226D
442.631	0.8	486611	WORD_OFF	n/a	n/a	BAG	11	2	[0, 0, 0]	n/a	FR1	1	R1226D
443.431	1.617	487411	WORD	n/a	wordpools/wordpool_EN.txt	GRAPE	12	2	[0, 0, 0]	n/a	FR1	1	R1226D
445.048	0.0	489028	WORD_OFF	n/a	n/a	GRAPE	12	2	[0, 0, 0]	n/a	FR1	1	R1226D
445.048	0.0	489028	DISTRACT_START	n/a	n/a	n/a	-999	2	[0, 0, 0]	n/a	FR1	1	R1226D
445.048	0.016	489028	START	n/a	n/a	n/a	-999	2	[-999, -999, -999]	n/a	FR1	1	R1226D
445.064	3.418	489044	PROB	3.418	n/a	n/a	-999	2	[6, 1, 4]	11	FR1	1	R1226D
448.482	2.917	492462	PROB	2.917	n/a	n/a	-999	2	[2, 2, 2]	6	FR1	1	R1226D
451.399	4.201	495378	PROB	4.201	n/a	n/a	-999	2	[6, 8, 1]	14	FR1	1	R1226D
455.6	4.568	499579	PROB	4.568	n/a	n/a	-999	2	[5, 1, 7]	13	FR1	1	R1226D
460.168	5.258	504147	PROB	5.258	n/a	n/a	-999	2	[8, 6, 8]	22	FR1	1	R1226D
465.426	0.009	509405	STOP	n/a	n/a	n/a	-999	2	[-999, -999, -999]	n/a	FR1	1	R1226D
465.435	0.533	509414	DISTRACT_END	n/a	n/a	n/a	-999	2	[0, 0, 0]	n/a	FR1	1	R1226D
465.968	0.518	509947	RETRIEVAL_ORIENT	n/a	n/a	n/a	-999	2	[0, 0, 0]	n/a	FR1	1	R1226D
466.486	3.288	510465	REC_START	n/a	n/a	n/a	-999	2	[0, 0, 0]	n/a	FR1	1	R1226D
469.774	1.396	513752	REC_WORD	1.396	n/a	OWL	4	2	[0, 0, 0]	n/a	FR1	1	R1226D
471.17	2.099	515148	REC_WORD	2.099	n/a	STICK	1	2	[0, 0, 0]	n/a	FR1	1	R1226D
473.269	3.103	517247	REC_WORD	3.103	n/a	BALL	2	2	[0, 0, 0]	n/a	FR1	1	R1226D
476.372	3.94	520350	REC_WORD	3.94	n/a	WAGON	-999	2	[0, 0, 0]	n/a	FR1	1	R1226D
480.312	16.185	524290	REC_WORD	16.185	n/a	ATTIC	-999	2	[0, 0, 0]	n/a	FR1	1	R1226D
496.497	6.178	540474	REC_END	n/a	n/a	n/a	-999	2	[0, 0, 0]	n/a	FR1	1	R1226D
502.675	0.5	546652	TRIAL	n/a	n/a	n/a	-999	3	[0, 0, 0]	n/a	FR1	1	R1226D
503.175	10.428	547152	COUNTDOWN_START	n/a	n/a	n/a	-999	3	[0, 0, 0]	n/a	FR1	1	R1226D
513.603	0.007	557579	COUNTDOWN_END	n/a	n/a	n/a	-999	3	[0, 0, 0]	n/a	FR1	1	R1226D
513.61	1.618	557586	ORIENT	n/a	n/a	n/a	-999	3	[0, 0, 0]	n/a	FR1	1	R1226D
515.228	2.066	559204	ORIENT_OFF	n/a	n/a	n/a	-999	3	[0, 0, 0]	n/a	FR1	1	R1226D
517.294	1.617	561270	WORD	n/a	wordpools/wordpool_EN.txt	TANK	1	3	[0, 0, 0]	n/a	FR1	1	R1226D
518.911	0.784	562887	WORD_OFF	n/a	n/a	TANK	1	3	[0, 0, 0]	n/a	FR1	1	R1226D
519.695	1.617	563671	WORD	n/a	wordpools/wordpool_EN.txt	WEB	2	3	[0, 0, 0]	n/a	FR1	1	R1226D
521.312	0.766	565288	WORD_OFF	n/a	n/a	WEB	2	3	[0, 0, 0]	n/a	FR1	1	R1226D
522.078	1.617	566054	WORD	n/a	wordpools/wordpool_EN.txt	FLAG	3	3	[0, 0, 0]	n/a	FR1	1	R1226D
523.695	0.95	567671	WORD_OFF	n/a	n/a	FLAG	3	3	[0, 0, 0]	n/a	FR1	1	R1226D
524.645	1.602	568620	WORD	n/a	wordpools/wordpool_EN.txt	WAVE	4	3	[0, 0, 0]	n/a	FR1	1	R1226D
526.247	0.917	570222	WORD_OFF	n/a	n/a	WAVE	4	3	[0, 0, 0]	n/a	FR1	1	R1226D
527.164	1.616	571139	WORD	n/a	wordpools/wordpool_EN.txt	SHARK	5	3	[0, 0, 0]	n/a	FR1	1	R1226D
528.78	0.95	572755	WORD_OFF	n/a	n/a	SHARK	5	3	[0, 0, 0]	n/a	FR1	1	R1226D
529.73	1.617	573705	WORD	n/a	wordpools/wordpool_EN.txt	MAIL	6	3	[0, 0, 0]	n/a	FR1	1	R1226D
531.347	0.768	575322	WORD_OFF	n/a	n/a	MAIL	6	3	[0, 0, 0]	n/a	FR1	1	R1226D
532.115	1.616	576090	WORD	n/a	wordpools/wordpool_EN.txt	RAIN	7	3	[0, 0, 0]	n/a	FR1	1	R1226D
533.731	0.916	577706	WORD_OFF	n/a	n/a	RAIN	7	3	[0, 0, 0]	n/a	FR1	1	R1226D
534.647	1.602	578622	WORD	n/a	wordpools/wordpool_EN.txt	MAP	8	3	[0, 0, 0]	n/a	FR1	1	R1226D
536.249	0.95	580224	WORD_OFF	n/a	n/a	MAP	8	3	[0, 0, 0]	n/a	FR1	1	R1226D
537.199	1.616	581174	WORD	n/a	wordpools/wordpool_EN.txt	GRASS	9	3	[0, 0, 0]	n/a	FR1	1	R1226D
538.815	0.9	582790	WORD_OFF	n/a	n/a	GRASS	9	3	[0, 0, 0]	n/a	FR1	1	R1226D
539.715	1.617	583690	WORD	n/a	wordpools/wordpool_EN.txt	SUN	10	3	[0, 0, 0]	n/a	FR1	1	R1226D
541.332	0.767	585307	WORD_OFF	n/a	n/a	SUN	10	3	[0, 0, 0]	n/a	FR1	1	R1226D
542.099	1.617	586073	WORD	n/a	wordpools/wordpool_EN.txt	STREET	11	3	[0, 0, 0]	n/a	FR1	1	R1226D
543.716	0.8	587690	WORD_OFF	n/a	n/a	STREET	11	3	[0, 0, 0]	n/a	FR1	1	R1226D
544.516	1.618	588490	WORD	n/a	wordpools/wordpool_EN.txt	PLANE	12	3	[0, 0, 0]	n/a	FR1	1	R1226D
546.134	0.0	590108	WORD_OFF	n/a	n/a	PLANE	12	3	[0, 0, 0]	n/a	FR1	1	R1226D
546.134	0.0	590108	DISTRACT_START	n/a	n/a	n/a	-999	3	[0, 0, 0]	n/a	FR1	1	R1226D
546.134	0.017	590108	START	n/a	n/a	n/a	-999	3	[-999, -999, -999]	n/a	FR1	1	R1226D
546.151	4.666	590125	PROB	4.666	n/a	n/a	-999	3	[2, 8, 6]	16	FR1	1	R1226D
550.817	3.134	594791	PROB	3.134	n/a	n/a	-999	3	[2, 3, 4]	9	FR1	1	R1226D
553.951	4.417	597925	PROB	4.417	n/a	n/a	-999	3	[4, 9, 9]	22	FR1	1	R1226D
558.368	3.234	602342	PROB	3.234	n/a	n/a	-999	3	[3, 3, 1]	7	FR1	1	R1226D
561.602	2.834	605575	PROB	2.834	n/a	n/a	-999	3	[2, 1, 2]	5	FR1	1	R1226D
564.436	6.22	608409	PROB	6.22	n/a	n/a	-999	3	[7, 8, 8]	23	FR1	1	R1226D
570.656	0.015	614629	STOP	n/a	n/a	n/a	-999	3	[-999, -999, -999]	n/a	FR1	1	R1226D
570.671	0.717	614644	DISTRACT_END	n/a	n/a	n/a	-999	3	[0, 0, 0]	n/a	FR1	1	R1226D
571.388	0.517	615361	RETRIEVAL_ORIENT	n/a	n/a	n/a	-999	3	[0, 0, 0]	n/a	FR1	1	R1226D
571.905	2.456	615878	REC_START	n/a	n/a	n/a	-999	3	[0, 0, 0]	n/a	FR1	1	R1226D
574.361	4.535	618334	REC_WORD_VV	4.535	n/a	<>	-999	3	[0, 0, 0]	n/a	FR1	1	R1226D
578.896	4.858	622868	REC_WORD_VV	4.858	n/a	<>	-999	3	[0, 0, 0]	n/a	FR1	1	R1226D
583.754	0.089	627726	REC_WORD_VV	0.089	n/a	<>	-999	3	[0, 0, 0]	n/a	FR1	1	R1226D
583.843	0.874	627815	REC_WORD	0.874	n/a	SAND	-999	3	[0, 0, 0]	n/a	FR1	1	R1226D
584.717	0.825	628689	REC_WORD_VV	0.825	n/a	<>	-999	3	[0, 0, 0]	n/a	FR1	1	R1226D
585.542	2.336	629514	REC_WORD	2.336	n/a	WATER	-999	3	[0, 0, 0]	n/a	FR1	1	R1226D
587.878	0.2	631850	REC_WORD_VV	0.2	n/a	<>	-999	3	[0, 0, 0]	n/a	FR1	1	R1226D
588.078	5.888	632050	REC_WORD	5.888	n/a	OWL	-999	3	[0, 0, 0]	n/a	FR1	1	R1226D
593.966	7.95	637938	REC_WORD	7.95	n/a	FENCE	-999	3	[0, 0, 0]	n/a	FR1	1	R1226D
601.916	6.712	645887	REC_END	n/a	n/a	n/a	-999	3	[0, 0, 0]	n/a	FR1	1	R1226D
608.628	0.5	652599	TRIAL	n/a	n/a	n/a	-999	4	[0, 0, 0]	n/a	FR1	1	R1226D
609.128	10.428	653099	COUNTDOWN_START	n/a	n/a	n/a	-999	4	[0, 0, 0]	n/a	FR1	1	R1226D
619.556	0.007	663526	COUNTDOWN_END	n/a	n/a	n/a	-999	4	[0, 0, 0]	n/a	FR1	1	R1226D
619.563	1.618	663533	ORIENT	n/a	n/a	n/a	-999	4	[0, 0, 0]	n/a	FR1	1	R1226D
621.181	2.083	665151	ORIENT_OFF	n/a	n/a	n/a	-999	4	[0, 0, 0]	n/a	FR1	1	R1226D
623.264	1.617	667234	WORD	n/a	wordpools/wordpool_EN.txt	RUG	1	4	[0, 0, 0]	n/a	FR1	1	R1226D
624.881	0.833	668851	WORD_OFF	n/a	n/a	RUG	1	4	[0, 0, 0]	n/a	FR1	1	R1226D
625.714	1.617	669684	WORD	n/a	wordpools/wordpool_EN.txt	MOON	2	4	[0, 0, 0]	n/a	FR1	1	R1226D
627.331	0.984	671301	WORD_OFF	n/a	n/a	MOON	2	4	[0, 0, 0]	n/a	FR1	1	R1226D
628.315	1.616	672285	WORD	n/a	wordpools/wordpool_EN.txt	STAR	3	4	[0, 0, 0]	n/a	FR1	1	R1226D
629.931	0.934	673901	WORD_OFF	n/a	n/a	STAR	3	4	[0, 0, 0]	n/a	FR1	1	R1226D
630.865	1.617	674835	WORD	n/a	wordpools/wordpool_EN.txt	STRING	4	4	[0, 0, 0]	n/a	FR1	1	R1226D
632.482	0.833	676452	WORD_OFF	n/a	n/a	STRING	4	4	[0, 0, 0]	n/a	FR1	1	R1226D
633.315	1.617	677284	WORD	n/a	wordpools/wordpool_EN.txt	BADGE	5	4	[0, 0, 0]	n/a	FR1	1	R1226D
634.932	0.817	678901	WORD_OFF	n/a	n/a	BADGE	5	4	[0, 0, 0]	n/a	FR1	1	R1226D
635.749	1.617	679718	WORD	n/a	wordpools/wordpool_EN.txt	CAR	6	4	[0, 0, 0]	n/a	FR1	1	R1226D
637.366	0.885	681335	WORD_OFF	n/a	n/a	CAR	6	4	[0, 0, 0]	n/a	FR1	1	R1226D
638.251	1.616	682220	WORD	n/a	wordpools/wordpool_EN.txt	CORN	7	4	[0, 0, 0]	n/a	FR1	1	R1226D
639.867	0.783	683836	WORD_OFF	n/a	n/a	CORN	7	4	[0, 0, 0]	n/a	FR1	1	R1226D
640.65	1.617	684619	WORD	n/a	wordpools/wordpool_EN.txt	WORLD	8	4	[0, 0, 0]	n/a	FR1	1	R1226D
642.267	0.918	686236	WORD_OFF	n/a	n/a	WORLD	8	4	[0, 0, 0]	n/a	FR1	1	R1226D
643.185	1.616	687154	WORD	n/a	wordpools/wordpool_EN.txt	POLE	9	4	[0, 0, 0]	n/a	FR1	1	R1226D
644.801	0.967	688770	WORD_OFF	n/a	n/a	POLE	9	4	[0, 0, 0]	n/a	FR1	1	R1226D
645.768	1.617	689737	WORD	n/a	wordpools/wordpool_EN.txt	LAMB	10	4	[0, 0, 0]	n/a	FR1	1	R1226D
647.385	0.801	691354	WORD_OFF	n/a	n/a	LAMB	10	4	[0, 0, 0]	n/a	FR1	1	R1226D
648.186	1.616	692155	WORD	n/a	wordpools/wordpool_EN.txt	SUIT	11	4	[0, 0, 0]	n/a	FR1	1	R1226D
649.802	0.783	693771	WORD_OFF	n/a	n/a	SUIT	11	4	[0, 0, 0]	n/a	FR1	1	R1226D
650.585	1.602	694554	WORD	n/a	wordpools/wordpool_EN.txt	RAKE	12	4	[0, 0, 0]	n/a	FR1	1	R1226D
652.187	0.0	696155	WORD_OFF	n/a	n/a	RAKE	12	4	[0, 0, 0]	n/a	FR1	1	R1226D
652.187	0.0	696155	DISTRACT_START	n/a	n/a	n/a	-999	4	[0, 0, 0]	n/a	FR1	1	R1226D
652.187	0.016	696155	START	n/a	n/a	n/a	-999	4	[-999, -999, -999]	n/a	FR1	1	R1226D
652.203	8.985	696171	PROB	8.985	n/a	n/a	-999	4	[7, 4, 2]	13	FR1	1	R1226D
661.188	3.116	705156	PROB	3.116	n/a	n/a	-999	4	[2, 2, 4]	8	FR1	1	R1226D
664.304	7.185	708272	PROB	7.185	n/a	n/a	-999	4	[8, 5, 6]	19	FR1	1	R1226D
671.489	2.992	715456	PROB	2.992	n/a	n/a	-999	4	[4, 1, 9]	15	FR1	1	R1226D
674.481	0.009	718448	STOP	n/a	n/a	n/a	-999	4	[-999, -999, -999]	n/a	FR1	1	R1226D
674.49	0.616	718457	DISTRACT_END	n/a	n/a	n/a	-999	4	[0, 0, 0]	n/a	FR1	1	R1226D
675.106	0.518	719073	RETRIEVAL_ORIENT	n/a	n/a	n/a	-999	4	[0, 0, 0]	n/a	FR1	1	R1226D
675.624	3.314	719591	REC_START	n/a	n/a	n/a	-999	4	[0, 0, 0]	n/a	FR1	1	R1226D
678.938	2.705	722905	REC_WORD	2.705	n/a	WORLD	8	4	[0, 0, 0]	n/a	FR1	1	R1226D
681.643	2.493	725610	REC_WORD	2.493	n/a	POLE	9	4	[0, 0, 0]	n/a	FR1	1	R1226D
684.136	3.004	728103	REC_WORD	3.004	n/a	BADGE	5	4	[0, 0, 0]	n/a	FR1	1	R1226D
687.14	3.081	731107	REC_WORD	3.081	n/a	STAR	3	4	[0, 0, 0]	n/a	FR1	1	R1226D
690.221	10.605	734187	REC_WORD	10.605	n/a	MOON	2	4	[0, 0, 0]	n/a	FR1	1	R1226D
700.826	1.551	744792	REC_WORD	1.551	n/a	BRAND	-999	4	[0, 0, 0]	n/a	FR1	1	R1226D
702.377	1.748	746343	REC_WORD_VV	1.748	n/a	<>	-999	4	[0, 0, 0]	n/a	FR1	1	R1226D
704.125	1.509	748091	REC_WORD_VV	1.509	n/a	<>	-999	4	[0, 0, 0]	n/a	FR1	1	R1226D
705.634	9.08	749599	REC_END	n/a	n/a	n/a	-999	4	[0, 0, 0]	n/a	FR1	1	R1226D
714.714	0.5	758679	TRIAL	n/a	n/a	n/a	-999	5	[0, 0, 0]	n/a	FR1	1	R1226D
715.214	10.428	759179	COUNTDOWN_START	n/a	n/a	n/a	-999	5	[0, 0, 0]	n/a	FR1	1	R1226D
725.642	0.007	769606	COUNTDOWN_END	n/a	n/a	n/a	-999	5	[0, 0, 0]	n/a	FR1	1	R1226D
725.649	1.617	769613	ORIENT	n/a	n/a	n/a	-999	5	[0, 0, 0]	n/a	FR1	1	R1226D
727.266	2.234	771230	ORIENT_OFF	n/a	n/a	n/a	-999	5	[0, 0, 0]	n/a	FR1	1	R1226D
729.5	1.618	773464	WORD	n/a	wordpools/wordpool_EN.txt	EGG	1	5	[0, 0, 0]	n/a	FR1	1	R1226D
731.118	0.899	775082	WORD_OFF	n/a	n/a	EGG	1	5	[0, 0, 0]	n/a	FR1	1	R1226D
732.017	1.617	775981	WORD	n/a	wordpools/wordpool_EN.txt	PEAR	2	5	[0, 0, 0]	n/a	FR1	1	R1226D
733.634	0.983	777598	WORD_OFF	n/a	n/a	PEAR	2	5	[0, 0, 0]	n/a	FR1	1	R1226D
734.617	1.601	778581	WORD	n/a	wordpools/wordpool_EN.txt	TRAIN	3	5	[0, 0, 0]	n/a	FR1	1	R1226D
736.218	0.783	780182	WORD_OFF	n/a	n/a	TRAIN	3	5	[0, 0, 0]	n/a	FR1	1	R1226D
737.001	1.617	780965	WORD	n/a	wordpools/wordpool_EN.txt	COW	4	5	[0, 0, 0]	n/a	FR1	1	R1226D
738.618	0.8	782582	WORD_OFF	n/a	n/a	COW	4	5	[0, 0, 0]	n/a	FR1	1	R1226D
739.418	1.617	783382	WORD	n/a	wordpools/wordpool_EN.txt	SEED	5	5	[0, 0, 0]	n/a	FR1	1	R1226D
741.035	0.867	784999	WORD_OFF	n/a	n/a	SEED	5	5	[0, 0, 0]	n/a	FR1	1	R1226D
741.902	1.617	785866	WORD	n/a	wordpools/wordpool_EN.txt	ROOT	6	5	[0, 0, 0]	n/a	FR1	1	R1226D
743.519	0.95	787482	WORD_OFF	n/a	n/a	ROOT	6	5	[0, 0, 0]	n/a	FR1	1	R1226D
744.469	1.617	788432	WORD	n/a	wordpools/wordpool_EN.txt	FOX	7	5	[0, 0, 0]	n/a	FR1	1	R1226D
746.086	0.933	790049	WORD_OFF	n/a	n/a	FOX	7	5	[0, 0, 0]	n/a	FR1	1	R1226D
747.019	1.618	790982	WORD	n/a	wordpools/wordpool_EN.txt	BEAK	8	5	[0, 0, 0]	n/a	FR1	1	R1226D
748.637	0.9	792600	WORD_OFF	n/a	n/a	BEAK	8	5	[0, 0, 0]	n/a	FR1	1	R1226D
749.537	1.618	793500	WORD	n/a	wordpools/wordpool_EN.txt	SHRIMP	9	5	[0, 0, 0]	n/a	FR1	1	R1226D
751.155	0.765	795118	WORD_OFF	n/a	n/a	SHRIMP	9	5	[0, 0, 0]	n/a	FR1	1	R1226D
751.92	1.617	795883	WORD	n/a	wordpools/wordpool_EN.txt	ICE	10	5	[0, 0, 0]	n/a	FR1	1	R1226D
753.537	0.884	797500	WORD_OFF	n/a	n/a	ICE	10	5	[0, 0, 0]	n/a	FR1	1	R1226D
754.421	1.617	798384	WORD	n/a	wordpools/wordpool_EN.txt	JAR	11	5	[0, 0, 0]	n/a	FR1	1	R1226D
756.038	0.983	800001	WORD_OFF	n/a	n/a	JAR	11	5	[0, 0, 0]	n/a	FR1	1	R1226D
757.021	1.617	800984	WORD	n/a	wordpools/wordpool_EN.txt	JAIL	12	5	[0, 0, 0]	n/a	FR1	1	R1226D
758.638	0.0	802601	DISTRACT_START	n/a	n/a	n/a	-999	5	[0, 0, 0]	n/a	FR1	1	R1226D
758.638	0.001	802601	WORD_OFF	n/a	n/a	JAIL	12	5	[0, 0, 0]	n/a	FR1	1	R1226D
758.639	0.016	802602	START	n/a	n/a	n/a	-999	5	[-999, -999, -999]	n/a	FR1	1	R1226D
758.655	14.103	802618	PROB	14.103	n/a	n/a	-999	5	[7, 9, 4]	20	FR1	1	R1226D
772.758	5.435	816720	PROB	5.435	n/a	n/a	-999	5	[1, 4, 8]	13	FR1	1	R1226D
778.193	7.176	822155	PROB	7.176	n/a	n/a	-999	5	[7, 8, 9]	24	FR1	1	R1226D
785.369	0.007	829330	STOP	n/a	n/a	n/a	-999	5	[-999, -999, -999]	n/a	FR1	1	R1226D
785.376	0.55	829337	DISTRACT_END	n/a	n/a	n/a	-999	5	[0, 0, 0]	n/a	FR1	1	R1226D
785.926	0.518	829887	RETRIEVAL_ORIENT	n/a	n/a	n/a	-999	5	[0, 0, 0]	n/a	FR1	1	R1226D
786.444	5.33	830405	REC_START	n/a	n/a	n/a	-999	5	[0, 0, 0]	n/a	FR1	1	R1226D
791.774	0.739	835735	REC_WORD_VV	0.739	n/a	<>	-999	5	[0, 0, 0]	n/a	FR1	1	R1226D
792.513	1.508	836474	REC_WORD	1.508	n/a	BEAK	8	5	[0, 0, 0]	n/a	FR1	1	R1226D
794.021	4.615	837982	REC_WORD	4.615	n/a	SEED	5	5	[0, 0, 0]	n/a	FR1	1	R1226D
798.636	2.907	842596	REC_WORD	2.907	n/a	ICE	10	5	[0, 0, 0]	n/a	FR1	1	R1226D
801.543	3.607	845503	REC_WORD	3.607	n/a	SHOP	-999	5	[0, 0, 0]	n/a	FR1	1	R1226D
805.15	9.695	849110	REC_WORD	9.695	n/a	SHRIMP	9	5	[0, 0, 0]	n/a	FR1	1	R1226D
814.845	1.61	858804	REC_WORD	1.61	n/a	LOG	-999	5	[0, 0, 0]	n/a	FR1	1	R1226D
816.455	81.942	860414	REC_END	n/a	n/a	n/a	-999	5	[0, 0, 0]	n/a	FR1	1	R1226D
898.397	0.5	942352	TRIAL	n/a	n/a	n/a	-999	6	[0, 0, 0]	n/a	FR1	1	R1226D
898.897	10.428	942852	COUNTDOWN_START	n/a	n/a	n/a	-999	6	[0, 0, 0]	n/a	FR1	1	R1226D
909.325	0.008	953279	COUNTDOWN_END	n/a	n/a	n/a	-999	6	[0, 0, 0]	n/a	FR1	1	R1226D
909.333	1.617	953287	ORIENT	n/a	n/a	n/a	-999	6	[0, 0, 0]	n/a	FR1	1	R1226D
910.95	1.983	954904	ORIENT_OFF	n/a	n/a	n/a	-999	6	[0, 0, 0]	n/a	FR1	1	R1226D
912.933	1.617	956887	WORD	n/a	wordpools/wordpool_EN.txt	STEAM	1	6	[0, 0, 0]	n/a	FR1	1	R1226D
914.55	0.934	958504	WORD_OFF	n/a	n/a	STEAM	1	6	[0, 0, 0]	n/a	FR1	1	R1226D
915.484	1.617	959438	WORD	n/a	wordpools/wordpool_EN.txt	GEESE	2	6	[0, 0, 0]	n/a	FR1	1	R1226D
917.101	0.917	961055	WORD_OFF	n/a	n/a	GEESE	2	6	[0, 0, 0]	n/a	FR1	1	R1226D
918.018	1.616	961972	WORD	n/a	wordpools/wordpool_EN.txt	SHELL	3	6	[0, 0, 0]	n/a	FR1	1	R1226D
919.634	0.851	963588	WORD_OFF	n/a	n/a	SHELL	3	6	[0, 0, 0]	n/a	FR1	1	R1226D
920.485	1.617	964439	WORD	n/a	wordpools/wordpool_EN.txt	COIN	4	6	[0, 0, 0]	n/a	FR1	1	R1226D
922.102	0.85	966056	WORD_OFF	n/a	n/a	COIN	4	6	[0, 0, 0]	n/a	FR1	1	R1226D
922.952	1.617	966906	WORD	n/a	wordpools/wordpool_EN.txt	TOY	5	6	[0, 0, 0]	n/a	FR1	1	R1226D
924.569	0.9	968522	WORD_OFF	n/a	n/a	TOY	5	6	[0, 0, 0]	n/a	FR1	1	R1226D
925.469	1.617	969422	WORD	n/a	wordpools/wordpool_EN.txt	FOAM	6	6	[0, 0, 0]	n/a	FR1	1	R1226D
927.086	0.783	971039	WORD_OFF	n/a	n/a	FOAM	6	6	[0, 0, 0]	n/a	FR1	1	R1226D
927.869	1.617	971822	WORD	n/a	wordpools/wordpool_EN.txt	ROPE	7	6	[0, 0, 0]	n/a	FR1	1	R1226D
929.486	0.784	973439	WORD_OFF	n/a	n/a	ROPE	7	6	[0, 0, 0]	n/a	FR1	1	R1226D
930.27	1.617	974223	WORD	n/a	wordpools/wordpool_EN.txt	PLANT	8	6	[0, 0, 0]	n/a	FR1	1	R1226D
931.887	0.783	975840	WORD_OFF	n/a	n/a	PLANT	8	6	[0, 0, 0]	n/a	FR1	1	R1226D
932.67	1.617	976623	WORD	n/a	wordpools/wordpool_EN.txt	HOOK	9	6	[0, 0, 0]	n/a	FR1	1	R1226D
934.287	0.935	978240	WORD_OFF	n/a	n/a	HOOK	9	6	[0, 0, 0]	n/a	FR1	1	R1226D
935.222	1.616	979175	WORD	n/a	wordpools/wordpool_EN.txt	CLOWN	10	6	[0, 0, 0]	n/a	FR1	1	R1226D
936.838	0.85	980791	WORD_OFF	n/a	n/a	CLOWN	10	6	[0, 0, 0]	n/a	FR1	1	R1226D
937.688	1.617	981641	WORD	n/a	wordpools/wordpool_EN.txt	HOUSE	11	6	[0, 0, 0]	n/a	FR1	1	R1226D
939.305	1.0	983258	WORD_OFF	n/a	n/a	HOUSE	11	6	[0, 0, 0]	n/a	FR1	1	R1226D
940.305	1.617	984258	WORD	n/a	wordpools/wordpool_EN.txt	SHIP	12	6	[0, 0, 0]	n/a	FR1	1	R1226D
941.922	0.0	985875	WORD_OFF	n/a	n/a	SHIP	12	6	[0, 0, 0]	n/a	FR1	1	R1226D
941.922	0.0	985875	DISTRACT_START	n/a	n/a	n/a	-999	6	[0, 0, 0]	n/a	FR1	1	R1226D
941.922	0.017	985875	START	n/a	n/a	n/a	-999	6	[-999, -999, -999]	n/a	FR1	1	R1226D
941.939	8.768	985892	PROB	8.768	n/a	n/a	-999	6	[8, 8, 8]	24	FR1	1	R1226D
950.707	2.967	994659	PROB	2.967	n/a	n/a	-999	6	[2, 6, 3]	11	FR1	1	R1226D
953.674	2.951	997626	PROB	2.951	n/a	n/a	-999	6	[2, 6, 6]	14	FR1	1	R1226D
956.625	4.4	1000577	PROB	4.4	n/a	n/a	-999	6	[6, 7, 8]	21	FR1	1	R1226D
961.025	4.904	1004976	PROB	4.904	n/a	n/a	-999	6	[9, 7, 5]	21	FR1	1	R1226D
965.929	0.014	1009880	STOP	n/a	n/a	n/a	-999	6	[-999, -999, -999]	n/a	FR1	1	R1226D
965.943	0.7	1009894	DISTRACT_END	n/a	n/a	n/a	-999	6	[0, 0, 0]	n/a	FR1	1	R1226D
966.643	0.502	1010594	RETRIEVAL_ORIENT	n/a	n/a	n/a	-999	6	[0, 0, 0]	n/a	FR1	1	R1226D
967.145	3.938	1011096	REC_START	n/a	n/a	n/a	-999	6	[0, 0, 0]	n/a	FR1	1	R1226D
971.083	2.06	1015034	REC_WORD	2.06	n/a	HOOK	9	6	[0, 0, 0]	n/a	FR1	1	R1226D
973.143	4.0	1017094	REC_WORD	4.0	n/a	SHEEP	-999	6	[0, 0, 0]	n/a	FR1	1	R1226D
977.143	5.876	1021094	REC_WORD_VV	5.876	n/a	<>	-999	6	[0, 0, 0]	n/a	FR1	1	R1226D
983.019	5.233	1026969	REC_WORD	5.233	n/a	HOUSE	11	6	[0, 0, 0]	n/a	FR1	1	R1226D
988.252	3.587	1032202	REC_WORD_VV	3.587	n/a	<>	-999	6	[0, 0, 0]	n/a	FR1	1	R1226D
991.839	5.317	1035789	REC_WORD_VV	5.317	n/a	<>	-999	6	[0, 0, 0]	n/a	FR1	1	R1226D
997.156	11.046	1041105	REC_END	n/a	n/a	n/a	-999	6	[0, 0, 0]	n/a	FR1	1	R1226D
1008.202	0.5	1052151	TRIAL	n/a	n/a	n/a	-999	7	[0, 0, 0]	n/a	FR1	1	R1226D
1008.702	10.428	1052651	COUNTDOWN_START	n/a	n/a	n/a	-999	7	[0, 0, 0]	n/a	FR1	1	R1226D
1019.13	0.007	1063078	COUNTDOWN_END	n/a	n/a	n/a	-999	7	[0, 0, 0]	n/a	FR1	1	R1226D
1019.137	1.616	1063085	ORIENT	n/a	n/a	n/a	-999	7	[0, 0, 0]	n/a	FR1	1	R1226D
1020.753	2.2	1064701	ORIENT_OFF	n/a	n/a	n/a	-999	7	[0, 0, 0]	n/a	FR1	1	R1226D
1022.953	1.617	1066901	WORD	n/a	wordpools/wordpool_EN.txt	FORT	1	7	[0, 0, 0]	n/a	FR1	1	R1226D
1024.57	0.784	1068518	WORD_OFF	n/a	n/a	FORT	1	7	[0, 0, 0]	n/a	FR1	1	R1226D
1025.354	1.617	1069302	WORD	n/a	wordpools/wordpool_EN.txt	TOOL	2	7	[0, 0, 0]	n/a	FR1	1	R1226D
1026.971	0.916	1070919	WORD_OFF	n/a	n/a	TOOL	2	7	[0, 0, 0]	n/a	FR1	1	R1226D
1027.887	1.618	1071835	WORD	n/a	wordpools/wordpool_EN.txt	WOOD	3	7	[0, 0, 0]	n/a	FR1	1	R1226D
1029.505	0.966	1073453	WORD_OFF	n/a	n/a	WOOD	3	7	[0, 0, 0]	n/a	FR1	1	R1226D
1030.471	1.617	1074419	WORD	n/a	wordpools/wordpool_EN.txt	GLASS	4	7	[0, 0, 0]	n/a	FR1	1	R1226D
1032.088	0.95	1076036	WORD_OFF	n/a	n/a	GLASS	4	7	[0, 0, 0]	n/a	FR1	1	R1226D
1033.038	1.617	1076986	WORD	n/a	wordpools/wordpool_EN.txt	SLEEVE	5	7	[0, 0, 0]	n/a	FR1	1	R1226D
1034.655	0.784	1078602	WORD_OFF	n/a	n/a	SLEEVE	5	7	[0, 0, 0]	n/a	FR1	1	R1226D
1035.439	1.617	1079386	WORD	n/a	wordpools/wordpool_EN.txt	MOUTH	6	7	[0, 0, 0]	n/a	FR1	1	R1226D
1037.056	0.983	1081003	WORD_OFF	n/a	n/a	MOUTH	6	7	[0, 0, 0]	n/a	FR1	1	R1226D
1038.039	1.617	1081986	WORD	n/a	wordpools/wordpool_EN.txt	CAVE	7	7	[0, 0, 0]	n/a	FR1	1	R1226D
1039.656	0.817	1083603	WORD_OFF	n/a	n/a	CAVE	7	7	[0, 0, 0]	n/a	FR1	1	R1226D
1040.473	1.617	1084420	WORD	n/a	wordpools/wordpool_EN.txt	TOOTH	8	7	[0, 0, 0]	n/a	FR1	1	R1226D
1042.09	1.0	1086037	WORD_OFF	n/a	n/a	TOOTH	8	7	[0, 0, 0]	n/a	FR1	1	R1226D
1043.09	1.617	1087037	WORD	n/a	wordpools/wordpool_EN.txt	CAKE	9	7	[0, 0, 0]	n/a	FR1	1	R1226D
1044.707	0.8	1088654	WORD_OFF	n/a	n/a	CAKE	9	7	[0, 0, 0]	n/a	FR1	1	R1226D
1045.507	1.618	1089454	WORD	n/a	wordpools/wordpool_EN.txt	ELF	10	7	[0, 0, 0]	n/a	FR1	1	R1226D
1047.125	0.783	1091072	WORD_OFF	n/a	n/a	ELF	10	7	[0, 0, 0]	n/a	FR1	1	R1226D
1047.908	1.617	1091855	WORD	n/a	wordpools/wordpool_EN.txt	EAR	11	7	[0, 0, 0]	n/a	FR1	1	R1226D
1049.525	0.833	1093472	WORD_OFF	n/a	n/a	EAR	11	7	[0, 0, 0]	n/a	FR1	1	R1226D
1050.358	1.617	1094305	WORD	n/a	wordpools/wordpool_EN.txt	SPRING	12	7	[0, 0, 0]	n/a	FR1	1	R1226D
1051.975	0.0	1095921	DISTRACT_START	n/a	n/a	n/a	-999	7	[0, 0, 0]	n/a	FR1	1	R1226D
1051.975	0.001	1095921	WORD_OFF	n/a	n/a	SPRING	12	7	[0, 0, 0]	n/a	FR1	1	R1226D
1051.976	0.016	1095922	START	n/a	n/a	n/a	-999	7	[-999, -999, -999]	n/a	FR1	1	R1226D
1051.992	4.884	1095938	PROB	4.884	n/a	n/a	-999	7	[6, 8, 5]	19	FR1	1	R1226D
1056.876	3.501	1100822	PROB	3.501	n/a	n/a	-999	7	[1, 1, 3]	5	FR1	1	R1226D
1060.377	2.734	1104323	PROB	2.734	n/a	n/a	-999	7	[5, 4, 2]	11	FR1	1	R1226D
1063.111	2.15	1107057	PROB	2.15	n/a	n/a	-999	7	[1, 9, 3]	13	FR1	1	R1226D
1065.261	4.584	1109207	PROB	4.584	n/a	n/a	-999	7	[5, 9, 6]	20	FR1	1	R1226D
1069.845	3.149	1113790	PROB	3.149	n/a	n/a	-999	7	[8, 1, 8]	17	FR1	1	R1226D
1072.994	0.018	1116939	STOP	n/a	n/a	n/a	-999	7	[-999, -999, -999]	n/a	FR1	1	R1226D
1073.012	0.667	1116957	DISTRACT_END	n/a	n/a	n/a	-999	7	[0, 0, 0]	n/a	FR1	1	R1226D
1073.679	0.519	1117624	RETRIEVAL_ORIENT	n/a	n/a	n/a	-999	7	[0, 0, 0]	n/a	FR1	1	R1226D
1074.198	30.0	1118143	REC_START	n/a	n/a	n/a	-999	7	[0, 0, 0]	n/a	FR1	1	R1226D
1104.198	0.011	1148142	REC_WORD_VV	0.011	n/a	<>	-999	7	[0, 0, 0]	n/a	FR1	1	R1226D
1104.209	112.146	1148153	REC_END	n/a	n/a	n/a	-999	7	[0, 0, 0]	n/a	FR1	1	R1226D
1216.355	0.5	1260292	TRIAL	n/a	n/a	n/a	-999	8	[0, 0, 0]	n/a	FR1	1	R1226D
1216.855	10.428	1260792	COUNTDOWN_START	n/a	n/a	n/a	-999	8	[0, 0, 0]	n/a	FR1	1	R1226D
1227.283	0.008	1271220	COUNTDOWN_END	n/a	n/a	n/a	-999	8	[0, 0, 0]	n/a	FR1	1	R1226D
1227.291	1.617	1271228	ORIENT	n/a	n/a	n/a	-999	8	[0, 0, 0]	n/a	FR1	1	R1226D
1228.908	2.05	1272845	ORIENT_OFF	n/a	n/a	n/a	-999	8	[0, 0, 0]	n/a	FR1	1	R1226D
1230.958	1.617	1274895	WORD	n/a	wordpools/wordpool_EN.txt	BED	1	8	[0, 0, 0]	n/a	FR1	1	R1226D
1232.575	0.817	1276512	WORD_OFF	n/a	n/a	BED	1	8	[0, 0, 0]	n/a	FR1	1	R1226D
1233.392	1.617	1277328	WORD	n/a	wordpools/wordpool_EN.txt	SQUARE	2	8	[0, 0, 0]	n/a	FR1	1	R1226D
1235.009	0.9	1278945	WORD_OFF	n/a	n/a	SQUARE	2	8	[0, 0, 0]	n/a	FR1	1	R1226D
1235.909	1.617	1279845	WORD	n/a	wordpools/wordpool_EN.txt	PIN	3	8	[0, 0, 0]	n/a	FR1	1	R1226D
1237.526	0.833	1281462	WORD_OFF	n/a	n/a	PIN	3	8	[0, 0, 0]	n/a	FR1	1	R1226D
1238.359	1.617	1282295	WORD	n/a	wordpools/wordpool_EN.txt	PLATE	4	8	[0, 0, 0]	n/a	FR1	1	R1226D
1239.976	0.884	1283912	WORD_OFF	n/a	n/a	PLATE	4	8	[0, 0, 0]	n/a	FR1	1	R1226D
1240.86	1.617	1284796	WORD	n/a	wordpools/wordpool_EN.txt	CUP	5	8	[0, 0, 0]	n/a	FR1	1	R1226D
1242.477	1.0	1286413	WORD_OFF	n/a	n/a	CUP	5	8	[0, 0, 0]	n/a	FR1	1	R1226D
1243.477	1.617	1287413	WORD	n/a	wordpools/wordpool_EN.txt	BATH	6	8	[0, 0, 0]	n/a	FR1	1	R1226D
1245.094	0.9	1289030	WORD_OFF	n/a	n/a	BATH	6	8	[0, 0, 0]	n/a	FR1	1	R1226D
1245.994	1.617	1289930	WORD	n/a	wordpools/wordpool_EN.txt	JUDGE	7	8	[0, 0, 0]	n/a	FR1	1	R1226D
1247.611	0.9	1291547	WORD_OFF	n/a	n/a	JUDGE	7	8	[0, 0, 0]	n/a	FR1	1	R1226D
1248.511	1.618	1292447	WORD	n/a	wordpools/wordpool_EN.txt	SHIELD	8	8	[0, 0, 0]	n/a	FR1	1	R1226D
1250.129	0.949	1294065	WORD_OFF	n/a	n/a	SHIELD	8	8	[0, 0, 0]	n/a	FR1	1	R1226D
1251.078	1.617	1295014	WORD	n/a	wordpools/wordpool_EN.txt	BLUSH	9	8	[0, 0, 0]	n/a	FR1	1	R1226D
1252.695	0.867	1296630	WORD_OFF	n/a	n/a	BLUSH	9	8	[0, 0, 0]	n/a	FR1	1	R1226D
1253.562	1.601	1297497	WORD	n/a	wordpools/wordpool_EN.txt	PIPE	10	8	[0, 0, 0]	n/a	FR1	1	R1226D
1255.163	0.783	1299098	WORD_OFF	n/a	n/a	PIPE	10	8	[0, 0, 0]	n/a	FR1	1	R1226D
1255.946	1.617	1299881	WORD	n/a	wordpools/wordpool_EN.txt	HOSE	11	8	[0, 0, 0]	n/a	FR1	1	R1226D
1257.563	1.0	1301498	WORD_OFF	n/a	n/a	HOSE	11	8	[0, 0, 0]	n/a	FR1	1	R1226D
1258.563	1.618	1302498	WORD	n/a	wordpools/wordpool_EN.txt	NAIL	12	8	[0, 0, 0]	n/a	FR1	1	R1226D
1260.181	0.0	1304116	WORD_OFF	n/a	n/a	NAIL	12	8	[0, 0, 0]	n/a	FR1	1	R1226D
1260.181	0.001	1304116	DISTRACT_START	n/a	n/a	n/a	-999	8	[0, 0, 0]	n/a	FR1	1	R1226D
1260.182	0.016	1304117	START	n/a	n/a	n/a	-999	8	[-999, -999, -999]	n/a	FR1	1	R1226D
1260.198	4.816	1304133	PROB	4.816	n/a	n/a	-999	8	[1, 1, 6]	8	FR1	1	R1226D
1265.014	4.219	1308949	PROB	4.219	n/a	n/a	-999	8	[2, 6, 1]	9	FR1	1	R1226D
1269.233	3.366	1313168	PROB	3.366	n/a	n/a	-999	8	[9, 9, 1]	19	FR1	1	R1226D
1272.599	5.334	1316533	PROB	5.334	n/a	n/a	-999	8	[9, 4, 3]	16	FR1	1	R1226D
1277.933	7.563	1321867	PROB	7.563	n/a	n/a	-999	8	[9, 7, 7]	21	FR1	1	R1226D
1285.496	0.022	1329430	STOP	n/a	n/a	n/a	-999	8	[-999, -999, -999]	n/a	FR1	1	R1226D
1285.518	0.601	1329452	DISTRACT_END	n/a	n/a	n/a	-999	8	[0, 0, 0]	n/a	FR1	1	R1226D
1286.119	0.516	1330053	RETRIEVAL_ORIENT	n/a	n/a	n/a	-999	8	[0, 0, 0]	n/a	FR1	1	R1226D
1286.635	4.737	1330569	REC_START	n/a	n/a	n/a	-999	8	[0, 0, 0]	n/a	FR1	1	R1226D
1291.372	3.288	1335305	REC_WORD_VV	3.288	n/a	<>	-999	8	[0, 0, 0]	n/a	FR1	1	R1226D
1294.66	1.595	1338593	REC_WORD_VV	1.595	n/a	<>	-999	8	[0, 0, 0]	n/a	FR1	1	R1226D
1296.255	3.944	1340188	REC_WORD	3.944	n/a	HAIR	-999	8	[0, 0, 0]	n/a	FR1	1	R1226D
1300.199	6.607	1344132	REC_WORD	6.607	n/a	ARM	-999	8	[0, 0, 0]	n/a	FR1	1	R1226D
1306.806	5.897	1350738	REC_WORD_VV	5.897	n/a	<>	-999	8	[0, 0, 0]	n/a	FR1	1	R1226D
1312.703	3.944	1356635	REC_WORD	3.944	n/a	JUDGE	7	8	[0, 0, 0]	n/a	FR1	1	R1226D
1316.647	18.463	1360579	REC_END	n/a	n/a	n/a	-999	8	[0, 0, 0]	n/a	FR1	1	R1226D
1335.11	0.5	1379041	TRIAL	n/a	n/a	n/a	-999	9	[0, 0, 0]	n/a	FR1	1	R1226D
1335.61	10.428	1379541	COUNTDOWN_START	n/a	n/a	n/a	-999	9	[0, 0, 0]	n/a	FR1	1	R1226D
1346.038	0.008	1389968	COUNTDOWN_END	n/a	n/a	n/a	-999	9	[0, 0, 0]	n/a	FR1	1	R1226D
1346.046	1.616	1389976	ORIENT	n/a	n/a	n/a	-999	9	[0, 0, 0]	n/a	FR1	1	R1226D
1347.662	2.218	1391592	ORIENT_OFF	n/a	n/a	n/a	-999	9	[0, 0, 0]	n/a	FR1	1	R1226D
1349.88	1.617	1393810	WORD	n/a	wordpools/wordpool_EN.txt	PURSE	1	9	[0, 0, 0]	n/a	FR1	1	R1226D
1351.497	1.0	1395427	WORD_OFF	n/a	n/a	PURSE	1	9	[0, 0, 0]	n/a	FR1	1	R1226D
1352.497	1.618	1396427	WORD	n/a	wordpools/wordpool_EN.txt	FROG	2	9	[0, 0, 0]	n/a	FR1	1	R1226D
1354.115	0.899	1398045	WORD_OFF	n/a	n/a	FROG	2	9	[0, 0, 0]	n/a	FR1	1	R1226D
1355.014	1.617	1398944	WORD	n/a	wordpools/wordpool_EN.txt	FISH	3	9	[0, 0, 0]	n/a	FR1	1	R1226D
1356.631	0.917	1400561	WORD_OFF	n/a	n/a	FISH	3	9	[0, 0, 0]	n/a	FR1	1	R1226D
1357.548	1.618	1401478	WORD	n/a	wordpools/wordpool_EN.txt	BRIDGE	4	9	[0, 0, 0]	n/a	FR1	1	R1226D
1359.166	0.849	1403096	WORD_OFF	n/a	n/a	BRIDGE	4	9	[0, 0, 0]	n/a	FR1	1	R1226D
1360.015	1.617	1403945	WORD	n/a	wordpools/wordpool_EN.txt	BEACH	5	9	[0, 0, 0]	n/a	FR1	1	R1226D
1361.632	0.95	1405561	WORD_OFF	n/a	n/a	BEACH	5	9	[0, 0, 0]	n/a	FR1	1	R1226D
1362.582	1.618	1406511	WORD	n/a	wordpools/wordpool_EN.txt	CONE	6	9	[0, 0, 0]	n/a	FR1	1	R1226D
1364.2	0.967	1408129	WORD_OFF	n/a	n/a	CONE	6	9	[0, 0, 0]	n/a	FR1	1	R1226D
1365.167	1.616	1409096	WORD	n/a	wordpools/wordpool_EN.txt	MILK	7	9	[0, 0, 0]	n/a	FR1	1	R1226D
1366.783	0.833	1410712	WORD_OFF	n/a	n/a	MILK	7	9	[0, 0, 0]	n/a	FR1	1	R1226D
1367.616	1.618	1411545	WORD	n/a	wordpools/wordpool_EN.txt	SMILE	8	9	[0, 0, 0]	n/a	FR1	1	R1226D
1369.234	0.833	1413163	WORD_OFF	n/a	n/a	SMILE	8	9	[0, 0, 0]	n/a	FR1	1	R1226D
1370.067	1.617	1413996	WORD	n/a	wordpools/wordpool_EN.txt	WORM	9	9	[0, 0, 0]	n/a	FR1	1	R1226D
1371.684	0.783	1415613	WORD_OFF	n/a	n/a	WORM	9	9	[0, 0, 0]	n/a	FR1	1	R1226D
1372.467	1.617	1416396	WORD	n/a	wordpools/wordpool_EN.txt	BOMB	10	9	[0, 0, 0]	n/a	FR1	1	R1226D
1374.084	0.784	1418013	WORD_OFF	n/a	n/a	BOMB	10	9	[0, 0, 0]	n/a	FR1	1	R1226D
1374.868	1.617	1418797	WORD	n/a	wordpools/wordpool_EN.txt	SCHOOL	11	9	[0, 0, 0]	n/a	FR1	1	R1226D
1376.485	0.85	1420414	WORD_OFF	n/a	n/a	SCHOOL	11	9	[0, 0, 0]	n/a	FR1	1	R1226D
1377.335	1.617	1421264	WORD	n/a	wordpools/wordpool_EN.txt	WHEEL	12	9	[0, 0, 0]	n/a	FR1	1	R1226D
1378.952	0.0	1422880	WORD_OFF	n/a	n/a	WHEEL	12	9	[0, 0, 0]	n/a	FR1	1	R1226D
1378.952	0.0	1422880	DISTRACT_START	n/a	n/a	n/a	-999	9	[0, 0, 0]	n/a	FR1	1	R1226D
1378.952	0.016	1422880	START	n/a	n/a	n/a	-999	9	[-999, -999, -999]	n/a	FR1	1	R1226D
1378.968	7.518	1422896	PROB	7.518	n/a	n/a	-999	9	[4, 3, 9]	16	FR1	1	R1226D
1386.486	3.451	1430414	PROB	3.451	n/a	n/a	-999	9	[3, 3, 2]	8	FR1	1	R1226D
1389.937	5.235	1433865	PROB	5.235	n/a	n/a	-999	9	[9, 3, 3]	15	FR1	1	R1226D
1395.172	5.454	1439100	PROB	5.454	n/a	n/a	-999	9	[7, 4, 8]	19	FR1	1	R1226D
1400.626	0.013	1444553	STOP	n/a	n/a	n/a	-999	9	[-999, -999, -999]	n/a	FR1	1	R1226D
1400.639	0.584	1444566	DISTRACT_END	n/a	n/a	n/a	-999	9	[0, 0, 0]	n/a	FR1	1	R1226D
1401.223	0.517	1445150	RETRIEVAL_ORIENT	n/a	n/a	n/a	-999	9	[0, 0, 0]	n/a	FR1	1	R1226D
1401.74	2.554	1445667	REC_START	n/a	n/a	n/a	-999	9	[0, 0, 0]	n/a	FR1	1	R1226D
1404.294	0.863	1448221	REC_WORD	0.863	n/a	FROG	2	9	[0, 0, 0]	n/a	FR1	1	R1226D
1405.157	2.577	1449084	REC_WORD	2.577	n/a	FISH	3	9	[0, 0, 0]	n/a	FR1	1	R1226D
1407.734	0.893	1451661	REC_WORD	0.893	n/a	NAIL	-999	9	[0, 0, 0]	n/a	FR1	1	R1226D
1408.627	3.75	1452554	REC_WORD	3.75	n/a	SCHOOL	11	9	[0, 0, 0]	n/a	FR1	1	R1226D
1412.377	2.279	1456304	REC_WORD	2.279	n/a	BOMB	10	9	[0, 0, 0]	n/a	FR1	1	R1226D
1414.656	6.635	1458583	REC_WORD	6.635	n/a	MILK	7	9	[0, 0, 0]	n/a	FR1	1	R1226D
1421.291	10.461	1465217	REC_WORD	10.461	n/a	MONTH	-999	9	[0, 0, 0]	n/a	FR1	1	R1226D
1431.752	7.944	1475678	REC_END	n/a	n/a	n/a	-999	9	[0, 0, 0]	n/a	FR1	1	R1226D
1439.696	0.5	1483621	TRIAL	n/a	n/a	n/a	-999	10	[0, 0, 0]	n/a	FR1	1	R1226D
1440.196	10.428	1484121	COUNTDOWN_START	n/a	n/a	n/a	-999	10	[0, 0, 0]	n/a	FR1	1	R1226D
1450.624	0.008	1494549	COUNTDOWN_END	n/a	n/a	n/a	-999	10	[0, 0, 0]	n/a	FR1	1	R1226D
1450.632	1.618	1494557	ORIENT	n/a	n/a	n/a	-999	10	[0, 0, 0]	n/a	FR1	1	R1226D
1452.25	1.983	1496174	ORIENT_OFF	n/a	n/a	n/a	-999	10	[0, 0, 0]	n/a	FR1	1	R1226D
1454.233	1.616	1498157	WORD	n/a	wordpools/wordpool_EN.txt	CRANE	1	10	[0, 0, 0]	n/a	FR1	1	R1226D
1455.849	0.967	1499773	WORD_OFF	n/a	n/a	CRANE	1	10	[0, 0, 0]	n/a	FR1	1	R1226D
1456.816	1.617	1500740	WORD	n/a	wordpools/wordpool_EN.txt	CLIFF	2	10	[0, 0, 0]	n/a	FR1	1	R1226D
1458.433	0.85	1502357	WORD_OFF	n/a	n/a	CLIFF	2	10	[0, 0, 0]	n/a	FR1	1	R1226D
1459.283	1.617	1503207	WORD	n/a	wordpools/wordpool_EN.txt	WOLF	3	10	[0, 0, 0]	n/a	FR1	1	R1226D
1460.9	0.85	1504824	WORD_OFF	n/a	n/a	WOLF	3	10	[0, 0, 0]	n/a	FR1	1	R1226D
1461.75	1.617	1505674	WORD	n/a	wordpools/wordpool_EN.txt	WEED	4	10	[0, 0, 0]	n/a	FR1	1	R1226D
1463.367	0.835	1507291	WORD_OFF	n/a	n/a	WEED	4	10	[0, 0, 0]	n/a	FR1	1	R1226D
1464.202	1.616	1508126	WORD	n/a	wordpools/wordpool_EN.txt	CLOUD	5	10	[0, 0, 0]	n/a	FR1	1	R1226D
1465.818	0.833	1509742	WORD_OFF	n/a	n/a	CLOUD	5	10	[0, 0, 0]	n/a	FR1	1	R1226D
1466.651	1.617	1510575	WORD	n/a	wordpools/wordpool_EN.txt	PIG	6	10	[0, 0, 0]	n/a	FR1	1	R1226D
1468.268	0.951	1512192	WORD_OFF	n/a	n/a	PIG	6	10	[0, 0, 0]	n/a	FR1	1	R1226D
1469.219	1.616	1513143	WORD	n/a	wordpools/wordpool_EN.txt	HEN	7	10	[0, 0, 0]	n/a	FR1	1	R1226D
1470.835	0.834	1514758	WORD_OFF	n/a	n/a	HEN	7	10	[0, 0, 0]	n/a	FR1	1	R1226D
1471.669	1.617	1515592	WORD	n/a	wordpools/wordpool_EN.txt	BEAN	8	10	[0, 0, 0]	n/a	FR1	1	R1226D
1473.286	0.968	1517209	WORD_OFF	n/a	n/a	BEAN	8	10	[0, 0, 0]	n/a	FR1	1	R1226D
1474.254	1.615	1518177	WORD	n/a	wordpools/wordpool_EN.txt	CAT	9	10	[0, 0, 0]	n/a	FR1	1	R1226D
1475.869	0.817	1519792	WORD_OFF	n/a	n/a	CAT	9	10	[0, 0, 0]	n/a	FR1	1	R1226D
1476.686	1.617	1520609	WORD	n/a	wordpools/wordpool_EN.txt	CAPE	10	10	[0, 0, 0]	n/a	FR1	1	R1226D
1478.303	0.868	1522226	WORD_OFF	n/a	n/a	CAPE	10	10	[0, 0, 0]	n/a	FR1	1	R1226D
1479.171	1.616	1523094	WORD	n/a	wordpools/wordpool_EN.txt	CROWN	11	10	[0, 0, 0]	n/a	FR1	1	R1226D
1480.787	0.867	1524710	WORD_OFF	n/a	n/a	CROWN	11	10	[0, 0, 0]	n/a	FR1	1	R1226D
1481.654	1.617	1525577	WORD	n/a	wordpools/wordpool_EN.txt	CALF	12	10	[0, 0, 0]	n/a	FR1	1	R1226D
1483.271	0.0	1527194	WORD_OFF	n/a	n/a	CALF	12	10	[0, 0, 0]	n/a	FR1	1	R1226D
1483.271	0.0	1527194	DISTRACT_START	n/a	n/a	n/a	-999	10	[0, 0, 0]	n/a	FR1	1	R1226D
1483.271	0.017	1527194	START	n/a	n/a	n/a	-999	10	[-999, -999, -999]	n/a	FR1	1	R1226D
1483.288	7.051	1527211	PROB	7.051	n/a	n/a	-999	10	[3, 1, 3]	7	FR1	1	R1226D
1490.339	6.601	1534261	PROB	6.601	n/a	n/a	-999	10	[3, 8, 4]	15	FR1	1	R1226D
1496.94	3.667	1540862	PROB	3.667	n/a	n/a	-999	10	[8, 7, 1]	16	FR1	1	R1226D
1500.607	3.962	1544529	PROB	3.962	n/a	n/a	-999	10	[2, 3, 6]	11	FR1	1	R1226D
1504.569	0.022	1548491	STOP	n/a	n/a	n/a	-999	10	[-999, -999, -999]	n/a	FR1	1	R1226D
1504.591	0.601	1548513	DISTRACT_END	n/a	n/a	n/a	-999	10	[0, 0, 0]	n/a	FR1	1	R1226D
1505.192	0.517	1549114	RETRIEVAL_ORIENT	n/a	n/a	n/a	-999	10	[0, 0, 0]	n/a	FR1	1	R1226D
1505.709	3.077	1549631	REC_START	n/a	n/a	n/a	-999	10	[0, 0, 0]	n/a	FR1	1	R1226D
1508.786	1.722	1552707	REC_WORD	1.722	n/a	CAT	9	10	[0, 0, 0]	n/a	FR1	1	R1226D
1510.508	3.255	1554429	REC_WORD	3.255	n/a	CRANE	1	10	[0, 0, 0]	n/a	FR1	1	R1226D
1513.763	2.399	1557684	REC_WORD	2.399	n/a	WOLF	3	10	[0, 0, 0]	n/a	FR1	1	R1226D
1516.162	2.975	1560083	REC_WORD	2.975	n/a	PIG	6	10	[0, 0, 0]	n/a	FR1	1	R1226D
1519.137	2.966	1563058	REC_WORD	2.966	n/a	BEE	-999	10	[0, 0, 0]	n/a	FR1	1	R1226D
1522.103	13.615	1566024	REC_WORD	13.615	n/a	WEED	4	10	[0, 0, 0]	n/a	FR1	1	R1226D
1535.718	5.747	1579638	REC_END	n/a	n/a	n/a	-999	10	[0, 0, 0]	n/a	FR1	1	R1226D
1541.465	0.5	1585385	TRIAL	n/a	n/a	n/a	-999	11	[0, 0, 0]	n/a	FR1	1	R1226D
1541.965	10.428	1585885	COUNTDOWN_START	n/a	n/a	n/a	-999	11	[0, 0, 0]	n/a	FR1	1	R1226D
1552.393	0.007	1596312	COUNTDOWN_END	n/a	n/a	n/a	-999	11	[0, 0, 0]	n/a	FR1	1	R1226D
1552.4	1.617	1596319	ORIENT	n/a	n/a	n/a	-999	11	[0, 0, 0]	n/a	FR1	1	R1226D
1554.017	2.05	1597936	ORIENT_OFF	n/a	n/a	n/a	-999	11	[0, 0, 0]	n/a	FR1	1	R1226D
1556.067	1.617	1599986	WORD	n/a	wordpools/wordpool_EN.txt	SIGN	1	11	[0, 0, 0]	n/a	FR1	1	R1226D
1557.684	0.917	1601603	WORD_OFF	n/a	n/a	SIGN	1	11	[0, 0, 0]	n/a	FR1	1	R1226D
1558.601	1.618	1602520	WORD	n/a	wordpools/wordpool_EN.txt	BRICK	2	11	[0, 0, 0]	n/a	FR1	1	R1226D
1560.219	0.883	1604138	WORD_OFF	n/a	n/a	BRICK	2	11	[0, 0, 0]	n/a	FR1	1	R1226D
1561.102	1.617	1605020	WORD	n/a	wordpools/wordpool_EN.txt	SEA	3	11	[0, 0, 0]	n/a	FR1	1	R1226D
1562.719	0.933	1606637	WORD_OFF	n/a	n/a	SEA	3	11	[0, 0, 0]	n/a	FR1	1	R1226D
1563.652	1.617	1607570	WORD	n/a	wordpools/wordpool_EN.txt	DRESS	4	11	[0, 0, 0]	n/a	FR1	1	R1226D
1565.269	0.901	1609187	WORD_OFF	n/a	n/a	DRESS	4	11	[0, 0, 0]	n/a	FR1	1	R1226D
1566.17	1.616	1610088	WORD	n/a	wordpools/wordpool_EN.txt	CUBE	5	11	[0, 0, 0]	n/a	FR1	1	R1226D
1567.786	0.834	1611704	WORD_OFF	n/a	n/a	CUBE	5	11	[0, 0, 0]	n/a	FR1	1	R1226D
1568.62	1.618	1612538	WORD	n/a	wordpools/wordpool_EN.txt	BRUSH	6	11	[0, 0, 0]	n/a	FR1	1	R1226D
1570.238	0.983	1614156	WORD_OFF	n/a	n/a	BRUSH	6	11	[0, 0, 0]	n/a	FR1	1	R1226D
1571.221	1.616	1615139	WORD	n/a	wordpools/wordpool_EN.txt	BIRD	7	11	[0, 0, 0]	n/a	FR1	1	R1226D
1572.837	0.85	1616755	WORD_OFF	n/a	n/a	BIRD	7	11	[0, 0, 0]	n/a	FR1	1	R1226D
1573.687	1.617	1617605	WORD	n/a	wordpools/wordpool_EN.txt	RAT	8	11	[0, 0, 0]	n/a	FR1	1	R1226D
1575.304	1.017	1619222	WORD_OFF	n/a	n/a	RAT	8	11	[0, 0, 0]	n/a	FR1	1	R1226D
1576.321	1.617	1620239	WORD	n/a	wordpools/wordpool_EN.txt	BOX	9	11	[0, 0, 0]	n/a	FR1	1	R1226D
1577.938	0.917	1621856	WORD_OFF	n/a	n/a	BOX	9	11	[0, 0, 0]	n/a	FR1	1	R1226D
1578.855	1.617	1622772	WORD	n/a	wordpools/wordpool_EN.txt	SWAMP	10	11	[0, 0, 0]	n/a	FR1	1	R1226D
1580.472	0.95	1624389	WORD_OFF	n/a	n/a	SWAMP	10	11	[0, 0, 0]	n/a	FR1	1	R1226D
1581.422	1.617	1625339	WORD	n/a	wordpools/wordpool_EN.txt	BARN	11	11	[0, 0, 0]	n/a	FR1	1	R1226D
1583.039	1.017	1626956	WORD_OFF	n/a	n/a	BARN	11	11	[0, 0, 0]	n/a	FR1	1	R1226D
1584.056	1.617	1627973	WORD	n/a	wordpools/wordpool_EN.txt	GATE	12	11	[0, 0, 0]	n/a	FR1	1	R1226D
1585.673	0.0	1629590	WORD_OFF	n/a	n/a	GATE	12	11	[0, 0, 0]	n/a	FR1	1	R1226D
1585.673	0.0	1629590	DISTRACT_START	n/a	n/a	n/a	-999	11	[0, 0, 0]	n/a	FR1	1	R1226D
1585.673	0.017	1629590	START	n/a	n/a	n/a	-999	11	[-999, -999, -999]	n/a	FR1	1	R1226D
1585.69	5.751	1629607	PROB	5.751	n/a	n/a	-999	11	[1, 8, 1]	10	FR1	1	R1226D
1591.441	2.65	1635358	PROB	2.65	n/a	n/a	-999	11	[2, 2, 2]	6	FR1	1	R1226D
1594.091	5.518	1638008	PROB	5.518	n/a	n/a	-999	11	[7, 6, 9]	22	FR1	1	R1226D
1599.609	4.117	1643525	PROB	4.117	n/a	n/a	-999	11	[6, 7, 1]	14	FR1	1	R1226D
1603.726	4.171	1647642	PROB	4.171	n/a	n/a	-999	11	[7, 5, 4]	16	FR1	1	R1226D
1607.897	0.013	1651813	STOP	n/a	n/a	n/a	-999	11	[-999, -999, -999]	n/a	FR1	1	R1226D
1607.91	0.634	1651826	DISTRACT_END	n/a	n/a	n/a	-999	11	[0, 0, 0]	n/a	FR1	1	R1226D
1608.544	0.517	1652460	RETRIEVAL_ORIENT	n/a	n/a	n/a	-999	11	[0, 0, 0]	n/a	FR1	1	R1226D
1609.061	2.346	1652977	REC_START	n/a	n/a	n/a	-999	11	[0, 0, 0]	n/a	FR1	1	R1226D
1611.407	2.357	1655323	REC_WORD	2.357	n/a	RAT	8	11	[0, 0, 0]	n/a	FR1	1	R1226D
1613.764	4.198	1657680	REC_WORD	4.198	n/a	BIRD	7	11	[0, 0, 0]	n/a	FR1	1	R1226D
1617.962	3.875	1661877	REC_WORD	3.875	n/a	RAKE	-999	11	[0, 0, 0]	n/a	FR1	1	R1226D
1621.837	3.32	1665752	REC_WORD	3.32	n/a	CAN	-999	11	[0, 0, 0]	n/a	FR1	1	R1226D
1625.157	9.767	1669072	REC_WORD	9.767	n/a	SEA	3	11	[0, 0, 0]	n/a	FR1	1	R1226D
1634.924	4.148	1678838	REC_WORD	4.148	n/a	SQUIRREL	-999	11	[0, 0, 0]	n/a	FR1	1	R1226D
1639.072	5.096	1682986	REC_END	n/a	n/a	n/a	-999	11	[0, 0, 0]	n/a	FR1	1	R1226D
1644.168	0.5	1688082	TRIAL	n/a	n/a	n/a	-999	12	[0, 0, 0]	n/a	FR1	1	R1226D
1644.668	10.428	1688582	COUNTDOWN_START	n/a	n/a	n/a	-999	12	[0, 0, 0]	n/a	FR1	1	R1226D
1655.096	0.006	1699009	COUNTDOWN_END	n/a	n/a	n/a	-999	12	[0, 0, 0]	n/a	FR1	1	R1226D
1655.102	1.617	1699015	ORIENT	n/a	n/a	n/a	-999	12	[0, 0, 0]	n/a	FR1	1	R1226D
1656.719	2.001	1700632	ORIENT_OFF	n/a	n/a	n/a	-999	12	[0, 0, 0]	n/a	FR1	1	R1226D
1658.72	1.617	1702633	WORD	n/a	wordpools/wordpool_EN.txt	WING	1	12	[0, 0, 0]	n/a	FR1	1	R1226D
1660.337	0.884	1704250	WORD_OFF	n/a	n/a	WING	1	12	[0, 0, 0]	n/a	FR1	1	R1226D
1661.221	1.616	1705134	WORD	n/a	wordpools/wordpool_EN.txt	FOOD	2	12	[0, 0, 0]	n/a	FR1	1	R1226D
1662.837	0.867	1706750	WORD_OFF	n/a	n/a	FOOD	2	12	[0, 0, 0]	n/a	FR1	1	R1226D
1663.704	1.617	1707617	WORD	n/a	wordpools/wordpool_EN.txt	PHONE	3	12	[0, 0, 0]	n/a	FR1	1	R1226D
1665.321	0.884	1709234	WORD_OFF	n/a	n/a	PHONE	3	12	[0, 0, 0]	n/a	FR1	1	R1226D
1666.205	1.616	1710118	WORD	n/a	wordpools/wordpool_EN.txt	LOCK	4	12	[0, 0, 0]	n/a	FR1	1	R1226D
1667.821	0.967	1711734	WORD_OFF	n/a	n/a	LOCK	4	12	[0, 0, 0]	n/a	FR1	1	R1226D
1668.788	1.617	1712701	WORD	n/a	wordpools/wordpool_EN.txt	TAIL	5	12	[0, 0, 0]	n/a	FR1	1	R1226D
1670.405	1.0	1714317	WORD_OFF	n/a	n/a	TAIL	5	12	[0, 0, 0]	n/a	FR1	1	R1226D
1671.405	1.617	1715317	WORD	n/a	wordpools/wordpool_EN.txt	PARK	6	12	[0, 0, 0]	n/a	FR1	1	R1226D
1673.022	0.884	1716934	WORD_OFF	n/a	n/a	PARK	6	12	[0, 0, 0]	n/a	FR1	1	R1226D
1673.906	1.617	1717818	WORD	n/a	wordpools/wordpool_EN.txt	ANT	7	12	[0, 0, 0]	n/a	FR1	1	R1226D
1675.523	1.016	1719435	WORD_OFF	n/a	n/a	ANT	7	12	[0, 0, 0]	n/a	FR1	1	R1226D
1676.539	1.602	1720451	WORD	n/a	wordpools/wordpool_EN.txt	ROCK	8	12	[0, 0, 0]	n/a	FR1	1	R1226D
1678.141	0.849	1722053	WORD_OFF	n/a	n/a	ROCK	8	12	[0, 0, 0]	n/a	FR1	1	R1226D
1678.99	1.617	1722902	WORD	n/a	wordpools/wordpool_EN.txt	SEAL	9	12	[0, 0, 0]	n/a	FR1	1	R1226D
1680.607	0.8	1724519	WORD_OFF	n/a	n/a	SEAL	9	12	[0, 0, 0]	n/a	FR1	1	R1226D
1681.407	1.617	1725319	WORD	n/a	wordpools/wordpool_EN.txt	BEE	10	12	[0, 0, 0]	n/a	FR1	1	R1226D
1683.024	0.834	1726936	WORD_OFF	n/a	n/a	BEE	10	12	[0, 0, 0]	n/a	FR1	1	R1226D
1683.858	1.617	1727770	WORD	n/a	wordpools/wordpool_EN.txt	HOOF	11	12	[0, 0, 0]	n/a	FR1	1	R1226D
1685.475	0.966	1729387	WORD_OFF	n/a	n/a	HOOF	11	12	[0, 0, 0]	n/a	FR1	1	R1226D
1686.441	1.617	1730353	WORD	n/a	wordpools/wordpool_EN.txt	BREAD	12	12	[0, 0, 0]	n/a	FR1	1	R1226D
1688.058	0.0	1731969	DISTRACT_START	n/a	n/a	n/a	-999	12	[0, 0, 0]	n/a	FR1	1	R1226D
1688.058	0.001	1731969	WORD_OFF	n/a	n/a	BREAD	12	12	[0, 0, 0]	n/a	FR1	1	R1226D
1688.059	0.016	1731970	START	n/a	n/a	n/a	-999	12	[-999, -999, -999]	n/a	FR1	1	R1226D
1688.075	9.169	1731986	PROB	9.169	n/a	n/a	-999	12	[7, 6, 2]	15	FR1	1	R1226D
1697.244	4.4	1741155	PROB	4.4	n/a	n/a	-999	12	[6, 3, 6]	15	FR1	1	R1226D
1701.644	3.117	1745555	PROB	3.117	n/a	n/a	-999	12	[9, 3, 1]	13	FR1	1	R1226D
1704.761	4.712	1748672	PROB	4.712	n/a	n/a	-999	12	[7, 3, 2]	12	FR1	1	R1226D
1709.473	0.006	1753383	STOP	n/a	n/a	n/a	-999	12	[-999, -999, -999]	n/a	FR1	1	R1226D
1709.479	0.583	1753389	DISTRACT_END	n/a	n/a	n/a	-999	12	[0, 0, 0]	n/a	FR1	1	R1226D
1710.062	0.518	1753972	RETRIEVAL_ORIENT	n/a	n/a	n/a	-999	12	[0, 0, 0]	n/a	FR1	1	R1226D
1710.58	1.81	1754490	REC_START	n/a	n/a	n/a	-999	12	[0, 0, 0]	n/a	FR1	1	R1226D
1712.39	1.241	1756300	REC_WORD	1.241	n/a	ROCK	8	12	[0, 0, 0]	n/a	FR1	1	R1226D
1713.631	2.957	1757541	REC_WORD	2.957	n/a	SEA	-999	12	[0, 0, 0]	n/a	FR1	1	R1226D
1716.588	9.561	1760498	REC_WORD	9.561	n/a	BIRD	-999	12	[0, 0, 0]	n/a	FR1	1	R1226D
1726.149	2.134	1770058	REC_WORD	2.134	n/a	TOOL	-999	12	[0, 0, 0]	n/a	FR1	1	R1226D
1728.283	7.822	1772192	REC_WORD	7.822	n/a	BEE	10	12	[0, 0, 0]	n/a	FR1	1	R1226D
1736.105	4.485	1780014	REC_WORD	4.485	n/a	ANT	7	12	[0, 0, 0]	n/a	FR1	1	R1226D
1740.59	5.262	1784499	REC_END	n/a	n/a	n/a	-999	12	[0, 0, 0]	n/a	FR1	1	R1226D
1745.852	0.5	1789760	TRIAL	n/a	n/a	n/a	-999	13	[0, 0, 0]	n/a	FR1	1	R1226D
1746.352	10.428	1790260	COUNTDOWN_START	n/a	n/a	n/a	-999	13	[0, 0, 0]	n/a	FR1	1	R1226D
1756.78	0.008	1800688	COUNTDOWN_END	n/a	n/a	n/a	-999	13	[0, 0, 0]	n/a	FR1	1	R1226D
1756.788	1.617	1800696	ORIENT	n/a	n/a	n/a	-999	13	[0, 0, 0]	n/a	FR1	1	R1226D
1758.405	2.133	1802313	ORIENT_OFF	n/a	n/a	n/a	-999	13	[0, 0, 0]	n/a	FR1	1	R1226D
1760.538	1.618	1804446	WORD	n/a	wordpools/wordpool_EN.txt	DOLL	1	13	[0, 0, 0]	n/a	FR1	1	R1226D
1762.156	1.0	1806063	WORD_OFF	n/a	n/a	DOLL	1	13	[0, 0, 0]	n/a	FR1	1	R1226D
1763.156	1.616	1807063	WORD	n/a	wordpools/wordpool_EN.txt	THUMB	2	13	[0, 0, 0]	n/a	FR1	1	R1226D
1764.772	0.817	1808679	WORD_OFF	n/a	n/a	THUMB	2	13	[0, 0, 0]	n/a	FR1	1	R1226D
1765.589	1.618	1809496	WORD	n/a	wordpools/wordpool_EN.txt	HORN	3	13	[0, 0, 0]	n/a	FR1	1	R1226D
1767.207	0.95	1811114	WORD_OFF	n/a	n/a	HORN	3	13	[0, 0, 0]	n/a	FR1	1	R1226D
1768.157	1.616	1812064	WORD	n/a	wordpools/wordpool_EN.txt	DEER	4	13	[0, 0, 0]	n/a	FR1	1	R1226D
1769.773	0.867	1813680	WORD_OFF	n/a	n/a	DEER	4	13	[0, 0, 0]	n/a	FR1	1	R1226D
1770.64	1.601	1814547	WORD	n/a	wordpools/wordpool_EN.txt	MULE	5	13	[0, 0, 0]	n/a	FR1	1	R1226D
1772.241	0.783	1816148	WORD_OFF	n/a	n/a	MULE	5	13	[0, 0, 0]	n/a	FR1	1	R1226D
1773.024	1.617	1816931	WORD	n/a	wordpools/wordpool_EN.txt	GOAT	6	13	[0, 0, 0]	n/a	FR1	1	R1226D
1774.641	0.967	1818548	WORD_OFF	n/a	n/a	GOAT	6	13	[0, 0, 0]	n/a	FR1	1	R1226D
1775.608	1.618	1819515	WORD	n/a	wordpools/wordpool_EN.txt	MOOSE	7	13	[0, 0, 0]	n/a	FR1	1	R1226D
1777.226	0.799	1821133	WORD_OFF	n/a	n/a	MOOSE	7	13	[0, 0, 0]	n/a	FR1	1	R1226D
1778.025	1.617	1821932	WORD	n/a	wordpools/wordpool_EN.txt	HOLE	8	13	[0, 0, 0]	n/a	FR1	1	R1226D
1779.642	0.983	1823548	WORD_OFF	n/a	n/a	HOLE	8	13	[0, 0, 0]	n/a	FR1	1	R1226D
1780.625	1.618	1824531	WORD	n/a	wordpools/wordpool_EN.txt	LAND	9	13	[0, 0, 0]	n/a	FR1	1	R1226D
1782.243	0.9	1826149	WORD_OFF	n/a	n/a	LAND	9	13	[0, 0, 0]	n/a	FR1	1	R1226D
1783.143	1.616	1827049	WORD	n/a	wordpools/wordpool_EN.txt	FRUIT	10	13	[0, 0, 0]	n/a	FR1	1	R1226D
1784.759	0.767	1828665	WORD_OFF	n/a	n/a	FRUIT	10	13	[0, 0, 0]	n/a	FR1	1	R1226D
1785.526	1.618	1829432	WORD	n/a	wordpools/wordpool_EN.txt	MUG	11	13	[0, 0, 0]	n/a	FR1	1	R1226D
1787.144	0.916	1831050	WORD_OFF	n/a	n/a	MUG	11	13	[0, 0, 0]	n/a	FR1	1	R1226D
1788.06	1.617	1831966	WORD	n/a	wordpools/wordpool_EN.txt	TOAD	12	13	[0, 0, 0]	n/a	FR1	1	R1226D
1789.677	0.0	1833583	WORD_OFF	n/a	n/a	TOAD	12	13	[0, 0, 0]	n/a	FR1	1	R1226D
1789.677	0.0	1833583	DISTRACT_START	n/a	n/a	n/a	-999	13	[0, 0, 0]	n/a	FR1	1	R1226D
1789.677	0.017	1833583	START	n/a	n/a	n/a	-999	13	[-999, -999, -999]	n/a	FR1	1	R1226D
1789.694	7.668	1833600	PROB	7.668	n/a	n/a	-999	13	[8, 4, 7]	19	FR1	1	R1226D
1797.362	4.835	1841267	PROB	4.835	n/a	n/a	-999	13	[5, 2, 3]	10	FR1	1	R1226D
1802.197	4.683	1846102	PROB	4.683	n/a	n/a	-999	13	[2, 5, 3]	10	FR1	1	R1226D
1806.88	4.961	1850785	PROB	4.961	n/a	n/a	-999	13	[8, 7, 4]	19	FR1	1	R1226D
1811.841	0.006	1855746	STOP	n/a	n/a	n/a	-999	13	[-999, -999, -999]	n/a	FR1	1	R1226D
1811.847	0.651	1855752	DISTRACT_END	n/a	n/a	n/a	-999	13	[0, 0, 0]	n/a	FR1	1	R1226D
1812.498	0.517	1856403	RETRIEVAL_ORIENT	n/a	n/a	n/a	-999	13	[0, 0, 0]	n/a	FR1	1	R1226D
1813.015	3.911	1856920	REC_START	n/a	n/a	n/a	-999	13	[0, 0, 0]	n/a	FR1	1	R1226D
1816.926	2.02	1860830	REC_WORD	2.02	n/a	THUMB	2	13	[0, 0, 0]	n/a	FR1	1	R1226D
1818.946	1.77	1862850	REC_WORD	1.77	n/a	DEER	4	13	[0, 0, 0]	n/a	FR1	1	R1226D
1820.716	2.325	1864620	REC_WORD	2.325	n/a	MULE	5	13	[0, 0, 0]	n/a	FR1	1	R1226D
1823.041	4.547	1866945	REC_WORD	4.547	n/a	MOOSE	7	13	[0, 0, 0]	n/a	FR1	1	R1226D
1827.588	10.966	1871492	REC_WORD	10.966	n/a	GOAT	6	13	[0, 0, 0]	n/a	FR1	1	R1226D
1838.554	4.472	1882457	REC_WORD	4.472	n/a	WASP	-999	13	[0, 0, 0]	n/a	FR1	1	R1226D
1843.026	6.645	1886929	REC_END	n/a	n/a	n/a	-999	13	[0, 0, 0]	n/a	FR1	1	R1226D
1849.671	0.5	1893574	TRIAL	n/a	n/a	n/a	-999	14	[0, 0, 0]	n/a	FR1	1	R1226D
1850.171	10.428	1894074	COUNTDOWN_START	n/a	n/a	n/a	-999	14	[0, 0, 0]	n/a	FR1	1	R1226D
1860.599	0.007	1904501	COUNTDOWN_END	n/a	n/a	n/a	-999	14	[0, 0, 0]	n/a	FR1	1	R1226D
1860.606	1.602	1904508	ORIENT	n/a	n/a	n/a	-999	14	[0, 0, 0]	n/a	FR1	1	R1226D
1862.208	1.832	1906110	ORIENT_OFF	n/a	n/a	n/a	-999	14	[0, 0, 0]	n/a	FR1	1	R1226D
1864.04	1.617	1907942	WORD	n/a	wordpools/wordpool_EN.txt	BUSH	1	14	[0, 0, 0]	n/a	FR1	1	R1226D
1865.657	0.867	1909559	WORD_OFF	n/a	n/a	BUSH	1	14	[0, 0, 0]	n/a	FR1	1	R1226D
1866.524	1.618	1910426	WORD	n/a	wordpools/wordpool_EN.txt	CHIN	2	14	[0, 0, 0]	n/a	FR1	1	R1226D
1868.142	0.816	1912044	WORD_OFF	n/a	n/a	CHIN	2	14	[0, 0, 0]	n/a	FR1	1	R1226D
1868.958	1.617	1912860	WORD	n/a	wordpools/wordpool_EN.txt	JEEP	3	14	[0, 0, 0]	n/a	FR1	1	R1226D
1870.575	0.983	1914476	WORD_OFF	n/a	n/a	JEEP	3	14	[0, 0, 0]	n/a	FR1	1	R1226D
1871.558	1.618	1915459	WORD	n/a	wordpools/wordpool_EN.txt	HEART	4	14	[0, 0, 0]	n/a	FR1	1	R1226D
1873.176	0.85	1917077	WORD_OFF	n/a	n/a	HEART	4	14	[0, 0, 0]	n/a	FR1	1	R1226D
1874.026	1.617	1917927	WORD	n/a	wordpools/wordpool_EN.txt	LEG	5	14	[0, 0, 0]	n/a	FR1	1	R1226D
1875.643	0.833	1919544	WORD_OFF	n/a	n/a	LEG	5	14	[0, 0, 0]	n/a	FR1	1	R1226D
1876.476	1.617	1920377	WORD	n/a	wordpools/wordpool_EN.txt	CHALK	6	14	[0, 0, 0]	n/a	FR1	1	R1226D
1878.093	1.0	1921994	WORD_OFF	n/a	n/a	CHALK	6	14	[0, 0, 0]	n/a	FR1	1	R1226D
1879.093	1.617	1922994	WORD	n/a	wordpools/wordpool_EN.txt	BROOM	7	14	[0, 0, 0]	n/a	FR1	1	R1226D
1880.71	0.8	1924611	WORD_OFF	n/a	n/a	BROOM	7	14	[0, 0, 0]	n/a	FR1	1	R1226D
1881.51	1.618	1925411	WORD	n/a	wordpools/wordpool_EN.txt	PEN	8	14	[0, 0, 0]	n/a	FR1	1	R1226D
1883.128	0.766	1927029	WORD_OFF	n/a	n/a	PEN	8	14	[0, 0, 0]	n/a	FR1	1	R1226D
1883.894	1.617	1927795	WORD	n/a	wordpools/wordpool_EN.txt	APE	9	14	[0, 0, 0]	n/a	FR1	1	R1226D
1885.511	0.784	1929412	WORD_OFF	n/a	n/a	APE	9	14	[0, 0, 0]	n/a	FR1	1	R1226D
1886.295	1.617	1930196	WORD	n/a	wordpools/wordpool_EN.txt	HORSE	10	14	[0, 0, 0]	n/a	FR1	1	R1226D
1887.912	0.866	1931813	WORD_OFF	n/a	n/a	HORSE	10	14	[0, 0, 0]	n/a	FR1	1	R1226D
1888.778	1.617	1932678	WORD	n/a	wordpools/wordpool_EN.txt	FOOT	11	14	[0, 0, 0]	n/a	FR1	1	R1226D
1890.395	1.017	1934295	WORD_OFF	n/a	n/a	FOOT	11	14	[0, 0, 0]	n/a	FR1	1	R1226D
1891.412	1.617	1935312	WORD	n/a	wordpools/wordpool_EN.txt	ARM	12	14	[0, 0, 0]	n/a	FR1	1	R1226D
1893.029	0.0	1936929	WORD_OFF	n/a	n/a	ARM	12	14	[0, 0, 0]	n/a	FR1	1	R1226D
1893.029	0.001	1936929	DISTRACT_START	n/a	n/a	n/a	-999	14	[0, 0, 0]	n/a	FR1	1	R1226D
1893.03	0.016	1936930	START	n/a	n/a	n/a	-999	14	[-999, -999, -999]	n/a	FR1	1	R1226D
1893.046	4.185	1936946	PROB	4.185	n/a	n/a	-999	14	[5, 1, 4]	10	FR1	1	R1226D
1897.231	5.918	1941131	PROB	5.918	n/a	n/a	-999	14	[8, 5, 4]	17	FR1	1	R1226D
1903.149	6.866	1947049	PROB	6.866	n/a	n/a	-999	14	[4, 7, 8]	19	FR1	1	R1226D
1910.015	5.811	1953914	PROB	5.811	n/a	n/a	-999	14	[1, 3, 4]	8	FR1	1	R1226D
1915.826	0.007	1959725	STOP	n/a	n/a	n/a	-999	14	[-999, -999, -999]	n/a	FR1	1	R1226D
1915.833	0.667	1959732	DISTRACT_END	n/a	n/a	n/a	-999	14	[0, 0, 0]	n/a	FR1	1	R1226D
1916.5	0.517	1960399	RETRIEVAL_ORIENT	n/a	n/a	n/a	-999	14	[0, 0, 0]	n/a	FR1	1	R1226D
1917.017	2.437	1960916	REC_START	n/a	n/a	n/a	-999	14	[0, 0, 0]	n/a	FR1	1	R1226D
1919.454	1.956	1963353	REC_WORD	1.956	n/a	BUSH	1	14	[0, 0, 0]	n/a	FR1	1	R1226D
1921.41	2.087	1965309	REC_WORD	2.087	n/a	TREE	-999	14	[0, 0, 0]	n/a	FR1	1	R1226D
1923.497	2.369	1967396	REC_WORD	2.369	n/a	CHIN	2	14	[0, 0, 0]	n/a	FR1	1	R1226D
1925.866	2.892	1969764	REC_WORD	2.892	n/a	ARM	12	14	[0, 0, 0]	n/a	FR1	1	R1226D
1928.758	4.322	1972656	REC_WORD	4.322	n/a	LEG	5	14	[0, 0, 0]	n/a	FR1	1	R1226D
1933.08	3.963	1976978	REC_WORD	3.963	n/a	GOAT	-999	14	[0, 0, 0]	n/a	FR1	1	R1226D
1937.043	5.166	1980941	REC_WORD	5.166	n/a	EYE	-999	14	[0, 0, 0]	n/a	FR1	1	R1226D
1942.209	4.818	1986107	REC_WORD	4.818	n/a	LEG	5	14	[0, 0, 0]	n/a	FR1	1	R1226D
1947.027	7.397	1990924	REC_END	n/a	n/a	n/a	-999	14	[0, 0, 0]	n/a	FR1	1	R1226D
1954.424	0.5	1998321	TRIAL	n/a	n/a	n/a	-999	15	[0, 0, 0]	n/a	FR1	1	R1226D
1954.924	10.428	1998821	COUNTDOWN_START	n/a	n/a	n/a	-999	15	[0, 0, 0]	n/a	FR1	1	R1226D
1965.352	0.007	2009248	COUNTDOWN_END	n/a	n/a	n/a	-999	15	[0, 0, 0]	n/a	FR1	1	R1226D
1965.359	1.617	2009255	ORIENT	n/a	n/a	n/a	-999	15	[0, 0, 0]	n/a	FR1	1	R1226D
1966.976	2.034	2010872	ORIENT_OFF	n/a	n/a	n/a	-999	15	[0, 0, 0]	n/a	FR1	1	R1226D
1969.01	1.617	2012906	WORD	n/a	wordpools/wordpool_EN.txt	MAT	1	15	[0, 0, 0]	n/a	FR1	1	R1226D
1970.627	0.833	2014523	WORD_OFF	n/a	n/a	MAT	1	15	[0, 0, 0]	n/a	FR1	1	R1226D
1971.46	1.617	2015356	WORD	n/a	wordpools/wordpool_EN.txt	BEAR	2	15	[0, 0, 0]	n/a	FR1	1	R1226D
1973.077	0.8	2016973	WORD_OFF	n/a	n/a	BEAR	2	15	[0, 0, 0]	n/a	FR1	1	R1226D
1973.877	1.617	2017773	WORD	n/a	wordpools/wordpool_EN.txt	CLAY	3	15	[0, 0, 0]	n/a	FR1	1	R1226D
1975.494	0.8	2019390	WORD_OFF	n/a	n/a	CLAY	3	15	[0, 0, 0]	n/a	FR1	1	R1226D
1976.294	1.617	2020190	WORD	n/a	wordpools/wordpool_EN.txt	SALT	4	15	[0, 0, 0]	n/a	FR1	1	R1226D
1977.911	0.934	2021807	WORD_OFF	n/a	n/a	SALT	4	15	[0, 0, 0]	n/a	FR1	1	R1226D
1978.845	1.617	2022741	WORD	n/a	wordpools/wordpool_EN.txt	SAIL	5	15	[0, 0, 0]	n/a	FR1	1	R1226D
1980.462	1.0	2024357	WORD_OFF	n/a	n/a	SAIL	5	15	[0, 0, 0]	n/a	FR1	1	R1226D
1981.462	1.617	2025357	WORD	n/a	wordpools/wordpool_EN.txt	SPEAR	6	15	[0, 0, 0]	n/a	FR1	1	R1226D
1983.079	0.8	2026974	WORD_OFF	n/a	n/a	SPEAR	6	15	[0, 0, 0]	n/a	FR1	1	R1226D
1983.879	1.617	2027774	WORD	n/a	wordpools/wordpool_EN.txt	RIB	7	15	[0, 0, 0]	n/a	FR1	1	R1226D
1985.496	0.95	2029391	WORD_OFF	n/a	n/a	RIB	7	15	[0, 0, 0]	n/a	FR1	1	R1226D
1986.446	1.617	2030341	WORD	n/a	wordpools/wordpool_EN.txt	DUCK	8	15	[0, 0, 0]	n/a	FR1	1	R1226D
1988.063	0.917	2031958	WORD_OFF	n/a	n/a	DUCK	8	15	[0, 0, 0]	n/a	FR1	1	R1226D
1988.98	1.617	2032875	WORD	n/a	wordpools/wordpool_EN.txt	YARD	9	15	[0, 0, 0]	n/a	FR1	1	R1226D
1990.597	0.967	2034492	WORD_OFF	n/a	n/a	YARD	9	15	[0, 0, 0]	n/a	FR1	1	R1226D
1991.564	1.618	2035459	WORD	n/a	wordpools/wordpool_EN.txt	CART	10	15	[0, 0, 0]	n/a	FR1	1	R1226D
1993.182	0.765	2037077	WORD_OFF	n/a	n/a	CART	10	15	[0, 0, 0]	n/a	FR1	1	R1226D
1993.947	1.618	2037842	WORD	n/a	wordpools/wordpool_EN.txt	PEACH	11	15	[0, 0, 0]	n/a	FR1	1	R1226D
1995.565	0.883	2039460	WORD_OFF	n/a	n/a	PEACH	11	15	[0, 0, 0]	n/a	FR1	1	R1226D
1996.448	1.617	2040343	WORD	n/a	wordpools/wordpool_EN.txt	PET	12	15	[0, 0, 0]	n/a	FR1	1	R1226D
1998.065	0.0	2041959	WORD_OFF	n/a	n/a	PET	12	15	[0, 0, 0]	n/a	FR1	1	R1226D
1998.065	0.001	2041959	DISTRACT_START	n/a	n/a	n/a	-999	15	[0, 0, 0]	n/a	FR1	1	R1226D
1998.066	0.016	2041960	START	n/a	n/a	n/a	-999	15	[-999, -999, -999]	n/a	FR1	1	R1226D
1998.082	9.135	2041976	PROB	9.135	n/a	n/a	-999	15	[6, 9, 5]	20	FR1	1	R1226D
2007.217	3.35	2051111	PROB	3.35	n/a	n/a	-999	15	[8, 2, 1]	11	FR1	1	R1226D
2010.567	6.485	2054461	PROB	6.485	n/a	n/a	-999	15	[4, 5, 6]	15	FR1	1	R1226D
2017.052	3.726	2060945	PROB	3.726	n/a	n/a	-999	15	[5, 4, 1]	10	FR1	1	R1226D
2020.778	0.008	2064671	STOP	n/a	n/a	n/a	-999	15	[-999, -999, -999]	n/a	FR1	1	R1226D
2020.786	0.567	2064679	DISTRACT_END	n/a	n/a	n/a	-999	15	[0, 0, 0]	n/a	FR1	1	R1226D
2021.353	0.517	2065246	RETRIEVAL_ORIENT	n/a	n/a	n/a	-999	15	[0, 0, 0]	n/a	FR1	1	R1226D
2021.87	3.568	2065763	REC_START	n/a	n/a	n/a	-999	15	[0, 0, 0]	n/a	FR1	1	R1226D
2025.438	1.257	2069331	REC_WORD	1.257	n/a	BEAR	2	15	[0, 0, 0]	n/a	FR1	1	R1226D
2026.695	2.458	2070588	REC_WORD	2.458	n/a	SAIL	5	15	[0, 0, 0]	n/a	FR1	1	R1226D
2029.153	2.333	2073046	REC_WORD	2.333	n/a	DUCK	8	15	[0, 0, 0]	n/a	FR1	1	R1226D
2031.486	4.026	2075379	REC_WORD	4.026	n/a	RIB	7	15	[0, 0, 0]	n/a	FR1	1	R1226D
2035.512	3.158	2079404	REC_WORD	3.158	n/a	PEACH	11	15	[0, 0, 0]	n/a	FR1	1	R1226D
2038.67	13.211	2082562	REC_WORD	13.211	n/a	CLOUD	-999	15	[0, 0, 0]	n/a	FR1	1	R1226D
2051.881	6.078	2095772	REC_END	n/a	n/a	n/a	-999	15	[0, 0, 0]	n/a	FR1	1	R1226D
2057.959	0.5	2101850	TRIAL	n/a	n/a	n/a	-999	16	[0, 0, 0]	n/a	FR1	1	R1226D
2058.459	10.428	2102350	COUNTDOWN_START	n/a	n/a	n/a	-999	16	[0, 0, 0]	n/a	FR1	1	R1226D
2068.887	0.008	2112778	COUNTDOWN_END	n/a	n/a	n/a	-999	16	[0, 0, 0]	n/a	FR1	1	R1226D
2068.895	1.617	2112786	ORIENT	n/a	n/a	n/a	-999	16	[0, 0, 0]	n/a	FR1	1	R1226D
2070.512	1.933	2114402	ORIENT_OFF	n/a	n/a	n/a	-999	16	[0, 0, 0]	n/a	FR1	1	R1226D
2072.445	1.617	2116335	WORD	n/a	wordpools/wordpool_EN.txt	RICE	1	16	[0, 0, 0]	n/a	FR1	1	R1226D
2074.062	0.834	2117952	WORD_OFF	n/a	n/a	RICE	1	16	[0, 0, 0]	n/a	FR1	1	R1226D
2074.896	1.617	2118786	WORD	n/a	wordpools/wordpool_EN.txt	SMOKE	2	16	[0, 0, 0]	n/a	FR1	1	R1226D
2076.513	0.833	2120403	WORD_OFF	n/a	n/a	SMOKE	2	16	[0, 0, 0]	n/a	FR1	1	R1226D
2077.346	1.617	2121236	WORD	n/a	wordpools/wordpool_EN.txt	DOOR	3	16	[0, 0, 0]	n/a	FR1	1	R1226D
2078.963	0.884	2122853	WORD_OFF	n/a	n/a	DOOR	3	16	[0, 0, 0]	n/a	FR1	1	R1226D
2079.847	1.617	2123737	WORD	n/a	wordpools/wordpool_EN.txt	SOCK	4	16	[0, 0, 0]	n/a	FR1	1	R1226D
2081.464	0.9	2125354	WORD_OFF	n/a	n/a	SOCK	4	16	[0, 0, 0]	n/a	FR1	1	R1226D
2082.364	1.617	2126254	WORD	n/a	wordpools/wordpool_EN.txt	OAK	5	16	[0, 0, 0]	n/a	FR1	1	R1226D
2083.981	0.783	2127871	WORD_OFF	n/a	n/a	OAK	5	16	[0, 0, 0]	n/a	FR1	1	R1226D
2084.764	1.617	2128654	WORD	n/a	wordpools/wordpool_EN.txt	FARM	6	16	[0, 0, 0]	n/a	FR1	1	R1226D
2086.381	0.967	2130271	WORD_OFF	n/a	n/a	FARM	6	16	[0, 0, 0]	n/a	FR1	1	R1226D
2087.348	1.617	2131238	WORD	n/a	wordpools/wordpool_EN.txt	SOAP	7	16	[0, 0, 0]	n/a	FR1	1	R1226D
2088.965	0.95	2132854	WORD_OFF	n/a	n/a	SOAP	7	16	[0, 0, 0]	n/a	FR1	1	R1226D
2089.915	1.617	2133804	WORD	n/a	wordpools/wordpool_EN.txt	PANTS	8	16	[0, 0, 0]	n/a	FR1	1	R1226D
2091.532	0.817	2135421	WORD_OFF	n/a	n/a	PANTS	8	16	[0, 0, 0]	n/a	FR1	1	R1226D
2092.349	1.617	2136238	WORD	n/a	wordpools/wordpool_EN.txt	PALM	9	16	[0, 0, 0]	n/a	FR1	1	R1226D
2093.966	0.95	2137855	WORD_OFF	n/a	n/a	PALM	9	16	[0, 0, 0]	n/a	FR1	1	R1226D
2094.916	1.617	2138805	WORD	n/a	wordpools/wordpool_EN.txt	WHALE	10	16	[0, 0, 0]	n/a	FR1	1	R1226D
2096.533	0.817	2140422	WORD_OFF	n/a	n/a	WHALE	10	16	[0, 0, 0]	n/a	FR1	1	R1226D
2097.35	1.617	2141239	WORD	n/a	wordpools/wordpool_EN.txt	ROOF	11	16	[0, 0, 0]	n/a	FR1	1	R1226D
2098.967	0.983	2142856	WORD_OFF	n/a	n/a	ROOF	11	16	[0, 0, 0]	n/a	FR1	1	R1226D
2099.95	1.617	2143839	WORD	n/a	wordpools/wordpool_EN.txt	GLOVE	12	16	[0, 0, 0]	n/a	FR1	1	R1226D
2101.567	0.0	2145456	DISTRACT_START	n/a	n/a	n/a	-999	16	[0, 0, 0]	n/a	FR1	1	R1226D
2101.567	0.001	2145456	WORD_OFF	n/a	n/a	GLOVE	12	16	[0, 0, 0]	n/a	FR1	1	R1226D
2101.568	0.016	2145457	START	n/a	n/a	n/a	-999	16	[-999, -999, -999]	n/a	FR1	1	R1226D
2101.584	7.168	2145473	PROB	7.168	n/a	n/a	-999	16	[5, 7, 2]	14	FR1	1	R1226D
2108.752	4.267	2152640	PROB	4.267	n/a	n/a	-999	16	[8, 9, 4]	21	FR1	1	R1226D
2113.019	5.585	2156907	PROB	5.585	n/a	n/a	-999	16	[4, 6, 4]	14	FR1	1	R1226D
2118.604	3.99	2162492	PROB	3.99	n/a	n/a	-999	16	[2, 4, 2]	8	FR1	1	R1226D
2122.594	0.01	2166482	STOP	n/a	n/a	n/a	-999	16	[-999, -999, -999]	n/a	FR1	1	R1226D
2122.604	0.518	2166492	DISTRACT_END	n/a	n/a	n/a	-999	16	[0, 0, 0]	n/a	FR1	1	R1226D
2123.122	0.517	2167010	RETRIEVAL_ORIENT	n/a	n/a	n/a	-999	16	[0, 0, 0]	n/a	FR1	1	R1226D
2123.639	2.467	2167527	REC_START	n/a	n/a	n/a	-999	16	[0, 0, 0]	n/a	FR1	1	R1226D
2126.106	1.444	2169993	REC_WORD	1.444	n/a	DOOR	3	16	[0, 0, 0]	n/a	FR1	1	R1226D
2127.55	2.277	2171437	REC_WORD	2.277	n/a	OAK	5	16	[0, 0, 0]	n/a	FR1	1	R1226D
2129.827	12.283	2173714	REC_WORD	12.283	n/a	PALM	9	16	[0, 0, 0]	n/a	FR1	1	R1226D
2142.11	8.483	2185997	REC_WORD	8.483	n/a	WOOD	-999	16	[0, 0, 0]	n/a	FR1	1	R1226D
2150.593	3.056	2194479	REC_WORD	3.056	n/a	PET	-999	16	[0, 0, 0]	n/a	FR1	1	R1226D
2153.649	5.547	2197535	REC_END	n/a	n/a	n/a	-999	16	[0, 0, 0]	n/a	FR1	1	R1226D
2159.196	0.5	2203082	TRIAL	n/a	n/a	n/a	-999	17	[0, 0, 0]	n/a	FR1	1	R1226D
2159.696	10.428	2203582	COUNTDOWN_START	n/a	n/a	n/a	-999	17	[0, 0, 0]	n/a	FR1	1	R1226D
2170.124	0.007	2214009	COUNTDOWN_END	n/a	n/a	n/a	-999	17	[0, 0, 0]	n/a	FR1	1	R1226D
2170.131	1.616	2214016	ORIENT	n/a	n/a	n/a	-999	17	[0, 0, 0]	n/a	FR1	1	R1226D
2171.747	1.984	2215632	ORIENT_OFF	n/a	n/a	n/a	-999	17	[0, 0, 0]	n/a	FR1	1	R1226D
2173.731	1.616	2217616	WORD	n/a	wordpools/wordpool_EN.txt	ARK	1	17	[0, 0, 0]	n/a	FR1	1	R1226D
2175.347	0.868	2219232	WORD_OFF	n/a	n/a	ARK	1	17	[0, 0, 0]	n/a	FR1	1	R1226D
2176.215	1.616	2220100	WORD	n/a	wordpools/wordpool_EN.txt	DOG	2	17	[0, 0, 0]	n/a	FR1	1	R1226D
2177.831	0.817	2221716	WORD_OFF	n/a	n/a	DOG	2	17	[0, 0, 0]	n/a	FR1	1	R1226D
2178.648	1.617	2222533	WORD	n/a	wordpools/wordpool_EN.txt	BRANCH	3	17	[0, 0, 0]	n/a	FR1	1	R1226D
2180.265	0.968	2224149	WORD_OFF	n/a	n/a	BRANCH	3	17	[0, 0, 0]	n/a	FR1	1	R1226D
2181.233	1.616	2225117	WORD	n/a	wordpools/wordpool_EN.txt	POND	4	17	[0, 0, 0]	n/a	FR1	1	R1226D
2182.849	0.867	2226733	WORD_OFF	n/a	n/a	POND	4	17	[0, 0, 0]	n/a	FR1	1	R1226D
2183.716	1.617	2227600	WORD	n/a	wordpools/wordpool_EN.txt	SKUNK	5	17	[0, 0, 0]	n/a	FR1	1	R1226D
2185.333	0.901	2229217	WORD_OFF	n/a	n/a	SKUNK	5	17	[0, 0, 0]	n/a	FR1	1	R1226D
2186.234	1.616	2230118	WORD	n/a	wordpools/wordpool_EN.txt	BANK	6	17	[0, 0, 0]	n/a	FR1	1	R1226D
2187.85	1.0	2231734	WORD_OFF	n/a	n/a	BANK	6	17	[0, 0, 0]	n/a	FR1	1	R1226D
2188.85	1.617	2232734	WORD	n/a	wordpools/wordpool_EN.txt	SNAKE	7	17	[0, 0, 0]	n/a	FR1	1	R1226D
2190.467	0.933	2234351	WORD_OFF	n/a	n/a	SNAKE	7	17	[0, 0, 0]	n/a	FR1	1	R1226D
2191.4	1.617	2235284	WORD	n/a	wordpools/wordpool_EN.txt	CHIEF	8	17	[0, 0, 0]	n/a	FR1	1	R1226D
2193.017	0.934	2236901	WORD_OFF	n/a	n/a	CHIEF	8	17	[0, 0, 0]	n/a	FR1	1	R1226D
2193.951	1.617	2237835	WORD	n/a	wordpools/wordpool_EN.txt	FORK	9	17	[0, 0, 0]	n/a	FR1	1	R1226D
2195.568	0.883	2239452	WORD_OFF	n/a	n/a	FORK	9	17	[0, 0, 0]	n/a	FR1	1	R1226D
2196.451	1.617	2240335	WORD	n/a	wordpools/wordpool_EN.txt	MUD	10	17	[0, 0, 0]	n/a	FR1	1	R1226D
2198.068	0.901	2241951	WORD_OFF	n/a	n/a	MUD	10	17	[0, 0, 0]	n/a	FR1	1	R1226D
2198.969	1.616	2242852	WORD	n/a	wordpools/wordpool_EN.txt	SKY	11	17	[0, 0, 0]	n/a	FR1	1	R1226D
2200.585	0.967	2244468	WORD_OFF	n/a	n/a	SKY	11	17	[0, 0, 0]	n/a	FR1	1	R1226D
2201.552	1.618	2245435	WORD	n/a	wordpools/wordpool_EN.txt	MOUSE	12	17	[0, 0, 0]	n/a	FR1	1	R1226D
2203.17	0.0	2247053	WORD_OFF	n/a	n/a	MOUSE	12	17	[0, 0, 0]	n/a	FR1	1	R1226D
2203.17	0.001	2247053	DISTRACT_START	n/a	n/a	n/a	-999	17	[0, 0, 0]	n/a	FR1	1	R1226D
2203.171	0.016	2247054	START	n/a	n/a	n/a	-999	17	[-999, -999, -999]	n/a	FR1	1	R1226D
2203.187	5.517	2247070	PROB	5.517	n/a	n/a	-999	17	[5, 9, 7]	21	FR1	1	R1226D
2208.704	6.184	2252587	PROB	6.184	n/a	n/a	-999	17	[7, 8, 9]	24	FR1	1	R1226D
2214.888	6.468	2258771	PROB	6.468	n/a	n/a	-999	17	[6, 3, 9]	18	FR1	1	R1226D
2221.356	4.309	2265238	PROB	4.309	n/a	n/a	-999	17	[9, 2, 9]	20	FR1	1	R1226D
2225.665	0.008	2269547	STOP	n/a	n/a	n/a	-999	17	[-999, -999, -999]	n/a	FR1	1	R1226D
2225.673	0.65	2269555	DISTRACT_END	n/a	n/a	n/a	-999	17	[0, 0, 0]	n/a	FR1	1	R1226D
2226.323	0.518	2270205	RETRIEVAL_ORIENT	n/a	n/a	n/a	-999	17	[0, 0, 0]	n/a	FR1	1	R1226D
2226.841	3.335	2270723	REC_START	n/a	n/a	n/a	-999	17	[0, 0, 0]	n/a	FR1	1	R1226D
2230.176	2.222	2274058	REC_WORD	2.222	n/a	POND	4	17	[0, 0, 0]	n/a	FR1	1	R1226D
2232.398	1.427	2276280	REC_WORD_VV	1.427	n/a	<>	-999	17	[0, 0, 0]	n/a	FR1	1	R1226D
2233.825	2.921	2277706	REC_WORD	2.921	n/a	MUD	10	17	[0, 0, 0]	n/a	FR1	1	R1226D
2236.746	13.787	2280627	REC_WORD	13.787	n/a	STICK	-999	17	[0, 0, 0]	n/a	FR1	1	R1226D
2250.533	6.32	2294414	REC_WORD	6.32	n/a	DOG	2	17	[0, 0, 0]	n/a	FR1	1	R1226D
2256.853	5.644	2300733	REC_END	n/a	n/a	n/a	-999	17	[0, 0, 0]	n/a	FR1	1	R1226D
2262.497	0.5	2306377	TRIAL	n/a	n/a	n/a	-999	18	[0, 0, 0]	n/a	FR1	1	R1226D
2262.997	10.428	2306877	COUNTDOWN_START	n/a	n/a	n/a	-999	18	[0, 0, 0]	n/a	FR1	1	R1226D
2273.425	0.007	2317304	COUNTDOWN_END	n/a	n/a	n/a	-999	18	[0, 0, 0]	n/a	FR1	1	R1226D
2273.432	1.617	2317311	ORIENT	n/a	n/a	n/a	-999	18	[0, 0, 0]	n/a	FR1	1	R1226D
2275.049	2.334	2318928	ORIENT_OFF	n/a	n/a	n/a	-999	18	[0, 0, 0]	n/a	FR1	1	R1226D
2277.383	1.617	2321262	WORD	n/a	wordpools/wordpool_EN.txt	LAWN	1	18	[0, 0, 0]	n/a	FR1	1	R1226D
2279.0	0.85	2322879	WORD_OFF	n/a	n/a	LAWN	1	18	[0, 0, 0]	n/a	FR1	1	R1226D
2279.85	1.617	2323729	WORD	n/a	wordpools/wordpool_EN.txt	STORM	2	18	[0, 0, 0]	n/a	FR1	1	R1226D
2281.467	0.867	2325346	WORD_OFF	n/a	n/a	STORM	2	18	[0, 0, 0]	n/a	FR1	1	R1226D
2282.334	1.617	2326213	WORD	n/a	wordpools/wordpool_EN.txt	PRINCE	3	18	[0, 0, 0]	n/a	FR1	1	R1226D
2283.951	0.8	2327830	WORD_OFF	n/a	n/a	PRINCE	3	18	[0, 0, 0]	n/a	FR1	1	R1226D
2284.751	1.617	2328630	WORD	n/a	wordpools/wordpool_EN.txt	KITE	4	18	[0, 0, 0]	n/a	FR1	1	R1226D
2286.368	0.768	2330247	WORD_OFF	n/a	n/a	KITE	4	18	[0, 0, 0]	n/a	FR1	1	R1226D
2287.136	1.616	2331015	WORD	n/a	wordpools/wordpool_EN.txt	MAZE	5	18	[0, 0, 0]	n/a	FR1	1	R1226D
2288.752	0.95	2332630	WORD_OFF	n/a	n/a	MAZE	5	18	[0, 0, 0]	n/a	FR1	1	R1226D
2289.702	1.617	2333580	WORD	n/a	wordpools/wordpool_EN.txt	SPARK	6	18	[0, 0, 0]	n/a	FR1	1	R1226D
2291.319	0.95	2335197	WORD_OFF	n/a	n/a	SPARK	6	18	[0, 0, 0]	n/a	FR1	1	R1226D
2292.269	1.617	2336147	WORD	n/a	wordpools/wordpool_EN.txt	FILM	7	18	[0, 0, 0]	n/a	FR1	1	R1226D
2293.886	1.017	2337764	WORD_OFF	n/a	n/a	FILM	7	18	[0, 0, 0]	n/a	FR1	1	R1226D
2294.903	1.617	2338781	WORD	n/a	wordpools/wordpool_EN.txt	DESK	8	18	[0, 0, 0]	n/a	FR1	1	R1226D
2296.52	0.816	2340398	WORD_OFF	n/a	n/a	DESK	8	18	[0, 0, 0]	n/a	FR1	1	R1226D
2297.336	1.617	2341214	WORD	n/a	wordpools/wordpool_EN.txt	NEST	9	18	[0, 0, 0]	n/a	FR1	1	R1226D
2298.953	1.017	2342831	WORD_OFF	n/a	n/a	NEST	9	18	[0, 0, 0]	n/a	FR1	1	R1226D
2299.97	1.617	2343848	WORD	n/a	wordpools/wordpool_EN.txt	BOOK	10	18	[0, 0, 0]	n/a	FR1	1	R1226D
2301.587	0.767	2345465	WORD_OFF	n/a	n/a	BOOK	10	18	[0, 0, 0]	n/a	FR1	1	R1226D
2302.354	1.617	2346232	WORD	n/a	wordpools/wordpool_EN.txt	JET	11	18	[0, 0, 0]	n/a	FR1	1	R1226D
2303.971	0.983	2347849	WORD_OFF	n/a	n/a	JET	11	18	[0, 0, 0]	n/a	FR1	1	R1226D
2304.954	1.617	2348832	WORD	n/a	wordpools/wordpool_EN.txt	SNAIL	12	18	[0, 0, 0]	n/a	FR1	1	R1226D
2306.571	0.0	2350448	WORD_OFF	n/a	n/a	SNAIL	12	18	[0, 0, 0]	n/a	FR1	1	R1226D
2306.571	0.001	2350448	DISTRACT_START	n/a	n/a	n/a	-999	18	[0, 0, 0]	n/a	FR1	1	R1226D
2306.572	0.016	2350449	START	n/a	n/a	n/a	-999	18	[-999, -999, -999]	n/a	FR1	1	R1226D
2306.588	6.435	2350465	PROB	6.435	n/a	n/a	-999	18	[9, 8, 5]	22	FR1	1	R1226D
2313.023	5.517	2356900	PROB	5.517	n/a	n/a	-999	18	[6, 8, 3]	17	FR1	1	R1226D
2318.54	5.485	2362417	PROB	5.485	n/a	n/a	-999	18	[3, 5, 4]	12	FR1	1	R1226D
2324.025	6.09	2367902	PROB	6.09	n/a	n/a	-999	18	[2, 2, 3]	7	FR1	1	R1226D
2330.115	0.012	2373991	STOP	n/a	n/a	n/a	-999	18	[-999, -999, -999]	n/a	FR1	1	R1226D
2330.127	0.515	2374003	DISTRACT_END	n/a	n/a	n/a	-999	18	[0, 0, 0]	n/a	FR1	1	R1226D
2330.642	0.519	2374518	RETRIEVAL_ORIENT	n/a	n/a	n/a	-999	18	[0, 0, 0]	n/a	FR1	1	R1226D
2331.161	2.441	2375037	REC_START	n/a	n/a	n/a	-999	18	[0, 0, 0]	n/a	FR1	1	R1226D
2333.602	1.708	2377478	REC_WORD	1.708	n/a	SPARK	6	18	[0, 0, 0]	n/a	FR1	1	R1226D
2335.31	6.601	2379186	REC_WORD	6.601	n/a	MAZE	5	18	[0, 0, 0]	n/a	FR1	1	R1226D
2341.911	3.342	2385787	REC_WORD	3.342	n/a	HORN	-999	18	[0, 0, 0]	n/a	FR1	1	R1226D
2345.253	6.164	2389128	REC_WORD	6.164	n/a	KITE	4	18	[0, 0, 0]	n/a	FR1	1	R1226D
2351.417	9.755	2395292	REC_WORD	9.755	n/a	BOOK	10	18	[0, 0, 0]	n/a	FR1	1	R1226D
2361.172	5.028	2405046	REC_END	n/a	n/a	n/a	-999	18	[0, 0, 0]	n/a	FR1	1	R1226D
2366.2	0.5	2410074	TRIAL	n/a	n/a	n/a	-999	19	[0, 0, 0]	n/a	FR1	1	R1226D
2366.7	10.428	2410574	COUNTDOWN_START	n/a	n/a	n/a	-999	19	[0, 0, 0]	n/a	FR1	1	R1226D
2377.128	0.007	2421002	COUNTDOWN_END	n/a	n/a	n/a	-999	19	[0, 0, 0]	n/a	FR1	1	R1226D
2377.135	1.616	2421009	ORIENT	n/a	n/a	n/a	-999	19	[0, 0, 0]	n/a	FR1	1	R1226D
2378.751	2.151	2422625	ORIENT_OFF	n/a	n/a	n/a	-999	19	[0, 0, 0]	n/a	FR1	1	R1226D
2380.902	1.617	2424775	WORD	n/a	wordpools/wordpool_EN.txt	LAMP	1	19	[0, 0, 0]	n/a	FR1	1	R1226D
2382.519	0.95	2426392	WORD_OFF	n/a	n/a	LAMP	1	19	[0, 0, 0]	n/a	FR1	1	R1226D
2383.469	1.617	2427342	WORD	n/a	wordpools/wordpool_EN.txt	FLOOR	2	19	[0, 0, 0]	n/a	FR1	1	R1226D
2385.086	0.967	2428959	WORD_OFF	n/a	n/a	FLOOR	2	19	[0, 0, 0]	n/a	FR1	1	R1226D
2386.053	1.617	2429926	WORD	n/a	wordpools/wordpool_EN.txt	BOOT	3	19	[0, 0, 0]	n/a	FR1	1	R1226D
2387.67	0.95	2431543	WORD_OFF	n/a	n/a	BOOT	3	19	[0, 0, 0]	n/a	FR1	1	R1226D
2388.62	1.618	2432493	WORD	n/a	wordpools/wordpool_EN.txt	AXE	4	19	[0, 0, 0]	n/a	FR1	1	R1226D
2390.238	0.917	2434111	WORD_OFF	n/a	n/a	AXE	4	19	[0, 0, 0]	n/a	FR1	1	R1226D
2391.155	1.616	2435028	WORD	n/a	wordpools/wordpool_EN.txt	BOWL	5	19	[0, 0, 0]	n/a	FR1	1	R1226D
2392.771	0.933	2436644	WORD_OFF	n/a	n/a	BOWL	5	19	[0, 0, 0]	n/a	FR1	1	R1226D
2393.704	1.617	2437577	WORD	n/a	wordpools/wordpool_EN.txt	SEAT	6	19	[0, 0, 0]	n/a	FR1	1	R1226D
2395.321	0.801	2439194	WORD_OFF	n/a	n/a	SEAT	6	19	[0, 0, 0]	n/a	FR1	1	R1226D
2396.122	1.616	2439995	WORD	n/a	wordpools/wordpool_EN.txt	TIE	7	19	[0, 0, 0]	n/a	FR1	1	R1226D
2397.738	0.884	2441610	WORD_OFF	n/a	n/a	TIE	7	19	[0, 0, 0]	n/a	FR1	1	R1226D
2398.622	1.618	2442494	WORD	n/a	wordpools/wordpool_EN.txt	FACE	8	19	[0, 0, 0]	n/a	FR1	1	R1226D
2400.24	1.0	2444112	WORD_OFF	n/a	n/a	FACE	8	19	[0, 0, 0]	n/a	FR1	1	R1226D
2401.24	1.616	2445112	WORD	n/a	wordpools/wordpool_EN.txt	VAN	9	19	[0, 0, 0]	n/a	FR1	1	R1226D
2402.856	0.883	2446728	WORD_OFF	n/a	n/a	VAN	9	19	[0, 0, 0]	n/a	FR1	1	R1226D
2403.739	1.617	2447611	WORD	n/a	wordpools/wordpool_EN.txt	TOE	10	19	[0, 0, 0]	n/a	FR1	1	R1226D
2405.356	0.967	2449228	WORD_OFF	n/a	n/a	TOE	10	19	[0, 0, 0]	n/a	FR1	1	R1226D
2406.323	1.617	2450195	WORD	n/a	wordpools/wordpool_EN.txt	BLOOM	11	19	[0, 0, 0]	n/a	FR1	1	R1226D
2407.94	0.9	2451812	WORD_OFF	n/a	n/a	BLOOM	11	19	[0, 0, 0]	n/a	FR1	1	R1226D
2408.84	1.617	2452712	WORD	n/a	wordpools/wordpool_EN.txt	SLIME	12	19	[0, 0, 0]	n/a	FR1	1	R1226D
2410.457	0.0	2454329	WORD_OFF	n/a	n/a	SLIME	12	19	[0, 0, 0]	n/a	FR1	1	R1226D
2410.457	0.001	2454329	DISTRACT_START	n/a	n/a	n/a	-999	19	[0, 0, 0]	n/a	FR1	1	R1226D
2410.458	0.016	2454330	START	n/a	n/a	n/a	-999	19	[-999, -999, -999]	n/a	FR1	1	R1226D
2410.474	6.301	2454346	PROB	6.301	n/a	n/a	-999	19	[6, 8, 9]	23	FR1	1	R1226D
2416.775	4.767	2460646	PROB	4.767	n/a	n/a	-999	19	[1, 4, 4]	9	FR1	1	R1226D
2421.542	6.535	2465413	PROB	6.535	n/a	n/a	-999	19	[3, 8, 5]	16	FR1	1	R1226D
2428.077	6.844	2471948	PROB	6.844	n/a	n/a	-999	19	[8, 1, 7]	16	FR1	1	R1226D
2434.921	0.007	2478791	STOP	n/a	n/a	n/a	-999	19	[-999, -999, -999]	n/a	FR1	1	R1226D
2434.928	0.55	2478798	DISTRACT_END	n/a	n/a	n/a	-999	19	[0, 0, 0]	n/a	FR1	1	R1226D
2435.478	0.518	2479348	RETRIEVAL_ORIENT	n/a	n/a	n/a	-999	19	[0, 0, 0]	n/a	FR1	1	R1226D
2435.996	4.068	2479866	REC_START	n/a	n/a	n/a	-999	19	[0, 0, 0]	n/a	FR1	1	R1226D
2440.064	2.234	2483934	REC_WORD	2.234	n/a	LAND	-999	19	[0, 0, 0]	n/a	FR1	1	R1226D
2442.298	2.896	2486168	REC_WORD	2.896	n/a	FLOOR	2	19	[0, 0, 0]	n/a	FR1	1	R1226D
2445.194	3.421	2489064	REC_WORD	3.421	n/a	FLUTE	-999	19	[0, 0, 0]	n/a	FR1	1	R1226D
2448.615	2.564	2492485	REC_WORD	2.564	n/a	BOWL	5	19	[0, 0, 0]	n/a	FR1	1	R1226D
2451.179	2.89	2495049	REC_WORD	2.89	n/a	AXE	4	19	[0, 0, 0]	n/a	FR1	1	R1226D
2454.069	1.878	2497938	REC_WORD	1.878	n/a	CUP	-999	19	[0, 0, 0]	n/a	FR1	1	R1226D
2455.947	10.058	2499816	REC_WORD	10.058	n/a	BROOM	-999	19	[0, 0, 0]	n/a	FR1	1	R1226D
2466.005	4.43	2509874	REC_END	n/a	n/a	n/a	-999	19	[0, 0, 0]	n/a	FR1	1	R1226D
2470.435	0.5	2514303	TRIAL	n/a	n/a	n/a	-999	20	[0, 0, 0]	n/a	FR1	1	R1226D
2470.935	10.428	2514803	COUNTDOWN_START	n/a	n/a	n/a	-999	20	[0, 0, 0]	n/a	FR1	1	R1226D
2481.363	0.007	2525231	COUNTDOWN_END	n/a	n/a	n/a	-999	20	[0, 0, 0]	n/a	FR1	1	R1226D
2481.37	1.617	2525238	ORIENT	n/a	n/a	n/a	-999	20	[0, 0, 0]	n/a	FR1	1	R1226D
2482.987	2.034	2526855	ORIENT_OFF	n/a	n/a	n/a	-999	20	[0, 0, 0]	n/a	FR1	1	R1226D
2485.021	1.617	2528889	WORD	n/a	wordpools/wordpool_EN.txt	HAND	1	20	[0, 0, 0]	n/a	FR1	1	R1226D
2486.638	0.85	2530506	WORD_OFF	n/a	n/a	HAND	1	20	[0, 0, 0]	n/a	FR1	1	R1226D
2487.488	1.617	2531356	WORD	n/a	wordpools/wordpool_EN.txt	ROSE	2	20	[0, 0, 0]	n/a	FR1	1	R1226D
2489.105	0.95	2532972	WORD_OFF	n/a	n/a	ROSE	2	20	[0, 0, 0]	n/a	FR1	1	R1226D
2490.055	1.617	2533922	WORD	n/a	wordpools/wordpool_EN.txt	GUARD	3	20	[0, 0, 0]	n/a	FR1	1	R1226D
2491.672	0.967	2535539	WORD_OFF	n/a	n/a	GUARD	3	20	[0, 0, 0]	n/a	FR1	1	R1226D
2492.639	1.601	2536506	WORD	n/a	wordpools/wordpool_EN.txt	VASE	4	20	[0, 0, 0]	n/a	FR1	1	R1226D
2494.24	0.95	2538107	WORD_OFF	n/a	n/a	VASE	4	20	[0, 0, 0]	n/a	FR1	1	R1226D
2495.19	1.616	2539057	WORD	n/a	wordpools/wordpool_EN.txt	SINK	5	20	[0, 0, 0]	n/a	FR1	1	R1226D
2496.806	0.867	2540673	WORD_OFF	n/a	n/a	SINK	5	20	[0, 0, 0]	n/a	FR1	1	R1226D
2497.673	1.617	2541540	WORD	n/a	wordpools/wordpool_EN.txt	ROAD	6	20	[0, 0, 0]	n/a	FR1	1	R1226D
2499.29	0.817	2543157	WORD_OFF	n/a	n/a	ROAD	6	20	[0, 0, 0]	n/a	FR1	1	R1226D
2500.107	1.617	2543974	WORD	n/a	wordpools/wordpool_EN.txt	STOVE	7	20	[0, 0, 0]	n/a	FR1	1	R1226D
2501.724	0.833	2545591	WORD_OFF	n/a	n/a	STOVE	7	20	[0, 0, 0]	n/a	FR1	1	R1226D
2502.557	1.618	2546424	WORD	n/a	wordpools/wordpool_EN.txt	SPONGE	8	20	[0, 0, 0]	n/a	FR1	1	R1226D
2504.175	0.916	2548042	WORD_OFF	n/a	n/a	SPONGE	8	20	[0, 0, 0]	n/a	FR1	1	R1226D
2505.091	1.617	2548958	WORD	n/a	wordpools/wordpool_EN.txt	WAND	9	20	[0, 0, 0]	n/a	FR1	1	R1226D
2506.708	0.934	2550574	WORD_OFF	n/a	n/a	WAND	9	20	[0, 0, 0]	n/a	FR1	1	R1226D
2507.642	1.617	2551508	WORD	n/a	wordpools/wordpool_EN.txt	THREAD	10	20	[0, 0, 0]	n/a	FR1	1	R1226D
2509.259	0.934	2553125	WORD_OFF	n/a	n/a	THREAD	10	20	[0, 0, 0]	n/a	FR1	1	R1226D
2510.193	1.616	2554059	WORD	n/a	wordpools/wordpool_EN.txt	CROW	11	20	[0, 0, 0]	n/a	FR1	1	R1226D
2511.809	0.8	2555675	WORD_OFF	n/a	n/a	CROW	11	20	[0, 0, 0]	n/a	FR1	1	R1226D
2512.609	1.618	2556475	WORD	n/a	wordpools/wordpool_EN.txt	TRUCK	12	20	[0, 0, 0]	n/a	FR1	1	R1226D
2514.227	0.0	2558093	WORD_OFF	n/a	n/a	TRUCK	12	20	[0, 0, 0]	n/a	FR1	1	R1226D
2514.227	0.001	2558093	DISTRACT_START	n/a	n/a	n/a	-999	20	[0, 0, 0]	n/a	FR1	1	R1226D
2514.228	0.016	2558094	START	n/a	n/a	n/a	-999	20	[-999, -999, -999]	n/a	FR1	1	R1226D
2514.244	5.583	2558110	PROB	5.583	n/a	n/a	-999	20	[6, 7, 7]	20	FR1	1	R1226D
2519.827	3.501	2563693	PROB	3.501	n/a	n/a	-999	20	[5, 5, 5]	15	FR1	1	R1226D
2523.328	4.267	2567194	PROB	4.267	n/a	n/a	-999	20	[7, 2, 1]	10	FR1	1	R1226D
2527.595	5.201	2571460	PROB	5.201	n/a	n/a	-999	20	[3, 1, 5]	9	FR1	1	R1226D
2532.796	4.086	2576661	PROB	4.086	n/a	n/a	-999	20	[4, 1, 8]	13	FR1	1	R1226D
2536.882	0.015	2580747	STOP	n/a	n/a	n/a	-999	20	[-999, -999, -999]	n/a	FR1	1	R1226D
2536.897	0.617	2580762	DISTRACT_END	n/a	n/a	n/a	-999	20	[0, 0, 0]	n/a	FR1	1	R1226D
2537.514	0.517	2581379	RETRIEVAL_ORIENT	n/a	n/a	n/a	-999	20	[0, 0, 0]	n/a	FR1	1	R1226D
2538.031	2.093	2581896	REC_START	n/a	n/a	n/a	-999	20	[0, 0, 0]	n/a	FR1	1	R1226D
2540.124	0.736	2583989	REC_WORD_VV	0.736	n/a	<>	-999	20	[0, 0, 0]	n/a	FR1	1	R1226D
2540.86	2.437	2584725	REC_WORD	2.437	n/a	STOVE	7	20	[0, 0, 0]	n/a	FR1	1	R1226D
2543.297	7.239	2587161	REC_WORD	7.239	n/a	LAMP	-999	20	[0, 0, 0]	n/a	FR1	1	R1226D
2550.536	4.298	2594400	REC_WORD_VV	4.298	n/a	<>	-999	20	[0, 0, 0]	n/a	FR1	1	R1226D
2554.834	3.474	2598698	REC_WORD	3.474	n/a	PULSE	-999	20	[0, 0, 0]	n/a	FR1	1	R1226D
2558.308	9.733	2602172	REC_WORD_VV	9.733	n/a	<>	-999	20	[0, 0, 0]	n/a	FR1	1	R1226D
2568.041	6.147	2611904	REC_END	n/a	n/a	n/a	-999	20	[0, 0, 0]	n/a	FR1	1	R1226D
2574.188	0.5	2618051	TRIAL	n/a	n/a	n/a	-999	21	[0, 0, 0]	n/a	FR1	1	R1226D
2574.688	10.428	2618551	COUNTDOWN_START	n/a	n/a	n/a	-999	21	[0, 0, 0]	n/a	FR1	1	R1226D
2585.116	0.007	2628978	COUNTDOWN_END	n/a	n/a	n/a	-999	21	[0, 0, 0]	n/a	FR1	1	R1226D
2585.123	1.616	2628985	ORIENT	n/a	n/a	n/a	-999	21	[0, 0, 0]	n/a	FR1	1	R1226D
2586.739	1.901	2630601	ORIENT_OFF	n/a	n/a	n/a	-999	21	[0, 0, 0]	n/a	FR1	1	R1226D
2588.64	1.617	2632502	WORD	n/a	wordpools/wordpool_EN.txt	STRAW	1	21	[0, 0, 0]	n/a	FR1	1	R1226D
2590.257	0.984	2634119	WORD_OFF	n/a	n/a	STRAW	1	21	[0, 0, 0]	n/a	FR1	1	R1226D
2591.241	1.616	2635103	WORD	n/a	wordpools/wordpool_EN.txt	PIT	2	21	[0, 0, 0]	n/a	FR1	1	R1226D
2592.857	0.85	2636719	WORD_OFF	n/a	n/a	PIT	2	21	[0, 0, 0]	n/a	FR1	1	R1226D
2593.707	1.617	2637569	WORD	n/a	wordpools/wordpool_EN.txt	PEA	3	21	[0, 0, 0]	n/a	FR1	1	R1226D
2595.324	1.0	2639186	WORD_OFF	n/a	n/a	PEA	3	21	[0, 0, 0]	n/a	FR1	1	R1226D
2596.324	1.618	2640186	WORD	n/a	wordpools/wordpool_EN.txt	BAT	4	21	[0, 0, 0]	n/a	FR1	1	R1226D
2597.942	0.816	2641803	WORD_OFF	n/a	n/a	BAT	4	21	[0, 0, 0]	n/a	FR1	1	R1226D
2598.758	1.617	2642619	WORD	n/a	wordpools/wordpool_EN.txt	FOG	5	21	[0, 0, 0]	n/a	FR1	1	R1226D
2600.375	0.835	2644236	WORD_OFF	n/a	n/a	FOG	5	21	[0, 0, 0]	n/a	FR1	1	R1226D
2601.21	1.616	2645071	WORD	n/a	wordpools/wordpool_EN.txt	CORD	6	21	[0, 0, 0]	n/a	FR1	1	R1226D
2602.826	0.867	2646687	WORD_OFF	n/a	n/a	CORD	6	21	[0, 0, 0]	n/a	FR1	1	R1226D
2603.693	1.617	2647554	WORD	n/a	wordpools/wordpool_EN.txt	SOUP	7	21	[0, 0, 0]	n/a	FR1	1	R1226D
2605.31	0.867	2649171	WORD_OFF	n/a	n/a	SOUP	7	21	[0, 0, 0]	n/a	FR1	1	R1226D
2606.177	1.616	2650038	WORD	n/a	wordpools/wordpool_EN.txt	POOL	8	21	[0, 0, 0]	n/a	FR1	1	R1226D
2607.793	0.884	2651654	WORD_OFF	n/a	n/a	POOL	8	21	[0, 0, 0]	n/a	FR1	1	R1226D
2608.677	1.617	2652538	WORD	n/a	wordpools/wordpool_EN.txt	NOSE	9	21	[0, 0, 0]	n/a	FR1	1	R1226D
2610.294	0.867	2654155	WORD_OFF	n/a	n/a	NOSE	9	21	[0, 0, 0]	n/a	FR1	1	R1226D
2611.161	1.616	2655022	WORD	n/a	wordpools/wordpool_EN.txt	SKI	10	21	[0, 0, 0]	n/a	FR1	1	R1226D
2612.777	0.834	2656638	WORD_OFF	n/a	n/a	SKI	10	21	[0, 0, 0]	n/a	FR1	1	R1226D
2613.611	1.618	2657472	WORD	n/a	wordpools/wordpool_EN.txt	CASH	11	21	[0, 0, 0]	n/a	FR1	1	R1226D
2615.229	0.983	2659090	WORD_OFF	n/a	n/a	CASH	11	21	[0, 0, 0]	n/a	FR1	1	R1226D
2616.212	1.617	2660072	WORD	n/a	wordpools/wordpool_EN.txt	NET	12	21	[0, 0, 0]	n/a	FR1	1	R1226D
2617.829	0.0	2661689	WORD_OFF	n/a	n/a	NET	12	21	[0, 0, 0]	n/a	FR1	1	R1226D
2617.829	0.0	2661689	DISTRACT_START	n/a	n/a	n/a	-999	21	[0, 0, 0]	n/a	FR1	1	R1226D
2617.829	0.016	2661689	START	n/a	n/a	n/a	-999	21	[-999, -999, -999]	n/a	FR1	1	R1226D
2617.845	7.151	2661705	PROB	7.151	n/a	n/a	-999	21	[4, 3, 1]	8	FR1	1	R1226D
2624.996	8.019	2668856	PROB	8.019	n/a	n/a	-999	21	[4, 3, 5]	10	FR1	1	R1226D
2633.015	5.634	2676875	PROB	5.634	n/a	n/a	-999	21	[2, 4, 7]	13	FR1	1	R1226D
2638.649	0.017	2682508	STOP	n/a	n/a	n/a	-999	21	[-999, -999, -999]	n/a	FR1	1	R1226D
2638.666	0.551	2682525	DISTRACT_END	n/a	n/a	n/a	-999	21	[0, 0, 0]	n/a	FR1	1	R1226D
2639.217	0.516	2683076	RETRIEVAL_ORIENT	n/a	n/a	n/a	-999	21	[0, 0, 0]	n/a	FR1	1	R1226D
2639.733	2.608	2683592	REC_START	n/a	n/a	n/a	-999	21	[0, 0, 0]	n/a	FR1	1	R1226D
2642.341	1.741	2686200	REC_WORD	1.741	n/a	PIT	2	21	[0, 0, 0]	n/a	FR1	1	R1226D
2644.082	1.897	2687941	REC_WORD	1.897	n/a	PEA	3	21	[0, 0, 0]	n/a	FR1	1	R1226D
2645.979	2.03	2689838	REC_WORD	2.03	n/a	RACK	-999	21	[0, 0, 0]	n/a	FR1	1	R1226D
2648.009	2.36	2691868	REC_WORD	2.36	n/a	FOG	5	21	[0, 0, 0]	n/a	FR1	1	R1226D
2650.369	2.415	2694228	REC_WORD	2.415	n/a	NOSE	9	21	[0, 0, 0]	n/a	FR1	1	R1226D
2652.784	16.961	2696642	REC_WORD	16.961	n/a	SKI	10	21	[0, 0, 0]	n/a	FR1	1	R1226D
2669.745	5.111	2713603	REC_END	n/a	n/a	n/a	-999	21	[0, 0, 0]	n/a	FR1	1	R1226D
2674.856	0.5	2718713	TRIAL	n/a	n/a	n/a	-999	22	[0, 0, 0]	n/a	FR1	1	R1226D
2675.356	10.428	2719213	COUNTDOWN_START	n/a	n/a	n/a	-999	22	[0, 0, 0]	n/a	FR1	1	R1226D
2685.784	0.007	2729641	COUNTDOWN_END	n/a	n/a	n/a	-999	22	[0, 0, 0]	n/a	FR1	1	R1226D
2685.791	1.617	2729648	ORIENT	n/a	n/a	n/a	-999	22	[0, 0, 0]	n/a	FR1	1	R1226D
2687.408	1.95	2731265	ORIENT_OFF	n/a	n/a	n/a	-999	22	[0, 0, 0]	n/a	FR1	1	R1226D
2689.358	1.617	2733214	WORD	n/a	wordpools/wordpool_EN.txt	SHEEP	1	22	[0, 0, 0]	n/a	FR1	1	R1226D
2690.975	0.95	2734831	WORD_OFF	n/a	n/a	SHEEP	1	22	[0, 0, 0]	n/a	FR1	1	R1226D
2691.925	1.617	2735781	WORD	n/a	wordpools/wordpool_EN.txt	GOLD	2	22	[0, 0, 0]	n/a	FR1	1	R1226D
2693.542	0.867	2737398	WORD_OFF	n/a	n/a	GOLD	2	22	[0, 0, 0]	n/a	FR1	1	R1226D
2694.409	1.617	2738265	WORD	n/a	wordpools/wordpool_EN.txt	TOAST	3	22	[0, 0, 0]	n/a	FR1	1	R1226D
2696.026	1.0	2739882	WORD_OFF	n/a	n/a	TOAST	3	22	[0, 0, 0]	n/a	FR1	1	R1226D
2697.026	1.617	2740882	WORD	n/a	wordpools/wordpool_EN.txt	LEAF	4	22	[0, 0, 0]	n/a	FR1	1	R1226D
2698.643	0.85	2742499	WORD_OFF	n/a	n/a	LEAF	4	22	[0, 0, 0]	n/a	FR1	1	R1226D
2699.493	1.617	2743349	WORD	n/a	wordpools/wordpool_EN.txt	CHEEK	5	22	[0, 0, 0]	n/a	FR1	1	R1226D
2701.11	1.001	2744966	WORD_OFF	n/a	n/a	CHEEK	5	22	[0, 0, 0]	n/a	FR1	1	R1226D
2702.111	1.616	2745967	WORD	n/a	wordpools/wordpool_EN.txt	PEARL	6	22	[0, 0, 0]	n/a	FR1	1	R1226D
2703.727	0.951	2747583	WORD_OFF	n/a	n/a	PEARL	6	22	[0, 0, 0]	n/a	FR1	1	R1226D
2704.678	1.617	2748534	WORD	n/a	wordpools/wordpool_EN.txt	TRASH	7	22	[0, 0, 0]	n/a	FR1	1	R1226D
2706.295	0.766	2750151	WORD_OFF	n/a	n/a	TRASH	7	22	[0, 0, 0]	n/a	FR1	1	R1226D
2707.061	1.617	2750916	WORD	n/a	wordpools/wordpool_EN.txt	MOLE	8	22	[0, 0, 0]	n/a	FR1	1	R1226D
2708.678	0.951	2752533	WORD_OFF	n/a	n/a	MOLE	8	22	[0, 0, 0]	n/a	FR1	1	R1226D
2709.629	1.618	2753484	WORD	n/a	wordpools/wordpool_EN.txt	ZOO	9	22	[0, 0, 0]	n/a	FR1	1	R1226D
2711.247	0.866	2755102	WORD_OFF	n/a	n/a	ZOO	9	22	[0, 0, 0]	n/a	FR1	1	R1226D
2712.113	1.616	2755968	WORD	n/a	wordpools/wordpool_EN.txt	TEETH	10	22	[0, 0, 0]	n/a	FR1	1	R1226D
2713.729	1.017	2757584	WORD_OFF	n/a	n/a	TEETH	10	22	[0, 0, 0]	n/a	FR1	1	R1226D
2714.746	1.617	2758601	WORD	n/a	wordpools/wordpool_EN.txt	KEY	11	22	[0, 0, 0]	n/a	FR1	1	R1226D
2716.363	0.868	2760218	WORD_OFF	n/a	n/a	KEY	11	22	[0, 0, 0]	n/a	FR1	1	R1226D
2717.231	1.616	2761086	WORD	n/a	wordpools/wordpool_EN.txt	DART	12	22	[0, 0, 0]	n/a	FR1	1	R1226D
2718.847	0.0	2762702	WORD_OFF	n/a	n/a	DART	12	22	[0, 0, 0]	n/a	FR1	1	R1226D
2718.847	0.001	2762702	DISTRACT_START	n/a	n/a	n/a	-999	22	[0, 0, 0]	n/a	FR1	1	R1226D
2718.848	0.016	2762703	START	n/a	n/a	n/a	-999	22	[-999, -999, -999]	n/a	FR1	1	R1226D
2718.864	8.168	2762719	PROB	8.168	n/a	n/a	-999	22	[9, 5, 6]	20	FR1	1	R1226D
2727.032	5.118	2770886	PROB	5.118	n/a	n/a	-999	22	[9, 4, 3]	16	FR1	1	R1226D
2732.15	7.443	2776004	PROB	7.443	n/a	n/a	-999	22	[8, 6, 4]	18	FR1	1	R1226D
2739.593	0.008	2783447	STOP	n/a	n/a	n/a	-999	22	[-999, -999, -999]	n/a	FR1	1	R1226D
2739.601	0.567	2783455	DISTRACT_END	n/a	n/a	n/a	-999	22	[0, 0, 0]	n/a	FR1	1	R1226D
2740.168	0.517	2784022	RETRIEVAL_ORIENT	n/a	n/a	n/a	-999	22	[0, 0, 0]	n/a	FR1	1	R1226D
2740.685	2.533	2784539	REC_START	n/a	n/a	n/a	-999	22	[0, 0, 0]	n/a	FR1	1	R1226D
2743.218	2.024	2787071	REC_WORD	2.024	n/a	SLEEP	-999	22	[0, 0, 0]	n/a	FR1	1	R1226D
2745.242	2.233	2789095	REC_WORD	2.233	n/a	CHEEK	5	22	[0, 0, 0]	n/a	FR1	1	R1226D
2747.475	2.544	2791328	REC_WORD	2.544	n/a	GOLD	2	22	[0, 0, 0]	n/a	FR1	1	R1226D
2750.019	6.105	2793872	REC_WORD	6.105	n/a	LEAF	4	22	[0, 0, 0]	n/a	FR1	1	R1226D
2756.124	0.43	2799977	REC_WORD_VV	0.43	n/a	<>	-999	22	[0, 0, 0]	n/a	FR1	1	R1226D
2756.554	3.526	2800407	REC_WORD	3.526	n/a	SKI	-999	22	[0, 0, 0]	n/a	FR1	1	R1226D
2760.08	6.325	2803933	REC_WORD	6.325	n/a	HOLE	-999	22	[0, 0, 0]	n/a	FR1	1	R1226D
2766.405	3.258	2810257	REC_WORD	3.258	n/a	GOAT	-999	22	[0, 0, 0]	n/a	FR1	1	R1226D
2769.663	1.034	2813515	REC_WORD	1.034	n/a	STREET	-999	22	[0, 0, 0]	n/a	FR1	1	R1226D
2770.697	6.561	2814549	REC_END	n/a	n/a	n/a	-999	22	[0, 0, 0]	n/a	FR1	1	R1226D
2777.258	0.5	2821110	TRIAL	n/a	n/a	n/a	-999	23	[0, 0, 0]	n/a	FR1	1	R1226D
2777.758	10.428	2821610	COUNTDOWN_START	n/a	n/a	n/a	-999	23	[0, 0, 0]	n/a	FR1	1	R1226D
2788.186	0.008	2832037	COUNTDOWN_END	n/a	n/a	n/a	-999	23	[0, 0, 0]	n/a	FR1	1	R1226D
2788.194	1.616	2832045	ORIENT	n/a	n/a	n/a	-999	23	[0, 0, 0]	n/a	FR1	1	R1226D
2789.81	1.934	2833661	ORIENT_OFF	n/a	n/a	n/a	-999	23	[0, 0, 0]	n/a	FR1	1	R1226D
2791.744	1.617	2835595	WORD	n/a	wordpools/wordpool_EN.txt	BAND	1	23	[0, 0, 0]	n/a	FR1	1	R1226D
2793.361	0.884	2837212	WORD_OFF	n/a	n/a	BAND	1	23	[0, 0, 0]	n/a	FR1	1	R1226D
2794.245	1.616	2838096	WORD	n/a	wordpools/wordpool_EN.txt	SHIRT	2	23	[0, 0, 0]	n/a	FR1	1	R1226D
2795.861	0.884	2839712	WORD_OFF	n/a	n/a	SHIRT	2	23	[0, 0, 0]	n/a	FR1	1	R1226D
2796.745	1.617	2840596	WORD	n/a	wordpools/wordpool_EN.txt	BOARD	3	23	[0, 0, 0]	n/a	FR1	1	R1226D
2798.362	0.851	2842212	WORD_OFF	n/a	n/a	BOARD	3	23	[0, 0, 0]	n/a	FR1	1	R1226D
2799.213	1.616	2843063	WORD	n/a	wordpools/wordpool_EN.txt	BOY	4	23	[0, 0, 0]	n/a	FR1	1	R1226D
2800.829	0.933	2844679	WORD_OFF	n/a	n/a	BOY	4	23	[0, 0, 0]	n/a	FR1	1	R1226D
2801.762	1.617	2845612	WORD	n/a	wordpools/wordpool_EN.txt	LAKE	5	23	[0, 0, 0]	n/a	FR1	1	R1226D
2803.379	0.967	2847229	WORD_OFF	n/a	n/a	LAKE	5	23	[0, 0, 0]	n/a	FR1	1	R1226D
2804.346	1.617	2848196	WORD	n/a	wordpools/wordpool_EN.txt	BOAT	6	23	[0, 0, 0]	n/a	FR1	1	R1226D
2805.963	0.983	2849813	WORD_OFF	n/a	n/a	BOAT	6	23	[0, 0, 0]	n/a	FR1	1	R1226D
2806.946	1.617	2850796	WORD	n/a	wordpools/wordpool_EN.txt	JUICE	7	23	[0, 0, 0]	n/a	FR1	1	R1226D
2808.563	0.934	2852413	WORD_OFF	n/a	n/a	JUICE	7	23	[0, 0, 0]	n/a	FR1	1	R1226D
2809.497	1.618	2853347	WORD	n/a	wordpools/wordpool_EN.txt	SLUSH	8	23	[0, 0, 0]	n/a	FR1	1	R1226D
2811.115	0.799	2854965	WORD_OFF	n/a	n/a	SLUSH	8	23	[0, 0, 0]	n/a	FR1	1	R1226D
2811.914	1.617	2855764	WORD	n/a	wordpools/wordpool_EN.txt	SHEET	9	23	[0, 0, 0]	n/a	FR1	1	R1226D
2813.531	0.783	2857381	WORD_OFF	n/a	n/a	SHEET	9	23	[0, 0, 0]	n/a	FR1	1	R1226D
2814.314	1.617	2858164	WORD	n/a	wordpools/wordpool_EN.txt	CLOCK	10	23	[0, 0, 0]	n/a	FR1	1	R1226D
2815.931	0.801	2859780	WORD_OFF	n/a	n/a	CLOCK	10	23	[0, 0, 0]	n/a	FR1	1	R1226D
2816.732	1.617	2860581	WORD	n/a	wordpools/wordpool_EN.txt	STEAK	11	23	[0, 0, 0]	n/a	FR1	1	R1226D
2818.349	0.901	2862198	WORD_OFF	n/a	n/a	STEAK	11	23	[0, 0, 0]	n/a	FR1	1	R1226D
2819.25	1.616	2863099	WORD	n/a	wordpools/wordpool_EN.txt	PASTE	12	23	[0, 0, 0]	n/a	FR1	1	R1226D
2820.866	0.0	2864715	WORD_OFF	n/a	n/a	PASTE	12	23	[0, 0, 0]	n/a	FR1	1	R1226D
2820.866	0.0	2864715	DISTRACT_START	n/a	n/a	n/a	-999	23	[0, 0, 0]	n/a	FR1	1	R1226D
2820.866	0.016	2864715	START	n/a	n/a	n/a	-999	23	[-999, -999, -999]	n/a	FR1	1	R1226D
2820.882	5.201	2864731	PROB	5.201	n/a	n/a	-999	23	[2, 5, 3]	10	FR1	1	R1226D
2826.083	5.485	2869932	PROB	5.485	n/a	n/a	-999	23	[3, 3, 7]	13	FR1	1	R1226D
2831.568	4.05	2875417	PROB	4.05	n/a	n/a	-999	23	[1, 7, 3]	11	FR1	1	R1226D
2835.618	4.519	2879466	PROB	4.519	n/a	n/a	-999	23	[4, 7, 6]	17	FR1	1	R1226D
2840.137	4.601	2883985	PROB	4.601	n/a	n/a	-999	23	[7, 3, 8]	18	FR1	1	R1226D
2844.738	0.015	2888586	STOP	n/a	n/a	n/a	-999	23	[-999, -999, -999]	n/a	FR1	1	R1226D
2844.753	0.584	2888601	DISTRACT_END	n/a	n/a	n/a	-999	23	[0, 0, 0]	n/a	FR1	1	R1226D
2845.337	0.517	2889185	RETRIEVAL_ORIENT	n/a	n/a	n/a	-999	23	[0, 0, 0]	n/a	FR1	1	R1226D
2845.854	4.169	2889702	REC_START	n/a	n/a	n/a	-999	23	[0, 0, 0]	n/a	FR1	1	R1226D
2850.023	1.643	2893871	REC_WORD	1.643	n/a	CRUEL	-999	23	[0, 0, 0]	n/a	FR1	1	R1226D
2851.666	2.984	2895514	REC_WORD	2.984	n/a	BAND	1	23	[0, 0, 0]	n/a	FR1	1	R1226D
2854.65	2.069	2898497	REC_WORD	2.069	n/a	BOY	4	23	[0, 0, 0]	n/a	FR1	1	R1226D
2856.719	5.77	2900566	REC_WORD	5.77	n/a	STEAK	11	23	[0, 0, 0]	n/a	FR1	1	R1226D
2862.489	4.585	2906336	REC_WORD	4.585	n/a	BOAT	6	23	[0, 0, 0]	n/a	FR1	1	R1226D
2867.074	5.377	2910921	REC_WORD	5.377	n/a	POND	-999	23	[0, 0, 0]	n/a	FR1	1	R1226D
2872.451	3.414	2916297	REC_WORD	3.414	n/a	SCHOOL	-999	23	[0, 0, 0]	n/a	FR1	1	R1226D
2875.865	5.862	2919711	REC_END	n/a	n/a	n/a	-999	23	[0, 0, 0]	n/a	FR1	1	R1226D
2881.727	0.5	2925573	TRIAL	n/a	n/a	n/a	-999	24	[0, 0, 0]	n/a	FR1	1	R1226D
2882.227	10.428	2926073	COUNTDOWN_START	n/a	n/a	n/a	-999	24	[0, 0, 0]	n/a	FR1	1	R1226D
2892.655	0.007	2936500	COUNTDOWN_END	n/a	n/a	n/a	-999	24	[0, 0, 0]	n/a	FR1	1	R1226D
2892.662	1.617	2936507	ORIENT	n/a	n/a	n/a	-999	24	[0, 0, 0]	n/a	FR1	1	R1226D
2894.279	2.284	2938124	ORIENT_OFF	n/a	n/a	n/a	-999	24	[0, 0, 0]	n/a	FR1	1	R1226D
2896.563	1.618	2940408	WORD	n/a	wordpools/wordpool_EN.txt	TENT	1	24	[0, 0, 0]	n/a	FR1	1	R1226D
2898.181	0.832	2942026	WORD_OFF	n/a	n/a	TENT	1	24	[0, 0, 0]	n/a	FR1	1	R1226D
2899.013	1.617	2942858	WORD	n/a	wordpools/wordpool_EN.txt	DITCH	2	24	[0, 0, 0]	n/a	FR1	1	R1226D
2900.63	0.934	2944475	WORD_OFF	n/a	n/a	DITCH	2	24	[0, 0, 0]	n/a	FR1	1	R1226D
2901.564	1.618	2945409	WORD	n/a	wordpools/wordpool_EN.txt	CANE	3	24	[0, 0, 0]	n/a	FR1	1	R1226D
2903.182	0.866	2947027	WORD_OFF	n/a	n/a	CANE	3	24	[0, 0, 0]	n/a	FR1	1	R1226D
2904.048	1.617	2947893	WORD	n/a	wordpools/wordpool_EN.txt	STORE	4	24	[0, 0, 0]	n/a	FR1	1	R1226D
2905.665	0.816	2949510	WORD_OFF	n/a	n/a	STORE	4	24	[0, 0, 0]	n/a	FR1	1	R1226D
2906.481	1.617	2950326	WORD	n/a	wordpools/wordpool_EN.txt	FLEA	5	24	[0, 0, 0]	n/a	FR1	1	R1226D
2908.098	0.8	2951942	WORD_OFF	n/a	n/a	FLEA	5	24	[0, 0, 0]	n/a	FR1	1	R1226D
2908.898	1.617	2952742	WORD	n/a	wordpools/wordpool_EN.txt	STONE	6	24	[0, 0, 0]	n/a	FR1	1	R1226D
2910.515	0.834	2954359	WORD_OFF	n/a	n/a	STONE	6	24	[0, 0, 0]	n/a	FR1	1	R1226D
2911.349	1.617	2955193	WORD	n/a	wordpools/wordpool_EN.txt	INK	7	24	[0, 0, 0]	n/a	FR1	1	R1226D
2912.966	0.883	2956810	WORD_OFF	n/a	n/a	INK	7	24	[0, 0, 0]	n/a	FR1	1	R1226D
2913.849	1.617	2957693	WORD	n/a	wordpools/wordpool_EN.txt	FLUTE	8	24	[0, 0, 0]	n/a	FR1	1	R1226D
2915.466	0.917	2959310	WORD_OFF	n/a	n/a	FLUTE	8	24	[0, 0, 0]	n/a	FR1	1	R1226D
2916.383	1.617	2960227	WORD	n/a	wordpools/wordpool_EN.txt	SWORD	9	24	[0, 0, 0]	n/a	FR1	1	R1226D
2918.0	0.95	2961844	WORD_OFF	n/a	n/a	SWORD	9	24	[0, 0, 0]	n/a	FR1	1	R1226D
2918.95	1.617	2962794	WORD	n/a	wordpools/wordpool_EN.txt	STOOL	10	24	[0, 0, 0]	n/a	FR1	1	R1226D
2920.567	0.784	2964411	WORD_OFF	n/a	n/a	STOOL	10	24	[0, 0, 0]	n/a	FR1	1	R1226D
2921.351	1.617	2965195	WORD	n/a	wordpools/wordpool_EN.txt	WALL	11	24	[0, 0, 0]	n/a	FR1	1	R1226D
2922.968	0.833	2966812	WORD_OFF	n/a	n/a	WALL	11	24	[0, 0, 0]	n/a	FR1	1	R1226D
2923.801	1.617	2967645	WORD	n/a	wordpools/wordpool_EN.txt	CHAIR	12	24	[0, 0, 0]	n/a	FR1	1	R1226D
2925.418	0.0	2969261	WORD_OFF	n/a	n/a	CHAIR	12	24	[0, 0, 0]	n/a	FR1	1	R1226D
2925.418	0.001	2969261	DISTRACT_START	n/a	n/a	n/a	-999	24	[0, 0, 0]	n/a	FR1	1	R1226D
2925.419	0.016	2969262	START	n/a	n/a	n/a	-999	24	[-999, -999, -999]	n/a	FR1	1	R1226D
2925.435	5.134	2969278	PROB	5.134	n/a	n/a	-999	24	[4, 5, 3]	12	FR1	1	R1226D
2930.569	3.517	2974412	PROB	3.517	n/a	n/a	-999	24	[1, 7, 4]	12	FR1	1	R1226D
2934.086	5.768	2977929	PROB	5.768	n/a	n/a	-999	24	[6, 9, 2]	18	FR1	1	R1226D
2939.854	7.196	2983697	PROB	7.196	n/a	n/a	-999	24	[5, 9, 9]	23	FR1	1	R1226D
2947.05	0.005	2990892	STOP	n/a	n/a	n/a	-999	24	[-999, -999, -999]	n/a	FR1	1	R1226D
2947.055	0.55	2990897	DISTRACT_END	n/a	n/a	n/a	-999	24	[0, 0, 0]	n/a	FR1	1	R1226D
2947.605	0.519	2991447	RETRIEVAL_ORIENT	n/a	n/a	n/a	-999	24	[0, 0, 0]	n/a	FR1	1	R1226D
2948.124	1.75	2991966	REC_START	n/a	n/a	n/a	-999	24	[0, 0, 0]	n/a	FR1	1	R1226D
2949.874	2.795	2993716	REC_WORD	2.795	n/a	CANE	3	24	[0, 0, 0]	n/a	FR1	1	R1226D
2952.669	12.963	2996511	REC_WORD	12.963	n/a	STICK	-999	24	[0, 0, 0]	n/a	FR1	1	R1226D
2965.632	9.93	3009473	REC_WORD	9.93	n/a	WALL	11	24	[0, 0, 0]	n/a	FR1	1	R1226D
2975.562	2.574	3019403	REC_WORD	2.574	n/a	CANDY	-999	24	[0, 0, 0]	n/a	FR1	1	R1226D
2978.136	6.893	3021977	REC_END	n/a	n/a	n/a	-999	24	[0, 0, 0]	n/a	FR1	1	R1226D
2985.029	0.5	3028869	TRIAL	n/a	n/a	n/a	-999	25	[0, 0, 0]	n/a	FR1	1	R1226D
2985.529	10.428	3029369	COUNTDOWN_START	n/a	n/a	n/a	-999	25	[0, 0, 0]	n/a	FR1	1	R1226D
2995.957	0.007	3039797	COUNTDOWN_END	n/a	n/a	n/a	-999	25	[0, 0, 0]	n/a	FR1	1	R1226D
2995.964	1.617	3039804	ORIENT	n/a	n/a	n/a	-999	25	[0, 0, 0]	n/a	FR1	1	R1226D
2997.581	2.351	3041421	ORIENT_OFF	n/a	n/a	n/a	-999	25	[0, 0, 0]	n/a	FR1	1	R1226D
2999.932	1.617	3043771	WORD	n/a	wordpools/wordpool_EN.txt	LIP	1	25	[0, 0, 0]	n/a	FR1	1	R1226D
3001.549	0.9	3045388	WORD_OFF	n/a	n/a	LIP	1	25	[0, 0, 0]	n/a	FR1	1	R1226D
3002.449	1.617	3046288	WORD	n/a	wordpools/wordpool_EN.txt	MOTH	2	25	[0, 0, 0]	n/a	FR1	1	R1226D
3004.066	0.983	3047905	WORD_OFF	n/a	n/a	MOTH	2	25	[0, 0, 0]	n/a	FR1	1	R1226D
3005.049	1.617	3048888	WORD	n/a	wordpools/wordpool_EN.txt	OAR	3	25	[0, 0, 0]	n/a	FR1	1	R1226D
3006.666	0.95	3050505	WORD_OFF	n/a	n/a	OAR	3	25	[0, 0, 0]	n/a	FR1	1	R1226D
3007.616	1.618	3051455	WORD	n/a	wordpools/wordpool_EN.txt	TRAY	4	25	[0, 0, 0]	n/a	FR1	1	R1226D
3009.234	0.967	3053073	WORD_OFF	n/a	n/a	TRAY	4	25	[0, 0, 0]	n/a	FR1	1	R1226D
3010.201	1.616	3054040	WORD	n/a	wordpools/wordpool_EN.txt	FLAME	5	25	[0, 0, 0]	n/a	FR1	1	R1226D
3011.817	0.834	3055656	WORD_OFF	n/a	n/a	FLAME	5	25	[0, 0, 0]	n/a	FR1	1	R1226D
3012.651	1.617	3056490	WORD	n/a	wordpools/wordpool_EN.txt	TREE	6	25	[0, 0, 0]	n/a	FR1	1	R1226D
3014.268	0.851	3058107	WORD_OFF	n/a	n/a	TREE	6	25	[0, 0, 0]	n/a	FR1	1	R1226D
3015.119	1.616	3058958	WORD	n/a	wordpools/wordpool_EN.txt	STAIR	7	25	[0, 0, 0]	n/a	FR1	1	R1226D
3016.735	0.883	3060573	WORD_OFF	n/a	n/a	STAIR	7	25	[0, 0, 0]	n/a	FR1	1	R1226D
3017.618	1.601	3061456	WORD	n/a	wordpools/wordpool_EN.txt	SHOE	8	25	[0, 0, 0]	n/a	FR1	1	R1226D
3019.219	0.934	3063057	WORD_OFF	n/a	n/a	SHOE	8	25	[0, 0, 0]	n/a	FR1	1	R1226D
3020.153	1.616	3063991	WORD	n/a	wordpools/wordpool_EN.txt	CAGE	9	25	[0, 0, 0]	n/a	FR1	1	R1226D
3021.769	0.95	3065607	WORD_OFF	n/a	n/a	CAGE	9	25	[0, 0, 0]	n/a	FR1	1	R1226D
3022.719	1.617	3066557	WORD	n/a	wordpools/wordpool_EN.txt	SPOON	10	25	[0, 0, 0]	n/a	FR1	1	R1226D
3024.336	0.967	3068174	WORD_OFF	n/a	n/a	SPOON	10	25	[0, 0, 0]	n/a	FR1	1	R1226D
3025.303	1.617	3069141	WORD	n/a	wordpools/wordpool_EN.txt	ROOM	11	25	[0, 0, 0]	n/a	FR1	1	R1226D
3026.92	0.783	3070758	WORD_OFF	n/a	n/a	ROOM	11	25	[0, 0, 0]	n/a	FR1	1	R1226D
3027.703	1.617	3071541	WORD	n/a	wordpools/wordpool_EN.txt	BENCH	12	25	[0, 0, 0]	n/a	FR1	1	R1226D
3029.32	0.0	3073158	WORD_OFF	n/a	n/a	BENCH	12	25	[0, 0, 0]	n/a	FR1	1	R1226D
3029.32	0.001	3073158	DISTRACT_START	n/a	n/a	n/a	-999	25	[0, 0, 0]	n/a	FR1	1	R1226D
3029.321	0.016	3073159	START	n/a	n/a	n/a	-999	25	[-999, -999, -999]	n/a	FR1	1	R1226D
3029.337	7.268	3073175	PROB	7.268	n/a	n/a	-999	25	[4, 5, 9]	18	FR1	1	R1226D
3036.605	3.535	3080442	PROB	3.535	n/a	n/a	-999	25	[9, 9, 4]	22	FR1	1	R1226D
3040.14	7.567	3083977	PROB	7.567	n/a	n/a	-999	25	[3, 3, 5]	11	FR1	1	R1226D
3047.707	3.709	3091544	PROB	3.709	n/a	n/a	-999	25	[3, 2, 7]	12	FR1	1	R1226D
3051.416	0.008	3095253	STOP	n/a	n/a	n/a	-999	25	[-999, -999, -999]	n/a	FR1	1	R1226D
3051.424	0.567	3095261	DISTRACT_END	n/a	n/a	n/a	-999	25	[0, 0, 0]	n/a	FR1	1	R1226D
3051.991	0.518	3095828	RETRIEVAL_ORIENT	n/a	n/a	n/a	-999	25	[0, 0, 0]	n/a	FR1	1	R1226D
3052.509	3.714	3096345	REC_START	n/a	n/a	n/a	-999	25	[0, 0, 0]	n/a	FR1	1	R1226D
3056.223	2.111	3100059	REC_WORD	2.111	n/a	SCHOOL	-999	25	[0, 0, 0]	n/a	FR1	1	R1226D
3058.334	1.891	3102170	REC_WORD	1.891	n/a	LIP	1	25	[0, 0, 0]	n/a	FR1	1	R1226D
3060.225	3.423	3104061	REC_WORD	3.423	n/a	CAGE	9	25	[0, 0, 0]	n/a	FR1	1	R1226D
3063.648	3.225	3107484	REC_WORD_VV	3.225	n/a	<>	-999	25	[0, 0, 0]	n/a	FR1	1	R1226D
3066.873	2.55	3110709	REC_WORD	2.55	n/a	ROOM	11	25	[0, 0, 0]	n/a	FR1	1	R1226D
3069.423	0.603	3113259	REC_WORD_VV	0.603	n/a	<>	-999	25	[0, 0, 0]	n/a	FR1	1	R1226D
3070.026	7.497	3113862	REC_WORD	7.497	n/a	OAR	3	25	[0, 0, 0]	n/a	FR1	1	R1226D
3077.523	1.864	3121358	REC_WORD	1.864	n/a	KITCHEN	-999	25	[0, 0, 0]	n/a	FR1	1	R1226D
3079.387	3.132	3123222	REC_WORD	3.132	n/a	TREE	6	25	[0, 0, 0]	n/a	FR1	1	R1226D
3082.519	0.0	3126354	REC_END	n/a	n/a	n/a	-999	25	[0, 0, 0]	n/a	FR1	1	R1226D
