onset	duration	sample	trial_type	response_time	stim_file	item_name	serialpos	list	test	answer	experiment	session	subject
0.0	19.32	190631	SESS_START	n/a	n/a	n/a	-999	-999	[0, 0, 0]	n/a	FR1	3	R1121M
19.32	0.0	200290	TRIAL	n/a	n/a	n/a	-999	6	[0, 0, 0]	n/a	FR1	3	R1121M
19.32	10.428	200290	COUNTDOWN_START	n/a	n/a	n/a	-999	6	[0, 0, 0]	n/a	FR1	3	R1121M
29.748	0.007	205503	COUNTDOWN_END	n/a	n/a	n/a	-999	6	[0, 0, 0]	n/a	FR1	3	R1121M
29.755	2.601	205507	ORIENT	n/a	n/a	n/a	-999	6	[0, 0, 0]	n/a	FR1	3	R1121M
32.356	2.5	206807	WORD	n/a	wordpools/wordpool_EN.txt	BRICK	1	6	[0, 0, 0]	n/a	FR1	3	R1121M
34.856	2.434	208057	WORD	n/a	wordpools/wordpool_EN.txt	MAIL	2	6	[0, 0, 0]	n/a	FR1	3	R1121M
37.29	2.567	209274	WORD	n/a	wordpools/wordpool_EN.txt	FILM	3	6	[0, 0, 0]	n/a	FR1	3	R1121M
39.857	2.517	210557	WORD	n/a	wordpools/wordpool_EN.txt	JUDGE	4	6	[0, 0, 0]	n/a	FR1	3	R1121M
42.374	2.534	211816	WORD	n/a	wordpools/wordpool_EN.txt	DOOR	5	6	[0, 0, 0]	n/a	FR1	3	R1121M
44.908	2.567	213083	WORD	n/a	wordpools/wordpool_EN.txt	CAR	6	6	[0, 0, 0]	n/a	FR1	3	R1121M
47.475	2.585	214366	WORD	n/a	wordpools/wordpool_EN.txt	BOOK	7	6	[0, 0, 0]	n/a	FR1	3	R1121M
50.06	2.616	215659	WORD	n/a	wordpools/wordpool_EN.txt	KITE	8	6	[0, 0, 0]	n/a	FR1	3	R1121M
52.676	2.385	216966	WORD	n/a	wordpools/wordpool_EN.txt	INK	9	6	[0, 0, 0]	n/a	FR1	3	R1121M
55.061	2.4	218159	WORD	n/a	wordpools/wordpool_EN.txt	SKI	10	6	[0, 0, 0]	n/a	FR1	3	R1121M
57.461	2.535	219359	WORD	n/a	wordpools/wordpool_EN.txt	BANK	11	6	[0, 0, 0]	n/a	FR1	3	R1121M
59.996	1.616	220626	WORD	n/a	wordpools/wordpool_EN.txt	JAIL	12	6	[0, 0, 0]	n/a	FR1	3	R1121M
61.612	0.0	221434	DISTRACT_START	n/a	n/a	n/a	-999	6	[0, 0, 0]	n/a	FR1	3	R1121M
61.612	0.016	221434	START	n/a	n/a	n/a	-999	1	[-999, -999, -999]	n/a	FR1	3	R1121M
61.628	9.785	221442	PROB	9.785	n/a	n/a	-999	1	[5, 6, 2]	11	FR1	3	R1121M
71.413	8.185	226334	PROB	8.185	n/a	n/a	-999	1	[6, 9, 7]	9	FR1	3	R1121M
79.598	2.75	230426	PROB	2.75	n/a	n/a	-999	1	[7, 5, 4]	9	FR1	3	R1121M
82.348	0.017	231801	STOP	n/a	n/a	n/a	-999	1	[-999, -999, -999]	n/a	FR1	3	R1121M
82.365	1.102	231810	DISTRACT_END	n/a	n/a	n/a	-999	6	[0, 0, 0]	n/a	FR1	3	R1121M
83.467	0.78	232361	REC_START	n/a	n/a	n/a	-999	6	[0, 0, 0]	n/a	FR1	3	R1121M
84.247	2.474	232751	REC_WORD	2.474	n/a	BANK	-999	6	[0, 0, 0]	n/a	FR1	3	R1121M
86.721	3.616	233988	REC_WORD	3.616	n/a	BRICK	-999	6	[0, 0, 0]	n/a	FR1	3	R1121M
90.337	2.48	235795	REC_WORD	2.48	n/a	SCHOOL	-999	6	[0, 0, 0]	n/a	FR1	3	R1121M
92.817	8.512	237035	REC_WORD	8.512	n/a	JAIL	-999	6	[0, 0, 0]	n/a	FR1	3	R1121M
101.329	12.149	241291	REC_WORD_VV	12.149	n/a	<>	-999	6	[0, 0, 0]	n/a	FR1	3	R1121M
113.478	26.799	247365	REC_END	n/a	n/a	n/a	-999	6	[0, 0, 0]	n/a	FR1	3	R1121M
140.277	0.0	260763	TRIAL	n/a	n/a	n/a	-999	7	[0, 0, 0]	n/a	FR1	3	R1121M
140.277	10.428	260763	COUNTDOWN_START	n/a	n/a	n/a	-999	7	[0, 0, 0]	n/a	FR1	3	R1121M
150.705	0.007	265977	COUNTDOWN_END	n/a	n/a	n/a	-999	7	[0, 0, 0]	n/a	FR1	3	R1121M
150.712	2.484	265980	ORIENT	n/a	n/a	n/a	-999	7	[0, 0, 0]	n/a	FR1	3	R1121M
153.196	2.517	267222	WORD	n/a	wordpools/wordpool_EN.txt	TENT	1	7	[0, 0, 0]	n/a	FR1	3	R1121M
155.713	2.467	268481	WORD	n/a	wordpools/wordpool_EN.txt	GUARD	2	7	[0, 0, 0]	n/a	FR1	3	R1121M
158.18	2.584	269714	WORD	n/a	wordpools/wordpool_EN.txt	JEEP	3	7	[0, 0, 0]	n/a	FR1	3	R1121M
160.764	2.601	271006	WORD	n/a	wordpools/wordpool_EN.txt	ARK	4	7	[0, 0, 0]	n/a	FR1	3	R1121M
163.365	2.55	272306	WORD	n/a	wordpools/wordpool_EN.txt	LIP	5	7	[0, 0, 0]	n/a	FR1	3	R1121M
165.915	2.55	273581	WORD	n/a	wordpools/wordpool_EN.txt	PEN	6	7	[0, 0, 0]	n/a	FR1	3	R1121M
168.465	2.418	274856	WORD	n/a	wordpools/wordpool_EN.txt	CHEEK	7	7	[0, 0, 0]	n/a	FR1	3	R1121M
170.883	2.45	276065	WORD	n/a	wordpools/wordpool_EN.txt	BADGE	8	7	[0, 0, 0]	n/a	FR1	3	R1121M
173.333	2.602	277290	WORD	n/a	wordpools/wordpool_EN.txt	HAT	9	7	[0, 0, 0]	n/a	FR1	3	R1121M
175.935	2.549	278591	WORD	n/a	wordpools/wordpool_EN.txt	MUD	10	7	[0, 0, 0]	n/a	FR1	3	R1121M
178.484	2.434	279865	WORD	n/a	wordpools/wordpool_EN.txt	GEESE	11	7	[0, 0, 0]	n/a	FR1	3	R1121M
180.918	1.617	281082	WORD	n/a	wordpools/wordpool_EN.txt	HAND	12	7	[0, 0, 0]	n/a	FR1	3	R1121M
182.535	0.001	281891	DISTRACT_START	n/a	n/a	n/a	-999	7	[0, 0, 0]	n/a	FR1	3	R1121M
182.536	0.015	281891	START	n/a	n/a	n/a	-999	2	[-999, -999, -999]	n/a	FR1	3	R1121M
182.551	8.436	281899	PROB	8.436	n/a	n/a	-999	2	[5, 5, 7]	17	FR1	3	R1121M
190.987	6.184	286116	PROB	6.184	n/a	n/a	-999	2	[2, 3, 6]	11	FR1	3	R1121M
197.171	8.521	289208	PROB	8.521	n/a	n/a	-999	2	[5, 7, 1]	13	FR1	3	R1121M
205.692	0.014	293468	STOP	n/a	n/a	n/a	-999	2	[-999, -999, -999]	n/a	FR1	3	R1121M
205.706	1.067	293475	DISTRACT_END	n/a	n/a	n/a	-999	7	[0, 0, 0]	n/a	FR1	3	R1121M
206.773	2.915	294009	REC_START	n/a	n/a	n/a	-999	7	[0, 0, 0]	n/a	FR1	3	R1121M
209.688	1.011	295466	REC_WORD_VV	1.011	n/a	<>	-999	7	[0, 0, 0]	n/a	FR1	3	R1121M
210.699	2.121	295971	REC_WORD	2.121	n/a	LIP	-999	7	[0, 0, 0]	n/a	FR1	3	R1121M
212.82	12.841	297032	REC_WORD	12.841	n/a	HAND	-999	7	[0, 0, 0]	n/a	FR1	3	R1121M
225.661	11.125	303452	REC_WORD_VV	11.125	n/a	<>	-999	7	[0, 0, 0]	n/a	FR1	3	R1121M
236.786	44.568	309014	REC_END	n/a	n/a	n/a	-999	7	[0, 0, 0]	n/a	FR1	3	R1121M
281.354	0.0	331296	TRIAL	n/a	n/a	n/a	-999	8	[0, 0, 0]	n/a	FR1	3	R1121M
281.354	10.428	331296	COUNTDOWN_START	n/a	n/a	n/a	-999	8	[0, 0, 0]	n/a	FR1	3	R1121M
291.782	0.007	336510	COUNTDOWN_END	n/a	n/a	n/a	-999	8	[0, 0, 0]	n/a	FR1	3	R1121M
291.789	2.434	336513	ORIENT	n/a	n/a	n/a	-999	8	[0, 0, 0]	n/a	FR1	3	R1121M
294.223	2.434	337730	WORD	n/a	wordpools/wordpool_EN.txt	JUICE	1	8	[0, 0, 0]	n/a	FR1	3	R1121M
296.657	2.385	338947	WORD	n/a	wordpools/wordpool_EN.txt	CORN	2	8	[0, 0, 0]	n/a	FR1	3	R1121M
299.042	2.382	340139	WORD	n/a	wordpools/wordpool_EN.txt	CAGE	3	8	[0, 0, 0]	n/a	FR1	3	R1121M
301.424	2.519	341330	WORD	n/a	wordpools/wordpool_EN.txt	MUG	4	8	[0, 0, 0]	n/a	FR1	3	R1121M
303.943	2.416	342590	WORD	n/a	wordpools/wordpool_EN.txt	HORSE	5	8	[0, 0, 0]	n/a	FR1	3	R1121M
306.359	2.433	343798	WORD	n/a	wordpools/wordpool_EN.txt	ARM	6	8	[0, 0, 0]	n/a	FR1	3	R1121M
308.792	2.618	345014	WORD	n/a	wordpools/wordpool_EN.txt	STEAK	7	8	[0, 0, 0]	n/a	FR1	3	R1121M
311.41	2.601	346323	WORD	n/a	wordpools/wordpool_EN.txt	TOAST	8	8	[0, 0, 0]	n/a	FR1	3	R1121M
314.011	2.55	347623	WORD	n/a	wordpools/wordpool_EN.txt	CAVE	9	8	[0, 0, 0]	n/a	FR1	3	R1121M
316.561	2.401	348898	WORD	n/a	wordpools/wordpool_EN.txt	GLASS	10	8	[0, 0, 0]	n/a	FR1	3	R1121M
318.962	2.533	350099	WORD	n/a	wordpools/wordpool_EN.txt	HOOF	11	8	[0, 0, 0]	n/a	FR1	3	R1121M
321.495	1.601	351365	WORD	n/a	wordpools/wordpool_EN.txt	PLATE	12	8	[0, 0, 0]	n/a	FR1	3	R1121M
323.096	0.001	352165	DISTRACT_START	n/a	n/a	n/a	-999	8	[0, 0, 0]	n/a	FR1	3	R1121M
323.097	0.016	352166	START	n/a	n/a	n/a	-999	3	[-999, -999, -999]	n/a	FR1	3	R1121M
323.113	5.818	352174	PROB	5.818	n/a	n/a	-999	3	[1, 5, 5]	11	FR1	3	R1121M
328.931	6.184	355083	PROB	6.184	n/a	n/a	-999	3	[7, 6, 8]	16	FR1	3	R1121M
335.115	12.537	358174	PROB	12.537	n/a	n/a	-999	3	[4, 3, 8]	9	FR1	3	R1121M
347.652	0.015	364442	STOP	n/a	n/a	n/a	-999	3	[-999, -999, -999]	n/a	FR1	3	R1121M
347.667	1.184	364450	DISTRACT_END	n/a	n/a	n/a	-999	8	[0, 0, 0]	n/a	FR1	3	R1121M
348.851	4.28	365042	REC_START	n/a	n/a	n/a	-999	8	[0, 0, 0]	n/a	FR1	3	R1121M
353.131	1.457	367182	REC_WORD	1.457	n/a	HOOF	-999	8	[0, 0, 0]	n/a	FR1	3	R1121M
354.588	11.557	367910	REC_WORD	11.557	n/a	PLATE	-999	8	[0, 0, 0]	n/a	FR1	3	R1121M
366.145	12.716	373688	REC_WORD	12.716	n/a	SCHOOL	-999	8	[0, 0, 0]	n/a	FR1	3	R1121M
378.861	19.015	380046	REC_END	n/a	n/a	n/a	-999	8	[0, 0, 0]	n/a	FR1	3	R1121M
397.876	0.001	389552	COUNTDOWN_START	n/a	n/a	n/a	-999	9	[0, 0, 0]	n/a	FR1	3	R1121M
397.877	10.427	389553	TRIAL	n/a	n/a	n/a	-999	9	[0, 0, 0]	n/a	FR1	3	R1121M
408.304	0.008	394766	COUNTDOWN_END	n/a	n/a	n/a	-999	9	[0, 0, 0]	n/a	FR1	3	R1121M
408.312	2.467	394770	ORIENT	n/a	n/a	n/a	-999	9	[0, 0, 0]	n/a	FR1	3	R1121M
410.779	2.45	396003	WORD	n/a	wordpools/wordpool_EN.txt	MAT	1	9	[0, 0, 0]	n/a	FR1	3	R1121M
413.229	2.484	397228	WORD	n/a	wordpools/wordpool_EN.txt	COW	2	9	[0, 0, 0]	n/a	FR1	3	R1121M
415.713	2.551	398470	WORD	n/a	wordpools/wordpool_EN.txt	PIE	3	9	[0, 0, 0]	n/a	FR1	3	R1121M
418.264	2.517	399745	WORD	n/a	wordpools/wordpool_EN.txt	BREAD	4	9	[0, 0, 0]	n/a	FR1	3	R1121M
420.781	2.6	401004	WORD	n/a	wordpools/wordpool_EN.txt	DOLL	5	9	[0, 0, 0]	n/a	FR1	3	R1121M
423.381	2.484	402304	WORD	n/a	wordpools/wordpool_EN.txt	VASE	6	9	[0, 0, 0]	n/a	FR1	3	R1121M
425.865	2.384	403546	WORD	n/a	wordpools/wordpool_EN.txt	SPRING	7	9	[0, 0, 0]	n/a	FR1	3	R1121M
428.249	2.484	404738	WORD	n/a	wordpools/wordpool_EN.txt	SINK	8	9	[0, 0, 0]	n/a	FR1	3	R1121M
430.733	2.567	405979	WORD	n/a	wordpools/wordpool_EN.txt	SEAT	9	9	[0, 0, 0]	n/a	FR1	3	R1121M
433.3	2.584	407263	WORD	n/a	wordpools/wordpool_EN.txt	SHEEP	10	9	[0, 0, 0]	n/a	FR1	3	R1121M
435.884	2.583	408555	WORD	n/a	wordpools/wordpool_EN.txt	CLOTH	11	9	[0, 0, 0]	n/a	FR1	3	R1121M
438.467	1.618	409846	WORD	n/a	wordpools/wordpool_EN.txt	BLUSH	12	9	[0, 0, 0]	n/a	FR1	3	R1121M
440.085	0.001	410655	DISTRACT_START	n/a	n/a	n/a	-999	9	[0, 0, 0]	n/a	FR1	3	R1121M
440.086	0.016	410656	START	n/a	n/a	n/a	-999	4	[-999, -999, -999]	n/a	FR1	3	R1121M
440.102	8.284	410664	PROB	8.284	n/a	n/a	-999	4	[5, 4, 4]	13	FR1	3	R1121M
448.386	8.152	414805	PROB	8.152	n/a	n/a	-999	4	[8, 6, 8]	14	FR1	3	R1121M
456.538	7.634	418881	PROB	7.634	n/a	n/a	-999	4	[8, 2, 8]	18	FR1	3	R1121M
464.172	0.017	422698	STOP	n/a	n/a	n/a	-999	4	[-999, -999, -999]	n/a	FR1	3	R1121M
464.189	1.218	422706	DISTRACT_END	n/a	n/a	n/a	-999	9	[0, 0, 0]	n/a	FR1	3	R1121M
465.407	1.434	423315	REC_START	n/a	n/a	n/a	-999	9	[0, 0, 0]	n/a	FR1	3	R1121M
466.841	3.101	424032	REC_WORD_VV	3.101	n/a	<>	-999	9	[0, 0, 0]	n/a	FR1	3	R1121M
469.942	1.817	425582	REC_WORD_VV	1.817	n/a	<>	-999	9	[0, 0, 0]	n/a	FR1	3	R1121M
471.759	1.454	426491	REC_WORD	1.454	n/a	SHEEP	-999	9	[0, 0, 0]	n/a	FR1	3	R1121M
473.213	2.026	427218	REC_WORD	2.026	n/a	COW	-999	9	[0, 0, 0]	n/a	FR1	3	R1121M
475.239	3.513	428231	REC_WORD	3.513	n/a	MUD	-999	9	[0, 0, 0]	n/a	FR1	3	R1121M
478.752	7.02	429987	REC_WORD	7.02	n/a	PIE	-999	9	[0, 0, 0]	n/a	FR1	3	R1121M
485.772	1.096	433497	REC_WORD_VV	1.096	n/a	<>	-999	9	[0, 0, 0]	n/a	FR1	3	R1121M
486.868	1.626	434045	REC_WORD_VV	1.626	n/a	<>	-999	9	[0, 0, 0]	n/a	FR1	3	R1121M
488.494	6.924	434858	REC_WORD_VV	6.924	n/a	<>	-999	9	[0, 0, 0]	n/a	FR1	3	R1121M
495.418	0.0	438319	REC_END	n/a	n/a	n/a	-999	9	[0, 0, 0]	n/a	FR1	3	R1121M
