onset	duration	sample	trial_type	response_time	stim_file	item_name	serialpos	list	test	answer	experiment	session	subject
0.0	5.531	79304	INSTRUCT_START	n/a	n/a	n/a	-999	-999	[0, 0, 0]	n/a	FR1	0	R1441T
5.531	28.532	84822	INSTRUCT_END	n/a	n/a	n/a	-999	-999	[0, 0, 0]	n/a	FR1	0	R1441T
34.063	10.35	113367	COUNTDOWN_START	n/a	n/a	n/a	-999	-999	[0, 0, 0]	n/a	FR1	0	R1441T
44.413	0.0	123706	COUNTDOWN_END	n/a	n/a	n/a	-999	-999	[0, 0, 0]	n/a	FR1	0	R1441T
44.413	2.2	123706	ENCODING_START	n/a	n/a	n/a	-999	-1	[0, 0, 0]	n/a	FR1	0	R1441T
46.613	1.6	125914	WORD	n/a	n/a	SKY	1	-1	[0, 0, 0]	n/a	FR1	0	R1441T
48.213	0.935	127506	WORD_OFF	n/a	n/a	SKY	1	-1	[0, 0, 0]	n/a	FR1	0	R1441T
49.148	1.616	128442	WORD	n/a	n/a	SPARK	2	-1	[0, 0, 0]	n/a	FR1	0	R1441T
50.764	0.9	130063	WORD_OFF	n/a	n/a	SPARK	2	-1	[0, 0, 0]	n/a	FR1	0	R1441T
51.664	1.615	130957	WORD	n/a	n/a	PORK	3	-1	[0, 0, 0]	n/a	FR1	0	R1441T
53.279	0.769	132578	WORD_OFF	n/a	n/a	PORK	3	-1	[0, 0, 0]	n/a	FR1	0	R1441T
54.048	1.614	133347	WORD	n/a	n/a	SHEET	4	-1	[0, 0, 0]	n/a	FR1	0	R1441T
55.662	0.919	134953	WORD_OFF	n/a	n/a	SHEET	4	-1	[0, 0, 0]	n/a	FR1	0	R1441T
56.581	1.616	135875	WORD	n/a	n/a	DOG	5	-1	[0, 0, 0]	n/a	FR1	0	R1441T
58.197	0.867	137496	WORD_OFF	n/a	n/a	DOG	5	-1	[0, 0, 0]	n/a	FR1	0	R1441T
59.064	1.617	138362	WORD	n/a	n/a	SNAKE	6	-1	[0, 0, 0]	n/a	FR1	0	R1441T
60.681	0.866	139983	WORD_OFF	n/a	n/a	SNAKE	6	-1	[0, 0, 0]	n/a	FR1	0	R1441T
61.547	1.6	140835	WORD	n/a	n/a	SLOPE	7	-1	[0, 0, 0]	n/a	FR1	0	R1441T
63.147	0.833	142442	WORD_OFF	n/a	n/a	SLOPE	7	-1	[0, 0, 0]	n/a	FR1	0	R1441T
63.98	1.601	143281	WORD	n/a	n/a	MAIL	8	-1	[0, 0, 0]	n/a	FR1	0	R1441T
65.581	0.916	144873	WORD_OFF	n/a	n/a	MAIL	8	-1	[0, 0, 0]	n/a	FR1	0	R1441T
66.497	1.6	145795	WORD	n/a	n/a	WAND	9	-1	[0, 0, 0]	n/a	FR1	0	R1441T
68.097	0.816	147388	WORD_OFF	n/a	n/a	WAND	9	-1	[0, 0, 0]	n/a	FR1	0	R1441T
68.913	1.601	148213	WORD	n/a	n/a	FLEET	10	-1	[0, 0, 0]	n/a	FR1	0	R1441T
70.514	0.967	149805	WORD_OFF	n/a	n/a	FLEET	10	-1	[0, 0, 0]	n/a	FR1	0	R1441T
71.481	1.6	150769	WORD	n/a	n/a	CHILD	11	-1	[0, 0, 0]	n/a	FR1	0	R1441T
73.081	0.766	152376	WORD_OFF	n/a	n/a	CHILD	11	-1	[0, 0, 0]	n/a	FR1	0	R1441T
73.847	1.601	153145	WORD	n/a	n/a	GIFT	12	-1	[0, 0, 0]	n/a	FR1	0	R1441T
75.448	0.001	154737	WORD_OFF	n/a	n/a	GIFT	12	-1	[0, 0, 0]	n/a	FR1	0	R1441T
75.449	0.0	154742	START	n/a	n/a	n/a	-999	-1	[-999, -999, -999]	n/a	FR1	0	R1441T
75.449	0.0	154742	PROB	0.0	n/a	n/a	-999	-1	[2, 4, 3]	9	FR1	0	R1441T
75.449	0.0	154751	ENCODING_END	n/a	n/a	n/a	-999	-1	[0, 0, 0]	n/a	FR1	0	R1441T
75.449	5.384	154751	DISTRACT_START	n/a	n/a	n/a	-999	-1	[0, 0, 0]	n/a	FR1	0	R1441T
80.833	4.049	160126	PROB	4.049	n/a	n/a	-999	-1	[1, 1, 4]	6	FR1	0	R1441T
84.882	7.233	164175	PROB	7.233	n/a	n/a	-999	-1	[8, 7, 1]	16	FR1	0	R1441T
92.115	5.966	171407	PROB	5.966	n/a	n/a	-999	-1	[4, 7, 7]	18	FR1	0	R1441T
98.081	0.0	177372	DISTRACT_END	n/a	n/a	n/a	-999	-1	[0, 0, 0]	n/a	FR1	0	R1441T
98.081	1.316	177373	STOP	n/a	n/a	n/a	-999	-1	[-999, -999, -999]	n/a	FR1	0	R1441T
99.397	0.205	178685	REC_START	n/a	n/a	n/a	-999	-1	[0, 0, 0]	n/a	FR1	0	R1441T
99.602	1.282	178894	REC_WORD	1.282	n/a	SKY	1	-1	[0, 0, 0]	n/a	FR1	0	R1441T
100.884	0.649	180176	REC_WORD	0.649	n/a	DOG	5	-1	[0, 0, 0]	n/a	FR1	0	R1441T
101.533	0.585	180825	REC_WORD	0.585	n/a	PORK	3	-1	[0, 0, 0]	n/a	FR1	0	R1441T
102.118	3.282	181410	REC_WORD	3.282	n/a	SHEEP	-999	-1	[0, 0, 0]	n/a	FR1	0	R1441T
105.4	0.723	184692	REC_WORD_VV	0.723	n/a	<>	-999	-1	[0, 0, 0]	n/a	FR1	0	R1441T
106.123	24.479	185415	REC_WORD	24.479	n/a	MAIL	8	-1	[0, 0, 0]	n/a	FR1	0	R1441T
130.602	10.512	209898	REC_END	n/a	n/a	n/a	-999	-1	[0, 0, 0]	n/a	FR1	0	R1441T
141.114	10.35	220405	COUNTDOWN_START	n/a	n/a	n/a	-999	1	[0, 0, 0]	n/a	FR1	0	R1441T
151.464	0.0	230758	COUNTDOWN_END	n/a	n/a	n/a	-999	1	[0, 0, 0]	n/a	FR1	0	R1441T
151.464	2.0	230758	ENCODING_START	n/a	n/a	n/a	-999	1	[0, 0, 0]	n/a	FR1	0	R1441T
153.464	1.6	232756	WORD	n/a	wordpools/wordpool_long_EN.txt	STAIR	1	1	[0, 0, 0]	n/a	FR1	0	R1441T
155.064	0.932	234349	WORD_OFF	n/a	n/a	STAIR	1	1	[0, 0, 0]	n/a	FR1	0	R1441T
155.996	1.601	235285	WORD	n/a	wordpools/wordpool_long_EN.txt	CAVE	2	1	[0, 0, 0]	n/a	FR1	0	R1441T
157.597	0.917	236892	WORD_OFF	n/a	n/a	CAVE	2	1	[0, 0, 0]	n/a	FR1	0	R1441T
158.514	1.6	237800	WORD	n/a	wordpools/wordpool_long_EN.txt	KITE	3	1	[0, 0, 0]	n/a	FR1	0	R1441T
160.114	0.866	239407	WORD_OFF	n/a	n/a	KITE	3	1	[0, 0, 0]	n/a	FR1	0	R1441T
160.98	1.6	240273	WORD	n/a	wordpools/wordpool_long_EN.txt	FRUIT	4	1	[0, 0, 0]	n/a	FR1	0	R1441T
162.58	0.801	241866	WORD_OFF	n/a	n/a	FRUIT	4	1	[0, 0, 0]	n/a	FR1	0	R1441T
163.381	1.6	242676	WORD	n/a	wordpools/wordpool_long_EN.txt	BIRD	5	1	[0, 0, 0]	n/a	FR1	0	R1441T
164.981	0.983	244269	WORD_OFF	n/a	n/a	BIRD	5	1	[0, 0, 0]	n/a	FR1	0	R1441T
165.964	1.6	245247	WORD	n/a	wordpools/wordpool_long_EN.txt	GRASS	6	1	[0, 0, 0]	n/a	FR1	0	R1441T
167.564	0.799	246854	WORD_OFF	n/a	n/a	GRASS	6	1	[0, 0, 0]	n/a	FR1	0	R1441T
168.363	1.601	247650	WORD	n/a	wordpools/wordpool_long_EN.txt	APE	7	1	[0, 0, 0]	n/a	FR1	0	R1441T
169.964	0.866	249257	WORD_OFF	n/a	n/a	APE	7	1	[0, 0, 0]	n/a	FR1	0	R1441T
170.83	1.601	250123	WORD	n/a	wordpools/wordpool_long_EN.txt	FAN	8	1	[0, 0, 0]	n/a	FR1	0	R1441T
172.431	0.767	251716	WORD_OFF	n/a	n/a	FAN	8	1	[0, 0, 0]	n/a	FR1	0	R1441T
173.198	1.6	252484	WORD	n/a	wordpools/wordpool_long_EN.txt	BOWL	9	1	[0, 0, 0]	n/a	FR1	0	R1441T
174.798	0.983	254091	WORD_OFF	n/a	n/a	BOWL	9	1	[0, 0, 0]	n/a	FR1	0	R1441T
175.781	1.617	255069	WORD	n/a	wordpools/wordpool_long_EN.txt	HUT	10	1	[0, 0, 0]	n/a	FR1	0	R1441T
177.398	0.981	256690	WORD_OFF	n/a	n/a	HUT	10	1	[0, 0, 0]	n/a	FR1	0	R1441T
178.379	1.602	257668	WORD	n/a	wordpools/wordpool_long_EN.txt	NAIL	11	1	[0, 0, 0]	n/a	FR1	0	R1441T
179.981	0.834	259275	WORD_OFF	n/a	n/a	NAIL	11	1	[0, 0, 0]	n/a	FR1	0	R1441T
180.815	1.615	260099	WORD	n/a	wordpools/wordpool_long_EN.txt	DRINK	12	1	[0, 0, 0]	n/a	FR1	0	R1441T
182.43	0.0	261718	START	n/a	n/a	n/a	-999	1	[-999, -999, -999]	n/a	FR1	0	R1441T
182.43	0.0	261718	PROB	0.0	n/a	n/a	-999	1	[1, 5, 3]	9	FR1	0	R1441T
182.429	0.001	261720	WORD_OFF	n/a	n/a	DRINK	12	1	[0, 0, 0]	n/a	FR1	0	R1441T
182.43	0.0	261720	ENCODING_END	n/a	n/a	n/a	-999	1	[0, 0, 0]	n/a	FR1	0	R1441T
182.43	6.685	261720	DISTRACT_START	n/a	n/a	n/a	-999	1	[0, 0, 0]	n/a	FR1	0	R1441T
189.115	5.4	268402	PROB	5.4	n/a	n/a	-999	1	[5, 8, 5]	18	FR1	0	R1441T
194.515	5.583	273802	PROB	5.583	n/a	n/a	-999	1	[5, 1, 7]	13	FR1	0	R1441T
200.098	14.149	279385	PROB	14.149	n/a	n/a	-999	1	[5, 4, 8]	17	FR1	0	R1441T
214.247	0.0	293533	DISTRACT_END	n/a	n/a	n/a	-999	1	[0, 0, 0]	n/a	FR1	0	R1441T
214.247	1.101	293533	STOP	n/a	n/a	n/a	-999	1	[-999, -999, -999]	n/a	FR1	0	R1441T
215.348	3.198	294637	REC_START	n/a	n/a	n/a	-999	1	[0, 0, 0]	n/a	FR1	0	R1441T
218.546	0.768	297832	REC_WORD	0.768	n/a	SKY	-999	1	[0, 0, 0]	n/a	FR1	0	R1441T
219.314	1.534	298600	REC_WORD	1.534	n/a	GRASS	6	1	[0, 0, 0]	n/a	FR1	0	R1441T
220.848	4.242	300134	REC_WORD	4.242	n/a	STAIR	1	1	[0, 0, 0]	n/a	FR1	0	R1441T
225.09	21.512	304376	REC_WORD	21.512	n/a	FAN	8	1	[0, 0, 0]	n/a	FR1	0	R1441T
246.602	3.113	325892	REC_END	n/a	n/a	n/a	-999	1	[0, 0, 0]	n/a	FR1	0	R1441T
249.715	10.349	329008	COUNTDOWN_START	n/a	n/a	n/a	-999	1	[0, 0, 0]	n/a	FR1	0	R1441T
260.064	0.0	339347	COUNTDOWN_END	n/a	n/a	n/a	-999	1	[0, 0, 0]	n/a	FR1	0	R1441T
260.064	2.116	339347	ENCODING_START	n/a	n/a	n/a	-999	2	[0, 0, 0]	n/a	FR1	0	R1441T
262.18	1.618	341471	WORD	n/a	wordpools/wordpool_long_EN.txt	SCHOOL	1	2	[0, 0, 0]	n/a	FR1	0	R1441T
263.798	0.983	343078	WORD_OFF	n/a	n/a	SCHOOL	1	2	[0, 0, 0]	n/a	FR1	0	R1441T
264.781	1.616	344070	WORD	n/a	wordpools/wordpool_long_EN.txt	LIP	2	2	[0, 0, 0]	n/a	FR1	0	R1441T
266.397	1.001	345676	WORD_OFF	n/a	n/a	LIP	2	2	[0, 0, 0]	n/a	FR1	0	R1441T
267.398	1.616	346682	WORD	n/a	wordpools/wordpool_long_EN.txt	PALM	3	2	[0, 0, 0]	n/a	FR1	0	R1441T
269.014	0.983	348303	WORD_OFF	n/a	n/a	PALM	3	2	[0, 0, 0]	n/a	FR1	0	R1441T
269.997	1.616	349281	WORD	n/a	wordpools/wordpool_long_EN.txt	SLIDE	4	2	[0, 0, 0]	n/a	FR1	0	R1441T
271.613	1.001	350902	WORD_OFF	n/a	n/a	SLIDE	4	2	[0, 0, 0]	n/a	FR1	0	R1441T
272.614	1.617	351894	WORD	n/a	wordpools/wordpool_long_EN.txt	STEAK	5	2	[0, 0, 0]	n/a	FR1	0	R1441T
274.231	0.833	353514	WORD_OFF	n/a	n/a	STEAK	5	2	[0, 0, 0]	n/a	FR1	0	R1441T
275.064	1.617	354353	WORD	n/a	wordpools/wordpool_long_EN.txt	TIE	6	2	[0, 0, 0]	n/a	FR1	0	R1441T
276.681	0.766	355960	WORD_OFF	n/a	n/a	TIE	6	2	[0, 0, 0]	n/a	FR1	0	R1441T
277.447	1.6	356728	WORD	n/a	wordpools/wordpool_long_EN.txt	TOAST	7	2	[0, 0, 0]	n/a	FR1	0	R1441T
279.047	0.833	358335	WORD_OFF	n/a	n/a	TOAST	7	2	[0, 0, 0]	n/a	FR1	0	R1441T
279.88	1.601	359159	WORD	n/a	wordpools/wordpool_long_EN.txt	FOAM	8	2	[0, 0, 0]	n/a	FR1	0	R1441T
281.481	0.799	360766	WORD_OFF	n/a	n/a	FOAM	8	2	[0, 0, 0]	n/a	FR1	0	R1441T
282.28	1.617	361562	WORD	n/a	wordpools/wordpool_long_EN.txt	HOOK	9	2	[0, 0, 0]	n/a	FR1	0	R1441T
283.897	0.833	363183	WORD_OFF	n/a	n/a	HOOK	9	2	[0, 0, 0]	n/a	FR1	0	R1441T
284.73	1.618	364007	WORD	n/a	wordpools/wordpool_long_EN.txt	BEAK	10	2	[0, 0, 0]	n/a	FR1	0	R1441T
286.348	0.799	365628	WORD_OFF	n/a	n/a	BEAK	10	2	[0, 0, 0]	n/a	FR1	0	R1441T
287.147	1.617	366424	WORD	n/a	wordpools/wordpool_long_EN.txt	PIPE	11	2	[0, 0, 0]	n/a	FR1	0	R1441T
288.764	0.783	368045	WORD_OFF	n/a	n/a	PIPE	11	2	[0, 0, 0]	n/a	FR1	0	R1441T
289.547	1.618	368828	WORD	n/a	wordpools/wordpool_long_EN.txt	TOOTH	12	2	[0, 0, 0]	n/a	FR1	0	R1441T
291.165	0.0	370447	START	n/a	n/a	n/a	-999	2	[-999, -999, -999]	n/a	FR1	0	R1441T
291.165	0.0	370447	PROB	0.0	n/a	n/a	-999	2	[1, 2, 7]	10	FR1	0	R1441T
291.164	0.001	370448	WORD_OFF	n/a	n/a	TOOTH	12	2	[0, 0, 0]	n/a	FR1	0	R1441T
291.165	0.0	370448	ENCODING_END	n/a	n/a	n/a	-999	2	[0, 0, 0]	n/a	FR1	0	R1441T
291.165	6.516	370448	DISTRACT_START	n/a	n/a	n/a	-999	2	[0, 0, 0]	n/a	FR1	0	R1441T
297.681	7.884	376963	PROB	7.884	n/a	n/a	-999	2	[6, 1, 2]	10	FR1	0	R1441T
305.565	7.733	384847	PROB	7.733	n/a	n/a	-999	2	[2, 5, 1]	8	FR1	0	R1441T
313.298	0.0	392579	STOP	n/a	n/a	n/a	-999	2	[-999, -999, -999]	n/a	FR1	0	R1441T
313.298	1.349	392580	DISTRACT_END	n/a	n/a	n/a	-999	2	[0, 0, 0]	n/a	FR1	0	R1441T
314.647	0.13	393935	REC_START	n/a	n/a	n/a	-999	2	[0, 0, 0]	n/a	FR1	0	R1441T
314.777	0.678	394058	REC_WORD	0.678	n/a	PIPE	11	2	[0, 0, 0]	n/a	FR1	0	R1441T
315.455	0.63	394736	REC_WORD	0.63	n/a	HOOK	9	2	[0, 0, 0]	n/a	FR1	0	R1441T
316.085	0.351	395366	REC_WORD	0.351	n/a	TOOTH	12	2	[0, 0, 0]	n/a	FR1	0	R1441T
316.436	29.452	395717	REC_WORD	29.452	n/a	SCHOOL	1	2	[0, 0, 0]	n/a	FR1	0	R1441T
345.888	4.626	425162	REC_END	n/a	n/a	n/a	-999	2	[0, 0, 0]	n/a	FR1	0	R1441T
350.514	10.35	429801	COUNTDOWN_START	n/a	n/a	n/a	-999	2	[0, 0, 0]	n/a	FR1	0	R1441T
360.864	0.001	440140	COUNTDOWN_END	n/a	n/a	n/a	-999	2	[0, 0, 0]	n/a	FR1	0	R1441T
360.865	2.031	440140	ENCODING_START	n/a	n/a	n/a	-999	3	[0, 0, 0]	n/a	FR1	0	R1441T
362.896	1.601	442180	WORD	n/a	wordpools/wordpool_long_EN.txt	POLE	1	3	[0, 0, 0]	n/a	FR1	0	R1441T
364.497	0.9	443772	WORD_OFF	n/a	n/a	POLE	1	3	[0, 0, 0]	n/a	FR1	0	R1441T
365.397	1.6	444681	WORD	n/a	wordpools/wordpool_long_EN.txt	MUG	2	3	[0, 0, 0]	n/a	FR1	0	R1441T
366.997	0.951	446273	WORD_OFF	n/a	n/a	MUG	2	3	[0, 0, 0]	n/a	FR1	0	R1441T
367.948	1.616	447223	WORD	n/a	wordpools/wordpool_long_EN.txt	MARSH	3	3	[0, 0, 0]	n/a	FR1	0	R1441T
369.564	0.817	448844	WORD_OFF	n/a	n/a	MARSH	3	3	[0, 0, 0]	n/a	FR1	0	R1441T
370.381	1.616	449655	WORD	n/a	wordpools/wordpool_long_EN.txt	PRINCE	4	3	[0, 0, 0]	n/a	FR1	0	R1441T
371.997	0.816	451275	WORD_OFF	n/a	n/a	PRINCE	4	3	[0, 0, 0]	n/a	FR1	0	R1441T
372.813	1.601	452086	WORD	n/a	wordpools/wordpool_long_EN.txt	PASTE	5	3	[0, 0, 0]	n/a	FR1	0	R1441T
374.414	0.834	453692	WORD_OFF	n/a	n/a	PASTE	5	3	[0, 0, 0]	n/a	FR1	0	R1441T
375.248	1.616	454531	WORD	n/a	wordpools/wordpool_long_EN.txt	GATE	6	3	[0, 0, 0]	n/a	FR1	0	R1441T
376.864	0.85	456137	WORD_OFF	n/a	n/a	GATE	6	3	[0, 0, 0]	n/a	FR1	0	R1441T
377.714	1.617	456990	WORD	n/a	wordpools/wordpool_long_EN.txt	LUNCH	7	3	[0, 0, 0]	n/a	FR1	0	R1441T
379.331	0.816	458610	WORD_OFF	n/a	n/a	LUNCH	7	3	[0, 0, 0]	n/a	FR1	0	R1441T
380.147	1.617	459421	WORD	n/a	wordpools/wordpool_long_EN.txt	ELF	8	3	[0, 0, 0]	n/a	FR1	0	R1441T
381.764	0.95	461042	WORD_OFF	n/a	n/a	ELF	8	3	[0, 0, 0]	n/a	FR1	0	R1441T
382.714	1.617	461992	WORD	n/a	wordpools/wordpool_long_EN.txt	SPEAR	9	3	[0, 0, 0]	n/a	FR1	0	R1441T
384.331	0.882	463612	WORD_OFF	n/a	n/a	SPEAR	9	3	[0, 0, 0]	n/a	FR1	0	R1441T
385.213	1.617	464493	WORD	n/a	wordpools/wordpool_long_EN.txt	CAPE	10	3	[0, 0, 0]	n/a	FR1	0	R1441T
386.83	0.866	466113	WORD_OFF	n/a	n/a	CAPE	10	3	[0, 0, 0]	n/a	FR1	0	R1441T
387.696	1.601	466980	WORD	n/a	wordpools/wordpool_long_EN.txt	SHIP	11	3	[0, 0, 0]	n/a	FR1	0	R1441T
389.297	0.766	468572	WORD_OFF	n/a	n/a	SHIP	11	3	[0, 0, 0]	n/a	FR1	0	R1441T
390.063	1.602	469341	WORD	n/a	wordpools/wordpool_long_EN.txt	ROCK	12	3	[0, 0, 0]	n/a	FR1	0	R1441T
391.665	0.001	470942	PROB	0.001	n/a	n/a	-999	3	[1, 6, 6]	13	FR1	0	R1441T
391.666	0.0	470943	START	n/a	n/a	n/a	-999	3	[-999, -999, -999]	n/a	FR1	0	R1441T
391.664	0.002	470948	WORD_OFF	n/a	n/a	ROCK	12	3	[0, 0, 0]	n/a	FR1	0	R1441T
391.666	0.0	470948	ENCODING_END	n/a	n/a	n/a	-999	3	[0, 0, 0]	n/a	FR1	0	R1441T
391.666	4.899	470948	DISTRACT_START	n/a	n/a	n/a	-999	3	[0, 0, 0]	n/a	FR1	0	R1441T
396.565	4.283	475842	PROB	4.283	n/a	n/a	-999	3	[1, 1, 8]	10	FR1	0	R1441T
400.848	5.949	480125	PROB	5.949	n/a	n/a	-999	3	[4, 1, 7]	12	FR1	0	R1441T
406.797	3.783	486074	PROB	3.783	n/a	n/a	-999	3	[8, 7, 2]	17	FR1	0	R1441T
410.58	4.5	489856	PROB	4.5	n/a	n/a	-999	3	[4, 2, 6]	11	FR1	0	R1441T
415.08	0.0	494356	STOP	n/a	n/a	n/a	-999	3	[-999, -999, -999]	n/a	FR1	0	R1441T
415.08	1.284	494364	DISTRACT_END	n/a	n/a	n/a	-999	3	[0, 0, 0]	n/a	FR1	0	R1441T
416.364	0.688	495636	REC_START	n/a	n/a	n/a	-999	3	[0, 0, 0]	n/a	FR1	0	R1441T
417.052	0.582	496328	REC_WORD	0.582	n/a	HOLE	-999	3	[0, 0, 0]	n/a	FR1	0	R1441T
417.634	0.734	496910	REC_WORD	0.734	n/a	MARSH	3	3	[0, 0, 0]	n/a	FR1	0	R1441T
418.368	0.657	497644	REC_WORD	0.657	n/a	SHIP	11	3	[0, 0, 0]	n/a	FR1	0	R1441T
419.025	28.581	498301	REC_WORD	28.581	n/a	ROCK	12	3	[0, 0, 0]	n/a	FR1	0	R1441T
447.606	1.957	526877	REC_END	n/a	n/a	n/a	-999	3	[0, 0, 0]	n/a	FR1	0	R1441T
449.563	10.352	528847	COUNTDOWN_START	n/a	n/a	n/a	-999	3	[0, 0, 0]	n/a	FR1	0	R1441T
459.915	0.0	539186	COUNTDOWN_END	n/a	n/a	n/a	-999	3	[0, 0, 0]	n/a	FR1	0	R1441T
459.915	2.148	539186	ENCODING_START	n/a	n/a	n/a	-999	4	[0, 0, 0]	n/a	FR1	0	R1441T
462.063	1.618	541338	WORD	n/a	wordpools/wordpool_long_EN.txt	BAT	1	4	[0, 0, 0]	n/a	FR1	0	R1441T
463.681	0.933	542958	WORD_OFF	n/a	n/a	BAT	1	4	[0, 0, 0]	n/a	FR1	0	R1441T
464.614	1.6	543894	WORD	n/a	wordpools/wordpool_long_EN.txt	CHEST	2	4	[0, 0, 0]	n/a	FR1	0	R1441T
466.214	0.783	545487	WORD_OFF	n/a	n/a	CHEST	2	4	[0, 0, 0]	n/a	FR1	0	R1441T
466.997	1.617	546270	WORD	n/a	wordpools/wordpool_long_EN.txt	CUP	3	4	[0, 0, 0]	n/a	FR1	0	R1441T
468.614	0.866	547890	WORD_OFF	n/a	n/a	CUP	3	4	[0, 0, 0]	n/a	FR1	0	R1441T
469.48	1.617	548757	WORD	n/a	wordpools/wordpool_long_EN.txt	COOK	4	4	[0, 0, 0]	n/a	FR1	0	R1441T
471.097	0.918	550377	WORD_OFF	n/a	n/a	COOK	4	4	[0, 0, 0]	n/a	FR1	0	R1441T
472.015	1.599	551286	WORD	n/a	wordpools/wordpool_long_EN.txt	COIN	5	4	[0, 0, 0]	n/a	FR1	0	R1441T
473.614	0.933	552892	WORD_OFF	n/a	n/a	COIN	5	4	[0, 0, 0]	n/a	FR1	0	R1441T
474.547	1.601	553814	WORD	n/a	wordpools/wordpool_long_EN.txt	SPACE	6	4	[0, 0, 0]	n/a	FR1	0	R1441T
476.148	0.965	555421	WORD_OFF	n/a	n/a	SPACE	6	4	[0, 0, 0]	n/a	FR1	0	R1441T
477.113	1.601	556385	WORD	n/a	wordpools/wordpool_long_EN.txt	FUR	7	4	[0, 0, 0]	n/a	FR1	0	R1441T
478.714	0.784	557992	WORD_OFF	n/a	n/a	FUR	7	4	[0, 0, 0]	n/a	FR1	0	R1441T
479.498	1.616	558774	WORD	n/a	wordpools/wordpool_long_EN.txt	MOUTH	8	4	[0, 0, 0]	n/a	FR1	0	R1441T
481.114	0.95	560381	WORD_OFF	n/a	n/a	MOUTH	8	4	[0, 0, 0]	n/a	FR1	0	R1441T
482.064	1.616	561331	WORD	n/a	wordpools/wordpool_long_EN.txt	CRANE	9	4	[0, 0, 0]	n/a	FR1	0	R1441T
483.68	0.983	562952	WORD_OFF	n/a	n/a	CRANE	9	4	[0, 0, 0]	n/a	FR1	0	R1441T
484.663	1.601	563930	WORD	n/a	wordpools/wordpool_long_EN.txt	OWL	10	4	[0, 0, 0]	n/a	FR1	0	R1441T
486.264	0.833	565537	WORD_OFF	n/a	n/a	OWL	10	4	[0, 0, 0]	n/a	FR1	0	R1441T
487.097	1.616	566375	WORD	n/a	wordpools/wordpool_long_EN.txt	TILE	11	4	[0, 0, 0]	n/a	FR1	0	R1441T
488.713	0.852	567982	WORD_OFF	n/a	n/a	TILE	11	4	[0, 0, 0]	n/a	FR1	0	R1441T
489.565	1.616	568834	WORD	n/a	wordpools/wordpool_long_EN.txt	STAR	12	4	[0, 0, 0]	n/a	FR1	0	R1441T
491.181	0.0	570453	PROB	0.0	n/a	n/a	-999	4	[6, 4, 5]	15	FR1	0	R1441T
491.18	0.003	570455	WORD_OFF	n/a	n/a	STAR	12	4	[0, 0, 0]	n/a	FR1	0	R1441T
491.183	0.0	570455	ENCODING_END	n/a	n/a	n/a	-999	4	[0, 0, 0]	n/a	FR1	0	R1441T
491.183	0.0	570455	DISTRACT_START	n/a	n/a	n/a	-999	4	[0, 0, 0]	n/a	FR1	0	R1441T
491.183	11.664	570455	START	n/a	n/a	n/a	-999	4	[-999, -999, -999]	n/a	FR1	0	R1441T
502.847	9.099	582119	PROB	9.099	n/a	n/a	-999	4	[3, 2, 2]	7	FR1	0	R1441T
511.946	0.0	591217	DISTRACT_END	n/a	n/a	n/a	-999	4	[0, 0, 0]	n/a	FR1	0	R1441T
511.946	1.367	591217	STOP	n/a	n/a	n/a	-999	4	[-999, -999, -999]	n/a	FR1	0	R1441T
513.313	0.202	592586	REC_START	n/a	n/a	n/a	-999	4	[0, 0, 0]	n/a	FR1	0	R1441T
513.515	0.68	592786	REC_WORD	0.68	n/a	COOK	4	4	[0, 0, 0]	n/a	FR1	0	R1441T
514.195	0.571	593466	REC_WORD	0.571	n/a	BAT	1	4	[0, 0, 0]	n/a	FR1	0	R1441T
514.766	0.456	594037	REC_WORD	0.456	n/a	COIN	5	4	[0, 0, 0]	n/a	FR1	0	R1441T
515.222	0.769	594493	REC_WORD	0.769	n/a	SPACE	6	4	[0, 0, 0]	n/a	FR1	0	R1441T
515.991	0.697	595262	REC_WORD	0.697	n/a	MOUTH	8	4	[0, 0, 0]	n/a	FR1	0	R1441T
516.688	27.872	595959	REC_WORD	27.872	n/a	OWL	10	4	[0, 0, 0]	n/a	FR1	0	R1441T
544.56	3.204	623827	REC_END	n/a	n/a	n/a	-999	4	[0, 0, 0]	n/a	FR1	0	R1441T
547.764	10.35	627041	COUNTDOWN_START	n/a	n/a	n/a	-999	4	[0, 0, 0]	n/a	FR1	0	R1441T
558.114	0.001	637380	COUNTDOWN_END	n/a	n/a	n/a	-999	4	[0, 0, 0]	n/a	FR1	0	R1441T
558.115	1.915	637380	ENCODING_START	n/a	n/a	n/a	-999	5	[0, 0, 0]	n/a	FR1	0	R1441T
560.03	1.6	639294	WORD	n/a	wordpools/wordpool_long_EN.txt	TEETH	1	5	[0, 0, 0]	n/a	FR1	0	R1441T
561.63	0.784	640901	WORD_OFF	n/a	n/a	TEETH	1	5	[0, 0, 0]	n/a	FR1	0	R1441T
562.414	1.617	641683	WORD	n/a	wordpools/wordpool_long_EN.txt	FARM	2	5	[0, 0, 0]	n/a	FR1	0	R1441T
564.031	0.932	643304	WORD_OFF	n/a	n/a	FARM	2	5	[0, 0, 0]	n/a	FR1	0	R1441T
564.963	1.601	644226	WORD	n/a	wordpools/wordpool_long_EN.txt	WHEEL	3	5	[0, 0, 0]	n/a	FR1	0	R1441T
566.564	0.817	645833	WORD_OFF	n/a	n/a	WHEEL	3	5	[0, 0, 0]	n/a	FR1	0	R1441T
567.381	1.6	646649	WORD	n/a	wordpools/wordpool_long_EN.txt	ROAD	4	5	[0, 0, 0]	n/a	FR1	0	R1441T
568.981	0.799	648250	WORD_OFF	n/a	n/a	ROAD	4	5	[0, 0, 0]	n/a	FR1	0	R1441T
569.78	1.601	649046	WORD	n/a	wordpools/wordpool_long_EN.txt	LOFT	5	5	[0, 0, 0]	n/a	FR1	0	R1441T
571.381	0.983	650653	WORD_OFF	n/a	n/a	LOFT	5	5	[0, 0, 0]	n/a	FR1	0	R1441T
572.364	1.616	651631	WORD	n/a	wordpools/wordpool_long_EN.txt	GIRL	6	5	[0, 0, 0]	n/a	FR1	0	R1441T
573.98	0.818	653252	WORD_OFF	n/a	n/a	GIRL	6	5	[0, 0, 0]	n/a	FR1	0	R1441T
574.798	1.615	654062	WORD	n/a	wordpools/wordpool_long_EN.txt	SPONGE	7	5	[0, 0, 0]	n/a	FR1	0	R1441T
576.413	0.985	655683	WORD_OFF	n/a	n/a	SPONGE	7	5	[0, 0, 0]	n/a	FR1	0	R1441T
577.398	1.616	656661	WORD	n/a	wordpools/wordpool_long_EN.txt	SNACK	8	5	[0, 0, 0]	n/a	FR1	0	R1441T
579.014	0.816	658282	WORD_OFF	n/a	n/a	SNACK	8	5	[0, 0, 0]	n/a	FR1	0	R1441T
579.83	1.601	659092	WORD	n/a	wordpools/wordpool_long_EN.txt	RAKE	9	5	[0, 0, 0]	n/a	FR1	0	R1441T
581.431	0.967	660699	WORD_OFF	n/a	n/a	RAKE	9	5	[0, 0, 0]	n/a	FR1	0	R1441T
582.398	1.616	661663	WORD	n/a	wordpools/wordpool_long_EN.txt	HAZE	10	5	[0, 0, 0]	n/a	FR1	0	R1441T
584.014	0.951	663284	WORD_OFF	n/a	n/a	HAZE	10	5	[0, 0, 0]	n/a	FR1	0	R1441T
584.965	1.616	664234	WORD	n/a	wordpools/wordpool_long_EN.txt	RICE	11	5	[0, 0, 0]	n/a	FR1	0	R1441T
586.581	0.982	665854	WORD_OFF	n/a	n/a	RICE	11	5	[0, 0, 0]	n/a	FR1	0	R1441T
587.563	1.601	666832	WORD	n/a	wordpools/wordpool_long_EN.txt	EGG	12	5	[0, 0, 0]	n/a	FR1	0	R1441T
589.164	0.001	668425	WORD_OFF	n/a	n/a	EGG	12	5	[0, 0, 0]	n/a	FR1	0	R1441T
589.165	0.002	668432	PROB	0.002	n/a	n/a	-999	5	[7, 4, 5]	16	FR1	0	R1441T
589.167	0.0	668434	START	n/a	n/a	n/a	-999	5	[-999, -999, -999]	n/a	FR1	0	R1441T
589.167	0.0	668439	ENCODING_END	n/a	n/a	n/a	-999	5	[0, 0, 0]	n/a	FR1	0	R1441T
589.167	10.997	668439	DISTRACT_START	n/a	n/a	n/a	-999	5	[0, 0, 0]	n/a	FR1	0	R1441T
600.164	3.801	679431	PROB	3.801	n/a	n/a	-999	5	[2, 2, 8]	12	FR1	0	R1441T
603.965	4.15	683232	PROB	4.15	n/a	n/a	-999	5	[6, 2, 4]	12	FR1	0	R1441T
608.115	7.182	687381	PROB	7.182	n/a	n/a	-999	5	[1, 3, 2]	6	FR1	0	R1441T
615.297	0.0	694563	STOP	n/a	n/a	n/a	-999	5	[-999, -999, -999]	n/a	FR1	0	R1441T
615.297	1.051	694567	DISTRACT_END	n/a	n/a	n/a	-999	5	[0, 0, 0]	n/a	FR1	0	R1441T
616.348	0.329	695614	REC_START	n/a	n/a	n/a	-999	5	[0, 0, 0]	n/a	FR1	0	R1441T
616.677	0.366	695943	REC_WORD	0.366	n/a	TEETH	1	5	[0, 0, 0]	n/a	FR1	0	R1441T
617.043	1.069	696309	REC_WORD	1.069	n/a	FARM	2	5	[0, 0, 0]	n/a	FR1	0	R1441T
618.112	0.413	697378	REC_WORD	0.413	n/a	RAKE	9	5	[0, 0, 0]	n/a	FR1	0	R1441T
618.525	1.507	697791	REC_WORD	1.507	n/a	HAZE	10	5	[0, 0, 0]	n/a	FR1	0	R1441T
620.032	0.773	699298	REC_WORD	0.773	n/a	RICE	11	5	[0, 0, 0]	n/a	FR1	0	R1441T
620.805	26.786	700071	REC_WORD	26.786	n/a	EGG	12	5	[0, 0, 0]	n/a	FR1	0	R1441T
647.591	2.156	726855	REC_END	n/a	n/a	n/a	-999	5	[0, 0, 0]	n/a	FR1	0	R1441T
649.747	10.35	729007	COUNTDOWN_START	n/a	n/a	n/a	-999	5	[0, 0, 0]	n/a	FR1	0	R1441T
660.097	0.0	739360	COUNTDOWN_END	n/a	n/a	n/a	-999	5	[0, 0, 0]	n/a	FR1	0	R1441T
660.097	2.151	739360	ENCODING_START	n/a	n/a	n/a	-999	6	[0, 0, 0]	n/a	FR1	0	R1441T
662.248	1.616	741512	WORD	n/a	wordpools/wordpool_long_EN.txt	YACHT	1	6	[0, 0, 0]	n/a	FR1	0	R1441T
663.864	0.901	743133	WORD_OFF	n/a	n/a	YACHT	1	6	[0, 0, 0]	n/a	FR1	0	R1441T
664.765	1.616	744027	WORD	n/a	wordpools/wordpool_long_EN.txt	SKUNK	2	6	[0, 0, 0]	n/a	FR1	0	R1441T
666.381	0.884	745648	WORD_OFF	n/a	n/a	SKUNK	2	6	[0, 0, 0]	n/a	FR1	0	R1441T
667.265	1.599	746528	WORD	n/a	wordpools/wordpool_long_EN.txt	BROOK	3	6	[0, 0, 0]	n/a	FR1	0	R1441T
668.864	0.884	748134	WORD_OFF	n/a	n/a	BROOK	3	6	[0, 0, 0]	n/a	FR1	0	R1441T
669.748	1.6	749015	WORD	n/a	wordpools/wordpool_long_EN.txt	MOLE	4	6	[0, 0, 0]	n/a	FR1	0	R1441T
671.348	0.932	750608	WORD_OFF	n/a	n/a	MOLE	4	6	[0, 0, 0]	n/a	FR1	0	R1441T
672.28	1.6	751544	WORD	n/a	wordpools/wordpool_long_EN.txt	ARK	5	6	[0, 0, 0]	n/a	FR1	0	R1441T
673.88	0.917	753150	WORD_OFF	n/a	n/a	ARK	5	6	[0, 0, 0]	n/a	FR1	0	R1441T
674.797	1.601	754059	WORD	n/a	wordpools/wordpool_long_EN.txt	CART	6	6	[0, 0, 0]	n/a	FR1	0	R1441T
676.398	0.998	755665	WORD_OFF	n/a	n/a	CART	6	6	[0, 0, 0]	n/a	FR1	0	R1441T
677.396	1.602	756657	WORD	n/a	wordpools/wordpool_long_EN.txt	PET	7	6	[0, 0, 0]	n/a	FR1	0	R1441T
678.998	0.933	758264	WORD_OFF	n/a	n/a	PET	7	6	[0, 0, 0]	n/a	FR1	0	R1441T
679.931	1.615	759200	WORD	n/a	wordpools/wordpool_long_EN.txt	VEST	8	6	[0, 0, 0]	n/a	FR1	0	R1441T
681.546	0.817	760807	WORD_OFF	n/a	n/a	VEST	8	6	[0, 0, 0]	n/a	FR1	0	R1441T
682.363	1.601	761631	WORD	n/a	wordpools/wordpool_long_EN.txt	ZOO	9	6	[0, 0, 0]	n/a	FR1	0	R1441T
683.964	0.966	763224	WORD_OFF	n/a	n/a	ZOO	9	6	[0, 0, 0]	n/a	FR1	0	R1441T
684.93	1.601	764188	WORD	n/a	wordpools/wordpool_long_EN.txt	TANK	10	6	[0, 0, 0]	n/a	FR1	0	R1441T
686.531	0.8	765795	WORD_OFF	n/a	n/a	TANK	10	6	[0, 0, 0]	n/a	FR1	0	R1441T
687.331	1.615	766591	WORD	n/a	wordpools/wordpool_long_EN.txt	PLAID	11	6	[0, 0, 0]	n/a	FR1	0	R1441T
688.946	0.901	768212	WORD_OFF	n/a	n/a	PLAID	11	6	[0, 0, 0]	n/a	FR1	0	R1441T
689.847	1.6	769106	WORD	n/a	wordpools/wordpool_long_EN.txt	FLAME	12	6	[0, 0, 0]	n/a	FR1	0	R1441T
691.447	0.003	770709	PROB	0.003	n/a	n/a	-999	6	[2, 6, 6]	14	FR1	0	R1441T
691.45	0.0	770712	START	n/a	n/a	n/a	-999	6	[-999, -999, -999]	n/a	FR1	0	R1441T
691.447	0.003	770713	WORD_OFF	n/a	n/a	FLAME	12	6	[0, 0, 0]	n/a	FR1	0	R1441T
691.45	0.0	770713	ENCODING_END	n/a	n/a	n/a	-999	6	[0, 0, 0]	n/a	FR1	0	R1441T
691.45	7.947	770713	DISTRACT_START	n/a	n/a	n/a	-999	6	[0, 0, 0]	n/a	FR1	0	R1441T
699.397	5.833	778659	PROB	5.833	n/a	n/a	-999	6	[7, 8, 1]	16	FR1	0	R1441T
705.23	6.934	784492	PROB	6.934	n/a	n/a	-999	6	[4, 2, 4]	10	FR1	0	R1441T
712.164	0.0	791419	DISTRACT_END	n/a	n/a	n/a	-999	6	[0, 0, 0]	n/a	FR1	0	R1441T
712.164	1.101	791425	STOP	n/a	n/a	n/a	-999	6	[-999, -999, -999]	n/a	FR1	0	R1441T
713.265	0.219	792523	REC_START	n/a	n/a	n/a	-999	6	[0, 0, 0]	n/a	FR1	0	R1441T
713.484	0.489	792745	REC_WORD	0.489	n/a	YACHT	1	6	[0, 0, 0]	n/a	FR1	0	R1441T
713.973	1.105	793234	REC_WORD	1.105	n/a	SKUNK	2	6	[0, 0, 0]	n/a	FR1	0	R1441T
715.078	0.607	794339	REC_WORD	0.607	n/a	ROOT	-999	6	[0, 0, 0]	n/a	FR1	0	R1441T
715.685	0.701	794946	REC_WORD	0.701	n/a	MOLE	4	6	[0, 0, 0]	n/a	FR1	0	R1441T
716.386	1.024	795647	REC_WORD	1.024	n/a	ZOO	9	6	[0, 0, 0]	n/a	FR1	0	R1441T
717.41	27.116	796671	REC_WORD	27.116	n/a	ARK	5	6	[0, 0, 0]	n/a	FR1	0	R1441T
744.526	1.437	823792	REC_END	n/a	n/a	n/a	-999	6	[0, 0, 0]	n/a	FR1	0	R1441T
745.963	10.352	825231	COUNTDOWN_START	n/a	n/a	n/a	-999	6	[0, 0, 0]	n/a	FR1	0	R1441T
756.315	0.0	835570	COUNTDOWN_END	n/a	n/a	n/a	-999	6	[0, 0, 0]	n/a	FR1	0	R1441T
756.315	2.264	835570	ENCODING_START	n/a	n/a	n/a	-999	7	[0, 0, 0]	n/a	FR1	0	R1441T
758.579	1.601	837834	WORD	n/a	wordpools/wordpool_long_EN.txt	FENCE	1	7	[0, 0, 0]	n/a	FR1	0	R1441T
760.18	0.932	839440	WORD_OFF	n/a	n/a	FENCE	1	7	[0, 0, 0]	n/a	FR1	0	R1441T
761.112	1.602	840376	WORD	n/a	wordpools/wordpool_long_EN.txt	THRONE	2	7	[0, 0, 0]	n/a	FR1	0	R1441T
762.714	0.834	841969	WORD_OFF	n/a	n/a	THRONE	2	7	[0, 0, 0]	n/a	FR1	0	R1441T
763.548	1.617	842808	WORD	n/a	wordpools/wordpool_long_EN.txt	LINT	3	7	[0, 0, 0]	n/a	FR1	0	R1441T
765.165	0.849	844428	WORD_OFF	n/a	n/a	LINT	3	7	[0, 0, 0]	n/a	FR1	0	R1441T
766.014	1.599	845267	WORD	n/a	wordpools/wordpool_long_EN.txt	FRAME	4	7	[0, 0, 0]	n/a	FR1	0	R1441T
767.613	0.767	846873	WORD_OFF	n/a	n/a	FRAME	4	7	[0, 0, 0]	n/a	FR1	0	R1441T
768.38	1.601	847642	WORD	n/a	wordpools/wordpool_long_EN.txt	MASK	5	7	[0, 0, 0]	n/a	FR1	0	R1441T
769.981	0.833	849235	WORD_OFF	n/a	n/a	MASK	5	7	[0, 0, 0]	n/a	FR1	0	R1441T
770.814	1.615	850073	WORD	n/a	wordpools/wordpool_long_EN.txt	ICE	6	7	[0, 0, 0]	n/a	FR1	0	R1441T
772.429	0.936	851694	WORD_OFF	n/a	n/a	ICE	6	7	[0, 0, 0]	n/a	FR1	0	R1441T
773.365	1.615	852616	WORD	n/a	wordpools/wordpool_long_EN.txt	CASH	7	7	[0, 0, 0]	n/a	FR1	0	R1441T
774.98	0.916	854236	WORD_OFF	n/a	n/a	CASH	7	7	[0, 0, 0]	n/a	FR1	0	R1441T
775.896	1.601	855159	WORD	n/a	wordpools/wordpool_long_EN.txt	PARK	8	7	[0, 0, 0]	n/a	FR1	0	R1441T
777.497	0.932	856751	WORD_OFF	n/a	n/a	PARK	8	7	[0, 0, 0]	n/a	FR1	0	R1441T
778.429	1.602	857688	WORD	n/a	wordpools/wordpool_long_EN.txt	SUN	9	7	[0, 0, 0]	n/a	FR1	0	R1441T
780.031	0.967	859294	WORD_OFF	n/a	n/a	SUN	9	7	[0, 0, 0]	n/a	FR1	0	R1441T
780.998	1.6	860258	WORD	n/a	wordpools/wordpool_long_EN.txt	THREAD	10	7	[0, 0, 0]	n/a	FR1	0	R1441T
782.598	0.782	861851	WORD_OFF	n/a	n/a	THREAD	10	7	[0, 0, 0]	n/a	FR1	0	R1441T
783.38	1.618	862634	WORD	n/a	wordpools/wordpool_long_EN.txt	SCOTCH	11	7	[0, 0, 0]	n/a	FR1	0	R1441T
784.998	0.849	864254	WORD_OFF	n/a	n/a	SCOTCH	11	7	[0, 0, 0]	n/a	FR1	0	R1441T
785.847	1.617	865107	WORD	n/a	wordpools/wordpool_long_EN.txt	CLIFF	12	7	[0, 0, 0]	n/a	FR1	0	R1441T
787.464	0.003	866721	PROB	0.003	n/a	n/a	-999	7	[2, 2, 4]	8	FR1	0	R1441T
787.467	0.0	866724	START	n/a	n/a	n/a	-999	7	[-999, -999, -999]	n/a	FR1	0	R1441T
787.464	0.003	866727	WORD_OFF	n/a	n/a	CLIFF	12	7	[0, 0, 0]	n/a	FR1	0	R1441T
787.467	0.0	866727	ENCODING_END	n/a	n/a	n/a	-999	7	[0, 0, 0]	n/a	FR1	0	R1441T
787.467	17.397	866727	DISTRACT_START	n/a	n/a	n/a	-999	7	[0, 0, 0]	n/a	FR1	0	R1441T
804.864	5.583	884121	PROB	5.583	n/a	n/a	-999	7	[4, 8, 4]	16	FR1	0	R1441T
810.447	0.0	889697	DISTRACT_END	n/a	n/a	n/a	-999	7	[0, 0, 0]	n/a	FR1	0	R1441T
810.447	1.234	889703	STOP	n/a	n/a	n/a	-999	7	[-999, -999, -999]	n/a	FR1	0	R1441T
811.681	0.43	890940	REC_START	n/a	n/a	n/a	-999	7	[0, 0, 0]	n/a	FR1	0	R1441T
812.111	0.691	891367	REC_WORD	0.691	n/a	FENCE	1	7	[0, 0, 0]	n/a	FR1	0	R1441T
812.802	0.638	892058	REC_WORD	0.638	n/a	SUN	9	7	[0, 0, 0]	n/a	FR1	0	R1441T
813.44	1.329	892696	REC_WORD	1.329	n/a	SCOTCH	11	7	[0, 0, 0]	n/a	FR1	0	R1441T
814.769	0.699	894025	REC_WORD	0.699	n/a	ICE	6	7	[0, 0, 0]	n/a	FR1	0	R1441T
815.468	0.821	894724	REC_WORD	0.821	n/a	CASH	7	7	[0, 0, 0]	n/a	FR1	0	R1441T
816.289	26.627	895545	REC_WORD	26.627	n/a	PARK	8	7	[0, 0, 0]	n/a	FR1	0	R1441T
842.916	1.681	922167	REC_END	n/a	n/a	n/a	-999	7	[0, 0, 0]	n/a	FR1	0	R1441T
844.597	10.351	923858	COUNTDOWN_START	n/a	n/a	n/a	-999	7	[0, 0, 0]	n/a	FR1	0	R1441T
854.948	0.0	934197	COUNTDOWN_END	n/a	n/a	n/a	-999	7	[0, 0, 0]	n/a	FR1	0	R1441T
854.948	2.049	934197	ENCODING_START	n/a	n/a	n/a	-999	8	[0, 0, 0]	n/a	FR1	0	R1441T
856.997	1.601	936251	WORD	n/a	wordpools/wordpool_long_EN.txt	GRILL	1	8	[0, 0, 0]	n/a	FR1	0	R1441T
858.598	0.9	937858	WORD_OFF	n/a	n/a	GRILL	1	8	[0, 0, 0]	n/a	FR1	0	R1441T
859.498	1.615	938752	WORD	n/a	wordpools/wordpool_long_EN.txt	LOCK	2	8	[0, 0, 0]	n/a	FR1	0	R1441T
861.113	0.918	940373	WORD_OFF	n/a	n/a	LOCK	2	8	[0, 0, 0]	n/a	FR1	0	R1441T
862.031	1.615	941281	WORD	n/a	wordpools/wordpool_long_EN.txt	PLATE	3	8	[0, 0, 0]	n/a	FR1	0	R1441T
863.646	0.817	942902	WORD_OFF	n/a	n/a	PLATE	3	8	[0, 0, 0]	n/a	FR1	0	R1441T
864.463	1.601	943712	WORD	n/a	wordpools/wordpool_long_EN.txt	SOUP	4	8	[0, 0, 0]	n/a	FR1	0	R1441T
866.064	0.783	945319	WORD_OFF	n/a	n/a	SOUP	4	8	[0, 0, 0]	n/a	FR1	0	R1441T
866.847	1.6	946101	WORD	n/a	wordpools/wordpool_long_EN.txt	BATH	5	8	[0, 0, 0]	n/a	FR1	0	R1441T
868.447	0.849	947694	WORD_OFF	n/a	n/a	BATH	5	8	[0, 0, 0]	n/a	FR1	0	R1441T
869.296	1.601	948546	WORD	n/a	wordpools/wordpool_long_EN.txt	SHIELD	6	8	[0, 0, 0]	n/a	FR1	0	R1441T
870.897	0.867	950153	WORD_OFF	n/a	n/a	SHIELD	6	8	[0, 0, 0]	n/a	FR1	0	R1441T
871.764	1.6	951019	WORD	n/a	wordpools/wordpool_long_EN.txt	HOOD	7	8	[0, 0, 0]	n/a	FR1	0	R1441T
873.364	0.999	952612	WORD_OFF	n/a	n/a	HOOD	7	8	[0, 0, 0]	n/a	FR1	0	R1441T
874.363	1.6	953618	WORD	n/a	wordpools/wordpool_long_EN.txt	RUST	8	8	[0, 0, 0]	n/a	FR1	0	R1441T
875.963	0.935	955211	WORD_OFF	n/a	n/a	RUST	8	8	[0, 0, 0]	n/a	FR1	0	R1441T
876.898	1.616	956147	WORD	n/a	wordpools/wordpool_long_EN.txt	ARCH	9	8	[0, 0, 0]	n/a	FR1	0	R1441T
878.514	0.95	957768	WORD_OFF	n/a	n/a	ARCH	9	8	[0, 0, 0]	n/a	FR1	0	R1441T
879.464	1.6	958718	WORD	n/a	wordpools/wordpool_long_EN.txt	BRICK	10	8	[0, 0, 0]	n/a	FR1	0	R1441T
881.064	0.949	960325	WORD_OFF	n/a	n/a	BRICK	10	8	[0, 0, 0]	n/a	FR1	0	R1441T
882.013	1.601	961261	WORD	n/a	wordpools/wordpool_long_EN.txt	FORT	11	8	[0, 0, 0]	n/a	FR1	0	R1441T
883.614	0.799	962867	WORD_OFF	n/a	n/a	FORT	11	8	[0, 0, 0]	n/a	FR1	0	R1441T
884.413	1.601	963664	WORD	n/a	wordpools/wordpool_long_EN.txt	DITCH	12	8	[0, 0, 0]	n/a	FR1	0	R1441T
886.014	0.002	965267	PROB	0.002	n/a	n/a	-999	8	[3, 7, 7]	17	FR1	0	R1441T
886.016	0.0	965269	START	n/a	n/a	n/a	-999	8	[-999, -999, -999]	n/a	FR1	0	R1441T
886.014	0.002	965270	WORD_OFF	n/a	n/a	DITCH	12	8	[0, 0, 0]	n/a	FR1	0	R1441T
886.016	0.0	965270	ENCODING_END	n/a	n/a	n/a	-999	8	[0, 0, 0]	n/a	FR1	0	R1441T
886.016	7.416	965270	DISTRACT_START	n/a	n/a	n/a	-999	8	[0, 0, 0]	n/a	FR1	0	R1441T
893.432	8.349	972684	PROB	8.349	n/a	n/a	-999	8	[7, 7, 6]	20	FR1	0	R1441T
901.781	13.583	981033	PROB	13.583	n/a	n/a	-999	8	[7, 5, 3]	15	FR1	0	R1441T
915.364	0.0	994611	DISTRACT_END	n/a	n/a	n/a	-999	8	[0, 0, 0]	n/a	FR1	0	R1441T
915.364	1.384	994615	STOP	n/a	n/a	n/a	-999	8	[-999, -999, -999]	n/a	FR1	0	R1441T
916.748	0.433	995995	REC_START	n/a	n/a	n/a	-999	8	[0, 0, 0]	n/a	FR1	0	R1441T
917.181	0.645	996432	REC_WORD	0.645	n/a	LOCK	2	8	[0, 0, 0]	n/a	FR1	0	R1441T
917.826	0.674	997077	REC_WORD	0.674	n/a	PLATE	3	8	[0, 0, 0]	n/a	FR1	0	R1441T
918.5	0.577	997751	REC_WORD	0.577	n/a	FORT	11	8	[0, 0, 0]	n/a	FR1	0	R1441T
919.077	3.675	998328	REC_WORD	3.675	n/a	SHIELD	6	8	[0, 0, 0]	n/a	FR1	0	R1441T
922.752	25.257	1002003	REC_WORD	25.257	n/a	HOOD	7	8	[0, 0, 0]	n/a	FR1	0	R1441T
948.009	10.222	1027263	REC_END	n/a	n/a	n/a	-999	8	[0, 0, 0]	n/a	FR1	0	R1441T
958.231	10.35	1037477	COUNTDOWN_START	n/a	n/a	n/a	-999	8	[0, 0, 0]	n/a	FR1	0	R1441T
968.581	0.0	1047830	COUNTDOWN_END	n/a	n/a	n/a	-999	8	[0, 0, 0]	n/a	FR1	0	R1441T
968.581	2.283	1047830	ENCODING_START	n/a	n/a	n/a	-999	9	[0, 0, 0]	n/a	FR1	0	R1441T
970.864	1.616	1050107	WORD	n/a	wordpools/wordpool_long_EN.txt	DIME	1	9	[0, 0, 0]	n/a	FR1	0	R1441T
972.48	0.883	1051728	WORD_OFF	n/a	n/a	DIME	1	9	[0, 0, 0]	n/a	FR1	0	R1441T
973.363	1.601	1052608	WORD	n/a	wordpools/wordpool_long_EN.txt	BENCH	2	9	[0, 0, 0]	n/a	FR1	0	R1441T
974.964	0.9	1054215	WORD_OFF	n/a	n/a	BENCH	2	9	[0, 0, 0]	n/a	FR1	0	R1441T
975.864	1.616	1055109	WORD	n/a	wordpools/wordpool_long_EN.txt	MEAT	3	9	[0, 0, 0]	n/a	FR1	0	R1441T
977.48	0.784	1056730	WORD_OFF	n/a	n/a	MEAT	3	9	[0, 0, 0]	n/a	FR1	0	R1441T
978.264	1.615	1057512	WORD	n/a	wordpools/wordpool_long_EN.txt	CONE	4	9	[0, 0, 0]	n/a	FR1	0	R1441T
979.879	0.918	1059133	WORD_OFF	n/a	n/a	CONE	4	9	[0, 0, 0]	n/a	FR1	0	R1441T
980.797	1.601	1060041	WORD	n/a	wordpools/wordpool_long_EN.txt	CHIEF	5	9	[0, 0, 0]	n/a	FR1	0	R1441T
982.398	0.966	1061648	WORD_OFF	n/a	n/a	CHIEF	5	9	[0, 0, 0]	n/a	FR1	0	R1441T
983.364	1.616	1062612	WORD	n/a	wordpools/wordpool_long_EN.txt	HOSE	6	9	[0, 0, 0]	n/a	FR1	0	R1441T
984.98	0.9	1064233	WORD_OFF	n/a	n/a	HOSE	6	9	[0, 0, 0]	n/a	FR1	0	R1441T
985.88	1.601	1065127	WORD	n/a	wordpools/wordpool_long_EN.txt	RUG	7	9	[0, 0, 0]	n/a	FR1	0	R1441T
987.481	0.766	1066734	WORD_OFF	n/a	n/a	RUG	7	9	[0, 0, 0]	n/a	FR1	0	R1441T
988.247	1.6	1067488	WORD	n/a	wordpools/wordpool_long_EN.txt	INN	8	9	[0, 0, 0]	n/a	FR1	0	R1441T
989.847	0.867	1069095	WORD_OFF	n/a	n/a	INN	8	9	[0, 0, 0]	n/a	FR1	0	R1441T
990.714	1.617	1069961	WORD	n/a	wordpools/wordpool_long_EN.txt	MAP	9	9	[0, 0, 0]	n/a	FR1	0	R1441T
992.331	0.983	1071582	WORD_OFF	n/a	n/a	MAP	9	9	[0, 0, 0]	n/a	FR1	0	R1441T
993.314	1.616	1072560	WORD	n/a	wordpools/wordpool_long_EN.txt	SWORD	10	9	[0, 0, 0]	n/a	FR1	0	R1441T
994.93	0.884	1074181	WORD_OFF	n/a	n/a	SWORD	10	9	[0, 0, 0]	n/a	FR1	0	R1441T
995.814	1.6	1075061	WORD	n/a	wordpools/wordpool_long_EN.txt	BUG	11	9	[0, 0, 0]	n/a	FR1	0	R1441T
997.414	0.85	1076668	WORD_OFF	n/a	n/a	BUG	11	9	[0, 0, 0]	n/a	FR1	0	R1441T
998.264	1.6	1077506	WORD	n/a	wordpools/wordpool_long_EN.txt	NET	12	9	[0, 0, 0]	n/a	FR1	0	R1441T
999.864	0.001	1079111	PROB	0.001	n/a	n/a	-999	9	[5, 6, 2]	13	FR1	0	R1441T
999.865	0.0	1079112	START	n/a	n/a	n/a	-999	9	[-999, -999, -999]	n/a	FR1	0	R1441T
999.864	0.001	1079113	WORD_OFF	n/a	n/a	NET	12	9	[0, 0, 0]	n/a	FR1	0	R1441T
999.865	0.0	1079113	ENCODING_END	n/a	n/a	n/a	-999	9	[0, 0, 0]	n/a	FR1	0	R1441T
999.865	8.166	1079113	DISTRACT_START	n/a	n/a	n/a	-999	9	[0, 0, 0]	n/a	FR1	0	R1441T
1008.031	10.25	1087277	PROB	10.25	n/a	n/a	-999	9	[2, 5, 3]	10	FR1	0	R1441T
1018.281	5.349	1097527	PROB	5.349	n/a	n/a	-999	9	[3, 2, 5]	10	FR1	0	R1441T
1023.63	0.0	1102876	STOP	n/a	n/a	n/a	-999	9	[-999, -999, -999]	n/a	FR1	0	R1441T
1023.63	1.319	1102879	DISTRACT_END	n/a	n/a	n/a	-999	9	[0, 0, 0]	n/a	FR1	0	R1441T
1024.949	0.14	1104192	REC_START	n/a	n/a	n/a	-999	9	[0, 0, 0]	n/a	FR1	0	R1441T
1025.089	0.596	1104335	REC_WORD	0.596	n/a	DIME	1	9	[0, 0, 0]	n/a	FR1	0	R1441T
1025.685	0.562	1104931	REC_WORD	0.562	n/a	BENCH	2	9	[0, 0, 0]	n/a	FR1	0	R1441T
1026.247	0.698	1105493	REC_WORD	0.698	n/a	CHIEF	5	9	[0, 0, 0]	n/a	FR1	0	R1441T
1026.945	0.783	1106190	REC_WORD	0.783	n/a	MEAT	3	9	[0, 0, 0]	n/a	FR1	0	R1441T
1027.728	0.765	1106973	REC_WORD	0.765	n/a	CONE	4	9	[0, 0, 0]	n/a	FR1	0	R1441T
1028.493	27.681	1107738	REC_WORD	27.681	n/a	BUG	11	9	[0, 0, 0]	n/a	FR1	0	R1441T
1056.174	2.273	1135419	REC_END	n/a	n/a	n/a	-999	9	[0, 0, 0]	n/a	FR1	0	R1441T
1058.447	10.351	1137697	COUNTDOWN_START	n/a	n/a	n/a	-999	9	[0, 0, 0]	n/a	FR1	0	R1441T
1068.798	0.0	1148036	COUNTDOWN_END	n/a	n/a	n/a	-999	9	[0, 0, 0]	n/a	FR1	0	R1441T
1068.798	2.15	1148050	ENCODING_START	n/a	n/a	n/a	-999	10	[0, 0, 0]	n/a	FR1	0	R1441T
1070.948	1.6	1150188	WORD	n/a	wordpools/wordpool_long_EN.txt	MAT	1	10	[0, 0, 0]	n/a	FR1	0	R1441T
1072.548	0.765	1151794	WORD_OFF	n/a	n/a	MAT	1	10	[0, 0, 0]	n/a	FR1	0	R1441T
1073.313	1.601	1152563	WORD	n/a	wordpools/wordpool_long_EN.txt	JUDGE	2	10	[0, 0, 0]	n/a	FR1	0	R1441T
1074.914	0.984	1154156	WORD_OFF	n/a	n/a	JUDGE	2	10	[0, 0, 0]	n/a	FR1	0	R1441T
1075.898	1.6	1155148	WORD	n/a	wordpools/wordpool_long_EN.txt	CLAM	3	10	[0, 0, 0]	n/a	FR1	0	R1441T
1077.498	0.783	1156740	WORD_OFF	n/a	n/a	CLAM	3	10	[0, 0, 0]	n/a	FR1	0	R1441T
1078.281	1.615	1157523	WORD	n/a	wordpools/wordpool_long_EN.txt	DART	4	10	[0, 0, 0]	n/a	FR1	0	R1441T
1079.896	0.817	1159143	WORD_OFF	n/a	n/a	DART	4	10	[0, 0, 0]	n/a	FR1	0	R1441T
1080.713	1.601	1159954	WORD	n/a	wordpools/wordpool_long_EN.txt	PIT	5	10	[0, 0, 0]	n/a	FR1	0	R1441T
1082.314	0.9	1161561	WORD_OFF	n/a	n/a	PIT	5	10	[0, 0, 0]	n/a	FR1	0	R1441T
1083.214	1.617	1162455	WORD	n/a	wordpools/wordpool_long_EN.txt	RAT	6	10	[0, 0, 0]	n/a	FR1	0	R1441T
1084.831	0.916	1164076	WORD_OFF	n/a	n/a	RAT	6	10	[0, 0, 0]	n/a	FR1	0	R1441T
1085.747	1.6	1164984	WORD	n/a	wordpools/wordpool_long_EN.txt	ROD	7	10	[0, 0, 0]	n/a	FR1	0	R1441T
1087.347	0.834	1166590	WORD_OFF	n/a	n/a	ROD	7	10	[0, 0, 0]	n/a	FR1	0	R1441T
1088.181	1.616	1167429	WORD	n/a	wordpools/wordpool_long_EN.txt	SEED	8	10	[0, 0, 0]	n/a	FR1	0	R1441T
1089.797	0.767	1169036	WORD_OFF	n/a	n/a	SEED	8	10	[0, 0, 0]	n/a	FR1	0	R1441T
1090.564	1.617	1169804	WORD	n/a	wordpools/wordpool_long_EN.txt	SKATE	9	10	[0, 0, 0]	n/a	FR1	0	R1441T
1092.181	0.9	1171425	WORD_OFF	n/a	n/a	SKATE	9	10	[0, 0, 0]	n/a	FR1	0	R1441T
1093.081	1.6	1172319	WORD	n/a	wordpools/wordpool_long_EN.txt	LAND	10	10	[0, 0, 0]	n/a	FR1	0	R1441T
1094.681	0.933	1173926	WORD_OFF	n/a	n/a	LAND	10	10	[0, 0, 0]	n/a	FR1	0	R1441T
1095.614	1.617	1174862	WORD	n/a	wordpools/wordpool_long_EN.txt	TROUT	11	10	[0, 0, 0]	n/a	FR1	0	R1441T
1097.231	0.917	1176469	WORD_OFF	n/a	n/a	TROUT	11	10	[0, 0, 0]	n/a	FR1	0	R1441T
1098.148	1.617	1177391	WORD	n/a	wordpools/wordpool_long_EN.txt	VASE	12	10	[0, 0, 0]	n/a	FR1	0	R1441T
1099.765	0.003	1179007	PROB	0.003	n/a	n/a	-999	10	[1, 8, 2]	11	FR1	0	R1441T
1099.768	0.0	1179010	START	n/a	n/a	n/a	-999	10	[-999, -999, -999]	n/a	FR1	0	R1441T
1099.764	0.004	1179011	WORD_OFF	n/a	n/a	VASE	12	10	[0, 0, 0]	n/a	FR1	0	R1441T
1099.768	0.0	1179011	ENCODING_END	n/a	n/a	n/a	-999	10	[0, 0, 0]	n/a	FR1	0	R1441T
1099.768	6.863	1179011	DISTRACT_START	n/a	n/a	n/a	-999	10	[0, 0, 0]	n/a	FR1	0	R1441T
1106.631	11.684	1185872	PROB	11.684	n/a	n/a	-999	10	[8, 1, 5]	14	FR1	0	R1441T
1118.315	9.049	1197556	PROB	9.049	n/a	n/a	-999	10	[4, 3, 8]	15	FR1	0	R1441T
1127.364	0.0	1206604	STOP	n/a	n/a	n/a	-999	10	[-999, -999, -999]	n/a	FR1	0	R1441T
1127.364	1.333	1206606	DISTRACT_END	n/a	n/a	n/a	-999	10	[0, 0, 0]	n/a	FR1	0	R1441T
1128.697	0.665	1207933	REC_START	n/a	n/a	n/a	-999	10	[0, 0, 0]	n/a	FR1	0	R1441T
1129.362	0.711	1208602	REC_WORD	0.711	n/a	RAT	6	10	[0, 0, 0]	n/a	FR1	0	R1441T
1130.073	0.438	1209313	REC_WORD	0.438	n/a	ROD	7	10	[0, 0, 0]	n/a	FR1	0	R1441T
1130.511	0.816	1209751	REC_WORD	0.816	n/a	SKATE	9	10	[0, 0, 0]	n/a	FR1	0	R1441T
1131.327	1.724	1210567	REC_WORD	1.724	n/a	LAND	10	10	[0, 0, 0]	n/a	FR1	0	R1441T
1133.051	0.648	1212291	REC_WORD	0.648	n/a	MOUTH	-999	10	[0, 0, 0]	n/a	FR1	0	R1441T
1133.699	26.243	1212939	REC_WORD	26.243	n/a	MAT	1	10	[0, 0, 0]	n/a	FR1	0	R1441T
1159.942	3.655	1239188	REC_END	n/a	n/a	n/a	-999	10	[0, 0, 0]	n/a	FR1	0	R1441T
1163.597	10.351	1242835	COUNTDOWN_START	n/a	n/a	n/a	-999	10	[0, 0, 0]	n/a	FR1	0	R1441T
1173.948	0.0	1253188	COUNTDOWN_END	n/a	n/a	n/a	-999	10	[0, 0, 0]	n/a	FR1	0	R1441T
1173.948	1.999	1253188	ENCODING_START	n/a	n/a	n/a	-999	11	[0, 0, 0]	n/a	FR1	0	R1441T
1175.947	1.6	1255186	WORD	n/a	wordpools/wordpool_long_EN.txt	MOOSE	1	11	[0, 0, 0]	n/a	FR1	0	R1441T
1177.547	0.901	1256793	WORD_OFF	n/a	n/a	MOOSE	1	11	[0, 0, 0]	n/a	FR1	0	R1441T
1178.448	1.616	1257687	WORD	n/a	wordpools/wordpool_long_EN.txt	CANE	2	11	[0, 0, 0]	n/a	FR1	0	R1441T
1180.064	0.983	1259307	WORD_OFF	n/a	n/a	CANE	2	11	[0, 0, 0]	n/a	FR1	0	R1441T
1181.047	1.601	1260285	WORD	n/a	wordpools/wordpool_long_EN.txt	OAR	3	11	[0, 0, 0]	n/a	FR1	0	R1441T
1182.648	0.799	1261892	WORD_OFF	n/a	n/a	OAR	3	11	[0, 0, 0]	n/a	FR1	0	R1441T
1183.447	1.616	1262689	WORD	n/a	wordpools/wordpool_long_EN.txt	HAT	4	11	[0, 0, 0]	n/a	FR1	0	R1441T
1185.063	0.819	1264295	WORD_OFF	n/a	n/a	HAT	4	11	[0, 0, 0]	n/a	FR1	0	R1441T
1185.882	1.616	1265120	WORD	n/a	wordpools/wordpool_long_EN.txt	GUARD	5	11	[0, 0, 0]	n/a	FR1	0	R1441T
1187.498	0.8	1266740	WORD_OFF	n/a	n/a	GUARD	5	11	[0, 0, 0]	n/a	FR1	0	R1441T
1188.298	1.616	1267537	WORD	n/a	wordpools/wordpool_long_EN.txt	SLUSH	6	11	[0, 0, 0]	n/a	FR1	0	R1441T
1189.914	0.799	1269158	WORD_OFF	n/a	n/a	SLUSH	6	11	[0, 0, 0]	n/a	FR1	0	R1441T
1190.713	1.601	1269954	WORD	n/a	wordpools/wordpool_long_EN.txt	DEER	7	11	[0, 0, 0]	n/a	FR1	0	R1441T
1192.314	0.967	1271547	WORD_OFF	n/a	n/a	DEER	7	11	[0, 0, 0]	n/a	FR1	0	R1441T
1193.281	1.617	1272525	WORD	n/a	wordpools/wordpool_long_EN.txt	PLANT	8	11	[0, 0, 0]	n/a	FR1	0	R1441T
1194.898	0.849	1274132	WORD_OFF	n/a	n/a	PLANT	8	11	[0, 0, 0]	n/a	FR1	0	R1441T
1195.747	1.601	1274984	WORD	n/a	wordpools/wordpool_long_EN.txt	BREAD	9	11	[0, 0, 0]	n/a	FR1	0	R1441T
1197.348	0.8	1276591	WORD_OFF	n/a	n/a	BREAD	9	11	[0, 0, 0]	n/a	FR1	0	R1441T
1198.148	1.616	1277387	WORD	n/a	wordpools/wordpool_long_EN.txt	BRANCH	10	11	[0, 0, 0]	n/a	FR1	0	R1441T
1199.764	0.8	1279008	WORD_OFF	n/a	n/a	BRANCH	10	11	[0, 0, 0]	n/a	FR1	0	R1441T
1200.564	1.6	1279804	WORD	n/a	wordpools/wordpool_long_EN.txt	GLOBE	11	11	[0, 0, 0]	n/a	FR1	0	R1441T
1202.164	0.949	1281397	WORD_OFF	n/a	n/a	GLOBE	11	11	[0, 0, 0]	n/a	FR1	0	R1441T
1203.113	1.602	1282347	WORD	n/a	wordpools/wordpool_long_EN.txt	BOOK	12	11	[0, 0, 0]	n/a	FR1	0	R1441T
1204.715	0.0	1283952	PROB	0.0	n/a	n/a	-999	11	[8, 3, 3]	14	FR1	0	R1441T
1204.714	0.003	1283954	WORD_OFF	n/a	n/a	BOOK	12	11	[0, 0, 0]	n/a	FR1	0	R1441T
1204.717	0.0	1283954	ENCODING_END	n/a	n/a	n/a	-999	11	[0, 0, 0]	n/a	FR1	0	R1441T
1204.717	0.0	1283954	DISTRACT_START	n/a	n/a	n/a	-999	11	[0, 0, 0]	n/a	FR1	0	R1441T
1204.717	10.064	1283954	START	n/a	n/a	n/a	-999	11	[-999, -999, -999]	n/a	FR1	0	R1441T
1214.781	3.316	1294017	PROB	3.316	n/a	n/a	-999	11	[3, 3, 1]	7	FR1	0	R1441T
1218.097	7.483	1297333	PROB	7.483	n/a	n/a	-999	11	[6, 5, 8]	19	FR1	0	R1441T
1225.58	0.0	1304814	DISTRACT_END	n/a	n/a	n/a	-999	11	[0, 0, 0]	n/a	FR1	0	R1441T
1225.58	1.084	1304816	STOP	n/a	n/a	n/a	-999	11	[-999, -999, -999]	n/a	FR1	0	R1441T
1226.664	0.446	1305903	REC_START	n/a	n/a	n/a	-999	11	[0, 0, 0]	n/a	FR1	0	R1441T
1227.11	0.898	1306345	REC_WORD	0.898	n/a	MOOSE	1	11	[0, 0, 0]	n/a	FR1	0	R1441T
1228.008	0.755	1307243	REC_WORD	0.755	n/a	CANE	2	11	[0, 0, 0]	n/a	FR1	0	R1441T
1228.763	0.748	1307998	REC_WORD	0.748	n/a	OAR	3	11	[0, 0, 0]	n/a	FR1	0	R1441T
1229.511	0.863	1308746	REC_WORD	0.863	n/a	HAT	4	11	[0, 0, 0]	n/a	FR1	0	R1441T
1230.374	0.883	1309609	REC_WORD	0.883	n/a	DEER	7	11	[0, 0, 0]	n/a	FR1	0	R1441T
1231.257	2.539	1310492	REC_WORD	2.539	n/a	GUARD	5	11	[0, 0, 0]	n/a	FR1	0	R1441T
1233.796	24.135	1313031	REC_WORD	24.135	n/a	BRANCH	10	11	[0, 0, 0]	n/a	FR1	0	R1441T
1257.931	3.133	1337172	REC_END	n/a	n/a	n/a	-999	11	[0, 0, 0]	n/a	FR1	0	R1441T
1261.064	10.35	1340302	COUNTDOWN_START	n/a	n/a	n/a	-999	11	[0, 0, 0]	n/a	FR1	0	R1441T
1271.414	0.0	1350641	COUNTDOWN_END	n/a	n/a	n/a	-999	11	[0, 0, 0]	n/a	FR1	0	R1441T
1271.414	2.0	1350655	ENCODING_START	n/a	n/a	n/a	-999	12	[0, 0, 0]	n/a	FR1	0	R1441T
1273.414	1.617	1352653	WORD	n/a	wordpools/wordpool_long_EN.txt	TOOL	1	12	[0, 0, 0]	n/a	FR1	0	R1441T
1275.031	0.966	1354260	WORD_OFF	n/a	n/a	TOOL	1	12	[0, 0, 0]	n/a	FR1	0	R1441T
1275.997	1.618	1355224	WORD	n/a	wordpools/wordpool_long_EN.txt	YARN	2	12	[0, 0, 0]	n/a	FR1	0	R1441T
1277.615	0.949	1356845	WORD_OFF	n/a	n/a	YARN	2	12	[0, 0, 0]	n/a	FR1	0	R1441T
1278.564	1.617	1357795	WORD	n/a	wordpools/wordpool_long_EN.txt	HOUND	3	12	[0, 0, 0]	n/a	FR1	0	R1441T
1280.181	0.982	1359416	WORD_OFF	n/a	n/a	HOUND	3	12	[0, 0, 0]	n/a	FR1	0	R1441T
1281.163	1.601	1360394	WORD	n/a	wordpools/wordpool_long_EN.txt	SLEEVE	4	12	[0, 0, 0]	n/a	FR1	0	R1441T
1282.764	0.8	1362000	WORD_OFF	n/a	n/a	SLEEVE	4	12	[0, 0, 0]	n/a	FR1	0	R1441T
1283.564	1.616	1362797	WORD	n/a	wordpools/wordpool_long_EN.txt	SMILE	5	12	[0, 0, 0]	n/a	FR1	0	R1441T
1285.18	0.868	1364417	WORD_OFF	n/a	n/a	SMILE	5	12	[0, 0, 0]	n/a	FR1	0	R1441T
1286.048	1.615	1365284	WORD	n/a	wordpools/wordpool_long_EN.txt	STREET	6	12	[0, 0, 0]	n/a	FR1	0	R1441T
1287.663	0.918	1366890	WORD_OFF	n/a	n/a	STREET	6	12	[0, 0, 0]	n/a	FR1	0	R1441T
1288.581	1.6	1367813	WORD	n/a	wordpools/wordpool_long_EN.txt	CLOCK	7	12	[0, 0, 0]	n/a	FR1	0	R1441T
1290.181	0.782	1369419	WORD_OFF	n/a	n/a	CLOCK	7	12	[0, 0, 0]	n/a	FR1	0	R1441T
1290.963	1.618	1370202	WORD	n/a	wordpools/wordpool_long_EN.txt	TRIBE	8	12	[0, 0, 0]	n/a	FR1	0	R1441T
1292.581	0.916	1371809	WORD_OFF	n/a	n/a	TRIBE	8	12	[0, 0, 0]	n/a	FR1	0	R1441T
1293.497	1.617	1372731	WORD	n/a	wordpools/wordpool_long_EN.txt	CLAY	9	12	[0, 0, 0]	n/a	FR1	0	R1441T
1295.114	0.916	1374351	WORD_OFF	n/a	n/a	CLAY	9	12	[0, 0, 0]	n/a	FR1	0	R1441T
1296.03	1.601	1375260	WORD	n/a	wordpools/wordpool_long_EN.txt	HORN	10	12	[0, 0, 0]	n/a	FR1	0	R1441T
1297.631	0.917	1376866	WORD_OFF	n/a	n/a	HORN	10	12	[0, 0, 0]	n/a	FR1	0	R1441T
1298.548	1.615	1377774	WORD	n/a	wordpools/wordpool_long_EN.txt	ROOT	11	12	[0, 0, 0]	n/a	FR1	0	R1441T
1300.163	0.968	1379395	WORD_OFF	n/a	n/a	ROOT	11	12	[0, 0, 0]	n/a	FR1	0	R1441T
1301.131	1.616	1380359	WORD	n/a	wordpools/wordpool_long_EN.txt	PURSE	12	12	[0, 0, 0]	n/a	FR1	0	R1441T
1302.747	0.003	1381980	WORD_OFF	n/a	n/a	PURSE	12	12	[0, 0, 0]	n/a	FR1	0	R1441T
1302.75	0.0	1381980	ENCODING_END	n/a	n/a	n/a	-999	12	[0, 0, 0]	n/a	FR1	0	R1441T
1302.75	0.0	1381980	DISTRACT_START	n/a	n/a	n/a	-999	12	[0, 0, 0]	n/a	FR1	0	R1441T
1302.749	0.001	1381981	PROB	0.001	n/a	n/a	-999	12	[6, 5, 2]	13	FR1	0	R1441T
1302.75	4.865	1381982	START	n/a	n/a	n/a	-999	12	[-999, -999, -999]	n/a	FR1	0	R1441T
1307.615	9.032	1386846	PROB	9.032	n/a	n/a	-999	12	[7, 1, 6]	14	FR1	0	R1441T
1316.647	4.151	1395878	PROB	4.151	n/a	n/a	-999	12	[4, 2, 6]	12	FR1	0	R1441T
1320.798	18.749	1400029	PROB	18.749	n/a	n/a	-999	12	[6, 8, 3]	17	FR1	0	R1441T
1339.547	0.0	1418777	STOP	n/a	n/a	n/a	-999	12	[-999, -999, -999]	n/a	FR1	0	R1441T
1339.547	1.383	1418782	DISTRACT_END	n/a	n/a	n/a	-999	12	[0, 0, 0]	n/a	FR1	0	R1441T
1340.93	0.384	1420165	REC_START	n/a	n/a	n/a	-999	12	[0, 0, 0]	n/a	FR1	0	R1441T
1341.314	0.551	1420544	REC_WORD	0.551	n/a	TOY	-999	12	[0, 0, 0]	n/a	FR1	0	R1441T
1341.865	0.788	1421095	REC_WORD	0.788	n/a	YARN	2	12	[0, 0, 0]	n/a	FR1	0	R1441T
1342.653	1.434	1421883	REC_WORD	1.434	n/a	HOUND	3	12	[0, 0, 0]	n/a	FR1	0	R1441T
1344.087	2.676	1423317	REC_WORD	2.676	n/a	STREET	6	12	[0, 0, 0]	n/a	FR1	0	R1441T
1346.763	25.405	1425992	REC_WORD_VV	25.405	n/a	<>	-999	12	[0, 0, 0]	n/a	FR1	0	R1441T
1372.168	0.0	1451392	REC_END	n/a	n/a	n/a	-999	12	[0, 0, 0]	n/a	FR1	0	R1441T
