onset	duration	sample	trial_type	response_time	stim_file	item_name	serialpos	list	test	answer	experiment	session	subject
0.0	0.0	5723	INSTRUCT_START	n/a	n/a	n/a	-999	-999	[0, 0, 0]	n/a	FR1	0	R1173J
0.0	10.971	5723	INSTRUCT_END	n/a	n/a	n/a	-999	-999	[0, 0, 0]	n/a	FR1	0	R1173J
10.971	0.0	16694	SESS_START	n/a	n/a	n/a	-999	-999	[0, 0, 0]	n/a	FR1	0	R1173J
10.971	202.982	16694	MIC_TEST	n/a	n/a	n/a	-999	-999	[0, 0, 0]	n/a	FR1	0	R1173J
213.953	7.326	219674	PRACTICE_TRIAL	n/a	n/a	n/a	-999	-1	[0, 0, 0]	n/a	FR1	0	R1173J
221.279	10.428	227000	COUNTDOWN_START	n/a	n/a	n/a	-999	-1	[0, 0, 0]	n/a	FR1	0	R1173J
231.707	0.023	237428	COUNTDOWN_END	n/a	n/a	n/a	-999	-1	[0, 0, 0]	n/a	FR1	0	R1173J
231.73	1.618	237451	PRACTICE_ORIENT	n/a	n/a	n/a	-999	-1	[0, 0, 0]	n/a	FR1	0	R1173J
233.348	2.282	239069	PRACTICE_ORIENT_OFF	n/a	n/a	n/a	-999	-1	[0, 0, 0]	n/a	FR1	0	R1173J
235.63	1.618	241351	PRACTICE_WORD	n/a	n/a	CAMEL	1	-1	[0, 0, 0]	n/a	FR1	0	R1173J
237.248	0.783	242969	PRACTICE_WORD_OFF	n/a	n/a	CAMEL	-999	-1	[0, 0, 0]	n/a	FR1	0	R1173J
238.031	1.617	243752	PRACTICE_WORD	n/a	n/a	CHEST	2	-1	[0, 0, 0]	n/a	FR1	0	R1173J
239.648	0.834	245369	PRACTICE_WORD_OFF	n/a	n/a	CHEST	-999	-1	[0, 0, 0]	n/a	FR1	0	R1173J
240.482	1.616	246203	PRACTICE_WORD	n/a	n/a	FLOOD	3	-1	[0, 0, 0]	n/a	FR1	0	R1173J
242.098	0.783	247819	PRACTICE_WORD_OFF	n/a	n/a	FLOOD	-999	-1	[0, 0, 0]	n/a	FR1	0	R1173J
242.881	1.618	248602	PRACTICE_WORD	n/a	n/a	RHINO	4	-1	[0, 0, 0]	n/a	FR1	0	R1173J
244.499	0.916	250220	PRACTICE_WORD_OFF	n/a	n/a	RHINO	-999	-1	[0, 0, 0]	n/a	FR1	0	R1173J
245.415	1.617	251136	PRACTICE_WORD	n/a	n/a	IRON	5	-1	[0, 0, 0]	n/a	FR1	0	R1173J
247.032	0.917	252753	PRACTICE_WORD_OFF	n/a	n/a	IRON	-999	-1	[0, 0, 0]	n/a	FR1	0	R1173J
247.949	1.616	253670	PRACTICE_WORD	n/a	n/a	WAGON	6	-1	[0, 0, 0]	n/a	FR1	0	R1173J
249.565	1.001	255286	PRACTICE_WORD_OFF	n/a	n/a	WAGON	-999	-1	[0, 0, 0]	n/a	FR1	0	R1173J
250.566	1.617	256287	PRACTICE_WORD	n/a	n/a	COTTON	7	-1	[0, 0, 0]	n/a	FR1	0	R1173J
252.183	0.966	257904	PRACTICE_WORD_OFF	n/a	n/a	COTTON	-999	-1	[0, 0, 0]	n/a	FR1	0	R1173J
253.149	1.617	258870	PRACTICE_WORD	n/a	n/a	BEAM	8	-1	[0, 0, 0]	n/a	FR1	0	R1173J
254.766	0.95	260487	PRACTICE_WORD_OFF	n/a	n/a	BEAM	-999	-1	[0, 0, 0]	n/a	FR1	0	R1173J
255.716	1.618	261437	PRACTICE_WORD	n/a	n/a	RING	9	-1	[0, 0, 0]	n/a	FR1	0	R1173J
257.334	0.816	263055	PRACTICE_WORD_OFF	n/a	n/a	RING	-999	-1	[0, 0, 0]	n/a	FR1	0	R1173J
258.15	1.617	263871	PRACTICE_WORD	n/a	n/a	TONGUE	10	-1	[0, 0, 0]	n/a	FR1	0	R1173J
259.767	0.85	265488	PRACTICE_WORD_OFF	n/a	n/a	TONGUE	-999	-1	[0, 0, 0]	n/a	FR1	0	R1173J
260.617	1.618	266338	PRACTICE_WORD	n/a	n/a	ATTIC	11	-1	[0, 0, 0]	n/a	FR1	0	R1173J
262.235	1.0	267955	PRACTICE_WORD_OFF	n/a	n/a	ATTIC	-999	-1	[0, 0, 0]	n/a	FR1	0	R1173J
263.235	1.616	268955	PRACTICE_WORD	n/a	n/a	WATCH	12	-1	[0, 0, 0]	n/a	FR1	0	R1173J
264.851	0.0	270571	PRACTICE_WORD_OFF	n/a	n/a	WATCH	-999	-1	[0, 0, 0]	n/a	FR1	0	R1173J
264.851	0.001	270571	DISTRACT_START	n/a	n/a	n/a	-999	-1	[0, 0, 0]	n/a	FR1	0	R1173J
264.852	0.016	270572	START	n/a	n/a	n/a	-999	-1	[-999, -999, -999]	n/a	FR1	0	R1173J
264.868	18.719	270588	PROB	18.719	n/a	n/a	-999	-1	[7, 6, 9]	22	FR1	0	R1173J
283.587	5.589	289307	PROB	5.589	n/a	n/a	-999	-1	[2, 2, 7]	11	FR1	0	R1173J
289.176	0.011	294896	STOP	n/a	n/a	n/a	-999	-1	[-999, -999, -999]	n/a	FR1	0	R1173J
289.187	0.667	294907	DISTRACT_END	n/a	n/a	n/a	-999	-1	[0, 0, 0]	n/a	FR1	0	R1173J
289.854	0.519	295574	RETRIEVAL_ORIENT	n/a	n/a	n/a	-999	-1	[0, 0, 0]	n/a	FR1	0	R1173J
290.373	30.011	296093	PRACTICE_REC_START	n/a	n/a	n/a	-999	-1	[0, 0, 0]	n/a	FR1	0	R1173J
320.384	58.648	326104	PRACTICE_REC_END	n/a	n/a	n/a	-999	-1	[0, 0, 0]	n/a	FR1	0	R1173J
379.032	0.5	384752	TRIAL	n/a	n/a	n/a	-999	1	[0, 0, 0]	n/a	FR1	0	R1173J
379.532	10.428	385252	COUNTDOWN_START	n/a	n/a	n/a	-999	1	[0, 0, 0]	n/a	FR1	0	R1173J
389.96	0.007	395679	COUNTDOWN_END	n/a	n/a	n/a	-999	1	[0, 0, 0]	n/a	FR1	0	R1173J
389.967	1.617	395686	ORIENT	n/a	n/a	n/a	-999	1	[0, 0, 0]	n/a	FR1	0	R1173J
391.584	2.2	397303	ORIENT_OFF	n/a	n/a	n/a	-999	1	[0, 0, 0]	n/a	FR1	0	R1173J
393.784	1.618	399503	WORD	n/a	wordpools/wordpool_EN.txt	TEA	1	1	[0, 0, 0]	n/a	FR1	0	R1173J
395.402	0.9	401121	WORD_OFF	n/a	n/a	TEA	1	1	[0, 0, 0]	n/a	FR1	0	R1173J
396.302	1.616	402021	WORD	n/a	wordpools/wordpool_EN.txt	CAVE	2	1	[0, 0, 0]	n/a	FR1	0	R1173J
397.918	0.883	403637	WORD_OFF	n/a	n/a	CAVE	2	1	[0, 0, 0]	n/a	FR1	0	R1173J
398.801	1.601	404520	WORD	n/a	wordpools/wordpool_EN.txt	AXE	3	1	[0, 0, 0]	n/a	FR1	0	R1173J
400.402	0.951	406121	WORD_OFF	n/a	n/a	AXE	3	1	[0, 0, 0]	n/a	FR1	0	R1173J
401.353	1.616	407072	WORD	n/a	wordpools/wordpool_EN.txt	PLANT	4	1	[0, 0, 0]	n/a	FR1	0	R1173J
402.969	0.799	408688	WORD_OFF	n/a	n/a	PLANT	4	1	[0, 0, 0]	n/a	FR1	0	R1173J
403.768	1.618	409487	WORD	n/a	wordpools/wordpool_EN.txt	BOMB	5	1	[0, 0, 0]	n/a	FR1	0	R1173J
405.386	0.933	411105	WORD_OFF	n/a	n/a	BOMB	5	1	[0, 0, 0]	n/a	FR1	0	R1173J
406.319	1.617	412038	WORD	n/a	wordpools/wordpool_EN.txt	SLIME	6	1	[0, 0, 0]	n/a	FR1	0	R1173J
407.936	0.833	413655	WORD_OFF	n/a	n/a	SLIME	6	1	[0, 0, 0]	n/a	FR1	0	R1173J
408.769	1.618	414488	WORD	n/a	wordpools/wordpool_EN.txt	ANT	7	1	[0, 0, 0]	n/a	FR1	0	R1173J
410.387	1.0	416106	WORD_OFF	n/a	n/a	ANT	7	1	[0, 0, 0]	n/a	FR1	0	R1173J
411.387	1.616	417106	WORD	n/a	wordpools/wordpool_EN.txt	HILL	8	1	[0, 0, 0]	n/a	FR1	0	R1173J
413.003	0.9	418722	WORD_OFF	n/a	n/a	HILL	8	1	[0, 0, 0]	n/a	FR1	0	R1173J
413.903	1.601	419622	WORD	n/a	wordpools/wordpool_EN.txt	BIRD	9	1	[0, 0, 0]	n/a	FR1	0	R1173J
415.504	0.884	421223	WORD_OFF	n/a	n/a	BIRD	9	1	[0, 0, 0]	n/a	FR1	0	R1173J
416.388	1.616	422107	WORD	n/a	wordpools/wordpool_EN.txt	SOAP	10	1	[0, 0, 0]	n/a	FR1	0	R1173J
418.004	0.933	423723	WORD_OFF	n/a	n/a	SOAP	10	1	[0, 0, 0]	n/a	FR1	0	R1173J
418.937	1.617	424656	WORD	n/a	wordpools/wordpool_EN.txt	STOVE	11	1	[0, 0, 0]	n/a	FR1	0	R1173J
420.554	0.818	426273	WORD_OFF	n/a	n/a	STOVE	11	1	[0, 0, 0]	n/a	FR1	0	R1173J
421.372	1.616	427091	WORD	n/a	wordpools/wordpool_EN.txt	TOOTH	12	1	[0, 0, 0]	n/a	FR1	0	R1173J
422.988	0.0	428707	WORD_OFF	n/a	n/a	TOOTH	12	1	[0, 0, 0]	n/a	FR1	0	R1173J
422.988	0.001	428707	DISTRACT_START	n/a	n/a	n/a	-999	1	[0, 0, 0]	n/a	FR1	0	R1173J
422.989	0.015	428708	START	n/a	n/a	n/a	-999	1	[-999, -999, -999]	n/a	FR1	0	R1173J
423.004	6.118	428723	PROB	6.118	n/a	n/a	-999	1	[9, 6, 1]	16	FR1	0	R1173J
429.122	5.551	434841	PROB	5.551	n/a	n/a	-999	1	[7, 1, 5]	13	FR1	0	R1173J
434.673	3.851	440392	PROB	3.851	n/a	n/a	-999	1	[5, 3, 2]	10	FR1	0	R1173J
438.524	5.31	444243	PROB	5.31	n/a	n/a	-999	1	[8, 8, 4]	20	FR1	0	R1173J
443.834	0.006	449553	STOP	n/a	n/a	n/a	-999	1	[-999, -999, -999]	n/a	FR1	0	R1173J
443.84	0.568	449559	DISTRACT_END	n/a	n/a	n/a	-999	1	[0, 0, 0]	n/a	FR1	0	R1173J
444.408	0.517	450127	RETRIEVAL_ORIENT	n/a	n/a	n/a	-999	1	[0, 0, 0]	n/a	FR1	0	R1173J
444.925	1.965	450644	REC_START	n/a	n/a	n/a	-999	1	[0, 0, 0]	n/a	FR1	0	R1173J
446.89	1.117	452609	REC_WORD	1.117	n/a	CAVE	-999	1	[0, 0, 0]	n/a	FR1	0	R1173J
448.007	4.708	453726	REC_WORD	4.708	n/a	TOOTH	-999	1	[0, 0, 0]	n/a	FR1	0	R1173J
452.715	0.855	458434	REC_WORD_VV	0.855	n/a	<>	-999	1	[0, 0, 0]	n/a	FR1	0	R1173J
453.57	0.882	459289	REC_WORD	0.882	n/a	ANT	-999	1	[0, 0, 0]	n/a	FR1	0	R1173J
454.452	1.078	460171	REC_WORD	1.078	n/a	HILL	-999	1	[0, 0, 0]	n/a	FR1	0	R1173J
455.53	7.542	461249	REC_WORD	7.542	n/a	BIRD	-999	1	[0, 0, 0]	n/a	FR1	0	R1173J
463.072	11.866	468791	REC_WORD	11.866	n/a	SLIME	-999	1	[0, 0, 0]	n/a	FR1	0	R1173J
474.938	7.024	480657	REC_END	n/a	n/a	n/a	-999	1	[0, 0, 0]	n/a	FR1	0	R1173J
481.962	0.5	487681	TRIAL	n/a	n/a	n/a	-999	2	[0, 0, 0]	n/a	FR1	0	R1173J
482.462	10.428	488181	COUNTDOWN_START	n/a	n/a	n/a	-999	2	[0, 0, 0]	n/a	FR1	0	R1173J
492.89	0.007	498609	COUNTDOWN_END	n/a	n/a	n/a	-999	2	[0, 0, 0]	n/a	FR1	0	R1173J
492.897	1.618	498616	ORIENT	n/a	n/a	n/a	-999	2	[0, 0, 0]	n/a	FR1	0	R1173J
494.515	1.9	500234	ORIENT_OFF	n/a	n/a	n/a	-999	2	[0, 0, 0]	n/a	FR1	0	R1173J
496.415	1.616	502134	WORD	n/a	wordpools/wordpool_EN.txt	MOON	1	2	[0, 0, 0]	n/a	FR1	0	R1173J
498.031	0.933	503750	WORD_OFF	n/a	n/a	MOON	1	2	[0, 0, 0]	n/a	FR1	0	R1173J
498.964	1.617	504683	WORD	n/a	wordpools/wordpool_EN.txt	BALL	2	2	[0, 0, 0]	n/a	FR1	0	R1173J
500.581	0.834	506300	WORD_OFF	n/a	n/a	BALL	2	2	[0, 0, 0]	n/a	FR1	0	R1173J
501.415	1.616	507134	WORD	n/a	wordpools/wordpool_EN.txt	BEACH	3	2	[0, 0, 0]	n/a	FR1	0	R1173J
503.031	0.817	508750	WORD_OFF	n/a	n/a	BEACH	3	2	[0, 0, 0]	n/a	FR1	0	R1173J
503.848	1.618	509566	WORD	n/a	wordpools/wordpool_EN.txt	SIGN	4	2	[0, 0, 0]	n/a	FR1	0	R1173J
505.466	0.966	511184	WORD_OFF	n/a	n/a	SIGN	4	2	[0, 0, 0]	n/a	FR1	0	R1173J
506.432	1.616	512150	WORD	n/a	wordpools/wordpool_EN.txt	BLOOM	5	2	[0, 0, 0]	n/a	FR1	0	R1173J
508.048	0.901	513766	WORD_OFF	n/a	n/a	BLOOM	5	2	[0, 0, 0]	n/a	FR1	0	R1173J
508.949	1.617	514667	WORD	n/a	wordpools/wordpool_EN.txt	BOWL	6	2	[0, 0, 0]	n/a	FR1	0	R1173J
510.566	0.983	516284	WORD_OFF	n/a	n/a	BOWL	6	2	[0, 0, 0]	n/a	FR1	0	R1173J
511.549	1.617	517267	WORD	n/a	wordpools/wordpool_EN.txt	KITE	7	2	[0, 0, 0]	n/a	FR1	0	R1173J
513.166	0.934	518884	WORD_OFF	n/a	n/a	KITE	7	2	[0, 0, 0]	n/a	FR1	0	R1173J
514.1	1.616	519818	WORD	n/a	wordpools/wordpool_EN.txt	STAR	8	2	[0, 0, 0]	n/a	FR1	0	R1173J
515.716	0.818	521434	WORD_OFF	n/a	n/a	STAR	8	2	[0, 0, 0]	n/a	FR1	0	R1173J
516.534	1.616	522252	WORD	n/a	wordpools/wordpool_EN.txt	NET	9	2	[0, 0, 0]	n/a	FR1	0	R1173J
518.15	0.833	523868	WORD_OFF	n/a	n/a	NET	9	2	[0, 0, 0]	n/a	FR1	0	R1173J
518.983	1.617	524701	WORD	n/a	wordpools/wordpool_EN.txt	MAZE	10	2	[0, 0, 0]	n/a	FR1	0	R1173J
520.6	0.967	526318	WORD_OFF	n/a	n/a	MAZE	10	2	[0, 0, 0]	n/a	FR1	0	R1173J
521.567	1.617	527285	WORD	n/a	wordpools/wordpool_EN.txt	SCHOOL	11	2	[0, 0, 0]	n/a	FR1	0	R1173J
523.184	0.933	528902	WORD_OFF	n/a	n/a	SCHOOL	11	2	[0, 0, 0]	n/a	FR1	0	R1173J
524.117	1.617	529835	WORD	n/a	wordpools/wordpool_EN.txt	SPONGE	12	2	[0, 0, 0]	n/a	FR1	0	R1173J
525.734	0.0	531452	DISTRACT_START	n/a	n/a	n/a	-999	2	[0, 0, 0]	n/a	FR1	0	R1173J
525.734	0.001	531452	WORD_OFF	n/a	n/a	SPONGE	12	2	[0, 0, 0]	n/a	FR1	0	R1173J
525.735	0.016	531453	START	n/a	n/a	n/a	-999	2	[-999, -999, -999]	n/a	FR1	0	R1173J
525.751	3.485	531469	PROB	3.485	n/a	n/a	-999	2	[1, 5, 2]	8	FR1	0	R1173J
529.236	4.633	534954	PROB	4.633	n/a	n/a	-999	2	[8, 4, 2]	14	FR1	0	R1173J
533.869	3.85	539587	PROB	3.85	n/a	n/a	-999	2	[1, 9, 6]	16	FR1	0	R1173J
537.719	6.519	543437	PROB	6.519	n/a	n/a	-999	2	[3, 2, 8]	13	FR1	0	R1173J
544.238	5.687	549956	PROB	5.687	n/a	n/a	-999	2	[8, 8, 6]	22	FR1	0	R1173J
549.925	0.012	555643	STOP	n/a	n/a	n/a	-999	2	[-999, -999, -999]	n/a	FR1	0	R1173J
549.937	0.6	555655	DISTRACT_END	n/a	n/a	n/a	-999	2	[0, 0, 0]	n/a	FR1	0	R1173J
550.537	0.518	556255	RETRIEVAL_ORIENT	n/a	n/a	n/a	-999	2	[0, 0, 0]	n/a	FR1	0	R1173J
551.055	2.903	556773	REC_START	n/a	n/a	n/a	-999	2	[0, 0, 0]	n/a	FR1	0	R1173J
553.958	2.196	559676	REC_WORD	2.196	n/a	MOON	-999	2	[0, 0, 0]	n/a	FR1	0	R1173J
556.154	9.81	561872	REC_WORD	9.81	n/a	BEACH	-999	2	[0, 0, 0]	n/a	FR1	0	R1173J
565.964	2.428	571682	REC_WORD	2.428	n/a	BLOOM	-999	2	[0, 0, 0]	n/a	FR1	0	R1173J
568.392	12.675	574110	REC_WORD	12.675	n/a	BALL	-999	2	[0, 0, 0]	n/a	FR1	0	R1173J
581.067	9.709	586785	REC_END	n/a	n/a	n/a	-999	2	[0, 0, 0]	n/a	FR1	0	R1173J
590.776	0.5	596494	TRIAL	n/a	n/a	n/a	-999	3	[0, 0, 0]	n/a	FR1	0	R1173J
591.276	10.428	596994	COUNTDOWN_START	n/a	n/a	n/a	-999	3	[0, 0, 0]	n/a	FR1	0	R1173J
601.704	0.007	607422	COUNTDOWN_END	n/a	n/a	n/a	-999	3	[0, 0, 0]	n/a	FR1	0	R1173J
601.711	1.618	607429	ORIENT	n/a	n/a	n/a	-999	3	[0, 0, 0]	n/a	FR1	0	R1173J
603.329	2.099	609047	ORIENT_OFF	n/a	n/a	n/a	-999	3	[0, 0, 0]	n/a	FR1	0	R1173J
605.428	1.616	611146	WORD	n/a	wordpools/wordpool_EN.txt	LEAF	1	3	[0, 0, 0]	n/a	FR1	0	R1173J
607.044	0.784	612762	WORD_OFF	n/a	n/a	LEAF	1	3	[0, 0, 0]	n/a	FR1	0	R1173J
607.828	1.618	613546	WORD	n/a	wordpools/wordpool_EN.txt	TOAD	2	3	[0, 0, 0]	n/a	FR1	0	R1173J
609.446	0.983	615164	WORD_OFF	n/a	n/a	TOAD	2	3	[0, 0, 0]	n/a	FR1	0	R1173J
610.429	1.616	616147	WORD	n/a	wordpools/wordpool_EN.txt	CORD	3	3	[0, 0, 0]	n/a	FR1	0	R1173J
612.045	1.017	617763	WORD_OFF	n/a	n/a	CORD	3	3	[0, 0, 0]	n/a	FR1	0	R1173J
613.062	1.617	618780	WORD	n/a	wordpools/wordpool_EN.txt	PLANE	4	3	[0, 0, 0]	n/a	FR1	0	R1173J
614.679	0.784	620397	WORD_OFF	n/a	n/a	PLANE	4	3	[0, 0, 0]	n/a	FR1	0	R1173J
615.463	1.616	621181	WORD	n/a	wordpools/wordpool_EN.txt	SHIP	5	3	[0, 0, 0]	n/a	FR1	0	R1173J
617.079	0.833	622797	WORD_OFF	n/a	n/a	SHIP	5	3	[0, 0, 0]	n/a	FR1	0	R1173J
617.912	1.618	623630	WORD	n/a	wordpools/wordpool_EN.txt	DRUM	6	3	[0, 0, 0]	n/a	FR1	0	R1173J
619.53	0.784	625248	WORD_OFF	n/a	n/a	DRUM	6	3	[0, 0, 0]	n/a	FR1	0	R1173J
620.314	1.616	626032	WORD	n/a	wordpools/wordpool_EN.txt	POND	7	3	[0, 0, 0]	n/a	FR1	0	R1173J
621.93	0.95	627648	WORD_OFF	n/a	n/a	POND	7	3	[0, 0, 0]	n/a	FR1	0	R1173J
622.88	1.618	628598	WORD	n/a	wordpools/wordpool_EN.txt	HORSE	8	3	[0, 0, 0]	n/a	FR1	0	R1173J
624.498	0.966	630215	WORD_OFF	n/a	n/a	HORSE	8	3	[0, 0, 0]	n/a	FR1	0	R1173J
625.464	1.616	631181	WORD	n/a	wordpools/wordpool_EN.txt	HORN	9	3	[0, 0, 0]	n/a	FR1	0	R1173J
627.08	1.0	632797	WORD_OFF	n/a	n/a	HORN	9	3	[0, 0, 0]	n/a	FR1	0	R1173J
628.08	1.617	633797	WORD	n/a	wordpools/wordpool_EN.txt	JUDGE	10	3	[0, 0, 0]	n/a	FR1	0	R1173J
629.697	0.802	635414	WORD_OFF	n/a	n/a	JUDGE	10	3	[0, 0, 0]	n/a	FR1	0	R1173J
630.499	1.615	636216	WORD	n/a	wordpools/wordpool_EN.txt	HOUSE	11	3	[0, 0, 0]	n/a	FR1	0	R1173J
632.114	0.784	637831	WORD_OFF	n/a	n/a	HOUSE	11	3	[0, 0, 0]	n/a	FR1	0	R1173J
632.898	1.618	638615	WORD	n/a	wordpools/wordpool_EN.txt	EEL	12	3	[0, 0, 0]	n/a	FR1	0	R1173J
634.516	0.0	640233	WORD_OFF	n/a	n/a	EEL	12	3	[0, 0, 0]	n/a	FR1	0	R1173J
634.516	0.001	640233	DISTRACT_START	n/a	n/a	n/a	-999	3	[0, 0, 0]	n/a	FR1	0	R1173J
634.517	0.015	640234	START	n/a	n/a	n/a	-999	3	[-999, -999, -999]	n/a	FR1	0	R1173J
634.532	4.718	640249	PROB	4.718	n/a	n/a	-999	3	[1, 8, 5]	14	FR1	0	R1173J
639.25	3.499	644967	PROB	3.499	n/a	n/a	-999	3	[2, 3, 4]	9	FR1	0	R1173J
642.749	12.356	648466	PROB	12.356	n/a	n/a	-999	3	[8, 9, 8]	25	FR1	0	R1173J
655.105	0.012	660822	STOP	n/a	n/a	n/a	-999	3	[-999, -999, -999]	n/a	FR1	0	R1173J
655.117	0.584	660834	DISTRACT_END	n/a	n/a	n/a	-999	3	[0, 0, 0]	n/a	FR1	0	R1173J
655.701	0.517	661418	RETRIEVAL_ORIENT	n/a	n/a	n/a	-999	3	[0, 0, 0]	n/a	FR1	0	R1173J
656.218	3.03	661935	REC_START	n/a	n/a	n/a	-999	3	[0, 0, 0]	n/a	FR1	0	R1173J
659.248	2.661	664965	REC_WORD	2.661	n/a	TOAD	-999	3	[0, 0, 0]	n/a	FR1	0	R1173J
661.909	2.916	667626	REC_WORD	2.916	n/a	PLANT	-999	3	[0, 0, 0]	n/a	FR1	0	R1173J
664.825	1.78	670542	REC_WORD	1.78	n/a	HORSE	-999	3	[0, 0, 0]	n/a	FR1	0	R1173J
666.605	1.544	672322	REC_WORD	1.544	n/a	EEL	-999	3	[0, 0, 0]	n/a	FR1	0	R1173J
668.149	1.394	673866	REC_WORD	1.394	n/a	JUDGE	-999	3	[0, 0, 0]	n/a	FR1	0	R1173J
669.543	16.689	675260	REC_WORD	16.689	n/a	PLANE	-999	3	[0, 0, 0]	n/a	FR1	0	R1173J
686.232	5.258	691949	REC_END	n/a	n/a	n/a	-999	3	[0, 0, 0]	n/a	FR1	0	R1173J
691.49	0.5	697207	TRIAL	n/a	n/a	n/a	-999	4	[0, 0, 0]	n/a	FR1	0	R1173J
691.99	10.428	697707	COUNTDOWN_START	n/a	n/a	n/a	-999	4	[0, 0, 0]	n/a	FR1	0	R1173J
702.418	0.006	708135	COUNTDOWN_END	n/a	n/a	n/a	-999	4	[0, 0, 0]	n/a	FR1	0	R1173J
702.424	1.616	708141	ORIENT	n/a	n/a	n/a	-999	4	[0, 0, 0]	n/a	FR1	0	R1173J
704.04	1.867	709757	ORIENT_OFF	n/a	n/a	n/a	-999	4	[0, 0, 0]	n/a	FR1	0	R1173J
705.907	1.618	711624	WORD	n/a	wordpools/wordpool_EN.txt	CAR	1	4	[0, 0, 0]	n/a	FR1	0	R1173J
707.525	0.933	713242	WORD_OFF	n/a	n/a	CAR	1	4	[0, 0, 0]	n/a	FR1	0	R1173J
708.458	1.616	714175	WORD	n/a	wordpools/wordpool_EN.txt	GLOVE	2	4	[0, 0, 0]	n/a	FR1	0	R1173J
710.074	0.967	715791	WORD_OFF	n/a	n/a	GLOVE	2	4	[0, 0, 0]	n/a	FR1	0	R1173J
711.041	1.617	716758	WORD	n/a	wordpools/wordpool_EN.txt	WALL	3	4	[0, 0, 0]	n/a	FR1	0	R1173J
712.658	0.95	718375	WORD_OFF	n/a	n/a	WALL	3	4	[0, 0, 0]	n/a	FR1	0	R1173J
713.608	1.617	719325	WORD	n/a	wordpools/wordpool_EN.txt	CAPE	4	4	[0, 0, 0]	n/a	FR1	0	R1173J
715.225	0.95	720942	WORD_OFF	n/a	n/a	CAPE	4	4	[0, 0, 0]	n/a	FR1	0	R1173J
716.175	1.617	721892	WORD	n/a	wordpools/wordpool_EN.txt	OWL	5	4	[0, 0, 0]	n/a	FR1	0	R1173J
717.792	0.833	723509	WORD_OFF	n/a	n/a	OWL	5	4	[0, 0, 0]	n/a	FR1	0	R1173J
718.625	1.618	724342	WORD	n/a	wordpools/wordpool_EN.txt	EAR	6	4	[0, 0, 0]	n/a	FR1	0	R1173J
720.243	0.799	725960	WORD_OFF	n/a	n/a	EAR	6	4	[0, 0, 0]	n/a	FR1	0	R1173J
721.042	1.617	726759	WORD	n/a	wordpools/wordpool_EN.txt	ZOO	7	4	[0, 0, 0]	n/a	FR1	0	R1173J
722.659	0.917	728376	WORD_OFF	n/a	n/a	ZOO	7	4	[0, 0, 0]	n/a	FR1	0	R1173J
723.576	1.617	729293	WORD	n/a	wordpools/wordpool_EN.txt	MAP	8	4	[0, 0, 0]	n/a	FR1	0	R1173J
725.193	0.883	730910	WORD_OFF	n/a	n/a	MAP	8	4	[0, 0, 0]	n/a	FR1	0	R1173J
726.076	1.617	731793	WORD	n/a	wordpools/wordpool_EN.txt	CHIEF	9	4	[0, 0, 0]	n/a	FR1	0	R1173J
727.693	0.85	733410	WORD_OFF	n/a	n/a	CHIEF	9	4	[0, 0, 0]	n/a	FR1	0	R1173J
728.543	1.617	734260	WORD	n/a	wordpools/wordpool_EN.txt	JAIL	10	4	[0, 0, 0]	n/a	FR1	0	R1173J
730.16	0.85	735877	WORD_OFF	n/a	n/a	JAIL	10	4	[0, 0, 0]	n/a	FR1	0	R1173J
731.01	1.617	736727	WORD	n/a	wordpools/wordpool_EN.txt	INK	11	4	[0, 0, 0]	n/a	FR1	0	R1173J
732.627	0.784	738344	WORD_OFF	n/a	n/a	INK	11	4	[0, 0, 0]	n/a	FR1	0	R1173J
733.411	1.616	739128	WORD	n/a	wordpools/wordpool_EN.txt	WHALE	12	4	[0, 0, 0]	n/a	FR1	0	R1173J
735.027	0.0	740744	DISTRACT_START	n/a	n/a	n/a	-999	4	[0, 0, 0]	n/a	FR1	0	R1173J
735.027	0.001	740744	WORD_OFF	n/a	n/a	WHALE	12	4	[0, 0, 0]	n/a	FR1	0	R1173J
735.028	0.016	740745	START	n/a	n/a	n/a	-999	4	[-999, -999, -999]	n/a	FR1	0	R1173J
735.044	7.618	740761	PROB	7.618	n/a	n/a	-999	4	[5, 9, 3]	17	FR1	0	R1173J
742.662	7.951	748379	PROB	7.951	n/a	n/a	-999	4	[5, 3, 5]	13	FR1	0	R1173J
750.613	2.95	756329	PROB	2.95	n/a	n/a	-999	4	[8, 2, 1]	11	FR1	0	R1173J
753.563	6.577	759279	PROB	6.577	n/a	n/a	-999	4	[8, 7, 3]	18	FR1	0	R1173J
760.14	0.007	765856	STOP	n/a	n/a	n/a	-999	4	[-999, -999, -999]	n/a	FR1	0	R1173J
760.147	0.567	765863	DISTRACT_END	n/a	n/a	n/a	-999	4	[0, 0, 0]	n/a	FR1	0	R1173J
760.714	0.519	766430	RETRIEVAL_ORIENT	n/a	n/a	n/a	-999	4	[0, 0, 0]	n/a	FR1	0	R1173J
761.233	2.273	766949	REC_START	n/a	n/a	n/a	-999	4	[0, 0, 0]	n/a	FR1	0	R1173J
763.506	0.94	769222	REC_WORD	0.94	n/a	INK	-999	4	[0, 0, 0]	n/a	FR1	0	R1173J
764.446	1.237	770162	REC_WORD	1.237	n/a	JAIL	-999	4	[0, 0, 0]	n/a	FR1	0	R1173J
765.683	1.77	771399	REC_WORD	1.77	n/a	CAR	-999	4	[0, 0, 0]	n/a	FR1	0	R1173J
767.453	2.836	773169	REC_WORD	2.836	n/a	WHALE	-999	4	[0, 0, 0]	n/a	FR1	0	R1173J
770.289	3.265	776005	REC_WORD	3.265	n/a	WALL	-999	4	[0, 0, 0]	n/a	FR1	0	R1173J
773.554	2.236	779270	REC_WORD	2.236	n/a	GLOVE	-999	4	[0, 0, 0]	n/a	FR1	0	R1173J
775.79	1.131	781506	REC_WORD	1.131	n/a	OWL	-999	4	[0, 0, 0]	n/a	FR1	0	R1173J
776.921	14.325	782637	REC_WORD	14.325	n/a	CAPE	-999	4	[0, 0, 0]	n/a	FR1	0	R1173J
791.246	6.157	796962	REC_END	n/a	n/a	n/a	-999	4	[0, 0, 0]	n/a	FR1	0	R1173J
797.403	0.5	803119	TRIAL	n/a	n/a	n/a	-999	5	[0, 0, 0]	n/a	FR1	0	R1173J
797.903	10.428	803619	COUNTDOWN_START	n/a	n/a	n/a	-999	5	[0, 0, 0]	n/a	FR1	0	R1173J
808.331	0.007	814047	COUNTDOWN_END	n/a	n/a	n/a	-999	5	[0, 0, 0]	n/a	FR1	0	R1173J
808.338	1.616	814054	ORIENT	n/a	n/a	n/a	-999	5	[0, 0, 0]	n/a	FR1	0	R1173J
809.954	1.9	815670	ORIENT_OFF	n/a	n/a	n/a	-999	5	[0, 0, 0]	n/a	FR1	0	R1173J
811.854	1.618	817570	WORD	n/a	wordpools/wordpool_EN.txt	BOAT	1	5	[0, 0, 0]	n/a	FR1	0	R1173J
813.472	0.967	819188	WORD_OFF	n/a	n/a	BOAT	1	5	[0, 0, 0]	n/a	FR1	0	R1173J
814.439	1.615	820155	WORD	n/a	wordpools/wordpool_EN.txt	TANK	2	5	[0, 0, 0]	n/a	FR1	0	R1173J
816.054	1.001	821770	WORD_OFF	n/a	n/a	TANK	2	5	[0, 0, 0]	n/a	FR1	0	R1173J
817.055	1.617	822771	WORD	n/a	wordpools/wordpool_EN.txt	SEAL	3	5	[0, 0, 0]	n/a	FR1	0	R1173J
818.672	0.801	824388	WORD_OFF	n/a	n/a	SEAL	3	5	[0, 0, 0]	n/a	FR1	0	R1173J
819.473	1.616	825189	WORD	n/a	wordpools/wordpool_EN.txt	APE	4	5	[0, 0, 0]	n/a	FR1	0	R1173J
821.089	1.0	826805	WORD_OFF	n/a	n/a	APE	4	5	[0, 0, 0]	n/a	FR1	0	R1173J
822.089	1.617	827805	WORD	n/a	wordpools/wordpool_EN.txt	DUCK	5	5	[0, 0, 0]	n/a	FR1	0	R1173J
823.706	0.9	829422	WORD_OFF	n/a	n/a	DUCK	5	5	[0, 0, 0]	n/a	FR1	0	R1173J
824.606	1.616	830322	WORD	n/a	wordpools/wordpool_EN.txt	BRANCH	6	5	[0, 0, 0]	n/a	FR1	0	R1173J
826.222	0.884	831938	WORD_OFF	n/a	n/a	BRANCH	6	5	[0, 0, 0]	n/a	FR1	0	R1173J
827.106	1.617	832822	WORD	n/a	wordpools/wordpool_EN.txt	MUG	7	5	[0, 0, 0]	n/a	FR1	0	R1173J
828.723	1.0	834439	WORD_OFF	n/a	n/a	MUG	7	5	[0, 0, 0]	n/a	FR1	0	R1173J
829.723	1.618	835439	WORD	n/a	wordpools/wordpool_EN.txt	HAWK	8	5	[0, 0, 0]	n/a	FR1	0	R1173J
831.341	0.799	837057	WORD_OFF	n/a	n/a	HAWK	8	5	[0, 0, 0]	n/a	FR1	0	R1173J
832.14	1.617	837856	WORD	n/a	wordpools/wordpool_EN.txt	DEER	9	5	[0, 0, 0]	n/a	FR1	0	R1173J
833.757	0.883	839473	WORD_OFF	n/a	n/a	DEER	9	5	[0, 0, 0]	n/a	FR1	0	R1173J
834.64	1.618	840356	WORD	n/a	wordpools/wordpool_EN.txt	WEB	10	5	[0, 0, 0]	n/a	FR1	0	R1173J
836.258	0.966	841974	WORD_OFF	n/a	n/a	WEB	10	5	[0, 0, 0]	n/a	FR1	0	R1173J
837.224	1.617	842940	WORD	n/a	wordpools/wordpool_EN.txt	CASH	11	5	[0, 0, 0]	n/a	FR1	0	R1173J
838.841	1.0	844557	WORD_OFF	n/a	n/a	CASH	11	5	[0, 0, 0]	n/a	FR1	0	R1173J
839.841	1.618	845557	WORD	n/a	wordpools/wordpool_EN.txt	BANK	12	5	[0, 0, 0]	n/a	FR1	0	R1173J
841.459	0.0	847175	WORD_OFF	n/a	n/a	BANK	12	5	[0, 0, 0]	n/a	FR1	0	R1173J
841.459	0.001	847175	DISTRACT_START	n/a	n/a	n/a	-999	5	[0, 0, 0]	n/a	FR1	0	R1173J
841.46	0.015	847176	START	n/a	n/a	n/a	-999	5	[-999, -999, -999]	n/a	FR1	0	R1173J
841.475	5.367	847191	PROB	5.367	n/a	n/a	-999	5	[8, 7, 1]	16	FR1	0	R1173J
846.842	4.05	852558	PROB	4.05	n/a	n/a	-999	5	[4, 6, 2]	12	FR1	0	R1173J
850.892	4.184	856608	PROB	4.184	n/a	n/a	-999	5	[4, 7, 7]	18	FR1	0	R1173J
855.076	3.667	860792	PROB	3.667	n/a	n/a	-999	5	[4, 3, 3]	10	FR1	0	R1173J
858.743	4.353	864459	PROB	4.353	n/a	n/a	-999	5	[5, 7, 7]	19	FR1	0	R1173J
863.096	0.015	868812	STOP	n/a	n/a	n/a	-999	5	[-999, -999, -999]	n/a	FR1	0	R1173J
863.111	0.566	868827	DISTRACT_END	n/a	n/a	n/a	-999	5	[0, 0, 0]	n/a	FR1	0	R1173J
863.677	0.518	869393	RETRIEVAL_ORIENT	n/a	n/a	n/a	-999	5	[0, 0, 0]	n/a	FR1	0	R1173J
864.195	2.391	869911	REC_START	n/a	n/a	n/a	-999	5	[0, 0, 0]	n/a	FR1	0	R1173J
866.586	2.386	872301	REC_WORD	2.386	n/a	DEER	-999	5	[0, 0, 0]	n/a	FR1	0	R1173J
868.972	2.296	874687	REC_WORD	2.296	n/a	BRANCH	-999	5	[0, 0, 0]	n/a	FR1	0	R1173J
871.268	0.71	876983	REC_WORD	0.71	n/a	BOAT	-999	5	[0, 0, 0]	n/a	FR1	0	R1173J
871.978	0.727	877693	REC_WORD	0.727	n/a	TANK	-999	5	[0, 0, 0]	n/a	FR1	0	R1173J
872.705	6.537	878420	REC_WORD	6.537	n/a	SEAL	-999	5	[0, 0, 0]	n/a	FR1	0	R1173J
879.242	14.966	884957	REC_WORD	14.966	n/a	BUG	-999	5	[0, 0, 0]	n/a	FR1	0	R1173J
894.208	6.258	899923	REC_END	n/a	n/a	n/a	-999	5	[0, 0, 0]	n/a	FR1	0	R1173J
900.466	0.5	906181	TRIAL	n/a	n/a	n/a	-999	6	[0, 0, 0]	n/a	FR1	0	R1173J
900.966	10.428	906681	COUNTDOWN_START	n/a	n/a	n/a	-999	6	[0, 0, 0]	n/a	FR1	0	R1173J
911.394	0.007	917109	COUNTDOWN_END	n/a	n/a	n/a	-999	6	[0, 0, 0]	n/a	FR1	0	R1173J
911.401	1.616	917116	ORIENT	n/a	n/a	n/a	-999	6	[0, 0, 0]	n/a	FR1	0	R1173J
913.017	2.234	918732	ORIENT_OFF	n/a	n/a	n/a	-999	6	[0, 0, 0]	n/a	FR1	0	R1173J
915.251	1.616	920966	WORD	n/a	wordpools/wordpool_EN.txt	TRAIN	1	6	[0, 0, 0]	n/a	FR1	0	R1173J
916.867	0.834	922582	WORD_OFF	n/a	n/a	TRAIN	1	6	[0, 0, 0]	n/a	FR1	0	R1173J
917.701	1.618	923416	WORD	n/a	wordpools/wordpool_EN.txt	SHELL	2	6	[0, 0, 0]	n/a	FR1	0	R1173J
919.319	0.815	925034	WORD_OFF	n/a	n/a	SHELL	2	6	[0, 0, 0]	n/a	FR1	0	R1173J
920.134	1.617	925849	WORD	n/a	wordpools/wordpool_EN.txt	JUICE	3	6	[0, 0, 0]	n/a	FR1	0	R1173J
921.751	1.017	927466	WORD_OFF	n/a	n/a	JUICE	3	6	[0, 0, 0]	n/a	FR1	0	R1173J
922.768	1.618	928483	WORD	n/a	wordpools/wordpool_EN.txt	BEAK	4	6	[0, 0, 0]	n/a	FR1	0	R1173J
924.386	0.95	930101	WORD_OFF	n/a	n/a	BEAK	4	6	[0, 0, 0]	n/a	FR1	0	R1173J
925.336	1.616	931051	WORD	n/a	wordpools/wordpool_EN.txt	PIN	5	6	[0, 0, 0]	n/a	FR1	0	R1173J
926.952	0.967	932667	WORD_OFF	n/a	n/a	PIN	5	6	[0, 0, 0]	n/a	FR1	0	R1173J
927.919	1.617	933634	WORD	n/a	wordpools/wordpool_EN.txt	CRANE	6	6	[0, 0, 0]	n/a	FR1	0	R1173J
929.536	0.968	935251	WORD_OFF	n/a	n/a	CRANE	6	6	[0, 0, 0]	n/a	FR1	0	R1173J
930.504	1.615	936219	WORD	n/a	wordpools/wordpool_EN.txt	BOOT	7	6	[0, 0, 0]	n/a	FR1	0	R1173J
932.119	0.917	937834	WORD_OFF	n/a	n/a	BOOT	7	6	[0, 0, 0]	n/a	FR1	0	R1173J
933.036	1.617	938751	WORD	n/a	wordpools/wordpool_EN.txt	KEY	8	6	[0, 0, 0]	n/a	FR1	0	R1173J
934.653	0.834	940368	WORD_OFF	n/a	n/a	KEY	8	6	[0, 0, 0]	n/a	FR1	0	R1173J
935.487	1.616	941202	WORD	n/a	wordpools/wordpool_EN.txt	BOARD	9	6	[0, 0, 0]	n/a	FR1	0	R1173J
937.103	0.984	942818	WORD_OFF	n/a	n/a	BOARD	9	6	[0, 0, 0]	n/a	FR1	0	R1173J
938.087	1.617	943802	WORD	n/a	wordpools/wordpool_EN.txt	TRASH	10	6	[0, 0, 0]	n/a	FR1	0	R1173J
939.704	0.85	945419	WORD_OFF	n/a	n/a	TRASH	10	6	[0, 0, 0]	n/a	FR1	0	R1173J
940.554	1.617	946269	WORD	n/a	wordpools/wordpool_EN.txt	SHRIMP	11	6	[0, 0, 0]	n/a	FR1	0	R1173J
942.171	0.933	947886	WORD_OFF	n/a	n/a	SHRIMP	11	6	[0, 0, 0]	n/a	FR1	0	R1173J
943.104	1.617	948819	WORD	n/a	wordpools/wordpool_EN.txt	MULE	12	6	[0, 0, 0]	n/a	FR1	0	R1173J
944.721	0.0	950436	WORD_OFF	n/a	n/a	MULE	12	6	[0, 0, 0]	n/a	FR1	0	R1173J
944.721	0.001	950436	DISTRACT_START	n/a	n/a	n/a	-999	6	[0, 0, 0]	n/a	FR1	0	R1173J
944.722	0.016	950437	START	n/a	n/a	n/a	-999	6	[-999, -999, -999]	n/a	FR1	0	R1173J
944.738	5.334	950453	PROB	5.334	n/a	n/a	-999	6	[6, 1, 9]	16	FR1	0	R1173J
950.072	3.734	955787	PROB	3.734	n/a	n/a	-999	6	[8, 8, 4]	20	FR1	0	R1173J
953.806	4.033	959521	PROB	4.033	n/a	n/a	-999	6	[2, 7, 4]	13	FR1	0	R1173J
957.839	3.818	963554	PROB	3.818	n/a	n/a	-999	6	[4, 6, 3]	13	FR1	0	R1173J
961.657	5.227	967372	PROB	5.227	n/a	n/a	-999	6	[7, 4, 5]	16	FR1	0	R1173J
966.884	0.023	972599	STOP	n/a	n/a	n/a	-999	6	[-999, -999, -999]	n/a	FR1	0	R1173J
966.907	0.683	972622	DISTRACT_END	n/a	n/a	n/a	-999	6	[0, 0, 0]	n/a	FR1	0	R1173J
967.59	0.518	973305	RETRIEVAL_ORIENT	n/a	n/a	n/a	-999	6	[0, 0, 0]	n/a	FR1	0	R1173J
968.108	2.174	973823	REC_START	n/a	n/a	n/a	-999	6	[0, 0, 0]	n/a	FR1	0	R1173J
970.282	0.829	975997	REC_WORD	0.829	n/a	TRASH	-999	6	[0, 0, 0]	n/a	FR1	0	R1173J
971.111	9.688	976826	REC_WORD	9.688	n/a	SHRIMP	-999	6	[0, 0, 0]	n/a	FR1	0	R1173J
980.799	17.323	986514	REC_WORD	17.323	n/a	MULE	-999	6	[0, 0, 0]	n/a	FR1	0	R1173J
998.122	5.99	1003836	REC_END	n/a	n/a	n/a	-999	6	[0, 0, 0]	n/a	FR1	0	R1173J
1004.112	0.5	1009826	TRIAL	n/a	n/a	n/a	-999	7	[0, 0, 0]	n/a	FR1	0	R1173J
1004.612	10.428	1010326	COUNTDOWN_START	n/a	n/a	n/a	-999	7	[0, 0, 0]	n/a	FR1	0	R1173J
1015.04	0.007	1020754	COUNTDOWN_END	n/a	n/a	n/a	-999	7	[0, 0, 0]	n/a	FR1	0	R1173J
1015.047	1.616	1020761	ORIENT	n/a	n/a	n/a	-999	7	[0, 0, 0]	n/a	FR1	0	R1173J
1016.663	2.351	1022377	ORIENT_OFF	n/a	n/a	n/a	-999	7	[0, 0, 0]	n/a	FR1	0	R1173J
1019.014	1.617	1024728	WORD	n/a	wordpools/wordpool_EN.txt	PIG	1	7	[0, 0, 0]	n/a	FR1	0	R1173J
1020.631	0.867	1026345	WORD_OFF	n/a	n/a	PIG	1	7	[0, 0, 0]	n/a	FR1	0	R1173J
1021.498	1.617	1027212	WORD	n/a	wordpools/wordpool_EN.txt	ROOF	2	7	[0, 0, 0]	n/a	FR1	0	R1173J
1023.115	0.933	1028829	WORD_OFF	n/a	n/a	ROOF	2	7	[0, 0, 0]	n/a	FR1	0	R1173J
1024.048	1.617	1029762	WORD	n/a	wordpools/wordpool_EN.txt	TRUCK	3	7	[0, 0, 0]	n/a	FR1	0	R1173J
1025.665	0.916	1031379	WORD_OFF	n/a	n/a	TRUCK	3	7	[0, 0, 0]	n/a	FR1	0	R1173J
1026.581	1.617	1032295	WORD	n/a	wordpools/wordpool_EN.txt	ROSE	4	7	[0, 0, 0]	n/a	FR1	0	R1173J
1028.198	0.85	1033912	WORD_OFF	n/a	n/a	ROSE	4	7	[0, 0, 0]	n/a	FR1	0	R1173J
1029.048	1.617	1034762	WORD	n/a	wordpools/wordpool_EN.txt	FUR	5	7	[0, 0, 0]	n/a	FR1	0	R1173J
1030.665	0.801	1036379	WORD_OFF	n/a	n/a	FUR	5	7	[0, 0, 0]	n/a	FR1	0	R1173J
1031.466	1.616	1037180	WORD	n/a	wordpools/wordpool_EN.txt	CLIFF	6	7	[0, 0, 0]	n/a	FR1	0	R1173J
1033.082	1.017	1038796	WORD_OFF	n/a	n/a	CLIFF	6	7	[0, 0, 0]	n/a	FR1	0	R1173J
1034.099	1.617	1039813	WORD	n/a	wordpools/wordpool_EN.txt	BADGE	7	7	[0, 0, 0]	n/a	FR1	0	R1173J
1035.716	0.818	1041430	WORD_OFF	n/a	n/a	BADGE	7	7	[0, 0, 0]	n/a	FR1	0	R1173J
1036.534	1.616	1042248	WORD	n/a	wordpools/wordpool_EN.txt	GOLD	8	7	[0, 0, 0]	n/a	FR1	0	R1173J
1038.15	0.966	1043864	WORD_OFF	n/a	n/a	GOLD	8	7	[0, 0, 0]	n/a	FR1	0	R1173J
1039.116	1.617	1044830	WORD	n/a	wordpools/wordpool_EN.txt	RIB	9	7	[0, 0, 0]	n/a	FR1	0	R1173J
1040.733	0.95	1046447	WORD_OFF	n/a	n/a	RIB	9	7	[0, 0, 0]	n/a	FR1	0	R1173J
1041.683	1.602	1047397	WORD	n/a	wordpools/wordpool_EN.txt	TAIL	10	7	[0, 0, 0]	n/a	FR1	0	R1173J
1043.285	0.816	1048999	WORD_OFF	n/a	n/a	TAIL	10	7	[0, 0, 0]	n/a	FR1	0	R1173J
1044.101	1.616	1049815	WORD	n/a	wordpools/wordpool_EN.txt	BAND	11	7	[0, 0, 0]	n/a	FR1	0	R1173J
1045.717	0.884	1051431	WORD_OFF	n/a	n/a	BAND	11	7	[0, 0, 0]	n/a	FR1	0	R1173J
1046.601	1.617	1052315	WORD	n/a	wordpools/wordpool_EN.txt	STORM	12	7	[0, 0, 0]	n/a	FR1	0	R1173J
1048.218	0.0	1053932	WORD_OFF	n/a	n/a	STORM	12	7	[0, 0, 0]	n/a	FR1	0	R1173J
1048.218	0.0	1053932	DISTRACT_START	n/a	n/a	n/a	-999	7	[0, 0, 0]	n/a	FR1	0	R1173J
1048.218	0.017	1053932	START	n/a	n/a	n/a	-999	7	[-999, -999, -999]	n/a	FR1	0	R1173J
1048.235	3.75	1053949	PROB	3.75	n/a	n/a	-999	7	[7, 3, 7]	17	FR1	0	R1173J
1051.985	8.134	1057699	PROB	8.134	n/a	n/a	-999	7	[9, 8, 3]	20	FR1	0	R1173J
1060.119	10.33	1065833	PROB	10.33	n/a	n/a	-999	7	[6, 9, 4]	19	FR1	0	R1173J
1070.449	0.022	1076163	STOP	n/a	n/a	n/a	-999	7	[-999, -999, -999]	n/a	FR1	0	R1173J
1070.471	0.666	1076185	DISTRACT_END	n/a	n/a	n/a	-999	7	[0, 0, 0]	n/a	FR1	0	R1173J
1071.137	0.518	1076851	RETRIEVAL_ORIENT	n/a	n/a	n/a	-999	7	[0, 0, 0]	n/a	FR1	0	R1173J
1071.655	3.751	1077369	REC_START	n/a	n/a	n/a	-999	7	[0, 0, 0]	n/a	FR1	0	R1173J
1075.406	0.65	1081120	REC_WORD	0.65	n/a	CLIFF	-999	7	[0, 0, 0]	n/a	FR1	0	R1173J
1076.056	1.812	1081770	REC_WORD	1.812	n/a	ROOF	-999	7	[0, 0, 0]	n/a	FR1	0	R1173J
1077.868	0.796	1083582	REC_WORD	0.796	n/a	TRUCK	-999	7	[0, 0, 0]	n/a	FR1	0	R1173J
1078.664	3.554	1084378	REC_WORD	3.554	n/a	ROSE	-999	7	[0, 0, 0]	n/a	FR1	0	R1173J
1082.218	2.455	1087932	REC_WORD	2.455	n/a	BADGE	-999	7	[0, 0, 0]	n/a	FR1	0	R1173J
1084.673	7.625	1090387	REC_WORD	7.625	n/a	STORM	-999	7	[0, 0, 0]	n/a	FR1	0	R1173J
1092.298	9.37	1098012	REC_WORD	9.37	n/a	PIG	-999	7	[0, 0, 0]	n/a	FR1	0	R1173J
1101.668	188.23	1107382	REC_END	n/a	n/a	n/a	-999	7	[0, 0, 0]	n/a	FR1	0	R1173J
1289.898	0.5	1295610	TRIAL	n/a	n/a	n/a	-999	8	[0, 0, 0]	n/a	FR1	0	R1173J
1290.398	10.428	1296110	COUNTDOWN_START	n/a	n/a	n/a	-999	8	[0, 0, 0]	n/a	FR1	0	R1173J
1300.826	0.007	1306538	COUNTDOWN_END	n/a	n/a	n/a	-999	8	[0, 0, 0]	n/a	FR1	0	R1173J
1300.833	1.618	1306545	ORIENT	n/a	n/a	n/a	-999	8	[0, 0, 0]	n/a	FR1	0	R1173J
1302.451	2.266	1308163	ORIENT_OFF	n/a	n/a	n/a	-999	8	[0, 0, 0]	n/a	FR1	0	R1173J
1304.717	1.618	1310429	WORD	n/a	wordpools/wordpool_EN.txt	BARN	1	8	[0, 0, 0]	n/a	FR1	0	R1173J
1306.335	0.966	1312047	WORD_OFF	n/a	n/a	BARN	1	8	[0, 0, 0]	n/a	FR1	0	R1173J
1307.301	1.616	1313013	WORD	n/a	wordpools/wordpool_EN.txt	RUG	2	8	[0, 0, 0]	n/a	FR1	0	R1173J
1308.917	0.817	1314629	WORD_OFF	n/a	n/a	RUG	2	8	[0, 0, 0]	n/a	FR1	0	R1173J
1309.734	1.618	1315446	WORD	n/a	wordpools/wordpool_EN.txt	SPOON	3	8	[0, 0, 0]	n/a	FR1	0	R1173J
1311.352	0.833	1317064	WORD_OFF	n/a	n/a	SPOON	3	8	[0, 0, 0]	n/a	FR1	0	R1173J
1312.185	1.617	1317897	WORD	n/a	wordpools/wordpool_EN.txt	DOG	4	8	[0, 0, 0]	n/a	FR1	0	R1173J
1313.802	0.766	1319514	WORD_OFF	n/a	n/a	DOG	4	8	[0, 0, 0]	n/a	FR1	0	R1173J
1314.568	1.617	1320280	WORD	n/a	wordpools/wordpool_EN.txt	PIPE	5	8	[0, 0, 0]	n/a	FR1	0	R1173J
1316.185	1.0	1321897	WORD_OFF	n/a	n/a	PIPE	5	8	[0, 0, 0]	n/a	FR1	0	R1173J
1317.185	1.617	1322897	WORD	n/a	wordpools/wordpool_EN.txt	ROPE	6	8	[0, 0, 0]	n/a	FR1	0	R1173J
1318.802	0.85	1324514	WORD_OFF	n/a	n/a	ROPE	6	8	[0, 0, 0]	n/a	FR1	0	R1173J
1319.652	1.618	1325364	WORD	n/a	wordpools/wordpool_EN.txt	CALF	7	8	[0, 0, 0]	n/a	FR1	0	R1173J
1321.27	1.0	1326982	WORD_OFF	n/a	n/a	CALF	7	8	[0, 0, 0]	n/a	FR1	0	R1173J
1322.27	1.616	1327982	WORD	n/a	wordpools/wordpool_EN.txt	TOY	8	8	[0, 0, 0]	n/a	FR1	0	R1173J
1323.886	0.817	1329598	WORD_OFF	n/a	n/a	TOY	8	8	[0, 0, 0]	n/a	FR1	0	R1173J
1324.703	1.618	1330415	WORD	n/a	wordpools/wordpool_EN.txt	BED	9	8	[0, 0, 0]	n/a	FR1	0	R1173J
1326.321	0.916	1332033	WORD_OFF	n/a	n/a	BED	9	8	[0, 0, 0]	n/a	FR1	0	R1173J
1327.237	1.616	1332949	WORD	n/a	wordpools/wordpool_EN.txt	LAWN	10	8	[0, 0, 0]	n/a	FR1	0	R1173J
1328.853	0.917	1334565	WORD_OFF	n/a	n/a	LAWN	10	8	[0, 0, 0]	n/a	FR1	0	R1173J
1329.77	1.618	1335482	WORD	n/a	wordpools/wordpool_EN.txt	BOY	11	8	[0, 0, 0]	n/a	FR1	0	R1173J
1331.388	0.783	1337100	WORD_OFF	n/a	n/a	BOY	11	8	[0, 0, 0]	n/a	FR1	0	R1173J
1332.171	1.616	1337883	WORD	n/a	wordpools/wordpool_EN.txt	CHEEK	12	8	[0, 0, 0]	n/a	FR1	0	R1173J
1333.787	0.0	1339499	WORD_OFF	n/a	n/a	CHEEK	12	8	[0, 0, 0]	n/a	FR1	0	R1173J
1333.787	0.001	1339499	DISTRACT_START	n/a	n/a	n/a	-999	8	[0, 0, 0]	n/a	FR1	0	R1173J
1333.788	0.016	1339500	START	n/a	n/a	n/a	-999	8	[-999, -999, -999]	n/a	FR1	0	R1173J
1333.804	4.084	1339516	PROB	4.084	n/a	n/a	-999	8	[3, 4, 3]	10	FR1	0	R1173J
1337.888	3.317	1343600	PROB	3.317	n/a	n/a	-999	8	[7, 3, 7]	17	FR1	0	R1173J
1341.205	10.751	1346917	PROB	10.751	n/a	n/a	-999	8	[9, 7, 9]	25	FR1	0	R1173J
1351.956	12.474	1357667	PROB	12.474	n/a	n/a	-999	8	[5, 9, 7]	21	FR1	0	R1173J
1364.43	0.012	1370141	STOP	n/a	n/a	n/a	-999	8	[-999, -999, -999]	n/a	FR1	0	R1173J
1364.442	0.583	1370153	DISTRACT_END	n/a	n/a	n/a	-999	8	[0, 0, 0]	n/a	FR1	0	R1173J
1365.025	0.517	1370736	RETRIEVAL_ORIENT	n/a	n/a	n/a	-999	8	[0, 0, 0]	n/a	FR1	0	R1173J
1365.542	1.636	1371253	REC_START	n/a	n/a	n/a	-999	8	[0, 0, 0]	n/a	FR1	0	R1173J
1367.178	1.8	1372889	REC_WORD	1.8	n/a	BOY	-999	8	[0, 0, 0]	n/a	FR1	0	R1173J
1368.978	1.698	1374689	REC_WORD	1.698	n/a	CALF	-999	8	[0, 0, 0]	n/a	FR1	0	R1173J
1370.676	1.356	1376387	REC_WORD	1.356	n/a	BARN	-999	8	[0, 0, 0]	n/a	FR1	0	R1173J
1372.032	1.758	1377743	REC_WORD	1.758	n/a	RUG	-999	8	[0, 0, 0]	n/a	FR1	0	R1173J
1373.79	4.99	1379501	REC_WORD	4.99	n/a	ROPE	-999	8	[0, 0, 0]	n/a	FR1	0	R1173J
1378.78	2.548	1384491	REC_WORD	2.548	n/a	PIPE	-999	8	[0, 0, 0]	n/a	FR1	0	R1173J
1381.328	6.501	1387039	REC_WORD	6.501	n/a	ROOF	-999	8	[0, 0, 0]	n/a	FR1	0	R1173J
1387.829	7.726	1393540	REC_WORD	7.726	n/a	SPOON	-999	8	[0, 0, 0]	n/a	FR1	0	R1173J
1395.555	6.408	1401266	REC_END	n/a	n/a	n/a	-999	8	[0, 0, 0]	n/a	FR1	0	R1173J
1401.963	0.5	1407674	TRIAL	n/a	n/a	n/a	-999	9	[0, 0, 0]	n/a	FR1	0	R1173J
1402.463	10.428	1408174	COUNTDOWN_START	n/a	n/a	n/a	-999	9	[0, 0, 0]	n/a	FR1	0	R1173J
1412.891	0.007	1418602	COUNTDOWN_END	n/a	n/a	n/a	-999	9	[0, 0, 0]	n/a	FR1	0	R1173J
1412.898	1.617	1418609	ORIENT	n/a	n/a	n/a	-999	9	[0, 0, 0]	n/a	FR1	0	R1173J
1414.515	2.049	1420226	ORIENT_OFF	n/a	n/a	n/a	-999	9	[0, 0, 0]	n/a	FR1	0	R1173J
1416.564	1.617	1422275	WORD	n/a	wordpools/wordpool_EN.txt	SEED	1	9	[0, 0, 0]	n/a	FR1	0	R1173J
1418.181	0.951	1423892	WORD_OFF	n/a	n/a	SEED	1	9	[0, 0, 0]	n/a	FR1	0	R1173J
1419.132	1.616	1424843	WORD	n/a	wordpools/wordpool_EN.txt	CLOUD	2	9	[0, 0, 0]	n/a	FR1	0	R1173J
1420.748	0.984	1426459	WORD_OFF	n/a	n/a	CLOUD	2	9	[0, 0, 0]	n/a	FR1	0	R1173J
1421.732	1.618	1427443	WORD	n/a	wordpools/wordpool_EN.txt	FARM	3	9	[0, 0, 0]	n/a	FR1	0	R1173J
1423.35	0.866	1429061	WORD_OFF	n/a	n/a	FARM	3	9	[0, 0, 0]	n/a	FR1	0	R1173J
1424.216	1.616	1429927	WORD	n/a	wordpools/wordpool_EN.txt	CHALK	4	9	[0, 0, 0]	n/a	FR1	0	R1173J
1425.832	1.0	1431543	WORD_OFF	n/a	n/a	CHALK	4	9	[0, 0, 0]	n/a	FR1	0	R1173J
1426.832	1.601	1432543	WORD	n/a	wordpools/wordpool_EN.txt	SHARK	5	9	[0, 0, 0]	n/a	FR1	0	R1173J
1428.433	0.801	1434144	WORD_OFF	n/a	n/a	SHARK	5	9	[0, 0, 0]	n/a	FR1	0	R1173J
1429.234	1.616	1434945	WORD	n/a	wordpools/wordpool_EN.txt	SPARK	6	9	[0, 0, 0]	n/a	FR1	0	R1173J
1430.85	0.917	1436561	WORD_OFF	n/a	n/a	SPARK	6	9	[0, 0, 0]	n/a	FR1	0	R1173J
1431.767	1.618	1437478	WORD	n/a	wordpools/wordpool_EN.txt	SNAIL	7	9	[0, 0, 0]	n/a	FR1	0	R1173J
1433.385	0.85	1439096	WORD_OFF	n/a	n/a	SNAIL	7	9	[0, 0, 0]	n/a	FR1	0	R1173J
1434.235	1.615	1439946	WORD	n/a	wordpools/wordpool_EN.txt	RAT	8	9	[0, 0, 0]	n/a	FR1	0	R1173J
1435.85	0.984	1441561	WORD_OFF	n/a	n/a	RAT	8	9	[0, 0, 0]	n/a	FR1	0	R1173J
1436.834	1.618	1442545	WORD	n/a	wordpools/wordpool_EN.txt	SHEEP	9	9	[0, 0, 0]	n/a	FR1	0	R1173J
1438.452	0.933	1444163	WORD_OFF	n/a	n/a	SHEEP	9	9	[0, 0, 0]	n/a	FR1	0	R1173J
1439.385	1.616	1445096	WORD	n/a	wordpools/wordpool_EN.txt	FLAG	10	9	[0, 0, 0]	n/a	FR1	0	R1173J
1441.001	0.834	1446712	WORD_OFF	n/a	n/a	FLAG	10	9	[0, 0, 0]	n/a	FR1	0	R1173J
1441.835	1.618	1447546	WORD	n/a	wordpools/wordpool_EN.txt	SWAMP	11	9	[0, 0, 0]	n/a	FR1	0	R1173J
1443.453	0.816	1449164	WORD_OFF	n/a	n/a	SWAMP	11	9	[0, 0, 0]	n/a	FR1	0	R1173J
1444.269	1.616	1449980	WORD	n/a	wordpools/wordpool_EN.txt	CANE	12	9	[0, 0, 0]	n/a	FR1	0	R1173J
1445.885	0.0	1451596	DISTRACT_START	n/a	n/a	n/a	-999	9	[0, 0, 0]	n/a	FR1	0	R1173J
1445.885	0.001	1451596	WORD_OFF	n/a	n/a	CANE	12	9	[0, 0, 0]	n/a	FR1	0	R1173J
1445.886	0.016	1451597	START	n/a	n/a	n/a	-999	9	[-999, -999, -999]	n/a	FR1	0	R1173J
1445.902	8.218	1451613	PROB	8.218	n/a	n/a	-999	9	[6, 1, 9]	16	FR1	0	R1173J
1454.12	4.867	1459831	PROB	4.867	n/a	n/a	-999	9	[8, 6, 1]	15	FR1	0	R1173J
1458.987	9.62	1464698	PROB	9.62	n/a	n/a	-999	9	[7, 6, 4]	17	FR1	0	R1173J
1468.607	0.014	1474318	STOP	n/a	n/a	n/a	-999	9	[-999, -999, -999]	n/a	FR1	0	R1173J
1468.621	0.534	1474332	DISTRACT_END	n/a	n/a	n/a	-999	9	[0, 0, 0]	n/a	FR1	0	R1173J
1469.155	0.517	1474866	RETRIEVAL_ORIENT	n/a	n/a	n/a	-999	9	[0, 0, 0]	n/a	FR1	0	R1173J
1469.672	2.376	1475382	REC_START	n/a	n/a	n/a	-999	9	[0, 0, 0]	n/a	FR1	0	R1173J
1472.048	5.029	1477758	REC_WORD	5.029	n/a	CANE	-999	9	[0, 0, 0]	n/a	FR1	0	R1173J
1477.077	7.516	1482787	REC_WORD	7.516	n/a	SHEEP	-999	9	[0, 0, 0]	n/a	FR1	0	R1173J
1484.593	1.199	1490303	REC_WORD	1.199	n/a	FARM	-999	9	[0, 0, 0]	n/a	FR1	0	R1173J
1485.792	13.893	1491502	REC_WORD	13.893	n/a	SWAMP	-999	9	[0, 0, 0]	n/a	FR1	0	R1173J
1499.685	8.308	1505395	REC_END	n/a	n/a	n/a	-999	9	[0, 0, 0]	n/a	FR1	0	R1173J
1507.993	0.5	1513703	TRIAL	n/a	n/a	n/a	-999	10	[0, 0, 0]	n/a	FR1	0	R1173J
1508.493	10.428	1514203	COUNTDOWN_START	n/a	n/a	n/a	-999	10	[0, 0, 0]	n/a	FR1	0	R1173J
1518.921	0.007	1524631	COUNTDOWN_END	n/a	n/a	n/a	-999	10	[0, 0, 0]	n/a	FR1	0	R1173J
1518.928	1.617	1524638	ORIENT	n/a	n/a	n/a	-999	10	[0, 0, 0]	n/a	FR1	0	R1173J
1520.545	2.2	1526255	ORIENT_OFF	n/a	n/a	n/a	-999	10	[0, 0, 0]	n/a	FR1	0	R1173J
1522.745	1.618	1528455	WORD	n/a	wordpools/wordpool_EN.txt	CART	1	10	[0, 0, 0]	n/a	FR1	0	R1173J
1524.363	0.933	1530073	WORD_OFF	n/a	n/a	CART	1	10	[0, 0, 0]	n/a	FR1	0	R1173J
1525.296	1.616	1531006	WORD	n/a	wordpools/wordpool_EN.txt	THUMB	2	10	[0, 0, 0]	n/a	FR1	0	R1173J
1526.912	0.817	1532622	WORD_OFF	n/a	n/a	THUMB	2	10	[0, 0, 0]	n/a	FR1	0	R1173J
1527.729	1.618	1533439	WORD	n/a	wordpools/wordpool_EN.txt	YARD	3	10	[0, 0, 0]	n/a	FR1	0	R1173J
1529.347	0.933	1535057	WORD_OFF	n/a	n/a	YARD	3	10	[0, 0, 0]	n/a	FR1	0	R1173J
1530.28	1.616	1535990	WORD	n/a	wordpools/wordpool_EN.txt	CONE	4	10	[0, 0, 0]	n/a	FR1	0	R1173J
1531.896	0.8	1537606	WORD_OFF	n/a	n/a	CONE	4	10	[0, 0, 0]	n/a	FR1	0	R1173J
1532.696	1.618	1538406	WORD	n/a	wordpools/wordpool_EN.txt	BREAD	5	10	[0, 0, 0]	n/a	FR1	0	R1173J
1534.314	0.933	1540024	WORD_OFF	n/a	n/a	BREAD	5	10	[0, 0, 0]	n/a	FR1	0	R1173J
1535.247	1.616	1540957	WORD	n/a	wordpools/wordpool_EN.txt	POLE	6	10	[0, 0, 0]	n/a	FR1	0	R1173J
1536.863	0.767	1542573	WORD_OFF	n/a	n/a	POLE	6	10	[0, 0, 0]	n/a	FR1	0	R1173J
1537.63	1.618	1543340	WORD	n/a	wordpools/wordpool_EN.txt	RAKE	7	10	[0, 0, 0]	n/a	FR1	0	R1173J
1539.248	0.983	1544958	WORD_OFF	n/a	n/a	RAKE	7	10	[0, 0, 0]	n/a	FR1	0	R1173J
1540.231	1.616	1545941	WORD	n/a	wordpools/wordpool_EN.txt	DITCH	8	10	[0, 0, 0]	n/a	FR1	0	R1173J
1541.847	0.984	1547557	WORD_OFF	n/a	n/a	DITCH	8	10	[0, 0, 0]	n/a	FR1	0	R1173J
1542.831	1.618	1548541	WORD	n/a	wordpools/wordpool_EN.txt	HEN	9	10	[0, 0, 0]	n/a	FR1	0	R1173J
1544.449	1.0	1550159	WORD_OFF	n/a	n/a	HEN	9	10	[0, 0, 0]	n/a	FR1	0	R1173J
1545.449	1.615	1551159	WORD	n/a	wordpools/wordpool_EN.txt	HAT	10	10	[0, 0, 0]	n/a	FR1	0	R1173J
1547.064	0.917	1552774	WORD_OFF	n/a	n/a	HAT	10	10	[0, 0, 0]	n/a	FR1	0	R1173J
1547.981	1.617	1553691	WORD	n/a	wordpools/wordpool_EN.txt	TOOL	11	10	[0, 0, 0]	n/a	FR1	0	R1173J
1549.598	0.835	1555308	WORD_OFF	n/a	n/a	TOOL	11	10	[0, 0, 0]	n/a	FR1	0	R1173J
1550.433	1.616	1556143	WORD	n/a	wordpools/wordpool_EN.txt	WAND	12	10	[0, 0, 0]	n/a	FR1	0	R1173J
1552.049	0.0	1557759	WORD_OFF	n/a	n/a	WAND	12	10	[0, 0, 0]	n/a	FR1	0	R1173J
1552.049	0.001	1557759	DISTRACT_START	n/a	n/a	n/a	-999	10	[0, 0, 0]	n/a	FR1	0	R1173J
1552.05	0.015	1557760	START	n/a	n/a	n/a	-999	10	[-999, -999, -999]	n/a	FR1	0	R1173J
1552.065	4.834	1557775	PROB	4.834	n/a	n/a	-999	10	[9, 2, 1]	13	FR1	0	R1173J
1556.899	7.835	1562609	PROB	7.835	n/a	n/a	-999	10	[4, 2, 7]	13	FR1	0	R1173J
1564.734	3.4	1570444	PROB	3.4	n/a	n/a	-999	10	[4, 2, 1]	7	FR1	0	R1173J
1568.134	15.422	1573844	PROB	15.422	n/a	n/a	-999	10	[9, 2, 4]	15	FR1	0	R1173J
1583.556	0.013	1589266	STOP	n/a	n/a	n/a	-999	10	[-999, -999, -999]	n/a	FR1	0	R1173J
1583.569	0.651	1589279	DISTRACT_END	n/a	n/a	n/a	-999	10	[0, 0, 0]	n/a	FR1	0	R1173J
1584.22	0.517	1589930	RETRIEVAL_ORIENT	n/a	n/a	n/a	-999	10	[0, 0, 0]	n/a	FR1	0	R1173J
1584.737	2.27	1590447	REC_START	n/a	n/a	n/a	-999	10	[0, 0, 0]	n/a	FR1	0	R1173J
1587.007	1.554	1592717	REC_WORD	1.554	n/a	RAKE	-999	10	[0, 0, 0]	n/a	FR1	0	R1173J
1588.561	1.756	1594271	REC_WORD	1.756	n/a	POLE	-999	10	[0, 0, 0]	n/a	FR1	0	R1173J
1590.317	24.432	1596027	REC_WORD	24.432	n/a	DITCH	-999	10	[0, 0, 0]	n/a	FR1	0	R1173J
1614.749	44.714	1620458	REC_END	n/a	n/a	n/a	-999	10	[0, 0, 0]	n/a	FR1	0	R1173J
1659.463	0.5	1665172	TRIAL	n/a	n/a	n/a	-999	11	[0, 0, 0]	n/a	FR1	0	R1173J
1659.963	10.428	1665672	COUNTDOWN_START	n/a	n/a	n/a	-999	11	[0, 0, 0]	n/a	FR1	0	R1173J
1670.391	0.007	1676100	COUNTDOWN_END	n/a	n/a	n/a	-999	11	[0, 0, 0]	n/a	FR1	0	R1173J
1670.398	1.616	1676107	ORIENT	n/a	n/a	n/a	-999	11	[0, 0, 0]	n/a	FR1	0	R1173J
1672.014	2.15	1677723	ORIENT_OFF	n/a	n/a	n/a	-999	11	[0, 0, 0]	n/a	FR1	0	R1173J
1674.164	1.617	1679873	WORD	n/a	wordpools/wordpool_EN.txt	DOOR	1	11	[0, 0, 0]	n/a	FR1	0	R1173J
1675.781	0.883	1681490	WORD_OFF	n/a	n/a	DOOR	1	11	[0, 0, 0]	n/a	FR1	0	R1173J
1676.664	1.618	1682373	WORD	n/a	wordpools/wordpool_EN.txt	SLEEVE	2	11	[0, 0, 0]	n/a	FR1	0	R1173J
1678.282	0.816	1683991	WORD_OFF	n/a	n/a	SLEEVE	2	11	[0, 0, 0]	n/a	FR1	0	R1173J
1679.098	1.617	1684807	WORD	n/a	wordpools/wordpool_EN.txt	BENCH	3	11	[0, 0, 0]	n/a	FR1	0	R1173J
1680.715	0.801	1686424	WORD_OFF	n/a	n/a	BENCH	3	11	[0, 0, 0]	n/a	FR1	0	R1173J
1681.516	1.616	1687225	WORD	n/a	wordpools/wordpool_EN.txt	SKY	4	11	[0, 0, 0]	n/a	FR1	0	R1173J
1683.132	0.867	1688841	WORD_OFF	n/a	n/a	SKY	4	11	[0, 0, 0]	n/a	FR1	0	R1173J
1683.999	1.616	1689708	WORD	n/a	wordpools/wordpool_EN.txt	STOOL	5	11	[0, 0, 0]	n/a	FR1	0	R1173J
1685.615	0.885	1691324	WORD_OFF	n/a	n/a	STOOL	5	11	[0, 0, 0]	n/a	FR1	0	R1173J
1686.5	1.616	1692209	WORD	n/a	wordpools/wordpool_EN.txt	MUD	6	11	[0, 0, 0]	n/a	FR1	0	R1173J
1688.116	0.867	1693825	WORD_OFF	n/a	n/a	MUD	6	11	[0, 0, 0]	n/a	FR1	0	R1173J
1688.983	1.617	1694692	WORD	n/a	wordpools/wordpool_EN.txt	VASE	7	11	[0, 0, 0]	n/a	FR1	0	R1173J
1690.6	0.983	1696309	WORD_OFF	n/a	n/a	VASE	7	11	[0, 0, 0]	n/a	FR1	0	R1173J
1691.583	1.617	1697292	WORD	n/a	wordpools/wordpool_EN.txt	OAR	8	11	[0, 0, 0]	n/a	FR1	0	R1173J
1693.2	0.817	1698909	WORD_OFF	n/a	n/a	OAR	8	11	[0, 0, 0]	n/a	FR1	0	R1173J
1694.017	1.616	1699726	WORD	n/a	wordpools/wordpool_EN.txt	TOE	9	11	[0, 0, 0]	n/a	FR1	0	R1173J
1695.633	0.768	1701342	WORD_OFF	n/a	n/a	TOE	9	11	[0, 0, 0]	n/a	FR1	0	R1173J
1696.401	1.616	1702110	WORD	n/a	wordpools/wordpool_EN.txt	GRAPE	10	11	[0, 0, 0]	n/a	FR1	0	R1173J
1698.017	0.834	1703726	WORD_OFF	n/a	n/a	GRAPE	10	11	[0, 0, 0]	n/a	FR1	0	R1173J
1698.851	1.618	1704560	WORD	n/a	wordpools/wordpool_EN.txt	STRAW	11	11	[0, 0, 0]	n/a	FR1	0	R1173J
1700.469	0.883	1706178	WORD_OFF	n/a	n/a	STRAW	11	11	[0, 0, 0]	n/a	FR1	0	R1173J
1701.352	1.616	1707061	WORD	n/a	wordpools/wordpool_EN.txt	PURSE	12	11	[0, 0, 0]	n/a	FR1	0	R1173J
1702.968	0.0	1708677	WORD_OFF	n/a	n/a	PURSE	12	11	[0, 0, 0]	n/a	FR1	0	R1173J
1702.968	0.001	1708677	DISTRACT_START	n/a	n/a	n/a	-999	11	[0, 0, 0]	n/a	FR1	0	R1173J
1702.969	0.016	1708678	START	n/a	n/a	n/a	-999	11	[-999, -999, -999]	n/a	FR1	0	R1173J
1702.985	5.15	1708694	PROB	5.15	n/a	n/a	-999	11	[8, 8, 5]	21	FR1	0	R1173J
1708.135	3.401	1713844	PROB	3.401	n/a	n/a	-999	11	[1, 3, 6]	10	FR1	0	R1173J
1711.536	4.35	1717244	PROB	4.35	n/a	n/a	-999	11	[7, 3, 9]	19	FR1	0	R1173J
1715.886	6.502	1721594	PROB	6.502	n/a	n/a	-999	11	[6, 6, 8]	20	FR1	0	R1173J
1722.388	8.673	1728096	PROB	8.673	n/a	n/a	-999	11	[3, 4, 4]	11	FR1	0	R1173J
1731.061	0.01	1736769	STOP	n/a	n/a	n/a	-999	11	[-999, -999, -999]	n/a	FR1	0	R1173J
1731.071	0.55	1736779	DISTRACT_END	n/a	n/a	n/a	-999	11	[0, 0, 0]	n/a	FR1	0	R1173J
1731.621	0.518	1737329	RETRIEVAL_ORIENT	n/a	n/a	n/a	-999	11	[0, 0, 0]	n/a	FR1	0	R1173J
1732.139	1.912	1737847	REC_START	n/a	n/a	n/a	-999	11	[0, 0, 0]	n/a	FR1	0	R1173J
1734.051	1.384	1739759	REC_WORD	1.384	n/a	OAR	-999	11	[0, 0, 0]	n/a	FR1	0	R1173J
1735.435	1.294	1741143	REC_WORD	1.294	n/a	GRAPE	-999	11	[0, 0, 0]	n/a	FR1	0	R1173J
1736.729	1.79	1742437	REC_WORD	1.79	n/a	STOOL	-999	11	[0, 0, 0]	n/a	FR1	0	R1173J
1738.519	8.536	1744227	REC_WORD	8.536	n/a	MUD	-999	11	[0, 0, 0]	n/a	FR1	0	R1173J
1747.055	2.205	1752763	REC_WORD	2.205	n/a	THUMB	-999	11	[0, 0, 0]	n/a	FR1	0	R1173J
1749.26	12.89	1754968	REC_WORD	12.89	n/a	SLEEVE	-999	11	[0, 0, 0]	n/a	FR1	0	R1173J
1762.15	22.962	1767858	REC_END	n/a	n/a	n/a	-999	11	[0, 0, 0]	n/a	FR1	0	R1173J
1785.112	0.5	1790820	TRIAL	n/a	n/a	n/a	-999	12	[0, 0, 0]	n/a	FR1	0	R1173J
1785.612	10.428	1791320	COUNTDOWN_START	n/a	n/a	n/a	-999	12	[0, 0, 0]	n/a	FR1	0	R1173J
1796.04	0.006	1801748	COUNTDOWN_END	n/a	n/a	n/a	-999	12	[0, 0, 0]	n/a	FR1	0	R1173J
1796.046	1.617	1801754	ORIENT	n/a	n/a	n/a	-999	12	[0, 0, 0]	n/a	FR1	0	R1173J
1797.663	2.2	1803371	ORIENT_OFF	n/a	n/a	n/a	-999	12	[0, 0, 0]	n/a	FR1	0	R1173J
1799.863	1.602	1805571	WORD	n/a	wordpools/wordpool_EN.txt	LEG	1	12	[0, 0, 0]	n/a	FR1	0	R1173J
1801.465	0.983	1807173	WORD_OFF	n/a	n/a	LEG	1	12	[0, 0, 0]	n/a	FR1	0	R1173J
1802.448	1.616	1808156	WORD	n/a	wordpools/wordpool_EN.txt	FOX	2	12	[0, 0, 0]	n/a	FR1	0	R1173J
1804.064	0.834	1809772	WORD_OFF	n/a	n/a	FOX	2	12	[0, 0, 0]	n/a	FR1	0	R1173J
1804.898	1.617	1810606	WORD	n/a	wordpools/wordpool_EN.txt	SHOE	3	12	[0, 0, 0]	n/a	FR1	0	R1173J
1806.515	0.784	1812223	WORD_OFF	n/a	n/a	SHOE	3	12	[0, 0, 0]	n/a	FR1	0	R1173J
1807.299	1.616	1813007	WORD	n/a	wordpools/wordpool_EN.txt	LOCK	4	12	[0, 0, 0]	n/a	FR1	0	R1173J
1808.915	0.85	1814623	WORD_OFF	n/a	n/a	LOCK	4	12	[0, 0, 0]	n/a	FR1	0	R1173J
1809.765	1.618	1815473	WORD	n/a	wordpools/wordpool_EN.txt	BRICK	5	12	[0, 0, 0]	n/a	FR1	0	R1173J
1811.383	0.9	1817091	WORD_OFF	n/a	n/a	BRICK	5	12	[0, 0, 0]	n/a	FR1	0	R1173J
1812.283	1.616	1817991	WORD	n/a	wordpools/wordpool_EN.txt	SHIRT	6	12	[0, 0, 0]	n/a	FR1	0	R1173J
1813.899	0.933	1819607	WORD_OFF	n/a	n/a	SHIRT	6	12	[0, 0, 0]	n/a	FR1	0	R1173J
1814.832	1.618	1820540	WORD	n/a	wordpools/wordpool_EN.txt	JEEP	7	12	[0, 0, 0]	n/a	FR1	0	R1173J
1816.45	0.833	1822158	WORD_OFF	n/a	n/a	JEEP	7	12	[0, 0, 0]	n/a	FR1	0	R1173J
1817.283	1.616	1822991	WORD	n/a	wordpools/wordpool_EN.txt	VEST	8	12	[0, 0, 0]	n/a	FR1	0	R1173J
1818.899	0.95	1824607	WORD_OFF	n/a	n/a	VEST	8	12	[0, 0, 0]	n/a	FR1	0	R1173J
1819.849	1.618	1825557	WORD	n/a	wordpools/wordpool_EN.txt	MOOSE	9	12	[0, 0, 0]	n/a	FR1	0	R1173J
1821.467	0.817	1827175	WORD_OFF	n/a	n/a	MOOSE	9	12	[0, 0, 0]	n/a	FR1	0	R1173J
1822.284	1.616	1827992	WORD	n/a	wordpools/wordpool_EN.txt	DOLL	10	12	[0, 0, 0]	n/a	FR1	0	R1173J
1823.9	0.85	1829608	WORD_OFF	n/a	n/a	DOLL	10	12	[0, 0, 0]	n/a	FR1	0	R1173J
1824.75	1.618	1830458	WORD	n/a	wordpools/wordpool_EN.txt	ARM	11	12	[0, 0, 0]	n/a	FR1	0	R1173J
1826.368	0.95	1832076	WORD_OFF	n/a	n/a	ARM	11	12	[0, 0, 0]	n/a	FR1	0	R1173J
1827.318	1.616	1833026	WORD	n/a	wordpools/wordpool_EN.txt	STEAK	12	12	[0, 0, 0]	n/a	FR1	0	R1173J
1828.934	0.0	1834642	WORD_OFF	n/a	n/a	STEAK	12	12	[0, 0, 0]	n/a	FR1	0	R1173J
1828.934	0.001	1834642	DISTRACT_START	n/a	n/a	n/a	-999	12	[0, 0, 0]	n/a	FR1	0	R1173J
1828.935	0.016	1834643	START	n/a	n/a	n/a	-999	12	[-999, -999, -999]	n/a	FR1	0	R1173J
1828.951	3.418	1834659	PROB	3.418	n/a	n/a	-999	12	[1, 4, 4]	9	FR1	0	R1173J
1832.369	9.267	1838076	PROB	9.267	n/a	n/a	-999	12	[1, 8, 6]	15	FR1	0	R1173J
1841.636	7.629	1847343	PROB	7.629	n/a	n/a	-999	12	[9, 6, 8]	23	FR1	0	R1173J
1849.265	0.006	1854972	STOP	n/a	n/a	n/a	-999	12	[-999, -999, -999]	n/a	FR1	0	R1173J
1849.271	0.599	1854978	DISTRACT_END	n/a	n/a	n/a	-999	12	[0, 0, 0]	n/a	FR1	0	R1173J
1849.87	0.519	1855577	RETRIEVAL_ORIENT	n/a	n/a	n/a	-999	12	[0, 0, 0]	n/a	FR1	0	R1173J
1850.389	1.27	1856096	REC_START	n/a	n/a	n/a	-999	12	[0, 0, 0]	n/a	FR1	0	R1173J
1851.659	0.089	1857366	REC_WORD_VV	0.089	n/a	<>	-999	12	[0, 0, 0]	n/a	FR1	0	R1173J
1851.748	1.335	1857455	REC_WORD	1.335	n/a	MOOSE	-999	12	[0, 0, 0]	n/a	FR1	0	R1173J
1853.083	1.521	1858790	REC_WORD	1.521	n/a	ARM	-999	12	[0, 0, 0]	n/a	FR1	0	R1173J
1854.604	25.798	1860311	REC_WORD	25.798	n/a	STEAK	-999	12	[0, 0, 0]	n/a	FR1	0	R1173J
1880.402	47.728	1886109	REC_END	n/a	n/a	n/a	-999	12	[0, 0, 0]	n/a	FR1	0	R1173J
1928.13	0.5	1933837	TRIAL	n/a	n/a	n/a	-999	13	[0, 0, 0]	n/a	FR1	0	R1173J
1928.63	10.428	1934337	COUNTDOWN_START	n/a	n/a	n/a	-999	13	[0, 0, 0]	n/a	FR1	0	R1173J
1939.058	0.007	1944765	COUNTDOWN_END	n/a	n/a	n/a	-999	13	[0, 0, 0]	n/a	FR1	0	R1173J
1939.065	1.617	1944772	ORIENT	n/a	n/a	n/a	-999	13	[0, 0, 0]	n/a	FR1	0	R1173J
1940.682	2.133	1946389	ORIENT_OFF	n/a	n/a	n/a	-999	13	[0, 0, 0]	n/a	FR1	0	R1173J
1942.815	1.618	1948522	WORD	n/a	wordpools/wordpool_EN.txt	FLUTE	1	13	[0, 0, 0]	n/a	FR1	0	R1173J
1944.433	0.917	1950140	WORD_OFF	n/a	n/a	FLUTE	1	13	[0, 0, 0]	n/a	FR1	0	R1173J
1945.35	1.616	1951057	WORD	n/a	wordpools/wordpool_EN.txt	FISH	2	13	[0, 0, 0]	n/a	FR1	0	R1173J
1946.966	0.85	1952673	WORD_OFF	n/a	n/a	FISH	2	13	[0, 0, 0]	n/a	FR1	0	R1173J
1947.816	1.618	1953523	WORD	n/a	wordpools/wordpool_EN.txt	HOLE	3	13	[0, 0, 0]	n/a	FR1	0	R1173J
1949.434	0.833	1955141	WORD_OFF	n/a	n/a	HOLE	3	13	[0, 0, 0]	n/a	FR1	0	R1173J
1950.267	1.616	1955974	WORD	n/a	wordpools/wordpool_EN.txt	COUCH	4	13	[0, 0, 0]	n/a	FR1	0	R1173J
1951.883	0.867	1957590	WORD_OFF	n/a	n/a	COUCH	4	13	[0, 0, 0]	n/a	FR1	0	R1173J
1952.75	1.618	1958457	WORD	n/a	wordpools/wordpool_EN.txt	DIME	5	13	[0, 0, 0]	n/a	FR1	0	R1173J
1954.368	0.933	1960074	WORD_OFF	n/a	n/a	DIME	5	13	[0, 0, 0]	n/a	FR1	0	R1173J
1955.301	1.616	1961007	WORD	n/a	wordpools/wordpool_EN.txt	THREAD	6	13	[0, 0, 0]	n/a	FR1	0	R1173J
1956.917	0.867	1962623	WORD_OFF	n/a	n/a	THREAD	6	13	[0, 0, 0]	n/a	FR1	0	R1173J
1957.784	1.618	1963490	WORD	n/a	wordpools/wordpool_EN.txt	NOSE	7	13	[0, 0, 0]	n/a	FR1	0	R1173J
1959.402	0.866	1965108	WORD_OFF	n/a	n/a	NOSE	7	13	[0, 0, 0]	n/a	FR1	0	R1173J
1960.268	1.616	1965974	WORD	n/a	wordpools/wordpool_EN.txt	VINE	8	13	[0, 0, 0]	n/a	FR1	0	R1173J
1961.884	0.767	1967590	WORD_OFF	n/a	n/a	VINE	8	13	[0, 0, 0]	n/a	FR1	0	R1173J
1962.651	1.601	1968357	WORD	n/a	wordpools/wordpool_EN.txt	MAT	9	13	[0, 0, 0]	n/a	FR1	0	R1173J
1964.252	0.949	1969958	WORD_OFF	n/a	n/a	MAT	9	13	[0, 0, 0]	n/a	FR1	0	R1173J
1965.201	1.617	1970907	WORD	n/a	wordpools/wordpool_EN.txt	CHIN	10	13	[0, 0, 0]	n/a	FR1	0	R1173J
1966.818	0.784	1972524	WORD_OFF	n/a	n/a	CHIN	10	13	[0, 0, 0]	n/a	FR1	0	R1173J
1967.602	1.617	1973308	WORD	n/a	wordpools/wordpool_EN.txt	HOOK	11	13	[0, 0, 0]	n/a	FR1	0	R1173J
1969.219	0.866	1974925	WORD_OFF	n/a	n/a	HOOK	11	13	[0, 0, 0]	n/a	FR1	0	R1173J
1970.085	1.617	1975791	WORD	n/a	wordpools/wordpool_EN.txt	STREET	12	13	[0, 0, 0]	n/a	FR1	0	R1173J
1971.702	0.0	1977408	WORD_OFF	n/a	n/a	STREET	12	13	[0, 0, 0]	n/a	FR1	0	R1173J
1971.702	0.001	1977408	DISTRACT_START	n/a	n/a	n/a	-999	13	[0, 0, 0]	n/a	FR1	0	R1173J
1971.703	0.016	1977409	START	n/a	n/a	n/a	-999	13	[-999, -999, -999]	n/a	FR1	0	R1173J
1971.719	7.117	1977425	PROB	7.117	n/a	n/a	-999	13	[9, 2, 3]	14	FR1	0	R1173J
1978.836	9.469	1984542	PROB	9.469	n/a	n/a	-999	13	[5, 2, 4]	11	FR1	0	R1173J
1988.305	12.049	1994011	PROB	12.049	n/a	n/a	-999	13	[9, 3, 7]	19	FR1	0	R1173J
2000.354	0.02	2006060	STOP	n/a	n/a	n/a	-999	13	[-999, -999, -999]	n/a	FR1	0	R1173J
2000.374	0.599	2006080	DISTRACT_END	n/a	n/a	n/a	-999	13	[0, 0, 0]	n/a	FR1	0	R1173J
2000.973	0.518	2006679	RETRIEVAL_ORIENT	n/a	n/a	n/a	-999	13	[0, 0, 0]	n/a	FR1	0	R1173J
2001.491	1.251	2007197	REC_START	n/a	n/a	n/a	-999	13	[0, 0, 0]	n/a	FR1	0	R1173J
2002.742	1.329	2008448	REC_WORD	1.329	n/a	NOSE	-999	13	[0, 0, 0]	n/a	FR1	0	R1173J
2004.071	1.983	2009777	REC_WORD	1.983	n/a	CHIN	-999	13	[0, 0, 0]	n/a	FR1	0	R1173J
2006.054	1.174	2011760	REC_WORD	1.174	n/a	MAT	-999	13	[0, 0, 0]	n/a	FR1	0	R1173J
2007.228	10.667	2012934	REC_WORD	10.667	n/a	VINE	-999	13	[0, 0, 0]	n/a	FR1	0	R1173J
2017.895	7.397	2023601	REC_WORD	7.397	n/a	COUCH	-999	13	[0, 0, 0]	n/a	FR1	0	R1173J
2025.292	6.211	2030998	REC_WORD	6.211	n/a	DIME	-999	13	[0, 0, 0]	n/a	FR1	0	R1173J
2031.503	12.026	2037209	REC_END	n/a	n/a	n/a	-999	13	[0, 0, 0]	n/a	FR1	0	R1173J
2043.529	0.5	2049235	TRIAL	n/a	n/a	n/a	-999	14	[0, 0, 0]	n/a	FR1	0	R1173J
2044.029	10.428	2049735	COUNTDOWN_START	n/a	n/a	n/a	-999	14	[0, 0, 0]	n/a	FR1	0	R1173J
2054.457	0.007	2060163	COUNTDOWN_END	n/a	n/a	n/a	-999	14	[0, 0, 0]	n/a	FR1	0	R1173J
2054.464	1.615	2060170	ORIENT	n/a	n/a	n/a	-999	14	[0, 0, 0]	n/a	FR1	0	R1173J
2056.079	2.235	2061785	ORIENT_OFF	n/a	n/a	n/a	-999	14	[0, 0, 0]	n/a	FR1	0	R1173J
2058.314	1.616	2064020	WORD	n/a	wordpools/wordpool_EN.txt	SWORD	1	14	[0, 0, 0]	n/a	FR1	0	R1173J
2059.93	0.834	2065636	WORD_OFF	n/a	n/a	SWORD	1	14	[0, 0, 0]	n/a	FR1	0	R1173J
2060.764	1.618	2066470	WORD	n/a	wordpools/wordpool_EN.txt	LIP	2	14	[0, 0, 0]	n/a	FR1	0	R1173J
2062.382	0.95	2068088	WORD_OFF	n/a	n/a	LIP	2	14	[0, 0, 0]	n/a	FR1	0	R1173J
2063.332	1.616	2069038	WORD	n/a	wordpools/wordpool_EN.txt	LAMP	3	14	[0, 0, 0]	n/a	FR1	0	R1173J
2064.948	0.816	2070654	WORD_OFF	n/a	n/a	LAMP	3	14	[0, 0, 0]	n/a	FR1	0	R1173J
2065.764	1.618	2071470	WORD	n/a	wordpools/wordpool_EN.txt	ARK	4	14	[0, 0, 0]	n/a	FR1	0	R1173J
2067.382	1.0	2073088	WORD_OFF	n/a	n/a	ARK	4	14	[0, 0, 0]	n/a	FR1	0	R1173J
2068.382	1.616	2074088	WORD	n/a	wordpools/wordpool_EN.txt	STEAM	5	14	[0, 0, 0]	n/a	FR1	0	R1173J
2069.998	0.984	2075704	WORD_OFF	n/a	n/a	STEAM	5	14	[0, 0, 0]	n/a	FR1	0	R1173J
2070.982	1.617	2076688	WORD	n/a	wordpools/wordpool_EN.txt	FACE	6	14	[0, 0, 0]	n/a	FR1	0	R1173J
2072.599	0.966	2078305	WORD_OFF	n/a	n/a	FACE	6	14	[0, 0, 0]	n/a	FR1	0	R1173J
2073.565	1.617	2079271	WORD	n/a	wordpools/wordpool_EN.txt	LAMB	7	14	[0, 0, 0]	n/a	FR1	0	R1173J
2075.182	0.8	2080887	WORD_OFF	n/a	n/a	LAMB	7	14	[0, 0, 0]	n/a	FR1	0	R1173J
2075.982	1.617	2081687	WORD	n/a	wordpools/wordpool_EN.txt	DESK	8	14	[0, 0, 0]	n/a	FR1	0	R1173J
2077.599	0.884	2083304	WORD_OFF	n/a	n/a	DESK	8	14	[0, 0, 0]	n/a	FR1	0	R1173J
2078.483	1.616	2084188	WORD	n/a	wordpools/wordpool_EN.txt	GOAT	9	14	[0, 0, 0]	n/a	FR1	0	R1173J
2080.099	0.801	2085804	WORD_OFF	n/a	n/a	GOAT	9	14	[0, 0, 0]	n/a	FR1	0	R1173J
2080.9	1.618	2086605	WORD	n/a	wordpools/wordpool_EN.txt	SPEAR	10	14	[0, 0, 0]	n/a	FR1	0	R1173J
2082.518	0.8	2088223	WORD_OFF	n/a	n/a	SPEAR	10	14	[0, 0, 0]	n/a	FR1	0	R1173J
2083.318	1.616	2089023	WORD	n/a	wordpools/wordpool_EN.txt	SHIELD	11	14	[0, 0, 0]	n/a	FR1	0	R1173J
2084.934	0.999	2090639	WORD_OFF	n/a	n/a	SHIELD	11	14	[0, 0, 0]	n/a	FR1	0	R1173J
2085.933	1.617	2091638	WORD	n/a	wordpools/wordpool_EN.txt	SEAT	12	14	[0, 0, 0]	n/a	FR1	0	R1173J
2087.55	0.0	2093255	WORD_OFF	n/a	n/a	SEAT	12	14	[0, 0, 0]	n/a	FR1	0	R1173J
2087.55	0.001	2093255	DISTRACT_START	n/a	n/a	n/a	-999	14	[0, 0, 0]	n/a	FR1	0	R1173J
2087.551	0.016	2093256	START	n/a	n/a	n/a	-999	14	[-999, -999, -999]	n/a	FR1	0	R1173J
2087.567	3.735	2093272	PROB	3.735	n/a	n/a	-999	14	[2, 3, 2]	7	FR1	0	R1173J
2091.302	2.633	2097007	PROB	2.633	n/a	n/a	-999	14	[5, 5, 2]	12	FR1	0	R1173J
2093.935	4.283	2099640	PROB	4.283	n/a	n/a	-999	14	[2, 7, 3]	12	FR1	0	R1173J
2098.218	2.717	2103923	PROB	2.717	n/a	n/a	-999	14	[2, 2, 1]	5	FR1	0	R1173J
2100.935	5.184	2106640	PROB	5.184	n/a	n/a	-999	14	[6, 1, 2]	9	FR1	0	R1173J
2106.119	7.152	2111824	PROB	7.152	n/a	n/a	-999	14	[3, 6, 5]	14	FR1	0	R1173J
2113.271	0.017	2118976	STOP	n/a	n/a	n/a	-999	14	[-999, -999, -999]	n/a	FR1	0	R1173J
2113.288	0.633	2118993	DISTRACT_END	n/a	n/a	n/a	-999	14	[0, 0, 0]	n/a	FR1	0	R1173J
2113.921	0.518	2119626	RETRIEVAL_ORIENT	n/a	n/a	n/a	-999	14	[0, 0, 0]	n/a	FR1	0	R1173J
2114.439	1.296	2120144	REC_START	n/a	n/a	n/a	-999	14	[0, 0, 0]	n/a	FR1	0	R1173J
2115.735	1.195	2121440	REC_WORD	1.195	n/a	SPEAR	-999	14	[0, 0, 0]	n/a	FR1	0	R1173J
2116.93	3.347	2122635	REC_WORD	3.347	n/a	SWORD	-999	14	[0, 0, 0]	n/a	FR1	0	R1173J
2120.277	1.315	2125982	REC_WORD	1.315	n/a	FACE	-999	14	[0, 0, 0]	n/a	FR1	0	R1173J
2121.592	22.859	2127297	REC_WORD	22.859	n/a	LIP	-999	14	[0, 0, 0]	n/a	FR1	0	R1173J
2144.451	79.417	2150156	REC_END	n/a	n/a	n/a	-999	14	[0, 0, 0]	n/a	FR1	0	R1173J
2223.868	0.5	2229572	TRIAL	n/a	n/a	n/a	-999	15	[0, 0, 0]	n/a	FR1	0	R1173J
2224.368	10.428	2230072	COUNTDOWN_START	n/a	n/a	n/a	-999	15	[0, 0, 0]	n/a	FR1	0	R1173J
2234.796	0.007	2240500	COUNTDOWN_END	n/a	n/a	n/a	-999	15	[0, 0, 0]	n/a	FR1	0	R1173J
2234.803	1.617	2240507	ORIENT	n/a	n/a	n/a	-999	15	[0, 0, 0]	n/a	FR1	0	R1173J
2236.42	2.084	2242124	ORIENT_OFF	n/a	n/a	n/a	-999	15	[0, 0, 0]	n/a	FR1	0	R1173J
2238.504	1.616	2244208	WORD	n/a	wordpools/wordpool_EN.txt	FOG	1	15	[0, 0, 0]	n/a	FR1	0	R1173J
2240.12	0.783	2245824	WORD_OFF	n/a	n/a	FOG	1	15	[0, 0, 0]	n/a	FR1	0	R1173J
2240.903	1.602	2246607	WORD	n/a	wordpools/wordpool_EN.txt	PIE	2	15	[0, 0, 0]	n/a	FR1	0	R1173J
2242.505	0.967	2248209	WORD_OFF	n/a	n/a	PIE	2	15	[0, 0, 0]	n/a	FR1	0	R1173J
2243.472	1.615	2249176	WORD	n/a	wordpools/wordpool_EN.txt	SLUSH	3	15	[0, 0, 0]	n/a	FR1	0	R1173J
2245.087	0.867	2250791	WORD_OFF	n/a	n/a	SLUSH	3	15	[0, 0, 0]	n/a	FR1	0	R1173J
2245.954	1.617	2251658	WORD	n/a	wordpools/wordpool_EN.txt	SUIT	4	15	[0, 0, 0]	n/a	FR1	0	R1173J
2247.571	0.834	2253275	WORD_OFF	n/a	n/a	SUIT	4	15	[0, 0, 0]	n/a	FR1	0	R1173J
2248.405	1.616	2254109	WORD	n/a	wordpools/wordpool_EN.txt	ROOM	5	15	[0, 0, 0]	n/a	FR1	0	R1173J
2250.021	0.8	2255725	WORD_OFF	n/a	n/a	ROOM	5	15	[0, 0, 0]	n/a	FR1	0	R1173J
2250.821	1.618	2256525	WORD	n/a	wordpools/wordpool_EN.txt	PANTS	6	15	[0, 0, 0]	n/a	FR1	0	R1173J
2252.439	1.0	2258143	WORD_OFF	n/a	n/a	PANTS	6	15	[0, 0, 0]	n/a	FR1	0	R1173J
2253.439	1.616	2259143	WORD	n/a	wordpools/wordpool_EN.txt	STAIR	7	15	[0, 0, 0]	n/a	FR1	0	R1173J
2255.055	0.967	2260759	WORD_OFF	n/a	n/a	STAIR	7	15	[0, 0, 0]	n/a	FR1	0	R1173J
2256.022	1.617	2261726	WORD	n/a	wordpools/wordpool_EN.txt	WORM	8	15	[0, 0, 0]	n/a	FR1	0	R1173J
2257.639	0.801	2263343	WORD_OFF	n/a	n/a	WORM	8	15	[0, 0, 0]	n/a	FR1	0	R1173J
2258.44	1.616	2264144	WORD	n/a	wordpools/wordpool_EN.txt	BROOM	9	15	[0, 0, 0]	n/a	FR1	0	R1173J
2260.056	0.867	2265760	WORD_OFF	n/a	n/a	BROOM	9	15	[0, 0, 0]	n/a	FR1	0	R1173J
2260.923	1.601	2266627	WORD	n/a	wordpools/wordpool_EN.txt	NAIL	10	15	[0, 0, 0]	n/a	FR1	0	R1173J
2262.524	0.8	2268228	WORD_OFF	n/a	n/a	NAIL	10	15	[0, 0, 0]	n/a	FR1	0	R1173J
2263.324	1.616	2269028	WORD	n/a	wordpools/wordpool_EN.txt	PEAR	11	15	[0, 0, 0]	n/a	FR1	0	R1173J
2264.94	1.0	2270644	WORD_OFF	n/a	n/a	PEAR	11	15	[0, 0, 0]	n/a	FR1	0	R1173J
2265.94	1.617	2271644	WORD	n/a	wordpools/wordpool_EN.txt	WOOD	12	15	[0, 0, 0]	n/a	FR1	0	R1173J
2267.557	0.0	2273261	WORD_OFF	n/a	n/a	WOOD	12	15	[0, 0, 0]	n/a	FR1	0	R1173J
2267.557	0.001	2273261	DISTRACT_START	n/a	n/a	n/a	-999	15	[0, 0, 0]	n/a	FR1	0	R1173J
2267.558	0.015	2273262	START	n/a	n/a	n/a	-999	15	[-999, -999, -999]	n/a	FR1	0	R1173J
2267.573	4.001	2273277	PROB	4.001	n/a	n/a	-999	15	[6, 7, 3]	16	FR1	0	R1173J
2271.574	4.967	2277278	PROB	4.967	n/a	n/a	-999	15	[5, 4, 7]	16	FR1	0	R1173J
2276.541	5.068	2282245	PROB	5.068	n/a	n/a	-999	15	[3, 4, 4]	11	FR1	0	R1173J
2281.609	4.033	2287313	PROB	4.033	n/a	n/a	-999	15	[6, 4, 5]	15	FR1	0	R1173J
2285.642	6.052	2291346	PROB	6.052	n/a	n/a	-999	15	[3, 8, 3]	14	FR1	0	R1173J
2291.694	0.016	2297398	STOP	n/a	n/a	n/a	-999	15	[-999, -999, -999]	n/a	FR1	0	R1173J
2291.71	0.684	2297414	DISTRACT_END	n/a	n/a	n/a	-999	15	[0, 0, 0]	n/a	FR1	0	R1173J
2292.394	0.517	2298098	RETRIEVAL_ORIENT	n/a	n/a	n/a	-999	15	[0, 0, 0]	n/a	FR1	0	R1173J
2292.911	1.082	2298615	REC_START	n/a	n/a	n/a	-999	15	[0, 0, 0]	n/a	FR1	0	R1173J
2293.993	10.399	2299697	REC_WORD	10.399	n/a	PEAR	-999	15	[0, 0, 0]	n/a	FR1	0	R1173J
2304.392	18.532	2310096	REC_WORD	18.532	n/a	SMEAR	-999	15	[0, 0, 0]	n/a	FR1	0	R1173J
2322.924	24.71	2328627	REC_END	n/a	n/a	n/a	-999	15	[0, 0, 0]	n/a	FR1	0	R1173J
2347.634	0.5	2353337	TRIAL	n/a	n/a	n/a	-999	16	[0, 0, 0]	n/a	FR1	0	R1173J
2348.134	10.428	2353837	COUNTDOWN_START	n/a	n/a	n/a	-999	16	[0, 0, 0]	n/a	FR1	0	R1173J
2358.562	0.006	2364265	COUNTDOWN_END	n/a	n/a	n/a	-999	16	[0, 0, 0]	n/a	FR1	0	R1173J
2358.568	1.617	2364271	ORIENT	n/a	n/a	n/a	-999	16	[0, 0, 0]	n/a	FR1	0	R1173J
2360.185	2.052	2365888	ORIENT_OFF	n/a	n/a	n/a	-999	16	[0, 0, 0]	n/a	FR1	0	R1173J
2362.237	1.616	2367940	WORD	n/a	wordpools/wordpool_EN.txt	STONE	1	16	[0, 0, 0]	n/a	FR1	0	R1173J
2363.853	1.0	2369556	WORD_OFF	n/a	n/a	STONE	1	16	[0, 0, 0]	n/a	FR1	0	R1173J
2364.853	1.617	2370556	WORD	n/a	wordpools/wordpool_EN.txt	FLEA	2	16	[0, 0, 0]	n/a	FR1	0	R1173J
2366.47	0.817	2372173	WORD_OFF	n/a	n/a	FLEA	2	16	[0, 0, 0]	n/a	FR1	0	R1173J
2367.287	1.616	2372990	WORD	n/a	wordpools/wordpool_EN.txt	FROG	3	16	[0, 0, 0]	n/a	FR1	0	R1173J
2368.903	0.984	2374606	WORD_OFF	n/a	n/a	FROG	3	16	[0, 0, 0]	n/a	FR1	0	R1173J
2369.887	1.617	2375590	WORD	n/a	wordpools/wordpool_EN.txt	CLOCK	4	16	[0, 0, 0]	n/a	FR1	0	R1173J
2371.504	0.951	2377207	WORD_OFF	n/a	n/a	CLOCK	4	16	[0, 0, 0]	n/a	FR1	0	R1173J
2372.455	1.616	2378158	WORD	n/a	wordpools/wordpool_EN.txt	SKI	5	16	[0, 0, 0]	n/a	FR1	0	R1173J
2374.071	0.933	2379774	WORD_OFF	n/a	n/a	SKI	5	16	[0, 0, 0]	n/a	FR1	0	R1173J
2375.004	1.617	2380707	WORD	n/a	wordpools/wordpool_EN.txt	HEART	6	16	[0, 0, 0]	n/a	FR1	0	R1173J
2376.621	1.0	2382324	WORD_OFF	n/a	n/a	HEART	6	16	[0, 0, 0]	n/a	FR1	0	R1173J
2377.621	1.618	2383324	WORD	n/a	wordpools/wordpool_EN.txt	FORT	7	16	[0, 0, 0]	n/a	FR1	0	R1173J
2379.239	0.915	2384942	WORD_OFF	n/a	n/a	FORT	7	16	[0, 0, 0]	n/a	FR1	0	R1173J
2380.154	1.617	2385857	WORD	n/a	wordpools/wordpool_EN.txt	PHONE	8	16	[0, 0, 0]	n/a	FR1	0	R1173J
2381.771	0.984	2387474	WORD_OFF	n/a	n/a	PHONE	8	16	[0, 0, 0]	n/a	FR1	0	R1173J
2382.755	1.618	2388458	WORD	n/a	wordpools/wordpool_EN.txt	FORK	9	16	[0, 0, 0]	n/a	FR1	0	R1173J
2384.373	0.782	2390076	WORD_OFF	n/a	n/a	FORK	9	16	[0, 0, 0]	n/a	FR1	0	R1173J
2385.155	1.617	2390858	WORD	n/a	wordpools/wordpool_EN.txt	ROCK	10	16	[0, 0, 0]	n/a	FR1	0	R1173J
2386.772	0.866	2392475	WORD_OFF	n/a	n/a	ROCK	10	16	[0, 0, 0]	n/a	FR1	0	R1173J
2387.638	1.602	2393341	WORD	n/a	wordpools/wordpool_EN.txt	OAK	11	16	[0, 0, 0]	n/a	FR1	0	R1173J
2389.24	0.933	2394943	WORD_OFF	n/a	n/a	OAK	11	16	[0, 0, 0]	n/a	FR1	0	R1173J
2390.173	1.616	2395876	WORD	n/a	wordpools/wordpool_EN.txt	PEARL	12	16	[0, 0, 0]	n/a	FR1	0	R1173J
2391.789	0.0	2397492	DISTRACT_START	n/a	n/a	n/a	-999	16	[0, 0, 0]	n/a	FR1	0	R1173J
2391.789	0.001	2397492	WORD_OFF	n/a	n/a	PEARL	12	16	[0, 0, 0]	n/a	FR1	0	R1173J
2391.79	0.016	2397493	START	n/a	n/a	n/a	-999	16	[-999, -999, -999]	n/a	FR1	0	R1173J
2391.806	4.901	2397509	PROB	4.901	n/a	n/a	-999	16	[8, 6, 1]	15	FR1	0	R1173J
2396.707	4.367	2402410	PROB	4.367	n/a	n/a	-999	16	[4, 1, 4]	9	FR1	0	R1173J
2401.074	2.285	2406777	PROB	2.285	n/a	n/a	-999	16	[6, 6, 2]	14	FR1	0	R1173J
2403.359	3.116	2409062	PROB	3.116	n/a	n/a	-999	16	[1, 7, 8]	16	FR1	0	R1173J
2406.475	7.559	2412178	PROB	7.559	n/a	n/a	-999	16	[9, 7, 5]	21	FR1	0	R1173J
2414.034	0.008	2419737	STOP	n/a	n/a	n/a	-999	16	[-999, -999, -999]	n/a	FR1	0	R1173J
2414.042	0.601	2419745	DISTRACT_END	n/a	n/a	n/a	-999	16	[0, 0, 0]	n/a	FR1	0	R1173J
2414.643	0.517	2420346	RETRIEVAL_ORIENT	n/a	n/a	n/a	-999	16	[0, 0, 0]	n/a	FR1	0	R1173J
2415.16	1.078	2420863	REC_START	n/a	n/a	n/a	-999	16	[0, 0, 0]	n/a	FR1	0	R1173J
2416.238	2.378	2421941	REC_WORD	2.378	n/a	OAK	-999	16	[0, 0, 0]	n/a	FR1	0	R1173J
2418.616	1.536	2424319	REC_WORD	1.536	n/a	STONE	-999	16	[0, 0, 0]	n/a	FR1	0	R1173J
2420.152	25.02	2425855	REC_WORD	25.02	n/a	ROCK	-999	16	[0, 0, 0]	n/a	FR1	0	R1173J
2445.172	64.583	2450874	REC_END	n/a	n/a	n/a	-999	16	[0, 0, 0]	n/a	FR1	0	R1173J
2509.755	0.5	2515457	TRIAL	n/a	n/a	n/a	-999	17	[0, 0, 0]	n/a	FR1	0	R1173J
2510.255	10.428	2515957	COUNTDOWN_START	n/a	n/a	n/a	-999	17	[0, 0, 0]	n/a	FR1	0	R1173J
2520.683	0.006	2526385	COUNTDOWN_END	n/a	n/a	n/a	-999	17	[0, 0, 0]	n/a	FR1	0	R1173J
2520.689	1.618	2526391	ORIENT	n/a	n/a	n/a	-999	17	[0, 0, 0]	n/a	FR1	0	R1173J
2522.307	2.201	2528009	ORIENT_OFF	n/a	n/a	n/a	-999	17	[0, 0, 0]	n/a	FR1	0	R1173J
2524.508	1.615	2530210	WORD	n/a	wordpools/wordpool_EN.txt	COIN	1	17	[0, 0, 0]	n/a	FR1	0	R1173J
2526.123	1.0	2531825	WORD_OFF	n/a	n/a	COIN	1	17	[0, 0, 0]	n/a	FR1	0	R1173J
2527.123	1.617	2532825	WORD	n/a	wordpools/wordpool_EN.txt	FOOT	2	17	[0, 0, 0]	n/a	FR1	0	R1173J
2528.74	0.817	2534442	WORD_OFF	n/a	n/a	FOOT	2	17	[0, 0, 0]	n/a	FR1	0	R1173J
2529.557	1.617	2535259	WORD	n/a	wordpools/wordpool_EN.txt	SPRING	3	17	[0, 0, 0]	n/a	FR1	0	R1173J
2531.174	0.817	2536876	WORD_OFF	n/a	n/a	SPRING	3	17	[0, 0, 0]	n/a	FR1	0	R1173J
2531.991	1.617	2537693	WORD	n/a	wordpools/wordpool_EN.txt	GUARD	4	17	[0, 0, 0]	n/a	FR1	0	R1173J
2533.608	0.884	2539310	WORD_OFF	n/a	n/a	GUARD	4	17	[0, 0, 0]	n/a	FR1	0	R1173J
2534.492	1.616	2540194	WORD	n/a	wordpools/wordpool_EN.txt	CAT	5	17	[0, 0, 0]	n/a	FR1	0	R1173J
2536.108	1.0	2541810	WORD_OFF	n/a	n/a	CAT	5	17	[0, 0, 0]	n/a	FR1	0	R1173J
2537.108	1.617	2542810	WORD	n/a	wordpools/wordpool_EN.txt	ROOT	6	17	[0, 0, 0]	n/a	FR1	0	R1173J
2538.725	0.983	2544427	WORD_OFF	n/a	n/a	ROOT	6	17	[0, 0, 0]	n/a	FR1	0	R1173J
2539.708	1.601	2545410	WORD	n/a	wordpools/wordpool_EN.txt	SEA	7	17	[0, 0, 0]	n/a	FR1	0	R1173J
2541.309	0.883	2547011	WORD_OFF	n/a	n/a	SEA	7	17	[0, 0, 0]	n/a	FR1	0	R1173J
2542.192	1.617	2547894	WORD	n/a	wordpools/wordpool_EN.txt	ELF	8	17	[0, 0, 0]	n/a	FR1	0	R1173J
2543.809	0.884	2549511	WORD_OFF	n/a	n/a	ELF	8	17	[0, 0, 0]	n/a	FR1	0	R1173J
2544.693	1.617	2550395	WORD	n/a	wordpools/wordpool_EN.txt	MOUTH	9	17	[0, 0, 0]	n/a	FR1	0	R1173J
2546.31	0.816	2552012	WORD_OFF	n/a	n/a	MOUTH	9	17	[0, 0, 0]	n/a	FR1	0	R1173J
2547.126	1.617	2552828	WORD	n/a	wordpools/wordpool_EN.txt	STEM	10	17	[0, 0, 0]	n/a	FR1	0	R1173J
2548.743	0.8	2554445	WORD_OFF	n/a	n/a	STEM	10	17	[0, 0, 0]	n/a	FR1	0	R1173J
2549.543	1.617	2555245	WORD	n/a	wordpools/wordpool_EN.txt	MAIL	11	17	[0, 0, 0]	n/a	FR1	0	R1173J
2551.16	0.983	2556862	WORD_OFF	n/a	n/a	MAIL	11	17	[0, 0, 0]	n/a	FR1	0	R1173J
2552.143	1.617	2557845	WORD	n/a	wordpools/wordpool_EN.txt	MILK	12	17	[0, 0, 0]	n/a	FR1	0	R1173J
2553.76	0.0	2559462	WORD_OFF	n/a	n/a	MILK	12	17	[0, 0, 0]	n/a	FR1	0	R1173J
2553.76	0.001	2559462	DISTRACT_START	n/a	n/a	n/a	-999	17	[0, 0, 0]	n/a	FR1	0	R1173J
2553.761	0.016	2559463	START	n/a	n/a	n/a	-999	17	[-999, -999, -999]	n/a	FR1	0	R1173J
2553.777	5.384	2559479	PROB	5.384	n/a	n/a	-999	17	[9, 2, 2]	13	FR1	0	R1173J
2559.161	8.185	2564862	PROB	8.185	n/a	n/a	-999	17	[8, 9, 9]	26	FR1	0	R1173J
2567.346	6.921	2573047	PROB	6.921	n/a	n/a	-999	17	[7, 5, 4]	16	FR1	0	R1173J
2574.267	0.014	2579968	STOP	n/a	n/a	n/a	-999	17	[-999, -999, -999]	n/a	FR1	0	R1173J
2574.281	0.665	2579982	DISTRACT_END	n/a	n/a	n/a	-999	17	[0, 0, 0]	n/a	FR1	0	R1173J
2574.946	0.518	2580647	RETRIEVAL_ORIENT	n/a	n/a	n/a	-999	17	[0, 0, 0]	n/a	FR1	0	R1173J
2575.464	1.358	2581165	REC_START	n/a	n/a	n/a	-999	17	[0, 0, 0]	n/a	FR1	0	R1173J
2576.822	3.615	2582523	REC_WORD	3.615	n/a	ELF	-999	17	[0, 0, 0]	n/a	FR1	0	R1173J
2580.437	3.472	2586138	REC_WORD	3.472	n/a	MAIL	-999	17	[0, 0, 0]	n/a	FR1	0	R1173J
2583.909	8.272	2589610	REC_WORD	8.272	n/a	CAT	-999	17	[0, 0, 0]	n/a	FR1	0	R1173J
2592.181	13.297	2597882	REC_WORD	13.297	n/a	STEM	-999	17	[0, 0, 0]	n/a	FR1	0	R1173J
2605.478	31.343	2611179	REC_END	n/a	n/a	n/a	-999	17	[0, 0, 0]	n/a	FR1	0	R1173J
2636.821	0.5	2642522	TRIAL	n/a	n/a	n/a	-999	18	[0, 0, 0]	n/a	FR1	0	R1173J
2637.321	10.428	2643022	COUNTDOWN_START	n/a	n/a	n/a	-999	18	[0, 0, 0]	n/a	FR1	0	R1173J
2647.749	0.006	2653450	COUNTDOWN_END	n/a	n/a	n/a	-999	18	[0, 0, 0]	n/a	FR1	0	R1173J
2647.755	1.602	2653456	ORIENT	n/a	n/a	n/a	-999	18	[0, 0, 0]	n/a	FR1	0	R1173J
2649.357	2.067	2655058	ORIENT_OFF	n/a	n/a	n/a	-999	18	[0, 0, 0]	n/a	FR1	0	R1173J
2651.424	1.616	2657125	WORD	n/a	wordpools/wordpool_EN.txt	PEA	1	18	[0, 0, 0]	n/a	FR1	0	R1173J
2653.04	0.833	2658741	WORD_OFF	n/a	n/a	PEA	1	18	[0, 0, 0]	n/a	FR1	0	R1173J
2653.873	1.618	2659574	WORD	n/a	wordpools/wordpool_EN.txt	CORN	2	18	[0, 0, 0]	n/a	FR1	0	R1173J
2655.491	0.933	2661192	WORD_OFF	n/a	n/a	CORN	2	18	[0, 0, 0]	n/a	FR1	0	R1173J
2656.424	1.616	2662125	WORD	n/a	wordpools/wordpool_EN.txt	BATH	3	18	[0, 0, 0]	n/a	FR1	0	R1173J
2658.04	0.817	2663741	WORD_OFF	n/a	n/a	BATH	3	18	[0, 0, 0]	n/a	FR1	0	R1173J
2658.857	1.618	2664558	WORD	n/a	wordpools/wordpool_EN.txt	SUN	4	18	[0, 0, 0]	n/a	FR1	0	R1173J
2660.475	0.917	2666176	WORD_OFF	n/a	n/a	SUN	4	18	[0, 0, 0]	n/a	FR1	0	R1173J
2661.392	1.616	2667093	WORD	n/a	wordpools/wordpool_EN.txt	CUP	5	18	[0, 0, 0]	n/a	FR1	0	R1173J
2663.008	0.966	2668709	WORD_OFF	n/a	n/a	CUP	5	18	[0, 0, 0]	n/a	FR1	0	R1173J
2663.974	1.617	2669675	WORD	n/a	wordpools/wordpool_EN.txt	HOSE	6	18	[0, 0, 0]	n/a	FR1	0	R1173J
2665.591	0.834	2671292	WORD_OFF	n/a	n/a	HOSE	6	18	[0, 0, 0]	n/a	FR1	0	R1173J
2666.425	1.616	2672126	WORD	n/a	wordpools/wordpool_EN.txt	PLATE	7	18	[0, 0, 0]	n/a	FR1	0	R1173J
2668.041	0.801	2673742	WORD_OFF	n/a	n/a	PLATE	7	18	[0, 0, 0]	n/a	FR1	0	R1173J
2668.842	1.617	2674543	WORD	n/a	wordpools/wordpool_EN.txt	VAN	8	18	[0, 0, 0]	n/a	FR1	0	R1173J
2670.459	0.766	2676160	WORD_OFF	n/a	n/a	VAN	8	18	[0, 0, 0]	n/a	FR1	0	R1173J
2671.225	1.617	2676926	WORD	n/a	wordpools/wordpool_EN.txt	GATE	9	18	[0, 0, 0]	n/a	FR1	0	R1173J
2672.842	0.85	2678543	WORD_OFF	n/a	n/a	GATE	9	18	[0, 0, 0]	n/a	FR1	0	R1173J
2673.692	1.618	2679393	WORD	n/a	wordpools/wordpool_EN.txt	FLAME	10	18	[0, 0, 0]	n/a	FR1	0	R1173J
2675.31	0.766	2681011	WORD_OFF	n/a	n/a	FLAME	10	18	[0, 0, 0]	n/a	FR1	0	R1173J
2676.076	1.617	2681777	WORD	n/a	wordpools/wordpool_EN.txt	PEN	11	18	[0, 0, 0]	n/a	FR1	0	R1173J
2677.693	0.883	2683393	WORD_OFF	n/a	n/a	PEN	11	18	[0, 0, 0]	n/a	FR1	0	R1173J
2678.576	1.617	2684276	WORD	n/a	wordpools/wordpool_EN.txt	BRUSH	12	18	[0, 0, 0]	n/a	FR1	0	R1173J
2680.193	0.0	2685893	WORD_OFF	n/a	n/a	BRUSH	12	18	[0, 0, 0]	n/a	FR1	0	R1173J
2680.193	0.001	2685893	DISTRACT_START	n/a	n/a	n/a	-999	18	[0, 0, 0]	n/a	FR1	0	R1173J
2680.194	0.016	2685894	START	n/a	n/a	n/a	-999	18	[-999, -999, -999]	n/a	FR1	0	R1173J
2680.21	5.5	2685910	PROB	5.5	n/a	n/a	-999	18	[7, 2, 6]	15	FR1	0	R1173J
2685.71	3.768	2691410	PROB	3.768	n/a	n/a	-999	18	[9, 2, 2]	13	FR1	0	R1173J
2689.478	3.683	2695178	PROB	3.683	n/a	n/a	-999	18	[2, 5, 6]	13	FR1	0	R1173J
2693.161	8.605	2698861	PROB	8.605	n/a	n/a	-999	18	[9, 2, 4]	15	FR1	0	R1173J
2701.766	0.013	2707466	STOP	n/a	n/a	n/a	-999	18	[-999, -999, -999]	n/a	FR1	0	R1173J
2701.779	0.535	2707479	DISTRACT_END	n/a	n/a	n/a	-999	18	[0, 0, 0]	n/a	FR1	0	R1173J
2702.314	0.517	2708014	RETRIEVAL_ORIENT	n/a	n/a	n/a	-999	18	[0, 0, 0]	n/a	FR1	0	R1173J
2702.831	3.046	2708531	REC_START	n/a	n/a	n/a	-999	18	[0, 0, 0]	n/a	FR1	0	R1173J
2705.877	1.932	2711577	REC_WORD	1.932	n/a	CUP	-999	18	[0, 0, 0]	n/a	FR1	0	R1173J
2707.809	20.894	2713509	REC_WORD	20.894	n/a	HOSE	-999	18	[0, 0, 0]	n/a	FR1	0	R1173J
2728.703	4.142	2734403	REC_WORD	4.142	n/a	BATH	-999	18	[0, 0, 0]	n/a	FR1	0	R1173J
2732.845	11.441	2738545	REC_END	n/a	n/a	n/a	-999	18	[0, 0, 0]	n/a	FR1	0	R1173J
2744.286	0.5	2749986	TRIAL	n/a	n/a	n/a	-999	19	[0, 0, 0]	n/a	FR1	0	R1173J
2744.786	10.428	2750486	COUNTDOWN_START	n/a	n/a	n/a	-999	19	[0, 0, 0]	n/a	FR1	0	R1173J
2755.214	0.005	2760914	COUNTDOWN_END	n/a	n/a	n/a	-999	19	[0, 0, 0]	n/a	FR1	0	R1173J
2755.219	1.617	2760919	ORIENT	n/a	n/a	n/a	-999	19	[0, 0, 0]	n/a	FR1	0	R1173J
2756.836	2.317	2762536	ORIENT_OFF	n/a	n/a	n/a	-999	19	[0, 0, 0]	n/a	FR1	0	R1173J
2759.153	1.617	2764853	WORD	n/a	wordpools/wordpool_EN.txt	FLOOR	1	19	[0, 0, 0]	n/a	FR1	0	R1173J
2760.77	0.8	2766470	WORD_OFF	n/a	n/a	FLOOR	1	19	[0, 0, 0]	n/a	FR1	0	R1173J
2761.57	1.617	2767270	WORD	n/a	wordpools/wordpool_EN.txt	SOCK	2	19	[0, 0, 0]	n/a	FR1	0	R1173J
2763.187	0.834	2768887	WORD_OFF	n/a	n/a	SOCK	2	19	[0, 0, 0]	n/a	FR1	0	R1173J
2764.021	1.616	2769721	WORD	n/a	wordpools/wordpool_EN.txt	PEACH	3	19	[0, 0, 0]	n/a	FR1	0	R1173J
2765.637	0.868	2771337	WORD_OFF	n/a	n/a	PEACH	3	19	[0, 0, 0]	n/a	FR1	0	R1173J
2766.505	1.616	2772205	WORD	n/a	wordpools/wordpool_EN.txt	SNAKE	4	19	[0, 0, 0]	n/a	FR1	0	R1173J
2768.121	0.9	2773821	WORD_OFF	n/a	n/a	SNAKE	4	19	[0, 0, 0]	n/a	FR1	0	R1173J
2769.021	1.617	2774721	WORD	n/a	wordpools/wordpool_EN.txt	CHAIR	5	19	[0, 0, 0]	n/a	FR1	0	R1173J
2770.638	1.0	2776338	WORD_OFF	n/a	n/a	CHAIR	5	19	[0, 0, 0]	n/a	FR1	0	R1173J
2771.638	1.618	2777338	WORD	n/a	wordpools/wordpool_EN.txt	POOL	6	19	[0, 0, 0]	n/a	FR1	0	R1173J
2773.256	0.899	2778956	WORD_OFF	n/a	n/a	POOL	6	19	[0, 0, 0]	n/a	FR1	0	R1173J
2774.155	1.617	2779855	WORD	n/a	wordpools/wordpool_EN.txt	STICK	7	19	[0, 0, 0]	n/a	FR1	0	R1173J
2775.772	0.933	2781472	WORD_OFF	n/a	n/a	STICK	7	19	[0, 0, 0]	n/a	FR1	0	R1173J
2776.705	1.602	2782405	WORD	n/a	wordpools/wordpool_EN.txt	CAKE	8	19	[0, 0, 0]	n/a	FR1	0	R1173J
2778.307	0.983	2784007	WORD_OFF	n/a	n/a	CAKE	8	19	[0, 0, 0]	n/a	FR1	0	R1173J
2779.29	1.616	2784990	WORD	n/a	wordpools/wordpool_EN.txt	PASTE	9	19	[0, 0, 0]	n/a	FR1	0	R1173J
2780.906	0.767	2786606	WORD_OFF	n/a	n/a	PASTE	9	19	[0, 0, 0]	n/a	FR1	0	R1173J
2781.673	1.618	2787373	WORD	n/a	wordpools/wordpool_EN.txt	HOOF	10	19	[0, 0, 0]	n/a	FR1	0	R1173J
2783.291	1.0	2788991	WORD_OFF	n/a	n/a	HOOF	10	19	[0, 0, 0]	n/a	FR1	0	R1173J
2784.291	1.615	2789991	WORD	n/a	wordpools/wordpool_EN.txt	CAGE	11	19	[0, 0, 0]	n/a	FR1	0	R1173J
2785.906	0.834	2791606	WORD_OFF	n/a	n/a	CAGE	11	19	[0, 0, 0]	n/a	FR1	0	R1173J
2786.74	1.618	2792440	WORD	n/a	wordpools/wordpool_EN.txt	SKUNK	12	19	[0, 0, 0]	n/a	FR1	0	R1173J
2788.358	0.0	2794058	WORD_OFF	n/a	n/a	SKUNK	12	19	[0, 0, 0]	n/a	FR1	0	R1173J
2788.358	0.0	2794058	DISTRACT_START	n/a	n/a	n/a	-999	19	[0, 0, 0]	n/a	FR1	0	R1173J
2788.358	0.016	2794058	START	n/a	n/a	n/a	-999	19	[-999, -999, -999]	n/a	FR1	0	R1173J
2788.374	4.918	2794074	PROB	4.918	n/a	n/a	-999	19	[4, 4, 8]	16	FR1	0	R1173J
2793.292	2.916	2798992	PROB	2.916	n/a	n/a	-999	19	[5, 5, 4]	14	FR1	0	R1173J
2796.208	4.384	2801908	PROB	4.384	n/a	n/a	-999	19	[7, 3, 3]	13	FR1	0	R1173J
2800.592	2.984	2806291	PROB	2.984	n/a	n/a	-999	19	[4, 2, 2]	8	FR1	0	R1173J
2803.576	2.966	2809275	PROB	2.966	n/a	n/a	-999	19	[5, 5, 9]	19	FR1	0	R1173J
2806.542	3.131	2812241	PROB	3.131	n/a	n/a	-999	19	[7, 3, 3]	13	FR1	0	R1173J
2809.673	0.02	2815372	STOP	n/a	n/a	n/a	-999	19	[-999, -999, -999]	n/a	FR1	0	R1173J
2809.693	0.584	2815392	DISTRACT_END	n/a	n/a	n/a	-999	19	[0, 0, 0]	n/a	FR1	0	R1173J
2810.277	0.517	2815976	RETRIEVAL_ORIENT	n/a	n/a	n/a	-999	19	[0, 0, 0]	n/a	FR1	0	R1173J
2810.794	1.71	2816493	REC_START	n/a	n/a	n/a	-999	19	[0, 0, 0]	n/a	FR1	0	R1173J
2812.504	1.134	2818203	REC_WORD	1.134	n/a	CAGE	-999	19	[0, 0, 0]	n/a	FR1	0	R1173J
2813.638	2.318	2819337	REC_WORD	2.318	n/a	HOOF	-999	19	[0, 0, 0]	n/a	FR1	0	R1173J
2815.956	1.257	2821655	REC_WORD	1.257	n/a	CAKE	-999	19	[0, 0, 0]	n/a	FR1	0	R1173J
2817.213	8.103	2822912	REC_WORD	8.103	n/a	PASTE	-999	19	[0, 0, 0]	n/a	FR1	0	R1173J
2825.316	12.855	2831015	REC_WORD	12.855	n/a	FLOOR	-999	19	[0, 0, 0]	n/a	FR1	0	R1173J
2838.171	2.635	2843870	REC_WORD	2.635	n/a	SNAKE	-999	19	[0, 0, 0]	n/a	FR1	0	R1173J
2840.806	118.723	2846505	REC_END	n/a	n/a	n/a	-999	19	[0, 0, 0]	n/a	FR1	0	R1173J
2959.529	0.5	2965227	TRIAL	n/a	n/a	n/a	-999	20	[0, 0, 0]	n/a	FR1	0	R1173J
2960.029	10.428	2965727	COUNTDOWN_START	n/a	n/a	n/a	-999	20	[0, 0, 0]	n/a	FR1	0	R1173J
2970.457	0.008	2976155	COUNTDOWN_END	n/a	n/a	n/a	-999	20	[0, 0, 0]	n/a	FR1	0	R1173J
2970.465	1.616	2976163	ORIENT	n/a	n/a	n/a	-999	20	[0, 0, 0]	n/a	FR1	0	R1173J
2972.081	1.933	2977779	ORIENT_OFF	n/a	n/a	n/a	-999	20	[0, 0, 0]	n/a	FR1	0	R1173J
2974.014	1.617	2979712	WORD	n/a	wordpools/wordpool_EN.txt	TIE	1	20	[0, 0, 0]	n/a	FR1	0	R1173J
2975.631	0.933	2981329	WORD_OFF	n/a	n/a	TIE	1	20	[0, 0, 0]	n/a	FR1	0	R1173J
2976.564	1.617	2982262	WORD	n/a	wordpools/wordpool_EN.txt	JAR	2	20	[0, 0, 0]	n/a	FR1	0	R1173J
2978.181	0.9	2983879	WORD_OFF	n/a	n/a	JAR	2	20	[0, 0, 0]	n/a	FR1	0	R1173J
2979.081	1.617	2984779	WORD	n/a	wordpools/wordpool_EN.txt	HAND	3	20	[0, 0, 0]	n/a	FR1	0	R1173J
2980.698	0.934	2986396	WORD_OFF	n/a	n/a	HAND	3	20	[0, 0, 0]	n/a	FR1	0	R1173J
2981.632	1.618	2987330	WORD	n/a	wordpools/wordpool_EN.txt	CLAY	4	20	[0, 0, 0]	n/a	FR1	0	R1173J
2983.25	0.866	2988948	WORD_OFF	n/a	n/a	CLAY	4	20	[0, 0, 0]	n/a	FR1	0	R1173J
2984.116	1.616	2989814	WORD	n/a	wordpools/wordpool_EN.txt	CROW	5	20	[0, 0, 0]	n/a	FR1	0	R1173J
2985.732	0.817	2991430	WORD_OFF	n/a	n/a	CROW	5	20	[0, 0, 0]	n/a	FR1	0	R1173J
2986.549	1.617	2992247	WORD	n/a	wordpools/wordpool_EN.txt	FAN	6	20	[0, 0, 0]	n/a	FR1	0	R1173J
2988.166	0.933	2993864	WORD_OFF	n/a	n/a	FAN	6	20	[0, 0, 0]	n/a	FR1	0	R1173J
2989.099	1.617	2994797	WORD	n/a	wordpools/wordpool_EN.txt	CLOWN	7	20	[0, 0, 0]	n/a	FR1	0	R1173J
2990.716	0.801	2996414	WORD_OFF	n/a	n/a	CLOWN	7	20	[0, 0, 0]	n/a	FR1	0	R1173J
2991.517	1.616	2997215	WORD	n/a	wordpools/wordpool_EN.txt	CLOTH	8	20	[0, 0, 0]	n/a	FR1	0	R1173J
2993.133	0.883	2998831	WORD_OFF	n/a	n/a	CLOTH	8	20	[0, 0, 0]	n/a	FR1	0	R1173J
2994.016	1.617	2999714	WORD	n/a	wordpools/wordpool_EN.txt	WAVE	9	20	[0, 0, 0]	n/a	FR1	0	R1173J
2995.633	0.818	3001331	WORD_OFF	n/a	n/a	WAVE	9	20	[0, 0, 0]	n/a	FR1	0	R1173J
2996.451	1.616	3002149	WORD	n/a	wordpools/wordpool_EN.txt	DART	10	20	[0, 0, 0]	n/a	FR1	0	R1173J
2998.067	0.867	3003765	WORD_OFF	n/a	n/a	DART	10	20	[0, 0, 0]	n/a	FR1	0	R1173J
2998.934	1.617	3004632	WORD	n/a	wordpools/wordpool_EN.txt	BEAN	11	20	[0, 0, 0]	n/a	FR1	0	R1173J
3000.551	0.867	3006249	WORD_OFF	n/a	n/a	BEAN	11	20	[0, 0, 0]	n/a	FR1	0	R1173J
3001.418	1.616	3007116	WORD	n/a	wordpools/wordpool_EN.txt	BOX	12	20	[0, 0, 0]	n/a	FR1	0	R1173J
3003.034	0.0	3008732	WORD_OFF	n/a	n/a	BOX	12	20	[0, 0, 0]	n/a	FR1	0	R1173J
3003.034	0.001	3008732	DISTRACT_START	n/a	n/a	n/a	-999	20	[0, 0, 0]	n/a	FR1	0	R1173J
3003.035	0.016	3008733	START	n/a	n/a	n/a	-999	20	[-999, -999, -999]	n/a	FR1	0	R1173J
3003.051	5.651	3008749	PROB	5.651	n/a	n/a	-999	20	[1, 6, 9]	16	FR1	0	R1173J
3008.702	6.818	3014400	PROB	6.818	n/a	n/a	-999	20	[6, 5, 9]	20	FR1	0	R1173J
3015.52	4.968	3021218	PROB	4.968	n/a	n/a	-999	20	[2, 6, 2]	10	FR1	0	R1173J
3020.488	4.488	3026186	PROB	4.488	n/a	n/a	-999	20	[7, 8, 5]	20	FR1	0	R1173J
3024.976	0.011	3030674	STOP	n/a	n/a	n/a	-999	20	[-999, -999, -999]	n/a	FR1	0	R1173J
3024.987	0.6	3030685	DISTRACT_END	n/a	n/a	n/a	-999	20	[0, 0, 0]	n/a	FR1	0	R1173J
3025.587	0.517	3031285	RETRIEVAL_ORIENT	n/a	n/a	n/a	-999	20	[0, 0, 0]	n/a	FR1	0	R1173J
3026.104	2.033	3031802	REC_START	n/a	n/a	n/a	-999	20	[0, 0, 0]	n/a	FR1	0	R1173J
3028.137	5.818	3033835	REC_WORD	5.818	n/a	JAR	-999	20	[0, 0, 0]	n/a	FR1	0	R1173J
3033.955	0.836	3039653	REC_WORD_VV	0.836	n/a	<>	-999	20	[0, 0, 0]	n/a	FR1	0	R1173J
3034.791	21.326	3040489	REC_WORD	21.326	n/a	JAR	-999	20	[0, 0, 0]	n/a	FR1	0	R1173J
3056.117	36.246	3061814	REC_END	n/a	n/a	n/a	-999	20	[0, 0, 0]	n/a	FR1	0	R1173J
3092.363	0.5	3098060	TRIAL	n/a	n/a	n/a	-999	21	[0, 0, 0]	n/a	FR1	0	R1173J
3092.863	10.428	3098560	COUNTDOWN_START	n/a	n/a	n/a	-999	21	[0, 0, 0]	n/a	FR1	0	R1173J
3103.291	0.007	3108988	COUNTDOWN_END	n/a	n/a	n/a	-999	21	[0, 0, 0]	n/a	FR1	0	R1173J
3103.298	1.616	3108995	ORIENT	n/a	n/a	n/a	-999	21	[0, 0, 0]	n/a	FR1	0	R1173J
3104.914	2.134	3110611	ORIENT_OFF	n/a	n/a	n/a	-999	21	[0, 0, 0]	n/a	FR1	0	R1173J
3107.048	1.617	3112745	WORD	n/a	wordpools/wordpool_EN.txt	MOTH	1	21	[0, 0, 0]	n/a	FR1	0	R1173J
3108.665	0.834	3114362	WORD_OFF	n/a	n/a	MOTH	1	21	[0, 0, 0]	n/a	FR1	0	R1173J
3109.499	1.616	3115196	WORD	n/a	wordpools/wordpool_EN.txt	BRIDGE	2	21	[0, 0, 0]	n/a	FR1	0	R1173J
3111.115	0.817	3116812	WORD_OFF	n/a	n/a	BRIDGE	2	21	[0, 0, 0]	n/a	FR1	0	R1173J
3111.932	1.617	3117629	WORD	n/a	wordpools/wordpool_EN.txt	FILM	3	21	[0, 0, 0]	n/a	FR1	0	R1173J
3113.549	0.834	3119246	WORD_OFF	n/a	n/a	FILM	3	21	[0, 0, 0]	n/a	FR1	0	R1173J
3114.383	1.616	3120080	WORD	n/a	wordpools/wordpool_EN.txt	BLUSH	4	21	[0, 0, 0]	n/a	FR1	0	R1173J
3115.999	1.0	3121696	WORD_OFF	n/a	n/a	BLUSH	4	21	[0, 0, 0]	n/a	FR1	0	R1173J
3116.999	1.617	3122696	WORD	n/a	wordpools/wordpool_EN.txt	WOLF	5	21	[0, 0, 0]	n/a	FR1	0	R1173J
3118.616	0.917	3124313	WORD_OFF	n/a	n/a	WOLF	5	21	[0, 0, 0]	n/a	FR1	0	R1173J
3119.533	1.617	3125230	WORD	n/a	wordpools/wordpool_EN.txt	PET	6	21	[0, 0, 0]	n/a	FR1	0	R1173J
3121.15	0.8	3126847	WORD_OFF	n/a	n/a	PET	6	21	[0, 0, 0]	n/a	FR1	0	R1173J
3121.95	1.617	3127647	WORD	n/a	wordpools/wordpool_EN.txt	WING	7	21	[0, 0, 0]	n/a	FR1	0	R1173J
3123.567	0.951	3129264	WORD_OFF	n/a	n/a	WING	7	21	[0, 0, 0]	n/a	FR1	0	R1173J
3124.518	1.615	3130215	WORD	n/a	wordpools/wordpool_EN.txt	SALT	8	21	[0, 0, 0]	n/a	FR1	0	R1173J
3126.133	0.8	3131830	WORD_OFF	n/a	n/a	SALT	8	21	[0, 0, 0]	n/a	FR1	0	R1173J
3126.933	1.617	3132630	WORD	n/a	wordpools/wordpool_EN.txt	SQUARE	9	21	[0, 0, 0]	n/a	FR1	0	R1173J
3128.55	0.885	3134247	WORD_OFF	n/a	n/a	SQUARE	9	21	[0, 0, 0]	n/a	FR1	0	R1173J
3129.435	1.616	3135132	WORD	n/a	wordpools/wordpool_EN.txt	LAND	10	21	[0, 0, 0]	n/a	FR1	0	R1173J
3131.051	0.8	3136748	WORD_OFF	n/a	n/a	LAND	10	21	[0, 0, 0]	n/a	FR1	0	R1173J
3131.851	1.618	3137548	WORD	n/a	wordpools/wordpool_EN.txt	JET	11	21	[0, 0, 0]	n/a	FR1	0	R1173J
3133.469	0.883	3139166	WORD_OFF	n/a	n/a	JET	11	21	[0, 0, 0]	n/a	FR1	0	R1173J
3134.352	1.616	3140049	WORD	n/a	wordpools/wordpool_EN.txt	FOOD	12	21	[0, 0, 0]	n/a	FR1	0	R1173J
3135.968	0.0	3141665	WORD_OFF	n/a	n/a	FOOD	12	21	[0, 0, 0]	n/a	FR1	0	R1173J
3135.968	0.001	3141665	DISTRACT_START	n/a	n/a	n/a	-999	21	[0, 0, 0]	n/a	FR1	0	R1173J
3135.969	0.016	3141666	START	n/a	n/a	n/a	-999	21	[-999, -999, -999]	n/a	FR1	0	R1173J
3135.985	3.384	3141682	PROB	3.384	n/a	n/a	-999	21	[4, 4, 1]	9	FR1	0	R1173J
3139.369	2.2	3145066	PROB	2.2	n/a	n/a	-999	21	[3, 3, 1]	7	FR1	0	R1173J
3141.569	3.784	3147266	PROB	3.784	n/a	n/a	-999	21	[3, 6, 9]	18	FR1	0	R1173J
3145.353	9.085	3151050	PROB	9.085	n/a	n/a	-999	21	[9, 4, 3]	16	FR1	0	R1173J
3154.438	4.341	3160135	PROB	4.341	n/a	n/a	-999	21	[5, 3, 7]	15	FR1	0	R1173J
3158.779	0.009	3164476	STOP	n/a	n/a	n/a	-999	21	[-999, -999, -999]	n/a	FR1	0	R1173J
3158.788	0.634	3164485	DISTRACT_END	n/a	n/a	n/a	-999	21	[0, 0, 0]	n/a	FR1	0	R1173J
3159.422	0.517	3165119	RETRIEVAL_ORIENT	n/a	n/a	n/a	-999	21	[0, 0, 0]	n/a	FR1	0	R1173J
3159.939	3.162	3165636	REC_START	n/a	n/a	n/a	-999	21	[0, 0, 0]	n/a	FR1	0	R1173J
3163.101	0.735	3168797	REC_WORD	0.735	n/a	BRIDGE	-999	21	[0, 0, 0]	n/a	FR1	0	R1173J
3163.836	1.056	3169532	REC_WORD	1.056	n/a	FILM	-999	21	[0, 0, 0]	n/a	FR1	0	R1173J
3164.892	25.061	3170588	REC_WORD	25.061	n/a	BLUSH	-999	21	[0, 0, 0]	n/a	FR1	0	R1173J
3189.953	13.057	3195649	REC_END	n/a	n/a	n/a	-999	21	[0, 0, 0]	n/a	FR1	0	R1173J
3203.01	0.5	3208706	TRIAL	n/a	n/a	n/a	-999	22	[0, 0, 0]	n/a	FR1	0	R1173J
3203.51	10.428	3209206	COUNTDOWN_START	n/a	n/a	n/a	-999	22	[0, 0, 0]	n/a	FR1	0	R1173J
3213.938	0.007	3219634	COUNTDOWN_END	n/a	n/a	n/a	-999	22	[0, 0, 0]	n/a	FR1	0	R1173J
3213.945	1.616	3219641	ORIENT	n/a	n/a	n/a	-999	22	[0, 0, 0]	n/a	FR1	0	R1173J
3215.561	2.067	3221257	ORIENT_OFF	n/a	n/a	n/a	-999	22	[0, 0, 0]	n/a	FR1	0	R1173J
3217.628	1.618	3223324	WORD	n/a	wordpools/wordpool_EN.txt	SNOW	1	22	[0, 0, 0]	n/a	FR1	0	R1173J
3219.246	0.95	3224942	WORD_OFF	n/a	n/a	SNOW	1	22	[0, 0, 0]	n/a	FR1	0	R1173J
3220.196	1.617	3225892	WORD	n/a	wordpools/wordpool_EN.txt	GEESE	2	22	[0, 0, 0]	n/a	FR1	0	R1173J
3221.813	0.966	3227509	WORD_OFF	n/a	n/a	GEESE	2	22	[0, 0, 0]	n/a	FR1	0	R1173J
3222.779	1.601	3228475	WORD	n/a	wordpools/wordpool_EN.txt	SINK	3	22	[0, 0, 0]	n/a	FR1	0	R1173J
3224.38	0.917	3230076	WORD_OFF	n/a	n/a	SINK	3	22	[0, 0, 0]	n/a	FR1	0	R1173J
3225.297	1.616	3230993	WORD	n/a	wordpools/wordpool_EN.txt	TOAST	4	22	[0, 0, 0]	n/a	FR1	0	R1173J
3226.913	0.95	3232609	WORD_OFF	n/a	n/a	TOAST	4	22	[0, 0, 0]	n/a	FR1	0	R1173J
3227.863	1.601	3233559	WORD	n/a	wordpools/wordpool_EN.txt	FENCE	5	22	[0, 0, 0]	n/a	FR1	0	R1173J
3229.464	0.9	3235160	WORD_OFF	n/a	n/a	FENCE	5	22	[0, 0, 0]	n/a	FR1	0	R1173J
3230.364	1.616	3236060	WORD	n/a	wordpools/wordpool_EN.txt	FOAM	6	22	[0, 0, 0]	n/a	FR1	0	R1173J
3231.98	0.767	3237676	WORD_OFF	n/a	n/a	FOAM	6	22	[0, 0, 0]	n/a	FR1	0	R1173J
3232.747	1.601	3238443	WORD	n/a	wordpools/wordpool_EN.txt	BAG	7	22	[0, 0, 0]	n/a	FR1	0	R1173J
3234.348	0.799	3240044	WORD_OFF	n/a	n/a	BAG	7	22	[0, 0, 0]	n/a	FR1	0	R1173J
3235.147	1.617	3240843	WORD	n/a	wordpools/wordpool_EN.txt	TRAY	8	22	[0, 0, 0]	n/a	FR1	0	R1173J
3236.764	0.768	3242460	WORD_OFF	n/a	n/a	TRAY	8	22	[0, 0, 0]	n/a	FR1	0	R1173J
3237.532	1.616	3243228	WORD	n/a	wordpools/wordpool_EN.txt	PALM	9	22	[0, 0, 0]	n/a	FR1	0	R1173J
3239.148	0.9	3244844	WORD_OFF	n/a	n/a	PALM	9	22	[0, 0, 0]	n/a	FR1	0	R1173J
3240.048	1.617	3245744	WORD	n/a	wordpools/wordpool_EN.txt	WEED	10	22	[0, 0, 0]	n/a	FR1	0	R1173J
3241.665	0.768	3247361	WORD_OFF	n/a	n/a	WEED	10	22	[0, 0, 0]	n/a	FR1	0	R1173J
3242.433	1.616	3248129	WORD	n/a	wordpools/wordpool_EN.txt	NEST	11	22	[0, 0, 0]	n/a	FR1	0	R1173J
3244.049	0.817	3249745	WORD_OFF	n/a	n/a	NEST	11	22	[0, 0, 0]	n/a	FR1	0	R1173J
3244.866	1.617	3250562	WORD	n/a	wordpools/wordpool_EN.txt	COW	12	22	[0, 0, 0]	n/a	FR1	0	R1173J
3246.483	0.0	3252179	WORD_OFF	n/a	n/a	COW	12	22	[0, 0, 0]	n/a	FR1	0	R1173J
3246.483	0.001	3252179	DISTRACT_START	n/a	n/a	n/a	-999	22	[0, 0, 0]	n/a	FR1	0	R1173J
3246.484	0.016	3252180	START	n/a	n/a	n/a	-999	22	[-999, -999, -999]	n/a	FR1	0	R1173J
3246.5	3.85	3252196	PROB	3.85	n/a	n/a	-999	22	[6, 1, 6]	13	FR1	0	R1173J
3250.35	2.901	3256046	PROB	2.901	n/a	n/a	-999	22	[5, 2, 2]	9	FR1	0	R1173J
3253.251	5.984	3258947	PROB	5.984	n/a	n/a	-999	22	[7, 9, 3]	19	FR1	0	R1173J
3259.235	2.549	3264931	PROB	2.549	n/a	n/a	-999	22	[2, 1, 4]	7	FR1	0	R1173J
3261.784	6.806	3267480	PROB	6.806	n/a	n/a	-999	22	[5, 1, 4]	10	FR1	0	R1173J
3268.59	0.012	3274286	STOP	n/a	n/a	n/a	-999	22	[-999, -999, -999]	n/a	FR1	0	R1173J
3268.602	0.667	3274298	DISTRACT_END	n/a	n/a	n/a	-999	22	[0, 0, 0]	n/a	FR1	0	R1173J
3269.269	0.517	3274965	RETRIEVAL_ORIENT	n/a	n/a	n/a	-999	22	[0, 0, 0]	n/a	FR1	0	R1173J
3269.786	2.297	3275482	REC_START	n/a	n/a	n/a	-999	22	[0, 0, 0]	n/a	FR1	0	R1173J
3272.083	4.798	3277779	REC_WORD	4.798	n/a	SINK	-999	22	[0, 0, 0]	n/a	FR1	0	R1173J
3276.881	10.169	3282577	REC_WORD	10.169	n/a	WEED	-999	22	[0, 0, 0]	n/a	FR1	0	R1173J
3287.05	12.75	3292745	REC_WORD	12.75	n/a	TOAST	-999	22	[0, 0, 0]	n/a	FR1	0	R1173J
3299.8	6.99	3305495	REC_END	n/a	n/a	n/a	-999	22	[0, 0, 0]	n/a	FR1	0	R1173J
3306.79	0.5	3312485	TRIAL	n/a	n/a	n/a	-999	23	[0, 0, 0]	n/a	FR1	0	R1173J
3307.29	10.428	3312985	COUNTDOWN_START	n/a	n/a	n/a	-999	23	[0, 0, 0]	n/a	FR1	0	R1173J
3317.718	0.007	3323413	COUNTDOWN_END	n/a	n/a	n/a	-999	23	[0, 0, 0]	n/a	FR1	0	R1173J
3317.725	1.601	3323420	ORIENT	n/a	n/a	n/a	-999	23	[0, 0, 0]	n/a	FR1	0	R1173J
3319.326	1.95	3325021	ORIENT_OFF	n/a	n/a	n/a	-999	23	[0, 0, 0]	n/a	FR1	0	R1173J
3321.276	1.616	3326971	WORD	n/a	wordpools/wordpool_EN.txt	STRING	1	23	[0, 0, 0]	n/a	FR1	0	R1173J
3322.892	0.984	3328587	WORD_OFF	n/a	n/a	STRING	1	23	[0, 0, 0]	n/a	FR1	0	R1173J
3323.876	1.617	3329571	WORD	n/a	wordpools/wordpool_EN.txt	MOLE	2	23	[0, 0, 0]	n/a	FR1	0	R1173J
3325.493	0.817	3331188	WORD_OFF	n/a	n/a	MOLE	2	23	[0, 0, 0]	n/a	FR1	0	R1173J
3326.31	1.616	3332005	WORD	n/a	wordpools/wordpool_EN.txt	SMOKE	3	23	[0, 0, 0]	n/a	FR1	0	R1173J
3327.926	0.867	3333621	WORD_OFF	n/a	n/a	SMOKE	3	23	[0, 0, 0]	n/a	FR1	0	R1173J
3328.793	1.618	3334488	WORD	n/a	wordpools/wordpool_EN.txt	WORLD	4	23	[0, 0, 0]	n/a	FR1	0	R1173J
3330.411	0.95	3336106	WORD_OFF	n/a	n/a	WORLD	4	23	[0, 0, 0]	n/a	FR1	0	R1173J
3331.361	1.616	3337056	WORD	n/a	wordpools/wordpool_EN.txt	STORE	5	23	[0, 0, 0]	n/a	FR1	0	R1173J
3332.977	0.9	3338672	WORD_OFF	n/a	n/a	STORE	5	23	[0, 0, 0]	n/a	FR1	0	R1173J
3333.877	1.617	3339572	WORD	n/a	wordpools/wordpool_EN.txt	WHEEL	6	23	[0, 0, 0]	n/a	FR1	0	R1173J
3335.494	0.767	3341189	WORD_OFF	n/a	n/a	WHEEL	6	23	[0, 0, 0]	n/a	FR1	0	R1173J
3336.261	1.616	3341956	WORD	n/a	wordpools/wordpool_EN.txt	PRINCE	7	23	[0, 0, 0]	n/a	FR1	0	R1173J
3337.877	0.9	3343572	WORD_OFF	n/a	n/a	PRINCE	7	23	[0, 0, 0]	n/a	FR1	0	R1173J
3338.777	1.601	3344472	WORD	n/a	wordpools/wordpool_EN.txt	MOUSE	8	23	[0, 0, 0]	n/a	FR1	0	R1173J
3340.378	0.851	3346073	WORD_OFF	n/a	n/a	MOUSE	8	23	[0, 0, 0]	n/a	FR1	0	R1173J
3341.229	1.616	3346924	WORD	n/a	wordpools/wordpool_EN.txt	TEETH	9	23	[0, 0, 0]	n/a	FR1	0	R1173J
3342.845	0.85	3348540	WORD_OFF	n/a	n/a	TEETH	9	23	[0, 0, 0]	n/a	FR1	0	R1173J
3343.695	1.617	3349390	WORD	n/a	wordpools/wordpool_EN.txt	ICE	10	23	[0, 0, 0]	n/a	FR1	0	R1173J
3345.312	0.917	3351007	WORD_OFF	n/a	n/a	ICE	10	23	[0, 0, 0]	n/a	FR1	0	R1173J
3346.229	1.616	3351924	WORD	n/a	wordpools/wordpool_EN.txt	DOCK	11	23	[0, 0, 0]	n/a	FR1	0	R1173J
3347.845	0.917	3353540	WORD_OFF	n/a	n/a	DOCK	11	23	[0, 0, 0]	n/a	FR1	0	R1173J
3348.762	1.618	3354457	WORD	n/a	wordpools/wordpool_EN.txt	TREE	12	23	[0, 0, 0]	n/a	FR1	0	R1173J
3350.38	0.0	3356075	WORD_OFF	n/a	n/a	TREE	12	23	[0, 0, 0]	n/a	FR1	0	R1173J
3350.38	0.001	3356075	DISTRACT_START	n/a	n/a	n/a	-999	23	[0, 0, 0]	n/a	FR1	0	R1173J
3350.381	0.016	3356076	START	n/a	n/a	n/a	-999	23	[-999, -999, -999]	n/a	FR1	0	R1173J
3350.397	4.216	3356092	PROB	4.216	n/a	n/a	-999	23	[5, 4, 5]	14	FR1	0	R1173J
3354.613	2.818	3360308	PROB	2.818	n/a	n/a	-999	23	[8, 2, 6]	16	FR1	0	R1173J
3357.431	3.433	3363126	PROB	3.433	n/a	n/a	-999	23	[7, 6, 2]	15	FR1	0	R1173J
3360.864	6.568	3366559	PROB	6.568	n/a	n/a	-999	23	[6, 8, 7]	21	FR1	0	R1173J
3367.432	7.083	3373127	PROB	7.083	n/a	n/a	-999	23	[8, 5, 7]	20	FR1	0	R1173J
3374.515	0.018	3380210	STOP	n/a	n/a	n/a	-999	23	[-999, -999, -999]	n/a	FR1	0	R1173J
3374.533	0.599	3380228	DISTRACT_END	n/a	n/a	n/a	-999	23	[0, 0, 0]	n/a	FR1	0	R1173J
3375.132	0.518	3380827	RETRIEVAL_ORIENT	n/a	n/a	n/a	-999	23	[0, 0, 0]	n/a	FR1	0	R1173J
3375.65	1.585	3381345	REC_START	n/a	n/a	n/a	-999	23	[0, 0, 0]	n/a	FR1	0	R1173J
3377.235	0.976	3382930	REC_WORD	0.976	n/a	SMOKE	-999	23	[0, 0, 0]	n/a	FR1	0	R1173J
3378.211	8.247	3383906	REC_WORD	8.247	n/a	WORLD	-999	23	[0, 0, 0]	n/a	FR1	0	R1173J
3386.458	19.204	3392153	REC_WORD	19.204	n/a	WHEEL	-999	23	[0, 0, 0]	n/a	FR1	0	R1173J
3405.662	5.975	3411356	REC_END	n/a	n/a	n/a	-999	23	[0, 0, 0]	n/a	FR1	0	R1173J
3411.637	0.5	3417331	TRIAL	n/a	n/a	n/a	-999	24	[0, 0, 0]	n/a	FR1	0	R1173J
3412.137	10.428	3417831	COUNTDOWN_START	n/a	n/a	n/a	-999	24	[0, 0, 0]	n/a	FR1	0	R1173J
3422.565	0.007	3428259	COUNTDOWN_END	n/a	n/a	n/a	-999	24	[0, 0, 0]	n/a	FR1	0	R1173J
3422.572	1.617	3428266	ORIENT	n/a	n/a	n/a	-999	24	[0, 0, 0]	n/a	FR1	0	R1173J
3424.189	1.916	3429883	ORIENT_OFF	n/a	n/a	n/a	-999	24	[0, 0, 0]	n/a	FR1	0	R1173J
3426.105	1.617	3431799	WORD	n/a	wordpools/wordpool_EN.txt	ROAD	1	24	[0, 0, 0]	n/a	FR1	0	R1173J
3427.722	0.768	3433416	WORD_OFF	n/a	n/a	ROAD	1	24	[0, 0, 0]	n/a	FR1	0	R1173J
3428.49	1.616	3434184	WORD	n/a	wordpools/wordpool_EN.txt	TENT	2	24	[0, 0, 0]	n/a	FR1	0	R1173J
3430.106	0.85	3435800	WORD_OFF	n/a	n/a	TENT	2	24	[0, 0, 0]	n/a	FR1	0	R1173J
3430.956	1.617	3436650	WORD	n/a	wordpools/wordpool_EN.txt	SOUP	3	24	[0, 0, 0]	n/a	FR1	0	R1173J
3432.573	0.834	3438267	WORD_OFF	n/a	n/a	SOUP	3	24	[0, 0, 0]	n/a	FR1	0	R1173J
3433.407	1.616	3439101	WORD	n/a	wordpools/wordpool_EN.txt	FRUIT	4	24	[0, 0, 0]	n/a	FR1	0	R1173J
3435.023	1.0	3440717	WORD_OFF	n/a	n/a	FRUIT	4	24	[0, 0, 0]	n/a	FR1	0	R1173J
3436.023	1.617	3441717	WORD	n/a	wordpools/wordpool_EN.txt	RICE	5	24	[0, 0, 0]	n/a	FR1	0	R1173J
3437.64	0.868	3443334	WORD_OFF	n/a	n/a	RICE	5	24	[0, 0, 0]	n/a	FR1	0	R1173J
3438.508	1.616	3444202	WORD	n/a	wordpools/wordpool_EN.txt	BAT	6	24	[0, 0, 0]	n/a	FR1	0	R1173J
3440.124	0.783	3445818	WORD_OFF	n/a	n/a	BAT	6	24	[0, 0, 0]	n/a	FR1	0	R1173J
3440.907	1.601	3446601	WORD	n/a	wordpools/wordpool_EN.txt	BOOK	7	24	[0, 0, 0]	n/a	FR1	0	R1173J
3442.508	0.767	3448202	WORD_OFF	n/a	n/a	BOOK	7	24	[0, 0, 0]	n/a	FR1	0	R1173J
3443.275	1.616	3448969	WORD	n/a	wordpools/wordpool_EN.txt	FUDGE	8	24	[0, 0, 0]	n/a	FR1	0	R1173J
3444.891	0.967	3450585	WORD_OFF	n/a	n/a	FUDGE	8	24	[0, 0, 0]	n/a	FR1	0	R1173J
3445.858	1.618	3451552	WORD	n/a	wordpools/wordpool_EN.txt	SAIL	9	24	[0, 0, 0]	n/a	FR1	0	R1173J
3447.476	0.9	3453170	WORD_OFF	n/a	n/a	SAIL	9	24	[0, 0, 0]	n/a	FR1	0	R1173J
3448.376	1.616	3454070	WORD	n/a	wordpools/wordpool_EN.txt	GRASS	10	24	[0, 0, 0]	n/a	FR1	0	R1173J
3449.992	0.966	3455686	WORD_OFF	n/a	n/a	GRASS	10	24	[0, 0, 0]	n/a	FR1	0	R1173J
3450.958	1.617	3456652	WORD	n/a	wordpools/wordpool_EN.txt	BEE	11	24	[0, 0, 0]	n/a	FR1	0	R1173J
3452.575	0.785	3458269	WORD_OFF	n/a	n/a	BEE	11	24	[0, 0, 0]	n/a	FR1	0	R1173J
3453.36	1.616	3459054	WORD	n/a	wordpools/wordpool_EN.txt	LAKE	12	24	[0, 0, 0]	n/a	FR1	0	R1173J
3454.976	0.0	3460670	WORD_OFF	n/a	n/a	LAKE	12	24	[0, 0, 0]	n/a	FR1	0	R1173J
3454.976	0.001	3460670	DISTRACT_START	n/a	n/a	n/a	-999	24	[0, 0, 0]	n/a	FR1	0	R1173J
3454.977	0.015	3460671	START	n/a	n/a	n/a	-999	24	[-999, -999, -999]	n/a	FR1	0	R1173J
3454.992	5.535	3460686	PROB	5.535	n/a	n/a	-999	24	[5, 6, 9]	20	FR1	0	R1173J
3460.527	8.901	3466221	PROB	8.901	n/a	n/a	-999	24	[5, 4, 4]	13	FR1	0	R1173J
3469.428	6.33	3475122	PROB	6.33	n/a	n/a	-999	24	[9, 3, 3]	15	FR1	0	R1173J
3475.758	0.02	3481452	STOP	n/a	n/a	n/a	-999	24	[-999, -999, -999]	n/a	FR1	0	R1173J
3475.778	0.701	3481472	DISTRACT_END	n/a	n/a	n/a	-999	24	[0, 0, 0]	n/a	FR1	0	R1173J
3476.479	0.517	3482173	RETRIEVAL_ORIENT	n/a	n/a	n/a	-999	24	[0, 0, 0]	n/a	FR1	0	R1173J
3476.996	18.088	3482690	REC_START	n/a	n/a	n/a	-999	24	[0, 0, 0]	n/a	FR1	0	R1173J
3495.084	2.078	3500778	REC_WORD	2.078	n/a	ROAD	-999	24	[0, 0, 0]	n/a	FR1	0	R1173J
3497.162	9.847	3502856	REC_WORD	9.847	n/a	TENT	-999	24	[0, 0, 0]	n/a	FR1	0	R1173J
3507.009	7.074	3512703	REC_END	n/a	n/a	n/a	-999	24	[0, 0, 0]	n/a	FR1	0	R1173J
3514.083	0.5	3519777	TRIAL	n/a	n/a	n/a	-999	25	[0, 0, 0]	n/a	FR1	0	R1173J
3514.583	10.428	3520277	COUNTDOWN_START	n/a	n/a	n/a	-999	25	[0, 0, 0]	n/a	FR1	0	R1173J
3525.011	0.007	3530704	COUNTDOWN_END	n/a	n/a	n/a	-999	25	[0, 0, 0]	n/a	FR1	0	R1173J
3525.018	1.617	3530711	ORIENT	n/a	n/a	n/a	-999	25	[0, 0, 0]	n/a	FR1	0	R1173J
3526.635	2.0	3532328	ORIENT_OFF	n/a	n/a	n/a	-999	25	[0, 0, 0]	n/a	FR1	0	R1173J
3528.635	1.618	3534328	WORD	n/a	wordpools/wordpool_EN.txt	PARK	1	25	[0, 0, 0]	n/a	FR1	0	R1173J
3530.253	0.983	3535946	WORD_OFF	n/a	n/a	PARK	1	25	[0, 0, 0]	n/a	FR1	0	R1173J
3531.236	1.616	3536929	WORD	n/a	wordpools/wordpool_EN.txt	CROWN	2	25	[0, 0, 0]	n/a	FR1	0	R1173J
3532.852	0.984	3538545	WORD_OFF	n/a	n/a	CROWN	2	25	[0, 0, 0]	n/a	FR1	0	R1173J
3533.836	1.617	3539529	WORD	n/a	wordpools/wordpool_EN.txt	EGG	3	25	[0, 0, 0]	n/a	FR1	0	R1173J
3535.453	0.917	3541146	WORD_OFF	n/a	n/a	EGG	3	25	[0, 0, 0]	n/a	FR1	0	R1173J
3536.37	1.616	3542063	WORD	n/a	wordpools/wordpool_EN.txt	PIT	4	25	[0, 0, 0]	n/a	FR1	0	R1173J
3537.986	0.784	3543679	WORD_OFF	n/a	n/a	PIT	4	25	[0, 0, 0]	n/a	FR1	0	R1173J
3538.77	1.618	3544463	WORD	n/a	wordpools/wordpool_EN.txt	RAIN	5	25	[0, 0, 0]	n/a	FR1	0	R1173J
3540.388	1.016	3546081	WORD_OFF	n/a	n/a	RAIN	5	25	[0, 0, 0]	n/a	FR1	0	R1173J
3541.404	1.616	3547097	WORD	n/a	wordpools/wordpool_EN.txt	BEAR	6	25	[0, 0, 0]	n/a	FR1	0	R1173J
3543.02	0.884	3548713	WORD_OFF	n/a	n/a	BEAR	6	25	[0, 0, 0]	n/a	FR1	0	R1173J
3543.904	1.617	3549597	WORD	n/a	wordpools/wordpool_EN.txt	SHEET	7	25	[0, 0, 0]	n/a	FR1	0	R1173J
3545.521	0.8	3551214	WORD_OFF	n/a	n/a	SHEET	7	25	[0, 0, 0]	n/a	FR1	0	R1173J
3546.321	1.617	3552014	WORD	n/a	wordpools/wordpool_EN.txt	SMILE	8	25	[0, 0, 0]	n/a	FR1	0	R1173J
3547.938	0.783	3553631	WORD_OFF	n/a	n/a	SMILE	8	25	[0, 0, 0]	n/a	FR1	0	R1173J
3548.721	1.618	3554414	WORD	n/a	wordpools/wordpool_EN.txt	BUSH	9	25	[0, 0, 0]	n/a	FR1	0	R1173J
3550.339	0.766	3556032	WORD_OFF	n/a	n/a	BUSH	9	25	[0, 0, 0]	n/a	FR1	0	R1173J
3551.105	1.617	3556798	WORD	n/a	wordpools/wordpool_EN.txt	DRESS	10	25	[0, 0, 0]	n/a	FR1	0	R1173J
3552.722	0.933	3558415	WORD_OFF	n/a	n/a	DRESS	10	25	[0, 0, 0]	n/a	FR1	0	R1173J
3553.655	1.618	3559348	WORD	n/a	wordpools/wordpool_EN.txt	GLASS	11	25	[0, 0, 0]	n/a	FR1	0	R1173J
3555.273	0.983	3560966	WORD_OFF	n/a	n/a	GLASS	11	25	[0, 0, 0]	n/a	FR1	0	R1173J
3556.256	1.616	3561949	WORD	n/a	wordpools/wordpool_EN.txt	CUBE	12	25	[0, 0, 0]	n/a	FR1	0	R1173J
3557.872	0.0	3563565	WORD_OFF	n/a	n/a	CUBE	12	25	[0, 0, 0]	n/a	FR1	0	R1173J
3557.872	0.001	3563565	DISTRACT_START	n/a	n/a	n/a	-999	25	[0, 0, 0]	n/a	FR1	0	R1173J
3557.873	0.016	3563566	START	n/a	n/a	n/a	-999	25	[-999, -999, -999]	n/a	FR1	0	R1173J
3557.889	5.385	3563582	PROB	5.385	n/a	n/a	-999	25	[2, 9, 9]	20	FR1	0	R1173J
3563.274	3.782	3568967	PROB	3.782	n/a	n/a	-999	25	[1, 4, 1]	6	FR1	0	R1173J
3567.056	12.338	3572749	PROB	12.338	n/a	n/a	-999	25	[7, 6, 9]	22	FR1	0	R1173J
3579.394	0.015	3585087	STOP	n/a	n/a	n/a	-999	25	[-999, -999, -999]	n/a	FR1	0	R1173J
3579.409	0.532	3585102	DISTRACT_END	n/a	n/a	n/a	-999	25	[0, 0, 0]	n/a	FR1	0	R1173J
3579.941	0.519	3585634	RETRIEVAL_ORIENT	n/a	n/a	n/a	-999	25	[0, 0, 0]	n/a	FR1	0	R1173J
3580.46	1.852	3586153	REC_START	n/a	n/a	n/a	-999	25	[0, 0, 0]	n/a	FR1	0	R1173J
3582.312	28.161	3588005	REC_WORD	28.161	n/a	PARK	-999	25	[0, 0, 0]	n/a	FR1	0	R1173J
3610.473	14.059	3616166	REC_END	n/a	n/a	n/a	-999	25	[0, 0, 0]	n/a	FR1	0	R1173J
3624.532	0.0	3630225	SESS_END	n/a	n/a	n/a	-999	25	[0, 0, 0]	n/a	FR1	0	R1173J
