onset	duration	sample	trial_type	response_time	stim_file	item_name	serialpos	list	test	answer	experiment	session	subject
0.0	24.646	251465	SESS_START	n/a	n/a	n/a	-999	-999	[0, 0, 0]	n/a	FR1	0	R1075J
24.646	10.428	276111	COUNTDOWN_START	n/a	n/a	n/a	-999	-999	[0, 0, 0]	n/a	FR1	0	R1075J
35.074	3.69	286539	COUNTDOWN_END	n/a	n/a	n/a	-999	-999	[0, 0, 0]	n/a	FR1	0	R1075J
38.764	2.469	290229	PRACTICE_WORD	n/a	n/a	ATTIC	1	-1	[0, 0, 0]	n/a	FR1	0	R1075J
41.233	2.582	292698	PRACTICE_WORD	n/a	n/a	WAGON	2	-1	[0, 0, 0]	n/a	FR1	0	R1075J
43.815	2.501	295280	PRACTICE_WORD	n/a	n/a	TONGUE	3	-1	[0, 0, 0]	n/a	FR1	0	R1075J
46.316	2.516	297781	PRACTICE_WORD	n/a	n/a	RHINO	4	-1	[0, 0, 0]	n/a	FR1	0	R1075J
48.832	2.369	300297	PRACTICE_WORD	n/a	n/a	CHEST	5	-1	[0, 0, 0]	n/a	FR1	0	R1075J
51.201	2.498	302666	PRACTICE_WORD	n/a	n/a	RING	6	-1	[0, 0, 0]	n/a	FR1	0	R1075J
53.699	2.402	305164	PRACTICE_WORD	n/a	n/a	WATCH	7	-1	[0, 0, 0]	n/a	FR1	0	R1075J
56.101	2.499	307566	PRACTICE_WORD	n/a	n/a	CAMEL	8	-1	[0, 0, 0]	n/a	FR1	0	R1075J
58.6	2.452	310065	PRACTICE_WORD	n/a	n/a	FLOOD	9	-1	[0, 0, 0]	n/a	FR1	0	R1075J
61.052	2.615	312517	PRACTICE_WORD	n/a	n/a	COTTON	10	-1	[0, 0, 0]	n/a	FR1	0	R1075J
63.667	2.385	315132	PRACTICE_WORD	n/a	n/a	BEAM	11	-1	[0, 0, 0]	n/a	FR1	0	R1075J
66.052	1.616	317517	PRACTICE_WORD	n/a	n/a	IRON	12	-1	[0, 0, 0]	n/a	FR1	0	R1075J
67.668	0.0	319133	PRACTICE_DISTRACT_START	n/a	n/a	n/a	-999	-1	[0, 0, 0]	n/a	FR1	0	R1075J
67.668	0.017	319133	START	n/a	n/a	n/a	-999	-1	[-999, -999, -999]	n/a	FR1	0	R1075J
67.685	7.967	319150	PROB	7.967	n/a	n/a	-999	-1	[2, 7, 1]	10	FR1	0	R1075J
75.652	3.552	327117	PROB	3.552	n/a	n/a	-999	-1	[5, 7, 5]	17	FR1	0	R1075J
79.204	3.85	330669	PROB	3.85	n/a	n/a	-999	-1	[4, 2, 8]	14	FR1	0	R1075J
83.054	3.917	334519	PROB	3.917	n/a	n/a	-999	-1	[8, 1, 6]	15	FR1	0	R1075J
86.971	3.582	338436	PROB	3.582	n/a	n/a	-999	-1	[7, 7, 6]	20	FR1	0	R1075J
90.553	0.018	342018	STOP	n/a	n/a	n/a	-999	-1	[-999, -999, -999]	n/a	FR1	0	R1075J
90.571	0.587	342036	PRACTICE_DISTRACT_END	n/a	n/a	n/a	-999	-1	[0, 0, 0]	n/a	FR1	0	R1075J
91.158	30.513	342623	PRACTICE_REC_START	n/a	n/a	n/a	-999	-1	[0, 0, 0]	n/a	FR1	0	R1075J
121.671	25.324	373136	PRACTICE_REC_END	n/a	n/a	n/a	-999	-1	[0, 0, 0]	n/a	FR1	0	R1075J
146.995	0.0	398460	COUNTDOWN_START	n/a	n/a	n/a	-999	1	[0, 0, 0]	n/a	FR1	0	R1075J
146.995	10.428	398460	TRIAL	n/a	n/a	n/a	-999	1	[0, 0, 0]	n/a	FR1	0	R1075J
157.423	0.007	408888	COUNTDOWN_END	n/a	n/a	n/a	-999	1	[0, 0, 0]	n/a	FR1	0	R1075J
157.43	2.567	408895	ORIENT	n/a	n/a	n/a	-999	1	[0, 0, 0]	n/a	FR1	0	R1075J
159.997	2.417	411462	WORD	n/a	wordpools/wordpool_EN.txt	STEM	1	1	[0, 0, 0]	n/a	FR1	0	R1075J
162.414	2.634	413879	WORD	n/a	wordpools/wordpool_EN.txt	MOON	2	1	[0, 0, 0]	n/a	FR1	0	R1075J
165.048	2.401	416513	WORD	n/a	wordpools/wordpool_EN.txt	EGG	3	1	[0, 0, 0]	n/a	FR1	0	R1075J
167.449	2.399	418914	WORD	n/a	wordpools/wordpool_EN.txt	TOAD	4	1	[0, 0, 0]	n/a	FR1	0	R1075J
169.848	2.418	421313	WORD	n/a	wordpools/wordpool_EN.txt	LEAF	5	1	[0, 0, 0]	n/a	FR1	0	R1075J
172.266	2.516	423731	WORD	n/a	wordpools/wordpool_EN.txt	HORSE	6	1	[0, 0, 0]	n/a	FR1	0	R1075J
174.782	2.551	426247	WORD	n/a	wordpools/wordpool_EN.txt	CASH	7	1	[0, 0, 0]	n/a	FR1	0	R1075J
177.333	2.466	428798	WORD	n/a	wordpools/wordpool_EN.txt	POLE	8	1	[0, 0, 0]	n/a	FR1	0	R1075J
179.799	2.434	431264	WORD	n/a	wordpools/wordpool_EN.txt	CORD	9	1	[0, 0, 0]	n/a	FR1	0	R1075J
182.233	2.45	433698	WORD	n/a	wordpools/wordpool_EN.txt	BOOK	10	1	[0, 0, 0]	n/a	FR1	0	R1075J
184.683	2.401	436148	WORD	n/a	wordpools/wordpool_EN.txt	FUDGE	11	1	[0, 0, 0]	n/a	FR1	0	R1075J
187.084	1.616	438549	WORD	n/a	wordpools/wordpool_EN.txt	SEED	12	1	[0, 0, 0]	n/a	FR1	0	R1075J
188.7	0.001	440165	DISTRACT_START	n/a	n/a	n/a	-999	1	[0, 0, 0]	n/a	FR1	0	R1075J
188.701	0.016	440166	START	n/a	n/a	n/a	-999	1	[-999, -999, -999]	n/a	FR1	0	R1075J
188.717	7.635	440182	PROB	7.635	n/a	n/a	-999	1	[3, 5, 9]	15	FR1	0	R1075J
196.352	3.516	447817	PROB	3.516	n/a	n/a	-999	1	[4, 5, 9]	18	FR1	0	R1075J
199.868	3.335	451333	PROB	3.335	n/a	n/a	-999	1	[7, 6, 2]	15	FR1	0	R1075J
203.203	3.733	454668	PROB	3.733	n/a	n/a	-999	1	[3, 8, 3]	14	FR1	0	R1075J
206.936	4.204	458401	PROB	4.204	n/a	n/a	-999	1	[9, 6, 5]	20	FR1	0	R1075J
211.14	0.014	462605	STOP	n/a	n/a	n/a	-999	1	[-999, -999, -999]	n/a	FR1	0	R1075J
211.154	1.051	462619	DISTRACT_END	n/a	n/a	n/a	-999	1	[0, 0, 0]	n/a	FR1	0	R1075J
212.205	4.539	463670	REC_START	n/a	n/a	n/a	-999	1	[0, 0, 0]	n/a	FR1	0	R1075J
216.744	0.34	468209	REC_WORD_VV	0.34	n/a	<>	-999	1	[0, 0, 0]	n/a	FR1	0	R1075J
217.084	2.598	468549	REC_WORD	2.598	n/a	SEED	12	1	[0, 0, 0]	n/a	FR1	0	R1075J
219.682	1.873	471147	REC_WORD_VV	1.873	n/a	<>	-999	1	[0, 0, 0]	n/a	FR1	0	R1075J
221.555	16.943	473020	REC_WORD	16.943	n/a	TOAD	4	1	[0, 0, 0]	n/a	FR1	0	R1075J
238.498	3.716	489963	REC_WORD	3.716	n/a	HORSE	6	1	[0, 0, 0]	n/a	FR1	0	R1075J
242.214	3.811	493679	REC_END	n/a	n/a	n/a	-999	1	[0, 0, 0]	n/a	FR1	0	R1075J
246.025	0.0	497490	TRIAL	n/a	n/a	n/a	-999	2	[0, 0, 0]	n/a	FR1	0	R1075J
246.025	10.428	497490	COUNTDOWN_START	n/a	n/a	n/a	-999	2	[0, 0, 0]	n/a	FR1	0	R1075J
256.453	0.007	507918	COUNTDOWN_END	n/a	n/a	n/a	-999	2	[0, 0, 0]	n/a	FR1	0	R1075J
256.46	2.399	507925	ORIENT	n/a	n/a	n/a	-999	2	[0, 0, 0]	n/a	FR1	0	R1075J
258.859	2.552	510324	WORD	n/a	wordpools/wordpool_EN.txt	FORK	1	2	[0, 0, 0]	n/a	FR1	0	R1075J
261.411	2.616	512876	WORD	n/a	wordpools/wordpool_EN.txt	BANK	2	2	[0, 0, 0]	n/a	FR1	0	R1075J
264.027	2.583	515492	WORD	n/a	wordpools/wordpool_EN.txt	SLEEVE	3	2	[0, 0, 0]	n/a	FR1	0	R1075J
266.61	2.435	518075	WORD	n/a	wordpools/wordpool_EN.txt	WAND	4	2	[0, 0, 0]	n/a	FR1	0	R1075J
269.045	2.417	520510	WORD	n/a	wordpools/wordpool_EN.txt	TOE	5	2	[0, 0, 0]	n/a	FR1	0	R1075J
271.462	2.432	522927	WORD	n/a	wordpools/wordpool_EN.txt	COUCH	6	2	[0, 0, 0]	n/a	FR1	0	R1075J
273.894	2.618	525359	WORD	n/a	wordpools/wordpool_EN.txt	GATE	7	2	[0, 0, 0]	n/a	FR1	0	R1075J
276.512	2.416	527977	WORD	n/a	wordpools/wordpool_EN.txt	STRING	8	2	[0, 0, 0]	n/a	FR1	0	R1075J
278.928	2.435	530393	WORD	n/a	wordpools/wordpool_EN.txt	VINE	9	2	[0, 0, 0]	n/a	FR1	0	R1075J
281.363	2.583	532828	WORD	n/a	wordpools/wordpool_EN.txt	SPEAR	10	2	[0, 0, 0]	n/a	FR1	0	R1075J
283.946	2.401	535411	WORD	n/a	wordpools/wordpool_EN.txt	TIE	11	2	[0, 0, 0]	n/a	FR1	0	R1075J
286.347	1.616	537812	WORD	n/a	wordpools/wordpool_EN.txt	PALM	12	2	[0, 0, 0]	n/a	FR1	0	R1075J
287.963	0.001	539428	DISTRACT_START	n/a	n/a	n/a	-999	2	[0, 0, 0]	n/a	FR1	0	R1075J
287.964	0.015	539429	START	n/a	n/a	n/a	-999	2	[-999, -999, -999]	n/a	FR1	0	R1075J
287.979	4.001	539444	PROB	4.001	n/a	n/a	-999	2	[3, 2, 9]	14	FR1	0	R1075J
291.98	3.051	543445	PROB	3.051	n/a	n/a	-999	2	[4, 9, 8]	21	FR1	0	R1075J
295.031	7.717	546496	PROB	7.717	n/a	n/a	-999	2	[4, 8, 9]	21	FR1	0	R1075J
302.748	4.468	554213	PROB	4.468	n/a	n/a	-999	2	[3, 6, 7]	16	FR1	0	R1075J
307.216	3.232	558681	PROB	3.232	n/a	n/a	-999	2	[5, 6, 7]	19	FR1	0	R1075J
310.448	0.019	561913	STOP	n/a	n/a	n/a	-999	2	[-999, -999, -999]	n/a	FR1	0	R1075J
310.467	1.083	561932	DISTRACT_END	n/a	n/a	n/a	-999	2	[0, 0, 0]	n/a	FR1	0	R1075J
311.55	3.696	563015	REC_START	n/a	n/a	n/a	-999	2	[0, 0, 0]	n/a	FR1	0	R1075J
315.246	0.369	566711	REC_WORD	0.369	n/a	TOE	5	2	[0, 0, 0]	n/a	FR1	0	R1075J
315.615	1.096	567080	REC_WORD	1.096	n/a	SPEAR	10	2	[0, 0, 0]	n/a	FR1	0	R1075J
316.711	4.128	568176	REC_WORD	4.128	n/a	GATE	7	2	[0, 0, 0]	n/a	FR1	0	R1075J
320.839	17.657	572304	REC_WORD_VV	17.657	n/a	<>	-999	2	[0, 0, 0]	n/a	FR1	0	R1075J
338.496	3.072	589961	REC_WORD_VV	3.072	n/a	<>	-999	2	[0, 0, 0]	n/a	FR1	0	R1075J
341.568	2.418	593033	REC_END	n/a	n/a	n/a	-999	2	[0, 0, 0]	n/a	FR1	0	R1075J
343.986	0.001	595451	COUNTDOWN_START	n/a	n/a	n/a	-999	3	[0, 0, 0]	n/a	FR1	0	R1075J
343.987	10.427	595452	TRIAL	n/a	n/a	n/a	-999	3	[0, 0, 0]	n/a	FR1	0	R1075J
354.414	0.008	605879	COUNTDOWN_END	n/a	n/a	n/a	-999	3	[0, 0, 0]	n/a	FR1	0	R1075J
354.422	2.483	605887	ORIENT	n/a	n/a	n/a	-999	3	[0, 0, 0]	n/a	FR1	0	R1075J
356.905	2.418	608370	WORD	n/a	wordpools/wordpool_EN.txt	MULE	1	3	[0, 0, 0]	n/a	FR1	0	R1075J
359.323	2.416	610788	WORD	n/a	wordpools/wordpool_EN.txt	FORT	2	3	[0, 0, 0]	n/a	FR1	0	R1075J
361.739	2.484	613204	WORD	n/a	wordpools/wordpool_EN.txt	PEA	3	3	[0, 0, 0]	n/a	FR1	0	R1075J
364.223	2.6	615688	WORD	n/a	wordpools/wordpool_EN.txt	HILL	4	3	[0, 0, 0]	n/a	FR1	0	R1075J
366.823	2.401	618288	WORD	n/a	wordpools/wordpool_EN.txt	HEN	5	3	[0, 0, 0]	n/a	FR1	0	R1075J
369.224	2.566	620689	WORD	n/a	wordpools/wordpool_EN.txt	MAT	6	3	[0, 0, 0]	n/a	FR1	0	R1075J
371.79	2.401	623255	WORD	n/a	wordpools/wordpool_EN.txt	PANTS	7	3	[0, 0, 0]	n/a	FR1	0	R1075J
374.191	2.516	625656	WORD	n/a	wordpools/wordpool_EN.txt	FOX	8	3	[0, 0, 0]	n/a	FR1	0	R1075J
376.707	2.485	628172	WORD	n/a	wordpools/wordpool_EN.txt	FLAG	9	3	[0, 0, 0]	n/a	FR1	0	R1075J
379.192	2.499	630657	WORD	n/a	wordpools/wordpool_EN.txt	SIGN	10	3	[0, 0, 0]	n/a	FR1	0	R1075J
381.691	2.535	633156	WORD	n/a	wordpools/wordpool_EN.txt	GUARD	11	3	[0, 0, 0]	n/a	FR1	0	R1075J
384.226	1.616	635691	WORD	n/a	wordpools/wordpool_EN.txt	HAWK	12	3	[0, 0, 0]	n/a	FR1	0	R1075J
385.842	0.001	637307	DISTRACT_START	n/a	n/a	n/a	-999	3	[0, 0, 0]	n/a	FR1	0	R1075J
385.843	0.015	637308	START	n/a	n/a	n/a	-999	3	[-999, -999, -999]	n/a	FR1	0	R1075J
385.858	3.602	637323	PROB	3.602	n/a	n/a	-999	3	[6, 6, 1]	13	FR1	0	R1075J
389.46	3.233	640925	PROB	3.233	n/a	n/a	-999	3	[2, 4, 1]	7	FR1	0	R1075J
392.693	2.534	644158	PROB	2.534	n/a	n/a	-999	3	[1, 2, 8]	11	FR1	0	R1075J
395.227	4.051	646692	PROB	4.051	n/a	n/a	-999	3	[7, 6, 4]	17	FR1	0	R1075J
399.278	2.983	650743	PROB	2.983	n/a	n/a	-999	3	[8, 7, 7]	22	FR1	0	R1075J
402.261	2.018	653726	PROB	2.018	n/a	n/a	-999	3	[1, 7, 3]	11	FR1	0	R1075J
404.279	2.757	655744	PROB	2.757	n/a	n/a	-999	3	[5, 6, 2]	13	FR1	0	R1075J
407.036	0.01	658501	STOP	n/a	n/a	n/a	-999	3	[-999, -999, -999]	n/a	FR1	0	R1075J
407.046	1.167	658511	DISTRACT_END	n/a	n/a	n/a	-999	3	[0, 0, 0]	n/a	FR1	0	R1075J
408.213	2.287	659678	REC_START	n/a	n/a	n/a	-999	3	[0, 0, 0]	n/a	FR1	0	R1075J
410.5	0.738	661965	REC_WORD	0.738	n/a	FORT	2	3	[0, 0, 0]	n/a	FR1	0	R1075J
411.238	0.524	662703	REC_WORD	0.524	n/a	FLAG	9	3	[0, 0, 0]	n/a	FR1	0	R1075J
411.762	1.03	663227	REC_WORD	1.03	n/a	HILL	4	3	[0, 0, 0]	n/a	FR1	0	R1075J
412.792	8.386	664257	REC_WORD	8.386	n/a	HAWK	12	3	[0, 0, 0]	n/a	FR1	0	R1075J
421.178	5.778	672642	REC_WORD	5.778	n/a	GATE	-999	3	[0, 0, 0]	n/a	FR1	0	R1075J
426.956	1.875	678420	REC_WORD	1.875	n/a	CHICKEN	-999	3	[0, 0, 0]	n/a	FR1	0	R1075J
428.831	2.099	680295	REC_WORD_VV	2.099	n/a	<>	-999	3	[0, 0, 0]	n/a	FR1	0	R1075J
430.93	7.295	682394	REC_WORD_VV	7.295	n/a	<>	-999	3	[0, 0, 0]	n/a	FR1	0	R1075J
438.225	2.474	689689	REC_END	n/a	n/a	n/a	-999	3	[0, 0, 0]	n/a	FR1	0	R1075J
440.699	0.0	692163	TRIAL	n/a	n/a	n/a	-999	4	[0, 0, 0]	n/a	FR1	0	R1075J
440.699	10.428	692163	COUNTDOWN_START	n/a	n/a	n/a	-999	4	[0, 0, 0]	n/a	FR1	0	R1075J
451.127	0.008	702591	COUNTDOWN_END	n/a	n/a	n/a	-999	4	[0, 0, 0]	n/a	FR1	0	R1075J
451.135	2.465	702599	ORIENT	n/a	n/a	n/a	-999	4	[0, 0, 0]	n/a	FR1	0	R1075J
453.6	2.452	705064	WORD	n/a	wordpools/wordpool_EN.txt	SHELL	1	4	[0, 0, 0]	n/a	FR1	0	R1075J
456.052	2.499	707516	WORD	n/a	wordpools/wordpool_EN.txt	GLASS	2	4	[0, 0, 0]	n/a	FR1	0	R1075J
458.551	2.568	710015	WORD	n/a	wordpools/wordpool_EN.txt	HOOF	3	4	[0, 0, 0]	n/a	FR1	0	R1075J
461.119	2.417	712583	WORD	n/a	wordpools/wordpool_EN.txt	ZOO	4	4	[0, 0, 0]	n/a	FR1	0	R1075J
463.536	2.517	715000	WORD	n/a	wordpools/wordpool_EN.txt	FLEA	5	4	[0, 0, 0]	n/a	FR1	0	R1075J
466.053	2.566	717517	WORD	n/a	wordpools/wordpool_EN.txt	SEA	6	4	[0, 0, 0]	n/a	FR1	0	R1075J
468.619	2.384	720083	WORD	n/a	wordpools/wordpool_EN.txt	CONE	7	4	[0, 0, 0]	n/a	FR1	0	R1075J
471.003	2.534	722467	WORD	n/a	wordpools/wordpool_EN.txt	BEACH	8	4	[0, 0, 0]	n/a	FR1	0	R1075J
473.537	2.517	725001	WORD	n/a	wordpools/wordpool_EN.txt	SNAIL	9	4	[0, 0, 0]	n/a	FR1	0	R1075J
476.054	2.384	727518	WORD	n/a	wordpools/wordpool_EN.txt	CLAY	10	4	[0, 0, 0]	n/a	FR1	0	R1075J
478.438	2.466	729902	WORD	n/a	wordpools/wordpool_EN.txt	SPONGE	11	4	[0, 0, 0]	n/a	FR1	0	R1075J
480.904	1.618	732368	WORD	n/a	wordpools/wordpool_EN.txt	WAVE	12	4	[0, 0, 0]	n/a	FR1	0	R1075J
482.522	0.0	733986	DISTRACT_START	n/a	n/a	n/a	-999	4	[0, 0, 0]	n/a	FR1	0	R1075J
482.522	0.016	733986	START	n/a	n/a	n/a	-999	4	[-999, -999, -999]	n/a	FR1	0	R1075J
482.538	3.534	734002	PROB	3.534	n/a	n/a	-999	4	[8, 3, 8]	19	FR1	0	R1075J
486.072	2.267	737536	PROB	2.267	n/a	n/a	-999	4	[4, 3, 4]	11	FR1	0	R1075J
488.339	5.034	739803	PROB	5.034	n/a	n/a	-999	4	[7, 9, 8]	24	FR1	0	R1075J
493.373	2.034	744837	PROB	2.034	n/a	n/a	-999	4	[1, 2, 8]	11	FR1	0	R1075J
495.407	2.366	746871	PROB	2.366	n/a	n/a	-999	4	[2, 3, 7]	12	FR1	0	R1075J
497.773	2.834	749237	PROB	2.834	n/a	n/a	-999	4	[4, 8, 2]	14	FR1	0	R1075J
500.607	3.216	752071	PROB	3.216	n/a	n/a	-999	4	[9, 4, 6]	19	FR1	0	R1075J
503.823	0.017	755287	STOP	n/a	n/a	n/a	-999	4	[-999, -999, -999]	n/a	FR1	0	R1075J
503.84	1.151	755304	DISTRACT_END	n/a	n/a	n/a	-999	4	[0, 0, 0]	n/a	FR1	0	R1075J
504.991	2.055	756455	REC_START	n/a	n/a	n/a	-999	4	[0, 0, 0]	n/a	FR1	0	R1075J
507.046	0.591	758510	REC_WORD	0.591	n/a	BEACH	8	4	[0, 0, 0]	n/a	FR1	0	R1075J
507.637	0.692	759101	REC_WORD	0.692	n/a	SAIL	-999	4	[0, 0, 0]	n/a	FR1	0	R1075J
508.329	1.527	759793	REC_WORD	1.527	n/a	SAIL	-999	4	[0, 0, 0]	n/a	FR1	0	R1075J
509.856	1.247	761320	REC_WORD	1.247	n/a	BEACH	8	4	[0, 0, 0]	n/a	FR1	0	R1075J
511.103	3.319	762567	REC_WORD	3.319	n/a	SNAIL	9	4	[0, 0, 0]	n/a	FR1	0	R1075J
514.422	1.674	765886	REC_WORD_VV	1.674	n/a	<>	-999	4	[0, 0, 0]	n/a	FR1	0	R1075J
516.096	1.287	767560	REC_WORD	1.287	n/a	SPONGE	11	4	[0, 0, 0]	n/a	FR1	0	R1075J
517.383	3.905	768847	REC_WORD	3.905	n/a	GLASS	2	4	[0, 0, 0]	n/a	FR1	0	R1075J
521.288	0.282	772752	REC_WORD	0.282	n/a	SEA	6	4	[0, 0, 0]	n/a	FR1	0	R1075J
521.57	2.191	773034	REC_WORD	2.191	n/a	SHELL	1	4	[0, 0, 0]	n/a	FR1	0	R1075J
523.761	11.238	775225	REC_WORD_VV	11.238	n/a	<>	-999	4	[0, 0, 0]	n/a	FR1	0	R1075J
534.999	2.546	786463	REC_END	n/a	n/a	n/a	-999	4	[0, 0, 0]	n/a	FR1	0	R1075J
537.545	0.0	789009	TRIAL	n/a	n/a	n/a	-999	5	[0, 0, 0]	n/a	FR1	0	R1075J
537.545	10.428	789009	COUNTDOWN_START	n/a	n/a	n/a	-999	5	[0, 0, 0]	n/a	FR1	0	R1075J
547.973	0.006	799437	COUNTDOWN_END	n/a	n/a	n/a	-999	5	[0, 0, 0]	n/a	FR1	0	R1075J
547.979	2.617	799443	ORIENT	n/a	n/a	n/a	-999	5	[0, 0, 0]	n/a	FR1	0	R1075J
550.596	2.618	802060	WORD	n/a	wordpools/wordpool_EN.txt	SHIRT	1	5	[0, 0, 0]	n/a	FR1	0	R1075J
553.214	2.449	804678	WORD	n/a	wordpools/wordpool_EN.txt	FUR	2	5	[0, 0, 0]	n/a	FR1	0	R1075J
555.663	2.535	807127	WORD	n/a	wordpools/wordpool_EN.txt	RIB	3	5	[0, 0, 0]	n/a	FR1	0	R1075J
558.198	2.483	809662	WORD	n/a	wordpools/wordpool_EN.txt	POOL	4	5	[0, 0, 0]	n/a	FR1	0	R1075J
560.681	2.534	812145	WORD	n/a	wordpools/wordpool_EN.txt	SWORD	5	5	[0, 0, 0]	n/a	FR1	0	R1075J
563.215	2.483	814679	WORD	n/a	wordpools/wordpool_EN.txt	ARM	6	5	[0, 0, 0]	n/a	FR1	0	R1075J
565.698	2.485	817162	WORD	n/a	wordpools/wordpool_EN.txt	FAN	7	5	[0, 0, 0]	n/a	FR1	0	R1075J
568.183	2.433	819647	WORD	n/a	wordpools/wordpool_EN.txt	BOY	8	5	[0, 0, 0]	n/a	FR1	0	R1075J
570.616	2.45	822080	WORD	n/a	wordpools/wordpool_EN.txt	PURSE	9	5	[0, 0, 0]	n/a	FR1	0	R1075J
573.066	2.467	824530	WORD	n/a	wordpools/wordpool_EN.txt	ROPE	10	5	[0, 0, 0]	n/a	FR1	0	R1075J
575.533	2.584	826997	WORD	n/a	wordpools/wordpool_EN.txt	BUSH	11	5	[0, 0, 0]	n/a	FR1	0	R1075J
578.117	1.616	829581	WORD	n/a	wordpools/wordpool_EN.txt	FOOT	12	5	[0, 0, 0]	n/a	FR1	0	R1075J
579.733	0.001	831197	DISTRACT_START	n/a	n/a	n/a	-999	5	[0, 0, 0]	n/a	FR1	0	R1075J
579.734	0.016	831198	START	n/a	n/a	n/a	-999	5	[-999, -999, -999]	n/a	FR1	0	R1075J
579.75	7.635	831214	PROB	7.635	n/a	n/a	-999	5	[7, 6, 7]	20	FR1	0	R1075J
587.385	3.483	838849	PROB	3.483	n/a	n/a	-999	5	[7, 8, 1]	16	FR1	0	R1075J
590.868	3.284	842332	PROB	3.284	n/a	n/a	-999	5	[8, 4, 7]	19	FR1	0	R1075J
594.152	2.817	845616	PROB	2.817	n/a	n/a	-999	5	[9, 7, 5]	21	FR1	0	R1075J
596.969	3.531	848433	PROB	3.531	n/a	n/a	-999	5	[9, 3, 5]	17	FR1	0	R1075J
600.5	0.02	851964	STOP	n/a	n/a	n/a	-999	5	[-999, -999, -999]	n/a	FR1	0	R1075J
600.52	1.15	851984	DISTRACT_END	n/a	n/a	n/a	-999	5	[0, 0, 0]	n/a	FR1	0	R1075J
601.67	1.96	853134	REC_START	n/a	n/a	n/a	-999	5	[0, 0, 0]	n/a	FR1	0	R1075J
603.63	0.66	855094	REC_WORD	0.66	n/a	SHORT	-999	5	[0, 0, 0]	n/a	FR1	0	R1075J
604.29	0.773	855754	REC_WORD	0.773	n/a	ROPE	10	5	[0, 0, 0]	n/a	FR1	0	R1075J
605.063	0.445	856527	REC_WORD	0.445	n/a	SHIRT	1	5	[0, 0, 0]	n/a	FR1	0	R1075J
605.508	1.966	856972	REC_WORD	1.966	n/a	ROPE	10	5	[0, 0, 0]	n/a	FR1	0	R1075J
607.474	1.287	858938	REC_WORD	1.287	n/a	SLEEVE	-999	5	[0, 0, 0]	n/a	FR1	0	R1075J
608.761	1.459	860225	REC_WORD_VV	1.459	n/a	<>	-999	5	[0, 0, 0]	n/a	FR1	0	R1075J
610.22	2.748	861684	REC_WORD	2.748	n/a	BOY	8	5	[0, 0, 0]	n/a	FR1	0	R1075J
612.968	2.96	864432	REC_WORD	2.96	n/a	SWORD	5	5	[0, 0, 0]	n/a	FR1	0	R1075J
615.928	7.574	867392	REC_WORD	7.574	n/a	ARM	6	5	[0, 0, 0]	n/a	FR1	0	R1075J
623.502	8.179	874966	REC_WORD	8.179	n/a	TEA	-999	5	[0, 0, 0]	n/a	FR1	0	R1075J
631.681	3.009	883145	REC_END	n/a	n/a	n/a	-999	5	[0, 0, 0]	n/a	FR1	0	R1075J
634.69	0.0	886154	TRIAL	n/a	n/a	n/a	-999	6	[0, 0, 0]	n/a	FR1	0	R1075J
634.69	10.428	886154	COUNTDOWN_START	n/a	n/a	n/a	-999	6	[0, 0, 0]	n/a	FR1	0	R1075J
645.118	0.008	896582	COUNTDOWN_END	n/a	n/a	n/a	-999	6	[0, 0, 0]	n/a	FR1	0	R1075J
645.126	2.432	896590	ORIENT	n/a	n/a	n/a	-999	6	[0, 0, 0]	n/a	FR1	0	R1075J
647.558	2.451	899022	WORD	n/a	wordpools/wordpool_EN.txt	BEE	1	6	[0, 0, 0]	n/a	FR1	0	R1075J
650.009	2.583	901473	WORD	n/a	wordpools/wordpool_EN.txt	STORE	2	6	[0, 0, 0]	n/a	FR1	0	R1075J
652.592	2.602	904056	WORD	n/a	wordpools/wordpool_EN.txt	MOLE	3	6	[0, 0, 0]	n/a	FR1	0	R1075J
655.194	2.449	906658	WORD	n/a	wordpools/wordpool_EN.txt	ROCK	4	6	[0, 0, 0]	n/a	FR1	0	R1075J
657.643	2.535	909107	WORD	n/a	wordpools/wordpool_EN.txt	BIRD	5	6	[0, 0, 0]	n/a	FR1	0	R1075J
660.178	2.499	911642	WORD	n/a	wordpools/wordpool_EN.txt	BEAR	6	6	[0, 0, 0]	n/a	FR1	0	R1075J
662.677	2.551	914141	WORD	n/a	wordpools/wordpool_EN.txt	RAIN	7	6	[0, 0, 0]	n/a	FR1	0	R1075J
665.228	2.416	916692	WORD	n/a	wordpools/wordpool_EN.txt	APE	8	6	[0, 0, 0]	n/a	FR1	0	R1075J
667.644	2.585	919108	WORD	n/a	wordpools/wordpool_EN.txt	ANT	9	6	[0, 0, 0]	n/a	FR1	0	R1075J
670.229	2.566	921693	WORD	n/a	wordpools/wordpool_EN.txt	NEST	10	6	[0, 0, 0]	n/a	FR1	0	R1075J
672.795	2.618	924259	WORD	n/a	wordpools/wordpool_EN.txt	JAIL	11	6	[0, 0, 0]	n/a	FR1	0	R1075J
675.413	1.617	926877	WORD	n/a	wordpools/wordpool_EN.txt	RAT	12	6	[0, 0, 0]	n/a	FR1	0	R1075J
677.03	0.001	928494	DISTRACT_START	n/a	n/a	n/a	-999	6	[0, 0, 0]	n/a	FR1	0	R1075J
677.031	0.015	928495	START	n/a	n/a	n/a	-999	6	[-999, -999, -999]	n/a	FR1	0	R1075J
677.046	3.068	928510	PROB	3.068	n/a	n/a	-999	6	[4, 6, 1]	11	FR1	0	R1075J
680.114	3.649	931578	PROB	3.649	n/a	n/a	-999	6	[1, 8, 7]	16	FR1	0	R1075J
683.763	5.602	935227	PROB	5.602	n/a	n/a	-999	6	[5, 1, 3]	9	FR1	0	R1075J
689.365	4.616	940829	PROB	4.616	n/a	n/a	-999	6	[8, 7, 5]	20	FR1	0	R1075J
693.981	2.617	945445	PROB	2.617	n/a	n/a	-999	6	[7, 3, 4]	14	FR1	0	R1075J
696.598	2.306	948062	PROB	2.306	n/a	n/a	-999	6	[9, 2, 2]	13	FR1	0	R1075J
698.904	0.011	950368	STOP	n/a	n/a	n/a	-999	6	[-999, -999, -999]	n/a	FR1	0	R1075J
698.915	1.084	950379	DISTRACT_END	n/a	n/a	n/a	-999	6	[0, 0, 0]	n/a	FR1	0	R1075J
699.999	2.574	951463	REC_START	n/a	n/a	n/a	-999	6	[0, 0, 0]	n/a	FR1	0	R1075J
702.573	2.04	954037	REC_WORD	2.04	n/a	BEE	1	6	[0, 0, 0]	n/a	FR1	0	R1075J
704.613	0.932	956077	REC_WORD	0.932	n/a	APE	8	6	[0, 0, 0]	n/a	FR1	0	R1075J
705.545	2.187	957009	REC_WORD	2.187	n/a	BEAR	6	6	[0, 0, 0]	n/a	FR1	0	R1075J
707.732	2.421	959196	REC_WORD	2.421	n/a	MOLE	3	6	[0, 0, 0]	n/a	FR1	0	R1075J
710.153	2.749	961617	REC_WORD	2.749	n/a	ANT	9	6	[0, 0, 0]	n/a	FR1	0	R1075J
712.902	3.179	964366	REC_WORD	3.179	n/a	NEST	10	6	[0, 0, 0]	n/a	FR1	0	R1075J
716.081	0.508	967545	REC_WORD_VV	0.508	n/a	<>	-999	6	[0, 0, 0]	n/a	FR1	0	R1075J
716.589	0.59	968053	REC_WORD	0.59	n/a	BIRD	5	6	[0, 0, 0]	n/a	FR1	0	R1075J
717.179	0.517	968643	REC_WORD_VV	0.517	n/a	<>	-999	6	[0, 0, 0]	n/a	FR1	0	R1075J
717.696	1.206	969160	REC_WORD	1.206	n/a	BIRD	5	6	[0, 0, 0]	n/a	FR1	0	R1075J
718.902	1.751	970366	REC_WORD_VV	1.751	n/a	<>	-999	6	[0, 0, 0]	n/a	FR1	0	R1075J
720.653	9.361	972117	REC_WORD	9.361	n/a	JAIL	11	6	[0, 0, 0]	n/a	FR1	0	R1075J
730.014	2.655	981478	REC_END	n/a	n/a	n/a	-999	6	[0, 0, 0]	n/a	FR1	0	R1075J
732.669	0.0	984133	TRIAL	n/a	n/a	n/a	-999	7	[0, 0, 0]	n/a	FR1	0	R1075J
732.669	10.428	984133	COUNTDOWN_START	n/a	n/a	n/a	-999	7	[0, 0, 0]	n/a	FR1	0	R1075J
743.097	0.008	994561	COUNTDOWN_END	n/a	n/a	n/a	-999	7	[0, 0, 0]	n/a	FR1	0	R1075J
743.105	2.583	994569	ORIENT	n/a	n/a	n/a	-999	7	[0, 0, 0]	n/a	FR1	0	R1075J
745.688	2.451	997152	WORD	n/a	wordpools/wordpool_EN.txt	KEY	1	7	[0, 0, 0]	n/a	FR1	0	R1075J
748.139	2.433	999603	WORD	n/a	wordpools/wordpool_EN.txt	GOLD	2	7	[0, 0, 0]	n/a	FR1	0	R1075J
750.572	2.4	1002036	WORD	n/a	wordpools/wordpool_EN.txt	FILM	3	7	[0, 0, 0]	n/a	FR1	0	R1075J
752.972	2.534	1004436	WORD	n/a	wordpools/wordpool_EN.txt	BOMB	4	7	[0, 0, 0]	n/a	FR1	0	R1075J
755.506	2.618	1006970	WORD	n/a	wordpools/wordpool_EN.txt	PRINCE	5	7	[0, 0, 0]	n/a	FR1	0	R1075J
758.124	2.566	1009588	WORD	n/a	wordpools/wordpool_EN.txt	EAR	6	7	[0, 0, 0]	n/a	FR1	0	R1075J
760.69	2.417	1012154	WORD	n/a	wordpools/wordpool_EN.txt	DART	7	7	[0, 0, 0]	n/a	FR1	0	R1075J
763.107	2.466	1014571	WORD	n/a	wordpools/wordpool_EN.txt	BALL	8	7	[0, 0, 0]	n/a	FR1	0	R1075J
765.573	2.602	1017037	WORD	n/a	wordpools/wordpool_EN.txt	PLANE	9	7	[0, 0, 0]	n/a	FR1	0	R1075J
768.175	2.516	1019639	WORD	n/a	wordpools/wordpool_EN.txt	SPARK	10	7	[0, 0, 0]	n/a	FR1	0	R1075J
770.691	2.584	1022155	WORD	n/a	wordpools/wordpool_EN.txt	COIN	11	7	[0, 0, 0]	n/a	FR1	0	R1075J
773.275	1.616	1024739	WORD	n/a	wordpools/wordpool_EN.txt	SPOON	12	7	[0, 0, 0]	n/a	FR1	0	R1075J
774.891	0.001	1026355	DISTRACT_START	n/a	n/a	n/a	-999	7	[0, 0, 0]	n/a	FR1	0	R1075J
774.892	0.016	1026356	START	n/a	n/a	n/a	-999	7	[-999, -999, -999]	n/a	FR1	0	R1075J
774.908	3.385	1026372	PROB	3.385	n/a	n/a	-999	7	[3, 3, 2]	8	FR1	0	R1075J
778.293	4.416	1029757	PROB	4.416	n/a	n/a	-999	7	[7, 4, 2]	13	FR1	0	R1075J
782.709	2.734	1034173	PROB	2.734	n/a	n/a	-999	7	[5, 5, 5]	15	FR1	0	R1075J
785.443	2.517	1036907	PROB	2.517	n/a	n/a	-999	7	[1, 4, 1]	6	FR1	0	R1075J
787.96	3.101	1039424	PROB	3.101	n/a	n/a	-999	7	[1, 6, 7]	14	FR1	0	R1075J
791.061	3.854	1042525	PROB	3.854	n/a	n/a	-999	7	[1, 3, 6]	10	FR1	0	R1075J
794.915	0.012	1046379	STOP	n/a	n/a	n/a	-999	7	[-999, -999, -999]	n/a	FR1	0	R1075J
794.927	1.185	1046391	DISTRACT_END	n/a	n/a	n/a	-999	7	[0, 0, 0]	n/a	FR1	0	R1075J
796.112	5.827	1047576	REC_START	n/a	n/a	n/a	-999	7	[0, 0, 0]	n/a	FR1	0	R1075J
801.939	2.212	1053403	REC_WORD_VV	2.212	n/a	<>	-999	7	[0, 0, 0]	n/a	FR1	0	R1075J
804.151	5.512	1055615	REC_WORD	5.512	n/a	FILM	3	7	[0, 0, 0]	n/a	FR1	0	R1075J
809.663	8.242	1061127	REC_WORD_VV	8.242	n/a	<>	-999	7	[0, 0, 0]	n/a	FR1	0	R1075J
817.905	0.631	1069369	REC_WORD	0.631	n/a	COIN	11	7	[0, 0, 0]	n/a	FR1	0	R1075J
818.536	1.282	1070000	REC_WORD	1.282	n/a	GOLD	2	7	[0, 0, 0]	n/a	FR1	0	R1075J
819.818	1.209	1071282	REC_WORD	1.209	n/a	KEY	1	7	[0, 0, 0]	n/a	FR1	0	R1075J
821.027	2.669	1072491	REC_WORD	2.669	n/a	PRINCE	5	7	[0, 0, 0]	n/a	FR1	0	R1075J
823.696	2.432	1075160	REC_WORD	2.432	n/a	DART	7	7	[0, 0, 0]	n/a	FR1	0	R1075J
826.128	3.288	1077592	REC_END	n/a	n/a	n/a	-999	7	[0, 0, 0]	n/a	FR1	0	R1075J
829.416	0.001	1080880	COUNTDOWN_START	n/a	n/a	n/a	-999	8	[0, 0, 0]	n/a	FR1	0	R1075J
829.417	10.427	1080881	TRIAL	n/a	n/a	n/a	-999	8	[0, 0, 0]	n/a	FR1	0	R1075J
839.844	0.006	1091308	COUNTDOWN_END	n/a	n/a	n/a	-999	8	[0, 0, 0]	n/a	FR1	0	R1075J
839.85	2.484	1091314	ORIENT	n/a	n/a	n/a	-999	8	[0, 0, 0]	n/a	FR1	0	R1075J
842.334	2.449	1093798	WORD	n/a	wordpools/wordpool_EN.txt	LEG	1	8	[0, 0, 0]	n/a	FR1	0	R1075J
844.783	2.568	1096247	WORD	n/a	wordpools/wordpool_EN.txt	SNAKE	2	8	[0, 0, 0]	n/a	FR1	0	R1075J
847.351	2.533	1098815	WORD	n/a	wordpools/wordpool_EN.txt	NOSE	3	8	[0, 0, 0]	n/a	FR1	0	R1075J
849.884	2.601	1101348	WORD	n/a	wordpools/wordpool_EN.txt	MOOSE	4	8	[0, 0, 0]	n/a	FR1	0	R1075J
852.485	2.4	1103949	WORD	n/a	wordpools/wordpool_EN.txt	GOAT	5	8	[0, 0, 0]	n/a	FR1	0	R1075J
854.885	2.451	1106349	WORD	n/a	wordpools/wordpool_EN.txt	MILK	6	8	[0, 0, 0]	n/a	FR1	0	R1075J
857.336	2.599	1108800	WORD	n/a	wordpools/wordpool_EN.txt	CLIFF	7	8	[0, 0, 0]	n/a	FR1	0	R1075J
859.935	2.602	1111399	WORD	n/a	wordpools/wordpool_EN.txt	MOUSE	8	8	[0, 0, 0]	n/a	FR1	0	R1075J
862.537	2.432	1114001	WORD	n/a	wordpools/wordpool_EN.txt	GRASS	9	8	[0, 0, 0]	n/a	FR1	0	R1075J
864.969	2.584	1116433	WORD	n/a	wordpools/wordpool_EN.txt	STOOL	10	8	[0, 0, 0]	n/a	FR1	0	R1075J
867.553	2.551	1119017	WORD	n/a	wordpools/wordpool_EN.txt	CALF	11	8	[0, 0, 0]	n/a	FR1	0	R1075J
870.104	1.616	1121568	WORD	n/a	wordpools/wordpool_EN.txt	WEB	12	8	[0, 0, 0]	n/a	FR1	0	R1075J
871.72	0.001	1123184	DISTRACT_START	n/a	n/a	n/a	-999	8	[0, 0, 0]	n/a	FR1	0	R1075J
871.721	0.016	1123185	START	n/a	n/a	n/a	-999	8	[-999, -999, -999]	n/a	FR1	0	R1075J
871.737	4.25	1123201	PROB	4.25	n/a	n/a	-999	8	[6, 7, 9]	22	FR1	0	R1075J
875.987	2.851	1127451	PROB	2.851	n/a	n/a	-999	8	[7, 9, 1]	17	FR1	0	R1075J
878.838	2.717	1130302	PROB	2.717	n/a	n/a	-999	8	[9, 5, 4]	18	FR1	0	R1075J
881.555	2.167	1133019	PROB	2.167	n/a	n/a	-999	8	[5, 3, 3]	11	FR1	0	R1075J
883.722	2.501	1135186	PROB	2.501	n/a	n/a	-999	8	[1, 1, 8]	10	FR1	0	R1075J
886.223	2.599	1137687	PROB	2.599	n/a	n/a	-999	8	[6, 2, 5]	13	FR1	0	R1075J
888.822	3.793	1140286	PROB	3.793	n/a	n/a	-999	8	[7, 5, 1]	13	FR1	0	R1075J
892.615	0.008	1144079	STOP	n/a	n/a	n/a	-999	8	[-999, -999, -999]	n/a	FR1	0	R1075J
892.623	1.217	1144087	DISTRACT_END	n/a	n/a	n/a	-999	8	[0, 0, 0]	n/a	FR1	0	R1075J
893.84	1.825	1145304	REC_START	n/a	n/a	n/a	-999	8	[0, 0, 0]	n/a	FR1	0	R1075J
895.665	0.498	1147129	REC_WORD	0.498	n/a	MILK	6	8	[0, 0, 0]	n/a	FR1	0	R1075J
896.163	0.334	1147627	REC_WORD	0.334	n/a	GOAT	5	8	[0, 0, 0]	n/a	FR1	0	R1075J
896.497	2.663	1147961	REC_WORD	2.663	n/a	SNAKE	2	8	[0, 0, 0]	n/a	FR1	0	R1075J
899.16	17.814	1150624	REC_WORD	17.814	n/a	STOOL	10	8	[0, 0, 0]	n/a	FR1	0	R1075J
916.974	1.526	1168438	REC_WORD	1.526	n/a	MOOSE	4	8	[0, 0, 0]	n/a	FR1	0	R1075J
918.5	5.355	1169964	REC_WORD	5.355	n/a	CALF	11	8	[0, 0, 0]	n/a	FR1	0	R1075J
923.855	2.373	1175319	REC_END	n/a	n/a	n/a	-999	8	[0, 0, 0]	n/a	FR1	0	R1075J
926.228	0.0	1177692	TRIAL	n/a	n/a	n/a	-999	9	[0, 0, 0]	n/a	FR1	0	R1075J
926.228	10.428	1177692	COUNTDOWN_START	n/a	n/a	n/a	-999	9	[0, 0, 0]	n/a	FR1	0	R1075J
936.656	0.006	1188120	COUNTDOWN_END	n/a	n/a	n/a	-999	9	[0, 0, 0]	n/a	FR1	0	R1075J
936.662	2.601	1188126	ORIENT	n/a	n/a	n/a	-999	9	[0, 0, 0]	n/a	FR1	0	R1075J
939.263	2.499	1190727	WORD	n/a	wordpools/wordpool_EN.txt	HOSE	1	9	[0, 0, 0]	n/a	FR1	0	R1075J
941.762	2.618	1193226	WORD	n/a	wordpools/wordpool_EN.txt	TRASH	2	9	[0, 0, 0]	n/a	FR1	0	R1075J
944.38	2.583	1195844	WORD	n/a	wordpools/wordpool_EN.txt	TRUCK	3	9	[0, 0, 0]	n/a	FR1	0	R1075J
946.963	2.535	1198427	WORD	n/a	wordpools/wordpool_EN.txt	SOUP	4	9	[0, 0, 0]	n/a	FR1	0	R1075J
949.498	2.633	1200962	WORD	n/a	wordpools/wordpool_EN.txt	DRUM	5	9	[0, 0, 0]	n/a	FR1	0	R1075J
952.131	2.616	1203595	WORD	n/a	wordpools/wordpool_EN.txt	SUN	6	9	[0, 0, 0]	n/a	FR1	0	R1075J
954.747	2.502	1206211	WORD	n/a	wordpools/wordpool_EN.txt	PLATE	7	9	[0, 0, 0]	n/a	FR1	0	R1075J
957.249	2.482	1208713	WORD	n/a	wordpools/wordpool_EN.txt	PIG	8	9	[0, 0, 0]	n/a	FR1	0	R1075J
959.731	2.368	1211195	WORD	n/a	wordpools/wordpool_EN.txt	SALT	9	9	[0, 0, 0]	n/a	FR1	0	R1075J
962.099	2.616	1213563	WORD	n/a	wordpools/wordpool_EN.txt	STONE	10	9	[0, 0, 0]	n/a	FR1	0	R1075J
964.715	2.568	1216179	WORD	n/a	wordpools/wordpool_EN.txt	GRAPE	11	9	[0, 0, 0]	n/a	FR1	0	R1075J
967.283	1.616	1218747	WORD	n/a	wordpools/wordpool_EN.txt	ELF	12	9	[0, 0, 0]	n/a	FR1	0	R1075J
968.899	0.001	1220363	DISTRACT_START	n/a	n/a	n/a	-999	9	[0, 0, 0]	n/a	FR1	0	R1075J
968.9	0.016	1220364	START	n/a	n/a	n/a	-999	9	[-999, -999, -999]	n/a	FR1	0	R1075J
968.916	3.65	1220380	PROB	3.65	n/a	n/a	-999	9	[2, 5, 4]	11	FR1	0	R1075J
972.566	2.652	1224030	PROB	2.652	n/a	n/a	-999	9	[3, 8, 1]	12	FR1	0	R1075J
975.218	3.167	1226682	PROB	3.167	n/a	n/a	-999	9	[7, 6, 1]	14	FR1	0	R1075J
978.385	2.299	1229849	PROB	2.299	n/a	n/a	-999	9	[3, 6, 4]	13	FR1	0	R1075J
980.684	3.551	1232148	PROB	3.551	n/a	n/a	-999	9	[2, 6, 7]	15	FR1	0	R1075J
984.235	2.533	1235699	PROB	2.533	n/a	n/a	-999	9	[4, 1, 1]	6	FR1	0	R1075J
986.768	4.003	1238232	PROB	4.003	n/a	n/a	-999	9	[3, 2, 6]	11	FR1	0	R1075J
990.771	0.014	1242235	STOP	n/a	n/a	n/a	-999	9	[-999, -999, -999]	n/a	FR1	0	R1075J
990.785	1.134	1242249	DISTRACT_END	n/a	n/a	n/a	-999	9	[0, 0, 0]	n/a	FR1	0	R1075J
991.919	27.276	1243383	REC_START	n/a	n/a	n/a	-999	9	[0, 0, 0]	n/a	FR1	0	R1075J
1019.195	2.737	1270659	REC_WORD_VV	2.737	n/a	<>	-999	9	[0, 0, 0]	n/a	FR1	0	R1075J
1021.932	5.758	1273396	REC_END	n/a	n/a	n/a	-999	9	[0, 0, 0]	n/a	FR1	0	R1075J
1027.69	0.0	1279154	TRIAL	n/a	n/a	n/a	-999	10	[0, 0, 0]	n/a	FR1	0	R1075J
1027.69	10.428	1279154	COUNTDOWN_START	n/a	n/a	n/a	-999	10	[0, 0, 0]	n/a	FR1	0	R1075J
1038.118	0.008	1289582	COUNTDOWN_END	n/a	n/a	n/a	-999	10	[0, 0, 0]	n/a	FR1	0	R1075J
1038.126	2.432	1289590	ORIENT	n/a	n/a	n/a	-999	10	[0, 0, 0]	n/a	FR1	0	R1075J
1040.558	2.45	1292022	WORD	n/a	wordpools/wordpool_EN.txt	THREAD	1	10	[0, 0, 0]	n/a	FR1	0	R1075J
1043.008	2.617	1294472	WORD	n/a	wordpools/wordpool_EN.txt	PIE	2	10	[0, 0, 0]	n/a	FR1	0	R1075J
1045.625	2.602	1297089	WORD	n/a	wordpools/wordpool_EN.txt	WALL	3	10	[0, 0, 0]	n/a	FR1	0	R1075J
1048.227	2.516	1299691	WORD	n/a	wordpools/wordpool_EN.txt	SUIT	4	10	[0, 0, 0]	n/a	FR1	0	R1075J
1050.743	2.568	1302207	WORD	n/a	wordpools/wordpool_EN.txt	STEAK	5	10	[0, 0, 0]	n/a	FR1	0	R1075J
1053.311	2.383	1304775	WORD	n/a	wordpools/wordpool_EN.txt	VASE	6	10	[0, 0, 0]	n/a	FR1	0	R1075J
1055.694	2.584	1307158	WORD	n/a	wordpools/wordpool_EN.txt	SLUSH	7	10	[0, 0, 0]	n/a	FR1	0	R1075J
1058.278	2.583	1309742	WORD	n/a	wordpools/wordpool_EN.txt	TOAST	8	10	[0, 0, 0]	n/a	FR1	0	R1075J
1060.861	2.618	1312325	WORD	n/a	wordpools/wordpool_EN.txt	PHONE	9	10	[0, 0, 0]	n/a	FR1	0	R1075J
1063.479	2.449	1314943	WORD	n/a	wordpools/wordpool_EN.txt	BAND	10	10	[0, 0, 0]	n/a	FR1	0	R1075J
1065.928	2.368	1317392	WORD	n/a	wordpools/wordpool_EN.txt	MAIL	11	10	[0, 0, 0]	n/a	FR1	0	R1075J
1068.296	1.616	1319760	WORD	n/a	wordpools/wordpool_EN.txt	SHRIMP	12	10	[0, 0, 0]	n/a	FR1	0	R1075J
1069.912	0.001	1321376	DISTRACT_START	n/a	n/a	n/a	-999	10	[0, 0, 0]	n/a	FR1	0	R1075J
1069.913	0.016	1321377	START	n/a	n/a	n/a	-999	10	[-999, -999, -999]	n/a	FR1	0	R1075J
1069.929	4.05	1321393	PROB	4.05	n/a	n/a	-999	10	[7, 3, 9]	19	FR1	0	R1075J
1073.979	8.018	1325443	PROB	8.018	n/a	n/a	-999	10	[7, 7, 5]	19	FR1	0	R1075J
1081.997	2.717	1333461	PROB	2.717	n/a	n/a	-999	10	[3, 1, 3]	7	FR1	0	R1075J
1084.714	3.585	1336178	PROB	3.585	n/a	n/a	-999	10	[7, 5, 2]	14	FR1	0	R1075J
1088.299	3.773	1339763	PROB	3.773	n/a	n/a	-999	10	[2, 9, 4]	15	FR1	0	R1075J
1092.072	0.01	1343536	STOP	n/a	n/a	n/a	-999	10	[-999, -999, -999]	n/a	FR1	0	R1075J
1092.082	1.068	1343546	DISTRACT_END	n/a	n/a	n/a	-999	10	[0, 0, 0]	n/a	FR1	0	R1075J
1093.15	1.775	1344614	REC_START	n/a	n/a	n/a	-999	10	[0, 0, 0]	n/a	FR1	0	R1075J
1094.925	3.206	1346389	REC_WORD	3.206	n/a	MAIL	11	10	[0, 0, 0]	n/a	FR1	0	R1075J
1098.131	2.403	1349595	REC_WORD	2.403	n/a	THREAD	1	10	[0, 0, 0]	n/a	FR1	0	R1075J
1100.534	22.627	1351998	REC_WORD_VV	22.627	n/a	<>	-999	10	[0, 0, 0]	n/a	FR1	0	R1075J
1123.161	3.276	1374625	REC_END	n/a	n/a	n/a	-999	10	[0, 0, 0]	n/a	FR1	0	R1075J
1126.437	0.0	1377901	TRIAL	n/a	n/a	n/a	-999	11	[0, 0, 0]	n/a	FR1	0	R1075J
1126.437	10.428	1377901	COUNTDOWN_START	n/a	n/a	n/a	-999	11	[0, 0, 0]	n/a	FR1	0	R1075J
1136.865	0.006	1388329	COUNTDOWN_END	n/a	n/a	n/a	-999	11	[0, 0, 0]	n/a	FR1	0	R1075J
1136.871	2.501	1388335	ORIENT	n/a	n/a	n/a	-999	11	[0, 0, 0]	n/a	FR1	0	R1075J
1139.372	2.566	1390836	WORD	n/a	wordpools/wordpool_EN.txt	SQUARE	1	11	[0, 0, 0]	n/a	FR1	0	R1075J
1141.938	2.551	1393402	WORD	n/a	wordpools/wordpool_EN.txt	BRICK	2	11	[0, 0, 0]	n/a	FR1	0	R1075J
1144.489	2.516	1395953	WORD	n/a	wordpools/wordpool_EN.txt	SMOKE	3	11	[0, 0, 0]	n/a	FR1	0	R1075J
1147.005	2.617	1398469	WORD	n/a	wordpools/wordpool_EN.txt	NAIL	4	11	[0, 0, 0]	n/a	FR1	0	R1075J
1149.622	2.601	1401086	WORD	n/a	wordpools/wordpool_EN.txt	PIN	5	11	[0, 0, 0]	n/a	FR1	0	R1075J
1152.223	2.383	1403687	WORD	n/a	wordpools/wordpool_EN.txt	VEST	6	11	[0, 0, 0]	n/a	FR1	0	R1075J
1154.606	2.4	1406069	WORD	n/a	wordpools/wordpool_EN.txt	WHALE	7	11	[0, 0, 0]	n/a	FR1	0	R1075J
1157.006	2.452	1408469	WORD	n/a	wordpools/wordpool_EN.txt	SNOW	8	11	[0, 0, 0]	n/a	FR1	0	R1075J
1159.458	2.567	1410921	WORD	n/a	wordpools/wordpool_EN.txt	FLAME	9	11	[0, 0, 0]	n/a	FR1	0	R1075J
1162.025	2.5	1413488	WORD	n/a	wordpools/wordpool_EN.txt	DOCK	10	11	[0, 0, 0]	n/a	FR1	0	R1075J
1164.525	2.5	1415988	WORD	n/a	wordpools/wordpool_EN.txt	STORM	11	11	[0, 0, 0]	n/a	FR1	0	R1075J
1167.025	1.616	1418488	WORD	n/a	wordpools/wordpool_EN.txt	LAKE	12	11	[0, 0, 0]	n/a	FR1	0	R1075J
1168.641	0.001	1420104	DISTRACT_START	n/a	n/a	n/a	-999	11	[0, 0, 0]	n/a	FR1	0	R1075J
1168.642	0.016	1420105	START	n/a	n/a	n/a	-999	11	[-999, -999, -999]	n/a	FR1	0	R1075J
1168.658	4.468	1420121	PROB	4.468	n/a	n/a	-999	11	[1, 2, 6]	9	FR1	0	R1075J
1173.126	4.334	1424589	PROB	4.334	n/a	n/a	-999	11	[6, 3, 9]	18	FR1	0	R1075J
1177.46	2.516	1428923	PROB	2.516	n/a	n/a	-999	11	[1, 7, 1]	9	FR1	0	R1075J
1179.976	3.451	1431439	PROB	3.451	n/a	n/a	-999	11	[2, 9, 8]	19	FR1	0	R1075J
1183.427	3.051	1434890	PROB	3.051	n/a	n/a	-999	11	[6, 3, 1]	10	FR1	0	R1075J
1186.478	4.109	1437941	PROB	4.109	n/a	n/a	-999	11	[9, 8, 8]	25	FR1	0	R1075J
1190.587	0.007	1442050	STOP	n/a	n/a	n/a	-999	11	[-999, -999, -999]	n/a	FR1	0	R1075J
1190.594	1.217	1442057	DISTRACT_END	n/a	n/a	n/a	-999	11	[0, 0, 0]	n/a	FR1	0	R1075J
1191.811	14.324	1443274	REC_START	n/a	n/a	n/a	-999	11	[0, 0, 0]	n/a	FR1	0	R1075J
1206.135	2.287	1457598	REC_WORD	2.287	n/a	VEST	6	11	[0, 0, 0]	n/a	FR1	0	R1075J
1208.422	5.988	1459885	REC_WORD	5.988	n/a	TIN	-999	11	[0, 0, 0]	n/a	FR1	0	R1075J
1214.41	1.056	1465873	REC_WORD_VV	1.056	n/a	<>	-999	11	[0, 0, 0]	n/a	FR1	0	R1075J
1215.466	3.893	1466929	REC_WORD	3.893	n/a	STORM	11	11	[0, 0, 0]	n/a	FR1	0	R1075J
1219.359	2.464	1470822	REC_WORD	2.464	n/a	WHALE	7	11	[0, 0, 0]	n/a	FR1	0	R1075J
1221.823	4.293	1473286	REC_END	n/a	n/a	n/a	-999	11	[0, 0, 0]	n/a	FR1	0	R1075J
1226.116	0.0	1477579	TRIAL	n/a	n/a	n/a	-999	12	[0, 0, 0]	n/a	FR1	0	R1075J
1226.116	10.428	1477579	COUNTDOWN_START	n/a	n/a	n/a	-999	12	[0, 0, 0]	n/a	FR1	0	R1075J
1236.544	0.006	1488007	COUNTDOWN_END	n/a	n/a	n/a	-999	12	[0, 0, 0]	n/a	FR1	0	R1075J
1236.55	2.601	1488013	ORIENT	n/a	n/a	n/a	-999	12	[0, 0, 0]	n/a	FR1	0	R1075J
1239.151	2.516	1490614	WORD	n/a	wordpools/wordpool_EN.txt	SHEET	1	12	[0, 0, 0]	n/a	FR1	0	R1075J
1241.667	2.385	1493130	WORD	n/a	wordpools/wordpool_EN.txt	NET	2	12	[0, 0, 0]	n/a	FR1	0	R1075J
1244.052	2.417	1495515	WORD	n/a	wordpools/wordpool_EN.txt	WORLD	3	12	[0, 0, 0]	n/a	FR1	0	R1075J
1246.469	2.399	1497932	WORD	n/a	wordpools/wordpool_EN.txt	LIP	4	12	[0, 0, 0]	n/a	FR1	0	R1075J
1248.868	2.368	1500331	WORD	n/a	wordpools/wordpool_EN.txt	SCHOOL	5	12	[0, 0, 0]	n/a	FR1	0	R1075J
1251.236	2.599	1502699	WORD	n/a	wordpools/wordpool_EN.txt	WING	6	12	[0, 0, 0]	n/a	FR1	0	R1075J
1253.835	2.402	1505298	WORD	n/a	wordpools/wordpool_EN.txt	SWAMP	7	12	[0, 0, 0]	n/a	FR1	0	R1075J
1256.237	2.532	1507700	WORD	n/a	wordpools/wordpool_EN.txt	BAT	8	12	[0, 0, 0]	n/a	FR1	0	R1075J
1258.769	2.518	1510232	WORD	n/a	wordpools/wordpool_EN.txt	MAZE	9	12	[0, 0, 0]	n/a	FR1	0	R1075J
1261.287	2.549	1512750	WORD	n/a	wordpools/wordpool_EN.txt	TANK	10	12	[0, 0, 0]	n/a	FR1	0	R1075J
1263.836	2.452	1515299	WORD	n/a	wordpools/wordpool_EN.txt	BADGE	11	12	[0, 0, 0]	n/a	FR1	0	R1075J
1266.288	1.616	1517751	WORD	n/a	wordpools/wordpool_EN.txt	JET	12	12	[0, 0, 0]	n/a	FR1	0	R1075J
1267.904	0.001	1519367	DISTRACT_START	n/a	n/a	n/a	-999	12	[0, 0, 0]	n/a	FR1	0	R1075J
1267.905	0.016	1519368	START	n/a	n/a	n/a	-999	12	[-999, -999, -999]	n/a	FR1	0	R1075J
1267.921	3.134	1519384	PROB	3.134	n/a	n/a	-999	12	[6, 8, 8]	22	FR1	0	R1075J
1271.055	2.45	1522518	PROB	2.45	n/a	n/a	-999	12	[1, 5, 6]	12	FR1	0	R1075J
1273.505	2.1	1524968	PROB	2.1	n/a	n/a	-999	12	[6, 3, 2]	11	FR1	0	R1075J
1275.605	3.034	1527068	PROB	3.034	n/a	n/a	-999	12	[2, 1, 4]	7	FR1	0	R1075J
1278.639	4.0	1530102	PROB	4.0	n/a	n/a	-999	12	[3, 7, 6]	16	FR1	0	R1075J
1282.639	2.501	1534102	PROB	2.501	n/a	n/a	-999	12	[1, 9, 4]	14	FR1	0	R1075J
1285.14	5.332	1536603	PROB	5.332	n/a	n/a	-999	12	[2, 5, 3]	10	FR1	0	R1075J
1290.472	0.019	1541935	STOP	n/a	n/a	n/a	-999	12	[-999, -999, -999]	n/a	FR1	0	R1075J
1290.491	1.067	1541954	DISTRACT_END	n/a	n/a	n/a	-999	12	[0, 0, 0]	n/a	FR1	0	R1075J
1291.558	3.069	1543021	REC_START	n/a	n/a	n/a	-999	12	[0, 0, 0]	n/a	FR1	0	R1075J
1294.627	0.783	1546090	REC_WORD	0.783	n/a	PLANE	-999	12	[0, 0, 0]	n/a	FR1	0	R1075J
1295.41	1.531	1546873	REC_WORD	1.531	n/a	TANK	10	12	[0, 0, 0]	n/a	FR1	0	R1075J
1296.941	1.186	1548404	REC_WORD	1.186	n/a	MAZE	9	12	[0, 0, 0]	n/a	FR1	0	R1075J
1298.127	7.477	1549590	REC_WORD	7.477	n/a	SWAMP	7	12	[0, 0, 0]	n/a	FR1	0	R1075J
1305.604	0.769	1557067	REC_WORD	0.769	n/a	NET	2	12	[0, 0, 0]	n/a	FR1	0	R1075J
1306.373	2.453	1557836	REC_WORD	2.453	n/a	WORLD	3	12	[0, 0, 0]	n/a	FR1	0	R1075J
1308.826	2.978	1560289	REC_WORD	2.978	n/a	LIP	4	12	[0, 0, 0]	n/a	FR1	0	R1075J
1311.804	1.324	1563267	REC_WORD_VV	1.324	n/a	<>	-999	12	[0, 0, 0]	n/a	FR1	0	R1075J
1313.128	8.441	1564591	REC_WORD_VV	8.441	n/a	<>	-999	12	[0, 0, 0]	n/a	FR1	0	R1075J
1321.569	3.325	1573032	REC_END	n/a	n/a	n/a	-999	12	[0, 0, 0]	n/a	FR1	0	R1075J
1324.894	0.001	1576357	COUNTDOWN_START	n/a	n/a	n/a	-999	13	[0, 0, 0]	n/a	FR1	0	R1075J
1324.895	10.427	1576358	TRIAL	n/a	n/a	n/a	-999	13	[0, 0, 0]	n/a	FR1	0	R1075J
1335.322	0.008	1586785	COUNTDOWN_END	n/a	n/a	n/a	-999	13	[0, 0, 0]	n/a	FR1	0	R1075J
1335.33	2.449	1586793	ORIENT	n/a	n/a	n/a	-999	13	[0, 0, 0]	n/a	FR1	0	R1075J
1337.779	2.585	1589242	WORD	n/a	wordpools/wordpool_EN.txt	CROW	1	13	[0, 0, 0]	n/a	FR1	0	R1075J
1340.364	2.416	1591827	WORD	n/a	wordpools/wordpool_EN.txt	ROOT	2	13	[0, 0, 0]	n/a	FR1	0	R1075J
1342.78	2.551	1594243	WORD	n/a	wordpools/wordpool_EN.txt	PLANT	3	13	[0, 0, 0]	n/a	FR1	0	R1075J
1345.331	2.383	1596794	WORD	n/a	wordpools/wordpool_EN.txt	CHIEF	4	13	[0, 0, 0]	n/a	FR1	0	R1075J
1347.714	2.551	1599177	WORD	n/a	wordpools/wordpool_EN.txt	TEETH	5	13	[0, 0, 0]	n/a	FR1	0	R1075J
1350.265	2.383	1601728	WORD	n/a	wordpools/wordpool_EN.txt	SHIELD	6	13	[0, 0, 0]	n/a	FR1	0	R1075J
1352.648	2.551	1604111	WORD	n/a	wordpools/wordpool_EN.txt	CAVE	7	13	[0, 0, 0]	n/a	FR1	0	R1075J
1355.199	2.6	1606662	WORD	n/a	wordpools/wordpool_EN.txt	WEED	8	13	[0, 0, 0]	n/a	FR1	0	R1075J
1357.799	2.401	1609262	WORD	n/a	wordpools/wordpool_EN.txt	BRUSH	9	13	[0, 0, 0]	n/a	FR1	0	R1075J
1360.2	2.416	1611663	WORD	n/a	wordpools/wordpool_EN.txt	PASTE	10	13	[0, 0, 0]	n/a	FR1	0	R1075J
1362.616	2.584	1614079	WORD	n/a	wordpools/wordpool_EN.txt	SEAL	11	13	[0, 0, 0]	n/a	FR1	0	R1075J
1365.2	1.616	1616663	WORD	n/a	wordpools/wordpool_EN.txt	FOAM	12	13	[0, 0, 0]	n/a	FR1	0	R1075J
1366.816	0.001	1618279	DISTRACT_START	n/a	n/a	n/a	-999	13	[0, 0, 0]	n/a	FR1	0	R1075J
1366.817	0.016	1618280	START	n/a	n/a	n/a	-999	13	[-999, -999, -999]	n/a	FR1	0	R1075J
1366.833	4.452	1618296	PROB	4.452	n/a	n/a	-999	13	[8, 7, 1]	16	FR1	0	R1075J
1371.285	3.85	1622748	PROB	3.85	n/a	n/a	-999	13	[4, 7, 4]	15	FR1	0	R1075J
1375.135	3.466	1626598	PROB	3.466	n/a	n/a	-999	13	[8, 4, 7]	19	FR1	0	R1075J
1378.601	3.518	1630064	PROB	3.518	n/a	n/a	-999	13	[8, 2, 5]	15	FR1	0	R1075J
1382.119	3.334	1633582	PROB	3.334	n/a	n/a	-999	13	[6, 8, 2]	16	FR1	0	R1075J
1385.453	3.526	1636916	PROB	3.526	n/a	n/a	-999	13	[8, 3, 2]	13	FR1	0	R1075J
1388.979	0.007	1640442	STOP	n/a	n/a	n/a	-999	13	[-999, -999, -999]	n/a	FR1	0	R1075J
1388.986	1.102	1640449	DISTRACT_END	n/a	n/a	n/a	-999	13	[0, 0, 0]	n/a	FR1	0	R1075J
1390.088	9.081	1641551	REC_START	n/a	n/a	n/a	-999	13	[0, 0, 0]	n/a	FR1	0	R1075J
1399.169	1.017	1650632	REC_WORD	1.017	n/a	SHEET	-999	13	[0, 0, 0]	n/a	FR1	0	R1075J
1400.186	4.03	1651649	REC_WORD	4.03	n/a	FOAM	12	13	[0, 0, 0]	n/a	FR1	0	R1075J
1404.216	0.693	1655679	REC_WORD	0.693	n/a	TEETH	5	13	[0, 0, 0]	n/a	FR1	0	R1075J
1404.909	2.314	1656372	REC_WORD	2.314	n/a	SEAL	11	13	[0, 0, 0]	n/a	FR1	0	R1075J
1407.223	12.876	1658686	REC_WORD	12.876	n/a	PASTE	10	13	[0, 0, 0]	n/a	FR1	0	R1075J
1420.099	5.426	1671562	REC_END	n/a	n/a	n/a	-999	13	[0, 0, 0]	n/a	FR1	0	R1075J
1425.525	0.0	1676988	TRIAL	n/a	n/a	n/a	-999	14	[0, 0, 0]	n/a	FR1	0	R1075J
1425.525	10.428	1676988	COUNTDOWN_START	n/a	n/a	n/a	-999	14	[0, 0, 0]	n/a	FR1	0	R1075J
1435.953	0.005	1687416	COUNTDOWN_END	n/a	n/a	n/a	-999	14	[0, 0, 0]	n/a	FR1	0	R1075J
1435.958	2.485	1687421	ORIENT	n/a	n/a	n/a	-999	14	[0, 0, 0]	n/a	FR1	0	R1075J
1438.443	2.601	1689906	WORD	n/a	wordpools/wordpool_EN.txt	JUICE	1	14	[0, 0, 0]	n/a	FR1	0	R1075J
1441.044	2.582	1692507	WORD	n/a	wordpools/wordpool_EN.txt	DIME	2	14	[0, 0, 0]	n/a	FR1	0	R1075J
1443.626	2.618	1695089	WORD	n/a	wordpools/wordpool_EN.txt	BLUSH	3	14	[0, 0, 0]	n/a	FR1	0	R1075J
1446.244	2.433	1697707	WORD	n/a	wordpools/wordpool_EN.txt	DITCH	4	14	[0, 0, 0]	n/a	FR1	0	R1075J
1448.677	2.518	1700140	WORD	n/a	wordpools/wordpool_EN.txt	HOLE	5	14	[0, 0, 0]	n/a	FR1	0	R1075J
1451.195	2.599	1702658	WORD	n/a	wordpools/wordpool_EN.txt	STOVE	6	14	[0, 0, 0]	n/a	FR1	0	R1075J
1453.794	2.418	1705257	WORD	n/a	wordpools/wordpool_EN.txt	CAKE	7	14	[0, 0, 0]	n/a	FR1	0	R1075J
1456.212	2.483	1707675	WORD	n/a	wordpools/wordpool_EN.txt	BATH	8	14	[0, 0, 0]	n/a	FR1	0	R1075J
1458.695	2.451	1710158	WORD	n/a	wordpools/wordpool_EN.txt	GLOVE	9	14	[0, 0, 0]	n/a	FR1	0	R1075J
1461.146	2.599	1712609	WORD	n/a	wordpools/wordpool_EN.txt	SOAP	10	14	[0, 0, 0]	n/a	FR1	0	R1075J
1463.745	2.502	1715208	WORD	n/a	wordpools/wordpool_EN.txt	SOCK	11	14	[0, 0, 0]	n/a	FR1	0	R1075J
1466.247	1.616	1717710	WORD	n/a	wordpools/wordpool_EN.txt	CHALK	12	14	[0, 0, 0]	n/a	FR1	0	R1075J
1467.863	0.001	1719326	DISTRACT_START	n/a	n/a	n/a	-999	14	[0, 0, 0]	n/a	FR1	0	R1075J
1467.864	0.015	1719327	START	n/a	n/a	n/a	-999	14	[-999, -999, -999]	n/a	FR1	0	R1075J
1467.879	3.917	1719342	PROB	3.917	n/a	n/a	-999	14	[9, 9, 6]	24	FR1	0	R1075J
1471.796	3.067	1723259	PROB	3.067	n/a	n/a	-999	14	[8, 7, 9]	14	FR1	0	R1075J
1474.863	4.235	1726326	PROB	4.235	n/a	n/a	-999	14	[4, 7, 7]	18	FR1	0	R1075J
1479.098	3.217	1730561	PROB	3.217	n/a	n/a	-999	14	[4, 9, 8]	21	FR1	0	R1075J
1482.315	3.65	1733778	PROB	3.65	n/a	n/a	-999	14	[4, 9, 2]	15	FR1	0	R1075J
1485.965	2.306	1737428	PROB	2.306	n/a	n/a	-999	14	[1, 8, 1]	10	FR1	0	R1075J
1488.271	0.012	1739734	STOP	n/a	n/a	n/a	-999	14	[-999, -999, -999]	n/a	FR1	0	R1075J
1488.283	1.184	1739746	DISTRACT_END	n/a	n/a	n/a	-999	14	[0, 0, 0]	n/a	FR1	0	R1075J
1489.467	3.136	1740930	REC_START	n/a	n/a	n/a	-999	14	[0, 0, 0]	n/a	FR1	0	R1075J
1492.603	8.539	1744066	REC_WORD	8.539	n/a	DIME	2	14	[0, 0, 0]	n/a	FR1	0	R1075J
1501.142	1.492	1752605	REC_WORD	1.492	n/a	SOAP	10	14	[0, 0, 0]	n/a	FR1	0	R1075J
1502.634	9.021	1754097	REC_WORD	9.021	n/a	TUB	-999	14	[0, 0, 0]	n/a	FR1	0	R1075J
1511.655	7.823	1763118	REC_WORD	7.823	n/a	CHALK	12	14	[0, 0, 0]	n/a	FR1	0	R1075J
1519.478	3.175	1770941	REC_END	n/a	n/a	n/a	-999	14	[0, 0, 0]	n/a	FR1	0	R1075J
1522.653	0.0	1774116	TRIAL	n/a	n/a	n/a	-999	15	[0, 0, 0]	n/a	FR1	0	R1075J
1522.653	10.428	1774116	COUNTDOWN_START	n/a	n/a	n/a	-999	15	[0, 0, 0]	n/a	FR1	0	R1075J
1533.081	0.007	1784544	COUNTDOWN_END	n/a	n/a	n/a	-999	15	[0, 0, 0]	n/a	FR1	0	R1075J
1533.088	2.533	1784551	ORIENT	n/a	n/a	n/a	-999	15	[0, 0, 0]	n/a	FR1	0	R1075J
1535.621	2.501	1787084	WORD	n/a	wordpools/wordpool_EN.txt	DOG	1	15	[0, 0, 0]	n/a	FR1	0	R1075J
1538.122	2.6	1789585	WORD	n/a	wordpools/wordpool_EN.txt	PEAR	2	15	[0, 0, 0]	n/a	FR1	0	R1075J
1540.722	2.451	1792185	WORD	n/a	wordpools/wordpool_EN.txt	BREAD	3	15	[0, 0, 0]	n/a	FR1	0	R1075J
1543.173	2.516	1794636	WORD	n/a	wordpools/wordpool_EN.txt	TAIL	4	15	[0, 0, 0]	n/a	FR1	0	R1075J
1545.689	2.601	1797152	WORD	n/a	wordpools/wordpool_EN.txt	BRANCH	5	15	[0, 0, 0]	n/a	FR1	0	R1075J
1548.29	2.467	1799753	WORD	n/a	wordpools/wordpool_EN.txt	BEAN	6	15	[0, 0, 0]	n/a	FR1	0	R1075J
1550.757	2.4	1802220	WORD	n/a	wordpools/wordpool_EN.txt	BLOOM	7	15	[0, 0, 0]	n/a	FR1	0	R1075J
1553.157	2.583	1804620	WORD	n/a	wordpools/wordpool_EN.txt	FOOD	8	15	[0, 0, 0]	n/a	FR1	0	R1075J
1555.74	2.552	1807203	WORD	n/a	wordpools/wordpool_EN.txt	LAWN	9	15	[0, 0, 0]	n/a	FR1	0	R1075J
1558.292	2.432	1809755	WORD	n/a	wordpools/wordpool_EN.txt	RICE	10	15	[0, 0, 0]	n/a	FR1	0	R1075J
1560.724	2.402	1812187	WORD	n/a	wordpools/wordpool_EN.txt	EEL	11	15	[0, 0, 0]	n/a	FR1	0	R1075J
1563.126	1.615	1814589	WORD	n/a	wordpools/wordpool_EN.txt	MOTH	12	15	[0, 0, 0]	n/a	FR1	0	R1075J
1564.741	0.001	1816204	DISTRACT_START	n/a	n/a	n/a	-999	15	[0, 0, 0]	n/a	FR1	0	R1075J
1564.742	0.016	1816205	START	n/a	n/a	n/a	-999	15	[-999, -999, -999]	n/a	FR1	0	R1075J
1564.758	3.217	1816221	PROB	3.217	n/a	n/a	-999	15	[8, 2, 1]	11	FR1	0	R1075J
1567.975	5.017	1819438	PROB	5.017	n/a	n/a	-999	15	[7, 9, 6]	22	FR1	0	R1075J
1572.992	2.618	1824455	PROB	2.618	n/a	n/a	-999	15	[2, 2, 5]	9	FR1	0	R1075J
1575.61	2.818	1827073	PROB	2.818	n/a	n/a	-999	15	[6, 1, 4]	11	FR1	0	R1075J
1578.428	2.399	1829891	PROB	2.399	n/a	n/a	-999	15	[1, 6, 7]	14	FR1	0	R1075J
1580.827	3.534	1832290	PROB	3.534	n/a	n/a	-999	15	[6, 8, 4]	18	FR1	0	R1075J
1584.361	3.337	1835824	PROB	3.337	n/a	n/a	-999	15	[7, 7, 4]	18	FR1	0	R1075J
1587.698	0.013	1839161	STOP	n/a	n/a	n/a	-999	15	[-999, -999, -999]	n/a	FR1	0	R1075J
1587.711	1.118	1839174	DISTRACT_END	n/a	n/a	n/a	-999	15	[0, 0, 0]	n/a	FR1	0	R1075J
1588.829	1.859	1840292	REC_START	n/a	n/a	n/a	-999	15	[0, 0, 0]	n/a	FR1	0	R1075J
1590.688	0.643	1842151	REC_WORD	0.643	n/a	DOG	1	15	[0, 0, 0]	n/a	FR1	0	R1075J
1591.331	1.551	1842794	REC_WORD	1.551	n/a	PEAR	2	15	[0, 0, 0]	n/a	FR1	0	R1075J
1592.882	3.818	1844345	REC_WORD	3.818	n/a	TAIL	4	15	[0, 0, 0]	n/a	FR1	0	R1075J
1596.7	22.14	1848163	REC_WORD	22.14	n/a	BRANCH	5	15	[0, 0, 0]	n/a	FR1	0	R1075J
1618.84	3.959	1870303	REC_END	n/a	n/a	n/a	-999	15	[0, 0, 0]	n/a	FR1	0	R1075J
1622.799	0.0	1874262	COUNTDOWN_START	n/a	n/a	n/a	-999	16	[0, 0, 0]	n/a	FR1	0	R1075J
1622.799	10.428	1874262	TRIAL	n/a	n/a	n/a	-999	16	[0, 0, 0]	n/a	FR1	0	R1075J
1633.227	0.007	1884690	COUNTDOWN_END	n/a	n/a	n/a	-999	16	[0, 0, 0]	n/a	FR1	0	R1075J
1633.234	2.45	1884697	ORIENT	n/a	n/a	n/a	-999	16	[0, 0, 0]	n/a	FR1	0	R1075J
1635.684	2.585	1887147	WORD	n/a	wordpools/wordpool_EN.txt	INK	1	16	[0, 0, 0]	n/a	FR1	0	R1075J
1638.269	2.516	1889732	WORD	n/a	wordpools/wordpool_EN.txt	FENCE	2	16	[0, 0, 0]	n/a	FR1	0	R1075J
1640.785	2.501	1892248	WORD	n/a	wordpools/wordpool_EN.txt	TRAY	3	16	[0, 0, 0]	n/a	FR1	0	R1075J
1643.286	2.482	1894749	WORD	n/a	wordpools/wordpool_EN.txt	STICK	4	16	[0, 0, 0]	n/a	FR1	0	R1075J
1645.768	2.452	1897231	WORD	n/a	wordpools/wordpool_EN.txt	STAIR	5	16	[0, 0, 0]	n/a	FR1	0	R1075J
1648.22	2.399	1899683	WORD	n/a	wordpools/wordpool_EN.txt	SHEEP	6	16	[0, 0, 0]	n/a	FR1	0	R1075J
1650.619	2.435	1902082	WORD	n/a	wordpools/wordpool_EN.txt	MUG	7	16	[0, 0, 0]	n/a	FR1	0	R1075J
1653.054	2.516	1904517	WORD	n/a	wordpools/wordpool_EN.txt	SHARK	8	16	[0, 0, 0]	n/a	FR1	0	R1075J
1655.57	2.518	1907033	WORD	n/a	wordpools/wordpool_EN.txt	ROSE	9	16	[0, 0, 0]	n/a	FR1	0	R1075J
1658.088	2.616	1909551	WORD	n/a	wordpools/wordpool_EN.txt	CANE	10	16	[0, 0, 0]	n/a	FR1	0	R1075J
1660.704	2.551	1912167	WORD	n/a	wordpools/wordpool_EN.txt	BARN	11	16	[0, 0, 0]	n/a	FR1	0	R1075J
1663.255	1.616	1914718	WORD	n/a	wordpools/wordpool_EN.txt	PEN	12	16	[0, 0, 0]	n/a	FR1	0	R1075J
1664.871	0.001	1916334	DISTRACT_START	n/a	n/a	n/a	-999	16	[0, 0, 0]	n/a	FR1	0	R1075J
1664.872	0.015	1916335	START	n/a	n/a	n/a	-999	16	[-999, -999, -999]	n/a	FR1	0	R1075J
1664.887	4.435	1916350	PROB	4.435	n/a	n/a	-999	16	[2, 6, 3]	11	FR1	0	R1075J
1669.322	3.433	1920785	PROB	3.433	n/a	n/a	-999	16	[6, 9, 9]	24	FR1	0	R1075J
1672.755	2.385	1924218	PROB	2.385	n/a	n/a	-999	16	[8, 1, 1]	10	FR1	0	R1075J
1675.14	2.666	1926603	PROB	2.666	n/a	n/a	-999	16	[1, 1, 5]	7	FR1	0	R1075J
1677.806	2.418	1929269	PROB	2.418	n/a	n/a	-999	16	[1, 1, 7]	9	FR1	0	R1075J
1680.224	4.616	1931687	PROB	4.616	n/a	n/a	-999	16	[5, 7, 1]	13	FR1	0	R1075J
1684.84	3.854	1936303	PROB	3.854	n/a	n/a	-999	16	[3, 1, 4]	8	FR1	0	R1075J
1688.694	0.013	1940157	STOP	n/a	n/a	n/a	-999	16	[-999, -999, -999]	n/a	FR1	0	R1075J
1688.707	1.101	1940170	DISTRACT_END	n/a	n/a	n/a	-999	16	[0, 0, 0]	n/a	FR1	0	R1075J
1689.808	3.594	1941271	REC_START	n/a	n/a	n/a	-999	16	[0, 0, 0]	n/a	FR1	0	R1075J
1693.402	0.348	1944865	REC_WORD	0.348	n/a	PEN	12	16	[0, 0, 0]	n/a	FR1	0	R1075J
1693.75	4.869	1945213	REC_WORD	4.869	n/a	INK	1	16	[0, 0, 0]	n/a	FR1	0	R1075J
1698.619	4.839	1950082	REC_WORD	4.839	n/a	FENCE	2	16	[0, 0, 0]	n/a	FR1	0	R1075J
1703.458	16.361	1954921	REC_WORD_VV	16.361	n/a	<>	-999	16	[0, 0, 0]	n/a	FR1	0	R1075J
1719.819	2.51	1971282	REC_END	n/a	n/a	n/a	-999	16	[0, 0, 0]	n/a	FR1	0	R1075J
1722.329	0.0	1973792	TRIAL	n/a	n/a	n/a	-999	17	[0, 0, 0]	n/a	FR1	0	R1075J
1722.329	10.428	1973792	COUNTDOWN_START	n/a	n/a	n/a	-999	17	[0, 0, 0]	n/a	FR1	0	R1075J
1732.757	0.006	1984220	COUNTDOWN_END	n/a	n/a	n/a	-999	17	[0, 0, 0]	n/a	FR1	0	R1075J
1732.763	2.501	1984226	ORIENT	n/a	n/a	n/a	-999	17	[0, 0, 0]	n/a	FR1	0	R1075J
1735.264	2.533	1986727	WORD	n/a	wordpools/wordpool_EN.txt	ROAD	1	17	[0, 0, 0]	n/a	FR1	0	R1075J
1737.797	2.385	1989260	WORD	n/a	wordpools/wordpool_EN.txt	ROOF	2	17	[0, 0, 0]	n/a	FR1	0	R1075J
1740.182	2.515	1991645	WORD	n/a	wordpools/wordpool_EN.txt	PARK	3	17	[0, 0, 0]	n/a	FR1	0	R1075J
1742.697	2.568	1994160	WORD	n/a	wordpools/wordpool_EN.txt	KITE	4	17	[0, 0, 0]	n/a	FR1	0	R1075J
1745.265	2.483	1996728	WORD	n/a	wordpools/wordpool_EN.txt	BOX	5	17	[0, 0, 0]	n/a	FR1	0	R1075J
1747.748	2.468	1999211	WORD	n/a	wordpools/wordpool_EN.txt	FOG	6	17	[0, 0, 0]	n/a	FR1	0	R1075J
1750.216	2.432	2001679	WORD	n/a	wordpools/wordpool_EN.txt	SMILE	7	17	[0, 0, 0]	n/a	FR1	0	R1075J
1752.648	2.602	2004111	WORD	n/a	wordpools/wordpool_EN.txt	VAN	8	17	[0, 0, 0]	n/a	FR1	0	R1075J
1755.25	2.433	2006713	WORD	n/a	wordpools/wordpool_EN.txt	CAR	9	17	[0, 0, 0]	n/a	FR1	0	R1075J
1757.683	2.451	2009146	WORD	n/a	wordpools/wordpool_EN.txt	RUG	10	17	[0, 0, 0]	n/a	FR1	0	R1075J
1760.134	2.599	2011597	WORD	n/a	wordpools/wordpool_EN.txt	CLOWN	11	17	[0, 0, 0]	n/a	FR1	0	R1075J
1762.733	1.601	2014196	WORD	n/a	wordpools/wordpool_EN.txt	LAMP	12	17	[0, 0, 0]	n/a	FR1	0	R1075J
1764.334	0.001	2015797	DISTRACT_START	n/a	n/a	n/a	-999	17	[0, 0, 0]	n/a	FR1	0	R1075J
1764.335	0.016	2015798	START	n/a	n/a	n/a	-999	17	[-999, -999, -999]	n/a	FR1	0	R1075J
1764.351	3.266	2015814	PROB	3.266	n/a	n/a	-999	17	[2, 1, 8]	11	FR1	0	R1075J
1767.617	5.017	2019080	PROB	5.017	n/a	n/a	-999	17	[4, 9, 7]	20	FR1	0	R1075J
1772.634	2.669	2024097	PROB	2.669	n/a	n/a	-999	17	[9, 4, 9]	22	FR1	0	R1075J
1775.303	2.616	2026766	PROB	2.616	n/a	n/a	-999	17	[8, 7, 7]	22	FR1	0	R1075J
1777.919	4.418	2029382	PROB	4.418	n/a	n/a	-999	17	[7, 9, 2]	18	FR1	0	R1075J
1782.337	2.73	2033800	PROB	2.73	n/a	n/a	-999	17	[7, 4, 6]	17	FR1	0	R1075J
1785.067	0.003	2036530	STOP	n/a	n/a	n/a	-999	17	[-999, -999, -999]	n/a	FR1	0	R1075J
1785.07	1.118	2036533	DISTRACT_END	n/a	n/a	n/a	-999	17	[0, 0, 0]	n/a	FR1	0	R1075J
1786.188	2.839	2037651	REC_START	n/a	n/a	n/a	-999	17	[0, 0, 0]	n/a	FR1	0	R1075J
1789.027	2.68	2040490	REC_WORD	2.68	n/a	ROOF	2	17	[0, 0, 0]	n/a	FR1	0	R1075J
1791.707	0.629	2043170	REC_WORD	0.629	n/a	CAR	9	17	[0, 0, 0]	n/a	FR1	0	R1075J
1792.336	1.589	2043799	REC_WORD	1.589	n/a	VAN	8	17	[0, 0, 0]	n/a	FR1	0	R1075J
1793.925	0.551	2045388	REC_WORD	0.551	n/a	PARK	3	17	[0, 0, 0]	n/a	FR1	0	R1075J
1794.476	1.341	2045939	REC_WORD	1.341	n/a	KITE	4	17	[0, 0, 0]	n/a	FR1	0	R1075J
1795.817	2.713	2047280	REC_WORD	2.713	n/a	ROAD	1	17	[0, 0, 0]	n/a	FR1	0	R1075J
1798.53	17.669	2049993	REC_WORD_VV	17.669	n/a	<>	-999	17	[0, 0, 0]	n/a	FR1	0	R1075J
1816.199	4.159	2067662	REC_END	n/a	n/a	n/a	-999	17	[0, 0, 0]	n/a	FR1	0	R1075J
1820.358	0.001	2071821	COUNTDOWN_START	n/a	n/a	n/a	-999	18	[0, 0, 0]	n/a	FR1	0	R1075J
1820.359	10.427	2071822	TRIAL	n/a	n/a	n/a	-999	18	[0, 0, 0]	n/a	FR1	0	R1075J
1830.786	0.006	2082249	COUNTDOWN_END	n/a	n/a	n/a	-999	18	[0, 0, 0]	n/a	FR1	0	R1075J
1830.792	2.501	2082255	ORIENT	n/a	n/a	n/a	-999	18	[0, 0, 0]	n/a	FR1	0	R1075J
1833.293	2.583	2084756	WORD	n/a	wordpools/wordpool_EN.txt	SEAT	1	18	[0, 0, 0]	n/a	FR1	0	R1075J
1835.876	2.468	2087339	WORD	n/a	wordpools/wordpool_EN.txt	DOOR	2	18	[0, 0, 0]	n/a	FR1	0	R1075J
1838.344	2.483	2089807	WORD	n/a	wordpools/wordpool_EN.txt	THUMB	3	18	[0, 0, 0]	n/a	FR1	0	R1075J
1840.827	2.467	2092290	WORD	n/a	wordpools/wordpool_EN.txt	BROOM	4	18	[0, 0, 0]	n/a	FR1	0	R1075J
1843.294	2.433	2094757	WORD	n/a	wordpools/wordpool_EN.txt	HAND	5	18	[0, 0, 0]	n/a	FR1	0	R1075J
1845.727	2.368	2097190	WORD	n/a	wordpools/wordpool_EN.txt	CRANE	6	18	[0, 0, 0]	n/a	FR1	0	R1075J
1848.095	2.483	2099558	WORD	n/a	wordpools/wordpool_EN.txt	TOOL	7	18	[0, 0, 0]	n/a	FR1	0	R1075J
1850.578	2.551	2102041	WORD	n/a	wordpools/wordpool_EN.txt	HOUSE	8	18	[0, 0, 0]	n/a	FR1	0	R1075J
1853.129	2.616	2104592	WORD	n/a	wordpools/wordpool_EN.txt	SHOE	9	18	[0, 0, 0]	n/a	FR1	0	R1075J
1855.745	2.518	2107208	WORD	n/a	wordpools/wordpool_EN.txt	HORN	10	18	[0, 0, 0]	n/a	FR1	0	R1075J
1858.263	2.399	2109726	WORD	n/a	wordpools/wordpool_EN.txt	LOCK	11	18	[0, 0, 0]	n/a	FR1	0	R1075J
1860.662	1.601	2112125	WORD	n/a	wordpools/wordpool_EN.txt	FROG	12	18	[0, 0, 0]	n/a	FR1	0	R1075J
1862.263	0.001	2113726	DISTRACT_START	n/a	n/a	n/a	-999	18	[0, 0, 0]	n/a	FR1	0	R1075J
1862.264	0.016	2113727	START	n/a	n/a	n/a	-999	18	[-999, -999, -999]	n/a	FR1	0	R1075J
1862.28	3.4	2113743	PROB	3.4	n/a	n/a	-999	18	[4, 2, 1]	7	FR1	0	R1075J
1865.68	2.834	2117143	PROB	2.834	n/a	n/a	-999	18	[7, 8, 2]	17	FR1	0	R1075J
1868.514	2.868	2119977	PROB	2.868	n/a	n/a	-999	18	[6, 2, 5]	13	FR1	0	R1075J
1871.382	3.9	2122845	PROB	3.9	n/a	n/a	-999	18	[9, 3, 5]	17	FR1	0	R1075J
1875.282	3.466	2126745	PROB	3.466	n/a	n/a	-999	18	[5, 1, 2]	8	FR1	0	R1075J
1878.748	4.482	2130211	PROB	4.482	n/a	n/a	-999	18	[6, 7, 4]	17	FR1	0	R1075J
1883.23	0.019	2134693	STOP	n/a	n/a	n/a	-999	18	[-999, -999, -999]	n/a	FR1	0	R1075J
1883.249	1.168	2134712	DISTRACT_END	n/a	n/a	n/a	-999	18	[0, 0, 0]	n/a	FR1	0	R1075J
1884.417	2.513	2135880	REC_START	n/a	n/a	n/a	-999	18	[0, 0, 0]	n/a	FR1	0	R1075J
1886.93	0.484	2138393	REC_WORD	0.484	n/a	CRANE	6	18	[0, 0, 0]	n/a	FR1	0	R1075J
1887.414	1.972	2138877	REC_WORD	1.972	n/a	HOUSE	8	18	[0, 0, 0]	n/a	FR1	0	R1075J
1889.386	1.221	2140849	REC_WORD	1.221	n/a	THUMB	3	18	[0, 0, 0]	n/a	FR1	0	R1075J
1890.607	6.395	2142069	REC_WORD	6.395	n/a	CAR	-999	18	[0, 0, 0]	n/a	FR1	0	R1075J
1897.002	6.141	2148464	REC_WORD	6.141	n/a	DOOR	2	18	[0, 0, 0]	n/a	FR1	0	R1075J
1903.143	11.285	2154605	REC_WORD	11.285	n/a	SEAT	1	18	[0, 0, 0]	n/a	FR1	0	R1075J
1914.428	2.943	2165890	REC_END	n/a	n/a	n/a	-999	18	[0, 0, 0]	n/a	FR1	0	R1075J
1917.371	0.0	2168833	TRIAL	n/a	n/a	n/a	-999	19	[0, 0, 0]	n/a	FR1	0	R1075J
1917.371	10.428	2168833	COUNTDOWN_START	n/a	n/a	n/a	-999	19	[0, 0, 0]	n/a	FR1	0	R1075J
1927.799	0.005	2179261	COUNTDOWN_END	n/a	n/a	n/a	-999	19	[0, 0, 0]	n/a	FR1	0	R1075J
1927.804	2.368	2179266	ORIENT	n/a	n/a	n/a	-999	19	[0, 0, 0]	n/a	FR1	0	R1075J
1930.172	2.516	2181634	WORD	n/a	wordpools/wordpool_EN.txt	AXE	1	19	[0, 0, 0]	n/a	FR1	0	R1075J
1932.688	2.401	2184150	WORD	n/a	wordpools/wordpool_EN.txt	CLOTH	2	19	[0, 0, 0]	n/a	FR1	0	R1075J
1935.089	2.466	2186551	WORD	n/a	wordpools/wordpool_EN.txt	SPRING	3	19	[0, 0, 0]	n/a	FR1	0	R1075J
1937.555	2.368	2189017	WORD	n/a	wordpools/wordpool_EN.txt	CROWN	4	19	[0, 0, 0]	n/a	FR1	0	R1075J
1939.923	2.617	2191385	WORD	n/a	wordpools/wordpool_EN.txt	BED	5	19	[0, 0, 0]	n/a	FR1	0	R1075J
1942.54	2.601	2194002	WORD	n/a	wordpools/wordpool_EN.txt	HEART	6	19	[0, 0, 0]	n/a	FR1	0	R1075J
1945.141	2.616	2196603	WORD	n/a	wordpools/wordpool_EN.txt	BOARD	7	19	[0, 0, 0]	n/a	FR1	0	R1075J
1947.757	2.401	2199219	WORD	n/a	wordpools/wordpool_EN.txt	TOOTH	8	19	[0, 0, 0]	n/a	FR1	0	R1075J
1950.158	2.516	2201620	WORD	n/a	wordpools/wordpool_EN.txt	CUP	9	19	[0, 0, 0]	n/a	FR1	0	R1075J
1952.674	2.401	2204136	WORD	n/a	wordpools/wordpool_EN.txt	MUD	10	19	[0, 0, 0]	n/a	FR1	0	R1075J
1955.075	2.417	2206537	WORD	n/a	wordpools/wordpool_EN.txt	OAR	11	19	[0, 0, 0]	n/a	FR1	0	R1075J
1957.492	1.617	2208954	WORD	n/a	wordpools/wordpool_EN.txt	LAMB	12	19	[0, 0, 0]	n/a	FR1	0	R1075J
1959.109	0.001	2210571	DISTRACT_START	n/a	n/a	n/a	-999	19	[0, 0, 0]	n/a	FR1	0	R1075J
1959.11	0.016	2210572	START	n/a	n/a	n/a	-999	19	[-999, -999, -999]	n/a	FR1	0	R1075J
1959.126	4.284	2210588	PROB	4.284	n/a	n/a	-999	19	[7, 9, 1]	17	FR1	0	R1075J
1963.41	2.566	2214872	PROB	2.566	n/a	n/a	-999	19	[2, 1, 8]	11	FR1	0	R1075J
1965.976	2.485	2217438	PROB	2.485	n/a	n/a	-999	19	[3, 9, 1]	13	FR1	0	R1075J
1968.461	2.817	2219923	PROB	2.817	n/a	n/a	-999	19	[3, 4, 1]	8	FR1	0	R1075J
1971.278	2.549	2222740	PROB	2.549	n/a	n/a	-999	19	[7, 5, 9]	21	FR1	0	R1075J
1973.827	3.15	2225289	PROB	3.15	n/a	n/a	-999	19	[7, 5, 8]	20	FR1	0	R1075J
1976.977	3.721	2228439	PROB	3.721	n/a	n/a	-999	19	[3, 9, 4]	16	FR1	0	R1075J
1980.698	0.013	2232160	STOP	n/a	n/a	n/a	-999	19	[-999, -999, -999]	n/a	FR1	0	R1075J
1980.711	1.184	2232173	DISTRACT_END	n/a	n/a	n/a	-999	19	[0, 0, 0]	n/a	FR1	0	R1075J
1981.895	3.095	2233357	REC_START	n/a	n/a	n/a	-999	19	[0, 0, 0]	n/a	FR1	0	R1075J
1984.99	0.558	2236452	REC_WORD	0.558	n/a	AXE	1	19	[0, 0, 0]	n/a	FR1	0	R1075J
1985.548	5.891	2237010	REC_WORD	5.891	n/a	MUD	10	19	[0, 0, 0]	n/a	FR1	0	R1075J
1991.439	20.467	2242901	REC_WORD	20.467	n/a	HEART	6	19	[0, 0, 0]	n/a	FR1	0	R1075J
2011.906	3.109	2263368	REC_END	n/a	n/a	n/a	-999	19	[0, 0, 0]	n/a	FR1	0	R1075J
2015.015	0.001	2266477	COUNTDOWN_START	n/a	n/a	n/a	-999	20	[0, 0, 0]	n/a	FR1	0	R1075J
2015.016	10.427	2266478	TRIAL	n/a	n/a	n/a	-999	20	[0, 0, 0]	n/a	FR1	0	R1075J
2025.443	0.008	2276905	COUNTDOWN_END	n/a	n/a	n/a	-999	20	[0, 0, 0]	n/a	FR1	0	R1075J
2025.451	2.584	2276913	ORIENT	n/a	n/a	n/a	-999	20	[0, 0, 0]	n/a	FR1	0	R1075J
2028.035	2.484	2279497	WORD	n/a	wordpools/wordpool_EN.txt	PIT	1	20	[0, 0, 0]	n/a	FR1	0	R1075J
2030.519	2.449	2281981	WORD	n/a	wordpools/wordpool_EN.txt	PEACH	2	20	[0, 0, 0]	n/a	FR1	0	R1075J
2032.968	2.6	2284430	WORD	n/a	wordpools/wordpool_EN.txt	FLUTE	3	20	[0, 0, 0]	n/a	FR1	0	R1075J
2035.568	2.45	2287030	WORD	n/a	wordpools/wordpool_EN.txt	CORN	4	20	[0, 0, 0]	n/a	FR1	0	R1075J
2038.018	2.502	2289480	WORD	n/a	wordpools/wordpool_EN.txt	JUDGE	5	20	[0, 0, 0]	n/a	FR1	0	R1075J
2040.52	2.566	2291982	WORD	n/a	wordpools/wordpool_EN.txt	CART	6	20	[0, 0, 0]	n/a	FR1	0	R1075J
2043.086	2.466	2294548	WORD	n/a	wordpools/wordpool_EN.txt	TREE	7	20	[0, 0, 0]	n/a	FR1	0	R1075J
2045.552	2.368	2297014	WORD	n/a	wordpools/wordpool_EN.txt	ROOM	8	20	[0, 0, 0]	n/a	FR1	0	R1075J
2047.92	2.518	2299382	WORD	n/a	wordpools/wordpool_EN.txt	STREET	9	20	[0, 0, 0]	n/a	FR1	0	R1075J
2050.438	2.549	2301900	WORD	n/a	wordpools/wordpool_EN.txt	BENCH	10	20	[0, 0, 0]	n/a	FR1	0	R1075J
2052.987	2.518	2304449	WORD	n/a	wordpools/wordpool_EN.txt	BOWL	11	20	[0, 0, 0]	n/a	FR1	0	R1075J
2055.505	1.617	2306967	WORD	n/a	wordpools/wordpool_EN.txt	FRUIT	12	20	[0, 0, 0]	n/a	FR1	0	R1075J
2057.122	0.0	2308584	DISTRACT_START	n/a	n/a	n/a	-999	20	[0, 0, 0]	n/a	FR1	0	R1075J
2057.122	0.016	2308584	START	n/a	n/a	n/a	-999	20	[-999, -999, -999]	n/a	FR1	0	R1075J
2057.138	3.951	2308600	PROB	3.951	n/a	n/a	-999	20	[7, 1, 6]	14	FR1	0	R1075J
2061.089	2.599	2312551	PROB	2.599	n/a	n/a	-999	20	[5, 2, 5]	12	FR1	0	R1075J
2063.688	3.718	2315150	PROB	3.718	n/a	n/a	-999	20	[9, 8, 6]	23	FR1	0	R1075J
2067.406	2.134	2318868	PROB	2.134	n/a	n/a	-999	20	[2, 5, 5]	12	FR1	0	R1075J
2069.54	3.767	2321002	PROB	3.767	n/a	n/a	-999	20	[4, 1, 8]	13	FR1	0	R1075J
2073.307	2.683	2324769	PROB	2.683	n/a	n/a	-999	20	[2, 4, 1]	7	FR1	0	R1075J
2075.99	3.904	2327452	PROB	3.904	n/a	n/a	-999	20	[9, 7, 9]	25	FR1	0	R1075J
2079.894	0.013	2331356	STOP	n/a	n/a	n/a	-999	20	[-999, -999, -999]	n/a	FR1	0	R1075J
2079.907	1.185	2331369	DISTRACT_END	n/a	n/a	n/a	-999	20	[0, 0, 0]	n/a	FR1	0	R1075J
2081.092	7.715	2332554	REC_START	n/a	n/a	n/a	-999	20	[0, 0, 0]	n/a	FR1	0	R1075J
2088.807	1.169	2340269	REC_WORD_VV	1.169	n/a	<>	-999	20	[0, 0, 0]	n/a	FR1	0	R1075J
2089.976	9.742	2341438	REC_WORD	9.742	n/a	TREE	7	20	[0, 0, 0]	n/a	FR1	0	R1075J
2099.718	6.151	2351180	REC_WORD	6.151	n/a	CART	6	20	[0, 0, 0]	n/a	FR1	0	R1075J
2105.869	0.785	2357331	REC_WORD	0.785	n/a	STAND	-999	20	[0, 0, 0]	n/a	FR1	0	R1075J
2106.654	4.454	2358116	REC_WORD	4.454	n/a	CORN	4	20	[0, 0, 0]	n/a	FR1	0	R1075J
2111.108	2.786	2362570	REC_END	n/a	n/a	n/a	-999	20	[0, 0, 0]	n/a	FR1	0	R1075J
2113.894	0.001	2365356	COUNTDOWN_START	n/a	n/a	n/a	-999	21	[0, 0, 0]	n/a	FR1	0	R1075J
2113.895	10.427	2365357	TRIAL	n/a	n/a	n/a	-999	21	[0, 0, 0]	n/a	FR1	0	R1075J
2124.322	0.008	2375784	COUNTDOWN_END	n/a	n/a	n/a	-999	21	[0, 0, 0]	n/a	FR1	0	R1075J
2124.33	2.45	2375792	ORIENT	n/a	n/a	n/a	-999	21	[0, 0, 0]	n/a	FR1	0	R1075J
2126.78	2.434	2378242	WORD	n/a	wordpools/wordpool_EN.txt	JAR	1	21	[0, 0, 0]	n/a	FR1	0	R1075J
2129.214	2.566	2380676	WORD	n/a	wordpools/wordpool_EN.txt	STRAW	2	21	[0, 0, 0]	n/a	FR1	0	R1075J
2131.78	2.468	2383242	WORD	n/a	wordpools/wordpool_EN.txt	CHIN	3	21	[0, 0, 0]	n/a	FR1	0	R1075J
2134.248	2.399	2385710	WORD	n/a	wordpools/wordpool_EN.txt	BEAK	4	21	[0, 0, 0]	n/a	FR1	0	R1075J
2136.647	2.552	2388109	WORD	n/a	wordpools/wordpool_EN.txt	FACE	5	21	[0, 0, 0]	n/a	FR1	0	R1075J
2139.199	2.616	2390661	WORD	n/a	wordpools/wordpool_EN.txt	DOLL	6	21	[0, 0, 0]	n/a	FR1	0	R1075J
2141.815	2.451	2393277	WORD	n/a	wordpools/wordpool_EN.txt	YARD	7	21	[0, 0, 0]	n/a	FR1	0	R1075J
2144.266	2.616	2395728	WORD	n/a	wordpools/wordpool_EN.txt	CHEEK	8	21	[0, 0, 0]	n/a	FR1	0	R1075J
2146.882	2.402	2398344	WORD	n/a	wordpools/wordpool_EN.txt	TEA	9	21	[0, 0, 0]	n/a	FR1	0	R1075J
2149.284	2.449	2400746	WORD	n/a	wordpools/wordpool_EN.txt	SINK	10	21	[0, 0, 0]	n/a	FR1	0	R1075J
2151.733	2.501	2403195	WORD	n/a	wordpools/wordpool_EN.txt	CHAIR	11	21	[0, 0, 0]	n/a	FR1	0	R1075J
2154.234	1.616	2405696	WORD	n/a	wordpools/wordpool_EN.txt	BAG	12	21	[0, 0, 0]	n/a	FR1	0	R1075J
2155.85	0.001	2407312	DISTRACT_START	n/a	n/a	n/a	-999	21	[0, 0, 0]	n/a	FR1	0	R1075J
2155.851	0.016	2407313	START	n/a	n/a	n/a	-999	21	[-999, -999, -999]	n/a	FR1	0	R1075J
2155.867	3.551	2407329	PROB	3.551	n/a	n/a	-999	21	[2, 9, 6]	17	FR1	0	R1075J
2159.418	2.316	2410880	PROB	2.316	n/a	n/a	-999	21	[1, 4, 1]	6	FR1	0	R1075J
2161.734	2.568	2413196	PROB	2.568	n/a	n/a	-999	21	[5, 6, 1]	12	FR1	0	R1075J
2164.302	2.616	2415764	PROB	2.616	n/a	n/a	-999	21	[1, 5, 3]	9	FR1	0	R1075J
2166.918	2.585	2418380	PROB	2.585	n/a	n/a	-999	21	[5, 8, 8]	21	FR1	0	R1075J
2169.503	3.516	2420965	PROB	3.516	n/a	n/a	-999	21	[9, 5, 6]	20	FR1	0	R1075J
2173.019	2.847	2424481	PROB	2.847	n/a	n/a	-999	21	[5, 8, 7]	20	FR1	0	R1075J
2175.866	0.003	2427328	STOP	n/a	n/a	n/a	-999	21	[-999, -999, -999]	n/a	FR1	0	R1075J
2175.869	1.034	2427331	DISTRACT_END	n/a	n/a	n/a	-999	21	[0, 0, 0]	n/a	FR1	0	R1075J
2176.903	2.668	2428365	REC_START	n/a	n/a	n/a	-999	21	[0, 0, 0]	n/a	FR1	0	R1075J
2179.571	0.497	2431033	REC_WORD	0.497	n/a	CHIN	3	21	[0, 0, 0]	n/a	FR1	0	R1075J
2180.068	1.783	2431530	REC_WORD	1.783	n/a	JAR	1	21	[0, 0, 0]	n/a	FR1	0	R1075J
2181.851	1.128	2433313	REC_WORD	1.128	n/a	STRAW	2	21	[0, 0, 0]	n/a	FR1	0	R1075J
2182.979	5.48	2434441	REC_WORD	5.48	n/a	BEAK	4	21	[0, 0, 0]	n/a	FR1	0	R1075J
2188.459	18.459	2439921	REC_WORD	18.459	n/a	BIRD	-999	21	[0, 0, 0]	n/a	FR1	0	R1075J
2206.918	2.889	2458380	REC_END	n/a	n/a	n/a	-999	21	[0, 0, 0]	n/a	FR1	0	R1075J
2209.807	0.0	2461269	TRIAL	n/a	n/a	n/a	-999	22	[0, 0, 0]	n/a	FR1	0	R1075J
2209.807	10.428	2461269	COUNTDOWN_START	n/a	n/a	n/a	-999	22	[0, 0, 0]	n/a	FR1	0	R1075J
2220.235	0.008	2471697	COUNTDOWN_END	n/a	n/a	n/a	-999	22	[0, 0, 0]	n/a	FR1	0	R1075J
2220.243	2.565	2471705	ORIENT	n/a	n/a	n/a	-999	22	[0, 0, 0]	n/a	FR1	0	R1075J
2222.808	2.368	2474270	WORD	n/a	wordpools/wordpool_EN.txt	SAIL	1	22	[0, 0, 0]	n/a	FR1	0	R1075J
2225.176	2.4	2476638	WORD	n/a	wordpools/wordpool_EN.txt	SHIP	2	22	[0, 0, 0]	n/a	FR1	0	R1075J
2227.576	2.451	2479038	WORD	n/a	wordpools/wordpool_EN.txt	WORM	3	22	[0, 0, 0]	n/a	FR1	0	R1075J
2230.027	2.566	2481489	WORD	n/a	wordpools/wordpool_EN.txt	SLIME	4	22	[0, 0, 0]	n/a	FR1	0	R1075J
2232.593	2.601	2484055	WORD	n/a	wordpools/wordpool_EN.txt	STEAM	5	22	[0, 0, 0]	n/a	FR1	0	R1075J
2235.194	2.449	2486656	WORD	n/a	wordpools/wordpool_EN.txt	BOAT	6	22	[0, 0, 0]	n/a	FR1	0	R1075J
2237.643	2.402	2489105	WORD	n/a	wordpools/wordpool_EN.txt	HOOK	7	22	[0, 0, 0]	n/a	FR1	0	R1075J
2240.045	2.549	2491507	WORD	n/a	wordpools/wordpool_EN.txt	DESK	8	22	[0, 0, 0]	n/a	FR1	0	R1075J
2242.594	2.585	2494056	WORD	n/a	wordpools/wordpool_EN.txt	PEARL	9	22	[0, 0, 0]	n/a	FR1	0	R1075J
2245.179	2.533	2496641	WORD	n/a	wordpools/wordpool_EN.txt	WHEEL	10	22	[0, 0, 0]	n/a	FR1	0	R1075J
2247.712	2.468	2499174	WORD	n/a	wordpools/wordpool_EN.txt	FISH	11	22	[0, 0, 0]	n/a	FR1	0	R1075J
2250.18	1.615	2501642	WORD	n/a	wordpools/wordpool_EN.txt	DRESS	12	22	[0, 0, 0]	n/a	FR1	0	R1075J
2251.795	0.001	2503257	DISTRACT_START	n/a	n/a	n/a	-999	22	[0, 0, 0]	n/a	FR1	0	R1075J
2251.796	0.016	2503258	START	n/a	n/a	n/a	-999	22	[-999, -999, -999]	n/a	FR1	0	R1075J
2251.812	3.1	2503274	PROB	3.1	n/a	n/a	-999	22	[1, 6, 1]	8	FR1	0	R1075J
2254.912	4.768	2506374	PROB	4.768	n/a	n/a	-999	22	[1, 7, 4]	12	FR1	0	R1075J
2259.68	4.25	2511142	PROB	4.25	n/a	n/a	-999	22	[7, 6, 5]	18	FR1	0	R1075J
2263.93	2.667	2515392	PROB	2.667	n/a	n/a	-999	22	[6, 7, 1]	14	FR1	0	R1075J
2266.597	2.134	2518059	PROB	2.134	n/a	n/a	-999	22	[1, 2, 2]	5	FR1	0	R1075J
2268.731	2.983	2520193	PROB	2.983	n/a	n/a	-999	22	[4, 8, 3]	15	FR1	0	R1075J
2271.714	3.124	2523176	PROB	3.124	n/a	n/a	-999	22	[2, 2, 6]	10	FR1	0	R1075J
2274.838	0.01	2526300	STOP	n/a	n/a	n/a	-999	22	[-999, -999, -999]	n/a	FR1	0	R1075J
2274.848	1.186	2526310	DISTRACT_END	n/a	n/a	n/a	-999	22	[0, 0, 0]	n/a	FR1	0	R1075J
2276.034	2.328	2527496	REC_START	n/a	n/a	n/a	-999	22	[0, 0, 0]	n/a	FR1	0	R1075J
2278.362	0.798	2529824	REC_WORD	0.798	n/a	SAIL	1	22	[0, 0, 0]	n/a	FR1	0	R1075J
2279.16	0.707	2530622	REC_WORD	0.707	n/a	BOAT	6	22	[0, 0, 0]	n/a	FR1	0	R1075J
2279.867	2.962	2531329	REC_WORD	2.962	n/a	SHIP	2	22	[0, 0, 0]	n/a	FR1	0	R1075J
2282.829	2.732	2534291	REC_WORD	2.732	n/a	FISH	11	22	[0, 0, 0]	n/a	FR1	0	R1075J
2285.561	20.484	2537023	REC_WORD	20.484	n/a	DESK	8	22	[0, 0, 0]	n/a	FR1	0	R1075J
2306.045	2.558	2557507	REC_END	n/a	n/a	n/a	-999	22	[0, 0, 0]	n/a	FR1	0	R1075J
2308.603	0.0	2560065	TRIAL	n/a	n/a	n/a	-999	23	[0, 0, 0]	n/a	FR1	0	R1075J
2308.603	10.428	2560065	COUNTDOWN_START	n/a	n/a	n/a	-999	23	[0, 0, 0]	n/a	FR1	0	R1075J
2319.031	0.007	2570493	COUNTDOWN_END	n/a	n/a	n/a	-999	23	[0, 0, 0]	n/a	FR1	0	R1075J
2319.038	2.417	2570500	ORIENT	n/a	n/a	n/a	-999	23	[0, 0, 0]	n/a	FR1	0	R1075J
2321.455	2.433	2572917	WORD	n/a	wordpools/wordpool_EN.txt	STAR	1	23	[0, 0, 0]	n/a	FR1	0	R1075J
2323.888	2.535	2575350	WORD	n/a	wordpools/wordpool_EN.txt	PIPE	2	23	[0, 0, 0]	n/a	FR1	0	R1075J
2326.423	2.516	2577885	WORD	n/a	wordpools/wordpool_EN.txt	OWL	3	23	[0, 0, 0]	n/a	FR1	0	R1075J
2328.939	2.584	2580401	WORD	n/a	wordpools/wordpool_EN.txt	WOOD	4	23	[0, 0, 0]	n/a	FR1	0	R1075J
2331.523	2.617	2582985	WORD	n/a	wordpools/wordpool_EN.txt	DUCK	5	23	[0, 0, 0]	n/a	FR1	0	R1075J
2334.14	2.616	2585602	WORD	n/a	wordpools/wordpool_EN.txt	POND	6	23	[0, 0, 0]	n/a	FR1	0	R1075J
2336.756	2.602	2588218	WORD	n/a	wordpools/wordpool_EN.txt	CLOUD	7	23	[0, 0, 0]	n/a	FR1	0	R1075J
2339.358	2.515	2590820	WORD	n/a	wordpools/wordpool_EN.txt	FLOOR	8	23	[0, 0, 0]	n/a	FR1	0	R1075J
2341.873	2.585	2593335	WORD	n/a	wordpools/wordpool_EN.txt	DEER	9	23	[0, 0, 0]	n/a	FR1	0	R1075J
2344.458	2.533	2595920	WORD	n/a	wordpools/wordpool_EN.txt	SKI	10	23	[0, 0, 0]	n/a	FR1	0	R1075J
2346.991	2.567	2598453	WORD	n/a	wordpools/wordpool_EN.txt	TOY	11	23	[0, 0, 0]	n/a	FR1	0	R1075J
2349.558	1.618	2601020	WORD	n/a	wordpools/wordpool_EN.txt	WOLF	12	23	[0, 0, 0]	n/a	FR1	0	R1075J
2351.176	0.001	2602638	DISTRACT_START	n/a	n/a	n/a	-999	23	[0, 0, 0]	n/a	FR1	0	R1075J
2351.177	0.016	2602639	START	n/a	n/a	n/a	-999	23	[-999, -999, -999]	n/a	FR1	0	R1075J
2351.193	3.415	2602655	PROB	3.415	n/a	n/a	-999	23	[2, 8, 9]	19	FR1	0	R1075J
2354.608	3.602	2606070	PROB	3.602	n/a	n/a	-999	23	[5, 6, 4]	15	FR1	0	R1075J
2358.21	2.466	2609672	PROB	2.466	n/a	n/a	-999	23	[9, 9, 1]	19	FR1	0	R1075J
2360.676	2.95	2612138	PROB	2.95	n/a	n/a	-999	23	[7, 2, 9]	18	FR1	0	R1075J
2363.626	3.067	2615088	PROB	3.067	n/a	n/a	-999	23	[8, 9, 8]	25	FR1	0	R1075J
2366.693	5.797	2618155	PROB	5.797	n/a	n/a	-999	23	[4, 7, 4]	15	FR1	0	R1075J
2372.49	0.005	2623952	STOP	n/a	n/a	n/a	-999	23	[-999, -999, -999]	n/a	FR1	0	R1075J
2372.495	1.133	2623957	DISTRACT_END	n/a	n/a	n/a	-999	23	[0, 0, 0]	n/a	FR1	0	R1075J
2373.628	6.283	2625090	REC_START	n/a	n/a	n/a	-999	23	[0, 0, 0]	n/a	FR1	0	R1075J
2379.911	0.712	2631373	REC_WORD	0.712	n/a	DEER	9	23	[0, 0, 0]	n/a	FR1	0	R1075J
2380.623	2.871	2632085	REC_WORD	2.871	n/a	DUCK	5	23	[0, 0, 0]	n/a	FR1	0	R1075J
2383.494	7.603	2634956	REC_WORD	7.603	n/a	WOOD	4	23	[0, 0, 0]	n/a	FR1	0	R1075J
2391.097	9.054	2642559	REC_WORD	9.054	n/a	WINE	-999	23	[0, 0, 0]	n/a	FR1	0	R1075J
2400.151	3.488	2651613	REC_WORD	3.488	n/a	NAIL	-999	23	[0, 0, 0]	n/a	FR1	0	R1075J
2403.639	2.86	2655101	REC_END	n/a	n/a	n/a	-999	23	[0, 0, 0]	n/a	FR1	0	R1075J
2406.499	0.001	2657961	COUNTDOWN_START	n/a	n/a	n/a	-999	24	[0, 0, 0]	n/a	FR1	0	R1075J
2406.5	10.427	2657962	TRIAL	n/a	n/a	n/a	-999	24	[0, 0, 0]	n/a	FR1	0	R1075J
2416.927	0.006	2668389	COUNTDOWN_END	n/a	n/a	n/a	-999	24	[0, 0, 0]	n/a	FR1	0	R1075J
2416.933	2.535	2668395	ORIENT	n/a	n/a	n/a	-999	24	[0, 0, 0]	n/a	FR1	0	R1075J
2419.468	2.499	2670930	WORD	n/a	wordpools/wordpool_EN.txt	JEEP	1	24	[0, 0, 0]	n/a	FR1	0	R1075J
2421.967	2.551	2673429	WORD	n/a	wordpools/wordpool_EN.txt	MOUTH	2	24	[0, 0, 0]	n/a	FR1	0	R1075J
2424.518	2.617	2675980	WORD	n/a	wordpools/wordpool_EN.txt	OAK	3	24	[0, 0, 0]	n/a	FR1	0	R1075J
2427.135	2.55	2678597	WORD	n/a	wordpools/wordpool_EN.txt	CUBE	4	24	[0, 0, 0]	n/a	FR1	0	R1075J
2429.685	2.384	2681147	WORD	n/a	wordpools/wordpool_EN.txt	RAKE	5	24	[0, 0, 0]	n/a	FR1	0	R1075J
2432.069	2.583	2683531	WORD	n/a	wordpools/wordpool_EN.txt	TENT	6	24	[0, 0, 0]	n/a	FR1	0	R1075J
2434.652	2.418	2686114	WORD	n/a	wordpools/wordpool_EN.txt	PET	7	24	[0, 0, 0]	n/a	FR1	0	R1075J
2437.07	2.434	2688532	WORD	n/a	wordpools/wordpool_EN.txt	TRAIN	8	24	[0, 0, 0]	n/a	FR1	0	R1075J
2439.504	2.432	2690966	WORD	n/a	wordpools/wordpool_EN.txt	HAT	9	24	[0, 0, 0]	n/a	FR1	0	R1075J
2441.936	2.535	2693398	WORD	n/a	wordpools/wordpool_EN.txt	CAPE	10	24	[0, 0, 0]	n/a	FR1	0	R1075J
2444.471	2.482	2695933	WORD	n/a	wordpools/wordpool_EN.txt	CAT	11	24	[0, 0, 0]	n/a	FR1	0	R1075J
2446.953	1.618	2698415	WORD	n/a	wordpools/wordpool_EN.txt	COW	12	24	[0, 0, 0]	n/a	FR1	0	R1075J
2448.571	0.0	2700033	DISTRACT_START	n/a	n/a	n/a	-999	24	[0, 0, 0]	n/a	FR1	0	R1075J
2448.571	0.016	2700033	START	n/a	n/a	n/a	-999	24	[-999, -999, -999]	n/a	FR1	0	R1075J
2448.587	3.05	2700049	PROB	3.05	n/a	n/a	-999	24	[1, 5, 1]	7	FR1	0	R1075J
2451.637	3.402	2703099	PROB	3.402	n/a	n/a	-999	24	[9, 5, 8]	22	FR1	0	R1075J
2455.039	3.184	2706501	PROB	3.184	n/a	n/a	-999	24	[5, 8, 3]	16	FR1	0	R1075J
2458.223	3.432	2709685	PROB	3.432	n/a	n/a	-999	24	[9, 1, 8]	18	FR1	0	R1075J
2461.655	2.452	2713117	PROB	2.452	n/a	n/a	-999	24	[1, 5, 3]	9	FR1	0	R1075J
2464.107	3.017	2715569	PROB	3.017	n/a	n/a	-999	24	[4, 7, 3]	14	FR1	0	R1075J
2467.124	2.05	2718586	PROB	2.05	n/a	n/a	-999	24	[4, 1, 1]	6	FR1	0	R1075J
2469.174	0.017	2720636	STOP	n/a	n/a	n/a	-999	24	[-999, -999, -999]	n/a	FR1	0	R1075J
2469.191	1.1	2720653	DISTRACT_END	n/a	n/a	n/a	-999	24	[0, 0, 0]	n/a	FR1	0	R1075J
2470.291	2.413	2721753	REC_START	n/a	n/a	n/a	-999	24	[0, 0, 0]	n/a	FR1	0	R1075J
2472.704	3.781	2724166	REC_WORD_VV	3.781	n/a	<>	-999	24	[0, 0, 0]	n/a	FR1	0	R1075J
2476.485	2.039	2727947	REC_WORD	2.039	n/a	CAT	11	24	[0, 0, 0]	n/a	FR1	0	R1075J
2478.524	3.058	2729986	REC_WORD	3.058	n/a	COW	12	24	[0, 0, 0]	n/a	FR1	0	R1075J
2481.582	1.541	2733044	REC_WORD	1.541	n/a	TRAIN	8	24	[0, 0, 0]	n/a	FR1	0	R1075J
2483.123	8.016	2734585	REC_WORD	8.016	n/a	CAPE	10	24	[0, 0, 0]	n/a	FR1	0	R1075J
2491.139	9.164	2742601	REC_WORD	9.164	n/a	FOX	-999	24	[0, 0, 0]	n/a	FR1	0	R1075J
2500.303	2.742	2751765	REC_END	n/a	n/a	n/a	-999	24	[0, 0, 0]	n/a	FR1	0	R1075J
2503.045	0.0	2754507	TRIAL	n/a	n/a	n/a	-999	25	[0, 0, 0]	n/a	FR1	0	R1075J
2503.045	10.428	2754507	COUNTDOWN_START	n/a	n/a	n/a	-999	25	[0, 0, 0]	n/a	FR1	0	R1075J
2513.473	0.007	2764935	COUNTDOWN_END	n/a	n/a	n/a	-999	25	[0, 0, 0]	n/a	FR1	0	R1075J
2513.48	2.416	2764942	ORIENT	n/a	n/a	n/a	-999	25	[0, 0, 0]	n/a	FR1	0	R1075J
2515.896	2.518	2767358	WORD	n/a	wordpools/wordpool_EN.txt	BRIDGE	1	25	[0, 0, 0]	n/a	FR1	0	R1075J
2518.414	2.466	2769876	WORD	n/a	wordpools/wordpool_EN.txt	CAGE	2	25	[0, 0, 0]	n/a	FR1	0	R1075J
2520.88	2.551	2772342	WORD	n/a	wordpools/wordpool_EN.txt	BOOT	3	25	[0, 0, 0]	n/a	FR1	0	R1075J
2523.431	2.416	2774893	WORD	n/a	wordpools/wordpool_EN.txt	GEESE	4	25	[0, 0, 0]	n/a	FR1	0	R1075J
2525.847	2.418	2777309	WORD	n/a	wordpools/wordpool_EN.txt	SKUNK	5	25	[0, 0, 0]	n/a	FR1	0	R1075J
2528.265	2.516	2779727	WORD	n/a	wordpools/wordpool_EN.txt	CLOCK	6	25	[0, 0, 0]	n/a	FR1	0	R1075J
2530.781	2.468	2782243	WORD	n/a	wordpools/wordpool_EN.txt	ICE	7	25	[0, 0, 0]	n/a	FR1	0	R1075J
2533.249	2.616	2784711	WORD	n/a	wordpools/wordpool_EN.txt	LAND	8	25	[0, 0, 0]	n/a	FR1	0	R1075J
2535.865	2.384	2787327	WORD	n/a	wordpools/wordpool_EN.txt	FARM	9	25	[0, 0, 0]	n/a	FR1	0	R1075J
2538.249	2.567	2789711	WORD	n/a	wordpools/wordpool_EN.txt	MAP	10	25	[0, 0, 0]	n/a	FR1	0	R1075J
2540.816	2.567	2792278	WORD	n/a	wordpools/wordpool_EN.txt	ARK	11	25	[0, 0, 0]	n/a	FR1	0	R1075J
2543.383	1.616	2794845	WORD	n/a	wordpools/wordpool_EN.txt	SKY	12	25	[0, 0, 0]	n/a	FR1	0	R1075J
2544.999	0.001	2796461	DISTRACT_START	n/a	n/a	n/a	-999	25	[0, 0, 0]	n/a	FR1	0	R1075J
2545.0	0.016	2796462	START	n/a	n/a	n/a	-999	25	[-999, -999, -999]	n/a	FR1	0	R1075J
2545.016	3.701	2796478	PROB	3.701	n/a	n/a	-999	25	[7, 2, 1]	10	FR1	0	R1075J
2548.717	3.116	2800179	PROB	3.116	n/a	n/a	-999	25	[9, 1, 5]	15	FR1	0	R1075J
2551.833	2.717	2803295	PROB	2.717	n/a	n/a	-999	25	[5, 7, 8]	20	FR1	0	R1075J
2554.55	2.134	2806012	PROB	2.134	n/a	n/a	-999	25	[9, 2, 1]	12	FR1	0	R1075J
2556.684	3.001	2808146	PROB	3.001	n/a	n/a	-999	25	[4, 7, 8]	19	FR1	0	R1075J
2559.685	2.3	2811147	PROB	2.3	n/a	n/a	-999	25	[6, 3, 4]	13	FR1	0	R1075J
2561.985	3.785	2813447	PROB	3.785	n/a	n/a	-999	25	[2, 5, 9]	16	FR1	0	R1075J
2565.77	0.015	2817232	STOP	n/a	n/a	n/a	-999	25	[-999, -999, -999]	n/a	FR1	0	R1075J
2565.785	1.151	2817247	DISTRACT_END	n/a	n/a	n/a	-999	25	[0, 0, 0]	n/a	FR1	0	R1075J
2566.936	1.744	2818398	REC_START	n/a	n/a	n/a	-999	25	[0, 0, 0]	n/a	FR1	0	R1075J
2568.68	0.574	2820142	REC_WORD	0.574	n/a	ARM	-999	25	[0, 0, 0]	n/a	FR1	0	R1075J
2569.254	1.112	2820716	REC_WORD	1.112	n/a	BOOT	3	25	[0, 0, 0]	n/a	FR1	0	R1075J
2570.366	2.322	2821828	REC_WORD	2.322	n/a	BRIDGE	1	25	[0, 0, 0]	n/a	FR1	0	R1075J
2572.688	24.259	2824150	REC_WORD	24.259	n/a	SKY	12	25	[0, 0, 0]	n/a	FR1	0	R1075J
2596.947	20.596	2848409	REC_END	n/a	n/a	n/a	-999	25	[0, 0, 0]	n/a	FR1	0	R1075J
2617.543	0.0	2869005	SESS_END	n/a	n/a	n/a	-999	25	[0, 0, 0]	n/a	FR1	0	R1075J
