onset	duration	sample	trial_type	response_time	stim_file	item_name	serialpos	list	test	answer	experiment	session	subject
0.0	0.0	6149	INSTRUCT_START	n/a	n/a	n/a	-999	-999	[0, 0, 0]	n/a	FR1	0	R1150J
0.0	11.057	6149	INSTRUCT_END	n/a	n/a	n/a	-999	-999	[0, 0, 0]	n/a	FR1	0	R1150J
11.057	0.0	17206	SESS_START	n/a	n/a	n/a	-999	-999	[0, 0, 0]	n/a	FR1	0	R1150J
11.057	10.0	17206	MIC_TEST	n/a	n/a	n/a	-999	-999	[0, 0, 0]	n/a	FR1	0	R1150J
21.057	8.131	27206	PRACTICE_TRIAL	n/a	n/a	n/a	-999	-1	[0, 0, 0]	n/a	FR1	0	R1150J
29.188	10.428	35337	COUNTDOWN_START	n/a	n/a	n/a	-999	-1	[0, 0, 0]	n/a	FR1	0	R1150J
39.616	0.007	45764	COUNTDOWN_END	n/a	n/a	n/a	-999	-1	[0, 0, 0]	n/a	FR1	0	R1150J
39.623	1.617	45771	PRACTICE_ORIENT	n/a	n/a	n/a	-999	-1	[0, 0, 0]	n/a	FR1	0	R1150J
41.24	2.1	47388	PRACTICE_ORIENT_OFF	n/a	n/a	n/a	-999	-1	[0, 0, 0]	n/a	FR1	0	R1150J
43.34	1.617	49488	PRACTICE_WORD	n/a	n/a	RHINO	1	-1	[0, 0, 0]	n/a	FR1	0	R1150J
44.957	1.0	51105	PRACTICE_WORD_OFF	n/a	n/a	RHINO	-999	-1	[0, 0, 0]	n/a	FR1	0	R1150J
45.957	1.617	52105	PRACTICE_WORD	n/a	n/a	IRON	2	-1	[0, 0, 0]	n/a	FR1	0	R1150J
47.574	0.883	53722	PRACTICE_WORD_OFF	n/a	n/a	IRON	-999	-1	[0, 0, 0]	n/a	FR1	0	R1150J
48.457	1.617	54605	PRACTICE_WORD	n/a	n/a	CHEST	3	-1	[0, 0, 0]	n/a	FR1	0	R1150J
50.074	0.934	56222	PRACTICE_WORD_OFF	n/a	n/a	CHEST	-999	-1	[0, 0, 0]	n/a	FR1	0	R1150J
51.008	1.616	57156	PRACTICE_WORD	n/a	n/a	WATCH	4	-1	[0, 0, 0]	n/a	FR1	0	R1150J
52.624	0.983	58772	PRACTICE_WORD_OFF	n/a	n/a	WATCH	-999	-1	[0, 0, 0]	n/a	FR1	0	R1150J
53.607	1.618	59755	PRACTICE_WORD	n/a	n/a	ATTIC	5	-1	[0, 0, 0]	n/a	FR1	0	R1150J
55.225	0.966	61373	PRACTICE_WORD_OFF	n/a	n/a	ATTIC	-999	-1	[0, 0, 0]	n/a	FR1	0	R1150J
56.191	1.617	62339	PRACTICE_WORD	n/a	n/a	BEAM	6	-1	[0, 0, 0]	n/a	FR1	0	R1150J
57.808	1.001	63956	PRACTICE_WORD_OFF	n/a	n/a	BEAM	-999	-1	[0, 0, 0]	n/a	FR1	0	R1150J
58.809	1.616	64957	PRACTICE_WORD	n/a	n/a	TONGUE	7	-1	[0, 0, 0]	n/a	FR1	0	R1150J
60.425	0.834	66573	PRACTICE_WORD_OFF	n/a	n/a	TONGUE	-999	-1	[0, 0, 0]	n/a	FR1	0	R1150J
61.259	1.616	67407	PRACTICE_WORD	n/a	n/a	FLOOD	8	-1	[0, 0, 0]	n/a	FR1	0	R1150J
62.875	0.967	69023	PRACTICE_WORD_OFF	n/a	n/a	FLOOD	-999	-1	[0, 0, 0]	n/a	FR1	0	R1150J
63.842	1.617	69990	PRACTICE_WORD	n/a	n/a	WAGON	9	-1	[0, 0, 0]	n/a	FR1	0	R1150J
65.459	0.767	71607	PRACTICE_WORD_OFF	n/a	n/a	WAGON	-999	-1	[0, 0, 0]	n/a	FR1	0	R1150J
66.226	1.617	72374	PRACTICE_WORD	n/a	n/a	COTTON	10	-1	[0, 0, 0]	n/a	FR1	0	R1150J
67.843	0.95	73991	PRACTICE_WORD_OFF	n/a	n/a	COTTON	-999	-1	[0, 0, 0]	n/a	FR1	0	R1150J
68.793	1.617	74941	PRACTICE_WORD	n/a	n/a	RING	11	-1	[0, 0, 0]	n/a	FR1	0	R1150J
70.41	0.817	76558	PRACTICE_WORD_OFF	n/a	n/a	RING	-999	-1	[0, 0, 0]	n/a	FR1	0	R1150J
71.227	1.616	77375	PRACTICE_WORD	n/a	n/a	CAMEL	12	-1	[0, 0, 0]	n/a	FR1	0	R1150J
72.843	0.0	78991	PRACTICE_WORD_OFF	n/a	n/a	CAMEL	-999	-1	[0, 0, 0]	n/a	FR1	0	R1150J
72.843	0.001	78991	DISTRACT_START	n/a	n/a	n/a	-999	-1	[0, 0, 0]	n/a	FR1	0	R1150J
72.844	0.016	78992	START	n/a	n/a	n/a	-999	-1	[-999, -999, -999]	n/a	FR1	0	R1150J
72.86	3.868	79008	PROB	3.868	n/a	n/a	-999	-1	[1, 7, 4]	12	FR1	0	R1150J
76.728	2.617	82876	PROB	2.617	n/a	n/a	-999	-1	[7, 3, 1]	11	FR1	0	R1150J
79.345	2.401	85493	PROB	2.401	n/a	n/a	-999	-1	[1, 2, 1]	4	FR1	0	R1150J
81.746	3.299	87894	PROB	3.299	n/a	n/a	-999	-1	[5, 7, 4]	16	FR1	0	R1150J
85.045	2.351	91193	PROB	2.351	n/a	n/a	-999	-1	[1, 5, 8]	14	FR1	0	R1150J
87.396	5.45	93544	PROB	5.45	n/a	n/a	-999	-1	[7, 5, 6]	18	FR1	0	R1150J
92.846	2.103	98994	PROB	2.103	n/a	n/a	-999	-1	[2, 1, 9]	12	FR1	0	R1150J
94.949	0.014	101097	STOP	n/a	n/a	n/a	-999	-1	[-999, -999, -999]	n/a	FR1	0	R1150J
94.963	0.684	101111	DISTRACT_END	n/a	n/a	n/a	-999	-1	[0, 0, 0]	n/a	FR1	0	R1150J
95.647	0.518	101795	RETRIEVAL_ORIENT	n/a	n/a	n/a	-999	-1	[0, 0, 0]	n/a	FR1	0	R1150J
96.165	30.012	102313	PRACTICE_REC_START	n/a	n/a	n/a	-999	-1	[0, 0, 0]	n/a	FR1	0	R1150J
126.177	16.376	132324	PRACTICE_REC_END	n/a	n/a	n/a	-999	-1	[0, 0, 0]	n/a	FR1	0	R1150J
142.553	0.5	148700	TRIAL	n/a	n/a	n/a	-999	1	[0, 0, 0]	n/a	FR1	0	R1150J
143.053	10.428	149200	COUNTDOWN_START	n/a	n/a	n/a	-999	1	[0, 0, 0]	n/a	FR1	0	R1150J
153.481	0.006	159628	COUNTDOWN_END	n/a	n/a	n/a	-999	1	[0, 0, 0]	n/a	FR1	0	R1150J
153.487	1.618	159634	ORIENT	n/a	n/a	n/a	-999	1	[0, 0, 0]	n/a	FR1	0	R1150J
155.105	2.1	161252	ORIENT_OFF	n/a	n/a	n/a	-999	1	[0, 0, 0]	n/a	FR1	0	R1150J
157.205	1.617	163352	WORD	n/a	wordpools/wordpool_EN.txt	WOOD	1	1	[0, 0, 0]	n/a	FR1	0	R1150J
158.822	0.918	164969	WORD_OFF	n/a	n/a	WOOD	1	1	[0, 0, 0]	n/a	FR1	0	R1150J
159.74	1.616	165887	WORD	n/a	wordpools/wordpool_EN.txt	HOUSE	2	1	[0, 0, 0]	n/a	FR1	0	R1150J
161.356	0.867	167503	WORD_OFF	n/a	n/a	HOUSE	2	1	[0, 0, 0]	n/a	FR1	0	R1150J
162.223	1.616	168370	WORD	n/a	wordpools/wordpool_EN.txt	ROPE	3	1	[0, 0, 0]	n/a	FR1	0	R1150J
163.839	0.85	169986	WORD_OFF	n/a	n/a	ROPE	3	1	[0, 0, 0]	n/a	FR1	0	R1150J
164.689	1.617	170836	WORD	n/a	wordpools/wordpool_EN.txt	SEED	4	1	[0, 0, 0]	n/a	FR1	0	R1150J
166.306	0.9	172453	WORD_OFF	n/a	n/a	SEED	4	1	[0, 0, 0]	n/a	FR1	0	R1150J
167.206	1.617	173353	WORD	n/a	wordpools/wordpool_EN.txt	LAKE	5	1	[0, 0, 0]	n/a	FR1	0	R1150J
168.823	0.95	174970	WORD_OFF	n/a	n/a	LAKE	5	1	[0, 0, 0]	n/a	FR1	0	R1150J
169.773	1.617	175920	WORD	n/a	wordpools/wordpool_EN.txt	BEAR	6	1	[0, 0, 0]	n/a	FR1	0	R1150J
171.39	0.884	177537	WORD_OFF	n/a	n/a	BEAR	6	1	[0, 0, 0]	n/a	FR1	0	R1150J
172.274	1.616	178421	WORD	n/a	wordpools/wordpool_EN.txt	MOOSE	7	1	[0, 0, 0]	n/a	FR1	0	R1150J
173.89	0.9	180037	WORD_OFF	n/a	n/a	MOOSE	7	1	[0, 0, 0]	n/a	FR1	0	R1150J
174.79	1.617	180937	WORD	n/a	wordpools/wordpool_EN.txt	STEM	8	1	[0, 0, 0]	n/a	FR1	0	R1150J
176.407	1.017	182554	WORD_OFF	n/a	n/a	STEM	8	1	[0, 0, 0]	n/a	FR1	0	R1150J
177.424	1.617	183571	WORD	n/a	wordpools/wordpool_EN.txt	HEART	9	1	[0, 0, 0]	n/a	FR1	0	R1150J
179.041	0.767	185188	WORD_OFF	n/a	n/a	HEART	9	1	[0, 0, 0]	n/a	FR1	0	R1150J
179.808	1.617	185954	WORD	n/a	wordpools/wordpool_EN.txt	SNOW	10	1	[0, 0, 0]	n/a	FR1	0	R1150J
181.425	0.917	187571	WORD_OFF	n/a	n/a	SNOW	10	1	[0, 0, 0]	n/a	FR1	0	R1150J
182.342	1.616	188488	WORD	n/a	wordpools/wordpool_EN.txt	MAZE	11	1	[0, 0, 0]	n/a	FR1	0	R1150J
183.958	0.9	190104	WORD_OFF	n/a	n/a	MAZE	11	1	[0, 0, 0]	n/a	FR1	0	R1150J
184.858	1.617	191004	WORD	n/a	wordpools/wordpool_EN.txt	COW	12	1	[0, 0, 0]	n/a	FR1	0	R1150J
186.475	0.0	192621	WORD_OFF	n/a	n/a	COW	12	1	[0, 0, 0]	n/a	FR1	0	R1150J
186.475	0.001	192621	DISTRACT_START	n/a	n/a	n/a	-999	1	[0, 0, 0]	n/a	FR1	0	R1150J
186.476	0.016	192622	START	n/a	n/a	n/a	-999	1	[-999, -999, -999]	n/a	FR1	0	R1150J
186.492	4.934	192638	PROB	4.934	n/a	n/a	-999	1	[4, 5, 9]	18	FR1	0	R1150J
191.426	2.55	197572	PROB	2.55	n/a	n/a	-999	1	[3, 6, 5]	14	FR1	0	R1150J
193.976	4.201	200122	PROB	4.201	n/a	n/a	-999	1	[5, 2, 7]	14	FR1	0	R1150J
198.177	2.334	204323	PROB	2.334	n/a	n/a	-999	1	[6, 3, 9]	18	FR1	0	R1150J
200.511	3.6	206657	PROB	3.6	n/a	n/a	-999	1	[4, 9, 2]	15	FR1	0	R1150J
204.111	1.467	210257	PROB	1.467	n/a	n/a	-999	1	[5, 5, 1]	11	FR1	0	R1150J
205.578	2.231	211724	PROB	2.231	n/a	n/a	-999	1	[1, 9, 3]	13	FR1	0	R1150J
207.809	0.02	213955	STOP	n/a	n/a	n/a	-999	1	[-999, -999, -999]	n/a	FR1	0	R1150J
207.829	0.55	213975	DISTRACT_END	n/a	n/a	n/a	-999	1	[0, 0, 0]	n/a	FR1	0	R1150J
208.379	0.517	214525	RETRIEVAL_ORIENT	n/a	n/a	n/a	-999	1	[0, 0, 0]	n/a	FR1	0	R1150J
208.896	14.201	215042	REC_START	n/a	n/a	n/a	-999	1	[0, 0, 0]	n/a	FR1	0	R1150J
223.097	1.0	229243	REC_WORD_VV	1.0	n/a	<>	-999	1	[0, 0, 0]	n/a	FR1	0	R1150J
224.097	3.157	230243	REC_WORD_VV	3.157	n/a	<>	-999	1	[0, 0, 0]	n/a	FR1	0	R1150J
227.254	1.0	233400	REC_WORD_VV	1.0	n/a	<>	-999	1	[0, 0, 0]	n/a	FR1	0	R1150J
228.254	1.0	234400	REC_WORD_VV	1.0	n/a	<>	-999	1	[0, 0, 0]	n/a	FR1	0	R1150J
229.254	9.654	235400	REC_WORD_VV	9.654	n/a	<>	-999	1	[0, 0, 0]	n/a	FR1	0	R1150J
238.908	5.843	245054	REC_END	n/a	n/a	n/a	-999	1	[0, 0, 0]	n/a	FR1	0	R1150J
244.751	0.5	250897	TRIAL	n/a	n/a	n/a	-999	2	[0, 0, 0]	n/a	FR1	0	R1150J
245.251	10.428	251397	COUNTDOWN_START	n/a	n/a	n/a	-999	2	[0, 0, 0]	n/a	FR1	0	R1150J
255.679	0.005	261824	COUNTDOWN_END	n/a	n/a	n/a	-999	2	[0, 0, 0]	n/a	FR1	0	R1150J
255.684	1.617	261829	ORIENT	n/a	n/a	n/a	-999	2	[0, 0, 0]	n/a	FR1	0	R1150J
257.301	2.251	263446	ORIENT_OFF	n/a	n/a	n/a	-999	2	[0, 0, 0]	n/a	FR1	0	R1150J
259.552	1.617	265697	WORD	n/a	wordpools/wordpool_EN.txt	RICE	1	2	[0, 0, 0]	n/a	FR1	0	R1150J
261.169	0.816	267314	WORD_OFF	n/a	n/a	RICE	1	2	[0, 0, 0]	n/a	FR1	0	R1150J
261.985	1.617	268130	WORD	n/a	wordpools/wordpool_EN.txt	BEAK	2	2	[0, 0, 0]	n/a	FR1	0	R1150J
263.602	0.801	269747	WORD_OFF	n/a	n/a	BEAK	2	2	[0, 0, 0]	n/a	FR1	0	R1150J
264.403	1.617	270548	WORD	n/a	wordpools/wordpool_EN.txt	GRASS	3	2	[0, 0, 0]	n/a	FR1	0	R1150J
266.02	0.816	272165	WORD_OFF	n/a	n/a	GRASS	3	2	[0, 0, 0]	n/a	FR1	0	R1150J
266.836	1.617	272981	WORD	n/a	wordpools/wordpool_EN.txt	FOG	4	2	[0, 0, 0]	n/a	FR1	0	R1150J
268.453	0.967	274598	WORD_OFF	n/a	n/a	FOG	4	2	[0, 0, 0]	n/a	FR1	0	R1150J
269.42	1.617	275565	WORD	n/a	wordpools/wordpool_EN.txt	WAVE	5	2	[0, 0, 0]	n/a	FR1	0	R1150J
271.037	0.884	277182	WORD_OFF	n/a	n/a	WAVE	5	2	[0, 0, 0]	n/a	FR1	0	R1150J
271.921	1.616	278066	WORD	n/a	wordpools/wordpool_EN.txt	SMOKE	6	2	[0, 0, 0]	n/a	FR1	0	R1150J
273.537	0.917	279682	WORD_OFF	n/a	n/a	SMOKE	6	2	[0, 0, 0]	n/a	FR1	0	R1150J
274.454	1.617	280599	WORD	n/a	wordpools/wordpool_EN.txt	DRESS	7	2	[0, 0, 0]	n/a	FR1	0	R1150J
276.071	0.867	282216	WORD_OFF	n/a	n/a	DRESS	7	2	[0, 0, 0]	n/a	FR1	0	R1150J
276.938	1.616	283083	WORD	n/a	wordpools/wordpool_EN.txt	BATH	8	2	[0, 0, 0]	n/a	FR1	0	R1150J
278.554	0.834	284699	WORD_OFF	n/a	n/a	BATH	8	2	[0, 0, 0]	n/a	FR1	0	R1150J
279.388	1.617	285533	WORD	n/a	wordpools/wordpool_EN.txt	TEA	9	2	[0, 0, 0]	n/a	FR1	0	R1150J
281.005	0.866	287150	WORD_OFF	n/a	n/a	TEA	9	2	[0, 0, 0]	n/a	FR1	0	R1150J
281.871	1.617	288016	WORD	n/a	wordpools/wordpool_EN.txt	BOX	10	2	[0, 0, 0]	n/a	FR1	0	R1150J
283.488	0.834	289633	WORD_OFF	n/a	n/a	BOX	10	2	[0, 0, 0]	n/a	FR1	0	R1150J
284.322	1.617	290467	WORD	n/a	wordpools/wordpool_EN.txt	BOMB	11	2	[0, 0, 0]	n/a	FR1	0	R1150J
285.939	0.933	292084	WORD_OFF	n/a	n/a	BOMB	11	2	[0, 0, 0]	n/a	FR1	0	R1150J
286.872	1.617	293017	WORD	n/a	wordpools/wordpool_EN.txt	JET	12	2	[0, 0, 0]	n/a	FR1	0	R1150J
288.489	0.0	294634	WORD_OFF	n/a	n/a	JET	12	2	[0, 0, 0]	n/a	FR1	0	R1150J
288.489	0.0	294634	DISTRACT_START	n/a	n/a	n/a	-999	2	[0, 0, 0]	n/a	FR1	0	R1150J
288.489	0.016	294634	START	n/a	n/a	n/a	-999	2	[-999, -999, -999]	n/a	FR1	0	R1150J
288.505	5.201	294650	PROB	5.201	n/a	n/a	-999	2	[4, 7, 3]	14	FR1	0	R1150J
293.706	2.001	299851	PROB	2.001	n/a	n/a	-999	2	[7, 2, 5]	14	FR1	0	R1150J
295.707	2.1	301852	PROB	2.1	n/a	n/a	-999	2	[3, 6, 5]	14	FR1	0	R1150J
297.807	4.517	303952	PROB	4.517	n/a	n/a	-999	2	[5, 6, 3]	13	FR1	0	R1150J
302.324	7.498	308469	PROB	7.498	n/a	n/a	-999	2	[5, 9, 6]	20	FR1	0	R1150J
309.822	0.02	315967	STOP	n/a	n/a	n/a	-999	2	[-999, -999, -999]	n/a	FR1	0	R1150J
309.842	0.533	315987	DISTRACT_END	n/a	n/a	n/a	-999	2	[0, 0, 0]	n/a	FR1	0	R1150J
310.375	0.518	316520	RETRIEVAL_ORIENT	n/a	n/a	n/a	-999	2	[0, 0, 0]	n/a	FR1	0	R1150J
310.893	2.7	317038	REC_START	n/a	n/a	n/a	-999	2	[0, 0, 0]	n/a	FR1	0	R1150J
313.593	2.532	319738	REC_WORD	2.532	n/a	RICE	-999	2	[0, 0, 0]	n/a	FR1	0	R1150J
316.125	1.914	322270	REC_WORD	1.914	n/a	GRASS	-999	2	[0, 0, 0]	n/a	FR1	0	R1150J
318.039	2.295	324184	REC_WORD	2.295	n/a	SMOKE	-999	2	[0, 0, 0]	n/a	FR1	0	R1150J
320.334	7.908	326479	REC_WORD	7.908	n/a	TEA	-999	2	[0, 0, 0]	n/a	FR1	0	R1150J
328.242	12.662	334386	REC_WORD	12.662	n/a	WAVE	-999	2	[0, 0, 0]	n/a	FR1	0	R1150J
340.904	5.242	347048	REC_END	n/a	n/a	n/a	-999	2	[0, 0, 0]	n/a	FR1	0	R1150J
346.146	0.5	352290	TRIAL	n/a	n/a	n/a	-999	3	[0, 0, 0]	n/a	FR1	0	R1150J
346.646	10.428	352790	COUNTDOWN_START	n/a	n/a	n/a	-999	3	[0, 0, 0]	n/a	FR1	0	R1150J
357.074	0.007	363218	COUNTDOWN_END	n/a	n/a	n/a	-999	3	[0, 0, 0]	n/a	FR1	0	R1150J
357.081	1.617	363225	ORIENT	n/a	n/a	n/a	-999	3	[0, 0, 0]	n/a	FR1	0	R1150J
358.698	2.084	364842	ORIENT_OFF	n/a	n/a	n/a	-999	3	[0, 0, 0]	n/a	FR1	0	R1150J
360.782	1.617	366926	WORD	n/a	wordpools/wordpool_EN.txt	SUIT	1	3	[0, 0, 0]	n/a	FR1	0	R1150J
362.399	0.883	368543	WORD_OFF	n/a	n/a	SUIT	1	3	[0, 0, 0]	n/a	FR1	0	R1150J
363.282	1.617	369426	WORD	n/a	wordpools/wordpool_EN.txt	BANK	2	3	[0, 0, 0]	n/a	FR1	0	R1150J
364.899	0.767	371043	WORD_OFF	n/a	n/a	BANK	2	3	[0, 0, 0]	n/a	FR1	0	R1150J
365.666	1.617	371810	WORD	n/a	wordpools/wordpool_EN.txt	VAN	3	3	[0, 0, 0]	n/a	FR1	0	R1150J
367.283	0.817	373427	WORD_OFF	n/a	n/a	VAN	3	3	[0, 0, 0]	n/a	FR1	0	R1150J
368.1	1.617	374244	WORD	n/a	wordpools/wordpool_EN.txt	MUG	4	3	[0, 0, 0]	n/a	FR1	0	R1150J
369.717	0.766	375861	WORD_OFF	n/a	n/a	MUG	4	3	[0, 0, 0]	n/a	FR1	0	R1150J
370.483	1.617	376627	WORD	n/a	wordpools/wordpool_EN.txt	YARD	5	3	[0, 0, 0]	n/a	FR1	0	R1150J
372.1	0.933	378244	WORD_OFF	n/a	n/a	YARD	5	3	[0, 0, 0]	n/a	FR1	0	R1150J
373.033	1.617	379177	WORD	n/a	wordpools/wordpool_EN.txt	POND	6	3	[0, 0, 0]	n/a	FR1	0	R1150J
374.65	0.884	380794	WORD_OFF	n/a	n/a	POND	6	3	[0, 0, 0]	n/a	FR1	0	R1150J
375.534	1.617	381678	WORD	n/a	wordpools/wordpool_EN.txt	WEB	7	3	[0, 0, 0]	n/a	FR1	0	R1150J
377.151	0.95	383295	WORD_OFF	n/a	n/a	WEB	7	3	[0, 0, 0]	n/a	FR1	0	R1150J
378.101	1.617	384245	WORD	n/a	wordpools/wordpool_EN.txt	ROAD	8	3	[0, 0, 0]	n/a	FR1	0	R1150J
379.718	0.8	385862	WORD_OFF	n/a	n/a	ROAD	8	3	[0, 0, 0]	n/a	FR1	0	R1150J
380.518	1.617	386662	WORD	n/a	wordpools/wordpool_EN.txt	JAR	9	3	[0, 0, 0]	n/a	FR1	0	R1150J
382.135	0.933	388279	WORD_OFF	n/a	n/a	JAR	9	3	[0, 0, 0]	n/a	FR1	0	R1150J
383.068	1.617	389212	WORD	n/a	wordpools/wordpool_EN.txt	CONE	10	3	[0, 0, 0]	n/a	FR1	0	R1150J
384.685	0.767	390829	WORD_OFF	n/a	n/a	CONE	10	3	[0, 0, 0]	n/a	FR1	0	R1150J
385.452	1.617	391596	WORD	n/a	wordpools/wordpool_EN.txt	TOY	11	3	[0, 0, 0]	n/a	FR1	0	R1150J
387.069	1.0	393213	WORD_OFF	n/a	n/a	TOY	11	3	[0, 0, 0]	n/a	FR1	0	R1150J
388.069	1.617	394213	WORD	n/a	wordpools/wordpool_EN.txt	STAIR	12	3	[0, 0, 0]	n/a	FR1	0	R1150J
389.686	0.0	395830	DISTRACT_START	n/a	n/a	n/a	-999	3	[0, 0, 0]	n/a	FR1	0	R1150J
389.686	0.001	395830	WORD_OFF	n/a	n/a	STAIR	12	3	[0, 0, 0]	n/a	FR1	0	R1150J
389.687	0.016	395831	START	n/a	n/a	n/a	-999	3	[-999, -999, -999]	n/a	FR1	0	R1150J
389.703	3.733	395847	PROB	3.733	n/a	n/a	-999	3	[2, 2, 2]	6	FR1	0	R1150J
393.436	4.001	399579	PROB	4.001	n/a	n/a	-999	3	[4, 3, 5]	11	FR1	0	R1150J
397.437	3.334	403580	PROB	3.334	n/a	n/a	-999	3	[1, 9, 6]	16	FR1	0	R1150J
400.771	3.067	406914	PROB	3.067	n/a	n/a	-999	3	[9, 7, 1]	17	FR1	0	R1150J
403.838	2.967	409981	PROB	2.967	n/a	n/a	-999	3	[8, 2, 7]	17	FR1	0	R1150J
406.805	2.717	412948	PROB	2.717	n/a	n/a	-999	3	[8, 1, 9]	18	FR1	0	R1150J
409.522	2.288	415665	PROB	2.288	n/a	n/a	-999	3	[1, 2, 1]	4	FR1	0	R1150J
411.81	0.012	417953	STOP	n/a	n/a	n/a	-999	3	[-999, -999, -999]	n/a	FR1	0	R1150J
411.822	0.683	417965	DISTRACT_END	n/a	n/a	n/a	-999	3	[0, 0, 0]	n/a	FR1	0	R1150J
412.505	0.518	418648	RETRIEVAL_ORIENT	n/a	n/a	n/a	-999	3	[0, 0, 0]	n/a	FR1	0	R1150J
413.023	1.188	419166	REC_START	n/a	n/a	n/a	-999	3	[0, 0, 0]	n/a	FR1	0	R1150J
414.211	0.875	420354	REC_WORD_VV	0.875	n/a	<>	-999	3	[0, 0, 0]	n/a	FR1	0	R1150J
415.086	1.458	421229	REC_WORD	1.458	n/a	VAN	-999	3	[0, 0, 0]	n/a	FR1	0	R1150J
416.544	1.564	422687	REC_WORD	1.564	n/a	YARD	-999	3	[0, 0, 0]	n/a	FR1	0	R1150J
418.108	15.191	424251	REC_WORD	15.191	n/a	MUG	-999	3	[0, 0, 0]	n/a	FR1	0	R1150J
433.299	1.092	439442	REC_WORD_VV	1.092	n/a	<>	-999	3	[0, 0, 0]	n/a	FR1	0	R1150J
434.391	1.0	440534	REC_WORD	1.0	n/a	WAR	-999	3	[0, 0, 0]	n/a	FR1	0	R1150J
435.391	0.702	441534	REC_WORD_VV	0.702	n/a	<>	-999	3	[0, 0, 0]	n/a	FR1	0	R1150J
436.093	1.05	442236	REC_WORD	1.05	n/a	WAR	-999	3	[0, 0, 0]	n/a	FR1	0	R1150J
437.143	1.0	443286	REC_WORD_VV	1.0	n/a	<>	-999	3	[0, 0, 0]	n/a	FR1	0	R1150J
438.143	1.0	444286	REC_WORD_VV	1.0	n/a	<>	-999	3	[0, 0, 0]	n/a	FR1	0	R1150J
439.143	1.458	445286	REC_WORD_VV	1.458	n/a	<>	-999	3	[0, 0, 0]	n/a	FR1	0	R1150J
440.601	2.433	446744	REC_WORD_VV	2.433	n/a	<>	-999	3	[0, 0, 0]	n/a	FR1	0	R1150J
443.034	5.16	449177	REC_END	n/a	n/a	n/a	-999	3	[0, 0, 0]	n/a	FR1	0	R1150J
448.194	0.5	454337	TRIAL	n/a	n/a	n/a	-999	4	[0, 0, 0]	n/a	FR1	0	R1150J
448.694	10.428	454837	COUNTDOWN_START	n/a	n/a	n/a	-999	4	[0, 0, 0]	n/a	FR1	0	R1150J
459.122	0.007	465265	COUNTDOWN_END	n/a	n/a	n/a	-999	4	[0, 0, 0]	n/a	FR1	0	R1150J
459.129	1.601	465272	ORIENT	n/a	n/a	n/a	-999	4	[0, 0, 0]	n/a	FR1	0	R1150J
460.73	2.049	466873	ORIENT_OFF	n/a	n/a	n/a	-999	4	[0, 0, 0]	n/a	FR1	0	R1150J
462.779	1.617	468922	WORD	n/a	wordpools/wordpool_EN.txt	SMILE	1	4	[0, 0, 0]	n/a	FR1	0	R1150J
464.396	0.883	470538	WORD_OFF	n/a	n/a	SMILE	1	4	[0, 0, 0]	n/a	FR1	0	R1150J
465.279	1.617	471421	WORD	n/a	wordpools/wordpool_EN.txt	CHAIR	2	4	[0, 0, 0]	n/a	FR1	0	R1150J
466.896	0.984	473038	WORD_OFF	n/a	n/a	CHAIR	2	4	[0, 0, 0]	n/a	FR1	0	R1150J
467.88	1.617	474022	WORD	n/a	wordpools/wordpool_EN.txt	CAGE	3	4	[0, 0, 0]	n/a	FR1	0	R1150J
469.497	0.95	475639	WORD_OFF	n/a	n/a	CAGE	3	4	[0, 0, 0]	n/a	FR1	0	R1150J
470.447	1.617	476589	WORD	n/a	wordpools/wordpool_EN.txt	DUCK	4	4	[0, 0, 0]	n/a	FR1	0	R1150J
472.064	0.832	478206	WORD_OFF	n/a	n/a	DUCK	4	4	[0, 0, 0]	n/a	FR1	0	R1150J
472.896	1.617	479038	WORD	n/a	wordpools/wordpool_EN.txt	RIB	5	4	[0, 0, 0]	n/a	FR1	0	R1150J
474.513	0.768	480655	WORD_OFF	n/a	n/a	RIB	5	4	[0, 0, 0]	n/a	FR1	0	R1150J
475.281	1.616	481423	WORD	n/a	wordpools/wordpool_EN.txt	TRAY	6	4	[0, 0, 0]	n/a	FR1	0	R1150J
476.897	0.934	483039	WORD_OFF	n/a	n/a	TRAY	6	4	[0, 0, 0]	n/a	FR1	0	R1150J
477.831	1.617	483973	WORD	n/a	wordpools/wordpool_EN.txt	PALM	7	4	[0, 0, 0]	n/a	FR1	0	R1150J
479.448	0.867	485590	WORD_OFF	n/a	n/a	PALM	7	4	[0, 0, 0]	n/a	FR1	0	R1150J
480.315	1.617	486457	WORD	n/a	wordpools/wordpool_EN.txt	PIN	8	4	[0, 0, 0]	n/a	FR1	0	R1150J
481.932	0.766	488074	WORD_OFF	n/a	n/a	PIN	8	4	[0, 0, 0]	n/a	FR1	0	R1150J
482.698	1.617	488840	WORD	n/a	wordpools/wordpool_EN.txt	BAND	9	4	[0, 0, 0]	n/a	FR1	0	R1150J
484.315	0.767	490457	WORD_OFF	n/a	n/a	BAND	9	4	[0, 0, 0]	n/a	FR1	0	R1150J
485.082	1.617	491224	WORD	n/a	wordpools/wordpool_EN.txt	CUP	10	4	[0, 0, 0]	n/a	FR1	0	R1150J
486.699	1.0	492841	WORD_OFF	n/a	n/a	CUP	10	4	[0, 0, 0]	n/a	FR1	0	R1150J
487.699	1.617	493841	WORD	n/a	wordpools/wordpool_EN.txt	SINK	11	4	[0, 0, 0]	n/a	FR1	0	R1150J
489.316	0.917	495458	WORD_OFF	n/a	n/a	SINK	11	4	[0, 0, 0]	n/a	FR1	0	R1150J
490.233	1.617	496375	WORD	n/a	wordpools/wordpool_EN.txt	BRUSH	12	4	[0, 0, 0]	n/a	FR1	0	R1150J
491.85	0.0	497992	WORD_OFF	n/a	n/a	BRUSH	12	4	[0, 0, 0]	n/a	FR1	0	R1150J
491.85	0.0	497992	DISTRACT_START	n/a	n/a	n/a	-999	4	[0, 0, 0]	n/a	FR1	0	R1150J
491.85	0.016	497992	START	n/a	n/a	n/a	-999	4	[-999, -999, -999]	n/a	FR1	0	R1150J
491.866	3.234	498008	PROB	3.234	n/a	n/a	-999	4	[1, 4, 8]	13	FR1	0	R1150J
495.1	3.635	501242	PROB	3.635	n/a	n/a	-999	4	[9, 1, 6]	16	FR1	0	R1150J
498.735	2.649	504877	PROB	2.649	n/a	n/a	-999	4	[3, 3, 2]	8	FR1	0	R1150J
501.384	3.934	507526	PROB	3.934	n/a	n/a	-999	4	[3, 3, 4]	10	FR1	0	R1150J
505.318	2.867	511460	PROB	2.867	n/a	n/a	-999	4	[6, 2, 6]	14	FR1	0	R1150J
508.185	7.095	514327	PROB	7.095	n/a	n/a	-999	4	[7, 6, 5]	18	FR1	0	R1150J
515.28	0.023	521422	STOP	n/a	n/a	n/a	-999	4	[-999, -999, -999]	n/a	FR1	0	R1150J
515.303	0.666	521445	DISTRACT_END	n/a	n/a	n/a	-999	4	[0, 0, 0]	n/a	FR1	0	R1150J
515.969	0.518	522111	RETRIEVAL_ORIENT	n/a	n/a	n/a	-999	4	[0, 0, 0]	n/a	FR1	0	R1150J
516.487	4.804	522629	REC_START	n/a	n/a	n/a	-999	4	[0, 0, 0]	n/a	FR1	0	R1150J
521.291	3.488	527433	REC_WORD	3.488	n/a	SMILE	-999	4	[0, 0, 0]	n/a	FR1	0	R1150J
524.779	8.179	530921	REC_WORD	8.179	n/a	RIB	-999	4	[0, 0, 0]	n/a	FR1	0	R1150J
532.958	0.809	539100	REC_WORD	0.809	n/a	SMILE	-999	4	[0, 0, 0]	n/a	FR1	0	R1150J
533.767	10.699	539909	REC_WORD	10.699	n/a	RIB	-999	4	[0, 0, 0]	n/a	FR1	0	R1150J
544.466	2.033	550607	REC_WORD_VV	2.033	n/a	<>	-999	4	[0, 0, 0]	n/a	FR1	0	R1150J
546.499	5.309	552640	REC_END	n/a	n/a	n/a	-999	4	[0, 0, 0]	n/a	FR1	0	R1150J
551.808	0.5	557949	TRIAL	n/a	n/a	n/a	-999	5	[0, 0, 0]	n/a	FR1	0	R1150J
552.308	10.428	558449	COUNTDOWN_START	n/a	n/a	n/a	-999	5	[0, 0, 0]	n/a	FR1	0	R1150J
562.736	0.007	568877	COUNTDOWN_END	n/a	n/a	n/a	-999	5	[0, 0, 0]	n/a	FR1	0	R1150J
562.743	1.616	568884	ORIENT	n/a	n/a	n/a	-999	5	[0, 0, 0]	n/a	FR1	0	R1150J
564.359	1.901	570500	ORIENT_OFF	n/a	n/a	n/a	-999	5	[0, 0, 0]	n/a	FR1	0	R1150J
566.26	1.617	572401	WORD	n/a	wordpools/wordpool_EN.txt	ROOM	1	5	[0, 0, 0]	n/a	FR1	0	R1150J
567.877	0.783	574018	WORD_OFF	n/a	n/a	ROOM	1	5	[0, 0, 0]	n/a	FR1	0	R1150J
568.66	1.617	574801	WORD	n/a	wordpools/wordpool_EN.txt	VEST	2	5	[0, 0, 0]	n/a	FR1	0	R1150J
570.277	0.783	576418	WORD_OFF	n/a	n/a	VEST	2	5	[0, 0, 0]	n/a	FR1	0	R1150J
571.06	1.617	577201	WORD	n/a	wordpools/wordpool_EN.txt	SEAL	3	5	[0, 0, 0]	n/a	FR1	0	R1150J
572.677	0.967	578818	WORD_OFF	n/a	n/a	SEAL	3	5	[0, 0, 0]	n/a	FR1	0	R1150J
573.644	1.617	579785	WORD	n/a	wordpools/wordpool_EN.txt	CUBE	4	5	[0, 0, 0]	n/a	FR1	0	R1150J
575.261	0.783	581402	WORD_OFF	n/a	n/a	CUBE	4	5	[0, 0, 0]	n/a	FR1	0	R1150J
576.044	1.617	582185	WORD	n/a	wordpools/wordpool_EN.txt	SALT	5	5	[0, 0, 0]	n/a	FR1	0	R1150J
577.661	0.8	583802	WORD_OFF	n/a	n/a	SALT	5	5	[0, 0, 0]	n/a	FR1	0	R1150J
578.461	1.617	584602	WORD	n/a	wordpools/wordpool_EN.txt	PIPE	6	5	[0, 0, 0]	n/a	FR1	0	R1150J
580.078	1.0	586219	WORD_OFF	n/a	n/a	PIPE	6	5	[0, 0, 0]	n/a	FR1	0	R1150J
581.078	1.617	587219	WORD	n/a	wordpools/wordpool_EN.txt	DEER	7	5	[0, 0, 0]	n/a	FR1	0	R1150J
582.695	0.95	588836	WORD_OFF	n/a	n/a	DEER	7	5	[0, 0, 0]	n/a	FR1	0	R1150J
583.645	1.617	589786	WORD	n/a	wordpools/wordpool_EN.txt	STRAW	8	5	[0, 0, 0]	n/a	FR1	0	R1150J
585.262	0.867	591403	WORD_OFF	n/a	n/a	STRAW	8	5	[0, 0, 0]	n/a	FR1	0	R1150J
586.129	1.618	592270	WORD	n/a	wordpools/wordpool_EN.txt	BUSH	9	5	[0, 0, 0]	n/a	FR1	0	R1150J
587.747	0.832	593888	WORD_OFF	n/a	n/a	BUSH	9	5	[0, 0, 0]	n/a	FR1	0	R1150J
588.579	1.617	594720	WORD	n/a	wordpools/wordpool_EN.txt	CHIN	10	5	[0, 0, 0]	n/a	FR1	0	R1150J
590.196	0.9	596337	WORD_OFF	n/a	n/a	CHIN	10	5	[0, 0, 0]	n/a	FR1	0	R1150J
591.096	1.617	597237	WORD	n/a	wordpools/wordpool_EN.txt	JAIL	11	5	[0, 0, 0]	n/a	FR1	0	R1150J
592.713	0.783	598854	WORD_OFF	n/a	n/a	JAIL	11	5	[0, 0, 0]	n/a	FR1	0	R1150J
593.496	1.617	599637	WORD	n/a	wordpools/wordpool_EN.txt	TOOL	12	5	[0, 0, 0]	n/a	FR1	0	R1150J
595.113	0.0	601254	WORD_OFF	n/a	n/a	TOOL	12	5	[0, 0, 0]	n/a	FR1	0	R1150J
595.113	0.001	601254	DISTRACT_START	n/a	n/a	n/a	-999	5	[0, 0, 0]	n/a	FR1	0	R1150J
595.114	0.016	601255	START	n/a	n/a	n/a	-999	5	[-999, -999, -999]	n/a	FR1	0	R1150J
595.13	3.55	601271	PROB	3.55	n/a	n/a	-999	5	[6, 6, 5]	17	FR1	0	R1150J
598.68	3.701	604821	PROB	3.701	n/a	n/a	-999	5	[7, 9, 3]	19	FR1	0	R1150J
602.381	3.25	608522	PROB	3.25	n/a	n/a	-999	5	[3, 6, 7]	16	FR1	0	R1150J
605.631	4.434	611771	PROB	4.434	n/a	n/a	-999	5	[6, 2, 3]	11	FR1	0	R1150J
610.065	3.867	616205	PROB	3.867	n/a	n/a	-999	5	[6, 3, 2]	11	FR1	0	R1150J
613.932	1.928	620072	PROB	1.928	n/a	n/a	-999	5	[1, 8, 8]	17	FR1	0	R1150J
615.86	0.006	622000	STOP	n/a	n/a	n/a	-999	5	[-999, -999, -999]	n/a	FR1	0	R1150J
615.866	0.667	622006	DISTRACT_END	n/a	n/a	n/a	-999	5	[0, 0, 0]	n/a	FR1	0	R1150J
616.533	0.517	622673	RETRIEVAL_ORIENT	n/a	n/a	n/a	-999	5	[0, 0, 0]	n/a	FR1	0	R1150J
617.05	2.379	623190	REC_START	n/a	n/a	n/a	-999	5	[0, 0, 0]	n/a	FR1	0	R1150J
619.429	1.055	625569	REC_WORD	1.055	n/a	CUBE	-999	5	[0, 0, 0]	n/a	FR1	0	R1150J
620.484	0.844	626624	REC_WORD	0.844	n/a	DEER	-999	5	[0, 0, 0]	n/a	FR1	0	R1150J
621.328	4.383	627468	REC_WORD	4.383	n/a	SALT	-999	5	[0, 0, 0]	n/a	FR1	0	R1150J
625.711	0.645	631851	REC_WORD_VV	0.645	n/a	<>	-999	5	[0, 0, 0]	n/a	FR1	0	R1150J
626.356	1.804	632496	REC_WORD	1.804	n/a	WHITE	-999	5	[0, 0, 0]	n/a	FR1	0	R1150J
628.16	0.39	634300	REC_WORD	0.39	n/a	CUBE	-999	5	[0, 0, 0]	n/a	FR1	0	R1150J
628.55	0.233	634690	REC_WORD	0.233	n/a	DEER	-999	5	[0, 0, 0]	n/a	FR1	0	R1150J
628.783	0.538	634923	REC_WORD	0.538	n/a	SALT	-999	5	[0, 0, 0]	n/a	FR1	0	R1150J
629.321	0.37	635461	REC_WORD_VV	0.37	n/a	<>	-999	5	[0, 0, 0]	n/a	FR1	0	R1150J
629.691	6.394	635831	REC_WORD	6.394	n/a	CUBE	-999	5	[0, 0, 0]	n/a	FR1	0	R1150J
636.085	7.788	642225	REC_WORD	7.788	n/a	LIGHT	-999	5	[0, 0, 0]	n/a	FR1	0	R1150J
643.873	3.188	650013	REC_WORD_VV	3.188	n/a	<>	-999	5	[0, 0, 0]	n/a	FR1	0	R1150J
647.061	4.727	653201	REC_END	n/a	n/a	n/a	-999	5	[0, 0, 0]	n/a	FR1	0	R1150J
651.788	0.5	657928	TRIAL	n/a	n/a	n/a	-999	6	[0, 0, 0]	n/a	FR1	0	R1150J
652.288	10.428	658428	COUNTDOWN_START	n/a	n/a	n/a	-999	6	[0, 0, 0]	n/a	FR1	0	R1150J
662.716	0.007	668856	COUNTDOWN_END	n/a	n/a	n/a	-999	6	[0, 0, 0]	n/a	FR1	0	R1150J
662.723	1.616	668863	ORIENT	n/a	n/a	n/a	-999	6	[0, 0, 0]	n/a	FR1	0	R1150J
664.339	1.85	670479	ORIENT_OFF	n/a	n/a	n/a	-999	6	[0, 0, 0]	n/a	FR1	0	R1150J
666.189	1.617	672329	WORD	n/a	wordpools/wordpool_EN.txt	FOOD	1	6	[0, 0, 0]	n/a	FR1	0	R1150J
667.806	0.883	673946	WORD_OFF	n/a	n/a	FOOD	1	6	[0, 0, 0]	n/a	FR1	0	R1150J
668.689	1.617	674829	WORD	n/a	wordpools/wordpool_EN.txt	BED	2	6	[0, 0, 0]	n/a	FR1	0	R1150J
670.306	0.8	676446	WORD_OFF	n/a	n/a	BED	2	6	[0, 0, 0]	n/a	FR1	0	R1150J
671.106	1.618	677246	WORD	n/a	wordpools/wordpool_EN.txt	WORM	3	6	[0, 0, 0]	n/a	FR1	0	R1150J
672.724	0.816	678864	WORD_OFF	n/a	n/a	WORM	3	6	[0, 0, 0]	n/a	FR1	0	R1150J
673.54	1.617	679680	WORD	n/a	wordpools/wordpool_EN.txt	BENCH	4	6	[0, 0, 0]	n/a	FR1	0	R1150J
675.157	0.8	681297	WORD_OFF	n/a	n/a	BENCH	4	6	[0, 0, 0]	n/a	FR1	0	R1150J
675.957	1.617	682097	WORD	n/a	wordpools/wordpool_EN.txt	SHARK	5	6	[0, 0, 0]	n/a	FR1	0	R1150J
677.574	1.0	683713	WORD_OFF	n/a	n/a	SHARK	5	6	[0, 0, 0]	n/a	FR1	0	R1150J
678.574	1.617	684713	WORD	n/a	wordpools/wordpool_EN.txt	MUD	6	6	[0, 0, 0]	n/a	FR1	0	R1150J
680.191	0.767	686330	WORD_OFF	n/a	n/a	MUD	6	6	[0, 0, 0]	n/a	FR1	0	R1150J
680.958	1.617	687097	WORD	n/a	wordpools/wordpool_EN.txt	LEG	7	6	[0, 0, 0]	n/a	FR1	0	R1150J
682.575	0.983	688714	WORD_OFF	n/a	n/a	LEG	7	6	[0, 0, 0]	n/a	FR1	0	R1150J
683.558	1.617	689697	WORD	n/a	wordpools/wordpool_EN.txt	BOWL	8	6	[0, 0, 0]	n/a	FR1	0	R1150J
685.175	0.784	691314	WORD_OFF	n/a	n/a	BOWL	8	6	[0, 0, 0]	n/a	FR1	0	R1150J
685.959	1.617	692098	WORD	n/a	wordpools/wordpool_EN.txt	FACE	9	6	[0, 0, 0]	n/a	FR1	0	R1150J
687.576	0.9	693715	WORD_OFF	n/a	n/a	FACE	9	6	[0, 0, 0]	n/a	FR1	0	R1150J
688.476	1.617	694615	WORD	n/a	wordpools/wordpool_EN.txt	HILL	10	6	[0, 0, 0]	n/a	FR1	0	R1150J
690.093	0.9	696232	WORD_OFF	n/a	n/a	HILL	10	6	[0, 0, 0]	n/a	FR1	0	R1150J
690.993	1.617	697132	WORD	n/a	wordpools/wordpool_EN.txt	GLASS	11	6	[0, 0, 0]	n/a	FR1	0	R1150J
692.61	0.866	698749	WORD_OFF	n/a	n/a	GLASS	11	6	[0, 0, 0]	n/a	FR1	0	R1150J
693.476	1.617	699615	WORD	n/a	wordpools/wordpool_EN.txt	NOSE	12	6	[0, 0, 0]	n/a	FR1	0	R1150J
695.093	0.0	701232	WORD_OFF	n/a	n/a	NOSE	12	6	[0, 0, 0]	n/a	FR1	0	R1150J
695.093	0.001	701232	DISTRACT_START	n/a	n/a	n/a	-999	6	[0, 0, 0]	n/a	FR1	0	R1150J
695.094	0.016	701233	START	n/a	n/a	n/a	-999	6	[-999, -999, -999]	n/a	FR1	0	R1150J
695.11	6.051	701249	PROB	6.051	n/a	n/a	-999	6	[7, 9, 9]	25	FR1	0	R1150J
701.161	2.617	707300	PROB	2.617	n/a	n/a	-999	6	[6, 7, 6]	19	FR1	0	R1150J
703.778	4.651	709917	PROB	4.651	n/a	n/a	-999	6	[7, 8, 9]	24	FR1	0	R1150J
708.429	3.617	714568	PROB	3.617	n/a	n/a	-999	6	[6, 8, 9]	23	FR1	0	R1150J
712.046	6.81	718185	PROB	6.81	n/a	n/a	-999	6	[8, 5, 7]	20	FR1	0	R1150J
718.856	0.007	724995	STOP	n/a	n/a	n/a	-999	6	[-999, -999, -999]	n/a	FR1	0	R1150J
718.863	0.534	725002	DISTRACT_END	n/a	n/a	n/a	-999	6	[0, 0, 0]	n/a	FR1	0	R1150J
719.397	0.517	725536	RETRIEVAL_ORIENT	n/a	n/a	n/a	-999	6	[0, 0, 0]	n/a	FR1	0	R1150J
719.914	1.863	726053	REC_START	n/a	n/a	n/a	-999	6	[0, 0, 0]	n/a	FR1	0	R1150J
721.777	1.965	727916	REC_WORD	1.965	n/a	LEG	-999	6	[0, 0, 0]	n/a	FR1	0	R1150J
723.742	3.235	729881	REC_WORD	3.235	n/a	MUD	-999	6	[0, 0, 0]	n/a	FR1	0	R1150J
726.977	5.486	733116	REC_WORD	5.486	n/a	HILL	-999	6	[0, 0, 0]	n/a	FR1	0	R1150J
732.463	0.752	738602	REC_WORD	0.752	n/a	MUD	-999	6	[0, 0, 0]	n/a	FR1	0	R1150J
733.215	12.734	739354	REC_WORD	12.734	n/a	HILL	-999	6	[0, 0, 0]	n/a	FR1	0	R1150J
745.949	1.061	752088	REC_WORD_VV	1.061	n/a	<>	-999	6	[0, 0, 0]	n/a	FR1	0	R1150J
747.01	1.0	753149	REC_WORD_VV	1.0	n/a	<>	-999	6	[0, 0, 0]	n/a	FR1	0	R1150J
748.01	1.0	754148	REC_WORD_VV	1.0	n/a	<>	-999	6	[0, 0, 0]	n/a	FR1	0	R1150J
749.01	0.916	755148	REC_WORD_VV	0.916	n/a	<>	-999	6	[0, 0, 0]	n/a	FR1	0	R1150J
749.926	5.192	756064	REC_END	n/a	n/a	n/a	-999	6	[0, 0, 0]	n/a	FR1	0	R1150J
755.118	0.5	761256	TRIAL	n/a	n/a	n/a	-999	7	[0, 0, 0]	n/a	FR1	0	R1150J
755.618	10.428	761756	COUNTDOWN_START	n/a	n/a	n/a	-999	7	[0, 0, 0]	n/a	FR1	0	R1150J
766.046	0.007	772184	COUNTDOWN_END	n/a	n/a	n/a	-999	7	[0, 0, 0]	n/a	FR1	0	R1150J
766.053	1.617	772191	ORIENT	n/a	n/a	n/a	-999	7	[0, 0, 0]	n/a	FR1	0	R1150J
767.67	2.25	773808	ORIENT_OFF	n/a	n/a	n/a	-999	7	[0, 0, 0]	n/a	FR1	0	R1150J
769.92	1.617	776058	WORD	n/a	wordpools/wordpool_EN.txt	KEY	1	7	[0, 0, 0]	n/a	FR1	0	R1150J
771.537	1.0	777675	WORD_OFF	n/a	n/a	KEY	1	7	[0, 0, 0]	n/a	FR1	0	R1150J
772.537	1.617	778675	WORD	n/a	wordpools/wordpool_EN.txt	RAIN	2	7	[0, 0, 0]	n/a	FR1	0	R1150J
774.154	1.0	780292	WORD_OFF	n/a	n/a	RAIN	2	7	[0, 0, 0]	n/a	FR1	0	R1150J
775.154	1.617	781292	WORD	n/a	wordpools/wordpool_EN.txt	WORLD	3	7	[0, 0, 0]	n/a	FR1	0	R1150J
776.771	0.833	782909	WORD_OFF	n/a	n/a	WORLD	3	7	[0, 0, 0]	n/a	FR1	0	R1150J
777.604	1.617	783742	WORD	n/a	wordpools/wordpool_EN.txt	CHIEF	4	7	[0, 0, 0]	n/a	FR1	0	R1150J
779.221	0.934	785359	WORD_OFF	n/a	n/a	CHIEF	4	7	[0, 0, 0]	n/a	FR1	0	R1150J
780.155	1.617	786293	WORD	n/a	wordpools/wordpool_EN.txt	CHEEK	5	7	[0, 0, 0]	n/a	FR1	0	R1150J
781.772	0.916	787910	WORD_OFF	n/a	n/a	CHEEK	5	7	[0, 0, 0]	n/a	FR1	0	R1150J
782.688	1.617	788826	WORD	n/a	wordpools/wordpool_EN.txt	CASH	6	7	[0, 0, 0]	n/a	FR1	0	R1150J
784.305	0.883	790443	WORD_OFF	n/a	n/a	CASH	6	7	[0, 0, 0]	n/a	FR1	0	R1150J
785.188	1.617	791326	WORD	n/a	wordpools/wordpool_EN.txt	FISH	7	7	[0, 0, 0]	n/a	FR1	0	R1150J
786.805	0.784	792943	WORD_OFF	n/a	n/a	FISH	7	7	[0, 0, 0]	n/a	FR1	0	R1150J
787.589	1.617	793727	WORD	n/a	wordpools/wordpool_EN.txt	SHIP	8	7	[0, 0, 0]	n/a	FR1	0	R1150J
789.206	0.883	795344	WORD_OFF	n/a	n/a	SHIP	8	7	[0, 0, 0]	n/a	FR1	0	R1150J
790.089	1.617	796227	WORD	n/a	wordpools/wordpool_EN.txt	PARK	9	7	[0, 0, 0]	n/a	FR1	0	R1150J
791.706	0.917	797844	WORD_OFF	n/a	n/a	PARK	9	7	[0, 0, 0]	n/a	FR1	0	R1150J
792.623	1.617	798761	WORD	n/a	wordpools/wordpool_EN.txt	SKUNK	10	7	[0, 0, 0]	n/a	FR1	0	R1150J
794.24	0.916	800378	WORD_OFF	n/a	n/a	SKUNK	10	7	[0, 0, 0]	n/a	FR1	0	R1150J
795.156	1.617	801294	WORD	n/a	wordpools/wordpool_EN.txt	TENT	11	7	[0, 0, 0]	n/a	FR1	0	R1150J
796.773	0.968	802911	WORD_OFF	n/a	n/a	TENT	11	7	[0, 0, 0]	n/a	FR1	0	R1150J
797.741	1.616	803879	WORD	n/a	wordpools/wordpool_EN.txt	MAIL	12	7	[0, 0, 0]	n/a	FR1	0	R1150J
799.357	0.0	805495	WORD_OFF	n/a	n/a	MAIL	12	7	[0, 0, 0]	n/a	FR1	0	R1150J
799.357	0.001	805495	DISTRACT_START	n/a	n/a	n/a	-999	7	[0, 0, 0]	n/a	FR1	0	R1150J
799.358	0.016	805496	START	n/a	n/a	n/a	-999	7	[-999, -999, -999]	n/a	FR1	0	R1150J
799.374	2.634	805512	PROB	2.634	n/a	n/a	-999	7	[3, 9, 9]	21	FR1	0	R1150J
802.008	3.85	808146	PROB	3.85	n/a	n/a	-999	7	[9, 6, 2]	17	FR1	0	R1150J
805.858	4.251	811996	PROB	4.251	n/a	n/a	-999	7	[8, 7, 8]	22	FR1	0	R1150J
810.109	3.584	816247	PROB	3.584	n/a	n/a	-999	7	[3, 7, 7]	17	FR1	0	R1150J
813.693	5.267	819831	PROB	5.267	n/a	n/a	-999	7	[8, 3, 3]	16	FR1	0	R1150J
818.96	3.285	825097	PROB	3.285	n/a	n/a	-999	7	[1, 5, 7]	14	FR1	0	R1150J
822.245	0.016	828382	STOP	n/a	n/a	n/a	-999	7	[-999, -999, -999]	n/a	FR1	0	R1150J
822.261	0.516	828398	DISTRACT_END	n/a	n/a	n/a	-999	7	[0, 0, 0]	n/a	FR1	0	R1150J
822.777	0.518	828914	RETRIEVAL_ORIENT	n/a	n/a	n/a	-999	7	[0, 0, 0]	n/a	FR1	0	R1150J
823.295	2.041	829432	REC_START	n/a	n/a	n/a	-999	7	[0, 0, 0]	n/a	FR1	0	R1150J
825.336	13.523	831473	REC_WORD	13.523	n/a	SKUNK	-999	7	[0, 0, 0]	n/a	FR1	0	R1150J
838.859	1.0	844996	REC_WORD_VV	1.0	n/a	<>	-999	7	[0, 0, 0]	n/a	FR1	0	R1150J
839.859	1.108	845996	REC_WORD_VV	1.108	n/a	<>	-999	7	[0, 0, 0]	n/a	FR1	0	R1150J
840.967	0.652	847104	REC_WORD	0.652	n/a	SKUNK	-999	7	[0, 0, 0]	n/a	FR1	0	R1150J
841.619	1.0	847756	REC_WORD_VV	1.0	n/a	<>	-999	7	[0, 0, 0]	n/a	FR1	0	R1150J
842.619	1.0	848756	REC_WORD_VV	1.0	n/a	<>	-999	7	[0, 0, 0]	n/a	FR1	0	R1150J
843.619	0.325	849756	REC_WORD_VV	0.325	n/a	<>	-999	7	[0, 0, 0]	n/a	FR1	0	R1150J
843.944	1.379	850081	REC_WORD	1.379	n/a	SKUNK	-999	7	[0, 0, 0]	n/a	FR1	0	R1150J
845.323	7.983	851460	REC_WORD_VV	7.983	n/a	<>	-999	7	[0, 0, 0]	n/a	FR1	0	R1150J
853.306	17.895	859443	REC_END	n/a	n/a	n/a	-999	7	[0, 0, 0]	n/a	FR1	0	R1150J
871.201	0.5	877338	TRIAL	n/a	n/a	n/a	-999	8	[0, 0, 0]	n/a	FR1	0	R1150J
871.701	10.428	877838	COUNTDOWN_START	n/a	n/a	n/a	-999	8	[0, 0, 0]	n/a	FR1	0	R1150J
882.129	0.006	888266	COUNTDOWN_END	n/a	n/a	n/a	-999	8	[0, 0, 0]	n/a	FR1	0	R1150J
882.135	1.617	888272	ORIENT	n/a	n/a	n/a	-999	8	[0, 0, 0]	n/a	FR1	0	R1150J
883.752	2.133	889889	ORIENT_OFF	n/a	n/a	n/a	-999	8	[0, 0, 0]	n/a	FR1	0	R1150J
885.885	1.617	892022	WORD	n/a	wordpools/wordpool_EN.txt	SUN	1	8	[0, 0, 0]	n/a	FR1	0	R1150J
887.502	0.967	893639	WORD_OFF	n/a	n/a	SUN	1	8	[0, 0, 0]	n/a	FR1	0	R1150J
888.469	1.617	894606	WORD	n/a	wordpools/wordpool_EN.txt	GEESE	2	8	[0, 0, 0]	n/a	FR1	0	R1150J
890.086	0.917	896222	WORD_OFF	n/a	n/a	GEESE	2	8	[0, 0, 0]	n/a	FR1	0	R1150J
891.003	1.616	897139	WORD	n/a	wordpools/wordpool_EN.txt	BLOOM	3	8	[0, 0, 0]	n/a	FR1	0	R1150J
892.619	0.817	898755	WORD_OFF	n/a	n/a	BLOOM	3	8	[0, 0, 0]	n/a	FR1	0	R1150J
893.436	1.617	899572	WORD	n/a	wordpools/wordpool_EN.txt	PEAR	4	8	[0, 0, 0]	n/a	FR1	0	R1150J
895.053	0.917	901189	WORD_OFF	n/a	n/a	PEAR	4	8	[0, 0, 0]	n/a	FR1	0	R1150J
895.97	1.617	902106	WORD	n/a	wordpools/wordpool_EN.txt	WHALE	5	8	[0, 0, 0]	n/a	FR1	0	R1150J
897.587	0.8	903723	WORD_OFF	n/a	n/a	WHALE	5	8	[0, 0, 0]	n/a	FR1	0	R1150J
898.387	1.617	904523	WORD	n/a	wordpools/wordpool_EN.txt	BALL	6	8	[0, 0, 0]	n/a	FR1	0	R1150J
900.004	0.817	906140	WORD_OFF	n/a	n/a	BALL	6	8	[0, 0, 0]	n/a	FR1	0	R1150J
900.821	1.616	906957	WORD	n/a	wordpools/wordpool_EN.txt	NEST	7	8	[0, 0, 0]	n/a	FR1	0	R1150J
902.437	0.884	908573	WORD_OFF	n/a	n/a	NEST	7	8	[0, 0, 0]	n/a	FR1	0	R1150J
903.321	1.617	909457	WORD	n/a	wordpools/wordpool_EN.txt	SHEEP	8	8	[0, 0, 0]	n/a	FR1	0	R1150J
904.938	0.917	911074	WORD_OFF	n/a	n/a	SHEEP	8	8	[0, 0, 0]	n/a	FR1	0	R1150J
905.855	1.617	911991	WORD	n/a	wordpools/wordpool_EN.txt	FRUIT	9	8	[0, 0, 0]	n/a	FR1	0	R1150J
907.472	0.9	913608	WORD_OFF	n/a	n/a	FRUIT	9	8	[0, 0, 0]	n/a	FR1	0	R1150J
908.372	1.617	914508	WORD	n/a	wordpools/wordpool_EN.txt	LAWN	10	8	[0, 0, 0]	n/a	FR1	0	R1150J
909.989	0.883	916125	WORD_OFF	n/a	n/a	LAWN	10	8	[0, 0, 0]	n/a	FR1	0	R1150J
910.872	1.617	917008	WORD	n/a	wordpools/wordpool_EN.txt	WING	11	8	[0, 0, 0]	n/a	FR1	0	R1150J
912.489	0.933	918625	WORD_OFF	n/a	n/a	WING	11	8	[0, 0, 0]	n/a	FR1	0	R1150J
913.422	1.617	919558	WORD	n/a	wordpools/wordpool_EN.txt	SNAKE	12	8	[0, 0, 0]	n/a	FR1	0	R1150J
915.039	0.0	921175	WORD_OFF	n/a	n/a	SNAKE	12	8	[0, 0, 0]	n/a	FR1	0	R1150J
915.039	0.001	921175	DISTRACT_START	n/a	n/a	n/a	-999	8	[0, 0, 0]	n/a	FR1	0	R1150J
915.04	0.016	921176	START	n/a	n/a	n/a	-999	8	[-999, -999, -999]	n/a	FR1	0	R1150J
915.056	4.084	921192	PROB	4.084	n/a	n/a	-999	8	[6, 5, 9]	20	FR1	0	R1150J
919.14	3.084	925276	PROB	3.084	n/a	n/a	-999	8	[1, 3, 5]	9	FR1	0	R1150J
922.224	3.017	928360	PROB	3.017	n/a	n/a	-999	8	[3, 4, 7]	14	FR1	0	R1150J
925.241	1.934	931377	PROB	1.934	n/a	n/a	-999	8	[6, 2, 6]	14	FR1	0	R1150J
927.175	1.567	933311	PROB	1.567	n/a	n/a	-999	8	[3, 7, 1]	11	FR1	0	R1150J
928.742	3.35	934878	PROB	3.35	n/a	n/a	-999	8	[4, 1, 9]	14	FR1	0	R1150J
932.092	1.783	938228	PROB	1.783	n/a	n/a	-999	8	[4, 6, 5]	15	FR1	0	R1150J
933.875	1.918	940011	PROB	1.918	n/a	n/a	-999	8	[7, 1, 7]	15	FR1	0	R1150J
935.793	0.016	941929	STOP	n/a	n/a	n/a	-999	8	[-999, -999, -999]	n/a	FR1	0	R1150J
935.809	0.617	941945	DISTRACT_END	n/a	n/a	n/a	-999	8	[0, 0, 0]	n/a	FR1	0	R1150J
936.426	0.518	942562	RETRIEVAL_ORIENT	n/a	n/a	n/a	-999	8	[0, 0, 0]	n/a	FR1	0	R1150J
936.944	3.342	943080	REC_START	n/a	n/a	n/a	-999	8	[0, 0, 0]	n/a	FR1	0	R1150J
940.286	26.668	946422	REC_WORD_VV	26.668	n/a	<>	-999	8	[0, 0, 0]	n/a	FR1	0	R1150J
966.954	5.509	973089	REC_END	n/a	n/a	n/a	-999	8	[0, 0, 0]	n/a	FR1	0	R1150J
972.463	0.5	978598	TRIAL	n/a	n/a	n/a	-999	9	[0, 0, 0]	n/a	FR1	0	R1150J
972.963	10.428	979098	COUNTDOWN_START	n/a	n/a	n/a	-999	9	[0, 0, 0]	n/a	FR1	0	R1150J
983.391	0.008	989526	COUNTDOWN_END	n/a	n/a	n/a	-999	9	[0, 0, 0]	n/a	FR1	0	R1150J
983.399	1.616	989534	ORIENT	n/a	n/a	n/a	-999	9	[0, 0, 0]	n/a	FR1	0	R1150J
985.015	2.068	991150	ORIENT_OFF	n/a	n/a	n/a	-999	9	[0, 0, 0]	n/a	FR1	0	R1150J
987.083	1.616	993218	WORD	n/a	wordpools/wordpool_EN.txt	RUG	1	9	[0, 0, 0]	n/a	FR1	0	R1150J
988.699	0.884	994834	WORD_OFF	n/a	n/a	RUG	1	9	[0, 0, 0]	n/a	FR1	0	R1150J
989.583	1.617	995718	WORD	n/a	wordpools/wordpool_EN.txt	STORM	2	9	[0, 0, 0]	n/a	FR1	0	R1150J
991.2	0.767	997335	WORD_OFF	n/a	n/a	STORM	2	9	[0, 0, 0]	n/a	FR1	0	R1150J
991.967	1.616	998102	WORD	n/a	wordpools/wordpool_EN.txt	CLOCK	3	9	[0, 0, 0]	n/a	FR1	0	R1150J
993.583	0.834	999718	WORD_OFF	n/a	n/a	CLOCK	3	9	[0, 0, 0]	n/a	FR1	0	R1150J
994.417	1.617	1000552	WORD	n/a	wordpools/wordpool_EN.txt	LAND	4	9	[0, 0, 0]	n/a	FR1	0	R1150J
996.034	0.849	1002169	WORD_OFF	n/a	n/a	LAND	4	9	[0, 0, 0]	n/a	FR1	0	R1150J
996.883	1.618	1003018	WORD	n/a	wordpools/wordpool_EN.txt	BIRD	5	9	[0, 0, 0]	n/a	FR1	0	R1150J
998.501	0.9	1004636	WORD_OFF	n/a	n/a	BIRD	5	9	[0, 0, 0]	n/a	FR1	0	R1150J
999.401	1.617	1005536	WORD	n/a	wordpools/wordpool_EN.txt	DOG	6	9	[0, 0, 0]	n/a	FR1	0	R1150J
1001.018	0.767	1007153	WORD_OFF	n/a	n/a	DOG	6	9	[0, 0, 0]	n/a	FR1	0	R1150J
1001.785	1.616	1007920	WORD	n/a	wordpools/wordpool_EN.txt	EEL	7	9	[0, 0, 0]	n/a	FR1	0	R1150J
1003.401	0.817	1009536	WORD_OFF	n/a	n/a	EEL	7	9	[0, 0, 0]	n/a	FR1	0	R1150J
1004.218	1.617	1010353	WORD	n/a	wordpools/wordpool_EN.txt	NET	8	9	[0, 0, 0]	n/a	FR1	0	R1150J
1005.835	0.967	1011970	WORD_OFF	n/a	n/a	NET	8	9	[0, 0, 0]	n/a	FR1	0	R1150J
1006.802	1.617	1012937	WORD	n/a	wordpools/wordpool_EN.txt	INK	9	9	[0, 0, 0]	n/a	FR1	0	R1150J
1008.419	1.0	1014554	WORD_OFF	n/a	n/a	INK	9	9	[0, 0, 0]	n/a	FR1	0	R1150J
1009.419	1.617	1015554	WORD	n/a	wordpools/wordpool_EN.txt	SKY	10	9	[0, 0, 0]	n/a	FR1	0	R1150J
1011.036	0.9	1017171	WORD_OFF	n/a	n/a	SKY	10	9	[0, 0, 0]	n/a	FR1	0	R1150J
1011.936	1.616	1018071	WORD	n/a	wordpools/wordpool_EN.txt	TOOTH	11	9	[0, 0, 0]	n/a	FR1	0	R1150J
1013.552	0.984	1019687	WORD_OFF	n/a	n/a	TOOTH	11	9	[0, 0, 0]	n/a	FR1	0	R1150J
1014.536	1.617	1020671	WORD	n/a	wordpools/wordpool_EN.txt	ICE	12	9	[0, 0, 0]	n/a	FR1	0	R1150J
1016.153	0.0	1022288	WORD_OFF	n/a	n/a	ICE	12	9	[0, 0, 0]	n/a	FR1	0	R1150J
1016.153	0.001	1022288	DISTRACT_START	n/a	n/a	n/a	-999	9	[0, 0, 0]	n/a	FR1	0	R1150J
1016.154	0.016	1022289	START	n/a	n/a	n/a	-999	9	[-999, -999, -999]	n/a	FR1	0	R1150J
1016.17	4.784	1022305	PROB	4.784	n/a	n/a	-999	9	[4, 5, 7]	16	FR1	0	R1150J
1020.954	8.817	1027089	PROB	8.817	n/a	n/a	-999	9	[8, 7, 9]	25	FR1	0	R1150J
1029.771	6.201	1035906	PROB	6.201	n/a	n/a	-999	9	[5, 2, 2]	9	FR1	0	R1150J
1035.972	1.441	1042106	PROB	1.441	n/a	n/a	-999	9	[1, 5, 5]	11	FR1	0	R1150J
1037.413	0.009	1043547	STOP	n/a	n/a	n/a	-999	9	[-999, -999, -999]	n/a	FR1	0	R1150J
1037.422	0.584	1043556	DISTRACT_END	n/a	n/a	n/a	-999	9	[0, 0, 0]	n/a	FR1	0	R1150J
1038.006	0.517	1044140	RETRIEVAL_ORIENT	n/a	n/a	n/a	-999	9	[0, 0, 0]	n/a	FR1	0	R1150J
1038.523	15.13	1044657	REC_START	n/a	n/a	n/a	-999	9	[0, 0, 0]	n/a	FR1	0	R1150J
1053.653	12.596	1059787	REC_WORD	12.596	n/a	CLOCK	-999	9	[0, 0, 0]	n/a	FR1	0	R1150J
1066.249	2.285	1072383	REC_WORD	2.285	n/a	SPEECH	-999	9	[0, 0, 0]	n/a	FR1	0	R1150J
1068.534	5.126	1074668	REC_END	n/a	n/a	n/a	-999	9	[0, 0, 0]	n/a	FR1	0	R1150J
1073.66	0.5	1079794	TRIAL	n/a	n/a	n/a	-999	10	[0, 0, 0]	n/a	FR1	0	R1150J
1074.16	10.428	1080294	COUNTDOWN_START	n/a	n/a	n/a	-999	10	[0, 0, 0]	n/a	FR1	0	R1150J
1084.588	0.007	1090722	COUNTDOWN_END	n/a	n/a	n/a	-999	10	[0, 0, 0]	n/a	FR1	0	R1150J
1084.595	1.617	1090729	ORIENT	n/a	n/a	n/a	-999	10	[0, 0, 0]	n/a	FR1	0	R1150J
1086.212	2.001	1092346	ORIENT_OFF	n/a	n/a	n/a	-999	10	[0, 0, 0]	n/a	FR1	0	R1150J
1088.213	1.616	1094347	WORD	n/a	wordpools/wordpool_EN.txt	SWORD	1	10	[0, 0, 0]	n/a	FR1	0	R1150J
1089.829	0.801	1095963	WORD_OFF	n/a	n/a	SWORD	1	10	[0, 0, 0]	n/a	FR1	0	R1150J
1090.63	1.616	1096764	WORD	n/a	wordpools/wordpool_EN.txt	STRING	2	10	[0, 0, 0]	n/a	FR1	0	R1150J
1092.246	0.817	1098380	WORD_OFF	n/a	n/a	STRING	2	10	[0, 0, 0]	n/a	FR1	0	R1150J
1093.063	1.617	1099197	WORD	n/a	wordpools/wordpool_EN.txt	BOARD	3	10	[0, 0, 0]	n/a	FR1	0	R1150J
1094.68	1.0	1100814	WORD_OFF	n/a	n/a	BOARD	3	10	[0, 0, 0]	n/a	FR1	0	R1150J
1095.68	1.617	1101814	WORD	n/a	wordpools/wordpool_EN.txt	SLUSH	4	10	[0, 0, 0]	n/a	FR1	0	R1150J
1097.297	0.983	1103431	WORD_OFF	n/a	n/a	SLUSH	4	10	[0, 0, 0]	n/a	FR1	0	R1150J
1098.28	1.617	1104414	WORD	n/a	wordpools/wordpool_EN.txt	FOAM	5	10	[0, 0, 0]	n/a	FR1	0	R1150J
1099.897	0.951	1106031	WORD_OFF	n/a	n/a	FOAM	5	10	[0, 0, 0]	n/a	FR1	0	R1150J
1100.848	1.617	1106982	WORD	n/a	wordpools/wordpool_EN.txt	SCHOOL	6	10	[0, 0, 0]	n/a	FR1	0	R1150J
1102.465	1.0	1108599	WORD_OFF	n/a	n/a	SCHOOL	6	10	[0, 0, 0]	n/a	FR1	0	R1150J
1103.465	1.617	1109598	WORD	n/a	wordpools/wordpool_EN.txt	GUARD	7	10	[0, 0, 0]	n/a	FR1	0	R1150J
1105.082	0.783	1111215	WORD_OFF	n/a	n/a	GUARD	7	10	[0, 0, 0]	n/a	FR1	0	R1150J
1105.865	1.617	1111998	WORD	n/a	wordpools/wordpool_EN.txt	BEE	8	10	[0, 0, 0]	n/a	FR1	0	R1150J
1107.482	0.883	1113615	WORD_OFF	n/a	n/a	BEE	8	10	[0, 0, 0]	n/a	FR1	0	R1150J
1108.365	1.617	1114498	WORD	n/a	wordpools/wordpool_EN.txt	PIE	9	10	[0, 0, 0]	n/a	FR1	0	R1150J
1109.982	0.817	1116115	WORD_OFF	n/a	n/a	PIE	9	10	[0, 0, 0]	n/a	FR1	0	R1150J
1110.799	1.617	1116932	WORD	n/a	wordpools/wordpool_EN.txt	STREET	10	10	[0, 0, 0]	n/a	FR1	0	R1150J
1112.416	1.0	1118549	WORD_OFF	n/a	n/a	STREET	10	10	[0, 0, 0]	n/a	FR1	0	R1150J
1113.416	1.617	1119549	WORD	n/a	wordpools/wordpool_EN.txt	CALF	11	10	[0, 0, 0]	n/a	FR1	0	R1150J
1115.033	0.817	1121166	WORD_OFF	n/a	n/a	CALF	11	10	[0, 0, 0]	n/a	FR1	0	R1150J
1115.85	1.617	1121983	WORD	n/a	wordpools/wordpool_EN.txt	SOCK	12	10	[0, 0, 0]	n/a	FR1	0	R1150J
1117.467	0.0	1123600	WORD_OFF	n/a	n/a	SOCK	12	10	[0, 0, 0]	n/a	FR1	0	R1150J
1117.467	0.0	1123600	DISTRACT_START	n/a	n/a	n/a	-999	10	[0, 0, 0]	n/a	FR1	0	R1150J
1117.467	0.016	1123600	START	n/a	n/a	n/a	-999	10	[-999, -999, -999]	n/a	FR1	0	R1150J
1117.483	3.434	1123616	PROB	3.434	n/a	n/a	-999	10	[7, 6, 4]	17	FR1	0	R1150J
1120.917	2.818	1127050	PROB	2.818	n/a	n/a	-999	10	[7, 4, 8]	19	FR1	0	R1150J
1123.735	4.633	1129868	PROB	4.633	n/a	n/a	-999	10	[6, 2, 4]	12	FR1	0	R1150J
1128.368	1.734	1134501	PROB	1.734	n/a	n/a	-999	10	[2, 6, 6]	14	FR1	0	R1150J
1130.102	3.833	1136235	PROB	3.833	n/a	n/a	-999	10	[7, 9, 7]	23	FR1	0	R1150J
1133.935	2.351	1140068	PROB	2.351	n/a	n/a	-999	10	[4, 4, 9]	17	FR1	0	R1150J
1136.286	2.692	1142419	PROB	2.692	n/a	n/a	-999	10	[7, 3, 3]	13	FR1	0	R1150J
1138.978	0.008	1145111	STOP	n/a	n/a	n/a	-999	10	[-999, -999, -999]	n/a	FR1	0	R1150J
1138.986	0.517	1145119	DISTRACT_END	n/a	n/a	n/a	-999	10	[0, 0, 0]	n/a	FR1	0	R1150J
1139.503	0.517	1145636	RETRIEVAL_ORIENT	n/a	n/a	n/a	-999	10	[0, 0, 0]	n/a	FR1	0	R1150J
1140.02	1.977	1146153	REC_START	n/a	n/a	n/a	-999	10	[0, 0, 0]	n/a	FR1	0	R1150J
1141.997	1.201	1148130	REC_WORD	1.201	n/a	BEE	-999	10	[0, 0, 0]	n/a	FR1	0	R1150J
1143.198	1.521	1149331	REC_WORD	1.521	n/a	PIE	-999	10	[0, 0, 0]	n/a	FR1	0	R1150J
1144.719	2.816	1150852	REC_WORD	2.816	n/a	STREET	-999	10	[0, 0, 0]	n/a	FR1	0	R1150J
1147.535	2.87	1153668	REC_WORD	2.87	n/a	CLOCK	-999	10	[0, 0, 0]	n/a	FR1	0	R1150J
1150.405	0.237	1156538	REC_WORD_VV	0.237	n/a	<>	-999	10	[0, 0, 0]	n/a	FR1	0	R1150J
1150.642	4.42	1156775	REC_WORD	4.42	n/a	BLOCK	-999	10	[0, 0, 0]	n/a	FR1	0	R1150J
1155.062	1.0	1161195	REC_WORD_VV	1.0	n/a	<>	-999	10	[0, 0, 0]	n/a	FR1	0	R1150J
1156.062	13.969	1162195	REC_WORD_VV	13.969	n/a	<>	-999	10	[0, 0, 0]	n/a	FR1	0	R1150J
1170.031	5.26	1176164	REC_END	n/a	n/a	n/a	-999	10	[0, 0, 0]	n/a	FR1	0	R1150J
1175.291	0.5	1181423	TRIAL	n/a	n/a	n/a	-999	11	[0, 0, 0]	n/a	FR1	0	R1150J
1175.791	10.428	1181923	COUNTDOWN_START	n/a	n/a	n/a	-999	11	[0, 0, 0]	n/a	FR1	0	R1150J
1186.219	0.007	1192351	COUNTDOWN_END	n/a	n/a	n/a	-999	11	[0, 0, 0]	n/a	FR1	0	R1150J
1186.226	1.617	1192358	ORIENT	n/a	n/a	n/a	-999	11	[0, 0, 0]	n/a	FR1	0	R1150J
1187.843	2.05	1193975	ORIENT_OFF	n/a	n/a	n/a	-999	11	[0, 0, 0]	n/a	FR1	0	R1150J
1189.893	1.617	1196025	WORD	n/a	wordpools/wordpool_EN.txt	HAWK	1	11	[0, 0, 0]	n/a	FR1	0	R1150J
1191.51	0.817	1197642	WORD_OFF	n/a	n/a	HAWK	1	11	[0, 0, 0]	n/a	FR1	0	R1150J
1192.327	1.616	1198459	WORD	n/a	wordpools/wordpool_EN.txt	MOON	2	11	[0, 0, 0]	n/a	FR1	0	R1150J
1193.943	0.884	1200075	WORD_OFF	n/a	n/a	MOON	2	11	[0, 0, 0]	n/a	FR1	0	R1150J
1194.827	1.617	1200959	WORD	n/a	wordpools/wordpool_EN.txt	ANT	3	11	[0, 0, 0]	n/a	FR1	0	R1150J
1196.444	0.8	1202576	WORD_OFF	n/a	n/a	ANT	3	11	[0, 0, 0]	n/a	FR1	0	R1150J
1197.244	1.617	1203376	WORD	n/a	wordpools/wordpool_EN.txt	BRICK	4	11	[0, 0, 0]	n/a	FR1	0	R1150J
1198.861	0.884	1204993	WORD_OFF	n/a	n/a	BRICK	4	11	[0, 0, 0]	n/a	FR1	0	R1150J
1199.745	1.616	1205877	WORD	n/a	wordpools/wordpool_EN.txt	TEETH	5	11	[0, 0, 0]	n/a	FR1	0	R1150J
1201.361	0.917	1207493	WORD_OFF	n/a	n/a	TEETH	5	11	[0, 0, 0]	n/a	FR1	0	R1150J
1202.278	1.617	1208410	WORD	n/a	wordpools/wordpool_EN.txt	GATE	6	11	[0, 0, 0]	n/a	FR1	0	R1150J
1203.895	0.851	1210027	WORD_OFF	n/a	n/a	GATE	6	11	[0, 0, 0]	n/a	FR1	0	R1150J
1204.746	1.616	1210878	WORD	n/a	wordpools/wordpool_EN.txt	CLIFF	7	11	[0, 0, 0]	n/a	FR1	0	R1150J
1206.362	1.017	1212494	WORD_OFF	n/a	n/a	CLIFF	7	11	[0, 0, 0]	n/a	FR1	0	R1150J
1207.379	1.616	1213511	WORD	n/a	wordpools/wordpool_EN.txt	SOUP	8	11	[0, 0, 0]	n/a	FR1	0	R1150J
1208.995	0.867	1215127	WORD_OFF	n/a	n/a	SOUP	8	11	[0, 0, 0]	n/a	FR1	0	R1150J
1209.862	1.617	1215994	WORD	n/a	wordpools/wordpool_EN.txt	SPARK	9	11	[0, 0, 0]	n/a	FR1	0	R1150J
1211.479	0.967	1217611	WORD_OFF	n/a	n/a	SPARK	9	11	[0, 0, 0]	n/a	FR1	0	R1150J
1212.446	1.617	1218578	WORD	n/a	wordpools/wordpool_EN.txt	RAT	10	11	[0, 0, 0]	n/a	FR1	0	R1150J
1214.063	0.983	1220195	WORD_OFF	n/a	n/a	RAT	10	11	[0, 0, 0]	n/a	FR1	0	R1150J
1215.046	1.617	1221178	WORD	n/a	wordpools/wordpool_EN.txt	HOLE	11	11	[0, 0, 0]	n/a	FR1	0	R1150J
1216.663	0.85	1222795	WORD_OFF	n/a	n/a	HOLE	11	11	[0, 0, 0]	n/a	FR1	0	R1150J
1217.513	1.617	1223645	WORD	n/a	wordpools/wordpool_EN.txt	HOOF	12	11	[0, 0, 0]	n/a	FR1	0	R1150J
1219.13	0.0	1225262	WORD_OFF	n/a	n/a	HOOF	12	11	[0, 0, 0]	n/a	FR1	0	R1150J
1219.13	0.001	1225262	DISTRACT_START	n/a	n/a	n/a	-999	11	[0, 0, 0]	n/a	FR1	0	R1150J
1219.131	0.016	1225263	START	n/a	n/a	n/a	-999	11	[-999, -999, -999]	n/a	FR1	0	R1150J
1219.147	2.684	1225279	PROB	2.684	n/a	n/a	-999	11	[8, 2, 7]	17	FR1	0	R1150J
1221.831	2.616	1227963	PROB	2.616	n/a	n/a	-999	11	[1, 1, 5]	7	FR1	0	R1150J
1224.447	2.984	1230579	PROB	2.984	n/a	n/a	-999	11	[1, 4, 9]	17	FR1	0	R1150J
1227.431	2.217	1233563	PROB	2.217	n/a	n/a	-999	11	[4, 1, 1]	6	FR1	0	R1150J
1229.648	4.267	1235780	PROB	4.267	n/a	n/a	-999	11	[9, 9, 4]	22	FR1	0	R1150J
1233.915	1.534	1240047	PROB	1.534	n/a	n/a	-999	11	[1, 7, 4]	12	FR1	0	R1150J
1235.449	4.684	1241581	PROB	4.684	n/a	n/a	-999	11	[3, 3, 1]	9	FR1	0	R1150J
1240.133	0.017	1246265	STOP	n/a	n/a	n/a	-999	11	[-999, -999, -999]	n/a	FR1	0	R1150J
1240.15	0.549	1246282	DISTRACT_END	n/a	n/a	n/a	-999	11	[0, 0, 0]	n/a	FR1	0	R1150J
1240.699	0.518	1246831	RETRIEVAL_ORIENT	n/a	n/a	n/a	-999	11	[0, 0, 0]	n/a	FR1	0	R1150J
1241.217	2.862	1247349	REC_START	n/a	n/a	n/a	-999	11	[0, 0, 0]	n/a	FR1	0	R1150J
1244.079	3.627	1250211	REC_WORD	3.627	n/a	SOUP	-999	11	[0, 0, 0]	n/a	FR1	0	R1150J
1247.706	3.534	1253837	REC_WORD	3.534	n/a	GATE	-999	11	[0, 0, 0]	n/a	FR1	0	R1150J
1251.24	19.989	1257371	REC_WORD	19.989	n/a	CLUE	-999	11	[0, 0, 0]	n/a	FR1	0	R1150J
1271.229	5.308	1277360	REC_END	n/a	n/a	n/a	-999	11	[0, 0, 0]	n/a	FR1	0	R1150J
1276.537	0.5	1282668	TRIAL	n/a	n/a	n/a	-999	12	[0, 0, 0]	n/a	FR1	0	R1150J
1277.037	10.428	1283168	COUNTDOWN_START	n/a	n/a	n/a	-999	12	[0, 0, 0]	n/a	FR1	0	R1150J
1287.465	0.008	1293596	COUNTDOWN_END	n/a	n/a	n/a	-999	12	[0, 0, 0]	n/a	FR1	0	R1150J
1287.473	1.616	1293604	ORIENT	n/a	n/a	n/a	-999	12	[0, 0, 0]	n/a	FR1	0	R1150J
1289.089	2.184	1295220	ORIENT_OFF	n/a	n/a	n/a	-999	12	[0, 0, 0]	n/a	FR1	0	R1150J
1291.273	1.617	1297404	WORD	n/a	wordpools/wordpool_EN.txt	FLEA	1	12	[0, 0, 0]	n/a	FR1	0	R1150J
1292.89	0.916	1299021	WORD_OFF	n/a	n/a	FLEA	1	12	[0, 0, 0]	n/a	FR1	0	R1150J
1293.806	1.617	1299937	WORD	n/a	wordpools/wordpool_EN.txt	DESK	2	12	[0, 0, 0]	n/a	FR1	0	R1150J
1295.423	0.984	1301554	WORD_OFF	n/a	n/a	DESK	2	12	[0, 0, 0]	n/a	FR1	0	R1150J
1296.407	1.617	1302538	WORD	n/a	wordpools/wordpool_EN.txt	SHRIMP	3	12	[0, 0, 0]	n/a	FR1	0	R1150J
1298.024	0.816	1304155	WORD_OFF	n/a	n/a	SHRIMP	3	12	[0, 0, 0]	n/a	FR1	0	R1150J
1298.84	1.618	1304971	WORD	n/a	wordpools/wordpool_EN.txt	HAT	4	12	[0, 0, 0]	n/a	FR1	0	R1150J
1300.458	0.933	1306589	WORD_OFF	n/a	n/a	HAT	4	12	[0, 0, 0]	n/a	FR1	0	R1150J
1301.391	1.617	1307522	WORD	n/a	wordpools/wordpool_EN.txt	POOL	5	12	[0, 0, 0]	n/a	FR1	0	R1150J
1303.008	0.8	1309139	WORD_OFF	n/a	n/a	POOL	5	12	[0, 0, 0]	n/a	FR1	0	R1150J
1303.808	1.617	1309939	WORD	n/a	wordpools/wordpool_EN.txt	BADGE	6	12	[0, 0, 0]	n/a	FR1	0	R1150J
1305.425	0.816	1311556	WORD_OFF	n/a	n/a	BADGE	6	12	[0, 0, 0]	n/a	FR1	0	R1150J
1306.241	1.617	1312372	WORD	n/a	wordpools/wordpool_EN.txt	DIME	7	12	[0, 0, 0]	n/a	FR1	0	R1150J
1307.858	1.001	1313989	WORD_OFF	n/a	n/a	DIME	7	12	[0, 0, 0]	n/a	FR1	0	R1150J
1308.859	1.617	1314990	WORD	n/a	wordpools/wordpool_EN.txt	HOOK	8	12	[0, 0, 0]	n/a	FR1	0	R1150J
1310.476	0.833	1316607	WORD_OFF	n/a	n/a	HOOK	8	12	[0, 0, 0]	n/a	FR1	0	R1150J
1311.309	1.616	1317440	WORD	n/a	wordpools/wordpool_EN.txt	FUR	9	12	[0, 0, 0]	n/a	FR1	0	R1150J
1312.925	0.784	1319056	WORD_OFF	n/a	n/a	FUR	9	12	[0, 0, 0]	n/a	FR1	0	R1150J
1313.709	1.617	1319840	WORD	n/a	wordpools/wordpool_EN.txt	ARK	10	12	[0, 0, 0]	n/a	FR1	0	R1150J
1315.326	0.8	1321457	WORD_OFF	n/a	n/a	ARK	10	12	[0, 0, 0]	n/a	FR1	0	R1150J
1316.126	1.618	1322256	WORD	n/a	wordpools/wordpool_EN.txt	CHALK	11	12	[0, 0, 0]	n/a	FR1	0	R1150J
1317.744	0.816	1323874	WORD_OFF	n/a	n/a	CHALK	11	12	[0, 0, 0]	n/a	FR1	0	R1150J
1318.56	1.617	1324690	WORD	n/a	wordpools/wordpool_EN.txt	MOTH	12	12	[0, 0, 0]	n/a	FR1	0	R1150J
1320.177	0.0	1326307	WORD_OFF	n/a	n/a	MOTH	12	12	[0, 0, 0]	n/a	FR1	0	R1150J
1320.177	0.0	1326307	DISTRACT_START	n/a	n/a	n/a	-999	12	[0, 0, 0]	n/a	FR1	0	R1150J
1320.177	0.016	1326307	START	n/a	n/a	n/a	-999	12	[-999, -999, -999]	n/a	FR1	0	R1150J
1320.193	2.4	1326323	PROB	2.4	n/a	n/a	-999	12	[7, 1, 3]	13	FR1	0	R1150J
1322.593	3.768	1328723	PROB	3.768	n/a	n/a	-999	12	[8, 3, 3]	14	FR1	0	R1150J
1326.361	3.184	1332491	PROB	3.184	n/a	n/a	-999	12	[4, 9, 3]	16	FR1	0	R1150J
1329.545	3.016	1335675	PROB	3.016	n/a	n/a	-999	12	[1, 2, 6]	9	FR1	0	R1150J
1332.561	6.186	1338691	PROB	6.186	n/a	n/a	-999	12	[7, 9, 5]	21	FR1	0	R1150J
1338.747	3.726	1344877	PROB	3.726	n/a	n/a	-999	12	[3, 5, 7]	18	FR1	0	R1150J
1342.473	0.006	1348603	STOP	n/a	n/a	n/a	-999	12	[-999, -999, -999]	n/a	FR1	0	R1150J
1342.479	0.567	1348609	DISTRACT_END	n/a	n/a	n/a	-999	12	[0, 0, 0]	n/a	FR1	0	R1150J
1343.046	0.518	1349176	RETRIEVAL_ORIENT	n/a	n/a	n/a	-999	12	[0, 0, 0]	n/a	FR1	0	R1150J
1343.564	2.82	1349694	REC_START	n/a	n/a	n/a	-999	12	[0, 0, 0]	n/a	FR1	0	R1150J
1346.384	27.192	1352514	REC_WORD	27.192	n/a	DIME	-999	12	[0, 0, 0]	n/a	FR1	0	R1150J
1373.576	6.759	1379706	REC_END	n/a	n/a	n/a	-999	12	[0, 0, 0]	n/a	FR1	0	R1150J
1380.335	0.5	1386465	TRIAL	n/a	n/a	n/a	-999	13	[0, 0, 0]	n/a	FR1	0	R1150J
1380.835	10.428	1386965	COUNTDOWN_START	n/a	n/a	n/a	-999	13	[0, 0, 0]	n/a	FR1	0	R1150J
1391.263	0.007	1397392	COUNTDOWN_END	n/a	n/a	n/a	-999	13	[0, 0, 0]	n/a	FR1	0	R1150J
1391.27	1.616	1397399	ORIENT	n/a	n/a	n/a	-999	13	[0, 0, 0]	n/a	FR1	0	R1150J
1392.886	2.0	1399015	ORIENT_OFF	n/a	n/a	n/a	-999	13	[0, 0, 0]	n/a	FR1	0	R1150J
1394.886	1.617	1401015	WORD	n/a	wordpools/wordpool_EN.txt	ZOO	1	13	[0, 0, 0]	n/a	FR1	0	R1150J
1396.503	0.817	1402632	WORD_OFF	n/a	n/a	ZOO	1	13	[0, 0, 0]	n/a	FR1	0	R1150J
1397.32	1.617	1403449	WORD	n/a	wordpools/wordpool_EN.txt	LAMP	2	13	[0, 0, 0]	n/a	FR1	0	R1150J
1398.937	0.917	1405066	WORD_OFF	n/a	n/a	LAMP	2	13	[0, 0, 0]	n/a	FR1	0	R1150J
1399.854	1.617	1405983	WORD	n/a	wordpools/wordpool_EN.txt	MULE	3	13	[0, 0, 0]	n/a	FR1	0	R1150J
1401.471	0.983	1407600	WORD_OFF	n/a	n/a	MULE	3	13	[0, 0, 0]	n/a	FR1	0	R1150J
1402.454	1.617	1408583	WORD	n/a	wordpools/wordpool_EN.txt	BOAT	4	13	[0, 0, 0]	n/a	FR1	0	R1150J
1404.071	0.884	1410200	WORD_OFF	n/a	n/a	BOAT	4	13	[0, 0, 0]	n/a	FR1	0	R1150J
1404.955	1.617	1411084	WORD	n/a	wordpools/wordpool_EN.txt	PEN	5	13	[0, 0, 0]	n/a	FR1	0	R1150J
1406.572	0.85	1412701	WORD_OFF	n/a	n/a	PEN	5	13	[0, 0, 0]	n/a	FR1	0	R1150J
1407.422	1.617	1413551	WORD	n/a	wordpools/wordpool_EN.txt	PRINCE	6	13	[0, 0, 0]	n/a	FR1	0	R1150J
1409.039	0.916	1415168	WORD_OFF	n/a	n/a	PRINCE	6	13	[0, 0, 0]	n/a	FR1	0	R1150J
1409.955	1.618	1416084	WORD	n/a	wordpools/wordpool_EN.txt	CORD	7	13	[0, 0, 0]	n/a	FR1	0	R1150J
1411.573	0.949	1417702	WORD_OFF	n/a	n/a	CORD	7	13	[0, 0, 0]	n/a	FR1	0	R1150J
1412.522	1.617	1418651	WORD	n/a	wordpools/wordpool_EN.txt	FILM	8	13	[0, 0, 0]	n/a	FR1	0	R1150J
1414.139	0.817	1420268	WORD_OFF	n/a	n/a	FILM	8	13	[0, 0, 0]	n/a	FR1	0	R1150J
1414.956	1.617	1421085	WORD	n/a	wordpools/wordpool_EN.txt	ROSE	9	13	[0, 0, 0]	n/a	FR1	0	R1150J
1416.573	0.8	1422702	WORD_OFF	n/a	n/a	ROSE	9	13	[0, 0, 0]	n/a	FR1	0	R1150J
1417.373	1.617	1423502	WORD	n/a	wordpools/wordpool_EN.txt	FUDGE	10	13	[0, 0, 0]	n/a	FR1	0	R1150J
1418.99	0.834	1425119	WORD_OFF	n/a	n/a	FUDGE	10	13	[0, 0, 0]	n/a	FR1	0	R1150J
1419.824	1.616	1425953	WORD	n/a	wordpools/wordpool_EN.txt	CLOUD	11	13	[0, 0, 0]	n/a	FR1	0	R1150J
1421.44	0.934	1427569	WORD_OFF	n/a	n/a	CLOUD	11	13	[0, 0, 0]	n/a	FR1	0	R1150J
1422.374	1.616	1428503	WORD	n/a	wordpools/wordpool_EN.txt	TOE	12	13	[0, 0, 0]	n/a	FR1	0	R1150J
1423.99	0.0	1430119	WORD_OFF	n/a	n/a	TOE	12	13	[0, 0, 0]	n/a	FR1	0	R1150J
1423.99	0.001	1430119	DISTRACT_START	n/a	n/a	n/a	-999	13	[0, 0, 0]	n/a	FR1	0	R1150J
1423.991	0.016	1430120	START	n/a	n/a	n/a	-999	13	[-999, -999, -999]	n/a	FR1	0	R1150J
1424.007	2.417	1430136	PROB	2.417	n/a	n/a	-999	13	[2, 2, 3]	7	FR1	0	R1150J
1426.424	2.384	1432553	PROB	2.384	n/a	n/a	-999	13	[7, 6, 6]	19	FR1	0	R1150J
1428.808	2.767	1434937	PROB	2.767	n/a	n/a	-999	13	[3, 6, 6]	15	FR1	0	R1150J
1431.575	3.067	1437704	PROB	3.067	n/a	n/a	-999	13	[8, 1, 4]	13	FR1	0	R1150J
1434.642	2.534	1440771	PROB	2.534	n/a	n/a	-999	13	[2, 6, 1]	10	FR1	0	R1150J
1437.176	3.267	1443305	PROB	3.267	n/a	n/a	-999	13	[2, 3, 8]	13	FR1	0	R1150J
1440.443	4.459	1446572	PROB	4.459	n/a	n/a	-999	13	[9, 4, 2]	15	FR1	0	R1150J
1444.902	0.008	1451031	STOP	n/a	n/a	n/a	-999	13	[-999, -999, -999]	n/a	FR1	0	R1150J
1444.91	0.516	1451039	DISTRACT_END	n/a	n/a	n/a	-999	13	[0, 0, 0]	n/a	FR1	0	R1150J
1445.426	0.519	1451555	RETRIEVAL_ORIENT	n/a	n/a	n/a	-999	13	[0, 0, 0]	n/a	FR1	0	R1150J
1445.945	2.455	1452074	REC_START	n/a	n/a	n/a	-999	13	[0, 0, 0]	n/a	FR1	0	R1150J
1448.4	24.351	1454529	REC_WORD	24.351	n/a	ZOO	-999	13	[0, 0, 0]	n/a	FR1	0	R1150J
1472.751	3.204	1478879	REC_WORD	3.204	n/a	CLOUD	-999	13	[0, 0, 0]	n/a	FR1	0	R1150J
1475.955	4.726	1482083	REC_END	n/a	n/a	n/a	-999	13	[0, 0, 0]	n/a	FR1	0	R1150J
1480.681	0.5	1486809	TRIAL	n/a	n/a	n/a	-999	14	[0, 0, 0]	n/a	FR1	0	R1150J
1481.181	10.428	1487309	COUNTDOWN_START	n/a	n/a	n/a	-999	14	[0, 0, 0]	n/a	FR1	0	R1150J
1491.609	0.008	1497737	COUNTDOWN_END	n/a	n/a	n/a	-999	14	[0, 0, 0]	n/a	FR1	0	R1150J
1491.617	1.616	1497745	ORIENT	n/a	n/a	n/a	-999	14	[0, 0, 0]	n/a	FR1	0	R1150J
1493.233	2.067	1499361	ORIENT_OFF	n/a	n/a	n/a	-999	14	[0, 0, 0]	n/a	FR1	0	R1150J
1495.3	1.617	1501428	WORD	n/a	wordpools/wordpool_EN.txt	STEAK	1	14	[0, 0, 0]	n/a	FR1	0	R1150J
1496.917	0.767	1503045	WORD_OFF	n/a	n/a	STEAK	1	14	[0, 0, 0]	n/a	FR1	0	R1150J
1497.684	1.617	1503812	WORD	n/a	wordpools/wordpool_EN.txt	LEAF	2	14	[0, 0, 0]	n/a	FR1	0	R1150J
1499.301	0.9	1505429	WORD_OFF	n/a	n/a	LEAF	2	14	[0, 0, 0]	n/a	FR1	0	R1150J
1500.201	1.617	1506329	WORD	n/a	wordpools/wordpool_EN.txt	TRAIN	3	14	[0, 0, 0]	n/a	FR1	0	R1150J
1501.818	0.934	1507946	WORD_OFF	n/a	n/a	TRAIN	3	14	[0, 0, 0]	n/a	FR1	0	R1150J
1502.752	1.616	1508880	WORD	n/a	wordpools/wordpool_EN.txt	PASTE	4	14	[0, 0, 0]	n/a	FR1	0	R1150J
1504.368	0.867	1510496	WORD_OFF	n/a	n/a	PASTE	4	14	[0, 0, 0]	n/a	FR1	0	R1150J
1505.235	1.617	1511363	WORD	n/a	wordpools/wordpool_EN.txt	CROWN	5	14	[0, 0, 0]	n/a	FR1	0	R1150J
1506.852	0.95	1512980	WORD_OFF	n/a	n/a	CROWN	5	14	[0, 0, 0]	n/a	FR1	0	R1150J
1507.802	1.617	1513930	WORD	n/a	wordpools/wordpool_EN.txt	CAT	6	14	[0, 0, 0]	n/a	FR1	0	R1150J
1509.419	0.767	1515547	WORD_OFF	n/a	n/a	CAT	6	14	[0, 0, 0]	n/a	FR1	0	R1150J
1510.186	1.616	1516314	WORD	n/a	wordpools/wordpool_EN.txt	TANK	7	14	[0, 0, 0]	n/a	FR1	0	R1150J
1511.802	0.767	1517930	WORD_OFF	n/a	n/a	TANK	7	14	[0, 0, 0]	n/a	FR1	0	R1150J
1512.569	1.617	1518697	WORD	n/a	wordpools/wordpool_EN.txt	DOOR	8	14	[0, 0, 0]	n/a	FR1	0	R1150J
1514.186	0.817	1520314	WORD_OFF	n/a	n/a	DOOR	8	14	[0, 0, 0]	n/a	FR1	0	R1150J
1515.003	1.617	1521131	WORD	n/a	wordpools/wordpool_EN.txt	OAR	9	14	[0, 0, 0]	n/a	FR1	0	R1150J
1516.62	0.933	1522748	WORD_OFF	n/a	n/a	OAR	9	14	[0, 0, 0]	n/a	FR1	0	R1150J
1517.553	1.617	1523681	WORD	n/a	wordpools/wordpool_EN.txt	DOCK	10	14	[0, 0, 0]	n/a	FR1	0	R1150J
1519.17	1.0	1525298	WORD_OFF	n/a	n/a	DOCK	10	14	[0, 0, 0]	n/a	FR1	0	R1150J
1520.17	1.617	1526298	WORD	n/a	wordpools/wordpool_EN.txt	SEA	11	14	[0, 0, 0]	n/a	FR1	0	R1150J
1521.787	0.8	1527915	WORD_OFF	n/a	n/a	SEA	11	14	[0, 0, 0]	n/a	FR1	0	R1150J
1522.587	1.617	1528715	WORD	n/a	wordpools/wordpool_EN.txt	TOAST	12	14	[0, 0, 0]	n/a	FR1	0	R1150J
1524.204	0.0	1530332	WORD_OFF	n/a	n/a	TOAST	12	14	[0, 0, 0]	n/a	FR1	0	R1150J
1524.204	0.0	1530332	DISTRACT_START	n/a	n/a	n/a	-999	14	[0, 0, 0]	n/a	FR1	0	R1150J
1524.204	0.016	1530332	START	n/a	n/a	n/a	-999	14	[-999, -999, -999]	n/a	FR1	0	R1150J
1524.22	4.151	1530348	PROB	4.151	n/a	n/a	-999	14	[8, 9, 1]	18	FR1	0	R1150J
1528.371	2.834	1534499	PROB	2.834	n/a	n/a	-999	14	[7, 8, 5]	20	FR1	0	R1150J
1531.205	2.2	1537332	PROB	2.2	n/a	n/a	-999	14	[2, 2, 4]	8	FR1	0	R1150J
1533.405	4.717	1539532	PROB	4.717	n/a	n/a	-999	14	[2, 9, 3]	14	FR1	0	R1150J
1538.122	1.667	1544249	PROB	1.667	n/a	n/a	-999	14	[1, 9, 1]	1	FR1	0	R1150J
1539.789	5.174	1545916	PROB	5.174	n/a	n/a	-999	14	[9, 4, 9]	11	FR1	0	R1150J
1544.963	0.01	1551090	STOP	n/a	n/a	n/a	-999	14	[-999, -999, -999]	n/a	FR1	0	R1150J
1544.973	0.7	1551100	DISTRACT_END	n/a	n/a	n/a	-999	14	[0, 0, 0]	n/a	FR1	0	R1150J
1545.673	0.518	1551800	RETRIEVAL_ORIENT	n/a	n/a	n/a	-999	14	[0, 0, 0]	n/a	FR1	0	R1150J
1546.191	2.248	1552318	REC_START	n/a	n/a	n/a	-999	14	[0, 0, 0]	n/a	FR1	0	R1150J
1548.439	1.196	1554566	REC_WORD	1.196	n/a	STEAK	-999	14	[0, 0, 0]	n/a	FR1	0	R1150J
1549.635	2.171	1555762	REC_WORD	2.171	n/a	LEAF	-999	14	[0, 0, 0]	n/a	FR1	0	R1150J
1551.806	4.397	1557933	REC_WORD	4.397	n/a	CAT	-999	14	[0, 0, 0]	n/a	FR1	0	R1150J
1556.203	2.867	1562330	REC_WORD	2.867	n/a	OAR	-999	14	[0, 0, 0]	n/a	FR1	0	R1150J
1559.07	0.413	1565197	REC_WORD	0.413	n/a	STEAK	-999	14	[0, 0, 0]	n/a	FR1	0	R1150J
1559.483	0.527	1565610	REC_WORD	0.527	n/a	LEAF	-999	14	[0, 0, 0]	n/a	FR1	0	R1150J
1560.01	0.421	1566137	REC_WORD	0.421	n/a	CAT	-999	14	[0, 0, 0]	n/a	FR1	0	R1150J
1560.431	15.77	1566558	REC_WORD_VV	15.77	n/a	<>	-999	14	[0, 0, 0]	n/a	FR1	0	R1150J
1576.201	5.11	1582328	REC_END	n/a	n/a	n/a	-999	14	[0, 0, 0]	n/a	FR1	0	R1150J
1581.311	0.5	1587438	TRIAL	n/a	n/a	n/a	-999	15	[0, 0, 0]	n/a	FR1	0	R1150J
1581.811	10.428	1587938	COUNTDOWN_START	n/a	n/a	n/a	-999	15	[0, 0, 0]	n/a	FR1	0	R1150J
1592.239	0.007	1598366	COUNTDOWN_END	n/a	n/a	n/a	-999	15	[0, 0, 0]	n/a	FR1	0	R1150J
1592.246	1.617	1598373	ORIENT	n/a	n/a	n/a	-999	15	[0, 0, 0]	n/a	FR1	0	R1150J
1593.863	2.15	1599990	ORIENT_OFF	n/a	n/a	n/a	-999	15	[0, 0, 0]	n/a	FR1	0	R1150J
1596.013	1.617	1602140	WORD	n/a	wordpools/wordpool_EN.txt	BAG	1	15	[0, 0, 0]	n/a	FR1	0	R1150J
1597.63	0.917	1603757	WORD_OFF	n/a	n/a	BAG	1	15	[0, 0, 0]	n/a	FR1	0	R1150J
1598.547	1.617	1604674	WORD	n/a	wordpools/wordpool_EN.txt	DRUM	2	15	[0, 0, 0]	n/a	FR1	0	R1150J
1600.164	0.884	1606290	WORD_OFF	n/a	n/a	DRUM	2	15	[0, 0, 0]	n/a	FR1	0	R1150J
1601.048	1.616	1607174	WORD	n/a	wordpools/wordpool_EN.txt	JEEP	3	15	[0, 0, 0]	n/a	FR1	0	R1150J
1602.664	0.784	1608790	WORD_OFF	n/a	n/a	JEEP	3	15	[0, 0, 0]	n/a	FR1	0	R1150J
1603.448	1.617	1609574	WORD	n/a	wordpools/wordpool_EN.txt	SHIRT	4	15	[0, 0, 0]	n/a	FR1	0	R1150J
1605.065	0.783	1611191	WORD_OFF	n/a	n/a	SHIRT	4	15	[0, 0, 0]	n/a	FR1	0	R1150J
1605.848	1.617	1611974	WORD	n/a	wordpools/wordpool_EN.txt	RAKE	5	15	[0, 0, 0]	n/a	FR1	0	R1150J
1607.465	1.0	1613591	WORD_OFF	n/a	n/a	RAKE	5	15	[0, 0, 0]	n/a	FR1	0	R1150J
1608.465	1.617	1614591	WORD	n/a	wordpools/wordpool_EN.txt	SLIME	6	15	[0, 0, 0]	n/a	FR1	0	R1150J
1610.082	0.917	1616208	WORD_OFF	n/a	n/a	SLIME	6	15	[0, 0, 0]	n/a	FR1	0	R1150J
1610.999	1.616	1617125	WORD	n/a	wordpools/wordpool_EN.txt	SOAP	7	15	[0, 0, 0]	n/a	FR1	0	R1150J
1612.615	0.884	1618741	WORD_OFF	n/a	n/a	SOAP	7	15	[0, 0, 0]	n/a	FR1	0	R1150J
1613.499	1.617	1619625	WORD	n/a	wordpools/wordpool_EN.txt	BRANCH	8	15	[0, 0, 0]	n/a	FR1	0	R1150J
1615.116	1.0	1621242	WORD_OFF	n/a	n/a	BRANCH	8	15	[0, 0, 0]	n/a	FR1	0	R1150J
1616.116	1.618	1622242	WORD	n/a	wordpools/wordpool_EN.txt	GOLD	9	15	[0, 0, 0]	n/a	FR1	0	R1150J
1617.734	0.816	1623860	WORD_OFF	n/a	n/a	GOLD	9	15	[0, 0, 0]	n/a	FR1	0	R1150J
1618.55	1.617	1624676	WORD	n/a	wordpools/wordpool_EN.txt	OAK	10	15	[0, 0, 0]	n/a	FR1	0	R1150J
1620.167	0.816	1626293	WORD_OFF	n/a	n/a	OAK	10	15	[0, 0, 0]	n/a	FR1	0	R1150J
1620.983	1.617	1627109	WORD	n/a	wordpools/wordpool_EN.txt	SHEET	11	15	[0, 0, 0]	n/a	FR1	0	R1150J
1622.6	0.85	1628726	WORD_OFF	n/a	n/a	SHEET	11	15	[0, 0, 0]	n/a	FR1	0	R1150J
1623.45	1.617	1629576	WORD	n/a	wordpools/wordpool_EN.txt	STEAM	12	15	[0, 0, 0]	n/a	FR1	0	R1150J
1625.067	0.0	1631193	WORD_OFF	n/a	n/a	STEAM	12	15	[0, 0, 0]	n/a	FR1	0	R1150J
1625.067	0.001	1631193	DISTRACT_START	n/a	n/a	n/a	-999	15	[0, 0, 0]	n/a	FR1	0	R1150J
1625.068	0.016	1631194	START	n/a	n/a	n/a	-999	15	[-999, -999, -999]	n/a	FR1	0	R1150J
1625.084	3.784	1631210	PROB	3.784	n/a	n/a	-999	15	[1, 3, 6]	10	FR1	0	R1150J
1628.868	2.367	1634994	PROB	2.367	n/a	n/a	-999	15	[1, 7, 2]	11	FR1	0	R1150J
1631.235	1.9	1637361	PROB	1.9	n/a	n/a	-999	15	[8, 8, 1]	17	FR1	0	R1150J
1633.135	5.234	1639261	PROB	5.234	n/a	n/a	-999	15	[6, 7, 8]	21	FR1	0	R1150J
1638.369	3.734	1644495	PROB	3.734	n/a	n/a	-999	15	[8, 5, 6]	19	FR1	0	R1150J
1642.103	4.417	1648229	PROB	4.417	n/a	n/a	-999	15	[3, 4, 7]	17	FR1	0	R1150J
1646.52	0.017	1652646	STOP	n/a	n/a	n/a	-999	15	[-999, -999, -999]	n/a	FR1	0	R1150J
1646.537	0.6	1652663	DISTRACT_END	n/a	n/a	n/a	-999	15	[0, 0, 0]	n/a	FR1	0	R1150J
1647.137	0.518	1653263	RETRIEVAL_ORIENT	n/a	n/a	n/a	-999	15	[0, 0, 0]	n/a	FR1	0	R1150J
1647.655	2.421	1653781	REC_START	n/a	n/a	n/a	-999	15	[0, 0, 0]	n/a	FR1	0	R1150J
1650.076	1.257	1656202	REC_WORD	1.257	n/a	JEEP	-999	15	[0, 0, 0]	n/a	FR1	0	R1150J
1651.333	3.24	1657459	REC_WORD	3.24	n/a	BAG	-999	15	[0, 0, 0]	n/a	FR1	0	R1150J
1654.573	10.135	1660699	REC_WORD	10.135	n/a	LEAF	-999	15	[0, 0, 0]	n/a	FR1	0	R1150J
1664.708	2.896	1670834	REC_WORD	2.896	n/a	OAR	-999	15	[0, 0, 0]	n/a	FR1	0	R1150J
1667.604	10.062	1673730	REC_WORD	10.062	n/a	OAK	-999	15	[0, 0, 0]	n/a	FR1	0	R1150J
1677.666	4.875	1683791	REC_END	n/a	n/a	n/a	-999	15	[0, 0, 0]	n/a	FR1	0	R1150J
1682.541	0.5	1688666	TRIAL	n/a	n/a	n/a	-999	16	[0, 0, 0]	n/a	FR1	0	R1150J
1683.041	10.428	1689166	COUNTDOWN_START	n/a	n/a	n/a	-999	16	[0, 0, 0]	n/a	FR1	0	R1150J
1693.469	0.007	1699594	COUNTDOWN_END	n/a	n/a	n/a	-999	16	[0, 0, 0]	n/a	FR1	0	R1150J
1693.476	1.617	1699601	ORIENT	n/a	n/a	n/a	-999	16	[0, 0, 0]	n/a	FR1	0	R1150J
1695.093	1.884	1701218	ORIENT_OFF	n/a	n/a	n/a	-999	16	[0, 0, 0]	n/a	FR1	0	R1150J
1696.977	1.617	1703102	WORD	n/a	wordpools/wordpool_EN.txt	FROG	1	16	[0, 0, 0]	n/a	FR1	0	R1150J
1698.594	1.017	1704719	WORD_OFF	n/a	n/a	FROG	1	16	[0, 0, 0]	n/a	FR1	0	R1150J
1699.611	1.616	1705736	WORD	n/a	wordpools/wordpool_EN.txt	STAR	2	16	[0, 0, 0]	n/a	FR1	0	R1150J
1701.227	0.867	1707352	WORD_OFF	n/a	n/a	STAR	2	16	[0, 0, 0]	n/a	FR1	0	R1150J
1702.094	1.617	1708219	WORD	n/a	wordpools/wordpool_EN.txt	SNAIL	3	16	[0, 0, 0]	n/a	FR1	0	R1150J
1703.711	0.917	1709836	WORD_OFF	n/a	n/a	SNAIL	3	16	[0, 0, 0]	n/a	FR1	0	R1150J
1704.628	1.617	1710753	WORD	n/a	wordpools/wordpool_EN.txt	BEACH	4	16	[0, 0, 0]	n/a	FR1	0	R1150J
1706.245	0.95	1712370	WORD_OFF	n/a	n/a	BEACH	4	16	[0, 0, 0]	n/a	FR1	0	R1150J
1707.195	1.617	1713320	WORD	n/a	wordpools/wordpool_EN.txt	COIN	5	16	[0, 0, 0]	n/a	FR1	0	R1150J
1708.812	0.867	1714937	WORD_OFF	n/a	n/a	COIN	5	16	[0, 0, 0]	n/a	FR1	0	R1150J
1709.679	1.617	1715804	WORD	n/a	wordpools/wordpool_EN.txt	PIG	6	16	[0, 0, 0]	n/a	FR1	0	R1150J
1711.296	0.983	1717421	WORD_OFF	n/a	n/a	PIG	6	16	[0, 0, 0]	n/a	FR1	0	R1150J
1712.279	1.617	1718404	WORD	n/a	wordpools/wordpool_EN.txt	MAP	7	16	[0, 0, 0]	n/a	FR1	0	R1150J
1713.896	0.851	1720021	WORD_OFF	n/a	n/a	MAP	7	16	[0, 0, 0]	n/a	FR1	0	R1150J
1714.747	1.616	1720872	WORD	n/a	wordpools/wordpool_EN.txt	CAR	8	16	[0, 0, 0]	n/a	FR1	0	R1150J
1716.363	0.85	1722488	WORD_OFF	n/a	n/a	CAR	8	16	[0, 0, 0]	n/a	FR1	0	R1150J
1717.213	1.617	1723338	WORD	n/a	wordpools/wordpool_EN.txt	SHELL	9	16	[0, 0, 0]	n/a	FR1	0	R1150J
1718.83	0.901	1724955	WORD_OFF	n/a	n/a	SHELL	9	16	[0, 0, 0]	n/a	FR1	0	R1150J
1719.731	1.616	1725856	WORD	n/a	wordpools/wordpool_EN.txt	MOUTH	10	16	[0, 0, 0]	n/a	FR1	0	R1150J
1721.347	0.8	1727472	WORD_OFF	n/a	n/a	MOUTH	10	16	[0, 0, 0]	n/a	FR1	0	R1150J
1722.147	1.617	1728272	WORD	n/a	wordpools/wordpool_EN.txt	HAND	11	16	[0, 0, 0]	n/a	FR1	0	R1150J
1723.764	0.95	1729889	WORD_OFF	n/a	n/a	HAND	11	16	[0, 0, 0]	n/a	FR1	0	R1150J
1724.714	1.617	1730839	WORD	n/a	wordpools/wordpool_EN.txt	BREAD	12	16	[0, 0, 0]	n/a	FR1	0	R1150J
1726.331	0.0	1732456	WORD_OFF	n/a	n/a	BREAD	12	16	[0, 0, 0]	n/a	FR1	0	R1150J
1726.331	0.001	1732456	DISTRACT_START	n/a	n/a	n/a	-999	16	[0, 0, 0]	n/a	FR1	0	R1150J
1726.332	0.016	1732457	START	n/a	n/a	n/a	-999	16	[-999, -999, -999]	n/a	FR1	0	R1150J
1726.348	2.933	1732473	PROB	2.933	n/a	n/a	-999	16	[5, 5, 6]	16	FR1	0	R1150J
1729.281	3.834	1735406	PROB	3.834	n/a	n/a	-999	16	[5, 6, 9]	20	FR1	0	R1150J
1733.115	2.134	1739240	PROB	2.134	n/a	n/a	-999	16	[2, 1, 9]	12	FR1	0	R1150J
1735.249	1.917	1741374	PROB	1.917	n/a	n/a	-999	16	[6, 6, 6]	18	FR1	0	R1150J
1737.166	3.8	1743291	PROB	3.8	n/a	n/a	-999	16	[6, 8, 7]	21	FR1	0	R1150J
1740.966	3.117	1747091	PROB	3.117	n/a	n/a	-999	16	[3, 4, 2]	9	FR1	0	R1150J
1744.083	6.617	1750207	PROB	6.617	n/a	n/a	-999	16	[5, 7, 8]	20	FR1	0	R1150J
1750.7	0.017	1756824	STOP	n/a	n/a	n/a	-999	16	[-999, -999, -999]	n/a	FR1	0	R1150J
1750.717	0.634	1756841	DISTRACT_END	n/a	n/a	n/a	-999	16	[0, 0, 0]	n/a	FR1	0	R1150J
1751.351	0.518	1757475	RETRIEVAL_ORIENT	n/a	n/a	n/a	-999	16	[0, 0, 0]	n/a	FR1	0	R1150J
1751.869	2.071	1757993	REC_START	n/a	n/a	n/a	-999	16	[0, 0, 0]	n/a	FR1	0	R1150J
1753.94	1.263	1760064	REC_WORD	1.263	n/a	CORN	-999	16	[0, 0, 0]	n/a	FR1	0	R1150J
1755.203	1.289	1761327	REC_WORD	1.289	n/a	PIG	-999	16	[0, 0, 0]	n/a	FR1	0	R1150J
1756.492	1.472	1762616	REC_WORD	1.472	n/a	MAP	-999	16	[0, 0, 0]	n/a	FR1	0	R1150J
1757.964	5.279	1764088	REC_WORD	5.279	n/a	CAR	-999	16	[0, 0, 0]	n/a	FR1	0	R1150J
1763.243	5.092	1769367	REC_WORD_VV	5.092	n/a	<>	-999	16	[0, 0, 0]	n/a	FR1	0	R1150J
1768.335	1.0	1774459	REC_WORD_VV	1.0	n/a	<>	-999	16	[0, 0, 0]	n/a	FR1	0	R1150J
1769.335	7.541	1775459	REC_WORD_VV	7.541	n/a	<>	-999	16	[0, 0, 0]	n/a	FR1	0	R1150J
1776.876	0.24	1783000	REC_WORD_VV	0.24	n/a	<>	-999	16	[0, 0, 0]	n/a	FR1	0	R1150J
1777.116	0.753	1783240	REC_WORD	0.753	n/a	FOUR	-999	16	[0, 0, 0]	n/a	FR1	0	R1150J
1777.869	1.0	1783993	REC_WORD_VV	1.0	n/a	<>	-999	16	[0, 0, 0]	n/a	FR1	0	R1150J
1778.869	3.011	1784993	REC_WORD_VV	3.011	n/a	<>	-999	16	[0, 0, 0]	n/a	FR1	0	R1150J
1781.88	7.626	1788004	REC_END	n/a	n/a	n/a	-999	16	[0, 0, 0]	n/a	FR1	0	R1150J
1789.506	0.5	1795630	TRIAL	n/a	n/a	n/a	-999	17	[0, 0, 0]	n/a	FR1	0	R1150J
1790.006	10.428	1796130	COUNTDOWN_START	n/a	n/a	n/a	-999	17	[0, 0, 0]	n/a	FR1	0	R1150J
1800.434	0.007	1806558	COUNTDOWN_END	n/a	n/a	n/a	-999	17	[0, 0, 0]	n/a	FR1	0	R1150J
1800.441	1.617	1806565	ORIENT	n/a	n/a	n/a	-999	17	[0, 0, 0]	n/a	FR1	0	R1150J
1802.058	1.95	1808182	ORIENT_OFF	n/a	n/a	n/a	-999	17	[0, 0, 0]	n/a	FR1	0	R1150J
1804.008	1.617	1810132	WORD	n/a	wordpools/wordpool_EN.txt	ELF	1	17	[0, 0, 0]	n/a	FR1	0	R1150J
1805.625	0.983	1811749	WORD_OFF	n/a	n/a	ELF	1	17	[0, 0, 0]	n/a	FR1	0	R1150J
1806.608	1.617	1812732	WORD	n/a	wordpools/wordpool_EN.txt	PLANE	2	17	[0, 0, 0]	n/a	FR1	0	R1150J
1808.225	0.984	1814349	WORD_OFF	n/a	n/a	PLANE	2	17	[0, 0, 0]	n/a	FR1	0	R1150J
1809.209	1.617	1815333	WORD	n/a	wordpools/wordpool_EN.txt	JUDGE	3	17	[0, 0, 0]	n/a	FR1	0	R1150J
1810.826	0.917	1816950	WORD_OFF	n/a	n/a	JUDGE	3	17	[0, 0, 0]	n/a	FR1	0	R1150J
1811.743	1.616	1817867	WORD	n/a	wordpools/wordpool_EN.txt	TRUCK	4	17	[0, 0, 0]	n/a	FR1	0	R1150J
1813.359	0.833	1819482	WORD_OFF	n/a	n/a	TRUCK	4	17	[0, 0, 0]	n/a	FR1	0	R1150J
1814.192	1.617	1820315	WORD	n/a	wordpools/wordpool_EN.txt	FLOOR	5	17	[0, 0, 0]	n/a	FR1	0	R1150J
1815.809	0.784	1821932	WORD_OFF	n/a	n/a	FLOOR	5	17	[0, 0, 0]	n/a	FR1	0	R1150J
1816.593	1.617	1822716	WORD	n/a	wordpools/wordpool_EN.txt	TAIL	6	17	[0, 0, 0]	n/a	FR1	0	R1150J
1818.21	1.0	1824333	WORD_OFF	n/a	n/a	TAIL	6	17	[0, 0, 0]	n/a	FR1	0	R1150J
1819.21	1.617	1825333	WORD	n/a	wordpools/wordpool_EN.txt	FOX	7	17	[0, 0, 0]	n/a	FR1	0	R1150J
1820.827	0.933	1826950	WORD_OFF	n/a	n/a	FOX	7	17	[0, 0, 0]	n/a	FR1	0	R1150J
1821.76	1.617	1827883	WORD	n/a	wordpools/wordpool_EN.txt	SQUARE	8	17	[0, 0, 0]	n/a	FR1	0	R1150J
1823.377	0.8	1829500	WORD_OFF	n/a	n/a	SQUARE	8	17	[0, 0, 0]	n/a	FR1	0	R1150J
1824.177	1.617	1830300	WORD	n/a	wordpools/wordpool_EN.txt	CLAY	9	17	[0, 0, 0]	n/a	FR1	0	R1150J
1825.794	0.983	1831917	WORD_OFF	n/a	n/a	CLAY	9	17	[0, 0, 0]	n/a	FR1	0	R1150J
1826.777	1.617	1832900	WORD	n/a	wordpools/wordpool_EN.txt	DITCH	10	17	[0, 0, 0]	n/a	FR1	0	R1150J
1828.394	0.834	1834517	WORD_OFF	n/a	n/a	DITCH	10	17	[0, 0, 0]	n/a	FR1	0	R1150J
1829.228	1.617	1835351	WORD	n/a	wordpools/wordpool_EN.txt	TREE	11	17	[0, 0, 0]	n/a	FR1	0	R1150J
1830.845	0.901	1836968	WORD_OFF	n/a	n/a	TREE	11	17	[0, 0, 0]	n/a	FR1	0	R1150J
1831.746	1.615	1837869	WORD	n/a	wordpools/wordpool_EN.txt	FLAG	12	17	[0, 0, 0]	n/a	FR1	0	R1150J
1833.361	0.0	1839484	WORD_OFF	n/a	n/a	FLAG	12	17	[0, 0, 0]	n/a	FR1	0	R1150J
1833.361	0.001	1839484	DISTRACT_START	n/a	n/a	n/a	-999	17	[0, 0, 0]	n/a	FR1	0	R1150J
1833.362	0.016	1839485	START	n/a	n/a	n/a	-999	17	[-999, -999, -999]	n/a	FR1	0	R1150J
1833.378	4.468	1839501	PROB	4.468	n/a	n/a	-999	17	[9, 7, 9]	25	FR1	0	R1150J
1837.846	2.7	1843969	PROB	2.7	n/a	n/a	-999	17	[7, 9, 9]	25	FR1	0	R1150J
1840.546	3.201	1846669	PROB	3.201	n/a	n/a	-999	17	[6, 5, 9]	20	FR1	0	R1150J
1843.747	1.916	1849870	PROB	1.916	n/a	n/a	-999	17	[5, 2, 4]	11	FR1	0	R1150J
1845.663	3.534	1851786	PROB	3.534	n/a	n/a	-999	17	[8, 3, 4]	15	FR1	0	R1150J
1849.197	2.7	1855320	PROB	2.7	n/a	n/a	-999	17	[3, 7, 3]	13	FR1	0	R1150J
1851.897	3.015	1858020	PROB	3.015	n/a	n/a	-999	17	[1, 4, 4]	9	FR1	0	R1150J
1854.912	0.019	1861035	STOP	n/a	n/a	n/a	-999	17	[-999, -999, -999]	n/a	FR1	0	R1150J
1854.931	0.65	1861054	DISTRACT_END	n/a	n/a	n/a	-999	17	[0, 0, 0]	n/a	FR1	0	R1150J
1855.581	0.518	1861704	RETRIEVAL_ORIENT	n/a	n/a	n/a	-999	17	[0, 0, 0]	n/a	FR1	0	R1150J
1856.099	1.452	1862222	REC_START	n/a	n/a	n/a	-999	17	[0, 0, 0]	n/a	FR1	0	R1150J
1857.551	0.692	1863674	REC_WORD	0.692	n/a	ELF	-999	17	[0, 0, 0]	n/a	FR1	0	R1150J
1858.243	1.273	1864366	REC_WORD	1.273	n/a	FOX	-999	17	[0, 0, 0]	n/a	FR1	0	R1150J
1859.516	1.221	1865639	REC_WORD	1.221	n/a	TREE	-999	17	[0, 0, 0]	n/a	FR1	0	R1150J
1860.737	11.498	1866860	REC_WORD	11.498	n/a	FLAG	-999	17	[0, 0, 0]	n/a	FR1	0	R1150J
1872.235	0.441	1878358	REC_WORD	0.441	n/a	ELF	-999	17	[0, 0, 0]	n/a	FR1	0	R1150J
1872.676	0.603	1878799	REC_WORD	0.603	n/a	FOX	-999	17	[0, 0, 0]	n/a	FR1	0	R1150J
1873.279	0.455	1879402	REC_WORD	0.455	n/a	TREE	-999	17	[0, 0, 0]	n/a	FR1	0	R1150J
1873.734	12.377	1879857	REC_WORD	12.377	n/a	FLAG	-999	17	[0, 0, 0]	n/a	FR1	0	R1150J
1886.111	4.992	1892233	REC_END	n/a	n/a	n/a	-999	17	[0, 0, 0]	n/a	FR1	0	R1150J
1891.103	0.5	1897225	TRIAL	n/a	n/a	n/a	-999	18	[0, 0, 0]	n/a	FR1	0	R1150J
1891.603	10.428	1897725	COUNTDOWN_START	n/a	n/a	n/a	-999	18	[0, 0, 0]	n/a	FR1	0	R1150J
1902.031	0.007	1908153	COUNTDOWN_END	n/a	n/a	n/a	-999	18	[0, 0, 0]	n/a	FR1	0	R1150J
1902.038	1.616	1908160	ORIENT	n/a	n/a	n/a	-999	18	[0, 0, 0]	n/a	FR1	0	R1150J
1903.654	2.068	1909776	ORIENT_OFF	n/a	n/a	n/a	-999	18	[0, 0, 0]	n/a	FR1	0	R1150J
1905.722	1.616	1911844	WORD	n/a	wordpools/wordpool_EN.txt	EGG	1	18	[0, 0, 0]	n/a	FR1	0	R1150J
1907.338	0.767	1913460	WORD_OFF	n/a	n/a	EGG	1	18	[0, 0, 0]	n/a	FR1	0	R1150J
1908.105	1.618	1914227	WORD	n/a	wordpools/wordpool_EN.txt	SKI	2	18	[0, 0, 0]	n/a	FR1	0	R1150J
1909.723	1.0	1915845	WORD_OFF	n/a	n/a	SKI	2	18	[0, 0, 0]	n/a	FR1	0	R1150J
1910.723	1.616	1916845	WORD	n/a	wordpools/wordpool_EN.txt	BRIDGE	3	18	[0, 0, 0]	n/a	FR1	0	R1150J
1912.339	0.8	1918461	WORD_OFF	n/a	n/a	BRIDGE	3	18	[0, 0, 0]	n/a	FR1	0	R1150J
1913.139	1.617	1919261	WORD	n/a	wordpools/wordpool_EN.txt	PET	4	18	[0, 0, 0]	n/a	FR1	0	R1150J
1914.756	0.984	1920878	WORD_OFF	n/a	n/a	PET	4	18	[0, 0, 0]	n/a	FR1	0	R1150J
1915.74	1.616	1921862	WORD	n/a	wordpools/wordpool_EN.txt	SPONGE	5	18	[0, 0, 0]	n/a	FR1	0	R1150J
1917.356	0.834	1923478	WORD_OFF	n/a	n/a	SPONGE	5	18	[0, 0, 0]	n/a	FR1	0	R1150J
1918.19	1.616	1924312	WORD	n/a	wordpools/wordpool_EN.txt	ROCK	6	18	[0, 0, 0]	n/a	FR1	0	R1150J
1919.806	0.867	1925928	WORD_OFF	n/a	n/a	ROCK	6	18	[0, 0, 0]	n/a	FR1	0	R1150J
1920.673	1.617	1926795	WORD	n/a	wordpools/wordpool_EN.txt	BOOK	7	18	[0, 0, 0]	n/a	FR1	0	R1150J
1922.29	0.95	1928412	WORD_OFF	n/a	n/a	BOOK	7	18	[0, 0, 0]	n/a	FR1	0	R1150J
1923.24	1.617	1929362	WORD	n/a	wordpools/wordpool_EN.txt	PURSE	8	18	[0, 0, 0]	n/a	FR1	0	R1150J
1924.857	0.983	1930979	WORD_OFF	n/a	n/a	PURSE	8	18	[0, 0, 0]	n/a	FR1	0	R1150J
1925.84	1.617	1931962	WORD	n/a	wordpools/wordpool_EN.txt	HEN	9	18	[0, 0, 0]	n/a	FR1	0	R1150J
1927.457	0.867	1933579	WORD_OFF	n/a	n/a	HEN	9	18	[0, 0, 0]	n/a	FR1	0	R1150J
1928.324	1.617	1934446	WORD	n/a	wordpools/wordpool_EN.txt	SWAMP	10	18	[0, 0, 0]	n/a	FR1	0	R1150J
1929.941	0.867	1936063	WORD_OFF	n/a	n/a	SWAMP	10	18	[0, 0, 0]	n/a	FR1	0	R1150J
1930.808	1.616	1936930	WORD	n/a	wordpools/wordpool_EN.txt	APE	11	18	[0, 0, 0]	n/a	FR1	0	R1150J
1932.424	0.984	1938546	WORD_OFF	n/a	n/a	APE	11	18	[0, 0, 0]	n/a	FR1	0	R1150J
1933.408	1.617	1939530	WORD	n/a	wordpools/wordpool_EN.txt	ARM	12	18	[0, 0, 0]	n/a	FR1	0	R1150J
1935.025	0.0	1941147	WORD_OFF	n/a	n/a	ARM	12	18	[0, 0, 0]	n/a	FR1	0	R1150J
1935.025	0.001	1941147	DISTRACT_START	n/a	n/a	n/a	-999	18	[0, 0, 0]	n/a	FR1	0	R1150J
1935.026	0.016	1941148	START	n/a	n/a	n/a	-999	18	[-999, -999, -999]	n/a	FR1	0	R1150J
1935.042	2.75	1941164	PROB	2.75	n/a	n/a	-999	18	[8, 6, 6]	20	FR1	0	R1150J
1937.792	2.634	1943914	PROB	2.634	n/a	n/a	-999	18	[2, 7, 5]	14	FR1	0	R1150J
1940.426	2.467	1946548	PROB	2.467	n/a	n/a	-999	18	[7, 9, 6]	22	FR1	0	R1150J
1942.893	3.417	1949015	PROB	3.417	n/a	n/a	-999	18	[3, 9, 9]	22	FR1	0	R1150J
1946.31	2.534	1952432	PROB	2.534	n/a	n/a	-999	18	[3, 8, 6]	17	FR1	0	R1150J
1948.844	4.334	1954966	PROB	4.334	n/a	n/a	-999	18	[6, 3, 9]	18	FR1	0	R1150J
1953.178	1.97	1959300	PROB	1.97	n/a	n/a	-999	18	[8, 4, 2]	14	FR1	0	R1150J
1955.148	0.013	1961269	STOP	n/a	n/a	n/a	-999	18	[-999, -999, -999]	n/a	FR1	0	R1150J
1955.161	0.7	1961282	DISTRACT_END	n/a	n/a	n/a	-999	18	[0, 0, 0]	n/a	FR1	0	R1150J
1955.861	0.518	1961982	RETRIEVAL_ORIENT	n/a	n/a	n/a	-999	18	[0, 0, 0]	n/a	FR1	0	R1150J
1956.379	3.021	1962500	REC_START	n/a	n/a	n/a	-999	18	[0, 0, 0]	n/a	FR1	0	R1150J
1959.4	0.63	1965521	REC_WORD	0.63	n/a	EGG	-999	18	[0, 0, 0]	n/a	FR1	0	R1150J
1960.03	0.849	1966151	REC_WORD	0.849	n/a	LINE	-999	18	[0, 0, 0]	n/a	FR1	0	R1150J
1960.879	0.872	1967000	REC_WORD	0.872	n/a	TREE	-999	18	[0, 0, 0]	n/a	FR1	0	R1150J
1961.751	24.64	1967872	REC_WORD	24.64	n/a	HEN	-999	18	[0, 0, 0]	n/a	FR1	0	R1150J
1986.391	5.225	1992512	REC_END	n/a	n/a	n/a	-999	18	[0, 0, 0]	n/a	FR1	0	R1150J
1991.616	0.5	1997737	TRIAL	n/a	n/a	n/a	-999	19	[0, 0, 0]	n/a	FR1	0	R1150J
1992.116	10.428	1998237	COUNTDOWN_START	n/a	n/a	n/a	-999	19	[0, 0, 0]	n/a	FR1	0	R1150J
2002.544	0.007	2008665	COUNTDOWN_END	n/a	n/a	n/a	-999	19	[0, 0, 0]	n/a	FR1	0	R1150J
2002.551	1.617	2008672	ORIENT	n/a	n/a	n/a	-999	19	[0, 0, 0]	n/a	FR1	0	R1150J
2004.168	2.017	2010289	ORIENT_OFF	n/a	n/a	n/a	-999	19	[0, 0, 0]	n/a	FR1	0	R1150J
2006.185	1.617	2012306	WORD	n/a	wordpools/wordpool_EN.txt	TOAD	1	19	[0, 0, 0]	n/a	FR1	0	R1150J
2007.802	1.0	2013923	WORD_OFF	n/a	n/a	TOAD	1	19	[0, 0, 0]	n/a	FR1	0	R1150J
2008.802	1.617	2014923	WORD	n/a	wordpools/wordpool_EN.txt	LIP	2	19	[0, 0, 0]	n/a	FR1	0	R1150J
2010.419	0.933	2016540	WORD_OFF	n/a	n/a	LIP	2	19	[0, 0, 0]	n/a	FR1	0	R1150J
2011.352	1.617	2017473	WORD	n/a	wordpools/wordpool_EN.txt	SPEAR	3	19	[0, 0, 0]	n/a	FR1	0	R1150J
2012.969	1.017	2019090	WORD_OFF	n/a	n/a	SPEAR	3	19	[0, 0, 0]	n/a	FR1	0	R1150J
2013.986	1.617	2020107	WORD	n/a	wordpools/wordpool_EN.txt	DOLL	4	19	[0, 0, 0]	n/a	FR1	0	R1150J
2015.603	0.767	2021724	WORD_OFF	n/a	n/a	DOLL	4	19	[0, 0, 0]	n/a	FR1	0	R1150J
2016.37	1.616	2022491	WORD	n/a	wordpools/wordpool_EN.txt	GOAT	5	19	[0, 0, 0]	n/a	FR1	0	R1150J
2017.986	0.884	2024107	WORD_OFF	n/a	n/a	GOAT	5	19	[0, 0, 0]	n/a	FR1	0	R1150J
2018.87	1.617	2024991	WORD	n/a	wordpools/wordpool_EN.txt	FAN	6	19	[0, 0, 0]	n/a	FR1	0	R1150J
2020.487	0.917	2026608	WORD_OFF	n/a	n/a	FAN	6	19	[0, 0, 0]	n/a	FR1	0	R1150J
2021.404	1.616	2027525	WORD	n/a	wordpools/wordpool_EN.txt	LAMB	7	19	[0, 0, 0]	n/a	FR1	0	R1150J
2023.02	0.9	2029141	WORD_OFF	n/a	n/a	LAMB	7	19	[0, 0, 0]	n/a	FR1	0	R1150J
2023.92	1.617	2030041	WORD	n/a	wordpools/wordpool_EN.txt	BAT	8	19	[0, 0, 0]	n/a	FR1	0	R1150J
2025.537	0.817	2031658	WORD_OFF	n/a	n/a	BAT	8	19	[0, 0, 0]	n/a	FR1	0	R1150J
2026.354	1.617	2032474	WORD	n/a	wordpools/wordpool_EN.txt	CROW	9	19	[0, 0, 0]	n/a	FR1	0	R1150J
2027.971	0.984	2034091	WORD_OFF	n/a	n/a	CROW	9	19	[0, 0, 0]	n/a	FR1	0	R1150J
2028.955	1.617	2035075	WORD	n/a	wordpools/wordpool_EN.txt	FORK	10	19	[0, 0, 0]	n/a	FR1	0	R1150J
2030.572	0.933	2036692	WORD_OFF	n/a	n/a	FORK	10	19	[0, 0, 0]	n/a	FR1	0	R1150J
2031.505	1.617	2037625	WORD	n/a	wordpools/wordpool_EN.txt	FLUTE	11	19	[0, 0, 0]	n/a	FR1	0	R1150J
2033.122	0.983	2039242	WORD_OFF	n/a	n/a	FLUTE	11	19	[0, 0, 0]	n/a	FR1	0	R1150J
2034.105	1.618	2040225	WORD	n/a	wordpools/wordpool_EN.txt	BOOT	12	19	[0, 0, 0]	n/a	FR1	0	R1150J
2035.723	0.0	2041843	WORD_OFF	n/a	n/a	BOOT	12	19	[0, 0, 0]	n/a	FR1	0	R1150J
2035.723	0.001	2041843	DISTRACT_START	n/a	n/a	n/a	-999	19	[0, 0, 0]	n/a	FR1	0	R1150J
2035.724	0.016	2041844	START	n/a	n/a	n/a	-999	19	[-999, -999, -999]	n/a	FR1	0	R1150J
2035.74	2.516	2041860	PROB	2.516	n/a	n/a	-999	19	[1, 9, 7]	17	FR1	0	R1150J
2038.256	6.017	2044376	PROB	6.017	n/a	n/a	-999	19	[3, 6, 9]	18	FR1	0	R1150J
2044.273	2.167	2050393	PROB	2.167	n/a	n/a	-999	19	[3, 7, 2]	12	FR1	0	R1150J
2046.44	1.884	2052560	PROB	1.884	n/a	n/a	-999	19	[7, 7, 1]	15	FR1	0	R1150J
2048.324	2.95	2054444	PROB	2.95	n/a	n/a	-999	19	[7, 2, 8]	17	FR1	0	R1150J
2051.274	3.184	2057394	PROB	3.184	n/a	n/a	-999	19	[3, 1, 7]	11	FR1	0	R1150J
2054.458	2.326	2060578	PROB	2.326	n/a	n/a	-999	19	[9, 7, 4]	20	FR1	0	R1150J
2056.784	0.007	2062904	STOP	n/a	n/a	n/a	-999	19	[-999, -999, -999]	n/a	FR1	0	R1150J
2056.791	0.7	2062911	DISTRACT_END	n/a	n/a	n/a	-999	19	[0, 0, 0]	n/a	FR1	0	R1150J
2057.491	0.518	2063611	RETRIEVAL_ORIENT	n/a	n/a	n/a	-999	19	[0, 0, 0]	n/a	FR1	0	R1150J
2058.009	2.14	2064129	REC_START	n/a	n/a	n/a	-999	19	[0, 0, 0]	n/a	FR1	0	R1150J
2060.149	1.653	2066269	REC_WORD	1.653	n/a	LIP	-999	19	[0, 0, 0]	n/a	FR1	0	R1150J
2061.802	5.816	2067922	REC_WORD	5.816	n/a	FLUTE	-999	19	[0, 0, 0]	n/a	FR1	0	R1150J
2067.618	2.925	2073738	REC_WORD	2.925	n/a	FEAR	-999	19	[0, 0, 0]	n/a	FR1	0	R1150J
2070.543	17.476	2076663	REC_WORD	17.476	n/a	BOAT	-999	19	[0, 0, 0]	n/a	FR1	0	R1150J
2088.019	5.427	2094139	REC_END	n/a	n/a	n/a	-999	19	[0, 0, 0]	n/a	FR1	0	R1150J
2093.446	0.5	2099566	TRIAL	n/a	n/a	n/a	-999	20	[0, 0, 0]	n/a	FR1	0	R1150J
2093.946	10.428	2100066	COUNTDOWN_START	n/a	n/a	n/a	-999	20	[0, 0, 0]	n/a	FR1	0	R1150J
2104.374	0.007	2110493	COUNTDOWN_END	n/a	n/a	n/a	-999	20	[0, 0, 0]	n/a	FR1	0	R1150J
2104.381	1.617	2110500	ORIENT	n/a	n/a	n/a	-999	20	[0, 0, 0]	n/a	FR1	0	R1150J
2105.998	2.184	2112117	ORIENT_OFF	n/a	n/a	n/a	-999	20	[0, 0, 0]	n/a	FR1	0	R1150J
2108.182	1.617	2114301	WORD	n/a	wordpools/wordpool_EN.txt	TRASH	1	20	[0, 0, 0]	n/a	FR1	0	R1150J
2109.799	0.966	2115918	WORD_OFF	n/a	n/a	TRASH	1	20	[0, 0, 0]	n/a	FR1	0	R1150J
2110.765	1.617	2116884	WORD	n/a	wordpools/wordpool_EN.txt	PLANT	2	20	[0, 0, 0]	n/a	FR1	0	R1150J
2112.382	0.884	2118501	WORD_OFF	n/a	n/a	PLANT	2	20	[0, 0, 0]	n/a	FR1	0	R1150J
2113.266	1.616	2119385	WORD	n/a	wordpools/wordpool_EN.txt	PANTS	3	20	[0, 0, 0]	n/a	FR1	0	R1150J
2114.882	0.784	2121001	WORD_OFF	n/a	n/a	PANTS	3	20	[0, 0, 0]	n/a	FR1	0	R1150J
2115.666	1.617	2121785	WORD	n/a	wordpools/wordpool_EN.txt	PHONE	4	20	[0, 0, 0]	n/a	FR1	0	R1150J
2117.283	0.983	2123402	WORD_OFF	n/a	n/a	PHONE	4	20	[0, 0, 0]	n/a	FR1	0	R1150J
2118.266	1.617	2124385	WORD	n/a	wordpools/wordpool_EN.txt	PEARL	5	20	[0, 0, 0]	n/a	FR1	0	R1150J
2119.883	0.884	2126002	WORD_OFF	n/a	n/a	PEARL	5	20	[0, 0, 0]	n/a	FR1	0	R1150J
2120.767	1.617	2126886	WORD	n/a	wordpools/wordpool_EN.txt	STORE	6	20	[0, 0, 0]	n/a	FR1	0	R1150J
2122.384	0.9	2128503	WORD_OFF	n/a	n/a	STORE	6	20	[0, 0, 0]	n/a	FR1	0	R1150J
2123.284	1.617	2129403	WORD	n/a	wordpools/wordpool_EN.txt	POLE	7	20	[0, 0, 0]	n/a	FR1	0	R1150J
2124.901	0.783	2131020	WORD_OFF	n/a	n/a	POLE	7	20	[0, 0, 0]	n/a	FR1	0	R1150J
2125.684	1.617	2131803	WORD	n/a	wordpools/wordpool_EN.txt	SHIELD	8	20	[0, 0, 0]	n/a	FR1	0	R1150J
2127.301	0.917	2133420	WORD_OFF	n/a	n/a	SHIELD	8	20	[0, 0, 0]	n/a	FR1	0	R1150J
2128.218	1.617	2134337	WORD	n/a	wordpools/wordpool_EN.txt	WEED	9	20	[0, 0, 0]	n/a	FR1	0	R1150J
2129.835	0.933	2135954	WORD_OFF	n/a	n/a	WEED	9	20	[0, 0, 0]	n/a	FR1	0	R1150J
2130.768	1.617	2136887	WORD	n/a	wordpools/wordpool_EN.txt	OWL	10	20	[0, 0, 0]	n/a	FR1	0	R1150J
2132.385	1.0	2138504	WORD_OFF	n/a	n/a	OWL	10	20	[0, 0, 0]	n/a	FR1	0	R1150J
2133.385	1.617	2139504	WORD	n/a	wordpools/wordpool_EN.txt	BOY	11	20	[0, 0, 0]	n/a	FR1	0	R1150J
2135.002	0.8	2141121	WORD_OFF	n/a	n/a	BOY	11	20	[0, 0, 0]	n/a	FR1	0	R1150J
2135.802	1.617	2141921	WORD	n/a	wordpools/wordpool_EN.txt	WALL	12	20	[0, 0, 0]	n/a	FR1	0	R1150J
2137.419	0.0	2143538	WORD_OFF	n/a	n/a	WALL	12	20	[0, 0, 0]	n/a	FR1	0	R1150J
2137.419	0.001	2143538	DISTRACT_START	n/a	n/a	n/a	-999	20	[0, 0, 0]	n/a	FR1	0	R1150J
2137.42	0.016	2143539	START	n/a	n/a	n/a	-999	20	[-999, -999, -999]	n/a	FR1	0	R1150J
2137.436	2.55	2143555	PROB	2.55	n/a	n/a	-999	20	[6, 6, 2]	14	FR1	0	R1150J
2139.986	2.95	2146105	PROB	2.95	n/a	n/a	-999	20	[4, 5, 8]	17	FR1	0	R1150J
2142.936	4.334	2149055	PROB	4.334	n/a	n/a	-999	20	[4, 3, 9]	16	FR1	0	R1150J
2147.27	4.118	2153389	PROB	4.118	n/a	n/a	-999	20	[7, 9, 3]	19	FR1	0	R1150J
2151.388	4.0	2157507	PROB	4.0	n/a	n/a	-999	20	[9, 7, 9]	25	FR1	0	R1150J
2155.388	2.442	2161507	PROB	2.442	n/a	n/a	-999	20	[1, 2, 3]	6	FR1	0	R1150J
2157.83	0.008	2163949	STOP	n/a	n/a	n/a	-999	20	[-999, -999, -999]	n/a	FR1	0	R1150J
2157.838	0.701	2163957	DISTRACT_END	n/a	n/a	n/a	-999	20	[0, 0, 0]	n/a	FR1	0	R1150J
2158.539	0.517	2164658	RETRIEVAL_ORIENT	n/a	n/a	n/a	-999	20	[0, 0, 0]	n/a	FR1	0	R1150J
2159.056	1.53	2165175	REC_START	n/a	n/a	n/a	-999	20	[0, 0, 0]	n/a	FR1	0	R1150J
2160.586	0.693	2166705	REC_WORD	0.693	n/a	WEED	-999	20	[0, 0, 0]	n/a	FR1	0	R1150J
2161.279	0.739	2167398	REC_WORD	0.739	n/a	OWL	-999	20	[0, 0, 0]	n/a	FR1	0	R1150J
2162.018	0.978	2168137	REC_WORD	0.978	n/a	POLE	-999	20	[0, 0, 0]	n/a	FR1	0	R1150J
2162.996	9.108	2169115	REC_WORD	9.108	n/a	BOY	-999	20	[0, 0, 0]	n/a	FR1	0	R1150J
2172.104	11.029	2178222	REC_WORD_VV	11.029	n/a	<>	-999	20	[0, 0, 0]	n/a	FR1	0	R1150J
2183.133	0.301	2189251	REC_WORD	0.301	n/a	WEED	-999	20	[0, 0, 0]	n/a	FR1	0	R1150J
2183.434	0.666	2189552	REC_WORD	0.666	n/a	OWL	-999	20	[0, 0, 0]	n/a	FR1	0	R1150J
2184.1	0.748	2190218	REC_WORD	0.748	n/a	BOY	-999	20	[0, 0, 0]	n/a	FR1	0	R1150J
2184.848	3.095	2190966	REC_WORD	3.095	n/a	LIGHT	-999	20	[0, 0, 0]	n/a	FR1	0	R1150J
2187.943	0.27	2194061	REC_WORD	0.27	n/a	WEED	-999	20	[0, 0, 0]	n/a	FR1	0	R1150J
2188.213	0.328	2194331	REC_WORD	0.328	n/a	OWL	-999	20	[0, 0, 0]	n/a	FR1	0	R1150J
2188.541	0.338	2194659	REC_WORD	0.338	n/a	POLE	-999	20	[0, 0, 0]	n/a	FR1	0	R1150J
2188.879	0.188	2194997	REC_WORD	0.188	n/a	BOY	-999	20	[0, 0, 0]	n/a	FR1	0	R1150J
2189.067	8.877	2195185	REC_END	n/a	n/a	n/a	-999	20	[0, 0, 0]	n/a	FR1	0	R1150J
2197.944	0.5	2204062	TRIAL	n/a	n/a	n/a	-999	21	[0, 0, 0]	n/a	FR1	0	R1150J
2198.444	10.428	2204562	COUNTDOWN_START	n/a	n/a	n/a	-999	21	[0, 0, 0]	n/a	FR1	0	R1150J
2208.872	0.006	2214990	COUNTDOWN_END	n/a	n/a	n/a	-999	21	[0, 0, 0]	n/a	FR1	0	R1150J
2208.878	1.617	2214996	ORIENT	n/a	n/a	n/a	-999	21	[0, 0, 0]	n/a	FR1	0	R1150J
2210.495	2.034	2216613	ORIENT_OFF	n/a	n/a	n/a	-999	21	[0, 0, 0]	n/a	FR1	0	R1150J
2212.529	1.617	2218647	WORD	n/a	wordpools/wordpool_EN.txt	PEA	1	21	[0, 0, 0]	n/a	FR1	0	R1150J
2214.146	0.833	2220264	WORD_OFF	n/a	n/a	PEA	1	21	[0, 0, 0]	n/a	FR1	0	R1150J
2214.979	1.617	2221097	WORD	n/a	wordpools/wordpool_EN.txt	MOLE	2	21	[0, 0, 0]	n/a	FR1	0	R1150J
2216.596	0.767	2222714	WORD_OFF	n/a	n/a	MOLE	2	21	[0, 0, 0]	n/a	FR1	0	R1150J
2217.363	1.617	2223481	WORD	n/a	wordpools/wordpool_EN.txt	HORSE	3	21	[0, 0, 0]	n/a	FR1	0	R1150J
2218.98	0.983	2225098	WORD_OFF	n/a	n/a	HORSE	3	21	[0, 0, 0]	n/a	FR1	0	R1150J
2219.963	1.617	2226081	WORD	n/a	wordpools/wordpool_EN.txt	WHEEL	4	21	[0, 0, 0]	n/a	FR1	0	R1150J
2221.58	0.984	2227698	WORD_OFF	n/a	n/a	WHEEL	4	21	[0, 0, 0]	n/a	FR1	0	R1150J
2222.564	1.616	2228682	WORD	n/a	wordpools/wordpool_EN.txt	FORT	5	21	[0, 0, 0]	n/a	FR1	0	R1150J
2224.18	1.001	2230298	WORD_OFF	n/a	n/a	FORT	5	21	[0, 0, 0]	n/a	FR1	0	R1150J
2225.181	1.617	2231299	WORD	n/a	wordpools/wordpool_EN.txt	STONE	6	21	[0, 0, 0]	n/a	FR1	0	R1150J
2226.798	0.916	2232916	WORD_OFF	n/a	n/a	STONE	6	21	[0, 0, 0]	n/a	FR1	0	R1150J
2227.714	1.617	2233832	WORD	n/a	wordpools/wordpool_EN.txt	THUMB	7	21	[0, 0, 0]	n/a	FR1	0	R1150J
2229.331	0.9	2235449	WORD_OFF	n/a	n/a	THUMB	7	21	[0, 0, 0]	n/a	FR1	0	R1150J
2230.231	1.617	2236349	WORD	n/a	wordpools/wordpool_EN.txt	ROOT	8	21	[0, 0, 0]	n/a	FR1	0	R1150J
2231.848	0.784	2237966	WORD_OFF	n/a	n/a	ROOT	8	21	[0, 0, 0]	n/a	FR1	0	R1150J
2232.632	1.616	2238750	WORD	n/a	wordpools/wordpool_EN.txt	SAIL	9	21	[0, 0, 0]	n/a	FR1	0	R1150J
2234.248	0.967	2240366	WORD_OFF	n/a	n/a	SAIL	9	21	[0, 0, 0]	n/a	FR1	0	R1150J
2235.215	1.617	2241333	WORD	n/a	wordpools/wordpool_EN.txt	CLOWN	10	21	[0, 0, 0]	n/a	FR1	0	R1150J
2236.832	0.767	2242950	WORD_OFF	n/a	n/a	CLOWN	10	21	[0, 0, 0]	n/a	FR1	0	R1150J
2237.599	1.617	2243717	WORD	n/a	wordpools/wordpool_EN.txt	CLOTH	11	21	[0, 0, 0]	n/a	FR1	0	R1150J
2239.216	0.834	2245333	WORD_OFF	n/a	n/a	CLOTH	11	21	[0, 0, 0]	n/a	FR1	0	R1150J
2240.05	1.616	2246167	WORD	n/a	wordpools/wordpool_EN.txt	WOLF	12	21	[0, 0, 0]	n/a	FR1	0	R1150J
2241.666	0.0	2247783	DISTRACT_START	n/a	n/a	n/a	-999	21	[0, 0, 0]	n/a	FR1	0	R1150J
2241.666	0.001	2247783	WORD_OFF	n/a	n/a	WOLF	12	21	[0, 0, 0]	n/a	FR1	0	R1150J
2241.667	0.016	2247784	START	n/a	n/a	n/a	-999	21	[-999, -999, -999]	n/a	FR1	0	R1150J
2241.683	3.017	2247800	PROB	3.017	n/a	n/a	-999	21	[3, 4, 1]	8	FR1	0	R1150J
2244.7	2.134	2250817	PROB	2.134	n/a	n/a	-999	21	[9, 9, 9]	27	FR1	0	R1150J
2246.834	1.617	2252951	PROB	1.617	n/a	n/a	-999	21	[7, 2, 3]	12	FR1	0	R1150J
2248.451	1.817	2254568	PROB	1.817	n/a	n/a	-999	21	[8, 2, 7]	17	FR1	0	R1150J
2250.268	2.3	2256385	PROB	2.3	n/a	n/a	-999	21	[3, 8, 9]	20	FR1	0	R1150J
2252.568	2.334	2258685	PROB	2.334	n/a	n/a	-999	21	[2, 1, 4]	7	FR1	0	R1150J
2254.902	3.717	2261019	PROB	3.717	n/a	n/a	-999	21	[6, 7, 9]	19	FR1	0	R1150J
2258.619	3.255	2264736	PROB	3.255	n/a	n/a	-999	21	[2, 7, 9]	18	FR1	0	R1150J
2261.874	0.012	2267991	STOP	n/a	n/a	n/a	-999	21	[-999, -999, -999]	n/a	FR1	0	R1150J
2261.886	0.6	2268003	DISTRACT_END	n/a	n/a	n/a	-999	21	[0, 0, 0]	n/a	FR1	0	R1150J
2262.486	161.388	2268603	RETRIEVAL_ORIENT	n/a	n/a	n/a	-999	21	[0, 0, 0]	n/a	FR1	0	R1150J
2423.874	0.0	6042	INSTRUCT_START	n/a	n/a	n/a	-999	21	[0, 0, 0]	n/a	FR1	0	R1150J
2423.874	11.007	6042	INSTRUCT_END	n/a	n/a	n/a	-999	21	[0, 0, 0]	n/a	FR1	0	R1150J
2434.881	0.0	17048	SESS_START	n/a	n/a	n/a	-999	21	[0, 0, 0]	n/a	FR1	0	R1150J
2434.881	58.203	17048	MIC_TEST	n/a	n/a	n/a	-999	21	[0, 0, 0]	n/a	FR1	0	R1150J
2493.084	0.016	75251	START	n/a	n/a	n/a	-999	22	[-999, -999, -999]	n/a	FR1	0	R1150J
2493.1	3.15	75267	PROB	3.15	n/a	n/a	-999	22	[6, 8, 7]	21	FR1	0	R1150J
2496.25	1.851	78417	PROB	1.851	n/a	n/a	-999	22	[5, 1, 1]	7	FR1	0	R1150J
2498.101	2.417	80268	PROB	2.417	n/a	n/a	-999	22	[7, 6, 3]	16	FR1	0	R1150J
2500.518	3.583	82685	PROB	3.583	n/a	n/a	-999	22	[6, 3, 2]	11	FR1	0	R1150J
2504.101	1.934	86268	PROB	1.934	n/a	n/a	-999	22	[5, 2, 2]	9	FR1	0	R1150J
2506.035	2.116	88202	PROB	2.116	n/a	n/a	-999	22	[9, 5, 1]	15	FR1	0	R1150J
2508.151	3.234	90318	PROB	3.234	n/a	n/a	-999	22	[2, 7, 8]	17	FR1	0	R1150J
2511.385	3.19	93552	PROB	3.19	n/a	n/a	-999	22	[9, 5, 4]	18	FR1	0	R1150J
2514.575	36.015	96742	STOP	n/a	n/a	n/a	-999	22	[-999, -999, -999]	n/a	FR1	0	R1150J
2550.59	0.5	132756	TRIAL	n/a	n/a	n/a	-999	22	[0, 0, 0]	n/a	FR1	0	R1150J
2551.09	10.428	133256	COUNTDOWN_START	n/a	n/a	n/a	-999	22	[0, 0, 0]	n/a	FR1	0	R1150J
2561.518	0.008	143684	COUNTDOWN_END	n/a	n/a	n/a	-999	22	[0, 0, 0]	n/a	FR1	0	R1150J
2561.526	1.616	143692	ORIENT	n/a	n/a	n/a	-999	22	[0, 0, 0]	n/a	FR1	0	R1150J
2563.142	2.401	145308	ORIENT_OFF	n/a	n/a	n/a	-999	22	[0, 0, 0]	n/a	FR1	0	R1150J
2565.543	1.617	147709	WORD	n/a	wordpools/wordpool_EN.txt	JUICE	1	22	[0, 0, 0]	n/a	FR1	0	R1150J
2567.16	0.766	149326	WORD_OFF	n/a	n/a	JUICE	1	22	[0, 0, 0]	n/a	FR1	0	R1150J
2567.926	1.601	150092	WORD	n/a	wordpools/wordpool_EN.txt	EAR	2	22	[0, 0, 0]	n/a	FR1	0	R1150J
2569.527	0.8	151693	WORD_OFF	n/a	n/a	EAR	2	22	[0, 0, 0]	n/a	FR1	0	R1150J
2570.327	1.617	152493	WORD	n/a	wordpools/wordpool_EN.txt	LOCK	3	22	[0, 0, 0]	n/a	FR1	0	R1150J
2571.944	0.966	154110	WORD_OFF	n/a	n/a	LOCK	3	22	[0, 0, 0]	n/a	FR1	0	R1150J
2572.91	1.617	155076	WORD	n/a	wordpools/wordpool_EN.txt	SEAT	4	22	[0, 0, 0]	n/a	FR1	0	R1150J
2574.527	0.884	156693	WORD_OFF	n/a	n/a	SEAT	4	22	[0, 0, 0]	n/a	FR1	0	R1150J
2575.411	1.617	157577	WORD	n/a	wordpools/wordpool_EN.txt	WAND	5	22	[0, 0, 0]	n/a	FR1	0	R1150J
2577.028	0.833	159194	WORD_OFF	n/a	n/a	WAND	5	22	[0, 0, 0]	n/a	FR1	0	R1150J
2577.861	1.617	160027	WORD	n/a	wordpools/wordpool_EN.txt	FARM	6	22	[0, 0, 0]	n/a	FR1	0	R1150J
2579.478	1.017	161644	WORD_OFF	n/a	n/a	FARM	6	22	[0, 0, 0]	n/a	FR1	0	R1150J
2580.495	1.617	162661	WORD	n/a	wordpools/wordpool_EN.txt	CAVE	7	22	[0, 0, 0]	n/a	FR1	0	R1150J
2582.112	0.8	164278	WORD_OFF	n/a	n/a	CAVE	7	22	[0, 0, 0]	n/a	FR1	0	R1150J
2582.912	1.616	165078	WORD	n/a	wordpools/wordpool_EN.txt	CORN	8	22	[0, 0, 0]	n/a	FR1	0	R1150J
2584.528	0.967	166694	WORD_OFF	n/a	n/a	CORN	8	22	[0, 0, 0]	n/a	FR1	0	R1150J
2585.495	1.617	167661	WORD	n/a	wordpools/wordpool_EN.txt	SLEEVE	9	22	[0, 0, 0]	n/a	FR1	0	R1150J
2587.112	0.784	169278	WORD_OFF	n/a	n/a	SLEEVE	9	22	[0, 0, 0]	n/a	FR1	0	R1150J
2587.896	1.617	170062	WORD	n/a	wordpools/wordpool_EN.txt	COUCH	10	22	[0, 0, 0]	n/a	FR1	0	R1150J
2589.513	0.95	171679	WORD_OFF	n/a	n/a	COUCH	10	22	[0, 0, 0]	n/a	FR1	0	R1150J
2590.463	1.617	172629	WORD	n/a	wordpools/wordpool_EN.txt	CRANE	11	22	[0, 0, 0]	n/a	FR1	0	R1150J
2592.08	0.933	174246	WORD_OFF	n/a	n/a	CRANE	11	22	[0, 0, 0]	n/a	FR1	0	R1150J
2593.013	1.616	175179	WORD	n/a	wordpools/wordpool_EN.txt	GRAPE	12	22	[0, 0, 0]	n/a	FR1	0	R1150J
2594.629	0.0	176795	WORD_OFF	n/a	n/a	GRAPE	12	22	[0, 0, 0]	n/a	FR1	0	R1150J
2594.629	0.0	176795	DISTRACT_START	n/a	n/a	n/a	-999	22	[0, 0, 0]	n/a	FR1	0	R1150J
2594.629	0.017	176795	START	n/a	n/a	n/a	-999	23	[-999, -999, -999]	n/a	FR1	0	R1150J
2594.646	2.434	176812	PROB	2.434	n/a	n/a	-999	23	[6, 2, 8]	16	FR1	0	R1150J
2597.08	4.034	179246	PROB	4.034	n/a	n/a	-999	23	[5, 8, 7]	20	FR1	0	R1150J
2601.114	3.084	183280	PROB	3.084	n/a	n/a	-999	23	[8, 2, 3]	14	FR1	0	R1150J
2604.198	2.449	186364	PROB	2.449	n/a	n/a	-999	23	[5, 3, 2]	10	FR1	0	R1150J
2606.647	5.984	188813	PROB	5.984	n/a	n/a	-999	23	[7, 8, 7]	26	FR1	0	R1150J
2612.631	3.318	194797	PROB	3.318	n/a	n/a	-999	23	[3, 3, 1]	7	FR1	0	R1150J
2615.949	0.017	198115	STOP	n/a	n/a	n/a	-999	23	[-999, -999, -999]	n/a	FR1	0	R1150J
2615.966	0.584	198132	DISTRACT_END	n/a	n/a	n/a	-999	22	[0, 0, 0]	n/a	FR1	0	R1150J
2616.55	0.517	198716	RETRIEVAL_ORIENT	n/a	n/a	n/a	-999	22	[0, 0, 0]	n/a	FR1	0	R1150J
2617.067	2.305	199233	REC_START	n/a	n/a	n/a	-999	22	[0, 0, 0]	n/a	FR1	0	R1150J
2619.372	3.488	201538	REC_WORD	3.488	n/a	COUCH	-999	22	[0, 0, 0]	n/a	FR1	0	R1150J
2622.86	7.442	205026	REC_WORD	7.442	n/a	RAIN	-999	22	[0, 0, 0]	n/a	FR1	0	R1150J
2630.302	6.429	212468	REC_WORD	6.429	n/a	CLOWN	-999	22	[0, 0, 0]	n/a	FR1	0	R1150J
2636.731	6.875	218897	REC_WORD	6.875	n/a	EAR	-999	22	[0, 0, 0]	n/a	FR1	0	R1150J
2643.606	3.47	225772	REC_WORD	3.47	n/a	LIGHT	-999	22	[0, 0, 0]	n/a	FR1	0	R1150J
2647.076	4.945	229242	REC_END	n/a	n/a	n/a	-999	22	[0, 0, 0]	n/a	FR1	0	R1150J
2652.021	0.5	234186	TRIAL	n/a	n/a	n/a	-999	23	[0, 0, 0]	n/a	FR1	0	R1150J
2652.521	10.428	234686	COUNTDOWN_START	n/a	n/a	n/a	-999	23	[0, 0, 0]	n/a	FR1	0	R1150J
2662.949	0.007	245114	COUNTDOWN_END	n/a	n/a	n/a	-999	23	[0, 0, 0]	n/a	FR1	0	R1150J
2662.956	1.617	245121	ORIENT	n/a	n/a	n/a	-999	23	[0, 0, 0]	n/a	FR1	0	R1150J
2664.573	2.099	246738	ORIENT_OFF	n/a	n/a	n/a	-999	23	[0, 0, 0]	n/a	FR1	0	R1150J
2666.672	1.618	248837	WORD	n/a	wordpools/wordpool_EN.txt	BLUSH	1	23	[0, 0, 0]	n/a	FR1	0	R1150J
2668.29	0.817	250455	WORD_OFF	n/a	n/a	BLUSH	1	23	[0, 0, 0]	n/a	FR1	0	R1150J
2669.107	1.617	251272	WORD	n/a	wordpools/wordpool_EN.txt	SIGN	2	23	[0, 0, 0]	n/a	FR1	0	R1150J
2670.724	0.916	252889	WORD_OFF	n/a	n/a	SIGN	2	23	[0, 0, 0]	n/a	FR1	0	R1150J
2671.64	1.617	253805	WORD	n/a	wordpools/wordpool_EN.txt	FENCE	3	23	[0, 0, 0]	n/a	FR1	0	R1150J
2673.257	0.95	255422	WORD_OFF	n/a	n/a	FENCE	3	23	[0, 0, 0]	n/a	FR1	0	R1150J
2674.207	1.617	256372	WORD	n/a	wordpools/wordpool_EN.txt	ROOF	4	23	[0, 0, 0]	n/a	FR1	0	R1150J
2675.824	0.783	257989	WORD_OFF	n/a	n/a	ROOF	4	23	[0, 0, 0]	n/a	FR1	0	R1150J
2676.607	1.618	258772	WORD	n/a	wordpools/wordpool_EN.txt	VASE	5	23	[0, 0, 0]	n/a	FR1	0	R1150J
2678.225	0.883	260390	WORD_OFF	n/a	n/a	VASE	5	23	[0, 0, 0]	n/a	FR1	0	R1150J
2679.108	1.617	261273	WORD	n/a	wordpools/wordpool_EN.txt	MOUSE	6	23	[0, 0, 0]	n/a	FR1	0	R1150J
2680.725	0.983	262890	WORD_OFF	n/a	n/a	MOUSE	6	23	[0, 0, 0]	n/a	FR1	0	R1150J
2681.708	1.617	263873	WORD	n/a	wordpools/wordpool_EN.txt	SHOE	7	23	[0, 0, 0]	n/a	FR1	0	R1150J
2683.325	0.784	265490	WORD_OFF	n/a	n/a	SHOE	7	23	[0, 0, 0]	n/a	FR1	0	R1150J
2684.109	1.617	266274	WORD	n/a	wordpools/wordpool_EN.txt	MILK	8	23	[0, 0, 0]	n/a	FR1	0	R1150J
2685.726	0.865	267891	WORD_OFF	n/a	n/a	MILK	8	23	[0, 0, 0]	n/a	FR1	0	R1150J
2686.591	1.618	268756	WORD	n/a	wordpools/wordpool_EN.txt	CART	9	23	[0, 0, 0]	n/a	FR1	0	R1150J
2688.209	0.834	270374	WORD_OFF	n/a	n/a	CART	9	23	[0, 0, 0]	n/a	FR1	0	R1150J
2689.043	1.616	271208	WORD	n/a	wordpools/wordpool_EN.txt	AXE	10	23	[0, 0, 0]	n/a	FR1	0	R1150J
2690.659	0.9	272824	WORD_OFF	n/a	n/a	AXE	10	23	[0, 0, 0]	n/a	FR1	0	R1150J
2691.559	1.617	273724	WORD	n/a	wordpools/wordpool_EN.txt	FLAME	11	23	[0, 0, 0]	n/a	FR1	0	R1150J
2693.176	0.901	275341	WORD_OFF	n/a	n/a	FLAME	11	23	[0, 0, 0]	n/a	FR1	0	R1150J
2694.077	1.615	276242	WORD	n/a	wordpools/wordpool_EN.txt	PIT	12	23	[0, 0, 0]	n/a	FR1	0	R1150J
2695.692	0.0	277857	WORD_OFF	n/a	n/a	PIT	12	23	[0, 0, 0]	n/a	FR1	0	R1150J
2695.692	0.001	277857	DISTRACT_START	n/a	n/a	n/a	-999	23	[0, 0, 0]	n/a	FR1	0	R1150J
2695.693	0.016	277858	START	n/a	n/a	n/a	-999	24	[-999, -999, -999]	n/a	FR1	0	R1150J
2695.709	2.852	277874	PROB	2.852	n/a	n/a	-999	24	[5, 5, 7]	17	FR1	0	R1150J
2698.561	4.883	280726	PROB	4.883	n/a	n/a	-999	24	[8, 1, 3]	12	FR1	0	R1150J
2703.444	2.651	285609	PROB	2.651	n/a	n/a	-999	24	[3, 1, 2]	6	FR1	0	R1150J
2706.095	4.117	288260	PROB	4.117	n/a	n/a	-999	24	[9, 8, 9]	26	FR1	0	R1150J
2710.212	2.267	292377	PROB	2.267	n/a	n/a	-999	24	[2, 4, 7]	14	FR1	0	R1150J
2712.479	1.7	294644	PROB	1.7	n/a	n/a	-999	24	[2, 4, 6]	12	FR1	0	R1150J
2714.179	2.934	296344	PROB	2.934	n/a	n/a	-999	24	[3, 4, 2]	9	FR1	0	R1150J
2717.113	0.017	299278	STOP	n/a	n/a	n/a	-999	24	[-999, -999, -999]	n/a	FR1	0	R1150J
2717.13	0.616	299295	DISTRACT_END	n/a	n/a	n/a	-999	23	[0, 0, 0]	n/a	FR1	0	R1150J
2717.746	0.518	299911	RETRIEVAL_ORIENT	n/a	n/a	n/a	-999	23	[0, 0, 0]	n/a	FR1	0	R1150J
2718.264	1.547	300429	REC_START	n/a	n/a	n/a	-999	23	[0, 0, 0]	n/a	FR1	0	R1150J
2719.811	0.699	301976	REC_WORD	0.699	n/a	LIGHT	-999	23	[0, 0, 0]	n/a	FR1	0	R1150J
2720.51	1.072	302675	REC_WORD	1.072	n/a	EAR	-999	23	[0, 0, 0]	n/a	FR1	0	R1150J
2721.582	1.245	303747	REC_WORD	1.245	n/a	VASE	-999	23	[0, 0, 0]	n/a	FR1	0	R1150J
2722.827	1.0	304992	REC_WORD_VV	1.0	n/a	<>	-999	23	[0, 0, 0]	n/a	FR1	0	R1150J
2723.827	2.298	305992	REC_WORD_VV	2.298	n/a	<>	-999	23	[0, 0, 0]	n/a	FR1	0	R1150J
2726.125	22.15	308290	REC_WORD	22.15	n/a	EAR	-999	23	[0, 0, 0]	n/a	FR1	0	R1150J
2748.275	5.093	330440	REC_END	n/a	n/a	n/a	-999	23	[0, 0, 0]	n/a	FR1	0	R1150J
2753.368	0.5	335533	TRIAL	n/a	n/a	n/a	-999	24	[0, 0, 0]	n/a	FR1	0	R1150J
2753.868	10.428	336033	COUNTDOWN_START	n/a	n/a	n/a	-999	24	[0, 0, 0]	n/a	FR1	0	R1150J
2764.296	0.007	346460	COUNTDOWN_END	n/a	n/a	n/a	-999	24	[0, 0, 0]	n/a	FR1	0	R1150J
2764.303	1.617	346467	ORIENT	n/a	n/a	n/a	-999	24	[0, 0, 0]	n/a	FR1	0	R1150J
2765.92	2.317	348084	ORIENT_OFF	n/a	n/a	n/a	-999	24	[0, 0, 0]	n/a	FR1	0	R1150J
2768.237	1.617	350401	WORD	n/a	wordpools/wordpool_EN.txt	VINE	1	24	[0, 0, 0]	n/a	FR1	0	R1150J
2769.854	0.815	352018	WORD_OFF	n/a	n/a	VINE	1	24	[0, 0, 0]	n/a	FR1	0	R1150J
2770.669	1.601	352833	WORD	n/a	wordpools/wordpool_EN.txt	PEACH	2	24	[0, 0, 0]	n/a	FR1	0	R1150J
2772.27	0.9	354434	WORD_OFF	n/a	n/a	PEACH	2	24	[0, 0, 0]	n/a	FR1	0	R1150J
2773.17	1.617	355334	WORD	n/a	wordpools/wordpool_EN.txt	CAPE	3	24	[0, 0, 0]	n/a	FR1	0	R1150J
2774.787	0.866	356951	WORD_OFF	n/a	n/a	CAPE	3	24	[0, 0, 0]	n/a	FR1	0	R1150J
2775.653	1.618	357817	WORD	n/a	wordpools/wordpool_EN.txt	FOOT	4	24	[0, 0, 0]	n/a	FR1	0	R1150J
2777.271	0.8	359435	WORD_OFF	n/a	n/a	FOOT	4	24	[0, 0, 0]	n/a	FR1	0	R1150J
2778.071	1.616	360235	WORD	n/a	wordpools/wordpool_EN.txt	KITE	5	24	[0, 0, 0]	n/a	FR1	0	R1150J
2779.687	0.95	361851	WORD_OFF	n/a	n/a	KITE	5	24	[0, 0, 0]	n/a	FR1	0	R1150J
2780.637	1.618	362801	WORD	n/a	wordpools/wordpool_EN.txt	PLATE	6	24	[0, 0, 0]	n/a	FR1	0	R1150J
2782.255	0.95	364419	WORD_OFF	n/a	n/a	PLATE	6	24	[0, 0, 0]	n/a	FR1	0	R1150J
2783.205	1.617	365369	WORD	n/a	wordpools/wordpool_EN.txt	HORN	7	24	[0, 0, 0]	n/a	FR1	0	R1150J
2784.822	0.799	366986	WORD_OFF	n/a	n/a	HORN	7	24	[0, 0, 0]	n/a	FR1	0	R1150J
2785.621	1.601	367785	WORD	n/a	wordpools/wordpool_EN.txt	HOSE	8	24	[0, 0, 0]	n/a	FR1	0	R1150J
2787.222	0.834	369386	WORD_OFF	n/a	n/a	HOSE	8	24	[0, 0, 0]	n/a	FR1	0	R1150J
2788.056	1.616	370220	WORD	n/a	wordpools/wordpool_EN.txt	STOVE	9	24	[0, 0, 0]	n/a	FR1	0	R1150J
2789.672	0.984	371836	WORD_OFF	n/a	n/a	STOVE	9	24	[0, 0, 0]	n/a	FR1	0	R1150J
2790.656	1.618	372820	WORD	n/a	wordpools/wordpool_EN.txt	GLOVE	10	24	[0, 0, 0]	n/a	FR1	0	R1150J
2792.274	0.783	374438	WORD_OFF	n/a	n/a	GLOVE	10	24	[0, 0, 0]	n/a	FR1	0	R1150J
2793.057	1.616	375221	WORD	n/a	wordpools/wordpool_EN.txt	STOOL	11	24	[0, 0, 0]	n/a	FR1	0	R1150J
2794.673	1.0	376837	WORD_OFF	n/a	n/a	STOOL	11	24	[0, 0, 0]	n/a	FR1	0	R1150J
2795.673	1.618	377837	WORD	n/a	wordpools/wordpool_EN.txt	BROOM	12	24	[0, 0, 0]	n/a	FR1	0	R1150J
2797.291	0.0	379455	WORD_OFF	n/a	n/a	BROOM	12	24	[0, 0, 0]	n/a	FR1	0	R1150J
2797.291	0.0	379455	DISTRACT_START	n/a	n/a	n/a	-999	24	[0, 0, 0]	n/a	FR1	0	R1150J
2797.291	0.016	379455	START	n/a	n/a	n/a	-999	25	[-999, -999, -999]	n/a	FR1	0	R1150J
2797.307	3.468	379471	PROB	3.468	n/a	n/a	-999	25	[4, 1, 7]	12	FR1	0	R1150J
2800.775	1.749	382939	PROB	1.749	n/a	n/a	-999	25	[3, 3, 6]	12	FR1	0	R1150J
2802.524	3.484	384688	PROB	3.484	n/a	n/a	-999	25	[5, 9, 4]	18	FR1	0	R1150J
2806.008	2.051	388172	PROB	2.051	n/a	n/a	-999	25	[5, 7, 7]	19	FR1	0	R1150J
2808.059	2.384	390223	PROB	2.384	n/a	n/a	-999	25	[2, 2, 4]	8	FR1	0	R1150J
2810.443	3.833	392607	PROB	3.833	n/a	n/a	-999	25	[8, 4, 8]	20	FR1	0	R1150J
2814.276	2.034	396440	PROB	2.034	n/a	n/a	-999	25	[4, 5, 1]	10	FR1	0	R1150J
2816.31	3.096	398474	PROB	3.096	n/a	n/a	-999	25	[5, 9, 8]	22	FR1	0	R1150J
2819.406	0.021	401570	STOP	n/a	n/a	n/a	-999	25	[-999, -999, -999]	n/a	FR1	0	R1150J
2819.427	0.533	401591	DISTRACT_END	n/a	n/a	n/a	-999	24	[0, 0, 0]	n/a	FR1	0	R1150J
2819.96	0.519	402124	RETRIEVAL_ORIENT	n/a	n/a	n/a	-999	24	[0, 0, 0]	n/a	FR1	0	R1150J
2820.479	30.0	402643	REC_START	n/a	n/a	n/a	-999	24	[0, 0, 0]	n/a	FR1	0	R1150J
2850.479	0.01	432643	REC_WORD_VV	0.01	n/a	<>	-999	24	[0, 0, 0]	n/a	FR1	0	R1150J
2850.489	5.576	432653	REC_END	n/a	n/a	n/a	-999	24	[0, 0, 0]	n/a	FR1	0	R1150J
2856.065	0.5	438229	TRIAL	n/a	n/a	n/a	-999	25	[0, 0, 0]	n/a	FR1	0	R1150J
2856.565	10.428	438729	COUNTDOWN_START	n/a	n/a	n/a	-999	25	[0, 0, 0]	n/a	FR1	0	R1150J
2866.993	0.007	449156	COUNTDOWN_END	n/a	n/a	n/a	-999	25	[0, 0, 0]	n/a	FR1	0	R1150J
2867.0	1.616	449163	ORIENT	n/a	n/a	n/a	-999	25	[0, 0, 0]	n/a	FR1	0	R1150J
