onset	duration	sample	trial_type	response_time	stim_file	item_name	serialpos	list	test	answer	experiment	session	subject
0.0	21.021	-1	SESS_START	n/a	n/a	n/a	-999	-999	[0, 0, 0]	n/a	FR1	2	R1122E
21.021	10.428	20366	COUNTDOWN_START	n/a	n/a	n/a	-999	-999	[0, 0, 0]	n/a	FR1	2	R1122E
31.449	3.609	30794	COUNTDOWN_END	n/a	n/a	n/a	-999	-999	[0, 0, 0]	n/a	FR1	2	R1122E
35.058	2.384	34402	PRACTICE_WORD	n/a	n/a	BEAM	1	-1	[0, 0, 0]	n/a	FR1	2	R1122E
37.442	2.416	36786	PRACTICE_WORD	n/a	n/a	IRON	2	-1	[0, 0, 0]	n/a	FR1	2	R1122E
39.858	2.618	39202	PRACTICE_WORD	n/a	n/a	RHINO	3	-1	[0, 0, 0]	n/a	FR1	2	R1122E
42.476	2.433	41820	PRACTICE_WORD	n/a	n/a	TONGUE	4	-1	[0, 0, 0]	n/a	FR1	2	R1122E
44.909	2.501	44253	PRACTICE_WORD	n/a	n/a	CAMEL	5	-1	[0, 0, 0]	n/a	FR1	2	R1122E
47.41	2.5	46754	PRACTICE_WORD	n/a	n/a	COTTON	6	-1	[0, 0, 0]	n/a	FR1	2	R1122E
49.91	2.401	49253	PRACTICE_WORD	n/a	n/a	WATCH	7	-1	[0, 0, 0]	n/a	FR1	2	R1122E
52.311	2.583	51654	PRACTICE_WORD	n/a	n/a	RING	8	-1	[0, 0, 0]	n/a	FR1	2	R1122E
54.894	2.534	54237	PRACTICE_WORD	n/a	n/a	ATTIC	9	-1	[0, 0, 0]	n/a	FR1	2	R1122E
57.428	2.4	56771	PRACTICE_WORD	n/a	n/a	WAGON	10	-1	[0, 0, 0]	n/a	FR1	2	R1122E
59.828	2.601	59171	PRACTICE_WORD	n/a	n/a	FLOOD	11	-1	[0, 0, 0]	n/a	FR1	2	R1122E
62.429	1.617	61772	PRACTICE_WORD	n/a	n/a	CHEST	12	-1	[0, 0, 0]	n/a	FR1	2	R1122E
64.046	0.001	63388	PRACTICE_DISTRACT_START	n/a	n/a	n/a	-999	-1	[0, 0, 0]	n/a	FR1	2	R1122E
64.047	0.016	63389	START	n/a	n/a	n/a	-999	-1	[-999, -999, -999]	n/a	FR1	2	R1122E
64.063	3.75	63405	PROB	3.75	n/a	n/a	-999	-1	[1, 1, 8]	10	FR1	2	R1122E
67.813	3.95	67155	PROB	3.95	n/a	n/a	-999	-1	[6, 6, 2]	14	FR1	2	R1122E
71.763	3.835	71105	PROB	3.835	n/a	n/a	-999	-1	[6, 5, 9]	20	FR1	2	R1122E
75.598	3.283	74940	PROB	3.283	n/a	n/a	-999	-1	[9, 9, 7]	25	FR1	2	R1122E
78.881	3.185	78222	PROB	3.185	n/a	n/a	-999	-1	[8, 4, 1]	13	FR1	2	R1122E
82.066	2.82	81407	PROB	2.82	n/a	n/a	-999	-1	[5, 6, 4]	15	FR1	2	R1122E
84.886	0.013	84227	STOP	n/a	n/a	n/a	-999	-1	[-999, -999, -999]	n/a	FR1	2	R1122E
84.899	0.703	84240	PRACTICE_DISTRACT_END	n/a	n/a	n/a	-999	-1	[0, 0, 0]	n/a	FR1	2	R1122E
85.602	30.515	84943	PRACTICE_REC_START	n/a	n/a	n/a	-999	-1	[0, 0, 0]	n/a	FR1	2	R1122E
116.117	9.023	115456	PRACTICE_REC_END	n/a	n/a	n/a	-999	-1	[0, 0, 0]	n/a	FR1	2	R1122E
125.14	0.0	124478	COUNTDOWN_START	n/a	n/a	n/a	-999	1	[0, 0, 0]	n/a	FR1	2	R1122E
125.14	10.428	124478	TRIAL	n/a	n/a	n/a	-999	1	[0, 0, 0]	n/a	FR1	2	R1122E
135.568	0.007	134906	COUNTDOWN_END	n/a	n/a	n/a	-999	1	[0, 0, 0]	n/a	FR1	2	R1122E
135.575	2.501	134913	ORIENT	n/a	n/a	n/a	-999	1	[0, 0, 0]	n/a	FR1	2	R1122E
138.076	2.534	137413	WORD	n/a	wordpools/wordpool_EN.txt	DRESS	1	1	[0, 0, 0]	n/a	FR1	2	R1122E
140.61	2.517	139947	WORD	n/a	wordpools/wordpool_EN.txt	LAWN	2	1	[0, 0, 0]	n/a	FR1	2	R1122E
143.127	2.383	142464	WORD	n/a	wordpools/wordpool_EN.txt	BARN	3	1	[0, 0, 0]	n/a	FR1	2	R1122E
145.51	2.5	144847	WORD	n/a	wordpools/wordpool_EN.txt	SCHOOL	4	1	[0, 0, 0]	n/a	FR1	2	R1122E
148.01	2.418	147347	WORD	n/a	wordpools/wordpool_EN.txt	VEST	5	1	[0, 0, 0]	n/a	FR1	2	R1122E
150.428	2.566	149765	WORD	n/a	wordpools/wordpool_EN.txt	MUD	6	1	[0, 0, 0]	n/a	FR1	2	R1122E
152.994	2.551	152330	WORD	n/a	wordpools/wordpool_EN.txt	ROOF	7	1	[0, 0, 0]	n/a	FR1	2	R1122E
155.545	2.584	154881	WORD	n/a	wordpools/wordpool_EN.txt	NOSE	8	1	[0, 0, 0]	n/a	FR1	2	R1122E
158.129	2.484	157465	WORD	n/a	wordpools/wordpool_EN.txt	FACE	9	1	[0, 0, 0]	n/a	FR1	2	R1122E
160.613	2.551	159949	WORD	n/a	wordpools/wordpool_EN.txt	STREET	10	1	[0, 0, 0]	n/a	FR1	2	R1122E
163.164	2.567	162500	WORD	n/a	wordpools/wordpool_EN.txt	SHARK	11	1	[0, 0, 0]	n/a	FR1	2	R1122E
165.731	1.617	165067	WORD	n/a	wordpools/wordpool_EN.txt	CHEEK	12	1	[0, 0, 0]	n/a	FR1	2	R1122E
167.348	0.0	166683	DISTRACT_START	n/a	n/a	n/a	-999	1	[0, 0, 0]	n/a	FR1	2	R1122E
167.348	0.016	166683	START	n/a	n/a	n/a	-999	1	[-999, -999, -999]	n/a	FR1	2	R1122E
167.364	2.851	166699	PROB	2.851	n/a	n/a	-999	1	[8, 4, 2]	12	FR1	2	R1122E
170.215	3.334	169550	PROB	3.334	n/a	n/a	-999	1	[8, 1, 6]	15	FR1	2	R1122E
173.549	1.933	172884	PROB	1.933	n/a	n/a	-999	1	[4, 6, 2]	12	FR1	2	R1122E
175.482	2.001	174817	PROB	2.001	n/a	n/a	-999	1	[9, 3, 2]	14	FR1	2	R1122E
177.483	2.9	176818	PROB	2.9	n/a	n/a	-999	1	[8, 8, 9]	25	FR1	2	R1122E
180.383	2.067	179718	PROB	2.067	n/a	n/a	-999	1	[1, 9, 1]	11	FR1	2	R1122E
182.45	1.717	181784	PROB	1.717	n/a	n/a	-999	1	[3, 3, 5]	11	FR1	2	R1122E
184.167	1.766	183501	PROB	1.766	n/a	n/a	-999	1	[9, 1, 1]	11	FR1	2	R1122E
185.933	2.628	185267	PROB	2.628	n/a	n/a	-999	1	[2, 6, 2]	10	FR1	2	R1122E
188.561	0.007	187895	STOP	n/a	n/a	n/a	-999	1	[-999, -999, -999]	n/a	FR1	2	R1122E
188.568	1.173	187902	DISTRACT_END	n/a	n/a	n/a	-999	1	[0, 0, 0]	n/a	FR1	2	R1122E
189.741	1.683	189075	REC_START	n/a	n/a	n/a	-999	1	[0, 0, 0]	n/a	FR1	2	R1122E
191.424	1.108	190758	REC_WORD	1.108	n/a	DRESS	-999	1	[0, 0, 0]	n/a	FR1	2	R1122E
192.532	2.03	191866	REC_WORD	2.03	n/a	SCHOOL	-999	1	[0, 0, 0]	n/a	FR1	2	R1122E
194.562	2.964	193896	REC_WORD	2.964	n/a	FARM	-999	1	[0, 0, 0]	n/a	FR1	2	R1122E
197.526	5.349	196859	REC_WORD	5.349	n/a	LAWN	-999	1	[0, 0, 0]	n/a	FR1	2	R1122E
202.875	16.87	202208	REC_WORD	16.87	n/a	SHARK	-999	1	[0, 0, 0]	n/a	FR1	2	R1122E
219.745	2.846	219077	REC_END	n/a	n/a	n/a	-999	1	[0, 0, 0]	n/a	FR1	2	R1122E
222.591	0.0	221923	TRIAL	n/a	n/a	n/a	-999	2	[0, 0, 0]	n/a	FR1	2	R1122E
222.591	10.428	221923	COUNTDOWN_START	n/a	n/a	n/a	-999	2	[0, 0, 0]	n/a	FR1	2	R1122E
233.019	0.006	232350	COUNTDOWN_END	n/a	n/a	n/a	-999	2	[0, 0, 0]	n/a	FR1	2	R1122E
233.025	2.435	232356	ORIENT	n/a	n/a	n/a	-999	2	[0, 0, 0]	n/a	FR1	2	R1122E
235.46	2.6	234791	WORD	n/a	wordpools/wordpool_EN.txt	OAK	1	2	[0, 0, 0]	n/a	FR1	2	R1122E
238.06	2.417	237391	WORD	n/a	wordpools/wordpool_EN.txt	CUP	2	2	[0, 0, 0]	n/a	FR1	2	R1122E
240.477	2.416	239808	WORD	n/a	wordpools/wordpool_EN.txt	MUG	3	2	[0, 0, 0]	n/a	FR1	2	R1122E
242.893	2.468	242223	WORD	n/a	wordpools/wordpool_EN.txt	SHELL	4	2	[0, 0, 0]	n/a	FR1	2	R1122E
245.361	2.483	244691	WORD	n/a	wordpools/wordpool_EN.txt	PASTE	5	2	[0, 0, 0]	n/a	FR1	2	R1122E
247.844	2.401	247174	WORD	n/a	wordpools/wordpool_EN.txt	EGG	6	2	[0, 0, 0]	n/a	FR1	2	R1122E
250.245	2.567	249575	WORD	n/a	wordpools/wordpool_EN.txt	WAND	7	2	[0, 0, 0]	n/a	FR1	2	R1122E
252.812	2.501	252142	WORD	n/a	wordpools/wordpool_EN.txt	SPOON	8	2	[0, 0, 0]	n/a	FR1	2	R1122E
255.313	2.616	254643	WORD	n/a	wordpools/wordpool_EN.txt	HEN	9	2	[0, 0, 0]	n/a	FR1	2	R1122E
257.929	2.402	257258	WORD	n/a	wordpools/wordpool_EN.txt	LAMB	10	2	[0, 0, 0]	n/a	FR1	2	R1122E
260.331	2.417	259660	WORD	n/a	wordpools/wordpool_EN.txt	WOOD	11	2	[0, 0, 0]	n/a	FR1	2	R1122E
262.748	1.616	262077	WORD	n/a	wordpools/wordpool_EN.txt	PEACH	12	2	[0, 0, 0]	n/a	FR1	2	R1122E
264.364	0.001	263693	DISTRACT_START	n/a	n/a	n/a	-999	2	[0, 0, 0]	n/a	FR1	2	R1122E
264.365	0.016	263694	START	n/a	n/a	n/a	-999	2	[-999, -999, -999]	n/a	FR1	2	R1122E
264.381	3.466	263710	PROB	3.466	n/a	n/a	-999	2	[3, 6, 5]	14	FR1	2	R1122E
267.847	3.101	267176	PROB	3.101	n/a	n/a	-999	2	[9, 2, 6]	17	FR1	2	R1122E
270.948	3.034	270276	PROB	3.034	n/a	n/a	-999	2	[2, 5, 1]	8	FR1	2	R1122E
273.982	2.551	273310	PROB	2.551	n/a	n/a	-999	2	[3, 4, 1]	8	FR1	2	R1122E
276.533	3.051	275861	PROB	3.051	n/a	n/a	-999	2	[4, 1, 5]	10	FR1	2	R1122E
279.584	3.383	278912	PROB	3.383	n/a	n/a	-999	2	[9, 6, 4]	19	FR1	2	R1122E
282.967	3.134	282295	PROB	3.134	n/a	n/a	-999	2	[2, 7, 1]	10	FR1	2	R1122E
286.101	0.017	285428	STOP	n/a	n/a	n/a	-999	2	[-999, -999, -999]	n/a	FR1	2	R1122E
286.118	1.084	285445	DISTRACT_END	n/a	n/a	n/a	-999	2	[0, 0, 0]	n/a	FR1	2	R1122E
287.202	8.55	286529	REC_START	n/a	n/a	n/a	-999	2	[0, 0, 0]	n/a	FR1	2	R1122E
295.752	1.625	295079	REC_WORD	1.625	n/a	OAK	-999	2	[0, 0, 0]	n/a	FR1	2	R1122E
297.377	0.964	296704	REC_WORD	0.964	n/a	MUG	-999	2	[0, 0, 0]	n/a	FR1	2	R1122E
298.341	4.879	297668	REC_WORD	4.879	n/a	CUP	-999	2	[0, 0, 0]	n/a	FR1	2	R1122E
303.22	0.792	302546	REC_WORD	0.792	n/a	TREE	-999	2	[0, 0, 0]	n/a	FR1	2	R1122E
304.012	13.199	303338	REC_WORD	13.199	n/a	WOOD	-999	2	[0, 0, 0]	n/a	FR1	2	R1122E
317.211	28.783	316536	REC_END	n/a	n/a	n/a	-999	2	[0, 0, 0]	n/a	FR1	2	R1122E
345.994	0.0	345317	TRIAL	n/a	n/a	n/a	-999	3	[0, 0, 0]	n/a	FR1	2	R1122E
345.994	10.428	345317	COUNTDOWN_START	n/a	n/a	n/a	-999	3	[0, 0, 0]	n/a	FR1	2	R1122E
356.422	0.009	355745	COUNTDOWN_END	n/a	n/a	n/a	-999	3	[0, 0, 0]	n/a	FR1	2	R1122E
356.431	2.499	355754	ORIENT	n/a	n/a	n/a	-999	3	[0, 0, 0]	n/a	FR1	2	R1122E
358.93	2.518	358253	WORD	n/a	wordpools/wordpool_EN.txt	LAND	1	3	[0, 0, 0]	n/a	FR1	2	R1122E
361.448	2.55	360770	WORD	n/a	wordpools/wordpool_EN.txt	LAKE	2	3	[0, 0, 0]	n/a	FR1	2	R1122E
363.998	2.618	363320	WORD	n/a	wordpools/wordpool_EN.txt	FARM	3	3	[0, 0, 0]	n/a	FR1	2	R1122E
366.616	2.382	365938	WORD	n/a	wordpools/wordpool_EN.txt	TOY	4	3	[0, 0, 0]	n/a	FR1	2	R1122E
368.998	2.385	368320	WORD	n/a	wordpools/wordpool_EN.txt	ZOO	5	3	[0, 0, 0]	n/a	FR1	2	R1122E
371.383	2.4	370705	WORD	n/a	wordpools/wordpool_EN.txt	TEA	6	3	[0, 0, 0]	n/a	FR1	2	R1122E
373.783	2.518	373105	WORD	n/a	wordpools/wordpool_EN.txt	HEART	7	3	[0, 0, 0]	n/a	FR1	2	R1122E
376.301	2.583	375622	WORD	n/a	wordpools/wordpool_EN.txt	CAT	8	3	[0, 0, 0]	n/a	FR1	2	R1122E
378.884	2.618	378205	WORD	n/a	wordpools/wordpool_EN.txt	BRIDGE	9	3	[0, 0, 0]	n/a	FR1	2	R1122E
381.502	2.567	380823	WORD	n/a	wordpools/wordpool_EN.txt	SHRIMP	10	3	[0, 0, 0]	n/a	FR1	2	R1122E
384.069	2.45	383390	WORD	n/a	wordpools/wordpool_EN.txt	FORT	11	3	[0, 0, 0]	n/a	FR1	2	R1122E
386.519	1.617	385840	WORD	n/a	wordpools/wordpool_EN.txt	GOLD	12	3	[0, 0, 0]	n/a	FR1	2	R1122E
388.136	0.001	387457	DISTRACT_START	n/a	n/a	n/a	-999	3	[0, 0, 0]	n/a	FR1	2	R1122E
388.137	0.016	387458	START	n/a	n/a	n/a	-999	3	[-999, -999, -999]	n/a	FR1	2	R1122E
388.153	3.5	387474	PROB	3.5	n/a	n/a	-999	3	[3, 6, 8]	17	FR1	2	R1122E
391.653	3.734	390973	PROB	3.734	n/a	n/a	-999	3	[2, 8, 8]	18	FR1	2	R1122E
395.387	2.767	394707	PROB	2.767	n/a	n/a	-999	3	[9, 5, 5]	19	FR1	2	R1122E
398.154	2.733	397474	PROB	2.733	n/a	n/a	-999	3	[8, 1, 4]	13	FR1	2	R1122E
400.887	2.735	400207	PROB	2.735	n/a	n/a	-999	3	[7, 7, 8]	22	FR1	2	R1122E
403.622	3.484	402942	PROB	3.484	n/a	n/a	-999	3	[5, 7, 2]	14	FR1	2	R1122E
407.106	3.302	406425	PROB	3.302	n/a	n/a	-999	3	[9, 3, 4]	16	FR1	2	R1122E
410.408	0.015	409727	STOP	n/a	n/a	n/a	-999	3	[-999, -999, -999]	n/a	FR1	2	R1122E
410.423	1.07	409742	DISTRACT_END	n/a	n/a	n/a	-999	3	[0, 0, 0]	n/a	FR1	2	R1122E
411.493	1.413	410812	REC_START	n/a	n/a	n/a	-999	3	[0, 0, 0]	n/a	FR1	2	R1122E
412.906	1.367	412225	REC_WORD	1.367	n/a	LAKE	-999	3	[0, 0, 0]	n/a	FR1	2	R1122E
414.273	2.721	413592	REC_WORD	2.721	n/a	LAND	-999	3	[0, 0, 0]	n/a	FR1	2	R1122E
416.994	1.412	416313	REC_WORD	1.412	n/a	FARM	-999	3	[0, 0, 0]	n/a	FR1	2	R1122E
418.406	2.043	417725	REC_WORD	2.043	n/a	BRIDGE	-999	3	[0, 0, 0]	n/a	FR1	2	R1122E
420.449	2.695	419767	REC_WORD	2.695	n/a	SHRIMP	-999	3	[0, 0, 0]	n/a	FR1	2	R1122E
423.144	1.607	422462	REC_WORD	1.607	n/a	ZOO	-999	3	[0, 0, 0]	n/a	FR1	2	R1122E
424.751	4.433	424069	REC_WORD	4.433	n/a	TOY	-999	3	[0, 0, 0]	n/a	FR1	2	R1122E
429.184	12.315	428502	REC_WORD	12.315	n/a	TEA	-999	3	[0, 0, 0]	n/a	FR1	2	R1122E
441.499	3.496	440816	REC_END	n/a	n/a	n/a	-999	3	[0, 0, 0]	n/a	FR1	2	R1122E
444.995	0.0	444312	TRIAL	n/a	n/a	n/a	-999	4	[0, 0, 0]	n/a	FR1	2	R1122E
444.995	10.428	444312	COUNTDOWN_START	n/a	n/a	n/a	-999	4	[0, 0, 0]	n/a	FR1	2	R1122E
455.423	0.008	454739	COUNTDOWN_END	n/a	n/a	n/a	-999	4	[0, 0, 0]	n/a	FR1	2	R1122E
455.431	2.383	454747	ORIENT	n/a	n/a	n/a	-999	4	[0, 0, 0]	n/a	FR1	2	R1122E
457.814	2.485	457130	WORD	n/a	wordpools/wordpool_EN.txt	GUARD	1	4	[0, 0, 0]	n/a	FR1	2	R1122E
460.299	2.582	459615	WORD	n/a	wordpools/wordpool_EN.txt	SWAMP	2	4	[0, 0, 0]	n/a	FR1	2	R1122E
462.881	2.602	462197	WORD	n/a	wordpools/wordpool_EN.txt	STONE	3	4	[0, 0, 0]	n/a	FR1	2	R1122E
465.483	2.466	464798	WORD	n/a	wordpools/wordpool_EN.txt	DART	4	4	[0, 0, 0]	n/a	FR1	2	R1122E
467.949	2.501	467264	WORD	n/a	wordpools/wordpool_EN.txt	CALF	5	4	[0, 0, 0]	n/a	FR1	2	R1122E
470.45	2.4	469765	WORD	n/a	wordpools/wordpool_EN.txt	CAVE	6	4	[0, 0, 0]	n/a	FR1	2	R1122E
472.85	2.618	472165	WORD	n/a	wordpools/wordpool_EN.txt	CORN	7	4	[0, 0, 0]	n/a	FR1	2	R1122E
475.468	2.466	474783	WORD	n/a	wordpools/wordpool_EN.txt	PIG	8	4	[0, 0, 0]	n/a	FR1	2	R1122E
477.934	2.585	477249	WORD	n/a	wordpools/wordpool_EN.txt	CLAY	9	4	[0, 0, 0]	n/a	FR1	2	R1122E
480.519	2.534	479833	WORD	n/a	wordpools/wordpool_EN.txt	DEER	10	4	[0, 0, 0]	n/a	FR1	2	R1122E
483.053	2.55	482367	WORD	n/a	wordpools/wordpool_EN.txt	DITCH	11	4	[0, 0, 0]	n/a	FR1	2	R1122E
485.603	1.617	484917	WORD	n/a	wordpools/wordpool_EN.txt	SPEAR	12	4	[0, 0, 0]	n/a	FR1	2	R1122E
487.22	0.001	486534	DISTRACT_START	n/a	n/a	n/a	-999	4	[0, 0, 0]	n/a	FR1	2	R1122E
487.221	0.016	486535	START	n/a	n/a	n/a	-999	4	[-999, -999, -999]	n/a	FR1	2	R1122E
487.237	3.783	486551	PROB	3.783	n/a	n/a	-999	4	[7, 1, 2]	10	FR1	2	R1122E
491.02	3.618	490334	PROB	3.618	n/a	n/a	-999	4	[1, 8, 9]	18	FR1	2	R1122E
494.638	3.266	493951	PROB	3.266	n/a	n/a	-999	4	[9, 2, 8]	19	FR1	2	R1122E
497.904	2.785	497217	PROB	2.785	n/a	n/a	-999	4	[7, 7, 2]	16	FR1	2	R1122E
500.689	3.216	500002	PROB	3.216	n/a	n/a	-999	4	[2, 7, 5]	14	FR1	2	R1122E
503.905	3.45	503218	PROB	3.45	n/a	n/a	-999	4	[6, 8, 1]	15	FR1	2	R1122E
507.355	0.019	506668	STOP	n/a	n/a	n/a	-999	4	[-999, -999, -999]	n/a	FR1	2	R1122E
507.374	1.217	506687	DISTRACT_END	n/a	n/a	n/a	-999	4	[0, 0, 0]	n/a	FR1	2	R1122E
508.591	21.468	507903	REC_START	n/a	n/a	n/a	-999	4	[0, 0, 0]	n/a	FR1	2	R1122E
530.059	1.14	529370	REC_WORD	1.14	n/a	ROCK	-999	4	[0, 0, 0]	n/a	FR1	2	R1122E
531.199	1.915	530510	REC_WORD	1.915	n/a	CLAY	-999	4	[0, 0, 0]	n/a	FR1	2	R1122E
533.114	5.485	532425	REC_WORD	5.485	n/a	SWAMP	-999	4	[0, 0, 0]	n/a	FR1	2	R1122E
538.599	15.181	537909	REC_END	n/a	n/a	n/a	-999	4	[0, 0, 0]	n/a	FR1	2	R1122E
553.78	0.001	553089	COUNTDOWN_START	n/a	n/a	n/a	-999	5	[0, 0, 0]	n/a	FR1	2	R1122E
553.781	10.427	553090	TRIAL	n/a	n/a	n/a	-999	5	[0, 0, 0]	n/a	FR1	2	R1122E
564.208	0.009	563517	COUNTDOWN_END	n/a	n/a	n/a	-999	5	[0, 0, 0]	n/a	FR1	2	R1122E
564.217	2.467	563526	ORIENT	n/a	n/a	n/a	-999	5	[0, 0, 0]	n/a	FR1	2	R1122E
566.684	2.45	565993	WORD	n/a	wordpools/wordpool_EN.txt	BEAN	1	5	[0, 0, 0]	n/a	FR1	2	R1122E
569.134	2.518	568442	WORD	n/a	wordpools/wordpool_EN.txt	BIRD	2	5	[0, 0, 0]	n/a	FR1	2	R1122E
571.652	2.483	570960	WORD	n/a	wordpools/wordpool_EN.txt	FOOT	3	5	[0, 0, 0]	n/a	FR1	2	R1122E
574.135	2.617	573443	WORD	n/a	wordpools/wordpool_EN.txt	BEAK	4	5	[0, 0, 0]	n/a	FR1	2	R1122E
576.752	2.451	576060	WORD	n/a	wordpools/wordpool_EN.txt	PLANT	5	5	[0, 0, 0]	n/a	FR1	2	R1122E
579.203	2.55	578511	WORD	n/a	wordpools/wordpool_EN.txt	BLOOM	6	5	[0, 0, 0]	n/a	FR1	2	R1122E
581.753	2.484	581061	WORD	n/a	wordpools/wordpool_EN.txt	ANT	7	5	[0, 0, 0]	n/a	FR1	2	R1122E
584.237	2.549	583544	WORD	n/a	wordpools/wordpool_EN.txt	BEE	8	5	[0, 0, 0]	n/a	FR1	2	R1122E
586.786	2.585	586093	WORD	n/a	wordpools/wordpool_EN.txt	FOOD	9	5	[0, 0, 0]	n/a	FR1	2	R1122E
589.371	2.533	588678	WORD	n/a	wordpools/wordpool_EN.txt	BREAD	10	5	[0, 0, 0]	n/a	FR1	2	R1122E
591.904	2.368	591211	WORD	n/a	wordpools/wordpool_EN.txt	RICE	11	5	[0, 0, 0]	n/a	FR1	2	R1122E
594.272	1.616	593579	WORD	n/a	wordpools/wordpool_EN.txt	TREE	12	5	[0, 0, 0]	n/a	FR1	2	R1122E
595.888	0.001	595195	DISTRACT_START	n/a	n/a	n/a	-999	5	[0, 0, 0]	n/a	FR1	2	R1122E
595.889	0.016	595196	START	n/a	n/a	n/a	-999	5	[-999, -999, -999]	n/a	FR1	2	R1122E
595.905	3.351	595212	PROB	3.351	n/a	n/a	-999	5	[4, 7, 3]	14	FR1	2	R1122E
599.256	2.666	598562	PROB	2.666	n/a	n/a	-999	5	[8, 1, 1]	10	FR1	2	R1122E
601.922	3.968	601228	PROB	3.968	n/a	n/a	-999	5	[9, 8, 9]	26	FR1	2	R1122E
605.89	3.251	605196	PROB	3.251	n/a	n/a	-999	5	[2, 5, 8]	15	FR1	2	R1122E
609.141	2.401	608447	PROB	2.401	n/a	n/a	-999	5	[5, 1, 3]	9	FR1	2	R1122E
611.542	2.684	610848	PROB	2.684	n/a	n/a	-999	5	[7, 1, 2]	10	FR1	2	R1122E
614.226	3.708	613531	PROB	3.708	n/a	n/a	-999	5	[5, 7, 3]	15	FR1	2	R1122E
617.934	0.008	617239	STOP	n/a	n/a	n/a	-999	5	[-999, -999, -999]	n/a	FR1	2	R1122E
617.942	1.051	617247	DISTRACT_END	n/a	n/a	n/a	-999	5	[0, 0, 0]	n/a	FR1	2	R1122E
618.993	1.509	618298	REC_START	n/a	n/a	n/a	-999	5	[0, 0, 0]	n/a	FR1	2	R1122E
620.502	1.206	619807	REC_WORD	1.206	n/a	BEAN	-999	5	[0, 0, 0]	n/a	FR1	2	R1122E
621.708	1.616	621013	REC_WORD	1.616	n/a	BIRD	-999	5	[0, 0, 0]	n/a	FR1	2	R1122E
623.324	1.996	622629	REC_WORD	1.996	n/a	TREE	-999	5	[0, 0, 0]	n/a	FR1	2	R1122E
625.32	9.464	624625	REC_WORD	9.464	n/a	RICE	-999	5	[0, 0, 0]	n/a	FR1	2	R1122E
634.784	4.118	634088	REC_WORD	4.118	n/a	BEE	-999	5	[0, 0, 0]	n/a	FR1	2	R1122E
638.902	6.772	638206	REC_WORD	6.772	n/a	PLANT	-999	5	[0, 0, 0]	n/a	FR1	2	R1122E
645.674	3.327	644977	REC_WORD	3.327	n/a	MUD	-999	5	[0, 0, 0]	n/a	FR1	2	R1122E
649.001	10.366	648304	REC_END	n/a	n/a	n/a	-999	5	[0, 0, 0]	n/a	FR1	2	R1122E
659.367	0.0	658669	TRIAL	n/a	n/a	n/a	-999	6	[0, 0, 0]	n/a	FR1	2	R1122E
659.367	10.428	658669	COUNTDOWN_START	n/a	n/a	n/a	-999	6	[0, 0, 0]	n/a	FR1	2	R1122E
669.795	0.006	669097	COUNTDOWN_END	n/a	n/a	n/a	-999	6	[0, 0, 0]	n/a	FR1	2	R1122E
669.801	2.435	669103	ORIENT	n/a	n/a	n/a	-999	6	[0, 0, 0]	n/a	FR1	2	R1122E
672.236	2.517	671537	WORD	n/a	wordpools/wordpool_EN.txt	SUN	1	6	[0, 0, 0]	n/a	FR1	2	R1122E
674.753	2.45	674054	WORD	n/a	wordpools/wordpool_EN.txt	CAPE	2	6	[0, 0, 0]	n/a	FR1	2	R1122E
677.203	2.501	676504	WORD	n/a	wordpools/wordpool_EN.txt	BATH	3	6	[0, 0, 0]	n/a	FR1	2	R1122E
679.704	2.517	679005	WORD	n/a	wordpools/wordpool_EN.txt	SAIL	4	6	[0, 0, 0]	n/a	FR1	2	R1122E
682.221	2.484	681522	WORD	n/a	wordpools/wordpool_EN.txt	LEG	5	6	[0, 0, 0]	n/a	FR1	2	R1122E
684.705	2.433	684006	WORD	n/a	wordpools/wordpool_EN.txt	ROSE	6	6	[0, 0, 0]	n/a	FR1	2	R1122E
687.138	2.434	686438	WORD	n/a	wordpools/wordpool_EN.txt	RUG	7	6	[0, 0, 0]	n/a	FR1	2	R1122E
689.572	2.416	688872	WORD	n/a	wordpools/wordpool_EN.txt	MOOSE	8	6	[0, 0, 0]	n/a	FR1	2	R1122E
691.988	2.385	691288	WORD	n/a	wordpools/wordpool_EN.txt	BOAT	9	6	[0, 0, 0]	n/a	FR1	2	R1122E
694.373	2.483	693673	WORD	n/a	wordpools/wordpool_EN.txt	ICE	10	6	[0, 0, 0]	n/a	FR1	2	R1122E
696.856	2.518	696156	WORD	n/a	wordpools/wordpool_EN.txt	CAKE	11	6	[0, 0, 0]	n/a	FR1	2	R1122E
699.374	1.616	698674	WORD	n/a	wordpools/wordpool_EN.txt	FENCE	12	6	[0, 0, 0]	n/a	FR1	2	R1122E
700.99	0.0	700290	DISTRACT_START	n/a	n/a	n/a	-999	6	[0, 0, 0]	n/a	FR1	2	R1122E
700.99	0.016	700290	START	n/a	n/a	n/a	-999	6	[-999, -999, -999]	n/a	FR1	2	R1122E
701.006	2.568	700306	PROB	2.568	n/a	n/a	-999	6	[1, 6, 1]	8	FR1	2	R1122E
703.574	7.118	702873	PROB	7.118	n/a	n/a	-999	6	[4, 7, 8]	19	FR1	2	R1122E
710.692	3.901	709991	PROB	3.901	n/a	n/a	-999	6	[2, 1, 2]	5	FR1	2	R1122E
714.593	2.366	713892	PROB	2.366	n/a	n/a	-999	6	[1, 6, 4]	11	FR1	2	R1122E
716.959	3.452	716257	PROB	3.452	n/a	n/a	-999	6	[2, 3, 8]	13	FR1	2	R1122E
720.411	2.96	719709	PROB	2.96	n/a	n/a	-999	6	[1, 3, 9]	13	FR1	2	R1122E
723.371	0.007	722669	STOP	n/a	n/a	n/a	-999	6	[-999, -999, -999]	n/a	FR1	2	R1122E
723.378	1.051	722676	DISTRACT_END	n/a	n/a	n/a	-999	6	[0, 0, 0]	n/a	FR1	2	R1122E
724.429	3.285	723727	REC_START	n/a	n/a	n/a	-999	6	[0, 0, 0]	n/a	FR1	2	R1122E
727.714	2.973	727012	REC_WORD	2.973	n/a	SHIP	-999	6	[0, 0, 0]	n/a	FR1	2	R1122E
730.687	1.093	729985	REC_WORD	1.093	n/a	CAPE	-999	6	[0, 0, 0]	n/a	FR1	2	R1122E
731.78	5.226	731077	REC_WORD	5.226	n/a	SUN	-999	6	[0, 0, 0]	n/a	FR1	2	R1122E
737.006	5.644	736303	REC_WORD	5.644	n/a	SAIL	-999	6	[0, 0, 0]	n/a	FR1	2	R1122E
742.65	11.787	741947	REC_WORD	11.787	n/a	CAKE	-999	6	[0, 0, 0]	n/a	FR1	2	R1122E
754.437	2.764	753733	REC_END	n/a	n/a	n/a	-999	6	[0, 0, 0]	n/a	FR1	2	R1122E
757.201	0.0	756497	TRIAL	n/a	n/a	n/a	-999	7	[0, 0, 0]	n/a	FR1	2	R1122E
757.201	10.428	756497	COUNTDOWN_START	n/a	n/a	n/a	-999	7	[0, 0, 0]	n/a	FR1	2	R1122E
767.629	0.007	766924	COUNTDOWN_END	n/a	n/a	n/a	-999	7	[0, 0, 0]	n/a	FR1	2	R1122E
767.636	2.382	766931	ORIENT	n/a	n/a	n/a	-999	7	[0, 0, 0]	n/a	FR1	2	R1122E
770.018	2.435	769313	WORD	n/a	wordpools/wordpool_EN.txt	RAKE	1	7	[0, 0, 0]	n/a	FR1	2	R1122E
772.453	2.45	771748	WORD	n/a	wordpools/wordpool_EN.txt	SPRING	2	7	[0, 0, 0]	n/a	FR1	2	R1122E
774.903	2.501	774198	WORD	n/a	wordpools/wordpool_EN.txt	WORM	3	7	[0, 0, 0]	n/a	FR1	2	R1122E
777.404	2.4	776698	WORD	n/a	wordpools/wordpool_EN.txt	BLUSH	4	7	[0, 0, 0]	n/a	FR1	2	R1122E
779.804	2.601	779098	WORD	n/a	wordpools/wordpool_EN.txt	MOLE	5	7	[0, 0, 0]	n/a	FR1	2	R1122E
782.405	2.466	781699	WORD	n/a	wordpools/wordpool_EN.txt	ROAD	6	7	[0, 0, 0]	n/a	FR1	2	R1122E
784.871	2.568	784165	WORD	n/a	wordpools/wordpool_EN.txt	LEAF	7	7	[0, 0, 0]	n/a	FR1	2	R1122E
787.439	2.483	786733	WORD	n/a	wordpools/wordpool_EN.txt	WEB	8	7	[0, 0, 0]	n/a	FR1	2	R1122E
789.922	2.518	789216	WORD	n/a	wordpools/wordpool_EN.txt	TAIL	9	7	[0, 0, 0]	n/a	FR1	2	R1122E
792.44	2.466	791733	WORD	n/a	wordpools/wordpool_EN.txt	BUSH	10	7	[0, 0, 0]	n/a	FR1	2	R1122E
794.906	2.418	794199	WORD	n/a	wordpools/wordpool_EN.txt	FLEA	11	7	[0, 0, 0]	n/a	FR1	2	R1122E
797.324	1.616	796617	WORD	n/a	wordpools/wordpool_EN.txt	CAGE	12	7	[0, 0, 0]	n/a	FR1	2	R1122E
798.94	0.001	798233	DISTRACT_START	n/a	n/a	n/a	-999	7	[0, 0, 0]	n/a	FR1	2	R1122E
798.941	0.016	798234	START	n/a	n/a	n/a	-999	7	[-999, -999, -999]	n/a	FR1	2	R1122E
798.957	3.368	798250	PROB	3.368	n/a	n/a	-999	7	[6, 5, 1]	12	FR1	2	R1122E
802.325	4.101	801618	PROB	4.101	n/a	n/a	-999	7	[4, 9, 5]	18	FR1	2	R1122E
806.426	2.7	805718	PROB	2.7	n/a	n/a	-999	7	[1, 6, 7]	14	FR1	2	R1122E
809.126	2.551	808418	PROB	2.551	n/a	n/a	-999	7	[1, 6, 1]	8	FR1	2	R1122E
811.677	5.434	810969	PROB	5.434	n/a	n/a	-999	7	[8, 9, 9]	26	FR1	2	R1122E
817.111	2.491	816403	PROB	2.491	n/a	n/a	-999	7	[2, 7, 2]	11	FR1	2	R1122E
819.602	0.009	818894	STOP	n/a	n/a	n/a	-999	7	[-999, -999, -999]	n/a	FR1	2	R1122E
819.611	1.068	818903	DISTRACT_END	n/a	n/a	n/a	-999	7	[0, 0, 0]	n/a	FR1	2	R1122E
820.679	1.938	819970	REC_START	n/a	n/a	n/a	-999	7	[0, 0, 0]	n/a	FR1	2	R1122E
822.617	2.037	821908	REC_WORD	2.037	n/a	MOLE	-999	7	[0, 0, 0]	n/a	FR1	2	R1122E
824.654	1.638	823945	REC_WORD	1.638	n/a	BUSH	-999	7	[0, 0, 0]	n/a	FR1	2	R1122E
826.292	7.346	825583	REC_WORD	7.346	n/a	ROAD	-999	7	[0, 0, 0]	n/a	FR1	2	R1122E
833.638	9.885	832929	REC_WORD	9.885	n/a	RAKE	-999	7	[0, 0, 0]	n/a	FR1	2	R1122E
843.523	7.164	842813	REC_WORD	7.164	n/a	FLY	-999	7	[0, 0, 0]	n/a	FR1	2	R1122E
850.687	3.631	849976	REC_END	n/a	n/a	n/a	-999	7	[0, 0, 0]	n/a	FR1	2	R1122E
854.318	0.0	853607	TRIAL	n/a	n/a	n/a	-999	8	[0, 0, 0]	n/a	FR1	2	R1122E
854.318	10.428	853607	COUNTDOWN_START	n/a	n/a	n/a	-999	8	[0, 0, 0]	n/a	FR1	2	R1122E
864.746	0.007	864035	COUNTDOWN_END	n/a	n/a	n/a	-999	8	[0, 0, 0]	n/a	FR1	2	R1122E
864.753	2.467	864042	ORIENT	n/a	n/a	n/a	-999	8	[0, 0, 0]	n/a	FR1	2	R1122E
867.22	2.5	866508	WORD	n/a	wordpools/wordpool_EN.txt	SOAP	1	8	[0, 0, 0]	n/a	FR1	2	R1122E
869.72	2.551	869008	WORD	n/a	wordpools/wordpool_EN.txt	PALM	2	8	[0, 0, 0]	n/a	FR1	2	R1122E
872.271	2.516	871559	WORD	n/a	wordpools/wordpool_EN.txt	CANE	3	8	[0, 0, 0]	n/a	FR1	2	R1122E
874.787	2.534	874075	WORD	n/a	wordpools/wordpool_EN.txt	JAR	4	8	[0, 0, 0]	n/a	FR1	2	R1122E
877.321	2.434	876609	WORD	n/a	wordpools/wordpool_EN.txt	POOL	5	8	[0, 0, 0]	n/a	FR1	2	R1122E
879.755	2.4	879042	WORD	n/a	wordpools/wordpool_EN.txt	TOAST	6	8	[0, 0, 0]	n/a	FR1	2	R1122E
882.155	2.418	881442	WORD	n/a	wordpools/wordpool_EN.txt	VASE	7	8	[0, 0, 0]	n/a	FR1	2	R1122E
884.573	2.634	883860	WORD	n/a	wordpools/wordpool_EN.txt	TRAY	8	8	[0, 0, 0]	n/a	FR1	2	R1122E
887.207	2.566	886494	WORD	n/a	wordpools/wordpool_EN.txt	COUCH	9	8	[0, 0, 0]	n/a	FR1	2	R1122E
889.773	2.418	889060	WORD	n/a	wordpools/wordpool_EN.txt	HOUSE	10	8	[0, 0, 0]	n/a	FR1	2	R1122E
892.191	2.484	891478	WORD	n/a	wordpools/wordpool_EN.txt	CUBE	11	8	[0, 0, 0]	n/a	FR1	2	R1122E
894.675	1.617	893961	WORD	n/a	wordpools/wordpool_EN.txt	VAN	12	8	[0, 0, 0]	n/a	FR1	2	R1122E
896.292	0.0	895578	DISTRACT_START	n/a	n/a	n/a	-999	8	[0, 0, 0]	n/a	FR1	2	R1122E
896.292	0.016	895578	START	n/a	n/a	n/a	-999	8	[-999, -999, -999]	n/a	FR1	2	R1122E
896.308	3.751	895594	PROB	3.751	n/a	n/a	-999	8	[5, 5, 8]	18	FR1	2	R1122E
900.059	4.15	899345	PROB	4.15	n/a	n/a	-999	8	[5, 4, 6]	15	FR1	2	R1122E
904.209	2.75	903495	PROB	2.75	n/a	n/a	-999	8	[2, 1, 8]	11	FR1	2	R1122E
906.959	3.502	906245	PROB	3.502	n/a	n/a	-999	8	[6, 5, 3]	14	FR1	2	R1122E
910.461	3.05	909746	PROB	3.05	n/a	n/a	-999	8	[8, 1, 7]	16	FR1	2	R1122E
913.511	2.93	912796	PROB	2.93	n/a	n/a	-999	8	[8, 3, 3]	14	FR1	2	R1122E
916.441	0.004	915726	STOP	n/a	n/a	n/a	-999	8	[-999, -999, -999]	n/a	FR1	2	R1122E
916.445	1.134	915730	DISTRACT_END	n/a	n/a	n/a	-999	8	[0, 0, 0]	n/a	FR1	2	R1122E
917.579	1.243	916864	REC_START	n/a	n/a	n/a	-999	8	[0, 0, 0]	n/a	FR1	2	R1122E
918.822	1.664	918107	REC_WORD	1.664	n/a	COUCH	-999	8	[0, 0, 0]	n/a	FR1	2	R1122E
920.486	27.105	919771	REC_WORD	27.105	n/a	VAN	-999	8	[0, 0, 0]	n/a	FR1	2	R1122E
947.591	103.044	946874	REC_END	n/a	n/a	n/a	-999	8	[0, 0, 0]	n/a	FR1	2	R1122E
1050.635	0.0	1049911	TRIAL	n/a	n/a	n/a	-999	9	[0, 0, 0]	n/a	FR1	2	R1122E
1050.635	10.428	1049911	COUNTDOWN_START	n/a	n/a	n/a	-999	9	[0, 0, 0]	n/a	FR1	2	R1122E
1061.063	0.007	1060338	COUNTDOWN_END	n/a	n/a	n/a	-999	9	[0, 0, 0]	n/a	FR1	2	R1122E
1061.07	2.617	1060345	ORIENT	n/a	n/a	n/a	-999	9	[0, 0, 0]	n/a	FR1	2	R1122E
1063.687	2.501	1062962	WORD	n/a	wordpools/wordpool_EN.txt	TENT	1	9	[0, 0, 0]	n/a	FR1	2	R1122E
1066.188	2.5	1065463	WORD	n/a	wordpools/wordpool_EN.txt	STOOL	2	9	[0, 0, 0]	n/a	FR1	2	R1122E
1068.688	2.401	1067963	WORD	n/a	wordpools/wordpool_EN.txt	HORN	3	9	[0, 0, 0]	n/a	FR1	2	R1122E
1071.089	2.467	1070364	WORD	n/a	wordpools/wordpool_EN.txt	SHIRT	4	9	[0, 0, 0]	n/a	FR1	2	R1122E
1073.556	2.55	1072830	WORD	n/a	wordpools/wordpool_EN.txt	YARD	5	9	[0, 0, 0]	n/a	FR1	2	R1122E
1076.106	2.417	1075380	WORD	n/a	wordpools/wordpool_EN.txt	BOWL	6	9	[0, 0, 0]	n/a	FR1	2	R1122E
1078.523	2.466	1077797	WORD	n/a	wordpools/wordpool_EN.txt	SEAT	7	9	[0, 0, 0]	n/a	FR1	2	R1122E
1080.989	2.419	1080263	WORD	n/a	wordpools/wordpool_EN.txt	SLUSH	8	9	[0, 0, 0]	n/a	FR1	2	R1122E
1083.408	2.616	1082682	WORD	n/a	wordpools/wordpool_EN.txt	CHALK	9	9	[0, 0, 0]	n/a	FR1	2	R1122E
1086.024	2.601	1085298	WORD	n/a	wordpools/wordpool_EN.txt	PLATE	10	9	[0, 0, 0]	n/a	FR1	2	R1122E
1088.625	2.5	1087898	WORD	n/a	wordpools/wordpool_EN.txt	PANTS	11	9	[0, 0, 0]	n/a	FR1	2	R1122E
1091.125	1.618	1090398	WORD	n/a	wordpools/wordpool_EN.txt	BAND	12	9	[0, 0, 0]	n/a	FR1	2	R1122E
1092.743	0.0	1092016	DISTRACT_START	n/a	n/a	n/a	-999	9	[0, 0, 0]	n/a	FR1	2	R1122E
1092.743	0.016	1092016	START	n/a	n/a	n/a	-999	9	[-999, -999, -999]	n/a	FR1	2	R1122E
1092.759	2.917	1092032	PROB	2.917	n/a	n/a	-999	9	[6, 7, 8]	21	FR1	2	R1122E
1095.676	2.701	1094949	PROB	2.701	n/a	n/a	-999	9	[8, 1, 1]	10	FR1	2	R1122E
1098.377	2.834	1097650	PROB	2.834	n/a	n/a	-999	9	[2, 5, 1]	8	FR1	2	R1122E
1101.211	3.184	1100484	PROB	3.184	n/a	n/a	-999	9	[3, 3, 6]	12	FR1	2	R1122E
1104.395	2.7	1103667	PROB	2.7	n/a	n/a	-999	9	[4, 9, 8]	21	FR1	2	R1122E
1107.095	3.051	1106367	PROB	3.051	n/a	n/a	-999	9	[6, 1, 4]	11	FR1	2	R1122E
1110.146	2.675	1109418	PROB	2.675	n/a	n/a	-999	9	[6, 9, 6]	21	FR1	2	R1122E
1112.821	0.007	1112093	STOP	n/a	n/a	n/a	-999	9	[-999, -999, -999]	n/a	FR1	2	R1122E
1112.828	1.168	1112100	DISTRACT_END	n/a	n/a	n/a	-999	9	[0, 0, 0]	n/a	FR1	2	R1122E
1113.996	1.642	1113268	REC_START	n/a	n/a	n/a	-999	9	[0, 0, 0]	n/a	FR1	2	R1122E
1115.638	1.241	1114910	REC_WORD	1.241	n/a	SHIRT	-999	9	[0, 0, 0]	n/a	FR1	2	R1122E
1116.879	1.179	1116151	REC_WORD	1.179	n/a	PANTS	-999	9	[0, 0, 0]	n/a	FR1	2	R1122E
1118.058	1.465	1117329	REC_WORD	1.465	n/a	TENT	-999	9	[0, 0, 0]	n/a	FR1	2	R1122E
1119.523	1.846	1118794	REC_WORD	1.846	n/a	SLUSH	-999	9	[0, 0, 0]	n/a	FR1	2	R1122E
1121.369	2.457	1120640	REC_WORD	2.457	n/a	BOWL	-999	9	[0, 0, 0]	n/a	FR1	2	R1122E
1123.826	1.374	1123097	REC_WORD	1.374	n/a	STOOL	-999	9	[0, 0, 0]	n/a	FR1	2	R1122E
1125.2	18.804	1124471	REC_WORD	18.804	n/a	SEAT	-999	9	[0, 0, 0]	n/a	FR1	2	R1122E
1144.004	7.482	1143274	REC_END	n/a	n/a	n/a	-999	9	[0, 0, 0]	n/a	FR1	2	R1122E
1151.486	0.0	1150755	TRIAL	n/a	n/a	n/a	-999	10	[0, 0, 0]	n/a	FR1	2	R1122E
1151.486	10.428	1150755	COUNTDOWN_START	n/a	n/a	n/a	-999	10	[0, 0, 0]	n/a	FR1	2	R1122E
1161.914	0.006	1161182	COUNTDOWN_END	n/a	n/a	n/a	-999	10	[0, 0, 0]	n/a	FR1	2	R1122E
1161.92	2.535	1161188	ORIENT	n/a	n/a	n/a	-999	10	[0, 0, 0]	n/a	FR1	2	R1122E
1164.455	2.601	1163723	WORD	n/a	wordpools/wordpool_EN.txt	MOUTH	1	10	[0, 0, 0]	n/a	FR1	2	R1122E
1167.056	2.583	1166324	WORD	n/a	wordpools/wordpool_EN.txt	DOLL	2	10	[0, 0, 0]	n/a	FR1	2	R1122E
1169.639	2.467	1168907	WORD	n/a	wordpools/wordpool_EN.txt	SEAL	3	10	[0, 0, 0]	n/a	FR1	2	R1122E
1172.106	2.418	1171374	WORD	n/a	wordpools/wordpool_EN.txt	WEED	4	10	[0, 0, 0]	n/a	FR1	2	R1122E
1174.524	2.617	1173792	WORD	n/a	wordpools/wordpool_EN.txt	CLOWN	5	10	[0, 0, 0]	n/a	FR1	2	R1122E
1177.141	2.6	1176408	WORD	n/a	wordpools/wordpool_EN.txt	TIE	6	10	[0, 0, 0]	n/a	FR1	2	R1122E
1179.741	2.484	1179008	WORD	n/a	wordpools/wordpool_EN.txt	PET	7	10	[0, 0, 0]	n/a	FR1	2	R1122E
1182.225	2.484	1181492	WORD	n/a	wordpools/wordpool_EN.txt	CLOTH	8	10	[0, 0, 0]	n/a	FR1	2	R1122E
1184.709	2.5	1183976	WORD	n/a	wordpools/wordpool_EN.txt	FAN	9	10	[0, 0, 0]	n/a	FR1	2	R1122E
1187.209	2.45	1186476	WORD	n/a	wordpools/wordpool_EN.txt	WOLF	10	10	[0, 0, 0]	n/a	FR1	2	R1122E
1189.659	2.418	1188926	WORD	n/a	wordpools/wordpool_EN.txt	RAT	11	10	[0, 0, 0]	n/a	FR1	2	R1122E
1192.077	1.617	1191343	WORD	n/a	wordpools/wordpool_EN.txt	SOCK	12	10	[0, 0, 0]	n/a	FR1	2	R1122E
1193.694	0.0	1192960	DISTRACT_START	n/a	n/a	n/a	-999	10	[0, 0, 0]	n/a	FR1	2	R1122E
1193.694	0.016	1192960	START	n/a	n/a	n/a	-999	10	[-999, -999, -999]	n/a	FR1	2	R1122E
1193.71	3.484	1192976	PROB	3.484	n/a	n/a	-999	10	[9, 3, 3]	15	FR1	2	R1122E
1197.194	2.334	1196460	PROB	2.334	n/a	n/a	-999	10	[8, 1, 2]	11	FR1	2	R1122E
1199.528	2.717	1198794	PROB	2.717	n/a	n/a	-999	10	[9, 9, 4]	22	FR1	2	R1122E
1202.245	2.783	1201511	PROB	2.783	n/a	n/a	-999	10	[1, 6, 3]	10	FR1	2	R1122E
1205.028	2.834	1204294	PROB	2.834	n/a	n/a	-999	10	[6, 4, 5]	15	FR1	2	R1122E
1207.862	3.201	1207127	PROB	3.201	n/a	n/a	-999	10	[5, 9, 4]	18	FR1	2	R1122E
1211.063	2.634	1210328	PROB	2.634	n/a	n/a	-999	10	[5, 9, 7]	21	FR1	2	R1122E
1213.697	3.165	1212962	PROB	3.165	n/a	n/a	-999	10	[1, 6, 3]	10	FR1	2	R1122E
1216.862	0.018	1216127	STOP	n/a	n/a	n/a	-999	10	[-999, -999, -999]	n/a	FR1	2	R1122E
1216.88	1.084	1216145	DISTRACT_END	n/a	n/a	n/a	-999	10	[0, 0, 0]	n/a	FR1	2	R1122E
1217.964	1.496	1217229	REC_START	n/a	n/a	n/a	-999	10	[0, 0, 0]	n/a	FR1	2	R1122E
1219.46	1.515	1218725	REC_WORD	1.515	n/a	CLOTH	-999	10	[0, 0, 0]	n/a	FR1	2	R1122E
1220.975	12.625	1220240	REC_WORD	12.625	n/a	DOLL	-999	10	[0, 0, 0]	n/a	FR1	2	R1122E
1233.6	14.371	1232864	REC_WORD	14.371	n/a	RAKE	-999	10	[0, 0, 0]	n/a	FR1	2	R1122E
1247.971	24.985	1247234	REC_END	n/a	n/a	n/a	-999	10	[0, 0, 0]	n/a	FR1	2	R1122E
1272.956	0.001	1272217	COUNTDOWN_START	n/a	n/a	n/a	-999	11	[0, 0, 0]	n/a	FR1	2	R1122E
1272.957	10.427	1272218	TRIAL	n/a	n/a	n/a	-999	11	[0, 0, 0]	n/a	FR1	2	R1122E
1283.384	0.009	1282644	COUNTDOWN_END	n/a	n/a	n/a	-999	11	[0, 0, 0]	n/a	FR1	2	R1122E
1283.393	2.432	1282653	ORIENT	n/a	n/a	n/a	-999	11	[0, 0, 0]	n/a	FR1	2	R1122E
1285.825	2.502	1285085	WORD	n/a	wordpools/wordpool_EN.txt	FOX	1	11	[0, 0, 0]	n/a	FR1	2	R1122E
1288.327	2.532	1287587	WORD	n/a	wordpools/wordpool_EN.txt	BAG	2	11	[0, 0, 0]	n/a	FR1	2	R1122E
1290.859	2.485	1290119	WORD	n/a	wordpools/wordpool_EN.txt	COW	3	11	[0, 0, 0]	n/a	FR1	2	R1122E
1293.344	2.566	1292604	WORD	n/a	wordpools/wordpool_EN.txt	CRANE	4	11	[0, 0, 0]	n/a	FR1	2	R1122E
1295.91	2.435	1295169	WORD	n/a	wordpools/wordpool_EN.txt	DOCK	5	11	[0, 0, 0]	n/a	FR1	2	R1122E
1298.345	2.5	1297604	WORD	n/a	wordpools/wordpool_EN.txt	AXE	6	11	[0, 0, 0]	n/a	FR1	2	R1122E
1300.845	2.568	1300104	WORD	n/a	wordpools/wordpool_EN.txt	EAR	7	11	[0, 0, 0]	n/a	FR1	2	R1122E
1303.413	2.433	1302672	WORD	n/a	wordpools/wordpool_EN.txt	GRASS	8	11	[0, 0, 0]	n/a	FR1	2	R1122E
1305.846	2.434	1305105	WORD	n/a	wordpools/wordpool_EN.txt	CROW	9	11	[0, 0, 0]	n/a	FR1	2	R1122E
1308.28	2.583	1307539	WORD	n/a	wordpools/wordpool_EN.txt	TOAD	10	11	[0, 0, 0]	n/a	FR1	2	R1122E
1310.863	2.468	1310121	WORD	n/a	wordpools/wordpool_EN.txt	WORLD	11	11	[0, 0, 0]	n/a	FR1	2	R1122E
1313.331	1.616	1312589	WORD	n/a	wordpools/wordpool_EN.txt	SHEEP	12	11	[0, 0, 0]	n/a	FR1	2	R1122E
1314.947	0.001	1314205	DISTRACT_START	n/a	n/a	n/a	-999	11	[0, 0, 0]	n/a	FR1	2	R1122E
1314.948	0.016	1314206	START	n/a	n/a	n/a	-999	11	[-999, -999, -999]	n/a	FR1	2	R1122E
1314.964	2.934	1314222	PROB	2.934	n/a	n/a	-999	11	[9, 1, 1]	11	FR1	2	R1122E
1317.898	4.518	1317156	PROB	4.518	n/a	n/a	-999	11	[8, 6, 1]	15	FR1	2	R1122E
1322.416	2.566	1321674	PROB	2.566	n/a	n/a	-999	11	[1, 7, 4]	12	FR1	2	R1122E
1324.982	2.817	1324240	PROB	2.817	n/a	n/a	-999	11	[2, 4, 7]	13	FR1	2	R1122E
1327.799	1.868	1327056	PROB	1.868	n/a	n/a	-999	11	[4, 4, 1]	9	FR1	2	R1122E
1329.667	2.751	1328924	PROB	2.751	n/a	n/a	-999	11	[2, 6, 2]	10	FR1	2	R1122E
1332.418	2.483	1331675	PROB	2.483	n/a	n/a	-999	11	[4, 2, 2]	8	FR1	2	R1122E
1334.901	3.159	1334158	PROB	3.159	n/a	n/a	-999	11	[2, 8, 6]	16	FR1	2	R1122E
1338.06	0.009	1337317	STOP	n/a	n/a	n/a	-999	11	[-999, -999, -999]	n/a	FR1	2	R1122E
1338.069	1.034	1337326	DISTRACT_END	n/a	n/a	n/a	-999	11	[0, 0, 0]	n/a	FR1	2	R1122E
1339.103	1.613	1338360	REC_START	n/a	n/a	n/a	-999	11	[0, 0, 0]	n/a	FR1	2	R1122E
1340.716	1.436	1339972	REC_WORD	1.436	n/a	FOX	-999	11	[0, 0, 0]	n/a	FR1	2	R1122E
1342.152	2.8	1341408	REC_WORD	2.8	n/a	SHEEP	-999	11	[0, 0, 0]	n/a	FR1	2	R1122E
1344.952	1.526	1344208	REC_WORD	1.526	n/a	GOAT	-999	11	[0, 0, 0]	n/a	FR1	2	R1122E
1346.478	1.66	1345734	REC_WORD	1.66	n/a	CRANE	-999	11	[0, 0, 0]	n/a	FR1	2	R1122E
1348.138	6.205	1347394	REC_WORD	6.205	n/a	CROW	-999	11	[0, 0, 0]	n/a	FR1	2	R1122E
1354.343	10.298	1353599	REC_WORD	10.298	n/a	DOCK	-999	11	[0, 0, 0]	n/a	FR1	2	R1122E
1364.641	1.738	1363896	REC_WORD	1.738	n/a	COW	-999	11	[0, 0, 0]	n/a	FR1	2	R1122E
1366.379	2.732	1365634	REC_WORD	2.732	n/a	BAG	-999	11	[0, 0, 0]	n/a	FR1	2	R1122E
1369.111	3.564	1368366	REC_END	n/a	n/a	n/a	-999	11	[0, 0, 0]	n/a	FR1	2	R1122E
1372.675	0.0	1371929	TRIAL	n/a	n/a	n/a	-999	12	[0, 0, 0]	n/a	FR1	2	R1122E
1372.675	10.428	1371929	COUNTDOWN_START	n/a	n/a	n/a	-999	12	[0, 0, 0]	n/a	FR1	2	R1122E
1383.103	0.007	1382357	COUNTDOWN_END	n/a	n/a	n/a	-999	12	[0, 0, 0]	n/a	FR1	2	R1122E
1383.11	2.5	1382364	ORIENT	n/a	n/a	n/a	-999	12	[0, 0, 0]	n/a	FR1	2	R1122E
1385.61	2.4	1384863	WORD	n/a	wordpools/wordpool_EN.txt	CHIN	1	12	[0, 0, 0]	n/a	FR1	2	R1122E
1388.01	2.518	1387263	WORD	n/a	wordpools/wordpool_EN.txt	SEED	2	12	[0, 0, 0]	n/a	FR1	2	R1122E
1390.528	2.483	1389781	WORD	n/a	wordpools/wordpool_EN.txt	SOUP	3	12	[0, 0, 0]	n/a	FR1	2	R1122E
1393.011	2.501	1392264	WORD	n/a	wordpools/wordpool_EN.txt	VINE	4	12	[0, 0, 0]	n/a	FR1	2	R1122E
1395.512	2.483	1394765	WORD	n/a	wordpools/wordpool_EN.txt	CHAIR	5	12	[0, 0, 0]	n/a	FR1	2	R1122E
1397.995	2.435	1397248	WORD	n/a	wordpools/wordpool_EN.txt	BRANCH	6	12	[0, 0, 0]	n/a	FR1	2	R1122E
1400.43	2.432	1399682	WORD	n/a	wordpools/wordpool_EN.txt	FUDGE	7	12	[0, 0, 0]	n/a	FR1	2	R1122E
1402.862	2.552	1402114	WORD	n/a	wordpools/wordpool_EN.txt	FRUIT	8	12	[0, 0, 0]	n/a	FR1	2	R1122E
1405.414	2.449	1404666	WORD	n/a	wordpools/wordpool_EN.txt	JUICE	9	12	[0, 0, 0]	n/a	FR1	2	R1122E
1407.863	2.385	1407115	WORD	n/a	wordpools/wordpool_EN.txt	TOE	10	12	[0, 0, 0]	n/a	FR1	2	R1122E
1410.248	2.434	1409500	WORD	n/a	wordpools/wordpool_EN.txt	PIT	11	12	[0, 0, 0]	n/a	FR1	2	R1122E
1412.682	1.617	1411934	WORD	n/a	wordpools/wordpool_EN.txt	STEAK	12	12	[0, 0, 0]	n/a	FR1	2	R1122E
1414.299	0.001	1413551	DISTRACT_START	n/a	n/a	n/a	-999	12	[0, 0, 0]	n/a	FR1	2	R1122E
1414.3	0.015	1413552	START	n/a	n/a	n/a	-999	12	[-999, -999, -999]	n/a	FR1	2	R1122E
1414.315	2.517	1413567	PROB	2.517	n/a	n/a	-999	12	[3, 3, 1]	7	FR1	2	R1122E
1416.832	3.384	1416083	PROB	3.384	n/a	n/a	-999	12	[8, 6, 8]	20	FR1	2	R1122E
1420.216	3.068	1419467	PROB	3.068	n/a	n/a	-999	12	[2, 3, 7]	12	FR1	2	R1122E
1423.284	2.984	1422535	PROB	2.984	n/a	n/a	-999	12	[4, 9, 1]	14	FR1	2	R1122E
1426.268	2.566	1425519	PROB	2.566	n/a	n/a	-999	12	[1, 4, 4]	9	FR1	2	R1122E
1428.834	3.301	1428085	PROB	3.301	n/a	n/a	-999	12	[7, 1, 8]	16	FR1	2	R1122E
1432.135	2.929	1431385	PROB	2.929	n/a	n/a	-999	12	[4, 3, 7]	14	FR1	2	R1122E
1435.064	0.005	1434314	STOP	n/a	n/a	n/a	-999	12	[-999, -999, -999]	n/a	FR1	2	R1122E
1435.069	1.118	1434319	DISTRACT_END	n/a	n/a	n/a	-999	12	[0, 0, 0]	n/a	FR1	2	R1122E
1436.187	30.0	1435437	REC_START	n/a	n/a	n/a	-999	12	[0, 0, 0]	n/a	FR1	2	R1122E
1466.187	0.008	1465435	REC_WORD_VV	0.008	n/a	<>	-999	12	[0, 0, 0]	n/a	FR1	2	R1122E
1466.195	113.233	1465443	REC_END	n/a	n/a	n/a	-999	12	[0, 0, 0]	n/a	FR1	2	R1122E
1579.428	0.0	1578668	TRIAL	n/a	n/a	n/a	-999	13	[0, 0, 0]	n/a	FR1	2	R1122E
1579.428	10.428	1578668	COUNTDOWN_START	n/a	n/a	n/a	-999	13	[0, 0, 0]	n/a	FR1	2	R1122E
1589.856	0.006	1589096	COUNTDOWN_END	n/a	n/a	n/a	-999	13	[0, 0, 0]	n/a	FR1	2	R1122E
1589.862	2.468	1589102	ORIENT	n/a	n/a	n/a	-999	13	[0, 0, 0]	n/a	FR1	2	R1122E
1592.33	2.516	1591570	WORD	n/a	wordpools/wordpool_EN.txt	HAWK	1	13	[0, 0, 0]	n/a	FR1	2	R1122E
1594.846	2.502	1594085	WORD	n/a	wordpools/wordpool_EN.txt	MAIL	2	13	[0, 0, 0]	n/a	FR1	2	R1122E
1597.348	2.549	1596587	WORD	n/a	wordpools/wordpool_EN.txt	BOOK	3	13	[0, 0, 0]	n/a	FR1	2	R1122E
1599.897	2.385	1599136	WORD	n/a	wordpools/wordpool_EN.txt	STORE	4	13	[0, 0, 0]	n/a	FR1	2	R1122E
1602.282	2.467	1601521	WORD	n/a	wordpools/wordpool_EN.txt	HORSE	5	13	[0, 0, 0]	n/a	FR1	2	R1122E
1604.749	2.484	1603988	WORD	n/a	wordpools/wordpool_EN.txt	CORD	6	13	[0, 0, 0]	n/a	FR1	2	R1122E
1607.233	2.532	1606472	WORD	n/a	wordpools/wordpool_EN.txt	BAT	7	13	[0, 0, 0]	n/a	FR1	2	R1122E
1609.765	2.602	1609003	WORD	n/a	wordpools/wordpool_EN.txt	PEA	8	13	[0, 0, 0]	n/a	FR1	2	R1122E
1612.367	2.532	1611605	WORD	n/a	wordpools/wordpool_EN.txt	JET	9	13	[0, 0, 0]	n/a	FR1	2	R1122E
1614.899	2.385	1614137	WORD	n/a	wordpools/wordpool_EN.txt	JAIL	10	13	[0, 0, 0]	n/a	FR1	2	R1122E
1617.284	2.6	1616522	WORD	n/a	wordpools/wordpool_EN.txt	TOOL	11	13	[0, 0, 0]	n/a	FR1	2	R1122E
1619.884	1.618	1619122	WORD	n/a	wordpools/wordpool_EN.txt	SHEET	12	13	[0, 0, 0]	n/a	FR1	2	R1122E
1621.502	0.0	1620740	DISTRACT_START	n/a	n/a	n/a	-999	13	[0, 0, 0]	n/a	FR1	2	R1122E
1621.502	0.016	1620740	START	n/a	n/a	n/a	-999	13	[-999, -999, -999]	n/a	FR1	2	R1122E
1621.518	3.834	1620756	PROB	3.834	n/a	n/a	-999	13	[7, 7, 6]	20	FR1	2	R1122E
1625.352	2.583	1624589	PROB	2.583	n/a	n/a	-999	13	[7, 3, 2]	12	FR1	2	R1122E
1627.935	2.834	1627172	PROB	2.834	n/a	n/a	-999	13	[1, 9, 9]	19	FR1	2	R1122E
1630.769	2.468	1630006	PROB	2.468	n/a	n/a	-999	13	[3, 7, 2]	12	FR1	2	R1122E
1633.237	2.4	1632474	PROB	2.4	n/a	n/a	-999	13	[2, 4, 6]	12	FR1	2	R1122E
1635.637	4.267	1634874	PROB	4.267	n/a	n/a	-999	13	[3, 6, 7]	16	FR1	2	R1122E
1639.904	2.668	1639140	PROB	2.668	n/a	n/a	-999	13	[1, 5, 2]	8	FR1	2	R1122E
1642.572	0.017	1641808	STOP	n/a	n/a	n/a	-999	13	[-999, -999, -999]	n/a	FR1	2	R1122E
1642.589	1.117	1641825	DISTRACT_END	n/a	n/a	n/a	-999	13	[0, 0, 0]	n/a	FR1	2	R1122E
1643.706	2.832	1642942	REC_START	n/a	n/a	n/a	-999	13	[0, 0, 0]	n/a	FR1	2	R1122E
1646.538	1.912	1645774	REC_WORD	1.912	n/a	HAWK	-999	13	[0, 0, 0]	n/a	FR1	2	R1122E
1648.45	3.058	1647686	REC_WORD	3.058	n/a	MAIL	-999	13	[0, 0, 0]	n/a	FR1	2	R1122E
1651.508	1.867	1650744	REC_WORD	1.867	n/a	JAIL	-999	13	[0, 0, 0]	n/a	FR1	2	R1122E
1653.375	11.357	1652610	REC_WORD	11.357	n/a	TOOL	-999	13	[0, 0, 0]	n/a	FR1	2	R1122E
1664.732	8.983	1663967	REC_WORD	8.983	n/a	JET	-999	13	[0, 0, 0]	n/a	FR1	2	R1122E
1673.715	20.048	1672949	REC_END	n/a	n/a	n/a	-999	13	[0, 0, 0]	n/a	FR1	2	R1122E
1693.763	0.001	1692996	COUNTDOWN_START	n/a	n/a	n/a	-999	14	[0, 0, 0]	n/a	FR1	2	R1122E
1693.764	10.427	1692997	TRIAL	n/a	n/a	n/a	-999	14	[0, 0, 0]	n/a	FR1	2	R1122E
1704.191	0.009	1703423	COUNTDOWN_END	n/a	n/a	n/a	-999	14	[0, 0, 0]	n/a	FR1	2	R1122E
1704.2	2.483	1703432	ORIENT	n/a	n/a	n/a	-999	14	[0, 0, 0]	n/a	FR1	2	R1122E
1706.683	2.401	1705915	WORD	n/a	wordpools/wordpool_EN.txt	HOLE	1	14	[0, 0, 0]	n/a	FR1	2	R1122E
1709.084	2.417	1708316	WORD	n/a	wordpools/wordpool_EN.txt	BED	2	14	[0, 0, 0]	n/a	FR1	2	R1122E
1711.501	2.466	1710733	WORD	n/a	wordpools/wordpool_EN.txt	TRAIN	3	14	[0, 0, 0]	n/a	FR1	2	R1122E
1713.967	2.551	1713198	WORD	n/a	wordpools/wordpool_EN.txt	CART	4	14	[0, 0, 0]	n/a	FR1	2	R1122E
1716.518	2.45	1715749	WORD	n/a	wordpools/wordpool_EN.txt	MAT	5	14	[0, 0, 0]	n/a	FR1	2	R1122E
1718.968	2.451	1718199	WORD	n/a	wordpools/wordpool_EN.txt	MAZE	6	14	[0, 0, 0]	n/a	FR1	2	R1122E
1721.419	2.483	1720650	WORD	n/a	wordpools/wordpool_EN.txt	HAT	7	14	[0, 0, 0]	n/a	FR1	2	R1122E
1723.902	2.601	1723133	WORD	n/a	wordpools/wordpool_EN.txt	PARK	8	14	[0, 0, 0]	n/a	FR1	2	R1122E
1726.503	2.517	1725733	WORD	n/a	wordpools/wordpool_EN.txt	TRUCK	9	14	[0, 0, 0]	n/a	FR1	2	R1122E
1729.02	2.534	1728250	WORD	n/a	wordpools/wordpool_EN.txt	SQUARE	10	14	[0, 0, 0]	n/a	FR1	2	R1122E
1731.554	2.484	1730784	WORD	n/a	wordpools/wordpool_EN.txt	PRINCE	11	14	[0, 0, 0]	n/a	FR1	2	R1122E
1734.038	1.617	1733268	WORD	n/a	wordpools/wordpool_EN.txt	HOOF	12	14	[0, 0, 0]	n/a	FR1	2	R1122E
1735.655	0.001	1734885	DISTRACT_START	n/a	n/a	n/a	-999	14	[0, 0, 0]	n/a	FR1	2	R1122E
1735.656	0.016	1734886	START	n/a	n/a	n/a	-999	14	[-999, -999, -999]	n/a	FR1	2	R1122E
1735.672	3.8	1734902	PROB	3.8	n/a	n/a	-999	14	[1, 6, 5]	12	FR1	2	R1122E
1739.472	2.801	1738702	PROB	2.801	n/a	n/a	-999	14	[5, 8, 7]	20	FR1	2	R1122E
1742.273	3.434	1741502	PROB	3.434	n/a	n/a	-999	14	[5, 2, 3]	10	FR1	2	R1122E
1745.707	2.767	1744936	PROB	2.767	n/a	n/a	-999	14	[3, 4, 2]	9	FR1	2	R1122E
1748.474	2.9	1747703	PROB	2.9	n/a	n/a	-999	14	[3, 9, 8]	20	FR1	2	R1122E
1751.374	3.068	1750603	PROB	3.068	n/a	n/a	-999	14	[1, 2, 3]	6	FR1	2	R1122E
1754.442	2.882	1753671	PROB	2.882	n/a	n/a	-999	14	[2, 6, 5]	13	FR1	2	R1122E
1757.324	0.018	1756552	STOP	n/a	n/a	n/a	-999	14	[-999, -999, -999]	n/a	FR1	2	R1122E
1757.342	1.034	1756570	DISTRACT_END	n/a	n/a	n/a	-999	14	[0, 0, 0]	n/a	FR1	2	R1122E
1758.376	5.368	1757604	REC_START	n/a	n/a	n/a	-999	14	[0, 0, 0]	n/a	FR1	2	R1122E
1763.744	2.145	1762972	REC_WORD	2.145	n/a	HAT	-999	14	[0, 0, 0]	n/a	FR1	2	R1122E
1765.889	3.759	1765117	REC_WORD	3.759	n/a	PRINCE	-999	14	[0, 0, 0]	n/a	FR1	2	R1122E
1769.648	3.743	1768876	REC_WORD	3.743	n/a	BOOK	-999	14	[0, 0, 0]	n/a	FR1	2	R1122E
1773.391	7.254	1772618	REC_WORD	7.254	n/a	HOOF	-999	14	[0, 0, 0]	n/a	FR1	2	R1122E
1780.645	1.543	1779872	REC_WORD	1.543	n/a	PARK	-999	14	[0, 0, 0]	n/a	FR1	2	R1122E
1782.188	5.648	1781415	REC_WORD	5.648	n/a	MAZE	-999	14	[0, 0, 0]	n/a	FR1	2	R1122E
1787.836	0.549	1787062	REC_WORD	0.549	n/a	TRAIN	-999	14	[0, 0, 0]	n/a	FR1	2	R1122E
1788.385	23.599	1787611	REC_END	n/a	n/a	n/a	-999	14	[0, 0, 0]	n/a	FR1	2	R1122E
1811.984	0.0	1811209	TRIAL	n/a	n/a	n/a	-999	15	[0, 0, 0]	n/a	FR1	2	R1122E
1811.984	10.428	1811209	COUNTDOWN_START	n/a	n/a	n/a	-999	15	[0, 0, 0]	n/a	FR1	2	R1122E
1822.412	0.008	1821636	COUNTDOWN_END	n/a	n/a	n/a	-999	15	[0, 0, 0]	n/a	FR1	2	R1122E
1822.42	2.416	1821644	ORIENT	n/a	n/a	n/a	-999	15	[0, 0, 0]	n/a	FR1	2	R1122E
1824.836	2.585	1824060	WORD	n/a	wordpools/wordpool_EN.txt	THUMB	1	15	[0, 0, 0]	n/a	FR1	2	R1122E
1827.421	2.533	1826645	WORD	n/a	wordpools/wordpool_EN.txt	SLEEVE	2	15	[0, 0, 0]	n/a	FR1	2	R1122E
1829.954	2.551	1829178	WORD	n/a	wordpools/wordpool_EN.txt	FROG	3	15	[0, 0, 0]	n/a	FR1	2	R1122E
1832.505	2.517	1831728	WORD	n/a	wordpools/wordpool_EN.txt	SUIT	4	15	[0, 0, 0]	n/a	FR1	2	R1122E
1835.022	2.418	1834245	WORD	n/a	wordpools/wordpool_EN.txt	BOARD	5	15	[0, 0, 0]	n/a	FR1	2	R1122E
1837.44	2.382	1836663	WORD	n/a	wordpools/wordpool_EN.txt	BRUSH	6	15	[0, 0, 0]	n/a	FR1	2	R1122E
1839.822	2.552	1839045	WORD	n/a	wordpools/wordpool_EN.txt	PIPE	7	15	[0, 0, 0]	n/a	FR1	2	R1122E
1842.374	2.416	1841597	WORD	n/a	wordpools/wordpool_EN.txt	NAIL	8	15	[0, 0, 0]	n/a	FR1	2	R1122E
1844.79	2.401	1844013	WORD	n/a	wordpools/wordpool_EN.txt	PURSE	9	15	[0, 0, 0]	n/a	FR1	2	R1122E
1847.191	2.434	1846413	WORD	n/a	wordpools/wordpool_EN.txt	FORK	10	15	[0, 0, 0]	n/a	FR1	2	R1122E
1849.625	2.584	1848847	WORD	n/a	wordpools/wordpool_EN.txt	BENCH	11	15	[0, 0, 0]	n/a	FR1	2	R1122E
1852.209	1.616	1851431	WORD	n/a	wordpools/wordpool_EN.txt	SINK	12	15	[0, 0, 0]	n/a	FR1	2	R1122E
1853.825	0.0	1853047	DISTRACT_START	n/a	n/a	n/a	-999	15	[0, 0, 0]	n/a	FR1	2	R1122E
1853.825	0.016	1853047	START	n/a	n/a	n/a	-999	15	[-999, -999, -999]	n/a	FR1	2	R1122E
1853.841	3.702	1853063	PROB	3.702	n/a	n/a	-999	15	[4, 9, 9]	22	FR1	2	R1122E
1857.543	3.067	1856765	PROB	3.067	n/a	n/a	-999	15	[6, 5, 9]	20	FR1	2	R1122E
1860.61	3.784	1859831	PROB	3.784	n/a	n/a	-999	15	[5, 7, 4]	16	FR1	2	R1122E
1864.394	2.751	1863615	PROB	2.751	n/a	n/a	-999	15	[8, 8, 4]	20	FR1	2	R1122E
1867.145	2.649	1866366	PROB	2.649	n/a	n/a	-999	15	[2, 2, 8]	12	FR1	2	R1122E
1869.794	2.935	1869015	PROB	2.935	n/a	n/a	-999	15	[3, 7, 3]	13	FR1	2	R1122E
1872.729	2.588	1871950	PROB	2.588	n/a	n/a	-999	15	[6, 5, 2]	13	FR1	2	R1122E
1875.317	0.012	1874537	STOP	n/a	n/a	n/a	-999	15	[-999, -999, -999]	n/a	FR1	2	R1122E
1875.329	1.168	1874549	DISTRACT_END	n/a	n/a	n/a	-999	15	[0, 0, 0]	n/a	FR1	2	R1122E
1876.497	1.774	1875717	REC_START	n/a	n/a	n/a	-999	15	[0, 0, 0]	n/a	FR1	2	R1122E
1878.271	5.395	1877491	REC_WORD	5.395	n/a	PIPE	-999	15	[0, 0, 0]	n/a	FR1	2	R1122E
1883.666	22.841	1882886	REC_WORD	22.841	n/a	NAIL	-999	15	[0, 0, 0]	n/a	FR1	2	R1122E
1906.507	45.253	1905725	REC_END	n/a	n/a	n/a	-999	15	[0, 0, 0]	n/a	FR1	2	R1122E
1951.76	0.0	1950975	TRIAL	n/a	n/a	n/a	-999	16	[0, 0, 0]	n/a	FR1	2	R1122E
1951.76	10.428	1950975	COUNTDOWN_START	n/a	n/a	n/a	-999	16	[0, 0, 0]	n/a	FR1	2	R1122E
1962.188	0.007	1961403	COUNTDOWN_END	n/a	n/a	n/a	-999	16	[0, 0, 0]	n/a	FR1	2	R1122E
1962.195	2.467	1961410	ORIENT	n/a	n/a	n/a	-999	16	[0, 0, 0]	n/a	FR1	2	R1122E
1964.662	2.434	1963876	WORD	n/a	wordpools/wordpool_EN.txt	SEA	1	16	[0, 0, 0]	n/a	FR1	2	R1122E
1967.096	2.6	1966310	WORD	n/a	wordpools/wordpool_EN.txt	STAR	2	16	[0, 0, 0]	n/a	FR1	2	R1122E
1969.696	2.384	1968910	WORD	n/a	wordpools/wordpool_EN.txt	SHIP	3	16	[0, 0, 0]	n/a	FR1	2	R1122E
1972.08	2.55	1971294	WORD	n/a	wordpools/wordpool_EN.txt	STEAM	4	16	[0, 0, 0]	n/a	FR1	2	R1122E
1974.63	2.534	1973844	WORD	n/a	wordpools/wordpool_EN.txt	BOMB	5	16	[0, 0, 0]	n/a	FR1	2	R1122E
1977.164	2.417	1976378	WORD	n/a	wordpools/wordpool_EN.txt	JEEP	6	16	[0, 0, 0]	n/a	FR1	2	R1122E
1979.581	2.45	1978794	WORD	n/a	wordpools/wordpool_EN.txt	PLANE	7	16	[0, 0, 0]	n/a	FR1	2	R1122E
1982.031	2.451	1981244	WORD	n/a	wordpools/wordpool_EN.txt	MOON	8	16	[0, 0, 0]	n/a	FR1	2	R1122E
1984.482	2.466	1983695	WORD	n/a	wordpools/wordpool_EN.txt	FILM	9	16	[0, 0, 0]	n/a	FR1	2	R1122E
1986.948	2.368	1986161	WORD	n/a	wordpools/wordpool_EN.txt	CLOUD	10	16	[0, 0, 0]	n/a	FR1	2	R1122E
1989.316	2.566	1988529	WORD	n/a	wordpools/wordpool_EN.txt	TANK	11	16	[0, 0, 0]	n/a	FR1	2	R1122E
1991.882	1.601	1991095	WORD	n/a	wordpools/wordpool_EN.txt	FLUTE	12	16	[0, 0, 0]	n/a	FR1	2	R1122E
1993.483	0.001	1992696	DISTRACT_START	n/a	n/a	n/a	-999	16	[0, 0, 0]	n/a	FR1	2	R1122E
1993.484	0.016	1992697	START	n/a	n/a	n/a	-999	16	[-999, -999, -999]	n/a	FR1	2	R1122E
1993.5	2.901	1992713	PROB	2.901	n/a	n/a	-999	16	[1, 5, 2]	8	FR1	2	R1122E
1996.401	3.334	1995613	PROB	3.334	n/a	n/a	-999	16	[7, 2, 5]	14	FR1	2	R1122E
1999.735	3.083	1998947	PROB	3.083	n/a	n/a	-999	16	[1, 7, 5]	13	FR1	2	R1122E
2002.818	3.551	2002030	PROB	3.551	n/a	n/a	-999	16	[9, 9, 6]	24	FR1	2	R1122E
2006.369	3.001	2005581	PROB	3.001	n/a	n/a	-999	16	[1, 6, 3]	10	FR1	2	R1122E
2009.37	2.649	2008581	PROB	2.649	n/a	n/a	-999	16	[6, 7, 7]	20	FR1	2	R1122E
2012.019	2.209	2011230	PROB	2.209	n/a	n/a	-999	16	[3, 4, 2]	9	FR1	2	R1122E
2014.228	0.009	2013439	STOP	n/a	n/a	n/a	-999	16	[-999, -999, -999]	n/a	FR1	2	R1122E
2014.237	1.168	2013448	DISTRACT_END	n/a	n/a	n/a	-999	16	[0, 0, 0]	n/a	FR1	2	R1122E
2015.405	1.769	2014616	REC_START	n/a	n/a	n/a	-999	16	[0, 0, 0]	n/a	FR1	2	R1122E
2017.174	1.744	2016385	REC_WORD	1.744	n/a	FLUTE	-999	16	[0, 0, 0]	n/a	FR1	2	R1122E
2018.918	1.565	2018129	REC_WORD	1.565	n/a	SEA	-999	16	[0, 0, 0]	n/a	FR1	2	R1122E
2020.483	1.454	2019694	REC_WORD	1.454	n/a	SHIP	-999	16	[0, 0, 0]	n/a	FR1	2	R1122E
2021.937	1.476	2021148	REC_WORD	1.476	n/a	STAR	-999	16	[0, 0, 0]	n/a	FR1	2	R1122E
2023.413	1.398	2022624	REC_WORD	1.398	n/a	MOON	-999	16	[0, 0, 0]	n/a	FR1	2	R1122E
2024.811	1.761	2024021	REC_WORD	1.761	n/a	CLOUD	-999	16	[0, 0, 0]	n/a	FR1	2	R1122E
2026.572	1.888	2025782	REC_WORD	1.888	n/a	JEEP	-999	16	[0, 0, 0]	n/a	FR1	2	R1122E
2028.46	2.245	2027670	REC_WORD	2.245	n/a	TANK	-999	16	[0, 0, 0]	n/a	FR1	2	R1122E
2030.705	1.411	2029915	REC_WORD	1.411	n/a	BOMB	-999	16	[0, 0, 0]	n/a	FR1	2	R1122E
2032.116	13.299	2031326	REC_WORD	13.299	n/a	FILM	-999	16	[0, 0, 0]	n/a	FR1	2	R1122E
2045.415	21.315	2044624	REC_END	n/a	n/a	n/a	-999	16	[0, 0, 0]	n/a	FR1	2	R1122E
2066.73	0.0	2065938	TRIAL	n/a	n/a	n/a	-999	17	[0, 0, 0]	n/a	FR1	2	R1122E
2066.73	10.428	2065938	COUNTDOWN_START	n/a	n/a	n/a	-999	17	[0, 0, 0]	n/a	FR1	2	R1122E
2077.158	0.007	2076365	COUNTDOWN_END	n/a	n/a	n/a	-999	17	[0, 0, 0]	n/a	FR1	2	R1122E
2077.165	2.567	2076372	ORIENT	n/a	n/a	n/a	-999	17	[0, 0, 0]	n/a	FR1	2	R1122E
2079.732	2.534	2078939	WORD	n/a	wordpools/wordpool_EN.txt	MAP	1	17	[0, 0, 0]	n/a	FR1	2	R1122E
2082.266	2.566	2081473	WORD	n/a	wordpools/wordpool_EN.txt	BEAR	2	17	[0, 0, 0]	n/a	FR1	2	R1122E
2084.832	2.451	2084038	WORD	n/a	wordpools/wordpool_EN.txt	STEM	3	17	[0, 0, 0]	n/a	FR1	2	R1122E
2087.283	2.5	2086489	WORD	n/a	wordpools/wordpool_EN.txt	POLE	4	17	[0, 0, 0]	n/a	FR1	2	R1122E
2089.783	2.518	2088989	WORD	n/a	wordpools/wordpool_EN.txt	TOOTH	5	17	[0, 0, 0]	n/a	FR1	2	R1122E
2092.301	2.433	2091507	WORD	n/a	wordpools/wordpool_EN.txt	INK	6	17	[0, 0, 0]	n/a	FR1	2	R1122E
2094.734	2.551	2093940	WORD	n/a	wordpools/wordpool_EN.txt	TEETH	7	17	[0, 0, 0]	n/a	FR1	2	R1122E
2097.285	2.533	2096491	WORD	n/a	wordpools/wordpool_EN.txt	SLIME	8	17	[0, 0, 0]	n/a	FR1	2	R1122E
2099.818	2.518	2099023	WORD	n/a	wordpools/wordpool_EN.txt	SALT	9	17	[0, 0, 0]	n/a	FR1	2	R1122E
2102.336	2.549	2101541	WORD	n/a	wordpools/wordpool_EN.txt	ROOT	10	17	[0, 0, 0]	n/a	FR1	2	R1122E
2104.885	2.402	2104090	WORD	n/a	wordpools/wordpool_EN.txt	WHEEL	11	17	[0, 0, 0]	n/a	FR1	2	R1122E
2107.287	1.616	2106492	WORD	n/a	wordpools/wordpool_EN.txt	BANK	12	17	[0, 0, 0]	n/a	FR1	2	R1122E
2108.903	0.0	2108108	DISTRACT_START	n/a	n/a	n/a	-999	17	[0, 0, 0]	n/a	FR1	2	R1122E
2108.903	0.016	2108108	START	n/a	n/a	n/a	-999	17	[-999, -999, -999]	n/a	FR1	2	R1122E
2108.919	2.435	2108124	PROB	2.435	n/a	n/a	-999	17	[3, 4, 1]	8	FR1	2	R1122E
2111.354	2.599	2110559	PROB	2.599	n/a	n/a	-999	17	[3, 3, 2]	8	FR1	2	R1122E
2113.953	3.286	2113157	PROB	3.286	n/a	n/a	-999	17	[7, 6, 3]	16	FR1	2	R1122E
2117.239	3.133	2116443	PROB	3.133	n/a	n/a	-999	17	[4, 5, 7]	16	FR1	2	R1122E
2120.372	2.6	2119576	PROB	2.6	n/a	n/a	-999	17	[5, 4, 2]	11	FR1	2	R1122E
2122.972	2.967	2122176	PROB	2.967	n/a	n/a	-999	17	[5, 6, 6]	17	FR1	2	R1122E
2125.939	3.058	2125143	PROB	3.058	n/a	n/a	-999	17	[2, 1, 3]	6	FR1	2	R1122E
2128.997	0.009	2128200	STOP	n/a	n/a	n/a	-999	17	[-999, -999, -999]	n/a	FR1	2	R1122E
2129.006	1.185	2128209	DISTRACT_END	n/a	n/a	n/a	-999	17	[0, 0, 0]	n/a	FR1	2	R1122E
2130.191	1.954	2129394	REC_START	n/a	n/a	n/a	-999	17	[0, 0, 0]	n/a	FR1	2	R1122E
2132.145	5.775	2131348	REC_WORD	5.775	n/a	SLIME	-999	17	[0, 0, 0]	n/a	FR1	2	R1122E
2137.92	1.492	2137123	REC_WORD	1.492	n/a	BEAR	-999	17	[0, 0, 0]	n/a	FR1	2	R1122E
2139.412	20.795	2138615	REC_WORD	20.795	n/a	MAP	-999	17	[0, 0, 0]	n/a	FR1	2	R1122E
2160.207	4.323	2159408	REC_END	n/a	n/a	n/a	-999	17	[0, 0, 0]	n/a	FR1	2	R1122E
2164.53	0.0	2163731	COUNTDOWN_START	n/a	n/a	n/a	-999	18	[0, 0, 0]	n/a	FR1	2	R1122E
2164.53	10.428	2163731	TRIAL	n/a	n/a	n/a	-999	18	[0, 0, 0]	n/a	FR1	2	R1122E
2174.958	0.006	2174158	COUNTDOWN_END	n/a	n/a	n/a	-999	18	[0, 0, 0]	n/a	FR1	2	R1122E
2174.964	2.485	2174164	ORIENT	n/a	n/a	n/a	-999	18	[0, 0, 0]	n/a	FR1	2	R1122E
2177.449	2.5	2176649	WORD	n/a	wordpools/wordpool_EN.txt	STORM	1	18	[0, 0, 0]	n/a	FR1	2	R1122E
2179.949	2.384	2179149	WORD	n/a	wordpools/wordpool_EN.txt	FOAM	2	18	[0, 0, 0]	n/a	FR1	2	R1122E
2182.333	2.5	2181533	WORD	n/a	wordpools/wordpool_EN.txt	STRAW	3	18	[0, 0, 0]	n/a	FR1	2	R1122E
2184.833	2.434	2184033	WORD	n/a	wordpools/wordpool_EN.txt	TRASH	4	18	[0, 0, 0]	n/a	FR1	2	R1122E
2187.267	2.533	2186466	WORD	n/a	wordpools/wordpool_EN.txt	CLIFF	5	18	[0, 0, 0]	n/a	FR1	2	R1122E
2189.8	2.535	2188999	WORD	n/a	wordpools/wordpool_EN.txt	STAIR	6	18	[0, 0, 0]	n/a	FR1	2	R1122E
2192.335	2.6	2191534	WORD	n/a	wordpools/wordpool_EN.txt	GLASS	7	18	[0, 0, 0]	n/a	FR1	2	R1122E
2194.935	2.451	2194134	WORD	n/a	wordpools/wordpool_EN.txt	WHALE	8	18	[0, 0, 0]	n/a	FR1	2	R1122E
2197.386	2.483	2196585	WORD	n/a	wordpools/wordpool_EN.txt	BRICK	9	18	[0, 0, 0]	n/a	FR1	2	R1122E
2199.869	2.434	2199068	WORD	n/a	wordpools/wordpool_EN.txt	SMOKE	10	18	[0, 0, 0]	n/a	FR1	2	R1122E
2202.303	2.384	2201501	WORD	n/a	wordpools/wordpool_EN.txt	ROPE	11	18	[0, 0, 0]	n/a	FR1	2	R1122E
2204.687	1.617	2203885	WORD	n/a	wordpools/wordpool_EN.txt	ROCK	12	18	[0, 0, 0]	n/a	FR1	2	R1122E
2206.304	0.001	2205502	DISTRACT_START	n/a	n/a	n/a	-999	18	[0, 0, 0]	n/a	FR1	2	R1122E
2206.305	0.016	2205503	START	n/a	n/a	n/a	-999	18	[-999, -999, -999]	n/a	FR1	2	R1122E
2206.321	3.817	2205519	PROB	3.817	n/a	n/a	-999	18	[2, 9, 6]	17	FR1	2	R1122E
2210.138	2.501	2209336	PROB	2.501	n/a	n/a	-999	18	[3, 2, 3]	8	FR1	2	R1122E
2212.639	2.067	2211837	PROB	2.067	n/a	n/a	-999	18	[1, 4, 4]	9	FR1	2	R1122E
2214.706	3.65	2213904	PROB	3.65	n/a	n/a	-999	18	[4, 7, 3]	14	FR1	2	R1122E
2218.356	3.234	2217553	PROB	3.234	n/a	n/a	-999	18	[5, 4, 8]	17	FR1	2	R1122E
2221.59	3.084	2220787	PROB	3.084	n/a	n/a	-999	18	[6, 9, 4]	19	FR1	2	R1122E
2224.674	2.643	2223871	PROB	2.643	n/a	n/a	-999	18	[9, 7, 3]	19	FR1	2	R1122E
2227.317	0.008	2226514	STOP	n/a	n/a	n/a	-999	18	[-999, -999, -999]	n/a	FR1	2	R1122E
2227.325	1.1	2226522	DISTRACT_END	n/a	n/a	n/a	-999	18	[0, 0, 0]	n/a	FR1	2	R1122E
2228.425	1.766	2227622	REC_START	n/a	n/a	n/a	-999	18	[0, 0, 0]	n/a	FR1	2	R1122E
2230.191	1.598	2229388	REC_WORD	1.598	n/a	GLASS	-999	18	[0, 0, 0]	n/a	FR1	2	R1122E
2231.789	1.807	2230985	REC_WORD	1.807	n/a	BRICK	-999	18	[0, 0, 0]	n/a	FR1	2	R1122E
2233.596	2.007	2232792	REC_WORD	2.007	n/a	HOLE	-999	18	[0, 0, 0]	n/a	FR1	2	R1122E
2235.603	2.302	2234799	REC_WORD	2.302	n/a	TEETH	-999	18	[0, 0, 0]	n/a	FR1	2	R1122E
2237.905	10.518	2237101	REC_WORD	10.518	n/a	TOOTH	-999	18	[0, 0, 0]	n/a	FR1	2	R1122E
2248.423	2.65	2247618	REC_WORD	2.65	n/a	STRAW	-999	18	[0, 0, 0]	n/a	FR1	2	R1122E
2251.073	5.604	2250268	REC_WORD	5.604	n/a	STORM	-999	18	[0, 0, 0]	n/a	FR1	2	R1122E
2256.677	1.764	2255872	REC_WORD	1.764	n/a	TRASH	-999	18	[0, 0, 0]	n/a	FR1	2	R1122E
2258.441	21.776	2257636	REC_END	n/a	n/a	n/a	-999	18	[0, 0, 0]	n/a	FR1	2	R1122E
2280.217	0.0	2279410	TRIAL	n/a	n/a	n/a	-999	19	[0, 0, 0]	n/a	FR1	2	R1122E
2280.217	10.428	2279410	COUNTDOWN_START	n/a	n/a	n/a	-999	19	[0, 0, 0]	n/a	FR1	2	R1122E
2290.645	0.007	2289838	COUNTDOWN_END	n/a	n/a	n/a	-999	19	[0, 0, 0]	n/a	FR1	2	R1122E
2290.652	2.567	2289845	ORIENT	n/a	n/a	n/a	-999	19	[0, 0, 0]	n/a	FR1	2	R1122E
2293.219	2.384	2292411	WORD	n/a	wordpools/wordpool_EN.txt	COIN	1	19	[0, 0, 0]	n/a	FR1	2	R1122E
2295.603	2.45	2294795	WORD	n/a	wordpools/wordpool_EN.txt	WALL	2	19	[0, 0, 0]	n/a	FR1	2	R1122E
2298.053	2.368	2297245	WORD	n/a	wordpools/wordpool_EN.txt	GLOVE	3	19	[0, 0, 0]	n/a	FR1	2	R1122E
2300.421	2.516	2299613	WORD	n/a	wordpools/wordpool_EN.txt	SHIELD	4	19	[0, 0, 0]	n/a	FR1	2	R1122E
2302.937	2.601	2302129	WORD	n/a	wordpools/wordpool_EN.txt	SPARK	5	19	[0, 0, 0]	n/a	FR1	2	R1122E
2305.538	2.45	2304730	WORD	n/a	wordpools/wordpool_EN.txt	RAIN	6	19	[0, 0, 0]	n/a	FR1	2	R1122E
2307.988	2.434	2307179	WORD	n/a	wordpools/wordpool_EN.txt	SPONGE	7	19	[0, 0, 0]	n/a	FR1	2	R1122E
2310.422	2.6	2309613	WORD	n/a	wordpools/wordpool_EN.txt	BOX	8	19	[0, 0, 0]	n/a	FR1	2	R1122E
2313.022	2.401	2312213	WORD	n/a	wordpools/wordpool_EN.txt	HOOK	9	19	[0, 0, 0]	n/a	FR1	2	R1122E
2315.423	2.6	2314614	WORD	n/a	wordpools/wordpool_EN.txt	BALL	10	19	[0, 0, 0]	n/a	FR1	2	R1122E
2318.023	2.601	2317214	WORD	n/a	wordpools/wordpool_EN.txt	ELF	11	19	[0, 0, 0]	n/a	FR1	2	R1122E
2320.624	1.617	2319814	WORD	n/a	wordpools/wordpool_EN.txt	HOSE	12	19	[0, 0, 0]	n/a	FR1	2	R1122E
2322.241	0.001	2321431	DISTRACT_START	n/a	n/a	n/a	-999	19	[0, 0, 0]	n/a	FR1	2	R1122E
2322.242	0.016	2321432	START	n/a	n/a	n/a	-999	19	[-999, -999, -999]	n/a	FR1	2	R1122E
2322.258	4.884	2321448	PROB	4.884	n/a	n/a	-999	19	[2, 3, 5]	10	FR1	2	R1122E
2327.142	2.799	2326332	PROB	2.799	n/a	n/a	-999	19	[1, 1, 8]	10	FR1	2	R1122E
2329.941	2.785	2329131	PROB	2.785	n/a	n/a	-999	19	[5, 5, 8]	18	FR1	2	R1122E
2332.726	4.668	2331916	PROB	4.668	n/a	n/a	-999	19	[9, 7, 1]	17	FR1	2	R1122E
2337.394	2.85	2336583	PROB	2.85	n/a	n/a	-999	19	[9, 6, 2]	17	FR1	2	R1122E
2340.244	3.932	2339433	PROB	3.932	n/a	n/a	-999	19	[5, 6, 7]	18	FR1	2	R1122E
2344.176	0.019	2343365	STOP	n/a	n/a	n/a	-999	19	[-999, -999, -999]	n/a	FR1	2	R1122E
2344.195	1.051	2343384	DISTRACT_END	n/a	n/a	n/a	-999	19	[0, 0, 0]	n/a	FR1	2	R1122E
2345.246	1.77	2344435	REC_START	n/a	n/a	n/a	-999	19	[0, 0, 0]	n/a	FR1	2	R1122E
2347.016	28.24	2346205	REC_WORD	28.24	n/a	GLOVE	-999	19	[0, 0, 0]	n/a	FR1	2	R1122E
2375.256	31.433	2374443	REC_END	n/a	n/a	n/a	-999	19	[0, 0, 0]	n/a	FR1	2	R1122E
2406.689	0.0	2405874	TRIAL	n/a	n/a	n/a	-999	20	[0, 0, 0]	n/a	FR1	2	R1122E
2406.689	10.428	2405874	COUNTDOWN_START	n/a	n/a	n/a	-999	20	[0, 0, 0]	n/a	FR1	2	R1122E
2417.117	0.007	2416301	COUNTDOWN_END	n/a	n/a	n/a	-999	20	[0, 0, 0]	n/a	FR1	2	R1122E
2417.124	2.417	2416308	ORIENT	n/a	n/a	n/a	-999	20	[0, 0, 0]	n/a	FR1	2	R1122E
2419.541	2.383	2418725	WORD	n/a	wordpools/wordpool_EN.txt	MOTH	1	20	[0, 0, 0]	n/a	FR1	2	R1122E
2421.924	2.518	2421108	WORD	n/a	wordpools/wordpool_EN.txt	WING	2	20	[0, 0, 0]	n/a	FR1	2	R1122E
2424.442	2.583	2423626	WORD	n/a	wordpools/wordpool_EN.txt	RIB	3	20	[0, 0, 0]	n/a	FR1	2	R1122E
2427.025	2.518	2426208	WORD	n/a	wordpools/wordpool_EN.txt	THREAD	4	20	[0, 0, 0]	n/a	FR1	2	R1122E
2429.543	2.601	2428726	WORD	n/a	wordpools/wordpool_EN.txt	NET	5	20	[0, 0, 0]	n/a	FR1	2	R1122E
2432.144	2.383	2431327	WORD	n/a	wordpools/wordpool_EN.txt	POND	6	20	[0, 0, 0]	n/a	FR1	2	R1122E
2434.527	2.584	2433710	WORD	n/a	wordpools/wordpool_EN.txt	SNAIL	7	20	[0, 0, 0]	n/a	FR1	2	R1122E
2437.111	2.384	2436294	WORD	n/a	wordpools/wordpool_EN.txt	FISH	8	20	[0, 0, 0]	n/a	FR1	2	R1122E
2439.495	2.533	2438677	WORD	n/a	wordpools/wordpool_EN.txt	STRING	9	20	[0, 0, 0]	n/a	FR1	2	R1122E
2442.028	2.584	2441210	WORD	n/a	wordpools/wordpool_EN.txt	HAND	10	20	[0, 0, 0]	n/a	FR1	2	R1122E
2444.612	2.568	2443794	WORD	n/a	wordpools/wordpool_EN.txt	OWL	11	20	[0, 0, 0]	n/a	FR1	2	R1122E
2447.18	1.616	2446362	WORD	n/a	wordpools/wordpool_EN.txt	SKUNK	12	20	[0, 0, 0]	n/a	FR1	2	R1122E
2448.796	0.0	2447978	DISTRACT_START	n/a	n/a	n/a	-999	20	[0, 0, 0]	n/a	FR1	2	R1122E
2448.796	0.016	2447978	START	n/a	n/a	n/a	-999	20	[-999, -999, -999]	n/a	FR1	2	R1122E
2448.812	2.852	2447994	PROB	2.852	n/a	n/a	-999	20	[8, 8, 5]	21	FR1	2	R1122E
2451.664	2.817	2450846	PROB	2.817	n/a	n/a	-999	20	[6, 2, 5]	13	FR1	2	R1122E
2454.481	3.667	2453662	PROB	3.667	n/a	n/a	-999	20	[9, 9, 6]	24	FR1	2	R1122E
2458.148	3.084	2457329	PROB	3.084	n/a	n/a	-999	20	[2, 8, 9]	19	FR1	2	R1122E
2461.232	2.666	2460413	PROB	2.666	n/a	n/a	-999	20	[8, 2, 3]	13	FR1	2	R1122E
2463.898	3.101	2463079	PROB	3.101	n/a	n/a	-999	20	[4, 7, 4]	15	FR1	2	R1122E
2466.999	2.78	2466180	PROB	2.78	n/a	n/a	-999	20	[8, 8, 2]	18	FR1	2	R1122E
2469.779	0.004	2468959	STOP	n/a	n/a	n/a	-999	20	[-999, -999, -999]	n/a	FR1	2	R1122E
2469.783	1.084	2468963	DISTRACT_END	n/a	n/a	n/a	-999	20	[0, 0, 0]	n/a	FR1	2	R1122E
2470.867	1.766	2470047	REC_START	n/a	n/a	n/a	-999	20	[0, 0, 0]	n/a	FR1	2	R1122E
2472.633	1.435	2471813	REC_WORD	1.435	n/a	SKUNK	-999	20	[0, 0, 0]	n/a	FR1	2	R1122E
2474.068	1.252	2473248	REC_WORD	1.252	n/a	OWL	-999	20	[0, 0, 0]	n/a	FR1	2	R1122E
2475.32	1.425	2474500	REC_WORD	1.425	n/a	POND	-999	20	[0, 0, 0]	n/a	FR1	2	R1122E
2476.745	1.397	2475925	REC_WORD	1.397	n/a	MOTH	-999	20	[0, 0, 0]	n/a	FR1	2	R1122E
2478.142	1.281	2477322	REC_WORD	1.281	n/a	WING	-999	20	[0, 0, 0]	n/a	FR1	2	R1122E
2479.423	1.768	2478603	REC_WORD	1.768	n/a	NET	-999	20	[0, 0, 0]	n/a	FR1	2	R1122E
2481.191	2.272	2480371	REC_WORD	2.272	n/a	THREAD	-999	20	[0, 0, 0]	n/a	FR1	2	R1122E
2483.463	2.214	2482643	REC_WORD	2.214	n/a	FISH	-999	20	[0, 0, 0]	n/a	FR1	2	R1122E
2485.677	4.097	2484856	REC_WORD	4.097	n/a	SNAIL	-999	20	[0, 0, 0]	n/a	FR1	2	R1122E
2489.774	11.103	2488953	REC_WORD	11.103	n/a	WEB	-999	20	[0, 0, 0]	n/a	FR1	2	R1122E
2500.877	6.863	2500055	REC_END	n/a	n/a	n/a	-999	20	[0, 0, 0]	n/a	FR1	2	R1122E
2507.74	0.001	2506918	COUNTDOWN_START	n/a	n/a	n/a	-999	21	[0, 0, 0]	n/a	FR1	2	R1122E
2507.741	10.427	2506919	TRIAL	n/a	n/a	n/a	-999	21	[0, 0, 0]	n/a	FR1	2	R1122E
2518.168	0.007	2517345	COUNTDOWN_END	n/a	n/a	n/a	-999	21	[0, 0, 0]	n/a	FR1	2	R1122E
2518.175	2.417	2517352	ORIENT	n/a	n/a	n/a	-999	21	[0, 0, 0]	n/a	FR1	2	R1122E
2520.592	2.451	2519769	WORD	n/a	wordpools/wordpool_EN.txt	GATE	1	21	[0, 0, 0]	n/a	FR1	2	R1122E
2523.043	2.451	2522220	WORD	n/a	wordpools/wordpool_EN.txt	HILL	2	21	[0, 0, 0]	n/a	FR1	2	R1122E
2525.494	2.633	2524671	WORD	n/a	wordpools/wordpool_EN.txt	MULE	3	21	[0, 0, 0]	n/a	FR1	2	R1122E
2528.127	2.501	2527304	WORD	n/a	wordpools/wordpool_EN.txt	NEST	4	21	[0, 0, 0]	n/a	FR1	2	R1122E
2530.628	2.617	2529804	WORD	n/a	wordpools/wordpool_EN.txt	DOG	5	21	[0, 0, 0]	n/a	FR1	2	R1122E
2533.245	2.566	2532421	WORD	n/a	wordpools/wordpool_EN.txt	GEESE	6	21	[0, 0, 0]	n/a	FR1	2	R1122E
2535.811	2.551	2534987	WORD	n/a	wordpools/wordpool_EN.txt	CHIEF	7	21	[0, 0, 0]	n/a	FR1	2	R1122E
2538.362	2.4	2537538	WORD	n/a	wordpools/wordpool_EN.txt	EEL	8	21	[0, 0, 0]	n/a	FR1	2	R1122E
2540.762	2.384	2539938	WORD	n/a	wordpools/wordpool_EN.txt	GOAT	9	21	[0, 0, 0]	n/a	FR1	2	R1122E
2543.146	2.601	2542322	WORD	n/a	wordpools/wordpool_EN.txt	SKY	10	21	[0, 0, 0]	n/a	FR1	2	R1122E
2545.747	2.517	2544922	WORD	n/a	wordpools/wordpool_EN.txt	DUCK	11	21	[0, 0, 0]	n/a	FR1	2	R1122E
2548.264	1.616	2547439	WORD	n/a	wordpools/wordpool_EN.txt	SWORD	12	21	[0, 0, 0]	n/a	FR1	2	R1122E
2549.88	0.001	2549055	DISTRACT_START	n/a	n/a	n/a	-999	21	[0, 0, 0]	n/a	FR1	2	R1122E
2549.881	0.016	2549056	START	n/a	n/a	n/a	-999	21	[-999, -999, -999]	n/a	FR1	2	R1122E
2549.897	2.9	2549072	PROB	2.9	n/a	n/a	-999	21	[4, 6, 1]	11	FR1	2	R1122E
2552.797	2.785	2551972	PROB	2.785	n/a	n/a	-999	21	[6, 5, 5]	16	FR1	2	R1122E
2555.582	2.884	2554757	PROB	2.884	n/a	n/a	-999	21	[9, 6, 6]	21	FR1	2	R1122E
2558.466	3.617	2557640	PROB	3.617	n/a	n/a	-999	21	[6, 3, 9]	18	FR1	2	R1122E
2562.083	2.866	2561257	PROB	2.866	n/a	n/a	-999	21	[7, 9, 5]	21	FR1	2	R1122E
2564.949	3.252	2564123	PROB	3.252	n/a	n/a	-999	21	[9, 8, 6]	23	FR1	2	R1122E
2568.201	3.589	2567375	PROB	3.589	n/a	n/a	-999	21	[9, 8, 8]	25	FR1	2	R1122E
2571.79	0.01	2570964	STOP	n/a	n/a	n/a	-999	21	[-999, -999, -999]	n/a	FR1	2	R1122E
2571.8	1.218	2570974	DISTRACT_END	n/a	n/a	n/a	-999	21	[0, 0, 0]	n/a	FR1	2	R1122E
2573.018	1.903	2572192	REC_START	n/a	n/a	n/a	-999	21	[0, 0, 0]	n/a	FR1	2	R1122E
2574.921	1.05	2574094	REC_WORD	1.05	n/a	HILL	-999	21	[0, 0, 0]	n/a	FR1	2	R1122E
2575.971	1.382	2575144	REC_WORD	1.382	n/a	GATE	-999	21	[0, 0, 0]	n/a	FR1	2	R1122E
2577.353	1.642	2576526	REC_WORD	1.642	n/a	MULE	-999	21	[0, 0, 0]	n/a	FR1	2	R1122E
2578.995	1.512	2578168	REC_WORD	1.512	n/a	GOAT	-999	21	[0, 0, 0]	n/a	FR1	2	R1122E
2580.507	1.542	2579680	REC_WORD	1.542	n/a	DOG	-999	21	[0, 0, 0]	n/a	FR1	2	R1122E
2582.049	3.556	2581222	REC_WORD	3.556	n/a	CHIEF	-999	21	[0, 0, 0]	n/a	FR1	2	R1122E
2585.605	2.059	2584778	REC_WORD	2.059	n/a	GEESE	-999	21	[0, 0, 0]	n/a	FR1	2	R1122E
2587.664	15.364	2586837	REC_WORD	15.364	n/a	DUCK	-999	21	[0, 0, 0]	n/a	FR1	2	R1122E
2603.028	9.531	2602199	REC_END	n/a	n/a	n/a	-999	21	[0, 0, 0]	n/a	FR1	2	R1122E
2612.559	0.0	2611730	TRIAL	n/a	n/a	n/a	-999	22	[0, 0, 0]	n/a	FR1	2	R1122E
2612.559	10.428	2611730	COUNTDOWN_START	n/a	n/a	n/a	-999	22	[0, 0, 0]	n/a	FR1	2	R1122E
2622.987	0.006	2622157	COUNTDOWN_END	n/a	n/a	n/a	-999	22	[0, 0, 0]	n/a	FR1	2	R1122E
2622.993	2.485	2622163	ORIENT	n/a	n/a	n/a	-999	22	[0, 0, 0]	n/a	FR1	2	R1122E
2625.478	2.432	2624648	WORD	n/a	wordpools/wordpool_EN.txt	JUDGE	1	22	[0, 0, 0]	n/a	FR1	2	R1122E
2627.91	2.602	2627080	WORD	n/a	wordpools/wordpool_EN.txt	KEY	2	22	[0, 0, 0]	n/a	FR1	2	R1122E
2630.512	2.449	2629682	WORD	n/a	wordpools/wordpool_EN.txt	BOY	3	22	[0, 0, 0]	n/a	FR1	2	R1122E
2632.961	2.552	2632130	WORD	n/a	wordpools/wordpool_EN.txt	DESK	4	22	[0, 0, 0]	n/a	FR1	2	R1122E
2635.513	2.433	2634682	WORD	n/a	wordpools/wordpool_EN.txt	CASH	5	22	[0, 0, 0]	n/a	FR1	2	R1122E
2637.946	2.634	2637115	WORD	n/a	wordpools/wordpool_EN.txt	FLAG	6	22	[0, 0, 0]	n/a	FR1	2	R1122E
2640.58	2.617	2639749	WORD	n/a	wordpools/wordpool_EN.txt	BADGE	7	22	[0, 0, 0]	n/a	FR1	2	R1122E
2643.197	2.6	2642366	WORD	n/a	wordpools/wordpool_EN.txt	ROOM	8	22	[0, 0, 0]	n/a	FR1	2	R1122E
2645.797	2.585	2644966	WORD	n/a	wordpools/wordpool_EN.txt	CAR	9	22	[0, 0, 0]	n/a	FR1	2	R1122E
2648.382	2.449	2647550	WORD	n/a	wordpools/wordpool_EN.txt	SIGN	10	22	[0, 0, 0]	n/a	FR1	2	R1122E
2650.831	2.468	2649999	WORD	n/a	wordpools/wordpool_EN.txt	ARK	11	22	[0, 0, 0]	n/a	FR1	2	R1122E
2653.299	1.616	2652467	WORD	n/a	wordpools/wordpool_EN.txt	PIE	12	22	[0, 0, 0]	n/a	FR1	2	R1122E
2654.915	0.001	2654083	DISTRACT_START	n/a	n/a	n/a	-999	22	[0, 0, 0]	n/a	FR1	2	R1122E
2654.916	0.016	2654084	START	n/a	n/a	n/a	-999	22	[-999, -999, -999]	n/a	FR1	2	R1122E
2654.932	3.401	2654100	PROB	3.401	n/a	n/a	-999	22	[6, 5, 4]	15	FR1	2	R1122E
2658.333	3.034	2657501	PROB	3.034	n/a	n/a	-999	22	[5, 4, 7]	16	FR1	2	R1122E
2661.367	2.4	2660535	PROB	2.4	n/a	n/a	-999	22	[3, 1, 7]	11	FR1	2	R1122E
2663.767	3.033	2662934	PROB	3.033	n/a	n/a	-999	22	[8, 6, 5]	19	FR1	2	R1122E
2666.8	2.802	2665967	PROB	2.802	n/a	n/a	-999	22	[8, 4, 5]	17	FR1	2	R1122E
2669.602	2.867	2668769	PROB	2.867	n/a	n/a	-999	22	[1, 8, 9]	18	FR1	2	R1122E
2672.469	2.609	2671636	PROB	2.609	n/a	n/a	-999	22	[1, 6, 7]	14	FR1	2	R1122E
2675.078	0.008	2674245	STOP	n/a	n/a	n/a	-999	22	[-999, -999, -999]	n/a	FR1	2	R1122E
2675.086	1.101	2674253	DISTRACT_END	n/a	n/a	n/a	-999	22	[0, 0, 0]	n/a	FR1	2	R1122E
2676.187	1.9	2675354	REC_START	n/a	n/a	n/a	-999	22	[0, 0, 0]	n/a	FR1	2	R1122E
2678.087	2.053	2677253	REC_WORD	2.053	n/a	JUDGE	-999	22	[0, 0, 0]	n/a	FR1	2	R1122E
2680.14	2.035	2679306	REC_WORD	2.035	n/a	KEY	-999	22	[0, 0, 0]	n/a	FR1	2	R1122E
2682.175	2.183	2681341	REC_WORD	2.183	n/a	BOY	-999	22	[0, 0, 0]	n/a	FR1	2	R1122E
2684.358	1.712	2683524	REC_WORD	1.712	n/a	ROOM	-999	22	[0, 0, 0]	n/a	FR1	2	R1122E
2686.07	2.081	2685236	REC_WORD	2.081	n/a	SIGN	-999	22	[0, 0, 0]	n/a	FR1	2	R1122E
2688.151	2.029	2687317	REC_WORD	2.029	n/a	FLAG	-999	22	[0, 0, 0]	n/a	FR1	2	R1122E
2690.18	1.795	2689346	REC_WORD	1.795	n/a	CAKE	-999	22	[0, 0, 0]	n/a	FR1	2	R1122E
2691.975	2.317	2691140	REC_WORD	2.317	n/a	CAR	-999	22	[0, 0, 0]	n/a	FR1	2	R1122E
2694.292	11.905	2693457	REC_WORD	11.905	n/a	DESK	-999	22	[0, 0, 0]	n/a	FR1	2	R1122E
2706.197	2.495	2705362	REC_END	n/a	n/a	n/a	-999	22	[0, 0, 0]	n/a	FR1	2	R1122E
2708.692	0.001	2707856	COUNTDOWN_START	n/a	n/a	n/a	-999	23	[0, 0, 0]	n/a	FR1	2	R1122E
2708.693	10.427	2707857	TRIAL	n/a	n/a	n/a	-999	23	[0, 0, 0]	n/a	FR1	2	R1122E
2719.12	0.007	2718284	COUNTDOWN_END	n/a	n/a	n/a	-999	23	[0, 0, 0]	n/a	FR1	2	R1122E
2719.127	2.401	2718291	ORIENT	n/a	n/a	n/a	-999	23	[0, 0, 0]	n/a	FR1	2	R1122E
2721.528	2.466	2720692	WORD	n/a	wordpools/wordpool_EN.txt	DOOR	1	23	[0, 0, 0]	n/a	FR1	2	R1122E
2723.994	2.401	2723157	WORD	n/a	wordpools/wordpool_EN.txt	SMILE	2	23	[0, 0, 0]	n/a	FR1	2	R1122E
2726.395	2.55	2725558	WORD	n/a	wordpools/wordpool_EN.txt	CLOCK	3	23	[0, 0, 0]	n/a	FR1	2	R1122E
2728.945	2.485	2728108	WORD	n/a	wordpools/wordpool_EN.txt	OAR	4	23	[0, 0, 0]	n/a	FR1	2	R1122E
2731.43	2.599	2730593	WORD	n/a	wordpools/wordpool_EN.txt	LAMP	5	23	[0, 0, 0]	n/a	FR1	2	R1122E
2734.029	2.468	2733192	WORD	n/a	wordpools/wordpool_EN.txt	STOVE	6	23	[0, 0, 0]	n/a	FR1	2	R1122E
2736.497	2.399	2735660	WORD	n/a	wordpools/wordpool_EN.txt	FLOOR	7	23	[0, 0, 0]	n/a	FR1	2	R1122E
2738.896	2.452	2738058	WORD	n/a	wordpools/wordpool_EN.txt	PEN	8	23	[0, 0, 0]	n/a	FR1	2	R1122E
2741.348	2.449	2740510	WORD	n/a	wordpools/wordpool_EN.txt	STICK	9	23	[0, 0, 0]	n/a	FR1	2	R1122E
2743.797	2.602	2742959	WORD	n/a	wordpools/wordpool_EN.txt	BOOT	10	23	[0, 0, 0]	n/a	FR1	2	R1122E
2746.399	2.533	2745561	WORD	n/a	wordpools/wordpool_EN.txt	DIME	11	23	[0, 0, 0]	n/a	FR1	2	R1122E
2748.932	1.618	2748094	WORD	n/a	wordpools/wordpool_EN.txt	ARM	12	23	[0, 0, 0]	n/a	FR1	2	R1122E
2750.55	0.0	2749712	DISTRACT_START	n/a	n/a	n/a	-999	23	[0, 0, 0]	n/a	FR1	2	R1122E
2750.55	0.016	2749712	START	n/a	n/a	n/a	-999	23	[-999, -999, -999]	n/a	FR1	2	R1122E
2750.566	3.101	2749728	PROB	3.101	n/a	n/a	-999	23	[3, 9, 5]	17	FR1	2	R1122E
2753.667	2.6	2752828	PROB	2.6	n/a	n/a	-999	23	[7, 2, 2]	11	FR1	2	R1122E
2756.267	2.917	2755428	PROB	2.917	n/a	n/a	-999	23	[9, 5, 1]	15	FR1	2	R1122E
2759.184	2.167	2758345	PROB	2.167	n/a	n/a	-999	23	[2, 2, 3]	7	FR1	2	R1122E
2761.351	2.701	2760512	PROB	2.701	n/a	n/a	-999	23	[9, 3, 1]	13	FR1	2	R1122E
2764.052	3.034	2763213	PROB	3.034	n/a	n/a	-999	23	[4, 7, 3]	14	FR1	2	R1122E
2767.086	2.634	2766246	PROB	2.634	n/a	n/a	-999	23	[7, 5, 5]	17	FR1	2	R1122E
2769.72	2.792	2768880	PROB	2.792	n/a	n/a	-999	23	[7, 8, 9]	24	FR1	2	R1122E
2772.512	0.008	2771672	STOP	n/a	n/a	n/a	-999	23	[-999, -999, -999]	n/a	FR1	2	R1122E
2772.52	1.084	2771680	DISTRACT_END	n/a	n/a	n/a	-999	23	[0, 0, 0]	n/a	FR1	2	R1122E
2773.604	1.679	2772764	REC_START	n/a	n/a	n/a	-999	23	[0, 0, 0]	n/a	FR1	2	R1122E
2775.283	1.365	2774443	REC_WORD	1.365	n/a	DOOR	-999	23	[0, 0, 0]	n/a	FR1	2	R1122E
2776.648	1.877	2775808	REC_WORD	1.877	n/a	SMILE	-999	23	[0, 0, 0]	n/a	FR1	2	R1122E
2778.525	2.499	2777685	REC_WORD	2.499	n/a	ARM	-999	23	[0, 0, 0]	n/a	FR1	2	R1122E
2781.024	2.222	2780184	REC_WORD	2.222	n/a	FLOOR	-999	23	[0, 0, 0]	n/a	FR1	2	R1122E
2783.246	2.389	2782405	REC_WORD	2.389	n/a	OAR	-999	23	[0, 0, 0]	n/a	FR1	2	R1122E
2785.635	2.034	2784794	REC_WORD	2.034	n/a	LAMP	-999	23	[0, 0, 0]	n/a	FR1	2	R1122E
2787.669	2.263	2786828	REC_WORD	2.263	n/a	STICK	-999	23	[0, 0, 0]	n/a	FR1	2	R1122E
2789.932	3.416	2789091	REC_WORD	3.416	n/a	BOOT	-999	23	[0, 0, 0]	n/a	FR1	2	R1122E
2793.348	10.267	2792507	REC_WORD	10.267	n/a	PEN	-999	23	[0, 0, 0]	n/a	FR1	2	R1122E
2803.615	4.761	2802773	REC_END	n/a	n/a	n/a	-999	23	[0, 0, 0]	n/a	FR1	2	R1122E
2808.376	0.001	2807534	COUNTDOWN_START	n/a	n/a	n/a	-999	24	[0, 0, 0]	n/a	FR1	2	R1122E
2808.377	10.427	2807535	TRIAL	n/a	n/a	n/a	-999	24	[0, 0, 0]	n/a	FR1	2	R1122E
2818.804	0.006	2817961	COUNTDOWN_END	n/a	n/a	n/a	-999	24	[0, 0, 0]	n/a	FR1	2	R1122E
2818.81	2.402	2817967	ORIENT	n/a	n/a	n/a	-999	24	[0, 0, 0]	n/a	FR1	2	R1122E
2821.212	2.583	2820369	WORD	n/a	wordpools/wordpool_EN.txt	PHONE	1	24	[0, 0, 0]	n/a	FR1	2	R1122E
2823.795	2.401	2822952	WORD	n/a	wordpools/wordpool_EN.txt	GRAPE	2	24	[0, 0, 0]	n/a	FR1	2	R1122E
2826.196	2.434	2825352	WORD	n/a	wordpools/wordpool_EN.txt	KITE	3	24	[0, 0, 0]	n/a	FR1	2	R1122E
2828.63	2.617	2827786	WORD	n/a	wordpools/wordpool_EN.txt	CONE	4	24	[0, 0, 0]	n/a	FR1	2	R1122E
2831.247	2.533	2830403	WORD	n/a	wordpools/wordpool_EN.txt	LOCK	5	24	[0, 0, 0]	n/a	FR1	2	R1122E
2833.78	2.585	2832936	WORD	n/a	wordpools/wordpool_EN.txt	MILK	6	24	[0, 0, 0]	n/a	FR1	2	R1122E
2836.365	2.516	2835521	WORD	n/a	wordpools/wordpool_EN.txt	MOUSE	7	24	[0, 0, 0]	n/a	FR1	2	R1122E
2838.881	2.618	2838037	WORD	n/a	wordpools/wordpool_EN.txt	CROWN	8	24	[0, 0, 0]	n/a	FR1	2	R1122E
2841.499	2.433	2840654	WORD	n/a	wordpools/wordpool_EN.txt	PEAR	9	24	[0, 0, 0]	n/a	FR1	2	R1122E
2843.932	2.451	2843087	WORD	n/a	wordpools/wordpool_EN.txt	SNAKE	10	24	[0, 0, 0]	n/a	FR1	2	R1122E
2846.383	2.399	2845538	WORD	n/a	wordpools/wordpool_EN.txt	SHOE	11	24	[0, 0, 0]	n/a	FR1	2	R1122E
2848.782	1.601	2847937	WORD	n/a	wordpools/wordpool_EN.txt	PEARL	12	24	[0, 0, 0]	n/a	FR1	2	R1122E
2850.383	0.001	2849538	DISTRACT_START	n/a	n/a	n/a	-999	24	[0, 0, 0]	n/a	FR1	2	R1122E
2850.384	0.016	2849539	START	n/a	n/a	n/a	-999	24	[-999, -999, -999]	n/a	FR1	2	R1122E
2850.4	3.068	2849555	PROB	3.068	n/a	n/a	-999	24	[5, 4, 4]	13	FR1	2	R1122E
2853.468	3.1	2852623	PROB	3.1	n/a	n/a	-999	24	[5, 7, 6]	18	FR1	2	R1122E
2856.568	3.001	2855722	PROB	3.001	n/a	n/a	-999	24	[4, 5, 8]	17	FR1	2	R1122E
2859.569	3.349	2858723	PROB	3.349	n/a	n/a	-999	24	[7, 4, 3]	14	FR1	2	R1122E
2862.918	2.518	2862072	PROB	2.518	n/a	n/a	-999	24	[6, 6, 1]	13	FR1	2	R1122E
2865.436	2.901	2864590	PROB	2.901	n/a	n/a	-999	24	[2, 7, 6]	15	FR1	2	R1122E
2868.337	2.776	2867491	PROB	2.776	n/a	n/a	-999	24	[9, 9, 3]	21	FR1	2	R1122E
2871.113	0.008	2870266	STOP	n/a	n/a	n/a	-999	24	[-999, -999, -999]	n/a	FR1	2	R1122E
2871.121	1.053	2870274	DISTRACT_END	n/a	n/a	n/a	-999	24	[0, 0, 0]	n/a	FR1	2	R1122E
2872.174	2.484	2871327	REC_START	n/a	n/a	n/a	-999	24	[0, 0, 0]	n/a	FR1	2	R1122E
2874.658	2.012	2873811	REC_WORD	2.012	n/a	KITE	-999	24	[0, 0, 0]	n/a	FR1	2	R1122E
2876.67	2.428	2875823	REC_WORD	2.428	n/a	CONE	-999	24	[0, 0, 0]	n/a	FR1	2	R1122E
2879.098	1.769	2878251	REC_WORD	1.769	n/a	MOUSE	-999	24	[0, 0, 0]	n/a	FR1	2	R1122E
2880.867	1.781	2880020	REC_WORD	1.781	n/a	CROWN	-999	24	[0, 0, 0]	n/a	FR1	2	R1122E
2882.648	1.774	2881801	REC_WORD	1.774	n/a	GRAPE	-999	24	[0, 0, 0]	n/a	FR1	2	R1122E
2884.422	6.017	2883575	REC_WORD	6.017	n/a	PEAR	-999	24	[0, 0, 0]	n/a	FR1	2	R1122E
2890.439	11.743	2889591	REC_WORD	11.743	n/a	SNAKE	-999	24	[0, 0, 0]	n/a	FR1	2	R1122E
2902.182	4.761	2901333	REC_END	n/a	n/a	n/a	-999	24	[0, 0, 0]	n/a	FR1	2	R1122E
2906.943	0.0	2906094	TRIAL	n/a	n/a	n/a	-999	25	[0, 0, 0]	n/a	FR1	2	R1122E
2906.943	10.428	2906094	COUNTDOWN_START	n/a	n/a	n/a	-999	25	[0, 0, 0]	n/a	FR1	2	R1122E
2917.371	0.008	2916521	COUNTDOWN_END	n/a	n/a	n/a	-999	25	[0, 0, 0]	n/a	FR1	2	R1122E
2917.379	2.499	2916529	ORIENT	n/a	n/a	n/a	-999	25	[0, 0, 0]	n/a	FR1	2	R1122E
2919.878	2.385	2919028	WORD	n/a	wordpools/wordpool_EN.txt	FLAME	1	25	[0, 0, 0]	n/a	FR1	2	R1122E
2922.263	2.549	2921413	WORD	n/a	wordpools/wordpool_EN.txt	SKI	2	25	[0, 0, 0]	n/a	FR1	2	R1122E
2924.812	2.602	2923962	WORD	n/a	wordpools/wordpool_EN.txt	PIN	3	25	[0, 0, 0]	n/a	FR1	2	R1122E
2927.414	2.416	2926564	WORD	n/a	wordpools/wordpool_EN.txt	APE	4	25	[0, 0, 0]	n/a	FR1	2	R1122E
2929.83	2.451	2928979	WORD	n/a	wordpools/wordpool_EN.txt	WAVE	5	25	[0, 0, 0]	n/a	FR1	2	R1122E
2932.281	2.55	2931430	WORD	n/a	wordpools/wordpool_EN.txt	BROOM	6	25	[0, 0, 0]	n/a	FR1	2	R1122E
2934.831	2.535	2933980	WORD	n/a	wordpools/wordpool_EN.txt	FUR	7	25	[0, 0, 0]	n/a	FR1	2	R1122E
2937.366	2.549	2936515	WORD	n/a	wordpools/wordpool_EN.txt	SNOW	8	25	[0, 0, 0]	n/a	FR1	2	R1122E
2939.915	2.485	2939064	WORD	n/a	wordpools/wordpool_EN.txt	FOG	9	25	[0, 0, 0]	n/a	FR1	2	R1122E
2942.4	2.549	2941549	WORD	n/a	wordpools/wordpool_EN.txt	BEACH	10	25	[0, 0, 0]	n/a	FR1	2	R1122E
2944.949	2.435	2944097	WORD	n/a	wordpools/wordpool_EN.txt	DRUM	11	25	[0, 0, 0]	n/a	FR1	2	R1122E
2947.384	1.616	2946532	WORD	n/a	wordpools/wordpool_EN.txt	LIP	12	25	[0, 0, 0]	n/a	FR1	2	R1122E
2949.0	0.001	2948148	DISTRACT_START	n/a	n/a	n/a	-999	25	[0, 0, 0]	n/a	FR1	2	R1122E
2949.001	0.016	2948149	START	n/a	n/a	n/a	-999	25	[-999, -999, -999]	n/a	FR1	2	R1122E
2949.017	3.85	2948165	PROB	3.85	n/a	n/a	-999	25	[2, 6, 4]	12	FR1	2	R1122E
2952.867	3.067	2952015	PROB	3.067	n/a	n/a	-999	25	[9, 6, 5]	20	FR1	2	R1122E
2955.934	2.369	2955082	PROB	2.369	n/a	n/a	-999	25	[1, 4, 7]	12	FR1	2	R1122E
2958.303	2.233	2957451	PROB	2.233	n/a	n/a	-999	25	[5, 2, 2]	9	FR1	2	R1122E
2960.536	3.018	2959683	PROB	3.018	n/a	n/a	-999	25	[7, 2, 5]	14	FR1	2	R1122E
2963.554	3.8	2962701	PROB	3.8	n/a	n/a	-999	25	[8, 9, 9]	26	FR1	2	R1122E
2967.354	2.448	2966501	PROB	2.448	n/a	n/a	-999	25	[4, 6, 2]	12	FR1	2	R1122E
2969.802	0.018	2968949	STOP	n/a	n/a	n/a	-999	25	[-999, -999, -999]	n/a	FR1	2	R1122E
2969.82	1.068	2968967	DISTRACT_END	n/a	n/a	n/a	-999	25	[0, 0, 0]	n/a	FR1	2	R1122E
2970.888	1.78	2970035	REC_START	n/a	n/a	n/a	-999	25	[0, 0, 0]	n/a	FR1	2	R1122E
2972.668	1.508	2971815	REC_WORD	1.508	n/a	BEACH	-999	25	[0, 0, 0]	n/a	FR1	2	R1122E
2974.176	1.718	2973323	REC_WORD	1.718	n/a	FOG	-999	25	[0, 0, 0]	n/a	FR1	2	R1122E
2975.894	1.853	2975040	REC_WORD	1.853	n/a	DRUM	-999	25	[0, 0, 0]	n/a	FR1	2	R1122E
2977.747	1.532	2976893	REC_WORD	1.532	n/a	SKI	-999	25	[0, 0, 0]	n/a	FR1	2	R1122E
2979.279	6.028	2978425	REC_WORD	6.028	n/a	SNOW	-999	25	[0, 0, 0]	n/a	FR1	2	R1122E
2985.307	4.046	2984453	REC_WORD	4.046	n/a	PIN	-999	25	[0, 0, 0]	n/a	FR1	2	R1122E
2989.353	11.554	2988498	REC_WORD	11.554	n/a	BROOM	-999	25	[0, 0, 0]	n/a	FR1	2	R1122E
3000.907	237.861	3000052	REC_END	n/a	n/a	n/a	-999	25	[0, 0, 0]	n/a	FR1	2	R1122E
3238.768	0.0	3237897	SESS_END	n/a	n/a	n/a	-999	25	[0, 0, 0]	n/a	FR1	2	R1122E
