onset	duration	sample	trial_type	response_time	stim_file	item_name	serialpos	list	test	answer	experiment	session	subject
0.0	0.0	107628	INSTRUCT_START	n/a	n/a	n/a	-999	-999	[0, 0, 0]	n/a	FR1	0	R1241J
0.0	11.183	107628	INSTRUCT_END	n/a	n/a	n/a	-999	-999	[0, 0, 0]	n/a	FR1	0	R1241J
11.183	0.0	118811	SESS_START	n/a	n/a	n/a	-999	-999	[0, 0, 0]	n/a	FR1	0	R1241J
11.183	328.357	118811	MIC_TEST	n/a	n/a	n/a	-999	-999	[0, 0, 0]	n/a	FR1	0	R1241J
339.54	2.788	447168	PRACTICE_TRIAL	n/a	n/a	n/a	-999	-1	[0, 0, 0]	n/a	FR1	0	R1241J
342.328	10.428	449956	COUNTDOWN_START	n/a	n/a	n/a	-999	-1	[0, 0, 0]	n/a	FR1	0	R1241J
352.756	0.007	460384	COUNTDOWN_END	n/a	n/a	n/a	-999	-1	[0, 0, 0]	n/a	FR1	0	R1241J
352.763	1.616	460391	PRACTICE_ORIENT	n/a	n/a	n/a	-999	-1	[0, 0, 0]	n/a	FR1	0	R1241J
354.379	2.2	462007	PRACTICE_ORIENT_OFF	n/a	n/a	n/a	-999	-1	[0, 0, 0]	n/a	FR1	0	R1241J
356.579	1.618	464207	PRACTICE_WORD	n/a	n/a	FLOOD	1	-1	[0, 0, 0]	n/a	FR1	0	R1241J
358.197	0.783	465825	PRACTICE_WORD_OFF	n/a	n/a	FLOOD	-999	-1	[0, 0, 0]	n/a	FR1	0	R1241J
358.98	1.616	466608	PRACTICE_WORD	n/a	n/a	CAMEL	2	-1	[0, 0, 0]	n/a	FR1	0	R1241J
360.596	0.851	468224	PRACTICE_WORD_OFF	n/a	n/a	CAMEL	-999	-1	[0, 0, 0]	n/a	FR1	0	R1241J
361.447	1.617	469075	PRACTICE_WORD	n/a	n/a	WAGON	3	-1	[0, 0, 0]	n/a	FR1	0	R1241J
363.064	0.9	470692	PRACTICE_WORD_OFF	n/a	n/a	WAGON	-999	-1	[0, 0, 0]	n/a	FR1	0	R1241J
363.964	1.616	471592	PRACTICE_WORD	n/a	n/a	CHEST	4	-1	[0, 0, 0]	n/a	FR1	0	R1241J
365.58	0.768	473208	PRACTICE_WORD_OFF	n/a	n/a	CHEST	-999	-1	[0, 0, 0]	n/a	FR1	0	R1241J
366.348	1.617	473976	PRACTICE_WORD	n/a	n/a	WATCH	5	-1	[0, 0, 0]	n/a	FR1	0	R1241J
367.965	0.95	475593	PRACTICE_WORD_OFF	n/a	n/a	WATCH	-999	-1	[0, 0, 0]	n/a	FR1	0	R1241J
368.915	1.617	476543	PRACTICE_WORD	n/a	n/a	BEAM	6	-1	[0, 0, 0]	n/a	FR1	0	R1241J
370.532	0.766	478160	PRACTICE_WORD_OFF	n/a	n/a	BEAM	-999	-1	[0, 0, 0]	n/a	FR1	0	R1241J
371.298	1.617	478926	PRACTICE_WORD	n/a	n/a	IRON	7	-1	[0, 0, 0]	n/a	FR1	0	R1241J
372.915	0.9	480543	PRACTICE_WORD_OFF	n/a	n/a	IRON	-999	-1	[0, 0, 0]	n/a	FR1	0	R1241J
373.815	1.617	481443	PRACTICE_WORD	n/a	n/a	COTTON	8	-1	[0, 0, 0]	n/a	FR1	0	R1241J
375.432	0.917	483060	PRACTICE_WORD_OFF	n/a	n/a	COTTON	-999	-1	[0, 0, 0]	n/a	FR1	0	R1241J
376.349	1.617	483977	PRACTICE_WORD	n/a	n/a	RHINO	9	-1	[0, 0, 0]	n/a	FR1	0	R1241J
377.966	0.817	485594	PRACTICE_WORD_OFF	n/a	n/a	RHINO	-999	-1	[0, 0, 0]	n/a	FR1	0	R1241J
378.783	1.617	486411	PRACTICE_WORD	n/a	n/a	ATTIC	10	-1	[0, 0, 0]	n/a	FR1	0	R1241J
380.4	0.833	488028	PRACTICE_WORD_OFF	n/a	n/a	ATTIC	-999	-1	[0, 0, 0]	n/a	FR1	0	R1241J
381.233	1.617	488861	PRACTICE_WORD	n/a	n/a	RING	11	-1	[0, 0, 0]	n/a	FR1	0	R1241J
382.85	0.799	490478	PRACTICE_WORD_OFF	n/a	n/a	RING	-999	-1	[0, 0, 0]	n/a	FR1	0	R1241J
383.649	1.618	491277	PRACTICE_WORD	n/a	n/a	TONGUE	12	-1	[0, 0, 0]	n/a	FR1	0	R1241J
385.267	0.0	492895	PRACTICE_WORD_OFF	n/a	n/a	TONGUE	-999	-1	[0, 0, 0]	n/a	FR1	0	R1241J
385.267	0.0	492895	DISTRACT_START	n/a	n/a	n/a	-999	-1	[0, 0, 0]	n/a	FR1	0	R1241J
385.267	0.016	492895	START	n/a	n/a	n/a	-999	-1	[-999, -999, -999]	n/a	FR1	0	R1241J
385.283	16.636	492911	PROB	16.636	n/a	n/a	-999	-1	[8, 7, 5]	20	FR1	0	R1241J
401.919	4.269	509547	PROB	4.269	n/a	n/a	-999	-1	[2, 1, 8]	11	FR1	0	R1241J
406.188	0.015	513816	STOP	n/a	n/a	n/a	-999	-1	[-999, -999, -999]	n/a	FR1	0	R1241J
406.203	0.583	513831	DISTRACT_END	n/a	n/a	n/a	-999	-1	[0, 0, 0]	n/a	FR1	0	R1241J
406.786	0.517	514414	RETRIEVAL_ORIENT	n/a	n/a	n/a	-999	-1	[0, 0, 0]	n/a	FR1	0	R1241J
407.303	30.014	514931	PRACTICE_REC_START	n/a	n/a	n/a	-999	-1	[0, 0, 0]	n/a	FR1	0	R1241J
437.317	31.944	544945	PRACTICE_REC_END	n/a	n/a	n/a	-999	-1	[0, 0, 0]	n/a	FR1	0	R1241J
469.261	0.5	576889	TRIAL	n/a	n/a	n/a	-999	1	[0, 0, 0]	n/a	FR1	0	R1241J
469.761	10.428	577389	COUNTDOWN_START	n/a	n/a	n/a	-999	1	[0, 0, 0]	n/a	FR1	0	R1241J
480.189	0.006	587817	COUNTDOWN_END	n/a	n/a	n/a	-999	1	[0, 0, 0]	n/a	FR1	0	R1241J
480.195	1.618	587823	ORIENT	n/a	n/a	n/a	-999	1	[0, 0, 0]	n/a	FR1	0	R1241J
481.813	1.983	589441	ORIENT_OFF	n/a	n/a	n/a	-999	1	[0, 0, 0]	n/a	FR1	0	R1241J
483.796	1.617	591424	WORD	n/a	wordpools/wordpool_EN.txt	KEY	1	1	[0, 0, 0]	n/a	FR1	0	R1241J
485.413	1.0	593041	WORD_OFF	n/a	n/a	KEY	1	1	[0, 0, 0]	n/a	FR1	0	R1241J
486.413	1.617	594041	WORD	n/a	wordpools/wordpool_EN.txt	CAR	2	1	[0, 0, 0]	n/a	FR1	0	R1241J
488.03	0.8	595658	WORD_OFF	n/a	n/a	CAR	2	1	[0, 0, 0]	n/a	FR1	0	R1241J
488.83	1.617	596458	WORD	n/a	wordpools/wordpool_EN.txt	WING	3	1	[0, 0, 0]	n/a	FR1	0	R1241J
490.447	0.8	598075	WORD_OFF	n/a	n/a	WING	3	1	[0, 0, 0]	n/a	FR1	0	R1241J
491.247	1.617	598875	WORD	n/a	wordpools/wordpool_EN.txt	SHEET	4	1	[0, 0, 0]	n/a	FR1	0	R1241J
492.864	0.816	600492	WORD_OFF	n/a	n/a	SHEET	4	1	[0, 0, 0]	n/a	FR1	0	R1241J
493.68	1.618	601308	WORD	n/a	wordpools/wordpool_EN.txt	EEL	5	1	[0, 0, 0]	n/a	FR1	0	R1241J
495.298	0.966	602926	WORD_OFF	n/a	n/a	EEL	5	1	[0, 0, 0]	n/a	FR1	0	R1241J
496.264	1.617	603892	WORD	n/a	wordpools/wordpool_EN.txt	PLANE	6	1	[0, 0, 0]	n/a	FR1	0	R1241J
497.881	0.984	605509	WORD_OFF	n/a	n/a	PLANE	6	1	[0, 0, 0]	n/a	FR1	0	R1241J
498.865	1.617	606493	WORD	n/a	wordpools/wordpool_EN.txt	BANK	7	1	[0, 0, 0]	n/a	FR1	0	R1241J
500.482	0.85	608110	WORD_OFF	n/a	n/a	BANK	7	1	[0, 0, 0]	n/a	FR1	0	R1241J
501.332	1.617	608960	WORD	n/a	wordpools/wordpool_EN.txt	MAIL	8	1	[0, 0, 0]	n/a	FR1	0	R1241J
502.949	1.0	610577	WORD_OFF	n/a	n/a	MAIL	8	1	[0, 0, 0]	n/a	FR1	0	R1241J
503.949	1.616	611577	WORD	n/a	wordpools/wordpool_EN.txt	RAIN	9	1	[0, 0, 0]	n/a	FR1	0	R1241J
505.565	0.967	613194	WORD_OFF	n/a	n/a	RAIN	9	1	[0, 0, 0]	n/a	FR1	0	R1241J
506.532	1.617	614161	WORD	n/a	wordpools/wordpool_EN.txt	COIN	10	1	[0, 0, 0]	n/a	FR1	0	R1241J
508.149	0.884	615778	WORD_OFF	n/a	n/a	COIN	10	1	[0, 0, 0]	n/a	FR1	0	R1241J
509.033	1.616	616662	WORD	n/a	wordpools/wordpool_EN.txt	BOOK	11	1	[0, 0, 0]	n/a	FR1	0	R1241J
510.649	0.851	618278	WORD_OFF	n/a	n/a	BOOK	11	1	[0, 0, 0]	n/a	FR1	0	R1241J
511.5	1.617	619129	WORD	n/a	wordpools/wordpool_EN.txt	CASH	12	1	[0, 0, 0]	n/a	FR1	0	R1241J
513.117	0.0	620746	WORD_OFF	n/a	n/a	CASH	12	1	[0, 0, 0]	n/a	FR1	0	R1241J
513.117	0.0	620746	DISTRACT_START	n/a	n/a	n/a	-999	1	[0, 0, 0]	n/a	FR1	0	R1241J
513.117	0.016	620746	START	n/a	n/a	n/a	-999	1	[-999, -999, -999]	n/a	FR1	0	R1241J
513.133	6.951	620762	PROB	6.951	n/a	n/a	-999	1	[4, 1, 3]	8	FR1	0	R1241J
520.084	4.867	627713	PROB	4.867	n/a	n/a	-999	1	[5, 2, 7]	14	FR1	0	R1241J
524.951	5.667	632580	PROB	5.667	n/a	n/a	-999	1	[5, 7, 6]	18	FR1	0	R1241J
530.618	4.013	638247	PROB	4.013	n/a	n/a	-999	1	[2, 4, 9]	15	FR1	0	R1241J
534.631	0.02	642260	STOP	n/a	n/a	n/a	-999	1	[-999, -999, -999]	n/a	FR1	0	R1241J
534.651	0.618	642280	DISTRACT_END	n/a	n/a	n/a	-999	1	[0, 0, 0]	n/a	FR1	0	R1241J
535.269	0.518	642898	RETRIEVAL_ORIENT	n/a	n/a	n/a	-999	1	[0, 0, 0]	n/a	FR1	0	R1241J
535.787	13.305	643416	REC_START	n/a	n/a	n/a	-999	1	[0, 0, 0]	n/a	FR1	0	R1241J
549.092	3.237	656721	REC_WORD_VV	3.237	n/a	<>	-999	1	[0, 0, 0]	n/a	FR1	0	R1241J
552.329	4.256	659958	REC_WORD	4.256	n/a	FILE	-999	1	[0, 0, 0]	n/a	FR1	0	R1241J
556.585	5.202	664214	REC_WORD	5.202	n/a	CHAIR	-999	1	[0, 0, 0]	n/a	FR1	0	R1241J
561.787	4.012	669416	REC_WORD_VV	4.012	n/a	<>	-999	1	[0, 0, 0]	n/a	FR1	0	R1241J
565.799	17.61	673428	REC_END	n/a	n/a	n/a	-999	1	[0, 0, 0]	n/a	FR1	0	R1241J
583.409	0.5	691038	TRIAL	n/a	n/a	n/a	-999	2	[0, 0, 0]	n/a	FR1	0	R1241J
583.909	10.428	691538	COUNTDOWN_START	n/a	n/a	n/a	-999	2	[0, 0, 0]	n/a	FR1	0	R1241J
594.337	0.006	701966	COUNTDOWN_END	n/a	n/a	n/a	-999	2	[0, 0, 0]	n/a	FR1	0	R1241J
594.343	1.617	701972	ORIENT	n/a	n/a	n/a	-999	2	[0, 0, 0]	n/a	FR1	0	R1241J
595.96	1.934	703589	ORIENT_OFF	n/a	n/a	n/a	-999	2	[0, 0, 0]	n/a	FR1	0	R1241J
597.894	1.617	705523	WORD	n/a	wordpools/wordpool_EN.txt	FLEA	1	2	[0, 0, 0]	n/a	FR1	0	R1241J
599.511	0.833	707140	WORD_OFF	n/a	n/a	FLEA	1	2	[0, 0, 0]	n/a	FR1	0	R1241J
600.344	1.617	707973	WORD	n/a	wordpools/wordpool_EN.txt	SNAKE	2	2	[0, 0, 0]	n/a	FR1	0	R1241J
601.961	0.917	709590	WORD_OFF	n/a	n/a	SNAKE	2	2	[0, 0, 0]	n/a	FR1	0	R1241J
602.878	1.617	710507	WORD	n/a	wordpools/wordpool_EN.txt	COW	3	2	[0, 0, 0]	n/a	FR1	0	R1241J
604.495	0.95	712124	WORD_OFF	n/a	n/a	COW	3	2	[0, 0, 0]	n/a	FR1	0	R1241J
605.445	1.617	713074	WORD	n/a	wordpools/wordpool_EN.txt	FOX	4	2	[0, 0, 0]	n/a	FR1	0	R1241J
607.062	0.983	714691	WORD_OFF	n/a	n/a	FOX	4	2	[0, 0, 0]	n/a	FR1	0	R1241J
608.045	1.616	715674	WORD	n/a	wordpools/wordpool_EN.txt	PEN	5	2	[0, 0, 0]	n/a	FR1	0	R1241J
609.661	0.934	717290	WORD_OFF	n/a	n/a	PEN	5	2	[0, 0, 0]	n/a	FR1	0	R1241J
610.595	1.618	718224	WORD	n/a	wordpools/wordpool_EN.txt	KITE	6	2	[0, 0, 0]	n/a	FR1	0	R1241J
612.213	0.85	719842	WORD_OFF	n/a	n/a	KITE	6	2	[0, 0, 0]	n/a	FR1	0	R1241J
613.063	1.615	720692	WORD	n/a	wordpools/wordpool_EN.txt	DEER	7	2	[0, 0, 0]	n/a	FR1	0	R1241J
614.678	0.984	722307	WORD_OFF	n/a	n/a	DEER	7	2	[0, 0, 0]	n/a	FR1	0	R1241J
615.662	1.618	723291	WORD	n/a	wordpools/wordpool_EN.txt	SOCK	8	2	[0, 0, 0]	n/a	FR1	0	R1241J
617.28	0.967	724909	WORD_OFF	n/a	n/a	SOCK	8	2	[0, 0, 0]	n/a	FR1	0	R1241J
618.247	1.617	725876	WORD	n/a	wordpools/wordpool_EN.txt	BIRD	9	2	[0, 0, 0]	n/a	FR1	0	R1241J
619.864	0.883	727493	WORD_OFF	n/a	n/a	BIRD	9	2	[0, 0, 0]	n/a	FR1	0	R1241J
620.747	1.617	728376	WORD	n/a	wordpools/wordpool_EN.txt	PIG	10	2	[0, 0, 0]	n/a	FR1	0	R1241J
622.364	0.983	729993	WORD_OFF	n/a	n/a	PIG	10	2	[0, 0, 0]	n/a	FR1	0	R1241J
623.347	1.617	730976	WORD	n/a	wordpools/wordpool_EN.txt	BEAR	11	2	[0, 0, 0]	n/a	FR1	0	R1241J
624.964	0.8	732593	WORD_OFF	n/a	n/a	BEAR	11	2	[0, 0, 0]	n/a	FR1	0	R1241J
625.764	1.617	733393	WORD	n/a	wordpools/wordpool_EN.txt	HAT	12	2	[0, 0, 0]	n/a	FR1	0	R1241J
627.381	0.0	735010	WORD_OFF	n/a	n/a	HAT	12	2	[0, 0, 0]	n/a	FR1	0	R1241J
627.381	0.001	735010	DISTRACT_START	n/a	n/a	n/a	-999	2	[0, 0, 0]	n/a	FR1	0	R1241J
627.382	0.016	735011	START	n/a	n/a	n/a	-999	2	[-999, -999, -999]	n/a	FR1	0	R1241J
627.398	6.667	735027	PROB	6.667	n/a	n/a	-999	2	[9, 5, 1]	15	FR1	0	R1241J
634.065	4.184	741694	PROB	4.184	n/a	n/a	-999	2	[7, 4, 6]	17	FR1	0	R1241J
638.249	3.483	745878	PROB	3.483	n/a	n/a	-999	2	[6, 4, 6]	16	FR1	0	R1241J
641.732	4.352	749361	PROB	4.352	n/a	n/a	-999	2	[9, 7, 4]	20	FR1	0	R1241J
646.084	3.573	753713	PROB	3.573	n/a	n/a	-999	2	[1, 9, 6]	16	FR1	0	R1241J
649.657	0.009	757286	STOP	n/a	n/a	n/a	-999	2	[-999, -999, -999]	n/a	FR1	0	R1241J
649.666	0.568	757295	DISTRACT_END	n/a	n/a	n/a	-999	2	[0, 0, 0]	n/a	FR1	0	R1241J
650.234	0.518	757863	RETRIEVAL_ORIENT	n/a	n/a	n/a	-999	2	[0, 0, 0]	n/a	FR1	0	R1241J
650.752	8.95	758381	REC_START	n/a	n/a	n/a	-999	2	[0, 0, 0]	n/a	FR1	0	R1241J
659.702	1.54	767331	REC_WORD_VV	1.54	n/a	<>	-999	2	[0, 0, 0]	n/a	FR1	0	R1241J
661.242	2.413	768871	REC_WORD	2.413	n/a	FLEA	-999	2	[0, 0, 0]	n/a	FR1	0	R1241J
663.655	1.033	771284	REC_WORD	1.033	n/a	COW	-999	2	[0, 0, 0]	n/a	FR1	0	R1241J
664.688	3.104	772317	REC_WORD	3.104	n/a	CHAIR	-999	2	[0, 0, 0]	n/a	FR1	0	R1241J
667.792	4.947	775421	REC_WORD	4.947	n/a	HOUSE	-999	2	[0, 0, 0]	n/a	FR1	0	R1241J
672.739	6.633	780368	REC_WORD_VV	6.633	n/a	<>	-999	2	[0, 0, 0]	n/a	FR1	0	R1241J
679.372	1.0	787001	REC_WORD_VV	1.0	n/a	<>	-999	2	[0, 0, 0]	n/a	FR1	0	R1241J
680.372	0.391	788001	REC_WORD_VV	0.391	n/a	<>	-999	2	[0, 0, 0]	n/a	FR1	0	R1241J
680.763	6.676	788392	REC_END	n/a	n/a	n/a	-999	2	[0, 0, 0]	n/a	FR1	0	R1241J
687.439	0.5	795068	TRIAL	n/a	n/a	n/a	-999	3	[0, 0, 0]	n/a	FR1	0	R1241J
687.939	10.428	795568	COUNTDOWN_START	n/a	n/a	n/a	-999	3	[0, 0, 0]	n/a	FR1	0	R1241J
698.367	0.007	805996	COUNTDOWN_END	n/a	n/a	n/a	-999	3	[0, 0, 0]	n/a	FR1	0	R1241J
698.374	1.616	806003	ORIENT	n/a	n/a	n/a	-999	3	[0, 0, 0]	n/a	FR1	0	R1241J
699.99	2.384	807619	ORIENT_OFF	n/a	n/a	n/a	-999	3	[0, 0, 0]	n/a	FR1	0	R1241J
702.374	1.617	810003	WORD	n/a	wordpools/wordpool_EN.txt	DRESS	1	3	[0, 0, 0]	n/a	FR1	0	R1241J
703.991	0.833	811620	WORD_OFF	n/a	n/a	DRESS	1	3	[0, 0, 0]	n/a	FR1	0	R1241J
704.824	1.617	812453	WORD	n/a	wordpools/wordpool_EN.txt	PANTS	2	3	[0, 0, 0]	n/a	FR1	0	R1241J
706.441	0.85	814070	WORD_OFF	n/a	n/a	PANTS	2	3	[0, 0, 0]	n/a	FR1	0	R1241J
707.291	1.617	814920	WORD	n/a	wordpools/wordpool_EN.txt	DOOR	3	3	[0, 0, 0]	n/a	FR1	0	R1241J
708.908	0.884	816537	WORD_OFF	n/a	n/a	DOOR	3	3	[0, 0, 0]	n/a	FR1	0	R1241J
709.792	1.617	817421	WORD	n/a	wordpools/wordpool_EN.txt	FACE	4	3	[0, 0, 0]	n/a	FR1	0	R1241J
711.409	0.816	819038	WORD_OFF	n/a	n/a	FACE	4	3	[0, 0, 0]	n/a	FR1	0	R1241J
712.225	1.617	819854	WORD	n/a	wordpools/wordpool_EN.txt	BENCH	5	3	[0, 0, 0]	n/a	FR1	0	R1241J
713.842	0.799	821471	WORD_OFF	n/a	n/a	BENCH	5	3	[0, 0, 0]	n/a	FR1	0	R1241J
714.641	1.618	822270	WORD	n/a	wordpools/wordpool_EN.txt	PEA	6	3	[0, 0, 0]	n/a	FR1	0	R1241J
716.259	0.967	823888	WORD_OFF	n/a	n/a	PEA	6	3	[0, 0, 0]	n/a	FR1	0	R1241J
717.226	1.617	824855	WORD	n/a	wordpools/wordpool_EN.txt	CHEEK	7	3	[0, 0, 0]	n/a	FR1	0	R1241J
718.843	0.849	826472	WORD_OFF	n/a	n/a	CHEEK	7	3	[0, 0, 0]	n/a	FR1	0	R1241J
719.692	1.618	827321	WORD	n/a	wordpools/wordpool_EN.txt	SUIT	8	3	[0, 0, 0]	n/a	FR1	0	R1241J
721.31	0.833	828939	WORD_OFF	n/a	n/a	SUIT	8	3	[0, 0, 0]	n/a	FR1	0	R1241J
722.143	1.617	829772	WORD	n/a	wordpools/wordpool_EN.txt	MAT	9	3	[0, 0, 0]	n/a	FR1	0	R1241J
723.76	0.816	831389	WORD_OFF	n/a	n/a	MAT	9	3	[0, 0, 0]	n/a	FR1	0	R1241J
724.576	1.618	832205	WORD	n/a	wordpools/wordpool_EN.txt	TRAY	10	3	[0, 0, 0]	n/a	FR1	0	R1241J
726.194	1.0	833823	WORD_OFF	n/a	n/a	TRAY	10	3	[0, 0, 0]	n/a	FR1	0	R1241J
727.194	1.617	834823	WORD	n/a	wordpools/wordpool_EN.txt	PALM	11	3	[0, 0, 0]	n/a	FR1	0	R1241J
728.811	0.782	836440	WORD_OFF	n/a	n/a	PALM	11	3	[0, 0, 0]	n/a	FR1	0	R1241J
729.593	1.602	837222	WORD	n/a	wordpools/wordpool_EN.txt	SHOE	12	3	[0, 0, 0]	n/a	FR1	0	R1241J
731.195	0.0	838824	WORD_OFF	n/a	n/a	SHOE	12	3	[0, 0, 0]	n/a	FR1	0	R1241J
731.195	0.0	838824	DISTRACT_START	n/a	n/a	n/a	-999	3	[0, 0, 0]	n/a	FR1	0	R1241J
731.195	0.016	838824	START	n/a	n/a	n/a	-999	3	[-999, -999, -999]	n/a	FR1	0	R1241J
731.211	5.334	838840	PROB	5.334	n/a	n/a	-999	3	[4, 9, 1]	14	FR1	0	R1241J
736.545	3.617	844174	PROB	3.617	n/a	n/a	-999	3	[1, 9, 4]	14	FR1	0	R1241J
740.162	4.483	847791	PROB	4.483	n/a	n/a	-999	3	[6, 8, 9]	23	FR1	0	R1241J
744.645	3.951	852274	PROB	3.951	n/a	n/a	-999	3	[6, 2, 9]	17	FR1	0	R1241J
748.596	3.722	856225	PROB	3.722	n/a	n/a	-999	3	[8, 5, 2]	15	FR1	0	R1241J
752.318	0.013	859947	STOP	n/a	n/a	n/a	-999	3	[-999, -999, -999]	n/a	FR1	0	R1241J
752.331	0.7	859960	DISTRACT_END	n/a	n/a	n/a	-999	3	[0, 0, 0]	n/a	FR1	0	R1241J
753.031	0.517	860660	RETRIEVAL_ORIENT	n/a	n/a	n/a	-999	3	[0, 0, 0]	n/a	FR1	0	R1241J
753.548	3.29	861177	REC_START	n/a	n/a	n/a	-999	3	[0, 0, 0]	n/a	FR1	0	R1241J
756.838	1.623	864467	REC_WORD_VV	1.623	n/a	<>	-999	3	[0, 0, 0]	n/a	FR1	0	R1241J
758.461	0.578	866090	REC_WORD	0.578	n/a	CHAIR	-999	3	[0, 0, 0]	n/a	FR1	0	R1241J
759.039	1.988	866668	REC_WORD	1.988	n/a	FLEA	-999	3	[0, 0, 0]	n/a	FR1	0	R1241J
761.027	3.256	868656	REC_WORD	3.256	n/a	COAT	-999	3	[0, 0, 0]	n/a	FR1	0	R1241J
764.283	2.177	871912	REC_WORD	2.177	n/a	FLOWER	-999	3	[0, 0, 0]	n/a	FR1	0	R1241J
766.46	2.243	874089	REC_WORD	2.243	n/a	BIRD	-999	3	[0, 0, 0]	n/a	FR1	0	R1241J
768.703	3.718	876332	REC_WORD	3.718	n/a	PIGEON	-999	3	[0, 0, 0]	n/a	FR1	0	R1241J
772.421	10.322	880050	REC_WORD_VV	10.322	n/a	<>	-999	3	[0, 0, 0]	n/a	FR1	0	R1241J
782.743	0.818	890372	REC_WORD_VV	0.818	n/a	<>	-999	3	[0, 0, 0]	n/a	FR1	0	R1241J
783.561	6.107	891190	REC_END	n/a	n/a	n/a	-999	3	[0, 0, 0]	n/a	FR1	0	R1241J
789.668	0.5	897297	TRIAL	n/a	n/a	n/a	-999	4	[0, 0, 0]	n/a	FR1	0	R1241J
790.168	10.428	897797	COUNTDOWN_START	n/a	n/a	n/a	-999	4	[0, 0, 0]	n/a	FR1	0	R1241J
800.596	0.006	908225	COUNTDOWN_END	n/a	n/a	n/a	-999	4	[0, 0, 0]	n/a	FR1	0	R1241J
800.602	1.618	908231	ORIENT	n/a	n/a	n/a	-999	4	[0, 0, 0]	n/a	FR1	0	R1241J
802.22	2.317	909849	ORIENT_OFF	n/a	n/a	n/a	-999	4	[0, 0, 0]	n/a	FR1	0	R1241J
804.537	1.617	912166	WORD	n/a	wordpools/wordpool_EN.txt	LAMP	1	4	[0, 0, 0]	n/a	FR1	0	R1241J
806.154	1.0	913783	WORD_OFF	n/a	n/a	LAMP	1	4	[0, 0, 0]	n/a	FR1	0	R1241J
807.154	1.617	914783	WORD	n/a	wordpools/wordpool_EN.txt	VINE	2	4	[0, 0, 0]	n/a	FR1	0	R1241J
808.771	0.816	916400	WORD_OFF	n/a	n/a	VINE	2	4	[0, 0, 0]	n/a	FR1	0	R1241J
809.587	1.618	917216	WORD	n/a	wordpools/wordpool_EN.txt	RUG	3	4	[0, 0, 0]	n/a	FR1	0	R1241J
811.205	0.917	918834	WORD_OFF	n/a	n/a	RUG	3	4	[0, 0, 0]	n/a	FR1	0	R1241J
812.122	1.616	919751	WORD	n/a	wordpools/wordpool_EN.txt	JAR	4	4	[0, 0, 0]	n/a	FR1	0	R1241J
813.738	0.8	921367	WORD_OFF	n/a	n/a	JAR	4	4	[0, 0, 0]	n/a	FR1	0	R1241J
814.538	1.617	922167	WORD	n/a	wordpools/wordpool_EN.txt	SOAP	5	4	[0, 0, 0]	n/a	FR1	0	R1241J
816.155	0.867	923784	WORD_OFF	n/a	n/a	SOAP	5	4	[0, 0, 0]	n/a	FR1	0	R1241J
817.022	1.616	924651	WORD	n/a	wordpools/wordpool_EN.txt	APE	6	4	[0, 0, 0]	n/a	FR1	0	R1241J
818.638	0.983	926267	WORD_OFF	n/a	n/a	APE	6	4	[0, 0, 0]	n/a	FR1	0	R1241J
819.621	1.618	927250	WORD	n/a	wordpools/wordpool_EN.txt	SOUP	7	4	[0, 0, 0]	n/a	FR1	0	R1241J
821.239	0.784	928868	WORD_OFF	n/a	n/a	SOUP	7	4	[0, 0, 0]	n/a	FR1	0	R1241J
822.023	1.615	929652	WORD	n/a	wordpools/wordpool_EN.txt	FLAME	8	4	[0, 0, 0]	n/a	FR1	0	R1241J
823.638	1.0	931267	WORD_OFF	n/a	n/a	FLAME	8	4	[0, 0, 0]	n/a	FR1	0	R1241J
824.638	1.619	932267	WORD	n/a	wordpools/wordpool_EN.txt	BROOM	9	4	[0, 0, 0]	n/a	FR1	0	R1241J
826.257	0.916	933886	WORD_OFF	n/a	n/a	BROOM	9	4	[0, 0, 0]	n/a	FR1	0	R1241J
827.173	1.617	934802	WORD	n/a	wordpools/wordpool_EN.txt	BEAN	10	4	[0, 0, 0]	n/a	FR1	0	R1241J
828.79	0.816	936419	WORD_OFF	n/a	n/a	BEAN	10	4	[0, 0, 0]	n/a	FR1	0	R1241J
829.606	1.618	937235	WORD	n/a	wordpools/wordpool_EN.txt	TENT	11	4	[0, 0, 0]	n/a	FR1	0	R1241J
831.224	1.0	938853	WORD_OFF	n/a	n/a	TENT	11	4	[0, 0, 0]	n/a	FR1	0	R1241J
832.224	1.617	939853	WORD	n/a	wordpools/wordpool_EN.txt	WALL	12	4	[0, 0, 0]	n/a	FR1	0	R1241J
833.841	0.0	941470	WORD_OFF	n/a	n/a	WALL	12	4	[0, 0, 0]	n/a	FR1	0	R1241J
833.841	0.0	941470	DISTRACT_START	n/a	n/a	n/a	-999	4	[0, 0, 0]	n/a	FR1	0	R1241J
833.841	0.016	941470	START	n/a	n/a	n/a	-999	4	[-999, -999, -999]	n/a	FR1	0	R1241J
833.857	4.8	941486	PROB	4.8	n/a	n/a	-999	4	[5, 4, 7]	16	FR1	0	R1241J
838.657	3.652	946286	PROB	3.652	n/a	n/a	-999	4	[3, 5, 7]	15	FR1	0	R1241J
842.309	3.382	949938	PROB	3.382	n/a	n/a	-999	4	[1, 9, 7]	17	FR1	0	R1241J
845.691	4.352	953320	PROB	4.352	n/a	n/a	-999	4	[6, 1, 7]	14	FR1	0	R1241J
850.043	4.502	957672	PROB	4.502	n/a	n/a	-999	4	[8, 7, 8]	23	FR1	0	R1241J
854.545	0.015	962174	STOP	n/a	n/a	n/a	-999	4	[-999, -999, -999]	n/a	FR1	0	R1241J
854.56	0.683	962189	DISTRACT_END	n/a	n/a	n/a	-999	4	[0, 0, 0]	n/a	FR1	0	R1241J
855.243	0.518	962872	RETRIEVAL_ORIENT	n/a	n/a	n/a	-999	4	[0, 0, 0]	n/a	FR1	0	R1241J
855.761	2.201	963390	REC_START	n/a	n/a	n/a	-999	4	[0, 0, 0]	n/a	FR1	0	R1241J
857.962	1.841	965591	REC_WORD_VV	1.841	n/a	<>	-999	4	[0, 0, 0]	n/a	FR1	0	R1241J
859.803	0.478	967432	REC_WORD	0.478	n/a	LAMP	-999	4	[0, 0, 0]	n/a	FR1	0	R1241J
860.281	0.985	967910	REC_WORD	0.985	n/a	VINE	-999	4	[0, 0, 0]	n/a	FR1	0	R1241J
861.266	4.206	968895	REC_WORD	4.206	n/a	CAR	-999	4	[0, 0, 0]	n/a	FR1	0	R1241J
865.472	20.301	973101	REC_WORD	20.301	n/a	SUIT	-999	4	[0, 0, 0]	n/a	FR1	0	R1241J
885.773	6.559	993402	REC_END	n/a	n/a	n/a	-999	4	[0, 0, 0]	n/a	FR1	0	R1241J
892.332	0.5	999961	TRIAL	n/a	n/a	n/a	-999	5	[0, 0, 0]	n/a	FR1	0	R1241J
892.832	10.428	1000461	COUNTDOWN_START	n/a	n/a	n/a	-999	5	[0, 0, 0]	n/a	FR1	0	R1241J
903.26	0.006	1010889	COUNTDOWN_END	n/a	n/a	n/a	-999	5	[0, 0, 0]	n/a	FR1	0	R1241J
903.266	1.617	1010895	ORIENT	n/a	n/a	n/a	-999	5	[0, 0, 0]	n/a	FR1	0	R1241J
904.883	1.917	1012512	ORIENT_OFF	n/a	n/a	n/a	-999	5	[0, 0, 0]	n/a	FR1	0	R1241J
906.8	1.617	1014429	WORD	n/a	wordpools/wordpool_EN.txt	WOOD	1	5	[0, 0, 0]	n/a	FR1	0	R1241J
908.417	0.834	1016046	WORD_OFF	n/a	n/a	WOOD	1	5	[0, 0, 0]	n/a	FR1	0	R1241J
909.251	1.617	1016880	WORD	n/a	wordpools/wordpool_EN.txt	BATH	2	5	[0, 0, 0]	n/a	FR1	0	R1241J
910.868	1.0	1018497	WORD_OFF	n/a	n/a	BATH	2	5	[0, 0, 0]	n/a	FR1	0	R1241J
911.868	1.616	1019497	WORD	n/a	wordpools/wordpool_EN.txt	SIGN	3	5	[0, 0, 0]	n/a	FR1	0	R1241J
913.484	0.8	1021113	WORD_OFF	n/a	n/a	SIGN	3	5	[0, 0, 0]	n/a	FR1	0	R1241J
914.284	1.617	1021913	WORD	n/a	wordpools/wordpool_EN.txt	GRASS	4	5	[0, 0, 0]	n/a	FR1	0	R1241J
915.901	0.833	1023530	WORD_OFF	n/a	n/a	GRASS	4	5	[0, 0, 0]	n/a	FR1	0	R1241J
916.734	1.618	1024363	WORD	n/a	wordpools/wordpool_EN.txt	FENCE	5	5	[0, 0, 0]	n/a	FR1	0	R1241J
918.352	0.866	1025981	WORD_OFF	n/a	n/a	FENCE	5	5	[0, 0, 0]	n/a	FR1	0	R1241J
919.218	1.617	1026847	WORD	n/a	wordpools/wordpool_EN.txt	HORN	6	5	[0, 0, 0]	n/a	FR1	0	R1241J
920.835	0.951	1028464	WORD_OFF	n/a	n/a	HORN	6	5	[0, 0, 0]	n/a	FR1	0	R1241J
921.786	1.616	1029415	WORD	n/a	wordpools/wordpool_EN.txt	STEAK	7	5	[0, 0, 0]	n/a	FR1	0	R1241J
923.402	0.817	1031031	WORD_OFF	n/a	n/a	STEAK	7	5	[0, 0, 0]	n/a	FR1	0	R1241J
924.219	1.617	1031848	WORD	n/a	wordpools/wordpool_EN.txt	CLOTH	8	5	[0, 0, 0]	n/a	FR1	0	R1241J
925.836	0.816	1033465	WORD_OFF	n/a	n/a	CLOTH	8	5	[0, 0, 0]	n/a	FR1	0	R1241J
926.652	1.618	1034281	WORD	n/a	wordpools/wordpool_EN.txt	PEACH	9	5	[0, 0, 0]	n/a	FR1	0	R1241J
928.27	0.783	1035899	WORD_OFF	n/a	n/a	PEACH	9	5	[0, 0, 0]	n/a	FR1	0	R1241J
929.053	1.616	1036682	WORD	n/a	wordpools/wordpool_EN.txt	MOOSE	10	5	[0, 0, 0]	n/a	FR1	0	R1241J
930.669	0.885	1038298	WORD_OFF	n/a	n/a	MOOSE	10	5	[0, 0, 0]	n/a	FR1	0	R1241J
931.554	1.616	1039183	WORD	n/a	wordpools/wordpool_EN.txt	OAK	11	5	[0, 0, 0]	n/a	FR1	0	R1241J
933.17	0.833	1040799	WORD_OFF	n/a	n/a	OAK	11	5	[0, 0, 0]	n/a	FR1	0	R1241J
934.003	1.616	1041632	WORD	n/a	wordpools/wordpool_EN.txt	PIE	12	5	[0, 0, 0]	n/a	FR1	0	R1241J
935.619	0.0	1043248	WORD_OFF	n/a	n/a	PIE	12	5	[0, 0, 0]	n/a	FR1	0	R1241J
935.619	0.001	1043248	DISTRACT_START	n/a	n/a	n/a	-999	5	[0, 0, 0]	n/a	FR1	0	R1241J
935.62	0.016	1043249	START	n/a	n/a	n/a	-999	5	[-999, -999, -999]	n/a	FR1	0	R1241J
935.636	4.419	1043265	PROB	4.419	n/a	n/a	-999	5	[1, 2, 4]	7	FR1	0	R1241J
940.055	4.649	1047684	PROB	4.649	n/a	n/a	-999	5	[4, 1, 7]	12	FR1	0	R1241J
944.704	2.9	1052333	PROB	2.9	n/a	n/a	-999	5	[2, 1, 3]	6	FR1	0	R1241J
947.604	3.935	1055233	PROB	3.935	n/a	n/a	-999	5	[4, 8, 9]	21	FR1	0	R1241J
951.539	2.367	1059168	PROB	2.367	n/a	n/a	-999	5	[3, 7, 1]	11	FR1	0	R1241J
953.906	3.827	1061535	PROB	3.827	n/a	n/a	-999	5	[9, 8, 8]	25	FR1	0	R1241J
957.733	0.007	1065362	STOP	n/a	n/a	n/a	-999	5	[-999, -999, -999]	n/a	FR1	0	R1241J
957.74	0.667	1065369	DISTRACT_END	n/a	n/a	n/a	-999	5	[0, 0, 0]	n/a	FR1	0	R1241J
958.407	0.517	1066036	RETRIEVAL_ORIENT	n/a	n/a	n/a	-999	5	[0, 0, 0]	n/a	FR1	0	R1241J
958.924	4.361	1066553	REC_START	n/a	n/a	n/a	-999	5	[0, 0, 0]	n/a	FR1	0	R1241J
963.285	0.933	1070914	REC_WORD_VV	0.933	n/a	<>	-999	5	[0, 0, 0]	n/a	FR1	0	R1241J
964.218	0.586	1071847	REC_WORD	0.586	n/a	FLEA	-999	5	[0, 0, 0]	n/a	FR1	0	R1241J
964.804	1.573	1072433	REC_WORD	1.573	n/a	VINE	-999	5	[0, 0, 0]	n/a	FR1	0	R1241J
966.377	1.454	1074006	REC_WORD	1.454	n/a	GROUP	-999	5	[0, 0, 0]	n/a	FR1	0	R1241J
967.831	2.09	1075460	REC_WORD	2.09	n/a	CAR	-999	5	[0, 0, 0]	n/a	FR1	0	R1241J
969.921	19.017	1077550	REC_WORD	19.017	n/a	BIRD	-999	5	[0, 0, 0]	n/a	FR1	0	R1241J
988.938	6.49	1096567	REC_END	n/a	n/a	n/a	-999	5	[0, 0, 0]	n/a	FR1	0	R1241J
995.428	0.5	1103057	TRIAL	n/a	n/a	n/a	-999	6	[0, 0, 0]	n/a	FR1	0	R1241J
995.928	10.428	1103557	COUNTDOWN_START	n/a	n/a	n/a	-999	6	[0, 0, 0]	n/a	FR1	0	R1241J
1006.356	0.007	1113985	COUNTDOWN_END	n/a	n/a	n/a	-999	6	[0, 0, 0]	n/a	FR1	0	R1241J
1006.363	1.617	1113992	ORIENT	n/a	n/a	n/a	-999	6	[0, 0, 0]	n/a	FR1	0	R1241J
1007.98	2.333	1115609	ORIENT_OFF	n/a	n/a	n/a	-999	6	[0, 0, 0]	n/a	FR1	0	R1241J
1010.313	1.617	1117942	WORD	n/a	wordpools/wordpool_EN.txt	ICE	1	6	[0, 0, 0]	n/a	FR1	0	R1241J
1011.93	0.817	1119559	WORD_OFF	n/a	n/a	ICE	1	6	[0, 0, 0]	n/a	FR1	0	R1241J
1012.747	1.617	1120376	WORD	n/a	wordpools/wordpool_EN.txt	FLUTE	2	6	[0, 0, 0]	n/a	FR1	0	R1241J
1014.364	0.8	1121993	WORD_OFF	n/a	n/a	FLUTE	2	6	[0, 0, 0]	n/a	FR1	0	R1241J
1015.164	1.617	1122793	WORD	n/a	wordpools/wordpool_EN.txt	MAZE	3	6	[0, 0, 0]	n/a	FR1	0	R1241J
1016.781	0.983	1124410	WORD_OFF	n/a	n/a	MAZE	3	6	[0, 0, 0]	n/a	FR1	0	R1241J
1017.764	1.617	1125393	WORD	n/a	wordpools/wordpool_EN.txt	STEM	4	6	[0, 0, 0]	n/a	FR1	0	R1241J
1019.381	1.001	1127010	WORD_OFF	n/a	n/a	STEM	4	6	[0, 0, 0]	n/a	FR1	0	R1241J
1020.382	1.616	1128011	WORD	n/a	wordpools/wordpool_EN.txt	GRAPE	5	6	[0, 0, 0]	n/a	FR1	0	R1241J
1021.998	0.917	1129627	WORD_OFF	n/a	n/a	GRAPE	5	6	[0, 0, 0]	n/a	FR1	0	R1241J
1022.915	1.617	1130544	WORD	n/a	wordpools/wordpool_EN.txt	PEAR	6	6	[0, 0, 0]	n/a	FR1	0	R1241J
1024.532	1.017	1132161	WORD_OFF	n/a	n/a	PEAR	6	6	[0, 0, 0]	n/a	FR1	0	R1241J
1025.549	1.617	1133178	WORD	n/a	wordpools/wordpool_EN.txt	BRANCH	7	6	[0, 0, 0]	n/a	FR1	0	R1241J
1027.166	0.883	1134796	WORD_OFF	n/a	n/a	BRANCH	7	6	[0, 0, 0]	n/a	FR1	0	R1241J
1028.049	1.616	1135679	WORD	n/a	wordpools/wordpool_EN.txt	DOG	8	6	[0, 0, 0]	n/a	FR1	0	R1241J
1029.665	0.784	1137295	WORD_OFF	n/a	n/a	DOG	8	6	[0, 0, 0]	n/a	FR1	0	R1241J
1030.449	1.617	1138079	WORD	n/a	wordpools/wordpool_EN.txt	TOAD	9	6	[0, 0, 0]	n/a	FR1	0	R1241J
1032.066	0.801	1139696	WORD_OFF	n/a	n/a	TOAD	9	6	[0, 0, 0]	n/a	FR1	0	R1241J
1032.867	1.616	1140497	WORD	n/a	wordpools/wordpool_EN.txt	CONE	10	6	[0, 0, 0]	n/a	FR1	0	R1241J
1034.483	0.817	1142113	WORD_OFF	n/a	n/a	CONE	10	6	[0, 0, 0]	n/a	FR1	0	R1241J
1035.3	1.617	1142930	WORD	n/a	wordpools/wordpool_EN.txt	RAKE	11	6	[0, 0, 0]	n/a	FR1	0	R1241J
1036.917	0.983	1144547	WORD_OFF	n/a	n/a	RAKE	11	6	[0, 0, 0]	n/a	FR1	0	R1241J
1037.9	1.617	1145530	WORD	n/a	wordpools/wordpool_EN.txt	TRASH	12	6	[0, 0, 0]	n/a	FR1	0	R1241J
1039.517	0.0	1147147	WORD_OFF	n/a	n/a	TRASH	12	6	[0, 0, 0]	n/a	FR1	0	R1241J
1039.517	0.001	1147147	DISTRACT_START	n/a	n/a	n/a	-999	6	[0, 0, 0]	n/a	FR1	0	R1241J
1039.518	0.016	1147148	START	n/a	n/a	n/a	-999	6	[-999, -999, -999]	n/a	FR1	0	R1241J
1039.534	5.834	1147164	PROB	5.834	n/a	n/a	-999	6	[9, 5, 7]	21	FR1	0	R1241J
1045.368	4.501	1152998	PROB	4.501	n/a	n/a	-999	6	[5, 6, 1]	12	FR1	0	R1241J
1049.869	4.033	1157499	PROB	4.033	n/a	n/a	-999	6	[1, 3, 3]	7	FR1	0	R1241J
1053.902	5.368	1161532	PROB	5.368	n/a	n/a	-999	6	[7, 9, 4]	20	FR1	0	R1241J
1059.27	4.082	1166900	PROB	4.082	n/a	n/a	-999	6	[8, 4, 5]	17	FR1	0	R1241J
1063.352	0.018	1170982	STOP	n/a	n/a	n/a	-999	6	[-999, -999, -999]	n/a	FR1	0	R1241J
1063.37	0.583	1171000	DISTRACT_END	n/a	n/a	n/a	-999	6	[0, 0, 0]	n/a	FR1	0	R1241J
1063.953	0.518	1171583	RETRIEVAL_ORIENT	n/a	n/a	n/a	-999	6	[0, 0, 0]	n/a	FR1	0	R1241J
1064.471	2.404	1172101	REC_START	n/a	n/a	n/a	-999	6	[0, 0, 0]	n/a	FR1	0	R1241J
1066.875	0.594	1174505	REC_WORD	0.594	n/a	VINE	-999	6	[0, 0, 0]	n/a	FR1	0	R1241J
1067.469	2.591	1175099	REC_WORD	2.591	n/a	FLUTE	-999	6	[0, 0, 0]	n/a	FR1	0	R1241J
1070.06	1.817	1177690	REC_WORD	1.817	n/a	CAR	-999	6	[0, 0, 0]	n/a	FR1	0	R1241J
1071.877	22.607	1179507	REC_WORD	22.607	n/a	PLANE	-999	6	[0, 0, 0]	n/a	FR1	0	R1241J
1094.484	5.908	1202114	REC_END	n/a	n/a	n/a	-999	6	[0, 0, 0]	n/a	FR1	0	R1241J
1100.392	0.5	1208022	TRIAL	n/a	n/a	n/a	-999	7	[0, 0, 0]	n/a	FR1	0	R1241J
1100.892	10.428	1208522	COUNTDOWN_START	n/a	n/a	n/a	-999	7	[0, 0, 0]	n/a	FR1	0	R1241J
1111.32	0.007	1218950	COUNTDOWN_END	n/a	n/a	n/a	-999	7	[0, 0, 0]	n/a	FR1	0	R1241J
1111.327	1.616	1218957	ORIENT	n/a	n/a	n/a	-999	7	[0, 0, 0]	n/a	FR1	0	R1241J
1112.943	2.034	1220573	ORIENT_OFF	n/a	n/a	n/a	-999	7	[0, 0, 0]	n/a	FR1	0	R1241J
1114.977	1.616	1222607	WORD	n/a	wordpools/wordpool_EN.txt	GLASS	1	7	[0, 0, 0]	n/a	FR1	0	R1241J
1116.593	0.884	1224223	WORD_OFF	n/a	n/a	GLASS	1	7	[0, 0, 0]	n/a	FR1	0	R1241J
1117.477	1.617	1225107	WORD	n/a	wordpools/wordpool_EN.txt	FOOT	2	7	[0, 0, 0]	n/a	FR1	0	R1241J
1119.094	0.967	1226724	WORD_OFF	n/a	n/a	FOOT	2	7	[0, 0, 0]	n/a	FR1	0	R1241J
1120.061	1.616	1227691	WORD	n/a	wordpools/wordpool_EN.txt	STOOL	3	7	[0, 0, 0]	n/a	FR1	0	R1241J
1121.677	0.818	1229307	WORD_OFF	n/a	n/a	STOOL	3	7	[0, 0, 0]	n/a	FR1	0	R1241J
1122.495	1.616	1230125	WORD	n/a	wordpools/wordpool_EN.txt	ELF	4	7	[0, 0, 0]	n/a	FR1	0	R1241J
1124.111	1.0	1231741	WORD_OFF	n/a	n/a	ELF	4	7	[0, 0, 0]	n/a	FR1	0	R1241J
1125.111	1.616	1232741	WORD	n/a	wordpools/wordpool_EN.txt	TOAST	5	7	[0, 0, 0]	n/a	FR1	0	R1241J
1126.727	0.95	1234357	WORD_OFF	n/a	n/a	TOAST	5	7	[0, 0, 0]	n/a	FR1	0	R1241J
1127.677	1.618	1235307	WORD	n/a	wordpools/wordpool_EN.txt	CHAIR	6	7	[0, 0, 0]	n/a	FR1	0	R1241J
1129.295	1.001	1236925	WORD_OFF	n/a	n/a	CHAIR	6	7	[0, 0, 0]	n/a	FR1	0	R1241J
1130.296	1.617	1237926	WORD	n/a	wordpools/wordpool_EN.txt	LIP	7	7	[0, 0, 0]	n/a	FR1	0	R1241J
1131.913	0.85	1239543	WORD_OFF	n/a	n/a	LIP	7	7	[0, 0, 0]	n/a	FR1	0	R1241J
1132.763	1.616	1240393	WORD	n/a	wordpools/wordpool_EN.txt	PIN	8	7	[0, 0, 0]	n/a	FR1	0	R1241J
1134.379	0.917	1242009	WORD_OFF	n/a	n/a	PIN	8	7	[0, 0, 0]	n/a	FR1	0	R1241J
1135.296	1.617	1242926	WORD	n/a	wordpools/wordpool_EN.txt	PLATE	9	7	[0, 0, 0]	n/a	FR1	0	R1241J
1136.913	0.816	1244543	WORD_OFF	n/a	n/a	PLATE	9	7	[0, 0, 0]	n/a	FR1	0	R1241J
1137.729	1.618	1245359	WORD	n/a	wordpools/wordpool_EN.txt	FRUIT	10	7	[0, 0, 0]	n/a	FR1	0	R1241J
1139.347	0.85	1246977	WORD_OFF	n/a	n/a	FRUIT	10	7	[0, 0, 0]	n/a	FR1	0	R1241J
1140.197	1.617	1247827	WORD	n/a	wordpools/wordpool_EN.txt	CUP	11	7	[0, 0, 0]	n/a	FR1	0	R1241J
1141.814	0.782	1249444	WORD_OFF	n/a	n/a	CUP	11	7	[0, 0, 0]	n/a	FR1	0	R1241J
1142.596	1.618	1250226	WORD	n/a	wordpools/wordpool_EN.txt	CHIN	12	7	[0, 0, 0]	n/a	FR1	0	R1241J
1144.214	0.0	1251844	WORD_OFF	n/a	n/a	CHIN	12	7	[0, 0, 0]	n/a	FR1	0	R1241J
1144.214	0.001	1251844	DISTRACT_START	n/a	n/a	n/a	-999	7	[0, 0, 0]	n/a	FR1	0	R1241J
1144.215	0.015	1251845	START	n/a	n/a	n/a	-999	7	[-999, -999, -999]	n/a	FR1	0	R1241J
1144.23	4.301	1251860	PROB	4.301	n/a	n/a	-999	7	[1, 6, 3]	10	FR1	0	R1241J
1148.531	4.034	1256161	PROB	4.034	n/a	n/a	-999	7	[9, 2, 7]	18	FR1	0	R1241J
1152.565	2.95	1260195	PROB	2.95	n/a	n/a	-999	7	[5, 5, 7]	17	FR1	0	R1241J
1155.515	3.2	1263145	PROB	3.2	n/a	n/a	-999	7	[1, 8, 9]	18	FR1	0	R1241J
1158.715	3.385	1266345	PROB	3.385	n/a	n/a	-999	7	[9, 4, 5]	18	FR1	0	R1241J
1162.1	3.689	1269730	PROB	3.689	n/a	n/a	-999	7	[5, 4, 8]	17	FR1	0	R1241J
1165.789	0.011	1273419	STOP	n/a	n/a	n/a	-999	7	[-999, -999, -999]	n/a	FR1	0	R1241J
1165.8	0.617	1273430	DISTRACT_END	n/a	n/a	n/a	-999	7	[0, 0, 0]	n/a	FR1	0	R1241J
1166.417	0.517	1274047	RETRIEVAL_ORIENT	n/a	n/a	n/a	-999	7	[0, 0, 0]	n/a	FR1	0	R1241J
1166.934	3.969	1274564	REC_START	n/a	n/a	n/a	-999	7	[0, 0, 0]	n/a	FR1	0	R1241J
1170.903	0.976	1278533	REC_WORD	0.976	n/a	CLASS	-999	7	[0, 0, 0]	n/a	FR1	0	R1241J
1171.879	1.041	1279509	REC_WORD	1.041	n/a	FLUTE	-999	7	[0, 0, 0]	n/a	FR1	0	R1241J
1172.92	1.056	1280550	REC_WORD	1.056	n/a	AGE	-999	7	[0, 0, 0]	n/a	FR1	0	R1241J
1173.976	1.094	1281606	REC_WORD	1.094	n/a	ICE	-999	7	[0, 0, 0]	n/a	FR1	0	R1241J
1175.07	2.643	1282700	REC_WORD	2.643	n/a	PALM	-999	7	[0, 0, 0]	n/a	FR1	0	R1241J
1177.713	19.233	1285343	REC_WORD	19.233	n/a	CHAIR	-999	7	[0, 0, 0]	n/a	FR1	0	R1241J
1196.946	6.126	1304576	REC_END	n/a	n/a	n/a	-999	7	[0, 0, 0]	n/a	FR1	0	R1241J
1203.072	0.5	1310702	TRIAL	n/a	n/a	n/a	-999	8	[0, 0, 0]	n/a	FR1	0	R1241J
1203.572	10.428	1311202	COUNTDOWN_START	n/a	n/a	n/a	-999	8	[0, 0, 0]	n/a	FR1	0	R1241J
1214.0	0.006	1321630	COUNTDOWN_END	n/a	n/a	n/a	-999	8	[0, 0, 0]	n/a	FR1	0	R1241J
1214.006	1.616	1321636	ORIENT	n/a	n/a	n/a	-999	8	[0, 0, 0]	n/a	FR1	0	R1241J
1215.622	2.1	1323252	ORIENT_OFF	n/a	n/a	n/a	-999	8	[0, 0, 0]	n/a	FR1	0	R1241J
1217.722	1.618	1325352	WORD	n/a	wordpools/wordpool_EN.txt	ROCK	1	8	[0, 0, 0]	n/a	FR1	0	R1241J
1219.34	0.767	1326970	WORD_OFF	n/a	n/a	ROCK	1	8	[0, 0, 0]	n/a	FR1	0	R1241J
1220.107	1.616	1327737	WORD	n/a	wordpools/wordpool_EN.txt	SMOKE	2	8	[0, 0, 0]	n/a	FR1	0	R1241J
1221.723	0.967	1329353	WORD_OFF	n/a	n/a	SMOKE	2	8	[0, 0, 0]	n/a	FR1	0	R1241J
1222.69	1.617	1330320	WORD	n/a	wordpools/wordpool_EN.txt	SPEAR	3	8	[0, 0, 0]	n/a	FR1	0	R1241J
1224.307	0.767	1331937	WORD_OFF	n/a	n/a	SPEAR	3	8	[0, 0, 0]	n/a	FR1	0	R1241J
1225.074	1.616	1332704	WORD	n/a	wordpools/wordpool_EN.txt	JAIL	4	8	[0, 0, 0]	n/a	FR1	0	R1241J
1226.69	0.917	1334320	WORD_OFF	n/a	n/a	JAIL	4	8	[0, 0, 0]	n/a	FR1	0	R1241J
1227.607	1.601	1335237	WORD	n/a	wordpools/wordpool_EN.txt	FORT	5	8	[0, 0, 0]	n/a	FR1	0	R1241J
1229.208	0.917	1336838	WORD_OFF	n/a	n/a	FORT	5	8	[0, 0, 0]	n/a	FR1	0	R1241J
1230.125	1.617	1337755	WORD	n/a	wordpools/wordpool_EN.txt	SAIL	6	8	[0, 0, 0]	n/a	FR1	0	R1241J
1231.742	0.817	1339372	WORD_OFF	n/a	n/a	SAIL	6	8	[0, 0, 0]	n/a	FR1	0	R1241J
1232.559	1.616	1340189	WORD	n/a	wordpools/wordpool_EN.txt	STEAM	7	8	[0, 0, 0]	n/a	FR1	0	R1241J
1234.175	0.917	1341805	WORD_OFF	n/a	n/a	STEAM	7	8	[0, 0, 0]	n/a	FR1	0	R1241J
1235.092	1.616	1342722	WORD	n/a	wordpools/wordpool_EN.txt	CLIFF	8	8	[0, 0, 0]	n/a	FR1	0	R1241J
1236.708	0.934	1344338	WORD_OFF	n/a	n/a	CLIFF	8	8	[0, 0, 0]	n/a	FR1	0	R1241J
1237.642	1.617	1345272	WORD	n/a	wordpools/wordpool_EN.txt	JUDGE	9	8	[0, 0, 0]	n/a	FR1	0	R1241J
1239.259	0.901	1346889	WORD_OFF	n/a	n/a	JUDGE	9	8	[0, 0, 0]	n/a	FR1	0	R1241J
1240.16	1.616	1347790	WORD	n/a	wordpools/wordpool_EN.txt	FUDGE	10	8	[0, 0, 0]	n/a	FR1	0	R1241J
1241.776	0.967	1349406	WORD_OFF	n/a	n/a	FUDGE	10	8	[0, 0, 0]	n/a	FR1	0	R1241J
1242.743	1.617	1350373	WORD	n/a	wordpools/wordpool_EN.txt	SWORD	11	8	[0, 0, 0]	n/a	FR1	0	R1241J
1244.36	1.0	1351990	WORD_OFF	n/a	n/a	SWORD	11	8	[0, 0, 0]	n/a	FR1	0	R1241J
1245.36	1.617	1352990	WORD	n/a	wordpools/wordpool_EN.txt	BRIDGE	12	8	[0, 0, 0]	n/a	FR1	0	R1241J
1246.977	0.0	1354607	WORD_OFF	n/a	n/a	BRIDGE	12	8	[0, 0, 0]	n/a	FR1	0	R1241J
1246.977	0.001	1354607	DISTRACT_START	n/a	n/a	n/a	-999	8	[0, 0, 0]	n/a	FR1	0	R1241J
1246.978	0.016	1354608	START	n/a	n/a	n/a	-999	8	[-999, -999, -999]	n/a	FR1	0	R1241J
1246.994	4.15	1354624	PROB	4.15	n/a	n/a	-999	8	[4, 9, 1]	14	FR1	0	R1241J
1251.144	3.734	1358774	PROB	3.734	n/a	n/a	-999	8	[4, 6, 6]	16	FR1	0	R1241J
1254.878	3.7	1362508	PROB	3.7	n/a	n/a	-999	8	[7, 6, 1]	14	FR1	0	R1241J
1258.578	3.067	1366208	PROB	3.067	n/a	n/a	-999	8	[5, 6, 4]	15	FR1	0	R1241J
1261.645	3.868	1369275	PROB	3.868	n/a	n/a	-999	8	[2, 3, 4]	9	FR1	0	R1241J
1265.513	5.335	1373143	PROB	5.335	n/a	n/a	-999	8	[6, 9, 6]	21	FR1	0	R1241J
1270.848	0.015	1378478	STOP	n/a	n/a	n/a	-999	8	[-999, -999, -999]	n/a	FR1	0	R1241J
1270.863	0.551	1378493	DISTRACT_END	n/a	n/a	n/a	-999	8	[0, 0, 0]	n/a	FR1	0	R1241J
1271.414	0.517	1379044	RETRIEVAL_ORIENT	n/a	n/a	n/a	-999	8	[0, 0, 0]	n/a	FR1	0	R1241J
1271.931	2.641	1379561	REC_START	n/a	n/a	n/a	-999	8	[0, 0, 0]	n/a	FR1	0	R1241J
1274.572	0.664	1382202	REC_WORD	0.664	n/a	BROAD	-999	8	[0, 0, 0]	n/a	FR1	0	R1241J
1275.236	0.629	1382866	REC_WORD	0.629	n/a	CHAIR	-999	8	[0, 0, 0]	n/a	FR1	0	R1241J
1275.865	26.078	1383495	REC_WORD	26.078	n/a	FLUTE	-999	8	[0, 0, 0]	n/a	FR1	0	R1241J
1301.943	5.808	1409573	REC_END	n/a	n/a	n/a	-999	8	[0, 0, 0]	n/a	FR1	0	R1241J
1307.751	0.5	1415381	TRIAL	n/a	n/a	n/a	-999	9	[0, 0, 0]	n/a	FR1	0	R1241J
1308.251	10.428	1415881	COUNTDOWN_START	n/a	n/a	n/a	-999	9	[0, 0, 0]	n/a	FR1	0	R1241J
1318.679	0.006	1426309	COUNTDOWN_END	n/a	n/a	n/a	-999	9	[0, 0, 0]	n/a	FR1	0	R1241J
1318.685	1.618	1426315	ORIENT	n/a	n/a	n/a	-999	9	[0, 0, 0]	n/a	FR1	0	R1241J
1320.303	2.167	1427933	ORIENT_OFF	n/a	n/a	n/a	-999	9	[0, 0, 0]	n/a	FR1	0	R1241J
1322.47	1.617	1430100	WORD	n/a	wordpools/wordpool_EN.txt	BED	1	9	[0, 0, 0]	n/a	FR1	0	R1241J
1324.087	1.0	1431717	WORD_OFF	n/a	n/a	BED	1	9	[0, 0, 0]	n/a	FR1	0	R1241J
1325.087	1.616	1432717	WORD	n/a	wordpools/wordpool_EN.txt	SPOON	2	9	[0, 0, 0]	n/a	FR1	0	R1241J
1326.703	0.834	1434333	WORD_OFF	n/a	n/a	SPOON	2	9	[0, 0, 0]	n/a	FR1	0	R1241J
1327.537	1.617	1435167	WORD	n/a	wordpools/wordpool_EN.txt	FOG	3	9	[0, 0, 0]	n/a	FR1	0	R1241J
1329.154	0.9	1436784	WORD_OFF	n/a	n/a	FOG	3	9	[0, 0, 0]	n/a	FR1	0	R1241J
1330.054	1.616	1437684	WORD	n/a	wordpools/wordpool_EN.txt	SPARK	4	9	[0, 0, 0]	n/a	FR1	0	R1241J
1331.67	0.917	1439300	WORD_OFF	n/a	n/a	SPARK	4	9	[0, 0, 0]	n/a	FR1	0	R1241J
1332.587	1.618	1440217	WORD	n/a	wordpools/wordpool_EN.txt	FUR	5	9	[0, 0, 0]	n/a	FR1	0	R1241J
1334.205	0.983	1441835	WORD_OFF	n/a	n/a	FUR	5	9	[0, 0, 0]	n/a	FR1	0	R1241J
1335.188	1.617	1442818	WORD	n/a	wordpools/wordpool_EN.txt	POOL	6	9	[0, 0, 0]	n/a	FR1	0	R1241J
1336.805	0.967	1444435	WORD_OFF	n/a	n/a	POOL	6	9	[0, 0, 0]	n/a	FR1	0	R1241J
1337.772	1.617	1445402	WORD	n/a	wordpools/wordpool_EN.txt	SCHOOL	7	9	[0, 0, 0]	n/a	FR1	0	R1241J
1339.389	0.917	1447019	WORD_OFF	n/a	n/a	SCHOOL	7	9	[0, 0, 0]	n/a	FR1	0	R1241J
1340.306	1.617	1447936	WORD	n/a	wordpools/wordpool_EN.txt	SKI	8	9	[0, 0, 0]	n/a	FR1	0	R1241J
1341.923	0.9	1449553	WORD_OFF	n/a	n/a	SKI	8	9	[0, 0, 0]	n/a	FR1	0	R1241J
1342.823	1.616	1450453	WORD	n/a	wordpools/wordpool_EN.txt	WORLD	9	9	[0, 0, 0]	n/a	FR1	0	R1241J
1344.439	0.767	1452069	WORD_OFF	n/a	n/a	WORLD	9	9	[0, 0, 0]	n/a	FR1	0	R1241J
1345.206	1.617	1452836	WORD	n/a	wordpools/wordpool_EN.txt	LAKE	10	9	[0, 0, 0]	n/a	FR1	0	R1241J
1346.823	0.95	1454453	WORD_OFF	n/a	n/a	LAKE	10	9	[0, 0, 0]	n/a	FR1	0	R1241J
1347.773	1.617	1455403	WORD	n/a	wordpools/wordpool_EN.txt	JET	11	9	[0, 0, 0]	n/a	FR1	0	R1241J
1349.39	0.784	1457020	WORD_OFF	n/a	n/a	JET	11	9	[0, 0, 0]	n/a	FR1	0	R1241J
1350.174	1.617	1457804	WORD	n/a	wordpools/wordpool_EN.txt	SEAT	12	9	[0, 0, 0]	n/a	FR1	0	R1241J
1351.791	0.0	1459421	WORD_OFF	n/a	n/a	SEAT	12	9	[0, 0, 0]	n/a	FR1	0	R1241J
1351.791	0.0	1459421	DISTRACT_START	n/a	n/a	n/a	-999	9	[0, 0, 0]	n/a	FR1	0	R1241J
1351.791	0.016	1459421	START	n/a	n/a	n/a	-999	9	[-999, -999, -999]	n/a	FR1	0	R1241J
1351.807	4.783	1459437	PROB	4.783	n/a	n/a	-999	9	[5, 7, 9]	21	FR1	0	R1241J
1356.59	3.435	1464220	PROB	3.435	n/a	n/a	-999	9	[1, 5, 3]	9	FR1	0	R1241J
1360.025	3.383	1467655	PROB	3.383	n/a	n/a	-999	9	[3, 6, 1]	10	FR1	0	R1241J
1363.408	4.2	1471038	PROB	4.2	n/a	n/a	-999	9	[4, 8, 7]	19	FR1	0	R1241J
1367.608	3.418	1475238	PROB	3.418	n/a	n/a	-999	9	[8, 2, 6]	16	FR1	0	R1241J
1371.026	2.779	1478656	PROB	2.779	n/a	n/a	-999	9	[9, 3, 3]	15	FR1	0	R1241J
1373.805	0.021	1481435	STOP	n/a	n/a	n/a	-999	9	[-999, -999, -999]	n/a	FR1	0	R1241J
1373.826	0.584	1481456	DISTRACT_END	n/a	n/a	n/a	-999	9	[0, 0, 0]	n/a	FR1	0	R1241J
1374.41	0.517	1482040	RETRIEVAL_ORIENT	n/a	n/a	n/a	-999	9	[0, 0, 0]	n/a	FR1	0	R1241J
1374.927	17.901	1482557	REC_START	n/a	n/a	n/a	-999	9	[0, 0, 0]	n/a	FR1	0	R1241J
1392.828	12.115	1500458	REC_WORD_VV	12.115	n/a	<>	-999	9	[0, 0, 0]	n/a	FR1	0	R1241J
1404.943	6.288	1512573	REC_END	n/a	n/a	n/a	-999	9	[0, 0, 0]	n/a	FR1	0	R1241J
1411.231	0.5	1518861	TRIAL	n/a	n/a	n/a	-999	10	[0, 0, 0]	n/a	FR1	0	R1241J
1411.731	10.428	1519361	COUNTDOWN_START	n/a	n/a	n/a	-999	10	[0, 0, 0]	n/a	FR1	0	R1241J
1422.159	0.007	1529789	COUNTDOWN_END	n/a	n/a	n/a	-999	10	[0, 0, 0]	n/a	FR1	0	R1241J
1422.166	1.617	1529796	ORIENT	n/a	n/a	n/a	-999	10	[0, 0, 0]	n/a	FR1	0	R1241J
1423.783	1.832	1531413	ORIENT_OFF	n/a	n/a	n/a	-999	10	[0, 0, 0]	n/a	FR1	0	R1241J
1425.615	1.618	1533245	WORD	n/a	wordpools/wordpool_EN.txt	PEARL	1	10	[0, 0, 0]	n/a	FR1	0	R1241J
1427.233	1.017	1534863	WORD_OFF	n/a	n/a	PEARL	1	10	[0, 0, 0]	n/a	FR1	0	R1241J
1428.25	1.617	1535880	WORD	n/a	wordpools/wordpool_EN.txt	GLOVE	2	10	[0, 0, 0]	n/a	FR1	0	R1241J
1429.867	0.849	1537497	WORD_OFF	n/a	n/a	GLOVE	2	10	[0, 0, 0]	n/a	FR1	0	R1241J
1430.716	1.601	1538346	WORD	n/a	wordpools/wordpool_EN.txt	ARM	3	10	[0, 0, 0]	n/a	FR1	0	R1241J
1432.317	0.767	1539947	WORD_OFF	n/a	n/a	ARM	3	10	[0, 0, 0]	n/a	FR1	0	R1241J
1433.084	1.616	1540714	WORD	n/a	wordpools/wordpool_EN.txt	NET	4	10	[0, 0, 0]	n/a	FR1	0	R1241J
1434.7	0.868	1542330	WORD_OFF	n/a	n/a	NET	4	10	[0, 0, 0]	n/a	FR1	0	R1241J
1435.568	1.617	1543198	WORD	n/a	wordpools/wordpool_EN.txt	BOAT	5	10	[0, 0, 0]	n/a	FR1	0	R1241J
1437.185	0.916	1544815	WORD_OFF	n/a	n/a	BOAT	5	10	[0, 0, 0]	n/a	FR1	0	R1241J
1438.101	1.616	1545731	WORD	n/a	wordpools/wordpool_EN.txt	SPONGE	6	10	[0, 0, 0]	n/a	FR1	0	R1241J
1439.717	0.867	1547347	WORD_OFF	n/a	n/a	SPONGE	6	10	[0, 0, 0]	n/a	FR1	0	R1241J
1440.584	1.601	1548214	WORD	n/a	wordpools/wordpool_EN.txt	TANK	7	10	[0, 0, 0]	n/a	FR1	0	R1241J
1442.185	0.784	1549815	WORD_OFF	n/a	n/a	TANK	7	10	[0, 0, 0]	n/a	FR1	0	R1241J
1442.969	1.616	1550599	WORD	n/a	wordpools/wordpool_EN.txt	TOY	8	10	[0, 0, 0]	n/a	FR1	0	R1241J
1444.585	0.901	1552215	WORD_OFF	n/a	n/a	TOY	8	10	[0, 0, 0]	n/a	FR1	0	R1241J
1445.486	1.617	1553116	WORD	n/a	wordpools/wordpool_EN.txt	SEA	9	10	[0, 0, 0]	n/a	FR1	0	R1241J
1447.103	0.933	1554733	WORD_OFF	n/a	n/a	SEA	9	10	[0, 0, 0]	n/a	FR1	0	R1241J
1448.036	1.616	1555666	WORD	n/a	wordpools/wordpool_EN.txt	BOARD	10	10	[0, 0, 0]	n/a	FR1	0	R1241J
1449.652	0.868	1557282	WORD_OFF	n/a	n/a	BOARD	10	10	[0, 0, 0]	n/a	FR1	0	R1241J
1450.52	1.617	1558150	WORD	n/a	wordpools/wordpool_EN.txt	SHIP	11	10	[0, 0, 0]	n/a	FR1	0	R1241J
1452.137	0.833	1559767	WORD_OFF	n/a	n/a	SHIP	11	10	[0, 0, 0]	n/a	FR1	0	R1241J
1452.97	1.616	1560600	WORD	n/a	wordpools/wordpool_EN.txt	BOY	12	10	[0, 0, 0]	n/a	FR1	0	R1241J
1454.586	0.0	1562216	WORD_OFF	n/a	n/a	BOY	12	10	[0, 0, 0]	n/a	FR1	0	R1241J
1454.586	0.001	1562216	DISTRACT_START	n/a	n/a	n/a	-999	10	[0, 0, 0]	n/a	FR1	0	R1241J
1454.587	0.015	1562217	START	n/a	n/a	n/a	-999	10	[-999, -999, -999]	n/a	FR1	0	R1241J
1454.602	3.969	1562232	PROB	3.969	n/a	n/a	-999	10	[2, 3, 3]	8	FR1	0	R1241J
1458.571	4.517	1566201	PROB	4.517	n/a	n/a	-999	10	[9, 4, 4]	17	FR1	0	R1241J
1463.088	3.533	1570718	PROB	3.533	n/a	n/a	-999	10	[2, 5, 9]	16	FR1	0	R1241J
1466.621	2.768	1574251	PROB	2.768	n/a	n/a	-999	10	[5, 8, 2]	15	FR1	0	R1241J
1469.389	3.283	1577019	PROB	3.283	n/a	n/a	-999	10	[3, 1, 5]	9	FR1	0	R1241J
1472.672	3.568	1580302	PROB	3.568	n/a	n/a	-999	10	[9, 5, 3]	17	FR1	0	R1241J
1476.24	0.016	1583870	STOP	n/a	n/a	n/a	-999	10	[-999, -999, -999]	n/a	FR1	0	R1241J
1476.256	0.517	1583886	DISTRACT_END	n/a	n/a	n/a	-999	10	[0, 0, 0]	n/a	FR1	0	R1241J
1476.773	0.518	1584403	RETRIEVAL_ORIENT	n/a	n/a	n/a	-999	10	[0, 0, 0]	n/a	FR1	0	R1241J
1477.291	2.179	1584921	REC_START	n/a	n/a	n/a	-999	10	[0, 0, 0]	n/a	FR1	0	R1241J
1479.47	0.62	1587100	REC_WORD	0.62	n/a	PEARL	-999	10	[0, 0, 0]	n/a	FR1	0	R1241J
1480.09	0.711	1587720	REC_WORD	0.711	n/a	AGE	-999	10	[0, 0, 0]	n/a	FR1	0	R1241J
1480.801	0.379	1588431	REC_WORD	0.379	n/a	GLOVE	-999	10	[0, 0, 0]	n/a	FR1	0	R1241J
1481.18	1.134	1588810	REC_WORD	1.134	n/a	SUIT	-999	10	[0, 0, 0]	n/a	FR1	0	R1241J
1482.314	7.019	1589944	REC_WORD	7.019	n/a	ARM	-999	10	[0, 0, 0]	n/a	FR1	0	R1241J
1489.333	8.769	1596963	REC_WORD	8.769	n/a	PEAR	-999	10	[0, 0, 0]	n/a	FR1	0	R1241J
1498.102	9.2	1605732	REC_WORD	9.2	n/a	CAR	-999	10	[0, 0, 0]	n/a	FR1	0	R1241J
1507.302	5.543	1614932	REC_END	n/a	n/a	n/a	-999	10	[0, 0, 0]	n/a	FR1	0	R1241J
1512.845	0.5	1620475	TRIAL	n/a	n/a	n/a	-999	11	[0, 0, 0]	n/a	FR1	0	R1241J
1513.345	10.428	1620975	COUNTDOWN_START	n/a	n/a	n/a	-999	11	[0, 0, 0]	n/a	FR1	0	R1241J
1523.773	0.006	1631403	COUNTDOWN_END	n/a	n/a	n/a	-999	11	[0, 0, 0]	n/a	FR1	0	R1241J
1523.779	1.617	1631409	ORIENT	n/a	n/a	n/a	-999	11	[0, 0, 0]	n/a	FR1	0	R1241J
1525.396	1.883	1633026	ORIENT_OFF	n/a	n/a	n/a	-999	11	[0, 0, 0]	n/a	FR1	0	R1241J
1527.279	1.617	1634909	WORD	n/a	wordpools/wordpool_EN.txt	BOX	1	11	[0, 0, 0]	n/a	FR1	0	R1241J
1528.896	0.917	1636526	WORD_OFF	n/a	n/a	BOX	1	11	[0, 0, 0]	n/a	FR1	0	R1241J
1529.813	1.617	1637443	WORD	n/a	wordpools/wordpool_EN.txt	MUG	2	11	[0, 0, 0]	n/a	FR1	0	R1241J
1531.43	0.984	1639060	WORD_OFF	n/a	n/a	MUG	2	11	[0, 0, 0]	n/a	FR1	0	R1241J
1532.414	1.616	1640044	WORD	n/a	wordpools/wordpool_EN.txt	LEG	3	11	[0, 0, 0]	n/a	FR1	0	R1241J
1534.03	1.017	1641660	WORD_OFF	n/a	n/a	LEG	3	11	[0, 0, 0]	n/a	FR1	0	R1241J
1535.047	1.616	1642677	WORD	n/a	wordpools/wordpool_EN.txt	CAKE	4	11	[0, 0, 0]	n/a	FR1	0	R1241J
1536.663	0.785	1644293	WORD_OFF	n/a	n/a	CAKE	4	11	[0, 0, 0]	n/a	FR1	0	R1241J
1537.448	1.616	1645078	WORD	n/a	wordpools/wordpool_EN.txt	CAGE	5	11	[0, 0, 0]	n/a	FR1	0	R1241J
1539.064	0.95	1646694	WORD_OFF	n/a	n/a	CAGE	5	11	[0, 0, 0]	n/a	FR1	0	R1241J
1540.014	1.616	1647644	WORD	n/a	wordpools/wordpool_EN.txt	SINK	6	11	[0, 0, 0]	n/a	FR1	0	R1241J
1541.63	0.768	1649260	WORD_OFF	n/a	n/a	SINK	6	11	[0, 0, 0]	n/a	FR1	0	R1241J
1542.398	1.617	1650028	WORD	n/a	wordpools/wordpool_EN.txt	BEAK	7	11	[0, 0, 0]	n/a	FR1	0	R1241J
1544.015	0.867	1651645	WORD_OFF	n/a	n/a	BEAK	7	11	[0, 0, 0]	n/a	FR1	0	R1241J
1544.882	1.617	1652512	WORD	n/a	wordpools/wordpool_EN.txt	TEA	8	11	[0, 0, 0]	n/a	FR1	0	R1241J
1546.499	0.833	1654129	WORD_OFF	n/a	n/a	TEA	8	11	[0, 0, 0]	n/a	FR1	0	R1241J
1547.332	1.617	1654962	WORD	n/a	wordpools/wordpool_EN.txt	SLEEVE	9	11	[0, 0, 0]	n/a	FR1	0	R1241J
1548.949	0.85	1656580	WORD_OFF	n/a	n/a	SLEEVE	9	11	[0, 0, 0]	n/a	FR1	0	R1241J
1549.799	1.617	1657430	WORD	n/a	wordpools/wordpool_EN.txt	BAG	10	11	[0, 0, 0]	n/a	FR1	0	R1241J
1551.416	0.884	1659047	WORD_OFF	n/a	n/a	BAG	10	11	[0, 0, 0]	n/a	FR1	0	R1241J
1552.3	1.616	1659931	WORD	n/a	wordpools/wordpool_EN.txt	HAND	11	11	[0, 0, 0]	n/a	FR1	0	R1241J
1553.916	0.9	1661547	WORD_OFF	n/a	n/a	HAND	11	11	[0, 0, 0]	n/a	FR1	0	R1241J
1554.816	1.617	1662447	WORD	n/a	wordpools/wordpool_EN.txt	TIE	12	11	[0, 0, 0]	n/a	FR1	0	R1241J
1556.433	0.0	1664064	WORD_OFF	n/a	n/a	TIE	12	11	[0, 0, 0]	n/a	FR1	0	R1241J
1556.433	0.001	1664064	DISTRACT_START	n/a	n/a	n/a	-999	11	[0, 0, 0]	n/a	FR1	0	R1241J
1556.434	0.016	1664065	START	n/a	n/a	n/a	-999	11	[-999, -999, -999]	n/a	FR1	0	R1241J
1556.45	3.534	1664081	PROB	3.534	n/a	n/a	-999	11	[6, 3, 2]	11	FR1	0	R1241J
1559.984	2.35	1667615	PROB	2.35	n/a	n/a	-999	11	[6, 4, 1]	11	FR1	0	R1241J
1562.334	3.9	1669965	PROB	3.9	n/a	n/a	-999	11	[4, 6, 5]	15	FR1	0	R1241J
1566.234	3.851	1673865	PROB	3.851	n/a	n/a	-999	11	[1, 5, 7]	13	FR1	0	R1241J
1570.085	3.984	1677716	PROB	3.984	n/a	n/a	-999	11	[7, 5, 6]	18	FR1	0	R1241J
1574.069	2.839	1681700	PROB	2.839	n/a	n/a	-999	11	[3, 8, 3]	14	FR1	0	R1241J
1576.908	0.011	1684539	STOP	n/a	n/a	n/a	-999	11	[-999, -999, -999]	n/a	FR1	0	R1241J
1576.919	0.534	1684550	DISTRACT_END	n/a	n/a	n/a	-999	11	[0, 0, 0]	n/a	FR1	0	R1241J
1577.453	0.517	1685084	RETRIEVAL_ORIENT	n/a	n/a	n/a	-999	11	[0, 0, 0]	n/a	FR1	0	R1241J
1577.97	2.563	1685601	REC_START	n/a	n/a	n/a	-999	11	[0, 0, 0]	n/a	FR1	0	R1241J
1580.533	0.576	1688164	REC_WORD	0.576	n/a	AIR	-999	11	[0, 0, 0]	n/a	FR1	0	R1241J
1581.109	0.746	1688740	REC_WORD	0.746	n/a	GLOVE	-999	11	[0, 0, 0]	n/a	FR1	0	R1241J
1581.855	1.409	1689486	REC_WORD	1.409	n/a	ARM	-999	11	[0, 0, 0]	n/a	FR1	0	R1241J
1583.264	2.257	1690895	REC_WORD	2.257	n/a	BOAT	-999	11	[0, 0, 0]	n/a	FR1	0	R1241J
1585.521	22.462	1693152	REC_WORD	22.462	n/a	PEACH	-999	11	[0, 0, 0]	n/a	FR1	0	R1241J
1607.983	6.107	1715614	REC_END	n/a	n/a	n/a	-999	11	[0, 0, 0]	n/a	FR1	0	R1241J
1614.09	0.5	1721721	TRIAL	n/a	n/a	n/a	-999	12	[0, 0, 0]	n/a	FR1	0	R1241J
1614.59	10.428	1722221	COUNTDOWN_START	n/a	n/a	n/a	-999	12	[0, 0, 0]	n/a	FR1	0	R1241J
1625.018	0.007	1732649	COUNTDOWN_END	n/a	n/a	n/a	-999	12	[0, 0, 0]	n/a	FR1	0	R1241J
1625.025	1.616	1732656	ORIENT	n/a	n/a	n/a	-999	12	[0, 0, 0]	n/a	FR1	0	R1241J
1626.641	2.151	1734272	ORIENT_OFF	n/a	n/a	n/a	-999	12	[0, 0, 0]	n/a	FR1	0	R1241J
1628.792	1.617	1736423	WORD	n/a	wordpools/wordpool_EN.txt	NEST	1	12	[0, 0, 0]	n/a	FR1	0	R1241J
1630.409	0.884	1738040	WORD_OFF	n/a	n/a	NEST	1	12	[0, 0, 0]	n/a	FR1	0	R1241J
1631.293	1.617	1738924	WORD	n/a	wordpools/wordpool_EN.txt	OWL	2	12	[0, 0, 0]	n/a	FR1	0	R1241J
1632.91	0.95	1740541	WORD_OFF	n/a	n/a	OWL	2	12	[0, 0, 0]	n/a	FR1	0	R1241J
1633.86	1.617	1741491	WORD	n/a	wordpools/wordpool_EN.txt	BARN	3	12	[0, 0, 0]	n/a	FR1	0	R1241J
1635.477	1.0	1743108	WORD_OFF	n/a	n/a	BARN	3	12	[0, 0, 0]	n/a	FR1	0	R1241J
1636.477	1.617	1744108	WORD	n/a	wordpools/wordpool_EN.txt	HAWK	4	12	[0, 0, 0]	n/a	FR1	0	R1241J
1638.094	1.0	1745725	WORD_OFF	n/a	n/a	HAWK	4	12	[0, 0, 0]	n/a	FR1	0	R1241J
1639.094	1.616	1746725	WORD	n/a	wordpools/wordpool_EN.txt	HOUSE	5	12	[0, 0, 0]	n/a	FR1	0	R1241J
1640.71	0.983	1748341	WORD_OFF	n/a	n/a	HOUSE	5	12	[0, 0, 0]	n/a	FR1	0	R1241J
1641.693	1.618	1749324	WORD	n/a	wordpools/wordpool_EN.txt	POND	6	12	[0, 0, 0]	n/a	FR1	0	R1241J
1643.311	1.0	1750942	WORD_OFF	n/a	n/a	POND	6	12	[0, 0, 0]	n/a	FR1	0	R1241J
1644.311	1.617	1751942	WORD	n/a	wordpools/wordpool_EN.txt	FROG	7	12	[0, 0, 0]	n/a	FR1	0	R1241J
1645.928	1.0	1753559	WORD_OFF	n/a	n/a	FROG	7	12	[0, 0, 0]	n/a	FR1	0	R1241J
1646.928	1.617	1754559	WORD	n/a	wordpools/wordpool_EN.txt	SKY	8	12	[0, 0, 0]	n/a	FR1	0	R1241J
1648.545	0.8	1756176	WORD_OFF	n/a	n/a	SKY	8	12	[0, 0, 0]	n/a	FR1	0	R1241J
1649.345	1.617	1756976	WORD	n/a	wordpools/wordpool_EN.txt	HILL	9	12	[0, 0, 0]	n/a	FR1	0	R1241J
1650.962	0.85	1758593	WORD_OFF	n/a	n/a	HILL	9	12	[0, 0, 0]	n/a	FR1	0	R1241J
1651.812	1.617	1759443	WORD	n/a	wordpools/wordpool_EN.txt	CLOUD	10	12	[0, 0, 0]	n/a	FR1	0	R1241J
1653.429	0.883	1761060	WORD_OFF	n/a	n/a	CLOUD	10	12	[0, 0, 0]	n/a	FR1	0	R1241J
1654.312	1.617	1761943	WORD	n/a	wordpools/wordpool_EN.txt	GOAT	11	12	[0, 0, 0]	n/a	FR1	0	R1241J
1655.929	1.0	1763560	WORD_OFF	n/a	n/a	GOAT	11	12	[0, 0, 0]	n/a	FR1	0	R1241J
1656.929	1.617	1764560	WORD	n/a	wordpools/wordpool_EN.txt	VEST	12	12	[0, 0, 0]	n/a	FR1	0	R1241J
1658.546	0.0	1766177	WORD_OFF	n/a	n/a	VEST	12	12	[0, 0, 0]	n/a	FR1	0	R1241J
1658.546	0.001	1766177	DISTRACT_START	n/a	n/a	n/a	-999	12	[0, 0, 0]	n/a	FR1	0	R1241J
1658.547	0.016	1766178	START	n/a	n/a	n/a	-999	12	[-999, -999, -999]	n/a	FR1	0	R1241J
1658.563	5.884	1766194	PROB	5.884	n/a	n/a	-999	12	[8, 6, 2]	16	FR1	0	R1241J
1664.447	3.567	1772078	PROB	3.567	n/a	n/a	-999	12	[9, 2, 6]	17	FR1	0	R1241J
1668.014	5.934	1775645	PROB	5.934	n/a	n/a	-999	12	[5, 9, 8]	22	FR1	0	R1241J
1673.948	4.134	1781579	PROB	4.134	n/a	n/a	-999	12	[5, 3, 1]	9	FR1	0	R1241J
1678.082	3.31	1785713	PROB	3.31	n/a	n/a	-999	12	[3, 3, 4]	10	FR1	0	R1241J
1681.392	0.007	1789023	STOP	n/a	n/a	n/a	-999	12	[-999, -999, -999]	n/a	FR1	0	R1241J
1681.399	0.651	1789030	DISTRACT_END	n/a	n/a	n/a	-999	12	[0, 0, 0]	n/a	FR1	0	R1241J
1682.05	0.517	1789681	RETRIEVAL_ORIENT	n/a	n/a	n/a	-999	12	[0, 0, 0]	n/a	FR1	0	R1241J
1682.567	3.504	1790198	REC_START	n/a	n/a	n/a	-999	12	[0, 0, 0]	n/a	FR1	0	R1241J
1686.071	0.565	1793702	REC_WORD	0.565	n/a	PEAR	-999	12	[0, 0, 0]	n/a	FR1	0	R1241J
1686.636	1.358	1794267	REC_WORD	1.358	n/a	ARM	-999	12	[0, 0, 0]	n/a	FR1	0	R1241J
1687.994	7.862	1795625	REC_WORD	7.862	n/a	COAT	-999	12	[0, 0, 0]	n/a	FR1	0	R1241J
1695.856	16.723	1803487	REC_WORD	16.723	n/a	FUR	-999	12	[0, 0, 0]	n/a	FR1	0	R1241J
1712.579	5.708	1820210	REC_END	n/a	n/a	n/a	-999	12	[0, 0, 0]	n/a	FR1	0	R1241J
1718.287	0.5	1825918	TRIAL	n/a	n/a	n/a	-999	13	[0, 0, 0]	n/a	FR1	0	R1241J
1718.787	10.428	1826418	COUNTDOWN_START	n/a	n/a	n/a	-999	13	[0, 0, 0]	n/a	FR1	0	R1241J
1729.215	0.007	1836846	COUNTDOWN_END	n/a	n/a	n/a	-999	13	[0, 0, 0]	n/a	FR1	0	R1241J
1729.222	1.617	1836853	ORIENT	n/a	n/a	n/a	-999	13	[0, 0, 0]	n/a	FR1	0	R1241J
1730.839	1.883	1838470	ORIENT_OFF	n/a	n/a	n/a	-999	13	[0, 0, 0]	n/a	FR1	0	R1241J
1732.722	1.617	1840353	WORD	n/a	wordpools/wordpool_EN.txt	DRUM	1	13	[0, 0, 0]	n/a	FR1	0	R1241J
1734.339	0.784	1841970	WORD_OFF	n/a	n/a	DRUM	1	13	[0, 0, 0]	n/a	FR1	0	R1241J
1735.123	1.617	1842754	WORD	n/a	wordpools/wordpool_EN.txt	GEESE	2	13	[0, 0, 0]	n/a	FR1	0	R1241J
1736.74	0.8	1844371	WORD_OFF	n/a	n/a	GEESE	2	13	[0, 0, 0]	n/a	FR1	0	R1241J
1737.54	1.617	1845171	WORD	n/a	wordpools/wordpool_EN.txt	EAR	3	13	[0, 0, 0]	n/a	FR1	0	R1241J
1739.157	0.783	1846788	WORD_OFF	n/a	n/a	EAR	3	13	[0, 0, 0]	n/a	FR1	0	R1241J
1739.94	1.617	1847571	WORD	n/a	wordpools/wordpool_EN.txt	BADGE	4	13	[0, 0, 0]	n/a	FR1	0	R1241J
1741.557	0.767	1849188	WORD_OFF	n/a	n/a	BADGE	4	13	[0, 0, 0]	n/a	FR1	0	R1241J
1742.324	1.616	1849955	WORD	n/a	wordpools/wordpool_EN.txt	ZOO	5	13	[0, 0, 0]	n/a	FR1	0	R1241J
1743.94	0.967	1851571	WORD_OFF	n/a	n/a	ZOO	5	13	[0, 0, 0]	n/a	FR1	0	R1241J
1744.907	1.617	1852538	WORD	n/a	wordpools/wordpool_EN.txt	SNOW	6	13	[0, 0, 0]	n/a	FR1	0	R1241J
1746.524	0.884	1854155	WORD_OFF	n/a	n/a	SNOW	6	13	[0, 0, 0]	n/a	FR1	0	R1241J
1747.408	1.617	1855039	WORD	n/a	wordpools/wordpool_EN.txt	PARK	7	13	[0, 0, 0]	n/a	FR1	0	R1241J
1749.025	0.833	1856656	WORD_OFF	n/a	n/a	PARK	7	13	[0, 0, 0]	n/a	FR1	0	R1241J
1749.858	1.617	1857489	WORD	n/a	wordpools/wordpool_EN.txt	DUCK	8	13	[0, 0, 0]	n/a	FR1	0	R1241J
1751.475	0.783	1859106	WORD_OFF	n/a	n/a	DUCK	8	13	[0, 0, 0]	n/a	FR1	0	R1241J
1752.258	1.617	1859889	WORD	n/a	wordpools/wordpool_EN.txt	CRANE	9	13	[0, 0, 0]	n/a	FR1	0	R1241J
1753.875	0.95	1861506	WORD_OFF	n/a	n/a	CRANE	9	13	[0, 0, 0]	n/a	FR1	0	R1241J
1754.825	1.617	1862456	WORD	n/a	wordpools/wordpool_EN.txt	VAN	10	13	[0, 0, 0]	n/a	FR1	0	R1241J
1756.442	0.85	1864073	WORD_OFF	n/a	n/a	VAN	10	13	[0, 0, 0]	n/a	FR1	0	R1241J
1757.292	1.617	1864923	WORD	n/a	wordpools/wordpool_EN.txt	BLUSH	11	13	[0, 0, 0]	n/a	FR1	0	R1241J
1758.909	0.95	1866540	WORD_OFF	n/a	n/a	BLUSH	11	13	[0, 0, 0]	n/a	FR1	0	R1241J
1759.859	1.617	1867490	WORD	n/a	wordpools/wordpool_EN.txt	FLAG	12	13	[0, 0, 0]	n/a	FR1	0	R1241J
1761.476	0.0	1869107	WORD_OFF	n/a	n/a	FLAG	12	13	[0, 0, 0]	n/a	FR1	0	R1241J
1761.476	0.001	1869107	DISTRACT_START	n/a	n/a	n/a	-999	13	[0, 0, 0]	n/a	FR1	0	R1241J
1761.477	0.016	1869108	START	n/a	n/a	n/a	-999	13	[-999, -999, -999]	n/a	FR1	0	R1241J
1761.493	4.467	1869124	PROB	4.467	n/a	n/a	-999	13	[2, 4, 9]	15	FR1	0	R1241J
1765.96	3.467	1873591	PROB	3.467	n/a	n/a	-999	13	[9, 1, 5]	15	FR1	0	R1241J
1769.427	3.684	1877058	PROB	3.684	n/a	n/a	-999	13	[2, 3, 6]	11	FR1	0	R1241J
1773.111	3.217	1880742	PROB	3.217	n/a	n/a	-999	13	[9, 2, 8]	19	FR1	0	R1241J
1776.328	3.25	1883959	PROB	3.25	n/a	n/a	-999	13	[9, 7, 7]	23	FR1	0	R1241J
1779.578	3.673	1887209	PROB	3.673	n/a	n/a	-999	13	[6, 5, 1]	12	FR1	0	R1241J
1783.251	0.011	1890882	STOP	n/a	n/a	n/a	-999	13	[-999, -999, -999]	n/a	FR1	0	R1241J
1783.262	0.517	1890893	DISTRACT_END	n/a	n/a	n/a	-999	13	[0, 0, 0]	n/a	FR1	0	R1241J
1783.779	0.518	1891410	RETRIEVAL_ORIENT	n/a	n/a	n/a	-999	13	[0, 0, 0]	n/a	FR1	0	R1241J
1784.297	2.955	1891928	REC_START	n/a	n/a	n/a	-999	13	[0, 0, 0]	n/a	FR1	0	R1241J
1787.252	0.552	1894883	REC_WORD	0.552	n/a	PEAR	-999	13	[0, 0, 0]	n/a	FR1	0	R1241J
1787.804	1.577	1895435	REC_WORD	1.577	n/a	PEACH	-999	13	[0, 0, 0]	n/a	FR1	0	R1241J
1789.381	1.211	1897012	REC_WORD	1.211	n/a	FARM	-999	13	[0, 0, 0]	n/a	FR1	0	R1241J
1790.592	23.718	1898223	REC_WORD	23.718	n/a	GOAT	-999	13	[0, 0, 0]	n/a	FR1	0	R1241J
1814.31	5.707	1921941	REC_END	n/a	n/a	n/a	-999	13	[0, 0, 0]	n/a	FR1	0	R1241J
1820.017	0.5	1927648	TRIAL	n/a	n/a	n/a	-999	14	[0, 0, 0]	n/a	FR1	0	R1241J
1820.517	10.428	1928148	COUNTDOWN_START	n/a	n/a	n/a	-999	14	[0, 0, 0]	n/a	FR1	0	R1241J
1830.945	0.007	1938576	COUNTDOWN_END	n/a	n/a	n/a	-999	14	[0, 0, 0]	n/a	FR1	0	R1241J
1830.952	1.617	1938583	ORIENT	n/a	n/a	n/a	-999	14	[0, 0, 0]	n/a	FR1	0	R1241J
1832.569	2.082	1940200	ORIENT_OFF	n/a	n/a	n/a	-999	14	[0, 0, 0]	n/a	FR1	0	R1241J
1834.651	1.618	1942282	WORD	n/a	wordpools/wordpool_EN.txt	SHIRT	1	14	[0, 0, 0]	n/a	FR1	0	R1241J
1836.269	0.933	1943900	WORD_OFF	n/a	n/a	SHIRT	1	14	[0, 0, 0]	n/a	FR1	0	R1241J
1837.202	1.617	1944833	WORD	n/a	wordpools/wordpool_EN.txt	STREET	2	14	[0, 0, 0]	n/a	FR1	0	R1241J
1838.819	0.951	1946450	WORD_OFF	n/a	n/a	STREET	2	14	[0, 0, 0]	n/a	FR1	0	R1241J
1839.77	1.617	1947401	WORD	n/a	wordpools/wordpool_EN.txt	CART	3	14	[0, 0, 0]	n/a	FR1	0	R1241J
1841.387	0.9	1949018	WORD_OFF	n/a	n/a	CART	3	14	[0, 0, 0]	n/a	FR1	0	R1241J
1842.287	1.616	1949918	WORD	n/a	wordpools/wordpool_EN.txt	COUCH	4	14	[0, 0, 0]	n/a	FR1	0	R1241J
1843.903	0.867	1951534	WORD_OFF	n/a	n/a	COUCH	4	14	[0, 0, 0]	n/a	FR1	0	R1241J
1844.77	1.617	1952401	WORD	n/a	wordpools/wordpool_EN.txt	LOCK	5	14	[0, 0, 0]	n/a	FR1	0	R1241J
1846.387	0.767	1954018	WORD_OFF	n/a	n/a	LOCK	5	14	[0, 0, 0]	n/a	FR1	0	R1241J
1847.154	1.617	1954785	WORD	n/a	wordpools/wordpool_EN.txt	FORK	6	14	[0, 0, 0]	n/a	FR1	0	R1241J
1848.771	0.932	1956402	WORD_OFF	n/a	n/a	FORK	6	14	[0, 0, 0]	n/a	FR1	0	R1241J
1849.703	1.618	1957334	WORD	n/a	wordpools/wordpool_EN.txt	TRUCK	7	14	[0, 0, 0]	n/a	FR1	0	R1241J
1851.321	0.85	1958952	WORD_OFF	n/a	n/a	TRUCK	7	14	[0, 0, 0]	n/a	FR1	0	R1241J
1852.171	1.617	1959802	WORD	n/a	wordpools/wordpool_EN.txt	BAND	8	14	[0, 0, 0]	n/a	FR1	0	R1241J
1853.788	0.916	1961419	WORD_OFF	n/a	n/a	BAND	8	14	[0, 0, 0]	n/a	FR1	0	R1241J
1854.704	1.618	1962335	WORD	n/a	wordpools/wordpool_EN.txt	CLOWN	9	14	[0, 0, 0]	n/a	FR1	0	R1241J
1856.322	0.983	1963953	WORD_OFF	n/a	n/a	CLOWN	9	14	[0, 0, 0]	n/a	FR1	0	R1241J
1857.305	1.617	1964936	WORD	n/a	wordpools/wordpool_EN.txt	DIME	10	14	[0, 0, 0]	n/a	FR1	0	R1241J
1858.922	0.817	1966553	WORD_OFF	n/a	n/a	DIME	10	14	[0, 0, 0]	n/a	FR1	0	R1241J
1859.739	1.617	1967370	WORD	n/a	wordpools/wordpool_EN.txt	CLOCK	11	14	[0, 0, 0]	n/a	FR1	0	R1241J
1861.356	1.017	1968987	WORD_OFF	n/a	n/a	CLOCK	11	14	[0, 0, 0]	n/a	FR1	0	R1241J
1862.373	1.616	1970004	WORD	n/a	wordpools/wordpool_EN.txt	ARK	12	14	[0, 0, 0]	n/a	FR1	0	R1241J
1863.989	0.0	1971620	WORD_OFF	n/a	n/a	ARK	12	14	[0, 0, 0]	n/a	FR1	0	R1241J
1863.989	0.001	1971620	DISTRACT_START	n/a	n/a	n/a	-999	14	[0, 0, 0]	n/a	FR1	0	R1241J
1863.99	0.016	1971621	START	n/a	n/a	n/a	-999	14	[-999, -999, -999]	n/a	FR1	0	R1241J
1864.006	5.583	1971637	PROB	5.583	n/a	n/a	-999	14	[3, 1, 5]	9	FR1	0	R1241J
1869.589	5.218	1977220	PROB	5.218	n/a	n/a	-999	14	[7, 6, 9]	22	FR1	0	R1241J
1874.807	3.717	1982438	PROB	3.717	n/a	n/a	-999	14	[9, 7, 3]	19	FR1	0	R1241J
1878.524	3.418	1986155	PROB	3.418	n/a	n/a	-999	14	[7, 7, 6]	20	FR1	0	R1241J
1881.942	3.417	1989573	PROB	3.417	n/a	n/a	-999	14	[3, 4, 4]	11	FR1	0	R1241J
1885.359	0.016	1992990	STOP	n/a	n/a	n/a	-999	14	[-999, -999, -999]	n/a	FR1	0	R1241J
1885.375	0.684	1993006	DISTRACT_END	n/a	n/a	n/a	-999	14	[0, 0, 0]	n/a	FR1	0	R1241J
1886.059	0.516	1993690	RETRIEVAL_ORIENT	n/a	n/a	n/a	-999	14	[0, 0, 0]	n/a	FR1	0	R1241J
1886.575	4.215	1994206	REC_START	n/a	n/a	n/a	-999	14	[0, 0, 0]	n/a	FR1	0	R1241J
1890.79	0.633	1998421	REC_WORD	0.633	n/a	ARM	-999	14	[0, 0, 0]	n/a	FR1	0	R1241J
1891.423	0.536	1999054	REC_WORD	0.536	n/a	GOAT	-999	14	[0, 0, 0]	n/a	FR1	0	R1241J
1891.959	1.36	1999590	REC_WORD	1.36	n/a	CHAIR	-999	14	[0, 0, 0]	n/a	FR1	0	R1241J
1893.319	2.14	2000950	REC_WORD	2.14	n/a	COUCH	-999	14	[0, 0, 0]	n/a	FR1	0	R1241J
1895.459	1.319	2003090	REC_WORD	1.319	n/a	PLANE	-999	14	[0, 0, 0]	n/a	FR1	0	R1241J
1896.778	19.811	2004409	REC_WORD	19.811	n/a	TRUCK	-999	14	[0, 0, 0]	n/a	FR1	0	R1241J
1916.589	5.791	2024220	REC_END	n/a	n/a	n/a	-999	14	[0, 0, 0]	n/a	FR1	0	R1241J
1922.38	0.5	2030011	TRIAL	n/a	n/a	n/a	-999	15	[0, 0, 0]	n/a	FR1	0	R1241J
1922.88	10.428	2030511	COUNTDOWN_START	n/a	n/a	n/a	-999	15	[0, 0, 0]	n/a	FR1	0	R1241J
1933.308	0.007	2040939	COUNTDOWN_END	n/a	n/a	n/a	-999	15	[0, 0, 0]	n/a	FR1	0	R1241J
1933.315	1.616	2040946	ORIENT	n/a	n/a	n/a	-999	15	[0, 0, 0]	n/a	FR1	0	R1241J
1934.931	2.168	2042562	ORIENT_OFF	n/a	n/a	n/a	-999	15	[0, 0, 0]	n/a	FR1	0	R1241J
1937.099	1.615	2044730	WORD	n/a	wordpools/wordpool_EN.txt	FAN	1	15	[0, 0, 0]	n/a	FR1	0	R1241J
1938.714	0.768	2046345	WORD_OFF	n/a	n/a	FAN	1	15	[0, 0, 0]	n/a	FR1	0	R1241J
1939.482	1.617	2047113	WORD	n/a	wordpools/wordpool_EN.txt	STRING	2	15	[0, 0, 0]	n/a	FR1	0	R1241J
1941.099	0.767	2048730	WORD_OFF	n/a	n/a	STRING	2	15	[0, 0, 0]	n/a	FR1	0	R1241J
1941.866	1.617	2049497	WORD	n/a	wordpools/wordpool_EN.txt	TEETH	3	15	[0, 0, 0]	n/a	FR1	0	R1241J
1943.483	0.9	2051114	WORD_OFF	n/a	n/a	TEETH	3	15	[0, 0, 0]	n/a	FR1	0	R1241J
1944.383	1.617	2052014	WORD	n/a	wordpools/wordpool_EN.txt	THUMB	4	15	[0, 0, 0]	n/a	FR1	0	R1241J
1946.0	0.8	2053631	WORD_OFF	n/a	n/a	THUMB	4	15	[0, 0, 0]	n/a	FR1	0	R1241J
1946.8	1.617	2054431	WORD	n/a	wordpools/wordpool_EN.txt	SLIME	5	15	[0, 0, 0]	n/a	FR1	0	R1241J
1948.417	0.883	2056048	WORD_OFF	n/a	n/a	SLIME	5	15	[0, 0, 0]	n/a	FR1	0	R1241J
1949.3	1.617	2056931	WORD	n/a	wordpools/wordpool_EN.txt	YARD	6	15	[0, 0, 0]	n/a	FR1	0	R1241J
1950.917	0.984	2058548	WORD_OFF	n/a	n/a	YARD	6	15	[0, 0, 0]	n/a	FR1	0	R1241J
1951.901	1.616	2059532	WORD	n/a	wordpools/wordpool_EN.txt	PASTE	7	15	[0, 0, 0]	n/a	FR1	0	R1241J
1953.517	0.884	2061148	WORD_OFF	n/a	n/a	PASTE	7	15	[0, 0, 0]	n/a	FR1	0	R1241J
1954.401	1.617	2062032	WORD	n/a	wordpools/wordpool_EN.txt	NOSE	8	15	[0, 0, 0]	n/a	FR1	0	R1241J
1956.018	1.017	2063649	WORD_OFF	n/a	n/a	NOSE	8	15	[0, 0, 0]	n/a	FR1	0	R1241J
1957.035	1.615	2064666	WORD	n/a	wordpools/wordpool_EN.txt	BOOT	9	15	[0, 0, 0]	n/a	FR1	0	R1241J
1958.65	0.902	2066281	WORD_OFF	n/a	n/a	BOOT	9	15	[0, 0, 0]	n/a	FR1	0	R1241J
1959.552	1.617	2067183	WORD	n/a	wordpools/wordpool_EN.txt	PURSE	10	15	[0, 0, 0]	n/a	FR1	0	R1241J
1961.169	1.016	2068800	WORD_OFF	n/a	n/a	PURSE	10	15	[0, 0, 0]	n/a	FR1	0	R1241J
1962.185	1.617	2069816	WORD	n/a	wordpools/wordpool_EN.txt	STRAW	11	15	[0, 0, 0]	n/a	FR1	0	R1241J
1963.802	0.815	2071433	WORD_OFF	n/a	n/a	STRAW	11	15	[0, 0, 0]	n/a	FR1	0	R1241J
1964.617	1.619	2072248	WORD	n/a	wordpools/wordpool_EN.txt	MUD	12	15	[0, 0, 0]	n/a	FR1	0	R1241J
1966.236	0.0	2073867	WORD_OFF	n/a	n/a	MUD	12	15	[0, 0, 0]	n/a	FR1	0	R1241J
1966.236	0.0	2073867	DISTRACT_START	n/a	n/a	n/a	-999	15	[0, 0, 0]	n/a	FR1	0	R1241J
1966.236	0.016	2073867	START	n/a	n/a	n/a	-999	15	[-999, -999, -999]	n/a	FR1	0	R1241J
1966.252	5.785	2073883	PROB	5.785	n/a	n/a	-999	15	[9, 3, 8]	20	FR1	0	R1241J
1972.037	4.317	2079668	PROB	4.317	n/a	n/a	-999	15	[9, 6, 7]	22	FR1	0	R1241J
1976.354	4.0	2083985	PROB	4.0	n/a	n/a	-999	15	[3, 2, 8]	13	FR1	0	R1241J
1980.354	4.734	2087985	PROB	4.734	n/a	n/a	-999	15	[6, 4, 9]	19	FR1	0	R1241J
1985.088	4.115	2092719	PROB	4.115	n/a	n/a	-999	15	[4, 9, 2]	15	FR1	0	R1241J
1989.203	0.019	2096834	STOP	n/a	n/a	n/a	-999	15	[-999, -999, -999]	n/a	FR1	0	R1241J
1989.222	0.667	2096853	DISTRACT_END	n/a	n/a	n/a	-999	15	[0, 0, 0]	n/a	FR1	0	R1241J
1989.889	0.517	2097520	RETRIEVAL_ORIENT	n/a	n/a	n/a	-999	15	[0, 0, 0]	n/a	FR1	0	R1241J
1990.406	30.0	2098037	REC_START	n/a	n/a	n/a	-999	15	[0, 0, 0]	n/a	FR1	0	R1241J
2020.406	0.013	2128037	REC_WORD_VV	0.013	n/a	<>	-999	15	[0, 0, 0]	n/a	FR1	0	R1241J
2020.419	5.441	2128050	REC_END	n/a	n/a	n/a	-999	15	[0, 0, 0]	n/a	FR1	0	R1241J
2025.86	0.5	2133491	TRIAL	n/a	n/a	n/a	-999	16	[0, 0, 0]	n/a	FR1	0	R1241J
2026.36	10.428	2133991	COUNTDOWN_START	n/a	n/a	n/a	-999	16	[0, 0, 0]	n/a	FR1	0	R1241J
2036.788	0.007	2144419	COUNTDOWN_END	n/a	n/a	n/a	-999	16	[0, 0, 0]	n/a	FR1	0	R1241J
2036.795	1.617	2144426	ORIENT	n/a	n/a	n/a	-999	16	[0, 0, 0]	n/a	FR1	0	R1241J
2038.412	2.117	2146043	ORIENT_OFF	n/a	n/a	n/a	-999	16	[0, 0, 0]	n/a	FR1	0	R1241J
2040.529	1.617	2148160	WORD	n/a	wordpools/wordpool_EN.txt	PLANT	1	16	[0, 0, 0]	n/a	FR1	0	R1241J
2042.146	0.949	2149777	WORD_OFF	n/a	n/a	PLANT	1	16	[0, 0, 0]	n/a	FR1	0	R1241J
2043.095	1.616	2150726	WORD	n/a	wordpools/wordpool_EN.txt	STAR	2	16	[0, 0, 0]	n/a	FR1	0	R1241J
2044.711	0.835	2152342	WORD_OFF	n/a	n/a	STAR	2	16	[0, 0, 0]	n/a	FR1	0	R1241J
2045.546	1.617	2153177	WORD	n/a	wordpools/wordpool_EN.txt	CAPE	3	16	[0, 0, 0]	n/a	FR1	0	R1241J
2047.163	0.85	2154794	WORD_OFF	n/a	n/a	CAPE	3	16	[0, 0, 0]	n/a	FR1	0	R1241J
2048.013	1.616	2155644	WORD	n/a	wordpools/wordpool_EN.txt	SEAL	4	16	[0, 0, 0]	n/a	FR1	0	R1241J
2049.629	0.767	2157260	WORD_OFF	n/a	n/a	SEAL	4	16	[0, 0, 0]	n/a	FR1	0	R1241J
2050.396	1.617	2158027	WORD	n/a	wordpools/wordpool_EN.txt	LAND	5	16	[0, 0, 0]	n/a	FR1	0	R1241J
2052.013	0.901	2159644	WORD_OFF	n/a	n/a	LAND	5	16	[0, 0, 0]	n/a	FR1	0	R1241J
2052.914	1.616	2160545	WORD	n/a	wordpools/wordpool_EN.txt	RICE	6	16	[0, 0, 0]	n/a	FR1	0	R1241J
2054.53	0.767	2162161	WORD_OFF	n/a	n/a	RICE	6	16	[0, 0, 0]	n/a	FR1	0	R1241J
2055.297	1.617	2162928	WORD	n/a	wordpools/wordpool_EN.txt	BEACH	7	16	[0, 0, 0]	n/a	FR1	0	R1241J
2056.914	0.833	2164545	WORD_OFF	n/a	n/a	BEACH	7	16	[0, 0, 0]	n/a	FR1	0	R1241J
2057.747	1.617	2165378	WORD	n/a	wordpools/wordpool_EN.txt	FOOD	8	16	[0, 0, 0]	n/a	FR1	0	R1241J
2059.364	0.9	2166995	WORD_OFF	n/a	n/a	FOOD	8	16	[0, 0, 0]	n/a	FR1	0	R1241J
2060.264	1.617	2167895	WORD	n/a	wordpools/wordpool_EN.txt	MOON	9	16	[0, 0, 0]	n/a	FR1	0	R1241J
2061.881	0.984	2169512	WORD_OFF	n/a	n/a	MOON	9	16	[0, 0, 0]	n/a	FR1	0	R1241J
2062.865	1.616	2170496	WORD	n/a	wordpools/wordpool_EN.txt	BLOOM	10	16	[0, 0, 0]	n/a	FR1	0	R1241J
2064.481	0.817	2172112	WORD_OFF	n/a	n/a	BLOOM	10	16	[0, 0, 0]	n/a	FR1	0	R1241J
2065.298	1.617	2172929	WORD	n/a	wordpools/wordpool_EN.txt	WHALE	11	16	[0, 0, 0]	n/a	FR1	0	R1241J
2066.915	0.984	2174546	WORD_OFF	n/a	n/a	WHALE	11	16	[0, 0, 0]	n/a	FR1	0	R1241J
2067.899	1.617	2175530	WORD	n/a	wordpools/wordpool_EN.txt	SUN	12	16	[0, 0, 0]	n/a	FR1	0	R1241J
2069.516	0.0	2177147	WORD_OFF	n/a	n/a	SUN	12	16	[0, 0, 0]	n/a	FR1	0	R1241J
2069.516	0.0	2177147	DISTRACT_START	n/a	n/a	n/a	-999	16	[0, 0, 0]	n/a	FR1	0	R1241J
2069.516	0.016	2177147	START	n/a	n/a	n/a	-999	16	[-999, -999, -999]	n/a	FR1	0	R1241J
2069.532	4.751	2177163	PROB	4.751	n/a	n/a	-999	16	[7, 4, 4]	15	FR1	0	R1241J
2074.283	5.234	2181915	PROB	5.234	n/a	n/a	-999	16	[5, 8, 4]	17	FR1	0	R1241J
2079.517	3.4	2187149	PROB	3.4	n/a	n/a	-999	16	[1, 6, 5]	12	FR1	0	R1241J
2082.917	4.484	2190549	PROB	4.484	n/a	n/a	-999	16	[3, 9, 5]	17	FR1	0	R1241J
2087.401	5.669	2195033	PROB	5.669	n/a	n/a	-999	16	[4, 4, 5]	12	FR1	0	R1241J
2093.07	0.015	2200702	STOP	n/a	n/a	n/a	-999	16	[-999, -999, -999]	n/a	FR1	0	R1241J
2093.085	0.599	2200717	DISTRACT_END	n/a	n/a	n/a	-999	16	[0, 0, 0]	n/a	FR1	0	R1241J
2093.684	0.518	2201316	RETRIEVAL_ORIENT	n/a	n/a	n/a	-999	16	[0, 0, 0]	n/a	FR1	0	R1241J
2094.202	3.14	2201834	REC_START	n/a	n/a	n/a	-999	16	[0, 0, 0]	n/a	FR1	0	R1241J
2097.342	0.413	2204974	REC_WORD	0.413	n/a	PLANT	-999	16	[0, 0, 0]	n/a	FR1	0	R1241J
2097.755	0.83	2205387	REC_WORD	0.83	n/a	STAR	-999	16	[0, 0, 0]	n/a	FR1	0	R1241J
2098.585	0.874	2206217	REC_WORD	0.874	n/a	CAPE	-999	16	[0, 0, 0]	n/a	FR1	0	R1241J
2099.459	24.756	2207091	REC_WORD	24.756	n/a	ALE	-999	16	[0, 0, 0]	n/a	FR1	0	R1241J
2124.215	5.742	2231847	REC_END	n/a	n/a	n/a	-999	16	[0, 0, 0]	n/a	FR1	0	R1241J
2129.957	0.5	2237589	TRIAL	n/a	n/a	n/a	-999	17	[0, 0, 0]	n/a	FR1	0	R1241J
2130.457	10.428	2238089	COUNTDOWN_START	n/a	n/a	n/a	-999	17	[0, 0, 0]	n/a	FR1	0	R1241J
2140.885	0.006	2248517	COUNTDOWN_END	n/a	n/a	n/a	-999	17	[0, 0, 0]	n/a	FR1	0	R1241J
2140.891	1.617	2248523	ORIENT	n/a	n/a	n/a	-999	17	[0, 0, 0]	n/a	FR1	0	R1241J
2142.508	2.05	2250140	ORIENT_OFF	n/a	n/a	n/a	-999	17	[0, 0, 0]	n/a	FR1	0	R1241J
2144.558	1.617	2252190	WORD	n/a	wordpools/wordpool_EN.txt	PHONE	1	17	[0, 0, 0]	n/a	FR1	0	R1241J
2146.175	0.95	2253807	WORD_OFF	n/a	n/a	PHONE	1	17	[0, 0, 0]	n/a	FR1	0	R1241J
2147.125	1.617	2254757	WORD	n/a	wordpools/wordpool_EN.txt	BOWL	2	17	[0, 0, 0]	n/a	FR1	0	R1241J
2148.742	0.8	2256374	WORD_OFF	n/a	n/a	BOWL	2	17	[0, 0, 0]	n/a	FR1	0	R1241J
2149.542	1.617	2257174	WORD	n/a	wordpools/wordpool_EN.txt	DESK	3	17	[0, 0, 0]	n/a	FR1	0	R1241J
2151.159	0.901	2258791	WORD_OFF	n/a	n/a	DESK	3	17	[0, 0, 0]	n/a	FR1	0	R1241J
2152.06	1.615	2259692	WORD	n/a	wordpools/wordpool_EN.txt	STICK	4	17	[0, 0, 0]	n/a	FR1	0	R1241J
2153.675	1.0	2261307	WORD_OFF	n/a	n/a	STICK	4	17	[0, 0, 0]	n/a	FR1	0	R1241J
2154.675	1.618	2262307	WORD	n/a	wordpools/wordpool_EN.txt	BRUSH	5	17	[0, 0, 0]	n/a	FR1	0	R1241J
2156.293	0.934	2263925	WORD_OFF	n/a	n/a	BRUSH	5	17	[0, 0, 0]	n/a	FR1	0	R1241J
2157.227	1.617	2264859	WORD	n/a	wordpools/wordpool_EN.txt	TOE	6	17	[0, 0, 0]	n/a	FR1	0	R1241J
2158.844	0.815	2266476	WORD_OFF	n/a	n/a	TOE	6	17	[0, 0, 0]	n/a	FR1	0	R1241J
2159.659	1.618	2267291	WORD	n/a	wordpools/wordpool_EN.txt	INK	7	17	[0, 0, 0]	n/a	FR1	0	R1241J
2161.277	0.784	2268909	WORD_OFF	n/a	n/a	INK	7	17	[0, 0, 0]	n/a	FR1	0	R1241J
2162.061	1.615	2269693	WORD	n/a	wordpools/wordpool_EN.txt	LAMB	8	17	[0, 0, 0]	n/a	FR1	0	R1241J
2163.676	0.835	2271308	WORD_OFF	n/a	n/a	LAMB	8	17	[0, 0, 0]	n/a	FR1	0	R1241J
2164.511	1.617	2272143	WORD	n/a	wordpools/wordpool_EN.txt	OAR	9	17	[0, 0, 0]	n/a	FR1	0	R1241J
2166.128	0.833	2273760	WORD_OFF	n/a	n/a	OAR	9	17	[0, 0, 0]	n/a	FR1	0	R1241J
2166.961	1.616	2274593	WORD	n/a	wordpools/wordpool_EN.txt	FOAM	10	17	[0, 0, 0]	n/a	FR1	0	R1241J
2168.577	0.968	2276209	WORD_OFF	n/a	n/a	FOAM	10	17	[0, 0, 0]	n/a	FR1	0	R1241J
2169.545	1.617	2277177	WORD	n/a	wordpools/wordpool_EN.txt	SMILE	11	17	[0, 0, 0]	n/a	FR1	0	R1241J
2171.162	0.767	2278794	WORD_OFF	n/a	n/a	SMILE	11	17	[0, 0, 0]	n/a	FR1	0	R1241J
2171.929	1.616	2279561	WORD	n/a	wordpools/wordpool_EN.txt	STOVE	12	17	[0, 0, 0]	n/a	FR1	0	R1241J
2173.545	0.0	2281177	WORD_OFF	n/a	n/a	STOVE	12	17	[0, 0, 0]	n/a	FR1	0	R1241J
2173.545	0.001	2281177	DISTRACT_START	n/a	n/a	n/a	-999	17	[0, 0, 0]	n/a	FR1	0	R1241J
2173.546	0.016	2281178	START	n/a	n/a	n/a	-999	17	[-999, -999, -999]	n/a	FR1	0	R1241J
2173.562	4.684	2281194	PROB	4.684	n/a	n/a	-999	17	[1, 2, 4]	7	FR1	0	R1241J
2178.246	3.901	2285878	PROB	3.901	n/a	n/a	-999	17	[2, 7, 8]	17	FR1	0	R1241J
2182.147	3.449	2289779	PROB	3.449	n/a	n/a	-999	17	[4, 4, 6]	14	FR1	0	R1241J
2185.596	3.385	2293228	PROB	3.385	n/a	n/a	-999	17	[4, 3, 5]	12	FR1	0	R1241J
2188.981	3.934	2296613	PROB	3.934	n/a	n/a	-999	17	[3, 7, 6]	16	FR1	0	R1241J
2192.915	3.393	2300547	PROB	3.393	n/a	n/a	-999	17	[6, 1, 2]	9	FR1	0	R1241J
2196.308	0.007	2303940	STOP	n/a	n/a	n/a	-999	17	[-999, -999, -999]	n/a	FR1	0	R1241J
2196.315	0.6	2303947	DISTRACT_END	n/a	n/a	n/a	-999	17	[0, 0, 0]	n/a	FR1	0	R1241J
2196.915	0.518	2304547	RETRIEVAL_ORIENT	n/a	n/a	n/a	-999	17	[0, 0, 0]	n/a	FR1	0	R1241J
2197.433	2.01	2305065	REC_START	n/a	n/a	n/a	-999	17	[0, 0, 0]	n/a	FR1	0	R1241J
2199.443	1.92	2307075	REC_WORD	1.92	n/a	PHONE	-999	17	[0, 0, 0]	n/a	FR1	0	R1241J
2201.363	2.28	2308995	REC_WORD	2.28	n/a	BOWL	-999	17	[0, 0, 0]	n/a	FR1	0	R1241J
2203.643	2.157	2311275	REC_WORD	2.157	n/a	AGE	-999	17	[0, 0, 0]	n/a	FR1	0	R1241J
2205.8	21.646	2313432	REC_WORD	21.646	n/a	GOAT	-999	17	[0, 0, 0]	n/a	FR1	0	R1241J
2227.446	5.491	2335078	REC_END	n/a	n/a	n/a	-999	17	[0, 0, 0]	n/a	FR1	0	R1241J
2232.937	0.5	2340569	TRIAL	n/a	n/a	n/a	-999	18	[0, 0, 0]	n/a	FR1	0	R1241J
2233.437	10.428	2341069	COUNTDOWN_START	n/a	n/a	n/a	-999	18	[0, 0, 0]	n/a	FR1	0	R1241J
2243.865	0.006	2351497	COUNTDOWN_END	n/a	n/a	n/a	-999	18	[0, 0, 0]	n/a	FR1	0	R1241J
2243.871	1.617	2351503	ORIENT	n/a	n/a	n/a	-999	18	[0, 0, 0]	n/a	FR1	0	R1241J
2245.488	1.984	2353120	ORIENT_OFF	n/a	n/a	n/a	-999	18	[0, 0, 0]	n/a	FR1	0	R1241J
2247.472	1.617	2355104	WORD	n/a	wordpools/wordpool_EN.txt	SALT	1	18	[0, 0, 0]	n/a	FR1	0	R1241J
2249.089	0.883	2356721	WORD_OFF	n/a	n/a	SALT	1	18	[0, 0, 0]	n/a	FR1	0	R1241J
2249.972	1.616	2357604	WORD	n/a	wordpools/wordpool_EN.txt	MOUTH	2	18	[0, 0, 0]	n/a	FR1	0	R1241J
2251.588	0.884	2359220	WORD_OFF	n/a	n/a	MOUTH	2	18	[0, 0, 0]	n/a	FR1	0	R1241J
2252.472	1.617	2360104	WORD	n/a	wordpools/wordpool_EN.txt	CROWN	3	18	[0, 0, 0]	n/a	FR1	0	R1241J
2254.089	1.0	2361721	WORD_OFF	n/a	n/a	CROWN	3	18	[0, 0, 0]	n/a	FR1	0	R1241J
2255.089	1.616	2362721	WORD	n/a	wordpools/wordpool_EN.txt	JUICE	4	18	[0, 0, 0]	n/a	FR1	0	R1241J
2256.705	0.984	2364337	WORD_OFF	n/a	n/a	JUICE	4	18	[0, 0, 0]	n/a	FR1	0	R1241J
2257.689	1.618	2365321	WORD	n/a	wordpools/wordpool_EN.txt	VASE	5	18	[0, 0, 0]	n/a	FR1	0	R1241J
2259.307	1.0	2366939	WORD_OFF	n/a	n/a	VASE	5	18	[0, 0, 0]	n/a	FR1	0	R1241J
2260.307	1.617	2367939	WORD	n/a	wordpools/wordpool_EN.txt	DOLL	6	18	[0, 0, 0]	n/a	FR1	0	R1241J
2261.924	0.9	2369556	WORD_OFF	n/a	n/a	DOLL	6	18	[0, 0, 0]	n/a	FR1	0	R1241J
2262.824	1.616	2370456	WORD	n/a	wordpools/wordpool_EN.txt	THREAD	7	18	[0, 0, 0]	n/a	FR1	0	R1241J
2264.44	0.967	2372072	WORD_OFF	n/a	n/a	THREAD	7	18	[0, 0, 0]	n/a	FR1	0	R1241J
2265.407	1.617	2373039	WORD	n/a	wordpools/wordpool_EN.txt	SLUSH	8	18	[0, 0, 0]	n/a	FR1	0	R1241J
2267.024	0.817	2374656	WORD_OFF	n/a	n/a	SLUSH	8	18	[0, 0, 0]	n/a	FR1	0	R1241J
2267.841	1.617	2375473	WORD	n/a	wordpools/wordpool_EN.txt	WORM	9	18	[0, 0, 0]	n/a	FR1	0	R1241J
2269.458	0.933	2377090	WORD_OFF	n/a	n/a	WORM	9	18	[0, 0, 0]	n/a	FR1	0	R1241J
2270.391	1.617	2378023	WORD	n/a	wordpools/wordpool_EN.txt	ROOM	10	18	[0, 0, 0]	n/a	FR1	0	R1241J
2272.008	1.017	2379640	WORD_OFF	n/a	n/a	ROOM	10	18	[0, 0, 0]	n/a	FR1	0	R1241J
2273.025	1.616	2380657	WORD	n/a	wordpools/wordpool_EN.txt	GOLD	11	18	[0, 0, 0]	n/a	FR1	0	R1241J
2274.641	0.884	2382273	WORD_OFF	n/a	n/a	GOLD	11	18	[0, 0, 0]	n/a	FR1	0	R1241J
2275.525	1.617	2383157	WORD	n/a	wordpools/wordpool_EN.txt	BREAD	12	18	[0, 0, 0]	n/a	FR1	0	R1241J
2277.142	0.0	2384774	WORD_OFF	n/a	n/a	BREAD	12	18	[0, 0, 0]	n/a	FR1	0	R1241J
2277.142	0.001	2384774	DISTRACT_START	n/a	n/a	n/a	-999	18	[0, 0, 0]	n/a	FR1	0	R1241J
2277.143	0.016	2384775	START	n/a	n/a	n/a	-999	18	[-999, -999, -999]	n/a	FR1	0	R1241J
2277.159	4.8	2384791	PROB	4.8	n/a	n/a	-999	18	[2, 7, 8]	17	FR1	0	R1241J
2281.959	3.584	2389591	PROB	3.584	n/a	n/a	-999	18	[1, 7, 2]	10	FR1	0	R1241J
2285.543	3.667	2393175	PROB	3.667	n/a	n/a	-999	18	[8, 1, 5]	14	FR1	0	R1241J
2289.21	4.567	2396842	PROB	4.567	n/a	n/a	-999	18	[6, 8, 6]	20	FR1	0	R1241J
2293.777	4.046	2401409	PROB	4.046	n/a	n/a	-999	18	[8, 1, 7]	16	FR1	0	R1241J
2297.823	0.022	2405455	STOP	n/a	n/a	n/a	-999	18	[-999, -999, -999]	n/a	FR1	0	R1241J
2297.845	0.633	2405477	DISTRACT_END	n/a	n/a	n/a	-999	18	[0, 0, 0]	n/a	FR1	0	R1241J
2298.478	0.517	2406110	RETRIEVAL_ORIENT	n/a	n/a	n/a	-999	18	[0, 0, 0]	n/a	FR1	0	R1241J
2298.995	1.014	2406627	REC_START	n/a	n/a	n/a	-999	18	[0, 0, 0]	n/a	FR1	0	R1241J
2300.009	0.631	2407641	REC_WORD	0.631	n/a	SALT	-999	18	[0, 0, 0]	n/a	FR1	0	R1241J
2300.64	0.58	2408272	REC_WORD	0.58	n/a	MOUTH	-999	18	[0, 0, 0]	n/a	FR1	0	R1241J
2301.22	27.786	2408852	REC_WORD	27.786	n/a	CROWN	-999	18	[0, 0, 0]	n/a	FR1	0	R1241J
2329.006	5.692	2436638	REC_END	n/a	n/a	n/a	-999	18	[0, 0, 0]	n/a	FR1	0	R1241J
2334.698	0.5	2442330	TRIAL	n/a	n/a	n/a	-999	19	[0, 0, 0]	n/a	FR1	0	R1241J
2335.198	10.428	2442830	COUNTDOWN_START	n/a	n/a	n/a	-999	19	[0, 0, 0]	n/a	FR1	0	R1241J
2345.626	0.007	2453258	COUNTDOWN_END	n/a	n/a	n/a	-999	19	[0, 0, 0]	n/a	FR1	0	R1241J
2345.633	1.601	2453265	ORIENT	n/a	n/a	n/a	-999	19	[0, 0, 0]	n/a	FR1	0	R1241J
2347.234	1.934	2454866	ORIENT_OFF	n/a	n/a	n/a	-999	19	[0, 0, 0]	n/a	FR1	0	R1241J
2349.168	1.617	2456800	WORD	n/a	wordpools/wordpool_EN.txt	MOUSE	1	19	[0, 0, 0]	n/a	FR1	0	R1241J
2350.785	0.916	2458417	WORD_OFF	n/a	n/a	MOUSE	1	19	[0, 0, 0]	n/a	FR1	0	R1241J
2351.701	1.617	2459333	WORD	n/a	wordpools/wordpool_EN.txt	SHEEP	2	19	[0, 0, 0]	n/a	FR1	0	R1241J
2353.318	0.984	2460950	WORD_OFF	n/a	n/a	SHEEP	2	19	[0, 0, 0]	n/a	FR1	0	R1241J
2354.302	1.617	2461934	WORD	n/a	wordpools/wordpool_EN.txt	CROW	3	19	[0, 0, 0]	n/a	FR1	0	R1241J
2355.919	0.782	2463551	WORD_OFF	n/a	n/a	CROW	3	19	[0, 0, 0]	n/a	FR1	0	R1241J
2356.701	1.618	2464333	WORD	n/a	wordpools/wordpool_EN.txt	MOTH	4	19	[0, 0, 0]	n/a	FR1	0	R1241J
2358.319	0.917	2465951	WORD_OFF	n/a	n/a	MOTH	4	19	[0, 0, 0]	n/a	FR1	0	R1241J
2359.236	1.617	2466868	WORD	n/a	wordpools/wordpool_EN.txt	CHIEF	5	19	[0, 0, 0]	n/a	FR1	0	R1241J
2360.853	0.967	2468485	WORD_OFF	n/a	n/a	CHIEF	5	19	[0, 0, 0]	n/a	FR1	0	R1241J
2361.82	1.616	2469452	WORD	n/a	wordpools/wordpool_EN.txt	WEB	6	19	[0, 0, 0]	n/a	FR1	0	R1241J
2363.436	0.984	2471068	WORD_OFF	n/a	n/a	WEB	6	19	[0, 0, 0]	n/a	FR1	0	R1241J
2364.42	1.617	2472052	WORD	n/a	wordpools/wordpool_EN.txt	CAT	7	19	[0, 0, 0]	n/a	FR1	0	R1241J
2366.037	0.833	2473669	WORD_OFF	n/a	n/a	CAT	7	19	[0, 0, 0]	n/a	FR1	0	R1241J
2366.87	1.617	2474502	WORD	n/a	wordpools/wordpool_EN.txt	TREE	8	19	[0, 0, 0]	n/a	FR1	0	R1241J
2368.487	1.0	2476119	WORD_OFF	n/a	n/a	TREE	8	19	[0, 0, 0]	n/a	FR1	0	R1241J
2369.487	1.617	2477119	WORD	n/a	wordpools/wordpool_EN.txt	HOOK	9	19	[0, 0, 0]	n/a	FR1	0	R1241J
2371.104	0.884	2478736	WORD_OFF	n/a	n/a	HOOK	9	19	[0, 0, 0]	n/a	FR1	0	R1241J
2371.988	1.615	2479620	WORD	n/a	wordpools/wordpool_EN.txt	SHARK	10	19	[0, 0, 0]	n/a	FR1	0	R1241J
2373.603	0.851	2481235	WORD_OFF	n/a	n/a	SHARK	10	19	[0, 0, 0]	n/a	FR1	0	R1241J
2374.454	1.617	2482086	WORD	n/a	wordpools/wordpool_EN.txt	PRINCE	11	19	[0, 0, 0]	n/a	FR1	0	R1241J
2376.071	0.784	2483703	WORD_OFF	n/a	n/a	PRINCE	11	19	[0, 0, 0]	n/a	FR1	0	R1241J
2376.855	1.617	2484487	WORD	n/a	wordpools/wordpool_EN.txt	BAT	12	19	[0, 0, 0]	n/a	FR1	0	R1241J
2378.472	0.0	2486104	WORD_OFF	n/a	n/a	BAT	12	19	[0, 0, 0]	n/a	FR1	0	R1241J
2378.472	0.0	2486104	DISTRACT_START	n/a	n/a	n/a	-999	19	[0, 0, 0]	n/a	FR1	0	R1241J
2378.472	0.016	2486104	START	n/a	n/a	n/a	-999	19	[-999, -999, -999]	n/a	FR1	0	R1241J
2378.488	4.701	2486120	PROB	4.701	n/a	n/a	-999	19	[1, 8, 7]	16	FR1	0	R1241J
2383.189	3.667	2490821	PROB	3.667	n/a	n/a	-999	19	[9, 2, 8]	19	FR1	0	R1241J
2386.856	3.551	2494488	PROB	3.551	n/a	n/a	-999	19	[8, 5, 8]	21	FR1	0	R1241J
2390.407	2.9	2498039	PROB	2.9	n/a	n/a	-999	19	[4, 6, 2]	12	FR1	0	R1241J
2393.307	5.696	2500939	PROB	5.696	n/a	n/a	-999	19	[5, 1, 6]	12	FR1	0	R1241J
2399.003	0.021	2506635	STOP	n/a	n/a	n/a	-999	19	[-999, -999, -999]	n/a	FR1	0	R1241J
2399.024	0.633	2506656	DISTRACT_END	n/a	n/a	n/a	-999	19	[0, 0, 0]	n/a	FR1	0	R1241J
2399.657	0.518	2507289	RETRIEVAL_ORIENT	n/a	n/a	n/a	-999	19	[0, 0, 0]	n/a	FR1	0	R1241J
2400.175	2.039	2507807	REC_START	n/a	n/a	n/a	-999	19	[0, 0, 0]	n/a	FR1	0	R1241J
2402.214	0.654	2509846	REC_WORD	0.654	n/a	SALT	-999	19	[0, 0, 0]	n/a	FR1	0	R1241J
2402.868	0.521	2510500	REC_WORD	0.521	n/a	MOUTH	-999	19	[0, 0, 0]	n/a	FR1	0	R1241J
2403.389	4.611	2511021	REC_WORD	4.611	n/a	CROWN	-999	19	[0, 0, 0]	n/a	FR1	0	R1241J
2408.0	6.629	2515632	REC_WORD	6.629	n/a	FUR	-999	19	[0, 0, 0]	n/a	FR1	0	R1241J
2414.629	15.559	2522261	REC_WORD	15.559	n/a	GOAT	-999	19	[0, 0, 0]	n/a	FR1	0	R1241J
2430.188	5.523	2537820	REC_END	n/a	n/a	n/a	-999	19	[0, 0, 0]	n/a	FR1	0	R1241J
2435.711	0.5	2543343	TRIAL	n/a	n/a	n/a	-999	20	[0, 0, 0]	n/a	FR1	0	R1241J
2436.211	10.428	2543843	COUNTDOWN_START	n/a	n/a	n/a	-999	20	[0, 0, 0]	n/a	FR1	0	R1241J
2446.639	0.007	2554271	COUNTDOWN_END	n/a	n/a	n/a	-999	20	[0, 0, 0]	n/a	FR1	0	R1241J
2446.646	1.601	2554278	ORIENT	n/a	n/a	n/a	-999	20	[0, 0, 0]	n/a	FR1	0	R1241J
2448.247	2.034	2555879	ORIENT_OFF	n/a	n/a	n/a	-999	20	[0, 0, 0]	n/a	FR1	0	R1241J
2450.281	1.617	2557913	WORD	n/a	wordpools/wordpool_EN.txt	TRAIN	1	20	[0, 0, 0]	n/a	FR1	0	R1241J
2451.898	0.983	2559530	WORD_OFF	n/a	n/a	TRAIN	1	20	[0, 0, 0]	n/a	FR1	0	R1241J
2452.881	1.617	2560513	WORD	n/a	wordpools/wordpool_EN.txt	JEEP	2	20	[0, 0, 0]	n/a	FR1	0	R1241J
2454.498	0.933	2562130	WORD_OFF	n/a	n/a	JEEP	2	20	[0, 0, 0]	n/a	FR1	0	R1241J
2455.431	1.617	2563063	WORD	n/a	wordpools/wordpool_EN.txt	LAWN	3	20	[0, 0, 0]	n/a	FR1	0	R1241J
2457.048	0.85	2564680	WORD_OFF	n/a	n/a	LAWN	3	20	[0, 0, 0]	n/a	FR1	0	R1241J
2457.898	1.617	2565530	WORD	n/a	wordpools/wordpool_EN.txt	CHALK	4	20	[0, 0, 0]	n/a	FR1	0	R1241J
2459.515	0.917	2567147	WORD_OFF	n/a	n/a	CHALK	4	20	[0, 0, 0]	n/a	FR1	0	R1241J
2460.432	1.617	2568064	WORD	n/a	wordpools/wordpool_EN.txt	HORSE	5	20	[0, 0, 0]	n/a	FR1	0	R1241J
2462.049	0.784	2569681	WORD_OFF	n/a	n/a	HORSE	5	20	[0, 0, 0]	n/a	FR1	0	R1241J
2462.833	1.616	2570465	WORD	n/a	wordpools/wordpool_EN.txt	DART	6	20	[0, 0, 0]	n/a	FR1	0	R1241J
2464.449	0.8	2572081	WORD_OFF	n/a	n/a	DART	6	20	[0, 0, 0]	n/a	FR1	0	R1241J
2465.249	1.617	2572881	WORD	n/a	wordpools/wordpool_EN.txt	HEN	7	20	[0, 0, 0]	n/a	FR1	0	R1241J
2466.866	1.0	2574498	WORD_OFF	n/a	n/a	HEN	7	20	[0, 0, 0]	n/a	FR1	0	R1241J
2467.866	1.617	2575498	WORD	n/a	wordpools/wordpool_EN.txt	FARM	8	20	[0, 0, 0]	n/a	FR1	0	R1241J
2469.483	0.851	2577115	WORD_OFF	n/a	n/a	FARM	8	20	[0, 0, 0]	n/a	FR1	0	R1241J
2470.334	1.616	2577966	WORD	n/a	wordpools/wordpool_EN.txt	ROAD	9	20	[0, 0, 0]	n/a	FR1	0	R1241J
2471.95	0.917	2579582	WORD_OFF	n/a	n/a	ROAD	9	20	[0, 0, 0]	n/a	FR1	0	R1241J
2472.867	1.617	2580499	WORD	n/a	wordpools/wordpool_EN.txt	STORE	10	20	[0, 0, 0]	n/a	FR1	0	R1241J
2474.484	0.8	2582116	WORD_OFF	n/a	n/a	STORE	10	20	[0, 0, 0]	n/a	FR1	0	R1241J
2475.284	1.617	2582916	WORD	n/a	wordpools/wordpool_EN.txt	PET	11	20	[0, 0, 0]	n/a	FR1	0	R1241J
2476.901	0.85	2584533	WORD_OFF	n/a	n/a	PET	11	20	[0, 0, 0]	n/a	FR1	0	R1241J
2477.751	1.617	2585383	WORD	n/a	wordpools/wordpool_EN.txt	RAT	12	20	[0, 0, 0]	n/a	FR1	0	R1241J
2479.368	0.0	2587000	WORD_OFF	n/a	n/a	RAT	12	20	[0, 0, 0]	n/a	FR1	0	R1241J
2479.368	0.001	2587000	DISTRACT_START	n/a	n/a	n/a	-999	20	[0, 0, 0]	n/a	FR1	0	R1241J
2479.369	0.016	2587001	START	n/a	n/a	n/a	-999	20	[-999, -999, -999]	n/a	FR1	0	R1241J
2479.385	5.133	2587017	PROB	5.133	n/a	n/a	-999	20	[4, 2, 4]	10	FR1	0	R1241J
2484.518	4.051	2592150	PROB	4.051	n/a	n/a	-999	20	[9, 3, 1]	13	FR1	0	R1241J
2488.569	3.651	2596201	PROB	3.651	n/a	n/a	-999	20	[7, 3, 2]	12	FR1	0	R1241J
2492.22	3.033	2599852	PROB	3.033	n/a	n/a	-999	20	[8, 2, 7]	17	FR1	0	R1241J
2495.253	4.084	2602885	PROB	4.084	n/a	n/a	-999	20	[3, 3, 2]	8	FR1	0	R1241J
2499.337	2.789	2606969	PROB	2.789	n/a	n/a	-999	20	[7, 3, 3]	13	FR1	0	R1241J
2502.126	0.012	2609758	STOP	n/a	n/a	n/a	-999	20	[-999, -999, -999]	n/a	FR1	0	R1241J
2502.138	0.549	2609770	DISTRACT_END	n/a	n/a	n/a	-999	20	[0, 0, 0]	n/a	FR1	0	R1241J
2502.687	0.518	2610319	RETRIEVAL_ORIENT	n/a	n/a	n/a	-999	20	[0, 0, 0]	n/a	FR1	0	R1241J
2503.205	2.184	2610837	REC_START	n/a	n/a	n/a	-999	20	[0, 0, 0]	n/a	FR1	0	R1241J
2505.389	2.099	2613021	REC_WORD	2.099	n/a	TRAIN	-999	20	[0, 0, 0]	n/a	FR1	0	R1241J
2507.488	0.564	2615120	REC_WORD	0.564	n/a	GOAT	-999	20	[0, 0, 0]	n/a	FR1	0	R1241J
2508.052	3.665	2615684	REC_WORD	3.665	n/a	PLACE	-999	20	[0, 0, 0]	n/a	FR1	0	R1241J
2511.717	3.706	2619349	REC_WORD	3.706	n/a	AGE	-999	20	[0, 0, 0]	n/a	FR1	0	R1241J
2515.423	2.215	2623055	REC_WORD	2.215	n/a	JEEP	-999	20	[0, 0, 0]	n/a	FR1	0	R1241J
2517.638	15.581	2625270	REC_WORD	15.581	n/a	SWORD	-999	20	[0, 0, 0]	n/a	FR1	0	R1241J
2533.219	5.557	2640851	REC_END	n/a	n/a	n/a	-999	20	[0, 0, 0]	n/a	FR1	0	R1241J
2538.776	0.5	2646408	TRIAL	n/a	n/a	n/a	-999	21	[0, 0, 0]	n/a	FR1	0	R1241J
2539.276	10.428	2646908	COUNTDOWN_START	n/a	n/a	n/a	-999	21	[0, 0, 0]	n/a	FR1	0	R1241J
2549.704	0.005	2657336	COUNTDOWN_END	n/a	n/a	n/a	-999	21	[0, 0, 0]	n/a	FR1	0	R1241J
2549.709	1.618	2657341	ORIENT	n/a	n/a	n/a	-999	21	[0, 0, 0]	n/a	FR1	0	R1241J
2551.327	1.967	2658959	ORIENT_OFF	n/a	n/a	n/a	-999	21	[0, 0, 0]	n/a	FR1	0	R1241J
2553.294	1.617	2660926	WORD	n/a	wordpools/wordpool_EN.txt	FILM	1	21	[0, 0, 0]	n/a	FR1	0	R1241J
2554.911	0.816	2662543	WORD_OFF	n/a	n/a	FILM	1	21	[0, 0, 0]	n/a	FR1	0	R1241J
2555.727	1.618	2663359	WORD	n/a	wordpools/wordpool_EN.txt	WAVE	2	21	[0, 0, 0]	n/a	FR1	0	R1241J
2557.345	0.9	2664977	WORD_OFF	n/a	n/a	WAVE	2	21	[0, 0, 0]	n/a	FR1	0	R1241J
2558.245	1.617	2665877	WORD	n/a	wordpools/wordpool_EN.txt	BALL	3	21	[0, 0, 0]	n/a	FR1	0	R1241J
2559.862	0.799	2667494	WORD_OFF	n/a	n/a	BALL	3	21	[0, 0, 0]	n/a	FR1	0	R1241J
2560.661	1.618	2668293	WORD	n/a	wordpools/wordpool_EN.txt	POLE	4	21	[0, 0, 0]	n/a	FR1	0	R1241J
2562.279	0.966	2669911	WORD_OFF	n/a	n/a	POLE	4	21	[0, 0, 0]	n/a	FR1	0	R1241J
2563.245	1.617	2670877	WORD	n/a	wordpools/wordpool_EN.txt	TOOTH	5	21	[0, 0, 0]	n/a	FR1	0	R1241J
2564.862	0.917	2672494	WORD_OFF	n/a	n/a	TOOTH	5	21	[0, 0, 0]	n/a	FR1	0	R1241J
2565.779	1.617	2673411	WORD	n/a	wordpools/wordpool_EN.txt	EGG	6	21	[0, 0, 0]	n/a	FR1	0	R1241J
2567.396	0.917	2675028	WORD_OFF	n/a	n/a	EGG	6	21	[0, 0, 0]	n/a	FR1	0	R1241J
2568.313	1.617	2675945	WORD	n/a	wordpools/wordpool_EN.txt	BOMB	7	21	[0, 0, 0]	n/a	FR1	0	R1241J
2569.93	0.85	2677562	WORD_OFF	n/a	n/a	BOMB	7	21	[0, 0, 0]	n/a	FR1	0	R1241J
2570.78	1.617	2678412	WORD	n/a	wordpools/wordpool_EN.txt	FISH	8	21	[0, 0, 0]	n/a	FR1	0	R1241J
2572.397	0.799	2680029	WORD_OFF	n/a	n/a	FISH	8	21	[0, 0, 0]	n/a	FR1	0	R1241J
2573.196	1.617	2680828	WORD	n/a	wordpools/wordpool_EN.txt	HEART	9	21	[0, 0, 0]	n/a	FR1	0	R1241J
2574.813	0.816	2682445	WORD_OFF	n/a	n/a	HEART	9	21	[0, 0, 0]	n/a	FR1	0	R1241J
2575.629	1.618	2683261	WORD	n/a	wordpools/wordpool_EN.txt	WEED	10	21	[0, 0, 0]	n/a	FR1	0	R1241J
2577.247	0.9	2684879	WORD_OFF	n/a	n/a	WEED	10	21	[0, 0, 0]	n/a	FR1	0	R1241J
2578.147	1.617	2685779	WORD	n/a	wordpools/wordpool_EN.txt	WHEEL	11	21	[0, 0, 0]	n/a	FR1	0	R1241J
2579.764	0.966	2687396	WORD_OFF	n/a	n/a	WHEEL	11	21	[0, 0, 0]	n/a	FR1	0	R1241J
2580.73	1.601	2688362	WORD	n/a	wordpools/wordpool_EN.txt	CORD	12	21	[0, 0, 0]	n/a	FR1	0	R1241J
2582.331	0.0	2689963	WORD_OFF	n/a	n/a	CORD	12	21	[0, 0, 0]	n/a	FR1	0	R1241J
2582.331	0.001	2689963	DISTRACT_START	n/a	n/a	n/a	-999	21	[0, 0, 0]	n/a	FR1	0	R1241J
2582.332	0.016	2689964	START	n/a	n/a	n/a	-999	21	[-999, -999, -999]	n/a	FR1	0	R1241J
2582.348	5.0	2689980	PROB	5.0	n/a	n/a	-999	21	[3, 3, 4]	10	FR1	0	R1241J
2587.348	5.784	2694980	PROB	5.784	n/a	n/a	-999	21	[9, 3, 4]	16	FR1	0	R1241J
2593.132	3.418	2700765	PROB	3.418	n/a	n/a	-999	21	[1, 9, 3]	13	FR1	0	R1241J
2596.55	4.367	2704183	PROB	4.367	n/a	n/a	-999	21	[2, 5, 9]	16	FR1	0	R1241J
2600.917	3.787	2708550	PROB	3.787	n/a	n/a	-999	21	[8, 5, 1]	14	FR1	0	R1241J
2604.704	0.012	2712337	STOP	n/a	n/a	n/a	-999	21	[-999, -999, -999]	n/a	FR1	0	R1241J
2604.716	0.551	2712349	DISTRACT_END	n/a	n/a	n/a	-999	21	[0, 0, 0]	n/a	FR1	0	R1241J
2605.267	0.518	2712900	RETRIEVAL_ORIENT	n/a	n/a	n/a	-999	21	[0, 0, 0]	n/a	FR1	0	R1241J
2605.785	3.362	2713418	REC_START	n/a	n/a	n/a	-999	21	[0, 0, 0]	n/a	FR1	0	R1241J
2609.147	2.006	2716780	REC_WORD	2.006	n/a	FILM	-999	21	[0, 0, 0]	n/a	FR1	0	R1241J
2611.153	24.643	2718786	REC_WORD	24.643	n/a	AGE	-999	21	[0, 0, 0]	n/a	FR1	0	R1241J
2635.796	5.693	2743429	REC_END	n/a	n/a	n/a	-999	21	[0, 0, 0]	n/a	FR1	0	R1241J
2641.489	0.5	2749122	TRIAL	n/a	n/a	n/a	-999	22	[0, 0, 0]	n/a	FR1	0	R1241J
2641.989	10.428	2749622	COUNTDOWN_START	n/a	n/a	n/a	-999	22	[0, 0, 0]	n/a	FR1	0	R1241J
2652.417	0.006	2760050	COUNTDOWN_END	n/a	n/a	n/a	-999	22	[0, 0, 0]	n/a	FR1	0	R1241J
2652.423	1.617	2760056	ORIENT	n/a	n/a	n/a	-999	22	[0, 0, 0]	n/a	FR1	0	R1241J
2654.04	2.167	2761673	ORIENT_OFF	n/a	n/a	n/a	-999	22	[0, 0, 0]	n/a	FR1	0	R1241J
2656.207	1.617	2763840	WORD	n/a	wordpools/wordpool_EN.txt	CANE	1	22	[0, 0, 0]	n/a	FR1	0	R1241J
2657.824	0.849	2765457	WORD_OFF	n/a	n/a	CANE	1	22	[0, 0, 0]	n/a	FR1	0	R1241J
2658.673	1.618	2766306	WORD	n/a	wordpools/wordpool_EN.txt	STORM	2	22	[0, 0, 0]	n/a	FR1	0	R1241J
2660.291	0.967	2767924	WORD_OFF	n/a	n/a	STORM	2	22	[0, 0, 0]	n/a	FR1	0	R1241J
2661.258	1.617	2768891	WORD	n/a	wordpools/wordpool_EN.txt	GATE	3	22	[0, 0, 0]	n/a	FR1	0	R1241J
2662.875	0.832	2770508	WORD_OFF	n/a	n/a	GATE	3	22	[0, 0, 0]	n/a	FR1	0	R1241J
2663.707	1.618	2771340	WORD	n/a	wordpools/wordpool_EN.txt	CAVE	4	22	[0, 0, 0]	n/a	FR1	0	R1241J
2665.325	0.967	2772958	WORD_OFF	n/a	n/a	CAVE	4	22	[0, 0, 0]	n/a	FR1	0	R1241J
2666.292	1.617	2773925	WORD	n/a	wordpools/wordpool_EN.txt	HOLE	5	22	[0, 0, 0]	n/a	FR1	0	R1241J
2667.909	1.0	2775542	WORD_OFF	n/a	n/a	HOLE	5	22	[0, 0, 0]	n/a	FR1	0	R1241J
2668.909	1.617	2776542	WORD	n/a	wordpools/wordpool_EN.txt	RIB	6	22	[0, 0, 0]	n/a	FR1	0	R1241J
2670.526	0.9	2778159	WORD_OFF	n/a	n/a	RIB	6	22	[0, 0, 0]	n/a	FR1	0	R1241J
2671.426	1.616	2779059	WORD	n/a	wordpools/wordpool_EN.txt	MOLE	7	22	[0, 0, 0]	n/a	FR1	0	R1241J
2673.042	0.901	2780675	WORD_OFF	n/a	n/a	MOLE	7	22	[0, 0, 0]	n/a	FR1	0	R1241J
2673.943	1.617	2781576	WORD	n/a	wordpools/wordpool_EN.txt	ROOF	8	22	[0, 0, 0]	n/a	FR1	0	R1241J
2675.56	1.0	2783193	WORD_OFF	n/a	n/a	ROOF	8	22	[0, 0, 0]	n/a	FR1	0	R1241J
2676.56	1.617	2784193	WORD	n/a	wordpools/wordpool_EN.txt	AXE	9	22	[0, 0, 0]	n/a	FR1	0	R1241J
2678.177	0.883	2785810	WORD_OFF	n/a	n/a	AXE	9	22	[0, 0, 0]	n/a	FR1	0	R1241J
2679.06	1.616	2786693	WORD	n/a	wordpools/wordpool_EN.txt	FLOOR	10	22	[0, 0, 0]	n/a	FR1	0	R1241J
2680.676	0.984	2788309	WORD_OFF	n/a	n/a	FLOOR	10	22	[0, 0, 0]	n/a	FR1	0	R1241J
2681.66	1.617	2789293	WORD	n/a	wordpools/wordpool_EN.txt	SHIELD	11	22	[0, 0, 0]	n/a	FR1	0	R1241J
2683.277	0.784	2790910	WORD_OFF	n/a	n/a	SHIELD	11	22	[0, 0, 0]	n/a	FR1	0	R1241J
2684.061	1.616	2791694	WORD	n/a	wordpools/wordpool_EN.txt	BEE	12	22	[0, 0, 0]	n/a	FR1	0	R1241J
2685.677	0.0	2793310	DISTRACT_START	n/a	n/a	n/a	-999	22	[0, 0, 0]	n/a	FR1	0	R1241J
2685.677	0.0	2793310	WORD_OFF	n/a	n/a	BEE	12	22	[0, 0, 0]	n/a	FR1	0	R1241J
2685.677	0.016	2793310	START	n/a	n/a	n/a	-999	22	[-999, -999, -999]	n/a	FR1	0	R1241J
2685.693	5.052	2793326	PROB	5.052	n/a	n/a	-999	22	[6, 4, 5]	15	FR1	0	R1241J
2690.745	5.933	2798378	PROB	5.933	n/a	n/a	-999	22	[8, 4, 6]	18	FR1	0	R1241J
2696.678	3.568	2804311	PROB	3.568	n/a	n/a	-999	22	[5, 6, 3]	14	FR1	0	R1241J
2700.246	3.284	2807879	PROB	3.284	n/a	n/a	-999	22	[7, 3, 4]	14	FR1	0	R1241J
2703.53	3.652	2811163	PROB	3.652	n/a	n/a	-999	22	[9, 4, 9]	22	FR1	0	R1241J
2707.182	0.015	2814815	STOP	n/a	n/a	n/a	-999	22	[-999, -999, -999]	n/a	FR1	0	R1241J
2707.197	0.617	2814830	DISTRACT_END	n/a	n/a	n/a	-999	22	[0, 0, 0]	n/a	FR1	0	R1241J
2707.814	0.517	2815447	RETRIEVAL_ORIENT	n/a	n/a	n/a	-999	22	[0, 0, 0]	n/a	FR1	0	R1241J
2708.331	1.918	2815964	REC_START	n/a	n/a	n/a	-999	22	[0, 0, 0]	n/a	FR1	0	R1241J
2710.249	0.726	2817882	REC_WORD	0.726	n/a	KING	-999	22	[0, 0, 0]	n/a	FR1	0	R1241J
2710.975	3.406	2818608	REC_WORD	3.406	n/a	MOTH	-999	22	[0, 0, 0]	n/a	FR1	0	R1241J
2714.381	2.727	2822014	REC_WORD	2.727	n/a	ROOF	-999	22	[0, 0, 0]	n/a	FR1	0	R1241J
2717.108	21.234	2824741	REC_WORD	21.234	n/a	PLANE	-999	22	[0, 0, 0]	n/a	FR1	0	R1241J
2738.342	5.476	2845975	REC_END	n/a	n/a	n/a	-999	22	[0, 0, 0]	n/a	FR1	0	R1241J
2743.818	0.5	2851451	TRIAL	n/a	n/a	n/a	-999	23	[0, 0, 0]	n/a	FR1	0	R1241J
2744.318	10.428	2851951	COUNTDOWN_START	n/a	n/a	n/a	-999	23	[0, 0, 0]	n/a	FR1	0	R1241J
2754.746	0.007	2862379	COUNTDOWN_END	n/a	n/a	n/a	-999	23	[0, 0, 0]	n/a	FR1	0	R1241J
2754.753	1.617	2862386	ORIENT	n/a	n/a	n/a	-999	23	[0, 0, 0]	n/a	FR1	0	R1241J
2756.37	2.017	2864003	ORIENT_OFF	n/a	n/a	n/a	-999	23	[0, 0, 0]	n/a	FR1	0	R1241J
2758.387	1.617	2866020	WORD	n/a	wordpools/wordpool_EN.txt	LEAF	1	23	[0, 0, 0]	n/a	FR1	0	R1241J
2760.004	0.883	2867637	WORD_OFF	n/a	n/a	LEAF	1	23	[0, 0, 0]	n/a	FR1	0	R1241J
2760.887	1.617	2868520	WORD	n/a	wordpools/wordpool_EN.txt	MAP	2	23	[0, 0, 0]	n/a	FR1	0	R1241J
2762.504	0.85	2870137	WORD_OFF	n/a	n/a	MAP	2	23	[0, 0, 0]	n/a	FR1	0	R1241J
2763.354	1.617	2870987	WORD	n/a	wordpools/wordpool_EN.txt	MILK	3	23	[0, 0, 0]	n/a	FR1	0	R1241J
2764.971	0.916	2872604	WORD_OFF	n/a	n/a	MILK	3	23	[0, 0, 0]	n/a	FR1	0	R1241J
2765.887	1.618	2873520	WORD	n/a	wordpools/wordpool_EN.txt	HOOF	4	23	[0, 0, 0]	n/a	FR1	0	R1241J
2767.505	0.967	2875138	WORD_OFF	n/a	n/a	HOOF	4	23	[0, 0, 0]	n/a	FR1	0	R1241J
2768.472	1.617	2876105	WORD	n/a	wordpools/wordpool_EN.txt	SNAIL	5	23	[0, 0, 0]	n/a	FR1	0	R1241J
2770.089	0.766	2877722	WORD_OFF	n/a	n/a	SNAIL	5	23	[0, 0, 0]	n/a	FR1	0	R1241J
2770.855	1.617	2878488	WORD	n/a	wordpools/wordpool_EN.txt	SHELL	6	23	[0, 0, 0]	n/a	FR1	0	R1241J
2772.472	0.967	2880105	WORD_OFF	n/a	n/a	SHELL	6	23	[0, 0, 0]	n/a	FR1	0	R1241J
2773.439	1.617	2881072	WORD	n/a	wordpools/wordpool_EN.txt	STAIR	7	23	[0, 0, 0]	n/a	FR1	0	R1241J
2775.056	0.9	2882689	WORD_OFF	n/a	n/a	STAIR	7	23	[0, 0, 0]	n/a	FR1	0	R1241J
2775.956	1.617	2883589	WORD	n/a	wordpools/wordpool_EN.txt	SEED	8	23	[0, 0, 0]	n/a	FR1	0	R1241J
2777.573	0.783	2885206	WORD_OFF	n/a	n/a	SEED	8	23	[0, 0, 0]	n/a	FR1	0	R1241J
2778.356	1.617	2885989	WORD	n/a	wordpools/wordpool_EN.txt	CORN	9	23	[0, 0, 0]	n/a	FR1	0	R1241J
2779.973	0.867	2887606	WORD_OFF	n/a	n/a	CORN	9	23	[0, 0, 0]	n/a	FR1	0	R1241J
2780.84	1.617	2888473	WORD	n/a	wordpools/wordpool_EN.txt	ROOT	10	23	[0, 0, 0]	n/a	FR1	0	R1241J
2782.457	0.8	2890090	WORD_OFF	n/a	n/a	ROOT	10	23	[0, 0, 0]	n/a	FR1	0	R1241J
2783.257	1.617	2890890	WORD	n/a	wordpools/wordpool_EN.txt	SHRIMP	11	23	[0, 0, 0]	n/a	FR1	0	R1241J
2784.874	1.0	2892507	WORD_OFF	n/a	n/a	SHRIMP	11	23	[0, 0, 0]	n/a	FR1	0	R1241J
2785.874	1.617	2893507	WORD	n/a	wordpools/wordpool_EN.txt	ANT	12	23	[0, 0, 0]	n/a	FR1	0	R1241J
2787.491	0.0	2895124	WORD_OFF	n/a	n/a	ANT	12	23	[0, 0, 0]	n/a	FR1	0	R1241J
2787.491	0.0	2895124	DISTRACT_START	n/a	n/a	n/a	-999	23	[0, 0, 0]	n/a	FR1	0	R1241J
2787.491	0.016	2895124	START	n/a	n/a	n/a	-999	23	[-999, -999, -999]	n/a	FR1	0	R1241J
2787.507	3.584	2895140	PROB	3.584	n/a	n/a	-999	23	[4, 6, 1]	11	FR1	0	R1241J
2791.091	3.284	2898724	PROB	3.284	n/a	n/a	-999	23	[7, 1, 1]	9	FR1	0	R1241J
2794.375	4.117	2902008	PROB	4.117	n/a	n/a	-999	23	[2, 1, 7]	10	FR1	0	R1241J
2798.492	2.667	2906125	PROB	2.667	n/a	n/a	-999	23	[3, 7, 3]	13	FR1	0	R1241J
2801.159	4.051	2908792	PROB	4.051	n/a	n/a	-999	23	[8, 1, 6]	15	FR1	0	R1241J
2805.21	3.616	2912843	PROB	3.616	n/a	n/a	-999	23	[2, 1, 5]	8	FR1	0	R1241J
2808.826	0.017	2916459	STOP	n/a	n/a	n/a	-999	23	[-999, -999, -999]	n/a	FR1	0	R1241J
2808.843	0.601	2916476	DISTRACT_END	n/a	n/a	n/a	-999	23	[0, 0, 0]	n/a	FR1	0	R1241J
2809.444	0.517	2917077	RETRIEVAL_ORIENT	n/a	n/a	n/a	-999	23	[0, 0, 0]	n/a	FR1	0	R1241J
2809.961	2.27	2917594	REC_START	n/a	n/a	n/a	-999	23	[0, 0, 0]	n/a	FR1	0	R1241J
2812.231	0.884	2919864	REC_WORD	0.884	n/a	LEAF	-999	23	[0, 0, 0]	n/a	FR1	0	R1241J
2813.115	1.652	2920748	REC_WORD	1.652	n/a	CAT	-999	23	[0, 0, 0]	n/a	FR1	0	R1241J
2814.767	1.023	2922400	REC_WORD	1.023	n/a	AGE	-999	23	[0, 0, 0]	n/a	FR1	0	R1241J
2815.79	2.417	2923423	REC_WORD	2.417	n/a	SWIM	-999	23	[0, 0, 0]	n/a	FR1	0	R1241J
2818.207	21.763	2925840	REC_WORD	21.763	n/a	LEAF	-999	23	[0, 0, 0]	n/a	FR1	0	R1241J
2839.97	5.778	2947603	REC_END	n/a	n/a	n/a	-999	23	[0, 0, 0]	n/a	FR1	0	R1241J
2845.748	0.5	2953381	TRIAL	n/a	n/a	n/a	-999	24	[0, 0, 0]	n/a	FR1	0	R1241J
2846.248	10.428	2953881	COUNTDOWN_START	n/a	n/a	n/a	-999	24	[0, 0, 0]	n/a	FR1	0	R1241J
2856.676	0.006	2964309	COUNTDOWN_END	n/a	n/a	n/a	-999	24	[0, 0, 0]	n/a	FR1	0	R1241J
2856.682	1.618	2964315	ORIENT	n/a	n/a	n/a	-999	24	[0, 0, 0]	n/a	FR1	0	R1241J
2858.3	2.1	2965933	ORIENT_OFF	n/a	n/a	n/a	-999	24	[0, 0, 0]	n/a	FR1	0	R1241J
2860.4	1.617	2968033	WORD	n/a	wordpools/wordpool_EN.txt	TOOL	1	24	[0, 0, 0]	n/a	FR1	0	R1241J
2862.017	0.934	2969650	WORD_OFF	n/a	n/a	TOOL	1	24	[0, 0, 0]	n/a	FR1	0	R1241J
2862.951	1.616	2970584	WORD	n/a	wordpools/wordpool_EN.txt	DOCK	2	24	[0, 0, 0]	n/a	FR1	0	R1241J
2864.567	0.95	2972200	WORD_OFF	n/a	n/a	DOCK	2	24	[0, 0, 0]	n/a	FR1	0	R1241J
2865.517	1.617	2973150	WORD	n/a	wordpools/wordpool_EN.txt	STONE	3	24	[0, 0, 0]	n/a	FR1	0	R1241J
2867.134	0.85	2974767	WORD_OFF	n/a	n/a	STONE	3	24	[0, 0, 0]	n/a	FR1	0	R1241J
2867.984	1.616	2975617	WORD	n/a	wordpools/wordpool_EN.txt	HOSE	4	24	[0, 0, 0]	n/a	FR1	0	R1241J
2869.6	0.984	2977233	WORD_OFF	n/a	n/a	HOSE	4	24	[0, 0, 0]	n/a	FR1	0	R1241J
2870.584	1.618	2978217	WORD	n/a	wordpools/wordpool_EN.txt	GUARD	5	24	[0, 0, 0]	n/a	FR1	0	R1241J
2872.202	0.999	2979835	WORD_OFF	n/a	n/a	GUARD	5	24	[0, 0, 0]	n/a	FR1	0	R1241J
2873.201	1.617	2980834	WORD	n/a	wordpools/wordpool_EN.txt	PIT	6	24	[0, 0, 0]	n/a	FR1	0	R1241J
2874.818	0.866	2982451	WORD_OFF	n/a	n/a	PIT	6	24	[0, 0, 0]	n/a	FR1	0	R1241J
2875.684	1.601	2983317	WORD	n/a	wordpools/wordpool_EN.txt	BRICK	7	24	[0, 0, 0]	n/a	FR1	0	R1241J
2877.285	0.834	2984918	WORD_OFF	n/a	n/a	BRICK	7	24	[0, 0, 0]	n/a	FR1	0	R1241J
2878.119	1.616	2985752	WORD	n/a	wordpools/wordpool_EN.txt	CLAY	8	24	[0, 0, 0]	n/a	FR1	0	R1241J
2879.735	0.834	2987368	WORD_OFF	n/a	n/a	CLAY	8	24	[0, 0, 0]	n/a	FR1	0	R1241J
2880.569	1.617	2988202	WORD	n/a	wordpools/wordpool_EN.txt	CUBE	9	24	[0, 0, 0]	n/a	FR1	0	R1241J
2882.186	0.834	2989819	WORD_OFF	n/a	n/a	CUBE	9	24	[0, 0, 0]	n/a	FR1	0	R1241J
2883.02	1.615	2990653	WORD	n/a	wordpools/wordpool_EN.txt	PIPE	10	24	[0, 0, 0]	n/a	FR1	0	R1241J
2884.635	0.818	2992268	WORD_OFF	n/a	n/a	PIPE	10	24	[0, 0, 0]	n/a	FR1	0	R1241J
2885.453	1.617	2993086	WORD	n/a	wordpools/wordpool_EN.txt	SQUARE	11	24	[0, 0, 0]	n/a	FR1	0	R1241J
2887.07	0.9	2994703	WORD_OFF	n/a	n/a	SQUARE	11	24	[0, 0, 0]	n/a	FR1	0	R1241J
2887.97	1.616	2995603	WORD	n/a	wordpools/wordpool_EN.txt	NAIL	12	24	[0, 0, 0]	n/a	FR1	0	R1241J
2889.586	0.0	2997219	DISTRACT_START	n/a	n/a	n/a	-999	24	[0, 0, 0]	n/a	FR1	0	R1241J
2889.586	0.001	2997219	WORD_OFF	n/a	n/a	NAIL	12	24	[0, 0, 0]	n/a	FR1	0	R1241J
2889.587	0.016	2997220	START	n/a	n/a	n/a	-999	24	[-999, -999, -999]	n/a	FR1	0	R1241J
2889.603	4.468	2997236	PROB	4.468	n/a	n/a	-999	24	[7, 8, 1]	16	FR1	0	R1241J
2894.071	4.583	3001704	PROB	4.583	n/a	n/a	-999	24	[2, 5, 8]	15	FR1	0	R1241J
2898.654	2.918	3006287	PROB	2.918	n/a	n/a	-999	24	[6, 8, 8]	22	FR1	0	R1241J
2901.572	3.116	3009205	PROB	3.116	n/a	n/a	-999	24	[8, 2, 8]	18	FR1	0	R1241J
2904.688	3.151	3012321	PROB	3.151	n/a	n/a	-999	24	[9, 4, 9]	22	FR1	0	R1241J
2907.839	2.927	3015472	PROB	2.927	n/a	n/a	-999	24	[1, 2, 9]	12	FR1	0	R1241J
2910.766	0.007	3018399	STOP	n/a	n/a	n/a	-999	24	[-999, -999, -999]	n/a	FR1	0	R1241J
2910.773	0.55	3018406	DISTRACT_END	n/a	n/a	n/a	-999	24	[0, 0, 0]	n/a	FR1	0	R1241J
2911.323	0.518	3018956	RETRIEVAL_ORIENT	n/a	n/a	n/a	-999	24	[0, 0, 0]	n/a	FR1	0	R1241J
2911.841	1.78	3019474	REC_START	n/a	n/a	n/a	-999	24	[0, 0, 0]	n/a	FR1	0	R1241J
2913.621	1.468	3021254	REC_WORD	1.468	n/a	STONE	-999	24	[0, 0, 0]	n/a	FR1	0	R1241J
2915.089	2.539	3022722	REC_WORD	2.539	n/a	CAT	-999	24	[0, 0, 0]	n/a	FR1	0	R1241J
2917.628	1.879	3025261	REC_WORD	1.879	n/a	CLOUD	-999	24	[0, 0, 0]	n/a	FR1	0	R1241J
2919.507	2.213	3027140	REC_WORD	2.213	n/a	SUN	-999	24	[0, 0, 0]	n/a	FR1	0	R1241J
2921.72	0.599	3029353	REC_WORD	0.599	n/a	OWL	-999	24	[0, 0, 0]	n/a	FR1	0	R1241J
2922.319	19.535	3029952	REC_WORD	19.535	n/a	SPOON	-999	24	[0, 0, 0]	n/a	FR1	0	R1241J
2941.854	5.24	3049487	REC_END	n/a	n/a	n/a	-999	24	[0, 0, 0]	n/a	FR1	0	R1241J
2947.094	0.5	3054727	TRIAL	n/a	n/a	n/a	-999	25	[0, 0, 0]	n/a	FR1	0	R1241J
2947.594	10.428	3055227	COUNTDOWN_START	n/a	n/a	n/a	-999	25	[0, 0, 0]	n/a	FR1	0	R1241J
2958.022	0.007	3065655	COUNTDOWN_END	n/a	n/a	n/a	-999	25	[0, 0, 0]	n/a	FR1	0	R1241J
2958.029	1.616	3065662	ORIENT	n/a	n/a	n/a	-999	25	[0, 0, 0]	n/a	FR1	0	R1241J
2959.645	2.017	3067278	ORIENT_OFF	n/a	n/a	n/a	-999	25	[0, 0, 0]	n/a	FR1	0	R1241J
2961.662	1.618	3069295	WORD	n/a	wordpools/wordpool_EN.txt	SPRING	1	25	[0, 0, 0]	n/a	FR1	0	R1241J
2963.28	0.966	3070913	WORD_OFF	n/a	n/a	SPRING	1	25	[0, 0, 0]	n/a	FR1	0	R1241J
2964.246	1.617	3071879	WORD	n/a	wordpools/wordpool_EN.txt	TAIL	2	25	[0, 0, 0]	n/a	FR1	0	R1241J
2965.863	0.884	3073496	WORD_OFF	n/a	n/a	TAIL	2	25	[0, 0, 0]	n/a	FR1	0	R1241J
2966.747	1.617	3074380	WORD	n/a	wordpools/wordpool_EN.txt	DITCH	3	25	[0, 0, 0]	n/a	FR1	0	R1241J
2968.364	0.933	3075997	WORD_OFF	n/a	n/a	DITCH	3	25	[0, 0, 0]	n/a	FR1	0	R1241J
2969.297	1.617	3076930	WORD	n/a	wordpools/wordpool_EN.txt	SKUNK	4	25	[0, 0, 0]	n/a	FR1	0	R1241J
2970.914	0.934	3078547	WORD_OFF	n/a	n/a	SKUNK	4	25	[0, 0, 0]	n/a	FR1	0	R1241J
2971.848	1.616	3079481	WORD	n/a	wordpools/wordpool_EN.txt	ROPE	5	25	[0, 0, 0]	n/a	FR1	0	R1241J
2973.464	0.934	3081097	WORD_OFF	n/a	n/a	ROPE	5	25	[0, 0, 0]	n/a	FR1	0	R1241J
2974.398	1.617	3082031	WORD	n/a	wordpools/wordpool_EN.txt	MULE	6	25	[0, 0, 0]	n/a	FR1	0	R1241J
2976.015	0.85	3083648	WORD_OFF	n/a	n/a	MULE	6	25	[0, 0, 0]	n/a	FR1	0	R1241J
2976.865	1.617	3084498	WORD	n/a	wordpools/wordpool_EN.txt	CALF	7	25	[0, 0, 0]	n/a	FR1	0	R1241J
2978.482	0.8	3086115	WORD_OFF	n/a	n/a	CALF	7	25	[0, 0, 0]	n/a	FR1	0	R1241J
2979.282	1.617	3086915	WORD	n/a	wordpools/wordpool_EN.txt	WAND	8	25	[0, 0, 0]	n/a	FR1	0	R1241J
2980.899	0.766	3088532	WORD_OFF	n/a	n/a	WAND	8	25	[0, 0, 0]	n/a	FR1	0	R1241J
2981.665	1.617	3089298	WORD	n/a	wordpools/wordpool_EN.txt	BUSH	9	25	[0, 0, 0]	n/a	FR1	0	R1241J
2983.282	0.834	3090915	WORD_OFF	n/a	n/a	BUSH	9	25	[0, 0, 0]	n/a	FR1	0	R1241J
2984.116	1.616	3091749	WORD	n/a	wordpools/wordpool_EN.txt	SWAMP	10	25	[0, 0, 0]	n/a	FR1	0	R1241J
2985.732	0.834	3093365	WORD_OFF	n/a	n/a	SWAMP	10	25	[0, 0, 0]	n/a	FR1	0	R1241J
2986.566	1.617	3094199	WORD	n/a	wordpools/wordpool_EN.txt	WOLF	11	25	[0, 0, 0]	n/a	FR1	0	R1241J
2988.183	0.917	3095816	WORD_OFF	n/a	n/a	WOLF	11	25	[0, 0, 0]	n/a	FR1	0	R1241J
2989.1	1.616	3096733	WORD	n/a	wordpools/wordpool_EN.txt	ROSE	12	25	[0, 0, 0]	n/a	FR1	0	R1241J
2990.716	0.0	3098349	WORD_OFF	n/a	n/a	ROSE	12	25	[0, 0, 0]	n/a	FR1	0	R1241J
2990.716	0.0	3098349	DISTRACT_START	n/a	n/a	n/a	-999	25	[0, 0, 0]	n/a	FR1	0	R1241J
2990.716	0.016	3098349	START	n/a	n/a	n/a	-999	25	[-999, -999, -999]	n/a	FR1	0	R1241J
2990.732	5.934	3098365	PROB	5.934	n/a	n/a	-999	25	[6, 5, 7]	18	FR1	0	R1241J
2996.666	3.619	3104299	PROB	3.619	n/a	n/a	-999	25	[1, 1, 6]	8	FR1	0	R1241J
3000.285	5.083	3107918	PROB	5.083	n/a	n/a	-999	25	[6, 7, 5]	18	FR1	0	R1241J
3005.368	4.901	3113001	PROB	4.901	n/a	n/a	-999	25	[1, 5, 9]	15	FR1	0	R1241J
3010.269	3.941	3117902	PROB	3.941	n/a	n/a	-999	25	[4, 8, 4]	16	FR1	0	R1241J
3014.21	0.01	3121843	STOP	n/a	n/a	n/a	-999	25	[-999, -999, -999]	n/a	FR1	0	R1241J
3014.22	0.683	3121853	DISTRACT_END	n/a	n/a	n/a	-999	25	[0, 0, 0]	n/a	FR1	0	R1241J
3014.903	0.517	3122536	RETRIEVAL_ORIENT	n/a	n/a	n/a	-999	25	[0, 0, 0]	n/a	FR1	0	R1241J
3015.42	1.579	3123053	REC_START	n/a	n/a	n/a	-999	25	[0, 0, 0]	n/a	FR1	0	R1241J
3016.999	0.807	3124632	REC_WORD	0.807	n/a	SPRING	-999	25	[0, 0, 0]	n/a	FR1	0	R1241J
3017.806	2.292	3125439	REC_WORD	2.292	n/a	TOE	-999	25	[0, 0, 0]	n/a	FR1	0	R1241J
3020.098	25.333	3127731	REC_WORD	25.333	n/a	FOOT	-999	25	[0, 0, 0]	n/a	FR1	0	R1241J
3045.431	0.0	3153064	REC_END	n/a	n/a	n/a	-999	25	[0, 0, 0]	n/a	FR1	0	R1241J
