onset	duration	sample	trial_type	response_time	stim_file	item_name	serialpos	list	test	answer	experiment	session	subject
0.0	0.0	110525	INSTRUCT_START	n/a	n/a	n/a	-999	-999	[0, 0, 0]	n/a	FR1	1	R1216E
0.0	11.046	110525	INSTRUCT_END	n/a	n/a	n/a	-999	-999	[0, 0, 0]	n/a	FR1	1	R1216E
11.046	0.0	121570	SESS_START	n/a	n/a	n/a	-999	-999	[0, 0, 0]	n/a	FR1	1	R1216E
11.046	16.5	121570	MIC_TEST	n/a	n/a	n/a	-999	-999	[0, 0, 0]	n/a	FR1	1	R1216E
27.546	5.708	138070	PRACTICE_TRIAL	n/a	n/a	n/a	-999	-1	[0, 0, 0]	n/a	FR1	1	R1216E
33.254	10.428	143778	COUNTDOWN_START	n/a	n/a	n/a	-999	-1	[0, 0, 0]	n/a	FR1	1	R1216E
43.682	0.008	154205	COUNTDOWN_END	n/a	n/a	n/a	-999	-1	[0, 0, 0]	n/a	FR1	1	R1216E
43.69	1.618	154213	PRACTICE_ORIENT	n/a	n/a	n/a	-999	-1	[0, 0, 0]	n/a	FR1	1	R1216E
45.308	2.133	155831	PRACTICE_ORIENT_OFF	n/a	n/a	n/a	-999	-1	[0, 0, 0]	n/a	FR1	1	R1216E
47.441	1.617	157964	PRACTICE_WORD	n/a	n/a	RHINO	1	-1	[0, 0, 0]	n/a	FR1	1	R1216E
49.058	0.917	159581	PRACTICE_WORD_OFF	n/a	n/a	RHINO	-999	-1	[0, 0, 0]	n/a	FR1	1	R1216E
49.975	1.616	160498	PRACTICE_WORD	n/a	n/a	IRON	2	-1	[0, 0, 0]	n/a	FR1	1	R1216E
51.591	0.868	162114	PRACTICE_WORD_OFF	n/a	n/a	IRON	-999	-1	[0, 0, 0]	n/a	FR1	1	R1216E
52.459	1.617	162982	PRACTICE_WORD	n/a	n/a	TONGUE	3	-1	[0, 0, 0]	n/a	FR1	1	R1216E
54.076	0.917	164599	PRACTICE_WORD_OFF	n/a	n/a	TONGUE	-999	-1	[0, 0, 0]	n/a	FR1	1	R1216E
54.993	1.616	165516	PRACTICE_WORD	n/a	n/a	CAMEL	4	-1	[0, 0, 0]	n/a	FR1	1	R1216E
56.609	0.834	167132	PRACTICE_WORD_OFF	n/a	n/a	CAMEL	-999	-1	[0, 0, 0]	n/a	FR1	1	R1216E
57.443	1.617	167966	PRACTICE_WORD	n/a	n/a	CHEST	5	-1	[0, 0, 0]	n/a	FR1	1	R1216E
59.06	0.817	169583	PRACTICE_WORD_OFF	n/a	n/a	CHEST	-999	-1	[0, 0, 0]	n/a	FR1	1	R1216E
59.877	1.617	170400	PRACTICE_WORD	n/a	n/a	BEAM	6	-1	[0, 0, 0]	n/a	FR1	1	R1216E
61.494	1.017	172017	PRACTICE_WORD_OFF	n/a	n/a	BEAM	-999	-1	[0, 0, 0]	n/a	FR1	1	R1216E
62.511	1.617	173034	PRACTICE_WORD	n/a	n/a	COTTON	7	-1	[0, 0, 0]	n/a	FR1	1	R1216E
64.128	0.816	174650	PRACTICE_WORD_OFF	n/a	n/a	COTTON	-999	-1	[0, 0, 0]	n/a	FR1	1	R1216E
64.944	1.616	175466	PRACTICE_WORD	n/a	n/a	RING	8	-1	[0, 0, 0]	n/a	FR1	1	R1216E
66.56	0.818	177082	PRACTICE_WORD_OFF	n/a	n/a	RING	-999	-1	[0, 0, 0]	n/a	FR1	1	R1216E
67.378	1.617	177900	PRACTICE_WORD	n/a	n/a	WATCH	9	-1	[0, 0, 0]	n/a	FR1	1	R1216E
68.995	0.95	179517	PRACTICE_WORD_OFF	n/a	n/a	WATCH	-999	-1	[0, 0, 0]	n/a	FR1	1	R1216E
69.945	1.616	180467	PRACTICE_WORD	n/a	n/a	ATTIC	10	-1	[0, 0, 0]	n/a	FR1	1	R1216E
71.561	0.868	182083	PRACTICE_WORD_OFF	n/a	n/a	ATTIC	-999	-1	[0, 0, 0]	n/a	FR1	1	R1216E
72.429	1.617	182951	PRACTICE_WORD	n/a	n/a	FLOOD	11	-1	[0, 0, 0]	n/a	FR1	1	R1216E
74.046	0.85	184568	PRACTICE_WORD_OFF	n/a	n/a	FLOOD	-999	-1	[0, 0, 0]	n/a	FR1	1	R1216E
74.896	1.617	185418	PRACTICE_WORD	n/a	n/a	WAGON	12	-1	[0, 0, 0]	n/a	FR1	1	R1216E
76.513	0.0	187035	PRACTICE_WORD_OFF	n/a	n/a	WAGON	-999	-1	[0, 0, 0]	n/a	FR1	1	R1216E
76.513	0.001	187035	DISTRACT_START	n/a	n/a	n/a	-999	-1	[0, 0, 0]	n/a	FR1	1	R1216E
76.514	0.016	187036	START	n/a	n/a	n/a	-999	-1	[-999, -999, -999]	n/a	FR1	1	R1216E
76.53	6.501	187052	PROB	6.501	n/a	n/a	-999	-1	[7, 7, 4]	18	FR1	1	R1216E
83.031	3.017	193553	PROB	3.017	n/a	n/a	-999	-1	[2, 8, 1]	11	FR1	1	R1216E
86.048	9.485	196570	PROB	9.485	n/a	n/a	-999	-1	[7, 7, 4]	18	FR1	1	R1216E
95.533	4.816	206054	PROB	4.816	n/a	n/a	-999	-1	[2, 4, 2]	8	FR1	1	R1216E
100.349	0.018	210870	STOP	n/a	n/a	n/a	-999	-1	[-999, -999, -999]	n/a	FR1	1	R1216E
100.367	0.534	210888	DISTRACT_END	n/a	n/a	n/a	-999	-1	[0, 0, 0]	n/a	FR1	1	R1216E
100.901	0.523	211422	RETRIEVAL_ORIENT	n/a	n/a	n/a	-999	-1	[0, 0, 0]	n/a	FR1	1	R1216E
101.424	30.004	211945	PRACTICE_REC_START	n/a	n/a	n/a	-999	-1	[0, 0, 0]	n/a	FR1	1	R1216E
131.428	110.814	241948	PRACTICE_REC_END	n/a	n/a	n/a	-999	-1	[0, 0, 0]	n/a	FR1	1	R1216E
242.242	0.5	352758	TRIAL	n/a	n/a	n/a	-999	1	[0, 0, 0]	n/a	FR1	1	R1216E
242.742	10.428	353258	COUNTDOWN_START	n/a	n/a	n/a	-999	1	[0, 0, 0]	n/a	FR1	1	R1216E
253.17	0.007	363685	COUNTDOWN_END	n/a	n/a	n/a	-999	1	[0, 0, 0]	n/a	FR1	1	R1216E
253.177	1.616	363692	ORIENT	n/a	n/a	n/a	-999	1	[0, 0, 0]	n/a	FR1	1	R1216E
254.793	1.917	365308	ORIENT_OFF	n/a	n/a	n/a	-999	1	[0, 0, 0]	n/a	FR1	1	R1216E
256.71	1.601	367225	WORD	n/a	wordpools/wordpool_EN.txt	SKUNK	1	1	[0, 0, 0]	n/a	FR1	1	R1216E
258.311	1.001	368826	WORD_OFF	n/a	n/a	SKUNK	1	1	[0, 0, 0]	n/a	FR1	1	R1216E
259.312	1.617	369827	WORD	n/a	wordpools/wordpool_EN.txt	DOG	2	1	[0, 0, 0]	n/a	FR1	1	R1216E
260.929	0.815	371444	WORD_OFF	n/a	n/a	DOG	2	1	[0, 0, 0]	n/a	FR1	1	R1216E
261.744	1.602	372259	WORD	n/a	wordpools/wordpool_EN.txt	ARK	3	1	[0, 0, 0]	n/a	FR1	1	R1216E
263.346	0.767	373861	WORD_OFF	n/a	n/a	ARK	3	1	[0, 0, 0]	n/a	FR1	1	R1216E
264.113	1.616	374628	WORD	n/a	wordpools/wordpool_EN.txt	MOUSE	4	1	[0, 0, 0]	n/a	FR1	1	R1216E
265.729	0.966	376244	WORD_OFF	n/a	n/a	MOUSE	4	1	[0, 0, 0]	n/a	FR1	1	R1216E
266.695	1.618	377210	WORD	n/a	wordpools/wordpool_EN.txt	BRANCH	5	1	[0, 0, 0]	n/a	FR1	1	R1216E
268.313	0.917	378828	WORD_OFF	n/a	n/a	BRANCH	5	1	[0, 0, 0]	n/a	FR1	1	R1216E
269.23	1.617	379745	WORD	n/a	wordpools/wordpool_EN.txt	BANK	6	1	[0, 0, 0]	n/a	FR1	1	R1216E
270.847	0.883	381362	WORD_OFF	n/a	n/a	BANK	6	1	[0, 0, 0]	n/a	FR1	1	R1216E
271.73	1.618	382245	WORD	n/a	wordpools/wordpool_EN.txt	POND	7	1	[0, 0, 0]	n/a	FR1	1	R1216E
273.348	0.9	383863	WORD_OFF	n/a	n/a	POND	7	1	[0, 0, 0]	n/a	FR1	1	R1216E
274.248	1.617	384762	WORD	n/a	wordpools/wordpool_EN.txt	FORK	8	1	[0, 0, 0]	n/a	FR1	1	R1216E
275.865	0.765	386379	WORD_OFF	n/a	n/a	FORK	8	1	[0, 0, 0]	n/a	FR1	1	R1216E
276.63	1.618	387144	WORD	n/a	wordpools/wordpool_EN.txt	CHIEF	9	1	[0, 0, 0]	n/a	FR1	1	R1216E
278.248	0.917	388762	WORD_OFF	n/a	n/a	CHIEF	9	1	[0, 0, 0]	n/a	FR1	1	R1216E
279.165	1.616	389679	WORD	n/a	wordpools/wordpool_EN.txt	SNAKE	10	1	[0, 0, 0]	n/a	FR1	1	R1216E
280.781	0.867	391295	WORD_OFF	n/a	n/a	SNAKE	10	1	[0, 0, 0]	n/a	FR1	1	R1216E
281.648	1.618	392162	WORD	n/a	wordpools/wordpool_EN.txt	MUD	11	1	[0, 0, 0]	n/a	FR1	1	R1216E
283.266	0.883	393780	WORD_OFF	n/a	n/a	MUD	11	1	[0, 0, 0]	n/a	FR1	1	R1216E
284.149	1.616	394663	WORD	n/a	wordpools/wordpool_EN.txt	SKY	12	1	[0, 0, 0]	n/a	FR1	1	R1216E
285.765	0.0	396279	WORD_OFF	n/a	n/a	SKY	12	1	[0, 0, 0]	n/a	FR1	1	R1216E
285.765	0.001	396279	DISTRACT_START	n/a	n/a	n/a	-999	1	[0, 0, 0]	n/a	FR1	1	R1216E
285.766	0.016	396280	START	n/a	n/a	n/a	-999	1	[-999, -999, -999]	n/a	FR1	1	R1216E
285.782	9.802	396296	PROB	9.802	n/a	n/a	-999	1	[2, 7, 8]	17	FR1	1	R1216E
295.584	3.967	406098	PROB	3.967	n/a	n/a	-999	1	[8, 8, 8]	24	FR1	1	R1216E
299.551	5.636	410065	PROB	5.636	n/a	n/a	-999	1	[5, 8, 7]	20	FR1	1	R1216E
305.187	8.474	415700	PROB	8.474	n/a	n/a	-999	1	[8, 5, 4]	17	FR1	1	R1216E
313.661	0.009	424174	STOP	n/a	n/a	n/a	-999	1	[-999, -999, -999]	n/a	FR1	1	R1216E
313.67	0.568	424183	DISTRACT_END	n/a	n/a	n/a	-999	1	[0, 0, 0]	n/a	FR1	1	R1216E
314.238	0.516	424751	RETRIEVAL_ORIENT	n/a	n/a	n/a	-999	1	[0, 0, 0]	n/a	FR1	1	R1216E
314.754	2.835	425267	REC_START	n/a	n/a	n/a	-999	1	[0, 0, 0]	n/a	FR1	1	R1216E
317.589	1.001	428102	REC_WORD	1.001	n/a	SKUNK	-999	1	[0, 0, 0]	n/a	FR1	1	R1216E
318.59	2.419	429103	REC_WORD_VV	2.419	n/a	<>	-999	1	[0, 0, 0]	n/a	FR1	1	R1216E
321.009	1.482	431522	REC_WORD	1.482	n/a	MOUSE	-999	1	[0, 0, 0]	n/a	FR1	1	R1216E
322.491	2.456	433004	REC_WORD	2.456	n/a	DOG	-999	1	[0, 0, 0]	n/a	FR1	1	R1216E
324.947	19.818	435460	REC_WORD	19.818	n/a	BRANCH	-999	1	[0, 0, 0]	n/a	FR1	1	R1216E
344.765	6.196	455277	REC_END	n/a	n/a	n/a	-999	1	[0, 0, 0]	n/a	FR1	1	R1216E
350.961	0.5	461473	TRIAL	n/a	n/a	n/a	-999	2	[0, 0, 0]	n/a	FR1	1	R1216E
351.461	10.428	461973	COUNTDOWN_START	n/a	n/a	n/a	-999	2	[0, 0, 0]	n/a	FR1	1	R1216E
361.889	0.007	472400	COUNTDOWN_END	n/a	n/a	n/a	-999	2	[0, 0, 0]	n/a	FR1	1	R1216E
361.896	1.617	472407	ORIENT	n/a	n/a	n/a	-999	2	[0, 0, 0]	n/a	FR1	1	R1216E
363.513	2.017	474024	ORIENT_OFF	n/a	n/a	n/a	-999	2	[0, 0, 0]	n/a	FR1	1	R1216E
365.53	1.617	476041	WORD	n/a	wordpools/wordpool_EN.txt	WORM	1	2	[0, 0, 0]	n/a	FR1	1	R1216E
367.147	0.801	477658	WORD_OFF	n/a	n/a	WORM	1	2	[0, 0, 0]	n/a	FR1	1	R1216E
367.948	1.615	478459	WORD	n/a	wordpools/wordpool_EN.txt	SCHOOL	2	2	[0, 0, 0]	n/a	FR1	1	R1216E
369.563	0.918	480074	WORD_OFF	n/a	n/a	SCHOOL	2	2	[0, 0, 0]	n/a	FR1	1	R1216E
370.481	1.617	480992	WORD	n/a	wordpools/wordpool_EN.txt	FROG	3	2	[0, 0, 0]	n/a	FR1	1	R1216E
372.098	0.934	482609	WORD_OFF	n/a	n/a	FROG	3	2	[0, 0, 0]	n/a	FR1	1	R1216E
373.032	1.616	483543	WORD	n/a	wordpools/wordpool_EN.txt	BOMB	4	2	[0, 0, 0]	n/a	FR1	1	R1216E
374.648	1.0	485159	WORD_OFF	n/a	n/a	BOMB	4	2	[0, 0, 0]	n/a	FR1	1	R1216E
375.648	1.618	486159	WORD	n/a	wordpools/wordpool_EN.txt	FISH	5	2	[0, 0, 0]	n/a	FR1	1	R1216E
377.266	0.933	487777	WORD_OFF	n/a	n/a	FISH	5	2	[0, 0, 0]	n/a	FR1	1	R1216E
378.199	1.617	488710	WORD	n/a	wordpools/wordpool_EN.txt	MILK	6	2	[0, 0, 0]	n/a	FR1	1	R1216E
379.816	0.949	490326	WORD_OFF	n/a	n/a	MILK	6	2	[0, 0, 0]	n/a	FR1	1	R1216E
380.765	1.618	491275	WORD	n/a	wordpools/wordpool_EN.txt	BEACH	7	2	[0, 0, 0]	n/a	FR1	1	R1216E
382.383	0.851	492893	WORD_OFF	n/a	n/a	BEACH	7	2	[0, 0, 0]	n/a	FR1	1	R1216E
383.234	1.616	493744	WORD	n/a	wordpools/wordpool_EN.txt	SMILE	8	2	[0, 0, 0]	n/a	FR1	1	R1216E
384.85	0.933	495360	WORD_OFF	n/a	n/a	SMILE	8	2	[0, 0, 0]	n/a	FR1	1	R1216E
385.783	1.618	496293	WORD	n/a	wordpools/wordpool_EN.txt	PURSE	9	2	[0, 0, 0]	n/a	FR1	1	R1216E
387.401	0.783	497911	WORD_OFF	n/a	n/a	PURSE	9	2	[0, 0, 0]	n/a	FR1	1	R1216E
388.184	1.616	498694	WORD	n/a	wordpools/wordpool_EN.txt	BRIDGE	10	2	[0, 0, 0]	n/a	FR1	1	R1216E
389.8	0.967	500310	WORD_OFF	n/a	n/a	BRIDGE	10	2	[0, 0, 0]	n/a	FR1	1	R1216E
390.767	1.618	501277	WORD	n/a	wordpools/wordpool_EN.txt	WHEEL	11	2	[0, 0, 0]	n/a	FR1	1	R1216E
392.385	0.8	502895	WORD_OFF	n/a	n/a	WHEEL	11	2	[0, 0, 0]	n/a	FR1	1	R1216E
393.185	1.616	503695	WORD	n/a	wordpools/wordpool_EN.txt	CONE	12	2	[0, 0, 0]	n/a	FR1	1	R1216E
394.801	0.0	505311	DISTRACT_START	n/a	n/a	n/a	-999	2	[0, 0, 0]	n/a	FR1	1	R1216E
394.801	0.001	505311	WORD_OFF	n/a	n/a	CONE	12	2	[0, 0, 0]	n/a	FR1	1	R1216E
394.802	0.017	505312	START	n/a	n/a	n/a	-999	2	[-999, -999, -999]	n/a	FR1	1	R1216E
394.819	4.401	505329	PROB	4.401	n/a	n/a	-999	2	[5, 4, 1]	10	FR1	1	R1216E
399.22	3.167	509730	PROB	3.167	n/a	n/a	-999	2	[3, 7, 2]	12	FR1	1	R1216E
402.387	3.984	512897	PROB	3.984	n/a	n/a	-999	2	[7, 1, 6]	14	FR1	1	R1216E
406.371	2.884	516880	PROB	2.884	n/a	n/a	-999	2	[6, 4, 1]	11	FR1	1	R1216E
409.255	3.466	519764	PROB	3.466	n/a	n/a	-999	2	[5, 3, 4]	12	FR1	1	R1216E
412.721	9.574	523230	PROB	9.574	n/a	n/a	-999	2	[7, 8, 7]	22	FR1	1	R1216E
422.295	0.012	532804	STOP	n/a	n/a	n/a	-999	2	[-999, -999, -999]	n/a	FR1	1	R1216E
422.307	0.667	532816	DISTRACT_END	n/a	n/a	n/a	-999	2	[0, 0, 0]	n/a	FR1	1	R1216E
422.974	0.517	533483	RETRIEVAL_ORIENT	n/a	n/a	n/a	-999	2	[0, 0, 0]	n/a	FR1	1	R1216E
423.491	1.857	534000	REC_START	n/a	n/a	n/a	-999	2	[0, 0, 0]	n/a	FR1	1	R1216E
425.348	1.0	535857	REC_WORD	1.0	n/a	BEACH	-999	2	[0, 0, 0]	n/a	FR1	1	R1216E
426.348	4.744	536857	REC_WORD_VV	4.744	n/a	<>	-999	2	[0, 0, 0]	n/a	FR1	1	R1216E
431.092	1.152	541601	REC_WORD	1.152	n/a	WORM	-999	2	[0, 0, 0]	n/a	FR1	1	R1216E
432.244	21.256	542752	REC_WORD	21.256	n/a	SCHOOL	-999	2	[0, 0, 0]	n/a	FR1	1	R1216E
453.5	6.279	564008	REC_END	n/a	n/a	n/a	-999	2	[0, 0, 0]	n/a	FR1	1	R1216E
459.779	0.5	570286	TRIAL	n/a	n/a	n/a	-999	3	[0, 0, 0]	n/a	FR1	1	R1216E
460.279	10.428	570786	COUNTDOWN_START	n/a	n/a	n/a	-999	3	[0, 0, 0]	n/a	FR1	1	R1216E
470.707	0.007	581214	COUNTDOWN_END	n/a	n/a	n/a	-999	3	[0, 0, 0]	n/a	FR1	1	R1216E
470.714	1.618	581221	ORIENT	n/a	n/a	n/a	-999	3	[0, 0, 0]	n/a	FR1	1	R1216E
472.332	2.134	582839	ORIENT_OFF	n/a	n/a	n/a	-999	3	[0, 0, 0]	n/a	FR1	1	R1216E
474.466	1.617	584973	WORD	n/a	wordpools/wordpool_EN.txt	PEN	1	3	[0, 0, 0]	n/a	FR1	1	R1216E
476.083	0.767	586590	WORD_OFF	n/a	n/a	PEN	1	3	[0, 0, 0]	n/a	FR1	1	R1216E
476.85	1.617	587357	WORD	n/a	wordpools/wordpool_EN.txt	CHIN	2	3	[0, 0, 0]	n/a	FR1	1	R1216E
478.467	0.983	588974	WORD_OFF	n/a	n/a	CHIN	2	3	[0, 0, 0]	n/a	FR1	1	R1216E
479.45	1.617	589957	WORD	n/a	wordpools/wordpool_EN.txt	FOOT	3	3	[0, 0, 0]	n/a	FR1	1	R1216E
481.067	0.8	591574	WORD_OFF	n/a	n/a	FOOT	3	3	[0, 0, 0]	n/a	FR1	1	R1216E
481.867	1.617	592374	WORD	n/a	wordpools/wordpool_EN.txt	CHALK	4	3	[0, 0, 0]	n/a	FR1	1	R1216E
483.484	0.8	593991	WORD_OFF	n/a	n/a	CHALK	4	3	[0, 0, 0]	n/a	FR1	1	R1216E
484.284	1.618	594790	WORD	n/a	wordpools/wordpool_EN.txt	APE	5	3	[0, 0, 0]	n/a	FR1	1	R1216E
485.902	0.949	596408	WORD_OFF	n/a	n/a	APE	5	3	[0, 0, 0]	n/a	FR1	1	R1216E
486.851	1.618	597357	WORD	n/a	wordpools/wordpool_EN.txt	HORSE	6	3	[0, 0, 0]	n/a	FR1	1	R1216E
488.469	0.983	598975	WORD_OFF	n/a	n/a	HORSE	6	3	[0, 0, 0]	n/a	FR1	1	R1216E
489.452	1.617	599958	WORD	n/a	wordpools/wordpool_EN.txt	JEEP	7	3	[0, 0, 0]	n/a	FR1	1	R1216E
491.069	0.767	601575	WORD_OFF	n/a	n/a	JEEP	7	3	[0, 0, 0]	n/a	FR1	1	R1216E
491.836	1.617	602342	WORD	n/a	wordpools/wordpool_EN.txt	BUSH	8	3	[0, 0, 0]	n/a	FR1	1	R1216E
493.453	0.783	603959	WORD_OFF	n/a	n/a	BUSH	8	3	[0, 0, 0]	n/a	FR1	1	R1216E
494.236	1.617	604742	WORD	n/a	wordpools/wordpool_EN.txt	BROOM	9	3	[0, 0, 0]	n/a	FR1	1	R1216E
495.853	0.783	606359	WORD_OFF	n/a	n/a	BROOM	9	3	[0, 0, 0]	n/a	FR1	1	R1216E
496.636	1.601	607142	WORD	n/a	wordpools/wordpool_EN.txt	ARM	10	3	[0, 0, 0]	n/a	FR1	1	R1216E
498.237	0.884	608743	WORD_OFF	n/a	n/a	ARM	10	3	[0, 0, 0]	n/a	FR1	1	R1216E
499.121	1.615	609627	WORD	n/a	wordpools/wordpool_EN.txt	LEG	11	3	[0, 0, 0]	n/a	FR1	1	R1216E
500.736	0.901	611242	WORD_OFF	n/a	n/a	LEG	11	3	[0, 0, 0]	n/a	FR1	1	R1216E
501.637	1.618	612143	WORD	n/a	wordpools/wordpool_EN.txt	HEART	12	3	[0, 0, 0]	n/a	FR1	1	R1216E
503.255	0.0	613761	WORD_OFF	n/a	n/a	HEART	12	3	[0, 0, 0]	n/a	FR1	1	R1216E
503.255	0.0	613761	DISTRACT_START	n/a	n/a	n/a	-999	3	[0, 0, 0]	n/a	FR1	1	R1216E
503.255	0.016	613761	START	n/a	n/a	n/a	-999	3	[-999, -999, -999]	n/a	FR1	1	R1216E
503.271	6.018	613777	PROB	6.018	n/a	n/a	-999	3	[2, 7, 8]	17	FR1	1	R1216E
509.289	21.201	619795	PROB	21.201	n/a	n/a	-999	3	[7, 8, 6]	21	FR1	1	R1216E
530.49	0.019	640995	STOP	n/a	n/a	n/a	-999	3	[-999, -999, -999]	n/a	FR1	1	R1216E
530.509	0.584	641014	DISTRACT_END	n/a	n/a	n/a	-999	3	[0, 0, 0]	n/a	FR1	1	R1216E
531.093	0.516	641598	RETRIEVAL_ORIENT	n/a	n/a	n/a	-999	3	[0, 0, 0]	n/a	FR1	1	R1216E
531.609	10.121	642114	REC_START	n/a	n/a	n/a	-999	3	[0, 0, 0]	n/a	FR1	1	R1216E
541.73	1.096	652234	REC_WORD	1.096	n/a	CHIN	-999	3	[0, 0, 0]	n/a	FR1	1	R1216E
542.826	0.998	653330	REC_WORD	0.998	n/a	CHALK	-999	3	[0, 0, 0]	n/a	FR1	1	R1216E
543.824	6.623	654328	REC_WORD_VV	6.623	n/a	<>	-999	3	[0, 0, 0]	n/a	FR1	1	R1216E
550.447	1.0	660951	REC_WORD	1.0	n/a	PEN	-999	3	[0, 0, 0]	n/a	FR1	1	R1216E
551.447	4.075	661951	REC_WORD_VV	4.075	n/a	<>	-999	3	[0, 0, 0]	n/a	FR1	1	R1216E
555.522	6.097	666026	REC_WORD_VV	6.097	n/a	<>	-999	3	[0, 0, 0]	n/a	FR1	1	R1216E
561.619	6.464	672123	REC_END	n/a	n/a	n/a	-999	3	[0, 0, 0]	n/a	FR1	1	R1216E
568.083	0.5	678586	TRIAL	n/a	n/a	n/a	-999	4	[0, 0, 0]	n/a	FR1	1	R1216E
568.583	10.428	679086	COUNTDOWN_START	n/a	n/a	n/a	-999	4	[0, 0, 0]	n/a	FR1	1	R1216E
579.011	0.007	689514	COUNTDOWN_END	n/a	n/a	n/a	-999	4	[0, 0, 0]	n/a	FR1	1	R1216E
579.018	1.616	689521	ORIENT	n/a	n/a	n/a	-999	4	[0, 0, 0]	n/a	FR1	1	R1216E
580.634	1.933	691137	ORIENT_OFF	n/a	n/a	n/a	-999	4	[0, 0, 0]	n/a	FR1	1	R1216E
582.567	1.618	693070	WORD	n/a	wordpools/wordpool_EN.txt	MOON	1	4	[0, 0, 0]	n/a	FR1	1	R1216E
584.185	0.934	694688	WORD_OFF	n/a	n/a	MOON	1	4	[0, 0, 0]	n/a	FR1	1	R1216E
585.119	1.616	695622	WORD	n/a	wordpools/wordpool_EN.txt	RUG	2	4	[0, 0, 0]	n/a	FR1	1	R1216E
586.735	0.9	697238	WORD_OFF	n/a	n/a	RUG	2	4	[0, 0, 0]	n/a	FR1	1	R1216E
587.635	1.618	698138	WORD	n/a	wordpools/wordpool_EN.txt	CORN	3	4	[0, 0, 0]	n/a	FR1	1	R1216E
589.253	0.783	699755	WORD_OFF	n/a	n/a	CORN	3	4	[0, 0, 0]	n/a	FR1	1	R1216E
590.036	1.616	700538	WORD	n/a	wordpools/wordpool_EN.txt	RAKE	4	4	[0, 0, 0]	n/a	FR1	1	R1216E
591.652	0.901	702154	WORD_OFF	n/a	n/a	RAKE	4	4	[0, 0, 0]	n/a	FR1	1	R1216E
592.553	1.617	703055	WORD	n/a	wordpools/wordpool_EN.txt	WORLD	5	4	[0, 0, 0]	n/a	FR1	1	R1216E
594.17	0.867	704672	WORD_OFF	n/a	n/a	WORLD	5	4	[0, 0, 0]	n/a	FR1	1	R1216E
595.037	1.616	705539	WORD	n/a	wordpools/wordpool_EN.txt	STAR	6	4	[0, 0, 0]	n/a	FR1	1	R1216E
596.653	0.984	707155	WORD_OFF	n/a	n/a	STAR	6	4	[0, 0, 0]	n/a	FR1	1	R1216E
597.637	1.618	708139	WORD	n/a	wordpools/wordpool_EN.txt	LAMB	7	4	[0, 0, 0]	n/a	FR1	1	R1216E
599.255	0.766	709757	WORD_OFF	n/a	n/a	LAMB	7	4	[0, 0, 0]	n/a	FR1	1	R1216E
600.021	1.617	710523	WORD	n/a	wordpools/wordpool_EN.txt	STRING	8	4	[0, 0, 0]	n/a	FR1	1	R1216E
601.638	1.0	712140	WORD_OFF	n/a	n/a	STRING	8	4	[0, 0, 0]	n/a	FR1	1	R1216E
602.638	1.618	713140	WORD	n/a	wordpools/wordpool_EN.txt	BADGE	9	4	[0, 0, 0]	n/a	FR1	1	R1216E
604.256	0.866	714758	WORD_OFF	n/a	n/a	BADGE	9	4	[0, 0, 0]	n/a	FR1	1	R1216E
605.122	1.616	715624	WORD	n/a	wordpools/wordpool_EN.txt	SUIT	10	4	[0, 0, 0]	n/a	FR1	1	R1216E
606.738	0.784	717240	WORD_OFF	n/a	n/a	SUIT	10	4	[0, 0, 0]	n/a	FR1	1	R1216E
607.522	1.618	718024	WORD	n/a	wordpools/wordpool_EN.txt	CAR	11	4	[0, 0, 0]	n/a	FR1	1	R1216E
609.14	0.983	719642	WORD_OFF	n/a	n/a	CAR	11	4	[0, 0, 0]	n/a	FR1	1	R1216E
610.123	1.616	720625	WORD	n/a	wordpools/wordpool_EN.txt	POLE	12	4	[0, 0, 0]	n/a	FR1	1	R1216E
611.739	0.0	722241	DISTRACT_START	n/a	n/a	n/a	-999	4	[0, 0, 0]	n/a	FR1	1	R1216E
611.739	0.001	722241	WORD_OFF	n/a	n/a	POLE	12	4	[0, 0, 0]	n/a	FR1	1	R1216E
611.74	0.016	722242	START	n/a	n/a	n/a	-999	4	[-999, -999, -999]	n/a	FR1	1	R1216E
611.756	15.57	722258	PROB	15.57	n/a	n/a	-999	4	[7, 5, 6]	18	FR1	1	R1216E
627.326	4.633	737827	PROB	4.633	n/a	n/a	-999	4	[1, 4, 1]	6	FR1	1	R1216E
631.959	0.018	742460	STOP	n/a	n/a	n/a	-999	4	[-999, -999, -999]	n/a	FR1	1	R1216E
631.977	0.683	742478	DISTRACT_END	n/a	n/a	n/a	-999	4	[0, 0, 0]	n/a	FR1	1	R1216E
632.66	0.518	743161	RETRIEVAL_ORIENT	n/a	n/a	n/a	-999	4	[0, 0, 0]	n/a	FR1	1	R1216E
633.178	4.256	743679	REC_START	n/a	n/a	n/a	-999	4	[0, 0, 0]	n/a	FR1	1	R1216E
637.434	7.527	747935	REC_WORD_VV	7.527	n/a	<>	-999	4	[0, 0, 0]	n/a	FR1	1	R1216E
644.961	4.548	755461	REC_WORD	4.548	n/a	LAMB	-999	4	[0, 0, 0]	n/a	FR1	1	R1216E
649.509	13.679	760009	REC_WORD_VV	13.679	n/a	<>	-999	4	[0, 0, 0]	n/a	FR1	1	R1216E
663.188	6.445	773688	REC_END	n/a	n/a	n/a	-999	4	[0, 0, 0]	n/a	FR1	1	R1216E
669.633	0.5	780132	TRIAL	n/a	n/a	n/a	-999	5	[0, 0, 0]	n/a	FR1	1	R1216E
670.133	10.428	780632	COUNTDOWN_START	n/a	n/a	n/a	-999	5	[0, 0, 0]	n/a	FR1	1	R1216E
680.561	0.007	791060	COUNTDOWN_END	n/a	n/a	n/a	-999	5	[0, 0, 0]	n/a	FR1	1	R1216E
680.568	1.618	791067	ORIENT	n/a	n/a	n/a	-999	5	[0, 0, 0]	n/a	FR1	1	R1216E
682.186	2.167	792685	ORIENT_OFF	n/a	n/a	n/a	-999	5	[0, 0, 0]	n/a	FR1	1	R1216E
684.353	1.617	794852	WORD	n/a	wordpools/wordpool_EN.txt	BEAK	1	5	[0, 0, 0]	n/a	FR1	1	R1216E
685.97	0.867	796469	WORD_OFF	n/a	n/a	BEAK	1	5	[0, 0, 0]	n/a	FR1	1	R1216E
686.837	1.617	797336	WORD	n/a	wordpools/wordpool_EN.txt	SEED	2	5	[0, 0, 0]	n/a	FR1	1	R1216E
688.454	0.866	798953	WORD_OFF	n/a	n/a	SEED	2	5	[0, 0, 0]	n/a	FR1	1	R1216E
689.32	1.617	799819	WORD	n/a	wordpools/wordpool_EN.txt	FOX	3	5	[0, 0, 0]	n/a	FR1	1	R1216E
690.937	0.866	801436	WORD_OFF	n/a	n/a	FOX	3	5	[0, 0, 0]	n/a	FR1	1	R1216E
691.803	1.618	802302	WORD	n/a	wordpools/wordpool_EN.txt	JAR	4	5	[0, 0, 0]	n/a	FR1	1	R1216E
693.421	0.984	803920	WORD_OFF	n/a	n/a	JAR	4	5	[0, 0, 0]	n/a	FR1	1	R1216E
694.405	1.617	804903	WORD	n/a	wordpools/wordpool_EN.txt	COW	5	5	[0, 0, 0]	n/a	FR1	1	R1216E
696.022	0.766	806520	WORD_OFF	n/a	n/a	COW	5	5	[0, 0, 0]	n/a	FR1	1	R1216E
696.788	1.617	807286	WORD	n/a	wordpools/wordpool_EN.txt	JAIL	6	5	[0, 0, 0]	n/a	FR1	1	R1216E
698.405	0.784	808903	WORD_OFF	n/a	n/a	JAIL	6	5	[0, 0, 0]	n/a	FR1	1	R1216E
699.189	1.616	809687	WORD	n/a	wordpools/wordpool_EN.txt	TRAIN	7	5	[0, 0, 0]	n/a	FR1	1	R1216E
700.805	0.8	811303	WORD_OFF	n/a	n/a	TRAIN	7	5	[0, 0, 0]	n/a	FR1	1	R1216E
701.605	1.618	812103	WORD	n/a	wordpools/wordpool_EN.txt	EGG	8	5	[0, 0, 0]	n/a	FR1	1	R1216E
703.223	0.883	813721	WORD_OFF	n/a	n/a	EGG	8	5	[0, 0, 0]	n/a	FR1	1	R1216E
704.106	1.616	814604	WORD	n/a	wordpools/wordpool_EN.txt	ICE	9	5	[0, 0, 0]	n/a	FR1	1	R1216E
705.722	0.834	816220	WORD_OFF	n/a	n/a	ICE	9	5	[0, 0, 0]	n/a	FR1	1	R1216E
706.556	1.618	817054	WORD	n/a	wordpools/wordpool_EN.txt	SHRIMP	10	5	[0, 0, 0]	n/a	FR1	1	R1216E
708.174	0.9	818672	WORD_OFF	n/a	n/a	SHRIMP	10	5	[0, 0, 0]	n/a	FR1	1	R1216E
709.074	1.616	819572	WORD	n/a	wordpools/wordpool_EN.txt	PEAR	11	5	[0, 0, 0]	n/a	FR1	1	R1216E
710.69	1.0	821188	WORD_OFF	n/a	n/a	PEAR	11	5	[0, 0, 0]	n/a	FR1	1	R1216E
711.69	1.618	822188	WORD	n/a	wordpools/wordpool_EN.txt	ROOT	12	5	[0, 0, 0]	n/a	FR1	1	R1216E
713.308	0.0	823806	WORD_OFF	n/a	n/a	ROOT	12	5	[0, 0, 0]	n/a	FR1	1	R1216E
713.308	0.001	823806	DISTRACT_START	n/a	n/a	n/a	-999	5	[0, 0, 0]	n/a	FR1	1	R1216E
713.309	0.016	823807	START	n/a	n/a	n/a	-999	5	[-999, -999, -999]	n/a	FR1	1	R1216E
713.325	6.601	823823	PROB	6.601	n/a	n/a	-999	5	[9, 6, 2]	16	FR1	1	R1216E
719.926	6.201	830424	PROB	6.201	n/a	n/a	-999	5	[8, 6, 6]	20	FR1	1	R1216E
726.127	4.251	836624	PROB	4.251	n/a	n/a	-999	5	[6, 4, 3]	13	FR1	1	R1216E
730.378	4.833	840875	PROB	4.833	n/a	n/a	-999	5	[3, 6, 4]	13	FR1	1	R1216E
735.211	0.018	845708	STOP	n/a	n/a	n/a	-999	5	[-999, -999, -999]	n/a	FR1	1	R1216E
735.229	0.65	845726	DISTRACT_END	n/a	n/a	n/a	-999	5	[0, 0, 0]	n/a	FR1	1	R1216E
735.879	0.517	846376	RETRIEVAL_ORIENT	n/a	n/a	n/a	-999	5	[0, 0, 0]	n/a	FR1	1	R1216E
736.396	1.145	846893	REC_START	n/a	n/a	n/a	-999	5	[0, 0, 0]	n/a	FR1	1	R1216E
737.541	0.66	848038	REC_WORD	0.66	n/a	BEAK	-999	5	[0, 0, 0]	n/a	FR1	1	R1216E
738.201	1.0	848698	REC_WORD	1.0	n/a	SEED	-999	5	[0, 0, 0]	n/a	FR1	1	R1216E
739.201	27.204	849698	REC_WORD_VV	27.204	n/a	<>	-999	5	[0, 0, 0]	n/a	FR1	1	R1216E
766.405	6.097	876901	REC_END	n/a	n/a	n/a	-999	5	[0, 0, 0]	n/a	FR1	1	R1216E
772.502	0.5	882998	TRIAL	n/a	n/a	n/a	-999	6	[0, 0, 0]	n/a	FR1	1	R1216E
773.002	10.428	883497	COUNTDOWN_START	n/a	n/a	n/a	-999	6	[0, 0, 0]	n/a	FR1	1	R1216E
783.43	0.007	893925	COUNTDOWN_END	n/a	n/a	n/a	-999	6	[0, 0, 0]	n/a	FR1	1	R1216E
783.437	1.617	893932	ORIENT	n/a	n/a	n/a	-999	6	[0, 0, 0]	n/a	FR1	1	R1216E
785.054	1.984	895549	ORIENT_OFF	n/a	n/a	n/a	-999	6	[0, 0, 0]	n/a	FR1	1	R1216E
787.038	1.616	897533	WORD	n/a	wordpools/wordpool_EN.txt	LIP	1	6	[0, 0, 0]	n/a	FR1	1	R1216E
788.654	1.0	899149	WORD_OFF	n/a	n/a	LIP	1	6	[0, 0, 0]	n/a	FR1	1	R1216E
789.654	1.618	900149	WORD	n/a	wordpools/wordpool_EN.txt	CAGE	2	6	[0, 0, 0]	n/a	FR1	1	R1216E
791.272	0.867	901767	WORD_OFF	n/a	n/a	CAGE	2	6	[0, 0, 0]	n/a	FR1	1	R1216E
792.139	1.616	902634	WORD	n/a	wordpools/wordpool_EN.txt	SHOE	3	6	[0, 0, 0]	n/a	FR1	1	R1216E
793.755	0.916	904250	WORD_OFF	n/a	n/a	SHOE	3	6	[0, 0, 0]	n/a	FR1	1	R1216E
794.671	1.601	905166	WORD	n/a	wordpools/wordpool_EN.txt	SPOON	4	6	[0, 0, 0]	n/a	FR1	1	R1216E
796.272	0.834	906767	WORD_OFF	n/a	n/a	SPOON	4	6	[0, 0, 0]	n/a	FR1	1	R1216E
797.106	1.616	907601	WORD	n/a	wordpools/wordpool_EN.txt	TREE	5	6	[0, 0, 0]	n/a	FR1	1	R1216E
798.722	0.9	909217	WORD_OFF	n/a	n/a	TREE	5	6	[0, 0, 0]	n/a	FR1	1	R1216E
799.622	1.618	910116	WORD	n/a	wordpools/wordpool_EN.txt	OAR	6	6	[0, 0, 0]	n/a	FR1	1	R1216E
801.24	0.984	911734	WORD_OFF	n/a	n/a	OAR	6	6	[0, 0, 0]	n/a	FR1	1	R1216E
802.224	1.617	912718	WORD	n/a	wordpools/wordpool_EN.txt	TRAY	7	6	[0, 0, 0]	n/a	FR1	1	R1216E
803.841	0.932	914335	WORD_OFF	n/a	n/a	TRAY	7	6	[0, 0, 0]	n/a	FR1	1	R1216E
804.773	1.618	915267	WORD	n/a	wordpools/wordpool_EN.txt	MOTH	8	6	[0, 0, 0]	n/a	FR1	1	R1216E
806.391	0.8	916885	WORD_OFF	n/a	n/a	MOTH	8	6	[0, 0, 0]	n/a	FR1	1	R1216E
807.191	1.616	917685	WORD	n/a	wordpools/wordpool_EN.txt	BENCH	9	6	[0, 0, 0]	n/a	FR1	1	R1216E
808.807	1.0	919301	WORD_OFF	n/a	n/a	BENCH	9	6	[0, 0, 0]	n/a	FR1	1	R1216E
809.807	1.601	920301	WORD	n/a	wordpools/wordpool_EN.txt	STAIR	10	6	[0, 0, 0]	n/a	FR1	1	R1216E
811.408	0.901	921902	WORD_OFF	n/a	n/a	STAIR	10	6	[0, 0, 0]	n/a	FR1	1	R1216E
812.309	1.617	922803	WORD	n/a	wordpools/wordpool_EN.txt	FLAME	11	6	[0, 0, 0]	n/a	FR1	1	R1216E
813.926	0.866	924420	WORD_OFF	n/a	n/a	FLAME	11	6	[0, 0, 0]	n/a	FR1	1	R1216E
814.792	1.618	925286	WORD	n/a	wordpools/wordpool_EN.txt	ROOM	12	6	[0, 0, 0]	n/a	FR1	1	R1216E
816.41	0.0	926904	WORD_OFF	n/a	n/a	ROOM	12	6	[0, 0, 0]	n/a	FR1	1	R1216E
816.41	0.0	926904	DISTRACT_START	n/a	n/a	n/a	-999	6	[0, 0, 0]	n/a	FR1	1	R1216E
816.41	0.016	926904	START	n/a	n/a	n/a	-999	6	[-999, -999, -999]	n/a	FR1	1	R1216E
816.426	6.451	926920	PROB	6.451	n/a	n/a	-999	6	[8, 7, 1]	16	FR1	1	R1216E
822.877	5.351	933371	PROB	5.351	n/a	n/a	-999	6	[1, 5, 5]	11	FR1	1	R1216E
828.228	9.013	938721	PROB	9.013	n/a	n/a	-999	6	[2, 6, 5]	13	FR1	1	R1216E
837.241	0.005	947734	STOP	n/a	n/a	n/a	-999	6	[-999, -999, -999]	n/a	FR1	1	R1216E
837.246	0.55	947739	DISTRACT_END	n/a	n/a	n/a	-999	6	[0, 0, 0]	n/a	FR1	1	R1216E
837.796	0.518	948289	RETRIEVAL_ORIENT	n/a	n/a	n/a	-999	6	[0, 0, 0]	n/a	FR1	1	R1216E
838.314	1.958	948807	REC_START	n/a	n/a	n/a	-999	6	[0, 0, 0]	n/a	FR1	1	R1216E
840.272	0.775	950765	REC_WORD_VV	0.775	n/a	<>	-999	6	[0, 0, 0]	n/a	FR1	1	R1216E
841.047	0.894	951540	REC_WORD_VV	0.894	n/a	<>	-999	6	[0, 0, 0]	n/a	FR1	1	R1216E
841.941	1.0	952434	REC_WORD	1.0	n/a	SPOON	-999	6	[0, 0, 0]	n/a	FR1	1	R1216E
842.941	5.796	953434	REC_WORD_VV	5.796	n/a	<>	-999	6	[0, 0, 0]	n/a	FR1	1	R1216E
848.737	3.311	959230	REC_WORD	3.311	n/a	ROOM	-999	6	[0, 0, 0]	n/a	FR1	1	R1216E
852.048	1.0	962540	REC_WORD	1.0	n/a	CAGE	-999	6	[0, 0, 0]	n/a	FR1	1	R1216E
853.048	10.082	963540	REC_WORD_VV	10.082	n/a	<>	-999	6	[0, 0, 0]	n/a	FR1	1	R1216E
863.13	1.0	973622	REC_WORD_VV	1.0	n/a	<>	-999	6	[0, 0, 0]	n/a	FR1	1	R1216E
864.13	4.194	974622	REC_WORD_VV	4.194	n/a	<>	-999	6	[0, 0, 0]	n/a	FR1	1	R1216E
868.324	7.278	978816	REC_END	n/a	n/a	n/a	-999	6	[0, 0, 0]	n/a	FR1	1	R1216E
875.602	0.5	986094	TRIAL	n/a	n/a	n/a	-999	7	[0, 0, 0]	n/a	FR1	1	R1216E
876.102	10.428	986594	COUNTDOWN_START	n/a	n/a	n/a	-999	7	[0, 0, 0]	n/a	FR1	1	R1216E
886.53	0.008	997021	COUNTDOWN_END	n/a	n/a	n/a	-999	7	[0, 0, 0]	n/a	FR1	1	R1216E
886.538	1.618	997029	ORIENT	n/a	n/a	n/a	-999	7	[0, 0, 0]	n/a	FR1	1	R1216E
888.156	2.017	998647	ORIENT_OFF	n/a	n/a	n/a	-999	7	[0, 0, 0]	n/a	FR1	1	R1216E
890.173	1.615	1000664	WORD	n/a	wordpools/wordpool_EN.txt	NAIL	1	7	[0, 0, 0]	n/a	FR1	1	R1216E
891.788	0.984	1002279	WORD_OFF	n/a	n/a	NAIL	1	7	[0, 0, 0]	n/a	FR1	1	R1216E
892.772	1.618	1003263	WORD	n/a	wordpools/wordpool_EN.txt	BED	2	7	[0, 0, 0]	n/a	FR1	1	R1216E
894.39	0.967	1004881	WORD_OFF	n/a	n/a	BED	2	7	[0, 0, 0]	n/a	FR1	1	R1216E
895.357	1.617	1005848	WORD	n/a	wordpools/wordpool_EN.txt	PIPE	3	7	[0, 0, 0]	n/a	FR1	1	R1216E
896.974	0.799	1007465	WORD_OFF	n/a	n/a	PIPE	3	7	[0, 0, 0]	n/a	FR1	1	R1216E
897.773	1.618	1008264	WORD	n/a	wordpools/wordpool_EN.txt	SQUARE	4	7	[0, 0, 0]	n/a	FR1	1	R1216E
899.391	0.933	1009882	WORD_OFF	n/a	n/a	SQUARE	4	7	[0, 0, 0]	n/a	FR1	1	R1216E
900.324	1.617	1010815	WORD	n/a	wordpools/wordpool_EN.txt	BATH	5	7	[0, 0, 0]	n/a	FR1	1	R1216E
901.941	1.0	1012432	WORD_OFF	n/a	n/a	BATH	5	7	[0, 0, 0]	n/a	FR1	1	R1216E
902.941	1.616	1013432	WORD	n/a	wordpools/wordpool_EN.txt	SHIELD	6	7	[0, 0, 0]	n/a	FR1	1	R1216E
904.557	0.968	1015047	WORD_OFF	n/a	n/a	SHIELD	6	7	[0, 0, 0]	n/a	FR1	1	R1216E
905.525	1.617	1016015	WORD	n/a	wordpools/wordpool_EN.txt	PLATE	7	7	[0, 0, 0]	n/a	FR1	1	R1216E
907.142	0.817	1017632	WORD_OFF	n/a	n/a	PLATE	7	7	[0, 0, 0]	n/a	FR1	1	R1216E
907.959	1.616	1018449	WORD	n/a	wordpools/wordpool_EN.txt	HOSE	8	7	[0, 0, 0]	n/a	FR1	1	R1216E
909.575	0.768	1020065	WORD_OFF	n/a	n/a	HOSE	8	7	[0, 0, 0]	n/a	FR1	1	R1216E
910.343	1.617	1020833	WORD	n/a	wordpools/wordpool_EN.txt	JUDGE	9	7	[0, 0, 0]	n/a	FR1	1	R1216E
911.96	0.916	1022450	WORD_OFF	n/a	n/a	JUDGE	9	7	[0, 0, 0]	n/a	FR1	1	R1216E
912.876	1.617	1023366	WORD	n/a	wordpools/wordpool_EN.txt	PIN	10	7	[0, 0, 0]	n/a	FR1	1	R1216E
914.493	0.884	1024983	WORD_OFF	n/a	n/a	PIN	10	7	[0, 0, 0]	n/a	FR1	1	R1216E
915.377	1.617	1025867	WORD	n/a	wordpools/wordpool_EN.txt	CUP	11	7	[0, 0, 0]	n/a	FR1	1	R1216E
916.994	0.967	1027484	WORD_OFF	n/a	n/a	CUP	11	7	[0, 0, 0]	n/a	FR1	1	R1216E
917.961	1.616	1028451	WORD	n/a	wordpools/wordpool_EN.txt	BLUSH	12	7	[0, 0, 0]	n/a	FR1	1	R1216E
919.577	0.0	1030067	WORD_OFF	n/a	n/a	BLUSH	12	7	[0, 0, 0]	n/a	FR1	1	R1216E
919.577	0.0	1030067	DISTRACT_START	n/a	n/a	n/a	-999	7	[0, 0, 0]	n/a	FR1	1	R1216E
919.577	0.016	1030067	START	n/a	n/a	n/a	-999	7	[-999, -999, -999]	n/a	FR1	1	R1216E
919.593	3.968	1030083	PROB	3.968	n/a	n/a	-999	7	[3, 5, 2]	10	FR1	1	R1216E
923.561	4.868	1034051	PROB	4.868	n/a	n/a	-999	7	[8, 6, 1]	15	FR1	1	R1216E
928.429	3.15	1038919	PROB	3.15	n/a	n/a	-999	7	[5, 3, 2]	10	FR1	1	R1216E
931.579	6.268	1042068	PROB	6.268	n/a	n/a	-999	7	[5, 1, 9]	14	FR1	1	R1216E
937.847	8.186	1048336	PROB	8.186	n/a	n/a	-999	7	[8, 6, 8]	22	FR1	1	R1216E
946.033	0.016	1056522	STOP	n/a	n/a	n/a	-999	7	[-999, -999, -999]	n/a	FR1	1	R1216E
946.049	0.549	1056538	DISTRACT_END	n/a	n/a	n/a	-999	7	[0, 0, 0]	n/a	FR1	1	R1216E
946.598	0.502	1057087	RETRIEVAL_ORIENT	n/a	n/a	n/a	-999	7	[0, 0, 0]	n/a	FR1	1	R1216E
947.1	1.673	1057589	REC_START	n/a	n/a	n/a	-999	7	[0, 0, 0]	n/a	FR1	1	R1216E
948.773	1.0	1059262	REC_WORD	1.0	n/a	PIN	-999	7	[0, 0, 0]	n/a	FR1	1	R1216E
949.773	12.626	1060262	REC_WORD_VV	12.626	n/a	<>	-999	7	[0, 0, 0]	n/a	FR1	1	R1216E
962.399	1.0	1072887	REC_WORD	1.0	n/a	BLUSH	-999	7	[0, 0, 0]	n/a	FR1	1	R1216E
963.399	8.995	1073887	REC_WORD_VV	8.995	n/a	<>	-999	7	[0, 0, 0]	n/a	FR1	1	R1216E
972.394	4.715	1082882	REC_WORD_VV	4.715	n/a	<>	-999	7	[0, 0, 0]	n/a	FR1	1	R1216E
977.109	5.93	1087597	REC_END	n/a	n/a	n/a	-999	7	[0, 0, 0]	n/a	FR1	1	R1216E
983.039	0.5	1093526	TRIAL	n/a	n/a	n/a	-999	8	[0, 0, 0]	n/a	FR1	1	R1216E
983.539	10.428	1094026	COUNTDOWN_START	n/a	n/a	n/a	-999	8	[0, 0, 0]	n/a	FR1	1	R1216E
993.967	0.007	1104454	COUNTDOWN_END	n/a	n/a	n/a	-999	8	[0, 0, 0]	n/a	FR1	1	R1216E
993.974	1.616	1104461	ORIENT	n/a	n/a	n/a	-999	8	[0, 0, 0]	n/a	FR1	1	R1216E
995.59	2.385	1106077	ORIENT_OFF	n/a	n/a	n/a	-999	8	[0, 0, 0]	n/a	FR1	1	R1216E
997.975	1.616	1108462	WORD	n/a	wordpools/wordpool_EN.txt	STOVE	1	8	[0, 0, 0]	n/a	FR1	1	R1216E
999.591	1.017	1110078	WORD_OFF	n/a	n/a	STOVE	1	8	[0, 0, 0]	n/a	FR1	1	R1216E
1000.608	1.618	1111095	WORD	n/a	wordpools/wordpool_EN.txt	SPONGE	2	8	[0, 0, 0]	n/a	FR1	1	R1216E
1002.226	0.9	1112713	WORD_OFF	n/a	n/a	SPONGE	2	8	[0, 0, 0]	n/a	FR1	1	R1216E
1003.126	1.616	1113613	WORD	n/a	wordpools/wordpool_EN.txt	HAND	3	8	[0, 0, 0]	n/a	FR1	1	R1216E
1004.742	0.95	1115229	WORD_OFF	n/a	n/a	HAND	3	8	[0, 0, 0]	n/a	FR1	1	R1216E
1005.692	1.618	1116179	WORD	n/a	wordpools/wordpool_EN.txt	ROAD	4	8	[0, 0, 0]	n/a	FR1	1	R1216E
1007.31	0.867	1117797	WORD_OFF	n/a	n/a	ROAD	4	8	[0, 0, 0]	n/a	FR1	1	R1216E
1008.177	1.616	1118664	WORD	n/a	wordpools/wordpool_EN.txt	THREAD	5	8	[0, 0, 0]	n/a	FR1	1	R1216E
1009.793	0.983	1120279	WORD_OFF	n/a	n/a	THREAD	5	8	[0, 0, 0]	n/a	FR1	1	R1216E
1010.776	1.601	1121262	WORD	n/a	wordpools/wordpool_EN.txt	SINK	6	8	[0, 0, 0]	n/a	FR1	1	R1216E
1012.377	0.767	1122863	WORD_OFF	n/a	n/a	SINK	6	8	[0, 0, 0]	n/a	FR1	1	R1216E
1013.144	1.616	1123630	WORD	n/a	wordpools/wordpool_EN.txt	WAND	7	8	[0, 0, 0]	n/a	FR1	1	R1216E
1014.76	0.984	1125246	WORD_OFF	n/a	n/a	WAND	7	8	[0, 0, 0]	n/a	FR1	1	R1216E
1015.744	1.618	1126230	WORD	n/a	wordpools/wordpool_EN.txt	ROSE	8	8	[0, 0, 0]	n/a	FR1	1	R1216E
1017.362	0.866	1127848	WORD_OFF	n/a	n/a	ROSE	8	8	[0, 0, 0]	n/a	FR1	1	R1216E
1018.228	1.617	1128714	WORD	n/a	wordpools/wordpool_EN.txt	CROW	9	8	[0, 0, 0]	n/a	FR1	1	R1216E
1019.845	0.916	1130331	WORD_OFF	n/a	n/a	CROW	9	8	[0, 0, 0]	n/a	FR1	1	R1216E
1020.761	1.618	1131247	WORD	n/a	wordpools/wordpool_EN.txt	GUARD	10	8	[0, 0, 0]	n/a	FR1	1	R1216E
1022.379	0.884	1132865	WORD_OFF	n/a	n/a	GUARD	10	8	[0, 0, 0]	n/a	FR1	1	R1216E
1023.263	1.617	1133749	WORD	n/a	wordpools/wordpool_EN.txt	VASE	11	8	[0, 0, 0]	n/a	FR1	1	R1216E
1024.88	0.932	1135366	WORD_OFF	n/a	n/a	VASE	11	8	[0, 0, 0]	n/a	FR1	1	R1216E
1025.812	1.618	1136298	WORD	n/a	wordpools/wordpool_EN.txt	TRUCK	12	8	[0, 0, 0]	n/a	FR1	1	R1216E
1027.43	0.0	1137916	WORD_OFF	n/a	n/a	TRUCK	12	8	[0, 0, 0]	n/a	FR1	1	R1216E
1027.43	0.001	1137916	DISTRACT_START	n/a	n/a	n/a	-999	8	[0, 0, 0]	n/a	FR1	1	R1216E
1027.431	0.016	1137917	START	n/a	n/a	n/a	-999	8	[-999, -999, -999]	n/a	FR1	1	R1216E
1027.447	3.333	1137933	PROB	3.333	n/a	n/a	-999	8	[1, 1, 9]	11	FR1	1	R1216E
1030.78	8.635	1141266	PROB	8.635	n/a	n/a	-999	8	[4, 7, 3]	14	FR1	1	R1216E
1039.415	7.452	1149900	PROB	7.452	n/a	n/a	-999	8	[7, 6, 7]	20	FR1	1	R1216E
1046.867	3.222	1157352	PROB	3.222	n/a	n/a	-999	8	[1, 4, 5]	10	FR1	1	R1216E
1050.089	0.012	1160574	STOP	n/a	n/a	n/a	-999	8	[-999, -999, -999]	n/a	FR1	1	R1216E
1050.101	0.532	1160586	DISTRACT_END	n/a	n/a	n/a	-999	8	[0, 0, 0]	n/a	FR1	1	R1216E
1050.633	0.519	1161118	RETRIEVAL_ORIENT	n/a	n/a	n/a	-999	8	[0, 0, 0]	n/a	FR1	1	R1216E
1051.152	1.383	1161637	REC_START	n/a	n/a	n/a	-999	8	[0, 0, 0]	n/a	FR1	1	R1216E
1052.535	0.967	1163020	REC_WORD	0.967	n/a	CROW	-999	8	[0, 0, 0]	n/a	FR1	1	R1216E
1053.502	1.0	1163987	REC_WORD	1.0	n/a	TRUCK	-999	8	[0, 0, 0]	n/a	FR1	1	R1216E
1054.502	26.66	1164987	REC_WORD_VV	26.66	n/a	<>	-999	8	[0, 0, 0]	n/a	FR1	1	R1216E
1081.162	5.862	1191646	REC_END	n/a	n/a	n/a	-999	8	[0, 0, 0]	n/a	FR1	1	R1216E
1087.024	0.5	1197508	TRIAL	n/a	n/a	n/a	-999	9	[0, 0, 0]	n/a	FR1	1	R1216E
1087.524	10.428	1198008	COUNTDOWN_START	n/a	n/a	n/a	-999	9	[0, 0, 0]	n/a	FR1	1	R1216E
1097.952	0.007	1208435	COUNTDOWN_END	n/a	n/a	n/a	-999	9	[0, 0, 0]	n/a	FR1	1	R1216E
1097.959	1.616	1208442	ORIENT	n/a	n/a	n/a	-999	9	[0, 0, 0]	n/a	FR1	1	R1216E
1099.575	2.351	1210058	ORIENT_OFF	n/a	n/a	n/a	-999	9	[0, 0, 0]	n/a	FR1	1	R1216E
1101.926	1.617	1212409	WORD	n/a	wordpools/wordpool_EN.txt	EAR	1	9	[0, 0, 0]	n/a	FR1	1	R1216E
1103.543	0.9	1214026	WORD_OFF	n/a	n/a	EAR	1	9	[0, 0, 0]	n/a	FR1	1	R1216E
1104.443	1.617	1214926	WORD	n/a	wordpools/wordpool_EN.txt	MOUTH	2	9	[0, 0, 0]	n/a	FR1	1	R1216E
1106.06	0.801	1216543	WORD_OFF	n/a	n/a	MOUTH	2	9	[0, 0, 0]	n/a	FR1	1	R1216E
1106.861	1.617	1217344	WORD	n/a	wordpools/wordpool_EN.txt	GLASS	3	9	[0, 0, 0]	n/a	FR1	1	R1216E
1108.478	0.833	1218961	WORD_OFF	n/a	n/a	GLASS	3	9	[0, 0, 0]	n/a	FR1	1	R1216E
1109.311	1.617	1219794	WORD	n/a	wordpools/wordpool_EN.txt	FORT	4	9	[0, 0, 0]	n/a	FR1	1	R1216E
1110.928	0.882	1221411	WORD_OFF	n/a	n/a	FORT	4	9	[0, 0, 0]	n/a	FR1	1	R1216E
1111.81	1.601	1222293	WORD	n/a	wordpools/wordpool_EN.txt	CAKE	5	9	[0, 0, 0]	n/a	FR1	1	R1216E
1113.411	0.784	1223894	WORD_OFF	n/a	n/a	CAKE	5	9	[0, 0, 0]	n/a	FR1	1	R1216E
1114.195	1.616	1224677	WORD	n/a	wordpools/wordpool_EN.txt	SLEEVE	6	9	[0, 0, 0]	n/a	FR1	1	R1216E
1115.811	0.834	1226293	WORD_OFF	n/a	n/a	SLEEVE	6	9	[0, 0, 0]	n/a	FR1	1	R1216E
1116.645	1.618	1227127	WORD	n/a	wordpools/wordpool_EN.txt	CAVE	7	9	[0, 0, 0]	n/a	FR1	1	R1216E
1118.263	0.866	1228745	WORD_OFF	n/a	n/a	CAVE	7	9	[0, 0, 0]	n/a	FR1	1	R1216E
1119.129	1.616	1229611	WORD	n/a	wordpools/wordpool_EN.txt	TOOTH	8	9	[0, 0, 0]	n/a	FR1	1	R1216E
1120.745	0.917	1231227	WORD_OFF	n/a	n/a	TOOTH	8	9	[0, 0, 0]	n/a	FR1	1	R1216E
1121.662	1.618	1232144	WORD	n/a	wordpools/wordpool_EN.txt	WOOD	9	9	[0, 0, 0]	n/a	FR1	1	R1216E
1123.28	1.017	1233762	WORD_OFF	n/a	n/a	WOOD	9	9	[0, 0, 0]	n/a	FR1	1	R1216E
1124.297	1.617	1234779	WORD	n/a	wordpools/wordpool_EN.txt	SPRING	10	9	[0, 0, 0]	n/a	FR1	1	R1216E
1125.914	0.849	1236396	WORD_OFF	n/a	n/a	SPRING	10	9	[0, 0, 0]	n/a	FR1	1	R1216E
1126.763	1.618	1237245	WORD	n/a	wordpools/wordpool_EN.txt	TOOL	11	9	[0, 0, 0]	n/a	FR1	1	R1216E
1128.381	0.9	1238863	WORD_OFF	n/a	n/a	TOOL	11	9	[0, 0, 0]	n/a	FR1	1	R1216E
1129.281	1.617	1239763	WORD	n/a	wordpools/wordpool_EN.txt	ELF	12	9	[0, 0, 0]	n/a	FR1	1	R1216E
1130.898	0.0	1241380	WORD_OFF	n/a	n/a	ELF	12	9	[0, 0, 0]	n/a	FR1	1	R1216E
1130.898	0.001	1241380	DISTRACT_START	n/a	n/a	n/a	-999	9	[0, 0, 0]	n/a	FR1	1	R1216E
1130.899	0.016	1241381	START	n/a	n/a	n/a	-999	9	[-999, -999, -999]	n/a	FR1	1	R1216E
1130.915	10.468	1241397	PROB	10.468	n/a	n/a	-999	9	[9, 9, 2]	20	FR1	1	R1216E
1141.383	6.818	1251864	PROB	6.818	n/a	n/a	-999	9	[8, 8, 3]	19	FR1	1	R1216E
1148.201	3.961	1258682	PROB	3.961	n/a	n/a	-999	9	[3, 4, 1]	8	FR1	1	R1216E
1152.162	0.006	1262643	STOP	n/a	n/a	n/a	-999	9	[-999, -999, -999]	n/a	FR1	1	R1216E
1152.168	0.549	1262649	DISTRACT_END	n/a	n/a	n/a	-999	9	[0, 0, 0]	n/a	FR1	1	R1216E
1152.717	0.519	1263198	RETRIEVAL_ORIENT	n/a	n/a	n/a	-999	9	[0, 0, 0]	n/a	FR1	1	R1216E
1153.236	2.906	1263717	REC_START	n/a	n/a	n/a	-999	9	[0, 0, 0]	n/a	FR1	1	R1216E
1156.142	1.0	1266623	REC_WORD	1.0	n/a	GLASS	-999	9	[0, 0, 0]	n/a	FR1	1	R1216E
1157.142	2.108	1267623	REC_WORD_VV	2.108	n/a	<>	-999	9	[0, 0, 0]	n/a	FR1	1	R1216E
1159.25	4.043	1269731	REC_WORD	4.043	n/a	EAR	-999	9	[0, 0, 0]	n/a	FR1	1	R1216E
1163.293	2.952	1273774	REC_WORD	2.952	n/a	MOUTH	-999	9	[0, 0, 0]	n/a	FR1	1	R1216E
1166.245	0.998	1276726	REC_WORD	0.998	n/a	TOOTH	-999	9	[0, 0, 0]	n/a	FR1	1	R1216E
1167.243	3.217	1277723	REC_WORD_VV	3.217	n/a	<>	-999	9	[0, 0, 0]	n/a	FR1	1	R1216E
1170.46	12.785	1280940	REC_WORD	12.785	n/a	CAKE	-999	9	[0, 0, 0]	n/a	FR1	1	R1216E
1183.245	5.08	1293725	REC_END	n/a	n/a	n/a	-999	9	[0, 0, 0]	n/a	FR1	1	R1216E
1188.325	0.5	1298805	TRIAL	n/a	n/a	n/a	-999	10	[0, 0, 0]	n/a	FR1	1	R1216E
1188.825	10.428	1299305	COUNTDOWN_START	n/a	n/a	n/a	-999	10	[0, 0, 0]	n/a	FR1	1	R1216E
1199.253	0.007	1309732	COUNTDOWN_END	n/a	n/a	n/a	-999	10	[0, 0, 0]	n/a	FR1	1	R1216E
1199.26	1.617	1309739	ORIENT	n/a	n/a	n/a	-999	10	[0, 0, 0]	n/a	FR1	1	R1216E
1200.877	2.134	1311356	ORIENT_OFF	n/a	n/a	n/a	-999	10	[0, 0, 0]	n/a	FR1	1	R1216E
1203.011	1.616	1313490	WORD	n/a	wordpools/wordpool_EN.txt	DRUM	1	10	[0, 0, 0]	n/a	FR1	1	R1216E
1204.627	1.0	1315106	WORD_OFF	n/a	n/a	DRUM	1	10	[0, 0, 0]	n/a	FR1	1	R1216E
1205.627	1.618	1316106	WORD	n/a	wordpools/wordpool_EN.txt	FUR	2	10	[0, 0, 0]	n/a	FR1	1	R1216E
1207.245	0.817	1317724	WORD_OFF	n/a	n/a	FUR	2	10	[0, 0, 0]	n/a	FR1	1	R1216E
1208.062	1.616	1318541	WORD	n/a	wordpools/wordpool_EN.txt	VINE	3	10	[0, 0, 0]	n/a	FR1	1	R1216E
1209.678	0.9	1320157	WORD_OFF	n/a	n/a	VINE	3	10	[0, 0, 0]	n/a	FR1	1	R1216E
1210.578	1.618	1321057	WORD	n/a	wordpools/wordpool_EN.txt	HAT	4	10	[0, 0, 0]	n/a	FR1	1	R1216E
1212.196	0.85	1322675	WORD_OFF	n/a	n/a	HAT	4	10	[0, 0, 0]	n/a	FR1	1	R1216E
1213.046	1.616	1323525	WORD	n/a	wordpools/wordpool_EN.txt	COUCH	5	10	[0, 0, 0]	n/a	FR1	1	R1216E
1214.662	0.851	1325141	WORD_OFF	n/a	n/a	COUCH	5	10	[0, 0, 0]	n/a	FR1	1	R1216E
1215.513	1.617	1325992	WORD	n/a	wordpools/wordpool_EN.txt	SNOW	6	10	[0, 0, 0]	n/a	FR1	1	R1216E
1217.13	0.767	1327609	WORD_OFF	n/a	n/a	SNOW	6	10	[0, 0, 0]	n/a	FR1	1	R1216E
1217.897	1.617	1328376	WORD	n/a	wordpools/wordpool_EN.txt	TEA	7	10	[0, 0, 0]	n/a	FR1	1	R1216E
1219.514	0.85	1329992	WORD_OFF	n/a	n/a	TEA	7	10	[0, 0, 0]	n/a	FR1	1	R1216E
1220.364	1.617	1330842	WORD	n/a	wordpools/wordpool_EN.txt	FAN	8	10	[0, 0, 0]	n/a	FR1	1	R1216E
1221.981	0.967	1332459	WORD_OFF	n/a	n/a	FAN	8	10	[0, 0, 0]	n/a	FR1	1	R1216E
1222.948	1.616	1333426	WORD	n/a	wordpools/wordpool_EN.txt	STEM	9	10	[0, 0, 0]	n/a	FR1	1	R1216E
1224.564	0.817	1335042	WORD_OFF	n/a	n/a	STEM	9	10	[0, 0, 0]	n/a	FR1	1	R1216E
1225.381	1.617	1335859	WORD	n/a	wordpools/wordpool_EN.txt	PIE	10	10	[0, 0, 0]	n/a	FR1	1	R1216E
1226.998	0.783	1337476	WORD_OFF	n/a	n/a	PIE	10	10	[0, 0, 0]	n/a	FR1	1	R1216E
1227.781	1.618	1338259	WORD	n/a	wordpools/wordpool_EN.txt	EEL	11	10	[0, 0, 0]	n/a	FR1	1	R1216E
1229.399	0.867	1339877	WORD_OFF	n/a	n/a	EEL	11	10	[0, 0, 0]	n/a	FR1	1	R1216E
1230.266	1.617	1340744	WORD	n/a	wordpools/wordpool_EN.txt	HAWK	12	10	[0, 0, 0]	n/a	FR1	1	R1216E
1231.883	0.0	1342361	WORD_OFF	n/a	n/a	HAWK	12	10	[0, 0, 0]	n/a	FR1	1	R1216E
1231.883	0.0	1342361	DISTRACT_START	n/a	n/a	n/a	-999	10	[0, 0, 0]	n/a	FR1	1	R1216E
1231.883	0.016	1342361	START	n/a	n/a	n/a	-999	10	[-999, -999, -999]	n/a	FR1	1	R1216E
1231.899	6.85	1342377	PROB	6.85	n/a	n/a	-999	10	[6, 8, 8]	22	FR1	1	R1216E
1238.749	7.902	1349227	PROB	7.902	n/a	n/a	-999	10	[6, 5, 6]	17	FR1	1	R1216E
1246.651	5.389	1357128	PROB	5.389	n/a	n/a	-999	10	[1, 7, 7]	15	FR1	1	R1216E
1252.04	0.013	1362517	STOP	n/a	n/a	n/a	-999	10	[-999, -999, -999]	n/a	FR1	1	R1216E
1252.053	0.549	1362530	DISTRACT_END	n/a	n/a	n/a	-999	10	[0, 0, 0]	n/a	FR1	1	R1216E
1252.602	0.518	1363079	RETRIEVAL_ORIENT	n/a	n/a	n/a	-999	10	[0, 0, 0]	n/a	FR1	1	R1216E
1253.12	6.866	1363597	REC_START	n/a	n/a	n/a	-999	10	[0, 0, 0]	n/a	FR1	1	R1216E
1259.986	3.911	1370463	REC_WORD_VV	3.911	n/a	<>	-999	10	[0, 0, 0]	n/a	FR1	1	R1216E
1263.897	19.234	1374374	REC_WORD	19.234	n/a	EEL	-999	10	[0, 0, 0]	n/a	FR1	1	R1216E
1283.131	5.728	1393607	REC_END	n/a	n/a	n/a	-999	10	[0, 0, 0]	n/a	FR1	1	R1216E
1288.859	0.5	1399335	TRIAL	n/a	n/a	n/a	-999	11	[0, 0, 0]	n/a	FR1	1	R1216E
1289.359	10.428	1399835	COUNTDOWN_START	n/a	n/a	n/a	-999	11	[0, 0, 0]	n/a	FR1	1	R1216E
1299.787	0.007	1410262	COUNTDOWN_END	n/a	n/a	n/a	-999	11	[0, 0, 0]	n/a	FR1	1	R1216E
1299.794	1.617	1410269	ORIENT	n/a	n/a	n/a	-999	11	[0, 0, 0]	n/a	FR1	1	R1216E
1301.411	1.951	1411886	ORIENT_OFF	n/a	n/a	n/a	-999	11	[0, 0, 0]	n/a	FR1	1	R1216E
1303.362	1.617	1413837	WORD	n/a	wordpools/wordpool_EN.txt	HILL	1	11	[0, 0, 0]	n/a	FR1	1	R1216E
1304.979	0.766	1415454	WORD_OFF	n/a	n/a	HILL	1	11	[0, 0, 0]	n/a	FR1	1	R1216E
1305.745	1.617	1416220	WORD	n/a	wordpools/wordpool_EN.txt	BALL	2	11	[0, 0, 0]	n/a	FR1	1	R1216E
1307.362	0.767	1417837	WORD_OFF	n/a	n/a	BALL	2	11	[0, 0, 0]	n/a	FR1	1	R1216E
1308.129	1.616	1418604	WORD	n/a	wordpools/wordpool_EN.txt	OWL	3	11	[0, 0, 0]	n/a	FR1	1	R1216E
1309.745	0.785	1420220	WORD_OFF	n/a	n/a	OWL	3	11	[0, 0, 0]	n/a	FR1	1	R1216E
1310.53	1.617	1421005	WORD	n/a	wordpools/wordpool_EN.txt	GRAPE	4	11	[0, 0, 0]	n/a	FR1	1	R1216E
1312.147	0.85	1422622	WORD_OFF	n/a	n/a	GRAPE	4	11	[0, 0, 0]	n/a	FR1	1	R1216E
1312.997	1.616	1423472	WORD	n/a	wordpools/wordpool_EN.txt	STICK	5	11	[0, 0, 0]	n/a	FR1	1	R1216E
1314.613	0.784	1425088	WORD_OFF	n/a	n/a	STICK	5	11	[0, 0, 0]	n/a	FR1	1	R1216E
1315.397	1.617	1425872	WORD	n/a	wordpools/wordpool_EN.txt	DOCK	6	11	[0, 0, 0]	n/a	FR1	1	R1216E
1317.014	0.884	1427489	WORD_OFF	n/a	n/a	DOCK	6	11	[0, 0, 0]	n/a	FR1	1	R1216E
1317.898	1.617	1428373	WORD	n/a	wordpools/wordpool_EN.txt	FUDGE	7	11	[0, 0, 0]	n/a	FR1	1	R1216E
1319.515	0.967	1429990	WORD_OFF	n/a	n/a	FUDGE	7	11	[0, 0, 0]	n/a	FR1	1	R1216E
1320.482	1.616	1430957	WORD	n/a	wordpools/wordpool_EN.txt	FENCE	8	11	[0, 0, 0]	n/a	FR1	1	R1216E
1322.098	0.767	1432573	WORD_OFF	n/a	n/a	FENCE	8	11	[0, 0, 0]	n/a	FR1	1	R1216E
1322.865	1.617	1433340	WORD	n/a	wordpools/wordpool_EN.txt	DIME	9	11	[0, 0, 0]	n/a	FR1	1	R1216E
1324.482	0.9	1434956	WORD_OFF	n/a	n/a	DIME	9	11	[0, 0, 0]	n/a	FR1	1	R1216E
1325.382	1.617	1435856	WORD	n/a	wordpools/wordpool_EN.txt	VEST	10	11	[0, 0, 0]	n/a	FR1	1	R1216E
1326.999	0.934	1437473	WORD_OFF	n/a	n/a	VEST	10	11	[0, 0, 0]	n/a	FR1	1	R1216E
1327.933	1.616	1438407	WORD	n/a	wordpools/wordpool_EN.txt	CLOTH	11	11	[0, 0, 0]	n/a	FR1	1	R1216E
1329.549	0.984	1440023	WORD_OFF	n/a	n/a	CLOTH	11	11	[0, 0, 0]	n/a	FR1	1	R1216E
1330.533	1.617	1441007	WORD	n/a	wordpools/wordpool_EN.txt	BAG	12	11	[0, 0, 0]	n/a	FR1	1	R1216E
1332.15	0.0	1442624	WORD_OFF	n/a	n/a	BAG	12	11	[0, 0, 0]	n/a	FR1	1	R1216E
1332.15	0.001	1442624	DISTRACT_START	n/a	n/a	n/a	-999	11	[0, 0, 0]	n/a	FR1	1	R1216E
1332.151	0.016	1442625	START	n/a	n/a	n/a	-999	11	[-999, -999, -999]	n/a	FR1	1	R1216E
1332.167	6.517	1442641	PROB	6.517	n/a	n/a	-999	11	[5, 3, 8]	16	FR1	1	R1216E
1338.684	4.135	1449158	PROB	4.135	n/a	n/a	-999	11	[2, 5, 4]	11	FR1	1	R1216E
1342.819	21.552	1453293	PROB	21.552	n/a	n/a	-999	11	[8, 6, 7]	21	FR1	1	R1216E
1364.371	0.018	1474844	STOP	n/a	n/a	n/a	-999	11	[-999, -999, -999]	n/a	FR1	1	R1216E
1364.389	0.617	1474862	DISTRACT_END	n/a	n/a	n/a	-999	11	[0, 0, 0]	n/a	FR1	1	R1216E
1365.006	0.517	1475479	RETRIEVAL_ORIENT	n/a	n/a	n/a	-999	11	[0, 0, 0]	n/a	FR1	1	R1216E
1365.523	3.08	1475996	REC_START	n/a	n/a	n/a	-999	11	[0, 0, 0]	n/a	FR1	1	R1216E
1368.603	26.932	1479076	REC_WORD_VV	26.932	n/a	<>	-999	11	[0, 0, 0]	n/a	FR1	1	R1216E
1395.535	5.877	1506007	REC_END	n/a	n/a	n/a	-999	11	[0, 0, 0]	n/a	FR1	1	R1216E
1401.412	0.5	1511884	TRIAL	n/a	n/a	n/a	-999	12	[0, 0, 0]	n/a	FR1	1	R1216E
1401.912	10.428	1512384	COUNTDOWN_START	n/a	n/a	n/a	-999	12	[0, 0, 0]	n/a	FR1	1	R1216E
1412.34	0.008	1522811	COUNTDOWN_END	n/a	n/a	n/a	-999	12	[0, 0, 0]	n/a	FR1	1	R1216E
1412.348	1.617	1522819	ORIENT	n/a	n/a	n/a	-999	12	[0, 0, 0]	n/a	FR1	1	R1216E
1413.965	1.967	1524436	ORIENT_OFF	n/a	n/a	n/a	-999	12	[0, 0, 0]	n/a	FR1	1	R1216E
1415.932	1.616	1526403	WORD	n/a	wordpools/wordpool_EN.txt	SHARK	1	12	[0, 0, 0]	n/a	FR1	1	R1216E
1417.548	0.817	1528019	WORD_OFF	n/a	n/a	SHARK	1	12	[0, 0, 0]	n/a	FR1	1	R1216E
1418.365	1.617	1528836	WORD	n/a	wordpools/wordpool_EN.txt	WEB	2	12	[0, 0, 0]	n/a	FR1	1	R1216E
1419.982	0.967	1530453	WORD_OFF	n/a	n/a	WEB	2	12	[0, 0, 0]	n/a	FR1	1	R1216E
1420.949	1.616	1531420	WORD	n/a	wordpools/wordpool_EN.txt	TANK	3	12	[0, 0, 0]	n/a	FR1	1	R1216E
1422.565	0.984	1533036	WORD_OFF	n/a	n/a	TANK	3	12	[0, 0, 0]	n/a	FR1	1	R1216E
1423.549	1.618	1534020	WORD	n/a	wordpools/wordpool_EN.txt	SUN	4	12	[0, 0, 0]	n/a	FR1	1	R1216E
1425.167	0.933	1535638	WORD_OFF	n/a	n/a	SUN	4	12	[0, 0, 0]	n/a	FR1	1	R1216E
1426.1	1.616	1536571	WORD	n/a	wordpools/wordpool_EN.txt	FLAG	5	12	[0, 0, 0]	n/a	FR1	1	R1216E
1427.716	0.833	1538187	WORD_OFF	n/a	n/a	FLAG	5	12	[0, 0, 0]	n/a	FR1	1	R1216E
1428.549	1.602	1539020	WORD	n/a	wordpools/wordpool_EN.txt	STREET	6	12	[0, 0, 0]	n/a	FR1	1	R1216E
1430.151	0.8	1540621	WORD_OFF	n/a	n/a	STREET	6	12	[0, 0, 0]	n/a	FR1	1	R1216E
1430.951	1.616	1541421	WORD	n/a	wordpools/wordpool_EN.txt	WAVE	7	12	[0, 0, 0]	n/a	FR1	1	R1216E
1432.567	0.901	1543037	WORD_OFF	n/a	n/a	WAVE	7	12	[0, 0, 0]	n/a	FR1	1	R1216E
1433.468	1.617	1543938	WORD	n/a	wordpools/wordpool_EN.txt	PLANE	8	12	[0, 0, 0]	n/a	FR1	1	R1216E
1435.085	0.867	1545555	WORD_OFF	n/a	n/a	PLANE	8	12	[0, 0, 0]	n/a	FR1	1	R1216E
1435.952	1.616	1546422	WORD	n/a	wordpools/wordpool_EN.txt	MAP	9	12	[0, 0, 0]	n/a	FR1	1	R1216E
1437.568	1.0	1548038	WORD_OFF	n/a	n/a	MAP	9	12	[0, 0, 0]	n/a	FR1	1	R1216E
1438.568	1.618	1549038	WORD	n/a	wordpools/wordpool_EN.txt	MAIL	10	12	[0, 0, 0]	n/a	FR1	1	R1216E
1440.186	0.8	1550656	WORD_OFF	n/a	n/a	MAIL	10	12	[0, 0, 0]	n/a	FR1	1	R1216E
1440.986	1.616	1551456	WORD	n/a	wordpools/wordpool_EN.txt	RAIN	11	12	[0, 0, 0]	n/a	FR1	1	R1216E
1442.602	1.0	1553072	WORD_OFF	n/a	n/a	RAIN	11	12	[0, 0, 0]	n/a	FR1	1	R1216E
1443.602	1.618	1554072	WORD	n/a	wordpools/wordpool_EN.txt	GRASS	12	12	[0, 0, 0]	n/a	FR1	1	R1216E
1445.22	0.0	1555690	WORD_OFF	n/a	n/a	GRASS	12	12	[0, 0, 0]	n/a	FR1	1	R1216E
1445.22	0.001	1555690	DISTRACT_START	n/a	n/a	n/a	-999	12	[0, 0, 0]	n/a	FR1	1	R1216E
1445.221	0.016	1555691	START	n/a	n/a	n/a	-999	12	[-999, -999, -999]	n/a	FR1	1	R1216E
1445.237	4.151	1555707	PROB	4.151	n/a	n/a	-999	12	[3, 3, 4]	10	FR1	1	R1216E
1449.388	3.349	1559858	PROB	3.349	n/a	n/a	-999	12	[1, 7, 5]	13	FR1	1	R1216E
1452.737	21.131	1563207	PROB	21.131	n/a	n/a	-999	12	[9, 7, 5]	19	FR1	1	R1216E
1473.868	0.007	1584337	STOP	n/a	n/a	n/a	-999	12	[-999, -999, -999]	n/a	FR1	1	R1216E
1473.875	0.534	1584344	DISTRACT_END	n/a	n/a	n/a	-999	12	[0, 0, 0]	n/a	FR1	1	R1216E
1474.409	0.517	1584878	RETRIEVAL_ORIENT	n/a	n/a	n/a	-999	12	[0, 0, 0]	n/a	FR1	1	R1216E
1474.926	4.059	1585395	REC_START	n/a	n/a	n/a	-999	12	[0, 0, 0]	n/a	FR1	1	R1216E
1478.985	1.0	1589454	REC_WORD	1.0	n/a	SHARK	-999	12	[0, 0, 0]	n/a	FR1	1	R1216E
1479.985	0.54	1590454	REC_WORD_VV	0.54	n/a	<>	-999	12	[0, 0, 0]	n/a	FR1	1	R1216E
1480.525	1.0	1590994	REC_WORD	1.0	n/a	WEB	-999	12	[0, 0, 0]	n/a	FR1	1	R1216E
1481.525	11.781	1591994	REC_WORD_VV	11.781	n/a	<>	-999	12	[0, 0, 0]	n/a	FR1	1	R1216E
1493.306	6.94	1603774	REC_WORD	6.94	n/a	MAIL	-999	12	[0, 0, 0]	n/a	FR1	1	R1216E
1500.246	1.0	1610714	REC_WORD	1.0	n/a	GRASS	-999	12	[0, 0, 0]	n/a	FR1	1	R1216E
1501.246	1.698	1611714	REC_WORD_VV	1.698	n/a	<>	-999	12	[0, 0, 0]	n/a	FR1	1	R1216E
1502.944	1.992	1613412	REC_WORD	1.992	n/a	RAIN	-999	12	[0, 0, 0]	n/a	FR1	1	R1216E
1504.936	6.661	1615404	REC_END	n/a	n/a	n/a	-999	12	[0, 0, 0]	n/a	FR1	1	R1216E
1511.597	0.5	1622064	TRIAL	n/a	n/a	n/a	-999	13	[0, 0, 0]	n/a	FR1	1	R1216E
1512.097	10.428	1622564	COUNTDOWN_START	n/a	n/a	n/a	-999	13	[0, 0, 0]	n/a	FR1	1	R1216E
1522.525	0.009	1632992	COUNTDOWN_END	n/a	n/a	n/a	-999	13	[0, 0, 0]	n/a	FR1	1	R1216E
1522.534	1.617	1633001	ORIENT	n/a	n/a	n/a	-999	13	[0, 0, 0]	n/a	FR1	1	R1216E
1524.151	1.966	1634618	ORIENT_OFF	n/a	n/a	n/a	-999	13	[0, 0, 0]	n/a	FR1	1	R1216E
1526.117	1.617	1636584	WORD	n/a	wordpools/wordpool_EN.txt	FOAM	1	13	[0, 0, 0]	n/a	FR1	1	R1216E
1527.734	0.9	1638201	WORD_OFF	n/a	n/a	FOAM	1	13	[0, 0, 0]	n/a	FR1	1	R1216E
1528.634	1.618	1639101	WORD	n/a	wordpools/wordpool_EN.txt	HOOK	2	13	[0, 0, 0]	n/a	FR1	1	R1216E
1530.252	0.966	1640719	WORD_OFF	n/a	n/a	HOOK	2	13	[0, 0, 0]	n/a	FR1	1	R1216E
1531.218	1.617	1641685	WORD	n/a	wordpools/wordpool_EN.txt	COIN	3	13	[0, 0, 0]	n/a	FR1	1	R1216E
1532.835	0.766	1643302	WORD_OFF	n/a	n/a	COIN	3	13	[0, 0, 0]	n/a	FR1	1	R1216E
1533.601	1.618	1644068	WORD	n/a	wordpools/wordpool_EN.txt	STEAM	4	13	[0, 0, 0]	n/a	FR1	1	R1216E
1535.219	0.984	1645685	WORD_OFF	n/a	n/a	STEAM	4	13	[0, 0, 0]	n/a	FR1	1	R1216E
1536.203	1.617	1646669	WORD	n/a	wordpools/wordpool_EN.txt	SHIP	5	13	[0, 0, 0]	n/a	FR1	1	R1216E
1537.82	0.899	1648286	WORD_OFF	n/a	n/a	SHIP	5	13	[0, 0, 0]	n/a	FR1	1	R1216E
1538.719	1.618	1649185	WORD	n/a	wordpools/wordpool_EN.txt	TOY	6	13	[0, 0, 0]	n/a	FR1	1	R1216E
1540.337	0.917	1650803	WORD_OFF	n/a	n/a	TOY	6	13	[0, 0, 0]	n/a	FR1	1	R1216E
1541.254	1.617	1651720	WORD	n/a	wordpools/wordpool_EN.txt	HOUSE	7	13	[0, 0, 0]	n/a	FR1	1	R1216E
1542.871	0.799	1653337	WORD_OFF	n/a	n/a	HOUSE	7	13	[0, 0, 0]	n/a	FR1	1	R1216E
1543.67	1.618	1654136	WORD	n/a	wordpools/wordpool_EN.txt	GEESE	8	13	[0, 0, 0]	n/a	FR1	1	R1216E
1545.288	0.85	1655754	WORD_OFF	n/a	n/a	GEESE	8	13	[0, 0, 0]	n/a	FR1	1	R1216E
1546.138	1.616	1656604	WORD	n/a	wordpools/wordpool_EN.txt	PLANT	9	13	[0, 0, 0]	n/a	FR1	1	R1216E
1547.754	0.85	1658220	WORD_OFF	n/a	n/a	PLANT	9	13	[0, 0, 0]	n/a	FR1	1	R1216E
1548.604	1.618	1659070	WORD	n/a	wordpools/wordpool_EN.txt	CLOWN	10	13	[0, 0, 0]	n/a	FR1	1	R1216E
1550.222	0.917	1660688	WORD_OFF	n/a	n/a	CLOWN	10	13	[0, 0, 0]	n/a	FR1	1	R1216E
1551.139	1.616	1661605	WORD	n/a	wordpools/wordpool_EN.txt	ROPE	11	13	[0, 0, 0]	n/a	FR1	1	R1216E
1552.755	0.784	1663221	WORD_OFF	n/a	n/a	ROPE	11	13	[0, 0, 0]	n/a	FR1	1	R1216E
1553.539	1.617	1664005	WORD	n/a	wordpools/wordpool_EN.txt	SHELL	12	13	[0, 0, 0]	n/a	FR1	1	R1216E
1555.156	0.0	1665622	WORD_OFF	n/a	n/a	SHELL	12	13	[0, 0, 0]	n/a	FR1	1	R1216E
1555.156	0.001	1665622	DISTRACT_START	n/a	n/a	n/a	-999	13	[0, 0, 0]	n/a	FR1	1	R1216E
1555.157	0.016	1665623	START	n/a	n/a	n/a	-999	13	[-999, -999, -999]	n/a	FR1	1	R1216E
1555.173	4.383	1665639	PROB	4.383	n/a	n/a	-999	13	[9, 1, 6]	16	FR1	1	R1216E
1559.556	7.168	1670022	PROB	7.168	n/a	n/a	-999	13	[6, 1, 2]	9	FR1	1	R1216E
1566.724	7.152	1677189	PROB	7.152	n/a	n/a	-999	13	[8, 8, 3]	19	FR1	1	R1216E
1573.876	3.629	1684341	PROB	3.629	n/a	n/a	-999	13	[1, 2, 9]	12	FR1	1	R1216E
1577.505	0.022	1687970	STOP	n/a	n/a	n/a	-999	13	[-999, -999, -999]	n/a	FR1	1	R1216E
1577.527	0.567	1687992	DISTRACT_END	n/a	n/a	n/a	-999	13	[0, 0, 0]	n/a	FR1	1	R1216E
1578.094	0.516	1688559	RETRIEVAL_ORIENT	n/a	n/a	n/a	-999	13	[0, 0, 0]	n/a	FR1	1	R1216E
1578.61	5.855	1689075	REC_START	n/a	n/a	n/a	-999	13	[0, 0, 0]	n/a	FR1	1	R1216E
1584.465	24.154	1694930	REC_WORD_VV	24.154	n/a	<>	-999	13	[0, 0, 0]	n/a	FR1	1	R1216E
1608.619	6.248	1719083	REC_END	n/a	n/a	n/a	-999	13	[0, 0, 0]	n/a	FR1	1	R1216E
1614.867	0.5	1725330	TRIAL	n/a	n/a	n/a	-999	14	[0, 0, 0]	n/a	FR1	1	R1216E
1615.367	10.428	1725830	COUNTDOWN_START	n/a	n/a	n/a	-999	14	[0, 0, 0]	n/a	FR1	1	R1216E
1625.795	0.006	1736258	COUNTDOWN_END	n/a	n/a	n/a	-999	14	[0, 0, 0]	n/a	FR1	1	R1216E
1625.801	1.618	1736264	ORIENT	n/a	n/a	n/a	-999	14	[0, 0, 0]	n/a	FR1	1	R1216E
1627.419	2.1	1737882	ORIENT_OFF	n/a	n/a	n/a	-999	14	[0, 0, 0]	n/a	FR1	1	R1216E
1629.519	1.617	1739982	WORD	n/a	wordpools/wordpool_EN.txt	FOG	1	14	[0, 0, 0]	n/a	FR1	1	R1216E
1631.136	0.817	1741599	WORD_OFF	n/a	n/a	FOG	1	14	[0, 0, 0]	n/a	FR1	1	R1216E
1631.953	1.616	1742416	WORD	n/a	wordpools/wordpool_EN.txt	STRAW	2	14	[0, 0, 0]	n/a	FR1	1	R1216E
1633.569	0.934	1744032	WORD_OFF	n/a	n/a	STRAW	2	14	[0, 0, 0]	n/a	FR1	1	R1216E
1634.503	1.617	1744966	WORD	n/a	wordpools/wordpool_EN.txt	NOSE	3	14	[0, 0, 0]	n/a	FR1	1	R1216E
1636.12	0.884	1746583	WORD_OFF	n/a	n/a	NOSE	3	14	[0, 0, 0]	n/a	FR1	1	R1216E
1637.004	1.616	1747467	WORD	n/a	wordpools/wordpool_EN.txt	CORD	4	14	[0, 0, 0]	n/a	FR1	1	R1216E
1638.62	0.967	1749083	WORD_OFF	n/a	n/a	CORD	4	14	[0, 0, 0]	n/a	FR1	1	R1216E
1639.587	1.618	1750049	WORD	n/a	wordpools/wordpool_EN.txt	NET	5	14	[0, 0, 0]	n/a	FR1	1	R1216E
1641.205	0.95	1751667	WORD_OFF	n/a	n/a	NET	5	14	[0, 0, 0]	n/a	FR1	1	R1216E
1642.155	1.616	1752617	WORD	n/a	wordpools/wordpool_EN.txt	PIT	6	14	[0, 0, 0]	n/a	FR1	1	R1216E
1643.771	0.867	1754233	WORD_OFF	n/a	n/a	PIT	6	14	[0, 0, 0]	n/a	FR1	1	R1216E
1644.638	1.617	1755100	WORD	n/a	wordpools/wordpool_EN.txt	SOUP	7	14	[0, 0, 0]	n/a	FR1	1	R1216E
1646.255	0.801	1756717	WORD_OFF	n/a	n/a	SOUP	7	14	[0, 0, 0]	n/a	FR1	1	R1216E
1647.056	1.616	1757518	WORD	n/a	wordpools/wordpool_EN.txt	SKI	8	14	[0, 0, 0]	n/a	FR1	1	R1216E
1648.672	0.95	1759134	WORD_OFF	n/a	n/a	SKI	8	14	[0, 0, 0]	n/a	FR1	1	R1216E
1649.622	1.618	1760084	WORD	n/a	wordpools/wordpool_EN.txt	PEA	9	14	[0, 0, 0]	n/a	FR1	1	R1216E
1651.24	0.917	1761702	WORD_OFF	n/a	n/a	PEA	9	14	[0, 0, 0]	n/a	FR1	1	R1216E
1652.157	1.616	1762619	WORD	n/a	wordpools/wordpool_EN.txt	BAT	10	14	[0, 0, 0]	n/a	FR1	1	R1216E
1653.773	0.783	1764235	WORD_OFF	n/a	n/a	BAT	10	14	[0, 0, 0]	n/a	FR1	1	R1216E
1654.556	1.601	1765018	WORD	n/a	wordpools/wordpool_EN.txt	POOL	11	14	[0, 0, 0]	n/a	FR1	1	R1216E
1656.157	1.0	1766619	WORD_OFF	n/a	n/a	POOL	11	14	[0, 0, 0]	n/a	FR1	1	R1216E
1657.157	1.616	1767619	WORD	n/a	wordpools/wordpool_EN.txt	CASH	12	14	[0, 0, 0]	n/a	FR1	1	R1216E
1658.773	0.0	1769235	WORD_OFF	n/a	n/a	CASH	12	14	[0, 0, 0]	n/a	FR1	1	R1216E
1658.773	0.001	1769235	DISTRACT_START	n/a	n/a	n/a	-999	14	[0, 0, 0]	n/a	FR1	1	R1216E
1658.774	0.016	1769236	START	n/a	n/a	n/a	-999	14	[-999, -999, -999]	n/a	FR1	1	R1216E
1658.79	5.784	1769252	PROB	5.784	n/a	n/a	-999	14	[8, 5, 1]	13	FR1	1	R1216E
1664.574	5.201	1775036	PROB	5.201	n/a	n/a	-999	14	[4, 6, 1]	11	FR1	1	R1216E
1669.775	6.269	1780236	PROB	6.269	n/a	n/a	-999	14	[8, 7, 5]	20	FR1	1	R1216E
1676.044	3.834	1786505	PROB	3.834	n/a	n/a	-999	14	[5, 6, 1]	12	FR1	1	R1216E
1679.878	0.017	1790339	STOP	n/a	n/a	n/a	-999	14	[-999, -999, -999]	n/a	FR1	1	R1216E
1679.895	0.633	1790356	DISTRACT_END	n/a	n/a	n/a	-999	14	[0, 0, 0]	n/a	FR1	1	R1216E
1680.528	0.518	1790989	RETRIEVAL_ORIENT	n/a	n/a	n/a	-999	14	[0, 0, 0]	n/a	FR1	1	R1216E
1681.046	2.757	1791507	REC_START	n/a	n/a	n/a	-999	14	[0, 0, 0]	n/a	FR1	1	R1216E
1683.803	16.522	1794264	REC_WORD	16.522	n/a	POOL	-999	14	[0, 0, 0]	n/a	FR1	1	R1216E
1700.325	10.732	1810785	REC_WORD	10.732	n/a	SKY	-999	14	[0, 0, 0]	n/a	FR1	1	R1216E
1711.057	7.361	1821517	REC_END	n/a	n/a	n/a	-999	14	[0, 0, 0]	n/a	FR1	1	R1216E
1718.418	0.5	1828877	TRIAL	n/a	n/a	n/a	-999	15	[0, 0, 0]	n/a	FR1	1	R1216E
1718.918	10.428	1829377	COUNTDOWN_START	n/a	n/a	n/a	-999	15	[0, 0, 0]	n/a	FR1	1	R1216E
1729.346	0.007	1839805	COUNTDOWN_END	n/a	n/a	n/a	-999	15	[0, 0, 0]	n/a	FR1	1	R1216E
1729.353	1.617	1839812	ORIENT	n/a	n/a	n/a	-999	15	[0, 0, 0]	n/a	FR1	1	R1216E
1730.97	1.901	1841429	ORIENT_OFF	n/a	n/a	n/a	-999	15	[0, 0, 0]	n/a	FR1	1	R1216E
1732.871	1.617	1843330	WORD	n/a	wordpools/wordpool_EN.txt	GOAT	1	15	[0, 0, 0]	n/a	FR1	1	R1216E
1734.488	0.866	1844947	WORD_OFF	n/a	n/a	GOAT	1	15	[0, 0, 0]	n/a	FR1	1	R1216E
1735.354	1.617	1845813	WORD	n/a	wordpools/wordpool_EN.txt	LAND	2	15	[0, 0, 0]	n/a	FR1	1	R1216E
1736.971	0.934	1847430	WORD_OFF	n/a	n/a	LAND	2	15	[0, 0, 0]	n/a	FR1	1	R1216E
1737.905	1.617	1848364	WORD	n/a	wordpools/wordpool_EN.txt	FRUIT	3	15	[0, 0, 0]	n/a	FR1	1	R1216E
1739.522	1.0	1849981	WORD_OFF	n/a	n/a	FRUIT	3	15	[0, 0, 0]	n/a	FR1	1	R1216E
1740.522	1.617	1850981	WORD	n/a	wordpools/wordpool_EN.txt	THUMB	4	15	[0, 0, 0]	n/a	FR1	1	R1216E
1742.139	0.867	1852598	WORD_OFF	n/a	n/a	THUMB	4	15	[0, 0, 0]	n/a	FR1	1	R1216E
1743.006	1.616	1853465	WORD	n/a	wordpools/wordpool_EN.txt	DOLL	5	15	[0, 0, 0]	n/a	FR1	1	R1216E
1744.622	0.768	1855080	WORD_OFF	n/a	n/a	DOLL	5	15	[0, 0, 0]	n/a	FR1	1	R1216E
1745.39	1.617	1855848	WORD	n/a	wordpools/wordpool_EN.txt	TOAD	6	15	[0, 0, 0]	n/a	FR1	1	R1216E
1747.007	0.883	1857465	WORD_OFF	n/a	n/a	TOAD	6	15	[0, 0, 0]	n/a	FR1	1	R1216E
1747.89	1.617	1858348	WORD	n/a	wordpools/wordpool_EN.txt	HORN	7	15	[0, 0, 0]	n/a	FR1	1	R1216E
1749.507	0.767	1859965	WORD_OFF	n/a	n/a	HORN	7	15	[0, 0, 0]	n/a	FR1	1	R1216E
1750.274	1.617	1860732	WORD	n/a	wordpools/wordpool_EN.txt	MUG	8	15	[0, 0, 0]	n/a	FR1	1	R1216E
1751.891	0.866	1862349	WORD_OFF	n/a	n/a	MUG	8	15	[0, 0, 0]	n/a	FR1	1	R1216E
1752.757	1.618	1863215	WORD	n/a	wordpools/wordpool_EN.txt	MULE	9	15	[0, 0, 0]	n/a	FR1	1	R1216E
1754.375	0.783	1864833	WORD_OFF	n/a	n/a	MULE	9	15	[0, 0, 0]	n/a	FR1	1	R1216E
1755.158	1.616	1865616	WORD	n/a	wordpools/wordpool_EN.txt	MOOSE	10	15	[0, 0, 0]	n/a	FR1	1	R1216E
1756.774	0.967	1867232	WORD_OFF	n/a	n/a	MOOSE	10	15	[0, 0, 0]	n/a	FR1	1	R1216E
1757.741	1.618	1868199	WORD	n/a	wordpools/wordpool_EN.txt	HOLE	11	15	[0, 0, 0]	n/a	FR1	1	R1216E
1759.359	0.783	1869817	WORD_OFF	n/a	n/a	HOLE	11	15	[0, 0, 0]	n/a	FR1	1	R1216E
1760.142	1.616	1870600	WORD	n/a	wordpools/wordpool_EN.txt	DEER	12	15	[0, 0, 0]	n/a	FR1	1	R1216E
1761.758	0.0	1872216	WORD_OFF	n/a	n/a	DEER	12	15	[0, 0, 0]	n/a	FR1	1	R1216E
1761.758	0.001	1872216	DISTRACT_START	n/a	n/a	n/a	-999	15	[0, 0, 0]	n/a	FR1	1	R1216E
1761.759	0.016	1872217	START	n/a	n/a	n/a	-999	15	[-999, -999, -999]	n/a	FR1	1	R1216E
1761.775	11.519	1872233	PROB	11.519	n/a	n/a	-999	15	[8, 9, 4]	21	FR1	1	R1216E
1773.294	7.935	1883751	PROB	7.935	n/a	n/a	-999	15	[7, 2, 2]	11	FR1	1	R1216E
1781.229	5.197	1891686	PROB	5.197	n/a	n/a	-999	15	[1, 7, 8]	16	FR1	1	R1216E
1786.426	0.021	1896883	STOP	n/a	n/a	n/a	-999	15	[-999, -999, -999]	n/a	FR1	1	R1216E
1786.447	0.683	1896904	DISTRACT_END	n/a	n/a	n/a	-999	15	[0, 0, 0]	n/a	FR1	1	R1216E
1787.13	0.517	1897587	RETRIEVAL_ORIENT	n/a	n/a	n/a	-999	15	[0, 0, 0]	n/a	FR1	1	R1216E
1787.647	1.605	1898104	REC_START	n/a	n/a	n/a	-999	15	[0, 0, 0]	n/a	FR1	1	R1216E
1789.252	4.375	1899709	REC_WORD	4.375	n/a	GOAT	-999	15	[0, 0, 0]	n/a	FR1	1	R1216E
1793.627	1.0	1904084	REC_WORD	1.0	n/a	LAND	-999	15	[0, 0, 0]	n/a	FR1	1	R1216E
1794.627	1.72	1905084	REC_WORD_VV	1.72	n/a	<>	-999	15	[0, 0, 0]	n/a	FR1	1	R1216E
1796.347	8.738	1906804	REC_WORD	8.738	n/a	DEER	-999	15	[0, 0, 0]	n/a	FR1	1	R1216E
1805.085	10.284	1915541	REC_WORD	10.284	n/a	FRUIT	-999	15	[0, 0, 0]	n/a	FR1	1	R1216E
1815.369	1.0	1925825	REC_WORD	1.0	n/a	MOOSE	-999	15	[0, 0, 0]	n/a	FR1	1	R1216E
1816.369	1.287	1926825	REC_WORD_VV	1.287	n/a	<>	-999	15	[0, 0, 0]	n/a	FR1	1	R1216E
1817.656	5.281	1928112	REC_END	n/a	n/a	n/a	-999	15	[0, 0, 0]	n/a	FR1	1	R1216E
1822.937	0.5	1933393	TRIAL	n/a	n/a	n/a	-999	16	[0, 0, 0]	n/a	FR1	1	R1216E
1823.437	10.428	1933892	COUNTDOWN_START	n/a	n/a	n/a	-999	16	[0, 0, 0]	n/a	FR1	1	R1216E
1833.865	0.007	1944320	COUNTDOWN_END	n/a	n/a	n/a	-999	16	[0, 0, 0]	n/a	FR1	1	R1216E
1833.872	1.617	1944327	ORIENT	n/a	n/a	n/a	-999	16	[0, 0, 0]	n/a	FR1	1	R1216E
1835.489	2.266	1945944	ORIENT_OFF	n/a	n/a	n/a	-999	16	[0, 0, 0]	n/a	FR1	1	R1216E
1837.755	1.618	1948210	WORD	n/a	wordpools/wordpool_EN.txt	CANE	1	16	[0, 0, 0]	n/a	FR1	1	R1216E
1839.373	0.983	1949828	WORD_OFF	n/a	n/a	CANE	1	16	[0, 0, 0]	n/a	FR1	1	R1216E
1840.356	1.617	1950811	WORD	n/a	wordpools/wordpool_EN.txt	DITCH	2	16	[0, 0, 0]	n/a	FR1	1	R1216E
1841.973	0.95	1952428	WORD_OFF	n/a	n/a	DITCH	2	16	[0, 0, 0]	n/a	FR1	1	R1216E
1842.923	1.617	1953378	WORD	n/a	wordpools/wordpool_EN.txt	WALL	3	16	[0, 0, 0]	n/a	FR1	1	R1216E
1844.54	0.767	1954995	WORD_OFF	n/a	n/a	WALL	3	16	[0, 0, 0]	n/a	FR1	1	R1216E
1845.307	1.617	1955762	WORD	n/a	wordpools/wordpool_EN.txt	STOOL	4	16	[0, 0, 0]	n/a	FR1	1	R1216E
1846.924	0.967	1957379	WORD_OFF	n/a	n/a	STOOL	4	16	[0, 0, 0]	n/a	FR1	1	R1216E
1847.891	1.617	1958346	WORD	n/a	wordpools/wordpool_EN.txt	TENT	5	16	[0, 0, 0]	n/a	FR1	1	R1216E
1849.508	0.95	1959962	WORD_OFF	n/a	n/a	TENT	5	16	[0, 0, 0]	n/a	FR1	1	R1216E
1850.458	1.617	1960912	WORD	n/a	wordpools/wordpool_EN.txt	FLUTE	6	16	[0, 0, 0]	n/a	FR1	1	R1216E
1852.075	1.0	1962529	WORD_OFF	n/a	n/a	FLUTE	6	16	[0, 0, 0]	n/a	FR1	1	R1216E
1853.075	1.616	1963529	WORD	n/a	wordpools/wordpool_EN.txt	STONE	7	16	[0, 0, 0]	n/a	FR1	1	R1216E
1854.691	1.017	1965145	WORD_OFF	n/a	n/a	STONE	7	16	[0, 0, 0]	n/a	FR1	1	R1216E
1855.708	1.618	1966162	WORD	n/a	wordpools/wordpool_EN.txt	CHAIR	8	16	[0, 0, 0]	n/a	FR1	1	R1216E
1857.326	0.917	1967780	WORD_OFF	n/a	n/a	CHAIR	8	16	[0, 0, 0]	n/a	FR1	1	R1216E
1858.243	1.617	1968697	WORD	n/a	wordpools/wordpool_EN.txt	STORE	9	16	[0, 0, 0]	n/a	FR1	1	R1216E
1859.86	0.832	1970314	WORD_OFF	n/a	n/a	STORE	9	16	[0, 0, 0]	n/a	FR1	1	R1216E
1860.692	1.618	1971146	WORD	n/a	wordpools/wordpool_EN.txt	INK	10	16	[0, 0, 0]	n/a	FR1	1	R1216E
1862.31	0.817	1972764	WORD_OFF	n/a	n/a	INK	10	16	[0, 0, 0]	n/a	FR1	1	R1216E
1863.127	1.616	1973581	WORD	n/a	wordpools/wordpool_EN.txt	SWORD	11	16	[0, 0, 0]	n/a	FR1	1	R1216E
1864.743	0.917	1975197	WORD_OFF	n/a	n/a	SWORD	11	16	[0, 0, 0]	n/a	FR1	1	R1216E
1865.66	1.618	1976114	WORD	n/a	wordpools/wordpool_EN.txt	FLEA	12	16	[0, 0, 0]	n/a	FR1	1	R1216E
1867.278	0.0	1977732	WORD_OFF	n/a	n/a	FLEA	12	16	[0, 0, 0]	n/a	FR1	1	R1216E
1867.278	0.0	1977732	DISTRACT_START	n/a	n/a	n/a	-999	16	[0, 0, 0]	n/a	FR1	1	R1216E
1867.278	0.016	1977732	START	n/a	n/a	n/a	-999	16	[-999, -999, -999]	n/a	FR1	1	R1216E
1867.294	4.317	1977748	PROB	4.317	n/a	n/a	-999	16	[3, 3, 4]	10	FR1	1	R1216E
1871.611	9.118	1982065	PROB	9.118	n/a	n/a	-999	16	[8, 7, 9]	24	FR1	1	R1216E
1880.729	9.768	1991182	PROB	9.768	n/a	n/a	-999	16	[6, 5, 5]	16	FR1	1	R1216E
1890.497	0.018	2000950	STOP	n/a	n/a	n/a	-999	16	[-999, -999, -999]	n/a	FR1	1	R1216E
1890.515	0.534	2000968	DISTRACT_END	n/a	n/a	n/a	-999	16	[0, 0, 0]	n/a	FR1	1	R1216E
1891.049	0.516	2001502	RETRIEVAL_ORIENT	n/a	n/a	n/a	-999	16	[0, 0, 0]	n/a	FR1	1	R1216E
1891.565	9.68	2002018	REC_START	n/a	n/a	n/a	-999	16	[0, 0, 0]	n/a	FR1	1	R1216E
1901.245	1.0	2011698	REC_WORD	1.0	n/a	TENT	-999	16	[0, 0, 0]	n/a	FR1	1	R1216E
1902.245	19.329	2012697	REC_WORD_VV	19.329	n/a	<>	-999	16	[0, 0, 0]	n/a	FR1	1	R1216E
1921.574	5.614	2032026	REC_END	n/a	n/a	n/a	-999	16	[0, 0, 0]	n/a	FR1	1	R1216E
1927.188	0.5	2037640	TRIAL	n/a	n/a	n/a	-999	17	[0, 0, 0]	n/a	FR1	1	R1216E
1927.688	10.428	2038140	COUNTDOWN_START	n/a	n/a	n/a	-999	17	[0, 0, 0]	n/a	FR1	1	R1216E
1938.116	0.007	2048567	COUNTDOWN_END	n/a	n/a	n/a	-999	17	[0, 0, 0]	n/a	FR1	1	R1216E
1938.123	1.616	2048574	ORIENT	n/a	n/a	n/a	-999	17	[0, 0, 0]	n/a	FR1	1	R1216E
1939.739	2.067	2050190	ORIENT_OFF	n/a	n/a	n/a	-999	17	[0, 0, 0]	n/a	FR1	1	R1216E
1941.806	1.618	2052257	WORD	n/a	wordpools/wordpool_EN.txt	FLOOR	1	17	[0, 0, 0]	n/a	FR1	1	R1216E
1943.424	0.867	2053875	WORD_OFF	n/a	n/a	FLOOR	1	17	[0, 0, 0]	n/a	FR1	1	R1216E
1944.291	1.617	2054742	WORD	n/a	wordpools/wordpool_EN.txt	BOWL	2	17	[0, 0, 0]	n/a	FR1	1	R1216E
1945.908	0.917	2056359	WORD_OFF	n/a	n/a	BOWL	2	17	[0, 0, 0]	n/a	FR1	1	R1216E
1946.825	1.617	2057276	WORD	n/a	wordpools/wordpool_EN.txt	TIE	3	17	[0, 0, 0]	n/a	FR1	1	R1216E
1948.442	0.833	2058893	WORD_OFF	n/a	n/a	TIE	3	17	[0, 0, 0]	n/a	FR1	1	R1216E
1949.275	1.617	2059726	WORD	n/a	wordpools/wordpool_EN.txt	BLOOM	4	17	[0, 0, 0]	n/a	FR1	1	R1216E
1950.892	0.883	2061343	WORD_OFF	n/a	n/a	BLOOM	4	17	[0, 0, 0]	n/a	FR1	1	R1216E
1951.775	1.601	2062226	WORD	n/a	wordpools/wordpool_EN.txt	VAN	5	17	[0, 0, 0]	n/a	FR1	1	R1216E
1953.376	0.934	2063827	WORD_OFF	n/a	n/a	VAN	5	17	[0, 0, 0]	n/a	FR1	1	R1216E
1954.31	1.617	2064761	WORD	n/a	wordpools/wordpool_EN.txt	FACE	6	17	[0, 0, 0]	n/a	FR1	1	R1216E
1955.927	0.916	2066377	WORD_OFF	n/a	n/a	FACE	6	17	[0, 0, 0]	n/a	FR1	1	R1216E
1956.843	1.617	2067293	WORD	n/a	wordpools/wordpool_EN.txt	LAMP	7	17	[0, 0, 0]	n/a	FR1	1	R1216E
1958.46	0.967	2068910	WORD_OFF	n/a	n/a	LAMP	7	17	[0, 0, 0]	n/a	FR1	1	R1216E
1959.427	1.617	2069877	WORD	n/a	wordpools/wordpool_EN.txt	SEAT	8	17	[0, 0, 0]	n/a	FR1	1	R1216E
1961.044	0.884	2071494	WORD_OFF	n/a	n/a	SEAT	8	17	[0, 0, 0]	n/a	FR1	1	R1216E
1961.928	1.617	2072378	WORD	n/a	wordpools/wordpool_EN.txt	TOE	9	17	[0, 0, 0]	n/a	FR1	1	R1216E
1963.545	0.95	2073995	WORD_OFF	n/a	n/a	TOE	9	17	[0, 0, 0]	n/a	FR1	1	R1216E
1964.495	1.617	2074945	WORD	n/a	wordpools/wordpool_EN.txt	SLIME	10	17	[0, 0, 0]	n/a	FR1	1	R1216E
1966.112	0.783	2076562	WORD_OFF	n/a	n/a	SLIME	10	17	[0, 0, 0]	n/a	FR1	1	R1216E
1966.895	1.617	2077345	WORD	n/a	wordpools/wordpool_EN.txt	BOOT	11	17	[0, 0, 0]	n/a	FR1	1	R1216E
1968.512	0.934	2078962	WORD_OFF	n/a	n/a	BOOT	11	17	[0, 0, 0]	n/a	FR1	1	R1216E
1969.446	1.616	2079896	WORD	n/a	wordpools/wordpool_EN.txt	AXE	12	17	[0, 0, 0]	n/a	FR1	1	R1216E
1971.062	0.0	2081512	DISTRACT_START	n/a	n/a	n/a	-999	17	[0, 0, 0]	n/a	FR1	1	R1216E
1971.062	0.001	2081512	WORD_OFF	n/a	n/a	AXE	12	17	[0, 0, 0]	n/a	FR1	1	R1216E
1971.063	0.016	2081513	START	n/a	n/a	n/a	-999	17	[-999, -999, -999]	n/a	FR1	1	R1216E
1971.079	9.385	2081529	PROB	9.385	n/a	n/a	-999	17	[4, 8, 8]	20	FR1	1	R1216E
1980.464	15.299	2090914	PROB	15.299	n/a	n/a	-999	17	[8, 6, 9]	22	FR1	1	R1216E
1995.763	0.02	2106212	STOP	n/a	n/a	n/a	-999	17	[-999, -999, -999]	n/a	FR1	1	R1216E
1995.783	0.667	2106232	DISTRACT_END	n/a	n/a	n/a	-999	17	[0, 0, 0]	n/a	FR1	1	R1216E
1996.45	0.518	2106899	RETRIEVAL_ORIENT	n/a	n/a	n/a	-999	17	[0, 0, 0]	n/a	FR1	1	R1216E
1996.968	0.232	2107417	REC_START	n/a	n/a	n/a	-999	17	[0, 0, 0]	n/a	FR1	1	R1216E
1997.2	2.655	2107649	REC_WORD_VV	2.655	n/a	<>	-999	17	[0, 0, 0]	n/a	FR1	1	R1216E
1999.855	1.0	2110304	REC_WORD	1.0	n/a	SLIME	-999	17	[0, 0, 0]	n/a	FR1	1	R1216E
2000.855	2.035	2111304	REC_WORD_VV	2.035	n/a	<>	-999	17	[0, 0, 0]	n/a	FR1	1	R1216E
2002.89	1.0	2113339	REC_WORD	1.0	n/a	BOOT	-999	17	[0, 0, 0]	n/a	FR1	1	R1216E
2003.89	16.909	2114339	REC_WORD_VV	16.909	n/a	<>	-999	17	[0, 0, 0]	n/a	FR1	1	R1216E
2020.799	6.179	2131247	REC_WORD	6.179	n/a	VAN	-999	17	[0, 0, 0]	n/a	FR1	1	R1216E
2026.978	5.594	2137426	REC_END	n/a	n/a	n/a	-999	17	[0, 0, 0]	n/a	FR1	1	R1216E
2032.572	0.5	2143020	TRIAL	n/a	n/a	n/a	-999	18	[0, 0, 0]	n/a	FR1	1	R1216E
2033.072	10.428	2143520	COUNTDOWN_START	n/a	n/a	n/a	-999	18	[0, 0, 0]	n/a	FR1	1	R1216E
2043.5	0.009	2153947	COUNTDOWN_END	n/a	n/a	n/a	-999	18	[0, 0, 0]	n/a	FR1	1	R1216E
2043.509	1.617	2153956	ORIENT	n/a	n/a	n/a	-999	18	[0, 0, 0]	n/a	FR1	1	R1216E
2045.126	2.367	2155573	ORIENT_OFF	n/a	n/a	n/a	-999	18	[0, 0, 0]	n/a	FR1	1	R1216E
2047.493	1.617	2157940	WORD	n/a	wordpools/wordpool_EN.txt	BARN	1	18	[0, 0, 0]	n/a	FR1	1	R1216E
2049.11	0.983	2159557	WORD_OFF	n/a	n/a	BARN	1	18	[0, 0, 0]	n/a	FR1	1	R1216E
2050.093	1.616	2160540	WORD	n/a	wordpools/wordpool_EN.txt	CUBE	2	18	[0, 0, 0]	n/a	FR1	1	R1216E
2051.709	0.934	2162156	WORD_OFF	n/a	n/a	CUBE	2	18	[0, 0, 0]	n/a	FR1	1	R1216E
2052.643	1.618	2163090	WORD	n/a	wordpools/wordpool_EN.txt	BIRD	3	18	[0, 0, 0]	n/a	FR1	1	R1216E
2054.261	0.933	2164708	WORD_OFF	n/a	n/a	BIRD	3	18	[0, 0, 0]	n/a	FR1	1	R1216E
2055.194	1.616	2165641	WORD	n/a	wordpools/wordpool_EN.txt	BRUSH	4	18	[0, 0, 0]	n/a	FR1	1	R1216E
2056.81	0.9	2167257	WORD_OFF	n/a	n/a	BRUSH	4	18	[0, 0, 0]	n/a	FR1	1	R1216E
2057.71	1.618	2168157	WORD	n/a	wordpools/wordpool_EN.txt	SEA	5	18	[0, 0, 0]	n/a	FR1	1	R1216E
2059.328	1.0	2169775	WORD_OFF	n/a	n/a	SEA	5	18	[0, 0, 0]	n/a	FR1	1	R1216E
2060.328	1.617	2170774	WORD	n/a	wordpools/wordpool_EN.txt	SWAMP	6	18	[0, 0, 0]	n/a	FR1	1	R1216E
2061.945	0.934	2172391	WORD_OFF	n/a	n/a	SWAMP	6	18	[0, 0, 0]	n/a	FR1	1	R1216E
2062.879	1.617	2173325	WORD	n/a	wordpools/wordpool_EN.txt	RAT	7	18	[0, 0, 0]	n/a	FR1	1	R1216E
2064.496	0.8	2174942	WORD_OFF	n/a	n/a	RAT	7	18	[0, 0, 0]	n/a	FR1	1	R1216E
2065.296	1.617	2175742	WORD	n/a	wordpools/wordpool_EN.txt	DRESS	8	18	[0, 0, 0]	n/a	FR1	1	R1216E
2066.913	0.917	2177359	WORD_OFF	n/a	n/a	DRESS	8	18	[0, 0, 0]	n/a	FR1	1	R1216E
2067.83	1.617	2178276	WORD	n/a	wordpools/wordpool_EN.txt	GATE	9	18	[0, 0, 0]	n/a	FR1	1	R1216E
2069.447	0.866	2179893	WORD_OFF	n/a	n/a	GATE	9	18	[0, 0, 0]	n/a	FR1	1	R1216E
2070.313	1.617	2180759	WORD	n/a	wordpools/wordpool_EN.txt	BRICK	10	18	[0, 0, 0]	n/a	FR1	1	R1216E
2071.93	0.8	2182376	WORD_OFF	n/a	n/a	BRICK	10	18	[0, 0, 0]	n/a	FR1	1	R1216E
2072.73	1.617	2183176	WORD	n/a	wordpools/wordpool_EN.txt	SIGN	11	18	[0, 0, 0]	n/a	FR1	1	R1216E
2074.347	0.851	2184793	WORD_OFF	n/a	n/a	SIGN	11	18	[0, 0, 0]	n/a	FR1	1	R1216E
2075.198	1.616	2185644	WORD	n/a	wordpools/wordpool_EN.txt	BOX	12	18	[0, 0, 0]	n/a	FR1	1	R1216E
2076.814	0.0	2187260	WORD_OFF	n/a	n/a	BOX	12	18	[0, 0, 0]	n/a	FR1	1	R1216E
2076.814	0.001	2187260	DISTRACT_START	n/a	n/a	n/a	-999	18	[0, 0, 0]	n/a	FR1	1	R1216E
2076.815	0.016	2187261	START	n/a	n/a	n/a	-999	18	[-999, -999, -999]	n/a	FR1	1	R1216E
2076.831	5.568	2187277	PROB	5.568	n/a	n/a	-999	18	[5, 8, 2]	15	FR1	1	R1216E
2082.399	7.635	2192845	PROB	7.635	n/a	n/a	-999	18	[9, 9, 8]	26	FR1	1	R1216E
2090.034	7.842	2200479	PROB	7.842	n/a	n/a	-999	18	[1, 9, 9]	19	FR1	1	R1216E
2097.876	0.009	2208321	STOP	n/a	n/a	n/a	-999	18	[-999, -999, -999]	n/a	FR1	1	R1216E
2097.885	0.533	2208330	DISTRACT_END	n/a	n/a	n/a	-999	18	[0, 0, 0]	n/a	FR1	1	R1216E
2098.418	0.518	2208863	RETRIEVAL_ORIENT	n/a	n/a	n/a	-999	18	[0, 0, 0]	n/a	FR1	1	R1216E
2098.936	29.994	2209381	REC_START	n/a	n/a	n/a	-999	18	[0, 0, 0]	n/a	FR1	1	R1216E
2128.93	0.015	2239374	REC_WORD_VV	0.015	n/a	<>	-999	18	[0, 0, 0]	n/a	FR1	1	R1216E
2128.945	5.796	2239389	REC_END	n/a	n/a	n/a	-999	18	[0, 0, 0]	n/a	FR1	1	R1216E
2134.741	0.5	2245185	TRIAL	n/a	n/a	n/a	-999	19	[0, 0, 0]	n/a	FR1	1	R1216E
2135.241	10.428	2245685	COUNTDOWN_START	n/a	n/a	n/a	-999	19	[0, 0, 0]	n/a	FR1	1	R1216E
2145.669	0.007	2256112	COUNTDOWN_END	n/a	n/a	n/a	-999	19	[0, 0, 0]	n/a	FR1	1	R1216E
2145.676	1.618	2256119	ORIENT	n/a	n/a	n/a	-999	19	[0, 0, 0]	n/a	FR1	1	R1216E
2147.294	2.033	2257737	ORIENT_OFF	n/a	n/a	n/a	-999	19	[0, 0, 0]	n/a	FR1	1	R1216E
2149.327	1.617	2259770	WORD	n/a	wordpools/wordpool_EN.txt	DESK	1	19	[0, 0, 0]	n/a	FR1	1	R1216E
2150.944	0.967	2261387	WORD_OFF	n/a	n/a	DESK	1	19	[0, 0, 0]	n/a	FR1	1	R1216E
2151.911	1.617	2262354	WORD	n/a	wordpools/wordpool_EN.txt	FILM	2	19	[0, 0, 0]	n/a	FR1	1	R1216E
2153.528	0.917	2263971	WORD_OFF	n/a	n/a	FILM	2	19	[0, 0, 0]	n/a	FR1	1	R1216E
2154.445	1.617	2264888	WORD	n/a	wordpools/wordpool_EN.txt	KITE	3	19	[0, 0, 0]	n/a	FR1	1	R1216E
2156.062	0.917	2266505	WORD_OFF	n/a	n/a	KITE	3	19	[0, 0, 0]	n/a	FR1	1	R1216E
2156.979	1.616	2267422	WORD	n/a	wordpools/wordpool_EN.txt	LAWN	4	19	[0, 0, 0]	n/a	FR1	1	R1216E
2158.595	0.817	2269038	WORD_OFF	n/a	n/a	LAWN	4	19	[0, 0, 0]	n/a	FR1	1	R1216E
2159.412	1.617	2269855	WORD	n/a	wordpools/wordpool_EN.txt	SPARK	5	19	[0, 0, 0]	n/a	FR1	1	R1216E
2161.029	0.901	2271472	WORD_OFF	n/a	n/a	SPARK	5	19	[0, 0, 0]	n/a	FR1	1	R1216E
2161.93	1.617	2272373	WORD	n/a	wordpools/wordpool_EN.txt	BOOK	6	19	[0, 0, 0]	n/a	FR1	1	R1216E
2163.547	0.95	2273990	WORD_OFF	n/a	n/a	BOOK	6	19	[0, 0, 0]	n/a	FR1	1	R1216E
2164.497	1.617	2274939	WORD	n/a	wordpools/wordpool_EN.txt	NEST	7	19	[0, 0, 0]	n/a	FR1	1	R1216E
2166.114	0.8	2276556	WORD_OFF	n/a	n/a	NEST	7	19	[0, 0, 0]	n/a	FR1	1	R1216E
2166.914	1.617	2277356	WORD	n/a	wordpools/wordpool_EN.txt	JET	8	19	[0, 0, 0]	n/a	FR1	1	R1216E
2168.531	0.817	2278973	WORD_OFF	n/a	n/a	JET	8	19	[0, 0, 0]	n/a	FR1	1	R1216E
2169.348	1.617	2279790	WORD	n/a	wordpools/wordpool_EN.txt	PRINCE	9	19	[0, 0, 0]	n/a	FR1	1	R1216E
2170.965	0.9	2281407	WORD_OFF	n/a	n/a	PRINCE	9	19	[0, 0, 0]	n/a	FR1	1	R1216E
2171.865	1.617	2282307	WORD	n/a	wordpools/wordpool_EN.txt	MAZE	10	19	[0, 0, 0]	n/a	FR1	1	R1216E
2173.482	0.9	2283924	WORD_OFF	n/a	n/a	MAZE	10	19	[0, 0, 0]	n/a	FR1	1	R1216E
2174.382	1.617	2284824	WORD	n/a	wordpools/wordpool_EN.txt	SNAIL	11	19	[0, 0, 0]	n/a	FR1	1	R1216E
2175.999	0.866	2286441	WORD_OFF	n/a	n/a	SNAIL	11	19	[0, 0, 0]	n/a	FR1	1	R1216E
2176.865	1.617	2287307	WORD	n/a	wordpools/wordpool_EN.txt	STORM	12	19	[0, 0, 0]	n/a	FR1	1	R1216E
2178.482	0.0	2288924	WORD_OFF	n/a	n/a	STORM	12	19	[0, 0, 0]	n/a	FR1	1	R1216E
2178.482	0.001	2288924	DISTRACT_START	n/a	n/a	n/a	-999	19	[0, 0, 0]	n/a	FR1	1	R1216E
2178.483	0.016	2288925	START	n/a	n/a	n/a	-999	19	[-999, -999, -999]	n/a	FR1	1	R1216E
2178.499	10.435	2288941	PROB	10.435	n/a	n/a	-999	19	[5, 8, 1]	14	FR1	1	R1216E
2188.934	5.368	2299376	PROB	5.368	n/a	n/a	-999	19	[2, 5, 4]	11	FR1	1	R1216E
2194.302	3.817	2304743	PROB	3.817	n/a	n/a	-999	19	[1, 4, 8]	13	FR1	1	R1216E
2198.119	4.076	2308560	PROB	4.076	n/a	n/a	-999	19	[6, 3, 2]	11	FR1	1	R1216E
2202.195	0.008	2312636	STOP	n/a	n/a	n/a	-999	19	[-999, -999, -999]	n/a	FR1	1	R1216E
2202.203	0.566	2312644	DISTRACT_END	n/a	n/a	n/a	-999	19	[0, 0, 0]	n/a	FR1	1	R1216E
2202.769	0.519	2313210	RETRIEVAL_ORIENT	n/a	n/a	n/a	-999	19	[0, 0, 0]	n/a	FR1	1	R1216E
2203.288	11.382	2313729	REC_START	n/a	n/a	n/a	-999	19	[0, 0, 0]	n/a	FR1	1	R1216E
2214.67	11.89	2325111	REC_WORD	11.89	n/a	DESK	-999	19	[0, 0, 0]	n/a	FR1	1	R1216E
2226.56	6.737	2337000	REC_WORD	6.737	n/a	STORM	-999	19	[0, 0, 0]	n/a	FR1	1	R1216E
2233.297	7.163	2343737	REC_END	n/a	n/a	n/a	-999	19	[0, 0, 0]	n/a	FR1	1	R1216E
2240.46	0.5	2350900	TRIAL	n/a	n/a	n/a	-999	20	[0, 0, 0]	n/a	FR1	1	R1216E
2240.96	10.428	2351400	COUNTDOWN_START	n/a	n/a	n/a	-999	20	[0, 0, 0]	n/a	FR1	1	R1216E
2251.388	0.007	2361827	COUNTDOWN_END	n/a	n/a	n/a	-999	20	[0, 0, 0]	n/a	FR1	1	R1216E
2251.395	1.617	2361834	ORIENT	n/a	n/a	n/a	-999	20	[0, 0, 0]	n/a	FR1	1	R1216E
2253.012	2.134	2363451	ORIENT_OFF	n/a	n/a	n/a	-999	20	[0, 0, 0]	n/a	FR1	1	R1216E
2255.146	1.616	2365585	WORD	n/a	wordpools/wordpool_EN.txt	SLUSH	1	20	[0, 0, 0]	n/a	FR1	1	R1216E
2256.762	0.95	2367201	WORD_OFF	n/a	n/a	SLUSH	1	20	[0, 0, 0]	n/a	FR1	1	R1216E
2257.712	1.618	2368151	WORD	n/a	wordpools/wordpool_EN.txt	BOARD	2	20	[0, 0, 0]	n/a	FR1	1	R1216E
2259.33	0.867	2369769	WORD_OFF	n/a	n/a	BOARD	2	20	[0, 0, 0]	n/a	FR1	1	R1216E
2260.197	1.616	2370636	WORD	n/a	wordpools/wordpool_EN.txt	LAKE	3	20	[0, 0, 0]	n/a	FR1	1	R1216E
2261.813	0.967	2372252	WORD_OFF	n/a	n/a	LAKE	3	20	[0, 0, 0]	n/a	FR1	1	R1216E
2262.78	1.618	2373219	WORD	n/a	wordpools/wordpool_EN.txt	SHIRT	4	20	[0, 0, 0]	n/a	FR1	1	R1216E
2264.398	0.883	2374837	WORD_OFF	n/a	n/a	SHIRT	4	20	[0, 0, 0]	n/a	FR1	1	R1216E
2265.281	1.617	2375720	WORD	n/a	wordpools/wordpool_EN.txt	STEAK	5	20	[0, 0, 0]	n/a	FR1	1	R1216E
2266.898	0.934	2377337	WORD_OFF	n/a	n/a	STEAK	5	20	[0, 0, 0]	n/a	FR1	1	R1216E
2267.832	1.617	2378271	WORD	n/a	wordpools/wordpool_EN.txt	PASTE	6	20	[0, 0, 0]	n/a	FR1	1	R1216E
2269.449	0.85	2379888	WORD_OFF	n/a	n/a	PASTE	6	20	[0, 0, 0]	n/a	FR1	1	R1216E
2270.299	1.617	2380737	WORD	n/a	wordpools/wordpool_EN.txt	CLOCK	7	20	[0, 0, 0]	n/a	FR1	1	R1216E
2271.916	0.782	2382354	WORD_OFF	n/a	n/a	CLOCK	7	20	[0, 0, 0]	n/a	FR1	1	R1216E
2272.698	1.618	2383136	WORD	n/a	wordpools/wordpool_EN.txt	BAND	8	20	[0, 0, 0]	n/a	FR1	1	R1216E
2274.316	0.9	2384754	WORD_OFF	n/a	n/a	BAND	8	20	[0, 0, 0]	n/a	FR1	1	R1216E
2275.216	1.617	2385654	WORD	n/a	wordpools/wordpool_EN.txt	SHEET	9	20	[0, 0, 0]	n/a	FR1	1	R1216E
2276.833	0.984	2387271	WORD_OFF	n/a	n/a	SHEET	9	20	[0, 0, 0]	n/a	FR1	1	R1216E
2277.817	1.617	2388255	WORD	n/a	wordpools/wordpool_EN.txt	BOY	10	20	[0, 0, 0]	n/a	FR1	1	R1216E
2279.434	0.766	2389872	WORD_OFF	n/a	n/a	BOY	10	20	[0, 0, 0]	n/a	FR1	1	R1216E
2280.2	1.617	2390638	WORD	n/a	wordpools/wordpool_EN.txt	BOAT	11	20	[0, 0, 0]	n/a	FR1	1	R1216E
2281.817	0.916	2392255	WORD_OFF	n/a	n/a	BOAT	11	20	[0, 0, 0]	n/a	FR1	1	R1216E
2282.733	1.601	2393171	WORD	n/a	wordpools/wordpool_EN.txt	JUICE	12	20	[0, 0, 0]	n/a	FR1	1	R1216E
2284.334	0.0	2394772	WORD_OFF	n/a	n/a	JUICE	12	20	[0, 0, 0]	n/a	FR1	1	R1216E
2284.334	0.001	2394772	DISTRACT_START	n/a	n/a	n/a	-999	20	[0, 0, 0]	n/a	FR1	1	R1216E
2284.335	0.016	2394773	START	n/a	n/a	n/a	-999	20	[-999, -999, -999]	n/a	FR1	1	R1216E
2284.351	4.568	2394789	PROB	4.568	n/a	n/a	-999	20	[7, 5, 1]	13	FR1	1	R1216E
2288.919	5.417	2399357	PROB	5.417	n/a	n/a	-999	20	[5, 7, 5]	17	FR1	1	R1216E
2294.336	22.853	2404774	PROB	22.853	n/a	n/a	-999	20	[6, 9, 6]	21	FR1	1	R1216E
2317.189	0.018	2427626	STOP	n/a	n/a	n/a	-999	20	[-999, -999, -999]	n/a	FR1	1	R1216E
2317.207	0.532	2427644	DISTRACT_END	n/a	n/a	n/a	-999	20	[0, 0, 0]	n/a	FR1	1	R1216E
2317.739	0.519	2428176	RETRIEVAL_ORIENT	n/a	n/a	n/a	-999	20	[0, 0, 0]	n/a	FR1	1	R1216E
2318.258	1.987	2428695	REC_START	n/a	n/a	n/a	-999	20	[0, 0, 0]	n/a	FR1	1	R1216E
2320.245	1.0	2430682	REC_WORD	1.0	n/a	SLUSH	-999	20	[0, 0, 0]	n/a	FR1	1	R1216E
2321.245	27.023	2431682	REC_WORD_VV	27.023	n/a	<>	-999	20	[0, 0, 0]	n/a	FR1	1	R1216E
2348.268	6.762	2458703	REC_END	n/a	n/a	n/a	-999	20	[0, 0, 0]	n/a	FR1	1	R1216E
2355.03	0.5	2465465	TRIAL	n/a	n/a	n/a	-999	21	[0, 0, 0]	n/a	FR1	1	R1216E
2355.53	10.428	2465965	COUNTDOWN_START	n/a	n/a	n/a	-999	21	[0, 0, 0]	n/a	FR1	1	R1216E
2365.958	0.008	2476393	COUNTDOWN_END	n/a	n/a	n/a	-999	21	[0, 0, 0]	n/a	FR1	1	R1216E
2365.966	1.615	2476401	ORIENT	n/a	n/a	n/a	-999	21	[0, 0, 0]	n/a	FR1	1	R1216E
2367.581	2.167	2478016	ORIENT_OFF	n/a	n/a	n/a	-999	21	[0, 0, 0]	n/a	FR1	1	R1216E
2369.748	1.618	2480183	WORD	n/a	wordpools/wordpool_EN.txt	FARM	1	21	[0, 0, 0]	n/a	FR1	1	R1216E
2371.366	0.801	2481801	WORD_OFF	n/a	n/a	FARM	1	21	[0, 0, 0]	n/a	FR1	1	R1216E
2372.167	1.616	2482602	WORD	n/a	wordpools/wordpool_EN.txt	ROOF	2	21	[0, 0, 0]	n/a	FR1	1	R1216E
2373.783	0.85	2484218	WORD_OFF	n/a	n/a	ROOF	2	21	[0, 0, 0]	n/a	FR1	1	R1216E
2374.633	1.618	2485067	WORD	n/a	wordpools/wordpool_EN.txt	PALM	3	21	[0, 0, 0]	n/a	FR1	1	R1216E
2376.251	0.833	2486685	WORD_OFF	n/a	n/a	PALM	3	21	[0, 0, 0]	n/a	FR1	1	R1216E
2377.084	1.616	2487518	WORD	n/a	wordpools/wordpool_EN.txt	GLOVE	4	21	[0, 0, 0]	n/a	FR1	1	R1216E
2378.7	0.835	2489134	WORD_OFF	n/a	n/a	GLOVE	4	21	[0, 0, 0]	n/a	FR1	1	R1216E
2379.535	1.616	2489969	WORD	n/a	wordpools/wordpool_EN.txt	SOAP	5	21	[0, 0, 0]	n/a	FR1	1	R1216E
2381.151	0.834	2491585	WORD_OFF	n/a	n/a	SOAP	5	21	[0, 0, 0]	n/a	FR1	1	R1216E
2381.985	1.616	2492419	WORD	n/a	wordpools/wordpool_EN.txt	RICE	6	21	[0, 0, 0]	n/a	FR1	1	R1216E
2383.601	0.918	2494035	WORD_OFF	n/a	n/a	RICE	6	21	[0, 0, 0]	n/a	FR1	1	R1216E
2384.519	1.617	2494953	WORD	n/a	wordpools/wordpool_EN.txt	OAK	7	21	[0, 0, 0]	n/a	FR1	1	R1216E
2386.136	0.8	2496570	WORD_OFF	n/a	n/a	OAK	7	21	[0, 0, 0]	n/a	FR1	1	R1216E
2386.936	1.616	2497370	WORD	n/a	wordpools/wordpool_EN.txt	SMOKE	8	21	[0, 0, 0]	n/a	FR1	1	R1216E
2388.552	0.934	2498986	WORD_OFF	n/a	n/a	SMOKE	8	21	[0, 0, 0]	n/a	FR1	1	R1216E
2389.486	1.617	2499920	WORD	n/a	wordpools/wordpool_EN.txt	PANTS	9	21	[0, 0, 0]	n/a	FR1	1	R1216E
2391.103	0.85	2501537	WORD_OFF	n/a	n/a	PANTS	9	21	[0, 0, 0]	n/a	FR1	1	R1216E
2391.953	1.616	2502387	WORD	n/a	wordpools/wordpool_EN.txt	WHALE	10	21	[0, 0, 0]	n/a	FR1	1	R1216E
2393.569	0.818	2504003	WORD_OFF	n/a	n/a	WHALE	10	21	[0, 0, 0]	n/a	FR1	1	R1216E
2394.387	1.617	2504821	WORD	n/a	wordpools/wordpool_EN.txt	SOCK	11	21	[0, 0, 0]	n/a	FR1	1	R1216E
2396.004	0.833	2506438	WORD_OFF	n/a	n/a	SOCK	11	21	[0, 0, 0]	n/a	FR1	1	R1216E
2396.837	1.618	2507271	WORD	n/a	wordpools/wordpool_EN.txt	DOOR	12	21	[0, 0, 0]	n/a	FR1	1	R1216E
2398.455	0.0	2508889	WORD_OFF	n/a	n/a	DOOR	12	21	[0, 0, 0]	n/a	FR1	1	R1216E
2398.455	0.0	2508889	DISTRACT_START	n/a	n/a	n/a	-999	21	[0, 0, 0]	n/a	FR1	1	R1216E
2398.455	0.016	2508889	START	n/a	n/a	n/a	-999	21	[-999, -999, -999]	n/a	FR1	1	R1216E
2398.471	5.751	2508905	PROB	5.751	n/a	n/a	-999	21	[7, 8, 2]	17	FR1	1	R1216E
2404.222	7.152	2514655	PROB	7.152	n/a	n/a	-999	21	[3, 4, 8]	15	FR1	1	R1216E
2411.374	2.583	2521807	PROB	2.583	n/a	n/a	-999	21	[1, 6, 1]	8	FR1	1	R1216E
2413.957	3.184	2524390	PROB	3.184	n/a	n/a	-999	21	[3, 5, 1]	9	FR1	1	R1216E
2417.141	9.107	2527574	PROB	9.107	n/a	n/a	-999	21	[9, 3, 9]	21	FR1	1	R1216E
2426.248	0.012	2536681	STOP	n/a	n/a	n/a	-999	21	[-999, -999, -999]	n/a	FR1	1	R1216E
2426.26	0.666	2536693	DISTRACT_END	n/a	n/a	n/a	-999	21	[0, 0, 0]	n/a	FR1	1	R1216E
2426.926	0.518	2537359	RETRIEVAL_ORIENT	n/a	n/a	n/a	-999	21	[0, 0, 0]	n/a	FR1	1	R1216E
2427.444	2.019	2537876	REC_START	n/a	n/a	n/a	-999	21	[0, 0, 0]	n/a	FR1	1	R1216E
2429.463	1.043	2539895	REC_WORD	1.043	n/a	PALM	-999	21	[0, 0, 0]	n/a	FR1	1	R1216E
2430.506	1.0	2540938	REC_WORD	1.0	n/a	SOAP	-999	21	[0, 0, 0]	n/a	FR1	1	R1216E
2431.506	2.361	2541938	REC_WORD_VV	2.361	n/a	<>	-999	21	[0, 0, 0]	n/a	FR1	1	R1216E
2433.867	1.0	2544299	REC_WORD	1.0	n/a	GLOVE	-999	21	[0, 0, 0]	n/a	FR1	1	R1216E
2434.867	22.586	2545299	REC_WORD_VV	22.586	n/a	<>	-999	21	[0, 0, 0]	n/a	FR1	1	R1216E
2457.453	7.563	2567884	REC_END	n/a	n/a	n/a	-999	21	[0, 0, 0]	n/a	FR1	1	R1216E
2465.016	0.5	2575447	TRIAL	n/a	n/a	n/a	-999	22	[0, 0, 0]	n/a	FR1	1	R1216E
2465.516	10.428	2575947	COUNTDOWN_START	n/a	n/a	n/a	-999	22	[0, 0, 0]	n/a	FR1	1	R1216E
2475.944	0.008	2586375	COUNTDOWN_END	n/a	n/a	n/a	-999	22	[0, 0, 0]	n/a	FR1	1	R1216E
2475.952	1.615	2586383	ORIENT	n/a	n/a	n/a	-999	22	[0, 0, 0]	n/a	FR1	1	R1216E
2477.567	2.352	2587998	ORIENT_OFF	n/a	n/a	n/a	-999	22	[0, 0, 0]	n/a	FR1	1	R1216E
2479.919	1.617	2590349	WORD	n/a	wordpools/wordpool_EN.txt	PARK	1	22	[0, 0, 0]	n/a	FR1	1	R1216E
2481.536	0.95	2591966	WORD_OFF	n/a	n/a	PARK	1	22	[0, 0, 0]	n/a	FR1	1	R1216E
2482.486	1.617	2592916	WORD	n/a	wordpools/wordpool_EN.txt	PHONE	2	22	[0, 0, 0]	n/a	FR1	1	R1216E
2484.103	0.8	2594533	WORD_OFF	n/a	n/a	PHONE	2	22	[0, 0, 0]	n/a	FR1	1	R1216E
2484.903	1.617	2595333	WORD	n/a	wordpools/wordpool_EN.txt	FOOD	3	22	[0, 0, 0]	n/a	FR1	1	R1216E
2486.52	0.817	2596950	WORD_OFF	n/a	n/a	FOOD	3	22	[0, 0, 0]	n/a	FR1	1	R1216E
2487.337	1.617	2597767	WORD	n/a	wordpools/wordpool_EN.txt	HOOF	4	22	[0, 0, 0]	n/a	FR1	1	R1216E
2488.954	0.95	2599384	WORD_OFF	n/a	n/a	HOOF	4	22	[0, 0, 0]	n/a	FR1	1	R1216E
2489.904	1.617	2600334	WORD	n/a	wordpools/wordpool_EN.txt	SEAL	5	22	[0, 0, 0]	n/a	FR1	1	R1216E
2491.521	0.833	2601951	WORD_OFF	n/a	n/a	SEAL	5	22	[0, 0, 0]	n/a	FR1	1	R1216E
2492.354	1.617	2602784	WORD	n/a	wordpools/wordpool_EN.txt	TAIL	6	22	[0, 0, 0]	n/a	FR1	1	R1216E
2493.971	0.967	2604401	WORD_OFF	n/a	n/a	TAIL	6	22	[0, 0, 0]	n/a	FR1	1	R1216E
2494.938	1.616	2605368	WORD	n/a	wordpools/wordpool_EN.txt	LOCK	7	22	[0, 0, 0]	n/a	FR1	1	R1216E
2496.554	0.785	2606984	WORD_OFF	n/a	n/a	LOCK	7	22	[0, 0, 0]	n/a	FR1	1	R1216E
2497.339	1.617	2607769	WORD	n/a	wordpools/wordpool_EN.txt	ANT	8	22	[0, 0, 0]	n/a	FR1	1	R1216E
2498.956	0.916	2609386	WORD_OFF	n/a	n/a	ANT	8	22	[0, 0, 0]	n/a	FR1	1	R1216E
2499.872	1.617	2610302	WORD	n/a	wordpools/wordpool_EN.txt	WING	9	22	[0, 0, 0]	n/a	FR1	1	R1216E
2501.489	0.934	2611919	WORD_OFF	n/a	n/a	WING	9	22	[0, 0, 0]	n/a	FR1	1	R1216E
2502.423	1.617	2612853	WORD	n/a	wordpools/wordpool_EN.txt	BEE	10	22	[0, 0, 0]	n/a	FR1	1	R1216E
2504.04	0.766	2614470	WORD_OFF	n/a	n/a	BEE	10	22	[0, 0, 0]	n/a	FR1	1	R1216E
2504.806	1.601	2615236	WORD	n/a	wordpools/wordpool_EN.txt	BREAD	11	22	[0, 0, 0]	n/a	FR1	1	R1216E
2506.407	0.933	2616836	WORD_OFF	n/a	n/a	BREAD	11	22	[0, 0, 0]	n/a	FR1	1	R1216E
2507.34	1.617	2617769	WORD	n/a	wordpools/wordpool_EN.txt	ROCK	12	22	[0, 0, 0]	n/a	FR1	1	R1216E
2508.957	0.0	2619386	DISTRACT_START	n/a	n/a	n/a	-999	22	[0, 0, 0]	n/a	FR1	1	R1216E
2508.957	0.001	2619386	WORD_OFF	n/a	n/a	ROCK	12	22	[0, 0, 0]	n/a	FR1	1	R1216E
2508.958	0.016	2619387	START	n/a	n/a	n/a	-999	22	[-999, -999, -999]	n/a	FR1	1	R1216E
2508.974	6.318	2619403	PROB	6.318	n/a	n/a	-999	22	[4, 7, 2]	14	FR1	1	R1216E
2515.292	9.985	2625721	PROB	9.985	n/a	n/a	-999	22	[6, 9, 9]	24	FR1	1	R1216E
2525.277	6.059	2635706	PROB	6.059	n/a	n/a	-999	22	[6, 3, 8]	17	FR1	1	R1216E
2531.336	0.009	2641765	STOP	n/a	n/a	n/a	-999	22	[-999, -999, -999]	n/a	FR1	1	R1216E
2531.345	0.566	2641774	DISTRACT_END	n/a	n/a	n/a	-999	22	[0, 0, 0]	n/a	FR1	1	R1216E
2531.911	0.518	2642340	RETRIEVAL_ORIENT	n/a	n/a	n/a	-999	22	[0, 0, 0]	n/a	FR1	1	R1216E
2532.429	2.477	2642857	REC_START	n/a	n/a	n/a	-999	22	[0, 0, 0]	n/a	FR1	1	R1216E
2534.906	27.532	2645334	REC_WORD	27.532	n/a	SOCK	-999	22	[0, 0, 0]	n/a	FR1	1	R1216E
2562.438	6.262	2672865	REC_END	n/a	n/a	n/a	-999	22	[0, 0, 0]	n/a	FR1	1	R1216E
2568.7	0.5	2679127	TRIAL	n/a	n/a	n/a	-999	23	[0, 0, 0]	n/a	FR1	1	R1216E
2569.2	10.428	2679627	COUNTDOWN_START	n/a	n/a	n/a	-999	23	[0, 0, 0]	n/a	FR1	1	R1216E
2579.628	0.008	2690055	COUNTDOWN_END	n/a	n/a	n/a	-999	23	[0, 0, 0]	n/a	FR1	1	R1216E
2579.636	1.617	2690063	ORIENT	n/a	n/a	n/a	-999	23	[0, 0, 0]	n/a	FR1	1	R1216E
2581.253	2.134	2691680	ORIENT_OFF	n/a	n/a	n/a	-999	23	[0, 0, 0]	n/a	FR1	1	R1216E
2583.387	1.617	2693814	WORD	n/a	wordpools/wordpool_EN.txt	CROWN	1	23	[0, 0, 0]	n/a	FR1	1	R1216E
2585.004	0.917	2695430	WORD_OFF	n/a	n/a	CROWN	1	23	[0, 0, 0]	n/a	FR1	1	R1216E
2585.921	1.617	2696347	WORD	n/a	wordpools/wordpool_EN.txt	PIG	2	23	[0, 0, 0]	n/a	FR1	1	R1216E
2587.538	0.817	2697964	WORD_OFF	n/a	n/a	PIG	2	23	[0, 0, 0]	n/a	FR1	1	R1216E
2588.355	1.617	2698781	WORD	n/a	wordpools/wordpool_EN.txt	WOLF	3	23	[0, 0, 0]	n/a	FR1	1	R1216E
2589.972	0.832	2700398	WORD_OFF	n/a	n/a	WOLF	3	23	[0, 0, 0]	n/a	FR1	1	R1216E
2590.804	1.618	2701230	WORD	n/a	wordpools/wordpool_EN.txt	HEN	4	23	[0, 0, 0]	n/a	FR1	1	R1216E
2592.422	0.9	2702848	WORD_OFF	n/a	n/a	HEN	4	23	[0, 0, 0]	n/a	FR1	1	R1216E
2593.322	1.617	2703748	WORD	n/a	wordpools/wordpool_EN.txt	BEAN	5	23	[0, 0, 0]	n/a	FR1	1	R1216E
2594.939	0.984	2705365	WORD_OFF	n/a	n/a	BEAN	5	23	[0, 0, 0]	n/a	FR1	1	R1216E
2595.923	1.617	2706349	WORD	n/a	wordpools/wordpool_EN.txt	CALF	6	23	[0, 0, 0]	n/a	FR1	1	R1216E
2597.54	0.866	2707966	WORD_OFF	n/a	n/a	CALF	6	23	[0, 0, 0]	n/a	FR1	1	R1216E
2598.406	1.617	2708832	WORD	n/a	wordpools/wordpool_EN.txt	CLOUD	7	23	[0, 0, 0]	n/a	FR1	1	R1216E
2600.023	0.817	2710449	WORD_OFF	n/a	n/a	CLOUD	7	23	[0, 0, 0]	n/a	FR1	1	R1216E
2600.84	1.617	2711266	WORD	n/a	wordpools/wordpool_EN.txt	CAPE	8	23	[0, 0, 0]	n/a	FR1	1	R1216E
2602.457	0.784	2712883	WORD_OFF	n/a	n/a	CAPE	8	23	[0, 0, 0]	n/a	FR1	1	R1216E
2603.241	1.617	2713667	WORD	n/a	wordpools/wordpool_EN.txt	WEED	9	23	[0, 0, 0]	n/a	FR1	1	R1216E
2604.858	0.899	2715284	WORD_OFF	n/a	n/a	WEED	9	23	[0, 0, 0]	n/a	FR1	1	R1216E
2605.757	1.618	2716183	WORD	n/a	wordpools/wordpool_EN.txt	CLIFF	10	23	[0, 0, 0]	n/a	FR1	1	R1216E
2607.375	0.983	2717801	WORD_OFF	n/a	n/a	CLIFF	10	23	[0, 0, 0]	n/a	FR1	1	R1216E
2608.358	1.617	2718784	WORD	n/a	wordpools/wordpool_EN.txt	CAT	11	23	[0, 0, 0]	n/a	FR1	1	R1216E
2609.975	0.782	2720401	WORD_OFF	n/a	n/a	CAT	11	23	[0, 0, 0]	n/a	FR1	1	R1216E
2610.757	1.602	2721183	WORD	n/a	wordpools/wordpool_EN.txt	CRANE	12	23	[0, 0, 0]	n/a	FR1	1	R1216E
2612.359	0.0	2722784	WORD_OFF	n/a	n/a	CRANE	12	23	[0, 0, 0]	n/a	FR1	1	R1216E
2612.359	0.0	2722784	DISTRACT_START	n/a	n/a	n/a	-999	23	[0, 0, 0]	n/a	FR1	1	R1216E
2612.359	0.017	2722784	START	n/a	n/a	n/a	-999	23	[-999, -999, -999]	n/a	FR1	1	R1216E
2612.376	6.117	2722801	PROB	6.117	n/a	n/a	-999	23	[3, 7, 3]	13	FR1	1	R1216E
2618.493	18.708	2728918	PROB	18.708	n/a	n/a	-999	23	[5, 2, 9]	16	FR1	1	R1216E
2637.201	0.012	2747625	STOP	n/a	n/a	n/a	-999	23	[-999, -999, -999]	n/a	FR1	1	R1216E
2637.213	0.516	2747637	DISTRACT_END	n/a	n/a	n/a	-999	23	[0, 0, 0]	n/a	FR1	1	R1216E
2637.729	0.519	2748153	RETRIEVAL_ORIENT	n/a	n/a	n/a	-999	23	[0, 0, 0]	n/a	FR1	1	R1216E
2638.248	1.798	2748672	REC_START	n/a	n/a	n/a	-999	23	[0, 0, 0]	n/a	FR1	1	R1216E
2640.046	1.0	2750470	REC_WORD	1.0	n/a	CRANE	-999	23	[0, 0, 0]	n/a	FR1	1	R1216E
2641.046	1.488	2751470	REC_WORD_VV	1.488	n/a	<>	-999	23	[0, 0, 0]	n/a	FR1	1	R1216E
2642.534	2.832	2752958	REC_WORD	2.832	n/a	CAPE	-999	23	[0, 0, 0]	n/a	FR1	1	R1216E
2645.366	22.891	2755790	REC_WORD	22.891	n/a	CROWN	-999	23	[0, 0, 0]	n/a	FR1	1	R1216E
2668.257	6.896	2778680	REC_END	n/a	n/a	n/a	-999	23	[0, 0, 0]	n/a	FR1	1	R1216E
2675.153	0.5	2785576	TRIAL	n/a	n/a	n/a	-999	24	[0, 0, 0]	n/a	FR1	1	R1216E
2675.653	10.428	2786076	COUNTDOWN_START	n/a	n/a	n/a	-999	24	[0, 0, 0]	n/a	FR1	1	R1216E
2686.081	0.008	2796504	COUNTDOWN_END	n/a	n/a	n/a	-999	24	[0, 0, 0]	n/a	FR1	1	R1216E
2686.089	1.616	2796512	ORIENT	n/a	n/a	n/a	-999	24	[0, 0, 0]	n/a	FR1	1	R1216E
2687.705	2.368	2798128	ORIENT_OFF	n/a	n/a	n/a	-999	24	[0, 0, 0]	n/a	FR1	1	R1216E
2690.073	1.616	2800495	WORD	n/a	wordpools/wordpool_EN.txt	DUCK	1	24	[0, 0, 0]	n/a	FR1	1	R1216E
2691.689	1.0	2802111	WORD_OFF	n/a	n/a	DUCK	1	24	[0, 0, 0]	n/a	FR1	1	R1216E
2692.689	1.618	2803111	WORD	n/a	wordpools/wordpool_EN.txt	SALT	2	24	[0, 0, 0]	n/a	FR1	1	R1216E
2694.307	0.95	2804729	WORD_OFF	n/a	n/a	SALT	2	24	[0, 0, 0]	n/a	FR1	1	R1216E
2695.257	1.617	2805679	WORD	n/a	wordpools/wordpool_EN.txt	PET	3	24	[0, 0, 0]	n/a	FR1	1	R1216E
2696.874	0.95	2807296	WORD_OFF	n/a	n/a	PET	3	24	[0, 0, 0]	n/a	FR1	1	R1216E
2697.824	1.617	2808246	WORD	n/a	wordpools/wordpool_EN.txt	RIB	4	24	[0, 0, 0]	n/a	FR1	1	R1216E
2699.441	0.767	2809863	WORD_OFF	n/a	n/a	RIB	4	24	[0, 0, 0]	n/a	FR1	1	R1216E
2700.208	1.617	2810630	WORD	n/a	wordpools/wordpool_EN.txt	SAIL	5	24	[0, 0, 0]	n/a	FR1	1	R1216E
2701.825	0.765	2812247	WORD_OFF	n/a	n/a	SAIL	5	24	[0, 0, 0]	n/a	FR1	1	R1216E
2702.59	1.619	2813012	WORD	n/a	wordpools/wordpool_EN.txt	BEAR	6	24	[0, 0, 0]	n/a	FR1	1	R1216E
2704.209	0.883	2814631	WORD_OFF	n/a	n/a	BEAR	6	24	[0, 0, 0]	n/a	FR1	1	R1216E
2705.092	1.616	2815514	WORD	n/a	wordpools/wordpool_EN.txt	PEACH	7	24	[0, 0, 0]	n/a	FR1	1	R1216E
2706.708	0.801	2817130	WORD_OFF	n/a	n/a	PEACH	7	24	[0, 0, 0]	n/a	FR1	1	R1216E
2707.509	1.617	2817931	WORD	n/a	wordpools/wordpool_EN.txt	CART	8	24	[0, 0, 0]	n/a	FR1	1	R1216E
2709.126	0.866	2819548	WORD_OFF	n/a	n/a	CART	8	24	[0, 0, 0]	n/a	FR1	1	R1216E
2709.992	1.617	2820414	WORD	n/a	wordpools/wordpool_EN.txt	CLAY	9	24	[0, 0, 0]	n/a	FR1	1	R1216E
2711.609	0.801	2822031	WORD_OFF	n/a	n/a	CLAY	9	24	[0, 0, 0]	n/a	FR1	1	R1216E
2712.41	1.617	2822832	WORD	n/a	wordpools/wordpool_EN.txt	SPEAR	10	24	[0, 0, 0]	n/a	FR1	1	R1216E
2714.027	0.917	2824449	WORD_OFF	n/a	n/a	SPEAR	10	24	[0, 0, 0]	n/a	FR1	1	R1216E
2714.944	1.616	2825366	WORD	n/a	wordpools/wordpool_EN.txt	MAT	11	24	[0, 0, 0]	n/a	FR1	1	R1216E
2716.56	0.851	2826981	WORD_OFF	n/a	n/a	MAT	11	24	[0, 0, 0]	n/a	FR1	1	R1216E
2717.411	1.617	2827832	WORD	n/a	wordpools/wordpool_EN.txt	YARD	12	24	[0, 0, 0]	n/a	FR1	1	R1216E
2719.028	0.0	2829449	WORD_OFF	n/a	n/a	YARD	12	24	[0, 0, 0]	n/a	FR1	1	R1216E
2719.028	0.0	2829449	DISTRACT_START	n/a	n/a	n/a	-999	24	[0, 0, 0]	n/a	FR1	1	R1216E
2719.028	0.016	2829449	START	n/a	n/a	n/a	-999	24	[-999, -999, -999]	n/a	FR1	1	R1216E
2719.044	3.901	2829465	PROB	3.901	n/a	n/a	-999	24	[2, 3, 4]	9	FR1	1	R1216E
2722.945	4.034	2833366	PROB	4.034	n/a	n/a	-999	24	[5, 2, 3]	10	FR1	1	R1216E
2726.979	17.321	2837400	PROB	17.321	n/a	n/a	-999	24	[9, 7, 8]	24	FR1	1	R1216E
2744.3	0.015	2854720	STOP	n/a	n/a	n/a	-999	24	[-999, -999, -999]	n/a	FR1	1	R1216E
2744.315	0.601	2854735	DISTRACT_END	n/a	n/a	n/a	-999	24	[0, 0, 0]	n/a	FR1	1	R1216E
2744.916	0.517	2855336	RETRIEVAL_ORIENT	n/a	n/a	n/a	-999	24	[0, 0, 0]	n/a	FR1	1	R1216E
2745.433	4.639	2855853	REC_START	n/a	n/a	n/a	-999	24	[0, 0, 0]	n/a	FR1	1	R1216E
2750.072	1.0	2860492	REC_WORD	1.0	n/a	PEACH	-999	24	[0, 0, 0]	n/a	FR1	1	R1216E
2751.072	9.382	2861492	REC_WORD_VV	9.382	n/a	<>	-999	24	[0, 0, 0]	n/a	FR1	1	R1216E
2760.454	1.0	2870874	REC_WORD	1.0	n/a	SPEAR	-999	24	[0, 0, 0]	n/a	FR1	1	R1216E
2761.454	1.0	2871874	REC_WORD_VV	1.0	n/a	<>	-999	24	[0, 0, 0]	n/a	FR1	1	R1216E
2762.454	12.989	2872874	REC_WORD_VV	12.989	n/a	<>	-999	24	[0, 0, 0]	n/a	FR1	1	R1216E
2775.443	7.345	2885862	REC_END	n/a	n/a	n/a	-999	24	[0, 0, 0]	n/a	FR1	1	R1216E
2782.788	0.5	2893207	TRIAL	n/a	n/a	n/a	-999	25	[0, 0, 0]	n/a	FR1	1	R1216E
2783.288	10.428	2893707	COUNTDOWN_START	n/a	n/a	n/a	-999	25	[0, 0, 0]	n/a	FR1	1	R1216E
2793.716	0.007	2904135	COUNTDOWN_END	n/a	n/a	n/a	-999	25	[0, 0, 0]	n/a	FR1	1	R1216E
2793.723	1.601	2904142	ORIENT	n/a	n/a	n/a	-999	25	[0, 0, 0]	n/a	FR1	1	R1216E
2795.324	1.967	2905742	ORIENT_OFF	n/a	n/a	n/a	-999	25	[0, 0, 0]	n/a	FR1	1	R1216E
2797.291	1.618	2907709	WORD	n/a	wordpools/wordpool_EN.txt	GOLD	1	25	[0, 0, 0]	n/a	FR1	1	R1216E
2798.909	0.815	2909327	WORD_OFF	n/a	n/a	GOLD	1	25	[0, 0, 0]	n/a	FR1	1	R1216E
2799.724	1.601	2910142	WORD	n/a	wordpools/wordpool_EN.txt	ZOO	2	25	[0, 0, 0]	n/a	FR1	1	R1216E
2801.325	0.834	2911743	WORD_OFF	n/a	n/a	ZOO	2	25	[0, 0, 0]	n/a	FR1	1	R1216E
2802.159	1.616	2912577	WORD	n/a	wordpools/wordpool_EN.txt	KEY	3	25	[0, 0, 0]	n/a	FR1	1	R1216E
2803.775	0.8	2914193	WORD_OFF	n/a	n/a	KEY	3	25	[0, 0, 0]	n/a	FR1	1	R1216E
2804.575	1.618	2914993	WORD	n/a	wordpools/wordpool_EN.txt	MOLE	4	25	[0, 0, 0]	n/a	FR1	1	R1216E
2806.193	0.917	2916611	WORD_OFF	n/a	n/a	MOLE	4	25	[0, 0, 0]	n/a	FR1	1	R1216E
2807.11	1.616	2917528	WORD	n/a	wordpools/wordpool_EN.txt	TEETH	5	25	[0, 0, 0]	n/a	FR1	1	R1216E
2808.726	0.784	2919144	WORD_OFF	n/a	n/a	TEETH	5	25	[0, 0, 0]	n/a	FR1	1	R1216E
2809.51	1.617	2919928	WORD	n/a	wordpools/wordpool_EN.txt	TOAST	6	25	[0, 0, 0]	n/a	FR1	1	R1216E
2811.127	0.867	2921545	WORD_OFF	n/a	n/a	TOAST	6	25	[0, 0, 0]	n/a	FR1	1	R1216E
2811.994	1.616	2922412	WORD	n/a	wordpools/wordpool_EN.txt	LEAF	7	25	[0, 0, 0]	n/a	FR1	1	R1216E
2813.61	0.785	2924028	WORD_OFF	n/a	n/a	LEAF	7	25	[0, 0, 0]	n/a	FR1	1	R1216E
2814.395	1.616	2924813	WORD	n/a	wordpools/wordpool_EN.txt	CHEEK	8	25	[0, 0, 0]	n/a	FR1	1	R1216E
2816.011	1.001	2926429	WORD_OFF	n/a	n/a	CHEEK	8	25	[0, 0, 0]	n/a	FR1	1	R1216E
2817.012	1.616	2927430	WORD	n/a	wordpools/wordpool_EN.txt	PEARL	9	25	[0, 0, 0]	n/a	FR1	1	R1216E
2818.628	0.884	2929046	WORD_OFF	n/a	n/a	PEARL	9	25	[0, 0, 0]	n/a	FR1	1	R1216E
2819.512	1.617	2929930	WORD	n/a	wordpools/wordpool_EN.txt	SHEEP	10	25	[0, 0, 0]	n/a	FR1	1	R1216E
2821.129	0.967	2931546	WORD_OFF	n/a	n/a	SHEEP	10	25	[0, 0, 0]	n/a	FR1	1	R1216E
2822.096	1.616	2932513	WORD	n/a	wordpools/wordpool_EN.txt	TRASH	11	25	[0, 0, 0]	n/a	FR1	1	R1216E
2823.712	0.784	2934129	WORD_OFF	n/a	n/a	TRASH	11	25	[0, 0, 0]	n/a	FR1	1	R1216E
2824.496	1.617	2934913	WORD	n/a	wordpools/wordpool_EN.txt	DART	12	25	[0, 0, 0]	n/a	FR1	1	R1216E
2826.113	0.0	2936530	WORD_OFF	n/a	n/a	DART	12	25	[0, 0, 0]	n/a	FR1	1	R1216E
2826.113	0.001	2936530	DISTRACT_START	n/a	n/a	n/a	-999	25	[0, 0, 0]	n/a	FR1	1	R1216E
2826.114	0.016	2936531	START	n/a	n/a	n/a	-999	25	[-999, -999, -999]	n/a	FR1	1	R1216E
2826.13	9.885	2936547	PROB	9.885	n/a	n/a	-999	25	[8, 6, 8]	22	FR1	1	R1216E
2836.015	3.217	2946432	PROB	3.217	n/a	n/a	-999	25	[3, 6, 4]	13	FR1	1	R1216E
2839.232	7.166	2949649	PROB	7.166	n/a	n/a	-999	25	[3, 6, 3]	12	FR1	1	R1216E
2846.398	0.019	2956815	STOP	n/a	n/a	n/a	-999	25	[-999, -999, -999]	n/a	FR1	1	R1216E
2846.417	0.683	2956834	DISTRACT_END	n/a	n/a	n/a	-999	25	[0, 0, 0]	n/a	FR1	1	R1216E
2847.1	0.517	2957517	RETRIEVAL_ORIENT	n/a	n/a	n/a	-999	25	[0, 0, 0]	n/a	FR1	1	R1216E
2847.617	1.422	2958033	REC_START	n/a	n/a	n/a	-999	25	[0, 0, 0]	n/a	FR1	1	R1216E
2849.039	1.0	2959455	REC_WORD	1.0	n/a	DART	-999	25	[0, 0, 0]	n/a	FR1	1	R1216E
2850.039	5.51	2960455	REC_WORD_VV	5.51	n/a	<>	-999	25	[0, 0, 0]	n/a	FR1	1	R1216E
2855.549	3.658	2965965	REC_WORD	3.658	n/a	MOLE	-999	25	[0, 0, 0]	n/a	FR1	1	R1216E
2859.207	2.177	2969623	REC_WORD_VV	2.177	n/a	<>	-999	25	[0, 0, 0]	n/a	FR1	1	R1216E
2861.384	16.242	2971800	REC_WORD_VV	16.242	n/a	<>	-999	25	[0, 0, 0]	n/a	FR1	1	R1216E
2877.626	91.928	2988041	REC_END	n/a	n/a	n/a	-999	25	[0, 0, 0]	n/a	FR1	1	R1216E
2969.554	0.0	3079966	SESS_END	n/a	n/a	n/a	-999	25	[0, 0, 0]	n/a	FR1	1	R1216E
