onset	duration	sample	trial_type	response_time	stim_file	item_name	serialpos	list	test	answer	experiment	session	subject
0.0	0.0	22755	INSTRUCT_START	n/a	n/a	n/a	-999	-999	[0, 0, 0]	n/a	FR1	0	R1168T
0.0	11.096	22755	INSTRUCT_END	n/a	n/a	n/a	-999	-999	[0, 0, 0]	n/a	FR1	0	R1168T
11.096	0.0	33851	SESS_START	n/a	n/a	n/a	-999	-999	[0, 0, 0]	n/a	FR1	0	R1168T
11.096	284.786	33851	MIC_TEST	n/a	n/a	n/a	-999	-999	[0, 0, 0]	n/a	FR1	0	R1168T
295.882	1.973	318620	PRACTICE_TRIAL	n/a	n/a	n/a	-999	-1	[0, 0, 0]	n/a	FR1	0	R1168T
297.855	10.428	320593	COUNTDOWN_START	n/a	n/a	n/a	-999	-1	[0, 0, 0]	n/a	FR1	0	R1168T
308.283	0.006	331020	COUNTDOWN_END	n/a	n/a	n/a	-999	-1	[0, 0, 0]	n/a	FR1	0	R1168T
308.289	1.617	331026	PRACTICE_ORIENT	n/a	n/a	n/a	-999	-1	[0, 0, 0]	n/a	FR1	0	R1168T
309.906	2.067	332643	PRACTICE_ORIENT_OFF	n/a	n/a	n/a	-999	-1	[0, 0, 0]	n/a	FR1	0	R1168T
311.973	1.618	334710	PRACTICE_WORD	n/a	n/a	RHINO	1	-1	[0, 0, 0]	n/a	FR1	0	R1168T
313.591	0.901	336328	PRACTICE_WORD_OFF	n/a	n/a	RHINO	-999	-1	[0, 0, 0]	n/a	FR1	0	R1168T
314.492	1.616	337229	PRACTICE_WORD	n/a	n/a	TONGUE	2	-1	[0, 0, 0]	n/a	FR1	0	R1168T
316.108	0.933	338845	PRACTICE_WORD_OFF	n/a	n/a	TONGUE	-999	-1	[0, 0, 0]	n/a	FR1	0	R1168T
317.041	1.617	339778	PRACTICE_WORD	n/a	n/a	CHEST	3	-1	[0, 0, 0]	n/a	FR1	0	R1168T
318.658	0.968	341395	PRACTICE_WORD_OFF	n/a	n/a	CHEST	-999	-1	[0, 0, 0]	n/a	FR1	0	R1168T
319.626	1.616	342363	PRACTICE_WORD	n/a	n/a	BEAM	4	-1	[0, 0, 0]	n/a	FR1	0	R1168T
321.242	0.967	343978	PRACTICE_WORD_OFF	n/a	n/a	BEAM	-999	-1	[0, 0, 0]	n/a	FR1	0	R1168T
322.209	1.617	344945	PRACTICE_WORD	n/a	n/a	RING	5	-1	[0, 0, 0]	n/a	FR1	0	R1168T
323.826	0.866	346562	PRACTICE_WORD_OFF	n/a	n/a	RING	-999	-1	[0, 0, 0]	n/a	FR1	0	R1168T
324.692	1.618	347428	PRACTICE_WORD	n/a	n/a	IRON	6	-1	[0, 0, 0]	n/a	FR1	0	R1168T
326.31	0.8	349046	PRACTICE_WORD_OFF	n/a	n/a	IRON	-999	-1	[0, 0, 0]	n/a	FR1	0	R1168T
327.11	1.617	349846	PRACTICE_WORD	n/a	n/a	WATCH	7	-1	[0, 0, 0]	n/a	FR1	0	R1168T
328.727	0.901	351463	PRACTICE_WORD_OFF	n/a	n/a	WATCH	-999	-1	[0, 0, 0]	n/a	FR1	0	R1168T
329.628	1.616	352364	PRACTICE_WORD	n/a	n/a	WAGON	8	-1	[0, 0, 0]	n/a	FR1	0	R1168T
331.244	0.766	353980	PRACTICE_WORD_OFF	n/a	n/a	WAGON	-999	-1	[0, 0, 0]	n/a	FR1	0	R1168T
332.01	1.618	354746	PRACTICE_WORD	n/a	n/a	COTTON	9	-1	[0, 0, 0]	n/a	FR1	0	R1168T
333.628	0.801	356364	PRACTICE_WORD_OFF	n/a	n/a	COTTON	-999	-1	[0, 0, 0]	n/a	FR1	0	R1168T
334.429	1.616	357165	PRACTICE_WORD	n/a	n/a	CAMEL	10	-1	[0, 0, 0]	n/a	FR1	0	R1168T
336.045	0.883	358781	PRACTICE_WORD_OFF	n/a	n/a	CAMEL	-999	-1	[0, 0, 0]	n/a	FR1	0	R1168T
336.928	1.618	359664	PRACTICE_WORD	n/a	n/a	ATTIC	11	-1	[0, 0, 0]	n/a	FR1	0	R1168T
338.546	0.984	361281	PRACTICE_WORD_OFF	n/a	n/a	ATTIC	-999	-1	[0, 0, 0]	n/a	FR1	0	R1168T
339.53	1.615	362265	PRACTICE_WORD	n/a	n/a	FLOOD	12	-1	[0, 0, 0]	n/a	FR1	0	R1168T
341.145	0.0	363880	PRACTICE_WORD_OFF	n/a	n/a	FLOOD	-999	-1	[0, 0, 0]	n/a	FR1	0	R1168T
341.145	0.001	363880	DISTRACT_START	n/a	n/a	n/a	-999	-1	[0, 0, 0]	n/a	FR1	0	R1168T
341.146	0.016	363881	START	n/a	n/a	n/a	-999	-1	[-999, -999, -999]	n/a	FR1	0	R1168T
341.162	11.37	363897	PROB	11.37	n/a	n/a	-999	-1	[9, 2, 3]	14	FR1	0	R1168T
352.532	5.233	375267	PROB	5.233	n/a	n/a	-999	-1	[7, 2, 3]	12	FR1	0	R1168T
357.765	5.792	380499	PROB	5.792	n/a	n/a	-999	-1	[1, 6, 8]	15	FR1	0	R1168T
363.557	0.01	386291	STOP	n/a	n/a	n/a	-999	-1	[-999, -999, -999]	n/a	FR1	0	R1168T
363.567	0.566	386301	DISTRACT_END	n/a	n/a	n/a	-999	-1	[0, 0, 0]	n/a	FR1	0	R1168T
364.133	0.521	386867	RETRIEVAL_ORIENT	n/a	n/a	n/a	-999	-1	[0, 0, 0]	n/a	FR1	0	R1168T
364.654	30.007	387388	PRACTICE_REC_START	n/a	n/a	n/a	-999	-1	[0, 0, 0]	n/a	FR1	0	R1168T
394.661	79.125	417393	PRACTICE_REC_END	n/a	n/a	n/a	-999	-1	[0, 0, 0]	n/a	FR1	0	R1168T
473.786	0.5	496514	TRIAL	n/a	n/a	n/a	-999	1	[0, 0, 0]	n/a	FR1	0	R1168T
474.286	10.428	497014	COUNTDOWN_START	n/a	n/a	n/a	-999	1	[0, 0, 0]	n/a	FR1	0	R1168T
484.714	0.008	507441	COUNTDOWN_END	n/a	n/a	n/a	-999	1	[0, 0, 0]	n/a	FR1	0	R1168T
484.722	1.618	507449	ORIENT	n/a	n/a	n/a	-999	1	[0, 0, 0]	n/a	FR1	0	R1168T
486.34	2.183	509067	ORIENT_OFF	n/a	n/a	n/a	-999	1	[0, 0, 0]	n/a	FR1	0	R1168T
488.523	1.616	511250	WORD	n/a	wordpools/wordpool_EN.txt	CLAY	1	1	[0, 0, 0]	n/a	FR1	0	R1168T
490.139	0.784	512866	WORD_OFF	n/a	n/a	CLAY	1	1	[0, 0, 0]	n/a	FR1	0	R1168T
490.923	1.618	513650	WORD	n/a	wordpools/wordpool_EN.txt	CHIN	2	1	[0, 0, 0]	n/a	FR1	0	R1168T
492.541	0.8	515267	WORD_OFF	n/a	n/a	CHIN	2	1	[0, 0, 0]	n/a	FR1	0	R1168T
493.341	1.616	516067	WORD	n/a	wordpools/wordpool_EN.txt	CAKE	3	1	[0, 0, 0]	n/a	FR1	0	R1168T
494.957	0.983	517683	WORD_OFF	n/a	n/a	CAKE	3	1	[0, 0, 0]	n/a	FR1	0	R1168T
495.94	1.618	518666	WORD	n/a	wordpools/wordpool_EN.txt	MOOSE	4	1	[0, 0, 0]	n/a	FR1	0	R1168T
497.558	0.967	520284	WORD_OFF	n/a	n/a	MOOSE	4	1	[0, 0, 0]	n/a	FR1	0	R1168T
498.525	1.616	521251	WORD	n/a	wordpools/wordpool_EN.txt	STONE	5	1	[0, 0, 0]	n/a	FR1	0	R1168T
500.141	0.933	522867	WORD_OFF	n/a	n/a	STONE	5	1	[0, 0, 0]	n/a	FR1	0	R1168T
501.074	1.617	523800	WORD	n/a	wordpools/wordpool_EN.txt	SOUP	6	1	[0, 0, 0]	n/a	FR1	0	R1168T
502.691	0.852	525417	WORD_OFF	n/a	n/a	SOUP	6	1	[0, 0, 0]	n/a	FR1	0	R1168T
503.543	1.616	526269	WORD	n/a	wordpools/wordpool_EN.txt	GOAT	7	1	[0, 0, 0]	n/a	FR1	0	R1168T
505.159	1.017	527885	WORD_OFF	n/a	n/a	GOAT	7	1	[0, 0, 0]	n/a	FR1	0	R1168T
506.176	1.616	528902	WORD	n/a	wordpools/wordpool_EN.txt	STRAW	8	1	[0, 0, 0]	n/a	FR1	0	R1168T
507.792	0.967	530518	WORD_OFF	n/a	n/a	STRAW	8	1	[0, 0, 0]	n/a	FR1	0	R1168T
508.759	1.601	531485	WORD	n/a	wordpools/wordpool_EN.txt	CANE	9	1	[0, 0, 0]	n/a	FR1	0	R1168T
510.36	1.001	533085	WORD_OFF	n/a	n/a	CANE	9	1	[0, 0, 0]	n/a	FR1	0	R1168T
511.361	1.616	534086	WORD	n/a	wordpools/wordpool_EN.txt	SOAP	10	1	[0, 0, 0]	n/a	FR1	0	R1168T
512.977	0.95	535702	WORD_OFF	n/a	n/a	SOAP	10	1	[0, 0, 0]	n/a	FR1	0	R1168T
513.927	1.618	536652	WORD	n/a	wordpools/wordpool_EN.txt	PEACH	11	1	[0, 0, 0]	n/a	FR1	0	R1168T
515.545	0.866	538270	WORD_OFF	n/a	n/a	PEACH	11	1	[0, 0, 0]	n/a	FR1	0	R1168T
516.411	1.617	539136	WORD	n/a	wordpools/wordpool_EN.txt	SALT	12	1	[0, 0, 0]	n/a	FR1	0	R1168T
518.028	0.0	540753	WORD_OFF	n/a	n/a	SALT	12	1	[0, 0, 0]	n/a	FR1	0	R1168T
518.028	0.0	540753	DISTRACT_START	n/a	n/a	n/a	-999	1	[0, 0, 0]	n/a	FR1	0	R1168T
518.028	0.016	540753	START	n/a	n/a	n/a	-999	1	[-999, -999, -999]	n/a	FR1	0	R1168T
518.044	4.234	540769	PROB	4.234	n/a	n/a	-999	1	[7, 2, 4]	13	FR1	0	R1168T
522.278	5.601	545003	PROB	5.601	n/a	n/a	-999	1	[7, 6, 5]	18	FR1	0	R1168T
527.879	5.151	550603	PROB	5.151	n/a	n/a	-999	1	[1, 6, 8]	15	FR1	0	R1168T
533.03	12.815	555754	PROB	12.815	n/a	n/a	-999	1	[3, 6, 8]	17	FR1	0	R1168T
545.845	0.021	568568	STOP	n/a	n/a	n/a	-999	1	[-999, -999, -999]	n/a	FR1	0	R1168T
545.866	0.685	568589	DISTRACT_END	n/a	n/a	n/a	-999	1	[0, 0, 0]	n/a	FR1	0	R1168T
546.551	0.516	569274	RETRIEVAL_ORIENT	n/a	n/a	n/a	-999	1	[0, 0, 0]	n/a	FR1	0	R1168T
547.067	1.209	569790	REC_START	n/a	n/a	n/a	-999	1	[0, 0, 0]	n/a	FR1	0	R1168T
548.276	1.383	570999	REC_WORD	1.383	n/a	PLUS	-999	1	[0, 0, 0]	n/a	FR1	0	R1168T
549.659	1.25	572382	REC_WORD	1.25	n/a	MOOSE	4	1	[0, 0, 0]	n/a	FR1	0	R1168T
550.909	3.096	573632	REC_WORD	3.096	n/a	CLAY	1	1	[0, 0, 0]	n/a	FR1	0	R1168T
554.005	23.074	576728	REC_WORD	23.074	n/a	CAKE	3	1	[0, 0, 0]	n/a	FR1	0	R1168T
577.079	8.561	599801	REC_END	n/a	n/a	n/a	-999	1	[0, 0, 0]	n/a	FR1	0	R1168T
585.64	0.5	608361	TRIAL	n/a	n/a	n/a	-999	2	[0, 0, 0]	n/a	FR1	0	R1168T
586.14	10.428	608861	COUNTDOWN_START	n/a	n/a	n/a	-999	2	[0, 0, 0]	n/a	FR1	0	R1168T
596.568	0.008	619288	COUNTDOWN_END	n/a	n/a	n/a	-999	2	[0, 0, 0]	n/a	FR1	0	R1168T
596.576	1.616	619296	ORIENT	n/a	n/a	n/a	-999	2	[0, 0, 0]	n/a	FR1	0	R1168T
598.192	2.051	620912	ORIENT_OFF	n/a	n/a	n/a	-999	2	[0, 0, 0]	n/a	FR1	0	R1168T
600.243	1.617	622963	WORD	n/a	wordpools/wordpool_EN.txt	PLANT	1	2	[0, 0, 0]	n/a	FR1	0	R1168T
601.86	0.95	624580	WORD_OFF	n/a	n/a	PLANT	1	2	[0, 0, 0]	n/a	FR1	0	R1168T
602.81	1.618	625530	WORD	n/a	wordpools/wordpool_EN.txt	SLUSH	2	2	[0, 0, 0]	n/a	FR1	0	R1168T
604.428	0.766	627148	WORD_OFF	n/a	n/a	SLUSH	2	2	[0, 0, 0]	n/a	FR1	0	R1168T
605.194	1.616	627914	WORD	n/a	wordpools/wordpool_EN.txt	JAIL	3	2	[0, 0, 0]	n/a	FR1	0	R1168T
606.81	0.851	629530	WORD_OFF	n/a	n/a	JAIL	3	2	[0, 0, 0]	n/a	FR1	0	R1168T
607.661	1.617	630381	WORD	n/a	wordpools/wordpool_EN.txt	CORN	4	2	[0, 0, 0]	n/a	FR1	0	R1168T
609.278	0.883	631998	WORD_OFF	n/a	n/a	CORN	4	2	[0, 0, 0]	n/a	FR1	0	R1168T
610.161	1.617	632881	WORD	n/a	wordpools/wordpool_EN.txt	BAND	5	2	[0, 0, 0]	n/a	FR1	0	R1168T
611.778	1.0	634498	WORD_OFF	n/a	n/a	BAND	5	2	[0, 0, 0]	n/a	FR1	0	R1168T
612.778	1.618	635497	WORD	n/a	wordpools/wordpool_EN.txt	DOG	6	2	[0, 0, 0]	n/a	FR1	0	R1168T
614.396	0.95	637115	WORD_OFF	n/a	n/a	DOG	6	2	[0, 0, 0]	n/a	FR1	0	R1168T
615.346	1.616	638065	WORD	n/a	wordpools/wordpool_EN.txt	TRASH	7	2	[0, 0, 0]	n/a	FR1	0	R1168T
616.962	0.784	639681	WORD_OFF	n/a	n/a	TRASH	7	2	[0, 0, 0]	n/a	FR1	0	R1168T
617.746	1.601	640465	WORD	n/a	wordpools/wordpool_EN.txt	MAP	8	2	[0, 0, 0]	n/a	FR1	0	R1168T
619.347	0.883	642066	WORD_OFF	n/a	n/a	MAP	8	2	[0, 0, 0]	n/a	FR1	0	R1168T
620.23	1.616	642949	WORD	n/a	wordpools/wordpool_EN.txt	SKI	9	2	[0, 0, 0]	n/a	FR1	0	R1168T
621.846	0.967	644565	WORD_OFF	n/a	n/a	SKI	9	2	[0, 0, 0]	n/a	FR1	0	R1168T
622.813	1.618	645532	WORD	n/a	wordpools/wordpool_EN.txt	CAT	10	2	[0, 0, 0]	n/a	FR1	0	R1168T
624.431	0.799	647150	WORD_OFF	n/a	n/a	CAT	10	2	[0, 0, 0]	n/a	FR1	0	R1168T
625.23	1.617	647949	WORD	n/a	wordpools/wordpool_EN.txt	LAND	11	2	[0, 0, 0]	n/a	FR1	0	R1168T
626.847	0.785	649566	WORD_OFF	n/a	n/a	LAND	11	2	[0, 0, 0]	n/a	FR1	0	R1168T
627.632	1.616	650351	WORD	n/a	wordpools/wordpool_EN.txt	BREAD	12	2	[0, 0, 0]	n/a	FR1	0	R1168T
629.248	0.0	651966	WORD_OFF	n/a	n/a	BREAD	12	2	[0, 0, 0]	n/a	FR1	0	R1168T
629.248	0.0	651966	DISTRACT_START	n/a	n/a	n/a	-999	2	[0, 0, 0]	n/a	FR1	0	R1168T
629.248	0.017	651966	START	n/a	n/a	n/a	-999	2	[-999, -999, -999]	n/a	FR1	0	R1168T
629.265	8.901	651983	PROB	8.901	n/a	n/a	-999	2	[9, 2, 5]	16	FR1	0	R1168T
638.166	4.285	660884	PROB	4.285	n/a	n/a	-999	2	[2, 2, 7]	11	FR1	0	R1168T
642.451	6.962	665169	PROB	6.962	n/a	n/a	-999	2	[9, 3, 2]	14	FR1	0	R1168T
649.413	0.006	672130	STOP	n/a	n/a	n/a	-999	2	[-999, -999, -999]	n/a	FR1	0	R1168T
649.419	0.516	672136	DISTRACT_END	n/a	n/a	n/a	-999	2	[0, 0, 0]	n/a	FR1	0	R1168T
649.935	0.518	672652	RETRIEVAL_ORIENT	n/a	n/a	n/a	-999	2	[0, 0, 0]	n/a	FR1	0	R1168T
650.453	2.32	673170	REC_START	n/a	n/a	n/a	-999	2	[0, 0, 0]	n/a	FR1	0	R1168T
652.773	0.965	675490	REC_WORD	0.965	n/a	BREAD	12	2	[0, 0, 0]	n/a	FR1	0	R1168T
653.738	1.225	676455	REC_WORD	1.225	n/a	CAT	10	2	[0, 0, 0]	n/a	FR1	0	R1168T
654.963	25.502	677680	REC_WORD	25.502	n/a	PLUS	-999	2	[0, 0, 0]	n/a	FR1	0	R1168T
680.465	25.048	703181	REC_END	n/a	n/a	n/a	-999	2	[0, 0, 0]	n/a	FR1	0	R1168T
705.513	0.5	728227	TRIAL	n/a	n/a	n/a	-999	3	[0, 0, 0]	n/a	FR1	0	R1168T
706.013	10.428	728727	COUNTDOWN_START	n/a	n/a	n/a	-999	3	[0, 0, 0]	n/a	FR1	0	R1168T
716.441	0.007	739154	COUNTDOWN_END	n/a	n/a	n/a	-999	3	[0, 0, 0]	n/a	FR1	0	R1168T
716.448	1.616	739161	ORIENT	n/a	n/a	n/a	-999	3	[0, 0, 0]	n/a	FR1	0	R1168T
718.064	2.05	740777	ORIENT_OFF	n/a	n/a	n/a	-999	3	[0, 0, 0]	n/a	FR1	0	R1168T
720.114	1.617	742827	WORD	n/a	wordpools/wordpool_EN.txt	COIN	1	3	[0, 0, 0]	n/a	FR1	0	R1168T
721.731	0.984	744444	WORD_OFF	n/a	n/a	COIN	1	3	[0, 0, 0]	n/a	FR1	0	R1168T
722.715	1.618	745428	WORD	n/a	wordpools/wordpool_EN.txt	SHIRT	2	3	[0, 0, 0]	n/a	FR1	0	R1168T
724.333	0.949	747046	WORD_OFF	n/a	n/a	SHIRT	2	3	[0, 0, 0]	n/a	FR1	0	R1168T
725.282	1.617	747995	WORD	n/a	wordpools/wordpool_EN.txt	FLEA	3	3	[0, 0, 0]	n/a	FR1	0	R1168T
726.899	0.85	749612	WORD_OFF	n/a	n/a	FLEA	3	3	[0, 0, 0]	n/a	FR1	0	R1168T
727.749	1.618	750462	WORD	n/a	wordpools/wordpool_EN.txt	GLASS	4	3	[0, 0, 0]	n/a	FR1	0	R1168T
729.367	0.816	752080	WORD_OFF	n/a	n/a	GLASS	4	3	[0, 0, 0]	n/a	FR1	0	R1168T
730.183	1.617	752896	WORD	n/a	wordpools/wordpool_EN.txt	STORE	5	3	[0, 0, 0]	n/a	FR1	0	R1168T
731.8	0.801	754513	WORD_OFF	n/a	n/a	STORE	5	3	[0, 0, 0]	n/a	FR1	0	R1168T
732.601	1.616	755313	WORD	n/a	wordpools/wordpool_EN.txt	PURSE	6	3	[0, 0, 0]	n/a	FR1	0	R1168T
734.217	0.833	756929	WORD_OFF	n/a	n/a	PURSE	6	3	[0, 0, 0]	n/a	FR1	0	R1168T
735.05	1.617	757762	WORD	n/a	wordpools/wordpool_EN.txt	STREET	7	3	[0, 0, 0]	n/a	FR1	0	R1168T
736.667	0.768	759379	WORD_OFF	n/a	n/a	STREET	7	3	[0, 0, 0]	n/a	FR1	0	R1168T
737.435	1.616	760147	WORD	n/a	wordpools/wordpool_EN.txt	STEM	8	3	[0, 0, 0]	n/a	FR1	0	R1168T
739.051	0.767	761763	WORD_OFF	n/a	n/a	STEM	8	3	[0, 0, 0]	n/a	FR1	0	R1168T
739.818	1.618	762530	WORD	n/a	wordpools/wordpool_EN.txt	JAR	9	3	[0, 0, 0]	n/a	FR1	0	R1168T
741.436	0.9	764148	WORD_OFF	n/a	n/a	JAR	9	3	[0, 0, 0]	n/a	FR1	0	R1168T
742.336	1.616	765048	WORD	n/a	wordpools/wordpool_EN.txt	BEAK	10	3	[0, 0, 0]	n/a	FR1	0	R1168T
743.952	0.967	766664	WORD_OFF	n/a	n/a	BEAK	10	3	[0, 0, 0]	n/a	FR1	0	R1168T
744.919	1.618	767631	WORD	n/a	wordpools/wordpool_EN.txt	SEED	11	3	[0, 0, 0]	n/a	FR1	0	R1168T
746.537	0.983	769249	WORD_OFF	n/a	n/a	SEED	11	3	[0, 0, 0]	n/a	FR1	0	R1168T
747.52	1.616	770232	WORD	n/a	wordpools/wordpool_EN.txt	THUMB	12	3	[0, 0, 0]	n/a	FR1	0	R1168T
749.136	0.0	771847	WORD_OFF	n/a	n/a	THUMB	12	3	[0, 0, 0]	n/a	FR1	0	R1168T
749.136	0.001	771847	DISTRACT_START	n/a	n/a	n/a	-999	3	[0, 0, 0]	n/a	FR1	0	R1168T
749.137	0.016	771848	START	n/a	n/a	n/a	-999	3	[-999, -999, -999]	n/a	FR1	0	R1168T
749.153	12.652	771864	PROB	12.652	n/a	n/a	-999	3	[4, 9, 7]	20	FR1	0	R1168T
761.805	6.586	784516	PROB	6.586	n/a	n/a	-999	3	[2, 3, 7]	12	FR1	0	R1168T
768.391	4.614	791101	PROB	4.614	n/a	n/a	-999	3	[5, 3, 1]	9	FR1	0	R1168T
773.005	0.019	795715	STOP	n/a	n/a	n/a	-999	3	[-999, -999, -999]	n/a	FR1	0	R1168T
773.024	0.633	795734	DISTRACT_END	n/a	n/a	n/a	-999	3	[0, 0, 0]	n/a	FR1	0	R1168T
773.657	0.518	796367	RETRIEVAL_ORIENT	n/a	n/a	n/a	-999	3	[0, 0, 0]	n/a	FR1	0	R1168T
774.175	1.257	796885	REC_START	n/a	n/a	n/a	-999	3	[0, 0, 0]	n/a	FR1	0	R1168T
775.432	2.075	798142	REC_WORD	2.075	n/a	PLUS	-999	3	[0, 0, 0]	n/a	FR1	0	R1168T
777.507	2.455	800217	REC_WORD	2.455	n/a	STEM	8	3	[0, 0, 0]	n/a	FR1	0	R1168T
779.962	10.886	802672	REC_WORD	10.886	n/a	BEAK	10	3	[0, 0, 0]	n/a	FR1	0	R1168T
790.848	13.337	813557	REC_WORD	13.337	n/a	PURSE	6	3	[0, 0, 0]	n/a	FR1	0	R1168T
804.185	5.079	826893	REC_END	n/a	n/a	n/a	-999	3	[0, 0, 0]	n/a	FR1	0	R1168T
809.264	0.5	831972	TRIAL	n/a	n/a	n/a	-999	4	[0, 0, 0]	n/a	FR1	0	R1168T
809.764	10.428	832472	COUNTDOWN_START	n/a	n/a	n/a	-999	4	[0, 0, 0]	n/a	FR1	0	R1168T
820.192	0.007	842899	COUNTDOWN_END	n/a	n/a	n/a	-999	4	[0, 0, 0]	n/a	FR1	0	R1168T
820.199	1.617	842906	ORIENT	n/a	n/a	n/a	-999	4	[0, 0, 0]	n/a	FR1	0	R1168T
821.816	2.184	844523	ORIENT_OFF	n/a	n/a	n/a	-999	4	[0, 0, 0]	n/a	FR1	0	R1168T
824.0	1.618	846707	WORD	n/a	wordpools/wordpool_EN.txt	VEST	1	4	[0, 0, 0]	n/a	FR1	0	R1168T
825.618	0.85	848325	WORD_OFF	n/a	n/a	VEST	1	4	[0, 0, 0]	n/a	FR1	0	R1168T
826.468	1.616	849175	WORD	n/a	wordpools/wordpool_EN.txt	TREE	2	4	[0, 0, 0]	n/a	FR1	0	R1168T
828.084	0.95	850791	WORD_OFF	n/a	n/a	TREE	2	4	[0, 0, 0]	n/a	FR1	0	R1168T
829.034	1.617	851741	WORD	n/a	wordpools/wordpool_EN.txt	BRUSH	3	4	[0, 0, 0]	n/a	FR1	0	R1168T
830.651	0.901	853358	WORD_OFF	n/a	n/a	BRUSH	3	4	[0, 0, 0]	n/a	FR1	0	R1168T
831.552	1.616	854259	WORD	n/a	wordpools/wordpool_EN.txt	CHALK	4	4	[0, 0, 0]	n/a	FR1	0	R1168T
833.168	0.833	855875	WORD_OFF	n/a	n/a	CHALK	4	4	[0, 0, 0]	n/a	FR1	0	R1168T
834.001	1.619	856708	WORD	n/a	wordpools/wordpool_EN.txt	PEN	5	4	[0, 0, 0]	n/a	FR1	0	R1168T
835.62	1.016	858326	WORD_OFF	n/a	n/a	PEN	5	4	[0, 0, 0]	n/a	FR1	0	R1168T
836.636	1.616	859342	WORD	n/a	wordpools/wordpool_EN.txt	DRUM	6	4	[0, 0, 0]	n/a	FR1	0	R1168T
838.252	0.867	860958	WORD_OFF	n/a	n/a	DRUM	6	4	[0, 0, 0]	n/a	FR1	0	R1168T
839.119	1.617	861825	WORD	n/a	wordpools/wordpool_EN.txt	NOSE	7	4	[0, 0, 0]	n/a	FR1	0	R1168T
840.736	0.818	863442	WORD_OFF	n/a	n/a	NOSE	7	4	[0, 0, 0]	n/a	FR1	0	R1168T
841.554	1.616	864260	WORD	n/a	wordpools/wordpool_EN.txt	JEEP	8	4	[0, 0, 0]	n/a	FR1	0	R1168T
843.17	0.817	865876	WORD_OFF	n/a	n/a	JEEP	8	4	[0, 0, 0]	n/a	FR1	0	R1168T
843.987	1.601	866693	WORD	n/a	wordpools/wordpool_EN.txt	DOLL	9	4	[0, 0, 0]	n/a	FR1	0	R1168T
845.588	0.884	868294	WORD_OFF	n/a	n/a	DOLL	9	4	[0, 0, 0]	n/a	FR1	0	R1168T
846.472	1.616	869178	WORD	n/a	wordpools/wordpool_EN.txt	OAR	10	4	[0, 0, 0]	n/a	FR1	0	R1168T
848.088	0.866	870794	WORD_OFF	n/a	n/a	OAR	10	4	[0, 0, 0]	n/a	FR1	0	R1168T
848.954	1.602	871660	WORD	n/a	wordpools/wordpool_EN.txt	HOSE	11	4	[0, 0, 0]	n/a	FR1	0	R1168T
850.556	1.0	873262	WORD_OFF	n/a	n/a	HOSE	11	4	[0, 0, 0]	n/a	FR1	0	R1168T
851.556	1.616	874262	WORD	n/a	wordpools/wordpool_EN.txt	SLEEVE	12	4	[0, 0, 0]	n/a	FR1	0	R1168T
853.172	0.0	875877	WORD_OFF	n/a	n/a	SLEEVE	12	4	[0, 0, 0]	n/a	FR1	0	R1168T
853.172	0.0	875877	DISTRACT_START	n/a	n/a	n/a	-999	4	[0, 0, 0]	n/a	FR1	0	R1168T
853.172	0.016	875877	START	n/a	n/a	n/a	-999	4	[-999, -999, -999]	n/a	FR1	0	R1168T
853.188	5.735	875893	PROB	5.735	n/a	n/a	-999	4	[1, 5, 3]	9	FR1	0	R1168T
858.923	6.784	881628	PROB	6.784	n/a	n/a	-999	4	[2, 5, 9]	16	FR1	0	R1168T
865.707	10.915	888412	PROB	10.915	n/a	n/a	-999	4	[5, 7, 2]	14	FR1	0	R1168T
876.622	0.021	899326	STOP	n/a	n/a	n/a	-999	4	[-999, -999, -999]	n/a	FR1	0	R1168T
876.643	0.55	899347	DISTRACT_END	n/a	n/a	n/a	-999	4	[0, 0, 0]	n/a	FR1	0	R1168T
877.193	0.517	899897	RETRIEVAL_ORIENT	n/a	n/a	n/a	-999	4	[0, 0, 0]	n/a	FR1	0	R1168T
877.71	1.115	900414	REC_START	n/a	n/a	n/a	-999	4	[0, 0, 0]	n/a	FR1	0	R1168T
878.825	1.45	901529	REC_WORD	1.45	n/a	PLUS	-999	4	[0, 0, 0]	n/a	FR1	0	R1168T
880.275	1.081	902979	REC_WORD	1.081	n/a	JEEP	8	4	[0, 0, 0]	n/a	FR1	0	R1168T
881.356	15.15	904060	REC_WORD	15.15	n/a	OAR	10	4	[0, 0, 0]	n/a	FR1	0	R1168T
896.506	11.216	919209	REC_WORD	11.216	n/a	MOTION	-999	4	[0, 0, 0]	n/a	FR1	0	R1168T
907.722	5.16	930424	REC_END	n/a	n/a	n/a	-999	4	[0, 0, 0]	n/a	FR1	0	R1168T
912.882	0.5	935584	TRIAL	n/a	n/a	n/a	-999	5	[0, 0, 0]	n/a	FR1	0	R1168T
913.382	10.428	936084	COUNTDOWN_START	n/a	n/a	n/a	-999	5	[0, 0, 0]	n/a	FR1	0	R1168T
923.81	0.008	946511	COUNTDOWN_END	n/a	n/a	n/a	-999	5	[0, 0, 0]	n/a	FR1	0	R1168T
923.818	1.618	946519	ORIENT	n/a	n/a	n/a	-999	5	[0, 0, 0]	n/a	FR1	0	R1168T
925.436	1.816	948137	ORIENT_OFF	n/a	n/a	n/a	-999	5	[0, 0, 0]	n/a	FR1	0	R1168T
927.252	1.617	949953	WORD	n/a	wordpools/wordpool_EN.txt	FARM	1	5	[0, 0, 0]	n/a	FR1	0	R1168T
928.869	0.883	951570	WORD_OFF	n/a	n/a	FARM	1	5	[0, 0, 0]	n/a	FR1	0	R1168T
929.752	1.618	952453	WORD	n/a	wordpools/wordpool_EN.txt	MAT	2	5	[0, 0, 0]	n/a	FR1	0	R1168T
931.37	0.8	954071	WORD_OFF	n/a	n/a	MAT	2	5	[0, 0, 0]	n/a	FR1	0	R1168T
932.17	1.617	954871	WORD	n/a	wordpools/wordpool_EN.txt	CAGE	3	5	[0, 0, 0]	n/a	FR1	0	R1168T
933.787	0.966	956488	WORD_OFF	n/a	n/a	CAGE	3	5	[0, 0, 0]	n/a	FR1	0	R1168T
934.753	1.618	957454	WORD	n/a	wordpools/wordpool_EN.txt	GRAPE	4	5	[0, 0, 0]	n/a	FR1	0	R1168T
936.371	0.866	959072	WORD_OFF	n/a	n/a	GRAPE	4	5	[0, 0, 0]	n/a	FR1	0	R1168T
937.237	1.617	959937	WORD	n/a	wordpools/wordpool_EN.txt	SLIME	5	5	[0, 0, 0]	n/a	FR1	0	R1168T
938.854	0.967	961554	WORD_OFF	n/a	n/a	SLIME	5	5	[0, 0, 0]	n/a	FR1	0	R1168T
939.821	1.618	962521	WORD	n/a	wordpools/wordpool_EN.txt	FORT	6	5	[0, 0, 0]	n/a	FR1	0	R1168T
941.439	0.95	964139	WORD_OFF	n/a	n/a	FORT	6	5	[0, 0, 0]	n/a	FR1	0	R1168T
942.389	1.616	965089	WORD	n/a	wordpools/wordpool_EN.txt	ROAD	7	5	[0, 0, 0]	n/a	FR1	0	R1168T
944.005	0.984	966705	WORD_OFF	n/a	n/a	ROAD	7	5	[0, 0, 0]	n/a	FR1	0	R1168T
944.989	1.618	967689	WORD	n/a	wordpools/wordpool_EN.txt	OWL	8	5	[0, 0, 0]	n/a	FR1	0	R1168T
946.607	0.933	969307	WORD_OFF	n/a	n/a	OWL	8	5	[0, 0, 0]	n/a	FR1	0	R1168T
947.54	1.616	970240	WORD	n/a	wordpools/wordpool_EN.txt	CART	9	5	[0, 0, 0]	n/a	FR1	0	R1168T
949.156	0.933	971856	WORD_OFF	n/a	n/a	CART	9	5	[0, 0, 0]	n/a	FR1	0	R1168T
950.089	1.617	972789	WORD	n/a	wordpools/wordpool_EN.txt	CROW	10	5	[0, 0, 0]	n/a	FR1	0	R1168T
951.706	0.967	974406	WORD_OFF	n/a	n/a	CROW	10	5	[0, 0, 0]	n/a	FR1	0	R1168T
952.673	1.617	975373	WORD	n/a	wordpools/wordpool_EN.txt	DOCK	11	5	[0, 0, 0]	n/a	FR1	0	R1168T
954.29	1.018	976989	WORD_OFF	n/a	n/a	DOCK	11	5	[0, 0, 0]	n/a	FR1	0	R1168T
955.308	1.616	978007	WORD	n/a	wordpools/wordpool_EN.txt	LEG	12	5	[0, 0, 0]	n/a	FR1	0	R1168T
956.924	0.0	979623	WORD_OFF	n/a	n/a	LEG	12	5	[0, 0, 0]	n/a	FR1	0	R1168T
956.924	0.001	979623	DISTRACT_START	n/a	n/a	n/a	-999	5	[0, 0, 0]	n/a	FR1	0	R1168T
956.925	0.016	979624	START	n/a	n/a	n/a	-999	5	[-999, -999, -999]	n/a	FR1	0	R1168T
956.941	9.135	979640	PROB	9.135	n/a	n/a	-999	5	[2, 1, 5]	8	FR1	0	R1168T
966.076	3.301	988775	PROB	3.301	n/a	n/a	-999	5	[4, 2, 2]	8	FR1	0	R1168T
969.377	5.684	992076	PROB	5.684	n/a	n/a	-999	5	[2, 5, 7]	14	FR1	0	R1168T
975.061	5.368	997759	PROB	5.368	n/a	n/a	-999	5	[8, 9, 3]	20	FR1	0	R1168T
980.429	0.017	1003127	STOP	n/a	n/a	n/a	-999	5	[-999, -999, -999]	n/a	FR1	0	R1168T
980.446	0.699	1003144	DISTRACT_END	n/a	n/a	n/a	-999	5	[0, 0, 0]	n/a	FR1	0	R1168T
981.145	0.517	1003843	RETRIEVAL_ORIENT	n/a	n/a	n/a	-999	5	[0, 0, 0]	n/a	FR1	0	R1168T
981.662	0.933	1004360	REC_START	n/a	n/a	n/a	-999	5	[0, 0, 0]	n/a	FR1	0	R1168T
982.595	1.16	1005293	REC_WORD	1.16	n/a	CAGE	3	5	[0, 0, 0]	n/a	FR1	0	R1168T
983.755	1.335	1006453	REC_WORD	1.335	n/a	FORT	6	5	[0, 0, 0]	n/a	FR1	0	R1168T
985.09	26.584	1007788	REC_WORD	26.584	n/a	PLUS	-999	5	[0, 0, 0]	n/a	FR1	0	R1168T
1011.674	16.363	1034370	REC_END	n/a	n/a	n/a	-999	5	[0, 0, 0]	n/a	FR1	0	R1168T
1028.037	0.5	1050732	TRIAL	n/a	n/a	n/a	-999	6	[0, 0, 0]	n/a	FR1	0	R1168T
1028.537	10.428	1051232	COUNTDOWN_START	n/a	n/a	n/a	-999	6	[0, 0, 0]	n/a	FR1	0	R1168T
1038.965	0.007	1061660	COUNTDOWN_END	n/a	n/a	n/a	-999	6	[0, 0, 0]	n/a	FR1	0	R1168T
1038.972	1.618	1061667	ORIENT	n/a	n/a	n/a	-999	6	[0, 0, 0]	n/a	FR1	0	R1168T
1040.59	2.15	1063284	ORIENT_OFF	n/a	n/a	n/a	-999	6	[0, 0, 0]	n/a	FR1	0	R1168T
1042.74	1.618	1065434	WORD	n/a	wordpools/wordpool_EN.txt	LAMB	1	6	[0, 0, 0]	n/a	FR1	0	R1168T
1044.358	0.932	1067052	WORD_OFF	n/a	n/a	LAMB	1	6	[0, 0, 0]	n/a	FR1	0	R1168T
1045.29	1.617	1067984	WORD	n/a	wordpools/wordpool_EN.txt	BEAR	2	6	[0, 0, 0]	n/a	FR1	0	R1168T
1046.907	0.867	1069601	WORD_OFF	n/a	n/a	BEAR	2	6	[0, 0, 0]	n/a	FR1	0	R1168T
1047.774	1.618	1070468	WORD	n/a	wordpools/wordpool_EN.txt	MOUSE	3	6	[0, 0, 0]	n/a	FR1	0	R1168T
1049.392	0.832	1072086	WORD_OFF	n/a	n/a	MOUSE	3	6	[0, 0, 0]	n/a	FR1	0	R1168T
1050.224	1.617	1072918	WORD	n/a	wordpools/wordpool_EN.txt	WOLF	4	6	[0, 0, 0]	n/a	FR1	0	R1168T
1051.841	0.95	1074535	WORD_OFF	n/a	n/a	WOLF	4	6	[0, 0, 0]	n/a	FR1	0	R1168T
1052.791	1.618	1075485	WORD	n/a	wordpools/wordpool_EN.txt	BIRD	5	6	[0, 0, 0]	n/a	FR1	0	R1168T
1054.409	0.95	1077103	WORD_OFF	n/a	n/a	BIRD	5	6	[0, 0, 0]	n/a	FR1	0	R1168T
1055.359	1.617	1078053	WORD	n/a	wordpools/wordpool_EN.txt	FOX	6	6	[0, 0, 0]	n/a	FR1	0	R1168T
1056.976	0.766	1079669	WORD_OFF	n/a	n/a	FOX	6	6	[0, 0, 0]	n/a	FR1	0	R1168T
1057.742	1.618	1080435	WORD	n/a	wordpools/wordpool_EN.txt	HEN	7	6	[0, 0, 0]	n/a	FR1	0	R1168T
1059.36	1.0	1082053	WORD_OFF	n/a	n/a	HEN	7	6	[0, 0, 0]	n/a	FR1	0	R1168T
1060.36	1.616	1083053	WORD	n/a	wordpools/wordpool_EN.txt	KITE	8	6	[0, 0, 0]	n/a	FR1	0	R1168T
1061.976	0.984	1084669	WORD_OFF	n/a	n/a	KITE	8	6	[0, 0, 0]	n/a	FR1	0	R1168T
1062.96	1.601	1085653	WORD	n/a	wordpools/wordpool_EN.txt	BEAN	9	6	[0, 0, 0]	n/a	FR1	0	R1168T
1064.561	0.934	1087254	WORD_OFF	n/a	n/a	BEAN	9	6	[0, 0, 0]	n/a	FR1	0	R1168T
1065.495	1.616	1088188	WORD	n/a	wordpools/wordpool_EN.txt	BOY	10	6	[0, 0, 0]	n/a	FR1	0	R1168T
1067.111	0.817	1089804	WORD_OFF	n/a	n/a	BOY	10	6	[0, 0, 0]	n/a	FR1	0	R1168T
1067.928	1.618	1090621	WORD	n/a	wordpools/wordpool_EN.txt	SKUNK	11	6	[0, 0, 0]	n/a	FR1	0	R1168T
1069.546	0.9	1092239	WORD_OFF	n/a	n/a	SKUNK	11	6	[0, 0, 0]	n/a	FR1	0	R1168T
1070.446	1.616	1093139	WORD	n/a	wordpools/wordpool_EN.txt	TAIL	12	6	[0, 0, 0]	n/a	FR1	0	R1168T
1072.062	0.0	1094755	WORD_OFF	n/a	n/a	TAIL	12	6	[0, 0, 0]	n/a	FR1	0	R1168T
1072.062	0.0	1094755	DISTRACT_START	n/a	n/a	n/a	-999	6	[0, 0, 0]	n/a	FR1	0	R1168T
1072.062	0.016	1094755	START	n/a	n/a	n/a	-999	6	[-999, -999, -999]	n/a	FR1	0	R1168T
1072.078	9.835	1094771	PROB	9.835	n/a	n/a	-999	6	[5, 2, 1]	8	FR1	0	R1168T
1081.913	4.702	1104605	PROB	4.702	n/a	n/a	-999	6	[1, 5, 4]	10	FR1	0	R1168T
1086.615	5.033	1109307	PROB	5.033	n/a	n/a	-999	6	[1, 9, 6]	16	FR1	0	R1168T
1091.648	8.782	1114339	PROB	8.782	n/a	n/a	-999	6	[4, 9, 9]	22	FR1	0	R1168T
1100.43	0.021	1123121	STOP	n/a	n/a	n/a	-999	6	[-999, -999, -999]	n/a	FR1	0	R1168T
1100.451	0.516	1123142	DISTRACT_END	n/a	n/a	n/a	-999	6	[0, 0, 0]	n/a	FR1	0	R1168T
1100.967	0.518	1123658	RETRIEVAL_ORIENT	n/a	n/a	n/a	-999	6	[0, 0, 0]	n/a	FR1	0	R1168T
1101.485	1.799	1124176	REC_START	n/a	n/a	n/a	-999	6	[0, 0, 0]	n/a	FR1	0	R1168T
1103.284	1.03	1125975	REC_WORD	1.03	n/a	LAMB	1	6	[0, 0, 0]	n/a	FR1	0	R1168T
1104.314	1.09	1127005	REC_WORD	1.09	n/a	BEAR	2	6	[0, 0, 0]	n/a	FR1	0	R1168T
1105.404	0.99	1128095	REC_WORD	0.99	n/a	MOUSE	3	6	[0, 0, 0]	n/a	FR1	0	R1168T
1106.394	1.41	1129085	REC_WORD	1.41	n/a	WOLF	4	6	[0, 0, 0]	n/a	FR1	0	R1168T
1107.804	1.209	1130495	REC_WORD	1.209	n/a	BIRD	5	6	[0, 0, 0]	n/a	FR1	0	R1168T
1109.013	22.484	1131703	REC_WORD	22.484	n/a	PLUS	-999	6	[0, 0, 0]	n/a	FR1	0	R1168T
1131.497	5.111	1154186	REC_END	n/a	n/a	n/a	-999	6	[0, 0, 0]	n/a	FR1	0	R1168T
1136.608	0.5	1159297	TRIAL	n/a	n/a	n/a	-999	7	[0, 0, 0]	n/a	FR1	0	R1168T
1137.108	10.428	1159797	COUNTDOWN_START	n/a	n/a	n/a	-999	7	[0, 0, 0]	n/a	FR1	0	R1168T
1147.536	0.007	1170224	COUNTDOWN_END	n/a	n/a	n/a	-999	7	[0, 0, 0]	n/a	FR1	0	R1168T
1147.543	1.616	1170231	ORIENT	n/a	n/a	n/a	-999	7	[0, 0, 0]	n/a	FR1	0	R1168T
1149.159	2.201	1171847	ORIENT_OFF	n/a	n/a	n/a	-999	7	[0, 0, 0]	n/a	FR1	0	R1168T
1151.36	1.616	1174048	WORD	n/a	wordpools/wordpool_EN.txt	PIN	1	7	[0, 0, 0]	n/a	FR1	0	R1168T
1152.976	0.817	1175664	WORD_OFF	n/a	n/a	PIN	1	7	[0, 0, 0]	n/a	FR1	0	R1168T
1153.793	1.618	1176481	WORD	n/a	wordpools/wordpool_EN.txt	VAN	2	7	[0, 0, 0]	n/a	FR1	0	R1168T
1155.411	0.984	1178099	WORD_OFF	n/a	n/a	VAN	2	7	[0, 0, 0]	n/a	FR1	0	R1168T
1156.395	1.616	1179083	WORD	n/a	wordpools/wordpool_EN.txt	PIPE	3	7	[0, 0, 0]	n/a	FR1	0	R1168T
1158.011	1.0	1180699	WORD_OFF	n/a	n/a	PIPE	3	7	[0, 0, 0]	n/a	FR1	0	R1168T
1159.011	1.618	1181699	WORD	n/a	wordpools/wordpool_EN.txt	APE	4	7	[0, 0, 0]	n/a	FR1	0	R1168T
1160.629	0.8	1183316	WORD_OFF	n/a	n/a	APE	4	7	[0, 0, 0]	n/a	FR1	0	R1168T
1161.429	1.616	1184116	WORD	n/a	wordpools/wordpool_EN.txt	BATH	5	7	[0, 0, 0]	n/a	FR1	0	R1168T
1163.045	0.983	1185732	WORD_OFF	n/a	n/a	BATH	5	7	[0, 0, 0]	n/a	FR1	0	R1168T
1164.028	1.601	1186715	WORD	n/a	wordpools/wordpool_EN.txt	SQUARE	6	7	[0, 0, 0]	n/a	FR1	0	R1168T
1165.629	0.801	1188316	WORD_OFF	n/a	n/a	SQUARE	6	7	[0, 0, 0]	n/a	FR1	0	R1168T
1166.43	1.616	1189117	WORD	n/a	wordpools/wordpool_EN.txt	STOVE	7	7	[0, 0, 0]	n/a	FR1	0	R1168T
1168.046	0.983	1190733	WORD_OFF	n/a	n/a	STOVE	7	7	[0, 0, 0]	n/a	FR1	0	R1168T
1169.029	1.601	1191716	WORD	n/a	wordpools/wordpool_EN.txt	BOX	8	7	[0, 0, 0]	n/a	FR1	0	R1168T
1170.63	0.934	1193317	WORD_OFF	n/a	n/a	BOX	8	7	[0, 0, 0]	n/a	FR1	0	R1168T
1171.564	1.616	1194251	WORD	n/a	wordpools/wordpool_EN.txt	CUP	9	7	[0, 0, 0]	n/a	FR1	0	R1168T
1173.18	0.916	1195867	WORD_OFF	n/a	n/a	CUP	9	7	[0, 0, 0]	n/a	FR1	0	R1168T
1174.096	1.618	1196783	WORD	n/a	wordpools/wordpool_EN.txt	SEAT	10	7	[0, 0, 0]	n/a	FR1	0	R1168T
1175.714	0.834	1198401	WORD_OFF	n/a	n/a	SEAT	10	7	[0, 0, 0]	n/a	FR1	0	R1168T
1176.548	1.616	1199235	WORD	n/a	wordpools/wordpool_EN.txt	BALL	11	7	[0, 0, 0]	n/a	FR1	0	R1168T
1178.164	0.834	1200850	WORD_OFF	n/a	n/a	BALL	11	7	[0, 0, 0]	n/a	FR1	0	R1168T
1178.998	1.618	1201684	WORD	n/a	wordpools/wordpool_EN.txt	SIGN	12	7	[0, 0, 0]	n/a	FR1	0	R1168T
1180.616	0.0	1203302	WORD_OFF	n/a	n/a	SIGN	12	7	[0, 0, 0]	n/a	FR1	0	R1168T
1180.616	0.0	1203302	DISTRACT_START	n/a	n/a	n/a	-999	7	[0, 0, 0]	n/a	FR1	0	R1168T
1180.616	0.016	1203302	START	n/a	n/a	n/a	-999	7	[-999, -999, -999]	n/a	FR1	0	R1168T
1180.632	8.484	1203318	PROB	8.484	n/a	n/a	-999	7	[3, 6, 4]	13	FR1	0	R1168T
1189.116	9.852	1211802	PROB	9.852	n/a	n/a	-999	7	[3, 6, 4]	13	FR1	0	R1168T
1198.968	4.893	1221653	PROB	4.893	n/a	n/a	-999	7	[1, 8, 2]	11	FR1	0	R1168T
1203.861	0.008	1226546	STOP	n/a	n/a	n/a	-999	7	[-999, -999, -999]	n/a	FR1	0	R1168T
1203.869	0.601	1226554	DISTRACT_END	n/a	n/a	n/a	-999	7	[0, 0, 0]	n/a	FR1	0	R1168T
1204.47	0.516	1227155	RETRIEVAL_ORIENT	n/a	n/a	n/a	-999	7	[0, 0, 0]	n/a	FR1	0	R1168T
1204.986	2.166	1227671	REC_START	n/a	n/a	n/a	-999	7	[0, 0, 0]	n/a	FR1	0	R1168T
1207.152	0.885	1229837	REC_WORD	0.885	n/a	PEN	-999	7	[0, 0, 0]	n/a	FR1	0	R1168T
1208.037	1.219	1230722	REC_WORD	1.219	n/a	VAN	2	7	[0, 0, 0]	n/a	FR1	0	R1168T
1209.256	1.765	1231941	REC_WORD	1.765	n/a	PIPE	3	7	[0, 0, 0]	n/a	FR1	0	R1168T
1211.021	2.085	1233705	REC_WORD	2.085	n/a	CUP	9	7	[0, 0, 0]	n/a	FR1	0	R1168T
1213.106	1.785	1235790	REC_WORD	1.785	n/a	BALL	11	7	[0, 0, 0]	n/a	FR1	0	R1168T
1214.891	1.757	1237575	REC_WORD	1.757	n/a	SEAT	10	7	[0, 0, 0]	n/a	FR1	0	R1168T
1216.648	18.352	1239332	REC_WORD	18.352	n/a	PLUS	-999	7	[0, 0, 0]	n/a	FR1	0	R1168T
1235.0	6.543	1257683	REC_END	n/a	n/a	n/a	-999	7	[0, 0, 0]	n/a	FR1	0	R1168T
1241.543	0.5	1264226	TRIAL	n/a	n/a	n/a	-999	8	[0, 0, 0]	n/a	FR1	0	R1168T
1242.043	10.428	1264726	COUNTDOWN_START	n/a	n/a	n/a	-999	8	[0, 0, 0]	n/a	FR1	0	R1168T
1252.471	0.008	1275153	COUNTDOWN_END	n/a	n/a	n/a	-999	8	[0, 0, 0]	n/a	FR1	0	R1168T
1252.479	1.616	1275161	ORIENT	n/a	n/a	n/a	-999	8	[0, 0, 0]	n/a	FR1	0	R1168T
1254.095	1.867	1276777	ORIENT_OFF	n/a	n/a	n/a	-999	8	[0, 0, 0]	n/a	FR1	0	R1168T
1255.962	1.618	1278644	WORD	n/a	wordpools/wordpool_EN.txt	CLOWN	1	8	[0, 0, 0]	n/a	FR1	0	R1168T
1257.58	0.966	1280262	WORD_OFF	n/a	n/a	CLOWN	1	8	[0, 0, 0]	n/a	FR1	0	R1168T
1258.546	1.616	1281228	WORD	n/a	wordpools/wordpool_EN.txt	DUCK	2	8	[0, 0, 0]	n/a	FR1	0	R1168T
1260.162	1.001	1282844	WORD_OFF	n/a	n/a	DUCK	2	8	[0, 0, 0]	n/a	FR1	0	R1168T
1261.163	1.617	1283845	WORD	n/a	wordpools/wordpool_EN.txt	TOY	3	8	[0, 0, 0]	n/a	FR1	0	R1168T
1262.78	0.851	1285461	WORD_OFF	n/a	n/a	TOY	3	8	[0, 0, 0]	n/a	FR1	0	R1168T
1263.631	1.616	1286312	WORD	n/a	wordpools/wordpool_EN.txt	HAWK	4	8	[0, 0, 0]	n/a	FR1	0	R1168T
1265.247	0.883	1287928	WORD_OFF	n/a	n/a	HAWK	4	8	[0, 0, 0]	n/a	FR1	0	R1168T
1266.13	1.617	1288811	WORD	n/a	wordpools/wordpool_EN.txt	TOOTH	5	8	[0, 0, 0]	n/a	FR1	0	R1168T
1267.747	0.818	1290428	WORD_OFF	n/a	n/a	TOOTH	5	8	[0, 0, 0]	n/a	FR1	0	R1168T
1268.565	1.616	1291246	WORD	n/a	wordpools/wordpool_EN.txt	GLOVE	6	8	[0, 0, 0]	n/a	FR1	0	R1168T
1270.181	0.8	1292862	WORD_OFF	n/a	n/a	GLOVE	6	8	[0, 0, 0]	n/a	FR1	0	R1168T
1270.981	1.618	1293662	WORD	n/a	wordpools/wordpool_EN.txt	ROPE	7	8	[0, 0, 0]	n/a	FR1	0	R1168T
1272.599	0.9	1295280	WORD_OFF	n/a	n/a	ROPE	7	8	[0, 0, 0]	n/a	FR1	0	R1168T
1273.499	1.616	1296180	WORD	n/a	wordpools/wordpool_EN.txt	SMILE	8	8	[0, 0, 0]	n/a	FR1	0	R1168T
1275.115	0.884	1297796	WORD_OFF	n/a	n/a	SMILE	8	8	[0, 0, 0]	n/a	FR1	0	R1168T
1275.999	1.618	1298680	WORD	n/a	wordpools/wordpool_EN.txt	DOOR	9	8	[0, 0, 0]	n/a	FR1	0	R1168T
1277.617	1.0	1300298	WORD_OFF	n/a	n/a	DOOR	9	8	[0, 0, 0]	n/a	FR1	0	R1168T
1278.617	1.616	1301298	WORD	n/a	wordpools/wordpool_EN.txt	BADGE	10	8	[0, 0, 0]	n/a	FR1	0	R1168T
1280.233	0.867	1302913	WORD_OFF	n/a	n/a	BADGE	10	8	[0, 0, 0]	n/a	FR1	0	R1168T
1281.1	1.616	1303780	WORD	n/a	wordpools/wordpool_EN.txt	DESK	11	8	[0, 0, 0]	n/a	FR1	0	R1168T
1282.716	0.768	1305396	WORD_OFF	n/a	n/a	DESK	11	8	[0, 0, 0]	n/a	FR1	0	R1168T
1283.484	1.616	1306164	WORD	n/a	wordpools/wordpool_EN.txt	PASTE	12	8	[0, 0, 0]	n/a	FR1	0	R1168T
1285.1	0.0	1307780	WORD_OFF	n/a	n/a	PASTE	12	8	[0, 0, 0]	n/a	FR1	0	R1168T
1285.1	0.001	1307780	DISTRACT_START	n/a	n/a	n/a	-999	8	[0, 0, 0]	n/a	FR1	0	R1168T
1285.101	0.016	1307781	START	n/a	n/a	n/a	-999	8	[-999, -999, -999]	n/a	FR1	0	R1168T
1285.117	11.152	1307797	PROB	11.152	n/a	n/a	-999	8	[5, 1, 4]	10	FR1	0	R1168T
1296.269	4.951	1318949	PROB	4.951	n/a	n/a	-999	8	[2, 2, 3]	7	FR1	0	R1168T
1301.22	4.961	1323899	PROB	4.961	n/a	n/a	-999	8	[2, 1, 1]	4	FR1	0	R1168T
1306.181	0.006	1328860	STOP	n/a	n/a	n/a	-999	8	[-999, -999, -999]	n/a	FR1	0	R1168T
1306.187	0.551	1328866	DISTRACT_END	n/a	n/a	n/a	-999	8	[0, 0, 0]	n/a	FR1	0	R1168T
1306.738	0.517	1329417	RETRIEVAL_ORIENT	n/a	n/a	n/a	-999	8	[0, 0, 0]	n/a	FR1	0	R1168T
1307.255	2.347	1329934	REC_START	n/a	n/a	n/a	-999	8	[0, 0, 0]	n/a	FR1	0	R1168T
1309.602	1.02	1332281	REC_WORD	1.02	n/a	CLOWN	1	8	[0, 0, 0]	n/a	FR1	0	R1168T
1310.622	1.185	1333301	REC_WORD	1.185	n/a	TOY	3	8	[0, 0, 0]	n/a	FR1	0	R1168T
1311.807	1.28	1334486	REC_WORD	1.28	n/a	BADGE	10	8	[0, 0, 0]	n/a	FR1	0	R1168T
1313.087	1.556	1335766	REC_WORD	1.556	n/a	SMILE	8	8	[0, 0, 0]	n/a	FR1	0	R1168T
1314.643	3.4	1337321	REC_WORD	3.4	n/a	DOOR	9	8	[0, 0, 0]	n/a	FR1	0	R1168T
1318.043	11.825	1340721	REC_WORD	11.825	n/a	PLUS	-999	8	[0, 0, 0]	n/a	FR1	0	R1168T
1329.868	7.399	1352546	REC_WORD	7.399	n/a	DESK	11	8	[0, 0, 0]	n/a	FR1	0	R1168T
1337.267	8.162	1359944	REC_END	n/a	n/a	n/a	-999	8	[0, 0, 0]	n/a	FR1	0	R1168T
1345.429	0.5	1368106	TRIAL	n/a	n/a	n/a	-999	9	[0, 0, 0]	n/a	FR1	0	R1168T
1345.929	10.428	1368606	COUNTDOWN_START	n/a	n/a	n/a	-999	9	[0, 0, 0]	n/a	FR1	0	R1168T
1356.357	0.007	1379033	COUNTDOWN_END	n/a	n/a	n/a	-999	9	[0, 0, 0]	n/a	FR1	0	R1168T
1356.364	1.616	1379040	ORIENT	n/a	n/a	n/a	-999	9	[0, 0, 0]	n/a	FR1	0	R1168T
1357.98	2.117	1380656	ORIENT_OFF	n/a	n/a	n/a	-999	9	[0, 0, 0]	n/a	FR1	0	R1168T
1360.097	1.617	1382773	WORD	n/a	wordpools/wordpool_EN.txt	STORM	1	9	[0, 0, 0]	n/a	FR1	0	R1168T
1361.714	0.818	1384390	WORD_OFF	n/a	n/a	STORM	1	9	[0, 0, 0]	n/a	FR1	0	R1168T
1362.532	1.616	1385208	WORD	n/a	wordpools/wordpool_EN.txt	GRASS	2	9	[0, 0, 0]	n/a	FR1	0	R1168T
1364.148	0.817	1386824	WORD_OFF	n/a	n/a	GRASS	2	9	[0, 0, 0]	n/a	FR1	0	R1168T
1364.965	1.618	1387640	WORD	n/a	wordpools/wordpool_EN.txt	HOUSE	3	9	[0, 0, 0]	n/a	FR1	0	R1168T
1366.583	1.0	1389258	WORD_OFF	n/a	n/a	HOUSE	3	9	[0, 0, 0]	n/a	FR1	0	R1168T
1367.583	1.616	1390258	WORD	n/a	wordpools/wordpool_EN.txt	CLIFF	4	9	[0, 0, 0]	n/a	FR1	0	R1168T
1369.199	1.0	1391874	WORD_OFF	n/a	n/a	CLIFF	4	9	[0, 0, 0]	n/a	FR1	0	R1168T
1370.199	1.617	1392874	WORD	n/a	wordpools/wordpool_EN.txt	CRANE	5	9	[0, 0, 0]	n/a	FR1	0	R1168T
1371.816	0.9	1394491	WORD_OFF	n/a	n/a	CRANE	5	9	[0, 0, 0]	n/a	FR1	0	R1168T
1372.716	1.601	1395391	WORD	n/a	wordpools/wordpool_EN.txt	DITCH	6	9	[0, 0, 0]	n/a	FR1	0	R1168T
1374.317	0.883	1396992	WORD_OFF	n/a	n/a	DITCH	6	9	[0, 0, 0]	n/a	FR1	0	R1168T
1375.2	1.617	1397875	WORD	n/a	wordpools/wordpool_EN.txt	SHARK	7	9	[0, 0, 0]	n/a	FR1	0	R1168T
1376.817	1.0	1399492	WORD_OFF	n/a	n/a	SHARK	7	9	[0, 0, 0]	n/a	FR1	0	R1168T
1377.817	1.618	1400492	WORD	n/a	wordpools/wordpool_EN.txt	LAWN	8	9	[0, 0, 0]	n/a	FR1	0	R1168T
1379.435	0.866	1402110	WORD_OFF	n/a	n/a	LAWN	8	9	[0, 0, 0]	n/a	FR1	0	R1168T
1380.301	1.617	1402976	WORD	n/a	wordpools/wordpool_EN.txt	SHIP	9	9	[0, 0, 0]	n/a	FR1	0	R1168T
1381.918	0.783	1404593	WORD_OFF	n/a	n/a	SHIP	9	9	[0, 0, 0]	n/a	FR1	0	R1168T
1382.701	1.618	1405375	WORD	n/a	wordpools/wordpool_EN.txt	RAKE	10	9	[0, 0, 0]	n/a	FR1	0	R1168T
1384.319	0.783	1406993	WORD_OFF	n/a	n/a	RAKE	10	9	[0, 0, 0]	n/a	FR1	0	R1168T
1385.102	1.617	1407776	WORD	n/a	wordpools/wordpool_EN.txt	MULE	11	9	[0, 0, 0]	n/a	FR1	0	R1168T
1386.719	0.983	1409393	WORD_OFF	n/a	n/a	MULE	11	9	[0, 0, 0]	n/a	FR1	0	R1168T
1387.702	1.618	1410376	WORD	n/a	wordpools/wordpool_EN.txt	CAPE	12	9	[0, 0, 0]	n/a	FR1	0	R1168T
1389.32	0.0	1411994	WORD_OFF	n/a	n/a	CAPE	12	9	[0, 0, 0]	n/a	FR1	0	R1168T
1389.32	0.001	1411994	DISTRACT_START	n/a	n/a	n/a	-999	9	[0, 0, 0]	n/a	FR1	0	R1168T
1389.321	0.016	1411995	START	n/a	n/a	n/a	-999	9	[-999, -999, -999]	n/a	FR1	0	R1168T
1389.337	8.101	1412011	PROB	8.101	n/a	n/a	-999	9	[3, 9, 7]	19	FR1	0	R1168T
1397.438	4.35	1420112	PROB	4.35	n/a	n/a	-999	9	[9, 4, 2]	15	FR1	0	R1168T
1401.788	3.968	1424461	PROB	3.968	n/a	n/a	-999	9	[9, 8, 3]	20	FR1	0	R1168T
1405.756	4.746	1428429	PROB	4.746	n/a	n/a	-999	9	[2, 6, 2]	10	FR1	0	R1168T
1410.502	0.005	1433175	STOP	n/a	n/a	n/a	-999	9	[-999, -999, -999]	n/a	FR1	0	R1168T
1410.507	0.6	1433180	DISTRACT_END	n/a	n/a	n/a	-999	9	[0, 0, 0]	n/a	FR1	0	R1168T
1411.107	0.518	1433780	RETRIEVAL_ORIENT	n/a	n/a	n/a	-999	9	[0, 0, 0]	n/a	FR1	0	R1168T
1411.625	1.965	1434298	REC_START	n/a	n/a	n/a	-999	9	[0, 0, 0]	n/a	FR1	0	R1168T
1413.59	1.216	1436263	REC_WORD	1.216	n/a	SHIP	9	9	[0, 0, 0]	n/a	FR1	0	R1168T
1414.806	1.65	1437479	REC_WORD	1.65	n/a	CRANE	5	9	[0, 0, 0]	n/a	FR1	0	R1168T
1416.456	25.179	1439128	REC_WORD	25.179	n/a	PLUS	-999	9	[0, 0, 0]	n/a	FR1	0	R1168T
1441.635	26.966	1464306	REC_END	n/a	n/a	n/a	-999	9	[0, 0, 0]	n/a	FR1	0	R1168T
1468.601	0.5	1491270	TRIAL	n/a	n/a	n/a	-999	10	[0, 0, 0]	n/a	FR1	0	R1168T
1469.101	10.428	1491770	COUNTDOWN_START	n/a	n/a	n/a	-999	10	[0, 0, 0]	n/a	FR1	0	R1168T
1479.529	0.008	1502198	COUNTDOWN_END	n/a	n/a	n/a	-999	10	[0, 0, 0]	n/a	FR1	0	R1168T
1479.537	1.616	1502206	ORIENT	n/a	n/a	n/a	-999	10	[0, 0, 0]	n/a	FR1	0	R1168T
1481.153	1.983	1503822	ORIENT_OFF	n/a	n/a	n/a	-999	10	[0, 0, 0]	n/a	FR1	0	R1168T
1483.136	1.617	1505805	WORD	n/a	wordpools/wordpool_EN.txt	SEA	1	10	[0, 0, 0]	n/a	FR1	0	R1168T
1484.753	0.95	1507421	WORD_OFF	n/a	n/a	SEA	1	10	[0, 0, 0]	n/a	FR1	0	R1168T
1485.703	1.618	1508371	WORD	n/a	wordpools/wordpool_EN.txt	EEL	2	10	[0, 0, 0]	n/a	FR1	0	R1168T
1487.321	0.933	1509989	WORD_OFF	n/a	n/a	EEL	2	10	[0, 0, 0]	n/a	FR1	0	R1168T
1488.254	1.617	1510922	WORD	n/a	wordpools/wordpool_EN.txt	PRINCE	3	10	[0, 0, 0]	n/a	FR1	0	R1168T
1489.871	0.783	1512539	WORD_OFF	n/a	n/a	PRINCE	3	10	[0, 0, 0]	n/a	FR1	0	R1168T
1490.654	1.617	1513322	WORD	n/a	wordpools/wordpool_EN.txt	LAKE	4	10	[0, 0, 0]	n/a	FR1	0	R1168T
1492.271	0.8	1514939	WORD_OFF	n/a	n/a	LAKE	4	10	[0, 0, 0]	n/a	FR1	0	R1168T
1493.071	1.617	1515739	WORD	n/a	wordpools/wordpool_EN.txt	ROCK	5	10	[0, 0, 0]	n/a	FR1	0	R1168T
1494.688	0.918	1517356	WORD_OFF	n/a	n/a	ROCK	5	10	[0, 0, 0]	n/a	FR1	0	R1168T
1495.606	1.616	1518274	WORD	n/a	wordpools/wordpool_EN.txt	HORSE	6	10	[0, 0, 0]	n/a	FR1	0	R1168T
1497.222	0.8	1519890	WORD_OFF	n/a	n/a	HORSE	6	10	[0, 0, 0]	n/a	FR1	0	R1168T
1498.022	1.617	1520690	WORD	n/a	wordpools/wordpool_EN.txt	PIG	7	10	[0, 0, 0]	n/a	FR1	0	R1168T
1499.639	0.868	1522307	WORD_OFF	n/a	n/a	PIG	7	10	[0, 0, 0]	n/a	FR1	0	R1168T
1500.507	1.616	1523175	WORD	n/a	wordpools/wordpool_EN.txt	CALF	8	10	[0, 0, 0]	n/a	FR1	0	R1168T
1502.123	0.917	1524790	WORD_OFF	n/a	n/a	CALF	8	10	[0, 0, 0]	n/a	FR1	0	R1168T
1503.04	1.617	1525707	WORD	n/a	wordpools/wordpool_EN.txt	STEAK	9	10	[0, 0, 0]	n/a	FR1	0	R1168T
1504.657	0.801	1527324	WORD_OFF	n/a	n/a	STEAK	9	10	[0, 0, 0]	n/a	FR1	0	R1168T
1505.458	1.616	1528125	WORD	n/a	wordpools/wordpool_EN.txt	GOLD	10	10	[0, 0, 0]	n/a	FR1	0	R1168T
1507.074	0.834	1529741	WORD_OFF	n/a	n/a	GOLD	10	10	[0, 0, 0]	n/a	FR1	0	R1168T
1507.908	1.617	1530575	WORD	n/a	wordpools/wordpool_EN.txt	GEESE	11	10	[0, 0, 0]	n/a	FR1	0	R1168T
1509.525	0.784	1532192	WORD_OFF	n/a	n/a	GEESE	11	10	[0, 0, 0]	n/a	FR1	0	R1168T
1510.309	1.616	1532976	WORD	n/a	wordpools/wordpool_EN.txt	PARK	12	10	[0, 0, 0]	n/a	FR1	0	R1168T
1511.925	0.0	1534592	WORD_OFF	n/a	n/a	PARK	12	10	[0, 0, 0]	n/a	FR1	0	R1168T
1511.925	0.001	1534592	DISTRACT_START	n/a	n/a	n/a	-999	10	[0, 0, 0]	n/a	FR1	0	R1168T
1511.926	0.016	1534593	START	n/a	n/a	n/a	-999	10	[-999, -999, -999]	n/a	FR1	0	R1168T
1511.942	9.818	1534609	PROB	9.818	n/a	n/a	-999	10	[4, 1, 9]	14	FR1	0	R1168T
1521.76	6.786	1544426	PROB	6.786	n/a	n/a	-999	10	[4, 6, 5]	15	FR1	0	R1168T
1528.546	9.851	1551212	PROB	9.851	n/a	n/a	-999	10	[2, 4, 4]	10	FR1	0	R1168T
1538.397	0.017	1561062	STOP	n/a	n/a	n/a	-999	10	[-999, -999, -999]	n/a	FR1	0	R1168T
1538.414	0.632	1561079	DISTRACT_END	n/a	n/a	n/a	-999	10	[0, 0, 0]	n/a	FR1	0	R1168T
1539.046	0.519	1561711	RETRIEVAL_ORIENT	n/a	n/a	n/a	-999	10	[0, 0, 0]	n/a	FR1	0	R1168T
1539.565	1.698	1562230	REC_START	n/a	n/a	n/a	-999	10	[0, 0, 0]	n/a	FR1	0	R1168T
1541.263	2.905	1563928	REC_WORD	2.905	n/a	SEAL	-999	10	[0, 0, 0]	n/a	FR1	0	R1168T
1544.168	1.3	1566833	REC_WORD	1.3	n/a	SEA	1	10	[0, 0, 0]	n/a	FR1	0	R1168T
1545.468	0.96	1568133	REC_WORD	0.96	n/a	EEL	2	10	[0, 0, 0]	n/a	FR1	0	R1168T
1546.428	1.871	1569093	REC_WORD	1.871	n/a	LAKE	4	10	[0, 0, 0]	n/a	FR1	0	R1168T
1548.299	1.885	1570964	REC_WORD	1.885	n/a	CALF	8	10	[0, 0, 0]	n/a	FR1	0	R1168T
1550.184	19.394	1572849	REC_WORD	19.394	n/a	PLUS	-999	10	[0, 0, 0]	n/a	FR1	0	R1168T
1569.578	12.927	1592242	REC_END	n/a	n/a	n/a	-999	10	[0, 0, 0]	n/a	FR1	0	R1168T
1582.505	0.5	1605168	TRIAL	n/a	n/a	n/a	-999	11	[0, 0, 0]	n/a	FR1	0	R1168T
1583.005	10.428	1605668	COUNTDOWN_START	n/a	n/a	n/a	-999	11	[0, 0, 0]	n/a	FR1	0	R1168T
1593.433	0.008	1616095	COUNTDOWN_END	n/a	n/a	n/a	-999	11	[0, 0, 0]	n/a	FR1	0	R1168T
1593.441	1.616	1616103	ORIENT	n/a	n/a	n/a	-999	11	[0, 0, 0]	n/a	FR1	0	R1168T
1595.057	2.251	1617719	ORIENT_OFF	n/a	n/a	n/a	-999	11	[0, 0, 0]	n/a	FR1	0	R1168T
1597.308	1.616	1619970	WORD	n/a	wordpools/wordpool_EN.txt	SCHOOL	1	11	[0, 0, 0]	n/a	FR1	0	R1168T
1598.924	0.834	1621586	WORD_OFF	n/a	n/a	SCHOOL	1	11	[0, 0, 0]	n/a	FR1	0	R1168T
1599.758	1.617	1622420	WORD	n/a	wordpools/wordpool_EN.txt	KEY	2	11	[0, 0, 0]	n/a	FR1	0	R1168T
1601.375	0.8	1624037	WORD_OFF	n/a	n/a	KEY	2	11	[0, 0, 0]	n/a	FR1	0	R1168T
1602.175	1.617	1624837	WORD	n/a	wordpools/wordpool_EN.txt	PHONE	3	11	[0, 0, 0]	n/a	FR1	0	R1168T
1603.792	0.801	1626454	WORD_OFF	n/a	n/a	PHONE	3	11	[0, 0, 0]	n/a	FR1	0	R1168T
1604.593	1.615	1627254	WORD	n/a	wordpools/wordpool_EN.txt	CASH	4	11	[0, 0, 0]	n/a	FR1	0	R1168T
1606.208	0.867	1628869	WORD_OFF	n/a	n/a	CASH	4	11	[0, 0, 0]	n/a	FR1	0	R1168T
1607.075	1.617	1629736	WORD	n/a	wordpools/wordpool_EN.txt	PEARL	5	11	[0, 0, 0]	n/a	FR1	0	R1168T
1608.692	0.935	1631353	WORD_OFF	n/a	n/a	PEARL	5	11	[0, 0, 0]	n/a	FR1	0	R1168T
1609.627	1.616	1632288	WORD	n/a	wordpools/wordpool_EN.txt	JUDGE	6	11	[0, 0, 0]	n/a	FR1	0	R1168T
1611.243	0.767	1633904	WORD_OFF	n/a	n/a	JUDGE	6	11	[0, 0, 0]	n/a	FR1	0	R1168T
1612.01	1.601	1634671	WORD	n/a	wordpools/wordpool_EN.txt	FILM	7	11	[0, 0, 0]	n/a	FR1	0	R1168T
1613.611	0.934	1636272	WORD_OFF	n/a	n/a	FILM	7	11	[0, 0, 0]	n/a	FR1	0	R1168T
1614.545	1.615	1637206	WORD	n/a	wordpools/wordpool_EN.txt	INK	8	11	[0, 0, 0]	n/a	FR1	0	R1168T
1616.16	0.851	1638821	WORD_OFF	n/a	n/a	INK	8	11	[0, 0, 0]	n/a	FR1	0	R1168T
1617.011	1.618	1639672	WORD	n/a	wordpools/wordpool_EN.txt	WEED	9	11	[0, 0, 0]	n/a	FR1	0	R1168T
1618.629	1.0	1641290	WORD_OFF	n/a	n/a	WEED	9	11	[0, 0, 0]	n/a	FR1	0	R1168T
1619.629	1.616	1642290	WORD	n/a	wordpools/wordpool_EN.txt	MAIL	10	11	[0, 0, 0]	n/a	FR1	0	R1168T
1621.245	0.817	1643906	WORD_OFF	n/a	n/a	MAIL	10	11	[0, 0, 0]	n/a	FR1	0	R1168T
1622.062	1.617	1644722	WORD	n/a	wordpools/wordpool_EN.txt	BANK	11	11	[0, 0, 0]	n/a	FR1	0	R1168T
1623.679	0.801	1646339	WORD_OFF	n/a	n/a	BANK	11	11	[0, 0, 0]	n/a	FR1	0	R1168T
1624.48	1.616	1647140	WORD	n/a	wordpools/wordpool_EN.txt	BOOK	12	11	[0, 0, 0]	n/a	FR1	0	R1168T
1626.096	0.0	1648756	WORD_OFF	n/a	n/a	BOOK	12	11	[0, 0, 0]	n/a	FR1	0	R1168T
1626.096	0.0	1648756	DISTRACT_START	n/a	n/a	n/a	-999	11	[0, 0, 0]	n/a	FR1	0	R1168T
1626.096	0.016	1648756	START	n/a	n/a	n/a	-999	11	[-999, -999, -999]	n/a	FR1	0	R1168T
1626.112	14.536	1648772	PROB	14.536	n/a	n/a	-999	11	[6, 5, 8]	19	FR1	0	R1168T
1640.648	4.001	1663307	PROB	4.001	n/a	n/a	-999	11	[5, 4, 2]	11	FR1	0	R1168T
1644.649	10.004	1667308	PROB	10.004	n/a	n/a	-999	11	[5, 9, 5]	19	FR1	0	R1168T
1654.653	0.014	1677312	STOP	n/a	n/a	n/a	-999	11	[-999, -999, -999]	n/a	FR1	0	R1168T
1654.667	0.634	1677326	DISTRACT_END	n/a	n/a	n/a	-999	11	[0, 0, 0]	n/a	FR1	0	R1168T
1655.301	0.517	1677960	RETRIEVAL_ORIENT	n/a	n/a	n/a	-999	11	[0, 0, 0]	n/a	FR1	0	R1168T
1655.818	2.162	1678476	REC_START	n/a	n/a	n/a	-999	11	[0, 0, 0]	n/a	FR1	0	R1168T
1657.98	0.985	1680638	REC_WORD	0.985	n/a	SCHOOL	1	11	[0, 0, 0]	n/a	FR1	0	R1168T
1658.965	1.287	1681623	REC_WORD	1.287	n/a	CASH	4	11	[0, 0, 0]	n/a	FR1	0	R1168T
1660.252	1.22	1682910	REC_WORD	1.22	n/a	PEARL	5	11	[0, 0, 0]	n/a	FR1	0	R1168T
1661.472	1.46	1684130	REC_WORD	1.46	n/a	FILM	7	11	[0, 0, 0]	n/a	FR1	0	R1168T
1662.932	22.899	1685590	REC_WORD	22.899	n/a	PLUS	-999	11	[0, 0, 0]	n/a	FR1	0	R1168T
1685.831	22.946	1708488	REC_END	n/a	n/a	n/a	-999	11	[0, 0, 0]	n/a	FR1	0	R1168T
1708.777	0.5	1731432	TRIAL	n/a	n/a	n/a	-999	12	[0, 0, 0]	n/a	FR1	0	R1168T
1709.277	10.428	1731932	COUNTDOWN_START	n/a	n/a	n/a	-999	12	[0, 0, 0]	n/a	FR1	0	R1168T
1719.705	0.008	1742360	COUNTDOWN_END	n/a	n/a	n/a	-999	12	[0, 0, 0]	n/a	FR1	0	R1168T
1719.713	1.618	1742368	ORIENT	n/a	n/a	n/a	-999	12	[0, 0, 0]	n/a	FR1	0	R1168T
1721.331	2.233	1743986	ORIENT_OFF	n/a	n/a	n/a	-999	12	[0, 0, 0]	n/a	FR1	0	R1168T
1723.564	1.616	1746219	WORD	n/a	wordpools/wordpool_EN.txt	TRAIN	1	12	[0, 0, 0]	n/a	FR1	0	R1168T
1725.18	0.767	1747834	WORD_OFF	n/a	n/a	TRAIN	1	12	[0, 0, 0]	n/a	FR1	0	R1168T
1725.947	1.618	1748601	WORD	n/a	wordpools/wordpool_EN.txt	HOOK	2	12	[0, 0, 0]	n/a	FR1	0	R1168T
1727.565	0.934	1750219	WORD_OFF	n/a	n/a	HOOK	2	12	[0, 0, 0]	n/a	FR1	0	R1168T
1728.499	1.616	1751153	WORD	n/a	wordpools/wordpool_EN.txt	SOCK	3	12	[0, 0, 0]	n/a	FR1	0	R1168T
1730.115	0.799	1752769	WORD_OFF	n/a	n/a	SOCK	3	12	[0, 0, 0]	n/a	FR1	0	R1168T
1730.914	1.602	1753568	WORD	n/a	wordpools/wordpool_EN.txt	ARK	4	12	[0, 0, 0]	n/a	FR1	0	R1168T
1732.516	1.0	1755170	WORD_OFF	n/a	n/a	ARK	4	12	[0, 0, 0]	n/a	FR1	0	R1168T
1733.516	1.616	1756170	WORD	n/a	wordpools/wordpool_EN.txt	RUG	5	12	[0, 0, 0]	n/a	FR1	0	R1168T
1735.132	0.784	1757786	WORD_OFF	n/a	n/a	RUG	5	12	[0, 0, 0]	n/a	FR1	0	R1168T
1735.916	1.618	1758570	WORD	n/a	wordpools/wordpool_EN.txt	SUIT	6	12	[0, 0, 0]	n/a	FR1	0	R1168T
1737.534	0.833	1760188	WORD_OFF	n/a	n/a	SUIT	6	12	[0, 0, 0]	n/a	FR1	0	R1168T
1738.367	1.616	1761021	WORD	n/a	wordpools/wordpool_EN.txt	BOARD	7	12	[0, 0, 0]	n/a	FR1	0	R1168T
1739.983	0.934	1762637	WORD_OFF	n/a	n/a	BOARD	7	12	[0, 0, 0]	n/a	FR1	0	R1168T
1740.917	1.617	1763571	WORD	n/a	wordpools/wordpool_EN.txt	PEAR	8	12	[0, 0, 0]	n/a	FR1	0	R1168T
1742.534	0.85	1765187	WORD_OFF	n/a	n/a	PEAR	8	12	[0, 0, 0]	n/a	FR1	0	R1168T
1743.384	1.617	1766037	WORD	n/a	wordpools/wordpool_EN.txt	LOCK	9	12	[0, 0, 0]	n/a	FR1	0	R1168T
1745.001	0.833	1767654	WORD_OFF	n/a	n/a	LOCK	9	12	[0, 0, 0]	n/a	FR1	0	R1168T
1745.834	1.618	1768487	WORD	n/a	wordpools/wordpool_EN.txt	JET	10	12	[0, 0, 0]	n/a	FR1	0	R1168T
1747.452	0.917	1770105	WORD_OFF	n/a	n/a	JET	10	12	[0, 0, 0]	n/a	FR1	0	R1168T
1748.369	1.616	1771022	WORD	n/a	wordpools/wordpool_EN.txt	FORK	11	12	[0, 0, 0]	n/a	FR1	0	R1168T
1749.985	0.967	1772638	WORD_OFF	n/a	n/a	FORK	11	12	[0, 0, 0]	n/a	FR1	0	R1168T
1750.952	1.618	1773605	WORD	n/a	wordpools/wordpool_EN.txt	TOAST	12	12	[0, 0, 0]	n/a	FR1	0	R1168T
1752.57	0.0	1775223	WORD_OFF	n/a	n/a	TOAST	12	12	[0, 0, 0]	n/a	FR1	0	R1168T
1752.57	0.0	1775223	DISTRACT_START	n/a	n/a	n/a	-999	12	[0, 0, 0]	n/a	FR1	0	R1168T
1752.57	0.016	1775223	START	n/a	n/a	n/a	-999	12	[-999, -999, -999]	n/a	FR1	0	R1168T
1752.586	14.402	1775239	PROB	14.402	n/a	n/a	-999	12	[1, 4, 4]	9	FR1	0	R1168T
1766.988	14.657	1789640	PROB	14.657	n/a	n/a	-999	12	[8, 8, 9]	25	FR1	0	R1168T
1781.645	0.012	1804296	STOP	n/a	n/a	n/a	-999	12	[-999, -999, -999]	n/a	FR1	0	R1168T
1781.657	0.668	1804308	DISTRACT_END	n/a	n/a	n/a	-999	12	[0, 0, 0]	n/a	FR1	0	R1168T
1782.325	0.517	1804976	RETRIEVAL_ORIENT	n/a	n/a	n/a	-999	12	[0, 0, 0]	n/a	FR1	0	R1168T
1782.842	2.103	1805493	REC_START	n/a	n/a	n/a	-999	12	[0, 0, 0]	n/a	FR1	0	R1168T
1784.945	0.963	1807596	REC_WORD	0.963	n/a	JET	10	12	[0, 0, 0]	n/a	FR1	0	R1168T
1785.908	1.15	1808559	REC_WORD	1.15	n/a	FORK	11	12	[0, 0, 0]	n/a	FR1	0	R1168T
1787.058	1.55	1809709	REC_WORD	1.55	n/a	TOAST	12	12	[0, 0, 0]	n/a	FR1	0	R1168T
1788.608	24.246	1811259	REC_WORD	24.246	n/a	PLUS	-999	12	[0, 0, 0]	n/a	FR1	0	R1168T
1812.854	40.484	1835503	REC_END	n/a	n/a	n/a	-999	12	[0, 0, 0]	n/a	FR1	0	R1168T
1853.338	0.5	1875985	TRIAL	n/a	n/a	n/a	-999	13	[0, 0, 0]	n/a	FR1	0	R1168T
1853.838	10.428	1876485	COUNTDOWN_START	n/a	n/a	n/a	-999	13	[0, 0, 0]	n/a	FR1	0	R1168T
1864.266	0.006	1886912	COUNTDOWN_END	n/a	n/a	n/a	-999	13	[0, 0, 0]	n/a	FR1	0	R1168T
1864.272	1.617	1886918	ORIENT	n/a	n/a	n/a	-999	13	[0, 0, 0]	n/a	FR1	0	R1168T
1865.889	2.217	1888535	ORIENT_OFF	n/a	n/a	n/a	-999	13	[0, 0, 0]	n/a	FR1	0	R1168T
1868.106	1.617	1890752	WORD	n/a	wordpools/wordpool_EN.txt	THREAD	1	13	[0, 0, 0]	n/a	FR1	0	R1168T
1869.723	0.885	1892369	WORD_OFF	n/a	n/a	THREAD	1	13	[0, 0, 0]	n/a	FR1	0	R1168T
1870.608	1.616	1893254	WORD	n/a	wordpools/wordpool_EN.txt	CLOTH	2	13	[0, 0, 0]	n/a	FR1	0	R1168T
1872.224	0.866	1894870	WORD_OFF	n/a	n/a	CLOTH	2	13	[0, 0, 0]	n/a	FR1	0	R1168T
1873.09	1.618	1895736	WORD	n/a	wordpools/wordpool_EN.txt	GATE	3	13	[0, 0, 0]	n/a	FR1	0	R1168T
1874.708	0.901	1897354	WORD_OFF	n/a	n/a	GATE	3	13	[0, 0, 0]	n/a	FR1	0	R1168T
1875.609	1.616	1898255	WORD	n/a	wordpools/wordpool_EN.txt	VASE	4	13	[0, 0, 0]	n/a	FR1	0	R1168T
1877.225	0.917	1899871	WORD_OFF	n/a	n/a	VASE	4	13	[0, 0, 0]	n/a	FR1	0	R1168T
1878.142	1.616	1900788	WORD	n/a	wordpools/wordpool_EN.txt	NAIL	5	13	[0, 0, 0]	n/a	FR1	0	R1168T
1879.758	0.967	1902403	WORD_OFF	n/a	n/a	NAIL	5	13	[0, 0, 0]	n/a	FR1	0	R1168T
1880.725	1.602	1903370	WORD	n/a	wordpools/wordpool_EN.txt	SHIELD	6	13	[0, 0, 0]	n/a	FR1	0	R1168T
1882.327	0.865	1904972	WORD_OFF	n/a	n/a	SHIELD	6	13	[0, 0, 0]	n/a	FR1	0	R1168T
1883.192	1.617	1905837	WORD	n/a	wordpools/wordpool_EN.txt	POOL	7	13	[0, 0, 0]	n/a	FR1	0	R1168T
1884.809	0.967	1907454	WORD_OFF	n/a	n/a	POOL	7	13	[0, 0, 0]	n/a	FR1	0	R1168T
1885.776	1.618	1908421	WORD	n/a	wordpools/wordpool_EN.txt	DRESS	8	13	[0, 0, 0]	n/a	FR1	0	R1168T
1887.394	0.899	1910039	WORD_OFF	n/a	n/a	DRESS	8	13	[0, 0, 0]	n/a	FR1	0	R1168T
1888.293	1.617	1910938	WORD	n/a	wordpools/wordpool_EN.txt	FLUTE	9	13	[0, 0, 0]	n/a	FR1	0	R1168T
1889.91	0.834	1912555	WORD_OFF	n/a	n/a	FLUTE	9	13	[0, 0, 0]	n/a	FR1	0	R1168T
1890.744	1.618	1913389	WORD	n/a	wordpools/wordpool_EN.txt	BENCH	10	13	[0, 0, 0]	n/a	FR1	0	R1168T
1892.362	0.916	1915007	WORD_OFF	n/a	n/a	BENCH	10	13	[0, 0, 0]	n/a	FR1	0	R1168T
1893.278	1.617	1915923	WORD	n/a	wordpools/wordpool_EN.txt	FAN	11	13	[0, 0, 0]	n/a	FR1	0	R1168T
1894.895	0.85	1917540	WORD_OFF	n/a	n/a	FAN	11	13	[0, 0, 0]	n/a	FR1	0	R1168T
1895.745	1.618	1918389	WORD	n/a	wordpools/wordpool_EN.txt	YARD	12	13	[0, 0, 0]	n/a	FR1	0	R1168T
1897.363	0.0	1920007	WORD_OFF	n/a	n/a	YARD	12	13	[0, 0, 0]	n/a	FR1	0	R1168T
1897.363	0.001	1920007	DISTRACT_START	n/a	n/a	n/a	-999	13	[0, 0, 0]	n/a	FR1	0	R1168T
1897.364	0.015	1920008	START	n/a	n/a	n/a	-999	13	[-999, -999, -999]	n/a	FR1	0	R1168T
1897.379	10.318	1920023	PROB	10.318	n/a	n/a	-999	13	[4, 9, 2]	15	FR1	0	R1168T
1907.697	3.551	1930341	PROB	3.551	n/a	n/a	-999	13	[5, 5, 5]	15	FR1	0	R1168T
1911.248	3.384	1933892	PROB	3.384	n/a	n/a	-999	13	[1, 4, 3]	8	FR1	0	R1168T
1914.632	4.044	1937275	PROB	4.044	n/a	n/a	-999	13	[1, 7, 1]	9	FR1	0	R1168T
1918.676	0.006	1941319	STOP	n/a	n/a	n/a	-999	13	[-999, -999, -999]	n/a	FR1	0	R1168T
1918.682	0.55	1941325	DISTRACT_END	n/a	n/a	n/a	-999	13	[0, 0, 0]	n/a	FR1	0	R1168T
1919.232	0.518	1941875	RETRIEVAL_ORIENT	n/a	n/a	n/a	-999	13	[0, 0, 0]	n/a	FR1	0	R1168T
1919.75	1.606	1942393	REC_START	n/a	n/a	n/a	-999	13	[0, 0, 0]	n/a	FR1	0	R1168T
1921.356	0.92	1943999	REC_WORD	0.92	n/a	THREAD	1	13	[0, 0, 0]	n/a	FR1	0	R1168T
1922.276	1.38	1944919	REC_WORD	1.38	n/a	CLOTH	2	13	[0, 0, 0]	n/a	FR1	0	R1168T
1923.656	1.099	1946299	REC_WORD	1.099	n/a	GATE	3	13	[0, 0, 0]	n/a	FR1	0	R1168T
1924.755	1.235	1947398	REC_WORD	1.235	n/a	BENCH	10	13	[0, 0, 0]	n/a	FR1	0	R1168T
1925.99	1.99	1948633	REC_WORD	1.99	n/a	FAN	11	13	[0, 0, 0]	n/a	FR1	0	R1168T
1927.98	21.782	1950623	REC_WORD	21.782	n/a	PLUS	-999	13	[0, 0, 0]	n/a	FR1	0	R1168T
1949.762	10.078	1972403	REC_END	n/a	n/a	n/a	-999	13	[0, 0, 0]	n/a	FR1	0	R1168T
1959.84	0.5	1982481	TRIAL	n/a	n/a	n/a	-999	14	[0, 0, 0]	n/a	FR1	0	R1168T
1960.34	10.428	1982981	COUNTDOWN_START	n/a	n/a	n/a	-999	14	[0, 0, 0]	n/a	FR1	0	R1168T
1970.768	0.007	1993408	COUNTDOWN_END	n/a	n/a	n/a	-999	14	[0, 0, 0]	n/a	FR1	0	R1168T
1970.775	1.618	1993415	ORIENT	n/a	n/a	n/a	-999	14	[0, 0, 0]	n/a	FR1	0	R1168T
1972.393	2.15	1995033	ORIENT_OFF	n/a	n/a	n/a	-999	14	[0, 0, 0]	n/a	FR1	0	R1168T
1974.543	1.616	1997183	WORD	n/a	wordpools/wordpool_EN.txt	PEA	1	14	[0, 0, 0]	n/a	FR1	0	R1168T
1976.159	0.934	1998799	WORD_OFF	n/a	n/a	PEA	1	14	[0, 0, 0]	n/a	FR1	0	R1168T
1977.093	1.617	1999733	WORD	n/a	wordpools/wordpool_EN.txt	COUCH	2	14	[0, 0, 0]	n/a	FR1	0	R1168T
1978.71	0.918	2001350	WORD_OFF	n/a	n/a	COUCH	2	14	[0, 0, 0]	n/a	FR1	0	R1168T
1979.628	1.616	2002268	WORD	n/a	wordpools/wordpool_EN.txt	TOE	3	14	[0, 0, 0]	n/a	FR1	0	R1168T
1981.244	1.0	2003883	WORD_OFF	n/a	n/a	TOE	3	14	[0, 0, 0]	n/a	FR1	0	R1168T
1982.244	1.617	2004883	WORD	n/a	wordpools/wordpool_EN.txt	TEA	4	14	[0, 0, 0]	n/a	FR1	0	R1168T
1983.861	0.783	2006500	WORD_OFF	n/a	n/a	TEA	4	14	[0, 0, 0]	n/a	FR1	0	R1168T
1984.644	1.617	2007283	WORD	n/a	wordpools/wordpool_EN.txt	MOUTH	5	14	[0, 0, 0]	n/a	FR1	0	R1168T
1986.261	0.85	2008900	WORD_OFF	n/a	n/a	MOUTH	5	14	[0, 0, 0]	n/a	FR1	0	R1168T
1987.111	1.617	2009750	WORD	n/a	wordpools/wordpool_EN.txt	WALL	6	14	[0, 0, 0]	n/a	FR1	0	R1168T
1988.728	0.967	2011367	WORD_OFF	n/a	n/a	WALL	6	14	[0, 0, 0]	n/a	FR1	0	R1168T
1989.695	1.618	2012334	WORD	n/a	wordpools/wordpool_EN.txt	RICE	7	14	[0, 0, 0]	n/a	FR1	0	R1168T
1991.313	0.799	2013952	WORD_OFF	n/a	n/a	RICE	7	14	[0, 0, 0]	n/a	FR1	0	R1168T
1992.112	1.617	2014751	WORD	n/a	wordpools/wordpool_EN.txt	DIME	8	14	[0, 0, 0]	n/a	FR1	0	R1168T
1993.729	0.917	2016368	WORD_OFF	n/a	n/a	DIME	8	14	[0, 0, 0]	n/a	FR1	0	R1168T
1994.646	1.617	2017285	WORD	n/a	wordpools/wordpool_EN.txt	TIE	9	14	[0, 0, 0]	n/a	FR1	0	R1168T
1996.263	0.983	2018902	WORD_OFF	n/a	n/a	TIE	9	14	[0, 0, 0]	n/a	FR1	0	R1168T
1997.246	1.617	2019885	WORD	n/a	wordpools/wordpool_EN.txt	FLOOR	10	14	[0, 0, 0]	n/a	FR1	0	R1168T
1998.863	0.984	2021501	WORD_OFF	n/a	n/a	FLOOR	10	14	[0, 0, 0]	n/a	FR1	0	R1168T
1999.847	1.618	2022485	WORD	n/a	wordpools/wordpool_EN.txt	LAMP	11	14	[0, 0, 0]	n/a	FR1	0	R1168T
2001.465	0.799	2024103	WORD_OFF	n/a	n/a	LAMP	11	14	[0, 0, 0]	n/a	FR1	0	R1168T
2002.264	1.617	2024902	WORD	n/a	wordpools/wordpool_EN.txt	LIP	12	14	[0, 0, 0]	n/a	FR1	0	R1168T
2003.881	0.0	2026519	WORD_OFF	n/a	n/a	LIP	12	14	[0, 0, 0]	n/a	FR1	0	R1168T
2003.881	0.001	2026519	DISTRACT_START	n/a	n/a	n/a	-999	14	[0, 0, 0]	n/a	FR1	0	R1168T
2003.882	0.016	2026520	START	n/a	n/a	n/a	-999	14	[-999, -999, -999]	n/a	FR1	0	R1168T
2003.898	4.418	2026536	PROB	4.418	n/a	n/a	-999	14	[3, 1, 1]	5	FR1	0	R1168T
2008.316	8.851	2030954	PROB	8.851	n/a	n/a	-999	14	[2, 5, 7]	14	FR1	0	R1168T
2017.167	6.813	2039804	PROB	6.813	n/a	n/a	-999	14	[6, 5, 5]	16	FR1	0	R1168T
2023.98	0.021	2046617	STOP	n/a	n/a	n/a	-999	14	[-999, -999, -999]	n/a	FR1	0	R1168T
2024.001	0.601	2046638	DISTRACT_END	n/a	n/a	n/a	-999	14	[0, 0, 0]	n/a	FR1	0	R1168T
2024.602	0.517	2047239	RETRIEVAL_ORIENT	n/a	n/a	n/a	-999	14	[0, 0, 0]	n/a	FR1	0	R1168T
2025.119	2.018	2047756	REC_START	n/a	n/a	n/a	-999	14	[0, 0, 0]	n/a	FR1	0	R1168T
2027.137	0.964	2049774	REC_WORD	0.964	n/a	PEA	1	14	[0, 0, 0]	n/a	FR1	0	R1168T
2028.101	1.181	2050738	REC_WORD	1.181	n/a	COUCH	2	14	[0, 0, 0]	n/a	FR1	0	R1168T
2029.282	1.03	2051919	REC_WORD	1.03	n/a	TOE	3	14	[0, 0, 0]	n/a	FR1	0	R1168T
2030.312	0.925	2052949	REC_WORD	0.925	n/a	MOUTH	5	14	[0, 0, 0]	n/a	FR1	0	R1168T
2031.237	15.145	2053874	REC_WORD	15.145	n/a	PLUS	-999	14	[0, 0, 0]	n/a	FR1	0	R1168T
2046.382	8.75	2069018	REC_WORD	8.75	n/a	SHIP	-999	14	[0, 0, 0]	n/a	FR1	0	R1168T
2055.132	7.56	2077767	REC_END	n/a	n/a	n/a	-999	14	[0, 0, 0]	n/a	FR1	0	R1168T
2062.692	0.5	2085327	TRIAL	n/a	n/a	n/a	-999	15	[0, 0, 0]	n/a	FR1	0	R1168T
2063.192	10.428	2085827	COUNTDOWN_START	n/a	n/a	n/a	-999	15	[0, 0, 0]	n/a	FR1	0	R1168T
2073.62	0.008	2096254	COUNTDOWN_END	n/a	n/a	n/a	-999	15	[0, 0, 0]	n/a	FR1	0	R1168T
2073.628	1.616	2096262	ORIENT	n/a	n/a	n/a	-999	15	[0, 0, 0]	n/a	FR1	0	R1168T
2075.244	2.0	2097878	ORIENT_OFF	n/a	n/a	n/a	-999	15	[0, 0, 0]	n/a	FR1	0	R1168T
2077.244	1.617	2099878	WORD	n/a	wordpools/wordpool_EN.txt	BRICK	1	15	[0, 0, 0]	n/a	FR1	0	R1168T
2078.861	0.768	2101495	WORD_OFF	n/a	n/a	BRICK	1	15	[0, 0, 0]	n/a	FR1	0	R1168T
2079.629	1.616	2102263	WORD	n/a	wordpools/wordpool_EN.txt	ROOM	2	15	[0, 0, 0]	n/a	FR1	0	R1168T
2081.245	0.984	2103879	WORD_OFF	n/a	n/a	ROOM	2	15	[0, 0, 0]	n/a	FR1	0	R1168T
2082.229	1.616	2104863	WORD	n/a	wordpools/wordpool_EN.txt	MUG	3	15	[0, 0, 0]	n/a	FR1	0	R1168T
2083.845	0.817	2106478	WORD_OFF	n/a	n/a	MUG	3	15	[0, 0, 0]	n/a	FR1	0	R1168T
2084.662	1.617	2107295	WORD	n/a	wordpools/wordpool_EN.txt	AXE	4	15	[0, 0, 0]	n/a	FR1	0	R1168T
2086.279	0.85	2108912	WORD_OFF	n/a	n/a	AXE	4	15	[0, 0, 0]	n/a	FR1	0	R1168T
2087.129	1.617	2109762	WORD	n/a	wordpools/wordpool_EN.txt	BAG	5	15	[0, 0, 0]	n/a	FR1	0	R1168T
2088.746	0.934	2111379	WORD_OFF	n/a	n/a	BAG	5	15	[0, 0, 0]	n/a	FR1	0	R1168T
2089.68	1.617	2112313	WORD	n/a	wordpools/wordpool_EN.txt	TRAY	6	15	[0, 0, 0]	n/a	FR1	0	R1168T
2091.297	0.967	2113930	WORD_OFF	n/a	n/a	TRAY	6	15	[0, 0, 0]	n/a	FR1	0	R1168T
2092.264	1.617	2114897	WORD	n/a	wordpools/wordpool_EN.txt	PIE	7	15	[0, 0, 0]	n/a	FR1	0	R1168T
2093.881	0.8	2116514	WORD_OFF	n/a	n/a	PIE	7	15	[0, 0, 0]	n/a	FR1	0	R1168T
2094.681	1.617	2117314	WORD	n/a	wordpools/wordpool_EN.txt	SPOON	8	15	[0, 0, 0]	n/a	FR1	0	R1168T
2096.298	0.967	2118931	WORD_OFF	n/a	n/a	SPOON	8	15	[0, 0, 0]	n/a	FR1	0	R1168T
2097.265	1.617	2119898	WORD	n/a	wordpools/wordpool_EN.txt	FOOT	9	15	[0, 0, 0]	n/a	FR1	0	R1168T
2098.882	1.0	2121515	WORD_OFF	n/a	n/a	FOOT	9	15	[0, 0, 0]	n/a	FR1	0	R1168T
2099.882	1.618	2122515	WORD	n/a	wordpools/wordpool_EN.txt	WOOD	10	15	[0, 0, 0]	n/a	FR1	0	R1168T
2101.5	0.765	2124132	WORD_OFF	n/a	n/a	WOOD	10	15	[0, 0, 0]	n/a	FR1	0	R1168T
2102.265	1.618	2124897	WORD	n/a	wordpools/wordpool_EN.txt	RIB	11	15	[0, 0, 0]	n/a	FR1	0	R1168T
2103.883	1.0	2126515	WORD_OFF	n/a	n/a	RIB	11	15	[0, 0, 0]	n/a	FR1	0	R1168T
2104.883	1.618	2127515	WORD	n/a	wordpools/wordpool_EN.txt	STAIR	12	15	[0, 0, 0]	n/a	FR1	0	R1168T
2106.501	0.0	2129133	WORD_OFF	n/a	n/a	STAIR	12	15	[0, 0, 0]	n/a	FR1	0	R1168T
2106.501	0.0	2129133	DISTRACT_START	n/a	n/a	n/a	-999	15	[0, 0, 0]	n/a	FR1	0	R1168T
2106.501	0.016	2129133	START	n/a	n/a	n/a	-999	15	[-999, -999, -999]	n/a	FR1	0	R1168T
2106.517	4.918	2129149	PROB	4.918	n/a	n/a	-999	15	[5, 8, 2]	15	FR1	0	R1168T
2111.435	3.383	2134067	PROB	3.383	n/a	n/a	-999	15	[1, 8, 2]	11	FR1	0	R1168T
2114.818	4.467	2137450	PROB	4.467	n/a	n/a	-999	15	[4, 7, 8]	19	FR1	0	R1168T
2119.285	14.904	2141916	PROB	14.904	n/a	n/a	-999	15	[3, 6, 7]	16	FR1	0	R1168T
2134.189	0.016	2156820	STOP	n/a	n/a	n/a	-999	15	[-999, -999, -999]	n/a	FR1	0	R1168T
2134.205	0.666	2156836	DISTRACT_END	n/a	n/a	n/a	-999	15	[0, 0, 0]	n/a	FR1	0	R1168T
2134.871	0.519	2157502	RETRIEVAL_ORIENT	n/a	n/a	n/a	-999	15	[0, 0, 0]	n/a	FR1	0	R1168T
2135.39	1.212	2158020	REC_START	n/a	n/a	n/a	-999	15	[0, 0, 0]	n/a	FR1	0	R1168T
2136.602	1.25	2159232	REC_WORD	1.25	n/a	MUG	3	15	[0, 0, 0]	n/a	FR1	0	R1168T
2137.852	1.475	2160482	REC_WORD	1.475	n/a	AXE	4	15	[0, 0, 0]	n/a	FR1	0	R1168T
2139.327	1.28	2161957	REC_WORD	1.28	n/a	PIE	7	15	[0, 0, 0]	n/a	FR1	0	R1168T
2140.607	1.495	2163237	REC_WORD	1.495	n/a	TRAY	6	15	[0, 0, 0]	n/a	FR1	0	R1168T
2142.102	1.59	2164732	REC_WORD	1.59	n/a	RIB	11	15	[0, 0, 0]	n/a	FR1	0	R1168T
2143.692	4.28	2166322	REC_WORD	4.28	n/a	PLUS	-999	15	[0, 0, 0]	n/a	FR1	0	R1168T
2147.972	17.431	2170602	REC_WORD	17.431	n/a	STAIR	12	15	[0, 0, 0]	n/a	FR1	0	R1168T
2165.403	22.678	2188032	REC_END	n/a	n/a	n/a	-999	15	[0, 0, 0]	n/a	FR1	0	R1168T
2188.081	0.5	2210708	TRIAL	n/a	n/a	n/a	-999	16	[0, 0, 0]	n/a	FR1	0	R1168T
2188.581	10.428	2211208	COUNTDOWN_START	n/a	n/a	n/a	-999	16	[0, 0, 0]	n/a	FR1	0	R1168T
2199.009	0.007	2221636	COUNTDOWN_END	n/a	n/a	n/a	-999	16	[0, 0, 0]	n/a	FR1	0	R1168T
2199.016	1.617	2221643	ORIENT	n/a	n/a	n/a	-999	16	[0, 0, 0]	n/a	FR1	0	R1168T
2200.633	2.084	2223260	ORIENT_OFF	n/a	n/a	n/a	-999	16	[0, 0, 0]	n/a	FR1	0	R1168T
2202.717	1.601	2225344	WORD	n/a	wordpools/wordpool_EN.txt	STICK	1	16	[0, 0, 0]	n/a	FR1	0	R1168T
2204.318	1.017	2226944	WORD_OFF	n/a	n/a	STICK	1	16	[0, 0, 0]	n/a	FR1	0	R1168T
2205.335	1.616	2227961	WORD	n/a	wordpools/wordpool_EN.txt	TRUCK	2	16	[0, 0, 0]	n/a	FR1	0	R1168T
2206.951	0.85	2229577	WORD_OFF	n/a	n/a	TRUCK	2	16	[0, 0, 0]	n/a	FR1	0	R1168T
2207.801	1.602	2230427	WORD	n/a	wordpools/wordpool_EN.txt	BLUSH	3	16	[0, 0, 0]	n/a	FR1	0	R1168T
2209.403	0.966	2232029	WORD_OFF	n/a	n/a	BLUSH	3	16	[0, 0, 0]	n/a	FR1	0	R1168T
2210.369	1.616	2232995	WORD	n/a	wordpools/wordpool_EN.txt	TENT	4	16	[0, 0, 0]	n/a	FR1	0	R1168T
2211.985	0.784	2234611	WORD_OFF	n/a	n/a	TENT	4	16	[0, 0, 0]	n/a	FR1	0	R1168T
2212.769	1.618	2235395	WORD	n/a	wordpools/wordpool_EN.txt	BROOM	5	16	[0, 0, 0]	n/a	FR1	0	R1168T
2214.387	0.782	2237013	WORD_OFF	n/a	n/a	BROOM	5	16	[0, 0, 0]	n/a	FR1	0	R1168T
2215.169	1.617	2237795	WORD	n/a	wordpools/wordpool_EN.txt	HAND	6	16	[0, 0, 0]	n/a	FR1	0	R1168T
2216.786	0.934	2239412	WORD_OFF	n/a	n/a	HAND	6	16	[0, 0, 0]	n/a	FR1	0	R1168T
2217.72	1.618	2240346	WORD	n/a	wordpools/wordpool_EN.txt	HILL	7	16	[0, 0, 0]	n/a	FR1	0	R1168T
2219.338	0.766	2241964	WORD_OFF	n/a	n/a	HILL	7	16	[0, 0, 0]	n/a	FR1	0	R1168T
2220.104	1.617	2242730	WORD	n/a	wordpools/wordpool_EN.txt	SHOE	8	16	[0, 0, 0]	n/a	FR1	0	R1168T
2221.721	0.95	2244346	WORD_OFF	n/a	n/a	SHOE	8	16	[0, 0, 0]	n/a	FR1	0	R1168T
2222.671	1.617	2245296	WORD	n/a	wordpools/wordpool_EN.txt	GUARD	9	16	[0, 0, 0]	n/a	FR1	0	R1168T
2224.288	0.783	2246913	WORD_OFF	n/a	n/a	GUARD	9	16	[0, 0, 0]	n/a	FR1	0	R1168T
2225.071	1.617	2247696	WORD	n/a	wordpools/wordpool_EN.txt	BED	10	16	[0, 0, 0]	n/a	FR1	0	R1168T
2226.688	0.835	2249313	WORD_OFF	n/a	n/a	BED	10	16	[0, 0, 0]	n/a	FR1	0	R1168T
2227.523	1.616	2250148	WORD	n/a	wordpools/wordpool_EN.txt	CHAIR	11	16	[0, 0, 0]	n/a	FR1	0	R1168T
2229.139	0.933	2251764	WORD_OFF	n/a	n/a	CHAIR	11	16	[0, 0, 0]	n/a	FR1	0	R1168T
2230.072	1.617	2252697	WORD	n/a	wordpools/wordpool_EN.txt	HOLE	12	16	[0, 0, 0]	n/a	FR1	0	R1168T
2231.689	0.0	2254314	WORD_OFF	n/a	n/a	HOLE	12	16	[0, 0, 0]	n/a	FR1	0	R1168T
2231.689	0.001	2254314	DISTRACT_START	n/a	n/a	n/a	-999	16	[0, 0, 0]	n/a	FR1	0	R1168T
2231.69	0.016	2254315	START	n/a	n/a	n/a	-999	16	[-999, -999, -999]	n/a	FR1	0	R1168T
2231.706	16.453	2254331	PROB	16.453	n/a	n/a	-999	16	[2, 6, 7]	15	FR1	0	R1168T
2248.159	6.43	2270783	PROB	6.43	n/a	n/a	-999	16	[3, 9, 8]	20	FR1	0	R1168T
2254.589	0.022	2277213	STOP	n/a	n/a	n/a	-999	16	[-999, -999, -999]	n/a	FR1	0	R1168T
2254.611	0.7	2277235	DISTRACT_END	n/a	n/a	n/a	-999	16	[0, 0, 0]	n/a	FR1	0	R1168T
2255.311	0.517	2277934	RETRIEVAL_ORIENT	n/a	n/a	n/a	-999	16	[0, 0, 0]	n/a	FR1	0	R1168T
2255.828	7.215	2278451	REC_START	n/a	n/a	n/a	-999	16	[0, 0, 0]	n/a	FR1	0	R1168T
2263.043	1.061	2285666	REC_WORD	1.061	n/a	MUG	-999	16	[0, 0, 0]	n/a	FR1	0	R1168T
2264.104	1.365	2286727	REC_WORD	1.365	n/a	TENT	4	16	[0, 0, 0]	n/a	FR1	0	R1168T
2265.469	8.149	2288092	REC_WORD	8.149	n/a	PLUS	-999	16	[0, 0, 0]	n/a	FR1	0	R1168T
2273.618	0.803	2296240	REC_WORD	0.803	n/a	BROOM	5	16	[0, 0, 0]	n/a	FR1	0	R1168T
2274.421	11.42	2297043	REC_WORD	11.42	n/a	STICK	1	16	[0, 0, 0]	n/a	FR1	0	R1168T
2285.841	8.076	2308463	REC_END	n/a	n/a	n/a	-999	16	[0, 0, 0]	n/a	FR1	0	R1168T
2293.917	0.5	2316538	TRIAL	n/a	n/a	n/a	-999	17	[0, 0, 0]	n/a	FR1	0	R1168T
2294.417	10.428	2317038	COUNTDOWN_START	n/a	n/a	n/a	-999	17	[0, 0, 0]	n/a	FR1	0	R1168T
2304.845	0.007	2327466	COUNTDOWN_END	n/a	n/a	n/a	-999	17	[0, 0, 0]	n/a	FR1	0	R1168T
2304.852	1.601	2327473	ORIENT	n/a	n/a	n/a	-999	17	[0, 0, 0]	n/a	FR1	0	R1168T
2306.453	1.984	2329073	ORIENT_OFF	n/a	n/a	n/a	-999	17	[0, 0, 0]	n/a	FR1	0	R1168T
2308.437	1.616	2331057	WORD	n/a	wordpools/wordpool_EN.txt	MOLE	1	17	[0, 0, 0]	n/a	FR1	0	R1168T
2310.053	1.001	2332673	WORD_OFF	n/a	n/a	MOLE	1	17	[0, 0, 0]	n/a	FR1	0	R1168T
2311.054	1.616	2333674	WORD	n/a	wordpools/wordpool_EN.txt	SHELL	2	17	[0, 0, 0]	n/a	FR1	0	R1168T
2312.67	0.902	2335290	WORD_OFF	n/a	n/a	SHELL	2	17	[0, 0, 0]	n/a	FR1	0	R1168T
2313.572	1.616	2336192	WORD	n/a	wordpools/wordpool_EN.txt	ZOO	3	17	[0, 0, 0]	n/a	FR1	0	R1168T
2315.188	1.0	2337808	WORD_OFF	n/a	n/a	ZOO	3	17	[0, 0, 0]	n/a	FR1	0	R1168T
2316.188	1.617	2338808	WORD	n/a	wordpools/wordpool_EN.txt	WEB	4	17	[0, 0, 0]	n/a	FR1	0	R1168T
2317.805	0.818	2340425	WORD_OFF	n/a	n/a	WEB	4	17	[0, 0, 0]	n/a	FR1	0	R1168T
2318.623	1.615	2341243	WORD	n/a	wordpools/wordpool_EN.txt	SPONGE	5	17	[0, 0, 0]	n/a	FR1	0	R1168T
2320.238	0.784	2342858	WORD_OFF	n/a	n/a	SPONGE	5	17	[0, 0, 0]	n/a	FR1	0	R1168T
2321.022	1.617	2343642	WORD	n/a	wordpools/wordpool_EN.txt	FOOD	6	17	[0, 0, 0]	n/a	FR1	0	R1168T
2322.639	0.851	2345259	WORD_OFF	n/a	n/a	FOOD	6	17	[0, 0, 0]	n/a	FR1	0	R1168T
2323.49	1.616	2346109	WORD	n/a	wordpools/wordpool_EN.txt	MUD	7	17	[0, 0, 0]	n/a	FR1	0	R1168T
2325.106	0.767	2347725	WORD_OFF	n/a	n/a	MUD	7	17	[0, 0, 0]	n/a	FR1	0	R1168T
2325.873	1.618	2348492	WORD	n/a	wordpools/wordpool_EN.txt	WORM	8	17	[0, 0, 0]	n/a	FR1	0	R1168T
2327.491	0.95	2350110	WORD_OFF	n/a	n/a	WORM	8	17	[0, 0, 0]	n/a	FR1	0	R1168T
2328.441	1.616	2351060	WORD	n/a	wordpools/wordpool_EN.txt	FUDGE	9	17	[0, 0, 0]	n/a	FR1	0	R1168T
2330.057	0.917	2352676	WORD_OFF	n/a	n/a	FUDGE	9	17	[0, 0, 0]	n/a	FR1	0	R1168T
2330.974	1.618	2353593	WORD	n/a	wordpools/wordpool_EN.txt	SEAL	10	17	[0, 0, 0]	n/a	FR1	0	R1168T
2332.592	0.85	2355211	WORD_OFF	n/a	n/a	SEAL	10	17	[0, 0, 0]	n/a	FR1	0	R1168T
2333.442	1.616	2356061	WORD	n/a	wordpools/wordpool_EN.txt	CAVE	11	17	[0, 0, 0]	n/a	FR1	0	R1168T
2335.058	0.783	2357677	WORD_OFF	n/a	n/a	CAVE	11	17	[0, 0, 0]	n/a	FR1	0	R1168T
2335.841	1.601	2358460	WORD	n/a	wordpools/wordpool_EN.txt	SNAKE	12	17	[0, 0, 0]	n/a	FR1	0	R1168T
2337.442	0.0	2360061	WORD_OFF	n/a	n/a	SNAKE	12	17	[0, 0, 0]	n/a	FR1	0	R1168T
2337.442	0.001	2360061	DISTRACT_START	n/a	n/a	n/a	-999	17	[0, 0, 0]	n/a	FR1	0	R1168T
2337.443	0.016	2360062	START	n/a	n/a	n/a	-999	17	[-999, -999, -999]	n/a	FR1	0	R1168T
2337.459	7.784	2360078	PROB	7.784	n/a	n/a	-999	17	[3, 4, 6]	13	FR1	0	R1168T
2345.243	3.202	2367861	PROB	3.202	n/a	n/a	-999	17	[8, 2, 3]	13	FR1	0	R1168T
2348.445	9.271	2371063	PROB	9.271	n/a	n/a	-999	17	[3, 2, 6]	11	FR1	0	R1168T
2357.716	0.013	2380333	STOP	n/a	n/a	n/a	-999	17	[-999, -999, -999]	n/a	FR1	0	R1168T
2357.729	0.55	2380346	DISTRACT_END	n/a	n/a	n/a	-999	17	[0, 0, 0]	n/a	FR1	0	R1168T
2358.279	0.517	2380896	RETRIEVAL_ORIENT	n/a	n/a	n/a	-999	17	[0, 0, 0]	n/a	FR1	0	R1168T
2358.796	4.249	2381413	REC_START	n/a	n/a	n/a	-999	17	[0, 0, 0]	n/a	FR1	0	R1168T
2363.045	1.485	2385662	REC_WORD	1.485	n/a	MUG	-999	17	[0, 0, 0]	n/a	FR1	0	R1168T
2364.53	1.185	2387147	REC_WORD	1.185	n/a	FUDGE	9	17	[0, 0, 0]	n/a	FR1	0	R1168T
2365.715	5.43	2388332	REC_WORD	5.43	n/a	WEB	4	17	[0, 0, 0]	n/a	FR1	0	R1168T
2371.145	3.648	2393762	REC_WORD	3.648	n/a	ZOO	3	17	[0, 0, 0]	n/a	FR1	0	R1168T
2374.793	14.017	2397409	REC_WORD	14.017	n/a	PLUS	-999	17	[0, 0, 0]	n/a	FR1	0	R1168T
2388.81	9.259	2411426	REC_END	n/a	n/a	n/a	-999	17	[0, 0, 0]	n/a	FR1	0	R1168T
2398.069	0.5	2420684	TRIAL	n/a	n/a	n/a	-999	18	[0, 0, 0]	n/a	FR1	0	R1168T
2398.569	10.428	2421184	COUNTDOWN_START	n/a	n/a	n/a	-999	18	[0, 0, 0]	n/a	FR1	0	R1168T
2408.997	0.008	2431611	COUNTDOWN_END	n/a	n/a	n/a	-999	18	[0, 0, 0]	n/a	FR1	0	R1168T
2409.005	1.618	2431619	ORIENT	n/a	n/a	n/a	-999	18	[0, 0, 0]	n/a	FR1	0	R1168T
2410.623	2.016	2433237	ORIENT_OFF	n/a	n/a	n/a	-999	18	[0, 0, 0]	n/a	FR1	0	R1168T
2412.639	1.617	2435253	WORD	n/a	wordpools/wordpool_EN.txt	STAR	1	18	[0, 0, 0]	n/a	FR1	0	R1168T
2414.256	0.85	2436870	WORD_OFF	n/a	n/a	STAR	1	18	[0, 0, 0]	n/a	FR1	0	R1168T
2415.106	1.617	2437720	WORD	n/a	wordpools/wordpool_EN.txt	BEE	2	18	[0, 0, 0]	n/a	FR1	0	R1168T
2416.723	0.95	2439337	WORD_OFF	n/a	n/a	BEE	2	18	[0, 0, 0]	n/a	FR1	0	R1168T
2417.673	1.617	2440287	WORD	n/a	wordpools/wordpool_EN.txt	EGG	3	18	[0, 0, 0]	n/a	FR1	0	R1168T
2419.29	1.0	2441904	WORD_OFF	n/a	n/a	EGG	3	18	[0, 0, 0]	n/a	FR1	0	R1168T
2420.29	1.617	2442904	WORD	n/a	wordpools/wordpool_EN.txt	HOOF	4	18	[0, 0, 0]	n/a	FR1	0	R1168T
2421.907	0.9	2444521	WORD_OFF	n/a	n/a	HOOF	4	18	[0, 0, 0]	n/a	FR1	0	R1168T
2422.807	1.618	2445421	WORD	n/a	wordpools/wordpool_EN.txt	CLOCK	5	18	[0, 0, 0]	n/a	FR1	0	R1168T
2424.425	0.884	2447039	WORD_OFF	n/a	n/a	CLOCK	5	18	[0, 0, 0]	n/a	FR1	0	R1168T
2425.309	1.616	2447923	WORD	n/a	wordpools/wordpool_EN.txt	SNAIL	6	18	[0, 0, 0]	n/a	FR1	0	R1168T
2426.925	0.783	2449538	WORD_OFF	n/a	n/a	SNAIL	6	18	[0, 0, 0]	n/a	FR1	0	R1168T
2427.708	1.618	2450321	WORD	n/a	wordpools/wordpool_EN.txt	HEART	7	18	[0, 0, 0]	n/a	FR1	0	R1168T
2429.326	0.833	2451939	WORD_OFF	n/a	n/a	HEART	7	18	[0, 0, 0]	n/a	FR1	0	R1168T
2430.159	1.616	2452772	WORD	n/a	wordpools/wordpool_EN.txt	POLE	8	18	[0, 0, 0]	n/a	FR1	0	R1168T
2431.775	0.852	2454388	WORD_OFF	n/a	n/a	POLE	8	18	[0, 0, 0]	n/a	FR1	0	R1168T
2432.627	1.616	2455240	WORD	n/a	wordpools/wordpool_EN.txt	CORD	9	18	[0, 0, 0]	n/a	FR1	0	R1168T
2434.243	0.983	2456856	WORD_OFF	n/a	n/a	CORD	9	18	[0, 0, 0]	n/a	FR1	0	R1168T
2435.226	1.617	2457839	WORD	n/a	wordpools/wordpool_EN.txt	JUICE	10	18	[0, 0, 0]	n/a	FR1	0	R1168T
2436.843	0.934	2459456	WORD_OFF	n/a	n/a	JUICE	10	18	[0, 0, 0]	n/a	FR1	0	R1168T
2437.777	1.601	2460390	WORD	n/a	wordpools/wordpool_EN.txt	TOAD	11	18	[0, 0, 0]	n/a	FR1	0	R1168T
2439.378	0.882	2461991	WORD_OFF	n/a	n/a	TOAD	11	18	[0, 0, 0]	n/a	FR1	0	R1168T
2440.26	1.617	2462873	WORD	n/a	wordpools/wordpool_EN.txt	MOON	12	18	[0, 0, 0]	n/a	FR1	0	R1168T
2441.877	0.0	2464490	WORD_OFF	n/a	n/a	MOON	12	18	[0, 0, 0]	n/a	FR1	0	R1168T
2441.877	0.001	2464490	DISTRACT_START	n/a	n/a	n/a	-999	18	[0, 0, 0]	n/a	FR1	0	R1168T
2441.878	0.016	2464491	START	n/a	n/a	n/a	-999	18	[-999, -999, -999]	n/a	FR1	0	R1168T
2441.894	6.569	2464507	PROB	6.569	n/a	n/a	-999	18	[8, 3, 2]	15	FR1	0	R1168T
2448.463	10.334	2471075	PROB	10.334	n/a	n/a	-999	18	[4, 4, 5]	13	FR1	0	R1168T
2458.797	8.847	2481409	PROB	8.847	n/a	n/a	-999	18	[7, 2, 4]	13	FR1	0	R1168T
2467.644	0.021	2490255	STOP	n/a	n/a	n/a	-999	18	[-999, -999, -999]	n/a	FR1	0	R1168T
2467.665	0.567	2490276	DISTRACT_END	n/a	n/a	n/a	-999	18	[0, 0, 0]	n/a	FR1	0	R1168T
2468.232	0.518	2490843	RETRIEVAL_ORIENT	n/a	n/a	n/a	-999	18	[0, 0, 0]	n/a	FR1	0	R1168T
2468.75	6.502	2491361	REC_START	n/a	n/a	n/a	-999	18	[0, 0, 0]	n/a	FR1	0	R1168T
2475.252	0.481	2497863	REC_WORD_VV	0.481	n/a	<>	-999	18	[0, 0, 0]	n/a	FR1	0	R1168T
2475.733	2.564	2498344	REC_WORD	2.564	n/a	TOAD	11	18	[0, 0, 0]	n/a	FR1	0	R1168T
2478.297	4.114	2500907	REC_WORD	4.114	n/a	PLUS	-999	18	[0, 0, 0]	n/a	FR1	0	R1168T
2482.411	16.351	2505021	REC_WORD	16.351	n/a	FUDGE	-999	18	[0, 0, 0]	n/a	FR1	0	R1168T
2498.762	10.695	2521371	REC_END	n/a	n/a	n/a	-999	18	[0, 0, 0]	n/a	FR1	0	R1168T
2509.457	0.5	2532066	TRIAL	n/a	n/a	n/a	-999	19	[0, 0, 0]	n/a	FR1	0	R1168T
2509.957	10.428	2532566	COUNTDOWN_START	n/a	n/a	n/a	-999	19	[0, 0, 0]	n/a	FR1	0	R1168T
2520.385	0.008	2542993	COUNTDOWN_END	n/a	n/a	n/a	-999	19	[0, 0, 0]	n/a	FR1	0	R1168T
2520.393	1.616	2543001	ORIENT	n/a	n/a	n/a	-999	19	[0, 0, 0]	n/a	FR1	0	R1168T
2522.009	2.167	2544617	ORIENT_OFF	n/a	n/a	n/a	-999	19	[0, 0, 0]	n/a	FR1	0	R1168T
2524.176	1.617	2546784	WORD	n/a	wordpools/wordpool_EN.txt	SINK	1	19	[0, 0, 0]	n/a	FR1	0	R1168T
2525.793	0.784	2548401	WORD_OFF	n/a	n/a	SINK	1	19	[0, 0, 0]	n/a	FR1	0	R1168T
2526.577	1.616	2549185	WORD	n/a	wordpools/wordpool_EN.txt	ARM	2	19	[0, 0, 0]	n/a	FR1	0	R1168T
2528.193	0.884	2550801	WORD_OFF	n/a	n/a	ARM	2	19	[0, 0, 0]	n/a	FR1	0	R1168T
2529.077	1.616	2551684	WORD	n/a	wordpools/wordpool_EN.txt	NET	3	19	[0, 0, 0]	n/a	FR1	0	R1168T
2530.693	0.885	2553300	WORD_OFF	n/a	n/a	NET	3	19	[0, 0, 0]	n/a	FR1	0	R1168T
2531.578	1.616	2554185	WORD	n/a	wordpools/wordpool_EN.txt	PLATE	4	19	[0, 0, 0]	n/a	FR1	0	R1168T
2533.194	0.85	2555801	WORD_OFF	n/a	n/a	PLATE	4	19	[0, 0, 0]	n/a	FR1	0	R1168T
2534.044	1.617	2556651	WORD	n/a	wordpools/wordpool_EN.txt	VINE	5	19	[0, 0, 0]	n/a	FR1	0	R1168T
2535.661	1.017	2558268	WORD_OFF	n/a	n/a	VINE	5	19	[0, 0, 0]	n/a	FR1	0	R1168T
2536.678	1.617	2559285	WORD	n/a	wordpools/wordpool_EN.txt	PIT	6	19	[0, 0, 0]	n/a	FR1	0	R1168T
2538.295	0.916	2560902	WORD_OFF	n/a	n/a	PIT	6	19	[0, 0, 0]	n/a	FR1	0	R1168T
2539.211	1.601	2561818	WORD	n/a	wordpools/wordpool_EN.txt	WHALE	7	19	[0, 0, 0]	n/a	FR1	0	R1168T
2540.812	0.983	2563419	WORD_OFF	n/a	n/a	WHALE	7	19	[0, 0, 0]	n/a	FR1	0	R1168T
2541.795	1.602	2564402	WORD	n/a	wordpools/wordpool_EN.txt	ROOF	8	19	[0, 0, 0]	n/a	FR1	0	R1168T
2543.397	0.882	2566004	WORD_OFF	n/a	n/a	ROOF	8	19	[0, 0, 0]	n/a	FR1	0	R1168T
2544.279	1.617	2566886	WORD	n/a	wordpools/wordpool_EN.txt	BOWL	9	19	[0, 0, 0]	n/a	FR1	0	R1168T
2545.896	1.017	2568502	WORD_OFF	n/a	n/a	BOWL	9	19	[0, 0, 0]	n/a	FR1	0	R1168T
2546.913	1.618	2569519	WORD	n/a	wordpools/wordpool_EN.txt	FACE	10	19	[0, 0, 0]	n/a	FR1	0	R1168T
2548.531	0.95	2571137	WORD_OFF	n/a	n/a	FACE	10	19	[0, 0, 0]	n/a	FR1	0	R1168T
2549.481	1.616	2572087	WORD	n/a	wordpools/wordpool_EN.txt	PALM	11	19	[0, 0, 0]	n/a	FR1	0	R1168T
2551.097	0.9	2573703	WORD_OFF	n/a	n/a	PALM	11	19	[0, 0, 0]	n/a	FR1	0	R1168T
2551.997	1.602	2574603	WORD	n/a	wordpools/wordpool_EN.txt	BAT	12	19	[0, 0, 0]	n/a	FR1	0	R1168T
2553.599	0.0	2576205	WORD_OFF	n/a	n/a	BAT	12	19	[0, 0, 0]	n/a	FR1	0	R1168T
2553.599	0.0	2576205	DISTRACT_START	n/a	n/a	n/a	-999	19	[0, 0, 0]	n/a	FR1	0	R1168T
2553.599	0.016	2576205	START	n/a	n/a	n/a	-999	19	[-999, -999, -999]	n/a	FR1	0	R1168T
2553.615	7.835	2576221	PROB	7.835	n/a	n/a	-999	19	[2, 8, 9]	19	FR1	0	R1168T
2561.45	5.25	2584056	PROB	5.25	n/a	n/a	-999	19	[1, 6, 2]	9	FR1	0	R1168T
2566.7	5.418	2589305	PROB	5.418	n/a	n/a	-999	19	[8, 5, 8]	21	FR1	0	R1168T
2572.118	4.512	2594723	PROB	4.512	n/a	n/a	-999	19	[8, 1, 8]	17	FR1	0	R1168T
2576.63	0.005	2599235	STOP	n/a	n/a	n/a	-999	19	[-999, -999, -999]	n/a	FR1	0	R1168T
2576.635	0.685	2599240	DISTRACT_END	n/a	n/a	n/a	-999	19	[0, 0, 0]	n/a	FR1	0	R1168T
2577.32	0.516	2599925	RETRIEVAL_ORIENT	n/a	n/a	n/a	-999	19	[0, 0, 0]	n/a	FR1	0	R1168T
2577.836	1.215	2600441	REC_START	n/a	n/a	n/a	-999	19	[0, 0, 0]	n/a	FR1	0	R1168T
2579.051	1.102	2601656	REC_WORD	1.102	n/a	SINK	1	19	[0, 0, 0]	n/a	FR1	0	R1168T
2580.153	1.22	2602757	REC_WORD	1.22	n/a	ARM	2	19	[0, 0, 0]	n/a	FR1	0	R1168T
2581.373	26.474	2603977	REC_WORD	26.474	n/a	PLATE	4	19	[0, 0, 0]	n/a	FR1	0	R1168T
2607.847	14.413	2630450	REC_END	n/a	n/a	n/a	-999	19	[0, 0, 0]	n/a	FR1	0	R1168T
2622.26	0.5	2644862	TRIAL	n/a	n/a	n/a	-999	20	[0, 0, 0]	n/a	FR1	0	R1168T
2622.76	10.428	2645362	COUNTDOWN_START	n/a	n/a	n/a	-999	20	[0, 0, 0]	n/a	FR1	0	R1168T
2633.188	0.007	2655789	COUNTDOWN_END	n/a	n/a	n/a	-999	20	[0, 0, 0]	n/a	FR1	0	R1168T
2633.195	1.617	2655796	ORIENT	n/a	n/a	n/a	-999	20	[0, 0, 0]	n/a	FR1	0	R1168T
2634.812	2.351	2657413	ORIENT_OFF	n/a	n/a	n/a	-999	20	[0, 0, 0]	n/a	FR1	0	R1168T
2637.163	1.617	2659764	WORD	n/a	wordpools/wordpool_EN.txt	STEAM	1	20	[0, 0, 0]	n/a	FR1	0	R1168T
2638.78	0.933	2661381	WORD_OFF	n/a	n/a	STEAM	1	20	[0, 0, 0]	n/a	FR1	0	R1168T
2639.713	1.601	2662314	WORD	n/a	wordpools/wordpool_EN.txt	SPARK	2	20	[0, 0, 0]	n/a	FR1	0	R1168T
2641.314	0.833	2663915	WORD_OFF	n/a	n/a	SPARK	2	20	[0, 0, 0]	n/a	FR1	0	R1168T
2642.147	1.617	2664748	WORD	n/a	wordpools/wordpool_EN.txt	ICE	3	20	[0, 0, 0]	n/a	FR1	0	R1168T
2643.764	0.768	2666365	WORD_OFF	n/a	n/a	ICE	3	20	[0, 0, 0]	n/a	FR1	0	R1168T
2644.532	1.616	2667133	WORD	n/a	wordpools/wordpool_EN.txt	CLOUD	4	20	[0, 0, 0]	n/a	FR1	0	R1168T
2646.148	0.983	2668749	WORD_OFF	n/a	n/a	CLOUD	4	20	[0, 0, 0]	n/a	FR1	0	R1168T
2647.131	1.617	2669732	WORD	n/a	wordpools/wordpool_EN.txt	CONE	5	20	[0, 0, 0]	n/a	FR1	0	R1168T
2648.748	0.95	2671348	WORD_OFF	n/a	n/a	CONE	5	20	[0, 0, 0]	n/a	FR1	0	R1168T
2649.698	1.618	2672298	WORD	n/a	wordpools/wordpool_EN.txt	RAIN	6	20	[0, 0, 0]	n/a	FR1	0	R1168T
2651.316	0.783	2673916	WORD_OFF	n/a	n/a	RAIN	6	20	[0, 0, 0]	n/a	FR1	0	R1168T
2652.099	1.617	2674699	WORD	n/a	wordpools/wordpool_EN.txt	BOMB	7	20	[0, 0, 0]	n/a	FR1	0	R1168T
2653.716	0.817	2676316	WORD_OFF	n/a	n/a	BOMB	7	20	[0, 0, 0]	n/a	FR1	0	R1168T
2654.533	1.617	2677133	WORD	n/a	wordpools/wordpool_EN.txt	CAR	8	20	[0, 0, 0]	n/a	FR1	0	R1168T
2656.15	0.85	2678750	WORD_OFF	n/a	n/a	CAR	8	20	[0, 0, 0]	n/a	FR1	0	R1168T
2657.0	1.618	2679600	WORD	n/a	wordpools/wordpool_EN.txt	WORLD	9	20	[0, 0, 0]	n/a	FR1	0	R1168T
2658.618	0.883	2681218	WORD_OFF	n/a	n/a	WORLD	9	20	[0, 0, 0]	n/a	FR1	0	R1168T
2659.501	1.616	2682101	WORD	n/a	wordpools/wordpool_EN.txt	SMOKE	10	20	[0, 0, 0]	n/a	FR1	0	R1168T
2661.117	0.984	2683717	WORD_OFF	n/a	n/a	SMOKE	10	20	[0, 0, 0]	n/a	FR1	0	R1168T
2662.101	1.617	2684701	WORD	n/a	wordpools/wordpool_EN.txt	BRIDGE	11	20	[0, 0, 0]	n/a	FR1	0	R1168T
2663.718	1.0	2686318	WORD_OFF	n/a	n/a	BRIDGE	11	20	[0, 0, 0]	n/a	FR1	0	R1168T
2664.718	1.618	2687318	WORD	n/a	wordpools/wordpool_EN.txt	WHEEL	12	20	[0, 0, 0]	n/a	FR1	0	R1168T
2666.336	0.0	2688935	WORD_OFF	n/a	n/a	WHEEL	12	20	[0, 0, 0]	n/a	FR1	0	R1168T
2666.336	0.0	2688935	DISTRACT_START	n/a	n/a	n/a	-999	20	[0, 0, 0]	n/a	FR1	0	R1168T
2666.336	0.017	2688935	START	n/a	n/a	n/a	-999	20	[-999, -999, -999]	n/a	FR1	0	R1168T
2666.353	5.017	2688952	PROB	5.017	n/a	n/a	-999	20	[6, 6, 2]	14	FR1	0	R1168T
2671.37	4.4	2693969	PROB	4.4	n/a	n/a	-999	20	[4, 7, 3]	14	FR1	0	R1168T
2675.77	23.683	2698369	PROB	23.683	n/a	n/a	-999	20	[7, 6, 9]	22	FR1	0	R1168T
2699.453	0.005	2722051	STOP	n/a	n/a	n/a	-999	20	[-999, -999, -999]	n/a	FR1	0	R1168T
2699.458	0.616	2722056	DISTRACT_END	n/a	n/a	n/a	-999	20	[0, 0, 0]	n/a	FR1	0	R1168T
2700.074	0.519	2722671	RETRIEVAL_ORIENT	n/a	n/a	n/a	-999	20	[0, 0, 0]	n/a	FR1	0	R1168T
2700.593	1.895	2723190	REC_START	n/a	n/a	n/a	-999	20	[0, 0, 0]	n/a	FR1	0	R1168T
2702.488	1.151	2725085	REC_WORD	1.151	n/a	STEAM	1	20	[0, 0, 0]	n/a	FR1	0	R1168T
2703.639	1.385	2726236	REC_WORD	1.385	n/a	SPARK	2	20	[0, 0, 0]	n/a	FR1	0	R1168T
2705.024	4.425	2727621	REC_WORD	4.425	n/a	ICE	3	20	[0, 0, 0]	n/a	FR1	0	R1168T
2709.449	21.156	2732046	REC_WORD	21.156	n/a	PLUS	-999	20	[0, 0, 0]	n/a	FR1	0	R1168T
2730.605	10.41	2753201	REC_END	n/a	n/a	n/a	-999	20	[0, 0, 0]	n/a	FR1	0	R1168T
2741.015	0.5	2763610	TRIAL	n/a	n/a	n/a	-999	21	[0, 0, 0]	n/a	FR1	0	R1168T
2741.515	10.428	2764110	COUNTDOWN_START	n/a	n/a	n/a	-999	21	[0, 0, 0]	n/a	FR1	0	R1168T
2751.943	0.007	2774537	COUNTDOWN_END	n/a	n/a	n/a	-999	21	[0, 0, 0]	n/a	FR1	0	R1168T
2751.95	1.602	2774544	ORIENT	n/a	n/a	n/a	-999	21	[0, 0, 0]	n/a	FR1	0	R1168T
2753.552	2.182	2776146	ORIENT_OFF	n/a	n/a	n/a	-999	21	[0, 0, 0]	n/a	FR1	0	R1168T
2755.734	1.618	2778328	WORD	n/a	wordpools/wordpool_EN.txt	FLAME	1	21	[0, 0, 0]	n/a	FR1	0	R1168T
2757.352	0.984	2779946	WORD_OFF	n/a	n/a	FLAME	1	21	[0, 0, 0]	n/a	FR1	0	R1168T
2758.336	1.616	2780930	WORD	n/a	wordpools/wordpool_EN.txt	TOOL	2	21	[0, 0, 0]	n/a	FR1	0	R1168T
2759.952	0.867	2782546	WORD_OFF	n/a	n/a	TOOL	2	21	[0, 0, 0]	n/a	FR1	0	R1168T
2760.819	1.618	2783413	WORD	n/a	wordpools/wordpool_EN.txt	SHEET	3	21	[0, 0, 0]	n/a	FR1	0	R1168T
2762.437	0.765	2785031	WORD_OFF	n/a	n/a	SHEET	3	21	[0, 0, 0]	n/a	FR1	0	R1168T
2763.202	1.617	2785796	WORD	n/a	wordpools/wordpool_EN.txt	PLANE	4	21	[0, 0, 0]	n/a	FR1	0	R1168T
2764.819	0.802	2787413	WORD_OFF	n/a	n/a	PLANE	4	21	[0, 0, 0]	n/a	FR1	0	R1168T
2765.621	1.616	2788215	WORD	n/a	wordpools/wordpool_EN.txt	TEETH	5	21	[0, 0, 0]	n/a	FR1	0	R1168T
2767.237	0.8	2789831	WORD_OFF	n/a	n/a	TEETH	5	21	[0, 0, 0]	n/a	FR1	0	R1168T
2768.037	1.617	2790630	WORD	n/a	wordpools/wordpool_EN.txt	CROWN	6	21	[0, 0, 0]	n/a	FR1	0	R1168T
2769.654	0.834	2792247	WORD_OFF	n/a	n/a	CROWN	6	21	[0, 0, 0]	n/a	FR1	0	R1168T
2770.488	1.616	2793081	WORD	n/a	wordpools/wordpool_EN.txt	CHEEK	7	21	[0, 0, 0]	n/a	FR1	0	R1168T
2772.104	0.85	2794697	WORD_OFF	n/a	n/a	CHEEK	7	21	[0, 0, 0]	n/a	FR1	0	R1168T
2772.954	1.618	2795547	WORD	n/a	wordpools/wordpool_EN.txt	WAVE	8	21	[0, 0, 0]	n/a	FR1	0	R1168T
2774.572	1.0	2797165	WORD_OFF	n/a	n/a	WAVE	8	21	[0, 0, 0]	n/a	FR1	0	R1168T
2775.572	1.616	2798165	WORD	n/a	wordpools/wordpool_EN.txt	STRING	9	21	[0, 0, 0]	n/a	FR1	0	R1168T
2777.188	0.984	2799781	WORD_OFF	n/a	n/a	STRING	9	21	[0, 0, 0]	n/a	FR1	0	R1168T
2778.172	1.617	2800765	WORD	n/a	wordpools/wordpool_EN.txt	MAZE	10	21	[0, 0, 0]	n/a	FR1	0	R1168T
2779.789	0.801	2802382	WORD_OFF	n/a	n/a	MAZE	10	21	[0, 0, 0]	n/a	FR1	0	R1168T
2780.59	1.616	2803183	WORD	n/a	wordpools/wordpool_EN.txt	SWORD	11	21	[0, 0, 0]	n/a	FR1	0	R1168T
2782.206	0.783	2804799	WORD_OFF	n/a	n/a	SWORD	11	21	[0, 0, 0]	n/a	FR1	0	R1168T
2782.989	1.618	2805582	WORD	n/a	wordpools/wordpool_EN.txt	FROG	12	21	[0, 0, 0]	n/a	FR1	0	R1168T
2784.607	0.0	2807200	WORD_OFF	n/a	n/a	FROG	12	21	[0, 0, 0]	n/a	FR1	0	R1168T
2784.607	0.001	2807200	DISTRACT_START	n/a	n/a	n/a	-999	21	[0, 0, 0]	n/a	FR1	0	R1168T
2784.608	0.016	2807201	START	n/a	n/a	n/a	-999	21	[-999, -999, -999]	n/a	FR1	0	R1168T
2784.624	12.535	2807217	PROB	12.535	n/a	n/a	-999	21	[7, 2, 3]	12	FR1	0	R1168T
2797.159	6.202	2819751	PROB	6.202	n/a	n/a	-999	21	[1, 2, 8]	11	FR1	0	R1168T
2803.361	6.419	2825952	PROB	6.419	n/a	n/a	-999	21	[6, 6, 7]	19	FR1	0	R1168T
2809.78	0.014	2832371	STOP	n/a	n/a	n/a	-999	21	[-999, -999, -999]	n/a	FR1	0	R1168T
2809.794	0.668	2832385	DISTRACT_END	n/a	n/a	n/a	-999	21	[0, 0, 0]	n/a	FR1	0	R1168T
2810.462	0.517	2833053	RETRIEVAL_ORIENT	n/a	n/a	n/a	-999	21	[0, 0, 0]	n/a	FR1	0	R1168T
2810.979	2.653	2833570	REC_START	n/a	n/a	n/a	-999	21	[0, 0, 0]	n/a	FR1	0	R1168T
2813.632	1.012	2836223	REC_WORD	1.012	n/a	WAVE	8	21	[0, 0, 0]	n/a	FR1	0	R1168T
2814.644	1.347	2837235	REC_WORD	1.347	n/a	STRING	9	21	[0, 0, 0]	n/a	FR1	0	R1168T
2815.991	1.528	2838582	REC_WORD	1.528	n/a	MAZE	10	21	[0, 0, 0]	n/a	FR1	0	R1168T
2817.519	23.471	2840110	REC_WORD	23.471	n/a	PLUS	-999	21	[0, 0, 0]	n/a	FR1	0	R1168T
2840.99	23.449	2863579	REC_END	n/a	n/a	n/a	-999	21	[0, 0, 0]	n/a	FR1	0	R1168T
2864.439	0.5	2887027	TRIAL	n/a	n/a	n/a	-999	22	[0, 0, 0]	n/a	FR1	0	R1168T
2864.939	10.428	2887527	COUNTDOWN_START	n/a	n/a	n/a	-999	22	[0, 0, 0]	n/a	FR1	0	R1168T
2875.367	0.007	2897954	COUNTDOWN_END	n/a	n/a	n/a	-999	22	[0, 0, 0]	n/a	FR1	0	R1168T
2875.374	1.616	2897961	ORIENT	n/a	n/a	n/a	-999	22	[0, 0, 0]	n/a	FR1	0	R1168T
2876.99	2.1	2899577	ORIENT_OFF	n/a	n/a	n/a	-999	22	[0, 0, 0]	n/a	FR1	0	R1168T
2879.09	1.617	2901677	WORD	n/a	wordpools/wordpool_EN.txt	CHIEF	1	22	[0, 0, 0]	n/a	FR1	0	R1168T
2880.707	0.984	2903294	WORD_OFF	n/a	n/a	CHIEF	1	22	[0, 0, 0]	n/a	FR1	0	R1168T
2881.691	1.618	2904278	WORD	n/a	wordpools/wordpool_EN.txt	SPEAR	2	22	[0, 0, 0]	n/a	FR1	0	R1168T
2883.309	0.932	2905896	WORD_OFF	n/a	n/a	SPEAR	2	22	[0, 0, 0]	n/a	FR1	0	R1168T
2884.241	1.617	2906828	WORD	n/a	wordpools/wordpool_EN.txt	NEST	3	22	[0, 0, 0]	n/a	FR1	0	R1168T
2885.858	0.984	2908445	WORD_OFF	n/a	n/a	NEST	3	22	[0, 0, 0]	n/a	FR1	0	R1168T
2886.842	1.618	2909429	WORD	n/a	wordpools/wordpool_EN.txt	WAND	4	22	[0, 0, 0]	n/a	FR1	0	R1168T
2888.46	0.916	2911046	WORD_OFF	n/a	n/a	WAND	4	22	[0, 0, 0]	n/a	FR1	0	R1168T
2889.376	1.616	2911962	WORD	n/a	wordpools/wordpool_EN.txt	SHEEP	5	22	[0, 0, 0]	n/a	FR1	0	R1168T
2890.992	0.951	2913578	WORD_OFF	n/a	n/a	SHEEP	5	22	[0, 0, 0]	n/a	FR1	0	R1168T
2891.943	1.618	2914529	WORD	n/a	wordpools/wordpool_EN.txt	BRANCH	6	22	[0, 0, 0]	n/a	FR1	0	R1168T
2893.561	0.883	2916147	WORD_OFF	n/a	n/a	BRANCH	6	22	[0, 0, 0]	n/a	FR1	0	R1168T
2894.444	1.616	2917030	WORD	n/a	wordpools/wordpool_EN.txt	MILK	7	22	[0, 0, 0]	n/a	FR1	0	R1168T
2896.06	1.0	2918646	WORD_OFF	n/a	n/a	MILK	7	22	[0, 0, 0]	n/a	FR1	0	R1168T
2897.06	1.617	2919646	WORD	n/a	wordpools/wordpool_EN.txt	ROOT	8	22	[0, 0, 0]	n/a	FR1	0	R1168T
2898.677	0.918	2921263	WORD_OFF	n/a	n/a	ROOT	8	22	[0, 0, 0]	n/a	FR1	0	R1168T
2899.595	1.616	2922181	WORD	n/a	wordpools/wordpool_EN.txt	POND	9	22	[0, 0, 0]	n/a	FR1	0	R1168T
2901.211	0.8	2923797	WORD_OFF	n/a	n/a	POND	9	22	[0, 0, 0]	n/a	FR1	0	R1168T
2902.011	1.601	2924597	WORD	n/a	wordpools/wordpool_EN.txt	COW	10	22	[0, 0, 0]	n/a	FR1	0	R1168T
2903.612	1.017	2926198	WORD_OFF	n/a	n/a	COW	10	22	[0, 0, 0]	n/a	FR1	0	R1168T
2904.629	1.616	2927215	WORD	n/a	wordpools/wordpool_EN.txt	ANT	11	22	[0, 0, 0]	n/a	FR1	0	R1168T
2906.245	0.767	2928830	WORD_OFF	n/a	n/a	ANT	11	22	[0, 0, 0]	n/a	FR1	0	R1168T
2907.012	1.618	2929597	WORD	n/a	wordpools/wordpool_EN.txt	LEAF	12	22	[0, 0, 0]	n/a	FR1	0	R1168T
2908.63	0.0	2931215	WORD_OFF	n/a	n/a	LEAF	12	22	[0, 0, 0]	n/a	FR1	0	R1168T
2908.63	0.001	2931215	DISTRACT_START	n/a	n/a	n/a	-999	22	[0, 0, 0]	n/a	FR1	0	R1168T
2908.631	0.015	2931216	START	n/a	n/a	n/a	-999	22	[-999, -999, -999]	n/a	FR1	0	R1168T
2908.646	32.542	2931231	PROB	32.542	n/a	n/a	-999	22	[5, 9, 5]	19	FR1	0	R1168T
2941.188	0.014	2963771	STOP	n/a	n/a	n/a	-999	22	[-999, -999, -999]	n/a	FR1	0	R1168T
2941.202	0.633	2963785	DISTRACT_END	n/a	n/a	n/a	-999	22	[0, 0, 0]	n/a	FR1	0	R1168T
2941.835	0.518	2964418	RETRIEVAL_ORIENT	n/a	n/a	n/a	-999	22	[0, 0, 0]	n/a	FR1	0	R1168T
2942.353	1.877	2964936	REC_START	n/a	n/a	n/a	-999	22	[0, 0, 0]	n/a	FR1	0	R1168T
2944.23	1.109	2966813	REC_WORD	1.109	n/a	PLUS	-999	22	[0, 0, 0]	n/a	FR1	0	R1168T
2945.339	1.255	2967922	REC_WORD	1.255	n/a	CHIEF	1	22	[0, 0, 0]	n/a	FR1	0	R1168T
2946.594	1.28	2969177	REC_WORD	1.28	n/a	SHEEP	5	22	[0, 0, 0]	n/a	FR1	0	R1168T
2947.874	1.455	2970457	REC_WORD	1.455	n/a	MILK	7	22	[0, 0, 0]	n/a	FR1	0	R1168T
2949.329	1.09	2971912	REC_WORD	1.09	n/a	WAND	4	22	[0, 0, 0]	n/a	FR1	0	R1168T
2950.419	1.59	2973002	REC_WORD	1.59	n/a	ROOT	8	22	[0, 0, 0]	n/a	FR1	0	R1168T
2952.009	20.356	2974592	REC_WORD	20.356	n/a	PLUS	-999	22	[0, 0, 0]	n/a	FR1	0	R1168T
2972.365	5.593	2994947	REC_END	n/a	n/a	n/a	-999	22	[0, 0, 0]	n/a	FR1	0	R1168T
2977.958	0.5	3000539	TRIAL	n/a	n/a	n/a	-999	23	[0, 0, 0]	n/a	FR1	0	R1168T
2978.458	10.428	3001039	COUNTDOWN_START	n/a	n/a	n/a	-999	23	[0, 0, 0]	n/a	FR1	0	R1168T
2988.886	0.008	3011467	COUNTDOWN_END	n/a	n/a	n/a	-999	23	[0, 0, 0]	n/a	FR1	0	R1168T
2988.894	1.601	3011475	ORIENT	n/a	n/a	n/a	-999	23	[0, 0, 0]	n/a	FR1	0	R1168T
2990.495	2.117	3013075	ORIENT_OFF	n/a	n/a	n/a	-999	23	[0, 0, 0]	n/a	FR1	0	R1168T
2992.612	1.616	3015192	WORD	n/a	wordpools/wordpool_EN.txt	HAT	1	23	[0, 0, 0]	n/a	FR1	0	R1168T
2994.228	0.917	3016808	WORD_OFF	n/a	n/a	HAT	1	23	[0, 0, 0]	n/a	FR1	0	R1168T
2995.145	1.617	3017725	WORD	n/a	wordpools/wordpool_EN.txt	ROSE	2	23	[0, 0, 0]	n/a	FR1	0	R1168T
2996.762	0.851	3019342	WORD_OFF	n/a	n/a	ROSE	2	23	[0, 0, 0]	n/a	FR1	0	R1168T
2997.613	1.616	3020193	WORD	n/a	wordpools/wordpool_EN.txt	PANTS	3	23	[0, 0, 0]	n/a	FR1	0	R1168T
2999.229	0.783	3021809	WORD_OFF	n/a	n/a	PANTS	3	23	[0, 0, 0]	n/a	FR1	0	R1168T
3000.012	1.618	3022592	WORD	n/a	wordpools/wordpool_EN.txt	ELF	4	23	[0, 0, 0]	n/a	FR1	0	R1168T
3001.63	0.817	3024210	WORD_OFF	n/a	n/a	ELF	4	23	[0, 0, 0]	n/a	FR1	0	R1168T
3002.447	1.616	3025027	WORD	n/a	wordpools/wordpool_EN.txt	BARN	5	23	[0, 0, 0]	n/a	FR1	0	R1168T
3004.063	0.783	3026643	WORD_OFF	n/a	n/a	BARN	5	23	[0, 0, 0]	n/a	FR1	0	R1168T
3004.846	1.602	3027426	WORD	n/a	wordpools/wordpool_EN.txt	STOOL	6	23	[0, 0, 0]	n/a	FR1	0	R1168T
3006.448	0.9	3029028	WORD_OFF	n/a	n/a	STOOL	6	23	[0, 0, 0]	n/a	FR1	0	R1168T
3007.348	1.616	3029928	WORD	n/a	wordpools/wordpool_EN.txt	FUR	7	23	[0, 0, 0]	n/a	FR1	0	R1168T
3008.964	0.983	3031543	WORD_OFF	n/a	n/a	FUR	7	23	[0, 0, 0]	n/a	FR1	0	R1168T
3009.947	1.618	3032526	WORD	n/a	wordpools/wordpool_EN.txt	FENCE	8	23	[0, 0, 0]	n/a	FR1	0	R1168T
3011.565	0.884	3034144	WORD_OFF	n/a	n/a	FENCE	8	23	[0, 0, 0]	n/a	FR1	0	R1168T
3012.449	1.616	3035028	WORD	n/a	wordpools/wordpool_EN.txt	RAT	9	23	[0, 0, 0]	n/a	FR1	0	R1168T
3014.065	0.783	3036644	WORD_OFF	n/a	n/a	RAT	9	23	[0, 0, 0]	n/a	FR1	0	R1168T
3014.848	1.601	3037427	WORD	n/a	wordpools/wordpool_EN.txt	PET	10	23	[0, 0, 0]	n/a	FR1	0	R1168T
3016.449	0.884	3039028	WORD_OFF	n/a	n/a	PET	10	23	[0, 0, 0]	n/a	FR1	0	R1168T
3017.333	1.616	3039912	WORD	n/a	wordpools/wordpool_EN.txt	HORN	11	23	[0, 0, 0]	n/a	FR1	0	R1168T
3018.949	0.867	3041528	WORD_OFF	n/a	n/a	HORN	11	23	[0, 0, 0]	n/a	FR1	0	R1168T
3019.816	1.618	3042395	WORD	n/a	wordpools/wordpool_EN.txt	EAR	12	23	[0, 0, 0]	n/a	FR1	0	R1168T
3021.434	0.0	3044013	WORD_OFF	n/a	n/a	EAR	12	23	[0, 0, 0]	n/a	FR1	0	R1168T
3021.434	0.0	3044013	DISTRACT_START	n/a	n/a	n/a	-999	23	[0, 0, 0]	n/a	FR1	0	R1168T
3021.434	0.016	3044013	START	n/a	n/a	n/a	-999	23	[-999, -999, -999]	n/a	FR1	0	R1168T
3021.45	16.252	3044029	PROB	16.252	n/a	n/a	-999	23	[8, 4, 1]	13	FR1	0	R1168T
3037.702	4.744	3060280	PROB	4.744	n/a	n/a	-999	23	[2, 9, 6]	17	FR1	0	R1168T
3042.446	0.008	3065023	STOP	n/a	n/a	n/a	-999	23	[-999, -999, -999]	n/a	FR1	0	R1168T
3042.454	0.616	3065031	DISTRACT_END	n/a	n/a	n/a	-999	23	[0, 0, 0]	n/a	FR1	0	R1168T
3043.07	0.518	3065647	RETRIEVAL_ORIENT	n/a	n/a	n/a	-999	23	[0, 0, 0]	n/a	FR1	0	R1168T
3043.588	1.35	3066165	REC_START	n/a	n/a	n/a	-999	23	[0, 0, 0]	n/a	FR1	0	R1168T
3044.938	1.23	3067515	REC_WORD	1.23	n/a	PLUS	-999	23	[0, 0, 0]	n/a	FR1	0	R1168T
3046.168	1.07	3068745	REC_WORD	1.07	n/a	ROSE	2	23	[0, 0, 0]	n/a	FR1	0	R1168T
3047.238	0.93	3069815	REC_WORD	0.93	n/a	BARN	5	23	[0, 0, 0]	n/a	FR1	0	R1168T
3048.168	1.121	3070745	REC_WORD	1.121	n/a	STOOL	6	23	[0, 0, 0]	n/a	FR1	0	R1168T
3049.289	24.314	3071866	REC_WORD	24.314	n/a	FUR	7	23	[0, 0, 0]	n/a	FR1	0	R1168T
3073.603	9.558	3096179	REC_END	n/a	n/a	n/a	-999	23	[0, 0, 0]	n/a	FR1	0	R1168T
3083.161	0.5	3105736	TRIAL	n/a	n/a	n/a	-999	24	[0, 0, 0]	n/a	FR1	0	R1168T
3083.661	10.428	3106236	COUNTDOWN_START	n/a	n/a	n/a	-999	24	[0, 0, 0]	n/a	FR1	0	R1168T
3094.089	0.007	3116663	COUNTDOWN_END	n/a	n/a	n/a	-999	24	[0, 0, 0]	n/a	FR1	0	R1168T
3094.096	1.617	3116670	ORIENT	n/a	n/a	n/a	-999	24	[0, 0, 0]	n/a	FR1	0	R1168T
3095.713	2.217	3118287	ORIENT_OFF	n/a	n/a	n/a	-999	24	[0, 0, 0]	n/a	FR1	0	R1168T
3097.93	1.601	3120504	WORD	n/a	wordpools/wordpool_EN.txt	FRUIT	1	24	[0, 0, 0]	n/a	FR1	0	R1168T
3099.531	0.784	3122105	WORD_OFF	n/a	n/a	FRUIT	1	24	[0, 0, 0]	n/a	FR1	0	R1168T
3100.315	1.616	3122889	WORD	n/a	wordpools/wordpool_EN.txt	FOG	2	24	[0, 0, 0]	n/a	FR1	0	R1168T
3101.931	0.817	3124505	WORD_OFF	n/a	n/a	FOG	2	24	[0, 0, 0]	n/a	FR1	0	R1168T
3102.748	1.618	3125322	WORD	n/a	wordpools/wordpool_EN.txt	BOOT	3	24	[0, 0, 0]	n/a	FR1	0	R1168T
3104.366	0.899	3126940	WORD_OFF	n/a	n/a	BOOT	3	24	[0, 0, 0]	n/a	FR1	0	R1168T
3105.265	1.617	3127839	WORD	n/a	wordpools/wordpool_EN.txt	CUBE	4	24	[0, 0, 0]	n/a	FR1	0	R1168T
3106.882	0.866	3129456	WORD_OFF	n/a	n/a	CUBE	4	24	[0, 0, 0]	n/a	FR1	0	R1168T
3107.748	1.602	3130322	WORD	n/a	wordpools/wordpool_EN.txt	OAK	5	24	[0, 0, 0]	n/a	FR1	0	R1168T
3109.35	1.0	3131924	WORD_OFF	n/a	n/a	OAK	5	24	[0, 0, 0]	n/a	FR1	0	R1168T
3110.35	1.616	3132923	WORD	n/a	wordpools/wordpool_EN.txt	SWAMP	6	24	[0, 0, 0]	n/a	FR1	0	R1168T
3111.966	0.9	3134539	WORD_OFF	n/a	n/a	SWAMP	6	24	[0, 0, 0]	n/a	FR1	0	R1168T
3112.866	1.618	3135439	WORD	n/a	wordpools/wordpool_EN.txt	DEER	7	24	[0, 0, 0]	n/a	FR1	0	R1168T
3114.484	0.816	3137057	WORD_OFF	n/a	n/a	DEER	7	24	[0, 0, 0]	n/a	FR1	0	R1168T
3115.3	1.617	3137873	WORD	n/a	wordpools/wordpool_EN.txt	BLOOM	8	24	[0, 0, 0]	n/a	FR1	0	R1168T
3116.917	0.933	3139490	WORD_OFF	n/a	n/a	BLOOM	8	24	[0, 0, 0]	n/a	FR1	0	R1168T
3117.85	1.601	3140423	WORD	n/a	wordpools/wordpool_EN.txt	MOTH	9	24	[0, 0, 0]	n/a	FR1	0	R1168T
3119.451	0.868	3142024	WORD_OFF	n/a	n/a	MOTH	9	24	[0, 0, 0]	n/a	FR1	0	R1168T
3120.319	1.615	3142892	WORD	n/a	wordpools/wordpool_EN.txt	BUSH	10	24	[0, 0, 0]	n/a	FR1	0	R1168T
3121.934	0.817	3144507	WORD_OFF	n/a	n/a	BUSH	10	24	[0, 0, 0]	n/a	FR1	0	R1168T
3122.751	1.618	3145324	WORD	n/a	wordpools/wordpool_EN.txt	SNOW	11	24	[0, 0, 0]	n/a	FR1	0	R1168T
3124.369	0.833	3146942	WORD_OFF	n/a	n/a	SNOW	11	24	[0, 0, 0]	n/a	FR1	0	R1168T
3125.202	1.617	3147775	WORD	n/a	wordpools/wordpool_EN.txt	SPRING	12	24	[0, 0, 0]	n/a	FR1	0	R1168T
3126.819	0.0	3149392	WORD_OFF	n/a	n/a	SPRING	12	24	[0, 0, 0]	n/a	FR1	0	R1168T
3126.819	0.0	3149392	DISTRACT_START	n/a	n/a	n/a	-999	24	[0, 0, 0]	n/a	FR1	0	R1168T
3126.819	0.016	3149392	START	n/a	n/a	n/a	-999	24	[-999, -999, -999]	n/a	FR1	0	R1168T
3126.835	4.234	3149408	PROB	4.234	n/a	n/a	-999	24	[9, 3, 2]	14	FR1	0	R1168T
3131.069	3.218	3153641	PROB	3.218	n/a	n/a	-999	24	[5, 5, 8]	18	FR1	0	R1168T
3134.287	3.834	3156859	PROB	3.834	n/a	n/a	-999	24	[1, 3, 8]	12	FR1	0	R1168T
3138.121	3.85	3160693	PROB	3.85	n/a	n/a	-999	24	[2, 8, 7]	17	FR1	0	R1168T
3141.971	7.571	3164543	PROB	7.571	n/a	n/a	-999	24	[8, 9, 8]	25	FR1	0	R1168T
3149.542	0.015	3172113	STOP	n/a	n/a	n/a	-999	24	[-999, -999, -999]	n/a	FR1	0	R1168T
3149.557	0.549	3172128	DISTRACT_END	n/a	n/a	n/a	-999	24	[0, 0, 0]	n/a	FR1	0	R1168T
3150.106	0.519	3172677	RETRIEVAL_ORIENT	n/a	n/a	n/a	-999	24	[0, 0, 0]	n/a	FR1	0	R1168T
3150.625	0.544	3173196	REC_START	n/a	n/a	n/a	-999	24	[0, 0, 0]	n/a	FR1	0	R1168T
3151.169	0.852	3173740	REC_WORD	0.852	n/a	PLUS	-999	24	[0, 0, 0]	n/a	FR1	0	R1168T
3152.021	1.236	3174592	REC_WORD	1.236	n/a	FRUIT	1	24	[0, 0, 0]	n/a	FR1	0	R1168T
3153.257	0.825	3175828	REC_WORD	0.825	n/a	FOG	2	24	[0, 0, 0]	n/a	FR1	0	R1168T
3154.082	1.18	3176653	REC_WORD	1.18	n/a	SWAMP	6	24	[0, 0, 0]	n/a	FR1	0	R1168T
3155.262	1.155	3177833	REC_WORD	1.155	n/a	SNOW	11	24	[0, 0, 0]	n/a	FR1	0	R1168T
3156.417	8.314	3178988	REC_WORD	8.314	n/a	SPRING	12	24	[0, 0, 0]	n/a	FR1	0	R1168T
3164.731	3.9	3187301	REC_WORD	3.9	n/a	BLOOM	8	24	[0, 0, 0]	n/a	FR1	0	R1168T
3168.631	12.004	3191201	REC_WORD	12.004	n/a	FUR	-999	24	[0, 0, 0]	n/a	FR1	0	R1168T
3180.635	6.645	3203204	REC_END	n/a	n/a	n/a	-999	24	[0, 0, 0]	n/a	FR1	0	R1168T
3187.28	0.5	3209849	TRIAL	n/a	n/a	n/a	-999	25	[0, 0, 0]	n/a	FR1	0	R1168T
3187.78	10.428	3210349	COUNTDOWN_START	n/a	n/a	n/a	-999	25	[0, 0, 0]	n/a	FR1	0	R1168T
3198.208	0.007	3220776	COUNTDOWN_END	n/a	n/a	n/a	-999	25	[0, 0, 0]	n/a	FR1	0	R1168T
3198.215	1.617	3220783	ORIENT	n/a	n/a	n/a	-999	25	[0, 0, 0]	n/a	FR1	0	R1168T
3199.832	1.884	3222400	ORIENT_OFF	n/a	n/a	n/a	-999	25	[0, 0, 0]	n/a	FR1	0	R1168T
3201.716	1.618	3224284	WORD	n/a	wordpools/wordpool_EN.txt	TANK	1	25	[0, 0, 0]	n/a	FR1	0	R1168T
3203.334	0.799	3225902	WORD_OFF	n/a	n/a	TANK	1	25	[0, 0, 0]	n/a	FR1	0	R1168T
3204.133	1.617	3226701	WORD	n/a	wordpools/wordpool_EN.txt	SHRIMP	2	25	[0, 0, 0]	n/a	FR1	0	R1168T
3205.75	0.9	3228318	WORD_OFF	n/a	n/a	SHRIMP	2	25	[0, 0, 0]	n/a	FR1	0	R1168T
3206.65	1.617	3229218	WORD	n/a	wordpools/wordpool_EN.txt	FLAG	3	25	[0, 0, 0]	n/a	FR1	0	R1168T
3208.267	0.883	3230835	WORD_OFF	n/a	n/a	FLAG	3	25	[0, 0, 0]	n/a	FR1	0	R1168T
3209.15	1.617	3231718	WORD	n/a	wordpools/wordpool_EN.txt	BOAT	4	25	[0, 0, 0]	n/a	FR1	0	R1168T
3210.767	0.835	3233335	WORD_OFF	n/a	n/a	BOAT	4	25	[0, 0, 0]	n/a	FR1	0	R1168T
3211.602	1.616	3234170	WORD	n/a	wordpools/wordpool_EN.txt	BEACH	5	25	[0, 0, 0]	n/a	FR1	0	R1168T
3213.218	0.867	3235785	WORD_OFF	n/a	n/a	BEACH	5	25	[0, 0, 0]	n/a	FR1	0	R1168T
3214.085	1.616	3236652	WORD	n/a	wordpools/wordpool_EN.txt	SKY	6	25	[0, 0, 0]	n/a	FR1	0	R1168T
3215.701	0.852	3238268	WORD_OFF	n/a	n/a	SKY	6	25	[0, 0, 0]	n/a	FR1	0	R1168T
3216.553	1.616	3239120	WORD	n/a	wordpools/wordpool_EN.txt	FOAM	7	25	[0, 0, 0]	n/a	FR1	0	R1168T
3218.169	0.983	3240736	WORD_OFF	n/a	n/a	FOAM	7	25	[0, 0, 0]	n/a	FR1	0	R1168T
3219.152	1.617	3241719	WORD	n/a	wordpools/wordpool_EN.txt	FISH	8	25	[0, 0, 0]	n/a	FR1	0	R1168T
3220.769	0.967	3243336	WORD_OFF	n/a	n/a	FISH	8	25	[0, 0, 0]	n/a	FR1	0	R1168T
3221.736	1.618	3244303	WORD	n/a	wordpools/wordpool_EN.txt	SUN	9	25	[0, 0, 0]	n/a	FR1	0	R1168T
3223.354	0.932	3245921	WORD_OFF	n/a	n/a	SUN	9	25	[0, 0, 0]	n/a	FR1	0	R1168T
3224.286	1.617	3246853	WORD	n/a	wordpools/wordpool_EN.txt	DART	10	25	[0, 0, 0]	n/a	FR1	0	R1168T
3225.903	0.867	3248470	WORD_OFF	n/a	n/a	DART	10	25	[0, 0, 0]	n/a	FR1	0	R1168T
3226.77	1.618	3249337	WORD	n/a	wordpools/wordpool_EN.txt	SAIL	11	25	[0, 0, 0]	n/a	FR1	0	R1168T
3228.388	0.799	3250955	WORD_OFF	n/a	n/a	SAIL	11	25	[0, 0, 0]	n/a	FR1	0	R1168T
3229.187	1.617	3251754	WORD	n/a	wordpools/wordpool_EN.txt	WING	12	25	[0, 0, 0]	n/a	FR1	0	R1168T
3230.804	0.0	3253370	WORD_OFF	n/a	n/a	WING	12	25	[0, 0, 0]	n/a	FR1	0	R1168T
3230.804	0.001	3253370	DISTRACT_START	n/a	n/a	n/a	-999	25	[0, 0, 0]	n/a	FR1	0	R1168T
3230.805	0.016	3253371	START	n/a	n/a	n/a	-999	25	[-999, -999, -999]	n/a	FR1	0	R1168T
3230.821	5.884	3253387	PROB	5.884	n/a	n/a	-999	25	[1, 7, 2]	10	FR1	0	R1168T
3236.705	4.218	3259271	PROB	4.218	n/a	n/a	-999	25	[5, 6, 4]	15	FR1	0	R1168T
3240.923	7.602	3263489	PROB	7.602	n/a	n/a	-999	25	[5, 4, 8]	17	FR1	0	R1168T
3248.525	12.744	3271090	PROB	12.744	n/a	n/a	-999	25	[4, 3, 4]	11	FR1	0	R1168T
3261.269	0.007	3283834	STOP	n/a	n/a	n/a	-999	25	[-999, -999, -999]	n/a	FR1	0	R1168T
3261.276	0.567	3283841	DISTRACT_END	n/a	n/a	n/a	-999	25	[0, 0, 0]	n/a	FR1	0	R1168T
3261.843	0.519	3284408	RETRIEVAL_ORIENT	n/a	n/a	n/a	-999	25	[0, 0, 0]	n/a	FR1	0	R1168T
3262.362	1.699	3284927	REC_START	n/a	n/a	n/a	-999	25	[0, 0, 0]	n/a	FR1	0	R1168T
3264.061	0.844	3286626	REC_WORD	0.844	n/a	TANK	1	25	[0, 0, 0]	n/a	FR1	0	R1168T
3264.905	3.775	3287469	REC_WORD	3.775	n/a	FISH	8	25	[0, 0, 0]	n/a	FR1	0	R1168T
3268.68	12.78	3291244	REC_WORD	12.78	n/a	PLUS	-999	25	[0, 0, 0]	n/a	FR1	0	R1168T
3281.46	10.913	3304023	REC_WORD	10.913	n/a	BOAT	4	25	[0, 0, 0]	n/a	FR1	0	R1168T
3292.373	61.437	3314936	REC_END	n/a	n/a	n/a	-999	25	[0, 0, 0]	n/a	FR1	0	R1168T
3353.81	0.0	3376369	SESS_END	n/a	n/a	n/a	-999	25	[0, 0, 0]	n/a	FR1	0	R1168T
