onset	duration	sample	trial_type	response_time	stim_file	item_name	serialpos	list	test	answer	experiment	session	subject
0.0	0.0	381136	INSTRUCT_START	n/a	n/a	n/a	-999	-999	[0, 0, 0]	n/a	FR1	1	R1146E
0.0	10.958	381136	INSTRUCT_END	n/a	n/a	n/a	-999	-999	[0, 0, 0]	n/a	FR1	1	R1146E
10.958	0.0	392093	SESS_START	n/a	n/a	n/a	-999	-999	[0, 0, 0]	n/a	FR1	1	R1146E
10.958	42.0	392093	MIC_TEST	n/a	n/a	n/a	-999	-999	[0, 0, 0]	n/a	FR1	1	R1146E
52.958	15.82	434092	PRACTICE_TRIAL	n/a	n/a	n/a	-999	-1	[0, 0, 0]	n/a	FR1	1	R1146E
68.778	10.428	449911	COUNTDOWN_START	n/a	n/a	n/a	-999	-1	[0, 0, 0]	n/a	FR1	1	R1146E
79.206	0.007	460339	COUNTDOWN_END	n/a	n/a	n/a	-999	-1	[0, 0, 0]	n/a	FR1	1	R1146E
79.213	1.617	460346	PRACTICE_ORIENT	n/a	n/a	n/a	-999	-1	[0, 0, 0]	n/a	FR1	1	R1146E
80.83	2.384	461962	PRACTICE_ORIENT_OFF	n/a	n/a	n/a	-999	-1	[0, 0, 0]	n/a	FR1	1	R1146E
83.214	1.617	464346	PRACTICE_WORD	n/a	n/a	WATCH	1	-1	[0, 0, 0]	n/a	FR1	1	R1146E
84.831	0.883	465963	PRACTICE_WORD_OFF	n/a	n/a	WATCH	-999	-1	[0, 0, 0]	n/a	FR1	1	R1146E
85.714	1.617	466846	PRACTICE_WORD	n/a	n/a	RING	2	-1	[0, 0, 0]	n/a	FR1	1	R1146E
87.331	0.984	468463	PRACTICE_WORD_OFF	n/a	n/a	RING	-999	-1	[0, 0, 0]	n/a	FR1	1	R1146E
88.315	1.617	469447	PRACTICE_WORD	n/a	n/a	IRON	3	-1	[0, 0, 0]	n/a	FR1	1	R1146E
89.932	0.967	471064	PRACTICE_WORD_OFF	n/a	n/a	IRON	-999	-1	[0, 0, 0]	n/a	FR1	1	R1146E
90.899	1.616	472031	PRACTICE_WORD	n/a	n/a	TONGUE	4	-1	[0, 0, 0]	n/a	FR1	1	R1146E
92.515	0.817	473647	PRACTICE_WORD_OFF	n/a	n/a	TONGUE	-999	-1	[0, 0, 0]	n/a	FR1	1	R1146E
93.332	1.618	474464	PRACTICE_WORD	n/a	n/a	BEAM	5	-1	[0, 0, 0]	n/a	FR1	1	R1146E
94.95	0.883	476082	PRACTICE_WORD_OFF	n/a	n/a	BEAM	-999	-1	[0, 0, 0]	n/a	FR1	1	R1146E
95.833	1.616	476965	PRACTICE_WORD	n/a	n/a	CAMEL	6	-1	[0, 0, 0]	n/a	FR1	1	R1146E
97.449	0.884	478581	PRACTICE_WORD_OFF	n/a	n/a	CAMEL	-999	-1	[0, 0, 0]	n/a	FR1	1	R1146E
98.333	1.601	479465	PRACTICE_WORD	n/a	n/a	COTTON	7	-1	[0, 0, 0]	n/a	FR1	1	R1146E
99.934	1.0	481066	PRACTICE_WORD_OFF	n/a	n/a	COTTON	-999	-1	[0, 0, 0]	n/a	FR1	1	R1146E
100.934	1.616	482066	PRACTICE_WORD	n/a	n/a	CHEST	8	-1	[0, 0, 0]	n/a	FR1	1	R1146E
102.55	0.817	483682	PRACTICE_WORD_OFF	n/a	n/a	CHEST	-999	-1	[0, 0, 0]	n/a	FR1	1	R1146E
103.367	1.618	484499	PRACTICE_WORD	n/a	n/a	RHINO	9	-1	[0, 0, 0]	n/a	FR1	1	R1146E
104.985	0.984	486117	PRACTICE_WORD_OFF	n/a	n/a	RHINO	-999	-1	[0, 0, 0]	n/a	FR1	1	R1146E
105.969	1.616	487100	PRACTICE_WORD	n/a	n/a	WAGON	10	-1	[0, 0, 0]	n/a	FR1	1	R1146E
107.585	0.883	488716	PRACTICE_WORD_OFF	n/a	n/a	WAGON	-999	-1	[0, 0, 0]	n/a	FR1	1	R1146E
108.468	1.617	489599	PRACTICE_WORD	n/a	n/a	ATTIC	11	-1	[0, 0, 0]	n/a	FR1	1	R1146E
110.085	0.951	491216	PRACTICE_WORD_OFF	n/a	n/a	ATTIC	-999	-1	[0, 0, 0]	n/a	FR1	1	R1146E
111.036	1.616	492167	PRACTICE_WORD	n/a	n/a	FLOOD	12	-1	[0, 0, 0]	n/a	FR1	1	R1146E
112.652	0.0	493783	PRACTICE_WORD_OFF	n/a	n/a	FLOOD	-999	-1	[0, 0, 0]	n/a	FR1	1	R1146E
112.652	0.001	493783	DISTRACT_START	n/a	n/a	n/a	-999	-1	[0, 0, 0]	n/a	FR1	1	R1146E
112.653	0.016	493784	START	n/a	n/a	n/a	-999	-1	[-999, -999, -999]	n/a	FR1	1	R1146E
112.669	7.051	493800	PROB	7.051	n/a	n/a	-999	-1	[9, 3, 6]	18	FR1	1	R1146E
119.72	9.253	500851	PROB	9.253	n/a	n/a	-999	-1	[3, 9, 3]	15	FR1	1	R1146E
128.973	5.082	510104	PROB	5.082	n/a	n/a	-999	-1	[2, 9, 9]	20	FR1	1	R1146E
134.055	0.018	515185	STOP	n/a	n/a	n/a	-999	-1	[-999, -999, -999]	n/a	FR1	1	R1146E
134.073	0.7	515203	DISTRACT_END	n/a	n/a	n/a	-999	-1	[0, 0, 0]	n/a	FR1	1	R1146E
134.773	0.518	515903	RETRIEVAL_ORIENT	n/a	n/a	n/a	-999	-1	[0, 0, 0]	n/a	FR1	1	R1146E
135.291	30.01	516421	PRACTICE_REC_START	n/a	n/a	n/a	-999	-1	[0, 0, 0]	n/a	FR1	1	R1146E
165.301	15.096	546430	PRACTICE_REC_END	n/a	n/a	n/a	-999	-1	[0, 0, 0]	n/a	FR1	1	R1146E
180.397	0.5	561525	TRIAL	n/a	n/a	n/a	-999	1	[0, 0, 0]	n/a	FR1	1	R1146E
180.897	10.428	562025	COUNTDOWN_START	n/a	n/a	n/a	-999	1	[0, 0, 0]	n/a	FR1	1	R1146E
191.325	0.008	572453	COUNTDOWN_END	n/a	n/a	n/a	-999	1	[0, 0, 0]	n/a	FR1	1	R1146E
191.333	1.618	572461	ORIENT	n/a	n/a	n/a	-999	1	[0, 0, 0]	n/a	FR1	1	R1146E
192.951	2.067	574079	ORIENT_OFF	n/a	n/a	n/a	-999	1	[0, 0, 0]	n/a	FR1	1	R1146E
195.018	1.616	576146	WORD	n/a	wordpools/wordpool_EN.txt	BAND	1	1	[0, 0, 0]	n/a	FR1	1	R1146E
196.634	1.0	577762	WORD_OFF	n/a	n/a	BAND	1	1	[0, 0, 0]	n/a	FR1	1	R1146E
197.634	1.617	578762	WORD	n/a	wordpools/wordpool_EN.txt	CLIFF	2	1	[0, 0, 0]	n/a	FR1	1	R1146E
199.251	0.983	580379	WORD_OFF	n/a	n/a	CLIFF	2	1	[0, 0, 0]	n/a	FR1	1	R1146E
200.234	1.618	581362	WORD	n/a	wordpools/wordpool_EN.txt	BADGE	3	1	[0, 0, 0]	n/a	FR1	1	R1146E
201.852	0.966	582980	WORD_OFF	n/a	n/a	BADGE	3	1	[0, 0, 0]	n/a	FR1	1	R1146E
202.818	1.617	583946	WORD	n/a	wordpools/wordpool_EN.txt	ROOF	4	1	[0, 0, 0]	n/a	FR1	1	R1146E
204.435	1.0	585562	WORD_OFF	n/a	n/a	ROOF	4	1	[0, 0, 0]	n/a	FR1	1	R1146E
205.435	1.618	586562	WORD	n/a	wordpools/wordpool_EN.txt	TAIL	5	1	[0, 0, 0]	n/a	FR1	1	R1146E
207.053	0.884	588180	WORD_OFF	n/a	n/a	TAIL	5	1	[0, 0, 0]	n/a	FR1	1	R1146E
207.937	1.616	589064	WORD	n/a	wordpools/wordpool_EN.txt	GOLD	6	1	[0, 0, 0]	n/a	FR1	1	R1146E
209.553	0.883	590680	WORD_OFF	n/a	n/a	GOLD	6	1	[0, 0, 0]	n/a	FR1	1	R1146E
210.436	1.601	591563	WORD	n/a	wordpools/wordpool_EN.txt	PIG	7	1	[0, 0, 0]	n/a	FR1	1	R1146E
212.037	0.934	593164	WORD_OFF	n/a	n/a	PIG	7	1	[0, 0, 0]	n/a	FR1	1	R1146E
212.971	1.616	594098	WORD	n/a	wordpools/wordpool_EN.txt	ROSE	8	1	[0, 0, 0]	n/a	FR1	1	R1146E
214.587	0.766	595714	WORD_OFF	n/a	n/a	ROSE	8	1	[0, 0, 0]	n/a	FR1	1	R1146E
215.353	1.602	596480	WORD	n/a	wordpools/wordpool_EN.txt	STORM	9	1	[0, 0, 0]	n/a	FR1	1	R1146E
216.955	0.799	598082	WORD_OFF	n/a	n/a	STORM	9	1	[0, 0, 0]	n/a	FR1	1	R1146E
217.754	1.617	598881	WORD	n/a	wordpools/wordpool_EN.txt	FUR	10	1	[0, 0, 0]	n/a	FR1	1	R1146E
219.371	0.85	600498	WORD_OFF	n/a	n/a	FUR	10	1	[0, 0, 0]	n/a	FR1	1	R1146E
220.221	1.617	601348	WORD	n/a	wordpools/wordpool_EN.txt	RIB	11	1	[0, 0, 0]	n/a	FR1	1	R1146E
221.838	0.867	602965	WORD_OFF	n/a	n/a	RIB	11	1	[0, 0, 0]	n/a	FR1	1	R1146E
222.705	1.617	603832	WORD	n/a	wordpools/wordpool_EN.txt	TRUCK	12	1	[0, 0, 0]	n/a	FR1	1	R1146E
224.322	0.0	605449	WORD_OFF	n/a	n/a	TRUCK	12	1	[0, 0, 0]	n/a	FR1	1	R1146E
224.322	0.0	605449	DISTRACT_START	n/a	n/a	n/a	-999	1	[0, 0, 0]	n/a	FR1	1	R1146E
224.322	0.016	605449	START	n/a	n/a	n/a	-999	1	[-999, -999, -999]	n/a	FR1	1	R1146E
224.338	5.335	605465	PROB	5.335	n/a	n/a	-999	1	[9, 1, 4]	14	FR1	1	R1146E
229.673	10.652	610799	PROB	10.652	n/a	n/a	-999	1	[9, 5, 7]	21	FR1	1	R1146E
240.325	4.764	621451	PROB	4.764	n/a	n/a	-999	1	[1, 4, 2]	7	FR1	1	R1146E
245.089	0.02	626215	STOP	n/a	n/a	n/a	-999	1	[-999, -999, -999]	n/a	FR1	1	R1146E
245.109	0.516	626235	DISTRACT_END	n/a	n/a	n/a	-999	1	[0, 0, 0]	n/a	FR1	1	R1146E
245.625	0.518	626751	RETRIEVAL_ORIENT	n/a	n/a	n/a	-999	1	[0, 0, 0]	n/a	FR1	1	R1146E
246.143	2.251	627269	REC_START	n/a	n/a	n/a	-999	1	[0, 0, 0]	n/a	FR1	1	R1146E
248.394	27.758	629520	REC_WORD	27.758	n/a	GOLD	-999	1	[0, 0, 0]	n/a	FR1	1	R1146E
276.152	14.598	657277	REC_END	n/a	n/a	n/a	-999	1	[0, 0, 0]	n/a	FR1	1	R1146E
290.75	0.5	671874	TRIAL	n/a	n/a	n/a	-999	2	[0, 0, 0]	n/a	FR1	1	R1146E
291.25	10.428	672374	COUNTDOWN_START	n/a	n/a	n/a	-999	2	[0, 0, 0]	n/a	FR1	1	R1146E
301.678	0.007	682802	COUNTDOWN_END	n/a	n/a	n/a	-999	2	[0, 0, 0]	n/a	FR1	1	R1146E
301.685	1.617	682809	ORIENT	n/a	n/a	n/a	-999	2	[0, 0, 0]	n/a	FR1	1	R1146E
303.302	2.151	684426	ORIENT_OFF	n/a	n/a	n/a	-999	2	[0, 0, 0]	n/a	FR1	1	R1146E
305.453	1.617	686576	WORD	n/a	wordpools/wordpool_EN.txt	BAG	1	2	[0, 0, 0]	n/a	FR1	1	R1146E
307.07	0.884	688193	WORD_OFF	n/a	n/a	BAG	1	2	[0, 0, 0]	n/a	FR1	1	R1146E
307.954	1.616	689077	WORD	n/a	wordpools/wordpool_EN.txt	FOAM	2	2	[0, 0, 0]	n/a	FR1	1	R1146E
309.57	0.934	690693	WORD_OFF	n/a	n/a	FOAM	2	2	[0, 0, 0]	n/a	FR1	1	R1146E
310.504	1.617	691627	WORD	n/a	wordpools/wordpool_EN.txt	TOAST	3	2	[0, 0, 0]	n/a	FR1	1	R1146E
312.121	0.901	693244	WORD_OFF	n/a	n/a	TOAST	3	2	[0, 0, 0]	n/a	FR1	1	R1146E
313.022	1.616	694145	WORD	n/a	wordpools/wordpool_EN.txt	PALM	4	2	[0, 0, 0]	n/a	FR1	1	R1146E
314.638	1.0	695761	WORD_OFF	n/a	n/a	PALM	4	2	[0, 0, 0]	n/a	FR1	1	R1146E
315.638	1.617	696761	WORD	n/a	wordpools/wordpool_EN.txt	SINK	5	2	[0, 0, 0]	n/a	FR1	1	R1146E
317.255	0.933	698378	WORD_OFF	n/a	n/a	SINK	5	2	[0, 0, 0]	n/a	FR1	1	R1146E
318.188	1.617	699311	WORD	n/a	wordpools/wordpool_EN.txt	WEED	6	2	[0, 0, 0]	n/a	FR1	1	R1146E
319.805	0.9	700928	WORD_OFF	n/a	n/a	WEED	6	2	[0, 0, 0]	n/a	FR1	1	R1146E
320.705	1.617	701828	WORD	n/a	wordpools/wordpool_EN.txt	TRAY	7	2	[0, 0, 0]	n/a	FR1	1	R1146E
322.322	0.984	703445	WORD_OFF	n/a	n/a	TRAY	7	2	[0, 0, 0]	n/a	FR1	1	R1146E
323.306	1.618	704429	WORD	n/a	wordpools/wordpool_EN.txt	SNOW	8	2	[0, 0, 0]	n/a	FR1	1	R1146E
324.924	0.782	706047	WORD_OFF	n/a	n/a	SNOW	8	2	[0, 0, 0]	n/a	FR1	1	R1146E
325.706	1.617	706829	WORD	n/a	wordpools/wordpool_EN.txt	FENCE	9	2	[0, 0, 0]	n/a	FR1	1	R1146E
327.323	0.884	708446	WORD_OFF	n/a	n/a	FENCE	9	2	[0, 0, 0]	n/a	FR1	1	R1146E
328.207	1.617	709329	WORD	n/a	wordpools/wordpool_EN.txt	NEST	10	2	[0, 0, 0]	n/a	FR1	1	R1146E
329.824	1.0	710946	WORD_OFF	n/a	n/a	NEST	10	2	[0, 0, 0]	n/a	FR1	1	R1146E
330.824	1.617	711946	WORD	n/a	wordpools/wordpool_EN.txt	COW	11	2	[0, 0, 0]	n/a	FR1	1	R1146E
332.441	0.917	713563	WORD_OFF	n/a	n/a	COW	11	2	[0, 0, 0]	n/a	FR1	1	R1146E
333.358	1.618	714480	WORD	n/a	wordpools/wordpool_EN.txt	GEESE	12	2	[0, 0, 0]	n/a	FR1	1	R1146E
334.976	0.0	716098	DISTRACT_START	n/a	n/a	n/a	-999	2	[0, 0, 0]	n/a	FR1	1	R1146E
334.976	0.0	716098	WORD_OFF	n/a	n/a	GEESE	12	2	[0, 0, 0]	n/a	FR1	1	R1146E
334.976	0.016	716098	START	n/a	n/a	n/a	-999	2	[-999, -999, -999]	n/a	FR1	1	R1146E
334.992	12.802	716114	PROB	12.802	n/a	n/a	-999	2	[8, 9, 3]	20	FR1	1	R1146E
347.794	19.447	728916	PROB	19.447	n/a	n/a	-999	2	[8, 4, 3]	15	FR1	1	R1146E
367.241	0.006	748362	STOP	n/a	n/a	n/a	-999	2	[-999, -999, -999]	n/a	FR1	1	R1146E
367.247	0.567	748368	DISTRACT_END	n/a	n/a	n/a	-999	2	[0, 0, 0]	n/a	FR1	1	R1146E
367.814	0.517	748935	RETRIEVAL_ORIENT	n/a	n/a	n/a	-999	2	[0, 0, 0]	n/a	FR1	1	R1146E
368.331	1.143	749452	REC_START	n/a	n/a	n/a	-999	2	[0, 0, 0]	n/a	FR1	1	R1146E
369.474	5.279	750595	REC_WORD	5.279	n/a	GEESE	-999	2	[0, 0, 0]	n/a	FR1	1	R1146E
374.753	5.423	755874	REC_WORD	5.423	n/a	SNOW	-999	2	[0, 0, 0]	n/a	FR1	1	R1146E
380.176	18.165	761296	REC_WORD	18.165	n/a	COW	-999	2	[0, 0, 0]	n/a	FR1	1	R1146E
398.341	11.497	779461	REC_END	n/a	n/a	n/a	-999	2	[0, 0, 0]	n/a	FR1	1	R1146E
409.838	0.5	790957	TRIAL	n/a	n/a	n/a	-999	3	[0, 0, 0]	n/a	FR1	1	R1146E
410.338	10.428	791457	COUNTDOWN_START	n/a	n/a	n/a	-999	3	[0, 0, 0]	n/a	FR1	1	R1146E
420.766	0.007	801885	COUNTDOWN_END	n/a	n/a	n/a	-999	3	[0, 0, 0]	n/a	FR1	1	R1146E
420.773	1.617	801892	ORIENT	n/a	n/a	n/a	-999	3	[0, 0, 0]	n/a	FR1	1	R1146E
422.39	2.167	803509	ORIENT_OFF	n/a	n/a	n/a	-999	3	[0, 0, 0]	n/a	FR1	1	R1146E
424.557	1.617	805676	WORD	n/a	wordpools/wordpool_EN.txt	PHONE	1	3	[0, 0, 0]	n/a	FR1	1	R1146E
426.174	0.818	807293	WORD_OFF	n/a	n/a	PHONE	1	3	[0, 0, 0]	n/a	FR1	1	R1146E
426.992	1.616	808111	WORD	n/a	wordpools/wordpool_EN.txt	HEART	2	3	[0, 0, 0]	n/a	FR1	1	R1146E
428.608	0.783	809726	WORD_OFF	n/a	n/a	HEART	2	3	[0, 0, 0]	n/a	FR1	1	R1146E
429.391	1.601	810509	WORD	n/a	wordpools/wordpool_EN.txt	PEARL	3	3	[0, 0, 0]	n/a	FR1	1	R1146E
430.992	0.766	812110	WORD_OFF	n/a	n/a	PEARL	3	3	[0, 0, 0]	n/a	FR1	1	R1146E
431.758	1.617	812876	WORD	n/a	wordpools/wordpool_EN.txt	ROCK	4	3	[0, 0, 0]	n/a	FR1	1	R1146E
433.375	0.934	814493	WORD_OFF	n/a	n/a	ROCK	4	3	[0, 0, 0]	n/a	FR1	1	R1146E
434.309	1.618	815427	WORD	n/a	wordpools/wordpool_EN.txt	CLOCK	5	3	[0, 0, 0]	n/a	FR1	1	R1146E
435.927	0.799	817045	WORD_OFF	n/a	n/a	CLOCK	5	3	[0, 0, 0]	n/a	FR1	1	R1146E
436.726	1.617	817844	WORD	n/a	wordpools/wordpool_EN.txt	OAK	6	3	[0, 0, 0]	n/a	FR1	1	R1146E
438.343	0.85	819461	WORD_OFF	n/a	n/a	OAK	6	3	[0, 0, 0]	n/a	FR1	1	R1146E
439.193	1.617	820311	WORD	n/a	wordpools/wordpool_EN.txt	FORK	7	3	[0, 0, 0]	n/a	FR1	1	R1146E
440.81	0.817	821928	WORD_OFF	n/a	n/a	FORK	7	3	[0, 0, 0]	n/a	FR1	1	R1146E
441.627	1.617	822745	WORD	n/a	wordpools/wordpool_EN.txt	FORT	8	3	[0, 0, 0]	n/a	FR1	1	R1146E
443.244	0.767	824362	WORD_OFF	n/a	n/a	FORT	8	3	[0, 0, 0]	n/a	FR1	1	R1146E
444.011	1.616	825129	WORD	n/a	wordpools/wordpool_EN.txt	FROG	9	3	[0, 0, 0]	n/a	FR1	1	R1146E
445.627	0.817	826745	WORD_OFF	n/a	n/a	FROG	9	3	[0, 0, 0]	n/a	FR1	1	R1146E
446.444	1.601	827562	WORD	n/a	wordpools/wordpool_EN.txt	SKI	10	3	[0, 0, 0]	n/a	FR1	1	R1146E
448.045	0.967	829163	WORD_OFF	n/a	n/a	SKI	10	3	[0, 0, 0]	n/a	FR1	1	R1146E
449.012	1.616	830130	WORD	n/a	wordpools/wordpool_EN.txt	FLEA	11	3	[0, 0, 0]	n/a	FR1	1	R1146E
450.628	0.984	831746	WORD_OFF	n/a	n/a	FLEA	11	3	[0, 0, 0]	n/a	FR1	1	R1146E
451.612	1.617	832730	WORD	n/a	wordpools/wordpool_EN.txt	STONE	12	3	[0, 0, 0]	n/a	FR1	1	R1146E
453.229	0.0	834346	WORD_OFF	n/a	n/a	STONE	12	3	[0, 0, 0]	n/a	FR1	1	R1146E
453.229	0.0	834346	DISTRACT_START	n/a	n/a	n/a	-999	3	[0, 0, 0]	n/a	FR1	1	R1146E
453.229	0.016	834346	START	n/a	n/a	n/a	-999	3	[-999, -999, -999]	n/a	FR1	1	R1146E
453.245	13.236	834362	PROB	13.236	n/a	n/a	-999	3	[9, 7, 6]	22	FR1	1	R1146E
466.481	5.951	847598	PROB	5.951	n/a	n/a	-999	3	[8, 1, 6]	15	FR1	1	R1146E
472.432	4.942	853549	PROB	4.942	n/a	n/a	-999	3	[8, 5, 5]	18	FR1	1	R1146E
477.374	0.009	858490	STOP	n/a	n/a	n/a	-999	3	[-999, -999, -999]	n/a	FR1	1	R1146E
477.383	0.683	858499	DISTRACT_END	n/a	n/a	n/a	-999	3	[0, 0, 0]	n/a	FR1	1	R1146E
478.066	0.518	859182	RETRIEVAL_ORIENT	n/a	n/a	n/a	-999	3	[0, 0, 0]	n/a	FR1	1	R1146E
478.584	2.609	859700	REC_START	n/a	n/a	n/a	-999	3	[0, 0, 0]	n/a	FR1	1	R1146E
481.193	4.919	862309	REC_WORD_VV	4.919	n/a	<>	-999	3	[0, 0, 0]	n/a	FR1	1	R1146E
486.112	4.537	867228	REC_WORD	4.537	n/a	SKI	-999	3	[0, 0, 0]	n/a	FR1	1	R1146E
490.649	3.498	871765	REC_WORD	3.498	n/a	COW	-999	3	[0, 0, 0]	n/a	FR1	1	R1146E
494.147	8.506	875263	REC_WORD	8.506	n/a	FROG	-999	3	[0, 0, 0]	n/a	FR1	1	R1146E
502.653	5.941	883768	REC_WORD	5.941	n/a	SNOW	-999	3	[0, 0, 0]	n/a	FR1	1	R1146E
508.594	46.853	889709	REC_END	n/a	n/a	n/a	-999	3	[0, 0, 0]	n/a	FR1	1	R1146E
555.447	0.5	936560	TRIAL	n/a	n/a	n/a	-999	4	[0, 0, 0]	n/a	FR1	1	R1146E
555.947	10.428	937060	COUNTDOWN_START	n/a	n/a	n/a	-999	4	[0, 0, 0]	n/a	FR1	1	R1146E
566.375	0.007	947488	COUNTDOWN_END	n/a	n/a	n/a	-999	4	[0, 0, 0]	n/a	FR1	1	R1146E
566.382	1.618	947495	ORIENT	n/a	n/a	n/a	-999	4	[0, 0, 0]	n/a	FR1	1	R1146E
568.0	2.034	949113	ORIENT_OFF	n/a	n/a	n/a	-999	4	[0, 0, 0]	n/a	FR1	1	R1146E
570.034	1.616	951147	WORD	n/a	wordpools/wordpool_EN.txt	SOAP	1	4	[0, 0, 0]	n/a	FR1	1	R1146E
571.65	1.016	952763	WORD_OFF	n/a	n/a	SOAP	1	4	[0, 0, 0]	n/a	FR1	1	R1146E
572.666	1.617	953779	WORD	n/a	wordpools/wordpool_EN.txt	BIRD	2	4	[0, 0, 0]	n/a	FR1	1	R1146E
574.283	0.8	955396	WORD_OFF	n/a	n/a	BIRD	2	4	[0, 0, 0]	n/a	FR1	1	R1146E
575.083	1.617	956196	WORD	n/a	wordpools/wordpool_EN.txt	PLANT	3	4	[0, 0, 0]	n/a	FR1	1	R1146E
576.7	0.901	957812	WORD_OFF	n/a	n/a	PLANT	3	4	[0, 0, 0]	n/a	FR1	1	R1146E
577.601	1.616	958713	WORD	n/a	wordpools/wordpool_EN.txt	BOMB	4	4	[0, 0, 0]	n/a	FR1	1	R1146E
579.217	0.835	960329	WORD_OFF	n/a	n/a	BOMB	4	4	[0, 0, 0]	n/a	FR1	1	R1146E
580.052	1.616	961164	WORD	n/a	wordpools/wordpool_EN.txt	SLIME	5	4	[0, 0, 0]	n/a	FR1	1	R1146E
581.668	0.9	962780	WORD_OFF	n/a	n/a	SLIME	5	4	[0, 0, 0]	n/a	FR1	1	R1146E
582.568	1.617	963680	WORD	n/a	wordpools/wordpool_EN.txt	HILL	6	4	[0, 0, 0]	n/a	FR1	1	R1146E
584.185	0.818	965297	WORD_OFF	n/a	n/a	HILL	6	4	[0, 0, 0]	n/a	FR1	1	R1146E
585.003	1.616	966115	WORD	n/a	wordpools/wordpool_EN.txt	TEA	7	4	[0, 0, 0]	n/a	FR1	1	R1146E
586.619	0.867	967731	WORD_OFF	n/a	n/a	TEA	7	4	[0, 0, 0]	n/a	FR1	1	R1146E
587.486	1.617	968598	WORD	n/a	wordpools/wordpool_EN.txt	ANT	8	4	[0, 0, 0]	n/a	FR1	1	R1146E
589.103	1.0	970215	WORD_OFF	n/a	n/a	ANT	8	4	[0, 0, 0]	n/a	FR1	1	R1146E
590.103	1.617	971215	WORD	n/a	wordpools/wordpool_EN.txt	AXE	9	4	[0, 0, 0]	n/a	FR1	1	R1146E
591.72	0.967	972832	WORD_OFF	n/a	n/a	AXE	9	4	[0, 0, 0]	n/a	FR1	1	R1146E
592.687	1.616	973799	WORD	n/a	wordpools/wordpool_EN.txt	TOOTH	10	4	[0, 0, 0]	n/a	FR1	1	R1146E
594.303	0.767	975415	WORD_OFF	n/a	n/a	TOOTH	10	4	[0, 0, 0]	n/a	FR1	1	R1146E
595.07	1.617	976182	WORD	n/a	wordpools/wordpool_EN.txt	CAVE	11	4	[0, 0, 0]	n/a	FR1	1	R1146E
596.687	0.784	977799	WORD_OFF	n/a	n/a	CAVE	11	4	[0, 0, 0]	n/a	FR1	1	R1146E
597.471	1.616	978583	WORD	n/a	wordpools/wordpool_EN.txt	STOVE	12	4	[0, 0, 0]	n/a	FR1	1	R1146E
599.087	0.0	980199	WORD_OFF	n/a	n/a	STOVE	12	4	[0, 0, 0]	n/a	FR1	1	R1146E
599.087	0.001	980199	DISTRACT_START	n/a	n/a	n/a	-999	4	[0, 0, 0]	n/a	FR1	1	R1146E
599.088	0.016	980200	START	n/a	n/a	n/a	-999	4	[-999, -999, -999]	n/a	FR1	1	R1146E
599.104	9.469	980216	PROB	9.469	n/a	n/a	-999	4	[4, 8, 3]	15	FR1	1	R1146E
608.573	3.084	989684	PROB	3.084	n/a	n/a	-999	4	[1, 4, 1]	6	FR1	1	R1146E
611.657	6.601	992768	PROB	6.601	n/a	n/a	-999	4	[3, 3, 9]	15	FR1	1	R1146E
618.258	41.503	999369	PROB	41.503	n/a	n/a	-999	4	[5, 6, 8]	19	FR1	1	R1146E
659.761	0.021	1040870	STOP	n/a	n/a	n/a	-999	4	[-999, -999, -999]	n/a	FR1	1	R1146E
659.782	0.566	1040891	DISTRACT_END	n/a	n/a	n/a	-999	4	[0, 0, 0]	n/a	FR1	1	R1146E
660.348	0.519	1041457	RETRIEVAL_ORIENT	n/a	n/a	n/a	-999	4	[0, 0, 0]	n/a	FR1	1	R1146E
660.867	1.393	1041976	REC_START	n/a	n/a	n/a	-999	4	[0, 0, 0]	n/a	FR1	1	R1146E
662.26	5.217	1043369	REC_WORD	5.217	n/a	STOVE	-999	4	[0, 0, 0]	n/a	FR1	1	R1146E
667.477	20.096	1048586	REC_WORD	20.096	n/a	AXE	-999	4	[0, 0, 0]	n/a	FR1	1	R1146E
687.573	1.0	1068681	REC_WORD_VV	1.0	n/a	<>	-999	4	[0, 0, 0]	n/a	FR1	1	R1146E
688.573	1.0	1069681	REC_WORD_VV	1.0	n/a	<>	-999	4	[0, 0, 0]	n/a	FR1	1	R1146E
689.573	1.0	1070681	REC_WORD_VV	1.0	n/a	<>	-999	4	[0, 0, 0]	n/a	FR1	1	R1146E
690.573	0.304	1071681	REC_WORD_VV	0.304	n/a	<>	-999	4	[0, 0, 0]	n/a	FR1	1	R1146E
690.877	567.493	1071985	REC_END	n/a	n/a	n/a	-999	4	[0, 0, 0]	n/a	FR1	1	R1146E
1258.37	0.5	1639455	TRIAL	n/a	n/a	n/a	-999	5	[0, 0, 0]	n/a	FR1	1	R1146E
1258.87	10.428	1639955	COUNTDOWN_START	n/a	n/a	n/a	-999	5	[0, 0, 0]	n/a	FR1	1	R1146E
1269.298	0.008	1650382	COUNTDOWN_END	n/a	n/a	n/a	-999	5	[0, 0, 0]	n/a	FR1	1	R1146E
1269.306	1.618	1650390	ORIENT	n/a	n/a	n/a	-999	5	[0, 0, 0]	n/a	FR1	1	R1146E
1270.924	2.166	1652008	ORIENT_OFF	n/a	n/a	n/a	-999	5	[0, 0, 0]	n/a	FR1	1	R1146E
1273.09	1.617	1654174	WORD	n/a	wordpools/wordpool_EN.txt	SHIP	1	5	[0, 0, 0]	n/a	FR1	1	R1146E
1274.707	0.983	1655791	WORD_OFF	n/a	n/a	SHIP	1	5	[0, 0, 0]	n/a	FR1	1	R1146E
1275.69	1.617	1656774	WORD	n/a	wordpools/wordpool_EN.txt	HOUSE	2	5	[0, 0, 0]	n/a	FR1	1	R1146E
1277.307	0.967	1658391	WORD_OFF	n/a	n/a	HOUSE	2	5	[0, 0, 0]	n/a	FR1	1	R1146E
1278.274	1.601	1659358	WORD	n/a	wordpools/wordpool_EN.txt	CORD	3	5	[0, 0, 0]	n/a	FR1	1	R1146E
1279.875	0.833	1660959	WORD_OFF	n/a	n/a	CORD	3	5	[0, 0, 0]	n/a	FR1	1	R1146E
1280.708	1.617	1661792	WORD	n/a	wordpools/wordpool_EN.txt	PLANE	4	5	[0, 0, 0]	n/a	FR1	1	R1146E
1282.325	0.85	1663409	WORD_OFF	n/a	n/a	PLANE	4	5	[0, 0, 0]	n/a	FR1	1	R1146E
1283.175	1.617	1664259	WORD	n/a	wordpools/wordpool_EN.txt	JUDGE	5	5	[0, 0, 0]	n/a	FR1	1	R1146E
1284.792	0.933	1665876	WORD_OFF	n/a	n/a	JUDGE	5	5	[0, 0, 0]	n/a	FR1	1	R1146E
1285.725	1.617	1666809	WORD	n/a	wordpools/wordpool_EN.txt	DRUM	6	5	[0, 0, 0]	n/a	FR1	1	R1146E
1287.342	0.967	1668426	WORD_OFF	n/a	n/a	DRUM	6	5	[0, 0, 0]	n/a	FR1	1	R1146E
1288.309	1.601	1669393	WORD	n/a	wordpools/wordpool_EN.txt	LEAF	7	5	[0, 0, 0]	n/a	FR1	1	R1146E
1289.91	0.984	1670994	WORD_OFF	n/a	n/a	LEAF	7	5	[0, 0, 0]	n/a	FR1	1	R1146E
1290.894	1.616	1671978	WORD	n/a	wordpools/wordpool_EN.txt	POND	8	5	[0, 0, 0]	n/a	FR1	1	R1146E
1292.51	0.783	1673594	WORD_OFF	n/a	n/a	POND	8	5	[0, 0, 0]	n/a	FR1	1	R1146E
1293.293	1.601	1674377	WORD	n/a	wordpools/wordpool_EN.txt	TOAD	9	5	[0, 0, 0]	n/a	FR1	1	R1146E
1294.894	0.984	1675977	WORD_OFF	n/a	n/a	TOAD	9	5	[0, 0, 0]	n/a	FR1	1	R1146E
1295.878	1.616	1676961	WORD	n/a	wordpools/wordpool_EN.txt	HORN	10	5	[0, 0, 0]	n/a	FR1	1	R1146E
1297.494	0.8	1678577	WORD_OFF	n/a	n/a	HORN	10	5	[0, 0, 0]	n/a	FR1	1	R1146E
1298.294	1.618	1679377	WORD	n/a	wordpools/wordpool_EN.txt	HORSE	11	5	[0, 0, 0]	n/a	FR1	1	R1146E
1299.912	0.849	1680995	WORD_OFF	n/a	n/a	HORSE	11	5	[0, 0, 0]	n/a	FR1	1	R1146E
1300.761	1.617	1681844	WORD	n/a	wordpools/wordpool_EN.txt	EEL	12	5	[0, 0, 0]	n/a	FR1	1	R1146E
1302.378	0.0	1683461	WORD_OFF	n/a	n/a	EEL	12	5	[0, 0, 0]	n/a	FR1	1	R1146E
1302.378	0.001	1683461	DISTRACT_START	n/a	n/a	n/a	-999	5	[0, 0, 0]	n/a	FR1	1	R1146E
1302.379	0.016	1683462	START	n/a	n/a	n/a	-999	5	[-999, -999, -999]	n/a	FR1	1	R1146E
1302.395	4.518	1683478	PROB	4.518	n/a	n/a	-999	5	[9, 9, 1]	19	FR1	1	R1146E
1306.913	10.102	1687996	PROB	10.102	n/a	n/a	-999	5	[7, 2, 8]	17	FR1	1	R1146E
1317.015	11.155	1698098	PROB	11.155	n/a	n/a	-999	5	[9, 5, 3]	17	FR1	1	R1146E
1328.17	0.013	1709252	STOP	n/a	n/a	n/a	-999	5	[-999, -999, -999]	n/a	FR1	1	R1146E
1328.183	0.533	1709265	DISTRACT_END	n/a	n/a	n/a	-999	5	[0, 0, 0]	n/a	FR1	1	R1146E
1328.716	0.518	1709798	RETRIEVAL_ORIENT	n/a	n/a	n/a	-999	5	[0, 0, 0]	n/a	FR1	1	R1146E
1329.234	1.089	1710316	REC_START	n/a	n/a	n/a	-999	5	[0, 0, 0]	n/a	FR1	1	R1146E
1330.323	1.642	1711405	REC_WORD	1.642	n/a	EEL	-999	5	[0, 0, 0]	n/a	FR1	1	R1146E
1331.965	4.28	1713047	REC_WORD	4.28	n/a	HOUSE	-999	5	[0, 0, 0]	n/a	FR1	1	R1146E
1336.245	10.08	1717327	REC_WORD	10.08	n/a	POND	-999	5	[0, 0, 0]	n/a	FR1	1	R1146E
1346.325	12.919	1727406	REC_WORD	12.919	n/a	CORD	-999	5	[0, 0, 0]	n/a	FR1	1	R1146E
1359.244	7.813	1740325	REC_END	n/a	n/a	n/a	-999	5	[0, 0, 0]	n/a	FR1	1	R1146E
1367.057	0.5	1748138	TRIAL	n/a	n/a	n/a	-999	6	[0, 0, 0]	n/a	FR1	1	R1146E
1367.557	10.428	1748638	COUNTDOWN_START	n/a	n/a	n/a	-999	6	[0, 0, 0]	n/a	FR1	1	R1146E
1377.985	0.008	1759065	COUNTDOWN_END	n/a	n/a	n/a	-999	6	[0, 0, 0]	n/a	FR1	1	R1146E
1377.993	1.615	1759073	ORIENT	n/a	n/a	n/a	-999	6	[0, 0, 0]	n/a	FR1	1	R1146E
1379.608	2.018	1760688	ORIENT_OFF	n/a	n/a	n/a	-999	6	[0, 0, 0]	n/a	FR1	1	R1146E
1381.626	1.617	1762706	WORD	n/a	wordpools/wordpool_EN.txt	BATH	1	6	[0, 0, 0]	n/a	FR1	1	R1146E
1383.243	0.95	1764323	WORD_OFF	n/a	n/a	BATH	1	6	[0, 0, 0]	n/a	FR1	1	R1146E
1384.193	1.617	1765273	WORD	n/a	wordpools/wordpool_EN.txt	SUN	2	6	[0, 0, 0]	n/a	FR1	1	R1146E
1385.81	0.983	1766890	WORD_OFF	n/a	n/a	SUN	2	6	[0, 0, 0]	n/a	FR1	1	R1146E
1386.793	1.617	1767873	WORD	n/a	wordpools/wordpool_EN.txt	PEA	3	6	[0, 0, 0]	n/a	FR1	1	R1146E
1388.41	0.917	1769490	WORD_OFF	n/a	n/a	PEA	3	6	[0, 0, 0]	n/a	FR1	1	R1146E
1389.327	1.618	1770407	WORD	n/a	wordpools/wordpool_EN.txt	VAN	4	6	[0, 0, 0]	n/a	FR1	1	R1146E
1390.945	0.9	1772025	WORD_OFF	n/a	n/a	VAN	4	6	[0, 0, 0]	n/a	FR1	1	R1146E
1391.845	1.616	1772925	WORD	n/a	wordpools/wordpool_EN.txt	BRUSH	5	6	[0, 0, 0]	n/a	FR1	1	R1146E
1393.461	0.85	1774540	WORD_OFF	n/a	n/a	BRUSH	5	6	[0, 0, 0]	n/a	FR1	1	R1146E
1394.311	1.618	1775390	WORD	n/a	wordpools/wordpool_EN.txt	CUP	6	6	[0, 0, 0]	n/a	FR1	1	R1146E
1395.929	0.832	1777008	WORD_OFF	n/a	n/a	CUP	6	6	[0, 0, 0]	n/a	FR1	1	R1146E
1396.761	1.617	1777840	WORD	n/a	wordpools/wordpool_EN.txt	FLAME	7	6	[0, 0, 0]	n/a	FR1	1	R1146E
1398.378	0.817	1779457	WORD_OFF	n/a	n/a	FLAME	7	6	[0, 0, 0]	n/a	FR1	1	R1146E
1399.195	1.617	1780274	WORD	n/a	wordpools/wordpool_EN.txt	CORN	8	6	[0, 0, 0]	n/a	FR1	1	R1146E
1400.812	0.85	1781891	WORD_OFF	n/a	n/a	CORN	8	6	[0, 0, 0]	n/a	FR1	1	R1146E
1401.662	1.617	1782741	WORD	n/a	wordpools/wordpool_EN.txt	PEN	9	6	[0, 0, 0]	n/a	FR1	1	R1146E
1403.279	0.867	1784358	WORD_OFF	n/a	n/a	PEN	9	6	[0, 0, 0]	n/a	FR1	1	R1146E
1404.146	1.617	1785225	WORD	n/a	wordpools/wordpool_EN.txt	PLATE	10	6	[0, 0, 0]	n/a	FR1	1	R1146E
1405.763	0.817	1786842	WORD_OFF	n/a	n/a	PLATE	10	6	[0, 0, 0]	n/a	FR1	1	R1146E
1406.58	1.617	1787659	WORD	n/a	wordpools/wordpool_EN.txt	GATE	11	6	[0, 0, 0]	n/a	FR1	1	R1146E
1408.197	1.0	1789276	WORD_OFF	n/a	n/a	GATE	11	6	[0, 0, 0]	n/a	FR1	1	R1146E
1409.197	1.617	1790276	WORD	n/a	wordpools/wordpool_EN.txt	HOSE	12	6	[0, 0, 0]	n/a	FR1	1	R1146E
1410.814	0.0	1791893	WORD_OFF	n/a	n/a	HOSE	12	6	[0, 0, 0]	n/a	FR1	1	R1146E
1410.814	0.001	1791893	DISTRACT_START	n/a	n/a	n/a	-999	6	[0, 0, 0]	n/a	FR1	1	R1146E
1410.815	0.016	1791894	START	n/a	n/a	n/a	-999	6	[-999, -999, -999]	n/a	FR1	1	R1146E
1410.831	7.418	1791910	PROB	7.418	n/a	n/a	-999	6	[4, 7, 1]	12	FR1	1	R1146E
1418.249	5.051	1799327	PROB	5.051	n/a	n/a	-999	6	[7, 7, 5]	19	FR1	1	R1146E
1423.3	13.317	1804378	PROB	13.317	n/a	n/a	-999	6	[7, 8, 7]	22	FR1	1	R1146E
1436.617	0.018	1817695	STOP	n/a	n/a	n/a	-999	6	[-999, -999, -999]	n/a	FR1	1	R1146E
1436.635	0.684	1817713	DISTRACT_END	n/a	n/a	n/a	-999	6	[0, 0, 0]	n/a	FR1	1	R1146E
1437.319	0.517	1818397	RETRIEVAL_ORIENT	n/a	n/a	n/a	-999	6	[0, 0, 0]	n/a	FR1	1	R1146E
1437.836	3.595	1818914	REC_START	n/a	n/a	n/a	-999	6	[0, 0, 0]	n/a	FR1	1	R1146E
1441.431	26.415	1822509	REC_WORD	26.415	n/a	HOUSE	-999	6	[0, 0, 0]	n/a	FR1	1	R1146E
1467.846	10.68	1848922	REC_END	n/a	n/a	n/a	-999	6	[0, 0, 0]	n/a	FR1	1	R1146E
1478.526	0.5	1859602	TRIAL	n/a	n/a	n/a	-999	7	[0, 0, 0]	n/a	FR1	1	R1146E
1479.026	10.428	1860102	COUNTDOWN_START	n/a	n/a	n/a	-999	7	[0, 0, 0]	n/a	FR1	1	R1146E
1489.454	0.007	1870530	COUNTDOWN_END	n/a	n/a	n/a	-999	7	[0, 0, 0]	n/a	FR1	1	R1146E
1489.461	1.617	1870537	ORIENT	n/a	n/a	n/a	-999	7	[0, 0, 0]	n/a	FR1	1	R1146E
1491.078	2.051	1872154	ORIENT_OFF	n/a	n/a	n/a	-999	7	[0, 0, 0]	n/a	FR1	1	R1146E
1493.129	1.617	1874204	WORD	n/a	wordpools/wordpool_EN.txt	WHEEL	1	7	[0, 0, 0]	n/a	FR1	1	R1146E
1494.746	0.833	1875821	WORD_OFF	n/a	n/a	WHEEL	1	7	[0, 0, 0]	n/a	FR1	1	R1146E
1495.579	1.617	1876654	WORD	n/a	wordpools/wordpool_EN.txt	MOLE	2	7	[0, 0, 0]	n/a	FR1	1	R1146E
1497.196	0.834	1878271	WORD_OFF	n/a	n/a	MOLE	2	7	[0, 0, 0]	n/a	FR1	1	R1146E
1498.03	1.616	1879105	WORD	n/a	wordpools/wordpool_EN.txt	SMOKE	3	7	[0, 0, 0]	n/a	FR1	1	R1146E
1499.646	0.851	1880721	WORD_OFF	n/a	n/a	SMOKE	3	7	[0, 0, 0]	n/a	FR1	1	R1146E
1500.497	1.616	1881572	WORD	n/a	wordpools/wordpool_EN.txt	STORE	4	7	[0, 0, 0]	n/a	FR1	1	R1146E
1502.113	0.818	1883188	WORD_OFF	n/a	n/a	STORE	4	7	[0, 0, 0]	n/a	FR1	1	R1146E
1502.931	1.616	1884006	WORD	n/a	wordpools/wordpool_EN.txt	DOCK	5	7	[0, 0, 0]	n/a	FR1	1	R1146E
1504.547	0.85	1885622	WORD_OFF	n/a	n/a	DOCK	5	7	[0, 0, 0]	n/a	FR1	1	R1146E
1505.397	1.618	1886472	WORD	n/a	wordpools/wordpool_EN.txt	PRINCE	6	7	[0, 0, 0]	n/a	FR1	1	R1146E
1507.015	1.017	1888090	WORD_OFF	n/a	n/a	PRINCE	6	7	[0, 0, 0]	n/a	FR1	1	R1146E
1508.032	1.616	1889107	WORD	n/a	wordpools/wordpool_EN.txt	MOUSE	7	7	[0, 0, 0]	n/a	FR1	1	R1146E
1509.648	1.0	1890723	WORD_OFF	n/a	n/a	MOUSE	7	7	[0, 0, 0]	n/a	FR1	1	R1146E
1510.648	1.617	1891723	WORD	n/a	wordpools/wordpool_EN.txt	ICE	8	7	[0, 0, 0]	n/a	FR1	1	R1146E
1512.265	0.785	1893340	WORD_OFF	n/a	n/a	ICE	8	7	[0, 0, 0]	n/a	FR1	1	R1146E
1513.05	1.616	1894125	WORD	n/a	wordpools/wordpool_EN.txt	TEETH	9	7	[0, 0, 0]	n/a	FR1	1	R1146E
1514.666	1.0	1895741	WORD_OFF	n/a	n/a	TEETH	9	7	[0, 0, 0]	n/a	FR1	1	R1146E
1515.666	1.617	1896741	WORD	n/a	wordpools/wordpool_EN.txt	WORLD	10	7	[0, 0, 0]	n/a	FR1	1	R1146E
1517.283	0.867	1898357	WORD_OFF	n/a	n/a	WORLD	10	7	[0, 0, 0]	n/a	FR1	1	R1146E
1518.15	1.617	1899224	WORD	n/a	wordpools/wordpool_EN.txt	TREE	11	7	[0, 0, 0]	n/a	FR1	1	R1146E
1519.767	0.916	1900841	WORD_OFF	n/a	n/a	TREE	11	7	[0, 0, 0]	n/a	FR1	1	R1146E
1520.683	1.617	1901757	WORD	n/a	wordpools/wordpool_EN.txt	STRING	12	7	[0, 0, 0]	n/a	FR1	1	R1146E
1522.3	0.0	1903374	WORD_OFF	n/a	n/a	STRING	12	7	[0, 0, 0]	n/a	FR1	1	R1146E
1522.3	0.001	1903374	DISTRACT_START	n/a	n/a	n/a	-999	7	[0, 0, 0]	n/a	FR1	1	R1146E
1522.301	0.016	1903375	START	n/a	n/a	n/a	-999	7	[-999, -999, -999]	n/a	FR1	1	R1146E
1522.317	4.051	1903391	PROB	4.051	n/a	n/a	-999	7	[1, 2, 2]	5	FR1	1	R1146E
1526.368	4.767	1907442	PROB	4.767	n/a	n/a	-999	7	[3, 1, 1]	5	FR1	1	R1146E
1531.135	18.347	1912209	PROB	18.347	n/a	n/a	-999	7	[7, 5, 1]	13	FR1	1	R1146E
1549.482	0.006	1930555	STOP	n/a	n/a	n/a	-999	7	[-999, -999, -999]	n/a	FR1	1	R1146E
1549.488	0.518	1930561	DISTRACT_END	n/a	n/a	n/a	-999	7	[0, 0, 0]	n/a	FR1	1	R1146E
1550.006	0.517	1931079	RETRIEVAL_ORIENT	n/a	n/a	n/a	-999	7	[0, 0, 0]	n/a	FR1	1	R1146E
1550.523	12.157	1931596	REC_START	n/a	n/a	n/a	-999	7	[0, 0, 0]	n/a	FR1	1	R1146E
1562.68	17.853	1943753	REC_WORD	17.853	n/a	WHEEL	-999	7	[0, 0, 0]	n/a	FR1	1	R1146E
1580.533	10.296	1961605	REC_END	n/a	n/a	n/a	-999	7	[0, 0, 0]	n/a	FR1	1	R1146E
1590.829	0.5	1971901	TRIAL	n/a	n/a	n/a	-999	8	[0, 0, 0]	n/a	FR1	1	R1146E
1591.329	10.428	1972400	COUNTDOWN_START	n/a	n/a	n/a	-999	8	[0, 0, 0]	n/a	FR1	1	R1146E
1601.757	0.007	1982828	COUNTDOWN_END	n/a	n/a	n/a	-999	8	[0, 0, 0]	n/a	FR1	1	R1146E
1601.764	1.617	1982835	ORIENT	n/a	n/a	n/a	-999	8	[0, 0, 0]	n/a	FR1	1	R1146E
1603.381	2.267	1984452	ORIENT_OFF	n/a	n/a	n/a	-999	8	[0, 0, 0]	n/a	FR1	1	R1146E
1605.648	1.617	1986719	WORD	n/a	wordpools/wordpool_EN.txt	SEAL	1	8	[0, 0, 0]	n/a	FR1	1	R1146E
1607.265	0.934	1988336	WORD_OFF	n/a	n/a	SEAL	1	8	[0, 0, 0]	n/a	FR1	1	R1146E
1608.199	1.617	1989270	WORD	n/a	wordpools/wordpool_EN.txt	DEER	2	8	[0, 0, 0]	n/a	FR1	1	R1146E
1609.816	0.783	1990887	WORD_OFF	n/a	n/a	DEER	2	8	[0, 0, 0]	n/a	FR1	1	R1146E
1610.599	1.617	1991670	WORD	n/a	wordpools/wordpool_EN.txt	HAWK	3	8	[0, 0, 0]	n/a	FR1	1	R1146E
1612.216	1.0	1993287	WORD_OFF	n/a	n/a	HAWK	3	8	[0, 0, 0]	n/a	FR1	1	R1146E
1613.216	1.617	1994287	WORD	n/a	wordpools/wordpool_EN.txt	WEB	4	8	[0, 0, 0]	n/a	FR1	1	R1146E
1614.833	0.834	1995904	WORD_OFF	n/a	n/a	WEB	4	8	[0, 0, 0]	n/a	FR1	1	R1146E
1615.667	1.617	1996738	WORD	n/a	wordpools/wordpool_EN.txt	CASH	5	8	[0, 0, 0]	n/a	FR1	1	R1146E
1617.284	0.883	1998354	WORD_OFF	n/a	n/a	CASH	5	8	[0, 0, 0]	n/a	FR1	1	R1146E
1618.167	1.617	1999237	WORD	n/a	wordpools/wordpool_EN.txt	DUCK	6	8	[0, 0, 0]	n/a	FR1	1	R1146E
1619.784	1.0	2000854	WORD_OFF	n/a	n/a	DUCK	6	8	[0, 0, 0]	n/a	FR1	1	R1146E
1620.784	1.617	2001854	WORD	n/a	wordpools/wordpool_EN.txt	APE	7	8	[0, 0, 0]	n/a	FR1	1	R1146E
1622.401	0.917	2003471	WORD_OFF	n/a	n/a	APE	7	8	[0, 0, 0]	n/a	FR1	1	R1146E
1623.318	1.618	2004388	WORD	n/a	wordpools/wordpool_EN.txt	TANK	8	8	[0, 0, 0]	n/a	FR1	1	R1146E
1624.936	0.934	2006006	WORD_OFF	n/a	n/a	TANK	8	8	[0, 0, 0]	n/a	FR1	1	R1146E
1625.87	1.616	2006940	WORD	n/a	wordpools/wordpool_EN.txt	BRANCH	9	8	[0, 0, 0]	n/a	FR1	1	R1146E
1627.486	0.95	2008556	WORD_OFF	n/a	n/a	BRANCH	9	8	[0, 0, 0]	n/a	FR1	1	R1146E
1628.436	1.601	2009506	WORD	n/a	wordpools/wordpool_EN.txt	BOAT	10	8	[0, 0, 0]	n/a	FR1	1	R1146E
1630.037	0.9	2011107	WORD_OFF	n/a	n/a	BOAT	10	8	[0, 0, 0]	n/a	FR1	1	R1146E
1630.937	1.616	2012007	WORD	n/a	wordpools/wordpool_EN.txt	MUG	11	8	[0, 0, 0]	n/a	FR1	1	R1146E
1632.553	0.917	2013623	WORD_OFF	n/a	n/a	MUG	11	8	[0, 0, 0]	n/a	FR1	1	R1146E
1633.47	1.617	2014540	WORD	n/a	wordpools/wordpool_EN.txt	BANK	12	8	[0, 0, 0]	n/a	FR1	1	R1146E
1635.087	0.0	2016157	WORD_OFF	n/a	n/a	BANK	12	8	[0, 0, 0]	n/a	FR1	1	R1146E
1635.087	0.001	2016157	DISTRACT_START	n/a	n/a	n/a	-999	8	[0, 0, 0]	n/a	FR1	1	R1146E
1635.088	0.016	2016158	START	n/a	n/a	n/a	-999	8	[-999, -999, -999]	n/a	FR1	1	R1146E
1635.104	3.717	2016174	PROB	3.717	n/a	n/a	-999	8	[1, 1, 1]	3	FR1	1	R1146E
1638.821	3.817	2019891	PROB	3.817	n/a	n/a	-999	8	[5, 5, 2]	12	FR1	1	R1146E
1642.638	9.452	2023707	PROB	9.452	n/a	n/a	-999	8	[2, 4, 9]	15	FR1	1	R1146E
1652.09	14.557	2033159	PROB	14.557	n/a	n/a	-999	8	[8, 7, 9]	24	FR1	1	R1146E
1666.647	0.012	2047715	STOP	n/a	n/a	n/a	-999	8	[-999, -999, -999]	n/a	FR1	1	R1146E
1666.659	0.6	2047727	DISTRACT_END	n/a	n/a	n/a	-999	8	[0, 0, 0]	n/a	FR1	1	R1146E
1667.259	0.518	2048327	RETRIEVAL_ORIENT	n/a	n/a	n/a	-999	8	[0, 0, 0]	n/a	FR1	1	R1146E
1667.777	8.954	2048845	REC_START	n/a	n/a	n/a	-999	8	[0, 0, 0]	n/a	FR1	1	R1146E
1676.731	4.73	2057799	REC_WORD	4.73	n/a	COW	-999	8	[0, 0, 0]	n/a	FR1	1	R1146E
1681.461	2.676	2062529	REC_WORD	2.676	n/a	HORSE	-999	8	[0, 0, 0]	n/a	FR1	1	R1146E
1684.137	13.65	2065205	REC_WORD	13.65	n/a	WEB	-999	8	[0, 0, 0]	n/a	FR1	1	R1146E
1697.787	8.247	2078854	REC_END	n/a	n/a	n/a	-999	8	[0, 0, 0]	n/a	FR1	1	R1146E
1706.034	0.5	2087101	TRIAL	n/a	n/a	n/a	-999	9	[0, 0, 0]	n/a	FR1	1	R1146E
1706.534	10.428	2087601	COUNTDOWN_START	n/a	n/a	n/a	-999	9	[0, 0, 0]	n/a	FR1	1	R1146E
1716.962	0.007	2098028	COUNTDOWN_END	n/a	n/a	n/a	-999	9	[0, 0, 0]	n/a	FR1	1	R1146E
1716.969	1.616	2098035	ORIENT	n/a	n/a	n/a	-999	9	[0, 0, 0]	n/a	FR1	1	R1146E
1718.585	2.184	2099651	ORIENT_OFF	n/a	n/a	n/a	-999	9	[0, 0, 0]	n/a	FR1	1	R1146E
1720.769	1.617	2101835	WORD	n/a	wordpools/wordpool_EN.txt	OAR	1	9	[0, 0, 0]	n/a	FR1	1	R1146E
1722.386	0.966	2103452	WORD_OFF	n/a	n/a	OAR	1	9	[0, 0, 0]	n/a	FR1	1	R1146E
1723.352	1.602	2104418	WORD	n/a	wordpools/wordpool_EN.txt	BENCH	2	9	[0, 0, 0]	n/a	FR1	1	R1146E
1724.954	0.933	2106020	WORD_OFF	n/a	n/a	BENCH	2	9	[0, 0, 0]	n/a	FR1	1	R1146E
1725.887	1.616	2106953	WORD	n/a	wordpools/wordpool_EN.txt	MUD	3	9	[0, 0, 0]	n/a	FR1	1	R1146E
1727.503	0.784	2108569	WORD_OFF	n/a	n/a	MUD	3	9	[0, 0, 0]	n/a	FR1	1	R1146E
1728.287	1.618	2109353	WORD	n/a	wordpools/wordpool_EN.txt	TOE	4	9	[0, 0, 0]	n/a	FR1	1	R1146E
1729.905	0.866	2110971	WORD_OFF	n/a	n/a	TOE	4	9	[0, 0, 0]	n/a	FR1	1	R1146E
1730.771	1.617	2111837	WORD	n/a	wordpools/wordpool_EN.txt	SKY	5	9	[0, 0, 0]	n/a	FR1	1	R1146E
1732.388	0.866	2113454	WORD_OFF	n/a	n/a	SKY	5	9	[0, 0, 0]	n/a	FR1	1	R1146E
1733.254	1.601	2114320	WORD	n/a	wordpools/wordpool_EN.txt	GRAPE	6	9	[0, 0, 0]	n/a	FR1	1	R1146E
1734.855	0.949	2115921	WORD_OFF	n/a	n/a	GRAPE	6	9	[0, 0, 0]	n/a	FR1	1	R1146E
1735.804	1.618	2116870	WORD	n/a	wordpools/wordpool_EN.txt	PURSE	7	9	[0, 0, 0]	n/a	FR1	1	R1146E
1737.422	0.95	2118488	WORD_OFF	n/a	n/a	PURSE	7	9	[0, 0, 0]	n/a	FR1	1	R1146E
1738.372	1.618	2119438	WORD	n/a	wordpools/wordpool_EN.txt	STOOL	8	9	[0, 0, 0]	n/a	FR1	1	R1146E
1739.99	0.867	2121055	WORD_OFF	n/a	n/a	STOOL	8	9	[0, 0, 0]	n/a	FR1	1	R1146E
1740.857	1.616	2121922	WORD	n/a	wordpools/wordpool_EN.txt	STRAW	9	9	[0, 0, 0]	n/a	FR1	1	R1146E
1742.473	0.9	2123538	WORD_OFF	n/a	n/a	STRAW	9	9	[0, 0, 0]	n/a	FR1	1	R1146E
1743.373	1.618	2124438	WORD	n/a	wordpools/wordpool_EN.txt	SLEEVE	10	9	[0, 0, 0]	n/a	FR1	1	R1146E
1744.991	0.867	2126056	WORD_OFF	n/a	n/a	SLEEVE	10	9	[0, 0, 0]	n/a	FR1	1	R1146E
1745.858	1.615	2126923	WORD	n/a	wordpools/wordpool_EN.txt	DOOR	11	9	[0, 0, 0]	n/a	FR1	1	R1146E
1747.473	0.784	2128538	WORD_OFF	n/a	n/a	DOOR	11	9	[0, 0, 0]	n/a	FR1	1	R1146E
1748.257	1.618	2129322	WORD	n/a	wordpools/wordpool_EN.txt	VASE	12	9	[0, 0, 0]	n/a	FR1	1	R1146E
1749.875	0.0	2130940	WORD_OFF	n/a	n/a	VASE	12	9	[0, 0, 0]	n/a	FR1	1	R1146E
1749.875	0.001	2130940	DISTRACT_START	n/a	n/a	n/a	-999	9	[0, 0, 0]	n/a	FR1	1	R1146E
1749.876	0.016	2130941	START	n/a	n/a	n/a	-999	9	[-999, -999, -999]	n/a	FR1	1	R1146E
1749.892	8.35	2130957	PROB	8.35	n/a	n/a	-999	9	[7, 7, 8]	22	FR1	1	R1146E
1758.242	3.668	2139307	PROB	3.668	n/a	n/a	-999	9	[5, 1, 5]	11	FR1	1	R1146E
1761.91	6.985	2142975	PROB	6.985	n/a	n/a	-999	9	[5, 3, 9]	17	FR1	1	R1146E
1768.895	7.482	2149959	PROB	7.482	n/a	n/a	-999	9	[4, 8, 5]	17	FR1	1	R1146E
1776.377	0.018	2157441	STOP	n/a	n/a	n/a	-999	9	[-999, -999, -999]	n/a	FR1	1	R1146E
1776.395	0.501	2157459	DISTRACT_END	n/a	n/a	n/a	-999	9	[0, 0, 0]	n/a	FR1	1	R1146E
1776.896	0.517	2157960	RETRIEVAL_ORIENT	n/a	n/a	n/a	-999	9	[0, 0, 0]	n/a	FR1	1	R1146E
1777.413	30.0	2158477	REC_START	n/a	n/a	n/a	-999	9	[0, 0, 0]	n/a	FR1	1	R1146E
1807.413	0.01	2188476	REC_WORD_VV	0.01	n/a	<>	-999	9	[0, 0, 0]	n/a	FR1	1	R1146E
1807.423	21.599	2188486	REC_END	n/a	n/a	n/a	-999	9	[0, 0, 0]	n/a	FR1	1	R1146E
1829.022	0.5	2210084	TRIAL	n/a	n/a	n/a	-999	10	[0, 0, 0]	n/a	FR1	1	R1146E
1829.522	10.428	2210584	COUNTDOWN_START	n/a	n/a	n/a	-999	10	[0, 0, 0]	n/a	FR1	1	R1146E
1839.95	0.007	2221011	COUNTDOWN_END	n/a	n/a	n/a	-999	10	[0, 0, 0]	n/a	FR1	1	R1146E
1839.957	1.616	2221018	ORIENT	n/a	n/a	n/a	-999	10	[0, 0, 0]	n/a	FR1	1	R1146E
1841.573	2.101	2222634	ORIENT_OFF	n/a	n/a	n/a	-999	10	[0, 0, 0]	n/a	FR1	1	R1146E
1843.674	1.617	2224735	WORD	n/a	wordpools/wordpool_EN.txt	STEM	1	10	[0, 0, 0]	n/a	FR1	1	R1146E
1845.291	0.917	2226352	WORD_OFF	n/a	n/a	STEM	1	10	[0, 0, 0]	n/a	FR1	1	R1146E
1846.208	1.617	2227269	WORD	n/a	wordpools/wordpool_EN.txt	MAIL	2	10	[0, 0, 0]	n/a	FR1	1	R1146E
1847.825	0.866	2228886	WORD_OFF	n/a	n/a	MAIL	2	10	[0, 0, 0]	n/a	FR1	1	R1146E
1848.691	1.617	2229752	WORD	n/a	wordpools/wordpool_EN.txt	MILK	3	10	[0, 0, 0]	n/a	FR1	1	R1146E
1850.308	1.017	2231369	WORD_OFF	n/a	n/a	MILK	3	10	[0, 0, 0]	n/a	FR1	1	R1146E
1851.325	1.601	2232386	WORD	n/a	wordpools/wordpool_EN.txt	ELF	4	10	[0, 0, 0]	n/a	FR1	1	R1146E
1852.926	0.883	2233987	WORD_OFF	n/a	n/a	ELF	4	10	[0, 0, 0]	n/a	FR1	1	R1146E
1853.809	1.617	2234870	WORD	n/a	wordpools/wordpool_EN.txt	MOUTH	5	10	[0, 0, 0]	n/a	FR1	1	R1146E
1855.426	0.95	2236487	WORD_OFF	n/a	n/a	MOUTH	5	10	[0, 0, 0]	n/a	FR1	1	R1146E
1856.376	1.618	2237437	WORD	n/a	wordpools/wordpool_EN.txt	ROOT	6	10	[0, 0, 0]	n/a	FR1	1	R1146E
1857.994	0.867	2239055	WORD_OFF	n/a	n/a	ROOT	6	10	[0, 0, 0]	n/a	FR1	1	R1146E
1858.861	1.616	2239922	WORD	n/a	wordpools/wordpool_EN.txt	SEA	7	10	[0, 0, 0]	n/a	FR1	1	R1146E
1860.477	0.9	2241538	WORD_OFF	n/a	n/a	SEA	7	10	[0, 0, 0]	n/a	FR1	1	R1146E
1861.377	1.618	2242438	WORD	n/a	wordpools/wordpool_EN.txt	CAT	8	10	[0, 0, 0]	n/a	FR1	1	R1146E
1862.995	0.85	2244056	WORD_OFF	n/a	n/a	CAT	8	10	[0, 0, 0]	n/a	FR1	1	R1146E
1863.845	1.616	2244905	WORD	n/a	wordpools/wordpool_EN.txt	COIN	9	10	[0, 0, 0]	n/a	FR1	1	R1146E
1865.461	0.9	2246521	WORD_OFF	n/a	n/a	COIN	9	10	[0, 0, 0]	n/a	FR1	1	R1146E
1866.361	1.601	2247421	WORD	n/a	wordpools/wordpool_EN.txt	GUARD	10	10	[0, 0, 0]	n/a	FR1	1	R1146E
1867.962	0.816	2249022	WORD_OFF	n/a	n/a	GUARD	10	10	[0, 0, 0]	n/a	FR1	1	R1146E
1868.778	1.617	2249838	WORD	n/a	wordpools/wordpool_EN.txt	FOOT	11	10	[0, 0, 0]	n/a	FR1	1	R1146E
1870.395	0.767	2251455	WORD_OFF	n/a	n/a	FOOT	11	10	[0, 0, 0]	n/a	FR1	1	R1146E
1871.162	1.617	2252222	WORD	n/a	wordpools/wordpool_EN.txt	SPRING	12	10	[0, 0, 0]	n/a	FR1	1	R1146E
1872.779	0.0	2253839	DISTRACT_START	n/a	n/a	n/a	-999	10	[0, 0, 0]	n/a	FR1	1	R1146E
1872.779	0.001	2253839	WORD_OFF	n/a	n/a	SPRING	12	10	[0, 0, 0]	n/a	FR1	1	R1146E
1872.78	0.016	2253840	START	n/a	n/a	n/a	-999	10	[-999, -999, -999]	n/a	FR1	1	R1146E
1872.796	4.884	2253856	PROB	4.884	n/a	n/a	-999	10	[5, 1, 3]	9	FR1	1	R1146E
1877.68	6.018	2258740	PROB	6.018	n/a	n/a	-999	10	[9, 5, 4]	18	FR1	1	R1146E
1883.698	3.95	2264758	PROB	3.95	n/a	n/a	-999	10	[1, 1, 5]	7	FR1	1	R1146E
1887.648	9.176	2268708	PROB	9.176	n/a	n/a	-999	10	[7, 5, 8]	20	FR1	1	R1146E
1896.824	0.009	2277883	STOP	n/a	n/a	n/a	-999	10	[-999, -999, -999]	n/a	FR1	1	R1146E
1896.833	0.517	2277892	DISTRACT_END	n/a	n/a	n/a	-999	10	[0, 0, 0]	n/a	FR1	1	R1146E
1897.35	0.502	2278409	RETRIEVAL_ORIENT	n/a	n/a	n/a	-999	10	[0, 0, 0]	n/a	FR1	1	R1146E
1897.852	0.966	2278911	REC_START	n/a	n/a	n/a	-999	10	[0, 0, 0]	n/a	FR1	1	R1146E
1898.818	6.936	2279877	REC_WORD	6.936	n/a	STEM	-999	10	[0, 0, 0]	n/a	FR1	1	R1146E
1905.754	8.914	2286813	REC_WORD	8.914	n/a	CELL	-999	10	[0, 0, 0]	n/a	FR1	1	R1146E
1914.668	7.911	2295726	REC_WORD	7.911	n/a	MILK	-999	10	[0, 0, 0]	n/a	FR1	1	R1146E
1922.579	5.283	2303637	REC_WORD	5.283	n/a	ELF	-999	10	[0, 0, 0]	n/a	FR1	1	R1146E
1927.862	15.963	2308920	REC_END	n/a	n/a	n/a	-999	10	[0, 0, 0]	n/a	FR1	1	R1146E
1943.825	0.5	2324882	TRIAL	n/a	n/a	n/a	-999	11	[0, 0, 0]	n/a	FR1	1	R1146E
1944.325	10.428	2325382	COUNTDOWN_START	n/a	n/a	n/a	-999	11	[0, 0, 0]	n/a	FR1	1	R1146E
1954.753	0.007	2335810	COUNTDOWN_END	n/a	n/a	n/a	-999	11	[0, 0, 0]	n/a	FR1	1	R1146E
1954.76	1.617	2335817	ORIENT	n/a	n/a	n/a	-999	11	[0, 0, 0]	n/a	FR1	1	R1146E
1956.377	1.984	2337434	ORIENT_OFF	n/a	n/a	n/a	-999	11	[0, 0, 0]	n/a	FR1	1	R1146E
1958.361	1.618	2339418	WORD	n/a	wordpools/wordpool_EN.txt	BRIDGE	1	11	[0, 0, 0]	n/a	FR1	1	R1146E
1959.979	0.765	2341036	WORD_OFF	n/a	n/a	BRIDGE	1	11	[0, 0, 0]	n/a	FR1	1	R1146E
1960.744	1.601	2341801	WORD	n/a	wordpools/wordpool_EN.txt	SALT	2	11	[0, 0, 0]	n/a	FR1	1	R1146E
1962.345	0.833	2343401	WORD_OFF	n/a	n/a	SALT	2	11	[0, 0, 0]	n/a	FR1	1	R1146E
1963.178	1.617	2344234	WORD	n/a	wordpools/wordpool_EN.txt	WING	3	11	[0, 0, 0]	n/a	FR1	1	R1146E
1964.795	0.767	2345851	WORD_OFF	n/a	n/a	WING	3	11	[0, 0, 0]	n/a	FR1	1	R1146E
1965.562	1.617	2346618	WORD	n/a	wordpools/wordpool_EN.txt	MOTH	4	11	[0, 0, 0]	n/a	FR1	1	R1146E
1967.179	0.851	2348235	WORD_OFF	n/a	n/a	MOTH	4	11	[0, 0, 0]	n/a	FR1	1	R1146E
1968.03	1.616	2349086	WORD	n/a	wordpools/wordpool_EN.txt	FOOD	5	11	[0, 0, 0]	n/a	FR1	1	R1146E
1969.646	0.817	2350702	WORD_OFF	n/a	n/a	FOOD	5	11	[0, 0, 0]	n/a	FR1	1	R1146E
1970.463	1.617	2351519	WORD	n/a	wordpools/wordpool_EN.txt	SQUARE	6	11	[0, 0, 0]	n/a	FR1	1	R1146E
1972.08	0.784	2353136	WORD_OFF	n/a	n/a	SQUARE	6	11	[0, 0, 0]	n/a	FR1	1	R1146E
1972.864	1.616	2353920	WORD	n/a	wordpools/wordpool_EN.txt	PET	7	11	[0, 0, 0]	n/a	FR1	1	R1146E
1974.48	0.85	2355536	WORD_OFF	n/a	n/a	PET	7	11	[0, 0, 0]	n/a	FR1	1	R1146E
1975.33	1.618	2356386	WORD	n/a	wordpools/wordpool_EN.txt	LAND	8	11	[0, 0, 0]	n/a	FR1	1	R1146E
1976.948	0.766	2358004	WORD_OFF	n/a	n/a	LAND	8	11	[0, 0, 0]	n/a	FR1	1	R1146E
1977.714	1.617	2358770	WORD	n/a	wordpools/wordpool_EN.txt	JET	9	11	[0, 0, 0]	n/a	FR1	1	R1146E
1979.331	0.784	2360387	WORD_OFF	n/a	n/a	JET	9	11	[0, 0, 0]	n/a	FR1	1	R1146E
1980.115	1.616	2361171	WORD	n/a	wordpools/wordpool_EN.txt	BLUSH	10	11	[0, 0, 0]	n/a	FR1	1	R1146E
1981.731	0.934	2362787	WORD_OFF	n/a	n/a	BLUSH	10	11	[0, 0, 0]	n/a	FR1	1	R1146E
1982.665	1.617	2363721	WORD	n/a	wordpools/wordpool_EN.txt	FILM	11	11	[0, 0, 0]	n/a	FR1	1	R1146E
1984.282	0.833	2365338	WORD_OFF	n/a	n/a	FILM	11	11	[0, 0, 0]	n/a	FR1	1	R1146E
1985.115	1.617	2366171	WORD	n/a	wordpools/wordpool_EN.txt	WOLF	12	11	[0, 0, 0]	n/a	FR1	1	R1146E
1986.732	0.0	2367788	WORD_OFF	n/a	n/a	WOLF	12	11	[0, 0, 0]	n/a	FR1	1	R1146E
1986.732	0.001	2367788	DISTRACT_START	n/a	n/a	n/a	-999	11	[0, 0, 0]	n/a	FR1	1	R1146E
1986.733	0.016	2367789	START	n/a	n/a	n/a	-999	11	[-999, -999, -999]	n/a	FR1	1	R1146E
1986.749	6.236	2367805	PROB	6.236	n/a	n/a	-999	11	[6, 5, 9]	20	FR1	1	R1146E
1992.985	5.183	2374040	PROB	5.183	n/a	n/a	-999	11	[2, 4, 1]	7	FR1	1	R1146E
1998.168	5.617	2379223	PROB	5.617	n/a	n/a	-999	11	[5, 3, 3]	11	FR1	1	R1146E
2003.785	3.711	2384840	PROB	3.711	n/a	n/a	-999	11	[2, 1, 2]	5	FR1	1	R1146E
2007.496	0.006	2388551	STOP	n/a	n/a	n/a	-999	11	[-999, -999, -999]	n/a	FR1	1	R1146E
2007.502	0.668	2388557	DISTRACT_END	n/a	n/a	n/a	-999	11	[0, 0, 0]	n/a	FR1	1	R1146E
2008.17	0.517	2389225	RETRIEVAL_ORIENT	n/a	n/a	n/a	-999	11	[0, 0, 0]	n/a	FR1	1	R1146E
2008.687	30.0	2389742	REC_START	n/a	n/a	n/a	-999	11	[0, 0, 0]	n/a	FR1	1	R1146E
2038.687	0.01	2419740	REC_WORD_VV	0.01	n/a	<>	-999	11	[0, 0, 0]	n/a	FR1	1	R1146E
2038.697	10.713	2419750	REC_END	n/a	n/a	n/a	-999	11	[0, 0, 0]	n/a	FR1	1	R1146E
2049.41	0.5	2430463	TRIAL	n/a	n/a	n/a	-999	12	[0, 0, 0]	n/a	FR1	1	R1146E
2049.91	10.428	2430963	COUNTDOWN_START	n/a	n/a	n/a	-999	12	[0, 0, 0]	n/a	FR1	1	R1146E
2060.338	0.007	2441391	COUNTDOWN_END	n/a	n/a	n/a	-999	12	[0, 0, 0]	n/a	FR1	1	R1146E
2060.345	1.602	2441398	ORIENT	n/a	n/a	n/a	-999	12	[0, 0, 0]	n/a	FR1	1	R1146E
2061.947	2.182	2442999	ORIENT_OFF	n/a	n/a	n/a	-999	12	[0, 0, 0]	n/a	FR1	1	R1146E
2064.129	1.617	2445181	WORD	n/a	wordpools/wordpool_EN.txt	WORM	1	12	[0, 0, 0]	n/a	FR1	1	R1146E
2065.746	0.9	2446798	WORD_OFF	n/a	n/a	WORM	1	12	[0, 0, 0]	n/a	FR1	1	R1146E
2066.646	1.617	2447698	WORD	n/a	wordpools/wordpool_EN.txt	SUIT	2	12	[0, 0, 0]	n/a	FR1	1	R1146E
2068.263	0.85	2449315	WORD_OFF	n/a	n/a	SUIT	2	12	[0, 0, 0]	n/a	FR1	1	R1146E
2069.113	1.618	2450165	WORD	n/a	wordpools/wordpool_EN.txt	NAIL	3	12	[0, 0, 0]	n/a	FR1	1	R1146E
2070.731	1.0	2451783	WORD_OFF	n/a	n/a	NAIL	3	12	[0, 0, 0]	n/a	FR1	1	R1146E
2071.731	1.617	2452783	WORD	n/a	wordpools/wordpool_EN.txt	SLUSH	4	12	[0, 0, 0]	n/a	FR1	1	R1146E
2073.348	0.966	2454400	WORD_OFF	n/a	n/a	SLUSH	4	12	[0, 0, 0]	n/a	FR1	1	R1146E
2074.314	1.619	2455366	WORD	n/a	wordpools/wordpool_EN.txt	BROOM	5	12	[0, 0, 0]	n/a	FR1	1	R1146E
2075.933	0.765	2456985	WORD_OFF	n/a	n/a	BROOM	5	12	[0, 0, 0]	n/a	FR1	1	R1146E
2076.698	1.617	2457750	WORD	n/a	wordpools/wordpool_EN.txt	PIE	6	12	[0, 0, 0]	n/a	FR1	1	R1146E
2078.315	0.967	2459367	WORD_OFF	n/a	n/a	PIE	6	12	[0, 0, 0]	n/a	FR1	1	R1146E
2079.282	1.618	2460334	WORD	n/a	wordpools/wordpool_EN.txt	WOOD	7	12	[0, 0, 0]	n/a	FR1	1	R1146E
2080.9	0.866	2461952	WORD_OFF	n/a	n/a	WOOD	7	12	[0, 0, 0]	n/a	FR1	1	R1146E
2081.766	1.617	2462818	WORD	n/a	wordpools/wordpool_EN.txt	FOG	8	12	[0, 0, 0]	n/a	FR1	1	R1146E
2083.383	0.967	2464435	WORD_OFF	n/a	n/a	FOG	8	12	[0, 0, 0]	n/a	FR1	1	R1146E
2084.35	1.618	2465402	WORD	n/a	wordpools/wordpool_EN.txt	ROOM	9	12	[0, 0, 0]	n/a	FR1	1	R1146E
2085.968	0.782	2467020	WORD_OFF	n/a	n/a	ROOM	9	12	[0, 0, 0]	n/a	FR1	1	R1146E
2086.75	1.617	2467801	WORD	n/a	wordpools/wordpool_EN.txt	PANTS	10	12	[0, 0, 0]	n/a	FR1	1	R1146E
2088.367	0.967	2469418	WORD_OFF	n/a	n/a	PANTS	10	12	[0, 0, 0]	n/a	FR1	1	R1146E
2089.334	1.618	2470385	WORD	n/a	wordpools/wordpool_EN.txt	STAIR	11	12	[0, 0, 0]	n/a	FR1	1	R1146E
2090.952	0.9	2472003	WORD_OFF	n/a	n/a	STAIR	11	12	[0, 0, 0]	n/a	FR1	1	R1146E
2091.852	1.616	2472903	WORD	n/a	wordpools/wordpool_EN.txt	PEAR	12	12	[0, 0, 0]	n/a	FR1	1	R1146E
2093.468	0.0	2474519	WORD_OFF	n/a	n/a	PEAR	12	12	[0, 0, 0]	n/a	FR1	1	R1146E
2093.468	0.001	2474519	DISTRACT_START	n/a	n/a	n/a	-999	12	[0, 0, 0]	n/a	FR1	1	R1146E
2093.469	0.016	2474520	START	n/a	n/a	n/a	-999	12	[-999, -999, -999]	n/a	FR1	1	R1146E
2093.485	5.401	2474536	PROB	5.401	n/a	n/a	-999	12	[1, 9, 5]	15	FR1	1	R1146E
2098.886	7.102	2479937	PROB	7.102	n/a	n/a	-999	12	[9, 3, 5]	17	FR1	1	R1146E
2105.988	4.616	2487039	PROB	4.616	n/a	n/a	-999	12	[3, 9, 9]	21	FR1	1	R1146E
2110.604	12.625	2491655	PROB	12.625	n/a	n/a	-999	12	[4, 3, 6]	13	FR1	1	R1146E
2123.229	0.011	2504279	STOP	n/a	n/a	n/a	-999	12	[-999, -999, -999]	n/a	FR1	1	R1146E
2123.24	0.567	2504290	DISTRACT_END	n/a	n/a	n/a	-999	12	[0, 0, 0]	n/a	FR1	1	R1146E
2123.807	0.517	2504857	RETRIEVAL_ORIENT	n/a	n/a	n/a	-999	12	[0, 0, 0]	n/a	FR1	1	R1146E
2124.324	7.174	2505374	REC_START	n/a	n/a	n/a	-999	12	[0, 0, 0]	n/a	FR1	1	R1146E
2131.498	22.835	2512548	REC_WORD	22.835	n/a	SLUSH	-999	12	[0, 0, 0]	n/a	FR1	1	R1146E
2154.333	31.768	2535382	REC_END	n/a	n/a	n/a	-999	12	[0, 0, 0]	n/a	FR1	1	R1146E
2186.101	0.5	2567148	TRIAL	n/a	n/a	n/a	-999	13	[0, 0, 0]	n/a	FR1	1	R1146E
2186.601	10.428	2567648	COUNTDOWN_START	n/a	n/a	n/a	-999	13	[0, 0, 0]	n/a	FR1	1	R1146E
2197.029	0.008	2578076	COUNTDOWN_END	n/a	n/a	n/a	-999	13	[0, 0, 0]	n/a	FR1	1	R1146E
2197.037	1.616	2578084	ORIENT	n/a	n/a	n/a	-999	13	[0, 0, 0]	n/a	FR1	1	R1146E
2198.653	2.051	2579700	ORIENT_OFF	n/a	n/a	n/a	-999	13	[0, 0, 0]	n/a	FR1	1	R1146E
2200.704	1.617	2581751	WORD	n/a	wordpools/wordpool_EN.txt	SOUP	1	13	[0, 0, 0]	n/a	FR1	1	R1146E
2202.321	0.916	2583368	WORD_OFF	n/a	n/a	SOUP	1	13	[0, 0, 0]	n/a	FR1	1	R1146E
2203.237	1.618	2584284	WORD	n/a	wordpools/wordpool_EN.txt	TENT	2	13	[0, 0, 0]	n/a	FR1	1	R1146E
2204.855	0.799	2585902	WORD_OFF	n/a	n/a	TENT	2	13	[0, 0, 0]	n/a	FR1	1	R1146E
2205.654	1.617	2586701	WORD	n/a	wordpools/wordpool_EN.txt	GRASS	3	13	[0, 0, 0]	n/a	FR1	1	R1146E
2207.271	0.851	2588318	WORD_OFF	n/a	n/a	GRASS	3	13	[0, 0, 0]	n/a	FR1	1	R1146E
2208.122	1.617	2589169	WORD	n/a	wordpools/wordpool_EN.txt	FRUIT	4	13	[0, 0, 0]	n/a	FR1	1	R1146E
2209.739	0.95	2590786	WORD_OFF	n/a	n/a	FRUIT	4	13	[0, 0, 0]	n/a	FR1	1	R1146E
2210.689	1.617	2591735	WORD	n/a	wordpools/wordpool_EN.txt	SAIL	5	13	[0, 0, 0]	n/a	FR1	1	R1146E
2212.306	0.816	2593352	WORD_OFF	n/a	n/a	SAIL	5	13	[0, 0, 0]	n/a	FR1	1	R1146E
2213.122	1.617	2594168	WORD	n/a	wordpools/wordpool_EN.txt	LAKE	6	13	[0, 0, 0]	n/a	FR1	1	R1146E
2214.739	0.8	2595785	WORD_OFF	n/a	n/a	LAKE	6	13	[0, 0, 0]	n/a	FR1	1	R1146E
2215.539	1.617	2596585	WORD	n/a	wordpools/wordpool_EN.txt	BOOK	7	13	[0, 0, 0]	n/a	FR1	1	R1146E
2217.156	0.851	2598202	WORD_OFF	n/a	n/a	BOOK	7	13	[0, 0, 0]	n/a	FR1	1	R1146E
2218.007	1.616	2599053	WORD	n/a	wordpools/wordpool_EN.txt	ROAD	8	13	[0, 0, 0]	n/a	FR1	1	R1146E
2219.623	0.817	2600669	WORD_OFF	n/a	n/a	ROAD	8	13	[0, 0, 0]	n/a	FR1	1	R1146E
2220.44	1.618	2601486	WORD	n/a	wordpools/wordpool_EN.txt	RICE	9	13	[0, 0, 0]	n/a	FR1	1	R1146E
2222.058	0.766	2603104	WORD_OFF	n/a	n/a	RICE	9	13	[0, 0, 0]	n/a	FR1	1	R1146E
2222.824	1.617	2603870	WORD	n/a	wordpools/wordpool_EN.txt	FUDGE	10	13	[0, 0, 0]	n/a	FR1	1	R1146E
2224.441	0.967	2605487	WORD_OFF	n/a	n/a	FUDGE	10	13	[0, 0, 0]	n/a	FR1	1	R1146E
2225.408	1.618	2606454	WORD	n/a	wordpools/wordpool_EN.txt	BEE	11	13	[0, 0, 0]	n/a	FR1	1	R1146E
2227.026	0.765	2608072	WORD_OFF	n/a	n/a	BEE	11	13	[0, 0, 0]	n/a	FR1	1	R1146E
2227.791	1.618	2608837	WORD	n/a	wordpools/wordpool_EN.txt	BAT	12	13	[0, 0, 0]	n/a	FR1	1	R1146E
2229.409	0.0	2610455	WORD_OFF	n/a	n/a	BAT	12	13	[0, 0, 0]	n/a	FR1	1	R1146E
2229.409	0.0	2610455	DISTRACT_START	n/a	n/a	n/a	-999	13	[0, 0, 0]	n/a	FR1	1	R1146E
2229.409	0.016	2610455	START	n/a	n/a	n/a	-999	13	[-999, -999, -999]	n/a	FR1	1	R1146E
2229.425	4.818	2610471	PROB	4.818	n/a	n/a	-999	13	[8, 4, 2]	14	FR1	1	R1146E
2234.243	11.569	2615289	PROB	11.569	n/a	n/a	-999	13	[8, 8, 8]	24	FR1	1	R1146E
2245.812	6.834	2626857	PROB	6.834	n/a	n/a	-999	13	[9, 8, 3]	20	FR1	1	R1146E
2252.646	0.017	2633691	STOP	n/a	n/a	n/a	-999	13	[-999, -999, -999]	n/a	FR1	1	R1146E
2252.663	0.667	2633708	DISTRACT_END	n/a	n/a	n/a	-999	13	[0, 0, 0]	n/a	FR1	1	R1146E
2253.33	0.518	2634375	RETRIEVAL_ORIENT	n/a	n/a	n/a	-999	13	[0, 0, 0]	n/a	FR1	1	R1146E
2253.848	1.435	2634893	REC_START	n/a	n/a	n/a	-999	13	[0, 0, 0]	n/a	FR1	1	R1146E
2255.283	28.575	2636328	REC_WORD	28.575	n/a	SAIL	-999	13	[0, 0, 0]	n/a	FR1	1	R1146E
2283.858	42.102	2664902	REC_END	n/a	n/a	n/a	-999	13	[0, 0, 0]	n/a	FR1	1	R1146E
2325.96	0.5	2707002	TRIAL	n/a	n/a	n/a	-999	14	[0, 0, 0]	n/a	FR1	1	R1146E
2326.46	10.428	2707502	COUNTDOWN_START	n/a	n/a	n/a	-999	14	[0, 0, 0]	n/a	FR1	1	R1146E
2336.888	0.007	2717929	COUNTDOWN_END	n/a	n/a	n/a	-999	14	[0, 0, 0]	n/a	FR1	1	R1146E
2336.895	1.616	2717936	ORIENT	n/a	n/a	n/a	-999	14	[0, 0, 0]	n/a	FR1	1	R1146E
2338.511	2.084	2719552	ORIENT_OFF	n/a	n/a	n/a	-999	14	[0, 0, 0]	n/a	FR1	1	R1146E
2340.595	1.617	2721636	WORD	n/a	wordpools/wordpool_EN.txt	KITE	1	14	[0, 0, 0]	n/a	FR1	1	R1146E
2342.212	0.9	2723253	WORD_OFF	n/a	n/a	KITE	1	14	[0, 0, 0]	n/a	FR1	1	R1146E
2343.112	1.617	2724153	WORD	n/a	wordpools/wordpool_EN.txt	MOON	2	14	[0, 0, 0]	n/a	FR1	1	R1146E
2344.729	0.85	2725770	WORD_OFF	n/a	n/a	MOON	2	14	[0, 0, 0]	n/a	FR1	1	R1146E
2345.579	1.617	2726620	WORD	n/a	wordpools/wordpool_EN.txt	NET	3	14	[0, 0, 0]	n/a	FR1	1	R1146E
2347.196	0.934	2728237	WORD_OFF	n/a	n/a	NET	3	14	[0, 0, 0]	n/a	FR1	1	R1146E
2348.13	1.617	2729171	WORD	n/a	wordpools/wordpool_EN.txt	BLOOM	4	14	[0, 0, 0]	n/a	FR1	1	R1146E
2349.747	0.916	2730788	WORD_OFF	n/a	n/a	BLOOM	4	14	[0, 0, 0]	n/a	FR1	1	R1146E
2350.663	1.617	2731704	WORD	n/a	wordpools/wordpool_EN.txt	MAZE	5	14	[0, 0, 0]	n/a	FR1	1	R1146E
2352.28	1.0	2733321	WORD_OFF	n/a	n/a	MAZE	5	14	[0, 0, 0]	n/a	FR1	1	R1146E
2353.28	1.619	2734321	WORD	n/a	wordpools/wordpool_EN.txt	BALL	6	14	[0, 0, 0]	n/a	FR1	1	R1146E
2354.899	0.848	2735940	WORD_OFF	n/a	n/a	BALL	6	14	[0, 0, 0]	n/a	FR1	1	R1146E
2355.747	1.618	2736788	WORD	n/a	wordpools/wordpool_EN.txt	SIGN	7	14	[0, 0, 0]	n/a	FR1	1	R1146E
2357.365	0.85	2738406	WORD_OFF	n/a	n/a	SIGN	7	14	[0, 0, 0]	n/a	FR1	1	R1146E
2358.215	1.617	2739256	WORD	n/a	wordpools/wordpool_EN.txt	BOWL	8	14	[0, 0, 0]	n/a	FR1	1	R1146E
2359.832	0.833	2740872	WORD_OFF	n/a	n/a	BOWL	8	14	[0, 0, 0]	n/a	FR1	1	R1146E
2360.665	1.617	2741705	WORD	n/a	wordpools/wordpool_EN.txt	SCHOOL	9	14	[0, 0, 0]	n/a	FR1	1	R1146E
2362.282	0.967	2743322	WORD_OFF	n/a	n/a	SCHOOL	9	14	[0, 0, 0]	n/a	FR1	1	R1146E
2363.249	1.618	2744289	WORD	n/a	wordpools/wordpool_EN.txt	BEACH	10	14	[0, 0, 0]	n/a	FR1	1	R1146E
2364.867	0.766	2745907	WORD_OFF	n/a	n/a	BEACH	10	14	[0, 0, 0]	n/a	FR1	1	R1146E
2365.633	1.617	2746673	WORD	n/a	wordpools/wordpool_EN.txt	STAR	11	14	[0, 0, 0]	n/a	FR1	1	R1146E
2367.25	0.883	2748290	WORD_OFF	n/a	n/a	STAR	11	14	[0, 0, 0]	n/a	FR1	1	R1146E
2368.133	1.617	2749173	WORD	n/a	wordpools/wordpool_EN.txt	SPONGE	12	14	[0, 0, 0]	n/a	FR1	1	R1146E
2369.75	0.0	2750790	WORD_OFF	n/a	n/a	SPONGE	12	14	[0, 0, 0]	n/a	FR1	1	R1146E
2369.75	0.001	2750790	DISTRACT_START	n/a	n/a	n/a	-999	14	[0, 0, 0]	n/a	FR1	1	R1146E
2369.751	0.016	2750791	START	n/a	n/a	n/a	-999	14	[-999, -999, -999]	n/a	FR1	1	R1146E
2369.767	4.851	2750807	PROB	4.851	n/a	n/a	-999	14	[2, 6, 2]	10	FR1	1	R1146E
2374.618	7.934	2755658	PROB	7.934	n/a	n/a	-999	14	[8, 8, 3]	19	FR1	1	R1146E
2382.552	3.768	2763592	PROB	3.768	n/a	n/a	-999	14	[7, 9, 1]	17	FR1	1	R1146E
2386.32	4.617	2767359	PROB	4.617	n/a	n/a	-999	14	[4, 2, 8]	14	FR1	1	R1146E
2390.937	0.018	2771976	STOP	n/a	n/a	n/a	-999	14	[-999, -999, -999]	n/a	FR1	1	R1146E
2390.955	0.716	2771994	DISTRACT_END	n/a	n/a	n/a	-999	14	[0, 0, 0]	n/a	FR1	1	R1146E
2391.671	0.517	2772710	RETRIEVAL_ORIENT	n/a	n/a	n/a	-999	14	[0, 0, 0]	n/a	FR1	1	R1146E
2392.188	3.509	2773227	REC_START	n/a	n/a	n/a	-999	14	[0, 0, 0]	n/a	FR1	1	R1146E
2395.697	5.786	2776736	REC_WORD	5.786	n/a	NET	-999	14	[0, 0, 0]	n/a	FR1	1	R1146E
2401.483	20.715	2782522	REC_WORD	20.715	n/a	SPONGE	-999	14	[0, 0, 0]	n/a	FR1	1	R1146E
2422.198	9.313	2803236	REC_END	n/a	n/a	n/a	-999	14	[0, 0, 0]	n/a	FR1	1	R1146E
2431.511	0.5	2812549	TRIAL	n/a	n/a	n/a	-999	15	[0, 0, 0]	n/a	FR1	1	R1146E
2432.011	10.428	2813049	COUNTDOWN_START	n/a	n/a	n/a	-999	15	[0, 0, 0]	n/a	FR1	1	R1146E
2442.439	0.007	2823476	COUNTDOWN_END	n/a	n/a	n/a	-999	15	[0, 0, 0]	n/a	FR1	1	R1146E
2442.446	1.617	2823483	ORIENT	n/a	n/a	n/a	-999	15	[0, 0, 0]	n/a	FR1	1	R1146E
2444.063	2.167	2825100	ORIENT_OFF	n/a	n/a	n/a	-999	15	[0, 0, 0]	n/a	FR1	1	R1146E
2446.23	1.618	2827267	WORD	n/a	wordpools/wordpool_EN.txt	GLASS	1	15	[0, 0, 0]	n/a	FR1	1	R1146E
2447.848	0.816	2828885	WORD_OFF	n/a	n/a	GLASS	1	15	[0, 0, 0]	n/a	FR1	1	R1146E
2448.664	1.617	2829701	WORD	n/a	wordpools/wordpool_EN.txt	SHEET	2	15	[0, 0, 0]	n/a	FR1	1	R1146E
2450.281	0.783	2831318	WORD_OFF	n/a	n/a	SHEET	2	15	[0, 0, 0]	n/a	FR1	1	R1146E
2451.064	1.618	2832101	WORD	n/a	wordpools/wordpool_EN.txt	PARK	3	15	[0, 0, 0]	n/a	FR1	1	R1146E
2452.682	0.883	2833719	WORD_OFF	n/a	n/a	PARK	3	15	[0, 0, 0]	n/a	FR1	1	R1146E
2453.565	1.617	2834602	WORD	n/a	wordpools/wordpool_EN.txt	EGG	4	15	[0, 0, 0]	n/a	FR1	1	R1146E
2455.182	0.784	2836219	WORD_OFF	n/a	n/a	EGG	4	15	[0, 0, 0]	n/a	FR1	1	R1146E
2455.966	1.616	2837003	WORD	n/a	wordpools/wordpool_EN.txt	PIT	5	15	[0, 0, 0]	n/a	FR1	1	R1146E
2457.582	0.967	2838618	WORD_OFF	n/a	n/a	PIT	5	15	[0, 0, 0]	n/a	FR1	1	R1146E
2458.549	1.617	2839585	WORD	n/a	wordpools/wordpool_EN.txt	CROWN	6	15	[0, 0, 0]	n/a	FR1	1	R1146E
2460.166	0.851	2841202	WORD_OFF	n/a	n/a	CROWN	6	15	[0, 0, 0]	n/a	FR1	1	R1146E
2461.017	1.616	2842053	WORD	n/a	wordpools/wordpool_EN.txt	SMILE	7	15	[0, 0, 0]	n/a	FR1	1	R1146E
2462.633	0.95	2843669	WORD_OFF	n/a	n/a	SMILE	7	15	[0, 0, 0]	n/a	FR1	1	R1146E
2463.583	1.617	2844619	WORD	n/a	wordpools/wordpool_EN.txt	DRESS	8	15	[0, 0, 0]	n/a	FR1	1	R1146E
2465.2	0.867	2846236	WORD_OFF	n/a	n/a	DRESS	8	15	[0, 0, 0]	n/a	FR1	1	R1146E
2466.067	1.617	2847103	WORD	n/a	wordpools/wordpool_EN.txt	BUSH	9	15	[0, 0, 0]	n/a	FR1	1	R1146E
2467.684	0.867	2848720	WORD_OFF	n/a	n/a	BUSH	9	15	[0, 0, 0]	n/a	FR1	1	R1146E
2468.551	1.617	2849587	WORD	n/a	wordpools/wordpool_EN.txt	BEAR	10	15	[0, 0, 0]	n/a	FR1	1	R1146E
2470.168	0.95	2851204	WORD_OFF	n/a	n/a	BEAR	10	15	[0, 0, 0]	n/a	FR1	1	R1146E
2471.118	1.617	2852154	WORD	n/a	wordpools/wordpool_EN.txt	RAIN	11	15	[0, 0, 0]	n/a	FR1	1	R1146E
2472.735	1.0	2853771	WORD_OFF	n/a	n/a	RAIN	11	15	[0, 0, 0]	n/a	FR1	1	R1146E
2473.735	1.617	2854771	WORD	n/a	wordpools/wordpool_EN.txt	CUBE	12	15	[0, 0, 0]	n/a	FR1	1	R1146E
2475.352	0.0	2856388	DISTRACT_START	n/a	n/a	n/a	-999	15	[0, 0, 0]	n/a	FR1	1	R1146E
2475.352	0.001	2856388	WORD_OFF	n/a	n/a	CUBE	12	15	[0, 0, 0]	n/a	FR1	1	R1146E
2475.353	0.016	2856389	START	n/a	n/a	n/a	-999	15	[-999, -999, -999]	n/a	FR1	1	R1146E
2475.369	6.034	2856405	PROB	6.034	n/a	n/a	-999	15	[2, 7, 1]	10	FR1	1	R1146E
2481.403	11.002	2862439	PROB	11.002	n/a	n/a	-999	15	[6, 5, 6]	17	FR1	1	R1146E
2492.405	6.121	2873440	PROB	6.121	n/a	n/a	-999	15	[9, 5, 9]	24	FR1	1	R1146E
2498.526	0.014	2879561	STOP	n/a	n/a	n/a	-999	15	[-999, -999, -999]	n/a	FR1	1	R1146E
2498.54	0.65	2879575	DISTRACT_END	n/a	n/a	n/a	-999	15	[0, 0, 0]	n/a	FR1	1	R1146E
2499.19	0.517	2880225	RETRIEVAL_ORIENT	n/a	n/a	n/a	-999	15	[0, 0, 0]	n/a	FR1	1	R1146E
2499.707	1.97	2880742	REC_START	n/a	n/a	n/a	-999	15	[0, 0, 0]	n/a	FR1	1	R1146E
2501.677	28.04	2882712	REC_WORD	28.04	n/a	BUSH	-999	15	[0, 0, 0]	n/a	FR1	1	R1146E
2529.717	16.299	2910751	REC_END	n/a	n/a	n/a	-999	15	[0, 0, 0]	n/a	FR1	1	R1146E
2546.016	0.5	2927049	TRIAL	n/a	n/a	n/a	-999	16	[0, 0, 0]	n/a	FR1	1	R1146E
2546.516	10.428	2927549	COUNTDOWN_START	n/a	n/a	n/a	-999	16	[0, 0, 0]	n/a	FR1	1	R1146E
2556.944	0.007	2937976	COUNTDOWN_END	n/a	n/a	n/a	-999	16	[0, 0, 0]	n/a	FR1	1	R1146E
2556.951	1.616	2937983	ORIENT	n/a	n/a	n/a	-999	16	[0, 0, 0]	n/a	FR1	1	R1146E
2558.567	2.017	2939599	ORIENT_OFF	n/a	n/a	n/a	-999	16	[0, 0, 0]	n/a	FR1	1	R1146E
2560.584	1.617	2941616	WORD	n/a	wordpools/wordpool_EN.txt	DESK	1	16	[0, 0, 0]	n/a	FR1	1	R1146E
2562.201	0.834	2943233	WORD_OFF	n/a	n/a	DESK	1	16	[0, 0, 0]	n/a	FR1	1	R1146E
2563.035	1.616	2944067	WORD	n/a	wordpools/wordpool_EN.txt	SHIELD	2	16	[0, 0, 0]	n/a	FR1	1	R1146E
2564.651	0.984	2945683	WORD_OFF	n/a	n/a	SHIELD	2	16	[0, 0, 0]	n/a	FR1	1	R1146E
2565.635	1.617	2946667	WORD	n/a	wordpools/wordpool_EN.txt	LAMB	3	16	[0, 0, 0]	n/a	FR1	1	R1146E
2567.252	0.883	2948284	WORD_OFF	n/a	n/a	LAMB	3	16	[0, 0, 0]	n/a	FR1	1	R1146E
2568.135	1.617	2949167	WORD	n/a	wordpools/wordpool_EN.txt	ARK	4	16	[0, 0, 0]	n/a	FR1	1	R1146E
2569.752	0.984	2950784	WORD_OFF	n/a	n/a	ARK	4	16	[0, 0, 0]	n/a	FR1	1	R1146E
2570.736	1.617	2951768	WORD	n/a	wordpools/wordpool_EN.txt	SEAT	5	16	[0, 0, 0]	n/a	FR1	1	R1146E
2572.353	0.983	2953385	WORD_OFF	n/a	n/a	SEAT	5	16	[0, 0, 0]	n/a	FR1	1	R1146E
2573.336	1.618	2954368	WORD	n/a	wordpools/wordpool_EN.txt	LAMP	6	16	[0, 0, 0]	n/a	FR1	1	R1146E
2574.954	0.934	2955986	WORD_OFF	n/a	n/a	LAMP	6	16	[0, 0, 0]	n/a	FR1	1	R1146E
2575.888	1.615	2956920	WORD	n/a	wordpools/wordpool_EN.txt	SPEAR	7	16	[0, 0, 0]	n/a	FR1	1	R1146E
2577.503	0.767	2958535	WORD_OFF	n/a	n/a	SPEAR	7	16	[0, 0, 0]	n/a	FR1	1	R1146E
2578.27	1.618	2959302	WORD	n/a	wordpools/wordpool_EN.txt	STEAM	8	16	[0, 0, 0]	n/a	FR1	1	R1146E
2579.888	0.849	2960920	WORD_OFF	n/a	n/a	STEAM	8	16	[0, 0, 0]	n/a	FR1	1	R1146E
2580.737	1.617	2961769	WORD	n/a	wordpools/wordpool_EN.txt	GOAT	9	16	[0, 0, 0]	n/a	FR1	1	R1146E
2582.354	0.784	2963385	WORD_OFF	n/a	n/a	GOAT	9	16	[0, 0, 0]	n/a	FR1	1	R1146E
2583.138	1.617	2964169	WORD	n/a	wordpools/wordpool_EN.txt	LIP	10	16	[0, 0, 0]	n/a	FR1	1	R1146E
2584.755	0.883	2965786	WORD_OFF	n/a	n/a	LIP	10	16	[0, 0, 0]	n/a	FR1	1	R1146E
2585.638	1.617	2966669	WORD	n/a	wordpools/wordpool_EN.txt	FACE	11	16	[0, 0, 0]	n/a	FR1	1	R1146E
2587.255	0.834	2968286	WORD_OFF	n/a	n/a	FACE	11	16	[0, 0, 0]	n/a	FR1	1	R1146E
2588.089	1.617	2969120	WORD	n/a	wordpools/wordpool_EN.txt	SWORD	12	16	[0, 0, 0]	n/a	FR1	1	R1146E
2589.706	0.0	2970737	WORD_OFF	n/a	n/a	SWORD	12	16	[0, 0, 0]	n/a	FR1	1	R1146E
2589.706	0.0	2970737	DISTRACT_START	n/a	n/a	n/a	-999	16	[0, 0, 0]	n/a	FR1	1	R1146E
2589.706	0.016	2970737	START	n/a	n/a	n/a	-999	16	[-999, -999, -999]	n/a	FR1	1	R1146E
2589.722	6.468	2970753	PROB	6.468	n/a	n/a	-999	16	[2, 6, 2]	10	FR1	1	R1146E
2596.19	5.351	2977221	PROB	5.351	n/a	n/a	-999	16	[1, 4, 5]	10	FR1	1	R1146E
2601.541	4.168	2982572	PROB	4.168	n/a	n/a	-999	16	[1, 9, 5]	15	FR1	1	R1146E
2605.709	7.244	2986740	PROB	7.244	n/a	n/a	-999	16	[2, 9, 6]	17	FR1	1	R1146E
2612.953	0.008	2993983	STOP	n/a	n/a	n/a	-999	16	[-999, -999, -999]	n/a	FR1	1	R1146E
2612.961	0.549	2993991	DISTRACT_END	n/a	n/a	n/a	-999	16	[0, 0, 0]	n/a	FR1	1	R1146E
2613.51	0.518	2994540	RETRIEVAL_ORIENT	n/a	n/a	n/a	-999	16	[0, 0, 0]	n/a	FR1	1	R1146E
2614.028	1.334	2995058	REC_START	n/a	n/a	n/a	-999	16	[0, 0, 0]	n/a	FR1	1	R1146E
2615.362	1.987	2996392	REC_WORD	1.987	n/a	SPEAR	-999	16	[0, 0, 0]	n/a	FR1	1	R1146E
2617.349	1.665	2998379	REC_WORD	1.665	n/a	ARK	-999	16	[0, 0, 0]	n/a	FR1	1	R1146E
2619.014	3.209	3000044	REC_WORD	3.209	n/a	SWORD	-999	16	[0, 0, 0]	n/a	FR1	1	R1146E
2622.223	21.816	3003253	REC_WORD	21.816	n/a	LAMB	-999	16	[0, 0, 0]	n/a	FR1	1	R1146E
2644.039	12.779	3025068	REC_END	n/a	n/a	n/a	-999	16	[0, 0, 0]	n/a	FR1	1	R1146E
2656.818	0.5	3037846	TRIAL	n/a	n/a	n/a	-999	17	[0, 0, 0]	n/a	FR1	1	R1146E
2657.318	10.428	3038346	COUNTDOWN_START	n/a	n/a	n/a	-999	17	[0, 0, 0]	n/a	FR1	1	R1146E
2667.746	0.007	3048774	COUNTDOWN_END	n/a	n/a	n/a	-999	17	[0, 0, 0]	n/a	FR1	1	R1146E
2667.753	1.617	3048781	ORIENT	n/a	n/a	n/a	-999	17	[0, 0, 0]	n/a	FR1	1	R1146E
2669.37	2.25	3050398	ORIENT_OFF	n/a	n/a	n/a	-999	17	[0, 0, 0]	n/a	FR1	1	R1146E
2671.62	1.617	3052648	WORD	n/a	wordpools/wordpool_EN.txt	DIME	1	17	[0, 0, 0]	n/a	FR1	1	R1146E
2673.237	0.85	3054265	WORD_OFF	n/a	n/a	DIME	1	17	[0, 0, 0]	n/a	FR1	1	R1146E
2674.087	1.617	3055115	WORD	n/a	wordpools/wordpool_EN.txt	CHIN	2	17	[0, 0, 0]	n/a	FR1	1	R1146E
2675.704	0.8	3056732	WORD_OFF	n/a	n/a	CHIN	2	17	[0, 0, 0]	n/a	FR1	1	R1146E
2676.504	1.617	3057532	WORD	n/a	wordpools/wordpool_EN.txt	FLUTE	3	17	[0, 0, 0]	n/a	FR1	1	R1146E
2678.121	0.967	3059149	WORD_OFF	n/a	n/a	FLUTE	3	17	[0, 0, 0]	n/a	FR1	1	R1146E
2679.088	1.617	3060116	WORD	n/a	wordpools/wordpool_EN.txt	HOOK	4	17	[0, 0, 0]	n/a	FR1	1	R1146E
2680.705	0.85	3061732	WORD_OFF	n/a	n/a	HOOK	4	17	[0, 0, 0]	n/a	FR1	1	R1146E
2681.555	1.617	3062582	WORD	n/a	wordpools/wordpool_EN.txt	MAT	5	17	[0, 0, 0]	n/a	FR1	1	R1146E
2683.172	0.901	3064199	WORD_OFF	n/a	n/a	MAT	5	17	[0, 0, 0]	n/a	FR1	1	R1146E
2684.073	1.616	3065100	WORD	n/a	wordpools/wordpool_EN.txt	FISH	6	17	[0, 0, 0]	n/a	FR1	1	R1146E
2685.689	0.917	3066716	WORD_OFF	n/a	n/a	FISH	6	17	[0, 0, 0]	n/a	FR1	1	R1146E
2686.606	1.617	3067633	WORD	n/a	wordpools/wordpool_EN.txt	HOLE	7	17	[0, 0, 0]	n/a	FR1	1	R1146E
2688.223	0.917	3069250	WORD_OFF	n/a	n/a	HOLE	7	17	[0, 0, 0]	n/a	FR1	1	R1146E
2689.14	1.617	3070167	WORD	n/a	wordpools/wordpool_EN.txt	NOSE	8	17	[0, 0, 0]	n/a	FR1	1	R1146E
2690.757	1.0	3071784	WORD_OFF	n/a	n/a	NOSE	8	17	[0, 0, 0]	n/a	FR1	1	R1146E
2691.757	1.617	3072784	WORD	n/a	wordpools/wordpool_EN.txt	COUCH	9	17	[0, 0, 0]	n/a	FR1	1	R1146E
2693.374	0.867	3074401	WORD_OFF	n/a	n/a	COUCH	9	17	[0, 0, 0]	n/a	FR1	1	R1146E
2694.241	1.618	3075268	WORD	n/a	wordpools/wordpool_EN.txt	THREAD	10	17	[0, 0, 0]	n/a	FR1	1	R1146E
2695.859	1.017	3076886	WORD_OFF	n/a	n/a	THREAD	10	17	[0, 0, 0]	n/a	FR1	1	R1146E
2696.876	1.615	3077903	WORD	n/a	wordpools/wordpool_EN.txt	STREET	11	17	[0, 0, 0]	n/a	FR1	1	R1146E
2698.491	0.801	3079518	WORD_OFF	n/a	n/a	STREET	11	17	[0, 0, 0]	n/a	FR1	1	R1146E
2699.292	1.618	3080319	WORD	n/a	wordpools/wordpool_EN.txt	VINE	12	17	[0, 0, 0]	n/a	FR1	1	R1146E
2700.91	0.0	3081937	DISTRACT_START	n/a	n/a	n/a	-999	17	[0, 0, 0]	n/a	FR1	1	R1146E
2700.91	0.0	3081937	WORD_OFF	n/a	n/a	VINE	12	17	[0, 0, 0]	n/a	FR1	1	R1146E
2700.91	0.016	3081937	START	n/a	n/a	n/a	-999	17	[-999, -999, -999]	n/a	FR1	1	R1146E
2700.926	18.786	3081953	PROB	18.786	n/a	n/a	-999	17	[6, 4, 3]	13	FR1	1	R1146E
2719.712	4.906	3100738	PROB	4.906	n/a	n/a	-999	17	[3, 7, 1]	11	FR1	1	R1146E
2724.618	0.012	3105644	STOP	n/a	n/a	n/a	-999	17	[-999, -999, -999]	n/a	FR1	1	R1146E
2724.63	0.716	3105656	DISTRACT_END	n/a	n/a	n/a	-999	17	[0, 0, 0]	n/a	FR1	1	R1146E
2725.346	0.519	3106372	RETRIEVAL_ORIENT	n/a	n/a	n/a	-999	17	[0, 0, 0]	n/a	FR1	1	R1146E
2725.865	3.856	3106891	REC_START	n/a	n/a	n/a	-999	17	[0, 0, 0]	n/a	FR1	1	R1146E
2729.721	16.742	3110747	REC_WORD	16.742	n/a	NOSE	-999	17	[0, 0, 0]	n/a	FR1	1	R1146E
2746.463	9.411	3127488	REC_WORD	9.411	n/a	STREET	-999	17	[0, 0, 0]	n/a	FR1	1	R1146E
2755.874	36.152	3136898	REC_END	n/a	n/a	n/a	-999	17	[0, 0, 0]	n/a	FR1	1	R1146E
2792.026	0.5	3173049	TRIAL	n/a	n/a	n/a	-999	18	[0, 0, 0]	n/a	FR1	1	R1146E
2792.526	10.428	3173549	COUNTDOWN_START	n/a	n/a	n/a	-999	18	[0, 0, 0]	n/a	FR1	1	R1146E
2802.954	0.007	3183977	COUNTDOWN_END	n/a	n/a	n/a	-999	18	[0, 0, 0]	n/a	FR1	1	R1146E
2802.961	1.616	3183984	ORIENT	n/a	n/a	n/a	-999	18	[0, 0, 0]	n/a	FR1	1	R1146E
2804.577	2.285	3185599	ORIENT_OFF	n/a	n/a	n/a	-999	18	[0, 0, 0]	n/a	FR1	1	R1146E
2806.862	1.616	3187884	WORD	n/a	wordpools/wordpool_EN.txt	TOY	1	18	[0, 0, 0]	n/a	FR1	1	R1146E
2808.478	0.95	3189500	WORD_OFF	n/a	n/a	TOY	1	18	[0, 0, 0]	n/a	FR1	1	R1146E
2809.428	1.618	3190450	WORD	n/a	wordpools/wordpool_EN.txt	RUG	2	18	[0, 0, 0]	n/a	FR1	1	R1146E
2811.046	0.883	3192068	WORD_OFF	n/a	n/a	RUG	2	18	[0, 0, 0]	n/a	FR1	1	R1146E
2811.929	1.616	3192951	WORD	n/a	wordpools/wordpool_EN.txt	BARN	3	18	[0, 0, 0]	n/a	FR1	1	R1146E
2813.545	0.834	3194567	WORD_OFF	n/a	n/a	BARN	3	18	[0, 0, 0]	n/a	FR1	1	R1146E
2814.379	1.618	3195401	WORD	n/a	wordpools/wordpool_EN.txt	BOY	4	18	[0, 0, 0]	n/a	FR1	1	R1146E
2815.997	0.766	3197019	WORD_OFF	n/a	n/a	BOY	4	18	[0, 0, 0]	n/a	FR1	1	R1146E
2816.763	1.617	3197785	WORD	n/a	wordpools/wordpool_EN.txt	LAWN	5	18	[0, 0, 0]	n/a	FR1	1	R1146E
2818.38	0.95	3199402	WORD_OFF	n/a	n/a	LAWN	5	18	[0, 0, 0]	n/a	FR1	1	R1146E
2819.33	1.618	3200352	WORD	n/a	wordpools/wordpool_EN.txt	PIPE	6	18	[0, 0, 0]	n/a	FR1	1	R1146E
2820.948	1.0	3201970	WORD_OFF	n/a	n/a	PIPE	6	18	[0, 0, 0]	n/a	FR1	1	R1146E
2821.948	1.616	3202970	WORD	n/a	wordpools/wordpool_EN.txt	CALF	7	18	[0, 0, 0]	n/a	FR1	1	R1146E
2823.564	0.833	3204586	WORD_OFF	n/a	n/a	CALF	7	18	[0, 0, 0]	n/a	FR1	1	R1146E
2824.397	1.618	3205419	WORD	n/a	wordpools/wordpool_EN.txt	CHEEK	8	18	[0, 0, 0]	n/a	FR1	1	R1146E
2826.015	0.967	3207037	WORD_OFF	n/a	n/a	CHEEK	8	18	[0, 0, 0]	n/a	FR1	1	R1146E
2826.982	1.616	3208004	WORD	n/a	wordpools/wordpool_EN.txt	SPOON	9	18	[0, 0, 0]	n/a	FR1	1	R1146E
2828.598	0.833	3209620	WORD_OFF	n/a	n/a	SPOON	9	18	[0, 0, 0]	n/a	FR1	1	R1146E
2829.431	1.618	3210452	WORD	n/a	wordpools/wordpool_EN.txt	BED	10	18	[0, 0, 0]	n/a	FR1	1	R1146E
2831.049	0.951	3212070	WORD_OFF	n/a	n/a	BED	10	18	[0, 0, 0]	n/a	FR1	1	R1146E
2832.0	1.616	3213021	WORD	n/a	wordpools/wordpool_EN.txt	DOG	11	18	[0, 0, 0]	n/a	FR1	1	R1146E
2833.616	0.799	3214637	WORD_OFF	n/a	n/a	DOG	11	18	[0, 0, 0]	n/a	FR1	1	R1146E
2834.415	1.602	3215436	WORD	n/a	wordpools/wordpool_EN.txt	ROPE	12	18	[0, 0, 0]	n/a	FR1	1	R1146E
2836.017	0.0	3217038	WORD_OFF	n/a	n/a	ROPE	12	18	[0, 0, 0]	n/a	FR1	1	R1146E
2836.017	0.0	3217038	DISTRACT_START	n/a	n/a	n/a	-999	18	[0, 0, 0]	n/a	FR1	1	R1146E
2836.017	0.017	3217038	START	n/a	n/a	n/a	-999	18	[-999, -999, -999]	n/a	FR1	1	R1146E
2836.034	6.3	3217055	PROB	6.3	n/a	n/a	-999	18	[4, 5, 3]	12	FR1	1	R1146E
2842.334	5.652	3223355	PROB	5.652	n/a	n/a	-999	18	[1, 6, 4]	11	FR1	1	R1146E
2847.986	3.533	3229007	PROB	3.533	n/a	n/a	-999	18	[5, 1, 5]	11	FR1	1	R1146E
2851.519	4.485	3232540	PROB	4.485	n/a	n/a	-999	18	[9, 2, 9]	20	FR1	1	R1146E
2856.004	10.98	3237024	PROB	10.98	n/a	n/a	-999	18	[1, 2, 5]	8	FR1	1	R1146E
2866.984	0.022	3248004	STOP	n/a	n/a	n/a	-999	18	[-999, -999, -999]	n/a	FR1	1	R1146E
2867.006	0.616	3248026	DISTRACT_END	n/a	n/a	n/a	-999	18	[0, 0, 0]	n/a	FR1	1	R1146E
2867.622	0.517	3248642	RETRIEVAL_ORIENT	n/a	n/a	n/a	-999	18	[0, 0, 0]	n/a	FR1	1	R1146E
2868.139	1.647	3249159	REC_START	n/a	n/a	n/a	-999	18	[0, 0, 0]	n/a	FR1	1	R1146E
2869.786	1.468	3250806	REC_WORD	1.468	n/a	STREET	-999	18	[0, 0, 0]	n/a	FR1	1	R1146E
2871.254	1.708	3252274	REC_WORD	1.708	n/a	DOG	-999	18	[0, 0, 0]	n/a	FR1	1	R1146E
2872.962	7.752	3253982	REC_WORD	7.752	n/a	TOY	-999	18	[0, 0, 0]	n/a	FR1	1	R1146E
2880.714	1.613	3261733	REC_WORD	1.613	n/a	BARN	-999	18	[0, 0, 0]	n/a	FR1	1	R1146E
2882.327	15.823	3263346	REC_WORD	15.823	n/a	BOY	-999	18	[0, 0, 0]	n/a	FR1	1	R1146E
2898.15	248.889	3279169	REC_END	n/a	n/a	n/a	-999	18	[0, 0, 0]	n/a	FR1	1	R1146E
3147.039	0.5	3528048	TRIAL	n/a	n/a	n/a	-999	19	[0, 0, 0]	n/a	FR1	1	R1146E
3147.539	10.428	3528548	COUNTDOWN_START	n/a	n/a	n/a	-999	19	[0, 0, 0]	n/a	FR1	1	R1146E
3157.967	0.007	3538975	COUNTDOWN_END	n/a	n/a	n/a	-999	19	[0, 0, 0]	n/a	FR1	1	R1146E
3157.974	1.616	3538982	ORIENT	n/a	n/a	n/a	-999	19	[0, 0, 0]	n/a	FR1	1	R1146E
3159.59	2.268	3540598	ORIENT_OFF	n/a	n/a	n/a	-999	19	[0, 0, 0]	n/a	FR1	1	R1146E
3161.858	1.616	3542866	WORD	n/a	wordpools/wordpool_EN.txt	KEY	1	19	[0, 0, 0]	n/a	FR1	1	R1146E
3163.474	0.967	3544482	WORD_OFF	n/a	n/a	KEY	1	19	[0, 0, 0]	n/a	FR1	1	R1146E
3164.441	1.617	3545449	WORD	n/a	wordpools/wordpool_EN.txt	MULE	2	19	[0, 0, 0]	n/a	FR1	1	R1146E
3166.058	0.934	3547066	WORD_OFF	n/a	n/a	MULE	2	19	[0, 0, 0]	n/a	FR1	1	R1146E
3166.992	1.616	3548000	WORD	n/a	wordpools/wordpool_EN.txt	BEAK	3	19	[0, 0, 0]	n/a	FR1	1	R1146E
3168.608	0.95	3549616	WORD_OFF	n/a	n/a	BEAK	3	19	[0, 0, 0]	n/a	FR1	1	R1146E
3169.558	1.617	3550566	WORD	n/a	wordpools/wordpool_EN.txt	BOOT	4	19	[0, 0, 0]	n/a	FR1	1	R1146E
3171.175	0.984	3552183	WORD_OFF	n/a	n/a	BOOT	4	19	[0, 0, 0]	n/a	FR1	1	R1146E
3172.159	1.617	3553167	WORD	n/a	wordpools/wordpool_EN.txt	TRAIN	5	19	[0, 0, 0]	n/a	FR1	1	R1146E
3173.776	0.8	3554784	WORD_OFF	n/a	n/a	TRAIN	5	19	[0, 0, 0]	n/a	FR1	1	R1146E
3174.576	1.617	3555584	WORD	n/a	wordpools/wordpool_EN.txt	PIN	6	19	[0, 0, 0]	n/a	FR1	1	R1146E
3176.193	0.801	3557200	WORD_OFF	n/a	n/a	PIN	6	19	[0, 0, 0]	n/a	FR1	1	R1146E
3176.994	1.616	3558001	WORD	n/a	wordpools/wordpool_EN.txt	TRASH	7	19	[0, 0, 0]	n/a	FR1	1	R1146E
3178.61	0.933	3559617	WORD_OFF	n/a	n/a	TRASH	7	19	[0, 0, 0]	n/a	FR1	1	R1146E
3179.543	1.617	3560550	WORD	n/a	wordpools/wordpool_EN.txt	JUICE	8	19	[0, 0, 0]	n/a	FR1	1	R1146E
3181.16	0.785	3562167	WORD_OFF	n/a	n/a	JUICE	8	19	[0, 0, 0]	n/a	FR1	1	R1146E
3181.945	1.616	3562952	WORD	n/a	wordpools/wordpool_EN.txt	BOARD	9	19	[0, 0, 0]	n/a	FR1	1	R1146E
3183.561	1.017	3564568	WORD_OFF	n/a	n/a	BOARD	9	19	[0, 0, 0]	n/a	FR1	1	R1146E
3184.578	1.617	3565585	WORD	n/a	wordpools/wordpool_EN.txt	CRANE	10	19	[0, 0, 0]	n/a	FR1	1	R1146E
3186.195	0.916	3567202	WORD_OFF	n/a	n/a	CRANE	10	19	[0, 0, 0]	n/a	FR1	1	R1146E
3187.111	1.617	3568118	WORD	n/a	wordpools/wordpool_EN.txt	SHRIMP	11	19	[0, 0, 0]	n/a	FR1	1	R1146E
3188.728	0.867	3569735	WORD_OFF	n/a	n/a	SHRIMP	11	19	[0, 0, 0]	n/a	FR1	1	R1146E
3189.595	1.617	3570602	WORD	n/a	wordpools/wordpool_EN.txt	SHELL	12	19	[0, 0, 0]	n/a	FR1	1	R1146E
3191.212	0.0	3572219	DISTRACT_START	n/a	n/a	n/a	-999	19	[0, 0, 0]	n/a	FR1	1	R1146E
3191.212	0.001	3572219	WORD_OFF	n/a	n/a	SHELL	12	19	[0, 0, 0]	n/a	FR1	1	R1146E
3191.213	0.016	3572220	START	n/a	n/a	n/a	-999	19	[-999, -999, -999]	n/a	FR1	1	R1146E
3191.229	7.401	3572236	PROB	7.401	n/a	n/a	-999	19	[8, 3, 8]	20	FR1	1	R1146E
3198.63	14.361	3579637	PROB	14.361	n/a	n/a	-999	19	[5, 7, 3]	15	FR1	1	R1146E
3212.991	0.009	3593997	STOP	n/a	n/a	n/a	-999	19	[-999, -999, -999]	n/a	FR1	1	R1146E
3213.0	0.599	3594006	DISTRACT_END	n/a	n/a	n/a	-999	19	[0, 0, 0]	n/a	FR1	1	R1146E
3213.599	0.518	3594605	RETRIEVAL_ORIENT	n/a	n/a	n/a	-999	19	[0, 0, 0]	n/a	FR1	1	R1146E
3214.117	1.571	3595123	REC_START	n/a	n/a	n/a	-999	19	[0, 0, 0]	n/a	FR1	1	R1146E
3215.688	2.747	3596694	REC_WORD	2.747	n/a	BEAK	-999	19	[0, 0, 0]	n/a	FR1	1	R1146E
3218.435	25.691	3599441	REC_WORD	25.691	n/a	SHELL	-999	19	[0, 0, 0]	n/a	FR1	1	R1146E
3244.126	12.431	3625131	REC_END	n/a	n/a	n/a	-999	19	[0, 0, 0]	n/a	FR1	1	R1146E
3256.557	0.5	3637561	TRIAL	n/a	n/a	n/a	-999	20	[0, 0, 0]	n/a	FR1	1	R1146E
3257.057	10.428	3638061	COUNTDOWN_START	n/a	n/a	n/a	-999	20	[0, 0, 0]	n/a	FR1	1	R1146E
3267.485	0.007	3648489	COUNTDOWN_END	n/a	n/a	n/a	-999	20	[0, 0, 0]	n/a	FR1	1	R1146E
3267.492	1.617	3648496	ORIENT	n/a	n/a	n/a	-999	20	[0, 0, 0]	n/a	FR1	1	R1146E
3269.109	1.918	3650113	ORIENT_OFF	n/a	n/a	n/a	-999	20	[0, 0, 0]	n/a	FR1	1	R1146E
3271.027	1.616	3652031	WORD	n/a	wordpools/wordpool_EN.txt	CANE	1	20	[0, 0, 0]	n/a	FR1	1	R1146E
3272.643	0.85	3653647	WORD_OFF	n/a	n/a	CANE	1	20	[0, 0, 0]	n/a	FR1	1	R1146E
3273.493	1.617	3654497	WORD	n/a	wordpools/wordpool_EN.txt	SNAIL	2	20	[0, 0, 0]	n/a	FR1	1	R1146E
3275.11	0.984	3656113	WORD_OFF	n/a	n/a	SNAIL	2	20	[0, 0, 0]	n/a	FR1	1	R1146E
3276.094	1.617	3657097	WORD	n/a	wordpools/wordpool_EN.txt	SHARK	3	20	[0, 0, 0]	n/a	FR1	1	R1146E
3277.711	0.933	3658714	WORD_OFF	n/a	n/a	SHARK	3	20	[0, 0, 0]	n/a	FR1	1	R1146E
3278.644	1.617	3659647	WORD	n/a	wordpools/wordpool_EN.txt	CLOUD	4	20	[0, 0, 0]	n/a	FR1	1	R1146E
3280.261	1.017	3661264	WORD_OFF	n/a	n/a	CLOUD	4	20	[0, 0, 0]	n/a	FR1	1	R1146E
3281.278	1.601	3662281	WORD	n/a	wordpools/wordpool_EN.txt	CHALK	5	20	[0, 0, 0]	n/a	FR1	1	R1146E
3282.879	0.85	3663882	WORD_OFF	n/a	n/a	CHALK	5	20	[0, 0, 0]	n/a	FR1	1	R1146E
3283.729	1.616	3664732	WORD	n/a	wordpools/wordpool_EN.txt	SWAMP	6	20	[0, 0, 0]	n/a	FR1	1	R1146E
3285.345	0.951	3666348	WORD_OFF	n/a	n/a	SWAMP	6	20	[0, 0, 0]	n/a	FR1	1	R1146E
3286.296	1.618	3667299	WORD	n/a	wordpools/wordpool_EN.txt	SPARK	7	20	[0, 0, 0]	n/a	FR1	1	R1146E
3287.914	0.865	3668917	WORD_OFF	n/a	n/a	SPARK	7	20	[0, 0, 0]	n/a	FR1	1	R1146E
3288.779	1.617	3669782	WORD	n/a	wordpools/wordpool_EN.txt	RAT	8	20	[0, 0, 0]	n/a	FR1	1	R1146E
3290.396	0.85	3671399	WORD_OFF	n/a	n/a	RAT	8	20	[0, 0, 0]	n/a	FR1	1	R1146E
3291.246	1.602	3672249	WORD	n/a	wordpools/wordpool_EN.txt	FARM	9	20	[0, 0, 0]	n/a	FR1	1	R1146E
3292.848	0.832	3673851	WORD_OFF	n/a	n/a	FARM	9	20	[0, 0, 0]	n/a	FR1	1	R1146E
3293.68	1.617	3674683	WORD	n/a	wordpools/wordpool_EN.txt	SHEEP	10	20	[0, 0, 0]	n/a	FR1	1	R1146E
3295.297	0.967	3676300	WORD_OFF	n/a	n/a	SHEEP	10	20	[0, 0, 0]	n/a	FR1	1	R1146E
3296.264	1.601	3677267	WORD	n/a	wordpools/wordpool_EN.txt	SEED	11	20	[0, 0, 0]	n/a	FR1	1	R1146E
3297.865	0.984	3678868	WORD_OFF	n/a	n/a	SEED	11	20	[0, 0, 0]	n/a	FR1	1	R1146E
3298.849	1.616	3679852	WORD	n/a	wordpools/wordpool_EN.txt	FLAG	12	20	[0, 0, 0]	n/a	FR1	1	R1146E
3300.465	0.0	3681467	WORD_OFF	n/a	n/a	FLAG	12	20	[0, 0, 0]	n/a	FR1	1	R1146E
3300.465	0.0	3681467	DISTRACT_START	n/a	n/a	n/a	-999	20	[0, 0, 0]	n/a	FR1	1	R1146E
3300.465	0.017	3681467	START	n/a	n/a	n/a	-999	20	[-999, -999, -999]	n/a	FR1	1	R1146E
3300.482	6.234	3681484	PROB	6.234	n/a	n/a	-999	20	[8, 2, 1]	11	FR1	1	R1146E
3306.716	23.157	3687718	PROB	23.157	n/a	n/a	-999	20	[6, 9, 3]	18	FR1	1	R1146E
3329.873	0.015	3710874	STOP	n/a	n/a	n/a	-999	20	[-999, -999, -999]	n/a	FR1	1	R1146E
3329.888	0.599	3710889	DISTRACT_END	n/a	n/a	n/a	-999	20	[0, 0, 0]	n/a	FR1	1	R1146E
3330.487	0.518	3711488	RETRIEVAL_ORIENT	n/a	n/a	n/a	-999	20	[0, 0, 0]	n/a	FR1	1	R1146E
3331.005	1.36	3712006	REC_START	n/a	n/a	n/a	-999	20	[0, 0, 0]	n/a	FR1	1	R1146E
3332.365	28.651	3713366	REC_WORD	28.651	n/a	SHEEP	-999	20	[0, 0, 0]	n/a	FR1	1	R1146E
3361.016	13.795	3742016	REC_END	n/a	n/a	n/a	-999	20	[0, 0, 0]	n/a	FR1	1	R1146E
3374.811	0.5	3755810	TRIAL	n/a	n/a	n/a	-999	21	[0, 0, 0]	n/a	FR1	1	R1146E
3375.311	10.428	3756310	COUNTDOWN_START	n/a	n/a	n/a	-999	21	[0, 0, 0]	n/a	FR1	1	R1146E
3385.739	0.008	3766738	COUNTDOWN_END	n/a	n/a	n/a	-999	21	[0, 0, 0]	n/a	FR1	1	R1146E
3385.747	1.617	3766746	ORIENT	n/a	n/a	n/a	-999	21	[0, 0, 0]	n/a	FR1	1	R1146E
3387.364	2.0	3768363	ORIENT_OFF	n/a	n/a	n/a	-999	21	[0, 0, 0]	n/a	FR1	1	R1146E
3389.364	1.618	3770363	WORD	n/a	wordpools/wordpool_EN.txt	DART	1	21	[0, 0, 0]	n/a	FR1	1	R1146E
3390.982	0.782	3771981	WORD_OFF	n/a	n/a	DART	1	21	[0, 0, 0]	n/a	FR1	1	R1146E
3391.764	1.617	3772763	WORD	n/a	wordpools/wordpool_EN.txt	BOX	2	21	[0, 0, 0]	n/a	FR1	1	R1146E
3393.381	1.0	3774380	WORD_OFF	n/a	n/a	BOX	2	21	[0, 0, 0]	n/a	FR1	1	R1146E
3394.381	1.601	3775380	WORD	n/a	wordpools/wordpool_EN.txt	BEAN	3	21	[0, 0, 0]	n/a	FR1	1	R1146E
3395.982	0.884	3776981	WORD_OFF	n/a	n/a	BEAN	3	21	[0, 0, 0]	n/a	FR1	1	R1146E
3396.866	1.616	3777865	WORD	n/a	wordpools/wordpool_EN.txt	CLAY	4	21	[0, 0, 0]	n/a	FR1	1	R1146E
3398.482	0.784	3779480	WORD_OFF	n/a	n/a	CLAY	4	21	[0, 0, 0]	n/a	FR1	1	R1146E
3399.266	1.618	3780264	WORD	n/a	wordpools/wordpool_EN.txt	CROW	5	21	[0, 0, 0]	n/a	FR1	1	R1146E
3400.884	0.782	3781882	WORD_OFF	n/a	n/a	CROW	5	21	[0, 0, 0]	n/a	FR1	1	R1146E
3401.666	1.617	3782664	WORD	n/a	wordpools/wordpool_EN.txt	JAR	6	21	[0, 0, 0]	n/a	FR1	1	R1146E
3403.283	0.783	3784281	WORD_OFF	n/a	n/a	JAR	6	21	[0, 0, 0]	n/a	FR1	1	R1146E
3404.066	1.617	3785064	WORD	n/a	wordpools/wordpool_EN.txt	CLOTH	7	21	[0, 0, 0]	n/a	FR1	1	R1146E
3405.683	0.951	3786681	WORD_OFF	n/a	n/a	CLOTH	7	21	[0, 0, 0]	n/a	FR1	1	R1146E
3406.634	1.617	3787632	WORD	n/a	wordpools/wordpool_EN.txt	FAN	8	21	[0, 0, 0]	n/a	FR1	1	R1146E
3408.251	0.801	3789249	WORD_OFF	n/a	n/a	FAN	8	21	[0, 0, 0]	n/a	FR1	1	R1146E
3409.052	1.616	3790050	WORD	n/a	wordpools/wordpool_EN.txt	CLOWN	9	21	[0, 0, 0]	n/a	FR1	1	R1146E
3410.668	0.933	3791666	WORD_OFF	n/a	n/a	CLOWN	9	21	[0, 0, 0]	n/a	FR1	1	R1146E
3411.601	1.617	3792599	WORD	n/a	wordpools/wordpool_EN.txt	HAND	10	21	[0, 0, 0]	n/a	FR1	1	R1146E
3413.218	0.9	3794216	WORD_OFF	n/a	n/a	HAND	10	21	[0, 0, 0]	n/a	FR1	1	R1146E
3414.118	1.617	3795116	WORD	n/a	wordpools/wordpool_EN.txt	TIE	11	21	[0, 0, 0]	n/a	FR1	1	R1146E
3415.735	1.0	3796733	WORD_OFF	n/a	n/a	TIE	11	21	[0, 0, 0]	n/a	FR1	1	R1146E
3416.735	1.617	3797733	WORD	n/a	wordpools/wordpool_EN.txt	WAVE	12	21	[0, 0, 0]	n/a	FR1	1	R1146E
3418.352	0.0	3799350	WORD_OFF	n/a	n/a	WAVE	12	21	[0, 0, 0]	n/a	FR1	1	R1146E
3418.352	0.001	3799350	DISTRACT_START	n/a	n/a	n/a	-999	21	[0, 0, 0]	n/a	FR1	1	R1146E
3418.353	0.016	3799351	START	n/a	n/a	n/a	-999	21	[-999, -999, -999]	n/a	FR1	1	R1146E
3418.369	6.701	3799367	PROB	6.701	n/a	n/a	-999	21	[8, 8, 1]	17	FR1	1	R1146E
3425.07	15.115	3806067	PROB	15.115	n/a	n/a	-999	21	[5, 7, 9]	21	FR1	1	R1146E
3440.185	0.021	3821182	STOP	n/a	n/a	n/a	-999	21	[-999, -999, -999]	n/a	FR1	1	R1146E
3440.206	0.55	3821203	DISTRACT_END	n/a	n/a	n/a	-999	21	[0, 0, 0]	n/a	FR1	1	R1146E
3440.756	0.518	3821753	RETRIEVAL_ORIENT	n/a	n/a	n/a	-999	21	[0, 0, 0]	n/a	FR1	1	R1146E
3441.274	5.631	3822271	REC_START	n/a	n/a	n/a	-999	21	[0, 0, 0]	n/a	FR1	1	R1146E
3446.905	24.378	3827902	REC_WORD	24.378	n/a	CLOWN	-999	21	[0, 0, 0]	n/a	FR1	1	R1146E
3471.283	11.914	3852279	REC_END	n/a	n/a	n/a	-999	21	[0, 0, 0]	n/a	FR1	1	R1146E
3483.197	0.5	3864192	TRIAL	n/a	n/a	n/a	-999	22	[0, 0, 0]	n/a	FR1	1	R1146E
3483.697	10.428	3864692	COUNTDOWN_START	n/a	n/a	n/a	-999	22	[0, 0, 0]	n/a	FR1	1	R1146E
3494.125	0.007	3875120	COUNTDOWN_END	n/a	n/a	n/a	-999	22	[0, 0, 0]	n/a	FR1	1	R1146E
3494.132	1.617	3875127	ORIENT	n/a	n/a	n/a	-999	22	[0, 0, 0]	n/a	FR1	1	R1146E
3495.749	2.268	3876744	ORIENT_OFF	n/a	n/a	n/a	-999	22	[0, 0, 0]	n/a	FR1	1	R1146E
3498.017	1.616	3879011	WORD	n/a	wordpools/wordpool_EN.txt	CHAIR	1	22	[0, 0, 0]	n/a	FR1	1	R1146E
3499.633	0.834	3880627	WORD_OFF	n/a	n/a	CHAIR	1	22	[0, 0, 0]	n/a	FR1	1	R1146E
3500.467	1.617	3881461	WORD	n/a	wordpools/wordpool_EN.txt	POOL	2	22	[0, 0, 0]	n/a	FR1	1	R1146E
3502.084	0.868	3883078	WORD_OFF	n/a	n/a	POOL	2	22	[0, 0, 0]	n/a	FR1	1	R1146E
3502.952	1.616	3883946	WORD	n/a	wordpools/wordpool_EN.txt	FLOOR	3	22	[0, 0, 0]	n/a	FR1	1	R1146E
3504.568	0.833	3885562	WORD_OFF	n/a	n/a	FLOOR	3	22	[0, 0, 0]	n/a	FR1	1	R1146E
3505.401	1.618	3886395	WORD	n/a	wordpools/wordpool_EN.txt	CAKE	4	22	[0, 0, 0]	n/a	FR1	1	R1146E
3507.019	0.834	3888013	WORD_OFF	n/a	n/a	CAKE	4	22	[0, 0, 0]	n/a	FR1	1	R1146E
3507.853	1.615	3888847	WORD	n/a	wordpools/wordpool_EN.txt	SNAKE	5	22	[0, 0, 0]	n/a	FR1	1	R1146E
3509.468	0.801	3890462	WORD_OFF	n/a	n/a	SNAKE	5	22	[0, 0, 0]	n/a	FR1	1	R1146E
3510.269	1.618	3891263	WORD	n/a	wordpools/wordpool_EN.txt	CAGE	6	22	[0, 0, 0]	n/a	FR1	1	R1146E
3511.887	0.865	3892881	WORD_OFF	n/a	n/a	CAGE	6	22	[0, 0, 0]	n/a	FR1	1	R1146E
3512.752	1.617	3893746	WORD	n/a	wordpools/wordpool_EN.txt	STICK	7	22	[0, 0, 0]	n/a	FR1	1	R1146E
3514.369	0.934	3895363	WORD_OFF	n/a	n/a	STICK	7	22	[0, 0, 0]	n/a	FR1	1	R1146E
3515.303	1.618	3896297	WORD	n/a	wordpools/wordpool_EN.txt	HOOF	8	22	[0, 0, 0]	n/a	FR1	1	R1146E
3516.921	0.967	3897915	WORD_OFF	n/a	n/a	HOOF	8	22	[0, 0, 0]	n/a	FR1	1	R1146E
3517.888	1.616	3898882	WORD	n/a	wordpools/wordpool_EN.txt	PASTE	9	22	[0, 0, 0]	n/a	FR1	1	R1146E
3519.504	0.85	3900498	WORD_OFF	n/a	n/a	PASTE	9	22	[0, 0, 0]	n/a	FR1	1	R1146E
3520.354	1.618	3901348	WORD	n/a	wordpools/wordpool_EN.txt	PEACH	10	22	[0, 0, 0]	n/a	FR1	1	R1146E
3521.972	0.983	3902966	WORD_OFF	n/a	n/a	PEACH	10	22	[0, 0, 0]	n/a	FR1	1	R1146E
3522.955	1.616	3903948	WORD	n/a	wordpools/wordpool_EN.txt	SKUNK	11	22	[0, 0, 0]	n/a	FR1	1	R1146E
3524.571	0.767	3905564	WORD_OFF	n/a	n/a	SKUNK	11	22	[0, 0, 0]	n/a	FR1	1	R1146E
3525.338	1.618	3906331	WORD	n/a	wordpools/wordpool_EN.txt	SOCK	12	22	[0, 0, 0]	n/a	FR1	1	R1146E
3526.956	0.0	3907949	WORD_OFF	n/a	n/a	SOCK	12	22	[0, 0, 0]	n/a	FR1	1	R1146E
3526.956	0.001	3907949	DISTRACT_START	n/a	n/a	n/a	-999	22	[0, 0, 0]	n/a	FR1	1	R1146E
3526.957	0.016	3907950	START	n/a	n/a	n/a	-999	22	[-999, -999, -999]	n/a	FR1	1	R1146E
3526.973	4.666	3907966	PROB	4.666	n/a	n/a	-999	22	[1, 1, 9]	11	FR1	1	R1146E
3531.639	8.202	3912632	PROB	8.202	n/a	n/a	-999	22	[4, 8, 4]	16	FR1	1	R1146E
3539.841	5.035	3920834	PROB	5.035	n/a	n/a	-999	22	[3, 5, 3]	11	FR1	1	R1146E
3544.876	8.688	3925869	PROB	8.688	n/a	n/a	-999	22	[7, 4, 2]	13	FR1	1	R1146E
3553.564	0.012	3934556	STOP	n/a	n/a	n/a	-999	22	[-999, -999, -999]	n/a	FR1	1	R1146E
3553.576	0.55	3934568	DISTRACT_END	n/a	n/a	n/a	-999	22	[0, 0, 0]	n/a	FR1	1	R1146E
3554.126	0.518	3935118	RETRIEVAL_ORIENT	n/a	n/a	n/a	-999	22	[0, 0, 0]	n/a	FR1	1	R1146E
3554.644	0.891	3935636	REC_START	n/a	n/a	n/a	-999	22	[0, 0, 0]	n/a	FR1	1	R1146E
3555.535	5.946	3936527	REC_WORD	5.946	n/a	SKUNK	-999	22	[0, 0, 0]	n/a	FR1	1	R1146E
3561.481	23.172	3942473	REC_WORD	23.172	n/a	SOCK	-999	22	[0, 0, 0]	n/a	FR1	1	R1146E
3584.653	15.148	3965644	REC_END	n/a	n/a	n/a	-999	22	[0, 0, 0]	n/a	FR1	1	R1146E
3599.801	0.5	3980791	TRIAL	n/a	n/a	n/a	-999	23	[0, 0, 0]	n/a	FR1	1	R1146E
3600.301	10.428	3981291	COUNTDOWN_START	n/a	n/a	n/a	-999	23	[0, 0, 0]	n/a	FR1	1	R1146E
3610.729	0.007	3991719	COUNTDOWN_END	n/a	n/a	n/a	-999	23	[0, 0, 0]	n/a	FR1	1	R1146E
3610.736	1.617	3991726	ORIENT	n/a	n/a	n/a	-999	23	[0, 0, 0]	n/a	FR1	1	R1146E
3612.353	2.017	3993343	ORIENT_OFF	n/a	n/a	n/a	-999	23	[0, 0, 0]	n/a	FR1	1	R1146E
3614.37	1.602	3995360	WORD	n/a	wordpools/wordpool_EN.txt	THUMB	1	23	[0, 0, 0]	n/a	FR1	1	R1146E
3615.972	0.782	3996962	WORD_OFF	n/a	n/a	THUMB	1	23	[0, 0, 0]	n/a	FR1	1	R1146E
3616.754	1.617	3997744	WORD	n/a	wordpools/wordpool_EN.txt	HEN	2	23	[0, 0, 0]	n/a	FR1	1	R1146E
3618.371	0.8	3999361	WORD_OFF	n/a	n/a	HEN	2	23	[0, 0, 0]	n/a	FR1	1	R1146E
3619.171	1.617	4000161	WORD	n/a	wordpools/wordpool_EN.txt	TOOL	3	23	[0, 0, 0]	n/a	FR1	1	R1146E
3620.788	0.784	4001778	WORD_OFF	n/a	n/a	TOOL	3	23	[0, 0, 0]	n/a	FR1	1	R1146E
3621.572	1.617	4002561	WORD	n/a	wordpools/wordpool_EN.txt	BREAD	4	23	[0, 0, 0]	n/a	FR1	1	R1146E
3623.189	0.784	4004178	WORD_OFF	n/a	n/a	BREAD	4	23	[0, 0, 0]	n/a	FR1	1	R1146E
3623.973	1.616	4004962	WORD	n/a	wordpools/wordpool_EN.txt	YARD	5	23	[0, 0, 0]	n/a	FR1	1	R1146E
3625.589	0.9	4006578	WORD_OFF	n/a	n/a	YARD	5	23	[0, 0, 0]	n/a	FR1	1	R1146E
3626.489	1.617	4007478	WORD	n/a	wordpools/wordpool_EN.txt	CART	6	23	[0, 0, 0]	n/a	FR1	1	R1146E
3628.106	0.935	4009095	WORD_OFF	n/a	n/a	CART	6	23	[0, 0, 0]	n/a	FR1	1	R1146E
3629.041	1.616	4010030	WORD	n/a	wordpools/wordpool_EN.txt	WAND	7	23	[0, 0, 0]	n/a	FR1	1	R1146E
3630.657	0.966	4011646	WORD_OFF	n/a	n/a	WAND	7	23	[0, 0, 0]	n/a	FR1	1	R1146E
3631.623	1.617	4012612	WORD	n/a	wordpools/wordpool_EN.txt	HAT	8	23	[0, 0, 0]	n/a	FR1	1	R1146E
3633.24	0.917	4014229	WORD_OFF	n/a	n/a	HAT	8	23	[0, 0, 0]	n/a	FR1	1	R1146E
3634.157	1.617	4015146	WORD	n/a	wordpools/wordpool_EN.txt	DITCH	9	23	[0, 0, 0]	n/a	FR1	1	R1146E
3635.774	0.917	4016763	WORD_OFF	n/a	n/a	DITCH	9	23	[0, 0, 0]	n/a	FR1	1	R1146E
3636.691	1.617	4017680	WORD	n/a	wordpools/wordpool_EN.txt	RAKE	10	23	[0, 0, 0]	n/a	FR1	1	R1146E
3638.308	0.817	4019297	WORD_OFF	n/a	n/a	RAKE	10	23	[0, 0, 0]	n/a	FR1	1	R1146E
3639.125	1.617	4020114	WORD	n/a	wordpools/wordpool_EN.txt	CONE	11	23	[0, 0, 0]	n/a	FR1	1	R1146E
3640.742	0.95	4021731	WORD_OFF	n/a	n/a	CONE	11	23	[0, 0, 0]	n/a	FR1	1	R1146E
3641.692	1.617	4022681	WORD	n/a	wordpools/wordpool_EN.txt	POLE	12	23	[0, 0, 0]	n/a	FR1	1	R1146E
3643.309	0.0	4024298	WORD_OFF	n/a	n/a	POLE	12	23	[0, 0, 0]	n/a	FR1	1	R1146E
3643.309	0.001	4024298	DISTRACT_START	n/a	n/a	n/a	-999	23	[0, 0, 0]	n/a	FR1	1	R1146E
3643.31	0.016	4024299	START	n/a	n/a	n/a	-999	23	[-999, -999, -999]	n/a	FR1	1	R1146E
3643.326	7.669	4024315	PROB	7.669	n/a	n/a	-999	23	[5, 3, 9]	17	FR1	1	R1146E
3650.995	5.5	4031983	PROB	5.5	n/a	n/a	-999	23	[1, 6, 1]	8	FR1	1	R1146E
3656.495	3.917	4037483	PROB	3.917	n/a	n/a	-999	23	[1, 4, 5]	10	FR1	1	R1146E
3660.412	9.163	4041400	PROB	9.163	n/a	n/a	-999	23	[6, 6, 9]	21	FR1	1	R1146E
3669.575	0.005	4050563	STOP	n/a	n/a	n/a	-999	23	[-999, -999, -999]	n/a	FR1	1	R1146E
3669.58	0.667	4050568	DISTRACT_END	n/a	n/a	n/a	-999	23	[0, 0, 0]	n/a	FR1	1	R1146E
3670.247	0.517	4051235	RETRIEVAL_ORIENT	n/a	n/a	n/a	-999	23	[0, 0, 0]	n/a	FR1	1	R1146E
3670.764	7.589	4051751	REC_START	n/a	n/a	n/a	-999	23	[0, 0, 0]	n/a	FR1	1	R1146E
3678.353	14.237	4059340	REC_WORD	14.237	n/a	POLE	-999	23	[0, 0, 0]	n/a	FR1	1	R1146E
3692.59	4.465	4073577	REC_WORD	4.465	n/a	WAND	-999	23	[0, 0, 0]	n/a	FR1	1	R1146E
3697.055	2.517	4078041	REC_WORD	2.517	n/a	DITCH	-999	23	[0, 0, 0]	n/a	FR1	1	R1146E
3699.572	1.203	4080558	REC_WORD	1.203	n/a	RAKE	-999	23	[0, 0, 0]	n/a	FR1	1	R1146E
3700.775	11.996	4081761	REC_END	n/a	n/a	n/a	-999	23	[0, 0, 0]	n/a	FR1	1	R1146E
3712.771	0.5	4093757	TRIAL	n/a	n/a	n/a	-999	24	[0, 0, 0]	n/a	FR1	1	R1146E
3713.271	10.428	4094257	COUNTDOWN_START	n/a	n/a	n/a	-999	24	[0, 0, 0]	n/a	FR1	1	R1146E
3723.699	0.007	4104684	COUNTDOWN_END	n/a	n/a	n/a	-999	24	[0, 0, 0]	n/a	FR1	1	R1146E
3723.706	1.617	4104691	ORIENT	n/a	n/a	n/a	-999	24	[0, 0, 0]	n/a	FR1	1	R1146E
3725.323	2.234	4106308	ORIENT_OFF	n/a	n/a	n/a	-999	24	[0, 0, 0]	n/a	FR1	1	R1146E
3727.557	1.617	4108542	WORD	n/a	wordpools/wordpool_EN.txt	VEST	1	24	[0, 0, 0]	n/a	FR1	1	R1146E
3729.174	0.884	4110159	WORD_OFF	n/a	n/a	VEST	1	24	[0, 0, 0]	n/a	FR1	1	R1146E
3730.058	1.617	4111043	WORD	n/a	wordpools/wordpool_EN.txt	BRICK	2	24	[0, 0, 0]	n/a	FR1	1	R1146E
3731.675	0.866	4112660	WORD_OFF	n/a	n/a	BRICK	2	24	[0, 0, 0]	n/a	FR1	1	R1146E
3732.541	1.617	4113526	WORD	n/a	wordpools/wordpool_EN.txt	JEEP	3	24	[0, 0, 0]	n/a	FR1	1	R1146E
3734.158	0.967	4115143	WORD_OFF	n/a	n/a	JEEP	3	24	[0, 0, 0]	n/a	FR1	1	R1146E
3735.125	1.617	4116110	WORD	n/a	wordpools/wordpool_EN.txt	STEAK	4	24	[0, 0, 0]	n/a	FR1	1	R1146E
3736.742	0.867	4117727	WORD_OFF	n/a	n/a	STEAK	4	24	[0, 0, 0]	n/a	FR1	1	R1146E
3737.609	1.617	4118594	WORD	n/a	wordpools/wordpool_EN.txt	SHOE	5	24	[0, 0, 0]	n/a	FR1	1	R1146E
3739.226	0.933	4120211	WORD_OFF	n/a	n/a	SHOE	5	24	[0, 0, 0]	n/a	FR1	1	R1146E
3740.159	1.617	4121144	WORD	n/a	wordpools/wordpool_EN.txt	SHIRT	6	24	[0, 0, 0]	n/a	FR1	1	R1146E
3741.776	0.934	4122761	WORD_OFF	n/a	n/a	SHIRT	6	24	[0, 0, 0]	n/a	FR1	1	R1146E
3742.71	1.617	4123695	WORD	n/a	wordpools/wordpool_EN.txt	ARM	7	24	[0, 0, 0]	n/a	FR1	1	R1146E
3744.327	0.883	4125312	WORD_OFF	n/a	n/a	ARM	7	24	[0, 0, 0]	n/a	FR1	1	R1146E
3745.21	1.617	4126194	WORD	n/a	wordpools/wordpool_EN.txt	LOCK	8	24	[0, 0, 0]	n/a	FR1	1	R1146E
3746.827	0.917	4127811	WORD_OFF	n/a	n/a	LOCK	8	24	[0, 0, 0]	n/a	FR1	1	R1146E
3747.744	1.617	4128728	WORD	n/a	wordpools/wordpool_EN.txt	FOX	9	24	[0, 0, 0]	n/a	FR1	1	R1146E
3749.361	1.0	4130345	WORD_OFF	n/a	n/a	FOX	9	24	[0, 0, 0]	n/a	FR1	1	R1146E
3750.361	1.601	4131345	WORD	n/a	wordpools/wordpool_EN.txt	DOLL	10	24	[0, 0, 0]	n/a	FR1	1	R1146E
3751.962	0.934	4132946	WORD_OFF	n/a	n/a	DOLL	10	24	[0, 0, 0]	n/a	FR1	1	R1146E
3752.896	1.616	4133880	WORD	n/a	wordpools/wordpool_EN.txt	MOOSE	11	24	[0, 0, 0]	n/a	FR1	1	R1146E
3754.512	0.917	4135496	WORD_OFF	n/a	n/a	MOOSE	11	24	[0, 0, 0]	n/a	FR1	1	R1146E
3755.429	1.601	4136413	WORD	n/a	wordpools/wordpool_EN.txt	LEG	12	24	[0, 0, 0]	n/a	FR1	1	R1146E
3757.03	0.0	4138014	WORD_OFF	n/a	n/a	LEG	12	24	[0, 0, 0]	n/a	FR1	1	R1146E
3757.03	0.0	4138014	DISTRACT_START	n/a	n/a	n/a	-999	24	[0, 0, 0]	n/a	FR1	1	R1146E
3757.03	0.017	4138014	START	n/a	n/a	n/a	-999	24	[-999, -999, -999]	n/a	FR1	1	R1146E
3757.047	8.534	4138031	PROB	8.534	n/a	n/a	-999	24	[6, 9, 9]	24	FR1	1	R1146E
3765.581	3.9	4146565	PROB	3.9	n/a	n/a	-999	24	[9, 1, 8]	18	FR1	1	R1146E
3769.481	4.402	4150465	PROB	4.402	n/a	n/a	-999	24	[1, 7, 7]	15	FR1	1	R1146E
3773.883	6.996	4154866	PROB	6.996	n/a	n/a	-999	24	[3, 8, 6]	17	FR1	1	R1146E
3780.879	0.022	4161862	STOP	n/a	n/a	n/a	-999	24	[-999, -999, -999]	n/a	FR1	1	R1146E
3780.901	0.599	4161884	DISTRACT_END	n/a	n/a	n/a	-999	24	[0, 0, 0]	n/a	FR1	1	R1146E
3781.5	0.518	4162483	RETRIEVAL_ORIENT	n/a	n/a	n/a	-999	24	[0, 0, 0]	n/a	FR1	1	R1146E
3782.018	8.901	4163001	REC_START	n/a	n/a	n/a	-999	24	[0, 0, 0]	n/a	FR1	1	R1146E
3790.919	21.109	4171902	REC_WORD	21.109	n/a	ARM	-999	24	[0, 0, 0]	n/a	FR1	1	R1146E
3812.028	8.512	4193010	REC_END	n/a	n/a	n/a	-999	24	[0, 0, 0]	n/a	FR1	1	R1146E
3820.54	0.5	4201521	TRIAL	n/a	n/a	n/a	-999	25	[0, 0, 0]	n/a	FR1	1	R1146E
3821.04	10.428	4202021	COUNTDOWN_START	n/a	n/a	n/a	-999	25	[0, 0, 0]	n/a	FR1	1	R1146E
3831.468	0.007	4212449	COUNTDOWN_END	n/a	n/a	n/a	-999	25	[0, 0, 0]	n/a	FR1	1	R1146E
3831.475	1.618	4212456	ORIENT	n/a	n/a	n/a	-999	25	[0, 0, 0]	n/a	FR1	1	R1146E
3833.093	2.133	4214074	ORIENT_OFF	n/a	n/a	n/a	-999	25	[0, 0, 0]	n/a	FR1	1	R1146E
3835.226	1.617	4216207	WORD	n/a	wordpools/wordpool_EN.txt	INK	1	25	[0, 0, 0]	n/a	FR1	1	R1146E
3836.843	0.767	4217824	WORD_OFF	n/a	n/a	INK	1	25	[0, 0, 0]	n/a	FR1	1	R1146E
3837.61	1.617	4218591	WORD	n/a	wordpools/wordpool_EN.txt	CAPE	2	25	[0, 0, 0]	n/a	FR1	1	R1146E
3839.227	0.95	4220208	WORD_OFF	n/a	n/a	CAPE	2	25	[0, 0, 0]	n/a	FR1	1	R1146E
3840.177	1.617	4221158	WORD	n/a	wordpools/wordpool_EN.txt	EAR	3	25	[0, 0, 0]	n/a	FR1	1	R1146E
3841.794	0.9	4222775	WORD_OFF	n/a	n/a	EAR	3	25	[0, 0, 0]	n/a	FR1	1	R1146E
3842.694	1.617	4223675	WORD	n/a	wordpools/wordpool_EN.txt	ZOO	4	25	[0, 0, 0]	n/a	FR1	1	R1146E
3844.311	0.95	4225291	WORD_OFF	n/a	n/a	ZOO	4	25	[0, 0, 0]	n/a	FR1	1	R1146E
3845.261	1.618	4226241	WORD	n/a	wordpools/wordpool_EN.txt	GLOVE	5	25	[0, 0, 0]	n/a	FR1	1	R1146E
3846.879	0.766	4227859	WORD_OFF	n/a	n/a	GLOVE	5	25	[0, 0, 0]	n/a	FR1	1	R1146E
3847.645	1.617	4228625	WORD	n/a	wordpools/wordpool_EN.txt	WHALE	6	25	[0, 0, 0]	n/a	FR1	1	R1146E
3849.262	0.9	4230242	WORD_OFF	n/a	n/a	WHALE	6	25	[0, 0, 0]	n/a	FR1	1	R1146E
3850.162	1.617	4231142	WORD	n/a	wordpools/wordpool_EN.txt	CAR	7	25	[0, 0, 0]	n/a	FR1	1	R1146E
3851.779	0.85	4232759	WORD_OFF	n/a	n/a	CAR	7	25	[0, 0, 0]	n/a	FR1	1	R1146E
3852.629	1.617	4233609	WORD	n/a	wordpools/wordpool_EN.txt	OWL	8	25	[0, 0, 0]	n/a	FR1	1	R1146E
3854.246	1.0	4235226	WORD_OFF	n/a	n/a	OWL	8	25	[0, 0, 0]	n/a	FR1	1	R1146E
3855.246	1.618	4236226	WORD	n/a	wordpools/wordpool_EN.txt	WALL	9	25	[0, 0, 0]	n/a	FR1	1	R1146E
3856.864	0.883	4237844	WORD_OFF	n/a	n/a	WALL	9	25	[0, 0, 0]	n/a	FR1	1	R1146E
3857.747	1.617	4238727	WORD	n/a	wordpools/wordpool_EN.txt	MAP	10	25	[0, 0, 0]	n/a	FR1	1	R1146E
3859.364	0.95	4240344	WORD_OFF	n/a	n/a	MAP	10	25	[0, 0, 0]	n/a	FR1	1	R1146E
3860.314	1.601	4241294	WORD	n/a	wordpools/wordpool_EN.txt	CHIEF	11	25	[0, 0, 0]	n/a	FR1	1	R1146E
3861.915	1.0	4242895	WORD_OFF	n/a	n/a	CHIEF	11	25	[0, 0, 0]	n/a	FR1	1	R1146E
3862.915	1.616	4243895	WORD	n/a	wordpools/wordpool_EN.txt	JAIL	12	25	[0, 0, 0]	n/a	FR1	1	R1146E
3864.531	0.0	4245511	WORD_OFF	n/a	n/a	JAIL	12	25	[0, 0, 0]	n/a	FR1	1	R1146E
3864.531	0.001	4245511	DISTRACT_START	n/a	n/a	n/a	-999	25	[0, 0, 0]	n/a	FR1	1	R1146E
3864.532	0.016	4245512	START	n/a	n/a	n/a	-999	25	[-999, -999, -999]	n/a	FR1	1	R1146E
3864.548	6.801	4245528	PROB	6.801	n/a	n/a	-999	25	[7, 7, 3]	17	FR1	1	R1146E
3871.349	4.751	4252328	PROB	4.751	n/a	n/a	-999	25	[4, 5, 1]	10	FR1	1	R1146E
3876.1	5.668	4257079	PROB	5.668	n/a	n/a	-999	25	[3, 6, 6]	15	FR1	1	R1146E
3881.768	3.387	4262747	PROB	3.387	n/a	n/a	-999	25	[1, 1, 3]	5	FR1	1	R1146E
3885.155	0.013	4266134	STOP	n/a	n/a	n/a	-999	25	[-999, -999, -999]	n/a	FR1	1	R1146E
3885.168	0.567	4266147	DISTRACT_END	n/a	n/a	n/a	-999	25	[0, 0, 0]	n/a	FR1	1	R1146E
3885.735	0.518	4266714	RETRIEVAL_ORIENT	n/a	n/a	n/a	-999	25	[0, 0, 0]	n/a	FR1	1	R1146E
3886.253	1.071	4267232	REC_START	n/a	n/a	n/a	-999	25	[0, 0, 0]	n/a	FR1	1	R1146E
3887.324	28.938	4268303	REC_WORD	28.938	n/a	OWL	-999	25	[0, 0, 0]	n/a	FR1	1	R1146E
3916.262	21.717	4297240	REC_END	n/a	n/a	n/a	-999	25	[0, 0, 0]	n/a	FR1	1	R1146E
3937.979	0.0	4318956	SESS_END	n/a	n/a	n/a	-999	25	[0, 0, 0]	n/a	FR1	1	R1146E
