onset	duration	sample	trial_type	response_time	stim_file	item_name	serialpos	list	test	answer	experiment	session	subject
0.0	161.814	31286	INSTRUCT_START	n/a	n/a	n/a	-999	-999	[0, 0, 0]	n/a	FR1	0	R1386T
161.814	46.1	193094	INSTRUCT_END	n/a	n/a	n/a	-999	-999	[0, 0, 0]	n/a	FR1	0	R1386T
207.914	10.351	239192	COUNTDOWN_START	n/a	n/a	n/a	-999	-999	[0, 0, 0]	n/a	FR1	0	R1386T
218.265	0.0	249543	COUNTDOWN_END	n/a	n/a	n/a	-999	-999	[0, 0, 0]	n/a	FR1	0	R1386T
218.265	2.033	249543	ENCODING_START	n/a	n/a	n/a	-999	-1	[0, 0, 0]	n/a	FR1	0	R1386T
220.298	1.616	251571	WORD	n/a	n/a	TONGUE	1	-1	[0, 0, 0]	n/a	FR1	0	R1386T
221.914	0.866	253192	WORD_OFF	n/a	n/a	TONGUE	1	-1	[0, 0, 0]	n/a	FR1	0	R1386T
222.78	1.617	254055	WORD	n/a	n/a	RING	2	-1	[0, 0, 0]	n/a	FR1	0	R1386T
224.397	0.883	255668	WORD_OFF	n/a	n/a	RING	2	-1	[0, 0, 0]	n/a	FR1	0	R1386T
225.28	1.6	256556	WORD	n/a	n/a	CHEST	3	-1	[0, 0, 0]	n/a	FR1	0	R1386T
226.88	0.917	258152	WORD_OFF	n/a	n/a	CHEST	3	-1	[0, 0, 0]	n/a	FR1	0	R1386T
227.797	1.6	259075	WORD	n/a	n/a	IMAGE	4	-1	[0, 0, 0]	n/a	FR1	0	R1386T
229.397	0.95	260671	WORD_OFF	n/a	n/a	IMAGE	4	-1	[0, 0, 0]	n/a	FR1	0	R1386T
230.347	1.6	261620	WORD	n/a	n/a	BABY	5	-1	[0, 0, 0]	n/a	FR1	0	R1386T
231.947	0.816	263224	WORD_OFF	n/a	n/a	BABY	5	-1	[0, 0, 0]	n/a	FR1	0	R1386T
232.763	1.617	264035	WORD	n/a	n/a	COTTON	6	-1	[0, 0, 0]	n/a	FR1	0	R1386T
234.38	0.983	265657	WORD_OFF	n/a	n/a	COTTON	6	-1	[0, 0, 0]	n/a	FR1	0	R1386T
235.363	1.617	266640	WORD	n/a	n/a	RHINO	7	-1	[0, 0, 0]	n/a	FR1	0	R1386T
236.98	1.0	268253	WORD_OFF	n/a	n/a	RHINO	7	-1	[0, 0, 0]	n/a	FR1	0	R1386T
237.98	1.616	269254	WORD	n/a	n/a	WAGON	8	-1	[0, 0, 0]	n/a	FR1	0	R1386T
239.596	0.767	270867	WORD_OFF	n/a	n/a	WAGON	8	-1	[0, 0, 0]	n/a	FR1	0	R1386T
240.363	1.6	271635	WORD	n/a	n/a	FLOOD	9	-1	[0, 0, 0]	n/a	FR1	0	R1386T
241.963	0.767	273239	WORD_OFF	n/a	n/a	FLOOD	9	-1	[0, 0, 0]	n/a	FR1	0	R1386T
242.73	1.6	274007	WORD	n/a	n/a	BEAM	10	-1	[0, 0, 0]	n/a	FR1	0	R1386T
244.33	1.001	275603	WORD_OFF	n/a	n/a	BEAM	10	-1	[0, 0, 0]	n/a	FR1	0	R1386T
245.331	1.6	276603	WORD	n/a	n/a	WATCH	11	-1	[0, 0, 0]	n/a	FR1	0	R1386T
246.931	0.966	278208	WORD_OFF	n/a	n/a	WATCH	11	-1	[0, 0, 0]	n/a	FR1	0	R1386T
247.897	1.601	279174	WORD	n/a	n/a	CAMEL	12	-1	[0, 0, 0]	n/a	FR1	0	R1386T
249.498	0.001	280770	WORD_OFF	n/a	n/a	CAMEL	12	-1	[0, 0, 0]	n/a	FR1	0	R1386T
249.499	0.0	280770	ENCODING_END	n/a	n/a	n/a	-999	-1	[0, 0, 0]	n/a	FR1	0	R1386T
249.499	0.002	280772	PROB	0.002	n/a	n/a	-999	-1	[6, 8, 1]	15	FR1	0	R1386T
249.501	0.0	280774	START	n/a	n/a	n/a	-999	-1	[-999, -999, -999]	n/a	FR1	0	R1386T
249.501	7.83	280778	DISTRACT_START	n/a	n/a	n/a	-999	-1	[0, 0, 0]	n/a	FR1	0	R1386T
257.331	4.766	288603	PROB	4.766	n/a	n/a	-999	-1	[4, 6, 2]	12	FR1	0	R1386T
262.097	7.135	293369	PROB	7.135	n/a	n/a	-999	-1	[4, 8, 3]	15	FR1	0	R1386T
269.232	3.615	300504	PROB	3.615	n/a	n/a	-999	-1	[7, 7, 1]	15	FR1	0	R1386T
272.847	0.0	304119	STOP	n/a	n/a	n/a	-999	-1	[-999, -999, -999]	n/a	FR1	0	R1386T
272.847	1.335	304121	DISTRACT_END	n/a	n/a	n/a	-999	-1	[0, 0, 0]	n/a	FR1	0	R1386T
274.182	6.046	305458	REC_START	n/a	n/a	n/a	-999	-1	[0, 0, 0]	n/a	FR1	0	R1386T
280.228	1.0	311499	REC_WORD_VV	1.0	n/a	<>	-999	-1	[0, 0, 0]	n/a	FR1	0	R1386T
281.228	0.735	312499	REC_WORD_VV	0.735	n/a	<>	-999	-1	[0, 0, 0]	n/a	FR1	0	R1386T
281.963	1.029	313234	REC_WORD	1.029	n/a	TONGUE	1	-1	[0, 0, 0]	n/a	FR1	0	R1386T
282.992	1.027	314263	REC_WORD	1.027	n/a	BABY	5	-1	[0, 0, 0]	n/a	FR1	0	R1386T
284.019	1.11	315290	REC_WORD	1.11	n/a	RING	2	-1	[0, 0, 0]	n/a	FR1	0	R1386T
285.129	1.253	316400	REC_WORD	1.253	n/a	RHINO	7	-1	[0, 0, 0]	n/a	FR1	0	R1386T
286.382	6.379	317653	REC_WORD	6.379	n/a	CHEST	3	-1	[0, 0, 0]	n/a	FR1	0	R1386T
292.761	1.0	324032	REC_WORD_VV	1.0	n/a	<>	-999	-1	[0, 0, 0]	n/a	FR1	0	R1386T
293.761	10.686	325031	REC_WORD_VV	10.686	n/a	<>	-999	-1	[0, 0, 0]	n/a	FR1	0	R1386T
304.447	44.801	335718	REC_END	n/a	n/a	n/a	-999	-1	[0, 0, 0]	n/a	FR1	0	R1386T
349.248	10.35	380522	COUNTDOWN_START	n/a	n/a	n/a	-999	1	[0, 0, 0]	n/a	FR1	0	R1386T
359.598	0.0	390865	COUNTDOWN_END	n/a	n/a	n/a	-999	1	[0, 0, 0]	n/a	FR1	0	R1386T
359.598	2.066	390865	ENCODING_START	n/a	n/a	n/a	-999	1	[0, 0, 0]	n/a	FR1	0	R1386T
361.664	1.6	392935	WORD	n/a	wordpools/wordpool_short_EN.txt	HEEL	1	1	[0, 0, 0]	n/a	FR1	0	R1386T
363.264	0.816	394531	WORD_OFF	n/a	n/a	HEEL	1	1	[0, 0, 0]	n/a	FR1	0	R1386T
364.08	1.601	395350	WORD	n/a	wordpools/wordpool_short_EN.txt	CORK	2	1	[0, 0, 0]	n/a	FR1	0	R1386T
365.681	0.783	396946	WORD_OFF	n/a	n/a	CORK	2	1	[0, 0, 0]	n/a	FR1	0	R1386T
366.464	1.617	397731	WORD	n/a	wordpools/wordpool_short_EN.txt	EEL	3	1	[0, 0, 0]	n/a	FR1	0	R1386T
368.081	0.916	399344	WORD_OFF	n/a	n/a	EEL	3	1	[0, 0, 0]	n/a	FR1	0	R1386T
368.997	1.6	400267	WORD	n/a	wordpools/wordpool_short_EN.txt	SPEAR	4	1	[0, 0, 0]	n/a	FR1	0	R1386T
370.597	0.9	401863	WORD_OFF	n/a	n/a	SPEAR	4	1	[0, 0, 0]	n/a	FR1	0	R1386T
371.497	1.6	402760	WORD	n/a	wordpools/wordpool_short_EN.txt	CASH	5	1	[0, 0, 0]	n/a	FR1	0	R1386T
373.097	0.817	404364	WORD_OFF	n/a	n/a	CASH	5	1	[0, 0, 0]	n/a	FR1	0	R1386T
373.914	1.616	405184	WORD	n/a	wordpools/wordpool_short_EN.txt	SUIT	6	1	[0, 0, 0]	n/a	FR1	0	R1386T
375.53	0.917	406797	WORD_OFF	n/a	n/a	SUIT	6	1	[0, 0, 0]	n/a	FR1	0	R1386T
376.447	1.6	407711	WORD	n/a	wordpools/wordpool_short_EN.txt	PALM	7	1	[0, 0, 0]	n/a	FR1	0	R1386T
378.047	0.999	409316	WORD_OFF	n/a	n/a	PALM	7	1	[0, 0, 0]	n/a	FR1	0	R1386T
379.046	1.601	410316	WORD	n/a	wordpools/wordpool_short_EN.txt	CAGE	8	1	[0, 0, 0]	n/a	FR1	0	R1386T
380.647	0.767	411912	WORD_OFF	n/a	n/a	CAGE	8	1	[0, 0, 0]	n/a	FR1	0	R1386T
381.414	1.6	412680	WORD	n/a	wordpools/wordpool_short_EN.txt	FACE	9	1	[0, 0, 0]	n/a	FR1	0	R1386T
383.014	0.816	414284	WORD_OFF	n/a	n/a	FACE	9	1	[0, 0, 0]	n/a	FR1	0	R1386T
383.83	1.6	415095	WORD	n/a	wordpools/wordpool_short_EN.txt	SLEEVE	10	1	[0, 0, 0]	n/a	FR1	0	R1386T
385.43	0.901	416700	WORD_OFF	n/a	n/a	SLEEVE	10	1	[0, 0, 0]	n/a	FR1	0	R1386T
386.331	1.6	417597	WORD	n/a	wordpools/wordpool_short_EN.txt	JAW	11	1	[0, 0, 0]	n/a	FR1	0	R1386T
387.931	0.816	419201	WORD_OFF	n/a	n/a	JAW	11	1	[0, 0, 0]	n/a	FR1	0	R1386T
388.747	1.618	420012	WORD	n/a	wordpools/wordpool_short_EN.txt	BONE	12	1	[0, 0, 0]	n/a	FR1	0	R1386T
390.365	0.001	421631	PROB	0.001	n/a	n/a	-999	1	[7, 4, 4]	15	FR1	0	R1386T
390.366	0.0	421632	START	n/a	n/a	n/a	-999	1	[-999, -999, -999]	n/a	FR1	0	R1386T
390.364	0.001	421634	WORD_OFF	n/a	n/a	BONE	12	1	[0, 0, 0]	n/a	FR1	0	R1386T
390.365	0.001	421634	ENCODING_END	n/a	n/a	n/a	-999	1	[0, 0, 0]	n/a	FR1	0	R1386T
390.366	11.748	421634	DISTRACT_START	n/a	n/a	n/a	-999	1	[0, 0, 0]	n/a	FR1	0	R1386T
402.114	5.833	433379	PROB	5.833	n/a	n/a	-999	1	[6, 3, 8]	17	FR1	0	R1386T
407.947	5.0	439212	PROB	5.0	n/a	n/a	-999	1	[4, 2, 8]	14	FR1	0	R1386T
412.947	0.0	444208	DISTRACT_END	n/a	n/a	n/a	-999	1	[0, 0, 0]	n/a	FR1	0	R1386T
412.947	1.05	444211	STOP	n/a	n/a	n/a	-999	1	[-999, -999, -999]	n/a	FR1	0	R1386T
413.997	2.331	445261	REC_START	n/a	n/a	n/a	-999	1	[0, 0, 0]	n/a	FR1	0	R1386T
416.328	0.876	447592	REC_WORD	0.876	n/a	HEEL	1	1	[0, 0, 0]	n/a	FR1	0	R1386T
417.204	1.029	448468	REC_WORD	1.029	n/a	CORK	2	1	[0, 0, 0]	n/a	FR1	0	R1386T
418.233	0.906	449497	REC_WORD	0.906	n/a	EEL	3	1	[0, 0, 0]	n/a	FR1	0	R1386T
419.139	2.557	450403	REC_WORD	2.557	n/a	JAW	11	1	[0, 0, 0]	n/a	FR1	0	R1386T
421.696	22.535	452960	REC_WORD	22.535	n/a	CHEST	-999	1	[0, 0, 0]	n/a	FR1	0	R1386T
444.231	6.75	475495	REC_END	n/a	n/a	n/a	-999	1	[0, 0, 0]	n/a	FR1	0	R1386T
450.981	10.35	482249	COUNTDOWN_START	n/a	n/a	n/a	-999	2	[0, 0, 0]	n/a	FR1	0	R1386T
461.331	0.0	492592	COUNTDOWN_END	n/a	n/a	n/a	-999	2	[0, 0, 0]	n/a	FR1	0	R1386T
461.331	2.1	492592	ENCODING_START	n/a	n/a	n/a	-999	2	[0, 0, 0]	n/a	FR1	0	R1386T
463.431	1.6	494697	WORD	n/a	wordpools/wordpool_short_EN.txt	BLUSH	1	2	[0, 0, 0]	n/a	FR1	0	R1386T
465.031	0.85	496293	WORD_OFF	n/a	n/a	BLUSH	1	2	[0, 0, 0]	n/a	FR1	0	R1386T
465.881	1.6	497146	WORD	n/a	wordpools/wordpool_short_EN.txt	RAKE	2	2	[0, 0, 0]	n/a	FR1	0	R1386T
467.481	0.783	498742	WORD_OFF	n/a	n/a	RAKE	2	2	[0, 0, 0]	n/a	FR1	0	R1386T
468.264	1.617	499527	WORD	n/a	wordpools/wordpool_short_EN.txt	TOOL	3	2	[0, 0, 0]	n/a	FR1	0	R1386T
469.881	0.966	501140	WORD_OFF	n/a	n/a	TOOL	3	2	[0, 0, 0]	n/a	FR1	0	R1386T
470.847	1.6	502106	WORD	n/a	wordpools/wordpool_short_EN.txt	VINE	4	2	[0, 0, 0]	n/a	FR1	0	R1386T
472.447	0.85	503711	WORD_OFF	n/a	n/a	VINE	4	2	[0, 0, 0]	n/a	FR1	0	R1386T
473.297	1.6	504556	WORD	n/a	wordpools/wordpool_short_EN.txt	LANE	5	2	[0, 0, 0]	n/a	FR1	0	R1386T
474.897	0.933	506161	WORD_OFF	n/a	n/a	LANE	5	2	[0, 0, 0]	n/a	FR1	0	R1386T
475.83	1.601	507092	WORD	n/a	wordpools/wordpool_short_EN.txt	MOON	6	2	[0, 0, 0]	n/a	FR1	0	R1386T
477.431	0.766	508690	WORD_OFF	n/a	n/a	MOON	6	2	[0, 0, 0]	n/a	FR1	0	R1386T
478.197	1.617	509456	WORD	n/a	wordpools/wordpool_short_EN.txt	DART	7	2	[0, 0, 0]	n/a	FR1	0	R1386T
479.814	0.817	511078	WORD_OFF	n/a	n/a	DART	7	2	[0, 0, 0]	n/a	FR1	0	R1386T
480.631	1.616	511888	WORD	n/a	wordpools/wordpool_short_EN.txt	NECK	8	2	[0, 0, 0]	n/a	FR1	0	R1386T
482.247	0.967	513510	WORD_OFF	n/a	n/a	NECK	8	2	[0, 0, 0]	n/a	FR1	0	R1386T
483.214	1.616	514476	WORD	n/a	wordpools/wordpool_short_EN.txt	SCHOOL	9	2	[0, 0, 0]	n/a	FR1	0	R1386T
484.83	0.784	516089	WORD_OFF	n/a	n/a	SCHOOL	9	2	[0, 0, 0]	n/a	FR1	0	R1386T
485.614	1.603	516874	WORD	n/a	wordpools/wordpool_short_EN.txt	MEAT	10	2	[0, 0, 0]	n/a	FR1	0	R1386T
487.217	0.897	518479	WORD_OFF	n/a	n/a	MEAT	10	2	[0, 0, 0]	n/a	FR1	0	R1386T
488.114	1.616	519376	WORD	n/a	wordpools/wordpool_short_EN.txt	STRING	11	2	[0, 0, 0]	n/a	FR1	0	R1386T
489.73	0.867	520989	WORD_OFF	n/a	n/a	STRING	11	2	[0, 0, 0]	n/a	FR1	0	R1386T
490.597	1.617	521860	WORD	n/a	wordpools/wordpool_short_EN.txt	YARD	12	2	[0, 0, 0]	n/a	FR1	0	R1386T
492.214	0.001	523473	WORD_OFF	n/a	n/a	YARD	12	2	[0, 0, 0]	n/a	FR1	0	R1386T
492.215	0.0	523473	ENCODING_END	n/a	n/a	n/a	-999	2	[0, 0, 0]	n/a	FR1	0	R1386T
492.215	0.0	523475	START	n/a	n/a	n/a	-999	2	[-999, -999, -999]	n/a	FR1	0	R1386T
492.215	0.0	523475	PROB	0.0	n/a	n/a	-999	2	[3, 5, 2]	10	FR1	0	R1386T
492.215	5.516	523482	DISTRACT_START	n/a	n/a	n/a	-999	2	[0, 0, 0]	n/a	FR1	0	R1386T
497.731	5.983	528991	PROB	5.983	n/a	n/a	-999	2	[6, 6, 3]	15	FR1	0	R1386T
503.714	11.383	534974	PROB	11.383	n/a	n/a	-999	2	[1, 5, 7]	13	FR1	0	R1386T
515.097	0.0	546356	STOP	n/a	n/a	n/a	-999	2	[-999, -999, -999]	n/a	FR1	0	R1386T
515.097	1.384	546358	DISTRACT_END	n/a	n/a	n/a	-999	2	[0, 0, 0]	n/a	FR1	0	R1386T
516.481	3.615	547738	REC_START	n/a	n/a	n/a	-999	2	[0, 0, 0]	n/a	FR1	0	R1386T
520.096	0.911	551355	REC_WORD	0.911	n/a	BLUSH	1	2	[0, 0, 0]	n/a	FR1	0	R1386T
521.007	1.504	552266	REC_WORD	1.504	n/a	RAKE	2	2	[0, 0, 0]	n/a	FR1	0	R1386T
522.511	1.735	553770	REC_WORD	1.735	n/a	SCHOOL	9	2	[0, 0, 0]	n/a	FR1	0	R1386T
524.246	11.267	555505	REC_WORD	11.267	n/a	CORK	-999	2	[0, 0, 0]	n/a	FR1	0	R1386T
535.513	11.221	566771	REC_WORD	11.221	n/a	HEEL	-999	2	[0, 0, 0]	n/a	FR1	0	R1386T
546.734	2.13	577990	REC_END	n/a	n/a	n/a	-999	2	[0, 0, 0]	n/a	FR1	0	R1386T
548.864	10.351	580121	COUNTDOWN_START	n/a	n/a	n/a	-999	3	[0, 0, 0]	n/a	FR1	0	R1386T
559.215	0.0	590472	COUNTDOWN_END	n/a	n/a	n/a	-999	3	[0, 0, 0]	n/a	FR1	0	R1386T
559.215	1.865	590472	ENCODING_START	n/a	n/a	n/a	-999	3	[0, 0, 0]	n/a	FR1	0	R1386T
561.08	1.601	592335	WORD	n/a	wordpools/wordpool_short_EN.txt	SAIL	1	3	[0, 0, 0]	n/a	FR1	0	R1386T
562.681	0.965	593940	WORD_OFF	n/a	n/a	SAIL	1	3	[0, 0, 0]	n/a	FR1	0	R1386T
563.646	1.6	594906	WORD	n/a	wordpools/wordpool_short_EN.txt	CONE	2	3	[0, 0, 0]	n/a	FR1	0	R1386T
565.246	0.951	596502	WORD_OFF	n/a	n/a	CONE	2	3	[0, 0, 0]	n/a	FR1	0	R1386T
566.197	1.6	597451	WORD	n/a	wordpools/wordpool_short_EN.txt	BLOOM	3	3	[0, 0, 0]	n/a	FR1	0	R1386T
567.797	0.933	599055	WORD_OFF	n/a	n/a	BLOOM	3	3	[0, 0, 0]	n/a	FR1	0	R1386T
568.73	1.601	599987	WORD	n/a	wordpools/wordpool_short_EN.txt	CAMP	4	3	[0, 0, 0]	n/a	FR1	0	R1386T
570.331	0.866	601591	WORD_OFF	n/a	n/a	CAMP	4	3	[0, 0, 0]	n/a	FR1	0	R1386T
571.197	1.6	602454	WORD	n/a	wordpools/wordpool_short_EN.txt	LAWN	5	3	[0, 0, 0]	n/a	FR1	0	R1386T
572.797	0.817	604058	WORD_OFF	n/a	n/a	LAWN	5	3	[0, 0, 0]	n/a	FR1	0	R1386T
573.614	1.617	604869	WORD	n/a	wordpools/wordpool_short_EN.txt	CUBE	6	3	[0, 0, 0]	n/a	FR1	0	R1386T
575.231	0.783	606491	WORD_OFF	n/a	n/a	CUBE	6	3	[0, 0, 0]	n/a	FR1	0	R1386T
576.014	1.617	607267	WORD	n/a	wordpools/wordpool_short_EN.txt	SHARK	7	3	[0, 0, 0]	n/a	FR1	0	R1386T
577.631	0.983	608889	WORD_OFF	n/a	n/a	SHARK	7	3	[0, 0, 0]	n/a	FR1	0	R1386T
578.614	1.616	609872	WORD	n/a	wordpools/wordpool_short_EN.txt	SHOE	8	3	[0, 0, 0]	n/a	FR1	0	R1386T
580.23	0.917	611485	WORD_OFF	n/a	n/a	SHOE	8	3	[0, 0, 0]	n/a	FR1	0	R1386T
581.147	1.6	612400	WORD	n/a	wordpools/wordpool_short_EN.txt	FARM	9	3	[0, 0, 0]	n/a	FR1	0	R1386T
582.747	0.917	614004	WORD_OFF	n/a	n/a	FARM	9	3	[0, 0, 0]	n/a	FR1	0	R1386T
583.664	1.6	614918	WORD	n/a	wordpools/wordpool_short_EN.txt	TROUT	10	3	[0, 0, 0]	n/a	FR1	0	R1386T
585.264	0.966	616523	WORD_OFF	n/a	n/a	TROUT	10	3	[0, 0, 0]	n/a	FR1	0	R1386T
586.23	1.6	617489	WORD	n/a	wordpools/wordpool_short_EN.txt	BRANCH	11	3	[0, 0, 0]	n/a	FR1	0	R1386T
587.83	0.767	619085	WORD_OFF	n/a	n/a	BRANCH	11	3	[0, 0, 0]	n/a	FR1	0	R1386T
588.597	1.6	619853	WORD	n/a	wordpools/wordpool_short_EN.txt	SOCK	12	3	[0, 0, 0]	n/a	FR1	0	R1386T
590.197	0.002	621452	PROB	0.002	n/a	n/a	-999	3	[8, 7, 5]	20	FR1	0	R1386T
590.199	0.0	621454	START	n/a	n/a	n/a	-999	3	[-999, -999, -999]	n/a	FR1	0	R1386T
590.197	0.002	621457	WORD_OFF	n/a	n/a	SOCK	12	3	[0, 0, 0]	n/a	FR1	0	R1386T
590.199	0.0	621457	ENCODING_END	n/a	n/a	n/a	-999	3	[0, 0, 0]	n/a	FR1	0	R1386T
590.199	7.632	621457	DISTRACT_START	n/a	n/a	n/a	-999	3	[0, 0, 0]	n/a	FR1	0	R1386T
597.831	4.633	629086	PROB	4.633	n/a	n/a	-999	3	[3, 5, 4]	12	FR1	0	R1386T
602.464	4.267	633719	PROB	4.267	n/a	n/a	-999	3	[4, 2, 5]	13	FR1	0	R1386T
606.731	4.6	637986	PROB	4.6	n/a	n/a	-999	3	[3, 4, 7]	14	FR1	0	R1386T
611.331	0.0	642582	DISTRACT_END	n/a	n/a	n/a	-999	3	[0, 0, 0]	n/a	FR1	0	R1386T
611.331	1.017	642585	STOP	n/a	n/a	n/a	-999	3	[-999, -999, -999]	n/a	FR1	0	R1386T
612.348	2.677	643600	REC_START	n/a	n/a	n/a	-999	3	[0, 0, 0]	n/a	FR1	0	R1386T
615.025	4.745	646279	REC_WORD_VV	4.745	n/a	<>	-999	3	[0, 0, 0]	n/a	FR1	0	R1386T
619.77	2.046	651024	REC_WORD	2.046	n/a	LAWN	5	3	[0, 0, 0]	n/a	FR1	0	R1386T
621.816	10.264	653070	REC_WORD	10.264	n/a	BLOOM	3	3	[0, 0, 0]	n/a	FR1	0	R1386T
632.08	7.956	663333	REC_WORD	7.956	n/a	RAKE	-999	3	[0, 0, 0]	n/a	FR1	0	R1386T
640.036	2.568	671289	REC_WORD	2.568	n/a	CORK	-999	3	[0, 0, 0]	n/a	FR1	0	R1386T
642.604	2.71	673860	REC_END	n/a	n/a	n/a	-999	3	[0, 0, 0]	n/a	FR1	0	R1386T
645.314	10.35	676569	COUNTDOWN_START	n/a	n/a	n/a	-999	4	[0, 0, 0]	n/a	FR1	0	R1386T
655.664	0.001	686920	COUNTDOWN_END	n/a	n/a	n/a	-999	4	[0, 0, 0]	n/a	FR1	0	R1386T
655.665	2.032	686920	ENCODING_START	n/a	n/a	n/a	-999	4	[0, 0, 0]	n/a	FR1	0	R1386T
657.697	1.6	688947	WORD	n/a	wordpools/wordpool_short_EN.txt	DEW	1	4	[0, 0, 0]	n/a	FR1	0	R1386T
659.297	0.783	690552	WORD_OFF	n/a	n/a	DEW	1	4	[0, 0, 0]	n/a	FR1	0	R1386T
660.08	1.6	691328	WORD	n/a	wordpools/wordpool_short_EN.txt	RUG	2	4	[0, 0, 0]	n/a	FR1	0	R1386T
661.68	0.784	692933	WORD_OFF	n/a	n/a	RUG	2	4	[0, 0, 0]	n/a	FR1	0	R1386T
662.464	1.616	693718	WORD	n/a	wordpools/wordpool_short_EN.txt	SMILE	3	4	[0, 0, 0]	n/a	FR1	0	R1386T
664.08	0.834	695331	WORD_OFF	n/a	n/a	SMILE	3	4	[0, 0, 0]	n/a	FR1	0	R1386T
664.914	1.616	696167	WORD	n/a	wordpools/wordpool_short_EN.txt	THROAT	4	4	[0, 0, 0]	n/a	FR1	0	R1386T
666.53	0.767	697781	WORD_OFF	n/a	n/a	THROAT	4	4	[0, 0, 0]	n/a	FR1	0	R1386T
667.297	1.617	698548	WORD	n/a	wordpools/wordpool_short_EN.txt	ROAD	5	4	[0, 0, 0]	n/a	FR1	0	R1386T
668.914	0.95	700170	WORD_OFF	n/a	n/a	ROAD	5	4	[0, 0, 0]	n/a	FR1	0	R1386T
669.864	1.6	701119	WORD	n/a	wordpools/wordpool_short_EN.txt	WHEEL	6	4	[0, 0, 0]	n/a	FR1	0	R1386T
671.464	0.9	702715	WORD_OFF	n/a	n/a	WHEEL	6	4	[0, 0, 0]	n/a	FR1	0	R1386T
672.364	1.6	703612	WORD	n/a	wordpools/wordpool_short_EN.txt	COIN	7	4	[0, 0, 0]	n/a	FR1	0	R1386T
673.964	0.766	705216	WORD_OFF	n/a	n/a	COIN	7	4	[0, 0, 0]	n/a	FR1	0	R1386T
674.73	1.6	705984	WORD	n/a	wordpools/wordpool_short_EN.txt	THORN	8	4	[0, 0, 0]	n/a	FR1	0	R1386T
676.33	0.9	707580	WORD_OFF	n/a	n/a	THORN	8	4	[0, 0, 0]	n/a	FR1	0	R1386T
677.23	1.617	708481	WORD	n/a	wordpools/wordpool_short_EN.txt	STORE	9	4	[0, 0, 0]	n/a	FR1	0	R1386T
678.847	0.966	710099	WORD_OFF	n/a	n/a	STORE	9	4	[0, 0, 0]	n/a	FR1	0	R1386T
679.813	1.617	711065	WORD	n/a	wordpools/wordpool_short_EN.txt	JAIL	10	4	[0, 0, 0]	n/a	FR1	0	R1386T
681.43	0.866	712678	WORD_OFF	n/a	n/a	JAIL	10	4	[0, 0, 0]	n/a	FR1	0	R1386T
682.296	1.601	713549	WORD	n/a	wordpools/wordpool_short_EN.txt	DRAIN	11	4	[0, 0, 0]	n/a	FR1	0	R1386T
683.897	0.833	715145	WORD_OFF	n/a	n/a	DRAIN	11	4	[0, 0, 0]	n/a	FR1	0	R1386T
684.73	1.6	715982	WORD	n/a	wordpools/wordpool_short_EN.txt	FRUIT	12	4	[0, 0, 0]	n/a	FR1	0	R1386T
686.33	0.0	717577	WORD_OFF	n/a	n/a	FRUIT	12	4	[0, 0, 0]	n/a	FR1	0	R1386T
686.33	0.001	717581	PROB	0.001	n/a	n/a	-999	4	[6, 3, 2]	11	FR1	0	R1386T
686.331	0.0	717582	START	n/a	n/a	n/a	-999	4	[-999, -999, -999]	n/a	FR1	0	R1386T
686.331	0.0	717586	ENCODING_END	n/a	n/a	n/a	-999	4	[0, 0, 0]	n/a	FR1	0	R1386T
686.331	3.983	717586	DISTRACT_START	n/a	n/a	n/a	-999	4	[0, 0, 0]	n/a	FR1	0	R1386T
690.314	4.5	721564	PROB	4.5	n/a	n/a	-999	4	[5, 1, 2]	8	FR1	0	R1386T
694.814	2.634	726064	PROB	2.634	n/a	n/a	-999	4	[1, 1, 1]	3	FR1	0	R1386T
697.448	7.45	728698	PROB	7.45	n/a	n/a	-999	4	[2, 5, 3]	10	FR1	0	R1386T
704.898	3.082	736148	PROB	3.082	n/a	n/a	-999	4	[7, 1, 1]	9	FR1	0	R1386T
707.98	0.0	739229	DISTRACT_END	n/a	n/a	n/a	-999	4	[0, 0, 0]	n/a	FR1	0	R1386T
707.98	1.068	739229	STOP	n/a	n/a	n/a	-999	4	[-999, -999, -999]	n/a	FR1	0	R1386T
709.048	12.374	740298	REC_START	n/a	n/a	n/a	-999	4	[0, 0, 0]	n/a	FR1	0	R1386T
721.422	6.48	752671	REC_WORD	6.48	n/a	DEW	1	4	[0, 0, 0]	n/a	FR1	0	R1386T
727.902	11.408	759150	REC_WORD	11.408	n/a	RAKE	-999	4	[0, 0, 0]	n/a	FR1	0	R1386T
739.31	2.621	770559	REC_END	n/a	n/a	n/a	-999	4	[0, 0, 0]	n/a	FR1	0	R1386T
741.931	10.349	773181	COUNTDOWN_START	n/a	n/a	n/a	-999	5	[0, 0, 0]	n/a	FR1	0	R1386T
752.28	0.001	783532	COUNTDOWN_END	n/a	n/a	n/a	-999	5	[0, 0, 0]	n/a	FR1	0	R1386T
752.281	2.049	783532	ENCODING_START	n/a	n/a	n/a	-999	5	[0, 0, 0]	n/a	FR1	0	R1386T
754.33	1.6	785577	WORD	n/a	wordpools/wordpool_short_EN.txt	GUN	1	5	[0, 0, 0]	n/a	FR1	0	R1386T
755.93	0.834	787181	WORD_OFF	n/a	n/a	GUN	1	5	[0, 0, 0]	n/a	FR1	0	R1386T
756.764	1.6	788009	WORD	n/a	wordpools/wordpool_short_EN.txt	LAND	2	5	[0, 0, 0]	n/a	FR1	0	R1386T
758.364	0.916	789614	WORD_OFF	n/a	n/a	LAND	2	5	[0, 0, 0]	n/a	FR1	0	R1386T
759.28	1.601	790528	WORD	n/a	wordpools/wordpool_short_EN.txt	KNOB	3	5	[0, 0, 0]	n/a	FR1	0	R1386T
760.881	0.966	792133	WORD_OFF	n/a	n/a	KNOB	3	5	[0, 0, 0]	n/a	FR1	0	R1386T
761.847	1.6	793090	WORD	n/a	wordpools/wordpool_short_EN.txt	WIG	4	5	[0, 0, 0]	n/a	FR1	0	R1386T
763.447	0.85	794695	WORD_OFF	n/a	n/a	WIG	4	5	[0, 0, 0]	n/a	FR1	0	R1386T
764.297	1.616	795540	WORD	n/a	wordpools/wordpool_short_EN.txt	TIE	5	5	[0, 0, 0]	n/a	FR1	0	R1386T
765.913	0.984	797162	WORD_OFF	n/a	n/a	TIE	5	5	[0, 0, 0]	n/a	FR1	0	R1386T
766.897	1.617	798145	WORD	n/a	wordpools/wordpool_short_EN.txt	VASE	6	5	[0, 0, 0]	n/a	FR1	0	R1386T
768.514	0.916	799758	WORD_OFF	n/a	n/a	VASE	6	5	[0, 0, 0]	n/a	FR1	0	R1386T
769.43	1.6	800681	WORD	n/a	wordpools/wordpool_short_EN.txt	STORM	7	5	[0, 0, 0]	n/a	FR1	0	R1386T
771.03	1.0	802277	WORD_OFF	n/a	n/a	STORM	7	5	[0, 0, 0]	n/a	FR1	0	R1386T
772.03	1.6	803278	WORD	n/a	wordpools/wordpool_short_EN.txt	PIN	8	5	[0, 0, 0]	n/a	FR1	0	R1386T
773.63	0.9	804873	WORD_OFF	n/a	n/a	PIN	8	5	[0, 0, 0]	n/a	FR1	0	R1386T
774.53	1.6	805779	WORD	n/a	wordpools/wordpool_short_EN.txt	MULE	9	5	[0, 0, 0]	n/a	FR1	0	R1386T
776.13	0.933	807375	WORD_OFF	n/a	n/a	MULE	9	5	[0, 0, 0]	n/a	FR1	0	R1386T
777.063	1.6	808307	WORD	n/a	wordpools/wordpool_short_EN.txt	TANK	10	5	[0, 0, 0]	n/a	FR1	0	R1386T
778.663	1.0	809911	WORD_OFF	n/a	n/a	TANK	10	5	[0, 0, 0]	n/a	FR1	0	R1386T
779.663	1.6	810912	WORD	n/a	wordpools/wordpool_short_EN.txt	MEAL	11	5	[0, 0, 0]	n/a	FR1	0	R1386T
781.263	0.8	812507	WORD_OFF	n/a	n/a	MEAL	11	5	[0, 0, 0]	n/a	FR1	0	R1386T
782.063	1.617	813310	WORD	n/a	wordpools/wordpool_short_EN.txt	ELF	12	5	[0, 0, 0]	n/a	FR1	0	R1386T
783.68	0.001	814923	WORD_OFF	n/a	n/a	ELF	12	5	[0, 0, 0]	n/a	FR1	0	R1386T
783.681	0.0	814927	PROB	0.0	n/a	n/a	-999	5	[1, 3, 3]	7	FR1	0	R1386T
783.681	0.0	814927	START	n/a	n/a	n/a	-999	5	[-999, -999, -999]	n/a	FR1	0	R1386T
783.681	0.0	814931	ENCODING_END	n/a	n/a	n/a	-999	5	[0, 0, 0]	n/a	FR1	0	R1386T
783.681	4.833	814931	DISTRACT_START	n/a	n/a	n/a	-999	5	[0, 0, 0]	n/a	FR1	0	R1386T
788.514	7.201	819759	PROB	7.201	n/a	n/a	-999	5	[8, 7, 3]	17	FR1	0	R1386T
795.715	4.05	826960	PROB	4.05	n/a	n/a	-999	5	[4, 4, 4]	12	FR1	0	R1386T
799.765	5.316	831010	PROB	5.316	n/a	n/a	-999	5	[7, 4, 7]	18	FR1	0	R1386T
805.081	0.0	836324	DISTRACT_END	n/a	n/a	n/a	-999	5	[0, 0, 0]	n/a	FR1	0	R1386T
805.081	1.266	836325	STOP	n/a	n/a	n/a	-999	5	[-999, -999, -999]	n/a	FR1	0	R1386T
806.347	2.36	837592	REC_START	n/a	n/a	n/a	-999	5	[0, 0, 0]	n/a	FR1	0	R1386T
808.707	1.095	839951	REC_WORD	1.095	n/a	GUN	1	5	[0, 0, 0]	n/a	FR1	0	R1386T
809.802	1.271	841046	REC_WORD	1.271	n/a	MULE	9	5	[0, 0, 0]	n/a	FR1	0	R1386T
811.073	3.779	842317	REC_WORD	3.779	n/a	MEAL	11	5	[0, 0, 0]	n/a	FR1	0	R1386T
814.852	21.763	846096	REC_WORD	21.763	n/a	RAKE	-999	5	[0, 0, 0]	n/a	FR1	0	R1386T
836.615	2.298	867861	REC_END	n/a	n/a	n/a	-999	5	[0, 0, 0]	n/a	FR1	0	R1386T
838.913	10.352	870156	COUNTDOWN_START	n/a	n/a	n/a	-999	6	[0, 0, 0]	n/a	FR1	0	R1386T
849.265	0.0	880507	COUNTDOWN_END	n/a	n/a	n/a	-999	6	[0, 0, 0]	n/a	FR1	0	R1386T
849.265	1.966	880507	ENCODING_START	n/a	n/a	n/a	-999	6	[0, 0, 0]	n/a	FR1	0	R1386T
851.231	1.6	882474	WORD	n/a	wordpools/wordpool_short_EN.txt	PARK	1	6	[0, 0, 0]	n/a	FR1	0	R1386T
852.831	0.85	884069	WORD_OFF	n/a	n/a	PARK	1	6	[0, 0, 0]	n/a	FR1	0	R1386T
853.681	1.616	884923	WORD	n/a	wordpools/wordpool_short_EN.txt	PET	2	6	[0, 0, 0]	n/a	FR1	0	R1386T
855.297	0.95	886536	WORD_OFF	n/a	n/a	PET	2	6	[0, 0, 0]	n/a	FR1	0	R1386T
856.247	1.6	887485	WORD	n/a	wordpools/wordpool_short_EN.txt	BROOM	3	6	[0, 0, 0]	n/a	FR1	0	R1386T
857.847	0.9	889090	WORD_OFF	n/a	n/a	BROOM	3	6	[0, 0, 0]	n/a	FR1	0	R1386T
858.747	1.617	889987	WORD	n/a	wordpools/wordpool_short_EN.txt	HOG	4	6	[0, 0, 0]	n/a	FR1	0	R1386T
860.364	0.8	891609	WORD_OFF	n/a	n/a	HOG	4	6	[0, 0, 0]	n/a	FR1	0	R1386T
861.164	1.616	892402	WORD	n/a	wordpools/wordpool_short_EN.txt	SKY	5	6	[0, 0, 0]	n/a	FR1	0	R1386T
862.78	0.851	894024	WORD_OFF	n/a	n/a	SKY	5	6	[0, 0, 0]	n/a	FR1	0	R1386T
863.631	1.6	894869	WORD	n/a	wordpools/wordpool_short_EN.txt	SHIELD	6	6	[0, 0, 0]	n/a	FR1	0	R1386T
865.231	0.783	896474	WORD_OFF	n/a	n/a	SHIELD	6	6	[0, 0, 0]	n/a	FR1	0	R1386T
866.014	1.617	897259	WORD	n/a	wordpools/wordpool_short_EN.txt	BIN	7	6	[0, 0, 0]	n/a	FR1	0	R1386T
867.631	0.883	898872	WORD_OFF	n/a	n/a	BIN	7	6	[0, 0, 0]	n/a	FR1	0	R1386T
868.514	1.601	899752	WORD	n/a	wordpools/wordpool_short_EN.txt	LIP	8	6	[0, 0, 0]	n/a	FR1	0	R1386T
870.115	0.982	901356	WORD_OFF	n/a	n/a	LIP	8	6	[0, 0, 0]	n/a	FR1	0	R1386T
871.097	1.617	902339	WORD	n/a	wordpools/wordpool_short_EN.txt	SPARK	9	6	[0, 0, 0]	n/a	FR1	0	R1386T
872.714	0.783	903953	WORD_OFF	n/a	n/a	SPARK	9	6	[0, 0, 0]	n/a	FR1	0	R1386T
873.497	1.6	904737	WORD	n/a	wordpools/wordpool_short_EN.txt	BOY	10	6	[0, 0, 0]	n/a	FR1	0	R1386T
875.097	0.799	906342	WORD_OFF	n/a	n/a	BOY	10	6	[0, 0, 0]	n/a	FR1	0	R1386T
875.896	1.6	907136	WORD	n/a	wordpools/wordpool_short_EN.txt	LEAF	11	6	[0, 0, 0]	n/a	FR1	0	R1386T
877.496	0.85	908740	WORD_OFF	n/a	n/a	LEAF	11	6	[0, 0, 0]	n/a	FR1	0	R1386T
878.346	1.601	909585	WORD	n/a	wordpools/wordpool_short_EN.txt	BARN	12	6	[0, 0, 0]	n/a	FR1	0	R1386T
879.947	0.001	911188	PROB	0.001	n/a	n/a	-999	6	[7, 4, 6]	17	FR1	0	R1386T
879.948	0.0	911189	START	n/a	n/a	n/a	-999	6	[-999, -999, -999]	n/a	FR1	0	R1386T
879.947	0.001	911190	WORD_OFF	n/a	n/a	BARN	12	6	[0, 0, 0]	n/a	FR1	0	R1386T
879.948	0.0	911190	ENCODING_END	n/a	n/a	n/a	-999	6	[0, 0, 0]	n/a	FR1	0	R1386T
879.948	6.95	911190	DISTRACT_START	n/a	n/a	n/a	-999	6	[0, 0, 0]	n/a	FR1	0	R1386T
886.898	3.717	918138	PROB	3.717	n/a	n/a	-999	6	[6, 4, 3]	13	FR1	0	R1386T
890.615	6.25	921855	PROB	6.25	n/a	n/a	-999	6	[1, 8, 6]	15	FR1	0	R1386T
896.865	3.332	928105	PROB	3.332	n/a	n/a	-999	6	[3, 5, 3]	11	FR1	0	R1386T
900.197	0.0	931435	DISTRACT_END	n/a	n/a	n/a	-999	6	[0, 0, 0]	n/a	FR1	0	R1386T
900.197	1.317	931437	STOP	n/a	n/a	n/a	-999	6	[-999, -999, -999]	n/a	FR1	0	R1386T
901.514	3.738	932755	REC_START	n/a	n/a	n/a	-999	6	[0, 0, 0]	n/a	FR1	0	R1386T
905.252	1.372	936491	REC_WORD	1.372	n/a	PARK	1	6	[0, 0, 0]	n/a	FR1	0	R1386T
906.624	2.158	937863	REC_WORD	2.158	n/a	BIN	7	6	[0, 0, 0]	n/a	FR1	0	R1386T
908.782	1.847	940021	REC_WORD	1.847	n/a	GUN	-999	6	[0, 0, 0]	n/a	FR1	0	R1386T
910.629	4.422	941868	REC_WORD	4.422	n/a	MULE	-999	6	[0, 0, 0]	n/a	FR1	0	R1386T
915.051	16.705	946290	REC_WORD	16.705	n/a	TIE	-999	6	[0, 0, 0]	n/a	FR1	0	R1386T
931.756	2.441	962998	REC_END	n/a	n/a	n/a	-999	6	[0, 0, 0]	n/a	FR1	0	R1386T
934.197	10.351	965439	COUNTDOWN_START	n/a	n/a	n/a	-999	7	[0, 0, 0]	n/a	FR1	0	R1386T
944.548	0.0	975782	COUNTDOWN_END	n/a	n/a	n/a	-999	7	[0, 0, 0]	n/a	FR1	0	R1386T
944.548	1.832	975791	ENCODING_START	n/a	n/a	n/a	-999	7	[0, 0, 0]	n/a	FR1	0	R1386T
946.38	1.617	977619	WORD	n/a	wordpools/wordpool_short_EN.txt	CAT	1	7	[0, 0, 0]	n/a	FR1	0	R1386T
947.997	0.766	979232	WORD_OFF	n/a	n/a	CAT	1	7	[0, 0, 0]	n/a	FR1	0	R1386T
948.763	1.6	980000	WORD	n/a	wordpools/wordpool_short_EN.txt	WEED	2	7	[0, 0, 0]	n/a	FR1	0	R1386T
950.363	0.984	981605	WORD_OFF	n/a	n/a	WEED	2	7	[0, 0, 0]	n/a	FR1	0	R1386T
951.347	1.616	982588	WORD	n/a	wordpools/wordpool_short_EN.txt	SPONGE	3	7	[0, 0, 0]	n/a	FR1	0	R1386T
952.963	0.784	984201	WORD_OFF	n/a	n/a	SPONGE	3	7	[0, 0, 0]	n/a	FR1	0	R1386T
953.747	1.6	984986	WORD	n/a	wordpools/wordpool_short_EN.txt	BRIDGE	4	7	[0, 0, 0]	n/a	FR1	0	R1386T
955.347	0.783	986582	WORD_OFF	n/a	n/a	BRIDGE	4	7	[0, 0, 0]	n/a	FR1	0	R1386T
956.13	1.6	987367	WORD	n/a	wordpools/wordpool_short_EN.txt	OIL	5	7	[0, 0, 0]	n/a	FR1	0	R1386T
957.73	0.85	988971	WORD_OFF	n/a	n/a	OIL	5	7	[0, 0, 0]	n/a	FR1	0	R1386T
958.58	1.6	989817	WORD	n/a	wordpools/wordpool_short_EN.txt	POND	6	7	[0, 0, 0]	n/a	FR1	0	R1386T
960.18	1.0	991421	WORD_OFF	n/a	n/a	POND	6	7	[0, 0, 0]	n/a	FR1	0	R1386T
961.18	1.617	992413	WORD	n/a	wordpools/wordpool_short_EN.txt	GRASS	7	7	[0, 0, 0]	n/a	FR1	0	R1386T
962.797	0.833	994035	WORD_OFF	n/a	n/a	GRASS	7	7	[0, 0, 0]	n/a	FR1	0	R1386T
963.63	1.6	994863	WORD	n/a	wordpools/wordpool_short_EN.txt	KEY	8	7	[0, 0, 0]	n/a	FR1	0	R1386T
965.23	0.767	996467	WORD_OFF	n/a	n/a	KEY	8	7	[0, 0, 0]	n/a	FR1	0	R1386T
965.997	1.6	997235	WORD	n/a	wordpools/wordpool_short_EN.txt	STEM	9	7	[0, 0, 0]	n/a	FR1	0	R1386T
967.597	0.9	998831	WORD_OFF	n/a	n/a	STEM	9	7	[0, 0, 0]	n/a	FR1	0	R1386T
968.497	1.601	999737	WORD	n/a	wordpools/wordpool_short_EN.txt	MUG	10	7	[0, 0, 0]	n/a	FR1	0	R1386T
970.098	0.95	1001332	WORD_OFF	n/a	n/a	MUG	10	7	[0, 0, 0]	n/a	FR1	0	R1386T
971.048	1.617	1002281	WORD	n/a	wordpools/wordpool_short_EN.txt	OAR	11	7	[0, 0, 0]	n/a	FR1	0	R1386T
972.665	0.967	1003903	WORD_OFF	n/a	n/a	OAR	11	7	[0, 0, 0]	n/a	FR1	0	R1386T
973.632	1.615	1004869	WORD	n/a	wordpools/wordpool_short_EN.txt	STEEL	12	7	[0, 0, 0]	n/a	FR1	0	R1386T
975.247	0.002	1006482	WORD_OFF	n/a	n/a	STEEL	12	7	[0, 0, 0]	n/a	FR1	0	R1386T
975.249	0.0	1006482	ENCODING_END	n/a	n/a	n/a	-999	7	[0, 0, 0]	n/a	FR1	0	R1386T
975.248	0.001	1006484	PROB	0.001	n/a	n/a	-999	7	[7, 7, 6]	20	FR1	0	R1386T
975.249	0.0	1006485	START	n/a	n/a	n/a	-999	7	[-999, -999, -999]	n/a	FR1	0	R1386T
975.249	5.982	1006491	DISTRACT_START	n/a	n/a	n/a	-999	7	[0, 0, 0]	n/a	FR1	0	R1386T
981.231	3.65	1012467	PROB	3.65	n/a	n/a	-999	7	[4, 3, 1]	8	FR1	0	R1386T
984.881	4.017	1016116	PROB	4.017	n/a	n/a	-999	7	[2, 8, 6]	16	FR1	0	R1386T
988.898	5.55	1020133	PROB	5.55	n/a	n/a	-999	7	[1, 8, 4]	13	FR1	0	R1386T
994.448	5.385	1025683	PROB	5.385	n/a	n/a	-999	7	[6, 5, 2]	13	FR1	0	R1386T
999.833	0.0	1031066	DISTRACT_END	n/a	n/a	n/a	-999	7	[0, 0, 0]	n/a	FR1	0	R1386T
999.833	1.248	1031068	STOP	n/a	n/a	n/a	-999	7	[-999, -999, -999]	n/a	FR1	0	R1386T
1001.081	1.8	1032317	REC_START	n/a	n/a	n/a	-999	7	[0, 0, 0]	n/a	FR1	0	R1386T
1002.881	1.36	1034115	REC_WORD	1.36	n/a	CAT	1	7	[0, 0, 0]	n/a	FR1	0	R1386T
1004.241	1.613	1035475	REC_WORD	1.613	n/a	OAR	11	7	[0, 0, 0]	n/a	FR1	0	R1386T
1005.854	1.598	1037088	REC_WORD	1.598	n/a	WIG	-999	7	[0, 0, 0]	n/a	FR1	0	R1386T
1007.452	23.895	1038686	REC_WORD	23.895	n/a	GUN	-999	7	[0, 0, 0]	n/a	FR1	0	R1386T
1031.347	3.084	1062578	REC_END	n/a	n/a	n/a	-999	7	[0, 0, 0]	n/a	FR1	0	R1386T
1034.431	10.35	1065666	COUNTDOWN_START	n/a	n/a	n/a	-999	8	[0, 0, 0]	n/a	FR1	0	R1386T
1044.781	0.001	1076017	COUNTDOWN_END	n/a	n/a	n/a	-999	8	[0, 0, 0]	n/a	FR1	0	R1386T
1044.782	2.232	1076017	ENCODING_START	n/a	n/a	n/a	-999	8	[0, 0, 0]	n/a	FR1	0	R1386T
1047.014	1.6	1078243	WORD	n/a	wordpools/wordpool_short_EN.txt	SEAL	1	8	[0, 0, 0]	n/a	FR1	0	R1386T
1048.614	0.883	1079847	WORD_OFF	n/a	n/a	SEAL	1	8	[0, 0, 0]	n/a	FR1	0	R1386T
1049.497	1.6	1080727	WORD	n/a	wordpools/wordpool_short_EN.txt	BEEF	2	8	[0, 0, 0]	n/a	FR1	0	R1386T
1051.097	0.8	1082331	WORD_OFF	n/a	n/a	BEEF	2	8	[0, 0, 0]	n/a	FR1	0	R1386T
1051.897	1.617	1083133	WORD	n/a	wordpools/wordpool_short_EN.txt	TOAD	3	8	[0, 0, 0]	n/a	FR1	0	R1386T
1053.514	0.933	1084747	WORD_OFF	n/a	n/a	TOAD	3	8	[0, 0, 0]	n/a	FR1	0	R1386T
1054.447	1.618	1085678	WORD	n/a	wordpools/wordpool_short_EN.txt	HARP	4	8	[0, 0, 0]	n/a	FR1	0	R1386T
1056.065	0.832	1087300	WORD_OFF	n/a	n/a	HARP	4	8	[0, 0, 0]	n/a	FR1	0	R1386T
1056.897	1.616	1088128	WORD	n/a	wordpools/wordpool_short_EN.txt	CLOTH	5	8	[0, 0, 0]	n/a	FR1	0	R1386T
1058.513	0.767	1089741	WORD_OFF	n/a	n/a	CLOTH	5	8	[0, 0, 0]	n/a	FR1	0	R1386T
1059.28	1.6	1090509	WORD	n/a	wordpools/wordpool_short_EN.txt	SHIP	6	8	[0, 0, 0]	n/a	FR1	0	R1386T
1060.88	0.884	1092113	WORD_OFF	n/a	n/a	SHIP	6	8	[0, 0, 0]	n/a	FR1	0	R1386T
1061.764	1.6	1092993	WORD	n/a	wordpools/wordpool_short_EN.txt	BOMB	7	8	[0, 0, 0]	n/a	FR1	0	R1386T
1063.364	0.85	1094598	WORD_OFF	n/a	n/a	BOMB	7	8	[0, 0, 0]	n/a	FR1	0	R1386T
1064.214	1.6	1095443	WORD	n/a	wordpools/wordpool_short_EN.txt	CHALK	8	8	[0, 0, 0]	n/a	FR1	0	R1386T
1065.814	0.849	1097047	WORD_OFF	n/a	n/a	CHALK	8	8	[0, 0, 0]	n/a	FR1	0	R1386T
1066.663	1.601	1097893	WORD	n/a	wordpools/wordpool_short_EN.txt	LOCK	9	8	[0, 0, 0]	n/a	FR1	0	R1386T
1068.264	0.983	1099497	WORD_OFF	n/a	n/a	LOCK	9	8	[0, 0, 0]	n/a	FR1	0	R1386T
1069.247	1.6	1100481	WORD	n/a	wordpools/wordpool_short_EN.txt	ROCK	10	8	[0, 0, 0]	n/a	FR1	0	R1386T
1070.847	0.85	1102076	WORD_OFF	n/a	n/a	ROCK	10	8	[0, 0, 0]	n/a	FR1	0	R1386T
1071.697	1.6	1102930	WORD	n/a	wordpools/wordpool_short_EN.txt	BAY	11	8	[0, 0, 0]	n/a	FR1	0	R1386T
1073.297	0.934	1104526	WORD_OFF	n/a	n/a	BAY	11	8	[0, 0, 0]	n/a	FR1	0	R1386T
1074.231	1.617	1105463	WORD	n/a	wordpools/wordpool_short_EN.txt	NAIL	12	8	[0, 0, 0]	n/a	FR1	0	R1386T
1075.848	0.0	1107079	PROB	0.0	n/a	n/a	-999	8	[8, 5, 4]	17	FR1	0	R1386T
1075.847	0.002	1107080	WORD_OFF	n/a	n/a	NAIL	12	8	[0, 0, 0]	n/a	FR1	0	R1386T
1075.849	0.0	1107080	ENCODING_END	n/a	n/a	n/a	-999	8	[0, 0, 0]	n/a	FR1	0	R1386T
1075.849	0.0	1107080	DISTRACT_START	n/a	n/a	n/a	-999	8	[0, 0, 0]	n/a	FR1	0	R1386T
1075.849	5.699	1107080	START	n/a	n/a	n/a	-999	8	[-999, -999, -999]	n/a	FR1	0	R1386T
1081.548	4.267	1112778	PROB	4.267	n/a	n/a	-999	8	[2, 3, 5]	10	FR1	0	R1386T
1085.815	3.466	1117045	PROB	3.466	n/a	n/a	-999	8	[3, 7, 1]	11	FR1	0	R1386T
1089.281	4.317	1120511	PROB	4.317	n/a	n/a	-999	8	[2, 5, 4]	11	FR1	0	R1386T
1093.598	3.583	1124828	PROB	3.583	n/a	n/a	-999	8	[4, 1, 7]	12	FR1	0	R1386T
1097.181	0.0	1128411	STOP	n/a	n/a	n/a	-999	8	[-999, -999, -999]	n/a	FR1	0	R1386T
1097.181	1.016	1128412	DISTRACT_END	n/a	n/a	n/a	-999	8	[0, 0, 0]	n/a	FR1	0	R1386T
1098.197	1.751	1129430	REC_START	n/a	n/a	n/a	-999	8	[0, 0, 0]	n/a	FR1	0	R1386T
1099.948	1.412	1131177	REC_WORD	1.412	n/a	SEAL	1	8	[0, 0, 0]	n/a	FR1	0	R1386T
1101.36	1.258	1132589	REC_WORD	1.258	n/a	BEEF	2	8	[0, 0, 0]	n/a	FR1	0	R1386T
1102.618	3.723	1133847	REC_WORD	3.723	n/a	BAY	11	8	[0, 0, 0]	n/a	FR1	0	R1386T
1106.341	7.014	1137570	REC_WORD	7.014	n/a	OAR	-999	8	[0, 0, 0]	n/a	FR1	0	R1386T
1113.355	15.089	1144584	REC_WORD	15.089	n/a	SAIL	-999	8	[0, 0, 0]	n/a	FR1	0	R1386T
1128.444	2.503	1159673	REC_END	n/a	n/a	n/a	-999	8	[0, 0, 0]	n/a	FR1	0	R1386T
1130.947	10.35	1162174	COUNTDOWN_START	n/a	n/a	n/a	-999	9	[0, 0, 0]	n/a	FR1	0	R1386T
1141.297	0.0	1172526	COUNTDOWN_END	n/a	n/a	n/a	-999	9	[0, 0, 0]	n/a	FR1	0	R1386T
1141.297	2.166	1172526	ENCODING_START	n/a	n/a	n/a	-999	9	[0, 0, 0]	n/a	FR1	0	R1386T
1143.463	1.617	1174691	WORD	n/a	wordpools/wordpool_short_EN.txt	BRUSH	1	9	[0, 0, 0]	n/a	FR1	0	R1386T
1145.08	0.883	1176304	WORD_OFF	n/a	n/a	BRUSH	1	9	[0, 0, 0]	n/a	FR1	0	R1386T
1145.963	1.6	1177192	WORD	n/a	wordpools/wordpool_short_EN.txt	TOY	2	9	[0, 0, 0]	n/a	FR1	0	R1386T
1147.563	0.884	1178788	WORD_OFF	n/a	n/a	TOY	2	9	[0, 0, 0]	n/a	FR1	0	R1386T
1148.447	1.6	1179677	WORD	n/a	wordpools/wordpool_short_EN.txt	DITCH	3	9	[0, 0, 0]	n/a	FR1	0	R1386T
1150.047	0.967	1181272	WORD_OFF	n/a	n/a	DITCH	3	9	[0, 0, 0]	n/a	FR1	0	R1386T
1151.014	1.6	1182239	WORD	n/a	wordpools/wordpool_short_EN.txt	RICE	4	9	[0, 0, 0]	n/a	FR1	0	R1386T
1152.614	0.834	1183843	WORD_OFF	n/a	n/a	RICE	4	9	[0, 0, 0]	n/a	FR1	0	R1386T
1153.448	1.6	1184671	WORD	n/a	wordpools/wordpool_short_EN.txt	COURT	5	9	[0, 0, 0]	n/a	FR1	0	R1386T
1155.048	0.849	1186276	WORD_OFF	n/a	n/a	COURT	5	9	[0, 0, 0]	n/a	FR1	0	R1386T
1155.897	1.617	1187121	WORD	n/a	wordpools/wordpool_short_EN.txt	ICE	6	9	[0, 0, 0]	n/a	FR1	0	R1386T
1157.514	0.949	1188743	WORD_OFF	n/a	n/a	ICE	6	9	[0, 0, 0]	n/a	FR1	0	R1386T
1158.463	1.601	1189692	WORD	n/a	wordpools/wordpool_short_EN.txt	SOIL	7	9	[0, 0, 0]	n/a	FR1	0	R1386T
1160.064	1.0	1191287	WORD_OFF	n/a	n/a	SOIL	7	9	[0, 0, 0]	n/a	FR1	0	R1386T
1161.064	1.617	1192288	WORD	n/a	wordpools/wordpool_short_EN.txt	APE	8	9	[0, 0, 0]	n/a	FR1	0	R1386T
1162.681	1.0	1193910	WORD_OFF	n/a	n/a	APE	8	9	[0, 0, 0]	n/a	FR1	0	R1386T
1163.681	1.6	1194910	WORD	n/a	wordpools/wordpool_short_EN.txt	DOG	9	9	[0, 0, 0]	n/a	FR1	0	R1386T
1165.281	0.966	1196506	WORD_OFF	n/a	n/a	DOG	9	9	[0, 0, 0]	n/a	FR1	0	R1386T
1166.247	1.6	1197472	WORD	n/a	wordpools/wordpool_short_EN.txt	CLOCK	10	9	[0, 0, 0]	n/a	FR1	0	R1386T
1167.847	0.9	1199077	WORD_OFF	n/a	n/a	CLOCK	10	9	[0, 0, 0]	n/a	FR1	0	R1386T
1168.747	1.6	1199974	WORD	n/a	wordpools/wordpool_short_EN.txt	JET	11	9	[0, 0, 0]	n/a	FR1	0	R1386T
1170.347	0.884	1201570	WORD_OFF	n/a	n/a	JET	11	9	[0, 0, 0]	n/a	FR1	0	R1386T
1171.231	1.6	1202458	WORD	n/a	wordpools/wordpool_short_EN.txt	JAR	12	9	[0, 0, 0]	n/a	FR1	0	R1386T
1172.831	0.001	1204054	WORD_OFF	n/a	n/a	JAR	12	9	[0, 0, 0]	n/a	FR1	0	R1386T
1172.832	0.0	1204058	START	n/a	n/a	n/a	-999	9	[-999, -999, -999]	n/a	FR1	0	R1386T
1172.832	0.0	1204058	PROB	0.0	n/a	n/a	-999	9	[6, 2, 4]	12	FR1	0	R1386T
1172.832	0.0	1204063	ENCODING_END	n/a	n/a	n/a	-999	9	[0, 0, 0]	n/a	FR1	0	R1386T
1172.832	7.483	1204063	DISTRACT_START	n/a	n/a	n/a	-999	9	[0, 0, 0]	n/a	FR1	0	R1386T
1180.315	4.083	1211540	PROB	4.083	n/a	n/a	-999	9	[6, 8, 1]	15	FR1	0	R1386T
1184.398	3.998	1215623	PROB	3.998	n/a	n/a	-999	9	[6, 1, 6]	13	FR1	0	R1386T
1188.396	4.985	1219621	PROB	4.985	n/a	n/a	-999	9	[8, 4, 7]	19	FR1	0	R1386T
1193.381	0.0	1224601	DISTRACT_END	n/a	n/a	n/a	-999	9	[0, 0, 0]	n/a	FR1	0	R1386T
1193.381	1.183	1224606	STOP	n/a	n/a	n/a	-999	9	[-999, -999, -999]	n/a	FR1	0	R1386T
1194.564	1.982	1225792	REC_START	n/a	n/a	n/a	-999	9	[0, 0, 0]	n/a	FR1	0	R1386T
1196.546	1.156	1227771	REC_WORD	1.156	n/a	RICE	4	9	[0, 0, 0]	n/a	FR1	0	R1386T
1197.702	1.434	1228927	REC_WORD	1.434	n/a	ICE	6	9	[0, 0, 0]	n/a	FR1	0	R1386T
1199.136	13.437	1230360	REC_WORD	13.437	n/a	JET	11	9	[0, 0, 0]	n/a	FR1	0	R1386T
1212.573	12.252	1243797	REC_WORD	12.252	n/a	SOIL	7	9	[0, 0, 0]	n/a	FR1	0	R1386T
1224.825	3.422	1256052	REC_END	n/a	n/a	n/a	-999	9	[0, 0, 0]	n/a	FR1	0	R1386T
1228.247	10.35	1259468	COUNTDOWN_START	n/a	n/a	n/a	-999	10	[0, 0, 0]	n/a	FR1	0	R1386T
1238.597	0.001	1269819	COUNTDOWN_END	n/a	n/a	n/a	-999	10	[0, 0, 0]	n/a	FR1	0	R1386T
1238.598	1.932	1269819	ENCODING_START	n/a	n/a	n/a	-999	10	[0, 0, 0]	n/a	FR1	0	R1386T
1240.53	1.601	1271751	WORD	n/a	wordpools/wordpool_short_EN.txt	STAR	1	10	[0, 0, 0]	n/a	FR1	0	R1386T
1242.131	0.917	1273356	WORD_OFF	n/a	n/a	STAR	1	10	[0, 0, 0]	n/a	FR1	0	R1386T
1243.048	1.6	1274270	WORD	n/a	wordpools/wordpool_short_EN.txt	CHAIN	2	10	[0, 0, 0]	n/a	FR1	0	R1386T
1244.648	0.95	1275866	WORD_OFF	n/a	n/a	CHAIN	2	10	[0, 0, 0]	n/a	FR1	0	R1386T
1245.598	1.616	1276824	WORD	n/a	wordpools/wordpool_short_EN.txt	SPICE	3	10	[0, 0, 0]	n/a	FR1	0	R1386T
1247.214	0.883	1278437	WORD_OFF	n/a	n/a	SPICE	3	10	[0, 0, 0]	n/a	FR1	0	R1386T
1248.097	1.601	1279316	WORD	n/a	wordpools/wordpool_short_EN.txt	BRICK	4	10	[0, 0, 0]	n/a	FR1	0	R1386T
1249.698	0.916	1280921	WORD_OFF	n/a	n/a	BRICK	4	10	[0, 0, 0]	n/a	FR1	0	R1386T
1250.614	1.6	1281835	WORD	n/a	wordpools/wordpool_short_EN.txt	RAMP	5	10	[0, 0, 0]	n/a	FR1	0	R1386T
1252.214	0.816	1283440	WORD_OFF	n/a	n/a	RAMP	5	10	[0, 0, 0]	n/a	FR1	0	R1386T
1253.03	1.6	1284251	WORD	n/a	wordpools/wordpool_short_EN.txt	CHIEF	6	10	[0, 0, 0]	n/a	FR1	0	R1386T
1254.63	1.0	1285855	WORD_OFF	n/a	n/a	CHIEF	6	10	[0, 0, 0]	n/a	FR1	0	R1386T
1255.63	1.601	1286856	WORD	n/a	wordpools/wordpool_short_EN.txt	WOOD	7	10	[0, 0, 0]	n/a	FR1	0	R1386T
1257.231	0.85	1288452	WORD_OFF	n/a	n/a	WOOD	7	10	[0, 0, 0]	n/a	FR1	0	R1386T
1258.081	1.6	1289305	WORD	n/a	wordpools/wordpool_short_EN.txt	ARK	8	10	[0, 0, 0]	n/a	FR1	0	R1386T
1259.681	0.85	1290901	WORD_OFF	n/a	n/a	ARK	8	10	[0, 0, 0]	n/a	FR1	0	R1386T
1260.531	1.6	1291755	WORD	n/a	wordpools/wordpool_short_EN.txt	MAZE	9	10	[0, 0, 0]	n/a	FR1	0	R1386T
1262.131	0.983	1293351	WORD_OFF	n/a	n/a	MAZE	9	10	[0, 0, 0]	n/a	FR1	0	R1386T
1263.114	1.6	1294334	WORD	n/a	wordpools/wordpool_short_EN.txt	STEAM	10	10	[0, 0, 0]	n/a	FR1	0	R1386T
1264.714	0.95	1295939	WORD_OFF	n/a	n/a	STEAM	10	10	[0, 0, 0]	n/a	FR1	0	R1386T
1265.664	1.617	1296888	WORD	n/a	wordpools/wordpool_short_EN.txt	LIMB	11	10	[0, 0, 0]	n/a	FR1	0	R1386T
1267.281	0.833	1298501	WORD_OFF	n/a	n/a	LIMB	11	10	[0, 0, 0]	n/a	FR1	0	R1386T
1268.114	1.6	1299338	WORD	n/a	wordpools/wordpool_short_EN.txt	BOLT	12	10	[0, 0, 0]	n/a	FR1	0	R1386T
1269.714	0.001	1300933	WORD_OFF	n/a	n/a	BOLT	12	10	[0, 0, 0]	n/a	FR1	0	R1386T
1269.715	0.0	1300933	ENCODING_END	n/a	n/a	n/a	-999	10	[0, 0, 0]	n/a	FR1	0	R1386T
1269.715	0.001	1300936	PROB	0.001	n/a	n/a	-999	10	[2, 2, 6]	10	FR1	0	R1386T
1269.716	0.0	1300937	START	n/a	n/a	n/a	-999	10	[-999, -999, -999]	n/a	FR1	0	R1386T
1269.716	5.916	1300942	DISTRACT_START	n/a	n/a	n/a	-999	10	[0, 0, 0]	n/a	FR1	0	R1386T
1275.632	3.216	1306853	PROB	3.216	n/a	n/a	-999	10	[5, 1, 2]	9	FR1	0	R1386T
1278.848	5.966	1310068	PROB	5.966	n/a	n/a	-999	10	[2, 4, 6]	12	FR1	0	R1386T
1284.814	6.5	1316034	PROB	6.5	n/a	n/a	-999	10	[7, 4, 3]	14	FR1	0	R1386T
1291.314	0.0	1322533	DISTRACT_END	n/a	n/a	n/a	-999	10	[0, 0, 0]	n/a	FR1	0	R1386T
1291.314	1.35	1322534	STOP	n/a	n/a	n/a	-999	10	[-999, -999, -999]	n/a	FR1	0	R1386T
1292.664	3.743	1323887	REC_START	n/a	n/a	n/a	-999	10	[0, 0, 0]	n/a	FR1	0	R1386T
1296.407	7.013	1327626	REC_WORD	7.013	n/a	MAZE	9	10	[0, 0, 0]	n/a	FR1	0	R1386T
1303.42	0.888	1334639	REC_WORD	0.888	n/a	RICE	-999	10	[0, 0, 0]	n/a	FR1	0	R1386T
1304.308	1.774	1335527	REC_WORD	1.774	n/a	ICE	-999	10	[0, 0, 0]	n/a	FR1	0	R1386T
1306.082	2.276	1337301	REC_WORD	2.276	n/a	LIMB	11	10	[0, 0, 0]	n/a	FR1	0	R1386T
1308.358	7.15	1339577	REC_WORD	7.15	n/a	STAR	1	10	[0, 0, 0]	n/a	FR1	0	R1386T
1315.508	7.406	1346727	REC_WORD	7.406	n/a	ARK	8	10	[0, 0, 0]	n/a	FR1	0	R1386T
1322.914	2.617	1354130	REC_END	n/a	n/a	n/a	-999	10	[0, 0, 0]	n/a	FR1	0	R1386T
1325.531	10.35	1356753	COUNTDOWN_START	n/a	n/a	n/a	-999	11	[0, 0, 0]	n/a	FR1	0	R1386T
1335.881	0.0	1367096	COUNTDOWN_END	n/a	n/a	n/a	-999	11	[0, 0, 0]	n/a	FR1	0	R1386T
1335.881	2.016	1367104	ENCODING_START	n/a	n/a	n/a	-999	11	[0, 0, 0]	n/a	FR1	0	R1386T
1337.897	1.6	1369114	WORD	n/a	wordpools/wordpool_short_EN.txt	BATH	1	11	[0, 0, 0]	n/a	FR1	0	R1386T
1339.497	0.95	1370718	WORD_OFF	n/a	n/a	BATH	1	11	[0, 0, 0]	n/a	FR1	0	R1386T
1340.447	1.617	1371667	WORD	n/a	wordpools/wordpool_short_EN.txt	NEST	2	11	[0, 0, 0]	n/a	FR1	0	R1386T
1342.064	0.933	1373280	WORD_OFF	n/a	n/a	NEST	2	11	[0, 0, 0]	n/a	FR1	0	R1386T
1342.997	1.6	1374212	WORD	n/a	wordpools/wordpool_short_EN.txt	SOAP	3	11	[0, 0, 0]	n/a	FR1	0	R1386T
1344.597	0.817	1375816	WORD_OFF	n/a	n/a	SOAP	3	11	[0, 0, 0]	n/a	FR1	0	R1386T
1345.414	1.6	1376627	WORD	n/a	wordpools/wordpool_short_EN.txt	DIME	4	11	[0, 0, 0]	n/a	FR1	0	R1386T
1347.014	0.784	1378232	WORD_OFF	n/a	n/a	DIME	4	11	[0, 0, 0]	n/a	FR1	0	R1386T
1347.798	1.599	1379017	WORD	n/a	wordpools/wordpool_short_EN.txt	SLUSH	5	11	[0, 0, 0]	n/a	FR1	0	R1386T
1349.397	1.0	1380613	WORD_OFF	n/a	n/a	SLUSH	5	11	[0, 0, 0]	n/a	FR1	0	R1386T
1350.397	1.617	1381613	WORD	n/a	wordpools/wordpool_short_EN.txt	THUMB	6	11	[0, 0, 0]	n/a	FR1	0	R1386T
1352.014	0.917	1383235	WORD_OFF	n/a	n/a	THUMB	6	11	[0, 0, 0]	n/a	FR1	0	R1386T
1352.931	1.616	1384149	WORD	n/a	wordpools/wordpool_short_EN.txt	PAGE	7	11	[0, 0, 0]	n/a	FR1	0	R1386T
1354.547	0.917	1385762	WORD_OFF	n/a	n/a	PAGE	7	11	[0, 0, 0]	n/a	FR1	0	R1386T
1355.464	1.6	1386677	WORD	n/a	wordpools/wordpool_short_EN.txt	CHILD	8	11	[0, 0, 0]	n/a	FR1	0	R1386T
1357.064	0.783	1388281	WORD_OFF	n/a	n/a	CHILD	8	11	[0, 0, 0]	n/a	FR1	0	R1386T
1357.847	1.6	1389066	WORD	n/a	wordpools/wordpool_short_EN.txt	HEART	9	11	[0, 0, 0]	n/a	FR1	0	R1386T
1359.447	0.834	1390662	WORD_OFF	n/a	n/a	HEART	9	11	[0, 0, 0]	n/a	FR1	0	R1386T
1360.281	1.6	1391499	WORD	n/a	wordpools/wordpool_short_EN.txt	ZOO	10	11	[0, 0, 0]	n/a	FR1	0	R1386T
1361.881	0.983	1393094	WORD_OFF	n/a	n/a	ZOO	10	11	[0, 0, 0]	n/a	FR1	0	R1386T
1362.864	1.6	1394078	WORD	n/a	wordpools/wordpool_short_EN.txt	FENCE	11	11	[0, 0, 0]	n/a	FR1	0	R1386T
1364.464	0.917	1395682	WORD_OFF	n/a	n/a	FENCE	11	11	[0, 0, 0]	n/a	FR1	0	R1386T
1365.381	1.6	1396597	WORD	n/a	wordpools/wordpool_short_EN.txt	ROPE	12	11	[0, 0, 0]	n/a	FR1	0	R1386T
1366.981	0.0	1398193	WORD_OFF	n/a	n/a	ROPE	12	11	[0, 0, 0]	n/a	FR1	0	R1386T
1366.981	0.001	1398197	PROB	0.001	n/a	n/a	-999	11	[4, 1, 2]	8	FR1	0	R1386T
1366.982	0.0	1398198	START	n/a	n/a	n/a	-999	11	[-999, -999, -999]	n/a	FR1	0	R1386T
1366.982	0.0	1398201	ENCODING_END	n/a	n/a	n/a	-999	11	[0, 0, 0]	n/a	FR1	0	R1386T
1366.982	5.199	1398201	DISTRACT_START	n/a	n/a	n/a	-999	11	[0, 0, 0]	n/a	FR1	0	R1386T
1372.181	4.434	1403397	PROB	4.434	n/a	n/a	-999	11	[1, 6, 8]	16	FR1	0	R1386T
1376.615	4.216	1407830	PROB	4.216	n/a	n/a	-999	11	[4, 7, 6]	17	FR1	0	R1386T
1380.831	3.5	1412046	PROB	3.5	n/a	n/a	-999	11	[6, 4, 2]	12	FR1	0	R1386T
1384.331	6.216	1415546	PROB	6.216	n/a	n/a	-999	11	[4, 6, 8]	18	FR1	0	R1386T
1390.547	0.0	1421759	DISTRACT_END	n/a	n/a	n/a	-999	11	[0, 0, 0]	n/a	FR1	0	R1386T
1390.547	1.367	1421762	STOP	n/a	n/a	n/a	-999	11	[-999, -999, -999]	n/a	FR1	0	R1386T
1391.914	2.188	1423131	REC_START	n/a	n/a	n/a	-999	11	[0, 0, 0]	n/a	FR1	0	R1386T
1394.102	0.819	1425317	REC_WORD	0.819	n/a	BATH	1	11	[0, 0, 0]	n/a	FR1	0	R1386T
1394.921	1.459	1426135	REC_WORD	1.459	n/a	SOAP	3	11	[0, 0, 0]	n/a	FR1	0	R1386T
1396.38	4.991	1427594	REC_WORD	4.991	n/a	FENCE	11	11	[0, 0, 0]	n/a	FR1	0	R1386T
1401.371	5.963	1432585	REC_WORD	5.963	n/a	ROPE	12	11	[0, 0, 0]	n/a	FR1	0	R1386T
1407.334	14.84	1438548	REC_WORD	14.84	n/a	CHILD	8	11	[0, 0, 0]	n/a	FR1	0	R1386T
1422.174	3.324	1453391	REC_END	n/a	n/a	n/a	-999	11	[0, 0, 0]	n/a	FR1	0	R1386T
1425.498	10.35	1456712	COUNTDOWN_START	n/a	n/a	n/a	-999	12	[0, 0, 0]	n/a	FR1	0	R1386T
1435.848	0.0	1467063	COUNTDOWN_END	n/a	n/a	n/a	-999	12	[0, 0, 0]	n/a	FR1	0	R1386T
1435.848	2.282	1467063	ENCODING_START	n/a	n/a	n/a	-999	12	[0, 0, 0]	n/a	FR1	0	R1386T
1438.13	1.601	1469340	WORD	n/a	wordpools/wordpool_short_EN.txt	PRIZE	1	12	[0, 0, 0]	n/a	FR1	0	R1386T
1439.731	0.85	1470945	WORD_OFF	n/a	n/a	PRIZE	1	12	[0, 0, 0]	n/a	FR1	0	R1386T
1440.581	1.6	1471790	WORD	n/a	wordpools/wordpool_short_EN.txt	BANK	2	12	[0, 0, 0]	n/a	FR1	0	R1386T
1442.181	0.8	1473395	WORD_OFF	n/a	n/a	BANK	2	12	[0, 0, 0]	n/a	FR1	0	R1386T
1442.981	1.6	1474197	WORD	n/a	wordpools/wordpool_short_EN.txt	LENS	3	12	[0, 0, 0]	n/a	FR1	0	R1386T
1444.581	0.967	1475793	WORD_OFF	n/a	n/a	LENS	3	12	[0, 0, 0]	n/a	FR1	0	R1386T
1445.548	1.599	1476759	WORD	n/a	wordpools/wordpool_short_EN.txt	RAT	4	12	[0, 0, 0]	n/a	FR1	0	R1386T
1447.147	0.802	1478363	WORD_OFF	n/a	n/a	RAT	4	12	[0, 0, 0]	n/a	FR1	0	R1386T
1447.949	1.598	1479157	WORD	n/a	wordpools/wordpool_short_EN.txt	BREAST	5	12	[0, 0, 0]	n/a	FR1	0	R1386T
1449.547	0.85	1480761	WORD_OFF	n/a	n/a	BREAST	5	12	[0, 0, 0]	n/a	FR1	0	R1386T
1450.397	1.6	1481607	WORD	n/a	wordpools/wordpool_short_EN.txt	NIGHT	6	12	[0, 0, 0]	n/a	FR1	0	R1386T
1451.997	0.917	1483211	WORD_OFF	n/a	n/a	NIGHT	6	12	[0, 0, 0]	n/a	FR1	0	R1386T
1452.914	1.6	1484126	WORD	n/a	wordpools/wordpool_short_EN.txt	WORM	7	12	[0, 0, 0]	n/a	FR1	0	R1386T
1454.514	0.867	1485721	WORD_OFF	n/a	n/a	WORM	7	12	[0, 0, 0]	n/a	FR1	0	R1386T
1455.381	1.6	1486593	WORD	n/a	wordpools/wordpool_short_EN.txt	GLASS	8	12	[0, 0, 0]	n/a	FR1	0	R1386T
1456.981	0.983	1488188	WORD_OFF	n/a	n/a	GLASS	8	12	[0, 0, 0]	n/a	FR1	0	R1386T
1457.964	1.617	1489172	WORD	n/a	wordpools/wordpool_short_EN.txt	TOOTH	9	12	[0, 0, 0]	n/a	FR1	0	R1386T
1459.581	0.9	1490794	WORD_OFF	n/a	n/a	TOOTH	9	12	[0, 0, 0]	n/a	FR1	0	R1386T
1460.481	1.6	1491691	WORD	n/a	wordpools/wordpool_short_EN.txt	PEA	10	12	[0, 0, 0]	n/a	FR1	0	R1386T
1462.081	0.833	1493295	WORD_OFF	n/a	n/a	PEA	10	12	[0, 0, 0]	n/a	FR1	0	R1386T
1462.914	1.6	1494123	WORD	n/a	wordpools/wordpool_short_EN.txt	VEST	11	12	[0, 0, 0]	n/a	FR1	0	R1386T
1464.514	0.95	1495728	WORD_OFF	n/a	n/a	VEST	11	12	[0, 0, 0]	n/a	FR1	0	R1386T
1465.464	1.617	1496677	WORD	n/a	wordpools/wordpool_short_EN.txt	SHEET	12	12	[0, 0, 0]	n/a	FR1	0	R1386T
1467.081	0.001	1498290	WORD_OFF	n/a	n/a	SHEET	12	12	[0, 0, 0]	n/a	FR1	0	R1386T
1467.082	0.0	1498293	START	n/a	n/a	n/a	-999	12	[-999, -999, -999]	n/a	FR1	0	R1386T
1467.082	0.0	1498293	PROB	0.0	n/a	n/a	-999	12	[6, 4, 5]	15	FR1	0	R1386T
1467.082	0.0	1498298	ENCODING_END	n/a	n/a	n/a	-999	12	[0, 0, 0]	n/a	FR1	0	R1386T
1467.082	7.316	1498298	DISTRACT_START	n/a	n/a	n/a	-999	12	[0, 0, 0]	n/a	FR1	0	R1386T
1474.398	3.683	1505608	PROB	3.683	n/a	n/a	-999	12	[1, 2, 7]	10	FR1	0	R1386T
1478.081	3.733	1509291	PROB	3.733	n/a	n/a	-999	12	[5, 8, 7]	20	FR1	0	R1386T
1481.814	4.634	1513024	PROB	4.634	n/a	n/a	-999	12	[5, 8, 8]	21	FR1	0	R1386T
1486.448	4.032	1517658	PROB	4.032	n/a	n/a	-999	12	[1, 3, 7]	11	FR1	0	R1386T
1490.48	0.0	1521690	STOP	n/a	n/a	n/a	-999	12	[-999, -999, -999]	n/a	FR1	0	R1386T
1490.48	1.183	1521692	DISTRACT_END	n/a	n/a	n/a	-999	12	[0, 0, 0]	n/a	FR1	0	R1386T
1491.663	2.705	1522874	REC_START	n/a	n/a	n/a	-999	12	[0, 0, 0]	n/a	FR1	0	R1386T
1494.368	14.834	1525577	REC_WORD	14.834	n/a	VEST	11	12	[0, 0, 0]	n/a	FR1	0	R1386T
1509.202	12.688	1540411	REC_WORD	12.688	n/a	BENCH	-999	12	[0, 0, 0]	n/a	FR1	0	R1386T
1521.89	0.0	1553100	REC_END	n/a	n/a	n/a	-999	12	[0, 0, 0]	n/a	FR1	0	R1386T
