onset	duration	sample	trial_type	response_time	stim_file	item_name	serialpos	list	test	answer	experiment	session	subject
0.0	147.314	96127	INSTRUCT_START	n/a	n/a	n/a	-999	-999	[0, 0, 0]	n/a	FR1	0	R1459M
147.314	91.382	243425	INSTRUCT_END	n/a	n/a	n/a	-999	-999	[0, 0, 0]	n/a	FR1	0	R1459M
238.696	10.384	334813	COUNTDOWN_START	n/a	n/a	n/a	-999	-999	[0, 0, 0]	n/a	FR1	0	R1459M
249.08	0.0	345188	COUNTDOWN_END	n/a	n/a	n/a	-999	-999	[0, 0, 0]	n/a	FR1	0	R1459M
249.08	2.05	345188	ENCODING_START	n/a	n/a	n/a	-999	-1	[0, 0, 0]	n/a	FR1	0	R1459M
251.13	1.617	347241	WORD	n/a	n/a	CHIN	1	-1	[0, 0, 0]	n/a	FR1	0	R1459M
252.747	0.934	348853	WORD_OFF	n/a	n/a	CHIN	1	-1	[0, 0, 0]	n/a	FR1	0	R1459M
253.681	1.6	349789	WORD	n/a	n/a	FORT	2	-1	[0, 0, 0]	n/a	FR1	0	R1459M
255.281	0.783	351388	WORD_OFF	n/a	n/a	FORT	2	-1	[0, 0, 0]	n/a	FR1	0	R1459M
256.064	1.616	352173	WORD	n/a	n/a	BOOT	3	-1	[0, 0, 0]	n/a	FR1	0	R1459M
257.68	0.917	353785	WORD_OFF	n/a	n/a	BOOT	3	-1	[0, 0, 0]	n/a	FR1	0	R1459M
258.597	1.6	354708	WORD	n/a	n/a	STEM	4	-1	[0, 0, 0]	n/a	FR1	0	R1459M
260.197	0.983	356306	WORD_OFF	n/a	n/a	STEM	4	-1	[0, 0, 0]	n/a	FR1	0	R1459M
261.18	1.6	357285	WORD	n/a	n/a	PIT	5	-1	[0, 0, 0]	n/a	FR1	0	R1459M
262.78	0.817	358897	WORD_OFF	n/a	n/a	PIT	5	-1	[0, 0, 0]	n/a	FR1	0	R1459M
263.597	1.6	359709	WORD	n/a	n/a	BROOK	6	-1	[0, 0, 0]	n/a	FR1	0	R1459M
265.197	0.982	361308	WORD_OFF	n/a	n/a	BROOK	6	-1	[0, 0, 0]	n/a	FR1	0	R1459M
266.179	1.601	362286	WORD	n/a	n/a	WOOD	7	-1	[0, 0, 0]	n/a	FR1	0	R1459M
267.78	0.916	363884	WORD_OFF	n/a	n/a	WOOD	7	-1	[0, 0, 0]	n/a	FR1	0	R1459M
268.696	1.6	364807	WORD	n/a	n/a	TENT	8	-1	[0, 0, 0]	n/a	FR1	0	R1459M
270.296	0.901	366405	WORD_OFF	n/a	n/a	TENT	8	-1	[0, 0, 0]	n/a	FR1	0	R1459M
271.197	1.616	367301	WORD	n/a	n/a	FROG	9	-1	[0, 0, 0]	n/a	FR1	0	R1459M
272.813	0.8	368927	WORD_OFF	n/a	n/a	FROG	9	-1	[0, 0, 0]	n/a	FR1	0	R1459M
273.613	1.6	369726	WORD	n/a	n/a	DITCH	10	-1	[0, 0, 0]	n/a	FR1	0	R1459M
275.213	0.967	371324	WORD_OFF	n/a	n/a	DITCH	10	-1	[0, 0, 0]	n/a	FR1	0	R1459M
276.18	1.6	372289	WORD	n/a	n/a	POOL	11	-1	[0, 0, 0]	n/a	FR1	0	R1459M
277.78	0.867	373887	WORD_OFF	n/a	n/a	POOL	11	-1	[0, 0, 0]	n/a	FR1	0	R1459M
278.647	1.616	374755	WORD	n/a	n/a	ARCH	12	-1	[0, 0, 0]	n/a	FR1	0	R1459M
280.263	0.002	376367	WORD_OFF	n/a	n/a	ARCH	12	-1	[0, 0, 0]	n/a	FR1	0	R1459M
280.265	0.0	376375	START	n/a	n/a	n/a	-999	-1	[-999, -999, -999]	n/a	FR1	0	R1459M
280.265	0.0	376375	PROB	0.0	n/a	n/a	-999	-1	[7, 1, 2]	10	FR1	0	R1459M
280.265	0.0	376381	ENCODING_END	n/a	n/a	n/a	-999	-1	[0, 0, 0]	n/a	FR1	0	R1459M
280.265	8.199	376381	DISTRACT_START	n/a	n/a	n/a	-999	-1	[0, 0, 0]	n/a	FR1	0	R1459M
288.464	2.8	384574	PROB	2.8	n/a	n/a	-999	-1	[8, 2, 1]	11	FR1	0	R1459M
291.264	5.833	387374	PROB	5.833	n/a	n/a	-999	-1	[4, 3, 8]	15	FR1	0	R1459M
297.097	3.283	393206	PROB	3.283	n/a	n/a	-999	-1	[2, 7, 3]	12	FR1	0	R1459M
300.38	0.0	396482	DISTRACT_END	n/a	n/a	n/a	-999	-1	[0, 0, 0]	n/a	FR1	0	R1459M
300.38	1.183	396489	STOP	n/a	n/a	n/a	-999	-1	[-999, -999, -999]	n/a	FR1	0	R1459M
301.563	0.193	397667	REC_START	n/a	n/a	n/a	-999	-1	[0, 0, 0]	n/a	FR1	0	R1459M
301.756	0.745	397865	REC_WORD	0.745	n/a	CHIN	1	-1	[0, 0, 0]	n/a	FR1	0	R1459M
302.501	1.071	398610	REC_WORD	1.071	n/a	FORT	2	-1	[0, 0, 0]	n/a	FR1	0	R1459M
303.572	0.927	399681	REC_WORD	0.927	n/a	ARCH	12	-1	[0, 0, 0]	n/a	FR1	0	R1459M
304.499	0.865	400608	REC_WORD	0.865	n/a	BROOK	6	-1	[0, 0, 0]	n/a	FR1	0	R1459M
305.364	10.968	401473	REC_WORD	10.968	n/a	PIT	5	-1	[0, 0, 0]	n/a	FR1	0	R1459M
316.332	16.484	412441	REC_WORD	16.484	n/a	FORT	2	-1	[0, 0, 0]	n/a	FR1	0	R1459M
332.816	16.897	428929	REC_END	n/a	n/a	n/a	-999	-1	[0, 0, 0]	n/a	FR1	0	R1459M
349.713	10.352	445820	COUNTDOWN_START	n/a	n/a	n/a	-999	1	[0, 0, 0]	n/a	FR1	0	R1459M
360.065	0.0	456168	COUNTDOWN_END	n/a	n/a	n/a	-999	1	[0, 0, 0]	n/a	FR1	0	R1459M
360.065	2.314	456168	ENCODING_START	n/a	n/a	n/a	-999	1	[0, 0, 0]	n/a	FR1	0	R1459M
362.379	1.601	458482	WORD	n/a	wordpools/wordpool_long_EN.txt	BLADE	1	1	[0, 0, 0]	n/a	FR1	0	R1459M
363.98	0.933	460080	WORD_OFF	n/a	n/a	BLADE	1	1	[0, 0, 0]	n/a	FR1	0	R1459M
364.913	1.617	461017	WORD	n/a	wordpools/wordpool_long_EN.txt	DART	2	1	[0, 0, 0]	n/a	FR1	0	R1459M
366.53	0.967	462629	WORD_OFF	n/a	n/a	DART	2	1	[0, 0, 0]	n/a	FR1	0	R1459M
367.497	1.616	463608	WORD	n/a	wordpools/wordpool_long_EN.txt	BRUSH	3	1	[0, 0, 0]	n/a	FR1	0	R1459M
369.113	0.9	465220	WORD_OFF	n/a	n/a	BRUSH	3	1	[0, 0, 0]	n/a	FR1	0	R1459M
370.013	1.617	466115	WORD	n/a	wordpools/wordpool_long_EN.txt	BOMB	4	1	[0, 0, 0]	n/a	FR1	0	R1459M
371.63	0.832	467741	WORD_OFF	n/a	n/a	BOMB	4	1	[0, 0, 0]	n/a	FR1	0	R1459M
372.462	1.603	468568	WORD	n/a	wordpools/wordpool_long_EN.txt	SLUSH	5	1	[0, 0, 0]	n/a	FR1	0	R1459M
374.065	0.947	470166	WORD_OFF	n/a	n/a	SLUSH	5	1	[0, 0, 0]	n/a	FR1	0	R1459M
375.012	1.618	471116	WORD	n/a	wordpools/wordpool_long_EN.txt	HEDGE	6	1	[0, 0, 0]	n/a	FR1	0	R1459M
376.63	0.917	472742	WORD_OFF	n/a	n/a	HEDGE	6	1	[0, 0, 0]	n/a	FR1	0	R1459M
377.547	1.616	473652	WORD	n/a	wordpools/wordpool_long_EN.txt	CORD	7	1	[0, 0, 0]	n/a	FR1	0	R1459M
379.163	0.834	475264	WORD_OFF	n/a	n/a	CORD	7	1	[0, 0, 0]	n/a	FR1	0	R1459M
379.997	1.6	476104	WORD	n/a	wordpools/wordpool_long_EN.txt	SNACK	8	1	[0, 0, 0]	n/a	FR1	0	R1459M
381.597	0.816	477702	WORD_OFF	n/a	n/a	SNACK	8	1	[0, 0, 0]	n/a	FR1	0	R1459M
382.413	1.6	478515	WORD	n/a	wordpools/wordpool_long_EN.txt	FACE	9	1	[0, 0, 0]	n/a	FR1	0	R1459M
384.013	0.983	480113	WORD_OFF	n/a	n/a	FACE	9	1	[0, 0, 0]	n/a	FR1	0	R1459M
384.996	1.601	481105	WORD	n/a	wordpools/wordpool_long_EN.txt	BAT	10	1	[0, 0, 0]	n/a	FR1	0	R1459M
386.597	0.916	482704	WORD_OFF	n/a	n/a	BAT	10	1	[0, 0, 0]	n/a	FR1	0	R1459M
387.513	1.6	483613	WORD	n/a	wordpools/wordpool_long_EN.txt	SMOG	11	1	[0, 0, 0]	n/a	FR1	0	R1459M
389.113	0.867	485225	WORD_OFF	n/a	n/a	SMOG	11	1	[0, 0, 0]	n/a	FR1	0	R1459M
389.98	1.617	486079	WORD	n/a	wordpools/wordpool_long_EN.txt	SEA	12	1	[0, 0, 0]	n/a	FR1	0	R1459M
391.597	0.001	487702	PROB	0.001	n/a	n/a	-999	1	[7, 8, 7]	22	FR1	0	R1459M
391.598	0.0	487703	START	n/a	n/a	n/a	-999	1	[-999, -999, -999]	n/a	FR1	0	R1459M
391.597	0.001	487705	WORD_OFF	n/a	n/a	SEA	12	1	[0, 0, 0]	n/a	FR1	0	R1459M
391.598	0.0	487705	ENCODING_END	n/a	n/a	n/a	-999	1	[0, 0, 0]	n/a	FR1	0	R1459M
391.598	3.998	487705	DISTRACT_START	n/a	n/a	n/a	-999	1	[0, 0, 0]	n/a	FR1	0	R1459M
395.596	3.951	491701	PROB	3.951	n/a	n/a	-999	1	[2, 5, 3]	9	FR1	0	R1459M
399.547	6.284	495652	PROB	6.284	n/a	n/a	-999	1	[2, 6, 8]	16	FR1	0	R1459M
405.831	5.132	501935	PROB	5.132	n/a	n/a	-999	1	[3, 5, 4]	1	FR1	0	R1459M
410.963	8.0	507067	PROB	8.0	n/a	n/a	-999	1	[8, 6, 6]	20	FR1	0	R1459M
418.963	0.0	515067	STOP	n/a	n/a	n/a	-999	1	[-999, -999, -999]	n/a	FR1	0	R1459M
418.963	1.133	515068	DISTRACT_END	n/a	n/a	n/a	-999	1	[0, 0, 0]	n/a	FR1	0	R1459M
420.096	2.82	516197	REC_START	n/a	n/a	n/a	-999	1	[0, 0, 0]	n/a	FR1	0	R1459M
422.916	1.392	519020	REC_WORD	1.392	n/a	BLADE	1	1	[0, 0, 0]	n/a	FR1	0	R1459M
424.308	4.953	520412	REC_WORD	4.953	n/a	BAT	10	1	[0, 0, 0]	n/a	FR1	0	R1459M
429.261	12.161	525364	REC_WORD	12.161	n/a	DASH	-999	1	[0, 0, 0]	n/a	FR1	0	R1459M
441.422	2.823	537525	REC_WORD	2.823	n/a	DART	2	1	[0, 0, 0]	n/a	FR1	0	R1459M
444.245	7.082	540348	REC_WORD_VV	7.082	n/a	<>	-999	1	[0, 0, 0]	n/a	FR1	0	R1459M
451.327	8.337	547431	REC_END	n/a	n/a	n/a	-999	1	[0, 0, 0]	n/a	FR1	0	R1459M
459.664	10.35	555767	COUNTDOWN_START	n/a	n/a	n/a	-999	1	[0, 0, 0]	n/a	FR1	0	R1459M
470.014	0.0	566114	COUNTDOWN_END	n/a	n/a	n/a	-999	1	[0, 0, 0]	n/a	FR1	0	R1459M
470.014	1.883	566114	ENCODING_START	n/a	n/a	n/a	-999	2	[0, 0, 0]	n/a	FR1	0	R1459M
471.897	1.6	568002	WORD	n/a	wordpools/wordpool_long_EN.txt	PALM	1	2	[0, 0, 0]	n/a	FR1	0	R1459M
473.497	0.783	569600	WORD_OFF	n/a	n/a	PALM	1	2	[0, 0, 0]	n/a	FR1	0	R1459M
474.28	1.6	570385	WORD	n/a	wordpools/wordpool_long_EN.txt	TRIBE	2	2	[0, 0, 0]	n/a	FR1	0	R1459M
475.88	0.8	571983	WORD_OFF	n/a	n/a	TRIBE	2	2	[0, 0, 0]	n/a	FR1	0	R1459M
476.68	1.6	572783	WORD	n/a	wordpools/wordpool_long_EN.txt	SPONGE	3	2	[0, 0, 0]	n/a	FR1	0	R1459M
478.28	0.984	574381	WORD_OFF	n/a	n/a	SPONGE	3	2	[0, 0, 0]	n/a	FR1	0	R1459M
479.264	1.599	575359	WORD	n/a	wordpools/wordpool_long_EN.txt	SOCK	4	2	[0, 0, 0]	n/a	FR1	0	R1459M
480.863	0.767	576957	WORD_OFF	n/a	n/a	SOCK	4	2	[0, 0, 0]	n/a	FR1	0	R1459M
481.63	1.616	577729	WORD	n/a	wordpools/wordpool_long_EN.txt	PERCH	5	2	[0, 0, 0]	n/a	FR1	0	R1459M
483.246	0.851	579341	WORD_OFF	n/a	n/a	PERCH	5	2	[0, 0, 0]	n/a	FR1	0	R1459M
484.097	1.6	580195	WORD	n/a	wordpools/wordpool_long_EN.txt	STORM	6	2	[0, 0, 0]	n/a	FR1	0	R1459M
485.697	0.95	581793	WORD_OFF	n/a	n/a	STORM	6	2	[0, 0, 0]	n/a	FR1	0	R1459M
486.647	1.6	582744	WORD	n/a	wordpools/wordpool_long_EN.txt	PET	7	2	[0, 0, 0]	n/a	FR1	0	R1459M
488.247	0.766	584342	WORD_OFF	n/a	n/a	PET	7	2	[0, 0, 0]	n/a	FR1	0	R1459M
489.013	1.6	585114	WORD	n/a	wordpools/wordpool_long_EN.txt	CRANE	8	2	[0, 0, 0]	n/a	FR1	0	R1459M
490.613	0.9	586712	WORD_OFF	n/a	n/a	CRANE	8	2	[0, 0, 0]	n/a	FR1	0	R1459M
491.513	1.617	587607	WORD	n/a	wordpools/wordpool_long_EN.txt	BARN	9	2	[0, 0, 0]	n/a	FR1	0	R1459M
493.13	0.983	589233	WORD_OFF	n/a	n/a	BARN	9	2	[0, 0, 0]	n/a	FR1	0	R1459M
494.113	1.6	590211	WORD	n/a	wordpools/wordpool_long_EN.txt	THRONE	10	2	[0, 0, 0]	n/a	FR1	0	R1459M
495.713	0.784	591810	WORD_OFF	n/a	n/a	THRONE	10	2	[0, 0, 0]	n/a	FR1	0	R1459M
496.497	1.6	592595	WORD	n/a	wordpools/wordpool_long_EN.txt	BEEF	11	2	[0, 0, 0]	n/a	FR1	0	R1459M
498.097	0.866	594193	WORD_OFF	n/a	n/a	BEEF	11	2	[0, 0, 0]	n/a	FR1	0	R1459M
498.963	1.6	595061	WORD	n/a	wordpools/wordpool_long_EN.txt	FLAG	12	2	[0, 0, 0]	n/a	FR1	0	R1459M
500.563	0.002	596659	WORD_OFF	n/a	n/a	FLAG	12	2	[0, 0, 0]	n/a	FR1	0	R1459M
500.565	0.0	596659	ENCODING_END	n/a	n/a	n/a	-999	2	[0, 0, 0]	n/a	FR1	0	R1459M
500.565	0.0	596659	DISTRACT_START	n/a	n/a	n/a	-999	2	[0, 0, 0]	n/a	FR1	0	R1459M
500.564	0.001	596664	PROB	0.001	n/a	n/a	-999	2	[6, 8, 8]	22	FR1	0	R1459M
500.565	5.198	596665	START	n/a	n/a	n/a	-999	2	[-999, -999, -999]	n/a	FR1	0	R1459M
505.763	4.268	601863	PROB	4.268	n/a	n/a	-999	2	[3, 3, 8]	14	FR1	0	R1459M
510.031	4.916	606131	PROB	4.916	n/a	n/a	-999	2	[2, 7, 2]	11	FR1	0	R1459M
514.947	3.567	611047	PROB	3.567	n/a	n/a	-999	2	[3, 3, 6]	12	FR1	0	R1459M
518.514	4.716	614613	PROB	4.716	n/a	n/a	-999	2	[7, 1, 5]	13	FR1	0	R1459M
523.23	0.0	619324	DISTRACT_END	n/a	n/a	n/a	-999	2	[0, 0, 0]	n/a	FR1	0	R1459M
523.23	1.266	619329	STOP	n/a	n/a	n/a	-999	2	[-999, -999, -999]	n/a	FR1	0	R1459M
524.496	2.594	620591	REC_START	n/a	n/a	n/a	-999	2	[0, 0, 0]	n/a	FR1	0	R1459M
527.09	0.977	623189	REC_WORD	0.977	n/a	PALM	1	2	[0, 0, 0]	n/a	FR1	0	R1459M
528.067	4.227	624166	REC_WORD	4.227	n/a	THRONE	10	2	[0, 0, 0]	n/a	FR1	0	R1459M
532.294	2.467	628393	REC_WORD	2.467	n/a	BEACH	-999	2	[0, 0, 0]	n/a	FR1	0	R1459M
534.761	20.974	630860	REC_WORD	20.974	n/a	PERCH	5	2	[0, 0, 0]	n/a	FR1	0	R1459M
555.735	23.128	651826	REC_END	n/a	n/a	n/a	-999	2	[0, 0, 0]	n/a	FR1	0	R1459M
578.863	10.351	674958	COUNTDOWN_START	n/a	n/a	n/a	-999	2	[0, 0, 0]	n/a	FR1	0	R1459M
589.214	0.0	685306	COUNTDOWN_END	n/a	n/a	n/a	-999	2	[0, 0, 0]	n/a	FR1	0	R1459M
589.214	2.316	685306	ENCODING_START	n/a	n/a	n/a	-999	3	[0, 0, 0]	n/a	FR1	0	R1459M
591.53	1.6	687620	WORD	n/a	wordpools/wordpool_long_EN.txt	MUG	1	3	[0, 0, 0]	n/a	FR1	0	R1459M
593.13	1.0	689232	WORD_OFF	n/a	n/a	MUG	1	3	[0, 0, 0]	n/a	FR1	0	R1459M
594.13	1.6	690224	WORD	n/a	wordpools/wordpool_long_EN.txt	HOOK	2	3	[0, 0, 0]	n/a	FR1	0	R1459M
595.73	0.95	691822	WORD_OFF	n/a	n/a	HOOK	2	3	[0, 0, 0]	n/a	FR1	0	R1459M
596.68	1.6	692773	WORD	n/a	wordpools/wordpool_long_EN.txt	PLANT	3	3	[0, 0, 0]	n/a	FR1	0	R1459M
598.28	1.0	694371	WORD_OFF	n/a	n/a	PLANT	3	3	[0, 0, 0]	n/a	FR1	0	R1459M
599.28	1.6	695377	WORD	n/a	wordpools/wordpool_long_EN.txt	CASH	4	3	[0, 0, 0]	n/a	FR1	0	R1459M
600.88	0.767	696975	WORD_OFF	n/a	n/a	CASH	4	3	[0, 0, 0]	n/a	FR1	0	R1459M
601.647	1.616	697747	WORD	n/a	wordpools/wordpool_long_EN.txt	FRIEND	5	3	[0, 0, 0]	n/a	FR1	0	R1459M
603.263	0.967	699359	WORD_OFF	n/a	n/a	FRIEND	5	3	[0, 0, 0]	n/a	FR1	0	R1459M
604.23	1.6	700323	WORD	n/a	wordpools/wordpool_long_EN.txt	SHIP	6	3	[0, 0, 0]	n/a	FR1	0	R1459M
605.83	0.933	701922	WORD_OFF	n/a	n/a	SHIP	6	3	[0, 0, 0]	n/a	FR1	0	R1459M
606.763	1.6	702858	WORD	n/a	wordpools/wordpool_long_EN.txt	HEART	7	3	[0, 0, 0]	n/a	FR1	0	R1459M
608.363	0.9	704457	WORD_OFF	n/a	n/a	HEART	7	3	[0, 0, 0]	n/a	FR1	0	R1459M
609.263	1.616	705352	WORD	n/a	wordpools/wordpool_long_EN.txt	LEAF	8	3	[0, 0, 0]	n/a	FR1	0	R1459M
610.879	0.95	706978	WORD_OFF	n/a	n/a	LEAF	8	3	[0, 0, 0]	n/a	FR1	0	R1459M
611.829	1.601	707929	WORD	n/a	wordpools/wordpool_long_EN.txt	SPRING	9	3	[0, 0, 0]	n/a	FR1	0	R1459M
613.43	0.917	709527	WORD_OFF	n/a	n/a	SPRING	9	3	[0, 0, 0]	n/a	FR1	0	R1459M
614.347	1.616	710436	WORD	n/a	wordpools/wordpool_long_EN.txt	DRINK	10	3	[0, 0, 0]	n/a	FR1	0	R1459M
615.963	0.767	712062	WORD_OFF	n/a	n/a	DRINK	10	3	[0, 0, 0]	n/a	FR1	0	R1459M
616.73	1.6	712820	WORD	n/a	wordpools/wordpool_long_EN.txt	TART	11	3	[0, 0, 0]	n/a	FR1	0	R1459M
618.33	0.85	714418	WORD_OFF	n/a	n/a	TART	11	3	[0, 0, 0]	n/a	FR1	0	R1459M
619.18	1.616	715272	WORD	n/a	wordpools/wordpool_long_EN.txt	PLATE	12	3	[0, 0, 0]	n/a	FR1	0	R1459M
620.796	0.001	716884	WORD_OFF	n/a	n/a	PLATE	12	3	[0, 0, 0]	n/a	FR1	0	R1459M
620.797	0.001	716892	PROB	0.001	n/a	n/a	-999	3	[4, 5, 6]	15	FR1	0	R1459M
620.798	0.0	716893	START	n/a	n/a	n/a	-999	3	[-999, -999, -999]	n/a	FR1	0	R1459M
620.798	0.0	716898	ENCODING_END	n/a	n/a	n/a	-999	3	[0, 0, 0]	n/a	FR1	0	R1459M
620.798	5.232	716898	DISTRACT_START	n/a	n/a	n/a	-999	3	[0, 0, 0]	n/a	FR1	0	R1459M
626.03	3.551	722124	PROB	3.551	n/a	n/a	-999	3	[3, 2, 7]	11	FR1	0	R1459M
629.581	8.516	725675	PROB	8.516	n/a	n/a	-999	3	[1, 1, 6]	8	FR1	0	R1459M
638.097	2.483	734191	PROB	2.483	n/a	n/a	-999	3	[2, 2, 1]	5	FR1	0	R1459M
640.58	3.649	736674	PROB	3.649	n/a	n/a	-999	3	[5, 4, 6]	15	FR1	0	R1459M
644.229	0.0	740320	DISTRACT_END	n/a	n/a	n/a	-999	3	[0, 0, 0]	n/a	FR1	0	R1459M
644.229	1.284	740323	STOP	n/a	n/a	n/a	-999	3	[-999, -999, -999]	n/a	FR1	0	R1459M
645.513	0.818	741602	REC_START	n/a	n/a	n/a	-999	3	[0, 0, 0]	n/a	FR1	0	R1459M
646.331	1.354	742425	REC_WORD	1.354	n/a	MUG	1	3	[0, 0, 0]	n/a	FR1	0	R1459M
647.685	1.194	743778	REC_WORD	1.194	n/a	ART	-999	3	[0, 0, 0]	n/a	FR1	0	R1459M
648.879	0.927	744972	REC_WORD	0.927	n/a	LEAF	8	3	[0, 0, 0]	n/a	FR1	0	R1459M
649.806	1.433	745899	REC_WORD	1.433	n/a	FRIEND	5	3	[0, 0, 0]	n/a	FR1	0	R1459M
651.239	2.342	747332	REC_WORD	2.342	n/a	CASH	4	3	[0, 0, 0]	n/a	FR1	0	R1459M
653.581	23.205	749674	REC_WORD	23.205	n/a	HOOK	2	3	[0, 0, 0]	n/a	FR1	0	R1459M
676.786	3.911	772877	REC_END	n/a	n/a	n/a	-999	3	[0, 0, 0]	n/a	FR1	0	R1459M
680.697	10.35	776790	COUNTDOWN_START	n/a	n/a	n/a	-999	3	[0, 0, 0]	n/a	FR1	0	R1459M
691.047	0.0	787137	COUNTDOWN_END	n/a	n/a	n/a	-999	3	[0, 0, 0]	n/a	FR1	0	R1459M
691.047	2.283	787137	ENCODING_START	n/a	n/a	n/a	-999	4	[0, 0, 0]	n/a	FR1	0	R1459M
693.33	1.6	789424	WORD	n/a	wordpools/wordpool_long_EN.txt	LUNCH	1	4	[0, 0, 0]	n/a	FR1	0	R1459M
694.93	0.917	791022	WORD_OFF	n/a	n/a	LUNCH	1	4	[0, 0, 0]	n/a	FR1	0	R1459M
695.847	1.616	791932	WORD	n/a	wordpools/wordpool_long_EN.txt	CART	2	4	[0, 0, 0]	n/a	FR1	0	R1459M
697.463	0.833	793557	WORD_OFF	n/a	n/a	CART	2	4	[0, 0, 0]	n/a	FR1	0	R1459M
698.296	1.601	794384	WORD	n/a	wordpools/wordpool_long_EN.txt	SPACE	3	4	[0, 0, 0]	n/a	FR1	0	R1459M
699.897	0.933	795982	WORD_OFF	n/a	n/a	SPACE	3	4	[0, 0, 0]	n/a	FR1	0	R1459M
700.83	1.6	796919	WORD	n/a	wordpools/wordpool_long_EN.txt	QUAIL	4	4	[0, 0, 0]	n/a	FR1	0	R1459M
702.43	0.85	798517	WORD_OFF	n/a	n/a	QUAIL	4	4	[0, 0, 0]	n/a	FR1	0	R1459M
703.28	1.616	799372	WORD	n/a	wordpools/wordpool_long_EN.txt	QUEEN	5	4	[0, 0, 0]	n/a	FR1	0	R1459M
704.896	0.95	800984	WORD_OFF	n/a	n/a	QUEEN	5	4	[0, 0, 0]	n/a	FR1	0	R1459M
705.846	1.601	801934	WORD	n/a	wordpools/wordpool_long_EN.txt	SMOKE	6	4	[0, 0, 0]	n/a	FR1	0	R1459M
707.447	0.832	803533	WORD_OFF	n/a	n/a	SMOKE	6	4	[0, 0, 0]	n/a	FR1	0	R1459M
708.279	1.601	804373	WORD	n/a	wordpools/wordpool_long_EN.txt	LAND	7	4	[0, 0, 0]	n/a	FR1	0	R1459M
709.88	0.9	805971	WORD_OFF	n/a	n/a	LAND	7	4	[0, 0, 0]	n/a	FR1	0	R1459M
710.78	1.6	806867	WORD	n/a	wordpools/wordpool_long_EN.txt	BEAK	8	4	[0, 0, 0]	n/a	FR1	0	R1459M
712.38	1.0	808465	WORD_OFF	n/a	n/a	BEAK	8	4	[0, 0, 0]	n/a	FR1	0	R1459M
713.38	1.6	809471	WORD	n/a	wordpools/wordpool_long_EN.txt	WING	9	4	[0, 0, 0]	n/a	FR1	0	R1459M
714.98	0.85	811069	WORD_OFF	n/a	n/a	WING	9	4	[0, 0, 0]	n/a	FR1	0	R1459M
715.83	1.616	811923	WORD	n/a	wordpools/wordpool_long_EN.txt	COOK	10	4	[0, 0, 0]	n/a	FR1	0	R1459M
717.446	0.784	813535	WORD_OFF	n/a	n/a	COOK	10	4	[0, 0, 0]	n/a	FR1	0	R1459M
718.23	1.617	814321	WORD	n/a	wordpools/wordpool_long_EN.txt	MEAT	11	4	[0, 0, 0]	n/a	FR1	0	R1459M
719.847	0.933	815933	WORD_OFF	n/a	n/a	MEAT	11	4	[0, 0, 0]	n/a	FR1	0	R1459M
720.78	1.6	816869	WORD	n/a	wordpools/wordpool_long_EN.txt	FLEA	12	4	[0, 0, 0]	n/a	FR1	0	R1459M
722.38	0.001	818468	WORD_OFF	n/a	n/a	FLEA	12	4	[0, 0, 0]	n/a	FR1	0	R1459M
722.381	0.0	818468	ENCODING_END	n/a	n/a	n/a	-999	4	[0, 0, 0]	n/a	FR1	0	R1459M
722.381	0.0	818468	DISTRACT_START	n/a	n/a	n/a	-999	4	[0, 0, 0]	n/a	FR1	0	R1459M
722.38	0.001	818470	PROB	0.001	n/a	n/a	-999	4	[3, 3, 6]	12	FR1	0	R1459M
722.381	5.933	818471	START	n/a	n/a	n/a	-999	4	[-999, -999, -999]	n/a	FR1	0	R1459M
728.314	4.566	824404	PROB	4.566	n/a	n/a	-999	4	[3, 8, 8]	19	FR1	0	R1459M
732.88	2.684	828970	PROB	2.684	n/a	n/a	-999	4	[3, 3, 3]	9	FR1	0	R1459M
735.564	4.616	831653	PROB	4.616	n/a	n/a	-999	4	[1, 4, 6]	11	FR1	0	R1459M
740.18	7.749	836269	PROB	7.749	n/a	n/a	-999	4	[7, 6, 7]	20	FR1	0	R1459M
747.929	0.0	844012	DISTRACT_END	n/a	n/a	n/a	-999	4	[0, 0, 0]	n/a	FR1	0	R1459M
747.929	1.384	844018	STOP	n/a	n/a	n/a	-999	4	[-999, -999, -999]	n/a	FR1	0	R1459M
749.313	0.876	845403	REC_START	n/a	n/a	n/a	-999	4	[0, 0, 0]	n/a	FR1	0	R1459M
750.189	0.991	846278	REC_WORD	0.991	n/a	QUAIL	4	4	[0, 0, 0]	n/a	FR1	0	R1459M
751.18	1.012	847269	REC_WORD	1.012	n/a	BEAK	8	4	[0, 0, 0]	n/a	FR1	0	R1459M
752.192	1.078	848281	REC_WORD	1.078	n/a	COOK	10	4	[0, 0, 0]	n/a	FR1	0	R1459M
753.27	0.876	849359	REC_WORD	0.876	n/a	MEAT	11	4	[0, 0, 0]	n/a	FR1	0	R1459M
754.146	1.272	850235	REC_WORD	1.272	n/a	FLEA	12	4	[0, 0, 0]	n/a	FR1	0	R1459M
755.418	1.157	851507	REC_WORD	1.157	n/a	QUEEN	5	4	[0, 0, 0]	n/a	FR1	0	R1459M
756.575	2.884	852664	REC_WORD	2.884	n/a	LAND	7	4	[0, 0, 0]	n/a	FR1	0	R1459M
759.459	21.118	855547	REC_WORD	21.118	n/a	HEART	-999	4	[0, 0, 0]	n/a	FR1	0	R1459M
780.577	5.353	876665	REC_END	n/a	n/a	n/a	-999	4	[0, 0, 0]	n/a	FR1	0	R1459M
785.93	10.35	882025	COUNTDOWN_START	n/a	n/a	n/a	-999	4	[0, 0, 0]	n/a	FR1	0	R1459M
796.28	0.0	892372	COUNTDOWN_END	n/a	n/a	n/a	-999	4	[0, 0, 0]	n/a	FR1	0	R1459M
796.28	2.1	892372	ENCODING_START	n/a	n/a	n/a	-999	5	[0, 0, 0]	n/a	FR1	0	R1459M
798.38	1.6	894466	WORD	n/a	wordpools/wordpool_long_EN.txt	OX	1	5	[0, 0, 0]	n/a	FR1	0	R1459M
799.98	0.866	896064	WORD_OFF	n/a	n/a	OX	1	5	[0, 0, 0]	n/a	FR1	0	R1459M
800.846	1.601	896932	WORD	n/a	wordpools/wordpool_long_EN.txt	SLIDE	2	5	[0, 0, 0]	n/a	FR1	0	R1459M
802.447	0.949	898530	WORD_OFF	n/a	n/a	SLIDE	2	5	[0, 0, 0]	n/a	FR1	0	R1459M
803.396	1.617	899481	WORD	n/a	wordpools/wordpool_long_EN.txt	FOOD	3	5	[0, 0, 0]	n/a	FR1	0	R1459M
805.013	0.934	901093	WORD_OFF	n/a	n/a	FOOD	3	5	[0, 0, 0]	n/a	FR1	0	R1459M
805.947	1.6	902030	WORD	n/a	wordpools/wordpool_long_EN.txt	ROOT	4	5	[0, 0, 0]	n/a	FR1	0	R1459M
807.547	0.766	903628	WORD_OFF	n/a	n/a	ROOT	4	5	[0, 0, 0]	n/a	FR1	0	R1459M
808.313	1.617	904400	WORD	n/a	wordpools/wordpool_long_EN.txt	KEY	5	5	[0, 0, 0]	n/a	FR1	0	R1459M
809.93	0.916	906012	WORD_OFF	n/a	n/a	KEY	5	5	[0, 0, 0]	n/a	FR1	0	R1459M
810.846	1.6	906935	WORD	n/a	wordpools/wordpool_long_EN.txt	GLOVE	6	5	[0, 0, 0]	n/a	FR1	0	R1459M
812.446	0.9	908533	WORD_OFF	n/a	n/a	GLOVE	6	5	[0, 0, 0]	n/a	FR1	0	R1459M
813.346	1.6	909428	WORD	n/a	wordpools/wordpool_long_EN.txt	LINT	7	5	[0, 0, 0]	n/a	FR1	0	R1459M
814.946	0.967	911027	WORD_OFF	n/a	n/a	LINT	7	5	[0, 0, 0]	n/a	FR1	0	R1459M
815.913	1.6	911991	WORD	n/a	wordpools/wordpool_long_EN.txt	EEL	8	5	[0, 0, 0]	n/a	FR1	0	R1459M
817.513	0.883	913603	WORD_OFF	n/a	n/a	EEL	8	5	[0, 0, 0]	n/a	FR1	0	R1459M
818.396	1.617	914485	WORD	n/a	wordpools/wordpool_long_EN.txt	PEA	9	5	[0, 0, 0]	n/a	FR1	0	R1459M
820.013	0.9	916097	WORD_OFF	n/a	n/a	PEA	9	5	[0, 0, 0]	n/a	FR1	0	R1459M
820.913	1.616	916992	WORD	n/a	wordpools/wordpool_long_EN.txt	SNAKE	10	5	[0, 0, 0]	n/a	FR1	0	R1459M
822.529	0.833	918618	WORD_OFF	n/a	n/a	SNAKE	10	5	[0, 0, 0]	n/a	FR1	0	R1459M
823.362	1.602	919445	WORD	n/a	wordpools/wordpool_long_EN.txt	RUG	11	5	[0, 0, 0]	n/a	FR1	0	R1459M
824.964	0.883	921043	WORD_OFF	n/a	n/a	RUG	11	5	[0, 0, 0]	n/a	FR1	0	R1459M
825.847	1.6	921925	WORD	n/a	wordpools/wordpool_long_EN.txt	CHURCH	12	5	[0, 0, 0]	n/a	FR1	0	R1459M
827.447	0.001	923532	PROB	0.001	n/a	n/a	-999	5	[5, 4, 3]	12	FR1	0	R1459M
827.448	0.0	923533	START	n/a	n/a	n/a	-999	5	[-999, -999, -999]	n/a	FR1	0	R1459M
827.446	0.002	923537	WORD_OFF	n/a	n/a	CHURCH	12	5	[0, 0, 0]	n/a	FR1	0	R1459M
827.448	0.0	923537	ENCODING_END	n/a	n/a	n/a	-999	5	[0, 0, 0]	n/a	FR1	0	R1459M
827.448	4.515	923537	DISTRACT_START	n/a	n/a	n/a	-999	5	[0, 0, 0]	n/a	FR1	0	R1459M
831.963	6.267	928048	PROB	6.267	n/a	n/a	-999	5	[5, 4, 7]	16	FR1	0	R1459M
838.23	7.283	934315	PROB	7.283	n/a	n/a	-999	5	[3, 1, 6]	10	FR1	0	R1459M
845.513	3.416	941598	PROB	3.416	n/a	n/a	-999	5	[2, 8, 1]	11	FR1	0	R1459M
848.929	0.0	945013	STOP	n/a	n/a	n/a	-999	5	[-999, -999, -999]	n/a	FR1	0	R1459M
848.929	1.217	945016	DISTRACT_END	n/a	n/a	n/a	-999	5	[0, 0, 0]	n/a	FR1	0	R1459M
850.146	1.176	946229	REC_START	n/a	n/a	n/a	-999	5	[0, 0, 0]	n/a	FR1	0	R1459M
851.322	0.882	947406	REC_WORD	0.882	n/a	OX	1	5	[0, 0, 0]	n/a	FR1	0	R1459M
852.204	0.964	948288	REC_WORD	0.964	n/a	LINT	7	5	[0, 0, 0]	n/a	FR1	0	R1459M
853.168	2.896	949252	REC_WORD	2.896	n/a	EEL	8	5	[0, 0, 0]	n/a	FR1	0	R1459M
856.064	3.001	952148	REC_WORD	3.001	n/a	SLIDE	2	5	[0, 0, 0]	n/a	FR1	0	R1459M
859.065	22.337	955149	REC_WORD	22.337	n/a	CHURCH	12	5	[0, 0, 0]	n/a	FR1	0	R1459M
881.402	5.128	977477	REC_END	n/a	n/a	n/a	-999	5	[0, 0, 0]	n/a	FR1	0	R1459M
886.53	10.35	982616	COUNTDOWN_START	n/a	n/a	n/a	-999	5	[0, 0, 0]	n/a	FR1	0	R1459M
896.88	0.0	992963	COUNTDOWN_END	n/a	n/a	n/a	-999	5	[0, 0, 0]	n/a	FR1	0	R1459M
896.88	2.15	992963	ENCODING_START	n/a	n/a	n/a	-999	6	[0, 0, 0]	n/a	FR1	0	R1459M
899.03	1.6	995112	WORD	n/a	wordpools/wordpool_long_EN.txt	GRILL	1	6	[0, 0, 0]	n/a	FR1	0	R1459M
900.63	0.817	996711	WORD_OFF	n/a	n/a	GRILL	1	6	[0, 0, 0]	n/a	FR1	0	R1459M
901.447	1.6	997524	WORD	n/a	wordpools/wordpool_long_EN.txt	MAIL	2	6	[0, 0, 0]	n/a	FR1	0	R1459M
903.047	0.95	999122	WORD_OFF	n/a	n/a	MAIL	2	6	[0, 0, 0]	n/a	FR1	0	R1459M
903.997	1.6	1000072	WORD	n/a	wordpools/wordpool_long_EN.txt	JAR	3	6	[0, 0, 0]	n/a	FR1	0	R1459M
905.597	0.883	1001684	WORD_OFF	n/a	n/a	JAR	3	6	[0, 0, 0]	n/a	FR1	0	R1459M
906.48	1.6	1002566	WORD	n/a	wordpools/wordpool_long_EN.txt	SUIT	4	6	[0, 0, 0]	n/a	FR1	0	R1459M
908.08	0.933	1004164	WORD_OFF	n/a	n/a	SUIT	4	6	[0, 0, 0]	n/a	FR1	0	R1459M
909.013	1.616	1005101	WORD	n/a	wordpools/wordpool_long_EN.txt	HOOF	5	6	[0, 0, 0]	n/a	FR1	0	R1459M
910.629	0.917	1006713	WORD_OFF	n/a	n/a	HOOF	5	6	[0, 0, 0]	n/a	FR1	0	R1459M
911.546	1.6	1007623	WORD	n/a	wordpools/wordpool_long_EN.txt	FLAME	6	6	[0, 0, 0]	n/a	FR1	0	R1459M
913.146	0.9	1009221	WORD_OFF	n/a	n/a	FLAME	6	6	[0, 0, 0]	n/a	FR1	0	R1459M
914.046	1.601	1010130	WORD	n/a	wordpools/wordpool_long_EN.txt	GEESE	7	6	[0, 0, 0]	n/a	FR1	0	R1459M
915.647	0.95	1011728	WORD_OFF	n/a	n/a	GEESE	7	6	[0, 0, 0]	n/a	FR1	0	R1459M
916.597	1.6	1012679	WORD	n/a	wordpools/wordpool_long_EN.txt	CHEST	8	6	[0, 0, 0]	n/a	FR1	0	R1459M
918.197	0.766	1014277	WORD_OFF	n/a	n/a	CHEST	8	6	[0, 0, 0]	n/a	FR1	0	R1459M
918.963	1.617	1015049	WORD	n/a	wordpools/wordpool_long_EN.txt	INK	9	6	[0, 0, 0]	n/a	FR1	0	R1459M
920.58	0.883	1016661	WORD_OFF	n/a	n/a	INK	9	6	[0, 0, 0]	n/a	FR1	0	R1459M
921.463	1.617	1017543	WORD	n/a	wordpools/wordpool_long_EN.txt	WIFE	10	6	[0, 0, 0]	n/a	FR1	0	R1459M
923.08	0.949	1019155	WORD_OFF	n/a	n/a	WIFE	10	6	[0, 0, 0]	n/a	FR1	0	R1459M
924.029	1.601	1020105	WORD	n/a	wordpools/wordpool_long_EN.txt	SWORD	11	6	[0, 0, 0]	n/a	FR1	0	R1459M
925.63	0.832	1021703	WORD_OFF	n/a	n/a	SWORD	11	6	[0, 0, 0]	n/a	FR1	0	R1459M
926.462	1.601	1022544	WORD	n/a	wordpools/wordpool_long_EN.txt	BOX	12	6	[0, 0, 0]	n/a	FR1	0	R1459M
928.063	0.002	1024142	WORD_OFF	n/a	n/a	BOX	12	6	[0, 0, 0]	n/a	FR1	0	R1459M
928.065	0.0	1024142	ENCODING_END	n/a	n/a	n/a	-999	6	[0, 0, 0]	n/a	FR1	0	R1459M
928.065	0.0	1024142	DISTRACT_START	n/a	n/a	n/a	-999	6	[0, 0, 0]	n/a	FR1	0	R1459M
928.064	0.001	1024145	PROB	0.001	n/a	n/a	-999	6	[8, 3, 1]	12	FR1	0	R1459M
928.065	9.348	1024146	START	n/a	n/a	n/a	-999	6	[-999, -999, -999]	n/a	FR1	0	R1459M
937.413	5.15	1033493	PROB	5.15	n/a	n/a	-999	6	[5, 2, 7]	14	FR1	0	R1459M
942.563	13.3	1038643	PROB	13.3	n/a	n/a	-999	6	[8, 5, 6]	19	FR1	0	R1459M
955.863	0.0	1051942	STOP	n/a	n/a	n/a	-999	6	[-999, -999, -999]	n/a	FR1	0	R1459M
955.863	1.233	1051946	DISTRACT_END	n/a	n/a	n/a	-999	6	[0, 0, 0]	n/a	FR1	0	R1459M
957.096	3.117	1053172	REC_START	n/a	n/a	n/a	-999	6	[0, 0, 0]	n/a	FR1	0	R1459M
960.213	1.082	1056292	REC_WORD	1.082	n/a	GRILL	1	6	[0, 0, 0]	n/a	FR1	0	R1459M
961.295	1.019	1057374	REC_WORD	1.019	n/a	HOOF	5	6	[0, 0, 0]	n/a	FR1	0	R1459M
962.314	5.673	1058393	REC_WORD	5.673	n/a	WIFE	10	6	[0, 0, 0]	n/a	FR1	0	R1459M
967.987	2.227	1064066	REC_WORD_VV	2.227	n/a	<>	-999	6	[0, 0, 0]	n/a	FR1	0	R1459M
970.214	0.705	1066293	REC_WORD	0.705	n/a	MAIL	2	6	[0, 0, 0]	n/a	FR1	0	R1459M
970.919	0.491	1066998	REC_WORD_VV	0.491	n/a	<>	-999	6	[0, 0, 0]	n/a	FR1	0	R1459M
971.41	0.217	1067489	REC_WORD	0.217	n/a	MAIL	2	6	[0, 0, 0]	n/a	FR1	0	R1459M
971.627	0.904	1067706	REC_WORD_VV	0.904	n/a	<>	-999	6	[0, 0, 0]	n/a	FR1	0	R1459M
972.531	0.444	1068610	REC_WORD	0.444	n/a	GRILL	1	6	[0, 0, 0]	n/a	FR1	0	R1459M
972.975	0.525	1069054	REC_WORD	0.525	n/a	MAIL	2	6	[0, 0, 0]	n/a	FR1	0	R1459M
973.5	0.842	1069579	REC_WORD	0.842	n/a	WIFE	10	6	[0, 0, 0]	n/a	FR1	0	R1459M
974.342	14.032	1070421	REC_WORD	14.032	n/a	HOOF	5	6	[0, 0, 0]	n/a	FR1	0	R1459M
988.374	6.323	1084447	REC_END	n/a	n/a	n/a	-999	6	[0, 0, 0]	n/a	FR1	0	R1459M
994.697	10.35	1090771	COUNTDOWN_START	n/a	n/a	n/a	-999	6	[0, 0, 0]	n/a	FR1	0	R1459M
1005.047	0.0	1101119	COUNTDOWN_END	n/a	n/a	n/a	-999	6	[0, 0, 0]	n/a	FR1	0	R1459M
1005.047	2.165	1101132	ENCODING_START	n/a	n/a	n/a	-999	7	[0, 0, 0]	n/a	FR1	0	R1459M
1007.212	1.601	1103295	WORD	n/a	wordpools/wordpool_long_EN.txt	GLOBE	1	7	[0, 0, 0]	n/a	FR1	0	R1459M
1008.813	0.867	1104894	WORD_OFF	n/a	n/a	GLOBE	1	7	[0, 0, 0]	n/a	FR1	0	R1459M
1009.68	1.6	1105762	WORD	n/a	wordpools/wordpool_long_EN.txt	GRASS	2	7	[0, 0, 0]	n/a	FR1	0	R1459M
1011.28	0.967	1107360	WORD_OFF	n/a	n/a	GRASS	2	7	[0, 0, 0]	n/a	FR1	0	R1459M
1012.247	1.616	1108324	WORD	n/a	wordpools/wordpool_long_EN.txt	TWIG	3	7	[0, 0, 0]	n/a	FR1	0	R1459M
1013.863	0.9	1109936	WORD_OFF	n/a	n/a	TWIG	3	7	[0, 0, 0]	n/a	FR1	0	R1459M
1014.763	1.6	1110846	WORD	n/a	wordpools/wordpool_long_EN.txt	CROSS	4	7	[0, 0, 0]	n/a	FR1	0	R1459M
1016.363	0.917	1112444	WORD_OFF	n/a	n/a	CROSS	4	7	[0, 0, 0]	n/a	FR1	0	R1459M
1017.28	1.6	1113353	WORD	n/a	wordpools/wordpool_long_EN.txt	WOLF	5	7	[0, 0, 0]	n/a	FR1	0	R1459M
1018.88	0.9	1114951	WORD_OFF	n/a	n/a	WOLF	5	7	[0, 0, 0]	n/a	FR1	0	R1459M
1019.78	1.6	1115861	WORD	n/a	wordpools/wordpool_long_EN.txt	SCARF	6	7	[0, 0, 0]	n/a	FR1	0	R1459M
1021.38	0.783	1117459	WORD_OFF	n/a	n/a	SCARF	6	7	[0, 0, 0]	n/a	FR1	0	R1459M
1022.163	1.6	1118244	WORD	n/a	wordpools/wordpool_long_EN.txt	CLOTH	7	7	[0, 0, 0]	n/a	FR1	0	R1459M
1023.763	0.8	1119843	WORD_OFF	n/a	n/a	CLOTH	7	7	[0, 0, 0]	n/a	FR1	0	R1459M
1024.563	1.6	1120642	WORD	n/a	wordpools/wordpool_long_EN.txt	KITE	8	7	[0, 0, 0]	n/a	FR1	0	R1459M
1026.163	1.0	1122240	WORD_OFF	n/a	n/a	KITE	8	7	[0, 0, 0]	n/a	FR1	0	R1459M
1027.163	1.6	1123232	WORD	n/a	wordpools/wordpool_long_EN.txt	STRAW	9	7	[0, 0, 0]	n/a	FR1	0	R1459M
1028.763	0.834	1124844	WORD_OFF	n/a	n/a	STRAW	9	7	[0, 0, 0]	n/a	FR1	0	R1459M
1029.597	1.6	1125671	WORD	n/a	wordpools/wordpool_long_EN.txt	LACE	10	7	[0, 0, 0]	n/a	FR1	0	R1459M
1031.197	0.833	1127283	WORD_OFF	n/a	n/a	LACE	10	7	[0, 0, 0]	n/a	FR1	0	R1459M
1032.03	1.6	1128109	WORD	n/a	wordpools/wordpool_long_EN.txt	FLEET	11	7	[0, 0, 0]	n/a	FR1	0	R1459M
1033.63	0.966	1129707	WORD_OFF	n/a	n/a	FLEET	11	7	[0, 0, 0]	n/a	FR1	0	R1459M
1034.596	1.6	1130672	WORD	n/a	wordpools/wordpool_long_EN.txt	BOY	12	7	[0, 0, 0]	n/a	FR1	0	R1459M
1036.196	0.002	1132270	WORD_OFF	n/a	n/a	BOY	12	7	[0, 0, 0]	n/a	FR1	0	R1459M
1036.198	0.0	1132270	ENCODING_END	n/a	n/a	n/a	-999	7	[0, 0, 0]	n/a	FR1	0	R1459M
1036.198	0.0	1132270	DISTRACT_START	n/a	n/a	n/a	-999	7	[0, 0, 0]	n/a	FR1	0	R1459M
1036.197	0.001	1132273	PROB	0.001	n/a	n/a	-999	7	[1, 3, 3]	7	FR1	0	R1459M
1036.198	6.132	1132274	START	n/a	n/a	n/a	-999	7	[-999, -999, -999]	n/a	FR1	0	R1459M
1042.33	3.25	1138406	PROB	3.25	n/a	n/a	-999	7	[3, 3, 3]	9	FR1	0	R1459M
1045.58	7.7	1141655	PROB	7.7	n/a	n/a	-999	7	[7, 4, 8]	19	FR1	0	R1459M
1053.28	4.866	1149355	PROB	4.866	n/a	n/a	-999	7	[1, 2, 4]	7	FR1	0	R1459M
1058.146	0.0	1154218	DISTRACT_END	n/a	n/a	n/a	-999	7	[0, 0, 0]	n/a	FR1	0	R1459M
1058.146	1.083	1154221	STOP	n/a	n/a	n/a	-999	7	[-999, -999, -999]	n/a	FR1	0	R1459M
1059.229	1.865	1155306	REC_START	n/a	n/a	n/a	-999	7	[0, 0, 0]	n/a	FR1	0	R1459M
1061.094	0.564	1157169	REC_WORD	0.564	n/a	GLOBE	1	7	[0, 0, 0]	n/a	FR1	0	R1459M
1061.658	0.632	1157733	REC_WORD	0.632	n/a	GRASS	2	7	[0, 0, 0]	n/a	FR1	0	R1459M
1062.29	0.691	1158365	REC_WORD	0.691	n/a	TWIG	3	7	[0, 0, 0]	n/a	FR1	0	R1459M
1062.981	0.504	1159056	REC_WORD	0.504	n/a	BOY	12	7	[0, 0, 0]	n/a	FR1	0	R1459M
1063.485	0.956	1159560	REC_WORD	0.956	n/a	LACE	10	7	[0, 0, 0]	n/a	FR1	0	R1459M
1064.441	5.949	1160516	REC_WORD	5.949	n/a	WOLF	5	7	[0, 0, 0]	n/a	FR1	0	R1459M
1070.39	5.566	1166464	REC_WORD	5.566	n/a	LINT	-999	7	[0, 0, 0]	n/a	FR1	0	R1459M
1075.956	9.156	1172030	REC_WORD_VV	9.156	n/a	<>	-999	7	[0, 0, 0]	n/a	FR1	0	R1459M
1085.112	5.392	1181186	REC_WORD_VV	5.392	n/a	<>	-999	7	[0, 0, 0]	n/a	FR1	0	R1459M
1090.504	10.993	1186582	REC_END	n/a	n/a	n/a	-999	7	[0, 0, 0]	n/a	FR1	0	R1459M
1101.497	10.35	1197577	COUNTDOWN_START	n/a	n/a	n/a	-999	7	[0, 0, 0]	n/a	FR1	0	R1459M
1111.847	0.001	1207924	COUNTDOWN_END	n/a	n/a	n/a	-999	7	[0, 0, 0]	n/a	FR1	0	R1459M
1111.848	2.181	1207924	ENCODING_START	n/a	n/a	n/a	-999	8	[0, 0, 0]	n/a	FR1	0	R1459M
1114.029	1.601	1210101	WORD	n/a	wordpools/wordpool_long_EN.txt	SALT	1	8	[0, 0, 0]	n/a	FR1	0	R1459M
1115.63	0.783	1211699	WORD_OFF	n/a	n/a	SALT	1	8	[0, 0, 0]	n/a	FR1	0	R1459M
1116.413	1.6	1212484	WORD	n/a	wordpools/wordpool_long_EN.txt	BOWL	2	8	[0, 0, 0]	n/a	FR1	0	R1459M
1118.013	0.934	1214096	WORD_OFF	n/a	n/a	BOWL	2	8	[0, 0, 0]	n/a	FR1	0	R1459M
1118.947	1.6	1215019	WORD	n/a	wordpools/wordpool_long_EN.txt	MOUTH	3	8	[0, 0, 0]	n/a	FR1	0	R1459M
1120.547	0.866	1216618	WORD_OFF	n/a	n/a	MOUTH	3	8	[0, 0, 0]	n/a	FR1	0	R1459M
1121.413	1.6	1217486	WORD	n/a	wordpools/wordpool_long_EN.txt	BUSH	4	8	[0, 0, 0]	n/a	FR1	0	R1459M
1123.013	0.8	1219084	WORD_OFF	n/a	n/a	BUSH	4	8	[0, 0, 0]	n/a	FR1	0	R1459M
1123.813	1.6	1219883	WORD	n/a	wordpools/wordpool_long_EN.txt	FLASK	5	8	[0, 0, 0]	n/a	FR1	0	R1459M
1125.413	0.833	1221481	WORD_OFF	n/a	n/a	FLASK	5	8	[0, 0, 0]	n/a	FR1	0	R1459M
1126.246	1.601	1222322	WORD	n/a	wordpools/wordpool_long_EN.txt	PORK	6	8	[0, 0, 0]	n/a	FR1	0	R1459M
1127.847	0.766	1223920	WORD_OFF	n/a	n/a	PORK	6	8	[0, 0, 0]	n/a	FR1	0	R1459M
1128.613	1.6	1224691	WORD	n/a	wordpools/wordpool_long_EN.txt	LOFT	7	8	[0, 0, 0]	n/a	FR1	0	R1459M
1130.213	0.834	1226290	WORD_OFF	n/a	n/a	LOFT	7	8	[0, 0, 0]	n/a	FR1	0	R1459M
1131.047	1.6	1227116	WORD	n/a	wordpools/wordpool_long_EN.txt	DEER	8	8	[0, 0, 0]	n/a	FR1	0	R1459M
1132.647	1.0	1228714	WORD_OFF	n/a	n/a	DEER	8	8	[0, 0, 0]	n/a	FR1	0	R1459M
1133.647	1.616	1229720	WORD	n/a	wordpools/wordpool_long_EN.txt	HILL	9	8	[0, 0, 0]	n/a	FR1	0	R1459M
1135.263	0.85	1231332	WORD_OFF	n/a	n/a	HILL	9	8	[0, 0, 0]	n/a	FR1	0	R1459M
1136.113	1.617	1232186	WORD	n/a	wordpools/wordpool_long_EN.txt	STOOL	10	8	[0, 0, 0]	n/a	FR1	0	R1459M
1137.73	0.933	1233798	WORD_OFF	n/a	n/a	STOOL	10	8	[0, 0, 0]	n/a	FR1	0	R1459M
1138.663	1.6	1234735	WORD	n/a	wordpools/wordpool_long_EN.txt	PLAID	11	8	[0, 0, 0]	n/a	FR1	0	R1459M
1140.263	0.933	1236334	WORD_OFF	n/a	n/a	PLAID	11	8	[0, 0, 0]	n/a	FR1	0	R1459M
1141.196	1.601	1237270	WORD	n/a	wordpools/wordpool_long_EN.txt	BIRD	12	8	[0, 0, 0]	n/a	FR1	0	R1459M
1142.797	0.0	1238868	PROB	0.0	n/a	n/a	-999	8	[6, 7, 5]	18	FR1	0	R1459M
1142.796	0.002	1238869	WORD_OFF	n/a	n/a	BIRD	12	8	[0, 0, 0]	n/a	FR1	0	R1459M
1142.798	0.0	1238869	ENCODING_END	n/a	n/a	n/a	-999	8	[0, 0, 0]	n/a	FR1	0	R1459M
1142.798	0.0	1238869	DISTRACT_START	n/a	n/a	n/a	-999	8	[0, 0, 0]	n/a	FR1	0	R1459M
1142.798	13.799	1238869	START	n/a	n/a	n/a	-999	8	[-999, -999, -999]	n/a	FR1	0	R1459M
1156.597	4.632	1252667	PROB	4.632	n/a	n/a	-999	8	[6, 8, 8]	22	FR1	0	R1459M
1161.229	4.25	1257299	PROB	4.25	n/a	n/a	-999	8	[3, 3, 2]	8	FR1	0	R1459M
1165.479	0.0	1261547	DISTRACT_END	n/a	n/a	n/a	-999	8	[0, 0, 0]	n/a	FR1	0	R1459M
1165.479	1.4	1261549	STOP	n/a	n/a	n/a	-999	8	[-999, -999, -999]	n/a	FR1	0	R1459M
1166.879	2.944	1262952	REC_START	n/a	n/a	n/a	-999	8	[0, 0, 0]	n/a	FR1	0	R1459M
1169.823	0.59	1265893	REC_WORD	0.59	n/a	BUSH	4	8	[0, 0, 0]	n/a	FR1	0	R1459M
1170.413	0.663	1266483	REC_WORD	0.663	n/a	FLASK	5	8	[0, 0, 0]	n/a	FR1	0	R1459M
1171.076	0.583	1267146	REC_WORD	0.583	n/a	DEER	8	8	[0, 0, 0]	n/a	FR1	0	R1459M
1171.659	0.333	1267729	REC_WORD	0.333	n/a	HILL	9	8	[0, 0, 0]	n/a	FR1	0	R1459M
1171.992	3.308	1268062	REC_WORD	3.308	n/a	STOOL	10	8	[0, 0, 0]	n/a	FR1	0	R1459M
1175.3	0.737	1271370	REC_WORD	0.737	n/a	HERE	-999	8	[0, 0, 0]	n/a	FR1	0	R1459M
1176.037	1.076	1272106	REC_WORD_VV	1.076	n/a	<>	-999	8	[0, 0, 0]	n/a	FR1	0	R1459M
1177.113	0.474	1273182	REC_WORD_VV	0.474	n/a	<>	-999	8	[0, 0, 0]	n/a	FR1	0	R1459M
1177.587	1.648	1273656	REC_WORD	1.648	n/a	HILL	9	8	[0, 0, 0]	n/a	FR1	0	R1459M
1179.235	2.988	1275304	REC_WORD_VV	2.988	n/a	<>	-999	8	[0, 0, 0]	n/a	FR1	0	R1459M
1182.223	0.402	1278292	REC_WORD	0.402	n/a	HILL	9	8	[0, 0, 0]	n/a	FR1	0	R1459M
1182.625	0.318	1278694	REC_WORD	0.318	n/a	DEER	8	8	[0, 0, 0]	n/a	FR1	0	R1459M
1182.943	1.041	1279012	REC_WORD	1.041	n/a	STOOL	10	8	[0, 0, 0]	n/a	FR1	0	R1459M
1183.984	2.298	1280053	REC_WORD_VV	2.298	n/a	<>	-999	8	[0, 0, 0]	n/a	FR1	0	R1459M
1186.282	1.364	1282351	REC_WORD	1.364	n/a	SALT	1	8	[0, 0, 0]	n/a	FR1	0	R1459M
1187.646	1.988	1283715	REC_WORD	1.988	n/a	BOWL	2	8	[0, 0, 0]	n/a	FR1	0	R1459M
1189.634	8.513	1285703	REC_WORD	8.513	n/a	MOUTH	3	8	[0, 0, 0]	n/a	FR1	0	R1459M
1198.147	3.05	1294214	REC_END	n/a	n/a	n/a	-999	8	[0, 0, 0]	n/a	FR1	0	R1459M
1201.197	10.35	1297259	COUNTDOWN_START	n/a	n/a	n/a	-999	8	[0, 0, 0]	n/a	FR1	0	R1459M
1211.547	0.0	1307620	COUNTDOWN_END	n/a	n/a	n/a	-999	8	[0, 0, 0]	n/a	FR1	0	R1459M
1211.547	2.215	1307620	ENCODING_START	n/a	n/a	n/a	-999	9	[0, 0, 0]	n/a	FR1	0	R1459M
1213.762	1.601	1309824	WORD	n/a	wordpools/wordpool_long_EN.txt	BAND	1	9	[0, 0, 0]	n/a	FR1	0	R1459M
1215.363	0.833	1311436	WORD_OFF	n/a	n/a	BAND	1	9	[0, 0, 0]	n/a	FR1	0	R1459M
1216.196	1.601	1312263	WORD	n/a	wordpools/wordpool_long_EN.txt	CLIFF	2	9	[0, 0, 0]	n/a	FR1	0	R1459M
1217.797	0.916	1313861	WORD_OFF	n/a	n/a	CLIFF	2	9	[0, 0, 0]	n/a	FR1	0	R1459M
1218.713	1.6	1314784	WORD	n/a	wordpools/wordpool_long_EN.txt	GIFT	3	9	[0, 0, 0]	n/a	FR1	0	R1459M
1220.313	0.85	1316382	WORD_OFF	n/a	n/a	GIFT	3	9	[0, 0, 0]	n/a	FR1	0	R1459M
1221.163	1.601	1317224	WORD	n/a	wordpools/wordpool_long_EN.txt	SOAP	4	9	[0, 0, 0]	n/a	FR1	0	R1459M
1222.764	0.783	1318835	WORD_OFF	n/a	n/a	SOAP	4	9	[0, 0, 0]	n/a	FR1	0	R1459M
1223.547	1.615	1319606	WORD	n/a	wordpools/wordpool_long_EN.txt	MAP	5	9	[0, 0, 0]	n/a	FR1	0	R1459M
1225.162	0.918	1321232	WORD_OFF	n/a	n/a	MAP	5	9	[0, 0, 0]	n/a	FR1	0	R1459M
1226.08	1.617	1322141	WORD	n/a	wordpools/wordpool_long_EN.txt	SPHINX	6	9	[0, 0, 0]	n/a	FR1	0	R1459M
1227.697	0.766	1323767	WORD_OFF	n/a	n/a	SPHINX	6	9	[0, 0, 0]	n/a	FR1	0	R1459M
1228.463	1.617	1324525	WORD	n/a	wordpools/wordpool_long_EN.txt	SLOPE	7	9	[0, 0, 0]	n/a	FR1	0	R1459M
1230.08	0.901	1326151	WORD_OFF	n/a	n/a	SLOPE	7	9	[0, 0, 0]	n/a	FR1	0	R1459M
1230.981	1.616	1327046	WORD	n/a	wordpools/wordpool_long_EN.txt	HAT	8	9	[0, 0, 0]	n/a	FR1	0	R1459M
1232.597	0.933	1328658	WORD_OFF	n/a	n/a	HAT	8	9	[0, 0, 0]	n/a	FR1	0	R1459M
1233.53	1.617	1329595	WORD	n/a	wordpools/wordpool_long_EN.txt	STREET	9	9	[0, 0, 0]	n/a	FR1	0	R1459M
1235.147	0.783	1331207	WORD_OFF	n/a	n/a	STREET	9	9	[0, 0, 0]	n/a	FR1	0	R1459M
1235.93	1.6	1331993	WORD	n/a	wordpools/wordpool_long_EN.txt	BROOM	10	9	[0, 0, 0]	n/a	FR1	0	R1459M
1237.53	0.916	1333591	WORD_OFF	n/a	n/a	BROOM	10	9	[0, 0, 0]	n/a	FR1	0	R1459M
1238.446	1.6	1334514	WORD	n/a	wordpools/wordpool_long_EN.txt	PRINCE	11	9	[0, 0, 0]	n/a	FR1	0	R1459M
1240.046	0.984	1336112	WORD_OFF	n/a	n/a	PRINCE	11	9	[0, 0, 0]	n/a	FR1	0	R1459M
1241.03	1.617	1337090	WORD	n/a	wordpools/wordpool_long_EN.txt	TEETH	12	9	[0, 0, 0]	n/a	FR1	0	R1459M
1242.647	0.001	1338713	PROB	0.001	n/a	n/a	-999	9	[7, 2, 8]	17	FR1	0	R1459M
1242.648	0.0	1338714	START	n/a	n/a	n/a	-999	9	[-999, -999, -999]	n/a	FR1	0	R1459M
1242.647	0.001	1338716	WORD_OFF	n/a	n/a	TEETH	12	9	[0, 0, 0]	n/a	FR1	0	R1459M
1242.648	0.0	1338716	ENCODING_END	n/a	n/a	n/a	-999	9	[0, 0, 0]	n/a	FR1	0	R1459M
1242.648	9.332	1338716	DISTRACT_START	n/a	n/a	n/a	-999	9	[0, 0, 0]	n/a	FR1	0	R1459M
1251.98	7.5	1348046	PROB	7.5	n/a	n/a	-999	9	[6, 8, 6]	20	FR1	0	R1459M
1259.48	6.883	1355546	PROB	6.883	n/a	n/a	-999	9	[3, 4, 3]	10	FR1	0	R1459M
1266.363	0.0	1362428	DISTRACT_END	n/a	n/a	n/a	-999	9	[0, 0, 0]	n/a	FR1	0	R1459M
1266.363	1.083	1362428	STOP	n/a	n/a	n/a	-999	9	[-999, -999, -999]	n/a	FR1	0	R1459M
1267.446	2.919	1363516	REC_START	n/a	n/a	n/a	-999	9	[0, 0, 0]	n/a	FR1	0	R1459M
1270.365	1.051	1366430	REC_WORD	1.051	n/a	SOAP	4	9	[0, 0, 0]	n/a	FR1	0	R1459M
1271.416	2.424	1367481	REC_WORD	2.424	n/a	SPHINX	6	9	[0, 0, 0]	n/a	FR1	0	R1459M
1273.84	1.0	1369905	REC_WORD_VV	1.0	n/a	<>	-999	9	[0, 0, 0]	n/a	FR1	0	R1459M
1274.84	0.996	1370905	REC_WORD_VV	0.996	n/a	<>	-999	9	[0, 0, 0]	n/a	FR1	0	R1459M
1275.836	1.001	1371901	REC_WORD_VV	1.001	n/a	<>	-999	9	[0, 0, 0]	n/a	FR1	0	R1459M
1276.837	1.003	1372902	REC_WORD_VV	1.003	n/a	<>	-999	9	[0, 0, 0]	n/a	FR1	0	R1459M
1277.84	2.264	1373905	REC_WORD_VV	2.264	n/a	<>	-999	9	[0, 0, 0]	n/a	FR1	0	R1459M
1280.104	6.264	1376169	REC_WORD_VV	6.264	n/a	<>	-999	9	[0, 0, 0]	n/a	FR1	0	R1459M
1286.368	3.278	1382432	REC_WORD	3.278	n/a	PRINCE	11	9	[0, 0, 0]	n/a	FR1	0	R1459M
1289.646	5.38	1385710	REC_WORD	5.38	n/a	TEETH	12	9	[0, 0, 0]	n/a	FR1	0	R1459M
1295.026	3.691	1391090	REC_WORD	3.691	n/a	GATE	-999	9	[0, 0, 0]	n/a	FR1	0	R1459M
1298.717	4.845	1394778	REC_END	n/a	n/a	n/a	-999	9	[0, 0, 0]	n/a	FR1	0	R1459M
1303.562	10.351	1399628	COUNTDOWN_START	n/a	n/a	n/a	-999	9	[0, 0, 0]	n/a	FR1	0	R1459M
1313.913	0.0	1409975	COUNTDOWN_END	n/a	n/a	n/a	-999	9	[0, 0, 0]	n/a	FR1	0	R1459M
1313.913	2.234	1409975	ENCODING_START	n/a	n/a	n/a	-999	10	[0, 0, 0]	n/a	FR1	0	R1459M
1316.147	1.6	1412207	WORD	n/a	wordpools/wordpool_long_EN.txt	CANE	1	10	[0, 0, 0]	n/a	FR1	0	R1459M
1317.747	0.783	1413805	WORD_OFF	n/a	n/a	CANE	1	10	[0, 0, 0]	n/a	FR1	0	R1459M
1318.53	1.6	1414590	WORD	n/a	wordpools/wordpool_long_EN.txt	ROCK	2	10	[0, 0, 0]	n/a	FR1	0	R1459M
1320.13	0.883	1416188	WORD_OFF	n/a	n/a	ROCK	2	10	[0, 0, 0]	n/a	FR1	0	R1459M
1321.013	1.617	1417070	WORD	n/a	wordpools/wordpool_long_EN.txt	STEAM	3	10	[0, 0, 0]	n/a	FR1	0	R1459M
1322.63	0.899	1418696	WORD_OFF	n/a	n/a	STEAM	3	10	[0, 0, 0]	n/a	FR1	0	R1459M
1323.529	1.601	1419592	WORD	n/a	wordpools/wordpool_long_EN.txt	CONE	4	10	[0, 0, 0]	n/a	FR1	0	R1459M
1325.13	0.999	1421190	WORD_OFF	n/a	n/a	CONE	4	10	[0, 0, 0]	n/a	FR1	0	R1459M
1326.129	1.601	1422196	WORD	n/a	wordpools/wordpool_long_EN.txt	MOUSE	5	10	[0, 0, 0]	n/a	FR1	0	R1459M
1327.73	0.766	1423794	WORD_OFF	n/a	n/a	MOUSE	5	10	[0, 0, 0]	n/a	FR1	0	R1459M
1328.496	1.601	1424552	WORD	n/a	wordpools/wordpool_long_EN.txt	BENCH	6	10	[0, 0, 0]	n/a	FR1	0	R1459M
1330.097	0.865	1426164	WORD_OFF	n/a	n/a	BENCH	6	10	[0, 0, 0]	n/a	FR1	0	R1459M
1330.962	1.601	1427018	WORD	n/a	wordpools/wordpool_long_EN.txt	TRENCH	7	10	[0, 0, 0]	n/a	FR1	0	R1459M
1332.563	0.8	1428630	WORD_OFF	n/a	n/a	TRENCH	7	10	[0, 0, 0]	n/a	FR1	0	R1459M
1333.363	1.6	1429429	WORD	n/a	wordpools/wordpool_long_EN.txt	BLOOM	8	10	[0, 0, 0]	n/a	FR1	0	R1459M
1334.963	0.983	1431027	WORD_OFF	n/a	n/a	BLOOM	8	10	[0, 0, 0]	n/a	FR1	0	R1459M
1335.946	1.601	1432005	WORD	n/a	wordpools/wordpool_long_EN.txt	SCHOOL	9	10	[0, 0, 0]	n/a	FR1	0	R1459M
1337.547	0.95	1433604	WORD_OFF	n/a	n/a	SCHOOL	9	10	[0, 0, 0]	n/a	FR1	0	R1459M
1338.497	1.616	1434554	WORD	n/a	wordpools/wordpool_long_EN.txt	RUST	10	10	[0, 0, 0]	n/a	FR1	0	R1459M
1340.113	0.883	1436180	WORD_OFF	n/a	n/a	RUST	10	10	[0, 0, 0]	n/a	FR1	0	R1459M
1340.996	1.617	1437062	WORD	n/a	wordpools/wordpool_long_EN.txt	WRIST	11	10	[0, 0, 0]	n/a	FR1	0	R1459M
1342.613	0.767	1438674	WORD_OFF	n/a	n/a	WRIST	11	10	[0, 0, 0]	n/a	FR1	0	R1459M
1343.38	1.6	1439445	WORD	n/a	wordpools/wordpool_long_EN.txt	JAIL	12	10	[0, 0, 0]	n/a	FR1	0	R1459M
1344.98	0.001	1441042	PROB	0.001	n/a	n/a	-999	10	[7, 7, 6]	20	FR1	0	R1459M
1344.981	0.0	1441043	START	n/a	n/a	n/a	-999	10	[-999, -999, -999]	n/a	FR1	0	R1459M
1344.98	0.001	1441044	WORD_OFF	n/a	n/a	JAIL	12	10	[0, 0, 0]	n/a	FR1	0	R1459M
1344.981	0.0	1441044	ENCODING_END	n/a	n/a	n/a	-999	10	[0, 0, 0]	n/a	FR1	0	R1459M
1344.981	4.2	1441044	DISTRACT_START	n/a	n/a	n/a	-999	10	[0, 0, 0]	n/a	FR1	0	R1459M
1349.181	5.649	1445243	PROB	5.649	n/a	n/a	-999	10	[7, 2, 7]	16	FR1	0	R1459M
1354.83	3.017	1450891	PROB	3.017	n/a	n/a	-999	10	[6, 1, 4]	11	FR1	0	R1459M
1357.847	7.982	1453908	PROB	7.982	n/a	n/a	-999	10	[6, 5, 3]	14	FR1	0	R1459M
1365.829	0.0	1461889	DISTRACT_END	n/a	n/a	n/a	-999	10	[0, 0, 0]	n/a	FR1	0	R1459M
1365.829	1.284	1461890	STOP	n/a	n/a	n/a	-999	10	[-999, -999, -999]	n/a	FR1	0	R1459M
1367.113	2.074	1463171	REC_START	n/a	n/a	n/a	-999	10	[0, 0, 0]	n/a	FR1	0	R1459M
1369.187	1.054	1465248	REC_WORD	1.054	n/a	STEAM	3	10	[0, 0, 0]	n/a	FR1	0	R1459M
1370.241	7.537	1466302	REC_WORD	7.537	n/a	CONE	4	10	[0, 0, 0]	n/a	FR1	0	R1459M
1377.778	1.003	1473838	REC_WORD	1.003	n/a	RUST	10	10	[0, 0, 0]	n/a	FR1	0	R1459M
1378.781	1.801	1474841	REC_WORD_VV	1.801	n/a	<>	-999	10	[0, 0, 0]	n/a	FR1	0	R1459M
1380.582	0.998	1476642	REC_WORD_VV	0.998	n/a	<>	-999	10	[0, 0, 0]	n/a	FR1	0	R1459M
1381.58	1.47	1477640	REC_WORD_VV	1.47	n/a	<>	-999	10	[0, 0, 0]	n/a	FR1	0	R1459M
1383.05	0.594	1479110	REC_WORD	0.594	n/a	STEAM	3	10	[0, 0, 0]	n/a	FR1	0	R1459M
1383.644	0.433	1479704	REC_WORD	0.433	n/a	CONE	4	10	[0, 0, 0]	n/a	FR1	0	R1459M
1384.077	2.415	1480137	REC_WORD	2.415	n/a	RUST	10	10	[0, 0, 0]	n/a	FR1	0	R1459M
1386.492	2.946	1482552	REC_WORD_VV	2.946	n/a	<>	-999	10	[0, 0, 0]	n/a	FR1	0	R1459M
1389.438	8.944	1485498	REC_WORD	8.944	n/a	BENCH	6	10	[0, 0, 0]	n/a	FR1	0	R1459M
1398.382	4.382	1494446	REC_END	n/a	n/a	n/a	-999	10	[0, 0, 0]	n/a	FR1	0	R1459M
1402.764	10.35	1498828	COUNTDOWN_START	n/a	n/a	n/a	-999	10	[0, 0, 0]	n/a	FR1	0	R1459M
1413.114	0.0	1509175	COUNTDOWN_END	n/a	n/a	n/a	-999	10	[0, 0, 0]	n/a	FR1	0	R1459M
1413.114	2.033	1509175	ENCODING_START	n/a	n/a	n/a	-999	11	[0, 0, 0]	n/a	FR1	0	R1459M
1415.147	1.6	1511200	WORD	n/a	wordpools/wordpool_long_EN.txt	FRAME	1	11	[0, 0, 0]	n/a	FR1	0	R1459M
1416.747	0.816	1512812	WORD_OFF	n/a	n/a	FRAME	1	11	[0, 0, 0]	n/a	FR1	0	R1459M
1417.563	1.6	1513625	WORD	n/a	wordpools/wordpool_long_EN.txt	STORE	2	11	[0, 0, 0]	n/a	FR1	0	R1459M
1419.163	0.883	1515223	WORD_OFF	n/a	n/a	STORE	2	11	[0, 0, 0]	n/a	FR1	0	R1459M
1420.046	1.601	1516105	WORD	n/a	wordpools/wordpool_long_EN.txt	THIEF	3	11	[0, 0, 0]	n/a	FR1	0	R1459M
1421.647	0.983	1517703	WORD_OFF	n/a	n/a	THIEF	3	11	[0, 0, 0]	n/a	FR1	0	R1459M
1422.63	1.617	1518681	WORD	n/a	wordpools/wordpool_long_EN.txt	SPOOL	4	11	[0, 0, 0]	n/a	FR1	0	R1459M
1424.247	0.899	1520307	WORD_OFF	n/a	n/a	SPOOL	4	11	[0, 0, 0]	n/a	FR1	0	R1459M
1425.146	1.616	1521203	WORD	n/a	wordpools/wordpool_long_EN.txt	TRASH	5	11	[0, 0, 0]	n/a	FR1	0	R1459M
1426.762	1.001	1522815	WORD_OFF	n/a	n/a	TRASH	5	11	[0, 0, 0]	n/a	FR1	0	R1459M
1427.763	1.617	1523820	WORD	n/a	wordpools/wordpool_long_EN.txt	BADGE	6	11	[0, 0, 0]	n/a	FR1	0	R1459M
1429.38	0.816	1525432	WORD_OFF	n/a	n/a	BADGE	6	11	[0, 0, 0]	n/a	FR1	0	R1459M
1430.196	1.6	1526259	WORD	n/a	wordpools/wordpool_long_EN.txt	ROD	7	11	[0, 0, 0]	n/a	FR1	0	R1459M
1431.796	0.984	1527857	WORD_OFF	n/a	n/a	ROD	7	11	[0, 0, 0]	n/a	FR1	0	R1459M
1432.78	1.6	1528835	WORD	n/a	wordpools/wordpool_long_EN.txt	MOOSE	8	11	[0, 0, 0]	n/a	FR1	0	R1459M
1434.38	0.983	1530434	WORD_OFF	n/a	n/a	MOOSE	8	11	[0, 0, 0]	n/a	FR1	0	R1459M
1435.363	1.6	1531426	WORD	n/a	wordpools/wordpool_long_EN.txt	OWL	9	11	[0, 0, 0]	n/a	FR1	0	R1459M
1436.963	0.917	1533024	WORD_OFF	n/a	n/a	OWL	9	11	[0, 0, 0]	n/a	FR1	0	R1459M
1437.88	1.617	1533933	WORD	n/a	wordpools/wordpool_long_EN.txt	CUBE	10	11	[0, 0, 0]	n/a	FR1	0	R1459M
1439.497	0.799	1535559	WORD_OFF	n/a	n/a	CUBE	10	11	[0, 0, 0]	n/a	FR1	0	R1459M
1440.296	1.601	1536358	WORD	n/a	wordpools/wordpool_long_EN.txt	CLAY	11	11	[0, 0, 0]	n/a	FR1	0	R1459M
1441.897	0.832	1537956	WORD_OFF	n/a	n/a	CLAY	11	11	[0, 0, 0]	n/a	FR1	0	R1459M
1442.729	1.601	1538783	WORD	n/a	wordpools/wordpool_long_EN.txt	BAG	12	11	[0, 0, 0]	n/a	FR1	0	R1459M
1444.33	0.001	1540381	WORD_OFF	n/a	n/a	BAG	12	11	[0, 0, 0]	n/a	FR1	0	R1459M
1444.331	0.0	1540381	ENCODING_END	n/a	n/a	n/a	-999	11	[0, 0, 0]	n/a	FR1	0	R1459M
1444.33	0.001	1540387	PROB	0.001	n/a	n/a	-999	11	[6, 4, 7]	17	FR1	0	R1459M
1444.331	0.0	1540388	START	n/a	n/a	n/a	-999	11	[-999, -999, -999]	n/a	FR1	0	R1459M
1444.331	4.099	1540395	DISTRACT_START	n/a	n/a	n/a	-999	11	[0, 0, 0]	n/a	FR1	0	R1459M
1448.43	4.8	1544487	PROB	4.8	n/a	n/a	-999	11	[1, 3, 2]	11	FR1	0	R1459M
1453.23	11.75	1549287	PROB	11.75	n/a	n/a	-999	11	[8, 6, 1]	15	FR1	0	R1459M
1464.98	0.0	1561034	DISTRACT_END	n/a	n/a	n/a	-999	11	[0, 0, 0]	n/a	FR1	0	R1459M
1464.98	1.249	1561036	STOP	n/a	n/a	n/a	-999	11	[-999, -999, -999]	n/a	FR1	0	R1459M
1466.229	1.479	1562288	REC_START	n/a	n/a	n/a	-999	11	[0, 0, 0]	n/a	FR1	0	R1459M
1467.708	0.569	1563764	REC_WORD	0.569	n/a	FRAME	1	11	[0, 0, 0]	n/a	FR1	0	R1459M
1468.277	1.202	1564333	REC_WORD	1.202	n/a	STORE	2	11	[0, 0, 0]	n/a	FR1	0	R1459M
1469.479	0.535	1565535	REC_WORD	0.535	n/a	THIEF	3	11	[0, 0, 0]	n/a	FR1	0	R1459M
1470.014	0.813	1566070	REC_WORD	0.813	n/a	STOOL	-999	11	[0, 0, 0]	n/a	FR1	0	R1459M
1470.827	0.911	1566883	REC_WORD	0.911	n/a	CLAY	11	11	[0, 0, 0]	n/a	FR1	0	R1459M
1471.738	25.763	1567794	REC_WORD	25.763	n/a	BADGE	6	11	[0, 0, 0]	n/a	FR1	0	R1459M
1497.501	5.345	1593550	REC_END	n/a	n/a	n/a	-999	11	[0, 0, 0]	n/a	FR1	0	R1459M
1502.846	10.351	1598895	COUNTDOWN_START	n/a	n/a	n/a	-999	11	[0, 0, 0]	n/a	FR1	0	R1459M
1513.197	0.0	1609256	COUNTDOWN_END	n/a	n/a	n/a	-999	11	[0, 0, 0]	n/a	FR1	0	R1459M
1513.197	2.15	1609256	ENCODING_START	n/a	n/a	n/a	-999	12	[0, 0, 0]	n/a	FR1	0	R1459M
1515.347	1.6	1611406	WORD	n/a	wordpools/wordpool_long_EN.txt	CROWN	1	12	[0, 0, 0]	n/a	FR1	0	R1459M
1516.947	0.9	1613004	WORD_OFF	n/a	n/a	CROWN	1	12	[0, 0, 0]	n/a	FR1	0	R1459M
1517.847	1.6	1613899	WORD	n/a	wordpools/wordpool_long_EN.txt	THREAD	2	12	[0, 0, 0]	n/a	FR1	0	R1459M
1519.447	0.966	1615498	WORD_OFF	n/a	n/a	THREAD	2	12	[0, 0, 0]	n/a	FR1	0	R1459M
1520.413	1.617	1616462	WORD	n/a	wordpools/wordpool_long_EN.txt	TROUT	3	12	[0, 0, 0]	n/a	FR1	0	R1459M
1522.03	0.85	1618088	WORD_OFF	n/a	n/a	TROUT	3	12	[0, 0, 0]	n/a	FR1	0	R1459M
1522.88	1.6	1618928	WORD	n/a	wordpools/wordpool_long_EN.txt	TAIL	4	12	[0, 0, 0]	n/a	FR1	0	R1459M
1524.48	0.8	1620527	WORD_OFF	n/a	n/a	TAIL	4	12	[0, 0, 0]	n/a	FR1	0	R1459M
1525.28	1.6	1621331	WORD	n/a	wordpools/wordpool_long_EN.txt	WAND	5	12	[0, 0, 0]	n/a	FR1	0	R1459M
1526.88	0.783	1622938	WORD_OFF	n/a	n/a	WAND	5	12	[0, 0, 0]	n/a	FR1	0	R1459M
1527.663	1.6	1623709	WORD	n/a	wordpools/wordpool_long_EN.txt	BREAD	6	12	[0, 0, 0]	n/a	FR1	0	R1459M
1529.263	0.9	1625321	WORD_OFF	n/a	n/a	BREAD	6	12	[0, 0, 0]	n/a	FR1	0	R1459M
1530.163	1.617	1626217	WORD	n/a	wordpools/wordpool_long_EN.txt	MASK	7	12	[0, 0, 0]	n/a	FR1	0	R1459M
1531.78	0.783	1627829	WORD_OFF	n/a	n/a	MASK	7	12	[0, 0, 0]	n/a	FR1	0	R1459M
1532.563	1.616	1628614	WORD	n/a	wordpools/wordpool_long_EN.txt	WHEEL	8	12	[0, 0, 0]	n/a	FR1	0	R1459M
1534.179	0.968	1630226	WORD_OFF	n/a	n/a	WHEEL	8	12	[0, 0, 0]	n/a	FR1	0	R1459M
1535.147	1.6	1631204	WORD	n/a	wordpools/wordpool_long_EN.txt	DOCK	9	12	[0, 0, 0]	n/a	FR1	0	R1459M
1536.747	0.983	1632802	WORD_OFF	n/a	n/a	DOCK	9	12	[0, 0, 0]	n/a	FR1	0	R1459M
1537.73	1.617	1633781	WORD	n/a	wordpools/wordpool_long_EN.txt	ICE	10	12	[0, 0, 0]	n/a	FR1	0	R1459M
1539.347	1.0	1635393	WORD_OFF	n/a	n/a	ICE	10	12	[0, 0, 0]	n/a	FR1	0	R1459M
1540.347	1.616	1636398	WORD	n/a	wordpools/wordpool_long_EN.txt	FOX	11	12	[0, 0, 0]	n/a	FR1	0	R1459M
1541.963	0.817	1638010	WORD_OFF	n/a	n/a	FOX	11	12	[0, 0, 0]	n/a	FR1	0	R1459M
1542.78	1.601	1638837	WORD	n/a	wordpools/wordpool_long_EN.txt	FAN	12	12	[0, 0, 0]	n/a	FR1	0	R1459M
1544.381	0.0	1640434	START	n/a	n/a	n/a	-999	12	[-999, -999, -999]	n/a	FR1	0	R1459M
1544.381	0.0	1640434	PROB	0.0	n/a	n/a	-999	12	[6, 8, 3]	17	FR1	0	R1459M
1544.38	0.001	1640435	WORD_OFF	n/a	n/a	FAN	12	12	[0, 0, 0]	n/a	FR1	0	R1459M
1544.381	0.0	1640435	ENCODING_END	n/a	n/a	n/a	-999	12	[0, 0, 0]	n/a	FR1	0	R1459M
1544.381	8.816	1640435	DISTRACT_START	n/a	n/a	n/a	-999	12	[0, 0, 0]	n/a	FR1	0	R1459M
1553.197	4.916	1649249	PROB	4.916	n/a	n/a	-999	12	[3, 3, 1]	7	FR1	0	R1459M
1558.113	3.267	1654165	PROB	3.267	n/a	n/a	-999	12	[3, 1, 7]	11	FR1	0	R1459M
1561.38	5.233	1657432	PROB	5.233	n/a	n/a	-999	12	[4, 1, 8]	13	FR1	0	R1459M
1566.613	0.0	1662659	DISTRACT_END	n/a	n/a	n/a	-999	12	[0, 0, 0]	n/a	FR1	0	R1459M
1566.613	1.383	1662665	STOP	n/a	n/a	n/a	-999	12	[-999, -999, -999]	n/a	FR1	0	R1459M
1567.996	2.985	1664050	REC_START	n/a	n/a	n/a	-999	12	[0, 0, 0]	n/a	FR1	0	R1459M
1570.981	0.709	1667033	REC_WORD	0.709	n/a	TROUT	3	12	[0, 0, 0]	n/a	FR1	0	R1459M
1571.69	0.828	1667742	REC_WORD	0.828	n/a	TRAIL	-999	12	[0, 0, 0]	n/a	FR1	0	R1459M
1572.518	1.059	1668569	REC_WORD	1.059	n/a	MASK	7	12	[0, 0, 0]	n/a	FR1	0	R1459M
1573.577	5.739	1669628	REC_WORD	5.739	n/a	ICE	10	12	[0, 0, 0]	n/a	FR1	0	R1459M
1579.316	19.94	1675367	REC_WORD_VV	19.94	n/a	<>	-999	12	[0, 0, 0]	n/a	FR1	0	R1459M
1599.256	0.0	1695298	REC_END	n/a	n/a	n/a	-999	12	[0, 0, 0]	n/a	FR1	0	R1459M
