onset	duration	sample	trial_type	response_time	stim_file	item_name	serialpos	list	test	answer	experiment	session	subject
0.0	0.0	8389	INSTRUCT_START	n/a	n/a	n/a	-999	-999	[0, 0, 0]	n/a	FR1	0	R1076D
0.0	10.953	8389	INSTRUCT_END	n/a	n/a	n/a	-999	-999	[0, 0, 0]	n/a	FR1	0	R1076D
10.953	0.0	19342	SESS_START	n/a	n/a	n/a	-999	-999	[0, 0, 0]	n/a	FR1	0	R1076D
10.953	13.001	19342	MIC_TEST	n/a	n/a	n/a	-999	-999	[0, 0, 0]	n/a	FR1	0	R1076D
23.954	21.638	32342	PRACTICE_TRIAL	n/a	n/a	n/a	-999	-1	[0, 0, 0]	n/a	FR1	0	R1076D
45.592	10.428	53979	COUNTDOWN_START	n/a	n/a	n/a	-999	-1	[0, 0, 0]	n/a	FR1	0	R1076D
56.02	0.007	64406	COUNTDOWN_END	n/a	n/a	n/a	-999	-1	[0, 0, 0]	n/a	FR1	0	R1076D
56.027	1.616	64413	PRACTICE_ORIENT	n/a	n/a	n/a	-999	-1	[0, 0, 0]	n/a	FR1	0	R1076D
57.643	2.034	66029	PRACTICE_ORIENT_OFF	n/a	n/a	n/a	-999	-1	[0, 0, 0]	n/a	FR1	0	R1076D
59.677	1.601	68063	PRACTICE_WORD	n/a	n/a	CAMEL	1	-1	[0, 0, 0]	n/a	FR1	0	R1076D
61.278	0.967	69664	PRACTICE_WORD_OFF	n/a	n/a	CAMEL	-999	-1	[0, 0, 0]	n/a	FR1	0	R1076D
62.245	1.616	70631	PRACTICE_WORD	n/a	n/a	BEAM	2	-1	[0, 0, 0]	n/a	FR1	0	R1076D
63.861	0.95	72247	PRACTICE_WORD_OFF	n/a	n/a	BEAM	-999	-1	[0, 0, 0]	n/a	FR1	0	R1076D
64.811	1.618	73197	PRACTICE_WORD	n/a	n/a	TONGUE	3	-1	[0, 0, 0]	n/a	FR1	0	R1076D
66.429	0.817	74815	PRACTICE_WORD_OFF	n/a	n/a	TONGUE	-999	-1	[0, 0, 0]	n/a	FR1	0	R1076D
67.246	1.616	75632	PRACTICE_WORD	n/a	n/a	WAGON	4	-1	[0, 0, 0]	n/a	FR1	0	R1076D
68.862	0.9	77247	PRACTICE_WORD_OFF	n/a	n/a	WAGON	-999	-1	[0, 0, 0]	n/a	FR1	0	R1076D
69.762	1.618	78147	PRACTICE_WORD	n/a	n/a	FLOOD	5	-1	[0, 0, 0]	n/a	FR1	0	R1076D
71.38	1.0	79765	PRACTICE_WORD_OFF	n/a	n/a	FLOOD	-999	-1	[0, 0, 0]	n/a	FR1	0	R1076D
72.38	1.616	80765	PRACTICE_WORD	n/a	n/a	CHEST	6	-1	[0, 0, 0]	n/a	FR1	0	R1076D
73.996	0.784	82381	PRACTICE_WORD_OFF	n/a	n/a	CHEST	-999	-1	[0, 0, 0]	n/a	FR1	0	R1076D
74.78	1.601	83165	PRACTICE_WORD	n/a	n/a	RING	7	-1	[0, 0, 0]	n/a	FR1	0	R1076D
76.381	0.817	84766	PRACTICE_WORD_OFF	n/a	n/a	RING	-999	-1	[0, 0, 0]	n/a	FR1	0	R1076D
77.198	1.616	85583	PRACTICE_WORD	n/a	n/a	WATCH	8	-1	[0, 0, 0]	n/a	FR1	0	R1076D
78.814	0.8	87199	PRACTICE_WORD_OFF	n/a	n/a	WATCH	-999	-1	[0, 0, 0]	n/a	FR1	0	R1076D
79.614	1.618	87999	PRACTICE_WORD	n/a	n/a	IRON	9	-1	[0, 0, 0]	n/a	FR1	0	R1076D
81.232	1.017	89617	PRACTICE_WORD_OFF	n/a	n/a	IRON	-999	-1	[0, 0, 0]	n/a	FR1	0	R1076D
82.249	1.616	90634	PRACTICE_WORD	n/a	n/a	RHINO	10	-1	[0, 0, 0]	n/a	FR1	0	R1076D
83.865	0.916	92250	PRACTICE_WORD_OFF	n/a	n/a	RHINO	-999	-1	[0, 0, 0]	n/a	FR1	0	R1076D
84.781	1.619	93166	PRACTICE_WORD	n/a	n/a	ATTIC	11	-1	[0, 0, 0]	n/a	FR1	0	R1076D
86.4	0.85	94785	PRACTICE_WORD_OFF	n/a	n/a	ATTIC	-999	-1	[0, 0, 0]	n/a	FR1	0	R1076D
87.25	1.616	95635	PRACTICE_WORD	n/a	n/a	COTTON	12	-1	[0, 0, 0]	n/a	FR1	0	R1076D
88.866	0.0	97250	PRACTICE_WORD_OFF	n/a	n/a	COTTON	-999	-1	[0, 0, 0]	n/a	FR1	0	R1076D
88.866	0.0	97250	DISTRACT_START	n/a	n/a	n/a	-999	-1	[0, 0, 0]	n/a	FR1	0	R1076D
88.866	0.016	97250	START	n/a	n/a	n/a	-999	-1	[-999, -999, -999]	n/a	FR1	0	R1076D
88.882	5.536	97266	PROB	5.536	n/a	n/a	-999	-1	[8, 2, 8]	18	FR1	0	R1076D
94.418	5.3	102802	PROB	5.3	n/a	n/a	-999	-1	[2, 6, 5]	13	FR1	0	R1076D
99.718	3.685	108102	PROB	3.685	n/a	n/a	-999	-1	[7, 5, 4]	16	FR1	0	R1076D
103.403	5.216	111787	PROB	5.216	n/a	n/a	-999	-1	[8, 4, 4]	16	FR1	0	R1076D
108.619	5.048	117002	PROB	5.048	n/a	n/a	-999	-1	[7, 2, 1]	9	FR1	0	R1076D
113.667	0.02	122050	STOP	n/a	n/a	n/a	-999	-1	[-999, -999, -999]	n/a	FR1	0	R1076D
113.687	0.618	122070	DISTRACT_END	n/a	n/a	n/a	-999	-1	[0, 0, 0]	n/a	FR1	0	R1076D
114.305	0.516	122688	RETRIEVAL_ORIENT	n/a	n/a	n/a	-999	-1	[0, 0, 0]	n/a	FR1	0	R1076D
114.821	30.012	123204	PRACTICE_REC_START	n/a	n/a	n/a	-999	-1	[0, 0, 0]	n/a	FR1	0	R1076D
144.833	16.946	153214	PRACTICE_REC_END	n/a	n/a	n/a	-999	-1	[0, 0, 0]	n/a	FR1	0	R1076D
161.779	0.5	170160	TRIAL	n/a	n/a	n/a	-999	1	[0, 0, 0]	n/a	FR1	0	R1076D
162.279	10.428	170659	COUNTDOWN_START	n/a	n/a	n/a	-999	1	[0, 0, 0]	n/a	FR1	0	R1076D
172.707	0.007	181087	COUNTDOWN_END	n/a	n/a	n/a	-999	1	[0, 0, 0]	n/a	FR1	0	R1076D
172.714	1.601	181094	ORIENT	n/a	n/a	n/a	-999	1	[0, 0, 0]	n/a	FR1	0	R1076D
174.315	1.984	182695	ORIENT_OFF	n/a	n/a	n/a	-999	1	[0, 0, 0]	n/a	FR1	0	R1076D
176.299	1.616	184679	WORD	n/a	wordpools/wordpool_EN.txt	HOOF	1	1	[0, 0, 0]	n/a	FR1	0	R1076D
177.915	0.884	186295	WORD_OFF	n/a	n/a	HOOF	1	1	[0, 0, 0]	n/a	FR1	0	R1076D
178.799	1.618	187179	WORD	n/a	wordpools/wordpool_EN.txt	FISH	2	1	[0, 0, 0]	n/a	FR1	0	R1076D
180.417	0.8	188797	WORD_OFF	n/a	n/a	FISH	2	1	[0, 0, 0]	n/a	FR1	0	R1076D
181.217	1.616	189596	WORD	n/a	wordpools/wordpool_EN.txt	CLOTH	3	1	[0, 0, 0]	n/a	FR1	0	R1076D
182.833	0.983	191212	WORD_OFF	n/a	n/a	CLOTH	3	1	[0, 0, 0]	n/a	FR1	0	R1076D
183.816	1.601	192195	WORD	n/a	wordpools/wordpool_EN.txt	PLANT	4	1	[0, 0, 0]	n/a	FR1	0	R1076D
185.417	0.984	193796	WORD_OFF	n/a	n/a	PLANT	4	1	[0, 0, 0]	n/a	FR1	0	R1076D
186.401	1.617	194780	WORD	n/a	wordpools/wordpool_EN.txt	MUG	5	1	[0, 0, 0]	n/a	FR1	0	R1076D
188.018	0.766	196397	WORD_OFF	n/a	n/a	MUG	5	1	[0, 0, 0]	n/a	FR1	0	R1076D
188.784	1.601	197163	WORD	n/a	wordpools/wordpool_EN.txt	JET	6	1	[0, 0, 0]	n/a	FR1	0	R1076D
190.385	0.834	198764	WORD_OFF	n/a	n/a	JET	6	1	[0, 0, 0]	n/a	FR1	0	R1076D
191.219	1.616	199598	WORD	n/a	wordpools/wordpool_EN.txt	RAT	7	1	[0, 0, 0]	n/a	FR1	0	R1076D
192.835	0.917	201214	WORD_OFF	n/a	n/a	RAT	7	1	[0, 0, 0]	n/a	FR1	0	R1076D
193.752	1.601	202131	WORD	n/a	wordpools/wordpool_EN.txt	SHIRT	8	1	[0, 0, 0]	n/a	FR1	0	R1076D
195.353	0.817	203732	WORD_OFF	n/a	n/a	SHIRT	8	1	[0, 0, 0]	n/a	FR1	0	R1076D
196.17	1.616	204549	WORD	n/a	wordpools/wordpool_EN.txt	PANTS	9	1	[0, 0, 0]	n/a	FR1	0	R1076D
197.786	0.816	206165	WORD_OFF	n/a	n/a	PANTS	9	1	[0, 0, 0]	n/a	FR1	0	R1076D
198.602	1.602	206981	WORD	n/a	wordpools/wordpool_EN.txt	SNAIL	10	1	[0, 0, 0]	n/a	FR1	0	R1076D
200.204	0.983	208582	WORD_OFF	n/a	n/a	SNAIL	10	1	[0, 0, 0]	n/a	FR1	0	R1076D
201.187	1.616	209565	WORD	n/a	wordpools/wordpool_EN.txt	STREET	11	1	[0, 0, 0]	n/a	FR1	0	R1076D
202.803	0.884	211181	WORD_OFF	n/a	n/a	STREET	11	1	[0, 0, 0]	n/a	FR1	0	R1076D
203.687	1.601	212065	WORD	n/a	wordpools/wordpool_EN.txt	FLAG	12	1	[0, 0, 0]	n/a	FR1	0	R1076D
205.288	0.0	213666	WORD_OFF	n/a	n/a	FLAG	12	1	[0, 0, 0]	n/a	FR1	0	R1076D
205.288	0.0	213666	DISTRACT_START	n/a	n/a	n/a	-999	1	[0, 0, 0]	n/a	FR1	0	R1076D
205.288	0.017	213666	START	n/a	n/a	n/a	-999	1	[-999, -999, -999]	n/a	FR1	0	R1076D
205.305	7.617	213683	PROB	7.617	n/a	n/a	-999	1	[8, 7, 6]	21	FR1	0	R1076D
212.922	4.368	221300	PROB	4.368	n/a	n/a	-999	1	[3, 9, 3]	15	FR1	0	R1076D
217.29	3.934	225668	PROB	3.934	n/a	n/a	-999	1	[1, 1, 8]	10	FR1	0	R1076D
221.224	4.346	229601	PROB	4.346	n/a	n/a	-999	1	[7, 1, 5]	13	FR1	0	R1076D
225.57	0.021	233947	STOP	n/a	n/a	n/a	-999	1	[-999, -999, -999]	n/a	FR1	0	R1076D
225.591	0.634	233968	DISTRACT_END	n/a	n/a	n/a	-999	1	[0, 0, 0]	n/a	FR1	0	R1076D
226.225	0.517	234602	RETRIEVAL_ORIENT	n/a	n/a	n/a	-999	1	[0, 0, 0]	n/a	FR1	0	R1076D
226.742	1.594	235119	REC_START	n/a	n/a	n/a	-999	1	[0, 0, 0]	n/a	FR1	0	R1076D
228.336	1.0	236713	REC_WORD_VV	1.0	n/a	<>	-999	1	[0, 0, 0]	n/a	FR1	0	R1076D
229.336	1.523	237713	REC_WORD_VV	1.523	n/a	<>	-999	1	[0, 0, 0]	n/a	FR1	0	R1076D
230.859	21.819	239236	REC_WORD	21.819	n/a	RING	-999	1	[0, 0, 0]	n/a	FR1	0	R1076D
252.678	4.075	261054	REC_WORD	4.075	n/a	CLOTH	3	1	[0, 0, 0]	n/a	FR1	0	R1076D
256.753	6.928	265128	REC_END	n/a	n/a	n/a	-999	1	[0, 0, 0]	n/a	FR1	0	R1076D
263.681	0.5	272056	TRIAL	n/a	n/a	n/a	-999	2	[0, 0, 0]	n/a	FR1	0	R1076D
264.181	10.428	272556	COUNTDOWN_START	n/a	n/a	n/a	-999	2	[0, 0, 0]	n/a	FR1	0	R1076D
274.609	0.007	282983	COUNTDOWN_END	n/a	n/a	n/a	-999	2	[0, 0, 0]	n/a	FR1	0	R1076D
274.616	1.618	282990	ORIENT	n/a	n/a	n/a	-999	2	[0, 0, 0]	n/a	FR1	0	R1076D
276.234	2.167	284608	ORIENT_OFF	n/a	n/a	n/a	-999	2	[0, 0, 0]	n/a	FR1	0	R1076D
278.401	1.617	286775	WORD	n/a	wordpools/wordpool_EN.txt	WEB	1	2	[0, 0, 0]	n/a	FR1	0	R1076D
280.018	0.833	288392	WORD_OFF	n/a	n/a	WEB	1	2	[0, 0, 0]	n/a	FR1	0	R1076D
280.851	1.618	289225	WORD	n/a	wordpools/wordpool_EN.txt	CAKE	2	2	[0, 0, 0]	n/a	FR1	0	R1076D
282.469	0.983	290843	WORD_OFF	n/a	n/a	CAKE	2	2	[0, 0, 0]	n/a	FR1	0	R1076D
283.452	1.617	291826	WORD	n/a	wordpools/wordpool_EN.txt	ROOF	3	2	[0, 0, 0]	n/a	FR1	0	R1076D
285.069	0.816	293443	WORD_OFF	n/a	n/a	ROOF	3	2	[0, 0, 0]	n/a	FR1	0	R1076D
285.885	1.618	294259	WORD	n/a	wordpools/wordpool_EN.txt	VINE	4	2	[0, 0, 0]	n/a	FR1	0	R1076D
287.503	0.767	295877	WORD_OFF	n/a	n/a	VINE	4	2	[0, 0, 0]	n/a	FR1	0	R1076D
288.27	1.616	296644	WORD	n/a	wordpools/wordpool_EN.txt	GEESE	5	2	[0, 0, 0]	n/a	FR1	0	R1076D
289.886	0.9	298260	WORD_OFF	n/a	n/a	GEESE	5	2	[0, 0, 0]	n/a	FR1	0	R1076D
290.786	1.618	299160	WORD	n/a	wordpools/wordpool_EN.txt	BUSH	6	2	[0, 0, 0]	n/a	FR1	0	R1076D
292.404	0.867	300777	WORD_OFF	n/a	n/a	BUSH	6	2	[0, 0, 0]	n/a	FR1	0	R1076D
293.271	1.616	301644	WORD	n/a	wordpools/wordpool_EN.txt	SOUP	7	2	[0, 0, 0]	n/a	FR1	0	R1076D
294.887	0.783	303260	WORD_OFF	n/a	n/a	SOUP	7	2	[0, 0, 0]	n/a	FR1	0	R1076D
295.67	1.618	304043	WORD	n/a	wordpools/wordpool_EN.txt	MOUTH	8	2	[0, 0, 0]	n/a	FR1	0	R1076D
297.288	0.85	305661	WORD_OFF	n/a	n/a	MOUTH	8	2	[0, 0, 0]	n/a	FR1	0	R1076D
298.138	1.616	306511	WORD	n/a	wordpools/wordpool_EN.txt	WHALE	9	2	[0, 0, 0]	n/a	FR1	0	R1076D
299.754	0.934	308127	WORD_OFF	n/a	n/a	WHALE	9	2	[0, 0, 0]	n/a	FR1	0	R1076D
300.688	1.618	309061	WORD	n/a	wordpools/wordpool_EN.txt	JUICE	10	2	[0, 0, 0]	n/a	FR1	0	R1076D
302.306	0.767	310679	WORD_OFF	n/a	n/a	JUICE	10	2	[0, 0, 0]	n/a	FR1	0	R1076D
303.073	1.615	311446	WORD	n/a	wordpools/wordpool_EN.txt	MAT	11	2	[0, 0, 0]	n/a	FR1	0	R1076D
304.688	0.901	313061	WORD_OFF	n/a	n/a	MAT	11	2	[0, 0, 0]	n/a	FR1	0	R1076D
305.589	1.618	313962	WORD	n/a	wordpools/wordpool_EN.txt	BAG	12	2	[0, 0, 0]	n/a	FR1	0	R1076D
307.207	0.0	315580	WORD_OFF	n/a	n/a	BAG	12	2	[0, 0, 0]	n/a	FR1	0	R1076D
307.207	0.0	315580	DISTRACT_START	n/a	n/a	n/a	-999	2	[0, 0, 0]	n/a	FR1	0	R1076D
307.207	0.016	315580	START	n/a	n/a	n/a	-999	2	[-999, -999, -999]	n/a	FR1	0	R1076D
307.223	9.052	315596	PROB	9.052	n/a	n/a	-999	2	[3, 8, 5]	16	FR1	0	R1076D
316.275	3.6	324647	PROB	3.6	n/a	n/a	-999	2	[6, 8, 7]	21	FR1	0	R1076D
319.875	3.185	328247	PROB	3.185	n/a	n/a	-999	2	[2, 6, 4]	12	FR1	0	R1076D
323.06	4.597	331432	PROB	4.597	n/a	n/a	-999	2	[5, 7, 7]	19	FR1	0	R1076D
327.657	0.019	336029	STOP	n/a	n/a	n/a	-999	2	[-999, -999, -999]	n/a	FR1	0	R1076D
327.676	0.568	336048	DISTRACT_END	n/a	n/a	n/a	-999	2	[0, 0, 0]	n/a	FR1	0	R1076D
328.244	0.516	336616	RETRIEVAL_ORIENT	n/a	n/a	n/a	-999	2	[0, 0, 0]	n/a	FR1	0	R1076D
328.76	1.821	337132	REC_START	n/a	n/a	n/a	-999	2	[0, 0, 0]	n/a	FR1	0	R1076D
330.581	1.893	338952	REC_WORD	1.893	n/a	MOUSE	-999	2	[0, 0, 0]	n/a	FR1	0	R1076D
332.474	8.584	340845	REC_WORD	8.584	n/a	JUICE	10	2	[0, 0, 0]	n/a	FR1	0	R1076D
341.058	6.72	349429	REC_WORD	6.72	n/a	COFFEE	-999	2	[0, 0, 0]	n/a	FR1	0	R1076D
347.778	10.991	356149	REC_WORD	10.991	n/a	WEB	1	2	[0, 0, 0]	n/a	FR1	0	R1076D
358.769	7.282	367139	REC_END	n/a	n/a	n/a	-999	2	[0, 0, 0]	n/a	FR1	0	R1076D
366.051	0.5	374421	TRIAL	n/a	n/a	n/a	-999	3	[0, 0, 0]	n/a	FR1	0	R1076D
366.551	10.428	374920	COUNTDOWN_START	n/a	n/a	n/a	-999	3	[0, 0, 0]	n/a	FR1	0	R1076D
376.979	0.006	385348	COUNTDOWN_END	n/a	n/a	n/a	-999	3	[0, 0, 0]	n/a	FR1	0	R1076D
376.985	1.617	385354	ORIENT	n/a	n/a	n/a	-999	3	[0, 0, 0]	n/a	FR1	0	R1076D
378.602	2.2	386971	ORIENT_OFF	n/a	n/a	n/a	-999	3	[0, 0, 0]	n/a	FR1	0	R1076D
380.802	1.618	389171	WORD	n/a	wordpools/wordpool_EN.txt	LAKE	1	3	[0, 0, 0]	n/a	FR1	0	R1076D
382.42	0.917	390789	WORD_OFF	n/a	n/a	LAKE	1	3	[0, 0, 0]	n/a	FR1	0	R1076D
383.337	1.616	391706	WORD	n/a	wordpools/wordpool_EN.txt	NOSE	2	3	[0, 0, 0]	n/a	FR1	0	R1076D
384.953	1.0	393322	WORD_OFF	n/a	n/a	NOSE	2	3	[0, 0, 0]	n/a	FR1	0	R1076D
385.953	1.617	394321	WORD	n/a	wordpools/wordpool_EN.txt	SEED	3	3	[0, 0, 0]	n/a	FR1	0	R1076D
387.57	1.001	395938	WORD_OFF	n/a	n/a	SEED	3	3	[0, 0, 0]	n/a	FR1	0	R1076D
388.571	1.601	396939	WORD	n/a	wordpools/wordpool_EN.txt	SPOON	4	3	[0, 0, 0]	n/a	FR1	0	R1076D
390.172	0.917	398540	WORD_OFF	n/a	n/a	SPOON	4	3	[0, 0, 0]	n/a	FR1	0	R1076D
391.089	1.616	399457	WORD	n/a	wordpools/wordpool_EN.txt	DART	5	3	[0, 0, 0]	n/a	FR1	0	R1076D
392.705	0.983	401073	WORD_OFF	n/a	n/a	DART	5	3	[0, 0, 0]	n/a	FR1	0	R1076D
393.688	1.601	402056	WORD	n/a	wordpools/wordpool_EN.txt	CHAIR	6	3	[0, 0, 0]	n/a	FR1	0	R1076D
395.289	0.767	403657	WORD_OFF	n/a	n/a	CHAIR	6	3	[0, 0, 0]	n/a	FR1	0	R1076D
396.056	1.616	404424	WORD	n/a	wordpools/wordpool_EN.txt	MOUSE	7	3	[0, 0, 0]	n/a	FR1	0	R1076D
397.672	0.934	406040	WORD_OFF	n/a	n/a	MOUSE	7	3	[0, 0, 0]	n/a	FR1	0	R1076D
398.606	1.618	406974	WORD	n/a	wordpools/wordpool_EN.txt	CAT	8	3	[0, 0, 0]	n/a	FR1	0	R1076D
400.224	0.983	408592	WORD_OFF	n/a	n/a	CAT	8	3	[0, 0, 0]	n/a	FR1	0	R1076D
401.207	1.616	409575	WORD	n/a	wordpools/wordpool_EN.txt	FLEA	9	3	[0, 0, 0]	n/a	FR1	0	R1076D
402.823	0.917	411191	WORD_OFF	n/a	n/a	FLEA	9	3	[0, 0, 0]	n/a	FR1	0	R1076D
403.74	1.618	412107	WORD	n/a	wordpools/wordpool_EN.txt	CHIN	10	3	[0, 0, 0]	n/a	FR1	0	R1076D
405.358	0.95	413725	WORD_OFF	n/a	n/a	CHIN	10	3	[0, 0, 0]	n/a	FR1	0	R1076D
406.308	1.616	414675	WORD	n/a	wordpools/wordpool_EN.txt	HAWK	11	3	[0, 0, 0]	n/a	FR1	0	R1076D
407.924	0.8	416291	WORD_OFF	n/a	n/a	HAWK	11	3	[0, 0, 0]	n/a	FR1	0	R1076D
408.724	1.601	417091	WORD	n/a	wordpools/wordpool_EN.txt	ICE	12	3	[0, 0, 0]	n/a	FR1	0	R1076D
410.325	0.0	418692	DISTRACT_START	n/a	n/a	n/a	-999	3	[0, 0, 0]	n/a	FR1	0	R1076D
410.325	0.001	418692	WORD_OFF	n/a	n/a	ICE	12	3	[0, 0, 0]	n/a	FR1	0	R1076D
410.326	0.016	418693	START	n/a	n/a	n/a	-999	3	[-999, -999, -999]	n/a	FR1	0	R1076D
410.342	3.35	418709	PROB	3.35	n/a	n/a	-999	3	[2, 2, 5]	9	FR1	0	R1076D
413.692	4.702	422059	PROB	4.702	n/a	n/a	-999	3	[4, 4, 1]	9	FR1	0	R1076D
418.394	3.817	426761	PROB	3.817	n/a	n/a	-999	3	[3, 1, 8]	12	FR1	0	R1076D
422.211	2.0	430578	PROB	2.0	n/a	n/a	-999	3	[6, 4, 2]	12	FR1	0	R1076D
424.211	3.75	432577	PROB	3.75	n/a	n/a	-999	3	[4, 3, 4]	11	FR1	0	R1076D
427.961	4.601	436327	PROB	4.601	n/a	n/a	-999	3	[3, 4, 6]	17	FR1	0	R1076D
432.562	0.017	440928	STOP	n/a	n/a	n/a	-999	3	[-999, -999, -999]	n/a	FR1	0	R1076D
432.579	0.534	440945	DISTRACT_END	n/a	n/a	n/a	-999	3	[0, 0, 0]	n/a	FR1	0	R1076D
433.113	0.516	441479	RETRIEVAL_ORIENT	n/a	n/a	n/a	-999	3	[0, 0, 0]	n/a	FR1	0	R1076D
433.629	1.527	441995	REC_START	n/a	n/a	n/a	-999	3	[0, 0, 0]	n/a	FR1	0	R1076D
435.156	0.901	443522	REC_WORD	0.901	n/a	CAT	8	3	[0, 0, 0]	n/a	FR1	0	R1076D
436.057	1.026	444423	REC_WORD	1.026	n/a	MOUSE	7	3	[0, 0, 0]	n/a	FR1	0	R1076D
437.083	3.346	445449	REC_WORD	3.346	n/a	HAWK	11	3	[0, 0, 0]	n/a	FR1	0	R1076D
440.429	7.824	448795	REC_WORD	7.824	n/a	CHIN	10	3	[0, 0, 0]	n/a	FR1	0	R1076D
448.253	6.402	456618	REC_WORD	6.402	n/a	GLASS	-999	3	[0, 0, 0]	n/a	FR1	0	R1076D
454.655	5.308	463020	REC_WORD	5.308	n/a	GEESE	-999	3	[0, 0, 0]	n/a	FR1	0	R1076D
459.963	3.675	468327	REC_WORD	3.675	n/a	SOUP	-999	3	[0, 0, 0]	n/a	FR1	0	R1076D
463.638	6.147	472002	REC_END	n/a	n/a	n/a	-999	3	[0, 0, 0]	n/a	FR1	0	R1076D
469.785	0.5	478149	TRIAL	n/a	n/a	n/a	-999	4	[0, 0, 0]	n/a	FR1	0	R1076D
470.285	10.428	478649	COUNTDOWN_START	n/a	n/a	n/a	-999	4	[0, 0, 0]	n/a	FR1	0	R1076D
480.713	0.008	489076	COUNTDOWN_END	n/a	n/a	n/a	-999	4	[0, 0, 0]	n/a	FR1	0	R1076D
480.721	1.618	489084	ORIENT	n/a	n/a	n/a	-999	4	[0, 0, 0]	n/a	FR1	0	R1076D
482.339	2.066	490702	ORIENT_OFF	n/a	n/a	n/a	-999	4	[0, 0, 0]	n/a	FR1	0	R1076D
484.405	1.618	492768	WORD	n/a	wordpools/wordpool_EN.txt	SPEAR	1	4	[0, 0, 0]	n/a	FR1	0	R1076D
486.023	0.932	494386	WORD_OFF	n/a	n/a	SPEAR	1	4	[0, 0, 0]	n/a	FR1	0	R1076D
486.955	1.617	495318	WORD	n/a	wordpools/wordpool_EN.txt	NET	2	4	[0, 0, 0]	n/a	FR1	0	R1076D
488.572	0.851	496935	WORD_OFF	n/a	n/a	NET	2	4	[0, 0, 0]	n/a	FR1	0	R1076D
489.423	1.617	497786	WORD	n/a	wordpools/wordpool_EN.txt	STOOL	3	4	[0, 0, 0]	n/a	FR1	0	R1076D
491.04	0.833	499403	WORD_OFF	n/a	n/a	STOOL	3	4	[0, 0, 0]	n/a	FR1	0	R1076D
491.873	1.618	500236	WORD	n/a	wordpools/wordpool_EN.txt	FLOOR	4	4	[0, 0, 0]	n/a	FR1	0	R1076D
493.491	0.933	501854	WORD_OFF	n/a	n/a	FLOOR	4	4	[0, 0, 0]	n/a	FR1	0	R1076D
494.424	1.617	502787	WORD	n/a	wordpools/wordpool_EN.txt	SKY	5	4	[0, 0, 0]	n/a	FR1	0	R1076D
496.041	0.816	504404	WORD_OFF	n/a	n/a	SKY	5	4	[0, 0, 0]	n/a	FR1	0	R1076D
496.857	1.601	505219	WORD	n/a	wordpools/wordpool_EN.txt	TOY	6	4	[0, 0, 0]	n/a	FR1	0	R1076D
498.458	0.917	506820	WORD_OFF	n/a	n/a	TOY	6	4	[0, 0, 0]	n/a	FR1	0	R1076D
499.375	1.616	507737	WORD	n/a	wordpools/wordpool_EN.txt	NEST	7	4	[0, 0, 0]	n/a	FR1	0	R1076D
500.991	0.85	509353	WORD_OFF	n/a	n/a	NEST	7	4	[0, 0, 0]	n/a	FR1	0	R1076D
501.841	1.601	510203	WORD	n/a	wordpools/wordpool_EN.txt	SALT	8	4	[0, 0, 0]	n/a	FR1	0	R1076D
503.442	0.917	511804	WORD_OFF	n/a	n/a	SALT	8	4	[0, 0, 0]	n/a	FR1	0	R1076D
504.359	1.616	512721	WORD	n/a	wordpools/wordpool_EN.txt	SEAT	9	4	[0, 0, 0]	n/a	FR1	0	R1076D
505.975	0.884	514337	WORD_OFF	n/a	n/a	SEAT	9	4	[0, 0, 0]	n/a	FR1	0	R1076D
506.859	1.618	515221	WORD	n/a	wordpools/wordpool_EN.txt	FORT	10	4	[0, 0, 0]	n/a	FR1	0	R1076D
508.477	0.8	516839	WORD_OFF	n/a	n/a	FORT	10	4	[0, 0, 0]	n/a	FR1	0	R1076D
509.277	1.616	517639	WORD	n/a	wordpools/wordpool_EN.txt	GATE	11	4	[0, 0, 0]	n/a	FR1	0	R1076D
510.893	0.9	519255	WORD_OFF	n/a	n/a	GATE	11	4	[0, 0, 0]	n/a	FR1	0	R1076D
511.793	1.618	520155	WORD	n/a	wordpools/wordpool_EN.txt	TAIL	12	4	[0, 0, 0]	n/a	FR1	0	R1076D
513.411	0.0	521773	WORD_OFF	n/a	n/a	TAIL	12	4	[0, 0, 0]	n/a	FR1	0	R1076D
513.411	0.001	521773	DISTRACT_START	n/a	n/a	n/a	-999	4	[0, 0, 0]	n/a	FR1	0	R1076D
513.412	0.016	521774	START	n/a	n/a	n/a	-999	4	[-999, -999, -999]	n/a	FR1	0	R1076D
513.428	7.784	521790	PROB	7.784	n/a	n/a	-999	4	[5, 2, 5]	12	FR1	0	R1076D
521.212	1.917	529573	PROB	1.917	n/a	n/a	-999	4	[5, 7, 3]	13	FR1	0	R1076D
523.129	6.035	531490	PROB	6.035	n/a	n/a	-999	4	[4, 6, 6]	16	FR1	0	R1076D
529.164	4.967	537525	PROB	4.967	n/a	n/a	-999	4	[2, 4, 8]	14	FR1	0	R1076D
534.131	0.017	542491	STOP	n/a	n/a	n/a	-999	4	[-999, -999, -999]	n/a	FR1	0	R1076D
534.148	0.699	542508	DISTRACT_END	n/a	n/a	n/a	-999	4	[0, 0, 0]	n/a	FR1	0	R1076D
534.847	0.519	543207	RETRIEVAL_ORIENT	n/a	n/a	n/a	-999	4	[0, 0, 0]	n/a	FR1	0	R1076D
535.366	1.8	543726	REC_START	n/a	n/a	n/a	-999	4	[0, 0, 0]	n/a	FR1	0	R1076D
537.166	2.955	545526	REC_WORD	2.955	n/a	SPEAR	1	4	[0, 0, 0]	n/a	FR1	0	R1076D
540.121	3.353	548481	REC_WORD	3.353	n/a	SEAT	9	4	[0, 0, 0]	n/a	FR1	0	R1076D
543.474	1.686	551834	REC_WORD	1.686	n/a	TOY	6	4	[0, 0, 0]	n/a	FR1	0	R1076D
545.16	3.56	553520	REC_WORD	3.56	n/a	SALT	8	4	[0, 0, 0]	n/a	FR1	0	R1076D
548.72	10.103	557080	REC_WORD	10.103	n/a	NET	2	4	[0, 0, 0]	n/a	FR1	0	R1076D
558.823	1.0	567182	REC_WORD	1.0	n/a	CHIN	-999	4	[0, 0, 0]	n/a	FR1	0	R1076D
559.823	5.554	568182	REC_WORD_VV	5.554	n/a	<>	-999	4	[0, 0, 0]	n/a	FR1	0	R1076D
565.377	6.828	573736	REC_END	n/a	n/a	n/a	-999	4	[0, 0, 0]	n/a	FR1	0	R1076D
572.205	0.5	580563	TRIAL	n/a	n/a	n/a	-999	5	[0, 0, 0]	n/a	FR1	0	R1076D
572.705	10.428	581063	COUNTDOWN_START	n/a	n/a	n/a	-999	5	[0, 0, 0]	n/a	FR1	0	R1076D
583.133	0.007	591491	COUNTDOWN_END	n/a	n/a	n/a	-999	5	[0, 0, 0]	n/a	FR1	0	R1076D
583.14	1.616	591498	ORIENT	n/a	n/a	n/a	-999	5	[0, 0, 0]	n/a	FR1	0	R1076D
584.756	2.051	593114	ORIENT_OFF	n/a	n/a	n/a	-999	5	[0, 0, 0]	n/a	FR1	0	R1076D
586.807	1.618	595165	WORD	n/a	wordpools/wordpool_EN.txt	EAR	1	5	[0, 0, 0]	n/a	FR1	0	R1076D
588.425	1.0	596783	WORD_OFF	n/a	n/a	EAR	1	5	[0, 0, 0]	n/a	FR1	0	R1076D
589.425	1.617	597783	WORD	n/a	wordpools/wordpool_EN.txt	JAIL	2	5	[0, 0, 0]	n/a	FR1	0	R1076D
591.042	0.866	599399	WORD_OFF	n/a	n/a	JAIL	2	5	[0, 0, 0]	n/a	FR1	0	R1076D
591.908	1.617	600265	WORD	n/a	wordpools/wordpool_EN.txt	TENT	3	5	[0, 0, 0]	n/a	FR1	0	R1076D
593.525	0.767	601882	WORD_OFF	n/a	n/a	TENT	3	5	[0, 0, 0]	n/a	FR1	0	R1076D
594.292	1.616	602649	WORD	n/a	wordpools/wordpool_EN.txt	FOOD	4	5	[0, 0, 0]	n/a	FR1	0	R1076D
595.908	0.834	604265	WORD_OFF	n/a	n/a	FOOD	4	5	[0, 0, 0]	n/a	FR1	0	R1076D
596.742	1.618	605099	WORD	n/a	wordpools/wordpool_EN.txt	BLUSH	5	5	[0, 0, 0]	n/a	FR1	0	R1076D
598.36	0.8	606717	WORD_OFF	n/a	n/a	BLUSH	5	5	[0, 0, 0]	n/a	FR1	0	R1076D
599.16	1.616	607517	WORD	n/a	wordpools/wordpool_EN.txt	INK	6	5	[0, 0, 0]	n/a	FR1	0	R1076D
600.776	0.85	609133	WORD_OFF	n/a	n/a	INK	6	5	[0, 0, 0]	n/a	FR1	0	R1076D
601.626	1.618	609983	WORD	n/a	wordpools/wordpool_EN.txt	VAN	7	5	[0, 0, 0]	n/a	FR1	0	R1076D
603.244	1.0	611601	WORD_OFF	n/a	n/a	VAN	7	5	[0, 0, 0]	n/a	FR1	0	R1076D
604.244	1.616	612601	WORD	n/a	wordpools/wordpool_EN.txt	CALF	8	5	[0, 0, 0]	n/a	FR1	0	R1076D
605.86	0.917	614217	WORD_OFF	n/a	n/a	CALF	8	5	[0, 0, 0]	n/a	FR1	0	R1076D
606.777	1.618	615134	WORD	n/a	wordpools/wordpool_EN.txt	PRINCE	9	5	[0, 0, 0]	n/a	FR1	0	R1076D
608.395	0.85	616751	WORD_OFF	n/a	n/a	PRINCE	9	5	[0, 0, 0]	n/a	FR1	0	R1076D
609.245	1.616	617601	WORD	n/a	wordpools/wordpool_EN.txt	HOOK	10	5	[0, 0, 0]	n/a	FR1	0	R1076D
610.861	0.867	619217	WORD_OFF	n/a	n/a	HOOK	10	5	[0, 0, 0]	n/a	FR1	0	R1076D
611.728	1.601	620084	WORD	n/a	wordpools/wordpool_EN.txt	LAMB	11	5	[0, 0, 0]	n/a	FR1	0	R1076D
613.329	0.834	621685	WORD_OFF	n/a	n/a	LAMB	11	5	[0, 0, 0]	n/a	FR1	0	R1076D
614.163	1.616	622519	WORD	n/a	wordpools/wordpool_EN.txt	SHIP	12	5	[0, 0, 0]	n/a	FR1	0	R1076D
615.779	0.0	624135	WORD_OFF	n/a	n/a	SHIP	12	5	[0, 0, 0]	n/a	FR1	0	R1076D
615.779	0.0	624135	DISTRACT_START	n/a	n/a	n/a	-999	5	[0, 0, 0]	n/a	FR1	0	R1076D
615.779	0.016	624135	START	n/a	n/a	n/a	-999	5	[-999, -999, -999]	n/a	FR1	0	R1076D
615.795	5.068	624151	PROB	5.068	n/a	n/a	-999	5	[8, 3, 8]	19	FR1	0	R1076D
620.863	3.901	629219	PROB	3.901	n/a	n/a	-999	5	[3, 1, 1]	5	FR1	0	R1076D
624.764	6.201	633120	PROB	6.201	n/a	n/a	-999	5	[8, 2, 6]	16	FR1	0	R1076D
630.965	3.9	639320	PROB	3.9	n/a	n/a	-999	5	[8, 6, 7]	21	FR1	0	R1076D
634.865	2.656	643220	PROB	2.656	n/a	n/a	-999	5	[5, 1, 6]	12	FR1	0	R1076D
637.521	0.012	645876	STOP	n/a	n/a	n/a	-999	5	[-999, -999, -999]	n/a	FR1	0	R1076D
637.533	0.634	645888	DISTRACT_END	n/a	n/a	n/a	-999	5	[0, 0, 0]	n/a	FR1	0	R1076D
638.167	0.516	646522	RETRIEVAL_ORIENT	n/a	n/a	n/a	-999	5	[0, 0, 0]	n/a	FR1	0	R1076D
638.683	1.873	647038	REC_START	n/a	n/a	n/a	-999	5	[0, 0, 0]	n/a	FR1	0	R1076D
640.556	2.842	648911	REC_WORD	2.842	n/a	HOOK	10	5	[0, 0, 0]	n/a	FR1	0	R1076D
643.398	4.55	651753	REC_WORD	4.55	n/a	SHIP	12	5	[0, 0, 0]	n/a	FR1	0	R1076D
647.948	2.559	656302	REC_WORD	2.559	n/a	LAMB	11	5	[0, 0, 0]	n/a	FR1	0	R1076D
650.507	5.025	658861	REC_WORD	5.025	n/a	JAIL	2	5	[0, 0, 0]	n/a	FR1	0	R1076D
655.532	5.902	663886	REC_WORD	5.902	n/a	FOOD	4	5	[0, 0, 0]	n/a	FR1	0	R1076D
661.434	7.261	669788	REC_WORD	7.261	n/a	SEAT	-999	5	[0, 0, 0]	n/a	FR1	0	R1076D
668.695	6.161	677048	REC_END	n/a	n/a	n/a	-999	5	[0, 0, 0]	n/a	FR1	0	R1076D
674.856	0.5	683209	TRIAL	n/a	n/a	n/a	-999	6	[0, 0, 0]	n/a	FR1	0	R1076D
675.356	10.428	683709	COUNTDOWN_START	n/a	n/a	n/a	-999	6	[0, 0, 0]	n/a	FR1	0	R1076D
685.784	0.007	694136	COUNTDOWN_END	n/a	n/a	n/a	-999	6	[0, 0, 0]	n/a	FR1	0	R1076D
685.791	1.618	694143	ORIENT	n/a	n/a	n/a	-999	6	[0, 0, 0]	n/a	FR1	0	R1076D
687.409	2.101	695761	ORIENT_OFF	n/a	n/a	n/a	-999	6	[0, 0, 0]	n/a	FR1	0	R1076D
689.51	1.617	697862	WORD	n/a	wordpools/wordpool_EN.txt	COW	1	6	[0, 0, 0]	n/a	FR1	0	R1076D
691.127	0.782	699479	WORD_OFF	n/a	n/a	COW	1	6	[0, 0, 0]	n/a	FR1	0	R1076D
691.909	1.617	700261	WORD	n/a	wordpools/wordpool_EN.txt	FOAM	2	6	[0, 0, 0]	n/a	FR1	0	R1076D
693.526	1.017	701878	WORD_OFF	n/a	n/a	FOAM	2	6	[0, 0, 0]	n/a	FR1	0	R1076D
694.543	1.618	702895	WORD	n/a	wordpools/wordpool_EN.txt	BAT	3	6	[0, 0, 0]	n/a	FR1	0	R1076D
696.161	0.967	704513	WORD_OFF	n/a	n/a	BAT	3	6	[0, 0, 0]	n/a	FR1	0	R1076D
697.128	1.616	705480	WORD	n/a	wordpools/wordpool_EN.txt	BOY	4	6	[0, 0, 0]	n/a	FR1	0	R1076D
698.744	0.833	707096	WORD_OFF	n/a	n/a	BOY	4	6	[0, 0, 0]	n/a	FR1	0	R1076D
699.577	1.618	707929	WORD	n/a	wordpools/wordpool_EN.txt	FLAME	5	6	[0, 0, 0]	n/a	FR1	0	R1076D
701.195	0.951	709547	WORD_OFF	n/a	n/a	FLAME	5	6	[0, 0, 0]	n/a	FR1	0	R1076D
702.146	1.615	710497	WORD	n/a	wordpools/wordpool_EN.txt	ELF	6	6	[0, 0, 0]	n/a	FR1	0	R1076D
703.761	0.784	712112	WORD_OFF	n/a	n/a	ELF	6	6	[0, 0, 0]	n/a	FR1	0	R1076D
704.545	1.601	712896	WORD	n/a	wordpools/wordpool_EN.txt	JEEP	7	6	[0, 0, 0]	n/a	FR1	0	R1076D
706.146	0.833	714497	WORD_OFF	n/a	n/a	JEEP	7	6	[0, 0, 0]	n/a	FR1	0	R1076D
706.979	1.617	715330	WORD	n/a	wordpools/wordpool_EN.txt	STEAM	8	6	[0, 0, 0]	n/a	FR1	0	R1076D
708.596	0.868	716947	WORD_OFF	n/a	n/a	STEAM	8	6	[0, 0, 0]	n/a	FR1	0	R1076D
709.464	1.616	717815	WORD	n/a	wordpools/wordpool_EN.txt	DUCK	9	6	[0, 0, 0]	n/a	FR1	0	R1076D
711.08	0.8	719431	WORD_OFF	n/a	n/a	DUCK	9	6	[0, 0, 0]	n/a	FR1	0	R1076D
711.88	1.618	720231	WORD	n/a	wordpools/wordpool_EN.txt	PHONE	10	6	[0, 0, 0]	n/a	FR1	0	R1076D
713.498	0.816	721849	WORD_OFF	n/a	n/a	PHONE	10	6	[0, 0, 0]	n/a	FR1	0	R1076D
714.314	1.616	722665	WORD	n/a	wordpools/wordpool_EN.txt	BADGE	11	6	[0, 0, 0]	n/a	FR1	0	R1076D
715.93	0.967	724281	WORD_OFF	n/a	n/a	BADGE	11	6	[0, 0, 0]	n/a	FR1	0	R1076D
716.897	1.618	725248	WORD	n/a	wordpools/wordpool_EN.txt	SHELL	12	6	[0, 0, 0]	n/a	FR1	0	R1076D
718.515	0.0	726866	WORD_OFF	n/a	n/a	SHELL	12	6	[0, 0, 0]	n/a	FR1	0	R1076D
718.515	0.001	726866	DISTRACT_START	n/a	n/a	n/a	-999	6	[0, 0, 0]	n/a	FR1	0	R1076D
718.516	0.015	726867	START	n/a	n/a	n/a	-999	6	[-999, -999, -999]	n/a	FR1	0	R1076D
718.531	6.619	726882	PROB	6.619	n/a	n/a	-999	6	[7, 9, 5]	21	FR1	0	R1076D
725.15	3.849	733500	PROB	3.849	n/a	n/a	-999	6	[5, 4, 3]	12	FR1	0	R1076D
728.999	3.252	737349	PROB	3.252	n/a	n/a	-999	6	[2, 5, 1]	8	FR1	0	R1076D
732.251	3.583	740601	PROB	3.583	n/a	n/a	-999	6	[9, 1, 3]	13	FR1	0	R1076D
735.834	4.354	744184	PROB	4.354	n/a	n/a	-999	6	[8, 4, 3]	15	FR1	0	R1076D
740.188	0.014	748537	STOP	n/a	n/a	n/a	-999	6	[-999, -999, -999]	n/a	FR1	0	R1076D
740.202	0.583	748551	DISTRACT_END	n/a	n/a	n/a	-999	6	[0, 0, 0]	n/a	FR1	0	R1076D
740.785	0.518	749134	RETRIEVAL_ORIENT	n/a	n/a	n/a	-999	6	[0, 0, 0]	n/a	FR1	0	R1076D
741.303	1.384	749652	REC_START	n/a	n/a	n/a	-999	6	[0, 0, 0]	n/a	FR1	0	R1076D
742.687	1.42	751036	REC_WORD	1.42	n/a	COW	1	6	[0, 0, 0]	n/a	FR1	0	R1076D
744.107	1.749	752456	REC_WORD	1.749	n/a	BAT	3	6	[0, 0, 0]	n/a	FR1	0	R1076D
745.856	2.155	754205	REC_WORD	2.155	n/a	BOY	4	6	[0, 0, 0]	n/a	FR1	0	R1076D
748.011	15.097	756360	REC_WORD	15.097	n/a	FOAM	2	6	[0, 0, 0]	n/a	FR1	0	R1076D
763.108	8.206	771456	REC_WORD	8.206	n/a	TOY	-999	6	[0, 0, 0]	n/a	FR1	0	R1076D
771.314	5.912	779662	REC_END	n/a	n/a	n/a	-999	6	[0, 0, 0]	n/a	FR1	0	R1076D
777.226	0.5	785573	TRIAL	n/a	n/a	n/a	-999	7	[0, 0, 0]	n/a	FR1	0	R1076D
777.726	10.428	786073	COUNTDOWN_START	n/a	n/a	n/a	-999	7	[0, 0, 0]	n/a	FR1	0	R1076D
788.154	0.007	796501	COUNTDOWN_END	n/a	n/a	n/a	-999	7	[0, 0, 0]	n/a	FR1	0	R1076D
788.161	1.616	796508	ORIENT	n/a	n/a	n/a	-999	7	[0, 0, 0]	n/a	FR1	0	R1076D
789.777	2.184	798124	ORIENT_OFF	n/a	n/a	n/a	-999	7	[0, 0, 0]	n/a	FR1	0	R1076D
791.961	1.617	800308	WORD	n/a	wordpools/wordpool_EN.txt	FARM	1	7	[0, 0, 0]	n/a	FR1	0	R1076D
793.578	0.983	801925	WORD_OFF	n/a	n/a	FARM	1	7	[0, 0, 0]	n/a	FR1	0	R1076D
794.561	1.601	802907	WORD	n/a	wordpools/wordpool_EN.txt	HAT	2	7	[0, 0, 0]	n/a	FR1	0	R1076D
796.162	0.783	804508	WORD_OFF	n/a	n/a	HAT	2	7	[0, 0, 0]	n/a	FR1	0	R1076D
796.945	1.617	805291	WORD	n/a	wordpools/wordpool_EN.txt	FORK	3	7	[0, 0, 0]	n/a	FR1	0	R1076D
798.562	0.967	806908	WORD_OFF	n/a	n/a	FORK	3	7	[0, 0, 0]	n/a	FR1	0	R1076D
799.529	1.618	807875	WORD	n/a	wordpools/wordpool_EN.txt	FACE	4	7	[0, 0, 0]	n/a	FR1	0	R1076D
801.147	0.849	809493	WORD_OFF	n/a	n/a	FACE	4	7	[0, 0, 0]	n/a	FR1	0	R1076D
801.996	1.617	810342	WORD	n/a	wordpools/wordpool_EN.txt	TOE	5	7	[0, 0, 0]	n/a	FR1	0	R1076D
803.613	0.95	811959	WORD_OFF	n/a	n/a	TOE	5	7	[0, 0, 0]	n/a	FR1	0	R1076D
804.563	1.602	812909	WORD	n/a	wordpools/wordpool_EN.txt	COUCH	6	7	[0, 0, 0]	n/a	FR1	0	R1076D
806.165	0.832	814511	WORD_OFF	n/a	n/a	COUCH	6	7	[0, 0, 0]	n/a	FR1	0	R1076D
806.997	1.617	815343	WORD	n/a	wordpools/wordpool_EN.txt	PEN	7	7	[0, 0, 0]	n/a	FR1	0	R1076D
808.614	0.917	816960	WORD_OFF	n/a	n/a	PEN	7	7	[0, 0, 0]	n/a	FR1	0	R1076D
809.531	1.618	817877	WORD	n/a	wordpools/wordpool_EN.txt	CHALK	8	7	[0, 0, 0]	n/a	FR1	0	R1076D
811.149	0.867	819495	WORD_OFF	n/a	n/a	CHALK	8	7	[0, 0, 0]	n/a	FR1	0	R1076D
812.016	1.616	820362	WORD	n/a	wordpools/wordpool_EN.txt	DRESS	9	7	[0, 0, 0]	n/a	FR1	0	R1076D
813.632	0.9	821977	WORD_OFF	n/a	n/a	DRESS	9	7	[0, 0, 0]	n/a	FR1	0	R1076D
814.532	1.618	822877	WORD	n/a	wordpools/wordpool_EN.txt	SLIME	10	7	[0, 0, 0]	n/a	FR1	0	R1076D
816.15	0.832	824495	WORD_OFF	n/a	n/a	SLIME	10	7	[0, 0, 0]	n/a	FR1	0	R1076D
816.982	1.617	825327	WORD	n/a	wordpools/wordpool_EN.txt	GUARD	11	7	[0, 0, 0]	n/a	FR1	0	R1076D
818.599	0.785	826944	WORD_OFF	n/a	n/a	GUARD	11	7	[0, 0, 0]	n/a	FR1	0	R1076D
819.384	1.616	827729	WORD	n/a	wordpools/wordpool_EN.txt	BOARD	12	7	[0, 0, 0]	n/a	FR1	0	R1076D
821.0	0.0	829345	DISTRACT_START	n/a	n/a	n/a	-999	7	[0, 0, 0]	n/a	FR1	0	R1076D
821.0	0.0	829345	WORD_OFF	n/a	n/a	BOARD	12	7	[0, 0, 0]	n/a	FR1	0	R1076D
821.0	0.017	829345	START	n/a	n/a	n/a	-999	7	[-999, -999, -999]	n/a	FR1	0	R1076D
821.017	3.75	829362	PROB	3.75	n/a	n/a	-999	7	[2, 1, 5]	8	FR1	0	R1076D
824.767	3.485	833112	PROB	3.485	n/a	n/a	-999	7	[6, 9, 5]	21	FR1	0	R1076D
828.252	12.019	836597	PROB	12.019	n/a	n/a	-999	7	[5, 3, 1]	9	FR1	0	R1076D
840.271	6.907	848615	PROB	6.907	n/a	n/a	-999	7	[2, 5, 7]	14	FR1	0	R1076D
847.178	0.011	855522	STOP	n/a	n/a	n/a	-999	7	[-999, -999, -999]	n/a	FR1	0	R1076D
847.189	0.665	855533	DISTRACT_END	n/a	n/a	n/a	-999	7	[0, 0, 0]	n/a	FR1	0	R1076D
847.854	0.519	856198	RETRIEVAL_ORIENT	n/a	n/a	n/a	-999	7	[0, 0, 0]	n/a	FR1	0	R1076D
848.373	1.336	856717	REC_START	n/a	n/a	n/a	-999	7	[0, 0, 0]	n/a	FR1	0	R1076D
849.709	1.0	858053	REC_WORD_VV	1.0	n/a	<>	-999	7	[0, 0, 0]	n/a	FR1	0	R1076D
850.709	5.169	859052	REC_WORD_VV	5.169	n/a	<>	-999	7	[0, 0, 0]	n/a	FR1	0	R1076D
855.878	3.702	864221	REC_WORD	3.702	n/a	COW	-999	7	[0, 0, 0]	n/a	FR1	0	R1076D
859.58	0.85	867923	REC_WORD	0.85	n/a	BOY	-999	7	[0, 0, 0]	n/a	FR1	0	R1076D
860.43	2.303	868773	REC_WORD	2.303	n/a	BAT	-999	7	[0, 0, 0]	n/a	FR1	0	R1076D
862.733	1.046	871076	REC_WORD	1.046	n/a	FOAM	-999	7	[0, 0, 0]	n/a	FR1	0	R1076D
863.779	1.249	872122	REC_WORD	1.249	n/a	GUARD	11	7	[0, 0, 0]	n/a	FR1	0	R1076D
865.028	13.355	873371	REC_WORD	13.355	n/a	SLIME	10	7	[0, 0, 0]	n/a	FR1	0	R1076D
878.383	18.748	886725	REC_END	n/a	n/a	n/a	-999	7	[0, 0, 0]	n/a	FR1	0	R1076D
897.131	0.5	905472	TRIAL	n/a	n/a	n/a	-999	8	[0, 0, 0]	n/a	FR1	0	R1076D
897.631	10.428	905972	COUNTDOWN_START	n/a	n/a	n/a	-999	8	[0, 0, 0]	n/a	FR1	0	R1076D
908.059	0.007	916399	COUNTDOWN_END	n/a	n/a	n/a	-999	8	[0, 0, 0]	n/a	FR1	0	R1076D
908.066	1.616	916406	ORIENT	n/a	n/a	n/a	-999	8	[0, 0, 0]	n/a	FR1	0	R1076D
909.682	2.318	918022	ORIENT_OFF	n/a	n/a	n/a	-999	8	[0, 0, 0]	n/a	FR1	0	R1076D
912.0	1.617	920340	WORD	n/a	wordpools/wordpool_EN.txt	STORM	1	8	[0, 0, 0]	n/a	FR1	0	R1076D
913.617	0.901	921957	WORD_OFF	n/a	n/a	STORM	1	8	[0, 0, 0]	n/a	FR1	0	R1076D
914.518	1.617	922858	WORD	n/a	wordpools/wordpool_EN.txt	SKUNK	2	8	[0, 0, 0]	n/a	FR1	0	R1076D
916.135	0.798	924475	WORD_OFF	n/a	n/a	SKUNK	2	8	[0, 0, 0]	n/a	FR1	0	R1076D
916.933	1.618	925273	WORD	n/a	wordpools/wordpool_EN.txt	MILK	3	8	[0, 0, 0]	n/a	FR1	0	R1076D
918.551	0.884	926891	WORD_OFF	n/a	n/a	MILK	3	8	[0, 0, 0]	n/a	FR1	0	R1076D
919.435	1.617	927775	WORD	n/a	wordpools/wordpool_EN.txt	ROOT	4	8	[0, 0, 0]	n/a	FR1	0	R1076D
921.052	0.799	929392	WORD_OFF	n/a	n/a	ROOT	4	8	[0, 0, 0]	n/a	FR1	0	R1076D
921.851	1.618	930191	WORD	n/a	wordpools/wordpool_EN.txt	BED	5	8	[0, 0, 0]	n/a	FR1	0	R1076D
923.469	0.834	931809	WORD_OFF	n/a	n/a	BED	5	8	[0, 0, 0]	n/a	FR1	0	R1076D
924.303	1.616	932643	WORD	n/a	wordpools/wordpool_EN.txt	MOOSE	6	8	[0, 0, 0]	n/a	FR1	0	R1076D
925.919	0.95	934258	WORD_OFF	n/a	n/a	MOOSE	6	8	[0, 0, 0]	n/a	FR1	0	R1076D
926.869	1.601	935208	WORD	n/a	wordpools/wordpool_EN.txt	GLASS	7	8	[0, 0, 0]	n/a	FR1	0	R1076D
928.47	0.867	936809	WORD_OFF	n/a	n/a	GLASS	7	8	[0, 0, 0]	n/a	FR1	0	R1076D
929.337	1.616	937676	WORD	n/a	wordpools/wordpool_EN.txt	CAPE	8	8	[0, 0, 0]	n/a	FR1	0	R1076D
930.953	0.984	939292	WORD_OFF	n/a	n/a	CAPE	8	8	[0, 0, 0]	n/a	FR1	0	R1076D
931.937	1.616	940276	WORD	n/a	wordpools/wordpool_EN.txt	MAZE	9	8	[0, 0, 0]	n/a	FR1	0	R1076D
933.553	0.935	941892	WORD_OFF	n/a	n/a	MAZE	9	8	[0, 0, 0]	n/a	FR1	0	R1076D
934.488	1.617	942827	WORD	n/a	wordpools/wordpool_EN.txt	BEE	10	8	[0, 0, 0]	n/a	FR1	0	R1076D
936.105	0.984	944444	WORD_OFF	n/a	n/a	BEE	10	8	[0, 0, 0]	n/a	FR1	0	R1076D
937.089	1.615	945428	WORD	n/a	wordpools/wordpool_EN.txt	SMILE	11	8	[0, 0, 0]	n/a	FR1	0	R1076D
938.704	0.917	947043	WORD_OFF	n/a	n/a	SMILE	11	8	[0, 0, 0]	n/a	FR1	0	R1076D
939.621	1.618	947960	WORD	n/a	wordpools/wordpool_EN.txt	WOLF	12	8	[0, 0, 0]	n/a	FR1	0	R1076D
941.239	0.0	949578	WORD_OFF	n/a	n/a	WOLF	12	8	[0, 0, 0]	n/a	FR1	0	R1076D
941.239	0.001	949578	DISTRACT_START	n/a	n/a	n/a	-999	8	[0, 0, 0]	n/a	FR1	0	R1076D
941.24	0.016	949579	START	n/a	n/a	n/a	-999	8	[-999, -999, -999]	n/a	FR1	0	R1076D
941.256	6.35	949595	PROB	6.35	n/a	n/a	-999	8	[8, 6, 7]	21	FR1	0	R1076D
947.606	6.235	955944	PROB	6.235	n/a	n/a	-999	8	[9, 3, 8]	20	FR1	0	R1076D
953.841	3.934	962179	PROB	3.934	n/a	n/a	-999	8	[4, 3, 1]	8	FR1	0	R1076D
957.775	8.074	966113	PROB	8.074	n/a	n/a	-999	8	[8, 8, 8]	24	FR1	0	R1076D
965.849	0.01	974186	STOP	n/a	n/a	n/a	-999	8	[-999, -999, -999]	n/a	FR1	0	R1076D
965.859	0.518	974196	DISTRACT_END	n/a	n/a	n/a	-999	8	[0, 0, 0]	n/a	FR1	0	R1076D
966.377	0.517	974714	RETRIEVAL_ORIENT	n/a	n/a	n/a	-999	8	[0, 0, 0]	n/a	FR1	0	R1076D
966.894	1.511	975231	REC_START	n/a	n/a	n/a	-999	8	[0, 0, 0]	n/a	FR1	0	R1076D
968.405	0.811	976742	REC_WORD	0.811	n/a	GLASS	7	8	[0, 0, 0]	n/a	FR1	0	R1076D
969.216	1.237	977553	REC_WORD	1.237	n/a	MOOC	-999	8	[0, 0, 0]	n/a	FR1	0	R1076D
970.453	1.097	978790	REC_WORD_VV	1.097	n/a	<>	-999	8	[0, 0, 0]	n/a	FR1	0	R1076D
971.55	0.785	979887	REC_WORD	0.785	n/a	MILK	3	8	[0, 0, 0]	n/a	FR1	0	R1076D
972.335	15.721	980672	REC_WORD	15.721	n/a	MOOSE	6	8	[0, 0, 0]	n/a	FR1	0	R1076D
988.056	8.848	996392	REC_WORD	8.848	n/a	COUCH	-999	8	[0, 0, 0]	n/a	FR1	0	R1076D
996.904	5.58	1005240	REC_END	n/a	n/a	n/a	-999	8	[0, 0, 0]	n/a	FR1	0	R1076D
1002.484	0.5	1010819	TRIAL	n/a	n/a	n/a	-999	9	[0, 0, 0]	n/a	FR1	0	R1076D
1002.984	10.428	1011319	COUNTDOWN_START	n/a	n/a	n/a	-999	9	[0, 0, 0]	n/a	FR1	0	R1076D
1013.412	0.007	1021747	COUNTDOWN_END	n/a	n/a	n/a	-999	9	[0, 0, 0]	n/a	FR1	0	R1076D
1013.419	1.617	1021754	ORIENT	n/a	n/a	n/a	-999	9	[0, 0, 0]	n/a	FR1	0	R1076D
1015.036	2.034	1023371	ORIENT_OFF	n/a	n/a	n/a	-999	9	[0, 0, 0]	n/a	FR1	0	R1076D
1017.07	1.616	1025405	WORD	n/a	wordpools/wordpool_EN.txt	GRAPE	1	9	[0, 0, 0]	n/a	FR1	0	R1076D
1018.686	0.85	1027020	WORD_OFF	n/a	n/a	GRAPE	1	9	[0, 0, 0]	n/a	FR1	0	R1076D
1019.536	1.601	1027870	WORD	n/a	wordpools/wordpool_EN.txt	COIN	2	9	[0, 0, 0]	n/a	FR1	0	R1076D
1021.137	0.849	1029471	WORD_OFF	n/a	n/a	COIN	2	9	[0, 0, 0]	n/a	FR1	0	R1076D
1021.986	1.617	1030320	WORD	n/a	wordpools/wordpool_EN.txt	CLOCK	3	9	[0, 0, 0]	n/a	FR1	0	R1076D
1023.603	0.801	1031937	WORD_OFF	n/a	n/a	CLOCK	3	9	[0, 0, 0]	n/a	FR1	0	R1076D
1024.404	1.617	1032738	WORD	n/a	wordpools/wordpool_EN.txt	GLOVE	4	9	[0, 0, 0]	n/a	FR1	0	R1076D
1026.021	0.833	1034355	WORD_OFF	n/a	n/a	GLOVE	4	9	[0, 0, 0]	n/a	FR1	0	R1076D
1026.854	1.618	1035188	WORD	n/a	wordpools/wordpool_EN.txt	BEACH	5	9	[0, 0, 0]	n/a	FR1	0	R1076D
1028.472	0.95	1036806	WORD_OFF	n/a	n/a	BEACH	5	9	[0, 0, 0]	n/a	FR1	0	R1076D
1029.422	1.617	1037756	WORD	n/a	wordpools/wordpool_EN.txt	LAND	6	9	[0, 0, 0]	n/a	FR1	0	R1076D
1031.039	0.949	1039373	WORD_OFF	n/a	n/a	LAND	6	9	[0, 0, 0]	n/a	FR1	0	R1076D
1031.988	1.617	1040322	WORD	n/a	wordpools/wordpool_EN.txt	BRICK	7	9	[0, 0, 0]	n/a	FR1	0	R1076D
1033.605	0.801	1041939	WORD_OFF	n/a	n/a	BRICK	7	9	[0, 0, 0]	n/a	FR1	0	R1076D
1034.406	1.617	1042740	WORD	n/a	wordpools/wordpool_EN.txt	GOLD	8	9	[0, 0, 0]	n/a	FR1	0	R1076D
1036.023	0.783	1044357	WORD_OFF	n/a	n/a	GOLD	8	9	[0, 0, 0]	n/a	FR1	0	R1076D
1036.806	1.601	1045139	WORD	n/a	wordpools/wordpool_EN.txt	CANE	9	9	[0, 0, 0]	n/a	FR1	0	R1076D
1038.407	0.95	1046740	WORD_OFF	n/a	n/a	CANE	9	9	[0, 0, 0]	n/a	FR1	0	R1076D
1039.357	1.616	1047690	WORD	n/a	wordpools/wordpool_EN.txt	FUR	10	9	[0, 0, 0]	n/a	FR1	0	R1076D
1040.973	0.9	1049306	WORD_OFF	n/a	n/a	FUR	10	9	[0, 0, 0]	n/a	FR1	0	R1076D
1041.873	1.602	1050206	WORD	n/a	wordpools/wordpool_EN.txt	WORLD	11	9	[0, 0, 0]	n/a	FR1	0	R1076D
1043.475	0.883	1051808	WORD_OFF	n/a	n/a	WORLD	11	9	[0, 0, 0]	n/a	FR1	0	R1076D
1044.358	1.616	1052691	WORD	n/a	wordpools/wordpool_EN.txt	OWL	12	9	[0, 0, 0]	n/a	FR1	0	R1076D
1045.974	0.0	1054307	WORD_OFF	n/a	n/a	OWL	12	9	[0, 0, 0]	n/a	FR1	0	R1076D
1045.974	0.0	1054307	DISTRACT_START	n/a	n/a	n/a	-999	9	[0, 0, 0]	n/a	FR1	0	R1076D
1045.974	0.017	1054307	START	n/a	n/a	n/a	-999	9	[-999, -999, -999]	n/a	FR1	0	R1076D
1045.991	4.551	1054324	PROB	4.551	n/a	n/a	-999	9	[2, 7, 4]	13	FR1	0	R1076D
1050.542	6.685	1058875	PROB	6.685	n/a	n/a	-999	9	[9, 4, 6]	19	FR1	0	R1076D
1057.227	3.75	1065559	PROB	3.75	n/a	n/a	-999	9	[6, 7, 3]	16	FR1	0	R1076D
1060.977	5.353	1069309	PROB	5.353	n/a	n/a	-999	9	[4, 9, 4]	17	FR1	0	R1076D
1066.33	0.015	1074662	STOP	n/a	n/a	n/a	-999	9	[-999, -999, -999]	n/a	FR1	0	R1076D
1066.345	0.516	1074677	DISTRACT_END	n/a	n/a	n/a	-999	9	[0, 0, 0]	n/a	FR1	0	R1076D
1066.861	0.502	1075193	RETRIEVAL_ORIENT	n/a	n/a	n/a	-999	9	[0, 0, 0]	n/a	FR1	0	R1076D
1067.363	2.095	1075695	REC_START	n/a	n/a	n/a	-999	9	[0, 0, 0]	n/a	FR1	0	R1076D
1069.458	0.986	1077790	REC_WORD	0.986	n/a	GLASS	-999	9	[0, 0, 0]	n/a	FR1	0	R1076D
1070.444	1.055	1078776	REC_WORD	1.055	n/a	BEACH	5	9	[0, 0, 0]	n/a	FR1	0	R1076D
1071.499	6.873	1079831	REC_WORD	6.873	n/a	LAND	6	9	[0, 0, 0]	n/a	FR1	0	R1076D
1078.372	0.774	1086703	REC_WORD	0.774	n/a	COIN	2	9	[0, 0, 0]	n/a	FR1	0	R1076D
1079.146	14.23	1087477	REC_WORD	14.23	n/a	CLOCK	3	9	[0, 0, 0]	n/a	FR1	0	R1076D
1093.376	3.997	1101706	REC_WORD	3.997	n/a	TINT	-999	9	[0, 0, 0]	n/a	FR1	0	R1076D
1097.373	6.262	1105703	REC_END	n/a	n/a	n/a	-999	9	[0, 0, 0]	n/a	FR1	0	R1076D
1103.635	0.5	1111965	TRIAL	n/a	n/a	n/a	-999	10	[0, 0, 0]	n/a	FR1	0	R1076D
1104.135	10.428	1112465	COUNTDOWN_START	n/a	n/a	n/a	-999	10	[0, 0, 0]	n/a	FR1	0	R1076D
1114.563	0.007	1122892	COUNTDOWN_END	n/a	n/a	n/a	-999	10	[0, 0, 0]	n/a	FR1	0	R1076D
1114.57	1.618	1122899	ORIENT	n/a	n/a	n/a	-999	10	[0, 0, 0]	n/a	FR1	0	R1076D
1116.188	1.816	1124517	ORIENT_OFF	n/a	n/a	n/a	-999	10	[0, 0, 0]	n/a	FR1	0	R1076D
1118.004	1.617	1126333	WORD	n/a	wordpools/wordpool_EN.txt	CUBE	1	10	[0, 0, 0]	n/a	FR1	0	R1076D
1119.621	0.784	1127950	WORD_OFF	n/a	n/a	CUBE	1	10	[0, 0, 0]	n/a	FR1	0	R1076D
1120.405	1.617	1128734	WORD	n/a	wordpools/wordpool_EN.txt	CROW	2	10	[0, 0, 0]	n/a	FR1	0	R1076D
1122.022	0.984	1130351	WORD_OFF	n/a	n/a	CROW	2	10	[0, 0, 0]	n/a	FR1	0	R1076D
1123.006	1.616	1131335	WORD	n/a	wordpools/wordpool_EN.txt	FRUIT	3	10	[0, 0, 0]	n/a	FR1	0	R1076D
1124.622	0.967	1132951	WORD_OFF	n/a	n/a	FRUIT	3	10	[0, 0, 0]	n/a	FR1	0	R1076D
1125.589	1.618	1133918	WORD	n/a	wordpools/wordpool_EN.txt	SEA	4	10	[0, 0, 0]	n/a	FR1	0	R1076D
1127.207	0.9	1135536	WORD_OFF	n/a	n/a	SEA	4	10	[0, 0, 0]	n/a	FR1	0	R1076D
1128.107	1.616	1136436	WORD	n/a	wordpools/wordpool_EN.txt	WAVE	5	10	[0, 0, 0]	n/a	FR1	0	R1076D
1129.723	0.933	1138051	WORD_OFF	n/a	n/a	WAVE	5	10	[0, 0, 0]	n/a	FR1	0	R1076D
1130.656	1.618	1138984	WORD	n/a	wordpools/wordpool_EN.txt	BANK	6	10	[0, 0, 0]	n/a	FR1	0	R1076D
1132.274	0.834	1140602	WORD_OFF	n/a	n/a	BANK	6	10	[0, 0, 0]	n/a	FR1	0	R1076D
1133.108	1.616	1141436	WORD	n/a	wordpools/wordpool_EN.txt	CHIEF	7	10	[0, 0, 0]	n/a	FR1	0	R1076D
1134.724	1.0	1143052	WORD_OFF	n/a	n/a	CHIEF	7	10	[0, 0, 0]	n/a	FR1	0	R1076D
1135.724	1.618	1144052	WORD	n/a	wordpools/wordpool_EN.txt	ROAD	8	10	[0, 0, 0]	n/a	FR1	0	R1076D
1137.342	0.817	1145670	WORD_OFF	n/a	n/a	ROAD	8	10	[0, 0, 0]	n/a	FR1	0	R1076D
1138.159	1.616	1146487	WORD	n/a	wordpools/wordpool_EN.txt	PET	9	10	[0, 0, 0]	n/a	FR1	0	R1076D
1139.775	0.9	1148103	WORD_OFF	n/a	n/a	PET	9	10	[0, 0, 0]	n/a	FR1	0	R1076D
1140.675	1.618	1149003	WORD	n/a	wordpools/wordpool_EN.txt	BEAN	10	10	[0, 0, 0]	n/a	FR1	0	R1076D
1142.293	0.967	1150621	WORD_OFF	n/a	n/a	BEAN	10	10	[0, 0, 0]	n/a	FR1	0	R1076D
1143.26	1.616	1151588	WORD	n/a	wordpools/wordpool_EN.txt	MOTH	11	10	[0, 0, 0]	n/a	FR1	0	R1076D
1144.876	0.9	1153204	WORD_OFF	n/a	n/a	MOTH	11	10	[0, 0, 0]	n/a	FR1	0	R1076D
1145.776	1.618	1154104	WORD	n/a	wordpools/wordpool_EN.txt	TOOL	12	10	[0, 0, 0]	n/a	FR1	0	R1076D
1147.394	0.0	1155722	WORD_OFF	n/a	n/a	TOOL	12	10	[0, 0, 0]	n/a	FR1	0	R1076D
1147.394	0.0	1155722	DISTRACT_START	n/a	n/a	n/a	-999	10	[0, 0, 0]	n/a	FR1	0	R1076D
1147.394	0.016	1155722	START	n/a	n/a	n/a	-999	10	[-999, -999, -999]	n/a	FR1	0	R1076D
1147.41	5.101	1155738	PROB	5.101	n/a	n/a	-999	10	[2, 8, 6]	16	FR1	0	R1076D
1152.511	6.601	1160838	PROB	6.601	n/a	n/a	-999	10	[7, 3, 9]	19	FR1	0	R1076D
1159.112	5.918	1167439	PROB	5.918	n/a	n/a	-999	10	[6, 6, 7]	19	FR1	0	R1076D
1165.03	6.27	1173357	PROB	6.27	n/a	n/a	-999	10	[5, 8, 1]	14	FR1	0	R1076D
1171.3	0.015	1179626	STOP	n/a	n/a	n/a	-999	10	[-999, -999, -999]	n/a	FR1	0	R1076D
1171.315	0.549	1179641	DISTRACT_END	n/a	n/a	n/a	-999	10	[0, 0, 0]	n/a	FR1	0	R1076D
1171.864	0.518	1180190	RETRIEVAL_ORIENT	n/a	n/a	n/a	-999	10	[0, 0, 0]	n/a	FR1	0	R1076D
1172.382	1.946	1180708	REC_START	n/a	n/a	n/a	-999	10	[0, 0, 0]	n/a	FR1	0	R1076D
1174.328	1.0	1182654	REC_WORD_VV	1.0	n/a	<>	-999	10	[0, 0, 0]	n/a	FR1	0	R1076D
1175.328	0.465	1183654	REC_WORD_VV	0.465	n/a	<>	-999	10	[0, 0, 0]	n/a	FR1	0	R1076D
1175.793	4.79	1184119	REC_WORD	4.79	n/a	CROW	2	10	[0, 0, 0]	n/a	FR1	0	R1076D
1180.583	4.56	1188909	REC_WORD	4.56	n/a	PET	9	10	[0, 0, 0]	n/a	FR1	0	R1076D
1185.143	10.404	1193468	REC_WORD	10.404	n/a	TOOL	12	10	[0, 0, 0]	n/a	FR1	0	R1076D
1195.547	1.153	1203872	REC_WORD	1.153	n/a	COIN	-999	10	[0, 0, 0]	n/a	FR1	0	R1076D
1196.7	5.692	1205025	REC_WORD	5.692	n/a	COUCH	-999	10	[0, 0, 0]	n/a	FR1	0	R1076D
1202.392	6.562	1210717	REC_END	n/a	n/a	n/a	-999	10	[0, 0, 0]	n/a	FR1	0	R1076D
1208.954	0.5	1217278	TRIAL	n/a	n/a	n/a	-999	11	[0, 0, 0]	n/a	FR1	0	R1076D
1209.454	10.428	1217778	COUNTDOWN_START	n/a	n/a	n/a	-999	11	[0, 0, 0]	n/a	FR1	0	R1076D
1219.882	0.007	1228206	COUNTDOWN_END	n/a	n/a	n/a	-999	11	[0, 0, 0]	n/a	FR1	0	R1076D
1219.889	1.601	1228213	ORIENT	n/a	n/a	n/a	-999	11	[0, 0, 0]	n/a	FR1	0	R1076D
1221.49	2.033	1229814	ORIENT_OFF	n/a	n/a	n/a	-999	11	[0, 0, 0]	n/a	FR1	0	R1076D
1223.523	1.618	1231846	WORD	n/a	wordpools/wordpool_EN.txt	PIG	1	11	[0, 0, 0]	n/a	FR1	0	R1076D
1225.141	0.766	1233464	WORD_OFF	n/a	n/a	PIG	1	11	[0, 0, 0]	n/a	FR1	0	R1076D
1225.907	1.617	1234230	WORD	n/a	wordpools/wordpool_EN.txt	ROPE	2	11	[0, 0, 0]	n/a	FR1	0	R1076D
1227.524	0.901	1235847	WORD_OFF	n/a	n/a	ROPE	2	11	[0, 0, 0]	n/a	FR1	0	R1076D
1228.425	1.617	1236748	WORD	n/a	wordpools/wordpool_EN.txt	MAP	3	11	[0, 0, 0]	n/a	FR1	0	R1076D
1230.042	0.883	1238365	WORD_OFF	n/a	n/a	MAP	3	11	[0, 0, 0]	n/a	FR1	0	R1076D
1230.925	1.616	1239248	WORD	n/a	wordpools/wordpool_EN.txt	CLOWN	4	11	[0, 0, 0]	n/a	FR1	0	R1076D
1232.541	0.952	1240864	WORD_OFF	n/a	n/a	CLOWN	4	11	[0, 0, 0]	n/a	FR1	0	R1076D
1233.493	1.617	1241816	WORD	n/a	wordpools/wordpool_EN.txt	DOG	5	11	[0, 0, 0]	n/a	FR1	0	R1076D
1235.11	1.0	1243433	WORD_OFF	n/a	n/a	DOG	5	11	[0, 0, 0]	n/a	FR1	0	R1076D
1236.11	1.616	1244433	WORD	n/a	wordpools/wordpool_EN.txt	RUG	6	11	[0, 0, 0]	n/a	FR1	0	R1076D
1237.726	0.883	1246049	WORD_OFF	n/a	n/a	RUG	6	11	[0, 0, 0]	n/a	FR1	0	R1076D
1238.609	1.618	1246932	WORD	n/a	wordpools/wordpool_EN.txt	PIT	7	11	[0, 0, 0]	n/a	FR1	0	R1076D
1240.227	0.9	1248550	WORD_OFF	n/a	n/a	PIT	7	11	[0, 0, 0]	n/a	FR1	0	R1076D
1241.127	1.616	1249449	WORD	n/a	wordpools/wordpool_EN.txt	TRAY	8	11	[0, 0, 0]	n/a	FR1	0	R1076D
1242.743	0.867	1251065	WORD_OFF	n/a	n/a	TRAY	8	11	[0, 0, 0]	n/a	FR1	0	R1076D
1243.61	1.618	1251932	WORD	n/a	wordpools/wordpool_EN.txt	RIB	9	11	[0, 0, 0]	n/a	FR1	0	R1076D
1245.228	0.8	1253550	WORD_OFF	n/a	n/a	RIB	9	11	[0, 0, 0]	n/a	FR1	0	R1076D
1246.028	1.616	1254350	WORD	n/a	wordpools/wordpool_EN.txt	SOCK	10	11	[0, 0, 0]	n/a	FR1	0	R1076D
1247.644	0.768	1255966	WORD_OFF	n/a	n/a	SOCK	10	11	[0, 0, 0]	n/a	FR1	0	R1076D
1248.412	1.617	1256734	WORD	n/a	wordpools/wordpool_EN.txt	BOAT	11	11	[0, 0, 0]	n/a	FR1	0	R1076D
1250.029	0.816	1258351	WORD_OFF	n/a	n/a	BOAT	11	11	[0, 0, 0]	n/a	FR1	0	R1076D
1250.845	1.618	1259167	WORD	n/a	wordpools/wordpool_EN.txt	FENCE	12	11	[0, 0, 0]	n/a	FR1	0	R1076D
1252.463	0.0	1260785	WORD_OFF	n/a	n/a	FENCE	12	11	[0, 0, 0]	n/a	FR1	0	R1076D
1252.463	0.001	1260785	DISTRACT_START	n/a	n/a	n/a	-999	11	[0, 0, 0]	n/a	FR1	0	R1076D
1252.464	0.015	1260786	START	n/a	n/a	n/a	-999	11	[-999, -999, -999]	n/a	FR1	0	R1076D
1252.479	7.902	1260801	PROB	7.902	n/a	n/a	-999	11	[5, 4, 9]	18	FR1	0	R1076D
1260.381	4.183	1268702	PROB	4.183	n/a	n/a	-999	11	[3, 8, 8]	19	FR1	0	R1076D
1264.564	3.802	1272885	PROB	3.802	n/a	n/a	-999	11	[2, 6, 2]	10	FR1	0	R1076D
1268.366	5.572	1276687	PROB	5.572	n/a	n/a	-999	11	[7, 7, 8]	26	FR1	0	R1076D
1273.938	0.011	1282259	STOP	n/a	n/a	n/a	-999	11	[-999, -999, -999]	n/a	FR1	0	R1076D
1273.949	0.568	1282270	DISTRACT_END	n/a	n/a	n/a	-999	11	[0, 0, 0]	n/a	FR1	0	R1076D
1274.517	0.517	1282838	RETRIEVAL_ORIENT	n/a	n/a	n/a	-999	11	[0, 0, 0]	n/a	FR1	0	R1076D
1275.034	2.77	1283355	REC_START	n/a	n/a	n/a	-999	11	[0, 0, 0]	n/a	FR1	0	R1076D
1277.804	1.018	1286125	REC_WORD	1.018	n/a	PIG	1	11	[0, 0, 0]	n/a	FR1	0	R1076D
1278.822	3.334	1287142	REC_WORD	3.334	n/a	DOG	5	11	[0, 0, 0]	n/a	FR1	0	R1076D
1282.156	6.926	1290476	REC_WORD	6.926	n/a	HEN	-999	11	[0, 0, 0]	n/a	FR1	0	R1076D
1289.082	2.841	1297402	REC_WORD	2.841	n/a	TOOL	-999	11	[0, 0, 0]	n/a	FR1	0	R1076D
1291.923	10.609	1300243	REC_WORD	10.609	n/a	RIB	9	11	[0, 0, 0]	n/a	FR1	0	R1076D
1302.532	2.513	1310851	REC_WORD	2.513	n/a	CHAIR	-999	11	[0, 0, 0]	n/a	FR1	0	R1076D
1305.045	6.312	1313364	REC_END	n/a	n/a	n/a	-999	11	[0, 0, 0]	n/a	FR1	0	R1076D
1311.357	0.5	1319676	TRIAL	n/a	n/a	n/a	-999	12	[0, 0, 0]	n/a	FR1	0	R1076D
1311.857	10.428	1320176	COUNTDOWN_START	n/a	n/a	n/a	-999	12	[0, 0, 0]	n/a	FR1	0	R1076D
1322.285	0.007	1330603	COUNTDOWN_END	n/a	n/a	n/a	-999	12	[0, 0, 0]	n/a	FR1	0	R1076D
1322.292	1.616	1330610	ORIENT	n/a	n/a	n/a	-999	12	[0, 0, 0]	n/a	FR1	0	R1076D
1323.908	2.335	1332226	ORIENT_OFF	n/a	n/a	n/a	-999	12	[0, 0, 0]	n/a	FR1	0	R1076D
1326.243	1.616	1334561	WORD	n/a	wordpools/wordpool_EN.txt	HORSE	1	12	[0, 0, 0]	n/a	FR1	0	R1076D
1327.859	0.983	1336177	WORD_OFF	n/a	n/a	HORSE	1	12	[0, 0, 0]	n/a	FR1	0	R1076D
1328.842	1.602	1337160	WORD	n/a	wordpools/wordpool_EN.txt	ARK	2	12	[0, 0, 0]	n/a	FR1	0	R1076D
1330.444	0.883	1338762	WORD_OFF	n/a	n/a	ARK	2	12	[0, 0, 0]	n/a	FR1	0	R1076D
1331.327	1.616	1339645	WORD	n/a	wordpools/wordpool_EN.txt	BOOK	3	12	[0, 0, 0]	n/a	FR1	0	R1076D
1332.943	0.834	1341261	WORD_OFF	n/a	n/a	BOOK	3	12	[0, 0, 0]	n/a	FR1	0	R1076D
1333.777	1.618	1342094	WORD	n/a	wordpools/wordpool_EN.txt	STAR	4	12	[0, 0, 0]	n/a	FR1	0	R1076D
1335.395	0.917	1343712	WORD_OFF	n/a	n/a	STAR	4	12	[0, 0, 0]	n/a	FR1	0	R1076D
1336.312	1.616	1344629	WORD	n/a	wordpools/wordpool_EN.txt	PLANE	5	12	[0, 0, 0]	n/a	FR1	0	R1076D
1337.928	1.0	1346245	WORD_OFF	n/a	n/a	PLANE	5	12	[0, 0, 0]	n/a	FR1	0	R1076D
1338.928	1.617	1347245	WORD	n/a	wordpools/wordpool_EN.txt	CORN	6	12	[0, 0, 0]	n/a	FR1	0	R1076D
1340.545	0.834	1348862	WORD_OFF	n/a	n/a	CORN	6	12	[0, 0, 0]	n/a	FR1	0	R1076D
1341.379	1.616	1349696	WORD	n/a	wordpools/wordpool_EN.txt	FAN	7	12	[0, 0, 0]	n/a	FR1	0	R1076D
1342.995	0.9	1351312	WORD_OFF	n/a	n/a	FAN	7	12	[0, 0, 0]	n/a	FR1	0	R1076D
1343.895	1.618	1352212	WORD	n/a	wordpools/wordpool_EN.txt	CLAY	8	12	[0, 0, 0]	n/a	FR1	0	R1076D
1345.513	0.85	1353830	WORD_OFF	n/a	n/a	CLAY	8	12	[0, 0, 0]	n/a	FR1	0	R1076D
1346.363	1.616	1354680	WORD	n/a	wordpools/wordpool_EN.txt	BOWL	9	12	[0, 0, 0]	n/a	FR1	0	R1076D
1347.979	0.801	1356296	WORD_OFF	n/a	n/a	BOWL	9	12	[0, 0, 0]	n/a	FR1	0	R1076D
1348.78	1.617	1357097	WORD	n/a	wordpools/wordpool_EN.txt	MAIL	10	12	[0, 0, 0]	n/a	FR1	0	R1076D
1350.397	0.934	1358714	WORD_OFF	n/a	n/a	MAIL	10	12	[0, 0, 0]	n/a	FR1	0	R1076D
1351.331	1.616	1359648	WORD	n/a	wordpools/wordpool_EN.txt	RAIN	11	12	[0, 0, 0]	n/a	FR1	0	R1076D
1352.947	0.95	1361263	WORD_OFF	n/a	n/a	RAIN	11	12	[0, 0, 0]	n/a	FR1	0	R1076D
1353.897	1.618	1362213	WORD	n/a	wordpools/wordpool_EN.txt	CLOUD	12	12	[0, 0, 0]	n/a	FR1	0	R1076D
1355.515	0.0	1363831	WORD_OFF	n/a	n/a	CLOUD	12	12	[0, 0, 0]	n/a	FR1	0	R1076D
1355.515	0.001	1363831	DISTRACT_START	n/a	n/a	n/a	-999	12	[0, 0, 0]	n/a	FR1	0	R1076D
1355.516	0.015	1363832	START	n/a	n/a	n/a	-999	12	[-999, -999, -999]	n/a	FR1	0	R1076D
1355.531	3.685	1363847	PROB	3.685	n/a	n/a	-999	12	[6, 8, 7]	21	FR1	0	R1076D
1359.216	4.084	1367532	PROB	4.084	n/a	n/a	-999	12	[8, 1, 4]	13	FR1	0	R1076D
1363.3	3.533	1371616	PROB	3.533	n/a	n/a	-999	12	[1, 6, 4]	11	FR1	0	R1076D
1366.833	4.017	1375149	PROB	4.017	n/a	n/a	-999	12	[8, 4, 3]	15	FR1	0	R1076D
1370.85	4.402	1379166	PROB	4.402	n/a	n/a	-999	12	[4, 8, 3]	15	FR1	0	R1076D
1375.252	4.071	1383567	PROB	4.071	n/a	n/a	-999	12	[7, 1, 4]	12	FR1	0	R1076D
1379.323	0.013	1387638	STOP	n/a	n/a	n/a	-999	12	[-999, -999, -999]	n/a	FR1	0	R1076D
1379.336	0.582	1387651	DISTRACT_END	n/a	n/a	n/a	-999	12	[0, 0, 0]	n/a	FR1	0	R1076D
1379.918	0.519	1388233	RETRIEVAL_ORIENT	n/a	n/a	n/a	-999	12	[0, 0, 0]	n/a	FR1	0	R1076D
1380.437	1.264	1388752	REC_START	n/a	n/a	n/a	-999	12	[0, 0, 0]	n/a	FR1	0	R1076D
1381.701	0.827	1390016	REC_WORD	0.827	n/a	HORSE	1	12	[0, 0, 0]	n/a	FR1	0	R1076D
1382.528	2.617	1390843	REC_WORD	2.617	n/a	ARK	2	12	[0, 0, 0]	n/a	FR1	0	R1076D
1385.145	1.519	1393460	REC_WORD	1.519	n/a	RAIN	11	12	[0, 0, 0]	n/a	FR1	0	R1076D
1386.664	5.694	1394979	REC_WORD	5.694	n/a	CLOUD	12	12	[0, 0, 0]	n/a	FR1	0	R1076D
1392.358	11.64	1400672	REC_WORD_VV	11.64	n/a	<>	-999	12	[0, 0, 0]	n/a	FR1	0	R1076D
1403.998	6.45	1412312	REC_WORD	6.45	n/a	WIND	-999	12	[0, 0, 0]	n/a	FR1	0	R1076D
1410.448	6.595	1418761	REC_END	n/a	n/a	n/a	-999	12	[0, 0, 0]	n/a	FR1	0	R1076D
1417.043	0.5	1425356	TRIAL	n/a	n/a	n/a	-999	13	[0, 0, 0]	n/a	FR1	0	R1076D
1417.543	10.428	1425856	COUNTDOWN_START	n/a	n/a	n/a	-999	13	[0, 0, 0]	n/a	FR1	0	R1076D
1427.971	0.006	1436283	COUNTDOWN_END	n/a	n/a	n/a	-999	13	[0, 0, 0]	n/a	FR1	0	R1076D
1427.977	1.617	1436289	ORIENT	n/a	n/a	n/a	-999	13	[0, 0, 0]	n/a	FR1	0	R1076D
1429.594	2.334	1437906	ORIENT_OFF	n/a	n/a	n/a	-999	13	[0, 0, 0]	n/a	FR1	0	R1076D
1431.928	1.617	1440240	WORD	n/a	wordpools/wordpool_EN.txt	SPARK	1	13	[0, 0, 0]	n/a	FR1	0	R1076D
1433.545	0.851	1441857	WORD_OFF	n/a	n/a	SPARK	1	13	[0, 0, 0]	n/a	FR1	0	R1076D
1434.396	1.617	1442708	WORD	n/a	wordpools/wordpool_EN.txt	CUP	2	13	[0, 0, 0]	n/a	FR1	0	R1076D
1436.013	0.766	1444325	WORD_OFF	n/a	n/a	CUP	2	13	[0, 0, 0]	n/a	FR1	0	R1076D
1436.779	1.618	1445091	WORD	n/a	wordpools/wordpool_EN.txt	CROWN	3	13	[0, 0, 0]	n/a	FR1	0	R1076D
1438.397	0.85	1446709	WORD_OFF	n/a	n/a	CROWN	3	13	[0, 0, 0]	n/a	FR1	0	R1076D
1439.247	1.616	1447559	WORD	n/a	wordpools/wordpool_EN.txt	BAND	4	13	[0, 0, 0]	n/a	FR1	0	R1076D
1440.863	0.884	1449175	WORD_OFF	n/a	n/a	BAND	4	13	[0, 0, 0]	n/a	FR1	0	R1076D
1441.747	1.617	1450059	WORD	n/a	wordpools/wordpool_EN.txt	RAKE	5	13	[0, 0, 0]	n/a	FR1	0	R1076D
1443.364	0.851	1451676	WORD_OFF	n/a	n/a	RAKE	5	13	[0, 0, 0]	n/a	FR1	0	R1076D
1444.215	1.616	1452527	WORD	n/a	wordpools/wordpool_EN.txt	SKI	6	13	[0, 0, 0]	n/a	FR1	0	R1076D
1445.831	0.783	1454142	WORD_OFF	n/a	n/a	SKI	6	13	[0, 0, 0]	n/a	FR1	0	R1076D
1446.614	1.618	1454925	WORD	n/a	wordpools/wordpool_EN.txt	RICE	7	13	[0, 0, 0]	n/a	FR1	0	R1076D
1448.232	0.95	1456543	WORD_OFF	n/a	n/a	RICE	7	13	[0, 0, 0]	n/a	FR1	0	R1076D
1449.182	1.616	1457493	WORD	n/a	wordpools/wordpool_EN.txt	LEG	8	13	[0, 0, 0]	n/a	FR1	0	R1076D
1450.798	0.784	1459109	WORD_OFF	n/a	n/a	LEG	8	13	[0, 0, 0]	n/a	FR1	0	R1076D
1451.582	1.618	1459893	WORD	n/a	wordpools/wordpool_EN.txt	PEA	9	13	[0, 0, 0]	n/a	FR1	0	R1076D
1453.2	0.9	1461511	WORD_OFF	n/a	n/a	PEA	9	13	[0, 0, 0]	n/a	FR1	0	R1076D
1454.1	1.616	1462411	WORD	n/a	wordpools/wordpool_EN.txt	DITCH	10	13	[0, 0, 0]	n/a	FR1	0	R1076D
1455.716	0.917	1464027	WORD_OFF	n/a	n/a	DITCH	10	13	[0, 0, 0]	n/a	FR1	0	R1076D
1456.633	1.618	1464944	WORD	n/a	wordpools/wordpool_EN.txt	EGG	11	13	[0, 0, 0]	n/a	FR1	0	R1076D
1458.251	0.85	1466562	WORD_OFF	n/a	n/a	EGG	11	13	[0, 0, 0]	n/a	FR1	0	R1076D
1459.101	1.616	1467412	WORD	n/a	wordpools/wordpool_EN.txt	MOON	12	13	[0, 0, 0]	n/a	FR1	0	R1076D
1460.717	0.0	1469028	WORD_OFF	n/a	n/a	MOON	12	13	[0, 0, 0]	n/a	FR1	0	R1076D
1460.717	0.0	1469028	DISTRACT_START	n/a	n/a	n/a	-999	13	[0, 0, 0]	n/a	FR1	0	R1076D
1460.717	0.016	1469028	START	n/a	n/a	n/a	-999	13	[-999, -999, -999]	n/a	FR1	0	R1076D
1460.733	5.686	1469044	PROB	5.686	n/a	n/a	-999	13	[8, 7, 7]	22	FR1	0	R1076D
1466.419	6.101	1474729	PROB	6.101	n/a	n/a	-999	13	[8, 7, 8]	23	FR1	0	R1076D
1472.52	3.867	1480830	PROB	3.867	n/a	n/a	-999	13	[8, 8, 5]	21	FR1	0	R1076D
1476.387	4.721	1484697	PROB	4.721	n/a	n/a	-999	13	[9, 4, 1]	14	FR1	0	R1076D
1481.108	0.013	1489418	STOP	n/a	n/a	n/a	-999	13	[-999, -999, -999]	n/a	FR1	0	R1076D
1481.121	0.55	1489431	DISTRACT_END	n/a	n/a	n/a	-999	13	[0, 0, 0]	n/a	FR1	0	R1076D
1481.671	0.518	1489981	RETRIEVAL_ORIENT	n/a	n/a	n/a	-999	13	[0, 0, 0]	n/a	FR1	0	R1076D
1482.189	1.234	1490499	REC_START	n/a	n/a	n/a	-999	13	[0, 0, 0]	n/a	FR1	0	R1076D
1483.423	1.479	1491732	REC_WORD	1.479	n/a	SPARK	1	13	[0, 0, 0]	n/a	FR1	0	R1076D
1484.902	2.038	1493211	REC_WORD	2.038	n/a	CUP	2	13	[0, 0, 0]	n/a	FR1	0	R1076D
1486.94	1.728	1495249	REC_WORD	1.728	n/a	CROWN	3	13	[0, 0, 0]	n/a	FR1	0	R1076D
1488.668	1.638	1496977	REC_WORD	1.638	n/a	RING	-999	13	[0, 0, 0]	n/a	FR1	0	R1076D
1490.306	10.021	1498615	REC_WORD	10.021	n/a	SKI	6	13	[0, 0, 0]	n/a	FR1	0	R1076D
1500.327	11.872	1508636	REC_WORD	11.872	n/a	LEG	8	13	[0, 0, 0]	n/a	FR1	0	R1076D
1512.199	7.479	1520507	REC_END	n/a	n/a	n/a	-999	13	[0, 0, 0]	n/a	FR1	0	R1076D
1519.678	0.5	1527986	TRIAL	n/a	n/a	n/a	-999	14	[0, 0, 0]	n/a	FR1	0	R1076D
1520.178	10.428	1528485	COUNTDOWN_START	n/a	n/a	n/a	-999	14	[0, 0, 0]	n/a	FR1	0	R1076D
1530.606	0.007	1538913	COUNTDOWN_END	n/a	n/a	n/a	-999	14	[0, 0, 0]	n/a	FR1	0	R1076D
1530.613	1.618	1538920	ORIENT	n/a	n/a	n/a	-999	14	[0, 0, 0]	n/a	FR1	0	R1076D
1532.231	2.067	1540538	ORIENT_OFF	n/a	n/a	n/a	-999	14	[0, 0, 0]	n/a	FR1	0	R1076D
1534.298	1.616	1542605	WORD	n/a	wordpools/wordpool_EN.txt	STRAW	1	14	[0, 0, 0]	n/a	FR1	0	R1076D
1535.914	0.883	1544221	WORD_OFF	n/a	n/a	STRAW	1	14	[0, 0, 0]	n/a	FR1	0	R1076D
1536.797	1.601	1545104	WORD	n/a	wordpools/wordpool_EN.txt	KEY	2	14	[0, 0, 0]	n/a	FR1	0	R1076D
1538.398	0.984	1546704	WORD_OFF	n/a	n/a	KEY	2	14	[0, 0, 0]	n/a	FR1	0	R1076D
1539.382	1.616	1547688	WORD	n/a	wordpools/wordpool_EN.txt	BREAD	3	14	[0, 0, 0]	n/a	FR1	0	R1076D
1540.998	0.784	1549304	WORD_OFF	n/a	n/a	BREAD	3	14	[0, 0, 0]	n/a	FR1	0	R1076D
1541.782	1.617	1550088	WORD	n/a	wordpools/wordpool_EN.txt	FOG	4	14	[0, 0, 0]	n/a	FR1	0	R1076D
1543.399	1.001	1551705	WORD_OFF	n/a	n/a	FOG	4	14	[0, 0, 0]	n/a	FR1	0	R1076D
1544.4	1.617	1552706	WORD	n/a	wordpools/wordpool_EN.txt	STEM	5	14	[0, 0, 0]	n/a	FR1	0	R1076D
1546.017	0.882	1554323	WORD_OFF	n/a	n/a	STEM	5	14	[0, 0, 0]	n/a	FR1	0	R1076D
1546.899	1.618	1555205	WORD	n/a	wordpools/wordpool_EN.txt	POLE	6	14	[0, 0, 0]	n/a	FR1	0	R1076D
1548.517	0.85	1556823	WORD_OFF	n/a	n/a	POLE	6	14	[0, 0, 0]	n/a	FR1	0	R1076D
1549.367	1.616	1557673	WORD	n/a	wordpools/wordpool_EN.txt	BEAR	7	14	[0, 0, 0]	n/a	FR1	0	R1076D
1550.983	0.984	1559289	WORD_OFF	n/a	n/a	BEAR	7	14	[0, 0, 0]	n/a	FR1	0	R1076D
1551.967	1.617	1560273	WORD	n/a	wordpools/wordpool_EN.txt	EEL	8	14	[0, 0, 0]	n/a	FR1	0	R1076D
1553.584	0.784	1561890	WORD_OFF	n/a	n/a	EEL	8	14	[0, 0, 0]	n/a	FR1	0	R1076D
1554.368	1.616	1562674	WORD	n/a	wordpools/wordpool_EN.txt	BOMB	9	14	[0, 0, 0]	n/a	FR1	0	R1076D
1555.984	0.917	1564290	WORD_OFF	n/a	n/a	BOMB	9	14	[0, 0, 0]	n/a	FR1	0	R1076D
1556.901	1.601	1565207	WORD	n/a	wordpools/wordpool_EN.txt	JAR	10	14	[0, 0, 0]	n/a	FR1	0	R1076D
1558.502	0.784	1566807	WORD_OFF	n/a	n/a	JAR	10	14	[0, 0, 0]	n/a	FR1	0	R1076D
1559.286	1.616	1567591	WORD	n/a	wordpools/wordpool_EN.txt	ZOO	11	14	[0, 0, 0]	n/a	FR1	0	R1076D
1560.902	0.85	1569207	WORD_OFF	n/a	n/a	ZOO	11	14	[0, 0, 0]	n/a	FR1	0	R1076D
1561.752	1.618	1570057	WORD	n/a	wordpools/wordpool_EN.txt	LOCK	12	14	[0, 0, 0]	n/a	FR1	0	R1076D
1563.37	0.0	1571675	WORD_OFF	n/a	n/a	LOCK	12	14	[0, 0, 0]	n/a	FR1	0	R1076D
1563.37	0.0	1571675	DISTRACT_START	n/a	n/a	n/a	-999	14	[0, 0, 0]	n/a	FR1	0	R1076D
1563.37	0.017	1571675	START	n/a	n/a	n/a	-999	14	[-999, -999, -999]	n/a	FR1	0	R1076D
1563.387	5.45	1571692	PROB	5.45	n/a	n/a	-999	14	[2, 8, 2]	12	FR1	0	R1076D
1568.837	4.268	1577142	PROB	4.268	n/a	n/a	-999	14	[4, 7, 3]	14	FR1	0	R1076D
1573.105	4.566	1581410	PROB	4.566	n/a	n/a	-999	14	[7, 6, 6]	19	FR1	0	R1076D
1577.671	4.985	1585975	PROB	4.985	n/a	n/a	-999	14	[6, 6, 8]	20	FR1	0	R1076D
1582.656	4.329	1590960	PROB	4.329	n/a	n/a	-999	14	[7, 6, 5]	18	FR1	0	R1076D
1586.985	0.023	1595289	STOP	n/a	n/a	n/a	-999	14	[-999, -999, -999]	n/a	FR1	0	R1076D
1587.008	0.599	1595312	DISTRACT_END	n/a	n/a	n/a	-999	14	[0, 0, 0]	n/a	FR1	0	R1076D
1587.607	0.518	1595911	RETRIEVAL_ORIENT	n/a	n/a	n/a	-999	14	[0, 0, 0]	n/a	FR1	0	R1076D
1588.125	2.1	1596429	REC_START	n/a	n/a	n/a	-999	14	[0, 0, 0]	n/a	FR1	0	R1076D
1590.225	1.021	1598529	REC_WORD	1.021	n/a	ZOO	11	14	[0, 0, 0]	n/a	FR1	0	R1076D
1591.246	7.343	1599550	REC_WORD	7.343	n/a	EEL	8	14	[0, 0, 0]	n/a	FR1	0	R1076D
1598.589	4.98	1606892	REC_WORD	4.98	n/a	BEAR	7	14	[0, 0, 0]	n/a	FR1	0	R1076D
1603.569	1.0	1611872	REC_WORD_VV	1.0	n/a	<>	-999	14	[0, 0, 0]	n/a	FR1	0	R1076D
1604.569	1.0	1612872	REC_WORD_VV	1.0	n/a	<>	-999	14	[0, 0, 0]	n/a	FR1	0	R1076D
1605.569	1.0	1613872	REC_WORD_VV	1.0	n/a	<>	-999	14	[0, 0, 0]	n/a	FR1	0	R1076D
1606.569	3.247	1614872	REC_WORD_VV	3.247	n/a	<>	-999	14	[0, 0, 0]	n/a	FR1	0	R1076D
1609.816	8.321	1618119	REC_WORD	8.321	n/a	SPARK	-999	14	[0, 0, 0]	n/a	FR1	0	R1076D
1618.137	5.927	1626439	REC_END	n/a	n/a	n/a	-999	14	[0, 0, 0]	n/a	FR1	0	R1076D
1624.064	0.5	1632366	TRIAL	n/a	n/a	n/a	-999	15	[0, 0, 0]	n/a	FR1	0	R1076D
1624.564	10.428	1632866	COUNTDOWN_START	n/a	n/a	n/a	-999	15	[0, 0, 0]	n/a	FR1	0	R1076D
1634.992	0.007	1643293	COUNTDOWN_END	n/a	n/a	n/a	-999	15	[0, 0, 0]	n/a	FR1	0	R1076D
1634.999	1.617	1643300	ORIENT	n/a	n/a	n/a	-999	15	[0, 0, 0]	n/a	FR1	0	R1076D
1636.616	1.95	1644917	ORIENT_OFF	n/a	n/a	n/a	-999	15	[0, 0, 0]	n/a	FR1	0	R1076D
1638.566	1.618	1646867	WORD	n/a	wordpools/wordpool_EN.txt	VASE	1	15	[0, 0, 0]	n/a	FR1	0	R1076D
1640.184	0.917	1648485	WORD_OFF	n/a	n/a	VASE	1	15	[0, 0, 0]	n/a	FR1	0	R1076D
1641.101	1.615	1649402	WORD	n/a	wordpools/wordpool_EN.txt	PEACH	2	15	[0, 0, 0]	n/a	FR1	0	R1076D
1642.716	0.984	1651017	WORD_OFF	n/a	n/a	PEACH	2	15	[0, 0, 0]	n/a	FR1	0	R1076D
1643.7	1.618	1652001	WORD	n/a	wordpools/wordpool_EN.txt	TIE	3	15	[0, 0, 0]	n/a	FR1	0	R1076D
1645.318	0.85	1653619	WORD_OFF	n/a	n/a	TIE	3	15	[0, 0, 0]	n/a	FR1	0	R1076D
1646.168	1.616	1654469	WORD	n/a	wordpools/wordpool_EN.txt	HAND	4	15	[0, 0, 0]	n/a	FR1	0	R1076D
1647.784	0.834	1656085	WORD_OFF	n/a	n/a	HAND	4	15	[0, 0, 0]	n/a	FR1	0	R1076D
1648.618	1.601	1656919	WORD	n/a	wordpools/wordpool_EN.txt	PIE	5	15	[0, 0, 0]	n/a	FR1	0	R1076D
1650.219	0.934	1658519	WORD_OFF	n/a	n/a	PIE	5	15	[0, 0, 0]	n/a	FR1	0	R1076D
1651.153	1.616	1659453	WORD	n/a	wordpools/wordpool_EN.txt	ROCK	6	15	[0, 0, 0]	n/a	FR1	0	R1076D
1652.769	0.883	1661069	WORD_OFF	n/a	n/a	ROCK	6	15	[0, 0, 0]	n/a	FR1	0	R1076D
1653.652	1.601	1661952	WORD	n/a	wordpools/wordpool_EN.txt	GOAT	7	15	[0, 0, 0]	n/a	FR1	0	R1076D
1655.253	1.001	1663553	WORD_OFF	n/a	n/a	GOAT	7	15	[0, 0, 0]	n/a	FR1	0	R1076D
1656.254	1.615	1664554	WORD	n/a	wordpools/wordpool_EN.txt	CART	8	15	[0, 0, 0]	n/a	FR1	0	R1076D
1657.869	0.967	1666169	WORD_OFF	n/a	n/a	CART	8	15	[0, 0, 0]	n/a	FR1	0	R1076D
1658.836	1.618	1667136	WORD	n/a	wordpools/wordpool_EN.txt	MUD	9	15	[0, 0, 0]	n/a	FR1	0	R1076D
1660.454	0.967	1668754	WORD_OFF	n/a	n/a	MUD	9	15	[0, 0, 0]	n/a	FR1	0	R1076D
1661.421	1.617	1669721	WORD	n/a	wordpools/wordpool_EN.txt	BOOT	10	15	[0, 0, 0]	n/a	FR1	0	R1076D
1663.038	0.816	1671338	WORD_OFF	n/a	n/a	BOOT	10	15	[0, 0, 0]	n/a	FR1	0	R1076D
1663.854	1.618	1672154	WORD	n/a	wordpools/wordpool_EN.txt	BEAK	11	15	[0, 0, 0]	n/a	FR1	0	R1076D
1665.472	0.967	1673772	WORD_OFF	n/a	n/a	BEAK	11	15	[0, 0, 0]	n/a	FR1	0	R1076D
1666.439	1.617	1674739	WORD	n/a	wordpools/wordpool_EN.txt	CRANE	12	15	[0, 0, 0]	n/a	FR1	0	R1076D
1668.056	0.0	1676356	WORD_OFF	n/a	n/a	CRANE	12	15	[0, 0, 0]	n/a	FR1	0	R1076D
1668.056	0.0	1676356	DISTRACT_START	n/a	n/a	n/a	-999	15	[0, 0, 0]	n/a	FR1	0	R1076D
1668.056	0.016	1676356	START	n/a	n/a	n/a	-999	15	[-999, -999, -999]	n/a	FR1	0	R1076D
1668.072	3.068	1676372	PROB	3.068	n/a	n/a	-999	15	[1, 1, 7]	9	FR1	0	R1076D
1671.14	2.816	1679439	PROB	2.816	n/a	n/a	-999	15	[6, 8, 4]	1	FR1	0	R1076D
1673.956	7.584	1682255	PROB	7.584	n/a	n/a	-999	15	[7, 2, 3]	12	FR1	0	R1076D
1681.54	6.807	1689839	PROB	6.807	n/a	n/a	-999	15	[1, 7, 1]	9	FR1	0	R1076D
1688.347	0.012	1696645	STOP	n/a	n/a	n/a	-999	15	[-999, -999, -999]	n/a	FR1	0	R1076D
1688.359	0.616	1696657	DISTRACT_END	n/a	n/a	n/a	-999	15	[0, 0, 0]	n/a	FR1	0	R1076D
1688.975	0.519	1697273	RETRIEVAL_ORIENT	n/a	n/a	n/a	-999	15	[0, 0, 0]	n/a	FR1	0	R1076D
1689.494	2.472	1697792	REC_START	n/a	n/a	n/a	-999	15	[0, 0, 0]	n/a	FR1	0	R1076D
1691.966	1.219	1700264	REC_WORD	1.219	n/a	TIE	3	15	[0, 0, 0]	n/a	FR1	0	R1076D
1693.185	7.38	1701483	REC_WORD	7.38	n/a	PIE	5	15	[0, 0, 0]	n/a	FR1	0	R1076D
1700.565	17.33	1708863	REC_WORD	17.33	n/a	LOCK	-999	15	[0, 0, 0]	n/a	FR1	0	R1076D
1717.895	1.611	1726192	REC_WORD	1.611	n/a	EAT	-999	15	[0, 0, 0]	n/a	FR1	0	R1076D
1719.506	7.21	1727803	REC_END	n/a	n/a	n/a	-999	15	[0, 0, 0]	n/a	FR1	0	R1076D
1726.716	0.5	1735012	TRIAL	n/a	n/a	n/a	-999	16	[0, 0, 0]	n/a	FR1	0	R1076D
1727.216	10.428	1735512	COUNTDOWN_START	n/a	n/a	n/a	-999	16	[0, 0, 0]	n/a	FR1	0	R1076D
1737.644	0.007	1745940	COUNTDOWN_END	n/a	n/a	n/a	-999	16	[0, 0, 0]	n/a	FR1	0	R1076D
1737.651	1.618	1745947	ORIENT	n/a	n/a	n/a	-999	16	[0, 0, 0]	n/a	FR1	0	R1076D
1739.269	2.033	1747565	ORIENT_OFF	n/a	n/a	n/a	-999	16	[0, 0, 0]	n/a	FR1	0	R1076D
1741.302	1.616	1749598	WORD	n/a	wordpools/wordpool_EN.txt	BLOOM	1	16	[0, 0, 0]	n/a	FR1	0	R1076D
1742.918	0.867	1751214	WORD_OFF	n/a	n/a	BLOOM	1	16	[0, 0, 0]	n/a	FR1	0	R1076D
1743.785	1.618	1752080	WORD	n/a	wordpools/wordpool_EN.txt	SHEEP	2	16	[0, 0, 0]	n/a	FR1	0	R1076D
1745.403	0.784	1753698	WORD_OFF	n/a	n/a	SHEEP	2	16	[0, 0, 0]	n/a	FR1	0	R1076D
1746.187	1.616	1754482	WORD	n/a	wordpools/wordpool_EN.txt	TRAIN	3	16	[0, 0, 0]	n/a	FR1	0	R1076D
1747.803	1.0	1756098	WORD_OFF	n/a	n/a	TRAIN	3	16	[0, 0, 0]	n/a	FR1	0	R1076D
1748.803	1.618	1757098	WORD	n/a	wordpools/wordpool_EN.txt	SWORD	4	16	[0, 0, 0]	n/a	FR1	0	R1076D
1750.421	0.8	1758716	WORD_OFF	n/a	n/a	SWORD	4	16	[0, 0, 0]	n/a	FR1	0	R1076D
1751.221	1.616	1759516	WORD	n/a	wordpools/wordpool_EN.txt	FROG	5	16	[0, 0, 0]	n/a	FR1	0	R1076D
1752.837	0.817	1761132	WORD_OFF	n/a	n/a	FROG	5	16	[0, 0, 0]	n/a	FR1	0	R1076D
1753.654	1.618	1761949	WORD	n/a	wordpools/wordpool_EN.txt	VEST	6	16	[0, 0, 0]	n/a	FR1	0	R1076D
1755.272	0.916	1763567	WORD_OFF	n/a	n/a	VEST	6	16	[0, 0, 0]	n/a	FR1	0	R1076D
1756.188	1.617	1764483	WORD	n/a	wordpools/wordpool_EN.txt	BRIDGE	7	16	[0, 0, 0]	n/a	FR1	0	R1076D
1757.805	0.933	1766100	WORD_OFF	n/a	n/a	BRIDGE	7	16	[0, 0, 0]	n/a	FR1	0	R1076D
1758.738	1.601	1767033	WORD	n/a	wordpools/wordpool_EN.txt	WHEEL	8	16	[0, 0, 0]	n/a	FR1	0	R1076D
1760.339	1.017	1768634	WORD_OFF	n/a	n/a	WHEEL	8	16	[0, 0, 0]	n/a	FR1	0	R1076D
1761.356	1.616	1769651	WORD	n/a	wordpools/wordpool_EN.txt	LAMP	9	16	[0, 0, 0]	n/a	FR1	0	R1076D
1762.972	0.984	1771266	WORD_OFF	n/a	n/a	LAMP	9	16	[0, 0, 0]	n/a	FR1	0	R1076D
1763.956	1.617	1772250	WORD	n/a	wordpools/wordpool_EN.txt	SCHOOL	10	16	[0, 0, 0]	n/a	FR1	0	R1076D
1765.573	0.817	1773867	WORD_OFF	n/a	n/a	SCHOOL	10	16	[0, 0, 0]	n/a	FR1	0	R1076D
1766.39	1.617	1774684	WORD	n/a	wordpools/wordpool_EN.txt	DOCK	11	16	[0, 0, 0]	n/a	FR1	0	R1076D
1768.007	0.849	1776301	WORD_OFF	n/a	n/a	DOCK	11	16	[0, 0, 0]	n/a	FR1	0	R1076D
1768.856	1.618	1777150	WORD	n/a	wordpools/wordpool_EN.txt	CAR	12	16	[0, 0, 0]	n/a	FR1	0	R1076D
1770.474	0.0	1778768	WORD_OFF	n/a	n/a	CAR	12	16	[0, 0, 0]	n/a	FR1	0	R1076D
1770.474	0.001	1778768	DISTRACT_START	n/a	n/a	n/a	-999	16	[0, 0, 0]	n/a	FR1	0	R1076D
1770.475	0.016	1778769	START	n/a	n/a	n/a	-999	16	[-999, -999, -999]	n/a	FR1	0	R1076D
1770.491	8.702	1778785	PROB	8.702	n/a	n/a	-999	16	[2, 2, 6]	10	FR1	0	R1076D
1779.193	5.333	1787487	PROB	5.333	n/a	n/a	-999	16	[4, 9, 4]	17	FR1	0	R1076D
1784.526	3.467	1792819	PROB	3.467	n/a	n/a	-999	16	[7, 9, 5]	21	FR1	0	R1076D
1787.993	8.706	1796286	PROB	8.706	n/a	n/a	-999	16	[2, 3, 4]	9	FR1	0	R1076D
1796.699	0.013	1804992	STOP	n/a	n/a	n/a	-999	16	[-999, -999, -999]	n/a	FR1	0	R1076D
1796.712	0.701	1805005	DISTRACT_END	n/a	n/a	n/a	-999	16	[0, 0, 0]	n/a	FR1	0	R1076D
1797.413	0.516	1805706	RETRIEVAL_ORIENT	n/a	n/a	n/a	-999	16	[0, 0, 0]	n/a	FR1	0	R1076D
1797.929	2.656	1806222	REC_START	n/a	n/a	n/a	-999	16	[0, 0, 0]	n/a	FR1	0	R1076D
1800.585	0.931	1808877	REC_WORD_VV	0.931	n/a	<>	-999	16	[0, 0, 0]	n/a	FR1	0	R1076D
1801.516	6.786	1809808	REC_WORD	6.786	n/a	TRAIN	3	16	[0, 0, 0]	n/a	FR1	0	R1076D
1808.302	1.984	1816594	REC_WORD	1.984	n/a	LAMB	-999	16	[0, 0, 0]	n/a	FR1	0	R1076D
1810.286	6.84	1818578	REC_WORD	6.84	n/a	SHEEP	2	16	[0, 0, 0]	n/a	FR1	0	R1076D
1817.126	6.297	1825418	REC_WORD	6.297	n/a	CLOCK	-999	16	[0, 0, 0]	n/a	FR1	0	R1076D
1823.423	4.518	1831714	REC_WORD	4.518	n/a	BOAT	-999	16	[0, 0, 0]	n/a	FR1	0	R1076D
1827.941	7.844	1836232	REC_END	n/a	n/a	n/a	-999	16	[0, 0, 0]	n/a	FR1	0	R1076D
1835.785	0.5	1844076	TRIAL	n/a	n/a	n/a	-999	17	[0, 0, 0]	n/a	FR1	0	R1076D
1836.285	10.428	1844575	COUNTDOWN_START	n/a	n/a	n/a	-999	17	[0, 0, 0]	n/a	FR1	0	R1076D
1846.713	0.008	1855003	COUNTDOWN_END	n/a	n/a	n/a	-999	17	[0, 0, 0]	n/a	FR1	0	R1076D
1846.721	1.618	1855011	ORIENT	n/a	n/a	n/a	-999	17	[0, 0, 0]	n/a	FR1	0	R1076D
1848.339	2.067	1856629	ORIENT_OFF	n/a	n/a	n/a	-999	17	[0, 0, 0]	n/a	FR1	0	R1076D
1850.406	1.617	1858696	WORD	n/a	wordpools/wordpool_EN.txt	ROOM	1	17	[0, 0, 0]	n/a	FR1	0	R1076D
1852.023	0.983	1860313	WORD_OFF	n/a	n/a	ROOM	1	17	[0, 0, 0]	n/a	FR1	0	R1076D
1853.006	1.616	1861296	WORD	n/a	wordpools/wordpool_EN.txt	FLUTE	2	17	[0, 0, 0]	n/a	FR1	0	R1076D
1854.622	0.801	1862911	WORD_OFF	n/a	n/a	FLUTE	2	17	[0, 0, 0]	n/a	FR1	0	R1076D
1855.423	1.617	1863712	WORD	n/a	wordpools/wordpool_EN.txt	SHOE	3	17	[0, 0, 0]	n/a	FR1	0	R1076D
1857.04	0.95	1865329	WORD_OFF	n/a	n/a	SHOE	3	17	[0, 0, 0]	n/a	FR1	0	R1076D
1857.99	1.617	1866279	WORD	n/a	wordpools/wordpool_EN.txt	FOOT	4	17	[0, 0, 0]	n/a	FR1	0	R1076D
1859.607	0.834	1867896	WORD_OFF	n/a	n/a	FOOT	4	17	[0, 0, 0]	n/a	FR1	0	R1076D
1860.441	1.617	1868730	WORD	n/a	wordpools/wordpool_EN.txt	MOLE	5	17	[0, 0, 0]	n/a	FR1	0	R1076D
1862.058	0.782	1870347	WORD_OFF	n/a	n/a	MOLE	5	17	[0, 0, 0]	n/a	FR1	0	R1076D
1862.84	1.602	1871129	WORD	n/a	wordpools/wordpool_EN.txt	BATH	6	17	[0, 0, 0]	n/a	FR1	0	R1076D
1864.442	0.967	1872731	WORD_OFF	n/a	n/a	BATH	6	17	[0, 0, 0]	n/a	FR1	0	R1076D
1865.409	1.617	1873698	WORD	n/a	wordpools/wordpool_EN.txt	SPRING	7	17	[0, 0, 0]	n/a	FR1	0	R1076D
1867.026	1.0	1875315	WORD_OFF	n/a	n/a	SPRING	7	17	[0, 0, 0]	n/a	FR1	0	R1076D
1868.026	1.616	1876315	WORD	n/a	wordpools/wordpool_EN.txt	SOAP	8	17	[0, 0, 0]	n/a	FR1	0	R1076D
1869.642	0.784	1877931	WORD_OFF	n/a	n/a	SOAP	8	17	[0, 0, 0]	n/a	FR1	0	R1076D
1870.426	1.617	1878715	WORD	n/a	wordpools/wordpool_EN.txt	STAIR	9	17	[0, 0, 0]	n/a	FR1	0	R1076D
1872.043	0.883	1880332	WORD_OFF	n/a	n/a	STAIR	9	17	[0, 0, 0]	n/a	FR1	0	R1076D
1872.926	1.617	1881215	WORD	n/a	wordpools/wordpool_EN.txt	TRUCK	10	17	[0, 0, 0]	n/a	FR1	0	R1076D
1874.543	0.934	1882831	WORD_OFF	n/a	n/a	TRUCK	10	17	[0, 0, 0]	n/a	FR1	0	R1076D
1875.477	1.617	1883765	WORD	n/a	wordpools/wordpool_EN.txt	WORM	11	17	[0, 0, 0]	n/a	FR1	0	R1076D
1877.094	0.849	1885382	WORD_OFF	n/a	n/a	WORM	11	17	[0, 0, 0]	n/a	FR1	0	R1076D
1877.943	1.617	1886231	WORD	n/a	wordpools/wordpool_EN.txt	STEAK	12	17	[0, 0, 0]	n/a	FR1	0	R1076D
1879.56	0.0	1887848	WORD_OFF	n/a	n/a	STEAK	12	17	[0, 0, 0]	n/a	FR1	0	R1076D
1879.56	0.001	1887848	DISTRACT_START	n/a	n/a	n/a	-999	17	[0, 0, 0]	n/a	FR1	0	R1076D
1879.561	0.016	1887849	START	n/a	n/a	n/a	-999	17	[-999, -999, -999]	n/a	FR1	0	R1076D
1879.577	6.869	1887865	PROB	6.869	n/a	n/a	-999	17	[8, 2, 7]	17	FR1	0	R1076D
1886.446	7.533	1894734	PROB	7.533	n/a	n/a	-999	17	[6, 2, 1]	9	FR1	0	R1076D
1893.979	3.435	1902266	PROB	3.435	n/a	n/a	-999	17	[3, 7, 1]	11	FR1	0	R1076D
1897.414	4.79	1905701	PROB	4.79	n/a	n/a	-999	17	[3, 8, 9]	20	FR1	0	R1076D
1902.204	0.011	1910491	STOP	n/a	n/a	n/a	-999	17	[-999, -999, -999]	n/a	FR1	0	R1076D
1902.215	0.633	1910502	DISTRACT_END	n/a	n/a	n/a	-999	17	[0, 0, 0]	n/a	FR1	0	R1076D
1902.848	0.518	1911135	RETRIEVAL_ORIENT	n/a	n/a	n/a	-999	17	[0, 0, 0]	n/a	FR1	0	R1076D
1903.366	1.957	1911653	REC_START	n/a	n/a	n/a	-999	17	[0, 0, 0]	n/a	FR1	0	R1076D
1905.323	2.308	1913610	REC_WORD	2.308	n/a	ROOM	1	17	[0, 0, 0]	n/a	FR1	0	R1076D
1907.631	2.933	1915918	REC_WORD	2.933	n/a	FOOT	4	17	[0, 0, 0]	n/a	FR1	0	R1076D
1910.564	22.814	1918850	REC_WORD	22.814	n/a	SHOE	3	17	[0, 0, 0]	n/a	FR1	0	R1076D
1933.378	6.493	1941663	REC_END	n/a	n/a	n/a	-999	17	[0, 0, 0]	n/a	FR1	0	R1076D
1939.871	0.5	1948156	TRIAL	n/a	n/a	n/a	-999	18	[0, 0, 0]	n/a	FR1	0	R1076D
1940.371	10.428	1948656	COUNTDOWN_START	n/a	n/a	n/a	-999	18	[0, 0, 0]	n/a	FR1	0	R1076D
1950.799	0.008	1959083	COUNTDOWN_END	n/a	n/a	n/a	-999	18	[0, 0, 0]	n/a	FR1	0	R1076D
1950.807	1.618	1959091	ORIENT	n/a	n/a	n/a	-999	18	[0, 0, 0]	n/a	FR1	0	R1076D
1952.425	2.067	1960709	ORIENT_OFF	n/a	n/a	n/a	-999	18	[0, 0, 0]	n/a	FR1	0	R1076D
1954.492	1.617	1962776	WORD	n/a	wordpools/wordpool_EN.txt	STORE	1	18	[0, 0, 0]	n/a	FR1	0	R1076D
1956.109	1.0	1964393	WORD_OFF	n/a	n/a	STORE	1	18	[0, 0, 0]	n/a	FR1	0	R1076D
1957.109	1.616	1965393	WORD	n/a	wordpools/wordpool_EN.txt	BALL	2	18	[0, 0, 0]	n/a	FR1	0	R1076D
1958.725	0.983	1967009	WORD_OFF	n/a	n/a	BALL	2	18	[0, 0, 0]	n/a	FR1	0	R1076D
1959.708	1.618	1967992	WORD	n/a	wordpools/wordpool_EN.txt	MULE	3	18	[0, 0, 0]	n/a	FR1	0	R1076D
1961.326	0.8	1969610	WORD_OFF	n/a	n/a	MULE	3	18	[0, 0, 0]	n/a	FR1	0	R1076D
1962.126	1.616	1970410	WORD	n/a	wordpools/wordpool_EN.txt	PIPE	4	18	[0, 0, 0]	n/a	FR1	0	R1076D
1963.742	0.834	1972026	WORD_OFF	n/a	n/a	PIPE	4	18	[0, 0, 0]	n/a	FR1	0	R1076D
1964.576	1.618	1972860	WORD	n/a	wordpools/wordpool_EN.txt	SWAMP	5	18	[0, 0, 0]	n/a	FR1	0	R1076D
1966.194	0.966	1974477	WORD_OFF	n/a	n/a	SWAMP	5	18	[0, 0, 0]	n/a	FR1	0	R1076D
1967.16	1.617	1975443	WORD	n/a	wordpools/wordpool_EN.txt	SIGN	6	18	[0, 0, 0]	n/a	FR1	0	R1076D
1968.777	0.816	1977060	WORD_OFF	n/a	n/a	SIGN	6	18	[0, 0, 0]	n/a	FR1	0	R1076D
1969.593	1.618	1977876	WORD	n/a	wordpools/wordpool_EN.txt	SNOW	7	18	[0, 0, 0]	n/a	FR1	0	R1076D
1971.211	0.801	1979494	WORD_OFF	n/a	n/a	SNOW	7	18	[0, 0, 0]	n/a	FR1	0	R1076D
1972.012	1.615	1980295	WORD	n/a	wordpools/wordpool_EN.txt	WING	8	18	[0, 0, 0]	n/a	FR1	0	R1076D
1973.627	0.868	1981910	WORD_OFF	n/a	n/a	WING	8	18	[0, 0, 0]	n/a	FR1	0	R1076D
1974.495	1.617	1982778	WORD	n/a	wordpools/wordpool_EN.txt	DRUM	9	18	[0, 0, 0]	n/a	FR1	0	R1076D
1976.112	0.95	1984395	WORD_OFF	n/a	n/a	DRUM	9	18	[0, 0, 0]	n/a	FR1	0	R1076D
1977.062	1.616	1985345	WORD	n/a	wordpools/wordpool_EN.txt	STICK	10	18	[0, 0, 0]	n/a	FR1	0	R1076D
1978.678	0.967	1986961	WORD_OFF	n/a	n/a	STICK	10	18	[0, 0, 0]	n/a	FR1	0	R1076D
1979.645	1.618	1987928	WORD	n/a	wordpools/wordpool_EN.txt	SHARK	11	18	[0, 0, 0]	n/a	FR1	0	R1076D
1981.263	0.884	1989546	WORD_OFF	n/a	n/a	SHARK	11	18	[0, 0, 0]	n/a	FR1	0	R1076D
1982.147	1.616	1990430	WORD	n/a	wordpools/wordpool_EN.txt	STRING	12	18	[0, 0, 0]	n/a	FR1	0	R1076D
1983.763	0.0	1992046	WORD_OFF	n/a	n/a	STRING	12	18	[0, 0, 0]	n/a	FR1	0	R1076D
1983.763	0.0	1992046	DISTRACT_START	n/a	n/a	n/a	-999	18	[0, 0, 0]	n/a	FR1	0	R1076D
1983.763	0.016	1992046	START	n/a	n/a	n/a	-999	18	[-999, -999, -999]	n/a	FR1	0	R1076D
1983.779	6.051	1992062	PROB	6.051	n/a	n/a	-999	18	[5, 6, 6]	17	FR1	0	R1076D
1989.83	3.168	1998112	PROB	3.168	n/a	n/a	-999	18	[3, 3, 9]	1	FR1	0	R1076D
1992.998	8.918	2001280	PROB	8.918	n/a	n/a	-999	18	[9, 4, 9]	22	FR1	0	R1076D
2001.916	6.382	2010198	PROB	6.382	n/a	n/a	-999	18	[8, 7, 9]	26	FR1	0	R1076D
2008.298	0.02	2016579	STOP	n/a	n/a	n/a	-999	18	[-999, -999, -999]	n/a	FR1	0	R1076D
2008.318	0.566	2016599	DISTRACT_END	n/a	n/a	n/a	-999	18	[0, 0, 0]	n/a	FR1	0	R1076D
2008.884	0.52	2017165	RETRIEVAL_ORIENT	n/a	n/a	n/a	-999	18	[0, 0, 0]	n/a	FR1	0	R1076D
2009.404	4.904	2017685	REC_START	n/a	n/a	n/a	-999	18	[0, 0, 0]	n/a	FR1	0	R1076D
2014.308	0.964	2022589	REC_WORD_VV	0.964	n/a	<>	-999	18	[0, 0, 0]	n/a	FR1	0	R1076D
2015.272	13.129	2023553	REC_WORD	13.129	n/a	STRING	12	18	[0, 0, 0]	n/a	FR1	0	R1076D
2028.401	3.158	2036681	REC_WORD	3.158	n/a	MULE	3	18	[0, 0, 0]	n/a	FR1	0	R1076D
2031.559	4.766	2039839	REC_WORD	4.766	n/a	SNOW	7	18	[0, 0, 0]	n/a	FR1	0	R1076D
2036.325	3.091	2044605	REC_WORD	3.091	n/a	WIND	-999	18	[0, 0, 0]	n/a	FR1	0	R1076D
2039.416	8.192	2047696	REC_END	n/a	n/a	n/a	-999	18	[0, 0, 0]	n/a	FR1	0	R1076D
2047.608	0.5	2055887	TRIAL	n/a	n/a	n/a	-999	19	[0, 0, 0]	n/a	FR1	0	R1076D
2048.108	10.428	2056387	COUNTDOWN_START	n/a	n/a	n/a	-999	19	[0, 0, 0]	n/a	FR1	0	R1076D
2058.536	0.007	2066815	COUNTDOWN_END	n/a	n/a	n/a	-999	19	[0, 0, 0]	n/a	FR1	0	R1076D
2058.543	1.618	2066822	ORIENT	n/a	n/a	n/a	-999	19	[0, 0, 0]	n/a	FR1	0	R1076D
2060.161	2.234	2068439	ORIENT_OFF	n/a	n/a	n/a	-999	19	[0, 0, 0]	n/a	FR1	0	R1076D
2062.395	1.617	2070673	WORD	n/a	wordpools/wordpool_EN.txt	HEART	1	19	[0, 0, 0]	n/a	FR1	0	R1076D
2064.012	0.799	2072290	WORD_OFF	n/a	n/a	HEART	1	19	[0, 0, 0]	n/a	FR1	0	R1076D
2064.811	1.618	2073089	WORD	n/a	wordpools/wordpool_EN.txt	TREE	2	19	[0, 0, 0]	n/a	FR1	0	R1076D
2066.429	0.8	2074707	WORD_OFF	n/a	n/a	TREE	2	19	[0, 0, 0]	n/a	FR1	0	R1076D
2067.229	1.616	2075507	WORD	n/a	wordpools/wordpool_EN.txt	BARN	3	19	[0, 0, 0]	n/a	FR1	0	R1076D
2068.845	0.983	2077123	WORD_OFF	n/a	n/a	BARN	3	19	[0, 0, 0]	n/a	FR1	0	R1076D
2069.828	1.618	2078106	WORD	n/a	wordpools/wordpool_EN.txt	PLATE	4	19	[0, 0, 0]	n/a	FR1	0	R1076D
2071.446	0.784	2079724	WORD_OFF	n/a	n/a	PLATE	4	19	[0, 0, 0]	n/a	FR1	0	R1076D
2072.23	1.616	2080508	WORD	n/a	wordpools/wordpool_EN.txt	STOVE	5	19	[0, 0, 0]	n/a	FR1	0	R1076D
2073.846	0.95	2082124	WORD_OFF	n/a	n/a	STOVE	5	19	[0, 0, 0]	n/a	FR1	0	R1076D
2074.796	1.618	2083074	WORD	n/a	wordpools/wordpool_EN.txt	BOX	6	19	[0, 0, 0]	n/a	FR1	0	R1076D
2076.414	0.867	2084692	WORD_OFF	n/a	n/a	BOX	6	19	[0, 0, 0]	n/a	FR1	0	R1076D
2077.281	1.616	2085559	WORD	n/a	wordpools/wordpool_EN.txt	SNAKE	7	19	[0, 0, 0]	n/a	FR1	0	R1076D
2078.897	0.917	2087174	WORD_OFF	n/a	n/a	SNAKE	7	19	[0, 0, 0]	n/a	FR1	0	R1076D
2079.814	1.618	2088091	WORD	n/a	wordpools/wordpool_EN.txt	LIP	8	19	[0, 0, 0]	n/a	FR1	0	R1076D
2081.432	0.85	2089709	WORD_OFF	n/a	n/a	LIP	8	19	[0, 0, 0]	n/a	FR1	0	R1076D
2082.282	1.616	2090559	WORD	n/a	wordpools/wordpool_EN.txt	ARM	9	19	[0, 0, 0]	n/a	FR1	0	R1076D
2083.898	0.9	2092175	WORD_OFF	n/a	n/a	ARM	9	19	[0, 0, 0]	n/a	FR1	0	R1076D
2084.798	1.618	2093075	WORD	n/a	wordpools/wordpool_EN.txt	DEER	10	19	[0, 0, 0]	n/a	FR1	0	R1076D
2086.416	0.9	2094693	WORD_OFF	n/a	n/a	DEER	10	19	[0, 0, 0]	n/a	FR1	0	R1076D
2087.316	1.616	2095593	WORD	n/a	wordpools/wordpool_EN.txt	SEAL	11	19	[0, 0, 0]	n/a	FR1	0	R1076D
2088.932	0.983	2097209	WORD_OFF	n/a	n/a	SEAL	11	19	[0, 0, 0]	n/a	FR1	0	R1076D
2089.915	1.617	2098192	WORD	n/a	wordpools/wordpool_EN.txt	WAND	12	19	[0, 0, 0]	n/a	FR1	0	R1076D
2091.532	0.0	2099809	WORD_OFF	n/a	n/a	WAND	12	19	[0, 0, 0]	n/a	FR1	0	R1076D
2091.532	0.001	2099809	DISTRACT_START	n/a	n/a	n/a	-999	19	[0, 0, 0]	n/a	FR1	0	R1076D
2091.533	0.016	2099810	START	n/a	n/a	n/a	-999	19	[-999, -999, -999]	n/a	FR1	0	R1076D
2091.549	4.669	2099826	PROB	4.669	n/a	n/a	-999	19	[4, 6, 5]	15	FR1	0	R1076D
2096.218	5.533	2104495	PROB	5.533	n/a	n/a	-999	19	[6, 2, 2]	10	FR1	0	R1076D
2101.751	14.899	2110027	PROB	14.899	n/a	n/a	-999	19	[9, 6, 8]	23	FR1	0	R1076D
2116.65	0.02	2124925	STOP	n/a	n/a	n/a	-999	19	[-999, -999, -999]	n/a	FR1	0	R1076D
2116.67	0.535	2124945	DISTRACT_END	n/a	n/a	n/a	-999	19	[0, 0, 0]	n/a	FR1	0	R1076D
2117.205	0.516	2125480	RETRIEVAL_ORIENT	n/a	n/a	n/a	-999	19	[0, 0, 0]	n/a	FR1	0	R1076D
2117.721	2.496	2125996	REC_START	n/a	n/a	n/a	-999	19	[0, 0, 0]	n/a	FR1	0	R1076D
2120.217	21.157	2128492	REC_WORD_VV	21.157	n/a	<>	-999	19	[0, 0, 0]	n/a	FR1	0	R1076D
2141.374	0.967	2149648	REC_WORD_VV	0.967	n/a	<>	-999	19	[0, 0, 0]	n/a	FR1	0	R1076D
2142.341	5.393	2150615	REC_WORD	5.393	n/a	RING	-999	19	[0, 0, 0]	n/a	FR1	0	R1076D
2147.734	6.143	2156008	REC_END	n/a	n/a	n/a	-999	19	[0, 0, 0]	n/a	FR1	0	R1076D
2153.877	0.5	2162150	TRIAL	n/a	n/a	n/a	-999	20	[0, 0, 0]	n/a	FR1	0	R1076D
2154.377	10.428	2162650	COUNTDOWN_START	n/a	n/a	n/a	-999	20	[0, 0, 0]	n/a	FR1	0	R1076D
2164.805	0.007	2173078	COUNTDOWN_END	n/a	n/a	n/a	-999	20	[0, 0, 0]	n/a	FR1	0	R1076D
2164.812	1.602	2173085	ORIENT	n/a	n/a	n/a	-999	20	[0, 0, 0]	n/a	FR1	0	R1076D
2166.414	2.149	2174687	ORIENT_OFF	n/a	n/a	n/a	-999	20	[0, 0, 0]	n/a	FR1	0	R1076D
2168.563	1.601	2176836	WORD	n/a	wordpools/wordpool_EN.txt	GRASS	1	20	[0, 0, 0]	n/a	FR1	0	R1076D
2170.164	0.884	2178437	WORD_OFF	n/a	n/a	GRASS	1	20	[0, 0, 0]	n/a	FR1	0	R1076D
2171.048	1.616	2179320	WORD	n/a	wordpools/wordpool_EN.txt	LEAF	2	20	[0, 0, 0]	n/a	FR1	0	R1076D
2172.664	0.883	2180936	WORD_OFF	n/a	n/a	LEAF	2	20	[0, 0, 0]	n/a	FR1	0	R1076D
2173.547	1.618	2181819	WORD	n/a	wordpools/wordpool_EN.txt	PEAR	3	20	[0, 0, 0]	n/a	FR1	0	R1076D
2175.165	0.984	2183437	WORD_OFF	n/a	n/a	PEAR	3	20	[0, 0, 0]	n/a	FR1	0	R1076D
2176.149	1.616	2184421	WORD	n/a	wordpools/wordpool_EN.txt	CHEEK	4	20	[0, 0, 0]	n/a	FR1	0	R1076D
2177.765	0.967	2186037	WORD_OFF	n/a	n/a	CHEEK	4	20	[0, 0, 0]	n/a	FR1	0	R1076D
2178.732	1.618	2187004	WORD	n/a	wordpools/wordpool_EN.txt	HILL	5	20	[0, 0, 0]	n/a	FR1	0	R1076D
2180.35	0.917	2188622	WORD_OFF	n/a	n/a	HILL	5	20	[0, 0, 0]	n/a	FR1	0	R1076D
2181.267	1.615	2189539	WORD	n/a	wordpools/wordpool_EN.txt	ANT	6	20	[0, 0, 0]	n/a	FR1	0	R1076D
2182.882	0.767	2191154	WORD_OFF	n/a	n/a	ANT	6	20	[0, 0, 0]	n/a	FR1	0	R1076D
2183.649	1.618	2191921	WORD	n/a	wordpools/wordpool_EN.txt	TOAD	7	20	[0, 0, 0]	n/a	FR1	0	R1076D
2185.267	0.917	2193539	WORD_OFF	n/a	n/a	TOAD	7	20	[0, 0, 0]	n/a	FR1	0	R1076D
2186.184	1.616	2194456	WORD	n/a	wordpools/wordpool_EN.txt	FUDGE	8	20	[0, 0, 0]	n/a	FR1	0	R1076D
2187.8	0.917	2196072	WORD_OFF	n/a	n/a	FUDGE	8	20	[0, 0, 0]	n/a	FR1	0	R1076D
2188.717	1.601	2196989	WORD	n/a	wordpools/wordpool_EN.txt	PASTE	9	20	[0, 0, 0]	n/a	FR1	0	R1076D
2190.318	1.0	2198589	WORD_OFF	n/a	n/a	PASTE	9	20	[0, 0, 0]	n/a	FR1	0	R1076D
2191.318	1.616	2199589	WORD	n/a	wordpools/wordpool_EN.txt	TOAST	10	20	[0, 0, 0]	n/a	FR1	0	R1076D
2192.934	0.917	2201205	WORD_OFF	n/a	n/a	TOAST	10	20	[0, 0, 0]	n/a	FR1	0	R1076D
2193.851	1.601	2202122	WORD	n/a	wordpools/wordpool_EN.txt	DOLL	11	20	[0, 0, 0]	n/a	FR1	0	R1076D
2195.452	0.784	2203723	WORD_OFF	n/a	n/a	DOLL	11	20	[0, 0, 0]	n/a	FR1	0	R1076D
2196.236	1.616	2204507	WORD	n/a	wordpools/wordpool_EN.txt	DIME	12	20	[0, 0, 0]	n/a	FR1	0	R1076D
2197.852	0.0	2206123	WORD_OFF	n/a	n/a	DIME	12	20	[0, 0, 0]	n/a	FR1	0	R1076D
2197.852	0.0	2206123	DISTRACT_START	n/a	n/a	n/a	-999	20	[0, 0, 0]	n/a	FR1	0	R1076D
2197.852	0.016	2206123	START	n/a	n/a	n/a	-999	20	[-999, -999, -999]	n/a	FR1	0	R1076D
2197.868	4.219	2206139	PROB	4.219	n/a	n/a	-999	20	[4, 2, 7]	13	FR1	0	R1076D
2202.087	7.467	2210358	PROB	7.467	n/a	n/a	-999	20	[9, 9, 5]	24	FR1	0	R1076D
2209.554	5.885	2217824	PROB	5.885	n/a	n/a	-999	20	[7, 6, 1]	14	FR1	0	R1076D
2215.439	17.692	2223709	PROB	17.692	n/a	n/a	-999	20	[9, 7, 9]	25	FR1	0	R1076D
2233.131	0.012	2241400	STOP	n/a	n/a	n/a	-999	20	[-999, -999, -999]	n/a	FR1	0	R1076D
2233.143	0.699	2241412	DISTRACT_END	n/a	n/a	n/a	-999	20	[0, 0, 0]	n/a	FR1	0	R1076D
2233.842	0.518	2242111	RETRIEVAL_ORIENT	n/a	n/a	n/a	-999	20	[0, 0, 0]	n/a	FR1	0	R1076D
2234.36	2.619	2242629	REC_START	n/a	n/a	n/a	-999	20	[0, 0, 0]	n/a	FR1	0	R1076D
2236.979	0.906	2245248	REC_WORD	0.906	n/a	ANT	6	20	[0, 0, 0]	n/a	FR1	0	R1076D
2237.885	2.231	2246154	REC_WORD	2.231	n/a	HILL	5	20	[0, 0, 0]	n/a	FR1	0	R1076D
2240.116	12.338	2248385	REC_WORD	12.338	n/a	TREE	-999	20	[0, 0, 0]	n/a	FR1	0	R1076D
2252.454	11.918	2260722	REC_WORD	11.918	n/a	STRING	-999	20	[0, 0, 0]	n/a	FR1	0	R1076D
2264.372	45.051	2272639	REC_END	n/a	n/a	n/a	-999	20	[0, 0, 0]	n/a	FR1	0	R1076D
2309.423	0.5	2317688	TRIAL	n/a	n/a	n/a	-999	21	[0, 0, 0]	n/a	FR1	0	R1076D
2309.923	10.428	2318188	COUNTDOWN_START	n/a	n/a	n/a	-999	21	[0, 0, 0]	n/a	FR1	0	R1076D
2320.351	0.008	2328615	COUNTDOWN_END	n/a	n/a	n/a	-999	21	[0, 0, 0]	n/a	FR1	0	R1076D
2320.359	1.616	2328623	ORIENT	n/a	n/a	n/a	-999	21	[0, 0, 0]	n/a	FR1	0	R1076D
2321.975	2.068	2330239	ORIENT_OFF	n/a	n/a	n/a	-999	21	[0, 0, 0]	n/a	FR1	0	R1076D
2324.043	1.616	2332307	WORD	n/a	wordpools/wordpool_EN.txt	STONE	1	21	[0, 0, 0]	n/a	FR1	0	R1076D
2325.659	0.933	2333923	WORD_OFF	n/a	n/a	STONE	1	21	[0, 0, 0]	n/a	FR1	0	R1076D
2326.592	1.618	2334856	WORD	n/a	wordpools/wordpool_EN.txt	PALM	2	21	[0, 0, 0]	n/a	FR1	0	R1076D
2328.21	0.9	2336474	WORD_OFF	n/a	n/a	PALM	2	21	[0, 0, 0]	n/a	FR1	0	R1076D
2329.11	1.616	2337374	WORD	n/a	wordpools/wordpool_EN.txt	APE	3	21	[0, 0, 0]	n/a	FR1	0	R1076D
2330.726	0.884	2338990	WORD_OFF	n/a	n/a	APE	3	21	[0, 0, 0]	n/a	FR1	0	R1076D
2331.61	1.618	2339874	WORD	n/a	wordpools/wordpool_EN.txt	SPONGE	4	21	[0, 0, 0]	n/a	FR1	0	R1076D
2333.228	0.917	2341492	WORD_OFF	n/a	n/a	SPONGE	4	21	[0, 0, 0]	n/a	FR1	0	R1076D
2334.145	1.615	2342409	WORD	n/a	wordpools/wordpool_EN.txt	CONE	5	21	[0, 0, 0]	n/a	FR1	0	R1076D
2335.76	0.951	2344024	WORD_OFF	n/a	n/a	CONE	5	21	[0, 0, 0]	n/a	FR1	0	R1076D
2336.711	1.618	2344975	WORD	n/a	wordpools/wordpool_EN.txt	SHRIMP	6	21	[0, 0, 0]	n/a	FR1	0	R1076D
2338.329	0.867	2346592	WORD_OFF	n/a	n/a	SHRIMP	6	21	[0, 0, 0]	n/a	FR1	0	R1076D
2339.196	1.615	2347459	WORD	n/a	wordpools/wordpool_EN.txt	HEN	7	21	[0, 0, 0]	n/a	FR1	0	R1076D
2340.811	0.967	2349074	WORD_OFF	n/a	n/a	HEN	7	21	[0, 0, 0]	n/a	FR1	0	R1076D
2341.778	1.602	2350041	WORD	n/a	wordpools/wordpool_EN.txt	SLEEVE	8	21	[0, 0, 0]	n/a	FR1	0	R1076D
2343.38	0.966	2351643	WORD_OFF	n/a	n/a	SLEEVE	8	21	[0, 0, 0]	n/a	FR1	0	R1076D
2344.346	1.616	2352609	WORD	n/a	wordpools/wordpool_EN.txt	SQUARE	9	21	[0, 0, 0]	n/a	FR1	0	R1076D
2345.962	0.95	2354225	WORD_OFF	n/a	n/a	SQUARE	9	21	[0, 0, 0]	n/a	FR1	0	R1076D
2346.912	1.602	2355175	WORD	n/a	wordpools/wordpool_EN.txt	CLIFF	10	21	[0, 0, 0]	n/a	FR1	0	R1076D
2348.514	0.9	2356777	WORD_OFF	n/a	n/a	CLIFF	10	21	[0, 0, 0]	n/a	FR1	0	R1076D
2349.414	1.617	2357677	WORD	n/a	wordpools/wordpool_EN.txt	SUN	11	21	[0, 0, 0]	n/a	FR1	0	R1076D
2351.031	0.832	2359294	WORD_OFF	n/a	n/a	SUN	11	21	[0, 0, 0]	n/a	FR1	0	R1076D
2351.863	1.601	2360126	WORD	n/a	wordpools/wordpool_EN.txt	TRASH	12	21	[0, 0, 0]	n/a	FR1	0	R1076D
2353.464	0.0	2361727	WORD_OFF	n/a	n/a	TRASH	12	21	[0, 0, 0]	n/a	FR1	0	R1076D
2353.464	0.001	2361727	DISTRACT_START	n/a	n/a	n/a	-999	21	[0, 0, 0]	n/a	FR1	0	R1076D
2353.465	0.016	2361728	START	n/a	n/a	n/a	-999	21	[-999, -999, -999]	n/a	FR1	0	R1076D
2353.481	5.184	2361744	PROB	5.184	n/a	n/a	-999	21	[9, 2, 2]	13	FR1	0	R1076D
2358.665	3.451	2366927	PROB	3.451	n/a	n/a	-999	21	[3, 1, 8]	12	FR1	0	R1076D
2362.116	3.6	2370378	PROB	3.6	n/a	n/a	-999	21	[2, 8, 6]	16	FR1	0	R1076D
2365.716	3.352	2373978	PROB	3.352	n/a	n/a	-999	21	[2, 7, 2]	11	FR1	0	R1076D
2369.068	5.36	2377330	PROB	5.36	n/a	n/a	-999	21	[5, 9, 5]	19	FR1	0	R1076D
2374.428	0.007	2382690	STOP	n/a	n/a	n/a	-999	21	[-999, -999, -999]	n/a	FR1	0	R1076D
2374.435	0.549	2382697	DISTRACT_END	n/a	n/a	n/a	-999	21	[0, 0, 0]	n/a	FR1	0	R1076D
2374.984	0.521	2383246	RETRIEVAL_ORIENT	n/a	n/a	n/a	-999	21	[0, 0, 0]	n/a	FR1	0	R1076D
2375.505	1.518	2383766	REC_START	n/a	n/a	n/a	-999	21	[0, 0, 0]	n/a	FR1	0	R1076D
2377.023	1.0	2385284	REC_WORD_VV	1.0	n/a	<>	-999	21	[0, 0, 0]	n/a	FR1	0	R1076D
2378.023	1.0	2386284	REC_WORD_VV	1.0	n/a	<>	-999	21	[0, 0, 0]	n/a	FR1	0	R1076D
2379.023	14.955	2387284	REC_WORD_VV	14.955	n/a	<>	-999	21	[0, 0, 0]	n/a	FR1	0	R1076D
2393.978	2.746	2402239	REC_WORD	2.746	n/a	STING	-999	21	[0, 0, 0]	n/a	FR1	0	R1076D
2396.724	8.79	2404984	REC_WORD	8.79	n/a	STRING	-999	21	[0, 0, 0]	n/a	FR1	0	R1076D
2405.514	7.928	2413774	REC_END	n/a	n/a	n/a	-999	21	[0, 0, 0]	n/a	FR1	0	R1076D
2413.442	0.5	2421701	TRIAL	n/a	n/a	n/a	-999	22	[0, 0, 0]	n/a	FR1	0	R1076D
2413.942	10.428	2422201	COUNTDOWN_START	n/a	n/a	n/a	-999	22	[0, 0, 0]	n/a	FR1	0	R1076D
2424.37	0.008	2432629	COUNTDOWN_END	n/a	n/a	n/a	-999	22	[0, 0, 0]	n/a	FR1	0	R1076D
2424.378	1.616	2432637	ORIENT	n/a	n/a	n/a	-999	22	[0, 0, 0]	n/a	FR1	0	R1076D
2425.994	2.218	2434253	ORIENT_OFF	n/a	n/a	n/a	-999	22	[0, 0, 0]	n/a	FR1	0	R1076D
2428.212	1.616	2436471	WORD	n/a	wordpools/wordpool_EN.txt	LAWN	1	22	[0, 0, 0]	n/a	FR1	0	R1076D
2429.828	0.833	2438087	WORD_OFF	n/a	n/a	LAWN	1	22	[0, 0, 0]	n/a	FR1	0	R1076D
2430.661	1.601	2438920	WORD	n/a	wordpools/wordpool_EN.txt	SUIT	2	22	[0, 0, 0]	n/a	FR1	0	R1076D
2432.262	0.801	2440520	WORD_OFF	n/a	n/a	SUIT	2	22	[0, 0, 0]	n/a	FR1	0	R1076D
2433.063	1.616	2441321	WORD	n/a	wordpools/wordpool_EN.txt	POOL	3	22	[0, 0, 0]	n/a	FR1	0	R1076D
2434.679	0.883	2442937	WORD_OFF	n/a	n/a	POOL	3	22	[0, 0, 0]	n/a	FR1	0	R1076D
2435.562	1.601	2443820	WORD	n/a	wordpools/wordpool_EN.txt	HOUSE	4	22	[0, 0, 0]	n/a	FR1	0	R1076D
2437.163	0.967	2445421	WORD_OFF	n/a	n/a	HOUSE	4	22	[0, 0, 0]	n/a	FR1	0	R1076D
2438.13	1.616	2446388	WORD	n/a	wordpools/wordpool_EN.txt	TEA	5	22	[0, 0, 0]	n/a	FR1	0	R1076D
2439.746	1.0	2448004	WORD_OFF	n/a	n/a	TEA	5	22	[0, 0, 0]	n/a	FR1	0	R1076D
2440.746	1.602	2449004	WORD	n/a	wordpools/wordpool_EN.txt	TANK	6	22	[0, 0, 0]	n/a	FR1	0	R1076D
2442.348	0.867	2450606	WORD_OFF	n/a	n/a	TANK	6	22	[0, 0, 0]	n/a	FR1	0	R1076D
2443.215	1.615	2451473	WORD	n/a	wordpools/wordpool_EN.txt	HOSE	7	22	[0, 0, 0]	n/a	FR1	0	R1076D
2444.83	0.851	2453088	WORD_OFF	n/a	n/a	HOSE	7	22	[0, 0, 0]	n/a	FR1	0	R1076D
2445.681	1.618	2453939	WORD	n/a	wordpools/wordpool_EN.txt	BENCH	8	22	[0, 0, 0]	n/a	FR1	0	R1076D
2447.299	0.9	2455557	WORD_OFF	n/a	n/a	BENCH	8	22	[0, 0, 0]	n/a	FR1	0	R1076D
2448.199	1.616	2456457	WORD	n/a	wordpools/wordpool_EN.txt	CAGE	9	22	[0, 0, 0]	n/a	FR1	0	R1076D
2449.815	0.8	2458072	WORD_OFF	n/a	n/a	CAGE	9	22	[0, 0, 0]	n/a	FR1	0	R1076D
2450.615	1.618	2458872	WORD	n/a	wordpools/wordpool_EN.txt	BROOM	10	22	[0, 0, 0]	n/a	FR1	0	R1076D
2452.233	0.817	2460490	WORD_OFF	n/a	n/a	BROOM	10	22	[0, 0, 0]	n/a	FR1	0	R1076D
2453.05	1.616	2461307	WORD	n/a	wordpools/wordpool_EN.txt	WEED	11	22	[0, 0, 0]	n/a	FR1	0	R1076D
2454.666	0.867	2462923	WORD_OFF	n/a	n/a	WEED	11	22	[0, 0, 0]	n/a	FR1	0	R1076D
2455.533	1.617	2463790	WORD	n/a	wordpools/wordpool_EN.txt	PARK	12	22	[0, 0, 0]	n/a	FR1	0	R1076D
2457.15	0.0	2465407	WORD_OFF	n/a	n/a	PARK	12	22	[0, 0, 0]	n/a	FR1	0	R1076D
2457.15	0.001	2465407	DISTRACT_START	n/a	n/a	n/a	-999	22	[0, 0, 0]	n/a	FR1	0	R1076D
2457.151	0.016	2465408	START	n/a	n/a	n/a	-999	22	[-999, -999, -999]	n/a	FR1	0	R1076D
2457.167	4.151	2465424	PROB	4.151	n/a	n/a	-999	22	[8, 4, 1]	13	FR1	0	R1076D
2461.318	6.701	2469575	PROB	6.701	n/a	n/a	-999	22	[8, 4, 7]	19	FR1	0	R1076D
2468.019	4.418	2476276	PROB	4.418	n/a	n/a	-999	22	[4, 2, 4]	10	FR1	0	R1076D
2472.437	5.022	2480693	PROB	5.022	n/a	n/a	-999	22	[7, 4, 5]	16	FR1	0	R1076D
2477.459	0.012	2485715	STOP	n/a	n/a	n/a	-999	22	[-999, -999, -999]	n/a	FR1	0	R1076D
2477.471	0.583	2485727	DISTRACT_END	n/a	n/a	n/a	-999	22	[0, 0, 0]	n/a	FR1	0	R1076D
2478.054	0.517	2486310	RETRIEVAL_ORIENT	n/a	n/a	n/a	-999	22	[0, 0, 0]	n/a	FR1	0	R1076D
2478.571	1.906	2486827	REC_START	n/a	n/a	n/a	-999	22	[0, 0, 0]	n/a	FR1	0	R1076D
2480.477	1.431	2488733	REC_WORD	1.431	n/a	HOUSE	4	22	[0, 0, 0]	n/a	FR1	0	R1076D
2481.908	1.0	2490164	REC_WORD	1.0	n/a	SUIT	2	22	[0, 0, 0]	n/a	FR1	0	R1076D
2482.908	2.018	2491164	REC_WORD_VV	2.018	n/a	<>	-999	22	[0, 0, 0]	n/a	FR1	0	R1076D
2484.926	2.397	2493182	REC_WORD	2.397	n/a	GRASS	-999	22	[0, 0, 0]	n/a	FR1	0	R1076D
2487.323	2.602	2495578	REC_WORD	2.602	n/a	POOL	3	22	[0, 0, 0]	n/a	FR1	0	R1076D
2489.925	12.301	2498180	REC_WORD	12.301	n/a	WEED	11	22	[0, 0, 0]	n/a	FR1	0	R1076D
2502.226	3.012	2510481	REC_WORD_VV	3.012	n/a	<>	-999	22	[0, 0, 0]	n/a	FR1	0	R1076D
2505.238	3.345	2513493	REC_WORD	3.345	n/a	WHALE	-999	22	[0, 0, 0]	n/a	FR1	0	R1076D
2508.583	15.095	2516837	REC_END	n/a	n/a	n/a	-999	22	[0, 0, 0]	n/a	FR1	0	R1076D
2523.678	0.5	2531932	TRIAL	n/a	n/a	n/a	-999	23	[0, 0, 0]	n/a	FR1	0	R1076D
2524.178	10.428	2532432	COUNTDOWN_START	n/a	n/a	n/a	-999	23	[0, 0, 0]	n/a	FR1	0	R1076D
2534.606	0.008	2542859	COUNTDOWN_END	n/a	n/a	n/a	-999	23	[0, 0, 0]	n/a	FR1	0	R1076D
2534.614	1.618	2542867	ORIENT	n/a	n/a	n/a	-999	23	[0, 0, 0]	n/a	FR1	0	R1076D
2536.232	2.083	2544485	ORIENT_OFF	n/a	n/a	n/a	-999	23	[0, 0, 0]	n/a	FR1	0	R1076D
2538.315	1.616	2546568	WORD	n/a	wordpools/wordpool_EN.txt	DESK	1	23	[0, 0, 0]	n/a	FR1	0	R1076D
2539.931	1.001	2548184	WORD_OFF	n/a	n/a	DESK	1	23	[0, 0, 0]	n/a	FR1	0	R1076D
2540.932	1.616	2549185	WORD	n/a	wordpools/wordpool_EN.txt	ROSE	2	23	[0, 0, 0]	n/a	FR1	0	R1076D
2542.548	0.802	2550801	WORD_OFF	n/a	n/a	ROSE	2	23	[0, 0, 0]	n/a	FR1	0	R1076D
2543.35	1.616	2551602	WORD	n/a	wordpools/wordpool_EN.txt	YARD	3	23	[0, 0, 0]	n/a	FR1	0	R1076D
2544.966	0.766	2553218	WORD_OFF	n/a	n/a	YARD	3	23	[0, 0, 0]	n/a	FR1	0	R1076D
2545.732	1.601	2553984	WORD	n/a	wordpools/wordpool_EN.txt	BRANCH	4	23	[0, 0, 0]	n/a	FR1	0	R1076D
2547.333	0.868	2555585	WORD_OFF	n/a	n/a	BRANCH	4	23	[0, 0, 0]	n/a	FR1	0	R1076D
2548.201	1.615	2556453	WORD	n/a	wordpools/wordpool_EN.txt	OAK	5	23	[0, 0, 0]	n/a	FR1	0	R1076D
2549.816	0.801	2558068	WORD_OFF	n/a	n/a	OAK	5	23	[0, 0, 0]	n/a	FR1	0	R1076D
2550.617	1.618	2558869	WORD	n/a	wordpools/wordpool_EN.txt	SAIL	6	23	[0, 0, 0]	n/a	FR1	0	R1076D
2552.235	0.783	2560487	WORD_OFF	n/a	n/a	SAIL	6	23	[0, 0, 0]	n/a	FR1	0	R1076D
2553.018	1.616	2561270	WORD	n/a	wordpools/wordpool_EN.txt	PURSE	7	23	[0, 0, 0]	n/a	FR1	0	R1076D
2554.634	0.784	2562886	WORD_OFF	n/a	n/a	PURSE	7	23	[0, 0, 0]	n/a	FR1	0	R1076D
2555.418	1.617	2563670	WORD	n/a	wordpools/wordpool_EN.txt	HORN	8	23	[0, 0, 0]	n/a	FR1	0	R1076D
2557.035	0.766	2565287	WORD_OFF	n/a	n/a	HORN	8	23	[0, 0, 0]	n/a	FR1	0	R1076D
2557.801	1.618	2566053	WORD	n/a	wordpools/wordpool_EN.txt	SLUSH	9	23	[0, 0, 0]	n/a	FR1	0	R1076D
2559.419	1.0	2567671	WORD_OFF	n/a	n/a	SLUSH	9	23	[0, 0, 0]	n/a	FR1	0	R1076D
2560.419	1.617	2568671	WORD	n/a	wordpools/wordpool_EN.txt	WALL	10	23	[0, 0, 0]	n/a	FR1	0	R1076D
2562.036	0.816	2570287	WORD_OFF	n/a	n/a	WALL	10	23	[0, 0, 0]	n/a	FR1	0	R1076D
2562.852	1.601	2571103	WORD	n/a	wordpools/wordpool_EN.txt	DOOR	11	23	[0, 0, 0]	n/a	FR1	0	R1076D
2564.453	0.934	2572704	WORD_OFF	n/a	n/a	DOOR	11	23	[0, 0, 0]	n/a	FR1	0	R1076D
2565.387	1.616	2573638	WORD	n/a	wordpools/wordpool_EN.txt	THUMB	12	23	[0, 0, 0]	n/a	FR1	0	R1076D
2567.003	0.0	2575254	WORD_OFF	n/a	n/a	THUMB	12	23	[0, 0, 0]	n/a	FR1	0	R1076D
2567.003	0.0	2575254	DISTRACT_START	n/a	n/a	n/a	-999	23	[0, 0, 0]	n/a	FR1	0	R1076D
2567.003	0.018	2575254	START	n/a	n/a	n/a	-999	23	[-999, -999, -999]	n/a	FR1	0	R1076D
2567.021	3.749	2575272	PROB	3.749	n/a	n/a	-999	23	[2, 3, 7]	12	FR1	0	R1076D
2570.77	5.035	2579021	PROB	5.035	n/a	n/a	-999	23	[3, 4, 3]	10	FR1	0	R1076D
2575.805	4.585	2584056	PROB	4.585	n/a	n/a	-999	23	[1, 4, 5]	10	FR1	0	R1076D
2580.39	3.266	2588640	PROB	3.266	n/a	n/a	-999	23	[1, 4, 7]	12	FR1	0	R1076D
2583.656	7.547	2591906	PROB	7.547	n/a	n/a	-999	23	[3, 5, 4]	12	FR1	0	R1076D
2591.203	0.022	2599453	STOP	n/a	n/a	n/a	-999	23	[-999, -999, -999]	n/a	FR1	0	R1076D
2591.225	0.683	2599475	DISTRACT_END	n/a	n/a	n/a	-999	23	[0, 0, 0]	n/a	FR1	0	R1076D
2591.908	0.518	2600158	RETRIEVAL_ORIENT	n/a	n/a	n/a	-999	23	[0, 0, 0]	n/a	FR1	0	R1076D
2592.426	1.121	2600676	REC_START	n/a	n/a	n/a	-999	23	[0, 0, 0]	n/a	FR1	0	R1076D
2593.547	2.764	2601797	REC_WORD	2.764	n/a	SUIT	-999	23	[0, 0, 0]	n/a	FR1	0	R1076D
2596.311	4.0	2604561	REC_WORD	4.0	n/a	GRASS	-999	23	[0, 0, 0]	n/a	FR1	0	R1076D
2600.311	0.942	2608560	REC_WORD	0.942	n/a	ROSE	2	23	[0, 0, 0]	n/a	FR1	0	R1076D
2601.253	10.345	2609502	REC_WORD	10.345	n/a	BRANCH	4	23	[0, 0, 0]	n/a	FR1	0	R1076D
2611.598	10.839	2619847	REC_WORD	10.839	n/a	TREE	-999	23	[0, 0, 0]	n/a	FR1	0	R1076D
2622.437	8.695	2630685	REC_END	n/a	n/a	n/a	-999	23	[0, 0, 0]	n/a	FR1	0	R1076D
2631.132	0.5	2639380	TRIAL	n/a	n/a	n/a	-999	24	[0, 0, 0]	n/a	FR1	0	R1076D
2631.632	10.428	2639880	COUNTDOWN_START	n/a	n/a	n/a	-999	24	[0, 0, 0]	n/a	FR1	0	R1076D
2642.06	0.008	2650307	COUNTDOWN_END	n/a	n/a	n/a	-999	24	[0, 0, 0]	n/a	FR1	0	R1076D
2642.068	1.616	2650315	ORIENT	n/a	n/a	n/a	-999	24	[0, 0, 0]	n/a	FR1	0	R1076D
2643.684	1.983	2651931	ORIENT_OFF	n/a	n/a	n/a	-999	24	[0, 0, 0]	n/a	FR1	0	R1076D
2645.667	1.618	2653914	WORD	n/a	wordpools/wordpool_EN.txt	HOLE	1	24	[0, 0, 0]	n/a	FR1	0	R1076D
2647.285	0.951	2655532	WORD_OFF	n/a	n/a	HOLE	1	24	[0, 0, 0]	n/a	FR1	0	R1076D
2648.236	1.615	2656483	WORD	n/a	wordpools/wordpool_EN.txt	BRUSH	2	24	[0, 0, 0]	n/a	FR1	0	R1076D
2649.851	0.801	2658098	WORD_OFF	n/a	n/a	BRUSH	2	24	[0, 0, 0]	n/a	FR1	0	R1076D
2650.652	1.618	2658899	WORD	n/a	wordpools/wordpool_EN.txt	OAR	3	24	[0, 0, 0]	n/a	FR1	0	R1076D
2652.27	0.933	2660517	WORD_OFF	n/a	n/a	OAR	3	24	[0, 0, 0]	n/a	FR1	0	R1076D
2653.203	1.616	2661450	WORD	n/a	wordpools/wordpool_EN.txt	PIN	4	24	[0, 0, 0]	n/a	FR1	0	R1076D
2654.819	0.917	2663065	WORD_OFF	n/a	n/a	PIN	4	24	[0, 0, 0]	n/a	FR1	0	R1076D
2655.736	1.618	2663982	WORD	n/a	wordpools/wordpool_EN.txt	SMOKE	5	24	[0, 0, 0]	n/a	FR1	0	R1076D
2657.354	0.983	2665600	WORD_OFF	n/a	n/a	SMOKE	5	24	[0, 0, 0]	n/a	FR1	0	R1076D
2658.337	1.616	2666583	WORD	n/a	wordpools/wordpool_EN.txt	WOOD	6	24	[0, 0, 0]	n/a	FR1	0	R1076D
2659.953	0.951	2668199	WORD_OFF	n/a	n/a	WOOD	6	24	[0, 0, 0]	n/a	FR1	0	R1076D
2660.904	1.617	2669150	WORD	n/a	wordpools/wordpool_EN.txt	AXE	7	24	[0, 0, 0]	n/a	FR1	0	R1076D
2662.521	0.867	2670767	WORD_OFF	n/a	n/a	AXE	7	24	[0, 0, 0]	n/a	FR1	0	R1076D
2663.388	1.616	2671634	WORD	n/a	wordpools/wordpool_EN.txt	SHIELD	8	24	[0, 0, 0]	n/a	FR1	0	R1076D
2665.004	0.85	2673250	WORD_OFF	n/a	n/a	SHIELD	8	24	[0, 0, 0]	n/a	FR1	0	R1076D
2665.854	1.602	2674100	WORD	n/a	wordpools/wordpool_EN.txt	SINK	9	24	[0, 0, 0]	n/a	FR1	0	R1076D
2667.456	0.983	2675702	WORD_OFF	n/a	n/a	SINK	9	24	[0, 0, 0]	n/a	FR1	0	R1076D
2668.439	1.617	2676685	WORD	n/a	wordpools/wordpool_EN.txt	BIRD	10	24	[0, 0, 0]	n/a	FR1	0	R1076D
2670.056	0.883	2678302	WORD_OFF	n/a	n/a	BIRD	10	24	[0, 0, 0]	n/a	FR1	0	R1076D
2670.939	1.617	2679185	WORD	n/a	wordpools/wordpool_EN.txt	CAVE	11	24	[0, 0, 0]	n/a	FR1	0	R1076D
2672.556	0.966	2680802	WORD_OFF	n/a	n/a	CAVE	11	24	[0, 0, 0]	n/a	FR1	0	R1076D
2673.522	1.618	2681767	WORD	n/a	wordpools/wordpool_EN.txt	POND	12	24	[0, 0, 0]	n/a	FR1	0	R1076D
2675.14	0.0	2683385	WORD_OFF	n/a	n/a	POND	12	24	[0, 0, 0]	n/a	FR1	0	R1076D
2675.14	0.001	2683385	DISTRACT_START	n/a	n/a	n/a	-999	24	[0, 0, 0]	n/a	FR1	0	R1076D
2675.141	0.016	2683386	START	n/a	n/a	n/a	-999	24	[-999, -999, -999]	n/a	FR1	0	R1076D
2675.157	4.533	2683402	PROB	4.533	n/a	n/a	-999	24	[5, 2, 9]	16	FR1	0	R1076D
2679.69	4.485	2687935	PROB	4.485	n/a	n/a	-999	24	[6, 3, 6]	15	FR1	0	R1076D
2684.175	9.952	2692420	PROB	9.952	n/a	n/a	-999	24	[5, 1, 9]	15	FR1	0	R1076D
2694.127	3.827	2702371	PROB	3.827	n/a	n/a	-999	24	[7, 4, 9]	20	FR1	0	R1076D
2697.954	0.006	2706198	STOP	n/a	n/a	n/a	-999	24	[-999, -999, -999]	n/a	FR1	0	R1076D
2697.96	0.7	2706204	DISTRACT_END	n/a	n/a	n/a	-999	24	[0, 0, 0]	n/a	FR1	0	R1076D
2698.66	0.519	2706904	RETRIEVAL_ORIENT	n/a	n/a	n/a	-999	24	[0, 0, 0]	n/a	FR1	0	R1076D
2699.179	1.105	2707423	REC_START	n/a	n/a	n/a	-999	24	[0, 0, 0]	n/a	FR1	0	R1076D
2700.284	1.381	2708528	REC_WORD	1.381	n/a	AXE	7	24	[0, 0, 0]	n/a	FR1	0	R1076D
2701.665	1.39	2709909	REC_WORD	1.39	n/a	WOOD	6	24	[0, 0, 0]	n/a	FR1	0	R1076D
2703.055	1.525	2711299	REC_WORD	1.525	n/a	CAVE	11	24	[0, 0, 0]	n/a	FR1	0	R1076D
2704.58	21.229	2712824	REC_WORD	21.229	n/a	SMOKE	5	24	[0, 0, 0]	n/a	FR1	0	R1076D
2725.809	3.38	2734052	REC_WORD	3.38	n/a	FISH	-999	24	[0, 0, 0]	n/a	FR1	0	R1076D
2729.189	6.395	2737431	REC_END	n/a	n/a	n/a	-999	24	[0, 0, 0]	n/a	FR1	0	R1076D
2735.584	0.5	2743826	TRIAL	n/a	n/a	n/a	-999	25	[0, 0, 0]	n/a	FR1	0	R1076D
2736.084	10.428	2744326	COUNTDOWN_START	n/a	n/a	n/a	-999	25	[0, 0, 0]	n/a	FR1	0	R1076D
2746.512	0.008	2754754	COUNTDOWN_END	n/a	n/a	n/a	-999	25	[0, 0, 0]	n/a	FR1	0	R1076D
2746.52	1.617	2754762	ORIENT	n/a	n/a	n/a	-999	25	[0, 0, 0]	n/a	FR1	0	R1076D
2748.137	2.017	2756378	ORIENT_OFF	n/a	n/a	n/a	-999	25	[0, 0, 0]	n/a	FR1	0	R1076D
2750.154	1.616	2758395	WORD	n/a	wordpools/wordpool_EN.txt	TEETH	1	25	[0, 0, 0]	n/a	FR1	0	R1076D
2751.77	0.817	2760011	WORD_OFF	n/a	n/a	TEETH	1	25	[0, 0, 0]	n/a	FR1	0	R1076D
2752.587	1.601	2760828	WORD	n/a	wordpools/wordpool_EN.txt	KITE	2	25	[0, 0, 0]	n/a	FR1	0	R1076D
2754.188	0.917	2762429	WORD_OFF	n/a	n/a	KITE	2	25	[0, 0, 0]	n/a	FR1	0	R1076D
2755.105	1.616	2763346	WORD	n/a	wordpools/wordpool_EN.txt	JUDGE	3	25	[0, 0, 0]	n/a	FR1	0	R1076D
2756.721	0.85	2764962	WORD_OFF	n/a	n/a	JUDGE	3	25	[0, 0, 0]	n/a	FR1	0	R1076D
2757.571	1.602	2765812	WORD	n/a	wordpools/wordpool_EN.txt	FILM	4	25	[0, 0, 0]	n/a	FR1	0	R1076D
2759.173	0.9	2767414	WORD_OFF	n/a	n/a	FILM	4	25	[0, 0, 0]	n/a	FR1	0	R1076D
2760.073	1.616	2768314	WORD	n/a	wordpools/wordpool_EN.txt	THREAD	5	25	[0, 0, 0]	n/a	FR1	0	R1076D
2761.689	1.0	2769930	WORD_OFF	n/a	n/a	THREAD	5	25	[0, 0, 0]	n/a	FR1	0	R1076D
2762.689	1.618	2770930	WORD	n/a	wordpools/wordpool_EN.txt	PEARL	6	25	[0, 0, 0]	n/a	FR1	0	R1076D
2764.307	0.85	2772548	WORD_OFF	n/a	n/a	PEARL	6	25	[0, 0, 0]	n/a	FR1	0	R1076D
2765.157	1.616	2773398	WORD	n/a	wordpools/wordpool_EN.txt	NAIL	7	25	[0, 0, 0]	n/a	FR1	0	R1076D
2766.773	0.95	2775013	WORD_OFF	n/a	n/a	NAIL	7	25	[0, 0, 0]	n/a	FR1	0	R1076D
2767.723	1.601	2775963	WORD	n/a	wordpools/wordpool_EN.txt	SHEET	8	25	[0, 0, 0]	n/a	FR1	0	R1076D
2769.324	0.851	2777564	WORD_OFF	n/a	n/a	SHEET	8	25	[0, 0, 0]	n/a	FR1	0	R1076D
2770.175	1.615	2778415	WORD	n/a	wordpools/wordpool_EN.txt	FOX	9	25	[0, 0, 0]	n/a	FR1	0	R1076D
2771.79	0.934	2780030	WORD_OFF	n/a	n/a	FOX	9	25	[0, 0, 0]	n/a	FR1	0	R1076D
2772.724	1.618	2780964	WORD	n/a	wordpools/wordpool_EN.txt	CORD	10	25	[0, 0, 0]	n/a	FR1	0	R1076D
2774.342	0.85	2782582	WORD_OFF	n/a	n/a	CORD	10	25	[0, 0, 0]	n/a	FR1	0	R1076D
2775.192	1.616	2783432	WORD	n/a	wordpools/wordpool_EN.txt	CASH	11	25	[0, 0, 0]	n/a	FR1	0	R1076D
2776.808	0.967	2785048	WORD_OFF	n/a	n/a	CASH	11	25	[0, 0, 0]	n/a	FR1	0	R1076D
2777.775	1.618	2786015	WORD	n/a	wordpools/wordpool_EN.txt	TOOTH	12	25	[0, 0, 0]	n/a	FR1	0	R1076D
2779.393	0.0	2787633	WORD_OFF	n/a	n/a	TOOTH	12	25	[0, 0, 0]	n/a	FR1	0	R1076D
2779.393	0.001	2787633	DISTRACT_START	n/a	n/a	n/a	-999	25	[0, 0, 0]	n/a	FR1	0	R1076D
2779.394	0.016	2787634	START	n/a	n/a	n/a	-999	25	[-999, -999, -999]	n/a	FR1	0	R1076D
2779.41	4.149	2787650	PROB	4.149	n/a	n/a	-999	25	[6, 1, 7]	15	FR1	0	R1076D
2783.559	4.268	2791799	PROB	4.268	n/a	n/a	-999	25	[6, 2, 5]	12	FR1	0	R1076D
2787.827	6.552	2796066	PROB	6.552	n/a	n/a	-999	25	[6, 3, 1]	10	FR1	0	R1076D
2794.379	3.566	2802618	PROB	3.566	n/a	n/a	-999	25	[1, 5, 4]	10	FR1	0	R1076D
2797.945	7.099	2806184	PROB	7.099	n/a	n/a	-999	25	[8, 1, 5]	14	FR1	0	R1076D
2805.044	0.02	2813282	STOP	n/a	n/a	n/a	-999	25	[-999, -999, -999]	n/a	FR1	0	R1076D
2805.064	0.683	2813302	DISTRACT_END	n/a	n/a	n/a	-999	25	[0, 0, 0]	n/a	FR1	0	R1076D
2805.747	0.518	2813985	RETRIEVAL_ORIENT	n/a	n/a	n/a	-999	25	[0, 0, 0]	n/a	FR1	0	R1076D
2806.265	1.249	2814503	REC_START	n/a	n/a	n/a	-999	25	[0, 0, 0]	n/a	FR1	0	R1076D
2807.514	1.0	2815752	REC_WORD_VV	1.0	n/a	<>	-999	25	[0, 0, 0]	n/a	FR1	0	R1076D
2808.514	4.165	2816752	REC_WORD_VV	4.165	n/a	<>	-999	25	[0, 0, 0]	n/a	FR1	0	R1076D
2812.679	5.377	2820917	REC_WORD	5.377	n/a	CLIMB	-999	25	[0, 0, 0]	n/a	FR1	0	R1076D
2818.056	6.181	2826294	REC_WORD	6.181	n/a	KITE	2	25	[0, 0, 0]	n/a	FR1	0	R1076D
2824.237	12.04	2832474	REC_WORD	12.04	n/a	STORM	-999	25	[0, 0, 0]	n/a	FR1	0	R1076D
2836.277	37.1	2844514	REC_END	n/a	n/a	n/a	-999	25	[0, 0, 0]	n/a	FR1	0	R1076D
2873.377	0.0	2881612	SESS_END	n/a	n/a	n/a	-999	25	[0, 0, 0]	n/a	FR1	0	R1076D
