onset	duration	sample	trial_type	response_time	stim_file	item_name	serialpos	list	test	answer	experiment	session	subject
0.0	0.0	426332	INSTRUCT_START	n/a	n/a	n/a	-999	-999	[0, 0, 0]	n/a	FR1	1	R1196N
0.0	10.721	426332	INSTRUCT_END	n/a	n/a	n/a	-999	-999	[0, 0, 0]	n/a	FR1	1	R1196N
10.721	0.0	437052	SESS_START	n/a	n/a	n/a	-999	-999	[0, 0, 0]	n/a	FR1	1	R1196N
10.721	111.283	437052	MIC_TEST	n/a	n/a	n/a	-999	-999	[0, 0, 0]	n/a	FR1	1	R1196N
122.004	2.33	548334	PRACTICE_TRIAL	n/a	n/a	n/a	-999	-1	[0, 0, 0]	n/a	FR1	1	R1196N
124.334	10.428	550664	COUNTDOWN_START	n/a	n/a	n/a	-999	-1	[0, 0, 0]	n/a	FR1	1	R1196N
134.762	0.007	561092	COUNTDOWN_END	n/a	n/a	n/a	-999	-1	[0, 0, 0]	n/a	FR1	1	R1196N
134.769	1.616	561099	PRACTICE_ORIENT	n/a	n/a	n/a	-999	-1	[0, 0, 0]	n/a	FR1	1	R1196N
136.385	2.068	562715	PRACTICE_ORIENT_OFF	n/a	n/a	n/a	-999	-1	[0, 0, 0]	n/a	FR1	1	R1196N
138.453	1.616	564783	PRACTICE_WORD	n/a	n/a	WAGON	1	-1	[0, 0, 0]	n/a	FR1	1	R1196N
140.069	0.801	566399	PRACTICE_WORD_OFF	n/a	n/a	WAGON	-999	-1	[0, 0, 0]	n/a	FR1	1	R1196N
140.87	1.617	567200	PRACTICE_WORD	n/a	n/a	ATTIC	2	-1	[0, 0, 0]	n/a	FR1	1	R1196N
142.487	0.966	568817	PRACTICE_WORD_OFF	n/a	n/a	ATTIC	-999	-1	[0, 0, 0]	n/a	FR1	1	R1196N
143.453	1.616	569783	PRACTICE_WORD	n/a	n/a	FLOOD	3	-1	[0, 0, 0]	n/a	FR1	1	R1196N
145.069	0.785	571399	PRACTICE_WORD_OFF	n/a	n/a	FLOOD	-999	-1	[0, 0, 0]	n/a	FR1	1	R1196N
145.854	1.617	572184	PRACTICE_WORD	n/a	n/a	COTTON	4	-1	[0, 0, 0]	n/a	FR1	1	R1196N
147.471	0.849	573801	PRACTICE_WORD_OFF	n/a	n/a	COTTON	-999	-1	[0, 0, 0]	n/a	FR1	1	R1196N
148.32	1.618	574650	PRACTICE_WORD	n/a	n/a	RHINO	5	-1	[0, 0, 0]	n/a	FR1	1	R1196N
149.938	0.833	576268	PRACTICE_WORD_OFF	n/a	n/a	RHINO	-999	-1	[0, 0, 0]	n/a	FR1	1	R1196N
150.771	1.616	577101	PRACTICE_WORD	n/a	n/a	WATCH	6	-1	[0, 0, 0]	n/a	FR1	1	R1196N
152.387	1.0	578717	PRACTICE_WORD_OFF	n/a	n/a	WATCH	-999	-1	[0, 0, 0]	n/a	FR1	1	R1196N
153.387	1.617	579717	PRACTICE_WORD	n/a	n/a	CHEST	7	-1	[0, 0, 0]	n/a	FR1	1	R1196N
155.004	0.934	581334	PRACTICE_WORD_OFF	n/a	n/a	CHEST	-999	-1	[0, 0, 0]	n/a	FR1	1	R1196N
155.938	1.617	582268	PRACTICE_WORD	n/a	n/a	TONGUE	8	-1	[0, 0, 0]	n/a	FR1	1	R1196N
157.555	0.984	583885	PRACTICE_WORD_OFF	n/a	n/a	TONGUE	-999	-1	[0, 0, 0]	n/a	FR1	1	R1196N
158.539	1.616	584869	PRACTICE_WORD	n/a	n/a	IRON	9	-1	[0, 0, 0]	n/a	FR1	1	R1196N
160.155	0.966	586485	PRACTICE_WORD_OFF	n/a	n/a	IRON	-999	-1	[0, 0, 0]	n/a	FR1	1	R1196N
161.121	1.618	587451	PRACTICE_WORD	n/a	n/a	BEAM	10	-1	[0, 0, 0]	n/a	FR1	1	R1196N
162.739	1.0	589069	PRACTICE_WORD_OFF	n/a	n/a	BEAM	-999	-1	[0, 0, 0]	n/a	FR1	1	R1196N
163.739	1.616	590069	PRACTICE_WORD	n/a	n/a	RING	11	-1	[0, 0, 0]	n/a	FR1	1	R1196N
165.355	0.984	591685	PRACTICE_WORD_OFF	n/a	n/a	RING	-999	-1	[0, 0, 0]	n/a	FR1	1	R1196N
166.339	1.618	592669	PRACTICE_WORD	n/a	n/a	CAMEL	12	-1	[0, 0, 0]	n/a	FR1	1	R1196N
167.957	0.0	594286	PRACTICE_WORD_OFF	n/a	n/a	CAMEL	-999	-1	[0, 0, 0]	n/a	FR1	1	R1196N
167.957	0.0	594286	DISTRACT_START	n/a	n/a	n/a	-999	-1	[0, 0, 0]	n/a	FR1	1	R1196N
167.957	0.016	594286	START	n/a	n/a	n/a	-999	-1	[-999, -999, -999]	n/a	FR1	1	R1196N
167.973	6.2	594302	PROB	6.2	n/a	n/a	-999	-1	[4, 4, 2]	10	FR1	1	R1196N
174.173	6.252	600502	PROB	6.252	n/a	n/a	-999	-1	[5, 6, 3]	14	FR1	1	R1196N
180.425	4.766	606754	PROB	4.766	n/a	n/a	-999	-1	[5, 4, 7]	16	FR1	1	R1196N
185.191	4.19	611520	PROB	4.19	n/a	n/a	-999	-1	[2, 5, 6]	13	FR1	1	R1196N
189.381	0.012	615710	STOP	n/a	n/a	n/a	-999	-1	[-999, -999, -999]	n/a	FR1	1	R1196N
189.393	0.517	615722	DISTRACT_END	n/a	n/a	n/a	-999	-1	[0, 0, 0]	n/a	FR1	1	R1196N
189.91	0.52	616239	RETRIEVAL_ORIENT	n/a	n/a	n/a	-999	-1	[0, 0, 0]	n/a	FR1	1	R1196N
190.43	30.006	616759	PRACTICE_REC_START	n/a	n/a	n/a	-999	-1	[0, 0, 0]	n/a	FR1	1	R1196N
220.436	22.081	646765	PRACTICE_REC_END	n/a	n/a	n/a	-999	-1	[0, 0, 0]	n/a	FR1	1	R1196N
242.517	0.5	668846	TRIAL	n/a	n/a	n/a	-999	1	[0, 0, 0]	n/a	FR1	1	R1196N
243.017	10.428	669346	COUNTDOWN_START	n/a	n/a	n/a	-999	1	[0, 0, 0]	n/a	FR1	1	R1196N
253.445	0.007	679773	COUNTDOWN_END	n/a	n/a	n/a	-999	1	[0, 0, 0]	n/a	FR1	1	R1196N
253.452	1.615	679780	ORIENT	n/a	n/a	n/a	-999	1	[0, 0, 0]	n/a	FR1	1	R1196N
255.067	1.885	681395	ORIENT_OFF	n/a	n/a	n/a	-999	1	[0, 0, 0]	n/a	FR1	1	R1196N
256.952	1.617	683280	WORD	n/a	wordpools/wordpool_EN.txt	PET	1	1	[0, 0, 0]	n/a	FR1	1	R1196N
258.569	0.833	684897	WORD_OFF	n/a	n/a	PET	1	1	[0, 0, 0]	n/a	FR1	1	R1196N
259.402	1.616	685730	WORD	n/a	wordpools/wordpool_EN.txt	DOG	2	1	[0, 0, 0]	n/a	FR1	1	R1196N
261.018	0.818	687346	WORD_OFF	n/a	n/a	DOG	2	1	[0, 0, 0]	n/a	FR1	1	R1196N
261.836	1.617	688164	WORD	n/a	wordpools/wordpool_EN.txt	YARD	3	1	[0, 0, 0]	n/a	FR1	1	R1196N
263.453	0.95	689781	WORD_OFF	n/a	n/a	YARD	3	1	[0, 0, 0]	n/a	FR1	1	R1196N
264.403	1.616	690731	WORD	n/a	wordpools/wordpool_EN.txt	ICE	4	1	[0, 0, 0]	n/a	FR1	1	R1196N
266.019	0.901	692347	WORD_OFF	n/a	n/a	ICE	4	1	[0, 0, 0]	n/a	FR1	1	R1196N
266.92	1.617	693248	WORD	n/a	wordpools/wordpool_EN.txt	BOOT	5	1	[0, 0, 0]	n/a	FR1	1	R1196N
268.537	0.933	694865	WORD_OFF	n/a	n/a	BOOT	5	1	[0, 0, 0]	n/a	FR1	1	R1196N
269.47	1.616	695798	WORD	n/a	wordpools/wordpool_EN.txt	FLUTE	6	1	[0, 0, 0]	n/a	FR1	1	R1196N
271.086	1.0	697414	WORD_OFF	n/a	n/a	FLUTE	6	1	[0, 0, 0]	n/a	FR1	1	R1196N
272.086	1.618	698414	WORD	n/a	wordpools/wordpool_EN.txt	SLEEVE	7	1	[0, 0, 0]	n/a	FR1	1	R1196N
273.704	0.817	700032	WORD_OFF	n/a	n/a	SLEEVE	7	1	[0, 0, 0]	n/a	FR1	1	R1196N
274.521	1.616	700849	WORD	n/a	wordpools/wordpool_EN.txt	SOCK	8	1	[0, 0, 0]	n/a	FR1	1	R1196N
276.137	0.917	702465	WORD_OFF	n/a	n/a	SOCK	8	1	[0, 0, 0]	n/a	FR1	1	R1196N
277.054	1.618	703382	WORD	n/a	wordpools/wordpool_EN.txt	GUARD	9	1	[0, 0, 0]	n/a	FR1	1	R1196N
278.672	0.8	705000	WORD_OFF	n/a	n/a	GUARD	9	1	[0, 0, 0]	n/a	FR1	1	R1196N
279.472	1.616	705800	WORD	n/a	wordpools/wordpool_EN.txt	BADGE	10	1	[0, 0, 0]	n/a	FR1	1	R1196N
281.088	0.801	707416	WORD_OFF	n/a	n/a	BADGE	10	1	[0, 0, 0]	n/a	FR1	1	R1196N
281.889	1.617	708217	WORD	n/a	wordpools/wordpool_EN.txt	SUIT	11	1	[0, 0, 0]	n/a	FR1	1	R1196N
283.506	0.966	709834	WORD_OFF	n/a	n/a	SUIT	11	1	[0, 0, 0]	n/a	FR1	1	R1196N
284.472	1.616	710800	WORD	n/a	wordpools/wordpool_EN.txt	SOAP	12	1	[0, 0, 0]	n/a	FR1	1	R1196N
286.088	0.0	712416	WORD_OFF	n/a	n/a	SOAP	12	1	[0, 0, 0]	n/a	FR1	1	R1196N
286.088	0.001	712416	DISTRACT_START	n/a	n/a	n/a	-999	1	[0, 0, 0]	n/a	FR1	1	R1196N
286.089	0.016	712417	START	n/a	n/a	n/a	-999	1	[-999, -999, -999]	n/a	FR1	1	R1196N
286.105	10.419	712433	PROB	10.419	n/a	n/a	-999	1	[4, 3, 9]	16	FR1	1	R1196N
296.524	5.001	722852	PROB	5.001	n/a	n/a	-999	1	[7, 2, 3]	12	FR1	1	R1196N
301.525	3.434	727853	PROB	3.434	n/a	n/a	-999	1	[1, 7, 6]	14	FR1	1	R1196N
304.959	3.803	731287	PROB	3.803	n/a	n/a	-999	1	[9, 3, 5]	17	FR1	1	R1196N
308.762	0.014	735090	STOP	n/a	n/a	n/a	-999	1	[-999, -999, -999]	n/a	FR1	1	R1196N
308.776	0.683	735104	DISTRACT_END	n/a	n/a	n/a	-999	1	[0, 0, 0]	n/a	FR1	1	R1196N
309.459	0.517	735787	RETRIEVAL_ORIENT	n/a	n/a	n/a	-999	1	[0, 0, 0]	n/a	FR1	1	R1196N
309.976	2.347	736304	REC_START	n/a	n/a	n/a	-999	1	[0, 0, 0]	n/a	FR1	1	R1196N
312.323	0.853	738651	REC_WORD	0.853	n/a	DOG	2	1	[0, 0, 0]	n/a	FR1	1	R1196N
313.176	0.764	739504	REC_WORD	0.764	n/a	HAT	-999	1	[0, 0, 0]	n/a	FR1	1	R1196N
313.94	1.171	740268	REC_WORD	1.171	n/a	YARD	3	1	[0, 0, 0]	n/a	FR1	1	R1196N
315.111	1.005	741439	REC_WORD	1.005	n/a	SUIT	11	1	[0, 0, 0]	n/a	FR1	1	R1196N
316.116	0.98	742444	REC_WORD	0.98	n/a	SOAP	12	1	[0, 0, 0]	n/a	FR1	1	R1196N
317.096	1.047	743424	REC_WORD	1.047	n/a	ICE	4	1	[0, 0, 0]	n/a	FR1	1	R1196N
318.143	1.035	744471	REC_WORD	1.035	n/a	BOOT	5	1	[0, 0, 0]	n/a	FR1	1	R1196N
319.178	1.331	745506	REC_WORD	1.331	n/a	SLEEVE	7	1	[0, 0, 0]	n/a	FR1	1	R1196N
320.509	7.307	746837	REC_WORD	7.307	n/a	FLUTE	6	1	[0, 0, 0]	n/a	FR1	1	R1196N
327.816	0.665	754144	REC_WORD	0.665	n/a	GUARD	9	1	[0, 0, 0]	n/a	FR1	1	R1196N
328.481	11.504	754809	REC_WORD	11.504	n/a	BADGE	10	1	[0, 0, 0]	n/a	FR1	1	R1196N
339.985	15.747	766312	REC_END	n/a	n/a	n/a	-999	1	[0, 0, 0]	n/a	FR1	1	R1196N
355.732	0.5	782059	TRIAL	n/a	n/a	n/a	-999	2	[0, 0, 0]	n/a	FR1	1	R1196N
356.232	10.428	782559	COUNTDOWN_START	n/a	n/a	n/a	-999	2	[0, 0, 0]	n/a	FR1	1	R1196N
366.66	0.007	792987	COUNTDOWN_END	n/a	n/a	n/a	-999	2	[0, 0, 0]	n/a	FR1	1	R1196N
366.667	1.616	792994	ORIENT	n/a	n/a	n/a	-999	2	[0, 0, 0]	n/a	FR1	1	R1196N
368.283	2.118	794610	ORIENT_OFF	n/a	n/a	n/a	-999	2	[0, 0, 0]	n/a	FR1	1	R1196N
370.401	1.616	796728	WORD	n/a	wordpools/wordpool_EN.txt	DOCK	1	2	[0, 0, 0]	n/a	FR1	1	R1196N
372.017	0.967	798344	WORD_OFF	n/a	n/a	DOCK	1	2	[0, 0, 0]	n/a	FR1	1	R1196N
372.984	1.617	799311	WORD	n/a	wordpools/wordpool_EN.txt	TREE	2	2	[0, 0, 0]	n/a	FR1	1	R1196N
374.601	0.867	800928	WORD_OFF	n/a	n/a	TREE	2	2	[0, 0, 0]	n/a	FR1	1	R1196N
375.468	1.616	801795	WORD	n/a	wordpools/wordpool_EN.txt	TRASH	3	2	[0, 0, 0]	n/a	FR1	1	R1196N
377.084	0.884	803411	WORD_OFF	n/a	n/a	TRASH	3	2	[0, 0, 0]	n/a	FR1	1	R1196N
377.968	1.617	804295	WORD	n/a	wordpools/wordpool_EN.txt	SHIELD	4	2	[0, 0, 0]	n/a	FR1	1	R1196N
379.585	1.017	805912	WORD_OFF	n/a	n/a	SHIELD	4	2	[0, 0, 0]	n/a	FR1	1	R1196N
380.602	1.616	806929	WORD	n/a	wordpools/wordpool_EN.txt	BEAN	5	2	[0, 0, 0]	n/a	FR1	1	R1196N
382.218	0.917	808545	WORD_OFF	n/a	n/a	BEAN	5	2	[0, 0, 0]	n/a	FR1	1	R1196N
383.135	1.618	809462	WORD	n/a	wordpools/wordpool_EN.txt	MOOSE	6	2	[0, 0, 0]	n/a	FR1	1	R1196N
384.753	0.767	811080	WORD_OFF	n/a	n/a	MOOSE	6	2	[0, 0, 0]	n/a	FR1	1	R1196N
385.52	1.615	811847	WORD	n/a	wordpools/wordpool_EN.txt	OWL	7	2	[0, 0, 0]	n/a	FR1	1	R1196N
387.135	0.884	813462	WORD_OFF	n/a	n/a	OWL	7	2	[0, 0, 0]	n/a	FR1	1	R1196N
388.019	1.618	814346	WORD	n/a	wordpools/wordpool_EN.txt	BAND	8	2	[0, 0, 0]	n/a	FR1	1	R1196N
389.637	0.783	815964	WORD_OFF	n/a	n/a	BAND	8	2	[0, 0, 0]	n/a	FR1	1	R1196N
390.42	1.616	816747	WORD	n/a	wordpools/wordpool_EN.txt	EAR	9	2	[0, 0, 0]	n/a	FR1	1	R1196N
392.036	0.818	818363	WORD_OFF	n/a	n/a	EAR	9	2	[0, 0, 0]	n/a	FR1	1	R1196N
392.854	1.617	819181	WORD	n/a	wordpools/wordpool_EN.txt	CASH	10	2	[0, 0, 0]	n/a	FR1	1	R1196N
394.471	0.915	820798	WORD_OFF	n/a	n/a	CASH	10	2	[0, 0, 0]	n/a	FR1	1	R1196N
395.386	1.601	821713	WORD	n/a	wordpools/wordpool_EN.txt	CAT	11	2	[0, 0, 0]	n/a	FR1	1	R1196N
396.987	0.901	823314	WORD_OFF	n/a	n/a	CAT	11	2	[0, 0, 0]	n/a	FR1	1	R1196N
397.888	1.617	824215	WORD	n/a	wordpools/wordpool_EN.txt	FOAM	12	2	[0, 0, 0]	n/a	FR1	1	R1196N
399.505	0.0	825832	DISTRACT_START	n/a	n/a	n/a	-999	2	[0, 0, 0]	n/a	FR1	1	R1196N
399.505	0.0	825832	WORD_OFF	n/a	n/a	FOAM	12	2	[0, 0, 0]	n/a	FR1	1	R1196N
399.505	0.016	825832	START	n/a	n/a	n/a	-999	2	[-999, -999, -999]	n/a	FR1	1	R1196N
399.521	6.55	825848	PROB	6.55	n/a	n/a	-999	2	[7, 5, 5]	17	FR1	1	R1196N
406.071	3.335	832398	PROB	3.335	n/a	n/a	-999	2	[1, 3, 4]	8	FR1	1	R1196N
409.406	3.367	835733	PROB	3.367	n/a	n/a	-999	2	[2, 8, 5]	15	FR1	1	R1196N
412.773	4.333	839100	PROB	4.333	n/a	n/a	-999	2	[5, 4, 8]	17	FR1	1	R1196N
417.106	4.028	843432	PROB	4.028	n/a	n/a	-999	2	[2, 2, 9]	13	FR1	1	R1196N
421.134	0.006	847460	STOP	n/a	n/a	n/a	-999	2	[-999, -999, -999]	n/a	FR1	1	R1196N
421.14	0.584	847466	DISTRACT_END	n/a	n/a	n/a	-999	2	[0, 0, 0]	n/a	FR1	1	R1196N
421.724	0.517	848050	RETRIEVAL_ORIENT	n/a	n/a	n/a	-999	2	[0, 0, 0]	n/a	FR1	1	R1196N
422.241	1.262	848567	REC_START	n/a	n/a	n/a	-999	2	[0, 0, 0]	n/a	FR1	1	R1196N
423.503	0.801	849829	REC_WORD	0.801	n/a	CASH	10	2	[0, 0, 0]	n/a	FR1	1	R1196N
424.304	0.701	850630	REC_WORD	0.701	n/a	CAT	11	2	[0, 0, 0]	n/a	FR1	1	R1196N
425.005	0.977	851331	REC_WORD	0.977	n/a	PHONE	-999	2	[0, 0, 0]	n/a	FR1	1	R1196N
425.982	3.164	852308	REC_WORD	3.164	n/a	BEAN	5	2	[0, 0, 0]	n/a	FR1	1	R1196N
429.146	7.413	855472	REC_WORD	7.413	n/a	DOCK	1	2	[0, 0, 0]	n/a	FR1	1	R1196N
436.559	15.689	862885	REC_WORD	15.689	n/a	MOOSE	6	2	[0, 0, 0]	n/a	FR1	1	R1196N
452.248	6.93	878574	REC_END	n/a	n/a	n/a	-999	2	[0, 0, 0]	n/a	FR1	1	R1196N
459.178	0.5	885504	TRIAL	n/a	n/a	n/a	-999	3	[0, 0, 0]	n/a	FR1	1	R1196N
459.678	10.428	886004	COUNTDOWN_START	n/a	n/a	n/a	-999	3	[0, 0, 0]	n/a	FR1	1	R1196N
470.106	0.007	896432	COUNTDOWN_END	n/a	n/a	n/a	-999	3	[0, 0, 0]	n/a	FR1	1	R1196N
470.113	1.618	896439	ORIENT	n/a	n/a	n/a	-999	3	[0, 0, 0]	n/a	FR1	1	R1196N
471.731	1.984	898057	ORIENT_OFF	n/a	n/a	n/a	-999	3	[0, 0, 0]	n/a	FR1	1	R1196N
473.715	1.616	900041	WORD	n/a	wordpools/wordpool_EN.txt	CROWN	1	3	[0, 0, 0]	n/a	FR1	1	R1196N
475.331	0.866	901657	WORD_OFF	n/a	n/a	CROWN	1	3	[0, 0, 0]	n/a	FR1	1	R1196N
476.197	1.601	902523	WORD	n/a	wordpools/wordpool_EN.txt	FRUIT	2	3	[0, 0, 0]	n/a	FR1	1	R1196N
477.798	0.917	904124	WORD_OFF	n/a	n/a	FRUIT	2	3	[0, 0, 0]	n/a	FR1	1	R1196N
478.715	1.616	905041	WORD	n/a	wordpools/wordpool_EN.txt	PEAR	3	3	[0, 0, 0]	n/a	FR1	1	R1196N
480.331	0.95	906657	WORD_OFF	n/a	n/a	PEAR	3	3	[0, 0, 0]	n/a	FR1	1	R1196N
481.281	1.601	907607	WORD	n/a	wordpools/wordpool_EN.txt	CLAY	4	3	[0, 0, 0]	n/a	FR1	1	R1196N
482.882	0.851	909208	WORD_OFF	n/a	n/a	CLAY	4	3	[0, 0, 0]	n/a	FR1	1	R1196N
483.733	1.616	910059	WORD	n/a	wordpools/wordpool_EN.txt	MOUTH	5	3	[0, 0, 0]	n/a	FR1	1	R1196N
485.349	0.85	911675	WORD_OFF	n/a	n/a	MOUTH	5	3	[0, 0, 0]	n/a	FR1	1	R1196N
486.199	1.618	912525	WORD	n/a	wordpools/wordpool_EN.txt	INK	6	3	[0, 0, 0]	n/a	FR1	1	R1196N
487.817	0.8	914143	WORD_OFF	n/a	n/a	INK	6	3	[0, 0, 0]	n/a	FR1	1	R1196N
488.617	1.616	914943	WORD	n/a	wordpools/wordpool_EN.txt	BOARD	7	3	[0, 0, 0]	n/a	FR1	1	R1196N
490.233	0.866	916559	WORD_OFF	n/a	n/a	BOARD	7	3	[0, 0, 0]	n/a	FR1	1	R1196N
491.099	1.601	917425	WORD	n/a	wordpools/wordpool_EN.txt	NEST	8	3	[0, 0, 0]	n/a	FR1	1	R1196N
492.7	0.901	919026	WORD_OFF	n/a	n/a	NEST	8	3	[0, 0, 0]	n/a	FR1	1	R1196N
493.601	1.616	919927	WORD	n/a	wordpools/wordpool_EN.txt	KEY	9	3	[0, 0, 0]	n/a	FR1	1	R1196N
495.217	0.783	921543	WORD_OFF	n/a	n/a	KEY	9	3	[0, 0, 0]	n/a	FR1	1	R1196N
496.0	1.618	922326	WORD	n/a	wordpools/wordpool_EN.txt	RIB	10	3	[0, 0, 0]	n/a	FR1	1	R1196N
497.618	0.967	923944	WORD_OFF	n/a	n/a	RIB	10	3	[0, 0, 0]	n/a	FR1	1	R1196N
498.585	1.616	924910	WORD	n/a	wordpools/wordpool_EN.txt	HORSE	11	3	[0, 0, 0]	n/a	FR1	1	R1196N
500.201	0.883	926526	WORD_OFF	n/a	n/a	HORSE	11	3	[0, 0, 0]	n/a	FR1	1	R1196N
501.084	1.601	927409	WORD	n/a	wordpools/wordpool_EN.txt	PRINCE	12	3	[0, 0, 0]	n/a	FR1	1	R1196N
502.685	0.0	929010	WORD_OFF	n/a	n/a	PRINCE	12	3	[0, 0, 0]	n/a	FR1	1	R1196N
502.685	0.0	929010	DISTRACT_START	n/a	n/a	n/a	-999	3	[0, 0, 0]	n/a	FR1	1	R1196N
502.685	0.017	929010	START	n/a	n/a	n/a	-999	3	[-999, -999, -999]	n/a	FR1	1	R1196N
502.702	7.751	929027	PROB	7.751	n/a	n/a	-999	3	[3, 8, 3]	14	FR1	1	R1196N
510.453	3.816	936778	PROB	3.816	n/a	n/a	-999	3	[5, 7, 7]	19	FR1	1	R1196N
514.269	4.235	940594	PROB	4.235	n/a	n/a	-999	3	[1, 2, 5]	8	FR1	1	R1196N
518.504	7.924	944829	PROB	7.924	n/a	n/a	-999	3	[9, 8, 9]	26	FR1	1	R1196N
526.428	0.011	952753	STOP	n/a	n/a	n/a	-999	3	[-999, -999, -999]	n/a	FR1	1	R1196N
526.439	0.582	952764	DISTRACT_END	n/a	n/a	n/a	-999	3	[0, 0, 0]	n/a	FR1	1	R1196N
527.021	0.518	953346	RETRIEVAL_ORIENT	n/a	n/a	n/a	-999	3	[0, 0, 0]	n/a	FR1	1	R1196N
527.539	1.826	953864	REC_START	n/a	n/a	n/a	-999	3	[0, 0, 0]	n/a	FR1	1	R1196N
529.365	0.563	955690	REC_WORD	0.563	n/a	PEAR	3	3	[0, 0, 0]	n/a	FR1	1	R1196N
529.928	1.371	956253	REC_WORD	1.371	n/a	FRUIT	2	3	[0, 0, 0]	n/a	FR1	1	R1196N
531.299	8.427	957624	REC_WORD	8.427	n/a	MOUTH	5	3	[0, 0, 0]	n/a	FR1	1	R1196N
539.726	17.824	966051	REC_WORD	17.824	n/a	RIB	10	3	[0, 0, 0]	n/a	FR1	1	R1196N
557.55	6.693	983875	REC_END	n/a	n/a	n/a	-999	3	[0, 0, 0]	n/a	FR1	1	R1196N
564.243	0.5	990568	TRIAL	n/a	n/a	n/a	-999	4	[0, 0, 0]	n/a	FR1	1	R1196N
564.743	10.428	991068	COUNTDOWN_START	n/a	n/a	n/a	-999	4	[0, 0, 0]	n/a	FR1	1	R1196N
575.171	0.006	1001496	COUNTDOWN_END	n/a	n/a	n/a	-999	4	[0, 0, 0]	n/a	FR1	1	R1196N
575.177	1.601	1001502	ORIENT	n/a	n/a	n/a	-999	4	[0, 0, 0]	n/a	FR1	1	R1196N
576.778	1.884	1003103	ORIENT_OFF	n/a	n/a	n/a	-999	4	[0, 0, 0]	n/a	FR1	1	R1196N
578.662	1.616	1004987	WORD	n/a	wordpools/wordpool_EN.txt	STAR	1	4	[0, 0, 0]	n/a	FR1	1	R1196N
580.278	0.784	1006603	WORD_OFF	n/a	n/a	STAR	1	4	[0, 0, 0]	n/a	FR1	1	R1196N
581.062	1.617	1007386	WORD	n/a	wordpools/wordpool_EN.txt	SEA	2	4	[0, 0, 0]	n/a	FR1	1	R1196N
582.679	0.884	1009003	WORD_OFF	n/a	n/a	SEA	2	4	[0, 0, 0]	n/a	FR1	1	R1196N
583.563	1.616	1009887	WORD	n/a	wordpools/wordpool_EN.txt	TOAST	3	4	[0, 0, 0]	n/a	FR1	1	R1196N
585.179	0.801	1011503	WORD_OFF	n/a	n/a	TOAST	3	4	[0, 0, 0]	n/a	FR1	1	R1196N
585.98	1.617	1012304	WORD	n/a	wordpools/wordpool_EN.txt	OAR	4	4	[0, 0, 0]	n/a	FR1	1	R1196N
587.597	0.85	1013921	WORD_OFF	n/a	n/a	OAR	4	4	[0, 0, 0]	n/a	FR1	1	R1196N
588.447	1.616	1014771	WORD	n/a	wordpools/wordpool_EN.txt	SIGN	5	4	[0, 0, 0]	n/a	FR1	1	R1196N
590.063	0.901	1016387	WORD_OFF	n/a	n/a	SIGN	5	4	[0, 0, 0]	n/a	FR1	1	R1196N
590.964	1.617	1017288	WORD	n/a	wordpools/wordpool_EN.txt	FLOOR	6	4	[0, 0, 0]	n/a	FR1	1	R1196N
592.581	0.917	1018905	WORD_OFF	n/a	n/a	FLOOR	6	4	[0, 0, 0]	n/a	FR1	1	R1196N
593.498	1.615	1019822	WORD	n/a	wordpools/wordpool_EN.txt	BRUSH	7	4	[0, 0, 0]	n/a	FR1	1	R1196N
595.113	1.0	1021437	WORD_OFF	n/a	n/a	BRUSH	7	4	[0, 0, 0]	n/a	FR1	1	R1196N
596.113	1.602	1022437	WORD	n/a	wordpools/wordpool_EN.txt	BUSH	8	4	[0, 0, 0]	n/a	FR1	1	R1196N
597.715	0.883	1024039	WORD_OFF	n/a	n/a	BUSH	8	4	[0, 0, 0]	n/a	FR1	1	R1196N
598.598	1.616	1024922	WORD	n/a	wordpools/wordpool_EN.txt	ROOM	9	4	[0, 0, 0]	n/a	FR1	1	R1196N
600.214	0.784	1026538	WORD_OFF	n/a	n/a	ROOM	9	4	[0, 0, 0]	n/a	FR1	1	R1196N
600.998	1.618	1027322	WORD	n/a	wordpools/wordpool_EN.txt	SPRING	10	4	[0, 0, 0]	n/a	FR1	1	R1196N
602.616	0.983	1028940	WORD_OFF	n/a	n/a	SPRING	10	4	[0, 0, 0]	n/a	FR1	1	R1196N
603.599	1.616	1029923	WORD	n/a	wordpools/wordpool_EN.txt	ROOT	11	4	[0, 0, 0]	n/a	FR1	1	R1196N
605.215	0.768	1031539	WORD_OFF	n/a	n/a	ROOT	11	4	[0, 0, 0]	n/a	FR1	1	R1196N
605.983	1.616	1032307	WORD	n/a	wordpools/wordpool_EN.txt	PIT	12	4	[0, 0, 0]	n/a	FR1	1	R1196N
607.599	0.0	1033923	WORD_OFF	n/a	n/a	PIT	12	4	[0, 0, 0]	n/a	FR1	1	R1196N
607.599	0.001	1033923	DISTRACT_START	n/a	n/a	n/a	-999	4	[0, 0, 0]	n/a	FR1	1	R1196N
607.6	0.016	1033924	START	n/a	n/a	n/a	-999	4	[-999, -999, -999]	n/a	FR1	1	R1196N
607.616	5.65	1033940	PROB	5.65	n/a	n/a	-999	4	[6, 8, 3]	17	FR1	1	R1196N
613.266	4.335	1039590	PROB	4.335	n/a	n/a	-999	4	[5, 7, 9]	21	FR1	1	R1196N
617.601	4.867	1043925	PROB	4.867	n/a	n/a	-999	4	[3, 4, 6]	13	FR1	1	R1196N
622.468	3.301	1048792	PROB	3.301	n/a	n/a	-999	4	[9, 2, 1]	12	FR1	1	R1196N
625.769	5.566	1052093	PROB	5.566	n/a	n/a	-999	4	[4, 3, 5]	12	FR1	1	R1196N
631.335	0.017	1057659	STOP	n/a	n/a	n/a	-999	4	[-999, -999, -999]	n/a	FR1	1	R1196N
631.352	0.534	1057676	DISTRACT_END	n/a	n/a	n/a	-999	4	[0, 0, 0]	n/a	FR1	1	R1196N
631.886	0.517	1058210	RETRIEVAL_ORIENT	n/a	n/a	n/a	-999	4	[0, 0, 0]	n/a	FR1	1	R1196N
632.403	2.099	1058727	REC_START	n/a	n/a	n/a	-999	4	[0, 0, 0]	n/a	FR1	1	R1196N
634.502	1.022	1060826	REC_WORD	1.022	n/a	PIT	12	4	[0, 0, 0]	n/a	FR1	1	R1196N
635.524	1.031	1061848	REC_WORD	1.031	n/a	BUSH	8	4	[0, 0, 0]	n/a	FR1	1	R1196N
636.555	6.92	1062879	REC_WORD	6.92	n/a	BRUSH	7	4	[0, 0, 0]	n/a	FR1	1	R1196N
643.475	5.243	1069799	REC_WORD	5.243	n/a	ROOM	9	4	[0, 0, 0]	n/a	FR1	1	R1196N
648.718	0.84	1075042	REC_WORD	0.84	n/a	SEA	2	4	[0, 0, 0]	n/a	FR1	1	R1196N
649.558	4.349	1075882	REC_WORD	4.349	n/a	STAR	1	4	[0, 0, 0]	n/a	FR1	1	R1196N
653.907	0.823	1080231	REC_WORD	0.823	n/a	OAR	4	4	[0, 0, 0]	n/a	FR1	1	R1196N
654.73	7.682	1081054	REC_WORD	7.682	n/a	TOAST	3	4	[0, 0, 0]	n/a	FR1	1	R1196N
662.412	6.213	1088736	REC_END	n/a	n/a	n/a	-999	4	[0, 0, 0]	n/a	FR1	1	R1196N
668.625	0.5	1094948	TRIAL	n/a	n/a	n/a	-999	5	[0, 0, 0]	n/a	FR1	1	R1196N
669.125	10.428	1095448	COUNTDOWN_START	n/a	n/a	n/a	-999	5	[0, 0, 0]	n/a	FR1	1	R1196N
679.553	0.006	1105876	COUNTDOWN_END	n/a	n/a	n/a	-999	5	[0, 0, 0]	n/a	FR1	1	R1196N
679.559	1.616	1105882	ORIENT	n/a	n/a	n/a	-999	5	[0, 0, 0]	n/a	FR1	1	R1196N
681.175	2.017	1107498	ORIENT_OFF	n/a	n/a	n/a	-999	5	[0, 0, 0]	n/a	FR1	1	R1196N
683.192	1.618	1109515	WORD	n/a	wordpools/wordpool_EN.txt	FLAME	1	5	[0, 0, 0]	n/a	FR1	1	R1196N
684.81	0.983	1111133	WORD_OFF	n/a	n/a	FLAME	1	5	[0, 0, 0]	n/a	FR1	1	R1196N
685.793	1.617	1112116	WORD	n/a	wordpools/wordpool_EN.txt	BEE	2	5	[0, 0, 0]	n/a	FR1	1	R1196N
687.41	0.966	1113733	WORD_OFF	n/a	n/a	BEE	2	5	[0, 0, 0]	n/a	FR1	1	R1196N
688.376	1.617	1114699	WORD	n/a	wordpools/wordpool_EN.txt	WOOD	3	5	[0, 0, 0]	n/a	FR1	1	R1196N
689.993	0.901	1116316	WORD_OFF	n/a	n/a	WOOD	3	5	[0, 0, 0]	n/a	FR1	1	R1196N
690.894	1.617	1117217	WORD	n/a	wordpools/wordpool_EN.txt	CHIEF	4	5	[0, 0, 0]	n/a	FR1	1	R1196N
692.511	0.9	1118834	WORD_OFF	n/a	n/a	CHIEF	4	5	[0, 0, 0]	n/a	FR1	1	R1196N
693.411	1.616	1119734	WORD	n/a	wordpools/wordpool_EN.txt	ANT	5	5	[0, 0, 0]	n/a	FR1	1	R1196N
695.027	0.951	1121350	WORD_OFF	n/a	n/a	ANT	5	5	[0, 0, 0]	n/a	FR1	1	R1196N
695.978	1.617	1122301	WORD	n/a	wordpools/wordpool_EN.txt	CONE	6	5	[0, 0, 0]	n/a	FR1	1	R1196N
697.595	0.817	1123918	WORD_OFF	n/a	n/a	CONE	6	5	[0, 0, 0]	n/a	FR1	1	R1196N
698.412	1.616	1124735	WORD	n/a	wordpools/wordpool_EN.txt	MUD	7	5	[0, 0, 0]	n/a	FR1	1	R1196N
700.028	0.868	1126351	WORD_OFF	n/a	n/a	MUD	7	5	[0, 0, 0]	n/a	FR1	1	R1196N
700.896	1.616	1127219	WORD	n/a	wordpools/wordpool_EN.txt	GLOVE	8	5	[0, 0, 0]	n/a	FR1	1	R1196N
702.512	0.951	1128835	WORD_OFF	n/a	n/a	GLOVE	8	5	[0, 0, 0]	n/a	FR1	1	R1196N
703.463	1.615	1129786	WORD	n/a	wordpools/wordpool_EN.txt	MUG	9	5	[0, 0, 0]	n/a	FR1	1	R1196N
705.078	0.934	1131401	WORD_OFF	n/a	n/a	MUG	9	5	[0, 0, 0]	n/a	FR1	1	R1196N
706.012	1.618	1132335	WORD	n/a	wordpools/wordpool_EN.txt	ARK	10	5	[0, 0, 0]	n/a	FR1	1	R1196N
707.63	0.866	1133953	WORD_OFF	n/a	n/a	ARK	10	5	[0, 0, 0]	n/a	FR1	1	R1196N
708.496	1.617	1134819	WORD	n/a	wordpools/wordpool_EN.txt	MOLE	11	5	[0, 0, 0]	n/a	FR1	1	R1196N
710.113	0.933	1136436	WORD_OFF	n/a	n/a	MOLE	11	5	[0, 0, 0]	n/a	FR1	1	R1196N
711.046	1.618	1137369	WORD	n/a	wordpools/wordpool_EN.txt	SKI	12	5	[0, 0, 0]	n/a	FR1	1	R1196N
712.664	0.0	1138987	WORD_OFF	n/a	n/a	SKI	12	5	[0, 0, 0]	n/a	FR1	1	R1196N
712.664	0.0	1138987	DISTRACT_START	n/a	n/a	n/a	-999	5	[0, 0, 0]	n/a	FR1	1	R1196N
712.664	0.016	1138987	START	n/a	n/a	n/a	-999	5	[-999, -999, -999]	n/a	FR1	1	R1196N
712.68	7.168	1139003	PROB	7.168	n/a	n/a	-999	5	[2, 7, 3]	12	FR1	1	R1196N
719.848	4.266	1146171	PROB	4.266	n/a	n/a	-999	5	[6, 8, 4]	18	FR1	1	R1196N
724.114	8.914	1150437	PROB	8.914	n/a	n/a	-999	5	[9, 7, 3]	19	FR1	1	R1196N
733.028	0.021	1159351	STOP	n/a	n/a	n/a	-999	5	[-999, -999, -999]	n/a	FR1	1	R1196N
733.049	0.668	1159372	DISTRACT_END	n/a	n/a	n/a	-999	5	[0, 0, 0]	n/a	FR1	1	R1196N
733.717	0.516	1160040	RETRIEVAL_ORIENT	n/a	n/a	n/a	-999	5	[0, 0, 0]	n/a	FR1	1	R1196N
734.233	1.358	1160556	REC_START	n/a	n/a	n/a	-999	5	[0, 0, 0]	n/a	FR1	1	R1196N
735.591	2.039	1161914	REC_WORD	2.039	n/a	MUG	9	5	[0, 0, 0]	n/a	FR1	1	R1196N
737.63	1.442	1163953	REC_WORD	1.442	n/a	ARK	10	5	[0, 0, 0]	n/a	FR1	1	R1196N
739.072	1.593	1165395	REC_WORD	1.593	n/a	SKI	12	5	[0, 0, 0]	n/a	FR1	1	R1196N
740.665	23.577	1166988	REC_WORD	23.577	n/a	MOLE	11	5	[0, 0, 0]	n/a	FR1	1	R1196N
764.242	9.796	1190564	REC_END	n/a	n/a	n/a	-999	5	[0, 0, 0]	n/a	FR1	1	R1196N
774.038	0.5	1200360	TRIAL	n/a	n/a	n/a	-999	6	[0, 0, 0]	n/a	FR1	1	R1196N
774.538	10.428	1200860	COUNTDOWN_START	n/a	n/a	n/a	-999	6	[0, 0, 0]	n/a	FR1	1	R1196N
784.966	0.008	1211288	COUNTDOWN_END	n/a	n/a	n/a	-999	6	[0, 0, 0]	n/a	FR1	1	R1196N
784.974	1.617	1211296	ORIENT	n/a	n/a	n/a	-999	6	[0, 0, 0]	n/a	FR1	1	R1196N
786.591	1.816	1212913	ORIENT_OFF	n/a	n/a	n/a	-999	6	[0, 0, 0]	n/a	FR1	1	R1196N
788.407	1.616	1214729	WORD	n/a	wordpools/wordpool_EN.txt	WEED	1	6	[0, 0, 0]	n/a	FR1	1	R1196N
790.023	0.984	1216345	WORD_OFF	n/a	n/a	WEED	1	6	[0, 0, 0]	n/a	FR1	1	R1196N
791.007	1.618	1217329	WORD	n/a	wordpools/wordpool_EN.txt	MOUSE	2	6	[0, 0, 0]	n/a	FR1	1	R1196N
792.625	0.783	1218947	WORD_OFF	n/a	n/a	MOUSE	2	6	[0, 0, 0]	n/a	FR1	1	R1196N
793.408	1.616	1219730	WORD	n/a	wordpools/wordpool_EN.txt	RAIN	3	6	[0, 0, 0]	n/a	FR1	1	R1196N
795.024	0.968	1221346	WORD_OFF	n/a	n/a	RAIN	3	6	[0, 0, 0]	n/a	FR1	1	R1196N
795.992	1.617	1222314	WORD	n/a	wordpools/wordpool_EN.txt	SHIP	4	6	[0, 0, 0]	n/a	FR1	1	R1196N
797.609	0.983	1223931	WORD_OFF	n/a	n/a	SHIP	4	6	[0, 0, 0]	n/a	FR1	1	R1196N
798.592	1.616	1224914	WORD	n/a	wordpools/wordpool_EN.txt	JET	5	6	[0, 0, 0]	n/a	FR1	1	R1196N
800.208	0.967	1226530	WORD_OFF	n/a	n/a	JET	5	6	[0, 0, 0]	n/a	FR1	1	R1196N
801.175	1.618	1227497	WORD	n/a	wordpools/wordpool_EN.txt	STEAK	6	6	[0, 0, 0]	n/a	FR1	1	R1196N
802.793	0.817	1229115	WORD_OFF	n/a	n/a	STEAK	6	6	[0, 0, 0]	n/a	FR1	1	R1196N
803.61	1.615	1229932	WORD	n/a	wordpools/wordpool_EN.txt	BALL	7	6	[0, 0, 0]	n/a	FR1	1	R1196N
805.225	0.817	1231547	WORD_OFF	n/a	n/a	BALL	7	6	[0, 0, 0]	n/a	FR1	1	R1196N
806.042	1.618	1232364	WORD	n/a	wordpools/wordpool_EN.txt	BOMB	8	6	[0, 0, 0]	n/a	FR1	1	R1196N
807.66	0.883	1233982	WORD_OFF	n/a	n/a	BOMB	8	6	[0, 0, 0]	n/a	FR1	1	R1196N
808.543	1.616	1234865	WORD	n/a	wordpools/wordpool_EN.txt	BLOOM	9	6	[0, 0, 0]	n/a	FR1	1	R1196N
810.159	0.802	1236481	WORD_OFF	n/a	n/a	BLOOM	9	6	[0, 0, 0]	n/a	FR1	1	R1196N
810.961	1.616	1237283	WORD	n/a	wordpools/wordpool_EN.txt	TEA	10	6	[0, 0, 0]	n/a	FR1	1	R1196N
812.577	0.783	1238899	WORD_OFF	n/a	n/a	TEA	10	6	[0, 0, 0]	n/a	FR1	1	R1196N
813.36	1.618	1239682	WORD	n/a	wordpools/wordpool_EN.txt	MOTH	11	6	[0, 0, 0]	n/a	FR1	1	R1196N
814.978	0.983	1241300	WORD_OFF	n/a	n/a	MOTH	11	6	[0, 0, 0]	n/a	FR1	1	R1196N
815.961	1.617	1242283	WORD	n/a	wordpools/wordpool_EN.txt	STORM	12	6	[0, 0, 0]	n/a	FR1	1	R1196N
817.578	0.0	1243900	WORD_OFF	n/a	n/a	STORM	12	6	[0, 0, 0]	n/a	FR1	1	R1196N
817.578	0.001	1243900	DISTRACT_START	n/a	n/a	n/a	-999	6	[0, 0, 0]	n/a	FR1	1	R1196N
817.579	0.016	1243901	START	n/a	n/a	n/a	-999	6	[-999, -999, -999]	n/a	FR1	1	R1196N
817.595	8.433	1243917	PROB	8.433	n/a	n/a	-999	6	[7, 9, 5]	21	FR1	1	R1196N
826.028	3.351	1252350	PROB	3.351	n/a	n/a	-999	6	[6, 2, 2]	10	FR1	1	R1196N
829.379	2.983	1255700	PROB	2.983	n/a	n/a	-999	6	[3, 7, 7]	17	FR1	1	R1196N
832.362	5.28	1258683	PROB	5.28	n/a	n/a	-999	6	[2, 3, 4]	9	FR1	1	R1196N
837.642	0.005	1263963	STOP	n/a	n/a	n/a	-999	6	[-999, -999, -999]	n/a	FR1	1	R1196N
837.647	0.683	1263968	DISTRACT_END	n/a	n/a	n/a	-999	6	[0, 0, 0]	n/a	FR1	1	R1196N
838.33	0.518	1264651	RETRIEVAL_ORIENT	n/a	n/a	n/a	-999	6	[0, 0, 0]	n/a	FR1	1	R1196N
838.848	3.595	1265169	REC_START	n/a	n/a	n/a	-999	6	[0, 0, 0]	n/a	FR1	1	R1196N
842.443	1.009	1268764	REC_WORD	1.009	n/a	SHIP	4	6	[0, 0, 0]	n/a	FR1	1	R1196N
843.452	0.91	1269773	REC_WORD	0.91	n/a	WEED	1	6	[0, 0, 0]	n/a	FR1	1	R1196N
844.362	2.405	1270683	REC_WORD	2.405	n/a	MOUSE	2	6	[0, 0, 0]	n/a	FR1	1	R1196N
846.767	1.245	1273088	REC_WORD	1.245	n/a	JET	5	6	[0, 0, 0]	n/a	FR1	1	R1196N
848.012	1.55	1274333	REC_WORD	1.55	n/a	BOMB	8	6	[0, 0, 0]	n/a	FR1	1	R1196N
849.562	13.574	1275883	REC_WORD	13.574	n/a	BLOOM	9	6	[0, 0, 0]	n/a	FR1	1	R1196N
863.136	5.721	1289457	REC_WORD	5.721	n/a	RAIN	3	6	[0, 0, 0]	n/a	FR1	1	R1196N
868.857	6.012	1295178	REC_END	n/a	n/a	n/a	-999	6	[0, 0, 0]	n/a	FR1	1	R1196N
874.869	0.5	1301190	TRIAL	n/a	n/a	n/a	-999	7	[0, 0, 0]	n/a	FR1	1	R1196N
875.369	10.428	1301690	COUNTDOWN_START	n/a	n/a	n/a	-999	7	[0, 0, 0]	n/a	FR1	1	R1196N
885.797	0.007	1312118	COUNTDOWN_END	n/a	n/a	n/a	-999	7	[0, 0, 0]	n/a	FR1	1	R1196N
885.804	1.617	1312125	ORIENT	n/a	n/a	n/a	-999	7	[0, 0, 0]	n/a	FR1	1	R1196N
887.421	2.217	1313742	ORIENT_OFF	n/a	n/a	n/a	-999	7	[0, 0, 0]	n/a	FR1	1	R1196N
889.638	1.616	1315959	WORD	n/a	wordpools/wordpool_EN.txt	PEN	1	7	[0, 0, 0]	n/a	FR1	1	R1196N
891.254	0.917	1317575	WORD_OFF	n/a	n/a	PEN	1	7	[0, 0, 0]	n/a	FR1	1	R1196N
892.171	1.617	1318492	WORD	n/a	wordpools/wordpool_EN.txt	STRING	2	7	[0, 0, 0]	n/a	FR1	1	R1196N
893.788	0.917	1320109	WORD_OFF	n/a	n/a	STRING	2	7	[0, 0, 0]	n/a	FR1	1	R1196N
894.705	1.616	1321026	WORD	n/a	wordpools/wordpool_EN.txt	FAN	3	7	[0, 0, 0]	n/a	FR1	1	R1196N
896.321	0.9	1322642	WORD_OFF	n/a	n/a	FAN	3	7	[0, 0, 0]	n/a	FR1	1	R1196N
897.221	1.601	1323542	WORD	n/a	wordpools/wordpool_EN.txt	CLIFF	4	7	[0, 0, 0]	n/a	FR1	1	R1196N
898.822	0.851	1325143	WORD_OFF	n/a	n/a	CLIFF	4	7	[0, 0, 0]	n/a	FR1	1	R1196N
899.673	1.616	1325994	WORD	n/a	wordpools/wordpool_EN.txt	FUR	5	7	[0, 0, 0]	n/a	FR1	1	R1196N
901.289	0.783	1327610	WORD_OFF	n/a	n/a	FUR	5	7	[0, 0, 0]	n/a	FR1	1	R1196N
902.072	1.618	1328393	WORD	n/a	wordpools/wordpool_EN.txt	STICK	6	7	[0, 0, 0]	n/a	FR1	1	R1196N
903.69	0.833	1330011	WORD_OFF	n/a	n/a	STICK	6	7	[0, 0, 0]	n/a	FR1	1	R1196N
904.523	1.616	1330844	WORD	n/a	wordpools/wordpool_EN.txt	ROSE	7	7	[0, 0, 0]	n/a	FR1	1	R1196N
906.139	0.95	1332460	WORD_OFF	n/a	n/a	ROSE	7	7	[0, 0, 0]	n/a	FR1	1	R1196N
907.089	1.618	1333410	WORD	n/a	wordpools/wordpool_EN.txt	WOLF	8	7	[0, 0, 0]	n/a	FR1	1	R1196N
908.707	0.9	1335028	WORD_OFF	n/a	n/a	WOLF	8	7	[0, 0, 0]	n/a	FR1	1	R1196N
909.607	1.616	1335928	WORD	n/a	wordpools/wordpool_EN.txt	JEEP	9	7	[0, 0, 0]	n/a	FR1	1	R1196N
911.223	1.0	1337543	WORD_OFF	n/a	n/a	JEEP	9	7	[0, 0, 0]	n/a	FR1	1	R1196N
912.223	1.601	1338543	WORD	n/a	wordpools/wordpool_EN.txt	POOL	10	7	[0, 0, 0]	n/a	FR1	1	R1196N
913.824	0.817	1340144	WORD_OFF	n/a	n/a	POOL	10	7	[0, 0, 0]	n/a	FR1	1	R1196N
914.641	1.616	1340961	WORD	n/a	wordpools/wordpool_EN.txt	VAN	11	7	[0, 0, 0]	n/a	FR1	1	R1196N
916.257	0.934	1342577	WORD_OFF	n/a	n/a	VAN	11	7	[0, 0, 0]	n/a	FR1	1	R1196N
917.191	1.618	1343511	WORD	n/a	wordpools/wordpool_EN.txt	WORLD	12	7	[0, 0, 0]	n/a	FR1	1	R1196N
918.809	0.0	1345129	WORD_OFF	n/a	n/a	WORLD	12	7	[0, 0, 0]	n/a	FR1	1	R1196N
918.809	0.0	1345129	DISTRACT_START	n/a	n/a	n/a	-999	7	[0, 0, 0]	n/a	FR1	1	R1196N
918.809	0.016	1345129	START	n/a	n/a	n/a	-999	7	[-999, -999, -999]	n/a	FR1	1	R1196N
918.825	4.884	1345145	PROB	4.884	n/a	n/a	-999	7	[6, 7, 2]	15	FR1	1	R1196N
923.709	3.666	1350029	PROB	3.666	n/a	n/a	-999	7	[6, 6, 8]	20	FR1	1	R1196N
927.375	4.469	1353695	PROB	4.469	n/a	n/a	-999	7	[6, 9, 3]	18	FR1	1	R1196N
931.844	4.817	1358164	PROB	4.817	n/a	n/a	-999	7	[9, 6, 7]	22	FR1	1	R1196N
936.661	7.121	1362981	PROB	7.121	n/a	n/a	-999	7	[3, 5, 7]	15	FR1	1	R1196N
943.782	0.013	1370102	STOP	n/a	n/a	n/a	-999	7	[-999, -999, -999]	n/a	FR1	1	R1196N
943.795	0.617	1370115	DISTRACT_END	n/a	n/a	n/a	-999	7	[0, 0, 0]	n/a	FR1	1	R1196N
944.412	0.517	1370732	RETRIEVAL_ORIENT	n/a	n/a	n/a	-999	7	[0, 0, 0]	n/a	FR1	1	R1196N
944.929	2.916	1371249	REC_START	n/a	n/a	n/a	-999	7	[0, 0, 0]	n/a	FR1	1	R1196N
947.845	0.928	1374165	REC_WORD	0.928	n/a	WOLF	8	7	[0, 0, 0]	n/a	FR1	1	R1196N
948.773	1.123	1375093	REC_WORD	1.123	n/a	JEEP	9	7	[0, 0, 0]	n/a	FR1	1	R1196N
949.896	0.958	1376216	REC_WORD	0.958	n/a	FUR	5	7	[0, 0, 0]	n/a	FR1	1	R1196N
950.854	24.085	1377174	REC_WORD	24.085	n/a	STICK	6	7	[0, 0, 0]	n/a	FR1	1	R1196N
974.939	14.278	1401259	REC_END	n/a	n/a	n/a	-999	7	[0, 0, 0]	n/a	FR1	1	R1196N
989.217	0.5	1415537	TRIAL	n/a	n/a	n/a	-999	8	[0, 0, 0]	n/a	FR1	1	R1196N
989.717	10.428	1416037	COUNTDOWN_START	n/a	n/a	n/a	-999	8	[0, 0, 0]	n/a	FR1	1	R1196N
1000.145	0.007	1426464	COUNTDOWN_END	n/a	n/a	n/a	-999	8	[0, 0, 0]	n/a	FR1	1	R1196N
1000.152	1.618	1426471	ORIENT	n/a	n/a	n/a	-999	8	[0, 0, 0]	n/a	FR1	1	R1196N
1001.77	2.233	1428089	ORIENT_OFF	n/a	n/a	n/a	-999	8	[0, 0, 0]	n/a	FR1	1	R1196N
1004.003	1.617	1430322	WORD	n/a	wordpools/wordpool_EN.txt	BENCH	1	8	[0, 0, 0]	n/a	FR1	1	R1196N
1005.62	0.884	1431939	WORD_OFF	n/a	n/a	BENCH	1	8	[0, 0, 0]	n/a	FR1	1	R1196N
1006.504	1.616	1432823	WORD	n/a	wordpools/wordpool_EN.txt	FLEA	2	8	[0, 0, 0]	n/a	FR1	1	R1196N
1008.12	0.967	1434439	WORD_OFF	n/a	n/a	FLEA	2	8	[0, 0, 0]	n/a	FR1	1	R1196N
1009.087	1.617	1435406	WORD	n/a	wordpools/wordpool_EN.txt	BAG	3	8	[0, 0, 0]	n/a	FR1	1	R1196N
1010.704	0.95	1437023	WORD_OFF	n/a	n/a	BAG	3	8	[0, 0, 0]	n/a	FR1	1	R1196N
1011.654	1.616	1437973	WORD	n/a	wordpools/wordpool_EN.txt	ROAD	4	8	[0, 0, 0]	n/a	FR1	1	R1196N
1013.27	0.767	1439589	WORD_OFF	n/a	n/a	ROAD	4	8	[0, 0, 0]	n/a	FR1	1	R1196N
1014.037	1.618	1440356	WORD	n/a	wordpools/wordpool_EN.txt	TAIL	5	8	[0, 0, 0]	n/a	FR1	1	R1196N
1015.655	0.934	1441974	WORD_OFF	n/a	n/a	TAIL	5	8	[0, 0, 0]	n/a	FR1	1	R1196N
1016.589	1.615	1442908	WORD	n/a	wordpools/wordpool_EN.txt	BAT	6	8	[0, 0, 0]	n/a	FR1	1	R1196N
1018.204	0.801	1444523	WORD_OFF	n/a	n/a	BAT	6	8	[0, 0, 0]	n/a	FR1	1	R1196N
1019.005	1.617	1445324	WORD	n/a	wordpools/wordpool_EN.txt	HAND	7	8	[0, 0, 0]	n/a	FR1	1	R1196N
1020.622	0.917	1446941	WORD_OFF	n/a	n/a	HAND	7	8	[0, 0, 0]	n/a	FR1	1	R1196N
1021.539	1.616	1447858	WORD	n/a	wordpools/wordpool_EN.txt	DIME	8	8	[0, 0, 0]	n/a	FR1	1	R1196N
1023.155	0.784	1449474	WORD_OFF	n/a	n/a	DIME	8	8	[0, 0, 0]	n/a	FR1	1	R1196N
1023.939	1.6	1450258	WORD	n/a	wordpools/wordpool_EN.txt	RAT	9	8	[0, 0, 0]	n/a	FR1	1	R1196N
1025.539	0.8	1451858	WORD_OFF	n/a	n/a	RAT	9	8	[0, 0, 0]	n/a	FR1	1	R1196N
1026.339	1.618	1452658	WORD	n/a	wordpools/wordpool_EN.txt	STAIR	10	8	[0, 0, 0]	n/a	FR1	1	R1196N
1027.957	1.0	1454276	WORD_OFF	n/a	n/a	STAIR	10	8	[0, 0, 0]	n/a	FR1	1	R1196N
1028.957	1.617	1455276	WORD	n/a	wordpools/wordpool_EN.txt	SHIRT	11	8	[0, 0, 0]	n/a	FR1	1	R1196N
1030.574	0.9	1456893	WORD_OFF	n/a	n/a	SHIRT	11	8	[0, 0, 0]	n/a	FR1	1	R1196N
1031.474	1.616	1457793	WORD	n/a	wordpools/wordpool_EN.txt	ELF	12	8	[0, 0, 0]	n/a	FR1	1	R1196N
1033.09	0.0	1459409	WORD_OFF	n/a	n/a	ELF	12	8	[0, 0, 0]	n/a	FR1	1	R1196N
1033.09	0.0	1459409	DISTRACT_START	n/a	n/a	n/a	-999	8	[0, 0, 0]	n/a	FR1	1	R1196N
1033.09	0.016	1459409	START	n/a	n/a	n/a	-999	8	[-999, -999, -999]	n/a	FR1	1	R1196N
1033.106	7.502	1459425	PROB	7.502	n/a	n/a	-999	8	[4, 2, 7]	13	FR1	1	R1196N
1040.608	7.985	1466927	PROB	7.985	n/a	n/a	-999	8	[7, 2, 1]	10	FR1	1	R1196N
1048.593	4.101	1474912	PROB	4.101	n/a	n/a	-999	8	[1, 6, 3]	10	FR1	1	R1196N
1052.694	3.595	1479013	PROB	3.595	n/a	n/a	-999	8	[2, 4, 8]	14	FR1	1	R1196N
1056.289	0.021	1482608	STOP	n/a	n/a	n/a	-999	8	[-999, -999, -999]	n/a	FR1	1	R1196N
1056.31	0.567	1482629	DISTRACT_END	n/a	n/a	n/a	-999	8	[0, 0, 0]	n/a	FR1	1	R1196N
1056.877	0.518	1483196	RETRIEVAL_ORIENT	n/a	n/a	n/a	-999	8	[0, 0, 0]	n/a	FR1	1	R1196N
1057.395	2.71	1483714	REC_START	n/a	n/a	n/a	-999	8	[0, 0, 0]	n/a	FR1	1	R1196N
1060.105	15.882	1486424	REC_WORD	15.882	n/a	ELF	12	8	[0, 0, 0]	n/a	FR1	1	R1196N
1075.987	11.416	1502305	REC_WORD	11.416	n/a	POOL	-999	8	[0, 0, 0]	n/a	FR1	1	R1196N
1087.403	6.895	1513721	REC_END	n/a	n/a	n/a	-999	8	[0, 0, 0]	n/a	FR1	1	R1196N
1094.298	0.5	1520616	TRIAL	n/a	n/a	n/a	-999	9	[0, 0, 0]	n/a	FR1	1	R1196N
1094.798	10.428	1521116	COUNTDOWN_START	n/a	n/a	n/a	-999	9	[0, 0, 0]	n/a	FR1	1	R1196N
1105.226	0.007	1531544	COUNTDOWN_END	n/a	n/a	n/a	-999	9	[0, 0, 0]	n/a	FR1	1	R1196N
1105.233	1.618	1531551	ORIENT	n/a	n/a	n/a	-999	9	[0, 0, 0]	n/a	FR1	1	R1196N
1106.851	2.216	1533169	ORIENT_OFF	n/a	n/a	n/a	-999	9	[0, 0, 0]	n/a	FR1	1	R1196N
1109.067	1.601	1535385	WORD	n/a	wordpools/wordpool_EN.txt	EEL	1	9	[0, 0, 0]	n/a	FR1	1	R1196N
1110.668	0.917	1536986	WORD_OFF	n/a	n/a	EEL	1	9	[0, 0, 0]	n/a	FR1	1	R1196N
1111.585	1.616	1537903	WORD	n/a	wordpools/wordpool_EN.txt	WALL	2	9	[0, 0, 0]	n/a	FR1	1	R1196N
1113.201	0.816	1539519	WORD_OFF	n/a	n/a	WALL	2	9	[0, 0, 0]	n/a	FR1	1	R1196N
1114.017	1.618	1540335	WORD	n/a	wordpools/wordpool_EN.txt	FARM	3	9	[0, 0, 0]	n/a	FR1	1	R1196N
1115.635	0.934	1541953	WORD_OFF	n/a	n/a	FARM	3	9	[0, 0, 0]	n/a	FR1	1	R1196N
1116.569	1.616	1542887	WORD	n/a	wordpools/wordpool_EN.txt	BOWL	4	9	[0, 0, 0]	n/a	FR1	1	R1196N
1118.185	0.801	1544503	WORD_OFF	n/a	n/a	BOWL	4	9	[0, 0, 0]	n/a	FR1	1	R1196N
1118.986	1.617	1545304	WORD	n/a	wordpools/wordpool_EN.txt	ROOF	5	9	[0, 0, 0]	n/a	FR1	1	R1196N
1120.603	0.766	1546921	WORD_OFF	n/a	n/a	ROOF	5	9	[0, 0, 0]	n/a	FR1	1	R1196N
1121.369	1.617	1547687	WORD	n/a	wordpools/wordpool_EN.txt	BED	6	9	[0, 0, 0]	n/a	FR1	1	R1196N
1122.986	0.817	1549304	WORD_OFF	n/a	n/a	BED	6	9	[0, 0, 0]	n/a	FR1	1	R1196N
1123.803	1.617	1550121	WORD	n/a	wordpools/wordpool_EN.txt	GLASS	7	9	[0, 0, 0]	n/a	FR1	1	R1196N
1125.42	0.966	1551738	WORD_OFF	n/a	n/a	GLASS	7	9	[0, 0, 0]	n/a	FR1	1	R1196N
1126.386	1.617	1552704	WORD	n/a	wordpools/wordpool_EN.txt	HILL	8	9	[0, 0, 0]	n/a	FR1	1	R1196N
1128.003	0.767	1554321	WORD_OFF	n/a	n/a	HILL	8	9	[0, 0, 0]	n/a	FR1	1	R1196N
1128.77	1.616	1555088	WORD	n/a	wordpools/wordpool_EN.txt	CLOCK	9	9	[0, 0, 0]	n/a	FR1	1	R1196N
1130.386	0.901	1556704	WORD_OFF	n/a	n/a	CLOCK	9	9	[0, 0, 0]	n/a	FR1	1	R1196N
1131.287	1.617	1557605	WORD	n/a	wordpools/wordpool_EN.txt	MAZE	10	9	[0, 0, 0]	n/a	FR1	1	R1196N
1132.904	0.934	1559222	WORD_OFF	n/a	n/a	MAZE	10	9	[0, 0, 0]	n/a	FR1	1	R1196N
1133.838	1.617	1560156	WORD	n/a	wordpools/wordpool_EN.txt	STRAW	11	9	[0, 0, 0]	n/a	FR1	1	R1196N
1135.455	0.816	1561773	WORD_OFF	n/a	n/a	STRAW	11	9	[0, 0, 0]	n/a	FR1	1	R1196N
1136.271	1.617	1562589	WORD	n/a	wordpools/wordpool_EN.txt	BRIDGE	12	9	[0, 0, 0]	n/a	FR1	1	R1196N
1137.888	0.0	1564206	WORD_OFF	n/a	n/a	BRIDGE	12	9	[0, 0, 0]	n/a	FR1	1	R1196N
1137.888	0.001	1564206	DISTRACT_START	n/a	n/a	n/a	-999	9	[0, 0, 0]	n/a	FR1	1	R1196N
1137.889	0.016	1564207	START	n/a	n/a	n/a	-999	9	[-999, -999, -999]	n/a	FR1	1	R1196N
1137.905	15.019	1564223	PROB	15.019	n/a	n/a	-999	9	[8, 7, 6]	21	FR1	1	R1196N
1152.924	5.122	1579242	PROB	5.122	n/a	n/a	-999	9	[2, 1, 4]	7	FR1	1	R1196N
1158.046	0.011	1584364	STOP	n/a	n/a	n/a	-999	9	[-999, -999, -999]	n/a	FR1	1	R1196N
1158.057	0.618	1584375	DISTRACT_END	n/a	n/a	n/a	-999	9	[0, 0, 0]	n/a	FR1	1	R1196N
1158.675	0.516	1584992	RETRIEVAL_ORIENT	n/a	n/a	n/a	-999	9	[0, 0, 0]	n/a	FR1	1	R1196N
1159.191	1.322	1585508	REC_START	n/a	n/a	n/a	-999	9	[0, 0, 0]	n/a	FR1	1	R1196N
1160.513	7.718	1586830	REC_WORD	7.718	n/a	BRIDGE	12	9	[0, 0, 0]	n/a	FR1	1	R1196N
1168.231	0.741	1594548	REC_WORD	0.741	n/a	EEL	1	9	[0, 0, 0]	n/a	FR1	1	R1196N
1168.972	20.227	1595289	REC_WORD	20.227	n/a	WALL	2	9	[0, 0, 0]	n/a	FR1	1	R1196N
1189.199	9.964	1615516	REC_END	n/a	n/a	n/a	-999	9	[0, 0, 0]	n/a	FR1	1	R1196N
1199.163	0.5	1625480	TRIAL	n/a	n/a	n/a	-999	10	[0, 0, 0]	n/a	FR1	1	R1196N
1199.663	10.428	1625980	COUNTDOWN_START	n/a	n/a	n/a	-999	10	[0, 0, 0]	n/a	FR1	1	R1196N
1210.091	0.006	1636408	COUNTDOWN_END	n/a	n/a	n/a	-999	10	[0, 0, 0]	n/a	FR1	1	R1196N
1210.097	1.601	1636414	ORIENT	n/a	n/a	n/a	-999	10	[0, 0, 0]	n/a	FR1	1	R1196N
1211.698	1.951	1638015	ORIENT_OFF	n/a	n/a	n/a	-999	10	[0, 0, 0]	n/a	FR1	1	R1196N
1213.649	1.616	1639966	WORD	n/a	wordpools/wordpool_EN.txt	TOAD	1	10	[0, 0, 0]	n/a	FR1	1	R1196N
1215.265	0.866	1641582	WORD_OFF	n/a	n/a	TOAD	1	10	[0, 0, 0]	n/a	FR1	1	R1196N
1216.131	1.601	1642448	WORD	n/a	wordpools/wordpool_EN.txt	SHEET	2	10	[0, 0, 0]	n/a	FR1	1	R1196N
1217.732	0.984	1644049	WORD_OFF	n/a	n/a	SHEET	2	10	[0, 0, 0]	n/a	FR1	1	R1196N
1218.716	1.616	1645033	WORD	n/a	wordpools/wordpool_EN.txt	LAND	3	10	[0, 0, 0]	n/a	FR1	1	R1196N
1220.332	0.783	1646649	WORD_OFF	n/a	n/a	LAND	3	10	[0, 0, 0]	n/a	FR1	1	R1196N
1221.115	1.618	1647432	WORD	n/a	wordpools/wordpool_EN.txt	TIE	4	10	[0, 0, 0]	n/a	FR1	1	R1196N
1222.733	1.0	1649050	WORD_OFF	n/a	n/a	TIE	4	10	[0, 0, 0]	n/a	FR1	1	R1196N
1223.733	1.616	1650050	WORD	n/a	wordpools/wordpool_EN.txt	SNAKE	5	10	[0, 0, 0]	n/a	FR1	1	R1196N
1225.349	0.984	1651666	WORD_OFF	n/a	n/a	SNAKE	5	10	[0, 0, 0]	n/a	FR1	1	R1196N
1226.333	1.601	1652650	WORD	n/a	wordpools/wordpool_EN.txt	TRUCK	6	10	[0, 0, 0]	n/a	FR1	1	R1196N
1227.934	0.85	1654251	WORD_OFF	n/a	n/a	TRUCK	6	10	[0, 0, 0]	n/a	FR1	1	R1196N
1228.784	1.617	1655101	WORD	n/a	wordpools/wordpool_EN.txt	SHOE	7	10	[0, 0, 0]	n/a	FR1	1	R1196N
1230.401	0.866	1656718	WORD_OFF	n/a	n/a	SHOE	7	10	[0, 0, 0]	n/a	FR1	1	R1196N
1231.267	1.618	1657584	WORD	n/a	wordpools/wordpool_EN.txt	BRICK	8	10	[0, 0, 0]	n/a	FR1	1	R1196N
1232.885	0.85	1659202	WORD_OFF	n/a	n/a	BRICK	8	10	[0, 0, 0]	n/a	FR1	1	R1196N
1233.735	1.616	1660052	WORD	n/a	wordpools/wordpool_EN.txt	TRAY	9	10	[0, 0, 0]	n/a	FR1	1	R1196N
1235.351	0.983	1661668	WORD_OFF	n/a	n/a	TRAY	9	10	[0, 0, 0]	n/a	FR1	1	R1196N
1236.334	1.618	1662651	WORD	n/a	wordpools/wordpool_EN.txt	SNAIL	10	10	[0, 0, 0]	n/a	FR1	1	R1196N
1237.952	0.967	1664269	WORD_OFF	n/a	n/a	SNAIL	10	10	[0, 0, 0]	n/a	FR1	1	R1196N
1238.919	1.617	1665236	WORD	n/a	wordpools/wordpool_EN.txt	HEN	11	10	[0, 0, 0]	n/a	FR1	1	R1196N
1240.536	0.95	1666853	WORD_OFF	n/a	n/a	HEN	11	10	[0, 0, 0]	n/a	FR1	1	R1196N
1241.486	1.616	1667802	WORD	n/a	wordpools/wordpool_EN.txt	BLUSH	12	10	[0, 0, 0]	n/a	FR1	1	R1196N
1243.102	0.0	1669418	WORD_OFF	n/a	n/a	BLUSH	12	10	[0, 0, 0]	n/a	FR1	1	R1196N
1243.102	0.0	1669418	DISTRACT_START	n/a	n/a	n/a	-999	10	[0, 0, 0]	n/a	FR1	1	R1196N
1243.102	0.016	1669418	START	n/a	n/a	n/a	-999	10	[-999, -999, -999]	n/a	FR1	1	R1196N
1243.118	6.001	1669434	PROB	6.001	n/a	n/a	-999	10	[7, 1, 4]	12	FR1	1	R1196N
1249.119	5.669	1675435	PROB	5.669	n/a	n/a	-999	10	[5, 7, 1]	13	FR1	1	R1196N
1254.788	7.717	1681104	PROB	7.717	n/a	n/a	-999	10	[8, 2, 5]	15	FR1	1	R1196N
1262.505	5.579	1688821	PROB	5.579	n/a	n/a	-999	10	[8, 4, 4]	16	FR1	1	R1196N
1268.084	0.004	1694400	STOP	n/a	n/a	n/a	-999	10	[-999, -999, -999]	n/a	FR1	1	R1196N
1268.088	0.685	1694404	DISTRACT_END	n/a	n/a	n/a	-999	10	[0, 0, 0]	n/a	FR1	1	R1196N
1268.773	0.517	1695089	RETRIEVAL_ORIENT	n/a	n/a	n/a	-999	10	[0, 0, 0]	n/a	FR1	1	R1196N
1269.29	5.195	1695606	REC_START	n/a	n/a	n/a	-999	10	[0, 0, 0]	n/a	FR1	1	R1196N
1274.485	1.084	1700801	REC_WORD	1.084	n/a	TIE	4	10	[0, 0, 0]	n/a	FR1	1	R1196N
1275.569	2.294	1701885	REC_WORD	2.294	n/a	SNAKE	5	10	[0, 0, 0]	n/a	FR1	1	R1196N
1277.863	2.349	1704179	REC_WORD	2.349	n/a	TOAD	1	10	[0, 0, 0]	n/a	FR1	1	R1196N
1280.212	1.58	1706528	REC_WORD_VV	1.58	n/a	<>	-999	10	[0, 0, 0]	n/a	FR1	1	R1196N
1281.792	4.946	1708108	REC_WORD	4.946	n/a	SNAIL	10	10	[0, 0, 0]	n/a	FR1	1	R1196N
1286.738	12.561	1713054	REC_WORD	12.561	n/a	LAND	3	10	[0, 0, 0]	n/a	FR1	1	R1196N
1299.299	6.761	1725615	REC_END	n/a	n/a	n/a	-999	10	[0, 0, 0]	n/a	FR1	1	R1196N
1306.06	0.5	1732376	TRIAL	n/a	n/a	n/a	-999	11	[0, 0, 0]	n/a	FR1	1	R1196N
1306.56	10.428	1732876	COUNTDOWN_START	n/a	n/a	n/a	-999	11	[0, 0, 0]	n/a	FR1	1	R1196N
1316.988	0.007	1743304	COUNTDOWN_END	n/a	n/a	n/a	-999	11	[0, 0, 0]	n/a	FR1	1	R1196N
1316.995	1.601	1743311	ORIENT	n/a	n/a	n/a	-999	11	[0, 0, 0]	n/a	FR1	1	R1196N
1318.596	2.251	1744912	ORIENT_OFF	n/a	n/a	n/a	-999	11	[0, 0, 0]	n/a	FR1	1	R1196N
1320.847	1.617	1747163	WORD	n/a	wordpools/wordpool_EN.txt	BOOK	1	11	[0, 0, 0]	n/a	FR1	1	R1196N
1322.464	0.915	1748780	WORD_OFF	n/a	n/a	BOOK	1	11	[0, 0, 0]	n/a	FR1	1	R1196N
1323.379	1.617	1749695	WORD	n/a	wordpools/wordpool_EN.txt	BANK	2	11	[0, 0, 0]	n/a	FR1	1	R1196N
1324.996	0.835	1751311	WORD_OFF	n/a	n/a	BANK	2	11	[0, 0, 0]	n/a	FR1	1	R1196N
1325.831	1.617	1752146	WORD	n/a	wordpools/wordpool_EN.txt	SKY	3	11	[0, 0, 0]	n/a	FR1	1	R1196N
1327.448	0.932	1753763	WORD_OFF	n/a	n/a	SKY	3	11	[0, 0, 0]	n/a	FR1	1	R1196N
1328.38	1.617	1754695	WORD	n/a	wordpools/wordpool_EN.txt	KITE	4	11	[0, 0, 0]	n/a	FR1	1	R1196N
1329.997	0.834	1756312	WORD_OFF	n/a	n/a	KITE	4	11	[0, 0, 0]	n/a	FR1	1	R1196N
1330.831	1.617	1757146	WORD	n/a	wordpools/wordpool_EN.txt	SHELL	5	11	[0, 0, 0]	n/a	FR1	1	R1196N
1332.448	0.833	1758763	WORD_OFF	n/a	n/a	SHELL	5	11	[0, 0, 0]	n/a	FR1	1	R1196N
1333.281	1.618	1759596	WORD	n/a	wordpools/wordpool_EN.txt	MOON	6	11	[0, 0, 0]	n/a	FR1	1	R1196N
1334.899	0.9	1761214	WORD_OFF	n/a	n/a	MOON	6	11	[0, 0, 0]	n/a	FR1	1	R1196N
1335.799	1.617	1762114	WORD	n/a	wordpools/wordpool_EN.txt	HAWK	7	11	[0, 0, 0]	n/a	FR1	1	R1196N
1337.416	0.866	1763731	WORD_OFF	n/a	n/a	HAWK	7	11	[0, 0, 0]	n/a	FR1	1	R1196N
1338.282	1.617	1764597	WORD	n/a	wordpools/wordpool_EN.txt	PARK	8	11	[0, 0, 0]	n/a	FR1	1	R1196N
1339.899	0.8	1766214	WORD_OFF	n/a	n/a	PARK	8	11	[0, 0, 0]	n/a	FR1	1	R1196N
1340.699	1.616	1767014	WORD	n/a	wordpools/wordpool_EN.txt	NET	9	11	[0, 0, 0]	n/a	FR1	1	R1196N
1342.315	0.867	1768630	WORD_OFF	n/a	n/a	NET	9	11	[0, 0, 0]	n/a	FR1	1	R1196N
1343.182	1.618	1769497	WORD	n/a	wordpools/wordpool_EN.txt	BEAR	10	11	[0, 0, 0]	n/a	FR1	1	R1196N
1344.8	0.8	1771115	WORD_OFF	n/a	n/a	BEAR	10	11	[0, 0, 0]	n/a	FR1	1	R1196N
1345.6	1.616	1771915	WORD	n/a	wordpools/wordpool_EN.txt	TRAIN	11	11	[0, 0, 0]	n/a	FR1	1	R1196N
1347.216	0.967	1773531	WORD_OFF	n/a	n/a	TRAIN	11	11	[0, 0, 0]	n/a	FR1	1	R1196N
1348.183	1.601	1774498	WORD	n/a	wordpools/wordpool_EN.txt	MULE	12	11	[0, 0, 0]	n/a	FR1	1	R1196N
1349.784	0.0	1776099	WORD_OFF	n/a	n/a	MULE	12	11	[0, 0, 0]	n/a	FR1	1	R1196N
1349.784	0.0	1776099	DISTRACT_START	n/a	n/a	n/a	-999	11	[0, 0, 0]	n/a	FR1	1	R1196N
1349.784	0.017	1776099	START	n/a	n/a	n/a	-999	11	[-999, -999, -999]	n/a	FR1	1	R1196N
1349.801	8.483	1776116	PROB	8.483	n/a	n/a	-999	11	[8, 1, 4]	13	FR1	1	R1196N
1358.284	4.569	1784599	PROB	4.569	n/a	n/a	-999	11	[3, 1, 3]	7	FR1	1	R1196N
1362.853	5.917	1789168	PROB	5.917	n/a	n/a	-999	11	[6, 2, 3]	11	FR1	1	R1196N
1368.77	8.102	1795085	PROB	8.102	n/a	n/a	-999	11	[8, 5, 2]	15	FR1	1	R1196N
1376.872	0.016	1803187	STOP	n/a	n/a	n/a	-999	11	[-999, -999, -999]	n/a	FR1	1	R1196N
1376.888	0.583	1803203	DISTRACT_END	n/a	n/a	n/a	-999	11	[0, 0, 0]	n/a	FR1	1	R1196N
1377.471	0.517	1803786	RETRIEVAL_ORIENT	n/a	n/a	n/a	-999	11	[0, 0, 0]	n/a	FR1	1	R1196N
1377.988	1.606	1804303	REC_START	n/a	n/a	n/a	-999	11	[0, 0, 0]	n/a	FR1	1	R1196N
1379.594	0.735	1805909	REC_WORD	0.735	n/a	MULE	12	11	[0, 0, 0]	n/a	FR1	1	R1196N
1380.329	0.707	1806644	REC_WORD	0.707	n/a	TRAIN	11	11	[0, 0, 0]	n/a	FR1	1	R1196N
1381.036	3.485	1807351	REC_WORD	3.485	n/a	SHELL	5	11	[0, 0, 0]	n/a	FR1	1	R1196N
1384.521	0.966	1810836	REC_WORD	0.966	n/a	MULE	12	11	[0, 0, 0]	n/a	FR1	1	R1196N
1385.487	5.978	1811802	REC_WORD	5.978	n/a	MOON	6	11	[0, 0, 0]	n/a	FR1	1	R1196N
1391.465	10.115	1817780	REC_WORD_VV	10.115	n/a	<>	-999	11	[0, 0, 0]	n/a	FR1	1	R1196N
1401.58	0.987	1827895	REC_WORD	0.987	n/a	HAWK	7	11	[0, 0, 0]	n/a	FR1	1	R1196N
1402.567	5.429	1828882	REC_WORD	5.429	n/a	PARK	8	11	[0, 0, 0]	n/a	FR1	1	R1196N
1407.996	4.497	1834310	REC_END	n/a	n/a	n/a	-999	11	[0, 0, 0]	n/a	FR1	1	R1196N
1412.493	0.5	1838807	TRIAL	n/a	n/a	n/a	-999	12	[0, 0, 0]	n/a	FR1	1	R1196N
1412.993	10.428	1839307	COUNTDOWN_START	n/a	n/a	n/a	-999	12	[0, 0, 0]	n/a	FR1	1	R1196N
1423.421	0.006	1849735	COUNTDOWN_END	n/a	n/a	n/a	-999	12	[0, 0, 0]	n/a	FR1	1	R1196N
1423.427	1.616	1849741	ORIENT	n/a	n/a	n/a	-999	12	[0, 0, 0]	n/a	FR1	1	R1196N
1425.043	2.101	1851357	ORIENT_OFF	n/a	n/a	n/a	-999	12	[0, 0, 0]	n/a	FR1	1	R1196N
1427.144	1.618	1853458	WORD	n/a	wordpools/wordpool_EN.txt	FOOT	1	12	[0, 0, 0]	n/a	FR1	1	R1196N
1428.762	0.883	1855076	WORD_OFF	n/a	n/a	FOOT	1	12	[0, 0, 0]	n/a	FR1	1	R1196N
1429.645	1.616	1855959	WORD	n/a	wordpools/wordpool_EN.txt	BATH	2	12	[0, 0, 0]	n/a	FR1	1	R1196N
1431.261	0.983	1857575	WORD_OFF	n/a	n/a	BATH	2	12	[0, 0, 0]	n/a	FR1	1	R1196N
1432.244	1.618	1858558	WORD	n/a	wordpools/wordpool_EN.txt	FORK	3	12	[0, 0, 0]	n/a	FR1	1	R1196N
1433.862	0.9	1860176	WORD_OFF	n/a	n/a	FORK	3	12	[0, 0, 0]	n/a	FR1	1	R1196N
1434.762	1.616	1861076	WORD	n/a	wordpools/wordpool_EN.txt	BOY	4	12	[0, 0, 0]	n/a	FR1	1	R1196N
1436.378	0.867	1862692	WORD_OFF	n/a	n/a	BOY	4	12	[0, 0, 0]	n/a	FR1	1	R1196N
1437.245	1.618	1863559	WORD	n/a	wordpools/wordpool_EN.txt	ROCK	5	12	[0, 0, 0]	n/a	FR1	1	R1196N
1438.863	0.767	1865177	WORD_OFF	n/a	n/a	ROCK	5	12	[0, 0, 0]	n/a	FR1	1	R1196N
1439.63	1.616	1865944	WORD	n/a	wordpools/wordpool_EN.txt	SLUSH	6	12	[0, 0, 0]	n/a	FR1	1	R1196N
1441.246	0.766	1867560	WORD_OFF	n/a	n/a	SLUSH	6	12	[0, 0, 0]	n/a	FR1	1	R1196N
1442.012	1.601	1868326	WORD	n/a	wordpools/wordpool_EN.txt	DUCK	7	12	[0, 0, 0]	n/a	FR1	1	R1196N
1443.613	0.934	1869927	WORD_OFF	n/a	n/a	DUCK	7	12	[0, 0, 0]	n/a	FR1	1	R1196N
1444.547	1.616	1870861	WORD	n/a	wordpools/wordpool_EN.txt	LOCK	8	12	[0, 0, 0]	n/a	FR1	1	R1196N
1446.163	0.867	1872477	WORD_OFF	n/a	n/a	LOCK	8	12	[0, 0, 0]	n/a	FR1	1	R1196N
1447.03	1.617	1873344	WORD	n/a	wordpools/wordpool_EN.txt	CANE	9	12	[0, 0, 0]	n/a	FR1	1	R1196N
1448.647	0.784	1874961	WORD_OFF	n/a	n/a	CANE	9	12	[0, 0, 0]	n/a	FR1	1	R1196N
1449.431	1.616	1875745	WORD	n/a	wordpools/wordpool_EN.txt	DRESS	10	12	[0, 0, 0]	n/a	FR1	1	R1196N
1451.047	0.801	1877361	WORD_OFF	n/a	n/a	DRESS	10	12	[0, 0, 0]	n/a	FR1	1	R1196N
1451.848	1.617	1878162	WORD	n/a	wordpools/wordpool_EN.txt	BREAD	11	12	[0, 0, 0]	n/a	FR1	1	R1196N
1453.465	1.0	1879779	WORD_OFF	n/a	n/a	BREAD	11	12	[0, 0, 0]	n/a	FR1	1	R1196N
1454.465	1.616	1880779	WORD	n/a	wordpools/wordpool_EN.txt	SCHOOL	12	12	[0, 0, 0]	n/a	FR1	1	R1196N
1456.081	0.0	1882395	WORD_OFF	n/a	n/a	SCHOOL	12	12	[0, 0, 0]	n/a	FR1	1	R1196N
1456.081	0.0	1882395	DISTRACT_START	n/a	n/a	n/a	-999	12	[0, 0, 0]	n/a	FR1	1	R1196N
1456.081	0.017	1882395	START	n/a	n/a	n/a	-999	12	[-999, -999, -999]	n/a	FR1	1	R1196N
1456.098	6.901	1882412	PROB	6.901	n/a	n/a	-999	12	[7, 2, 8]	17	FR1	1	R1196N
1462.999	5.918	1889313	PROB	5.918	n/a	n/a	-999	12	[9, 6, 5]	20	FR1	1	R1196N
1468.917	3.917	1895231	PROB	3.917	n/a	n/a	-999	12	[7, 2, 2]	11	FR1	1	R1196N
1472.834	6.083	1899148	PROB	6.083	n/a	n/a	-999	12	[2, 5, 6]	13	FR1	1	R1196N
1478.917	0.018	1905231	STOP	n/a	n/a	n/a	-999	12	[-999, -999, -999]	n/a	FR1	1	R1196N
1478.935	0.7	1905249	DISTRACT_END	n/a	n/a	n/a	-999	12	[0, 0, 0]	n/a	FR1	1	R1196N
1479.635	0.517	1905949	RETRIEVAL_ORIENT	n/a	n/a	n/a	-999	12	[0, 0, 0]	n/a	FR1	1	R1196N
1480.152	3.319	1906466	REC_START	n/a	n/a	n/a	-999	12	[0, 0, 0]	n/a	FR1	1	R1196N
1483.471	1.258	1909785	REC_WORD	1.258	n/a	SCHOOL	12	12	[0, 0, 0]	n/a	FR1	1	R1196N
1484.729	25.431	1911043	REC_WORD	25.431	n/a	BREAD	11	12	[0, 0, 0]	n/a	FR1	1	R1196N
1510.16	12.714	1936473	REC_END	n/a	n/a	n/a	-999	12	[0, 0, 0]	n/a	FR1	1	R1196N
1522.874	0.5	1949187	TRIAL	n/a	n/a	n/a	-999	13	[0, 0, 0]	n/a	FR1	1	R1196N
1523.374	10.428	1949687	COUNTDOWN_START	n/a	n/a	n/a	-999	13	[0, 0, 0]	n/a	FR1	1	R1196N
1533.802	0.007	1960115	COUNTDOWN_END	n/a	n/a	n/a	-999	13	[0, 0, 0]	n/a	FR1	1	R1196N
1533.809	1.617	1960122	ORIENT	n/a	n/a	n/a	-999	13	[0, 0, 0]	n/a	FR1	1	R1196N
1535.426	1.949	1961739	ORIENT_OFF	n/a	n/a	n/a	-999	13	[0, 0, 0]	n/a	FR1	1	R1196N
1537.375	1.617	1963688	WORD	n/a	wordpools/wordpool_EN.txt	LAWN	1	13	[0, 0, 0]	n/a	FR1	1	R1196N
1538.992	0.851	1965305	WORD_OFF	n/a	n/a	LAWN	1	13	[0, 0, 0]	n/a	FR1	1	R1196N
1539.843	1.617	1966156	WORD	n/a	wordpools/wordpool_EN.txt	EGG	2	13	[0, 0, 0]	n/a	FR1	1	R1196N
1541.46	0.899	1967773	WORD_OFF	n/a	n/a	EGG	2	13	[0, 0, 0]	n/a	FR1	1	R1196N
1542.359	1.618	1968672	WORD	n/a	wordpools/wordpool_EN.txt	TOOTH	3	13	[0, 0, 0]	n/a	FR1	1	R1196N
1543.977	0.9	1970290	WORD_OFF	n/a	n/a	TOOTH	3	13	[0, 0, 0]	n/a	FR1	1	R1196N
1544.877	1.617	1971190	WORD	n/a	wordpools/wordpool_EN.txt	WORM	4	13	[0, 0, 0]	n/a	FR1	1	R1196N
1546.494	0.799	1972807	WORD_OFF	n/a	n/a	WORM	4	13	[0, 0, 0]	n/a	FR1	1	R1196N
1547.293	1.602	1973606	WORD	n/a	wordpools/wordpool_EN.txt	TANK	5	13	[0, 0, 0]	n/a	FR1	1	R1196N
1548.895	1.0	1975208	WORD_OFF	n/a	n/a	TANK	5	13	[0, 0, 0]	n/a	FR1	1	R1196N
1549.895	1.617	1976208	WORD	n/a	wordpools/wordpool_EN.txt	HOOK	6	13	[0, 0, 0]	n/a	FR1	1	R1196N
1551.512	0.883	1977825	WORD_OFF	n/a	n/a	HOOK	6	13	[0, 0, 0]	n/a	FR1	1	R1196N
1552.395	1.616	1978708	WORD	n/a	wordpools/wordpool_EN.txt	SWORD	7	13	[0, 0, 0]	n/a	FR1	1	R1196N
1554.011	0.868	1980324	WORD_OFF	n/a	n/a	SWORD	7	13	[0, 0, 0]	n/a	FR1	1	R1196N
1554.879	1.617	1981192	WORD	n/a	wordpools/wordpool_EN.txt	CUBE	8	13	[0, 0, 0]	n/a	FR1	1	R1196N
1556.496	0.917	1982809	WORD_OFF	n/a	n/a	CUBE	8	13	[0, 0, 0]	n/a	FR1	1	R1196N
1557.413	1.615	1983726	WORD	n/a	wordpools/wordpool_EN.txt	CART	9	13	[0, 0, 0]	n/a	FR1	1	R1196N
1559.028	0.967	1985341	WORD_OFF	n/a	n/a	CART	9	13	[0, 0, 0]	n/a	FR1	1	R1196N
1559.995	1.601	1986308	WORD	n/a	wordpools/wordpool_EN.txt	DOLL	10	13	[0, 0, 0]	n/a	FR1	1	R1196N
1561.596	1.0	1987909	WORD_OFF	n/a	n/a	DOLL	10	13	[0, 0, 0]	n/a	FR1	1	R1196N
1562.596	1.616	1988909	WORD	n/a	wordpools/wordpool_EN.txt	FLAG	11	13	[0, 0, 0]	n/a	FR1	1	R1196N
1564.212	0.851	1990525	WORD_OFF	n/a	n/a	FLAG	11	13	[0, 0, 0]	n/a	FR1	1	R1196N
1565.063	1.617	1991376	WORD	n/a	wordpools/wordpool_EN.txt	NOSE	12	13	[0, 0, 0]	n/a	FR1	1	R1196N
1566.68	0.0	1992993	WORD_OFF	n/a	n/a	NOSE	12	13	[0, 0, 0]	n/a	FR1	1	R1196N
1566.68	0.001	1992993	DISTRACT_START	n/a	n/a	n/a	-999	13	[0, 0, 0]	n/a	FR1	1	R1196N
1566.681	0.016	1992994	START	n/a	n/a	n/a	-999	13	[-999, -999, -999]	n/a	FR1	1	R1196N
1566.697	11.252	1993010	PROB	11.252	n/a	n/a	-999	13	[2, 3, 5]	10	FR1	1	R1196N
1577.949	3.533	2004261	PROB	3.533	n/a	n/a	-999	13	[2, 5, 1]	8	FR1	1	R1196N
1581.482	7.472	2007794	PROB	7.472	n/a	n/a	-999	13	[6, 9, 9]	24	FR1	1	R1196N
1588.954	0.013	2015266	STOP	n/a	n/a	n/a	-999	13	[-999, -999, -999]	n/a	FR1	1	R1196N
1588.967	0.683	2015279	DISTRACT_END	n/a	n/a	n/a	-999	13	[0, 0, 0]	n/a	FR1	1	R1196N
1589.65	0.516	2015962	RETRIEVAL_ORIENT	n/a	n/a	n/a	-999	13	[0, 0, 0]	n/a	FR1	1	R1196N
1590.166	2.827	2016478	REC_START	n/a	n/a	n/a	-999	13	[0, 0, 0]	n/a	FR1	1	R1196N
1592.993	0.979	2019305	REC_WORD	0.979	n/a	NOSE	12	13	[0, 0, 0]	n/a	FR1	1	R1196N
1593.972	0.947	2020284	REC_WORD	0.947	n/a	TANK	5	13	[0, 0, 0]	n/a	FR1	1	R1196N
1594.919	1.065	2021231	REC_WORD	1.065	n/a	WORM	4	13	[0, 0, 0]	n/a	FR1	1	R1196N
1595.984	0.623	2022296	REC_WORD	0.623	n/a	SWORD	7	13	[0, 0, 0]	n/a	FR1	1	R1196N
1596.607	19.01	2022919	REC_WORD	19.01	n/a	CUBE	8	13	[0, 0, 0]	n/a	FR1	1	R1196N
1615.617	4.558	2041929	REC_WORD	4.558	n/a	NEST	-999	13	[0, 0, 0]	n/a	FR1	1	R1196N
1620.175	4.846	2046487	REC_END	n/a	n/a	n/a	-999	13	[0, 0, 0]	n/a	FR1	1	R1196N
1625.021	0.5	2051333	TRIAL	n/a	n/a	n/a	-999	14	[0, 0, 0]	n/a	FR1	1	R1196N
1625.521	10.428	2051833	COUNTDOWN_START	n/a	n/a	n/a	-999	14	[0, 0, 0]	n/a	FR1	1	R1196N
1635.949	0.008	2062261	COUNTDOWN_END	n/a	n/a	n/a	-999	14	[0, 0, 0]	n/a	FR1	1	R1196N
1635.957	1.616	2062269	ORIENT	n/a	n/a	n/a	-999	14	[0, 0, 0]	n/a	FR1	1	R1196N
1637.573	2.05	2063885	ORIENT_OFF	n/a	n/a	n/a	-999	14	[0, 0, 0]	n/a	FR1	1	R1196N
1639.623	1.617	2065935	WORD	n/a	wordpools/wordpool_EN.txt	BEAK	1	14	[0, 0, 0]	n/a	FR1	1	R1196N
1641.24	0.983	2067552	WORD_OFF	n/a	n/a	BEAK	1	14	[0, 0, 0]	n/a	FR1	1	R1196N
1642.223	1.601	2068535	WORD	n/a	wordpools/wordpool_EN.txt	CLOTH	2	14	[0, 0, 0]	n/a	FR1	1	R1196N
1643.824	0.834	2070136	WORD_OFF	n/a	n/a	CLOTH	2	14	[0, 0, 0]	n/a	FR1	1	R1196N
1644.658	1.616	2070970	WORD	n/a	wordpools/wordpool_EN.txt	CHALK	3	14	[0, 0, 0]	n/a	FR1	1	R1196N
1646.274	0.85	2072586	WORD_OFF	n/a	n/a	CHALK	3	14	[0, 0, 0]	n/a	FR1	1	R1196N
1647.124	1.618	2073436	WORD	n/a	wordpools/wordpool_EN.txt	SOUP	4	14	[0, 0, 0]	n/a	FR1	1	R1196N
1648.742	0.866	2075054	WORD_OFF	n/a	n/a	SOUP	4	14	[0, 0, 0]	n/a	FR1	1	R1196N
1649.608	1.616	2075920	WORD	n/a	wordpools/wordpool_EN.txt	DOOR	5	14	[0, 0, 0]	n/a	FR1	1	R1196N
1651.224	0.95	2077536	WORD_OFF	n/a	n/a	DOOR	5	14	[0, 0, 0]	n/a	FR1	1	R1196N
1652.174	1.601	2078486	WORD	n/a	wordpools/wordpool_EN.txt	WAVE	6	14	[0, 0, 0]	n/a	FR1	1	R1196N
1653.775	0.901	2080087	WORD_OFF	n/a	n/a	WAVE	6	14	[0, 0, 0]	n/a	FR1	1	R1196N
1654.676	1.616	2080987	WORD	n/a	wordpools/wordpool_EN.txt	FENCE	7	14	[0, 0, 0]	n/a	FR1	1	R1196N
1656.292	0.966	2082603	WORD_OFF	n/a	n/a	FENCE	7	14	[0, 0, 0]	n/a	FR1	1	R1196N
1657.258	1.601	2083569	WORD	n/a	wordpools/wordpool_EN.txt	HOLE	8	14	[0, 0, 0]	n/a	FR1	1	R1196N
1658.859	1.001	2085170	WORD_OFF	n/a	n/a	HOLE	8	14	[0, 0, 0]	n/a	FR1	1	R1196N
1659.86	1.617	2086171	WORD	n/a	wordpools/wordpool_EN.txt	PURSE	9	14	[0, 0, 0]	n/a	FR1	1	R1196N
1661.477	0.882	2087788	WORD_OFF	n/a	n/a	PURSE	9	14	[0, 0, 0]	n/a	FR1	1	R1196N
1662.359	1.618	2088670	WORD	n/a	wordpools/wordpool_EN.txt	LEAF	10	14	[0, 0, 0]	n/a	FR1	1	R1196N
1663.977	0.767	2090288	WORD_OFF	n/a	n/a	LEAF	10	14	[0, 0, 0]	n/a	FR1	1	R1196N
1664.744	1.616	2091055	WORD	n/a	wordpools/wordpool_EN.txt	PHONE	11	14	[0, 0, 0]	n/a	FR1	1	R1196N
1666.36	0.833	2092671	WORD_OFF	n/a	n/a	PHONE	11	14	[0, 0, 0]	n/a	FR1	1	R1196N
1667.193	1.618	2093504	WORD	n/a	wordpools/wordpool_EN.txt	ZOO	12	14	[0, 0, 0]	n/a	FR1	1	R1196N
1668.811	0.0	2095122	WORD_OFF	n/a	n/a	ZOO	12	14	[0, 0, 0]	n/a	FR1	1	R1196N
1668.811	0.0	2095122	DISTRACT_START	n/a	n/a	n/a	-999	14	[0, 0, 0]	n/a	FR1	1	R1196N
1668.811	0.017	2095122	START	n/a	n/a	n/a	-999	14	[-999, -999, -999]	n/a	FR1	1	R1196N
1668.828	3.249	2095139	PROB	3.249	n/a	n/a	-999	14	[1, 5, 4]	10	FR1	1	R1196N
1672.077	5.218	2098388	PROB	5.218	n/a	n/a	-999	14	[8, 1, 3]	12	FR1	1	R1196N
1677.295	3.983	2103606	PROB	3.983	n/a	n/a	-999	14	[8, 6, 6]	20	FR1	1	R1196N
1681.278	5.951	2107589	PROB	5.951	n/a	n/a	-999	14	[6, 9, 8]	23	FR1	1	R1196N
1687.229	3.65	2113540	PROB	3.65	n/a	n/a	-999	14	[9, 2, 5]	16	FR1	1	R1196N
1690.879	0.018	2117190	STOP	n/a	n/a	n/a	-999	14	[-999, -999, -999]	n/a	FR1	1	R1196N
1690.897	0.551	2117208	DISTRACT_END	n/a	n/a	n/a	-999	14	[0, 0, 0]	n/a	FR1	1	R1196N
1691.448	0.517	2117759	RETRIEVAL_ORIENT	n/a	n/a	n/a	-999	14	[0, 0, 0]	n/a	FR1	1	R1196N
1691.965	1.294	2118276	REC_START	n/a	n/a	n/a	-999	14	[0, 0, 0]	n/a	FR1	1	R1196N
1693.259	2.187	2119570	REC_WORD	2.187	n/a	ZOO	12	14	[0, 0, 0]	n/a	FR1	1	R1196N
1695.446	0.943	2121757	REC_WORD	0.943	n/a	CHALK	3	14	[0, 0, 0]	n/a	FR1	1	R1196N
1696.389	23.432	2122700	REC_WORD	23.432	n/a	SOUP	4	14	[0, 0, 0]	n/a	FR1	1	R1196N
1719.821	0.448	2146132	REC_WORD	0.448	n/a	BEAK	1	14	[0, 0, 0]	n/a	FR1	1	R1196N
1720.269	1.704	2146580	REC_WORD	1.704	n/a	CLOTH	2	14	[0, 0, 0]	n/a	FR1	1	R1196N
1721.973	11.597	2148284	REC_END	n/a	n/a	n/a	-999	14	[0, 0, 0]	n/a	FR1	1	R1196N
1733.57	0.5	2159881	TRIAL	n/a	n/a	n/a	-999	15	[0, 0, 0]	n/a	FR1	1	R1196N
1734.07	10.428	2160381	COUNTDOWN_START	n/a	n/a	n/a	-999	15	[0, 0, 0]	n/a	FR1	1	R1196N
1744.498	0.007	2170808	COUNTDOWN_END	n/a	n/a	n/a	-999	15	[0, 0, 0]	n/a	FR1	1	R1196N
1744.505	1.616	2170815	ORIENT	n/a	n/a	n/a	-999	15	[0, 0, 0]	n/a	FR1	1	R1196N
1746.121	2.116	2172431	ORIENT_OFF	n/a	n/a	n/a	-999	15	[0, 0, 0]	n/a	FR1	1	R1196N
1748.237	1.602	2174547	WORD	n/a	wordpools/wordpool_EN.txt	GRAPE	1	15	[0, 0, 0]	n/a	FR1	1	R1196N
1749.839	0.8	2176149	WORD_OFF	n/a	n/a	GRAPE	1	15	[0, 0, 0]	n/a	FR1	1	R1196N
1750.639	1.616	2176949	WORD	n/a	wordpools/wordpool_EN.txt	HOUSE	2	15	[0, 0, 0]	n/a	FR1	1	R1196N
1752.255	0.933	2178565	WORD_OFF	n/a	n/a	HOUSE	2	15	[0, 0, 0]	n/a	FR1	1	R1196N
1753.188	1.601	2179498	WORD	n/a	wordpools/wordpool_EN.txt	FISH	3	15	[0, 0, 0]	n/a	FR1	1	R1196N
1754.789	0.784	2181099	WORD_OFF	n/a	n/a	FISH	3	15	[0, 0, 0]	n/a	FR1	1	R1196N
1755.573	1.616	2181883	WORD	n/a	wordpools/wordpool_EN.txt	THREAD	4	15	[0, 0, 0]	n/a	FR1	1	R1196N
1757.189	0.983	2183499	WORD_OFF	n/a	n/a	THREAD	4	15	[0, 0, 0]	n/a	FR1	1	R1196N
1758.172	1.618	2184482	WORD	n/a	wordpools/wordpool_EN.txt	WHALE	5	15	[0, 0, 0]	n/a	FR1	1	R1196N
1759.79	0.934	2186100	WORD_OFF	n/a	n/a	WHALE	5	15	[0, 0, 0]	n/a	FR1	1	R1196N
1760.724	1.616	2187034	WORD	n/a	wordpools/wordpool_EN.txt	POLE	6	15	[0, 0, 0]	n/a	FR1	1	R1196N
1762.34	0.933	2188650	WORD_OFF	n/a	n/a	POLE	6	15	[0, 0, 0]	n/a	FR1	1	R1196N
1763.273	1.618	2189583	WORD	n/a	wordpools/wordpool_EN.txt	FOG	7	15	[0, 0, 0]	n/a	FR1	1	R1196N
1764.891	1.0	2191201	WORD_OFF	n/a	n/a	FOG	7	15	[0, 0, 0]	n/a	FR1	1	R1196N
1765.891	1.617	2192201	WORD	n/a	wordpools/wordpool_EN.txt	HAT	8	15	[0, 0, 0]	n/a	FR1	1	R1196N
1767.508	0.766	2193818	WORD_OFF	n/a	n/a	HAT	8	15	[0, 0, 0]	n/a	FR1	1	R1196N
1768.274	1.618	2194584	WORD	n/a	wordpools/wordpool_EN.txt	JAIL	9	15	[0, 0, 0]	n/a	FR1	1	R1196N
1769.892	0.883	2196202	WORD_OFF	n/a	n/a	JAIL	9	15	[0, 0, 0]	n/a	FR1	1	R1196N
1770.775	1.616	2197085	WORD	n/a	wordpools/wordpool_EN.txt	BOAT	10	15	[0, 0, 0]	n/a	FR1	1	R1196N
1772.391	0.783	2198701	WORD_OFF	n/a	n/a	BOAT	10	15	[0, 0, 0]	n/a	FR1	1	R1196N
1773.174	1.601	2199484	WORD	n/a	wordpools/wordpool_EN.txt	JUDGE	11	15	[0, 0, 0]	n/a	FR1	1	R1196N
1774.775	0.834	2201085	WORD_OFF	n/a	n/a	JUDGE	11	15	[0, 0, 0]	n/a	FR1	1	R1196N
1775.609	1.616	2201919	WORD	n/a	wordpools/wordpool_EN.txt	PIPE	12	15	[0, 0, 0]	n/a	FR1	1	R1196N
1777.225	0.0	2203535	WORD_OFF	n/a	n/a	PIPE	12	15	[0, 0, 0]	n/a	FR1	1	R1196N
1777.225	0.0	2203535	DISTRACT_START	n/a	n/a	n/a	-999	15	[0, 0, 0]	n/a	FR1	1	R1196N
1777.225	0.017	2203535	START	n/a	n/a	n/a	-999	15	[-999, -999, -999]	n/a	FR1	1	R1196N
1777.242	8.502	2203552	PROB	8.502	n/a	n/a	-999	15	[8, 8, 3]	19	FR1	1	R1196N
1785.744	3.667	2212054	PROB	3.667	n/a	n/a	-999	15	[7, 3, 3]	13	FR1	1	R1196N
1789.411	6.451	2215721	PROB	6.451	n/a	n/a	-999	15	[9, 4, 7]	20	FR1	1	R1196N
1795.862	6.893	2222172	PROB	6.893	n/a	n/a	-999	15	[2, 6, 9]	17	FR1	1	R1196N
1802.755	0.008	2229065	STOP	n/a	n/a	n/a	-999	15	[-999, -999, -999]	n/a	FR1	1	R1196N
1802.763	0.566	2229073	DISTRACT_END	n/a	n/a	n/a	-999	15	[0, 0, 0]	n/a	FR1	1	R1196N
1803.329	0.518	2229639	RETRIEVAL_ORIENT	n/a	n/a	n/a	-999	15	[0, 0, 0]	n/a	FR1	1	R1196N
1803.847	1.433	2230157	REC_START	n/a	n/a	n/a	-999	15	[0, 0, 0]	n/a	FR1	1	R1196N
1805.28	0.949	2231590	REC_WORD	0.949	n/a	JAIL	9	15	[0, 0, 0]	n/a	FR1	1	R1196N
1806.229	0.783	2232539	REC_WORD	0.783	n/a	BOAT	10	15	[0, 0, 0]	n/a	FR1	1	R1196N
1807.012	1.185	2233322	REC_WORD	1.185	n/a	HOUSE	2	15	[0, 0, 0]	n/a	FR1	1	R1196N
1808.197	2.219	2234507	REC_WORD	2.219	n/a	WHALE	5	15	[0, 0, 0]	n/a	FR1	1	R1196N
1810.416	2.124	2236726	REC_WORD	2.124	n/a	POLE	6	15	[0, 0, 0]	n/a	FR1	1	R1196N
1812.54	4.031	2238850	REC_WORD	4.031	n/a	PIPE	12	15	[0, 0, 0]	n/a	FR1	1	R1196N
1816.571	4.16	2242881	REC_WORD	4.16	n/a	FROG	-999	15	[0, 0, 0]	n/a	FR1	1	R1196N
1820.731	13.125	2247040	REC_WORD	13.125	n/a	FISH	3	15	[0, 0, 0]	n/a	FR1	1	R1196N
1833.856	5.494	2260165	REC_END	n/a	n/a	n/a	-999	15	[0, 0, 0]	n/a	FR1	1	R1196N
1839.35	0.5	2265659	TRIAL	n/a	n/a	n/a	-999	16	[0, 0, 0]	n/a	FR1	1	R1196N
1839.85	10.428	2266159	COUNTDOWN_START	n/a	n/a	n/a	-999	16	[0, 0, 0]	n/a	FR1	1	R1196N
1850.278	0.007	2276587	COUNTDOWN_END	n/a	n/a	n/a	-999	16	[0, 0, 0]	n/a	FR1	1	R1196N
1850.285	1.618	2276594	ORIENT	n/a	n/a	n/a	-999	16	[0, 0, 0]	n/a	FR1	1	R1196N
1851.903	2.116	2278212	ORIENT_OFF	n/a	n/a	n/a	-999	16	[0, 0, 0]	n/a	FR1	1	R1196N
1854.019	1.618	2280328	WORD	n/a	wordpools/wordpool_EN.txt	SINK	1	16	[0, 0, 0]	n/a	FR1	1	R1196N
1855.637	0.933	2281946	WORD_OFF	n/a	n/a	SINK	1	16	[0, 0, 0]	n/a	FR1	1	R1196N
1856.57	1.616	2282879	WORD	n/a	wordpools/wordpool_EN.txt	TOY	2	16	[0, 0, 0]	n/a	FR1	1	R1196N
1858.186	0.95	2284495	WORD_OFF	n/a	n/a	TOY	2	16	[0, 0, 0]	n/a	FR1	1	R1196N
1859.136	1.601	2285445	WORD	n/a	wordpools/wordpool_EN.txt	COUCH	3	16	[0, 0, 0]	n/a	FR1	1	R1196N
1860.737	0.917	2287046	WORD_OFF	n/a	n/a	COUCH	3	16	[0, 0, 0]	n/a	FR1	1	R1196N
1861.654	1.616	2287963	WORD	n/a	wordpools/wordpool_EN.txt	TOE	4	16	[0, 0, 0]	n/a	FR1	1	R1196N
1863.27	0.917	2289579	WORD_OFF	n/a	n/a	TOE	4	16	[0, 0, 0]	n/a	FR1	1	R1196N
1864.187	1.601	2290496	WORD	n/a	wordpools/wordpool_EN.txt	SPONGE	5	16	[0, 0, 0]	n/a	FR1	1	R1196N
1865.788	0.883	2292097	WORD_OFF	n/a	n/a	SPONGE	5	16	[0, 0, 0]	n/a	FR1	1	R1196N
1866.671	1.616	2292980	WORD	n/a	wordpools/wordpool_EN.txt	CORN	6	16	[0, 0, 0]	n/a	FR1	1	R1196N
1868.287	0.901	2294596	WORD_OFF	n/a	n/a	CORN	6	16	[0, 0, 0]	n/a	FR1	1	R1196N
1869.188	1.617	2295497	WORD	n/a	wordpools/wordpool_EN.txt	JAR	7	16	[0, 0, 0]	n/a	FR1	1	R1196N
1870.805	0.767	2297114	WORD_OFF	n/a	n/a	JAR	7	16	[0, 0, 0]	n/a	FR1	1	R1196N
1871.572	1.616	2297881	WORD	n/a	wordpools/wordpool_EN.txt	LIP	8	16	[0, 0, 0]	n/a	FR1	1	R1196N
1873.188	0.934	2299497	WORD_OFF	n/a	n/a	LIP	8	16	[0, 0, 0]	n/a	FR1	1	R1196N
1874.122	1.617	2300431	WORD	n/a	wordpools/wordpool_EN.txt	DESK	9	16	[0, 0, 0]	n/a	FR1	1	R1196N
1875.739	0.767	2302048	WORD_OFF	n/a	n/a	DESK	9	16	[0, 0, 0]	n/a	FR1	1	R1196N
1876.506	1.616	2302815	WORD	n/a	wordpools/wordpool_EN.txt	BARN	10	16	[0, 0, 0]	n/a	FR1	1	R1196N
1878.122	0.851	2304431	WORD_OFF	n/a	n/a	BARN	10	16	[0, 0, 0]	n/a	FR1	1	R1196N
1878.973	1.617	2305282	WORD	n/a	wordpools/wordpool_EN.txt	VINE	11	16	[0, 0, 0]	n/a	FR1	1	R1196N
1880.59	0.934	2306899	WORD_OFF	n/a	n/a	VINE	11	16	[0, 0, 0]	n/a	FR1	1	R1196N
1881.524	1.615	2307833	WORD	n/a	wordpools/wordpool_EN.txt	CLOUD	12	16	[0, 0, 0]	n/a	FR1	1	R1196N
1883.139	0.0	2309448	WORD_OFF	n/a	n/a	CLOUD	12	16	[0, 0, 0]	n/a	FR1	1	R1196N
1883.139	0.001	2309448	DISTRACT_START	n/a	n/a	n/a	-999	16	[0, 0, 0]	n/a	FR1	1	R1196N
1883.14	0.016	2309449	START	n/a	n/a	n/a	-999	16	[-999, -999, -999]	n/a	FR1	1	R1196N
1883.156	5.018	2309465	PROB	5.018	n/a	n/a	-999	16	[2, 1, 4]	7	FR1	1	R1196N
1888.174	4.618	2314483	PROB	4.618	n/a	n/a	-999	16	[3, 2, 1]	6	FR1	1	R1196N
1892.792	5.767	2319101	PROB	5.767	n/a	n/a	-999	16	[7, 6, 6]	19	FR1	1	R1196N
1898.559	12.856	2324868	PROB	12.856	n/a	n/a	-999	16	[8, 9, 2]	19	FR1	1	R1196N
1911.415	0.013	2337723	STOP	n/a	n/a	n/a	-999	16	[-999, -999, -999]	n/a	FR1	1	R1196N
1911.428	0.682	2337736	DISTRACT_END	n/a	n/a	n/a	-999	16	[0, 0, 0]	n/a	FR1	1	R1196N
1912.11	0.518	2338418	RETRIEVAL_ORIENT	n/a	n/a	n/a	-999	16	[0, 0, 0]	n/a	FR1	1	R1196N
1912.628	1.769	2338936	REC_START	n/a	n/a	n/a	-999	16	[0, 0, 0]	n/a	FR1	1	R1196N
1914.397	3.707	2340705	REC_WORD	3.707	n/a	LIP	8	16	[0, 0, 0]	n/a	FR1	1	R1196N
1918.104	1.441	2344412	REC_WORD_VV	1.441	n/a	<>	-999	16	[0, 0, 0]	n/a	FR1	1	R1196N
1919.545	1.062	2345853	REC_WORD	1.062	n/a	SPONGE	5	16	[0, 0, 0]	n/a	FR1	1	R1196N
1920.607	22.03	2346915	REC_WORD	22.03	n/a	SINK	1	16	[0, 0, 0]	n/a	FR1	1	R1196N
1942.637	8.096	2368945	REC_END	n/a	n/a	n/a	-999	16	[0, 0, 0]	n/a	FR1	1	R1196N
1950.733	0.5	2377041	TRIAL	n/a	n/a	n/a	-999	17	[0, 0, 0]	n/a	FR1	1	R1196N
1951.233	10.428	2377541	COUNTDOWN_START	n/a	n/a	n/a	-999	17	[0, 0, 0]	n/a	FR1	1	R1196N
1961.661	0.007	2387969	COUNTDOWN_END	n/a	n/a	n/a	-999	17	[0, 0, 0]	n/a	FR1	1	R1196N
1961.668	1.616	2387976	ORIENT	n/a	n/a	n/a	-999	17	[0, 0, 0]	n/a	FR1	1	R1196N
1963.284	2.067	2389592	ORIENT_OFF	n/a	n/a	n/a	-999	17	[0, 0, 0]	n/a	FR1	1	R1196N
1965.351	1.618	2391659	WORD	n/a	wordpools/wordpool_EN.txt	SPOON	1	17	[0, 0, 0]	n/a	FR1	1	R1196N
1966.969	0.916	2393277	WORD_OFF	n/a	n/a	SPOON	1	17	[0, 0, 0]	n/a	FR1	1	R1196N
1967.885	1.617	2394193	WORD	n/a	wordpools/wordpool_EN.txt	SMOKE	2	17	[0, 0, 0]	n/a	FR1	1	R1196N
1969.502	0.967	2395810	WORD_OFF	n/a	n/a	SMOKE	2	17	[0, 0, 0]	n/a	FR1	1	R1196N
1970.469	1.616	2396777	WORD	n/a	wordpools/wordpool_EN.txt	FILM	3	17	[0, 0, 0]	n/a	FR1	1	R1196N
1972.085	1.017	2398393	WORD_OFF	n/a	n/a	FILM	3	17	[0, 0, 0]	n/a	FR1	1	R1196N
1973.102	1.618	2399410	WORD	n/a	wordpools/wordpool_EN.txt	CORD	4	17	[0, 0, 0]	n/a	FR1	1	R1196N
1974.72	0.916	2401028	WORD_OFF	n/a	n/a	CORD	4	17	[0, 0, 0]	n/a	FR1	1	R1196N
1975.636	1.616	2401944	WORD	n/a	wordpools/wordpool_EN.txt	PIG	5	17	[0, 0, 0]	n/a	FR1	1	R1196N
1977.252	0.784	2403560	WORD_OFF	n/a	n/a	PIG	5	17	[0, 0, 0]	n/a	FR1	1	R1196N
1978.036	1.618	2404344	WORD	n/a	wordpools/wordpool_EN.txt	PEARL	6	17	[0, 0, 0]	n/a	FR1	1	R1196N
1979.654	0.833	2405962	WORD_OFF	n/a	n/a	PEARL	6	17	[0, 0, 0]	n/a	FR1	1	R1196N
1980.487	1.616	2406795	WORD	n/a	wordpools/wordpool_EN.txt	FROG	7	17	[0, 0, 0]	n/a	FR1	1	R1196N
1982.103	0.984	2408411	WORD_OFF	n/a	n/a	FROG	7	17	[0, 0, 0]	n/a	FR1	1	R1196N
1983.087	1.617	2409395	WORD	n/a	wordpools/wordpool_EN.txt	PLANT	8	17	[0, 0, 0]	n/a	FR1	1	R1196N
1984.704	0.784	2411011	WORD_OFF	n/a	n/a	PLANT	8	17	[0, 0, 0]	n/a	FR1	1	R1196N
1985.488	1.616	2411795	WORD	n/a	wordpools/wordpool_EN.txt	BRANCH	9	17	[0, 0, 0]	n/a	FR1	1	R1196N
1987.104	0.851	2413411	WORD_OFF	n/a	n/a	BRANCH	9	17	[0, 0, 0]	n/a	FR1	1	R1196N
1987.955	1.617	2414262	WORD	n/a	wordpools/wordpool_EN.txt	STEAM	10	17	[0, 0, 0]	n/a	FR1	1	R1196N
1989.572	0.95	2415879	WORD_OFF	n/a	n/a	STEAM	10	17	[0, 0, 0]	n/a	FR1	1	R1196N
1990.522	1.616	2416829	WORD	n/a	wordpools/wordpool_EN.txt	WEB	11	17	[0, 0, 0]	n/a	FR1	1	R1196N
1992.138	0.967	2418445	WORD_OFF	n/a	n/a	WEB	11	17	[0, 0, 0]	n/a	FR1	1	R1196N
1993.105	1.617	2419412	WORD	n/a	wordpools/wordpool_EN.txt	SUN	12	17	[0, 0, 0]	n/a	FR1	1	R1196N
1994.722	0.0	2421029	WORD_OFF	n/a	n/a	SUN	12	17	[0, 0, 0]	n/a	FR1	1	R1196N
1994.722	0.001	2421029	DISTRACT_START	n/a	n/a	n/a	-999	17	[0, 0, 0]	n/a	FR1	1	R1196N
1994.723	0.016	2421030	START	n/a	n/a	n/a	-999	17	[-999, -999, -999]	n/a	FR1	1	R1196N
1994.739	7.234	2421046	PROB	7.234	n/a	n/a	-999	17	[7, 7, 5]	19	FR1	1	R1196N
2001.973	2.484	2428280	PROB	2.484	n/a	n/a	-999	17	[8, 1, 2]	11	FR1	1	R1196N
2004.457	4.534	2430764	PROB	4.534	n/a	n/a	-999	17	[7, 8, 4]	19	FR1	1	R1196N
2008.991	2.6	2435298	PROB	2.6	n/a	n/a	-999	17	[1, 9, 2]	12	FR1	1	R1196N
2011.591	3.894	2437898	PROB	3.894	n/a	n/a	-999	17	[8, 6, 4]	18	FR1	1	R1196N
2015.485	0.024	2441792	STOP	n/a	n/a	n/a	-999	17	[-999, -999, -999]	n/a	FR1	1	R1196N
2015.509	0.565	2441816	DISTRACT_END	n/a	n/a	n/a	-999	17	[0, 0, 0]	n/a	FR1	1	R1196N
2016.074	0.519	2442381	RETRIEVAL_ORIENT	n/a	n/a	n/a	-999	17	[0, 0, 0]	n/a	FR1	1	R1196N
2016.593	1.541	2442900	REC_START	n/a	n/a	n/a	-999	17	[0, 0, 0]	n/a	FR1	1	R1196N
2018.134	0.773	2444441	REC_WORD	0.773	n/a	BRANCH	9	17	[0, 0, 0]	n/a	FR1	1	R1196N
2018.907	0.84	2445214	REC_WORD	0.84	n/a	PLANT	8	17	[0, 0, 0]	n/a	FR1	1	R1196N
2019.747	1.362	2446054	REC_WORD	1.362	n/a	STEAM	10	17	[0, 0, 0]	n/a	FR1	1	R1196N
2021.109	15.668	2447416	REC_WORD	15.668	n/a	WEB	11	17	[0, 0, 0]	n/a	FR1	1	R1196N
2036.777	9.824	2463084	REC_WORD	9.824	n/a	DESK	-999	17	[0, 0, 0]	n/a	FR1	1	R1196N
2046.601	4.628	2472908	REC_END	n/a	n/a	n/a	-999	17	[0, 0, 0]	n/a	FR1	1	R1196N
2051.229	0.5	2477536	TRIAL	n/a	n/a	n/a	-999	18	[0, 0, 0]	n/a	FR1	1	R1196N
2051.729	10.428	2478036	COUNTDOWN_START	n/a	n/a	n/a	-999	18	[0, 0, 0]	n/a	FR1	1	R1196N
2062.157	0.007	2488464	COUNTDOWN_END	n/a	n/a	n/a	-999	18	[0, 0, 0]	n/a	FR1	1	R1196N
2062.164	1.601	2488471	ORIENT	n/a	n/a	n/a	-999	18	[0, 0, 0]	n/a	FR1	1	R1196N
2063.765	1.967	2490072	ORIENT_OFF	n/a	n/a	n/a	-999	18	[0, 0, 0]	n/a	FR1	1	R1196N
2065.732	1.616	2492039	WORD	n/a	wordpools/wordpool_EN.txt	TOOL	1	18	[0, 0, 0]	n/a	FR1	1	R1196N
2067.348	0.8	2493654	WORD_OFF	n/a	n/a	TOOL	1	18	[0, 0, 0]	n/a	FR1	1	R1196N
2068.148	1.601	2494454	WORD	n/a	wordpools/wordpool_EN.txt	WAND	2	18	[0, 0, 0]	n/a	FR1	1	R1196N
2069.749	0.95	2496055	WORD_OFF	n/a	n/a	WAND	2	18	[0, 0, 0]	n/a	FR1	1	R1196N
2070.699	1.616	2497005	WORD	n/a	wordpools/wordpool_EN.txt	FOOD	3	18	[0, 0, 0]	n/a	FR1	1	R1196N
2072.315	0.934	2498621	WORD_OFF	n/a	n/a	FOOD	3	18	[0, 0, 0]	n/a	FR1	1	R1196N
2073.249	1.618	2499555	WORD	n/a	wordpools/wordpool_EN.txt	SKUNK	4	18	[0, 0, 0]	n/a	FR1	1	R1196N
2074.867	0.9	2501173	WORD_OFF	n/a	n/a	SKUNK	4	18	[0, 0, 0]	n/a	FR1	1	R1196N
2075.767	1.616	2502073	WORD	n/a	wordpools/wordpool_EN.txt	MAT	5	18	[0, 0, 0]	n/a	FR1	1	R1196N
2077.383	0.817	2503689	WORD_OFF	n/a	n/a	MAT	5	18	[0, 0, 0]	n/a	FR1	1	R1196N
2078.2	1.617	2504506	WORD	n/a	wordpools/wordpool_EN.txt	FACE	6	18	[0, 0, 0]	n/a	FR1	1	R1196N
2079.817	1.017	2506123	WORD_OFF	n/a	n/a	FACE	6	18	[0, 0, 0]	n/a	FR1	1	R1196N
2080.834	1.617	2507140	WORD	n/a	wordpools/wordpool_EN.txt	BROOM	7	18	[0, 0, 0]	n/a	FR1	1	R1196N
2082.451	0.883	2508757	WORD_OFF	n/a	n/a	BROOM	7	18	[0, 0, 0]	n/a	FR1	1	R1196N
2083.334	1.617	2509640	WORD	n/a	wordpools/wordpool_EN.txt	WING	8	18	[0, 0, 0]	n/a	FR1	1	R1196N
2084.951	0.917	2511257	WORD_OFF	n/a	n/a	WING	8	18	[0, 0, 0]	n/a	FR1	1	R1196N
2085.868	1.617	2512174	WORD	n/a	wordpools/wordpool_EN.txt	STORE	9	18	[0, 0, 0]	n/a	FR1	1	R1196N
2087.485	0.967	2513791	WORD_OFF	n/a	n/a	STORE	9	18	[0, 0, 0]	n/a	FR1	1	R1196N
2088.452	1.616	2514758	WORD	n/a	wordpools/wordpool_EN.txt	CAKE	10	18	[0, 0, 0]	n/a	FR1	1	R1196N
2090.068	0.784	2516374	WORD_OFF	n/a	n/a	CAKE	10	18	[0, 0, 0]	n/a	FR1	1	R1196N
2090.852	1.617	2517158	WORD	n/a	wordpools/wordpool_EN.txt	STREET	11	18	[0, 0, 0]	n/a	FR1	1	R1196N
2092.469	1.0	2518775	WORD_OFF	n/a	n/a	STREET	11	18	[0, 0, 0]	n/a	FR1	1	R1196N
2093.469	1.616	2519775	WORD	n/a	wordpools/wordpool_EN.txt	ARM	12	18	[0, 0, 0]	n/a	FR1	1	R1196N
2095.085	0.0	2521391	WORD_OFF	n/a	n/a	ARM	12	18	[0, 0, 0]	n/a	FR1	1	R1196N
2095.085	0.001	2521391	DISTRACT_START	n/a	n/a	n/a	-999	18	[0, 0, 0]	n/a	FR1	1	R1196N
2095.086	0.016	2521392	START	n/a	n/a	n/a	-999	18	[-999, -999, -999]	n/a	FR1	1	R1196N
2095.102	4.25	2521408	PROB	4.25	n/a	n/a	-999	18	[1, 1, 4]	6	FR1	1	R1196N
2099.352	3.585	2525658	PROB	3.585	n/a	n/a	-999	18	[2, 8, 5]	15	FR1	1	R1196N
2102.937	3.801	2529243	PROB	3.801	n/a	n/a	-999	18	[4, 5, 3]	12	FR1	1	R1196N
2106.738	4.533	2533044	PROB	4.533	n/a	n/a	-999	18	[9, 4, 6]	19	FR1	1	R1196N
2111.271	8.777	2537577	PROB	8.777	n/a	n/a	-999	18	[5, 3, 7]	15	FR1	1	R1196N
2120.048	0.007	2546354	STOP	n/a	n/a	n/a	-999	18	[-999, -999, -999]	n/a	FR1	1	R1196N
2120.055	0.518	2546361	DISTRACT_END	n/a	n/a	n/a	-999	18	[0, 0, 0]	n/a	FR1	1	R1196N
2120.573	0.516	2546879	RETRIEVAL_ORIENT	n/a	n/a	n/a	-999	18	[0, 0, 0]	n/a	FR1	1	R1196N
2121.089	3.037	2547395	REC_START	n/a	n/a	n/a	-999	18	[0, 0, 0]	n/a	FR1	1	R1196N
2124.126	1.62	2550432	REC_WORD	1.62	n/a	MAT	5	18	[0, 0, 0]	n/a	FR1	1	R1196N
2125.746	25.353	2552052	REC_WORD	25.353	n/a	CAKE	10	18	[0, 0, 0]	n/a	FR1	1	R1196N
2151.099	5.529	2577404	REC_END	n/a	n/a	n/a	-999	18	[0, 0, 0]	n/a	FR1	1	R1196N
2156.628	0.5	2582933	TRIAL	n/a	n/a	n/a	-999	19	[0, 0, 0]	n/a	FR1	1	R1196N
2157.128	10.428	2583433	COUNTDOWN_START	n/a	n/a	n/a	-999	19	[0, 0, 0]	n/a	FR1	1	R1196N
2167.556	0.007	2593861	COUNTDOWN_END	n/a	n/a	n/a	-999	19	[0, 0, 0]	n/a	FR1	1	R1196N
2167.563	1.616	2593868	ORIENT	n/a	n/a	n/a	-999	19	[0, 0, 0]	n/a	FR1	1	R1196N
2169.179	2.351	2595484	ORIENT_OFF	n/a	n/a	n/a	-999	19	[0, 0, 0]	n/a	FR1	1	R1196N
2171.53	1.616	2597835	WORD	n/a	wordpools/wordpool_EN.txt	STONE	1	19	[0, 0, 0]	n/a	FR1	1	R1196N
2173.146	0.933	2599451	WORD_OFF	n/a	n/a	STONE	1	19	[0, 0, 0]	n/a	FR1	1	R1196N
2174.079	1.601	2600384	WORD	n/a	wordpools/wordpool_EN.txt	SLIME	2	19	[0, 0, 0]	n/a	FR1	1	R1196N
2175.68	0.951	2601985	WORD_OFF	n/a	n/a	SLIME	2	19	[0, 0, 0]	n/a	FR1	1	R1196N
2176.631	1.616	2602936	WORD	n/a	wordpools/wordpool_EN.txt	HORN	3	19	[0, 0, 0]	n/a	FR1	1	R1196N
2178.247	0.916	2604552	WORD_OFF	n/a	n/a	HORN	3	19	[0, 0, 0]	n/a	FR1	1	R1196N
2179.163	1.618	2605468	WORD	n/a	wordpools/wordpool_EN.txt	RAKE	4	19	[0, 0, 0]	n/a	FR1	1	R1196N
2180.781	0.8	2607086	WORD_OFF	n/a	n/a	RAKE	4	19	[0, 0, 0]	n/a	FR1	1	R1196N
2181.581	1.616	2607886	WORD	n/a	wordpools/wordpool_EN.txt	CLOWN	5	19	[0, 0, 0]	n/a	FR1	1	R1196N
2183.197	0.867	2609502	WORD_OFF	n/a	n/a	CLOWN	5	19	[0, 0, 0]	n/a	FR1	1	R1196N
2184.064	1.618	2610369	WORD	n/a	wordpools/wordpool_EN.txt	CRANE	6	19	[0, 0, 0]	n/a	FR1	1	R1196N
2185.682	0.816	2611987	WORD_OFF	n/a	n/a	CRANE	6	19	[0, 0, 0]	n/a	FR1	1	R1196N
2186.498	1.617	2612803	WORD	n/a	wordpools/wordpool_EN.txt	BIRD	7	19	[0, 0, 0]	n/a	FR1	1	R1196N
2188.115	0.851	2614420	WORD_OFF	n/a	n/a	BIRD	7	19	[0, 0, 0]	n/a	FR1	1	R1196N
2188.966	1.617	2615271	WORD	n/a	wordpools/wordpool_EN.txt	SEAL	8	19	[0, 0, 0]	n/a	FR1	1	R1196N
2190.583	0.833	2616888	WORD_OFF	n/a	n/a	SEAL	8	19	[0, 0, 0]	n/a	FR1	1	R1196N
2191.416	1.616	2617721	WORD	n/a	wordpools/wordpool_EN.txt	SAIL	9	19	[0, 0, 0]	n/a	FR1	1	R1196N
2193.032	0.983	2619337	WORD_OFF	n/a	n/a	SAIL	9	19	[0, 0, 0]	n/a	FR1	1	R1196N
2194.015	1.602	2620320	WORD	n/a	wordpools/wordpool_EN.txt	WHEEL	10	19	[0, 0, 0]	n/a	FR1	1	R1196N
2195.617	0.783	2621922	WORD_OFF	n/a	n/a	WHEEL	10	19	[0, 0, 0]	n/a	FR1	1	R1196N
2196.4	1.616	2622705	WORD	n/a	wordpools/wordpool_EN.txt	HEART	11	19	[0, 0, 0]	n/a	FR1	1	R1196N
2198.016	0.851	2624321	WORD_OFF	n/a	n/a	HEART	11	19	[0, 0, 0]	n/a	FR1	1	R1196N
2198.867	1.617	2625172	WORD	n/a	wordpools/wordpool_EN.txt	STEM	12	19	[0, 0, 0]	n/a	FR1	1	R1196N
2200.484	0.0	2626789	WORD_OFF	n/a	n/a	STEM	12	19	[0, 0, 0]	n/a	FR1	1	R1196N
2200.484	0.0	2626789	DISTRACT_START	n/a	n/a	n/a	-999	19	[0, 0, 0]	n/a	FR1	1	R1196N
2200.484	0.017	2626789	START	n/a	n/a	n/a	-999	19	[-999, -999, -999]	n/a	FR1	1	R1196N
2200.501	6.217	2626806	PROB	6.217	n/a	n/a	-999	19	[7, 5, 2]	14	FR1	1	R1196N
2206.718	3.217	2633023	PROB	3.217	n/a	n/a	-999	19	[1, 5, 3]	9	FR1	1	R1196N
2209.935	6.034	2636240	PROB	6.034	n/a	n/a	-999	19	[3, 9, 5]	17	FR1	1	R1196N
2215.969	4.333	2642274	PROB	4.333	n/a	n/a	-999	19	[3, 4, 2]	9	FR1	1	R1196N
2220.302	3.296	2646607	PROB	3.296	n/a	n/a	-999	19	[1, 7, 9]	17	FR1	1	R1196N
2223.598	0.006	2649903	STOP	n/a	n/a	n/a	-999	19	[-999, -999, -999]	n/a	FR1	1	R1196N
2223.604	0.632	2649909	DISTRACT_END	n/a	n/a	n/a	-999	19	[0, 0, 0]	n/a	FR1	1	R1196N
2224.236	0.519	2650541	RETRIEVAL_ORIENT	n/a	n/a	n/a	-999	19	[0, 0, 0]	n/a	FR1	1	R1196N
2224.755	1.291	2651060	REC_START	n/a	n/a	n/a	-999	19	[0, 0, 0]	n/a	FR1	1	R1196N
2226.046	1.798	2652351	REC_WORD	1.798	n/a	STEM	12	19	[0, 0, 0]	n/a	FR1	1	R1196N
2227.844	0.653	2654149	REC_WORD	0.653	n/a	WHEEL	10	19	[0, 0, 0]	n/a	FR1	1	R1196N
2228.497	4.787	2654802	REC_WORD	4.787	n/a	HEART	11	19	[0, 0, 0]	n/a	FR1	1	R1196N
2233.284	0.88	2659588	REC_WORD	0.88	n/a	SEAL	8	19	[0, 0, 0]	n/a	FR1	1	R1196N
2234.164	3.293	2660468	REC_WORD	3.293	n/a	SAIL	9	19	[0, 0, 0]	n/a	FR1	1	R1196N
2237.457	0.216	2663761	REC_WORD	0.216	n/a	SEA	-999	19	[0, 0, 0]	n/a	FR1	1	R1196N
2237.673	0.414	2663977	REC_WORD	0.414	n/a	LION	-999	19	[0, 0, 0]	n/a	FR1	1	R1196N
2238.087	16.678	2664391	REC_WORD	16.678	n/a	SAIL	9	19	[0, 0, 0]	n/a	FR1	1	R1196N
2254.765	9.293	2681069	REC_END	n/a	n/a	n/a	-999	19	[0, 0, 0]	n/a	FR1	1	R1196N
2264.058	0.5	2690362	TRIAL	n/a	n/a	n/a	-999	20	[0, 0, 0]	n/a	FR1	1	R1196N
2264.558	10.428	2690862	COUNTDOWN_START	n/a	n/a	n/a	-999	20	[0, 0, 0]	n/a	FR1	1	R1196N
2274.986	0.007	2701290	COUNTDOWN_END	n/a	n/a	n/a	-999	20	[0, 0, 0]	n/a	FR1	1	R1196N
2274.993	1.601	2701297	ORIENT	n/a	n/a	n/a	-999	20	[0, 0, 0]	n/a	FR1	1	R1196N
2276.594	1.951	2702898	ORIENT_OFF	n/a	n/a	n/a	-999	20	[0, 0, 0]	n/a	FR1	1	R1196N
2278.545	1.616	2704849	WORD	n/a	wordpools/wordpool_EN.txt	PALM	1	20	[0, 0, 0]	n/a	FR1	1	R1196N
2280.161	1.016	2706465	WORD_OFF	n/a	n/a	PALM	1	20	[0, 0, 0]	n/a	FR1	1	R1196N
2281.177	1.601	2707481	WORD	n/a	wordpools/wordpool_EN.txt	RUG	2	20	[0, 0, 0]	n/a	FR1	1	R1196N
2282.778	0.967	2709082	WORD_OFF	n/a	n/a	RUG	2	20	[0, 0, 0]	n/a	FR1	1	R1196N
2283.745	1.616	2710049	WORD	n/a	wordpools/wordpool_EN.txt	VASE	3	20	[0, 0, 0]	n/a	FR1	1	R1196N
2285.361	0.8	2711665	WORD_OFF	n/a	n/a	VASE	3	20	[0, 0, 0]	n/a	FR1	1	R1196N
2286.161	1.601	2712465	WORD	n/a	wordpools/wordpool_EN.txt	PLATE	4	20	[0, 0, 0]	n/a	FR1	1	R1196N
2287.762	0.851	2714066	WORD_OFF	n/a	n/a	PLATE	4	20	[0, 0, 0]	n/a	FR1	1	R1196N
2288.613	1.616	2714917	WORD	n/a	wordpools/wordpool_EN.txt	POND	5	20	[0, 0, 0]	n/a	FR1	1	R1196N
2290.229	0.816	2716533	WORD_OFF	n/a	n/a	POND	5	20	[0, 0, 0]	n/a	FR1	1	R1196N
2291.045	1.618	2717349	WORD	n/a	wordpools/wordpool_EN.txt	SHARK	6	20	[0, 0, 0]	n/a	FR1	1	R1196N
2292.663	0.8	2718967	WORD_OFF	n/a	n/a	SHARK	6	20	[0, 0, 0]	n/a	FR1	1	R1196N
2293.463	1.616	2719767	WORD	n/a	wordpools/wordpool_EN.txt	LEG	7	20	[0, 0, 0]	n/a	FR1	1	R1196N
2295.079	0.984	2721383	WORD_OFF	n/a	n/a	LEG	7	20	[0, 0, 0]	n/a	FR1	1	R1196N
2296.063	1.618	2722367	WORD	n/a	wordpools/wordpool_EN.txt	DITCH	8	20	[0, 0, 0]	n/a	FR1	1	R1196N
2297.681	0.95	2723985	WORD_OFF	n/a	n/a	DITCH	8	20	[0, 0, 0]	n/a	FR1	1	R1196N
2298.631	1.616	2724935	WORD	n/a	wordpools/wordpool_EN.txt	TEETH	9	20	[0, 0, 0]	n/a	FR1	1	R1196N
2300.247	0.833	2726551	WORD_OFF	n/a	n/a	TEETH	9	20	[0, 0, 0]	n/a	FR1	1	R1196N
2301.08	1.618	2727384	WORD	n/a	wordpools/wordpool_EN.txt	PIE	10	20	[0, 0, 0]	n/a	FR1	1	R1196N
2302.698	0.783	2729002	WORD_OFF	n/a	n/a	PIE	10	20	[0, 0, 0]	n/a	FR1	1	R1196N
2303.481	1.616	2729785	WORD	n/a	wordpools/wordpool_EN.txt	FORT	11	20	[0, 0, 0]	n/a	FR1	1	R1196N
2305.097	0.852	2731401	WORD_OFF	n/a	n/a	FORT	11	20	[0, 0, 0]	n/a	FR1	1	R1196N
2305.949	1.616	2732253	WORD	n/a	wordpools/wordpool_EN.txt	GEESE	12	20	[0, 0, 0]	n/a	FR1	1	R1196N
2307.565	0.0	2733869	WORD_OFF	n/a	n/a	GEESE	12	20	[0, 0, 0]	n/a	FR1	1	R1196N
2307.565	0.001	2733869	DISTRACT_START	n/a	n/a	n/a	-999	20	[0, 0, 0]	n/a	FR1	1	R1196N
2307.566	0.016	2733870	START	n/a	n/a	n/a	-999	20	[-999, -999, -999]	n/a	FR1	1	R1196N
2307.582	6.968	2733886	PROB	6.968	n/a	n/a	-999	20	[4, 9, 7]	20	FR1	1	R1196N
2314.55	6.117	2740853	PROB	6.117	n/a	n/a	-999	20	[6, 8, 7]	21	FR1	1	R1196N
2320.667	4.784	2746970	PROB	4.784	n/a	n/a	-999	20	[7, 6, 1]	14	FR1	1	R1196N
2325.451	4.766	2751754	PROB	4.766	n/a	n/a	-999	20	[6, 7, 7]	20	FR1	1	R1196N
2330.217	0.017	2756520	STOP	n/a	n/a	n/a	-999	20	[-999, -999, -999]	n/a	FR1	1	R1196N
2330.234	0.551	2756537	DISTRACT_END	n/a	n/a	n/a	-999	20	[0, 0, 0]	n/a	FR1	1	R1196N
2330.785	0.517	2757088	RETRIEVAL_ORIENT	n/a	n/a	n/a	-999	20	[0, 0, 0]	n/a	FR1	1	R1196N
2331.302	3.269	2757605	REC_START	n/a	n/a	n/a	-999	20	[0, 0, 0]	n/a	FR1	1	R1196N
2334.571	0.737	2760874	REC_WORD	0.737	n/a	DITCH	8	20	[0, 0, 0]	n/a	FR1	1	R1196N
2335.308	0.873	2761611	REC_WORD	0.873	n/a	TEETH	9	20	[0, 0, 0]	n/a	FR1	1	R1196N
2336.181	6.079	2762484	REC_WORD	6.079	n/a	HIVE	-999	20	[0, 0, 0]	n/a	FR1	1	R1196N
2342.26	5.994	2768563	REC_WORD	5.994	n/a	FORT	11	20	[0, 0, 0]	n/a	FR1	1	R1196N
2348.254	13.056	2774557	REC_WORD	13.056	n/a	GEESE	12	20	[0, 0, 0]	n/a	FR1	1	R1196N
2361.31	8.431	2787613	REC_END	n/a	n/a	n/a	-999	20	[0, 0, 0]	n/a	FR1	1	R1196N
2369.741	0.5	2796044	TRIAL	n/a	n/a	n/a	-999	21	[0, 0, 0]	n/a	FR1	1	R1196N
2370.241	10.428	2796544	COUNTDOWN_START	n/a	n/a	n/a	-999	21	[0, 0, 0]	n/a	FR1	1	R1196N
2380.669	0.006	2806972	COUNTDOWN_END	n/a	n/a	n/a	-999	21	[0, 0, 0]	n/a	FR1	1	R1196N
2380.675	1.616	2806978	ORIENT	n/a	n/a	n/a	-999	21	[0, 0, 0]	n/a	FR1	1	R1196N
2382.291	2.152	2808594	ORIENT_OFF	n/a	n/a	n/a	-999	21	[0, 0, 0]	n/a	FR1	1	R1196N
2384.443	1.616	2810746	WORD	n/a	wordpools/wordpool_EN.txt	CROW	1	21	[0, 0, 0]	n/a	FR1	1	R1196N
2386.059	0.983	2812362	WORD_OFF	n/a	n/a	CROW	1	21	[0, 0, 0]	n/a	FR1	1	R1196N
2387.042	1.618	2813345	WORD	n/a	wordpools/wordpool_EN.txt	LAKE	2	21	[0, 0, 0]	n/a	FR1	1	R1196N
2388.66	0.783	2814963	WORD_OFF	n/a	n/a	LAKE	2	21	[0, 0, 0]	n/a	FR1	1	R1196N
2389.443	1.616	2815746	WORD	n/a	wordpools/wordpool_EN.txt	PIN	3	21	[0, 0, 0]	n/a	FR1	1	R1196N
2391.059	0.851	2817362	WORD_OFF	n/a	n/a	PIN	3	21	[0, 0, 0]	n/a	FR1	1	R1196N
2391.91	1.617	2818213	WORD	n/a	wordpools/wordpool_EN.txt	MAP	4	21	[0, 0, 0]	n/a	FR1	1	R1196N
2393.527	1.0	2819830	WORD_OFF	n/a	n/a	MAP	4	21	[0, 0, 0]	n/a	FR1	1	R1196N
2394.527	1.616	2820830	WORD	n/a	wordpools/wordpool_EN.txt	SNOW	5	21	[0, 0, 0]	n/a	FR1	1	R1196N
2396.143	0.835	2822446	WORD_OFF	n/a	n/a	SNOW	5	21	[0, 0, 0]	n/a	FR1	1	R1196N
2396.978	1.617	2823281	WORD	n/a	wordpools/wordpool_EN.txt	CHAIR	6	21	[0, 0, 0]	n/a	FR1	1	R1196N
2398.595	0.916	2824897	WORD_OFF	n/a	n/a	CHAIR	6	21	[0, 0, 0]	n/a	FR1	1	R1196N
2399.511	1.616	2825813	WORD	n/a	wordpools/wordpool_EN.txt	APE	7	21	[0, 0, 0]	n/a	FR1	1	R1196N
2401.127	0.867	2827429	WORD_OFF	n/a	n/a	APE	7	21	[0, 0, 0]	n/a	FR1	1	R1196N
2401.994	1.618	2828296	WORD	n/a	wordpools/wordpool_EN.txt	RICE	8	21	[0, 0, 0]	n/a	FR1	1	R1196N
2403.612	0.85	2829914	WORD_OFF	n/a	n/a	RICE	8	21	[0, 0, 0]	n/a	FR1	1	R1196N
2404.462	1.616	2830764	WORD	n/a	wordpools/wordpool_EN.txt	GRASS	9	21	[0, 0, 0]	n/a	FR1	1	R1196N
2406.078	1.0	2832380	WORD_OFF	n/a	n/a	GRASS	9	21	[0, 0, 0]	n/a	FR1	1	R1196N
2407.078	1.618	2833380	WORD	n/a	wordpools/wordpool_EN.txt	CHIN	10	21	[0, 0, 0]	n/a	FR1	1	R1196N
2408.696	0.783	2834998	WORD_OFF	n/a	n/a	CHIN	10	21	[0, 0, 0]	n/a	FR1	1	R1196N
2409.479	1.616	2835781	WORD	n/a	wordpools/wordpool_EN.txt	LAMB	11	21	[0, 0, 0]	n/a	FR1	1	R1196N
2411.095	0.818	2837397	WORD_OFF	n/a	n/a	LAMB	11	21	[0, 0, 0]	n/a	FR1	1	R1196N
2411.913	1.617	2838215	WORD	n/a	wordpools/wordpool_EN.txt	DRUM	12	21	[0, 0, 0]	n/a	FR1	1	R1196N
2413.53	0.0	2839832	WORD_OFF	n/a	n/a	DRUM	12	21	[0, 0, 0]	n/a	FR1	1	R1196N
2413.53	0.0	2839832	DISTRACT_START	n/a	n/a	n/a	-999	21	[0, 0, 0]	n/a	FR1	1	R1196N
2413.53	0.017	2839832	START	n/a	n/a	n/a	-999	21	[-999, -999, -999]	n/a	FR1	1	R1196N
2413.547	6.8	2839849	PROB	6.8	n/a	n/a	-999	21	[7, 1, 8]	16	FR1	1	R1196N
2420.347	3.65	2846649	PROB	3.65	n/a	n/a	-999	21	[6, 7, 6]	19	FR1	1	R1196N
2423.997	5.552	2850299	PROB	5.552	n/a	n/a	-999	21	[5, 7, 5]	17	FR1	1	R1196N
2429.549	4.53	2855851	PROB	4.53	n/a	n/a	-999	21	[6, 3, 6]	16	FR1	1	R1196N
2434.079	0.02	2860381	STOP	n/a	n/a	n/a	-999	21	[-999, -999, -999]	n/a	FR1	1	R1196N
2434.099	0.701	2860401	DISTRACT_END	n/a	n/a	n/a	-999	21	[0, 0, 0]	n/a	FR1	1	R1196N
2434.8	0.516	2861102	RETRIEVAL_ORIENT	n/a	n/a	n/a	-999	21	[0, 0, 0]	n/a	FR1	1	R1196N
2435.316	2.749	2861618	REC_START	n/a	n/a	n/a	-999	21	[0, 0, 0]	n/a	FR1	1	R1196N
2438.065	0.307	2864367	REC_WORD_VV	0.307	n/a	<>	-999	21	[0, 0, 0]	n/a	FR1	1	R1196N
2438.372	1.503	2864674	REC_WORD	1.503	n/a	GRASS	9	21	[0, 0, 0]	n/a	FR1	1	R1196N
2439.875	1.043	2866177	REC_WORD	1.043	n/a	LAMB	11	21	[0, 0, 0]	n/a	FR1	1	R1196N
2440.918	11.067	2867220	REC_WORD	11.067	n/a	CHIN	10	21	[0, 0, 0]	n/a	FR1	1	R1196N
2451.985	0.981	2878287	REC_WORD	0.981	n/a	SNOW	5	21	[0, 0, 0]	n/a	FR1	1	R1196N
2452.966	2.551	2879268	REC_WORD	2.551	n/a	CHAIR	6	21	[0, 0, 0]	n/a	FR1	1	R1196N
2455.517	1.016	2881819	REC_WORD	1.016	n/a	CROW	1	21	[0, 0, 0]	n/a	FR1	1	R1196N
2456.533	1.096	2882835	REC_WORD	1.096	n/a	LAKE	2	21	[0, 0, 0]	n/a	FR1	1	R1196N
2457.629	1.491	2883931	REC_WORD	1.491	n/a	PIN	3	21	[0, 0, 0]	n/a	FR1	1	R1196N
2459.12	6.203	2885422	REC_WORD	6.203	n/a	MAP	4	21	[0, 0, 0]	n/a	FR1	1	R1196N
2465.323	4.264	2891625	REC_END	n/a	n/a	n/a	-999	21	[0, 0, 0]	n/a	FR1	1	R1196N
2469.587	0.5	2895889	TRIAL	n/a	n/a	n/a	-999	22	[0, 0, 0]	n/a	FR1	1	R1196N
2470.087	10.428	2896389	COUNTDOWN_START	n/a	n/a	n/a	-999	22	[0, 0, 0]	n/a	FR1	1	R1196N
2480.515	0.008	2906816	COUNTDOWN_END	n/a	n/a	n/a	-999	22	[0, 0, 0]	n/a	FR1	1	R1196N
2480.523	1.615	2906824	ORIENT	n/a	n/a	n/a	-999	22	[0, 0, 0]	n/a	FR1	1	R1196N
2482.138	1.934	2908439	ORIENT_OFF	n/a	n/a	n/a	-999	22	[0, 0, 0]	n/a	FR1	1	R1196N
2484.072	1.618	2910373	WORD	n/a	wordpools/wordpool_EN.txt	SHEEP	1	22	[0, 0, 0]	n/a	FR1	1	R1196N
2485.69	0.933	2911991	WORD_OFF	n/a	n/a	SHEEP	1	22	[0, 0, 0]	n/a	FR1	1	R1196N
2486.623	1.616	2912924	WORD	n/a	wordpools/wordpool_EN.txt	MAIL	2	22	[0, 0, 0]	n/a	FR1	1	R1196N
2488.239	0.784	2914540	WORD_OFF	n/a	n/a	MAIL	2	22	[0, 0, 0]	n/a	FR1	1	R1196N
2489.023	1.618	2915324	WORD	n/a	wordpools/wordpool_EN.txt	AXE	3	22	[0, 0, 0]	n/a	FR1	1	R1196N
2490.641	0.866	2916942	WORD_OFF	n/a	n/a	AXE	3	22	[0, 0, 0]	n/a	FR1	1	R1196N
2491.507	1.616	2917808	WORD	n/a	wordpools/wordpool_EN.txt	SMILE	4	22	[0, 0, 0]	n/a	FR1	1	R1196N
2493.123	0.984	2919424	WORD_OFF	n/a	n/a	SMILE	4	22	[0, 0, 0]	n/a	FR1	1	R1196N
2494.107	1.618	2920408	WORD	n/a	wordpools/wordpool_EN.txt	SHRIMP	5	22	[0, 0, 0]	n/a	FR1	1	R1196N
2495.725	0.833	2922026	WORD_OFF	n/a	n/a	SHRIMP	5	22	[0, 0, 0]	n/a	FR1	1	R1196N
2496.558	1.616	2922859	WORD	n/a	wordpools/wordpool_EN.txt	BEACH	6	22	[0, 0, 0]	n/a	FR1	1	R1196N
2498.174	0.833	2924475	WORD_OFF	n/a	n/a	BEACH	6	22	[0, 0, 0]	n/a	FR1	1	R1196N
2499.007	1.618	2925308	WORD	n/a	wordpools/wordpool_EN.txt	FUDGE	7	22	[0, 0, 0]	n/a	FR1	1	R1196N
2500.625	0.984	2926926	WORD_OFF	n/a	n/a	FUDGE	7	22	[0, 0, 0]	n/a	FR1	1	R1196N
2501.609	1.616	2927910	WORD	n/a	wordpools/wordpool_EN.txt	GOLD	8	22	[0, 0, 0]	n/a	FR1	1	R1196N
2503.225	0.95	2929526	WORD_OFF	n/a	n/a	GOLD	8	22	[0, 0, 0]	n/a	FR1	1	R1196N
2504.175	1.601	2930476	WORD	n/a	wordpools/wordpool_EN.txt	CAVE	9	22	[0, 0, 0]	n/a	FR1	1	R1196N
2505.776	1.0	2932077	WORD_OFF	n/a	n/a	CAVE	9	22	[0, 0, 0]	n/a	FR1	1	R1196N
2506.776	1.617	2933077	WORD	n/a	wordpools/wordpool_EN.txt	COW	10	22	[0, 0, 0]	n/a	FR1	1	R1196N
2508.393	0.932	2934694	WORD_OFF	n/a	n/a	COW	10	22	[0, 0, 0]	n/a	FR1	1	R1196N
2509.325	1.601	2935626	WORD	n/a	wordpools/wordpool_EN.txt	PLANE	11	22	[0, 0, 0]	n/a	FR1	1	R1196N
2510.926	0.851	2937227	WORD_OFF	n/a	n/a	PLANE	11	22	[0, 0, 0]	n/a	FR1	1	R1196N
2511.777	1.617	2938078	WORD	n/a	wordpools/wordpool_EN.txt	SQUARE	12	22	[0, 0, 0]	n/a	FR1	1	R1196N
2513.394	0.0	2939695	WORD_OFF	n/a	n/a	SQUARE	12	22	[0, 0, 0]	n/a	FR1	1	R1196N
2513.394	0.0	2939695	DISTRACT_START	n/a	n/a	n/a	-999	22	[0, 0, 0]	n/a	FR1	1	R1196N
2513.394	0.016	2939695	START	n/a	n/a	n/a	-999	22	[-999, -999, -999]	n/a	FR1	1	R1196N
2513.41	4.151	2939711	PROB	4.151	n/a	n/a	-999	22	[2, 3, 3]	8	FR1	1	R1196N
2517.561	3.967	2943862	PROB	3.967	n/a	n/a	-999	22	[1, 3, 7]	11	FR1	1	R1196N
2521.528	3.733	2947829	PROB	3.733	n/a	n/a	-999	22	[4, 1, 6]	11	FR1	1	R1196N
2525.261	6.185	2951562	PROB	6.185	n/a	n/a	-999	22	[8, 6, 5]	19	FR1	1	R1196N
2531.446	6.669	2957747	PROB	6.669	n/a	n/a	-999	22	[4, 5, 7]	16	FR1	1	R1196N
2538.115	0.014	2964416	STOP	n/a	n/a	n/a	-999	22	[-999, -999, -999]	n/a	FR1	1	R1196N
2538.129	0.518	2964430	DISTRACT_END	n/a	n/a	n/a	-999	22	[0, 0, 0]	n/a	FR1	1	R1196N
2538.647	0.516	2964948	RETRIEVAL_ORIENT	n/a	n/a	n/a	-999	22	[0, 0, 0]	n/a	FR1	1	R1196N
2539.163	2.142	2965464	REC_START	n/a	n/a	n/a	-999	22	[0, 0, 0]	n/a	FR1	1	R1196N
2541.305	3.683	2967606	REC_WORD	3.683	n/a	SHEEP	1	22	[0, 0, 0]	n/a	FR1	1	R1196N
2544.988	0.431	2971289	REC_WORD	0.431	n/a	PLANE	11	22	[0, 0, 0]	n/a	FR1	1	R1196N
2545.419	7.879	2971720	REC_WORD	7.879	n/a	SQUARE	12	22	[0, 0, 0]	n/a	FR1	1	R1196N
2553.298	0.768	2979599	REC_WORD	0.768	n/a	AXE	3	22	[0, 0, 0]	n/a	FR1	1	R1196N
2554.066	0.753	2980367	REC_WORD	0.753	n/a	SMILE	4	22	[0, 0, 0]	n/a	FR1	1	R1196N
2554.819	5.867	2981120	REC_WORD	5.867	n/a	SHRIMP	5	22	[0, 0, 0]	n/a	FR1	1	R1196N
2560.686	8.486	2986987	REC_WORD	8.486	n/a	BEACH	6	22	[0, 0, 0]	n/a	FR1	1	R1196N
2569.172	6.48	2995472	REC_END	n/a	n/a	n/a	-999	22	[0, 0, 0]	n/a	FR1	1	R1196N
2575.652	0.5	3001952	TRIAL	n/a	n/a	n/a	-999	23	[0, 0, 0]	n/a	FR1	1	R1196N
2576.152	10.428	3002452	COUNTDOWN_START	n/a	n/a	n/a	-999	23	[0, 0, 0]	n/a	FR1	1	R1196N
2586.58	0.007	3012880	COUNTDOWN_END	n/a	n/a	n/a	-999	23	[0, 0, 0]	n/a	FR1	1	R1196N
2586.587	1.616	3012887	ORIENT	n/a	n/a	n/a	-999	23	[0, 0, 0]	n/a	FR1	1	R1196N
2588.203	2.167	3014503	ORIENT_OFF	n/a	n/a	n/a	-999	23	[0, 0, 0]	n/a	FR1	1	R1196N
2590.37	1.618	3016670	WORD	n/a	wordpools/wordpool_EN.txt	GOAT	1	23	[0, 0, 0]	n/a	FR1	1	R1196N
2591.988	0.783	3018288	WORD_OFF	n/a	n/a	GOAT	1	23	[0, 0, 0]	n/a	FR1	1	R1196N
2592.771	1.616	3019071	WORD	n/a	wordpools/wordpool_EN.txt	SEAT	2	23	[0, 0, 0]	n/a	FR1	1	R1196N
2594.387	0.984	3020687	WORD_OFF	n/a	n/a	SEAT	2	23	[0, 0, 0]	n/a	FR1	1	R1196N
2595.371	1.618	3021671	WORD	n/a	wordpools/wordpool_EN.txt	STOVE	3	23	[0, 0, 0]	n/a	FR1	1	R1196N
2596.989	0.966	3023289	WORD_OFF	n/a	n/a	STOVE	3	23	[0, 0, 0]	n/a	FR1	1	R1196N
2597.955	1.617	3024255	WORD	n/a	wordpools/wordpool_EN.txt	PEA	4	23	[0, 0, 0]	n/a	FR1	1	R1196N
2599.572	1.0	3025872	WORD_OFF	n/a	n/a	PEA	4	23	[0, 0, 0]	n/a	FR1	1	R1196N
2600.572	1.616	3026872	WORD	n/a	wordpools/wordpool_EN.txt	STOOL	5	23	[0, 0, 0]	n/a	FR1	1	R1196N
2602.188	0.768	3028488	WORD_OFF	n/a	n/a	STOOL	5	23	[0, 0, 0]	n/a	FR1	1	R1196N
2602.956	1.617	3029256	WORD	n/a	wordpools/wordpool_EN.txt	SALT	6	23	[0, 0, 0]	n/a	FR1	1	R1196N
2604.573	0.867	3030873	WORD_OFF	n/a	n/a	SALT	6	23	[0, 0, 0]	n/a	FR1	1	R1196N
2605.44	1.616	3031740	WORD	n/a	wordpools/wordpool_EN.txt	CAPE	7	23	[0, 0, 0]	n/a	FR1	1	R1196N
2607.056	0.817	3033356	WORD_OFF	n/a	n/a	CAPE	7	23	[0, 0, 0]	n/a	FR1	1	R1196N
2607.873	1.617	3034173	WORD	n/a	wordpools/wordpool_EN.txt	LAMP	8	23	[0, 0, 0]	n/a	FR1	1	R1196N
2609.49	0.984	3035790	WORD_OFF	n/a	n/a	LAMP	8	23	[0, 0, 0]	n/a	FR1	1	R1196N
2610.474	1.616	3036774	WORD	n/a	wordpools/wordpool_EN.txt	SWAMP	9	23	[0, 0, 0]	n/a	FR1	1	R1196N
2612.09	0.901	3038390	WORD_OFF	n/a	n/a	SWAMP	9	23	[0, 0, 0]	n/a	FR1	1	R1196N
2612.991	1.617	3039291	WORD	n/a	wordpools/wordpool_EN.txt	CAR	10	23	[0, 0, 0]	n/a	FR1	1	R1196N
2614.608	0.85	3040908	WORD_OFF	n/a	n/a	CAR	10	23	[0, 0, 0]	n/a	FR1	1	R1196N
2615.458	1.616	3041758	WORD	n/a	wordpools/wordpool_EN.txt	OAK	11	23	[0, 0, 0]	n/a	FR1	1	R1196N
2617.074	0.851	3043374	WORD_OFF	n/a	n/a	OAK	11	23	[0, 0, 0]	n/a	FR1	1	R1196N
2617.925	1.617	3044225	WORD	n/a	wordpools/wordpool_EN.txt	CAGE	12	23	[0, 0, 0]	n/a	FR1	1	R1196N
2619.542	0.0	3045842	WORD_OFF	n/a	n/a	CAGE	12	23	[0, 0, 0]	n/a	FR1	1	R1196N
2619.542	0.0	3045842	DISTRACT_START	n/a	n/a	n/a	-999	23	[0, 0, 0]	n/a	FR1	1	R1196N
2619.542	0.016	3045842	START	n/a	n/a	n/a	-999	23	[-999, -999, -999]	n/a	FR1	1	R1196N
2619.558	5.65	3045858	PROB	5.65	n/a	n/a	-999	23	[1, 9, 9]	19	FR1	1	R1196N
2625.208	5.268	3051508	PROB	5.268	n/a	n/a	-999	23	[1, 3, 6]	10	FR1	1	R1196N
2630.476	8.517	3056776	PROB	8.517	n/a	n/a	-999	23	[7, 4, 2]	13	FR1	1	R1196N
2638.993	5.616	3065293	PROB	5.616	n/a	n/a	-999	23	[5, 8, 6]	19	FR1	1	R1196N
2644.609	0.019	3070909	STOP	n/a	n/a	n/a	-999	23	[-999, -999, -999]	n/a	FR1	1	R1196N
2644.628	0.583	3070928	DISTRACT_END	n/a	n/a	n/a	-999	23	[0, 0, 0]	n/a	FR1	1	R1196N
2645.211	0.502	3071510	RETRIEVAL_ORIENT	n/a	n/a	n/a	-999	23	[0, 0, 0]	n/a	FR1	1	R1196N
2645.713	7.753	3072012	REC_START	n/a	n/a	n/a	-999	23	[0, 0, 0]	n/a	FR1	1	R1196N
2653.466	0.485	3079765	REC_WORD_VV	0.485	n/a	<>	-999	23	[0, 0, 0]	n/a	FR1	1	R1196N
2653.951	3.237	3080250	REC_WORD	3.237	n/a	OAT	-999	23	[0, 0, 0]	n/a	FR1	1	R1196N
2657.188	18.534	3083487	REC_WORD	18.534	n/a	SHEEP	-999	23	[0, 0, 0]	n/a	FR1	1	R1196N
2675.722	5.678	3102021	REC_END	n/a	n/a	n/a	-999	23	[0, 0, 0]	n/a	FR1	1	R1196N
2681.4	0.5	3107699	TRIAL	n/a	n/a	n/a	-999	24	[0, 0, 0]	n/a	FR1	1	R1196N
2681.9	10.428	3108199	COUNTDOWN_START	n/a	n/a	n/a	-999	24	[0, 0, 0]	n/a	FR1	1	R1196N
2692.328	0.006	3118627	COUNTDOWN_END	n/a	n/a	n/a	-999	24	[0, 0, 0]	n/a	FR1	1	R1196N
2692.334	1.618	3118633	ORIENT	n/a	n/a	n/a	-999	24	[0, 0, 0]	n/a	FR1	1	R1196N
2693.952	2.316	3120251	ORIENT_OFF	n/a	n/a	n/a	-999	24	[0, 0, 0]	n/a	FR1	1	R1196N
2696.268	1.618	3122567	WORD	n/a	wordpools/wordpool_EN.txt	CUP	1	24	[0, 0, 0]	n/a	FR1	1	R1196N
2697.886	0.883	3124185	WORD_OFF	n/a	n/a	CUP	1	24	[0, 0, 0]	n/a	FR1	1	R1196N
2698.769	1.616	3125068	WORD	n/a	wordpools/wordpool_EN.txt	JUICE	2	24	[0, 0, 0]	n/a	FR1	1	R1196N
2700.385	0.95	3126684	WORD_OFF	n/a	n/a	JUICE	2	24	[0, 0, 0]	n/a	FR1	1	R1196N
2701.335	1.601	3127634	WORD	n/a	wordpools/wordpool_EN.txt	DEER	3	24	[0, 0, 0]	n/a	FR1	1	R1196N
2702.936	0.984	3129235	WORD_OFF	n/a	n/a	DEER	3	24	[0, 0, 0]	n/a	FR1	1	R1196N
2703.92	1.617	3130219	WORD	n/a	wordpools/wordpool_EN.txt	GATE	4	24	[0, 0, 0]	n/a	FR1	1	R1196N
2705.537	1.0	3131836	WORD_OFF	n/a	n/a	GATE	4	24	[0, 0, 0]	n/a	FR1	1	R1196N
2706.537	1.616	3132836	WORD	n/a	wordpools/wordpool_EN.txt	MILK	5	24	[0, 0, 0]	n/a	FR1	1	R1196N
2708.153	0.967	3134452	WORD_OFF	n/a	n/a	MILK	5	24	[0, 0, 0]	n/a	FR1	1	R1196N
2709.12	1.618	3135419	WORD	n/a	wordpools/wordpool_EN.txt	SPARK	6	24	[0, 0, 0]	n/a	FR1	1	R1196N
2710.738	0.85	3137037	WORD_OFF	n/a	n/a	SPARK	6	24	[0, 0, 0]	n/a	FR1	1	R1196N
2711.588	1.616	3137887	WORD	n/a	wordpools/wordpool_EN.txt	TENT	7	24	[0, 0, 0]	n/a	FR1	1	R1196N
2713.204	0.95	3139503	WORD_OFF	n/a	n/a	TENT	7	24	[0, 0, 0]	n/a	FR1	1	R1196N
2714.154	1.618	3140453	WORD	n/a	wordpools/wordpool_EN.txt	PASTE	8	24	[0, 0, 0]	n/a	FR1	1	R1196N
2715.772	0.883	3142071	WORD_OFF	n/a	n/a	PASTE	8	24	[0, 0, 0]	n/a	FR1	1	R1196N
2716.655	1.616	3142954	WORD	n/a	wordpools/wordpool_EN.txt	VEST	9	24	[0, 0, 0]	n/a	FR1	1	R1196N
2718.271	0.767	3144570	WORD_OFF	n/a	n/a	VEST	9	24	[0, 0, 0]	n/a	FR1	1	R1196N
2719.038	1.618	3145337	WORD	n/a	wordpools/wordpool_EN.txt	HOSE	10	24	[0, 0, 0]	n/a	FR1	1	R1196N
2720.656	0.883	3146955	WORD_OFF	n/a	n/a	HOSE	10	24	[0, 0, 0]	n/a	FR1	1	R1196N
2721.539	1.616	3147838	WORD	n/a	wordpools/wordpool_EN.txt	HOOF	11	24	[0, 0, 0]	n/a	FR1	1	R1196N
2723.155	0.85	3149454	WORD_OFF	n/a	n/a	HOOF	11	24	[0, 0, 0]	n/a	FR1	1	R1196N
2724.005	1.618	3150304	WORD	n/a	wordpools/wordpool_EN.txt	THUMB	12	24	[0, 0, 0]	n/a	FR1	1	R1196N
2725.623	0.0	3151922	WORD_OFF	n/a	n/a	THUMB	12	24	[0, 0, 0]	n/a	FR1	1	R1196N
2725.623	0.0	3151922	DISTRACT_START	n/a	n/a	n/a	-999	24	[0, 0, 0]	n/a	FR1	1	R1196N
2725.623	0.017	3151922	START	n/a	n/a	n/a	-999	24	[-999, -999, -999]	n/a	FR1	1	R1196N
2725.64	5.633	3151939	PROB	5.633	n/a	n/a	-999	24	[2, 2, 2]	6	FR1	1	R1196N
2731.273	5.601	3157571	PROB	5.601	n/a	n/a	-999	24	[9, 3, 6]	18	FR1	1	R1196N
2736.874	4.568	3163172	PROB	4.568	n/a	n/a	-999	24	[8, 9, 8]	25	FR1	1	R1196N
2741.442	7.603	3167740	PROB	7.603	n/a	n/a	-999	24	[7, 5, 4]	16	FR1	1	R1196N
2749.045	0.014	3175343	STOP	n/a	n/a	n/a	-999	24	[-999, -999, -999]	n/a	FR1	1	R1196N
2749.059	0.534	3175357	DISTRACT_END	n/a	n/a	n/a	-999	24	[0, 0, 0]	n/a	FR1	1	R1196N
2749.593	0.516	3175891	RETRIEVAL_ORIENT	n/a	n/a	n/a	-999	24	[0, 0, 0]	n/a	FR1	1	R1196N
2750.109	1.31	3176407	REC_START	n/a	n/a	n/a	-999	24	[0, 0, 0]	n/a	FR1	1	R1196N
2751.419	0.995	3177717	REC_WORD	0.995	n/a	SPARK	6	24	[0, 0, 0]	n/a	FR1	1	R1196N
2752.414	0.992	3178712	REC_WORD	0.992	n/a	TENT	7	24	[0, 0, 0]	n/a	FR1	1	R1196N
2753.406	0.851	3179704	REC_WORD	0.851	n/a	VEST	9	24	[0, 0, 0]	n/a	FR1	1	R1196N
2754.257	1.775	3180555	REC_WORD	1.775	n/a	PASTE	8	24	[0, 0, 0]	n/a	FR1	1	R1196N
2756.032	1.514	3182330	REC_WORD	1.514	n/a	HOSE	10	24	[0, 0, 0]	n/a	FR1	1	R1196N
2757.546	3.131	3183844	REC_WORD	3.131	n/a	DEER	3	24	[0, 0, 0]	n/a	FR1	1	R1196N
2760.677	0.547	3186975	REC_WORD	0.547	n/a	CUP	1	24	[0, 0, 0]	n/a	FR1	1	R1196N
2761.224	2.256	3187522	REC_WORD	2.256	n/a	JUICE	2	24	[0, 0, 0]	n/a	FR1	1	R1196N
2763.48	2.357	3189778	REC_WORD	2.357	n/a	GATE	4	24	[0, 0, 0]	n/a	FR1	1	R1196N
2765.837	14.282	3192135	REC_WORD	14.282	n/a	MILK	5	24	[0, 0, 0]	n/a	FR1	1	R1196N
2780.119	4.645	3206417	REC_END	n/a	n/a	n/a	-999	24	[0, 0, 0]	n/a	FR1	1	R1196N
2784.764	0.5	3211062	TRIAL	n/a	n/a	n/a	-999	25	[0, 0, 0]	n/a	FR1	1	R1196N
2785.264	10.428	3211562	COUNTDOWN_START	n/a	n/a	n/a	-999	25	[0, 0, 0]	n/a	FR1	1	R1196N
2795.692	0.007	3221990	COUNTDOWN_END	n/a	n/a	n/a	-999	25	[0, 0, 0]	n/a	FR1	1	R1196N
2795.699	1.616	3221997	ORIENT	n/a	n/a	n/a	-999	25	[0, 0, 0]	n/a	FR1	1	R1196N
2797.315	2.0	3223613	ORIENT_OFF	n/a	n/a	n/a	-999	25	[0, 0, 0]	n/a	FR1	1	R1196N
2799.315	1.618	3225613	WORD	n/a	wordpools/wordpool_EN.txt	FOX	1	25	[0, 0, 0]	n/a	FR1	1	R1196N
2800.933	0.834	3227231	WORD_OFF	n/a	n/a	FOX	1	25	[0, 0, 0]	n/a	FR1	1	R1196N
2801.767	1.616	3228065	WORD	n/a	wordpools/wordpool_EN.txt	CALF	2	25	[0, 0, 0]	n/a	FR1	1	R1196N
2803.383	0.766	3229681	WORD_OFF	n/a	n/a	CALF	2	25	[0, 0, 0]	n/a	FR1	1	R1196N
2804.149	1.618	3230447	WORD	n/a	wordpools/wordpool_EN.txt	BOX	3	25	[0, 0, 0]	n/a	FR1	1	R1196N
2805.767	0.834	3232065	WORD_OFF	n/a	n/a	BOX	3	25	[0, 0, 0]	n/a	FR1	1	R1196N
2806.601	1.616	3232899	WORD	n/a	wordpools/wordpool_EN.txt	ROPE	4	25	[0, 0, 0]	n/a	FR1	1	R1196N
2808.217	0.783	3234515	WORD_OFF	n/a	n/a	ROPE	4	25	[0, 0, 0]	n/a	FR1	1	R1196N
2809.0	1.601	3235298	WORD	n/a	wordpools/wordpool_EN.txt	CHEEK	5	25	[0, 0, 0]	n/a	FR1	1	R1196N
2810.601	0.967	3236898	WORD_OFF	n/a	n/a	CHEEK	5	25	[0, 0, 0]	n/a	FR1	1	R1196N
2811.568	1.616	3237865	WORD	n/a	wordpools/wordpool_EN.txt	PANTS	6	25	[0, 0, 0]	n/a	FR1	1	R1196N
2813.184	0.9	3239481	WORD_OFF	n/a	n/a	PANTS	6	25	[0, 0, 0]	n/a	FR1	1	R1196N
2814.084	1.618	3240381	WORD	n/a	wordpools/wordpool_EN.txt	PEACH	7	25	[0, 0, 0]	n/a	FR1	1	R1196N
2815.702	0.95	3241999	WORD_OFF	n/a	n/a	PEACH	7	25	[0, 0, 0]	n/a	FR1	1	R1196N
2816.652	1.616	3242949	WORD	n/a	wordpools/wordpool_EN.txt	COIN	8	25	[0, 0, 0]	n/a	FR1	1	R1196N
2818.268	0.883	3244565	WORD_OFF	n/a	n/a	COIN	8	25	[0, 0, 0]	n/a	FR1	1	R1196N
2819.151	1.601	3245448	WORD	n/a	wordpools/wordpool_EN.txt	NAIL	9	25	[0, 0, 0]	n/a	FR1	1	R1196N
2820.752	0.934	3247049	WORD_OFF	n/a	n/a	NAIL	9	25	[0, 0, 0]	n/a	FR1	1	R1196N
2821.686	1.616	3247983	WORD	n/a	wordpools/wordpool_EN.txt	SEED	10	25	[0, 0, 0]	n/a	FR1	1	R1196N
2823.302	0.85	3249599	WORD_OFF	n/a	n/a	SEED	10	25	[0, 0, 0]	n/a	FR1	1	R1196N
2824.152	1.601	3250449	WORD	n/a	wordpools/wordpool_EN.txt	DART	11	25	[0, 0, 0]	n/a	FR1	1	R1196N
2825.753	0.95	3252050	WORD_OFF	n/a	n/a	DART	11	25	[0, 0, 0]	n/a	FR1	1	R1196N
2826.703	1.616	3253000	WORD	n/a	wordpools/wordpool_EN.txt	SPEAR	12	25	[0, 0, 0]	n/a	FR1	1	R1196N
2828.319	0.0	3254616	WORD_OFF	n/a	n/a	SPEAR	12	25	[0, 0, 0]	n/a	FR1	1	R1196N
2828.319	0.001	3254616	DISTRACT_START	n/a	n/a	n/a	-999	25	[0, 0, 0]	n/a	FR1	1	R1196N
2828.32	0.016	3254617	START	n/a	n/a	n/a	-999	25	[-999, -999, -999]	n/a	FR1	1	R1196N
2828.336	7.818	3254633	PROB	7.818	n/a	n/a	-999	25	[9, 2, 7]	18	FR1	1	R1196N
2836.154	3.818	3262451	PROB	3.818	n/a	n/a	-999	25	[8, 2, 6]	16	FR1	1	R1196N
2839.972	2.667	3266269	PROB	2.667	n/a	n/a	-999	25	[2, 6, 1]	9	FR1	1	R1196N
2842.639	7.347	3268936	PROB	7.347	n/a	n/a	-999	25	[7, 6, 9]	22	FR1	1	R1196N
2849.986	0.02	3276283	STOP	n/a	n/a	n/a	-999	25	[-999, -999, -999]	n/a	FR1	1	R1196N
2850.006	0.651	3276303	DISTRACT_END	n/a	n/a	n/a	-999	25	[0, 0, 0]	n/a	FR1	1	R1196N
2850.657	0.516	3276954	RETRIEVAL_ORIENT	n/a	n/a	n/a	-999	25	[0, 0, 0]	n/a	FR1	1	R1196N
2851.173	0.894	3277470	REC_START	n/a	n/a	n/a	-999	25	[0, 0, 0]	n/a	FR1	1	R1196N
2852.067	0.692	3278364	REC_WORD	0.692	n/a	CALF	2	25	[0, 0, 0]	n/a	FR1	1	R1196N
2852.759	0.865	3279056	REC_WORD	0.865	n/a	FOX	1	25	[0, 0, 0]	n/a	FR1	1	R1196N
2853.624	1.097	3279921	REC_WORD	1.097	n/a	BOX	3	25	[0, 0, 0]	n/a	FR1	1	R1196N
2854.721	1.655	3281018	REC_WORD	1.655	n/a	ROPE	4	25	[0, 0, 0]	n/a	FR1	1	R1196N
2856.376	0.716	3282673	REC_WORD	0.716	n/a	SPEAR	12	25	[0, 0, 0]	n/a	FR1	1	R1196N
2857.092	0.773	3283389	REC_WORD	0.773	n/a	DART	11	25	[0, 0, 0]	n/a	FR1	1	R1196N
2857.865	2.05	3284162	REC_WORD	2.05	n/a	SEED	10	25	[0, 0, 0]	n/a	FR1	1	R1196N
2859.915	10.757	3286212	REC_WORD	10.757	n/a	NAIL	9	25	[0, 0, 0]	n/a	FR1	1	R1196N
2870.672	10.51	3296969	REC_WORD	10.51	n/a	ROPE	4	25	[0, 0, 0]	n/a	FR1	1	R1196N
2881.182	315.838	3307479	REC_END	n/a	n/a	n/a	-999	25	[0, 0, 0]	n/a	FR1	1	R1196N
3197.02	0.0	3623313	SESS_END	n/a	n/a	n/a	-999	25	[0, 0, 0]	n/a	FR1	1	R1196N
