onset	duration	sample	trial_type	response_time	stim_file	item_name	serialpos	list	test	answer	experiment	session	subject
0.0	207.805	448	INSTRUCT_START	n/a	n/a	n/a	-999	-999	[0, 0, 0]	n/a	FR1	2	R1302M
207.805	5.135	208244	INSTRUCT_END	n/a	n/a	n/a	-999	-999	[0, 0, 0]	n/a	FR1	2	R1302M
212.94	14.885	213379	MIC TEST_START	n/a	n/a	n/a	-999	-999	[0, 0, 0]	n/a	FR1	2	R1302M
227.825	0.011	228263	MIC TEST_END	n/a	n/a	n/a	-999	-999	[0, 0, 0]	n/a	FR1	2	R1302M
227.836	0.001	228274	TRIAL_START	n/a	n/a	n/a	-999	-1	[0, 0, 0]	n/a	FR1	2	R1302M
227.837	0.0	228275	TRIAL	n/a	n/a	n/a	-999	-1	[0, 0, 0]	n/a	FR1	2	R1302M
227.837	4.039	228275	WAITING_START	n/a	n/a	n/a	-999	-1	[0, 0, 0]	n/a	FR1	2	R1302M
231.876	0.001	232314	WAITING_END	n/a	n/a	n/a	-999	-1	[0, 0, 0]	n/a	FR1	2	R1302M
231.877	10.429	232315	COUNTDOWN_START	n/a	n/a	n/a	-999	-1	[0, 0, 0]	n/a	FR1	2	R1302M
242.306	0.001	242743	COUNTDOWN_END	n/a	n/a	n/a	-999	-1	[0, 0, 0]	n/a	FR1	2	R1302M
242.307	1.056	242744	ORIENT_START	n/a	n/a	n/a	-999	-1	[0, 0, 0]	n/a	FR1	2	R1302M
243.363	0.001	243800	ORIENT_END	n/a	n/a	n/a	-999	-1	[0, 0, 0]	n/a	FR1	2	R1302M
243.364	1.05	243801	ENCODING_START	n/a	n/a	n/a	-999	-1	[0, 0, 0]	n/a	FR1	2	R1302M
244.414	1.632	244851	WORD	n/a	n/a	ATTIC	1	-1	[0, 0, 0]	n/a	FR1	2	R1302M
246.046	0.867	246483	WORD_OFF	n/a	n/a	ATTIC	1	-1	[0, 0, 0]	n/a	FR1	2	R1302M
246.913	1.633	247350	WORD	n/a	n/a	BEAM	2	-1	[0, 0, 0]	n/a	FR1	2	R1302M
248.546	0.899	248983	WORD_OFF	n/a	n/a	BEAM	2	-1	[0, 0, 0]	n/a	FR1	2	R1302M
249.445	1.635	249882	WORD	n/a	n/a	CAMEL	3	-1	[0, 0, 0]	n/a	FR1	2	R1302M
251.08	0.858	251517	WORD_OFF	n/a	n/a	CAMEL	3	-1	[0, 0, 0]	n/a	FR1	2	R1302M
251.938	1.626	252375	WORD	n/a	n/a	CHEST	4	-1	[0, 0, 0]	n/a	FR1	2	R1302M
253.564	0.978	254001	WORD_OFF	n/a	n/a	CHEST	4	-1	[0, 0, 0]	n/a	FR1	2	R1302M
254.542	1.622	254979	WORD	n/a	n/a	COTTON	5	-1	[0, 0, 0]	n/a	FR1	2	R1302M
256.164	0.865	256601	WORD_OFF	n/a	n/a	COTTON	5	-1	[0, 0, 0]	n/a	FR1	2	R1302M
257.029	1.636	257466	WORD	n/a	n/a	FLOOD	6	-1	[0, 0, 0]	n/a	FR1	2	R1302M
258.665	0.962	259102	WORD_OFF	n/a	n/a	FLOOD	6	-1	[0, 0, 0]	n/a	FR1	2	R1302M
259.627	1.623	260064	WORD	n/a	n/a	IRON	7	-1	[0, 0, 0]	n/a	FR1	2	R1302M
261.25	0.863	261687	WORD_OFF	n/a	n/a	IRON	7	-1	[0, 0, 0]	n/a	FR1	2	R1302M
262.113	1.636	262549	WORD	n/a	n/a	RHINO	8	-1	[0, 0, 0]	n/a	FR1	2	R1302M
263.749	0.96	264185	WORD_OFF	n/a	n/a	RHINO	8	-1	[0, 0, 0]	n/a	FR1	2	R1302M
264.709	1.625	265145	WORD	n/a	n/a	RING	9	-1	[0, 0, 0]	n/a	FR1	2	R1302M
266.334	1.079	266770	WORD_OFF	n/a	n/a	RING	9	-1	[0, 0, 0]	n/a	FR1	2	R1302M
267.413	1.637	267849	WORD	n/a	n/a	TONGUE	10	-1	[0, 0, 0]	n/a	FR1	2	R1302M
269.05	0.869	269486	WORD_OFF	n/a	n/a	TONGUE	10	-1	[0, 0, 0]	n/a	FR1	2	R1302M
269.919	1.632	270355	WORD	n/a	n/a	WAGON	11	-1	[0, 0, 0]	n/a	FR1	2	R1302M
271.551	1.046	271987	WORD_OFF	n/a	n/a	WAGON	11	-1	[0, 0, 0]	n/a	FR1	2	R1302M
272.597	1.639	273033	WORD	n/a	n/a	WATCH	12	-1	[0, 0, 0]	n/a	FR1	2	R1302M
274.236	0.0	274672	WORD_OFF	n/a	n/a	WATCH	12	-1	[0, 0, 0]	n/a	FR1	2	R1302M
274.236	0.001	274672	ENCODING_END	n/a	n/a	n/a	-999	-1	[0, 0, 0]	n/a	FR1	2	R1302M
274.237	0.0	274673	DISTRACT_START	n/a	n/a	n/a	-999	-1	[0, 0, 0]	n/a	FR1	2	R1302M
274.237	0.015	274673	START	n/a	n/a	n/a	-999	-1	[-999, -999, -999]	n/a	FR1	2	R1302M
274.252	5.417	274688	PROB	5.417	n/a	n/a	-999	-1	[3, 5, 1]	9	FR1	2	R1302M
279.669	12.285	280105	PROB	12.285	n/a	n/a	-999	-1	[4, 2, 1]	7	FR1	2	R1302M
291.954	4.167	292389	PROB	4.167	n/a	n/a	-999	-1	[6, 1, 6]	13	FR1	2	R1302M
296.121	0.018	296556	STOP	n/a	n/a	n/a	-999	-1	[-999, -999, -999]	n/a	FR1	2	R1302M
296.139	0.532	296574	DISTRACT_END	n/a	n/a	n/a	-999	-1	[0, 0, 0]	n/a	FR1	2	R1302M
296.671	1.553	297106	RETRIEVAL_ORIENT_START	n/a	n/a	n/a	-999	-1	[0, 0, 0]	n/a	FR1	2	R1302M
298.224	0.001	298659	RETRIEVAL_ORIENT_END	n/a	n/a	n/a	-999	-1	[0, 0, 0]	n/a	FR1	2	R1302M
298.225	1.235	298660	REC_START	n/a	n/a	n/a	-999	-1	[0, 0, 0]	n/a	FR1	2	R1302M
299.46	0.681	299895	REC_WORD	0.681	n/a	ATTIC	-999	-1	[0, 0, 0]	n/a	FR1	2	R1302M
300.141	1.284	300576	REC_WORD	1.284	n/a	BEAM	-999	-1	[0, 0, 0]	n/a	FR1	2	R1302M
301.425	0.863	301860	REC_WORD	0.863	n/a	COTTON	-999	-1	[0, 0, 0]	n/a	FR1	2	R1302M
302.288	1.68	302723	REC_WORD	1.68	n/a	TONGUE	-999	-1	[0, 0, 0]	n/a	FR1	2	R1302M
303.968	24.267	304403	REC_WORD	24.267	n/a	RHINO	-999	-1	[0, 0, 0]	n/a	FR1	2	R1302M
328.235	0.001	328668	REC_END	n/a	n/a	n/a	-999	-1	[0, 0, 0]	n/a	FR1	2	R1302M
328.236	3.161	328669	PRACTICE_POST_INSTRUCT_START	n/a	n/a	n/a	-999	-1	[0, 0, 0]	n/a	FR1	2	R1302M
331.397	0.001	331830	PRACTICE_POST_INSTRUCT_END	n/a	n/a	n/a	-999	-1	[0, 0, 0]	n/a	FR1	2	R1302M
331.398	0.016	331831	TRIAL_END	n/a	n/a	n/a	-999	-1	[0, 0, 0]	n/a	FR1	2	R1302M
331.414	0.0	331847	TRIAL_START	n/a	n/a	n/a	-999	1	[0, 0, 0]	n/a	FR1	2	R1302M
331.414	0.001	331847	TRIAL	n/a	n/a	n/a	-999	1	[0, 0, 0]	n/a	FR1	2	R1302M
331.415	2.049	331848	WAITING_START	n/a	n/a	n/a	-999	1	[0, 0, 0]	n/a	FR1	2	R1302M
333.464	0.0	333897	COUNTDOWN_START	n/a	n/a	n/a	-999	1	[0, 0, 0]	n/a	FR1	2	R1302M
333.464	10.431	333897	WAITING_END	n/a	n/a	n/a	-999	1	[0, 0, 0]	n/a	FR1	2	R1302M
343.895	0.001	344328	COUNTDOWN_END	n/a	n/a	n/a	-999	1	[0, 0, 0]	n/a	FR1	2	R1302M
343.896	1.152	344329	ORIENT_START	n/a	n/a	n/a	-999	1	[0, 0, 0]	n/a	FR1	2	R1302M
345.048	0.001	345481	ORIENT_END	n/a	n/a	n/a	-999	1	[0, 0, 0]	n/a	FR1	2	R1302M
345.049	0.961	345482	ENCODING_START	n/a	n/a	n/a	-999	1	[0, 0, 0]	n/a	FR1	2	R1302M
346.01	1.622	346443	WORD	n/a	n/a	TEETH	1	1	[0, 0, 0]	n/a	FR1	2	R1302M
347.632	1.095	348065	WORD_OFF	n/a	n/a	TEETH	1	1	[0, 0, 0]	n/a	FR1	2	R1302M
348.727	1.606	349160	WORD	n/a	n/a	FROG	2	1	[0, 0, 0]	n/a	FR1	2	R1302M
350.333	1.05	350765	WORD_OFF	n/a	n/a	FROG	2	1	[0, 0, 0]	n/a	FR1	2	R1302M
351.383	1.633	351815	WORD	n/a	n/a	BRANCH	3	1	[0, 0, 0]	n/a	FR1	2	R1302M
353.016	0.79	353448	WORD_OFF	n/a	n/a	BRANCH	3	1	[0, 0, 0]	n/a	FR1	2	R1302M
353.806	1.628	354238	WORD	n/a	n/a	SWAMP	4	1	[0, 0, 0]	n/a	FR1	2	R1302M
355.434	0.963	355866	WORD_OFF	n/a	n/a	SWAMP	4	1	[0, 0, 0]	n/a	FR1	2	R1302M
356.397	1.62	356829	WORD	n/a	n/a	BEAK	5	1	[0, 0, 0]	n/a	FR1	2	R1302M
358.017	1.059	358449	WORD_OFF	n/a	n/a	BEAK	5	1	[0, 0, 0]	n/a	FR1	2	R1302M
359.076	1.625	359508	WORD	n/a	n/a	TOAST	6	1	[0, 0, 0]	n/a	FR1	2	R1302M
360.701	1.101	361133	WORD_OFF	n/a	n/a	TOAST	6	1	[0, 0, 0]	n/a	FR1	2	R1302M
361.802	1.634	362234	WORD	n/a	n/a	CORN	7	1	[0, 0, 0]	n/a	FR1	2	R1302M
363.436	1.047	363868	WORD_OFF	n/a	n/a	CORN	7	1	[0, 0, 0]	n/a	FR1	2	R1302M
364.483	1.636	364915	WORD	n/a	n/a	TAIL	8	1	[0, 0, 0]	n/a	FR1	2	R1302M
366.119	1.034	366551	WORD_OFF	n/a	n/a	TAIL	8	1	[0, 0, 0]	n/a	FR1	2	R1302M
367.153	1.633	367585	WORD	n/a	n/a	WOOD	9	1	[0, 0, 0]	n/a	FR1	2	R1302M
368.786	1.149	369218	WORD_OFF	n/a	n/a	WOOD	9	1	[0, 0, 0]	n/a	FR1	2	R1302M
369.935	1.635	370367	WORD	n/a	n/a	THUMB	10	1	[0, 0, 0]	n/a	FR1	2	R1302M
371.57	0.82	372001	WORD_OFF	n/a	n/a	THUMB	10	1	[0, 0, 0]	n/a	FR1	2	R1302M
372.39	1.63	372821	WORD	n/a	n/a	JEEP	11	1	[0, 0, 0]	n/a	FR1	2	R1302M
374.02	1.047	374451	WORD_OFF	n/a	n/a	JEEP	11	1	[0, 0, 0]	n/a	FR1	2	R1302M
375.067	1.637	375498	WORD	n/a	n/a	POND	12	1	[0, 0, 0]	n/a	FR1	2	R1302M
376.704	0.001	377135	WORD_OFF	n/a	n/a	POND	12	1	[0, 0, 0]	n/a	FR1	2	R1302M
376.705	0.001	377136	ENCODING_END	n/a	n/a	n/a	-999	1	[0, 0, 0]	n/a	FR1	2	R1302M
376.706	0.001	377137	DISTRACT_START	n/a	n/a	n/a	-999	1	[0, 0, 0]	n/a	FR1	2	R1302M
376.707	0.014	377138	START	n/a	n/a	n/a	-999	1	[-999, -999, -999]	n/a	FR1	2	R1302M
376.721	4.15	377152	PROB	4.15	n/a	n/a	-999	1	[2, 2, 5]	9	FR1	2	R1302M
380.871	4.536	381302	PROB	4.536	n/a	n/a	-999	1	[9, 7, 9]	15	FR1	2	R1302M
385.407	3.566	385838	PROB	3.566	n/a	n/a	-999	1	[5, 1, 6]	12	FR1	2	R1302M
388.973	3.884	389404	PROB	3.884	n/a	n/a	-999	1	[9, 7, 2]	18	FR1	2	R1302M
392.857	2.967	393287	PROB	2.967	n/a	n/a	-999	1	[5, 6, 1]	12	FR1	2	R1302M
395.824	3.412	396254	PROB	3.412	n/a	n/a	-999	1	[4, 6, 2]	12	FR1	2	R1302M
399.236	0.007	399666	STOP	n/a	n/a	n/a	-999	1	[-999, -999, -999]	n/a	FR1	2	R1302M
399.243	0.554	399673	DISTRACT_END	n/a	n/a	n/a	-999	1	[0, 0, 0]	n/a	FR1	2	R1302M
399.797	1.613	400227	RETRIEVAL_ORIENT_START	n/a	n/a	n/a	-999	1	[0, 0, 0]	n/a	FR1	2	R1302M
401.41	0.001	401840	RETRIEVAL_ORIENT_END	n/a	n/a	n/a	-999	1	[0, 0, 0]	n/a	FR1	2	R1302M
401.411	14.718	401841	REC_START	n/a	n/a	n/a	-999	1	[0, 0, 0]	n/a	FR1	2	R1302M
416.129	0.805	416558	REC_WORD_VV	0.805	n/a	<>	-999	1	[0, 0, 0]	n/a	FR1	2	R1302M
416.934	0.653	417363	REC_WORD_VV	0.653	n/a	<>	-999	1	[0, 0, 0]	n/a	FR1	2	R1302M
417.587	0.437	418016	REC_WORD_VV	0.437	n/a	<>	-999	1	[0, 0, 0]	n/a	FR1	2	R1302M
418.024	1.684	418453	REC_WORD_VV	1.684	n/a	<>	-999	1	[0, 0, 0]	n/a	FR1	2	R1302M
419.708	2.597	420137	REC_WORD	2.597	n/a	TONGUE	-999	1	[0, 0, 0]	n/a	FR1	2	R1302M
422.305	9.119	422734	REC_WORD	9.119	n/a	JEEP	11	1	[0, 0, 0]	n/a	FR1	2	R1302M
431.424	0.001	431853	REC_END	n/a	n/a	n/a	-999	1	[0, 0, 0]	n/a	FR1	2	R1302M
431.425	0.016	431854	TRIAL_END	n/a	n/a	n/a	-999	1	[0, 0, 0]	n/a	FR1	2	R1302M
431.441	0.001	431870	TRIAL_START	n/a	n/a	n/a	-999	2	[0, 0, 0]	n/a	FR1	2	R1302M
431.442	0.0	431871	TRIAL	n/a	n/a	n/a	-999	2	[0, 0, 0]	n/a	FR1	2	R1302M
431.442	4.025	431871	WAITING_START	n/a	n/a	n/a	-999	2	[0, 0, 0]	n/a	FR1	2	R1302M
435.467	0.001	435896	WAITING_END	n/a	n/a	n/a	-999	2	[0, 0, 0]	n/a	FR1	2	R1302M
435.468	10.428	435897	COUNTDOWN_START	n/a	n/a	n/a	-999	2	[0, 0, 0]	n/a	FR1	2	R1302M
445.896	0.001	446324	COUNTDOWN_END	n/a	n/a	n/a	-999	2	[0, 0, 0]	n/a	FR1	2	R1302M
445.897	1.071	446325	ORIENT_START	n/a	n/a	n/a	-999	2	[0, 0, 0]	n/a	FR1	2	R1302M
446.968	0.001	447396	ORIENT_END	n/a	n/a	n/a	-999	2	[0, 0, 0]	n/a	FR1	2	R1302M
446.969	1.001	447397	ENCODING_START	n/a	n/a	n/a	-999	2	[0, 0, 0]	n/a	FR1	2	R1302M
447.97	1.632	448398	WORD	n/a	n/a	BEAR	1	2	[0, 0, 0]	n/a	FR1	2	R1302M
449.602	0.762	450030	WORD_OFF	n/a	n/a	BEAR	1	2	[0, 0, 0]	n/a	FR1	2	R1302M
450.364	1.621	450792	WORD	n/a	n/a	CLOCK	2	2	[0, 0, 0]	n/a	FR1	2	R1302M
451.985	1.103	452413	WORD_OFF	n/a	n/a	CLOCK	2	2	[0, 0, 0]	n/a	FR1	2	R1302M
453.088	1.631	453516	WORD	n/a	n/a	CHIEF	3	2	[0, 0, 0]	n/a	FR1	2	R1302M
454.719	0.878	455147	WORD_OFF	n/a	n/a	CHIEF	3	2	[0, 0, 0]	n/a	FR1	2	R1302M
455.597	1.624	456025	WORD	n/a	n/a	FLAME	4	2	[0, 0, 0]	n/a	FR1	2	R1302M
457.221	0.885	457649	WORD_OFF	n/a	n/a	FLAME	4	2	[0, 0, 0]	n/a	FR1	2	R1302M
458.106	1.631	458534	WORD	n/a	n/a	SNAKE	5	2	[0, 0, 0]	n/a	FR1	2	R1302M
459.737	0.781	460164	WORD_OFF	n/a	n/a	SNAKE	5	2	[0, 0, 0]	n/a	FR1	2	R1302M
460.518	1.637	460945	WORD	n/a	n/a	LAND	6	2	[0, 0, 0]	n/a	FR1	2	R1302M
462.155	0.895	462582	WORD_OFF	n/a	n/a	LAND	6	2	[0, 0, 0]	n/a	FR1	2	R1302M
463.05	1.638	463477	WORD	n/a	n/a	STAIR	7	2	[0, 0, 0]	n/a	FR1	2	R1302M
464.688	0.768	465115	WORD_OFF	n/a	n/a	STAIR	7	2	[0, 0, 0]	n/a	FR1	2	R1302M
465.456	1.632	465883	WORD	n/a	n/a	FOG	8	2	[0, 0, 0]	n/a	FR1	2	R1302M
467.088	0.772	467515	WORD_OFF	n/a	n/a	FOG	8	2	[0, 0, 0]	n/a	FR1	2	R1302M
467.86	1.63	468287	WORD	n/a	n/a	BROOM	9	2	[0, 0, 0]	n/a	FR1	2	R1302M
469.49	0.89	469917	WORD_OFF	n/a	n/a	BROOM	9	2	[0, 0, 0]	n/a	FR1	2	R1302M
470.38	1.626	470807	WORD	n/a	n/a	ANT	10	2	[0, 0, 0]	n/a	FR1	2	R1302M
472.006	0.809	472433	WORD_OFF	n/a	n/a	ANT	10	2	[0, 0, 0]	n/a	FR1	2	R1302M
472.815	1.626	473242	WORD	n/a	n/a	SLEEVE	11	2	[0, 0, 0]	n/a	FR1	2	R1302M
474.441	0.944	474868	WORD_OFF	n/a	n/a	SLEEVE	11	2	[0, 0, 0]	n/a	FR1	2	R1302M
475.385	1.622	475812	WORD	n/a	n/a	CAVE	12	2	[0, 0, 0]	n/a	FR1	2	R1302M
477.007	0.001	477434	WORD_OFF	n/a	n/a	CAVE	12	2	[0, 0, 0]	n/a	FR1	2	R1302M
477.008	0.001	477435	ENCODING_END	n/a	n/a	n/a	-999	2	[0, 0, 0]	n/a	FR1	2	R1302M
477.009	0.0	477436	DISTRACT_START	n/a	n/a	n/a	-999	2	[0, 0, 0]	n/a	FR1	2	R1302M
477.009	0.014	477436	START	n/a	n/a	n/a	-999	2	[-999, -999, -999]	n/a	FR1	2	R1302M
477.023	5.568	477450	PROB	5.568	n/a	n/a	-999	2	[8, 3, 7]	18	FR1	2	R1302M
482.591	6.185	483017	PROB	6.185	n/a	n/a	-999	2	[8, 6, 1]	15	FR1	2	R1302M
488.776	4.3	489202	PROB	4.3	n/a	n/a	-999	2	[9, 9, 5]	24	FR1	2	R1302M
493.076	3.601	493502	PROB	3.601	n/a	n/a	-999	2	[6, 2, 3]	11	FR1	2	R1302M
496.677	3.712	497103	PROB	3.712	n/a	n/a	-999	2	[6, 1, 2]	9	FR1	2	R1302M
500.389	0.007	500815	STOP	n/a	n/a	n/a	-999	2	[-999, -999, -999]	n/a	FR1	2	R1302M
500.396	0.597	500822	DISTRACT_END	n/a	n/a	n/a	-999	2	[0, 0, 0]	n/a	FR1	2	R1302M
500.993	1.702	501419	RETRIEVAL_ORIENT_START	n/a	n/a	n/a	-999	2	[0, 0, 0]	n/a	FR1	2	R1302M
502.695	0.001	503120	RETRIEVAL_ORIENT_END	n/a	n/a	n/a	-999	2	[0, 0, 0]	n/a	FR1	2	R1302M
502.696	6.181	503121	REC_START	n/a	n/a	n/a	-999	2	[0, 0, 0]	n/a	FR1	2	R1302M
508.877	23.83	509302	REC_WORD	23.83	n/a	COTTON	-999	2	[0, 0, 0]	n/a	FR1	2	R1302M
532.707	0.001	533131	REC_END	n/a	n/a	n/a	-999	2	[0, 0, 0]	n/a	FR1	2	R1302M
532.708	0.015	533132	TRIAL_END	n/a	n/a	n/a	-999	2	[0, 0, 0]	n/a	FR1	2	R1302M
532.723	0.0	533147	TRIAL	n/a	n/a	n/a	-999	3	[0, 0, 0]	n/a	FR1	2	R1302M
532.723	0.001	533147	TRIAL_START	n/a	n/a	n/a	-999	3	[0, 0, 0]	n/a	FR1	2	R1302M
532.724	56.821	533148	WAITING_START	n/a	n/a	n/a	-999	3	[0, 0, 0]	n/a	FR1	2	R1302M
589.545	0.001	589966	WAITING_END	n/a	n/a	n/a	-999	3	[0, 0, 0]	n/a	FR1	2	R1302M
589.546	10.429	589967	COUNTDOWN_START	n/a	n/a	n/a	-999	3	[0, 0, 0]	n/a	FR1	2	R1302M
599.975	0.001	600396	COUNTDOWN_END	n/a	n/a	n/a	-999	3	[0, 0, 0]	n/a	FR1	2	R1302M
599.976	1.256	600397	ORIENT_START	n/a	n/a	n/a	-999	3	[0, 0, 0]	n/a	FR1	2	R1302M
601.232	0.0	601653	ORIENT_END	n/a	n/a	n/a	-999	3	[0, 0, 0]	n/a	FR1	2	R1302M
601.232	0.844	601653	ENCODING_START	n/a	n/a	n/a	-999	3	[0, 0, 0]	n/a	FR1	2	R1302M
602.076	1.622	602497	WORD	n/a	n/a	BATH	1	3	[0, 0, 0]	n/a	FR1	2	R1302M
603.698	1.013	604119	WORD_OFF	n/a	n/a	BATH	1	3	[0, 0, 0]	n/a	FR1	2	R1302M
604.711	1.638	605132	WORD	n/a	n/a	FOOD	2	3	[0, 0, 0]	n/a	FR1	2	R1302M
606.349	0.785	606770	WORD_OFF	n/a	n/a	FOOD	2	3	[0, 0, 0]	n/a	FR1	2	R1302M
607.134	1.631	607555	WORD	n/a	n/a	TENT	3	3	[0, 0, 0]	n/a	FR1	2	R1302M
608.765	1.016	609186	WORD_OFF	n/a	n/a	TENT	3	3	[0, 0, 0]	n/a	FR1	2	R1302M
609.781	1.636	610202	WORD	n/a	n/a	SUN	4	3	[0, 0, 0]	n/a	FR1	2	R1302M
611.417	0.865	611837	WORD_OFF	n/a	n/a	SUN	4	3	[0, 0, 0]	n/a	FR1	2	R1302M
612.282	1.634	612702	WORD	n/a	n/a	BOY	5	3	[0, 0, 0]	n/a	FR1	2	R1302M
613.916	0.838	614336	WORD_OFF	n/a	n/a	BOY	5	3	[0, 0, 0]	n/a	FR1	2	R1302M
614.754	1.614	615174	WORD	n/a	n/a	FOAM	6	3	[0, 0, 0]	n/a	FR1	2	R1302M
616.368	0.953	616788	WORD_OFF	n/a	n/a	FOAM	6	3	[0, 0, 0]	n/a	FR1	2	R1302M
617.321	1.63	617741	WORD	n/a	n/a	DOLL	7	3	[0, 0, 0]	n/a	FR1	2	R1302M
618.951	0.91	619371	WORD_OFF	n/a	n/a	DOLL	7	3	[0, 0, 0]	n/a	FR1	2	R1302M
619.861	1.608	620281	WORD	n/a	n/a	VAN	8	3	[0, 0, 0]	n/a	FR1	2	R1302M
621.469	1.142	621889	WORD_OFF	n/a	n/a	VAN	8	3	[0, 0, 0]	n/a	FR1	2	R1302M
622.611	1.608	623031	WORD	n/a	n/a	FLAG	9	3	[0, 0, 0]	n/a	FR1	2	R1302M
624.219	1.058	624639	WORD_OFF	n/a	n/a	FLAG	9	3	[0, 0, 0]	n/a	FR1	2	R1302M
625.277	1.625	625697	WORD	n/a	n/a	EAR	10	3	[0, 0, 0]	n/a	FR1	2	R1302M
626.902	0.988	627322	WORD_OFF	n/a	n/a	EAR	10	3	[0, 0, 0]	n/a	FR1	2	R1302M
627.89	1.614	628310	WORD	n/a	n/a	WAVE	11	3	[0, 0, 0]	n/a	FR1	2	R1302M
629.504	1.006	629924	WORD_OFF	n/a	n/a	WAVE	11	3	[0, 0, 0]	n/a	FR1	2	R1302M
630.51	1.627	630930	WORD	n/a	n/a	BAG	12	3	[0, 0, 0]	n/a	FR1	2	R1302M
632.137	0.001	632557	WORD_OFF	n/a	n/a	BAG	12	3	[0, 0, 0]	n/a	FR1	2	R1302M
632.138	0.0	632558	ENCODING_END	n/a	n/a	n/a	-999	3	[0, 0, 0]	n/a	FR1	2	R1302M
632.138	0.001	632558	DISTRACT_START	n/a	n/a	n/a	-999	3	[0, 0, 0]	n/a	FR1	2	R1302M
632.139	0.014	632559	START	n/a	n/a	n/a	-999	3	[-999, -999, -999]	n/a	FR1	2	R1302M
632.153	3.717	632573	PROB	3.717	n/a	n/a	-999	3	[7, 8, 3]	18	FR1	2	R1302M
635.87	4.519	636289	PROB	4.519	n/a	n/a	-999	3	[1, 3, 8]	12	FR1	2	R1302M
640.389	3.65	640808	PROB	3.65	n/a	n/a	-999	3	[3, 1, 3]	7	FR1	2	R1302M
644.039	4.784	644458	PROB	4.784	n/a	n/a	-999	3	[6, 3, 5]	14	FR1	2	R1302M
648.823	3.379	649242	PROB	3.379	n/a	n/a	-999	3	[4, 6, 2]	12	FR1	2	R1302M
652.202	0.005	652621	STOP	n/a	n/a	n/a	-999	3	[-999, -999, -999]	n/a	FR1	2	R1302M
652.207	0.617	652626	DISTRACT_END	n/a	n/a	n/a	-999	3	[0, 0, 0]	n/a	FR1	2	R1302M
652.824	1.701	653243	RETRIEVAL_ORIENT_START	n/a	n/a	n/a	-999	3	[0, 0, 0]	n/a	FR1	2	R1302M
654.525	0.001	654944	RETRIEVAL_ORIENT_END	n/a	n/a	n/a	-999	3	[0, 0, 0]	n/a	FR1	2	R1302M
654.526	0.62	654945	REC_START	n/a	n/a	n/a	-999	3	[0, 0, 0]	n/a	FR1	2	R1302M
655.146	0.544	655564	REC_WORD	0.544	n/a	BATH	1	3	[0, 0, 0]	n/a	FR1	2	R1302M
655.69	1.193	656108	REC_WORD	1.193	n/a	FOOD	2	3	[0, 0, 0]	n/a	FR1	2	R1302M
656.883	1.291	657301	REC_WORD	1.291	n/a	TONGUE	-999	3	[0, 0, 0]	n/a	FR1	2	R1302M
658.174	2.247	658592	REC_WORD	2.247	n/a	BOY	5	3	[0, 0, 0]	n/a	FR1	2	R1302M
660.421	2.966	660839	REC_WORD	2.966	n/a	COTTON	-999	3	[0, 0, 0]	n/a	FR1	2	R1302M
663.387	10.299	663805	REC_WORD	10.299	n/a	LEAF	-999	3	[0, 0, 0]	n/a	FR1	2	R1302M
673.686	10.853	674104	REC_WORD	10.853	n/a	CLOCK	-999	3	[0, 0, 0]	n/a	FR1	2	R1302M
684.539	0.001	684956	REC_END	n/a	n/a	n/a	-999	3	[0, 0, 0]	n/a	FR1	2	R1302M
684.54	0.013	684957	TRIAL_END	n/a	n/a	n/a	-999	3	[0, 0, 0]	n/a	FR1	2	R1302M
684.553	0.0	684970	TRIAL_START	n/a	n/a	n/a	-999	4	[0, 0, 0]	n/a	FR1	2	R1302M
684.553	0.001	684970	TRIAL	n/a	n/a	n/a	-999	4	[0, 0, 0]	n/a	FR1	2	R1302M
684.554	5.928	684971	WAITING_START	n/a	n/a	n/a	-999	4	[0, 0, 0]	n/a	FR1	2	R1302M
690.482	0.001	690899	WAITING_END	n/a	n/a	n/a	-999	4	[0, 0, 0]	n/a	FR1	2	R1302M
690.483	10.429	690900	COUNTDOWN_START	n/a	n/a	n/a	-999	4	[0, 0, 0]	n/a	FR1	2	R1302M
700.912	0.001	701328	COUNTDOWN_END	n/a	n/a	n/a	-999	4	[0, 0, 0]	n/a	FR1	2	R1302M
700.913	1.104	701329	ORIENT_START	n/a	n/a	n/a	-999	4	[0, 0, 0]	n/a	FR1	2	R1302M
702.017	0.001	702433	ORIENT_END	n/a	n/a	n/a	-999	4	[0, 0, 0]	n/a	FR1	2	R1302M
702.018	0.818	702434	ENCODING_START	n/a	n/a	n/a	-999	4	[0, 0, 0]	n/a	FR1	2	R1302M
702.836	1.632	703252	WORD	n/a	n/a	STREET	1	4	[0, 0, 0]	n/a	FR1	2	R1302M
704.468	1.077	704884	WORD_OFF	n/a	n/a	STREET	1	4	[0, 0, 0]	n/a	FR1	2	R1302M
705.545	1.623	705961	WORD	n/a	n/a	PALM	2	4	[0, 0, 0]	n/a	FR1	2	R1302M
707.168	0.983	707584	WORD_OFF	n/a	n/a	PALM	2	4	[0, 0, 0]	n/a	FR1	2	R1302M
708.151	1.634	708567	WORD	n/a	n/a	BOX	3	4	[0, 0, 0]	n/a	FR1	2	R1302M
709.785	1.034	710201	WORD_OFF	n/a	n/a	BOX	3	4	[0, 0, 0]	n/a	FR1	2	R1302M
710.819	1.617	711235	WORD	n/a	n/a	HOUSE	4	4	[0, 0, 0]	n/a	FR1	2	R1302M
712.436	0.918	712852	WORD_OFF	n/a	n/a	HOUSE	4	4	[0, 0, 0]	n/a	FR1	2	R1302M
713.354	1.632	713770	WORD	n/a	n/a	SHARK	5	4	[0, 0, 0]	n/a	FR1	2	R1302M
714.986	0.913	715402	WORD_OFF	n/a	n/a	SHARK	5	4	[0, 0, 0]	n/a	FR1	2	R1302M
715.899	1.622	716315	WORD	n/a	n/a	WORM	6	4	[0, 0, 0]	n/a	FR1	2	R1302M
717.521	0.956	717937	WORD_OFF	n/a	n/a	WORM	6	4	[0, 0, 0]	n/a	FR1	2	R1302M
718.477	1.626	718893	WORD	n/a	n/a	SEA	7	4	[0, 0, 0]	n/a	FR1	2	R1302M
720.103	1.029	720519	WORD_OFF	n/a	n/a	SEA	7	4	[0, 0, 0]	n/a	FR1	2	R1302M
721.132	1.622	721547	WORD	n/a	n/a	PET	8	4	[0, 0, 0]	n/a	FR1	2	R1302M
722.754	0.966	723169	WORD_OFF	n/a	n/a	PET	8	4	[0, 0, 0]	n/a	FR1	2	R1302M
723.72	1.619	724135	WORD	n/a	n/a	SLIME	9	4	[0, 0, 0]	n/a	FR1	2	R1302M
725.339	1.094	725754	WORD_OFF	n/a	n/a	SLIME	9	4	[0, 0, 0]	n/a	FR1	2	R1302M
726.433	1.622	726848	WORD	n/a	n/a	BOARD	10	4	[0, 0, 0]	n/a	FR1	2	R1302M
728.055	1.026	728470	WORD_OFF	n/a	n/a	BOARD	10	4	[0, 0, 0]	n/a	FR1	2	R1302M
729.081	1.624	729496	WORD	n/a	n/a	MAIL	11	4	[0, 0, 0]	n/a	FR1	2	R1302M
730.705	1.125	731120	WORD_OFF	n/a	n/a	MAIL	11	4	[0, 0, 0]	n/a	FR1	2	R1302M
731.83	1.627	732245	WORD	n/a	n/a	SHIELD	12	4	[0, 0, 0]	n/a	FR1	2	R1302M
733.457	0.001	733872	WORD_OFF	n/a	n/a	SHIELD	12	4	[0, 0, 0]	n/a	FR1	2	R1302M
733.458	0.0	733873	ENCODING_END	n/a	n/a	n/a	-999	4	[0, 0, 0]	n/a	FR1	2	R1302M
733.458	0.001	733873	DISTRACT_START	n/a	n/a	n/a	-999	4	[0, 0, 0]	n/a	FR1	2	R1302M
733.459	0.014	733874	START	n/a	n/a	n/a	-999	4	[-999, -999, -999]	n/a	FR1	2	R1302M
733.473	4.868	733888	PROB	4.868	n/a	n/a	-999	4	[6, 4, 9]	19	FR1	2	R1302M
738.341	3.666	738756	PROB	3.666	n/a	n/a	-999	4	[7, 4, 6]	17	FR1	2	R1302M
742.007	5.001	742421	PROB	5.001	n/a	n/a	-999	4	[1, 4, 2]	7	FR1	2	R1302M
747.008	2.968	747422	PROB	2.968	n/a	n/a	-999	4	[5, 1, 6]	12	FR1	2	R1302M
749.976	4.119	750390	PROB	4.119	n/a	n/a	-999	4	[8, 7, 3]	18	FR1	2	R1302M
754.095	0.015	754509	STOP	n/a	n/a	n/a	-999	4	[-999, -999, -999]	n/a	FR1	2	R1302M
754.11	0.552	754524	DISTRACT_END	n/a	n/a	n/a	-999	4	[0, 0, 0]	n/a	FR1	2	R1302M
754.662	1.599	755076	RETRIEVAL_ORIENT_START	n/a	n/a	n/a	-999	4	[0, 0, 0]	n/a	FR1	2	R1302M
756.261	0.001	756675	RETRIEVAL_ORIENT_END	n/a	n/a	n/a	-999	4	[0, 0, 0]	n/a	FR1	2	R1302M
756.262	0.892	756676	REC_START	n/a	n/a	n/a	-999	4	[0, 0, 0]	n/a	FR1	2	R1302M
757.154	0.695	757568	REC_WORD	0.695	n/a	WORM	6	4	[0, 0, 0]	n/a	FR1	2	R1302M
757.849	9.892	758263	REC_WORD	9.892	n/a	PEA	-999	4	[0, 0, 0]	n/a	FR1	2	R1302M
767.741	0.422	768154	REC_WORD	0.422	n/a	BOY	-999	4	[0, 0, 0]	n/a	FR1	2	R1302M
768.163	4.562	768576	REC_WORD	4.562	n/a	SLED	-999	4	[0, 0, 0]	n/a	FR1	2	R1302M
772.725	9.071	773138	REC_WORD	9.071	n/a	COTTON	-999	4	[0, 0, 0]	n/a	FR1	2	R1302M
781.796	0.809	782209	REC_WORD	0.809	n/a	SLED	-999	4	[0, 0, 0]	n/a	FR1	2	R1302M
782.605	3.67	783018	REC_WORD	3.67	n/a	SLED	-999	4	[0, 0, 0]	n/a	FR1	2	R1302M
786.275	0.0	786687	REC_END	n/a	n/a	n/a	-999	4	[0, 0, 0]	n/a	FR1	2	R1302M
786.275	0.014	786687	TRIAL_END	n/a	n/a	n/a	-999	4	[0, 0, 0]	n/a	FR1	2	R1302M
786.289	0.001	786701	TRIAL_START	n/a	n/a	n/a	-999	5	[0, 0, 0]	n/a	FR1	2	R1302M
786.29	0.0	786702	TRIAL	n/a	n/a	n/a	-999	5	[0, 0, 0]	n/a	FR1	2	R1302M
786.29	12.829	786702	WAITING_START	n/a	n/a	n/a	-999	5	[0, 0, 0]	n/a	FR1	2	R1302M
799.119	0.001	799531	WAITING_END	n/a	n/a	n/a	-999	5	[0, 0, 0]	n/a	FR1	2	R1302M
799.12	10.428	799532	COUNTDOWN_START	n/a	n/a	n/a	-999	5	[0, 0, 0]	n/a	FR1	2	R1302M
809.548	0.001	809959	COUNTDOWN_END	n/a	n/a	n/a	-999	5	[0, 0, 0]	n/a	FR1	2	R1302M
809.549	1.055	809960	ORIENT_START	n/a	n/a	n/a	-999	5	[0, 0, 0]	n/a	FR1	2	R1302M
810.604	0.001	811015	ORIENT_END	n/a	n/a	n/a	-999	5	[0, 0, 0]	n/a	FR1	2	R1302M
810.605	0.905	811016	ENCODING_START	n/a	n/a	n/a	-999	5	[0, 0, 0]	n/a	FR1	2	R1302M
811.51	1.628	811921	WORD	n/a	n/a	CAR	1	5	[0, 0, 0]	n/a	FR1	2	R1302M
813.138	0.885	813549	WORD_OFF	n/a	n/a	CAR	1	5	[0, 0, 0]	n/a	FR1	2	R1302M
814.023	1.632	814434	WORD	n/a	n/a	POLE	2	5	[0, 0, 0]	n/a	FR1	2	R1302M
815.655	0.807	816066	WORD_OFF	n/a	n/a	POLE	2	5	[0, 0, 0]	n/a	FR1	2	R1302M
816.462	1.627	816873	WORD	n/a	n/a	BIRD	3	5	[0, 0, 0]	n/a	FR1	2	R1302M
818.089	1.065	818500	WORD_OFF	n/a	n/a	BIRD	3	5	[0, 0, 0]	n/a	FR1	2	R1302M
819.154	1.635	819565	WORD	n/a	n/a	SKI	4	5	[0, 0, 0]	n/a	FR1	2	R1302M
820.789	0.892	821200	WORD_OFF	n/a	n/a	SKI	4	5	[0, 0, 0]	n/a	FR1	2	R1302M
821.681	1.61	822092	WORD	n/a	n/a	CHAIR	5	5	[0, 0, 0]	n/a	FR1	2	R1302M
823.291	0.966	823702	WORD_OFF	n/a	n/a	CHAIR	5	5	[0, 0, 0]	n/a	FR1	2	R1302M
824.257	1.633	824668	WORD	n/a	n/a	SIGN	6	5	[0, 0, 0]	n/a	FR1	2	R1302M
825.89	0.822	826301	WORD_OFF	n/a	n/a	SIGN	6	5	[0, 0, 0]	n/a	FR1	2	R1302M
826.712	1.63	827123	WORD	n/a	n/a	SOCK	7	5	[0, 0, 0]	n/a	FR1	2	R1302M
828.342	0.954	828753	WORD_OFF	n/a	n/a	SOCK	7	5	[0, 0, 0]	n/a	FR1	2	R1302M
829.296	1.629	829707	WORD	n/a	n/a	OAK	8	5	[0, 0, 0]	n/a	FR1	2	R1302M
830.925	0.992	831335	WORD_OFF	n/a	n/a	OAK	8	5	[0, 0, 0]	n/a	FR1	2	R1302M
831.917	1.626	832327	WORD	n/a	n/a	FUR	9	5	[0, 0, 0]	n/a	FR1	2	R1302M
833.543	0.875	833953	WORD_OFF	n/a	n/a	FUR	9	5	[0, 0, 0]	n/a	FR1	2	R1302M
834.418	1.624	834828	WORD	n/a	n/a	CLOTH	10	5	[0, 0, 0]	n/a	FR1	2	R1302M
836.042	1.097	836452	WORD_OFF	n/a	n/a	CLOTH	10	5	[0, 0, 0]	n/a	FR1	2	R1302M
837.139	1.637	837549	WORD	n/a	n/a	BOOK	11	5	[0, 0, 0]	n/a	FR1	2	R1302M
838.776	1.013	839186	WORD_OFF	n/a	n/a	BOOK	11	5	[0, 0, 0]	n/a	FR1	2	R1302M
839.789	1.622	840199	WORD	n/a	n/a	BEE	12	5	[0, 0, 0]	n/a	FR1	2	R1302M
841.411	0.001	841821	WORD_OFF	n/a	n/a	BEE	12	5	[0, 0, 0]	n/a	FR1	2	R1302M
841.412	0.001	841822	ENCODING_END	n/a	n/a	n/a	-999	5	[0, 0, 0]	n/a	FR1	2	R1302M
841.413	0.0	841823	DISTRACT_START	n/a	n/a	n/a	-999	5	[0, 0, 0]	n/a	FR1	2	R1302M
841.413	0.014	841823	START	n/a	n/a	n/a	-999	5	[-999, -999, -999]	n/a	FR1	2	R1302M
841.427	3.835	841837	PROB	3.835	n/a	n/a	-999	5	[6, 8, 8]	20	FR1	2	R1302M
845.262	5.101	845672	PROB	5.101	n/a	n/a	-999	5	[9, 5, 2]	16	FR1	2	R1302M
850.363	4.499	850773	PROB	4.499	n/a	n/a	-999	5	[7, 7, 4]	18	FR1	2	R1302M
854.862	6.018	855271	PROB	6.018	n/a	n/a	-999	5	[5, 2, 4]	11	FR1	2	R1302M
860.88	3.067	861289	PROB	3.067	n/a	n/a	-999	5	[4, 2, 5]	11	FR1	2	R1302M
863.947	0.017	864356	STOP	n/a	n/a	n/a	-999	5	[-999, -999, -999]	n/a	FR1	2	R1302M
863.964	0.59	864373	DISTRACT_END	n/a	n/a	n/a	-999	5	[0, 0, 0]	n/a	FR1	2	R1302M
864.554	1.644	864963	RETRIEVAL_ORIENT_START	n/a	n/a	n/a	-999	5	[0, 0, 0]	n/a	FR1	2	R1302M
866.198	0.001	866607	RETRIEVAL_ORIENT_END	n/a	n/a	n/a	-999	5	[0, 0, 0]	n/a	FR1	2	R1302M
866.199	1.127	866608	REC_START	n/a	n/a	n/a	-999	5	[0, 0, 0]	n/a	FR1	2	R1302M
867.326	0.809	867735	REC_WORD	0.809	n/a	CAR	1	5	[0, 0, 0]	n/a	FR1	2	R1302M
868.135	0.764	868544	REC_WORD	0.764	n/a	POLE	2	5	[0, 0, 0]	n/a	FR1	2	R1302M
868.899	4.688	869308	REC_WORD	4.688	n/a	SIGN	6	5	[0, 0, 0]	n/a	FR1	2	R1302M
873.587	10.258	873995	REC_WORD	10.258	n/a	OAK	8	5	[0, 0, 0]	n/a	FR1	2	R1302M
883.845	1.286	884253	REC_WORD	1.286	n/a	SLED	-999	5	[0, 0, 0]	n/a	FR1	2	R1302M
885.131	10.307	885539	REC_WORD_VV	10.307	n/a	<>	-999	5	[0, 0, 0]	n/a	FR1	2	R1302M
895.438	0.773	895845	REC_WORD	0.773	n/a	PEACH	-999	5	[0, 0, 0]	n/a	FR1	2	R1302M
896.211	0.002	896618	REC_END	n/a	n/a	n/a	-999	5	[0, 0, 0]	n/a	FR1	2	R1302M
896.213	0.014	896620	TRIAL_END	n/a	n/a	n/a	-999	5	[0, 0, 0]	n/a	FR1	2	R1302M
896.227	0.0	896634	TRIAL_START	n/a	n/a	n/a	-999	6	[0, 0, 0]	n/a	FR1	2	R1302M
896.227	0.001	896634	TRIAL	n/a	n/a	n/a	-999	6	[0, 0, 0]	n/a	FR1	2	R1302M
896.228	10.678	896635	WAITING_START	n/a	n/a	n/a	-999	6	[0, 0, 0]	n/a	FR1	2	R1302M
906.906	0.001	907313	WAITING_END	n/a	n/a	n/a	-999	6	[0, 0, 0]	n/a	FR1	2	R1302M
906.907	10.429	907314	COUNTDOWN_START	n/a	n/a	n/a	-999	6	[0, 0, 0]	n/a	FR1	2	R1302M
917.336	0.001	917742	COUNTDOWN_END	n/a	n/a	n/a	-999	6	[0, 0, 0]	n/a	FR1	2	R1302M
917.337	1.072	917743	ORIENT_START	n/a	n/a	n/a	-999	6	[0, 0, 0]	n/a	FR1	2	R1302M
918.409	0.001	918815	ORIENT_END	n/a	n/a	n/a	-999	6	[0, 0, 0]	n/a	FR1	2	R1302M
918.41	0.88	918816	ENCODING_START	n/a	n/a	n/a	-999	6	[0, 0, 0]	n/a	FR1	2	R1302M
919.29	1.635	919696	WORD	n/a	n/a	SKY	1	6	[0, 0, 0]	n/a	FR1	2	R1302M
920.925	0.781	921331	WORD_OFF	n/a	n/a	SKY	1	6	[0, 0, 0]	n/a	FR1	2	R1302M
921.706	1.621	922112	WORD	n/a	n/a	HOOF	2	6	[0, 0, 0]	n/a	FR1	2	R1302M
923.327	0.948	923733	WORD_OFF	n/a	n/a	HOOF	2	6	[0, 0, 0]	n/a	FR1	2	R1302M
924.275	1.635	924681	WORD	n/a	n/a	KEY	3	6	[0, 0, 0]	n/a	FR1	2	R1302M
925.91	0.822	926316	WORD_OFF	n/a	n/a	KEY	3	6	[0, 0, 0]	n/a	FR1	2	R1302M
926.732	1.629	927138	WORD	n/a	n/a	FORT	4	6	[0, 0, 0]	n/a	FR1	2	R1302M
928.361	0.897	928767	WORD_OFF	n/a	n/a	FORT	4	6	[0, 0, 0]	n/a	FR1	2	R1302M
929.258	1.636	929664	WORD	n/a	n/a	BRUSH	5	6	[0, 0, 0]	n/a	FR1	2	R1302M
930.894	0.779	931300	WORD_OFF	n/a	n/a	BRUSH	5	6	[0, 0, 0]	n/a	FR1	2	R1302M
931.673	1.622	932079	WORD	n/a	n/a	CHEEK	6	6	[0, 0, 0]	n/a	FR1	2	R1302M
933.295	1.027	933701	WORD_OFF	n/a	n/a	CHEEK	6	6	[0, 0, 0]	n/a	FR1	2	R1302M
934.322	1.623	934728	WORD	n/a	n/a	MILK	7	6	[0, 0, 0]	n/a	FR1	2	R1302M
935.945	0.819	936351	WORD_OFF	n/a	n/a	MILK	7	6	[0, 0, 0]	n/a	FR1	2	R1302M
936.764	1.632	937170	WORD	n/a	n/a	BRICK	8	6	[0, 0, 0]	n/a	FR1	2	R1302M
938.396	0.959	938802	WORD_OFF	n/a	n/a	BRICK	8	6	[0, 0, 0]	n/a	FR1	2	R1302M
939.355	1.624	939760	WORD	n/a	n/a	SPONGE	9	6	[0, 0, 0]	n/a	FR1	2	R1302M
940.979	0.99	941384	WORD_OFF	n/a	n/a	SPONGE	9	6	[0, 0, 0]	n/a	FR1	2	R1302M
941.969	1.627	942374	WORD	n/a	n/a	HORSE	10	6	[0, 0, 0]	n/a	FR1	2	R1302M
943.596	0.961	944001	WORD_OFF	n/a	n/a	HORSE	10	6	[0, 0, 0]	n/a	FR1	2	R1302M
944.557	1.623	944962	WORD	n/a	n/a	SPEAR	11	6	[0, 0, 0]	n/a	FR1	2	R1302M
946.18	1.115	946585	WORD_OFF	n/a	n/a	SPEAR	11	6	[0, 0, 0]	n/a	FR1	2	R1302M
947.295	1.636	947700	WORD	n/a	n/a	PURSE	12	6	[0, 0, 0]	n/a	FR1	2	R1302M
948.931	0.0	949336	WORD_OFF	n/a	n/a	PURSE	12	6	[0, 0, 0]	n/a	FR1	2	R1302M
948.931	0.001	949336	ENCODING_END	n/a	n/a	n/a	-999	6	[0, 0, 0]	n/a	FR1	2	R1302M
948.932	0.001	949337	DISTRACT_START	n/a	n/a	n/a	-999	6	[0, 0, 0]	n/a	FR1	2	R1302M
948.933	0.014	949338	START	n/a	n/a	n/a	-999	6	[-999, -999, -999]	n/a	FR1	2	R1302M
948.947	3.818	949352	PROB	3.818	n/a	n/a	-999	6	[8, 2, 9]	19	FR1	2	R1302M
952.765	4.134	953170	PROB	4.134	n/a	n/a	-999	6	[9, 1, 9]	19	FR1	2	R1302M
956.899	3.15	957304	PROB	3.15	n/a	n/a	-999	6	[2, 8, 8]	18	FR1	2	R1302M
960.049	7.969	960454	PROB	7.969	n/a	n/a	-999	6	[8, 8, 2]	18	FR1	2	R1302M
968.018	3.903	968422	PROB	3.903	n/a	n/a	-999	6	[6, 1, 3]	10	FR1	2	R1302M
971.921	0.014	972325	STOP	n/a	n/a	n/a	-999	6	[-999, -999, -999]	n/a	FR1	2	R1302M
971.935	0.611	972339	DISTRACT_END	n/a	n/a	n/a	-999	6	[0, 0, 0]	n/a	FR1	2	R1302M
972.546	1.724	972950	RETRIEVAL_ORIENT_START	n/a	n/a	n/a	-999	6	[0, 0, 0]	n/a	FR1	2	R1302M
974.27	0.001	974674	RETRIEVAL_ORIENT_END	n/a	n/a	n/a	-999	6	[0, 0, 0]	n/a	FR1	2	R1302M
974.271	0.859	974675	REC_START	n/a	n/a	n/a	-999	6	[0, 0, 0]	n/a	FR1	2	R1302M
975.13	2.318	975534	REC_WORD	2.318	n/a	SKI	-999	6	[0, 0, 0]	n/a	FR1	2	R1302M
977.448	3.153	977852	REC_WORD	3.153	n/a	HOOK	-999	6	[0, 0, 0]	n/a	FR1	2	R1302M
980.601	2.163	981005	REC_WORD	2.163	n/a	TONGUE	-999	6	[0, 0, 0]	n/a	FR1	2	R1302M
982.764	7.296	983167	REC_WORD	7.296	n/a	SLED	-999	6	[0, 0, 0]	n/a	FR1	2	R1302M
990.06	13.803	990463	REC_WORD	13.803	n/a	BRANCH	-999	6	[0, 0, 0]	n/a	FR1	2	R1302M
1003.863	0.421	1004266	REC_WORD	0.421	n/a	SLED	-999	6	[0, 0, 0]	n/a	FR1	2	R1302M
1004.284	0.001	1004686	REC_END	n/a	n/a	n/a	-999	6	[0, 0, 0]	n/a	FR1	2	R1302M
1004.285	0.016	1004687	TRIAL_END	n/a	n/a	n/a	-999	6	[0, 0, 0]	n/a	FR1	2	R1302M
1004.301	0.001	1004703	TRIAL_START	n/a	n/a	n/a	-999	7	[0, 0, 0]	n/a	FR1	2	R1302M
1004.302	0.0	1004704	TRIAL	n/a	n/a	n/a	-999	7	[0, 0, 0]	n/a	FR1	2	R1302M
1004.302	10.375	1004704	WAITING_START	n/a	n/a	n/a	-999	7	[0, 0, 0]	n/a	FR1	2	R1302M
1014.677	0.001	1015079	WAITING_END	n/a	n/a	n/a	-999	7	[0, 0, 0]	n/a	FR1	2	R1302M
1014.678	10.429	1015080	COUNTDOWN_START	n/a	n/a	n/a	-999	7	[0, 0, 0]	n/a	FR1	2	R1302M
1025.107	0.001	1025509	COUNTDOWN_END	n/a	n/a	n/a	-999	7	[0, 0, 0]	n/a	FR1	2	R1302M
1025.108	1.205	1025510	ORIENT_START	n/a	n/a	n/a	-999	7	[0, 0, 0]	n/a	FR1	2	R1302M
1026.313	0.001	1026714	ORIENT_END	n/a	n/a	n/a	-999	7	[0, 0, 0]	n/a	FR1	2	R1302M
1026.314	0.873	1026715	ENCODING_START	n/a	n/a	n/a	-999	7	[0, 0, 0]	n/a	FR1	2	R1302M
1027.187	1.626	1027588	WORD	n/a	n/a	VINE	1	7	[0, 0, 0]	n/a	FR1	2	R1302M
1028.813	1.053	1029214	WORD_OFF	n/a	n/a	VINE	1	7	[0, 0, 0]	n/a	FR1	2	R1302M
1029.866	1.615	1030267	WORD	n/a	n/a	CROWN	2	7	[0, 0, 0]	n/a	FR1	2	R1302M
1031.481	1.076	1031882	WORD_OFF	n/a	n/a	CROWN	2	7	[0, 0, 0]	n/a	FR1	2	R1302M
1032.557	1.623	1032958	WORD	n/a	n/a	SOUP	3	7	[0, 0, 0]	n/a	FR1	2	R1302M
1034.18	1.05	1034581	WORD_OFF	n/a	n/a	SOUP	3	7	[0, 0, 0]	n/a	FR1	2	R1302M
1035.23	1.634	1035631	WORD	n/a	n/a	TOAD	4	7	[0, 0, 0]	n/a	FR1	2	R1302M
1036.864	1.047	1037265	WORD_OFF	n/a	n/a	TOAD	4	7	[0, 0, 0]	n/a	FR1	2	R1302M
1037.911	1.637	1038312	WORD	n/a	n/a	CASH	5	7	[0, 0, 0]	n/a	FR1	2	R1302M
1039.548	1.143	1039949	WORD_OFF	n/a	n/a	CASH	5	7	[0, 0, 0]	n/a	FR1	2	R1302M
1040.691	1.625	1041092	WORD	n/a	n/a	WAND	6	7	[0, 0, 0]	n/a	FR1	2	R1302M
1042.316	0.863	1042717	WORD_OFF	n/a	n/a	WAND	6	7	[0, 0, 0]	n/a	FR1	2	R1302M
1043.179	1.637	1043580	WORD	n/a	n/a	SWORD	7	7	[0, 0, 0]	n/a	FR1	2	R1302M
1044.816	1.047	1045217	WORD_OFF	n/a	n/a	SWORD	7	7	[0, 0, 0]	n/a	FR1	2	R1302M
1045.863	1.621	1046264	WORD	n/a	n/a	SNOW	8	7	[0, 0, 0]	n/a	FR1	2	R1302M
1047.484	0.769	1047885	WORD_OFF	n/a	n/a	SNOW	8	7	[0, 0, 0]	n/a	FR1	2	R1302M
1048.253	1.63	1048653	WORD	n/a	n/a	HOSE	9	7	[0, 0, 0]	n/a	FR1	2	R1302M
1049.883	1.018	1050283	WORD_OFF	n/a	n/a	HOSE	9	7	[0, 0, 0]	n/a	FR1	2	R1302M
1050.901	1.634	1051301	WORD	n/a	n/a	TOOL	10	7	[0, 0, 0]	n/a	FR1	2	R1302M
1052.535	0.905	1052935	WORD_OFF	n/a	n/a	TOOL	10	7	[0, 0, 0]	n/a	FR1	2	R1302M
1053.44	1.628	1053840	WORD	n/a	n/a	HOOK	11	7	[0, 0, 0]	n/a	FR1	2	R1302M
1055.068	1.097	1055468	WORD_OFF	n/a	n/a	HOOK	11	7	[0, 0, 0]	n/a	FR1	2	R1302M
1056.165	1.637	1056565	WORD	n/a	n/a	RIB	12	7	[0, 0, 0]	n/a	FR1	2	R1302M
1057.802	0.0	1058202	WORD_OFF	n/a	n/a	RIB	12	7	[0, 0, 0]	n/a	FR1	2	R1302M
1057.802	0.001	1058202	ENCODING_END	n/a	n/a	n/a	-999	7	[0, 0, 0]	n/a	FR1	2	R1302M
1057.803	0.0	1058203	DISTRACT_START	n/a	n/a	n/a	-999	7	[0, 0, 0]	n/a	FR1	2	R1302M
1057.803	0.015	1058203	START	n/a	n/a	n/a	-999	7	[-999, -999, -999]	n/a	FR1	2	R1302M
1057.818	6.751	1058218	PROB	6.751	n/a	n/a	-999	7	[9, 2, 3]	12	FR1	2	R1302M
1064.569	3.551	1064969	PROB	3.551	n/a	n/a	-999	7	[6, 9, 2]	17	FR1	2	R1302M
1068.12	5.419	1068520	PROB	5.419	n/a	n/a	-999	7	[8, 3, 9]	20	FR1	2	R1302M
1073.539	4.371	1073938	PROB	4.371	n/a	n/a	-999	7	[4, 6, 8]	18	FR1	2	R1302M
1077.91	0.012	1078309	STOP	n/a	n/a	n/a	-999	7	[-999, -999, -999]	n/a	FR1	2	R1302M
1077.922	0.617	1078321	DISTRACT_END	n/a	n/a	n/a	-999	7	[0, 0, 0]	n/a	FR1	2	R1302M
1078.539	1.685	1078938	RETRIEVAL_ORIENT_START	n/a	n/a	n/a	-999	7	[0, 0, 0]	n/a	FR1	2	R1302M
1080.224	0.0	1080623	REC_START	n/a	n/a	n/a	-999	7	[0, 0, 0]	n/a	FR1	2	R1302M
1080.224	1.631	1080623	RETRIEVAL_ORIENT_END	n/a	n/a	n/a	-999	7	[0, 0, 0]	n/a	FR1	2	R1302M
1081.855	0.682	1082254	REC_WORD	0.682	n/a	CROWN	2	7	[0, 0, 0]	n/a	FR1	2	R1302M
1082.537	2.023	1082936	REC_WORD	2.023	n/a	HOOK	11	7	[0, 0, 0]	n/a	FR1	2	R1302M
1084.56	4.986	1084959	REC_WORD	4.986	n/a	SLED	-999	7	[0, 0, 0]	n/a	FR1	2	R1302M
1089.546	1.182	1089945	REC_WORD	1.182	n/a	TONGUE	-999	7	[0, 0, 0]	n/a	FR1	2	R1302M
1090.728	14.197	1091127	REC_WORD	14.197	n/a	HOOK	11	7	[0, 0, 0]	n/a	FR1	2	R1302M
1104.925	4.907	1105323	REC_WORD	4.907	n/a	SLED	-999	7	[0, 0, 0]	n/a	FR1	2	R1302M
1109.832	0.405	1110230	REC_WORD	0.405	n/a	LAKE	-999	7	[0, 0, 0]	n/a	FR1	2	R1302M
1110.237	0.001	1110635	REC_END	n/a	n/a	n/a	-999	7	[0, 0, 0]	n/a	FR1	2	R1302M
1110.238	0.015	1110636	TRIAL_END	n/a	n/a	n/a	-999	7	[0, 0, 0]	n/a	FR1	2	R1302M
1110.253	0.001	1110651	TRIAL_START	n/a	n/a	n/a	-999	8	[0, 0, 0]	n/a	FR1	2	R1302M
1110.254	0.0	1110652	TRIAL	n/a	n/a	n/a	-999	8	[0, 0, 0]	n/a	FR1	2	R1302M
1110.254	2.742	1110652	WAITING_START	n/a	n/a	n/a	-999	8	[0, 0, 0]	n/a	FR1	2	R1302M
1112.996	0.0	1113394	COUNTDOWN_START	n/a	n/a	n/a	-999	8	[0, 0, 0]	n/a	FR1	2	R1302M
1112.996	10.43	1113394	WAITING_END	n/a	n/a	n/a	-999	8	[0, 0, 0]	n/a	FR1	2	R1302M
1123.426	0.001	1123823	COUNTDOWN_END	n/a	n/a	n/a	-999	8	[0, 0, 0]	n/a	FR1	2	R1302M
1123.427	1.254	1123824	ORIENT_START	n/a	n/a	n/a	-999	8	[0, 0, 0]	n/a	FR1	2	R1302M
1124.681	0.001	1125078	ORIENT_END	n/a	n/a	n/a	-999	8	[0, 0, 0]	n/a	FR1	2	R1302M
1124.682	0.999	1125079	ENCODING_START	n/a	n/a	n/a	-999	8	[0, 0, 0]	n/a	FR1	2	R1302M
1125.681	1.618	1126078	WORD	n/a	n/a	MAP	1	8	[0, 0, 0]	n/a	FR1	2	R1302M
1127.299	1.036	1127696	WORD_OFF	n/a	n/a	MAP	1	8	[0, 0, 0]	n/a	FR1	2	R1302M
1128.335	1.63	1128732	WORD	n/a	n/a	TOY	2	8	[0, 0, 0]	n/a	FR1	2	R1302M
1129.965	1.11	1130362	WORD_OFF	n/a	n/a	TOY	2	8	[0, 0, 0]	n/a	FR1	2	R1302M
1131.075	1.624	1131472	WORD	n/a	n/a	RUG	3	8	[0, 0, 0]	n/a	FR1	2	R1302M
1132.699	1.126	1133096	WORD_OFF	n/a	n/a	RUG	3	8	[0, 0, 0]	n/a	FR1	2	R1302M
1133.825	1.626	1134222	WORD	n/a	n/a	WEED	4	8	[0, 0, 0]	n/a	FR1	2	R1302M
1135.451	0.959	1135847	WORD_OFF	n/a	n/a	WEED	4	8	[0, 0, 0]	n/a	FR1	2	R1302M
1136.41	1.624	1136806	WORD	n/a	n/a	PLANE	5	8	[0, 0, 0]	n/a	FR1	2	R1302M
1138.034	0.889	1138430	WORD_OFF	n/a	n/a	PLANE	5	8	[0, 0, 0]	n/a	FR1	2	R1302M
1138.923	1.628	1139319	WORD	n/a	n/a	MOTH	6	8	[0, 0, 0]	n/a	FR1	2	R1302M
1140.551	1.107	1140947	WORD_OFF	n/a	n/a	MOTH	6	8	[0, 0, 0]	n/a	FR1	2	R1302M
1141.658	1.627	1142054	WORD	n/a	n/a	TEA	7	8	[0, 0, 0]	n/a	FR1	2	R1302M
1143.285	0.937	1143681	WORD_OFF	n/a	n/a	TEA	7	8	[0, 0, 0]	n/a	FR1	2	R1302M
1144.222	1.63	1144618	WORD	n/a	n/a	PLANT	8	8	[0, 0, 0]	n/a	FR1	2	R1302M
1145.852	1.018	1146248	WORD_OFF	n/a	n/a	PLANT	8	8	[0, 0, 0]	n/a	FR1	2	R1302M
1146.87	1.633	1147266	WORD	n/a	n/a	STOVE	9	8	[0, 0, 0]	n/a	FR1	2	R1302M
1148.503	0.801	1148899	WORD_OFF	n/a	n/a	STOVE	9	8	[0, 0, 0]	n/a	FR1	2	R1302M
1149.304	1.632	1149700	WORD	n/a	n/a	STEM	10	8	[0, 0, 0]	n/a	FR1	2	R1302M
1150.936	0.931	1151332	WORD_OFF	n/a	n/a	STEM	10	8	[0, 0, 0]	n/a	FR1	2	R1302M
1151.867	1.637	1152263	WORD	n/a	n/a	NOSE	11	8	[0, 0, 0]	n/a	FR1	2	R1302M
1153.504	1.113	1153900	WORD_OFF	n/a	n/a	NOSE	11	8	[0, 0, 0]	n/a	FR1	2	R1302M
1154.617	1.638	1155013	WORD	n/a	n/a	BOOT	12	8	[0, 0, 0]	n/a	FR1	2	R1302M
1156.255	0.001	1156651	WORD_OFF	n/a	n/a	BOOT	12	8	[0, 0, 0]	n/a	FR1	2	R1302M
1156.256	0.001	1156652	ENCODING_END	n/a	n/a	n/a	-999	8	[0, 0, 0]	n/a	FR1	2	R1302M
1156.257	0.001	1156653	DISTRACT_START	n/a	n/a	n/a	-999	8	[0, 0, 0]	n/a	FR1	2	R1302M
1156.258	0.013	1156654	START	n/a	n/a	n/a	-999	8	[-999, -999, -999]	n/a	FR1	2	R1302M
1156.271	5.434	1156667	PROB	5.434	n/a	n/a	-999	8	[7, 6, 3]	16	FR1	2	R1302M
1161.705	7.018	1162100	PROB	7.018	n/a	n/a	-999	8	[1, 1, 7]	9	FR1	2	R1302M
1168.723	3.034	1169118	PROB	3.034	n/a	n/a	-999	8	[7, 3, 9]	17	FR1	2	R1302M
1171.757	3.518	1172152	PROB	3.518	n/a	n/a	-999	8	[2, 2, 6]	8	FR1	2	R1302M
1175.275	2.795	1175670	PROB	2.795	n/a	n/a	-999	8	[3, 3, 1]	7	FR1	2	R1302M
1178.07	0.022	1178465	STOP	n/a	n/a	n/a	-999	8	[-999, -999, -999]	n/a	FR1	2	R1302M
1178.092	0.613	1178487	DISTRACT_END	n/a	n/a	n/a	-999	8	[0, 0, 0]	n/a	FR1	2	R1302M
1178.705	1.571	1179099	RETRIEVAL_ORIENT_START	n/a	n/a	n/a	-999	8	[0, 0, 0]	n/a	FR1	2	R1302M
1180.276	0.001	1180670	RETRIEVAL_ORIENT_END	n/a	n/a	n/a	-999	8	[0, 0, 0]	n/a	FR1	2	R1302M
1180.277	1.69	1180671	REC_START	n/a	n/a	n/a	-999	8	[0, 0, 0]	n/a	FR1	2	R1302M
1181.967	1.58	1182361	REC_WORD	1.58	n/a	MOTH	6	8	[0, 0, 0]	n/a	FR1	2	R1302M
1183.547	3.007	1183941	REC_WORD	3.007	n/a	TOY	2	8	[0, 0, 0]	n/a	FR1	2	R1302M
1186.554	0.57	1186948	REC_WORD	0.57	n/a	PLANT	8	8	[0, 0, 0]	n/a	FR1	2	R1302M
1187.124	2.282	1187518	REC_WORD	2.282	n/a	HOOK	-999	8	[0, 0, 0]	n/a	FR1	2	R1302M
1189.406	2.664	1189800	REC_WORD	2.664	n/a	SLED	-999	8	[0, 0, 0]	n/a	FR1	2	R1302M
1192.07	7.457	1192464	REC_WORD	7.457	n/a	TEA	7	8	[0, 0, 0]	n/a	FR1	2	R1302M
1199.527	6.808	1199921	REC_WORD	6.808	n/a	FINE	-999	8	[0, 0, 0]	n/a	FR1	2	R1302M
1206.335	0.813	1206728	REC_WORD	0.813	n/a	BRANCH	-999	8	[0, 0, 0]	n/a	FR1	2	R1302M
1207.148	3.141	1207541	REC_WORD_VV	3.141	n/a	<>	-999	8	[0, 0, 0]	n/a	FR1	2	R1302M
1210.289	0.001	1210682	REC_END	n/a	n/a	n/a	-999	8	[0, 0, 0]	n/a	FR1	2	R1302M
1210.29	0.014	1210683	TRIAL_END	n/a	n/a	n/a	-999	8	[0, 0, 0]	n/a	FR1	2	R1302M
1210.304	0.0	1210697	TRIAL_START	n/a	n/a	n/a	-999	9	[0, 0, 0]	n/a	FR1	2	R1302M
1210.304	0.001	1210697	TRIAL	n/a	n/a	n/a	-999	9	[0, 0, 0]	n/a	FR1	2	R1302M
1210.305	6.377	1210698	WAITING_START	n/a	n/a	n/a	-999	9	[0, 0, 0]	n/a	FR1	2	R1302M
1216.682	0.001	1217075	WAITING_END	n/a	n/a	n/a	-999	9	[0, 0, 0]	n/a	FR1	2	R1302M
1216.683	10.429	1217076	COUNTDOWN_START	n/a	n/a	n/a	-999	9	[0, 0, 0]	n/a	FR1	2	R1302M
1227.112	0.0	1227504	COUNTDOWN_END	n/a	n/a	n/a	-999	9	[0, 0, 0]	n/a	FR1	2	R1302M
1227.112	1.224	1227504	ORIENT_START	n/a	n/a	n/a	-999	9	[0, 0, 0]	n/a	FR1	2	R1302M
1228.336	0.001	1228728	ORIENT_END	n/a	n/a	n/a	-999	9	[0, 0, 0]	n/a	FR1	2	R1302M
1228.337	0.85	1228729	ENCODING_START	n/a	n/a	n/a	-999	9	[0, 0, 0]	n/a	FR1	2	R1302M
1229.187	1.631	1229579	WORD	n/a	n/a	SALT	1	9	[0, 0, 0]	n/a	FR1	2	R1302M
1230.818	0.954	1231210	WORD_OFF	n/a	n/a	SALT	1	9	[0, 0, 0]	n/a	FR1	2	R1302M
1231.772	1.631	1232164	WORD	n/a	n/a	GATE	2	9	[0, 0, 0]	n/a	FR1	2	R1302M
1233.403	1.006	1233795	WORD_OFF	n/a	n/a	GATE	2	9	[0, 0, 0]	n/a	FR1	2	R1302M
1234.409	1.627	1234801	WORD	n/a	n/a	DIME	3	9	[0, 0, 0]	n/a	FR1	2	R1302M
1236.036	0.759	1236428	WORD_OFF	n/a	n/a	DIME	3	9	[0, 0, 0]	n/a	FR1	2	R1302M
1236.795	1.626	1237187	WORD	n/a	n/a	PIG	4	9	[0, 0, 0]	n/a	FR1	2	R1302M
1238.421	0.997	1238813	WORD_OFF	n/a	n/a	PIG	4	9	[0, 0, 0]	n/a	FR1	2	R1302M
1239.418	1.636	1239810	WORD	n/a	n/a	FORK	5	9	[0, 0, 0]	n/a	FR1	2	R1302M
1241.054	1.076	1241446	WORD_OFF	n/a	n/a	FORK	5	9	[0, 0, 0]	n/a	FR1	2	R1302M
1242.13	1.624	1242522	WORD	n/a	n/a	PEAR	6	9	[0, 0, 0]	n/a	FR1	2	R1302M
1243.754	0.851	1244146	WORD_OFF	n/a	n/a	PEAR	6	9	[0, 0, 0]	n/a	FR1	2	R1302M
1244.605	1.634	1244996	WORD	n/a	n/a	FLEA	7	9	[0, 0, 0]	n/a	FR1	2	R1302M
1246.239	0.817	1246630	WORD_OFF	n/a	n/a	FLEA	7	9	[0, 0, 0]	n/a	FR1	2	R1302M
1247.056	1.632	1247447	WORD	n/a	n/a	FUDGE	8	9	[0, 0, 0]	n/a	FR1	2	R1302M
1248.688	0.912	1249079	WORD_OFF	n/a	n/a	FUDGE	8	9	[0, 0, 0]	n/a	FR1	2	R1302M
1249.6	1.623	1249991	WORD	n/a	n/a	ROAD	9	9	[0, 0, 0]	n/a	FR1	2	R1302M
1251.223	1.016	1251614	WORD_OFF	n/a	n/a	ROAD	9	9	[0, 0, 0]	n/a	FR1	2	R1302M
1252.239	1.634	1252630	WORD	n/a	n/a	SHELL	10	9	[0, 0, 0]	n/a	FR1	2	R1302M
1253.873	0.782	1254264	WORD_OFF	n/a	n/a	SHELL	10	9	[0, 0, 0]	n/a	FR1	2	R1302M
1254.655	1.636	1255046	WORD	n/a	n/a	HAT	11	9	[0, 0, 0]	n/a	FR1	2	R1302M
1256.291	0.974	1256682	WORD_OFF	n/a	n/a	HAT	11	9	[0, 0, 0]	n/a	FR1	2	R1302M
1257.265	1.625	1257656	WORD	n/a	n/a	JAIL	12	9	[0, 0, 0]	n/a	FR1	2	R1302M
1258.89	0.001	1259281	WORD_OFF	n/a	n/a	JAIL	12	9	[0, 0, 0]	n/a	FR1	2	R1302M
1258.891	0.001	1259282	ENCODING_END	n/a	n/a	n/a	-999	9	[0, 0, 0]	n/a	FR1	2	R1302M
1258.892	0.001	1259283	DISTRACT_START	n/a	n/a	n/a	-999	9	[0, 0, 0]	n/a	FR1	2	R1302M
1258.893	0.014	1259284	START	n/a	n/a	n/a	-999	9	[-999, -999, -999]	n/a	FR1	2	R1302M
1258.907	3.684	1259298	PROB	3.684	n/a	n/a	-999	9	[7, 8, 8]	20	FR1	2	R1302M
1262.591	4.752	1262982	PROB	4.752	n/a	n/a	-999	9	[2, 6, 7]	16	FR1	2	R1302M
1267.343	4.566	1267733	PROB	4.566	n/a	n/a	-999	9	[6, 3, 5]	14	FR1	2	R1302M
1271.909	10.519	1272299	PROB	10.519	n/a	n/a	-999	9	[6, 7, 8]	21	FR1	2	R1302M
1282.428	0.018	1282818	STOP	n/a	n/a	n/a	-999	9	[-999, -999, -999]	n/a	FR1	2	R1302M
1282.446	0.56	1282836	DISTRACT_END	n/a	n/a	n/a	-999	9	[0, 0, 0]	n/a	FR1	2	R1302M
1283.006	1.556	1283396	RETRIEVAL_ORIENT_START	n/a	n/a	n/a	-999	9	[0, 0, 0]	n/a	FR1	2	R1302M
1284.562	0.001	1284952	RETRIEVAL_ORIENT_END	n/a	n/a	n/a	-999	9	[0, 0, 0]	n/a	FR1	2	R1302M
1284.563	1.23	1284953	REC_START	n/a	n/a	n/a	-999	9	[0, 0, 0]	n/a	FR1	2	R1302M
1285.793	1.251	1286183	REC_WORD	1.251	n/a	SALT	1	9	[0, 0, 0]	n/a	FR1	2	R1302M
1287.044	0.687	1287434	REC_WORD	0.687	n/a	GATE	2	9	[0, 0, 0]	n/a	FR1	2	R1302M
1287.731	1.527	1288121	REC_WORD	1.527	n/a	DIME	3	9	[0, 0, 0]	n/a	FR1	2	R1302M
1289.258	16.748	1289647	REC_WORD	16.748	n/a	BRIDGE	-999	9	[0, 0, 0]	n/a	FR1	2	R1302M
1306.006	8.569	1306395	REC_WORD	8.569	n/a	HOOK	-999	9	[0, 0, 0]	n/a	FR1	2	R1302M
1314.575	0.001	1314963	REC_END	n/a	n/a	n/a	-999	9	[0, 0, 0]	n/a	FR1	2	R1302M
1314.576	0.015	1314964	TRIAL_END	n/a	n/a	n/a	-999	9	[0, 0, 0]	n/a	FR1	2	R1302M
1314.591	0.001	1314979	TRIAL_START	n/a	n/a	n/a	-999	10	[0, 0, 0]	n/a	FR1	2	R1302M
1314.592	0.0	1314980	TRIAL	n/a	n/a	n/a	-999	10	[0, 0, 0]	n/a	FR1	2	R1302M
1314.592	5.21	1314980	WAITING_START	n/a	n/a	n/a	-999	10	[0, 0, 0]	n/a	FR1	2	R1302M
1319.802	0.001	1320190	WAITING_END	n/a	n/a	n/a	-999	10	[0, 0, 0]	n/a	FR1	2	R1302M
1319.803	10.429	1320191	COUNTDOWN_START	n/a	n/a	n/a	-999	10	[0, 0, 0]	n/a	FR1	2	R1302M
1330.232	0.001	1330620	COUNTDOWN_END	n/a	n/a	n/a	-999	10	[0, 0, 0]	n/a	FR1	2	R1302M
1330.233	1.222	1330621	ORIENT_START	n/a	n/a	n/a	-999	10	[0, 0, 0]	n/a	FR1	2	R1302M
1331.455	0.001	1331843	ORIENT_END	n/a	n/a	n/a	-999	10	[0, 0, 0]	n/a	FR1	2	R1302M
1331.456	1.108	1331844	ENCODING_START	n/a	n/a	n/a	-999	10	[0, 0, 0]	n/a	FR1	2	R1302M
1332.564	1.624	1332951	WORD	n/a	n/a	RAKE	1	10	[0, 0, 0]	n/a	FR1	2	R1302M
1334.188	1.142	1334575	WORD_OFF	n/a	n/a	RAKE	1	10	[0, 0, 0]	n/a	FR1	2	R1302M
1335.33	1.625	1335717	WORD	n/a	n/a	LEG	2	10	[0, 0, 0]	n/a	FR1	2	R1302M
1336.955	0.92	1337342	WORD_OFF	n/a	n/a	LEG	2	10	[0, 0, 0]	n/a	FR1	2	R1302M
1337.875	1.632	1338262	WORD	n/a	n/a	YARD	3	10	[0, 0, 0]	n/a	FR1	2	R1302M
1339.507	0.836	1339894	WORD_OFF	n/a	n/a	YARD	3	10	[0, 0, 0]	n/a	FR1	2	R1302M
1340.343	1.63	1340730	WORD	n/a	n/a	WHALE	4	10	[0, 0, 0]	n/a	FR1	2	R1302M
1341.973	1.017	1342360	WORD_OFF	n/a	n/a	WHALE	4	10	[0, 0, 0]	n/a	FR1	2	R1302M
1342.99	1.633	1343377	WORD	n/a	n/a	MOON	5	10	[0, 0, 0]	n/a	FR1	2	R1302M
1344.623	0.76	1345010	WORD_OFF	n/a	n/a	MOON	5	10	[0, 0, 0]	n/a	FR1	2	R1302M
1345.383	1.624	1345770	WORD	n/a	n/a	FOOT	6	10	[0, 0, 0]	n/a	FR1	2	R1302M
1347.007	0.787	1347394	WORD_OFF	n/a	n/a	FOOT	6	10	[0, 0, 0]	n/a	FR1	2	R1302M
1347.794	1.614	1348181	WORD	n/a	n/a	LAMP	7	10	[0, 0, 0]	n/a	FR1	2	R1302M
1349.408	1.115	1349795	WORD_OFF	n/a	n/a	LAMP	7	10	[0, 0, 0]	n/a	FR1	2	R1302M
1350.523	1.635	1350910	WORD	n/a	n/a	SMILE	8	10	[0, 0, 0]	n/a	FR1	2	R1302M
1352.158	1.06	1352545	WORD_OFF	n/a	n/a	SMILE	8	10	[0, 0, 0]	n/a	FR1	2	R1302M
1353.218	1.624	1353605	WORD	n/a	n/a	SPRING	9	10	[0, 0, 0]	n/a	FR1	2	R1302M
1354.842	0.839	1355228	WORD_OFF	n/a	n/a	SPRING	9	10	[0, 0, 0]	n/a	FR1	2	R1302M
1355.681	1.613	1356067	WORD	n/a	n/a	BUSH	10	10	[0, 0, 0]	n/a	FR1	2	R1302M
1357.294	0.836	1357680	WORD_OFF	n/a	n/a	BUSH	10	10	[0, 0, 0]	n/a	FR1	2	R1302M
1358.13	1.63	1358516	WORD	n/a	n/a	VASE	11	10	[0, 0, 0]	n/a	FR1	2	R1302M
1359.76	0.964	1360146	WORD_OFF	n/a	n/a	VASE	11	10	[0, 0, 0]	n/a	FR1	2	R1302M
1360.724	1.621	1361110	WORD	n/a	n/a	FOX	12	10	[0, 0, 0]	n/a	FR1	2	R1302M
1362.345	0.001	1362731	WORD_OFF	n/a	n/a	FOX	12	10	[0, 0, 0]	n/a	FR1	2	R1302M
1362.346	0.0	1362732	ENCODING_END	n/a	n/a	n/a	-999	10	[0, 0, 0]	n/a	FR1	2	R1302M
1362.346	0.001	1362732	DISTRACT_START	n/a	n/a	n/a	-999	10	[0, 0, 0]	n/a	FR1	2	R1302M
1362.347	0.014	1362733	START	n/a	n/a	n/a	-999	10	[-999, -999, -999]	n/a	FR1	2	R1302M
1362.361	3.383	1362747	PROB	3.383	n/a	n/a	-999	10	[6, 6, 5]	17	FR1	2	R1302M
1365.744	2.817	1366130	PROB	2.817	n/a	n/a	-999	10	[2, 7, 2]	11	FR1	2	R1302M
1368.561	5.418	1368947	PROB	5.418	n/a	n/a	-999	10	[4, 1, 9]	14	FR1	2	R1302M
1373.979	3.0	1374365	PROB	3.0	n/a	n/a	-999	10	[6, 5, 1]	12	FR1	2	R1302M
1376.979	3.168	1377364	PROB	3.168	n/a	n/a	-999	10	[3, 1, 5]	9	FR1	2	R1302M
1380.147	5.523	1380532	PROB	5.523	n/a	n/a	-999	10	[1, 7, 5]	13	FR1	2	R1302M
1385.67	0.011	1386055	STOP	n/a	n/a	n/a	-999	10	[-999, -999, -999]	n/a	FR1	2	R1302M
1385.681	0.6	1386066	DISTRACT_END	n/a	n/a	n/a	-999	10	[0, 0, 0]	n/a	FR1	2	R1302M
1386.281	1.668	1386666	RETRIEVAL_ORIENT_START	n/a	n/a	n/a	-999	10	[0, 0, 0]	n/a	FR1	2	R1302M
1387.949	0.0	1388334	RETRIEVAL_ORIENT_END	n/a	n/a	n/a	-999	10	[0, 0, 0]	n/a	FR1	2	R1302M
1387.949	0.575	1388334	REC_START	n/a	n/a	n/a	-999	10	[0, 0, 0]	n/a	FR1	2	R1302M
1388.524	2.181	1388909	REC_WORD	2.181	n/a	VASE	11	10	[0, 0, 0]	n/a	FR1	2	R1302M
1390.705	0.978	1391090	REC_WORD	0.978	n/a	GATE	-999	10	[0, 0, 0]	n/a	FR1	2	R1302M
1391.683	1.511	1392068	REC_WORD	1.511	n/a	DIME	-999	10	[0, 0, 0]	n/a	FR1	2	R1302M
1393.194	3.207	1393579	REC_WORD	3.207	n/a	BRIDGE	-999	10	[0, 0, 0]	n/a	FR1	2	R1302M
1396.401	2.509	1396786	REC_WORD	2.509	n/a	SALT	-999	10	[0, 0, 0]	n/a	FR1	2	R1302M
1398.91	3.495	1399294	REC_WORD	3.495	n/a	HOOK	-999	10	[0, 0, 0]	n/a	FR1	2	R1302M
1402.405	3.126	1402789	REC_WORD	3.126	n/a	VASE	11	10	[0, 0, 0]	n/a	FR1	2	R1302M
1405.531	4.416	1405915	REC_WORD	4.416	n/a	FOOT	6	10	[0, 0, 0]	n/a	FR1	2	R1302M
1409.947	8.014	1410331	REC_WORD	8.014	n/a	LEG	2	10	[0, 0, 0]	n/a	FR1	2	R1302M
1417.961	0.001	1418345	REC_END	n/a	n/a	n/a	-999	10	[0, 0, 0]	n/a	FR1	2	R1302M
1417.962	0.014	1418346	TRIAL_END	n/a	n/a	n/a	-999	10	[0, 0, 0]	n/a	FR1	2	R1302M
1417.976	0.0	1418360	TRIAL	n/a	n/a	n/a	-999	11	[0, 0, 0]	n/a	FR1	2	R1302M
1417.976	0.001	1418360	TRIAL_START	n/a	n/a	n/a	-999	11	[0, 0, 0]	n/a	FR1	2	R1302M
1417.977	5.195	1418361	WAITING_START	n/a	n/a	n/a	-999	11	[0, 0, 0]	n/a	FR1	2	R1302M
1423.172	0.001	1423555	WAITING_END	n/a	n/a	n/a	-999	11	[0, 0, 0]	n/a	FR1	2	R1302M
1423.173	10.429	1423556	COUNTDOWN_START	n/a	n/a	n/a	-999	11	[0, 0, 0]	n/a	FR1	2	R1302M
1433.602	0.001	1433985	COUNTDOWN_END	n/a	n/a	n/a	-999	11	[0, 0, 0]	n/a	FR1	2	R1302M
1433.603	1.254	1433986	ORIENT_START	n/a	n/a	n/a	-999	11	[0, 0, 0]	n/a	FR1	2	R1302M
1434.857	0.001	1435240	ORIENT_END	n/a	n/a	n/a	-999	11	[0, 0, 0]	n/a	FR1	2	R1302M
1434.858	0.788	1435241	ENCODING_START	n/a	n/a	n/a	-999	11	[0, 0, 0]	n/a	FR1	2	R1302M
1435.646	1.63	1436029	WORD	n/a	n/a	INK	1	11	[0, 0, 0]	n/a	FR1	2	R1302M
1437.276	0.926	1437659	WORD_OFF	n/a	n/a	INK	1	11	[0, 0, 0]	n/a	FR1	2	R1302M
1438.202	1.623	1438585	WORD	n/a	n/a	PEACH	2	11	[0, 0, 0]	n/a	FR1	2	R1302M
1439.825	0.885	1440208	WORD_OFF	n/a	n/a	PEACH	2	11	[0, 0, 0]	n/a	FR1	2	R1302M
1440.71	1.616	1441092	WORD	n/a	n/a	FARM	3	11	[0, 0, 0]	n/a	FR1	2	R1302M
1442.326	1.048	1442708	WORD_OFF	n/a	n/a	FARM	3	11	[0, 0, 0]	n/a	FR1	2	R1302M
1443.374	1.635	1443756	WORD	n/a	n/a	NEST	4	11	[0, 0, 0]	n/a	FR1	2	R1302M
1445.009	0.859	1445391	WORD_OFF	n/a	n/a	NEST	4	11	[0, 0, 0]	n/a	FR1	2	R1302M
1445.868	1.626	1446250	WORD	n/a	n/a	STRING	5	11	[0, 0, 0]	n/a	FR1	2	R1302M
1447.494	0.936	1447876	WORD_OFF	n/a	n/a	STRING	5	11	[0, 0, 0]	n/a	FR1	2	R1302M
1448.43	1.63	1448812	WORD	n/a	n/a	BED	6	11	[0, 0, 0]	n/a	FR1	2	R1302M
1450.06	1.137	1450442	WORD_OFF	n/a	n/a	BED	6	11	[0, 0, 0]	n/a	FR1	2	R1302M
1451.197	1.631	1451579	WORD	n/a	n/a	BAT	7	11	[0, 0, 0]	n/a	FR1	2	R1302M
1452.828	0.834	1453210	WORD_OFF	n/a	n/a	BAT	7	11	[0, 0, 0]	n/a	FR1	2	R1302M
1453.662	1.634	1454044	WORD	n/a	n/a	STONE	8	11	[0, 0, 0]	n/a	FR1	2	R1302M
1455.296	1.122	1455678	WORD_OFF	n/a	n/a	STONE	8	11	[0, 0, 0]	n/a	FR1	2	R1302M
1456.418	1.627	1456800	WORD	n/a	n/a	TOOTH	9	11	[0, 0, 0]	n/a	FR1	2	R1302M
1458.045	0.887	1458427	WORD_OFF	n/a	n/a	TOOTH	9	11	[0, 0, 0]	n/a	FR1	2	R1302M
1458.932	1.63	1459314	WORD	n/a	n/a	MULE	10	11	[0, 0, 0]	n/a	FR1	2	R1302M
1460.562	0.871	1460944	WORD_OFF	n/a	n/a	MULE	10	11	[0, 0, 0]	n/a	FR1	2	R1302M
1461.433	1.63	1461815	WORD	n/a	n/a	SINK	11	11	[0, 0, 0]	n/a	FR1	2	R1302M
1463.063	0.756	1463444	WORD_OFF	n/a	n/a	SINK	11	11	[0, 0, 0]	n/a	FR1	2	R1302M
1463.819	1.629	1464200	WORD	n/a	n/a	STORM	12	11	[0, 0, 0]	n/a	FR1	2	R1302M
1465.448	0.001	1465829	WORD_OFF	n/a	n/a	STORM	12	11	[0, 0, 0]	n/a	FR1	2	R1302M
1465.449	0.0	1465830	ENCODING_END	n/a	n/a	n/a	-999	11	[0, 0, 0]	n/a	FR1	2	R1302M
1465.449	0.001	1465830	DISTRACT_START	n/a	n/a	n/a	-999	11	[0, 0, 0]	n/a	FR1	2	R1302M
1465.45	0.014	1465831	START	n/a	n/a	n/a	-999	11	[-999, -999, -999]	n/a	FR1	2	R1302M
1465.464	10.802	1465845	PROB	10.802	n/a	n/a	-999	11	[5, 6, 9]	20	FR1	2	R1302M
1476.266	3.3	1476647	PROB	3.3	n/a	n/a	-999	11	[1, 3, 6]	10	FR1	2	R1302M
1479.566	3.501	1479947	PROB	3.501	n/a	n/a	-999	11	[2, 7, 2]	11	FR1	2	R1302M
1483.067	4.185	1483448	PROB	4.185	n/a	n/a	-999	11	[3, 5, 7]	15	FR1	2	R1302M
1487.252	0.017	1487632	STOP	n/a	n/a	n/a	-999	11	[-999, -999, -999]	n/a	FR1	2	R1302M
1487.269	0.52	1487649	DISTRACT_END	n/a	n/a	n/a	-999	11	[0, 0, 0]	n/a	FR1	2	R1302M
1487.789	1.547	1488169	RETRIEVAL_ORIENT_START	n/a	n/a	n/a	-999	11	[0, 0, 0]	n/a	FR1	2	R1302M
1489.336	0.001	1489716	RETRIEVAL_ORIENT_END	n/a	n/a	n/a	-999	11	[0, 0, 0]	n/a	FR1	2	R1302M
1489.337	4.393	1489717	REC_START	n/a	n/a	n/a	-999	11	[0, 0, 0]	n/a	FR1	2	R1302M
1493.73	0.588	1494110	REC_WORD	0.588	n/a	BOAT	-999	11	[0, 0, 0]	n/a	FR1	2	R1302M
1494.318	0.594	1494698	REC_WORD	0.594	n/a	BAT	7	11	[0, 0, 0]	n/a	FR1	2	R1302M
1494.912	1.954	1495292	REC_WORD	1.954	n/a	VASE	-999	11	[0, 0, 0]	n/a	FR1	2	R1302M
1496.866	0.664	1497246	REC_WORD	0.664	n/a	HOOK	-999	11	[0, 0, 0]	n/a	FR1	2	R1302M
1497.53	3.39	1497910	REC_WORD	3.39	n/a	STONE	8	11	[0, 0, 0]	n/a	FR1	2	R1302M
1500.92	12.476	1501300	REC_WORD	12.476	n/a	FUEL	-999	11	[0, 0, 0]	n/a	FR1	2	R1302M
1513.396	5.951	1513775	REC_WORD	5.951	n/a	STONE	8	11	[0, 0, 0]	n/a	FR1	2	R1302M
1519.347	0.001	1519726	REC_END	n/a	n/a	n/a	-999	11	[0, 0, 0]	n/a	FR1	2	R1302M
1519.348	0.015	1519727	TRIAL_END	n/a	n/a	n/a	-999	11	[0, 0, 0]	n/a	FR1	2	R1302M
1519.363	0.001	1519742	TRIAL_START	n/a	n/a	n/a	-999	12	[0, 0, 0]	n/a	FR1	2	R1302M
1519.364	0.001	1519743	TRIAL	n/a	n/a	n/a	-999	12	[0, 0, 0]	n/a	FR1	2	R1302M
1519.365	6.493	1519744	WAITING_START	n/a	n/a	n/a	-999	12	[0, 0, 0]	n/a	FR1	2	R1302M
1525.858	0.001	1526237	WAITING_END	n/a	n/a	n/a	-999	12	[0, 0, 0]	n/a	FR1	2	R1302M
1525.859	10.43	1526238	COUNTDOWN_START	n/a	n/a	n/a	-999	12	[0, 0, 0]	n/a	FR1	2	R1302M
1536.289	0.001	1536667	COUNTDOWN_END	n/a	n/a	n/a	-999	12	[0, 0, 0]	n/a	FR1	2	R1302M
1536.29	1.088	1536668	ORIENT_START	n/a	n/a	n/a	-999	12	[0, 0, 0]	n/a	FR1	2	R1302M
1537.378	0.001	1537756	ORIENT_END	n/a	n/a	n/a	-999	12	[0, 0, 0]	n/a	FR1	2	R1302M
1537.379	1.089	1537757	ENCODING_START	n/a	n/a	n/a	-999	12	[0, 0, 0]	n/a	FR1	2	R1302M
1538.468	1.626	1538846	WORD	n/a	n/a	CHIN	1	12	[0, 0, 0]	n/a	FR1	2	R1302M
1540.094	1.018	1540472	WORD_OFF	n/a	n/a	CHIN	1	12	[0, 0, 0]	n/a	FR1	2	R1302M
1541.112	1.633	1541490	WORD	n/a	n/a	COW	2	12	[0, 0, 0]	n/a	FR1	2	R1302M
1542.745	0.851	1543123	WORD_OFF	n/a	n/a	COW	2	12	[0, 0, 0]	n/a	FR1	2	R1302M
1543.596	1.634	1543974	WORD	n/a	n/a	CHALK	3	12	[0, 0, 0]	n/a	FR1	2	R1302M
1545.23	0.813	1545608	WORD_OFF	n/a	n/a	CHALK	3	12	[0, 0, 0]	n/a	FR1	2	R1302M
1546.043	1.636	1546421	WORD	n/a	n/a	PLATE	4	12	[0, 0, 0]	n/a	FR1	2	R1302M
1547.679	0.882	1548057	WORD_OFF	n/a	n/a	PLATE	4	12	[0, 0, 0]	n/a	FR1	2	R1302M
1548.561	1.635	1548939	WORD	n/a	n/a	HEN	5	12	[0, 0, 0]	n/a	FR1	2	R1302M
1550.196	1.039	1550573	WORD_OFF	n/a	n/a	HEN	5	12	[0, 0, 0]	n/a	FR1	2	R1302M
1551.235	1.628	1551612	WORD	n/a	n/a	CLOUD	6	12	[0, 0, 0]	n/a	FR1	2	R1302M
1552.863	0.826	1553240	WORD_OFF	n/a	n/a	CLOUD	6	12	[0, 0, 0]	n/a	FR1	2	R1302M
1553.689	1.626	1554066	WORD	n/a	n/a	LOCK	7	12	[0, 0, 0]	n/a	FR1	2	R1302M
1555.315	0.887	1555692	WORD_OFF	n/a	n/a	LOCK	7	12	[0, 0, 0]	n/a	FR1	2	R1302M
1556.202	1.629	1556579	WORD	n/a	n/a	BAND	8	12	[0, 0, 0]	n/a	FR1	2	R1302M
1557.831	0.826	1558208	WORD_OFF	n/a	n/a	BAND	8	12	[0, 0, 0]	n/a	FR1	2	R1302M
1558.657	1.609	1559034	WORD	n/a	n/a	SLUSH	9	12	[0, 0, 0]	n/a	FR1	2	R1302M
1560.266	1.067	1560643	WORD_OFF	n/a	n/a	SLUSH	9	12	[0, 0, 0]	n/a	FR1	2	R1302M
1561.333	1.633	1561710	WORD	n/a	n/a	PRINCE	10	12	[0, 0, 0]	n/a	FR1	2	R1302M
1562.966	0.948	1563343	WORD_OFF	n/a	n/a	PRINCE	10	12	[0, 0, 0]	n/a	FR1	2	R1302M
1563.914	1.62	1564291	WORD	n/a	n/a	SNAIL	11	12	[0, 0, 0]	n/a	FR1	2	R1302M
1565.534	0.792	1565911	WORD_OFF	n/a	n/a	SNAIL	11	12	[0, 0, 0]	n/a	FR1	2	R1302M
1566.326	1.624	1566703	WORD	n/a	n/a	SHEEP	12	12	[0, 0, 0]	n/a	FR1	2	R1302M
1567.95	0.001	1568327	WORD_OFF	n/a	n/a	SHEEP	12	12	[0, 0, 0]	n/a	FR1	2	R1302M
1567.951	0.001	1568328	ENCODING_END	n/a	n/a	n/a	-999	12	[0, 0, 0]	n/a	FR1	2	R1302M
1567.952	0.0	1568329	DISTRACT_START	n/a	n/a	n/a	-999	12	[0, 0, 0]	n/a	FR1	2	R1302M
1567.952	0.014	1568329	START	n/a	n/a	n/a	-999	12	[-999, -999, -999]	n/a	FR1	2	R1302M
1567.966	6.852	1568343	PROB	6.852	n/a	n/a	-999	12	[2, 6, 3]	11	FR1	2	R1302M
1574.818	3.418	1575194	PROB	3.418	n/a	n/a	-999	12	[2, 4, 9]	14	FR1	2	R1302M
1578.236	7.5	1578612	PROB	7.5	n/a	n/a	-999	12	[6, 8, 7]	21	FR1	2	R1302M
1585.736	7.091	1586112	PROB	7.091	n/a	n/a	-999	12	[7, 8, 5]	20	FR1	2	R1302M
1592.827	0.011	1593203	STOP	n/a	n/a	n/a	-999	12	[-999, -999, -999]	n/a	FR1	2	R1302M
1592.838	0.608	1593214	DISTRACT_END	n/a	n/a	n/a	-999	12	[0, 0, 0]	n/a	FR1	2	R1302M
1593.446	1.592	1593822	RETRIEVAL_ORIENT_START	n/a	n/a	n/a	-999	12	[0, 0, 0]	n/a	FR1	2	R1302M
1595.038	0.001	1595413	RETRIEVAL_ORIENT_END	n/a	n/a	n/a	-999	12	[0, 0, 0]	n/a	FR1	2	R1302M
1595.039	0.781	1595414	REC_START	n/a	n/a	n/a	-999	12	[0, 0, 0]	n/a	FR1	2	R1302M
1595.82	0.784	1596195	REC_WORD	0.784	n/a	CHIN	1	12	[0, 0, 0]	n/a	FR1	2	R1302M
1596.604	0.742	1596979	REC_WORD	0.742	n/a	COW	2	12	[0, 0, 0]	n/a	FR1	2	R1302M
1597.346	0.751	1597721	REC_WORD	0.751	n/a	CHALK	3	12	[0, 0, 0]	n/a	FR1	2	R1302M
1598.097	0.439	1598472	REC_WORD	0.439	n/a	BAND	8	12	[0, 0, 0]	n/a	FR1	2	R1302M
1598.536	7.639	1598911	REC_WORD	7.639	n/a	SNAIL	11	12	[0, 0, 0]	n/a	FR1	2	R1302M
1606.175	18.877	1606550	REC_WORD	18.877	n/a	FACE	-999	12	[0, 0, 0]	n/a	FR1	2	R1302M
1625.052	0.0	1625426	REC_END	n/a	n/a	n/a	-999	12	[0, 0, 0]	n/a	FR1	2	R1302M
1625.052	0.017	1625426	TRIAL_END	n/a	n/a	n/a	-999	12	[0, 0, 0]	n/a	FR1	2	R1302M
1625.069	0.001	1625443	TRIAL_START	n/a	n/a	n/a	-999	13	[0, 0, 0]	n/a	FR1	2	R1302M
1625.07	0.0	1625444	TRIAL	n/a	n/a	n/a	-999	13	[0, 0, 0]	n/a	FR1	2	R1302M
1625.07	2.708	1625444	WAITING_START	n/a	n/a	n/a	-999	13	[0, 0, 0]	n/a	FR1	2	R1302M
1627.778	0.001	1628152	WAITING_END	n/a	n/a	n/a	-999	13	[0, 0, 0]	n/a	FR1	2	R1302M
1627.779	10.429	1628153	COUNTDOWN_START	n/a	n/a	n/a	-999	13	[0, 0, 0]	n/a	FR1	2	R1302M
1638.208	0.001	1638581	COUNTDOWN_END	n/a	n/a	n/a	-999	13	[0, 0, 0]	n/a	FR1	2	R1302M
1638.209	1.105	1638582	ORIENT_START	n/a	n/a	n/a	-999	13	[0, 0, 0]	n/a	FR1	2	R1302M
1639.314	0.001	1639687	ORIENT_END	n/a	n/a	n/a	-999	13	[0, 0, 0]	n/a	FR1	2	R1302M
1639.315	1.116	1639688	ENCODING_START	n/a	n/a	n/a	-999	13	[0, 0, 0]	n/a	FR1	2	R1302M
1640.431	1.633	1640804	WORD	n/a	n/a	MOLE	1	13	[0, 0, 0]	n/a	FR1	2	R1302M
1642.064	0.898	1642437	WORD_OFF	n/a	n/a	MOLE	1	13	[0, 0, 0]	n/a	FR1	2	R1302M
1642.962	1.636	1643335	WORD	n/a	n/a	BOWL	2	13	[0, 0, 0]	n/a	FR1	2	R1302M
1644.598	1.027	1644971	WORD_OFF	n/a	n/a	BOWL	2	13	[0, 0, 0]	n/a	FR1	2	R1302M
1645.625	1.608	1645998	WORD	n/a	n/a	DRESS	3	13	[0, 0, 0]	n/a	FR1	2	R1302M
1647.233	1.144	1647606	WORD_OFF	n/a	n/a	DRESS	3	13	[0, 0, 0]	n/a	FR1	2	R1302M
1648.377	1.622	1648750	WORD	n/a	n/a	ICE	4	13	[0, 0, 0]	n/a	FR1	2	R1302M
1649.999	1.141	1650372	WORD_OFF	n/a	n/a	ICE	4	13	[0, 0, 0]	n/a	FR1	2	R1302M
1651.14	1.626	1651513	WORD	n/a	n/a	TRAY	5	13	[0, 0, 0]	n/a	FR1	2	R1302M
1652.766	0.984	1653139	WORD_OFF	n/a	n/a	TRAY	5	13	[0, 0, 0]	n/a	FR1	2	R1302M
1653.75	1.634	1654123	WORD	n/a	n/a	VEST	6	13	[0, 0, 0]	n/a	FR1	2	R1302M
1655.384	1.054	1655757	WORD_OFF	n/a	n/a	VEST	6	13	[0, 0, 0]	n/a	FR1	2	R1302M
1656.438	1.629	1656811	WORD	n/a	n/a	DRUM	7	13	[0, 0, 0]	n/a	FR1	2	R1302M
1658.067	0.881	1658440	WORD_OFF	n/a	n/a	DRUM	7	13	[0, 0, 0]	n/a	FR1	2	R1302M
1658.948	1.636	1659321	WORD	n/a	n/a	SEAT	8	13	[0, 0, 0]	n/a	FR1	2	R1302M
1660.584	0.996	1660956	WORD_OFF	n/a	n/a	SEAT	8	13	[0, 0, 0]	n/a	FR1	2	R1302M
1661.58	1.621	1661952	WORD	n/a	n/a	BALL	9	13	[0, 0, 0]	n/a	FR1	2	R1302M
1663.201	0.938	1663573	WORD_OFF	n/a	n/a	BALL	9	13	[0, 0, 0]	n/a	FR1	2	R1302M
1664.139	1.63	1664511	WORD	n/a	n/a	MUG	10	13	[0, 0, 0]	n/a	FR1	2	R1302M
1665.769	0.788	1666141	WORD_OFF	n/a	n/a	MUG	10	13	[0, 0, 0]	n/a	FR1	2	R1302M
1666.557	1.629	1666929	WORD	n/a	n/a	ARK	11	13	[0, 0, 0]	n/a	FR1	2	R1302M
1668.186	0.917	1668558	WORD_OFF	n/a	n/a	ARK	11	13	[0, 0, 0]	n/a	FR1	2	R1302M
1669.103	1.633	1669475	WORD	n/a	n/a	JUDGE	12	13	[0, 0, 0]	n/a	FR1	2	R1302M
1670.736	0.001	1671108	WORD_OFF	n/a	n/a	JUDGE	12	13	[0, 0, 0]	n/a	FR1	2	R1302M
1670.737	0.001	1671109	ENCODING_END	n/a	n/a	n/a	-999	13	[0, 0, 0]	n/a	FR1	2	R1302M
1670.738	0.0	1671110	DISTRACT_START	n/a	n/a	n/a	-999	13	[0, 0, 0]	n/a	FR1	2	R1302M
1670.738	0.015	1671110	START	n/a	n/a	n/a	-999	13	[-999, -999, -999]	n/a	FR1	2	R1302M
1670.753	3.917	1671125	PROB	3.917	n/a	n/a	-999	13	[2, 1, 6]	9	FR1	2	R1302M
1674.67	4.518	1675042	PROB	4.518	n/a	n/a	-999	13	[8, 9, 9]	26	FR1	2	R1302M
1679.188	2.517	1679560	PROB	2.517	n/a	n/a	-999	13	[8, 8, 2]	18	FR1	2	R1302M
1681.705	3.735	1682076	PROB	3.735	n/a	n/a	-999	13	[5, 9, 9]	14	FR1	2	R1302M
1685.44	3.7	1685811	PROB	3.7	n/a	n/a	-999	13	[6, 5, 5]	16	FR1	2	R1302M
1689.14	5.944	1689511	PROB	5.944	n/a	n/a	-999	13	[1, 5, 7]	16	FR1	2	R1302M
1695.084	0.007	1695455	STOP	n/a	n/a	n/a	-999	13	[-999, -999, -999]	n/a	FR1	2	R1302M
1695.091	0.536	1695462	DISTRACT_END	n/a	n/a	n/a	-999	13	[0, 0, 0]	n/a	FR1	2	R1302M
1695.627	1.699	1695998	RETRIEVAL_ORIENT_START	n/a	n/a	n/a	-999	13	[0, 0, 0]	n/a	FR1	2	R1302M
1697.326	0.0	1697697	RETRIEVAL_ORIENT_END	n/a	n/a	n/a	-999	13	[0, 0, 0]	n/a	FR1	2	R1302M
1697.326	0.746	1697697	REC_START	n/a	n/a	n/a	-999	13	[0, 0, 0]	n/a	FR1	2	R1302M
1698.072	0.711	1698443	REC_WORD	0.711	n/a	MOLE	1	13	[0, 0, 0]	n/a	FR1	2	R1302M
1698.783	1.93	1699154	REC_WORD	1.93	n/a	BOWL	2	13	[0, 0, 0]	n/a	FR1	2	R1302M
1700.713	0.59	1701084	REC_WORD	0.59	n/a	CHECK	-999	13	[0, 0, 0]	n/a	FR1	2	R1302M
1701.303	2.049	1701674	REC_WORD	2.049	n/a	FACE	-999	13	[0, 0, 0]	n/a	FR1	2	R1302M
1703.352	2.569	1703722	REC_WORD	2.569	n/a	BASE	-999	13	[0, 0, 0]	n/a	FR1	2	R1302M
1705.921	13.794	1706291	REC_WORD	13.794	n/a	ARM	-999	13	[0, 0, 0]	n/a	FR1	2	R1302M
1719.715	0.496	1720085	REC_WORD	0.496	n/a	FACE	-999	13	[0, 0, 0]	n/a	FR1	2	R1302M
1720.211	2.956	1720581	REC_WORD	2.956	n/a	VASE	-999	13	[0, 0, 0]	n/a	FR1	2	R1302M
1723.167	4.171	1723537	REC_WORD	4.171	n/a	AXE	-999	13	[0, 0, 0]	n/a	FR1	2	R1302M
1727.338	0.001	1727707	REC_END	n/a	n/a	n/a	-999	13	[0, 0, 0]	n/a	FR1	2	R1302M
1727.339	0.014	1727708	TRIAL_END	n/a	n/a	n/a	-999	13	[0, 0, 0]	n/a	FR1	2	R1302M
1727.353	0.001	1727722	TRIAL_START	n/a	n/a	n/a	-999	14	[0, 0, 0]	n/a	FR1	2	R1302M
1727.354	0.0	1727723	TRIAL	n/a	n/a	n/a	-999	14	[0, 0, 0]	n/a	FR1	2	R1302M
1727.354	5.811	1727723	WAITING_START	n/a	n/a	n/a	-999	14	[0, 0, 0]	n/a	FR1	2	R1302M
1733.165	0.001	1733534	WAITING_END	n/a	n/a	n/a	-999	14	[0, 0, 0]	n/a	FR1	2	R1302M
1733.166	10.429	1733535	COUNTDOWN_START	n/a	n/a	n/a	-999	14	[0, 0, 0]	n/a	FR1	2	R1302M
1743.595	0.001	1743964	COUNTDOWN_END	n/a	n/a	n/a	-999	14	[0, 0, 0]	n/a	FR1	2	R1302M
1743.596	1.221	1743965	ORIENT_START	n/a	n/a	n/a	-999	14	[0, 0, 0]	n/a	FR1	2	R1302M
1744.817	0.001	1745186	ORIENT_END	n/a	n/a	n/a	-999	14	[0, 0, 0]	n/a	FR1	2	R1302M
1744.818	0.796	1745187	ENCODING_START	n/a	n/a	n/a	-999	14	[0, 0, 0]	n/a	FR1	2	R1302M
1745.614	1.621	1745983	WORD	n/a	n/a	MOUSE	1	14	[0, 0, 0]	n/a	FR1	2	R1302M
1747.235	0.984	1747603	WORD_OFF	n/a	n/a	MOUSE	1	14	[0, 0, 0]	n/a	FR1	2	R1302M
1748.219	1.632	1748587	WORD	n/a	n/a	SEED	2	14	[0, 0, 0]	n/a	FR1	2	R1302M
1749.851	0.843	1750219	WORD_OFF	n/a	n/a	SEED	2	14	[0, 0, 0]	n/a	FR1	2	R1302M
1750.694	1.626	1751062	WORD	n/a	n/a	CUP	3	14	[0, 0, 0]	n/a	FR1	2	R1302M
1752.32	0.792	1752688	WORD_OFF	n/a	n/a	CUP	3	14	[0, 0, 0]	n/a	FR1	2	R1302M
1753.112	1.624	1753480	WORD	n/a	n/a	CORD	4	14	[0, 0, 0]	n/a	FR1	2	R1302M
1754.736	0.876	1755104	WORD_OFF	n/a	n/a	CORD	4	14	[0, 0, 0]	n/a	FR1	2	R1302M
1755.612	1.625	1755980	WORD	n/a	n/a	BOAT	5	14	[0, 0, 0]	n/a	FR1	2	R1302M
1757.237	1.064	1757605	WORD_OFF	n/a	n/a	BOAT	5	14	[0, 0, 0]	n/a	FR1	2	R1302M
1758.301	1.636	1758669	WORD	n/a	n/a	FILM	6	14	[0, 0, 0]	n/a	FR1	2	R1302M
1759.937	0.927	1760305	WORD_OFF	n/a	n/a	FILM	6	14	[0, 0, 0]	n/a	FR1	2	R1302M
1760.864	1.624	1761232	WORD	n/a	n/a	TRAIN	7	14	[0, 0, 0]	n/a	FR1	2	R1302M
1762.488	1.014	1762856	WORD_OFF	n/a	n/a	TRAIN	7	14	[0, 0, 0]	n/a	FR1	2	R1302M
1763.502	1.636	1763870	WORD	n/a	n/a	STEAM	8	14	[0, 0, 0]	n/a	FR1	2	R1302M
1765.138	1.111	1765506	WORD_OFF	n/a	n/a	STEAM	8	14	[0, 0, 0]	n/a	FR1	2	R1302M
1766.249	1.623	1766617	WORD	n/a	n/a	CAT	9	14	[0, 0, 0]	n/a	FR1	2	R1302M
1767.872	0.932	1768240	WORD_OFF	n/a	n/a	CAT	9	14	[0, 0, 0]	n/a	FR1	2	R1302M
1768.804	1.636	1769171	WORD	n/a	n/a	CRANE	10	14	[0, 0, 0]	n/a	FR1	2	R1302M
1770.44	1.064	1770807	WORD_OFF	n/a	n/a	CRANE	10	14	[0, 0, 0]	n/a	FR1	2	R1302M
1771.504	1.635	1771871	WORD	n/a	n/a	TRUCK	11	14	[0, 0, 0]	n/a	FR1	2	R1302M
1773.139	1.001	1773506	WORD_OFF	n/a	n/a	TRUCK	11	14	[0, 0, 0]	n/a	FR1	2	R1302M
1774.14	1.633	1774507	WORD	n/a	n/a	SMOKE	12	14	[0, 0, 0]	n/a	FR1	2	R1302M
1775.773	0.001	1776140	WORD_OFF	n/a	n/a	SMOKE	12	14	[0, 0, 0]	n/a	FR1	2	R1302M
1775.774	0.0	1776141	ENCODING_END	n/a	n/a	n/a	-999	14	[0, 0, 0]	n/a	FR1	2	R1302M
1775.774	0.001	1776141	DISTRACT_START	n/a	n/a	n/a	-999	14	[0, 0, 0]	n/a	FR1	2	R1302M
1775.775	0.015	1776142	START	n/a	n/a	n/a	-999	14	[-999, -999, -999]	n/a	FR1	2	R1302M
1775.79	3.718	1776157	PROB	3.718	n/a	n/a	-999	14	[4, 1, 4]	9	FR1	2	R1302M
1779.508	3.516	1779875	PROB	3.516	n/a	n/a	-999	14	[3, 2, 1]	6	FR1	2	R1302M
1783.024	4.801	1783391	PROB	4.801	n/a	n/a	-999	14	[7, 6, 2]	15	FR1	2	R1302M
1787.825	5.218	1788192	PROB	5.218	n/a	n/a	-999	14	[2, 2, 3]	7	FR1	2	R1302M
1793.043	3.73	1793409	PROB	3.73	n/a	n/a	-999	14	[5, 6, 5]	16	FR1	2	R1302M
1796.773	0.021	1797139	STOP	n/a	n/a	n/a	-999	14	[-999, -999, -999]	n/a	FR1	2	R1302M
1796.794	0.507	1797160	DISTRACT_END	n/a	n/a	n/a	-999	14	[0, 0, 0]	n/a	FR1	2	R1302M
1797.301	1.543	1797667	RETRIEVAL_ORIENT_START	n/a	n/a	n/a	-999	14	[0, 0, 0]	n/a	FR1	2	R1302M
1798.844	0.001	1799210	RETRIEVAL_ORIENT_END	n/a	n/a	n/a	-999	14	[0, 0, 0]	n/a	FR1	2	R1302M
1798.845	0.528	1799211	REC_START	n/a	n/a	n/a	-999	14	[0, 0, 0]	n/a	FR1	2	R1302M
1799.373	1.084	1799739	REC_WORD	1.084	n/a	STEAM	8	14	[0, 0, 0]	n/a	FR1	2	R1302M
1800.457	1.405	1800823	REC_WORD	1.405	n/a	CAT	9	14	[0, 0, 0]	n/a	FR1	2	R1302M
1801.862	1.901	1802228	REC_WORD	1.901	n/a	CRANE	10	14	[0, 0, 0]	n/a	FR1	2	R1302M
1803.763	8.579	1804129	REC_WORD	8.579	n/a	TRUCK	11	14	[0, 0, 0]	n/a	FR1	2	R1302M
1812.342	0.767	1812707	REC_WORD_VV	0.767	n/a	<>	-999	14	[0, 0, 0]	n/a	FR1	2	R1302M
1813.109	1.148	1813474	REC_WORD_VV	1.148	n/a	<>	-999	14	[0, 0, 0]	n/a	FR1	2	R1302M
1814.257	1.774	1814622	REC_WORD_VV	1.774	n/a	<>	-999	14	[0, 0, 0]	n/a	FR1	2	R1302M
1816.031	12.826	1816396	REC_WORD_VV	12.826	n/a	<>	-999	14	[0, 0, 0]	n/a	FR1	2	R1302M
1828.857	0.001	1829222	REC_END	n/a	n/a	n/a	-999	14	[0, 0, 0]	n/a	FR1	2	R1302M
1828.858	0.017	1829223	TRIAL_END	n/a	n/a	n/a	-999	14	[0, 0, 0]	n/a	FR1	2	R1302M
1828.875	0.0	1829240	TRIAL_START	n/a	n/a	n/a	-999	15	[0, 0, 0]	n/a	FR1	2	R1302M
1828.875	0.001	1829240	TRIAL	n/a	n/a	n/a	-999	15	[0, 0, 0]	n/a	FR1	2	R1302M
1828.876	62.554	1829241	WAITING_START	n/a	n/a	n/a	-999	15	[0, 0, 0]	n/a	FR1	2	R1302M
1891.43	0.001	1891792	WAITING_END	n/a	n/a	n/a	-999	15	[0, 0, 0]	n/a	FR1	2	R1302M
1891.431	10.428	1891793	COUNTDOWN_START	n/a	n/a	n/a	-999	15	[0, 0, 0]	n/a	FR1	2	R1302M
1901.859	0.001	1902220	COUNTDOWN_END	n/a	n/a	n/a	-999	15	[0, 0, 0]	n/a	FR1	2	R1302M
1901.86	1.038	1902221	ORIENT_START	n/a	n/a	n/a	-999	15	[0, 0, 0]	n/a	FR1	2	R1302M
1902.898	0.001	1903259	ORIENT_END	n/a	n/a	n/a	-999	15	[0, 0, 0]	n/a	FR1	2	R1302M
1902.899	0.749	1903260	ENCODING_START	n/a	n/a	n/a	-999	15	[0, 0, 0]	n/a	FR1	2	R1302M
1903.648	1.618	1904009	WORD	n/a	n/a	NET	1	15	[0, 0, 0]	n/a	FR1	2	R1302M
1905.266	1.016	1905627	WORD_OFF	n/a	n/a	NET	1	15	[0, 0, 0]	n/a	FR1	2	R1302M
1906.282	1.633	1906643	WORD	n/a	n/a	MAT	2	15	[0, 0, 0]	n/a	FR1	2	R1302M
1907.915	1.068	1908276	WORD_OFF	n/a	n/a	MAT	2	15	[0, 0, 0]	n/a	FR1	2	R1302M
1908.983	1.633	1909344	WORD	n/a	n/a	CANE	3	15	[0, 0, 0]	n/a	FR1	2	R1302M
1910.616	0.951	1910977	WORD_OFF	n/a	n/a	CANE	3	15	[0, 0, 0]	n/a	FR1	2	R1302M
1911.567	1.633	1911928	WORD	n/a	n/a	ROSE	4	15	[0, 0, 0]	n/a	FR1	2	R1302M
1913.2	0.916	1913561	WORD_OFF	n/a	n/a	ROSE	4	15	[0, 0, 0]	n/a	FR1	2	R1302M
1914.116	1.634	1914477	WORD	n/a	n/a	PIPE	5	15	[0, 0, 0]	n/a	FR1	2	R1302M
1915.75	0.763	1916111	WORD_OFF	n/a	n/a	PIPE	5	15	[0, 0, 0]	n/a	FR1	2	R1302M
1916.513	1.621	1916874	WORD	n/a	n/a	PANTS	6	15	[0, 0, 0]	n/a	FR1	2	R1302M
1918.134	0.912	1918495	WORD_OFF	n/a	n/a	PANTS	6	15	[0, 0, 0]	n/a	FR1	2	R1302M
1919.046	1.638	1919407	WORD	n/a	n/a	WING	7	15	[0, 0, 0]	n/a	FR1	2	R1302M
1920.684	1.036	1921045	WORD_OFF	n/a	n/a	WING	7	15	[0, 0, 0]	n/a	FR1	2	R1302M
1921.72	1.616	1922080	WORD	n/a	n/a	SHIP	8	15	[0, 0, 0]	n/a	FR1	2	R1302M
1923.336	0.973	1923696	WORD_OFF	n/a	n/a	SHIP	8	15	[0, 0, 0]	n/a	FR1	2	R1302M
1924.309	1.626	1924669	WORD	n/a	n/a	FLUTE	9	15	[0, 0, 0]	n/a	FR1	2	R1302M
1925.935	0.811	1926295	WORD_OFF	n/a	n/a	FLUTE	9	15	[0, 0, 0]	n/a	FR1	2	R1302M
1926.746	1.607	1927106	WORD	n/a	n/a	DITCH	10	15	[0, 0, 0]	n/a	FR1	2	R1302M
1928.353	1.033	1928713	WORD_OFF	n/a	n/a	DITCH	10	15	[0, 0, 0]	n/a	FR1	2	R1302M
1929.386	1.634	1929746	WORD	n/a	n/a	NAIL	11	15	[0, 0, 0]	n/a	FR1	2	R1302M
1931.02	1.122	1931380	WORD_OFF	n/a	n/a	NAIL	11	15	[0, 0, 0]	n/a	FR1	2	R1302M
1932.142	1.628	1932502	WORD	n/a	n/a	PASTE	12	15	[0, 0, 0]	n/a	FR1	2	R1302M
1933.77	0.001	1934130	WORD_OFF	n/a	n/a	PASTE	12	15	[0, 0, 0]	n/a	FR1	2	R1302M
1933.771	0.001	1934131	ENCODING_END	n/a	n/a	n/a	-999	15	[0, 0, 0]	n/a	FR1	2	R1302M
1933.772	0.001	1934132	DISTRACT_START	n/a	n/a	n/a	-999	15	[0, 0, 0]	n/a	FR1	2	R1302M
1933.773	0.014	1934133	START	n/a	n/a	n/a	-999	15	[-999, -999, -999]	n/a	FR1	2	R1302M
1933.787	5.384	1934147	PROB	5.384	n/a	n/a	-999	15	[3, 7, 8]	19	FR1	2	R1302M
1939.171	6.851	1939531	PROB	6.851	n/a	n/a	-999	15	[3, 8, 3]	12	FR1	2	R1302M
1946.022	3.118	1946381	PROB	3.118	n/a	n/a	-999	15	[5, 6, 4]	15	FR1	2	R1302M
1949.14	3.984	1949499	PROB	3.984	n/a	n/a	-999	15	[7, 6, 3]	16	FR1	2	R1302M
1953.124	4.757	1953483	PROB	4.757	n/a	n/a	-999	15	[3, 6, 5]	14	FR1	2	R1302M
1957.881	0.01	1958240	STOP	n/a	n/a	n/a	-999	15	[-999, -999, -999]	n/a	FR1	2	R1302M
1957.891	0.541	1958250	DISTRACT_END	n/a	n/a	n/a	-999	15	[0, 0, 0]	n/a	FR1	2	R1302M
1958.432	1.593	1958791	RETRIEVAL_ORIENT_START	n/a	n/a	n/a	-999	15	[0, 0, 0]	n/a	FR1	2	R1302M
1960.025	0.001	1960384	RETRIEVAL_ORIENT_END	n/a	n/a	n/a	-999	15	[0, 0, 0]	n/a	FR1	2	R1302M
1960.026	1.164	1960385	REC_START	n/a	n/a	n/a	-999	15	[0, 0, 0]	n/a	FR1	2	R1302M
1961.19	0.516	1961549	REC_WORD	0.516	n/a	NET	1	15	[0, 0, 0]	n/a	FR1	2	R1302M
1961.706	1.024	1962065	REC_WORD	1.024	n/a	VASE	-999	15	[0, 0, 0]	n/a	FR1	2	R1302M
1962.73	1.241	1963089	REC_WORD	1.241	n/a	CHIN	-999	15	[0, 0, 0]	n/a	FR1	2	R1302M
1963.971	2.672	1964330	REC_WORD	2.672	n/a	FAIL	-999	15	[0, 0, 0]	n/a	FR1	2	R1302M
1966.643	4.939	1967001	REC_WORD	4.939	n/a	CRANE	-999	15	[0, 0, 0]	n/a	FR1	2	R1302M
1971.582	18.455	1971940	REC_WORD	18.455	n/a	PIPE	5	15	[0, 0, 0]	n/a	FR1	2	R1302M
1990.037	0.001	1990394	REC_END	n/a	n/a	n/a	-999	15	[0, 0, 0]	n/a	FR1	2	R1302M
1990.038	0.017	1990395	TRIAL_END	n/a	n/a	n/a	-999	15	[0, 0, 0]	n/a	FR1	2	R1302M
1990.055	0.0	1990412	TRIAL	n/a	n/a	n/a	-999	16	[0, 0, 0]	n/a	FR1	2	R1302M
1990.055	0.001	1990412	TRIAL_START	n/a	n/a	n/a	-999	16	[0, 0, 0]	n/a	FR1	2	R1302M
1990.056	4.377	1990413	WAITING_START	n/a	n/a	n/a	-999	16	[0, 0, 0]	n/a	FR1	2	R1302M
1994.433	0.001	1994790	WAITING_END	n/a	n/a	n/a	-999	16	[0, 0, 0]	n/a	FR1	2	R1302M
1994.434	10.43	1994791	COUNTDOWN_START	n/a	n/a	n/a	-999	16	[0, 0, 0]	n/a	FR1	2	R1302M
2004.864	0.001	2005221	COUNTDOWN_END	n/a	n/a	n/a	-999	16	[0, 0, 0]	n/a	FR1	2	R1302M
2004.865	1.086	2005222	ORIENT_START	n/a	n/a	n/a	-999	16	[0, 0, 0]	n/a	FR1	2	R1302M
2005.951	0.001	2006308	ORIENT_END	n/a	n/a	n/a	-999	16	[0, 0, 0]	n/a	FR1	2	R1302M
2005.952	1.146	2006309	ENCODING_START	n/a	n/a	n/a	-999	16	[0, 0, 0]	n/a	FR1	2	R1302M
2007.098	1.637	2007455	WORD	n/a	n/a	ARM	1	16	[0, 0, 0]	n/a	FR1	2	R1302M
2008.735	1.029	2009091	WORD_OFF	n/a	n/a	ARM	1	16	[0, 0, 0]	n/a	FR1	2	R1302M
2009.764	1.639	2010120	WORD	n/a	n/a	ROCK	2	16	[0, 0, 0]	n/a	FR1	2	R1302M
2011.403	0.841	2011759	WORD_OFF	n/a	n/a	ROCK	2	16	[0, 0, 0]	n/a	FR1	2	R1302M
2012.244	1.625	2012600	WORD	n/a	n/a	OWL	3	16	[0, 0, 0]	n/a	FR1	2	R1302M
2013.869	1.11	2014225	WORD_OFF	n/a	n/a	OWL	3	16	[0, 0, 0]	n/a	FR1	2	R1302M
2014.979	1.624	2015335	WORD	n/a	n/a	FLOOR	4	16	[0, 0, 0]	n/a	FR1	2	R1302M
2016.603	1.072	2016959	WORD_OFF	n/a	n/a	FLOOR	4	16	[0, 0, 0]	n/a	FR1	2	R1302M
2017.675	1.629	2018031	WORD	n/a	n/a	MAZE	5	16	[0, 0, 0]	n/a	FR1	2	R1302M
2019.304	0.9	2019660	WORD_OFF	n/a	n/a	MAZE	5	16	[0, 0, 0]	n/a	FR1	2	R1302M
2020.204	1.633	2020560	WORD	n/a	n/a	SHIRT	6	16	[0, 0, 0]	n/a	FR1	2	R1302M
2021.837	1.094	2022193	WORD_OFF	n/a	n/a	SHIRT	6	16	[0, 0, 0]	n/a	FR1	2	R1302M
2022.931	1.623	2023287	WORD	n/a	n/a	SPOON	7	16	[0, 0, 0]	n/a	FR1	2	R1302M
2024.554	1.062	2024910	WORD_OFF	n/a	n/a	SPOON	7	16	[0, 0, 0]	n/a	FR1	2	R1302M
2025.616	1.623	2025972	WORD	n/a	n/a	SPARK	8	16	[0, 0, 0]	n/a	FR1	2	R1302M
2027.239	0.752	2027595	WORD_OFF	n/a	n/a	SPARK	8	16	[0, 0, 0]	n/a	FR1	2	R1302M
2027.991	1.631	2028347	WORD	n/a	n/a	BANK	9	16	[0, 0, 0]	n/a	FR1	2	R1302M
2029.622	0.886	2029978	WORD_OFF	n/a	n/a	BANK	9	16	[0, 0, 0]	n/a	FR1	2	R1302M
2030.508	1.631	2030863	WORD	n/a	n/a	JAR	10	16	[0, 0, 0]	n/a	FR1	2	R1302M
2032.139	0.817	2032494	WORD_OFF	n/a	n/a	JAR	10	16	[0, 0, 0]	n/a	FR1	2	R1302M
2032.956	1.634	2033311	WORD	n/a	n/a	MUD	11	16	[0, 0, 0]	n/a	FR1	2	R1302M
2034.59	0.974	2034945	WORD_OFF	n/a	n/a	MUD	11	16	[0, 0, 0]	n/a	FR1	2	R1302M
2035.564	1.626	2035919	WORD	n/a	n/a	GUARD	12	16	[0, 0, 0]	n/a	FR1	2	R1302M
2037.19	0.001	2037545	WORD_OFF	n/a	n/a	GUARD	12	16	[0, 0, 0]	n/a	FR1	2	R1302M
2037.191	0.001	2037546	ENCODING_END	n/a	n/a	n/a	-999	16	[0, 0, 0]	n/a	FR1	2	R1302M
2037.192	0.0	2037547	DISTRACT_START	n/a	n/a	n/a	-999	16	[0, 0, 0]	n/a	FR1	2	R1302M
2037.192	0.015	2037547	START	n/a	n/a	n/a	-999	16	[-999, -999, -999]	n/a	FR1	2	R1302M
2037.207	6.152	2037562	PROB	6.152	n/a	n/a	-999	16	[9, 5, 3]	12	FR1	2	R1302M
2043.359	5.4	2043714	PROB	5.4	n/a	n/a	-999	16	[9, 9, 9]	27	FR1	2	R1302M
2048.759	8.101	2049114	PROB	8.101	n/a	n/a	-999	16	[8, 9, 6]	1	FR1	2	R1302M
2056.86	4.645	2057214	PROB	4.645	n/a	n/a	-999	16	[4, 6, 8]	18	FR1	2	R1302M
2061.505	0.007	2061859	STOP	n/a	n/a	n/a	-999	16	[-999, -999, -999]	n/a	FR1	2	R1302M
2061.512	0.692	2061866	DISTRACT_END	n/a	n/a	n/a	-999	16	[0, 0, 0]	n/a	FR1	2	R1302M
2062.204	1.574	2062558	RETRIEVAL_ORIENT_START	n/a	n/a	n/a	-999	16	[0, 0, 0]	n/a	FR1	2	R1302M
2063.778	0.001	2064132	RETRIEVAL_ORIENT_END	n/a	n/a	n/a	-999	16	[0, 0, 0]	n/a	FR1	2	R1302M
2063.779	0.773	2064133	REC_START	n/a	n/a	n/a	-999	16	[0, 0, 0]	n/a	FR1	2	R1302M
2064.552	0.64	2064906	REC_WORD	0.64	n/a	ARM	1	16	[0, 0, 0]	n/a	FR1	2	R1302M
2065.192	1.233	2065546	REC_WORD	1.233	n/a	ROCK	2	16	[0, 0, 0]	n/a	FR1	2	R1302M
2066.425	3.563	2066779	REC_WORD	3.563	n/a	OWL	3	16	[0, 0, 0]	n/a	FR1	2	R1302M
2069.988	6.443	2070342	REC_WORD	6.443	n/a	CHAIN	-999	16	[0, 0, 0]	n/a	FR1	2	R1302M
2076.431	17.36	2076784	REC_WORD	17.36	n/a	BRICK	-999	16	[0, 0, 0]	n/a	FR1	2	R1302M
2093.791	0.001	2094144	REC_END	n/a	n/a	n/a	-999	16	[0, 0, 0]	n/a	FR1	2	R1302M
2093.792	0.014	2094145	TRIAL_END	n/a	n/a	n/a	-999	16	[0, 0, 0]	n/a	FR1	2	R1302M
2093.806	0.001	2094159	TRIAL_START	n/a	n/a	n/a	-999	17	[0, 0, 0]	n/a	FR1	2	R1302M
2093.807	0.0	2094160	TRIAL	n/a	n/a	n/a	-999	17	[0, 0, 0]	n/a	FR1	2	R1302M
2093.807	4.295	2094160	WAITING_START	n/a	n/a	n/a	-999	17	[0, 0, 0]	n/a	FR1	2	R1302M
2098.102	0.001	2098454	WAITING_END	n/a	n/a	n/a	-999	17	[0, 0, 0]	n/a	FR1	2	R1302M
2098.103	10.429	2098455	COUNTDOWN_START	n/a	n/a	n/a	-999	17	[0, 0, 0]	n/a	FR1	2	R1302M
2108.532	0.0	2108884	COUNTDOWN_END	n/a	n/a	n/a	-999	17	[0, 0, 0]	n/a	FR1	2	R1302M
2108.532	1.105	2108884	ORIENT_START	n/a	n/a	n/a	-999	17	[0, 0, 0]	n/a	FR1	2	R1302M
2109.637	0.001	2109989	ORIENT_END	n/a	n/a	n/a	-999	17	[0, 0, 0]	n/a	FR1	2	R1302M
2109.638	0.913	2109990	ENCODING_START	n/a	n/a	n/a	-999	17	[0, 0, 0]	n/a	FR1	2	R1302M
2110.551	1.637	2110903	WORD	n/a	n/a	JET	1	17	[0, 0, 0]	n/a	FR1	2	R1302M
2112.188	1.06	2112540	WORD_OFF	n/a	n/a	JET	1	17	[0, 0, 0]	n/a	FR1	2	R1302M
2113.248	1.624	2113600	WORD	n/a	n/a	GOLD	2	17	[0, 0, 0]	n/a	FR1	2	R1302M
2114.872	1.071	2115224	WORD_OFF	n/a	n/a	GOLD	2	17	[0, 0, 0]	n/a	FR1	2	R1302M
2115.943	1.629	2116295	WORD	n/a	n/a	FAN	3	17	[0, 0, 0]	n/a	FR1	2	R1302M
2117.572	0.906	2117923	WORD_OFF	n/a	n/a	FAN	3	17	[0, 0, 0]	n/a	FR1	2	R1302M
2118.478	1.628	2118829	WORD	n/a	n/a	GRAPE	4	17	[0, 0, 0]	n/a	FR1	2	R1302M
2120.106	0.964	2120457	WORD_OFF	n/a	n/a	GRAPE	4	17	[0, 0, 0]	n/a	FR1	2	R1302M
2121.07	1.637	2121421	WORD	n/a	n/a	GEESE	5	17	[0, 0, 0]	n/a	FR1	2	R1302M
2122.707	1.071	2123058	WORD_OFF	n/a	n/a	GEESE	5	17	[0, 0, 0]	n/a	FR1	2	R1302M
2123.778	1.63	2124129	WORD	n/a	n/a	TRASH	6	17	[0, 0, 0]	n/a	FR1	2	R1302M
2125.408	0.941	2125759	WORD_OFF	n/a	n/a	TRASH	6	17	[0, 0, 0]	n/a	FR1	2	R1302M
2126.349	1.625	2126700	WORD	n/a	n/a	CAKE	7	17	[0, 0, 0]	n/a	FR1	2	R1302M
2127.974	0.923	2128325	WORD_OFF	n/a	n/a	CAKE	7	17	[0, 0, 0]	n/a	FR1	2	R1302M
2128.897	1.612	2129248	WORD	n/a	n/a	HEART	8	17	[0, 0, 0]	n/a	FR1	2	R1302M
2130.509	0.757	2130860	WORD_OFF	n/a	n/a	HEART	8	17	[0, 0, 0]	n/a	FR1	2	R1302M
2131.266	1.626	2131617	WORD	n/a	n/a	SEAL	9	17	[0, 0, 0]	n/a	FR1	2	R1302M
2132.892	0.856	2133243	WORD_OFF	n/a	n/a	SEAL	9	17	[0, 0, 0]	n/a	FR1	2	R1302M
2133.748	1.612	2134099	WORD	n/a	n/a	HILL	10	17	[0, 0, 0]	n/a	FR1	2	R1302M
2135.36	0.822	2135711	WORD_OFF	n/a	n/a	HILL	10	17	[0, 0, 0]	n/a	FR1	2	R1302M
2136.182	1.627	2136533	WORD	n/a	n/a	RAT	11	17	[0, 0, 0]	n/a	FR1	2	R1302M
2137.809	0.947	2138160	WORD_OFF	n/a	n/a	RAT	11	17	[0, 0, 0]	n/a	FR1	2	R1302M
2138.756	1.622	2139107	WORD	n/a	n/a	SQUARE	12	17	[0, 0, 0]	n/a	FR1	2	R1302M
2140.378	0.001	2140728	WORD_OFF	n/a	n/a	SQUARE	12	17	[0, 0, 0]	n/a	FR1	2	R1302M
2140.379	0.0	2140729	ENCODING_END	n/a	n/a	n/a	-999	17	[0, 0, 0]	n/a	FR1	2	R1302M
2140.379	0.001	2140729	DISTRACT_START	n/a	n/a	n/a	-999	17	[0, 0, 0]	n/a	FR1	2	R1302M
2140.38	0.014	2140730	START	n/a	n/a	n/a	-999	17	[-999, -999, -999]	n/a	FR1	2	R1302M
2140.394	4.533	2140744	PROB	4.533	n/a	n/a	-999	17	[5, 3, 8]	16	FR1	2	R1302M
2144.927	3.502	2145277	PROB	3.502	n/a	n/a	-999	17	[3, 5, 5]	13	FR1	2	R1302M
2148.429	9.334	2148779	PROB	9.334	n/a	n/a	-999	17	[6, 9, 7]	20	FR1	2	R1302M
2157.763	4.124	2158113	PROB	4.124	n/a	n/a	-999	17	[5, 7, 2]	14	FR1	2	R1302M
2161.887	0.01	2162236	STOP	n/a	n/a	n/a	-999	17	[-999, -999, -999]	n/a	FR1	2	R1302M
2161.897	0.597	2162246	DISTRACT_END	n/a	n/a	n/a	-999	17	[0, 0, 0]	n/a	FR1	2	R1302M
2162.494	1.721	2162843	RETRIEVAL_ORIENT_START	n/a	n/a	n/a	-999	17	[0, 0, 0]	n/a	FR1	2	R1302M
2164.215	0.001	2164564	RETRIEVAL_ORIENT_END	n/a	n/a	n/a	-999	17	[0, 0, 0]	n/a	FR1	2	R1302M
2164.216	1.039	2164565	REC_START	n/a	n/a	n/a	-999	17	[0, 0, 0]	n/a	FR1	2	R1302M
2165.255	3.051	2165604	REC_WORD	3.051	n/a	NET	-999	17	[0, 0, 0]	n/a	FR1	2	R1302M
2168.306	0.981	2168655	REC_WORD	0.981	n/a	CHAIN	-999	17	[0, 0, 0]	n/a	FR1	2	R1302M
2169.287	7.627	2169636	REC_WORD	7.627	n/a	VASE	-999	17	[0, 0, 0]	n/a	FR1	2	R1302M
2176.914	2.715	2177263	REC_WORD	2.715	n/a	BRICK	-999	17	[0, 0, 0]	n/a	FR1	2	R1302M
2179.629	9.807	2179978	REC_WORD	9.807	n/a	GOLD	2	17	[0, 0, 0]	n/a	FR1	2	R1302M
2189.436	4.793	2189784	REC_WORD	4.793	n/a	CHIN	-999	17	[0, 0, 0]	n/a	FR1	2	R1302M
2194.229	0.001	2194577	REC_END	n/a	n/a	n/a	-999	17	[0, 0, 0]	n/a	FR1	2	R1302M
2194.23	0.014	2194578	TRIAL_END	n/a	n/a	n/a	-999	17	[0, 0, 0]	n/a	FR1	2	R1302M
2194.244	0.001	2194592	TRIAL_START	n/a	n/a	n/a	-999	18	[0, 0, 0]	n/a	FR1	2	R1302M
2194.245	0.0	2194593	TRIAL	n/a	n/a	n/a	-999	18	[0, 0, 0]	n/a	FR1	2	R1302M
2194.245	3.06	2194593	WAITING_START	n/a	n/a	n/a	-999	18	[0, 0, 0]	n/a	FR1	2	R1302M
2197.305	0.001	2197653	WAITING_END	n/a	n/a	n/a	-999	18	[0, 0, 0]	n/a	FR1	2	R1302M
2197.306	10.43	2197654	COUNTDOWN_START	n/a	n/a	n/a	-999	18	[0, 0, 0]	n/a	FR1	2	R1302M
2207.736	0.001	2208083	COUNTDOWN_END	n/a	n/a	n/a	-999	18	[0, 0, 0]	n/a	FR1	2	R1302M
2207.737	1.119	2208084	ORIENT_START	n/a	n/a	n/a	-999	18	[0, 0, 0]	n/a	FR1	2	R1302M
2208.856	0.001	2209203	ORIENT_END	n/a	n/a	n/a	-999	18	[0, 0, 0]	n/a	FR1	2	R1302M
2208.857	0.978	2209204	ENCODING_START	n/a	n/a	n/a	-999	18	[0, 0, 0]	n/a	FR1	2	R1302M
2209.835	1.64	2210182	WORD	n/a	n/a	BRIDGE	1	18	[0, 0, 0]	n/a	FR1	2	R1302M
2211.475	0.797	2211822	WORD_OFF	n/a	n/a	BRIDGE	1	18	[0, 0, 0]	n/a	FR1	2	R1302M
2212.272	1.635	2212619	WORD	n/a	n/a	CONE	2	18	[0, 0, 0]	n/a	FR1	2	R1302M
2213.907	1.121	2214254	WORD_OFF	n/a	n/a	CONE	2	18	[0, 0, 0]	n/a	FR1	2	R1302M
2215.028	1.63	2215375	WORD	n/a	n/a	FISH	3	18	[0, 0, 0]	n/a	FR1	2	R1302M
2216.658	0.795	2217005	WORD_OFF	n/a	n/a	FISH	3	18	[0, 0, 0]	n/a	FR1	2	R1302M
2217.453	1.622	2217800	WORD	n/a	n/a	SHEET	4	18	[0, 0, 0]	n/a	FR1	2	R1302M
2219.075	1.062	2219422	WORD_OFF	n/a	n/a	SHEET	4	18	[0, 0, 0]	n/a	FR1	2	R1302M
2220.137	1.622	2220484	WORD	n/a	n/a	TOE	5	18	[0, 0, 0]	n/a	FR1	2	R1302M
2221.759	0.793	2222106	WORD_OFF	n/a	n/a	TOE	5	18	[0, 0, 0]	n/a	FR1	2	R1302M
2222.552	1.624	2222899	WORD	n/a	n/a	DESK	6	18	[0, 0, 0]	n/a	FR1	2	R1302M
2224.176	0.931	2224523	WORD_OFF	n/a	n/a	DESK	6	18	[0, 0, 0]	n/a	FR1	2	R1302M
2225.107	1.636	2225454	WORD	n/a	n/a	WOLF	7	18	[0, 0, 0]	n/a	FR1	2	R1302M
2226.743	1.074	2227089	WORD_OFF	n/a	n/a	WOLF	7	18	[0, 0, 0]	n/a	FR1	2	R1302M
2227.817	1.628	2228163	WORD	n/a	n/a	ROOF	8	18	[0, 0, 0]	n/a	FR1	2	R1302M
2229.445	0.974	2229791	WORD_OFF	n/a	n/a	ROOF	8	18	[0, 0, 0]	n/a	FR1	2	R1302M
2230.419	1.625	2230765	WORD	n/a	n/a	FENCE	9	18	[0, 0, 0]	n/a	FR1	2	R1302M
2232.044	0.916	2232390	WORD_OFF	n/a	n/a	FENCE	9	18	[0, 0, 0]	n/a	FR1	2	R1302M
2232.96	1.635	2233306	WORD	n/a	n/a	ROPE	10	18	[0, 0, 0]	n/a	FR1	2	R1302M
2234.595	0.905	2234941	WORD_OFF	n/a	n/a	ROPE	10	18	[0, 0, 0]	n/a	FR1	2	R1302M
2235.5	1.629	2235846	WORD	n/a	n/a	OAR	11	18	[0, 0, 0]	n/a	FR1	2	R1302M
2237.129	0.941	2237475	WORD_OFF	n/a	n/a	OAR	11	18	[0, 0, 0]	n/a	FR1	2	R1302M
2238.07	1.626	2238416	WORD	n/a	n/a	CROW	12	18	[0, 0, 0]	n/a	FR1	2	R1302M
2239.696	0.0	2240042	WORD_OFF	n/a	n/a	CROW	12	18	[0, 0, 0]	n/a	FR1	2	R1302M
2239.696	0.001	2240042	ENCODING_END	n/a	n/a	n/a	-999	18	[0, 0, 0]	n/a	FR1	2	R1302M
2239.697	0.0	2240043	DISTRACT_START	n/a	n/a	n/a	-999	18	[0, 0, 0]	n/a	FR1	2	R1302M
2239.697	0.015	2240043	START	n/a	n/a	n/a	-999	18	[-999, -999, -999]	n/a	FR1	2	R1302M
2239.712	3.884	2240058	PROB	3.884	n/a	n/a	-999	18	[1, 1, 5]	7	FR1	2	R1302M
2243.596	4.234	2243942	PROB	4.234	n/a	n/a	-999	18	[3, 8, 5]	17	FR1	2	R1302M
2247.83	6.068	2248176	PROB	6.068	n/a	n/a	-999	18	[3, 8, 5]	12	FR1	2	R1302M
2253.898	2.917	2254243	PROB	2.917	n/a	n/a	-999	18	[3, 4, 7]	17	FR1	2	R1302M
2256.815	3.906	2257160	PROB	3.906	n/a	n/a	-999	18	[6, 2, 7]	15	FR1	2	R1302M
2260.721	0.012	2261066	STOP	n/a	n/a	n/a	-999	18	[-999, -999, -999]	n/a	FR1	2	R1302M
2260.733	0.66	2261078	DISTRACT_END	n/a	n/a	n/a	-999	18	[0, 0, 0]	n/a	FR1	2	R1302M
2261.393	1.64	2261738	RETRIEVAL_ORIENT_START	n/a	n/a	n/a	-999	18	[0, 0, 0]	n/a	FR1	2	R1302M
2263.033	0.002	2263378	RETRIEVAL_ORIENT_END	n/a	n/a	n/a	-999	18	[0, 0, 0]	n/a	FR1	2	R1302M
2263.035	0.661	2263380	REC_START	n/a	n/a	n/a	-999	18	[0, 0, 0]	n/a	FR1	2	R1302M
2263.696	0.396	2264041	REC_WORD	0.396	n/a	BRIDGE	1	18	[0, 0, 0]	n/a	FR1	2	R1302M
2264.092	8.62	2264437	REC_WORD	8.62	n/a	CANE	-999	18	[0, 0, 0]	n/a	FR1	2	R1302M
2272.712	10.26	2273056	REC_WORD_VV	10.26	n/a	<>	-999	18	[0, 0, 0]	n/a	FR1	2	R1302M
2282.972	4.815	2283316	REC_WORD	4.815	n/a	VASE	-999	18	[0, 0, 0]	n/a	FR1	2	R1302M
2287.787	2.075	2288131	REC_WORD	2.075	n/a	GOLD	-999	18	[0, 0, 0]	n/a	FR1	2	R1302M
2289.862	3.184	2290206	REC_WORD	3.184	n/a	BRIDGE	1	18	[0, 0, 0]	n/a	FR1	2	R1302M
2293.046	0.001	2293389	REC_END	n/a	n/a	n/a	-999	18	[0, 0, 0]	n/a	FR1	2	R1302M
2293.047	0.014	2293390	TRIAL_END	n/a	n/a	n/a	-999	18	[0, 0, 0]	n/a	FR1	2	R1302M
2293.061	0.0	2293404	TRIAL_START	n/a	n/a	n/a	-999	19	[0, 0, 0]	n/a	FR1	2	R1302M
2293.061	0.001	2293404	TRIAL	n/a	n/a	n/a	-999	19	[0, 0, 0]	n/a	FR1	2	R1302M
2293.062	10.546	2293405	WAITING_START	n/a	n/a	n/a	-999	19	[0, 0, 0]	n/a	FR1	2	R1302M
2303.608	0.001	2303951	WAITING_END	n/a	n/a	n/a	-999	19	[0, 0, 0]	n/a	FR1	2	R1302M
2303.609	0.0	2303952	COUNTDOWN_START	n/a	n/a	n/a	-999	19	[0, 0, 0]	n/a	FR1	2	R1302M
