onset	duration	sample	trial_type	response_time	stim_file	item_name	serialpos	list	test	answer	experiment	session	subject
0.0	13.206	51084	SESS_START	n/a	n/a	n/a	-999	-999	[0, 0, 0]	n/a	FR1	1	R1106M
13.206	10.428	57687	COUNTDOWN_START	n/a	n/a	n/a	-999	-999	[0, 0, 0]	n/a	FR1	1	R1106M
23.634	3.808	62901	COUNTDOWN_END	n/a	n/a	n/a	-999	-999	[0, 0, 0]	n/a	FR1	1	R1106M
27.442	2.5	64805	PRACTICE_WORD	n/a	n/a	CHEST	1	-1	[0, 0, 0]	n/a	FR1	1	R1106M
29.942	2.501	66055	PRACTICE_WORD	n/a	n/a	WAGON	2	-1	[0, 0, 0]	n/a	FR1	1	R1106M
32.443	2.433	67305	PRACTICE_WORD	n/a	n/a	ATTIC	3	-1	[0, 0, 0]	n/a	FR1	1	R1106M
34.876	2.534	68521	PRACTICE_WORD	n/a	n/a	RING	4	-1	[0, 0, 0]	n/a	FR1	1	R1106M
37.41	2.484	69788	PRACTICE_WORD	n/a	n/a	COTTON	5	-1	[0, 0, 0]	n/a	FR1	1	R1106M
39.894	2.567	71030	PRACTICE_WORD	n/a	n/a	BEAM	6	-1	[0, 0, 0]	n/a	FR1	1	R1106M
42.461	2.484	72314	PRACTICE_WORD	n/a	n/a	CAMEL	7	-1	[0, 0, 0]	n/a	FR1	1	R1106M
44.945	2.584	73556	PRACTICE_WORD	n/a	n/a	IRON	8	-1	[0, 0, 0]	n/a	FR1	1	R1106M
47.529	2.434	74848	PRACTICE_WORD	n/a	n/a	WATCH	9	-1	[0, 0, 0]	n/a	FR1	1	R1106M
49.963	2.484	76065	PRACTICE_WORD	n/a	n/a	RHINO	10	-1	[0, 0, 0]	n/a	FR1	1	R1106M
52.447	2.55	77306	PRACTICE_WORD	n/a	n/a	FLOOD	11	-1	[0, 0, 0]	n/a	FR1	1	R1106M
54.997	1.617	78581	PRACTICE_WORD	n/a	n/a	TONGUE	12	-1	[0, 0, 0]	n/a	FR1	1	R1106M
56.614	0.001	79390	PRACTICE_DISTRACT_START	n/a	n/a	n/a	-999	-1	[0, 0, 0]	n/a	FR1	1	R1106M
56.615	0.015	79390	START	n/a	n/a	n/a	-999	-1	[-999, -999, -999]	n/a	FR1	1	R1106M
56.63	27.373	79398	PROB	27.373	n/a	n/a	-999	-1	[3, 9, 5]	17	FR1	1	R1106M
84.003	0.017	93084	STOP	n/a	n/a	n/a	-999	-1	[-999, -999, -999]	n/a	FR1	1	R1106M
84.02	0.519	93092	PRACTICE_DISTRACT_END	n/a	n/a	n/a	-999	-1	[0, 0, 0]	n/a	FR1	1	R1106M
84.539	30.514	93352	PRACTICE_REC_START	n/a	n/a	n/a	-999	-1	[0, 0, 0]	n/a	FR1	1	R1106M
115.053	44.881	108608	PRACTICE_REC_END	n/a	n/a	n/a	-999	-1	[0, 0, 0]	n/a	FR1	1	R1106M
159.934	0.001	131047	COUNTDOWN_START	n/a	n/a	n/a	-999	1	[0, 0, 0]	n/a	FR1	1	R1106M
159.935	10.427	131047	TRIAL	n/a	n/a	n/a	-999	1	[0, 0, 0]	n/a	FR1	1	R1106M
170.362	0.008	136261	COUNTDOWN_END	n/a	n/a	n/a	-999	1	[0, 0, 0]	n/a	FR1	1	R1106M
170.37	2.567	136265	ORIENT	n/a	n/a	n/a	-999	1	[0, 0, 0]	n/a	FR1	1	R1106M
172.937	2.584	137548	WORD	n/a	wordpools/wordpool_EN.txt	STEM	1	1	[0, 0, 0]	n/a	FR1	1	R1106M
175.521	2.4	138840	WORD	n/a	wordpools/wordpool_EN.txt	WORM	2	1	[0, 0, 0]	n/a	FR1	1	R1106M
177.921	2.484	140040	WORD	n/a	wordpools/wordpool_EN.txt	SALT	3	1	[0, 0, 0]	n/a	FR1	1	R1106M
180.405	2.501	141282	WORD	n/a	wordpools/wordpool_EN.txt	CORD	4	1	[0, 0, 0]	n/a	FR1	1	R1106M
182.906	2.5	142532	WORD	n/a	wordpools/wordpool_EN.txt	RAKE	5	1	[0, 0, 0]	n/a	FR1	1	R1106M
185.406	2.617	143782	WORD	n/a	wordpools/wordpool_EN.txt	SNAIL	6	1	[0, 0, 0]	n/a	FR1	1	R1106M
188.023	2.534	145091	WORD	n/a	wordpools/wordpool_EN.txt	RIB	7	1	[0, 0, 0]	n/a	FR1	1	R1106M
190.557	2.451	146358	WORD	n/a	wordpools/wordpool_EN.txt	ANT	8	1	[0, 0, 0]	n/a	FR1	1	R1106M
193.008	2.4	147583	WORD	n/a	wordpools/wordpool_EN.txt	MILK	9	1	[0, 0, 0]	n/a	FR1	1	R1106M
195.408	2.617	148783	WORD	n/a	wordpools/wordpool_EN.txt	HEART	10	1	[0, 0, 0]	n/a	FR1	1	R1106M
198.025	2.401	150091	WORD	n/a	wordpools/wordpool_EN.txt	MOTH	11	1	[0, 0, 0]	n/a	FR1	1	R1106M
200.426	1.617	151292	WORD	n/a	wordpools/wordpool_EN.txt	FRUIT	12	1	[0, 0, 0]	n/a	FR1	1	R1106M
202.043	0.001	152100	DISTRACT_START	n/a	n/a	n/a	-999	1	[0, 0, 0]	n/a	FR1	1	R1106M
202.044	0.015	152101	START	n/a	n/a	n/a	-999	1	[-999, -999, -999]	n/a	FR1	1	R1106M
202.059	19.62	152108	PROB	19.62	n/a	n/a	-999	1	[6, 4, 6]	16	FR1	1	R1106M
221.679	4.78	161918	PROB	4.78	n/a	n/a	-999	1	[1, 7, 7]	15	FR1	1	R1106M
226.459	0.005	164308	STOP	n/a	n/a	n/a	-999	1	[-999, -999, -999]	n/a	FR1	1	R1106M
226.464	1.168	164310	DISTRACT_END	n/a	n/a	n/a	-999	1	[0, 0, 0]	n/a	FR1	1	R1106M
227.632	0.923	164894	REC_START	n/a	n/a	n/a	-999	1	[0, 0, 0]	n/a	FR1	1	R1106M
228.555	1.831	165355	REC_WORD	1.831	n/a	STEAM	-999	1	[0, 0, 0]	n/a	FR1	1	R1106M
230.386	4.693	166271	REC_WORD	4.693	n/a	CORN	-999	1	[0, 0, 0]	n/a	FR1	1	R1106M
235.079	15.497	168617	REC_WORD	15.497	n/a	FRUIT	-999	1	[0, 0, 0]	n/a	FR1	1	R1106M
250.576	7.066	176365	REC_WORD_VV	7.066	n/a	<>	-999	1	[0, 0, 0]	n/a	FR1	1	R1106M
257.642	27.634	179898	REC_END	n/a	n/a	n/a	-999	1	[0, 0, 0]	n/a	FR1	1	R1106M
285.276	0.0	193714	TRIAL	n/a	n/a	n/a	-999	2	[0, 0, 0]	n/a	FR1	1	R1106M
285.276	10.428	193714	COUNTDOWN_START	n/a	n/a	n/a	-999	2	[0, 0, 0]	n/a	FR1	1	R1106M
295.704	0.006	198928	COUNTDOWN_END	n/a	n/a	n/a	-999	2	[0, 0, 0]	n/a	FR1	1	R1106M
295.71	2.418	198931	ORIENT	n/a	n/a	n/a	-999	2	[0, 0, 0]	n/a	FR1	1	R1106M
298.128	2.434	200140	WORD	n/a	wordpools/wordpool_EN.txt	SNOW	1	2	[0, 0, 0]	n/a	FR1	1	R1106M
300.562	2.584	201357	WORD	n/a	wordpools/wordpool_EN.txt	CLAY	2	2	[0, 0, 0]	n/a	FR1	1	R1106M
303.146	2.45	202649	WORD	n/a	wordpools/wordpool_EN.txt	STRAW	3	2	[0, 0, 0]	n/a	FR1	1	R1106M
305.596	2.417	203874	WORD	n/a	wordpools/wordpool_EN.txt	SQUARE	4	2	[0, 0, 0]	n/a	FR1	1	R1106M
308.013	2.601	205082	WORD	n/a	wordpools/wordpool_EN.txt	MUD	5	2	[0, 0, 0]	n/a	FR1	1	R1106M
310.614	2.534	206383	WORD	n/a	wordpools/wordpool_EN.txt	STORM	6	2	[0, 0, 0]	n/a	FR1	1	R1106M
313.148	2.633	207650	WORD	n/a	wordpools/wordpool_EN.txt	THREAD	7	2	[0, 0, 0]	n/a	FR1	1	R1106M
315.781	2.434	208966	WORD	n/a	wordpools/wordpool_EN.txt	CLOUD	8	2	[0, 0, 0]	n/a	FR1	1	R1106M
318.215	2.401	210183	WORD	n/a	wordpools/wordpool_EN.txt	LAND	9	2	[0, 0, 0]	n/a	FR1	1	R1106M
320.616	2.4	211383	WORD	n/a	wordpools/wordpool_EN.txt	LAMP	10	2	[0, 0, 0]	n/a	FR1	1	R1106M
323.016	2.568	212583	WORD	n/a	wordpools/wordpool_EN.txt	SHARK	11	2	[0, 0, 0]	n/a	FR1	1	R1106M
325.584	1.616	213867	WORD	n/a	wordpools/wordpool_EN.txt	RUG	12	2	[0, 0, 0]	n/a	FR1	1	R1106M
327.2	0.001	214675	DISTRACT_START	n/a	n/a	n/a	-999	2	[0, 0, 0]	n/a	FR1	1	R1106M
327.201	0.016	214676	START	n/a	n/a	n/a	-999	2	[-999, -999, -999]	n/a	FR1	1	R1106M
327.217	6.268	214684	PROB	6.268	n/a	n/a	-999	2	[7, 9, 6]	22	FR1	1	R1106M
333.485	8.284	217817	PROB	8.284	n/a	n/a	-999	2	[4, 5, 7]	16	FR1	1	R1106M
341.769	13.682	221959	PROB	13.682	n/a	n/a	-999	2	[5, 7, 9]	21	FR1	1	R1106M
355.451	0.005	228800	STOP	n/a	n/a	n/a	-999	2	[-999, -999, -999]	n/a	FR1	1	R1106M
355.456	1.183	228802	DISTRACT_END	n/a	n/a	n/a	-999	2	[0, 0, 0]	n/a	FR1	1	R1106M
356.639	1.391	229394	REC_START	n/a	n/a	n/a	-999	2	[0, 0, 0]	n/a	FR1	1	R1106M
358.03	3.079	230089	REC_WORD	3.079	n/a	SNOW	-999	2	[0, 0, 0]	n/a	FR1	1	R1106M
361.109	1.759	231629	REC_WORD	1.759	n/a	CLOUD	-999	2	[0, 0, 0]	n/a	FR1	1	R1106M
362.868	10.953	232508	REC_WORD	10.953	n/a	MUD	-999	2	[0, 0, 0]	n/a	FR1	1	R1106M
373.821	12.828	237984	REC_WORD	12.828	n/a	CLAY	-999	2	[0, 0, 0]	n/a	FR1	1	R1106M
386.649	26.651	244398	REC_END	n/a	n/a	n/a	-999	2	[0, 0, 0]	n/a	FR1	1	R1106M
413.3	0.001	257723	COUNTDOWN_START	n/a	n/a	n/a	-999	3	[0, 0, 0]	n/a	FR1	1	R1106M
413.301	10.427	257723	TRIAL	n/a	n/a	n/a	-999	3	[0, 0, 0]	n/a	FR1	1	R1106M
423.728	0.007	262936	COUNTDOWN_END	n/a	n/a	n/a	-999	3	[0, 0, 0]	n/a	FR1	1	R1106M
423.735	2.468	262940	ORIENT	n/a	n/a	n/a	-999	3	[0, 0, 0]	n/a	FR1	1	R1106M
426.203	2.4	264174	WORD	n/a	wordpools/wordpool_EN.txt	HOSE	1	3	[0, 0, 0]	n/a	FR1	1	R1106M
428.603	2.434	265374	WORD	n/a	wordpools/wordpool_EN.txt	SOAP	2	3	[0, 0, 0]	n/a	FR1	1	R1106M
431.037	2.616	266591	WORD	n/a	wordpools/wordpool_EN.txt	MAIL	3	3	[0, 0, 0]	n/a	FR1	1	R1106M
433.653	2.519	267899	WORD	n/a	wordpools/wordpool_EN.txt	SLUSH	4	3	[0, 0, 0]	n/a	FR1	1	R1106M
436.172	2.482	269158	WORD	n/a	wordpools/wordpool_EN.txt	FOAM	5	3	[0, 0, 0]	n/a	FR1	1	R1106M
438.654	2.418	270399	WORD	n/a	wordpools/wordpool_EN.txt	STORE	6	3	[0, 0, 0]	n/a	FR1	1	R1106M
441.072	2.501	271608	WORD	n/a	wordpools/wordpool_EN.txt	GRAPE	7	3	[0, 0, 0]	n/a	FR1	1	R1106M
443.573	2.434	272858	WORD	n/a	wordpools/wordpool_EN.txt	JUICE	8	3	[0, 0, 0]	n/a	FR1	1	R1106M
446.007	2.4	274075	WORD	n/a	wordpools/wordpool_EN.txt	RICE	9	3	[0, 0, 0]	n/a	FR1	1	R1106M
448.407	2.584	275275	WORD	n/a	wordpools/wordpool_EN.txt	BANK	10	3	[0, 0, 0]	n/a	FR1	1	R1106M
450.991	2.617	276567	WORD	n/a	wordpools/wordpool_EN.txt	FOOD	11	3	[0, 0, 0]	n/a	FR1	1	R1106M
453.608	1.617	277876	WORD	n/a	wordpools/wordpool_EN.txt	MULE	12	3	[0, 0, 0]	n/a	FR1	1	R1106M
455.225	0.001	278684	DISTRACT_START	n/a	n/a	n/a	-999	3	[0, 0, 0]	n/a	FR1	1	R1106M
455.226	0.016	278685	START	n/a	n/a	n/a	-999	3	[-999, -999, -999]	n/a	FR1	1	R1106M
455.242	6.567	278693	PROB	6.567	n/a	n/a	-999	3	[7, 2, 9]	18	FR1	1	R1106M
461.809	3.984	281976	PROB	3.984	n/a	n/a	-999	3	[9, 7, 6]	22	FR1	1	R1106M
465.793	5.802	283968	PROB	5.802	n/a	n/a	-999	3	[8, 3, 3]	14	FR1	1	R1106M
471.595	4.952	286869	PROB	4.952	n/a	n/a	-999	3	[6, 9, 3]	18	FR1	1	R1106M
476.547	0.016	289344	STOP	n/a	n/a	n/a	-999	3	[-999, -999, -999]	n/a	FR1	1	R1106M
476.563	1.116	289352	DISTRACT_END	n/a	n/a	n/a	-999	3	[0, 0, 0]	n/a	FR1	1	R1106M
477.679	1.318	289910	REC_START	n/a	n/a	n/a	-999	3	[0, 0, 0]	n/a	FR1	1	R1106M
478.997	0.95	290569	REC_WORD	0.95	n/a	GRAPE	-999	3	[0, 0, 0]	n/a	FR1	1	R1106M
479.947	2.944	291044	REC_WORD	2.944	n/a	JUICE	-999	3	[0, 0, 0]	n/a	FR1	1	R1106M
482.891	2.933	292516	REC_WORD	2.933	n/a	FOOD	-999	3	[0, 0, 0]	n/a	FR1	1	R1106M
485.824	10.519	293983	REC_WORD	10.519	n/a	BANK	-999	3	[0, 0, 0]	n/a	FR1	1	R1106M
496.343	5.172	299242	REC_WORD	5.172	n/a	GRAIN	-999	3	[0, 0, 0]	n/a	FR1	1	R1106M
501.515	6.178	301828	REC_WORD	6.178	n/a	FOUR	-999	3	[0, 0, 0]	n/a	FR1	1	R1106M
507.693	44.368	304917	REC_END	n/a	n/a	n/a	-999	3	[0, 0, 0]	n/a	FR1	1	R1106M
552.061	0.0	327099	TRIAL	n/a	n/a	n/a	-999	4	[0, 0, 0]	n/a	FR1	1	R1106M
552.061	10.428	327099	COUNTDOWN_START	n/a	n/a	n/a	-999	4	[0, 0, 0]	n/a	FR1	1	R1106M
562.489	0.007	332313	COUNTDOWN_END	n/a	n/a	n/a	-999	4	[0, 0, 0]	n/a	FR1	1	R1106M
562.496	2.434	332317	ORIENT	n/a	n/a	n/a	-999	4	[0, 0, 0]	n/a	FR1	1	R1106M
564.93	2.4	333533	WORD	n/a	wordpools/wordpool_EN.txt	JEEP	1	4	[0, 0, 0]	n/a	FR1	1	R1106M
567.33	2.584	334733	WORD	n/a	wordpools/wordpool_EN.txt	DITCH	2	4	[0, 0, 0]	n/a	FR1	1	R1106M
569.914	2.601	336025	WORD	n/a	wordpools/wordpool_EN.txt	JAIL	3	4	[0, 0, 0]	n/a	FR1	1	R1106M
572.515	2.483	337326	WORD	n/a	wordpools/wordpool_EN.txt	NAIL	4	4	[0, 0, 0]	n/a	FR1	1	R1106M
574.998	2.601	338567	WORD	n/a	wordpools/wordpool_EN.txt	LOCK	5	4	[0, 0, 0]	n/a	FR1	1	R1106M
577.599	2.434	339868	WORD	n/a	wordpools/wordpool_EN.txt	PHONE	6	4	[0, 0, 0]	n/a	FR1	1	R1106M
580.033	2.567	341085	WORD	n/a	wordpools/wordpool_EN.txt	HOOF	7	4	[0, 0, 0]	n/a	FR1	1	R1106M
582.6	2.467	342368	WORD	n/a	wordpools/wordpool_EN.txt	WING	8	4	[0, 0, 0]	n/a	FR1	1	R1106M
585.067	2.501	343601	WORD	n/a	wordpools/wordpool_EN.txt	CAGE	9	4	[0, 0, 0]	n/a	FR1	1	R1106M
587.568	2.4	344852	WORD	n/a	wordpools/wordpool_EN.txt	FLAME	10	4	[0, 0, 0]	n/a	FR1	1	R1106M
589.968	2.45	346052	WORD	n/a	wordpools/wordpool_EN.txt	PIN	11	4	[0, 0, 0]	n/a	FR1	1	R1106M
592.418	1.617	347277	WORD	n/a	wordpools/wordpool_EN.txt	HORN	12	4	[0, 0, 0]	n/a	FR1	1	R1106M
594.035	0.001	348085	DISTRACT_START	n/a	n/a	n/a	-999	4	[0, 0, 0]	n/a	FR1	1	R1106M
594.036	0.016	348086	START	n/a	n/a	n/a	-999	4	[-999, -999, -999]	n/a	FR1	1	R1106M
594.052	8.835	348094	PROB	8.835	n/a	n/a	-999	4	[7, 4, 5]	16	FR1	1	R1106M
602.887	5.168	352511	PROB	5.168	n/a	n/a	-999	4	[6, 5, 1]	10	FR1	1	R1106M
608.055	3.851	355095	PROB	3.851	n/a	n/a	-999	4	[7, 2, 3]	12	FR1	1	R1106M
611.906	4.353	357020	PROB	4.353	n/a	n/a	-999	4	[5, 7, 5]	17	FR1	1	R1106M
616.259	0.014	359196	STOP	n/a	n/a	n/a	-999	4	[-999, -999, -999]	n/a	FR1	1	R1106M
616.273	1.151	359203	DISTRACT_END	n/a	n/a	n/a	-999	4	[0, 0, 0]	n/a	FR1	1	R1106M
617.424	1.901	359779	REC_START	n/a	n/a	n/a	-999	4	[0, 0, 0]	n/a	FR1	1	R1106M
619.325	1.168	360729	REC_WORD	1.168	n/a	JEEP	-999	4	[0, 0, 0]	n/a	FR1	1	R1106M
620.493	1.585	361313	REC_WORD	1.585	n/a	DITCH	-999	4	[0, 0, 0]	n/a	FR1	1	R1106M
622.078	1.538	362106	REC_WORD	1.538	n/a	JAIL	-999	4	[0, 0, 0]	n/a	FR1	1	R1106M
623.616	9.595	362875	REC_WORD	9.595	n/a	DOOR	-999	4	[0, 0, 0]	n/a	FR1	1	R1106M
633.211	14.222	367672	REC_WORD	14.222	n/a	PIN	-999	4	[0, 0, 0]	n/a	FR1	1	R1106M
647.433	44.204	374783	REC_END	n/a	n/a	n/a	-999	4	[0, 0, 0]	n/a	FR1	1	R1106M
691.637	0.0	396883	COUNTDOWN_START	n/a	n/a	n/a	-999	5	[0, 0, 0]	n/a	FR1	1	R1106M
691.637	10.428	396883	TRIAL	n/a	n/a	n/a	-999	5	[0, 0, 0]	n/a	FR1	1	R1106M
702.065	0.008	402097	COUNTDOWN_END	n/a	n/a	n/a	-999	5	[0, 0, 0]	n/a	FR1	1	R1106M
702.073	2.583	402101	ORIENT	n/a	n/a	n/a	-999	5	[0, 0, 0]	n/a	FR1	1	R1106M
704.656	2.401	403392	WORD	n/a	wordpools/wordpool_EN.txt	HAND	1	5	[0, 0, 0]	n/a	FR1	1	R1106M
707.057	2.451	404593	WORD	n/a	wordpools/wordpool_EN.txt	BEE	2	5	[0, 0, 0]	n/a	FR1	1	R1106M
709.508	2.55	405818	WORD	n/a	wordpools/wordpool_EN.txt	DOOR	3	5	[0, 0, 0]	n/a	FR1	1	R1106M
712.058	2.434	407093	WORD	n/a	wordpools/wordpool_EN.txt	FLUTE	4	5	[0, 0, 0]	n/a	FR1	1	R1106M
714.492	2.6	408310	WORD	n/a	wordpools/wordpool_EN.txt	BRANCH	5	5	[0, 0, 0]	n/a	FR1	1	R1106M
717.092	2.418	409610	WORD	n/a	wordpools/wordpool_EN.txt	TREE	6	5	[0, 0, 0]	n/a	FR1	1	R1106M
719.51	2.517	410819	WORD	n/a	wordpools/wordpool_EN.txt	MOLE	7	5	[0, 0, 0]	n/a	FR1	1	R1106M
722.027	2.4	412078	WORD	n/a	wordpools/wordpool_EN.txt	CANE	8	5	[0, 0, 0]	n/a	FR1	1	R1106M
724.427	2.501	413277	WORD	n/a	wordpools/wordpool_EN.txt	DOLL	9	5	[0, 0, 0]	n/a	FR1	1	R1106M
726.928	2.55	414528	WORD	n/a	wordpools/wordpool_EN.txt	HOLE	10	5	[0, 0, 0]	n/a	FR1	1	R1106M
729.478	2.568	415803	WORD	n/a	wordpools/wordpool_EN.txt	WEB	11	5	[0, 0, 0]	n/a	FR1	1	R1106M
732.046	1.615	417087	WORD	n/a	wordpools/wordpool_EN.txt	SNAKE	12	5	[0, 0, 0]	n/a	FR1	1	R1106M
733.661	0.001	417894	DISTRACT_START	n/a	n/a	n/a	-999	5	[0, 0, 0]	n/a	FR1	1	R1106M
733.662	0.016	417895	START	n/a	n/a	n/a	-999	5	[-999, -999, -999]	n/a	FR1	1	R1106M
733.678	4.802	417903	PROB	4.802	n/a	n/a	-999	5	[1, 2, 4]	7	FR1	1	R1106M
738.48	3.283	420304	PROB	3.283	n/a	n/a	-999	5	[8, 2, 1]	11	FR1	1	R1106M
741.763	6.252	421945	PROB	6.252	n/a	n/a	-999	5	[6, 8, 4]	18	FR1	1	R1106M
748.015	4.518	425071	PROB	4.518	n/a	n/a	-999	5	[1, 4, 2]	7	FR1	1	R1106M
752.533	4.798	427330	PROB	4.798	n/a	n/a	-999	5	[5, 2, 1]	8	FR1	1	R1106M
757.331	0.019	429729	STOP	n/a	n/a	n/a	-999	5	[-999, -999, -999]	n/a	FR1	1	R1106M
757.35	1.185	429738	DISTRACT_END	n/a	n/a	n/a	-999	5	[0, 0, 0]	n/a	FR1	1	R1106M
758.535	1.729	430330	REC_START	n/a	n/a	n/a	-999	5	[0, 0, 0]	n/a	FR1	1	R1106M
760.264	8.72	431195	REC_WORD	8.72	n/a	CANE	-999	5	[0, 0, 0]	n/a	FR1	1	R1106M
768.984	4.64	435555	REC_WORD	4.64	n/a	DOOR	-999	5	[0, 0, 0]	n/a	FR1	1	R1106M
773.624	9.065	437875	REC_WORD	9.065	n/a	FLUTE	-999	5	[0, 0, 0]	n/a	FR1	1	R1106M
782.689	5.856	442407	REC_WORD	5.856	n/a	BELL	-999	5	[0, 0, 0]	n/a	FR1	1	R1106M
788.545	15.898	445335	REC_END	n/a	n/a	n/a	-999	5	[0, 0, 0]	n/a	FR1	1	R1106M
804.443	0.0	453283	TRIAL	n/a	n/a	n/a	-999	6	[0, 0, 0]	n/a	FR1	1	R1106M
804.443	10.428	453283	COUNTDOWN_START	n/a	n/a	n/a	-999	6	[0, 0, 0]	n/a	FR1	1	R1106M
814.871	0.007	458497	COUNTDOWN_END	n/a	n/a	n/a	-999	6	[0, 0, 0]	n/a	FR1	1	R1106M
814.878	2.601	458500	ORIENT	n/a	n/a	n/a	-999	6	[0, 0, 0]	n/a	FR1	1	R1106M
817.479	2.617	459801	WORD	n/a	wordpools/wordpool_EN.txt	TOOL	1	6	[0, 0, 0]	n/a	FR1	1	R1106M
820.096	2.4	461109	WORD	n/a	wordpools/wordpool_EN.txt	CLOWN	2	6	[0, 0, 0]	n/a	FR1	1	R1106M
822.496	2.617	462309	WORD	n/a	wordpools/wordpool_EN.txt	EGG	3	6	[0, 0, 0]	n/a	FR1	1	R1106M
825.113	2.418	463618	WORD	n/a	wordpools/wordpool_EN.txt	POND	4	6	[0, 0, 0]	n/a	FR1	1	R1106M
827.531	2.6	464827	WORD	n/a	wordpools/wordpool_EN.txt	ZOO	5	6	[0, 0, 0]	n/a	FR1	1	R1106M
830.131	2.4	466126	WORD	n/a	wordpools/wordpool_EN.txt	WHEEL	6	6	[0, 0, 0]	n/a	FR1	1	R1106M
832.531	2.384	467326	WORD	n/a	wordpools/wordpool_EN.txt	TOAD	7	6	[0, 0, 0]	n/a	FR1	1	R1106M
834.915	2.451	468518	WORD	n/a	wordpools/wordpool_EN.txt	CAT	8	6	[0, 0, 0]	n/a	FR1	1	R1106M
837.366	2.416	469744	WORD	n/a	wordpools/wordpool_EN.txt	MOUSE	9	6	[0, 0, 0]	n/a	FR1	1	R1106M
839.782	2.452	470952	WORD	n/a	wordpools/wordpool_EN.txt	SPONGE	10	6	[0, 0, 0]	n/a	FR1	1	R1106M
842.234	2.499	472178	WORD	n/a	wordpools/wordpool_EN.txt	MOOSE	11	6	[0, 0, 0]	n/a	FR1	1	R1106M
844.733	1.601	473427	WORD	n/a	wordpools/wordpool_EN.txt	CLOCK	12	6	[0, 0, 0]	n/a	FR1	1	R1106M
846.334	0.001	474227	DISTRACT_START	n/a	n/a	n/a	-999	6	[0, 0, 0]	n/a	FR1	1	R1106M
846.335	0.016	474228	START	n/a	n/a	n/a	-999	6	[-999, -999, -999]	n/a	FR1	1	R1106M
846.351	6.384	474236	PROB	6.384	n/a	n/a	-999	6	[5, 3, 4]	12	FR1	1	R1106M
852.735	7.869	477428	PROB	7.869	n/a	n/a	-999	6	[7, 8, 1]	16	FR1	1	R1106M
860.604	5.668	481362	PROB	5.668	n/a	n/a	-999	6	[9, 5, 4]	18	FR1	1	R1106M
866.272	5.851	484196	PROB	5.851	n/a	n/a	-999	6	[6, 1, 8]	15	FR1	1	R1106M
872.123	0.016	487121	STOP	n/a	n/a	n/a	-999	6	[-999, -999, -999]	n/a	FR1	1	R1106M
872.139	1.051	487129	DISTRACT_END	n/a	n/a	n/a	-999	6	[0, 0, 0]	n/a	FR1	1	R1106M
873.19	1.325	487655	REC_START	n/a	n/a	n/a	-999	6	[0, 0, 0]	n/a	FR1	1	R1106M
874.515	1.335	488317	REC_WORD_VV	1.335	n/a	<>	-999	6	[0, 0, 0]	n/a	FR1	1	R1106M
875.85	3.368	488985	REC_WORD_VV	3.368	n/a	<>	-999	6	[0, 0, 0]	n/a	FR1	1	R1106M
879.218	2.043	490669	REC_WORD_VV	2.043	n/a	<>	-999	6	[0, 0, 0]	n/a	FR1	1	R1106M
881.261	1.875	491690	REC_WORD_VV	1.875	n/a	<>	-999	6	[0, 0, 0]	n/a	FR1	1	R1106M
883.136	1.811	492627	REC_WORD_VV	1.811	n/a	<>	-999	6	[0, 0, 0]	n/a	FR1	1	R1106M
884.947	0.558	493533	REC_WORD_VV	0.558	n/a	<>	-999	6	[0, 0, 0]	n/a	FR1	1	R1106M
885.505	2.638	493812	REC_WORD	2.638	n/a	WHEEL	-999	6	[0, 0, 0]	n/a	FR1	1	R1106M
888.143	0.465	495131	REC_WORD_VV	0.465	n/a	<>	-999	6	[0, 0, 0]	n/a	FR1	1	R1106M
888.608	3.312	495363	REC_WORD	3.312	n/a	CLOWN	-999	6	[0, 0, 0]	n/a	FR1	1	R1106M
891.92	2.053	497019	REC_WORD	2.053	n/a	TREE	-999	6	[0, 0, 0]	n/a	FR1	1	R1106M
893.973	9.228	498046	REC_WORD	9.228	n/a	LAKE	-999	6	[0, 0, 0]	n/a	FR1	1	R1106M
903.201	57.939	502659	REC_END	n/a	n/a	n/a	-999	6	[0, 0, 0]	n/a	FR1	1	R1106M
961.14	0.0	531627	COUNTDOWN_START	n/a	n/a	n/a	-999	7	[0, 0, 0]	n/a	FR1	1	R1106M
961.14	10.428	531627	TRIAL	n/a	n/a	n/a	-999	7	[0, 0, 0]	n/a	FR1	1	R1106M
971.568	0.007	536841	COUNTDOWN_END	n/a	n/a	n/a	-999	7	[0, 0, 0]	n/a	FR1	1	R1106M
971.575	2.384	536844	ORIENT	n/a	n/a	n/a	-999	7	[0, 0, 0]	n/a	FR1	1	R1106M
973.959	2.45	538036	WORD	n/a	wordpools/wordpool_EN.txt	THUMB	1	7	[0, 0, 0]	n/a	FR1	1	R1106M
976.409	2.417	539261	WORD	n/a	wordpools/wordpool_EN.txt	SLEEVE	2	7	[0, 0, 0]	n/a	FR1	1	R1106M
978.826	2.468	540470	WORD	n/a	wordpools/wordpool_EN.txt	FENCE	3	7	[0, 0, 0]	n/a	FR1	1	R1106M
981.294	2.449	541704	WORD	n/a	wordpools/wordpool_EN.txt	YARD	4	7	[0, 0, 0]	n/a	FR1	1	R1106M
983.743	2.602	542928	WORD	n/a	wordpools/wordpool_EN.txt	PEN	5	7	[0, 0, 0]	n/a	FR1	1	R1106M
986.345	2.6	544229	WORD	n/a	wordpools/wordpool_EN.txt	COUCH	6	7	[0, 0, 0]	n/a	FR1	1	R1106M
988.945	2.451	545529	WORD	n/a	wordpools/wordpool_EN.txt	TAIL	7	7	[0, 0, 0]	n/a	FR1	1	R1106M
991.396	2.5	546754	WORD	n/a	wordpools/wordpool_EN.txt	GATE	8	7	[0, 0, 0]	n/a	FR1	1	R1106M
993.896	2.467	548004	WORD	n/a	wordpools/wordpool_EN.txt	POOL	9	7	[0, 0, 0]	n/a	FR1	1	R1106M
996.363	2.383	549238	WORD	n/a	wordpools/wordpool_EN.txt	BAG	10	7	[0, 0, 0]	n/a	FR1	1	R1106M
998.746	2.485	550429	WORD	n/a	wordpools/wordpool_EN.txt	CUBE	11	7	[0, 0, 0]	n/a	FR1	1	R1106M
1001.231	1.616	551672	WORD	n/a	wordpools/wordpool_EN.txt	ROOM	12	7	[0, 0, 0]	n/a	FR1	1	R1106M
1002.847	0.001	552480	DISTRACT_START	n/a	n/a	n/a	-999	7	[0, 0, 0]	n/a	FR1	1	R1106M
1002.848	0.016	552480	START	n/a	n/a	n/a	-999	7	[-999, -999, -999]	n/a	FR1	1	R1106M
1002.864	6.019	552488	PROB	6.019	n/a	n/a	-999	7	[8, 7, 4]	19	FR1	1	R1106M
1008.883	4.217	555497	PROB	4.217	n/a	n/a	-999	7	[4, 8, 7]	19	FR1	1	R1106M
1013.1	4.451	557606	PROB	4.451	n/a	n/a	-999	7	[2, 3, 2]	7	FR1	1	R1106M
1017.551	4.334	559831	PROB	4.334	n/a	n/a	-999	7	[9, 4, 5]	18	FR1	1	R1106M
1021.885	4.19	561998	PROB	4.19	n/a	n/a	-999	7	[4, 3, 9]	16	FR1	1	R1106M
1026.075	0.011	564093	STOP	n/a	n/a	n/a	-999	7	[-999, -999, -999]	n/a	FR1	1	R1106M
1026.086	1.051	564098	DISTRACT_END	n/a	n/a	n/a	-999	7	[0, 0, 0]	n/a	FR1	1	R1106M
1027.137	1.981	564624	REC_START	n/a	n/a	n/a	-999	7	[0, 0, 0]	n/a	FR1	1	R1106M
1029.118	0.999	565614	REC_WORD	0.999	n/a	GATE	-999	7	[0, 0, 0]	n/a	FR1	1	R1106M
1030.117	1.155	566114	REC_WORD	1.155	n/a	DOOR	-999	7	[0, 0, 0]	n/a	FR1	1	R1106M
1031.272	4.629	566691	REC_WORD	4.629	n/a	PEN	-999	7	[0, 0, 0]	n/a	FR1	1	R1106M
1035.901	1.368	569006	REC_WORD	1.368	n/a	THUMB	-999	7	[0, 0, 0]	n/a	FR1	1	R1106M
1037.269	14.602	569690	REC_WORD	14.602	n/a	SLEEVE	-999	7	[0, 0, 0]	n/a	FR1	1	R1106M
1051.871	5.276	576990	REC_WORD	5.276	n/a	KEY	-999	7	[0, 0, 0]	n/a	FR1	1	R1106M
1057.147	5.545	579628	REC_END	n/a	n/a	n/a	-999	7	[0, 0, 0]	n/a	FR1	1	R1106M
1062.692	0.0	582400	TRIAL	n/a	n/a	n/a	-999	8	[0, 0, 0]	n/a	FR1	1	R1106M
1062.692	10.428	582400	COUNTDOWN_START	n/a	n/a	n/a	-999	8	[0, 0, 0]	n/a	FR1	1	R1106M
1073.12	0.008	587614	COUNTDOWN_END	n/a	n/a	n/a	-999	8	[0, 0, 0]	n/a	FR1	1	R1106M
1073.128	2.583	587618	ORIENT	n/a	n/a	n/a	-999	8	[0, 0, 0]	n/a	FR1	1	R1106M
1075.711	2.452	588909	WORD	n/a	wordpools/wordpool_EN.txt	STAIR	1	8	[0, 0, 0]	n/a	FR1	1	R1106M
1078.163	2.516	590135	WORD	n/a	wordpools/wordpool_EN.txt	NET	2	8	[0, 0, 0]	n/a	FR1	1	R1106M
1080.679	2.601	591393	WORD	n/a	wordpools/wordpool_EN.txt	BALL	3	8	[0, 0, 0]	n/a	FR1	1	R1106M
1083.28	2.416	592694	WORD	n/a	wordpools/wordpool_EN.txt	SHEET	4	8	[0, 0, 0]	n/a	FR1	1	R1106M
1085.696	2.485	593902	WORD	n/a	wordpools/wordpool_EN.txt	SCHOOL	5	8	[0, 0, 0]	n/a	FR1	1	R1106M
1088.181	2.5	595144	WORD	n/a	wordpools/wordpool_EN.txt	MAP	6	8	[0, 0, 0]	n/a	FR1	1	R1106M
1090.681	2.518	596394	WORD	n/a	wordpools/wordpool_EN.txt	WAND	7	8	[0, 0, 0]	n/a	FR1	1	R1106M
1093.199	2.516	597653	WORD	n/a	wordpools/wordpool_EN.txt	BOARD	8	8	[0, 0, 0]	n/a	FR1	1	R1106M
1095.715	2.418	598911	WORD	n/a	wordpools/wordpool_EN.txt	BOOK	9	8	[0, 0, 0]	n/a	FR1	1	R1106M
1098.133	2.484	600120	WORD	n/a	wordpools/wordpool_EN.txt	TRAIN	10	8	[0, 0, 0]	n/a	FR1	1	R1106M
1100.617	2.584	601362	WORD	n/a	wordpools/wordpool_EN.txt	DUCK	11	8	[0, 0, 0]	n/a	FR1	1	R1106M
1103.201	1.616	602654	WORD	n/a	wordpools/wordpool_EN.txt	JUDGE	12	8	[0, 0, 0]	n/a	FR1	1	R1106M
1104.817	0.001	603462	DISTRACT_START	n/a	n/a	n/a	-999	8	[0, 0, 0]	n/a	FR1	1	R1106M
1104.818	0.015	603462	START	n/a	n/a	n/a	-999	8	[-999, -999, -999]	n/a	FR1	1	R1106M
1104.833	4.769	603470	PROB	4.769	n/a	n/a	-999	8	[9, 1, 5]	15	FR1	1	R1106M
1109.602	2.784	605854	PROB	2.784	n/a	n/a	-999	8	[2, 8, 1]	11	FR1	1	R1106M
1112.386	8.568	607246	PROB	8.568	n/a	n/a	-999	8	[7, 7, 6]	20	FR1	1	R1106M
1120.954	4.065	611530	PROB	4.065	n/a	n/a	-999	8	[1, 7, 9]	17	FR1	1	R1106M
1125.019	0.019	613562	STOP	n/a	n/a	n/a	-999	8	[-999, -999, -999]	n/a	FR1	1	R1106M
1125.038	1.034	613572	DISTRACT_END	n/a	n/a	n/a	-999	8	[0, 0, 0]	n/a	FR1	1	R1106M
1126.072	4.842	614089	REC_START	n/a	n/a	n/a	-999	8	[0, 0, 0]	n/a	FR1	1	R1106M
1130.914	1.294	616509	REC_WORD	1.294	n/a	STAIR	-999	8	[0, 0, 0]	n/a	FR1	1	R1106M
1132.208	2.856	617156	REC_WORD	2.856	n/a	NET	-999	8	[0, 0, 0]	n/a	FR1	1	R1106M
1135.064	1.028	618584	REC_WORD	1.028	n/a	BALL	-999	8	[0, 0, 0]	n/a	FR1	1	R1106M
1136.092	19.994	619098	REC_WORD	19.994	n/a	DUCK	-999	8	[0, 0, 0]	n/a	FR1	1	R1106M
1156.086	32.015	629095	REC_END	n/a	n/a	n/a	-999	8	[0, 0, 0]	n/a	FR1	1	R1106M
1188.101	0.0	645101	TRIAL	n/a	n/a	n/a	-999	9	[0, 0, 0]	n/a	FR1	1	R1106M
1188.101	10.428	645101	COUNTDOWN_START	n/a	n/a	n/a	-999	9	[0, 0, 0]	n/a	FR1	1	R1106M
1198.529	0.007	650315	COUNTDOWN_END	n/a	n/a	n/a	-999	9	[0, 0, 0]	n/a	FR1	1	R1106M
1198.536	2.584	650319	ORIENT	n/a	n/a	n/a	-999	9	[0, 0, 0]	n/a	FR1	1	R1106M
1201.12	2.4	651610	WORD	n/a	wordpools/wordpool_EN.txt	LIP	1	9	[0, 0, 0]	n/a	FR1	1	R1106M
1203.52	2.534	652810	WORD	n/a	wordpools/wordpool_EN.txt	TRASH	2	9	[0, 0, 0]	n/a	FR1	1	R1106M
1206.054	2.417	654077	WORD	n/a	wordpools/wordpool_EN.txt	BOWL	3	9	[0, 0, 0]	n/a	FR1	1	R1106M
1208.471	2.467	655286	WORD	n/a	wordpools/wordpool_EN.txt	BEAN	4	9	[0, 0, 0]	n/a	FR1	1	R1106M
1210.938	2.567	656519	WORD	n/a	wordpools/wordpool_EN.txt	STEAK	5	9	[0, 0, 0]	n/a	FR1	1	R1106M
1213.505	2.568	657803	WORD	n/a	wordpools/wordpool_EN.txt	SPOON	6	9	[0, 0, 0]	n/a	FR1	1	R1106M
1216.073	2.533	659087	WORD	n/a	wordpools/wordpool_EN.txt	FACE	7	9	[0, 0, 0]	n/a	FR1	1	R1106M
1218.606	2.601	660353	WORD	n/a	wordpools/wordpool_EN.txt	EEL	8	9	[0, 0, 0]	n/a	FR1	1	R1106M
1221.207	2.433	661653	WORD	n/a	wordpools/wordpool_EN.txt	SHIELD	9	9	[0, 0, 0]	n/a	FR1	1	R1106M
1223.64	2.501	662870	WORD	n/a	wordpools/wordpool_EN.txt	SEAL	10	9	[0, 0, 0]	n/a	FR1	1	R1106M
1226.141	2.417	664120	WORD	n/a	wordpools/wordpool_EN.txt	SOUP	11	9	[0, 0, 0]	n/a	FR1	1	R1106M
1228.558	1.617	665329	WORD	n/a	wordpools/wordpool_EN.txt	PURSE	12	9	[0, 0, 0]	n/a	FR1	1	R1106M
1230.175	0.001	666137	DISTRACT_START	n/a	n/a	n/a	-999	9	[0, 0, 0]	n/a	FR1	1	R1106M
1230.176	0.016	666138	START	n/a	n/a	n/a	-999	9	[-999, -999, -999]	n/a	FR1	1	R1106M
1230.192	13.568	666146	PROB	13.568	n/a	n/a	-999	9	[2, 5, 9]	16	FR1	1	R1106M
1243.76	3.135	672929	PROB	3.135	n/a	n/a	-999	9	[2, 5, 5]	12	FR1	1	R1106M
1246.895	5.028	674497	PROB	5.028	n/a	n/a	-999	9	[2, 7, 9]	18	FR1	1	R1106M
1251.923	0.007	677011	STOP	n/a	n/a	n/a	-999	9	[-999, -999, -999]	n/a	FR1	1	R1106M
1251.93	1.084	677014	DISTRACT_END	n/a	n/a	n/a	-999	9	[0, 0, 0]	n/a	FR1	1	R1106M
1253.014	5.684	677556	REC_START	n/a	n/a	n/a	-999	9	[0, 0, 0]	n/a	FR1	1	R1106M
1258.698	4.035	680398	REC_WORD	4.035	n/a	EEL	-999	9	[0, 0, 0]	n/a	FR1	1	R1106M
1262.733	9.132	682415	REC_WORD	9.132	n/a	SHIELD	-999	9	[0, 0, 0]	n/a	FR1	1	R1106M
1271.865	6.125	686981	REC_WORD	6.125	n/a	MULE	-999	9	[0, 0, 0]	n/a	FR1	1	R1106M
1277.99	5.034	690043	REC_WORD_VV	5.034	n/a	<>	-999	9	[0, 0, 0]	n/a	FR1	1	R1106M
1283.024	18.082	692560	REC_END	n/a	n/a	n/a	-999	9	[0, 0, 0]	n/a	FR1	1	R1106M
1301.106	0.0	701601	TRIAL	n/a	n/a	n/a	-999	10	[0, 0, 0]	n/a	FR1	1	R1106M
1301.106	10.428	701601	COUNTDOWN_START	n/a	n/a	n/a	-999	10	[0, 0, 0]	n/a	FR1	1	R1106M
1311.534	0.007	706814	COUNTDOWN_END	n/a	n/a	n/a	-999	10	[0, 0, 0]	n/a	FR1	1	R1106M
1311.541	2.501	706818	ORIENT	n/a	n/a	n/a	-999	10	[0, 0, 0]	n/a	FR1	1	R1106M
1314.042	2.433	708068	WORD	n/a	wordpools/wordpool_EN.txt	SIGN	1	10	[0, 0, 0]	n/a	FR1	1	R1106M
1316.475	2.518	709285	WORD	n/a	wordpools/wordpool_EN.txt	DOG	2	10	[0, 0, 0]	n/a	FR1	1	R1106M
1318.993	2.6	710544	WORD	n/a	wordpools/wordpool_EN.txt	WEED	3	10	[0, 0, 0]	n/a	FR1	1	R1106M
1321.593	2.501	711844	WORD	n/a	wordpools/wordpool_EN.txt	CHIN	4	10	[0, 0, 0]	n/a	FR1	1	R1106M
1324.094	2.582	713094	WORD	n/a	wordpools/wordpool_EN.txt	VAN	5	10	[0, 0, 0]	n/a	FR1	1	R1106M
1326.676	2.368	714385	WORD	n/a	wordpools/wordpool_EN.txt	PET	6	10	[0, 0, 0]	n/a	FR1	1	R1106M
1329.044	2.583	715569	WORD	n/a	wordpools/wordpool_EN.txt	BATH	7	10	[0, 0, 0]	n/a	FR1	1	R1106M
1331.627	2.518	716860	WORD	n/a	wordpools/wordpool_EN.txt	SMILE	8	10	[0, 0, 0]	n/a	FR1	1	R1106M
1334.145	2.418	718119	WORD	n/a	wordpools/wordpool_EN.txt	CONE	9	10	[0, 0, 0]	n/a	FR1	1	R1106M
1336.563	2.433	719328	WORD	n/a	wordpools/wordpool_EN.txt	CHALK	10	10	[0, 0, 0]	n/a	FR1	1	R1106M
1338.996	2.618	720545	WORD	n/a	wordpools/wordpool_EN.txt	FLEA	11	10	[0, 0, 0]	n/a	FR1	1	R1106M
1341.614	1.617	721853	WORD	n/a	wordpools/wordpool_EN.txt	EAR	12	10	[0, 0, 0]	n/a	FR1	1	R1106M
1343.231	0.0	722662	DISTRACT_START	n/a	n/a	n/a	-999	10	[0, 0, 0]	n/a	FR1	1	R1106M
1343.231	0.016	722662	START	n/a	n/a	n/a	-999	10	[-999, -999, -999]	n/a	FR1	1	R1106M
1343.247	4.801	722670	PROB	4.801	n/a	n/a	-999	10	[8, 1, 3]	12	FR1	1	R1106M
1348.048	3.884	725070	PROB	3.884	n/a	n/a	-999	10	[3, 7, 5]	15	FR1	1	R1106M
1351.932	6.867	727012	PROB	6.867	n/a	n/a	-999	10	[3, 4, 9]	16	FR1	1	R1106M
1358.799	3.968	730445	PROB	3.968	n/a	n/a	-999	10	[8, 4, 4]	16	FR1	1	R1106M
1362.767	8.324	732429	PROB	8.324	n/a	n/a	-999	10	[9, 3, 5]	17	FR1	1	R1106M
1371.091	0.012	736591	STOP	n/a	n/a	n/a	-999	10	[-999, -999, -999]	n/a	FR1	1	R1106M
1371.103	1.034	736597	DISTRACT_END	n/a	n/a	n/a	-999	10	[0, 0, 0]	n/a	FR1	1	R1106M
1372.137	9.06	737114	REC_START	n/a	n/a	n/a	-999	10	[0, 0, 0]	n/a	FR1	1	R1106M
1381.197	1.785	741644	REC_WORD	1.785	n/a	FLEA	-999	10	[0, 0, 0]	n/a	FR1	1	R1106M
1382.982	1.701	742536	REC_WORD	1.701	n/a	PET	-999	10	[0, 0, 0]	n/a	FR1	1	R1106M
1384.683	8.848	743387	REC_WORD	8.848	n/a	DOG	-999	10	[0, 0, 0]	n/a	FR1	1	R1106M
1393.531	8.616	747811	REC_WORD	8.616	n/a	GRASS	-999	10	[0, 0, 0]	n/a	FR1	1	R1106M
1402.147	9.913	752118	REC_END	n/a	n/a	n/a	-999	10	[0, 0, 0]	n/a	FR1	1	R1106M
1412.06	0.001	757074	COUNTDOWN_START	n/a	n/a	n/a	-999	11	[0, 0, 0]	n/a	FR1	1	R1106M
1412.061	10.427	757075	TRIAL	n/a	n/a	n/a	-999	11	[0, 0, 0]	n/a	FR1	1	R1106M
1422.488	0.008	762288	COUNTDOWN_END	n/a	n/a	n/a	-999	11	[0, 0, 0]	n/a	FR1	1	R1106M
1422.496	2.617	762292	ORIENT	n/a	n/a	n/a	-999	11	[0, 0, 0]	n/a	FR1	1	R1106M
1425.113	2.633	763601	WORD	n/a	wordpools/wordpool_EN.txt	BED	1	11	[0, 0, 0]	n/a	FR1	1	R1106M
1427.746	2.468	764917	WORD	n/a	wordpools/wordpool_EN.txt	TEA	2	11	[0, 0, 0]	n/a	FR1	1	R1106M
1430.214	2.616	766151	WORD	n/a	wordpools/wordpool_EN.txt	PANTS	3	11	[0, 0, 0]	n/a	FR1	1	R1106M
1432.83	2.568	767459	WORD	n/a	wordpools/wordpool_EN.txt	TOY	4	11	[0, 0, 0]	n/a	FR1	1	R1106M
1435.398	2.45	768743	WORD	n/a	wordpools/wordpool_EN.txt	CLOTH	5	11	[0, 0, 0]	n/a	FR1	1	R1106M
1437.848	2.385	769968	WORD	n/a	wordpools/wordpool_EN.txt	GRASS	6	11	[0, 0, 0]	n/a	FR1	1	R1106M
1440.233	2.383	771160	WORD	n/a	wordpools/wordpool_EN.txt	OAK	7	11	[0, 0, 0]	n/a	FR1	1	R1106M
1442.616	2.618	772352	WORD	n/a	wordpools/wordpool_EN.txt	FUR	8	11	[0, 0, 0]	n/a	FR1	1	R1106M
1445.234	2.516	773661	WORD	n/a	wordpools/wordpool_EN.txt	SOCK	9	11	[0, 0, 0]	n/a	FR1	1	R1106M
1447.75	2.618	774918	WORD	n/a	wordpools/wordpool_EN.txt	MAT	10	11	[0, 0, 0]	n/a	FR1	1	R1106M
1450.368	2.466	776227	WORD	n/a	wordpools/wordpool_EN.txt	TIE	11	11	[0, 0, 0]	n/a	FR1	1	R1106M
1452.834	1.601	777460	WORD	n/a	wordpools/wordpool_EN.txt	LAMB	12	11	[0, 0, 0]	n/a	FR1	1	R1106M
1454.435	0.001	778261	DISTRACT_START	n/a	n/a	n/a	-999	11	[0, 0, 0]	n/a	FR1	1	R1106M
1454.436	0.016	778261	START	n/a	n/a	n/a	-999	11	[-999, -999, -999]	n/a	FR1	1	R1106M
1454.452	5.333	778269	PROB	5.333	n/a	n/a	-999	11	[9, 5, 7]	21	FR1	1	R1106M
1459.785	6.803	780936	PROB	6.803	n/a	n/a	-999	11	[1, 6, 3]	10	FR1	1	R1106M
1466.588	5.768	784337	PROB	5.768	n/a	n/a	-999	11	[2, 7, 9]	18	FR1	1	R1106M
1472.356	3.406	787221	PROB	3.406	n/a	n/a	-999	11	[2, 1, 3]	6	FR1	1	R1106M
1475.762	0.01	788924	STOP	n/a	n/a	n/a	-999	11	[-999, -999, -999]	n/a	FR1	1	R1106M
1475.772	1.051	788929	DISTRACT_END	n/a	n/a	n/a	-999	11	[0, 0, 0]	n/a	FR1	1	R1106M
1476.823	2.68	789454	REC_START	n/a	n/a	n/a	-999	11	[0, 0, 0]	n/a	FR1	1	R1106M
1479.503	1.146	790794	REC_WORD	1.146	n/a	LAMB	-999	11	[0, 0, 0]	n/a	FR1	1	R1106M
1480.649	3.007	791367	REC_WORD	3.007	n/a	TIE	-999	11	[0, 0, 0]	n/a	FR1	1	R1106M
1483.656	1.836	792870	REC_WORD	1.836	n/a	CONE	-999	11	[0, 0, 0]	n/a	FR1	1	R1106M
1485.492	13.333	793788	REC_WORD	13.333	n/a	MAT	-999	11	[0, 0, 0]	n/a	FR1	1	R1106M
1498.825	8.009	800455	REC_WORD	8.009	n/a	PANTS	-999	11	[0, 0, 0]	n/a	FR1	1	R1106M
1506.834	10.697	804459	REC_END	n/a	n/a	n/a	-999	11	[0, 0, 0]	n/a	FR1	1	R1106M
1517.531	0.0	809807	TRIAL	n/a	n/a	n/a	-999	12	[0, 0, 0]	n/a	FR1	1	R1106M
1517.531	10.428	809807	COUNTDOWN_START	n/a	n/a	n/a	-999	12	[0, 0, 0]	n/a	FR1	1	R1106M
1527.959	0.007	815021	COUNTDOWN_END	n/a	n/a	n/a	-999	12	[0, 0, 0]	n/a	FR1	1	R1106M
1527.966	2.601	815024	ORIENT	n/a	n/a	n/a	-999	12	[0, 0, 0]	n/a	FR1	1	R1106M
1530.567	2.6	816325	WORD	n/a	wordpools/wordpool_EN.txt	STOVE	1	12	[0, 0, 0]	n/a	FR1	1	R1106M
1533.167	2.516	817625	WORD	n/a	wordpools/wordpool_EN.txt	CALF	2	12	[0, 0, 0]	n/a	FR1	1	R1106M
1535.683	2.552	818882	WORD	n/a	wordpools/wordpool_EN.txt	MUG	3	12	[0, 0, 0]	n/a	FR1	1	R1106M
1538.235	2.384	820158	WORD	n/a	wordpools/wordpool_EN.txt	APE	4	12	[0, 0, 0]	n/a	FR1	1	R1106M
1540.619	2.584	821350	WORD	n/a	wordpools/wordpool_EN.txt	FOX	5	12	[0, 0, 0]	n/a	FR1	1	R1106M
1543.203	2.466	822642	WORD	n/a	wordpools/wordpool_EN.txt	WOLF	6	12	[0, 0, 0]	n/a	FR1	1	R1106M
1545.669	2.368	823875	WORD	n/a	wordpools/wordpool_EN.txt	HOOK	7	12	[0, 0, 0]	n/a	FR1	1	R1106M
1548.037	2.45	825059	WORD	n/a	wordpools/wordpool_EN.txt	BARN	8	12	[0, 0, 0]	n/a	FR1	1	R1106M
1550.487	2.618	826284	WORD	n/a	wordpools/wordpool_EN.txt	NOSE	9	12	[0, 0, 0]	n/a	FR1	1	R1106M
1553.105	2.383	827593	WORD	n/a	wordpools/wordpool_EN.txt	HEN	10	12	[0, 0, 0]	n/a	FR1	1	R1106M
1555.488	2.417	828784	WORD	n/a	wordpools/wordpool_EN.txt	FARM	11	12	[0, 0, 0]	n/a	FR1	1	R1106M
1557.905	1.618	829993	WORD	n/a	wordpools/wordpool_EN.txt	FORK	12	12	[0, 0, 0]	n/a	FR1	1	R1106M
1559.523	0.001	830802	DISTRACT_START	n/a	n/a	n/a	-999	12	[0, 0, 0]	n/a	FR1	1	R1106M
1559.524	0.015	830802	START	n/a	n/a	n/a	-999	12	[-999, -999, -999]	n/a	FR1	1	R1106M
1559.539	8.968	830810	PROB	8.968	n/a	n/a	-999	12	[3, 7, 9]	19	FR1	1	R1106M
1568.507	5.785	835294	PROB	5.785	n/a	n/a	-999	12	[9, 3, 8]	20	FR1	1	R1106M
1574.292	4.268	838186	PROB	4.268	n/a	n/a	-999	12	[4, 7, 6]	15	FR1	1	R1106M
1578.56	6.763	840320	PROB	6.763	n/a	n/a	-999	12	[6, 4, 6]	16	FR1	1	R1106M
1585.323	0.004	843701	STOP	n/a	n/a	n/a	-999	12	[-999, -999, -999]	n/a	FR1	1	R1106M
1585.327	1.218	843703	DISTRACT_END	n/a	n/a	n/a	-999	12	[0, 0, 0]	n/a	FR1	1	R1106M
1586.545	2.094	844312	REC_START	n/a	n/a	n/a	-999	12	[0, 0, 0]	n/a	FR1	1	R1106M
1588.639	5.579	845359	REC_WORD	5.579	n/a	FARM	-999	12	[0, 0, 0]	n/a	FR1	1	R1106M
1594.218	12.664	848148	REC_WORD	12.664	n/a	HEN	-999	12	[0, 0, 0]	n/a	FR1	1	R1106M
1606.882	9.673	854480	REC_WORD	9.673	n/a	PEN	-999	12	[0, 0, 0]	n/a	FR1	1	R1106M
1616.555	4.479	859316	REC_END	n/a	n/a	n/a	-999	12	[0, 0, 0]	n/a	FR1	1	R1106M
1621.034	0.001	861556	COUNTDOWN_START	n/a	n/a	n/a	-999	13	[0, 0, 0]	n/a	FR1	1	R1106M
1621.035	10.427	861556	TRIAL	n/a	n/a	n/a	-999	13	[0, 0, 0]	n/a	FR1	1	R1106M
1631.462	0.008	866769	COUNTDOWN_END	n/a	n/a	n/a	-999	13	[0, 0, 0]	n/a	FR1	1	R1106M
1631.47	2.417	866773	ORIENT	n/a	n/a	n/a	-999	13	[0, 0, 0]	n/a	FR1	1	R1106M
1633.887	2.584	867982	WORD	n/a	wordpools/wordpool_EN.txt	GEESE	1	13	[0, 0, 0]	n/a	FR1	1	R1106M
1636.471	2.45	869274	WORD	n/a	wordpools/wordpool_EN.txt	ICE	2	13	[0, 0, 0]	n/a	FR1	1	R1106M
1638.921	2.534	870499	WORD	n/a	wordpools/wordpool_EN.txt	FISH	3	13	[0, 0, 0]	n/a	FR1	1	R1106M
1641.455	2.383	871765	WORD	n/a	wordpools/wordpool_EN.txt	SLIME	4	13	[0, 0, 0]	n/a	FR1	1	R1106M
1643.838	2.435	872957	WORD	n/a	wordpools/wordpool_EN.txt	CAPE	5	13	[0, 0, 0]	n/a	FR1	1	R1106M
1646.273	2.399	874174	WORD	n/a	wordpools/wordpool_EN.txt	FORT	6	13	[0, 0, 0]	n/a	FR1	1	R1106M
1648.672	2.518	875374	WORD	n/a	wordpools/wordpool_EN.txt	TANK	7	13	[0, 0, 0]	n/a	FR1	1	R1106M
1651.19	2.55	876633	WORD	n/a	wordpools/wordpool_EN.txt	STRING	8	13	[0, 0, 0]	n/a	FR1	1	R1106M
1653.74	2.385	877908	WORD	n/a	wordpools/wordpool_EN.txt	GOAT	9	13	[0, 0, 0]	n/a	FR1	1	R1106M
1656.125	2.566	879100	WORD	n/a	wordpools/wordpool_EN.txt	SKY	10	13	[0, 0, 0]	n/a	FR1	1	R1106M
1658.691	2.401	880383	WORD	n/a	wordpools/wordpool_EN.txt	BAT	11	13	[0, 0, 0]	n/a	FR1	1	R1106M
1661.092	1.616	881583	WORD	n/a	wordpools/wordpool_EN.txt	LAKE	12	13	[0, 0, 0]	n/a	FR1	1	R1106M
1662.708	0.001	882391	DISTRACT_START	n/a	n/a	n/a	-999	13	[0, 0, 0]	n/a	FR1	1	R1106M
1662.709	0.016	882392	START	n/a	n/a	n/a	-999	13	[-999, -999, -999]	n/a	FR1	1	R1106M
1662.725	5.852	882400	PROB	5.852	n/a	n/a	-999	13	[4, 9, 2]	15	FR1	1	R1106M
1668.577	7.518	885326	PROB	7.518	n/a	n/a	-999	13	[3, 1, 6]	10	FR1	1	R1106M
1676.095	7.444	889085	PROB	7.444	n/a	n/a	-999	13	[3, 2, 4]	9	FR1	1	R1106M
1683.539	0.007	892806	STOP	n/a	n/a	n/a	-999	13	[-999, -999, -999]	n/a	FR1	1	R1106M
1683.546	1.1	892810	DISTRACT_END	n/a	n/a	n/a	-999	13	[0, 0, 0]	n/a	FR1	1	R1106M
1684.646	1.754	893360	REC_START	n/a	n/a	n/a	-999	13	[0, 0, 0]	n/a	FR1	1	R1106M
1686.4	1.317	894237	REC_WORD	1.317	n/a	BAT	-999	13	[0, 0, 0]	n/a	FR1	1	R1106M
1687.717	9.456	894895	REC_WORD	9.456	n/a	SKY	-999	13	[0, 0, 0]	n/a	FR1	1	R1106M
1697.173	2.992	899623	REC_WORD	2.992	n/a	SLIME	-999	13	[0, 0, 0]	n/a	FR1	1	R1106M
1700.165	1.207	901119	REC_WORD	1.207	n/a	ICE	-999	13	[0, 0, 0]	n/a	FR1	1	R1106M
1701.372	5.911	901722	REC_WORD	5.911	n/a	FISH	-999	13	[0, 0, 0]	n/a	FR1	1	R1106M
1707.283	7.378	904678	REC_WORD	7.378	n/a	GEESE	-999	13	[0, 0, 0]	n/a	FR1	1	R1106M
1714.661	5.893	908366	REC_END	n/a	n/a	n/a	-999	13	[0, 0, 0]	n/a	FR1	1	R1106M
1720.554	0.0	911313	TRIAL	n/a	n/a	n/a	-999	14	[0, 0, 0]	n/a	FR1	1	R1106M
1720.554	0.0	911313	COUNTDOWN_START	n/a	n/a	n/a	-999	14	[0, 0, 0]	n/a	FR1	1	R1106M
