onset	duration	sample	trial_type	response_time	stim_file	item_name	serialpos	list	test	answer	experiment	session	subject
0.0	0.0	6711	INSTRUCT_START	n/a	n/a	n/a	-999	-999	[0, 0, 0]	n/a	FR1	1	R1222M
0.0	11.054	6711	INSTRUCT_END	n/a	n/a	n/a	-999	-999	[0, 0, 0]	n/a	FR1	1	R1222M
11.054	0.0	17764	SESS_START	n/a	n/a	n/a	-999	-999	[0, 0, 0]	n/a	FR1	1	R1222M
11.054	18.5	17764	MIC_TEST	n/a	n/a	n/a	-999	-999	[0, 0, 0]	n/a	FR1	1	R1222M
29.554	3.169	36263	PRACTICE_TRIAL	n/a	n/a	n/a	-999	-1	[0, 0, 0]	n/a	FR1	1	R1222M
32.723	10.428	39432	COUNTDOWN_START	n/a	n/a	n/a	-999	-1	[0, 0, 0]	n/a	FR1	1	R1222M
43.151	0.008	49859	COUNTDOWN_END	n/a	n/a	n/a	-999	-1	[0, 0, 0]	n/a	FR1	1	R1222M
43.159	1.617	49867	PRACTICE_ORIENT	n/a	n/a	n/a	-999	-1	[0, 0, 0]	n/a	FR1	1	R1222M
44.776	2.084	51484	PRACTICE_ORIENT_OFF	n/a	n/a	n/a	-999	-1	[0, 0, 0]	n/a	FR1	1	R1222M
46.86	1.618	53568	PRACTICE_WORD	n/a	n/a	FLOOD	1	-1	[0, 0, 0]	n/a	FR1	1	R1222M
48.478	0.949	55186	PRACTICE_WORD_OFF	n/a	n/a	FLOOD	-999	-1	[0, 0, 0]	n/a	FR1	1	R1222M
49.427	1.617	56135	PRACTICE_WORD	n/a	n/a	BEAM	2	-1	[0, 0, 0]	n/a	FR1	1	R1222M
51.044	0.967	57752	PRACTICE_WORD_OFF	n/a	n/a	BEAM	-999	-1	[0, 0, 0]	n/a	FR1	1	R1222M
52.011	1.618	58719	PRACTICE_WORD	n/a	n/a	WAGON	3	-1	[0, 0, 0]	n/a	FR1	1	R1222M
53.629	0.799	60336	PRACTICE_WORD_OFF	n/a	n/a	WAGON	-999	-1	[0, 0, 0]	n/a	FR1	1	R1222M
54.428	1.617	61135	PRACTICE_WORD	n/a	n/a	RHINO	4	-1	[0, 0, 0]	n/a	FR1	1	R1222M
56.045	0.883	62752	PRACTICE_WORD_OFF	n/a	n/a	RHINO	-999	-1	[0, 0, 0]	n/a	FR1	1	R1222M
56.928	1.601	63635	PRACTICE_WORD	n/a	n/a	IRON	5	-1	[0, 0, 0]	n/a	FR1	1	R1222M
58.529	0.783	65236	PRACTICE_WORD_OFF	n/a	n/a	IRON	-999	-1	[0, 0, 0]	n/a	FR1	1	R1222M
59.312	1.617	66019	PRACTICE_WORD	n/a	n/a	TONGUE	6	-1	[0, 0, 0]	n/a	FR1	1	R1222M
60.929	0.8	67636	PRACTICE_WORD_OFF	n/a	n/a	TONGUE	-999	-1	[0, 0, 0]	n/a	FR1	1	R1222M
61.729	1.617	68436	PRACTICE_WORD	n/a	n/a	ATTIC	7	-1	[0, 0, 0]	n/a	FR1	1	R1222M
63.346	0.95	70053	PRACTICE_WORD_OFF	n/a	n/a	ATTIC	-999	-1	[0, 0, 0]	n/a	FR1	1	R1222M
64.296	1.617	71003	PRACTICE_WORD	n/a	n/a	COTTON	8	-1	[0, 0, 0]	n/a	FR1	1	R1222M
65.913	0.884	72620	PRACTICE_WORD_OFF	n/a	n/a	COTTON	-999	-1	[0, 0, 0]	n/a	FR1	1	R1222M
66.797	1.617	73504	PRACTICE_WORD	n/a	n/a	CAMEL	9	-1	[0, 0, 0]	n/a	FR1	1	R1222M
68.414	0.933	75121	PRACTICE_WORD_OFF	n/a	n/a	CAMEL	-999	-1	[0, 0, 0]	n/a	FR1	1	R1222M
69.347	1.617	76054	PRACTICE_WORD	n/a	n/a	RING	10	-1	[0, 0, 0]	n/a	FR1	1	R1222M
70.964	0.984	77670	PRACTICE_WORD_OFF	n/a	n/a	RING	-999	-1	[0, 0, 0]	n/a	FR1	1	R1222M
71.948	1.618	78654	PRACTICE_WORD	n/a	n/a	WATCH	11	-1	[0, 0, 0]	n/a	FR1	1	R1222M
73.566	1.0	80272	PRACTICE_WORD_OFF	n/a	n/a	WATCH	-999	-1	[0, 0, 0]	n/a	FR1	1	R1222M
74.566	1.616	81272	PRACTICE_WORD	n/a	n/a	CHEST	12	-1	[0, 0, 0]	n/a	FR1	1	R1222M
76.182	0.0	82888	PRACTICE_WORD_OFF	n/a	n/a	CHEST	-999	-1	[0, 0, 0]	n/a	FR1	1	R1222M
76.182	0.001	82888	DISTRACT_START	n/a	n/a	n/a	-999	-1	[0, 0, 0]	n/a	FR1	1	R1222M
76.183	0.016	82889	START	n/a	n/a	n/a	-999	1	[-999, -999, -999]	n/a	FR1	1	R1222M
76.199	12.819	82905	PROB	12.819	n/a	n/a	-999	1	[7, 7, 9]	23	FR1	1	R1222M
89.018	5.784	95723	PROB	5.784	n/a	n/a	-999	1	[4, 2, 8]	14	FR1	1	R1222M
94.802	8.738	101507	PROB	8.738	n/a	n/a	-999	1	[6, 4, 5]	15	FR1	1	R1222M
103.54	0.015	110245	STOP	n/a	n/a	n/a	-999	1	[-999, -999, -999]	n/a	FR1	1	R1222M
103.555	0.682	110260	DISTRACT_END	n/a	n/a	n/a	-999	-1	[0, 0, 0]	n/a	FR1	1	R1222M
104.237	0.522	110942	RETRIEVAL_ORIENT	n/a	n/a	n/a	-999	-1	[0, 0, 0]	n/a	FR1	1	R1222M
104.759	30.006	111464	PRACTICE_REC_START	n/a	n/a	n/a	-999	-1	[0, 0, 0]	n/a	FR1	1	R1222M
134.765	11.314	141468	PRACTICE_REC_END	n/a	n/a	n/a	-999	-1	[0, 0, 0]	n/a	FR1	1	R1222M
146.079	0.5	152781	TRIAL	n/a	n/a	n/a	-999	1	[0, 0, 0]	n/a	FR1	1	R1222M
146.579	10.428	153281	COUNTDOWN_START	n/a	n/a	n/a	-999	1	[0, 0, 0]	n/a	FR1	1	R1222M
157.007	0.007	163709	COUNTDOWN_END	n/a	n/a	n/a	-999	1	[0, 0, 0]	n/a	FR1	1	R1222M
157.014	1.618	163716	ORIENT	n/a	n/a	n/a	-999	1	[0, 0, 0]	n/a	FR1	1	R1222M
158.632	2.033	165334	ORIENT_OFF	n/a	n/a	n/a	-999	1	[0, 0, 0]	n/a	FR1	1	R1222M
160.665	1.617	167366	WORD	n/a	wordpools/wordpool_EN.txt	CHAIR	1	1	[0, 0, 0]	n/a	FR1	1	R1222M
162.282	0.934	168983	WORD_OFF	n/a	n/a	CHAIR	1	1	[0, 0, 0]	n/a	FR1	1	R1222M
163.216	1.617	169917	WORD	n/a	wordpools/wordpool_EN.txt	CUP	2	1	[0, 0, 0]	n/a	FR1	1	R1222M
164.833	0.9	171534	WORD_OFF	n/a	n/a	CUP	2	1	[0, 0, 0]	n/a	FR1	1	R1222M
165.733	1.617	172434	WORD	n/a	wordpools/wordpool_EN.txt	FRUIT	3	1	[0, 0, 0]	n/a	FR1	1	R1222M
167.35	0.967	174051	WORD_OFF	n/a	n/a	FRUIT	3	1	[0, 0, 0]	n/a	FR1	1	R1222M
168.317	1.617	175018	WORD	n/a	wordpools/wordpool_EN.txt	PLATE	4	1	[0, 0, 0]	n/a	FR1	1	R1222M
169.934	0.95	176635	WORD_OFF	n/a	n/a	PLATE	4	1	[0, 0, 0]	n/a	FR1	1	R1222M
170.884	1.618	177585	WORD	n/a	wordpools/wordpool_EN.txt	CHIN	5	1	[0, 0, 0]	n/a	FR1	1	R1222M
172.502	0.766	179203	WORD_OFF	n/a	n/a	CHIN	5	1	[0, 0, 0]	n/a	FR1	1	R1222M
173.268	1.617	179969	WORD	n/a	wordpools/wordpool_EN.txt	TOAST	6	1	[0, 0, 0]	n/a	FR1	1	R1222M
174.885	0.866	181586	WORD_OFF	n/a	n/a	TOAST	6	1	[0, 0, 0]	n/a	FR1	1	R1222M
175.751	1.617	182452	WORD	n/a	wordpools/wordpool_EN.txt	STOOL	7	1	[0, 0, 0]	n/a	FR1	1	R1222M
177.368	0.901	184068	WORD_OFF	n/a	n/a	STOOL	7	1	[0, 0, 0]	n/a	FR1	1	R1222M
178.269	1.616	184969	WORD	n/a	wordpools/wordpool_EN.txt	GLASS	8	1	[0, 0, 0]	n/a	FR1	1	R1222M
179.885	0.867	186585	WORD_OFF	n/a	n/a	GLASS	8	1	[0, 0, 0]	n/a	FR1	1	R1222M
180.752	1.617	187452	WORD	n/a	wordpools/wordpool_EN.txt	LIP	9	1	[0, 0, 0]	n/a	FR1	1	R1222M
182.369	0.901	189069	WORD_OFF	n/a	n/a	LIP	9	1	[0, 0, 0]	n/a	FR1	1	R1222M
183.27	1.617	189970	WORD	n/a	wordpools/wordpool_EN.txt	PIN	10	1	[0, 0, 0]	n/a	FR1	1	R1222M
184.887	0.899	191587	WORD_OFF	n/a	n/a	PIN	10	1	[0, 0, 0]	n/a	FR1	1	R1222M
185.786	1.601	192486	WORD	n/a	wordpools/wordpool_EN.txt	ELF	11	1	[0, 0, 0]	n/a	FR1	1	R1222M
187.387	0.8	194087	WORD_OFF	n/a	n/a	ELF	11	1	[0, 0, 0]	n/a	FR1	1	R1222M
188.187	1.617	194887	WORD	n/a	wordpools/wordpool_EN.txt	FOOT	12	1	[0, 0, 0]	n/a	FR1	1	R1222M
189.804	0.0	196504	WORD_OFF	n/a	n/a	FOOT	12	1	[0, 0, 0]	n/a	FR1	1	R1222M
189.804	0.001	196504	DISTRACT_START	n/a	n/a	n/a	-999	1	[0, 0, 0]	n/a	FR1	1	R1222M
189.805	0.016	196505	START	n/a	n/a	n/a	-999	2	[-999, -999, -999]	n/a	FR1	1	R1222M
189.821	7.318	196521	PROB	7.318	n/a	n/a	-999	2	[8, 3, 1]	12	FR1	1	R1222M
197.139	7.051	203838	PROB	7.051	n/a	n/a	-999	2	[9, 2, 5]	16	FR1	1	R1222M
204.19	5.847	210889	PROB	5.847	n/a	n/a	-999	2	[6, 7, 3]	16	FR1	1	R1222M
210.037	0.021	216736	STOP	n/a	n/a	n/a	-999	2	[-999, -999, -999]	n/a	FR1	1	R1222M
210.058	0.535	216757	DISTRACT_END	n/a	n/a	n/a	-999	1	[0, 0, 0]	n/a	FR1	1	R1222M
210.593	0.516	217292	RETRIEVAL_ORIENT	n/a	n/a	n/a	-999	1	[0, 0, 0]	n/a	FR1	1	R1222M
211.109	0.71	217808	REC_START	n/a	n/a	n/a	-999	1	[0, 0, 0]	n/a	FR1	1	R1222M
211.819	5.335	218517	REC_WORD	5.335	n/a	ELF	-999	1	[0, 0, 0]	n/a	FR1	1	R1222M
217.154	3.034	223852	REC_WORD	3.034	n/a	FRUIT	-999	1	[0, 0, 0]	n/a	FR1	1	R1222M
220.188	4.151	226886	REC_WORD	4.151	n/a	PLATE	-999	1	[0, 0, 0]	n/a	FR1	1	R1222M
224.339	5.699	231037	REC_WORD	5.699	n/a	LIP	-999	1	[0, 0, 0]	n/a	FR1	1	R1222M
230.038	11.084	236735	REC_WORD	11.084	n/a	CHIN	-999	1	[0, 0, 0]	n/a	FR1	1	R1222M
241.122	7.944	247819	REC_END	n/a	n/a	n/a	-999	1	[0, 0, 0]	n/a	FR1	1	R1222M
249.066	0.5	255762	TRIAL	n/a	n/a	n/a	-999	2	[0, 0, 0]	n/a	FR1	1	R1222M
249.566	10.428	256262	COUNTDOWN_START	n/a	n/a	n/a	-999	2	[0, 0, 0]	n/a	FR1	1	R1222M
259.994	0.007	266690	COUNTDOWN_END	n/a	n/a	n/a	-999	2	[0, 0, 0]	n/a	FR1	1	R1222M
260.001	1.618	266697	ORIENT	n/a	n/a	n/a	-999	2	[0, 0, 0]	n/a	FR1	1	R1222M
261.619	1.917	268315	ORIENT_OFF	n/a	n/a	n/a	-999	2	[0, 0, 0]	n/a	FR1	1	R1222M
263.536	1.616	270232	WORD	n/a	wordpools/wordpool_EN.txt	BOY	1	2	[0, 0, 0]	n/a	FR1	1	R1222M
265.152	0.817	271847	WORD_OFF	n/a	n/a	BOY	1	2	[0, 0, 0]	n/a	FR1	1	R1222M
265.969	1.618	272664	WORD	n/a	wordpools/wordpool_EN.txt	TOY	2	2	[0, 0, 0]	n/a	FR1	1	R1222M
267.587	0.816	274282	WORD_OFF	n/a	n/a	TOY	2	2	[0, 0, 0]	n/a	FR1	1	R1222M
268.403	1.617	275098	WORD	n/a	wordpools/wordpool_EN.txt	ARM	3	2	[0, 0, 0]	n/a	FR1	1	R1222M
270.02	0.933	276715	WORD_OFF	n/a	n/a	ARM	3	2	[0, 0, 0]	n/a	FR1	1	R1222M
270.953	1.602	277648	WORD	n/a	wordpools/wordpool_EN.txt	SEA	4	2	[0, 0, 0]	n/a	FR1	1	R1222M
272.555	0.916	279250	WORD_OFF	n/a	n/a	SEA	4	2	[0, 0, 0]	n/a	FR1	1	R1222M
273.471	1.616	280166	WORD	n/a	wordpools/wordpool_EN.txt	TANK	5	2	[0, 0, 0]	n/a	FR1	1	R1222M
275.087	0.801	281782	WORD_OFF	n/a	n/a	TANK	5	2	[0, 0, 0]	n/a	FR1	1	R1222M
275.888	1.618	282583	WORD	n/a	wordpools/wordpool_EN.txt	BOARD	6	2	[0, 0, 0]	n/a	FR1	1	R1222M
277.506	0.815	284201	WORD_OFF	n/a	n/a	BOARD	6	2	[0, 0, 0]	n/a	FR1	1	R1222M
278.321	1.617	285016	WORD	n/a	wordpools/wordpool_EN.txt	SHIP	7	2	[0, 0, 0]	n/a	FR1	1	R1222M
279.938	0.867	286633	WORD_OFF	n/a	n/a	SHIP	7	2	[0, 0, 0]	n/a	FR1	1	R1222M
280.805	1.617	287500	WORD	n/a	wordpools/wordpool_EN.txt	PEARL	8	2	[0, 0, 0]	n/a	FR1	1	R1222M
282.422	0.834	289116	WORD_OFF	n/a	n/a	PEARL	8	2	[0, 0, 0]	n/a	FR1	1	R1222M
283.256	1.617	289950	WORD	n/a	wordpools/wordpool_EN.txt	GLOVE	9	2	[0, 0, 0]	n/a	FR1	1	R1222M
284.873	0.966	291567	WORD_OFF	n/a	n/a	GLOVE	9	2	[0, 0, 0]	n/a	FR1	1	R1222M
285.839	1.619	292533	WORD	n/a	wordpools/wordpool_EN.txt	SPONGE	10	2	[0, 0, 0]	n/a	FR1	1	R1222M
287.458	0.799	294152	WORD_OFF	n/a	n/a	SPONGE	10	2	[0, 0, 0]	n/a	FR1	1	R1222M
288.257	1.617	294951	WORD	n/a	wordpools/wordpool_EN.txt	BOAT	11	2	[0, 0, 0]	n/a	FR1	1	R1222M
289.874	0.85	296568	WORD_OFF	n/a	n/a	BOAT	11	2	[0, 0, 0]	n/a	FR1	1	R1222M
290.724	1.617	297418	WORD	n/a	wordpools/wordpool_EN.txt	NET	12	2	[0, 0, 0]	n/a	FR1	1	R1222M
292.341	0.0	299035	WORD_OFF	n/a	n/a	NET	12	2	[0, 0, 0]	n/a	FR1	1	R1222M
292.341	0.0	299035	DISTRACT_START	n/a	n/a	n/a	-999	2	[0, 0, 0]	n/a	FR1	1	R1222M
292.341	0.016	299035	START	n/a	n/a	n/a	-999	3	[-999, -999, -999]	n/a	FR1	1	R1222M
292.357	9.753	299051	PROB	9.753	n/a	n/a	-999	3	[3, 9, 6]	18	FR1	1	R1222M
302.11	7.117	308803	PROB	7.117	n/a	n/a	-999	3	[1, 5, 2]	8	FR1	1	R1222M
309.227	6.673	315920	PROB	6.673	n/a	n/a	-999	3	[1, 5, 9]	15	FR1	1	R1222M
315.9	0.012	322593	STOP	n/a	n/a	n/a	-999	3	[-999, -999, -999]	n/a	FR1	1	R1222M
315.912	0.618	322605	DISTRACT_END	n/a	n/a	n/a	-999	2	[0, 0, 0]	n/a	FR1	1	R1222M
316.53	0.516	323223	RETRIEVAL_ORIENT	n/a	n/a	n/a	-999	2	[0, 0, 0]	n/a	FR1	1	R1222M
317.046	0.786	323739	REC_START	n/a	n/a	n/a	-999	2	[0, 0, 0]	n/a	FR1	1	R1222M
317.832	2.687	324524	REC_WORD	2.687	n/a	NET	-999	2	[0, 0, 0]	n/a	FR1	1	R1222M
320.519	2.115	327211	REC_WORD	2.115	n/a	BOAT	-999	2	[0, 0, 0]	n/a	FR1	1	R1222M
322.634	1.91	329326	REC_WORD	1.91	n/a	BOY	-999	2	[0, 0, 0]	n/a	FR1	1	R1222M
324.544	22.515	331236	REC_WORD	22.515	n/a	TOY	-999	2	[0, 0, 0]	n/a	FR1	1	R1222M
347.059	8.661	353750	REC_END	n/a	n/a	n/a	-999	2	[0, 0, 0]	n/a	FR1	1	R1222M
355.72	0.5	362410	TRIAL	n/a	n/a	n/a	-999	3	[0, 0, 0]	n/a	FR1	1	R1222M
356.22	10.428	362910	COUNTDOWN_START	n/a	n/a	n/a	-999	3	[0, 0, 0]	n/a	FR1	1	R1222M
366.648	0.007	373338	COUNTDOWN_END	n/a	n/a	n/a	-999	3	[0, 0, 0]	n/a	FR1	1	R1222M
366.655	1.617	373345	ORIENT	n/a	n/a	n/a	-999	3	[0, 0, 0]	n/a	FR1	1	R1222M
368.272	1.851	374962	ORIENT_OFF	n/a	n/a	n/a	-999	3	[0, 0, 0]	n/a	FR1	1	R1222M
370.123	1.617	376812	WORD	n/a	wordpools/wordpool_EN.txt	BROOM	1	3	[0, 0, 0]	n/a	FR1	1	R1222M
371.74	0.801	378429	WORD_OFF	n/a	n/a	BROOM	1	3	[0, 0, 0]	n/a	FR1	1	R1222M
372.541	1.616	379230	WORD	n/a	wordpools/wordpool_EN.txt	FLAME	2	3	[0, 0, 0]	n/a	FR1	1	R1222M
374.157	0.933	380846	WORD_OFF	n/a	n/a	FLAME	2	3	[0, 0, 0]	n/a	FR1	1	R1222M
375.09	1.617	381779	WORD	n/a	wordpools/wordpool_EN.txt	JAR	3	3	[0, 0, 0]	n/a	FR1	1	R1222M
376.707	0.984	383396	WORD_OFF	n/a	n/a	JAR	3	3	[0, 0, 0]	n/a	FR1	1	R1222M
377.691	1.617	384380	WORD	n/a	wordpools/wordpool_EN.txt	BEAN	4	3	[0, 0, 0]	n/a	FR1	1	R1222M
379.308	0.867	385997	WORD_OFF	n/a	n/a	BEAN	4	3	[0, 0, 0]	n/a	FR1	1	R1222M
380.175	1.617	386864	WORD	n/a	wordpools/wordpool_EN.txt	SOUP	5	3	[0, 0, 0]	n/a	FR1	1	R1222M
381.792	0.933	388481	WORD_OFF	n/a	n/a	SOUP	5	3	[0, 0, 0]	n/a	FR1	1	R1222M
382.725	1.617	389414	WORD	n/a	wordpools/wordpool_EN.txt	LAMP	6	3	[0, 0, 0]	n/a	FR1	1	R1222M
384.342	0.95	391031	WORD_OFF	n/a	n/a	LAMP	6	3	[0, 0, 0]	n/a	FR1	1	R1222M
385.292	1.617	391981	WORD	n/a	wordpools/wordpool_EN.txt	TENT	7	3	[0, 0, 0]	n/a	FR1	1	R1222M
386.909	0.917	393598	WORD_OFF	n/a	n/a	TENT	7	3	[0, 0, 0]	n/a	FR1	1	R1222M
387.826	1.618	394514	WORD	n/a	wordpools/wordpool_EN.txt	RUG	8	3	[0, 0, 0]	n/a	FR1	1	R1222M
389.444	0.783	396132	WORD_OFF	n/a	n/a	RUG	8	3	[0, 0, 0]	n/a	FR1	1	R1222M
390.227	1.617	396915	WORD	n/a	wordpools/wordpool_EN.txt	SOAP	9	3	[0, 0, 0]	n/a	FR1	1	R1222M
391.844	0.767	398532	WORD_OFF	n/a	n/a	SOAP	9	3	[0, 0, 0]	n/a	FR1	1	R1222M
392.611	1.616	399299	WORD	n/a	wordpools/wordpool_EN.txt	WALL	10	3	[0, 0, 0]	n/a	FR1	1	R1222M
394.227	0.834	400915	WORD_OFF	n/a	n/a	WALL	10	3	[0, 0, 0]	n/a	FR1	1	R1222M
395.061	1.617	401749	WORD	n/a	wordpools/wordpool_EN.txt	VINE	11	3	[0, 0, 0]	n/a	FR1	1	R1222M
396.678	0.768	403366	WORD_OFF	n/a	n/a	VINE	11	3	[0, 0, 0]	n/a	FR1	1	R1222M
397.446	1.616	404134	WORD	n/a	wordpools/wordpool_EN.txt	APE	12	3	[0, 0, 0]	n/a	FR1	1	R1222M
399.062	0.0	405750	WORD_OFF	n/a	n/a	APE	12	3	[0, 0, 0]	n/a	FR1	1	R1222M
399.062	0.0	405750	DISTRACT_START	n/a	n/a	n/a	-999	3	[0, 0, 0]	n/a	FR1	1	R1222M
399.062	0.016	405750	START	n/a	n/a	n/a	-999	4	[-999, -999, -999]	n/a	FR1	1	R1222M
399.078	6.785	405766	PROB	6.785	n/a	n/a	-999	4	[5, 5, 6]	16	FR1	1	R1222M
405.863	6.318	412550	PROB	6.318	n/a	n/a	-999	4	[8, 7, 4]	19	FR1	1	R1222M
412.181	5.118	418868	PROB	5.118	n/a	n/a	-999	4	[3, 5, 1]	9	FR1	1	R1222M
417.299	5.649	423986	PROB	5.649	n/a	n/a	-999	4	[6, 1, 3]	10	FR1	1	R1222M
422.948	0.018	429634	STOP	n/a	n/a	n/a	-999	4	[-999, -999, -999]	n/a	FR1	1	R1222M
422.966	0.535	429652	DISTRACT_END	n/a	n/a	n/a	-999	3	[0, 0, 0]	n/a	FR1	1	R1222M
423.501	0.516	430187	RETRIEVAL_ORIENT	n/a	n/a	n/a	-999	3	[0, 0, 0]	n/a	FR1	1	R1222M
424.017	0.698	430703	REC_START	n/a	n/a	n/a	-999	3	[0, 0, 0]	n/a	FR1	1	R1222M
424.715	2.304	431401	REC_WORD	2.304	n/a	APE	-999	3	[0, 0, 0]	n/a	FR1	1	R1222M
427.019	3.303	433705	REC_WORD	3.303	n/a	VINE	-999	3	[0, 0, 0]	n/a	FR1	1	R1222M
430.322	23.71	437008	REC_WORD	23.71	n/a	BROOM	-999	3	[0, 0, 0]	n/a	FR1	1	R1222M
454.032	20.978	460717	REC_END	n/a	n/a	n/a	-999	3	[0, 0, 0]	n/a	FR1	1	R1222M
475.01	0.5	481694	TRIAL	n/a	n/a	n/a	-999	4	[0, 0, 0]	n/a	FR1	1	R1222M
475.51	10.428	482194	COUNTDOWN_START	n/a	n/a	n/a	-999	4	[0, 0, 0]	n/a	FR1	1	R1222M
485.938	0.007	492621	COUNTDOWN_END	n/a	n/a	n/a	-999	4	[0, 0, 0]	n/a	FR1	1	R1222M
485.945	1.618	492628	ORIENT	n/a	n/a	n/a	-999	4	[0, 0, 0]	n/a	FR1	1	R1222M
487.563	2.266	494246	ORIENT_OFF	n/a	n/a	n/a	-999	4	[0, 0, 0]	n/a	FR1	1	R1222M
489.829	1.618	496512	WORD	n/a	wordpools/wordpool_EN.txt	FUR	1	4	[0, 0, 0]	n/a	FR1	1	R1222M
491.447	1.001	498130	WORD_OFF	n/a	n/a	FUR	1	4	[0, 0, 0]	n/a	FR1	1	R1222M
492.448	1.616	499131	WORD	n/a	wordpools/wordpool_EN.txt	BED	2	4	[0, 0, 0]	n/a	FR1	1	R1222M
494.064	0.866	500746	WORD_OFF	n/a	n/a	BED	2	4	[0, 0, 0]	n/a	FR1	1	R1222M
494.93	1.618	501612	WORD	n/a	wordpools/wordpool_EN.txt	SKI	3	4	[0, 0, 0]	n/a	FR1	1	R1222M
496.548	0.984	503230	WORD_OFF	n/a	n/a	SKI	3	4	[0, 0, 0]	n/a	FR1	1	R1222M
497.532	1.616	504214	WORD	n/a	wordpools/wordpool_EN.txt	SPARK	4	4	[0, 0, 0]	n/a	FR1	1	R1222M
499.148	0.917	505830	WORD_OFF	n/a	n/a	SPARK	4	4	[0, 0, 0]	n/a	FR1	1	R1222M
500.065	1.617	506747	WORD	n/a	wordpools/wordpool_EN.txt	WORLD	5	4	[0, 0, 0]	n/a	FR1	1	R1222M
501.682	0.951	508364	WORD_OFF	n/a	n/a	WORLD	5	4	[0, 0, 0]	n/a	FR1	1	R1222M
502.633	1.616	509315	WORD	n/a	wordpools/wordpool_EN.txt	LAKE	6	4	[0, 0, 0]	n/a	FR1	1	R1222M
504.249	0.883	510931	WORD_OFF	n/a	n/a	LAKE	6	4	[0, 0, 0]	n/a	FR1	1	R1222M
505.132	1.617	511814	WORD	n/a	wordpools/wordpool_EN.txt	SEAT	7	4	[0, 0, 0]	n/a	FR1	1	R1222M
506.749	0.785	513431	WORD_OFF	n/a	n/a	SEAT	7	4	[0, 0, 0]	n/a	FR1	1	R1222M
507.534	1.616	514216	WORD	n/a	wordpools/wordpool_EN.txt	JET	8	4	[0, 0, 0]	n/a	FR1	1	R1222M
509.15	0.917	515832	WORD_OFF	n/a	n/a	JET	8	4	[0, 0, 0]	n/a	FR1	1	R1222M
510.067	1.617	516749	WORD	n/a	wordpools/wordpool_EN.txt	POOL	9	4	[0, 0, 0]	n/a	FR1	1	R1222M
511.684	0.767	518365	WORD_OFF	n/a	n/a	POOL	9	4	[0, 0, 0]	n/a	FR1	1	R1222M
512.451	1.616	519132	WORD	n/a	wordpools/wordpool_EN.txt	SCHOOL	10	4	[0, 0, 0]	n/a	FR1	1	R1222M
514.067	0.817	520748	WORD_OFF	n/a	n/a	SCHOOL	10	4	[0, 0, 0]	n/a	FR1	1	R1222M
514.884	1.602	521565	WORD	n/a	wordpools/wordpool_EN.txt	FOG	11	4	[0, 0, 0]	n/a	FR1	1	R1222M
516.486	0.932	523167	WORD_OFF	n/a	n/a	FOG	11	4	[0, 0, 0]	n/a	FR1	1	R1222M
517.418	1.617	524099	WORD	n/a	wordpools/wordpool_EN.txt	SPOON	12	4	[0, 0, 0]	n/a	FR1	1	R1222M
519.035	0.0	525716	DISTRACT_START	n/a	n/a	n/a	-999	4	[0, 0, 0]	n/a	FR1	1	R1222M
519.035	0.001	525716	WORD_OFF	n/a	n/a	SPOON	12	4	[0, 0, 0]	n/a	FR1	1	R1222M
519.036	0.016	525717	START	n/a	n/a	n/a	-999	5	[-999, -999, -999]	n/a	FR1	1	R1222M
519.052	8.718	525733	PROB	8.718	n/a	n/a	-999	5	[5, 7, 1]	13	FR1	1	R1222M
527.77	7.435	534451	PROB	7.435	n/a	n/a	-999	5	[3, 5, 2]	10	FR1	1	R1222M
535.205	8.655	541885	PROB	8.655	n/a	n/a	-999	5	[6, 9, 5]	20	FR1	1	R1222M
543.86	0.013	550540	STOP	n/a	n/a	n/a	-999	5	[-999, -999, -999]	n/a	FR1	1	R1222M
543.873	0.601	550553	DISTRACT_END	n/a	n/a	n/a	-999	4	[0, 0, 0]	n/a	FR1	1	R1222M
544.474	0.517	551154	RETRIEVAL_ORIENT	n/a	n/a	n/a	-999	4	[0, 0, 0]	n/a	FR1	1	R1222M
544.991	1.532	551671	REC_START	n/a	n/a	n/a	-999	4	[0, 0, 0]	n/a	FR1	1	R1222M
546.523	6.635	553202	REC_WORD	6.635	n/a	BED	-999	4	[0, 0, 0]	n/a	FR1	1	R1222M
553.158	21.843	559837	REC_WORD	21.843	n/a	SPOON	-999	4	[0, 0, 0]	n/a	FR1	1	R1222M
575.001	23.333	581679	REC_END	n/a	n/a	n/a	-999	4	[0, 0, 0]	n/a	FR1	1	R1222M
598.334	0.5	605011	TRIAL	n/a	n/a	n/a	-999	5	[0, 0, 0]	n/a	FR1	1	R1222M
598.834	10.428	605511	COUNTDOWN_START	n/a	n/a	n/a	-999	5	[0, 0, 0]	n/a	FR1	1	R1222M
609.262	0.007	615938	COUNTDOWN_END	n/a	n/a	n/a	-999	5	[0, 0, 0]	n/a	FR1	1	R1222M
609.269	1.617	615945	ORIENT	n/a	n/a	n/a	-999	5	[0, 0, 0]	n/a	FR1	1	R1222M
610.886	2.001	617562	ORIENT_OFF	n/a	n/a	n/a	-999	5	[0, 0, 0]	n/a	FR1	1	R1222M
612.887	1.618	619563	WORD	n/a	wordpools/wordpool_EN.txt	HILL	1	5	[0, 0, 0]	n/a	FR1	1	R1222M
614.505	0.899	621181	WORD_OFF	n/a	n/a	HILL	1	5	[0, 0, 0]	n/a	FR1	1	R1222M
615.404	1.617	622080	WORD	n/a	wordpools/wordpool_EN.txt	CLOUD	2	5	[0, 0, 0]	n/a	FR1	1	R1222M
617.021	0.817	623696	WORD_OFF	n/a	n/a	CLOUD	2	5	[0, 0, 0]	n/a	FR1	1	R1222M
617.838	1.618	624513	WORD	n/a	wordpools/wordpool_EN.txt	HOUSE	3	5	[0, 0, 0]	n/a	FR1	1	R1222M
619.456	1.0	626131	WORD_OFF	n/a	n/a	HOUSE	3	5	[0, 0, 0]	n/a	FR1	1	R1222M
620.456	1.616	627131	WORD	n/a	wordpools/wordpool_EN.txt	BARN	4	5	[0, 0, 0]	n/a	FR1	1	R1222M
622.072	0.883	628747	WORD_OFF	n/a	n/a	BARN	4	5	[0, 0, 0]	n/a	FR1	1	R1222M
622.955	1.618	629630	WORD	n/a	wordpools/wordpool_EN.txt	NEST	5	5	[0, 0, 0]	n/a	FR1	1	R1222M
624.573	0.917	631248	WORD_OFF	n/a	n/a	NEST	5	5	[0, 0, 0]	n/a	FR1	1	R1222M
625.49	1.616	632165	WORD	n/a	wordpools/wordpool_EN.txt	FROG	6	5	[0, 0, 0]	n/a	FR1	1	R1222M
627.106	0.917	633781	WORD_OFF	n/a	n/a	FROG	6	5	[0, 0, 0]	n/a	FR1	1	R1222M
628.023	1.618	634698	WORD	n/a	wordpools/wordpool_EN.txt	GOAT	7	5	[0, 0, 0]	n/a	FR1	1	R1222M
629.641	0.95	636316	WORD_OFF	n/a	n/a	GOAT	7	5	[0, 0, 0]	n/a	FR1	1	R1222M
630.591	1.616	637266	WORD	n/a	wordpools/wordpool_EN.txt	POND	8	5	[0, 0, 0]	n/a	FR1	1	R1222M
632.207	1.017	638882	WORD_OFF	n/a	n/a	POND	8	5	[0, 0, 0]	n/a	FR1	1	R1222M
633.224	1.617	639899	WORD	n/a	wordpools/wordpool_EN.txt	OWL	9	5	[0, 0, 0]	n/a	FR1	1	R1222M
634.841	0.8	641515	WORD_OFF	n/a	n/a	OWL	9	5	[0, 0, 0]	n/a	FR1	1	R1222M
635.641	1.617	642315	WORD	n/a	wordpools/wordpool_EN.txt	VEST	10	5	[0, 0, 0]	n/a	FR1	1	R1222M
637.258	0.8	643932	WORD_OFF	n/a	n/a	VEST	10	5	[0, 0, 0]	n/a	FR1	1	R1222M
638.058	1.617	644732	WORD	n/a	wordpools/wordpool_EN.txt	HAWK	11	5	[0, 0, 0]	n/a	FR1	1	R1222M
639.675	0.835	646349	WORD_OFF	n/a	n/a	HAWK	11	5	[0, 0, 0]	n/a	FR1	1	R1222M
640.51	1.616	647184	WORD	n/a	wordpools/wordpool_EN.txt	SKY	12	5	[0, 0, 0]	n/a	FR1	1	R1222M
642.126	0.0	648800	WORD_OFF	n/a	n/a	SKY	12	5	[0, 0, 0]	n/a	FR1	1	R1222M
642.126	0.0	648800	DISTRACT_START	n/a	n/a	n/a	-999	5	[0, 0, 0]	n/a	FR1	1	R1222M
642.126	0.016	648800	START	n/a	n/a	n/a	-999	6	[-999, -999, -999]	n/a	FR1	1	R1222M
642.142	8.47	648816	PROB	8.47	n/a	n/a	-999	6	[5, 7, 7]	19	FR1	1	R1222M
650.612	9.084	657286	PROB	9.084	n/a	n/a	-999	6	[6, 8, 8]	22	FR1	1	R1222M
659.696	5.469	666369	PROB	5.469	n/a	n/a	-999	6	[5, 6, 1]	12	FR1	1	R1222M
665.165	0.015	671838	STOP	n/a	n/a	n/a	-999	6	[-999, -999, -999]	n/a	FR1	1	R1222M
665.18	0.6	671853	DISTRACT_END	n/a	n/a	n/a	-999	5	[0, 0, 0]	n/a	FR1	1	R1222M
665.78	0.518	672453	RETRIEVAL_ORIENT	n/a	n/a	n/a	-999	5	[0, 0, 0]	n/a	FR1	1	R1222M
666.298	0.748	672971	REC_START	n/a	n/a	n/a	-999	5	[0, 0, 0]	n/a	FR1	1	R1222M
667.046	1.981	673719	REC_WORD	1.981	n/a	NEST	-999	5	[0, 0, 0]	n/a	FR1	1	R1222M
669.027	1.996	675700	REC_WORD	1.996	n/a	OWL	-999	5	[0, 0, 0]	n/a	FR1	1	R1222M
671.023	6.749	677695	REC_WORD	6.749	n/a	VEST	-999	5	[0, 0, 0]	n/a	FR1	1	R1222M
677.772	13.004	684444	REC_WORD	13.004	n/a	GOAT	-999	5	[0, 0, 0]	n/a	FR1	1	R1222M
690.776	5.535	697447	REC_WORD	5.535	n/a	FROG	-999	5	[0, 0, 0]	n/a	FR1	1	R1222M
696.311	10.011	702982	REC_END	n/a	n/a	n/a	-999	5	[0, 0, 0]	n/a	FR1	1	R1222M
706.322	0.5	712992	TRIAL	n/a	n/a	n/a	-999	6	[0, 0, 0]	n/a	FR1	1	R1222M
706.822	10.428	713492	COUNTDOWN_START	n/a	n/a	n/a	-999	6	[0, 0, 0]	n/a	FR1	1	R1222M
717.25	0.007	723920	COUNTDOWN_END	n/a	n/a	n/a	-999	6	[0, 0, 0]	n/a	FR1	1	R1222M
717.257	1.617	723927	ORIENT	n/a	n/a	n/a	-999	6	[0, 0, 0]	n/a	FR1	1	R1222M
718.874	2.184	725544	ORIENT_OFF	n/a	n/a	n/a	-999	6	[0, 0, 0]	n/a	FR1	1	R1222M
721.058	1.617	727728	WORD	n/a	wordpools/wordpool_EN.txt	STEAK	1	6	[0, 0, 0]	n/a	FR1	1	R1222M
722.675	0.918	729344	WORD_OFF	n/a	n/a	STEAK	1	6	[0, 0, 0]	n/a	FR1	1	R1222M
723.593	1.616	730262	WORD	n/a	wordpools/wordpool_EN.txt	BATH	2	6	[0, 0, 0]	n/a	FR1	1	R1222M
725.209	0.766	731878	WORD_OFF	n/a	n/a	BATH	2	6	[0, 0, 0]	n/a	FR1	1	R1222M
725.975	1.602	732644	WORD	n/a	wordpools/wordpool_EN.txt	CLOTH	3	6	[0, 0, 0]	n/a	FR1	1	R1222M
727.577	0.832	734246	WORD_OFF	n/a	n/a	CLOTH	3	6	[0, 0, 0]	n/a	FR1	1	R1222M
728.409	1.617	735078	WORD	n/a	wordpools/wordpool_EN.txt	HORN	4	6	[0, 0, 0]	n/a	FR1	1	R1222M
730.026	0.767	736695	WORD_OFF	n/a	n/a	HORN	4	6	[0, 0, 0]	n/a	FR1	1	R1222M
730.793	1.617	737462	WORD	n/a	wordpools/wordpool_EN.txt	GRASS	5	6	[0, 0, 0]	n/a	FR1	1	R1222M
732.41	0.967	739079	WORD_OFF	n/a	n/a	GRASS	5	6	[0, 0, 0]	n/a	FR1	1	R1222M
733.377	1.617	740046	WORD	n/a	wordpools/wordpool_EN.txt	PEACH	6	6	[0, 0, 0]	n/a	FR1	1	R1222M
734.994	0.933	741663	WORD_OFF	n/a	n/a	PEACH	6	6	[0, 0, 0]	n/a	FR1	1	R1222M
735.927	1.618	742596	WORD	n/a	wordpools/wordpool_EN.txt	OAK	7	6	[0, 0, 0]	n/a	FR1	1	R1222M
737.545	0.799	744214	WORD_OFF	n/a	n/a	OAK	7	6	[0, 0, 0]	n/a	FR1	1	R1222M
738.344	1.617	745013	WORD	n/a	wordpools/wordpool_EN.txt	SIGN	8	6	[0, 0, 0]	n/a	FR1	1	R1222M
739.961	0.867	746629	WORD_OFF	n/a	n/a	SIGN	8	6	[0, 0, 0]	n/a	FR1	1	R1222M
740.828	1.618	747496	WORD	n/a	wordpools/wordpool_EN.txt	WOOD	9	6	[0, 0, 0]	n/a	FR1	1	R1222M
742.446	0.816	749114	WORD_OFF	n/a	n/a	WOOD	9	6	[0, 0, 0]	n/a	FR1	1	R1222M
743.262	1.617	749930	WORD	n/a	wordpools/wordpool_EN.txt	MOOSE	10	6	[0, 0, 0]	n/a	FR1	1	R1222M
744.879	0.884	751547	WORD_OFF	n/a	n/a	MOOSE	10	6	[0, 0, 0]	n/a	FR1	1	R1222M
745.763	1.617	752431	WORD	n/a	wordpools/wordpool_EN.txt	PIE	11	6	[0, 0, 0]	n/a	FR1	1	R1222M
747.38	0.883	754048	WORD_OFF	n/a	n/a	PIE	11	6	[0, 0, 0]	n/a	FR1	1	R1222M
748.263	1.617	754931	WORD	n/a	wordpools/wordpool_EN.txt	FENCE	12	6	[0, 0, 0]	n/a	FR1	1	R1222M
749.88	0.0	756548	WORD_OFF	n/a	n/a	FENCE	12	6	[0, 0, 0]	n/a	FR1	1	R1222M
749.88	0.0	756548	DISTRACT_START	n/a	n/a	n/a	-999	6	[0, 0, 0]	n/a	FR1	1	R1222M
749.88	0.017	756548	START	n/a	n/a	n/a	-999	7	[-999, -999, -999]	n/a	FR1	1	R1222M
749.897	7.468	756565	PROB	7.468	n/a	n/a	-999	7	[9, 5, 9]	23	FR1	1	R1222M
757.365	5.718	764033	PROB	5.718	n/a	n/a	-999	7	[5, 2, 4]	11	FR1	1	R1222M
763.083	6.334	769750	PROB	6.334	n/a	n/a	-999	7	[4, 2, 3]	9	FR1	1	R1222M
769.417	8.516	776084	PROB	8.516	n/a	n/a	-999	7	[9, 3, 8]	20	FR1	1	R1222M
777.933	0.019	784599	STOP	n/a	n/a	n/a	-999	7	[-999, -999, -999]	n/a	FR1	1	R1222M
777.952	0.585	784618	DISTRACT_END	n/a	n/a	n/a	-999	6	[0, 0, 0]	n/a	FR1	1	R1222M
778.537	0.516	785203	RETRIEVAL_ORIENT	n/a	n/a	n/a	-999	6	[0, 0, 0]	n/a	FR1	1	R1222M
779.053	3.256	785719	REC_START	n/a	n/a	n/a	-999	6	[0, 0, 0]	n/a	FR1	1	R1222M
782.309	2.51	788975	REC_WORD	2.51	n/a	GRASS	-999	6	[0, 0, 0]	n/a	FR1	1	R1222M
784.819	11.966	791485	REC_WORD	11.966	n/a	PEACH	-999	6	[0, 0, 0]	n/a	FR1	1	R1222M
796.785	12.278	803450	REC_WORD	12.278	n/a	HORN	-999	6	[0, 0, 0]	n/a	FR1	1	R1222M
809.063	7.464	815728	REC_END	n/a	n/a	n/a	-999	6	[0, 0, 0]	n/a	FR1	1	R1222M
816.527	0.5	823191	TRIAL	n/a	n/a	n/a	-999	7	[0, 0, 0]	n/a	FR1	1	R1222M
817.027	10.428	823691	COUNTDOWN_START	n/a	n/a	n/a	-999	7	[0, 0, 0]	n/a	FR1	1	R1222M
827.455	0.008	834119	COUNTDOWN_END	n/a	n/a	n/a	-999	7	[0, 0, 0]	n/a	FR1	1	R1222M
827.463	1.616	834127	ORIENT	n/a	n/a	n/a	-999	7	[0, 0, 0]	n/a	FR1	1	R1222M
829.079	2.25	835742	ORIENT_OFF	n/a	n/a	n/a	-999	7	[0, 0, 0]	n/a	FR1	1	R1222M
831.329	1.617	837992	WORD	n/a	wordpools/wordpool_EN.txt	STEAM	1	7	[0, 0, 0]	n/a	FR1	1	R1222M
832.946	0.834	839609	WORD_OFF	n/a	n/a	STEAM	1	7	[0, 0, 0]	n/a	FR1	1	R1222M
833.78	1.617	840443	WORD	n/a	wordpools/wordpool_EN.txt	FUDGE	2	7	[0, 0, 0]	n/a	FR1	1	R1222M
835.397	0.783	842060	WORD_OFF	n/a	n/a	FUDGE	2	7	[0, 0, 0]	n/a	FR1	1	R1222M
836.18	1.617	842843	WORD	n/a	wordpools/wordpool_EN.txt	JAIL	3	7	[0, 0, 0]	n/a	FR1	1	R1222M
837.797	0.867	844460	WORD_OFF	n/a	n/a	JAIL	3	7	[0, 0, 0]	n/a	FR1	1	R1222M
838.664	1.617	845327	WORD	n/a	wordpools/wordpool_EN.txt	CLIFF	4	7	[0, 0, 0]	n/a	FR1	1	R1222M
840.281	1.0	846944	WORD_OFF	n/a	n/a	CLIFF	4	7	[0, 0, 0]	n/a	FR1	1	R1222M
841.281	1.617	847944	WORD	n/a	wordpools/wordpool_EN.txt	SAIL	5	7	[0, 0, 0]	n/a	FR1	1	R1222M
842.898	0.8	849561	WORD_OFF	n/a	n/a	SAIL	5	7	[0, 0, 0]	n/a	FR1	1	R1222M
843.698	1.617	850361	WORD	n/a	wordpools/wordpool_EN.txt	SMOKE	6	7	[0, 0, 0]	n/a	FR1	1	R1222M
845.315	0.817	851978	WORD_OFF	n/a	n/a	SMOKE	6	7	[0, 0, 0]	n/a	FR1	1	R1222M
846.132	1.617	852794	WORD	n/a	wordpools/wordpool_EN.txt	FORT	7	7	[0, 0, 0]	n/a	FR1	1	R1222M
847.749	0.868	854411	WORD_OFF	n/a	n/a	FORT	7	7	[0, 0, 0]	n/a	FR1	1	R1222M
848.617	1.616	855279	WORD	n/a	wordpools/wordpool_EN.txt	ROCK	8	7	[0, 0, 0]	n/a	FR1	1	R1222M
850.233	0.783	856895	WORD_OFF	n/a	n/a	ROCK	8	7	[0, 0, 0]	n/a	FR1	1	R1222M
851.016	1.618	857678	WORD	n/a	wordpools/wordpool_EN.txt	SPEAR	9	7	[0, 0, 0]	n/a	FR1	1	R1222M
852.634	0.967	859296	WORD_OFF	n/a	n/a	SPEAR	9	7	[0, 0, 0]	n/a	FR1	1	R1222M
853.601	1.616	860263	WORD	n/a	wordpools/wordpool_EN.txt	SWORD	10	7	[0, 0, 0]	n/a	FR1	1	R1222M
855.217	0.834	861879	WORD_OFF	n/a	n/a	SWORD	10	7	[0, 0, 0]	n/a	FR1	1	R1222M
856.051	1.617	862713	WORD	n/a	wordpools/wordpool_EN.txt	BRIDGE	11	7	[0, 0, 0]	n/a	FR1	1	R1222M
857.668	0.818	864330	WORD_OFF	n/a	n/a	BRIDGE	11	7	[0, 0, 0]	n/a	FR1	1	R1222M
858.486	1.615	865148	WORD	n/a	wordpools/wordpool_EN.txt	JUDGE	12	7	[0, 0, 0]	n/a	FR1	1	R1222M
860.101	0.0	866763	WORD_OFF	n/a	n/a	JUDGE	12	7	[0, 0, 0]	n/a	FR1	1	R1222M
860.101	0.001	866763	DISTRACT_START	n/a	n/a	n/a	-999	7	[0, 0, 0]	n/a	FR1	1	R1222M
860.102	0.016	866764	START	n/a	n/a	n/a	-999	8	[-999, -999, -999]	n/a	FR1	1	R1222M
860.118	7.285	866780	PROB	7.285	n/a	n/a	-999	8	[4, 3, 7]	14	FR1	1	R1222M
867.403	7.035	874064	PROB	7.035	n/a	n/a	-999	8	[7, 1, 5]	13	FR1	1	R1222M
874.438	7.415	881099	PROB	7.415	n/a	n/a	-999	8	[8, 4, 4]	16	FR1	1	R1222M
881.853	0.019	888513	STOP	n/a	n/a	n/a	-999	8	[-999, -999, -999]	n/a	FR1	1	R1222M
881.872	0.567	888532	DISTRACT_END	n/a	n/a	n/a	-999	7	[0, 0, 0]	n/a	FR1	1	R1222M
882.439	0.518	889099	RETRIEVAL_ORIENT	n/a	n/a	n/a	-999	7	[0, 0, 0]	n/a	FR1	1	R1222M
882.957	1.203	889617	REC_START	n/a	n/a	n/a	-999	7	[0, 0, 0]	n/a	FR1	1	R1222M
884.16	5.033	890820	REC_WORD	5.033	n/a	JUDGE	-999	7	[0, 0, 0]	n/a	FR1	1	R1222M
889.193	7.222	895853	REC_WORD	7.222	n/a	JAIL	-999	7	[0, 0, 0]	n/a	FR1	1	R1222M
896.415	6.882	903075	REC_WORD	6.882	n/a	SAIL	-999	7	[0, 0, 0]	n/a	FR1	1	R1222M
903.297	5.764	909956	REC_WORD	5.764	n/a	SMOKE	-999	7	[0, 0, 0]	n/a	FR1	1	R1222M
909.061	3.907	915720	REC_WORD	3.907	n/a	SPEAR	-999	7	[0, 0, 0]	n/a	FR1	1	R1222M
912.968	18.764	919627	REC_END	n/a	n/a	n/a	-999	7	[0, 0, 0]	n/a	FR1	1	R1222M
931.732	0.5	938390	TRIAL	n/a	n/a	n/a	-999	8	[0, 0, 0]	n/a	FR1	1	R1222M
932.232	10.428	938890	COUNTDOWN_START	n/a	n/a	n/a	-999	8	[0, 0, 0]	n/a	FR1	1	R1222M
942.66	0.008	949317	COUNTDOWN_END	n/a	n/a	n/a	-999	8	[0, 0, 0]	n/a	FR1	1	R1222M
942.668	1.617	949325	ORIENT	n/a	n/a	n/a	-999	8	[0, 0, 0]	n/a	FR1	1	R1222M
944.285	1.867	950942	ORIENT_OFF	n/a	n/a	n/a	-999	8	[0, 0, 0]	n/a	FR1	1	R1222M
946.152	1.617	952809	WORD	n/a	wordpools/wordpool_EN.txt	MOUTH	1	8	[0, 0, 0]	n/a	FR1	1	R1222M
947.769	0.817	954426	WORD_OFF	n/a	n/a	MOUTH	1	8	[0, 0, 0]	n/a	FR1	1	R1222M
948.586	1.616	955243	WORD	n/a	wordpools/wordpool_EN.txt	GOLD	2	8	[0, 0, 0]	n/a	FR1	1	R1222M
950.202	0.851	956859	WORD_OFF	n/a	n/a	GOLD	2	8	[0, 0, 0]	n/a	FR1	1	R1222M
951.053	1.617	957710	WORD	n/a	wordpools/wordpool_EN.txt	THREAD	3	8	[0, 0, 0]	n/a	FR1	1	R1222M
952.67	0.901	959326	WORD_OFF	n/a	n/a	THREAD	3	8	[0, 0, 0]	n/a	FR1	1	R1222M
953.571	1.616	960227	WORD	n/a	wordpools/wordpool_EN.txt	BREAD	4	8	[0, 0, 0]	n/a	FR1	1	R1222M
955.187	0.95	961843	WORD_OFF	n/a	n/a	BREAD	4	8	[0, 0, 0]	n/a	FR1	1	R1222M
956.137	1.617	962793	WORD	n/a	wordpools/wordpool_EN.txt	SLUSH	5	8	[0, 0, 0]	n/a	FR1	1	R1222M
957.754	0.868	964410	WORD_OFF	n/a	n/a	SLUSH	5	8	[0, 0, 0]	n/a	FR1	1	R1222M
958.622	1.616	965278	WORD	n/a	wordpools/wordpool_EN.txt	ROOM	6	8	[0, 0, 0]	n/a	FR1	1	R1222M
960.238	0.933	966894	WORD_OFF	n/a	n/a	ROOM	6	8	[0, 0, 0]	n/a	FR1	1	R1222M
961.171	1.617	967827	WORD	n/a	wordpools/wordpool_EN.txt	VASE	7	8	[0, 0, 0]	n/a	FR1	1	R1222M
962.788	0.818	969444	WORD_OFF	n/a	n/a	VASE	7	8	[0, 0, 0]	n/a	FR1	1	R1222M
963.606	1.616	970262	WORD	n/a	wordpools/wordpool_EN.txt	SALT	8	8	[0, 0, 0]	n/a	FR1	1	R1222M
965.222	0.917	971878	WORD_OFF	n/a	n/a	SALT	8	8	[0, 0, 0]	n/a	FR1	1	R1222M
966.139	1.617	972795	WORD	n/a	wordpools/wordpool_EN.txt	JUICE	9	8	[0, 0, 0]	n/a	FR1	1	R1222M
967.756	0.818	974412	WORD_OFF	n/a	n/a	JUICE	9	8	[0, 0, 0]	n/a	FR1	1	R1222M
968.574	1.616	975230	WORD	n/a	wordpools/wordpool_EN.txt	CROWN	10	8	[0, 0, 0]	n/a	FR1	1	R1222M
970.19	0.766	976845	WORD_OFF	n/a	n/a	CROWN	10	8	[0, 0, 0]	n/a	FR1	1	R1222M
970.956	1.618	977611	WORD	n/a	wordpools/wordpool_EN.txt	WORM	11	8	[0, 0, 0]	n/a	FR1	1	R1222M
972.574	0.816	979229	WORD_OFF	n/a	n/a	WORM	11	8	[0, 0, 0]	n/a	FR1	1	R1222M
973.39	1.617	980045	WORD	n/a	wordpools/wordpool_EN.txt	DOLL	12	8	[0, 0, 0]	n/a	FR1	1	R1222M
975.007	0.0	981662	WORD_OFF	n/a	n/a	DOLL	12	8	[0, 0, 0]	n/a	FR1	1	R1222M
975.007	0.001	981662	DISTRACT_START	n/a	n/a	n/a	-999	8	[0, 0, 0]	n/a	FR1	1	R1222M
975.008	0.016	981663	START	n/a	n/a	n/a	-999	9	[-999, -999, -999]	n/a	FR1	1	R1222M
975.024	5.734	981679	PROB	5.734	n/a	n/a	-999	9	[3, 3, 1]	7	FR1	1	R1222M
980.758	7.535	987413	PROB	7.535	n/a	n/a	-999	9	[2, 9, 4]	15	FR1	1	R1222M
988.293	8.142	994947	PROB	8.142	n/a	n/a	-999	9	[8, 9, 3]	20	FR1	1	R1222M
996.435	0.011	1003089	STOP	n/a	n/a	n/a	-999	9	[-999, -999, -999]	n/a	FR1	1	R1222M
996.446	0.532	1003100	DISTRACT_END	n/a	n/a	n/a	-999	8	[0, 0, 0]	n/a	FR1	1	R1222M
996.978	0.519	1003632	RETRIEVAL_ORIENT	n/a	n/a	n/a	-999	8	[0, 0, 0]	n/a	FR1	1	R1222M
997.497	1.496	1004151	REC_START	n/a	n/a	n/a	-999	8	[0, 0, 0]	n/a	FR1	1	R1222M
998.993	2.377	1005647	REC_WORD	2.377	n/a	BREAD	-999	8	[0, 0, 0]	n/a	FR1	1	R1222M
1001.37	3.91	1008024	REC_WORD	3.91	n/a	THREAD	-999	8	[0, 0, 0]	n/a	FR1	1	R1222M
1005.28	2.677	1011933	REC_WORD	2.677	n/a	CROWN	-999	8	[0, 0, 0]	n/a	FR1	1	R1222M
1007.957	4.839	1014610	REC_WORD	4.839	n/a	WORM	-999	8	[0, 0, 0]	n/a	FR1	1	R1222M
1012.796	2.132	1019449	REC_WORD	2.132	n/a	ROOM	-999	8	[0, 0, 0]	n/a	FR1	1	R1222M
1014.928	1.831	1021581	REC_WORD	1.831	n/a	VASE	-999	8	[0, 0, 0]	n/a	FR1	1	R1222M
1016.759	10.75	1023412	REC_WORD	10.75	n/a	SALT	-999	8	[0, 0, 0]	n/a	FR1	1	R1222M
1027.509	33.365	1034161	REC_END	n/a	n/a	n/a	-999	8	[0, 0, 0]	n/a	FR1	1	R1222M
1060.874	0.5	1067524	TRIAL	n/a	n/a	n/a	-999	9	[0, 0, 0]	n/a	FR1	1	R1222M
1061.374	10.428	1068024	COUNTDOWN_START	n/a	n/a	n/a	-999	9	[0, 0, 0]	n/a	FR1	1	R1222M
1071.802	0.007	1078452	COUNTDOWN_END	n/a	n/a	n/a	-999	9	[0, 0, 0]	n/a	FR1	1	R1222M
1071.809	1.601	1078459	ORIENT	n/a	n/a	n/a	-999	9	[0, 0, 0]	n/a	FR1	1	R1222M
1073.41	2.185	1080060	ORIENT_OFF	n/a	n/a	n/a	-999	9	[0, 0, 0]	n/a	FR1	1	R1222M
1075.595	1.615	1082244	WORD	n/a	wordpools/wordpool_EN.txt	SHRIMP	1	9	[0, 0, 0]	n/a	FR1	1	R1222M
1077.21	0.784	1083859	WORD_OFF	n/a	n/a	SHRIMP	1	9	[0, 0, 0]	n/a	FR1	1	R1222M
1077.994	1.618	1084643	WORD	n/a	wordpools/wordpool_EN.txt	CORN	2	9	[0, 0, 0]	n/a	FR1	1	R1222M
1079.612	0.834	1086261	WORD_OFF	n/a	n/a	CORN	2	9	[0, 0, 0]	n/a	FR1	1	R1222M
1080.446	1.615	1087095	WORD	n/a	wordpools/wordpool_EN.txt	MAP	3	9	[0, 0, 0]	n/a	FR1	1	R1222M
1082.061	1.001	1088710	WORD_OFF	n/a	n/a	MAP	3	9	[0, 0, 0]	n/a	FR1	1	R1222M
1083.062	1.617	1089711	WORD	n/a	wordpools/wordpool_EN.txt	HOOF	4	9	[0, 0, 0]	n/a	FR1	1	R1222M
1084.679	0.801	1091328	WORD_OFF	n/a	n/a	HOOF	4	9	[0, 0, 0]	n/a	FR1	1	R1222M
1085.48	1.616	1092129	WORD	n/a	wordpools/wordpool_EN.txt	ROOT	5	9	[0, 0, 0]	n/a	FR1	1	R1222M
1087.096	0.867	1093745	WORD_OFF	n/a	n/a	ROOT	5	9	[0, 0, 0]	n/a	FR1	1	R1222M
1087.963	1.618	1094612	WORD	n/a	wordpools/wordpool_EN.txt	SEED	6	9	[0, 0, 0]	n/a	FR1	1	R1222M
1089.581	0.799	1096230	WORD_OFF	n/a	n/a	SEED	6	9	[0, 0, 0]	n/a	FR1	1	R1222M
1090.38	1.617	1097029	WORD	n/a	wordpools/wordpool_EN.txt	SNAIL	7	9	[0, 0, 0]	n/a	FR1	1	R1222M
1091.997	0.9	1098646	WORD_OFF	n/a	n/a	SNAIL	7	9	[0, 0, 0]	n/a	FR1	1	R1222M
1092.897	1.601	1099545	WORD	n/a	wordpools/wordpool_EN.txt	STAIR	8	9	[0, 0, 0]	n/a	FR1	1	R1222M
1094.498	1.0	1101146	WORD_OFF	n/a	n/a	STAIR	8	9	[0, 0, 0]	n/a	FR1	1	R1222M
1095.498	1.616	1102146	WORD	n/a	wordpools/wordpool_EN.txt	LEAF	9	9	[0, 0, 0]	n/a	FR1	1	R1222M
1097.114	0.867	1103762	WORD_OFF	n/a	n/a	LEAF	9	9	[0, 0, 0]	n/a	FR1	1	R1222M
1097.981	1.618	1104629	WORD	n/a	wordpools/wordpool_EN.txt	SHELL	10	9	[0, 0, 0]	n/a	FR1	1	R1222M
1099.599	0.85	1106247	WORD_OFF	n/a	n/a	SHELL	10	9	[0, 0, 0]	n/a	FR1	1	R1222M
1100.449	1.616	1107097	WORD	n/a	wordpools/wordpool_EN.txt	MILK	11	9	[0, 0, 0]	n/a	FR1	1	R1222M
1102.065	0.834	1108713	WORD_OFF	n/a	n/a	MILK	11	9	[0, 0, 0]	n/a	FR1	1	R1222M
1102.899	1.618	1109547	WORD	n/a	wordpools/wordpool_EN.txt	ANT	12	9	[0, 0, 0]	n/a	FR1	1	R1222M
1104.517	0.0	1111165	WORD_OFF	n/a	n/a	ANT	12	9	[0, 0, 0]	n/a	FR1	1	R1222M
1104.517	0.0	1111165	DISTRACT_START	n/a	n/a	n/a	-999	9	[0, 0, 0]	n/a	FR1	1	R1222M
1104.517	0.017	1111165	START	n/a	n/a	n/a	-999	10	[-999, -999, -999]	n/a	FR1	1	R1222M
1104.534	10.751	1111182	PROB	10.751	n/a	n/a	-999	10	[7, 8, 8]	23	FR1	1	R1222M
1115.285	5.717	1121932	PROB	5.717	n/a	n/a	-999	10	[2, 1, 4]	7	FR1	1	R1222M
1121.002	7.043	1127649	PROB	7.043	n/a	n/a	-999	10	[8, 3, 6]	17	FR1	1	R1222M
1128.045	0.009	1134691	STOP	n/a	n/a	n/a	-999	10	[-999, -999, -999]	n/a	FR1	1	R1222M
1128.054	0.567	1134700	DISTRACT_END	n/a	n/a	n/a	-999	9	[0, 0, 0]	n/a	FR1	1	R1222M
1128.621	0.517	1135267	RETRIEVAL_ORIENT	n/a	n/a	n/a	-999	9	[0, 0, 0]	n/a	FR1	1	R1222M
1129.138	1.834	1135784	REC_START	n/a	n/a	n/a	-999	9	[0, 0, 0]	n/a	FR1	1	R1222M
1130.972	3.414	1137618	REC_WORD	3.414	n/a	SNAIL	-999	9	[0, 0, 0]	n/a	FR1	1	R1222M
1134.386	2.309	1141032	REC_WORD	2.309	n/a	ROOT	-999	9	[0, 0, 0]	n/a	FR1	1	R1222M
1136.695	4.765	1143341	REC_WORD	4.765	n/a	SEED	-999	9	[0, 0, 0]	n/a	FR1	1	R1222M
1141.46	4.654	1148106	REC_WORD	4.654	n/a	HOOF	-999	9	[0, 0, 0]	n/a	FR1	1	R1222M
1146.114	13.035	1152759	REC_WORD	13.035	n/a	SHRIMP	-999	9	[0, 0, 0]	n/a	FR1	1	R1222M
1159.149	18.714	1165794	REC_END	n/a	n/a	n/a	-999	9	[0, 0, 0]	n/a	FR1	1	R1222M
1177.863	0.5	1184507	TRIAL	n/a	n/a	n/a	-999	10	[0, 0, 0]	n/a	FR1	1	R1222M
1178.363	10.428	1185007	COUNTDOWN_START	n/a	n/a	n/a	-999	10	[0, 0, 0]	n/a	FR1	1	R1222M
1188.791	0.008	1195434	COUNTDOWN_END	n/a	n/a	n/a	-999	10	[0, 0, 0]	n/a	FR1	1	R1222M
1188.799	1.617	1195442	ORIENT	n/a	n/a	n/a	-999	10	[0, 0, 0]	n/a	FR1	1	R1222M
1190.416	2.201	1197059	ORIENT_OFF	n/a	n/a	n/a	-999	10	[0, 0, 0]	n/a	FR1	1	R1222M
1192.617	1.616	1199260	WORD	n/a	wordpools/wordpool_EN.txt	POLE	1	10	[0, 0, 0]	n/a	FR1	1	R1222M
1194.233	0.95	1200876	WORD_OFF	n/a	n/a	POLE	1	10	[0, 0, 0]	n/a	FR1	1	R1222M
1195.183	1.618	1201826	WORD	n/a	wordpools/wordpool_EN.txt	HEART	2	10	[0, 0, 0]	n/a	FR1	1	R1222M
1196.801	0.9	1203444	WORD_OFF	n/a	n/a	HEART	2	10	[0, 0, 0]	n/a	FR1	1	R1222M
1197.701	1.617	1204344	WORD	n/a	wordpools/wordpool_EN.txt	FILM	3	10	[0, 0, 0]	n/a	FR1	1	R1222M
1199.318	0.8	1205960	WORD_OFF	n/a	n/a	FILM	3	10	[0, 0, 0]	n/a	FR1	1	R1222M
1200.118	1.617	1206760	WORD	n/a	wordpools/wordpool_EN.txt	CORD	4	10	[0, 0, 0]	n/a	FR1	1	R1222M
1201.735	0.983	1208377	WORD_OFF	n/a	n/a	CORD	4	10	[0, 0, 0]	n/a	FR1	1	R1222M
1202.718	1.617	1209360	WORD	n/a	wordpools/wordpool_EN.txt	BALL	5	10	[0, 0, 0]	n/a	FR1	1	R1222M
1204.335	0.934	1210977	WORD_OFF	n/a	n/a	BALL	5	10	[0, 0, 0]	n/a	FR1	1	R1222M
1205.269	1.617	1211911	WORD	n/a	wordpools/wordpool_EN.txt	WAVE	6	10	[0, 0, 0]	n/a	FR1	1	R1222M
1206.886	0.85	1213528	WORD_OFF	n/a	n/a	WAVE	6	10	[0, 0, 0]	n/a	FR1	1	R1222M
1207.736	1.617	1214378	WORD	n/a	wordpools/wordpool_EN.txt	EGG	7	10	[0, 0, 0]	n/a	FR1	1	R1222M
1209.353	0.8	1215995	WORD_OFF	n/a	n/a	EGG	7	10	[0, 0, 0]	n/a	FR1	1	R1222M
1210.153	1.617	1216795	WORD	n/a	wordpools/wordpool_EN.txt	TOOTH	8	10	[0, 0, 0]	n/a	FR1	1	R1222M
1211.77	0.917	1218412	WORD_OFF	n/a	n/a	TOOTH	8	10	[0, 0, 0]	n/a	FR1	1	R1222M
1212.687	1.617	1219329	WORD	n/a	wordpools/wordpool_EN.txt	BOMB	9	10	[0, 0, 0]	n/a	FR1	1	R1222M
1214.304	0.933	1220946	WORD_OFF	n/a	n/a	BOMB	9	10	[0, 0, 0]	n/a	FR1	1	R1222M
1215.237	1.617	1221879	WORD	n/a	wordpools/wordpool_EN.txt	FISH	10	10	[0, 0, 0]	n/a	FR1	1	R1222M
1216.854	0.967	1223495	WORD_OFF	n/a	n/a	FISH	10	10	[0, 0, 0]	n/a	FR1	1	R1222M
1217.821	1.617	1224462	WORD	n/a	wordpools/wordpool_EN.txt	WHEEL	11	10	[0, 0, 0]	n/a	FR1	1	R1222M
1219.438	0.934	1226079	WORD_OFF	n/a	n/a	WHEEL	11	10	[0, 0, 0]	n/a	FR1	1	R1222M
1220.372	1.617	1227013	WORD	n/a	wordpools/wordpool_EN.txt	WEED	12	10	[0, 0, 0]	n/a	FR1	1	R1222M
1221.989	0.0	1228630	WORD_OFF	n/a	n/a	WEED	12	10	[0, 0, 0]	n/a	FR1	1	R1222M
1221.989	0.0	1228630	DISTRACT_START	n/a	n/a	n/a	-999	10	[0, 0, 0]	n/a	FR1	1	R1222M
1221.989	0.016	1228630	START	n/a	n/a	n/a	-999	11	[-999, -999, -999]	n/a	FR1	1	R1222M
1222.005	7.085	1228646	PROB	7.085	n/a	n/a	-999	11	[9, 2, 8]	19	FR1	1	R1222M
1229.09	6.285	1235731	PROB	6.285	n/a	n/a	-999	11	[9, 5, 1]	15	FR1	1	R1222M
1235.375	9.38	1242015	PROB	9.38	n/a	n/a	-999	11	[9, 3, 8]	20	FR1	1	R1222M
1244.755	0.022	1251395	STOP	n/a	n/a	n/a	-999	11	[-999, -999, -999]	n/a	FR1	1	R1222M
1244.777	0.533	1251417	DISTRACT_END	n/a	n/a	n/a	-999	10	[0, 0, 0]	n/a	FR1	1	R1222M
1245.31	0.517	1251950	RETRIEVAL_ORIENT	n/a	n/a	n/a	-999	10	[0, 0, 0]	n/a	FR1	1	R1222M
1245.827	1.695	1252467	REC_START	n/a	n/a	n/a	-999	10	[0, 0, 0]	n/a	FR1	1	R1222M
1247.522	28.318	1254162	REC_WORD_VV	28.318	n/a	<>	-999	10	[0, 0, 0]	n/a	FR1	1	R1222M
1275.84	7.41	1282478	REC_END	n/a	n/a	n/a	-999	10	[0, 0, 0]	n/a	FR1	1	R1222M
1283.25	0.5	1289888	TRIAL	n/a	n/a	n/a	-999	11	[0, 0, 0]	n/a	FR1	1	R1222M
1283.75	10.428	1290388	COUNTDOWN_START	n/a	n/a	n/a	-999	11	[0, 0, 0]	n/a	FR1	1	R1222M
1294.178	0.008	1300815	COUNTDOWN_END	n/a	n/a	n/a	-999	11	[0, 0, 0]	n/a	FR1	1	R1222M
1294.186	1.617	1300823	ORIENT	n/a	n/a	n/a	-999	11	[0, 0, 0]	n/a	FR1	1	R1222M
1295.803	2.051	1302440	ORIENT_OFF	n/a	n/a	n/a	-999	11	[0, 0, 0]	n/a	FR1	1	R1222M
1297.854	1.617	1304491	WORD	n/a	wordpools/wordpool_EN.txt	BAND	1	11	[0, 0, 0]	n/a	FR1	1	R1222M
1299.471	0.95	1306108	WORD_OFF	n/a	n/a	BAND	1	11	[0, 0, 0]	n/a	FR1	1	R1222M
1300.421	1.617	1307058	WORD	n/a	wordpools/wordpool_EN.txt	TRUCK	2	11	[0, 0, 0]	n/a	FR1	1	R1222M
1302.038	0.917	1308675	WORD_OFF	n/a	n/a	TRUCK	2	11	[0, 0, 0]	n/a	FR1	1	R1222M
1302.955	1.617	1309592	WORD	n/a	wordpools/wordpool_EN.txt	CLOWN	3	11	[0, 0, 0]	n/a	FR1	1	R1222M
1304.572	0.901	1311208	WORD_OFF	n/a	n/a	CLOWN	3	11	[0, 0, 0]	n/a	FR1	1	R1222M
1305.473	1.616	1312109	WORD	n/a	wordpools/wordpool_EN.txt	DIME	4	11	[0, 0, 0]	n/a	FR1	1	R1222M
1307.089	0.883	1313725	WORD_OFF	n/a	n/a	DIME	4	11	[0, 0, 0]	n/a	FR1	1	R1222M
1307.972	1.601	1314608	WORD	n/a	wordpools/wordpool_EN.txt	LOCK	5	11	[0, 0, 0]	n/a	FR1	1	R1222M
1309.573	0.967	1316209	WORD_OFF	n/a	n/a	LOCK	5	11	[0, 0, 0]	n/a	FR1	1	R1222M
1310.54	1.616	1317176	WORD	n/a	wordpools/wordpool_EN.txt	CART	6	11	[0, 0, 0]	n/a	FR1	1	R1222M
1312.156	0.85	1318792	WORD_OFF	n/a	n/a	CART	6	11	[0, 0, 0]	n/a	FR1	1	R1222M
1313.006	1.618	1319642	WORD	n/a	wordpools/wordpool_EN.txt	FORK	7	11	[0, 0, 0]	n/a	FR1	1	R1222M
1314.624	0.967	1321260	WORD_OFF	n/a	n/a	FORK	7	11	[0, 0, 0]	n/a	FR1	1	R1222M
1315.591	1.616	1322227	WORD	n/a	wordpools/wordpool_EN.txt	ARK	8	11	[0, 0, 0]	n/a	FR1	1	R1222M
1317.207	0.834	1323843	WORD_OFF	n/a	n/a	ARK	8	11	[0, 0, 0]	n/a	FR1	1	R1222M
1318.041	1.617	1324677	WORD	n/a	wordpools/wordpool_EN.txt	SHIRT	9	11	[0, 0, 0]	n/a	FR1	1	R1222M
1319.658	1.0	1326294	WORD_OFF	n/a	n/a	SHIRT	9	11	[0, 0, 0]	n/a	FR1	1	R1222M
1320.658	1.617	1327294	WORD	n/a	wordpools/wordpool_EN.txt	CLOCK	10	11	[0, 0, 0]	n/a	FR1	1	R1222M
1322.275	0.85	1328910	WORD_OFF	n/a	n/a	CLOCK	10	11	[0, 0, 0]	n/a	FR1	1	R1222M
1323.125	1.617	1329760	WORD	n/a	wordpools/wordpool_EN.txt	COUCH	11	11	[0, 0, 0]	n/a	FR1	1	R1222M
1324.742	0.835	1331377	WORD_OFF	n/a	n/a	COUCH	11	11	[0, 0, 0]	n/a	FR1	1	R1222M
1325.577	1.616	1332212	WORD	n/a	wordpools/wordpool_EN.txt	STREET	12	11	[0, 0, 0]	n/a	FR1	1	R1222M
1327.193	0.0	1333828	WORD_OFF	n/a	n/a	STREET	12	11	[0, 0, 0]	n/a	FR1	1	R1222M
1327.193	0.0	1333828	DISTRACT_START	n/a	n/a	n/a	-999	11	[0, 0, 0]	n/a	FR1	1	R1222M
1327.193	0.016	1333828	START	n/a	n/a	n/a	-999	12	[-999, -999, -999]	n/a	FR1	1	R1222M
1327.209	4.868	1333844	PROB	4.868	n/a	n/a	-999	12	[1, 7, 1]	9	FR1	1	R1222M
1332.077	8.469	1338712	PROB	8.469	n/a	n/a	-999	12	[6, 7, 2]	15	FR1	1	R1222M
1340.546	6.417	1347180	PROB	6.417	n/a	n/a	-999	12	[9, 6, 4]	19	FR1	1	R1222M
1346.963	5.737	1353597	PROB	5.737	n/a	n/a	-999	12	[7, 7, 1]	15	FR1	1	R1222M
1352.7	0.014	1359334	STOP	n/a	n/a	n/a	-999	12	[-999, -999, -999]	n/a	FR1	1	R1222M
1352.714	0.65	1359348	DISTRACT_END	n/a	n/a	n/a	-999	11	[0, 0, 0]	n/a	FR1	1	R1222M
1353.364	0.518	1359998	RETRIEVAL_ORIENT	n/a	n/a	n/a	-999	11	[0, 0, 0]	n/a	FR1	1	R1222M
1353.882	0.825	1360516	REC_START	n/a	n/a	n/a	-999	11	[0, 0, 0]	n/a	FR1	1	R1222M
1354.707	8.785	1361341	REC_WORD	8.785	n/a	TRUCK	-999	11	[0, 0, 0]	n/a	FR1	1	R1222M
1363.492	7.774	1370125	REC_WORD	7.774	n/a	CLOWN	-999	11	[0, 0, 0]	n/a	FR1	1	R1222M
1371.266	12.627	1377899	REC_WORD	12.627	n/a	DIME	-999	11	[0, 0, 0]	n/a	FR1	1	R1222M
1383.893	15.514	1390525	REC_END	n/a	n/a	n/a	-999	11	[0, 0, 0]	n/a	FR1	1	R1222M
1399.407	0.5	1406038	TRIAL	n/a	n/a	n/a	-999	12	[0, 0, 0]	n/a	FR1	1	R1222M
1399.907	10.428	1406538	COUNTDOWN_START	n/a	n/a	n/a	-999	12	[0, 0, 0]	n/a	FR1	1	R1222M
1410.335	0.007	1416965	COUNTDOWN_END	n/a	n/a	n/a	-999	12	[0, 0, 0]	n/a	FR1	1	R1222M
1410.342	1.617	1416972	ORIENT	n/a	n/a	n/a	-999	12	[0, 0, 0]	n/a	FR1	1	R1222M
1411.959	1.834	1418589	ORIENT_OFF	n/a	n/a	n/a	-999	12	[0, 0, 0]	n/a	FR1	1	R1222M
1413.793	1.617	1420423	WORD	n/a	wordpools/wordpool_EN.txt	MAT	1	12	[0, 0, 0]	n/a	FR1	1	R1222M
1415.41	0.9	1422040	WORD_OFF	n/a	n/a	MAT	1	12	[0, 0, 0]	n/a	FR1	1	R1222M
1416.31	1.617	1422940	WORD	n/a	wordpools/wordpool_EN.txt	DOOR	2	12	[0, 0, 0]	n/a	FR1	1	R1222M
1417.927	0.817	1424557	WORD_OFF	n/a	n/a	DOOR	2	12	[0, 0, 0]	n/a	FR1	1	R1222M
1418.744	1.617	1425374	WORD	n/a	wordpools/wordpool_EN.txt	FACE	3	12	[0, 0, 0]	n/a	FR1	1	R1222M
1420.361	0.833	1426991	WORD_OFF	n/a	n/a	FACE	3	12	[0, 0, 0]	n/a	FR1	1	R1222M
1421.194	1.617	1427824	WORD	n/a	wordpools/wordpool_EN.txt	CHEEK	4	12	[0, 0, 0]	n/a	FR1	1	R1222M
1422.811	0.934	1429441	WORD_OFF	n/a	n/a	CHEEK	4	12	[0, 0, 0]	n/a	FR1	1	R1222M
1423.745	1.617	1430375	WORD	n/a	wordpools/wordpool_EN.txt	SUIT	5	12	[0, 0, 0]	n/a	FR1	1	R1222M
1425.362	0.9	1431992	WORD_OFF	n/a	n/a	SUIT	5	12	[0, 0, 0]	n/a	FR1	1	R1222M
1426.262	1.617	1432892	WORD	n/a	wordpools/wordpool_EN.txt	PANTS	6	12	[0, 0, 0]	n/a	FR1	1	R1222M
1427.879	0.95	1434508	WORD_OFF	n/a	n/a	PANTS	6	12	[0, 0, 0]	n/a	FR1	1	R1222M
1428.829	1.618	1435458	WORD	n/a	wordpools/wordpool_EN.txt	TRAY	7	12	[0, 0, 0]	n/a	FR1	1	R1222M
1430.447	0.782	1437076	WORD_OFF	n/a	n/a	TRAY	7	12	[0, 0, 0]	n/a	FR1	1	R1222M
1431.229	1.617	1437858	WORD	n/a	wordpools/wordpool_EN.txt	PEA	8	12	[0, 0, 0]	n/a	FR1	1	R1222M
1432.846	0.917	1439475	WORD_OFF	n/a	n/a	PEA	8	12	[0, 0, 0]	n/a	FR1	1	R1222M
1433.763	1.617	1440392	WORD	n/a	wordpools/wordpool_EN.txt	BENCH	9	12	[0, 0, 0]	n/a	FR1	1	R1222M
1435.38	0.834	1442009	WORD_OFF	n/a	n/a	BENCH	9	12	[0, 0, 0]	n/a	FR1	1	R1222M
1436.214	1.617	1442843	WORD	n/a	wordpools/wordpool_EN.txt	SHOE	10	12	[0, 0, 0]	n/a	FR1	1	R1222M
1437.831	0.768	1444460	WORD_OFF	n/a	n/a	SHOE	10	12	[0, 0, 0]	n/a	FR1	1	R1222M
1438.599	1.615	1445228	WORD	n/a	wordpools/wordpool_EN.txt	DRESS	11	12	[0, 0, 0]	n/a	FR1	1	R1222M
1440.214	0.784	1446843	WORD_OFF	n/a	n/a	DRESS	11	12	[0, 0, 0]	n/a	FR1	1	R1222M
1440.998	1.601	1447627	WORD	n/a	wordpools/wordpool_EN.txt	PALM	12	12	[0, 0, 0]	n/a	FR1	1	R1222M
1442.599	0.0	1449228	WORD_OFF	n/a	n/a	PALM	12	12	[0, 0, 0]	n/a	FR1	1	R1222M
1442.599	0.001	1449228	DISTRACT_START	n/a	n/a	n/a	-999	12	[0, 0, 0]	n/a	FR1	1	R1222M
1442.6	0.016	1449229	START	n/a	n/a	n/a	-999	13	[-999, -999, -999]	n/a	FR1	1	R1222M
1442.616	4.967	1449245	PROB	4.967	n/a	n/a	-999	13	[2, 2, 1]	5	FR1	1	R1222M
1447.583	6.885	1454211	PROB	6.885	n/a	n/a	-999	13	[8, 8, 3]	19	FR1	1	R1222M
1454.468	5.75	1461096	PROB	5.75	n/a	n/a	-999	13	[8, 4, 3]	15	FR1	1	R1222M
1460.218	6.162	1466846	PROB	6.162	n/a	n/a	-999	13	[8, 6, 6]	20	FR1	1	R1222M
1466.38	0.006	1473007	STOP	n/a	n/a	n/a	-999	13	[-999, -999, -999]	n/a	FR1	1	R1222M
1466.386	0.65	1473013	DISTRACT_END	n/a	n/a	n/a	-999	12	[0, 0, 0]	n/a	FR1	1	R1222M
1467.036	0.519	1473663	RETRIEVAL_ORIENT	n/a	n/a	n/a	-999	12	[0, 0, 0]	n/a	FR1	1	R1222M
1467.555	1.325	1474182	REC_START	n/a	n/a	n/a	-999	12	[0, 0, 0]	n/a	FR1	1	R1222M
1468.88	8.117	1475507	REC_WORD	8.117	n/a	DRESS	-999	12	[0, 0, 0]	n/a	FR1	1	R1222M
1476.997	11.854	1483624	REC_WORD	11.854	n/a	SHOE	-999	12	[0, 0, 0]	n/a	FR1	1	R1222M
1488.851	8.716	1495477	REC_WORD	8.716	n/a	BENCH	-999	12	[0, 0, 0]	n/a	FR1	1	R1222M
1497.567	6.693	1504192	REC_END	n/a	n/a	n/a	-999	12	[0, 0, 0]	n/a	FR1	1	R1222M
1504.26	0.5	1510885	TRIAL	n/a	n/a	n/a	-999	13	[0, 0, 0]	n/a	FR1	1	R1222M
1504.76	10.428	1511385	COUNTDOWN_START	n/a	n/a	n/a	-999	13	[0, 0, 0]	n/a	FR1	1	R1222M
1515.188	0.008	1521812	COUNTDOWN_END	n/a	n/a	n/a	-999	13	[0, 0, 0]	n/a	FR1	1	R1222M
1515.196	1.617	1521820	ORIENT	n/a	n/a	n/a	-999	13	[0, 0, 0]	n/a	FR1	1	R1222M
1516.813	2.234	1523437	ORIENT_OFF	n/a	n/a	n/a	-999	13	[0, 0, 0]	n/a	FR1	1	R1222M
1519.047	1.617	1525671	WORD	n/a	wordpools/wordpool_EN.txt	COW	1	13	[0, 0, 0]	n/a	FR1	1	R1222M
1520.664	0.901	1527288	WORD_OFF	n/a	n/a	COW	1	13	[0, 0, 0]	n/a	FR1	1	R1222M
1521.565	1.616	1528189	WORD	n/a	wordpools/wordpool_EN.txt	FLEA	2	13	[0, 0, 0]	n/a	FR1	1	R1222M
1523.181	0.85	1529805	WORD_OFF	n/a	n/a	FLEA	2	13	[0, 0, 0]	n/a	FR1	1	R1222M
1524.031	1.617	1530655	WORD	n/a	wordpools/wordpool_EN.txt	FOX	3	13	[0, 0, 0]	n/a	FR1	1	R1222M
1525.648	0.801	1532272	WORD_OFF	n/a	n/a	FOX	3	13	[0, 0, 0]	n/a	FR1	1	R1222M
1526.449	1.616	1533073	WORD	n/a	wordpools/wordpool_EN.txt	PIG	4	13	[0, 0, 0]	n/a	FR1	1	R1222M
1528.065	0.933	1534689	WORD_OFF	n/a	n/a	PIG	4	13	[0, 0, 0]	n/a	FR1	1	R1222M
1528.998	1.602	1535622	WORD	n/a	wordpools/wordpool_EN.txt	SOCK	5	13	[0, 0, 0]	n/a	FR1	1	R1222M
1530.6	0.883	1537224	WORD_OFF	n/a	n/a	SOCK	5	13	[0, 0, 0]	n/a	FR1	1	R1222M
1531.483	1.616	1538107	WORD	n/a	wordpools/wordpool_EN.txt	KITE	6	13	[0, 0, 0]	n/a	FR1	1	R1222M
1533.099	0.867	1539722	WORD_OFF	n/a	n/a	KITE	6	13	[0, 0, 0]	n/a	FR1	1	R1222M
1533.966	1.601	1540589	WORD	n/a	wordpools/wordpool_EN.txt	PEN	7	13	[0, 0, 0]	n/a	FR1	1	R1222M
1535.567	0.967	1542190	WORD_OFF	n/a	n/a	PEN	7	13	[0, 0, 0]	n/a	FR1	1	R1222M
1536.534	1.616	1543157	WORD	n/a	wordpools/wordpool_EN.txt	DEER	8	13	[0, 0, 0]	n/a	FR1	1	R1222M
1538.15	0.834	1544773	WORD_OFF	n/a	n/a	DEER	8	13	[0, 0, 0]	n/a	FR1	1	R1222M
1538.984	1.618	1545607	WORD	n/a	wordpools/wordpool_EN.txt	BIRD	9	13	[0, 0, 0]	n/a	FR1	1	R1222M
1540.602	0.782	1547225	WORD_OFF	n/a	n/a	BIRD	9	13	[0, 0, 0]	n/a	FR1	1	R1222M
1541.384	1.617	1548007	WORD	n/a	wordpools/wordpool_EN.txt	BEAR	10	13	[0, 0, 0]	n/a	FR1	1	R1222M
1543.001	0.9	1549624	WORD_OFF	n/a	n/a	BEAR	10	13	[0, 0, 0]	n/a	FR1	1	R1222M
1543.901	1.618	1550524	WORD	n/a	wordpools/wordpool_EN.txt	SNAKE	11	13	[0, 0, 0]	n/a	FR1	1	R1222M
1545.519	0.934	1552142	WORD_OFF	n/a	n/a	SNAKE	11	13	[0, 0, 0]	n/a	FR1	1	R1222M
1546.453	1.616	1553076	WORD	n/a	wordpools/wordpool_EN.txt	HAT	12	13	[0, 0, 0]	n/a	FR1	1	R1222M
1548.069	0.0	1554692	WORD_OFF	n/a	n/a	HAT	12	13	[0, 0, 0]	n/a	FR1	1	R1222M
1548.069	0.0	1554692	DISTRACT_START	n/a	n/a	n/a	-999	13	[0, 0, 0]	n/a	FR1	1	R1222M
1548.069	0.016	1554692	START	n/a	n/a	n/a	-999	14	[-999, -999, -999]	n/a	FR1	1	R1222M
1548.085	8.102	1554708	PROB	8.102	n/a	n/a	-999	14	[9, 4, 8]	21	FR1	1	R1222M
1556.187	7.336	1562809	PROB	7.336	n/a	n/a	-999	14	[5, 9, 7]	21	FR1	1	R1222M
1563.523	6.753	1570145	PROB	6.753	n/a	n/a	-999	14	[2, 6, 2]	10	FR1	1	R1222M
1570.276	0.014	1576897	STOP	n/a	n/a	n/a	-999	14	[-999, -999, -999]	n/a	FR1	1	R1222M
1570.29	0.667	1576911	DISTRACT_END	n/a	n/a	n/a	-999	13	[0, 0, 0]	n/a	FR1	1	R1222M
1570.957	0.518	1577578	RETRIEVAL_ORIENT	n/a	n/a	n/a	-999	13	[0, 0, 0]	n/a	FR1	1	R1222M
1571.475	0.685	1578096	REC_START	n/a	n/a	n/a	-999	13	[0, 0, 0]	n/a	FR1	1	R1222M
1572.16	1.299	1578781	REC_WORD	1.299	n/a	BEAR	-999	13	[0, 0, 0]	n/a	FR1	1	R1222M
1573.459	1.59	1580080	REC_WORD	1.59	n/a	SNAKE	-999	13	[0, 0, 0]	n/a	FR1	1	R1222M
1575.049	4.256	1581670	REC_WORD	4.256	n/a	COW	-999	13	[0, 0, 0]	n/a	FR1	1	R1222M
1579.305	2.918	1585926	REC_WORD	2.918	n/a	PIG	-999	13	[0, 0, 0]	n/a	FR1	1	R1222M
1582.223	4.164	1588844	REC_WORD	4.164	n/a	HAT	-999	13	[0, 0, 0]	n/a	FR1	1	R1222M
1586.387	15.101	1593007	REC_WORD	15.101	n/a	BIRD	-999	13	[0, 0, 0]	n/a	FR1	1	R1222M
1601.488	7.843	1608108	REC_END	n/a	n/a	n/a	-999	13	[0, 0, 0]	n/a	FR1	1	R1222M
1609.331	0.5	1615950	TRIAL	n/a	n/a	n/a	-999	14	[0, 0, 0]	n/a	FR1	1	R1222M
1609.831	10.428	1616450	COUNTDOWN_START	n/a	n/a	n/a	-999	14	[0, 0, 0]	n/a	FR1	1	R1222M
1620.259	0.007	1626878	COUNTDOWN_END	n/a	n/a	n/a	-999	14	[0, 0, 0]	n/a	FR1	1	R1222M
1620.266	1.617	1626885	ORIENT	n/a	n/a	n/a	-999	14	[0, 0, 0]	n/a	FR1	1	R1222M
1621.883	2.201	1628501	ORIENT_OFF	n/a	n/a	n/a	-999	14	[0, 0, 0]	n/a	FR1	1	R1222M
1624.084	1.617	1630702	WORD	n/a	wordpools/wordpool_EN.txt	MUD	1	14	[0, 0, 0]	n/a	FR1	1	R1222M
1625.701	0.884	1632319	WORD_OFF	n/a	n/a	MUD	1	14	[0, 0, 0]	n/a	FR1	1	R1222M
1626.585	1.616	1633203	WORD	n/a	wordpools/wordpool_EN.txt	FAN	2	14	[0, 0, 0]	n/a	FR1	1	R1222M
1628.201	1.0	1634819	WORD_OFF	n/a	n/a	FAN	2	14	[0, 0, 0]	n/a	FR1	1	R1222M
1629.201	1.617	1635819	WORD	n/a	wordpools/wordpool_EN.txt	THUMB	3	14	[0, 0, 0]	n/a	FR1	1	R1222M
1630.818	0.884	1637436	WORD_OFF	n/a	n/a	THUMB	3	14	[0, 0, 0]	n/a	FR1	1	R1222M
1631.702	1.617	1638320	WORD	n/a	wordpools/wordpool_EN.txt	PASTE	4	14	[0, 0, 0]	n/a	FR1	1	R1222M
1633.319	0.85	1639937	WORD_OFF	n/a	n/a	PASTE	4	14	[0, 0, 0]	n/a	FR1	1	R1222M
1634.169	1.617	1640787	WORD	n/a	wordpools/wordpool_EN.txt	YARD	5	14	[0, 0, 0]	n/a	FR1	1	R1222M
1635.786	0.818	1642404	WORD_OFF	n/a	n/a	YARD	5	14	[0, 0, 0]	n/a	FR1	1	R1222M
1636.604	1.616	1643222	WORD	n/a	wordpools/wordpool_EN.txt	NOSE	6	14	[0, 0, 0]	n/a	FR1	1	R1222M
1638.22	0.833	1644837	WORD_OFF	n/a	n/a	NOSE	6	14	[0, 0, 0]	n/a	FR1	1	R1222M
1639.053	1.617	1645670	WORD	n/a	wordpools/wordpool_EN.txt	STRING	7	14	[0, 0, 0]	n/a	FR1	1	R1222M
1640.67	0.984	1647287	WORD_OFF	n/a	n/a	STRING	7	14	[0, 0, 0]	n/a	FR1	1	R1222M
1641.654	1.617	1648271	WORD	n/a	wordpools/wordpool_EN.txt	BOOT	8	14	[0, 0, 0]	n/a	FR1	1	R1222M
1643.271	0.866	1649888	WORD_OFF	n/a	n/a	BOOT	8	14	[0, 0, 0]	n/a	FR1	1	R1222M
1644.137	1.618	1650754	WORD	n/a	wordpools/wordpool_EN.txt	SLIME	9	14	[0, 0, 0]	n/a	FR1	1	R1222M
1645.755	0.851	1652372	WORD_OFF	n/a	n/a	SLIME	9	14	[0, 0, 0]	n/a	FR1	1	R1222M
1646.606	1.616	1653223	WORD	n/a	wordpools/wordpool_EN.txt	STRAW	10	14	[0, 0, 0]	n/a	FR1	1	R1222M
1648.222	0.983	1654839	WORD_OFF	n/a	n/a	STRAW	10	14	[0, 0, 0]	n/a	FR1	1	R1222M
1649.205	1.617	1655822	WORD	n/a	wordpools/wordpool_EN.txt	TEETH	11	14	[0, 0, 0]	n/a	FR1	1	R1222M
1650.822	0.9	1657439	WORD_OFF	n/a	n/a	TEETH	11	14	[0, 0, 0]	n/a	FR1	1	R1222M
1651.722	1.617	1658339	WORD	n/a	wordpools/wordpool_EN.txt	PURSE	12	14	[0, 0, 0]	n/a	FR1	1	R1222M
1653.339	0.0	1659956	WORD_OFF	n/a	n/a	PURSE	12	14	[0, 0, 0]	n/a	FR1	1	R1222M
1653.339	0.001	1659956	DISTRACT_START	n/a	n/a	n/a	-999	14	[0, 0, 0]	n/a	FR1	1	R1222M
1653.34	0.016	1659957	START	n/a	n/a	n/a	-999	15	[-999, -999, -999]	n/a	FR1	1	R1222M
1653.356	4.868	1659973	PROB	4.868	n/a	n/a	-999	15	[1, 9, 1]	11	FR1	1	R1222M
1658.224	4.951	1664840	PROB	4.951	n/a	n/a	-999	15	[5, 3, 5]	13	FR1	1	R1222M
1663.175	7.184	1669791	PROB	7.184	n/a	n/a	-999	15	[7, 8, 7]	22	FR1	1	R1222M
1670.359	7.127	1676975	PROB	7.127	n/a	n/a	-999	15	[6, 3, 9]	18	FR1	1	R1222M
1677.486	0.009	1684101	STOP	n/a	n/a	n/a	-999	15	[-999, -999, -999]	n/a	FR1	1	R1222M
1677.495	0.599	1684110	DISTRACT_END	n/a	n/a	n/a	-999	14	[0, 0, 0]	n/a	FR1	1	R1222M
1678.094	0.519	1684709	RETRIEVAL_ORIENT	n/a	n/a	n/a	-999	14	[0, 0, 0]	n/a	FR1	1	R1222M
1678.613	1.328	1685228	REC_START	n/a	n/a	n/a	-999	14	[0, 0, 0]	n/a	FR1	1	R1222M
1679.941	5.142	1686556	REC_WORD	5.142	n/a	BOOT	-999	14	[0, 0, 0]	n/a	FR1	1	R1222M
1685.083	9.706	1691698	REC_WORD	9.706	n/a	TEETH	-999	14	[0, 0, 0]	n/a	FR1	1	R1222M
1694.789	10.655	1701403	REC_WORD	10.655	n/a	THUMB	-999	14	[0, 0, 0]	n/a	FR1	1	R1222M
1705.444	3.181	1712058	REC_WORD	3.181	n/a	STRAW	-999	14	[0, 0, 0]	n/a	FR1	1	R1222M
1708.625	7.093	1715238	REC_END	n/a	n/a	n/a	-999	14	[0, 0, 0]	n/a	FR1	1	R1222M
1715.718	0.5	1722331	TRIAL	n/a	n/a	n/a	-999	15	[0, 0, 0]	n/a	FR1	1	R1222M
1716.218	10.428	1722831	COUNTDOWN_START	n/a	n/a	n/a	-999	15	[0, 0, 0]	n/a	FR1	1	R1222M
1726.646	0.008	1733258	COUNTDOWN_END	n/a	n/a	n/a	-999	15	[0, 0, 0]	n/a	FR1	1	R1222M
1726.654	1.617	1733266	ORIENT	n/a	n/a	n/a	-999	15	[0, 0, 0]	n/a	FR1	1	R1222M
1728.271	2.017	1734883	ORIENT_OFF	n/a	n/a	n/a	-999	15	[0, 0, 0]	n/a	FR1	1	R1222M
1730.288	1.617	1736900	WORD	n/a	wordpools/wordpool_EN.txt	DRUM	1	15	[0, 0, 0]	n/a	FR1	1	R1222M
1731.905	1.017	1738517	WORD_OFF	n/a	n/a	DRUM	1	15	[0, 0, 0]	n/a	FR1	1	R1222M
1732.922	1.618	1739534	WORD	n/a	wordpools/wordpool_EN.txt	DUCK	2	15	[0, 0, 0]	n/a	FR1	1	R1222M
1734.54	0.933	1741152	WORD_OFF	n/a	n/a	DUCK	2	15	[0, 0, 0]	n/a	FR1	1	R1222M
1735.473	1.616	1742085	WORD	n/a	wordpools/wordpool_EN.txt	FLAG	3	15	[0, 0, 0]	n/a	FR1	1	R1222M
1737.089	0.867	1743701	WORD_OFF	n/a	n/a	FLAG	3	15	[0, 0, 0]	n/a	FR1	1	R1222M
1737.956	1.618	1744568	WORD	n/a	wordpools/wordpool_EN.txt	VAN	4	15	[0, 0, 0]	n/a	FR1	1	R1222M
1739.574	0.933	1746186	WORD_OFF	n/a	n/a	VAN	4	15	[0, 0, 0]	n/a	FR1	1	R1222M
1740.507	1.616	1747119	WORD	n/a	wordpools/wordpool_EN.txt	SNOW	5	15	[0, 0, 0]	n/a	FR1	1	R1222M
1742.123	0.951	1748735	WORD_OFF	n/a	n/a	SNOW	5	15	[0, 0, 0]	n/a	FR1	1	R1222M
1743.074	1.617	1749686	WORD	n/a	wordpools/wordpool_EN.txt	BADGE	6	15	[0, 0, 0]	n/a	FR1	1	R1222M
1744.691	0.95	1751302	WORD_OFF	n/a	n/a	BADGE	6	15	[0, 0, 0]	n/a	FR1	1	R1222M
1745.641	1.617	1752252	WORD	n/a	wordpools/wordpool_EN.txt	BLUSH	7	15	[0, 0, 0]	n/a	FR1	1	R1222M
1747.258	0.883	1753869	WORD_OFF	n/a	n/a	BLUSH	7	15	[0, 0, 0]	n/a	FR1	1	R1222M
1748.141	1.617	1754752	WORD	n/a	wordpools/wordpool_EN.txt	GEESE	8	15	[0, 0, 0]	n/a	FR1	1	R1222M
1749.758	0.884	1756369	WORD_OFF	n/a	n/a	GEESE	8	15	[0, 0, 0]	n/a	FR1	1	R1222M
1750.642	1.617	1757253	WORD	n/a	wordpools/wordpool_EN.txt	PARK	9	15	[0, 0, 0]	n/a	FR1	1	R1222M
1752.259	0.816	1758870	WORD_OFF	n/a	n/a	PARK	9	15	[0, 0, 0]	n/a	FR1	1	R1222M
1753.075	1.617	1759686	WORD	n/a	wordpools/wordpool_EN.txt	CRANE	10	15	[0, 0, 0]	n/a	FR1	1	R1222M
1754.692	1.001	1761303	WORD_OFF	n/a	n/a	CRANE	10	15	[0, 0, 0]	n/a	FR1	1	R1222M
1755.693	1.617	1762304	WORD	n/a	wordpools/wordpool_EN.txt	EAR	11	15	[0, 0, 0]	n/a	FR1	1	R1222M
1757.31	0.8	1763921	WORD_OFF	n/a	n/a	EAR	11	15	[0, 0, 0]	n/a	FR1	1	R1222M
1758.11	1.617	1764721	WORD	n/a	wordpools/wordpool_EN.txt	ZOO	12	15	[0, 0, 0]	n/a	FR1	1	R1222M
1759.727	0.0	1766338	WORD_OFF	n/a	n/a	ZOO	12	15	[0, 0, 0]	n/a	FR1	1	R1222M
1759.727	0.0	1766338	DISTRACT_START	n/a	n/a	n/a	-999	15	[0, 0, 0]	n/a	FR1	1	R1222M
1759.727	0.016	1766338	START	n/a	n/a	n/a	-999	16	[-999, -999, -999]	n/a	FR1	1	R1222M
1759.743	6.769	1766354	PROB	6.769	n/a	n/a	-999	16	[5, 2, 3]	10	FR1	1	R1222M
1766.512	5.534	1773122	PROB	5.534	n/a	n/a	-999	16	[3, 2, 2]	7	FR1	1	R1222M
1772.046	9.535	1778656	PROB	9.535	n/a	n/a	-999	16	[5, 7, 4]	16	FR1	1	R1222M
1781.581	0.018	1788190	STOP	n/a	n/a	n/a	-999	16	[-999, -999, -999]	n/a	FR1	1	R1222M
1781.599	0.599	1788208	DISTRACT_END	n/a	n/a	n/a	-999	15	[0, 0, 0]	n/a	FR1	1	R1222M
1782.198	0.517	1788807	RETRIEVAL_ORIENT	n/a	n/a	n/a	-999	15	[0, 0, 0]	n/a	FR1	1	R1222M
1782.715	1.471	1789324	REC_START	n/a	n/a	n/a	-999	15	[0, 0, 0]	n/a	FR1	1	R1222M
1784.186	3.5	1790795	REC_WORD	3.5	n/a	PARK	-999	15	[0, 0, 0]	n/a	FR1	1	R1222M
1787.686	4.579	1794295	REC_WORD	4.579	n/a	EAR	-999	15	[0, 0, 0]	n/a	FR1	1	R1222M
1792.265	20.462	1798874	REC_WORD	20.462	n/a	DRUM	-999	15	[0, 0, 0]	n/a	FR1	1	R1222M
1812.727	6.444	1819335	REC_END	n/a	n/a	n/a	-999	15	[0, 0, 0]	n/a	FR1	1	R1222M
1819.171	0.5	1825778	TRIAL	n/a	n/a	n/a	-999	16	[0, 0, 0]	n/a	FR1	1	R1222M
1819.671	10.428	1826278	COUNTDOWN_START	n/a	n/a	n/a	-999	16	[0, 0, 0]	n/a	FR1	1	R1222M
1830.099	0.008	1836706	COUNTDOWN_END	n/a	n/a	n/a	-999	16	[0, 0, 0]	n/a	FR1	1	R1222M
1830.107	1.617	1836714	ORIENT	n/a	n/a	n/a	-999	16	[0, 0, 0]	n/a	FR1	1	R1222M
1831.724	1.967	1838331	ORIENT_OFF	n/a	n/a	n/a	-999	16	[0, 0, 0]	n/a	FR1	1	R1222M
1833.691	1.617	1840297	WORD	n/a	wordpools/wordpool_EN.txt	CAVE	1	16	[0, 0, 0]	n/a	FR1	1	R1222M
1835.308	0.8	1841914	WORD_OFF	n/a	n/a	CAVE	1	16	[0, 0, 0]	n/a	FR1	1	R1222M
1836.108	1.617	1842714	WORD	n/a	wordpools/wordpool_EN.txt	STORM	2	16	[0, 0, 0]	n/a	FR1	1	R1222M
1837.725	0.95	1844331	WORD_OFF	n/a	n/a	STORM	2	16	[0, 0, 0]	n/a	FR1	1	R1222M
1838.675	1.617	1845281	WORD	n/a	wordpools/wordpool_EN.txt	RIB	3	16	[0, 0, 0]	n/a	FR1	1	R1222M
1840.292	1.001	1846898	WORD_OFF	n/a	n/a	RIB	3	16	[0, 0, 0]	n/a	FR1	1	R1222M
1841.293	1.617	1847899	WORD	n/a	wordpools/wordpool_EN.txt	GATE	4	16	[0, 0, 0]	n/a	FR1	1	R1222M
1842.91	0.933	1849516	WORD_OFF	n/a	n/a	GATE	4	16	[0, 0, 0]	n/a	FR1	1	R1222M
1843.843	1.618	1850449	WORD	n/a	wordpools/wordpool_EN.txt	MOLE	5	16	[0, 0, 0]	n/a	FR1	1	R1222M
1845.461	0.932	1852067	WORD_OFF	n/a	n/a	MOLE	5	16	[0, 0, 0]	n/a	FR1	1	R1222M
1846.393	1.618	1852999	WORD	n/a	wordpools/wordpool_EN.txt	ROOF	6	16	[0, 0, 0]	n/a	FR1	1	R1222M
1848.011	0.983	1854617	WORD_OFF	n/a	n/a	ROOF	6	16	[0, 0, 0]	n/a	FR1	1	R1222M
1848.994	1.618	1855600	WORD	n/a	wordpools/wordpool_EN.txt	BEE	7	16	[0, 0, 0]	n/a	FR1	1	R1222M
1850.612	0.967	1857217	WORD_OFF	n/a	n/a	BEE	7	16	[0, 0, 0]	n/a	FR1	1	R1222M
1851.579	1.616	1858184	WORD	n/a	wordpools/wordpool_EN.txt	FLOOR	8	16	[0, 0, 0]	n/a	FR1	1	R1222M
1853.195	0.85	1859800	WORD_OFF	n/a	n/a	FLOOR	8	16	[0, 0, 0]	n/a	FR1	1	R1222M
1854.045	1.617	1860650	WORD	n/a	wordpools/wordpool_EN.txt	HOLE	9	16	[0, 0, 0]	n/a	FR1	1	R1222M
1855.662	0.767	1862267	WORD_OFF	n/a	n/a	HOLE	9	16	[0, 0, 0]	n/a	FR1	1	R1222M
1856.429	1.617	1863034	WORD	n/a	wordpools/wordpool_EN.txt	AXE	10	16	[0, 0, 0]	n/a	FR1	1	R1222M
1858.046	0.783	1864651	WORD_OFF	n/a	n/a	AXE	10	16	[0, 0, 0]	n/a	FR1	1	R1222M
1858.829	1.618	1865434	WORD	n/a	wordpools/wordpool_EN.txt	CANE	11	16	[0, 0, 0]	n/a	FR1	1	R1222M
1860.447	0.95	1867052	WORD_OFF	n/a	n/a	CANE	11	16	[0, 0, 0]	n/a	FR1	1	R1222M
1861.397	1.617	1868002	WORD	n/a	wordpools/wordpool_EN.txt	SHIELD	12	16	[0, 0, 0]	n/a	FR1	1	R1222M
1863.014	0.0	1869619	DISTRACT_START	n/a	n/a	n/a	-999	16	[0, 0, 0]	n/a	FR1	1	R1222M
1863.014	0.0	1869619	WORD_OFF	n/a	n/a	SHIELD	12	16	[0, 0, 0]	n/a	FR1	1	R1222M
1863.014	0.016	1869619	START	n/a	n/a	n/a	-999	17	[-999, -999, -999]	n/a	FR1	1	R1222M
1863.03	8.052	1869635	PROB	8.052	n/a	n/a	-999	17	[8, 5, 7]	20	FR1	1	R1222M
1871.082	7.335	1877686	PROB	7.335	n/a	n/a	-999	17	[6, 7, 1]	14	FR1	1	R1222M
1878.417	4.644	1885021	PROB	4.644	n/a	n/a	-999	17	[1, 1, 9]	11	FR1	1	R1222M
1883.061	0.006	1889665	STOP	n/a	n/a	n/a	-999	17	[-999, -999, -999]	n/a	FR1	1	R1222M
1883.067	0.568	1889671	DISTRACT_END	n/a	n/a	n/a	-999	16	[0, 0, 0]	n/a	FR1	1	R1222M
1883.635	0.517	1890239	RETRIEVAL_ORIENT	n/a	n/a	n/a	-999	16	[0, 0, 0]	n/a	FR1	1	R1222M
1884.152	7.6	1890756	REC_START	n/a	n/a	n/a	-999	16	[0, 0, 0]	n/a	FR1	1	R1222M
1891.752	4.904	1898355	REC_WORD	4.904	n/a	GATE	-999	16	[0, 0, 0]	n/a	FR1	1	R1222M
1896.656	9.33	1903259	REC_WORD	9.33	n/a	CANE	-999	16	[0, 0, 0]	n/a	FR1	1	R1222M
1905.986	8.177	1912588	REC_WORD	8.177	n/a	STORM	-999	16	[0, 0, 0]	n/a	FR1	1	R1222M
1914.163	7.045	1920765	REC_END	n/a	n/a	n/a	-999	16	[0, 0, 0]	n/a	FR1	1	R1222M
1921.208	0.5	1927809	TRIAL	n/a	n/a	n/a	-999	17	[0, 0, 0]	n/a	FR1	1	R1222M
1921.708	10.428	1928309	COUNTDOWN_START	n/a	n/a	n/a	-999	17	[0, 0, 0]	n/a	FR1	1	R1222M
1932.136	0.008	1938737	COUNTDOWN_END	n/a	n/a	n/a	-999	17	[0, 0, 0]	n/a	FR1	1	R1222M
1932.144	1.617	1938745	ORIENT	n/a	n/a	n/a	-999	17	[0, 0, 0]	n/a	FR1	1	R1222M
1933.761	2.167	1940362	ORIENT_OFF	n/a	n/a	n/a	-999	17	[0, 0, 0]	n/a	FR1	1	R1222M
1935.928	1.618	1942529	WORD	n/a	wordpools/wordpool_EN.txt	FLUTE	1	17	[0, 0, 0]	n/a	FR1	1	R1222M
1937.546	0.782	1944146	WORD_OFF	n/a	n/a	FLUTE	1	17	[0, 0, 0]	n/a	FR1	1	R1222M
1938.328	1.617	1944928	WORD	n/a	wordpools/wordpool_EN.txt	ICE	2	17	[0, 0, 0]	n/a	FR1	1	R1222M
1939.945	0.934	1946545	WORD_OFF	n/a	n/a	ICE	2	17	[0, 0, 0]	n/a	FR1	1	R1222M
1940.879	1.618	1947479	WORD	n/a	wordpools/wordpool_EN.txt	MAZE	3	17	[0, 0, 0]	n/a	FR1	1	R1222M
1942.497	1.0	1949097	WORD_OFF	n/a	n/a	MAZE	3	17	[0, 0, 0]	n/a	FR1	1	R1222M
1943.497	1.616	1950097	WORD	n/a	wordpools/wordpool_EN.txt	TOAD	4	17	[0, 0, 0]	n/a	FR1	1	R1222M
1945.113	0.9	1951713	WORD_OFF	n/a	n/a	TOAD	4	17	[0, 0, 0]	n/a	FR1	1	R1222M
1946.013	1.618	1952613	WORD	n/a	wordpools/wordpool_EN.txt	CONE	5	17	[0, 0, 0]	n/a	FR1	1	R1222M
1947.631	0.917	1954231	WORD_OFF	n/a	n/a	CONE	5	17	[0, 0, 0]	n/a	FR1	1	R1222M
1948.548	1.616	1955148	WORD	n/a	wordpools/wordpool_EN.txt	DOG	6	17	[0, 0, 0]	n/a	FR1	1	R1222M
1950.164	0.967	1956764	WORD_OFF	n/a	n/a	DOG	6	17	[0, 0, 0]	n/a	FR1	1	R1222M
1951.131	1.617	1957731	WORD	n/a	wordpools/wordpool_EN.txt	BRANCH	7	17	[0, 0, 0]	n/a	FR1	1	R1222M
1952.748	0.818	1959348	WORD_OFF	n/a	n/a	BRANCH	7	17	[0, 0, 0]	n/a	FR1	1	R1222M
1953.566	1.615	1960166	WORD	n/a	wordpools/wordpool_EN.txt	TRASH	8	17	[0, 0, 0]	n/a	FR1	1	R1222M
1955.181	1.001	1961780	WORD_OFF	n/a	n/a	TRASH	8	17	[0, 0, 0]	n/a	FR1	1	R1222M
1956.182	1.617	1962781	WORD	n/a	wordpools/wordpool_EN.txt	GRAPE	9	17	[0, 0, 0]	n/a	FR1	1	R1222M
1957.799	0.834	1964398	WORD_OFF	n/a	n/a	GRAPE	9	17	[0, 0, 0]	n/a	FR1	1	R1222M
1958.633	1.616	1965232	WORD	n/a	wordpools/wordpool_EN.txt	PEAR	10	17	[0, 0, 0]	n/a	FR1	1	R1222M
1960.249	0.934	1966848	WORD_OFF	n/a	n/a	PEAR	10	17	[0, 0, 0]	n/a	FR1	1	R1222M
1961.183	1.617	1967782	WORD	n/a	wordpools/wordpool_EN.txt	RAKE	11	17	[0, 0, 0]	n/a	FR1	1	R1222M
1962.8	0.967	1969399	WORD_OFF	n/a	n/a	RAKE	11	17	[0, 0, 0]	n/a	FR1	1	R1222M
1963.767	1.616	1970366	WORD	n/a	wordpools/wordpool_EN.txt	STEM	12	17	[0, 0, 0]	n/a	FR1	1	R1222M
1965.383	0.0	1971982	WORD_OFF	n/a	n/a	STEM	12	17	[0, 0, 0]	n/a	FR1	1	R1222M
1965.383	0.001	1971982	DISTRACT_START	n/a	n/a	n/a	-999	17	[0, 0, 0]	n/a	FR1	1	R1222M
1965.384	0.016	1971983	START	n/a	n/a	n/a	-999	18	[-999, -999, -999]	n/a	FR1	1	R1222M
1965.4	8.035	1971999	PROB	8.035	n/a	n/a	-999	18	[9, 9, 8]	26	FR1	1	R1222M
1973.435	8.252	1980033	PROB	8.252	n/a	n/a	-999	18	[5, 9, 6]	20	FR1	1	R1222M
1981.687	8.117	1988285	PROB	8.117	n/a	n/a	-999	18	[6, 9, 2]	17	FR1	1	R1222M
1989.804	0.018	1996402	STOP	n/a	n/a	n/a	-999	18	[-999, -999, -999]	n/a	FR1	1	R1222M
1989.822	0.701	1996420	DISTRACT_END	n/a	n/a	n/a	-999	17	[0, 0, 0]	n/a	FR1	1	R1222M
1990.523	0.516	1997120	RETRIEVAL_ORIENT	n/a	n/a	n/a	-999	17	[0, 0, 0]	n/a	FR1	1	R1222M
1991.039	0.734	1997636	REC_START	n/a	n/a	n/a	-999	17	[0, 0, 0]	n/a	FR1	1	R1222M
1991.773	2.387	1998370	REC_WORD	2.387	n/a	STEM	-999	17	[0, 0, 0]	n/a	FR1	1	R1222M
1994.16	1.805	2000757	REC_WORD	1.805	n/a	RAKE	-999	17	[0, 0, 0]	n/a	FR1	1	R1222M
1995.965	9.378	2002562	REC_WORD	9.378	n/a	DOG	-999	17	[0, 0, 0]	n/a	FR1	1	R1222M
2005.343	15.709	2011940	REC_WORD	15.709	n/a	PEAR	-999	17	[0, 0, 0]	n/a	FR1	1	R1222M
2021.052	7.044	2027648	REC_END	n/a	n/a	n/a	-999	17	[0, 0, 0]	n/a	FR1	1	R1222M
2028.096	0.5	2034691	TRIAL	n/a	n/a	n/a	-999	18	[0, 0, 0]	n/a	FR1	1	R1222M
2028.596	10.428	2035191	COUNTDOWN_START	n/a	n/a	n/a	-999	18	[0, 0, 0]	n/a	FR1	1	R1222M
2039.024	0.007	2045619	COUNTDOWN_END	n/a	n/a	n/a	-999	18	[0, 0, 0]	n/a	FR1	1	R1222M
2039.031	1.601	2045626	ORIENT	n/a	n/a	n/a	-999	18	[0, 0, 0]	n/a	FR1	1	R1222M
2040.632	2.217	2047227	ORIENT_OFF	n/a	n/a	n/a	-999	18	[0, 0, 0]	n/a	FR1	1	R1222M
2042.849	1.618	2049444	WORD	n/a	wordpools/wordpool_EN.txt	DESK	1	18	[0, 0, 0]	n/a	FR1	1	R1222M
2044.467	0.849	2051061	WORD_OFF	n/a	n/a	DESK	1	18	[0, 0, 0]	n/a	FR1	1	R1222M
2045.316	1.617	2051910	WORD	n/a	wordpools/wordpool_EN.txt	STOVE	2	18	[0, 0, 0]	n/a	FR1	1	R1222M
2046.933	0.783	2053527	WORD_OFF	n/a	n/a	STOVE	2	18	[0, 0, 0]	n/a	FR1	1	R1222M
2047.716	1.617	2054310	WORD	n/a	wordpools/wordpool_EN.txt	BRUSH	3	18	[0, 0, 0]	n/a	FR1	1	R1222M
2049.333	0.917	2055927	WORD_OFF	n/a	n/a	BRUSH	3	18	[0, 0, 0]	n/a	FR1	1	R1222M
2050.25	1.617	2056844	WORD	n/a	wordpools/wordpool_EN.txt	LAMB	4	18	[0, 0, 0]	n/a	FR1	1	R1222M
2051.867	0.834	2058461	WORD_OFF	n/a	n/a	LAMB	4	18	[0, 0, 0]	n/a	FR1	1	R1222M
2052.701	1.617	2059295	WORD	n/a	wordpools/wordpool_EN.txt	INK	5	18	[0, 0, 0]	n/a	FR1	1	R1222M
2054.318	0.766	2060912	WORD_OFF	n/a	n/a	INK	5	18	[0, 0, 0]	n/a	FR1	1	R1222M
2055.084	1.617	2061678	WORD	n/a	wordpools/wordpool_EN.txt	PHONE	6	18	[0, 0, 0]	n/a	FR1	1	R1222M
2056.701	0.868	2063295	WORD_OFF	n/a	n/a	PHONE	6	18	[0, 0, 0]	n/a	FR1	1	R1222M
2057.569	1.616	2064163	WORD	n/a	wordpools/wordpool_EN.txt	FOAM	7	18	[0, 0, 0]	n/a	FR1	1	R1222M
2059.185	0.967	2065779	WORD_OFF	n/a	n/a	FOAM	7	18	[0, 0, 0]	n/a	FR1	1	R1222M
2060.152	1.617	2066746	WORD	n/a	wordpools/wordpool_EN.txt	TOE	8	18	[0, 0, 0]	n/a	FR1	1	R1222M
2061.769	0.818	2068362	WORD_OFF	n/a	n/a	TOE	8	18	[0, 0, 0]	n/a	FR1	1	R1222M
2062.587	1.616	2069180	WORD	n/a	wordpools/wordpool_EN.txt	OAR	9	18	[0, 0, 0]	n/a	FR1	1	R1222M
2064.203	0.867	2070796	WORD_OFF	n/a	n/a	OAR	9	18	[0, 0, 0]	n/a	FR1	1	R1222M
2065.07	1.617	2071663	WORD	n/a	wordpools/wordpool_EN.txt	STICK	10	18	[0, 0, 0]	n/a	FR1	1	R1222M
2066.687	0.834	2073280	WORD_OFF	n/a	n/a	STICK	10	18	[0, 0, 0]	n/a	FR1	1	R1222M
2067.521	1.616	2074114	WORD	n/a	wordpools/wordpool_EN.txt	BOWL	11	18	[0, 0, 0]	n/a	FR1	1	R1222M
2069.137	0.917	2075730	WORD_OFF	n/a	n/a	BOWL	11	18	[0, 0, 0]	n/a	FR1	1	R1222M
2070.054	1.617	2076647	WORD	n/a	wordpools/wordpool_EN.txt	SMILE	12	18	[0, 0, 0]	n/a	FR1	1	R1222M
2071.671	0.0	2078264	WORD_OFF	n/a	n/a	SMILE	12	18	[0, 0, 0]	n/a	FR1	1	R1222M
2071.671	0.0	2078264	DISTRACT_START	n/a	n/a	n/a	-999	18	[0, 0, 0]	n/a	FR1	1	R1222M
2071.671	0.017	2078264	START	n/a	n/a	n/a	-999	19	[-999, -999, -999]	n/a	FR1	1	R1222M
2071.688	6.534	2078281	PROB	6.534	n/a	n/a	-999	19	[6, 4, 8]	18	FR1	1	R1222M
2078.222	6.101	2084815	PROB	6.101	n/a	n/a	-999	19	[7, 8, 2]	17	FR1	1	R1222M
2084.323	7.253	2090915	PROB	7.253	n/a	n/a	-999	19	[4, 3, 1]	8	FR1	1	R1222M
2091.576	7.261	2098168	PROB	7.261	n/a	n/a	-999	19	[9, 9, 1]	19	FR1	1	R1222M
2098.837	0.006	2105428	STOP	n/a	n/a	n/a	-999	19	[-999, -999, -999]	n/a	FR1	1	R1222M
2098.843	0.651	2105434	DISTRACT_END	n/a	n/a	n/a	-999	18	[0, 0, 0]	n/a	FR1	1	R1222M
2099.494	0.516	2106085	RETRIEVAL_ORIENT	n/a	n/a	n/a	-999	18	[0, 0, 0]	n/a	FR1	1	R1222M
2100.01	1.171	2106601	REC_START	n/a	n/a	n/a	-999	18	[0, 0, 0]	n/a	FR1	1	R1222M
2101.181	28.842	2107772	REC_WORD	28.842	n/a	INK	-999	18	[0, 0, 0]	n/a	FR1	1	R1222M
2130.023	6.044	2136613	REC_END	n/a	n/a	n/a	-999	18	[0, 0, 0]	n/a	FR1	1	R1222M
2136.067	0.5	2142656	TRIAL	n/a	n/a	n/a	-999	19	[0, 0, 0]	n/a	FR1	1	R1222M
2136.567	10.428	2143156	COUNTDOWN_START	n/a	n/a	n/a	-999	19	[0, 0, 0]	n/a	FR1	1	R1222M
2146.995	0.007	2153584	COUNTDOWN_END	n/a	n/a	n/a	-999	19	[0, 0, 0]	n/a	FR1	1	R1222M
2147.002	1.618	2153591	ORIENT	n/a	n/a	n/a	-999	19	[0, 0, 0]	n/a	FR1	1	R1222M
2148.62	2.266	2155209	ORIENT_OFF	n/a	n/a	n/a	-999	19	[0, 0, 0]	n/a	FR1	1	R1222M
2150.886	1.618	2157474	WORD	n/a	wordpools/wordpool_EN.txt	LAWN	1	19	[0, 0, 0]	n/a	FR1	1	R1222M
2152.504	0.883	2159092	WORD_OFF	n/a	n/a	LAWN	1	19	[0, 0, 0]	n/a	FR1	1	R1222M
2153.387	1.617	2159975	WORD	n/a	wordpools/wordpool_EN.txt	CHALK	2	19	[0, 0, 0]	n/a	FR1	1	R1222M
2155.004	0.8	2161592	WORD_OFF	n/a	n/a	CHALK	2	19	[0, 0, 0]	n/a	FR1	1	R1222M
2155.804	1.617	2162392	WORD	n/a	wordpools/wordpool_EN.txt	DART	3	19	[0, 0, 0]	n/a	FR1	1	R1222M
2157.421	0.8	2164009	WORD_OFF	n/a	n/a	DART	3	19	[0, 0, 0]	n/a	FR1	1	R1222M
2158.221	1.617	2164809	WORD	n/a	wordpools/wordpool_EN.txt	HEN	4	19	[0, 0, 0]	n/a	FR1	1	R1222M
2159.838	0.785	2166426	WORD_OFF	n/a	n/a	HEN	4	19	[0, 0, 0]	n/a	FR1	1	R1222M
2160.623	1.616	2167211	WORD	n/a	wordpools/wordpool_EN.txt	JEEP	5	19	[0, 0, 0]	n/a	FR1	1	R1222M
2162.239	0.983	2168827	WORD_OFF	n/a	n/a	JEEP	5	19	[0, 0, 0]	n/a	FR1	1	R1222M
2163.222	1.617	2169810	WORD	n/a	wordpools/wordpool_EN.txt	FARM	6	19	[0, 0, 0]	n/a	FR1	1	R1222M
2164.839	0.85	2171427	WORD_OFF	n/a	n/a	FARM	6	19	[0, 0, 0]	n/a	FR1	1	R1222M
2165.689	1.617	2172277	WORD	n/a	wordpools/wordpool_EN.txt	ROAD	7	19	[0, 0, 0]	n/a	FR1	1	R1222M
2167.306	0.834	2173893	WORD_OFF	n/a	n/a	ROAD	7	19	[0, 0, 0]	n/a	FR1	1	R1222M
2168.14	1.617	2174727	WORD	n/a	wordpools/wordpool_EN.txt	RAT	8	19	[0, 0, 0]	n/a	FR1	1	R1222M
2169.757	0.967	2176344	WORD_OFF	n/a	n/a	RAT	8	19	[0, 0, 0]	n/a	FR1	1	R1222M
2170.724	1.616	2177311	WORD	n/a	wordpools/wordpool_EN.txt	STORE	9	19	[0, 0, 0]	n/a	FR1	1	R1222M
2172.34	0.817	2178927	WORD_OFF	n/a	n/a	STORE	9	19	[0, 0, 0]	n/a	FR1	1	R1222M
2173.157	1.617	2179744	WORD	n/a	wordpools/wordpool_EN.txt	PET	10	19	[0, 0, 0]	n/a	FR1	1	R1222M
2174.774	0.934	2181361	WORD_OFF	n/a	n/a	PET	10	19	[0, 0, 0]	n/a	FR1	1	R1222M
2175.708	1.617	2182295	WORD	n/a	wordpools/wordpool_EN.txt	HORSE	11	19	[0, 0, 0]	n/a	FR1	1	R1222M
2177.325	0.983	2183912	WORD_OFF	n/a	n/a	HORSE	11	19	[0, 0, 0]	n/a	FR1	1	R1222M
2178.308	1.617	2184895	WORD	n/a	wordpools/wordpool_EN.txt	TRAIN	12	19	[0, 0, 0]	n/a	FR1	1	R1222M
2179.925	0.0	2186512	WORD_OFF	n/a	n/a	TRAIN	12	19	[0, 0, 0]	n/a	FR1	1	R1222M
2179.925	0.001	2186512	DISTRACT_START	n/a	n/a	n/a	-999	19	[0, 0, 0]	n/a	FR1	1	R1222M
2179.926	0.016	2186513	START	n/a	n/a	n/a	-999	20	[-999, -999, -999]	n/a	FR1	1	R1222M
2179.942	6.368	2186529	PROB	6.368	n/a	n/a	-999	20	[1, 2, 4]	7	FR1	1	R1222M
2186.31	6.219	2192896	PROB	6.219	n/a	n/a	-999	20	[8, 5, 6]	19	FR1	1	R1222M
2192.529	8.516	2199115	PROB	8.516	n/a	n/a	-999	20	[3, 3, 6]	12	FR1	1	R1222M
2201.045	0.018	2207631	STOP	n/a	n/a	n/a	-999	20	[-999, -999, -999]	n/a	FR1	1	R1222M
2201.063	0.534	2207649	DISTRACT_END	n/a	n/a	n/a	-999	19	[0, 0, 0]	n/a	FR1	1	R1222M
2201.597	0.517	2208183	RETRIEVAL_ORIENT	n/a	n/a	n/a	-999	19	[0, 0, 0]	n/a	FR1	1	R1222M
2202.114	1.076	2208699	REC_START	n/a	n/a	n/a	-999	19	[0, 0, 0]	n/a	FR1	1	R1222M
2203.19	1.684	2209775	REC_WORD	1.684	n/a	FARM	-999	19	[0, 0, 0]	n/a	FR1	1	R1222M
2204.874	1.451	2211459	REC_WORD	1.451	n/a	ROAD	-999	19	[0, 0, 0]	n/a	FR1	1	R1222M
2206.325	1.669	2212910	REC_WORD	1.669	n/a	HORSE	-999	19	[0, 0, 0]	n/a	FR1	1	R1222M
2207.994	6.693	2214579	REC_WORD	6.693	n/a	PET	-999	19	[0, 0, 0]	n/a	FR1	1	R1222M
2214.687	17.437	2221272	REC_WORD	17.437	n/a	JEEP	-999	19	[0, 0, 0]	n/a	FR1	1	R1222M
2232.124	6.879	2238708	REC_END	n/a	n/a	n/a	-999	19	[0, 0, 0]	n/a	FR1	1	R1222M
2239.003	0.5	2245586	TRIAL	n/a	n/a	n/a	-999	20	[0, 0, 0]	n/a	FR1	1	R1222M
2239.503	10.428	2246086	COUNTDOWN_START	n/a	n/a	n/a	-999	20	[0, 0, 0]	n/a	FR1	1	R1222M
2249.931	0.008	2256514	COUNTDOWN_END	n/a	n/a	n/a	-999	20	[0, 0, 0]	n/a	FR1	1	R1222M
2249.939	1.601	2256522	ORIENT	n/a	n/a	n/a	-999	20	[0, 0, 0]	n/a	FR1	1	R1222M
2251.54	2.383	2258123	ORIENT_OFF	n/a	n/a	n/a	-999	20	[0, 0, 0]	n/a	FR1	1	R1222M
2253.923	1.601	2260506	WORD	n/a	wordpools/wordpool_EN.txt	CHIEF	1	20	[0, 0, 0]	n/a	FR1	1	R1222M
2255.524	0.866	2262106	WORD_OFF	n/a	n/a	CHIEF	1	20	[0, 0, 0]	n/a	FR1	1	R1222M
2256.39	1.617	2262972	WORD	n/a	wordpools/wordpool_EN.txt	MOUSE	2	20	[0, 0, 0]	n/a	FR1	1	R1222M
2258.007	1.0	2264589	WORD_OFF	n/a	n/a	MOUSE	2	20	[0, 0, 0]	n/a	FR1	1	R1222M
2259.007	1.618	2265589	WORD	n/a	wordpools/wordpool_EN.txt	TREE	3	20	[0, 0, 0]	n/a	FR1	1	R1222M
2260.625	0.984	2267207	WORD_OFF	n/a	n/a	TREE	3	20	[0, 0, 0]	n/a	FR1	1	R1222M
2261.609	1.616	2268191	WORD	n/a	wordpools/wordpool_EN.txt	SHARK	4	20	[0, 0, 0]	n/a	FR1	1	R1222M
2263.225	1.017	2269807	WORD_OFF	n/a	n/a	SHARK	4	20	[0, 0, 0]	n/a	FR1	1	R1222M
2264.242	1.617	2270824	WORD	n/a	wordpools/wordpool_EN.txt	CROW	5	20	[0, 0, 0]	n/a	FR1	1	R1222M
2265.859	0.783	2272441	WORD_OFF	n/a	n/a	CROW	5	20	[0, 0, 0]	n/a	FR1	1	R1222M
2266.642	1.617	2273224	WORD	n/a	wordpools/wordpool_EN.txt	PRINCE	6	20	[0, 0, 0]	n/a	FR1	1	R1222M
2268.259	0.784	2274841	WORD_OFF	n/a	n/a	PRINCE	6	20	[0, 0, 0]	n/a	FR1	1	R1222M
2269.043	1.617	2275625	WORD	n/a	wordpools/wordpool_EN.txt	BAT	7	20	[0, 0, 0]	n/a	FR1	1	R1222M
2270.66	0.868	2277242	WORD_OFF	n/a	n/a	BAT	7	20	[0, 0, 0]	n/a	FR1	1	R1222M
2271.528	1.616	2278110	WORD	n/a	wordpools/wordpool_EN.txt	SHEEP	8	20	[0, 0, 0]	n/a	FR1	1	R1222M
2273.144	0.783	2279725	WORD_OFF	n/a	n/a	SHEEP	8	20	[0, 0, 0]	n/a	FR1	1	R1222M
2273.927	1.618	2280508	WORD	n/a	wordpools/wordpool_EN.txt	MOTH	9	20	[0, 0, 0]	n/a	FR1	1	R1222M
2275.545	0.934	2282126	WORD_OFF	n/a	n/a	MOTH	9	20	[0, 0, 0]	n/a	FR1	1	R1222M
2276.479	1.615	2283060	WORD	n/a	wordpools/wordpool_EN.txt	CAT	10	20	[0, 0, 0]	n/a	FR1	1	R1222M
2278.094	1.001	2284675	WORD_OFF	n/a	n/a	CAT	10	20	[0, 0, 0]	n/a	FR1	1	R1222M
2279.095	1.617	2285676	WORD	n/a	wordpools/wordpool_EN.txt	HOOK	11	20	[0, 0, 0]	n/a	FR1	1	R1222M
2280.712	0.95	2287293	WORD_OFF	n/a	n/a	HOOK	11	20	[0, 0, 0]	n/a	FR1	1	R1222M
2281.662	1.617	2288243	WORD	n/a	wordpools/wordpool_EN.txt	WEB	12	20	[0, 0, 0]	n/a	FR1	1	R1222M
2283.279	0.0	2289860	WORD_OFF	n/a	n/a	WEB	12	20	[0, 0, 0]	n/a	FR1	1	R1222M
2283.279	0.0	2289860	DISTRACT_START	n/a	n/a	n/a	-999	20	[0, 0, 0]	n/a	FR1	1	R1222M
2283.279	0.016	2289860	START	n/a	n/a	n/a	-999	21	[-999, -999, -999]	n/a	FR1	1	R1222M
2283.295	6.552	2289876	PROB	6.552	n/a	n/a	-999	21	[5, 7, 5]	17	FR1	1	R1222M
2289.847	8.852	2296427	PROB	8.852	n/a	n/a	-999	21	[7, 3, 9]	19	FR1	1	R1222M
2298.699	7.185	2305279	PROB	7.185	n/a	n/a	-999	21	[2, 4, 8]	14	FR1	1	R1222M
2305.884	0.016	2312464	STOP	n/a	n/a	n/a	-999	21	[-999, -999, -999]	n/a	FR1	1	R1222M
2305.9	0.584	2312480	DISTRACT_END	n/a	n/a	n/a	-999	20	[0, 0, 0]	n/a	FR1	1	R1222M
2306.484	0.517	2313064	RETRIEVAL_ORIENT	n/a	n/a	n/a	-999	20	[0, 0, 0]	n/a	FR1	1	R1222M
2307.001	1.073	2313581	REC_START	n/a	n/a	n/a	-999	20	[0, 0, 0]	n/a	FR1	1	R1222M
2308.074	1.698	2314653	REC_WORD	1.698	n/a	PRINCE	-999	20	[0, 0, 0]	n/a	FR1	1	R1222M
2309.772	2.099	2316351	REC_WORD	2.099	n/a	WEB	-999	20	[0, 0, 0]	n/a	FR1	1	R1222M
2311.871	12.079	2318450	REC_WORD	12.079	n/a	MOUSE	-999	20	[0, 0, 0]	n/a	FR1	1	R1222M
2323.95	13.061	2330529	REC_WORD	13.061	n/a	CAT	-999	20	[0, 0, 0]	n/a	FR1	1	R1222M
2337.011	5.963	2343589	REC_END	n/a	n/a	n/a	-999	20	[0, 0, 0]	n/a	FR1	1	R1222M
2342.974	0.5	2349551	TRIAL	n/a	n/a	n/a	-999	21	[0, 0, 0]	n/a	FR1	1	R1222M
2343.474	10.428	2350051	COUNTDOWN_START	n/a	n/a	n/a	-999	21	[0, 0, 0]	n/a	FR1	1	R1222M
2353.902	0.007	2360479	COUNTDOWN_END	n/a	n/a	n/a	-999	21	[0, 0, 0]	n/a	FR1	1	R1222M
2353.909	1.601	2360486	ORIENT	n/a	n/a	n/a	-999	21	[0, 0, 0]	n/a	FR1	1	R1222M
2355.51	1.968	2362087	ORIENT_OFF	n/a	n/a	n/a	-999	21	[0, 0, 0]	n/a	FR1	1	R1222M
2357.478	1.616	2364055	WORD	n/a	wordpools/wordpool_EN.txt	STAR	1	21	[0, 0, 0]	n/a	FR1	1	R1222M
2359.094	0.8	2365671	WORD_OFF	n/a	n/a	STAR	1	21	[0, 0, 0]	n/a	FR1	1	R1222M
2359.894	1.618	2366471	WORD	n/a	wordpools/wordpool_EN.txt	BLOOM	2	21	[0, 0, 0]	n/a	FR1	1	R1222M
2361.512	0.983	2368088	WORD_OFF	n/a	n/a	BLOOM	2	21	[0, 0, 0]	n/a	FR1	1	R1222M
2362.495	1.616	2369071	WORD	n/a	wordpools/wordpool_EN.txt	LAND	3	21	[0, 0, 0]	n/a	FR1	1	R1222M
2364.111	1.0	2370687	WORD_OFF	n/a	n/a	LAND	3	21	[0, 0, 0]	n/a	FR1	1	R1222M
2365.111	1.617	2371687	WORD	n/a	wordpools/wordpool_EN.txt	CAPE	4	21	[0, 0, 0]	n/a	FR1	1	R1222M
2366.728	0.967	2373304	WORD_OFF	n/a	n/a	CAPE	4	21	[0, 0, 0]	n/a	FR1	1	R1222M
2367.695	1.617	2374271	WORD	n/a	wordpools/wordpool_EN.txt	SUN	5	21	[0, 0, 0]	n/a	FR1	1	R1222M
2369.312	0.85	2375888	WORD_OFF	n/a	n/a	SUN	5	21	[0, 0, 0]	n/a	FR1	1	R1222M
2370.162	1.617	2376738	WORD	n/a	wordpools/wordpool_EN.txt	RICE	6	21	[0, 0, 0]	n/a	FR1	1	R1222M
2371.779	0.934	2378355	WORD_OFF	n/a	n/a	RICE	6	21	[0, 0, 0]	n/a	FR1	1	R1222M
2372.713	1.617	2379289	WORD	n/a	wordpools/wordpool_EN.txt	MOON	7	21	[0, 0, 0]	n/a	FR1	1	R1222M
2374.33	0.95	2380906	WORD_OFF	n/a	n/a	MOON	7	21	[0, 0, 0]	n/a	FR1	1	R1222M
2375.28	1.617	2381856	WORD	n/a	wordpools/wordpool_EN.txt	PLANT	8	21	[0, 0, 0]	n/a	FR1	1	R1222M
2376.897	0.967	2383473	WORD_OFF	n/a	n/a	PLANT	8	21	[0, 0, 0]	n/a	FR1	1	R1222M
2377.864	1.618	2384439	WORD	n/a	wordpools/wordpool_EN.txt	BEACH	9	21	[0, 0, 0]	n/a	FR1	1	R1222M
2379.482	0.916	2386057	WORD_OFF	n/a	n/a	BEACH	9	21	[0, 0, 0]	n/a	FR1	1	R1222M
2380.398	1.617	2386973	WORD	n/a	wordpools/wordpool_EN.txt	SEAL	10	21	[0, 0, 0]	n/a	FR1	1	R1222M
2382.015	0.933	2388590	WORD_OFF	n/a	n/a	SEAL	10	21	[0, 0, 0]	n/a	FR1	1	R1222M
2382.948	1.618	2389523	WORD	n/a	wordpools/wordpool_EN.txt	WHALE	11	21	[0, 0, 0]	n/a	FR1	1	R1222M
2384.566	0.933	2391141	WORD_OFF	n/a	n/a	WHALE	11	21	[0, 0, 0]	n/a	FR1	1	R1222M
2385.499	1.617	2392074	WORD	n/a	wordpools/wordpool_EN.txt	FOOD	12	21	[0, 0, 0]	n/a	FR1	1	R1222M
2387.116	0.0	2393691	WORD_OFF	n/a	n/a	FOOD	12	21	[0, 0, 0]	n/a	FR1	1	R1222M
2387.116	0.0	2393691	DISTRACT_START	n/a	n/a	n/a	-999	21	[0, 0, 0]	n/a	FR1	1	R1222M
2387.116	0.016	2393691	START	n/a	n/a	n/a	-999	22	[-999, -999, -999]	n/a	FR1	1	R1222M
2387.132	6.952	2393707	PROB	6.952	n/a	n/a	-999	22	[9, 2, 6]	17	FR1	1	R1222M
2394.084	7.018	2400659	PROB	7.018	n/a	n/a	-999	22	[6, 7, 1]	14	FR1	1	R1222M
2401.102	6.767	2407676	PROB	6.767	n/a	n/a	-999	22	[6, 5, 6]	17	FR1	1	R1222M
2407.869	0.017	2414443	STOP	n/a	n/a	n/a	-999	22	[-999, -999, -999]	n/a	FR1	1	R1222M
2407.886	0.534	2414460	DISTRACT_END	n/a	n/a	n/a	-999	21	[0, 0, 0]	n/a	FR1	1	R1222M
2408.42	0.518	2414994	RETRIEVAL_ORIENT	n/a	n/a	n/a	-999	21	[0, 0, 0]	n/a	FR1	1	R1222M
2408.938	1.154	2415512	REC_START	n/a	n/a	n/a	-999	21	[0, 0, 0]	n/a	FR1	1	R1222M
2410.092	6.377	2416666	REC_WORD	6.377	n/a	FOOD	-999	21	[0, 0, 0]	n/a	FR1	1	R1222M
2416.469	16.786	2423042	REC_WORD	16.786	n/a	LAND	-999	21	[0, 0, 0]	n/a	FR1	1	R1222M
2433.255	5.694	2439827	REC_WORD	5.694	n/a	RICE	-999	21	[0, 0, 0]	n/a	FR1	1	R1222M
2438.949	22.064	2445521	REC_END	n/a	n/a	n/a	-999	21	[0, 0, 0]	n/a	FR1	1	R1222M
2461.013	0.0	2467584	TRIAL	n/a	n/a	n/a	-999	22	[0, 0, 0]	n/a	FR1	1	R1222M
