onset	duration	sample	trial_type	response_time	stim_file	item_name	serialpos	list	test	answer	experiment	session	subject
0.0	161.845	2382	INSTRUCT_START	n/a	n/a	n/a	-999	-999	[0, 0, 0]	n/a	FR1	0	R1384J
161.845	32.404	164221	INSTRUCT_END	n/a	n/a	n/a	-999	-999	[0, 0, 0]	n/a	FR1	0	R1384J
194.249	0.592	196620	COUNTDOWN_START	n/a	n/a	n/a	-999	-999	[0, 0, 0]	n/a	FR1	0	R1384J
194.841	0.0	197213	COUNTDOWN_END	n/a	n/a	n/a	-999	-999	[0, 0, 0]	n/a	FR1	0	R1384J
194.841	1.925	197213	ENCODING_START	n/a	n/a	n/a	-999	-1	[0, 0, 0]	n/a	FR1	0	R1384J
196.766	1.616	199136	WORD	n/a	n/a	CAMEL	1	-1	[0, 0, 0]	n/a	FR1	0	R1384J
198.382	0.866	200752	WORD_OFF	n/a	n/a	CAMEL	1	-1	[0, 0, 0]	n/a	FR1	0	R1384J
199.248	1.6	201621	WORD	n/a	n/a	IMAGE	2	-1	[0, 0, 0]	n/a	FR1	0	R1384J
200.848	0.784	203216	WORD_OFF	n/a	n/a	IMAGE	2	-1	[0, 0, 0]	n/a	FR1	0	R1384J
201.632	1.616	204004	WORD	n/a	n/a	CHEST	3	-1	[0, 0, 0]	n/a	FR1	0	R1384J
203.248	0.984	205620	WORD_OFF	n/a	n/a	CHEST	3	-1	[0, 0, 0]	n/a	FR1	0	R1384J
204.232	1.616	206601	WORD	n/a	n/a	BABY	4	-1	[0, 0, 0]	n/a	FR1	0	R1384J
205.848	1.0	208217	WORD_OFF	n/a	n/a	BABY	4	-1	[0, 0, 0]	n/a	FR1	0	R1384J
206.848	1.6	209219	WORD	n/a	n/a	COTTON	5	-1	[0, 0, 0]	n/a	FR1	0	R1384J
208.448	0.933	210815	WORD_OFF	n/a	n/a	COTTON	5	-1	[0, 0, 0]	n/a	FR1	0	R1384J
209.381	1.6	211756	WORD	n/a	n/a	FLOOD	6	-1	[0, 0, 0]	n/a	FR1	0	R1384J
210.981	0.85	213351	WORD_OFF	n/a	n/a	FLOOD	6	-1	[0, 0, 0]	n/a	FR1	0	R1384J
211.831	1.6	214200	WORD	n/a	n/a	WAGON	7	-1	[0, 0, 0]	n/a	FR1	0	R1384J
213.431	0.85	215805	WORD_OFF	n/a	n/a	WAGON	7	-1	[0, 0, 0]	n/a	FR1	0	R1384J
214.281	1.617	216654	WORD	n/a	n/a	RING	8	-1	[0, 0, 0]	n/a	FR1	0	R1384J
215.898	0.816	218270	WORD_OFF	n/a	n/a	RING	8	-1	[0, 0, 0]	n/a	FR1	0	R1384J
216.714	1.601	219088	WORD	n/a	n/a	TONGUE	9	-1	[0, 0, 0]	n/a	FR1	0	R1384J
218.315	0.999	220684	WORD_OFF	n/a	n/a	TONGUE	9	-1	[0, 0, 0]	n/a	FR1	0	R1384J
219.314	1.601	221686	WORD	n/a	n/a	WATCH	10	-1	[0, 0, 0]	n/a	FR1	0	R1384J
220.915	0.866	223281	WORD_OFF	n/a	n/a	WATCH	10	-1	[0, 0, 0]	n/a	FR1	0	R1384J
221.781	1.616	224150	WORD	n/a	n/a	BEAM	11	-1	[0, 0, 0]	n/a	FR1	0	R1384J
223.397	0.934	225766	WORD_OFF	n/a	n/a	BEAM	11	-1	[0, 0, 0]	n/a	FR1	0	R1384J
224.331	1.616	226697	WORD	n/a	n/a	RHINO	12	-1	[0, 0, 0]	n/a	FR1	0	R1384J
225.947	0.001	228313	WORD_OFF	n/a	n/a	RHINO	12	-1	[0, 0, 0]	n/a	FR1	0	R1384J
225.948	0.001	228313	ENCODING_END	n/a	n/a	n/a	-999	-1	[0, 0, 0]	n/a	FR1	0	R1384J
225.949	0.0	228318	START	n/a	n/a	n/a	-999	-1	[-999, -999, -999]	n/a	FR1	0	R1384J
225.949	0.0	228318	PROB	0.0	n/a	n/a	-999	-1	[6, 4, 5]	15	FR1	0	R1384J
225.949	9.699	228323	DISTRACT_START	n/a	n/a	n/a	-999	-1	[0, 0, 0]	n/a	FR1	0	R1384J
235.648	5.967	238016	PROB	5.967	n/a	n/a	-999	-1	[1, 7, 1]	9	FR1	0	R1384J
241.615	5.95	243983	PROB	5.95	n/a	n/a	-999	-1	[7, 5, 5]	17	FR1	0	R1384J
247.565	0.0	249932	DISTRACT_END	n/a	n/a	n/a	-999	-1	[0, 0, 0]	n/a	FR1	0	R1384J
247.565	1.267	249933	STOP	n/a	n/a	n/a	-999	-1	[-999, -999, -999]	n/a	FR1	0	R1384J
248.832	2.337	251200	REC_START	n/a	n/a	n/a	-999	-1	[0, 0, 0]	n/a	FR1	0	R1384J
251.169	1.15	253537	REC_WORD	1.15	n/a	CAMEL	1	-1	[0, 0, 0]	n/a	FR1	0	R1384J
252.319	1.976	254686	REC_WORD	1.976	n/a	WAGON	7	-1	[0, 0, 0]	n/a	FR1	0	R1384J
254.295	5.407	256662	REC_WORD	5.407	n/a	TONGUE	9	-1	[0, 0, 0]	n/a	FR1	0	R1384J
259.702	19.414	262069	REC_WORD	19.414	n/a	FLOOD	6	-1	[0, 0, 0]	n/a	FR1	0	R1384J
279.116	31.549	281482	REC_END	n/a	n/a	n/a	-999	-1	[0, 0, 0]	n/a	FR1	0	R1384J
310.665	10.359	313032	COUNTDOWN_START	n/a	n/a	n/a	-999	1	[0, 0, 0]	n/a	FR1	0	R1384J
321.024	0.0	323391	COUNTDOWN_END	n/a	n/a	n/a	-999	1	[0, 0, 0]	n/a	FR1	0	R1384J
321.024	1.873	323391	ENCODING_START	n/a	n/a	n/a	-999	1	[0, 0, 0]	n/a	FR1	0	R1384J
322.897	1.6	325263	WORD	n/a	n/a	SLEEVE	1	1	[0, 0, 0]	n/a	FR1	0	R1384J
324.497	0.984	326858	WORD_OFF	n/a	n/a	SLEEVE	1	1	[0, 0, 0]	n/a	FR1	0	R1384J
325.481	1.6	327850	WORD	n/a	n/a	CLOWN	2	1	[0, 0, 0]	n/a	FR1	0	R1384J
327.081	0.85	329446	WORD_OFF	n/a	n/a	CLOWN	2	1	[0, 0, 0]	n/a	FR1	0	R1384J
327.931	1.6	330294	WORD	n/a	n/a	LANE	3	1	[0, 0, 0]	n/a	FR1	0	R1384J
329.531	0.8	331900	WORD_OFF	n/a	n/a	LANE	3	1	[0, 0, 0]	n/a	FR1	0	R1384J
330.331	1.618	332698	WORD	n/a	n/a	RICE	4	1	[0, 0, 0]	n/a	FR1	0	R1384J
331.949	0.932	334314	WORD_OFF	n/a	n/a	RICE	4	1	[0, 0, 0]	n/a	FR1	0	R1384J
332.881	1.601	335244	WORD	n/a	n/a	PAINT	5	1	[0, 0, 0]	n/a	FR1	0	R1384J
334.482	0.866	336850	WORD_OFF	n/a	n/a	PAINT	5	1	[0, 0, 0]	n/a	FR1	0	R1384J
335.348	1.617	337709	WORD	n/a	n/a	CUBE	6	1	[0, 0, 0]	n/a	FR1	0	R1384J
336.965	0.984	339325	WORD_OFF	n/a	n/a	CUBE	6	1	[0, 0, 0]	n/a	FR1	0	R1384J
337.949	1.615	340317	WORD	n/a	n/a	DOCK	7	1	[0, 0, 0]	n/a	FR1	0	R1384J
339.564	0.901	341932	WORD_OFF	n/a	n/a	DOCK	7	1	[0, 0, 0]	n/a	FR1	0	R1384J
340.465	1.6	342832	WORD	n/a	n/a	SUIT	8	1	[0, 0, 0]	n/a	FR1	0	R1384J
342.065	0.833	344428	WORD_OFF	n/a	n/a	SUIT	8	1	[0, 0, 0]	n/a	FR1	0	R1384J
342.898	1.617	345266	WORD	n/a	n/a	PILL	9	1	[0, 0, 0]	n/a	FR1	0	R1384J
344.515	0.966	346882	WORD_OFF	n/a	n/a	PILL	9	1	[0, 0, 0]	n/a	FR1	0	R1384J
345.481	1.601	347844	WORD	n/a	n/a	COURT	10	1	[0, 0, 0]	n/a	FR1	0	R1384J
347.082	0.832	349449	WORD_OFF	n/a	n/a	COURT	10	1	[0, 0, 0]	n/a	FR1	0	R1384J
347.914	1.601	350278	WORD	n/a	n/a	GUN	11	1	[0, 0, 0]	n/a	FR1	0	R1384J
349.515	0.849	351883	WORD_OFF	n/a	n/a	GUN	11	1	[0, 0, 0]	n/a	FR1	0	R1384J
350.364	1.601	352732	WORD	n/a	n/a	APE	12	1	[0, 0, 0]	n/a	FR1	0	R1384J
351.965	0.001	354327	WORD_OFF	n/a	n/a	APE	12	1	[0, 0, 0]	n/a	FR1	0	R1384J
351.966	0.001	354327	ENCODING_END	n/a	n/a	n/a	-999	1	[0, 0, 0]	n/a	FR1	0	R1384J
351.967	0.0	354327	DISTRACT_START	n/a	n/a	n/a	-999	1	[0, 0, 0]	n/a	FR1	0	R1384J
351.966	0.001	354329	PROB	0.001	n/a	n/a	-999	1	[7, 7, 2]	16	FR1	0	R1384J
351.967	7.815	354330	START	n/a	n/a	n/a	-999	1	[-999, -999, -999]	n/a	FR1	0	R1384J
359.782	5.482	362145	PROB	5.482	n/a	n/a	-999	1	[8, 3, 1]	12	FR1	0	R1384J
365.264	7.734	367627	PROB	7.734	n/a	n/a	-999	1	[4, 6, 6]	16	FR1	0	R1384J
372.998	0.0	375361	STOP	n/a	n/a	n/a	-999	1	[-999, -999, -999]	n/a	FR1	0	R1384J
372.998	1.25	375364	DISTRACT_END	n/a	n/a	n/a	-999	1	[0, 0, 0]	n/a	FR1	0	R1384J
374.248	3.795	376612	REC_START	n/a	n/a	n/a	-999	1	[0, 0, 0]	n/a	FR1	0	R1384J
378.043	3.088	380405	REC_WORD	3.088	n/a	SLEEVE	1	1	[0, 0, 0]	n/a	FR1	0	R1384J
381.131	1.358	383493	REC_WORD	1.358	n/a	GUN	11	1	[0, 0, 0]	n/a	FR1	0	R1384J
382.489	22.012	384851	REC_WORD	22.012	n/a	APE	12	1	[0, 0, 0]	n/a	FR1	0	R1384J
404.501	3.814	406862	REC_END	n/a	n/a	n/a	-999	1	[0, 0, 0]	n/a	FR1	0	R1384J
408.315	10.36	410677	COUNTDOWN_START	n/a	n/a	n/a	-999	2	[0, 0, 0]	n/a	FR1	0	R1384J
418.675	0.0	421037	COUNTDOWN_END	n/a	n/a	n/a	-999	2	[0, 0, 0]	n/a	FR1	0	R1384J
418.675	2.14	421037	ENCODING_START	n/a	n/a	n/a	-999	2	[0, 0, 0]	n/a	FR1	0	R1384J
420.815	1.6	423174	WORD	n/a	n/a	BARN	1	2	[0, 0, 0]	n/a	FR1	0	R1384J
422.415	0.883	424780	WORD_OFF	n/a	n/a	BARN	1	2	[0, 0, 0]	n/a	FR1	0	R1384J
423.298	1.617	425659	WORD	n/a	n/a	BOOT	2	2	[0, 0, 0]	n/a	FR1	0	R1384J
424.915	0.983	427275	WORD_OFF	n/a	n/a	BOOT	2	2	[0, 0, 0]	n/a	FR1	0	R1384J
425.898	1.6	428257	WORD	n/a	n/a	HEEL	3	2	[0, 0, 0]	n/a	FR1	0	R1384J
427.498	0.9	429862	WORD_OFF	n/a	n/a	HEEL	3	2	[0, 0, 0]	n/a	FR1	0	R1384J
428.398	1.6	430762	WORD	n/a	n/a	JUDGE	4	2	[0, 0, 0]	n/a	FR1	0	R1384J
429.998	0.984	432358	WORD_OFF	n/a	n/a	JUDGE	4	2	[0, 0, 0]	n/a	FR1	0	R1384J
430.982	1.6	433340	WORD	n/a	n/a	FOOD	5	2	[0, 0, 0]	n/a	FR1	0	R1384J
432.582	0.8	434945	WORD_OFF	n/a	n/a	FOOD	5	2	[0, 0, 0]	n/a	FR1	0	R1384J
433.382	1.616	435743	WORD	n/a	n/a	BUSH	6	2	[0, 0, 0]	n/a	FR1	0	R1384J
434.998	0.883	437359	WORD_OFF	n/a	n/a	BUSH	6	2	[0, 0, 0]	n/a	FR1	0	R1384J
435.881	1.6	438238	WORD	n/a	n/a	FOX	7	2	[0, 0, 0]	n/a	FR1	0	R1384J
437.481	0.901	439844	WORD_OFF	n/a	n/a	FOX	7	2	[0, 0, 0]	n/a	FR1	0	R1384J
438.382	1.599	440744	WORD	n/a	n/a	PIN	8	2	[0, 0, 0]	n/a	FR1	0	R1384J
439.981	0.817	442339	WORD_OFF	n/a	n/a	PIN	8	2	[0, 0, 0]	n/a	FR1	0	R1384J
440.798	1.6	443157	WORD	n/a	n/a	EARTH	9	2	[0, 0, 0]	n/a	FR1	0	R1384J
442.398	0.768	444763	WORD_OFF	n/a	n/a	EARTH	9	2	[0, 0, 0]	n/a	FR1	0	R1384J
443.166	1.615	445530	WORD	n/a	n/a	GLASS	10	2	[0, 0, 0]	n/a	FR1	0	R1384J
444.781	1.0	447136	WORD_OFF	n/a	n/a	GLASS	10	2	[0, 0, 0]	n/a	FR1	0	R1384J
445.781	1.6	448138	WORD	n/a	n/a	BRANCH	11	2	[0, 0, 0]	n/a	FR1	0	R1384J
447.381	0.967	449743	WORD_OFF	n/a	n/a	BRANCH	11	2	[0, 0, 0]	n/a	FR1	0	R1384J
448.348	1.6	450705	WORD	n/a	n/a	NIGHT	12	2	[0, 0, 0]	n/a	FR1	0	R1384J
449.948	0.0	452307	PROB	0.0	n/a	n/a	-999	2	[7, 4, 5]	16	FR1	0	R1384J
449.948	0.003	452310	WORD_OFF	n/a	n/a	NIGHT	12	2	[0, 0, 0]	n/a	FR1	0	R1384J
449.951	0.0	452310	ENCODING_END	n/a	n/a	n/a	-999	2	[0, 0, 0]	n/a	FR1	0	R1384J
449.951	0.0	452310	DISTRACT_START	n/a	n/a	n/a	-999	2	[0, 0, 0]	n/a	FR1	0	R1384J
449.951	11.997	452310	START	n/a	n/a	n/a	-999	2	[-999, -999, -999]	n/a	FR1	0	R1384J
461.948	5.634	464307	PROB	5.634	n/a	n/a	-999	2	[6, 8, 2]	16	FR1	0	R1384J
467.582	4.183	469941	PROB	4.183	n/a	n/a	-999	2	[1, 5, 1]	7	FR1	0	R1384J
471.765	0.0	474124	DISTRACT_END	n/a	n/a	n/a	-999	2	[0, 0, 0]	n/a	FR1	0	R1384J
471.765	1.183	474124	STOP	n/a	n/a	n/a	-999	2	[-999, -999, -999]	n/a	FR1	0	R1384J
472.948	1.531	475310	REC_START	n/a	n/a	n/a	-999	2	[0, 0, 0]	n/a	FR1	0	R1384J
474.479	1.109	476837	REC_WORD	1.109	n/a	BARN	1	2	[0, 0, 0]	n/a	FR1	0	R1384J
475.588	1.157	477946	REC_WORD	1.157	n/a	BOOT	2	2	[0, 0, 0]	n/a	FR1	0	R1384J
476.745	26.435	479103	REC_WORD	26.435	n/a	BRANCH	11	2	[0, 0, 0]	n/a	FR1	0	R1384J
503.18	2.669	505541	REC_END	n/a	n/a	n/a	-999	2	[0, 0, 0]	n/a	FR1	0	R1384J
505.849	10.359	508210	COUNTDOWN_START	n/a	n/a	n/a	-999	3	[0, 0, 0]	n/a	FR1	0	R1384J
516.208	0.0	518570	COUNTDOWN_END	n/a	n/a	n/a	-999	3	[0, 0, 0]	n/a	FR1	0	R1384J
516.208	2.257	518570	ENCODING_START	n/a	n/a	n/a	-999	3	[0, 0, 0]	n/a	FR1	0	R1384J
518.465	1.617	520820	WORD	n/a	n/a	CHIN	1	3	[0, 0, 0]	n/a	FR1	0	R1384J
520.082	0.983	522435	WORD_OFF	n/a	n/a	CHIN	1	3	[0, 0, 0]	n/a	FR1	0	R1384J
521.065	1.6	523417	WORD	n/a	n/a	SHEET	2	3	[0, 0, 0]	n/a	FR1	0	R1384J
522.665	0.783	525023	WORD_OFF	n/a	n/a	SHEET	2	3	[0, 0, 0]	n/a	FR1	0	R1384J
523.448	1.617	525810	WORD	n/a	n/a	CASH	3	3	[0, 0, 0]	n/a	FR1	0	R1384J
525.065	0.766	527426	WORD_OFF	n/a	n/a	CASH	3	3	[0, 0, 0]	n/a	FR1	0	R1384J
525.831	1.601	528193	WORD	n/a	n/a	MEAL	4	3	[0, 0, 0]	n/a	FR1	0	R1384J
527.432	0.983	529799	WORD_OFF	n/a	n/a	MEAL	4	3	[0, 0, 0]	n/a	FR1	0	R1384J
528.415	1.616	530770	WORD	n/a	n/a	AISLE	5	3	[0, 0, 0]	n/a	FR1	0	R1384J
530.031	0.851	532386	WORD_OFF	n/a	n/a	AISLE	5	3	[0, 0, 0]	n/a	FR1	0	R1384J
530.882	1.6	533235	WORD	n/a	n/a	SEA	6	3	[0, 0, 0]	n/a	FR1	0	R1384J
532.482	0.883	534841	WORD_OFF	n/a	n/a	SEA	6	3	[0, 0, 0]	n/a	FR1	0	R1384J
533.365	1.6	535720	WORD	n/a	n/a	SHED	7	3	[0, 0, 0]	n/a	FR1	0	R1384J
534.965	0.95	537326	WORD_OFF	n/a	n/a	SHED	7	3	[0, 0, 0]	n/a	FR1	0	R1384J
535.915	1.6	538267	WORD	n/a	n/a	SOCK	8	3	[0, 0, 0]	n/a	FR1	0	R1384J
537.515	0.966	539872	WORD_OFF	n/a	n/a	SOCK	8	3	[0, 0, 0]	n/a	FR1	0	R1384J
538.481	1.601	540833	WORD	n/a	n/a	LAMP	9	3	[0, 0, 0]	n/a	FR1	0	R1384J
540.082	0.983	542439	WORD_OFF	n/a	n/a	LAMP	9	3	[0, 0, 0]	n/a	FR1	0	R1384J
541.065	1.6	543421	WORD	n/a	n/a	FLAME	10	3	[0, 0, 0]	n/a	FR1	0	R1384J
542.665	0.966	545026	WORD_OFF	n/a	n/a	FLAME	10	3	[0, 0, 0]	n/a	FR1	0	R1384J
543.631	1.6	545988	WORD	n/a	n/a	PORK	11	3	[0, 0, 0]	n/a	FR1	0	R1384J
545.231	0.8	547583	WORD_OFF	n/a	n/a	PORK	11	3	[0, 0, 0]	n/a	FR1	0	R1384J
546.031	1.601	548391	WORD	n/a	n/a	PEARL	12	3	[0, 0, 0]	n/a	FR1	0	R1384J
547.632	0.001	549986	WORD_OFF	n/a	n/a	PEARL	12	3	[0, 0, 0]	n/a	FR1	0	R1384J
547.633	0.0	549986	ENCODING_END	n/a	n/a	n/a	-999	3	[0, 0, 0]	n/a	FR1	0	R1384J
547.633	0.0	549986	DISTRACT_START	n/a	n/a	n/a	-999	3	[0, 0, 0]	n/a	FR1	0	R1384J
547.632	0.001	549987	PROB	0.001	n/a	n/a	-999	3	[3, 2, 2]	7	FR1	0	R1384J
547.633	7.648	549988	START	n/a	n/a	n/a	-999	3	[-999, -999, -999]	n/a	FR1	0	R1384J
555.281	5.284	557636	PROB	5.284	n/a	n/a	-999	3	[1, 1, 7]	9	FR1	0	R1384J
560.565	8.9	562920	PROB	8.9	n/a	n/a	-999	3	[2, 3, 6]	11	FR1	0	R1384J
569.465	0.0	571820	STOP	n/a	n/a	n/a	-999	3	[-999, -999, -999]	n/a	FR1	0	R1384J
569.465	1.049	571821	DISTRACT_END	n/a	n/a	n/a	-999	3	[0, 0, 0]	n/a	FR1	0	R1384J
570.514	1.492	572864	REC_START	n/a	n/a	n/a	-999	3	[0, 0, 0]	n/a	FR1	0	R1384J
572.006	1.202	574360	REC_WORD	1.202	n/a	SOCK	8	3	[0, 0, 0]	n/a	FR1	0	R1384J
573.208	1.43	575562	REC_WORD	1.43	n/a	LAMP	9	3	[0, 0, 0]	n/a	FR1	0	R1384J
574.638	26.105	576992	REC_WORD	26.105	n/a	FLAME	10	3	[0, 0, 0]	n/a	FR1	0	R1384J
600.743	3.005	603094	REC_END	n/a	n/a	n/a	-999	3	[0, 0, 0]	n/a	FR1	0	R1384J
603.748	10.358	606101	COUNTDOWN_START	n/a	n/a	n/a	-999	4	[0, 0, 0]	n/a	FR1	0	R1384J
614.106	0.001	616461	COUNTDOWN_END	n/a	n/a	n/a	-999	4	[0, 0, 0]	n/a	FR1	0	R1384J
614.107	2.157	616461	ENCODING_START	n/a	n/a	n/a	-999	4	[0, 0, 0]	n/a	FR1	0	R1384J
616.264	1.6	618618	WORD	n/a	n/a	MOLE	1	4	[0, 0, 0]	n/a	FR1	0	R1384J
617.864	0.916	620214	WORD_OFF	n/a	n/a	MOLE	1	4	[0, 0, 0]	n/a	FR1	0	R1384J
618.78	1.601	621134	WORD	n/a	n/a	MOON	2	4	[0, 0, 0]	n/a	FR1	0	R1384J
620.381	0.916	622730	WORD_OFF	n/a	n/a	MOON	2	4	[0, 0, 0]	n/a	FR1	0	R1384J
621.297	1.618	623650	WORD	n/a	n/a	ROOT	3	4	[0, 0, 0]	n/a	FR1	0	R1384J
622.915	0.766	625266	WORD_OFF	n/a	n/a	ROOT	3	4	[0, 0, 0]	n/a	FR1	0	R1384J
623.681	1.601	626033	WORD	n/a	n/a	DEW	4	4	[0, 0, 0]	n/a	FR1	0	R1384J
625.282	0.882	627639	WORD_OFF	n/a	n/a	DEW	4	4	[0, 0, 0]	n/a	FR1	0	R1384J
626.164	1.601	628518	WORD	n/a	n/a	DOG	5	4	[0, 0, 0]	n/a	FR1	0	R1384J
627.765	0.782	630113	WORD_OFF	n/a	n/a	DOG	5	4	[0, 0, 0]	n/a	FR1	0	R1384J
628.547	1.601	630901	WORD	n/a	n/a	SAIL	6	4	[0, 0, 0]	n/a	FR1	0	R1384J
630.148	0.867	632496	WORD_OFF	n/a	n/a	SAIL	6	4	[0, 0, 0]	n/a	FR1	0	R1384J
631.015	1.6	633366	WORD	n/a	n/a	PRINCE	7	4	[0, 0, 0]	n/a	FR1	0	R1384J
632.615	0.85	634971	WORD_OFF	n/a	n/a	PRINCE	7	4	[0, 0, 0]	n/a	FR1	0	R1384J
633.465	1.617	635820	WORD	n/a	n/a	MAIL	8	4	[0, 0, 0]	n/a	FR1	0	R1384J
635.082	0.899	637436	WORD_OFF	n/a	n/a	MAIL	8	4	[0, 0, 0]	n/a	FR1	0	R1384J
635.981	1.601	638336	WORD	n/a	n/a	RAMP	9	4	[0, 0, 0]	n/a	FR1	0	R1384J
637.582	0.799	639931	WORD_OFF	n/a	n/a	RAMP	9	4	[0, 0, 0]	n/a	FR1	0	R1384J
638.381	1.601	640729	WORD	n/a	n/a	PIPE	10	4	[0, 0, 0]	n/a	FR1	0	R1384J
639.982	0.783	642334	WORD_OFF	n/a	n/a	PIPE	10	4	[0, 0, 0]	n/a	FR1	0	R1384J
640.765	1.616	643112	WORD	n/a	n/a	PAN	11	4	[0, 0, 0]	n/a	FR1	0	R1384J
642.381	0.984	644738	WORD_OFF	n/a	n/a	PAN	11	4	[0, 0, 0]	n/a	FR1	0	R1384J
643.365	1.617	645720	WORD	n/a	n/a	CAPE	12	4	[0, 0, 0]	n/a	FR1	0	R1384J
644.982	0.0	647334	START	n/a	n/a	n/a	-999	4	[-999, -999, -999]	n/a	FR1	0	R1384J
644.982	0.0	647334	PROB	0.0	n/a	n/a	-999	4	[2, 7, 3]	12	FR1	0	R1384J
644.981	0.001	647335	WORD_OFF	n/a	n/a	CAPE	12	4	[0, 0, 0]	n/a	FR1	0	R1384J
644.982	0.0	647335	ENCODING_END	n/a	n/a	n/a	-999	4	[0, 0, 0]	n/a	FR1	0	R1384J
644.982	7.783	647335	DISTRACT_START	n/a	n/a	n/a	-999	4	[0, 0, 0]	n/a	FR1	0	R1384J
652.765	4.617	655116	PROB	4.617	n/a	n/a	-999	4	[5, 5, 6]	16	FR1	0	R1384J
657.382	9.032	659733	PROB	9.032	n/a	n/a	-999	4	[8, 5, 6]	19	FR1	0	R1384J
666.414	0.0	668760	DISTRACT_END	n/a	n/a	n/a	-999	4	[0, 0, 0]	n/a	FR1	0	R1384J
666.414	1.101	668765	STOP	n/a	n/a	n/a	-999	4	[-999, -999, -999]	n/a	FR1	0	R1384J
667.515	1.463	669865	REC_START	n/a	n/a	n/a	-999	4	[0, 0, 0]	n/a	FR1	0	R1384J
668.978	0.98	671329	REC_WORD	0.98	n/a	MOON	2	4	[0, 0, 0]	n/a	FR1	0	R1384J
669.958	1.969	672309	REC_WORD	1.969	n/a	MAIL	8	4	[0, 0, 0]	n/a	FR1	0	R1384J
671.927	25.842	674277	REC_WORD	25.842	n/a	MOLE	1	4	[0, 0, 0]	n/a	FR1	0	R1384J
697.769	4.863	700116	REC_END	n/a	n/a	n/a	-999	4	[0, 0, 0]	n/a	FR1	0	R1384J
702.632	10.36	704984	COUNTDOWN_START	n/a	n/a	n/a	-999	5	[0, 0, 0]	n/a	FR1	0	R1384J
712.992	0.0	715344	COUNTDOWN_END	n/a	n/a	n/a	-999	5	[0, 0, 0]	n/a	FR1	0	R1384J
712.992	1.89	715344	ENCODING_START	n/a	n/a	n/a	-999	5	[0, 0, 0]	n/a	FR1	0	R1384J
714.882	1.6	717236	WORD	n/a	n/a	TRAY	1	5	[0, 0, 0]	n/a	FR1	0	R1384J
716.482	0.9	718831	WORD_OFF	n/a	n/a	TRAY	1	5	[0, 0, 0]	n/a	FR1	0	R1384J
717.382	1.616	719731	WORD	n/a	n/a	CRANE	2	5	[0, 0, 0]	n/a	FR1	0	R1384J
718.998	0.984	721347	WORD_OFF	n/a	n/a	CRANE	2	5	[0, 0, 0]	n/a	FR1	0	R1384J
719.982	1.6	722328	WORD	n/a	n/a	TROUT	3	5	[0, 0, 0]	n/a	FR1	0	R1384J
721.582	0.815	723934	WORD_OFF	n/a	n/a	TROUT	3	5	[0, 0, 0]	n/a	FR1	0	R1384J
722.397	1.601	724742	WORD	n/a	n/a	LOCK	4	5	[0, 0, 0]	n/a	FR1	0	R1384J
723.998	0.934	726348	WORD_OFF	n/a	n/a	LOCK	4	5	[0, 0, 0]	n/a	FR1	0	R1384J
724.932	1.616	727278	WORD	n/a	n/a	TOOTH	5	5	[0, 0, 0]	n/a	FR1	0	R1384J
726.548	0.883	728894	WORD_OFF	n/a	n/a	TOOTH	5	5	[0, 0, 0]	n/a	FR1	0	R1384J
727.431	1.601	729784	WORD	n/a	n/a	VEST	6	5	[0, 0, 0]	n/a	FR1	0	R1384J
729.032	0.915	731379	WORD_OFF	n/a	n/a	VEST	6	5	[0, 0, 0]	n/a	FR1	0	R1384J
729.947	1.601	732300	WORD	n/a	n/a	DART	7	5	[0, 0, 0]	n/a	FR1	0	R1384J
731.548	0.934	733895	WORD_OFF	n/a	n/a	DART	7	5	[0, 0, 0]	n/a	FR1	0	R1384J
732.482	1.6	734836	WORD	n/a	n/a	POLE	8	5	[0, 0, 0]	n/a	FR1	0	R1384J
734.082	0.816	736431	WORD_OFF	n/a	n/a	POLE	8	5	[0, 0, 0]	n/a	FR1	0	R1384J
734.898	1.617	737249	WORD	n/a	n/a	CAVE	9	5	[0, 0, 0]	n/a	FR1	0	R1384J
736.515	0.932	738865	WORD_OFF	n/a	n/a	CAVE	9	5	[0, 0, 0]	n/a	FR1	0	R1384J
737.447	1.6	739796	WORD	n/a	n/a	SHIP	10	5	[0, 0, 0]	n/a	FR1	0	R1384J
739.047	0.917	741391	WORD_OFF	n/a	n/a	SHIP	10	5	[0, 0, 0]	n/a	FR1	0	R1384J
739.964	1.601	742312	WORD	n/a	n/a	SOUP	11	5	[0, 0, 0]	n/a	FR1	0	R1384J
741.565	0.849	743917	WORD_OFF	n/a	n/a	SOUP	11	5	[0, 0, 0]	n/a	FR1	0	R1384J
742.414	1.601	744766	WORD	n/a	n/a	PHONE	12	5	[0, 0, 0]	n/a	FR1	0	R1384J
744.015	0.001	746361	WORD_OFF	n/a	n/a	PHONE	12	5	[0, 0, 0]	n/a	FR1	0	R1384J
744.016	0.0	746361	ENCODING_END	n/a	n/a	n/a	-999	5	[0, 0, 0]	n/a	FR1	0	R1384J
744.016	0.0	746361	DISTRACT_START	n/a	n/a	n/a	-999	5	[0, 0, 0]	n/a	FR1	0	R1384J
744.015	0.001	746363	PROB	0.001	n/a	n/a	-999	5	[8, 6, 7]	22	FR1	0	R1384J
744.016	14.131	746364	START	n/a	n/a	n/a	-999	5	[-999, -999, -999]	n/a	FR1	0	R1384J
758.147	15.351	760494	PROB	15.351	n/a	n/a	-999	5	[6, 3, 1]	10	FR1	0	R1384J
773.498	0.0	775844	STOP	n/a	n/a	n/a	-999	5	[-999, -999, -999]	n/a	FR1	0	R1384J
773.498	1.367	775845	DISTRACT_END	n/a	n/a	n/a	-999	5	[0, 0, 0]	n/a	FR1	0	R1384J
774.865	3.416	777213	REC_START	n/a	n/a	n/a	-999	5	[0, 0, 0]	n/a	FR1	0	R1384J
778.281	0.871	780627	REC_WORD	0.871	n/a	CRANE	2	5	[0, 0, 0]	n/a	FR1	0	R1384J
779.152	10.303	781498	REC_WORD	10.303	n/a	TROUT	3	5	[0, 0, 0]	n/a	FR1	0	R1384J
789.455	15.657	791801	REC_WORD	15.657	n/a	TRAIN	-999	5	[0, 0, 0]	n/a	FR1	0	R1384J
805.112	3.069	807456	REC_END	n/a	n/a	n/a	-999	5	[0, 0, 0]	n/a	FR1	0	R1384J
808.181	10.36	810524	COUNTDOWN_START	n/a	n/a	n/a	-999	6	[0, 0, 0]	n/a	FR1	0	R1384J
818.541	0.0	820884	COUNTDOWN_END	n/a	n/a	n/a	-999	6	[0, 0, 0]	n/a	FR1	0	R1384J
818.541	2.356	820884	ENCODING_START	n/a	n/a	n/a	-999	6	[0, 0, 0]	n/a	FR1	0	R1384J
820.897	1.601	823246	WORD	n/a	n/a	STAIR	1	6	[0, 0, 0]	n/a	FR1	0	R1384J
822.498	0.866	824842	WORD_OFF	n/a	n/a	STAIR	1	6	[0, 0, 0]	n/a	FR1	0	R1384J
823.364	1.601	825711	WORD	n/a	n/a	PARK	2	6	[0, 0, 0]	n/a	FR1	0	R1384J
824.965	0.949	827307	WORD_OFF	n/a	n/a	PARK	2	6	[0, 0, 0]	n/a	FR1	0	R1384J
825.914	1.618	828268	WORD	n/a	n/a	PET	3	6	[0, 0, 0]	n/a	FR1	0	R1384J
827.532	0.966	829873	WORD_OFF	n/a	n/a	PET	3	6	[0, 0, 0]	n/a	FR1	0	R1384J
828.498	1.6	830845	WORD	n/a	n/a	HEART	4	6	[0, 0, 0]	n/a	FR1	0	R1384J
830.098	0.817	832440	WORD_OFF	n/a	n/a	HEART	4	6	[0, 0, 0]	n/a	FR1	0	R1384J
830.915	1.617	833259	WORD	n/a	n/a	NET	5	6	[0, 0, 0]	n/a	FR1	0	R1384J
832.532	0.816	834874	WORD_OFF	n/a	n/a	NET	5	6	[0, 0, 0]	n/a	FR1	0	R1384J
833.348	1.6	835692	WORD	n/a	n/a	WING	6	6	[0, 0, 0]	n/a	FR1	0	R1384J
834.948	0.85	837288	WORD_OFF	n/a	n/a	WING	6	6	[0, 0, 0]	n/a	FR1	0	R1384J
835.798	1.617	838147	WORD	n/a	n/a	THROAT	7	6	[0, 0, 0]	n/a	FR1	0	R1384J
837.415	0.966	839763	WORD_OFF	n/a	n/a	THROAT	7	6	[0, 0, 0]	n/a	FR1	0	R1384J
838.381	1.601	840724	WORD	n/a	n/a	MAZE	8	6	[0, 0, 0]	n/a	FR1	0	R1384J
839.982	0.866	842330	WORD_OFF	n/a	n/a	MAZE	8	6	[0, 0, 0]	n/a	FR1	0	R1384J
840.848	1.6	843189	WORD	n/a	n/a	BLADE	9	6	[0, 0, 0]	n/a	FR1	0	R1384J
842.448	0.869	844794	WORD_OFF	n/a	n/a	BLADE	9	6	[0, 0, 0]	n/a	FR1	0	R1384J
843.317	1.614	845664	WORD	n/a	n/a	BIN	10	6	[0, 0, 0]	n/a	FR1	0	R1384J
844.931	1.001	847279	WORD_OFF	n/a	n/a	BIN	10	6	[0, 0, 0]	n/a	FR1	0	R1384J
845.932	1.615	848271	WORD	n/a	n/a	TOAD	11	6	[0, 0, 0]	n/a	FR1	0	R1384J
847.547	0.818	849887	WORD_OFF	n/a	n/a	TOAD	11	6	[0, 0, 0]	n/a	FR1	0	R1384J
848.365	1.601	850705	WORD	n/a	n/a	BROOM	12	6	[0, 0, 0]	n/a	FR1	0	R1384J
849.966	0.0	852309	START	n/a	n/a	n/a	-999	6	[-999, -999, -999]	n/a	FR1	0	R1384J
849.966	0.0	852309	PROB	0.0	n/a	n/a	-999	6	[3, 4, 5]	12	FR1	0	R1384J
849.965	0.001	852311	WORD_OFF	n/a	n/a	BROOM	12	6	[0, 0, 0]	n/a	FR1	0	R1384J
849.966	0.0	852311	ENCODING_END	n/a	n/a	n/a	-999	6	[0, 0, 0]	n/a	FR1	0	R1384J
849.966	17.833	852311	DISTRACT_START	n/a	n/a	n/a	-999	6	[0, 0, 0]	n/a	FR1	0	R1384J
867.799	9.332	870141	PROB	9.332	n/a	n/a	-999	6	[5, 4, 3]	12	FR1	0	R1384J
877.131	0.0	879473	DISTRACT_END	n/a	n/a	n/a	-999	6	[0, 0, 0]	n/a	FR1	0	R1384J
877.131	1.25	879473	STOP	n/a	n/a	n/a	-999	6	[-999, -999, -999]	n/a	FR1	0	R1384J
878.381	8.818	880721	REC_START	n/a	n/a	n/a	-999	6	[0, 0, 0]	n/a	FR1	0	R1384J
887.199	6.353	889541	REC_WORD	6.353	n/a	TOAD	11	6	[0, 0, 0]	n/a	FR1	0	R1384J
893.552	5.997	895893	REC_WORD	5.997	n/a	STAIR	1	6	[0, 0, 0]	n/a	FR1	0	R1384J
899.549	4.674	901890	REC_WORD	4.674	n/a	BIN	10	6	[0, 0, 0]	n/a	FR1	0	R1384J
904.223	4.42	906564	REC_WORD	4.42	n/a	BROOM	12	6	[0, 0, 0]	n/a	FR1	0	R1384J
908.643	3.388	910982	REC_END	n/a	n/a	n/a	-999	6	[0, 0, 0]	n/a	FR1	0	R1384J
912.031	10.362	914377	COUNTDOWN_START	n/a	n/a	n/a	-999	7	[0, 0, 0]	n/a	FR1	0	R1384J
922.393	0.0	924737	COUNTDOWN_END	n/a	n/a	n/a	-999	7	[0, 0, 0]	n/a	FR1	0	R1384J
922.393	2.072	924737	ENCODING_START	n/a	n/a	n/a	-999	7	[0, 0, 0]	n/a	FR1	0	R1384J
924.465	1.6	926803	WORD	n/a	n/a	GOLD	1	7	[0, 0, 0]	n/a	FR1	0	R1384J
926.065	0.849	928409	WORD_OFF	n/a	n/a	GOLD	1	7	[0, 0, 0]	n/a	FR1	0	R1384J
926.914	1.6	929257	WORD	n/a	n/a	BRIDGE	2	7	[0, 0, 0]	n/a	FR1	0	R1384J
928.514	0.801	930853	WORD_OFF	n/a	n/a	BRIDGE	2	7	[0, 0, 0]	n/a	FR1	0	R1384J
929.315	1.6	931661	WORD	n/a	n/a	SMILE	3	7	[0, 0, 0]	n/a	FR1	0	R1384J
930.915	0.917	933256	WORD_OFF	n/a	n/a	SMILE	3	7	[0, 0, 0]	n/a	FR1	0	R1384J
931.832	1.6	934177	WORD	n/a	n/a	HOG	4	7	[0, 0, 0]	n/a	FR1	0	R1384J
933.432	0.916	935772	WORD_OFF	n/a	n/a	HOG	4	7	[0, 0, 0]	n/a	FR1	0	R1384J
934.348	1.617	936692	WORD	n/a	n/a	HAY	5	7	[0, 0, 0]	n/a	FR1	0	R1384J
935.965	0.783	938308	WORD_OFF	n/a	n/a	HAY	5	7	[0, 0, 0]	n/a	FR1	0	R1384J
936.748	1.6	939085	WORD	n/a	n/a	OAR	6	7	[0, 0, 0]	n/a	FR1	0	R1384J
938.348	0.867	940691	WORD_OFF	n/a	n/a	OAR	6	7	[0, 0, 0]	n/a	FR1	0	R1384J
939.215	1.616	941560	WORD	n/a	n/a	POT	7	7	[0, 0, 0]	n/a	FR1	0	R1384J
940.831	0.85	943166	WORD_OFF	n/a	n/a	POT	7	7	[0, 0, 0]	n/a	FR1	0	R1384J
941.681	1.601	944025	WORD	n/a	n/a	INK	8	7	[0, 0, 0]	n/a	FR1	0	R1384J
943.282	0.849	945620	WORD_OFF	n/a	n/a	INK	8	7	[0, 0, 0]	n/a	FR1	0	R1384J
944.131	1.601	946469	WORD	n/a	n/a	SLUSH	9	7	[0, 0, 0]	n/a	FR1	0	R1384J
945.732	0.983	948075	WORD_OFF	n/a	n/a	SLUSH	9	7	[0, 0, 0]	n/a	FR1	0	R1384J
946.715	1.618	949057	WORD	n/a	n/a	STRAW	10	7	[0, 0, 0]	n/a	FR1	0	R1384J
948.333	0.882	950672	WORD_OFF	n/a	n/a	STRAW	10	7	[0, 0, 0]	n/a	FR1	0	R1384J
949.215	1.616	951552	WORD	n/a	n/a	CLAY	11	7	[0, 0, 0]	n/a	FR1	0	R1384J
950.831	1.0	953168	WORD_OFF	n/a	n/a	CLAY	11	7	[0, 0, 0]	n/a	FR1	0	R1384J
951.831	1.601	954170	WORD	n/a	n/a	HOUSE	12	7	[0, 0, 0]	n/a	FR1	0	R1384J
953.432	0.0	955771	START	n/a	n/a	n/a	-999	7	[-999, -999, -999]	n/a	FR1	0	R1384J
953.432	0.0	955771	PROB	0.0	n/a	n/a	-999	7	[2, 7, 8]	17	FR1	0	R1384J
953.431	0.001	955776	WORD_OFF	n/a	n/a	HOUSE	12	7	[0, 0, 0]	n/a	FR1	0	R1384J
953.432	0.0	955776	ENCODING_END	n/a	n/a	n/a	-999	7	[0, 0, 0]	n/a	FR1	0	R1384J
953.432	8.949	955776	DISTRACT_START	n/a	n/a	n/a	-999	7	[0, 0, 0]	n/a	FR1	0	R1384J
962.381	7.4	964720	PROB	7.4	n/a	n/a	-999	7	[2, 3, 7]	13	FR1	0	R1384J
969.781	18.15	972119	PROB	18.15	n/a	n/a	-999	7	[7, 4, 3]	14	FR1	0	R1384J
987.931	0.0	990269	STOP	n/a	n/a	n/a	-999	7	[-999, -999, -999]	n/a	FR1	0	R1384J
987.931	1.333	990271	DISTRACT_END	n/a	n/a	n/a	-999	7	[0, 0, 0]	n/a	FR1	0	R1384J
989.264	3.724	991600	REC_START	n/a	n/a	n/a	-999	7	[0, 0, 0]	n/a	FR1	0	R1384J
992.988	5.925	995325	REC_WORD	5.925	n/a	GOLD	1	7	[0, 0, 0]	n/a	FR1	0	R1384J
998.913	15.761	1001250	REC_WORD	15.761	n/a	HOUSE	12	7	[0, 0, 0]	n/a	FR1	0	R1384J
1014.674	4.836	1017011	REC_WORD	4.836	n/a	OAR	6	7	[0, 0, 0]	n/a	FR1	0	R1384J
1019.51	2.888	1021851	REC_END	n/a	n/a	n/a	-999	7	[0, 0, 0]	n/a	FR1	0	R1384J
1022.398	10.363	1024735	COUNTDOWN_START	n/a	n/a	n/a	-999	8	[0, 0, 0]	n/a	FR1	0	R1384J
1032.761	0.001	1035095	COUNTDOWN_END	n/a	n/a	n/a	-999	8	[0, 0, 0]	n/a	FR1	0	R1384J
1032.762	1.852	1035095	ENCODING_START	n/a	n/a	n/a	-999	8	[0, 0, 0]	n/a	FR1	0	R1384J
1034.614	1.601	1036946	WORD	n/a	n/a	HILL	1	8	[0, 0, 0]	n/a	FR1	0	R1384J
1036.215	0.999	1038551	WORD_OFF	n/a	n/a	HILL	1	8	[0, 0, 0]	n/a	FR1	0	R1384J
1037.214	1.601	1039553	WORD	n/a	n/a	WAX	2	8	[0, 0, 0]	n/a	FR1	0	R1384J
1038.815	0.983	1041149	WORD_OFF	n/a	n/a	WAX	2	8	[0, 0, 0]	n/a	FR1	0	R1384J
1039.798	1.6	1042131	WORD	n/a	n/a	RUG	3	8	[0, 0, 0]	n/a	FR1	0	R1384J
1041.398	0.95	1043736	WORD_OFF	n/a	n/a	RUG	3	8	[0, 0, 0]	n/a	FR1	0	R1384J
1042.348	1.616	1044687	WORD	n/a	n/a	MUD	4	8	[0, 0, 0]	n/a	FR1	0	R1384J
1043.964	0.851	1046303	WORD_OFF	n/a	n/a	MUD	4	8	[0, 0, 0]	n/a	FR1	0	R1384J
1044.815	1.6	1047152	WORD	n/a	n/a	MEAT	5	8	[0, 0, 0]	n/a	FR1	0	R1384J
1046.415	0.883	1048747	WORD_OFF	n/a	n/a	MEAT	5	8	[0, 0, 0]	n/a	FR1	0	R1384J
1047.298	1.6	1049637	WORD	n/a	n/a	SHORE	6	8	[0, 0, 0]	n/a	FR1	0	R1384J
1048.898	0.8	1051232	WORD_OFF	n/a	n/a	SHORE	6	8	[0, 0, 0]	n/a	FR1	0	R1384J
1049.698	1.6	1052030	WORD	n/a	n/a	PURSE	7	8	[0, 0, 0]	n/a	FR1	0	R1384J
1051.298	0.8	1053636	WORD_OFF	n/a	n/a	PURSE	7	8	[0, 0, 0]	n/a	FR1	0	R1384J
1052.098	1.6	1054433	WORD	n/a	n/a	FROG	8	8	[0, 0, 0]	n/a	FR1	0	R1384J
1053.698	0.982	1056029	WORD_OFF	n/a	n/a	FROG	8	8	[0, 0, 0]	n/a	FR1	0	R1384J
1054.68	1.602	1057021	WORD	n/a	n/a	ELF	9	8	[0, 0, 0]	n/a	FR1	0	R1384J
1056.282	0.915	1058616	WORD_OFF	n/a	n/a	ELF	9	8	[0, 0, 0]	n/a	FR1	0	R1384J
1057.197	1.601	1059537	WORD	n/a	n/a	BRUSH	10	8	[0, 0, 0]	n/a	FR1	0	R1384J
1058.798	0.8	1061132	WORD_OFF	n/a	n/a	BRUSH	10	8	[0, 0, 0]	n/a	FR1	0	R1384J
1059.598	1.616	1061930	WORD	n/a	n/a	BONE	11	8	[0, 0, 0]	n/a	FR1	0	R1384J
1061.214	0.983	1063546	WORD_OFF	n/a	n/a	BONE	11	8	[0, 0, 0]	n/a	FR1	0	R1384J
1062.197	1.601	1064527	WORD	n/a	n/a	SACK	12	8	[0, 0, 0]	n/a	FR1	0	R1384J
1063.798	0.001	1066133	WORD_OFF	n/a	n/a	SACK	12	8	[0, 0, 0]	n/a	FR1	0	R1384J
1063.799	0.0	1066133	ENCODING_END	n/a	n/a	n/a	-999	8	[0, 0, 0]	n/a	FR1	0	R1384J
1063.799	0.0	1066133	DISTRACT_START	n/a	n/a	n/a	-999	8	[0, 0, 0]	n/a	FR1	0	R1384J
1063.799	0.0	1066134	START	n/a	n/a	n/a	-999	8	[-999, -999, -999]	n/a	FR1	0	R1384J
1063.799	6.782	1066134	PROB	6.782	n/a	n/a	-999	8	[2, 8, 5]	15	FR1	0	R1384J
1070.581	5.768	1072915	PROB	5.768	n/a	n/a	-999	8	[4, 6, 7]	17	FR1	0	R1384J
1076.349	7.266	1078683	PROB	7.266	n/a	n/a	-999	8	[7, 4, 4]	15	FR1	0	R1384J
1083.615	6.666	1085949	PROB	6.666	n/a	n/a	-999	8	[3, 6, 4]	13	FR1	0	R1384J
1090.281	0.0	1092610	DISTRACT_END	n/a	n/a	n/a	-999	8	[0, 0, 0]	n/a	FR1	0	R1384J
1090.281	1.133	1092614	STOP	n/a	n/a	n/a	-999	8	[-999, -999, -999]	n/a	FR1	0	R1384J
1091.414	29.999	1093745	REC_START	n/a	n/a	n/a	-999	8	[0, 0, 0]	n/a	FR1	0	R1384J
1121.413	0.225	1123745	REC_WORD_VV	0.225	n/a	<>	-999	8	[0, 0, 0]	n/a	FR1	0	R1384J
1121.638	3.376	1123965	REC_END	n/a	n/a	n/a	-999	8	[0, 0, 0]	n/a	FR1	0	R1384J
1125.014	10.365	1127351	COUNTDOWN_START	n/a	n/a	n/a	-999	9	[0, 0, 0]	n/a	FR1	0	R1384J
1135.379	0.001	1137710	COUNTDOWN_END	n/a	n/a	n/a	-999	9	[0, 0, 0]	n/a	FR1	0	R1384J
1135.38	1.801	1137710	ENCODING_START	n/a	n/a	n/a	-999	9	[0, 0, 0]	n/a	FR1	0	R1384J
1137.181	1.617	1139510	WORD	n/a	n/a	SPRING	1	9	[0, 0, 0]	n/a	FR1	0	R1384J
1138.798	0.766	1141126	WORD_OFF	n/a	n/a	SPRING	1	9	[0, 0, 0]	n/a	FR1	0	R1384J
1139.564	1.601	1141893	WORD	n/a	n/a	BLOOD	2	9	[0, 0, 0]	n/a	FR1	0	R1384J
1141.165	0.767	1143499	WORD_OFF	n/a	n/a	BLOOD	2	9	[0, 0, 0]	n/a	FR1	0	R1384J
1141.932	1.616	1144266	WORD	n/a	n/a	HAIR	3	9	[0, 0, 0]	n/a	FR1	0	R1384J
1143.548	0.95	1145881	WORD_OFF	n/a	n/a	HAIR	3	9	[0, 0, 0]	n/a	FR1	0	R1384J
1144.498	1.617	1146833	WORD	n/a	n/a	SEED	4	9	[0, 0, 0]	n/a	FR1	0	R1384J
1146.115	0.934	1148448	WORD_OFF	n/a	n/a	SEED	4	9	[0, 0, 0]	n/a	FR1	0	R1384J
1147.049	1.599	1149379	WORD	n/a	n/a	STORE	5	9	[0, 0, 0]	n/a	FR1	0	R1384J
1148.648	0.984	1150974	WORD_OFF	n/a	n/a	STORE	5	9	[0, 0, 0]	n/a	FR1	0	R1384J
1149.632	1.6	1151966	WORD	n/a	n/a	SHARK	6	9	[0, 0, 0]	n/a	FR1	0	R1384J
1151.232	0.8	1153562	WORD_OFF	n/a	n/a	SHARK	6	9	[0, 0, 0]	n/a	FR1	0	R1384J
1152.032	1.6	1154359	WORD	n/a	n/a	HOLE	7	9	[0, 0, 0]	n/a	FR1	0	R1384J
1153.632	0.8	1155965	WORD_OFF	n/a	n/a	HOLE	7	9	[0, 0, 0]	n/a	FR1	0	R1384J
1154.432	1.616	1156763	WORD	n/a	n/a	SKUNK	8	9	[0, 0, 0]	n/a	FR1	0	R1384J
1156.048	0.933	1158379	WORD_OFF	n/a	n/a	SKUNK	8	9	[0, 0, 0]	n/a	FR1	0	R1384J
1156.981	1.601	1159309	WORD	n/a	n/a	ASH	9	9	[0, 0, 0]	n/a	FR1	0	R1384J
1158.582	0.899	1160915	WORD_OFF	n/a	n/a	ASH	9	9	[0, 0, 0]	n/a	FR1	0	R1384J
1159.481	1.617	1161815	WORD	n/a	n/a	TOY	10	9	[0, 0, 0]	n/a	FR1	0	R1384J
1161.098	0.917	1163431	WORD_OFF	n/a	n/a	TOY	10	9	[0, 0, 0]	n/a	FR1	0	R1384J
1162.015	1.617	1164351	WORD	n/a	n/a	BOLT	11	9	[0, 0, 0]	n/a	FR1	0	R1384J
1163.632	0.85	1165967	WORD_OFF	n/a	n/a	BOLT	11	9	[0, 0, 0]	n/a	FR1	0	R1384J
1164.482	1.599	1166816	WORD	n/a	n/a	FENCE	12	9	[0, 0, 0]	n/a	FR1	0	R1384J
1166.081	0.004	1168411	WORD_OFF	n/a	n/a	FENCE	12	9	[0, 0, 0]	n/a	FR1	0	R1384J
1166.085	0.0	1168411	ENCODING_END	n/a	n/a	n/a	-999	9	[0, 0, 0]	n/a	FR1	0	R1384J
1166.083	0.002	1168413	PROB	0.002	n/a	n/a	-999	9	[4, 4, 4]	12	FR1	0	R1384J
1166.085	0.0	1168415	START	n/a	n/a	n/a	-999	9	[-999, -999, -999]	n/a	FR1	0	R1384J
1166.085	6.864	1168421	DISTRACT_START	n/a	n/a	n/a	-999	9	[0, 0, 0]	n/a	FR1	0	R1384J
1172.949	4.166	1175279	PROB	4.166	n/a	n/a	-999	9	[6, 6, 6]	18	FR1	0	R1384J
1177.115	5.4	1179445	PROB	5.4	n/a	n/a	-999	9	[1, 4, 2]	7	FR1	0	R1384J
1182.515	4.866	1184845	PROB	4.866	n/a	n/a	-999	9	[3, 1, 8]	12	FR1	0	R1384J
1187.381	0.0	1189710	STOP	n/a	n/a	n/a	-999	9	[-999, -999, -999]	n/a	FR1	0	R1384J
1187.381	1.283	1189714	DISTRACT_END	n/a	n/a	n/a	-999	9	[0, 0, 0]	n/a	FR1	0	R1384J
1188.664	1.276	1190992	REC_START	n/a	n/a	n/a	-999	9	[0, 0, 0]	n/a	FR1	0	R1384J
1189.94	2.371	1192269	REC_WORD	2.371	n/a	SKUNK	8	9	[0, 0, 0]	n/a	FR1	0	R1384J
1192.311	1.826	1194640	REC_WORD	1.826	n/a	ASH	9	9	[0, 0, 0]	n/a	FR1	0	R1384J
1194.137	3.811	1196466	REC_WORD	3.811	n/a	HOLE	7	9	[0, 0, 0]	n/a	FR1	0	R1384J
1197.948	20.95	1200277	REC_WORD_VV	20.95	n/a	<>	-999	9	[0, 0, 0]	n/a	FR1	0	R1384J
1218.898	3.618	1221232	REC_END	n/a	n/a	n/a	-999	9	[0, 0, 0]	n/a	FR1	0	R1384J
1222.516	10.36	1224843	COUNTDOWN_START	n/a	n/a	n/a	-999	10	[0, 0, 0]	n/a	FR1	0	R1384J
1232.876	0.0	1235202	COUNTDOWN_END	n/a	n/a	n/a	-999	10	[0, 0, 0]	n/a	FR1	0	R1384J
1232.876	1.972	1235202	ENCODING_START	n/a	n/a	n/a	-999	10	[0, 0, 0]	n/a	FR1	0	R1384J
1234.848	1.617	1237176	WORD	n/a	n/a	TOOL	1	10	[0, 0, 0]	n/a	FR1	0	R1384J
1236.465	0.883	1238792	WORD_OFF	n/a	n/a	TOOL	1	10	[0, 0, 0]	n/a	FR1	0	R1384J
1237.348	1.6	1239671	WORD	n/a	n/a	GATE	2	10	[0, 0, 0]	n/a	FR1	0	R1384J
1238.948	1.0	1241277	WORD_OFF	n/a	n/a	GATE	2	10	[0, 0, 0]	n/a	FR1	0	R1384J
1239.948	1.617	1242279	WORD	n/a	n/a	STEW	3	10	[0, 0, 0]	n/a	FR1	0	R1384J
1241.565	0.766	1243895	WORD_OFF	n/a	n/a	STEW	3	10	[0, 0, 0]	n/a	FR1	0	R1384J
1242.331	1.6	1244662	WORD	n/a	n/a	CONE	4	10	[0, 0, 0]	n/a	FR1	0	R1384J
1243.931	0.917	1246257	WORD_OFF	n/a	n/a	CONE	4	10	[0, 0, 0]	n/a	FR1	0	R1384J
1244.848	1.617	1247178	WORD	n/a	n/a	LAND	5	10	[0, 0, 0]	n/a	FR1	0	R1384J
1246.465	0.783	1248794	WORD_OFF	n/a	n/a	LAND	5	10	[0, 0, 0]	n/a	FR1	0	R1384J
1247.248	1.6	1249571	WORD	n/a	n/a	BOY	6	10	[0, 0, 0]	n/a	FR1	0	R1384J
1248.848	0.867	1251177	WORD_OFF	n/a	n/a	BOY	6	10	[0, 0, 0]	n/a	FR1	0	R1384J
1249.715	1.6	1252046	WORD	n/a	n/a	HOSE	7	10	[0, 0, 0]	n/a	FR1	0	R1384J
1251.315	1.0	1253641	WORD_OFF	n/a	n/a	HOSE	7	10	[0, 0, 0]	n/a	FR1	0	R1384J
1252.315	1.616	1254643	WORD	n/a	n/a	RAKE	8	10	[0, 0, 0]	n/a	FR1	0	R1384J
1253.931	0.916	1256259	WORD_OFF	n/a	n/a	RAKE	8	10	[0, 0, 0]	n/a	FR1	0	R1384J
1254.847	1.601	1257169	WORD	n/a	n/a	MOOSE	9	10	[0, 0, 0]	n/a	FR1	0	R1384J
1256.448	0.917	1258775	WORD_OFF	n/a	n/a	MOOSE	9	10	[0, 0, 0]	n/a	FR1	0	R1384J
1257.365	1.616	1259696	WORD	n/a	n/a	SKI	10	10	[0, 0, 0]	n/a	FR1	0	R1384J
1258.981	0.799	1261311	WORD_OFF	n/a	n/a	SKI	10	10	[0, 0, 0]	n/a	FR1	0	R1384J
1259.78	1.601	1262109	WORD	n/a	n/a	PIT	11	10	[0, 0, 0]	n/a	FR1	0	R1384J
1261.381	0.967	1263704	WORD_OFF	n/a	n/a	PIT	11	10	[0, 0, 0]	n/a	FR1	0	R1384J
1262.348	1.6	1264676	WORD	n/a	n/a	WOLF	12	10	[0, 0, 0]	n/a	FR1	0	R1384J
1263.948	0.001	1266271	WORD_OFF	n/a	n/a	WOLF	12	10	[0, 0, 0]	n/a	FR1	0	R1384J
1263.949	0.0	1266275	START	n/a	n/a	n/a	-999	10	[-999, -999, -999]	n/a	FR1	0	R1384J
1263.949	0.0	1266275	PROB	0.0	n/a	n/a	-999	10	[2, 2, 8]	12	FR1	0	R1384J
1263.949	0.0	1266282	ENCODING_END	n/a	n/a	n/a	-999	10	[0, 0, 0]	n/a	FR1	0	R1384J
1263.949	7.233	1266282	DISTRACT_START	n/a	n/a	n/a	-999	10	[0, 0, 0]	n/a	FR1	0	R1384J
1271.182	7.6	1273508	PROB	7.6	n/a	n/a	-999	10	[7, 5, 6]	16	FR1	0	R1384J
1278.782	7.482	1281108	PROB	7.482	n/a	n/a	-999	10	[5, 4, 7]	16	FR1	0	R1384J
1286.264	0.0	1288586	DISTRACT_END	n/a	n/a	n/a	-999	10	[0, 0, 0]	n/a	FR1	0	R1384J
1286.264	1.217	1288589	STOP	n/a	n/a	n/a	-999	10	[-999, -999, -999]	n/a	FR1	0	R1384J
1287.481	1.418	1289803	REC_START	n/a	n/a	n/a	-999	10	[0, 0, 0]	n/a	FR1	0	R1384J
1288.899	1.006	1291224	REC_WORD	1.006	n/a	MOOSE	9	10	[0, 0, 0]	n/a	FR1	0	R1384J
1289.905	1.275	1292230	REC_WORD	1.275	n/a	WOLF	12	10	[0, 0, 0]	n/a	FR1	0	R1384J
1291.18	5.913	1293505	REC_WORD	5.913	n/a	SKI	10	10	[0, 0, 0]	n/a	FR1	0	R1384J
1297.093	3.087	1299418	REC_WORD	3.087	n/a	TOOL	1	10	[0, 0, 0]	n/a	FR1	0	R1384J
1300.18	17.556	1302505	REC_WORD	17.556	n/a	CONE	4	10	[0, 0, 0]	n/a	FR1	0	R1384J
1317.736	4.963	1320064	REC_END	n/a	n/a	n/a	-999	10	[0, 0, 0]	n/a	FR1	0	R1384J
1322.699	10.359	1325024	COUNTDOWN_START	n/a	n/a	n/a	-999	11	[0, 0, 0]	n/a	FR1	0	R1384J
1333.058	0.0	1335384	COUNTDOWN_END	n/a	n/a	n/a	-999	11	[0, 0, 0]	n/a	FR1	0	R1384J
1333.058	2.273	1335384	ENCODING_START	n/a	n/a	n/a	-999	11	[0, 0, 0]	n/a	FR1	0	R1384J
1335.331	1.601	1337654	WORD	n/a	n/a	BOX	1	11	[0, 0, 0]	n/a	FR1	0	R1384J
1336.932	0.95	1339260	WORD_OFF	n/a	n/a	BOX	1	11	[0, 0, 0]	n/a	FR1	0	R1384J
1337.882	1.616	1340201	WORD	n/a	n/a	BREAST	2	11	[0, 0, 0]	n/a	FR1	0	R1384J
1339.498	0.767	1341827	WORD_OFF	n/a	n/a	BREAST	2	11	[0, 0, 0]	n/a	FR1	0	R1384J
1340.265	1.6	1342594	WORD	n/a	n/a	STREET	3	11	[0, 0, 0]	n/a	FR1	0	R1384J
1341.865	0.901	1344189	WORD_OFF	n/a	n/a	STREET	3	11	[0, 0, 0]	n/a	FR1	0	R1384J
1342.766	1.615	1345089	WORD	n/a	n/a	COIN	4	11	[0, 0, 0]	n/a	FR1	0	R1384J
1344.381	0.817	1346705	WORD_OFF	n/a	n/a	COIN	4	11	[0, 0, 0]	n/a	FR1	0	R1384J
1345.198	1.616	1347523	WORD	n/a	n/a	STONE	5	11	[0, 0, 0]	n/a	FR1	0	R1384J
1346.814	0.901	1349139	WORD_OFF	n/a	n/a	STONE	5	11	[0, 0, 0]	n/a	FR1	0	R1384J
1347.715	1.6	1350039	WORD	n/a	n/a	BAT	6	11	[0, 0, 0]	n/a	FR1	0	R1384J
1349.315	0.9	1351634	WORD_OFF	n/a	n/a	BAT	6	11	[0, 0, 0]	n/a	FR1	0	R1384J
1350.215	1.617	1352534	WORD	n/a	n/a	BOMB	7	11	[0, 0, 0]	n/a	FR1	0	R1384J
1351.832	1.0	1354160	WORD_OFF	n/a	n/a	BOMB	7	11	[0, 0, 0]	n/a	FR1	0	R1384J
1352.832	1.615	1355152	WORD	n/a	n/a	ICE	8	11	[0, 0, 0]	n/a	FR1	0	R1384J
1354.447	0.901	1356768	WORD_OFF	n/a	n/a	ICE	8	11	[0, 0, 0]	n/a	FR1	0	R1384J
1355.348	1.6	1357668	WORD	n/a	n/a	STICK	9	11	[0, 0, 0]	n/a	FR1	0	R1384J
1356.948	0.783	1359274	WORD_OFF	n/a	n/a	STICK	9	11	[0, 0, 0]	n/a	FR1	0	R1384J
1357.731	1.6	1360051	WORD	n/a	n/a	BOWL	10	11	[0, 0, 0]	n/a	FR1	0	R1384J
1359.331	0.884	1361657	WORD_OFF	n/a	n/a	BOWL	10	11	[0, 0, 0]	n/a	FR1	0	R1384J
1360.215	1.6	1362536	WORD	n/a	n/a	SMOKE	11	11	[0, 0, 0]	n/a	FR1	0	R1384J
1361.815	0.85	1364142	WORD_OFF	n/a	n/a	SMOKE	11	11	[0, 0, 0]	n/a	FR1	0	R1384J
1362.665	1.6	1364991	WORD	n/a	n/a	MUG	12	11	[0, 0, 0]	n/a	FR1	0	R1384J
1364.265	0.001	1366586	WORD_OFF	n/a	n/a	MUG	12	11	[0, 0, 0]	n/a	FR1	0	R1384J
1364.266	0.0	1366586	ENCODING_END	n/a	n/a	n/a	-999	11	[0, 0, 0]	n/a	FR1	0	R1384J
1364.265	0.001	1366587	PROB	0.001	n/a	n/a	-999	11	[8, 1, 8]	17	FR1	0	R1384J
1364.266	0.0	1366588	START	n/a	n/a	n/a	-999	11	[-999, -999, -999]	n/a	FR1	0	R1384J
1364.266	6.316	1366596	DISTRACT_START	n/a	n/a	n/a	-999	11	[0, 0, 0]	n/a	FR1	0	R1384J
1370.582	4.166	1372904	PROB	4.166	n/a	n/a	-999	11	[1, 4, 1]	6	FR1	0	R1384J
1374.748	3.267	1377070	PROB	3.267	n/a	n/a	-999	11	[5, 2, 5]	12	FR1	0	R1384J
1378.015	11.949	1380337	PROB	11.949	n/a	n/a	-999	11	[8, 7, 5]	20	FR1	0	R1384J
1389.964	0.0	1392285	STOP	n/a	n/a	n/a	-999	11	[-999, -999, -999]	n/a	FR1	0	R1384J
1389.964	1.267	1392286	DISTRACT_END	n/a	n/a	n/a	-999	11	[0, 0, 0]	n/a	FR1	0	R1384J
1391.231	2.646	1393554	REC_START	n/a	n/a	n/a	-999	11	[0, 0, 0]	n/a	FR1	0	R1384J
1393.877	0.933	1396198	REC_WORD	0.933	n/a	BOMB	7	11	[0, 0, 0]	n/a	FR1	0	R1384J
1394.81	6.792	1397131	REC_WORD	6.792	n/a	BREAST	2	11	[0, 0, 0]	n/a	FR1	0	R1384J
1401.602	19.859	1403923	REC_WORD	19.859	n/a	BOWL	10	11	[0, 0, 0]	n/a	FR1	0	R1384J
1421.461	2.187	1423784	REC_END	n/a	n/a	n/a	-999	11	[0, 0, 0]	n/a	FR1	0	R1384J
1423.648	10.366	1425973	COUNTDOWN_START	n/a	n/a	n/a	-999	12	[0, 0, 0]	n/a	FR1	0	R1384J
1434.014	0.0	1436333	COUNTDOWN_END	n/a	n/a	n/a	-999	12	[0, 0, 0]	n/a	FR1	0	R1384J
1434.014	2.101	1436333	ENCODING_START	n/a	n/a	n/a	-999	12	[0, 0, 0]	n/a	FR1	0	R1384J
1436.115	1.6	1438439	WORD	n/a	n/a	SALT	1	12	[0, 0, 0]	n/a	FR1	0	R1384J
1437.715	0.784	1440035	WORD_OFF	n/a	n/a	SALT	1	12	[0, 0, 0]	n/a	FR1	0	R1384J
1438.499	1.6	1440822	WORD	n/a	n/a	FORT	2	12	[0, 0, 0]	n/a	FR1	0	R1384J
1440.099	0.983	1442418	WORD_OFF	n/a	n/a	FORT	2	12	[0, 0, 0]	n/a	FR1	0	R1384J
1441.082	1.616	1443399	WORD	n/a	n/a	BANK	3	12	[0, 0, 0]	n/a	FR1	0	R1384J
1442.698	0.917	1445015	WORD_OFF	n/a	n/a	BANK	3	12	[0, 0, 0]	n/a	FR1	0	R1384J
1443.615	1.6	1445936	WORD	n/a	n/a	FARM	4	12	[0, 0, 0]	n/a	FR1	0	R1384J
1445.215	0.934	1447531	WORD_OFF	n/a	n/a	FARM	4	12	[0, 0, 0]	n/a	FR1	0	R1384J
1446.149	1.616	1448472	WORD	n/a	n/a	THUMB	5	12	[0, 0, 0]	n/a	FR1	0	R1384J
1447.765	0.934	1450088	WORD_OFF	n/a	n/a	THUMB	5	12	[0, 0, 0]	n/a	FR1	0	R1384J
1448.699	1.6	1451018	WORD	n/a	n/a	SHIELD	6	12	[0, 0, 0]	n/a	FR1	0	R1384J
1450.299	0.916	1452614	WORD_OFF	n/a	n/a	SHIELD	6	12	[0, 0, 0]	n/a	FR1	0	R1384J
1451.215	1.6	1453534	WORD	n/a	n/a	CAGE	7	12	[0, 0, 0]	n/a	FR1	0	R1384J
1452.815	0.867	1455130	WORD_OFF	n/a	n/a	CAGE	7	12	[0, 0, 0]	n/a	FR1	0	R1384J
1453.682	1.6	1455999	WORD	n/a	n/a	WAVE	8	12	[0, 0, 0]	n/a	FR1	0	R1384J
1455.282	0.783	1457604	WORD_OFF	n/a	n/a	WAVE	8	12	[0, 0, 0]	n/a	FR1	0	R1384J
1456.065	1.6	1458382	WORD	n/a	n/a	RAT	9	12	[0, 0, 0]	n/a	FR1	0	R1384J
1457.665	0.767	1459987	WORD_OFF	n/a	n/a	RAT	9	12	[0, 0, 0]	n/a	FR1	0	R1384J
1458.432	1.6	1460754	WORD	n/a	n/a	FROST	10	12	[0, 0, 0]	n/a	FR1	0	R1384J
1460.032	0.866	1462350	WORD_OFF	n/a	n/a	FROST	10	12	[0, 0, 0]	n/a	FR1	0	R1384J
1460.898	1.601	1463219	WORD	n/a	n/a	CHIEF	11	12	[0, 0, 0]	n/a	FR1	0	R1384J
1462.499	0.766	1464814	WORD_OFF	n/a	n/a	CHIEF	11	12	[0, 0, 0]	n/a	FR1	0	R1384J
1463.265	1.601	1465581	WORD	n/a	n/a	CAT	12	12	[0, 0, 0]	n/a	FR1	0	R1384J
1464.866	0.001	1467184	PROB	0.001	n/a	n/a	-999	12	[8, 2, 4]	14	FR1	0	R1384J
1464.867	0.0	1467185	START	n/a	n/a	n/a	-999	12	[-999, -999, -999]	n/a	FR1	0	R1384J
1464.865	0.002	1467187	WORD_OFF	n/a	n/a	CAT	12	12	[0, 0, 0]	n/a	FR1	0	R1384J
1464.867	0.0	1467187	ENCODING_END	n/a	n/a	n/a	-999	12	[0, 0, 0]	n/a	FR1	0	R1384J
1464.867	9.948	1467187	DISTRACT_START	n/a	n/a	n/a	-999	12	[0, 0, 0]	n/a	FR1	0	R1384J
1474.815	6.101	1477133	PROB	6.101	n/a	n/a	-999	12	[6, 6, 1]	13	FR1	0	R1384J
1480.916	6.098	1483234	PROB	6.098	n/a	n/a	-999	12	[1, 5, 2]	7	FR1	0	R1384J
1487.014	0.0	1489328	DISTRACT_END	n/a	n/a	n/a	-999	12	[0, 0, 0]	n/a	FR1	0	R1384J
1487.014	1.101	1489331	STOP	n/a	n/a	n/a	-999	12	[-999, -999, -999]	n/a	FR1	0	R1384J
1488.115	1.065	1490432	REC_START	n/a	n/a	n/a	-999	12	[0, 0, 0]	n/a	FR1	0	R1384J
1489.18	1.129	1491497	REC_WORD	1.129	n/a	SALT	1	12	[0, 0, 0]	n/a	FR1	0	R1384J
1490.309	1.131	1492626	REC_WORD	1.131	n/a	RACK	-999	12	[0, 0, 0]	n/a	FR1	0	R1384J
1491.44	0.593	1493757	REC_WORD_VV	0.593	n/a	<>	-999	12	[0, 0, 0]	n/a	FR1	0	R1384J
1492.033	4.158	1494350	REC_WORD	4.158	n/a	RAT	9	12	[0, 0, 0]	n/a	FR1	0	R1384J
1496.191	22.177	1498508	REC_WORD	22.177	n/a	FORK	-999	12	[0, 0, 0]	n/a	FR1	0	R1384J
1518.368	0.0	1520683	REC_END	n/a	n/a	n/a	-999	12	[0, 0, 0]	n/a	FR1	0	R1384J
