onset	duration	sample	trial_type	response_time	stim_file	item_name	serialpos	list	test	answer	experiment	session	subject
0.0	95.34	193023	SESS_START	n/a	n/a	n/a	-999	-999	[0, 0, 0]	n/a	FR1	1	R1067P
95.34	10.428	240690	COUNTDOWN_START	n/a	n/a	n/a	-999	-999	[0, 0, 0]	n/a	FR1	1	R1067P
105.768	3.842	245904	COUNTDOWN_END	n/a	n/a	n/a	-999	-999	[0, 0, 0]	n/a	FR1	1	R1067P
109.61	2.5	247825	PRACTICE_WORD	n/a	n/a	CHEST	1	-1	[0, 0, 0]	n/a	FR1	1	R1067P
112.11	2.617	249075	PRACTICE_WORD	n/a	n/a	COTTON	2	-1	[0, 0, 0]	n/a	FR1	1	R1067P
114.727	2.45	250383	PRACTICE_WORD	n/a	n/a	BEAM	3	-1	[0, 0, 0]	n/a	FR1	1	R1067P
117.177	2.501	251608	PRACTICE_WORD	n/a	n/a	CAMEL	4	-1	[0, 0, 0]	n/a	FR1	1	R1067P
119.678	2.634	252859	PRACTICE_WORD	n/a	n/a	IRON	5	-1	[0, 0, 0]	n/a	FR1	1	R1067P
122.312	2.434	254175	PRACTICE_WORD	n/a	n/a	RING	6	-1	[0, 0, 0]	n/a	FR1	1	R1067P
124.746	2.6	255392	PRACTICE_WORD	n/a	n/a	WAGON	7	-1	[0, 0, 0]	n/a	FR1	1	R1067P
127.346	2.45	256692	PRACTICE_WORD	n/a	n/a	ATTIC	8	-1	[0, 0, 0]	n/a	FR1	1	R1067P
129.796	2.401	257917	PRACTICE_WORD	n/a	n/a	FLOOD	9	-1	[0, 0, 0]	n/a	FR1	1	R1067P
132.197	2.5	259118	PRACTICE_WORD	n/a	n/a	RHINO	10	-1	[0, 0, 0]	n/a	FR1	1	R1067P
134.697	2.601	260368	PRACTICE_WORD	n/a	n/a	WATCH	11	-1	[0, 0, 0]	n/a	FR1	1	R1067P
137.298	1.617	261668	PRACTICE_WORD	n/a	n/a	TONGUE	12	-1	[0, 0, 0]	n/a	FR1	1	R1067P
138.915	0.0	262477	PRACTICE_DISTRACT_START	n/a	n/a	n/a	-999	-1	[0, 0, 0]	n/a	FR1	1	R1067P
138.915	0.016	262477	START	n/a	n/a	n/a	-999	-1	[-999, -999, -999]	n/a	FR1	1	R1067P
138.931	3.985	262485	PROB	3.985	n/a	n/a	-999	-1	[2, 1, 8]	11	FR1	1	R1067P
142.916	11.152	264477	PROB	11.152	n/a	n/a	-999	-1	[5, 6, 9]	20	FR1	1	R1067P
154.068	4.602	270053	PROB	4.602	n/a	n/a	-999	-1	[2, 8, 1]	11	FR1	1	R1067P
158.67	6.561	272354	PROB	6.561	n/a	n/a	-999	-1	[8, 9, 6]	23	FR1	1	R1067P
165.231	0.005	275634	STOP	n/a	n/a	n/a	-999	-1	[-999, -999, -999]	n/a	FR1	1	R1067P
165.236	0.669	275636	PRACTICE_DISTRACT_END	n/a	n/a	n/a	-999	-1	[0, 0, 0]	n/a	FR1	1	R1067P
165.905	30.515	275971	PRACTICE_REC_START	n/a	n/a	n/a	-999	-1	[0, 0, 0]	n/a	FR1	1	R1067P
196.42	10.474	291228	PRACTICE_REC_END	n/a	n/a	n/a	-999	-1	[0, 0, 0]	n/a	FR1	1	R1067P
206.894	0.0	296464	TRIAL	n/a	n/a	n/a	-999	1	[0, 0, 0]	n/a	FR1	1	R1067P
206.894	10.428	296464	COUNTDOWN_START	n/a	n/a	n/a	-999	1	[0, 0, 0]	n/a	FR1	1	R1067P
217.322	0.007	301678	COUNTDOWN_END	n/a	n/a	n/a	-999	1	[0, 0, 0]	n/a	FR1	1	R1067P
217.329	2.484	301682	ORIENT	n/a	n/a	n/a	-999	1	[0, 0, 0]	n/a	FR1	1	R1067P
219.813	2.384	302923	WORD	n/a	wordpools/wordpool_EN.txt	FLAME	1	1	[0, 0, 0]	n/a	FR1	1	R1067P
222.197	2.551	304115	WORD	n/a	wordpools/wordpool_EN.txt	JET	2	1	[0, 0, 0]	n/a	FR1	1	R1067P
224.748	2.517	305391	WORD	n/a	wordpools/wordpool_EN.txt	FUR	3	1	[0, 0, 0]	n/a	FR1	1	R1067P
227.265	2.433	306649	WORD	n/a	wordpools/wordpool_EN.txt	SNOW	4	1	[0, 0, 0]	n/a	FR1	1	R1067P
229.698	2.501	307866	WORD	n/a	wordpools/wordpool_EN.txt	PLANE	5	1	[0, 0, 0]	n/a	FR1	1	R1067P
232.199	2.567	309116	WORD	n/a	wordpools/wordpool_EN.txt	CAPE	6	1	[0, 0, 0]	n/a	FR1	1	R1067P
234.766	2.551	310400	WORD	n/a	wordpools/wordpool_EN.txt	DUCK	7	1	[0, 0, 0]	n/a	FR1	1	R1067P
237.317	2.5	311675	WORD	n/a	wordpools/wordpool_EN.txt	SHARK	8	1	[0, 0, 0]	n/a	FR1	1	R1067P
239.817	2.467	312925	WORD	n/a	wordpools/wordpool_EN.txt	STORM	9	1	[0, 0, 0]	n/a	FR1	1	R1067P
242.284	2.467	314158	WORD	n/a	wordpools/wordpool_EN.txt	SPRING	10	1	[0, 0, 0]	n/a	FR1	1	R1067P
244.751	2.584	315392	WORD	n/a	wordpools/wordpool_EN.txt	HAWK	11	1	[0, 0, 0]	n/a	FR1	1	R1067P
247.335	1.617	316684	WORD	n/a	wordpools/wordpool_EN.txt	WOLF	12	1	[0, 0, 0]	n/a	FR1	1	R1067P
248.952	0.001	317492	DISTRACT_START	n/a	n/a	n/a	-999	1	[0, 0, 0]	n/a	FR1	1	R1067P
248.953	0.016	317493	START	n/a	n/a	n/a	-999	1	[-999, -999, -999]	n/a	FR1	1	R1067P
248.969	6.351	317501	PROB	6.351	n/a	n/a	-999	1	[7, 2, 9]	18	FR1	1	R1067P
255.32	3.05	320676	PROB	3.05	n/a	n/a	-999	1	[1, 4, 7]	12	FR1	1	R1067P
258.37	3.318	322201	PROB	3.318	n/a	n/a	-999	1	[9, 1, 4]	14	FR1	1	R1067P
261.688	4.968	323860	PROB	4.968	n/a	n/a	-999	1	[6, 1, 9]	15	FR1	1	R1067P
266.656	5.472	326344	PROB	5.472	n/a	n/a	-999	1	[4, 1, 9]	14	FR1	1	R1067P
272.128	0.012	329080	STOP	n/a	n/a	n/a	-999	1	[-999, -999, -999]	n/a	FR1	1	R1067P
272.14	1.101	329086	DISTRACT_END	n/a	n/a	n/a	-999	1	[0, 0, 0]	n/a	FR1	1	R1067P
273.241	0.504	329636	REC_START	n/a	n/a	n/a	-999	1	[0, 0, 0]	n/a	FR1	1	R1067P
273.745	1.526	329888	REC_WORD_VV	1.526	n/a	<>	-999	1	[0, 0, 0]	n/a	FR1	1	R1067P
275.271	0.205	330651	REC_WORD_VV	0.205	n/a	<>	-999	1	[0, 0, 0]	n/a	FR1	1	R1067P
275.476	2.101	330754	REC_WORD	2.101	n/a	FLAME	-999	1	[0, 0, 0]	n/a	FR1	1	R1067P
277.577	2.738	331804	REC_WORD	2.738	n/a	COTTON	-999	1	[0, 0, 0]	n/a	FR1	1	R1067P
280.315	15.667	333173	REC_WORD_VV	15.667	n/a	<>	-999	1	[0, 0, 0]	n/a	FR1	1	R1067P
295.982	1.417	341006	REC_WORD_VV	1.417	n/a	<>	-999	1	[0, 0, 0]	n/a	FR1	1	R1067P
297.399	1.305	341715	REC_WORD_VV	1.305	n/a	<>	-999	1	[0, 0, 0]	n/a	FR1	1	R1067P
298.704	0.491	342367	REC_WORD	0.491	n/a	FLAME	-999	1	[0, 0, 0]	n/a	FR1	1	R1067P
299.195	4.056	342612	REC_WORD	4.056	n/a	COTTON	-999	1	[0, 0, 0]	n/a	FR1	1	R1067P
303.251	5.012	344640	REC_END	n/a	n/a	n/a	-999	1	[0, 0, 0]	n/a	FR1	1	R1067P
308.263	0.0	347146	TRIAL	n/a	n/a	n/a	-999	2	[0, 0, 0]	n/a	FR1	1	R1067P
308.263	10.428	347146	COUNTDOWN_START	n/a	n/a	n/a	-999	2	[0, 0, 0]	n/a	FR1	1	R1067P
318.691	0.007	352360	COUNTDOWN_END	n/a	n/a	n/a	-999	2	[0, 0, 0]	n/a	FR1	1	R1067P
318.698	2.401	352364	ORIENT	n/a	n/a	n/a	-999	2	[0, 0, 0]	n/a	FR1	1	R1067P
321.099	2.568	353564	WORD	n/a	wordpools/wordpool_EN.txt	ROOM	1	2	[0, 0, 0]	n/a	FR1	1	R1067P
323.667	2.566	354848	WORD	n/a	wordpools/wordpool_EN.txt	FOOT	2	2	[0, 0, 0]	n/a	FR1	1	R1067P
326.233	2.551	356131	WORD	n/a	wordpools/wordpool_EN.txt	JEEP	3	2	[0, 0, 0]	n/a	FR1	1	R1067P
328.784	2.467	357406	WORD	n/a	wordpools/wordpool_EN.txt	HOSE	4	2	[0, 0, 0]	n/a	FR1	1	R1067P
331.251	2.5	358640	WORD	n/a	wordpools/wordpool_EN.txt	SPEAR	5	2	[0, 0, 0]	n/a	FR1	1	R1067P
333.751	2.467	359890	WORD	n/a	wordpools/wordpool_EN.txt	FACE	6	2	[0, 0, 0]	n/a	FR1	1	R1067P
336.218	2.568	361123	WORD	n/a	wordpools/wordpool_EN.txt	HILL	7	2	[0, 0, 0]	n/a	FR1	1	R1067P
338.786	2.467	362407	WORD	n/a	wordpools/wordpool_EN.txt	SEAT	8	2	[0, 0, 0]	n/a	FR1	1	R1067P
341.253	2.583	363640	WORD	n/a	wordpools/wordpool_EN.txt	PARK	9	2	[0, 0, 0]	n/a	FR1	1	R1067P
343.836	2.451	364932	WORD	n/a	wordpools/wordpool_EN.txt	OAK	10	2	[0, 0, 0]	n/a	FR1	1	R1067P
346.287	2.567	366157	WORD	n/a	wordpools/wordpool_EN.txt	TANK	11	2	[0, 0, 0]	n/a	FR1	1	R1067P
348.854	1.601	367441	WORD	n/a	wordpools/wordpool_EN.txt	PEA	12	2	[0, 0, 0]	n/a	FR1	1	R1067P
350.455	0.001	368241	DISTRACT_START	n/a	n/a	n/a	-999	2	[0, 0, 0]	n/a	FR1	1	R1067P
350.456	0.016	368242	START	n/a	n/a	n/a	-999	2	[-999, -999, -999]	n/a	FR1	1	R1067P
350.472	4.383	368250	PROB	4.383	n/a	n/a	-999	2	[1, 8, 9]	18	FR1	1	R1067P
354.855	3.317	370441	PROB	3.317	n/a	n/a	-999	2	[1, 3, 6]	10	FR1	1	R1067P
358.172	3.718	372100	PROB	3.718	n/a	n/a	-999	2	[8, 1, 2]	11	FR1	1	R1067P
361.89	3.668	373958	PROB	3.668	n/a	n/a	-999	2	[5, 6, 9]	20	FR1	1	R1067P
365.558	4.483	375792	PROB	4.483	n/a	n/a	-999	2	[3, 1, 2]	6	FR1	1	R1067P
370.041	3.702	378034	PROB	3.702	n/a	n/a	-999	2	[9, 1, 4]	14	FR1	1	R1067P
373.743	0.016	379885	STOP	n/a	n/a	n/a	-999	2	[-999, -999, -999]	n/a	FR1	1	R1067P
373.759	1.117	379893	DISTRACT_END	n/a	n/a	n/a	-999	2	[0, 0, 0]	n/a	FR1	1	R1067P
374.876	0.253	380451	REC_START	n/a	n/a	n/a	-999	2	[0, 0, 0]	n/a	FR1	1	R1067P
375.129	1.003	380578	REC_WORD_VV	1.003	n/a	<>	-999	2	[0, 0, 0]	n/a	FR1	1	R1067P
376.132	0.952	381079	REC_WORD_VV	0.952	n/a	<>	-999	2	[0, 0, 0]	n/a	FR1	1	R1067P
377.084	3.124	381555	REC_WORD_VV	3.124	n/a	<>	-999	2	[0, 0, 0]	n/a	FR1	1	R1067P
380.208	0.667	383117	REC_WORD_VV	0.667	n/a	<>	-999	2	[0, 0, 0]	n/a	FR1	1	R1067P
380.875	7.491	383450	REC_WORD	7.491	n/a	WOOD	-999	2	[0, 0, 0]	n/a	FR1	1	R1067P
388.366	13.718	387196	REC_WORD	13.718	n/a	FOOT	-999	2	[0, 0, 0]	n/a	FR1	1	R1067P
402.084	1.138	394054	REC_WORD_VV	1.138	n/a	<>	-999	2	[0, 0, 0]	n/a	FR1	1	R1067P
403.222	1.118	394623	REC_WORD_VV	1.118	n/a	<>	-999	2	[0, 0, 0]	n/a	FR1	1	R1067P
404.34	0.547	395182	REC_WORD_VV	0.547	n/a	<>	-999	2	[0, 0, 0]	n/a	FR1	1	R1067P
404.887	3.545	395456	REC_END	n/a	n/a	n/a	-999	2	[0, 0, 0]	n/a	FR1	1	R1067P
408.432	0.0	397228	TRIAL	n/a	n/a	n/a	-999	3	[0, 0, 0]	n/a	FR1	1	R1067P
408.432	10.428	397228	COUNTDOWN_START	n/a	n/a	n/a	-999	3	[0, 0, 0]	n/a	FR1	1	R1067P
418.86	0.007	402442	COUNTDOWN_END	n/a	n/a	n/a	-999	3	[0, 0, 0]	n/a	FR1	1	R1067P
418.867	2.517	402445	ORIENT	n/a	n/a	n/a	-999	3	[0, 0, 0]	n/a	FR1	1	R1067P
421.384	2.451	403704	WORD	n/a	wordpools/wordpool_EN.txt	BAT	1	3	[0, 0, 0]	n/a	FR1	1	R1067P
423.835	2.434	404929	WORD	n/a	wordpools/wordpool_EN.txt	FAN	2	3	[0, 0, 0]	n/a	FR1	1	R1067P
426.269	2.401	406146	WORD	n/a	wordpools/wordpool_EN.txt	STRING	3	3	[0, 0, 0]	n/a	FR1	1	R1067P
428.67	2.599	407347	WORD	n/a	wordpools/wordpool_EN.txt	SHOE	4	3	[0, 0, 0]	n/a	FR1	1	R1067P
431.269	2.385	408646	WORD	n/a	wordpools/wordpool_EN.txt	FOAM	5	3	[0, 0, 0]	n/a	FR1	1	R1067P
433.654	2.516	409839	WORD	n/a	wordpools/wordpool_EN.txt	MOUTH	6	3	[0, 0, 0]	n/a	FR1	1	R1067P
436.17	2.418	411097	WORD	n/a	wordpools/wordpool_EN.txt	GEESE	7	3	[0, 0, 0]	n/a	FR1	1	R1067P
438.588	2.467	412305	WORD	n/a	wordpools/wordpool_EN.txt	BEAK	8	3	[0, 0, 0]	n/a	FR1	1	R1067P
441.055	2.551	413539	WORD	n/a	wordpools/wordpool_EN.txt	EAR	9	3	[0, 0, 0]	n/a	FR1	1	R1067P
443.606	2.399	414814	WORD	n/a	wordpools/wordpool_EN.txt	WING	10	3	[0, 0, 0]	n/a	FR1	1	R1067P
446.005	2.585	416014	WORD	n/a	wordpools/wordpool_EN.txt	STRAW	11	3	[0, 0, 0]	n/a	FR1	1	R1067P
448.59	1.616	417306	WORD	n/a	wordpools/wordpool_EN.txt	WAVE	12	3	[0, 0, 0]	n/a	FR1	1	R1067P
450.206	0.001	418114	DISTRACT_START	n/a	n/a	n/a	-999	3	[0, 0, 0]	n/a	FR1	1	R1067P
450.207	0.016	418115	START	n/a	n/a	n/a	-999	3	[-999, -999, -999]	n/a	FR1	1	R1067P
450.223	4.517	418123	PROB	4.517	n/a	n/a	-999	3	[8, 2, 1]	11	FR1	1	R1067P
454.74	3.118	420381	PROB	3.118	n/a	n/a	-999	3	[2, 8, 1]	11	FR1	1	R1067P
457.858	6.351	421940	PROB	6.351	n/a	n/a	-999	3	[9, 7, 4]	20	FR1	1	R1067P
464.209	4.418	425115	PROB	4.418	n/a	n/a	-999	3	[4, 4, 8]	16	FR1	1	R1067P
468.627	4.524	427324	PROB	4.524	n/a	n/a	-999	3	[4, 8, 4]	16	FR1	1	R1067P
473.151	0.01	429586	STOP	n/a	n/a	n/a	-999	3	[-999, -999, -999]	n/a	FR1	1	R1067P
473.161	1.151	429591	DISTRACT_END	n/a	n/a	n/a	-999	3	[0, 0, 0]	n/a	FR1	1	R1067P
474.312	3.137	430167	REC_START	n/a	n/a	n/a	-999	3	[0, 0, 0]	n/a	FR1	1	R1067P
477.449	1.995	431735	REC_WORD	1.995	n/a	BAT	-999	3	[0, 0, 0]	n/a	FR1	1	R1067P
479.444	0.672	432732	REC_WORD_VV	0.672	n/a	<>	-999	3	[0, 0, 0]	n/a	FR1	1	R1067P
480.116	24.206	433068	REC_WORD	24.206	n/a	WOOD	-999	3	[0, 0, 0]	n/a	FR1	1	R1067P
504.322	3.378	445171	REC_END	n/a	n/a	n/a	-999	3	[0, 0, 0]	n/a	FR1	1	R1067P
507.7	0.001	446860	COUNTDOWN_START	n/a	n/a	n/a	-999	4	[0, 0, 0]	n/a	FR1	1	R1067P
507.701	10.427	446860	TRIAL	n/a	n/a	n/a	-999	4	[0, 0, 0]	n/a	FR1	1	R1067P
518.128	0.008	452073	COUNTDOWN_END	n/a	n/a	n/a	-999	4	[0, 0, 0]	n/a	FR1	1	R1067P
518.136	2.434	452077	ORIENT	n/a	n/a	n/a	-999	4	[0, 0, 0]	n/a	FR1	1	R1067P
520.57	2.383	453294	WORD	n/a	wordpools/wordpool_EN.txt	FOX	1	4	[0, 0, 0]	n/a	FR1	1	R1067P
522.953	2.434	454486	WORD	n/a	wordpools/wordpool_EN.txt	FARM	2	4	[0, 0, 0]	n/a	FR1	1	R1067P
525.387	2.484	455703	WORD	n/a	wordpools/wordpool_EN.txt	CROW	3	4	[0, 0, 0]	n/a	FR1	1	R1067P
527.871	2.55	456945	WORD	n/a	wordpools/wordpool_EN.txt	MUD	4	4	[0, 0, 0]	n/a	FR1	1	R1067P
530.421	2.4	458220	WORD	n/a	wordpools/wordpool_EN.txt	BAG	5	4	[0, 0, 0]	n/a	FR1	1	R1067P
532.821	2.451	459420	WORD	n/a	wordpools/wordpool_EN.txt	BRANCH	6	4	[0, 0, 0]	n/a	FR1	1	R1067P
535.272	2.551	460645	WORD	n/a	wordpools/wordpool_EN.txt	ELF	7	4	[0, 0, 0]	n/a	FR1	1	R1067P
537.823	2.383	461920	WORD	n/a	wordpools/wordpool_EN.txt	TOE	8	4	[0, 0, 0]	n/a	FR1	1	R1067P
540.206	2.584	463112	WORD	n/a	wordpools/wordpool_EN.txt	WEB	9	4	[0, 0, 0]	n/a	FR1	1	R1067P
542.79	2.501	464404	WORD	n/a	wordpools/wordpool_EN.txt	COW	10	4	[0, 0, 0]	n/a	FR1	1	R1067P
545.291	2.6	465654	WORD	n/a	wordpools/wordpool_EN.txt	CANE	11	4	[0, 0, 0]	n/a	FR1	1	R1067P
547.891	1.601	466954	WORD	n/a	wordpools/wordpool_EN.txt	VINE	12	4	[0, 0, 0]	n/a	FR1	1	R1067P
549.492	0.001	467755	DISTRACT_START	n/a	n/a	n/a	-999	4	[0, 0, 0]	n/a	FR1	1	R1067P
549.493	0.016	467755	START	n/a	n/a	n/a	-999	4	[-999, -999, -999]	n/a	FR1	1	R1067P
549.509	5.4	467763	PROB	5.4	n/a	n/a	-999	4	[5, 4, 9]	18	FR1	1	R1067P
554.909	3.668	470463	PROB	3.668	n/a	n/a	-999	4	[8, 8, 4]	20	FR1	1	R1067P
558.577	6.234	472297	PROB	6.234	n/a	n/a	-999	4	[1, 7, 8]	16	FR1	1	R1067P
564.811	3.835	475414	PROB	3.835	n/a	n/a	-999	4	[3, 3, 8]	14	FR1	1	R1067P
568.646	5.306	477331	PROB	5.306	n/a	n/a	-999	4	[9, 6, 4]	19	FR1	1	R1067P
573.952	0.011	479984	STOP	n/a	n/a	n/a	-999	4	[-999, -999, -999]	n/a	FR1	1	R1067P
573.963	1.201	479990	DISTRACT_END	n/a	n/a	n/a	-999	4	[0, 0, 0]	n/a	FR1	1	R1067P
575.164	0.748	480590	REC_START	n/a	n/a	n/a	-999	4	[0, 0, 0]	n/a	FR1	1	R1067P
575.912	2.415	480964	REC_WORD_VV	2.415	n/a	<>	-999	4	[0, 0, 0]	n/a	FR1	1	R1067P
578.327	0.776	482171	REC_WORD	0.776	n/a	BAT	-999	4	[0, 0, 0]	n/a	FR1	1	R1067P
579.103	13.979	482559	REC_WORD_VV	13.979	n/a	<>	-999	4	[0, 0, 0]	n/a	FR1	1	R1067P
593.082	0.828	489549	REC_WORD	0.828	n/a	WEB	-999	4	[0, 0, 0]	n/a	FR1	1	R1067P
593.91	11.265	489963	REC_WORD	11.265	n/a	WOOD	-999	4	[0, 0, 0]	n/a	FR1	1	R1067P
605.175	3.211	495595	REC_END	n/a	n/a	n/a	-999	4	[0, 0, 0]	n/a	FR1	1	R1067P
608.386	0.0	497200	TRIAL	n/a	n/a	n/a	-999	5	[0, 0, 0]	n/a	FR1	1	R1067P
608.386	10.428	497200	COUNTDOWN_START	n/a	n/a	n/a	-999	5	[0, 0, 0]	n/a	FR1	1	R1067P
618.814	0.007	502414	COUNTDOWN_END	n/a	n/a	n/a	-999	5	[0, 0, 0]	n/a	FR1	1	R1067P
618.821	2.517	502417	ORIENT	n/a	n/a	n/a	-999	5	[0, 0, 0]	n/a	FR1	1	R1067P
621.338	2.567	503676	WORD	n/a	wordpools/wordpool_EN.txt	MOUSE	1	5	[0, 0, 0]	n/a	FR1	1	R1067P
623.905	2.401	504959	WORD	n/a	wordpools/wordpool_EN.txt	SHELL	2	5	[0, 0, 0]	n/a	FR1	1	R1067P
626.306	2.584	506160	WORD	n/a	wordpools/wordpool_EN.txt	HORN	3	5	[0, 0, 0]	n/a	FR1	1	R1067P
628.89	2.618	507452	WORD	n/a	wordpools/wordpool_EN.txt	WALL	4	5	[0, 0, 0]	n/a	FR1	1	R1067P
631.508	2.416	508761	WORD	n/a	wordpools/wordpool_EN.txt	BEAN	5	5	[0, 0, 0]	n/a	FR1	1	R1067P
633.924	2.5	509969	WORD	n/a	wordpools/wordpool_EN.txt	SUIT	6	5	[0, 0, 0]	n/a	FR1	1	R1067P
636.424	2.617	511219	WORD	n/a	wordpools/wordpool_EN.txt	PEAR	7	5	[0, 0, 0]	n/a	FR1	1	R1067P
639.041	2.419	512527	WORD	n/a	wordpools/wordpool_EN.txt	MOOSE	8	5	[0, 0, 0]	n/a	FR1	1	R1067P
641.46	2.449	513736	WORD	n/a	wordpools/wordpool_EN.txt	RAT	9	5	[0, 0, 0]	n/a	FR1	1	R1067P
643.909	2.384	514961	WORD	n/a	wordpools/wordpool_EN.txt	EGG	10	5	[0, 0, 0]	n/a	FR1	1	R1067P
646.293	2.617	516153	WORD	n/a	wordpools/wordpool_EN.txt	RUG	11	5	[0, 0, 0]	n/a	FR1	1	R1067P
648.91	1.618	517461	WORD	n/a	wordpools/wordpool_EN.txt	SHIELD	12	5	[0, 0, 0]	n/a	FR1	1	R1067P
650.528	0.001	518270	DISTRACT_START	n/a	n/a	n/a	-999	5	[0, 0, 0]	n/a	FR1	1	R1067P
650.529	0.016	518271	START	n/a	n/a	n/a	-999	5	[-999, -999, -999]	n/a	FR1	1	R1067P
650.545	4.967	518279	PROB	4.967	n/a	n/a	-999	5	[3, 7, 7]	17	FR1	1	R1067P
655.512	3.217	520762	PROB	3.217	n/a	n/a	-999	5	[6, 4, 2]	12	FR1	1	R1067P
658.729	5.134	522370	PROB	5.134	n/a	n/a	-999	5	[2, 5, 6]	13	FR1	1	R1067P
663.863	4.668	524937	PROB	4.668	n/a	n/a	-999	5	[2, 4, 6]	12	FR1	1	R1067P
668.531	3.997	527271	PROB	3.997	n/a	n/a	-999	5	[9, 6, 8]	23	FR1	1	R1067P
672.528	0.004	529270	STOP	n/a	n/a	n/a	-999	5	[-999, -999, -999]	n/a	FR1	1	R1067P
672.532	1.034	529272	DISTRACT_END	n/a	n/a	n/a	-999	5	[0, 0, 0]	n/a	FR1	1	R1067P
673.566	0.441	529789	REC_START	n/a	n/a	n/a	-999	5	[0, 0, 0]	n/a	FR1	1	R1067P
674.007	2.47	530009	REC_WORD_VV	2.47	n/a	<>	-999	5	[0, 0, 0]	n/a	FR1	1	R1067P
676.477	0.663	531244	REC_WORD_VV	0.663	n/a	<>	-999	5	[0, 0, 0]	n/a	FR1	1	R1067P
677.14	0.803	531575	REC_WORD	0.803	n/a	CAVE	-999	5	[0, 0, 0]	n/a	FR1	1	R1067P
677.943	1.015	531977	REC_WORD	1.015	n/a	COVE	-999	5	[0, 0, 0]	n/a	FR1	1	R1067P
678.958	7.465	532484	REC_WORD	7.465	n/a	WEB	-999	5	[0, 0, 0]	n/a	FR1	1	R1067P
686.423	17.158	536217	REC_WORD	17.158	n/a	MAT	-999	5	[0, 0, 0]	n/a	FR1	1	R1067P
703.581	3.79	544795	REC_END	n/a	n/a	n/a	-999	5	[0, 0, 0]	n/a	FR1	1	R1067P
707.371	0.0	546690	TRIAL	n/a	n/a	n/a	-999	6	[0, 0, 0]	n/a	FR1	1	R1067P
707.371	10.428	546690	COUNTDOWN_START	n/a	n/a	n/a	-999	6	[0, 0, 0]	n/a	FR1	1	R1067P
717.799	0.007	551904	COUNTDOWN_END	n/a	n/a	n/a	-999	6	[0, 0, 0]	n/a	FR1	1	R1067P
717.806	2.484	551907	ORIENT	n/a	n/a	n/a	-999	6	[0, 0, 0]	n/a	FR1	1	R1067P
720.29	2.601	553149	WORD	n/a	wordpools/wordpool_EN.txt	SAIL	1	6	[0, 0, 0]	n/a	FR1	1	R1067P
722.891	2.433	554450	WORD	n/a	wordpools/wordpool_EN.txt	STAR	2	6	[0, 0, 0]	n/a	FR1	1	R1067P
725.324	2.501	555666	WORD	n/a	wordpools/wordpool_EN.txt	FILM	3	6	[0, 0, 0]	n/a	FR1	1	R1067P
727.825	2.45	556917	WORD	n/a	wordpools/wordpool_EN.txt	PRINCE	4	6	[0, 0, 0]	n/a	FR1	1	R1067P
730.275	2.484	558142	WORD	n/a	wordpools/wordpool_EN.txt	JUDGE	5	6	[0, 0, 0]	n/a	FR1	1	R1067P
732.759	2.601	559384	WORD	n/a	wordpools/wordpool_EN.txt	BALL	6	6	[0, 0, 0]	n/a	FR1	1	R1067P
735.36	2.417	560684	WORD	n/a	wordpools/wordpool_EN.txt	BIRD	7	6	[0, 0, 0]	n/a	FR1	1	R1067P
737.777	2.567	561892	WORD	n/a	wordpools/wordpool_EN.txt	NET	8	6	[0, 0, 0]	n/a	FR1	1	R1067P
740.344	2.45	563176	WORD	n/a	wordpools/wordpool_EN.txt	CLOUD	9	6	[0, 0, 0]	n/a	FR1	1	R1067P
742.794	2.484	564401	WORD	n/a	wordpools/wordpool_EN.txt	INK	10	6	[0, 0, 0]	n/a	FR1	1	R1067P
745.278	2.517	565643	WORD	n/a	wordpools/wordpool_EN.txt	HEART	11	6	[0, 0, 0]	n/a	FR1	1	R1067P
747.795	1.617	566901	WORD	n/a	wordpools/wordpool_EN.txt	FLUTE	12	6	[0, 0, 0]	n/a	FR1	1	R1067P
749.412	0.001	567710	DISTRACT_START	n/a	n/a	n/a	-999	6	[0, 0, 0]	n/a	FR1	1	R1067P
749.413	0.016	567710	START	n/a	n/a	n/a	-999	6	[-999, -999, -999]	n/a	FR1	1	R1067P
749.429	5.784	567718	PROB	5.784	n/a	n/a	-999	6	[7, 9, 7]	23	FR1	1	R1067P
755.213	4.101	570610	PROB	4.101	n/a	n/a	-999	6	[6, 3, 3]	12	FR1	1	R1067P
759.314	3.185	572660	PROB	3.185	n/a	n/a	-999	6	[1, 9, 2]	12	FR1	1	R1067P
762.499	3.3	574253	PROB	3.3	n/a	n/a	-999	6	[4, 7, 2]	13	FR1	1	R1067P
765.799	3.15	575903	PROB	3.15	n/a	n/a	-999	6	[5, 2, 6]	13	FR1	1	R1067P
768.949	3.676	577478	PROB	3.676	n/a	n/a	-999	6	[1, 9, 8]	18	FR1	1	R1067P
772.625	0.009	579316	STOP	n/a	n/a	n/a	-999	6	[-999, -999, -999]	n/a	FR1	1	R1067P
772.634	1.183	579320	DISTRACT_END	n/a	n/a	n/a	-999	6	[0, 0, 0]	n/a	FR1	1	R1067P
773.817	21.324	579912	REC_START	n/a	n/a	n/a	-999	6	[0, 0, 0]	n/a	FR1	1	R1067P
795.141	0.846	590573	REC_WORD	0.846	n/a	APE	-999	6	[0, 0, 0]	n/a	FR1	1	R1067P
795.987	2.02	590996	REC_WORD	2.02	n/a	SAIL	-999	6	[0, 0, 0]	n/a	FR1	1	R1067P
798.007	5.825	592006	REC_WORD	5.825	n/a	COVE	-999	6	[0, 0, 0]	n/a	FR1	1	R1067P
803.832	5.075	594918	REC_END	n/a	n/a	n/a	-999	6	[0, 0, 0]	n/a	FR1	1	R1067P
808.907	0.0	597456	TRIAL	n/a	n/a	n/a	-999	7	[0, 0, 0]	n/a	FR1	1	R1067P
808.907	10.428	597456	COUNTDOWN_START	n/a	n/a	n/a	-999	7	[0, 0, 0]	n/a	FR1	1	R1067P
819.335	0.007	602669	COUNTDOWN_END	n/a	n/a	n/a	-999	7	[0, 0, 0]	n/a	FR1	1	R1067P
819.342	2.6	602673	ORIENT	n/a	n/a	n/a	-999	7	[0, 0, 0]	n/a	FR1	1	R1067P
821.942	2.401	603973	WORD	n/a	wordpools/wordpool_EN.txt	ARM	1	7	[0, 0, 0]	n/a	FR1	1	R1067P
824.343	2.417	605173	WORD	n/a	wordpools/wordpool_EN.txt	SPONGE	2	7	[0, 0, 0]	n/a	FR1	1	R1067P
826.76	2.4	606382	WORD	n/a	wordpools/wordpool_EN.txt	PIT	3	7	[0, 0, 0]	n/a	FR1	1	R1067P
829.16	2.502	607582	WORD	n/a	wordpools/wordpool_EN.txt	GRASS	4	7	[0, 0, 0]	n/a	FR1	1	R1067P
831.662	2.399	608833	WORD	n/a	wordpools/wordpool_EN.txt	CHEEK	5	7	[0, 0, 0]	n/a	FR1	1	R1067P
834.061	2.602	610032	WORD	n/a	wordpools/wordpool_EN.txt	STEAK	6	7	[0, 0, 0]	n/a	FR1	1	R1067P
836.663	2.599	611333	WORD	n/a	wordpools/wordpool_EN.txt	FISH	7	7	[0, 0, 0]	n/a	FR1	1	R1067P
839.262	2.551	612632	WORD	n/a	wordpools/wordpool_EN.txt	BOWL	8	7	[0, 0, 0]	n/a	FR1	1	R1067P
841.813	2.384	613908	WORD	n/a	wordpools/wordpool_EN.txt	SEA	9	7	[0, 0, 0]	n/a	FR1	1	R1067P
844.197	2.401	615100	WORD	n/a	wordpools/wordpool_EN.txt	CALF	10	7	[0, 0, 0]	n/a	FR1	1	R1067P
846.598	2.466	616300	WORD	n/a	wordpools/wordpool_EN.txt	MILK	11	7	[0, 0, 0]	n/a	FR1	1	R1067P
849.064	1.601	617533	WORD	n/a	wordpools/wordpool_EN.txt	WEED	12	7	[0, 0, 0]	n/a	FR1	1	R1067P
850.665	0.001	618334	DISTRACT_START	n/a	n/a	n/a	-999	7	[0, 0, 0]	n/a	FR1	1	R1067P
850.666	0.015	618334	START	n/a	n/a	n/a	-999	7	[-999, -999, -999]	n/a	FR1	1	R1067P
850.681	5.802	618342	PROB	5.802	n/a	n/a	-999	7	[5, 2, 8]	15	FR1	1	R1067P
856.483	3.051	621242	PROB	3.051	n/a	n/a	-999	7	[3, 1, 1]	5	FR1	1	R1067P
859.534	4.216	622768	PROB	4.216	n/a	n/a	-999	7	[8, 9, 6]	23	FR1	1	R1067P
863.75	5.051	624876	PROB	5.051	n/a	n/a	-999	7	[7, 6, 8]	21	FR1	1	R1067P
868.801	3.895	627401	PROB	3.895	n/a	n/a	-999	7	[1, 2, 7]	10	FR1	1	R1067P
872.696	0.006	629349	STOP	n/a	n/a	n/a	-999	7	[-999, -999, -999]	n/a	FR1	1	R1067P
872.702	1.167	629352	DISTRACT_END	n/a	n/a	n/a	-999	7	[0, 0, 0]	n/a	FR1	1	R1067P
873.869	3.537	629935	REC_START	n/a	n/a	n/a	-999	7	[0, 0, 0]	n/a	FR1	1	R1067P
877.406	15.207	631703	REC_WORD	15.207	n/a	SALT	-999	7	[0, 0, 0]	n/a	FR1	1	R1067P
892.613	11.27	639307	REC_WORD	11.27	n/a	BEE	-999	7	[0, 0, 0]	n/a	FR1	1	R1067P
903.883	5.409	644941	REC_END	n/a	n/a	n/a	-999	7	[0, 0, 0]	n/a	FR1	1	R1067P
909.292	0.0	647646	TRIAL	n/a	n/a	n/a	-999	8	[0, 0, 0]	n/a	FR1	1	R1067P
909.292	10.428	647646	COUNTDOWN_START	n/a	n/a	n/a	-999	8	[0, 0, 0]	n/a	FR1	1	R1067P
919.72	0.007	652859	COUNTDOWN_END	n/a	n/a	n/a	-999	8	[0, 0, 0]	n/a	FR1	1	R1067P
919.727	2.401	652863	ORIENT	n/a	n/a	n/a	-999	8	[0, 0, 0]	n/a	FR1	1	R1067P
922.128	2.401	654063	WORD	n/a	wordpools/wordpool_EN.txt	STORE	1	8	[0, 0, 0]	n/a	FR1	1	R1067P
924.529	2.416	655264	WORD	n/a	wordpools/wordpool_EN.txt	VASE	2	8	[0, 0, 0]	n/a	FR1	1	R1067P
926.945	2.501	656472	WORD	n/a	wordpools/wordpool_EN.txt	FRUIT	3	8	[0, 0, 0]	n/a	FR1	1	R1067P
929.446	2.434	657722	WORD	n/a	wordpools/wordpool_EN.txt	PURSE	4	8	[0, 0, 0]	n/a	FR1	1	R1067P
931.88	2.533	658939	WORD	n/a	wordpools/wordpool_EN.txt	DESK	5	8	[0, 0, 0]	n/a	FR1	1	R1067P
934.413	2.501	660206	WORD	n/a	wordpools/wordpool_EN.txt	TEA	6	8	[0, 0, 0]	n/a	FR1	1	R1067P
936.914	2.45	661456	WORD	n/a	wordpools/wordpool_EN.txt	LIP	7	8	[0, 0, 0]	n/a	FR1	1	R1067P
939.364	2.484	662681	WORD	n/a	wordpools/wordpool_EN.txt	LAMB	8	8	[0, 0, 0]	n/a	FR1	1	R1067P
941.848	2.618	663923	WORD	n/a	wordpools/wordpool_EN.txt	PLANT	9	8	[0, 0, 0]	n/a	FR1	1	R1067P
944.466	2.5	665232	WORD	n/a	wordpools/wordpool_EN.txt	PEACH	10	8	[0, 0, 0]	n/a	FR1	1	R1067P
946.966	2.484	666482	WORD	n/a	wordpools/wordpool_EN.txt	APE	11	8	[0, 0, 0]	n/a	FR1	1	R1067P
949.45	1.617	667724	WORD	n/a	wordpools/wordpool_EN.txt	FOOD	12	8	[0, 0, 0]	n/a	FR1	1	R1067P
951.067	0.0	668532	DISTRACT_START	n/a	n/a	n/a	-999	8	[0, 0, 0]	n/a	FR1	1	R1067P
951.067	0.016	668532	START	n/a	n/a	n/a	-999	8	[-999, -999, -999]	n/a	FR1	1	R1067P
951.083	4.402	668540	PROB	4.402	n/a	n/a	-999	8	[5, 2, 4]	11	FR1	1	R1067P
955.485	3.883	670741	PROB	3.883	n/a	n/a	-999	8	[1, 9, 3]	13	FR1	1	R1067P
959.368	3.384	672682	PROB	3.384	n/a	n/a	-999	8	[3, 4, 5]	12	FR1	1	R1067P
962.752	4.051	674374	PROB	4.051	n/a	n/a	-999	8	[8, 6, 7]	21	FR1	1	R1067P
966.803	4.572	676400	PROB	4.572	n/a	n/a	-999	8	[6, 6, 7]	19	FR1	1	R1067P
971.375	0.012	678686	STOP	n/a	n/a	n/a	-999	8	[-999, -999, -999]	n/a	FR1	1	R1067P
971.387	1.051	678692	DISTRACT_END	n/a	n/a	n/a	-999	8	[0, 0, 0]	n/a	FR1	1	R1067P
972.438	8.077	679217	REC_START	n/a	n/a	n/a	-999	8	[0, 0, 0]	n/a	FR1	1	R1067P
980.515	13.2	683255	REC_WORD	13.2	n/a	INK	-999	8	[0, 0, 0]	n/a	FR1	1	R1067P
993.715	8.733	689855	REC_WORD	8.733	n/a	FOOT	-999	8	[0, 0, 0]	n/a	FR1	1	R1067P
1002.448	3.18	694221	REC_END	n/a	n/a	n/a	-999	8	[0, 0, 0]	n/a	FR1	1	R1067P
1005.628	0.0	695811	TRIAL	n/a	n/a	n/a	-999	9	[0, 0, 0]	n/a	FR1	1	R1067P
1005.628	10.428	695811	COUNTDOWN_START	n/a	n/a	n/a	-999	9	[0, 0, 0]	n/a	FR1	1	R1067P
1016.056	0.006	701025	COUNTDOWN_END	n/a	n/a	n/a	-999	9	[0, 0, 0]	n/a	FR1	1	R1067P
1016.062	2.485	701028	ORIENT	n/a	n/a	n/a	-999	9	[0, 0, 0]	n/a	FR1	1	R1067P
1018.547	2.566	702270	WORD	n/a	wordpools/wordpool_EN.txt	CLOWN	1	9	[0, 0, 0]	n/a	FR1	1	R1067P
1021.113	2.6	703553	WORD	n/a	wordpools/wordpool_EN.txt	PLATE	2	9	[0, 0, 0]	n/a	FR1	1	R1067P
1023.713	2.518	704853	WORD	n/a	wordpools/wordpool_EN.txt	GOLD	3	9	[0, 0, 0]	n/a	FR1	1	R1067P
1026.231	2.5	706112	WORD	n/a	wordpools/wordpool_EN.txt	PANTS	4	9	[0, 0, 0]	n/a	FR1	1	R1067P
1028.731	2.4	707362	WORD	n/a	wordpools/wordpool_EN.txt	SIGN	5	9	[0, 0, 0]	n/a	FR1	1	R1067P
1031.131	2.419	708562	WORD	n/a	wordpools/wordpool_EN.txt	SCHOOL	6	9	[0, 0, 0]	n/a	FR1	1	R1067P
1033.55	2.449	709772	WORD	n/a	wordpools/wordpool_EN.txt	PIG	7	9	[0, 0, 0]	n/a	FR1	1	R1067P
1035.999	2.602	710996	WORD	n/a	wordpools/wordpool_EN.txt	WHALE	8	9	[0, 0, 0]	n/a	FR1	1	R1067P
1038.601	2.532	712297	WORD	n/a	wordpools/wordpool_EN.txt	CAVE	9	9	[0, 0, 0]	n/a	FR1	1	R1067P
1041.133	2.418	713563	WORD	n/a	wordpools/wordpool_EN.txt	CROWN	10	9	[0, 0, 0]	n/a	FR1	1	R1067P
1043.551	2.417	714772	WORD	n/a	wordpools/wordpool_EN.txt	GLOVE	11	9	[0, 0, 0]	n/a	FR1	1	R1067P
1045.968	1.618	715980	WORD	n/a	wordpools/wordpool_EN.txt	BEAR	12	9	[0, 0, 0]	n/a	FR1	1	R1067P
1047.586	0.001	716789	DISTRACT_START	n/a	n/a	n/a	-999	9	[0, 0, 0]	n/a	FR1	1	R1067P
1047.587	0.015	716790	START	n/a	n/a	n/a	-999	9	[-999, -999, -999]	n/a	FR1	1	R1067P
1047.602	5.068	716797	PROB	5.068	n/a	n/a	-999	9	[7, 2, 4]	13	FR1	1	R1067P
1052.67	5.583	719331	PROB	5.583	n/a	n/a	-999	9	[9, 6, 9]	24	FR1	1	R1067P
1058.253	4.434	722122	PROB	4.434	n/a	n/a	-999	9	[4, 8, 2]	14	FR1	1	R1067P
1062.687	3.919	724339	PROB	3.919	n/a	n/a	-999	9	[4, 5, 1]	10	FR1	1	R1067P
1066.606	4.003	726299	PROB	4.003	n/a	n/a	-999	9	[5, 7, 6]	18	FR1	1	R1067P
1070.609	0.014	728300	STOP	n/a	n/a	n/a	-999	9	[-999, -999, -999]	n/a	FR1	1	R1067P
1070.623	1.067	728307	DISTRACT_END	n/a	n/a	n/a	-999	9	[0, 0, 0]	n/a	FR1	1	R1067P
1071.69	3.339	728841	REC_START	n/a	n/a	n/a	-999	9	[0, 0, 0]	n/a	FR1	1	R1067P
1075.029	2.679	730510	REC_WORD	2.679	n/a	CUP	-999	9	[0, 0, 0]	n/a	FR1	1	R1067P
1077.708	3.218	731849	REC_WORD_VV	3.218	n/a	<>	-999	9	[0, 0, 0]	n/a	FR1	1	R1067P
1080.926	20.774	733458	REC_WORD	20.774	n/a	COVE	-999	9	[0, 0, 0]	n/a	FR1	1	R1067P
1101.7	2.745	743845	REC_END	n/a	n/a	n/a	-999	9	[0, 0, 0]	n/a	FR1	1	R1067P
1104.445	0.0	745217	TRIAL	n/a	n/a	n/a	-999	10	[0, 0, 0]	n/a	FR1	1	R1067P
1104.445	10.428	745217	COUNTDOWN_START	n/a	n/a	n/a	-999	10	[0, 0, 0]	n/a	FR1	1	R1067P
1114.873	0.007	750431	COUNTDOWN_END	n/a	n/a	n/a	-999	10	[0, 0, 0]	n/a	FR1	1	R1067P
1114.88	2.451	750434	ORIENT	n/a	n/a	n/a	-999	10	[0, 0, 0]	n/a	FR1	1	R1067P
1117.331	2.517	751660	WORD	n/a	wordpools/wordpool_EN.txt	COIN	1	10	[0, 0, 0]	n/a	FR1	1	R1067P
1119.848	2.584	752918	WORD	n/a	wordpools/wordpool_EN.txt	TOOL	2	10	[0, 0, 0]	n/a	FR1	1	R1067P
1122.432	2.4	754210	WORD	n/a	wordpools/wordpool_EN.txt	MAIL	3	10	[0, 0, 0]	n/a	FR1	1	R1067P
1124.832	2.601	755410	WORD	n/a	wordpools/wordpool_EN.txt	RAIN	4	10	[0, 0, 0]	n/a	FR1	1	R1067P
1127.433	2.4	756711	WORD	n/a	wordpools/wordpool_EN.txt	BANK	5	10	[0, 0, 0]	n/a	FR1	1	R1067P
1129.833	2.601	757911	WORD	n/a	wordpools/wordpool_EN.txt	KEY	6	10	[0, 0, 0]	n/a	FR1	1	R1067P
1132.434	2.634	759211	WORD	n/a	wordpools/wordpool_EN.txt	ARK	7	10	[0, 0, 0]	n/a	FR1	1	R1067P
1135.068	2.434	760528	WORD	n/a	wordpools/wordpool_EN.txt	SHEET	8	10	[0, 0, 0]	n/a	FR1	1	R1067P
1137.502	2.6	761745	WORD	n/a	wordpools/wordpool_EN.txt	PHONE	9	10	[0, 0, 0]	n/a	FR1	1	R1067P
1140.102	2.401	763045	WORD	n/a	wordpools/wordpool_EN.txt	CLOTH	10	10	[0, 0, 0]	n/a	FR1	1	R1067P
1142.503	2.416	764245	WORD	n/a	wordpools/wordpool_EN.txt	BOOK	11	10	[0, 0, 0]	n/a	FR1	1	R1067P
1144.919	1.601	765453	WORD	n/a	wordpools/wordpool_EN.txt	RAKE	12	10	[0, 0, 0]	n/a	FR1	1	R1067P
1146.52	0.001	766254	DISTRACT_START	n/a	n/a	n/a	-999	10	[0, 0, 0]	n/a	FR1	1	R1067P
1146.521	0.016	766254	START	n/a	n/a	n/a	-999	10	[-999, -999, -999]	n/a	FR1	1	R1067P
1146.537	5.55	766262	PROB	5.55	n/a	n/a	-999	10	[6, 6, 5]	17	FR1	1	R1067P
1152.087	6.268	769037	PROB	6.268	n/a	n/a	-999	10	[7, 1, 8]	17	FR1	1	R1067P
1158.355	7.818	772171	PROB	7.818	n/a	n/a	-999	10	[2, 3, 5]	10	FR1	1	R1067P
1166.173	3.363	776080	PROB	3.363	n/a	n/a	-999	10	[3, 3, 6]	12	FR1	1	R1067P
1169.536	0.006	777761	STOP	n/a	n/a	n/a	-999	10	[-999, -999, -999]	n/a	FR1	1	R1067P
1169.542	1.149	777764	DISTRACT_END	n/a	n/a	n/a	-999	10	[0, 0, 0]	n/a	FR1	1	R1067P
1170.691	20.898	778339	REC_START	n/a	n/a	n/a	-999	10	[0, 0, 0]	n/a	FR1	1	R1067P
1191.589	2.423	788787	REC_WORD_VV	2.423	n/a	<>	-999	10	[0, 0, 0]	n/a	FR1	1	R1067P
1194.012	6.693	789998	REC_WORD_VV	6.693	n/a	<>	-999	10	[0, 0, 0]	n/a	FR1	1	R1067P
1200.705	9.577	793345	REC_END	n/a	n/a	n/a	-999	10	[0, 0, 0]	n/a	FR1	1	R1067P
1210.282	0.0	798133	TRIAL	n/a	n/a	n/a	-999	11	[0, 0, 0]	n/a	FR1	1	R1067P
1210.282	10.428	798133	COUNTDOWN_START	n/a	n/a	n/a	-999	11	[0, 0, 0]	n/a	FR1	1	R1067P
1220.71	0.007	803347	COUNTDOWN_END	n/a	n/a	n/a	-999	11	[0, 0, 0]	n/a	FR1	1	R1067P
1220.717	2.617	803350	ORIENT	n/a	n/a	n/a	-999	11	[0, 0, 0]	n/a	FR1	1	R1067P
1223.334	2.417	804659	WORD	n/a	wordpools/wordpool_EN.txt	ROCK	1	11	[0, 0, 0]	n/a	FR1	1	R1067P
1225.751	2.534	805867	WORD	n/a	wordpools/wordpool_EN.txt	BLOOM	2	11	[0, 0, 0]	n/a	FR1	1	R1067P
1228.285	2.417	807134	WORD	n/a	wordpools/wordpool_EN.txt	STONE	3	11	[0, 0, 0]	n/a	FR1	1	R1067P
1230.702	2.467	808343	WORD	n/a	wordpools/wordpool_EN.txt	FUDGE	4	11	[0, 0, 0]	n/a	FR1	1	R1067P
1233.169	2.418	809576	WORD	n/a	wordpools/wordpool_EN.txt	FLAG	5	11	[0, 0, 0]	n/a	FR1	1	R1067P
1235.587	2.533	810785	WORD	n/a	wordpools/wordpool_EN.txt	MAZE	6	11	[0, 0, 0]	n/a	FR1	1	R1067P
1238.12	2.584	812051	WORD	n/a	wordpools/wordpool_EN.txt	FOG	7	11	[0, 0, 0]	n/a	FR1	1	R1067P
1240.704	2.417	813343	WORD	n/a	wordpools/wordpool_EN.txt	SMOKE	8	11	[0, 0, 0]	n/a	FR1	1	R1067P
1243.121	2.468	814552	WORD	n/a	wordpools/wordpool_EN.txt	DOCK	9	11	[0, 0, 0]	n/a	FR1	1	R1067P
1245.589	2.4	815786	WORD	n/a	wordpools/wordpool_EN.txt	CONE	10	11	[0, 0, 0]	n/a	FR1	1	R1067P
1247.989	2.4	816986	WORD	n/a	wordpools/wordpool_EN.txt	BOY	11	11	[0, 0, 0]	n/a	FR1	1	R1067P
1250.389	1.617	818186	WORD	n/a	wordpools/wordpool_EN.txt	FORT	12	11	[0, 0, 0]	n/a	FR1	1	R1067P
1252.006	0.001	818994	DISTRACT_START	n/a	n/a	n/a	-999	11	[0, 0, 0]	n/a	FR1	1	R1067P
1252.007	0.016	818995	START	n/a	n/a	n/a	-999	11	[-999, -999, -999]	n/a	FR1	1	R1067P
1252.023	3.317	819003	PROB	3.317	n/a	n/a	-999	11	[4, 2, 1]	7	FR1	1	R1067P
1255.34	5.068	820661	PROB	5.068	n/a	n/a	-999	11	[6, 1, 9]	16	FR1	1	R1067P
1260.408	4.251	823195	PROB	4.251	n/a	n/a	-999	11	[7, 3, 6]	16	FR1	1	R1067P
1264.659	3.951	825320	PROB	3.951	n/a	n/a	-999	11	[8, 4, 1]	13	FR1	1	R1067P
1268.61	4.454	827296	PROB	4.454	n/a	n/a	-999	11	[3, 3, 9]	15	FR1	1	R1067P
1273.064	0.013	829522	STOP	n/a	n/a	n/a	-999	11	[-999, -999, -999]	n/a	FR1	1	R1067P
1273.077	1.067	829529	DISTRACT_END	n/a	n/a	n/a	-999	11	[0, 0, 0]	n/a	FR1	1	R1067P
1274.144	0.464	830062	REC_START	n/a	n/a	n/a	-999	11	[0, 0, 0]	n/a	FR1	1	R1067P
1274.608	8.991	830294	REC_WORD_VV	8.991	n/a	<>	-999	11	[0, 0, 0]	n/a	FR1	1	R1067P
1283.599	18.583	834790	REC_WORD	18.583	n/a	WEB	-999	11	[0, 0, 0]	n/a	FR1	1	R1067P
1302.182	1.972	844081	REC_WORD	1.972	n/a	FOOT	-999	11	[0, 0, 0]	n/a	FR1	1	R1067P
1304.154	3.963	845067	REC_END	n/a	n/a	n/a	-999	11	[0, 0, 0]	n/a	FR1	1	R1067P
1308.117	0.0	847048	TRIAL	n/a	n/a	n/a	-999	12	[0, 0, 0]	n/a	FR1	1	R1067P
1308.117	10.428	847048	COUNTDOWN_START	n/a	n/a	n/a	-999	12	[0, 0, 0]	n/a	FR1	1	R1067P
1318.545	0.008	852262	COUNTDOWN_END	n/a	n/a	n/a	-999	12	[0, 0, 0]	n/a	FR1	1	R1067P
1318.553	2.616	852266	ORIENT	n/a	n/a	n/a	-999	12	[0, 0, 0]	n/a	FR1	1	R1067P
1321.169	2.567	853574	WORD	n/a	wordpools/wordpool_EN.txt	TRAY	1	12	[0, 0, 0]	n/a	FR1	1	R1067P
1323.736	2.567	854857	WORD	n/a	wordpools/wordpool_EN.txt	ROSE	2	12	[0, 0, 0]	n/a	FR1	1	R1067P
1326.303	2.401	856141	WORD	n/a	wordpools/wordpool_EN.txt	BEACH	3	12	[0, 0, 0]	n/a	FR1	1	R1067P
1328.704	2.6	857341	WORD	n/a	wordpools/wordpool_EN.txt	BOAT	4	12	[0, 0, 0]	n/a	FR1	1	R1067P
1331.304	2.634	858641	WORD	n/a	wordpools/wordpool_EN.txt	LEG	5	12	[0, 0, 0]	n/a	FR1	1	R1067P
1333.938	2.518	859958	WORD	n/a	wordpools/wordpool_EN.txt	SUN	6	12	[0, 0, 0]	n/a	FR1	1	R1067P
1336.456	2.416	861217	WORD	n/a	wordpools/wordpool_EN.txt	FLOOR	7	12	[0, 0, 0]	n/a	FR1	1	R1067P
1338.872	2.418	862425	WORD	n/a	wordpools/wordpool_EN.txt	RICE	8	12	[0, 0, 0]	n/a	FR1	1	R1067P
1341.29	2.45	863634	WORD	n/a	wordpools/wordpool_EN.txt	DRUM	9	12	[0, 0, 0]	n/a	FR1	1	R1067P
1343.74	2.55	864859	WORD	n/a	wordpools/wordpool_EN.txt	STAIR	10	12	[0, 0, 0]	n/a	FR1	1	R1067P
1346.29	2.617	866134	WORD	n/a	wordpools/wordpool_EN.txt	VEST	11	12	[0, 0, 0]	n/a	FR1	1	R1067P
1348.907	1.602	867442	WORD	n/a	wordpools/wordpool_EN.txt	TOY	12	12	[0, 0, 0]	n/a	FR1	1	R1067P
1350.509	0.0	868243	DISTRACT_START	n/a	n/a	n/a	-999	12	[0, 0, 0]	n/a	FR1	1	R1067P
1350.509	0.017	868243	START	n/a	n/a	n/a	-999	12	[-999, -999, -999]	n/a	FR1	1	R1067P
1350.526	4.266	868252	PROB	4.266	n/a	n/a	-999	12	[2, 5, 2]	9	FR1	1	R1067P
1354.792	4.384	870384	PROB	4.384	n/a	n/a	-999	12	[5, 4, 4]	13	FR1	1	R1067P
1359.176	3.567	872576	PROB	3.567	n/a	n/a	-999	12	[6, 1, 2]	9	FR1	1	R1067P
1362.743	3.518	874360	PROB	3.518	n/a	n/a	-999	12	[5, 7, 9]	21	FR1	1	R1067P
1366.261	5.611	876119	PROB	5.611	n/a	n/a	-999	12	[8, 7, 7]	22	FR1	1	R1067P
1371.872	0.007	878924	STOP	n/a	n/a	n/a	-999	12	[-999, -999, -999]	n/a	FR1	1	R1067P
1371.879	1.184	878927	DISTRACT_END	n/a	n/a	n/a	-999	12	[0, 0, 0]	n/a	FR1	1	R1067P
1373.063	0.696	879519	REC_START	n/a	n/a	n/a	-999	12	[0, 0, 0]	n/a	FR1	1	R1067P
1373.759	1.25	879867	REC_WORD_VV	1.25	n/a	<>	-999	12	[0, 0, 0]	n/a	FR1	1	R1067P
1375.009	1.228	880492	REC_WORD	1.228	n/a	TOY	-999	12	[0, 0, 0]	n/a	FR1	1	R1067P
1376.237	3.749	881106	REC_WORD	3.749	n/a	VEST	-999	12	[0, 0, 0]	n/a	FR1	1	R1067P
1379.986	8.128	882981	REC_WORD	8.128	n/a	TANK	-999	12	[0, 0, 0]	n/a	FR1	1	R1067P
1388.114	14.959	887045	REC_WORD	14.959	n/a	FLOOR	-999	12	[0, 0, 0]	n/a	FR1	1	R1067P
1403.073	2.596	894524	REC_END	n/a	n/a	n/a	-999	12	[0, 0, 0]	n/a	FR1	1	R1067P
1405.669	0.0	895822	TRIAL	n/a	n/a	n/a	-999	13	[0, 0, 0]	n/a	FR1	1	R1067P
1405.669	10.428	895822	COUNTDOWN_START	n/a	n/a	n/a	-999	13	[0, 0, 0]	n/a	FR1	1	R1067P
1416.097	0.006	901035	COUNTDOWN_END	n/a	n/a	n/a	-999	13	[0, 0, 0]	n/a	FR1	1	R1067P
1416.103	2.502	901038	ORIENT	n/a	n/a	n/a	-999	13	[0, 0, 0]	n/a	FR1	1	R1067P
1418.605	2.549	902289	WORD	n/a	wordpools/wordpool_EN.txt	STEAM	1	13	[0, 0, 0]	n/a	FR1	1	R1067P
1421.154	2.435	903564	WORD	n/a	wordpools/wordpool_EN.txt	POOL	2	13	[0, 0, 0]	n/a	FR1	1	R1067P
1423.589	2.583	904781	WORD	n/a	wordpools/wordpool_EN.txt	BATH	3	13	[0, 0, 0]	n/a	FR1	1	R1067P
1426.172	2.468	906073	WORD	n/a	wordpools/wordpool_EN.txt	DOOR	4	13	[0, 0, 0]	n/a	FR1	1	R1067P
1428.64	2.45	907307	WORD	n/a	wordpools/wordpool_EN.txt	BUSH	5	13	[0, 0, 0]	n/a	FR1	1	R1067P
1431.09	2.534	908531	WORD	n/a	wordpools/wordpool_EN.txt	ROOF	6	13	[0, 0, 0]	n/a	FR1	1	R1067P
1433.624	2.617	909798	WORD	n/a	wordpools/wordpool_EN.txt	FENCE	7	13	[0, 0, 0]	n/a	FR1	1	R1067P
1436.241	2.5	911107	WORD	n/a	wordpools/wordpool_EN.txt	ROPE	8	13	[0, 0, 0]	n/a	FR1	1	R1067P
1438.741	2.617	912357	WORD	n/a	wordpools/wordpool_EN.txt	SALT	9	13	[0, 0, 0]	n/a	FR1	1	R1067P
1441.358	2.567	913665	WORD	n/a	wordpools/wordpool_EN.txt	SPOON	10	13	[0, 0, 0]	n/a	FR1	1	R1067P
1443.925	2.451	914949	WORD	n/a	wordpools/wordpool_EN.txt	PIPE	11	13	[0, 0, 0]	n/a	FR1	1	R1067P
1446.376	1.617	916174	WORD	n/a	wordpools/wordpool_EN.txt	FROG	12	13	[0, 0, 0]	n/a	FR1	1	R1067P
1447.993	0.001	916983	DISTRACT_START	n/a	n/a	n/a	-999	13	[0, 0, 0]	n/a	FR1	1	R1067P
1447.994	0.015	916983	START	n/a	n/a	n/a	-999	13	[-999, -999, -999]	n/a	FR1	1	R1067P
1448.009	4.569	916991	PROB	4.569	n/a	n/a	-999	13	[6, 6, 8]	20	FR1	1	R1067P
1452.578	3.8	919275	PROB	3.8	n/a	n/a	-999	13	[6, 3, 9]	21	FR1	1	R1067P
1456.378	3.817	921175	PROB	3.817	n/a	n/a	-999	13	[2, 2, 1]	5	FR1	1	R1067P
1460.195	4.801	923083	PROB	4.801	n/a	n/a	-999	13	[5, 9, 6]	20	FR1	1	R1067P
1464.996	3.851	925484	PROB	3.851	n/a	n/a	-999	13	[7, 2, 6]	15	FR1	1	R1067P
1468.847	0.016	927409	STOP	n/a	n/a	n/a	-999	13	[-999, -999, -999]	n/a	FR1	1	R1067P
1468.863	1.218	927417	DISTRACT_END	n/a	n/a	n/a	-999	13	[0, 0, 0]	n/a	FR1	1	R1067P
1470.081	2.072	928026	REC_START	n/a	n/a	n/a	-999	13	[0, 0, 0]	n/a	FR1	1	R1067P
1472.153	1.949	929062	REC_WORD_VV	1.949	n/a	<>	-999	13	[0, 0, 0]	n/a	FR1	1	R1067P
1474.102	25.989	930036	REC_WORD_VV	25.989	n/a	<>	-999	13	[0, 0, 0]	n/a	FR1	1	R1067P
1500.091	4.712	943030	REC_END	n/a	n/a	n/a	-999	13	[0, 0, 0]	n/a	FR1	1	R1067P
1504.803	0.001	945386	COUNTDOWN_START	n/a	n/a	n/a	-999	14	[0, 0, 0]	n/a	FR1	1	R1067P
1504.804	10.427	945387	TRIAL	n/a	n/a	n/a	-999	14	[0, 0, 0]	n/a	FR1	1	R1067P
1515.231	0.008	950600	COUNTDOWN_END	n/a	n/a	n/a	-999	14	[0, 0, 0]	n/a	FR1	1	R1067P
1515.239	2.5	950604	ORIENT	n/a	n/a	n/a	-999	14	[0, 0, 0]	n/a	FR1	1	R1067P
1517.739	2.567	951854	WORD	n/a	wordpools/wordpool_EN.txt	DRESS	1	14	[0, 0, 0]	n/a	FR1	1	R1067P
1520.306	2.517	953137	WORD	n/a	wordpools/wordpool_EN.txt	DITCH	2	14	[0, 0, 0]	n/a	FR1	1	R1067P
1522.823	2.467	954396	WORD	n/a	wordpools/wordpool_EN.txt	KITE	3	14	[0, 0, 0]	n/a	FR1	1	R1067P
1525.29	2.451	955629	WORD	n/a	wordpools/wordpool_EN.txt	ROAD	4	14	[0, 0, 0]	n/a	FR1	1	R1067P
1527.741	2.534	956855	WORD	n/a	wordpools/wordpool_EN.txt	GATE	5	14	[0, 0, 0]	n/a	FR1	1	R1067P
1530.275	2.584	958121	WORD	n/a	wordpools/wordpool_EN.txt	TIE	6	14	[0, 0, 0]	n/a	FR1	1	R1067P
1532.859	2.483	959413	WORD	n/a	wordpools/wordpool_EN.txt	AXE	7	14	[0, 0, 0]	n/a	FR1	1	R1067P
1535.342	2.534	960655	WORD	n/a	wordpools/wordpool_EN.txt	STOOL	8	14	[0, 0, 0]	n/a	FR1	1	R1067P
1537.876	2.585	961922	WORD	n/a	wordpools/wordpool_EN.txt	NOSE	9	14	[0, 0, 0]	n/a	FR1	1	R1067P
1540.461	2.416	963214	WORD	n/a	wordpools/wordpool_EN.txt	SWORD	10	14	[0, 0, 0]	n/a	FR1	1	R1067P
1542.877	2.567	964422	WORD	n/a	wordpools/wordpool_EN.txt	SLEEVE	11	14	[0, 0, 0]	n/a	FR1	1	R1067P
1545.444	1.617	965706	WORD	n/a	wordpools/wordpool_EN.txt	COUCH	12	14	[0, 0, 0]	n/a	FR1	1	R1067P
1547.061	0.001	966514	DISTRACT_START	n/a	n/a	n/a	-999	14	[0, 0, 0]	n/a	FR1	1	R1067P
1547.062	0.016	966515	START	n/a	n/a	n/a	-999	14	[-999, -999, -999]	n/a	FR1	1	R1067P
1547.078	5.502	966523	PROB	5.502	n/a	n/a	-999	14	[9, 4, 2]	15	FR1	1	R1067P
1552.58	4.283	969273	PROB	4.283	n/a	n/a	-999	14	[2, 9, 7]	18	FR1	1	R1067P
1556.863	3.934	971415	PROB	3.934	n/a	n/a	-999	14	[7, 6, 2]	15	FR1	1	R1067P
1560.797	3.434	973382	PROB	3.434	n/a	n/a	-999	14	[1, 9, 2]	12	FR1	1	R1067P
1564.231	3.234	975099	PROB	3.234	n/a	n/a	-999	14	[5, 1, 8]	14	FR1	1	R1067P
1567.465	0.018	976716	STOP	n/a	n/a	n/a	-999	14	[-999, -999, -999]	n/a	FR1	1	R1067P
1567.483	1.117	976725	DISTRACT_END	n/a	n/a	n/a	-999	14	[0, 0, 0]	n/a	FR1	1	R1067P
1568.6	0.746	977283	REC_START	n/a	n/a	n/a	-999	14	[0, 0, 0]	n/a	FR1	1	R1067P
1569.346	10.479	977656	REC_WORD_VV	10.479	n/a	<>	-999	14	[0, 0, 0]	n/a	FR1	1	R1067P
1579.825	18.789	982895	REC_WORD	18.789	n/a	SLEEVE	-999	14	[0, 0, 0]	n/a	FR1	1	R1067P
1598.614	3.708	992289	REC_END	n/a	n/a	n/a	-999	14	[0, 0, 0]	n/a	FR1	1	R1067P
1602.322	0.0	994143	COUNTDOWN_START	n/a	n/a	n/a	-999	15	[0, 0, 0]	n/a	FR1	1	R1067P
1602.322	10.428	994143	TRIAL	n/a	n/a	n/a	-999	15	[0, 0, 0]	n/a	FR1	1	R1067P
1612.75	0.007	999357	COUNTDOWN_END	n/a	n/a	n/a	-999	15	[0, 0, 0]	n/a	FR1	1	R1067P
1612.757	2.6	999360	ORIENT	n/a	n/a	n/a	-999	15	[0, 0, 0]	n/a	FR1	1	R1067P
1615.357	2.467	1000660	WORD	n/a	wordpools/wordpool_EN.txt	CAR	1	15	[0, 0, 0]	n/a	FR1	1	R1067P
1617.824	2.501	1001894	WORD	n/a	wordpools/wordpool_EN.txt	CLAY	2	15	[0, 0, 0]	n/a	FR1	1	R1067P
1620.325	2.484	1003144	WORD	n/a	wordpools/wordpool_EN.txt	PASTE	3	15	[0, 0, 0]	n/a	FR1	1	R1067P
1622.809	2.517	1004386	WORD	n/a	wordpools/wordpool_EN.txt	LEAF	4	15	[0, 0, 0]	n/a	FR1	1	R1067P
1625.326	2.584	1005645	WORD	n/a	wordpools/wordpool_EN.txt	ROOT	5	15	[0, 0, 0]	n/a	FR1	1	R1067P
1627.91	2.601	1006937	WORD	n/a	wordpools/wordpool_EN.txt	NEST	6	15	[0, 0, 0]	n/a	FR1	1	R1067P
1630.511	2.483	1008237	WORD	n/a	wordpools/wordpool_EN.txt	CRANE	7	15	[0, 0, 0]	n/a	FR1	1	R1067P
1632.994	2.635	1009478	WORD	n/a	wordpools/wordpool_EN.txt	SKUNK	8	15	[0, 0, 0]	n/a	FR1	1	R1067P
1635.629	2.566	1010796	WORD	n/a	wordpools/wordpool_EN.txt	SOAP	9	15	[0, 0, 0]	n/a	FR1	1	R1067P
1638.195	2.435	1012079	WORD	n/a	wordpools/wordpool_EN.txt	TRUCK	10	15	[0, 0, 0]	n/a	FR1	1	R1067P
1640.63	2.516	1013296	WORD	n/a	wordpools/wordpool_EN.txt	HOOF	11	15	[0, 0, 0]	n/a	FR1	1	R1067P
1643.146	1.617	1014554	WORD	n/a	wordpools/wordpool_EN.txt	TREE	12	15	[0, 0, 0]	n/a	FR1	1	R1067P
1644.763	0.001	1015363	DISTRACT_START	n/a	n/a	n/a	-999	15	[0, 0, 0]	n/a	FR1	1	R1067P
1644.764	0.015	1015363	START	n/a	n/a	n/a	-999	15	[-999, -999, -999]	n/a	FR1	1	R1067P
1644.779	4.501	1015371	PROB	4.501	n/a	n/a	-999	15	[3, 4, 5]	12	FR1	1	R1067P
1649.28	4.451	1017621	PROB	4.451	n/a	n/a	-999	15	[9, 4, 1]	14	FR1	1	R1067P
1653.731	4.301	1019846	PROB	4.301	n/a	n/a	-999	15	[9, 6, 5]	20	FR1	1	R1067P
1658.032	4.184	1021997	PROB	4.184	n/a	n/a	-999	15	[6, 6, 6]	18	FR1	1	R1067P
1662.216	3.951	1024089	PROB	3.951	n/a	n/a	-999	15	[7, 5, 3]	15	FR1	1	R1067P
1666.167	0.016	1026064	STOP	n/a	n/a	n/a	-999	15	[-999, -999, -999]	n/a	FR1	1	R1067P
1666.183	1.135	1026072	DISTRACT_END	n/a	n/a	n/a	-999	15	[0, 0, 0]	n/a	FR1	1	R1067P
1667.318	6.345	1026640	REC_START	n/a	n/a	n/a	-999	15	[0, 0, 0]	n/a	FR1	1	R1067P
1673.663	2.847	1029812	REC_WORD	2.847	n/a	COVE	-999	15	[0, 0, 0]	n/a	FR1	1	R1067P
1676.51	5.556	1031235	REC_WORD_VV	5.556	n/a	<>	-999	15	[0, 0, 0]	n/a	FR1	1	R1067P
1682.066	15.262	1034013	REC_WORD	15.262	n/a	BAT	-999	15	[0, 0, 0]	n/a	FR1	1	R1067P
1697.328	2.778	1041644	REC_END	n/a	n/a	n/a	-999	15	[0, 0, 0]	n/a	FR1	1	R1067P
1700.106	0.001	1043033	COUNTDOWN_START	n/a	n/a	n/a	-999	16	[0, 0, 0]	n/a	FR1	1	R1067P
1700.107	10.427	1043033	TRIAL	n/a	n/a	n/a	-999	16	[0, 0, 0]	n/a	FR1	1	R1067P
1710.534	0.009	1048246	COUNTDOWN_END	n/a	n/a	n/a	-999	16	[0, 0, 0]	n/a	FR1	1	R1067P
1710.543	2.549	1048251	ORIENT	n/a	n/a	n/a	-999	16	[0, 0, 0]	n/a	FR1	1	R1067P
1713.092	2.418	1049525	WORD	n/a	wordpools/wordpool_EN.txt	SWAMP	1	16	[0, 0, 0]	n/a	FR1	1	R1067P
1715.51	2.417	1050734	WORD	n/a	wordpools/wordpool_EN.txt	HEN	2	16	[0, 0, 0]	n/a	FR1	1	R1067P
1717.927	2.634	1051943	WORD	n/a	wordpools/wordpool_EN.txt	HOLE	3	16	[0, 0, 0]	n/a	FR1	1	R1067P
1720.561	2.483	1053260	WORD	n/a	wordpools/wordpool_EN.txt	OWL	4	16	[0, 0, 0]	n/a	FR1	1	R1067P
1723.044	2.552	1054501	WORD	n/a	wordpools/wordpool_EN.txt	BROOM	5	16	[0, 0, 0]	n/a	FR1	1	R1067P
1725.596	2.482	1055777	WORD	n/a	wordpools/wordpool_EN.txt	TAIL	6	16	[0, 0, 0]	n/a	FR1	1	R1067P
1728.078	2.617	1057018	WORD	n/a	wordpools/wordpool_EN.txt	EEL	7	16	[0, 0, 0]	n/a	FR1	1	R1067P
1730.695	2.484	1058326	WORD	n/a	wordpools/wordpool_EN.txt	YARD	8	16	[0, 0, 0]	n/a	FR1	1	R1067P
1733.179	2.452	1059568	WORD	n/a	wordpools/wordpool_EN.txt	BREAD	9	16	[0, 0, 0]	n/a	FR1	1	R1067P
1735.631	2.483	1060794	WORD	n/a	wordpools/wordpool_EN.txt	TOAST	10	16	[0, 0, 0]	n/a	FR1	1	R1067P
1738.114	2.417	1062036	WORD	n/a	wordpools/wordpool_EN.txt	PIE	11	16	[0, 0, 0]	n/a	FR1	1	R1067P
1740.531	1.617	1063244	WORD	n/a	wordpools/wordpool_EN.txt	PEN	12	16	[0, 0, 0]	n/a	FR1	1	R1067P
1742.148	0.001	1064053	DISTRACT_START	n/a	n/a	n/a	-999	16	[0, 0, 0]	n/a	FR1	1	R1067P
1742.149	0.015	1064053	START	n/a	n/a	n/a	-999	16	[-999, -999, -999]	n/a	FR1	1	R1067P
1742.164	4.018	1064061	PROB	4.018	n/a	n/a	-999	16	[1, 2, 8]	11	FR1	1	R1067P
1746.182	4.884	1066070	PROB	4.884	n/a	n/a	-999	16	[3, 4, 7]	14	FR1	1	R1067P
1751.066	4.217	1068511	PROB	4.217	n/a	n/a	-999	16	[2, 3, 2]	7	FR1	1	R1067P
1755.283	4.269	1070620	PROB	4.269	n/a	n/a	-999	16	[5, 6, 4]	15	FR1	1	R1067P
1759.552	3.784	1072754	PROB	3.784	n/a	n/a	-999	16	[6, 3, 9]	18	FR1	1	R1067P
1763.336	0.016	1074646	STOP	n/a	n/a	n/a	-999	16	[-999, -999, -999]	n/a	FR1	1	R1067P
1763.352	1.185	1074654	DISTRACT_END	n/a	n/a	n/a	-999	16	[0, 0, 0]	n/a	FR1	1	R1067P
1764.537	0.991	1075247	REC_START	n/a	n/a	n/a	-999	16	[0, 0, 0]	n/a	FR1	1	R1067P
1765.528	1.579	1075742	REC_WORD	1.579	n/a	BREAD	-999	16	[0, 0, 0]	n/a	FR1	1	R1067P
1767.107	1.777	1076532	REC_WORD	1.777	n/a	TOAST	-999	16	[0, 0, 0]	n/a	FR1	1	R1067P
1768.884	1.55	1077420	REC_WORD	1.55	n/a	PIE	-999	16	[0, 0, 0]	n/a	FR1	1	R1067P
1770.434	24.113	1078195	REC_WORD	24.113	n/a	PAN	-999	16	[0, 0, 0]	n/a	FR1	1	R1067P
1794.547	2.794	1090251	REC_END	n/a	n/a	n/a	-999	16	[0, 0, 0]	n/a	FR1	1	R1067P
1797.341	0.001	1091648	COUNTDOWN_START	n/a	n/a	n/a	-999	17	[0, 0, 0]	n/a	FR1	1	R1067P
1797.342	10.427	1091648	TRIAL	n/a	n/a	n/a	-999	17	[0, 0, 0]	n/a	FR1	1	R1067P
1807.769	0.008	1096862	COUNTDOWN_END	n/a	n/a	n/a	-999	17	[0, 0, 0]	n/a	FR1	1	R1067P
1807.777	2.567	1096866	ORIENT	n/a	n/a	n/a	-999	17	[0, 0, 0]	n/a	FR1	1	R1067P
1810.344	2.484	1098149	WORD	n/a	wordpools/wordpool_EN.txt	WOOD	1	17	[0, 0, 0]	n/a	FR1	1	R1067P
1812.828	2.467	1099391	WORD	n/a	wordpools/wordpool_EN.txt	STOVE	2	17	[0, 0, 0]	n/a	FR1	1	R1067P
1815.295	2.433	1100624	WORD	n/a	wordpools/wordpool_EN.txt	BOX	3	17	[0, 0, 0]	n/a	FR1	1	R1067P
1817.728	2.418	1101841	WORD	n/a	wordpools/wordpool_EN.txt	HAT	4	17	[0, 0, 0]	n/a	FR1	1	R1067P
1820.146	2.533	1103050	WORD	n/a	wordpools/wordpool_EN.txt	DIME	5	17	[0, 0, 0]	n/a	FR1	1	R1067P
1822.679	2.401	1104316	WORD	n/a	wordpools/wordpool_EN.txt	BARN	6	17	[0, 0, 0]	n/a	FR1	1	R1067P
1825.08	2.435	1105517	WORD	n/a	wordpools/wordpool_EN.txt	BOOT	7	17	[0, 0, 0]	n/a	FR1	1	R1067P
1827.515	2.466	1106734	WORD	n/a	wordpools/wordpool_EN.txt	MUG	8	17	[0, 0, 0]	n/a	FR1	1	R1067P
1829.981	2.417	1107967	WORD	n/a	wordpools/wordpool_EN.txt	THUMB	9	17	[0, 0, 0]	n/a	FR1	1	R1067P
1832.398	2.484	1109175	WORD	n/a	wordpools/wordpool_EN.txt	SHIRT	10	17	[0, 0, 0]	n/a	FR1	1	R1067P
1834.882	2.5	1110417	WORD	n/a	wordpools/wordpool_EN.txt	SQUARE	11	17	[0, 0, 0]	n/a	FR1	1	R1067P
1837.382	1.617	1111667	WORD	n/a	wordpools/wordpool_EN.txt	SLIME	12	17	[0, 0, 0]	n/a	FR1	1	R1067P
1838.999	0.001	1112476	DISTRACT_START	n/a	n/a	n/a	-999	17	[0, 0, 0]	n/a	FR1	1	R1067P
1839.0	0.016	1112476	START	n/a	n/a	n/a	-999	17	[-999, -999, -999]	n/a	FR1	1	R1067P
1839.016	8.368	1112484	PROB	8.368	n/a	n/a	-999	17	[8, 8, 9]	25	FR1	1	R1067P
1847.384	4.202	1116668	PROB	4.202	n/a	n/a	-999	17	[9, 5, 7]	21	FR1	1	R1067P
1851.586	4.383	1118769	PROB	4.383	n/a	n/a	-999	17	[7, 2, 1]	10	FR1	1	R1067P
1855.969	4.527	1120960	PROB	4.527	n/a	n/a	-999	17	[3, 5, 9]	17	FR1	1	R1067P
1860.496	0.008	1123224	STOP	n/a	n/a	n/a	-999	17	[-999, -999, -999]	n/a	FR1	1	R1067P
1860.504	1.155	1123228	DISTRACT_END	n/a	n/a	n/a	-999	17	[0, 0, 0]	n/a	FR1	1	R1067P
1861.659	12.719	1123805	REC_START	n/a	n/a	n/a	-999	17	[0, 0, 0]	n/a	FR1	1	R1067P
1874.378	17.287	1130164	REC_WORD	17.287	n/a	WOOD	-999	17	[0, 0, 0]	n/a	FR1	1	R1067P
1891.665	2.678	1138807	REC_END	n/a	n/a	n/a	-999	17	[0, 0, 0]	n/a	FR1	1	R1067P
1894.343	0.0	1140146	COUNTDOWN_START	n/a	n/a	n/a	-999	18	[0, 0, 0]	n/a	FR1	1	R1067P
1894.343	10.428	1140146	TRIAL	n/a	n/a	n/a	-999	18	[0, 0, 0]	n/a	FR1	1	R1067P
1904.771	0.007	1145360	COUNTDOWN_END	n/a	n/a	n/a	-999	18	[0, 0, 0]	n/a	FR1	1	R1067P
1904.778	2.434	1145364	ORIENT	n/a	n/a	n/a	-999	18	[0, 0, 0]	n/a	FR1	1	R1067P
1907.212	2.467	1146581	WORD	n/a	wordpools/wordpool_EN.txt	JUICE	1	18	[0, 0, 0]	n/a	FR1	1	R1067P
1909.679	2.534	1147814	WORD	n/a	wordpools/wordpool_EN.txt	PEARL	2	18	[0, 0, 0]	n/a	FR1	1	R1067P
1912.213	2.517	1149081	WORD	n/a	wordpools/wordpool_EN.txt	SMILE	3	18	[0, 0, 0]	n/a	FR1	1	R1067P
1914.73	2.484	1150339	WORD	n/a	wordpools/wordpool_EN.txt	RIB	4	18	[0, 0, 0]	n/a	FR1	1	R1067P
1917.214	2.484	1151581	WORD	n/a	wordpools/wordpool_EN.txt	WORM	5	18	[0, 0, 0]	n/a	FR1	1	R1067P
1919.698	2.533	1152823	WORD	n/a	wordpools/wordpool_EN.txt	SNAIL	6	18	[0, 0, 0]	n/a	FR1	1	R1067P
1922.231	2.551	1154090	WORD	n/a	wordpools/wordpool_EN.txt	MOLE	7	18	[0, 0, 0]	n/a	FR1	1	R1067P
1924.782	2.484	1155365	WORD	n/a	wordpools/wordpool_EN.txt	BEE	8	18	[0, 0, 0]	n/a	FR1	1	R1067P
1927.266	2.384	1156607	WORD	n/a	wordpools/wordpool_EN.txt	FLEA	9	18	[0, 0, 0]	n/a	FR1	1	R1067P
1929.65	2.417	1157799	WORD	n/a	wordpools/wordpool_EN.txt	TOAD	10	18	[0, 0, 0]	n/a	FR1	1	R1067P
1932.067	2.468	1159007	WORD	n/a	wordpools/wordpool_EN.txt	TOOTH	11	18	[0, 0, 0]	n/a	FR1	1	R1067P
1934.535	1.616	1160241	WORD	n/a	wordpools/wordpool_EN.txt	ANT	12	18	[0, 0, 0]	n/a	FR1	1	R1067P
1936.151	0.0	1161049	DISTRACT_START	n/a	n/a	n/a	-999	18	[0, 0, 0]	n/a	FR1	1	R1067P
1936.151	0.016	1161049	START	n/a	n/a	n/a	-999	18	[-999, -999, -999]	n/a	FR1	1	R1067P
1936.167	4.051	1161057	PROB	4.051	n/a	n/a	-999	18	[1, 1, 4]	6	FR1	1	R1067P
1940.218	4.768	1163083	PROB	4.768	n/a	n/a	-999	18	[9, 2, 9]	20	FR1	1	R1067P
1944.986	4.817	1165467	PROB	4.817	n/a	n/a	-999	18	[7, 6, 1]	14	FR1	1	R1067P
1949.803	6.018	1167875	PROB	6.018	n/a	n/a	-999	18	[9, 8, 6]	24	FR1	1	R1067P
1955.821	4.283	1170884	PROB	4.283	n/a	n/a	-999	18	[6, 7, 1]	14	FR1	1	R1067P
1960.104	0.018	1173025	STOP	n/a	n/a	n/a	-999	18	[-999, -999, -999]	n/a	FR1	1	R1067P
1960.122	1.051	1173034	DISTRACT_END	n/a	n/a	n/a	-999	18	[0, 0, 0]	n/a	FR1	1	R1067P
1961.173	1.101	1173560	REC_START	n/a	n/a	n/a	-999	18	[0, 0, 0]	n/a	FR1	1	R1067P
1962.274	1.844	1174110	REC_WORD_VV	1.844	n/a	<>	-999	18	[0, 0, 0]	n/a	FR1	1	R1067P
1964.118	1.339	1175032	REC_WORD	1.339	n/a	ANT	-999	18	[0, 0, 0]	n/a	FR1	1	R1067P
1965.457	1.671	1175702	REC_WORD	1.671	n/a	SNAIL	-999	18	[0, 0, 0]	n/a	FR1	1	R1067P
1967.128	3.653	1176537	REC_WORD	3.653	n/a	MOLE	-999	18	[0, 0, 0]	n/a	FR1	1	R1067P
1970.781	20.402	1178363	REC_WORD	20.402	n/a	BEE	-999	18	[0, 0, 0]	n/a	FR1	1	R1067P
1991.183	3.529	1188564	REC_END	n/a	n/a	n/a	-999	18	[0, 0, 0]	n/a	FR1	1	R1067P
1994.712	0.0	1190328	TRIAL	n/a	n/a	n/a	-999	19	[0, 0, 0]	n/a	FR1	1	R1067P
1994.712	10.428	1190328	COUNTDOWN_START	n/a	n/a	n/a	-999	19	[0, 0, 0]	n/a	FR1	1	R1067P
2005.14	0.007	1195542	COUNTDOWN_END	n/a	n/a	n/a	-999	19	[0, 0, 0]	n/a	FR1	1	R1067P
2005.147	2.485	1195546	ORIENT	n/a	n/a	n/a	-999	19	[0, 0, 0]	n/a	FR1	1	R1067P
2007.632	2.499	1196788	WORD	n/a	wordpools/wordpool_EN.txt	CHIN	1	19	[0, 0, 0]	n/a	FR1	1	R1067P
2010.131	2.502	1198037	WORD	n/a	wordpools/wordpool_EN.txt	FORK	2	19	[0, 0, 0]	n/a	FR1	1	R1067P
2012.633	2.549	1199288	WORD	n/a	wordpools/wordpool_EN.txt	OAR	3	19	[0, 0, 0]	n/a	FR1	1	R1067P
2015.182	2.517	1200563	WORD	n/a	wordpools/wordpool_EN.txt	DOLL	4	19	[0, 0, 0]	n/a	FR1	1	R1067P
2017.699	2.617	1201821	WORD	n/a	wordpools/wordpool_EN.txt	DEER	5	19	[0, 0, 0]	n/a	FR1	1	R1067P
2020.316	2.617	1203130	WORD	n/a	wordpools/wordpool_EN.txt	SEAL	6	19	[0, 0, 0]	n/a	FR1	1	R1067P
2022.933	2.484	1204438	WORD	n/a	wordpools/wordpool_EN.txt	PET	7	19	[0, 0, 0]	n/a	FR1	1	R1067P
2025.417	2.467	1205680	WORD	n/a	wordpools/wordpool_EN.txt	BRUSH	8	19	[0, 0, 0]	n/a	FR1	1	R1067P
2027.884	2.368	1206913	WORD	n/a	wordpools/wordpool_EN.txt	GOAT	9	19	[0, 0, 0]	n/a	FR1	1	R1067P
2030.252	2.55	1208097	WORD	n/a	wordpools/wordpool_EN.txt	DOG	10	19	[0, 0, 0]	n/a	FR1	1	R1067P
2032.802	2.5	1209372	WORD	n/a	wordpools/wordpool_EN.txt	CAT	11	19	[0, 0, 0]	n/a	FR1	1	R1067P
2035.302	1.617	1210622	WORD	n/a	wordpools/wordpool_EN.txt	SOUP	12	19	[0, 0, 0]	n/a	FR1	1	R1067P
2036.919	0.001	1211431	DISTRACT_START	n/a	n/a	n/a	-999	19	[0, 0, 0]	n/a	FR1	1	R1067P
2036.92	0.016	1211431	START	n/a	n/a	n/a	-999	19	[-999, -999, -999]	n/a	FR1	1	R1067P
2036.936	3.484	1211439	PROB	3.484	n/a	n/a	-999	19	[3, 2, 2]	7	FR1	1	R1067P
2040.42	3.834	1213181	PROB	3.834	n/a	n/a	-999	19	[4, 3, 5]	12	FR1	1	R1067P
2044.254	4.319	1215098	PROB	4.319	n/a	n/a	-999	19	[6, 2, 5]	13	FR1	1	R1067P
2048.573	3.116	1217257	PROB	3.116	n/a	n/a	-999	19	[1, 2, 9]	12	FR1	1	R1067P
2051.689	3.284	1218815	PROB	3.284	n/a	n/a	-999	19	[2, 2, 9]	13	FR1	1	R1067P
2054.973	4.155	1220457	PROB	4.155	n/a	n/a	-999	19	[8, 2, 5]	15	FR1	1	R1067P
2059.128	0.012	1222535	STOP	n/a	n/a	n/a	-999	19	[-999, -999, -999]	n/a	FR1	1	R1067P
2059.14	1.057	1222541	DISTRACT_END	n/a	n/a	n/a	-999	19	[0, 0, 0]	n/a	FR1	1	R1067P
2060.197	1.981	1223069	REC_START	n/a	n/a	n/a	-999	19	[0, 0, 0]	n/a	FR1	1	R1067P
2062.178	1.162	1224060	REC_WORD	1.162	n/a	CAT	-999	19	[0, 0, 0]	n/a	FR1	1	R1067P
2063.34	3.367	1224641	REC_WORD	3.367	n/a	DOG	-999	19	[0, 0, 0]	n/a	FR1	1	R1067P
2066.707	23.494	1226324	REC_WORD	23.494	n/a	SEAL	-999	19	[0, 0, 0]	n/a	FR1	1	R1067P
2090.201	3.896	1238070	REC_END	n/a	n/a	n/a	-999	19	[0, 0, 0]	n/a	FR1	1	R1067P
2094.097	0.0	1240018	COUNTDOWN_START	n/a	n/a	n/a	-999	20	[0, 0, 0]	n/a	FR1	1	R1067P
2094.097	10.428	1240018	TRIAL	n/a	n/a	n/a	-999	20	[0, 0, 0]	n/a	FR1	1	R1067P
2104.525	0.008	1245232	COUNTDOWN_END	n/a	n/a	n/a	-999	20	[0, 0, 0]	n/a	FR1	1	R1067P
2104.533	2.45	1245236	ORIENT	n/a	n/a	n/a	-999	20	[0, 0, 0]	n/a	FR1	1	R1067P
2106.983	2.4	1246461	WORD	n/a	wordpools/wordpool_EN.txt	STICK	1	20	[0, 0, 0]	n/a	FR1	1	R1067P
2109.383	2.517	1247661	WORD	n/a	wordpools/wordpool_EN.txt	LAKE	2	20	[0, 0, 0]	n/a	FR1	1	R1067P
2111.9	2.401	1248919	WORD	n/a	wordpools/wordpool_EN.txt	CUBE	3	20	[0, 0, 0]	n/a	FR1	1	R1067P
2114.301	2.517	1250120	WORD	n/a	wordpools/wordpool_EN.txt	CHALK	4	20	[0, 0, 0]	n/a	FR1	1	R1067P
2116.818	2.4	1251378	WORD	n/a	wordpools/wordpool_EN.txt	GUARD	5	20	[0, 0, 0]	n/a	FR1	1	R1067P
2119.218	2.501	1252578	WORD	n/a	wordpools/wordpool_EN.txt	JAR	6	20	[0, 0, 0]	n/a	FR1	1	R1067P
2121.719	2.5	1253829	WORD	n/a	wordpools/wordpool_EN.txt	PALM	7	20	[0, 0, 0]	n/a	FR1	1	R1067P
2124.219	2.435	1255079	WORD	n/a	wordpools/wordpool_EN.txt	TENT	8	20	[0, 0, 0]	n/a	FR1	1	R1067P
2126.654	2.533	1256296	WORD	n/a	wordpools/wordpool_EN.txt	SNAKE	9	20	[0, 0, 0]	n/a	FR1	1	R1067P
2129.187	2.567	1257562	WORD	n/a	wordpools/wordpool_EN.txt	CLIFF	10	20	[0, 0, 0]	n/a	FR1	1	R1067P
2131.754	2.584	1258846	WORD	n/a	wordpools/wordpool_EN.txt	CUP	11	20	[0, 0, 0]	n/a	FR1	1	R1067P
2134.338	1.617	1260138	WORD	n/a	wordpools/wordpool_EN.txt	SINK	12	20	[0, 0, 0]	n/a	FR1	1	R1067P
2135.955	0.001	1260946	DISTRACT_START	n/a	n/a	n/a	-999	20	[0, 0, 0]	n/a	FR1	1	R1067P
2135.956	0.015	1260947	START	n/a	n/a	n/a	-999	20	[-999, -999, -999]	n/a	FR1	1	R1067P
2135.971	6.001	1260954	PROB	6.001	n/a	n/a	-999	20	[7, 8, 6]	21	FR1	1	R1067P
2141.972	4.468	1263955	PROB	4.468	n/a	n/a	-999	20	[2, 7, 4]	13	FR1	1	R1067P
2146.44	4.068	1266188	PROB	4.068	n/a	n/a	-999	20	[4, 7, 9]	20	FR1	1	R1067P
2150.508	4.118	1268222	PROB	4.118	n/a	n/a	-999	20	[4, 2, 7]	13	FR1	1	R1067P
2154.626	4.11	1270281	PROB	4.11	n/a	n/a	-999	20	[8, 2, 3]	13	FR1	1	R1067P
2158.736	0.006	1272336	STOP	n/a	n/a	n/a	-999	20	[-999, -999, -999]	n/a	FR1	1	R1067P
2158.742	1.051	1272339	DISTRACT_END	n/a	n/a	n/a	-999	20	[0, 0, 0]	n/a	FR1	1	R1067P
2159.793	29.994	1272865	REC_START	n/a	n/a	n/a	-999	20	[0, 0, 0]	n/a	FR1	1	R1067P
2189.787	0.016	1287861	REC_WORD_VV	0.016	n/a	<>	-999	20	[0, 0, 0]	n/a	FR1	1	R1067P
2189.803	2.529	1287869	REC_END	n/a	n/a	n/a	-999	20	[0, 0, 0]	n/a	FR1	1	R1067P
2192.332	0.0	1289133	TRIAL	n/a	n/a	n/a	-999	21	[0, 0, 0]	n/a	FR1	1	R1067P
2192.332	10.428	1289133	COUNTDOWN_START	n/a	n/a	n/a	-999	21	[0, 0, 0]	n/a	FR1	1	R1067P
2202.76	0.007	1294347	COUNTDOWN_END	n/a	n/a	n/a	-999	21	[0, 0, 0]	n/a	FR1	1	R1067P
2202.767	2.617	1294351	ORIENT	n/a	n/a	n/a	-999	21	[0, 0, 0]	n/a	FR1	1	R1067P
2205.384	2.534	1295659	WORD	n/a	wordpools/wordpool_EN.txt	BRIDGE	1	21	[0, 0, 0]	n/a	FR1	1	R1067P
2207.918	2.384	1296926	WORD	n/a	wordpools/wordpool_EN.txt	CAKE	2	21	[0, 0, 0]	n/a	FR1	1	R1067P
2210.302	2.567	1298118	WORD	n/a	wordpools/wordpool_EN.txt	TRAIN	3	21	[0, 0, 0]	n/a	FR1	1	R1067P
2212.869	2.4	1299401	WORD	n/a	wordpools/wordpool_EN.txt	ICE	4	21	[0, 0, 0]	n/a	FR1	1	R1067P
2215.269	2.501	1300601	WORD	n/a	wordpools/wordpool_EN.txt	JAIL	5	21	[0, 0, 0]	n/a	FR1	1	R1067P
2217.77	2.5	1301852	WORD	n/a	wordpools/wordpool_EN.txt	CHAIR	6	21	[0, 0, 0]	n/a	FR1	1	R1067P
2220.27	2.567	1303102	WORD	n/a	wordpools/wordpool_EN.txt	DART	7	21	[0, 0, 0]	n/a	FR1	1	R1067P
2222.837	2.534	1304385	WORD	n/a	wordpools/wordpool_EN.txt	BADGE	8	21	[0, 0, 0]	n/a	FR1	1	R1067P
2225.371	2.534	1305652	WORD	n/a	wordpools/wordpool_EN.txt	CLOCK	9	21	[0, 0, 0]	n/a	FR1	1	R1067P
2227.905	2.552	1306919	WORD	n/a	wordpools/wordpool_EN.txt	STREET	10	21	[0, 0, 0]	n/a	FR1	1	R1067P
2230.457	2.399	1308195	WORD	n/a	wordpools/wordpool_EN.txt	MULE	11	21	[0, 0, 0]	n/a	FR1	1	R1067P
2232.856	1.618	1309394	WORD	n/a	wordpools/wordpool_EN.txt	BENCH	12	21	[0, 0, 0]	n/a	FR1	1	R1067P
2234.474	0.001	1310203	DISTRACT_START	n/a	n/a	n/a	-999	21	[0, 0, 0]	n/a	FR1	1	R1067P
2234.475	0.016	1310204	START	n/a	n/a	n/a	-999	21	[-999, -999, -999]	n/a	FR1	1	R1067P
2234.491	4.216	1310212	PROB	4.216	n/a	n/a	-999	21	[5, 6, 1]	12	FR1	1	R1067P
2238.707	3.802	1312320	PROB	3.802	n/a	n/a	-999	21	[6, 6, 2]	14	FR1	1	R1067P
2242.509	5.25	1314221	PROB	5.25	n/a	n/a	-999	21	[7, 9, 5]	21	FR1	1	R1067P
2247.759	4.084	1316845	PROB	4.084	n/a	n/a	-999	21	[7, 3, 4]	14	FR1	1	R1067P
2251.843	3.5	1318887	PROB	3.5	n/a	n/a	-999	21	[2, 2, 1]	5	FR1	1	R1067P
2255.343	0.017	1320637	STOP	n/a	n/a	n/a	-999	21	[-999, -999, -999]	n/a	FR1	1	R1067P
2255.36	1.035	1320646	DISTRACT_END	n/a	n/a	n/a	-999	21	[0, 0, 0]	n/a	FR1	1	R1067P
2256.395	0.917	1321163	REC_START	n/a	n/a	n/a	-999	21	[0, 0, 0]	n/a	FR1	1	R1067P
2257.312	0.774	1321622	REC_WORD_VV	0.774	n/a	<>	-999	21	[0, 0, 0]	n/a	FR1	1	R1067P
2258.086	1.048	1322009	REC_WORD	1.048	n/a	BRIDGE	-999	21	[0, 0, 0]	n/a	FR1	1	R1067P
2259.134	1.065	1322533	REC_WORD	1.065	n/a	TRAIN	-999	21	[0, 0, 0]	n/a	FR1	1	R1067P
2260.199	1.216	1323065	REC_WORD	1.216	n/a	CAKE	-999	21	[0, 0, 0]	n/a	FR1	1	R1067P
2261.415	24.99	1323673	REC_WORD	24.99	n/a	ICE	-999	21	[0, 0, 0]	n/a	FR1	1	R1067P
2286.405	3.512	1336167	REC_END	n/a	n/a	n/a	-999	21	[0, 0, 0]	n/a	FR1	1	R1067P
2289.917	0.0	1337923	TRIAL	n/a	n/a	n/a	-999	22	[0, 0, 0]	n/a	FR1	1	R1067P
2289.917	10.428	1337923	COUNTDOWN_START	n/a	n/a	n/a	-999	22	[0, 0, 0]	n/a	FR1	1	R1067P
2300.345	0.007	1343137	COUNTDOWN_END	n/a	n/a	n/a	-999	22	[0, 0, 0]	n/a	FR1	1	R1067P
2300.352	2.451	1343141	ORIENT	n/a	n/a	n/a	-999	22	[0, 0, 0]	n/a	FR1	1	R1067P
2302.803	2.433	1344366	WORD	n/a	wordpools/wordpool_EN.txt	LAND	1	22	[0, 0, 0]	n/a	FR1	1	R1067P
2305.236	2.584	1345582	WORD	n/a	wordpools/wordpool_EN.txt	MAP	2	22	[0, 0, 0]	n/a	FR1	1	R1067P
2307.82	2.567	1346874	WORD	n/a	wordpools/wordpool_EN.txt	SPARK	3	22	[0, 0, 0]	n/a	FR1	1	R1067P
2310.387	2.501	1348158	WORD	n/a	wordpools/wordpool_EN.txt	WORLD	4	22	[0, 0, 0]	n/a	FR1	1	R1067P
2312.888	2.467	1349408	WORD	n/a	wordpools/wordpool_EN.txt	MOTH	5	22	[0, 0, 0]	n/a	FR1	1	R1067P
2315.355	2.45	1350642	WORD	n/a	wordpools/wordpool_EN.txt	SHEEP	6	22	[0, 0, 0]	n/a	FR1	1	R1067P
2317.805	2.517	1351867	WORD	n/a	wordpools/wordpool_EN.txt	CHIEF	7	22	[0, 0, 0]	n/a	FR1	1	R1067P
2320.322	2.517	1353125	WORD	n/a	wordpools/wordpool_EN.txt	POND	8	22	[0, 0, 0]	n/a	FR1	1	R1067P
2322.839	2.568	1354384	WORD	n/a	wordpools/wordpool_EN.txt	STEM	9	22	[0, 0, 0]	n/a	FR1	1	R1067P
2325.407	2.433	1355667	WORD	n/a	wordpools/wordpool_EN.txt	CORN	10	22	[0, 0, 0]	n/a	FR1	1	R1067P
2327.84	2.534	1356884	WORD	n/a	wordpools/wordpool_EN.txt	THREAD	11	22	[0, 0, 0]	n/a	FR1	1	R1067P
2330.374	1.617	1358151	WORD	n/a	wordpools/wordpool_EN.txt	SEED	12	22	[0, 0, 0]	n/a	FR1	1	R1067P
2331.991	0.001	1358959	DISTRACT_START	n/a	n/a	n/a	-999	22	[0, 0, 0]	n/a	FR1	1	R1067P
2331.992	0.016	1358960	START	n/a	n/a	n/a	-999	22	[-999, -999, -999]	n/a	FR1	1	R1067P
2332.008	12.62	1358968	PROB	12.62	n/a	n/a	-999	22	[9, 2, 9]	21	FR1	1	R1067P
2344.628	3.867	1365277	PROB	3.867	n/a	n/a	-999	22	[4, 7, 1]	12	FR1	1	R1067P
2348.495	4.544	1367211	PROB	4.544	n/a	n/a	-999	22	[2, 6, 5]	13	FR1	1	R1067P
2353.039	0.006	1369483	STOP	n/a	n/a	n/a	-999	22	[-999, -999, -999]	n/a	FR1	1	R1067P
2353.045	1.051	1369486	DISTRACT_END	n/a	n/a	n/a	-999	22	[0, 0, 0]	n/a	FR1	1	R1067P
2354.096	0.729	1370011	REC_START	n/a	n/a	n/a	-999	22	[0, 0, 0]	n/a	FR1	1	R1067P
2354.825	0.652	1370376	REC_WORD_VV	0.652	n/a	<>	-999	22	[0, 0, 0]	n/a	FR1	1	R1067P
2355.477	3.269	1370702	REC_WORD	3.269	n/a	LAND	-999	22	[0, 0, 0]	n/a	FR1	1	R1067P
2358.746	5.418	1372336	REC_WORD	5.418	n/a	MARK	-999	22	[0, 0, 0]	n/a	FR1	1	R1067P
2364.164	6.104	1375045	REC_WORD_VV	6.104	n/a	<>	-999	22	[0, 0, 0]	n/a	FR1	1	R1067P
2370.268	7.824	1378097	REC_WORD	7.824	n/a	SPARK	-999	22	[0, 0, 0]	n/a	FR1	1	R1067P
2378.092	6.015	1382009	REC_WORD	6.015	n/a	WORLD	-999	22	[0, 0, 0]	n/a	FR1	1	R1067P
2384.107	2.778	1385016	REC_END	n/a	n/a	n/a	-999	22	[0, 0, 0]	n/a	FR1	1	R1067P
2386.885	0.0	1386405	TRIAL	n/a	n/a	n/a	-999	23	[0, 0, 0]	n/a	FR1	1	R1067P
2386.885	10.428	1386405	COUNTDOWN_START	n/a	n/a	n/a	-999	23	[0, 0, 0]	n/a	FR1	1	R1067P
2397.313	0.007	1391619	COUNTDOWN_END	n/a	n/a	n/a	-999	23	[0, 0, 0]	n/a	FR1	1	R1067P
2397.32	2.584	1391622	ORIENT	n/a	n/a	n/a	-999	23	[0, 0, 0]	n/a	FR1	1	R1067P
2399.904	2.618	1392914	WORD	n/a	wordpools/wordpool_EN.txt	HORSE	1	23	[0, 0, 0]	n/a	FR1	1	R1067P
2402.522	2.583	1394223	WORD	n/a	wordpools/wordpool_EN.txt	BRICK	2	23	[0, 0, 0]	n/a	FR1	1	R1067P
2405.105	2.568	1395514	WORD	n/a	wordpools/wordpool_EN.txt	TEETH	3	23	[0, 0, 0]	n/a	FR1	1	R1067P
2407.673	2.516	1396798	WORD	n/a	wordpools/wordpool_EN.txt	SHRIMP	4	23	[0, 0, 0]	n/a	FR1	1	R1067P
2410.189	2.617	1398056	WORD	n/a	wordpools/wordpool_EN.txt	ZOO	5	23	[0, 0, 0]	n/a	FR1	1	R1067P
2412.806	2.551	1399365	WORD	n/a	wordpools/wordpool_EN.txt	SKI	6	23	[0, 0, 0]	n/a	FR1	1	R1067P
2415.357	2.467	1400640	WORD	n/a	wordpools/wordpool_EN.txt	GRAPE	7	23	[0, 0, 0]	n/a	FR1	1	R1067P
2417.824	2.534	1401874	WORD	n/a	wordpools/wordpool_EN.txt	BLUSH	8	23	[0, 0, 0]	n/a	FR1	1	R1067P
2420.358	2.4	1403141	WORD	n/a	wordpools/wordpool_EN.txt	MOON	9	23	[0, 0, 0]	n/a	FR1	1	R1067P
2422.758	2.601	1404341	WORD	n/a	wordpools/wordpool_EN.txt	SHIP	10	23	[0, 0, 0]	n/a	FR1	1	R1067P
2425.359	2.433	1405641	WORD	n/a	wordpools/wordpool_EN.txt	TRASH	11	23	[0, 0, 0]	n/a	FR1	1	R1067P
2427.792	1.617	1406857	WORD	n/a	wordpools/wordpool_EN.txt	BOMB	12	23	[0, 0, 0]	n/a	FR1	1	R1067P
2429.409	0.001	1407666	DISTRACT_START	n/a	n/a	n/a	-999	23	[0, 0, 0]	n/a	FR1	1	R1067P
2429.41	0.016	1407666	START	n/a	n/a	n/a	-999	23	[-999, -999, -999]	n/a	FR1	1	R1067P
2429.426	7.368	1407674	PROB	7.368	n/a	n/a	-999	23	[6, 9, 1]	16	FR1	1	R1067P
2436.794	3.869	1411358	PROB	3.869	n/a	n/a	-999	23	[8, 5, 4]	17	FR1	1	R1067P
2440.663	3.216	1413293	PROB	3.216	n/a	n/a	-999	23	[1, 7, 3]	11	FR1	1	R1067P
2443.879	4.501	1414900	PROB	4.501	n/a	n/a	-999	23	[2, 9, 3]	14	FR1	1	R1067P
2448.38	5.916	1417151	PROB	5.916	n/a	n/a	-999	23	[7, 2, 8]	17	FR1	1	R1067P
2454.296	0.018	1420109	STOP	n/a	n/a	n/a	-999	23	[-999, -999, -999]	n/a	FR1	1	R1067P
2454.314	1.035	1420118	DISTRACT_END	n/a	n/a	n/a	-999	23	[0, 0, 0]	n/a	FR1	1	R1067P
2455.349	0.558	1420635	REC_START	n/a	n/a	n/a	-999	23	[0, 0, 0]	n/a	FR1	1	R1067P
2455.907	0.549	1420914	REC_WORD_VV	0.549	n/a	<>	-999	23	[0, 0, 0]	n/a	FR1	1	R1067P
2456.456	1.515	1421189	REC_WORD	1.515	n/a	SHRIMP	-999	23	[0, 0, 0]	n/a	FR1	1	R1067P
2457.971	4.42	1421946	REC_WORD	4.42	n/a	MAP	-999	23	[0, 0, 0]	n/a	FR1	1	R1067P
2462.391	7.382	1424156	REC_WORD	7.382	n/a	ZOO	-999	23	[0, 0, 0]	n/a	FR1	1	R1067P
2469.773	15.586	1427847	REC_WORD	15.586	n/a	PAINT	-999	23	[0, 0, 0]	n/a	FR1	1	R1067P
2485.359	2.861	1435639	REC_END	n/a	n/a	n/a	-999	23	[0, 0, 0]	n/a	FR1	1	R1067P
2488.22	0.001	1437070	COUNTDOWN_START	n/a	n/a	n/a	-999	24	[0, 0, 0]	n/a	FR1	1	R1067P
2488.221	10.427	1437070	TRIAL	n/a	n/a	n/a	-999	24	[0, 0, 0]	n/a	FR1	1	R1067P
2498.648	0.009	1442284	COUNTDOWN_END	n/a	n/a	n/a	-999	24	[0, 0, 0]	n/a	FR1	1	R1067P
2498.657	2.582	1442288	ORIENT	n/a	n/a	n/a	-999	24	[0, 0, 0]	n/a	FR1	1	R1067P
2501.239	2.568	1443579	WORD	n/a	wordpools/wordpool_EN.txt	WHEEL	1	24	[0, 0, 0]	n/a	FR1	1	R1067P
2503.807	2.517	1444863	WORD	n/a	wordpools/wordpool_EN.txt	PIN	2	24	[0, 0, 0]	n/a	FR1	1	R1067P
2506.324	2.434	1446121	WORD	n/a	wordpools/wordpool_EN.txt	BAND	3	24	[0, 0, 0]	n/a	FR1	1	R1067P
2508.758	2.417	1447338	WORD	n/a	wordpools/wordpool_EN.txt	WAND	4	24	[0, 0, 0]	n/a	FR1	1	R1067P
2511.175	2.517	1448547	WORD	n/a	wordpools/wordpool_EN.txt	SKY	5	24	[0, 0, 0]	n/a	FR1	1	R1067P
2513.692	2.5	1449805	WORD	n/a	wordpools/wordpool_EN.txt	POLE	6	24	[0, 0, 0]	n/a	FR1	1	R1067P
2516.192	2.584	1451055	WORD	n/a	wordpools/wordpool_EN.txt	GLASS	7	24	[0, 0, 0]	n/a	FR1	1	R1067P
2518.776	2.617	1452347	WORD	n/a	wordpools/wordpool_EN.txt	LAWN	8	24	[0, 0, 0]	n/a	FR1	1	R1067P
2521.393	2.451	1453656	WORD	n/a	wordpools/wordpool_EN.txt	HOUSE	9	24	[0, 0, 0]	n/a	FR1	1	R1067P
2523.844	2.6	1454881	WORD	n/a	wordpools/wordpool_EN.txt	LOCK	10	24	[0, 0, 0]	n/a	FR1	1	R1067P
2526.444	2.551	1456181	WORD	n/a	wordpools/wordpool_EN.txt	CART	11	24	[0, 0, 0]	n/a	FR1	1	R1067P
2528.995	1.618	1457456	WORD	n/a	wordpools/wordpool_EN.txt	BED	12	24	[0, 0, 0]	n/a	FR1	1	R1067P
2530.613	0.001	1458265	DISTRACT_START	n/a	n/a	n/a	-999	24	[0, 0, 0]	n/a	FR1	1	R1067P
2530.614	0.015	1458266	START	n/a	n/a	n/a	-999	24	[-999, -999, -999]	n/a	FR1	1	R1067P
2530.629	5.65	1458273	PROB	5.65	n/a	n/a	-999	24	[3, 4, 8]	15	FR1	1	R1067P
2536.279	4.034	1461098	PROB	4.034	n/a	n/a	-999	24	[5, 7, 6]	18	FR1	1	R1067P
2540.313	3.202	1463115	PROB	3.202	n/a	n/a	-999	24	[8, 8, 5]	23	FR1	1	R1067P
2543.515	4.3	1464716	PROB	4.3	n/a	n/a	-999	24	[9, 4, 1]	14	FR1	1	R1067P
2547.815	5.545	1466866	PROB	5.545	n/a	n/a	-999	24	[1, 7, 8]	16	FR1	1	R1067P
2553.36	0.006	1469638	STOP	n/a	n/a	n/a	-999	24	[-999, -999, -999]	n/a	FR1	1	R1067P
2553.366	1.152	1469641	DISTRACT_END	n/a	n/a	n/a	-999	24	[0, 0, 0]	n/a	FR1	1	R1067P
2554.518	1.306	1470217	REC_START	n/a	n/a	n/a	-999	24	[0, 0, 0]	n/a	FR1	1	R1067P
2555.824	1.643	1470870	REC_WORD	1.643	n/a	SKY	-999	24	[0, 0, 0]	n/a	FR1	1	R1067P
2557.467	1.65	1471692	REC_WORD	1.65	n/a	POLE	-999	24	[0, 0, 0]	n/a	FR1	1	R1067P
2559.117	2.187	1472517	REC_WORD	2.187	n/a	GLASS	-999	24	[0, 0, 0]	n/a	FR1	1	R1067P
2561.304	23.224	1473610	REC_WORD	23.224	n/a	HOUSE	-999	24	[0, 0, 0]	n/a	FR1	1	R1067P
2584.528	3.711	1485221	REC_END	n/a	n/a	n/a	-999	24	[0, 0, 0]	n/a	FR1	1	R1067P
2588.239	0.0	1487077	TRIAL	n/a	n/a	n/a	-999	25	[0, 0, 0]	n/a	FR1	1	R1067P
2588.239	10.428	1487077	COUNTDOWN_START	n/a	n/a	n/a	-999	25	[0, 0, 0]	n/a	FR1	1	R1067P
2598.667	0.007	1492291	COUNTDOWN_END	n/a	n/a	n/a	-999	25	[0, 0, 0]	n/a	FR1	1	R1067P
2598.674	2.401	1492294	ORIENT	n/a	n/a	n/a	-999	25	[0, 0, 0]	n/a	FR1	1	R1067P
2601.075	2.501	1493495	WORD	n/a	wordpools/wordpool_EN.txt	HOOK	1	25	[0, 0, 0]	n/a	FR1	1	R1067P
2603.576	2.45	1494745	WORD	n/a	wordpools/wordpool_EN.txt	CORD	2	25	[0, 0, 0]	n/a	FR1	1	R1067P
2606.026	2.435	1495970	WORD	n/a	wordpools/wordpool_EN.txt	LAMP	3	25	[0, 0, 0]	n/a	FR1	1	R1067P
2608.461	2.432	1497187	WORD	n/a	wordpools/wordpool_EN.txt	SLUSH	4	25	[0, 0, 0]	n/a	FR1	1	R1067P
2610.893	2.501	1498403	WORD	n/a	wordpools/wordpool_EN.txt	SOCK	5	25	[0, 0, 0]	n/a	FR1	1	R1067P
2613.394	2.5	1499654	WORD	n/a	wordpools/wordpool_EN.txt	CAGE	6	25	[0, 0, 0]	n/a	FR1	1	R1067P
2615.894	2.401	1500904	WORD	n/a	wordpools/wordpool_EN.txt	HAND	7	25	[0, 0, 0]	n/a	FR1	1	R1067P
2618.295	2.584	1502104	WORD	n/a	wordpools/wordpool_EN.txt	VAN	8	25	[0, 0, 0]	n/a	FR1	1	R1067P
2620.879	2.4	1503396	WORD	n/a	wordpools/wordpool_EN.txt	MAT	9	25	[0, 0, 0]	n/a	FR1	1	R1067P
2623.279	2.434	1504596	WORD	n/a	wordpools/wordpool_EN.txt	CASH	10	25	[0, 0, 0]	n/a	FR1	1	R1067P
2625.713	2.617	1505813	WORD	n/a	wordpools/wordpool_EN.txt	BOARD	11	25	[0, 0, 0]	n/a	FR1	1	R1067P
2628.33	1.617	1507121	WORD	n/a	wordpools/wordpool_EN.txt	NAIL	12	25	[0, 0, 0]	n/a	FR1	1	R1067P
2629.947	0.001	1507930	DISTRACT_START	n/a	n/a	n/a	-999	25	[0, 0, 0]	n/a	FR1	1	R1067P
2629.948	0.015	1507930	START	n/a	n/a	n/a	-999	25	[-999, -999, -999]	n/a	FR1	1	R1067P
2629.963	5.818	1507938	PROB	5.818	n/a	n/a	-999	25	[3, 7, 6]	16	FR1	1	R1067P
2635.781	3.901	1510847	PROB	3.901	n/a	n/a	-999	25	[7, 6, 3]	16	FR1	1	R1067P
2639.682	3.067	1512797	PROB	3.067	n/a	n/a	-999	25	[5, 3, 4]	12	FR1	1	R1067P
2642.749	3.334	1514330	PROB	3.334	n/a	n/a	-999	25	[3, 8, 1]	12	FR1	1	R1067P
2646.083	4.357	1515997	PROB	4.357	n/a	n/a	-999	25	[7, 6, 4]	17	FR1	1	R1067P
2650.44	0.011	1518176	STOP	n/a	n/a	n/a	-999	25	[-999, -999, -999]	n/a	FR1	1	R1067P
2650.451	1.118	1518181	DISTRACT_END	n/a	n/a	n/a	-999	25	[0, 0, 0]	n/a	FR1	1	R1067P
2651.569	0.912	1518740	REC_START	n/a	n/a	n/a	-999	25	[0, 0, 0]	n/a	FR1	1	R1067P
2652.481	0.764	1519196	REC_WORD	0.764	n/a	HOOK	-999	25	[0, 0, 0]	n/a	FR1	1	R1067P
2653.245	0.852	1519578	REC_WORD	0.852	n/a	CORD	-999	25	[0, 0, 0]	n/a	FR1	1	R1067P
2654.097	2.276	1520004	REC_WORD	2.276	n/a	LAMP	-999	25	[0, 0, 0]	n/a	FR1	1	R1067P
2656.373	1.191	1521142	REC_WORD	1.191	n/a	MAT	-999	25	[0, 0, 0]	n/a	FR1	1	R1067P
2657.564	24.016	1521738	REC_WORD	24.016	n/a	HOUSE	-999	25	[0, 0, 0]	n/a	FR1	1	R1067P
2681.58	18.514	1533745	REC_END	n/a	n/a	n/a	-999	25	[0, 0, 0]	n/a	FR1	1	R1067P
2700.094	0.0	1543002	SESS_END	n/a	n/a	n/a	-999	25	[0, 0, 0]	n/a	FR1	1	R1067P
