onset	duration	sample	trial_type	response_time	stim_file	item_name	serialpos	list	test	answer	experiment	session	subject
0.0	2.183	66031	INSTRUCT_START	n/a	n/a	n/a	-999	-999	[0, 0, 0]	n/a	FR1	1	R1378T
2.183	45.466	68206	INSTRUCT_END	n/a	n/a	n/a	-999	-999	[0, 0, 0]	n/a	FR1	1	R1378T
47.649	10.351	113672	COUNTDOWN_START	n/a	n/a	n/a	-999	-999	[0, 0, 0]	n/a	FR1	1	R1378T
58.0	0.001	124025	COUNTDOWN_END	n/a	n/a	n/a	-999	-999	[0, 0, 0]	n/a	FR1	1	R1378T
58.001	1.949	124025	ENCODING_START	n/a	n/a	n/a	-999	-1	[0, 0, 0]	n/a	FR1	1	R1378T
59.95	1.615	125971	WORD	n/a	n/a	TONGUE	1	-1	[0, 0, 0]	n/a	FR1	1	R1378T
61.565	0.884	127586	WORD_OFF	n/a	n/a	TONGUE	1	-1	[0, 0, 0]	n/a	FR1	1	R1378T
62.449	1.6	128476	WORD	n/a	n/a	BABY	2	-1	[0, 0, 0]	n/a	FR1	1	R1378T
64.049	0.999	130066	WORD_OFF	n/a	n/a	BABY	2	-1	[0, 0, 0]	n/a	FR1	1	R1378T
65.048	1.601	131071	WORD	n/a	n/a	IMAGE	3	-1	[0, 0, 0]	n/a	FR1	1	R1378T
66.649	0.933	132673	WORD_OFF	n/a	n/a	IMAGE	3	-1	[0, 0, 0]	n/a	FR1	1	R1378T
67.582	1.617	133601	WORD	n/a	n/a	WATCH	4	-1	[0, 0, 0]	n/a	FR1	1	R1378T
69.199	0.867	135217	WORD_OFF	n/a	n/a	WATCH	4	-1	[0, 0, 0]	n/a	FR1	1	R1378T
70.066	1.616	136082	WORD	n/a	n/a	RHINO	5	-1	[0, 0, 0]	n/a	FR1	1	R1378T
71.682	0.783	137709	WORD_OFF	n/a	n/a	RHINO	5	-1	[0, 0, 0]	n/a	FR1	1	R1378T
72.465	1.601	138485	WORD	n/a	n/a	COTTON	6	-1	[0, 0, 0]	n/a	FR1	1	R1378T
74.066	0.866	140088	WORD_OFF	n/a	n/a	COTTON	6	-1	[0, 0, 0]	n/a	FR1	1	R1378T
74.932	1.6	140952	WORD	n/a	n/a	CAMEL	7	-1	[0, 0, 0]	n/a	FR1	1	R1378T
76.532	0.817	142555	WORD_OFF	n/a	n/a	CAMEL	7	-1	[0, 0, 0]	n/a	FR1	1	R1378T
77.349	1.617	143369	WORD	n/a	n/a	RING	8	-1	[0, 0, 0]	n/a	FR1	1	R1378T
78.966	0.849	144984	WORD_OFF	n/a	n/a	RING	8	-1	[0, 0, 0]	n/a	FR1	1	R1378T
79.815	1.601	145836	WORD	n/a	n/a	BEAM	9	-1	[0, 0, 0]	n/a	FR1	1	R1378T
81.416	0.9	147439	WORD_OFF	n/a	n/a	BEAM	9	-1	[0, 0, 0]	n/a	FR1	1	R1378T
82.316	1.6	148342	WORD	n/a	n/a	CHEST	10	-1	[0, 0, 0]	n/a	FR1	1	R1378T
83.916	1.0	149931	WORD_OFF	n/a	n/a	CHEST	10	-1	[0, 0, 0]	n/a	FR1	1	R1378T
84.916	1.6	150936	WORD	n/a	n/a	WAGON	11	-1	[0, 0, 0]	n/a	FR1	1	R1378T
86.516	0.8	152538	WORD_OFF	n/a	n/a	WAGON	11	-1	[0, 0, 0]	n/a	FR1	1	R1378T
87.316	1.601	153340	WORD	n/a	n/a	FLOOD	12	-1	[0, 0, 0]	n/a	FR1	1	R1378T
88.917	0.001	154938	PROB	0.001	n/a	n/a	-999	-1	[1, 1, 7]	9	FR1	1	R1378T
88.918	0.0	154939	START	n/a	n/a	n/a	-999	-1	[-999, -999, -999]	n/a	FR1	1	R1378T
88.916	0.001	154942	WORD_OFF	n/a	n/a	FLOOD	12	-1	[0, 0, 0]	n/a	FR1	1	R1378T
88.917	0.001	154942	ENCODING_END	n/a	n/a	n/a	-999	-1	[0, 0, 0]	n/a	FR1	1	R1378T
88.918	5.981	154942	DISTRACT_START	n/a	n/a	n/a	-999	-1	[0, 0, 0]	n/a	FR1	1	R1378T
94.899	4.001	160920	PROB	4.001	n/a	n/a	-999	-1	[8, 1, 6]	15	FR1	1	R1378T
98.9	2.633	164920	PROB	2.633	n/a	n/a	-999	-1	[6, 2, 1]	9	FR1	1	R1378T
101.533	4.133	167553	PROB	4.133	n/a	n/a	-999	-1	[6, 4, 5]	15	FR1	1	R1378T
105.666	4.15	171686	PROB	4.15	n/a	n/a	-999	-1	[6, 6, 7]	19	FR1	1	R1378T
109.816	0.0	175836	STOP	n/a	n/a	n/a	-999	-1	[-999, -999, -999]	n/a	FR1	1	R1378T
109.816	1.067	175838	DISTRACT_END	n/a	n/a	n/a	-999	-1	[0, 0, 0]	n/a	FR1	1	R1378T
110.883	3.573	176906	REC_START	n/a	n/a	n/a	-999	-1	[0, 0, 0]	n/a	FR1	1	R1378T
114.456	1.19	180475	REC_WORD	1.19	n/a	TONGUE	1	-1	[0, 0, 0]	n/a	FR1	1	R1378T
115.646	0.71	181665	REC_WORD_VV	0.71	n/a	<>	-999	-1	[0, 0, 0]	n/a	FR1	1	R1378T
116.356	2.725	182375	REC_WORD	2.725	n/a	CHEST	10	-1	[0, 0, 0]	n/a	FR1	1	R1378T
119.081	5.57	185100	REC_WORD	5.57	n/a	BEEP	-999	-1	[0, 0, 0]	n/a	FR1	1	R1378T
124.651	16.523	190670	REC_WORD_VV	16.523	n/a	<>	-999	-1	[0, 0, 0]	n/a	FR1	1	R1378T
141.174	14.325	207187	REC_END	n/a	n/a	n/a	-999	-1	[0, 0, 0]	n/a	FR1	1	R1378T
155.499	10.351	221521	COUNTDOWN_START	n/a	n/a	n/a	-999	1	[0, 0, 0]	n/a	FR1	1	R1378T
165.85	0.0	231860	COUNTDOWN_END	n/a	n/a	n/a	-999	1	[0, 0, 0]	n/a	FR1	1	R1378T
165.85	2.099	231873	ENCODING_START	n/a	n/a	n/a	-999	1	[0, 0, 0]	n/a	FR1	1	R1378T
167.949	1.6	233971	WORD	n/a	wordpools/wordpool_short_EN.txt	SLUSH	1	1	[0, 0, 0]	n/a	FR1	1	R1378T
169.549	0.767	235561	WORD_OFF	n/a	n/a	SLUSH	1	1	[0, 0, 0]	n/a	FR1	1	R1378T
170.316	1.6	236337	WORD	n/a	wordpools/wordpool_short_EN.txt	SHOE	2	1	[0, 0, 0]	n/a	FR1	1	R1378T
171.916	1.0	237927	WORD_OFF	n/a	n/a	SHOE	2	1	[0, 0, 0]	n/a	FR1	1	R1378T
172.916	1.6	238931	WORD	n/a	wordpools/wordpool_short_EN.txt	CHEEK	3	1	[0, 0, 0]	n/a	FR1	1	R1378T
174.516	1.0	240534	WORD_OFF	n/a	n/a	CHEEK	3	1	[0, 0, 0]	n/a	FR1	1	R1378T
175.516	1.6	241526	WORD	n/a	wordpools/wordpool_short_EN.txt	STICK	4	1	[0, 0, 0]	n/a	FR1	1	R1378T
177.116	0.833	243128	WORD_OFF	n/a	n/a	STICK	4	1	[0, 0, 0]	n/a	FR1	1	R1378T
177.949	1.617	243968	WORD	n/a	wordpools/wordpool_short_EN.txt	APE	5	1	[0, 0, 0]	n/a	FR1	1	R1378T
179.566	0.9	245583	WORD_OFF	n/a	n/a	APE	5	1	[0, 0, 0]	n/a	FR1	1	R1378T
180.466	1.6	246486	WORD	n/a	wordpools/wordpool_short_EN.txt	BRIDGE	6	1	[0, 0, 0]	n/a	FR1	1	R1378T
182.066	0.933	248076	WORD_OFF	n/a	n/a	BRIDGE	6	1	[0, 0, 0]	n/a	FR1	1	R1378T
182.999	1.6	249017	WORD	n/a	wordpools/wordpool_short_EN.txt	GOWN	7	1	[0, 0, 0]	n/a	FR1	1	R1378T
184.599	0.833	250619	WORD_OFF	n/a	n/a	GOWN	7	1	[0, 0, 0]	n/a	FR1	1	R1378T
185.432	1.6	251446	WORD	n/a	wordpools/wordpool_short_EN.txt	RAKE	8	1	[0, 0, 0]	n/a	FR1	1	R1378T
187.032	0.95	253048	WORD_OFF	n/a	n/a	RAKE	8	1	[0, 0, 0]	n/a	FR1	1	R1378T
187.982	1.6	254002	WORD	n/a	wordpools/wordpool_short_EN.txt	HARP	9	1	[0, 0, 0]	n/a	FR1	1	R1378T
189.582	0.8	255592	WORD_OFF	n/a	n/a	HARP	9	1	[0, 0, 0]	n/a	FR1	1	R1378T
190.382	1.6	256393	WORD	n/a	wordpools/wordpool_short_EN.txt	CLOTH	10	1	[0, 0, 0]	n/a	FR1	1	R1378T
191.982	0.833	257996	WORD_OFF	n/a	n/a	CLOTH	10	1	[0, 0, 0]	n/a	FR1	1	R1378T
192.815	1.601	258835	WORD	n/a	wordpools/wordpool_short_EN.txt	NAIL	11	1	[0, 0, 0]	n/a	FR1	1	R1378T
194.416	0.866	260437	WORD_OFF	n/a	n/a	NAIL	11	1	[0, 0, 0]	n/a	FR1	1	R1378T
195.282	1.6	261302	WORD	n/a	wordpools/wordpool_short_EN.txt	TOY	12	1	[0, 0, 0]	n/a	FR1	1	R1378T
196.882	0.001	262892	WORD_OFF	n/a	n/a	TOY	12	1	[0, 0, 0]	n/a	FR1	1	R1378T
196.883	0.001	262898	PROB	0.001	n/a	n/a	-999	1	[6, 5, 7]	18	FR1	1	R1378T
196.884	0.0	262899	START	n/a	n/a	n/a	-999	1	[-999, -999, -999]	n/a	FR1	1	R1378T
196.884	0.0	262905	ENCODING_END	n/a	n/a	n/a	-999	1	[0, 0, 0]	n/a	FR1	1	R1378T
196.884	3.964	262905	DISTRACT_START	n/a	n/a	n/a	-999	1	[0, 0, 0]	n/a	FR1	1	R1378T
200.848	2.452	266863	PROB	2.452	n/a	n/a	-999	1	[3, 5, 1]	9	FR1	1	R1378T
203.3	3.667	269315	PROB	3.667	n/a	n/a	-999	1	[2, 1, 3]	6	FR1	1	R1378T
206.967	4.065	272982	PROB	4.065	n/a	n/a	-999	1	[3, 4, 5]	12	FR1	1	R1378T
211.032	3.783	277046	PROB	3.783	n/a	n/a	-999	1	[1, 8, 4]	13	FR1	1	R1378T
214.815	4.3	280829	PROB	4.3	n/a	n/a	-999	1	[3, 5, 8]	16	FR1	1	R1378T
219.115	0.0	285123	DISTRACT_END	n/a	n/a	n/a	-999	1	[0, 0, 0]	n/a	FR1	1	R1378T
219.115	1.2	285129	STOP	n/a	n/a	n/a	-999	1	[-999, -999, -999]	n/a	FR1	1	R1378T
220.315	3.417	286331	REC_START	n/a	n/a	n/a	-999	1	[0, 0, 0]	n/a	FR1	1	R1378T
223.732	0.716	289746	REC_WORD	0.716	n/a	RAKE	8	1	[0, 0, 0]	n/a	FR1	1	R1378T
224.448	0.712	290462	REC_WORD	0.712	n/a	NAIL	11	1	[0, 0, 0]	n/a	FR1	1	R1378T
225.16	0.648	291174	REC_WORD	0.648	n/a	APE	5	1	[0, 0, 0]	n/a	FR1	1	R1378T
225.808	2.332	291822	REC_WORD	2.332	n/a	SLUSH	1	1	[0, 0, 0]	n/a	FR1	1	R1378T
228.14	1.183	294153	REC_WORD	1.183	n/a	WING	-999	1	[0, 0, 0]	n/a	FR1	1	R1378T
229.323	8.396	295336	REC_WORD_VV	8.396	n/a	<>	-999	1	[0, 0, 0]	n/a	FR1	1	R1378T
237.719	12.868	303732	REC_WORD	12.868	n/a	CRUSH	-999	1	[0, 0, 0]	n/a	FR1	1	R1378T
250.587	1.645	316600	REC_END	n/a	n/a	n/a	-999	1	[0, 0, 0]	n/a	FR1	1	R1378T
252.232	10.351	318240	COUNTDOWN_START	n/a	n/a	n/a	-999	2	[0, 0, 0]	n/a	FR1	1	R1378T
262.583	0.0	328593	COUNTDOWN_END	n/a	n/a	n/a	-999	2	[0, 0, 0]	n/a	FR1	1	R1378T
262.583	2.283	328593	ENCODING_START	n/a	n/a	n/a	-999	2	[0, 0, 0]	n/a	FR1	1	R1378T
264.866	1.615	330882	WORD	n/a	wordpools/wordpool_short_EN.txt	SMOKE	1	2	[0, 0, 0]	n/a	FR1	1	R1378T
266.481	0.917	332497	WORD_OFF	n/a	n/a	SMOKE	1	2	[0, 0, 0]	n/a	FR1	1	R1378T
267.398	1.601	333413	WORD	n/a	wordpools/wordpool_short_EN.txt	BLADE	2	2	[0, 0, 0]	n/a	FR1	1	R1378T
268.999	0.967	335015	WORD_OFF	n/a	n/a	BLADE	2	2	[0, 0, 0]	n/a	FR1	1	R1378T
269.966	1.616	335982	WORD	n/a	wordpools/wordpool_short_EN.txt	DITCH	3	2	[0, 0, 0]	n/a	FR1	1	R1378T
271.582	0.884	337597	WORD_OFF	n/a	n/a	DITCH	3	2	[0, 0, 0]	n/a	FR1	1	R1378T
272.466	1.616	338475	WORD	n/a	wordpools/wordpool_short_EN.txt	BROOM	4	2	[0, 0, 0]	n/a	FR1	1	R1378T
274.082	0.834	340090	WORD_OFF	n/a	n/a	BROOM	4	2	[0, 0, 0]	n/a	FR1	1	R1378T
274.916	1.616	340929	WORD	n/a	wordpools/wordpool_short_EN.txt	CHAIN	5	2	[0, 0, 0]	n/a	FR1	1	R1378T
276.532	0.984	342544	WORD_OFF	n/a	n/a	CHAIN	5	2	[0, 0, 0]	n/a	FR1	1	R1378T
277.516	1.616	343524	WORD	n/a	wordpools/wordpool_short_EN.txt	BOOT	6	2	[0, 0, 0]	n/a	FR1	1	R1378T
279.132	0.834	345139	WORD_OFF	n/a	n/a	BOOT	6	2	[0, 0, 0]	n/a	FR1	1	R1378T
279.966	1.6	345978	WORD	n/a	wordpools/wordpool_short_EN.txt	LOCK	7	2	[0, 0, 0]	n/a	FR1	1	R1378T
281.566	0.8	347581	WORD_OFF	n/a	n/a	LOCK	7	2	[0, 0, 0]	n/a	FR1	1	R1378T
282.366	1.616	348382	WORD	n/a	wordpools/wordpool_short_EN.txt	FENCE	8	2	[0, 0, 0]	n/a	FR1	1	R1378T
283.982	0.9	349997	WORD_OFF	n/a	n/a	FENCE	8	2	[0, 0, 0]	n/a	FR1	1	R1378T
284.882	1.617	350887	WORD	n/a	wordpools/wordpool_short_EN.txt	SHELL	9	2	[0, 0, 0]	n/a	FR1	1	R1378T
286.499	0.883	352515	WORD_OFF	n/a	n/a	SHELL	9	2	[0, 0, 0]	n/a	FR1	1	R1378T
287.382	1.617	353393	WORD	n/a	wordpools/wordpool_short_EN.txt	STORM	10	2	[0, 0, 0]	n/a	FR1	1	R1378T
288.999	1.0	355008	WORD_OFF	n/a	n/a	STORM	10	2	[0, 0, 0]	n/a	FR1	1	R1378T
289.999	1.6	356013	WORD	n/a	wordpools/wordpool_short_EN.txt	THROAT	11	2	[0, 0, 0]	n/a	FR1	1	R1378T
291.599	0.983	357615	WORD_OFF	n/a	n/a	THROAT	11	2	[0, 0, 0]	n/a	FR1	1	R1378T
292.582	1.618	358595	WORD	n/a	wordpools/wordpool_short_EN.txt	ROCK	12	2	[0, 0, 0]	n/a	FR1	1	R1378T
294.2	0.001	360210	WORD_OFF	n/a	n/a	ROCK	12	2	[0, 0, 0]	n/a	FR1	1	R1378T
294.201	0.0	360210	ENCODING_END	n/a	n/a	n/a	-999	2	[0, 0, 0]	n/a	FR1	1	R1378T
294.201	0.0	360210	DISTRACT_START	n/a	n/a	n/a	-999	2	[0, 0, 0]	n/a	FR1	1	R1378T
294.2	0.001	360210	PROB	0.001	n/a	n/a	-999	2	[4, 7, 8]	19	FR1	1	R1378T
294.201	4.248	360211	START	n/a	n/a	n/a	-999	2	[-999, -999, -999]	n/a	FR1	1	R1378T
298.449	3.118	364459	PROB	3.118	n/a	n/a	-999	2	[4, 1, 1]	6	FR1	1	R1378T
301.567	3.199	367577	PROB	3.199	n/a	n/a	-999	2	[7, 4, 4]	15	FR1	1	R1378T
304.766	2.8	370775	PROB	2.8	n/a	n/a	-999	2	[1, 1, 6]	8	FR1	1	R1378T
307.566	2.784	373575	PROB	2.784	n/a	n/a	-999	2	[3, 6, 2]	11	FR1	1	R1378T
310.35	3.683	376359	PROB	3.683	n/a	n/a	-999	2	[2, 2, 6]	10	FR1	1	R1378T
314.033	4.332	380042	PROB	4.332	n/a	n/a	-999	2	[7, 5, 6]	18	FR1	1	R1378T
318.365	0.0	384374	DISTRACT_END	n/a	n/a	n/a	-999	2	[0, 0, 0]	n/a	FR1	1	R1378T
318.365	1.05	384374	STOP	n/a	n/a	n/a	-999	2	[-999, -999, -999]	n/a	FR1	1	R1378T
319.415	3.372	385429	REC_START	n/a	n/a	n/a	-999	2	[0, 0, 0]	n/a	FR1	1	R1378T
322.787	0.948	388795	REC_WORD	0.948	n/a	BOOT	6	2	[0, 0, 0]	n/a	FR1	1	R1378T
323.735	0.792	389743	REC_WORD	0.792	n/a	ROCK	12	2	[0, 0, 0]	n/a	FR1	1	R1378T
324.527	1.002	390535	REC_WORD	1.002	n/a	CHAIN	5	2	[0, 0, 0]	n/a	FR1	1	R1378T
325.529	3.104	391537	REC_WORD	3.104	n/a	SMOKE	1	2	[0, 0, 0]	n/a	FR1	1	R1378T
328.633	0.985	394641	REC_WORD	0.985	n/a	STORM	10	2	[0, 0, 0]	n/a	FR1	1	R1378T
329.618	20.04	395626	REC_WORD	20.04	n/a	SHELL	9	2	[0, 0, 0]	n/a	FR1	1	R1378T
349.658	1.623	415660	REC_END	n/a	n/a	n/a	-999	2	[0, 0, 0]	n/a	FR1	1	R1378T
351.281	10.352	417288	COUNTDOWN_START	n/a	n/a	n/a	-999	3	[0, 0, 0]	n/a	FR1	1	R1378T
361.633	0.0	427640	COUNTDOWN_END	n/a	n/a	n/a	-999	3	[0, 0, 0]	n/a	FR1	1	R1378T
361.633	1.966	427640	ENCODING_START	n/a	n/a	n/a	-999	3	[0, 0, 0]	n/a	FR1	1	R1378T
363.599	1.617	429611	WORD	n/a	wordpools/wordpool_short_EN.txt	RIB	1	3	[0, 0, 0]	n/a	FR1	1	R1378T
365.216	0.982	431227	WORD_OFF	n/a	n/a	RIB	1	3	[0, 0, 0]	n/a	FR1	1	R1378T
366.198	1.601	432206	WORD	n/a	wordpools/wordpool_short_EN.txt	GEESE	2	3	[0, 0, 0]	n/a	FR1	1	R1378T
367.799	0.783	433808	WORD_OFF	n/a	n/a	GEESE	2	3	[0, 0, 0]	n/a	FR1	1	R1378T
368.582	1.617	434584	WORD	n/a	wordpools/wordpool_short_EN.txt	CHIEF	3	3	[0, 0, 0]	n/a	FR1	1	R1378T
370.199	0.767	436199	WORD_OFF	n/a	n/a	CHIEF	3	3	[0, 0, 0]	n/a	FR1	1	R1378T
370.966	1.6	436975	WORD	n/a	wordpools/wordpool_short_EN.txt	PILL	4	3	[0, 0, 0]	n/a	FR1	1	R1378T
372.566	0.933	438578	WORD_OFF	n/a	n/a	PILL	4	3	[0, 0, 0]	n/a	FR1	1	R1378T
373.499	1.6	439506	WORD	n/a	wordpools/wordpool_short_EN.txt	GATE	5	3	[0, 0, 0]	n/a	FR1	1	R1378T
375.099	0.834	441108	WORD_OFF	n/a	n/a	GATE	5	3	[0, 0, 0]	n/a	FR1	1	R1378T
375.933	1.616	441935	WORD	n/a	wordpools/wordpool_short_EN.txt	CLOCK	6	3	[0, 0, 0]	n/a	FR1	1	R1378T
377.549	0.983	443550	WORD_OFF	n/a	n/a	CLOCK	6	3	[0, 0, 0]	n/a	FR1	1	R1378T
378.532	1.6	444542	WORD	n/a	wordpools/wordpool_short_EN.txt	STEAK	7	3	[0, 0, 0]	n/a	FR1	1	R1378T
380.132	0.884	446132	WORD_OFF	n/a	n/a	STEAK	7	3	[0, 0, 0]	n/a	FR1	1	R1378T
381.016	1.6	447022	WORD	n/a	wordpools/wordpool_short_EN.txt	ROOT	8	3	[0, 0, 0]	n/a	FR1	1	R1378T
382.616	0.833	448625	WORD_OFF	n/a	n/a	ROOT	8	3	[0, 0, 0]	n/a	FR1	1	R1378T
383.449	1.6	449451	WORD	n/a	wordpools/wordpool_short_EN.txt	PLATE	9	3	[0, 0, 0]	n/a	FR1	1	R1378T
385.049	1.0	451054	WORD_OFF	n/a	n/a	PLATE	9	3	[0, 0, 0]	n/a	FR1	1	R1378T
386.049	1.617	452059	WORD	n/a	wordpools/wordpool_short_EN.txt	FOOD	10	3	[0, 0, 0]	n/a	FR1	1	R1378T
387.666	0.999	453674	WORD_OFF	n/a	n/a	FOOD	10	3	[0, 0, 0]	n/a	FR1	1	R1378T
388.665	1.601	454666	WORD	n/a	wordpools/wordpool_short_EN.txt	MAT	11	3	[0, 0, 0]	n/a	FR1	1	R1378T
390.266	0.933	456268	WORD_OFF	n/a	n/a	MAT	11	3	[0, 0, 0]	n/a	FR1	1	R1378T
391.199	1.617	457209	WORD	n/a	wordpools/wordpool_short_EN.txt	RUG	12	3	[0, 0, 0]	n/a	FR1	1	R1378T
392.816	0.001	458821	PROB	0.001	n/a	n/a	-999	3	[5, 8, 1]	14	FR1	1	R1378T
392.817	0.0	458822	START	n/a	n/a	n/a	-999	3	[-999, -999, -999]	n/a	FR1	1	R1378T
392.815	0.002	458825	WORD_OFF	n/a	n/a	RUG	12	3	[0, 0, 0]	n/a	FR1	1	R1378T
392.817	0.0	458825	ENCODING_END	n/a	n/a	n/a	-999	3	[0, 0, 0]	n/a	FR1	1	R1378T
392.817	3.782	458825	DISTRACT_START	n/a	n/a	n/a	-999	3	[0, 0, 0]	n/a	FR1	1	R1378T
396.599	2.551	462604	PROB	2.551	n/a	n/a	-999	3	[2, 5, 2]	9	FR1	1	R1378T
399.15	3.166	465154	PROB	3.166	n/a	n/a	-999	3	[8, 4, 6]	18	FR1	1	R1378T
402.316	3.267	468320	PROB	3.267	n/a	n/a	-999	3	[5, 7, 2]	14	FR1	1	R1378T
405.583	3.367	471587	PROB	3.367	n/a	n/a	-999	3	[7, 1, 8]	16	FR1	1	R1378T
408.95	3.216	474954	PROB	3.216	n/a	n/a	-999	3	[1, 1, 8]	10	FR1	1	R1378T
412.166	4.799	478170	PROB	4.799	n/a	n/a	-999	3	[7, 1, 7]	15	FR1	1	R1378T
416.965	0.0	482963	DISTRACT_END	n/a	n/a	n/a	-999	3	[0, 0, 0]	n/a	FR1	1	R1378T
416.965	1.134	482969	STOP	n/a	n/a	n/a	-999	3	[-999, -999, -999]	n/a	FR1	1	R1378T
418.099	5.535	484108	REC_START	n/a	n/a	n/a	-999	3	[0, 0, 0]	n/a	FR1	1	R1378T
423.634	0.821	489637	REC_WORD	0.821	n/a	RIB	1	3	[0, 0, 0]	n/a	FR1	1	R1378T
424.455	2.662	490458	REC_WORD	2.662	n/a	ROCK	-999	3	[0, 0, 0]	n/a	FR1	1	R1378T
427.117	4.46	493120	REC_WORD	4.46	n/a	STEAK	7	3	[0, 0, 0]	n/a	FR1	1	R1378T
431.577	7.952	497580	REC_WORD	7.952	n/a	CHEST	-999	3	[0, 0, 0]	n/a	FR1	1	R1378T
439.529	4.272	505531	REC_WORD	4.272	n/a	CHAIN	-999	3	[0, 0, 0]	n/a	FR1	1	R1378T
443.801	0.913	509803	REC_WORD	0.913	n/a	TUG	-999	3	[0, 0, 0]	n/a	FR1	1	R1378T
444.714	3.618	510716	REC_WORD	3.618	n/a	DIRT	-999	3	[0, 0, 0]	n/a	FR1	1	R1378T
448.332	1.867	514338	REC_END	n/a	n/a	n/a	-999	3	[0, 0, 0]	n/a	FR1	1	R1378T
450.199	10.351	516208	COUNTDOWN_START	n/a	n/a	n/a	-999	4	[0, 0, 0]	n/a	FR1	1	R1378T
460.55	0.0	526548	COUNTDOWN_END	n/a	n/a	n/a	-999	4	[0, 0, 0]	n/a	FR1	1	R1378T
460.55	2.099	526548	ENCODING_START	n/a	n/a	n/a	-999	4	[0, 0, 0]	n/a	FR1	1	R1378T
462.649	1.6	528646	WORD	n/a	wordpools/wordpool_short_EN.txt	COIN	1	4	[0, 0, 0]	n/a	FR1	1	R1378T
464.249	0.783	530249	WORD_OFF	n/a	n/a	COIN	1	4	[0, 0, 0]	n/a	FR1	1	R1378T
465.032	1.601	531037	WORD	n/a	wordpools/wordpool_short_EN.txt	SAUCE	2	4	[0, 0, 0]	n/a	FR1	1	R1378T
466.633	0.949	532640	WORD_OFF	n/a	n/a	SAUCE	2	4	[0, 0, 0]	n/a	FR1	1	R1378T
467.582	1.6	533581	WORD	n/a	wordpools/wordpool_short_EN.txt	LIP	3	4	[0, 0, 0]	n/a	FR1	1	R1378T
469.182	1.0	535183	WORD_OFF	n/a	n/a	LIP	3	4	[0, 0, 0]	n/a	FR1	1	R1378T
470.182	1.6	536188	WORD	n/a	wordpools/wordpool_short_EN.txt	BOWL	4	4	[0, 0, 0]	n/a	FR1	1	R1378T
471.782	0.983	537778	WORD_OFF	n/a	n/a	BOWL	4	4	[0, 0, 0]	n/a	FR1	1	R1378T
472.765	1.601	538770	WORD	n/a	wordpools/wordpool_short_EN.txt	GLOVE	5	4	[0, 0, 0]	n/a	FR1	1	R1378T
474.366	0.85	540372	WORD_OFF	n/a	n/a	GLOVE	5	4	[0, 0, 0]	n/a	FR1	1	R1378T
475.216	1.616	541211	WORD	n/a	wordpools/wordpool_short_EN.txt	SKI	6	4	[0, 0, 0]	n/a	FR1	1	R1378T
476.832	0.984	542839	WORD_OFF	n/a	n/a	SKI	6	4	[0, 0, 0]	n/a	FR1	1	R1378T
477.816	1.6	543819	WORD	n/a	wordpools/wordpool_short_EN.txt	STAIR	7	4	[0, 0, 0]	n/a	FR1	1	R1378T
479.416	0.966	545421	WORD_OFF	n/a	n/a	STAIR	7	4	[0, 0, 0]	n/a	FR1	1	R1378T
480.382	1.6	546388	WORD	n/a	wordpools/wordpool_short_EN.txt	GLASS	8	4	[0, 0, 0]	n/a	FR1	1	R1378T
481.982	0.967	547977	WORD_OFF	n/a	n/a	GLASS	8	4	[0, 0, 0]	n/a	FR1	1	R1378T
482.949	1.6	548944	WORD	n/a	wordpools/wordpool_short_EN.txt	NEST	9	4	[0, 0, 0]	n/a	FR1	1	R1378T
484.549	0.95	550546	WORD_OFF	n/a	n/a	NEST	9	4	[0, 0, 0]	n/a	FR1	1	R1378T
485.499	1.617	551500	WORD	n/a	wordpools/wordpool_short_EN.txt	CASH	10	4	[0, 0, 0]	n/a	FR1	1	R1378T
487.116	0.966	553115	WORD_OFF	n/a	n/a	CASH	10	4	[0, 0, 0]	n/a	FR1	1	R1378T
488.082	1.6	554082	WORD	n/a	wordpools/wordpool_short_EN.txt	VASE	11	4	[0, 0, 0]	n/a	FR1	1	R1378T
489.682	0.85	555684	WORD_OFF	n/a	n/a	VASE	11	4	[0, 0, 0]	n/a	FR1	1	R1378T
490.532	1.601	556536	WORD	n/a	wordpools/wordpool_short_EN.txt	WHEAT	12	4	[0, 0, 0]	n/a	FR1	1	R1378T
492.133	0.0	558126	WORD_OFF	n/a	n/a	WHEAT	12	4	[0, 0, 0]	n/a	FR1	1	R1378T
492.133	0.001	558133	PROB	0.001	n/a	n/a	-999	4	[1, 8, 6]	15	FR1	1	R1378T
492.134	0.0	558134	START	n/a	n/a	n/a	-999	4	[-999, -999, -999]	n/a	FR1	1	R1378T
492.134	0.0	558139	ENCODING_END	n/a	n/a	n/a	-999	4	[0, 0, 0]	n/a	FR1	1	R1378T
492.134	4.648	558139	DISTRACT_START	n/a	n/a	n/a	-999	4	[0, 0, 0]	n/a	FR1	1	R1378T
496.782	3.567	562781	PROB	3.567	n/a	n/a	-999	4	[6, 5, 7]	18	FR1	1	R1378T
500.349	3.234	566348	PROB	3.234	n/a	n/a	-999	4	[7, 6, 4]	17	FR1	1	R1378T
503.583	4.133	569582	PROB	4.133	n/a	n/a	-999	4	[8, 1, 6]	15	FR1	1	R1378T
507.716	3.651	573715	PROB	3.651	n/a	n/a	-999	4	[1, 6, 3]	10	FR1	1	R1378T
511.367	5.065	577366	PROB	5.065	n/a	n/a	-999	4	[8, 4, 4]	16	FR1	1	R1378T
516.432	0.0	582430	DISTRACT_END	n/a	n/a	n/a	-999	4	[0, 0, 0]	n/a	FR1	1	R1378T
516.432	1.334	582430	STOP	n/a	n/a	n/a	-999	4	[-999, -999, -999]	n/a	FR1	1	R1378T
517.766	3.54	583766	REC_START	n/a	n/a	n/a	-999	4	[0, 0, 0]	n/a	FR1	1	R1378T
521.306	0.744	587304	REC_WORD	0.744	n/a	SKI	6	4	[0, 0, 0]	n/a	FR1	1	R1378T
522.05	6.907	588048	REC_WORD	6.907	n/a	VASE	11	4	[0, 0, 0]	n/a	FR1	1	R1378T
528.957	9.981	594955	REC_WORD	9.981	n/a	CHAIN	-999	4	[0, 0, 0]	n/a	FR1	1	R1378T
538.938	1.735	604935	REC_WORD	1.735	n/a	WHEAT	12	4	[0, 0, 0]	n/a	FR1	1	R1378T
540.673	7.351	606670	REC_WORD_VV	7.351	n/a	<>	-999	4	[0, 0, 0]	n/a	FR1	1	R1378T
548.024	1.909	614022	REC_END	n/a	n/a	n/a	-999	4	[0, 0, 0]	n/a	FR1	1	R1378T
549.933	10.35	615929	COUNTDOWN_START	n/a	n/a	n/a	-999	5	[0, 0, 0]	n/a	FR1	1	R1378T
560.283	0.0	626282	COUNTDOWN_END	n/a	n/a	n/a	-999	5	[0, 0, 0]	n/a	FR1	1	R1378T
560.283	1.966	626282	ENCODING_START	n/a	n/a	n/a	-999	5	[0, 0, 0]	n/a	FR1	1	R1378T
562.249	1.616	628240	WORD	n/a	wordpools/wordpool_short_EN.txt	TIN	1	5	[0, 0, 0]	n/a	FR1	1	R1378T
563.865	0.934	629855	WORD_OFF	n/a	n/a	TIN	1	5	[0, 0, 0]	n/a	FR1	1	R1378T
564.799	1.617	630797	WORD	n/a	wordpools/wordpool_short_EN.txt	MUG	2	5	[0, 0, 0]	n/a	FR1	1	R1378T
566.416	0.916	632412	WORD_OFF	n/a	n/a	MUG	2	5	[0, 0, 0]	n/a	FR1	1	R1378T
567.332	1.6	633327	WORD	n/a	wordpools/wordpool_short_EN.txt	RAMP	3	5	[0, 0, 0]	n/a	FR1	1	R1378T
568.932	0.85	634930	WORD_OFF	n/a	n/a	RAMP	3	5	[0, 0, 0]	n/a	FR1	1	R1378T
569.782	1.617	635782	WORD	n/a	wordpools/wordpool_short_EN.txt	TOOTH	4	5	[0, 0, 0]	n/a	FR1	1	R1378T
571.399	0.867	637397	WORD_OFF	n/a	n/a	TOOTH	4	5	[0, 0, 0]	n/a	FR1	1	R1378T
572.266	1.6	638262	WORD	n/a	wordpools/wordpool_short_EN.txt	FOX	5	5	[0, 0, 0]	n/a	FR1	1	R1378T
573.866	0.95	639864	WORD_OFF	n/a	n/a	FOX	5	5	[0, 0, 0]	n/a	FR1	1	R1378T
574.816	1.6	640806	WORD	n/a	wordpools/wordpool_short_EN.txt	BANK	6	5	[0, 0, 0]	n/a	FR1	1	R1378T
576.416	0.965	642408	WORD_OFF	n/a	n/a	BANK	6	5	[0, 0, 0]	n/a	FR1	1	R1378T
577.381	1.601	643375	WORD	n/a	wordpools/wordpool_short_EN.txt	EARTH	7	5	[0, 0, 0]	n/a	FR1	1	R1378T
578.982	0.867	644977	WORD_OFF	n/a	n/a	EARTH	7	5	[0, 0, 0]	n/a	FR1	1	R1378T
579.849	1.6	645842	WORD	n/a	wordpools/wordpool_short_EN.txt	BIRD	8	5	[0, 0, 0]	n/a	FR1	1	R1378T
581.449	0.817	647444	WORD_OFF	n/a	n/a	BIRD	8	5	[0, 0, 0]	n/a	FR1	1	R1378T
582.266	1.616	648258	WORD	n/a	wordpools/wordpool_short_EN.txt	FROST	9	5	[0, 0, 0]	n/a	FR1	1	R1378T
583.882	1.0	649873	WORD_OFF	n/a	n/a	FROST	9	5	[0, 0, 0]	n/a	FR1	1	R1378T
584.882	1.6	650878	WORD	n/a	wordpools/wordpool_short_EN.txt	BOOK	10	5	[0, 0, 0]	n/a	FR1	1	R1378T
586.482	0.85	652481	WORD_OFF	n/a	n/a	BOOK	10	5	[0, 0, 0]	n/a	FR1	1	R1378T
587.332	1.618	653333	WORD	n/a	wordpools/wordpool_short_EN.txt	BOLT	11	5	[0, 0, 0]	n/a	FR1	1	R1378T
588.95	0.765	654948	WORD_OFF	n/a	n/a	BOLT	11	5	[0, 0, 0]	n/a	FR1	1	R1378T
589.715	1.601	655711	WORD	n/a	wordpools/wordpool_short_EN.txt	HOSE	12	5	[0, 0, 0]	n/a	FR1	1	R1378T
591.316	0.001	657310	PROB	0.001	n/a	n/a	-999	5	[1, 6, 1]	8	FR1	1	R1378T
591.317	0.0	657311	START	n/a	n/a	n/a	-999	5	[-999, -999, -999]	n/a	FR1	1	R1378T
591.316	0.001	657313	WORD_OFF	n/a	n/a	HOSE	12	5	[0, 0, 0]	n/a	FR1	1	R1378T
591.317	0.0	657313	ENCODING_END	n/a	n/a	n/a	-999	5	[0, 0, 0]	n/a	FR1	1	R1378T
591.317	3.499	657313	DISTRACT_START	n/a	n/a	n/a	-999	5	[0, 0, 0]	n/a	FR1	1	R1378T
594.816	3.234	660810	PROB	3.234	n/a	n/a	-999	5	[1, 2, 8]	11	FR1	1	R1378T
598.05	3.517	664044	PROB	3.517	n/a	n/a	-999	5	[8, 8, 4]	20	FR1	1	R1378T
601.567	2.965	667561	PROB	2.965	n/a	n/a	-999	5	[8, 8, 8]	24	FR1	1	R1378T
604.532	2.568	670526	PROB	2.568	n/a	n/a	-999	5	[7, 1, 3]	11	FR1	1	R1378T
607.1	3.449	673093	PROB	3.449	n/a	n/a	-999	5	[1, 7, 2]	10	FR1	1	R1378T
610.549	3.066	676542	PROB	3.066	n/a	n/a	-999	5	[1, 2, 4]	7	FR1	1	R1378T
613.615	0.0	679608	DISTRACT_END	n/a	n/a	n/a	-999	5	[0, 0, 0]	n/a	FR1	1	R1378T
613.615	1.283	679608	STOP	n/a	n/a	n/a	-999	5	[-999, -999, -999]	n/a	FR1	1	R1378T
614.898	8.778	680892	REC_START	n/a	n/a	n/a	-999	5	[0, 0, 0]	n/a	FR1	1	R1378T
623.676	2.497	689669	REC_WORD	2.497	n/a	BANK	6	5	[0, 0, 0]	n/a	FR1	1	R1378T
626.173	2.08	692165	REC_WORD	2.08	n/a	VASE	-999	5	[0, 0, 0]	n/a	FR1	1	R1378T
628.253	2.48	694245	REC_WORD	2.48	n/a	SKI	-999	5	[0, 0, 0]	n/a	FR1	1	R1378T
630.733	3.189	696725	REC_WORD	3.189	n/a	BARK	-999	5	[0, 0, 0]	n/a	FR1	1	R1378T
633.922	7.386	699914	REC_WORD	7.386	n/a	CHAIN	-999	5	[0, 0, 0]	n/a	FR1	1	R1378T
641.308	3.83	707300	REC_WORD	3.83	n/a	TIE	-999	5	[0, 0, 0]	n/a	FR1	1	R1378T
645.138	1.877	711136	REC_END	n/a	n/a	n/a	-999	5	[0, 0, 0]	n/a	FR1	1	R1378T
647.015	10.351	713005	COUNTDOWN_START	n/a	n/a	n/a	-999	6	[0, 0, 0]	n/a	FR1	1	R1378T
657.366	0.0	723358	COUNTDOWN_END	n/a	n/a	n/a	-999	6	[0, 0, 0]	n/a	FR1	1	R1378T
657.366	2.166	723358	ENCODING_START	n/a	n/a	n/a	-999	6	[0, 0, 0]	n/a	FR1	1	R1378T
659.532	1.6	725520	WORD	n/a	wordpools/wordpool_short_EN.txt	NECK	1	6	[0, 0, 0]	n/a	FR1	1	R1378T
661.132	0.917	727122	WORD_OFF	n/a	n/a	NECK	1	6	[0, 0, 0]	n/a	FR1	1	R1378T
662.049	1.616	728038	WORD	n/a	wordpools/wordpool_short_EN.txt	THUMB	2	6	[0, 0, 0]	n/a	FR1	1	R1378T
663.665	0.8	729653	WORD_OFF	n/a	n/a	THUMB	2	6	[0, 0, 0]	n/a	FR1	1	R1378T
664.465	1.6	730454	WORD	n/a	wordpools/wordpool_short_EN.txt	NURSE	3	6	[0, 0, 0]	n/a	FR1	1	R1378T
666.065	0.884	732057	WORD_OFF	n/a	n/a	NURSE	3	6	[0, 0, 0]	n/a	FR1	1	R1378T
666.949	1.6	732934	WORD	n/a	wordpools/wordpool_short_EN.txt	BLUSH	4	6	[0, 0, 0]	n/a	FR1	1	R1378T
668.549	0.816	734537	WORD_OFF	n/a	n/a	BLUSH	4	6	[0, 0, 0]	n/a	FR1	1	R1378T
669.365	1.601	735351	WORD	n/a	wordpools/wordpool_short_EN.txt	GRASS	5	6	[0, 0, 0]	n/a	FR1	1	R1378T
670.966	0.8	736953	WORD_OFF	n/a	n/a	GRASS	5	6	[0, 0, 0]	n/a	FR1	1	R1378T
671.766	1.616	737754	WORD	n/a	wordpools/wordpool_short_EN.txt	SEED	6	6	[0, 0, 0]	n/a	FR1	1	R1378T
673.382	0.867	739370	WORD_OFF	n/a	n/a	SEED	6	6	[0, 0, 0]	n/a	FR1	1	R1378T
674.249	1.617	740234	WORD	n/a	wordpools/wordpool_short_EN.txt	BEAK	7	6	[0, 0, 0]	n/a	FR1	1	R1378T
675.866	0.783	741862	WORD_OFF	n/a	n/a	BEAK	7	6	[0, 0, 0]	n/a	FR1	1	R1378T
676.649	1.6	742638	WORD	n/a	wordpools/wordpool_short_EN.txt	BLOOD	8	6	[0, 0, 0]	n/a	FR1	1	R1378T
678.249	0.917	744241	WORD_OFF	n/a	n/a	BLOOD	8	6	[0, 0, 0]	n/a	FR1	1	R1378T
679.166	1.6	745156	WORD	n/a	wordpools/wordpool_short_EN.txt	CAT	9	6	[0, 0, 0]	n/a	FR1	1	R1378T
680.766	0.949	746759	WORD_OFF	n/a	n/a	CAT	9	6	[0, 0, 0]	n/a	FR1	1	R1378T
681.715	1.601	747700	WORD	n/a	wordpools/wordpool_short_EN.txt	PEA	10	6	[0, 0, 0]	n/a	FR1	1	R1378T
683.316	0.85	749302	WORD_OFF	n/a	n/a	PEA	10	6	[0, 0, 0]	n/a	FR1	1	R1378T
684.166	1.616	750154	WORD	n/a	wordpools/wordpool_short_EN.txt	TANK	11	6	[0, 0, 0]	n/a	FR1	1	R1378T
685.782	0.784	751770	WORD_OFF	n/a	n/a	TANK	11	6	[0, 0, 0]	n/a	FR1	1	R1378T
686.566	1.6	752558	WORD	n/a	wordpools/wordpool_short_EN.txt	CAGE	12	6	[0, 0, 0]	n/a	FR1	1	R1378T
688.166	0.001	754155	PROB	0.001	n/a	n/a	-999	6	[7, 6, 4]	17	FR1	1	R1378T
688.167	0.0	754156	START	n/a	n/a	n/a	-999	6	[-999, -999, -999]	n/a	FR1	1	R1378T
688.166	0.001	754161	WORD_OFF	n/a	n/a	CAGE	12	6	[0, 0, 0]	n/a	FR1	1	R1378T
688.167	0.0	754161	ENCODING_END	n/a	n/a	n/a	-999	6	[0, 0, 0]	n/a	FR1	1	R1378T
688.167	5.666	754161	DISTRACT_START	n/a	n/a	n/a	-999	6	[0, 0, 0]	n/a	FR1	1	R1378T
693.833	4.833	759822	PROB	4.833	n/a	n/a	-999	6	[6, 3, 8]	17	FR1	1	R1378T
698.666	3.4	764655	PROB	3.4	n/a	n/a	-999	6	[5, 2, 6]	13	FR1	1	R1378T
702.066	3.583	768054	PROB	3.583	n/a	n/a	-999	6	[6, 4, 8]	18	FR1	1	R1378T
705.649	3.917	771637	PROB	3.917	n/a	n/a	-999	6	[4, 3, 6]	13	FR1	1	R1378T
709.566	0.0	775552	DISTRACT_END	n/a	n/a	n/a	-999	6	[0, 0, 0]	n/a	FR1	1	R1378T
709.566	1.299	775554	STOP	n/a	n/a	n/a	-999	6	[-999, -999, -999]	n/a	FR1	1	R1378T
710.865	5.889	776849	REC_START	n/a	n/a	n/a	-999	6	[0, 0, 0]	n/a	FR1	1	R1378T
716.754	0.695	782742	REC_WORD	0.695	n/a	BIRD	-999	6	[0, 0, 0]	n/a	FR1	1	R1378T
717.449	2.777	783437	REC_WORD	2.777	n/a	BEAK	7	6	[0, 0, 0]	n/a	FR1	1	R1378T
720.226	9.261	786214	REC_WORD	9.261	n/a	BLUSH	4	6	[0, 0, 0]	n/a	FR1	1	R1378T
729.487	4.304	795474	REC_WORD	4.304	n/a	NECK	1	6	[0, 0, 0]	n/a	FR1	1	R1378T
733.791	3.439	799778	REC_WORD	3.439	n/a	EARTH	-999	6	[0, 0, 0]	n/a	FR1	1	R1378T
737.23	3.876	803217	REC_WORD	3.876	n/a	DIRT	-999	6	[0, 0, 0]	n/a	FR1	1	R1378T
741.106	2.277	807093	REC_END	n/a	n/a	n/a	-999	6	[0, 0, 0]	n/a	FR1	1	R1378T
743.383	10.35	809369	COUNTDOWN_START	n/a	n/a	n/a	-999	7	[0, 0, 0]	n/a	FR1	1	R1378T
753.733	0.0	819722	COUNTDOWN_END	n/a	n/a	n/a	-999	7	[0, 0, 0]	n/a	FR1	1	R1378T
753.733	1.949	819722	ENCODING_START	n/a	n/a	n/a	-999	7	[0, 0, 0]	n/a	FR1	1	R1378T
755.682	1.616	821667	WORD	n/a	wordpools/wordpool_short_EN.txt	SEAT	1	7	[0, 0, 0]	n/a	FR1	1	R1378T
757.298	0.95	823283	WORD_OFF	n/a	n/a	SEAT	1	7	[0, 0, 0]	n/a	FR1	1	R1378T
758.248	1.6	824236	WORD	n/a	wordpools/wordpool_short_EN.txt	TEETH	2	7	[0, 0, 0]	n/a	FR1	1	R1378T
759.848	0.783	825839	WORD_OFF	n/a	n/a	TEETH	2	7	[0, 0, 0]	n/a	FR1	1	R1378T
760.631	1.601	826615	WORD	n/a	wordpools/wordpool_short_EN.txt	KEY	3	7	[0, 0, 0]	n/a	FR1	1	R1378T
762.232	0.85	828217	WORD_OFF	n/a	n/a	KEY	3	7	[0, 0, 0]	n/a	FR1	1	R1378T
763.082	1.6	829069	WORD	n/a	wordpools/wordpool_short_EN.txt	HILL	4	7	[0, 0, 0]	n/a	FR1	1	R1378T
764.682	0.834	830672	WORD_OFF	n/a	n/a	HILL	4	7	[0, 0, 0]	n/a	FR1	1	R1378T
765.516	1.6	831498	WORD	n/a	wordpools/wordpool_short_EN.txt	BONE	5	7	[0, 0, 0]	n/a	FR1	1	R1378T
767.116	0.849	833101	WORD_OFF	n/a	n/a	BONE	5	7	[0, 0, 0]	n/a	FR1	1	R1378T
767.965	1.601	833953	WORD	n/a	wordpools/wordpool_short_EN.txt	KNOB	6	7	[0, 0, 0]	n/a	FR1	1	R1378T
769.566	0.883	835555	WORD_OFF	n/a	n/a	KNOB	6	7	[0, 0, 0]	n/a	FR1	1	R1378T
770.449	1.617	836433	WORD	n/a	wordpools/wordpool_short_EN.txt	TRAY	7	7	[0, 0, 0]	n/a	FR1	1	R1378T
772.066	0.982	838048	WORD_OFF	n/a	n/a	TRAY	7	7	[0, 0, 0]	n/a	FR1	1	R1378T
773.048	1.601	839040	WORD	n/a	wordpools/wordpool_short_EN.txt	BRUSH	8	7	[0, 0, 0]	n/a	FR1	1	R1378T
774.649	0.867	840630	WORD_OFF	n/a	n/a	BRUSH	8	7	[0, 0, 0]	n/a	FR1	1	R1378T
775.516	1.616	841507	WORD	n/a	wordpools/wordpool_short_EN.txt	CURB	9	7	[0, 0, 0]	n/a	FR1	1	R1378T
777.132	0.817	843122	WORD_OFF	n/a	n/a	CURB	9	7	[0, 0, 0]	n/a	FR1	1	R1378T
777.949	1.617	843936	WORD	n/a	wordpools/wordpool_short_EN.txt	BAT	10	7	[0, 0, 0]	n/a	FR1	1	R1378T
779.566	0.766	845552	WORD_OFF	n/a	n/a	BAT	10	7	[0, 0, 0]	n/a	FR1	1	R1378T
780.332	1.6	846315	WORD	n/a	wordpools/wordpool_short_EN.txt	VEST	11	7	[0, 0, 0]	n/a	FR1	1	R1378T
781.932	0.851	847917	WORD_OFF	n/a	n/a	VEST	11	7	[0, 0, 0]	n/a	FR1	1	R1378T
782.783	1.599	848769	WORD	n/a	wordpools/wordpool_short_EN.txt	WAVE	12	7	[0, 0, 0]	n/a	FR1	1	R1378T
784.382	0.002	850366	PROB	0.002	n/a	n/a	-999	7	[4, 8, 5]	17	FR1	1	R1378T
784.384	0.0	850368	START	n/a	n/a	n/a	-999	7	[-999, -999, -999]	n/a	FR1	1	R1378T
784.382	0.002	850372	WORD_OFF	n/a	n/a	WAVE	12	7	[0, 0, 0]	n/a	FR1	1	R1378T
784.384	0.0	850372	ENCODING_END	n/a	n/a	n/a	-999	7	[0, 0, 0]	n/a	FR1	1	R1378T
784.384	3.932	850372	DISTRACT_START	n/a	n/a	n/a	-999	7	[0, 0, 0]	n/a	FR1	1	R1378T
788.316	3.084	854300	PROB	3.084	n/a	n/a	-999	7	[2, 3, 5]	10	FR1	1	R1378T
791.4	3.983	857384	PROB	3.983	n/a	n/a	-999	7	[6, 6, 7]	19	FR1	1	R1378T
795.383	5.216	861367	PROB	5.216	n/a	n/a	-999	7	[5, 3, 4]	12	FR1	1	R1378T
800.599	3.616	866582	PROB	3.616	n/a	n/a	-999	7	[7, 6, 2]	15	FR1	1	R1378T
804.215	2.684	870198	PROB	2.684	n/a	n/a	-999	7	[1, 2, 1]	4	FR1	1	R1378T
806.899	0.0	872882	DISTRACT_END	n/a	n/a	n/a	-999	7	[0, 0, 0]	n/a	FR1	1	R1378T
806.899	1.067	872882	STOP	n/a	n/a	n/a	-999	7	[-999, -999, -999]	n/a	FR1	1	R1378T
807.966	3.118	873951	REC_START	n/a	n/a	n/a	-999	7	[0, 0, 0]	n/a	FR1	1	R1378T
811.084	2.531	877067	REC_WORD_VV	2.531	n/a	<>	-999	7	[0, 0, 0]	n/a	FR1	1	R1378T
813.615	0.897	879598	REC_WORD	0.897	n/a	BRUSH	8	7	[0, 0, 0]	n/a	FR1	1	R1378T
814.512	12.69	880495	REC_WORD	12.69	n/a	HILL	4	7	[0, 0, 0]	n/a	FR1	1	R1378T
827.202	2.17	893184	REC_WORD	2.17	n/a	BEACH	-999	7	[0, 0, 0]	n/a	FR1	1	R1378T
829.372	2.197	895354	REC_WORD	2.197	n/a	BOOT	-999	7	[0, 0, 0]	n/a	FR1	1	R1378T
831.569	3.499	897551	REC_WORD	3.499	n/a	WATCH	-999	7	[0, 0, 0]	n/a	FR1	1	R1378T
835.068	3.135	901049	REC_WORD	3.135	n/a	CAGE	-999	7	[0, 0, 0]	n/a	FR1	1	R1378T
838.203	1.846	904181	REC_END	n/a	n/a	n/a	-999	7	[0, 0, 0]	n/a	FR1	1	R1378T
840.049	10.351	906038	COUNTDOWN_START	n/a	n/a	n/a	-999	8	[0, 0, 0]	n/a	FR1	1	R1378T
850.4	0.0	916378	COUNTDOWN_END	n/a	n/a	n/a	-999	8	[0, 0, 0]	n/a	FR1	1	R1378T
850.4	2.216	916378	ENCODING_START	n/a	n/a	n/a	-999	8	[0, 0, 0]	n/a	FR1	1	R1378T
852.616	1.616	918591	WORD	n/a	wordpools/wordpool_short_EN.txt	PIT	1	8	[0, 0, 0]	n/a	FR1	1	R1378T
854.232	0.817	920219	WORD_OFF	n/a	n/a	PIT	1	8	[0, 0, 0]	n/a	FR1	1	R1378T
855.049	1.6	921033	WORD	n/a	wordpools/wordpool_short_EN.txt	DOCK	2	8	[0, 0, 0]	n/a	FR1	1	R1378T
856.649	0.9	922635	WORD_OFF	n/a	n/a	DOCK	2	8	[0, 0, 0]	n/a	FR1	1	R1378T
857.549	1.6	923525	WORD	n/a	wordpools/wordpool_short_EN.txt	STEEL	3	8	[0, 0, 0]	n/a	FR1	1	R1378T
859.149	0.85	925128	WORD_OFF	n/a	n/a	STEEL	3	8	[0, 0, 0]	n/a	FR1	1	R1378T
859.999	1.617	925980	WORD	n/a	wordpools/wordpool_short_EN.txt	SUN	4	8	[0, 0, 0]	n/a	FR1	1	R1378T
861.616	0.916	927595	WORD_OFF	n/a	n/a	SUN	4	8	[0, 0, 0]	n/a	FR1	1	R1378T
862.532	1.6	928511	WORD	n/a	wordpools/wordpool_short_EN.txt	CAVE	5	8	[0, 0, 0]	n/a	FR1	1	R1378T
864.132	0.8	930113	WORD_OFF	n/a	n/a	CAVE	5	8	[0, 0, 0]	n/a	FR1	1	R1378T
864.932	1.616	930914	WORD	n/a	wordpools/wordpool_short_EN.txt	CHALK	6	8	[0, 0, 0]	n/a	FR1	1	R1378T
866.548	0.901	932530	WORD_OFF	n/a	n/a	CHALK	6	8	[0, 0, 0]	n/a	FR1	1	R1378T
867.449	1.617	933433	WORD	n/a	wordpools/wordpool_short_EN.txt	ARK	7	8	[0, 0, 0]	n/a	FR1	1	R1378T
869.066	0.849	935048	WORD_OFF	n/a	n/a	ARK	7	8	[0, 0, 0]	n/a	FR1	1	R1378T
869.915	1.617	935900	WORD	n/a	wordpools/wordpool_short_EN.txt	SQUARE	8	8	[0, 0, 0]	n/a	FR1	1	R1378T
871.532	0.833	937515	WORD_OFF	n/a	n/a	SQUARE	8	8	[0, 0, 0]	n/a	FR1	1	R1378T
872.365	1.601	938342	WORD	n/a	wordpools/wordpool_short_EN.txt	LAMP	9	8	[0, 0, 0]	n/a	FR1	1	R1378T
873.966	0.95	939944	WORD_OFF	n/a	n/a	LAMP	9	8	[0, 0, 0]	n/a	FR1	1	R1378T
874.916	1.616	940898	WORD	n/a	wordpools/wordpool_short_EN.txt	SKUNK	10	8	[0, 0, 0]	n/a	FR1	1	R1378T
876.532	0.884	942513	WORD_OFF	n/a	n/a	SKUNK	10	8	[0, 0, 0]	n/a	FR1	1	R1378T
877.416	1.616	943391	WORD	n/a	wordpools/wordpool_short_EN.txt	HAIR	11	8	[0, 0, 0]	n/a	FR1	1	R1378T
879.032	0.85	945006	WORD_OFF	n/a	n/a	HAIR	11	8	[0, 0, 0]	n/a	FR1	1	R1378T
879.882	1.6	945858	WORD	n/a	wordpools/wordpool_short_EN.txt	PALM	12	8	[0, 0, 0]	n/a	FR1	1	R1378T
881.482	0.002	947460	WORD_OFF	n/a	n/a	PALM	12	8	[0, 0, 0]	n/a	FR1	1	R1378T
881.484	0.0	947460	ENCODING_END	n/a	n/a	n/a	-999	8	[0, 0, 0]	n/a	FR1	1	R1378T
881.484	0.0	947460	DISTRACT_START	n/a	n/a	n/a	-999	8	[0, 0, 0]	n/a	FR1	1	R1378T
881.483	0.001	947462	PROB	0.001	n/a	n/a	-999	8	[6, 5, 3]	11	FR1	1	R1378T
881.484	3.432	947463	START	n/a	n/a	n/a	-999	8	[-999, -999, -999]	n/a	FR1	1	R1378T
884.916	3.433	950895	PROB	3.433	n/a	n/a	-999	8	[1, 3, 5]	9	FR1	1	R1378T
888.349	2.401	954328	PROB	2.401	n/a	n/a	-999	8	[1, 1, 2]	4	FR1	1	R1378T
890.75	3.015	956729	PROB	3.015	n/a	n/a	-999	8	[6, 7, 1]	14	FR1	1	R1378T
893.765	3.285	959743	PROB	3.285	n/a	n/a	-999	8	[2, 4, 1]	7	FR1	1	R1378T
897.05	3.05	963028	PROB	3.05	n/a	n/a	-999	8	[2, 6, 4]	12	FR1	1	R1378T
900.1	3.949	966078	PROB	3.949	n/a	n/a	-999	8	[6, 4, 5]	15	FR1	1	R1378T
904.049	0.0	970022	DISTRACT_END	n/a	n/a	n/a	-999	8	[0, 0, 0]	n/a	FR1	1	R1378T
904.049	1.266	970027	STOP	n/a	n/a	n/a	-999	8	[-999, -999, -999]	n/a	FR1	1	R1378T
905.315	17.227	971294	REC_START	n/a	n/a	n/a	-999	8	[0, 0, 0]	n/a	FR1	1	R1378T
922.542	3.972	988519	REC_WORD	3.972	n/a	SKUNK	10	8	[0, 0, 0]	n/a	FR1	1	R1378T
926.514	4.233	992491	REC_WORD	4.233	n/a	SMELL	-999	8	[0, 0, 0]	n/a	FR1	1	R1378T
930.747	4.812	996723	REC_WORD	4.812	n/a	WET	-999	8	[0, 0, 0]	n/a	FR1	1	R1378T
935.559	1.673	1001537	REC_END	n/a	n/a	n/a	-999	8	[0, 0, 0]	n/a	FR1	1	R1378T
937.232	10.351	1003216	COUNTDOWN_START	n/a	n/a	n/a	-999	9	[0, 0, 0]	n/a	FR1	1	R1378T
947.583	0.0	1013556	COUNTDOWN_END	n/a	n/a	n/a	-999	9	[0, 0, 0]	n/a	FR1	1	R1378T
947.583	2.182	1013556	ENCODING_START	n/a	n/a	n/a	-999	9	[0, 0, 0]	n/a	FR1	1	R1378T
949.765	1.6	1015743	WORD	n/a	wordpools/wordpool_short_EN.txt	SKIN	1	9	[0, 0, 0]	n/a	FR1	1	R1378T
951.365	0.983	1017346	WORD_OFF	n/a	n/a	SKIN	1	9	[0, 0, 0]	n/a	FR1	1	R1378T
952.348	1.6	1018325	WORD	n/a	wordpools/wordpool_short_EN.txt	MUD	2	9	[0, 0, 0]	n/a	FR1	1	R1378T
953.948	0.95	1019927	WORD_OFF	n/a	n/a	MUD	2	9	[0, 0, 0]	n/a	FR1	1	R1378T
954.898	1.6	1020868	WORD	n/a	wordpools/wordpool_short_EN.txt	SKY	3	9	[0, 0, 0]	n/a	FR1	1	R1378T
956.498	0.867	1022471	WORD_OFF	n/a	n/a	SKY	3	9	[0, 0, 0]	n/a	FR1	1	R1378T
957.365	1.6	1023336	WORD	n/a	wordpools/wordpool_short_EN.txt	SOAP	4	9	[0, 0, 0]	n/a	FR1	1	R1378T
958.965	0.833	1024938	WORD_OFF	n/a	n/a	SOAP	4	9	[0, 0, 0]	n/a	FR1	1	R1378T
959.798	1.617	1025778	WORD	n/a	wordpools/wordpool_short_EN.txt	THREAD	5	9	[0, 0, 0]	n/a	FR1	1	R1378T
961.415	0.833	1027393	WORD_OFF	n/a	n/a	THREAD	5	9	[0, 0, 0]	n/a	FR1	1	R1378T
962.248	1.6	1028219	WORD	n/a	wordpools/wordpool_short_EN.txt	BUSH	6	9	[0, 0, 0]	n/a	FR1	1	R1378T
963.848	0.85	1029822	WORD_OFF	n/a	n/a	BUSH	6	9	[0, 0, 0]	n/a	FR1	1	R1378T
964.698	1.6	1030674	WORD	n/a	wordpools/wordpool_short_EN.txt	SCHOOL	7	9	[0, 0, 0]	n/a	FR1	1	R1378T
966.298	0.968	1032276	WORD_OFF	n/a	n/a	SCHOOL	7	9	[0, 0, 0]	n/a	FR1	1	R1378T
967.266	1.599	1033243	WORD	n/a	wordpools/wordpool_short_EN.txt	PARK	8	9	[0, 0, 0]	n/a	FR1	1	R1378T
968.865	0.884	1034845	WORD_OFF	n/a	n/a	PARK	8	9	[0, 0, 0]	n/a	FR1	1	R1378T
969.749	1.6	1035723	WORD	n/a	wordpools/wordpool_short_EN.txt	NET	9	9	[0, 0, 0]	n/a	FR1	1	R1378T
971.349	0.834	1037325	WORD_OFF	n/a	n/a	NET	9	9	[0, 0, 0]	n/a	FR1	1	R1378T
972.183	1.6	1038152	WORD	n/a	wordpools/wordpool_short_EN.txt	HOOF	10	9	[0, 0, 0]	n/a	FR1	1	R1378T
973.783	0.833	1039755	WORD_OFF	n/a	n/a	HOOF	10	9	[0, 0, 0]	n/a	FR1	1	R1378T
974.616	1.616	1040594	WORD	n/a	wordpools/wordpool_short_EN.txt	STOOL	11	9	[0, 0, 0]	n/a	FR1	1	R1378T
976.232	0.834	1042209	WORD_OFF	n/a	n/a	STOOL	11	9	[0, 0, 0]	n/a	FR1	1	R1378T
977.066	1.6	1043036	WORD	n/a	wordpools/wordpool_short_EN.txt	LANE	12	9	[0, 0, 0]	n/a	FR1	1	R1378T
978.666	0.001	1044638	WORD_OFF	n/a	n/a	LANE	12	9	[0, 0, 0]	n/a	FR1	1	R1378T
978.667	0.0	1044638	ENCODING_END	n/a	n/a	n/a	-999	9	[0, 0, 0]	n/a	FR1	1	R1378T
978.667	0.0	1044638	DISTRACT_START	n/a	n/a	n/a	-999	9	[0, 0, 0]	n/a	FR1	1	R1378T
978.667	0.0	1044641	START	n/a	n/a	n/a	-999	9	[-999, -999, -999]	n/a	FR1	1	R1378T
978.667	3.116	1044641	PROB	3.116	n/a	n/a	-999	9	[1, 5, 2]	8	FR1	1	R1378T
981.783	2.666	1047757	PROB	2.666	n/a	n/a	-999	9	[6, 1, 1]	8	FR1	1	R1378T
984.449	3.85	1050423	PROB	3.85	n/a	n/a	-999	9	[7, 8, 4]	19	FR1	1	R1378T
988.299	3.766	1054272	PROB	3.766	n/a	n/a	-999	9	[5, 6, 2]	13	FR1	1	R1378T
992.065	5.252	1058038	PROB	5.252	n/a	n/a	-999	9	[3, 2, 4]	9	FR1	1	R1378T
997.317	3.315	1063290	PROB	3.315	n/a	n/a	-999	9	[1, 7, 1]	9	FR1	1	R1378T
1000.632	0.0	1066602	DISTRACT_END	n/a	n/a	n/a	-999	9	[0, 0, 0]	n/a	FR1	1	R1378T
1000.632	1.4	1066605	STOP	n/a	n/a	n/a	-999	9	[-999, -999, -999]	n/a	FR1	1	R1378T
1002.032	3.701	1068001	REC_START	n/a	n/a	n/a	-999	9	[0, 0, 0]	n/a	FR1	1	R1378T
1005.733	0.491	1071705	REC_WORD	0.491	n/a	BUSH	6	9	[0, 0, 0]	n/a	FR1	1	R1378T
1006.224	0.736	1072196	REC_WORD	0.736	n/a	SCHOOL	7	9	[0, 0, 0]	n/a	FR1	1	R1378T
1006.96	1.687	1072932	REC_WORD	1.687	n/a	PARK	8	9	[0, 0, 0]	n/a	FR1	1	R1378T
1008.647	1.322	1074619	REC_WORD	1.322	n/a	MUD	2	9	[0, 0, 0]	n/a	FR1	1	R1378T
1009.969	1.425	1075941	REC_WORD	1.425	n/a	SKIN	1	9	[0, 0, 0]	n/a	FR1	1	R1378T
1011.394	2.281	1077366	REC_WORD	2.281	n/a	CLEAN	-999	9	[0, 0, 0]	n/a	FR1	1	R1378T
1013.675	2.287	1079647	REC_WORD	2.287	n/a	SKY	3	9	[0, 0, 0]	n/a	FR1	1	R1378T
1015.962	16.318	1081934	REC_WORD	16.318	n/a	WET	-999	9	[0, 0, 0]	n/a	FR1	1	R1378T
1032.28	1.619	1098257	REC_END	n/a	n/a	n/a	-999	9	[0, 0, 0]	n/a	FR1	1	R1378T
1033.899	10.35	1099872	COUNTDOWN_START	n/a	n/a	n/a	-999	10	[0, 0, 0]	n/a	FR1	1	R1378T
1044.249	0.0	1110225	COUNTDOWN_END	n/a	n/a	n/a	-999	10	[0, 0, 0]	n/a	FR1	1	R1378T
1044.249	2.216	1110225	ENCODING_START	n/a	n/a	n/a	-999	10	[0, 0, 0]	n/a	FR1	1	R1378T
1046.465	1.617	1112438	WORD	n/a	wordpools/wordpool_short_EN.txt	YARD	1	10	[0, 0, 0]	n/a	FR1	1	R1378T
1048.082	1.0	1114053	WORD_OFF	n/a	n/a	YARD	1	10	[0, 0, 0]	n/a	FR1	1	R1378T
1049.082	1.6	1115057	WORD	n/a	wordpools/wordpool_short_EN.txt	FUR	2	10	[0, 0, 0]	n/a	FR1	1	R1378T
1050.682	0.883	1116647	WORD_OFF	n/a	n/a	FUR	2	10	[0, 0, 0]	n/a	FR1	1	R1378T
1051.565	1.6	1117537	WORD	n/a	wordpools/wordpool_short_EN.txt	CORD	3	10	[0, 0, 0]	n/a	FR1	1	R1378T
1053.165	0.8	1119140	WORD_OFF	n/a	n/a	CORD	3	10	[0, 0, 0]	n/a	FR1	1	R1378T
1053.965	1.617	1119941	WORD	n/a	wordpools/wordpool_short_EN.txt	MOOSE	4	10	[0, 0, 0]	n/a	FR1	1	R1378T
1055.582	1.0	1121556	WORD_OFF	n/a	n/a	MOOSE	4	10	[0, 0, 0]	n/a	FR1	1	R1378T
1056.582	1.6	1122548	WORD	n/a	wordpools/wordpool_short_EN.txt	TRASH	5	10	[0, 0, 0]	n/a	FR1	1	R1378T
1058.182	0.766	1124151	WORD_OFF	n/a	n/a	TRASH	5	10	[0, 0, 0]	n/a	FR1	1	R1378T
1058.948	1.617	1124914	WORD	n/a	wordpools/wordpool_short_EN.txt	WEED	6	10	[0, 0, 0]	n/a	FR1	1	R1378T
1060.565	0.95	1126529	WORD_OFF	n/a	n/a	WEED	6	10	[0, 0, 0]	n/a	FR1	1	R1378T
1061.515	1.616	1127483	WORD	n/a	wordpools/wordpool_short_EN.txt	STRAW	7	10	[0, 0, 0]	n/a	FR1	1	R1378T
1063.131	0.784	1129098	WORD_OFF	n/a	n/a	STRAW	7	10	[0, 0, 0]	n/a	FR1	1	R1378T
1063.915	1.6	1129887	WORD	n/a	wordpools/wordpool_short_EN.txt	FRUIT	8	10	[0, 0, 0]	n/a	FR1	1	R1378T
1065.515	0.767	1131489	WORD_OFF	n/a	n/a	FRUIT	8	10	[0, 0, 0]	n/a	FR1	1	R1378T
1066.282	1.6	1132252	WORD	n/a	wordpools/wordpool_short_EN.txt	CHIN	9	10	[0, 0, 0]	n/a	FR1	1	R1378T
1067.882	0.916	1133855	WORD_OFF	n/a	n/a	CHIN	9	10	[0, 0, 0]	n/a	FR1	1	R1378T
1068.798	1.618	1134770	WORD	n/a	wordpools/wordpool_short_EN.txt	SHORE	10	10	[0, 0, 0]	n/a	FR1	1	R1378T
1070.416	0.85	1136385	WORD_OFF	n/a	n/a	SHORE	10	10	[0, 0, 0]	n/a	FR1	1	R1378T
1071.266	1.617	1137238	WORD	n/a	wordpools/wordpool_short_EN.txt	FLEA	11	10	[0, 0, 0]	n/a	FR1	1	R1378T
1072.883	0.783	1138853	WORD_OFF	n/a	n/a	FLEA	11	10	[0, 0, 0]	n/a	FR1	1	R1378T
1073.666	1.6	1139641	WORD	n/a	wordpools/wordpool_short_EN.txt	MAZE	12	10	[0, 0, 0]	n/a	FR1	1	R1378T
1075.266	0.001	1141231	WORD_OFF	n/a	n/a	MAZE	12	10	[0, 0, 0]	n/a	FR1	1	R1378T
1075.267	0.001	1141236	PROB	0.001	n/a	n/a	-999	10	[4, 8, 4]	16	FR1	1	R1378T
1075.268	0.0	1141237	START	n/a	n/a	n/a	-999	10	[-999, -999, -999]	n/a	FR1	1	R1378T
1075.268	0.0	1141244	ENCODING_END	n/a	n/a	n/a	-999	10	[0, 0, 0]	n/a	FR1	1	R1378T
1075.268	4.699	1141244	DISTRACT_START	n/a	n/a	n/a	-999	10	[0, 0, 0]	n/a	FR1	1	R1378T
1079.967	3.732	1145936	PROB	3.732	n/a	n/a	-999	10	[6, 8, 7]	21	FR1	1	R1378T
1083.699	3.834	1149667	PROB	3.834	n/a	n/a	-999	10	[7, 4, 7]	18	FR1	1	R1378T
1087.533	3.566	1153501	PROB	3.566	n/a	n/a	-999	10	[7, 7, 5]	19	FR1	1	R1378T
1091.099	3.0	1157067	PROB	3.0	n/a	n/a	-999	10	[1, 4, 4]	9	FR1	1	R1378T
1094.099	3.4	1160067	PROB	3.4	n/a	n/a	-999	10	[8, 6, 1]	15	FR1	1	R1378T
1097.499	0.0	1163462	DISTRACT_END	n/a	n/a	n/a	-999	10	[0, 0, 0]	n/a	FR1	1	R1378T
1097.499	1.183	1163467	STOP	n/a	n/a	n/a	-999	10	[-999, -999, -999]	n/a	FR1	1	R1378T
1098.682	3.284	1164645	REC_START	n/a	n/a	n/a	-999	10	[0, 0, 0]	n/a	FR1	1	R1378T
1101.966	1.12	1167933	REC_WORD	1.12	n/a	YARD	1	10	[0, 0, 0]	n/a	FR1	1	R1378T
1103.086	2.055	1169053	REC_WORD	2.055	n/a	WEED	6	10	[0, 0, 0]	n/a	FR1	1	R1378T
1105.141	6.997	1171108	REC_WORD_VV	6.997	n/a	<>	-999	10	[0, 0, 0]	n/a	FR1	1	R1378T
1112.138	3.729	1178105	REC_WORD	3.729	n/a	RAKE	-999	10	[0, 0, 0]	n/a	FR1	1	R1378T
1115.867	13.055	1181834	REC_WORD	13.055	n/a	MOOSE	4	10	[0, 0, 0]	n/a	FR1	1	R1378T
1128.922	1.294	1194888	REC_END	n/a	n/a	n/a	-999	10	[0, 0, 0]	n/a	FR1	1	R1378T
1130.216	10.35	1196185	COUNTDOWN_START	n/a	n/a	n/a	-999	11	[0, 0, 0]	n/a	FR1	1	R1378T
1140.566	0.0	1206538	COUNTDOWN_END	n/a	n/a	n/a	-999	11	[0, 0, 0]	n/a	FR1	1	R1378T
1140.566	2.032	1206538	ENCODING_START	n/a	n/a	n/a	-999	11	[0, 0, 0]	n/a	FR1	1	R1378T
1142.598	1.601	1208560	WORD	n/a	wordpools/wordpool_short_EN.txt	FACE	1	11	[0, 0, 0]	n/a	FR1	1	R1378T
1144.199	0.8	1210162	WORD_OFF	n/a	n/a	FACE	1	11	[0, 0, 0]	n/a	FR1	1	R1378T
1144.999	1.6	1210963	WORD	n/a	wordpools/wordpool_short_EN.txt	SHARK	2	11	[0, 0, 0]	n/a	FR1	1	R1378T
1146.599	0.766	1212566	WORD_OFF	n/a	n/a	SHARK	2	11	[0, 0, 0]	n/a	FR1	1	R1378T
1147.365	1.6	1213329	WORD	n/a	wordpools/wordpool_short_EN.txt	KITE	3	11	[0, 0, 0]	n/a	FR1	1	R1378T
1148.965	0.9	1214931	WORD_OFF	n/a	n/a	KITE	3	11	[0, 0, 0]	n/a	FR1	1	R1378T
1149.865	1.6	1215834	WORD	n/a	wordpools/wordpool_short_EN.txt	ROAD	4	11	[0, 0, 0]	n/a	FR1	1	R1378T
1151.465	0.8	1217437	WORD_OFF	n/a	n/a	ROAD	4	11	[0, 0, 0]	n/a	FR1	1	R1378T
1152.265	1.6	1218225	WORD	n/a	wordpools/wordpool_short_EN.txt	HAT	5	11	[0, 0, 0]	n/a	FR1	1	R1378T
1153.865	0.933	1219828	WORD_OFF	n/a	n/a	HAT	5	11	[0, 0, 0]	n/a	FR1	1	R1378T
1154.798	1.6	1220769	WORD	n/a	wordpools/wordpool_short_EN.txt	CREAM	6	11	[0, 0, 0]	n/a	FR1	1	R1378T
1156.398	0.834	1222359	WORD_OFF	n/a	n/a	CREAM	6	11	[0, 0, 0]	n/a	FR1	1	R1378T
1157.232	1.6	1223198	WORD	n/a	wordpools/wordpool_short_EN.txt	SUIT	7	11	[0, 0, 0]	n/a	FR1	1	R1378T
1158.832	0.833	1224801	WORD_OFF	n/a	n/a	SUIT	7	11	[0, 0, 0]	n/a	FR1	1	R1378T
1159.665	1.6	1225627	WORD	n/a	wordpools/wordpool_short_EN.txt	STEM	8	11	[0, 0, 0]	n/a	FR1	1	R1378T
1161.265	0.783	1227230	WORD_OFF	n/a	n/a	STEM	8	11	[0, 0, 0]	n/a	FR1	1	R1378T
1162.048	1.601	1228018	WORD	n/a	wordpools/wordpool_short_EN.txt	SPONGE	9	11	[0, 0, 0]	n/a	FR1	1	R1378T
1163.649	0.899	1229608	WORD_OFF	n/a	n/a	SPONGE	9	11	[0, 0, 0]	n/a	FR1	1	R1378T
1164.548	1.601	1230511	WORD	n/a	wordpools/wordpool_short_EN.txt	SACK	10	11	[0, 0, 0]	n/a	FR1	1	R1378T
1166.149	0.932	1232113	WORD_OFF	n/a	n/a	SACK	10	11	[0, 0, 0]	n/a	FR1	1	R1378T
1167.081	1.617	1233042	WORD	n/a	wordpools/wordpool_short_EN.txt	SEA	11	11	[0, 0, 0]	n/a	FR1	1	R1378T
1168.698	0.967	1234657	WORD_OFF	n/a	n/a	SEA	11	11	[0, 0, 0]	n/a	FR1	1	R1378T
1169.665	1.6	1235624	WORD	n/a	wordpools/wordpool_short_EN.txt	PAINT	12	11	[0, 0, 0]	n/a	FR1	1	R1378T
1171.265	0.002	1237226	WORD_OFF	n/a	n/a	PAINT	12	11	[0, 0, 0]	n/a	FR1	1	R1378T
1171.267	0.0	1237226	ENCODING_END	n/a	n/a	n/a	-999	11	[0, 0, 0]	n/a	FR1	1	R1378T
1171.266	0.001	1237230	PROB	0.001	n/a	n/a	-999	11	[4, 7, 7]	18	FR1	1	R1378T
1171.267	0.0	1237231	START	n/a	n/a	n/a	-999	11	[-999, -999, -999]	n/a	FR1	1	R1378T
1171.267	3.733	1237239	DISTRACT_START	n/a	n/a	n/a	-999	11	[0, 0, 0]	n/a	FR1	1	R1378T
1175.0	2.734	1240964	PROB	2.734	n/a	n/a	-999	11	[1, 4, 1]	6	FR1	1	R1378T
1177.734	4.015	1243697	PROB	4.015	n/a	n/a	-999	11	[6, 4, 4]	14	FR1	1	R1378T
1181.749	2.784	1247712	PROB	2.784	n/a	n/a	-999	11	[3, 8, 1]	14	FR1	1	R1378T
1184.533	3.567	1250496	PROB	3.567	n/a	n/a	-999	11	[4, 3, 2]	9	FR1	1	R1378T
1188.1	2.532	1254063	PROB	2.532	n/a	n/a	-999	11	[1, 1, 1]	3	FR1	1	R1378T
1190.632	2.666	1256595	PROB	2.666	n/a	n/a	-999	11	[2, 5, 5]	12	FR1	1	R1378T
1193.298	0.0	1259261	STOP	n/a	n/a	n/a	-999	11	[-999, -999, -999]	n/a	FR1	1	R1378T
1193.298	1.084	1259266	DISTRACT_END	n/a	n/a	n/a	-999	11	[0, 0, 0]	n/a	FR1	1	R1378T
1194.382	4.9	1260347	REC_START	n/a	n/a	n/a	-999	11	[0, 0, 0]	n/a	FR1	1	R1378T
1199.282	1.733	1265244	REC_WORD	1.733	n/a	SEA	11	11	[0, 0, 0]	n/a	FR1	1	R1378T
1201.015	3.203	1266977	REC_WORD_VV	3.203	n/a	<>	-999	11	[0, 0, 0]	n/a	FR1	1	R1378T
1204.218	7.817	1270180	REC_WORD	7.817	n/a	DITCH	-999	11	[0, 0, 0]	n/a	FR1	1	R1378T
1212.035	2.28	1277997	REC_WORD	2.28	n/a	WIND	-999	11	[0, 0, 0]	n/a	FR1	1	R1378T
1214.315	6.159	1280276	REC_WORD	6.159	n/a	RAIN	-999	11	[0, 0, 0]	n/a	FR1	1	R1378T
1220.474	4.166	1286435	REC_WORD	4.166	n/a	YARD	-999	11	[0, 0, 0]	n/a	FR1	1	R1378T
1224.64	1.793	1290603	REC_END	n/a	n/a	n/a	-999	11	[0, 0, 0]	n/a	FR1	1	R1378T
1226.433	10.35	1292396	COUNTDOWN_START	n/a	n/a	n/a	-999	12	[0, 0, 0]	n/a	FR1	1	R1378T
1236.783	0.0	1302749	COUNTDOWN_END	n/a	n/a	n/a	-999	12	[0, 0, 0]	n/a	FR1	1	R1378T
1236.783	2.083	1302749	ENCODING_START	n/a	n/a	n/a	-999	12	[0, 0, 0]	n/a	FR1	1	R1378T
1238.866	1.616	1304822	WORD	n/a	wordpools/wordpool_short_EN.txt	WIG	1	12	[0, 0, 0]	n/a	FR1	1	R1378T
1240.482	0.9	1306437	WORD_OFF	n/a	n/a	WIG	1	12	[0, 0, 0]	n/a	FR1	1	R1378T
1241.382	1.6	1307340	WORD	n/a	wordpools/wordpool_short_EN.txt	WEB	2	12	[0, 0, 0]	n/a	FR1	1	R1378T
1242.982	0.85	1308942	WORD_OFF	n/a	n/a	WEB	2	12	[0, 0, 0]	n/a	FR1	1	R1378T
1243.832	1.6	1309795	WORD	n/a	wordpools/wordpool_short_EN.txt	BEAN	3	12	[0, 0, 0]	n/a	FR1	1	R1378T
1245.432	0.783	1311397	WORD_OFF	n/a	n/a	BEAN	3	12	[0, 0, 0]	n/a	FR1	1	R1378T
1246.215	1.6	1312173	WORD	n/a	wordpools/wordpool_short_EN.txt	WING	4	12	[0, 0, 0]	n/a	FR1	1	R1378T
1247.815	0.967	1313775	WORD_OFF	n/a	n/a	WING	4	12	[0, 0, 0]	n/a	FR1	1	R1378T
1248.782	1.6	1314742	WORD	n/a	wordpools/wordpool_short_EN.txt	SPRING	5	12	[0, 0, 0]	n/a	FR1	1	R1378T
1250.382	1.0	1316344	WORD_OFF	n/a	n/a	SPRING	5	12	[0, 0, 0]	n/a	FR1	1	R1378T
1251.382	1.6	1317336	WORD	n/a	wordpools/wordpool_short_EN.txt	CLOWN	6	12	[0, 0, 0]	n/a	FR1	1	R1378T
1252.982	0.95	1318939	WORD_OFF	n/a	n/a	CLOWN	6	12	[0, 0, 0]	n/a	FR1	1	R1378T
1253.932	1.6	1319893	WORD	n/a	wordpools/wordpool_short_EN.txt	ASH	7	12	[0, 0, 0]	n/a	FR1	1	R1378T
1255.532	0.8	1321495	WORD_OFF	n/a	n/a	ASH	7	12	[0, 0, 0]	n/a	FR1	1	R1378T
1256.332	1.616	1322296	WORD	n/a	wordpools/wordpool_short_EN.txt	MOON	8	12	[0, 0, 0]	n/a	FR1	1	R1378T
1257.948	0.984	1323911	WORD_OFF	n/a	n/a	MOON	8	12	[0, 0, 0]	n/a	FR1	1	R1378T
1258.932	1.6	1324891	WORD	n/a	wordpools/wordpool_short_EN.txt	MEAT	9	12	[0, 0, 0]	n/a	FR1	1	R1378T
1260.532	0.834	1326493	WORD_OFF	n/a	n/a	MEAT	9	12	[0, 0, 0]	n/a	FR1	1	R1378T
1261.366	1.599	1327320	WORD	n/a	wordpools/wordpool_short_EN.txt	HEEL	10	12	[0, 0, 0]	n/a	FR1	1	R1378T
1262.965	0.883	1328922	WORD_OFF	n/a	n/a	HEEL	10	12	[0, 0, 0]	n/a	FR1	1	R1378T
1263.848	1.6	1329813	WORD	n/a	wordpools/wordpool_short_EN.txt	COAL	11	12	[0, 0, 0]	n/a	FR1	1	R1378T
1265.448	0.8	1331402	WORD_OFF	n/a	n/a	COAL	11	12	[0, 0, 0]	n/a	FR1	1	R1378T
1266.248	1.6	1332204	WORD	n/a	wordpools/wordpool_short_EN.txt	CLIFF	12	12	[0, 0, 0]	n/a	FR1	1	R1378T
1267.848	0.002	1333806	WORD_OFF	n/a	n/a	CLIFF	12	12	[0, 0, 0]	n/a	FR1	1	R1378T
1267.85	0.0	1333806	ENCODING_END	n/a	n/a	n/a	-999	12	[0, 0, 0]	n/a	FR1	1	R1378T
1267.85	0.0	1333806	DISTRACT_START	n/a	n/a	n/a	-999	12	[0, 0, 0]	n/a	FR1	1	R1378T
1267.849	0.001	1333808	PROB	0.001	n/a	n/a	-999	12	[1, 4, 6]	11	FR1	1	R1378T
1267.85	2.982	1333809	START	n/a	n/a	n/a	-999	12	[-999, -999, -999]	n/a	FR1	1	R1378T
1270.832	3.417	1336790	PROB	3.417	n/a	n/a	-999	12	[6, 5, 4]	15	FR1	1	R1378T
1274.249	2.55	1340207	PROB	2.55	n/a	n/a	-999	12	[5, 5, 1]	11	FR1	1	R1378T
1276.799	3.168	1342757	PROB	3.168	n/a	n/a	-999	12	[4, 2, 6]	12	FR1	1	R1378T
1279.967	2.783	1345925	PROB	2.783	n/a	n/a	-999	12	[3, 4, 2]	9	FR1	1	R1378T
1282.75	2.915	1348708	PROB	2.915	n/a	n/a	-999	12	[4, 2, 7]	13	FR1	1	R1378T
1285.665	3.067	1351623	PROB	3.067	n/a	n/a	-999	12	[1, 1, 3]	5	FR1	1	R1378T
1288.732	0.0	1354689	DISTRACT_END	n/a	n/a	n/a	-999	12	[0, 0, 0]	n/a	FR1	1	R1378T
1288.732	1.3	1354690	STOP	n/a	n/a	n/a	-999	12	[-999, -999, -999]	n/a	FR1	1	R1378T
1290.032	4.038	1355986	REC_START	n/a	n/a	n/a	-999	12	[0, 0, 0]	n/a	FR1	1	R1378T
1294.07	0.683	1360027	REC_WORD	0.683	n/a	WIG	1	12	[0, 0, 0]	n/a	FR1	1	R1378T
1294.753	1.832	1360710	REC_WORD	1.832	n/a	WING	4	12	[0, 0, 0]	n/a	FR1	1	R1378T
1296.585	3.79	1362542	REC_WORD	3.79	n/a	CLIFF	12	12	[0, 0, 0]	n/a	FR1	1	R1378T
1300.375	4.19	1366332	REC_WORD	4.19	n/a	WET	-999	12	[0, 0, 0]	n/a	FR1	1	R1378T
1304.565	3.844	1370522	REC_WORD	3.844	n/a	BOOT	-999	12	[0, 0, 0]	n/a	FR1	1	R1378T
1308.409	7.897	1374365	REC_WORD_VV	7.897	n/a	<>	-999	12	[0, 0, 0]	n/a	FR1	1	R1378T
1316.306	3.97	1382262	REC_WORD	3.97	n/a	ASH	7	12	[0, 0, 0]	n/a	FR1	1	R1378T
1320.276	0.0	1386229	REC_END	n/a	n/a	n/a	-999	12	[0, 0, 0]	n/a	FR1	1	R1378T
