onset	duration	sample	trial_type	response_time	stim_file	item_name	serialpos	list	test	answer	experiment	session	subject
0.0	3.31	9715	INSTRUCT_START	n/a	n/a	n/a	-999	-999	[0, 0, 0]	n/a	FR1	1	R1384J
3.31	39.023	13028	INSTRUCT_END	n/a	n/a	n/a	-999	-999	[0, 0, 0]	n/a	FR1	1	R1384J
42.333	10.365	52054	COUNTDOWN_START	n/a	n/a	n/a	-999	-999	[0, 0, 0]	n/a	FR1	1	R1384J
52.698	0.001	62414	COUNTDOWN_END	n/a	n/a	n/a	-999	-999	[0, 0, 0]	n/a	FR1	1	R1384J
52.699	1.95	62414	ENCODING_START	n/a	n/a	n/a	-999	-1	[0, 0, 0]	n/a	FR1	1	R1384J
54.649	1.616	64367	WORD	n/a	n/a	BEAM	1	-1	[0, 0, 0]	n/a	FR1	1	R1384J
56.265	0.951	65983	WORD_OFF	n/a	n/a	BEAM	1	-1	[0, 0, 0]	n/a	FR1	1	R1384J
57.216	1.617	66934	WORD	n/a	n/a	IMAGE	2	-1	[0, 0, 0]	n/a	FR1	1	R1384J
58.833	0.833	68550	WORD_OFF	n/a	n/a	IMAGE	2	-1	[0, 0, 0]	n/a	FR1	1	R1384J
59.666	1.617	69378	WORD	n/a	n/a	WATCH	3	-1	[0, 0, 0]	n/a	FR1	1	R1384J
61.283	0.866	70994	WORD_OFF	n/a	n/a	WATCH	3	-1	[0, 0, 0]	n/a	FR1	1	R1384J
62.149	1.616	71863	WORD	n/a	n/a	FLOOD	4	-1	[0, 0, 0]	n/a	FR1	1	R1384J
63.765	0.951	73479	WORD_OFF	n/a	n/a	FLOOD	4	-1	[0, 0, 0]	n/a	FR1	1	R1384J
64.716	1.616	74430	WORD	n/a	n/a	RING	5	-1	[0, 0, 0]	n/a	FR1	1	R1384J
66.332	0.783	76046	WORD_OFF	n/a	n/a	RING	5	-1	[0, 0, 0]	n/a	FR1	1	R1384J
67.115	1.601	76833	WORD	n/a	n/a	TONGUE	6	-1	[0, 0, 0]	n/a	FR1	1	R1384J
68.716	0.816	78429	WORD_OFF	n/a	n/a	TONGUE	6	-1	[0, 0, 0]	n/a	FR1	1	R1384J
69.532	1.601	79247	WORD	n/a	n/a	CHEST	7	-1	[0, 0, 0]	n/a	FR1	1	R1384J
71.133	0.883	80842	WORD_OFF	n/a	n/a	CHEST	7	-1	[0, 0, 0]	n/a	FR1	1	R1384J
72.016	1.617	81732	WORD	n/a	n/a	CAMEL	8	-1	[0, 0, 0]	n/a	FR1	1	R1384J
73.633	0.899	83348	WORD_OFF	n/a	n/a	CAMEL	8	-1	[0, 0, 0]	n/a	FR1	1	R1384J
74.532	1.601	84248	WORD	n/a	n/a	BABY	9	-1	[0, 0, 0]	n/a	FR1	1	R1384J
76.133	0.816	85843	WORD_OFF	n/a	n/a	BABY	9	-1	[0, 0, 0]	n/a	FR1	1	R1384J
76.949	1.617	86661	WORD	n/a	n/a	COTTON	10	-1	[0, 0, 0]	n/a	FR1	1	R1384J
78.566	0.983	88277	WORD_OFF	n/a	n/a	COTTON	10	-1	[0, 0, 0]	n/a	FR1	1	R1384J
79.549	1.6	89259	WORD	n/a	n/a	WAGON	11	-1	[0, 0, 0]	n/a	FR1	1	R1384J
81.149	0.95	90865	WORD_OFF	n/a	n/a	WAGON	11	-1	[0, 0, 0]	n/a	FR1	1	R1384J
82.099	1.6	91816	WORD	n/a	n/a	RHINO	12	-1	[0, 0, 0]	n/a	FR1	1	R1384J
83.699	0.002	93411	WORD_OFF	n/a	n/a	RHINO	12	-1	[0, 0, 0]	n/a	FR1	1	R1384J
83.701	0.005	93415	PROB	0.005	n/a	n/a	-999	-1	[3, 1, 5]	9	FR1	1	R1384J
83.706	0.001	93421	ENCODING_END	n/a	n/a	n/a	-999	-1	[0, 0, 0]	n/a	FR1	1	R1384J
83.707	0.0	93421	DISTRACT_START	n/a	n/a	n/a	-999	-1	[0, 0, 0]	n/a	FR1	1	R1384J
83.707	4.11	93421	START	n/a	n/a	n/a	-999	-1	[-999, -999, -999]	n/a	FR1	1	R1384J
87.817	4.916	97531	PROB	4.916	n/a	n/a	-999	-1	[6, 8, 4]	18	FR1	1	R1384J
92.733	4.05	102446	PROB	4.05	n/a	n/a	-999	-1	[5, 8, 5]	18	FR1	1	R1384J
96.783	4.516	106496	PROB	4.516	n/a	n/a	-999	-1	[6, 3, 6]	15	FR1	1	R1384J
101.299	6.75	111012	PROB	6.75	n/a	n/a	-999	-1	[7, 5, 7]	19	FR1	1	R1384J
108.049	0.0	117761	DISTRACT_END	n/a	n/a	n/a	-999	-1	[0, 0, 0]	n/a	FR1	1	R1384J
108.049	1.234	117762	STOP	n/a	n/a	n/a	-999	-1	[-999, -999, -999]	n/a	FR1	1	R1384J
109.283	1.636	118999	REC_START	n/a	n/a	n/a	-999	-1	[0, 0, 0]	n/a	FR1	1	R1384J
110.919	0.977	120632	REC_WORD	0.977	n/a	CAMEL	8	-1	[0, 0, 0]	n/a	FR1	1	R1384J
111.896	1.452	121609	REC_WORD	1.452	n/a	WAGON	11	-1	[0, 0, 0]	n/a	FR1	1	R1384J
113.348	1.264	123061	REC_WORD	1.264	n/a	BEAM	1	-1	[0, 0, 0]	n/a	FR1	1	R1384J
114.612	3.834	124325	REC_WORD	3.834	n/a	RHINO	12	-1	[0, 0, 0]	n/a	FR1	1	R1384J
118.446	4.81	128158	REC_WORD	4.81	n/a	COTTON	10	-1	[0, 0, 0]	n/a	FR1	1	R1384J
123.256	16.274	132968	REC_WORD	16.274	n/a	TONGUE	6	-1	[0, 0, 0]	n/a	FR1	1	R1384J
139.53	9.918	149239	REC_END	n/a	n/a	n/a	-999	-1	[0, 0, 0]	n/a	FR1	1	R1384J
149.448	10.364	159159	COUNTDOWN_START	n/a	n/a	n/a	-999	1	[0, 0, 0]	n/a	FR1	1	R1384J
159.812	0.0	169519	COUNTDOWN_END	n/a	n/a	n/a	-999	1	[0, 0, 0]	n/a	FR1	1	R1384J
159.812	1.904	169529	ENCODING_START	n/a	n/a	n/a	-999	1	[0, 0, 0]	n/a	FR1	1	R1384J
161.716	1.6	171431	WORD	n/a	n/a	PLATE	1	1	[0, 0, 0]	n/a	FR1	1	R1384J
163.316	0.983	173027	WORD_OFF	n/a	n/a	PLATE	1	1	[0, 0, 0]	n/a	FR1	1	R1384J
164.299	1.6	174008	WORD	n/a	n/a	STAR	2	1	[0, 0, 0]	n/a	FR1	1	R1384J
165.899	0.967	175614	WORD_OFF	n/a	n/a	STAR	2	1	[0, 0, 0]	n/a	FR1	1	R1384J
166.866	1.616	176575	WORD	n/a	n/a	LENS	3	1	[0, 0, 0]	n/a	FR1	1	R1384J
168.482	0.85	178191	WORD_OFF	n/a	n/a	LENS	3	1	[0, 0, 0]	n/a	FR1	1	R1384J
169.332	1.616	179040	WORD	n/a	n/a	STRING	4	1	[0, 0, 0]	n/a	FR1	1	R1384J
170.948	0.884	180656	WORD_OFF	n/a	n/a	STRING	4	1	[0, 0, 0]	n/a	FR1	1	R1384J
171.832	1.601	181546	WORD	n/a	n/a	POOL	5	1	[0, 0, 0]	n/a	FR1	1	R1384J
173.433	0.766	183141	WORD_OFF	n/a	n/a	POOL	5	1	[0, 0, 0]	n/a	FR1	1	R1384J
174.199	1.617	183908	WORD	n/a	n/a	CROWN	6	1	[0, 0, 0]	n/a	FR1	1	R1384J
175.816	0.934	185524	WORD_OFF	n/a	n/a	CROWN	6	1	[0, 0, 0]	n/a	FR1	1	R1384J
176.75	1.616	186465	WORD	n/a	n/a	EEL	7	1	[0, 0, 0]	n/a	FR1	1	R1384J
178.366	0.85	188081	WORD_OFF	n/a	n/a	EEL	7	1	[0, 0, 0]	n/a	FR1	1	R1384J
179.216	1.616	188929	WORD	n/a	n/a	HOOK	8	1	[0, 0, 0]	n/a	FR1	1	R1384J
180.832	0.918	190545	WORD_OFF	n/a	n/a	HOOK	8	1	[0, 0, 0]	n/a	FR1	1	R1384J
181.75	1.616	191455	WORD	n/a	n/a	GRASS	9	1	[0, 0, 0]	n/a	FR1	1	R1384J
183.366	0.949	193071	WORD_OFF	n/a	n/a	GRASS	9	1	[0, 0, 0]	n/a	FR1	1	R1384J
184.315	1.601	194022	WORD	n/a	n/a	CORK	10	1	[0, 0, 0]	n/a	FR1	1	R1384J
185.916	1.0	195628	WORD_OFF	n/a	n/a	CORK	10	1	[0, 0, 0]	n/a	FR1	1	R1384J
186.916	1.617	196630	WORD	n/a	n/a	STEAK	11	1	[0, 0, 0]	n/a	FR1	1	R1384J
188.533	0.916	198246	WORD_OFF	n/a	n/a	STEAK	11	1	[0, 0, 0]	n/a	FR1	1	R1384J
189.449	1.617	199156	WORD	n/a	n/a	CLOCK	12	1	[0, 0, 0]	n/a	FR1	1	R1384J
191.066	0.0	200772	WORD_OFF	n/a	n/a	CLOCK	12	1	[0, 0, 0]	n/a	FR1	1	R1384J
191.066	0.001	200775	PROB	0.001	n/a	n/a	-999	1	[5, 3, 7]	15	FR1	1	R1384J
191.067	0.0	200776	START	n/a	n/a	n/a	-999	1	[-999, -999, -999]	n/a	FR1	1	R1384J
191.067	0.0	200782	ENCODING_END	n/a	n/a	n/a	-999	1	[0, 0, 0]	n/a	FR1	1	R1384J
191.067	7.066	200782	DISTRACT_START	n/a	n/a	n/a	-999	1	[0, 0, 0]	n/a	FR1	1	R1384J
198.133	4.95	207842	PROB	4.95	n/a	n/a	-999	1	[7, 6, 4]	17	FR1	1	R1384J
203.083	6.883	212792	PROB	6.883	n/a	n/a	-999	1	[5, 6, 1]	14	FR1	1	R1384J
209.966	4.333	219675	PROB	4.333	n/a	n/a	-999	1	[3, 6, 1]	10	FR1	1	R1384J
214.299	0.0	224007	DISTRACT_END	n/a	n/a	n/a	-999	1	[0, 0, 0]	n/a	FR1	1	R1384J
214.299	1.366	224008	STOP	n/a	n/a	n/a	-999	1	[-999, -999, -999]	n/a	FR1	1	R1384J
215.665	1.597	225378	REC_START	n/a	n/a	n/a	-999	1	[0, 0, 0]	n/a	FR1	1	R1384J
217.262	1.099	226970	REC_WORD	1.099	n/a	EEL	7	1	[0, 0, 0]	n/a	FR1	1	R1384J
218.361	27.546	228069	REC_WORD	27.546	n/a	STEAK	11	1	[0, 0, 0]	n/a	FR1	1	R1384J
245.907	2.326	255618	REC_END	n/a	n/a	n/a	-999	1	[0, 0, 0]	n/a	FR1	1	R1384J
248.233	10.357	257940	COUNTDOWN_START	n/a	n/a	n/a	-999	2	[0, 0, 0]	n/a	FR1	1	R1384J
258.59	0.0	268300	COUNTDOWN_END	n/a	n/a	n/a	-999	2	[0, 0, 0]	n/a	FR1	1	R1384J
258.59	2.176	268300	ENCODING_START	n/a	n/a	n/a	-999	2	[0, 0, 0]	n/a	FR1	1	R1384J
260.766	1.6	270478	WORD	n/a	n/a	VINE	1	2	[0, 0, 0]	n/a	FR1	1	R1384J
262.366	0.85	272073	WORD_OFF	n/a	n/a	VINE	1	2	[0, 0, 0]	n/a	FR1	1	R1384J
263.216	1.617	272922	WORD	n/a	n/a	SPARK	2	2	[0, 0, 0]	n/a	FR1	1	R1384J
264.833	0.783	274538	WORD_OFF	n/a	n/a	SPARK	2	2	[0, 0, 0]	n/a	FR1	1	R1384J
265.616	1.6	275325	WORD	n/a	n/a	NECK	3	2	[0, 0, 0]	n/a	FR1	1	R1384J
267.216	0.9	276921	WORD_OFF	n/a	n/a	NECK	3	2	[0, 0, 0]	n/a	FR1	1	R1384J
268.116	1.617	277821	WORD	n/a	n/a	NAIL	4	2	[0, 0, 0]	n/a	FR1	1	R1384J
269.733	0.95	279437	WORD_OFF	n/a	n/a	NAIL	4	2	[0, 0, 0]	n/a	FR1	1	R1384J
270.683	1.6	280388	WORD	n/a	n/a	MIST	5	2	[0, 0, 0]	n/a	FR1	1	R1384J
272.283	0.967	281993	WORD_OFF	n/a	n/a	MIST	5	2	[0, 0, 0]	n/a	FR1	1	R1384J
273.25	1.616	282955	WORD	n/a	n/a	ROCK	6	2	[0, 0, 0]	n/a	FR1	1	R1384J
274.866	0.833	284570	WORD_OFF	n/a	n/a	ROCK	6	2	[0, 0, 0]	n/a	FR1	1	R1384J
275.699	1.6	285409	WORD	n/a	n/a	CUP	7	2	[0, 0, 0]	n/a	FR1	1	R1384J
277.299	0.867	287004	WORD_OFF	n/a	n/a	CUP	7	2	[0, 0, 0]	n/a	FR1	1	R1384J
278.166	1.617	287874	WORD	n/a	n/a	PALM	8	2	[0, 0, 0]	n/a	FR1	1	R1384J
279.783	1.0	289489	WORD_OFF	n/a	n/a	PALM	8	2	[0, 0, 0]	n/a	FR1	1	R1384J
280.783	1.616	290492	WORD	n/a	n/a	BOOK	9	2	[0, 0, 0]	n/a	FR1	1	R1384J
282.399	0.766	292108	WORD_OFF	n/a	n/a	BOOK	9	2	[0, 0, 0]	n/a	FR1	1	R1384J
283.165	1.601	292875	WORD	n/a	n/a	JAIL	10	2	[0, 0, 0]	n/a	FR1	1	R1384J
284.766	0.9	294470	WORD_OFF	n/a	n/a	JAIL	10	2	[0, 0, 0]	n/a	FR1	1	R1384J
285.666	1.6	295370	WORD	n/a	n/a	NEST	11	2	[0, 0, 0]	n/a	FR1	1	R1384J
287.266	0.9	296976	WORD_OFF	n/a	n/a	NEST	11	2	[0, 0, 0]	n/a	FR1	1	R1384J
288.166	1.6	297875	WORD	n/a	n/a	BENCH	12	2	[0, 0, 0]	n/a	FR1	1	R1384J
289.766	0.002	299471	WORD_OFF	n/a	n/a	BENCH	12	2	[0, 0, 0]	n/a	FR1	1	R1384J
289.768	0.0	299471	ENCODING_END	n/a	n/a	n/a	-999	2	[0, 0, 0]	n/a	FR1	1	R1384J
289.767	0.001	299473	PROB	0.001	n/a	n/a	-999	2	[1, 2, 1]	6	FR1	1	R1384J
289.768	0.0	299474	START	n/a	n/a	n/a	-999	2	[-999, -999, -999]	n/a	FR1	1	R1384J
289.768	5.349	299481	DISTRACT_START	n/a	n/a	n/a	-999	2	[0, 0, 0]	n/a	FR1	1	R1384J
295.117	7.299	304822	PROB	7.299	n/a	n/a	-999	2	[7, 2, 3]	12	FR1	1	R1384J
302.416	4.651	312121	PROB	4.651	n/a	n/a	-999	2	[4, 1, 1]	6	FR1	1	R1384J
307.067	4.915	316772	PROB	4.915	n/a	n/a	-999	2	[7, 4, 2]	13	FR1	1	R1384J
311.982	0.0	321683	DISTRACT_END	n/a	n/a	n/a	-999	2	[0, 0, 0]	n/a	FR1	1	R1384J
311.982	1.183	321687	STOP	n/a	n/a	n/a	-999	2	[-999, -999, -999]	n/a	FR1	1	R1384J
313.165	22.967	322870	REC_START	n/a	n/a	n/a	-999	2	[0, 0, 0]	n/a	FR1	1	R1384J
336.132	7.309	345836	REC_WORD	7.309	n/a	JAIL	10	2	[0, 0, 0]	n/a	FR1	1	R1384J
343.441	3.075	353141	REC_END	n/a	n/a	n/a	-999	2	[0, 0, 0]	n/a	FR1	1	R1384J
346.516	10.363	356219	COUNTDOWN_START	n/a	n/a	n/a	-999	3	[0, 0, 0]	n/a	FR1	1	R1384J
356.879	0.0	366579	COUNTDOWN_END	n/a	n/a	n/a	-999	3	[0, 0, 0]	n/a	FR1	1	R1384J
356.879	2.019	366589	ENCODING_START	n/a	n/a	n/a	-999	3	[0, 0, 0]	n/a	FR1	1	R1384J
358.898	1.601	368604	WORD	n/a	n/a	TANK	1	3	[0, 0, 0]	n/a	FR1	1	R1384J
360.499	0.917	370199	WORD_OFF	n/a	n/a	TANK	1	3	[0, 0, 0]	n/a	FR1	1	R1384J
361.416	1.616	371120	WORD	n/a	n/a	DEER	2	3	[0, 0, 0]	n/a	FR1	1	R1384J
363.032	0.984	372736	WORD_OFF	n/a	n/a	DEER	2	3	[0, 0, 0]	n/a	FR1	1	R1384J
364.016	1.617	373717	WORD	n/a	n/a	THREAD	3	3	[0, 0, 0]	n/a	FR1	1	R1384J
365.633	0.832	375333	WORD_OFF	n/a	n/a	THREAD	3	3	[0, 0, 0]	n/a	FR1	1	R1384J
366.465	1.6	376172	WORD	n/a	n/a	SUN	4	3	[0, 0, 0]	n/a	FR1	1	R1384J
368.065	0.901	377767	WORD_OFF	n/a	n/a	SUN	4	3	[0, 0, 0]	n/a	FR1	1	R1384J
368.966	1.617	378667	WORD	n/a	n/a	WEED	5	3	[0, 0, 0]	n/a	FR1	1	R1384J
370.583	0.932	380283	WORD_OFF	n/a	n/a	WEED	5	3	[0, 0, 0]	n/a	FR1	1	R1384J
371.515	1.601	381214	WORD	n/a	n/a	WAND	6	3	[0, 0, 0]	n/a	FR1	1	R1384J
373.116	0.917	382819	WORD_OFF	n/a	n/a	WAND	6	3	[0, 0, 0]	n/a	FR1	1	R1384J
374.033	1.6	383740	WORD	n/a	n/a	SHELL	7	3	[0, 0, 0]	n/a	FR1	1	R1384J
375.633	0.899	385335	WORD_OFF	n/a	n/a	SHELL	7	3	[0, 0, 0]	n/a	FR1	1	R1384J
376.532	1.6	386235	WORD	n/a	n/a	PAGE	8	3	[0, 0, 0]	n/a	FR1	1	R1384J
378.132	0.834	387830	WORD_OFF	n/a	n/a	PAGE	8	3	[0, 0, 0]	n/a	FR1	1	R1384J
378.966	1.617	388669	WORD	n/a	n/a	CURB	9	3	[0, 0, 0]	n/a	FR1	1	R1384J
380.583	0.766	390285	WORD_OFF	n/a	n/a	CURB	9	3	[0, 0, 0]	n/a	FR1	1	R1384J
381.349	1.616	391052	WORD	n/a	n/a	HOOF	10	3	[0, 0, 0]	n/a	FR1	1	R1384J
382.965	0.818	392668	WORD_OFF	n/a	n/a	HOOF	10	3	[0, 0, 0]	n/a	FR1	1	R1384J
383.783	1.615	393486	WORD	n/a	n/a	PRIZE	11	3	[0, 0, 0]	n/a	FR1	1	R1384J
385.398	0.917	395102	WORD_OFF	n/a	n/a	PRIZE	11	3	[0, 0, 0]	n/a	FR1	1	R1384J
386.315	1.601	396012	WORD	n/a	n/a	SPONGE	12	3	[0, 0, 0]	n/a	FR1	1	R1384J
387.916	0.001	397617	WORD_OFF	n/a	n/a	SPONGE	12	3	[0, 0, 0]	n/a	FR1	1	R1384J
387.917	0.0	397617	ENCODING_END	n/a	n/a	n/a	-999	3	[0, 0, 0]	n/a	FR1	1	R1384J
387.917	0.0	397617	DISTRACT_START	n/a	n/a	n/a	-999	3	[0, 0, 0]	n/a	FR1	1	R1384J
387.917	0.0	397619	PROB	0.0	n/a	n/a	-999	3	[8, 3, 1]	12	FR1	1	R1384J
387.917	6.832	397619	START	n/a	n/a	n/a	-999	3	[-999, -999, -999]	n/a	FR1	1	R1384J
394.749	4.55	404450	PROB	4.55	n/a	n/a	-999	3	[1, 3, 6]	10	FR1	1	R1384J
399.299	6.317	409000	PROB	6.317	n/a	n/a	-999	3	[8, 5, 8]	21	FR1	1	R1384J
405.616	5.083	415317	PROB	5.083	n/a	n/a	-999	3	[4, 4, 8]	16	FR1	1	R1384J
410.699	0.0	420400	STOP	n/a	n/a	n/a	-999	3	[-999, -999, -999]	n/a	FR1	1	R1384J
410.699	1.133	420403	DISTRACT_END	n/a	n/a	n/a	-999	3	[0, 0, 0]	n/a	FR1	1	R1384J
411.832	1.554	421528	REC_START	n/a	n/a	n/a	-999	3	[0, 0, 0]	n/a	FR1	1	R1384J
413.386	0.988	423087	REC_WORD	0.988	n/a	CURB	9	3	[0, 0, 0]	n/a	FR1	1	R1384J
414.374	1.0	424074	REC_WORD	1.0	n/a	SPONGE	12	3	[0, 0, 0]	n/a	FR1	1	R1384J
415.374	6.876	425074	REC_WORD_VV	6.876	n/a	<>	-999	3	[0, 0, 0]	n/a	FR1	1	R1384J
422.25	19.845	431950	REC_WORD	19.845	n/a	TANK	1	3	[0, 0, 0]	n/a	FR1	1	R1384J
442.095	2.554	451799	REC_END	n/a	n/a	n/a	-999	3	[0, 0, 0]	n/a	FR1	1	R1384J
444.649	10.369	454356	COUNTDOWN_START	n/a	n/a	n/a	-999	4	[0, 0, 0]	n/a	FR1	1	R1384J
455.018	0.0	464715	COUNTDOWN_END	n/a	n/a	n/a	-999	4	[0, 0, 0]	n/a	FR1	1	R1384J
455.018	2.148	464715	ENCODING_START	n/a	n/a	n/a	-999	4	[0, 0, 0]	n/a	FR1	1	R1384J
457.166	1.6	466863	WORD	n/a	n/a	BEAK	1	4	[0, 0, 0]	n/a	FR1	1	R1384J
458.766	0.85	468469	WORD_OFF	n/a	n/a	BEAK	1	4	[0, 0, 0]	n/a	FR1	1	R1384J
459.616	1.6	469317	WORD	n/a	n/a	SLIME	2	4	[0, 0, 0]	n/a	FR1	1	R1384J
461.216	0.767	470913	WORD_OFF	n/a	n/a	SLIME	2	4	[0, 0, 0]	n/a	FR1	1	R1384J
461.983	1.617	471680	WORD	n/a	n/a	SKY	3	4	[0, 0, 0]	n/a	FR1	1	R1384J
463.6	0.85	473296	WORD_OFF	n/a	n/a	SKY	3	4	[0, 0, 0]	n/a	FR1	1	R1384J
464.45	1.6	474145	WORD	n/a	n/a	GEESE	4	4	[0, 0, 0]	n/a	FR1	1	R1384J
466.05	0.766	475750	WORD_OFF	n/a	n/a	GEESE	4	4	[0, 0, 0]	n/a	FR1	1	R1384J
466.816	1.617	476517	WORD	n/a	n/a	BIRD	5	4	[0, 0, 0]	n/a	FR1	1	R1384J
468.433	0.967	478133	WORD_OFF	n/a	n/a	BIRD	5	4	[0, 0, 0]	n/a	FR1	1	R1384J
469.4	1.6	479094	WORD	n/a	n/a	PEA	6	4	[0, 0, 0]	n/a	FR1	1	R1384J
471.0	1.0	480700	WORD_OFF	n/a	n/a	PEA	6	4	[0, 0, 0]	n/a	FR1	1	R1384J
472.0	1.6	481702	WORD	n/a	n/a	FLAG	7	4	[0, 0, 0]	n/a	FR1	1	R1384J
473.6	0.799	483297	WORD_OFF	n/a	n/a	FLAG	7	4	[0, 0, 0]	n/a	FR1	1	R1384J
474.399	1.601	484095	WORD	n/a	n/a	LEAF	8	4	[0, 0, 0]	n/a	FR1	1	R1384J
476.0	0.9	485701	WORD_OFF	n/a	n/a	LEAF	8	4	[0, 0, 0]	n/a	FR1	1	R1384J
476.9	1.601	486601	WORD	n/a	n/a	FACE	9	4	[0, 0, 0]	n/a	FR1	1	R1384J
478.501	0.765	488196	WORD_OFF	n/a	n/a	FACE	9	4	[0, 0, 0]	n/a	FR1	1	R1384J
479.266	1.6	488963	WORD	n/a	n/a	KITE	10	4	[0, 0, 0]	n/a	FR1	1	R1384J
480.866	0.767	490569	WORD_OFF	n/a	n/a	KITE	10	4	[0, 0, 0]	n/a	FR1	1	R1384J
481.633	1.616	491336	WORD	n/a	n/a	TIN	11	4	[0, 0, 0]	n/a	FR1	1	R1384J
483.249	0.934	492952	WORD_OFF	n/a	n/a	TIN	11	4	[0, 0, 0]	n/a	FR1	1	R1384J
484.183	1.617	493882	WORD	n/a	n/a	MAP	12	4	[0, 0, 0]	n/a	FR1	1	R1384J
485.8	0.001	495498	WORD_OFF	n/a	n/a	MAP	12	4	[0, 0, 0]	n/a	FR1	1	R1384J
485.801	0.0	495498	ENCODING_END	n/a	n/a	n/a	-999	4	[0, 0, 0]	n/a	FR1	1	R1384J
485.801	0.0	495498	DISTRACT_START	n/a	n/a	n/a	-999	4	[0, 0, 0]	n/a	FR1	1	R1384J
485.8	0.001	495498	PROB	0.001	n/a	n/a	-999	4	[5, 3, 3]	11	FR1	1	R1384J
485.801	6.849	495499	START	n/a	n/a	n/a	-999	4	[-999, -999, -999]	n/a	FR1	1	R1384J
492.65	6.366	502347	PROB	6.366	n/a	n/a	-999	4	[3, 7, 4]	13	FR1	1	R1384J
499.016	7.583	508713	PROB	7.583	n/a	n/a	-999	4	[7, 5, 2]	14	FR1	1	R1384J
506.599	0.0	516296	STOP	n/a	n/a	n/a	-999	4	[-999, -999, -999]	n/a	FR1	1	R1384J
506.599	1.05	516299	DISTRACT_END	n/a	n/a	n/a	-999	4	[0, 0, 0]	n/a	FR1	1	R1384J
507.649	1.618	517343	REC_START	n/a	n/a	n/a	-999	4	[0, 0, 0]	n/a	FR1	1	R1384J
509.267	0.848	518964	REC_WORD	0.848	n/a	GEESE	4	4	[0, 0, 0]	n/a	FR1	1	R1384J
510.115	2.58	519812	REC_WORD	2.58	n/a	FACE	9	4	[0, 0, 0]	n/a	FR1	1	R1384J
512.695	25.212	522392	REC_WORD	25.212	n/a	SLIME	2	4	[0, 0, 0]	n/a	FR1	1	R1384J
537.907	2.759	547604	REC_END	n/a	n/a	n/a	-999	4	[0, 0, 0]	n/a	FR1	1	R1384J
540.666	10.36	550365	COUNTDOWN_START	n/a	n/a	n/a	-999	5	[0, 0, 0]	n/a	FR1	1	R1384J
551.026	0.0	560725	COUNTDOWN_END	n/a	n/a	n/a	-999	5	[0, 0, 0]	n/a	FR1	1	R1384J
551.026	2.007	560725	ENCODING_START	n/a	n/a	n/a	-999	5	[0, 0, 0]	n/a	FR1	1	R1384J
553.033	1.6	562729	WORD	n/a	n/a	KNOB	1	5	[0, 0, 0]	n/a	FR1	1	R1384J
554.633	0.9	564324	WORD_OFF	n/a	n/a	KNOB	1	5	[0, 0, 0]	n/a	FR1	1	R1384J
555.533	1.6	565224	WORD	n/a	n/a	STEAM	2	5	[0, 0, 0]	n/a	FR1	1	R1384J
557.133	0.767	566830	WORD_OFF	n/a	n/a	STEAM	2	5	[0, 0, 0]	n/a	FR1	1	R1384J
557.9	1.616	567597	WORD	n/a	n/a	LIP	3	5	[0, 0, 0]	n/a	FR1	1	R1384J
559.516	0.934	569213	WORD_OFF	n/a	n/a	LIP	3	5	[0, 0, 0]	n/a	FR1	1	R1384J
560.45	1.6	570143	WORD	n/a	n/a	SCHOOL	4	5	[0, 0, 0]	n/a	FR1	1	R1384J
562.05	0.765	571749	WORD_OFF	n/a	n/a	SCHOOL	4	5	[0, 0, 0]	n/a	FR1	1	R1384J
562.815	1.601	572516	WORD	n/a	n/a	HARP	5	5	[0, 0, 0]	n/a	FR1	1	R1384J
564.416	0.934	574111	WORD_OFF	n/a	n/a	HARP	5	5	[0, 0, 0]	n/a	FR1	1	R1384J
565.35	1.616	575042	WORD	n/a	n/a	ZOO	6	5	[0, 0, 0]	n/a	FR1	1	R1384J
566.966	0.867	576658	WORD_OFF	n/a	n/a	ZOO	6	5	[0, 0, 0]	n/a	FR1	1	R1384J
567.833	1.6	577527	WORD	n/a	n/a	RIB	7	5	[0, 0, 0]	n/a	FR1	1	R1384J
569.433	1.0	579123	WORD_OFF	n/a	n/a	RIB	7	5	[0, 0, 0]	n/a	FR1	1	R1384J
570.433	1.617	580125	WORD	n/a	n/a	OIL	8	5	[0, 0, 0]	n/a	FR1	1	R1384J
572.05	0.95	581741	WORD_OFF	n/a	n/a	OIL	8	5	[0, 0, 0]	n/a	FR1	1	R1384J
573.0	1.6	582692	WORD	n/a	n/a	DRAIN	9	5	[0, 0, 0]	n/a	FR1	1	R1384J
574.6	0.949	584297	WORD_OFF	n/a	n/a	DRAIN	9	5	[0, 0, 0]	n/a	FR1	1	R1384J
575.549	1.601	585248	WORD	n/a	n/a	STOOL	10	5	[0, 0, 0]	n/a	FR1	1	R1384J
577.15	0.883	586844	WORD_OFF	n/a	n/a	STOOL	10	5	[0, 0, 0]	n/a	FR1	1	R1384J
578.033	1.6	587723	WORD	n/a	n/a	SPEAR	11	5	[0, 0, 0]	n/a	FR1	1	R1384J
579.633	0.949	589329	WORD_OFF	n/a	n/a	SPEAR	11	5	[0, 0, 0]	n/a	FR1	1	R1384J
580.582	1.601	590280	WORD	n/a	n/a	WORM	12	5	[0, 0, 0]	n/a	FR1	1	R1384J
582.183	0.001	591875	WORD_OFF	n/a	n/a	WORM	12	5	[0, 0, 0]	n/a	FR1	1	R1384J
582.184	0.0	591875	ENCODING_END	n/a	n/a	n/a	-999	5	[0, 0, 0]	n/a	FR1	1	R1384J
582.183	0.001	591877	PROB	0.001	n/a	n/a	-999	5	[7, 6, 1]	14	FR1	1	R1384J
582.184	0.0	591878	START	n/a	n/a	n/a	-999	5	[-999, -999, -999]	n/a	FR1	1	R1384J
582.184	5.499	591886	DISTRACT_START	n/a	n/a	n/a	-999	5	[0, 0, 0]	n/a	FR1	1	R1384J
587.683	12.217	597376	PROB	12.217	n/a	n/a	-999	5	[4, 4, 5]	13	FR1	1	R1384J
599.9	7.699	609593	PROB	7.699	n/a	n/a	-999	5	[2, 8, 2]	14	FR1	1	R1384J
607.599	0.0	617289	DISTRACT_END	n/a	n/a	n/a	-999	5	[0, 0, 0]	n/a	FR1	1	R1384J
607.599	1.117	617292	STOP	n/a	n/a	n/a	-999	5	[-999, -999, -999]	n/a	FR1	1	R1384J
608.716	1.718	618414	REC_START	n/a	n/a	n/a	-999	5	[0, 0, 0]	n/a	FR1	1	R1384J
610.434	4.141	620127	REC_WORD	4.141	n/a	SPEAR	11	5	[0, 0, 0]	n/a	FR1	1	R1384J
614.575	20.163	624267	REC_WORD	20.163	n/a	WORM	12	5	[0, 0, 0]	n/a	FR1	1	R1384J
634.738	4.243	644430	REC_WORD	4.243	n/a	KNOB	1	5	[0, 0, 0]	n/a	FR1	1	R1384J
638.981	2.986	648675	REC_END	n/a	n/a	n/a	-999	5	[0, 0, 0]	n/a	FR1	1	R1384J
641.967	10.359	651661	COUNTDOWN_START	n/a	n/a	n/a	-999	6	[0, 0, 0]	n/a	FR1	1	R1384J
652.326	0.0	662021	COUNTDOWN_END	n/a	n/a	n/a	-999	6	[0, 0, 0]	n/a	FR1	1	R1384J
652.326	1.99	662021	ENCODING_START	n/a	n/a	n/a	-999	6	[0, 0, 0]	n/a	FR1	1	R1384J
654.316	1.617	664005	WORD	n/a	n/a	SHOE	1	6	[0, 0, 0]	n/a	FR1	1	R1384J
655.933	0.883	665621	WORD_OFF	n/a	n/a	SHOE	1	6	[0, 0, 0]	n/a	FR1	1	R1384J
656.816	1.6	666511	WORD	n/a	n/a	SKIN	2	6	[0, 0, 0]	n/a	FR1	1	R1384J
658.416	0.767	668106	WORD_OFF	n/a	n/a	SKIN	2	6	[0, 0, 0]	n/a	FR1	1	R1384J
659.183	1.617	668873	WORD	n/a	n/a	TEETH	3	6	[0, 0, 0]	n/a	FR1	1	R1384J
660.8	1.0	670489	WORD_OFF	n/a	n/a	TEETH	3	6	[0, 0, 0]	n/a	FR1	1	R1384J
661.8	1.616	671491	WORD	n/a	n/a	TRASH	4	6	[0, 0, 0]	n/a	FR1	1	R1384J
663.416	0.867	673107	WORD_OFF	n/a	n/a	TRASH	4	6	[0, 0, 0]	n/a	FR1	1	R1384J
664.283	1.617	673976	WORD	n/a	n/a	CLOTH	5	6	[0, 0, 0]	n/a	FR1	1	R1384J
665.9	0.933	675592	WORD_OFF	n/a	n/a	CLOTH	5	6	[0, 0, 0]	n/a	FR1	1	R1384J
666.833	1.6	676523	WORD	n/a	n/a	MINK	6	6	[0, 0, 0]	n/a	FR1	1	R1384J
668.433	0.867	678128	WORD_OFF	n/a	n/a	MINK	6	6	[0, 0, 0]	n/a	FR1	1	R1384J
669.3	1.6	678987	WORD	n/a	n/a	MULE	7	6	[0, 0, 0]	n/a	FR1	1	R1384J
670.9	0.849	680593	WORD_OFF	n/a	n/a	MULE	7	6	[0, 0, 0]	n/a	FR1	1	R1384J
671.749	1.601	681442	WORD	n/a	n/a	SNAKE	8	6	[0, 0, 0]	n/a	FR1	1	R1384J
673.35	0.816	683037	WORD_OFF	n/a	n/a	SNAKE	8	6	[0, 0, 0]	n/a	FR1	1	R1384J
674.166	1.617	683855	WORD	n/a	n/a	MOUTH	9	6	[0, 0, 0]	n/a	FR1	1	R1384J
675.783	0.967	685471	WORD_OFF	n/a	n/a	MOUTH	9	6	[0, 0, 0]	n/a	FR1	1	R1384J
676.75	1.6	686443	WORD	n/a	n/a	THORN	10	6	[0, 0, 0]	n/a	FR1	1	R1384J
678.35	0.9	688038	WORD_OFF	n/a	n/a	THORN	10	6	[0, 0, 0]	n/a	FR1	1	R1384J
679.25	1.6	688938	WORD	n/a	n/a	SOAP	11	6	[0, 0, 0]	n/a	FR1	1	R1384J
680.85	0.833	690544	WORD_OFF	n/a	n/a	SOAP	11	6	[0, 0, 0]	n/a	FR1	1	R1384J
681.683	1.617	691372	WORD	n/a	n/a	CHILD	12	6	[0, 0, 0]	n/a	FR1	1	R1384J
683.3	0.001	692988	WORD_OFF	n/a	n/a	CHILD	12	6	[0, 0, 0]	n/a	FR1	1	R1384J
683.301	0.0	692988	ENCODING_END	n/a	n/a	n/a	-999	6	[0, 0, 0]	n/a	FR1	1	R1384J
683.3	0.001	692990	PROB	0.001	n/a	n/a	-999	6	[4, 7, 4]	13	FR1	1	R1384J
683.301	0.0	692991	START	n/a	n/a	n/a	-999	6	[-999, -999, -999]	n/a	FR1	1	R1384J
683.301	7.266	692998	DISTRACT_START	n/a	n/a	n/a	-999	6	[0, 0, 0]	n/a	FR1	1	R1384J
690.567	12.233	700256	PROB	12.233	n/a	n/a	-999	6	[2, 5, 7]	13	FR1	1	R1384J
702.8	7.383	712489	PROB	7.383	n/a	n/a	-999	6	[5, 4, 2]	11	FR1	1	R1384J
710.183	0.0	719872	STOP	n/a	n/a	n/a	-999	6	[-999, -999, -999]	n/a	FR1	1	R1384J
710.183	1.099	719874	DISTRACT_END	n/a	n/a	n/a	-999	6	[0, 0, 0]	n/a	FR1	1	R1384J
711.282	1.04	720968	REC_START	n/a	n/a	n/a	-999	6	[0, 0, 0]	n/a	FR1	1	R1384J
712.322	0.761	722010	REC_WORD	0.761	n/a	MINK	6	6	[0, 0, 0]	n/a	FR1	1	R1384J
713.083	1.396	722771	REC_WORD	1.396	n/a	MULE	7	6	[0, 0, 0]	n/a	FR1	1	R1384J
714.479	7.177	724167	REC_WORD	7.177	n/a	SNAKE	8	6	[0, 0, 0]	n/a	FR1	1	R1384J
721.656	0.391	731344	REC_WORD_VV	0.391	n/a	<>	-999	6	[0, 0, 0]	n/a	FR1	1	R1384J
722.047	19.503	731735	REC_WORD	19.503	n/a	STOOL	-999	6	[0, 0, 0]	n/a	FR1	1	R1384J
741.55	2.366	751240	REC_END	n/a	n/a	n/a	-999	6	[0, 0, 0]	n/a	FR1	1	R1384J
743.916	10.36	753602	COUNTDOWN_START	n/a	n/a	n/a	-999	7	[0, 0, 0]	n/a	FR1	1	R1384J
754.276	0.0	763962	COUNTDOWN_END	n/a	n/a	n/a	-999	7	[0, 0, 0]	n/a	FR1	1	R1384J
754.276	2.29	763962	ENCODING_START	n/a	n/a	n/a	-999	7	[0, 0, 0]	n/a	FR1	1	R1384J
756.566	1.6	766253	WORD	n/a	n/a	MOUSE	1	7	[0, 0, 0]	n/a	FR1	1	R1384J
758.166	0.867	767858	WORD_OFF	n/a	n/a	MOUSE	1	7	[0, 0, 0]	n/a	FR1	1	R1384J
759.033	1.6	768717	WORD	n/a	n/a	LAWN	2	7	[0, 0, 0]	n/a	FR1	1	R1384J
760.633	0.767	770323	WORD_OFF	n/a	n/a	LAWN	2	7	[0, 0, 0]	n/a	FR1	1	R1384J
761.4	1.616	771090	WORD	n/a	n/a	WORLD	3	7	[0, 0, 0]	n/a	FR1	1	R1384J
763.016	0.934	772706	WORD_OFF	n/a	n/a	WORLD	3	7	[0, 0, 0]	n/a	FR1	1	R1384J
763.95	1.616	773636	WORD	n/a	n/a	HAT	4	7	[0, 0, 0]	n/a	FR1	1	R1384J
765.566	0.8	775252	WORD_OFF	n/a	n/a	HAT	4	7	[0, 0, 0]	n/a	FR1	1	R1384J
766.366	1.617	776050	WORD	n/a	n/a	TRAIL	5	7	[0, 0, 0]	n/a	FR1	1	R1384J
767.983	0.95	777666	WORD_OFF	n/a	n/a	TRAIL	5	7	[0, 0, 0]	n/a	FR1	1	R1384J
768.933	1.6	778617	WORD	n/a	n/a	BOARD	6	7	[0, 0, 0]	n/a	FR1	1	R1384J
770.533	0.816	780222	WORD_OFF	n/a	n/a	BOARD	6	7	[0, 0, 0]	n/a	FR1	1	R1384J
771.349	1.601	781040	WORD	n/a	n/a	CORD	7	7	[0, 0, 0]	n/a	FR1	1	R1384J
772.95	0.815	782636	WORD_OFF	n/a	n/a	CORD	7	7	[0, 0, 0]	n/a	FR1	1	R1384J
773.765	1.6	783454	WORD	n/a	n/a	GLOVE	8	7	[0, 0, 0]	n/a	FR1	1	R1384J
775.365	0.767	785049	WORD_OFF	n/a	n/a	GLOVE	8	7	[0, 0, 0]	n/a	FR1	1	R1384J
776.132	1.6	785816	WORD	n/a	n/a	EGG	9	7	[0, 0, 0]	n/a	FR1	1	R1384J
777.732	0.967	787422	WORD_OFF	n/a	n/a	EGG	9	7	[0, 0, 0]	n/a	FR1	1	R1384J
778.699	1.6	788383	WORD	n/a	n/a	BAY	10	7	[0, 0, 0]	n/a	FR1	1	R1384J
780.299	1.001	789989	WORD_OFF	n/a	n/a	BAY	10	7	[0, 0, 0]	n/a	FR1	1	R1384J
781.3	1.6	790991	WORD	n/a	n/a	WOOD	11	7	[0, 0, 0]	n/a	FR1	1	R1384J
782.9	0.766	792597	WORD_OFF	n/a	n/a	WOOD	11	7	[0, 0, 0]	n/a	FR1	1	R1384J
783.666	1.6	793354	WORD	n/a	n/a	TENT	12	7	[0, 0, 0]	n/a	FR1	1	R1384J
785.266	0.001	794949	WORD_OFF	n/a	n/a	TENT	12	7	[0, 0, 0]	n/a	FR1	1	R1384J
785.267	0.001	794953	PROB	0.001	n/a	n/a	-999	7	[6, 2, 8]	16	FR1	1	R1384J
785.268	0.0	794954	START	n/a	n/a	n/a	-999	7	[-999, -999, -999]	n/a	FR1	1	R1384J
785.268	0.0	794959	ENCODING_END	n/a	n/a	n/a	-999	7	[0, 0, 0]	n/a	FR1	1	R1384J
785.268	4.665	794959	DISTRACT_START	n/a	n/a	n/a	-999	7	[0, 0, 0]	n/a	FR1	1	R1384J
789.933	4.967	799618	PROB	4.967	n/a	n/a	-999	7	[2, 5, 6]	11	FR1	1	R1384J
794.9	4.767	804585	PROB	4.767	n/a	n/a	-999	7	[4, 2, 4]	10	FR1	1	R1384J
799.667	8.532	809352	PROB	8.532	n/a	n/a	-999	7	[8, 7, 4]	19	FR1	1	R1384J
808.199	0.0	817884	STOP	n/a	n/a	n/a	-999	7	[-999, -999, -999]	n/a	FR1	1	R1384J
808.199	1.334	817888	DISTRACT_END	n/a	n/a	n/a	-999	7	[0, 0, 0]	n/a	FR1	1	R1384J
809.533	2.167	819217	REC_START	n/a	n/a	n/a	-999	7	[0, 0, 0]	n/a	FR1	1	R1384J
811.7	0.97	821384	REC_WORD	0.97	n/a	MOUSE	1	7	[0, 0, 0]	n/a	FR1	1	R1384J
812.67	9.603	822354	REC_WORD	9.603	n/a	LAWN	2	7	[0, 0, 0]	n/a	FR1	1	R1384J
822.273	0.65	831957	REC_WORD_VV	0.65	n/a	<>	-999	7	[0, 0, 0]	n/a	FR1	1	R1384J
822.923	16.867	832607	REC_WORD	16.867	n/a	BAY	10	7	[0, 0, 0]	n/a	FR1	1	R1384J
839.79	2.309	849478	REC_END	n/a	n/a	n/a	-999	7	[0, 0, 0]	n/a	FR1	1	R1384J
842.099	10.365	851789	COUNTDOWN_START	n/a	n/a	n/a	-999	8	[0, 0, 0]	n/a	FR1	1	R1384J
852.464	0.001	862149	COUNTDOWN_END	n/a	n/a	n/a	-999	8	[0, 0, 0]	n/a	FR1	1	R1384J
852.465	1.968	862149	ENCODING_START	n/a	n/a	n/a	-999	8	[0, 0, 0]	n/a	FR1	1	R1384J
854.433	1.617	864113	WORD	n/a	n/a	BADGE	1	8	[0, 0, 0]	n/a	FR1	1	R1384J
856.05	0.932	865729	WORD_OFF	n/a	n/a	BADGE	1	8	[0, 0, 0]	n/a	FR1	1	R1384J
856.982	1.601	866669	WORD	n/a	n/a	MOSS	2	8	[0, 0, 0]	n/a	FR1	1	R1384J
858.583	0.917	868265	WORD_OFF	n/a	n/a	MOSS	2	8	[0, 0, 0]	n/a	FR1	1	R1384J
859.5	1.6	869185	WORD	n/a	n/a	BLOOM	3	8	[0, 0, 0]	n/a	FR1	1	R1384J
861.1	0.8	870781	WORD_OFF	n/a	n/a	BLOOM	3	8	[0, 0, 0]	n/a	FR1	1	R1384J
861.9	1.616	871578	WORD	n/a	n/a	STEEL	4	8	[0, 0, 0]	n/a	FR1	1	R1384J
863.516	0.834	873204	WORD_OFF	n/a	n/a	STEEL	4	8	[0, 0, 0]	n/a	FR1	1	R1384J
864.35	1.599	874033	WORD	n/a	n/a	SOIL	5	8	[0, 0, 0]	n/a	FR1	1	R1384J
865.949	0.901	875628	WORD_OFF	n/a	n/a	SOIL	5	8	[0, 0, 0]	n/a	FR1	1	R1384J
866.85	1.617	876528	WORD	n/a	n/a	ARK	6	8	[0, 0, 0]	n/a	FR1	1	R1384J
868.467	0.816	878154	WORD_OFF	n/a	n/a	ARK	6	8	[0, 0, 0]	n/a	FR1	1	R1384J
869.283	1.6	878962	WORD	n/a	n/a	SEAL	7	8	[0, 0, 0]	n/a	FR1	1	R1384J
870.883	0.832	880568	WORD_OFF	n/a	n/a	SEAL	7	8	[0, 0, 0]	n/a	FR1	1	R1384J
871.715	1.601	881396	WORD	n/a	n/a	WHEEL	8	8	[0, 0, 0]	n/a	FR1	1	R1384J
873.316	0.784	883002	WORD_OFF	n/a	n/a	WHEEL	8	8	[0, 0, 0]	n/a	FR1	1	R1384J
874.1	1.6	883779	WORD	n/a	n/a	BRICK	9	8	[0, 0, 0]	n/a	FR1	1	R1384J
875.7	0.916	885384	WORD_OFF	n/a	n/a	BRICK	9	8	[0, 0, 0]	n/a	FR1	1	R1384J
876.616	1.6	886295	WORD	n/a	n/a	YARD	10	8	[0, 0, 0]	n/a	FR1	1	R1384J
878.216	0.834	887900	WORD_OFF	n/a	n/a	YARD	10	8	[0, 0, 0]	n/a	FR1	1	R1384J
879.05	1.616	888729	WORD	n/a	n/a	PASTE	11	8	[0, 0, 0]	n/a	FR1	1	R1384J
880.666	0.967	890344	WORD_OFF	n/a	n/a	PASTE	11	8	[0, 0, 0]	n/a	FR1	1	R1384J
881.633	1.6	891316	WORD	n/a	n/a	JAR	12	8	[0, 0, 0]	n/a	FR1	1	R1384J
883.233	0.001	892911	WORD_OFF	n/a	n/a	JAR	12	8	[0, 0, 0]	n/a	FR1	1	R1384J
883.234	0.0	892916	START	n/a	n/a	n/a	-999	8	[-999, -999, -999]	n/a	FR1	1	R1384J
883.234	0.0	892916	PROB	0.0	n/a	n/a	-999	8	[2, 8, 8]	18	FR1	1	R1384J
883.234	0.0	892922	ENCODING_END	n/a	n/a	n/a	-999	8	[0, 0, 0]	n/a	FR1	1	R1384J
883.234	4.966	892922	DISTRACT_START	n/a	n/a	n/a	-999	8	[0, 0, 0]	n/a	FR1	1	R1384J
888.2	3.567	897881	PROB	3.567	n/a	n/a	-999	8	[3, 3, 8]	14	FR1	1	R1384J
891.767	4.182	901448	PROB	4.182	n/a	n/a	-999	8	[8, 2, 3]	13	FR1	1	R1384J
895.949	4.651	905630	PROB	4.651	n/a	n/a	-999	8	[5, 3, 2]	10	FR1	1	R1384J
900.6	4.999	910281	PROB	4.999	n/a	n/a	-999	8	[1, 6, 6]	13	FR1	1	R1384J
905.599	0.0	915277	DISTRACT_END	n/a	n/a	n/a	-999	8	[0, 0, 0]	n/a	FR1	1	R1384J
905.599	1.384	915280	STOP	n/a	n/a	n/a	-999	8	[-999, -999, -999]	n/a	FR1	1	R1384J
906.983	1.93	916668	REC_START	n/a	n/a	n/a	-999	8	[0, 0, 0]	n/a	FR1	1	R1384J
908.913	1.025	918594	REC_WORD	1.025	n/a	SEAL	7	8	[0, 0, 0]	n/a	FR1	1	R1384J
909.938	2.541	919618	REC_WORD	2.541	n/a	WHEEL	8	8	[0, 0, 0]	n/a	FR1	1	R1384J
912.479	24.781	922159	REC_WORD	24.781	n/a	BRICK	9	8	[0, 0, 0]	n/a	FR1	1	R1384J
937.26	2.539	946940	REC_END	n/a	n/a	n/a	-999	8	[0, 0, 0]	n/a	FR1	1	R1384J
939.799	10.359	949476	COUNTDOWN_START	n/a	n/a	n/a	-999	9	[0, 0, 0]	n/a	FR1	1	R1384J
950.158	0.0	959836	COUNTDOWN_END	n/a	n/a	n/a	-999	9	[0, 0, 0]	n/a	FR1	1	R1384J
950.158	2.224	959836	ENCODING_START	n/a	n/a	n/a	-999	9	[0, 0, 0]	n/a	FR1	1	R1384J
952.382	1.617	962065	WORD	n/a	n/a	POND	1	9	[0, 0, 0]	n/a	FR1	1	R1384J
953.999	0.916	963681	WORD_OFF	n/a	n/a	POND	1	9	[0, 0, 0]	n/a	FR1	1	R1384J
954.915	1.617	964591	WORD	n/a	n/a	FUR	2	9	[0, 0, 0]	n/a	FR1	1	R1384J
956.532	0.983	966207	WORD_OFF	n/a	n/a	FUR	2	9	[0, 0, 0]	n/a	FR1	1	R1384J
957.515	1.601	967199	WORD	n/a	n/a	JET	3	9	[0, 0, 0]	n/a	FR1	1	R1384J
959.116	0.983	968794	WORD_OFF	n/a	n/a	JET	3	9	[0, 0, 0]	n/a	FR1	1	R1384J
960.099	1.601	969776	WORD	n/a	n/a	CREAM	4	9	[0, 0, 0]	n/a	FR1	1	R1384J
961.7	0.883	971382	WORD_OFF	n/a	n/a	CREAM	4	9	[0, 0, 0]	n/a	FR1	1	R1384J
962.583	1.6	972261	WORD	n/a	n/a	DITCH	5	9	[0, 0, 0]	n/a	FR1	1	R1384J
964.183	0.999	973867	WORD_OFF	n/a	n/a	DITCH	5	9	[0, 0, 0]	n/a	FR1	1	R1384J
965.182	1.602	974859	WORD	n/a	n/a	CHAIN	6	9	[0, 0, 0]	n/a	FR1	1	R1384J
966.784	0.781	976464	WORD_OFF	n/a	n/a	CHAIN	6	9	[0, 0, 0]	n/a	FR1	1	R1384J
967.565	1.601	977242	WORD	n/a	n/a	SAUCE	7	9	[0, 0, 0]	n/a	FR1	1	R1384J
969.166	0.766	978847	WORD_OFF	n/a	n/a	SAUCE	7	9	[0, 0, 0]	n/a	FR1	1	R1384J
969.932	1.601	979614	WORD	n/a	n/a	COKE	8	9	[0, 0, 0]	n/a	FR1	1	R1384J
971.533	0.95	981210	WORD_OFF	n/a	n/a	COKE	8	9	[0, 0, 0]	n/a	FR1	1	R1384J
972.483	1.6	982161	WORD	n/a	n/a	TREE	9	9	[0, 0, 0]	n/a	FR1	1	R1384J
974.083	0.817	983766	WORD_OFF	n/a	n/a	TREE	9	9	[0, 0, 0]	n/a	FR1	1	R1384J
974.9	1.6	984574	WORD	n/a	n/a	STEM	10	9	[0, 0, 0]	n/a	FR1	1	R1384J
976.5	0.883	986180	WORD_OFF	n/a	n/a	STEM	10	9	[0, 0, 0]	n/a	FR1	1	R1384J
977.383	1.6	987059	WORD	n/a	n/a	JAW	11	9	[0, 0, 0]	n/a	FR1	1	R1384J
978.983	0.783	988665	WORD_OFF	n/a	n/a	JAW	11	9	[0, 0, 0]	n/a	FR1	1	R1384J
979.766	1.601	989442	WORD	n/a	n/a	VASE	12	9	[0, 0, 0]	n/a	FR1	1	R1384J
981.367	0.001	991045	PROB	0.001	n/a	n/a	-999	9	[3, 4, 3]	10	FR1	1	R1384J
981.368	0.0	991046	START	n/a	n/a	n/a	-999	9	[-999, -999, -999]	n/a	FR1	1	R1384J
981.366	0.002	991048	WORD_OFF	n/a	n/a	VASE	12	9	[0, 0, 0]	n/a	FR1	1	R1384J
981.368	0.0	991048	ENCODING_END	n/a	n/a	n/a	-999	9	[0, 0, 0]	n/a	FR1	1	R1384J
981.368	4.582	991048	DISTRACT_START	n/a	n/a	n/a	-999	9	[0, 0, 0]	n/a	FR1	1	R1384J
985.95	3.384	995627	PROB	3.384	n/a	n/a	-999	9	[1, 7, 1]	9	FR1	1	R1384J
989.334	3.916	999011	PROB	3.916	n/a	n/a	-999	9	[7, 1, 8]	16	FR1	1	R1384J
993.25	3.282	1002927	PROB	3.282	n/a	n/a	-999	9	[8, 1, 8]	17	FR1	1	R1384J
996.532	6.984	1006209	PROB	6.984	n/a	n/a	-999	9	[1, 4, 3]	8	FR1	1	R1384J
1003.516	0.0	1013189	DISTRACT_END	n/a	n/a	n/a	-999	9	[0, 0, 0]	n/a	FR1	1	R1384J
1003.516	1.083	1013193	STOP	n/a	n/a	n/a	-999	9	[-999, -999, -999]	n/a	FR1	1	R1384J
1004.599	1.28	1014273	REC_START	n/a	n/a	n/a	-999	9	[0, 0, 0]	n/a	FR1	1	R1384J
1005.879	0.829	1015556	REC_WORD	0.829	n/a	COKE	8	9	[0, 0, 0]	n/a	FR1	1	R1384J
1006.708	1.0	1016385	REC_WORD	1.0	n/a	VASE	12	9	[0, 0, 0]	n/a	FR1	1	R1384J
1007.708	4.172	1017385	REC_WORD_VV	4.172	n/a	<>	-999	9	[0, 0, 0]	n/a	FR1	1	R1384J
1011.88	11.012	1021556	REC_WORD	11.012	n/a	JAW	11	9	[0, 0, 0]	n/a	FR1	1	R1384J
1022.892	3.617	1032568	REC_WORD	3.617	n/a	FUR	2	9	[0, 0, 0]	n/a	FR1	1	R1384J
1026.509	8.365	1036185	REC_WORD	8.365	n/a	POND	1	9	[0, 0, 0]	n/a	FR1	1	R1384J
1034.874	2.442	1044554	REC_END	n/a	n/a	n/a	-999	9	[0, 0, 0]	n/a	FR1	1	R1384J
1037.316	10.36	1046999	COUNTDOWN_START	n/a	n/a	n/a	-999	10	[0, 0, 0]	n/a	FR1	1	R1384J
1047.676	0.0	1057348	COUNTDOWN_END	n/a	n/a	n/a	-999	10	[0, 0, 0]	n/a	FR1	1	R1384J
1047.676	1.807	1057348	ENCODING_START	n/a	n/a	n/a	-999	10	[0, 0, 0]	n/a	FR1	1	R1384J
1049.483	1.6	1059158	WORD	n/a	n/a	FRUIT	1	10	[0, 0, 0]	n/a	FR1	1	R1384J
1051.083	0.866	1060754	WORD_OFF	n/a	n/a	FRUIT	1	10	[0, 0, 0]	n/a	FR1	1	R1384J
1051.949	1.601	1061623	WORD	n/a	n/a	CAMP	2	10	[0, 0, 0]	n/a	FR1	1	R1384J
1053.55	0.95	1063228	WORD_OFF	n/a	n/a	CAMP	2	10	[0, 0, 0]	n/a	FR1	1	R1384J
1054.5	1.6	1064169	WORD	n/a	n/a	WHEAT	3	10	[0, 0, 0]	n/a	FR1	1	R1384J
1056.1	0.866	1065775	WORD_OFF	n/a	n/a	WHEAT	3	10	[0, 0, 0]	n/a	FR1	1	R1384J
1056.966	1.6	1066644	WORD	n/a	n/a	WIG	4	10	[0, 0, 0]	n/a	FR1	1	R1384J
1058.566	0.868	1068240	WORD_OFF	n/a	n/a	WIG	4	10	[0, 0, 0]	n/a	FR1	1	R1384J
1059.434	1.599	1069109	WORD	n/a	n/a	SWAMP	5	10	[0, 0, 0]	n/a	FR1	1	R1384J
1061.033	0.95	1070704	WORD_OFF	n/a	n/a	SWAMP	5	10	[0, 0, 0]	n/a	FR1	1	R1384J
1061.983	1.616	1071655	WORD	n/a	n/a	LIMB	6	10	[0, 0, 0]	n/a	FR1	1	R1384J
1063.599	0.783	1073271	WORD_OFF	n/a	n/a	LIMB	6	10	[0, 0, 0]	n/a	FR1	1	R1384J
1064.382	1.6	1074059	WORD	n/a	n/a	SWORD	7	10	[0, 0, 0]	n/a	FR1	1	R1384J
1065.982	0.901	1075654	WORD_OFF	n/a	n/a	SWORD	7	10	[0, 0, 0]	n/a	FR1	1	R1384J
1066.883	1.6	1076554	WORD	n/a	n/a	BLUSH	8	10	[0, 0, 0]	n/a	FR1	1	R1384J
1068.483	0.883	1078160	WORD_OFF	n/a	n/a	BLUSH	8	10	[0, 0, 0]	n/a	FR1	1	R1384J
1069.366	1.6	1079039	WORD	n/a	n/a	GLOBE	9	10	[0, 0, 0]	n/a	FR1	1	R1384J
1070.966	0.917	1080645	WORD_OFF	n/a	n/a	GLOBE	9	10	[0, 0, 0]	n/a	FR1	1	R1384J
1071.883	1.6	1081555	WORD	n/a	n/a	MAT	10	10	[0, 0, 0]	n/a	FR1	1	R1384J
1073.483	0.967	1083160	WORD_OFF	n/a	n/a	MAT	10	10	[0, 0, 0]	n/a	FR1	1	R1384J
1074.45	1.6	1084122	WORD	n/a	n/a	PLANT	11	10	[0, 0, 0]	n/a	FR1	1	R1384J
1076.05	0.949	1085727	WORD_OFF	n/a	n/a	PLANT	11	10	[0, 0, 0]	n/a	FR1	1	R1384J
1076.999	1.601	1086668	WORD	n/a	n/a	NURSE	12	10	[0, 0, 0]	n/a	FR1	1	R1384J
1078.6	0.001	1088274	WORD_OFF	n/a	n/a	NURSE	12	10	[0, 0, 0]	n/a	FR1	1	R1384J
1078.601	0.0	1088274	ENCODING_END	n/a	n/a	n/a	-999	10	[0, 0, 0]	n/a	FR1	1	R1384J
1078.601	0.0	1088274	DISTRACT_START	n/a	n/a	n/a	-999	10	[0, 0, 0]	n/a	FR1	1	R1384J
1078.601	0.0	1088275	START	n/a	n/a	n/a	-999	10	[-999, -999, -999]	n/a	FR1	1	R1384J
1078.601	5.249	1088275	PROB	5.249	n/a	n/a	-999	10	[4, 4, 5]	13	FR1	1	R1384J
1083.85	5.934	1093523	PROB	5.934	n/a	n/a	-999	10	[7, 8, 4]	20	FR1	1	R1384J
1089.784	5.466	1099457	PROB	5.466	n/a	n/a	-999	10	[7, 1, 2]	10	FR1	1	R1384J
1095.25	5.383	1104923	PROB	5.383	n/a	n/a	-999	10	[1, 7, 2]	10	FR1	1	R1384J
1100.633	0.0	1110302	DISTRACT_END	n/a	n/a	n/a	-999	10	[0, 0, 0]	n/a	FR1	1	R1384J
1100.633	1.066	1110306	STOP	n/a	n/a	n/a	-999	10	[-999, -999, -999]	n/a	FR1	1	R1384J
1101.699	2.088	1111376	REC_START	n/a	n/a	n/a	-999	10	[0, 0, 0]	n/a	FR1	1	R1384J
1103.787	4.309	1113460	REC_WORD	4.309	n/a	PLANT	11	10	[0, 0, 0]	n/a	FR1	1	R1384J
1108.096	0.55	1117768	REC_WORD_VV	0.55	n/a	<>	-999	10	[0, 0, 0]	n/a	FR1	1	R1384J
1108.646	9.242	1118318	REC_WORD	9.242	n/a	NURSE	12	10	[0, 0, 0]	n/a	FR1	1	R1384J
1117.888	0.7	1127560	REC_WORD_VV	0.7	n/a	<>	-999	10	[0, 0, 0]	n/a	FR1	1	R1384J
1118.588	13.385	1128260	REC_WORD	13.385	n/a	BLUSH	8	10	[0, 0, 0]	n/a	FR1	1	R1384J
1131.973	2.327	1141648	REC_END	n/a	n/a	n/a	-999	10	[0, 0, 0]	n/a	FR1	1	R1384J
1134.3	10.359	1143969	COUNTDOWN_START	n/a	n/a	n/a	-999	11	[0, 0, 0]	n/a	FR1	1	R1384J
1144.659	0.0	1154329	COUNTDOWN_END	n/a	n/a	n/a	-999	11	[0, 0, 0]	n/a	FR1	1	R1384J
1144.659	1.874	1154329	ENCODING_START	n/a	n/a	n/a	-999	11	[0, 0, 0]	n/a	FR1	1	R1384J
1146.533	1.6	1156200	WORD	n/a	n/a	TIE	1	11	[0, 0, 0]	n/a	FR1	1	R1384J
1148.133	1.0	1157806	WORD_OFF	n/a	n/a	TIE	1	11	[0, 0, 0]	n/a	FR1	1	R1384J
1149.133	1.6	1158808	WORD	n/a	n/a	STORM	2	11	[0, 0, 0]	n/a	FR1	1	R1384J
1150.733	1.0	1160404	WORD_OFF	n/a	n/a	STORM	2	11	[0, 0, 0]	n/a	FR1	1	R1384J
1151.733	1.6	1161406	WORD	n/a	n/a	ROAD	3	11	[0, 0, 0]	n/a	FR1	1	R1384J
1153.333	0.983	1163001	WORD_OFF	n/a	n/a	ROAD	3	11	[0, 0, 0]	n/a	FR1	1	R1384J
1154.316	1.6	1163983	WORD	n/a	n/a	BEEF	4	11	[0, 0, 0]	n/a	FR1	1	R1384J
1155.916	0.967	1165588	WORD_OFF	n/a	n/a	BEEF	4	11	[0, 0, 0]	n/a	FR1	1	R1384J
1156.883	1.6	1166550	WORD	n/a	n/a	KEY	5	11	[0, 0, 0]	n/a	FR1	1	R1384J
1158.483	0.767	1168155	WORD_OFF	n/a	n/a	KEY	5	11	[0, 0, 0]	n/a	FR1	1	R1384J
1159.25	1.6	1168922	WORD	n/a	n/a	BEAN	6	11	[0, 0, 0]	n/a	FR1	1	R1384J
1160.85	0.999	1170518	WORD_OFF	n/a	n/a	BEAN	6	11	[0, 0, 0]	n/a	FR1	1	R1384J
1161.849	1.617	1171520	WORD	n/a	n/a	WEB	7	11	[0, 0, 0]	n/a	FR1	1	R1384J
1163.466	0.9	1173136	WORD_OFF	n/a	n/a	WEB	7	11	[0, 0, 0]	n/a	FR1	1	R1384J
1164.366	1.6	1174036	WORD	n/a	n/a	GOWN	8	11	[0, 0, 0]	n/a	FR1	1	R1384J
1165.966	0.8	1175641	WORD_OFF	n/a	n/a	GOWN	8	11	[0, 0, 0]	n/a	FR1	1	R1384J
1166.766	1.617	1176439	WORD	n/a	n/a	SEAT	9	11	[0, 0, 0]	n/a	FR1	1	R1384J
1168.383	0.817	1178055	WORD_OFF	n/a	n/a	SEAT	9	11	[0, 0, 0]	n/a	FR1	1	R1384J
1169.2	1.6	1178873	WORD	n/a	n/a	SPICE	10	11	[0, 0, 0]	n/a	FR1	1	R1384J
1170.8	0.95	1180468	WORD_OFF	n/a	n/a	SPICE	10	11	[0, 0, 0]	n/a	FR1	1	R1384J
1171.75	1.6	1181420	WORD	n/a	n/a	SNAIL	11	11	[0, 0, 0]	n/a	FR1	1	R1384J
1173.35	0.949	1183015	WORD_OFF	n/a	n/a	SNAIL	11	11	[0, 0, 0]	n/a	FR1	1	R1384J
1174.299	1.601	1183966	WORD	n/a	n/a	BATH	12	11	[0, 0, 0]	n/a	FR1	1	R1384J
1175.9	0.001	1185570	PROB	0.001	n/a	n/a	-999	11	[7, 1, 6]	14	FR1	1	R1384J
1175.901	0.0	1185571	START	n/a	n/a	n/a	-999	11	[-999, -999, -999]	n/a	FR1	1	R1384J
1175.9	0.001	1185572	WORD_OFF	n/a	n/a	BATH	12	11	[0, 0, 0]	n/a	FR1	1	R1384J
1175.901	0.0	1185572	ENCODING_END	n/a	n/a	n/a	-999	11	[0, 0, 0]	n/a	FR1	1	R1384J
1175.901	5.999	1185572	DISTRACT_START	n/a	n/a	n/a	-999	11	[0, 0, 0]	n/a	FR1	1	R1384J
1181.9	5.183	1191569	PROB	5.183	n/a	n/a	-999	11	[4, 7, 3]	14	FR1	1	R1384J
1187.083	5.617	1196752	PROB	5.617	n/a	n/a	-999	11	[3, 5, 7]	14	FR1	1	R1384J
1192.7	7.449	1202369	PROB	7.449	n/a	n/a	-999	11	[5, 1, 1]	7	FR1	1	R1384J
1200.149	0.0	1209818	STOP	n/a	n/a	n/a	-999	11	[-999, -999, -999]	n/a	FR1	1	R1384J
1200.149	1.3	1209819	DISTRACT_END	n/a	n/a	n/a	-999	11	[0, 0, 0]	n/a	FR1	1	R1384J
1201.449	3.727	1211118	REC_START	n/a	n/a	n/a	-999	11	[0, 0, 0]	n/a	FR1	1	R1384J
1205.176	26.547	1214845	REC_WORD	26.547	n/a	WEB	7	11	[0, 0, 0]	n/a	FR1	1	R1384J
1231.723	2.277	1241390	REC_END	n/a	n/a	n/a	-999	11	[0, 0, 0]	n/a	FR1	1	R1384J
1234.0	10.359	1243670	COUNTDOWN_START	n/a	n/a	n/a	-999	12	[0, 0, 0]	n/a	FR1	1	R1384J
1244.359	0.0	1254030	COUNTDOWN_END	n/a	n/a	n/a	-999	12	[0, 0, 0]	n/a	FR1	1	R1384J
1244.359	1.973	1254030	ENCODING_START	n/a	n/a	n/a	-999	12	[0, 0, 0]	n/a	FR1	1	R1384J
1246.332	1.6	1256004	WORD	n/a	n/a	CHALK	1	12	[0, 0, 0]	n/a	FR1	1	R1384J
1247.932	0.767	1257599	WORD_OFF	n/a	n/a	CHALK	1	12	[0, 0, 0]	n/a	FR1	1	R1384J
1248.699	1.617	1258366	WORD	n/a	n/a	COAL	2	12	[0, 0, 0]	n/a	FR1	1	R1384J
1250.316	0.816	1259982	WORD_OFF	n/a	n/a	COAL	2	12	[0, 0, 0]	n/a	FR1	1	R1384J
1251.132	1.6	1260800	WORD	n/a	n/a	OWL	3	12	[0, 0, 0]	n/a	FR1	1	R1384J
1252.732	0.85	1262395	WORD_OFF	n/a	n/a	OWL	3	12	[0, 0, 0]	n/a	FR1	1	R1384J
1253.582	1.6	1263244	WORD	n/a	n/a	TAIL	4	12	[0, 0, 0]	n/a	FR1	1	R1384J
1255.182	0.817	1264850	WORD_OFF	n/a	n/a	TAIL	4	12	[0, 0, 0]	n/a	FR1	1	R1384J
1255.999	1.6	1265668	WORD	n/a	n/a	CHEEK	5	12	[0, 0, 0]	n/a	FR1	1	R1384J
1257.599	0.966	1267263	WORD_OFF	n/a	n/a	CHEEK	5	12	[0, 0, 0]	n/a	FR1	1	R1384J
1258.565	1.6	1268235	WORD	n/a	n/a	FLEA	6	12	[0, 0, 0]	n/a	FR1	1	R1384J
1260.165	0.767	1269830	WORD_OFF	n/a	n/a	FLEA	6	12	[0, 0, 0]	n/a	FR1	1	R1384J
1260.932	1.6	1270597	WORD	n/a	n/a	SQUARE	7	12	[0, 0, 0]	n/a	FR1	1	R1384J
1262.532	0.817	1272203	WORD_OFF	n/a	n/a	SQUARE	7	12	[0, 0, 0]	n/a	FR1	1	R1384J
1263.349	1.6	1273011	WORD	n/a	n/a	SINK	8	12	[0, 0, 0]	n/a	FR1	1	R1384J
1264.949	0.8	1274616	WORD_OFF	n/a	n/a	SINK	8	12	[0, 0, 0]	n/a	FR1	1	R1384J
1265.749	1.6	1275414	WORD	n/a	n/a	CLIFF	9	12	[0, 0, 0]	n/a	FR1	1	R1384J
1267.349	0.883	1277020	WORD_OFF	n/a	n/a	CLIFF	9	12	[0, 0, 0]	n/a	FR1	1	R1384J
1268.232	1.601	1277899	WORD	n/a	n/a	ROPE	10	12	[0, 0, 0]	n/a	FR1	1	R1384J
1269.833	0.866	1279495	WORD_OFF	n/a	n/a	ROPE	10	12	[0, 0, 0]	n/a	FR1	1	R1384J
1270.699	1.601	1280364	WORD	n/a	n/a	MEN	11	12	[0, 0, 0]	n/a	FR1	1	R1384J
1272.3	0.916	1281969	WORD_OFF	n/a	n/a	MEN	11	12	[0, 0, 0]	n/a	FR1	1	R1384J
1273.216	1.617	1282880	WORD	n/a	n/a	DIME	12	12	[0, 0, 0]	n/a	FR1	1	R1384J
1274.833	0.001	1284495	WORD_OFF	n/a	n/a	DIME	12	12	[0, 0, 0]	n/a	FR1	1	R1384J
1274.834	0.0	1284495	ENCODING_END	n/a	n/a	n/a	-999	12	[0, 0, 0]	n/a	FR1	1	R1384J
1274.833	0.001	1284499	PROB	0.001	n/a	n/a	-999	12	[1, 3, 7]	11	FR1	1	R1384J
1274.834	0.0	1284500	START	n/a	n/a	n/a	-999	12	[-999, -999, -999]	n/a	FR1	1	R1384J
1274.834	5.948	1284506	DISTRACT_START	n/a	n/a	n/a	-999	12	[0, 0, 0]	n/a	FR1	1	R1384J
1280.782	3.284	1290448	PROB	3.284	n/a	n/a	-999	12	[4, 4, 8]	16	FR1	1	R1384J
1284.066	5.15	1293731	PROB	5.15	n/a	n/a	-999	12	[4, 5, 2]	11	FR1	1	R1384J
1289.216	4.684	1298881	PROB	4.684	n/a	n/a	-999	12	[3, 8, 8]	19	FR1	1	R1384J
1293.9	7.649	1303565	PROB	7.649	n/a	n/a	-999	12	[1, 7, 4]	12	FR1	1	R1384J
1301.549	0.0	1311214	STOP	n/a	n/a	n/a	-999	12	[-999, -999, -999]	n/a	FR1	1	R1384J
1301.549	1.384	1311218	DISTRACT_END	n/a	n/a	n/a	-999	12	[0, 0, 0]	n/a	FR1	1	R1384J
1302.933	1.628	1312599	REC_START	n/a	n/a	n/a	-999	12	[0, 0, 0]	n/a	FR1	1	R1384J
1304.561	1.005	1314226	REC_WORD	1.005	n/a	MEN	11	12	[0, 0, 0]	n/a	FR1	1	R1384J
1305.566	2.5	1315231	REC_WORD	2.5	n/a	DIME	12	12	[0, 0, 0]	n/a	FR1	1	R1384J
1308.066	25.125	1317730	REC_WORD	25.125	n/a	CHALK	1	12	[0, 0, 0]	n/a	FR1	1	R1384J
1333.191	0.0	1342850	REC_END	n/a	n/a	n/a	-999	12	[0, 0, 0]	n/a	FR1	1	R1384J
