onset	duration	sample	trial_type	response_time	stim_file	item_name	serialpos	list	test	answer	experiment	session	subject
0.0	0.0	8503	INSTRUCT_START	n/a	n/a	n/a	-999	-999	[0, 0, 0]	n/a	FR1	1	R1172E
0.0	10.982	8503	INSTRUCT_END	n/a	n/a	n/a	-999	-999	[0, 0, 0]	n/a	FR1	1	R1172E
10.982	0.0	19485	SESS_START	n/a	n/a	n/a	-999	-999	[0, 0, 0]	n/a	FR1	1	R1172E
10.982	112.217	19485	MIC_TEST	n/a	n/a	n/a	-999	-999	[0, 0, 0]	n/a	FR1	1	R1172E
123.199	16.791	131697	PRACTICE_TRIAL	n/a	n/a	n/a	-999	-1	[0, 0, 0]	n/a	FR1	1	R1172E
139.99	10.428	148487	COUNTDOWN_START	n/a	n/a	n/a	-999	-1	[0, 0, 0]	n/a	FR1	1	R1172E
150.418	0.007	158915	COUNTDOWN_END	n/a	n/a	n/a	-999	-1	[0, 0, 0]	n/a	FR1	1	R1172E
150.425	1.601	158922	PRACTICE_ORIENT	n/a	n/a	n/a	-999	-1	[0, 0, 0]	n/a	FR1	1	R1172E
152.026	2.001	160523	PRACTICE_ORIENT_OFF	n/a	n/a	n/a	-999	-1	[0, 0, 0]	n/a	FR1	1	R1172E
154.027	1.617	162524	PRACTICE_WORD	n/a	n/a	IRON	1	-1	[0, 0, 0]	n/a	FR1	1	R1172E
155.644	0.949	164141	PRACTICE_WORD_OFF	n/a	n/a	IRON	-999	-1	[0, 0, 0]	n/a	FR1	1	R1172E
156.593	1.618	165090	PRACTICE_WORD	n/a	n/a	FLOOD	2	-1	[0, 0, 0]	n/a	FR1	1	R1172E
158.211	0.8	166708	PRACTICE_WORD_OFF	n/a	n/a	FLOOD	-999	-1	[0, 0, 0]	n/a	FR1	1	R1172E
159.011	1.617	167508	PRACTICE_WORD	n/a	n/a	RHINO	3	-1	[0, 0, 0]	n/a	FR1	1	R1172E
160.628	0.849	169124	PRACTICE_WORD_OFF	n/a	n/a	RHINO	-999	-1	[0, 0, 0]	n/a	FR1	1	R1172E
161.477	1.618	169973	PRACTICE_WORD	n/a	n/a	ATTIC	4	-1	[0, 0, 0]	n/a	FR1	1	R1172E
163.095	0.95	171591	PRACTICE_WORD_OFF	n/a	n/a	ATTIC	-999	-1	[0, 0, 0]	n/a	FR1	1	R1172E
164.045	1.617	172541	PRACTICE_WORD	n/a	n/a	BEAM	5	-1	[0, 0, 0]	n/a	FR1	1	R1172E
165.662	0.783	174158	PRACTICE_WORD_OFF	n/a	n/a	BEAM	-999	-1	[0, 0, 0]	n/a	FR1	1	R1172E
166.445	1.618	174941	PRACTICE_WORD	n/a	n/a	CHEST	6	-1	[0, 0, 0]	n/a	FR1	1	R1172E
168.063	0.9	176559	PRACTICE_WORD_OFF	n/a	n/a	CHEST	-999	-1	[0, 0, 0]	n/a	FR1	1	R1172E
168.963	1.616	177459	PRACTICE_WORD	n/a	n/a	COTTON	7	-1	[0, 0, 0]	n/a	FR1	1	R1172E
170.579	0.867	179075	PRACTICE_WORD_OFF	n/a	n/a	COTTON	-999	-1	[0, 0, 0]	n/a	FR1	1	R1172E
171.446	1.618	179942	PRACTICE_WORD	n/a	n/a	WATCH	8	-1	[0, 0, 0]	n/a	FR1	1	R1172E
173.064	0.8	181560	PRACTICE_WORD_OFF	n/a	n/a	WATCH	-999	-1	[0, 0, 0]	n/a	FR1	1	R1172E
173.864	1.616	182360	PRACTICE_WORD	n/a	n/a	TONGUE	9	-1	[0, 0, 0]	n/a	FR1	1	R1172E
175.48	0.767	183976	PRACTICE_WORD_OFF	n/a	n/a	TONGUE	-999	-1	[0, 0, 0]	n/a	FR1	1	R1172E
176.247	1.617	184743	PRACTICE_WORD	n/a	n/a	WAGON	10	-1	[0, 0, 0]	n/a	FR1	1	R1172E
177.864	0.917	186360	PRACTICE_WORD_OFF	n/a	n/a	WAGON	-999	-1	[0, 0, 0]	n/a	FR1	1	R1172E
178.781	1.616	187277	PRACTICE_WORD	n/a	n/a	CAMEL	11	-1	[0, 0, 0]	n/a	FR1	1	R1172E
180.397	0.768	188893	PRACTICE_WORD_OFF	n/a	n/a	CAMEL	-999	-1	[0, 0, 0]	n/a	FR1	1	R1172E
181.165	1.617	189661	PRACTICE_WORD	n/a	n/a	RING	12	-1	[0, 0, 0]	n/a	FR1	1	R1172E
182.782	0.0	191278	PRACTICE_WORD_OFF	n/a	n/a	RING	-999	-1	[0, 0, 0]	n/a	FR1	1	R1172E
182.782	0.001	191278	DISTRACT_START	n/a	n/a	n/a	-999	-1	[0, 0, 0]	n/a	FR1	1	R1172E
182.783	0.016	191279	START	n/a	n/a	n/a	-999	-1	[-999, -999, -999]	n/a	FR1	1	R1172E
182.799	6.566	191295	PROB	6.566	n/a	n/a	-999	-1	[7, 6, 2]	15	FR1	1	R1172E
189.365	6.703	197860	PROB	6.703	n/a	n/a	-999	-1	[8, 5, 4]	17	FR1	1	R1172E
196.068	7.637	204563	PROB	7.637	n/a	n/a	-999	-1	[4, 7, 9]	20	FR1	1	R1172E
203.705	0.014	212200	STOP	n/a	n/a	n/a	-999	-1	[-999, -999, -999]	n/a	FR1	1	R1172E
203.719	0.666	212214	DISTRACT_END	n/a	n/a	n/a	-999	-1	[0, 0, 0]	n/a	FR1	1	R1172E
204.385	0.518	212880	RETRIEVAL_ORIENT	n/a	n/a	n/a	-999	-1	[0, 0, 0]	n/a	FR1	1	R1172E
204.903	30.009	213398	PRACTICE_REC_START	n/a	n/a	n/a	-999	-1	[0, 0, 0]	n/a	FR1	1	R1172E
234.912	23.2	243405	PRACTICE_REC_END	n/a	n/a	n/a	-999	-1	[0, 0, 0]	n/a	FR1	1	R1172E
258.112	0.5	266605	TRIAL	n/a	n/a	n/a	-999	1	[0, 0, 0]	n/a	FR1	1	R1172E
258.612	10.428	267104	COUNTDOWN_START	n/a	n/a	n/a	-999	1	[0, 0, 0]	n/a	FR1	1	R1172E
269.04	0.007	277532	COUNTDOWN_END	n/a	n/a	n/a	-999	1	[0, 0, 0]	n/a	FR1	1	R1172E
269.047	1.617	277539	ORIENT	n/a	n/a	n/a	-999	1	[0, 0, 0]	n/a	FR1	1	R1172E
270.664	2.05	279156	ORIENT_OFF	n/a	n/a	n/a	-999	1	[0, 0, 0]	n/a	FR1	1	R1172E
272.714	1.616	281206	WORD	n/a	wordpools/wordpool_EN.txt	CUBE	1	1	[0, 0, 0]	n/a	FR1	1	R1172E
274.33	0.818	282822	WORD_OFF	n/a	n/a	CUBE	1	1	[0, 0, 0]	n/a	FR1	1	R1172E
275.148	1.617	283640	WORD	n/a	wordpools/wordpool_EN.txt	SQUARE	2	1	[0, 0, 0]	n/a	FR1	1	R1172E
276.765	0.867	285257	WORD_OFF	n/a	n/a	SQUARE	2	1	[0, 0, 0]	n/a	FR1	1	R1172E
277.632	1.617	286124	WORD	n/a	wordpools/wordpool_EN.txt	NAIL	3	1	[0, 0, 0]	n/a	FR1	1	R1172E
279.249	0.85	287741	WORD_OFF	n/a	n/a	NAIL	3	1	[0, 0, 0]	n/a	FR1	1	R1172E
280.099	1.617	288591	WORD	n/a	wordpools/wordpool_EN.txt	PIPE	4	1	[0, 0, 0]	n/a	FR1	1	R1172E
281.716	0.917	290208	WORD_OFF	n/a	n/a	PIPE	4	1	[0, 0, 0]	n/a	FR1	1	R1172E
282.633	1.617	291125	WORD	n/a	wordpools/wordpool_EN.txt	CLAY	5	1	[0, 0, 0]	n/a	FR1	1	R1172E
284.25	0.8	292741	WORD_OFF	n/a	n/a	CLAY	5	1	[0, 0, 0]	n/a	FR1	1	R1172E
285.05	1.617	293541	WORD	n/a	wordpools/wordpool_EN.txt	PIT	6	1	[0, 0, 0]	n/a	FR1	1	R1172E
286.667	0.849	295158	WORD_OFF	n/a	n/a	PIT	6	1	[0, 0, 0]	n/a	FR1	1	R1172E
287.516	1.618	296007	WORD	n/a	wordpools/wordpool_EN.txt	GUARD	7	1	[0, 0, 0]	n/a	FR1	1	R1172E
289.134	0.933	297625	WORD_OFF	n/a	n/a	GUARD	7	1	[0, 0, 0]	n/a	FR1	1	R1172E
290.067	1.617	298558	WORD	n/a	wordpools/wordpool_EN.txt	STONE	8	1	[0, 0, 0]	n/a	FR1	1	R1172E
291.684	0.916	300175	WORD_OFF	n/a	n/a	STONE	8	1	[0, 0, 0]	n/a	FR1	1	R1172E
292.6	1.618	301091	WORD	n/a	wordpools/wordpool_EN.txt	HOSE	9	1	[0, 0, 0]	n/a	FR1	1	R1172E
294.218	0.934	302709	WORD_OFF	n/a	n/a	HOSE	9	1	[0, 0, 0]	n/a	FR1	1	R1172E
295.152	1.617	303643	WORD	n/a	wordpools/wordpool_EN.txt	BRICK	10	1	[0, 0, 0]	n/a	FR1	1	R1172E
296.769	0.799	305260	WORD_OFF	n/a	n/a	BRICK	10	1	[0, 0, 0]	n/a	FR1	1	R1172E
297.568	1.618	306059	WORD	n/a	wordpools/wordpool_EN.txt	TOOL	11	1	[0, 0, 0]	n/a	FR1	1	R1172E
299.186	0.85	307677	WORD_OFF	n/a	n/a	TOOL	11	1	[0, 0, 0]	n/a	FR1	1	R1172E
300.036	1.617	308527	WORD	n/a	wordpools/wordpool_EN.txt	DOCK	12	1	[0, 0, 0]	n/a	FR1	1	R1172E
301.653	0.0	310144	WORD_OFF	n/a	n/a	DOCK	12	1	[0, 0, 0]	n/a	FR1	1	R1172E
301.653	0.0	310144	DISTRACT_START	n/a	n/a	n/a	-999	1	[0, 0, 0]	n/a	FR1	1	R1172E
301.653	0.017	310144	START	n/a	n/a	n/a	-999	1	[-999, -999, -999]	n/a	FR1	1	R1172E
301.67	6.467	310161	PROB	6.467	n/a	n/a	-999	1	[7, 1, 4]	12	FR1	1	R1172E
308.137	7.985	316627	PROB	7.985	n/a	n/a	-999	1	[5, 6, 5]	16	FR1	1	R1172E
316.122	15.634	324612	PROB	15.634	n/a	n/a	-999	1	[9, 9, 7]	25	FR1	1	R1172E
331.756	0.019	340246	STOP	n/a	n/a	n/a	-999	1	[-999, -999, -999]	n/a	FR1	1	R1172E
331.775	0.566	340265	DISTRACT_END	n/a	n/a	n/a	-999	1	[0, 0, 0]	n/a	FR1	1	R1172E
332.341	0.518	340830	RETRIEVAL_ORIENT	n/a	n/a	n/a	-999	1	[0, 0, 0]	n/a	FR1	1	R1172E
332.859	0.825	341348	REC_START	n/a	n/a	n/a	-999	1	[0, 0, 0]	n/a	FR1	1	R1172E
333.684	1.6	342173	REC_WORD_VV	1.6	n/a	<>	-999	1	[0, 0, 0]	n/a	FR1	1	R1172E
335.284	1.578	343773	REC_WORD_VV	1.578	n/a	<>	-999	1	[0, 0, 0]	n/a	FR1	1	R1172E
336.862	3.141	345351	REC_WORD_VV	3.141	n/a	<>	-999	1	[0, 0, 0]	n/a	FR1	1	R1172E
340.003	3.299	348492	REC_WORD	3.299	n/a	TOOL	-999	1	[0, 0, 0]	n/a	FR1	1	R1172E
343.302	2.05	351791	REC_WORD	2.05	n/a	WATCH	-999	1	[0, 0, 0]	n/a	FR1	1	R1172E
345.352	4.135	353841	REC_WORD	4.135	n/a	DOCK	-999	1	[0, 0, 0]	n/a	FR1	1	R1172E
349.487	1.515	357976	REC_WORD	1.515	n/a	CUBE	-999	1	[0, 0, 0]	n/a	FR1	1	R1172E
351.002	4.703	359491	REC_WORD	4.703	n/a	ICE	-999	1	[0, 0, 0]	n/a	FR1	1	R1172E
355.705	7.166	364194	REC_WORD	7.166	n/a	SQUARE	-999	1	[0, 0, 0]	n/a	FR1	1	R1172E
362.871	10.543	371359	REC_END	n/a	n/a	n/a	-999	1	[0, 0, 0]	n/a	FR1	1	R1172E
373.414	0.5	381902	TRIAL	n/a	n/a	n/a	-999	2	[0, 0, 0]	n/a	FR1	1	R1172E
373.914	10.428	382402	COUNTDOWN_START	n/a	n/a	n/a	-999	2	[0, 0, 0]	n/a	FR1	1	R1172E
384.342	0.008	392829	COUNTDOWN_END	n/a	n/a	n/a	-999	2	[0, 0, 0]	n/a	FR1	1	R1172E
384.35	1.618	392837	ORIENT	n/a	n/a	n/a	-999	2	[0, 0, 0]	n/a	FR1	1	R1172E
385.968	2.133	394455	ORIENT_OFF	n/a	n/a	n/a	-999	2	[0, 0, 0]	n/a	FR1	1	R1172E
388.101	1.617	396588	WORD	n/a	wordpools/wordpool_EN.txt	TRAY	1	2	[0, 0, 0]	n/a	FR1	1	R1172E
389.718	0.833	398205	WORD_OFF	n/a	n/a	TRAY	1	2	[0, 0, 0]	n/a	FR1	1	R1172E
390.551	1.618	399038	WORD	n/a	wordpools/wordpool_EN.txt	PEA	2	2	[0, 0, 0]	n/a	FR1	1	R1172E
392.169	0.917	400656	WORD_OFF	n/a	n/a	PEA	2	2	[0, 0, 0]	n/a	FR1	1	R1172E
393.086	1.617	401573	WORD	n/a	wordpools/wordpool_EN.txt	SHOE	3	2	[0, 0, 0]	n/a	FR1	1	R1172E
394.703	0.865	403190	WORD_OFF	n/a	n/a	SHOE	3	2	[0, 0, 0]	n/a	FR1	1	R1172E
395.568	1.601	404055	WORD	n/a	wordpools/wordpool_EN.txt	PALM	4	2	[0, 0, 0]	n/a	FR1	1	R1172E
397.169	1.001	405656	WORD_OFF	n/a	n/a	PALM	4	2	[0, 0, 0]	n/a	FR1	1	R1172E
398.17	1.617	406657	WORD	n/a	wordpools/wordpool_EN.txt	CHEEK	5	2	[0, 0, 0]	n/a	FR1	1	R1172E
399.787	0.95	408274	WORD_OFF	n/a	n/a	CHEEK	5	2	[0, 0, 0]	n/a	FR1	1	R1172E
400.737	1.616	409224	WORD	n/a	wordpools/wordpool_EN.txt	PANTS	6	2	[0, 0, 0]	n/a	FR1	1	R1172E
402.353	0.868	410840	WORD_OFF	n/a	n/a	PANTS	6	2	[0, 0, 0]	n/a	FR1	1	R1172E
403.221	1.617	411708	WORD	n/a	wordpools/wordpool_EN.txt	DOOR	7	2	[0, 0, 0]	n/a	FR1	1	R1172E
404.838	0.765	413325	WORD_OFF	n/a	n/a	DOOR	7	2	[0, 0, 0]	n/a	FR1	1	R1172E
405.603	1.618	414089	WORD	n/a	wordpools/wordpool_EN.txt	SUIT	8	2	[0, 0, 0]	n/a	FR1	1	R1172E
407.221	0.867	415707	WORD_OFF	n/a	n/a	SUIT	8	2	[0, 0, 0]	n/a	FR1	1	R1172E
408.088	1.617	416574	WORD	n/a	wordpools/wordpool_EN.txt	DRESS	9	2	[0, 0, 0]	n/a	FR1	1	R1172E
409.705	0.917	418191	WORD_OFF	n/a	n/a	DRESS	9	2	[0, 0, 0]	n/a	FR1	1	R1172E
410.622	1.617	419108	WORD	n/a	wordpools/wordpool_EN.txt	MAT	10	2	[0, 0, 0]	n/a	FR1	1	R1172E
412.239	0.85	420725	WORD_OFF	n/a	n/a	MAT	10	2	[0, 0, 0]	n/a	FR1	1	R1172E
413.089	1.617	421575	WORD	n/a	wordpools/wordpool_EN.txt	BENCH	11	2	[0, 0, 0]	n/a	FR1	1	R1172E
414.706	0.799	423192	WORD_OFF	n/a	n/a	BENCH	11	2	[0, 0, 0]	n/a	FR1	1	R1172E
415.505	1.618	423991	WORD	n/a	wordpools/wordpool_EN.txt	FACE	12	2	[0, 0, 0]	n/a	FR1	1	R1172E
417.123	0.0	425609	WORD_OFF	n/a	n/a	FACE	12	2	[0, 0, 0]	n/a	FR1	1	R1172E
417.123	0.001	425609	DISTRACT_START	n/a	n/a	n/a	-999	2	[0, 0, 0]	n/a	FR1	1	R1172E
417.124	0.016	425610	START	n/a	n/a	n/a	-999	2	[-999, -999, -999]	n/a	FR1	1	R1172E
417.14	5.467	425626	PROB	5.467	n/a	n/a	-999	2	[4, 8, 4]	16	FR1	1	R1172E
422.607	10.935	431093	PROB	10.935	n/a	n/a	-999	2	[9, 4, 8]	21	FR1	1	R1172E
433.542	4.827	442027	PROB	4.827	n/a	n/a	-999	2	[9, 1, 8]	18	FR1	1	R1172E
438.369	0.007	446854	STOP	n/a	n/a	n/a	-999	2	[-999, -999, -999]	n/a	FR1	1	R1172E
438.376	0.601	446861	DISTRACT_END	n/a	n/a	n/a	-999	2	[0, 0, 0]	n/a	FR1	1	R1172E
438.977	0.516	447462	RETRIEVAL_ORIENT	n/a	n/a	n/a	-999	2	[0, 0, 0]	n/a	FR1	1	R1172E
439.493	3.218	447978	REC_START	n/a	n/a	n/a	-999	2	[0, 0, 0]	n/a	FR1	1	R1172E
442.711	1.795	451196	REC_WORD	1.795	n/a	SUIT	-999	2	[0, 0, 0]	n/a	FR1	1	R1172E
444.506	2.931	452991	REC_WORD	2.931	n/a	DRESS	-999	2	[0, 0, 0]	n/a	FR1	1	R1172E
447.437	2.156	455922	REC_WORD	2.156	n/a	WOOD	-999	2	[0, 0, 0]	n/a	FR1	1	R1172E
449.593	2.298	458078	REC_WORD	2.298	n/a	DOOR	-999	2	[0, 0, 0]	n/a	FR1	1	R1172E
451.891	1.939	460376	REC_WORD	1.939	n/a	PEARL	-999	2	[0, 0, 0]	n/a	FR1	1	R1172E
453.83	15.675	462315	REC_WORD	15.675	n/a	MAIL	-999	2	[0, 0, 0]	n/a	FR1	1	R1172E
469.505	9.045	477989	REC_END	n/a	n/a	n/a	-999	2	[0, 0, 0]	n/a	FR1	1	R1172E
478.55	0.5	487034	TRIAL	n/a	n/a	n/a	-999	3	[0, 0, 0]	n/a	FR1	1	R1172E
479.05	10.428	487533	COUNTDOWN_START	n/a	n/a	n/a	-999	3	[0, 0, 0]	n/a	FR1	1	R1172E
489.478	0.007	497961	COUNTDOWN_END	n/a	n/a	n/a	-999	3	[0, 0, 0]	n/a	FR1	1	R1172E
489.485	1.618	497968	ORIENT	n/a	n/a	n/a	-999	3	[0, 0, 0]	n/a	FR1	1	R1172E
491.103	2.133	499586	ORIENT_OFF	n/a	n/a	n/a	-999	3	[0, 0, 0]	n/a	FR1	1	R1172E
493.236	1.618	501719	WORD	n/a	wordpools/wordpool_EN.txt	SMOKE	1	3	[0, 0, 0]	n/a	FR1	1	R1172E
494.854	0.966	503337	WORD_OFF	n/a	n/a	SMOKE	1	3	[0, 0, 0]	n/a	FR1	1	R1172E
495.82	1.616	504303	WORD	n/a	wordpools/wordpool_EN.txt	ROCK	2	3	[0, 0, 0]	n/a	FR1	1	R1172E
497.436	0.768	505919	WORD_OFF	n/a	n/a	ROCK	2	3	[0, 0, 0]	n/a	FR1	1	R1172E
498.204	1.617	506687	WORD	n/a	wordpools/wordpool_EN.txt	JAIL	3	3	[0, 0, 0]	n/a	FR1	1	R1172E
499.821	0.867	508304	WORD_OFF	n/a	n/a	JAIL	3	3	[0, 0, 0]	n/a	FR1	1	R1172E
500.688	1.616	509171	WORD	n/a	wordpools/wordpool_EN.txt	SWORD	4	3	[0, 0, 0]	n/a	FR1	1	R1172E
502.304	0.834	510787	WORD_OFF	n/a	n/a	SWORD	4	3	[0, 0, 0]	n/a	FR1	1	R1172E
503.138	1.617	511620	WORD	n/a	wordpools/wordpool_EN.txt	BRIDGE	5	3	[0, 0, 0]	n/a	FR1	1	R1172E
504.755	0.799	513237	WORD_OFF	n/a	n/a	BRIDGE	5	3	[0, 0, 0]	n/a	FR1	1	R1172E
505.554	1.601	514036	WORD	n/a	wordpools/wordpool_EN.txt	JUDGE	6	3	[0, 0, 0]	n/a	FR1	1	R1172E
507.155	0.951	515637	WORD_OFF	n/a	n/a	JUDGE	6	3	[0, 0, 0]	n/a	FR1	1	R1172E
508.106	1.617	516588	WORD	n/a	wordpools/wordpool_EN.txt	STEAM	7	3	[0, 0, 0]	n/a	FR1	1	R1172E
509.723	0.983	518205	WORD_OFF	n/a	n/a	STEAM	7	3	[0, 0, 0]	n/a	FR1	1	R1172E
510.706	1.616	519188	WORD	n/a	wordpools/wordpool_EN.txt	SAIL	8	3	[0, 0, 0]	n/a	FR1	1	R1172E
512.322	0.935	520804	WORD_OFF	n/a	n/a	SAIL	8	3	[0, 0, 0]	n/a	FR1	1	R1172E
513.257	1.617	521739	WORD	n/a	wordpools/wordpool_EN.txt	FORT	9	3	[0, 0, 0]	n/a	FR1	1	R1172E
514.874	0.866	523356	WORD_OFF	n/a	n/a	FORT	9	3	[0, 0, 0]	n/a	FR1	1	R1172E
515.74	1.616	524222	WORD	n/a	wordpools/wordpool_EN.txt	SPEAR	10	3	[0, 0, 0]	n/a	FR1	1	R1172E
517.356	0.967	525838	WORD_OFF	n/a	n/a	SPEAR	10	3	[0, 0, 0]	n/a	FR1	1	R1172E
518.323	1.618	526805	WORD	n/a	wordpools/wordpool_EN.txt	FUDGE	11	3	[0, 0, 0]	n/a	FR1	1	R1172E
519.941	0.784	528423	WORD_OFF	n/a	n/a	FUDGE	11	3	[0, 0, 0]	n/a	FR1	1	R1172E
520.725	1.616	529207	WORD	n/a	wordpools/wordpool_EN.txt	CLIFF	12	3	[0, 0, 0]	n/a	FR1	1	R1172E
522.341	0.0	530823	WORD_OFF	n/a	n/a	CLIFF	12	3	[0, 0, 0]	n/a	FR1	1	R1172E
522.341	0.0	530823	DISTRACT_START	n/a	n/a	n/a	-999	3	[0, 0, 0]	n/a	FR1	1	R1172E
522.341	0.016	530823	START	n/a	n/a	n/a	-999	3	[-999, -999, -999]	n/a	FR1	1	R1172E
522.357	7.286	530839	PROB	7.286	n/a	n/a	-999	3	[8, 5, 4]	17	FR1	1	R1172E
529.643	4.101	538124	PROB	4.101	n/a	n/a	-999	3	[5, 2, 1]	8	FR1	1	R1172E
533.744	5.55	542225	PROB	5.55	n/a	n/a	-999	3	[4, 6, 1]	11	FR1	1	R1172E
539.294	7.061	547775	PROB	7.061	n/a	n/a	-999	3	[3, 9, 4]	16	FR1	1	R1172E
546.355	0.006	554836	STOP	n/a	n/a	n/a	-999	3	[-999, -999, -999]	n/a	FR1	1	R1172E
546.361	0.635	554842	DISTRACT_END	n/a	n/a	n/a	-999	3	[0, 0, 0]	n/a	FR1	1	R1172E
546.996	0.516	555477	RETRIEVAL_ORIENT	n/a	n/a	n/a	-999	3	[0, 0, 0]	n/a	FR1	1	R1172E
547.512	3.795	555993	REC_START	n/a	n/a	n/a	-999	3	[0, 0, 0]	n/a	FR1	1	R1172E
551.307	1.85	559788	REC_WORD	1.85	n/a	SPEAR	-999	3	[0, 0, 0]	n/a	FR1	1	R1172E
553.157	3.792	561637	REC_WORD	3.792	n/a	THROAT	-999	3	[0, 0, 0]	n/a	FR1	1	R1172E
556.949	1.539	565429	REC_WORD	1.539	n/a	JAIL	-999	3	[0, 0, 0]	n/a	FR1	1	R1172E
558.488	3.462	566968	REC_WORD	3.462	n/a	ROCK	-999	3	[0, 0, 0]	n/a	FR1	1	R1172E
561.95	15.573	570430	REC_WORD	15.573	n/a	SMOKE	-999	3	[0, 0, 0]	n/a	FR1	1	R1172E
577.523	12.063	586002	REC_END	n/a	n/a	n/a	-999	3	[0, 0, 0]	n/a	FR1	1	R1172E
589.586	0.5	598065	TRIAL	n/a	n/a	n/a	-999	4	[0, 0, 0]	n/a	FR1	1	R1172E
590.086	10.428	598565	COUNTDOWN_START	n/a	n/a	n/a	-999	4	[0, 0, 0]	n/a	FR1	1	R1172E
600.514	0.007	608993	COUNTDOWN_END	n/a	n/a	n/a	-999	4	[0, 0, 0]	n/a	FR1	1	R1172E
600.521	1.618	609000	ORIENT	n/a	n/a	n/a	-999	4	[0, 0, 0]	n/a	FR1	1	R1172E
602.139	2.333	610617	ORIENT_OFF	n/a	n/a	n/a	-999	4	[0, 0, 0]	n/a	FR1	1	R1172E
604.472	1.618	612950	WORD	n/a	wordpools/wordpool_EN.txt	HORSE	1	4	[0, 0, 0]	n/a	FR1	1	R1172E
606.09	0.95	614568	WORD_OFF	n/a	n/a	HORSE	1	4	[0, 0, 0]	n/a	FR1	1	R1172E
607.04	1.617	615518	WORD	n/a	wordpools/wordpool_EN.txt	JEEP	2	4	[0, 0, 0]	n/a	FR1	1	R1172E
608.657	0.865	617135	WORD_OFF	n/a	n/a	JEEP	2	4	[0, 0, 0]	n/a	FR1	1	R1172E
609.522	1.602	618000	WORD	n/a	wordpools/wordpool_EN.txt	HEN	3	4	[0, 0, 0]	n/a	FR1	1	R1172E
611.124	0.783	619602	WORD_OFF	n/a	n/a	HEN	3	4	[0, 0, 0]	n/a	FR1	1	R1172E
611.907	1.616	620385	WORD	n/a	wordpools/wordpool_EN.txt	RAT	4	4	[0, 0, 0]	n/a	FR1	1	R1172E
613.523	0.867	622001	WORD_OFF	n/a	n/a	RAT	4	4	[0, 0, 0]	n/a	FR1	1	R1172E
614.39	1.618	622868	WORD	n/a	wordpools/wordpool_EN.txt	TRAIN	5	4	[0, 0, 0]	n/a	FR1	1	R1172E
616.008	0.817	624486	WORD_OFF	n/a	n/a	TRAIN	5	4	[0, 0, 0]	n/a	FR1	1	R1172E
616.825	1.616	625303	WORD	n/a	wordpools/wordpool_EN.txt	FARM	6	4	[0, 0, 0]	n/a	FR1	1	R1172E
618.441	0.768	626919	WORD_OFF	n/a	n/a	FARM	6	4	[0, 0, 0]	n/a	FR1	1	R1172E
619.209	1.617	627687	WORD	n/a	wordpools/wordpool_EN.txt	ROAD	7	4	[0, 0, 0]	n/a	FR1	1	R1172E
620.826	0.833	629304	WORD_OFF	n/a	n/a	ROAD	7	4	[0, 0, 0]	n/a	FR1	1	R1172E
621.659	1.617	630137	WORD	n/a	wordpools/wordpool_EN.txt	CHALK	8	4	[0, 0, 0]	n/a	FR1	1	R1172E
623.276	0.784	631754	WORD_OFF	n/a	n/a	CHALK	8	4	[0, 0, 0]	n/a	FR1	1	R1172E
624.06	1.617	632538	WORD	n/a	wordpools/wordpool_EN.txt	DART	9	4	[0, 0, 0]	n/a	FR1	1	R1172E
625.677	0.799	634154	WORD_OFF	n/a	n/a	DART	9	4	[0, 0, 0]	n/a	FR1	1	R1172E
626.476	1.618	634953	WORD	n/a	wordpools/wordpool_EN.txt	LAWN	10	4	[0, 0, 0]	n/a	FR1	1	R1172E
628.094	0.8	636571	WORD_OFF	n/a	n/a	LAWN	10	4	[0, 0, 0]	n/a	FR1	1	R1172E
628.894	1.616	637371	WORD	n/a	wordpools/wordpool_EN.txt	PET	11	4	[0, 0, 0]	n/a	FR1	1	R1172E
630.51	0.966	638987	WORD_OFF	n/a	n/a	PET	11	4	[0, 0, 0]	n/a	FR1	1	R1172E
631.476	1.618	639953	WORD	n/a	wordpools/wordpool_EN.txt	STORE	12	4	[0, 0, 0]	n/a	FR1	1	R1172E
633.094	0.0	641571	WORD_OFF	n/a	n/a	STORE	12	4	[0, 0, 0]	n/a	FR1	1	R1172E
633.094	0.001	641571	DISTRACT_START	n/a	n/a	n/a	-999	4	[0, 0, 0]	n/a	FR1	1	R1172E
633.095	0.016	641572	START	n/a	n/a	n/a	-999	4	[-999, -999, -999]	n/a	FR1	1	R1172E
633.111	6.585	641588	PROB	6.585	n/a	n/a	-999	4	[4, 2, 5]	11	FR1	1	R1172E
639.696	7.001	648173	PROB	7.001	n/a	n/a	-999	4	[9, 8, 2]	19	FR1	1	R1172E
646.697	4.783	655174	PROB	4.783	n/a	n/a	-999	4	[2, 2, 4]	8	FR1	1	R1172E
651.48	7.845	659956	PROB	7.845	n/a	n/a	-999	4	[4, 2, 8]	14	FR1	1	R1172E
659.325	0.006	667801	STOP	n/a	n/a	n/a	-999	4	[-999, -999, -999]	n/a	FR1	1	R1172E
659.331	0.585	667807	DISTRACT_END	n/a	n/a	n/a	-999	4	[0, 0, 0]	n/a	FR1	1	R1172E
659.916	0.519	668392	RETRIEVAL_ORIENT	n/a	n/a	n/a	-999	4	[0, 0, 0]	n/a	FR1	1	R1172E
660.435	3.775	668911	REC_START	n/a	n/a	n/a	-999	4	[0, 0, 0]	n/a	FR1	1	R1172E
664.21	1.858	672686	REC_WORD	1.858	n/a	TRAIN	-999	4	[0, 0, 0]	n/a	FR1	1	R1172E
666.068	1.832	674544	REC_WORD	1.832	n/a	HORSE	-999	4	[0, 0, 0]	n/a	FR1	1	R1172E
667.9	2.928	676376	REC_WORD	2.928	n/a	ROAD	-999	4	[0, 0, 0]	n/a	FR1	1	R1172E
670.828	8.37	679304	REC_WORD	8.37	n/a	FARM	-999	4	[0, 0, 0]	n/a	FR1	1	R1172E
679.198	11.246	687673	REC_WORD	11.246	n/a	CHALK	-999	4	[0, 0, 0]	n/a	FR1	1	R1172E
690.444	12.579	698919	REC_END	n/a	n/a	n/a	-999	4	[0, 0, 0]	n/a	FR1	1	R1172E
703.023	0.5	711497	TRIAL	n/a	n/a	n/a	-999	5	[0, 0, 0]	n/a	FR1	1	R1172E
703.523	10.428	711997	COUNTDOWN_START	n/a	n/a	n/a	-999	5	[0, 0, 0]	n/a	FR1	1	R1172E
713.951	0.008	722425	COUNTDOWN_END	n/a	n/a	n/a	-999	5	[0, 0, 0]	n/a	FR1	1	R1172E
713.959	1.616	722433	ORIENT	n/a	n/a	n/a	-999	5	[0, 0, 0]	n/a	FR1	1	R1172E
715.575	2.234	724049	ORIENT_OFF	n/a	n/a	n/a	-999	5	[0, 0, 0]	n/a	FR1	1	R1172E
717.809	1.616	726283	WORD	n/a	wordpools/wordpool_EN.txt	BROOM	1	5	[0, 0, 0]	n/a	FR1	1	R1172E
719.425	0.9	727899	WORD_OFF	n/a	n/a	BROOM	1	5	[0, 0, 0]	n/a	FR1	1	R1172E
720.325	1.602	728799	WORD	n/a	wordpools/wordpool_EN.txt	JAR	2	5	[0, 0, 0]	n/a	FR1	1	R1172E
721.927	0.866	730401	WORD_OFF	n/a	n/a	JAR	2	5	[0, 0, 0]	n/a	FR1	1	R1172E
722.793	1.617	731267	WORD	n/a	wordpools/wordpool_EN.txt	LAMP	3	5	[0, 0, 0]	n/a	FR1	1	R1172E
724.41	0.767	732883	WORD_OFF	n/a	n/a	LAMP	3	5	[0, 0, 0]	n/a	FR1	1	R1172E
725.177	1.617	733650	WORD	n/a	wordpools/wordpool_EN.txt	BEAN	4	5	[0, 0, 0]	n/a	FR1	1	R1172E
726.794	0.984	735267	WORD_OFF	n/a	n/a	BEAN	4	5	[0, 0, 0]	n/a	FR1	1	R1172E
727.778	1.616	736251	WORD	n/a	wordpools/wordpool_EN.txt	VINE	5	5	[0, 0, 0]	n/a	FR1	1	R1172E
729.394	0.834	737867	WORD_OFF	n/a	n/a	VINE	5	5	[0, 0, 0]	n/a	FR1	1	R1172E
730.228	1.617	738701	WORD	n/a	wordpools/wordpool_EN.txt	FLAME	6	5	[0, 0, 0]	n/a	FR1	1	R1172E
731.845	1.0	740318	WORD_OFF	n/a	n/a	FLAME	6	5	[0, 0, 0]	n/a	FR1	1	R1172E
732.845	1.616	741318	WORD	n/a	wordpools/wordpool_EN.txt	SOUP	7	5	[0, 0, 0]	n/a	FR1	1	R1172E
734.461	0.867	742934	WORD_OFF	n/a	n/a	SOUP	7	5	[0, 0, 0]	n/a	FR1	1	R1172E
735.328	1.601	743801	WORD	n/a	wordpools/wordpool_EN.txt	APE	8	5	[0, 0, 0]	n/a	FR1	1	R1172E
736.929	0.851	745402	WORD_OFF	n/a	n/a	APE	8	5	[0, 0, 0]	n/a	FR1	1	R1172E
737.78	1.615	746253	WORD	n/a	wordpools/wordpool_EN.txt	TENT	9	5	[0, 0, 0]	n/a	FR1	1	R1172E
739.395	0.934	747868	WORD_OFF	n/a	n/a	TENT	9	5	[0, 0, 0]	n/a	FR1	1	R1172E
740.329	1.601	748802	WORD	n/a	wordpools/wordpool_EN.txt	WALL	10	5	[0, 0, 0]	n/a	FR1	1	R1172E
741.93	1.017	750403	WORD_OFF	n/a	n/a	WALL	10	5	[0, 0, 0]	n/a	FR1	1	R1172E
742.947	1.616	751420	WORD	n/a	wordpools/wordpool_EN.txt	RUG	11	5	[0, 0, 0]	n/a	FR1	1	R1172E
744.563	0.834	753036	WORD_OFF	n/a	n/a	RUG	11	5	[0, 0, 0]	n/a	FR1	1	R1172E
745.397	1.617	753870	WORD	n/a	wordpools/wordpool_EN.txt	SOAP	12	5	[0, 0, 0]	n/a	FR1	1	R1172E
747.014	0.0	755487	WORD_OFF	n/a	n/a	SOAP	12	5	[0, 0, 0]	n/a	FR1	1	R1172E
747.014	0.001	755487	DISTRACT_START	n/a	n/a	n/a	-999	5	[0, 0, 0]	n/a	FR1	1	R1172E
747.015	0.016	755488	START	n/a	n/a	n/a	-999	5	[-999, -999, -999]	n/a	FR1	1	R1172E
747.031	4.5	755504	PROB	4.5	n/a	n/a	-999	5	[2, 4, 6]	12	FR1	1	R1172E
751.531	10.269	760003	PROB	10.269	n/a	n/a	-999	5	[7, 5, 8]	20	FR1	1	R1172E
761.8	6.802	770272	PROB	6.802	n/a	n/a	-999	5	[6, 8, 8]	22	FR1	1	R1172E
768.602	0.016	777074	STOP	n/a	n/a	n/a	-999	5	[-999, -999, -999]	n/a	FR1	1	R1172E
768.618	0.634	777090	DISTRACT_END	n/a	n/a	n/a	-999	5	[0, 0, 0]	n/a	FR1	1	R1172E
769.252	0.517	777724	RETRIEVAL_ORIENT	n/a	n/a	n/a	-999	5	[0, 0, 0]	n/a	FR1	1	R1172E
769.769	3.927	778241	REC_START	n/a	n/a	n/a	-999	5	[0, 0, 0]	n/a	FR1	1	R1172E
773.696	1.413	782167	REC_WORD	1.413	n/a	TENT	-999	5	[0, 0, 0]	n/a	FR1	1	R1172E
775.109	2.582	783580	REC_WORD	2.582	n/a	WALL	-999	5	[0, 0, 0]	n/a	FR1	1	R1172E
777.691	22.089	786162	REC_WORD	22.089	n/a	TOOL	-999	5	[0, 0, 0]	n/a	FR1	1	R1172E
799.78	11.528	808250	REC_END	n/a	n/a	n/a	-999	5	[0, 0, 0]	n/a	FR1	1	R1172E
811.308	0.5	819778	TRIAL	n/a	n/a	n/a	-999	6	[0, 0, 0]	n/a	FR1	1	R1172E
811.808	10.428	820278	COUNTDOWN_START	n/a	n/a	n/a	-999	6	[0, 0, 0]	n/a	FR1	1	R1172E
822.236	0.008	830705	COUNTDOWN_END	n/a	n/a	n/a	-999	6	[0, 0, 0]	n/a	FR1	1	R1172E
822.244	1.617	830713	ORIENT	n/a	n/a	n/a	-999	6	[0, 0, 0]	n/a	FR1	1	R1172E
823.861	1.901	832330	ORIENT_OFF	n/a	n/a	n/a	-999	6	[0, 0, 0]	n/a	FR1	1	R1172E
825.762	1.616	834231	WORD	n/a	wordpools/wordpool_EN.txt	MAIL	1	6	[0, 0, 0]	n/a	FR1	1	R1172E
827.378	0.784	835847	WORD_OFF	n/a	n/a	MAIL	1	6	[0, 0, 0]	n/a	FR1	1	R1172E
828.162	1.617	836631	WORD	n/a	wordpools/wordpool_EN.txt	KEY	2	6	[0, 0, 0]	n/a	FR1	1	R1172E
829.779	0.766	838248	WORD_OFF	n/a	n/a	KEY	2	6	[0, 0, 0]	n/a	FR1	1	R1172E
830.545	1.618	839014	WORD	n/a	wordpools/wordpool_EN.txt	CAR	3	6	[0, 0, 0]	n/a	FR1	1	R1172E
832.163	0.917	840632	WORD_OFF	n/a	n/a	CAR	3	6	[0, 0, 0]	n/a	FR1	1	R1172E
833.08	1.617	841549	WORD	n/a	wordpools/wordpool_EN.txt	SHEET	4	6	[0, 0, 0]	n/a	FR1	1	R1172E
834.697	0.95	843166	WORD_OFF	n/a	n/a	SHEET	4	6	[0, 0, 0]	n/a	FR1	1	R1172E
835.647	1.617	844116	WORD	n/a	wordpools/wordpool_EN.txt	BOOK	5	6	[0, 0, 0]	n/a	FR1	1	R1172E
837.264	0.867	845733	WORD_OFF	n/a	n/a	BOOK	5	6	[0, 0, 0]	n/a	FR1	1	R1172E
838.131	1.617	846600	WORD	n/a	wordpools/wordpool_EN.txt	RAIN	6	6	[0, 0, 0]	n/a	FR1	1	R1172E
839.748	0.815	848217	WORD_OFF	n/a	n/a	RAIN	6	6	[0, 0, 0]	n/a	FR1	1	R1172E
840.563	1.618	849032	WORD	n/a	wordpools/wordpool_EN.txt	EEL	7	6	[0, 0, 0]	n/a	FR1	1	R1172E
842.181	1.0	850650	WORD_OFF	n/a	n/a	EEL	7	6	[0, 0, 0]	n/a	FR1	1	R1172E
843.181	1.617	851650	WORD	n/a	wordpools/wordpool_EN.txt	WING	8	6	[0, 0, 0]	n/a	FR1	1	R1172E
844.798	0.766	853267	WORD_OFF	n/a	n/a	WING	8	6	[0, 0, 0]	n/a	FR1	1	R1172E
845.564	1.601	854033	WORD	n/a	wordpools/wordpool_EN.txt	COIN	9	6	[0, 0, 0]	n/a	FR1	1	R1172E
847.165	0.817	855633	WORD_OFF	n/a	n/a	COIN	9	6	[0, 0, 0]	n/a	FR1	1	R1172E
847.982	1.616	856450	WORD	n/a	wordpools/wordpool_EN.txt	CASH	10	6	[0, 0, 0]	n/a	FR1	1	R1172E
849.598	0.934	858066	WORD_OFF	n/a	n/a	CASH	10	6	[0, 0, 0]	n/a	FR1	1	R1172E
850.532	1.618	859000	WORD	n/a	wordpools/wordpool_EN.txt	PLANE	11	6	[0, 0, 0]	n/a	FR1	1	R1172E
852.15	0.867	860618	WORD_OFF	n/a	n/a	PLANE	11	6	[0, 0, 0]	n/a	FR1	1	R1172E
853.017	1.616	861485	WORD	n/a	wordpools/wordpool_EN.txt	BANK	12	6	[0, 0, 0]	n/a	FR1	1	R1172E
854.633	0.0	863101	WORD_OFF	n/a	n/a	BANK	12	6	[0, 0, 0]	n/a	FR1	1	R1172E
854.633	0.001	863101	DISTRACT_START	n/a	n/a	n/a	-999	6	[0, 0, 0]	n/a	FR1	1	R1172E
854.634	0.016	863102	START	n/a	n/a	n/a	-999	6	[-999, -999, -999]	n/a	FR1	1	R1172E
854.65	5.618	863118	PROB	5.618	n/a	n/a	-999	6	[6, 7, 2]	15	FR1	1	R1172E
860.268	7.584	868736	PROB	7.584	n/a	n/a	-999	6	[8, 5, 1]	14	FR1	1	R1172E
867.852	5.717	876320	PROB	5.717	n/a	n/a	-999	6	[5, 8, 2]	15	FR1	1	R1172E
873.569	4.687	882036	PROB	4.687	n/a	n/a	-999	6	[2, 4, 6]	12	FR1	1	R1172E
878.256	0.015	886723	STOP	n/a	n/a	n/a	-999	6	[-999, -999, -999]	n/a	FR1	1	R1172E
878.271	0.633	886738	DISTRACT_END	n/a	n/a	n/a	-999	6	[0, 0, 0]	n/a	FR1	1	R1172E
878.904	0.517	887371	RETRIEVAL_ORIENT	n/a	n/a	n/a	-999	6	[0, 0, 0]	n/a	FR1	1	R1172E
879.421	3.153	887888	REC_START	n/a	n/a	n/a	-999	6	[0, 0, 0]	n/a	FR1	1	R1172E
882.574	4.769	891041	REC_WORD	4.769	n/a	EEL	-999	6	[0, 0, 0]	n/a	FR1	1	R1172E
887.343	1.961	895810	REC_WORD	1.961	n/a	COIN	-999	6	[0, 0, 0]	n/a	FR1	1	R1172E
889.304	20.127	897771	REC_WORD	20.127	n/a	CASH	-999	6	[0, 0, 0]	n/a	FR1	1	R1172E
909.431	9.88	917897	REC_END	n/a	n/a	n/a	-999	6	[0, 0, 0]	n/a	FR1	1	R1172E
919.311	0.5	927776	TRIAL	n/a	n/a	n/a	-999	7	[0, 0, 0]	n/a	FR1	1	R1172E
919.811	10.428	928276	COUNTDOWN_START	n/a	n/a	n/a	-999	7	[0, 0, 0]	n/a	FR1	1	R1172E
930.239	0.008	938704	COUNTDOWN_END	n/a	n/a	n/a	-999	7	[0, 0, 0]	n/a	FR1	1	R1172E
930.247	1.617	938712	ORIENT	n/a	n/a	n/a	-999	7	[0, 0, 0]	n/a	FR1	1	R1172E
931.864	2.017	940329	ORIENT_OFF	n/a	n/a	n/a	-999	7	[0, 0, 0]	n/a	FR1	1	R1172E
933.881	1.616	942346	WORD	n/a	wordpools/wordpool_EN.txt	WORLD	1	7	[0, 0, 0]	n/a	FR1	1	R1172E
935.497	0.784	943962	WORD_OFF	n/a	n/a	WORLD	1	7	[0, 0, 0]	n/a	FR1	1	R1172E
936.281	1.617	944746	WORD	n/a	wordpools/wordpool_EN.txt	FUR	2	7	[0, 0, 0]	n/a	FR1	1	R1172E
937.898	0.784	946363	WORD_OFF	n/a	n/a	FUR	2	7	[0, 0, 0]	n/a	FR1	1	R1172E
938.682	1.616	947147	WORD	n/a	wordpools/wordpool_EN.txt	SKI	3	7	[0, 0, 0]	n/a	FR1	1	R1172E
940.298	0.901	948763	WORD_OFF	n/a	n/a	SKI	3	7	[0, 0, 0]	n/a	FR1	1	R1172E
941.199	1.617	949664	WORD	n/a	wordpools/wordpool_EN.txt	BED	4	7	[0, 0, 0]	n/a	FR1	1	R1172E
942.816	0.8	951281	WORD_OFF	n/a	n/a	BED	4	7	[0, 0, 0]	n/a	FR1	1	R1172E
943.616	1.617	952080	WORD	n/a	wordpools/wordpool_EN.txt	JET	5	7	[0, 0, 0]	n/a	FR1	1	R1172E
945.233	0.85	953697	WORD_OFF	n/a	n/a	JET	5	7	[0, 0, 0]	n/a	FR1	1	R1172E
946.083	1.617	954547	WORD	n/a	wordpools/wordpool_EN.txt	SCHOOL	6	7	[0, 0, 0]	n/a	FR1	1	R1172E
947.7	0.849	956164	WORD_OFF	n/a	n/a	SCHOOL	6	7	[0, 0, 0]	n/a	FR1	1	R1172E
948.549	1.618	957013	WORD	n/a	wordpools/wordpool_EN.txt	SPOON	7	7	[0, 0, 0]	n/a	FR1	1	R1172E
950.167	0.966	958631	WORD_OFF	n/a	n/a	SPOON	7	7	[0, 0, 0]	n/a	FR1	1	R1172E
951.133	1.618	959597	WORD	n/a	wordpools/wordpool_EN.txt	FOG	8	7	[0, 0, 0]	n/a	FR1	1	R1172E
952.751	0.9	961215	WORD_OFF	n/a	n/a	FOG	8	7	[0, 0, 0]	n/a	FR1	1	R1172E
953.651	1.617	962115	WORD	n/a	wordpools/wordpool_EN.txt	LAKE	9	7	[0, 0, 0]	n/a	FR1	1	R1172E
955.268	0.883	963732	WORD_OFF	n/a	n/a	LAKE	9	7	[0, 0, 0]	n/a	FR1	1	R1172E
956.151	1.617	964615	WORD	n/a	wordpools/wordpool_EN.txt	SPARK	10	7	[0, 0, 0]	n/a	FR1	1	R1172E
957.768	0.9	966232	WORD_OFF	n/a	n/a	SPARK	10	7	[0, 0, 0]	n/a	FR1	1	R1172E
958.668	1.617	967132	WORD	n/a	wordpools/wordpool_EN.txt	POOL	11	7	[0, 0, 0]	n/a	FR1	1	R1172E
960.285	0.867	968749	WORD_OFF	n/a	n/a	POOL	11	7	[0, 0, 0]	n/a	FR1	1	R1172E
961.152	1.617	969616	WORD	n/a	wordpools/wordpool_EN.txt	SEAT	12	7	[0, 0, 0]	n/a	FR1	1	R1172E
962.769	0.0	971233	WORD_OFF	n/a	n/a	SEAT	12	7	[0, 0, 0]	n/a	FR1	1	R1172E
962.769	0.001	971233	DISTRACT_START	n/a	n/a	n/a	-999	7	[0, 0, 0]	n/a	FR1	1	R1172E
962.77	0.016	971234	START	n/a	n/a	n/a	-999	7	[-999, -999, -999]	n/a	FR1	1	R1172E
962.786	9.902	971250	PROB	9.902	n/a	n/a	-999	7	[5, 9, 9]	23	FR1	1	R1172E
972.688	6.984	981151	PROB	6.984	n/a	n/a	-999	7	[9, 8, 6]	21	FR1	1	R1172E
979.672	5.165	988135	PROB	5.165	n/a	n/a	-999	7	[5, 9, 2]	16	FR1	1	R1172E
984.837	0.019	993300	STOP	n/a	n/a	n/a	-999	7	[-999, -999, -999]	n/a	FR1	1	R1172E
984.856	0.516	993319	DISTRACT_END	n/a	n/a	n/a	-999	7	[0, 0, 0]	n/a	FR1	1	R1172E
985.372	0.502	993835	RETRIEVAL_ORIENT	n/a	n/a	n/a	-999	7	[0, 0, 0]	n/a	FR1	1	R1172E
985.874	9.141	994337	REC_START	n/a	n/a	n/a	-999	7	[0, 0, 0]	n/a	FR1	1	R1172E
995.015	1.173	1003477	REC_WORD	1.173	n/a	BANK	-999	7	[0, 0, 0]	n/a	FR1	1	R1172E
996.188	13.944	1004650	REC_WORD	13.944	n/a	SCHOOL	-999	7	[0, 0, 0]	n/a	FR1	1	R1172E
1010.132	3.036	1018594	REC_WORD	3.036	n/a	SKI	-999	7	[0, 0, 0]	n/a	FR1	1	R1172E
1013.168	2.716	1021630	REC_WORD	2.716	n/a	SLOPE	-999	7	[0, 0, 0]	n/a	FR1	1	R1172E
1015.884	13.947	1024346	REC_END	n/a	n/a	n/a	-999	7	[0, 0, 0]	n/a	FR1	1	R1172E
1029.831	0.5	1038292	TRIAL	n/a	n/a	n/a	-999	8	[0, 0, 0]	n/a	FR1	1	R1172E
1030.331	10.428	1038792	COUNTDOWN_START	n/a	n/a	n/a	-999	8	[0, 0, 0]	n/a	FR1	1	R1172E
1040.759	0.007	1049220	COUNTDOWN_END	n/a	n/a	n/a	-999	8	[0, 0, 0]	n/a	FR1	1	R1172E
1040.766	1.616	1049227	ORIENT	n/a	n/a	n/a	-999	8	[0, 0, 0]	n/a	FR1	1	R1172E
1042.382	2.268	1050842	ORIENT_OFF	n/a	n/a	n/a	-999	8	[0, 0, 0]	n/a	FR1	1	R1172E
1044.65	1.617	1053110	WORD	n/a	wordpools/wordpool_EN.txt	NEST	1	8	[0, 0, 0]	n/a	FR1	1	R1172E
1046.267	1.0	1054727	WORD_OFF	n/a	n/a	NEST	1	8	[0, 0, 0]	n/a	FR1	1	R1172E
1047.267	1.617	1055727	WORD	n/a	wordpools/wordpool_EN.txt	VEST	2	8	[0, 0, 0]	n/a	FR1	1	R1172E
1048.884	0.85	1057344	WORD_OFF	n/a	n/a	VEST	2	8	[0, 0, 0]	n/a	FR1	1	R1172E
1049.734	1.616	1058194	WORD	n/a	wordpools/wordpool_EN.txt	HOUSE	3	8	[0, 0, 0]	n/a	FR1	1	R1172E
1051.35	0.967	1059810	WORD_OFF	n/a	n/a	HOUSE	3	8	[0, 0, 0]	n/a	FR1	1	R1172E
1052.317	1.618	1060777	WORD	n/a	wordpools/wordpool_EN.txt	GOAT	4	8	[0, 0, 0]	n/a	FR1	1	R1172E
1053.935	0.9	1062395	WORD_OFF	n/a	n/a	GOAT	4	8	[0, 0, 0]	n/a	FR1	1	R1172E
1054.835	1.616	1063295	WORD	n/a	wordpools/wordpool_EN.txt	FROG	5	8	[0, 0, 0]	n/a	FR1	1	R1172E
1056.451	0.9	1064911	WORD_OFF	n/a	n/a	FROG	5	8	[0, 0, 0]	n/a	FR1	1	R1172E
1057.351	1.602	1065811	WORD	n/a	wordpools/wordpool_EN.txt	OWL	6	8	[0, 0, 0]	n/a	FR1	1	R1172E
1058.953	0.833	1067413	WORD_OFF	n/a	n/a	OWL	6	8	[0, 0, 0]	n/a	FR1	1	R1172E
1059.786	1.616	1068246	WORD	n/a	wordpools/wordpool_EN.txt	POND	7	8	[0, 0, 0]	n/a	FR1	1	R1172E
1061.402	0.967	1069862	WORD_OFF	n/a	n/a	POND	7	8	[0, 0, 0]	n/a	FR1	1	R1172E
1062.369	1.601	1070829	WORD	n/a	wordpools/wordpool_EN.txt	HILL	8	8	[0, 0, 0]	n/a	FR1	1	R1172E
1063.97	0.967	1072430	WORD_OFF	n/a	n/a	HILL	8	8	[0, 0, 0]	n/a	FR1	1	R1172E
1064.937	1.616	1073397	WORD	n/a	wordpools/wordpool_EN.txt	SKY	9	8	[0, 0, 0]	n/a	FR1	1	R1172E
1066.553	0.8	1075012	WORD_OFF	n/a	n/a	SKY	9	8	[0, 0, 0]	n/a	FR1	1	R1172E
1067.353	1.618	1075812	WORD	n/a	wordpools/wordpool_EN.txt	BARN	10	8	[0, 0, 0]	n/a	FR1	1	R1172E
1068.971	1.0	1077430	WORD_OFF	n/a	n/a	BARN	10	8	[0, 0, 0]	n/a	FR1	1	R1172E
1069.971	1.616	1078430	WORD	n/a	wordpools/wordpool_EN.txt	CLOUD	11	8	[0, 0, 0]	n/a	FR1	1	R1172E
1071.587	0.934	1080046	WORD_OFF	n/a	n/a	CLOUD	11	8	[0, 0, 0]	n/a	FR1	1	R1172E
1072.521	1.618	1080980	WORD	n/a	wordpools/wordpool_EN.txt	HAWK	12	8	[0, 0, 0]	n/a	FR1	1	R1172E
1074.139	0.0	1082598	WORD_OFF	n/a	n/a	HAWK	12	8	[0, 0, 0]	n/a	FR1	1	R1172E
1074.139	0.0	1082598	DISTRACT_START	n/a	n/a	n/a	-999	8	[0, 0, 0]	n/a	FR1	1	R1172E
1074.139	0.016	1082598	START	n/a	n/a	n/a	-999	8	[-999, -999, -999]	n/a	FR1	1	R1172E
1074.155	5.801	1082614	PROB	5.801	n/a	n/a	-999	8	[2, 5, 7]	14	FR1	1	R1172E
1079.956	6.051	1088415	PROB	6.051	n/a	n/a	-999	8	[9, 4, 2]	15	FR1	1	R1172E
1086.007	6.885	1094466	PROB	6.885	n/a	n/a	-999	8	[3, 2, 6]	11	FR1	1	R1172E
1092.892	9.163	1101350	PROB	9.163	n/a	n/a	-999	8	[9, 8, 8]	25	FR1	1	R1172E
1102.055	0.022	1110513	STOP	n/a	n/a	n/a	-999	8	[-999, -999, -999]	n/a	FR1	1	R1172E
1102.077	0.683	1110535	DISTRACT_END	n/a	n/a	n/a	-999	8	[0, 0, 0]	n/a	FR1	1	R1172E
1102.76	0.518	1111218	RETRIEVAL_ORIENT	n/a	n/a	n/a	-999	8	[0, 0, 0]	n/a	FR1	1	R1172E
1103.278	1.661	1111736	REC_START	n/a	n/a	n/a	-999	8	[0, 0, 0]	n/a	FR1	1	R1172E
1104.939	2.025	1113397	REC_WORD	2.025	n/a	FARM	-999	8	[0, 0, 0]	n/a	FR1	1	R1172E
1106.964	2.592	1115422	REC_WORD	2.592	n/a	GOAT	-999	8	[0, 0, 0]	n/a	FR1	1	R1172E
1109.556	23.732	1118014	REC_WORD	23.732	n/a	MOOSE	-999	8	[0, 0, 0]	n/a	FR1	1	R1172E
1133.288	7.913	1141745	REC_END	n/a	n/a	n/a	-999	8	[0, 0, 0]	n/a	FR1	1	R1172E
1141.201	0.5	1149657	TRIAL	n/a	n/a	n/a	-999	9	[0, 0, 0]	n/a	FR1	1	R1172E
1141.701	10.428	1150157	COUNTDOWN_START	n/a	n/a	n/a	-999	9	[0, 0, 0]	n/a	FR1	1	R1172E
1152.129	0.007	1160585	COUNTDOWN_END	n/a	n/a	n/a	-999	9	[0, 0, 0]	n/a	FR1	1	R1172E
1152.136	1.617	1160592	ORIENT	n/a	n/a	n/a	-999	9	[0, 0, 0]	n/a	FR1	1	R1172E
1153.753	1.933	1162209	ORIENT_OFF	n/a	n/a	n/a	-999	9	[0, 0, 0]	n/a	FR1	1	R1172E
1155.686	1.616	1164142	WORD	n/a	wordpools/wordpool_EN.txt	ROSE	1	9	[0, 0, 0]	n/a	FR1	1	R1172E
1157.302	0.935	1165758	WORD_OFF	n/a	n/a	ROSE	1	9	[0, 0, 0]	n/a	FR1	1	R1172E
1158.237	1.617	1166693	WORD	n/a	wordpools/wordpool_EN.txt	WOLF	2	9	[0, 0, 0]	n/a	FR1	1	R1172E
1159.854	0.883	1168310	WORD_OFF	n/a	n/a	WOLF	2	9	[0, 0, 0]	n/a	FR1	1	R1172E
1160.737	1.616	1169193	WORD	n/a	wordpools/wordpool_EN.txt	MULE	3	9	[0, 0, 0]	n/a	FR1	1	R1172E
1162.353	0.801	1170809	WORD_OFF	n/a	n/a	MULE	3	9	[0, 0, 0]	n/a	FR1	1	R1172E
1163.154	1.617	1171610	WORD	n/a	wordpools/wordpool_EN.txt	SPRING	4	9	[0, 0, 0]	n/a	FR1	1	R1172E
1164.771	0.934	1173226	WORD_OFF	n/a	n/a	SPRING	4	9	[0, 0, 0]	n/a	FR1	1	R1172E
1165.705	1.616	1174160	WORD	n/a	wordpools/wordpool_EN.txt	ROPE	5	9	[0, 0, 0]	n/a	FR1	1	R1172E
1167.321	0.818	1175776	WORD_OFF	n/a	n/a	ROPE	5	9	[0, 0, 0]	n/a	FR1	1	R1172E
1168.139	1.617	1176594	WORD	n/a	wordpools/wordpool_EN.txt	SWAMP	6	9	[0, 0, 0]	n/a	FR1	1	R1172E
1169.756	0.9	1178211	WORD_OFF	n/a	n/a	SWAMP	6	9	[0, 0, 0]	n/a	FR1	1	R1172E
1170.656	1.617	1179111	WORD	n/a	wordpools/wordpool_EN.txt	TAIL	7	9	[0, 0, 0]	n/a	FR1	1	R1172E
1172.273	0.85	1180728	WORD_OFF	n/a	n/a	TAIL	7	9	[0, 0, 0]	n/a	FR1	1	R1172E
1173.123	1.617	1181578	WORD	n/a	wordpools/wordpool_EN.txt	WAND	8	9	[0, 0, 0]	n/a	FR1	1	R1172E
1174.74	0.95	1183195	WORD_OFF	n/a	n/a	WAND	8	9	[0, 0, 0]	n/a	FR1	1	R1172E
1175.69	1.616	1184145	WORD	n/a	wordpools/wordpool_EN.txt	BUSH	9	9	[0, 0, 0]	n/a	FR1	1	R1172E
1177.306	0.951	1185761	WORD_OFF	n/a	n/a	BUSH	9	9	[0, 0, 0]	n/a	FR1	1	R1172E
1178.257	1.617	1186712	WORD	n/a	wordpools/wordpool_EN.txt	CALF	10	9	[0, 0, 0]	n/a	FR1	1	R1172E
1179.874	0.917	1188329	WORD_OFF	n/a	n/a	CALF	10	9	[0, 0, 0]	n/a	FR1	1	R1172E
1180.791	1.616	1189246	WORD	n/a	wordpools/wordpool_EN.txt	DITCH	11	9	[0, 0, 0]	n/a	FR1	1	R1172E
1182.407	0.851	1190862	WORD_OFF	n/a	n/a	DITCH	11	9	[0, 0, 0]	n/a	FR1	1	R1172E
1183.258	1.617	1191713	WORD	n/a	wordpools/wordpool_EN.txt	SKUNK	12	9	[0, 0, 0]	n/a	FR1	1	R1172E
1184.875	0.0	1193330	WORD_OFF	n/a	n/a	SKUNK	12	9	[0, 0, 0]	n/a	FR1	1	R1172E
1184.875	0.0	1193330	DISTRACT_START	n/a	n/a	n/a	-999	9	[0, 0, 0]	n/a	FR1	1	R1172E
1184.875	0.017	1193330	START	n/a	n/a	n/a	-999	9	[-999, -999, -999]	n/a	FR1	1	R1172E
1184.892	5.0	1193347	PROB	5.0	n/a	n/a	-999	9	[7, 2, 7]	16	FR1	1	R1172E
1189.892	9.886	1198346	PROB	9.886	n/a	n/a	-999	9	[4, 6, 4]	14	FR1	1	R1172E
1199.778	5.165	1208232	PROB	5.165	n/a	n/a	-999	9	[1, 8, 9]	18	FR1	1	R1172E
1204.943	0.019	1213397	STOP	n/a	n/a	n/a	-999	9	[-999, -999, -999]	n/a	FR1	1	R1172E
1204.962	0.683	1213416	DISTRACT_END	n/a	n/a	n/a	-999	9	[0, 0, 0]	n/a	FR1	1	R1172E
1205.645	0.518	1214099	RETRIEVAL_ORIENT	n/a	n/a	n/a	-999	9	[0, 0, 0]	n/a	FR1	1	R1172E
1206.163	1.639	1214617	REC_START	n/a	n/a	n/a	-999	9	[0, 0, 0]	n/a	FR1	1	R1172E
1207.802	8.906	1216256	REC_WORD	8.906	n/a	SKUNK	-999	9	[0, 0, 0]	n/a	FR1	1	R1172E
1216.708	19.465	1225161	REC_WORD	19.465	n/a	MOOSE	-999	9	[0, 0, 0]	n/a	FR1	1	R1172E
1236.173	46.686	1244626	REC_END	n/a	n/a	n/a	-999	9	[0, 0, 0]	n/a	FR1	1	R1172E
1282.859	0.5	1291310	TRIAL	n/a	n/a	n/a	-999	10	[0, 0, 0]	n/a	FR1	1	R1172E
1283.359	10.428	1291810	COUNTDOWN_START	n/a	n/a	n/a	-999	10	[0, 0, 0]	n/a	FR1	1	R1172E
1293.787	0.007	1302237	COUNTDOWN_END	n/a	n/a	n/a	-999	10	[0, 0, 0]	n/a	FR1	1	R1172E
1293.794	1.616	1302244	ORIENT	n/a	n/a	n/a	-999	10	[0, 0, 0]	n/a	FR1	1	R1172E
1295.41	2.368	1303860	ORIENT_OFF	n/a	n/a	n/a	-999	10	[0, 0, 0]	n/a	FR1	1	R1172E
1297.778	1.616	1306228	WORD	n/a	wordpools/wordpool_EN.txt	WOOD	1	10	[0, 0, 0]	n/a	FR1	1	R1172E
1299.394	0.983	1307844	WORD_OFF	n/a	n/a	WOOD	1	10	[0, 0, 0]	n/a	FR1	1	R1172E
1300.377	1.602	1308827	WORD	n/a	wordpools/wordpool_EN.txt	SIGN	2	10	[0, 0, 0]	n/a	FR1	1	R1172E
1301.979	0.8	1310429	WORD_OFF	n/a	n/a	SIGN	2	10	[0, 0, 0]	n/a	FR1	1	R1172E
1302.779	1.616	1311229	WORD	n/a	wordpools/wordpool_EN.txt	PEACH	3	10	[0, 0, 0]	n/a	FR1	1	R1172E
1304.395	0.784	1312845	WORD_OFF	n/a	n/a	PEACH	3	10	[0, 0, 0]	n/a	FR1	1	R1172E
1305.179	1.617	1313629	WORD	n/a	wordpools/wordpool_EN.txt	HORN	4	10	[0, 0, 0]	n/a	FR1	1	R1172E
1306.796	0.883	1315246	WORD_OFF	n/a	n/a	HORN	4	10	[0, 0, 0]	n/a	FR1	1	R1172E
1307.679	1.617	1316129	WORD	n/a	wordpools/wordpool_EN.txt	MOOSE	5	10	[0, 0, 0]	n/a	FR1	1	R1172E
1309.296	0.851	1317746	WORD_OFF	n/a	n/a	MOOSE	5	10	[0, 0, 0]	n/a	FR1	1	R1172E
1310.147	1.617	1318597	WORD	n/a	wordpools/wordpool_EN.txt	FENCE	6	10	[0, 0, 0]	n/a	FR1	1	R1172E
1311.764	0.782	1320213	WORD_OFF	n/a	n/a	FENCE	6	10	[0, 0, 0]	n/a	FR1	1	R1172E
1312.546	1.618	1320995	WORD	n/a	wordpools/wordpool_EN.txt	OAK	7	10	[0, 0, 0]	n/a	FR1	1	R1172E
1314.164	0.967	1322613	WORD_OFF	n/a	n/a	OAK	7	10	[0, 0, 0]	n/a	FR1	1	R1172E
1315.131	1.617	1323580	WORD	n/a	wordpools/wordpool_EN.txt	STEAK	8	10	[0, 0, 0]	n/a	FR1	1	R1172E
1316.748	0.984	1325197	WORD_OFF	n/a	n/a	STEAK	8	10	[0, 0, 0]	n/a	FR1	1	R1172E
1317.732	1.616	1326181	WORD	n/a	wordpools/wordpool_EN.txt	CLOTH	9	10	[0, 0, 0]	n/a	FR1	1	R1172E
1319.348	0.801	1327797	WORD_OFF	n/a	n/a	CLOTH	9	10	[0, 0, 0]	n/a	FR1	1	R1172E
1320.149	1.617	1328598	WORD	n/a	wordpools/wordpool_EN.txt	GRASS	10	10	[0, 0, 0]	n/a	FR1	1	R1172E
1321.766	0.917	1330215	WORD_OFF	n/a	n/a	GRASS	10	10	[0, 0, 0]	n/a	FR1	1	R1172E
1322.683	1.615	1331132	WORD	n/a	wordpools/wordpool_EN.txt	PIE	11	10	[0, 0, 0]	n/a	FR1	1	R1172E
1324.298	0.785	1332747	WORD_OFF	n/a	n/a	PIE	11	10	[0, 0, 0]	n/a	FR1	1	R1172E
1325.083	1.617	1333532	WORD	n/a	wordpools/wordpool_EN.txt	BATH	12	10	[0, 0, 0]	n/a	FR1	1	R1172E
1326.7	0.0	1335149	WORD_OFF	n/a	n/a	BATH	12	10	[0, 0, 0]	n/a	FR1	1	R1172E
1326.7	0.0	1335149	DISTRACT_START	n/a	n/a	n/a	-999	10	[0, 0, 0]	n/a	FR1	1	R1172E
1326.7	0.016	1335149	START	n/a	n/a	n/a	-999	10	[-999, -999, -999]	n/a	FR1	1	R1172E
1326.716	8.285	1335165	PROB	8.285	n/a	n/a	-999	10	[3, 8, 5]	16	FR1	1	R1172E
1335.001	5.185	1343450	PROB	5.185	n/a	n/a	-999	10	[5, 4, 2]	11	FR1	1	R1172E
1340.186	11.046	1348634	PROB	11.046	n/a	n/a	-999	10	[5, 3, 6]	17	FR1	1	R1172E
1351.232	0.022	1359680	STOP	n/a	n/a	n/a	-999	10	[-999, -999, -999]	n/a	FR1	1	R1172E
1351.254	0.517	1359702	DISTRACT_END	n/a	n/a	n/a	-999	10	[0, 0, 0]	n/a	FR1	1	R1172E
1351.771	0.516	1360219	RETRIEVAL_ORIENT	n/a	n/a	n/a	-999	10	[0, 0, 0]	n/a	FR1	1	R1172E
1352.287	3.11	1360735	REC_START	n/a	n/a	n/a	-999	10	[0, 0, 0]	n/a	FR1	1	R1172E
1355.397	2.588	1363845	REC_WORD	2.588	n/a	WOOD	-999	10	[0, 0, 0]	n/a	FR1	1	R1172E
1357.985	7.645	1366433	REC_WORD	7.645	n/a	SIGN	-999	10	[0, 0, 0]	n/a	FR1	1	R1172E
1365.63	1.631	1374077	REC_WORD	1.631	n/a	MOOSE	-999	10	[0, 0, 0]	n/a	FR1	1	R1172E
1367.261	15.042	1375708	REC_WORD	15.042	n/a	FENCE	-999	10	[0, 0, 0]	n/a	FR1	1	R1172E
1382.303	8.107	1390750	REC_END	n/a	n/a	n/a	-999	10	[0, 0, 0]	n/a	FR1	1	R1172E
1390.41	0.5	1398856	TRIAL	n/a	n/a	n/a	-999	11	[0, 0, 0]	n/a	FR1	1	R1172E
1390.91	10.428	1399356	COUNTDOWN_START	n/a	n/a	n/a	-999	11	[0, 0, 0]	n/a	FR1	1	R1172E
1401.338	0.007	1409784	COUNTDOWN_END	n/a	n/a	n/a	-999	11	[0, 0, 0]	n/a	FR1	1	R1172E
1401.345	1.618	1409791	ORIENT	n/a	n/a	n/a	-999	11	[0, 0, 0]	n/a	FR1	1	R1172E
1402.963	2.333	1411409	ORIENT_OFF	n/a	n/a	n/a	-999	11	[0, 0, 0]	n/a	FR1	1	R1172E
1405.296	1.618	1413742	WORD	n/a	wordpools/wordpool_EN.txt	STOVE	1	11	[0, 0, 0]	n/a	FR1	1	R1172E
1406.914	0.767	1415360	WORD_OFF	n/a	n/a	STOVE	1	11	[0, 0, 0]	n/a	FR1	1	R1172E
1407.681	1.616	1416127	WORD	n/a	wordpools/wordpool_EN.txt	OAR	2	11	[0, 0, 0]	n/a	FR1	1	R1172E
1409.297	1.017	1417742	WORD_OFF	n/a	n/a	OAR	2	11	[0, 0, 0]	n/a	FR1	1	R1172E
1410.314	1.617	1418759	WORD	n/a	wordpools/wordpool_EN.txt	BOWL	3	11	[0, 0, 0]	n/a	FR1	1	R1172E
1411.931	0.767	1420376	WORD_OFF	n/a	n/a	BOWL	3	11	[0, 0, 0]	n/a	FR1	1	R1172E
1412.698	1.616	1421143	WORD	n/a	wordpools/wordpool_EN.txt	DESK	4	11	[0, 0, 0]	n/a	FR1	1	R1172E
1414.314	0.801	1422759	WORD_OFF	n/a	n/a	DESK	4	11	[0, 0, 0]	n/a	FR1	1	R1172E
1415.115	1.617	1423560	WORD	n/a	wordpools/wordpool_EN.txt	LAMB	5	11	[0, 0, 0]	n/a	FR1	1	R1172E
1416.732	0.95	1425177	WORD_OFF	n/a	n/a	LAMB	5	11	[0, 0, 0]	n/a	FR1	1	R1172E
1417.682	1.616	1426127	WORD	n/a	wordpools/wordpool_EN.txt	PHONE	6	11	[0, 0, 0]	n/a	FR1	1	R1172E
1419.298	0.918	1427743	WORD_OFF	n/a	n/a	PHONE	6	11	[0, 0, 0]	n/a	FR1	1	R1172E
1420.216	1.617	1428661	WORD	n/a	wordpools/wordpool_EN.txt	BRUSH	7	11	[0, 0, 0]	n/a	FR1	1	R1172E
1421.833	0.983	1430278	WORD_OFF	n/a	n/a	BRUSH	7	11	[0, 0, 0]	n/a	FR1	1	R1172E
1422.816	1.617	1431261	WORD	n/a	wordpools/wordpool_EN.txt	TOE	8	11	[0, 0, 0]	n/a	FR1	1	R1172E
1424.433	0.784	1432878	WORD_OFF	n/a	n/a	TOE	8	11	[0, 0, 0]	n/a	FR1	1	R1172E
1425.217	1.617	1433662	WORD	n/a	wordpools/wordpool_EN.txt	INK	9	11	[0, 0, 0]	n/a	FR1	1	R1172E
1426.834	0.934	1435279	WORD_OFF	n/a	n/a	INK	9	11	[0, 0, 0]	n/a	FR1	1	R1172E
1427.768	1.616	1436213	WORD	n/a	wordpools/wordpool_EN.txt	STICK	10	11	[0, 0, 0]	n/a	FR1	1	R1172E
1429.384	0.834	1437829	WORD_OFF	n/a	n/a	STICK	10	11	[0, 0, 0]	n/a	FR1	1	R1172E
1430.218	1.617	1438663	WORD	n/a	wordpools/wordpool_EN.txt	SMILE	11	11	[0, 0, 0]	n/a	FR1	1	R1172E
1431.835	0.834	1440280	WORD_OFF	n/a	n/a	SMILE	11	11	[0, 0, 0]	n/a	FR1	1	R1172E
1432.669	1.616	1441114	WORD	n/a	wordpools/wordpool_EN.txt	FOAM	12	11	[0, 0, 0]	n/a	FR1	1	R1172E
1434.285	0.0	1442729	WORD_OFF	n/a	n/a	FOAM	12	11	[0, 0, 0]	n/a	FR1	1	R1172E
1434.285	0.001	1442729	DISTRACT_START	n/a	n/a	n/a	-999	11	[0, 0, 0]	n/a	FR1	1	R1172E
1434.286	0.015	1442730	START	n/a	n/a	n/a	-999	11	[-999, -999, -999]	n/a	FR1	1	R1172E
1434.301	6.636	1442745	PROB	6.636	n/a	n/a	-999	11	[1, 2, 8]	11	FR1	1	R1172E
1440.937	9.617	1449381	PROB	9.617	n/a	n/a	-999	11	[4, 4, 6]	14	FR1	1	R1172E
1450.554	9.15	1458998	PROB	9.15	n/a	n/a	-999	11	[7, 8, 4]	19	FR1	1	R1172E
1459.704	0.019	1468147	STOP	n/a	n/a	n/a	-999	11	[-999, -999, -999]	n/a	FR1	1	R1172E
1459.723	0.534	1468166	DISTRACT_END	n/a	n/a	n/a	-999	11	[0, 0, 0]	n/a	FR1	1	R1172E
1460.257	0.517	1468700	RETRIEVAL_ORIENT	n/a	n/a	n/a	-999	11	[0, 0, 0]	n/a	FR1	1	R1172E
1460.774	2.3	1469217	REC_START	n/a	n/a	n/a	-999	11	[0, 0, 0]	n/a	FR1	1	R1172E
1463.074	2.421	1471517	REC_WORD	2.421	n/a	STOVE	-999	11	[0, 0, 0]	n/a	FR1	1	R1172E
1465.495	1.952	1473938	REC_WORD	1.952	n/a	WALL	-999	11	[0, 0, 0]	n/a	FR1	1	R1172E
1467.447	3.851	1475890	REC_WORD	3.851	n/a	OAR	-999	11	[0, 0, 0]	n/a	FR1	1	R1172E
1471.298	6.102	1479741	REC_WORD	6.102	n/a	INK	-999	11	[0, 0, 0]	n/a	FR1	1	R1172E
1477.4	1.515	1485843	REC_WORD_VV	1.515	n/a	<>	-999	11	[0, 0, 0]	n/a	FR1	1	R1172E
1478.915	1.053	1487358	REC_WORD	1.053	n/a	STOVE	-999	11	[0, 0, 0]	n/a	FR1	1	R1172E
1479.968	10.816	1488411	REC_WORD_VV	10.816	n/a	<>	-999	11	[0, 0, 0]	n/a	FR1	1	R1172E
1490.784	8.795	1499226	REC_END	n/a	n/a	n/a	-999	11	[0, 0, 0]	n/a	FR1	1	R1172E
1499.579	0.5	1508021	TRIAL	n/a	n/a	n/a	-999	12	[0, 0, 0]	n/a	FR1	1	R1172E
1500.079	10.428	1508521	COUNTDOWN_START	n/a	n/a	n/a	-999	12	[0, 0, 0]	n/a	FR1	1	R1172E
1510.507	0.007	1518948	COUNTDOWN_END	n/a	n/a	n/a	-999	12	[0, 0, 0]	n/a	FR1	1	R1172E
1510.514	1.601	1518955	ORIENT	n/a	n/a	n/a	-999	12	[0, 0, 0]	n/a	FR1	1	R1172E
1512.115	1.984	1520556	ORIENT_OFF	n/a	n/a	n/a	-999	12	[0, 0, 0]	n/a	FR1	1	R1172E
1514.099	1.617	1522540	WORD	n/a	wordpools/wordpool_EN.txt	FLEA	1	12	[0, 0, 0]	n/a	FR1	1	R1172E
1515.716	1.001	1524157	WORD_OFF	n/a	n/a	FLEA	1	12	[0, 0, 0]	n/a	FR1	1	R1172E
1516.717	1.616	1525158	WORD	n/a	wordpools/wordpool_EN.txt	SNAKE	2	12	[0, 0, 0]	n/a	FR1	1	R1172E
1518.333	0.901	1526774	WORD_OFF	n/a	n/a	SNAKE	2	12	[0, 0, 0]	n/a	FR1	1	R1172E
1519.234	1.617	1527675	WORD	n/a	wordpools/wordpool_EN.txt	PIG	3	12	[0, 0, 0]	n/a	FR1	1	R1172E
1520.851	0.85	1529292	WORD_OFF	n/a	n/a	PIG	3	12	[0, 0, 0]	n/a	FR1	1	R1172E
1521.701	1.615	1530142	WORD	n/a	wordpools/wordpool_EN.txt	FOX	4	12	[0, 0, 0]	n/a	FR1	1	R1172E
1523.316	0.935	1531757	WORD_OFF	n/a	n/a	FOX	4	12	[0, 0, 0]	n/a	FR1	1	R1172E
1524.251	1.617	1532692	WORD	n/a	wordpools/wordpool_EN.txt	PEN	5	12	[0, 0, 0]	n/a	FR1	1	R1172E
1525.868	0.784	1534309	WORD_OFF	n/a	n/a	PEN	5	12	[0, 0, 0]	n/a	FR1	1	R1172E
1526.652	1.617	1535093	WORD	n/a	wordpools/wordpool_EN.txt	DEER	6	12	[0, 0, 0]	n/a	FR1	1	R1172E
1528.269	0.766	1536710	WORD_OFF	n/a	n/a	DEER	6	12	[0, 0, 0]	n/a	FR1	1	R1172E
1529.035	1.617	1537476	WORD	n/a	wordpools/wordpool_EN.txt	KITE	7	12	[0, 0, 0]	n/a	FR1	1	R1172E
1530.652	0.95	1539093	WORD_OFF	n/a	n/a	KITE	7	12	[0, 0, 0]	n/a	FR1	1	R1172E
1531.602	1.617	1540042	WORD	n/a	wordpools/wordpool_EN.txt	COW	8	12	[0, 0, 0]	n/a	FR1	1	R1172E
1533.219	0.934	1541659	WORD_OFF	n/a	n/a	COW	8	12	[0, 0, 0]	n/a	FR1	1	R1172E
1534.153	1.617	1542593	WORD	n/a	wordpools/wordpool_EN.txt	HAT	9	12	[0, 0, 0]	n/a	FR1	1	R1172E
1535.77	0.832	1544210	WORD_OFF	n/a	n/a	HAT	9	12	[0, 0, 0]	n/a	FR1	1	R1172E
1536.602	1.618	1545042	WORD	n/a	wordpools/wordpool_EN.txt	SOCK	10	12	[0, 0, 0]	n/a	FR1	1	R1172E
1538.22	1.0	1546660	WORD_OFF	n/a	n/a	SOCK	10	12	[0, 0, 0]	n/a	FR1	1	R1172E
1539.22	1.618	1547660	WORD	n/a	wordpools/wordpool_EN.txt	BEAR	11	12	[0, 0, 0]	n/a	FR1	1	R1172E
1540.838	0.95	1549278	WORD_OFF	n/a	n/a	BEAR	11	12	[0, 0, 0]	n/a	FR1	1	R1172E
1541.788	1.616	1550228	WORD	n/a	wordpools/wordpool_EN.txt	BIRD	12	12	[0, 0, 0]	n/a	FR1	1	R1172E
1543.404	0.0	1551844	WORD_OFF	n/a	n/a	BIRD	12	12	[0, 0, 0]	n/a	FR1	1	R1172E
1543.404	0.0	1551844	DISTRACT_START	n/a	n/a	n/a	-999	12	[0, 0, 0]	n/a	FR1	1	R1172E
1543.404	0.016	1551844	START	n/a	n/a	n/a	-999	12	[-999, -999, -999]	n/a	FR1	1	R1172E
1543.42	7.719	1551860	PROB	7.719	n/a	n/a	-999	12	[3, 6, 2]	11	FR1	1	R1172E
1551.139	3.801	1559579	PROB	3.801	n/a	n/a	-999	12	[1, 2, 9]	12	FR1	1	R1172E
1554.94	6.918	1563380	PROB	6.918	n/a	n/a	-999	12	[3, 3, 8]	14	FR1	1	R1172E
1561.858	6.493	1570297	PROB	6.493	n/a	n/a	-999	12	[9, 6, 2]	17	FR1	1	R1172E
1568.351	0.007	1576790	STOP	n/a	n/a	n/a	-999	12	[-999, -999, -999]	n/a	FR1	1	R1172E
1568.358	0.701	1576797	DISTRACT_END	n/a	n/a	n/a	-999	12	[0, 0, 0]	n/a	FR1	1	R1172E
1569.059	0.517	1577498	RETRIEVAL_ORIENT	n/a	n/a	n/a	-999	12	[0, 0, 0]	n/a	FR1	1	R1172E
1569.576	8.5	1578015	REC_START	n/a	n/a	n/a	-999	12	[0, 0, 0]	n/a	FR1	1	R1172E
1578.076	21.511	1586515	REC_WORD	21.511	n/a	DEER	-999	12	[0, 0, 0]	n/a	FR1	1	R1172E
1599.587	86.808	1608025	REC_END	n/a	n/a	n/a	-999	12	[0, 0, 0]	n/a	FR1	1	R1172E
1686.395	0.5	1694829	TRIAL	n/a	n/a	n/a	-999	13	[0, 0, 0]	n/a	FR1	1	R1172E
1686.895	10.428	1695329	COUNTDOWN_START	n/a	n/a	n/a	-999	13	[0, 0, 0]	n/a	FR1	1	R1172E
1697.323	0.008	1705757	COUNTDOWN_END	n/a	n/a	n/a	-999	13	[0, 0, 0]	n/a	FR1	1	R1172E
1697.331	1.618	1705765	ORIENT	n/a	n/a	n/a	-999	13	[0, 0, 0]	n/a	FR1	1	R1172E
1698.949	2.033	1707383	ORIENT_OFF	n/a	n/a	n/a	-999	13	[0, 0, 0]	n/a	FR1	1	R1172E
1700.982	1.616	1709416	WORD	n/a	wordpools/wordpool_EN.txt	GOLD	1	13	[0, 0, 0]	n/a	FR1	1	R1172E
1702.598	0.934	1711031	WORD_OFF	n/a	n/a	GOLD	1	13	[0, 0, 0]	n/a	FR1	1	R1172E
1703.532	1.618	1711965	WORD	n/a	wordpools/wordpool_EN.txt	SLUSH	2	13	[0, 0, 0]	n/a	FR1	1	R1172E
1705.15	0.933	1713583	WORD_OFF	n/a	n/a	SLUSH	2	13	[0, 0, 0]	n/a	FR1	1	R1172E
1706.083	1.617	1714516	WORD	n/a	wordpools/wordpool_EN.txt	DOLL	3	13	[0, 0, 0]	n/a	FR1	1	R1172E
1707.7	0.917	1716133	WORD_OFF	n/a	n/a	DOLL	3	13	[0, 0, 0]	n/a	FR1	1	R1172E
1708.617	1.617	1717050	WORD	n/a	wordpools/wordpool_EN.txt	JUICE	4	13	[0, 0, 0]	n/a	FR1	1	R1172E
1710.234	0.867	1718667	WORD_OFF	n/a	n/a	JUICE	4	13	[0, 0, 0]	n/a	FR1	1	R1172E
1711.101	1.617	1719534	WORD	n/a	wordpools/wordpool_EN.txt	WORM	5	13	[0, 0, 0]	n/a	FR1	1	R1172E
1712.718	0.816	1721151	WORD_OFF	n/a	n/a	WORM	5	13	[0, 0, 0]	n/a	FR1	1	R1172E
1713.534	1.617	1721967	WORD	n/a	wordpools/wordpool_EN.txt	ROOM	6	13	[0, 0, 0]	n/a	FR1	1	R1172E
1715.151	0.917	1723584	WORD_OFF	n/a	n/a	ROOM	6	13	[0, 0, 0]	n/a	FR1	1	R1172E
1716.068	1.617	1724501	WORD	n/a	wordpools/wordpool_EN.txt	BREAD	7	13	[0, 0, 0]	n/a	FR1	1	R1172E
1717.685	0.766	1726118	WORD_OFF	n/a	n/a	BREAD	7	13	[0, 0, 0]	n/a	FR1	1	R1172E
1718.451	1.618	1726884	WORD	n/a	wordpools/wordpool_EN.txt	CROWN	8	13	[0, 0, 0]	n/a	FR1	1	R1172E
1720.069	0.95	1728502	WORD_OFF	n/a	n/a	CROWN	8	13	[0, 0, 0]	n/a	FR1	1	R1172E
1721.019	1.617	1729452	WORD	n/a	wordpools/wordpool_EN.txt	MOUTH	9	13	[0, 0, 0]	n/a	FR1	1	R1172E
1722.636	0.866	1731069	WORD_OFF	n/a	n/a	MOUTH	9	13	[0, 0, 0]	n/a	FR1	1	R1172E
1723.502	1.601	1731935	WORD	n/a	wordpools/wordpool_EN.txt	THREAD	10	13	[0, 0, 0]	n/a	FR1	1	R1172E
1725.103	0.934	1733536	WORD_OFF	n/a	n/a	THREAD	10	13	[0, 0, 0]	n/a	FR1	1	R1172E
1726.037	1.617	1734470	WORD	n/a	wordpools/wordpool_EN.txt	SALT	11	13	[0, 0, 0]	n/a	FR1	1	R1172E
1727.654	0.882	1736086	WORD_OFF	n/a	n/a	SALT	11	13	[0, 0, 0]	n/a	FR1	1	R1172E
1728.536	1.618	1736968	WORD	n/a	wordpools/wordpool_EN.txt	VASE	12	13	[0, 0, 0]	n/a	FR1	1	R1172E
1730.154	0.0	1738586	WORD_OFF	n/a	n/a	VASE	12	13	[0, 0, 0]	n/a	FR1	1	R1172E
1730.154	0.001	1738586	DISTRACT_START	n/a	n/a	n/a	-999	13	[0, 0, 0]	n/a	FR1	1	R1172E
1730.155	0.016	1738587	START	n/a	n/a	n/a	-999	13	[-999, -999, -999]	n/a	FR1	1	R1172E
1730.171	12.669	1738603	PROB	12.669	n/a	n/a	-999	13	[6, 4, 6]	16	FR1	1	R1172E
1742.84	5.533	1751272	PROB	5.533	n/a	n/a	-999	13	[4, 7, 2]	13	FR1	1	R1172E
1748.373	7.664	1756805	PROB	7.664	n/a	n/a	-999	13	[8, 3, 7]	18	FR1	1	R1172E
1756.037	0.022	1764468	STOP	n/a	n/a	n/a	-999	13	[-999, -999, -999]	n/a	FR1	1	R1172E
1756.059	0.583	1764490	DISTRACT_END	n/a	n/a	n/a	-999	13	[0, 0, 0]	n/a	FR1	1	R1172E
1756.642	0.518	1765073	RETRIEVAL_ORIENT	n/a	n/a	n/a	-999	13	[0, 0, 0]	n/a	FR1	1	R1172E
1757.16	2.592	1765591	REC_START	n/a	n/a	n/a	-999	13	[0, 0, 0]	n/a	FR1	1	R1172E
1759.752	1.791	1768183	REC_WORD	1.791	n/a	TRACK	-999	13	[0, 0, 0]	n/a	FR1	1	R1172E
1761.543	11.618	1769974	REC_WORD	11.618	n/a	GOOSE	-999	13	[0, 0, 0]	n/a	FR1	1	R1172E
1773.161	2.386	1781592	REC_WORD	2.386	n/a	VENT	-999	13	[0, 0, 0]	n/a	FR1	1	R1172E
1775.547	11.624	1783978	REC_WORD	11.624	n/a	TOOTH	-999	13	[0, 0, 0]	n/a	FR1	1	R1172E
1787.171	72.923	1795601	REC_END	n/a	n/a	n/a	-999	13	[0, 0, 0]	n/a	FR1	1	R1172E
1860.094	0.5	1868521	TRIAL	n/a	n/a	n/a	-999	14	[0, 0, 0]	n/a	FR1	1	R1172E
1860.594	10.428	1869021	COUNTDOWN_START	n/a	n/a	n/a	-999	14	[0, 0, 0]	n/a	FR1	1	R1172E
1871.022	0.007	1879449	COUNTDOWN_END	n/a	n/a	n/a	-999	14	[0, 0, 0]	n/a	FR1	1	R1172E
1871.029	1.617	1879456	ORIENT	n/a	n/a	n/a	-999	14	[0, 0, 0]	n/a	FR1	1	R1172E
1872.646	2.184	1881073	ORIENT_OFF	n/a	n/a	n/a	-999	14	[0, 0, 0]	n/a	FR1	1	R1172E
1874.83	1.616	1883256	WORD	n/a	wordpools/wordpool_EN.txt	HOOF	1	14	[0, 0, 0]	n/a	FR1	1	R1172E
1876.446	0.933	1884872	WORD_OFF	n/a	n/a	HOOF	1	14	[0, 0, 0]	n/a	FR1	1	R1172E
1877.379	1.618	1885805	WORD	n/a	wordpools/wordpool_EN.txt	MILK	2	14	[0, 0, 0]	n/a	FR1	1	R1172E
1878.997	1.0	1887423	WORD_OFF	n/a	n/a	MILK	2	14	[0, 0, 0]	n/a	FR1	1	R1172E
1879.997	1.617	1888423	WORD	n/a	wordpools/wordpool_EN.txt	CORN	3	14	[0, 0, 0]	n/a	FR1	1	R1172E
1881.614	0.899	1890040	WORD_OFF	n/a	n/a	CORN	3	14	[0, 0, 0]	n/a	FR1	1	R1172E
1882.513	1.601	1890939	WORD	n/a	wordpools/wordpool_EN.txt	SHRIMP	4	14	[0, 0, 0]	n/a	FR1	1	R1172E
1884.114	0.984	1892540	WORD_OFF	n/a	n/a	SHRIMP	4	14	[0, 0, 0]	n/a	FR1	1	R1172E
1885.098	1.617	1893524	WORD	n/a	wordpools/wordpool_EN.txt	ROOT	5	14	[0, 0, 0]	n/a	FR1	1	R1172E
1886.715	0.783	1895141	WORD_OFF	n/a	n/a	ROOT	5	14	[0, 0, 0]	n/a	FR1	1	R1172E
1887.498	1.618	1895924	WORD	n/a	wordpools/wordpool_EN.txt	SHELL	6	14	[0, 0, 0]	n/a	FR1	1	R1172E
1889.116	0.866	1897542	WORD_OFF	n/a	n/a	SHELL	6	14	[0, 0, 0]	n/a	FR1	1	R1172E
1889.982	1.616	1898408	WORD	n/a	wordpools/wordpool_EN.txt	LEAF	7	14	[0, 0, 0]	n/a	FR1	1	R1172E
1891.598	0.967	1900024	WORD_OFF	n/a	n/a	LEAF	7	14	[0, 0, 0]	n/a	FR1	1	R1172E
1892.565	1.601	1900991	WORD	n/a	wordpools/wordpool_EN.txt	ANT	8	14	[0, 0, 0]	n/a	FR1	1	R1172E
1894.166	0.851	1902592	WORD_OFF	n/a	n/a	ANT	8	14	[0, 0, 0]	n/a	FR1	1	R1172E
1895.017	1.616	1903443	WORD	n/a	wordpools/wordpool_EN.txt	STAIR	9	14	[0, 0, 0]	n/a	FR1	1	R1172E
1896.633	0.95	1905059	WORD_OFF	n/a	n/a	STAIR	9	14	[0, 0, 0]	n/a	FR1	1	R1172E
1897.583	1.618	1906009	WORD	n/a	wordpools/wordpool_EN.txt	SNAIL	10	14	[0, 0, 0]	n/a	FR1	1	R1172E
1899.201	0.766	1907626	WORD_OFF	n/a	n/a	SNAIL	10	14	[0, 0, 0]	n/a	FR1	1	R1172E
1899.967	1.616	1908392	WORD	n/a	wordpools/wordpool_EN.txt	MAP	11	14	[0, 0, 0]	n/a	FR1	1	R1172E
1901.583	0.817	1910008	WORD_OFF	n/a	n/a	MAP	11	14	[0, 0, 0]	n/a	FR1	1	R1172E
1902.4	1.618	1910825	WORD	n/a	wordpools/wordpool_EN.txt	SEED	12	14	[0, 0, 0]	n/a	FR1	1	R1172E
1904.018	0.0	1912443	WORD_OFF	n/a	n/a	SEED	12	14	[0, 0, 0]	n/a	FR1	1	R1172E
1904.018	0.001	1912443	DISTRACT_START	n/a	n/a	n/a	-999	14	[0, 0, 0]	n/a	FR1	1	R1172E
1904.019	0.016	1912444	START	n/a	n/a	n/a	-999	14	[-999, -999, -999]	n/a	FR1	1	R1172E
1904.035	8.885	1912460	PROB	8.885	n/a	n/a	-999	14	[7, 6, 7]	20	FR1	1	R1172E
1912.92	4.05	1921345	PROB	4.05	n/a	n/a	-999	14	[4, 1, 3]	8	FR1	1	R1172E
1916.97	9.572	1925395	PROB	9.572	n/a	n/a	-999	14	[4, 7, 5]	16	FR1	1	R1172E
1926.542	0.012	1934966	STOP	n/a	n/a	n/a	-999	14	[-999, -999, -999]	n/a	FR1	1	R1172E
1926.554	0.701	1934978	DISTRACT_END	n/a	n/a	n/a	-999	14	[0, 0, 0]	n/a	FR1	1	R1172E
1927.255	0.522	1935679	RETRIEVAL_ORIENT	n/a	n/a	n/a	-999	14	[0, 0, 0]	n/a	FR1	1	R1172E
1927.777	4.892	1936201	REC_START	n/a	n/a	n/a	-999	14	[0, 0, 0]	n/a	FR1	1	R1172E
1932.669	2.061	1941093	REC_WORD	2.061	n/a	MILK	-999	14	[0, 0, 0]	n/a	FR1	1	R1172E
1934.73	2.349	1943154	REC_WORD	2.349	n/a	GOLD	-999	14	[0, 0, 0]	n/a	FR1	1	R1172E
1937.079	3.097	1945503	REC_WORD	3.097	n/a	BRUSH	-999	14	[0, 0, 0]	n/a	FR1	1	R1172E
1940.176	7.637	1948600	REC_WORD	7.637	n/a	STOVE	-999	14	[0, 0, 0]	n/a	FR1	1	R1172E
1947.813	9.97	1956236	REC_WORD	9.97	n/a	LAMP	-999	14	[0, 0, 0]	n/a	FR1	1	R1172E
1957.783	8.528	1966206	REC_END	n/a	n/a	n/a	-999	14	[0, 0, 0]	n/a	FR1	1	R1172E
1966.311	0.5	1974734	TRIAL	n/a	n/a	n/a	-999	15	[0, 0, 0]	n/a	FR1	1	R1172E
1966.811	10.428	1975234	COUNTDOWN_START	n/a	n/a	n/a	-999	15	[0, 0, 0]	n/a	FR1	1	R1172E
1977.239	0.009	1985661	COUNTDOWN_END	n/a	n/a	n/a	-999	15	[0, 0, 0]	n/a	FR1	1	R1172E
1977.248	1.617	1985670	ORIENT	n/a	n/a	n/a	-999	15	[0, 0, 0]	n/a	FR1	1	R1172E
1978.865	2.116	1987287	ORIENT_OFF	n/a	n/a	n/a	-999	15	[0, 0, 0]	n/a	FR1	1	R1172E
1980.981	1.617	1989403	WORD	n/a	wordpools/wordpool_EN.txt	MOTH	1	15	[0, 0, 0]	n/a	FR1	1	R1172E
1982.598	0.8	1991020	WORD_OFF	n/a	n/a	MOTH	1	15	[0, 0, 0]	n/a	FR1	1	R1172E
1983.398	1.601	1991820	WORD	n/a	wordpools/wordpool_EN.txt	HOOK	2	15	[0, 0, 0]	n/a	FR1	1	R1172E
1984.999	0.984	1993421	WORD_OFF	n/a	n/a	HOOK	2	15	[0, 0, 0]	n/a	FR1	1	R1172E
1985.983	1.615	1994405	WORD	n/a	wordpools/wordpool_EN.txt	SHARK	3	15	[0, 0, 0]	n/a	FR1	1	R1172E
1987.598	0.967	1996020	WORD_OFF	n/a	n/a	SHARK	3	15	[0, 0, 0]	n/a	FR1	1	R1172E
1988.565	1.618	1996987	WORD	n/a	wordpools/wordpool_EN.txt	SHEEP	4	15	[0, 0, 0]	n/a	FR1	1	R1172E
1990.183	1.0	1998605	WORD_OFF	n/a	n/a	SHEEP	4	15	[0, 0, 0]	n/a	FR1	1	R1172E
1991.183	1.617	1999605	WORD	n/a	wordpools/wordpool_EN.txt	MOUSE	5	15	[0, 0, 0]	n/a	FR1	1	R1172E
1992.8	0.8	2001222	WORD_OFF	n/a	n/a	MOUSE	5	15	[0, 0, 0]	n/a	FR1	1	R1172E
1993.6	1.618	2002022	WORD	n/a	wordpools/wordpool_EN.txt	CAT	6	15	[0, 0, 0]	n/a	FR1	1	R1172E
1995.218	0.8	2003640	WORD_OFF	n/a	n/a	CAT	6	15	[0, 0, 0]	n/a	FR1	1	R1172E
1996.018	1.617	2004439	WORD	n/a	wordpools/wordpool_EN.txt	PRINCE	7	15	[0, 0, 0]	n/a	FR1	1	R1172E
1997.635	0.965	2006056	WORD_OFF	n/a	n/a	PRINCE	7	15	[0, 0, 0]	n/a	FR1	1	R1172E
1998.6	1.618	2007021	WORD	n/a	wordpools/wordpool_EN.txt	WEB	8	15	[0, 0, 0]	n/a	FR1	1	R1172E
2000.218	0.834	2008639	WORD_OFF	n/a	n/a	WEB	8	15	[0, 0, 0]	n/a	FR1	1	R1172E
2001.052	1.617	2009473	WORD	n/a	wordpools/wordpool_EN.txt	CHIEF	9	15	[0, 0, 0]	n/a	FR1	1	R1172E
2002.669	0.983	2011090	WORD_OFF	n/a	n/a	CHIEF	9	15	[0, 0, 0]	n/a	FR1	1	R1172E
2003.652	1.617	2012073	WORD	n/a	wordpools/wordpool_EN.txt	TREE	10	15	[0, 0, 0]	n/a	FR1	1	R1172E
2005.269	0.8	2013690	WORD_OFF	n/a	n/a	TREE	10	15	[0, 0, 0]	n/a	FR1	1	R1172E
2006.069	1.617	2014490	WORD	n/a	wordpools/wordpool_EN.txt	BAT	11	15	[0, 0, 0]	n/a	FR1	1	R1172E
2007.686	0.816	2016107	WORD_OFF	n/a	n/a	BAT	11	15	[0, 0, 0]	n/a	FR1	1	R1172E
2008.502	1.618	2016923	WORD	n/a	wordpools/wordpool_EN.txt	CROW	12	15	[0, 0, 0]	n/a	FR1	1	R1172E
2010.12	0.0	2018541	WORD_OFF	n/a	n/a	CROW	12	15	[0, 0, 0]	n/a	FR1	1	R1172E
2010.12	0.001	2018541	DISTRACT_START	n/a	n/a	n/a	-999	15	[0, 0, 0]	n/a	FR1	1	R1172E
2010.121	0.016	2018542	START	n/a	n/a	n/a	-999	15	[-999, -999, -999]	n/a	FR1	1	R1172E
2010.137	15.151	2018558	PROB	15.151	n/a	n/a	-999	15	[8, 9, 5]	22	FR1	1	R1172E
2025.288	6.506	2033708	PROB	6.506	n/a	n/a	-999	15	[4, 6, 2]	12	FR1	1	R1172E
2031.794	0.013	2040214	STOP	n/a	n/a	n/a	-999	15	[-999, -999, -999]	n/a	FR1	1	R1172E
2031.807	0.649	2040227	DISTRACT_END	n/a	n/a	n/a	-999	15	[0, 0, 0]	n/a	FR1	1	R1172E
2032.456	0.519	2040876	RETRIEVAL_ORIENT	n/a	n/a	n/a	-999	15	[0, 0, 0]	n/a	FR1	1	R1172E
2032.975	1.513	2041395	REC_START	n/a	n/a	n/a	-999	15	[0, 0, 0]	n/a	FR1	1	R1172E
2034.488	4.429	2042908	REC_WORD	4.429	n/a	HOOK	-999	15	[0, 0, 0]	n/a	FR1	1	R1172E
2038.917	2.164	2047337	REC_WORD	2.164	n/a	STOVE	-999	15	[0, 0, 0]	n/a	FR1	1	R1172E
2041.081	8.228	2049501	REC_WORD_VV	8.228	n/a	<>	-999	15	[0, 0, 0]	n/a	FR1	1	R1172E
2049.309	1.298	2057728	REC_WORD	1.298	n/a	SHOW	-999	15	[0, 0, 0]	n/a	FR1	1	R1172E
2050.607	12.379	2059026	REC_WORD	12.379	n/a	HOOF	-999	15	[0, 0, 0]	n/a	FR1	1	R1172E
2062.986	107.995	2071405	REC_END	n/a	n/a	n/a	-999	15	[0, 0, 0]	n/a	FR1	1	R1172E
2170.981	0.5	2179395	TRIAL	n/a	n/a	n/a	-999	16	[0, 0, 0]	n/a	FR1	1	R1172E
2171.481	10.428	2179895	COUNTDOWN_START	n/a	n/a	n/a	-999	16	[0, 0, 0]	n/a	FR1	1	R1172E
2181.909	0.008	2190323	COUNTDOWN_END	n/a	n/a	n/a	-999	16	[0, 0, 0]	n/a	FR1	1	R1172E
2181.917	1.616	2190331	ORIENT	n/a	n/a	n/a	-999	16	[0, 0, 0]	n/a	FR1	1	R1172E
2183.533	2.185	2191947	ORIENT_OFF	n/a	n/a	n/a	-999	16	[0, 0, 0]	n/a	FR1	1	R1172E
2185.718	1.616	2194132	WORD	n/a	wordpools/wordpool_EN.txt	STRING	1	16	[0, 0, 0]	n/a	FR1	1	R1172E
2187.334	0.917	2195748	WORD_OFF	n/a	n/a	STRING	1	16	[0, 0, 0]	n/a	FR1	1	R1172E
2188.251	1.617	2196665	WORD	n/a	wordpools/wordpool_EN.txt	STRAW	2	16	[0, 0, 0]	n/a	FR1	1	R1172E
2189.868	1.017	2198282	WORD_OFF	n/a	n/a	STRAW	2	16	[0, 0, 0]	n/a	FR1	1	R1172E
2190.885	1.616	2199299	WORD	n/a	wordpools/wordpool_EN.txt	THUMB	3	16	[0, 0, 0]	n/a	FR1	1	R1172E
2192.501	0.933	2200914	WORD_OFF	n/a	n/a	THUMB	3	16	[0, 0, 0]	n/a	FR1	1	R1172E
2193.434	1.602	2201847	WORD	n/a	wordpools/wordpool_EN.txt	NOSE	4	16	[0, 0, 0]	n/a	FR1	1	R1172E
2195.036	0.967	2203449	WORD_OFF	n/a	n/a	NOSE	4	16	[0, 0, 0]	n/a	FR1	1	R1172E
2196.003	1.617	2204416	WORD	n/a	wordpools/wordpool_EN.txt	PASTE	5	16	[0, 0, 0]	n/a	FR1	1	R1172E
2197.62	1.0	2206033	WORD_OFF	n/a	n/a	PASTE	5	16	[0, 0, 0]	n/a	FR1	1	R1172E
2198.62	1.617	2207033	WORD	n/a	wordpools/wordpool_EN.txt	FAN	6	16	[0, 0, 0]	n/a	FR1	1	R1172E
2200.237	0.95	2208650	WORD_OFF	n/a	n/a	FAN	6	16	[0, 0, 0]	n/a	FR1	1	R1172E
2201.187	1.617	2209600	WORD	n/a	wordpools/wordpool_EN.txt	SLIME	7	16	[0, 0, 0]	n/a	FR1	1	R1172E
2202.804	0.782	2211217	WORD_OFF	n/a	n/a	SLIME	7	16	[0, 0, 0]	n/a	FR1	1	R1172E
2203.586	1.618	2211999	WORD	n/a	wordpools/wordpool_EN.txt	BOOT	8	16	[0, 0, 0]	n/a	FR1	1	R1172E
2205.204	0.851	2213617	WORD_OFF	n/a	n/a	BOOT	8	16	[0, 0, 0]	n/a	FR1	1	R1172E
2206.055	1.617	2214468	WORD	n/a	wordpools/wordpool_EN.txt	MUD	9	16	[0, 0, 0]	n/a	FR1	1	R1172E
2207.672	0.799	2216085	WORD_OFF	n/a	n/a	MUD	9	16	[0, 0, 0]	n/a	FR1	1	R1172E
2208.471	1.618	2216884	WORD	n/a	wordpools/wordpool_EN.txt	TEETH	10	16	[0, 0, 0]	n/a	FR1	1	R1172E
2210.089	0.933	2218502	WORD_OFF	n/a	n/a	TEETH	10	16	[0, 0, 0]	n/a	FR1	1	R1172E
2211.022	1.617	2219435	WORD	n/a	wordpools/wordpool_EN.txt	PURSE	11	16	[0, 0, 0]	n/a	FR1	1	R1172E
2212.639	0.949	2221052	WORD_OFF	n/a	n/a	PURSE	11	16	[0, 0, 0]	n/a	FR1	1	R1172E
2213.588	1.618	2222001	WORD	n/a	wordpools/wordpool_EN.txt	YARD	12	16	[0, 0, 0]	n/a	FR1	1	R1172E
2215.206	0.0	2223619	WORD_OFF	n/a	n/a	YARD	12	16	[0, 0, 0]	n/a	FR1	1	R1172E
2215.206	0.001	2223619	DISTRACT_START	n/a	n/a	n/a	-999	16	[0, 0, 0]	n/a	FR1	1	R1172E
2215.207	0.016	2223620	START	n/a	n/a	n/a	-999	16	[-999, -999, -999]	n/a	FR1	1	R1172E
2215.223	6.984	2223636	PROB	6.984	n/a	n/a	-999	16	[7, 9, 2]	18	FR1	1	R1172E
2222.207	5.851	2230619	PROB	5.851	n/a	n/a	-999	16	[6, 7, 7]	20	FR1	1	R1172E
2228.058	3.951	2236470	PROB	3.951	n/a	n/a	-999	16	[2, 5, 4]	11	FR1	1	R1172E
2232.009	3.545	2240421	PROB	3.545	n/a	n/a	-999	16	[1, 1, 9]	11	FR1	1	R1172E
2235.554	0.021	2243966	STOP	n/a	n/a	n/a	-999	16	[-999, -999, -999]	n/a	FR1	1	R1172E
2235.575	0.701	2243987	DISTRACT_END	n/a	n/a	n/a	-999	16	[0, 0, 0]	n/a	FR1	1	R1172E
2236.276	0.518	2244688	RETRIEVAL_ORIENT	n/a	n/a	n/a	-999	16	[0, 0, 0]	n/a	FR1	1	R1172E
2236.794	9.922	2245206	REC_START	n/a	n/a	n/a	-999	16	[0, 0, 0]	n/a	FR1	1	R1172E
2246.716	3.602	2255127	REC_WORD	3.602	n/a	SHOW	-999	16	[0, 0, 0]	n/a	FR1	1	R1172E
2250.318	16.487	2258729	REC_WORD	16.487	n/a	LAMP	-999	16	[0, 0, 0]	n/a	FR1	1	R1172E
2266.805	13.479	2275215	REC_END	n/a	n/a	n/a	-999	16	[0, 0, 0]	n/a	FR1	1	R1172E
2280.284	0.5	2288694	TRIAL	n/a	n/a	n/a	-999	17	[0, 0, 0]	n/a	FR1	1	R1172E
2280.784	10.428	2289194	COUNTDOWN_START	n/a	n/a	n/a	-999	17	[0, 0, 0]	n/a	FR1	1	R1172E
2291.212	0.008	2299621	COUNTDOWN_END	n/a	n/a	n/a	-999	17	[0, 0, 0]	n/a	FR1	1	R1172E
2291.22	1.616	2299629	ORIENT	n/a	n/a	n/a	-999	17	[0, 0, 0]	n/a	FR1	1	R1172E
2292.836	2.201	2301245	ORIENT_OFF	n/a	n/a	n/a	-999	17	[0, 0, 0]	n/a	FR1	1	R1172E
2295.037	1.617	2303446	WORD	n/a	wordpools/wordpool_EN.txt	GLOVE	1	17	[0, 0, 0]	n/a	FR1	1	R1172E
2296.654	0.916	2305063	WORD_OFF	n/a	n/a	GLOVE	1	17	[0, 0, 0]	n/a	FR1	1	R1172E
2297.57	1.618	2305979	WORD	n/a	wordpools/wordpool_EN.txt	NET	2	17	[0, 0, 0]	n/a	FR1	1	R1172E
2299.188	1.016	2307597	WORD_OFF	n/a	n/a	NET	2	17	[0, 0, 0]	n/a	FR1	1	R1172E
2300.204	1.617	2308613	WORD	n/a	wordpools/wordpool_EN.txt	BOY	3	17	[0, 0, 0]	n/a	FR1	1	R1172E
2301.821	0.901	2310230	WORD_OFF	n/a	n/a	BOY	3	17	[0, 0, 0]	n/a	FR1	1	R1172E
2302.722	1.615	2311131	WORD	n/a	wordpools/wordpool_EN.txt	ARM	4	17	[0, 0, 0]	n/a	FR1	1	R1172E
2304.337	0.852	2312746	WORD_OFF	n/a	n/a	ARM	4	17	[0, 0, 0]	n/a	FR1	1	R1172E
2305.189	1.617	2313598	WORD	n/a	wordpools/wordpool_EN.txt	SHIP	5	17	[0, 0, 0]	n/a	FR1	1	R1172E
2306.806	0.9	2315215	WORD_OFF	n/a	n/a	SHIP	5	17	[0, 0, 0]	n/a	FR1	1	R1172E
2307.706	1.616	2316115	WORD	n/a	wordpools/wordpool_EN.txt	TOY	6	17	[0, 0, 0]	n/a	FR1	1	R1172E
2309.322	0.784	2317731	WORD_OFF	n/a	n/a	TOY	6	17	[0, 0, 0]	n/a	FR1	1	R1172E
2310.106	1.617	2318515	WORD	n/a	wordpools/wordpool_EN.txt	BOARD	7	17	[0, 0, 0]	n/a	FR1	1	R1172E
2311.723	0.799	2320132	WORD_OFF	n/a	n/a	BOARD	7	17	[0, 0, 0]	n/a	FR1	1	R1172E
2312.522	1.601	2320931	WORD	n/a	wordpools/wordpool_EN.txt	PEARL	8	17	[0, 0, 0]	n/a	FR1	1	R1172E
2314.123	0.801	2322531	WORD_OFF	n/a	n/a	PEARL	8	17	[0, 0, 0]	n/a	FR1	1	R1172E
2314.924	1.616	2323332	WORD	n/a	wordpools/wordpool_EN.txt	TANK	9	17	[0, 0, 0]	n/a	FR1	1	R1172E
2316.54	0.933	2324948	WORD_OFF	n/a	n/a	TANK	9	17	[0, 0, 0]	n/a	FR1	1	R1172E
2317.473	1.601	2325881	WORD	n/a	wordpools/wordpool_EN.txt	SEA	10	17	[0, 0, 0]	n/a	FR1	1	R1172E
2319.074	1.0	2327482	WORD_OFF	n/a	n/a	SEA	10	17	[0, 0, 0]	n/a	FR1	1	R1172E
2320.074	1.618	2328482	WORD	n/a	wordpools/wordpool_EN.txt	BOAT	11	17	[0, 0, 0]	n/a	FR1	1	R1172E
2321.692	0.832	2330100	WORD_OFF	n/a	n/a	BOAT	11	17	[0, 0, 0]	n/a	FR1	1	R1172E
2322.524	1.618	2330932	WORD	n/a	wordpools/wordpool_EN.txt	SPONGE	12	17	[0, 0, 0]	n/a	FR1	1	R1172E
2324.142	0.0	2332550	DISTRACT_START	n/a	n/a	n/a	-999	17	[0, 0, 0]	n/a	FR1	1	R1172E
2324.142	0.001	2332550	WORD_OFF	n/a	n/a	SPONGE	12	17	[0, 0, 0]	n/a	FR1	1	R1172E
2324.143	0.016	2332551	START	n/a	n/a	n/a	-999	17	[-999, -999, -999]	n/a	FR1	1	R1172E
2324.159	15.736	2332567	PROB	15.736	n/a	n/a	-999	17	[1, 7, 9]	17	FR1	1	R1172E
2339.895	6.871	2348302	PROB	6.871	n/a	n/a	-999	17	[5, 4, 4]	13	FR1	1	R1172E
2346.766	0.013	2355173	STOP	n/a	n/a	n/a	-999	17	[-999, -999, -999]	n/a	FR1	1	R1172E
2346.779	0.666	2355186	DISTRACT_END	n/a	n/a	n/a	-999	17	[0, 0, 0]	n/a	FR1	1	R1172E
2347.445	0.519	2355852	RETRIEVAL_ORIENT	n/a	n/a	n/a	-999	17	[0, 0, 0]	n/a	FR1	1	R1172E
2347.964	2.948	2356371	REC_START	n/a	n/a	n/a	-999	17	[0, 0, 0]	n/a	FR1	1	R1172E
2350.912	1.697	2359319	REC_WORD	1.697	n/a	ARM	-999	17	[0, 0, 0]	n/a	FR1	1	R1172E
2352.609	1.982	2361016	REC_WORD	1.982	n/a	WOVE	-999	17	[0, 0, 0]	n/a	FR1	1	R1172E
2354.591	23.384	2362998	REC_WORD	23.384	n/a	STAND	-999	17	[0, 0, 0]	n/a	FR1	1	R1172E
2377.975	17.113	2386381	REC_END	n/a	n/a	n/a	-999	17	[0, 0, 0]	n/a	FR1	1	R1172E
2395.088	0.5	2403493	TRIAL	n/a	n/a	n/a	-999	18	[0, 0, 0]	n/a	FR1	1	R1172E
2395.588	10.428	2403993	COUNTDOWN_START	n/a	n/a	n/a	-999	18	[0, 0, 0]	n/a	FR1	1	R1172E
2406.016	0.007	2414421	COUNTDOWN_END	n/a	n/a	n/a	-999	18	[0, 0, 0]	n/a	FR1	1	R1172E
2406.023	1.617	2414428	ORIENT	n/a	n/a	n/a	-999	18	[0, 0, 0]	n/a	FR1	1	R1172E
2407.64	1.933	2416045	ORIENT_OFF	n/a	n/a	n/a	-999	18	[0, 0, 0]	n/a	FR1	1	R1172E
2409.573	1.618	2417978	WORD	n/a	wordpools/wordpool_EN.txt	FOOT	1	18	[0, 0, 0]	n/a	FR1	1	R1172E
2411.191	0.95	2419596	WORD_OFF	n/a	n/a	FOOT	1	18	[0, 0, 0]	n/a	FR1	1	R1172E
2412.141	1.617	2420545	WORD	n/a	wordpools/wordpool_EN.txt	LIP	2	18	[0, 0, 0]	n/a	FR1	1	R1172E
2413.758	0.917	2422162	WORD_OFF	n/a	n/a	LIP	2	18	[0, 0, 0]	n/a	FR1	1	R1172E
2414.675	1.616	2423079	WORD	n/a	wordpools/wordpool_EN.txt	TOAST	3	18	[0, 0, 0]	n/a	FR1	1	R1172E
2416.291	0.984	2424695	WORD_OFF	n/a	n/a	TOAST	3	18	[0, 0, 0]	n/a	FR1	1	R1172E
2417.275	1.617	2425679	WORD	n/a	wordpools/wordpool_EN.txt	PLATE	4	18	[0, 0, 0]	n/a	FR1	1	R1172E
2418.892	1.0	2427296	WORD_OFF	n/a	n/a	PLATE	4	18	[0, 0, 0]	n/a	FR1	1	R1172E
2419.892	1.616	2428296	WORD	n/a	wordpools/wordpool_EN.txt	FRUIT	5	18	[0, 0, 0]	n/a	FR1	1	R1172E
2421.508	0.85	2429912	WORD_OFF	n/a	n/a	FRUIT	5	18	[0, 0, 0]	n/a	FR1	1	R1172E
2422.358	1.618	2430762	WORD	n/a	wordpools/wordpool_EN.txt	ELF	6	18	[0, 0, 0]	n/a	FR1	1	R1172E
2423.976	0.901	2432380	WORD_OFF	n/a	n/a	ELF	6	18	[0, 0, 0]	n/a	FR1	1	R1172E
2424.877	1.615	2433281	WORD	n/a	wordpools/wordpool_EN.txt	PIN	7	18	[0, 0, 0]	n/a	FR1	1	R1172E
2426.492	0.984	2434896	WORD_OFF	n/a	n/a	PIN	7	18	[0, 0, 0]	n/a	FR1	1	R1172E
2427.476	1.618	2435880	WORD	n/a	wordpools/wordpool_EN.txt	CUP	8	18	[0, 0, 0]	n/a	FR1	1	R1172E
2429.094	0.8	2437498	WORD_OFF	n/a	n/a	CUP	8	18	[0, 0, 0]	n/a	FR1	1	R1172E
2429.894	1.616	2438298	WORD	n/a	wordpools/wordpool_EN.txt	GLASS	9	18	[0, 0, 0]	n/a	FR1	1	R1172E
2431.51	0.8	2439914	WORD_OFF	n/a	n/a	GLASS	9	18	[0, 0, 0]	n/a	FR1	1	R1172E
2432.31	1.618	2440714	WORD	n/a	wordpools/wordpool_EN.txt	CHIN	10	18	[0, 0, 0]	n/a	FR1	1	R1172E
2433.928	1.0	2442332	WORD_OFF	n/a	n/a	CHIN	10	18	[0, 0, 0]	n/a	FR1	1	R1172E
2434.928	1.616	2443332	WORD	n/a	wordpools/wordpool_EN.txt	STOOL	11	18	[0, 0, 0]	n/a	FR1	1	R1172E
2436.544	0.934	2444947	WORD_OFF	n/a	n/a	STOOL	11	18	[0, 0, 0]	n/a	FR1	1	R1172E
2437.478	1.618	2445881	WORD	n/a	wordpools/wordpool_EN.txt	CHAIR	12	18	[0, 0, 0]	n/a	FR1	1	R1172E
2439.096	0.0	2447499	WORD_OFF	n/a	n/a	CHAIR	12	18	[0, 0, 0]	n/a	FR1	1	R1172E
2439.096	0.0	2447499	DISTRACT_START	n/a	n/a	n/a	-999	18	[0, 0, 0]	n/a	FR1	1	R1172E
2439.096	0.016	2447499	START	n/a	n/a	n/a	-999	18	[-999, -999, -999]	n/a	FR1	1	R1172E
2439.112	5.417	2447515	PROB	5.417	n/a	n/a	-999	18	[2, 9, 5]	16	FR1	1	R1172E
2444.529	6.818	2452932	PROB	6.818	n/a	n/a	-999	18	[7, 9, 2]	18	FR1	1	R1172E
2451.347	7.302	2459750	PROB	7.302	n/a	n/a	-999	18	[3, 7, 4]	14	FR1	1	R1172E
2458.649	5.343	2467052	PROB	5.343	n/a	n/a	-999	18	[4, 9, 2]	15	FR1	1	R1172E
2463.992	0.008	2472394	STOP	n/a	n/a	n/a	-999	18	[-999, -999, -999]	n/a	FR1	1	R1172E
2464.0	0.7	2472402	DISTRACT_END	n/a	n/a	n/a	-999	18	[0, 0, 0]	n/a	FR1	1	R1172E
2464.7	0.518	2473102	RETRIEVAL_ORIENT	n/a	n/a	n/a	-999	18	[0, 0, 0]	n/a	FR1	1	R1172E
2465.218	5.802	2473620	REC_START	n/a	n/a	n/a	-999	18	[0, 0, 0]	n/a	FR1	1	R1172E
2471.02	1.307	2479422	REC_WORD	1.307	n/a	STOOL	-999	18	[0, 0, 0]	n/a	FR1	1	R1172E
2472.327	3.26	2480729	REC_WORD	3.26	n/a	PIN	-999	18	[0, 0, 0]	n/a	FR1	1	R1172E
2475.587	12.71	2483989	REC_WORD	12.71	n/a	SINK	-999	18	[0, 0, 0]	n/a	FR1	1	R1172E
2488.297	6.932	2496698	REC_WORD	6.932	n/a	TOOL	-999	18	[0, 0, 0]	n/a	FR1	1	R1172E
2495.229	81.624	2503630	REC_END	n/a	n/a	n/a	-999	18	[0, 0, 0]	n/a	FR1	1	R1172E
2576.853	0.5	2585251	TRIAL	n/a	n/a	n/a	-999	19	[0, 0, 0]	n/a	FR1	1	R1172E
2577.353	10.428	2585751	COUNTDOWN_START	n/a	n/a	n/a	-999	19	[0, 0, 0]	n/a	FR1	1	R1172E
2587.781	0.008	2596178	COUNTDOWN_END	n/a	n/a	n/a	-999	19	[0, 0, 0]	n/a	FR1	1	R1172E
2587.789	1.615	2596186	ORIENT	n/a	n/a	n/a	-999	19	[0, 0, 0]	n/a	FR1	1	R1172E
2589.404	1.984	2597801	ORIENT_OFF	n/a	n/a	n/a	-999	19	[0, 0, 0]	n/a	FR1	1	R1172E
2591.388	1.618	2599785	WORD	n/a	wordpools/wordpool_EN.txt	CAGE	1	19	[0, 0, 0]	n/a	FR1	1	R1172E
2593.006	0.867	2601403	WORD_OFF	n/a	n/a	CAGE	1	19	[0, 0, 0]	n/a	FR1	1	R1172E
2593.873	1.616	2602270	WORD	n/a	wordpools/wordpool_EN.txt	SINK	2	19	[0, 0, 0]	n/a	FR1	1	R1172E
2595.489	1.017	2603886	WORD_OFF	n/a	n/a	SINK	2	19	[0, 0, 0]	n/a	FR1	1	R1172E
2596.506	1.618	2604903	WORD	n/a	wordpools/wordpool_EN.txt	HAND	3	19	[0, 0, 0]	n/a	FR1	1	R1172E
2598.124	1.0	2606521	WORD_OFF	n/a	n/a	HAND	3	19	[0, 0, 0]	n/a	FR1	1	R1172E
2599.124	1.617	2607521	WORD	n/a	wordpools/wordpool_EN.txt	TEA	4	19	[0, 0, 0]	n/a	FR1	1	R1172E
2600.741	0.765	2609138	WORD_OFF	n/a	n/a	TEA	4	19	[0, 0, 0]	n/a	FR1	1	R1172E
2601.506	1.618	2609903	WORD	n/a	wordpools/wordpool_EN.txt	CAKE	5	19	[0, 0, 0]	n/a	FR1	1	R1172E
2603.124	0.984	2611521	WORD_OFF	n/a	n/a	CAKE	5	19	[0, 0, 0]	n/a	FR1	1	R1172E
2604.108	1.617	2612505	WORD	n/a	wordpools/wordpool_EN.txt	MUG	6	19	[0, 0, 0]	n/a	FR1	1	R1172E
2605.725	0.917	2614122	WORD_OFF	n/a	n/a	MUG	6	19	[0, 0, 0]	n/a	FR1	1	R1172E
2606.642	1.617	2615039	WORD	n/a	wordpools/wordpool_EN.txt	BOX	7	19	[0, 0, 0]	n/a	FR1	1	R1172E
2608.259	0.917	2616655	WORD_OFF	n/a	n/a	BOX	7	19	[0, 0, 0]	n/a	FR1	1	R1172E
2609.176	1.617	2617572	WORD	n/a	wordpools/wordpool_EN.txt	LEG	8	19	[0, 0, 0]	n/a	FR1	1	R1172E
2610.793	0.95	2619189	WORD_OFF	n/a	n/a	LEG	8	19	[0, 0, 0]	n/a	FR1	1	R1172E
2611.743	1.616	2620139	WORD	n/a	wordpools/wordpool_EN.txt	BEAK	9	19	[0, 0, 0]	n/a	FR1	1	R1172E
2613.359	0.966	2621755	WORD_OFF	n/a	n/a	BEAK	9	19	[0, 0, 0]	n/a	FR1	1	R1172E
2614.325	1.618	2622721	WORD	n/a	wordpools/wordpool_EN.txt	BAG	10	19	[0, 0, 0]	n/a	FR1	1	R1172E
2615.943	0.8	2624339	WORD_OFF	n/a	n/a	BAG	10	19	[0, 0, 0]	n/a	FR1	1	R1172E
2616.743	1.617	2625139	WORD	n/a	wordpools/wordpool_EN.txt	TIE	11	19	[0, 0, 0]	n/a	FR1	1	R1172E
2618.36	0.966	2626756	WORD_OFF	n/a	n/a	TIE	11	19	[0, 0, 0]	n/a	FR1	1	R1172E
2619.326	1.618	2627722	WORD	n/a	wordpools/wordpool_EN.txt	SLEEVE	12	19	[0, 0, 0]	n/a	FR1	1	R1172E
2620.944	0.0	2629340	WORD_OFF	n/a	n/a	SLEEVE	12	19	[0, 0, 0]	n/a	FR1	1	R1172E
2620.944	0.001	2629340	DISTRACT_START	n/a	n/a	n/a	-999	19	[0, 0, 0]	n/a	FR1	1	R1172E
2620.945	0.016	2629341	START	n/a	n/a	n/a	-999	19	[-999, -999, -999]	n/a	FR1	1	R1172E
2620.961	5.184	2629357	PROB	5.184	n/a	n/a	-999	19	[5, 1, 2]	8	FR1	1	R1172E
2626.145	8.317	2634541	PROB	8.317	n/a	n/a	-999	19	[3, 8, 9]	21	FR1	1	R1172E
2634.462	4.419	2642857	PROB	4.419	n/a	n/a	-999	19	[1, 1, 6]	8	FR1	1	R1172E
2638.881	6.458	2647276	PROB	6.458	n/a	n/a	-999	19	[8, 8, 4]	20	FR1	1	R1172E
2645.339	0.009	2653734	STOP	n/a	n/a	n/a	-999	19	[-999, -999, -999]	n/a	FR1	1	R1172E
2645.348	0.534	2653743	DISTRACT_END	n/a	n/a	n/a	-999	19	[0, 0, 0]	n/a	FR1	1	R1172E
2645.882	0.517	2654277	RETRIEVAL_ORIENT	n/a	n/a	n/a	-999	19	[0, 0, 0]	n/a	FR1	1	R1172E
2646.399	2.238	2654794	REC_START	n/a	n/a	n/a	-999	19	[0, 0, 0]	n/a	FR1	1	R1172E
2648.637	0.881	2657032	REC_WORD	0.881	n/a	SINK	-999	19	[0, 0, 0]	n/a	FR1	1	R1172E
2649.518	0.809	2657913	REC_WORD	0.809	n/a	WAND	-999	19	[0, 0, 0]	n/a	FR1	1	R1172E
2650.327	20.815	2658722	REC_WORD	20.815	n/a	HAND	-999	19	[0, 0, 0]	n/a	FR1	1	R1172E
2671.142	0.555	2679536	REC_WORD	0.555	n/a	TIE	-999	19	[0, 0, 0]	n/a	FR1	1	R1172E
2671.697	4.713	2680091	REC_WORD	4.713	n/a	SLEEVE	-999	19	[0, 0, 0]	n/a	FR1	1	R1172E
2676.41	130.483	2684804	REC_END	n/a	n/a	n/a	-999	19	[0, 0, 0]	n/a	FR1	1	R1172E
2806.893	0.5	2815281	TRIAL	n/a	n/a	n/a	-999	20	[0, 0, 0]	n/a	FR1	1	R1172E
2807.393	10.428	2815781	COUNTDOWN_START	n/a	n/a	n/a	-999	20	[0, 0, 0]	n/a	FR1	1	R1172E
2817.821	0.008	2826209	COUNTDOWN_END	n/a	n/a	n/a	-999	20	[0, 0, 0]	n/a	FR1	1	R1172E
2817.829	1.616	2826217	ORIENT	n/a	n/a	n/a	-999	20	[0, 0, 0]	n/a	FR1	1	R1172E
2819.445	1.984	2827833	ORIENT_OFF	n/a	n/a	n/a	-999	20	[0, 0, 0]	n/a	FR1	1	R1172E
2821.429	1.618	2829817	WORD	n/a	wordpools/wordpool_EN.txt	TOAD	1	20	[0, 0, 0]	n/a	FR1	1	R1172E
2823.047	0.816	2831435	WORD_OFF	n/a	n/a	TOAD	1	20	[0, 0, 0]	n/a	FR1	1	R1172E
2823.863	1.616	2832251	WORD	n/a	wordpools/wordpool_EN.txt	RAKE	2	20	[0, 0, 0]	n/a	FR1	1	R1172E
2825.479	0.967	2833867	WORD_OFF	n/a	n/a	RAKE	2	20	[0, 0, 0]	n/a	FR1	1	R1172E
2826.446	1.618	2834834	WORD	n/a	wordpools/wordpool_EN.txt	GRAPE	3	20	[0, 0, 0]	n/a	FR1	1	R1172E
2828.064	0.817	2836451	WORD_OFF	n/a	n/a	GRAPE	3	20	[0, 0, 0]	n/a	FR1	1	R1172E
2828.881	1.616	2837268	WORD	n/a	wordpools/wordpool_EN.txt	PEAR	4	20	[0, 0, 0]	n/a	FR1	1	R1172E
2830.497	0.784	2838884	WORD_OFF	n/a	n/a	PEAR	4	20	[0, 0, 0]	n/a	FR1	1	R1172E
2831.281	1.617	2839668	WORD	n/a	wordpools/wordpool_EN.txt	MAZE	5	20	[0, 0, 0]	n/a	FR1	1	R1172E
2832.898	0.834	2841285	WORD_OFF	n/a	n/a	MAZE	5	20	[0, 0, 0]	n/a	FR1	1	R1172E
2833.732	1.616	2842119	WORD	n/a	wordpools/wordpool_EN.txt	FLUTE	6	20	[0, 0, 0]	n/a	FR1	1	R1172E
2835.348	0.834	2843735	WORD_OFF	n/a	n/a	FLUTE	6	20	[0, 0, 0]	n/a	FR1	1	R1172E
2836.182	1.617	2844569	WORD	n/a	wordpools/wordpool_EN.txt	STEM	7	20	[0, 0, 0]	n/a	FR1	1	R1172E
2837.799	0.9	2846186	WORD_OFF	n/a	n/a	STEM	7	20	[0, 0, 0]	n/a	FR1	1	R1172E
2838.699	1.616	2847086	WORD	n/a	wordpools/wordpool_EN.txt	DOG	8	20	[0, 0, 0]	n/a	FR1	1	R1172E
2840.315	0.801	2848702	WORD_OFF	n/a	n/a	DOG	8	20	[0, 0, 0]	n/a	FR1	1	R1172E
2841.116	1.617	2849503	WORD	n/a	wordpools/wordpool_EN.txt	CONE	9	20	[0, 0, 0]	n/a	FR1	1	R1172E
2842.733	0.967	2851120	WORD_OFF	n/a	n/a	CONE	9	20	[0, 0, 0]	n/a	FR1	1	R1172E
2843.7	1.616	2852087	WORD	n/a	wordpools/wordpool_EN.txt	BRANCH	10	20	[0, 0, 0]	n/a	FR1	1	R1172E
2845.316	1.017	2853703	WORD_OFF	n/a	n/a	BRANCH	10	20	[0, 0, 0]	n/a	FR1	1	R1172E
2846.333	1.618	2854720	WORD	n/a	wordpools/wordpool_EN.txt	TRASH	11	20	[0, 0, 0]	n/a	FR1	1	R1172E
2847.951	0.783	2856338	WORD_OFF	n/a	n/a	TRASH	11	20	[0, 0, 0]	n/a	FR1	1	R1172E
2848.734	1.616	2857121	WORD	n/a	wordpools/wordpool_EN.txt	ICE	12	20	[0, 0, 0]	n/a	FR1	1	R1172E
2850.35	0.0	2858737	WORD_OFF	n/a	n/a	ICE	12	20	[0, 0, 0]	n/a	FR1	1	R1172E
2850.35	0.001	2858737	DISTRACT_START	n/a	n/a	n/a	-999	20	[0, 0, 0]	n/a	FR1	1	R1172E
2850.351	0.016	2858738	START	n/a	n/a	n/a	-999	20	[-999, -999, -999]	n/a	FR1	1	R1172E
2850.367	5.385	2858754	PROB	5.385	n/a	n/a	-999	20	[7, 2, 1]	10	FR1	1	R1172E
2855.752	7.851	2864138	PROB	7.851	n/a	n/a	-999	20	[2, 8, 8]	18	FR1	1	R1172E
2863.603	5.368	2871989	PROB	5.368	n/a	n/a	-999	20	[9, 7, 2]	18	FR1	1	R1172E
2868.971	9.501	2877357	PROB	9.501	n/a	n/a	-999	20	[6, 8, 9]	23	FR1	1	R1172E
2878.472	0.017	2886857	STOP	n/a	n/a	n/a	-999	20	[-999, -999, -999]	n/a	FR1	1	R1172E
2878.489	0.618	2886874	DISTRACT_END	n/a	n/a	n/a	-999	20	[0, 0, 0]	n/a	FR1	1	R1172E
2879.107	0.517	2887492	RETRIEVAL_ORIENT	n/a	n/a	n/a	-999	20	[0, 0, 0]	n/a	FR1	1	R1172E
2879.624	2.636	2888009	REC_START	n/a	n/a	n/a	-999	20	[0, 0, 0]	n/a	FR1	1	R1172E
2882.26	1.169	2890645	REC_WORD	1.169	n/a	MAZE	-999	20	[0, 0, 0]	n/a	FR1	1	R1172E
2883.429	7.549	2891814	REC_WORD	7.549	n/a	STOOL	-999	20	[0, 0, 0]	n/a	FR1	1	R1172E
2890.978	17.779	2899363	REC_WORD	17.779	n/a	FROG	-999	20	[0, 0, 0]	n/a	FR1	1	R1172E
2908.757	0.877	2917141	REC_WORD	0.877	n/a	ROAD	-999	20	[0, 0, 0]	n/a	FR1	1	R1172E
2909.634	9.379	2918018	REC_END	n/a	n/a	n/a	-999	20	[0, 0, 0]	n/a	FR1	1	R1172E
2919.013	0.5	2927397	TRIAL	n/a	n/a	n/a	-999	21	[0, 0, 0]	n/a	FR1	1	R1172E
2919.513	10.428	2927897	COUNTDOWN_START	n/a	n/a	n/a	-999	21	[0, 0, 0]	n/a	FR1	1	R1172E
2929.941	0.008	2938324	COUNTDOWN_END	n/a	n/a	n/a	-999	21	[0, 0, 0]	n/a	FR1	1	R1172E
2929.949	1.616	2938332	ORIENT	n/a	n/a	n/a	-999	21	[0, 0, 0]	n/a	FR1	1	R1172E
2931.565	2.101	2939948	ORIENT_OFF	n/a	n/a	n/a	-999	21	[0, 0, 0]	n/a	FR1	1	R1172E
2933.666	1.617	2942049	WORD	n/a	wordpools/wordpool_EN.txt	SUN	1	21	[0, 0, 0]	n/a	FR1	1	R1172E
2935.283	0.95	2943666	WORD_OFF	n/a	n/a	SUN	1	21	[0, 0, 0]	n/a	FR1	1	R1172E
2936.233	1.617	2944616	WORD	n/a	wordpools/wordpool_EN.txt	LAND	2	21	[0, 0, 0]	n/a	FR1	1	R1172E
2937.85	0.8	2946233	WORD_OFF	n/a	n/a	LAND	2	21	[0, 0, 0]	n/a	FR1	1	R1172E
2938.65	1.617	2947033	WORD	n/a	wordpools/wordpool_EN.txt	SEAL	3	21	[0, 0, 0]	n/a	FR1	1	R1172E
2940.267	0.917	2948650	WORD_OFF	n/a	n/a	SEAL	3	21	[0, 0, 0]	n/a	FR1	1	R1172E
2941.184	1.617	2949567	WORD	n/a	wordpools/wordpool_EN.txt	MOON	4	21	[0, 0, 0]	n/a	FR1	1	R1172E
2942.801	0.782	2951184	WORD_OFF	n/a	n/a	MOON	4	21	[0, 0, 0]	n/a	FR1	1	R1172E
2943.583	1.618	2951966	WORD	n/a	wordpools/wordpool_EN.txt	WHALE	5	21	[0, 0, 0]	n/a	FR1	1	R1172E
2945.201	1.001	2953584	WORD_OFF	n/a	n/a	WHALE	5	21	[0, 0, 0]	n/a	FR1	1	R1172E
2946.202	1.617	2954585	WORD	n/a	wordpools/wordpool_EN.txt	FOOD	6	21	[0, 0, 0]	n/a	FR1	1	R1172E
2947.819	0.883	2956202	WORD_OFF	n/a	n/a	FOOD	6	21	[0, 0, 0]	n/a	FR1	1	R1172E
2948.702	1.616	2957085	WORD	n/a	wordpools/wordpool_EN.txt	STAR	7	21	[0, 0, 0]	n/a	FR1	1	R1172E
2950.318	0.834	2958700	WORD_OFF	n/a	n/a	STAR	7	21	[0, 0, 0]	n/a	FR1	1	R1172E
2951.152	1.617	2959534	WORD	n/a	wordpools/wordpool_EN.txt	RICE	8	21	[0, 0, 0]	n/a	FR1	1	R1172E
2952.769	0.833	2961151	WORD_OFF	n/a	n/a	RICE	8	21	[0, 0, 0]	n/a	FR1	1	R1172E
2953.602	1.618	2961984	WORD	n/a	wordpools/wordpool_EN.txt	PLANT	9	21	[0, 0, 0]	n/a	FR1	1	R1172E
2955.22	0.817	2963602	WORD_OFF	n/a	n/a	PLANT	9	21	[0, 0, 0]	n/a	FR1	1	R1172E
2956.037	1.617	2964419	WORD	n/a	wordpools/wordpool_EN.txt	BEACH	10	21	[0, 0, 0]	n/a	FR1	1	R1172E
2957.654	0.765	2966036	WORD_OFF	n/a	n/a	BEACH	10	21	[0, 0, 0]	n/a	FR1	1	R1172E
2958.419	1.601	2966801	WORD	n/a	wordpools/wordpool_EN.txt	BLOOM	11	21	[0, 0, 0]	n/a	FR1	1	R1172E
2960.02	0.884	2968402	WORD_OFF	n/a	n/a	BLOOM	11	21	[0, 0, 0]	n/a	FR1	1	R1172E
2960.904	1.616	2969286	WORD	n/a	wordpools/wordpool_EN.txt	CAPE	12	21	[0, 0, 0]	n/a	FR1	1	R1172E
2962.52	0.0	2970902	WORD_OFF	n/a	n/a	CAPE	12	21	[0, 0, 0]	n/a	FR1	1	R1172E
2962.52	0.001	2970902	DISTRACT_START	n/a	n/a	n/a	-999	21	[0, 0, 0]	n/a	FR1	1	R1172E
2962.521	0.016	2970903	START	n/a	n/a	n/a	-999	21	[-999, -999, -999]	n/a	FR1	1	R1172E
2962.537	5.402	2970919	PROB	5.402	n/a	n/a	-999	21	[3, 5, 1]	9	FR1	1	R1172E
2967.939	6.834	2976321	PROB	6.834	n/a	n/a	-999	21	[8, 4, 8]	20	FR1	1	R1172E
2974.773	11.621	2983154	PROB	11.621	n/a	n/a	-999	21	[8, 5, 2]	15	FR1	1	R1172E
2986.394	0.014	2994775	STOP	n/a	n/a	n/a	-999	21	[-999, -999, -999]	n/a	FR1	1	R1172E
2986.408	0.701	2994789	DISTRACT_END	n/a	n/a	n/a	-999	21	[0, 0, 0]	n/a	FR1	1	R1172E
2987.109	0.518	2995490	RETRIEVAL_ORIENT	n/a	n/a	n/a	-999	21	[0, 0, 0]	n/a	FR1	1	R1172E
2987.627	4.647	2996008	REC_START	n/a	n/a	n/a	-999	21	[0, 0, 0]	n/a	FR1	1	R1172E
2992.274	1.439	3000655	REC_WORD	1.439	n/a	ROSE	-999	21	[0, 0, 0]	n/a	FR1	1	R1172E
2993.713	11.941	3002094	REC_WORD	11.941	n/a	SPRING	-999	21	[0, 0, 0]	n/a	FR1	1	R1172E
3005.654	3.366	3014034	REC_WORD	3.366	n/a	RICE	-999	21	[0, 0, 0]	n/a	FR1	1	R1172E
3009.02	3.369	3017400	REC_WORD	3.369	n/a	PIN	-999	21	[0, 0, 0]	n/a	FR1	1	R1172E
3012.389	5.249	3020769	REC_WORD	5.249	n/a	LAND	-999	21	[0, 0, 0]	n/a	FR1	1	R1172E
3017.638	7.793	3026018	REC_END	n/a	n/a	n/a	-999	21	[0, 0, 0]	n/a	FR1	1	R1172E
3025.431	0.5	3033810	TRIAL	n/a	n/a	n/a	-999	22	[0, 0, 0]	n/a	FR1	1	R1172E
3025.931	10.428	3034310	COUNTDOWN_START	n/a	n/a	n/a	-999	22	[0, 0, 0]	n/a	FR1	1	R1172E
3036.359	0.007	3044738	COUNTDOWN_END	n/a	n/a	n/a	-999	22	[0, 0, 0]	n/a	FR1	1	R1172E
3036.366	1.601	3044745	ORIENT	n/a	n/a	n/a	-999	22	[0, 0, 0]	n/a	FR1	1	R1172E
3037.967	2.134	3046346	ORIENT_OFF	n/a	n/a	n/a	-999	22	[0, 0, 0]	n/a	FR1	1	R1172E
3040.101	1.617	3048480	WORD	n/a	wordpools/wordpool_EN.txt	RIB	1	22	[0, 0, 0]	n/a	FR1	1	R1172E
3041.718	0.8	3050097	WORD_OFF	n/a	n/a	RIB	1	22	[0, 0, 0]	n/a	FR1	1	R1172E
3042.518	1.618	3050897	WORD	n/a	wordpools/wordpool_EN.txt	HOLE	2	22	[0, 0, 0]	n/a	FR1	1	R1172E
3044.136	0.816	3052515	WORD_OFF	n/a	n/a	HOLE	2	22	[0, 0, 0]	n/a	FR1	1	R1172E
3044.952	1.616	3053331	WORD	n/a	wordpools/wordpool_EN.txt	GATE	3	22	[0, 0, 0]	n/a	FR1	1	R1172E
3046.568	0.884	3054947	WORD_OFF	n/a	n/a	GATE	3	22	[0, 0, 0]	n/a	FR1	1	R1172E
3047.452	1.618	3055831	WORD	n/a	wordpools/wordpool_EN.txt	BEE	4	22	[0, 0, 0]	n/a	FR1	1	R1172E
3049.07	0.9	3057448	WORD_OFF	n/a	n/a	BEE	4	22	[0, 0, 0]	n/a	FR1	1	R1172E
3049.97	1.616	3058348	WORD	n/a	wordpools/wordpool_EN.txt	MOLE	5	22	[0, 0, 0]	n/a	FR1	1	R1172E
3051.586	0.783	3059964	WORD_OFF	n/a	n/a	MOLE	5	22	[0, 0, 0]	n/a	FR1	1	R1172E
3052.369	1.618	3060747	WORD	n/a	wordpools/wordpool_EN.txt	FLOOR	6	22	[0, 0, 0]	n/a	FR1	1	R1172E
3053.987	0.867	3062365	WORD_OFF	n/a	n/a	FLOOR	6	22	[0, 0, 0]	n/a	FR1	1	R1172E
3054.854	1.616	3063232	WORD	n/a	wordpools/wordpool_EN.txt	SHIELD	7	22	[0, 0, 0]	n/a	FR1	1	R1172E
3056.47	0.817	3064848	WORD_OFF	n/a	n/a	SHIELD	7	22	[0, 0, 0]	n/a	FR1	1	R1172E
3057.287	1.618	3065665	WORD	n/a	wordpools/wordpool_EN.txt	ROOF	8	22	[0, 0, 0]	n/a	FR1	1	R1172E
3058.905	0.933	3067283	WORD_OFF	n/a	n/a	ROOF	8	22	[0, 0, 0]	n/a	FR1	1	R1172E
3059.838	1.616	3068216	WORD	n/a	wordpools/wordpool_EN.txt	AXE	9	22	[0, 0, 0]	n/a	FR1	1	R1172E
3061.454	0.9	3069832	WORD_OFF	n/a	n/a	AXE	9	22	[0, 0, 0]	n/a	FR1	1	R1172E
3062.354	1.601	3070732	WORD	n/a	wordpools/wordpool_EN.txt	CAVE	10	22	[0, 0, 0]	n/a	FR1	1	R1172E
3063.955	0.917	3072333	WORD_OFF	n/a	n/a	CAVE	10	22	[0, 0, 0]	n/a	FR1	1	R1172E
3064.872	1.617	3073250	WORD	n/a	wordpools/wordpool_EN.txt	STORM	11	22	[0, 0, 0]	n/a	FR1	1	R1172E
3066.489	0.784	3074867	WORD_OFF	n/a	n/a	STORM	11	22	[0, 0, 0]	n/a	FR1	1	R1172E
3067.273	1.617	3075651	WORD	n/a	wordpools/wordpool_EN.txt	CANE	12	22	[0, 0, 0]	n/a	FR1	1	R1172E
3068.89	0.0	3077268	WORD_OFF	n/a	n/a	CANE	12	22	[0, 0, 0]	n/a	FR1	1	R1172E
3068.89	0.0	3077268	DISTRACT_START	n/a	n/a	n/a	-999	22	[0, 0, 0]	n/a	FR1	1	R1172E
3068.89	0.017	3077268	START	n/a	n/a	n/a	-999	22	[-999, -999, -999]	n/a	FR1	1	R1172E
3068.907	9.218	3077285	PROB	9.218	n/a	n/a	-999	22	[5, 2, 8]	15	FR1	1	R1172E
3078.125	5.067	3086502	PROB	5.067	n/a	n/a	-999	22	[9, 3, 2]	14	FR1	1	R1172E
3083.192	11.372	3091569	PROB	11.372	n/a	n/a	-999	22	[9, 8, 7]	24	FR1	1	R1172E
3094.564	0.013	3102941	STOP	n/a	n/a	n/a	-999	22	[-999, -999, -999]	n/a	FR1	1	R1172E
3094.577	0.618	3102954	DISTRACT_END	n/a	n/a	n/a	-999	22	[0, 0, 0]	n/a	FR1	1	R1172E
3095.195	0.517	3103572	RETRIEVAL_ORIENT	n/a	n/a	n/a	-999	22	[0, 0, 0]	n/a	FR1	1	R1172E
3095.712	30.0	3104089	REC_START	n/a	n/a	n/a	-999	22	[0, 0, 0]	n/a	FR1	1	R1172E
3125.712	0.01	3134087	REC_WORD_VV	0.01	n/a	<>	-999	22	[0, 0, 0]	n/a	FR1	1	R1172E
3125.722	78.025	3134097	REC_END	n/a	n/a	n/a	-999	22	[0, 0, 0]	n/a	FR1	1	R1172E
3203.747	0.5	3212119	TRIAL	n/a	n/a	n/a	-999	23	[0, 0, 0]	n/a	FR1	1	R1172E
3204.247	10.428	3212619	COUNTDOWN_START	n/a	n/a	n/a	-999	23	[0, 0, 0]	n/a	FR1	1	R1172E
3214.675	0.007	3223047	COUNTDOWN_END	n/a	n/a	n/a	-999	23	[0, 0, 0]	n/a	FR1	1	R1172E
3214.682	1.616	3223054	ORIENT	n/a	n/a	n/a	-999	23	[0, 0, 0]	n/a	FR1	1	R1172E
3216.298	2.151	3224670	ORIENT_OFF	n/a	n/a	n/a	-999	23	[0, 0, 0]	n/a	FR1	1	R1172E
3218.449	1.618	3226821	WORD	n/a	wordpools/wordpool_EN.txt	WAVE	1	23	[0, 0, 0]	n/a	FR1	1	R1172E
3220.067	0.95	3228438	WORD_OFF	n/a	n/a	WAVE	1	23	[0, 0, 0]	n/a	FR1	1	R1172E
3221.017	1.617	3229388	WORD	n/a	wordpools/wordpool_EN.txt	TOOTH	2	23	[0, 0, 0]	n/a	FR1	1	R1172E
3222.634	0.965	3231005	WORD_OFF	n/a	n/a	TOOTH	2	23	[0, 0, 0]	n/a	FR1	1	R1172E
3223.599	1.618	3231970	WORD	n/a	wordpools/wordpool_EN.txt	BALL	3	23	[0, 0, 0]	n/a	FR1	1	R1172E
3225.217	0.901	3233588	WORD_OFF	n/a	n/a	BALL	3	23	[0, 0, 0]	n/a	FR1	1	R1172E
3226.118	1.616	3234489	WORD	n/a	wordpools/wordpool_EN.txt	WEED	4	23	[0, 0, 0]	n/a	FR1	1	R1172E
3227.734	0.934	3236105	WORD_OFF	n/a	n/a	WEED	4	23	[0, 0, 0]	n/a	FR1	1	R1172E
3228.668	1.617	3237039	WORD	n/a	wordpools/wordpool_EN.txt	HEART	5	23	[0, 0, 0]	n/a	FR1	1	R1172E
3230.285	0.767	3238656	WORD_OFF	n/a	n/a	HEART	5	23	[0, 0, 0]	n/a	FR1	1	R1172E
3231.052	1.617	3239423	WORD	n/a	wordpools/wordpool_EN.txt	FISH	6	23	[0, 0, 0]	n/a	FR1	1	R1172E
3232.669	0.866	3241040	WORD_OFF	n/a	n/a	FISH	6	23	[0, 0, 0]	n/a	FR1	1	R1172E
3233.535	1.601	3241906	WORD	n/a	wordpools/wordpool_EN.txt	BOMB	7	23	[0, 0, 0]	n/a	FR1	1	R1172E
3235.136	0.95	3243507	WORD_OFF	n/a	n/a	BOMB	7	23	[0, 0, 0]	n/a	FR1	1	R1172E
3236.086	1.617	3244457	WORD	n/a	wordpools/wordpool_EN.txt	EGG	8	23	[0, 0, 0]	n/a	FR1	1	R1172E
3237.703	0.899	3246074	WORD_OFF	n/a	n/a	EGG	8	23	[0, 0, 0]	n/a	FR1	1	R1172E
3238.602	1.618	3246973	WORD	n/a	wordpools/wordpool_EN.txt	POLE	9	23	[0, 0, 0]	n/a	FR1	1	R1172E
3240.22	0.984	3248591	WORD_OFF	n/a	n/a	POLE	9	23	[0, 0, 0]	n/a	FR1	1	R1172E
3241.204	1.617	3249575	WORD	n/a	wordpools/wordpool_EN.txt	WHEEL	10	23	[0, 0, 0]	n/a	FR1	1	R1172E
3242.821	0.833	3251192	WORD_OFF	n/a	n/a	WHEEL	10	23	[0, 0, 0]	n/a	FR1	1	R1172E
3243.654	1.617	3252025	WORD	n/a	wordpools/wordpool_EN.txt	FILM	11	23	[0, 0, 0]	n/a	FR1	1	R1172E
3245.271	0.933	3253641	WORD_OFF	n/a	n/a	FILM	11	23	[0, 0, 0]	n/a	FR1	1	R1172E
3246.204	1.617	3254574	WORD	n/a	wordpools/wordpool_EN.txt	CORD	12	23	[0, 0, 0]	n/a	FR1	1	R1172E
3247.821	0.0	3256191	WORD_OFF	n/a	n/a	CORD	12	23	[0, 0, 0]	n/a	FR1	1	R1172E
3247.821	0.001	3256191	DISTRACT_START	n/a	n/a	n/a	-999	23	[0, 0, 0]	n/a	FR1	1	R1172E
3247.822	0.016	3256192	START	n/a	n/a	n/a	-999	23	[-999, -999, -999]	n/a	FR1	1	R1172E
3247.838	9.467	3256208	PROB	9.467	n/a	n/a	-999	23	[4, 2, 5]	11	FR1	1	R1172E
3257.305	5.319	3265675	PROB	5.319	n/a	n/a	-999	23	[9, 7, 1]	17	FR1	1	R1172E
3262.624	7.655	3270994	PROB	7.655	n/a	n/a	-999	23	[5, 8, 8]	21	FR1	1	R1172E
3270.279	0.012	3278648	STOP	n/a	n/a	n/a	-999	23	[-999, -999, -999]	n/a	FR1	1	R1172E
3270.291	0.634	3278660	DISTRACT_END	n/a	n/a	n/a	-999	23	[0, 0, 0]	n/a	FR1	1	R1172E
3270.925	0.517	3279294	RETRIEVAL_ORIENT	n/a	n/a	n/a	-999	23	[0, 0, 0]	n/a	FR1	1	R1172E
3271.442	2.627	3279811	REC_START	n/a	n/a	n/a	-999	23	[0, 0, 0]	n/a	FR1	1	R1172E
3274.069	5.348	3282438	REC_WORD	5.348	n/a	WHEEL	-999	23	[0, 0, 0]	n/a	FR1	1	R1172E
3279.417	4.961	3287786	REC_WORD	4.961	n/a	STOVE	-999	23	[0, 0, 0]	n/a	FR1	1	R1172E
3284.378	3.427	3292747	REC_WORD	3.427	n/a	SHOW	-999	23	[0, 0, 0]	n/a	FR1	1	R1172E
3287.805	13.648	3296174	REC_WORD	13.648	n/a	WEED	-999	23	[0, 0, 0]	n/a	FR1	1	R1172E
3301.453	11.463	3309821	REC_END	n/a	n/a	n/a	-999	23	[0, 0, 0]	n/a	FR1	1	R1172E
3312.916	0.5	3321284	TRIAL	n/a	n/a	n/a	-999	24	[0, 0, 0]	n/a	FR1	1	R1172E
3313.416	10.428	3321784	COUNTDOWN_START	n/a	n/a	n/a	-999	24	[0, 0, 0]	n/a	FR1	1	R1172E
3323.844	0.007	3332211	COUNTDOWN_END	n/a	n/a	n/a	-999	24	[0, 0, 0]	n/a	FR1	1	R1172E
3323.851	1.616	3332218	ORIENT	n/a	n/a	n/a	-999	24	[0, 0, 0]	n/a	FR1	1	R1172E
3325.467	2.084	3333834	ORIENT_OFF	n/a	n/a	n/a	-999	24	[0, 0, 0]	n/a	FR1	1	R1172E
3327.551	1.618	3335918	WORD	n/a	wordpools/wordpool_EN.txt	CRANE	1	24	[0, 0, 0]	n/a	FR1	1	R1172E
3329.169	0.884	3337536	WORD_OFF	n/a	n/a	CRANE	1	24	[0, 0, 0]	n/a	FR1	1	R1172E
3330.053	1.616	3338420	WORD	n/a	wordpools/wordpool_EN.txt	DRUM	2	24	[0, 0, 0]	n/a	FR1	1	R1172E
3331.669	0.9	3340036	WORD_OFF	n/a	n/a	DRUM	2	24	[0, 0, 0]	n/a	FR1	1	R1172E
3332.569	1.618	3340936	WORD	n/a	wordpools/wordpool_EN.txt	PARK	3	24	[0, 0, 0]	n/a	FR1	1	R1172E
3334.187	0.866	3342554	WORD_OFF	n/a	n/a	PARK	3	24	[0, 0, 0]	n/a	FR1	1	R1172E
3335.053	1.617	3343420	WORD	n/a	wordpools/wordpool_EN.txt	VAN	4	24	[0, 0, 0]	n/a	FR1	1	R1172E
3336.67	0.883	3345037	WORD_OFF	n/a	n/a	VAN	4	24	[0, 0, 0]	n/a	FR1	1	R1172E
3337.553	1.618	3345920	WORD	n/a	wordpools/wordpool_EN.txt	ZOO	5	24	[0, 0, 0]	n/a	FR1	1	R1172E
3339.171	0.817	3347538	WORD_OFF	n/a	n/a	ZOO	5	24	[0, 0, 0]	n/a	FR1	1	R1172E
3339.988	1.616	3348355	WORD	n/a	wordpools/wordpool_EN.txt	FLAG	6	24	[0, 0, 0]	n/a	FR1	1	R1172E
3341.604	0.833	3349971	WORD_OFF	n/a	n/a	FLAG	6	24	[0, 0, 0]	n/a	FR1	1	R1172E
3342.437	1.618	3350803	WORD	n/a	wordpools/wordpool_EN.txt	BLUSH	7	24	[0, 0, 0]	n/a	FR1	1	R1172E
3344.055	0.834	3352421	WORD_OFF	n/a	n/a	BLUSH	7	24	[0, 0, 0]	n/a	FR1	1	R1172E
3344.889	1.616	3353255	WORD	n/a	wordpools/wordpool_EN.txt	GEESE	8	24	[0, 0, 0]	n/a	FR1	1	R1172E
3346.505	0.9	3354871	WORD_OFF	n/a	n/a	GEESE	8	24	[0, 0, 0]	n/a	FR1	1	R1172E
3347.405	1.618	3355771	WORD	n/a	wordpools/wordpool_EN.txt	EAR	9	24	[0, 0, 0]	n/a	FR1	1	R1172E
3349.023	0.933	3357389	WORD_OFF	n/a	n/a	EAR	9	24	[0, 0, 0]	n/a	FR1	1	R1172E
3349.956	1.616	3358322	WORD	n/a	wordpools/wordpool_EN.txt	SNOW	10	24	[0, 0, 0]	n/a	FR1	1	R1172E
3351.572	0.933	3359938	WORD_OFF	n/a	n/a	SNOW	10	24	[0, 0, 0]	n/a	FR1	1	R1172E
3352.505	1.618	3360871	WORD	n/a	wordpools/wordpool_EN.txt	DUCK	11	24	[0, 0, 0]	n/a	FR1	1	R1172E
3354.123	0.85	3362489	WORD_OFF	n/a	n/a	DUCK	11	24	[0, 0, 0]	n/a	FR1	1	R1172E
3354.973	1.617	3363339	WORD	n/a	wordpools/wordpool_EN.txt	BADGE	12	24	[0, 0, 0]	n/a	FR1	1	R1172E
3356.59	0.0	3364956	WORD_OFF	n/a	n/a	BADGE	12	24	[0, 0, 0]	n/a	FR1	1	R1172E
3356.59	0.0	3364956	DISTRACT_START	n/a	n/a	n/a	-999	24	[0, 0, 0]	n/a	FR1	1	R1172E
3356.59	0.017	3364956	START	n/a	n/a	n/a	-999	24	[-999, -999, -999]	n/a	FR1	1	R1172E
3356.607	7.402	3364973	PROB	7.402	n/a	n/a	-999	24	[3, 5, 8]	16	FR1	1	R1172E
3364.009	8.317	3372375	PROB	8.317	n/a	n/a	-999	24	[9, 9, 7]	25	FR1	1	R1172E
3372.326	4.234	3380691	PROB	4.234	n/a	n/a	-999	24	[2, 8, 2]	12	FR1	1	R1172E
3376.56	7.647	3384925	PROB	7.647	n/a	n/a	-999	24	[4, 2, 3]	9	FR1	1	R1172E
3384.207	0.021	3392572	STOP	n/a	n/a	n/a	-999	24	[-999, -999, -999]	n/a	FR1	1	R1172E
3384.228	0.567	3392593	DISTRACT_END	n/a	n/a	n/a	-999	24	[0, 0, 0]	n/a	FR1	1	R1172E
3384.795	0.517	3393160	RETRIEVAL_ORIENT	n/a	n/a	n/a	-999	24	[0, 0, 0]	n/a	FR1	1	R1172E
3385.312	1.404	3393677	REC_START	n/a	n/a	n/a	-999	24	[0, 0, 0]	n/a	FR1	1	R1172E
3386.716	18.693	3395081	REC_WORD	18.693	n/a	GEESE	-999	24	[0, 0, 0]	n/a	FR1	1	R1172E
3405.409	9.914	3413773	REC_WORD	9.914	n/a	STOOL	-999	24	[0, 0, 0]	n/a	FR1	1	R1172E
3415.323	70.206	3423686	REC_END	n/a	n/a	n/a	-999	24	[0, 0, 0]	n/a	FR1	1	R1172E
3485.529	0.5	3493890	TRIAL	n/a	n/a	n/a	-999	25	[0, 0, 0]	n/a	FR1	1	R1172E
3486.029	10.428	3494390	COUNTDOWN_START	n/a	n/a	n/a	-999	25	[0, 0, 0]	n/a	FR1	1	R1172E
3496.457	0.007	3504817	COUNTDOWN_END	n/a	n/a	n/a	-999	25	[0, 0, 0]	n/a	FR1	1	R1172E
3496.464	1.601	3504824	ORIENT	n/a	n/a	n/a	-999	25	[0, 0, 0]	n/a	FR1	1	R1172E
3498.065	2.018	3506425	ORIENT_OFF	n/a	n/a	n/a	-999	25	[0, 0, 0]	n/a	FR1	1	R1172E
3500.083	1.616	3508443	WORD	n/a	wordpools/wordpool_EN.txt	CLOWN	1	25	[0, 0, 0]	n/a	FR1	1	R1172E
3501.699	0.883	3510059	WORD_OFF	n/a	n/a	CLOWN	1	25	[0, 0, 0]	n/a	FR1	1	R1172E
3502.582	1.618	3510942	WORD	n/a	wordpools/wordpool_EN.txt	COUCH	2	25	[0, 0, 0]	n/a	FR1	1	R1172E
3504.2	0.967	3512560	WORD_OFF	n/a	n/a	COUCH	2	25	[0, 0, 0]	n/a	FR1	1	R1172E
3505.167	1.617	3513527	WORD	n/a	wordpools/wordpool_EN.txt	CART	3	25	[0, 0, 0]	n/a	FR1	1	R1172E
3506.784	0.967	3515144	WORD_OFF	n/a	n/a	CART	3	25	[0, 0, 0]	n/a	FR1	1	R1172E
3507.751	1.615	3516111	WORD	n/a	wordpools/wordpool_EN.txt	SHIRT	4	25	[0, 0, 0]	n/a	FR1	1	R1172E
3509.366	0.802	3517726	WORD_OFF	n/a	n/a	SHIRT	4	25	[0, 0, 0]	n/a	FR1	1	R1172E
3510.168	1.617	3518528	WORD	n/a	wordpools/wordpool_EN.txt	LOCK	5	25	[0, 0, 0]	n/a	FR1	1	R1172E
3511.785	0.966	3520145	WORD_OFF	n/a	n/a	LOCK	5	25	[0, 0, 0]	n/a	FR1	1	R1172E
3512.751	1.616	3521111	WORD	n/a	wordpools/wordpool_EN.txt	BAND	6	25	[0, 0, 0]	n/a	FR1	1	R1172E
3514.367	1.001	3522726	WORD_OFF	n/a	n/a	BAND	6	25	[0, 0, 0]	n/a	FR1	1	R1172E
3515.368	1.617	3523727	WORD	n/a	wordpools/wordpool_EN.txt	ARK	7	25	[0, 0, 0]	n/a	FR1	1	R1172E
3516.985	0.801	3525344	WORD_OFF	n/a	n/a	ARK	7	25	[0, 0, 0]	n/a	FR1	1	R1172E
3517.786	1.616	3526145	WORD	n/a	wordpools/wordpool_EN.txt	CLOCK	8	25	[0, 0, 0]	n/a	FR1	1	R1172E
3519.402	0.95	3527761	WORD_OFF	n/a	n/a	CLOCK	8	25	[0, 0, 0]	n/a	FR1	1	R1172E
3520.352	1.618	3528711	WORD	n/a	wordpools/wordpool_EN.txt	FORK	9	25	[0, 0, 0]	n/a	FR1	1	R1172E
3521.97	0.767	3530329	WORD_OFF	n/a	n/a	FORK	9	25	[0, 0, 0]	n/a	FR1	1	R1172E
3522.737	1.615	3531096	WORD	n/a	wordpools/wordpool_EN.txt	TRUCK	10	25	[0, 0, 0]	n/a	FR1	1	R1172E
3524.352	0.885	3532711	WORD_OFF	n/a	n/a	TRUCK	10	25	[0, 0, 0]	n/a	FR1	1	R1172E
3525.237	1.617	3533596	WORD	n/a	wordpools/wordpool_EN.txt	STREET	11	25	[0, 0, 0]	n/a	FR1	1	R1172E
3526.854	0.917	3535213	WORD_OFF	n/a	n/a	STREET	11	25	[0, 0, 0]	n/a	FR1	1	R1172E
3527.771	1.616	3536130	WORD	n/a	wordpools/wordpool_EN.txt	DIME	12	25	[0, 0, 0]	n/a	FR1	1	R1172E
3529.387	0.0	3537746	WORD_OFF	n/a	n/a	DIME	12	25	[0, 0, 0]	n/a	FR1	1	R1172E
3529.387	0.0	3537746	DISTRACT_START	n/a	n/a	n/a	-999	25	[0, 0, 0]	n/a	FR1	1	R1172E
3529.387	0.016	3537746	START	n/a	n/a	n/a	-999	25	[-999, -999, -999]	n/a	FR1	1	R1172E
3529.403	5.586	3537762	PROB	5.586	n/a	n/a	-999	25	[7, 1, 2]	10	FR1	1	R1172E
3534.989	8.533	3543348	PROB	8.533	n/a	n/a	-999	25	[5, 6, 2]	13	FR1	1	R1172E
3543.522	10.089	3551880	PROB	10.089	n/a	n/a	-999	25	[5, 8, 8]	21	FR1	1	R1172E
3553.611	0.014	3561969	STOP	n/a	n/a	n/a	-999	25	[-999, -999, -999]	n/a	FR1	1	R1172E
3553.625	0.617	3561983	DISTRACT_END	n/a	n/a	n/a	-999	25	[0, 0, 0]	n/a	FR1	1	R1172E
3554.242	0.518	3562600	RETRIEVAL_ORIENT	n/a	n/a	n/a	-999	25	[0, 0, 0]	n/a	FR1	1	R1172E
3554.76	1.721	3563118	REC_START	n/a	n/a	n/a	-999	25	[0, 0, 0]	n/a	FR1	1	R1172E
3556.481	1.123	3564839	REC_WORD	1.123	n/a	ARK	-999	25	[0, 0, 0]	n/a	FR1	1	R1172E
3557.604	5.772	3565962	REC_WORD	5.772	n/a	TRUCK	-999	25	[0, 0, 0]	n/a	FR1	1	R1172E
3563.376	21.394	3571733	REC_WORD	21.394	n/a	SHEEP	-999	25	[0, 0, 0]	n/a	FR1	1	R1172E
3584.77	76.59	3593127	REC_END	n/a	n/a	n/a	-999	25	[0, 0, 0]	n/a	FR1	1	R1172E
3661.36	0.0	3669713	SESS_END	n/a	n/a	n/a	-999	25	[0, 0, 0]	n/a	FR1	1	R1172E
