onset	duration	sample	trial_type	response_time	stim_file	item_name	serialpos	list	test	answer	experiment	session	subject
0.0	0.0	6993	INSTRUCT_START	n/a	n/a	n/a	-999	-999	[0, 0, 0]	n/a	FR1	0	R1217T
0.0	10.896	6993	INSTRUCT_END	n/a	n/a	n/a	-999	-999	[0, 0, 0]	n/a	FR1	0	R1217T
10.896	0.0	17889	SESS_START	n/a	n/a	n/a	-999	-999	[0, 0, 0]	n/a	FR1	0	R1217T
10.896	19.501	17889	MIC_TEST	n/a	n/a	n/a	-999	-999	[0, 0, 0]	n/a	FR1	0	R1217T
30.397	4.076	37389	PRACTICE_TRIAL	n/a	n/a	n/a	-999	-1	[0, 0, 0]	n/a	FR1	0	R1217T
34.473	10.428	41464	COUNTDOWN_START	n/a	n/a	n/a	-999	-1	[0, 0, 0]	n/a	FR1	0	R1217T
44.901	0.007	51892	COUNTDOWN_END	n/a	n/a	n/a	-999	-1	[0, 0, 0]	n/a	FR1	0	R1217T
44.908	1.616	51899	PRACTICE_ORIENT	n/a	n/a	n/a	-999	-1	[0, 0, 0]	n/a	FR1	0	R1217T
46.524	2.352	53515	PRACTICE_ORIENT_OFF	n/a	n/a	n/a	-999	-1	[0, 0, 0]	n/a	FR1	0	R1217T
48.876	1.616	55866	PRACTICE_WORD	n/a	n/a	IRON	1	-1	[0, 0, 0]	n/a	FR1	0	R1217T
50.492	0.833	57482	PRACTICE_WORD_OFF	n/a	n/a	IRON	-999	-1	[0, 0, 0]	n/a	FR1	0	R1217T
51.325	1.618	58315	PRACTICE_WORD	n/a	n/a	CAMEL	2	-1	[0, 0, 0]	n/a	FR1	0	R1217T
52.943	0.799	59933	PRACTICE_WORD_OFF	n/a	n/a	CAMEL	-999	-1	[0, 0, 0]	n/a	FR1	0	R1217T
53.742	1.617	60732	PRACTICE_WORD	n/a	n/a	WATCH	3	-1	[0, 0, 0]	n/a	FR1	0	R1217T
55.359	0.851	62349	PRACTICE_WORD_OFF	n/a	n/a	WATCH	-999	-1	[0, 0, 0]	n/a	FR1	0	R1217T
56.21	1.616	63200	PRACTICE_WORD	n/a	n/a	FLOOD	4	-1	[0, 0, 0]	n/a	FR1	0	R1217T
57.826	0.951	64816	PRACTICE_WORD_OFF	n/a	n/a	FLOOD	-999	-1	[0, 0, 0]	n/a	FR1	0	R1217T
58.777	1.616	65767	PRACTICE_WORD	n/a	n/a	ATTIC	5	-1	[0, 0, 0]	n/a	FR1	0	R1217T
60.393	0.868	67383	PRACTICE_WORD_OFF	n/a	n/a	ATTIC	-999	-1	[0, 0, 0]	n/a	FR1	0	R1217T
61.261	1.617	68251	PRACTICE_WORD	n/a	n/a	RING	6	-1	[0, 0, 0]	n/a	FR1	0	R1217T
62.878	0.967	69868	PRACTICE_WORD_OFF	n/a	n/a	RING	-999	-1	[0, 0, 0]	n/a	FR1	0	R1217T
63.845	1.616	70835	PRACTICE_WORD	n/a	n/a	BEAM	7	-1	[0, 0, 0]	n/a	FR1	0	R1217T
65.461	0.9	72450	PRACTICE_WORD_OFF	n/a	n/a	BEAM	-999	-1	[0, 0, 0]	n/a	FR1	0	R1217T
66.361	1.601	73350	PRACTICE_WORD	n/a	n/a	WAGON	8	-1	[0, 0, 0]	n/a	FR1	0	R1217T
67.962	0.917	74951	PRACTICE_WORD_OFF	n/a	n/a	WAGON	-999	-1	[0, 0, 0]	n/a	FR1	0	R1217T
68.879	1.616	75868	PRACTICE_WORD	n/a	n/a	RHINO	9	-1	[0, 0, 0]	n/a	FR1	0	R1217T
70.495	0.9	77484	PRACTICE_WORD_OFF	n/a	n/a	RHINO	-999	-1	[0, 0, 0]	n/a	FR1	0	R1217T
71.395	1.618	78384	PRACTICE_WORD	n/a	n/a	COTTON	10	-1	[0, 0, 0]	n/a	FR1	0	R1217T
73.013	0.95	80002	PRACTICE_WORD_OFF	n/a	n/a	COTTON	-999	-1	[0, 0, 0]	n/a	FR1	0	R1217T
73.963	1.617	80952	PRACTICE_WORD	n/a	n/a	CHEST	11	-1	[0, 0, 0]	n/a	FR1	0	R1217T
75.58	0.783	82569	PRACTICE_WORD_OFF	n/a	n/a	CHEST	-999	-1	[0, 0, 0]	n/a	FR1	0	R1217T
76.363	1.618	83352	PRACTICE_WORD	n/a	n/a	TONGUE	12	-1	[0, 0, 0]	n/a	FR1	0	R1217T
77.981	0.0	84970	PRACTICE_WORD_OFF	n/a	n/a	TONGUE	-999	-1	[0, 0, 0]	n/a	FR1	0	R1217T
77.981	0.001	84970	DISTRACT_START	n/a	n/a	n/a	-999	-1	[0, 0, 0]	n/a	FR1	0	R1217T
77.982	0.016	84971	START	n/a	n/a	n/a	-999	-1	[-999, -999, -999]	n/a	FR1	0	R1217T
77.998	10.068	84987	PROB	10.068	n/a	n/a	-999	-1	[3, 8, 7]	18	FR1	0	R1217T
88.066	3.283	95054	PROB	3.283	n/a	n/a	-999	-1	[6, 2, 8]	16	FR1	0	R1217T
91.349	3.251	98337	PROB	3.251	n/a	n/a	-999	-1	[4, 1, 1]	6	FR1	0	R1217T
94.6	3.893	101588	PROB	3.893	n/a	n/a	-999	-1	[5, 6, 9]	20	FR1	0	R1217T
98.493	0.007	105480	STOP	n/a	n/a	n/a	-999	-1	[-999, -999, -999]	n/a	FR1	0	R1217T
98.5	0.552	105487	DISTRACT_END	n/a	n/a	n/a	-999	-1	[0, 0, 0]	n/a	FR1	0	R1217T
99.052	0.519	106039	RETRIEVAL_ORIENT	n/a	n/a	n/a	-999	-1	[0, 0, 0]	n/a	FR1	0	R1217T
99.571	30.008	106558	PRACTICE_REC_START	n/a	n/a	n/a	-999	-1	[0, 0, 0]	n/a	FR1	0	R1217T
129.579	216.484	136565	PRACTICE_REC_END	n/a	n/a	n/a	-999	-1	[0, 0, 0]	n/a	FR1	0	R1217T
346.063	0.5	353036	TRIAL	n/a	n/a	n/a	-999	1	[0, 0, 0]	n/a	FR1	0	R1217T
346.563	10.428	353536	COUNTDOWN_START	n/a	n/a	n/a	-999	1	[0, 0, 0]	n/a	FR1	0	R1217T
356.991	0.007	363963	COUNTDOWN_END	n/a	n/a	n/a	-999	1	[0, 0, 0]	n/a	FR1	0	R1217T
356.998	1.616	363970	ORIENT	n/a	n/a	n/a	-999	1	[0, 0, 0]	n/a	FR1	0	R1217T
358.614	2.184	365586	ORIENT_OFF	n/a	n/a	n/a	-999	1	[0, 0, 0]	n/a	FR1	0	R1217T
360.798	1.617	367770	WORD	n/a	wordpools/wordpool_EN.txt	THUMB	1	1	[0, 0, 0]	n/a	FR1	0	R1217T
362.415	1.0	369387	WORD_OFF	n/a	n/a	THUMB	1	1	[0, 0, 0]	n/a	FR1	0	R1217T
363.415	1.618	370387	WORD	n/a	wordpools/wordpool_EN.txt	VAN	2	1	[0, 0, 0]	n/a	FR1	0	R1217T
365.033	1.0	372005	WORD_OFF	n/a	n/a	VAN	2	1	[0, 0, 0]	n/a	FR1	0	R1217T
366.033	1.616	373004	WORD	n/a	wordpools/wordpool_EN.txt	DRUM	3	1	[0, 0, 0]	n/a	FR1	0	R1217T
367.649	0.884	374620	WORD_OFF	n/a	n/a	DRUM	3	1	[0, 0, 0]	n/a	FR1	0	R1217T
368.533	1.618	375504	WORD	n/a	wordpools/wordpool_EN.txt	BAND	4	1	[0, 0, 0]	n/a	FR1	0	R1217T
370.151	0.833	377122	WORD_OFF	n/a	n/a	BAND	4	1	[0, 0, 0]	n/a	FR1	0	R1217T
370.984	1.616	377955	WORD	n/a	wordpools/wordpool_EN.txt	SKI	5	1	[0, 0, 0]	n/a	FR1	0	R1217T
372.6	0.9	379571	WORD_OFF	n/a	n/a	SKI	5	1	[0, 0, 0]	n/a	FR1	0	R1217T
373.5	1.601	380471	WORD	n/a	wordpools/wordpool_EN.txt	HORN	6	1	[0, 0, 0]	n/a	FR1	0	R1217T
375.101	1.001	382072	WORD_OFF	n/a	n/a	HORN	6	1	[0, 0, 0]	n/a	FR1	0	R1217T
376.102	1.616	383073	WORD	n/a	wordpools/wordpool_EN.txt	CANE	7	1	[0, 0, 0]	n/a	FR1	0	R1217T
377.718	0.833	384689	WORD_OFF	n/a	n/a	CANE	7	1	[0, 0, 0]	n/a	FR1	0	R1217T
378.551	1.618	385522	WORD	n/a	wordpools/wordpool_EN.txt	CHEEK	8	1	[0, 0, 0]	n/a	FR1	0	R1217T
380.169	0.967	387140	WORD_OFF	n/a	n/a	CHEEK	8	1	[0, 0, 0]	n/a	FR1	0	R1217T
381.136	1.616	388107	WORD	n/a	wordpools/wordpool_EN.txt	ARM	9	1	[0, 0, 0]	n/a	FR1	0	R1217T
382.752	0.8	389722	WORD_OFF	n/a	n/a	ARM	9	1	[0, 0, 0]	n/a	FR1	0	R1217T
383.552	1.618	390522	WORD	n/a	wordpools/wordpool_EN.txt	ARK	10	1	[0, 0, 0]	n/a	FR1	0	R1217T
385.17	0.9	392140	WORD_OFF	n/a	n/a	ARK	10	1	[0, 0, 0]	n/a	FR1	0	R1217T
386.07	1.616	393040	WORD	n/a	wordpools/wordpool_EN.txt	SQUARE	11	1	[0, 0, 0]	n/a	FR1	0	R1217T
387.686	0.834	394656	WORD_OFF	n/a	n/a	SQUARE	11	1	[0, 0, 0]	n/a	FR1	0	R1217T
388.52	1.618	395490	WORD	n/a	wordpools/wordpool_EN.txt	ROAD	12	1	[0, 0, 0]	n/a	FR1	0	R1217T
390.138	0.0	397108	WORD_OFF	n/a	n/a	ROAD	12	1	[0, 0, 0]	n/a	FR1	0	R1217T
390.138	0.0	397108	DISTRACT_START	n/a	n/a	n/a	-999	1	[0, 0, 0]	n/a	FR1	0	R1217T
390.138	0.016	397108	START	n/a	n/a	n/a	-999	1	[-999, -999, -999]	n/a	FR1	0	R1217T
390.154	6.567	397124	PROB	6.567	n/a	n/a	-999	1	[4, 2, 7]	13	FR1	0	R1217T
396.721	3.668	403691	PROB	3.668	n/a	n/a	-999	1	[6, 3, 4]	13	FR1	0	R1217T
400.389	3.217	407358	PROB	3.217	n/a	n/a	-999	1	[1, 4, 2]	7	FR1	0	R1217T
403.606	3.067	410575	PROB	3.067	n/a	n/a	-999	1	[9, 9, 4]	22	FR1	0	R1217T
406.673	3.556	413642	PROB	3.556	n/a	n/a	-999	1	[8, 8, 4]	20	FR1	0	R1217T
410.229	0.012	417198	STOP	n/a	n/a	n/a	-999	1	[-999, -999, -999]	n/a	FR1	0	R1217T
410.241	0.583	417210	DISTRACT_END	n/a	n/a	n/a	-999	1	[0, 0, 0]	n/a	FR1	0	R1217T
410.824	0.517	417793	RETRIEVAL_ORIENT	n/a	n/a	n/a	-999	1	[0, 0, 0]	n/a	FR1	0	R1217T
411.341	1.108	418310	REC_START	n/a	n/a	n/a	-999	1	[0, 0, 0]	n/a	FR1	0	R1217T
412.449	0.663	419418	REC_WORD	0.663	n/a	THUMB	1	1	[0, 0, 0]	n/a	FR1	0	R1217T
413.112	0.757	420081	REC_WORD	0.757	n/a	DRUM	3	1	[0, 0, 0]	n/a	FR1	0	R1217T
413.869	0.883	420838	REC_WORD	0.883	n/a	BAND	4	1	[0, 0, 0]	n/a	FR1	0	R1217T
414.752	0.896	421721	REC_WORD	0.896	n/a	SKI	5	1	[0, 0, 0]	n/a	FR1	0	R1217T
415.648	2.765	422617	REC_WORD	2.765	n/a	ARK	10	1	[0, 0, 0]	n/a	FR1	0	R1217T
418.413	9.428	425381	REC_WORD	9.428	n/a	HORN	6	1	[0, 0, 0]	n/a	FR1	0	R1217T
427.841	13.511	434809	REC_WORD	13.511	n/a	NAIL	-999	1	[0, 0, 0]	n/a	FR1	0	R1217T
441.352	7.746	448319	REC_END	n/a	n/a	n/a	-999	1	[0, 0, 0]	n/a	FR1	0	R1217T
449.098	0.5	456065	TRIAL	n/a	n/a	n/a	-999	2	[0, 0, 0]	n/a	FR1	0	R1217T
449.598	10.428	456564	COUNTDOWN_START	n/a	n/a	n/a	-999	2	[0, 0, 0]	n/a	FR1	0	R1217T
460.026	0.008	466992	COUNTDOWN_END	n/a	n/a	n/a	-999	2	[0, 0, 0]	n/a	FR1	0	R1217T
460.034	1.616	467000	ORIENT	n/a	n/a	n/a	-999	2	[0, 0, 0]	n/a	FR1	0	R1217T
461.65	2.234	468616	ORIENT_OFF	n/a	n/a	n/a	-999	2	[0, 0, 0]	n/a	FR1	0	R1217T
463.884	1.616	470850	WORD	n/a	wordpools/wordpool_EN.txt	FACE	1	2	[0, 0, 0]	n/a	FR1	0	R1217T
465.5	0.917	472466	WORD_OFF	n/a	n/a	FACE	1	2	[0, 0, 0]	n/a	FR1	0	R1217T
466.417	1.601	473382	WORD	n/a	wordpools/wordpool_EN.txt	SHOE	2	2	[0, 0, 0]	n/a	FR1	0	R1217T
468.018	0.934	474983	WORD_OFF	n/a	n/a	SHOE	2	2	[0, 0, 0]	n/a	FR1	0	R1217T
468.952	1.616	475917	WORD	n/a	wordpools/wordpool_EN.txt	TOY	3	2	[0, 0, 0]	n/a	FR1	0	R1217T
470.568	0.967	477533	WORD_OFF	n/a	n/a	TOY	3	2	[0, 0, 0]	n/a	FR1	0	R1217T
471.535	1.618	478500	WORD	n/a	wordpools/wordpool_EN.txt	DIME	4	2	[0, 0, 0]	n/a	FR1	0	R1217T
473.153	0.8	480118	WORD_OFF	n/a	n/a	DIME	4	2	[0, 0, 0]	n/a	FR1	0	R1217T
473.953	1.616	480918	WORD	n/a	wordpools/wordpool_EN.txt	GRASS	5	2	[0, 0, 0]	n/a	FR1	0	R1217T
475.569	0.833	482534	WORD_OFF	n/a	n/a	GRASS	5	2	[0, 0, 0]	n/a	FR1	0	R1217T
476.402	1.618	483367	WORD	n/a	wordpools/wordpool_EN.txt	PALM	6	2	[0, 0, 0]	n/a	FR1	0	R1217T
478.02	0.917	484985	WORD_OFF	n/a	n/a	PALM	6	2	[0, 0, 0]	n/a	FR1	0	R1217T
478.937	1.616	485902	WORD	n/a	wordpools/wordpool_EN.txt	SUN	7	2	[0, 0, 0]	n/a	FR1	0	R1217T
480.553	1.0	487518	WORD_OFF	n/a	n/a	SUN	7	2	[0, 0, 0]	n/a	FR1	0	R1217T
481.553	1.601	488518	WORD	n/a	wordpools/wordpool_EN.txt	LIP	8	2	[0, 0, 0]	n/a	FR1	0	R1217T
483.154	0.917	490118	WORD_OFF	n/a	n/a	LIP	8	2	[0, 0, 0]	n/a	FR1	0	R1217T
484.071	1.616	491035	WORD	n/a	wordpools/wordpool_EN.txt	STICK	9	2	[0, 0, 0]	n/a	FR1	0	R1217T
485.687	0.984	492651	WORD_OFF	n/a	n/a	STICK	9	2	[0, 0, 0]	n/a	FR1	0	R1217T
486.671	1.617	493635	WORD	n/a	wordpools/wordpool_EN.txt	LEG	10	2	[0, 0, 0]	n/a	FR1	0	R1217T
488.288	0.984	495252	WORD_OFF	n/a	n/a	LEG	10	2	[0, 0, 0]	n/a	FR1	0	R1217T
489.272	1.617	496236	WORD	n/a	wordpools/wordpool_EN.txt	BALL	11	2	[0, 0, 0]	n/a	FR1	0	R1217T
490.889	0.967	497853	WORD_OFF	n/a	n/a	BALL	11	2	[0, 0, 0]	n/a	FR1	0	R1217T
491.856	1.616	498820	WORD	n/a	wordpools/wordpool_EN.txt	BENCH	12	2	[0, 0, 0]	n/a	FR1	0	R1217T
493.472	0.0	500436	WORD_OFF	n/a	n/a	BENCH	12	2	[0, 0, 0]	n/a	FR1	0	R1217T
493.472	0.001	500436	DISTRACT_START	n/a	n/a	n/a	-999	2	[0, 0, 0]	n/a	FR1	0	R1217T
493.473	0.016	500437	START	n/a	n/a	n/a	-999	2	[-999, -999, -999]	n/a	FR1	0	R1217T
493.489	13.786	500453	PROB	13.786	n/a	n/a	-999	2	[4, 6, 7]	17	FR1	0	R1217T
507.275	3.818	514238	PROB	3.818	n/a	n/a	-999	2	[3, 4, 3]	10	FR1	0	R1217T
511.093	3.104	518056	PROB	3.104	n/a	n/a	-999	2	[7, 1, 7]	15	FR1	0	R1217T
514.197	0.013	521160	STOP	n/a	n/a	n/a	-999	2	[-999, -999, -999]	n/a	FR1	0	R1217T
514.21	0.549	521173	DISTRACT_END	n/a	n/a	n/a	-999	2	[0, 0, 0]	n/a	FR1	0	R1217T
514.759	0.518	521722	RETRIEVAL_ORIENT	n/a	n/a	n/a	-999	2	[0, 0, 0]	n/a	FR1	0	R1217T
515.277	3.818	522240	REC_START	n/a	n/a	n/a	-999	2	[0, 0, 0]	n/a	FR1	0	R1217T
519.095	0.616	526057	REC_WORD	0.616	n/a	FACE	1	2	[0, 0, 0]	n/a	FR1	0	R1217T
519.711	0.904	526673	REC_WORD	0.904	n/a	PALM	6	2	[0, 0, 0]	n/a	FR1	0	R1217T
520.615	1.633	527577	REC_WORD	1.633	n/a	SUN	7	2	[0, 0, 0]	n/a	FR1	0	R1217T
522.248	23.04	529210	REC_WORD	23.04	n/a	TREE	-999	2	[0, 0, 0]	n/a	FR1	0	R1217T
545.288	6.495	552249	REC_END	n/a	n/a	n/a	-999	2	[0, 0, 0]	n/a	FR1	0	R1217T
551.783	0.5	558743	TRIAL	n/a	n/a	n/a	-999	3	[0, 0, 0]	n/a	FR1	0	R1217T
552.283	10.428	559243	COUNTDOWN_START	n/a	n/a	n/a	-999	3	[0, 0, 0]	n/a	FR1	0	R1217T
562.711	0.007	569671	COUNTDOWN_END	n/a	n/a	n/a	-999	3	[0, 0, 0]	n/a	FR1	0	R1217T
562.718	1.617	569678	ORIENT	n/a	n/a	n/a	-999	3	[0, 0, 0]	n/a	FR1	0	R1217T
564.335	2.334	571295	ORIENT_OFF	n/a	n/a	n/a	-999	3	[0, 0, 0]	n/a	FR1	0	R1217T
566.669	1.617	573629	WORD	n/a	wordpools/wordpool_EN.txt	MOOSE	1	3	[0, 0, 0]	n/a	FR1	0	R1217T
568.286	0.917	575245	WORD_OFF	n/a	n/a	MOOSE	1	3	[0, 0, 0]	n/a	FR1	0	R1217T
569.203	1.617	576162	WORD	n/a	wordpools/wordpool_EN.txt	PLANT	2	3	[0, 0, 0]	n/a	FR1	0	R1217T
570.82	0.8	577779	WORD_OFF	n/a	n/a	PLANT	2	3	[0, 0, 0]	n/a	FR1	0	R1217T
571.62	1.618	578579	WORD	n/a	wordpools/wordpool_EN.txt	RICE	3	3	[0, 0, 0]	n/a	FR1	0	R1217T
573.238	0.8	580197	WORD_OFF	n/a	n/a	RICE	3	3	[0, 0, 0]	n/a	FR1	0	R1217T
574.038	1.616	580997	WORD	n/a	wordpools/wordpool_EN.txt	LAMB	4	3	[0, 0, 0]	n/a	FR1	0	R1217T
575.654	0.85	582613	WORD_OFF	n/a	n/a	LAMB	4	3	[0, 0, 0]	n/a	FR1	0	R1217T
576.504	1.618	583463	WORD	n/a	wordpools/wordpool_EN.txt	SEA	5	3	[0, 0, 0]	n/a	FR1	0	R1217T
578.122	0.817	585081	WORD_OFF	n/a	n/a	SEA	5	3	[0, 0, 0]	n/a	FR1	0	R1217T
578.939	1.616	585898	WORD	n/a	wordpools/wordpool_EN.txt	PEARL	6	3	[0, 0, 0]	n/a	FR1	0	R1217T
580.555	1.0	587514	WORD_OFF	n/a	n/a	PEARL	6	3	[0, 0, 0]	n/a	FR1	0	R1217T
581.555	1.601	588514	WORD	n/a	wordpools/wordpool_EN.txt	SHRIMP	7	3	[0, 0, 0]	n/a	FR1	0	R1217T
583.156	0.9	590115	WORD_OFF	n/a	n/a	SHRIMP	7	3	[0, 0, 0]	n/a	FR1	0	R1217T
584.056	1.616	591014	WORD	n/a	wordpools/wordpool_EN.txt	STEM	8	3	[0, 0, 0]	n/a	FR1	0	R1217T
585.672	1.0	592630	WORD_OFF	n/a	n/a	STEM	8	3	[0, 0, 0]	n/a	FR1	0	R1217T
586.672	1.601	593630	WORD	n/a	wordpools/wordpool_EN.txt	SEED	9	3	[0, 0, 0]	n/a	FR1	0	R1217T
588.273	0.951	595231	WORD_OFF	n/a	n/a	SEED	9	3	[0, 0, 0]	n/a	FR1	0	R1217T
589.224	1.617	596182	WORD	n/a	wordpools/wordpool_EN.txt	FOOD	10	3	[0, 0, 0]	n/a	FR1	0	R1217T
590.841	0.799	597799	WORD_OFF	n/a	n/a	FOOD	10	3	[0, 0, 0]	n/a	FR1	0	R1217T
591.64	1.618	598598	WORD	n/a	wordpools/wordpool_EN.txt	SPONGE	11	3	[0, 0, 0]	n/a	FR1	0	R1217T
593.258	0.933	600216	WORD_OFF	n/a	n/a	SPONGE	11	3	[0, 0, 0]	n/a	FR1	0	R1217T
594.191	1.616	601149	WORD	n/a	wordpools/wordpool_EN.txt	THREAD	12	3	[0, 0, 0]	n/a	FR1	0	R1217T
595.807	0.0	602765	WORD_OFF	n/a	n/a	THREAD	12	3	[0, 0, 0]	n/a	FR1	0	R1217T
595.807	0.001	602765	DISTRACT_START	n/a	n/a	n/a	-999	3	[0, 0, 0]	n/a	FR1	0	R1217T
595.808	0.016	602766	START	n/a	n/a	n/a	-999	3	[-999, -999, -999]	n/a	FR1	0	R1217T
595.824	4.085	602782	PROB	4.085	n/a	n/a	-999	3	[9, 4, 9]	22	FR1	0	R1217T
599.909	3.184	606867	PROB	3.184	n/a	n/a	-999	3	[9, 9, 5]	23	FR1	0	R1217T
603.093	3.901	610050	PROB	3.901	n/a	n/a	-999	3	[8, 3, 6]	17	FR1	0	R1217T
606.994	3.0	613951	PROB	3.0	n/a	n/a	-999	3	[7, 6, 9]	22	FR1	0	R1217T
609.994	24.172	616951	PROB	24.172	n/a	n/a	-999	3	[4, 7, 5]	16	FR1	0	R1217T
634.166	0.016	641121	STOP	n/a	n/a	n/a	-999	3	[-999, -999, -999]	n/a	FR1	0	R1217T
634.182	0.7	641137	DISTRACT_END	n/a	n/a	n/a	-999	3	[0, 0, 0]	n/a	FR1	0	R1217T
634.882	0.517	641837	RETRIEVAL_ORIENT	n/a	n/a	n/a	-999	3	[0, 0, 0]	n/a	FR1	0	R1217T
635.399	1.301	642354	REC_START	n/a	n/a	n/a	-999	3	[0, 0, 0]	n/a	FR1	0	R1217T
636.7	0.602	643655	REC_WORD	0.602	n/a	RICE	3	3	[0, 0, 0]	n/a	FR1	0	R1217T
637.302	1.68	644257	REC_WORD	1.68	n/a	PLANT	2	3	[0, 0, 0]	n/a	FR1	0	R1217T
638.982	2.451	645937	REC_WORD	2.451	n/a	PALM	-999	3	[0, 0, 0]	n/a	FR1	0	R1217T
641.433	1.311	648388	REC_WORD	1.311	n/a	SUN	-999	3	[0, 0, 0]	n/a	FR1	0	R1217T
642.744	2.797	649699	REC_WORD	2.797	n/a	TREE	-999	3	[0, 0, 0]	n/a	FR1	0	R1217T
645.541	19.869	652496	REC_WORD	19.869	n/a	MOOSE	1	3	[0, 0, 0]	n/a	FR1	0	R1217T
665.41	9.596	672364	REC_END	n/a	n/a	n/a	-999	3	[0, 0, 0]	n/a	FR1	0	R1217T
675.006	0.5	681959	TRIAL	n/a	n/a	n/a	-999	4	[0, 0, 0]	n/a	FR1	0	R1217T
675.506	10.428	682459	COUNTDOWN_START	n/a	n/a	n/a	-999	4	[0, 0, 0]	n/a	FR1	0	R1217T
685.934	0.008	692886	COUNTDOWN_END	n/a	n/a	n/a	-999	4	[0, 0, 0]	n/a	FR1	0	R1217T
685.942	1.615	692894	ORIENT	n/a	n/a	n/a	-999	4	[0, 0, 0]	n/a	FR1	0	R1217T
687.557	2.151	694509	ORIENT_OFF	n/a	n/a	n/a	-999	4	[0, 0, 0]	n/a	FR1	0	R1217T
689.708	1.617	696660	WORD	n/a	wordpools/wordpool_EN.txt	BROOM	1	4	[0, 0, 0]	n/a	FR1	0	R1217T
691.325	0.868	698277	WORD_OFF	n/a	n/a	BROOM	1	4	[0, 0, 0]	n/a	FR1	0	R1217T
692.193	1.616	699145	WORD	n/a	wordpools/wordpool_EN.txt	PIT	2	4	[0, 0, 0]	n/a	FR1	0	R1217T
693.809	0.966	700761	WORD_OFF	n/a	n/a	PIT	2	4	[0, 0, 0]	n/a	FR1	0	R1217T
694.775	1.617	701727	WORD	n/a	wordpools/wordpool_EN.txt	PIG	3	4	[0, 0, 0]	n/a	FR1	0	R1217T
696.392	0.818	703344	WORD_OFF	n/a	n/a	PIG	3	4	[0, 0, 0]	n/a	FR1	0	R1217T
697.21	1.616	704162	WORD	n/a	wordpools/wordpool_EN.txt	FAN	4	4	[0, 0, 0]	n/a	FR1	0	R1217T
698.826	0.95	705778	WORD_OFF	n/a	n/a	FAN	4	4	[0, 0, 0]	n/a	FR1	0	R1217T
699.776	1.617	706728	WORD	n/a	wordpools/wordpool_EN.txt	COUCH	5	4	[0, 0, 0]	n/a	FR1	0	R1217T
701.393	0.835	708344	WORD_OFF	n/a	n/a	COUCH	5	4	[0, 0, 0]	n/a	FR1	0	R1217T
702.228	1.617	709179	WORD	n/a	wordpools/wordpool_EN.txt	MUG	6	4	[0, 0, 0]	n/a	FR1	0	R1217T
703.845	0.816	710796	WORD_OFF	n/a	n/a	MUG	6	4	[0, 0, 0]	n/a	FR1	0	R1217T
704.661	1.617	711612	WORD	n/a	wordpools/wordpool_EN.txt	BOX	7	4	[0, 0, 0]	n/a	FR1	0	R1217T
706.278	0.834	713229	WORD_OFF	n/a	n/a	BOX	7	4	[0, 0, 0]	n/a	FR1	0	R1217T
707.112	1.616	714063	WORD	n/a	wordpools/wordpool_EN.txt	SLEEVE	8	4	[0, 0, 0]	n/a	FR1	0	R1217T
708.728	0.933	715679	WORD_OFF	n/a	n/a	SLEEVE	8	4	[0, 0, 0]	n/a	FR1	0	R1217T
709.661	1.602	716612	WORD	n/a	wordpools/wordpool_EN.txt	FUDGE	9	4	[0, 0, 0]	n/a	FR1	0	R1217T
711.263	0.883	718214	WORD_OFF	n/a	n/a	FUDGE	9	4	[0, 0, 0]	n/a	FR1	0	R1217T
712.146	1.616	719097	WORD	n/a	wordpools/wordpool_EN.txt	RAT	10	4	[0, 0, 0]	n/a	FR1	0	R1217T
713.762	1.017	720713	WORD_OFF	n/a	n/a	RAT	10	4	[0, 0, 0]	n/a	FR1	0	R1217T
714.779	1.617	721730	WORD	n/a	wordpools/wordpool_EN.txt	HOSE	11	4	[0, 0, 0]	n/a	FR1	0	R1217T
716.396	0.934	723347	WORD_OFF	n/a	n/a	HOSE	11	4	[0, 0, 0]	n/a	FR1	0	R1217T
717.33	1.617	724281	WORD	n/a	wordpools/wordpool_EN.txt	BRUSH	12	4	[0, 0, 0]	n/a	FR1	0	R1217T
718.947	0.0	725897	WORD_OFF	n/a	n/a	BRUSH	12	4	[0, 0, 0]	n/a	FR1	0	R1217T
718.947	0.001	725897	DISTRACT_START	n/a	n/a	n/a	-999	4	[0, 0, 0]	n/a	FR1	0	R1217T
718.948	0.016	725898	START	n/a	n/a	n/a	-999	4	[-999, -999, -999]	n/a	FR1	0	R1217T
718.964	5.417	725914	PROB	5.417	n/a	n/a	-999	4	[4, 5, 9]	18	FR1	0	R1217T
724.381	3.4	731331	PROB	3.4	n/a	n/a	-999	4	[5, 1, 2]	8	FR1	0	R1217T
727.781	4.335	734731	PROB	4.335	n/a	n/a	-999	4	[6, 9, 2]	17	FR1	0	R1217T
732.116	4.167	739066	PROB	4.167	n/a	n/a	-999	4	[4, 5, 7]	16	FR1	0	R1217T
736.283	5.345	743232	PROB	5.345	n/a	n/a	-999	4	[4, 5, 8]	17	FR1	0	R1217T
741.628	0.006	748577	STOP	n/a	n/a	n/a	-999	4	[-999, -999, -999]	n/a	FR1	0	R1217T
741.634	0.518	748583	DISTRACT_END	n/a	n/a	n/a	-999	4	[0, 0, 0]	n/a	FR1	0	R1217T
742.152	0.516	749101	RETRIEVAL_ORIENT	n/a	n/a	n/a	-999	4	[0, 0, 0]	n/a	FR1	0	R1217T
742.668	2.235	749617	REC_START	n/a	n/a	n/a	-999	4	[0, 0, 0]	n/a	FR1	0	R1217T
744.903	0.526	751852	REC_WORD	0.526	n/a	PIG	3	4	[0, 0, 0]	n/a	FR1	0	R1217T
745.429	1.277	752378	REC_WORD	1.277	n/a	PIT	2	4	[0, 0, 0]	n/a	FR1	0	R1217T
746.706	7.088	753655	REC_WORD	7.088	n/a	RAT	10	4	[0, 0, 0]	n/a	FR1	0	R1217T
753.794	11.749	760742	REC_WORD	11.749	n/a	BROOM	1	4	[0, 0, 0]	n/a	FR1	0	R1217T
765.543	7.137	772491	REC_WORD	7.137	n/a	SUN	-999	4	[0, 0, 0]	n/a	FR1	0	R1217T
772.68	22.03	779627	REC_END	n/a	n/a	n/a	-999	4	[0, 0, 0]	n/a	FR1	0	R1217T
794.71	0.5	801656	TRIAL	n/a	n/a	n/a	-999	5	[0, 0, 0]	n/a	FR1	0	R1217T
795.21	10.428	802156	COUNTDOWN_START	n/a	n/a	n/a	-999	5	[0, 0, 0]	n/a	FR1	0	R1217T
805.638	0.008	812583	COUNTDOWN_END	n/a	n/a	n/a	-999	5	[0, 0, 0]	n/a	FR1	0	R1217T
805.646	1.618	812591	ORIENT	n/a	n/a	n/a	-999	5	[0, 0, 0]	n/a	FR1	0	R1217T
807.264	2.132	814209	ORIENT_OFF	n/a	n/a	n/a	-999	5	[0, 0, 0]	n/a	FR1	0	R1217T
809.396	1.601	816341	WORD	n/a	wordpools/wordpool_EN.txt	TREE	1	5	[0, 0, 0]	n/a	FR1	0	R1217T
810.997	0.984	817942	WORD_OFF	n/a	n/a	TREE	1	5	[0, 0, 0]	n/a	FR1	0	R1217T
811.981	1.616	818926	WORD	n/a	wordpools/wordpool_EN.txt	CAGE	2	5	[0, 0, 0]	n/a	FR1	0	R1217T
813.597	0.817	820542	WORD_OFF	n/a	n/a	CAGE	2	5	[0, 0, 0]	n/a	FR1	0	R1217T
814.414	1.618	821359	WORD	n/a	wordpools/wordpool_EN.txt	TAIL	3	5	[0, 0, 0]	n/a	FR1	0	R1217T
816.032	0.983	822977	WORD_OFF	n/a	n/a	TAIL	3	5	[0, 0, 0]	n/a	FR1	0	R1217T
817.015	1.616	823960	WORD	n/a	wordpools/wordpool_EN.txt	WING	4	5	[0, 0, 0]	n/a	FR1	0	R1217T
818.631	0.784	825575	WORD_OFF	n/a	n/a	WING	4	5	[0, 0, 0]	n/a	FR1	0	R1217T
819.415	1.618	826359	WORD	n/a	wordpools/wordpool_EN.txt	SLUSH	5	5	[0, 0, 0]	n/a	FR1	0	R1217T
821.033	0.967	827977	WORD_OFF	n/a	n/a	SLUSH	5	5	[0, 0, 0]	n/a	FR1	0	R1217T
822.0	1.615	828944	WORD	n/a	wordpools/wordpool_EN.txt	HAWK	6	5	[0, 0, 0]	n/a	FR1	0	R1217T
823.615	0.95	830559	WORD_OFF	n/a	n/a	HAWK	6	5	[0, 0, 0]	n/a	FR1	0	R1217T
824.565	1.602	831509	WORD	n/a	wordpools/wordpool_EN.txt	GEESE	7	5	[0, 0, 0]	n/a	FR1	0	R1217T
826.167	0.967	833111	WORD_OFF	n/a	n/a	GEESE	7	5	[0, 0, 0]	n/a	FR1	0	R1217T
827.134	1.616	834078	WORD	n/a	wordpools/wordpool_EN.txt	TOE	8	5	[0, 0, 0]	n/a	FR1	0	R1217T
828.75	0.767	835694	WORD_OFF	n/a	n/a	TOE	8	5	[0, 0, 0]	n/a	FR1	0	R1217T
829.517	1.617	836461	WORD	n/a	wordpools/wordpool_EN.txt	POND	9	5	[0, 0, 0]	n/a	FR1	0	R1217T
831.134	0.951	838078	WORD_OFF	n/a	n/a	POND	9	5	[0, 0, 0]	n/a	FR1	0	R1217T
832.085	1.616	839029	WORD	n/a	wordpools/wordpool_EN.txt	NEST	10	5	[0, 0, 0]	n/a	FR1	0	R1217T
833.701	0.866	840645	WORD_OFF	n/a	n/a	NEST	10	5	[0, 0, 0]	n/a	FR1	0	R1217T
834.567	1.618	841511	WORD	n/a	wordpools/wordpool_EN.txt	BUSH	11	5	[0, 0, 0]	n/a	FR1	0	R1217T
836.185	0.934	843128	WORD_OFF	n/a	n/a	BUSH	11	5	[0, 0, 0]	n/a	FR1	0	R1217T
837.119	1.616	844062	WORD	n/a	wordpools/wordpool_EN.txt	STRAW	12	5	[0, 0, 0]	n/a	FR1	0	R1217T
838.735	0.0	845678	WORD_OFF	n/a	n/a	STRAW	12	5	[0, 0, 0]	n/a	FR1	0	R1217T
838.735	0.001	845678	DISTRACT_START	n/a	n/a	n/a	-999	5	[0, 0, 0]	n/a	FR1	0	R1217T
838.736	0.016	845679	START	n/a	n/a	n/a	-999	5	[-999, -999, -999]	n/a	FR1	0	R1217T
838.752	4.118	845695	PROB	4.118	n/a	n/a	-999	5	[6, 4, 6]	16	FR1	0	R1217T
842.87	3.117	849813	PROB	3.117	n/a	n/a	-999	5	[1, 1, 8]	10	FR1	0	R1217T
845.987	3.284	852930	PROB	3.284	n/a	n/a	-999	5	[7, 3, 5]	15	FR1	0	R1217T
849.271	2.667	856214	PROB	2.667	n/a	n/a	-999	5	[5, 6, 1]	12	FR1	0	R1217T
851.938	27.897	858880	PROB	27.897	n/a	n/a	-999	5	[2, 8, 4]	14	FR1	0	R1217T
879.835	0.008	886776	STOP	n/a	n/a	n/a	-999	5	[-999, -999, -999]	n/a	FR1	0	R1217T
879.843	0.55	886784	DISTRACT_END	n/a	n/a	n/a	-999	5	[0, 0, 0]	n/a	FR1	0	R1217T
880.393	0.518	887334	RETRIEVAL_ORIENT	n/a	n/a	n/a	-999	5	[0, 0, 0]	n/a	FR1	0	R1217T
880.911	1.295	887852	REC_START	n/a	n/a	n/a	-999	5	[0, 0, 0]	n/a	FR1	0	R1217T
882.206	0.545	889147	REC_WORD	0.545	n/a	TREE	1	5	[0, 0, 0]	n/a	FR1	0	R1217T
882.751	2.23	889692	REC_WORD	2.23	n/a	TRUNK	-999	5	[0, 0, 0]	n/a	FR1	0	R1217T
884.981	1.736	891921	REC_WORD	1.736	n/a	HOSE	-999	5	[0, 0, 0]	n/a	FR1	0	R1217T
886.717	6.119	893657	REC_WORD	6.119	n/a	BRUSH	-999	5	[0, 0, 0]	n/a	FR1	0	R1217T
892.836	11.263	899776	REC_WORD	11.263	n/a	PALE	-999	5	[0, 0, 0]	n/a	FR1	0	R1217T
904.099	0.881	911038	REC_WORD	0.881	n/a	GOOSE	-999	5	[0, 0, 0]	n/a	FR1	0	R1217T
904.98	5.943	911919	REC_WORD	5.943	n/a	HAWK	6	5	[0, 0, 0]	n/a	FR1	0	R1217T
910.923	5.493	917862	REC_END	n/a	n/a	n/a	-999	5	[0, 0, 0]	n/a	FR1	0	R1217T
916.416	0.5	923355	TRIAL	n/a	n/a	n/a	-999	6	[0, 0, 0]	n/a	FR1	0	R1217T
916.916	10.428	923855	COUNTDOWN_START	n/a	n/a	n/a	-999	6	[0, 0, 0]	n/a	FR1	0	R1217T
927.344	0.007	934282	COUNTDOWN_END	n/a	n/a	n/a	-999	6	[0, 0, 0]	n/a	FR1	0	R1217T
927.351	1.618	934289	ORIENT	n/a	n/a	n/a	-999	6	[0, 0, 0]	n/a	FR1	0	R1217T
928.969	2.134	935907	ORIENT_OFF	n/a	n/a	n/a	-999	6	[0, 0, 0]	n/a	FR1	0	R1217T
931.103	1.616	938041	WORD	n/a	wordpools/wordpool_EN.txt	PEACH	1	6	[0, 0, 0]	n/a	FR1	0	R1217T
932.719	0.9	939657	WORD_OFF	n/a	n/a	PEACH	1	6	[0, 0, 0]	n/a	FR1	0	R1217T
933.619	1.601	940557	WORD	n/a	wordpools/wordpool_EN.txt	ROOF	2	6	[0, 0, 0]	n/a	FR1	0	R1217T
935.22	0.967	942157	WORD_OFF	n/a	n/a	ROOF	2	6	[0, 0, 0]	n/a	FR1	0	R1217T
936.187	1.616	943124	WORD	n/a	wordpools/wordpool_EN.txt	TIE	3	6	[0, 0, 0]	n/a	FR1	0	R1217T
937.803	0.833	944740	WORD_OFF	n/a	n/a	TIE	3	6	[0, 0, 0]	n/a	FR1	0	R1217T
938.636	1.618	945573	WORD	n/a	wordpools/wordpool_EN.txt	HOLE	4	6	[0, 0, 0]	n/a	FR1	0	R1217T
940.254	0.917	947191	WORD_OFF	n/a	n/a	HOLE	4	6	[0, 0, 0]	n/a	FR1	0	R1217T
941.171	1.616	948108	WORD	n/a	wordpools/wordpool_EN.txt	PIPE	5	6	[0, 0, 0]	n/a	FR1	0	R1217T
942.787	0.884	949724	WORD_OFF	n/a	n/a	PIPE	5	6	[0, 0, 0]	n/a	FR1	0	R1217T
943.671	1.617	950608	WORD	n/a	wordpools/wordpool_EN.txt	STAIR	6	6	[0, 0, 0]	n/a	FR1	0	R1217T
945.288	0.784	952225	WORD_OFF	n/a	n/a	STAIR	6	6	[0, 0, 0]	n/a	FR1	0	R1217T
946.072	1.616	953009	WORD	n/a	wordpools/wordpool_EN.txt	BOWL	7	6	[0, 0, 0]	n/a	FR1	0	R1217T
947.688	1.0	954625	WORD_OFF	n/a	n/a	BOWL	7	6	[0, 0, 0]	n/a	FR1	0	R1217T
948.688	1.617	955625	WORD	n/a	wordpools/wordpool_EN.txt	WHALE	8	6	[0, 0, 0]	n/a	FR1	0	R1217T
950.305	0.868	957242	WORD_OFF	n/a	n/a	WHALE	8	6	[0, 0, 0]	n/a	FR1	0	R1217T
951.173	1.616	958110	WORD	n/a	wordpools/wordpool_EN.txt	JAR	9	6	[0, 0, 0]	n/a	FR1	0	R1217T
952.789	0.917	959725	WORD_OFF	n/a	n/a	JAR	9	6	[0, 0, 0]	n/a	FR1	0	R1217T
953.706	1.617	960642	WORD	n/a	wordpools/wordpool_EN.txt	STORM	10	6	[0, 0, 0]	n/a	FR1	0	R1217T
955.323	0.95	962259	WORD_OFF	n/a	n/a	STORM	10	6	[0, 0, 0]	n/a	FR1	0	R1217T
956.273	1.618	963209	WORD	n/a	wordpools/wordpool_EN.txt	AXE	11	6	[0, 0, 0]	n/a	FR1	0	R1217T
957.891	0.882	964827	WORD_OFF	n/a	n/a	AXE	11	6	[0, 0, 0]	n/a	FR1	0	R1217T
958.773	1.617	965709	WORD	n/a	wordpools/wordpool_EN.txt	DITCH	12	6	[0, 0, 0]	n/a	FR1	0	R1217T
960.39	0.0	967326	WORD_OFF	n/a	n/a	DITCH	12	6	[0, 0, 0]	n/a	FR1	0	R1217T
960.39	0.001	967326	DISTRACT_START	n/a	n/a	n/a	-999	6	[0, 0, 0]	n/a	FR1	0	R1217T
960.391	0.016	967327	START	n/a	n/a	n/a	-999	6	[-999, -999, -999]	n/a	FR1	0	R1217T
960.407	4.802	967343	PROB	4.802	n/a	n/a	-999	6	[1, 9, 8]	18	FR1	0	R1217T
965.209	4.416	972145	PROB	4.416	n/a	n/a	-999	6	[9, 6, 8]	23	FR1	0	R1217T
969.625	3.134	976560	PROB	3.134	n/a	n/a	-999	6	[7, 8, 8]	23	FR1	0	R1217T
972.759	20.319	979694	PROB	20.319	n/a	n/a	-999	6	[2, 6, 9]	17	FR1	0	R1217T
993.078	0.019	1000012	STOP	n/a	n/a	n/a	-999	6	[-999, -999, -999]	n/a	FR1	0	R1217T
993.097	0.583	1000031	DISTRACT_END	n/a	n/a	n/a	-999	6	[0, 0, 0]	n/a	FR1	0	R1217T
993.68	0.518	1000614	RETRIEVAL_ORIENT	n/a	n/a	n/a	-999	6	[0, 0, 0]	n/a	FR1	0	R1217T
994.198	2.576	1001132	REC_START	n/a	n/a	n/a	-999	6	[0, 0, 0]	n/a	FR1	0	R1217T
996.774	0.333	1003708	REC_WORD	0.333	n/a	ROOF	2	6	[0, 0, 0]	n/a	FR1	0	R1217T
997.107	1.19	1004041	REC_WORD	1.19	n/a	HOLE	4	6	[0, 0, 0]	n/a	FR1	0	R1217T
998.297	1.143	1005231	REC_WORD	1.143	n/a	PIPE	5	6	[0, 0, 0]	n/a	FR1	0	R1217T
999.44	0.636	1006374	REC_WORD	0.636	n/a	DITCH	12	6	[0, 0, 0]	n/a	FR1	0	R1217T
1000.076	9.987	1007010	REC_WORD	9.987	n/a	AXE	11	6	[0, 0, 0]	n/a	FR1	0	R1217T
1010.063	10.871	1016996	REC_WORD	10.871	n/a	TRAIL	-999	6	[0, 0, 0]	n/a	FR1	0	R1217T
1020.934	3.274	1027866	REC_WORD	3.274	n/a	PEACH	1	6	[0, 0, 0]	n/a	FR1	0	R1217T
1024.208	6.345	1031140	REC_END	n/a	n/a	n/a	-999	6	[0, 0, 0]	n/a	FR1	0	R1217T
1030.553	0.5	1037485	TRIAL	n/a	n/a	n/a	-999	7	[0, 0, 0]	n/a	FR1	0	R1217T
1031.053	10.428	1037985	COUNTDOWN_START	n/a	n/a	n/a	-999	7	[0, 0, 0]	n/a	FR1	0	R1217T
1041.481	0.007	1048412	COUNTDOWN_END	n/a	n/a	n/a	-999	7	[0, 0, 0]	n/a	FR1	0	R1217T
1041.488	1.618	1048419	ORIENT	n/a	n/a	n/a	-999	7	[0, 0, 0]	n/a	FR1	0	R1217T
1043.106	2.316	1050037	ORIENT_OFF	n/a	n/a	n/a	-999	7	[0, 0, 0]	n/a	FR1	0	R1217T
1045.422	1.602	1052353	WORD	n/a	wordpools/wordpool_EN.txt	BEAK	1	7	[0, 0, 0]	n/a	FR1	0	R1217T
1047.024	0.967	1053955	WORD_OFF	n/a	n/a	BEAK	1	7	[0, 0, 0]	n/a	FR1	0	R1217T
1047.991	1.616	1054922	WORD	n/a	wordpools/wordpool_EN.txt	GOAT	2	7	[0, 0, 0]	n/a	FR1	0	R1217T
1049.607	0.9	1056538	WORD_OFF	n/a	n/a	GOAT	2	7	[0, 0, 0]	n/a	FR1	0	R1217T
1050.507	1.618	1057438	WORD	n/a	wordpools/wordpool_EN.txt	WOLF	3	7	[0, 0, 0]	n/a	FR1	0	R1217T
1052.125	0.866	1059056	WORD_OFF	n/a	n/a	WOLF	3	7	[0, 0, 0]	n/a	FR1	0	R1217T
1052.991	1.617	1059921	WORD	n/a	wordpools/wordpool_EN.txt	BAG	4	7	[0, 0, 0]	n/a	FR1	0	R1217T
1054.608	0.966	1061538	WORD_OFF	n/a	n/a	BAG	4	7	[0, 0, 0]	n/a	FR1	0	R1217T
1055.574	1.601	1062504	WORD	n/a	wordpools/wordpool_EN.txt	MOUTH	5	7	[0, 0, 0]	n/a	FR1	0	R1217T
1057.175	0.884	1064105	WORD_OFF	n/a	n/a	MOUTH	5	7	[0, 0, 0]	n/a	FR1	0	R1217T
1058.059	1.616	1064989	WORD	n/a	wordpools/wordpool_EN.txt	CALF	6	7	[0, 0, 0]	n/a	FR1	0	R1217T
1059.675	0.8	1066605	WORD_OFF	n/a	n/a	CALF	6	7	[0, 0, 0]	n/a	FR1	0	R1217T
1060.475	1.618	1067405	WORD	n/a	wordpools/wordpool_EN.txt	GATE	7	7	[0, 0, 0]	n/a	FR1	0	R1217T
1062.093	0.984	1069023	WORD_OFF	n/a	n/a	GATE	7	7	[0, 0, 0]	n/a	FR1	0	R1217T
1063.077	1.616	1070007	WORD	n/a	wordpools/wordpool_EN.txt	GUARD	8	7	[0, 0, 0]	n/a	FR1	0	R1217T
1064.693	0.9	1071623	WORD_OFF	n/a	n/a	GUARD	8	7	[0, 0, 0]	n/a	FR1	0	R1217T
1065.593	1.601	1072523	WORD	n/a	wordpools/wordpool_EN.txt	STEAK	9	7	[0, 0, 0]	n/a	FR1	0	R1217T
1067.194	0.9	1074124	WORD_OFF	n/a	n/a	STEAK	9	7	[0, 0, 0]	n/a	FR1	0	R1217T
1068.094	1.616	1075024	WORD	n/a	wordpools/wordpool_EN.txt	BARN	10	7	[0, 0, 0]	n/a	FR1	0	R1217T
1069.71	0.934	1076639	WORD_OFF	n/a	n/a	BARN	10	7	[0, 0, 0]	n/a	FR1	0	R1217T
1070.644	1.618	1077573	WORD	n/a	wordpools/wordpool_EN.txt	PRINCE	11	7	[0, 0, 0]	n/a	FR1	0	R1217T
1072.262	0.85	1079191	WORD_OFF	n/a	n/a	PRINCE	11	7	[0, 0, 0]	n/a	FR1	0	R1217T
1073.112	1.616	1080041	WORD	n/a	wordpools/wordpool_EN.txt	COW	12	7	[0, 0, 0]	n/a	FR1	0	R1217T
1074.728	0.0	1081657	WORD_OFF	n/a	n/a	COW	12	7	[0, 0, 0]	n/a	FR1	0	R1217T
1074.728	0.0	1081657	DISTRACT_START	n/a	n/a	n/a	-999	7	[0, 0, 0]	n/a	FR1	0	R1217T
1074.728	0.016	1081657	START	n/a	n/a	n/a	-999	7	[-999, -999, -999]	n/a	FR1	0	R1217T
1074.744	5.352	1081673	PROB	5.352	n/a	n/a	-999	7	[8, 5, 4]	13	FR1	0	R1217T
1080.096	5.035	1087025	PROB	5.035	n/a	n/a	-999	7	[2, 5, 2]	9	FR1	0	R1217T
1085.131	3.566	1092060	PROB	3.566	n/a	n/a	-999	7	[6, 1, 1]	8	FR1	0	R1217T
1088.697	2.717	1095625	PROB	2.717	n/a	n/a	-999	7	[5, 6, 2]	13	FR1	0	R1217T
1091.414	3.511	1098342	PROB	3.511	n/a	n/a	-999	7	[2, 5, 6]	13	FR1	0	R1217T
1094.925	0.007	1101853	STOP	n/a	n/a	n/a	-999	7	[-999, -999, -999]	n/a	FR1	0	R1217T
1094.932	0.533	1101860	DISTRACT_END	n/a	n/a	n/a	-999	7	[0, 0, 0]	n/a	FR1	0	R1217T
1095.465	0.519	1102393	RETRIEVAL_ORIENT	n/a	n/a	n/a	-999	7	[0, 0, 0]	n/a	FR1	0	R1217T
1095.984	2.546	1102912	REC_START	n/a	n/a	n/a	-999	7	[0, 0, 0]	n/a	FR1	0	R1217T
1098.53	0.745	1105458	REC_WORD	0.745	n/a	BEAK	1	7	[0, 0, 0]	n/a	FR1	0	R1217T
1099.275	1.77	1106203	REC_WORD	1.77	n/a	GOAT	2	7	[0, 0, 0]	n/a	FR1	0	R1217T
1101.045	0.502	1107973	REC_WORD	0.502	n/a	WOLF	3	7	[0, 0, 0]	n/a	FR1	0	R1217T
1101.547	0.766	1108475	REC_WORD	0.766	n/a	CALF	6	7	[0, 0, 0]	n/a	FR1	0	R1217T
1102.313	4.49	1109241	REC_WORD	4.49	n/a	COW	12	7	[0, 0, 0]	n/a	FR1	0	R1217T
1106.803	19.192	1113730	REC_WORD	19.192	n/a	STEAK	9	7	[0, 0, 0]	n/a	FR1	0	R1217T
1125.995	6.577	1132921	REC_END	n/a	n/a	n/a	-999	7	[0, 0, 0]	n/a	FR1	0	R1217T
1132.572	0.5	1139498	TRIAL	n/a	n/a	n/a	-999	8	[0, 0, 0]	n/a	FR1	0	R1217T
1133.072	10.428	1139998	COUNTDOWN_START	n/a	n/a	n/a	-999	8	[0, 0, 0]	n/a	FR1	0	R1217T
1143.5	0.007	1150425	COUNTDOWN_END	n/a	n/a	n/a	-999	8	[0, 0, 0]	n/a	FR1	0	R1217T
1143.507	1.618	1150432	ORIENT	n/a	n/a	n/a	-999	8	[0, 0, 0]	n/a	FR1	0	R1217T
1145.125	1.867	1152050	ORIENT_OFF	n/a	n/a	n/a	-999	8	[0, 0, 0]	n/a	FR1	0	R1217T
1146.992	1.616	1153917	WORD	n/a	wordpools/wordpool_EN.txt	CONE	1	8	[0, 0, 0]	n/a	FR1	0	R1217T
1148.608	0.9	1155533	WORD_OFF	n/a	n/a	CONE	1	8	[0, 0, 0]	n/a	FR1	0	R1217T
1149.508	1.601	1156433	WORD	n/a	wordpools/wordpool_EN.txt	RIB	2	8	[0, 0, 0]	n/a	FR1	0	R1217T
1151.109	0.767	1158034	WORD_OFF	n/a	n/a	RIB	2	8	[0, 0, 0]	n/a	FR1	0	R1217T
1151.876	1.616	1158801	WORD	n/a	wordpools/wordpool_EN.txt	WALL	3	8	[0, 0, 0]	n/a	FR1	0	R1217T
1153.492	0.867	1160416	WORD_OFF	n/a	n/a	WALL	3	8	[0, 0, 0]	n/a	FR1	0	R1217T
1154.359	1.601	1161283	WORD	n/a	wordpools/wordpool_EN.txt	CLIFF	4	8	[0, 0, 0]	n/a	FR1	0	R1217T
1155.96	0.766	1162884	WORD_OFF	n/a	n/a	CLIFF	4	8	[0, 0, 0]	n/a	FR1	0	R1217T
1156.726	1.617	1163650	WORD	n/a	wordpools/wordpool_EN.txt	FUR	5	8	[0, 0, 0]	n/a	FR1	0	R1217T
1158.343	1.0	1165267	WORD_OFF	n/a	n/a	FUR	5	8	[0, 0, 0]	n/a	FR1	0	R1217T
1159.343	1.601	1166267	WORD	n/a	wordpools/wordpool_EN.txt	RUG	6	8	[0, 0, 0]	n/a	FR1	0	R1217T
1160.944	0.934	1167868	WORD_OFF	n/a	n/a	RUG	6	8	[0, 0, 0]	n/a	FR1	0	R1217T
1161.878	1.616	1168802	WORD	n/a	wordpools/wordpool_EN.txt	VINE	7	8	[0, 0, 0]	n/a	FR1	0	R1217T
1163.494	0.883	1170418	WORD_OFF	n/a	n/a	VINE	7	8	[0, 0, 0]	n/a	FR1	0	R1217T
1164.377	1.618	1171301	WORD	n/a	wordpools/wordpool_EN.txt	FLOOR	8	8	[0, 0, 0]	n/a	FR1	0	R1217T
1165.995	1.0	1172919	WORD_OFF	n/a	n/a	FLOOR	8	8	[0, 0, 0]	n/a	FR1	0	R1217T
1166.995	1.617	1173919	WORD	n/a	wordpools/wordpool_EN.txt	VEST	9	8	[0, 0, 0]	n/a	FR1	0	R1217T
1168.612	0.783	1175536	WORD_OFF	n/a	n/a	VEST	9	8	[0, 0, 0]	n/a	FR1	0	R1217T
1169.395	1.618	1176319	WORD	n/a	wordpools/wordpool_EN.txt	CHIN	10	8	[0, 0, 0]	n/a	FR1	0	R1217T
1171.013	0.85	1177936	WORD_OFF	n/a	n/a	CHIN	10	8	[0, 0, 0]	n/a	FR1	0	R1217T
1171.863	1.616	1178786	WORD	n/a	wordpools/wordpool_EN.txt	LAND	11	8	[0, 0, 0]	n/a	FR1	0	R1217T
1173.479	0.884	1180402	WORD_OFF	n/a	n/a	LAND	11	8	[0, 0, 0]	n/a	FR1	0	R1217T
1174.363	1.617	1181286	WORD	n/a	wordpools/wordpool_EN.txt	SOCK	12	8	[0, 0, 0]	n/a	FR1	0	R1217T
1175.98	0.0	1182903	WORD_OFF	n/a	n/a	SOCK	12	8	[0, 0, 0]	n/a	FR1	0	R1217T
1175.98	0.001	1182903	DISTRACT_START	n/a	n/a	n/a	-999	8	[0, 0, 0]	n/a	FR1	0	R1217T
1175.981	0.016	1182904	START	n/a	n/a	n/a	-999	8	[-999, -999, -999]	n/a	FR1	0	R1217T
1175.997	7.985	1182920	PROB	7.985	n/a	n/a	-999	8	[1, 3, 8]	12	FR1	0	R1217T
1183.982	2.849	1190905	PROB	2.849	n/a	n/a	-999	8	[4, 5, 1]	10	FR1	0	R1217T
1186.831	2.751	1193753	PROB	2.751	n/a	n/a	-999	8	[1, 1, 9]	11	FR1	0	R1217T
1189.582	3.134	1196504	PROB	3.134	n/a	n/a	-999	8	[7, 2, 3]	12	FR1	0	R1217T
1192.716	28.913	1199638	PROB	28.913	n/a	n/a	-999	8	[4, 4, 9]	17	FR1	0	R1217T
1221.629	0.008	1228549	STOP	n/a	n/a	n/a	-999	8	[-999, -999, -999]	n/a	FR1	0	R1217T
1221.637	0.701	1228557	DISTRACT_END	n/a	n/a	n/a	-999	8	[0, 0, 0]	n/a	FR1	0	R1217T
1222.338	0.518	1229258	RETRIEVAL_ORIENT	n/a	n/a	n/a	-999	8	[0, 0, 0]	n/a	FR1	0	R1217T
1222.856	1.995	1229776	REC_START	n/a	n/a	n/a	-999	8	[0, 0, 0]	n/a	FR1	0	R1217T
1224.851	0.882	1231771	REC_WORD	0.882	n/a	CONE	1	8	[0, 0, 0]	n/a	FR1	0	R1217T
1225.733	1.321	1232653	REC_WORD	1.321	n/a	CLIFF	4	8	[0, 0, 0]	n/a	FR1	0	R1217T
1227.054	1.462	1233974	REC_WORD	1.462	n/a	WALL	3	8	[0, 0, 0]	n/a	FR1	0	R1217T
1228.516	1.458	1235436	REC_WORD	1.458	n/a	RUG	6	8	[0, 0, 0]	n/a	FR1	0	R1217T
1229.974	1.825	1236894	REC_WORD	1.825	n/a	FLOOR	8	8	[0, 0, 0]	n/a	FR1	0	R1217T
1231.799	3.826	1238719	REC_WORD	3.826	n/a	PERSON	-999	8	[0, 0, 0]	n/a	FR1	0	R1217T
1235.625	5.768	1242545	REC_WORD	5.768	n/a	STAMP	-999	8	[0, 0, 0]	n/a	FR1	0	R1217T
1241.393	11.087	1248312	REC_WORD	11.087	n/a	VINE	7	8	[0, 0, 0]	n/a	FR1	0	R1217T
1252.48	0.386	1259399	REC_WORD	0.386	n/a	FUR	5	8	[0, 0, 0]	n/a	FR1	0	R1217T
1252.866	13.264	1259785	REC_END	n/a	n/a	n/a	-999	8	[0, 0, 0]	n/a	FR1	0	R1217T
1266.13	0.5	1273048	TRIAL	n/a	n/a	n/a	-999	9	[0, 0, 0]	n/a	FR1	0	R1217T
1266.63	10.428	1273548	COUNTDOWN_START	n/a	n/a	n/a	-999	9	[0, 0, 0]	n/a	FR1	0	R1217T
1277.058	0.008	1283975	COUNTDOWN_END	n/a	n/a	n/a	-999	9	[0, 0, 0]	n/a	FR1	0	R1217T
1277.066	1.615	1283983	ORIENT	n/a	n/a	n/a	-999	9	[0, 0, 0]	n/a	FR1	0	R1217T
1278.681	2.034	1285598	ORIENT_OFF	n/a	n/a	n/a	-999	9	[0, 0, 0]	n/a	FR1	0	R1217T
1280.715	1.617	1287632	WORD	n/a	wordpools/wordpool_EN.txt	GLASS	1	9	[0, 0, 0]	n/a	FR1	0	R1217T
1282.332	0.967	1289249	WORD_OFF	n/a	n/a	GLASS	1	9	[0, 0, 0]	n/a	FR1	0	R1217T
1283.299	1.618	1290216	WORD	n/a	wordpools/wordpool_EN.txt	ROSE	2	9	[0, 0, 0]	n/a	FR1	0	R1217T
1284.917	0.899	1291834	WORD_OFF	n/a	n/a	ROSE	2	9	[0, 0, 0]	n/a	FR1	0	R1217T
1285.816	1.617	1292733	WORD	n/a	wordpools/wordpool_EN.txt	STOVE	3	9	[0, 0, 0]	n/a	FR1	0	R1217T
1287.433	0.801	1294349	WORD_OFF	n/a	n/a	STOVE	3	9	[0, 0, 0]	n/a	FR1	0	R1217T
1288.234	1.617	1295150	WORD	n/a	wordpools/wordpool_EN.txt	DESK	4	9	[0, 0, 0]	n/a	FR1	0	R1217T
1289.851	0.983	1296767	WORD_OFF	n/a	n/a	DESK	4	9	[0, 0, 0]	n/a	FR1	0	R1217T
1290.834	1.617	1297750	WORD	n/a	wordpools/wordpool_EN.txt	HAT	5	9	[0, 0, 0]	n/a	FR1	0	R1217T
1292.451	0.833	1299367	WORD_OFF	n/a	n/a	HAT	5	9	[0, 0, 0]	n/a	FR1	0	R1217T
1293.284	1.618	1300200	WORD	n/a	wordpools/wordpool_EN.txt	BOOT	6	9	[0, 0, 0]	n/a	FR1	0	R1217T
1294.902	0.799	1301818	WORD_OFF	n/a	n/a	BOOT	6	9	[0, 0, 0]	n/a	FR1	0	R1217T
1295.701	1.617	1302617	WORD	n/a	wordpools/wordpool_EN.txt	SOUP	7	9	[0, 0, 0]	n/a	FR1	0	R1217T
1297.318	0.835	1304234	WORD_OFF	n/a	n/a	SOUP	7	9	[0, 0, 0]	n/a	FR1	0	R1217T
1298.153	1.616	1305069	WORD	n/a	wordpools/wordpool_EN.txt	APE	8	9	[0, 0, 0]	n/a	FR1	0	R1217T
1299.769	0.816	1306685	WORD_OFF	n/a	n/a	APE	8	9	[0, 0, 0]	n/a	FR1	0	R1217T
1300.585	1.618	1307501	WORD	n/a	wordpools/wordpool_EN.txt	PIN	9	9	[0, 0, 0]	n/a	FR1	0	R1217T
1302.203	0.834	1309119	WORD_OFF	n/a	n/a	PIN	9	9	[0, 0, 0]	n/a	FR1	0	R1217T
1303.037	1.616	1309953	WORD	n/a	wordpools/wordpool_EN.txt	CLOTH	10	9	[0, 0, 0]	n/a	FR1	0	R1217T
1304.653	0.983	1311568	WORD_OFF	n/a	n/a	CLOTH	10	9	[0, 0, 0]	n/a	FR1	0	R1217T
1305.636	1.601	1312551	WORD	n/a	wordpools/wordpool_EN.txt	DOLL	11	9	[0, 0, 0]	n/a	FR1	0	R1217T
1307.237	0.984	1314152	WORD_OFF	n/a	n/a	DOLL	11	9	[0, 0, 0]	n/a	FR1	0	R1217T
1308.221	1.616	1315136	WORD	n/a	wordpools/wordpool_EN.txt	LAMP	12	9	[0, 0, 0]	n/a	FR1	0	R1217T
1309.837	0.0	1316752	WORD_OFF	n/a	n/a	LAMP	12	9	[0, 0, 0]	n/a	FR1	0	R1217T
1309.837	0.001	1316752	DISTRACT_START	n/a	n/a	n/a	-999	9	[0, 0, 0]	n/a	FR1	0	R1217T
1309.838	0.017	1316753	START	n/a	n/a	n/a	-999	9	[-999, -999, -999]	n/a	FR1	0	R1217T
1309.855	4.6	1316770	PROB	4.6	n/a	n/a	-999	9	[4, 4, 2]	10	FR1	0	R1217T
1314.455	3.651	1321370	PROB	3.651	n/a	n/a	-999	9	[9, 2, 8]	19	FR1	0	R1217T
1318.106	3.633	1325021	PROB	3.633	n/a	n/a	-999	9	[9, 4, 6]	19	FR1	0	R1217T
1321.739	3.502	1328653	PROB	3.502	n/a	n/a	-999	9	[5, 6, 8]	19	FR1	0	R1217T
1325.241	17.315	1332155	PROB	17.315	n/a	n/a	-999	9	[3, 3, 7]	13	FR1	0	R1217T
1342.556	0.02	1349469	STOP	n/a	n/a	n/a	-999	9	[-999, -999, -999]	n/a	FR1	0	R1217T
1342.576	0.668	1349489	DISTRACT_END	n/a	n/a	n/a	-999	9	[0, 0, 0]	n/a	FR1	0	R1217T
1343.244	0.517	1350157	RETRIEVAL_ORIENT	n/a	n/a	n/a	-999	9	[0, 0, 0]	n/a	FR1	0	R1217T
1343.761	1.409	1350674	REC_START	n/a	n/a	n/a	-999	9	[0, 0, 0]	n/a	FR1	0	R1217T
1345.17	1.476	1352083	REC_WORD	1.476	n/a	GLASS	1	9	[0, 0, 0]	n/a	FR1	0	R1217T
1346.646	0.879	1353559	REC_WORD	0.879	n/a	ROSE	2	9	[0, 0, 0]	n/a	FR1	0	R1217T
1347.525	5.133	1354438	REC_WORD	5.133	n/a	PIN	9	9	[0, 0, 0]	n/a	FR1	0	R1217T
1352.658	12.042	1359571	REC_WORD	12.042	n/a	STOVE	3	9	[0, 0, 0]	n/a	FR1	0	R1217T
1364.7	9.072	1371612	REC_WORD	9.072	n/a	WOOD	-999	9	[0, 0, 0]	n/a	FR1	0	R1217T
1373.772	12.612	1380683	REC_END	n/a	n/a	n/a	-999	9	[0, 0, 0]	n/a	FR1	0	R1217T
1386.384	0.5	1393295	TRIAL	n/a	n/a	n/a	-999	10	[0, 0, 0]	n/a	FR1	0	R1217T
1386.884	10.428	1393795	COUNTDOWN_START	n/a	n/a	n/a	-999	10	[0, 0, 0]	n/a	FR1	0	R1217T
1397.312	0.008	1404222	COUNTDOWN_END	n/a	n/a	n/a	-999	10	[0, 0, 0]	n/a	FR1	0	R1217T
1397.32	1.618	1404230	ORIENT	n/a	n/a	n/a	-999	10	[0, 0, 0]	n/a	FR1	0	R1217T
1398.938	2.233	1405848	ORIENT_OFF	n/a	n/a	n/a	-999	10	[0, 0, 0]	n/a	FR1	0	R1217T
1401.171	1.616	1408081	WORD	n/a	wordpools/wordpool_EN.txt	CAVE	1	10	[0, 0, 0]	n/a	FR1	0	R1217T
1402.787	0.884	1409697	WORD_OFF	n/a	n/a	CAVE	1	10	[0, 0, 0]	n/a	FR1	0	R1217T
1403.671	1.617	1410581	WORD	n/a	wordpools/wordpool_EN.txt	MOUSE	2	10	[0, 0, 0]	n/a	FR1	0	R1217T
1405.288	0.784	1412197	WORD_OFF	n/a	n/a	MOUSE	2	10	[0, 0, 0]	n/a	FR1	0	R1217T
1406.072	1.616	1412981	WORD	n/a	wordpools/wordpool_EN.txt	ROOT	3	10	[0, 0, 0]	n/a	FR1	0	R1217T
1407.688	0.884	1414597	WORD_OFF	n/a	n/a	ROOT	3	10	[0, 0, 0]	n/a	FR1	0	R1217T
1408.572	1.618	1415481	WORD	n/a	wordpools/wordpool_EN.txt	MILK	4	10	[0, 0, 0]	n/a	FR1	0	R1217T
1410.19	0.933	1417099	WORD_OFF	n/a	n/a	MILK	4	10	[0, 0, 0]	n/a	FR1	0	R1217T
1411.123	1.616	1418032	WORD	n/a	wordpools/wordpool_EN.txt	ROCK	5	10	[0, 0, 0]	n/a	FR1	0	R1217T
1412.739	0.95	1419648	WORD_OFF	n/a	n/a	ROCK	5	10	[0, 0, 0]	n/a	FR1	0	R1217T
1413.689	1.617	1420598	WORD	n/a	wordpools/wordpool_EN.txt	CUBE	6	10	[0, 0, 0]	n/a	FR1	0	R1217T
1415.306	0.835	1422215	WORD_OFF	n/a	n/a	CUBE	6	10	[0, 0, 0]	n/a	FR1	0	R1217T
1416.141	1.616	1423050	WORD	n/a	wordpools/wordpool_EN.txt	WORM	7	10	[0, 0, 0]	n/a	FR1	0	R1217T
1417.757	0.95	1424666	WORD_OFF	n/a	n/a	WORM	7	10	[0, 0, 0]	n/a	FR1	0	R1217T
1418.707	1.617	1425616	WORD	n/a	wordpools/wordpool_EN.txt	JUICE	8	10	[0, 0, 0]	n/a	FR1	0	R1217T
1420.324	0.884	1427233	WORD_OFF	n/a	n/a	JUICE	8	10	[0, 0, 0]	n/a	FR1	0	R1217T
1421.208	1.616	1428116	WORD	n/a	wordpools/wordpool_EN.txt	NOSE	9	10	[0, 0, 0]	n/a	FR1	0	R1217T
1422.824	1.0	1429732	WORD_OFF	n/a	n/a	NOSE	9	10	[0, 0, 0]	n/a	FR1	0	R1217T
1423.824	1.617	1430732	WORD	n/a	wordpools/wordpool_EN.txt	SHEEP	10	10	[0, 0, 0]	n/a	FR1	0	R1217T
1425.441	0.834	1432349	WORD_OFF	n/a	n/a	SHEEP	10	10	[0, 0, 0]	n/a	FR1	0	R1217T
1426.275	1.618	1433183	WORD	n/a	wordpools/wordpool_EN.txt	BRANCH	11	10	[0, 0, 0]	n/a	FR1	0	R1217T
1427.893	0.832	1434801	WORD_OFF	n/a	n/a	BRANCH	11	10	[0, 0, 0]	n/a	FR1	0	R1217T
1428.725	1.617	1435633	WORD	n/a	wordpools/wordpool_EN.txt	LEAF	12	10	[0, 0, 0]	n/a	FR1	0	R1217T
1430.342	0.0	1437250	WORD_OFF	n/a	n/a	LEAF	12	10	[0, 0, 0]	n/a	FR1	0	R1217T
1430.342	0.001	1437250	DISTRACT_START	n/a	n/a	n/a	-999	10	[0, 0, 0]	n/a	FR1	0	R1217T
1430.343	0.016	1437251	START	n/a	n/a	n/a	-999	10	[-999, -999, -999]	n/a	FR1	0	R1217T
1430.359	3.618	1437267	PROB	3.618	n/a	n/a	-999	10	[8, 1, 3]	12	FR1	0	R1217T
1433.977	2.7	1440885	PROB	2.7	n/a	n/a	-999	10	[3, 7, 3]	13	FR1	0	R1217T
1436.677	2.667	1443585	PROB	2.667	n/a	n/a	-999	10	[5, 8, 8]	21	FR1	0	R1217T
1439.344	3.401	1446251	PROB	3.401	n/a	n/a	-999	10	[2, 8, 4]	14	FR1	0	R1217T
1442.745	20.659	1449652	PROB	20.659	n/a	n/a	-999	10	[1, 4, 5]	1	FR1	0	R1217T
1463.404	0.011	1470310	STOP	n/a	n/a	n/a	-999	10	[-999, -999, -999]	n/a	FR1	0	R1217T
1463.415	0.585	1470321	DISTRACT_END	n/a	n/a	n/a	-999	10	[0, 0, 0]	n/a	FR1	0	R1217T
1464.0	0.517	1470906	RETRIEVAL_ORIENT	n/a	n/a	n/a	-999	10	[0, 0, 0]	n/a	FR1	0	R1217T
1464.517	1.694	1471423	REC_START	n/a	n/a	n/a	-999	10	[0, 0, 0]	n/a	FR1	0	R1217T
1466.211	1.259	1473117	REC_WORD	1.259	n/a	CAVE	1	10	[0, 0, 0]	n/a	FR1	0	R1217T
1467.47	1.188	1474376	REC_WORD	1.188	n/a	ROCK	5	10	[0, 0, 0]	n/a	FR1	0	R1217T
1468.658	7.852	1475564	REC_WORD	7.852	n/a	ROOF	-999	10	[0, 0, 0]	n/a	FR1	0	R1217T
1476.51	18.017	1483415	REC_WORD	18.017	n/a	BRANCH	11	10	[0, 0, 0]	n/a	FR1	0	R1217T
1494.527	43.452	1501431	REC_END	n/a	n/a	n/a	-999	10	[0, 0, 0]	n/a	FR1	0	R1217T
1537.979	0.5	1544880	TRIAL	n/a	n/a	n/a	-999	11	[0, 0, 0]	n/a	FR1	0	R1217T
1538.479	10.428	1545380	COUNTDOWN_START	n/a	n/a	n/a	-999	11	[0, 0, 0]	n/a	FR1	0	R1217T
1548.907	0.008	1555808	COUNTDOWN_END	n/a	n/a	n/a	-999	11	[0, 0, 0]	n/a	FR1	0	R1217T
1548.915	1.616	1555816	ORIENT	n/a	n/a	n/a	-999	11	[0, 0, 0]	n/a	FR1	0	R1217T
1550.531	2.017	1557432	ORIENT_OFF	n/a	n/a	n/a	-999	11	[0, 0, 0]	n/a	FR1	0	R1217T
1552.548	1.618	1559449	WORD	n/a	wordpools/wordpool_EN.txt	CAR	1	11	[0, 0, 0]	n/a	FR1	0	R1217T
1554.166	0.983	1561067	WORD_OFF	n/a	n/a	CAR	1	11	[0, 0, 0]	n/a	FR1	0	R1217T
1555.149	1.616	1562049	WORD	n/a	wordpools/wordpool_EN.txt	FROG	2	11	[0, 0, 0]	n/a	FR1	0	R1217T
1556.765	0.884	1563665	WORD_OFF	n/a	n/a	FROG	2	11	[0, 0, 0]	n/a	FR1	0	R1217T
1557.649	1.618	1564549	WORD	n/a	wordpools/wordpool_EN.txt	MAIL	3	11	[0, 0, 0]	n/a	FR1	0	R1217T
1559.267	0.833	1566167	WORD_OFF	n/a	n/a	MAIL	3	11	[0, 0, 0]	n/a	FR1	0	R1217T
1560.1	1.616	1567000	WORD	n/a	wordpools/wordpool_EN.txt	STREET	4	11	[0, 0, 0]	n/a	FR1	0	R1217T
1561.716	0.784	1568616	WORD_OFF	n/a	n/a	STREET	4	11	[0, 0, 0]	n/a	FR1	0	R1217T
1562.5	1.618	1569400	WORD	n/a	wordpools/wordpool_EN.txt	CLOCK	5	11	[0, 0, 0]	n/a	FR1	0	R1217T
1564.118	0.916	1571018	WORD_OFF	n/a	n/a	CLOCK	5	11	[0, 0, 0]	n/a	FR1	0	R1217T
1565.034	1.616	1571934	WORD	n/a	wordpools/wordpool_EN.txt	COIN	6	11	[0, 0, 0]	n/a	FR1	0	R1217T
1566.65	0.784	1573550	WORD_OFF	n/a	n/a	COIN	6	11	[0, 0, 0]	n/a	FR1	0	R1217T
1567.434	1.618	1574334	WORD	n/a	wordpools/wordpool_EN.txt	KEY	7	11	[0, 0, 0]	n/a	FR1	0	R1217T
1569.052	1.0	1575952	WORD_OFF	n/a	n/a	KEY	7	11	[0, 0, 0]	n/a	FR1	0	R1217T
1570.052	1.616	1576952	WORD	n/a	wordpools/wordpool_EN.txt	TANK	8	11	[0, 0, 0]	n/a	FR1	0	R1217T
1571.668	1.0	1578567	WORD_OFF	n/a	n/a	TANK	8	11	[0, 0, 0]	n/a	FR1	0	R1217T
1572.668	1.617	1579567	WORD	n/a	wordpools/wordpool_EN.txt	JUDGE	9	11	[0, 0, 0]	n/a	FR1	0	R1217T
1574.285	0.851	1581184	WORD_OFF	n/a	n/a	JUDGE	9	11	[0, 0, 0]	n/a	FR1	0	R1217T
1575.136	1.616	1582035	WORD	n/a	wordpools/wordpool_EN.txt	STORE	10	11	[0, 0, 0]	n/a	FR1	0	R1217T
1576.752	0.8	1583651	WORD_OFF	n/a	n/a	STORE	10	11	[0, 0, 0]	n/a	FR1	0	R1217T
1577.552	1.601	1584451	WORD	n/a	wordpools/wordpool_EN.txt	BADGE	11	11	[0, 0, 0]	n/a	FR1	0	R1217T
1579.153	0.801	1586052	WORD_OFF	n/a	n/a	BADGE	11	11	[0, 0, 0]	n/a	FR1	0	R1217T
1579.954	1.616	1586853	WORD	n/a	wordpools/wordpool_EN.txt	BOOK	12	11	[0, 0, 0]	n/a	FR1	0	R1217T
1581.57	0.0	1588469	WORD_OFF	n/a	n/a	BOOK	12	11	[0, 0, 0]	n/a	FR1	0	R1217T
1581.57	0.001	1588469	DISTRACT_START	n/a	n/a	n/a	-999	11	[0, 0, 0]	n/a	FR1	0	R1217T
1581.571	0.015	1588470	START	n/a	n/a	n/a	-999	11	[-999, -999, -999]	n/a	FR1	0	R1217T
1581.586	4.235	1588485	PROB	4.235	n/a	n/a	-999	11	[3, 8, 6]	17	FR1	0	R1217T
1585.821	3.583	1592720	PROB	3.583	n/a	n/a	-999	11	[8, 9, 6]	23	FR1	0	R1217T
1589.404	3.434	1596302	PROB	3.434	n/a	n/a	-999	11	[4, 7, 4]	15	FR1	0	R1217T
1592.838	3.735	1599736	PROB	3.735	n/a	n/a	-999	11	[4, 5, 4]	13	FR1	0	R1217T
1596.573	4.084	1603471	PROB	4.084	n/a	n/a	-999	11	[5, 3, 8]	16	FR1	0	R1217T
1600.657	13.051	1607555	PROB	13.051	n/a	n/a	-999	11	[9, 2, 8]	19	FR1	0	R1217T
1613.708	0.018	1620605	STOP	n/a	n/a	n/a	-999	11	[-999, -999, -999]	n/a	FR1	0	R1217T
1613.726	0.683	1620623	DISTRACT_END	n/a	n/a	n/a	-999	11	[0, 0, 0]	n/a	FR1	0	R1217T
1614.409	0.518	1621306	RETRIEVAL_ORIENT	n/a	n/a	n/a	-999	11	[0, 0, 0]	n/a	FR1	0	R1217T
1614.927	2.16	1621824	REC_START	n/a	n/a	n/a	-999	11	[0, 0, 0]	n/a	FR1	0	R1217T
1617.087	0.691	1623984	REC_WORD	0.691	n/a	CAR	1	11	[0, 0, 0]	n/a	FR1	0	R1217T
1617.778	1.293	1624675	REC_WORD	1.293	n/a	COIN	6	11	[0, 0, 0]	n/a	FR1	0	R1217T
1619.071	0.992	1625968	REC_WORD	0.992	n/a	CLOCK	5	11	[0, 0, 0]	n/a	FR1	0	R1217T
1620.063	1.552	1626960	REC_WORD	1.552	n/a	MAIL	3	11	[0, 0, 0]	n/a	FR1	0	R1217T
1621.615	7.36	1628512	REC_WORD	7.36	n/a	BOOK	12	11	[0, 0, 0]	n/a	FR1	0	R1217T
1628.975	8.571	1635871	REC_WORD	8.571	n/a	TEA	-999	11	[0, 0, 0]	n/a	FR1	0	R1217T
1637.546	7.393	1644442	REC_WORD	7.393	n/a	BANK	-999	11	[0, 0, 0]	n/a	FR1	0	R1217T
1644.939	5.593	1651834	REC_END	n/a	n/a	n/a	-999	11	[0, 0, 0]	n/a	FR1	0	R1217T
1650.532	0.5	1657427	TRIAL	n/a	n/a	n/a	-999	12	[0, 0, 0]	n/a	FR1	0	R1217T
1651.032	10.428	1657927	COUNTDOWN_START	n/a	n/a	n/a	-999	12	[0, 0, 0]	n/a	FR1	0	R1217T
1661.46	0.008	1668354	COUNTDOWN_END	n/a	n/a	n/a	-999	12	[0, 0, 0]	n/a	FR1	0	R1217T
1661.468	1.618	1668362	ORIENT	n/a	n/a	n/a	-999	12	[0, 0, 0]	n/a	FR1	0	R1217T
1663.086	2.05	1669980	ORIENT_OFF	n/a	n/a	n/a	-999	12	[0, 0, 0]	n/a	FR1	0	R1217T
1665.136	1.616	1672030	WORD	n/a	wordpools/wordpool_EN.txt	FLAG	1	12	[0, 0, 0]	n/a	FR1	0	R1217T
1666.752	0.883	1673646	WORD_OFF	n/a	n/a	FLAG	1	12	[0, 0, 0]	n/a	FR1	0	R1217T
1667.635	1.601	1674529	WORD	n/a	wordpools/wordpool_EN.txt	OAK	2	12	[0, 0, 0]	n/a	FR1	0	R1217T
1669.236	0.867	1676130	WORD_OFF	n/a	n/a	OAK	2	12	[0, 0, 0]	n/a	FR1	0	R1217T
1670.103	1.616	1676997	WORD	n/a	wordpools/wordpool_EN.txt	SKY	3	12	[0, 0, 0]	n/a	FR1	0	R1217T
1671.719	0.834	1678613	WORD_OFF	n/a	n/a	SKY	3	12	[0, 0, 0]	n/a	FR1	0	R1217T
1672.553	1.618	1679446	WORD	n/a	wordpools/wordpool_EN.txt	ROPE	4	12	[0, 0, 0]	n/a	FR1	0	R1217T
1674.171	0.8	1681064	WORD_OFF	n/a	n/a	ROPE	4	12	[0, 0, 0]	n/a	FR1	0	R1217T
1674.971	1.616	1681864	WORD	n/a	wordpools/wordpool_EN.txt	DOCK	5	12	[0, 0, 0]	n/a	FR1	0	R1217T
1676.587	0.817	1683480	WORD_OFF	n/a	n/a	DOCK	5	12	[0, 0, 0]	n/a	FR1	0	R1217T
1677.404	1.618	1684297	WORD	n/a	wordpools/wordpool_EN.txt	SIGN	6	12	[0, 0, 0]	n/a	FR1	0	R1217T
1679.022	0.9	1685915	WORD_OFF	n/a	n/a	SIGN	6	12	[0, 0, 0]	n/a	FR1	0	R1217T
1679.922	1.616	1686815	WORD	n/a	wordpools/wordpool_EN.txt	WAND	7	12	[0, 0, 0]	n/a	FR1	0	R1217T
1681.538	0.817	1688431	WORD_OFF	n/a	n/a	WAND	7	12	[0, 0, 0]	n/a	FR1	0	R1217T
1682.355	1.618	1689248	WORD	n/a	wordpools/wordpool_EN.txt	YARD	8	12	[0, 0, 0]	n/a	FR1	0	R1217T
1683.973	0.832	1690866	WORD_OFF	n/a	n/a	YARD	8	12	[0, 0, 0]	n/a	FR1	0	R1217T
1684.805	1.617	1691698	WORD	n/a	wordpools/wordpool_EN.txt	SNOW	9	12	[0, 0, 0]	n/a	FR1	0	R1217T
1686.422	0.818	1693315	WORD_OFF	n/a	n/a	SNOW	9	12	[0, 0, 0]	n/a	FR1	0	R1217T
1687.24	1.617	1694133	WORD	n/a	wordpools/wordpool_EN.txt	SUIT	10	12	[0, 0, 0]	n/a	FR1	0	R1217T
1688.857	0.799	1695749	WORD_OFF	n/a	n/a	SUIT	10	12	[0, 0, 0]	n/a	FR1	0	R1217T
1689.656	1.601	1696548	WORD	n/a	wordpools/wordpool_EN.txt	FOOT	11	12	[0, 0, 0]	n/a	FR1	0	R1217T
1691.257	0.917	1698149	WORD_OFF	n/a	n/a	FOOT	11	12	[0, 0, 0]	n/a	FR1	0	R1217T
1692.174	1.616	1699066	WORD	n/a	wordpools/wordpool_EN.txt	HEART	12	12	[0, 0, 0]	n/a	FR1	0	R1217T
1693.79	0.0	1700682	WORD_OFF	n/a	n/a	HEART	12	12	[0, 0, 0]	n/a	FR1	0	R1217T
1693.79	0.001	1700682	DISTRACT_START	n/a	n/a	n/a	-999	12	[0, 0, 0]	n/a	FR1	0	R1217T
1693.791	0.016	1700683	START	n/a	n/a	n/a	-999	12	[-999, -999, -999]	n/a	FR1	0	R1217T
1693.807	13.387	1700699	PROB	13.387	n/a	n/a	-999	12	[4, 8, 4]	16	FR1	0	R1217T
1707.194	4.349	1714085	PROB	4.349	n/a	n/a	-999	12	[5, 3, 9]	17	FR1	0	R1217T
1711.543	3.326	1718434	PROB	3.326	n/a	n/a	-999	12	[2, 8, 5]	15	FR1	0	R1217T
1714.869	0.009	1721760	STOP	n/a	n/a	n/a	-999	12	[-999, -999, -999]	n/a	FR1	0	R1217T
1714.878	0.699	1721769	DISTRACT_END	n/a	n/a	n/a	-999	12	[0, 0, 0]	n/a	FR1	0	R1217T
1715.577	0.519	1722468	RETRIEVAL_ORIENT	n/a	n/a	n/a	-999	12	[0, 0, 0]	n/a	FR1	0	R1217T
1716.096	1.754	1722987	REC_START	n/a	n/a	n/a	-999	12	[0, 0, 0]	n/a	FR1	0	R1217T
1717.85	0.746	1724741	REC_WORD	0.746	n/a	FLY	-999	12	[0, 0, 0]	n/a	FR1	0	R1217T
1718.596	2.025	1725487	REC_WORD	2.025	n/a	FLAG	1	12	[0, 0, 0]	n/a	FR1	0	R1217T
1720.621	7.727	1727512	REC_WORD	7.727	n/a	ROPE	4	12	[0, 0, 0]	n/a	FR1	0	R1217T
1728.348	0.661	1735238	REC_WORD	0.661	n/a	TREE	-999	12	[0, 0, 0]	n/a	FR1	0	R1217T
1729.009	17.098	1735899	REC_WORD	17.098	n/a	WAND	7	12	[0, 0, 0]	n/a	FR1	0	R1217T
1746.107	6.461	1752996	REC_END	n/a	n/a	n/a	-999	12	[0, 0, 0]	n/a	FR1	0	R1217T
1752.568	0.5	1759457	TRIAL	n/a	n/a	n/a	-999	13	[0, 0, 0]	n/a	FR1	0	R1217T
1753.068	10.428	1759957	COUNTDOWN_START	n/a	n/a	n/a	-999	13	[0, 0, 0]	n/a	FR1	0	R1217T
1763.496	0.007	1770384	COUNTDOWN_END	n/a	n/a	n/a	-999	13	[0, 0, 0]	n/a	FR1	0	R1217T
1763.503	1.618	1770391	ORIENT	n/a	n/a	n/a	-999	13	[0, 0, 0]	n/a	FR1	0	R1217T
1765.121	2.216	1772009	ORIENT_OFF	n/a	n/a	n/a	-999	13	[0, 0, 0]	n/a	FR1	0	R1217T
1767.337	1.618	1774225	WORD	n/a	wordpools/wordpool_EN.txt	GRAPE	1	13	[0, 0, 0]	n/a	FR1	0	R1217T
1768.955	0.832	1775843	WORD_OFF	n/a	n/a	GRAPE	1	13	[0, 0, 0]	n/a	FR1	0	R1217T
1769.787	1.617	1776675	WORD	n/a	wordpools/wordpool_EN.txt	WAVE	2	13	[0, 0, 0]	n/a	FR1	0	R1217T
1771.404	0.768	1778292	WORD_OFF	n/a	n/a	WAVE	2	13	[0, 0, 0]	n/a	FR1	0	R1217T
1772.172	1.616	1779060	WORD	n/a	wordpools/wordpool_EN.txt	TOOTH	3	13	[0, 0, 0]	n/a	FR1	0	R1217T
1773.788	0.95	1780675	WORD_OFF	n/a	n/a	TOOTH	3	13	[0, 0, 0]	n/a	FR1	0	R1217T
1774.738	1.617	1781625	WORD	n/a	wordpools/wordpool_EN.txt	BEAR	4	13	[0, 0, 0]	n/a	FR1	0	R1217T
1776.355	0.801	1783242	WORD_OFF	n/a	n/a	BEAR	4	13	[0, 0, 0]	n/a	FR1	0	R1217T
1777.156	1.616	1784043	WORD	n/a	wordpools/wordpool_EN.txt	DEER	5	13	[0, 0, 0]	n/a	FR1	0	R1217T
1778.772	1.0	1785659	WORD_OFF	n/a	n/a	DEER	5	13	[0, 0, 0]	n/a	FR1	0	R1217T
1779.772	1.617	1786659	WORD	n/a	wordpools/wordpool_EN.txt	MAP	6	13	[0, 0, 0]	n/a	FR1	0	R1217T
1781.389	0.785	1788276	WORD_OFF	n/a	n/a	MAP	6	13	[0, 0, 0]	n/a	FR1	0	R1217T
1782.174	1.616	1789061	WORD	n/a	wordpools/wordpool_EN.txt	DART	7	13	[0, 0, 0]	n/a	FR1	0	R1217T
1783.79	0.883	1790677	WORD_OFF	n/a	n/a	DART	7	13	[0, 0, 0]	n/a	FR1	0	R1217T
1784.673	1.617	1791560	WORD	n/a	wordpools/wordpool_EN.txt	TRASH	8	13	[0, 0, 0]	n/a	FR1	0	R1217T
1786.29	0.935	1793177	WORD_OFF	n/a	n/a	TRASH	8	13	[0, 0, 0]	n/a	FR1	0	R1217T
1787.225	1.617	1794112	WORD	n/a	wordpools/wordpool_EN.txt	MOON	9	13	[0, 0, 0]	n/a	FR1	0	R1217T
1788.842	0.949	1795729	WORD_OFF	n/a	n/a	MOON	9	13	[0, 0, 0]	n/a	FR1	0	R1217T
1789.791	1.617	1796677	WORD	n/a	wordpools/wordpool_EN.txt	EGG	10	13	[0, 0, 0]	n/a	FR1	0	R1217T
1791.408	0.768	1798294	WORD_OFF	n/a	n/a	EGG	10	13	[0, 0, 0]	n/a	FR1	0	R1217T
1792.176	1.616	1799062	WORD	n/a	wordpools/wordpool_EN.txt	FILM	11	13	[0, 0, 0]	n/a	FR1	0	R1217T
1793.792	0.983	1800678	WORD_OFF	n/a	n/a	FILM	11	13	[0, 0, 0]	n/a	FR1	0	R1217T
1794.775	1.617	1801661	WORD	n/a	wordpools/wordpool_EN.txt	GOLD	12	13	[0, 0, 0]	n/a	FR1	0	R1217T
1796.392	0.0	1803278	WORD_OFF	n/a	n/a	GOLD	12	13	[0, 0, 0]	n/a	FR1	0	R1217T
1796.392	0.001	1803278	DISTRACT_START	n/a	n/a	n/a	-999	13	[0, 0, 0]	n/a	FR1	0	R1217T
1796.393	0.016	1803279	START	n/a	n/a	n/a	-999	13	[-999, -999, -999]	n/a	FR1	0	R1217T
1796.409	3.601	1803295	PROB	3.601	n/a	n/a	-999	13	[1, 1, 6]	8	FR1	0	R1217T
1800.01	4.4	1806896	PROB	4.4	n/a	n/a	-999	13	[6, 7, 6]	19	FR1	0	R1217T
1804.41	3.519	1811296	PROB	3.519	n/a	n/a	-999	13	[6, 7, 1]	14	FR1	0	R1217T
1807.929	3.549	1814814	PROB	3.549	n/a	n/a	-999	13	[3, 4, 9]	16	FR1	0	R1217T
1811.478	15.504	1818363	PROB	15.504	n/a	n/a	-999	13	[7, 2, 7]	16	FR1	0	R1217T
1826.982	0.017	1833866	STOP	n/a	n/a	n/a	-999	13	[-999, -999, -999]	n/a	FR1	0	R1217T
1826.999	0.649	1833883	DISTRACT_END	n/a	n/a	n/a	-999	13	[0, 0, 0]	n/a	FR1	0	R1217T
1827.648	0.518	1834532	RETRIEVAL_ORIENT	n/a	n/a	n/a	-999	13	[0, 0, 0]	n/a	FR1	0	R1217T
1828.166	1.564	1835050	REC_START	n/a	n/a	n/a	-999	13	[0, 0, 0]	n/a	FR1	0	R1217T
1829.73	0.755	1836614	REC_WORD	0.755	n/a	GRAPE	1	13	[0, 0, 0]	n/a	FR1	0	R1217T
1830.485	1.645	1837369	REC_WORD	1.645	n/a	WAVE	2	13	[0, 0, 0]	n/a	FR1	0	R1217T
1832.13	0.683	1839014	REC_WORD	0.683	n/a	DART	7	13	[0, 0, 0]	n/a	FR1	0	R1217T
1832.813	0.667	1839697	REC_WORD	0.667	n/a	DEER	5	13	[0, 0, 0]	n/a	FR1	0	R1217T
1833.48	4.526	1840364	REC_WORD	4.526	n/a	BEAR	4	13	[0, 0, 0]	n/a	FR1	0	R1217T
1838.006	20.171	1844890	REC_WORD	20.171	n/a	EGG	10	13	[0, 0, 0]	n/a	FR1	0	R1217T
1858.177	6.762	1865059	REC_END	n/a	n/a	n/a	-999	13	[0, 0, 0]	n/a	FR1	0	R1217T
1864.939	0.5	1871821	TRIAL	n/a	n/a	n/a	-999	14	[0, 0, 0]	n/a	FR1	0	R1217T
1865.439	10.428	1872321	COUNTDOWN_START	n/a	n/a	n/a	-999	14	[0, 0, 0]	n/a	FR1	0	R1217T
1875.867	0.007	1882748	COUNTDOWN_END	n/a	n/a	n/a	-999	14	[0, 0, 0]	n/a	FR1	0	R1217T
1875.874	1.616	1882755	ORIENT	n/a	n/a	n/a	-999	14	[0, 0, 0]	n/a	FR1	0	R1217T
1877.49	2.101	1884371	ORIENT_OFF	n/a	n/a	n/a	-999	14	[0, 0, 0]	n/a	FR1	0	R1217T
1879.591	1.618	1886472	WORD	n/a	wordpools/wordpool_EN.txt	RAKE	1	14	[0, 0, 0]	n/a	FR1	0	R1217T
1881.209	0.933	1888090	WORD_OFF	n/a	n/a	RAKE	1	14	[0, 0, 0]	n/a	FR1	0	R1217T
1882.142	1.616	1889023	WORD	n/a	wordpools/wordpool_EN.txt	BEACH	2	14	[0, 0, 0]	n/a	FR1	0	R1217T
1883.758	0.767	1890639	WORD_OFF	n/a	n/a	BEACH	2	14	[0, 0, 0]	n/a	FR1	0	R1217T
1884.525	1.618	1891406	WORD	n/a	wordpools/wordpool_EN.txt	PANTS	3	14	[0, 0, 0]	n/a	FR1	0	R1217T
1886.143	0.816	1893024	WORD_OFF	n/a	n/a	PANTS	3	14	[0, 0, 0]	n/a	FR1	0	R1217T
1886.959	1.617	1893840	WORD	n/a	wordpools/wordpool_EN.txt	SPEAR	4	14	[0, 0, 0]	n/a	FR1	0	R1217T
1888.576	0.883	1895457	WORD_OFF	n/a	n/a	SPEAR	4	14	[0, 0, 0]	n/a	FR1	0	R1217T
1889.459	1.618	1896340	WORD	n/a	wordpools/wordpool_EN.txt	SNAKE	5	14	[0, 0, 0]	n/a	FR1	0	R1217T
1891.077	0.8	1897957	WORD_OFF	n/a	n/a	SNAKE	5	14	[0, 0, 0]	n/a	FR1	0	R1217T
1891.877	1.616	1898757	WORD	n/a	wordpools/wordpool_EN.txt	SOAP	6	14	[0, 0, 0]	n/a	FR1	0	R1217T
1893.493	1.0	1900373	WORD_OFF	n/a	n/a	SOAP	6	14	[0, 0, 0]	n/a	FR1	0	R1217T
1894.493	1.618	1901373	WORD	n/a	wordpools/wordpool_EN.txt	HOOF	7	14	[0, 0, 0]	n/a	FR1	0	R1217T
1896.111	1.0	1902991	WORD_OFF	n/a	n/a	HOOF	7	14	[0, 0, 0]	n/a	FR1	0	R1217T
1897.111	1.616	1903991	WORD	n/a	wordpools/wordpool_EN.txt	FOAM	8	14	[0, 0, 0]	n/a	FR1	0	R1217T
1898.727	0.867	1905607	WORD_OFF	n/a	n/a	FOAM	8	14	[0, 0, 0]	n/a	FR1	0	R1217T
1899.594	1.618	1906474	WORD	n/a	wordpools/wordpool_EN.txt	WOOD	9	14	[0, 0, 0]	n/a	FR1	0	R1217T
1901.212	0.8	1908092	WORD_OFF	n/a	n/a	WOOD	9	14	[0, 0, 0]	n/a	FR1	0	R1217T
1902.012	1.616	1908892	WORD	n/a	wordpools/wordpool_EN.txt	SKUNK	10	14	[0, 0, 0]	n/a	FR1	0	R1217T
1903.628	0.917	1910508	WORD_OFF	n/a	n/a	SKUNK	10	14	[0, 0, 0]	n/a	FR1	0	R1217T
1904.545	1.618	1911425	WORD	n/a	wordpools/wordpool_EN.txt	FLEA	11	14	[0, 0, 0]	n/a	FR1	0	R1217T
1906.163	1.0	1913043	WORD_OFF	n/a	n/a	FLEA	11	14	[0, 0, 0]	n/a	FR1	0	R1217T
1907.163	1.616	1914042	WORD	n/a	wordpools/wordpool_EN.txt	STRING	12	14	[0, 0, 0]	n/a	FR1	0	R1217T
1908.779	0.0	1915658	WORD_OFF	n/a	n/a	STRING	12	14	[0, 0, 0]	n/a	FR1	0	R1217T
1908.779	0.001	1915658	DISTRACT_START	n/a	n/a	n/a	-999	14	[0, 0, 0]	n/a	FR1	0	R1217T
1908.78	0.016	1915659	START	n/a	n/a	n/a	-999	14	[-999, -999, -999]	n/a	FR1	0	R1217T
1908.796	6.369	1915675	PROB	6.369	n/a	n/a	-999	14	[7, 4, 9]	20	FR1	0	R1217T
1915.165	3.499	1922044	PROB	3.499	n/a	n/a	-999	14	[2, 5, 7]	14	FR1	0	R1217T
1918.664	3.868	1925543	PROB	3.868	n/a	n/a	-999	14	[1, 7, 2]	10	FR1	0	R1217T
1922.532	3.585	1929411	PROB	3.585	n/a	n/a	-999	14	[8, 1, 4]	13	FR1	0	R1217T
1926.117	3.296	1932995	PROB	3.296	n/a	n/a	-999	14	[7, 9, 5]	21	FR1	0	R1217T
1929.413	0.02	1936291	STOP	n/a	n/a	n/a	-999	14	[-999, -999, -999]	n/a	FR1	0	R1217T
1929.433	0.618	1936311	DISTRACT_END	n/a	n/a	n/a	-999	14	[0, 0, 0]	n/a	FR1	0	R1217T
1930.051	0.517	1936929	RETRIEVAL_ORIENT	n/a	n/a	n/a	-999	14	[0, 0, 0]	n/a	FR1	0	R1217T
1930.568	2.535	1937446	REC_START	n/a	n/a	n/a	-999	14	[0, 0, 0]	n/a	FR1	0	R1217T
1933.103	3.432	1939981	REC_WORD	3.432	n/a	RAKE	1	14	[0, 0, 0]	n/a	FR1	0	R1217T
1936.535	8.841	1943413	REC_WORD	8.841	n/a	BEACH	2	14	[0, 0, 0]	n/a	FR1	0	R1217T
1945.376	10.768	1952253	REC_WORD	10.768	n/a	SAND	-999	14	[0, 0, 0]	n/a	FR1	0	R1217T
1956.144	4.432	1963021	REC_WORD	4.432	n/a	BROOM	-999	14	[0, 0, 0]	n/a	FR1	0	R1217T
1960.576	7.047	1967452	REC_END	n/a	n/a	n/a	-999	14	[0, 0, 0]	n/a	FR1	0	R1217T
1967.623	0.5	1974499	TRIAL	n/a	n/a	n/a	-999	15	[0, 0, 0]	n/a	FR1	0	R1217T
1968.123	10.428	1974999	COUNTDOWN_START	n/a	n/a	n/a	-999	15	[0, 0, 0]	n/a	FR1	0	R1217T
1978.551	0.008	1985426	COUNTDOWN_END	n/a	n/a	n/a	-999	15	[0, 0, 0]	n/a	FR1	0	R1217T
1978.559	1.618	1985434	ORIENT	n/a	n/a	n/a	-999	15	[0, 0, 0]	n/a	FR1	0	R1217T
1980.177	2.132	1987052	ORIENT_OFF	n/a	n/a	n/a	-999	15	[0, 0, 0]	n/a	FR1	0	R1217T
1982.309	1.601	1989184	WORD	n/a	wordpools/wordpool_EN.txt	BOARD	1	15	[0, 0, 0]	n/a	FR1	0	R1217T
1983.91	0.967	1990785	WORD_OFF	n/a	n/a	BOARD	1	15	[0, 0, 0]	n/a	FR1	0	R1217T
1984.877	1.616	1991752	WORD	n/a	wordpools/wordpool_EN.txt	PHONE	2	15	[0, 0, 0]	n/a	FR1	0	R1217T
1986.493	0.768	1993368	WORD_OFF	n/a	n/a	PHONE	2	15	[0, 0, 0]	n/a	FR1	0	R1217T
1987.261	1.617	1994136	WORD	n/a	wordpools/wordpool_EN.txt	WHEEL	3	15	[0, 0, 0]	n/a	FR1	0	R1217T
1988.878	0.899	1995753	WORD_OFF	n/a	n/a	WHEEL	3	15	[0, 0, 0]	n/a	FR1	0	R1217T
1989.777	1.617	1996652	WORD	n/a	wordpools/wordpool_EN.txt	CAPE	4	15	[0, 0, 0]	n/a	FR1	0	R1217T
1991.394	0.768	1998268	WORD_OFF	n/a	n/a	CAPE	4	15	[0, 0, 0]	n/a	FR1	0	R1217T
1992.162	1.616	1999036	WORD	n/a	wordpools/wordpool_EN.txt	BOMB	5	15	[0, 0, 0]	n/a	FR1	0	R1217T
1993.778	0.9	2000652	WORD_OFF	n/a	n/a	BOMB	5	15	[0, 0, 0]	n/a	FR1	0	R1217T
1994.678	1.617	2001552	WORD	n/a	wordpools/wordpool_EN.txt	SHEET	6	15	[0, 0, 0]	n/a	FR1	0	R1217T
1996.295	1.0	2003169	WORD_OFF	n/a	n/a	SHEET	6	15	[0, 0, 0]	n/a	FR1	0	R1217T
1997.295	1.601	2004169	WORD	n/a	wordpools/wordpool_EN.txt	WORLD	7	15	[0, 0, 0]	n/a	FR1	0	R1217T
1998.896	0.8	2005770	WORD_OFF	n/a	n/a	WORLD	7	15	[0, 0, 0]	n/a	FR1	0	R1217T
1999.696	1.617	2006570	WORD	n/a	wordpools/wordpool_EN.txt	TEETH	8	15	[0, 0, 0]	n/a	FR1	0	R1217T
2001.313	0.834	2008187	WORD_OFF	n/a	n/a	TEETH	8	15	[0, 0, 0]	n/a	FR1	0	R1217T
2002.147	1.616	2009021	WORD	n/a	wordpools/wordpool_EN.txt	TOOL	9	15	[0, 0, 0]	n/a	FR1	0	R1217T
2003.763	0.834	2010637	WORD_OFF	n/a	n/a	TOOL	9	15	[0, 0, 0]	n/a	FR1	0	R1217T
2004.597	1.618	2011471	WORD	n/a	wordpools/wordpool_EN.txt	PLANE	10	15	[0, 0, 0]	n/a	FR1	0	R1217T
2006.215	0.95	2013089	WORD_OFF	n/a	n/a	PLANE	10	15	[0, 0, 0]	n/a	FR1	0	R1217T
2007.165	1.616	2014038	WORD	n/a	wordpools/wordpool_EN.txt	CORD	11	15	[0, 0, 0]	n/a	FR1	0	R1217T
2008.781	0.95	2015654	WORD_OFF	n/a	n/a	CORD	11	15	[0, 0, 0]	n/a	FR1	0	R1217T
2009.731	1.617	2016604	WORD	n/a	wordpools/wordpool_EN.txt	CASH	12	15	[0, 0, 0]	n/a	FR1	0	R1217T
2011.348	0.0	2018221	WORD_OFF	n/a	n/a	CASH	12	15	[0, 0, 0]	n/a	FR1	0	R1217T
2011.348	0.0	2018221	DISTRACT_START	n/a	n/a	n/a	-999	15	[0, 0, 0]	n/a	FR1	0	R1217T
2011.348	0.017	2018221	START	n/a	n/a	n/a	-999	15	[-999, -999, -999]	n/a	FR1	0	R1217T
2011.365	5.117	2018238	PROB	5.117	n/a	n/a	-999	15	[1, 2, 4]	7	FR1	0	R1217T
2016.482	3.201	2023355	PROB	3.201	n/a	n/a	-999	15	[7, 7, 7]	21	FR1	0	R1217T
2019.683	3.867	2026556	PROB	3.867	n/a	n/a	-999	15	[4, 9, 4]	17	FR1	0	R1217T
2023.55	12.199	2030422	PROB	12.199	n/a	n/a	-999	15	[2, 2, 6]	10	FR1	0	R1217T
2035.749	0.02	2042621	STOP	n/a	n/a	n/a	-999	15	[-999, -999, -999]	n/a	FR1	0	R1217T
2035.769	0.583	2042641	DISTRACT_END	n/a	n/a	n/a	-999	15	[0, 0, 0]	n/a	FR1	0	R1217T
2036.352	0.519	2043224	RETRIEVAL_ORIENT	n/a	n/a	n/a	-999	15	[0, 0, 0]	n/a	FR1	0	R1217T
2036.871	2.972	2043743	REC_START	n/a	n/a	n/a	-999	15	[0, 0, 0]	n/a	FR1	0	R1217T
2039.843	1.675	2046715	REC_WORD	1.675	n/a	BOARD	1	15	[0, 0, 0]	n/a	FR1	0	R1217T
2041.518	0.578	2048389	REC_WORD	0.578	n/a	WORLD	7	15	[0, 0, 0]	n/a	FR1	0	R1217T
2042.096	5.199	2048967	REC_WORD	5.199	n/a	TOOTH	-999	15	[0, 0, 0]	n/a	FR1	0	R1217T
2047.295	9.86	2054166	REC_WORD	9.86	n/a	WOOD	-999	15	[0, 0, 0]	n/a	FR1	0	R1217T
2057.155	9.726	2064025	REC_WORD	9.726	n/a	BANK	-999	15	[0, 0, 0]	n/a	FR1	0	R1217T
2066.881	7.196	2073751	REC_END	n/a	n/a	n/a	-999	15	[0, 0, 0]	n/a	FR1	0	R1217T
2074.077	0.5	2080946	TRIAL	n/a	n/a	n/a	-999	16	[0, 0, 0]	n/a	FR1	0	R1217T
2074.577	10.428	2081446	COUNTDOWN_START	n/a	n/a	n/a	-999	16	[0, 0, 0]	n/a	FR1	0	R1217T
2085.005	0.007	2091874	COUNTDOWN_END	n/a	n/a	n/a	-999	16	[0, 0, 0]	n/a	FR1	0	R1217T
2085.012	1.616	2091881	ORIENT	n/a	n/a	n/a	-999	16	[0, 0, 0]	n/a	FR1	0	R1217T
2086.628	2.184	2093497	ORIENT_OFF	n/a	n/a	n/a	-999	16	[0, 0, 0]	n/a	FR1	0	R1217T
2088.812	1.617	2095681	WORD	n/a	wordpools/wordpool_EN.txt	MUD	1	16	[0, 0, 0]	n/a	FR1	0	R1217T
2090.429	0.801	2097298	WORD_OFF	n/a	n/a	MUD	1	16	[0, 0, 0]	n/a	FR1	0	R1217T
2091.23	1.617	2098098	WORD	n/a	wordpools/wordpool_EN.txt	BED	2	16	[0, 0, 0]	n/a	FR1	0	R1217T
2092.847	1.017	2099715	WORD_OFF	n/a	n/a	BED	2	16	[0, 0, 0]	n/a	FR1	0	R1217T
2093.864	1.616	2100732	WORD	n/a	wordpools/wordpool_EN.txt	FORK	3	16	[0, 0, 0]	n/a	FR1	0	R1217T
2095.48	1.0	2102348	WORD_OFF	n/a	n/a	FORK	3	16	[0, 0, 0]	n/a	FR1	0	R1217T
2096.48	1.618	2103348	WORD	n/a	wordpools/wordpool_EN.txt	DOOR	4	16	[0, 0, 0]	n/a	FR1	0	R1217T
2098.098	1.0	2104966	WORD_OFF	n/a	n/a	DOOR	4	16	[0, 0, 0]	n/a	FR1	0	R1217T
2099.098	1.616	2105966	WORD	n/a	wordpools/wordpool_EN.txt	SPOON	5	16	[0, 0, 0]	n/a	FR1	0	R1217T
2100.714	0.95	2107582	WORD_OFF	n/a	n/a	SPOON	5	16	[0, 0, 0]	n/a	FR1	0	R1217T
2101.664	1.601	2108532	WORD	n/a	wordpools/wordpool_EN.txt	TOAST	6	16	[0, 0, 0]	n/a	FR1	0	R1217T
2103.265	0.767	2110133	WORD_OFF	n/a	n/a	TOAST	6	16	[0, 0, 0]	n/a	FR1	0	R1217T
2104.032	1.616	2110900	WORD	n/a	wordpools/wordpool_EN.txt	MAT	7	16	[0, 0, 0]	n/a	FR1	0	R1217T
2105.648	0.951	2112516	WORD_OFF	n/a	n/a	MAT	7	16	[0, 0, 0]	n/a	FR1	0	R1217T
2106.599	1.618	2113467	WORD	n/a	wordpools/wordpool_EN.txt	SINK	8	16	[0, 0, 0]	n/a	FR1	0	R1217T
2108.217	0.766	2115084	WORD_OFF	n/a	n/a	SINK	8	16	[0, 0, 0]	n/a	FR1	0	R1217T
2108.983	1.616	2115850	WORD	n/a	wordpools/wordpool_EN.txt	FLUTE	9	16	[0, 0, 0]	n/a	FR1	0	R1217T
2110.599	0.817	2117466	WORD_OFF	n/a	n/a	FLUTE	9	16	[0, 0, 0]	n/a	FR1	0	R1217T
2111.416	1.618	2118283	WORD	n/a	wordpools/wordpool_EN.txt	BATH	10	16	[0, 0, 0]	n/a	FR1	0	R1217T
2113.034	0.967	2119901	WORD_OFF	n/a	n/a	BATH	10	16	[0, 0, 0]	n/a	FR1	0	R1217T
2114.001	1.616	2120868	WORD	n/a	wordpools/wordpool_EN.txt	SWAMP	11	16	[0, 0, 0]	n/a	FR1	0	R1217T
2115.617	0.85	2122484	WORD_OFF	n/a	n/a	SWAMP	11	16	[0, 0, 0]	n/a	FR1	0	R1217T
2116.467	1.618	2123334	WORD	n/a	wordpools/wordpool_EN.txt	TENT	12	16	[0, 0, 0]	n/a	FR1	0	R1217T
2118.085	0.0	2124952	WORD_OFF	n/a	n/a	TENT	12	16	[0, 0, 0]	n/a	FR1	0	R1217T
2118.085	0.001	2124952	DISTRACT_START	n/a	n/a	n/a	-999	16	[0, 0, 0]	n/a	FR1	0	R1217T
2118.086	0.016	2124953	START	n/a	n/a	n/a	-999	16	[-999, -999, -999]	n/a	FR1	0	R1217T
2118.102	8.634	2124969	PROB	8.634	n/a	n/a	-999	16	[1, 6, 7]	14	FR1	0	R1217T
2126.736	4.168	2133602	PROB	4.168	n/a	n/a	-999	16	[8, 1, 5]	14	FR1	0	R1217T
2130.904	2.849	2137770	PROB	2.849	n/a	n/a	-999	16	[4, 2, 7]	13	FR1	0	R1217T
2133.753	3.068	2140619	PROB	3.068	n/a	n/a	-999	16	[5, 5, 8]	18	FR1	0	R1217T
2136.821	12.992	2143687	PROB	12.992	n/a	n/a	-999	16	[9, 6, 2]	17	FR1	0	R1217T
2149.813	0.01	2156678	STOP	n/a	n/a	n/a	-999	16	[-999, -999, -999]	n/a	FR1	0	R1217T
2149.823	0.667	2156688	DISTRACT_END	n/a	n/a	n/a	-999	16	[0, 0, 0]	n/a	FR1	0	R1217T
2150.49	0.519	2157355	RETRIEVAL_ORIENT	n/a	n/a	n/a	-999	16	[0, 0, 0]	n/a	FR1	0	R1217T
2151.009	3.152	2157874	REC_START	n/a	n/a	n/a	-999	16	[0, 0, 0]	n/a	FR1	0	R1217T
2154.161	0.696	2161026	REC_WORD	0.696	n/a	BED	2	16	[0, 0, 0]	n/a	FR1	0	R1217T
2154.857	1.056	2161722	REC_WORD	1.056	n/a	DOOR	4	16	[0, 0, 0]	n/a	FR1	0	R1217T
2155.913	25.106	2162778	REC_WORD	25.106	n/a	SWAMP	11	16	[0, 0, 0]	n/a	FR1	0	R1217T
2181.019	5.928	2187882	REC_END	n/a	n/a	n/a	-999	16	[0, 0, 0]	n/a	FR1	0	R1217T
2186.947	0.5	2193810	TRIAL	n/a	n/a	n/a	-999	17	[0, 0, 0]	n/a	FR1	0	R1217T
2187.447	10.428	2194310	COUNTDOWN_START	n/a	n/a	n/a	-999	17	[0, 0, 0]	n/a	FR1	0	R1217T
2197.875	0.008	2204737	COUNTDOWN_END	n/a	n/a	n/a	-999	17	[0, 0, 0]	n/a	FR1	0	R1217T
2197.883	1.616	2204745	ORIENT	n/a	n/a	n/a	-999	17	[0, 0, 0]	n/a	FR1	0	R1217T
2199.499	2.25	2206361	ORIENT_OFF	n/a	n/a	n/a	-999	17	[0, 0, 0]	n/a	FR1	0	R1217T
2201.749	1.617	2208611	WORD	n/a	wordpools/wordpool_EN.txt	MOTH	1	17	[0, 0, 0]	n/a	FR1	0	R1217T
2203.366	0.851	2210228	WORD_OFF	n/a	n/a	MOTH	1	17	[0, 0, 0]	n/a	FR1	0	R1217T
2204.217	1.616	2211079	WORD	n/a	wordpools/wordpool_EN.txt	FLAME	2	17	[0, 0, 0]	n/a	FR1	0	R1217T
2205.833	0.934	2212695	WORD_OFF	n/a	n/a	FLAME	2	17	[0, 0, 0]	n/a	FR1	0	R1217T
2206.767	1.617	2213629	WORD	n/a	wordpools/wordpool_EN.txt	SLIME	3	17	[0, 0, 0]	n/a	FR1	0	R1217T
2208.384	0.933	2215245	WORD_OFF	n/a	n/a	SLIME	3	17	[0, 0, 0]	n/a	FR1	0	R1217T
2209.317	1.618	2216178	WORD	n/a	wordpools/wordpool_EN.txt	EAR	4	17	[0, 0, 0]	n/a	FR1	0	R1217T
2210.935	0.766	2217796	WORD_OFF	n/a	n/a	EAR	4	17	[0, 0, 0]	n/a	FR1	0	R1217T
2211.701	1.617	2218562	WORD	n/a	wordpools/wordpool_EN.txt	SNAIL	5	17	[0, 0, 0]	n/a	FR1	0	R1217T
2213.318	0.934	2220179	WORD_OFF	n/a	n/a	SNAIL	5	17	[0, 0, 0]	n/a	FR1	0	R1217T
2214.252	1.618	2221113	WORD	n/a	wordpools/wordpool_EN.txt	CAKE	6	17	[0, 0, 0]	n/a	FR1	0	R1217T
2215.87	0.999	2222731	WORD_OFF	n/a	n/a	CAKE	6	17	[0, 0, 0]	n/a	FR1	0	R1217T
2216.869	1.617	2223730	WORD	n/a	wordpools/wordpool_EN.txt	HEN	7	17	[0, 0, 0]	n/a	FR1	0	R1217T
2218.486	0.933	2225347	WORD_OFF	n/a	n/a	HEN	7	17	[0, 0, 0]	n/a	FR1	0	R1217T
2219.419	1.618	2226280	WORD	n/a	wordpools/wordpool_EN.txt	SHELL	8	17	[0, 0, 0]	n/a	FR1	0	R1217T
2221.037	0.95	2227898	WORD_OFF	n/a	n/a	SHELL	8	17	[0, 0, 0]	n/a	FR1	0	R1217T
2221.987	1.616	2228848	WORD	n/a	wordpools/wordpool_EN.txt	PEAR	9	17	[0, 0, 0]	n/a	FR1	0	R1217T
2223.603	0.967	2230464	WORD_OFF	n/a	n/a	PEAR	9	17	[0, 0, 0]	n/a	FR1	0	R1217T
2224.57	1.618	2231430	WORD	n/a	wordpools/wordpool_EN.txt	CRANE	10	17	[0, 0, 0]	n/a	FR1	0	R1217T
2226.188	0.967	2233048	WORD_OFF	n/a	n/a	CRANE	10	17	[0, 0, 0]	n/a	FR1	0	R1217T
2227.155	1.616	2234015	WORD	n/a	wordpools/wordpool_EN.txt	MOLE	11	17	[0, 0, 0]	n/a	FR1	0	R1217T
2228.771	0.85	2235631	WORD_OFF	n/a	n/a	MOLE	11	17	[0, 0, 0]	n/a	FR1	0	R1217T
2229.621	1.618	2236481	WORD	n/a	wordpools/wordpool_EN.txt	OWL	12	17	[0, 0, 0]	n/a	FR1	0	R1217T
2231.239	0.0	2238099	DISTRACT_START	n/a	n/a	n/a	-999	17	[0, 0, 0]	n/a	FR1	0	R1217T
2231.239	0.001	2238099	WORD_OFF	n/a	n/a	OWL	12	17	[0, 0, 0]	n/a	FR1	0	R1217T
2231.24	0.016	2238100	START	n/a	n/a	n/a	-999	17	[-999, -999, -999]	n/a	FR1	0	R1217T
2231.256	4.9	2238116	PROB	4.9	n/a	n/a	-999	17	[1, 1, 4]	6	FR1	0	R1217T
2236.156	3.267	2243016	PROB	3.267	n/a	n/a	-999	17	[1, 8, 8]	17	FR1	0	R1217T
2239.423	4.635	2246283	PROB	4.635	n/a	n/a	-999	17	[7, 9, 9]	25	FR1	0	R1217T
2244.058	3.233	2250917	PROB	3.233	n/a	n/a	-999	17	[7, 7, 1]	15	FR1	0	R1217T
2247.291	9.563	2254150	PROB	9.563	n/a	n/a	-999	17	[4, 3, 4]	11	FR1	0	R1217T
2256.854	0.006	2263713	STOP	n/a	n/a	n/a	-999	17	[-999, -999, -999]	n/a	FR1	0	R1217T
2256.86	0.649	2263719	DISTRACT_END	n/a	n/a	n/a	-999	17	[0, 0, 0]	n/a	FR1	0	R1217T
2257.509	0.519	2264368	RETRIEVAL_ORIENT	n/a	n/a	n/a	-999	17	[0, 0, 0]	n/a	FR1	0	R1217T
2258.028	1.241	2264886	REC_START	n/a	n/a	n/a	-999	17	[0, 0, 0]	n/a	FR1	0	R1217T
2259.269	0.686	2266127	REC_WORD	0.686	n/a	MOTH	1	17	[0, 0, 0]	n/a	FR1	0	R1217T
2259.955	1.757	2266813	REC_WORD	1.757	n/a	SNAIL	5	17	[0, 0, 0]	n/a	FR1	0	R1217T
2261.712	4.18	2268570	REC_WORD	4.18	n/a	CRANE	10	17	[0, 0, 0]	n/a	FR1	0	R1217T
2265.892	3.294	2272750	REC_WORD	3.294	n/a	FLAME	2	17	[0, 0, 0]	n/a	FR1	0	R1217T
2269.186	0.746	2276044	REC_WORD	0.746	n/a	OWL	12	17	[0, 0, 0]	n/a	FR1	0	R1217T
2269.932	7.845	2276790	REC_WORD	7.845	n/a	MOLE	11	17	[0, 0, 0]	n/a	FR1	0	R1217T
2277.777	10.261	2284634	REC_WORD	10.261	n/a	FORT	-999	17	[0, 0, 0]	n/a	FR1	0	R1217T
2288.038	6.879	2294895	REC_END	n/a	n/a	n/a	-999	17	[0, 0, 0]	n/a	FR1	0	R1217T
2294.917	0.5	2301773	TRIAL	n/a	n/a	n/a	-999	18	[0, 0, 0]	n/a	FR1	0	R1217T
2295.417	10.428	2302273	COUNTDOWN_START	n/a	n/a	n/a	-999	18	[0, 0, 0]	n/a	FR1	0	R1217T
2305.845	0.007	2312701	COUNTDOWN_END	n/a	n/a	n/a	-999	18	[0, 0, 0]	n/a	FR1	0	R1217T
2305.852	1.616	2312708	ORIENT	n/a	n/a	n/a	-999	18	[0, 0, 0]	n/a	FR1	0	R1217T
2307.468	2.067	2314324	ORIENT_OFF	n/a	n/a	n/a	-999	18	[0, 0, 0]	n/a	FR1	0	R1217T
2309.535	1.602	2316390	WORD	n/a	wordpools/wordpool_EN.txt	VASE	1	18	[0, 0, 0]	n/a	FR1	0	R1217T
2311.137	0.866	2317992	WORD_OFF	n/a	n/a	VASE	1	18	[0, 0, 0]	n/a	FR1	0	R1217T
2312.003	1.617	2318858	WORD	n/a	wordpools/wordpool_EN.txt	CLOWN	2	18	[0, 0, 0]	n/a	FR1	0	R1217T
2313.62	0.983	2320475	WORD_OFF	n/a	n/a	CLOWN	2	18	[0, 0, 0]	n/a	FR1	0	R1217T
2314.603	1.601	2321458	WORD	n/a	wordpools/wordpool_EN.txt	POOL	3	18	[0, 0, 0]	n/a	FR1	0	R1217T
2316.204	0.801	2323059	WORD_OFF	n/a	n/a	POOL	3	18	[0, 0, 0]	n/a	FR1	0	R1217T
2317.005	1.615	2323860	WORD	n/a	wordpools/wordpool_EN.txt	NET	4	18	[0, 0, 0]	n/a	FR1	0	R1217T
2318.62	0.917	2325475	WORD_OFF	n/a	n/a	NET	4	18	[0, 0, 0]	n/a	FR1	0	R1217T
2319.537	1.601	2326392	WORD	n/a	wordpools/wordpool_EN.txt	CLAY	5	18	[0, 0, 0]	n/a	FR1	0	R1217T
2321.138	0.867	2327993	WORD_OFF	n/a	n/a	CLAY	5	18	[0, 0, 0]	n/a	FR1	0	R1217T
2322.005	1.616	2328860	WORD	n/a	wordpools/wordpool_EN.txt	TEA	6	18	[0, 0, 0]	n/a	FR1	0	R1217T
2323.621	0.817	2330476	WORD_OFF	n/a	n/a	TEA	6	18	[0, 0, 0]	n/a	FR1	0	R1217T
2324.438	1.618	2331293	WORD	n/a	wordpools/wordpool_EN.txt	SPRING	7	18	[0, 0, 0]	n/a	FR1	0	R1217T
2326.056	0.8	2332910	WORD_OFF	n/a	n/a	SPRING	7	18	[0, 0, 0]	n/a	FR1	0	R1217T
2326.856	1.616	2333710	WORD	n/a	wordpools/wordpool_EN.txt	SEAL	8	18	[0, 0, 0]	n/a	FR1	0	R1217T
2328.472	0.801	2335326	WORD_OFF	n/a	n/a	SEAL	8	18	[0, 0, 0]	n/a	FR1	0	R1217T
2329.273	1.617	2336127	WORD	n/a	wordpools/wordpool_EN.txt	BOAT	9	18	[0, 0, 0]	n/a	FR1	0	R1217T
2330.89	0.916	2337744	WORD_OFF	n/a	n/a	BOAT	9	18	[0, 0, 0]	n/a	FR1	0	R1217T
2331.806	1.617	2338660	WORD	n/a	wordpools/wordpool_EN.txt	CHAIR	10	18	[0, 0, 0]	n/a	FR1	0	R1217T
2333.423	0.785	2340277	WORD_OFF	n/a	n/a	CHAIR	10	18	[0, 0, 0]	n/a	FR1	0	R1217T
2334.208	1.616	2341062	WORD	n/a	wordpools/wordpool_EN.txt	DUCK	11	18	[0, 0, 0]	n/a	FR1	0	R1217T
2335.824	0.783	2342678	WORD_OFF	n/a	n/a	DUCK	11	18	[0, 0, 0]	n/a	FR1	0	R1217T
2336.607	1.601	2343461	WORD	n/a	wordpools/wordpool_EN.txt	EEL	12	18	[0, 0, 0]	n/a	FR1	0	R1217T
2338.208	0.0	2345062	WORD_OFF	n/a	n/a	EEL	12	18	[0, 0, 0]	n/a	FR1	0	R1217T
2338.208	0.001	2345062	DISTRACT_START	n/a	n/a	n/a	-999	18	[0, 0, 0]	n/a	FR1	0	R1217T
2338.209	0.016	2345063	START	n/a	n/a	n/a	-999	18	[-999, -999, -999]	n/a	FR1	0	R1217T
2338.225	4.133	2345079	PROB	4.133	n/a	n/a	-999	18	[7, 1, 4]	12	FR1	0	R1217T
2342.358	6.552	2349211	PROB	6.552	n/a	n/a	-999	18	[7, 9, 2]	18	FR1	0	R1217T
2348.91	5.534	2355763	PROB	5.534	n/a	n/a	-999	18	[7, 9, 1]	17	FR1	0	R1217T
2354.444	3.134	2361297	PROB	3.134	n/a	n/a	-999	18	[6, 8, 8]	24	FR1	0	R1217T
2357.578	5.802	2364431	PROB	5.802	n/a	n/a	-999	18	[8, 9, 1]	18	FR1	0	R1217T
2363.38	0.015	2370232	STOP	n/a	n/a	n/a	-999	18	[-999, -999, -999]	n/a	FR1	0	R1217T
2363.395	0.568	2370247	DISTRACT_END	n/a	n/a	n/a	-999	18	[0, 0, 0]	n/a	FR1	0	R1217T
2363.963	0.516	2370815	RETRIEVAL_ORIENT	n/a	n/a	n/a	-999	18	[0, 0, 0]	n/a	FR1	0	R1217T
2364.479	1.704	2371331	REC_START	n/a	n/a	n/a	-999	18	[0, 0, 0]	n/a	FR1	0	R1217T
2366.183	0.349	2373035	REC_WORD	0.349	n/a	CLAY	5	18	[0, 0, 0]	n/a	FR1	0	R1217T
2366.532	1.623	2373384	REC_WORD	1.623	n/a	VASE	1	18	[0, 0, 0]	n/a	FR1	0	R1217T
2368.155	0.437	2375007	REC_WORD	0.437	n/a	NET	4	18	[0, 0, 0]	n/a	FR1	0	R1217T
2368.592	25.897	2375444	REC_WORD	25.897	n/a	POOL	3	18	[0, 0, 0]	n/a	FR1	0	R1217T
2394.489	5.98	2401339	REC_END	n/a	n/a	n/a	-999	18	[0, 0, 0]	n/a	FR1	0	R1217T
2400.469	0.5	2407319	TRIAL	n/a	n/a	n/a	-999	19	[0, 0, 0]	n/a	FR1	0	R1217T
2400.969	10.428	2407819	COUNTDOWN_START	n/a	n/a	n/a	-999	19	[0, 0, 0]	n/a	FR1	0	R1217T
2411.397	0.007	2418246	COUNTDOWN_END	n/a	n/a	n/a	-999	19	[0, 0, 0]	n/a	FR1	0	R1217T
2411.404	1.618	2418253	ORIENT	n/a	n/a	n/a	-999	19	[0, 0, 0]	n/a	FR1	0	R1217T
2413.022	2.117	2419871	ORIENT_OFF	n/a	n/a	n/a	-999	19	[0, 0, 0]	n/a	FR1	0	R1217T
2415.139	1.616	2421988	WORD	n/a	wordpools/wordpool_EN.txt	PASTE	1	19	[0, 0, 0]	n/a	FR1	0	R1217T
2416.755	0.984	2423604	WORD_OFF	n/a	n/a	PASTE	1	19	[0, 0, 0]	n/a	FR1	0	R1217T
2417.739	1.616	2424588	WORD	n/a	wordpools/wordpool_EN.txt	BEAN	2	19	[0, 0, 0]	n/a	FR1	0	R1217T
2419.355	1.001	2426204	WORD_OFF	n/a	n/a	BEAN	2	19	[0, 0, 0]	n/a	FR1	0	R1217T
2420.356	1.618	2427205	WORD	n/a	wordpools/wordpool_EN.txt	INK	3	19	[0, 0, 0]	n/a	FR1	0	R1217T
2421.974	0.849	2428823	WORD_OFF	n/a	n/a	INK	3	19	[0, 0, 0]	n/a	FR1	0	R1217T
2422.823	1.617	2429672	WORD	n/a	wordpools/wordpool_EN.txt	FENCE	4	19	[0, 0, 0]	n/a	FR1	0	R1217T
2424.44	0.784	2431289	WORD_OFF	n/a	n/a	FENCE	4	19	[0, 0, 0]	n/a	FR1	0	R1217T
2425.224	1.617	2432073	WORD	n/a	wordpools/wordpool_EN.txt	TRAY	5	19	[0, 0, 0]	n/a	FR1	0	R1217T
2426.841	0.933	2433689	WORD_OFF	n/a	n/a	TRAY	5	19	[0, 0, 0]	n/a	FR1	0	R1217T
2427.774	1.617	2434622	WORD	n/a	wordpools/wordpool_EN.txt	CART	6	19	[0, 0, 0]	n/a	FR1	0	R1217T
2429.391	0.784	2436239	WORD_OFF	n/a	n/a	CART	6	19	[0, 0, 0]	n/a	FR1	0	R1217T
2430.175	1.616	2437023	WORD	n/a	wordpools/wordpool_EN.txt	CHALK	7	19	[0, 0, 0]	n/a	FR1	0	R1217T
2431.791	0.984	2438639	WORD_OFF	n/a	n/a	CHALK	7	19	[0, 0, 0]	n/a	FR1	0	R1217T
2432.775	1.617	2439623	WORD	n/a	wordpools/wordpool_EN.txt	FRUIT	8	19	[0, 0, 0]	n/a	FR1	0	R1217T
2434.392	0.933	2441240	WORD_OFF	n/a	n/a	FRUIT	8	19	[0, 0, 0]	n/a	FR1	0	R1217T
2435.325	1.618	2442173	WORD	n/a	wordpools/wordpool_EN.txt	SHARK	9	19	[0, 0, 0]	n/a	FR1	0	R1217T
2436.943	0.9	2443791	WORD_OFF	n/a	n/a	SHARK	9	19	[0, 0, 0]	n/a	FR1	0	R1217T
2437.843	1.616	2444691	WORD	n/a	wordpools/wordpool_EN.txt	STONE	10	19	[0, 0, 0]	n/a	FR1	0	R1217T
2439.459	0.9	2446307	WORD_OFF	n/a	n/a	STONE	10	19	[0, 0, 0]	n/a	FR1	0	R1217T
2440.359	1.618	2447207	WORD	n/a	wordpools/wordpool_EN.txt	PLATE	11	19	[0, 0, 0]	n/a	FR1	0	R1217T
2441.977	0.883	2448825	WORD_OFF	n/a	n/a	PLATE	11	19	[0, 0, 0]	n/a	FR1	0	R1217T
2442.86	1.617	2449707	WORD	n/a	wordpools/wordpool_EN.txt	SALT	12	19	[0, 0, 0]	n/a	FR1	0	R1217T
2444.477	0.0	2451324	WORD_OFF	n/a	n/a	SALT	12	19	[0, 0, 0]	n/a	FR1	0	R1217T
2444.477	0.0	2451324	DISTRACT_START	n/a	n/a	n/a	-999	19	[0, 0, 0]	n/a	FR1	0	R1217T
2444.477	0.016	2451324	START	n/a	n/a	n/a	-999	19	[-999, -999, -999]	n/a	FR1	0	R1217T
2444.493	3.968	2451340	PROB	3.968	n/a	n/a	-999	19	[2, 6, 2]	10	FR1	0	R1217T
2448.461	3.167	2455308	PROB	3.167	n/a	n/a	-999	19	[4, 5, 1]	10	FR1	0	R1217T
2451.628	2.418	2458475	PROB	2.418	n/a	n/a	-999	19	[5, 5, 1]	11	FR1	0	R1217T
2454.046	3.084	2460893	PROB	3.084	n/a	n/a	-999	19	[8, 7, 1]	16	FR1	0	R1217T
2457.13	5.25	2463977	PROB	5.25	n/a	n/a	-999	19	[9, 3, 6]	18	FR1	0	R1217T
2462.38	7.809	2469226	PROB	7.809	n/a	n/a	-999	19	[3, 6, 3]	12	FR1	0	R1217T
2470.189	0.01	2477035	STOP	n/a	n/a	n/a	-999	19	[-999, -999, -999]	n/a	FR1	0	R1217T
2470.199	0.632	2477045	DISTRACT_END	n/a	n/a	n/a	-999	19	[0, 0, 0]	n/a	FR1	0	R1217T
2470.831	0.518	2477677	RETRIEVAL_ORIENT	n/a	n/a	n/a	-999	19	[0, 0, 0]	n/a	FR1	0	R1217T
2471.349	2.291	2478195	REC_START	n/a	n/a	n/a	-999	19	[0, 0, 0]	n/a	FR1	0	R1217T
2473.64	0.865	2480486	REC_WORD	0.865	n/a	PASTE	1	19	[0, 0, 0]	n/a	FR1	0	R1217T
2474.505	1.434	2481351	REC_WORD	1.434	n/a	CHALK	7	19	[0, 0, 0]	n/a	FR1	0	R1217T
2475.939	14.796	2482784	REC_WORD	14.796	n/a	INK	3	19	[0, 0, 0]	n/a	FR1	0	R1217T
2490.735	10.624	2497580	REC_WORD	10.624	n/a	TEA	-999	19	[0, 0, 0]	n/a	FR1	0	R1217T
2501.359	7.979	2508203	REC_END	n/a	n/a	n/a	-999	19	[0, 0, 0]	n/a	FR1	0	R1217T
2509.338	0.5	2516181	TRIAL	n/a	n/a	n/a	-999	20	[0, 0, 0]	n/a	FR1	0	R1217T
2509.838	10.428	2516681	COUNTDOWN_START	n/a	n/a	n/a	-999	20	[0, 0, 0]	n/a	FR1	0	R1217T
2520.266	0.008	2527109	COUNTDOWN_END	n/a	n/a	n/a	-999	20	[0, 0, 0]	n/a	FR1	0	R1217T
2520.274	1.618	2527117	ORIENT	n/a	n/a	n/a	-999	20	[0, 0, 0]	n/a	FR1	0	R1217T
2521.892	1.766	2528735	ORIENT_OFF	n/a	n/a	n/a	-999	20	[0, 0, 0]	n/a	FR1	0	R1217T
2523.658	1.617	2530501	WORD	n/a	wordpools/wordpool_EN.txt	JET	1	20	[0, 0, 0]	n/a	FR1	0	R1217T
2525.275	0.868	2532118	WORD_OFF	n/a	n/a	JET	1	20	[0, 0, 0]	n/a	FR1	0	R1217T
2526.143	1.616	2532985	WORD	n/a	wordpools/wordpool_EN.txt	RAIN	2	20	[0, 0, 0]	n/a	FR1	0	R1217T
2527.759	0.933	2534601	WORD_OFF	n/a	n/a	RAIN	2	20	[0, 0, 0]	n/a	FR1	0	R1217T
2528.692	1.617	2535534	WORD	n/a	wordpools/wordpool_EN.txt	WEB	3	20	[0, 0, 0]	n/a	FR1	0	R1217T
2530.309	0.918	2537151	WORD_OFF	n/a	n/a	WEB	3	20	[0, 0, 0]	n/a	FR1	0	R1217T
2531.227	1.617	2538069	WORD	n/a	wordpools/wordpool_EN.txt	CLOUD	4	20	[0, 0, 0]	n/a	FR1	0	R1217T
2532.844	1.0	2539686	WORD_OFF	n/a	n/a	CLOUD	4	20	[0, 0, 0]	n/a	FR1	0	R1217T
2533.844	1.616	2540686	WORD	n/a	wordpools/wordpool_EN.txt	SCHOOL	5	20	[0, 0, 0]	n/a	FR1	0	R1217T
2535.46	0.784	2542302	WORD_OFF	n/a	n/a	SCHOOL	5	20	[0, 0, 0]	n/a	FR1	0	R1217T
2536.244	1.617	2543086	WORD	n/a	wordpools/wordpool_EN.txt	BLOOM	6	20	[0, 0, 0]	n/a	FR1	0	R1217T
2537.861	0.799	2544703	WORD_OFF	n/a	n/a	BLOOM	6	20	[0, 0, 0]	n/a	FR1	0	R1217T
2538.66	1.602	2545502	WORD	n/a	wordpools/wordpool_EN.txt	PEA	7	20	[0, 0, 0]	n/a	FR1	0	R1217T
2540.262	0.8	2547104	WORD_OFF	n/a	n/a	PEA	7	20	[0, 0, 0]	n/a	FR1	0	R1217T
2541.062	1.616	2547904	WORD	n/a	wordpools/wordpool_EN.txt	CROW	8	20	[0, 0, 0]	n/a	FR1	0	R1217T
2542.678	0.767	2549519	WORD_OFF	n/a	n/a	CROW	8	20	[0, 0, 0]	n/a	FR1	0	R1217T
2543.445	1.618	2550286	WORD	n/a	wordpools/wordpool_EN.txt	FISH	9	20	[0, 0, 0]	n/a	FR1	0	R1217T
2545.063	0.9	2551904	WORD_OFF	n/a	n/a	FISH	9	20	[0, 0, 0]	n/a	FR1	0	R1217T
2545.963	1.616	2552804	WORD	n/a	wordpools/wordpool_EN.txt	TOAD	10	20	[0, 0, 0]	n/a	FR1	0	R1217T
2547.579	0.867	2554420	WORD_OFF	n/a	n/a	TOAD	10	20	[0, 0, 0]	n/a	FR1	0	R1217T
2548.446	1.618	2555287	WORD	n/a	wordpools/wordpool_EN.txt	SPARK	11	20	[0, 0, 0]	n/a	FR1	0	R1217T
2550.064	0.8	2556905	WORD_OFF	n/a	n/a	SPARK	11	20	[0, 0, 0]	n/a	FR1	0	R1217T
2550.864	1.616	2557705	WORD	n/a	wordpools/wordpool_EN.txt	BEE	12	20	[0, 0, 0]	n/a	FR1	0	R1217T
2552.48	0.0	2559321	WORD_OFF	n/a	n/a	BEE	12	20	[0, 0, 0]	n/a	FR1	0	R1217T
2552.48	0.0	2559321	DISTRACT_START	n/a	n/a	n/a	-999	20	[0, 0, 0]	n/a	FR1	0	R1217T
2552.48	0.016	2559321	START	n/a	n/a	n/a	-999	20	[-999, -999, -999]	n/a	FR1	0	R1217T
2552.496	3.369	2559337	PROB	3.369	n/a	n/a	-999	20	[3, 8, 1]	12	FR1	0	R1217T
2555.865	4.966	2562706	PROB	4.966	n/a	n/a	-999	20	[1, 5, 3]	9	FR1	0	R1217T
2560.831	4.734	2567671	PROB	4.734	n/a	n/a	-999	20	[4, 2, 3]	9	FR1	0	R1217T
2565.565	3.168	2572405	PROB	3.168	n/a	n/a	-999	20	[5, 5, 6]	16	FR1	0	R1217T
2568.733	8.799	2575573	PROB	8.799	n/a	n/a	-999	20	[6, 2, 5]	13	FR1	0	R1217T
2577.532	0.019	2584371	STOP	n/a	n/a	n/a	-999	20	[-999, -999, -999]	n/a	FR1	0	R1217T
2577.551	0.584	2584390	DISTRACT_END	n/a	n/a	n/a	-999	20	[0, 0, 0]	n/a	FR1	0	R1217T
2578.135	0.517	2584974	RETRIEVAL_ORIENT	n/a	n/a	n/a	-999	20	[0, 0, 0]	n/a	FR1	0	R1217T
2578.652	2.09	2585491	REC_START	n/a	n/a	n/a	-999	20	[0, 0, 0]	n/a	FR1	0	R1217T
2580.742	0.459	2587581	REC_WORD	0.459	n/a	JEWEL	-999	20	[0, 0, 0]	n/a	FR1	0	R1217T
2581.201	0.784	2588040	REC_WORD	0.784	n/a	FISH	9	20	[0, 0, 0]	n/a	FR1	0	R1217T
2581.985	10.228	2588824	REC_WORD	10.228	n/a	TOAD	10	20	[0, 0, 0]	n/a	FR1	0	R1217T
2592.213	4.871	2599052	REC_WORD	4.871	n/a	CROW	8	20	[0, 0, 0]	n/a	FR1	0	R1217T
2597.084	0.675	2603922	REC_WORD	0.675	n/a	JET	1	20	[0, 0, 0]	n/a	FR1	0	R1217T
2597.759	4.444	2604597	REC_WORD	4.444	n/a	WEB	3	20	[0, 0, 0]	n/a	FR1	0	R1217T
2602.203	6.46	2609041	REC_WORD	6.46	n/a	BROOM	-999	20	[0, 0, 0]	n/a	FR1	0	R1217T
2608.663	5.645	2615501	REC_END	n/a	n/a	n/a	-999	20	[0, 0, 0]	n/a	FR1	0	R1217T
2614.308	0.5	2621145	TRIAL	n/a	n/a	n/a	-999	21	[0, 0, 0]	n/a	FR1	0	R1217T
2614.808	10.428	2621645	COUNTDOWN_START	n/a	n/a	n/a	-999	21	[0, 0, 0]	n/a	FR1	0	R1217T
2625.236	0.008	2632073	COUNTDOWN_END	n/a	n/a	n/a	-999	21	[0, 0, 0]	n/a	FR1	0	R1217T
2625.244	1.617	2632081	ORIENT	n/a	n/a	n/a	-999	21	[0, 0, 0]	n/a	FR1	0	R1217T
2626.861	2.0	2633697	ORIENT_OFF	n/a	n/a	n/a	-999	21	[0, 0, 0]	n/a	FR1	0	R1217T
2628.861	1.616	2635697	WORD	n/a	wordpools/wordpool_EN.txt	PURSE	1	21	[0, 0, 0]	n/a	FR1	0	R1217T
2630.477	0.85	2637313	WORD_OFF	n/a	n/a	PURSE	1	21	[0, 0, 0]	n/a	FR1	0	R1217T
2631.327	1.618	2638163	WORD	n/a	wordpools/wordpool_EN.txt	ELF	2	21	[0, 0, 0]	n/a	FR1	0	R1217T
2632.945	0.816	2639781	WORD_OFF	n/a	n/a	ELF	2	21	[0, 0, 0]	n/a	FR1	0	R1217T
2633.761	1.617	2640597	WORD	n/a	wordpools/wordpool_EN.txt	BAT	3	21	[0, 0, 0]	n/a	FR1	0	R1217T
2635.378	0.917	2642214	WORD_OFF	n/a	n/a	BAT	3	21	[0, 0, 0]	n/a	FR1	0	R1217T
2636.295	1.618	2643131	WORD	n/a	wordpools/wordpool_EN.txt	PEN	4	21	[0, 0, 0]	n/a	FR1	0	R1217T
2637.913	0.967	2644749	WORD_OFF	n/a	n/a	PEN	4	21	[0, 0, 0]	n/a	FR1	0	R1217T
2638.88	1.616	2645716	WORD	n/a	wordpools/wordpool_EN.txt	HAND	5	21	[0, 0, 0]	n/a	FR1	0	R1217T
2640.496	0.85	2647332	WORD_OFF	n/a	n/a	HAND	5	21	[0, 0, 0]	n/a	FR1	0	R1217T
2641.346	1.618	2648182	WORD	n/a	wordpools/wordpool_EN.txt	NAIL	6	21	[0, 0, 0]	n/a	FR1	0	R1217T
2642.964	0.883	2649800	WORD_OFF	n/a	n/a	NAIL	6	21	[0, 0, 0]	n/a	FR1	0	R1217T
2643.847	1.616	2650682	WORD	n/a	wordpools/wordpool_EN.txt	PIE	7	21	[0, 0, 0]	n/a	FR1	0	R1217T
2645.463	0.901	2652298	WORD_OFF	n/a	n/a	PIE	7	21	[0, 0, 0]	n/a	FR1	0	R1217T
2646.364	1.617	2653199	WORD	n/a	wordpools/wordpool_EN.txt	BOY	8	21	[0, 0, 0]	n/a	FR1	0	R1217T
2647.981	0.867	2654816	WORD_OFF	n/a	n/a	BOY	8	21	[0, 0, 0]	n/a	FR1	0	R1217T
2648.848	1.616	2655683	WORD	n/a	wordpools/wordpool_EN.txt	GLOVE	9	21	[0, 0, 0]	n/a	FR1	0	R1217T
2650.464	0.9	2657299	WORD_OFF	n/a	n/a	GLOVE	9	21	[0, 0, 0]	n/a	FR1	0	R1217T
2651.364	1.601	2658199	WORD	n/a	wordpools/wordpool_EN.txt	BREAD	10	21	[0, 0, 0]	n/a	FR1	0	R1217T
2652.965	0.884	2659800	WORD_OFF	n/a	n/a	BREAD	10	21	[0, 0, 0]	n/a	FR1	0	R1217T
2653.849	1.616	2660684	WORD	n/a	wordpools/wordpool_EN.txt	HOOK	11	21	[0, 0, 0]	n/a	FR1	0	R1217T
2655.465	0.967	2662300	WORD_OFF	n/a	n/a	HOOK	11	21	[0, 0, 0]	n/a	FR1	0	R1217T
2656.432	1.618	2663267	WORD	n/a	wordpools/wordpool_EN.txt	STOOL	12	21	[0, 0, 0]	n/a	FR1	0	R1217T
2658.05	0.0	2664885	WORD_OFF	n/a	n/a	STOOL	12	21	[0, 0, 0]	n/a	FR1	0	R1217T
2658.05	0.001	2664885	DISTRACT_START	n/a	n/a	n/a	-999	21	[0, 0, 0]	n/a	FR1	0	R1217T
2658.051	0.016	2664886	START	n/a	n/a	n/a	-999	21	[-999, -999, -999]	n/a	FR1	0	R1217T
2658.067	3.333	2664902	PROB	3.333	n/a	n/a	-999	21	[2, 3, 1]	6	FR1	0	R1217T
2661.4	3.801	2668234	PROB	3.801	n/a	n/a	-999	21	[6, 2, 5]	13	FR1	0	R1217T
2665.201	3.701	2672035	PROB	3.701	n/a	n/a	-999	21	[5, 4, 3]	12	FR1	0	R1217T
2668.902	3.1	2675736	PROB	3.1	n/a	n/a	-999	21	[4, 6, 9]	19	FR1	0	R1217T
2672.002	10.115	2678836	PROB	10.115	n/a	n/a	-999	21	[7, 4, 6]	17	FR1	0	R1217T
2682.117	0.021	2688950	STOP	n/a	n/a	n/a	-999	21	[-999, -999, -999]	n/a	FR1	0	R1217T
2682.138	0.698	2688971	DISTRACT_END	n/a	n/a	n/a	-999	21	[0, 0, 0]	n/a	FR1	0	R1217T
2682.836	0.52	2689669	RETRIEVAL_ORIENT	n/a	n/a	n/a	-999	21	[0, 0, 0]	n/a	FR1	0	R1217T
2683.356	2.555	2690189	REC_START	n/a	n/a	n/a	-999	21	[0, 0, 0]	n/a	FR1	0	R1217T
2685.911	0.56	2692744	REC_WORD	0.56	n/a	ELF	2	21	[0, 0, 0]	n/a	FR1	0	R1217T
2686.471	0.889	2693304	REC_WORD	0.889	n/a	PURSE	1	21	[0, 0, 0]	n/a	FR1	0	R1217T
2687.36	2.891	2694193	REC_WORD	2.891	n/a	PEN	4	21	[0, 0, 0]	n/a	FR1	0	R1217T
2690.251	4.303	2697084	REC_WORD	4.303	n/a	BOY	8	21	[0, 0, 0]	n/a	FR1	0	R1217T
2694.554	18.81	2701386	REC_WORD	18.81	n/a	BAT	3	21	[0, 0, 0]	n/a	FR1	0	R1217T
2713.364	6.279	2720195	REC_END	n/a	n/a	n/a	-999	21	[0, 0, 0]	n/a	FR1	0	R1217T
2719.643	0.5	2726474	TRIAL	n/a	n/a	n/a	-999	22	[0, 0, 0]	n/a	FR1	0	R1217T
2720.143	10.428	2726974	COUNTDOWN_START	n/a	n/a	n/a	-999	22	[0, 0, 0]	n/a	FR1	0	R1217T
2730.571	0.008	2737401	COUNTDOWN_END	n/a	n/a	n/a	-999	22	[0, 0, 0]	n/a	FR1	0	R1217T
2730.579	1.618	2737409	ORIENT	n/a	n/a	n/a	-999	22	[0, 0, 0]	n/a	FR1	0	R1217T
2732.197	2.034	2739027	ORIENT_OFF	n/a	n/a	n/a	-999	22	[0, 0, 0]	n/a	FR1	0	R1217T
2734.231	1.616	2741061	WORD	n/a	wordpools/wordpool_EN.txt	DOG	1	22	[0, 0, 0]	n/a	FR1	0	R1217T
2735.847	0.866	2742677	WORD_OFF	n/a	n/a	DOG	1	22	[0, 0, 0]	n/a	FR1	0	R1217T
2736.713	1.617	2743543	WORD	n/a	wordpools/wordpool_EN.txt	BIRD	2	22	[0, 0, 0]	n/a	FR1	0	R1217T
2738.33	0.918	2745160	WORD_OFF	n/a	n/a	BIRD	2	22	[0, 0, 0]	n/a	FR1	0	R1217T
2739.248	1.617	2746078	WORD	n/a	wordpools/wordpool_EN.txt	CORN	3	22	[0, 0, 0]	n/a	FR1	0	R1217T
2740.865	0.899	2747695	WORD_OFF	n/a	n/a	CORN	3	22	[0, 0, 0]	n/a	FR1	0	R1217T
2741.764	1.617	2748594	WORD	n/a	wordpools/wordpool_EN.txt	CUP	4	22	[0, 0, 0]	n/a	FR1	0	R1217T
2743.381	0.917	2750211	WORD_OFF	n/a	n/a	CUP	4	22	[0, 0, 0]	n/a	FR1	0	R1217T
2744.298	1.618	2751127	WORD	n/a	wordpools/wordpool_EN.txt	FARM	5	22	[0, 0, 0]	n/a	FR1	0	R1217T
2745.916	0.933	2752745	WORD_OFF	n/a	n/a	FARM	5	22	[0, 0, 0]	n/a	FR1	0	R1217T
2746.849	1.616	2753678	WORD	n/a	wordpools/wordpool_EN.txt	FOX	6	22	[0, 0, 0]	n/a	FR1	0	R1217T
2748.465	0.901	2755294	WORD_OFF	n/a	n/a	FOX	6	22	[0, 0, 0]	n/a	FR1	0	R1217T
2749.366	1.618	2756195	WORD	n/a	wordpools/wordpool_EN.txt	ZOO	7	22	[0, 0, 0]	n/a	FR1	0	R1217T
2750.984	0.983	2757813	WORD_OFF	n/a	n/a	ZOO	7	22	[0, 0, 0]	n/a	FR1	0	R1217T
2751.967	1.616	2758796	WORD	n/a	wordpools/wordpool_EN.txt	CAT	8	22	[0, 0, 0]	n/a	FR1	0	R1217T
2753.583	0.9	2760412	WORD_OFF	n/a	n/a	CAT	8	22	[0, 0, 0]	n/a	FR1	0	R1217T
2754.483	1.601	2761312	WORD	n/a	wordpools/wordpool_EN.txt	ANT	9	22	[0, 0, 0]	n/a	FR1	0	R1217T
2756.084	0.917	2762913	WORD_OFF	n/a	n/a	ANT	9	22	[0, 0, 0]	n/a	FR1	0	R1217T
2757.001	1.616	2763830	WORD	n/a	wordpools/wordpool_EN.txt	HORSE	10	22	[0, 0, 0]	n/a	FR1	0	R1217T
2758.617	0.9	2765446	WORD_OFF	n/a	n/a	HORSE	10	22	[0, 0, 0]	n/a	FR1	0	R1217T
2759.517	1.618	2766346	WORD	n/a	wordpools/wordpool_EN.txt	KITE	11	22	[0, 0, 0]	n/a	FR1	0	R1217T
2761.135	0.901	2767963	WORD_OFF	n/a	n/a	KITE	11	22	[0, 0, 0]	n/a	FR1	0	R1217T
2762.036	1.615	2768864	WORD	n/a	wordpools/wordpool_EN.txt	PET	12	22	[0, 0, 0]	n/a	FR1	0	R1217T
2763.651	0.0	2770479	WORD_OFF	n/a	n/a	PET	12	22	[0, 0, 0]	n/a	FR1	0	R1217T
2763.651	0.001	2770479	DISTRACT_START	n/a	n/a	n/a	-999	22	[0, 0, 0]	n/a	FR1	0	R1217T
2763.652	0.016	2770480	START	n/a	n/a	n/a	-999	22	[-999, -999, -999]	n/a	FR1	0	R1217T
2763.668	4.001	2770496	PROB	4.001	n/a	n/a	-999	22	[7, 3, 5]	16	FR1	0	R1217T
2767.669	3.951	2774497	PROB	3.951	n/a	n/a	-999	22	[6, 5, 3]	14	FR1	0	R1217T
2771.62	3.083	2778448	PROB	3.083	n/a	n/a	-999	22	[2, 6, 3]	11	FR1	0	R1217T
2774.703	3.818	2781531	PROB	3.818	n/a	n/a	-999	22	[9, 3, 5]	17	FR1	0	R1217T
2778.521	4.385	2785348	PROB	4.385	n/a	n/a	-999	22	[5, 8, 6]	19	FR1	0	R1217T
2782.906	3.043	2789733	PROB	3.043	n/a	n/a	-999	22	[6, 3, 4]	15	FR1	0	R1217T
2785.949	0.008	2792776	STOP	n/a	n/a	n/a	-999	22	[-999, -999, -999]	n/a	FR1	0	R1217T
2785.957	0.665	2792784	DISTRACT_END	n/a	n/a	n/a	-999	22	[0, 0, 0]	n/a	FR1	0	R1217T
2786.622	0.519	2793449	RETRIEVAL_ORIENT	n/a	n/a	n/a	-999	22	[0, 0, 0]	n/a	FR1	0	R1217T
2787.141	4.168	2793968	REC_START	n/a	n/a	n/a	-999	22	[0, 0, 0]	n/a	FR1	0	R1217T
2791.309	0.373	2798136	REC_WORD	0.373	n/a	DOG	1	22	[0, 0, 0]	n/a	FR1	0	R1217T
2791.682	0.483	2798509	REC_WORD	0.483	n/a	CAT	8	22	[0, 0, 0]	n/a	FR1	0	R1217T
2792.165	6.216	2798992	REC_WORD	6.216	n/a	BIRD	2	22	[0, 0, 0]	n/a	FR1	0	R1217T
2798.381	0.831	2805207	REC_WORD	0.831	n/a	FARM	5	22	[0, 0, 0]	n/a	FR1	0	R1217T
2799.212	0.678	2806038	REC_WORD	0.678	n/a	ZOO	7	22	[0, 0, 0]	n/a	FR1	0	R1217T
2799.89	5.393	2806716	REC_WORD	5.393	n/a	ANT	9	22	[0, 0, 0]	n/a	FR1	0	R1217T
2805.283	11.87	2812109	REC_WORD	11.87	n/a	PET	12	22	[0, 0, 0]	n/a	FR1	0	R1217T
2817.153	5.226	2823978	REC_END	n/a	n/a	n/a	-999	22	[0, 0, 0]	n/a	FR1	0	R1217T
2822.379	0.5	2829204	TRIAL	n/a	n/a	n/a	-999	23	[0, 0, 0]	n/a	FR1	0	R1217T
2822.879	10.428	2829704	COUNTDOWN_START	n/a	n/a	n/a	-999	23	[0, 0, 0]	n/a	FR1	0	R1217T
2833.307	0.007	2840131	COUNTDOWN_END	n/a	n/a	n/a	-999	23	[0, 0, 0]	n/a	FR1	0	R1217T
2833.314	1.618	2840138	ORIENT	n/a	n/a	n/a	-999	23	[0, 0, 0]	n/a	FR1	0	R1217T
2834.932	1.967	2841756	ORIENT_OFF	n/a	n/a	n/a	-999	23	[0, 0, 0]	n/a	FR1	0	R1217T
2836.899	1.616	2843723	WORD	n/a	wordpools/wordpool_EN.txt	WEED	1	23	[0, 0, 0]	n/a	FR1	0	R1217T
2838.515	0.85	2845339	WORD_OFF	n/a	n/a	WEED	1	23	[0, 0, 0]	n/a	FR1	0	R1217T
2839.365	1.618	2846189	WORD	n/a	wordpools/wordpool_EN.txt	SWORD	2	23	[0, 0, 0]	n/a	FR1	0	R1217T
2840.983	0.967	2847807	WORD_OFF	n/a	n/a	SWORD	2	23	[0, 0, 0]	n/a	FR1	0	R1217T
2841.95	1.616	2848774	WORD	n/a	wordpools/wordpool_EN.txt	SAIL	3	23	[0, 0, 0]	n/a	FR1	0	R1217T
2843.566	0.967	2850390	WORD_OFF	n/a	n/a	SAIL	3	23	[0, 0, 0]	n/a	FR1	0	R1217T
2844.533	1.618	2851356	WORD	n/a	wordpools/wordpool_EN.txt	STEAM	4	23	[0, 0, 0]	n/a	FR1	0	R1217T
2846.151	0.783	2852974	WORD_OFF	n/a	n/a	STEAM	4	23	[0, 0, 0]	n/a	FR1	0	R1217T
2846.934	1.616	2853757	WORD	n/a	wordpools/wordpool_EN.txt	TRAIN	5	23	[0, 0, 0]	n/a	FR1	0	R1217T
2848.55	0.884	2855373	WORD_OFF	n/a	n/a	TRAIN	5	23	[0, 0, 0]	n/a	FR1	0	R1217T
2849.434	1.618	2856257	WORD	n/a	wordpools/wordpool_EN.txt	SHIELD	6	23	[0, 0, 0]	n/a	FR1	0	R1217T
2851.052	1.0	2857875	WORD_OFF	n/a	n/a	SHIELD	6	23	[0, 0, 0]	n/a	FR1	0	R1217T
2852.052	1.616	2858875	WORD	n/a	wordpools/wordpool_EN.txt	FORT	7	23	[0, 0, 0]	n/a	FR1	0	R1217T
2853.668	0.8	2860491	WORD_OFF	n/a	n/a	FORT	7	23	[0, 0, 0]	n/a	FR1	0	R1217T
2854.468	1.601	2861291	WORD	n/a	wordpools/wordpool_EN.txt	STAR	8	23	[0, 0, 0]	n/a	FR1	0	R1217T
2856.069	0.9	2862892	WORD_OFF	n/a	n/a	STAR	8	23	[0, 0, 0]	n/a	FR1	0	R1217T
2856.969	1.616	2863792	WORD	n/a	wordpools/wordpool_EN.txt	SHIP	9	23	[0, 0, 0]	n/a	FR1	0	R1217T
2858.585	0.834	2865408	WORD_OFF	n/a	n/a	SHIP	9	23	[0, 0, 0]	n/a	FR1	0	R1217T
2859.419	1.618	2866242	WORD	n/a	wordpools/wordpool_EN.txt	FOG	10	23	[0, 0, 0]	n/a	FR1	0	R1217T
2861.037	0.983	2867859	WORD_OFF	n/a	n/a	FOG	10	23	[0, 0, 0]	n/a	FR1	0	R1217T
2862.02	1.616	2868842	WORD	n/a	wordpools/wordpool_EN.txt	SMOKE	11	23	[0, 0, 0]	n/a	FR1	0	R1217T
2863.636	0.784	2870458	WORD_OFF	n/a	n/a	SMOKE	11	23	[0, 0, 0]	n/a	FR1	0	R1217T
2864.42	1.618	2871242	WORD	n/a	wordpools/wordpool_EN.txt	CHIEF	12	23	[0, 0, 0]	n/a	FR1	0	R1217T
2866.038	0.0	2872860	WORD_OFF	n/a	n/a	CHIEF	12	23	[0, 0, 0]	n/a	FR1	0	R1217T
2866.038	0.001	2872860	DISTRACT_START	n/a	n/a	n/a	-999	23	[0, 0, 0]	n/a	FR1	0	R1217T
2866.039	0.015	2872861	START	n/a	n/a	n/a	-999	23	[-999, -999, -999]	n/a	FR1	0	R1217T
2866.054	4.151	2872876	PROB	4.151	n/a	n/a	-999	23	[8, 5, 3]	14	FR1	0	R1217T
2870.205	3.45	2877027	PROB	3.45	n/a	n/a	-999	23	[3, 2, 4]	9	FR1	0	R1217T
2873.655	4.001	2880477	PROB	4.001	n/a	n/a	-999	23	[6, 2, 4]	12	FR1	0	R1217T
2877.656	3.285	2884477	PROB	3.285	n/a	n/a	-999	23	[6, 6, 6]	18	FR1	0	R1217T
2880.941	3.582	2887762	PROB	3.582	n/a	n/a	-999	23	[1, 4, 7]	12	FR1	0	R1217T
2884.523	3.443	2891344	PROB	3.443	n/a	n/a	-999	23	[1, 2, 7]	10	FR1	0	R1217T
2887.966	0.009	2894787	STOP	n/a	n/a	n/a	-999	23	[-999, -999, -999]	n/a	FR1	0	R1217T
2887.975	0.699	2894796	DISTRACT_END	n/a	n/a	n/a	-999	23	[0, 0, 0]	n/a	FR1	0	R1217T
2888.674	0.519	2895495	RETRIEVAL_ORIENT	n/a	n/a	n/a	-999	23	[0, 0, 0]	n/a	FR1	0	R1217T
2889.193	1.7	2896014	REC_START	n/a	n/a	n/a	-999	23	[0, 0, 0]	n/a	FR1	0	R1217T
2890.893	1.453	2897714	REC_WORD	1.453	n/a	SWORD	2	23	[0, 0, 0]	n/a	FR1	0	R1217T
2892.346	1.008	2899167	REC_WORD	1.008	n/a	SMOKE	11	23	[0, 0, 0]	n/a	FR1	0	R1217T
2893.354	1.31	2900175	REC_WORD	1.31	n/a	STEAM	4	23	[0, 0, 0]	n/a	FR1	0	R1217T
2894.664	1.255	2901484	REC_WORD	1.255	n/a	SHIP	9	23	[0, 0, 0]	n/a	FR1	0	R1217T
2895.919	2.701	2902739	REC_WORD	2.701	n/a	SAIL	3	23	[0, 0, 0]	n/a	FR1	0	R1217T
2898.62	5.257	2905440	REC_WORD	5.257	n/a	CHIEF	12	23	[0, 0, 0]	n/a	FR1	0	R1217T
2903.877	15.327	2910697	REC_WORD	15.327	n/a	STONE	-999	23	[0, 0, 0]	n/a	FR1	0	R1217T
2919.204	5.845	2926023	REC_END	n/a	n/a	n/a	-999	23	[0, 0, 0]	n/a	FR1	0	R1217T
2925.049	0.5	2931868	TRIAL	n/a	n/a	n/a	-999	24	[0, 0, 0]	n/a	FR1	0	R1217T
2925.549	10.428	2932368	COUNTDOWN_START	n/a	n/a	n/a	-999	24	[0, 0, 0]	n/a	FR1	0	R1217T
2935.977	0.007	2942795	COUNTDOWN_END	n/a	n/a	n/a	-999	24	[0, 0, 0]	n/a	FR1	0	R1217T
2935.984	1.616	2942802	ORIENT	n/a	n/a	n/a	-999	24	[0, 0, 0]	n/a	FR1	0	R1217T
2937.6	1.8	2944418	ORIENT_OFF	n/a	n/a	n/a	-999	24	[0, 0, 0]	n/a	FR1	0	R1217T
2939.4	1.618	2946218	WORD	n/a	wordpools/wordpool_EN.txt	SEAT	1	24	[0, 0, 0]	n/a	FR1	0	R1217T
2941.018	0.917	2947836	WORD_OFF	n/a	n/a	SEAT	1	24	[0, 0, 0]	n/a	FR1	0	R1217T
2941.935	1.616	2948753	WORD	n/a	wordpools/wordpool_EN.txt	DRESS	2	24	[0, 0, 0]	n/a	FR1	0	R1217T
2943.551	0.933	2950369	WORD_OFF	n/a	n/a	DRESS	2	24	[0, 0, 0]	n/a	FR1	0	R1217T
2944.484	1.618	2951301	WORD	n/a	wordpools/wordpool_EN.txt	PARK	3	24	[0, 0, 0]	n/a	FR1	0	R1217T
2946.102	0.967	2952919	WORD_OFF	n/a	n/a	PARK	3	24	[0, 0, 0]	n/a	FR1	0	R1217T
2947.069	1.616	2953886	WORD	n/a	wordpools/wordpool_EN.txt	MULE	4	24	[0, 0, 0]	n/a	FR1	0	R1217T
2948.685	0.85	2955502	WORD_OFF	n/a	n/a	MULE	4	24	[0, 0, 0]	n/a	FR1	0	R1217T
2949.535	1.602	2956352	WORD	n/a	wordpools/wordpool_EN.txt	ROOM	5	24	[0, 0, 0]	n/a	FR1	0	R1217T
2951.137	0.916	2957954	WORD_OFF	n/a	n/a	ROOM	5	24	[0, 0, 0]	n/a	FR1	0	R1217T
2952.053	1.616	2958870	WORD	n/a	wordpools/wordpool_EN.txt	JEEP	6	24	[0, 0, 0]	n/a	FR1	0	R1217T
2953.669	0.901	2960486	WORD_OFF	n/a	n/a	JEEP	6	24	[0, 0, 0]	n/a	FR1	0	R1217T
2954.57	1.618	2961387	WORD	n/a	wordpools/wordpool_EN.txt	SHIRT	7	24	[0, 0, 0]	n/a	FR1	0	R1217T
2956.188	0.899	2963005	WORD_OFF	n/a	n/a	SHIRT	7	24	[0, 0, 0]	n/a	FR1	0	R1217T
2957.087	1.617	2963904	WORD	n/a	wordpools/wordpool_EN.txt	TRUCK	8	24	[0, 0, 0]	n/a	FR1	0	R1217T
2958.704	0.883	2965521	WORD_OFF	n/a	n/a	TRUCK	8	24	[0, 0, 0]	n/a	FR1	0	R1217T
2959.587	1.601	2966404	WORD	n/a	wordpools/wordpool_EN.txt	SMILE	9	24	[0, 0, 0]	n/a	FR1	0	R1217T
2961.188	0.784	2968004	WORD_OFF	n/a	n/a	SMILE	9	24	[0, 0, 0]	n/a	FR1	0	R1217T
2961.972	1.616	2968788	WORD	n/a	wordpools/wordpool_EN.txt	LAWN	10	24	[0, 0, 0]	n/a	FR1	0	R1217T
2963.588	0.9	2970404	WORD_OFF	n/a	n/a	LAWN	10	24	[0, 0, 0]	n/a	FR1	0	R1217T
2964.488	1.618	2971304	WORD	n/a	wordpools/wordpool_EN.txt	HOUSE	11	24	[0, 0, 0]	n/a	FR1	0	R1217T
2966.106	0.817	2972922	WORD_OFF	n/a	n/a	HOUSE	11	24	[0, 0, 0]	n/a	FR1	0	R1217T
2966.923	1.616	2973739	WORD	n/a	wordpools/wordpool_EN.txt	OAR	12	24	[0, 0, 0]	n/a	FR1	0	R1217T
2968.539	0.0	2975355	WORD_OFF	n/a	n/a	OAR	12	24	[0, 0, 0]	n/a	FR1	0	R1217T
2968.539	0.0	2975355	DISTRACT_START	n/a	n/a	n/a	-999	24	[0, 0, 0]	n/a	FR1	0	R1217T
2968.539	0.016	2975355	START	n/a	n/a	n/a	-999	24	[-999, -999, -999]	n/a	FR1	0	R1217T
2968.555	9.936	2975371	PROB	9.936	n/a	n/a	-999	24	[7, 8, 6]	21	FR1	0	R1217T
2978.491	3.784	2985306	PROB	3.784	n/a	n/a	-999	24	[8, 5, 4]	17	FR1	0	R1217T
2982.275	2.951	2989090	PROB	2.951	n/a	n/a	-999	24	[4, 5, 1]	10	FR1	0	R1217T
2985.226	7.028	2992041	PROB	7.028	n/a	n/a	-999	24	[4, 4, 7]	15	FR1	0	R1217T
2992.254	0.006	2999069	STOP	n/a	n/a	n/a	-999	24	[-999, -999, -999]	n/a	FR1	0	R1217T
2992.26	0.618	2999075	DISTRACT_END	n/a	n/a	n/a	-999	24	[0, 0, 0]	n/a	FR1	0	R1217T
2992.878	0.517	2999693	RETRIEVAL_ORIENT	n/a	n/a	n/a	-999	24	[0, 0, 0]	n/a	FR1	0	R1217T
2993.395	2.387	3000210	REC_START	n/a	n/a	n/a	-999	24	[0, 0, 0]	n/a	FR1	0	R1217T
2995.782	0.769	3002596	REC_WORD	0.769	n/a	DESK	-999	24	[0, 0, 0]	n/a	FR1	0	R1217T
2996.551	5.377	3003365	REC_WORD	5.377	n/a	BROOM	-999	24	[0, 0, 0]	n/a	FR1	0	R1217T
3001.928	7.693	3008742	REC_WORD	7.693	n/a	SNAIL	-999	24	[0, 0, 0]	n/a	FR1	0	R1217T
3009.621	13.782	3016435	REC_WORD	13.782	n/a	FLOOR	-999	24	[0, 0, 0]	n/a	FR1	0	R1217T
3023.403	5.363	3030216	REC_END	n/a	n/a	n/a	-999	24	[0, 0, 0]	n/a	FR1	0	R1217T
3028.766	0.5	3035578	TRIAL	n/a	n/a	n/a	-999	25	[0, 0, 0]	n/a	FR1	0	R1217T
3029.266	10.428	3036078	COUNTDOWN_START	n/a	n/a	n/a	-999	25	[0, 0, 0]	n/a	FR1	0	R1217T
3039.694	0.008	3046506	COUNTDOWN_END	n/a	n/a	n/a	-999	25	[0, 0, 0]	n/a	FR1	0	R1217T
3039.702	1.616	3046514	ORIENT	n/a	n/a	n/a	-999	25	[0, 0, 0]	n/a	FR1	0	R1217T
3041.318	2.034	3048130	ORIENT_OFF	n/a	n/a	n/a	-999	25	[0, 0, 0]	n/a	FR1	0	R1217T
3043.352	1.601	3050164	WORD	n/a	wordpools/wordpool_EN.txt	CROWN	1	25	[0, 0, 0]	n/a	FR1	0	R1217T
3044.953	0.951	3051764	WORD_OFF	n/a	n/a	CROWN	1	25	[0, 0, 0]	n/a	FR1	0	R1217T
3045.904	1.616	3052715	WORD	n/a	wordpools/wordpool_EN.txt	LOCK	2	25	[0, 0, 0]	n/a	FR1	0	R1217T
3047.52	0.9	3054331	WORD_OFF	n/a	n/a	LOCK	2	25	[0, 0, 0]	n/a	FR1	0	R1217T
3048.42	1.618	3055231	WORD	n/a	wordpools/wordpool_EN.txt	LAKE	3	25	[0, 0, 0]	n/a	FR1	0	R1217T
3050.038	0.867	3056849	WORD_OFF	n/a	n/a	LAKE	3	25	[0, 0, 0]	n/a	FR1	0	R1217T
3050.905	1.616	3057716	WORD	n/a	wordpools/wordpool_EN.txt	MAZE	4	25	[0, 0, 0]	n/a	FR1	0	R1217T
3052.521	0.983	3059332	WORD_OFF	n/a	n/a	MAZE	4	25	[0, 0, 0]	n/a	FR1	0	R1217T
3053.504	1.618	3060315	WORD	n/a	wordpools/wordpool_EN.txt	ICE	5	25	[0, 0, 0]	n/a	FR1	0	R1217T
3055.122	0.8	3061933	WORD_OFF	n/a	n/a	ICE	5	25	[0, 0, 0]	n/a	FR1	0	R1217T
3055.922	1.616	3062733	WORD	n/a	wordpools/wordpool_EN.txt	BLUSH	6	25	[0, 0, 0]	n/a	FR1	0	R1217T
3057.538	0.984	3064349	WORD_OFF	n/a	n/a	BLUSH	6	25	[0, 0, 0]	n/a	FR1	0	R1217T
3058.522	1.601	3065333	WORD	n/a	wordpools/wordpool_EN.txt	BRICK	7	25	[0, 0, 0]	n/a	FR1	0	R1217T
3060.123	1.0	3066934	WORD_OFF	n/a	n/a	BRICK	7	25	[0, 0, 0]	n/a	FR1	0	R1217T
3061.123	1.616	3067934	WORD	n/a	wordpools/wordpool_EN.txt	BANK	8	25	[0, 0, 0]	n/a	FR1	0	R1217T
3062.739	0.784	3069549	WORD_OFF	n/a	n/a	BANK	8	25	[0, 0, 0]	n/a	FR1	0	R1217T
3063.523	1.618	3070333	WORD	n/a	wordpools/wordpool_EN.txt	BRIDGE	9	25	[0, 0, 0]	n/a	FR1	0	R1217T
3065.141	0.8	3071951	WORD_OFF	n/a	n/a	BRIDGE	9	25	[0, 0, 0]	n/a	FR1	0	R1217T
3065.941	1.616	3072751	WORD	n/a	wordpools/wordpool_EN.txt	JAIL	10	25	[0, 0, 0]	n/a	FR1	0	R1217T
3067.557	0.867	3074367	WORD_OFF	n/a	n/a	JAIL	10	25	[0, 0, 0]	n/a	FR1	0	R1217T
3068.424	1.618	3075234	WORD	n/a	wordpools/wordpool_EN.txt	POLE	11	25	[0, 0, 0]	n/a	FR1	0	R1217T
3070.042	1.0	3076852	WORD_OFF	n/a	n/a	POLE	11	25	[0, 0, 0]	n/a	FR1	0	R1217T
3071.042	1.616	3077852	WORD	n/a	wordpools/wordpool_EN.txt	HILL	12	25	[0, 0, 0]	n/a	FR1	0	R1217T
3072.658	0.0	3079468	WORD_OFF	n/a	n/a	HILL	12	25	[0, 0, 0]	n/a	FR1	0	R1217T
3072.658	0.001	3079468	DISTRACT_START	n/a	n/a	n/a	-999	25	[0, 0, 0]	n/a	FR1	0	R1217T
3072.659	0.015	3079469	START	n/a	n/a	n/a	-999	25	[-999, -999, -999]	n/a	FR1	0	R1217T
3072.674	3.651	3079484	PROB	3.651	n/a	n/a	-999	25	[1, 8, 3]	12	FR1	0	R1217T
3076.325	3.719	3083135	PROB	3.719	n/a	n/a	-999	25	[2, 6, 6]	14	FR1	0	R1217T
3080.044	3.516	3086853	PROB	3.516	n/a	n/a	-999	25	[5, 5, 6]	16	FR1	0	R1217T
3083.56	3.568	3090369	PROB	3.568	n/a	n/a	-999	25	[9, 8, 3]	20	FR1	0	R1217T
3087.128	3.867	3093937	PROB	3.867	n/a	n/a	-999	25	[5, 7, 8]	20	FR1	0	R1217T
3090.995	2.545	3097804	PROB	2.545	n/a	n/a	-999	25	[2, 2, 9]	13	FR1	0	R1217T
3093.54	0.022	3100349	STOP	n/a	n/a	n/a	-999	25	[-999, -999, -999]	n/a	FR1	0	R1217T
3093.562	0.684	3100371	DISTRACT_END	n/a	n/a	n/a	-999	25	[0, 0, 0]	n/a	FR1	0	R1217T
3094.246	0.0	3101055	RETRIEVAL_ORIENT	n/a	n/a	n/a	-999	25	[0, 0, 0]	n/a	FR1	0	R1217T
