onset	duration	sample	trial_type	response_time	stim_file	item_name	serialpos	list	test	answer	experiment	session	subject
0.0	215.825	-1	INSTRUCT_START	n/a	n/a	n/a	-999	-999	[0, 0, 0]	n/a	FR1	0	R1346T
215.825	275.467	-1	INSTRUCT_END	n/a	n/a	n/a	-999	-999	[0, 0, 0]	n/a	FR1	0	R1346T
491.292	38.989	721	INSTRUCT_START	n/a	n/a	n/a	-999	-999	[0, 0, 0]	n/a	FR1	0	R1346T
530.281	2.485	39708	INSTRUCT_END	n/a	n/a	n/a	-999	-999	[0, 0, 0]	n/a	FR1	0	R1346T
532.766	19.649	42193	MIC TEST_START	n/a	n/a	n/a	-999	-999	[0, 0, 0]	n/a	FR1	0	R1346T
552.415	0.01	61841	MIC TEST_END	n/a	n/a	n/a	-999	-999	[0, 0, 0]	n/a	FR1	0	R1346T
552.425	0.0	61851	TRIAL	n/a	n/a	n/a	-999	-1	[0, 0, 0]	n/a	FR1	0	R1346T
552.425	0.0	61851	WAITING_START	n/a	n/a	n/a	-999	-1	[0, 0, 0]	n/a	FR1	0	R1346T
552.425	12.896	61851	TRIAL_START	n/a	n/a	n/a	-999	-1	[0, 0, 0]	n/a	FR1	0	R1346T
565.321	0.001	74747	WAITING_END	n/a	n/a	n/a	-999	-1	[0, 0, 0]	n/a	FR1	0	R1346T
565.322	10.43	74748	COUNTDOWN_START	n/a	n/a	n/a	-999	-1	[0, 0, 0]	n/a	FR1	0	R1346T
575.752	0.0	85177	COUNTDOWN_END	n/a	n/a	n/a	-999	-1	[0, 0, 0]	n/a	FR1	0	R1346T
575.752	1.122	85177	ORIENT_START	n/a	n/a	n/a	-999	-1	[0, 0, 0]	n/a	FR1	0	R1346T
576.874	0.0	86299	ORIENT_END	n/a	n/a	n/a	-999	-1	[0, 0, 0]	n/a	FR1	0	R1346T
576.874	1.149	86299	ENCODING_START	n/a	n/a	n/a	-999	-1	[0, 0, 0]	n/a	FR1	0	R1346T
578.023	1.635	87448	WORD	n/a	n/a	BEAM	1	-1	[0, 0, 0]	n/a	FR1	0	R1346T
579.658	0.866	89083	WORD_OFF	n/a	n/a	BEAM	1	-1	[0, 0, 0]	n/a	FR1	0	R1346T
580.524	1.634	89949	WORD	n/a	n/a	IMAGE	2	-1	[0, 0, 0]	n/a	FR1	0	R1346T
582.158	0.81	91583	WORD_OFF	n/a	n/a	IMAGE	2	-1	[0, 0, 0]	n/a	FR1	0	R1346T
582.968	1.624	92393	WORD	n/a	n/a	TONGUE	3	-1	[0, 0, 0]	n/a	FR1	0	R1346T
584.592	0.753	94017	WORD_OFF	n/a	n/a	TONGUE	3	-1	[0, 0, 0]	n/a	FR1	0	R1346T
585.345	1.631	94770	WORD	n/a	n/a	RING	4	-1	[0, 0, 0]	n/a	FR1	0	R1346T
586.976	1.029	96401	WORD_OFF	n/a	n/a	RING	4	-1	[0, 0, 0]	n/a	FR1	0	R1346T
588.005	1.621	97430	WORD	n/a	n/a	WATCH	5	-1	[0, 0, 0]	n/a	FR1	0	R1346T
589.626	0.954	99051	WORD_OFF	n/a	n/a	WATCH	5	-1	[0, 0, 0]	n/a	FR1	0	R1346T
590.58	1.63	100005	WORD	n/a	n/a	WAGON	6	-1	[0, 0, 0]	n/a	FR1	0	R1346T
592.21	1.039	101635	WORD_OFF	n/a	n/a	WAGON	6	-1	[0, 0, 0]	n/a	FR1	0	R1346T
593.249	1.628	102673	WORD	n/a	n/a	COTTON	7	-1	[0, 0, 0]	n/a	FR1	0	R1346T
594.877	1.076	104301	WORD_OFF	n/a	n/a	COTTON	7	-1	[0, 0, 0]	n/a	FR1	0	R1346T
595.953	1.624	105377	WORD	n/a	n/a	RHINO	8	-1	[0, 0, 0]	n/a	FR1	0	R1346T
597.577	0.96	107001	WORD_OFF	n/a	n/a	RHINO	8	-1	[0, 0, 0]	n/a	FR1	0	R1346T
598.537	1.624	107961	WORD	n/a	n/a	CAMEL	9	-1	[0, 0, 0]	n/a	FR1	0	R1346T
600.161	0.772	109585	WORD_OFF	n/a	n/a	CAMEL	9	-1	[0, 0, 0]	n/a	FR1	0	R1346T
600.933	1.629	110357	WORD	n/a	n/a	CHEST	10	-1	[0, 0, 0]	n/a	FR1	0	R1346T
602.562	1.074	111986	WORD_OFF	n/a	n/a	CHEST	10	-1	[0, 0, 0]	n/a	FR1	0	R1346T
603.636	1.626	113060	WORD	n/a	n/a	FLOOD	11	-1	[0, 0, 0]	n/a	FR1	0	R1346T
605.262	0.952	114686	WORD_OFF	n/a	n/a	FLOOD	11	-1	[0, 0, 0]	n/a	FR1	0	R1346T
606.214	1.632	115638	WORD	n/a	n/a	BABY	12	-1	[0, 0, 0]	n/a	FR1	0	R1346T
607.846	0.0	117270	WORD_OFF	n/a	n/a	BABY	12	-1	[0, 0, 0]	n/a	FR1	0	R1346T
607.846	0.001	117270	ENCODING_END	n/a	n/a	n/a	-999	-1	[0, 0, 0]	n/a	FR1	0	R1346T
607.847	0.0	117271	DISTRACT_START	n/a	n/a	n/a	-999	-1	[0, 0, 0]	n/a	FR1	0	R1346T
607.847	0.016	117271	START	n/a	n/a	n/a	-999	-1	[-999, -999, -999]	n/a	FR1	0	R1346T
607.863	19.27	117287	PROB	19.27	n/a	n/a	-999	-1	[2, 1, 4]	7	FR1	0	R1346T
627.133	5.285	136556	PROB	5.285	n/a	n/a	-999	-1	[7, 4, 6]	16	FR1	0	R1346T
632.418	0.016	141841	STOP	n/a	n/a	n/a	-999	-1	[-999, -999, -999]	n/a	FR1	0	R1346T
632.434	0.512	141857	DISTRACT_END	n/a	n/a	n/a	-999	-1	[0, 0, 0]	n/a	FR1	0	R1346T
632.946	1.538	142369	RETRIEVAL_ORIENT_START	n/a	n/a	n/a	-999	-1	[0, 0, 0]	n/a	FR1	0	R1346T
634.484	0.0	143907	RETRIEVAL_ORIENT_END	n/a	n/a	n/a	-999	-1	[0, 0, 0]	n/a	FR1	0	R1346T
634.484	30.013	143907	REC_START	n/a	n/a	n/a	-999	-1	[0, 0, 0]	n/a	FR1	0	R1346T
664.497	0.0	173918	PRACTICE_POST_INSTRUCT_START	n/a	n/a	n/a	-999	-1	[0, 0, 0]	n/a	FR1	0	R1346T
664.497	56.22	173918	REC_END	n/a	n/a	n/a	-999	-1	[0, 0, 0]	n/a	FR1	0	R1346T
720.717	0.001	230136	PRACTICE_POST_INSTRUCT_END	n/a	n/a	n/a	-999	-1	[0, 0, 0]	n/a	FR1	0	R1346T
720.718	0.017	230137	TRIAL_END	n/a	n/a	n/a	-999	-1	[0, 0, 0]	n/a	FR1	0	R1346T
720.735	0.0	230154	TRIAL_START	n/a	n/a	n/a	-999	1	[0, 0, 0]	n/a	FR1	0	R1346T
720.735	0.001	230154	TRIAL	n/a	n/a	n/a	-999	1	[0, 0, 0]	n/a	FR1	0	R1346T
720.736	17.417	230155	WAITING_START	n/a	n/a	n/a	-999	1	[0, 0, 0]	n/a	FR1	0	R1346T
738.153	0.001	247571	WAITING_END	n/a	n/a	n/a	-999	1	[0, 0, 0]	n/a	FR1	0	R1346T
738.154	10.43	247572	COUNTDOWN_START	n/a	n/a	n/a	-999	1	[0, 0, 0]	n/a	FR1	0	R1346T
748.584	0.0	258001	ORIENT_START	n/a	n/a	n/a	-999	1	[0, 0, 0]	n/a	FR1	0	R1346T
748.584	1.221	258001	COUNTDOWN_END	n/a	n/a	n/a	-999	1	[0, 0, 0]	n/a	FR1	0	R1346T
749.805	0.0	259222	ORIENT_END	n/a	n/a	n/a	-999	1	[0, 0, 0]	n/a	FR1	0	R1346T
749.805	0.917	259222	ENCODING_START	n/a	n/a	n/a	-999	1	[0, 0, 0]	n/a	FR1	0	R1346T
750.722	1.634	260139	WORD	n/a	wordpools/wordpool_EN.txt	FUR	1	1	[0, 0, 0]	n/a	FR1	0	R1346T
752.356	0.896	261773	WORD_OFF	n/a	n/a	FUR	1	1	[0, 0, 0]	n/a	FR1	0	R1346T
753.252	1.637	262669	WORD	n/a	wordpools/wordpool_EN.txt	CHAIR	2	1	[0, 0, 0]	n/a	FR1	0	R1346T
754.889	1.013	264306	WORD_OFF	n/a	n/a	CHAIR	2	1	[0, 0, 0]	n/a	FR1	0	R1346T
755.902	1.638	265319	WORD	n/a	wordpools/wordpool_EN.txt	WHALE	3	1	[0, 0, 0]	n/a	FR1	0	R1346T
757.54	0.816	266957	WORD_OFF	n/a	n/a	WHALE	3	1	[0, 0, 0]	n/a	FR1	0	R1346T
758.356	1.634	267773	WORD	n/a	wordpools/wordpool_EN.txt	STEAM	4	1	[0, 0, 0]	n/a	FR1	0	R1346T
759.99	0.923	269407	WORD_OFF	n/a	n/a	STEAM	4	1	[0, 0, 0]	n/a	FR1	0	R1346T
760.913	1.628	270330	WORD	n/a	wordpools/wordpool_EN.txt	DOOR	5	1	[0, 0, 0]	n/a	FR1	0	R1346T
762.541	0.867	271958	WORD_OFF	n/a	n/a	DOOR	5	1	[0, 0, 0]	n/a	FR1	0	R1346T
763.408	1.633	272825	WORD	n/a	wordpools/wordpool_EN.txt	FOAM	6	1	[0, 0, 0]	n/a	FR1	0	R1346T
765.041	0.828	274457	WORD_OFF	n/a	n/a	FOAM	6	1	[0, 0, 0]	n/a	FR1	0	R1346T
765.869	1.623	275285	WORD	n/a	wordpools/wordpool_EN.txt	HOLE	7	1	[0, 0, 0]	n/a	FR1	0	R1346T
767.492	1.089	276908	WORD_OFF	n/a	n/a	HOLE	7	1	[0, 0, 0]	n/a	FR1	0	R1346T
768.581	1.628	277997	WORD	n/a	wordpools/wordpool_EN.txt	JAIL	8	1	[0, 0, 0]	n/a	FR1	0	R1346T
770.209	1.105	279625	WORD_OFF	n/a	n/a	JAIL	8	1	[0, 0, 0]	n/a	FR1	0	R1346T
771.314	1.612	280730	WORD	n/a	wordpools/wordpool_EN.txt	HEART	9	1	[0, 0, 0]	n/a	FR1	0	R1346T
772.926	0.84	282342	WORD_OFF	n/a	n/a	HEART	9	1	[0, 0, 0]	n/a	FR1	0	R1346T
773.766	1.627	283182	WORD	n/a	wordpools/wordpool_EN.txt	BENCH	10	1	[0, 0, 0]	n/a	FR1	0	R1346T
775.393	1.047	284809	WORD_OFF	n/a	n/a	BENCH	10	1	[0, 0, 0]	n/a	FR1	0	R1346T
776.44	1.637	285856	WORD	n/a	wordpools/wordpool_EN.txt	BRUSH	11	1	[0, 0, 0]	n/a	FR1	0	R1346T
778.077	0.923	287493	WORD_OFF	n/a	n/a	BRUSH	11	1	[0, 0, 0]	n/a	FR1	0	R1346T
779.0	1.628	288416	WORD	n/a	wordpools/wordpool_EN.txt	TRASH	12	1	[0, 0, 0]	n/a	FR1	0	R1346T
780.628	0.0	290044	DISTRACT_START	n/a	n/a	n/a	-999	1	[0, 0, 0]	n/a	FR1	0	R1346T
780.628	0.0	290044	ENCODING_END	n/a	n/a	n/a	-999	1	[0, 0, 0]	n/a	FR1	0	R1346T
780.628	0.0	290044	WORD_OFF	n/a	n/a	TRASH	12	1	[0, 0, 0]	n/a	FR1	0	R1346T
780.628	0.016	290044	START	n/a	n/a	n/a	-999	1	[-999, -999, -999]	n/a	FR1	0	R1346T
780.644	16.853	290060	PROB	16.853	n/a	n/a	-999	1	[4, 8, 5]	17	FR1	0	R1346T
797.497	18.798	306912	PROB	18.798	n/a	n/a	-999	1	[8, 4, 1]	13	FR1	0	R1346T
816.295	0.021	325709	STOP	n/a	n/a	n/a	-999	1	[-999, -999, -999]	n/a	FR1	0	R1346T
816.316	0.539	325730	DISTRACT_END	n/a	n/a	n/a	-999	1	[0, 0, 0]	n/a	FR1	0	R1346T
816.855	1.563	326269	RETRIEVAL_ORIENT_START	n/a	n/a	n/a	-999	1	[0, 0, 0]	n/a	FR1	0	R1346T
818.418	0.0	327832	RETRIEVAL_ORIENT_END	n/a	n/a	n/a	-999	1	[0, 0, 0]	n/a	FR1	0	R1346T
818.418	19.023	327832	REC_START	n/a	n/a	n/a	-999	1	[0, 0, 0]	n/a	FR1	0	R1346T
837.441	1.774	346854	REC_WORD	1.774	n/a	PLUS	-999	1	[0, 0, 0]	n/a	FR1	0	R1346T
839.215	1.586	348628	REC_WORD	1.586	n/a	FUR	1	1	[0, 0, 0]	n/a	FR1	0	R1346T
840.801	4.925	350214	REC_WORD	4.925	n/a	BENCH	10	1	[0, 0, 0]	n/a	FR1	0	R1346T
845.726	2.703	355139	REC_WORD	2.703	n/a	WHEAT	-999	1	[0, 0, 0]	n/a	FR1	0	R1346T
848.429	0.0	357842	REC_END	n/a	n/a	n/a	-999	1	[0, 0, 0]	n/a	FR1	0	R1346T
848.429	0.017	357842	TRIAL_END	n/a	n/a	n/a	-999	1	[0, 0, 0]	n/a	FR1	0	R1346T
848.446	0.0	357859	TRIAL_START	n/a	n/a	n/a	-999	2	[0, 0, 0]	n/a	FR1	0	R1346T
848.446	0.0	357859	TRIAL	n/a	n/a	n/a	-999	2	[0, 0, 0]	n/a	FR1	0	R1346T
848.446	10.629	357859	WAITING_START	n/a	n/a	n/a	-999	2	[0, 0, 0]	n/a	FR1	0	R1346T
859.075	0.0	368487	WAITING_END	n/a	n/a	n/a	-999	2	[0, 0, 0]	n/a	FR1	0	R1346T
859.075	10.429	368487	COUNTDOWN_START	n/a	n/a	n/a	-999	2	[0, 0, 0]	n/a	FR1	0	R1346T
869.504	0.001	378916	COUNTDOWN_END	n/a	n/a	n/a	-999	2	[0, 0, 0]	n/a	FR1	0	R1346T
869.505	1.222	378917	ORIENT_START	n/a	n/a	n/a	-999	2	[0, 0, 0]	n/a	FR1	0	R1346T
870.727	0.0	380139	ORIENT_END	n/a	n/a	n/a	-999	2	[0, 0, 0]	n/a	FR1	0	R1346T
870.727	0.787	380139	ENCODING_START	n/a	n/a	n/a	-999	2	[0, 0, 0]	n/a	FR1	0	R1346T
871.514	1.63	380926	WORD	n/a	wordpools/wordpool_EN.txt	SMOKE	1	2	[0, 0, 0]	n/a	FR1	0	R1346T
873.144	0.849	382555	WORD_OFF	n/a	n/a	SMOKE	1	2	[0, 0, 0]	n/a	FR1	0	R1346T
873.993	1.635	383404	WORD	n/a	wordpools/wordpool_EN.txt	VAN	2	2	[0, 0, 0]	n/a	FR1	0	R1346T
875.628	1.054	385039	WORD_OFF	n/a	n/a	VAN	2	2	[0, 0, 0]	n/a	FR1	0	R1346T
876.682	1.629	386093	WORD	n/a	wordpools/wordpool_EN.txt	SKUNK	3	2	[0, 0, 0]	n/a	FR1	0	R1346T
878.311	1.125	387722	WORD_OFF	n/a	n/a	SKUNK	3	2	[0, 0, 0]	n/a	FR1	0	R1346T
879.436	1.626	388847	WORD	n/a	wordpools/wordpool_EN.txt	GUARD	4	2	[0, 0, 0]	n/a	FR1	0	R1346T
881.062	1.051	390473	WORD_OFF	n/a	n/a	GUARD	4	2	[0, 0, 0]	n/a	FR1	0	R1346T
882.113	1.633	391524	WORD	n/a	wordpools/wordpool_EN.txt	STRAW	5	2	[0, 0, 0]	n/a	FR1	0	R1346T
883.746	0.762	393157	WORD_OFF	n/a	n/a	STRAW	5	2	[0, 0, 0]	n/a	FR1	0	R1346T
884.508	1.622	393919	WORD	n/a	wordpools/wordpool_EN.txt	SMILE	6	2	[0, 0, 0]	n/a	FR1	0	R1346T
886.13	0.87	395541	WORD_OFF	n/a	n/a	SMILE	6	2	[0, 0, 0]	n/a	FR1	0	R1346T
887.0	1.63	396411	WORD	n/a	wordpools/wordpool_EN.txt	TRUCK	7	2	[0, 0, 0]	n/a	FR1	0	R1346T
888.63	0.769	398041	WORD_OFF	n/a	n/a	TRUCK	7	2	[0, 0, 0]	n/a	FR1	0	R1346T
889.399	1.632	398810	WORD	n/a	wordpools/wordpool_EN.txt	TOE	8	2	[0, 0, 0]	n/a	FR1	0	R1346T
891.031	1.043	400442	WORD_OFF	n/a	n/a	TOE	8	2	[0, 0, 0]	n/a	FR1	0	R1346T
892.074	1.624	401485	WORD	n/a	wordpools/wordpool_EN.txt	FOX	9	2	[0, 0, 0]	n/a	FR1	0	R1346T
893.698	1.104	403108	WORD_OFF	n/a	n/a	FOX	9	2	[0, 0, 0]	n/a	FR1	0	R1346T
894.802	1.63	404212	WORD	n/a	wordpools/wordpool_EN.txt	WHEEL	10	2	[0, 0, 0]	n/a	FR1	0	R1346T
896.432	0.963	405842	WORD_OFF	n/a	n/a	WHEEL	10	2	[0, 0, 0]	n/a	FR1	0	R1346T
897.395	1.637	406805	WORD	n/a	wordpools/wordpool_EN.txt	FROG	11	2	[0, 0, 0]	n/a	FR1	0	R1346T
899.032	0.868	408442	WORD_OFF	n/a	n/a	FROG	11	2	[0, 0, 0]	n/a	FR1	0	R1346T
899.9	1.633	409310	WORD	n/a	wordpools/wordpool_EN.txt	BED	12	2	[0, 0, 0]	n/a	FR1	0	R1346T
901.533	0.0	410943	ENCODING_END	n/a	n/a	n/a	-999	2	[0, 0, 0]	n/a	FR1	0	R1346T
901.533	0.0	410943	DISTRACT_START	n/a	n/a	n/a	-999	2	[0, 0, 0]	n/a	FR1	0	R1346T
901.533	0.001	410943	WORD_OFF	n/a	n/a	BED	12	2	[0, 0, 0]	n/a	FR1	0	R1346T
901.534	0.015	410944	START	n/a	n/a	n/a	-999	2	[-999, -999, -999]	n/a	FR1	0	R1346T
901.549	9.569	410959	PROB	9.569	n/a	n/a	-999	2	[8, 8, 6]	17	FR1	0	R1346T
911.118	5.183	420528	PROB	5.183	n/a	n/a	-999	2	[5, 4, 9]	18	FR1	0	R1346T
916.301	15.195	425710	PROB	15.195	n/a	n/a	-999	2	[3, 8, 9]	20	FR1	0	R1346T
931.496	0.009	440905	STOP	n/a	n/a	n/a	-999	2	[-999, -999, -999]	n/a	FR1	0	R1346T
931.505	0.603	440914	DISTRACT_END	n/a	n/a	n/a	-999	2	[0, 0, 0]	n/a	FR1	0	R1346T
932.108	1.564	441517	RETRIEVAL_ORIENT_START	n/a	n/a	n/a	-999	2	[0, 0, 0]	n/a	FR1	0	R1346T
933.672	0.0	443081	RETRIEVAL_ORIENT_END	n/a	n/a	n/a	-999	2	[0, 0, 0]	n/a	FR1	0	R1346T
933.672	2.715	443081	REC_START	n/a	n/a	n/a	-999	2	[0, 0, 0]	n/a	FR1	0	R1346T
936.387	1.573	445796	REC_WORD	1.573	n/a	PLUS	-999	2	[0, 0, 0]	n/a	FR1	0	R1346T
937.96	1.574	447368	REC_WORD	1.574	n/a	SMOKE	1	2	[0, 0, 0]	n/a	FR1	0	R1346T
939.534	1.337	448942	REC_WORD	1.337	n/a	WHEEL	10	2	[0, 0, 0]	n/a	FR1	0	R1346T
940.871	1.575	450279	REC_WORD	1.575	n/a	SKUNK	3	2	[0, 0, 0]	n/a	FR1	0	R1346T
942.446	5.908	451854	REC_WORD	5.908	n/a	VAN	2	2	[0, 0, 0]	n/a	FR1	0	R1346T
948.354	3.783	457762	REC_WORD	3.783	n/a	FUR	-999	2	[0, 0, 0]	n/a	FR1	0	R1346T
952.137	11.548	461545	REC_WORD	11.548	n/a	SMILE	6	2	[0, 0, 0]	n/a	FR1	0	R1346T
963.685	0.0	473092	REC_END	n/a	n/a	n/a	-999	2	[0, 0, 0]	n/a	FR1	0	R1346T
963.685	0.014	473092	TRIAL_END	n/a	n/a	n/a	-999	2	[0, 0, 0]	n/a	FR1	0	R1346T
963.699	0.0	473106	TRIAL_START	n/a	n/a	n/a	-999	3	[0, 0, 0]	n/a	FR1	0	R1346T
963.699	0.0	473106	TRIAL	n/a	n/a	n/a	-999	3	[0, 0, 0]	n/a	FR1	0	R1346T
963.699	29.634	473106	WAITING_START	n/a	n/a	n/a	-999	3	[0, 0, 0]	n/a	FR1	0	R1346T
993.333	0.0	502739	WAITING_END	n/a	n/a	n/a	-999	3	[0, 0, 0]	n/a	FR1	0	R1346T
993.333	10.429	502739	COUNTDOWN_START	n/a	n/a	n/a	-999	3	[0, 0, 0]	n/a	FR1	0	R1346T
1003.762	0.001	513167	COUNTDOWN_END	n/a	n/a	n/a	-999	3	[0, 0, 0]	n/a	FR1	0	R1346T
1003.763	1.038	513168	ORIENT_START	n/a	n/a	n/a	-999	3	[0, 0, 0]	n/a	FR1	0	R1346T
1004.801	0.001	514206	ORIENT_END	n/a	n/a	n/a	-999	3	[0, 0, 0]	n/a	FR1	0	R1346T
1004.802	1.108	514207	ENCODING_START	n/a	n/a	n/a	-999	3	[0, 0, 0]	n/a	FR1	0	R1346T
1005.91	1.625	515315	WORD	n/a	wordpools/wordpool_EN.txt	MUD	1	3	[0, 0, 0]	n/a	FR1	0	R1346T
1007.535	1.126	516940	WORD_OFF	n/a	n/a	MUD	1	3	[0, 0, 0]	n/a	FR1	0	R1346T
1008.661	1.624	518066	WORD	n/a	wordpools/wordpool_EN.txt	MAIL	2	3	[0, 0, 0]	n/a	FR1	0	R1346T
1010.285	1.057	519690	WORD_OFF	n/a	n/a	MAIL	2	3	[0, 0, 0]	n/a	FR1	0	R1346T
1011.342	1.628	520747	WORD	n/a	wordpools/wordpool_EN.txt	CLOTH	3	3	[0, 0, 0]	n/a	FR1	0	R1346T
1012.97	1.08	522375	WORD_OFF	n/a	n/a	CLOTH	3	3	[0, 0, 0]	n/a	FR1	0	R1346T
1014.05	1.637	523455	WORD	n/a	wordpools/wordpool_EN.txt	PIPE	4	3	[0, 0, 0]	n/a	FR1	0	R1346T
1015.687	0.998	525092	WORD_OFF	n/a	n/a	PIPE	4	3	[0, 0, 0]	n/a	FR1	0	R1346T
1016.685	1.635	526090	WORD	n/a	wordpools/wordpool_EN.txt	SEED	5	3	[0, 0, 0]	n/a	FR1	0	R1346T
1018.32	1.017	527725	WORD_OFF	n/a	n/a	SEED	5	3	[0, 0, 0]	n/a	FR1	0	R1346T
1019.337	1.634	528742	WORD	n/a	wordpools/wordpool_EN.txt	LAND	6	3	[0, 0, 0]	n/a	FR1	0	R1346T
1020.971	0.762	530376	WORD_OFF	n/a	n/a	LAND	6	3	[0, 0, 0]	n/a	FR1	0	R1346T
1021.733	1.622	531138	WORD	n/a	wordpools/wordpool_EN.txt	HOOK	7	3	[0, 0, 0]	n/a	FR1	0	R1346T
1023.355	0.999	532759	WORD_OFF	n/a	n/a	HOOK	7	3	[0, 0, 0]	n/a	FR1	0	R1346T
1024.354	1.635	533758	WORD	n/a	wordpools/wordpool_EN.txt	FORT	8	3	[0, 0, 0]	n/a	FR1	0	R1346T
1025.989	1.078	535393	WORD_OFF	n/a	n/a	FORT	8	3	[0, 0, 0]	n/a	FR1	0	R1346T
1027.067	1.622	536471	WORD	n/a	wordpools/wordpool_EN.txt	EEL	9	3	[0, 0, 0]	n/a	FR1	0	R1346T
1028.689	1.097	538093	WORD_OFF	n/a	n/a	EEL	9	3	[0, 0, 0]	n/a	FR1	0	R1346T
1029.786	1.637	539190	WORD	n/a	wordpools/wordpool_EN.txt	TEA	10	3	[0, 0, 0]	n/a	FR1	0	R1346T
1031.423	0.826	540827	WORD_OFF	n/a	n/a	TEA	10	3	[0, 0, 0]	n/a	FR1	0	R1346T
1032.249	1.624	541653	WORD	n/a	wordpools/wordpool_EN.txt	FOG	11	3	[0, 0, 0]	n/a	FR1	0	R1346T
1033.873	0.983	543277	WORD_OFF	n/a	n/a	FOG	11	3	[0, 0, 0]	n/a	FR1	0	R1346T
1034.856	1.635	544260	WORD	n/a	wordpools/wordpool_EN.txt	CAVE	12	3	[0, 0, 0]	n/a	FR1	0	R1346T
1036.491	0.0	545895	DISTRACT_START	n/a	n/a	n/a	-999	3	[0, 0, 0]	n/a	FR1	0	R1346T
1036.491	0.0	545895	WORD_OFF	n/a	n/a	CAVE	12	3	[0, 0, 0]	n/a	FR1	0	R1346T
1036.491	0.001	545895	ENCODING_END	n/a	n/a	n/a	-999	3	[0, 0, 0]	n/a	FR1	0	R1346T
1036.492	0.015	545896	START	n/a	n/a	n/a	-999	3	[-999, -999, -999]	n/a	FR1	0	R1346T
1036.507	6.384	545911	PROB	6.384	n/a	n/a	-999	3	[7, 2, 4]	13	FR1	0	R1346T
1042.891	9.619	552295	PROB	9.619	n/a	n/a	-999	3	[6, 8, 3]	17	FR1	0	R1346T
1052.51	7.033	561913	PROB	7.033	n/a	n/a	-999	3	[6, 4, 3]	13	FR1	0	R1346T
1059.543	0.018	568946	STOP	n/a	n/a	n/a	-999	3	[-999, -999, -999]	n/a	FR1	0	R1346T
1059.561	0.686	568964	DISTRACT_END	n/a	n/a	n/a	-999	3	[0, 0, 0]	n/a	FR1	0	R1346T
1060.247	1.531	569650	RETRIEVAL_ORIENT_START	n/a	n/a	n/a	-999	3	[0, 0, 0]	n/a	FR1	0	R1346T
1061.778	0.001	571181	RETRIEVAL_ORIENT_END	n/a	n/a	n/a	-999	3	[0, 0, 0]	n/a	FR1	0	R1346T
1061.779	2.454	571182	REC_START	n/a	n/a	n/a	-999	3	[0, 0, 0]	n/a	FR1	0	R1346T
1064.233	1.21	573636	REC_WORD	1.21	n/a	MUD	1	3	[0, 0, 0]	n/a	FR1	0	R1346T
1065.443	1.493	574845	REC_WORD	1.493	n/a	CLOTH	3	3	[0, 0, 0]	n/a	FR1	0	R1346T
1066.936	11.665	576338	REC_WORD	11.665	n/a	MAIL	2	3	[0, 0, 0]	n/a	FR1	0	R1346T
1078.601	10.788	588003	REC_WORD	10.788	n/a	SEED	5	3	[0, 0, 0]	n/a	FR1	0	R1346T
1089.389	0.522	598790	REC_WORD	0.522	n/a	MUD	1	3	[0, 0, 0]	n/a	FR1	0	R1346T
1089.911	0.559	599312	REC_WORD	0.559	n/a	MAIL	2	3	[0, 0, 0]	n/a	FR1	0	R1346T
1090.47	0.505	599871	REC_WORD	0.505	n/a	CLOTH	3	3	[0, 0, 0]	n/a	FR1	0	R1346T
1090.975	0.813	600376	REC_WORD	0.813	n/a	SEED	5	3	[0, 0, 0]	n/a	FR1	0	R1346T
1091.788	0.0	601189	REC_END	n/a	n/a	n/a	-999	3	[0, 0, 0]	n/a	FR1	0	R1346T
1091.788	0.014	601189	TRIAL_END	n/a	n/a	n/a	-999	3	[0, 0, 0]	n/a	FR1	0	R1346T
1091.802	0.0	601203	TRIAL	n/a	n/a	n/a	-999	4	[0, 0, 0]	n/a	FR1	0	R1346T
1091.802	0.0	601203	WAITING_START	n/a	n/a	n/a	-999	4	[0, 0, 0]	n/a	FR1	0	R1346T
1091.802	5.266	601203	TRIAL_START	n/a	n/a	n/a	-999	4	[0, 0, 0]	n/a	FR1	0	R1346T
1097.068	0.001	606469	WAITING_END	n/a	n/a	n/a	-999	4	[0, 0, 0]	n/a	FR1	0	R1346T
1097.069	10.429	606470	COUNTDOWN_START	n/a	n/a	n/a	-999	4	[0, 0, 0]	n/a	FR1	0	R1346T
1107.498	0.001	616899	COUNTDOWN_END	n/a	n/a	n/a	-999	4	[0, 0, 0]	n/a	FR1	0	R1346T
1107.499	1.255	616900	ORIENT_START	n/a	n/a	n/a	-999	4	[0, 0, 0]	n/a	FR1	0	R1346T
1108.754	0.0	618154	ORIENT_END	n/a	n/a	n/a	-999	4	[0, 0, 0]	n/a	FR1	0	R1346T
1108.754	1.052	618154	ENCODING_START	n/a	n/a	n/a	-999	4	[0, 0, 0]	n/a	FR1	0	R1346T
1109.806	1.631	619206	WORD	n/a	wordpools/wordpool_EN.txt	CAGE	1	4	[0, 0, 0]	n/a	FR1	0	R1346T
1111.437	0.807	620837	WORD_OFF	n/a	n/a	CAGE	1	4	[0, 0, 0]	n/a	FR1	0	R1346T
1112.244	1.627	621644	WORD	n/a	wordpools/wordpool_EN.txt	JUICE	2	4	[0, 0, 0]	n/a	FR1	0	R1346T
1113.871	1.089	623271	WORD_OFF	n/a	n/a	JUICE	2	4	[0, 0, 0]	n/a	FR1	0	R1346T
1114.96	1.628	624360	WORD	n/a	wordpools/wordpool_EN.txt	SHEET	3	4	[0, 0, 0]	n/a	FR1	0	R1346T
1116.588	1.066	625988	WORD_OFF	n/a	n/a	SHEET	3	4	[0, 0, 0]	n/a	FR1	0	R1346T
1117.654	1.634	627054	WORD	n/a	wordpools/wordpool_EN.txt	SALT	4	4	[0, 0, 0]	n/a	FR1	0	R1346T
1119.288	1.094	628688	WORD_OFF	n/a	n/a	SALT	4	4	[0, 0, 0]	n/a	FR1	0	R1346T
1120.382	1.624	629782	WORD	n/a	wordpools/wordpool_EN.txt	CLOCK	5	4	[0, 0, 0]	n/a	FR1	0	R1346T
1122.006	0.966	631406	WORD_OFF	n/a	n/a	CLOCK	5	4	[0, 0, 0]	n/a	FR1	0	R1346T
1122.972	1.634	632372	WORD	n/a	wordpools/wordpool_EN.txt	BALL	6	4	[0, 0, 0]	n/a	FR1	0	R1346T
1124.606	1.089	634006	WORD_OFF	n/a	n/a	BALL	6	4	[0, 0, 0]	n/a	FR1	0	R1346T
1125.695	1.628	635095	WORD	n/a	wordpools/wordpool_EN.txt	STICK	7	4	[0, 0, 0]	n/a	FR1	0	R1346T
1127.323	1.111	636723	WORD_OFF	n/a	n/a	STICK	7	4	[0, 0, 0]	n/a	FR1	0	R1346T
1128.434	1.623	637834	WORD	n/a	wordpools/wordpool_EN.txt	PIT	8	4	[0, 0, 0]	n/a	FR1	0	R1346T
1130.057	1.074	639456	WORD_OFF	n/a	n/a	PIT	8	4	[0, 0, 0]	n/a	FR1	0	R1346T
1131.131	1.627	640530	WORD	n/a	wordpools/wordpool_EN.txt	DOCK	9	4	[0, 0, 0]	n/a	FR1	0	R1346T
1132.758	1.044	642157	WORD_OFF	n/a	n/a	DOCK	9	4	[0, 0, 0]	n/a	FR1	0	R1346T
1133.802	1.623	643201	WORD	n/a	wordpools/wordpool_EN.txt	EGG	10	4	[0, 0, 0]	n/a	FR1	0	R1346T
1135.425	1.039	644824	WORD_OFF	n/a	n/a	EGG	10	4	[0, 0, 0]	n/a	FR1	0	R1346T
1136.464	1.628	645863	WORD	n/a	wordpools/wordpool_EN.txt	LAWN	11	4	[0, 0, 0]	n/a	FR1	0	R1346T
1138.092	0.899	647491	WORD_OFF	n/a	n/a	LAWN	11	4	[0, 0, 0]	n/a	FR1	0	R1346T
1138.991	1.635	648390	WORD	n/a	wordpools/wordpool_EN.txt	HAT	12	4	[0, 0, 0]	n/a	FR1	0	R1346T
1140.626	0.0	650025	WORD_OFF	n/a	n/a	HAT	12	4	[0, 0, 0]	n/a	FR1	0	R1346T
1140.626	0.001	650025	ENCODING_END	n/a	n/a	n/a	-999	4	[0, 0, 0]	n/a	FR1	0	R1346T
1140.627	0.0	650026	DISTRACT_START	n/a	n/a	n/a	-999	4	[0, 0, 0]	n/a	FR1	0	R1346T
1140.627	0.015	650026	START	n/a	n/a	n/a	-999	4	[-999, -999, -999]	n/a	FR1	0	R1346T
1140.642	4.601	650041	PROB	4.601	n/a	n/a	-999	4	[2, 3, 6]	11	FR1	0	R1346T
1145.243	11.552	654642	PROB	11.552	n/a	n/a	-999	4	[9, 7, 8]	24	FR1	0	R1346T
1156.795	6.447	666193	PROB	6.447	n/a	n/a	-999	4	[1, 4, 2]	7	FR1	0	R1346T
1163.242	0.02	672640	STOP	n/a	n/a	n/a	-999	4	[-999, -999, -999]	n/a	FR1	0	R1346T
1163.262	0.553	672660	DISTRACT_END	n/a	n/a	n/a	-999	4	[0, 0, 0]	n/a	FR1	0	R1346T
1163.815	1.532	673213	RETRIEVAL_ORIENT_START	n/a	n/a	n/a	-999	4	[0, 0, 0]	n/a	FR1	0	R1346T
1165.347	0.0	674745	RETRIEVAL_ORIENT_END	n/a	n/a	n/a	-999	4	[0, 0, 0]	n/a	FR1	0	R1346T
1165.347	8.226	674745	REC_START	n/a	n/a	n/a	-999	4	[0, 0, 0]	n/a	FR1	0	R1346T
1173.573	1.517	682970	REC_WORD	1.517	n/a	HAT	12	4	[0, 0, 0]	n/a	FR1	0	R1346T
1175.09	2.041	684487	REC_WORD	2.041	n/a	MUD	-999	4	[0, 0, 0]	n/a	FR1	0	R1346T
1177.131	2.0	686528	REC_WORD	2.0	n/a	BATH	-999	4	[0, 0, 0]	n/a	FR1	0	R1346T
1179.131	0.553	688528	REC_WORD	0.553	n/a	HIT	-999	4	[0, 0, 0]	n/a	FR1	0	R1346T
1179.684	3.269	689081	REC_WORD	3.269	n/a	HAT	12	4	[0, 0, 0]	n/a	FR1	0	R1346T
1182.953	1.634	692350	REC_WORD	1.634	n/a	CAGE	1	4	[0, 0, 0]	n/a	FR1	0	R1346T
1184.587	10.77	693984	REC_WORD	10.77	n/a	CLOCK	5	4	[0, 0, 0]	n/a	FR1	0	R1346T
1195.357	0.0	704753	REC_END	n/a	n/a	n/a	-999	4	[0, 0, 0]	n/a	FR1	0	R1346T
1195.357	0.016	704753	TRIAL_END	n/a	n/a	n/a	-999	4	[0, 0, 0]	n/a	FR1	0	R1346T
1195.373	0.001	704769	TRIAL_START	n/a	n/a	n/a	-999	5	[0, 0, 0]	n/a	FR1	0	R1346T
1195.374	0.0	704770	TRIAL	n/a	n/a	n/a	-999	5	[0, 0, 0]	n/a	FR1	0	R1346T
1195.374	6.447	704770	WAITING_START	n/a	n/a	n/a	-999	5	[0, 0, 0]	n/a	FR1	0	R1346T
1201.821	0.0	711217	WAITING_END	n/a	n/a	n/a	-999	5	[0, 0, 0]	n/a	FR1	0	R1346T
1201.821	10.429	711217	COUNTDOWN_START	n/a	n/a	n/a	-999	5	[0, 0, 0]	n/a	FR1	0	R1346T
1212.25	0.0	721646	COUNTDOWN_END	n/a	n/a	n/a	-999	5	[0, 0, 0]	n/a	FR1	0	R1346T
1212.25	1.256	721646	ORIENT_START	n/a	n/a	n/a	-999	5	[0, 0, 0]	n/a	FR1	0	R1346T
1213.506	0.0	722902	ORIENT_END	n/a	n/a	n/a	-999	5	[0, 0, 0]	n/a	FR1	0	R1346T
1213.506	0.852	722902	ENCODING_START	n/a	n/a	n/a	-999	5	[0, 0, 0]	n/a	FR1	0	R1346T
1214.358	1.632	723754	WORD	n/a	wordpools/wordpool_EN.txt	CHEEK	1	5	[0, 0, 0]	n/a	FR1	0	R1346T
1215.99	0.869	725385	WORD_OFF	n/a	n/a	CHEEK	1	5	[0, 0, 0]	n/a	FR1	0	R1346T
1216.859	1.631	726254	WORD	n/a	wordpools/wordpool_EN.txt	BRIDGE	2	5	[0, 0, 0]	n/a	FR1	0	R1346T
1218.49	0.885	727885	WORD_OFF	n/a	n/a	BRIDGE	2	5	[0, 0, 0]	n/a	FR1	0	R1346T
1219.375	1.632	728770	WORD	n/a	wordpools/wordpool_EN.txt	TRAIN	3	5	[0, 0, 0]	n/a	FR1	0	R1346T
1221.007	0.777	730402	WORD_OFF	n/a	n/a	TRAIN	3	5	[0, 0, 0]	n/a	FR1	0	R1346T
1221.784	1.624	731179	WORD	n/a	wordpools/wordpool_EN.txt	LAMB	4	5	[0, 0, 0]	n/a	FR1	0	R1346T
1223.408	1.098	732803	WORD_OFF	n/a	n/a	LAMB	4	5	[0, 0, 0]	n/a	FR1	0	R1346T
1224.506	1.635	733901	WORD	n/a	wordpools/wordpool_EN.txt	DEER	5	5	[0, 0, 0]	n/a	FR1	0	R1346T
1226.141	0.771	735536	WORD_OFF	n/a	n/a	DEER	5	5	[0, 0, 0]	n/a	FR1	0	R1346T
1226.912	1.63	736307	WORD	n/a	wordpools/wordpool_EN.txt	GOAT	6	5	[0, 0, 0]	n/a	FR1	0	R1346T
1228.542	0.858	737937	WORD_OFF	n/a	n/a	GOAT	6	5	[0, 0, 0]	n/a	FR1	0	R1346T
1229.4	1.626	738795	WORD	n/a	wordpools/wordpool_EN.txt	TOOL	7	5	[0, 0, 0]	n/a	FR1	0	R1346T
1231.026	0.843	740421	WORD_OFF	n/a	n/a	TOOL	7	5	[0, 0, 0]	n/a	FR1	0	R1346T
1231.869	1.624	741264	WORD	n/a	wordpools/wordpool_EN.txt	SQUARE	8	5	[0, 0, 0]	n/a	FR1	0	R1346T
1233.493	1.038	742888	WORD_OFF	n/a	n/a	SQUARE	8	5	[0, 0, 0]	n/a	FR1	0	R1346T
1234.531	1.629	743926	WORD	n/a	wordpools/wordpool_EN.txt	NET	9	5	[0, 0, 0]	n/a	FR1	0	R1346T
1236.16	0.876	745555	WORD_OFF	n/a	n/a	NET	9	5	[0, 0, 0]	n/a	FR1	0	R1346T
1237.036	1.624	746431	WORD	n/a	wordpools/wordpool_EN.txt	LAMP	10	5	[0, 0, 0]	n/a	FR1	0	R1346T
1238.66	1.109	748054	WORD_OFF	n/a	n/a	LAMP	10	5	[0, 0, 0]	n/a	FR1	0	R1346T
1239.769	1.625	749163	WORD	n/a	wordpools/wordpool_EN.txt	BREAD	11	5	[0, 0, 0]	n/a	FR1	0	R1346T
1241.394	1.043	750788	WORD_OFF	n/a	n/a	BREAD	11	5	[0, 0, 0]	n/a	FR1	0	R1346T
1242.437	1.624	751831	WORD	n/a	wordpools/wordpool_EN.txt	HAWK	12	5	[0, 0, 0]	n/a	FR1	0	R1346T
1244.061	0.001	753455	WORD_OFF	n/a	n/a	HAWK	12	5	[0, 0, 0]	n/a	FR1	0	R1346T
1244.062	0.0	753456	ENCODING_END	n/a	n/a	n/a	-999	5	[0, 0, 0]	n/a	FR1	0	R1346T
1244.062	0.0	753456	DISTRACT_START	n/a	n/a	n/a	-999	5	[0, 0, 0]	n/a	FR1	0	R1346T
1244.062	0.016	753456	START	n/a	n/a	n/a	-999	5	[-999, -999, -999]	n/a	FR1	0	R1346T
1244.078	6.134	753472	PROB	6.134	n/a	n/a	-999	5	[7, 6, 2]	15	FR1	0	R1346T
1250.212	7.502	759606	PROB	7.502	n/a	n/a	-999	5	[9, 2, 6]	17	FR1	0	R1346T
1257.714	5.667	767108	PROB	5.667	n/a	n/a	-999	5	[4, 5, 3]	12	FR1	0	R1346T
1263.381	4.361	772774	PROB	4.361	n/a	n/a	-999	5	[2, 7, 7]	16	FR1	0	R1346T
1267.742	0.007	777135	STOP	n/a	n/a	n/a	-999	5	[-999, -999, -999]	n/a	FR1	0	R1346T
1267.749	0.618	777142	DISTRACT_END	n/a	n/a	n/a	-999	5	[0, 0, 0]	n/a	FR1	0	R1346T
1268.367	1.699	777760	RETRIEVAL_ORIENT_START	n/a	n/a	n/a	-999	5	[0, 0, 0]	n/a	FR1	0	R1346T
1270.066	0.0	779459	REC_START	n/a	n/a	n/a	-999	5	[0, 0, 0]	n/a	FR1	0	R1346T
1270.066	2.199	779459	RETRIEVAL_ORIENT_END	n/a	n/a	n/a	-999	5	[0, 0, 0]	n/a	FR1	0	R1346T
1272.265	1.048	781658	REC_WORD	1.048	n/a	BRIDGE	2	5	[0, 0, 0]	n/a	FR1	0	R1346T
1273.313	4.934	782706	REC_WORD	4.934	n/a	LAMP	10	5	[0, 0, 0]	n/a	FR1	0	R1346T
1278.247	1.63	787640	REC_WORD	1.63	n/a	GOAT	6	5	[0, 0, 0]	n/a	FR1	0	R1346T
1279.877	20.2	789270	REC_WORD	20.2	n/a	DEER	5	5	[0, 0, 0]	n/a	FR1	0	R1346T
1300.077	0.0	809469	REC_END	n/a	n/a	n/a	-999	5	[0, 0, 0]	n/a	FR1	0	R1346T
1300.077	0.016	809469	TRIAL_END	n/a	n/a	n/a	-999	5	[0, 0, 0]	n/a	FR1	0	R1346T
1300.093	0.001	809485	TRIAL_START	n/a	n/a	n/a	-999	6	[0, 0, 0]	n/a	FR1	0	R1346T
1300.094	0.0	809486	WAITING_START	n/a	n/a	n/a	-999	6	[0, 0, 0]	n/a	FR1	0	R1346T
1300.094	86.96	809486	TRIAL	n/a	n/a	n/a	-999	6	[0, 0, 0]	n/a	FR1	0	R1346T
1387.054	0.0	896442	WAITING_END	n/a	n/a	n/a	-999	6	[0, 0, 0]	n/a	FR1	0	R1346T
1387.054	10.429	896442	COUNTDOWN_START	n/a	n/a	n/a	-999	6	[0, 0, 0]	n/a	FR1	0	R1346T
1397.483	0.001	906870	COUNTDOWN_END	n/a	n/a	n/a	-999	6	[0, 0, 0]	n/a	FR1	0	R1346T
1397.484	1.239	906871	ORIENT_START	n/a	n/a	n/a	-999	6	[0, 0, 0]	n/a	FR1	0	R1346T
1398.723	0.0	908110	ORIENT_END	n/a	n/a	n/a	-999	6	[0, 0, 0]	n/a	FR1	0	R1346T
1398.723	0.774	908110	ENCODING_START	n/a	n/a	n/a	-999	6	[0, 0, 0]	n/a	FR1	0	R1346T
1399.497	1.626	908884	WORD	n/a	wordpools/wordpool_EN.txt	ROSE	1	6	[0, 0, 0]	n/a	FR1	0	R1346T
1401.123	0.926	910510	WORD_OFF	n/a	n/a	ROSE	1	6	[0, 0, 0]	n/a	FR1	0	R1346T
1402.049	1.625	911436	WORD	n/a	wordpools/wordpool_EN.txt	BUSH	2	6	[0, 0, 0]	n/a	FR1	0	R1346T
1403.674	0.995	913061	WORD_OFF	n/a	n/a	BUSH	2	6	[0, 0, 0]	n/a	FR1	0	R1346T
1404.669	1.637	914056	WORD	n/a	wordpools/wordpool_EN.txt	CLOWN	3	6	[0, 0, 0]	n/a	FR1	0	R1346T
1406.306	0.863	915693	WORD_OFF	n/a	n/a	CLOWN	3	6	[0, 0, 0]	n/a	FR1	0	R1346T
1407.169	1.622	916556	WORD	n/a	wordpools/wordpool_EN.txt	PARK	4	6	[0, 0, 0]	n/a	FR1	0	R1346T
1408.791	0.809	918178	WORD_OFF	n/a	n/a	PARK	4	6	[0, 0, 0]	n/a	FR1	0	R1346T
1409.6	1.625	918986	WORD	n/a	wordpools/wordpool_EN.txt	PLANE	5	6	[0, 0, 0]	n/a	FR1	0	R1346T
1411.225	0.885	920611	WORD_OFF	n/a	n/a	PLANE	5	6	[0, 0, 0]	n/a	FR1	0	R1346T
1412.11	1.632	921496	WORD	n/a	wordpools/wordpool_EN.txt	OAR	6	6	[0, 0, 0]	n/a	FR1	0	R1346T
1413.742	1.124	923128	WORD_OFF	n/a	n/a	OAR	6	6	[0, 0, 0]	n/a	FR1	0	R1346T
1414.866	1.627	924252	WORD	n/a	wordpools/wordpool_EN.txt	BEE	7	6	[0, 0, 0]	n/a	FR1	0	R1346T
1416.493	1.003	925879	WORD_OFF	n/a	n/a	BEE	7	6	[0, 0, 0]	n/a	FR1	0	R1346T
1417.496	1.63	926882	WORD	n/a	wordpools/wordpool_EN.txt	SKI	8	6	[0, 0, 0]	n/a	FR1	0	R1346T
1419.126	0.801	928512	WORD_OFF	n/a	n/a	SKI	8	6	[0, 0, 0]	n/a	FR1	0	R1346T
1419.927	1.633	929313	WORD	n/a	wordpools/wordpool_EN.txt	COUCH	9	6	[0, 0, 0]	n/a	FR1	0	R1346T
1421.56	1.046	930946	WORD_OFF	n/a	n/a	COUCH	9	6	[0, 0, 0]	n/a	FR1	0	R1346T
1422.606	1.638	931992	WORD	n/a	wordpools/wordpool_EN.txt	CROW	10	6	[0, 0, 0]	n/a	FR1	0	R1346T
1424.244	1.12	933630	WORD_OFF	n/a	n/a	CROW	10	6	[0, 0, 0]	n/a	FR1	0	R1346T
1425.364	1.631	934750	WORD	n/a	wordpools/wordpool_EN.txt	ANT	11	6	[0, 0, 0]	n/a	FR1	0	R1346T
1426.995	0.972	936381	WORD_OFF	n/a	n/a	ANT	11	6	[0, 0, 0]	n/a	FR1	0	R1346T
1427.967	1.628	937353	WORD	n/a	wordpools/wordpool_EN.txt	BAND	12	6	[0, 0, 0]	n/a	FR1	0	R1346T
1429.595	0.001	938981	WORD_OFF	n/a	n/a	BAND	12	6	[0, 0, 0]	n/a	FR1	0	R1346T
1429.596	0.0	938982	ENCODING_END	n/a	n/a	n/a	-999	6	[0, 0, 0]	n/a	FR1	0	R1346T
1429.596	0.0	938982	DISTRACT_START	n/a	n/a	n/a	-999	6	[0, 0, 0]	n/a	FR1	0	R1346T
1429.596	0.015	938982	START	n/a	n/a	n/a	-999	6	[-999, -999, -999]	n/a	FR1	0	R1346T
1429.611	9.069	938997	PROB	9.069	n/a	n/a	-999	6	[7, 9, 7]	22	FR1	0	R1346T
1438.68	26.127	948065	PROB	26.127	n/a	n/a	-999	6	[9, 7, 9]	25	FR1	0	R1346T
1464.807	0.011	974191	STOP	n/a	n/a	n/a	-999	6	[-999, -999, -999]	n/a	FR1	0	R1346T
1464.818	0.625	974202	DISTRACT_END	n/a	n/a	n/a	-999	6	[0, 0, 0]	n/a	FR1	0	R1346T
1465.443	1.559	974827	RETRIEVAL_ORIENT_START	n/a	n/a	n/a	-999	6	[0, 0, 0]	n/a	FR1	0	R1346T
1467.002	0.0	976386	REC_START	n/a	n/a	n/a	-999	6	[0, 0, 0]	n/a	FR1	0	R1346T
1467.002	4.858	976386	RETRIEVAL_ORIENT_END	n/a	n/a	n/a	-999	6	[0, 0, 0]	n/a	FR1	0	R1346T
1471.86	1.592	981244	REC_WORD	1.592	n/a	BEAUTY	-999	6	[0, 0, 0]	n/a	FR1	0	R1346T
1473.452	1.307	982835	REC_WORD	1.307	n/a	ROSE	1	6	[0, 0, 0]	n/a	FR1	0	R1346T
1474.759	3.991	984142	REC_WORD	3.991	n/a	BOAT	-999	6	[0, 0, 0]	n/a	FR1	0	R1346T
1478.75	4.265	988133	REC_WORD	4.265	n/a	BEE	7	6	[0, 0, 0]	n/a	FR1	0	R1346T
1483.015	13.999	992398	REC_WORD	13.999	n/a	CLOWN	3	6	[0, 0, 0]	n/a	FR1	0	R1346T
1497.014	0.0	1006396	REC_END	n/a	n/a	n/a	-999	6	[0, 0, 0]	n/a	FR1	0	R1346T
1497.014	0.014	1006396	TRIAL_END	n/a	n/a	n/a	-999	6	[0, 0, 0]	n/a	FR1	0	R1346T
1497.028	0.0	1006410	TRIAL_START	n/a	n/a	n/a	-999	7	[0, 0, 0]	n/a	FR1	0	R1346T
1497.028	0.001	1006410	TRIAL	n/a	n/a	n/a	-999	7	[0, 0, 0]	n/a	FR1	0	R1346T
1497.029	3.762	1006411	WAITING_START	n/a	n/a	n/a	-999	7	[0, 0, 0]	n/a	FR1	0	R1346T
1500.791	0.001	1010173	WAITING_END	n/a	n/a	n/a	-999	7	[0, 0, 0]	n/a	FR1	0	R1346T
1500.792	10.428	1010174	COUNTDOWN_START	n/a	n/a	n/a	-999	7	[0, 0, 0]	n/a	FR1	0	R1346T
1511.22	0.001	1020602	COUNTDOWN_END	n/a	n/a	n/a	-999	7	[0, 0, 0]	n/a	FR1	0	R1346T
1511.221	1.206	1020603	ORIENT_START	n/a	n/a	n/a	-999	7	[0, 0, 0]	n/a	FR1	0	R1346T
1512.427	0.0	1021809	ORIENT_END	n/a	n/a	n/a	-999	7	[0, 0, 0]	n/a	FR1	0	R1346T
1512.427	0.782	1021809	ENCODING_START	n/a	n/a	n/a	-999	7	[0, 0, 0]	n/a	FR1	0	R1346T
1513.209	1.635	1022591	WORD	n/a	wordpools/wordpool_EN.txt	CONE	1	7	[0, 0, 0]	n/a	FR1	0	R1346T
1514.844	0.915	1024226	WORD_OFF	n/a	n/a	CONE	1	7	[0, 0, 0]	n/a	FR1	0	R1346T
1515.759	1.635	1025141	WORD	n/a	wordpools/wordpool_EN.txt	PASTE	2	7	[0, 0, 0]	n/a	FR1	0	R1346T
1517.394	1.117	1026775	WORD_OFF	n/a	n/a	PASTE	2	7	[0, 0, 0]	n/a	FR1	0	R1346T
1518.511	1.634	1027892	WORD	n/a	wordpools/wordpool_EN.txt	CAR	3	7	[0, 0, 0]	n/a	FR1	0	R1346T
1520.145	1.026	1029526	WORD_OFF	n/a	n/a	CAR	3	7	[0, 0, 0]	n/a	FR1	0	R1346T
1521.171	1.624	1030552	WORD	n/a	wordpools/wordpool_EN.txt	RAT	4	7	[0, 0, 0]	n/a	FR1	0	R1346T
1522.795	0.951	1032176	WORD_OFF	n/a	n/a	RAT	4	7	[0, 0, 0]	n/a	FR1	0	R1346T
1523.746	1.633	1033127	WORD	n/a	wordpools/wordpool_EN.txt	SWORD	5	7	[0, 0, 0]	n/a	FR1	0	R1346T
1525.379	1.091	1034760	WORD_OFF	n/a	n/a	SWORD	5	7	[0, 0, 0]	n/a	FR1	0	R1346T
1526.47	1.626	1035851	WORD	n/a	wordpools/wordpool_EN.txt	RUG	6	7	[0, 0, 0]	n/a	FR1	0	R1346T
1528.096	1.007	1037477	WORD_OFF	n/a	n/a	RUG	6	7	[0, 0, 0]	n/a	FR1	0	R1346T
1529.103	1.627	1038484	WORD	n/a	wordpools/wordpool_EN.txt	TRAY	7	7	[0, 0, 0]	n/a	FR1	0	R1346T
1530.73	0.833	1040111	WORD_OFF	n/a	n/a	TRAY	7	7	[0, 0, 0]	n/a	FR1	0	R1346T
1531.563	1.634	1040944	WORD	n/a	wordpools/wordpool_EN.txt	MAZE	8	7	[0, 0, 0]	n/a	FR1	0	R1346T
1533.197	1.064	1042578	WORD_OFF	n/a	n/a	MAZE	8	7	[0, 0, 0]	n/a	FR1	0	R1346T
1534.261	1.62	1043642	WORD	n/a	wordpools/wordpool_EN.txt	STOOL	9	7	[0, 0, 0]	n/a	FR1	0	R1346T
1535.881	0.805	1045262	WORD_OFF	n/a	n/a	STOOL	9	7	[0, 0, 0]	n/a	FR1	0	R1346T
1536.686	1.628	1046067	WORD	n/a	wordpools/wordpool_EN.txt	COW	10	7	[0, 0, 0]	n/a	FR1	0	R1346T
1538.314	0.78	1047694	WORD_OFF	n/a	n/a	COW	10	7	[0, 0, 0]	n/a	FR1	0	R1346T
1539.094	1.621	1048474	WORD	n/a	wordpools/wordpool_EN.txt	ARK	11	7	[0, 0, 0]	n/a	FR1	0	R1346T
1540.715	0.927	1050095	WORD_OFF	n/a	n/a	ARK	11	7	[0, 0, 0]	n/a	FR1	0	R1346T
1541.642	1.623	1051022	WORD	n/a	wordpools/wordpool_EN.txt	BEAR	12	7	[0, 0, 0]	n/a	FR1	0	R1346T
1543.265	0.0	1052645	WORD_OFF	n/a	n/a	BEAR	12	7	[0, 0, 0]	n/a	FR1	0	R1346T
1543.265	0.0	1052645	ENCODING_END	n/a	n/a	n/a	-999	7	[0, 0, 0]	n/a	FR1	0	R1346T
1543.265	0.001	1052645	DISTRACT_START	n/a	n/a	n/a	-999	7	[0, 0, 0]	n/a	FR1	0	R1346T
1543.266	0.015	1052646	START	n/a	n/a	n/a	-999	7	[-999, -999, -999]	n/a	FR1	0	R1346T
1543.281	5.152	1052661	PROB	5.152	n/a	n/a	-999	7	[3, 4, 1]	8	FR1	0	R1346T
1548.433	6.401	1057813	PROB	6.401	n/a	n/a	-999	7	[9, 2, 8]	17	FR1	0	R1346T
1554.834	12.897	1064214	PROB	12.897	n/a	n/a	-999	7	[9, 7, 5]	21	FR1	0	R1346T
1567.731	0.022	1077110	STOP	n/a	n/a	n/a	-999	7	[-999, -999, -999]	n/a	FR1	0	R1346T
1567.753	0.517	1077132	DISTRACT_END	n/a	n/a	n/a	-999	7	[0, 0, 0]	n/a	FR1	0	R1346T
1568.27	1.567	1077649	RETRIEVAL_ORIENT_START	n/a	n/a	n/a	-999	7	[0, 0, 0]	n/a	FR1	0	R1346T
1569.837	0.0	1079216	RETRIEVAL_ORIENT_END	n/a	n/a	n/a	-999	7	[0, 0, 0]	n/a	FR1	0	R1346T
1569.837	6.643	1079216	REC_START	n/a	n/a	n/a	-999	7	[0, 0, 0]	n/a	FR1	0	R1346T
1576.48	2.007	1085859	REC_WORD	2.007	n/a	BEAR	12	7	[0, 0, 0]	n/a	FR1	0	R1346T
1578.487	2.766	1087866	REC_WORD	2.766	n/a	ARK	11	7	[0, 0, 0]	n/a	FR1	0	R1346T
1581.253	18.596	1090631	REC_WORD	18.596	n/a	CONE	1	7	[0, 0, 0]	n/a	FR1	0	R1346T
1599.849	0.001	1109227	REC_END	n/a	n/a	n/a	-999	7	[0, 0, 0]	n/a	FR1	0	R1346T
1599.85	0.015	1109228	TRIAL_END	n/a	n/a	n/a	-999	7	[0, 0, 0]	n/a	FR1	0	R1346T
1599.865	0.0	1109243	TRIAL_START	n/a	n/a	n/a	-999	8	[0, 0, 0]	n/a	FR1	0	R1346T
1599.865	0.0	1109243	TRIAL	n/a	n/a	n/a	-999	8	[0, 0, 0]	n/a	FR1	0	R1346T
1599.865	6.095	1109243	WAITING_START	n/a	n/a	n/a	-999	8	[0, 0, 0]	n/a	FR1	0	R1346T
1605.96	0.001	1115337	WAITING_END	n/a	n/a	n/a	-999	8	[0, 0, 0]	n/a	FR1	0	R1346T
1605.961	10.429	1115338	COUNTDOWN_START	n/a	n/a	n/a	-999	8	[0, 0, 0]	n/a	FR1	0	R1346T
1616.39	0.0	1125767	COUNTDOWN_END	n/a	n/a	n/a	-999	8	[0, 0, 0]	n/a	FR1	0	R1346T
1616.39	1.056	1125767	ORIENT_START	n/a	n/a	n/a	-999	8	[0, 0, 0]	n/a	FR1	0	R1346T
1617.446	0.0	1126823	ORIENT_END	n/a	n/a	n/a	-999	8	[0, 0, 0]	n/a	FR1	0	R1346T
1617.446	0.996	1126823	ENCODING_START	n/a	n/a	n/a	-999	8	[0, 0, 0]	n/a	FR1	0	R1346T
1618.442	1.637	1127819	WORD	n/a	wordpools/wordpool_EN.txt	DRUM	1	8	[0, 0, 0]	n/a	FR1	0	R1346T
1620.079	1.08	1129456	WORD_OFF	n/a	n/a	DRUM	1	8	[0, 0, 0]	n/a	FR1	0	R1346T
1621.159	1.638	1130536	WORD	n/a	wordpools/wordpool_EN.txt	BOARD	2	8	[0, 0, 0]	n/a	FR1	0	R1346T
1622.797	1.124	1132174	WORD_OFF	n/a	n/a	BOARD	2	8	[0, 0, 0]	n/a	FR1	0	R1346T
1623.921	1.626	1133297	WORD	n/a	wordpools/wordpool_EN.txt	WOLF	3	8	[0, 0, 0]	n/a	FR1	0	R1346T
1625.547	0.832	1134923	WORD_OFF	n/a	n/a	WOLF	3	8	[0, 0, 0]	n/a	FR1	0	R1346T
1626.379	1.635	1135755	WORD	n/a	wordpools/wordpool_EN.txt	FENCE	4	8	[0, 0, 0]	n/a	FR1	0	R1346T
1628.014	1.011	1137390	WORD_OFF	n/a	n/a	FENCE	4	8	[0, 0, 0]	n/a	FR1	0	R1346T
1629.025	1.623	1138401	WORD	n/a	wordpools/wordpool_EN.txt	SPOON	5	8	[0, 0, 0]	n/a	FR1	0	R1346T
1630.648	0.775	1140024	WORD_OFF	n/a	n/a	SPOON	5	8	[0, 0, 0]	n/a	FR1	0	R1346T
1631.423	1.626	1140799	WORD	n/a	wordpools/wordpool_EN.txt	WEB	6	8	[0, 0, 0]	n/a	FR1	0	R1346T
1633.049	1.095	1142425	WORD_OFF	n/a	n/a	WEB	6	8	[0, 0, 0]	n/a	FR1	0	R1346T
1634.144	1.622	1143520	WORD	n/a	wordpools/wordpool_EN.txt	FLAG	7	8	[0, 0, 0]	n/a	FR1	0	R1346T
1635.766	0.972	1145142	WORD_OFF	n/a	n/a	FLAG	7	8	[0, 0, 0]	n/a	FR1	0	R1346T
1636.738	1.628	1146114	WORD	n/a	wordpools/wordpool_EN.txt	TOY	8	8	[0, 0, 0]	n/a	FR1	0	R1346T
1638.366	1.056	1147742	WORD_OFF	n/a	n/a	TOY	8	8	[0, 0, 0]	n/a	FR1	0	R1346T
1639.422	1.628	1148798	WORD	n/a	wordpools/wordpool_EN.txt	HORN	9	8	[0, 0, 0]	n/a	FR1	0	R1346T
1641.05	0.783	1150426	WORD_OFF	n/a	n/a	HORN	9	8	[0, 0, 0]	n/a	FR1	0	R1346T
1641.833	1.634	1151209	WORD	n/a	wordpools/wordpool_EN.txt	SPRING	10	8	[0, 0, 0]	n/a	FR1	0	R1346T
1643.467	1.077	1152843	WORD_OFF	n/a	n/a	SPRING	10	8	[0, 0, 0]	n/a	FR1	0	R1346T
1644.544	1.624	1153920	WORD	n/a	wordpools/wordpool_EN.txt	SIGN	11	8	[0, 0, 0]	n/a	FR1	0	R1346T
1646.168	0.844	1155543	WORD_OFF	n/a	n/a	SIGN	11	8	[0, 0, 0]	n/a	FR1	0	R1346T
1647.012	1.623	1156387	WORD	n/a	wordpools/wordpool_EN.txt	NOSE	12	8	[0, 0, 0]	n/a	FR1	0	R1346T
1648.635	0.0	1158010	DISTRACT_START	n/a	n/a	n/a	-999	8	[0, 0, 0]	n/a	FR1	0	R1346T
1648.635	0.0	1158010	WORD_OFF	n/a	n/a	NOSE	12	8	[0, 0, 0]	n/a	FR1	0	R1346T
1648.635	0.001	1158010	ENCODING_END	n/a	n/a	n/a	-999	8	[0, 0, 0]	n/a	FR1	0	R1346T
1648.636	0.015	1158011	START	n/a	n/a	n/a	-999	8	[-999, -999, -999]	n/a	FR1	0	R1346T
1648.651	5.851	1158026	PROB	5.851	n/a	n/a	-999	8	[2, 6, 8]	16	FR1	0	R1346T
1654.502	4.817	1163877	PROB	4.817	n/a	n/a	-999	8	[3, 7, 7]	17	FR1	0	R1346T
1659.319	3.684	1168694	PROB	3.684	n/a	n/a	-999	8	[7, 1, 3]	11	FR1	0	R1346T
1663.003	4.151	1172378	PROB	4.151	n/a	n/a	-999	8	[8, 1, 3]	12	FR1	0	R1346T
1667.154	15.618	1176528	PROB	15.618	n/a	n/a	-999	8	[3, 7, 7]	17	FR1	0	R1346T
1682.772	0.019	1192146	STOP	n/a	n/a	n/a	-999	8	[-999, -999, -999]	n/a	FR1	0	R1346T
1682.791	0.572	1192165	DISTRACT_END	n/a	n/a	n/a	-999	8	[0, 0, 0]	n/a	FR1	0	R1346T
1683.363	1.528	1192737	RETRIEVAL_ORIENT_START	n/a	n/a	n/a	-999	8	[0, 0, 0]	n/a	FR1	0	R1346T
1684.891	0.001	1194265	RETRIEVAL_ORIENT_END	n/a	n/a	n/a	-999	8	[0, 0, 0]	n/a	FR1	0	R1346T
1684.892	6.087	1194266	REC_START	n/a	n/a	n/a	-999	8	[0, 0, 0]	n/a	FR1	0	R1346T
1690.979	1.577	1200352	REC_WORD	1.577	n/a	HORN	9	8	[0, 0, 0]	n/a	FR1	0	R1346T
1692.556	14.25	1201929	REC_WORD	14.25	n/a	WOLF	3	8	[0, 0, 0]	n/a	FR1	0	R1346T
1706.806	7.262	1216179	REC_WORD	7.262	n/a	TOY	8	8	[0, 0, 0]	n/a	FR1	0	R1346T
1714.068	0.833	1223440	REC_WORD	0.833	n/a	CONE	-999	8	[0, 0, 0]	n/a	FR1	0	R1346T
1714.901	0.001	1224273	REC_END	n/a	n/a	n/a	-999	8	[0, 0, 0]	n/a	FR1	0	R1346T
1714.902	0.014	1224274	TRIAL_END	n/a	n/a	n/a	-999	8	[0, 0, 0]	n/a	FR1	0	R1346T
1714.916	0.0	1224288	TRIAL_START	n/a	n/a	n/a	-999	9	[0, 0, 0]	n/a	FR1	0	R1346T
1714.916	0.0	1224288	TRIAL	n/a	n/a	n/a	-999	9	[0, 0, 0]	n/a	FR1	0	R1346T
1714.916	4.482	1224288	WAITING_START	n/a	n/a	n/a	-999	9	[0, 0, 0]	n/a	FR1	0	R1346T
1719.398	0.0	1228770	WAITING_END	n/a	n/a	n/a	-999	9	[0, 0, 0]	n/a	FR1	0	R1346T
1719.398	10.429	1228770	COUNTDOWN_START	n/a	n/a	n/a	-999	9	[0, 0, 0]	n/a	FR1	0	R1346T
1729.827	0.0	1239199	ORIENT_START	n/a	n/a	n/a	-999	9	[0, 0, 0]	n/a	FR1	0	R1346T
1729.827	1.056	1239199	COUNTDOWN_END	n/a	n/a	n/a	-999	9	[0, 0, 0]	n/a	FR1	0	R1346T
1730.883	0.0	1240255	ORIENT_END	n/a	n/a	n/a	-999	9	[0, 0, 0]	n/a	FR1	0	R1346T
1730.883	1.135	1240255	ENCODING_START	n/a	n/a	n/a	-999	9	[0, 0, 0]	n/a	FR1	0	R1346T
1732.018	1.632	1241389	WORD	n/a	wordpools/wordpool_EN.txt	HOOF	1	9	[0, 0, 0]	n/a	FR1	0	R1346T
1733.65	0.981	1243021	WORD_OFF	n/a	n/a	HOOF	1	9	[0, 0, 0]	n/a	FR1	0	R1346T
1734.631	1.635	1244002	WORD	n/a	wordpools/wordpool_EN.txt	FRUIT	2	9	[0, 0, 0]	n/a	FR1	0	R1346T
1736.266	1.076	1245637	WORD_OFF	n/a	n/a	FRUIT	2	9	[0, 0, 0]	n/a	FR1	0	R1346T
1737.342	1.626	1246713	WORD	n/a	wordpools/wordpool_EN.txt	ARM	3	9	[0, 0, 0]	n/a	FR1	0	R1346T
1738.968	1.071	1248339	WORD_OFF	n/a	n/a	ARM	3	9	[0, 0, 0]	n/a	FR1	0	R1346T
1740.039	1.629	1249410	WORD	n/a	wordpools/wordpool_EN.txt	STEAK	4	9	[0, 0, 0]	n/a	FR1	0	R1346T
1741.668	0.753	1251039	WORD_OFF	n/a	n/a	STEAK	4	9	[0, 0, 0]	n/a	FR1	0	R1346T
1742.421	1.631	1251792	WORD	n/a	wordpools/wordpool_EN.txt	BLOOM	5	9	[0, 0, 0]	n/a	FR1	0	R1346T
1744.052	0.994	1253423	WORD_OFF	n/a	n/a	BLOOM	5	9	[0, 0, 0]	n/a	FR1	0	R1346T
1745.046	1.623	1254417	WORD	n/a	wordpools/wordpool_EN.txt	DOLL	6	9	[0, 0, 0]	n/a	FR1	0	R1346T
1746.669	0.941	1256040	WORD_OFF	n/a	n/a	DOLL	6	9	[0, 0, 0]	n/a	FR1	0	R1346T
1747.61	1.626	1256981	WORD	n/a	wordpools/wordpool_EN.txt	RIB	7	9	[0, 0, 0]	n/a	FR1	0	R1346T
1749.236	1.115	1258607	WORD_OFF	n/a	n/a	RIB	7	9	[0, 0, 0]	n/a	FR1	0	R1346T
1750.351	1.636	1259722	WORD	n/a	wordpools/wordpool_EN.txt	SHRIMP	8	9	[0, 0, 0]	n/a	FR1	0	R1346T
1751.987	0.939	1261358	WORD_OFF	n/a	n/a	SHRIMP	8	9	[0, 0, 0]	n/a	FR1	0	R1346T
1752.926	1.628	1262296	WORD	n/a	wordpools/wordpool_EN.txt	JUDGE	9	9	[0, 0, 0]	n/a	FR1	0	R1346T
1754.554	0.771	1263924	WORD_OFF	n/a	n/a	JUDGE	9	9	[0, 0, 0]	n/a	FR1	0	R1346T
1755.325	1.629	1264695	WORD	n/a	wordpools/wordpool_EN.txt	ROOM	10	9	[0, 0, 0]	n/a	FR1	0	R1346T
1756.954	1.011	1266324	WORD_OFF	n/a	n/a	ROOM	10	9	[0, 0, 0]	n/a	FR1	0	R1346T
1757.965	1.623	1267335	WORD	n/a	wordpools/wordpool_EN.txt	PEARL	11	9	[0, 0, 0]	n/a	FR1	0	R1346T
1759.588	1.105	1268958	WORD_OFF	n/a	n/a	PEARL	11	9	[0, 0, 0]	n/a	FR1	0	R1346T
1760.693	1.628	1270063	WORD	n/a	wordpools/wordpool_EN.txt	TEETH	12	9	[0, 0, 0]	n/a	FR1	0	R1346T
1762.321	0.0	1271691	WORD_OFF	n/a	n/a	TEETH	12	9	[0, 0, 0]	n/a	FR1	0	R1346T
1762.321	0.0	1271691	ENCODING_END	n/a	n/a	n/a	-999	9	[0, 0, 0]	n/a	FR1	0	R1346T
1762.321	0.001	1271691	DISTRACT_START	n/a	n/a	n/a	-999	9	[0, 0, 0]	n/a	FR1	0	R1346T
1762.322	0.016	1271692	START	n/a	n/a	n/a	-999	9	[-999, -999, -999]	n/a	FR1	0	R1346T
1762.338	6.735	1271708	PROB	6.735	n/a	n/a	-999	9	[5, 3, 6]	14	FR1	0	R1346T
1769.073	4.884	1278443	PROB	4.884	n/a	n/a	-999	9	[1, 7, 5]	13	FR1	0	R1346T
1773.957	8.052	1283326	PROB	8.052	n/a	n/a	-999	9	[9, 6, 9]	24	FR1	0	R1346T
1782.009	3.976	1291378	PROB	3.976	n/a	n/a	-999	9	[1, 5, 3]	9	FR1	0	R1346T
1785.985	0.008	1295354	STOP	n/a	n/a	n/a	-999	9	[-999, -999, -999]	n/a	FR1	0	R1346T
1785.993	0.524	1295362	DISTRACT_END	n/a	n/a	n/a	-999	9	[0, 0, 0]	n/a	FR1	0	R1346T
1786.517	1.609	1295886	RETRIEVAL_ORIENT_START	n/a	n/a	n/a	-999	9	[0, 0, 0]	n/a	FR1	0	R1346T
1788.126	0.001	1297495	RETRIEVAL_ORIENT_END	n/a	n/a	n/a	-999	9	[0, 0, 0]	n/a	FR1	0	R1346T
1788.127	7.776	1297496	REC_START	n/a	n/a	n/a	-999	9	[0, 0, 0]	n/a	FR1	0	R1346T
1795.903	21.778	1305271	REC_WORD	21.778	n/a	JUDGE	9	9	[0, 0, 0]	n/a	FR1	0	R1346T
1817.681	0.454	1327048	REC_WORD	0.454	n/a	WOLF	-999	9	[0, 0, 0]	n/a	FR1	0	R1346T
1818.135	0.0	1327502	TRIAL_END	n/a	n/a	n/a	-999	9	[0, 0, 0]	n/a	FR1	0	R1346T
1818.135	0.016	1327502	REC_END	n/a	n/a	n/a	-999	9	[0, 0, 0]	n/a	FR1	0	R1346T
1818.151	0.0	1327518	TRIAL_START	n/a	n/a	n/a	-999	10	[0, 0, 0]	n/a	FR1	0	R1346T
1818.151	0.0	1327518	TRIAL	n/a	n/a	n/a	-999	10	[0, 0, 0]	n/a	FR1	0	R1346T
1818.151	7.799	1327518	WAITING_START	n/a	n/a	n/a	-999	10	[0, 0, 0]	n/a	FR1	0	R1346T
1825.95	0.001	1335317	WAITING_END	n/a	n/a	n/a	-999	10	[0, 0, 0]	n/a	FR1	0	R1346T
1825.951	10.429	1335318	COUNTDOWN_START	n/a	n/a	n/a	-999	10	[0, 0, 0]	n/a	FR1	0	R1346T
1836.38	0.001	1345747	COUNTDOWN_END	n/a	n/a	n/a	-999	10	[0, 0, 0]	n/a	FR1	0	R1346T
1836.381	1.121	1345748	ORIENT_START	n/a	n/a	n/a	-999	10	[0, 0, 0]	n/a	FR1	0	R1346T
1837.502	0.001	1346869	ORIENT_END	n/a	n/a	n/a	-999	10	[0, 0, 0]	n/a	FR1	0	R1346T
1837.503	1.011	1346870	ENCODING_START	n/a	n/a	n/a	-999	10	[0, 0, 0]	n/a	FR1	0	R1346T
1838.514	1.622	1347880	WORD	n/a	wordpools/wordpool_EN.txt	HAND	1	10	[0, 0, 0]	n/a	FR1	0	R1346T
1840.136	0.854	1349502	WORD_OFF	n/a	n/a	HAND	1	10	[0, 0, 0]	n/a	FR1	0	R1346T
1840.99	1.63	1350356	WORD	n/a	wordpools/wordpool_EN.txt	BAT	2	10	[0, 0, 0]	n/a	FR1	0	R1346T
1842.62	1.084	1351986	WORD_OFF	n/a	n/a	BAT	2	10	[0, 0, 0]	n/a	FR1	0	R1346T
1843.704	1.633	1353070	WORD	n/a	wordpools/wordpool_EN.txt	WING	3	10	[0, 0, 0]	n/a	FR1	0	R1346T
1845.337	0.85	1354703	WORD_OFF	n/a	n/a	WING	3	10	[0, 0, 0]	n/a	FR1	0	R1346T
1846.187	1.634	1355553	WORD	n/a	wordpools/wordpool_EN.txt	BROOM	4	10	[0, 0, 0]	n/a	FR1	0	R1346T
1847.821	1.132	1357187	WORD_OFF	n/a	n/a	BROOM	4	10	[0, 0, 0]	n/a	FR1	0	R1346T
1848.953	1.635	1358319	WORD	n/a	wordpools/wordpool_EN.txt	SHIELD	5	10	[0, 0, 0]	n/a	FR1	0	R1346T
1850.588	0.857	1359954	WORD_OFF	n/a	n/a	SHIELD	5	10	[0, 0, 0]	n/a	FR1	0	R1346T
1851.445	1.627	1360811	WORD	n/a	wordpools/wordpool_EN.txt	GEESE	6	10	[0, 0, 0]	n/a	FR1	0	R1346T
1853.072	1.084	1362438	WORD_OFF	n/a	n/a	GEESE	6	10	[0, 0, 0]	n/a	FR1	0	R1346T
1854.156	1.633	1363522	WORD	n/a	wordpools/wordpool_EN.txt	WEED	7	10	[0, 0, 0]	n/a	FR1	0	R1346T
1855.789	1.019	1365155	WORD_OFF	n/a	n/a	WEED	7	10	[0, 0, 0]	n/a	FR1	0	R1346T
1856.808	1.631	1366174	WORD	n/a	wordpools/wordpool_EN.txt	BAG	8	10	[0, 0, 0]	n/a	FR1	0	R1346T
1858.439	1.144	1367805	WORD_OFF	n/a	n/a	BAG	8	10	[0, 0, 0]	n/a	FR1	0	R1346T
1859.583	1.623	1368949	WORD	n/a	wordpools/wordpool_EN.txt	POND	9	10	[0, 0, 0]	n/a	FR1	0	R1346T
1861.206	1.087	1370571	WORD_OFF	n/a	n/a	POND	9	10	[0, 0, 0]	n/a	FR1	0	R1346T
1862.293	1.614	1371658	WORD	n/a	wordpools/wordpool_EN.txt	SLEEVE	10	10	[0, 0, 0]	n/a	FR1	0	R1346T
1863.907	1.035	1373272	WORD_OFF	n/a	n/a	SLEEVE	10	10	[0, 0, 0]	n/a	FR1	0	R1346T
1864.942	1.632	1374307	WORD	n/a	wordpools/wordpool_EN.txt	MOLE	11	10	[0, 0, 0]	n/a	FR1	0	R1346T
1866.574	1.077	1375939	WORD_OFF	n/a	n/a	MOLE	11	10	[0, 0, 0]	n/a	FR1	0	R1346T
1867.651	1.623	1377016	WORD	n/a	wordpools/wordpool_EN.txt	KEY	12	10	[0, 0, 0]	n/a	FR1	0	R1346T
1869.274	0.0	1378639	WORD_OFF	n/a	n/a	KEY	12	10	[0, 0, 0]	n/a	FR1	0	R1346T
1869.274	0.0	1378639	ENCODING_END	n/a	n/a	n/a	-999	10	[0, 0, 0]	n/a	FR1	0	R1346T
1869.274	0.0	1378639	DISTRACT_START	n/a	n/a	n/a	-999	10	[0, 0, 0]	n/a	FR1	0	R1346T
1869.274	0.016	1378639	START	n/a	n/a	n/a	-999	10	[-999, -999, -999]	n/a	FR1	0	R1346T
1869.29	6.835	1378655	PROB	6.835	n/a	n/a	-999	10	[4, 7, 7]	18	FR1	0	R1346T
1876.125	4.268	1385490	PROB	4.268	n/a	n/a	-999	10	[4, 1, 2]	7	FR1	0	R1346T
1880.393	19.913	1389758	PROB	19.913	n/a	n/a	-999	10	[3, 9, 7]	19	FR1	0	R1346T
1900.306	0.006	1409670	STOP	n/a	n/a	n/a	-999	10	[-999, -999, -999]	n/a	FR1	0	R1346T
1900.312	0.638	1409676	DISTRACT_END	n/a	n/a	n/a	-999	10	[0, 0, 0]	n/a	FR1	0	R1346T
1900.95	1.681	1410314	RETRIEVAL_ORIENT_START	n/a	n/a	n/a	-999	10	[0, 0, 0]	n/a	FR1	0	R1346T
1902.631	0.0	1411995	RETRIEVAL_ORIENT_END	n/a	n/a	n/a	-999	10	[0, 0, 0]	n/a	FR1	0	R1346T
1902.631	4.85	1411995	REC_START	n/a	n/a	n/a	-999	10	[0, 0, 0]	n/a	FR1	0	R1346T
1907.481	1.929	1416844	REC_WORD	1.929	n/a	HAND	1	10	[0, 0, 0]	n/a	FR1	0	R1346T
1909.41	19.1	1418773	REC_WORD	19.1	n/a	BAT	2	10	[0, 0, 0]	n/a	FR1	0	R1346T
1928.51	4.132	1437872	REC_WORD	4.132	n/a	ARM	-999	10	[0, 0, 0]	n/a	FR1	0	R1346T
1932.642	0.0	1442004	REC_END	n/a	n/a	n/a	-999	10	[0, 0, 0]	n/a	FR1	0	R1346T
1932.642	0.016	1442004	TRIAL_END	n/a	n/a	n/a	-999	10	[0, 0, 0]	n/a	FR1	0	R1346T
1932.658	0.001	1442020	TRIAL_START	n/a	n/a	n/a	-999	11	[0, 0, 0]	n/a	FR1	0	R1346T
1932.659	0.0	1442021	WAITING_START	n/a	n/a	n/a	-999	11	[0, 0, 0]	n/a	FR1	0	R1346T
1932.659	96.228	1442021	TRIAL	n/a	n/a	n/a	-999	11	[0, 0, 0]	n/a	FR1	0	R1346T
2028.887	0.0	1538245	WAITING_END	n/a	n/a	n/a	-999	11	[0, 0, 0]	n/a	FR1	0	R1346T
2028.887	10.43	1538245	COUNTDOWN_START	n/a	n/a	n/a	-999	11	[0, 0, 0]	n/a	FR1	0	R1346T
2039.317	0.0	1548674	COUNTDOWN_END	n/a	n/a	n/a	-999	11	[0, 0, 0]	n/a	FR1	0	R1346T
2039.317	1.255	1548674	ORIENT_START	n/a	n/a	n/a	-999	11	[0, 0, 0]	n/a	FR1	0	R1346T
2040.572	0.001	1549929	ORIENT_END	n/a	n/a	n/a	-999	11	[0, 0, 0]	n/a	FR1	0	R1346T
2040.573	0.961	1549930	ENCODING_START	n/a	n/a	n/a	-999	11	[0, 0, 0]	n/a	FR1	0	R1346T
2041.534	1.622	1550891	WORD	n/a	wordpools/wordpool_EN.txt	GRASS	1	11	[0, 0, 0]	n/a	FR1	0	R1346T
2043.156	1.057	1552513	WORD_OFF	n/a	n/a	GRASS	1	11	[0, 0, 0]	n/a	FR1	0	R1346T
2044.213	1.627	1553570	WORD	n/a	wordpools/wordpool_EN.txt	LEAF	2	11	[0, 0, 0]	n/a	FR1	0	R1346T
2045.84	0.775	1555197	WORD_OFF	n/a	n/a	LEAF	2	11	[0, 0, 0]	n/a	FR1	0	R1346T
2046.615	1.625	1555972	WORD	n/a	wordpools/wordpool_EN.txt	PIG	3	11	[0, 0, 0]	n/a	FR1	0	R1346T
2048.24	0.812	1557597	WORD_OFF	n/a	n/a	PIG	3	11	[0, 0, 0]	n/a	FR1	0	R1346T
2049.052	1.622	1558409	WORD	n/a	wordpools/wordpool_EN.txt	BLUSH	4	11	[0, 0, 0]	n/a	FR1	0	R1346T
2050.674	0.891	1560031	WORD_OFF	n/a	n/a	BLUSH	4	11	[0, 0, 0]	n/a	FR1	0	R1346T
2051.565	1.626	1560922	WORD	n/a	wordpools/wordpool_EN.txt	SEAL	5	11	[0, 0, 0]	n/a	FR1	0	R1346T
2053.191	1.043	1562547	WORD_OFF	n/a	n/a	SEAL	5	11	[0, 0, 0]	n/a	FR1	0	R1346T
2054.234	1.624	1563590	WORD	n/a	wordpools/wordpool_EN.txt	CALF	6	11	[0, 0, 0]	n/a	FR1	0	R1346T
2055.858	0.833	1565214	WORD_OFF	n/a	n/a	CALF	6	11	[0, 0, 0]	n/a	FR1	0	R1346T
2056.691	1.633	1566047	WORD	n/a	wordpools/wordpool_EN.txt	SHEEP	7	11	[0, 0, 0]	n/a	FR1	0	R1346T
2058.324	0.893	1567680	WORD_OFF	n/a	n/a	SHEEP	7	11	[0, 0, 0]	n/a	FR1	0	R1346T
2059.217	1.626	1568573	WORD	n/a	wordpools/wordpool_EN.txt	CLOUD	8	11	[0, 0, 0]	n/a	FR1	0	R1346T
2060.843	0.97	1570199	WORD_OFF	n/a	n/a	CLOUD	8	11	[0, 0, 0]	n/a	FR1	0	R1346T
2061.813	1.63	1571169	WORD	n/a	wordpools/wordpool_EN.txt	POOL	9	11	[0, 0, 0]	n/a	FR1	0	R1346T
2063.443	0.953	1572799	WORD_OFF	n/a	n/a	POOL	9	11	[0, 0, 0]	n/a	FR1	0	R1346T
2064.396	1.631	1573752	WORD	n/a	wordpools/wordpool_EN.txt	BOOK	10	11	[0, 0, 0]	n/a	FR1	0	R1346T
2066.027	0.802	1575383	WORD_OFF	n/a	n/a	BOOK	10	11	[0, 0, 0]	n/a	FR1	0	R1346T
2066.829	1.632	1576185	WORD	n/a	wordpools/wordpool_EN.txt	NEST	11	11	[0, 0, 0]	n/a	FR1	0	R1346T
2068.461	1.09	1577817	WORD_OFF	n/a	n/a	NEST	11	11	[0, 0, 0]	n/a	FR1	0	R1346T
2069.551	1.627	1578907	WORD	n/a	wordpools/wordpool_EN.txt	STORE	12	11	[0, 0, 0]	n/a	FR1	0	R1346T
2071.178	0.0	1580534	WORD_OFF	n/a	n/a	STORE	12	11	[0, 0, 0]	n/a	FR1	0	R1346T
2071.178	0.001	1580534	ENCODING_END	n/a	n/a	n/a	-999	11	[0, 0, 0]	n/a	FR1	0	R1346T
2071.179	0.0	1580535	DISTRACT_START	n/a	n/a	n/a	-999	11	[0, 0, 0]	n/a	FR1	0	R1346T
2071.179	0.015	1580535	START	n/a	n/a	n/a	-999	11	[-999, -999, -999]	n/a	FR1	0	R1346T
2071.194	4.984	1580550	PROB	4.984	n/a	n/a	-999	11	[1, 1, 8]	10	FR1	0	R1346T
2076.178	5.468	1585533	PROB	5.468	n/a	n/a	-999	11	[5, 2, 2]	9	FR1	0	R1346T
2081.646	4.901	1591001	PROB	4.901	n/a	n/a	-999	11	[2, 2, 9]	13	FR1	0	R1346T
2086.547	8.894	1595902	PROB	8.894	n/a	n/a	-999	11	[7, 1, 8]	16	FR1	0	R1346T
2095.441	0.008	1604796	STOP	n/a	n/a	n/a	-999	11	[-999, -999, -999]	n/a	FR1	0	R1346T
2095.449	0.634	1604804	DISTRACT_END	n/a	n/a	n/a	-999	11	[0, 0, 0]	n/a	FR1	0	R1346T
2096.083	1.716	1605437	RETRIEVAL_ORIENT_START	n/a	n/a	n/a	-999	11	[0, 0, 0]	n/a	FR1	0	R1346T
2097.799	0.001	1607153	RETRIEVAL_ORIENT_END	n/a	n/a	n/a	-999	11	[0, 0, 0]	n/a	FR1	0	R1346T
2097.8	2.748	1607154	REC_START	n/a	n/a	n/a	-999	11	[0, 0, 0]	n/a	FR1	0	R1346T
2100.548	1.645	1609902	REC_WORD	1.645	n/a	CLOUD	8	11	[0, 0, 0]	n/a	FR1	0	R1346T
2102.193	2.915	1611547	REC_WORD	2.915	n/a	PIG	3	11	[0, 0, 0]	n/a	FR1	0	R1346T
2105.108	1.29	1614462	REC_WORD	1.29	n/a	BLUSH	4	11	[0, 0, 0]	n/a	FR1	0	R1346T
2106.398	7.745	1615752	REC_WORD	7.745	n/a	BRUSH	-999	11	[0, 0, 0]	n/a	FR1	0	R1346T
2114.143	1.077	1623497	REC_WORD	1.077	n/a	CALF	6	11	[0, 0, 0]	n/a	FR1	0	R1346T
2115.22	12.589	1624574	REC_WORD	12.589	n/a	SHEEP	7	11	[0, 0, 0]	n/a	FR1	0	R1346T
2127.809	0.0	1637162	REC_END	n/a	n/a	n/a	-999	11	[0, 0, 0]	n/a	FR1	0	R1346T
2127.809	0.014	1637162	TRIAL_END	n/a	n/a	n/a	-999	11	[0, 0, 0]	n/a	FR1	0	R1346T
2127.823	0.001	1637176	TRIAL_START	n/a	n/a	n/a	-999	12	[0, 0, 0]	n/a	FR1	0	R1346T
2127.824	0.0	1637177	WAITING_START	n/a	n/a	n/a	-999	12	[0, 0, 0]	n/a	FR1	0	R1346T
2127.824	11.75	1637177	TRIAL	n/a	n/a	n/a	-999	12	[0, 0, 0]	n/a	FR1	0	R1346T
2139.574	0.0	1648926	WAITING_END	n/a	n/a	n/a	-999	12	[0, 0, 0]	n/a	FR1	0	R1346T
2139.574	10.429	1648926	COUNTDOWN_START	n/a	n/a	n/a	-999	12	[0, 0, 0]	n/a	FR1	0	R1346T
2150.003	0.001	1659355	COUNTDOWN_END	n/a	n/a	n/a	-999	12	[0, 0, 0]	n/a	FR1	0	R1346T
2150.004	1.038	1659356	ORIENT_START	n/a	n/a	n/a	-999	12	[0, 0, 0]	n/a	FR1	0	R1346T
2151.042	0.001	1660394	ORIENT_END	n/a	n/a	n/a	-999	12	[0, 0, 0]	n/a	FR1	0	R1346T
2151.043	1.094	1660395	ENCODING_START	n/a	n/a	n/a	-999	12	[0, 0, 0]	n/a	FR1	0	R1346T
2152.137	1.622	1661489	WORD	n/a	wordpools/wordpool_EN.txt	STONE	1	12	[0, 0, 0]	n/a	FR1	0	R1346T
2153.759	1.012	1663111	WORD_OFF	n/a	n/a	STONE	1	12	[0, 0, 0]	n/a	FR1	0	R1346T
2154.771	1.622	1664123	WORD	n/a	wordpools/wordpool_EN.txt	SUN	2	12	[0, 0, 0]	n/a	FR1	0	R1346T
2156.393	1.06	1665745	WORD_OFF	n/a	n/a	SUN	2	12	[0, 0, 0]	n/a	FR1	0	R1346T
2157.453	1.624	1666805	WORD	n/a	wordpools/wordpool_EN.txt	CHALK	3	12	[0, 0, 0]	n/a	FR1	0	R1346T
2159.077	0.993	1668429	WORD_OFF	n/a	n/a	CHALK	3	12	[0, 0, 0]	n/a	FR1	0	R1346T
2160.07	1.624	1669422	WORD	n/a	wordpools/wordpool_EN.txt	WOOD	4	12	[0, 0, 0]	n/a	FR1	0	R1346T
2161.694	1.148	1671045	WORD_OFF	n/a	n/a	WOOD	4	12	[0, 0, 0]	n/a	FR1	0	R1346T
2162.842	1.636	1672193	WORD	n/a	wordpools/wordpool_EN.txt	LEG	5	12	[0, 0, 0]	n/a	FR1	0	R1346T
2164.478	0.848	1673829	WORD_OFF	n/a	n/a	LEG	5	12	[0, 0, 0]	n/a	FR1	0	R1346T
2165.326	1.636	1674677	WORD	n/a	wordpools/wordpool_EN.txt	BANK	6	12	[0, 0, 0]	n/a	FR1	0	R1346T
2166.962	0.94	1676313	WORD_OFF	n/a	n/a	BANK	6	12	[0, 0, 0]	n/a	FR1	0	R1346T
2167.902	1.627	1677253	WORD	n/a	wordpools/wordpool_EN.txt	TENT	7	12	[0, 0, 0]	n/a	FR1	0	R1346T
2169.529	0.939	1678880	WORD_OFF	n/a	n/a	TENT	7	12	[0, 0, 0]	n/a	FR1	0	R1346T
2170.468	1.628	1679819	WORD	n/a	wordpools/wordpool_EN.txt	WORM	8	12	[0, 0, 0]	n/a	FR1	0	R1346T
2172.096	0.961	1681447	WORD_OFF	n/a	n/a	WORM	8	12	[0, 0, 0]	n/a	FR1	0	R1346T
2173.057	1.623	1682408	WORD	n/a	wordpools/wordpool_EN.txt	MILK	9	12	[0, 0, 0]	n/a	FR1	0	R1346T
2174.68	0.876	1684031	WORD_OFF	n/a	n/a	MILK	9	12	[0, 0, 0]	n/a	FR1	0	R1346T
2175.556	1.624	1684907	WORD	n/a	wordpools/wordpool_EN.txt	SOUP	10	12	[0, 0, 0]	n/a	FR1	0	R1346T
2177.18	1.073	1686531	WORD_OFF	n/a	n/a	SOUP	10	12	[0, 0, 0]	n/a	FR1	0	R1346T
2178.253	1.628	1687604	WORD	n/a	wordpools/wordpool_EN.txt	CRANE	11	12	[0, 0, 0]	n/a	FR1	0	R1346T
2179.881	1.014	1689232	WORD_OFF	n/a	n/a	CRANE	11	12	[0, 0, 0]	n/a	FR1	0	R1346T
2180.895	1.636	1690246	WORD	n/a	wordpools/wordpool_EN.txt	SNAKE	12	12	[0, 0, 0]	n/a	FR1	0	R1346T
2182.531	0.001	1691881	WORD_OFF	n/a	n/a	SNAKE	12	12	[0, 0, 0]	n/a	FR1	0	R1346T
2182.532	0.0	1691882	ENCODING_END	n/a	n/a	n/a	-999	12	[0, 0, 0]	n/a	FR1	0	R1346T
2182.532	0.0	1691882	DISTRACT_START	n/a	n/a	n/a	-999	12	[0, 0, 0]	n/a	FR1	0	R1346T
2182.532	0.016	1691882	START	n/a	n/a	n/a	-999	12	[-999, -999, -999]	n/a	FR1	0	R1346T
2182.548	5.501	1691898	PROB	5.501	n/a	n/a	-999	12	[4, 6, 9]	19	FR1	0	R1346T
2188.049	6.151	1697399	PROB	6.151	n/a	n/a	-999	12	[6, 1, 9]	16	FR1	0	R1346T
2194.2	6.701	1703550	PROB	6.701	n/a	n/a	-999	12	[4, 7, 5]	16	FR1	0	R1346T
2200.901	5.49	1710251	PROB	5.49	n/a	n/a	-999	12	[5, 3, 8]	16	FR1	0	R1346T
2206.391	0.011	1715740	STOP	n/a	n/a	n/a	-999	12	[-999, -999, -999]	n/a	FR1	0	R1346T
2206.402	0.574	1715751	DISTRACT_END	n/a	n/a	n/a	-999	12	[0, 0, 0]	n/a	FR1	0	R1346T
2206.976	1.643	1716325	RETRIEVAL_ORIENT_START	n/a	n/a	n/a	-999	12	[0, 0, 0]	n/a	FR1	0	R1346T
2208.619	0.001	1717968	RETRIEVAL_ORIENT_END	n/a	n/a	n/a	-999	12	[0, 0, 0]	n/a	FR1	0	R1346T
2208.62	3.532	1717969	REC_START	n/a	n/a	n/a	-999	12	[0, 0, 0]	n/a	FR1	0	R1346T
2212.152	1.986	1721501	REC_WORD	1.986	n/a	CHALK	3	12	[0, 0, 0]	n/a	FR1	0	R1346T
2214.138	1.929	1723487	REC_WORD	1.929	n/a	WOOD	4	12	[0, 0, 0]	n/a	FR1	0	R1346T
2216.067	22.563	1725416	REC_WORD	22.563	n/a	STONE	1	12	[0, 0, 0]	n/a	FR1	0	R1346T
2238.63	0.0	1747978	REC_END	n/a	n/a	n/a	-999	12	[0, 0, 0]	n/a	FR1	0	R1346T
2238.63	0.014	1747978	TRIAL_END	n/a	n/a	n/a	-999	12	[0, 0, 0]	n/a	FR1	0	R1346T
2238.644	0.0	1747992	TRIAL_START	n/a	n/a	n/a	-999	13	[0, 0, 0]	n/a	FR1	0	R1346T
2238.644	0.0	1747992	TRIAL	n/a	n/a	n/a	-999	13	[0, 0, 0]	n/a	FR1	0	R1346T
2238.644	4.415	1747992	WAITING_START	n/a	n/a	n/a	-999	13	[0, 0, 0]	n/a	FR1	0	R1346T
2243.059	0.0	1752407	COUNTDOWN_START	n/a	n/a	n/a	-999	13	[0, 0, 0]	n/a	FR1	0	R1346T
2243.059	10.43	1752407	WAITING_END	n/a	n/a	n/a	-999	13	[0, 0, 0]	n/a	FR1	0	R1346T
2253.489	0.001	1762836	COUNTDOWN_END	n/a	n/a	n/a	-999	13	[0, 0, 0]	n/a	FR1	0	R1346T
2253.49	1.021	1762837	ORIENT_START	n/a	n/a	n/a	-999	13	[0, 0, 0]	n/a	FR1	0	R1346T
2254.511	0.001	1763858	ORIENT_END	n/a	n/a	n/a	-999	13	[0, 0, 0]	n/a	FR1	0	R1346T
2254.512	0.999	1763859	ENCODING_START	n/a	n/a	n/a	-999	13	[0, 0, 0]	n/a	FR1	0	R1346T
2255.511	1.634	1764858	WORD	n/a	wordpools/wordpool_EN.txt	MOON	1	13	[0, 0, 0]	n/a	FR1	0	R1346T
2257.145	1.081	1766492	WORD_OFF	n/a	n/a	MOON	1	13	[0, 0, 0]	n/a	FR1	0	R1346T
2258.226	1.636	1767573	WORD	n/a	wordpools/wordpool_EN.txt	JAR	2	13	[0, 0, 0]	n/a	FR1	0	R1346T
2259.862	0.793	1769209	WORD_OFF	n/a	n/a	JAR	2	13	[0, 0, 0]	n/a	FR1	0	R1346T
2260.655	1.623	1770002	WORD	n/a	wordpools/wordpool_EN.txt	STREET	3	13	[0, 0, 0]	n/a	FR1	0	R1346T
2262.278	1.135	1771625	WORD_OFF	n/a	n/a	STREET	3	13	[0, 0, 0]	n/a	FR1	0	R1346T
2263.413	1.633	1772760	WORD	n/a	wordpools/wordpool_EN.txt	PHONE	4	13	[0, 0, 0]	n/a	FR1	0	R1346T
2265.046	0.906	1774393	WORD_OFF	n/a	n/a	PHONE	4	13	[0, 0, 0]	n/a	FR1	0	R1346T
2265.952	1.628	1775299	WORD	n/a	wordpools/wordpool_EN.txt	BOX	5	13	[0, 0, 0]	n/a	FR1	0	R1346T
2267.58	0.85	1776927	WORD_OFF	n/a	n/a	BOX	5	13	[0, 0, 0]	n/a	FR1	0	R1346T
2268.43	1.634	1777776	WORD	n/a	wordpools/wordpool_EN.txt	FOOD	6	13	[0, 0, 0]	n/a	FR1	0	R1346T
2270.064	1.034	1779410	WORD_OFF	n/a	n/a	FOOD	6	13	[0, 0, 0]	n/a	FR1	0	R1346T
2271.098	1.633	1780444	WORD	n/a	wordpools/wordpool_EN.txt	VASE	7	13	[0, 0, 0]	n/a	FR1	0	R1346T
2272.731	1.023	1782077	WORD_OFF	n/a	n/a	VASE	7	13	[0, 0, 0]	n/a	FR1	0	R1346T
2273.754	1.628	1783100	WORD	n/a	wordpools/wordpool_EN.txt	BOOT	8	13	[0, 0, 0]	n/a	FR1	0	R1346T
2275.382	0.766	1784728	WORD_OFF	n/a	n/a	BOOT	8	13	[0, 0, 0]	n/a	FR1	0	R1346T
2276.148	1.634	1785494	WORD	n/a	wordpools/wordpool_EN.txt	BATH	9	13	[0, 0, 0]	n/a	FR1	0	R1346T
2277.782	1.07	1787128	WORD_OFF	n/a	n/a	BATH	9	13	[0, 0, 0]	n/a	FR1	0	R1346T
2278.852	1.63	1788198	WORD	n/a	wordpools/wordpool_EN.txt	LAKE	10	13	[0, 0, 0]	n/a	FR1	0	R1346T
2280.482	0.808	1789828	WORD_OFF	n/a	n/a	LAKE	10	13	[0, 0, 0]	n/a	FR1	0	R1346T
2281.29	1.626	1790636	WORD	n/a	wordpools/wordpool_EN.txt	CHIEF	11	13	[0, 0, 0]	n/a	FR1	0	R1346T
2282.916	0.833	1792262	WORD_OFF	n/a	n/a	CHIEF	11	13	[0, 0, 0]	n/a	FR1	0	R1346T
2283.749	1.634	1793095	WORD	n/a	wordpools/wordpool_EN.txt	SUIT	12	13	[0, 0, 0]	n/a	FR1	0	R1346T
2285.383	0.001	1794729	WORD_OFF	n/a	n/a	SUIT	12	13	[0, 0, 0]	n/a	FR1	0	R1346T
2285.384	0.0	1794730	ENCODING_END	n/a	n/a	n/a	-999	13	[0, 0, 0]	n/a	FR1	0	R1346T
2285.384	0.0	1794730	DISTRACT_START	n/a	n/a	n/a	-999	13	[0, 0, 0]	n/a	FR1	0	R1346T
2285.384	0.016	1794730	START	n/a	n/a	n/a	-999	13	[-999, -999, -999]	n/a	FR1	0	R1346T
2285.4	7.084	1794746	PROB	7.084	n/a	n/a	-999	13	[9, 4, 8]	21	FR1	0	R1346T
2292.484	7.602	1801829	PROB	7.602	n/a	n/a	-999	13	[7, 8, 5]	20	FR1	0	R1346T
2300.086	6.73	1809431	PROB	6.73	n/a	n/a	-999	13	[5, 9, 2]	16	FR1	0	R1346T
2306.816	0.021	1816161	STOP	n/a	n/a	n/a	-999	13	[-999, -999, -999]	n/a	FR1	0	R1346T
2306.837	0.604	1816182	DISTRACT_END	n/a	n/a	n/a	-999	13	[0, 0, 0]	n/a	FR1	0	R1346T
2307.441	1.647	1816786	RETRIEVAL_ORIENT_START	n/a	n/a	n/a	-999	13	[0, 0, 0]	n/a	FR1	0	R1346T
2309.088	0.0	1818433	RETRIEVAL_ORIENT_END	n/a	n/a	n/a	-999	13	[0, 0, 0]	n/a	FR1	0	R1346T
2309.088	6.252	1818433	REC_START	n/a	n/a	n/a	-999	13	[0, 0, 0]	n/a	FR1	0	R1346T
2315.34	1.19	1824684	REC_WORD	1.19	n/a	BASS	-999	13	[0, 0, 0]	n/a	FR1	0	R1346T
2316.53	1.457	1825874	REC_WORD	1.457	n/a	LAKE	10	13	[0, 0, 0]	n/a	FR1	0	R1346T
2317.987	2.198	1827331	REC_WORD	2.198	n/a	CHIEF	11	13	[0, 0, 0]	n/a	FR1	0	R1346T
2320.185	10.275	1829529	REC_WORD	10.275	n/a	MOON	1	13	[0, 0, 0]	n/a	FR1	0	R1346T
2330.46	8.639	1839804	REC_WORD	8.639	n/a	CHALK	-999	13	[0, 0, 0]	n/a	FR1	0	R1346T
2339.099	0.0	1848442	REC_END	n/a	n/a	n/a	-999	13	[0, 0, 0]	n/a	FR1	0	R1346T
2339.099	0.016	1848442	TRIAL_END	n/a	n/a	n/a	-999	13	[0, 0, 0]	n/a	FR1	0	R1346T
2339.115	0.001	1848458	TRIAL_START	n/a	n/a	n/a	-999	14	[0, 0, 0]	n/a	FR1	0	R1346T
2339.116	0.0	1848459	TRIAL	n/a	n/a	n/a	-999	14	[0, 0, 0]	n/a	FR1	0	R1346T
2339.116	4.028	1848459	WAITING_START	n/a	n/a	n/a	-999	14	[0, 0, 0]	n/a	FR1	0	R1346T
2343.144	0.0	1852487	COUNTDOWN_START	n/a	n/a	n/a	-999	14	[0, 0, 0]	n/a	FR1	0	R1346T
2343.144	10.429	1852487	WAITING_END	n/a	n/a	n/a	-999	14	[0, 0, 0]	n/a	FR1	0	R1346T
2353.573	0.0	1862916	COUNTDOWN_END	n/a	n/a	n/a	-999	14	[0, 0, 0]	n/a	FR1	0	R1346T
2353.573	1.156	1862916	ORIENT_START	n/a	n/a	n/a	-999	14	[0, 0, 0]	n/a	FR1	0	R1346T
2354.729	0.001	1864071	ORIENT_END	n/a	n/a	n/a	-999	14	[0, 0, 0]	n/a	FR1	0	R1346T
2354.73	1.065	1864072	ENCODING_START	n/a	n/a	n/a	-999	14	[0, 0, 0]	n/a	FR1	0	R1346T
2355.795	1.635	1865137	WORD	n/a	wordpools/wordpool_EN.txt	SHIP	1	14	[0, 0, 0]	n/a	FR1	0	R1346T
2357.43	1.012	1866772	WORD_OFF	n/a	n/a	SHIP	1	14	[0, 0, 0]	n/a	FR1	0	R1346T
2358.442	1.638	1867784	WORD	n/a	wordpools/wordpool_EN.txt	CORD	2	14	[0, 0, 0]	n/a	FR1	0	R1346T
2360.08	0.959	1869422	WORD_OFF	n/a	n/a	CORD	2	14	[0, 0, 0]	n/a	FR1	0	R1346T
2361.039	1.625	1870381	WORD	n/a	wordpools/wordpool_EN.txt	KITE	3	14	[0, 0, 0]	n/a	FR1	0	R1346T
2362.664	0.931	1872006	WORD_OFF	n/a	n/a	KITE	3	14	[0, 0, 0]	n/a	FR1	0	R1346T
2363.595	1.636	1872937	WORD	n/a	wordpools/wordpool_EN.txt	SPEAR	4	14	[0, 0, 0]	n/a	FR1	0	R1346T
2365.231	0.909	1874573	WORD_OFF	n/a	n/a	SPEAR	4	14	[0, 0, 0]	n/a	FR1	0	R1346T
2366.14	1.625	1875482	WORD	n/a	wordpools/wordpool_EN.txt	OWL	5	14	[0, 0, 0]	n/a	FR1	0	R1346T
2367.765	1.023	1877107	WORD_OFF	n/a	n/a	OWL	5	14	[0, 0, 0]	n/a	FR1	0	R1346T
2368.788	1.627	1878130	WORD	n/a	wordpools/wordpool_EN.txt	YARD	6	14	[0, 0, 0]	n/a	FR1	0	R1346T
2370.415	0.969	1879757	WORD_OFF	n/a	n/a	YARD	6	14	[0, 0, 0]	n/a	FR1	0	R1346T
2371.384	1.632	1880726	WORD	n/a	wordpools/wordpool_EN.txt	DITCH	7	14	[0, 0, 0]	n/a	FR1	0	R1346T
2373.016	0.898	1882358	WORD_OFF	n/a	n/a	DITCH	7	14	[0, 0, 0]	n/a	FR1	0	R1346T
2373.914	1.636	1883256	WORD	n/a	wordpools/wordpool_EN.txt	FACE	8	14	[0, 0, 0]	n/a	FR1	0	R1346T
2375.55	1.075	1884891	WORD_OFF	n/a	n/a	FACE	8	14	[0, 0, 0]	n/a	FR1	0	R1346T
2376.625	1.625	1885966	WORD	n/a	wordpools/wordpool_EN.txt	FLOOR	9	14	[0, 0, 0]	n/a	FR1	0	R1346T
2378.25	0.93	1887591	WORD_OFF	n/a	n/a	FLOOR	9	14	[0, 0, 0]	n/a	FR1	0	R1346T
2379.18	1.637	1888521	WORD	n/a	wordpools/wordpool_EN.txt	PANTS	10	14	[0, 0, 0]	n/a	FR1	0	R1346T
2380.817	1.139	1890158	WORD_OFF	n/a	n/a	PANTS	10	14	[0, 0, 0]	n/a	FR1	0	R1346T
2381.956	1.628	1891297	WORD	n/a	wordpools/wordpool_EN.txt	PURSE	11	14	[0, 0, 0]	n/a	FR1	0	R1346T
2383.584	0.755	1892925	WORD_OFF	n/a	n/a	PURSE	11	14	[0, 0, 0]	n/a	FR1	0	R1346T
2384.339	1.629	1893680	WORD	n/a	wordpools/wordpool_EN.txt	MUG	12	14	[0, 0, 0]	n/a	FR1	0	R1346T
2385.968	0.001	1895309	WORD_OFF	n/a	n/a	MUG	12	14	[0, 0, 0]	n/a	FR1	0	R1346T
2385.969	0.0	1895310	ENCODING_END	n/a	n/a	n/a	-999	14	[0, 0, 0]	n/a	FR1	0	R1346T
2385.969	0.0	1895310	DISTRACT_START	n/a	n/a	n/a	-999	14	[0, 0, 0]	n/a	FR1	0	R1346T
2385.969	0.016	1895310	START	n/a	n/a	n/a	-999	14	[-999, -999, -999]	n/a	FR1	0	R1346T
2385.985	6.067	1895326	PROB	6.067	n/a	n/a	-999	14	[8, 2, 6]	16	FR1	0	R1346T
2392.052	5.418	1901393	PROB	5.418	n/a	n/a	-999	14	[2, 9, 9]	20	FR1	0	R1346T
2397.47	4.401	1906810	PROB	4.401	n/a	n/a	-999	14	[4, 6, 8]	18	FR1	0	R1346T
2401.871	7.404	1911211	PROB	7.404	n/a	n/a	-999	14	[1, 9, 4]	14	FR1	0	R1346T
2409.275	0.013	1918615	STOP	n/a	n/a	n/a	-999	14	[-999, -999, -999]	n/a	FR1	0	R1346T
2409.288	0.516	1918628	DISTRACT_END	n/a	n/a	n/a	-999	14	[0, 0, 0]	n/a	FR1	0	R1346T
2409.804	1.685	1919144	RETRIEVAL_ORIENT_START	n/a	n/a	n/a	-999	14	[0, 0, 0]	n/a	FR1	0	R1346T
2411.489	0.001	1920829	RETRIEVAL_ORIENT_END	n/a	n/a	n/a	-999	14	[0, 0, 0]	n/a	FR1	0	R1346T
2411.49	6.17	1920830	REC_START	n/a	n/a	n/a	-999	14	[0, 0, 0]	n/a	FR1	0	R1346T
2417.66	2.344	1927000	REC_WORD	2.344	n/a	OWL	5	14	[0, 0, 0]	n/a	FR1	0	R1346T
2420.004	2.812	1929343	REC_WORD	2.812	n/a	DITCH	7	14	[0, 0, 0]	n/a	FR1	0	R1346T
2422.816	7.681	1932155	REC_WORD	7.681	n/a	MUD	-999	14	[0, 0, 0]	n/a	FR1	0	R1346T
2430.497	7.741	1939836	REC_WORD	7.741	n/a	DIRT	-999	14	[0, 0, 0]	n/a	FR1	0	R1346T
2438.238	3.263	1947577	REC_WORD	3.263	n/a	SPEAR	4	14	[0, 0, 0]	n/a	FR1	0	R1346T
2441.501	0.0	1950839	REC_END	n/a	n/a	n/a	-999	14	[0, 0, 0]	n/a	FR1	0	R1346T
2441.501	0.016	1950839	TRIAL_END	n/a	n/a	n/a	-999	14	[0, 0, 0]	n/a	FR1	0	R1346T
2441.517	0.0	1950855	TRIAL_START	n/a	n/a	n/a	-999	15	[0, 0, 0]	n/a	FR1	0	R1346T
2441.517	0.0	1950855	TRIAL	n/a	n/a	n/a	-999	15	[0, 0, 0]	n/a	FR1	0	R1346T
2441.517	3.912	1950855	WAITING_START	n/a	n/a	n/a	-999	15	[0, 0, 0]	n/a	FR1	0	R1346T
2445.429	0.0	1954767	COUNTDOWN_START	n/a	n/a	n/a	-999	15	[0, 0, 0]	n/a	FR1	0	R1346T
2445.429	10.43	1954767	WAITING_END	n/a	n/a	n/a	-999	15	[0, 0, 0]	n/a	FR1	0	R1346T
2455.859	0.0	1965197	COUNTDOWN_END	n/a	n/a	n/a	-999	15	[0, 0, 0]	n/a	FR1	0	R1346T
2455.859	1.172	1965197	ORIENT_START	n/a	n/a	n/a	-999	15	[0, 0, 0]	n/a	FR1	0	R1346T
2457.031	0.0	1966369	ORIENT_END	n/a	n/a	n/a	-999	15	[0, 0, 0]	n/a	FR1	0	R1346T
2457.031	0.976	1966369	ENCODING_START	n/a	n/a	n/a	-999	15	[0, 0, 0]	n/a	FR1	0	R1346T
2458.007	1.625	1967345	WORD	n/a	wordpools/wordpool_EN.txt	VEST	1	15	[0, 0, 0]	n/a	FR1	0	R1346T
2459.632	0.822	1968970	WORD_OFF	n/a	n/a	VEST	1	15	[0, 0, 0]	n/a	FR1	0	R1346T
2460.454	1.628	1969792	WORD	n/a	wordpools/wordpool_EN.txt	PIE	2	15	[0, 0, 0]	n/a	FR1	0	R1346T
2462.082	0.852	1971419	WORD_OFF	n/a	n/a	PIE	2	15	[0, 0, 0]	n/a	FR1	0	R1346T
2462.934	1.632	1972271	WORD	n/a	wordpools/wordpool_EN.txt	CAKE	3	15	[0, 0, 0]	n/a	FR1	0	R1346T
2464.566	0.765	1973903	WORD_OFF	n/a	n/a	CAKE	3	15	[0, 0, 0]	n/a	FR1	0	R1346T
2465.331	1.635	1974668	WORD	n/a	wordpools/wordpool_EN.txt	BOY	4	15	[0, 0, 0]	n/a	FR1	0	R1346T
2466.966	1.137	1976303	WORD_OFF	n/a	n/a	BOY	4	15	[0, 0, 0]	n/a	FR1	0	R1346T
2468.103	1.63	1977440	WORD	n/a	wordpools/wordpool_EN.txt	TIE	5	15	[0, 0, 0]	n/a	FR1	0	R1346T
2469.733	0.881	1979070	WORD_OFF	n/a	n/a	TIE	5	15	[0, 0, 0]	n/a	FR1	0	R1346T
2470.614	1.636	1979951	WORD	n/a	wordpools/wordpool_EN.txt	MAT	6	15	[0, 0, 0]	n/a	FR1	0	R1346T
2472.25	0.952	1981587	WORD_OFF	n/a	n/a	MAT	6	15	[0, 0, 0]	n/a	FR1	0	R1346T
2473.202	1.632	1982539	WORD	n/a	wordpools/wordpool_EN.txt	MOTH	7	15	[0, 0, 0]	n/a	FR1	0	R1346T
2474.834	0.95	1984171	WORD_OFF	n/a	n/a	MOTH	7	15	[0, 0, 0]	n/a	FR1	0	R1346T
2475.784	1.634	1985121	WORD	n/a	wordpools/wordpool_EN.txt	CHIN	8	15	[0, 0, 0]	n/a	FR1	0	R1346T
2477.418	0.785	1986755	WORD_OFF	n/a	n/a	CHIN	8	15	[0, 0, 0]	n/a	FR1	0	R1346T
2478.203	1.632	1987540	WORD	n/a	wordpools/wordpool_EN.txt	COIN	9	15	[0, 0, 0]	n/a	FR1	0	R1346T
2479.835	0.853	1989172	WORD_OFF	n/a	n/a	COIN	9	15	[0, 0, 0]	n/a	FR1	0	R1346T
2480.688	1.63	1990025	WORD	n/a	wordpools/wordpool_EN.txt	BOAT	10	15	[0, 0, 0]	n/a	FR1	0	R1346T
2482.318	0.846	1991655	WORD_OFF	n/a	n/a	BOAT	10	15	[0, 0, 0]	n/a	FR1	0	R1346T
2483.164	1.622	1992500	WORD	n/a	wordpools/wordpool_EN.txt	CUP	11	15	[0, 0, 0]	n/a	FR1	0	R1346T
2484.786	0.979	1994122	WORD_OFF	n/a	n/a	CUP	11	15	[0, 0, 0]	n/a	FR1	0	R1346T
2485.765	1.622	1995101	WORD	n/a	wordpools/wordpool_EN.txt	TOAD	12	15	[0, 0, 0]	n/a	FR1	0	R1346T
2487.387	0.0	1996723	DISTRACT_START	n/a	n/a	n/a	-999	15	[0, 0, 0]	n/a	FR1	0	R1346T
2487.387	0.0	1996723	ENCODING_END	n/a	n/a	n/a	-999	15	[0, 0, 0]	n/a	FR1	0	R1346T
2487.387	0.0	1996723	WORD_OFF	n/a	n/a	TOAD	12	15	[0, 0, 0]	n/a	FR1	0	R1346T
2487.387	0.016	1996723	START	n/a	n/a	n/a	-999	15	[-999, -999, -999]	n/a	FR1	0	R1346T
2487.403	8.385	1996739	PROB	8.385	n/a	n/a	-999	15	[5, 6, 1]	12	FR1	0	R1346T
2495.788	5.384	2005124	PROB	5.384	n/a	n/a	-999	15	[6, 8, 1]	15	FR1	0	R1346T
2501.172	5.1	2010508	PROB	5.1	n/a	n/a	-999	15	[2, 4, 9]	15	FR1	0	R1346T
2506.272	6.316	2015607	PROB	6.316	n/a	n/a	-999	15	[5, 8, 3]	16	FR1	0	R1346T
2512.588	0.02	2021923	STOP	n/a	n/a	n/a	-999	15	[-999, -999, -999]	n/a	FR1	0	R1346T
2512.608	0.624	2021943	DISTRACT_END	n/a	n/a	n/a	-999	15	[0, 0, 0]	n/a	FR1	0	R1346T
2513.232	1.626	2022567	RETRIEVAL_ORIENT_START	n/a	n/a	n/a	-999	15	[0, 0, 0]	n/a	FR1	0	R1346T
2514.858	0.001	2024193	RETRIEVAL_ORIENT_END	n/a	n/a	n/a	-999	15	[0, 0, 0]	n/a	FR1	0	R1346T
2514.859	2.282	2024194	REC_START	n/a	n/a	n/a	-999	15	[0, 0, 0]	n/a	FR1	0	R1346T
2517.141	1.675	2026476	REC_WORD	1.675	n/a	PIE	2	15	[0, 0, 0]	n/a	FR1	0	R1346T
2518.816	1.567	2028151	REC_WORD	1.567	n/a	BOY	4	15	[0, 0, 0]	n/a	FR1	0	R1346T
2520.383	1.636	2029718	REC_WORD	1.636	n/a	TIE	5	15	[0, 0, 0]	n/a	FR1	0	R1346T
2522.019	2.756	2031354	REC_WORD	2.756	n/a	CAKE	3	15	[0, 0, 0]	n/a	FR1	0	R1346T
2524.775	4.946	2034110	REC_WORD	4.946	n/a	CHIN	8	15	[0, 0, 0]	n/a	FR1	0	R1346T
2529.721	1.675	2039055	REC_WORD	1.675	n/a	MOTH	7	15	[0, 0, 0]	n/a	FR1	0	R1346T
2531.396	13.474	2040730	REC_WORD	13.474	n/a	MAT	6	15	[0, 0, 0]	n/a	FR1	0	R1346T
2544.87	0.0	2054204	REC_END	n/a	n/a	n/a	-999	15	[0, 0, 0]	n/a	FR1	0	R1346T
2544.87	0.016	2054204	TRIAL_END	n/a	n/a	n/a	-999	15	[0, 0, 0]	n/a	FR1	0	R1346T
2544.886	0.001	2054220	TRIAL_START	n/a	n/a	n/a	-999	16	[0, 0, 0]	n/a	FR1	0	R1346T
2544.887	0.0	2054221	TRIAL	n/a	n/a	n/a	-999	16	[0, 0, 0]	n/a	FR1	0	R1346T
2544.887	9.262	2054221	WAITING_START	n/a	n/a	n/a	-999	16	[0, 0, 0]	n/a	FR1	0	R1346T
2554.149	0.0	2063482	COUNTDOWN_START	n/a	n/a	n/a	-999	16	[0, 0, 0]	n/a	FR1	0	R1346T
2554.149	10.429	2063482	WAITING_END	n/a	n/a	n/a	-999	16	[0, 0, 0]	n/a	FR1	0	R1346T
2564.578	0.001	2073911	COUNTDOWN_END	n/a	n/a	n/a	-999	16	[0, 0, 0]	n/a	FR1	0	R1346T
2564.579	1.055	2073912	ORIENT_START	n/a	n/a	n/a	-999	16	[0, 0, 0]	n/a	FR1	0	R1346T
2565.634	0.001	2074967	ORIENT_END	n/a	n/a	n/a	-999	16	[0, 0, 0]	n/a	FR1	0	R1346T
2565.635	0.919	2074968	ENCODING_START	n/a	n/a	n/a	-999	16	[0, 0, 0]	n/a	FR1	0	R1346T
2566.554	1.631	2075887	WORD	n/a	wordpools/wordpool_EN.txt	RICE	1	16	[0, 0, 0]	n/a	FR1	0	R1346T
2568.185	0.786	2077518	WORD_OFF	n/a	n/a	RICE	1	16	[0, 0, 0]	n/a	FR1	0	R1346T
2568.971	1.631	2078303	WORD	n/a	wordpools/wordpool_EN.txt	DRESS	2	16	[0, 0, 0]	n/a	FR1	0	R1346T
2570.602	0.958	2079934	WORD_OFF	n/a	n/a	DRESS	2	16	[0, 0, 0]	n/a	FR1	0	R1346T
2571.56	1.625	2080892	WORD	n/a	wordpools/wordpool_EN.txt	SLIME	3	16	[0, 0, 0]	n/a	FR1	0	R1346T
2573.185	0.905	2082517	WORD_OFF	n/a	n/a	SLIME	3	16	[0, 0, 0]	n/a	FR1	0	R1346T
2574.09	1.629	2083422	WORD	n/a	wordpools/wordpool_EN.txt	RAIN	4	16	[0, 0, 0]	n/a	FR1	0	R1346T
2575.719	0.965	2085051	WORD_OFF	n/a	n/a	RAIN	4	16	[0, 0, 0]	n/a	FR1	0	R1346T
2576.684	1.635	2086016	WORD	n/a	wordpools/wordpool_EN.txt	HILL	5	16	[0, 0, 0]	n/a	FR1	0	R1346T
2578.319	0.794	2087651	WORD_OFF	n/a	n/a	HILL	5	16	[0, 0, 0]	n/a	FR1	0	R1346T
2579.113	1.624	2088445	WORD	n/a	wordpools/wordpool_EN.txt	JET	6	16	[0, 0, 0]	n/a	FR1	0	R1346T
2580.737	1.032	2090069	WORD_OFF	n/a	n/a	JET	6	16	[0, 0, 0]	n/a	FR1	0	R1346T
2581.769	1.635	2091101	WORD	n/a	wordpools/wordpool_EN.txt	PEAR	7	16	[0, 0, 0]	n/a	FR1	0	R1346T
2583.404	0.82	2092736	WORD_OFF	n/a	n/a	PEAR	7	16	[0, 0, 0]	n/a	FR1	0	R1346T
2584.224	1.63	2093556	WORD	n/a	wordpools/wordpool_EN.txt	ZOO	8	16	[0, 0, 0]	n/a	FR1	0	R1346T
2585.854	0.86	2095186	WORD_OFF	n/a	n/a	ZOO	8	16	[0, 0, 0]	n/a	FR1	0	R1346T
2586.714	1.624	2096046	WORD	n/a	wordpools/wordpool_EN.txt	MOUTH	9	16	[0, 0, 0]	n/a	FR1	0	R1346T
2588.338	1.143	2097670	WORD_OFF	n/a	n/a	MOUTH	9	16	[0, 0, 0]	n/a	FR1	0	R1346T
2589.481	1.624	2098813	WORD	n/a	wordpools/wordpool_EN.txt	CANE	10	16	[0, 0, 0]	n/a	FR1	0	R1346T
2591.105	0.815	2100436	WORD_OFF	n/a	n/a	CANE	10	16	[0, 0, 0]	n/a	FR1	0	R1346T
2591.92	1.636	2101251	WORD	n/a	wordpools/wordpool_EN.txt	CORN	11	16	[0, 0, 0]	n/a	FR1	0	R1346T
2593.556	1.067	2102887	WORD_OFF	n/a	n/a	CORN	11	16	[0, 0, 0]	n/a	FR1	0	R1346T
2594.623	1.633	2103954	WORD	n/a	wordpools/wordpool_EN.txt	BOMB	12	16	[0, 0, 0]	n/a	FR1	0	R1346T
2596.256	0.001	2105587	WORD_OFF	n/a	n/a	BOMB	12	16	[0, 0, 0]	n/a	FR1	0	R1346T
2596.257	0.0	2105588	ENCODING_END	n/a	n/a	n/a	-999	16	[0, 0, 0]	n/a	FR1	0	R1346T
2596.257	0.0	2105588	DISTRACT_START	n/a	n/a	n/a	-999	16	[0, 0, 0]	n/a	FR1	0	R1346T
2596.257	0.015	2105588	START	n/a	n/a	n/a	-999	16	[-999, -999, -999]	n/a	FR1	0	R1346T
2596.272	9.286	2105603	PROB	9.286	n/a	n/a	-999	16	[8, 3, 9]	20	FR1	0	R1346T
2605.558	7.384	2114889	PROB	7.384	n/a	n/a	-999	16	[4, 3, 5]	12	FR1	0	R1346T
2612.942	4.666	2122272	PROB	4.666	n/a	n/a	-999	16	[1, 1, 5]	7	FR1	0	R1346T
2617.608	0.019	2126938	STOP	n/a	n/a	n/a	-999	16	[-999, -999, -999]	n/a	FR1	0	R1346T
2617.627	0.685	2126957	DISTRACT_END	n/a	n/a	n/a	-999	16	[0, 0, 0]	n/a	FR1	0	R1346T
2618.312	1.582	2127642	RETRIEVAL_ORIENT_START	n/a	n/a	n/a	-999	16	[0, 0, 0]	n/a	FR1	0	R1346T
2619.894	0.0	2129224	RETRIEVAL_ORIENT_END	n/a	n/a	n/a	-999	16	[0, 0, 0]	n/a	FR1	0	R1346T
2619.894	1.971	2129224	REC_START	n/a	n/a	n/a	-999	16	[0, 0, 0]	n/a	FR1	0	R1346T
2621.865	21.978	2131195	REC_WORD	21.978	n/a	BOMB	12	16	[0, 0, 0]	n/a	FR1	0	R1346T
2643.843	6.063	2153172	REC_WORD	6.063	n/a	CAMEL	-999	16	[0, 0, 0]	n/a	FR1	0	R1346T
2649.906	0.0	2159235	TRIAL_END	n/a	n/a	n/a	-999	16	[0, 0, 0]	n/a	FR1	0	R1346T
2649.906	0.014	2159235	REC_END	n/a	n/a	n/a	-999	16	[0, 0, 0]	n/a	FR1	0	R1346T
2649.92	0.0	2159249	TRIAL_START	n/a	n/a	n/a	-999	17	[0, 0, 0]	n/a	FR1	0	R1346T
2649.92	0.0	2159249	TRIAL	n/a	n/a	n/a	-999	17	[0, 0, 0]	n/a	FR1	0	R1346T
2649.92	9.448	2159249	WAITING_START	n/a	n/a	n/a	-999	17	[0, 0, 0]	n/a	FR1	0	R1346T
2659.368	0.0	2168696	WAITING_END	n/a	n/a	n/a	-999	17	[0, 0, 0]	n/a	FR1	0	R1346T
2659.368	10.429	2168696	COUNTDOWN_START	n/a	n/a	n/a	-999	17	[0, 0, 0]	n/a	FR1	0	R1346T
2669.797	0.001	2179125	COUNTDOWN_END	n/a	n/a	n/a	-999	17	[0, 0, 0]	n/a	FR1	0	R1346T
2669.798	1.022	2179126	ORIENT_START	n/a	n/a	n/a	-999	17	[0, 0, 0]	n/a	FR1	0	R1346T
2670.82	0.0	2180148	ENCODING_START	n/a	n/a	n/a	-999	17	[0, 0, 0]	n/a	FR1	0	R1346T
2670.82	0.843	2180148	ORIENT_END	n/a	n/a	n/a	-999	17	[0, 0, 0]	n/a	FR1	0	R1346T
2671.663	1.623	2180991	WORD	n/a	wordpools/wordpool_EN.txt	CAPE	1	17	[0, 0, 0]	n/a	FR1	0	R1346T
2673.286	0.895	2182614	WORD_OFF	n/a	n/a	CAPE	1	17	[0, 0, 0]	n/a	FR1	0	R1346T
2674.181	1.623	2183509	WORD	n/a	wordpools/wordpool_EN.txt	HEN	2	17	[0, 0, 0]	n/a	FR1	0	R1346T
2675.804	0.83	2185131	WORD_OFF	n/a	n/a	HEN	2	17	[0, 0, 0]	n/a	FR1	0	R1346T
2676.634	1.621	2185961	WORD	n/a	wordpools/wordpool_EN.txt	SHOE	3	17	[0, 0, 0]	n/a	FR1	0	R1346T
2678.255	0.993	2187582	WORD_OFF	n/a	n/a	SHOE	3	17	[0, 0, 0]	n/a	FR1	0	R1346T
2679.248	1.624	2188575	WORD	n/a	wordpools/wordpool_EN.txt	FORK	4	17	[0, 0, 0]	n/a	FR1	0	R1346T
2680.872	1.133	2190199	WORD_OFF	n/a	n/a	FORK	4	17	[0, 0, 0]	n/a	FR1	0	R1346T
2682.005	1.634	2191332	WORD	n/a	wordpools/wordpool_EN.txt	PALM	5	17	[0, 0, 0]	n/a	FR1	0	R1346T
2683.639	0.827	2192966	WORD_OFF	n/a	n/a	PALM	5	17	[0, 0, 0]	n/a	FR1	0	R1346T
2684.466	1.623	2193793	WORD	n/a	wordpools/wordpool_EN.txt	THREAD	6	17	[0, 0, 0]	n/a	FR1	0	R1346T
2686.089	0.911	2195416	WORD_OFF	n/a	n/a	THREAD	6	17	[0, 0, 0]	n/a	FR1	0	R1346T
2687.0	1.623	2196327	WORD	n/a	wordpools/wordpool_EN.txt	LIP	7	17	[0, 0, 0]	n/a	FR1	0	R1346T
2688.623	0.796	2197950	WORD_OFF	n/a	n/a	LIP	7	17	[0, 0, 0]	n/a	FR1	0	R1346T
2689.419	1.621	2198746	WORD	n/a	wordpools/wordpool_EN.txt	FLUTE	8	17	[0, 0, 0]	n/a	FR1	0	R1346T
2691.04	1.081	2200367	WORD_OFF	n/a	n/a	FLUTE	8	17	[0, 0, 0]	n/a	FR1	0	R1346T
2692.121	1.636	2201448	WORD	n/a	wordpools/wordpool_EN.txt	DUCK	9	17	[0, 0, 0]	n/a	FR1	0	R1346T
2693.757	1.107	2203084	WORD_OFF	n/a	n/a	DUCK	9	17	[0, 0, 0]	n/a	FR1	0	R1346T
2694.864	1.627	2204191	WORD	n/a	wordpools/wordpool_EN.txt	PRINCE	10	17	[0, 0, 0]	n/a	FR1	0	R1346T
2696.491	0.902	2205818	WORD_OFF	n/a	n/a	PRINCE	10	17	[0, 0, 0]	n/a	FR1	0	R1346T
2697.393	1.632	2206719	WORD	n/a	wordpools/wordpool_EN.txt	HOUSE	11	17	[0, 0, 0]	n/a	FR1	0	R1346T
2699.025	1.001	2208351	WORD_OFF	n/a	n/a	HOUSE	11	17	[0, 0, 0]	n/a	FR1	0	R1346T
2700.026	1.633	2209352	WORD	n/a	wordpools/wordpool_EN.txt	CLAY	12	17	[0, 0, 0]	n/a	FR1	0	R1346T
2701.659	0.0	2210985	WORD_OFF	n/a	n/a	CLAY	12	17	[0, 0, 0]	n/a	FR1	0	R1346T
2701.659	0.001	2210985	ENCODING_END	n/a	n/a	n/a	-999	17	[0, 0, 0]	n/a	FR1	0	R1346T
2701.66	0.0	2210986	DISTRACT_START	n/a	n/a	n/a	-999	17	[0, 0, 0]	n/a	FR1	0	R1346T
2701.66	0.015	2210986	START	n/a	n/a	n/a	-999	17	[-999, -999, -999]	n/a	FR1	0	R1346T
2701.675	45.445	2211001	PROB	45.445	n/a	n/a	-999	17	[7, 9, 5]	21	FR1	0	R1346T
2747.12	0.014	2256444	STOP	n/a	n/a	n/a	-999	17	[-999, -999, -999]	n/a	FR1	0	R1346T
2747.134	0.574	2256458	DISTRACT_END	n/a	n/a	n/a	-999	17	[0, 0, 0]	n/a	FR1	0	R1346T
2747.708	1.676	2257032	RETRIEVAL_ORIENT_START	n/a	n/a	n/a	-999	17	[0, 0, 0]	n/a	FR1	0	R1346T
2749.384	0.0	2258708	RETRIEVAL_ORIENT_END	n/a	n/a	n/a	-999	17	[0, 0, 0]	n/a	FR1	0	R1346T
2749.384	22.119	2258708	REC_START	n/a	n/a	n/a	-999	17	[0, 0, 0]	n/a	FR1	0	R1346T
2771.503	1.737	2280826	REC_WORD	1.737	n/a	THREAD	6	17	[0, 0, 0]	n/a	FR1	0	R1346T
2773.24	1.899	2282563	REC_WORD	1.899	n/a	MOUSE	-999	17	[0, 0, 0]	n/a	FR1	0	R1346T
2775.139	4.255	2284462	REC_WORD	4.255	n/a	LIP	7	17	[0, 0, 0]	n/a	FR1	0	R1346T
2779.394	0.0	2288717	REC_END	n/a	n/a	n/a	-999	17	[0, 0, 0]	n/a	FR1	0	R1346T
2779.394	0.014	2288717	TRIAL_END	n/a	n/a	n/a	-999	17	[0, 0, 0]	n/a	FR1	0	R1346T
2779.408	0.0	2288731	TRIAL	n/a	n/a	n/a	-999	18	[0, 0, 0]	n/a	FR1	0	R1346T
2779.408	0.001	2288731	TRIAL_START	n/a	n/a	n/a	-999	18	[0, 0, 0]	n/a	FR1	0	R1346T
2779.409	414.722	2288732	WAITING_START	n/a	n/a	n/a	-999	18	[0, 0, 0]	n/a	FR1	0	R1346T
3194.131	0.0	2703434	WAITING_END	n/a	n/a	n/a	-999	18	[0, 0, 0]	n/a	FR1	0	R1346T
3194.131	10.428	2703434	COUNTDOWN_START	n/a	n/a	n/a	-999	18	[0, 0, 0]	n/a	FR1	0	R1346T
3204.559	0.0	2713862	COUNTDOWN_END	n/a	n/a	n/a	-999	18	[0, 0, 0]	n/a	FR1	0	R1346T
3204.559	1.191	2713862	ORIENT_START	n/a	n/a	n/a	-999	18	[0, 0, 0]	n/a	FR1	0	R1346T
3205.75	0.001	2715053	ORIENT_END	n/a	n/a	n/a	-999	18	[0, 0, 0]	n/a	FR1	0	R1346T
3205.751	0.786	2715054	ENCODING_START	n/a	n/a	n/a	-999	18	[0, 0, 0]	n/a	FR1	0	R1346T
3206.537	1.63	2715840	WORD	n/a	wordpools/wordpool_EN.txt	SEA	1	18	[0, 0, 0]	n/a	FR1	0	R1346T
3208.167	1.09	2717470	WORD_OFF	n/a	n/a	SEA	1	18	[0, 0, 0]	n/a	FR1	0	R1346T
3209.257	1.61	2718560	WORD	n/a	wordpools/wordpool_EN.txt	PEA	2	18	[0, 0, 0]	n/a	FR1	0	R1346T
3210.867	0.954	2720170	WORD_OFF	n/a	n/a	PEA	2	18	[0, 0, 0]	n/a	FR1	0	R1346T
3211.821	1.63	2721124	WORD	n/a	wordpools/wordpool_EN.txt	PET	3	18	[0, 0, 0]	n/a	FR1	0	R1346T
3213.451	0.924	2722753	WORD_OFF	n/a	n/a	PET	3	18	[0, 0, 0]	n/a	FR1	0	R1346T
3214.375	1.626	2723677	WORD	n/a	wordpools/wordpool_EN.txt	LOCK	4	18	[0, 0, 0]	n/a	FR1	0	R1346T
3216.001	1.124	2725303	WORD_OFF	n/a	n/a	LOCK	4	18	[0, 0, 0]	n/a	FR1	0	R1346T
3217.125	1.627	2726427	WORD	n/a	wordpools/wordpool_EN.txt	TOOTH	5	18	[0, 0, 0]	n/a	FR1	0	R1346T
3218.752	0.875	2728054	WORD_OFF	n/a	n/a	TOOTH	5	18	[0, 0, 0]	n/a	FR1	0	R1346T
3219.627	1.626	2728929	WORD	n/a	wordpools/wordpool_EN.txt	VINE	6	18	[0, 0, 0]	n/a	FR1	0	R1346T
3221.253	0.783	2730555	WORD_OFF	n/a	n/a	VINE	6	18	[0, 0, 0]	n/a	FR1	0	R1346T
3222.036	1.634	2731338	WORD	n/a	wordpools/wordpool_EN.txt	STAR	7	18	[0, 0, 0]	n/a	FR1	0	R1346T
3223.67	0.766	2732972	WORD_OFF	n/a	n/a	STAR	7	18	[0, 0, 0]	n/a	FR1	0	R1346T
3224.436	1.634	2733738	WORD	n/a	wordpools/wordpool_EN.txt	STOVE	8	18	[0, 0, 0]	n/a	FR1	0	R1346T
3226.07	1.15	2735372	WORD_OFF	n/a	n/a	STOVE	8	18	[0, 0, 0]	n/a	FR1	0	R1346T
3227.22	1.634	2736522	WORD	n/a	wordpools/wordpool_EN.txt	FAN	9	18	[0, 0, 0]	n/a	FR1	0	R1346T
3228.854	0.762	2738156	WORD_OFF	n/a	n/a	FAN	9	18	[0, 0, 0]	n/a	FR1	0	R1346T
3229.616	1.622	2738918	WORD	n/a	wordpools/wordpool_EN.txt	DART	10	18	[0, 0, 0]	n/a	FR1	0	R1346T
3231.238	0.871	2740540	WORD_OFF	n/a	n/a	DART	10	18	[0, 0, 0]	n/a	FR1	0	R1346T
3232.109	1.629	2741411	WORD	n/a	wordpools/wordpool_EN.txt	DESK	11	18	[0, 0, 0]	n/a	FR1	0	R1346T
3233.738	1.041	2743040	WORD_OFF	n/a	n/a	DESK	11	18	[0, 0, 0]	n/a	FR1	0	R1346T
3234.779	1.626	2744080	WORD	n/a	wordpools/wordpool_EN.txt	BEAN	12	18	[0, 0, 0]	n/a	FR1	0	R1346T
3236.405	0.001	2745706	WORD_OFF	n/a	n/a	BEAN	12	18	[0, 0, 0]	n/a	FR1	0	R1346T
3236.406	0.0	2745707	ENCODING_END	n/a	n/a	n/a	-999	18	[0, 0, 0]	n/a	FR1	0	R1346T
3236.406	0.0	2745707	DISTRACT_START	n/a	n/a	n/a	-999	18	[0, 0, 0]	n/a	FR1	0	R1346T
3236.406	0.016	2745707	START	n/a	n/a	n/a	-999	18	[-999, -999, -999]	n/a	FR1	0	R1346T
3236.422	6.084	2745723	PROB	6.084	n/a	n/a	-999	18	[3, 6, 9]	18	FR1	0	R1346T
3242.506	3.834	2751807	PROB	3.834	n/a	n/a	-999	18	[3, 2, 1]	6	FR1	0	R1346T
3246.34	3.384	2755641	PROB	3.384	n/a	n/a	-999	18	[1, 4, 5]	10	FR1	0	R1346T
3249.724	4.068	2759025	PROB	4.068	n/a	n/a	-999	18	[7, 7, 1]	15	FR1	0	R1346T
3253.792	6.129	2763093	PROB	6.129	n/a	n/a	-999	18	[9, 4, 7]	20	FR1	0	R1346T
3259.921	0.022	2769221	STOP	n/a	n/a	n/a	-999	18	[-999, -999, -999]	n/a	FR1	0	R1346T
3259.943	0.673	2769243	DISTRACT_END	n/a	n/a	n/a	-999	18	[0, 0, 0]	n/a	FR1	0	R1346T
3260.616	1.544	2769916	RETRIEVAL_ORIENT_START	n/a	n/a	n/a	-999	18	[0, 0, 0]	n/a	FR1	0	R1346T
3262.16	0.0	2771460	RETRIEVAL_ORIENT_END	n/a	n/a	n/a	-999	18	[0, 0, 0]	n/a	FR1	0	R1346T
3262.16	2.875	2771460	REC_START	n/a	n/a	n/a	-999	18	[0, 0, 0]	n/a	FR1	0	R1346T
3265.035	2.169	2774335	REC_WORD	2.169	n/a	SEA	1	18	[0, 0, 0]	n/a	FR1	0	R1346T
3267.204	4.847	2776504	REC_WORD	4.847	n/a	PET	3	18	[0, 0, 0]	n/a	FR1	0	R1346T
3272.051	11.363	2781351	REC_WORD	11.363	n/a	WOOD	-999	18	[0, 0, 0]	n/a	FR1	0	R1346T
3283.414	8.756	2792713	REC_WORD	8.756	n/a	VINE	6	18	[0, 0, 0]	n/a	FR1	0	R1346T
3292.17	0.0	2801469	REC_END	n/a	n/a	n/a	-999	18	[0, 0, 0]	n/a	FR1	0	R1346T
3292.17	0.014	2801469	TRIAL_END	n/a	n/a	n/a	-999	18	[0, 0, 0]	n/a	FR1	0	R1346T
3292.184	0.0	2801483	TRIAL	n/a	n/a	n/a	-999	19	[0, 0, 0]	n/a	FR1	0	R1346T
3292.184	0.001	2801483	TRIAL_START	n/a	n/a	n/a	-999	19	[0, 0, 0]	n/a	FR1	0	R1346T
3292.185	122.42	2801484	WAITING_START	n/a	n/a	n/a	-999	19	[0, 0, 0]	n/a	FR1	0	R1346T
3414.605	0.0	2923898	WAITING_END	n/a	n/a	n/a	-999	19	[0, 0, 0]	n/a	FR1	0	R1346T
3414.605	10.428	2923898	COUNTDOWN_START	n/a	n/a	n/a	-999	19	[0, 0, 0]	n/a	FR1	0	R1346T
3425.033	0.001	2934326	COUNTDOWN_END	n/a	n/a	n/a	-999	19	[0, 0, 0]	n/a	FR1	0	R1346T
3425.034	1.106	2934327	ORIENT_START	n/a	n/a	n/a	-999	19	[0, 0, 0]	n/a	FR1	0	R1346T
3426.14	0.0	2935433	ORIENT_END	n/a	n/a	n/a	-999	19	[0, 0, 0]	n/a	FR1	0	R1346T
3426.14	1.034	2935433	ENCODING_START	n/a	n/a	n/a	-999	19	[0, 0, 0]	n/a	FR1	0	R1346T
3427.174	1.633	2936466	WORD	n/a	wordpools/wordpool_EN.txt	PEACH	1	19	[0, 0, 0]	n/a	FR1	0	R1346T
3428.807	1.138	2938099	WORD_OFF	n/a	n/a	PEACH	1	19	[0, 0, 0]	n/a	FR1	0	R1346T
3429.945	1.629	2939237	WORD	n/a	wordpools/wordpool_EN.txt	APE	2	19	[0, 0, 0]	n/a	FR1	0	R1346T
3431.574	1.043	2940866	WORD_OFF	n/a	n/a	APE	2	19	[0, 0, 0]	n/a	FR1	0	R1346T
3432.617	1.624	2941909	WORD	n/a	wordpools/wordpool_EN.txt	BEACH	3	19	[0, 0, 0]	n/a	FR1	0	R1346T
3434.241	0.836	2943533	WORD_OFF	n/a	n/a	BEACH	3	19	[0, 0, 0]	n/a	FR1	0	R1346T
3435.077	1.631	2944369	WORD	n/a	wordpools/wordpool_EN.txt	SPARK	4	19	[0, 0, 0]	n/a	FR1	0	R1346T
3436.708	0.973	2946000	WORD_OFF	n/a	n/a	SPARK	4	19	[0, 0, 0]	n/a	FR1	0	R1346T
3437.681	1.627	2946973	WORD	n/a	wordpools/wordpool_EN.txt	BRICK	5	19	[0, 0, 0]	n/a	FR1	0	R1346T
3439.308	0.936	2948600	WORD_OFF	n/a	n/a	BRICK	5	19	[0, 0, 0]	n/a	FR1	0	R1346T
3440.244	1.632	2949536	WORD	n/a	wordpools/wordpool_EN.txt	RAKE	6	19	[0, 0, 0]	n/a	FR1	0	R1346T
3441.876	0.795	2951168	WORD_OFF	n/a	n/a	RAKE	6	19	[0, 0, 0]	n/a	FR1	0	R1346T
3442.671	1.621	2951963	WORD	n/a	wordpools/wordpool_EN.txt	FLEA	7	19	[0, 0, 0]	n/a	FR1	0	R1346T
3444.292	0.842	2953584	WORD_OFF	n/a	n/a	FLEA	7	19	[0, 0, 0]	n/a	FR1	0	R1346T
3445.134	1.626	2954426	WORD	n/a	wordpools/wordpool_EN.txt	ROOF	8	19	[0, 0, 0]	n/a	FR1	0	R1346T
3446.76	1.017	2956052	WORD_OFF	n/a	n/a	ROOF	8	19	[0, 0, 0]	n/a	FR1	0	R1346T
3447.777	1.634	2957069	WORD	n/a	wordpools/wordpool_EN.txt	SWAMP	9	19	[0, 0, 0]	n/a	FR1	0	R1346T
3449.411	1.085	2958702	WORD_OFF	n/a	n/a	SWAMP	9	19	[0, 0, 0]	n/a	FR1	0	R1346T
3450.496	1.632	2959787	WORD	n/a	wordpools/wordpool_EN.txt	FILM	10	19	[0, 0, 0]	n/a	FR1	0	R1346T
3452.128	1.003	2961419	WORD_OFF	n/a	n/a	FILM	10	19	[0, 0, 0]	n/a	FR1	0	R1346T
3453.131	1.631	2962422	WORD	n/a	wordpools/wordpool_EN.txt	BEAK	11	19	[0, 0, 0]	n/a	FR1	0	R1346T
3454.762	1.004	2964053	WORD_OFF	n/a	n/a	BEAK	11	19	[0, 0, 0]	n/a	FR1	0	R1346T
3455.766	1.629	2965057	WORD	n/a	wordpools/wordpool_EN.txt	SPONGE	12	19	[0, 0, 0]	n/a	FR1	0	R1346T
3457.395	0.001	2966686	WORD_OFF	n/a	n/a	SPONGE	12	19	[0, 0, 0]	n/a	FR1	0	R1346T
3457.396	0.0	2966687	ENCODING_END	n/a	n/a	n/a	-999	19	[0, 0, 0]	n/a	FR1	0	R1346T
3457.396	0.0	2966687	DISTRACT_START	n/a	n/a	n/a	-999	19	[0, 0, 0]	n/a	FR1	0	R1346T
3457.396	0.016	2966687	START	n/a	n/a	n/a	-999	19	[-999, -999, -999]	n/a	FR1	0	R1346T
3457.412	5.434	2966703	PROB	5.434	n/a	n/a	-999	19	[4, 5, 4]	13	FR1	0	R1346T
3462.846	5.518	2972137	PROB	5.518	n/a	n/a	-999	19	[7, 1, 6]	14	FR1	0	R1346T
3468.364	4.034	2977655	PROB	4.034	n/a	n/a	-999	19	[5, 4, 2]	11	FR1	0	R1346T
3472.398	4.317	2981688	PROB	4.317	n/a	n/a	-999	19	[5, 3, 2]	10	FR1	0	R1346T
3476.715	6.023	2986005	PROB	6.023	n/a	n/a	-999	19	[6, 5, 6]	17	FR1	0	R1346T
3482.738	0.012	2992028	STOP	n/a	n/a	n/a	-999	19	[-999, -999, -999]	n/a	FR1	0	R1346T
3482.75	0.655	2992040	DISTRACT_END	n/a	n/a	n/a	-999	19	[0, 0, 0]	n/a	FR1	0	R1346T
3483.405	1.579	2992695	RETRIEVAL_ORIENT_START	n/a	n/a	n/a	-999	19	[0, 0, 0]	n/a	FR1	0	R1346T
3484.984	0.0	2994274	REC_START	n/a	n/a	n/a	-999	19	[0, 0, 0]	n/a	FR1	0	R1346T
3484.984	4.339	2994274	RETRIEVAL_ORIENT_END	n/a	n/a	n/a	-999	19	[0, 0, 0]	n/a	FR1	0	R1346T
3489.323	2.05	2998613	REC_WORD	2.05	n/a	PEACH	1	19	[0, 0, 0]	n/a	FR1	0	R1346T
3491.373	3.762	3000663	REC_WORD	3.762	n/a	BEACH	3	19	[0, 0, 0]	n/a	FR1	0	R1346T
3495.135	19.86	3004424	REC_WORD	19.86	n/a	APE	2	19	[0, 0, 0]	n/a	FR1	0	R1346T
3514.995	0.0	3024283	REC_END	n/a	n/a	n/a	-999	19	[0, 0, 0]	n/a	FR1	0	R1346T
3514.995	0.014	3024283	TRIAL_END	n/a	n/a	n/a	-999	19	[0, 0, 0]	n/a	FR1	0	R1346T
3515.009	0.001	3024297	TRIAL_START	n/a	n/a	n/a	-999	20	[0, 0, 0]	n/a	FR1	0	R1346T
3515.01	0.0	3024298	WAITING_START	n/a	n/a	n/a	-999	20	[0, 0, 0]	n/a	FR1	0	R1346T
3515.01	4.73	3024298	TRIAL	n/a	n/a	n/a	-999	20	[0, 0, 0]	n/a	FR1	0	R1346T
3519.74	0.001	3029028	WAITING_END	n/a	n/a	n/a	-999	20	[0, 0, 0]	n/a	FR1	0	R1346T
3519.741	10.429	3029029	COUNTDOWN_START	n/a	n/a	n/a	-999	20	[0, 0, 0]	n/a	FR1	0	R1346T
3530.17	0.001	3039458	COUNTDOWN_END	n/a	n/a	n/a	-999	20	[0, 0, 0]	n/a	FR1	0	R1346T
3530.171	1.221	3039459	ORIENT_START	n/a	n/a	n/a	-999	20	[0, 0, 0]	n/a	FR1	0	R1346T
3531.392	0.001	3040680	ORIENT_END	n/a	n/a	n/a	-999	20	[0, 0, 0]	n/a	FR1	0	R1346T
3531.393	1.099	3040681	ENCODING_START	n/a	n/a	n/a	-999	20	[0, 0, 0]	n/a	FR1	0	R1346T
3532.492	1.634	3041780	WORD	n/a	wordpools/wordpool_EN.txt	STRING	1	20	[0, 0, 0]	n/a	FR1	0	R1346T
3534.126	0.786	3043414	WORD_OFF	n/a	n/a	STRING	1	20	[0, 0, 0]	n/a	FR1	0	R1346T
3534.912	1.631	3044199	WORD	n/a	wordpools/wordpool_EN.txt	ROAD	2	20	[0, 0, 0]	n/a	FR1	0	R1346T
3536.543	0.76	3045830	WORD_OFF	n/a	n/a	ROAD	2	20	[0, 0, 0]	n/a	FR1	0	R1346T
3537.303	1.607	3046590	WORD	n/a	wordpools/wordpool_EN.txt	FLAME	3	20	[0, 0, 0]	n/a	FR1	0	R1346T
3538.91	1.049	3048197	WORD_OFF	n/a	n/a	FLAME	3	20	[0, 0, 0]	n/a	FR1	0	R1346T
3539.959	1.635	3049246	WORD	n/a	wordpools/wordpool_EN.txt	STORM	4	20	[0, 0, 0]	n/a	FR1	0	R1346T
3541.594	0.933	3050881	WORD_OFF	n/a	n/a	STORM	4	20	[0, 0, 0]	n/a	FR1	0	R1346T
3542.527	1.634	3051814	WORD	n/a	wordpools/wordpool_EN.txt	PLANT	5	20	[0, 0, 0]	n/a	FR1	0	R1346T
3544.161	1.096	3053448	WORD_OFF	n/a	n/a	PLANT	5	20	[0, 0, 0]	n/a	FR1	0	R1346T
3545.257	1.621	3054544	WORD	n/a	wordpools/wordpool_EN.txt	ICE	6	20	[0, 0, 0]	n/a	FR1	0	R1346T
3546.878	0.854	3056165	WORD_OFF	n/a	n/a	ICE	6	20	[0, 0, 0]	n/a	FR1	0	R1346T
3547.732	1.63	3057019	WORD	n/a	wordpools/wordpool_EN.txt	SOCK	7	20	[0, 0, 0]	n/a	FR1	0	R1346T
3549.362	0.884	3058649	WORD_OFF	n/a	n/a	SOCK	7	20	[0, 0, 0]	n/a	FR1	0	R1346T
3550.246	1.633	3059533	WORD	n/a	wordpools/wordpool_EN.txt	HOSE	8	20	[0, 0, 0]	n/a	FR1	0	R1346T
3551.879	1.103	3061166	WORD_OFF	n/a	n/a	HOSE	8	20	[0, 0, 0]	n/a	FR1	0	R1346T
3552.982	1.631	3062269	WORD	n/a	wordpools/wordpool_EN.txt	STEM	9	20	[0, 0, 0]	n/a	FR1	0	R1346T
3554.613	1.073	3063900	WORD_OFF	n/a	n/a	STEM	9	20	[0, 0, 0]	n/a	FR1	0	R1346T
3555.686	1.627	3064973	WORD	n/a	wordpools/wordpool_EN.txt	SNAIL	10	20	[0, 0, 0]	n/a	FR1	0	R1346T
3557.313	0.763	3066599	WORD_OFF	n/a	n/a	SNAIL	10	20	[0, 0, 0]	n/a	FR1	0	R1346T
3558.076	1.638	3067362	WORD	n/a	wordpools/wordpool_EN.txt	BADGE	11	20	[0, 0, 0]	n/a	FR1	0	R1346T
3559.714	1.051	3069000	WORD_OFF	n/a	n/a	BADGE	11	20	[0, 0, 0]	n/a	FR1	0	R1346T
3560.765	1.633	3070051	WORD	n/a	wordpools/wordpool_EN.txt	EAR	12	20	[0, 0, 0]	n/a	FR1	0	R1346T
3562.398	0.0	3071684	WORD_OFF	n/a	n/a	EAR	12	20	[0, 0, 0]	n/a	FR1	0	R1346T
3562.398	0.0	3071684	ENCODING_END	n/a	n/a	n/a	-999	20	[0, 0, 0]	n/a	FR1	0	R1346T
3562.398	0.001	3071684	DISTRACT_START	n/a	n/a	n/a	-999	20	[0, 0, 0]	n/a	FR1	0	R1346T
3562.399	0.015	3071685	START	n/a	n/a	n/a	-999	20	[-999, -999, -999]	n/a	FR1	0	R1346T
3562.414	5.85	3071700	PROB	5.85	n/a	n/a	-999	20	[7, 4, 5]	16	FR1	0	R1346T
3568.264	8.986	3077550	PROB	8.986	n/a	n/a	-999	20	[9, 8, 9]	26	FR1	0	R1346T
3577.25	4.601	3086536	PROB	4.601	n/a	n/a	-999	20	[8, 1, 7]	16	FR1	0	R1346T
3581.851	5.66	3091136	PROB	5.66	n/a	n/a	-999	20	[4, 1, 8]	13	FR1	0	R1346T
3587.511	0.008	3096796	STOP	n/a	n/a	n/a	-999	20	[-999, -999, -999]	n/a	FR1	0	R1346T
3587.519	0.651	3096804	DISTRACT_END	n/a	n/a	n/a	-999	20	[0, 0, 0]	n/a	FR1	0	R1346T
3588.17	1.683	3097455	RETRIEVAL_ORIENT_START	n/a	n/a	n/a	-999	20	[0, 0, 0]	n/a	FR1	0	R1346T
3589.853	0.0	3099138	RETRIEVAL_ORIENT_END	n/a	n/a	n/a	-999	20	[0, 0, 0]	n/a	FR1	0	R1346T
3589.853	19.005	3099138	REC_START	n/a	n/a	n/a	-999	20	[0, 0, 0]	n/a	FR1	0	R1346T
3608.858	11.007	3118142	REC_WORD	11.007	n/a	ROAD	2	20	[0, 0, 0]	n/a	FR1	0	R1346T
3619.865	0.0	3129149	REC_END	n/a	n/a	n/a	-999	20	[0, 0, 0]	n/a	FR1	0	R1346T
3619.865	0.014	3129149	TRIAL_END	n/a	n/a	n/a	-999	20	[0, 0, 0]	n/a	FR1	0	R1346T
3619.879	0.0	3129163	TRIAL_START	n/a	n/a	n/a	-999	21	[0, 0, 0]	n/a	FR1	0	R1346T
3619.879	0.0	3129163	TRIAL	n/a	n/a	n/a	-999	21	[0, 0, 0]	n/a	FR1	0	R1346T
3619.879	5.647	3129163	WAITING_START	n/a	n/a	n/a	-999	21	[0, 0, 0]	n/a	FR1	0	R1346T
3625.526	0.0	3134809	WAITING_END	n/a	n/a	n/a	-999	21	[0, 0, 0]	n/a	FR1	0	R1346T
3625.526	10.429	3134809	COUNTDOWN_START	n/a	n/a	n/a	-999	21	[0, 0, 0]	n/a	FR1	0	R1346T
3635.955	0.001	3145238	COUNTDOWN_END	n/a	n/a	n/a	-999	21	[0, 0, 0]	n/a	FR1	0	R1346T
3635.956	1.089	3145239	ORIENT_START	n/a	n/a	n/a	-999	21	[0, 0, 0]	n/a	FR1	0	R1346T
3637.045	0.0	3146328	ENCODING_START	n/a	n/a	n/a	-999	21	[0, 0, 0]	n/a	FR1	0	R1346T
3637.045	1.04	3146328	ORIENT_END	n/a	n/a	n/a	-999	21	[0, 0, 0]	n/a	FR1	0	R1346T
3638.085	1.627	3147368	WORD	n/a	wordpools/wordpool_EN.txt	BIRD	1	21	[0, 0, 0]	n/a	FR1	0	R1346T
3639.712	0.859	3148995	WORD_OFF	n/a	n/a	BIRD	1	21	[0, 0, 0]	n/a	FR1	0	R1346T
3640.571	1.625	3149854	WORD	n/a	wordpools/wordpool_EN.txt	CUBE	2	21	[0, 0, 0]	n/a	FR1	0	R1346T
3642.196	0.864	3151478	WORD_OFF	n/a	n/a	CUBE	2	21	[0, 0, 0]	n/a	FR1	0	R1346T
3643.06	1.636	3152342	WORD	n/a	wordpools/wordpool_EN.txt	TAIL	3	21	[0, 0, 0]	n/a	FR1	0	R1346T
3644.696	0.941	3153978	WORD_OFF	n/a	n/a	TAIL	3	21	[0, 0, 0]	n/a	FR1	0	R1346T
3645.637	1.625	3154919	WORD	n/a	wordpools/wordpool_EN.txt	HORSE	4	21	[0, 0, 0]	n/a	FR1	0	R1346T
3647.262	0.768	3156544	WORD_OFF	n/a	n/a	HORSE	4	21	[0, 0, 0]	n/a	FR1	0	R1346T
3648.03	1.634	3157312	WORD	n/a	wordpools/wordpool_EN.txt	GATE	5	21	[0, 0, 0]	n/a	FR1	0	R1346T
3649.664	1.051	3158946	WORD_OFF	n/a	n/a	GATE	5	21	[0, 0, 0]	n/a	FR1	0	R1346T
3650.715	1.633	3159997	WORD	n/a	wordpools/wordpool_EN.txt	DOG	6	21	[0, 0, 0]	n/a	FR1	0	R1346T
3652.348	0.896	3161630	WORD_OFF	n/a	n/a	DOG	6	21	[0, 0, 0]	n/a	FR1	0	R1346T
3653.244	1.621	3162526	WORD	n/a	wordpools/wordpool_EN.txt	FISH	7	21	[0, 0, 0]	n/a	FR1	0	R1346T
3654.865	0.929	3164147	WORD_OFF	n/a	n/a	FISH	7	21	[0, 0, 0]	n/a	FR1	0	R1346T
3655.794	1.638	3165076	WORD	n/a	wordpools/wordpool_EN.txt	SHARK	8	21	[0, 0, 0]	n/a	FR1	0	R1346T
3657.432	0.937	3166714	WORD_OFF	n/a	n/a	SHARK	8	21	[0, 0, 0]	n/a	FR1	0	R1346T
3658.369	1.63	3167651	WORD	n/a	wordpools/wordpool_EN.txt	ROPE	9	21	[0, 0, 0]	n/a	FR1	0	R1346T
3659.999	1.078	3169281	WORD_OFF	n/a	n/a	ROPE	9	21	[0, 0, 0]	n/a	FR1	0	R1346T
3661.077	1.622	3170359	WORD	n/a	wordpools/wordpool_EN.txt	CAT	10	21	[0, 0, 0]	n/a	FR1	0	R1346T
3662.699	0.986	3171981	WORD_OFF	n/a	n/a	CAT	10	21	[0, 0, 0]	n/a	FR1	0	R1346T
3663.685	1.63	3172966	WORD	n/a	wordpools/wordpool_EN.txt	BARN	11	21	[0, 0, 0]	n/a	FR1	0	R1346T
3665.315	0.979	3174596	WORD_OFF	n/a	n/a	BARN	11	21	[0, 0, 0]	n/a	FR1	0	R1346T
3666.294	1.606	3175575	WORD	n/a	wordpools/wordpool_EN.txt	CROWN	12	21	[0, 0, 0]	n/a	FR1	0	R1346T
3667.9	0.001	3177181	WORD_OFF	n/a	n/a	CROWN	12	21	[0, 0, 0]	n/a	FR1	0	R1346T
3667.901	0.0	3177182	DISTRACT_START	n/a	n/a	n/a	-999	21	[0, 0, 0]	n/a	FR1	0	R1346T
3667.901	0.0	3177182	ENCODING_END	n/a	n/a	n/a	-999	21	[0, 0, 0]	n/a	FR1	0	R1346T
3667.901	0.015	3177182	START	n/a	n/a	n/a	-999	21	[-999, -999, -999]	n/a	FR1	0	R1346T
3667.916	5.085	3177197	PROB	5.085	n/a	n/a	-999	21	[6, 4, 6]	16	FR1	0	R1346T
3673.001	3.867	3182282	PROB	3.867	n/a	n/a	-999	21	[3, 1, 8]	12	FR1	0	R1346T
3676.868	3.184	3186149	PROB	3.184	n/a	n/a	-999	21	[3, 6, 4]	13	FR1	0	R1346T
3680.052	3.267	3189333	PROB	3.267	n/a	n/a	-999	21	[7, 3, 2]	12	FR1	0	R1346T
3683.319	20.528	3192600	PROB	20.528	n/a	n/a	-999	21	[5, 6, 8]	19	FR1	0	R1346T
3703.847	0.01	3213127	STOP	n/a	n/a	n/a	-999	21	[-999, -999, -999]	n/a	FR1	0	R1346T
3703.857	0.549	3213137	DISTRACT_END	n/a	n/a	n/a	-999	21	[0, 0, 0]	n/a	FR1	0	R1346T
3704.406	1.701	3213686	RETRIEVAL_ORIENT_START	n/a	n/a	n/a	-999	21	[0, 0, 0]	n/a	FR1	0	R1346T
3706.107	0.0	3215387	RETRIEVAL_ORIENT_END	n/a	n/a	n/a	-999	21	[0, 0, 0]	n/a	FR1	0	R1346T
3706.107	2.93	3215387	REC_START	n/a	n/a	n/a	-999	21	[0, 0, 0]	n/a	FR1	0	R1346T
3709.037	1.839	3218316	REC_WORD	1.839	n/a	BARN	11	21	[0, 0, 0]	n/a	FR1	0	R1346T
3710.876	4.957	3220155	REC_WORD	4.957	n/a	HORSE	4	21	[0, 0, 0]	n/a	FR1	0	R1346T
3715.833	6.746	3225112	REC_WORD	6.746	n/a	CAT	10	21	[0, 0, 0]	n/a	FR1	0	R1346T
3722.579	1.926	3231858	REC_WORD	1.926	n/a	TAIL	3	21	[0, 0, 0]	n/a	FR1	0	R1346T
3724.505	1.257	3233784	REC_WORD	1.257	n/a	DOG	6	21	[0, 0, 0]	n/a	FR1	0	R1346T
3725.762	10.357	3235041	REC_WORD	10.357	n/a	SHARK	8	21	[0, 0, 0]	n/a	FR1	0	R1346T
3736.119	0.0	3245397	REC_END	n/a	n/a	n/a	-999	21	[0, 0, 0]	n/a	FR1	0	R1346T
3736.119	0.017	3245397	TRIAL_END	n/a	n/a	n/a	-999	21	[0, 0, 0]	n/a	FR1	0	R1346T
3736.136	0.0	3245414	TRIAL_START	n/a	n/a	n/a	-999	22	[0, 0, 0]	n/a	FR1	0	R1346T
3736.136	0.0	3245414	TRIAL	n/a	n/a	n/a	-999	22	[0, 0, 0]	n/a	FR1	0	R1346T
3736.136	5.394	3245414	WAITING_START	n/a	n/a	n/a	-999	22	[0, 0, 0]	n/a	FR1	0	R1346T
3741.53	0.001	3250808	WAITING_END	n/a	n/a	n/a	-999	22	[0, 0, 0]	n/a	FR1	0	R1346T
3741.531	10.429	3250809	COUNTDOWN_START	n/a	n/a	n/a	-999	22	[0, 0, 0]	n/a	FR1	0	R1346T
3751.96	0.0	3261237	ORIENT_START	n/a	n/a	n/a	-999	22	[0, 0, 0]	n/a	FR1	0	R1346T
3751.96	1.122	3261237	COUNTDOWN_END	n/a	n/a	n/a	-999	22	[0, 0, 0]	n/a	FR1	0	R1346T
3753.082	0.001	3262359	ORIENT_END	n/a	n/a	n/a	-999	22	[0, 0, 0]	n/a	FR1	0	R1346T
3753.083	0.871	3262360	ENCODING_START	n/a	n/a	n/a	-999	22	[0, 0, 0]	n/a	FR1	0	R1346T
3753.954	1.629	3263231	WORD	n/a	wordpools/wordpool_EN.txt	TANK	1	22	[0, 0, 0]	n/a	FR1	0	R1346T
3755.583	0.803	3264860	WORD_OFF	n/a	n/a	TANK	1	22	[0, 0, 0]	n/a	FR1	0	R1346T
3756.386	1.631	3265663	WORD	n/a	wordpools/wordpool_EN.txt	SLUSH	2	22	[0, 0, 0]	n/a	FR1	0	R1346T
3758.017	1.142	3267294	WORD_OFF	n/a	n/a	SLUSH	2	22	[0, 0, 0]	n/a	FR1	0	R1346T
3759.159	1.625	3268436	WORD	n/a	wordpools/wordpool_EN.txt	TREE	3	22	[0, 0, 0]	n/a	FR1	0	R1346T
3760.784	0.887	3270061	WORD_OFF	n/a	n/a	TREE	3	22	[0, 0, 0]	n/a	FR1	0	R1346T
3761.671	1.629	3270948	WORD	n/a	wordpools/wordpool_EN.txt	PIN	4	22	[0, 0, 0]	n/a	FR1	0	R1346T
3763.3	0.948	3272577	WORD_OFF	n/a	n/a	PIN	4	22	[0, 0, 0]	n/a	FR1	0	R1346T
3764.248	1.62	3273525	WORD	n/a	wordpools/wordpool_EN.txt	SINK	5	22	[0, 0, 0]	n/a	FR1	0	R1346T
3765.868	0.95	3275145	WORD_OFF	n/a	n/a	SINK	5	22	[0, 0, 0]	n/a	FR1	0	R1346T
3766.818	1.634	3276095	WORD	n/a	wordpools/wordpool_EN.txt	STAIR	6	22	[0, 0, 0]	n/a	FR1	0	R1346T
3768.452	1.013	3277729	WORD_OFF	n/a	n/a	STAIR	6	22	[0, 0, 0]	n/a	FR1	0	R1346T
3769.465	1.621	3278742	WORD	n/a	wordpools/wordpool_EN.txt	OAK	7	22	[0, 0, 0]	n/a	FR1	0	R1346T
3771.086	0.841	3280362	WORD_OFF	n/a	n/a	OAK	7	22	[0, 0, 0]	n/a	FR1	0	R1346T
3771.927	1.626	3281203	WORD	n/a	wordpools/wordpool_EN.txt	SHIRT	8	22	[0, 0, 0]	n/a	FR1	0	R1346T
3773.553	1.001	3282829	WORD_OFF	n/a	n/a	SHIRT	8	22	[0, 0, 0]	n/a	FR1	0	R1346T
3774.554	1.633	3283830	WORD	n/a	wordpools/wordpool_EN.txt	WORLD	9	22	[0, 0, 0]	n/a	FR1	0	R1346T
3776.187	0.897	3285463	WORD_OFF	n/a	n/a	WORLD	9	22	[0, 0, 0]	n/a	FR1	0	R1346T
3777.084	1.636	3286360	WORD	n/a	wordpools/wordpool_EN.txt	BRANCH	10	22	[0, 0, 0]	n/a	FR1	0	R1346T
3778.72	0.947	3287996	WORD_OFF	n/a	n/a	BRANCH	10	22	[0, 0, 0]	n/a	FR1	0	R1346T
3779.667	1.636	3288943	WORD	n/a	wordpools/wordpool_EN.txt	NAIL	11	22	[0, 0, 0]	n/a	FR1	0	R1346T
3781.303	0.846	3290579	WORD_OFF	n/a	n/a	NAIL	11	22	[0, 0, 0]	n/a	FR1	0	R1346T
3782.149	1.622	3291425	WORD	n/a	wordpools/wordpool_EN.txt	SOAP	12	22	[0, 0, 0]	n/a	FR1	0	R1346T
3783.771	0.001	3293047	WORD_OFF	n/a	n/a	SOAP	12	22	[0, 0, 0]	n/a	FR1	0	R1346T
3783.772	0.0	3293048	ENCODING_END	n/a	n/a	n/a	-999	22	[0, 0, 0]	n/a	FR1	0	R1346T
3783.772	0.0	3293048	DISTRACT_START	n/a	n/a	n/a	-999	22	[0, 0, 0]	n/a	FR1	0	R1346T
3783.772	0.016	3293048	START	n/a	n/a	n/a	-999	22	[-999, -999, -999]	n/a	FR1	0	R1346T
3783.788	5.951	3293064	PROB	5.951	n/a	n/a	-999	22	[9, 2, 7]	18	FR1	0	R1346T
3789.739	6.251	3299015	PROB	6.251	n/a	n/a	-999	22	[7, 1, 6]	14	FR1	0	R1346T
3795.99	4.384	3305265	PROB	4.384	n/a	n/a	-999	22	[4, 1, 5]	10	FR1	0	R1346T
3800.374	5.649	3309649	PROB	5.649	n/a	n/a	-999	22	[2, 7, 9]	18	FR1	0	R1346T
3806.023	0.019	3315298	STOP	n/a	n/a	n/a	-999	22	[-999, -999, -999]	n/a	FR1	0	R1346T
3806.042	0.53	3315317	DISTRACT_END	n/a	n/a	n/a	-999	22	[0, 0, 0]	n/a	FR1	0	R1346T
3806.572	1.703	3315847	RETRIEVAL_ORIENT_START	n/a	n/a	n/a	-999	22	[0, 0, 0]	n/a	FR1	0	R1346T
3808.275	0.0	3317550	RETRIEVAL_ORIENT_END	n/a	n/a	n/a	-999	22	[0, 0, 0]	n/a	FR1	0	R1346T
3808.275	3.956	3317550	REC_START	n/a	n/a	n/a	-999	22	[0, 0, 0]	n/a	FR1	0	R1346T
3812.231	5.976	3321506	REC_WORD	5.976	n/a	WORLD	9	22	[0, 0, 0]	n/a	FR1	0	R1346T
3818.207	5.706	3327481	REC_WORD	5.706	n/a	SLUSH	2	22	[0, 0, 0]	n/a	FR1	0	R1346T
3823.913	11.749	3333187	REC_WORD	11.749	n/a	DITCH	-999	22	[0, 0, 0]	n/a	FR1	0	R1346T
3835.662	2.624	3344935	REC_WORD	2.624	n/a	CUP	-999	22	[0, 0, 0]	n/a	FR1	0	R1346T
3838.286	0.0	3347559	TRIAL_END	n/a	n/a	n/a	-999	22	[0, 0, 0]	n/a	FR1	0	R1346T
3838.286	0.014	3347559	REC_END	n/a	n/a	n/a	-999	22	[0, 0, 0]	n/a	FR1	0	R1346T
3838.3	0.0	3347573	TRIAL_START	n/a	n/a	n/a	-999	23	[0, 0, 0]	n/a	FR1	0	R1346T
3838.3	0.001	3347573	TRIAL	n/a	n/a	n/a	-999	23	[0, 0, 0]	n/a	FR1	0	R1346T
3838.301	3.564	3347574	WAITING_START	n/a	n/a	n/a	-999	23	[0, 0, 0]	n/a	FR1	0	R1346T
3841.865	0.001	3351138	WAITING_END	n/a	n/a	n/a	-999	23	[0, 0, 0]	n/a	FR1	0	R1346T
3841.866	10.429	3351139	COUNTDOWN_START	n/a	n/a	n/a	-999	23	[0, 0, 0]	n/a	FR1	0	R1346T
3852.295	0.001	3361568	COUNTDOWN_END	n/a	n/a	n/a	-999	23	[0, 0, 0]	n/a	FR1	0	R1346T
3852.296	1.171	3361569	ORIENT_START	n/a	n/a	n/a	-999	23	[0, 0, 0]	n/a	FR1	0	R1346T
3853.467	0.001	3362740	ORIENT_END	n/a	n/a	n/a	-999	23	[0, 0, 0]	n/a	FR1	0	R1346T
3853.468	0.925	3362741	ENCODING_START	n/a	n/a	n/a	-999	23	[0, 0, 0]	n/a	FR1	0	R1346T
3854.393	1.625	3363666	WORD	n/a	wordpools/wordpool_EN.txt	GLOVE	1	23	[0, 0, 0]	n/a	FR1	0	R1346T
3856.018	0.948	3365291	WORD_OFF	n/a	n/a	GLOVE	1	23	[0, 0, 0]	n/a	FR1	0	R1346T
3856.966	1.636	3366238	WORD	n/a	wordpools/wordpool_EN.txt	WAND	2	23	[0, 0, 0]	n/a	FR1	0	R1346T
3858.602	1.033	3367874	WORD_OFF	n/a	n/a	WAND	2	23	[0, 0, 0]	n/a	FR1	0	R1346T
3859.635	1.633	3368907	WORD	n/a	wordpools/wordpool_EN.txt	POLE	3	23	[0, 0, 0]	n/a	FR1	0	R1346T
3861.268	1.056	3370540	WORD_OFF	n/a	n/a	POLE	3	23	[0, 0, 0]	n/a	FR1	0	R1346T
3862.324	1.629	3371596	WORD	n/a	wordpools/wordpool_EN.txt	ROCK	4	23	[0, 0, 0]	n/a	FR1	0	R1346T
3863.953	0.851	3373225	WORD_OFF	n/a	n/a	ROCK	4	23	[0, 0, 0]	n/a	FR1	0	R1346T
3864.804	1.632	3374076	WORD	n/a	wordpools/wordpool_EN.txt	SHELL	5	23	[0, 0, 0]	n/a	FR1	0	R1346T
3866.436	0.911	3375708	WORD_OFF	n/a	n/a	SHELL	5	23	[0, 0, 0]	n/a	FR1	0	R1346T
3867.347	1.623	3376619	WORD	n/a	wordpools/wordpool_EN.txt	CLIFF	6	23	[0, 0, 0]	n/a	FR1	0	R1346T
3868.97	0.941	3378242	WORD_OFF	n/a	n/a	CLIFF	6	23	[0, 0, 0]	n/a	FR1	0	R1346T
3869.911	1.626	3379183	WORD	n/a	wordpools/wordpool_EN.txt	SNOW	7	23	[0, 0, 0]	n/a	FR1	0	R1346T
3871.537	1.073	3380809	WORD_OFF	n/a	n/a	SNOW	7	23	[0, 0, 0]	n/a	FR1	0	R1346T
3872.61	1.611	3381882	WORD	n/a	wordpools/wordpool_EN.txt	DIME	8	23	[0, 0, 0]	n/a	FR1	0	R1346T
3874.221	1.041	3383493	WORD_OFF	n/a	n/a	DIME	8	23	[0, 0, 0]	n/a	FR1	0	R1346T
3875.262	1.626	3384534	WORD	n/a	wordpools/wordpool_EN.txt	AXE	9	23	[0, 0, 0]	n/a	FR1	0	R1346T
3876.888	1.14	3386160	WORD_OFF	n/a	n/a	AXE	9	23	[0, 0, 0]	n/a	FR1	0	R1346T
3878.028	1.627	3387299	WORD	n/a	wordpools/wordpool_EN.txt	CASH	10	23	[0, 0, 0]	n/a	FR1	0	R1346T
3879.655	1.042	3388926	WORD_OFF	n/a	n/a	CASH	10	23	[0, 0, 0]	n/a	FR1	0	R1346T
3880.697	1.624	3389968	WORD	n/a	wordpools/wordpool_EN.txt	GRAPE	11	23	[0, 0, 0]	n/a	FR1	0	R1346T
3882.321	0.762	3391592	WORD_OFF	n/a	n/a	GRAPE	11	23	[0, 0, 0]	n/a	FR1	0	R1346T
3883.083	1.623	3392354	WORD	n/a	wordpools/wordpool_EN.txt	MOUSE	12	23	[0, 0, 0]	n/a	FR1	0	R1346T
3884.706	0.001	3393977	WORD_OFF	n/a	n/a	MOUSE	12	23	[0, 0, 0]	n/a	FR1	0	R1346T
3884.707	0.0	3393978	ENCODING_END	n/a	n/a	n/a	-999	23	[0, 0, 0]	n/a	FR1	0	R1346T
3884.707	0.0	3393978	DISTRACT_START	n/a	n/a	n/a	-999	23	[0, 0, 0]	n/a	FR1	0	R1346T
