onset	duration	sample	trial_type	response_time	stim_file	item_name	serialpos	list	test	answer	experiment	session	subject
0.0	110.669	342085	SESS_START	n/a	n/a	n/a	-999	-999	[0, 0, 0]	n/a	FR1	0	R1094T
110.669	10.428	452749	COUNTDOWN_START	n/a	n/a	n/a	-999	-999	[0, 0, 0]	n/a	FR1	0	R1094T
121.097	3.707	463176	COUNTDOWN_END	n/a	n/a	n/a	-999	-999	[0, 0, 0]	n/a	FR1	0	R1094T
124.804	2.502	466883	PRACTICE_WORD	n/a	n/a	PECHO	1	-1	[0, 0, 0]	n/a	FR1	0	R1094T
127.306	2.499	469385	PRACTICE_WORD	n/a	n/a	INUNDACION	2	-1	[0, 0, 0]	n/a	FR1	0	R1094T
129.805	2.385	471884	PRACTICE_WORD	n/a	n/a	HAZ	3	-1	[0, 0, 0]	n/a	FR1	0	R1094T
132.19	2.6	474269	PRACTICE_WORD	n/a	n/a	LENGUA	4	-1	[0, 0, 0]	n/a	FR1	0	R1094T
134.79	2.468	476869	PRACTICE_WORD	n/a	n/a	ATICO	5	-1	[0, 0, 0]	n/a	FR1	0	R1094T
137.258	2.599	479336	PRACTICE_WORD	n/a	n/a	HIERRO	6	-1	[0, 0, 0]	n/a	FR1	0	R1094T
139.857	2.468	481935	PRACTICE_WORD	n/a	n/a	RELOJ	7	-1	[0, 0, 0]	n/a	FR1	0	R1094T
142.325	2.617	484403	PRACTICE_WORD	n/a	n/a	RINOCERONTE	8	-1	[0, 0, 0]	n/a	FR1	0	R1094T
144.942	2.6	487020	PRACTICE_WORD	n/a	n/a	CAMELLO	9	-1	[0, 0, 0]	n/a	FR1	0	R1094T
147.542	2.568	489620	PRACTICE_WORD	n/a	n/a	VAGON	10	-1	[0, 0, 0]	n/a	FR1	0	R1094T
150.11	2.549	492188	PRACTICE_WORD	n/a	n/a	ANILLO	11	-1	[0, 0, 0]	n/a	FR1	0	R1094T
152.659	1.602	494737	PRACTICE_WORD	n/a	n/a	ALGODON	12	-1	[0, 0, 0]	n/a	FR1	0	R1094T
154.261	0.0	496339	PRACTICE_DISTRACT_START	n/a	n/a	n/a	-999	-1	[0, 0, 0]	n/a	FR1	0	R1094T
154.261	0.017	496339	START	n/a	n/a	n/a	-999	-1	[-999, -999, -999]	n/a	FR1	0	R1094T
154.278	99.305	496356	PROB	99.305	n/a	n/a	-999	-1	[2, 9, 7]	17	FR1	0	R1094T
253.583	0.012	595656	STOP	n/a	n/a	n/a	-999	-1	[-999, -999, -999]	n/a	FR1	0	R1094T
253.595	0.67	595668	PRACTICE_DISTRACT_END	n/a	n/a	n/a	-999	-1	[0, 0, 0]	n/a	FR1	0	R1094T
254.265	30.513	596338	PRACTICE_REC_START	n/a	n/a	n/a	-999	-1	[0, 0, 0]	n/a	FR1	0	R1094T
284.778	94.639	626849	PRACTICE_REC_END	n/a	n/a	n/a	-999	-1	[0, 0, 0]	n/a	FR1	0	R1094T
379.417	0.001	721484	COUNTDOWN_START	n/a	n/a	n/a	-999	1	[0, 0, 0]	n/a	FR1	0	R1094T
379.418	10.427	721485	TRIAL	n/a	n/a	n/a	-999	1	[0, 0, 0]	n/a	FR1	0	R1094T
389.845	0.008	731911	COUNTDOWN_END	n/a	n/a	n/a	-999	1	[0, 0, 0]	n/a	FR1	0	R1094T
389.853	2.418	731919	ORIENT	n/a	n/a	n/a	-999	1	[0, 0, 0]	n/a	FR1	0	R1094T
392.271	2.516	734337	WORD	n/a	wordpools/wordpool_SP.txt	MEDIA	1	1	[0, 0, 0]	n/a	FR1	0	R1094T
394.787	2.535	736853	WORD	n/a	wordpools/wordpool_SP.txt	PIERNA	2	1	[0, 0, 0]	n/a	FR1	0	R1094T
397.322	2.399	739388	WORD	n/a	wordpools/wordpool_SP.txt	JUGUETE	3	1	[0, 0, 0]	n/a	FR1	0	R1094T
399.721	2.402	741787	WORD	n/a	wordpools/wordpool_SP.txt	ARBUSTO	4	1	[0, 0, 0]	n/a	FR1	0	R1094T
402.123	2.532	744189	WORD	n/a	wordpools/wordpool_SP.txt	ROBLE	5	1	[0, 0, 0]	n/a	FR1	0	R1094T
404.655	2.502	746720	WORD	n/a	wordpools/wordpool_SP.txt	ZAPATO	6	1	[0, 0, 0]	n/a	FR1	0	R1094T
407.157	2.566	749222	WORD	n/a	wordpools/wordpool_SP.txt	CARRETERA	7	1	[0, 0, 0]	n/a	FR1	0	R1094T
409.723	2.535	751788	WORD	n/a	wordpools/wordpool_SP.txt	ZORRO	8	1	[0, 0, 0]	n/a	FR1	0	R1094T
412.258	2.399	754323	WORD	n/a	wordpools/wordpool_SP.txt	ASIENTO	9	1	[0, 0, 0]	n/a	FR1	0	R1094T
414.657	2.568	756722	WORD	n/a	wordpools/wordpool_SP.txt	PANTANO	10	1	[0, 0, 0]	n/a	FR1	0	R1094T
417.225	2.516	759290	WORD	n/a	wordpools/wordpool_SP.txt	PIE	11	1	[0, 0, 0]	n/a	FR1	0	R1094T
419.741	1.602	761806	WORD	n/a	wordpools/wordpool_SP.txt	HIERBA	12	1	[0, 0, 0]	n/a	FR1	0	R1094T
421.343	0.0	763408	DISTRACT_START	n/a	n/a	n/a	-999	1	[0, 0, 0]	n/a	FR1	0	R1094T
421.343	0.016	763408	START	n/a	n/a	n/a	-999	1	[-999, -999, -999]	n/a	FR1	0	R1094T
421.359	11.335	763424	PROB	11.335	n/a	n/a	-999	1	[3, 6, 8]	17	FR1	0	R1094T
432.694	13.937	774758	PROB	13.937	n/a	n/a	-999	1	[6, 3, 4]	13	FR1	0	R1094T
446.631	0.015	788694	STOP	n/a	n/a	n/a	-999	1	[-999, -999, -999]	n/a	FR1	0	R1094T
446.646	1.172	788709	DISTRACT_END	n/a	n/a	n/a	-999	1	[0, 0, 0]	n/a	FR1	0	R1094T
447.818	5.359	789881	REC_START	n/a	n/a	n/a	-999	1	[0, 0, 0]	n/a	FR1	0	R1094T
453.177	2.003	795240	REC_WORD	2.003	n/a	PIERNA	2	1	[0, 0, 0]	n/a	FR1	0	R1094T
455.18	22.644	797243	REC_WORD	22.644	n/a	ARBUSTO	4	1	[0, 0, 0]	n/a	FR1	0	R1094T
477.824	115.383	819886	REC_END	n/a	n/a	n/a	-999	1	[0, 0, 0]	n/a	FR1	0	R1094T
593.207	0.001	935263	COUNTDOWN_START	n/a	n/a	n/a	-999	2	[0, 0, 0]	n/a	FR1	0	R1094T
593.208	10.427	935264	TRIAL	n/a	n/a	n/a	-999	2	[0, 0, 0]	n/a	FR1	0	R1094T
603.635	0.007	945691	COUNTDOWN_END	n/a	n/a	n/a	-999	2	[0, 0, 0]	n/a	FR1	0	R1094T
603.642	2.618	945698	ORIENT	n/a	n/a	n/a	-999	2	[0, 0, 0]	n/a	FR1	0	R1094T
606.26	2.549	948316	WORD	n/a	wordpools/wordpool_SP.txt	FILETE	1	2	[0, 0, 0]	n/a	FR1	0	R1094T
608.809	2.535	950865	WORD	n/a	wordpools/wordpool_SP.txt	HUEVO	2	2	[0, 0, 0]	n/a	FR1	0	R1094T
611.344	2.466	953399	WORD	n/a	wordpools/wordpool_SP.txt	FLORECER	3	2	[0, 0, 0]	n/a	FR1	0	R1094T
613.81	2.585	955865	WORD	n/a	wordpools/wordpool_SP.txt	PERA	4	2	[0, 0, 0]	n/a	FR1	0	R1094T
616.395	2.499	958450	WORD	n/a	wordpools/wordpool_SP.txt	COMIDA	5	2	[0, 0, 0]	n/a	FR1	0	R1094T
618.894	2.452	960949	WORD	n/a	wordpools/wordpool_SP.txt	MANGA	6	2	[0, 0, 0]	n/a	FR1	0	R1094T
621.346	2.466	963401	WORD	n/a	wordpools/wordpool_SP.txt	ELFO	7	2	[0, 0, 0]	n/a	FR1	0	R1094T
623.812	2.451	965867	WORD	n/a	wordpools/wordpool_SP.txt	GANSOS	8	2	[0, 0, 0]	n/a	FR1	0	R1094T
626.263	2.467	968318	WORD	n/a	wordpools/wordpool_SP.txt	BOLSA	9	2	[0, 0, 0]	n/a	FR1	0	R1094T
628.73	2.534	970785	WORD	n/a	wordpools/wordpool_SP.txt	PRIMAVERA	10	2	[0, 0, 0]	n/a	FR1	0	R1094T
631.264	2.5	973318	WORD	n/a	wordpools/wordpool_SP.txt	LECHE	11	2	[0, 0, 0]	n/a	FR1	0	R1094T
633.764	1.618	975818	WORD	n/a	wordpools/wordpool_SP.txt	GRANJA	12	2	[0, 0, 0]	n/a	FR1	0	R1094T
635.382	0.001	977436	DISTRACT_START	n/a	n/a	n/a	-999	2	[0, 0, 0]	n/a	FR1	0	R1094T
635.383	0.015	977437	START	n/a	n/a	n/a	-999	2	[-999, -999, -999]	n/a	FR1	0	R1094T
635.398	9.952	977452	PROB	9.952	n/a	n/a	-999	2	[8, 8, 8]	24	FR1	0	R1094T
645.35	10.85	987404	PROB	10.85	n/a	n/a	-999	2	[8, 2, 8]	18	FR1	0	R1094T
656.2	0.019	998253	STOP	n/a	n/a	n/a	-999	2	[-999, -999, -999]	n/a	FR1	0	R1094T
656.219	1.134	998272	DISTRACT_END	n/a	n/a	n/a	-999	2	[0, 0, 0]	n/a	FR1	0	R1094T
657.353	6.777	999406	REC_START	n/a	n/a	n/a	-999	2	[0, 0, 0]	n/a	FR1	0	R1094T
664.13	1.808	1006183	REC_WORD	1.808	n/a	GANSOS	8	2	[0, 0, 0]	n/a	FR1	0	R1094T
665.938	21.425	1007991	REC_WORD	21.425	n/a	LECHE	11	2	[0, 0, 0]	n/a	FR1	0	R1094T
687.363	21.966	1029415	REC_END	n/a	n/a	n/a	-999	2	[0, 0, 0]	n/a	FR1	0	R1094T
709.329	0.0	1051380	TRIAL	n/a	n/a	n/a	-999	3	[0, 0, 0]	n/a	FR1	0	R1094T
709.329	10.428	1051380	COUNTDOWN_START	n/a	n/a	n/a	-999	3	[0, 0, 0]	n/a	FR1	0	R1094T
719.757	0.006	1061807	COUNTDOWN_END	n/a	n/a	n/a	-999	3	[0, 0, 0]	n/a	FR1	0	R1094T
719.763	2.401	1061813	ORIENT	n/a	n/a	n/a	-999	3	[0, 0, 0]	n/a	FR1	0	R1094T
722.164	2.583	1064214	WORD	n/a	wordpools/wordpool_SP.txt	PASTA	1	3	[0, 0, 0]	n/a	FR1	0	R1094T
724.747	2.402	1066797	WORD	n/a	wordpools/wordpool_SP.txt	TRAJE	2	3	[0, 0, 0]	n/a	FR1	0	R1094T
727.149	2.616	1069199	WORD	n/a	wordpools/wordpool_SP.txt	PULGAR	3	3	[0, 0, 0]	n/a	FR1	0	R1094T
729.765	2.534	1071815	WORD	n/a	wordpools/wordpool_SP.txt	JEFE	4	3	[0, 0, 0]	n/a	FR1	0	R1094T
732.299	2.467	1074349	WORD	n/a	wordpools/wordpool_SP.txt	JUEZ	5	3	[0, 0, 0]	n/a	FR1	0	R1094T
734.766	2.468	1076815	WORD	n/a	wordpools/wordpool_SP.txt	BANCO	6	3	[0, 0, 0]	n/a	FR1	0	R1094T
737.234	2.516	1079283	WORD	n/a	wordpools/wordpool_SP.txt	PRECIPICIO	7	3	[0, 0, 0]	n/a	FR1	0	R1094T
739.75	2.435	1081799	WORD	n/a	wordpools/wordpool_SP.txt	LANZA	8	3	[0, 0, 0]	n/a	FR1	0	R1094T
742.185	2.599	1084234	WORD	n/a	wordpools/wordpool_SP.txt	MONEDA	9	3	[0, 0, 0]	n/a	FR1	0	R1094T
744.784	2.418	1086833	WORD	n/a	wordpools/wordpool_SP.txt	FRIJOL	10	3	[0, 0, 0]	n/a	FR1	0	R1094T
747.202	2.516	1089251	WORD	n/a	wordpools/wordpool_SP.txt	ARROZ	11	3	[0, 0, 0]	n/a	FR1	0	R1094T
749.718	1.601	1091767	WORD	n/a	wordpools/wordpool_SP.txt	ALCES	12	3	[0, 0, 0]	n/a	FR1	0	R1094T
751.319	0.001	1093368	DISTRACT_START	n/a	n/a	n/a	-999	3	[0, 0, 0]	n/a	FR1	0	R1094T
751.32	0.016	1093369	START	n/a	n/a	n/a	-999	3	[-999, -999, -999]	n/a	FR1	0	R1094T
751.336	26.832	1093385	PROB	26.832	n/a	n/a	-999	3	[9, 5, 4]	18	FR1	0	R1094T
778.168	0.006	1120215	STOP	n/a	n/a	n/a	-999	3	[-999, -999, -999]	n/a	FR1	0	R1094T
778.174	1.035	1120221	DISTRACT_END	n/a	n/a	n/a	-999	3	[0, 0, 0]	n/a	FR1	0	R1094T
779.209	2.935	1121256	REC_START	n/a	n/a	n/a	-999	3	[0, 0, 0]	n/a	FR1	0	R1094T
782.144	3.448	1124191	REC_WORD	3.448	n/a	FRIJOL	10	3	[0, 0, 0]	n/a	FR1	0	R1094T
785.592	6.862	1127639	REC_WORD	6.862	n/a	ARROZ	11	3	[0, 0, 0]	n/a	FR1	0	R1094T
792.454	16.766	1134501	REC_WORD	16.766	n/a	MONEDA	9	3	[0, 0, 0]	n/a	FR1	0	R1094T
809.22	2.944	1151266	REC_END	n/a	n/a	n/a	-999	3	[0, 0, 0]	n/a	FR1	0	R1094T
812.164	0.0	1154210	COUNTDOWN_START	n/a	n/a	n/a	-999	4	[0, 0, 0]	n/a	FR1	0	R1094T
812.164	10.428	1154210	TRIAL	n/a	n/a	n/a	-999	4	[0, 0, 0]	n/a	FR1	0	R1094T
822.592	0.006	1164637	COUNTDOWN_END	n/a	n/a	n/a	-999	4	[0, 0, 0]	n/a	FR1	0	R1094T
822.598	2.568	1164643	ORIENT	n/a	n/a	n/a	-999	4	[0, 0, 0]	n/a	FR1	0	R1094T
825.166	2.583	1167211	WORD	n/a	wordpools/wordpool_SP.txt	TARRO	1	4	[0, 0, 0]	n/a	FR1	0	R1094T
827.749	2.552	1169794	WORD	n/a	wordpools/wordpool_SP.txt	TORMENTA	2	4	[0, 0, 0]	n/a	FR1	0	R1094T
830.301	2.432	1172346	WORD	n/a	wordpools/wordpool_SP.txt	REMO	3	4	[0, 0, 0]	n/a	FR1	0	R1094T
832.733	2.485	1174778	WORD	n/a	wordpools/wordpool_SP.txt	ESCALERA	4	4	[0, 0, 0]	n/a	FR1	0	R1094T
835.218	2.466	1177263	WORD	n/a	wordpools/wordpool_SP.txt	GUSANO	5	4	[0, 0, 0]	n/a	FR1	0	R1094T
837.684	2.502	1179728	WORD	n/a	wordpools/wordpool_SP.txt	POLILLA	6	4	[0, 0, 0]	n/a	FR1	0	R1094T
840.186	2.533	1182230	WORD	n/a	wordpools/wordpool_SP.txt	JABON	7	4	[0, 0, 0]	n/a	FR1	0	R1094T
842.719	2.518	1184763	WORD	n/a	wordpools/wordpool_SP.txt	TRAPO	8	4	[0, 0, 0]	n/a	FR1	0	R1094T
845.237	2.499	1187281	WORD	n/a	wordpools/wordpool_SP.txt	TELARANA	9	4	[0, 0, 0]	n/a	FR1	0	R1094T
847.736	2.435	1189780	WORD	n/a	wordpools/wordpool_SP.txt	FICHA	10	4	[0, 0, 0]	n/a	FR1	0	R1094T
850.171	2.516	1192215	WORD	n/a	wordpools/wordpool_SP.txt	GRUA	11	4	[0, 0, 0]	n/a	FR1	0	R1094T
852.687	1.618	1194731	WORD	n/a	wordpools/wordpool_SP.txt	SORBETE	12	4	[0, 0, 0]	n/a	FR1	0	R1094T
854.305	0.001	1196349	DISTRACT_START	n/a	n/a	n/a	-999	4	[0, 0, 0]	n/a	FR1	0	R1094T
854.306	0.016	1196350	START	n/a	n/a	n/a	-999	4	[-999, -999, -999]	n/a	FR1	0	R1094T
854.322	7.734	1196366	PROB	7.734	n/a	n/a	-999	4	[1, 6, 8]	15	FR1	0	R1094T
862.056	9.252	1204099	PROB	9.252	n/a	n/a	-999	4	[3, 9, 5]	18	FR1	0	R1094T
871.308	10.82	1213351	PROB	10.82	n/a	n/a	-999	4	[6, 4, 5]	15	FR1	0	R1094T
882.128	0.015	1224170	STOP	n/a	n/a	n/a	-999	4	[-999, -999, -999]	n/a	FR1	0	R1094T
882.143	1.201	1224185	DISTRACT_END	n/a	n/a	n/a	-999	4	[0, 0, 0]	n/a	FR1	0	R1094T
883.344	30.0	1225386	REC_START	n/a	n/a	n/a	-999	4	[0, 0, 0]	n/a	FR1	0	R1094T
913.344	0.011	1255385	REC_WORD_VV	0.011	n/a	<>	-999	4	[0, 0, 0]	n/a	FR1	0	R1094T
913.355	4.477	1255396	REC_END	n/a	n/a	n/a	-999	4	[0, 0, 0]	n/a	FR1	0	R1094T
917.832	0.001	1259873	COUNTDOWN_START	n/a	n/a	n/a	-999	5	[0, 0, 0]	n/a	FR1	0	R1094T
917.833	10.427	1259874	TRIAL	n/a	n/a	n/a	-999	5	[0, 0, 0]	n/a	FR1	0	R1094T
928.26	0.008	1270300	COUNTDOWN_END	n/a	n/a	n/a	-999	5	[0, 0, 0]	n/a	FR1	0	R1094T
928.268	2.6	1270308	ORIENT	n/a	n/a	n/a	-999	5	[0, 0, 0]	n/a	FR1	0	R1094T
930.868	2.418	1272908	WORD	n/a	wordpools/wordpool_SP.txt	SOL	1	5	[0, 0, 0]	n/a	FR1	0	R1094T
933.286	2.433	1275326	WORD	n/a	wordpools/wordpool_SP.txt	PELICULA	2	5	[0, 0, 0]	n/a	FR1	0	R1094T
935.719	2.401	1277759	WORD	n/a	wordpools/wordpool_SP.txt	ESTRELLA	3	5	[0, 0, 0]	n/a	FR1	0	R1094T
938.12	2.55	1280160	WORD	n/a	wordpools/wordpool_SP.txt	GUANTE	4	5	[0, 0, 0]	n/a	FR1	0	R1094T
940.67	2.485	1282709	WORD	n/a	wordpools/wordpool_SP.txt	PLATO	5	5	[0, 0, 0]	n/a	FR1	0	R1094T
943.155	2.382	1285194	WORD	n/a	wordpools/wordpool_SP.txt	DURAZNO	6	5	[0, 0, 0]	n/a	FR1	0	R1094T
945.537	2.384	1287576	WORD	n/a	wordpools/wordpool_SP.txt	NUBE	7	5	[0, 0, 0]	n/a	FR1	0	R1094T
947.921	2.55	1289960	WORD	n/a	wordpools/wordpool_SP.txt	ARCA	8	5	[0, 0, 0]	n/a	FR1	0	R1094T
950.471	2.384	1292510	WORD	n/a	wordpools/wordpool_SP.txt	BARRO	9	5	[0, 0, 0]	n/a	FR1	0	R1094T
952.855	2.452	1294894	WORD	n/a	wordpools/wordpool_SP.txt	OREJA	10	5	[0, 0, 0]	n/a	FR1	0	R1094T
955.307	2.449	1297346	WORD	n/a	wordpools/wordpool_SP.txt	OLA	11	5	[0, 0, 0]	n/a	FR1	0	R1094T
957.756	1.618	1299795	WORD	n/a	wordpools/wordpool_SP.txt	LUNA	12	5	[0, 0, 0]	n/a	FR1	0	R1094T
959.374	0.001	1301412	DISTRACT_START	n/a	n/a	n/a	-999	5	[0, 0, 0]	n/a	FR1	0	R1094T
959.375	0.016	1301413	START	n/a	n/a	n/a	-999	5	[-999, -999, -999]	n/a	FR1	0	R1094T
959.391	7.45	1301429	PROB	7.45	n/a	n/a	-999	5	[1, 9, 4]	14	FR1	0	R1094T
966.841	11.869	1308879	PROB	11.869	n/a	n/a	-999	5	[7, 5, 9]	21	FR1	0	R1094T
978.71	7.586	1320748	PROB	7.586	n/a	n/a	-999	5	[3, 9, 5]	17	FR1	0	R1094T
986.296	0.016	1328333	STOP	n/a	n/a	n/a	-999	5	[-999, -999, -999]	n/a	FR1	0	R1094T
986.312	1.084	1328349	DISTRACT_END	n/a	n/a	n/a	-999	5	[0, 0, 0]	n/a	FR1	0	R1094T
987.396	2.372	1329433	REC_START	n/a	n/a	n/a	-999	5	[0, 0, 0]	n/a	FR1	0	R1094T
989.768	6.994	1331805	REC_WORD	6.994	n/a	SOL	1	5	[0, 0, 0]	n/a	FR1	0	R1094T
996.762	2.524	1338799	REC_WORD	2.524	n/a	TELARANA	-999	5	[0, 0, 0]	n/a	FR1	0	R1094T
999.286	3.899	1341323	REC_WORD	3.899	n/a	JABON	-999	5	[0, 0, 0]	n/a	FR1	0	R1094T
1003.185	14.224	1345221	REC_WORD	14.224	n/a	TARRO	-999	5	[0, 0, 0]	n/a	FR1	0	R1094T
1017.409	2.576	1359445	REC_END	n/a	n/a	n/a	-999	5	[0, 0, 0]	n/a	FR1	0	R1094T
1019.985	0.0	1362021	COUNTDOWN_START	n/a	n/a	n/a	-999	6	[0, 0, 0]	n/a	FR1	0	R1094T
1019.985	10.428	1362021	TRIAL	n/a	n/a	n/a	-999	6	[0, 0, 0]	n/a	FR1	0	R1094T
1030.413	0.006	1372448	COUNTDOWN_END	n/a	n/a	n/a	-999	6	[0, 0, 0]	n/a	FR1	0	R1094T
1030.419	2.602	1372454	ORIENT	n/a	n/a	n/a	-999	6	[0, 0, 0]	n/a	FR1	0	R1094T
1033.021	2.583	1375056	WORD	n/a	wordpools/wordpool_SP.txt	TAMBOR	1	6	[0, 0, 0]	n/a	FR1	0	R1094T
1035.604	2.618	1377639	WORD	n/a	wordpools/wordpool_SP.txt	CORAZON	2	6	[0, 0, 0]	n/a	FR1	0	R1094T
1038.222	2.449	1380257	WORD	n/a	wordpools/wordpool_SP.txt	ESPADA	3	6	[0, 0, 0]	n/a	FR1	0	R1094T
1040.671	2.452	1382706	WORD	n/a	wordpools/wordpool_SP.txt	BANCA	4	6	[0, 0, 0]	n/a	FR1	0	R1094T
1043.123	2.399	1385157	WORD	n/a	wordpools/wordpool_SP.txt	PIPA	5	6	[0, 0, 0]	n/a	FR1	0	R1094T
1045.522	2.568	1387556	WORD	n/a	wordpools/wordpool_SP.txt	VENTILADOR	6	6	[0, 0, 0]	n/a	FR1	0	R1094T
1048.09	2.433	1390124	WORD	n/a	wordpools/wordpool_SP.txt	CATRE	7	6	[0, 0, 0]	n/a	FR1	0	R1094T
1050.523	2.452	1392557	WORD	n/a	wordpools/wordpool_SP.txt	PAPALOTE	8	6	[0, 0, 0]	n/a	FR1	0	R1094T
1052.975	2.449	1395009	WORD	n/a	wordpools/wordpool_SP.txt	LABIO	9	6	[0, 0, 0]	n/a	FR1	0	R1094T
1055.424	2.384	1397458	WORD	n/a	wordpools/wordpool_SP.txt	CESPED	10	6	[0, 0, 0]	n/a	FR1	0	R1094T
1057.808	2.418	1399842	WORD	n/a	wordpools/wordpool_SP.txt	TENEDOR	11	6	[0, 0, 0]	n/a	FR1	0	R1094T
1060.226	1.616	1402260	WORD	n/a	wordpools/wordpool_SP.txt	HACHA	12	6	[0, 0, 0]	n/a	FR1	0	R1094T
1061.842	0.001	1403876	DISTRACT_START	n/a	n/a	n/a	-999	6	[0, 0, 0]	n/a	FR1	0	R1094T
1061.843	0.015	1403877	START	n/a	n/a	n/a	-999	6	[-999, -999, -999]	n/a	FR1	0	R1094T
1061.858	5.369	1403892	PROB	5.369	n/a	n/a	-999	6	[1, 7, 3]	11	FR1	0	R1094T
1067.227	9.118	1409260	PROB	9.118	n/a	n/a	-999	6	[6, 5, 7]	16	FR1	0	R1094T
1076.345	5.334	1418378	PROB	5.334	n/a	n/a	-999	6	[4, 1, 4]	9	FR1	0	R1094T
1081.679	15.561	1423712	PROB	15.561	n/a	n/a	-999	6	[5, 7, 8]	20	FR1	0	R1094T
1097.24	0.009	1439272	STOP	n/a	n/a	n/a	-999	6	[-999, -999, -999]	n/a	FR1	0	R1094T
1097.249	1.151	1439281	DISTRACT_END	n/a	n/a	n/a	-999	6	[0, 0, 0]	n/a	FR1	0	R1094T
1098.4	4.6	1440432	REC_START	n/a	n/a	n/a	-999	6	[0, 0, 0]	n/a	FR1	0	R1094T
1103.0	7.312	1445032	REC_WORD	7.312	n/a	VENTILADOR	6	6	[0, 0, 0]	n/a	FR1	0	R1094T
1110.312	18.097	1452343	REC_WORD	18.097	n/a	HACHA	12	6	[0, 0, 0]	n/a	FR1	0	R1094T
1128.409	2.195	1470439	REC_END	n/a	n/a	n/a	-999	6	[0, 0, 0]	n/a	FR1	0	R1094T
1130.604	0.001	1472634	COUNTDOWN_START	n/a	n/a	n/a	-999	7	[0, 0, 0]	n/a	FR1	0	R1094T
1130.605	10.427	1472635	TRIAL	n/a	n/a	n/a	-999	7	[0, 0, 0]	n/a	FR1	0	R1094T
1141.032	0.009	1483062	COUNTDOWN_END	n/a	n/a	n/a	-999	7	[0, 0, 0]	n/a	FR1	0	R1094T
1141.041	2.532	1483071	ORIENT	n/a	n/a	n/a	-999	7	[0, 0, 0]	n/a	FR1	0	R1094T
1143.573	2.418	1485603	WORD	n/a	wordpools/wordpool_SP.txt	PANTALONES	1	7	[0, 0, 0]	n/a	FR1	0	R1094T
1145.991	2.417	1488020	WORD	n/a	wordpools/wordpool_SP.txt	BOLIGRAFO	2	7	[0, 0, 0]	n/a	FR1	0	R1094T
1148.408	2.483	1490437	WORD	n/a	wordpools/wordpool_SP.txt	OVEJA	3	7	[0, 0, 0]	n/a	FR1	0	R1094T
1150.891	2.567	1492920	WORD	n/a	wordpools/wordpool_SP.txt	BANO	4	7	[0, 0, 0]	n/a	FR1	0	R1094T
1153.458	2.418	1495487	WORD	n/a	wordpools/wordpool_SP.txt	CAMA	5	7	[0, 0, 0]	n/a	FR1	0	R1094T
1155.876	2.55	1497905	WORD	n/a	wordpools/wordpool_SP.txt	SONRISA	6	7	[0, 0, 0]	n/a	FR1	0	R1094T
1158.426	2.585	1500455	WORD	n/a	wordpools/wordpool_SP.txt	COSTILLA	7	7	[0, 0, 0]	n/a	FR1	0	R1094T
1161.011	2.449	1503040	WORD	n/a	wordpools/wordpool_SP.txt	ESPUMA	8	7	[0, 0, 0]	n/a	FR1	0	R1094T
1163.46	2.401	1505489	WORD	n/a	wordpools/wordpool_SP.txt	CERDO	9	7	[0, 0, 0]	n/a	FR1	0	R1094T
1165.861	2.567	1507889	WORD	n/a	wordpools/wordpool_SP.txt	CUERVO	10	7	[0, 0, 0]	n/a	FR1	0	R1094T
1168.428	2.384	1510456	WORD	n/a	wordpools/wordpool_SP.txt	HILO	11	7	[0, 0, 0]	n/a	FR1	0	R1094T
1170.812	1.617	1512840	WORD	n/a	wordpools/wordpool_SP.txt	BANDEJA	12	7	[0, 0, 0]	n/a	FR1	0	R1094T
1172.429	0.0	1514457	DISTRACT_START	n/a	n/a	n/a	-999	7	[0, 0, 0]	n/a	FR1	0	R1094T
1172.429	0.016	1514457	START	n/a	n/a	n/a	-999	7	[-999, -999, -999]	n/a	FR1	0	R1094T
1172.445	8.67	1514473	PROB	8.67	n/a	n/a	-999	7	[4, 6, 9]	19	FR1	0	R1094T
1181.115	9.384	1523143	PROB	9.384	n/a	n/a	-999	7	[6, 7, 4]	17	FR1	0	R1094T
1190.499	8.94	1532526	PROB	8.94	n/a	n/a	-999	7	[4, 8, 9]	21	FR1	0	R1094T
1199.439	0.011	1541466	STOP	n/a	n/a	n/a	-999	7	[-999, -999, -999]	n/a	FR1	0	R1094T
1199.45	1.034	1541477	DISTRACT_END	n/a	n/a	n/a	-999	7	[0, 0, 0]	n/a	FR1	0	R1094T
1200.484	2.768	1542511	REC_START	n/a	n/a	n/a	-999	7	[0, 0, 0]	n/a	FR1	0	R1094T
1203.252	21.617	1545279	REC_WORD	21.617	n/a	OVEJA	3	7	[0, 0, 0]	n/a	FR1	0	R1094T
1224.869	5.626	1566895	REC_WORD	5.626	n/a	OREJA	-999	7	[0, 0, 0]	n/a	FR1	0	R1094T
1230.495	2.411	1572520	REC_END	n/a	n/a	n/a	-999	7	[0, 0, 0]	n/a	FR1	0	R1094T
1232.906	0.0	1574931	COUNTDOWN_START	n/a	n/a	n/a	-999	8	[0, 0, 0]	n/a	FR1	0	R1094T
1232.906	10.428	1574931	TRIAL	n/a	n/a	n/a	-999	8	[0, 0, 0]	n/a	FR1	0	R1094T
1243.334	0.009	1585359	COUNTDOWN_END	n/a	n/a	n/a	-999	8	[0, 0, 0]	n/a	FR1	0	R1094T
1243.343	2.516	1585368	ORIENT	n/a	n/a	n/a	-999	8	[0, 0, 0]	n/a	FR1	0	R1094T
1245.859	2.617	1587884	WORD	n/a	wordpools/wordpool_SP.txt	CANDADO	1	8	[0, 0, 0]	n/a	FR1	0	R1094T
1248.476	2.4	1590500	WORD	n/a	wordpools/wordpool_SP.txt	CHALECO	2	8	[0, 0, 0]	n/a	FR1	0	R1094T
1250.876	2.601	1592900	WORD	n/a	wordpools/wordpool_SP.txt	CASA	3	8	[0, 0, 0]	n/a	FR1	0	R1094T
1253.477	2.4	1595501	WORD	n/a	wordpools/wordpool_SP.txt	HABITACION	4	8	[0, 0, 0]	n/a	FR1	0	R1094T
1255.877	2.584	1597901	WORD	n/a	wordpools/wordpool_SP.txt	CORDERO	5	8	[0, 0, 0]	n/a	FR1	0	R1094T
1258.461	2.484	1600485	WORD	n/a	wordpools/wordpool_SP.txt	ROSA	6	8	[0, 0, 0]	n/a	FR1	0	R1094T
1260.945	2.584	1602969	WORD	n/a	wordpools/wordpool_SP.txt	CIELO	7	8	[0, 0, 0]	n/a	FR1	0	R1094T
1263.529	2.434	1605553	WORD	n/a	wordpools/wordpool_SP.txt	TAZA	8	8	[0, 0, 0]	n/a	FR1	0	R1094T
1265.963	2.533	1607987	WORD	n/a	wordpools/wordpool_SP.txt	PARED	9	8	[0, 0, 0]	n/a	FR1	0	R1094T
1268.496	2.367	1610519	WORD	n/a	wordpools/wordpool_SP.txt	TE	10	8	[0, 0, 0]	n/a	FR1	0	R1094T
1270.863	2.452	1612886	WORD	n/a	wordpools/wordpool_SP.txt	PEZUNA	11	8	[0, 0, 0]	n/a	FR1	0	R1094T
1273.315	1.616	1615338	WORD	n/a	wordpools/wordpool_SP.txt	TAZON	12	8	[0, 0, 0]	n/a	FR1	0	R1094T
1274.931	0.001	1616954	DISTRACT_START	n/a	n/a	n/a	-999	8	[0, 0, 0]	n/a	FR1	0	R1094T
1274.932	0.016	1616955	START	n/a	n/a	n/a	-999	8	[-999, -999, -999]	n/a	FR1	0	R1094T
1274.948	7.385	1616971	PROB	7.385	n/a	n/a	-999	8	[9, 2, 4]	15	FR1	0	R1094T
1282.333	8.517	1624356	PROB	8.517	n/a	n/a	-999	8	[8, 5, 3]	16	FR1	0	R1094T
1290.85	8.366	1632872	PROB	8.366	n/a	n/a	-999	8	[6, 7, 4]	17	FR1	0	R1094T
1299.216	0.003	1641238	STOP	n/a	n/a	n/a	-999	8	[-999, -999, -999]	n/a	FR1	0	R1094T
1299.219	1.217	1641241	DISTRACT_END	n/a	n/a	n/a	-999	8	[0, 0, 0]	n/a	FR1	0	R1094T
1300.436	1.626	1642458	REC_START	n/a	n/a	n/a	-999	8	[0, 0, 0]	n/a	FR1	0	R1094T
1302.062	10.999	1644084	REC_WORD	10.999	n/a	TAZON	12	8	[0, 0, 0]	n/a	FR1	0	R1094T
1313.061	17.385	1655082	REC_WORD	17.385	n/a	CORAZON	-999	8	[0, 0, 0]	n/a	FR1	0	R1094T
1330.446	2.63	1672466	REC_END	n/a	n/a	n/a	-999	8	[0, 0, 0]	n/a	FR1	0	R1094T
1333.076	0.0	1675096	TRIAL	n/a	n/a	n/a	-999	9	[0, 0, 0]	n/a	FR1	0	R1094T
1333.076	10.428	1675096	COUNTDOWN_START	n/a	n/a	n/a	-999	9	[0, 0, 0]	n/a	FR1	0	R1094T
1343.504	0.006	1685524	COUNTDOWN_END	n/a	n/a	n/a	-999	9	[0, 0, 0]	n/a	FR1	0	R1094T
1343.51	2.551	1685530	ORIENT	n/a	n/a	n/a	-999	9	[0, 0, 0]	n/a	FR1	0	R1094T
1346.061	2.566	1688081	WORD	n/a	wordpools/wordpool_SP.txt	TANQUE	1	9	[0, 0, 0]	n/a	FR1	0	R1094T
1348.627	2.552	1690647	WORD	n/a	wordpools/wordpool_SP.txt	PLANTA	2	9	[0, 0, 0]	n/a	FR1	0	R1094T
1351.179	2.549	1693198	WORD	n/a	wordpools/wordpool_SP.txt	JET	3	9	[0, 0, 0]	n/a	FR1	0	R1094T
1353.728	2.569	1695747	WORD	n/a	wordpools/wordpool_SP.txt	PLAYA	4	9	[0, 0, 0]	n/a	FR1	0	R1094T
1356.297	2.432	1698316	WORD	n/a	wordpools/wordpool_SP.txt	CAMIONETA	5	9	[0, 0, 0]	n/a	FR1	0	R1094T
1358.729	2.435	1700748	WORD	n/a	wordpools/wordpool_SP.txt	ALA	6	9	[0, 0, 0]	n/a	FR1	0	R1094T
1361.164	2.383	1703183	WORD	n/a	wordpools/wordpool_SP.txt	BOTE	7	9	[0, 0, 0]	n/a	FR1	0	R1094T
1363.547	2.585	1705566	WORD	n/a	wordpools/wordpool_SP.txt	TIBURON	8	9	[0, 0, 0]	n/a	FR1	0	R1094T
1366.132	2.382	1708151	WORD	n/a	wordpools/wordpool_SP.txt	LAMPARA	9	9	[0, 0, 0]	n/a	FR1	0	R1094T
1368.514	2.569	1710533	WORD	n/a	wordpools/wordpool_SP.txt	COPA	10	9	[0, 0, 0]	n/a	FR1	0	R1094T
1371.083	2.482	1713102	WORD	n/a	wordpools/wordpool_SP.txt	LLAMA	11	9	[0, 0, 0]	n/a	FR1	0	R1094T
1373.565	1.601	1715583	WORD	n/a	wordpools/wordpool_SP.txt	VASO	12	9	[0, 0, 0]	n/a	FR1	0	R1094T
1375.166	0.001	1717184	DISTRACT_START	n/a	n/a	n/a	-999	9	[0, 0, 0]	n/a	FR1	0	R1094T
1375.167	0.016	1717185	START	n/a	n/a	n/a	-999	9	[-999, -999, -999]	n/a	FR1	0	R1094T
1375.183	6.885	1717201	PROB	6.885	n/a	n/a	-999	9	[6, 2, 6]	14	FR1	0	R1094T
1382.068	5.284	1724086	PROB	5.284	n/a	n/a	-999	9	[1, 8, 3]	12	FR1	0	R1094T
1387.352	5.751	1729370	PROB	5.751	n/a	n/a	-999	9	[2, 5, 2]	9	FR1	0	R1094T
1393.103	5.64	1735120	PROB	5.64	n/a	n/a	-999	9	[2, 2, 8]	12	FR1	0	R1094T
1398.743	0.01	1740760	STOP	n/a	n/a	n/a	-999	9	[-999, -999, -999]	n/a	FR1	0	R1094T
1398.753	1.034	1740770	DISTRACT_END	n/a	n/a	n/a	-999	9	[0, 0, 0]	n/a	FR1	0	R1094T
1399.787	30.011	1741804	REC_START	n/a	n/a	n/a	-999	9	[0, 0, 0]	n/a	FR1	0	R1094T
1429.798	0.003	1771814	REC_WORD_VV	0.003	n/a	<>	-999	9	[0, 0, 0]	n/a	FR1	0	R1094T
1429.801	2.142	1771817	REC_END	n/a	n/a	n/a	-999	9	[0, 0, 0]	n/a	FR1	0	R1094T
1431.943	0.0	1773959	TRIAL	n/a	n/a	n/a	-999	10	[0, 0, 0]	n/a	FR1	0	R1094T
1431.943	10.428	1773959	COUNTDOWN_START	n/a	n/a	n/a	-999	10	[0, 0, 0]	n/a	FR1	0	R1094T
1442.371	0.008	1784386	COUNTDOWN_END	n/a	n/a	n/a	-999	10	[0, 0, 0]	n/a	FR1	0	R1094T
1442.379	2.416	1784394	ORIENT	n/a	n/a	n/a	-999	10	[0, 0, 0]	n/a	FR1	0	R1094T
1444.795	2.518	1786810	WORD	n/a	wordpools/wordpool_SP.txt	ESPONJA	1	10	[0, 0, 0]	n/a	FR1	0	R1094T
1447.313	2.6	1789328	WORD	n/a	wordpools/wordpool_SP.txt	POZO	2	10	[0, 0, 0]	n/a	FR1	0	R1094T
1449.913	2.6	1791928	WORD	n/a	wordpools/wordpool_SP.txt	CARACOL	3	10	[0, 0, 0]	n/a	FR1	0	R1094T
1452.513	2.501	1794528	WORD	n/a	wordpools/wordpool_SP.txt	VENADO	4	10	[0, 0, 0]	n/a	FR1	0	R1094T
1455.014	2.45	1797028	WORD	n/a	wordpools/wordpool_SP.txt	PALMA	5	10	[0, 0, 0]	n/a	FR1	0	R1094T
1457.464	2.367	1799478	WORD	n/a	wordpools/wordpool_SP.txt	LODO	6	10	[0, 0, 0]	n/a	FR1	0	R1094T
1459.831	2.435	1801845	WORD	n/a	wordpools/wordpool_SP.txt	DARDO	7	10	[0, 0, 0]	n/a	FR1	0	R1094T
1462.266	2.499	1804280	WORD	n/a	wordpools/wordpool_SP.txt	CARPA	8	10	[0, 0, 0]	n/a	FR1	0	R1094T
1464.765	2.502	1806779	WORD	n/a	wordpools/wordpool_SP.txt	PEZ	9	10	[0, 0, 0]	n/a	FR1	0	R1094T
1467.267	2.433	1809281	WORD	n/a	wordpools/wordpool_SP.txt	CAMARON	10	10	[0, 0, 0]	n/a	FR1	0	R1094T
1469.7	2.584	1811714	WORD	n/a	wordpools/wordpool_SP.txt	SERPIENTE	11	10	[0, 0, 0]	n/a	FR1	0	R1094T
1472.284	1.616	1814298	WORD	n/a	wordpools/wordpool_SP.txt	VID	12	10	[0, 0, 0]	n/a	FR1	0	R1094T
1473.9	0.001	1815914	DISTRACT_START	n/a	n/a	n/a	-999	10	[0, 0, 0]	n/a	FR1	0	R1094T
1473.901	0.016	1815915	START	n/a	n/a	n/a	-999	10	[-999, -999, -999]	n/a	FR1	0	R1094T
1473.917	9.386	1815931	PROB	9.386	n/a	n/a	-999	10	[9, 6, 4]	19	FR1	0	R1094T
1483.303	4.834	1825316	PROB	4.834	n/a	n/a	-999	10	[1, 1, 9]	11	FR1	0	R1094T
1488.137	6.454	1830150	PROB	6.454	n/a	n/a	-999	10	[1, 4, 3]	8	FR1	0	R1094T
1494.591	0.013	1836604	STOP	n/a	n/a	n/a	-999	10	[-999, -999, -999]	n/a	FR1	0	R1094T
1494.604	1.201	1836617	DISTRACT_END	n/a	n/a	n/a	-999	10	[0, 0, 0]	n/a	FR1	0	R1094T
1495.805	1.447	1837817	REC_START	n/a	n/a	n/a	-999	10	[0, 0, 0]	n/a	FR1	0	R1094T
1497.252	11.575	1839264	REC_WORD	11.575	n/a	TIBURON	-999	10	[0, 0, 0]	n/a	FR1	0	R1094T
1508.827	16.988	1850839	REC_WORD	16.988	n/a	CAMARON	10	10	[0, 0, 0]	n/a	FR1	0	R1094T
1525.815	3.062	1867826	REC_END	n/a	n/a	n/a	-999	10	[0, 0, 0]	n/a	FR1	0	R1094T
1528.877	0.0	1870888	TRIAL	n/a	n/a	n/a	-999	11	[0, 0, 0]	n/a	FR1	0	R1094T
1528.877	10.428	1870888	COUNTDOWN_START	n/a	n/a	n/a	-999	11	[0, 0, 0]	n/a	FR1	0	R1094T
1539.305	0.008	1881315	COUNTDOWN_END	n/a	n/a	n/a	-999	11	[0, 0, 0]	n/a	FR1	0	R1094T
1539.313	2.383	1881323	ORIENT	n/a	n/a	n/a	-999	11	[0, 0, 0]	n/a	FR1	0	R1094T
1541.696	2.518	1883706	WORD	n/a	wordpools/wordpool_SP.txt	VACA	1	11	[0, 0, 0]	n/a	FR1	0	R1094T
1544.214	2.6	1886224	WORD	n/a	wordpools/wordpool_SP.txt	TELEFONO	2	11	[0, 0, 0]	n/a	FR1	0	R1094T
1546.814	2.401	1888824	WORD	n/a	wordpools/wordpool_SP.txt	NINO	3	11	[0, 0, 0]	n/a	FR1	0	R1094T
1549.215	2.466	1891225	WORD	n/a	wordpools/wordpool_SP.txt	TARTA	4	11	[0, 0, 0]	n/a	FR1	0	R1094T
1551.681	2.468	1893691	WORD	n/a	wordpools/wordpool_SP.txt	PAN	5	11	[0, 0, 0]	n/a	FR1	0	R1094T
1554.149	2.483	1896159	WORD	n/a	wordpools/wordpool_SP.txt	BOLSO	6	11	[0, 0, 0]	n/a	FR1	0	R1094T
1556.632	2.518	1898642	WORD	n/a	wordpools/wordpool_SP.txt	MUNDO	7	11	[0, 0, 0]	n/a	FR1	0	R1094T
1559.15	2.5	1901159	WORD	n/a	wordpools/wordpool_SP.txt	RELOJ	8	11	[0, 0, 0]	n/a	FR1	0	R1094T
1561.65	2.451	1903659	WORD	n/a	wordpools/wordpool_SP.txt	VESTIDO	9	11	[0, 0, 0]	n/a	FR1	0	R1094T
1564.101	2.516	1906110	WORD	n/a	wordpools/wordpool_SP.txt	ESCUELA	10	11	[0, 0, 0]	n/a	FR1	0	R1094T
1566.617	2.485	1908626	WORD	n/a	wordpools/wordpool_SP.txt	MENTON	11	11	[0, 0, 0]	n/a	FR1	0	R1094T
1569.102	1.616	1911111	WORD	n/a	wordpools/wordpool_SP.txt	PISO	12	11	[0, 0, 0]	n/a	FR1	0	R1094T
1570.718	0.001	1912727	DISTRACT_START	n/a	n/a	n/a	-999	11	[0, 0, 0]	n/a	FR1	0	R1094T
1570.719	0.016	1912728	START	n/a	n/a	n/a	-999	11	[-999, -999, -999]	n/a	FR1	0	R1094T
1570.735	29.569	1912744	PROB	29.569	n/a	n/a	-999	11	[9, 1, 9]	19	FR1	0	R1094T
1600.304	0.003	1942311	STOP	n/a	n/a	n/a	-999	11	[-999, -999, -999]	n/a	FR1	0	R1094T
1600.307	1.184	1942314	DISTRACT_END	n/a	n/a	n/a	-999	11	[0, 0, 0]	n/a	FR1	0	R1094T
1601.491	29.994	1943498	REC_START	n/a	n/a	n/a	-999	11	[0, 0, 0]	n/a	FR1	0	R1094T
1631.485	0.016	1973491	REC_WORD_VV	0.016	n/a	<>	-999	11	[0, 0, 0]	n/a	FR1	0	R1094T
1631.501	2.663	1973507	REC_END	n/a	n/a	n/a	-999	11	[0, 0, 0]	n/a	FR1	0	R1094T
1634.164	0.0	1976170	TRIAL	n/a	n/a	n/a	-999	12	[0, 0, 0]	n/a	FR1	0	R1094T
1634.164	10.428	1976170	COUNTDOWN_START	n/a	n/a	n/a	-999	12	[0, 0, 0]	n/a	FR1	0	R1094T
1644.592	0.006	1986597	COUNTDOWN_END	n/a	n/a	n/a	-999	12	[0, 0, 0]	n/a	FR1	0	R1094T
1644.598	2.435	1986603	ORIENT	n/a	n/a	n/a	-999	12	[0, 0, 0]	n/a	FR1	0	R1094T
1647.033	2.399	1989038	WORD	n/a	wordpools/wordpool_SP.txt	LABERINTO	1	12	[0, 0, 0]	n/a	FR1	0	R1094T
1649.432	2.585	1991437	WORD	n/a	wordpools/wordpool_SP.txt	CARA	2	12	[0, 0, 0]	n/a	FR1	0	R1094T
1652.017	2.499	1994022	WORD	n/a	wordpools/wordpool_SP.txt	JARRON	3	12	[0, 0, 0]	n/a	FR1	0	R1094T
1654.516	2.485	1996521	WORD	n/a	wordpools/wordpool_SP.txt	ZANJA	4	12	[0, 0, 0]	n/a	FR1	0	R1094T
1657.001	2.616	1999006	WORD	n/a	wordpools/wordpool_SP.txt	BANDA	5	12	[0, 0, 0]	n/a	FR1	0	R1094T
1659.617	2.519	2001622	WORD	n/a	wordpools/wordpool_SP.txt	BOLA	6	12	[0, 0, 0]	n/a	FR1	0	R1094T
1662.136	2.582	2004140	WORD	n/a	wordpools/wordpool_SP.txt	CUADRADO	7	12	[0, 0, 0]	n/a	FR1	0	R1094T
1664.718	2.402	2006722	WORD	n/a	wordpools/wordpool_SP.txt	SILLA	8	12	[0, 0, 0]	n/a	FR1	0	R1094T
1667.12	2.383	2009124	WORD	n/a	wordpools/wordpool_SP.txt	CORDEL	9	12	[0, 0, 0]	n/a	FR1	0	R1094T
1669.503	2.484	2011507	WORD	n/a	wordpools/wordpool_SP.txt	TABLERO	10	12	[0, 0, 0]	n/a	FR1	0	R1094T
1671.987	2.5	2013991	WORD	n/a	wordpools/wordpool_SP.txt	AGUANIEVE	11	12	[0, 0, 0]	n/a	FR1	0	R1094T
1674.487	1.618	2016491	WORD	n/a	wordpools/wordpool_SP.txt	MURCIELAGO	12	12	[0, 0, 0]	n/a	FR1	0	R1094T
1676.105	0.001	2018109	DISTRACT_START	n/a	n/a	n/a	-999	12	[0, 0, 0]	n/a	FR1	0	R1094T
1676.106	0.015	2018110	START	n/a	n/a	n/a	-999	12	[-999, -999, -999]	n/a	FR1	0	R1094T
1676.121	5.417	2018125	PROB	5.417	n/a	n/a	-999	12	[9, 3, 1]	13	FR1	0	R1094T
1681.538	6.569	2023541	PROB	6.569	n/a	n/a	-999	12	[3, 1, 6]	10	FR1	0	R1094T
1688.107	7.334	2030110	PROB	7.334	n/a	n/a	-999	12	[6, 2, 5]	13	FR1	0	R1094T
1695.441	7.799	2037444	PROB	7.799	n/a	n/a	-999	12	[4, 3, 9]	16	FR1	0	R1094T
1703.24	0.02	2045242	STOP	n/a	n/a	n/a	-999	12	[-999, -999, -999]	n/a	FR1	0	R1094T
1703.26	1.199	2045262	DISTRACT_END	n/a	n/a	n/a	-999	12	[0, 0, 0]	n/a	FR1	0	R1094T
1704.459	10.738	2046461	REC_START	n/a	n/a	n/a	-999	12	[0, 0, 0]	n/a	FR1	0	R1094T
1715.197	19.276	2057199	REC_WORD	19.276	n/a	INTRUSION	-999	12	[0, 0, 0]	n/a	FR1	0	R1094T
1734.473	3.125	2076474	REC_END	n/a	n/a	n/a	-999	12	[0, 0, 0]	n/a	FR1	0	R1094T
1737.598	0.001	2079599	COUNTDOWN_START	n/a	n/a	n/a	-999	13	[0, 0, 0]	n/a	FR1	0	R1094T
1737.599	10.427	2079600	TRIAL	n/a	n/a	n/a	-999	13	[0, 0, 0]	n/a	FR1	0	R1094T
1748.026	0.009	2090026	COUNTDOWN_END	n/a	n/a	n/a	-999	13	[0, 0, 0]	n/a	FR1	0	R1094T
1748.035	2.582	2090035	ORIENT	n/a	n/a	n/a	-999	13	[0, 0, 0]	n/a	FR1	0	R1094T
1750.617	2.369	2092617	WORD	n/a	wordpools/wordpool_SP.txt	ABEJA	1	13	[0, 0, 0]	n/a	FR1	0	R1094T
1752.986	2.549	2094986	WORD	n/a	wordpools/wordpool_SP.txt	MADERA	2	13	[0, 0, 0]	n/a	FR1	0	R1094T
1755.535	2.551	2097535	WORD	n/a	wordpools/wordpool_SP.txt	RAIZ	3	13	[0, 0, 0]	n/a	FR1	0	R1094T
1758.086	2.583	2100086	WORD	n/a	wordpools/wordpool_SP.txt	NARIZ	4	13	[0, 0, 0]	n/a	FR1	0	R1094T
1760.669	2.468	2102669	WORD	n/a	wordpools/wordpool_SP.txt	GATO	5	13	[0, 0, 0]	n/a	FR1	0	R1094T
1763.137	2.433	2105136	WORD	n/a	wordpools/wordpool_SP.txt	MOFETA	6	13	[0, 0, 0]	n/a	FR1	0	R1094T
1765.57	2.435	2107569	WORD	n/a	wordpools/wordpool_SP.txt	RAMA	7	13	[0, 0, 0]	n/a	FR1	0	R1094T
1768.005	2.416	2110004	WORD	n/a	wordpools/wordpool_SP.txt	RANA	8	13	[0, 0, 0]	n/a	FR1	0	R1094T
1770.421	2.535	2112420	WORD	n/a	wordpools/wordpool_SP.txt	FRUTA	9	13	[0, 0, 0]	n/a	FR1	0	R1094T
1772.956	2.516	2114955	WORD	n/a	wordpools/wordpool_SP.txt	CALLE	10	13	[0, 0, 0]	n/a	FR1	0	R1094T
1775.472	2.618	2117471	WORD	n/a	wordpools/wordpool_SP.txt	TIENDA	11	13	[0, 0, 0]	n/a	FR1	0	R1094T
1778.09	1.616	2120089	WORD	n/a	wordpools/wordpool_SP.txt	MEJILLA	12	13	[0, 0, 0]	n/a	FR1	0	R1094T
1779.706	0.001	2121705	DISTRACT_START	n/a	n/a	n/a	-999	13	[0, 0, 0]	n/a	FR1	0	R1094T
1779.707	0.016	2121706	START	n/a	n/a	n/a	-999	13	[-999, -999, -999]	n/a	FR1	0	R1094T
1779.723	5.984	2121722	PROB	5.984	n/a	n/a	-999	13	[4, 8, 2]	14	FR1	0	R1094T
1785.707	4.685	2127705	PROB	4.685	n/a	n/a	-999	13	[7, 3, 2]	12	FR1	0	R1094T
1790.392	6.002	2132390	PROB	6.002	n/a	n/a	-999	13	[1, 4, 5]	10	FR1	0	R1094T
1796.394	5.021	2138392	PROB	5.021	n/a	n/a	-999	13	[5, 5, 3]	13	FR1	0	R1094T
1801.415	0.011	2143413	STOP	n/a	n/a	n/a	-999	13	[-999, -999, -999]	n/a	FR1	0	R1094T
1801.426	1.051	2143424	DISTRACT_END	n/a	n/a	n/a	-999	13	[0, 0, 0]	n/a	FR1	0	R1094T
1802.477	12.759	2144475	REC_START	n/a	n/a	n/a	-999	13	[0, 0, 0]	n/a	FR1	0	R1094T
1815.236	3.444	2157233	REC_WORD	3.444	n/a	ABEJA	1	13	[0, 0, 0]	n/a	FR1	0	R1094T
1818.68	13.811	2160677	REC_WORD	13.811	n/a	FRUTA	9	13	[0, 0, 0]	n/a	FR1	0	R1094T
1832.491	3.308	2174487	REC_END	n/a	n/a	n/a	-999	13	[0, 0, 0]	n/a	FR1	0	R1094T
1835.799	0.001	2177795	COUNTDOWN_START	n/a	n/a	n/a	-999	14	[0, 0, 0]	n/a	FR1	0	R1094T
1835.8	10.427	2177796	TRIAL	n/a	n/a	n/a	-999	14	[0, 0, 0]	n/a	FR1	0	R1094T
1846.227	0.009	2188222	COUNTDOWN_END	n/a	n/a	n/a	-999	14	[0, 0, 0]	n/a	FR1	0	R1094T
1846.236	2.483	2188231	ORIENT	n/a	n/a	n/a	-999	14	[0, 0, 0]	n/a	FR1	0	R1094T
1848.719	2.551	2190714	WORD	n/a	wordpools/wordpool_SP.txt	MAPA	1	14	[0, 0, 0]	n/a	FR1	0	R1094T
1851.27	2.383	2193265	WORD	n/a	wordpools/wordpool_SP.txt	UVA	2	14	[0, 0, 0]	n/a	FR1	0	R1094T
1853.653	2.384	2195648	WORD	n/a	wordpools/wordpool_SP.txt	MANGUERA	3	14	[0, 0, 0]	n/a	FR1	0	R1094T
1856.037	2.45	2198032	WORD	n/a	wordpools/wordpool_SP.txt	TREN	4	14	[0, 0, 0]	n/a	FR1	0	R1094T
1858.487	2.551	2200482	WORD	n/a	wordpools/wordpool_SP.txt	LIBRO	5	14	[0, 0, 0]	n/a	FR1	0	R1094T
1861.038	2.4	2203033	WORD	n/a	wordpools/wordpool_SP.txt	ARBOL	6	14	[0, 0, 0]	n/a	FR1	0	R1094T
1863.438	2.5	2205433	WORD	n/a	wordpools/wordpool_SP.txt	LLUVIA	7	14	[0, 0, 0]	n/a	FR1	0	R1094T
1865.938	2.584	2207932	WORD	n/a	wordpools/wordpool_SP.txt	AUTO	8	14	[0, 0, 0]	n/a	FR1	0	R1094T
1868.522	2.585	2210516	WORD	n/a	wordpools/wordpool_SP.txt	POLO	9	14	[0, 0, 0]	n/a	FR1	0	R1094T
1871.107	2.533	2213101	WORD	n/a	wordpools/wordpool_SP.txt	LLAVE	10	14	[0, 0, 0]	n/a	FR1	0	R1094T
1873.64	2.518	2215634	WORD	n/a	wordpools/wordpool_SP.txt	GUISANTE	11	14	[0, 0, 0]	n/a	FR1	0	R1094T
1876.158	1.616	2218152	WORD	n/a	wordpools/wordpool_SP.txt	CARCEL	12	14	[0, 0, 0]	n/a	FR1	0	R1094T
1877.774	0.001	2219768	DISTRACT_START	n/a	n/a	n/a	-999	14	[0, 0, 0]	n/a	FR1	0	R1094T
1877.775	0.016	2219769	START	n/a	n/a	n/a	-999	14	[-999, -999, -999]	n/a	FR1	0	R1094T
1877.791	6.918	2219785	PROB	6.918	n/a	n/a	-999	14	[1, 5, 9]	15	FR1	0	R1094T
1884.709	4.251	2226703	PROB	4.251	n/a	n/a	-999	14	[1, 9, 2]	12	FR1	0	R1094T
1888.96	8.068	2230953	PROB	8.068	n/a	n/a	-999	14	[5, 4, 7]	14	FR1	0	R1094T
1897.028	7.571	2239021	PROB	7.571	n/a	n/a	-999	14	[7, 7, 8]	22	FR1	0	R1094T
1904.599	0.013	2246592	STOP	n/a	n/a	n/a	-999	14	[-999, -999, -999]	n/a	FR1	0	R1094T
1904.612	1.184	2246605	DISTRACT_END	n/a	n/a	n/a	-999	14	[0, 0, 0]	n/a	FR1	0	R1094T
1905.796	3.553	2247789	REC_START	n/a	n/a	n/a	-999	14	[0, 0, 0]	n/a	FR1	0	R1094T
1909.349	9.811	2251341	REC_WORD	9.811	n/a	UVA	2	14	[0, 0, 0]	n/a	FR1	0	R1094T
1919.16	16.647	2261152	REC_WORD	16.647	n/a	GUISANTE	11	14	[0, 0, 0]	n/a	FR1	0	R1094T
1935.807	3.011	2277798	REC_END	n/a	n/a	n/a	-999	14	[0, 0, 0]	n/a	FR1	0	R1094T
1938.818	0.001	2280809	COUNTDOWN_START	n/a	n/a	n/a	-999	15	[0, 0, 0]	n/a	FR1	0	R1094T
1938.819	10.427	2280810	TRIAL	n/a	n/a	n/a	-999	15	[0, 0, 0]	n/a	FR1	0	R1094T
1949.246	0.009	2291236	COUNTDOWN_END	n/a	n/a	n/a	-999	15	[0, 0, 0]	n/a	FR1	0	R1094T
1949.255	2.616	2291245	ORIENT	n/a	n/a	n/a	-999	15	[0, 0, 0]	n/a	FR1	0	R1094T
1951.871	2.385	2293861	WORD	n/a	wordpools/wordpool_SP.txt	RASTRILLO	1	15	[0, 0, 0]	n/a	FR1	0	R1094T
1954.256	2.499	2296246	WORD	n/a	wordpools/wordpool_SP.txt	CORONA	2	15	[0, 0, 0]	n/a	FR1	0	R1094T
1956.755	2.401	2298745	WORD	n/a	wordpools/wordpool_SP.txt	DIENTE	3	15	[0, 0, 0]	n/a	FR1	0	R1094T
1959.156	2.583	2301146	WORD	n/a	wordpools/wordpool_SP.txt	DEDO	4	15	[0, 0, 0]	n/a	FR1	0	R1094T
1961.739	2.418	2303729	WORD	n/a	wordpools/wordpool_SP.txt	MAIZ	5	15	[0, 0, 0]	n/a	FR1	0	R1094T
1964.157	2.5	2306147	WORD	n/a	wordpools/wordpool_SP.txt	GUARDIA	6	15	[0, 0, 0]	n/a	FR1	0	R1094T
1966.657	2.401	2308647	WORD	n/a	wordpools/wordpool_SP.txt	ESCRITORIO	7	15	[0, 0, 0]	n/a	FR1	0	R1094T
1969.058	2.516	2311047	WORD	n/a	wordpools/wordpool_SP.txt	DIENTES	8	15	[0, 0, 0]	n/a	FR1	0	R1094T
1971.574	2.635	2313563	WORD	n/a	wordpools/wordpool_SP.txt	HERRAMIENTA	9	15	[0, 0, 0]	n/a	FR1	0	R1094T
1974.209	2.583	2316198	WORD	n/a	wordpools/wordpool_SP.txt	PUENTE	10	15	[0, 0, 0]	n/a	FR1	0	R1094T
1976.792	2.485	2318781	WORD	n/a	wordpools/wordpool_SP.txt	RUEDA	11	15	[0, 0, 0]	n/a	FR1	0	R1094T
1979.277	1.616	2321266	WORD	n/a	wordpools/wordpool_SP.txt	CUBO	12	15	[0, 0, 0]	n/a	FR1	0	R1094T
1980.893	0.001	2322882	DISTRACT_START	n/a	n/a	n/a	-999	15	[0, 0, 0]	n/a	FR1	0	R1094T
1980.894	0.015	2322883	START	n/a	n/a	n/a	-999	15	[-999, -999, -999]	n/a	FR1	0	R1094T
1980.909	6.968	2322898	PROB	6.968	n/a	n/a	-999	15	[9, 5, 1]	15	FR1	0	R1094T
1987.877	8.652	2329866	PROB	8.652	n/a	n/a	-999	15	[8, 9, 5]	22	FR1	0	R1094T
1996.529	3.668	2338517	PROB	3.668	n/a	n/a	-999	15	[5, 5, 1]	11	FR1	0	R1094T
2000.197	3.891	2342185	PROB	3.891	n/a	n/a	-999	15	[1, 7, 1]	9	FR1	0	R1094T
2004.088	0.01	2346076	STOP	n/a	n/a	n/a	-999	15	[-999, -999, -999]	n/a	FR1	0	R1094T
2004.098	1.05	2346086	DISTRACT_END	n/a	n/a	n/a	-999	15	[0, 0, 0]	n/a	FR1	0	R1094T
2005.148	4.424	2347136	REC_START	n/a	n/a	n/a	-999	15	[0, 0, 0]	n/a	FR1	0	R1094T
2009.572	3.6	2351560	REC_WORD	3.6	n/a	RASTRILLO	1	15	[0, 0, 0]	n/a	FR1	0	R1094T
2013.172	21.99	2355159	REC_WORD	21.99	n/a	DEDO	4	15	[0, 0, 0]	n/a	FR1	0	R1094T
2035.162	3.241	2377148	REC_END	n/a	n/a	n/a	-999	15	[0, 0, 0]	n/a	FR1	0	R1094T
2038.403	0.0	2380389	TRIAL	n/a	n/a	n/a	-999	16	[0, 0, 0]	n/a	FR1	0	R1094T
2038.403	10.428	2380389	COUNTDOWN_START	n/a	n/a	n/a	-999	16	[0, 0, 0]	n/a	FR1	0	R1094T
2048.831	0.007	2390817	COUNTDOWN_END	n/a	n/a	n/a	-999	16	[0, 0, 0]	n/a	FR1	0	R1094T
2048.838	2.502	2390824	ORIENT	n/a	n/a	n/a	-999	16	[0, 0, 0]	n/a	FR1	0	R1094T
2051.34	2.549	2393325	WORD	n/a	wordpools/wordpool_SP.txt	PERRO	1	16	[0, 0, 0]	n/a	FR1	0	R1094T
2053.889	2.502	2395874	WORD	n/a	wordpools/wordpool_SP.txt	CABRA	2	16	[0, 0, 0]	n/a	FR1	0	R1094T
2056.391	2.416	2398376	WORD	n/a	wordpools/wordpool_SP.txt	GALLINA	3	16	[0, 0, 0]	n/a	FR1	0	R1094T
2058.807	2.401	2400792	WORD	n/a	wordpools/wordpool_SP.txt	PATO	4	16	[0, 0, 0]	n/a	FR1	0	R1094T
2061.208	2.533	2403193	WORD	n/a	wordpools/wordpool_SP.txt	MASCOTA	5	16	[0, 0, 0]	n/a	FR1	0	R1094T
2063.741	2.635	2405726	WORD	n/a	wordpools/wordpool_SP.txt	CUCHARA	6	16	[0, 0, 0]	n/a	FR1	0	R1094T
2066.376	2.499	2408361	WORD	n/a	wordpools/wordpool_SP.txt	RUBOR	7	16	[0, 0, 0]	n/a	FR1	0	R1094T
2068.875	2.419	2410860	WORD	n/a	wordpools/wordpool_SP.txt	CAMION	8	16	[0, 0, 0]	n/a	FR1	0	R1094T
2071.294	2.516	2413279	WORD	n/a	wordpools/wordpool_SP.txt	PULGA	9	16	[0, 0, 0]	n/a	FR1	0	R1094T
2073.81	2.551	2415794	WORD	n/a	wordpools/wordpool_SP.txt	JEEP	10	16	[0, 0, 0]	n/a	FR1	0	R1094T
2076.361	2.533	2418345	WORD	n/a	wordpools/wordpool_SP.txt	TOSTADA	11	16	[0, 0, 0]	n/a	FR1	0	R1094T
2078.894	1.617	2420878	WORD	n/a	wordpools/wordpool_SP.txt	RATA	12	16	[0, 0, 0]	n/a	FR1	0	R1094T
2080.511	0.001	2422495	DISTRACT_START	n/a	n/a	n/a	-999	16	[0, 0, 0]	n/a	FR1	0	R1094T
2080.512	0.016	2422496	START	n/a	n/a	n/a	-999	16	[-999, -999, -999]	n/a	FR1	0	R1094T
2080.528	5.917	2422512	PROB	5.917	n/a	n/a	-999	16	[1, 5, 8]	14	FR1	0	R1094T
2086.445	9.269	2428429	PROB	9.269	n/a	n/a	-999	16	[9, 5, 7]	21	FR1	0	R1094T
2095.714	8.278	2437697	PROB	8.278	n/a	n/a	-999	16	[9, 4, 8]	21	FR1	0	R1094T
2103.992	0.007	2445975	STOP	n/a	n/a	n/a	-999	16	[-999, -999, -999]	n/a	FR1	0	R1094T
2103.999	1.068	2445982	DISTRACT_END	n/a	n/a	n/a	-999	16	[0, 0, 0]	n/a	FR1	0	R1094T
2105.067	26.582	2447050	REC_START	n/a	n/a	n/a	-999	16	[0, 0, 0]	n/a	FR1	0	R1094T
2131.649	3.427	2473631	REC_WORD	3.427	n/a	GALLINA	3	16	[0, 0, 0]	n/a	FR1	0	R1094T
2135.076	2.678	2477057	REC_END	n/a	n/a	n/a	-999	16	[0, 0, 0]	n/a	FR1	0	R1094T
2137.754	0.001	2479735	COUNTDOWN_START	n/a	n/a	n/a	-999	17	[0, 0, 0]	n/a	FR1	0	R1094T
2137.755	10.427	2479736	TRIAL	n/a	n/a	n/a	-999	17	[0, 0, 0]	n/a	FR1	0	R1094T
2148.182	0.009	2490163	COUNTDOWN_END	n/a	n/a	n/a	-999	17	[0, 0, 0]	n/a	FR1	0	R1094T
2148.191	2.499	2490172	ORIENT	n/a	n/a	n/a	-999	17	[0, 0, 0]	n/a	FR1	0	R1094T
2150.69	2.602	2492671	WORD	n/a	wordpools/wordpool_SP.txt	LADRILLO	1	17	[0, 0, 0]	n/a	FR1	0	R1094T
2153.292	2.399	2495273	WORD	n/a	wordpools/wordpool_SP.txt	CUERDA	2	17	[0, 0, 0]	n/a	FR1	0	R1094T
2155.691	2.418	2497671	WORD	n/a	wordpools/wordpool_SP.txt	CARNET	3	17	[0, 0, 0]	n/a	FR1	0	R1094T
2158.109	2.566	2500089	WORD	n/a	wordpools/wordpool_SP.txt	EFECTIVO	4	17	[0, 0, 0]	n/a	FR1	0	R1094T
2160.675	2.569	2502655	WORD	n/a	wordpools/wordpool_SP.txt	TALLO	5	17	[0, 0, 0]	n/a	FR1	0	R1094T
2163.244	2.432	2505224	WORD	n/a	wordpools/wordpool_SP.txt	OSO	6	17	[0, 0, 0]	n/a	FR1	0	R1094T
2165.676	2.418	2507656	WORD	n/a	wordpools/wordpool_SP.txt	BOMBA	7	17	[0, 0, 0]	n/a	FR1	0	R1094T
2168.094	2.4	2510074	WORD	n/a	wordpools/wordpool_SP.txt	PAYASO	8	17	[0, 0, 0]	n/a	FR1	0	R1094T
2170.494	2.618	2512474	WORD	n/a	wordpools/wordpool_SP.txt	CHISPA	9	17	[0, 0, 0]	n/a	FR1	0	R1094T
2173.112	2.55	2515092	WORD	n/a	wordpools/wordpool_SP.txt	ORO	10	17	[0, 0, 0]	n/a	FR1	0	R1094T
2175.662	2.401	2517641	WORD	n/a	wordpools/wordpool_SP.txt	DULCE	11	17	[0, 0, 0]	n/a	FR1	0	R1094T
2178.063	1.616	2520042	WORD	n/a	wordpools/wordpool_SP.txt	ROCA	12	17	[0, 0, 0]	n/a	FR1	0	R1094T
2179.679	0.001	2521658	DISTRACT_START	n/a	n/a	n/a	-999	17	[0, 0, 0]	n/a	FR1	0	R1094T
2179.68	0.016	2521659	START	n/a	n/a	n/a	-999	17	[-999, -999, -999]	n/a	FR1	0	R1094T
2179.696	5.134	2521675	PROB	5.134	n/a	n/a	-999	17	[7, 1, 3]	11	FR1	0	R1094T
2184.83	12.919	2526809	PROB	12.919	n/a	n/a	-999	17	[7, 7, 9]	25	FR1	0	R1094T
2197.749	8.858	2539727	PROB	8.858	n/a	n/a	-999	17	[4, 5, 8]	17	FR1	0	R1094T
2206.607	0.01	2548585	STOP	n/a	n/a	n/a	-999	17	[-999, -999, -999]	n/a	FR1	0	R1094T
2206.617	1.201	2548595	DISTRACT_END	n/a	n/a	n/a	-999	17	[0, 0, 0]	n/a	FR1	0	R1094T
2207.818	17.887	2549796	REC_START	n/a	n/a	n/a	-999	17	[0, 0, 0]	n/a	FR1	0	R1094T
2225.705	3.235	2567682	REC_WORD	3.235	n/a	ORO	10	17	[0, 0, 0]	n/a	FR1	0	R1094T
2228.94	8.888	2570917	REC_WORD	8.888	n/a	CARNET	3	17	[0, 0, 0]	n/a	FR1	0	R1094T
2237.828	2.829	2579804	REC_END	n/a	n/a	n/a	-999	17	[0, 0, 0]	n/a	FR1	0	R1094T
2240.657	0.0	2582633	TRIAL	n/a	n/a	n/a	-999	18	[0, 0, 0]	n/a	FR1	0	R1094T
2240.657	10.428	2582633	COUNTDOWN_START	n/a	n/a	n/a	-999	18	[0, 0, 0]	n/a	FR1	0	R1094T
2251.085	0.008	2593061	COUNTDOWN_END	n/a	n/a	n/a	-999	18	[0, 0, 0]	n/a	FR1	0	R1094T
2251.093	2.616	2593069	ORIENT	n/a	n/a	n/a	-999	18	[0, 0, 0]	n/a	FR1	0	R1094T
2253.709	2.618	2595685	WORD	n/a	wordpools/wordpool_SP.txt	CAPA	1	18	[0, 0, 0]	n/a	FR1	0	R1094T
2256.327	2.383	2598303	WORD	n/a	wordpools/wordpool_SP.txt	SOGA	2	18	[0, 0, 0]	n/a	FR1	0	R1094T
2258.71	2.368	2600685	WORD	n/a	wordpools/wordpool_SP.txt	MUELLE	3	18	[0, 0, 0]	n/a	FR1	0	R1094T
2261.078	2.566	2603053	WORD	n/a	wordpools/wordpool_SP.txt	FUERTE	4	18	[0, 0, 0]	n/a	FR1	0	R1094T
2263.644	2.551	2605619	WORD	n/a	wordpools/wordpool_SP.txt	VAPOR	5	18	[0, 0, 0]	n/a	FR1	0	R1094T
2266.195	2.617	2608170	WORD	n/a	wordpools/wordpool_SP.txt	VELA	6	18	[0, 0, 0]	n/a	FR1	0	R1094T
2268.812	2.568	2610787	WORD	n/a	wordpools/wordpool_SP.txt	LIMO	7	18	[0, 0, 0]	n/a	FR1	0	R1094T
2271.38	2.584	2613355	WORD	n/a	wordpools/wordpool_SP.txt	ANZUELO	8	18	[0, 0, 0]	n/a	FR1	0	R1094T
2273.964	2.433	2615939	WORD	n/a	wordpools/wordpool_SP.txt	PRINCIPE	9	18	[0, 0, 0]	n/a	FR1	0	R1094T
2276.397	2.483	2618372	WORD	n/a	wordpools/wordpool_SP.txt	BANDERA	10	18	[0, 0, 0]	n/a	FR1	0	R1094T
2278.88	2.452	2620854	WORD	n/a	wordpools/wordpool_SP.txt	MAR	11	18	[0, 0, 0]	n/a	FR1	0	R1094T
2281.332	1.617	2623306	WORD	n/a	wordpools/wordpool_SP.txt	CUERNO	12	18	[0, 0, 0]	n/a	FR1	0	R1094T
2282.949	0.001	2624923	DISTRACT_START	n/a	n/a	n/a	-999	18	[0, 0, 0]	n/a	FR1	0	R1094T
2282.95	0.015	2624924	START	n/a	n/a	n/a	-999	18	[-999, -999, -999]	n/a	FR1	0	R1094T
2282.965	9.584	2624939	PROB	9.584	n/a	n/a	-999	18	[9, 4, 8]	21	FR1	0	R1094T
2292.549	5.301	2634523	PROB	5.301	n/a	n/a	-999	18	[4, 4, 2]	10	FR1	0	R1094T
2297.85	6.005	2639824	PROB	6.005	n/a	n/a	-999	18	[4, 2, 7]	13	FR1	0	R1094T
2303.855	0.013	2645828	STOP	n/a	n/a	n/a	-999	18	[-999, -999, -999]	n/a	FR1	0	R1094T
2303.868	1.034	2645841	DISTRACT_END	n/a	n/a	n/a	-999	18	[0, 0, 0]	n/a	FR1	0	R1094T
2304.902	1.296	2646875	REC_START	n/a	n/a	n/a	-999	18	[0, 0, 0]	n/a	FR1	0	R1094T
2306.198	28.718	2648171	REC_WORD	28.718	n/a	ANZUELO	8	18	[0, 0, 0]	n/a	FR1	0	R1094T
2334.916	2.692	2676888	REC_END	n/a	n/a	n/a	-999	18	[0, 0, 0]	n/a	FR1	0	R1094T
2337.608	0.0	2679580	TRIAL	n/a	n/a	n/a	-999	19	[0, 0, 0]	n/a	FR1	0	R1094T
2337.608	10.428	2679580	COUNTDOWN_START	n/a	n/a	n/a	-999	19	[0, 0, 0]	n/a	FR1	0	R1094T
2348.036	0.008	2690007	COUNTDOWN_END	n/a	n/a	n/a	-999	19	[0, 0, 0]	n/a	FR1	0	R1094T
2348.044	2.583	2690015	ORIENT	n/a	n/a	n/a	-999	19	[0, 0, 0]	n/a	FR1	0	R1094T
2350.627	2.418	2692598	WORD	n/a	wordpools/wordpool_SP.txt	TIZA	1	19	[0, 0, 0]	n/a	FR1	0	R1094T
2353.045	2.516	2695016	WORD	n/a	wordpools/wordpool_SP.txt	HIELO	2	19	[0, 0, 0]	n/a	FR1	0	R1094T
2355.561	2.435	2697532	WORD	n/a	wordpools/wordpool_SP.txt	CONO	3	19	[0, 0, 0]	n/a	FR1	0	R1094T
2357.996	2.383	2699967	WORD	n/a	wordpools/wordpool_SP.txt	MALEZA	4	19	[0, 0, 0]	n/a	FR1	0	R1094T
2360.379	2.467	2702350	WORD	n/a	wordpools/wordpool_SP.txt	MULA	5	19	[0, 0, 0]	n/a	FR1	0	R1094T
2362.846	2.451	2704816	WORD	n/a	wordpools/wordpool_SP.txt	COLA	6	19	[0, 0, 0]	n/a	FR1	0	R1094T
2365.297	2.399	2707267	WORD	n/a	wordpools/wordpool_SP.txt	NIEVE	7	19	[0, 0, 0]	n/a	FR1	0	R1094T
2367.696	2.519	2709666	WORD	n/a	wordpools/wordpool_SP.txt	NIEBLA	8	19	[0, 0, 0]	n/a	FR1	0	R1094T
2370.215	2.399	2712185	WORD	n/a	wordpools/wordpool_SP.txt	ESCUDO	9	19	[0, 0, 0]	n/a	FR1	0	R1094T
2372.614	2.551	2714584	WORD	n/a	wordpools/wordpool_SP.txt	PARQUE	10	19	[0, 0, 0]	n/a	FR1	0	R1094T
2375.165	2.483	2717135	WORD	n/a	wordpools/wordpool_SP.txt	SIGNO	11	19	[0, 0, 0]	n/a	FR1	0	R1094T
2377.648	1.618	2719618	WORD	n/a	wordpools/wordpool_SP.txt	CAMISA	12	19	[0, 0, 0]	n/a	FR1	0	R1094T
2379.266	0.001	2721236	DISTRACT_START	n/a	n/a	n/a	-999	19	[0, 0, 0]	n/a	FR1	0	R1094T
2379.267	0.016	2721237	START	n/a	n/a	n/a	-999	19	[-999, -999, -999]	n/a	FR1	0	R1094T
2379.283	7.084	2721253	PROB	7.084	n/a	n/a	-999	19	[1, 6, 7]	14	FR1	0	R1094T
2386.367	8.068	2728336	PROB	8.068	n/a	n/a	-999	19	[8, 6, 9]	23	FR1	0	R1094T
2394.435	5.18	2736404	PROB	5.18	n/a	n/a	-999	19	[2, 3, 6]	11	FR1	0	R1094T
2399.615	0.004	2741584	STOP	n/a	n/a	n/a	-999	19	[-999, -999, -999]	n/a	FR1	0	R1094T
2399.619	1.117	2741588	DISTRACT_END	n/a	n/a	n/a	-999	19	[0, 0, 0]	n/a	FR1	0	R1094T
2400.736	3.446	2742705	REC_START	n/a	n/a	n/a	-999	19	[0, 0, 0]	n/a	FR1	0	R1094T
2404.182	9.09	2746150	REC_WORD	9.09	n/a	TIZA	1	19	[0, 0, 0]	n/a	FR1	0	R1094T
2413.272	17.478	2755240	REC_WORD	17.478	n/a	MULA	5	19	[0, 0, 0]	n/a	FR1	0	R1094T
2430.75	2.658	2772717	REC_END	n/a	n/a	n/a	-999	19	[0, 0, 0]	n/a	FR1	0	R1094T
2433.408	0.001	2775375	COUNTDOWN_START	n/a	n/a	n/a	-999	20	[0, 0, 0]	n/a	FR1	0	R1094T
2433.409	10.427	2775376	TRIAL	n/a	n/a	n/a	-999	20	[0, 0, 0]	n/a	FR1	0	R1094T
2443.836	0.008	2785802	COUNTDOWN_END	n/a	n/a	n/a	-999	20	[0, 0, 0]	n/a	FR1	0	R1094T
2443.844	2.534	2785810	ORIENT	n/a	n/a	n/a	-999	20	[0, 0, 0]	n/a	FR1	0	R1094T
2446.378	2.45	2788344	WORD	n/a	wordpools/wordpool_SP.txt	ESQUI	1	20	[0, 0, 0]	n/a	FR1	0	R1094T
2448.828	2.401	2790794	WORD	n/a	wordpools/wordpool_SP.txt	AVE	2	20	[0, 0, 0]	n/a	FR1	0	R1094T
2451.229	2.566	2793195	WORD	n/a	wordpools/wordpool_SP.txt	PUERTA	3	20	[0, 0, 0]	n/a	FR1	0	R1094T
2453.795	2.402	2795761	WORD	n/a	wordpools/wordpool_SP.txt	BUHO	4	20	[0, 0, 0]	n/a	FR1	0	R1094T
2456.197	2.566	2798163	WORD	n/a	wordpools/wordpool_SP.txt	SOPA	5	20	[0, 0, 0]	n/a	FR1	0	R1094T
2458.763	2.401	2800729	WORD	n/a	wordpools/wordpool_SP.txt	PIEDRA	6	20	[0, 0, 0]	n/a	FR1	0	R1094T
2461.164	2.45	2803130	WORD	n/a	wordpools/wordpool_SP.txt	RATON	7	20	[0, 0, 0]	n/a	FR1	0	R1094T
2463.614	2.368	2805579	WORD	n/a	wordpools/wordpool_SP.txt	PASTEL	8	20	[0, 0, 0]	n/a	FR1	0	R1094T
2465.982	2.516	2807947	WORD	n/a	wordpools/wordpool_SP.txt	ESCOBA	9	20	[0, 0, 0]	n/a	FR1	0	R1094T
2468.498	2.485	2810463	WORD	n/a	wordpools/wordpool_SP.txt	SEMILLA	10	20	[0, 0, 0]	n/a	FR1	0	R1094T
2470.983	2.616	2812948	WORD	n/a	wordpools/wordpool_SP.txt	VERJA	11	20	[0, 0, 0]	n/a	FR1	0	R1094T
2473.599	1.601	2815564	WORD	n/a	wordpools/wordpool_SP.txt	VARITA	12	20	[0, 0, 0]	n/a	FR1	0	R1094T
2475.2	0.001	2817165	DISTRACT_START	n/a	n/a	n/a	-999	20	[0, 0, 0]	n/a	FR1	0	R1094T
2475.201	0.016	2817166	START	n/a	n/a	n/a	-999	20	[-999, -999, -999]	n/a	FR1	0	R1094T
2475.217	5.734	2817182	PROB	5.734	n/a	n/a	-999	20	[2, 3, 9]	14	FR1	0	R1094T
2480.951	7.402	2822916	PROB	7.402	n/a	n/a	-999	20	[6, 7, 6]	19	FR1	0	R1094T
2488.353	7.574	2830317	PROB	7.574	n/a	n/a	-999	20	[7, 9, 3]	19	FR1	0	R1094T
2495.927	0.01	2837891	STOP	n/a	n/a	n/a	-999	20	[-999, -999, -999]	n/a	FR1	0	R1094T
2495.937	1.201	2837901	DISTRACT_END	n/a	n/a	n/a	-999	20	[0, 0, 0]	n/a	FR1	0	R1094T
2497.138	1.24	2839102	REC_START	n/a	n/a	n/a	-999	20	[0, 0, 0]	n/a	FR1	0	R1094T
2498.378	6.734	2840342	REC_WORD	6.734	n/a	VERJA	11	20	[0, 0, 0]	n/a	FR1	0	R1094T
2505.112	14.198	2847075	REC_WORD	14.198	n/a	SEMILLA	10	20	[0, 0, 0]	n/a	FR1	0	R1094T
2519.31	7.842	2861273	REC_WORD	7.842	n/a	ESCOBA	9	20	[0, 0, 0]	n/a	FR1	0	R1094T
2527.152	2.407	2869114	REC_END	n/a	n/a	n/a	-999	20	[0, 0, 0]	n/a	FR1	0	R1094T
2529.559	0.0	2871521	TRIAL	n/a	n/a	n/a	-999	21	[0, 0, 0]	n/a	FR1	0	R1094T
2529.559	10.428	2871521	COUNTDOWN_START	n/a	n/a	n/a	-999	21	[0, 0, 0]	n/a	FR1	0	R1094T
2539.987	0.009	2881949	COUNTDOWN_END	n/a	n/a	n/a	-999	21	[0, 0, 0]	n/a	FR1	0	R1094T
2539.996	2.383	2881958	ORIENT	n/a	n/a	n/a	-999	21	[0, 0, 0]	n/a	FR1	0	R1094T
2542.379	2.416	2884341	WORD	n/a	wordpools/wordpool_SP.txt	HOJA	1	21	[0, 0, 0]	n/a	FR1	0	R1094T
2544.795	2.435	2886757	WORD	n/a	wordpools/wordpool_SP.txt	PISCINA	2	21	[0, 0, 0]	n/a	FR1	0	R1094T
2547.23	2.566	2889191	WORD	n/a	wordpools/wordpool_SP.txt	CARRO	3	21	[0, 0, 0]	n/a	FR1	0	R1094T
2549.796	2.385	2891757	WORD	n/a	wordpools/wordpool_SP.txt	GRANERO	4	21	[0, 0, 0]	n/a	FR1	0	R1094T
2552.181	2.416	2894142	WORD	n/a	wordpools/wordpool_SP.txt	ESTUFA	5	21	[0, 0, 0]	n/a	FR1	0	R1094T
2554.597	2.485	2896558	WORD	n/a	wordpools/wordpool_SP.txt	CERCA	6	21	[0, 0, 0]	n/a	FR1	0	R1094T
2557.082	2.549	2899043	WORD	n/a	wordpools/wordpool_SP.txt	CABALLO	7	21	[0, 0, 0]	n/a	FR1	0	R1094T
2559.631	2.385	2901592	WORD	n/a	wordpools/wordpool_SP.txt	ESTANQUE	8	21	[0, 0, 0]	n/a	FR1	0	R1094T
2562.016	2.616	2903977	WORD	n/a	wordpools/wordpool_SP.txt	HALCON	9	21	[0, 0, 0]	n/a	FR1	0	R1094T
2564.632	2.568	2906593	WORD	n/a	wordpools/wordpool_SP.txt	TINTA	10	21	[0, 0, 0]	n/a	FR1	0	R1094T
2567.2	2.55	2909160	WORD	n/a	wordpools/wordpool_SP.txt	NIDO	11	21	[0, 0, 0]	n/a	FR1	0	R1094T
2569.75	1.618	2911710	WORD	n/a	wordpools/wordpool_SP.txt	FLAUTA	12	21	[0, 0, 0]	n/a	FR1	0	R1094T
2571.368	0.001	2913328	DISTRACT_START	n/a	n/a	n/a	-999	21	[0, 0, 0]	n/a	FR1	0	R1094T
2571.369	0.016	2913329	START	n/a	n/a	n/a	-999	21	[-999, -999, -999]	n/a	FR1	0	R1094T
2571.385	8.951	2913345	PROB	8.951	n/a	n/a	-999	21	[5, 9, 6]	22	FR1	0	R1094T
2580.336	15.583	2922296	PROB	15.583	n/a	n/a	-999	21	[9, 9, 5]	23	FR1	0	R1094T
2595.919	0.019	2937878	STOP	n/a	n/a	n/a	-999	21	[-999, -999, -999]	n/a	FR1	0	R1094T
2595.938	1.168	2937897	DISTRACT_END	n/a	n/a	n/a	-999	21	[0, 0, 0]	n/a	FR1	0	R1094T
2597.106	2.764	2939065	REC_START	n/a	n/a	n/a	-999	21	[0, 0, 0]	n/a	FR1	0	R1094T
2599.87	23.269	2941829	REC_WORD	23.269	n/a	ESTANQUE	8	21	[0, 0, 0]	n/a	FR1	0	R1094T
2623.139	3.981	2965097	REC_WORD	3.981	n/a	ESTUFA	5	21	[0, 0, 0]	n/a	FR1	0	R1094T
2627.12	2.992	2969078	REC_END	n/a	n/a	n/a	-999	21	[0, 0, 0]	n/a	FR1	0	R1094T
2630.112	0.0	2972069	TRIAL	n/a	n/a	n/a	-999	22	[0, 0, 0]	n/a	FR1	0	R1094T
2630.112	10.428	2972069	COUNTDOWN_START	n/a	n/a	n/a	-999	22	[0, 0, 0]	n/a	FR1	0	R1094T
2640.54	0.006	2982497	COUNTDOWN_END	n/a	n/a	n/a	-999	22	[0, 0, 0]	n/a	FR1	0	R1094T
2640.546	2.502	2982503	ORIENT	n/a	n/a	n/a	-999	22	[0, 0, 0]	n/a	FR1	0	R1094T
2643.048	2.566	2985005	WORD	n/a	wordpools/wordpool_SP.txt	PALO	1	22	[0, 0, 0]	n/a	FR1	0	R1094T
2645.614	2.568	2987571	WORD	n/a	wordpools/wordpool_SP.txt	PERLA	2	22	[0, 0, 0]	n/a	FR1	0	R1094T
2648.182	2.483	2990139	WORD	n/a	wordpools/wordpool_SP.txt	UNA	3	22	[0, 0, 0]	n/a	FR1	0	R1094T
2650.665	2.418	2992621	WORD	n/a	wordpools/wordpool_SP.txt	PICO	4	22	[0, 0, 0]	n/a	FR1	0	R1094T
2653.083	2.399	2995039	WORD	n/a	wordpools/wordpool_SP.txt	SELLO	5	22	[0, 0, 0]	n/a	FR1	0	R1094T
2655.482	2.485	2997438	WORD	n/a	wordpools/wordpool_SP.txt	ALFILER	6	22	[0, 0, 0]	n/a	FR1	0	R1094T
2657.967	2.483	2999923	WORD	n/a	wordpools/wordpool_SP.txt	LOBO	7	22	[0, 0, 0]	n/a	FR1	0	R1094T
2660.45	2.501	3002406	WORD	n/a	wordpools/wordpool_SP.txt	MANO	8	22	[0, 0, 0]	n/a	FR1	0	R1094T
2662.951	2.434	3004907	WORD	n/a	wordpools/wordpool_SP.txt	CAJA	9	22	[0, 0, 0]	n/a	FR1	0	R1094T
2665.385	2.383	3007341	WORD	n/a	wordpools/wordpool_SP.txt	CUEVA	10	22	[0, 0, 0]	n/a	FR1	0	R1094T
2667.768	2.601	3009724	WORD	n/a	wordpools/wordpool_SP.txt	ZOOLOGICO	11	22	[0, 0, 0]	n/a	FR1	0	R1094T
2670.369	1.617	3012324	WORD	n/a	wordpools/wordpool_SP.txt	CRIA	12	22	[0, 0, 0]	n/a	FR1	0	R1094T
2671.986	0.001	3013941	DISTRACT_START	n/a	n/a	n/a	-999	22	[0, 0, 0]	n/a	FR1	0	R1094T
2671.987	0.016	3013942	START	n/a	n/a	n/a	-999	22	[-999, -999, -999]	n/a	FR1	0	R1094T
2672.003	4.933	3013958	PROB	4.933	n/a	n/a	-999	22	[9, 1, 3]	13	FR1	0	R1094T
2676.936	6.202	3018891	PROB	6.202	n/a	n/a	-999	22	[7, 7, 8]	22	FR1	0	R1094T
2683.138	6.75	3025093	PROB	6.75	n/a	n/a	-999	22	[4, 2, 4]	10	FR1	0	R1094T
2689.888	7.711	3031843	PROB	7.711	n/a	n/a	-999	22	[5, 9, 7]	21	FR1	0	R1094T
2697.599	0.007	3039553	STOP	n/a	n/a	n/a	-999	22	[-999, -999, -999]	n/a	FR1	0	R1094T
2697.606	1.035	3039560	DISTRACT_END	n/a	n/a	n/a	-999	22	[0, 0, 0]	n/a	FR1	0	R1094T
2698.641	19.428	3040595	REC_START	n/a	n/a	n/a	-999	22	[0, 0, 0]	n/a	FR1	0	R1094T
2718.069	10.582	3060022	REC_WORD	10.582	n/a	UNA	3	22	[0, 0, 0]	n/a	FR1	0	R1094T
2728.651	3.68	3070604	REC_END	n/a	n/a	n/a	-999	22	[0, 0, 0]	n/a	FR1	0	R1094T
2732.331	0.0	3074283	TRIAL	n/a	n/a	n/a	-999	23	[0, 0, 0]	n/a	FR1	0	R1094T
2732.331	10.428	3074283	COUNTDOWN_START	n/a	n/a	n/a	-999	23	[0, 0, 0]	n/a	FR1	0	R1094T
2742.759	0.006	3084711	COUNTDOWN_END	n/a	n/a	n/a	-999	23	[0, 0, 0]	n/a	FR1	0	R1094T
2742.765	2.618	3084717	ORIENT	n/a	n/a	n/a	-999	23	[0, 0, 0]	n/a	FR1	0	R1094T
2745.383	2.449	3087335	WORD	n/a	wordpools/wordpool_SP.txt	JUGO	1	23	[0, 0, 0]	n/a	FR1	0	R1094T
2747.832	2.535	3089784	WORD	n/a	wordpools/wordpool_SP.txt	LAGO	2	23	[0, 0, 0]	n/a	FR1	0	R1094T
2750.367	2.549	3092319	WORD	n/a	wordpools/wordpool_SP.txt	SAL	3	23	[0, 0, 0]	n/a	FR1	0	R1094T
2752.916	2.501	3094867	WORD	n/a	wordpools/wordpool_SP.txt	CORREO	4	23	[0, 0, 0]	n/a	FR1	0	R1094T
2755.417	2.602	3097368	WORD	n/a	wordpools/wordpool_SP.txt	TERRENO	5	23	[0, 0, 0]	n/a	FR1	0	R1094T
2758.019	2.566	3099970	WORD	n/a	wordpools/wordpool_SP.txt	AVION	6	23	[0, 0, 0]	n/a	FR1	0	R1094T
2760.585	2.534	3102536	WORD	n/a	wordpools/wordpool_SP.txt	BARCO	7	23	[0, 0, 0]	n/a	FR1	0	R1094T
2763.119	2.55	3105070	WORD	n/a	wordpools/wordpool_SP.txt	BASURA	8	23	[0, 0, 0]	n/a	FR1	0	R1094T
2765.669	2.468	3107620	WORD	n/a	wordpools/wordpool_SP.txt	RED	9	23	[0, 0, 0]	n/a	FR1	0	R1094T
2768.137	2.6	3110088	WORD	n/a	wordpools/wordpool_SP.txt	HUMO	10	23	[0, 0, 0]	n/a	FR1	0	R1094T
2770.737	2.501	3112688	WORD	n/a	wordpools/wordpool_SP.txt	PAGINA	11	23	[0, 0, 0]	n/a	FR1	0	R1094T
2773.238	1.616	3115188	WORD	n/a	wordpools/wordpool_SP.txt	MONO	12	23	[0, 0, 0]	n/a	FR1	0	R1094T
2774.854	0.001	3116804	DISTRACT_START	n/a	n/a	n/a	-999	23	[0, 0, 0]	n/a	FR1	0	R1094T
2774.855	0.016	3116805	START	n/a	n/a	n/a	-999	23	[-999, -999, -999]	n/a	FR1	0	R1094T
2774.871	7.235	3116821	PROB	7.235	n/a	n/a	-999	23	[2, 7, 6]	15	FR1	0	R1094T
2782.106	5.868	3124056	PROB	5.868	n/a	n/a	-999	23	[4, 9, 3]	16	FR1	0	R1094T
2787.974	5.783	3129924	PROB	5.783	n/a	n/a	-999	23	[9, 4, 9]	22	FR1	0	R1094T
2793.757	7.403	3135706	PROB	7.403	n/a	n/a	-999	23	[6, 3, 7]	17	FR1	0	R1094T
2801.16	0.016	3143109	STOP	n/a	n/a	n/a	-999	23	[-999, -999, -999]	n/a	FR1	0	R1094T
2801.176	1.201	3143125	DISTRACT_END	n/a	n/a	n/a	-999	23	[0, 0, 0]	n/a	FR1	0	R1094T
2802.377	30.0	3144326	REC_START	n/a	n/a	n/a	-999	23	[0, 0, 0]	n/a	FR1	0	R1094T
2832.377	0.011	3174325	REC_WORD_VV	0.011	n/a	<>	-999	23	[0, 0, 0]	n/a	FR1	0	R1094T
2832.388	3.477	3174336	REC_END	n/a	n/a	n/a	-999	23	[0, 0, 0]	n/a	FR1	0	R1094T
2835.865	0.0	3177812	TRIAL	n/a	n/a	n/a	-999	24	[0, 0, 0]	n/a	FR1	0	R1094T
2835.865	10.428	3177812	COUNTDOWN_START	n/a	n/a	n/a	-999	24	[0, 0, 0]	n/a	FR1	0	R1094T
2846.293	0.008	3188240	COUNTDOWN_END	n/a	n/a	n/a	-999	24	[0, 0, 0]	n/a	FR1	0	R1094T
2846.301	2.4	3188248	ORIENT	n/a	n/a	n/a	-999	24	[0, 0, 0]	n/a	FR1	0	R1094T
2848.701	2.401	3190648	WORD	n/a	wordpools/wordpool_SP.txt	ESTERA	1	24	[0, 0, 0]	n/a	FR1	0	R1094T
2851.102	2.55	3193049	WORD	n/a	wordpools/wordpool_SP.txt	PELAJE	2	24	[0, 0, 0]	n/a	FR1	0	R1094T
2853.652	2.501	3195599	WORD	n/a	wordpools/wordpool_SP.txt	FREGADERO	3	24	[0, 0, 0]	n/a	FR1	0	R1094T
2856.153	2.566	3198099	WORD	n/a	wordpools/wordpool_SP.txt	CORBATA	4	24	[0, 0, 0]	n/a	FR1	0	R1094T
2858.719	2.535	3200665	WORD	n/a	wordpools/wordpool_SP.txt	BASTON	5	24	[0, 0, 0]	n/a	FR1	0	R1094T
2861.254	2.449	3203200	WORD	n/a	wordpools/wordpool_SP.txt	CEPILLO	6	24	[0, 0, 0]	n/a	FR1	0	R1094T
2863.703	2.518	3205649	WORD	n/a	wordpools/wordpool_SP.txt	ANGUILA	7	24	[0, 0, 0]	n/a	FR1	0	R1094T
2866.221	2.467	3208167	WORD	n/a	wordpools/wordpool_SP.txt	TABURETE	8	24	[0, 0, 0]	n/a	FR1	0	R1094T
2868.688	2.468	3210634	WORD	n/a	wordpools/wordpool_SP.txt	MUNECO	9	24	[0, 0, 0]	n/a	FR1	0	R1094T
2871.156	2.583	3213102	WORD	n/a	wordpools/wordpool_SP.txt	BOTA	10	24	[0, 0, 0]	n/a	FR1	0	R1094T
2873.739	2.584	3215685	WORD	n/a	wordpools/wordpool_SP.txt	SOMBRERO	11	24	[0, 0, 0]	n/a	FR1	0	R1094T
2876.323	1.616	3218268	WORD	n/a	wordpools/wordpool_SP.txt	BRAZO	12	24	[0, 0, 0]	n/a	FR1	0	R1094T
2877.939	0.001	3219884	DISTRACT_START	n/a	n/a	n/a	-999	24	[0, 0, 0]	n/a	FR1	0	R1094T
2877.94	0.017	3219885	START	n/a	n/a	n/a	-999	24	[-999, -999, -999]	n/a	FR1	0	R1094T
2877.957	7.784	3219902	PROB	7.784	n/a	n/a	-999	24	[8, 9, 4]	21	FR1	0	R1094T
2885.741	3.917	3227686	PROB	3.917	n/a	n/a	-999	24	[7, 1, 3]	11	FR1	0	R1094T
2889.658	4.901	3231603	PROB	4.901	n/a	n/a	-999	24	[1, 2, 5]	8	FR1	0	R1094T
2894.559	3.425	3236504	PROB	3.425	n/a	n/a	-999	24	[1, 5, 5]	11	FR1	0	R1094T
2897.984	0.01	3239928	STOP	n/a	n/a	n/a	-999	24	[-999, -999, -999]	n/a	FR1	0	R1094T
2897.994	1.201	3239938	DISTRACT_END	n/a	n/a	n/a	-999	24	[0, 0, 0]	n/a	FR1	0	R1094T
2899.195	0.777	3241139	REC_START	n/a	n/a	n/a	-999	24	[0, 0, 0]	n/a	FR1	0	R1094T
2899.972	2.825	3241916	REC_WORD	2.825	n/a	TABURETE	8	24	[0, 0, 0]	n/a	FR1	0	R1094T
2902.797	26.408	3244741	REC_WORD	26.408	n/a	ANGUILA	7	24	[0, 0, 0]	n/a	FR1	0	R1094T
2929.205	3.795	3271148	REC_END	n/a	n/a	n/a	-999	24	[0, 0, 0]	n/a	FR1	0	R1094T
2933.0	0.001	3274943	COUNTDOWN_START	n/a	n/a	n/a	-999	25	[0, 0, 0]	n/a	FR1	0	R1094T
2933.001	10.427	3274944	TRIAL	n/a	n/a	n/a	-999	25	[0, 0, 0]	n/a	FR1	0	R1094T
2943.428	0.007	3285370	COUNTDOWN_END	n/a	n/a	n/a	-999	25	[0, 0, 0]	n/a	FR1	0	R1094T
2943.435	2.618	3285377	ORIENT	n/a	n/a	n/a	-999	25	[0, 0, 0]	n/a	FR1	0	R1094T
2946.053	2.433	3287995	WORD	n/a	wordpools/wordpool_SP.txt	TAPETE	1	25	[0, 0, 0]	n/a	FR1	0	R1094T
2948.486	2.551	3290428	WORD	n/a	wordpools/wordpool_SP.txt	PATIO	2	25	[0, 0, 0]	n/a	FR1	0	R1094T
2951.037	2.383	3292979	WORD	n/a	wordpools/wordpool_SP.txt	HOYO	3	25	[0, 0, 0]	n/a	FR1	0	R1094T
2953.42	2.618	3295362	WORD	n/a	wordpools/wordpool_SP.txt	BALLENA	4	25	[0, 0, 0]	n/a	FR1	0	R1094T
2956.038	2.383	3297980	WORD	n/a	wordpools/wordpool_SP.txt	COLINA	5	25	[0, 0, 0]	n/a	FR1	0	R1094T
2958.421	2.534	3300362	WORD	n/a	wordpools/wordpool_SP.txt	TECHO	6	25	[0, 0, 0]	n/a	FR1	0	R1094T
2960.955	2.616	3302896	WORD	n/a	wordpools/wordpool_SP.txt	HORMIGA	7	25	[0, 0, 0]	n/a	FR1	0	R1094T
2963.571	2.435	3305512	WORD	n/a	wordpools/wordpool_SP.txt	JAULA	8	25	[0, 0, 0]	n/a	FR1	0	R1094T
2966.006	2.4	3307947	WORD	n/a	wordpools/wordpool_SP.txt	SAPO	9	25	[0, 0, 0]	n/a	FR1	0	R1094T
2968.406	2.585	3310347	WORD	n/a	wordpools/wordpool_SP.txt	BOCA	10	25	[0, 0, 0]	n/a	FR1	0	R1094T
2970.991	2.449	3312932	WORD	n/a	wordpools/wordpool_SP.txt	LUNAR	11	25	[0, 0, 0]	n/a	FR1	0	R1094T
2973.44	1.618	3315381	WORD	n/a	wordpools/wordpool_SP.txt	CONCHA	12	25	[0, 0, 0]	n/a	FR1	0	R1094T
2975.058	0.001	3316999	DISTRACT_START	n/a	n/a	n/a	-999	25	[0, 0, 0]	n/a	FR1	0	R1094T
2975.059	0.016	3317000	START	n/a	n/a	n/a	-999	25	[-999, -999, -999]	n/a	FR1	0	R1094T
2975.075	5.8	3317016	PROB	5.8	n/a	n/a	-999	25	[9, 4, 2]	15	FR1	0	R1094T
2980.875	6.502	3322815	PROB	6.502	n/a	n/a	-999	25	[1, 7, 2]	19	FR1	0	R1094T
2987.377	5.818	3329317	PROB	5.818	n/a	n/a	-999	25	[2, 5, 3]	10	FR1	0	R1094T
2993.195	5.748	3335135	PROB	5.748	n/a	n/a	-999	25	[9, 4, 9]	22	FR1	0	R1094T
2998.943	0.019	3340883	STOP	n/a	n/a	n/a	-999	25	[-999, -999, -999]	n/a	FR1	0	R1094T
2998.962	1.168	3340902	DISTRACT_END	n/a	n/a	n/a	-999	25	[0, 0, 0]	n/a	FR1	0	R1094T
3000.13	2.481	3342069	REC_START	n/a	n/a	n/a	-999	25	[0, 0, 0]	n/a	FR1	0	R1094T
3002.611	27.529	3344550	REC_WORD	27.529	n/a	TAPETE	1	25	[0, 0, 0]	n/a	FR1	0	R1094T
3030.14	628.509	3372078	REC_END	n/a	n/a	n/a	-999	25	[0, 0, 0]	n/a	FR1	0	R1094T
3658.649	0.0	-1	SESS_END	n/a	n/a	n/a	-999	25	[0, 0, 0]	n/a	FR1	0	R1094T
