onset	duration	sample	trial_type	response_time	stim_file	item_name	serialpos	list	test	answer	experiment	session	subject
0.0	0.0	6330	INSTRUCT_VIDEO	n/a	n/a	n/a	-999	-999	[0, 0, 0]	n/a	FR1	0	R1231M
0.0	10.956	6330	INSTRUCT_VIDEO	n/a	n/a	n/a	-999	-999	[0, 0, 0]	n/a	FR1	0	R1231M
10.956	0.0	17285	SESS_START	n/a	n/a	n/a	-999	-999	[0, 0, 0]	n/a	FR1	0	R1231M
10.956	213.722	17285	MIC_TEST	n/a	n/a	n/a	-999	-999	[0, 0, 0]	n/a	FR1	0	R1231M
224.678	15.385	230995	PRACTICE_TRIAL	n/a	n/a	n/a	-999	-1	[0, 0, 0]	n/a	FR1	0	R1231M
240.063	10.428	246379	COUNTDOWN_START	n/a	n/a	n/a	-999	-999	[0, 0, 0]	n/a	FR1	0	R1231M
250.491	0.008	256806	COUNTDOWN_END	n/a	n/a	n/a	-999	-999	[0, 0, 0]	n/a	FR1	0	R1231M
250.499	1.617	256814	PRACTICE_ORIENT	n/a	n/a	n/a	-999	-1	[0, 0, 0]	n/a	FR1	0	R1231M
252.116	2.084	258431	PRACTICE_ORIENT_OFF	n/a	n/a	n/a	-999	-1	[0, 0, 0]	n/a	FR1	0	R1231M
254.2	1.618	260515	PRACTICE_WORD	n/a	n/a	COTTON	1	-1	[0, 0, 0]	n/a	FR1	0	R1231M
255.818	0.899	262133	PRACTICE_WORD_OFF	n/a	n/a	COTTON	-999	-1	[0, 0, 0]	n/a	FR1	0	R1231M
256.717	1.617	263032	PRACTICE_WORD	n/a	n/a	CHEST	2	-1	[0, 0, 0]	n/a	FR1	0	R1231M
258.334	0.967	264649	PRACTICE_WORD_OFF	n/a	n/a	CHEST	-999	-1	[0, 0, 0]	n/a	FR1	0	R1231M
259.301	1.617	265616	PRACTICE_WORD	n/a	n/a	TONGUE	3	-1	[0, 0, 0]	n/a	FR1	0	R1231M
260.918	0.783	267233	PRACTICE_WORD_OFF	n/a	n/a	TONGUE	-999	-1	[0, 0, 0]	n/a	FR1	0	R1231M
261.701	1.617	268016	PRACTICE_WORD	n/a	n/a	IRON	4	-1	[0, 0, 0]	n/a	FR1	0	R1231M
263.318	0.817	269633	PRACTICE_WORD_OFF	n/a	n/a	IRON	-999	-1	[0, 0, 0]	n/a	FR1	0	R1231M
264.135	1.617	270449	PRACTICE_WORD	n/a	n/a	RING	5	-1	[0, 0, 0]	n/a	FR1	0	R1231M
265.752	0.883	272066	PRACTICE_WORD_OFF	n/a	n/a	RING	-999	-1	[0, 0, 0]	n/a	FR1	0	R1231M
266.635	1.617	272949	PRACTICE_WORD	n/a	n/a	CAMEL	6	-1	[0, 0, 0]	n/a	FR1	0	R1231M
268.252	0.934	274566	PRACTICE_WORD_OFF	n/a	n/a	CAMEL	-999	-1	[0, 0, 0]	n/a	FR1	0	R1231M
269.186	1.618	275500	PRACTICE_WORD	n/a	n/a	ATTIC	7	-1	[0, 0, 0]	n/a	FR1	0	R1231M
270.804	0.966	277118	PRACTICE_WORD_OFF	n/a	n/a	ATTIC	-999	-1	[0, 0, 0]	n/a	FR1	0	R1231M
271.77	1.617	278084	PRACTICE_WORD	n/a	n/a	FLOOD	8	-1	[0, 0, 0]	n/a	FR1	0	R1231M
273.387	0.883	279701	PRACTICE_WORD_OFF	n/a	n/a	FLOOD	-999	-1	[0, 0, 0]	n/a	FR1	0	R1231M
274.27	1.617	280584	PRACTICE_WORD	n/a	n/a	WAGON	9	-1	[0, 0, 0]	n/a	FR1	0	R1231M
275.887	0.867	282201	PRACTICE_WORD_OFF	n/a	n/a	WAGON	-999	-1	[0, 0, 0]	n/a	FR1	0	R1231M
276.754	1.617	283068	PRACTICE_WORD	n/a	n/a	BEAM	10	-1	[0, 0, 0]	n/a	FR1	0	R1231M
278.371	0.883	284685	PRACTICE_WORD_OFF	n/a	n/a	BEAM	-999	-1	[0, 0, 0]	n/a	FR1	0	R1231M
279.254	1.617	285568	PRACTICE_WORD	n/a	n/a	RHINO	11	-1	[0, 0, 0]	n/a	FR1	0	R1231M
280.871	0.851	287185	PRACTICE_WORD_OFF	n/a	n/a	RHINO	-999	-1	[0, 0, 0]	n/a	FR1	0	R1231M
281.722	1.617	288035	PRACTICE_WORD	n/a	n/a	WATCH	12	-1	[0, 0, 0]	n/a	FR1	0	R1231M
283.339	0.0	289652	PRACTICE_WORD_OFF	n/a	n/a	WATCH	-999	-1	[0, 0, 0]	n/a	FR1	0	R1231M
283.339	0.0	289652	DISTRACT_START	n/a	n/a	n/a	-999	-999	[0, 0, 0]	n/a	FR1	0	R1231M
283.339	0.016	289652	START	n/a	n/a	n/a	-999	1	[-999, -999, -999]	n/a	FR1	0	R1231M
283.355	55.31	289668	PROB	55.31	n/a	n/a	-999	1	[6, 6, 4]	15	FR1	0	R1231M
338.665	0.018	344975	STOP	n/a	n/a	n/a	-999	1	[-999, -999, -999]	n/a	FR1	0	R1231M
338.683	0.6	344993	DISTRACT_END	n/a	n/a	n/a	-999	-999	[0, 0, 0]	n/a	FR1	0	R1231M
339.283	57.128	345593	RETRIEVAL_ORIENT	n/a	n/a	n/a	-999	-999	[0, 0, 0]	n/a	FR1	0	R1231M
396.411	0.5	402718	TRIAL	n/a	n/a	n/a	-999	1	[0, 0, 0]	n/a	FR1	0	R1231M
396.911	10.428	403218	COUNTDOWN_START	n/a	n/a	n/a	-999	1	[0, 0, 0]	n/a	FR1	0	R1231M
407.339	0.007	413645	COUNTDOWN_END	n/a	n/a	n/a	-999	1	[0, 0, 0]	n/a	FR1	0	R1231M
407.346	1.617	413652	ORIENT	n/a	n/a	n/a	-999	1	[0, 0, 0]	n/a	FR1	0	R1231M
408.963	2.117	415269	ORIENT_OFF	n/a	n/a	n/a	-999	1	[0, 0, 0]	n/a	FR1	0	R1231M
411.08	1.617	417386	WORD	n/a	wordpools/wordpool_EN.txt	SNAIL	1	1	[0, 0, 0]	n/a	FR1	0	R1231M
412.697	1.0	419003	WORD_OFF	n/a	n/a	SNAIL	1	1	[0, 0, 0]	n/a	FR1	0	R1231M
413.697	1.617	420003	WORD	n/a	wordpools/wordpool_EN.txt	BEACH	2	1	[0, 0, 0]	n/a	FR1	0	R1231M
415.314	0.784	421620	WORD_OFF	n/a	n/a	BEACH	2	1	[0, 0, 0]	n/a	FR1	0	R1231M
416.098	1.617	422404	WORD	n/a	wordpools/wordpool_EN.txt	ROPE	3	1	[0, 0, 0]	n/a	FR1	0	R1231M
417.715	0.883	424021	WORD_OFF	n/a	n/a	ROPE	3	1	[0, 0, 0]	n/a	FR1	0	R1231M
418.598	1.617	424904	WORD	n/a	wordpools/wordpool_EN.txt	SUN	4	1	[0, 0, 0]	n/a	FR1	0	R1231M
420.215	0.984	426520	WORD_OFF	n/a	n/a	SUN	4	1	[0, 0, 0]	n/a	FR1	0	R1231M
421.199	1.618	427504	WORD	n/a	wordpools/wordpool_EN.txt	SHIELD	5	1	[0, 0, 0]	n/a	FR1	0	R1231M
422.817	0.915	429122	WORD_OFF	n/a	n/a	SHIELD	5	1	[0, 0, 0]	n/a	FR1	0	R1231M
423.732	1.617	430037	WORD	n/a	wordpools/wordpool_EN.txt	APE	6	1	[0, 0, 0]	n/a	FR1	0	R1231M
425.349	0.884	431654	WORD_OFF	n/a	n/a	APE	6	1	[0, 0, 0]	n/a	FR1	0	R1231M
426.233	1.617	432538	WORD	n/a	wordpools/wordpool_EN.txt	BRIDGE	7	1	[0, 0, 0]	n/a	FR1	0	R1231M
427.85	0.9	434155	WORD_OFF	n/a	n/a	BRIDGE	7	1	[0, 0, 0]	n/a	FR1	0	R1231M
428.75	1.617	435055	WORD	n/a	wordpools/wordpool_EN.txt	ROCK	8	1	[0, 0, 0]	n/a	FR1	0	R1231M
430.367	0.784	436672	WORD_OFF	n/a	n/a	ROCK	8	1	[0, 0, 0]	n/a	FR1	0	R1231M
431.151	1.617	437456	WORD	n/a	wordpools/wordpool_EN.txt	STONE	9	1	[0, 0, 0]	n/a	FR1	0	R1231M
432.768	0.883	439073	WORD_OFF	n/a	n/a	STONE	9	1	[0, 0, 0]	n/a	FR1	0	R1231M
433.651	1.617	439956	WORD	n/a	wordpools/wordpool_EN.txt	SHELL	10	1	[0, 0, 0]	n/a	FR1	0	R1231M
435.268	0.934	441573	WORD_OFF	n/a	n/a	SHELL	10	1	[0, 0, 0]	n/a	FR1	0	R1231M
436.202	1.618	442507	WORD	n/a	wordpools/wordpool_EN.txt	BRICK	11	1	[0, 0, 0]	n/a	FR1	0	R1231M
437.82	0.882	444124	WORD_OFF	n/a	n/a	BRICK	11	1	[0, 0, 0]	n/a	FR1	0	R1231M
438.702	1.617	445006	WORD	n/a	wordpools/wordpool_EN.txt	SEA	12	1	[0, 0, 0]	n/a	FR1	0	R1231M
440.319	0.0	446623	WORD_OFF	n/a	n/a	SEA	12	1	[0, 0, 0]	n/a	FR1	0	R1231M
440.319	0.001	446623	DISTRACT_START	n/a	n/a	n/a	-999	1	[0, 0, 0]	n/a	FR1	0	R1231M
440.32	0.016	446624	START	n/a	n/a	n/a	-999	2	[-999, -999, -999]	n/a	FR1	0	R1231M
440.336	73.832	446640	PROB	73.832	n/a	n/a	-999	2	[9, 3, 6]	17	FR1	0	R1231M
514.168	0.015	520468	STOP	n/a	n/a	n/a	-999	2	[-999, -999, -999]	n/a	FR1	0	R1231M
514.183	0.618	520483	DISTRACT_END	n/a	n/a	n/a	-999	1	[0, 0, 0]	n/a	FR1	0	R1231M
514.801	0.517	521101	RETRIEVAL_ORIENT	n/a	n/a	n/a	-999	1	[0, 0, 0]	n/a	FR1	0	R1231M
515.318	8.449	521618	REC_START	n/a	n/a	n/a	-999	1	[0, 0, 0]	n/a	FR1	0	R1231M
523.767	1.94	530067	REC_WORD	1.94	n/a	SNAIL	-999	1	[0, 0, 0]	n/a	FR1	0	R1231M
525.707	3.798	532006	REC_WORD	3.798	n/a	BEACH	-999	1	[0, 0, 0]	n/a	FR1	0	R1231M
529.505	0.695	535804	REC_WORD	0.695	n/a	ROPE	-999	1	[0, 0, 0]	n/a	FR1	0	R1231M
530.2	0.484	536499	REC_WORD	0.484	n/a	APE	-999	1	[0, 0, 0]	n/a	FR1	0	R1231M
530.684	10.374	536983	REC_WORD	10.374	n/a	SHIELD	-999	1	[0, 0, 0]	n/a	FR1	0	R1231M
541.058	4.269	547357	REC_WORD_VV	4.269	n/a	<>	-999	1	[0, 0, 0]	n/a	FR1	0	R1231M
545.327	8.747	551625	REC_END	n/a	n/a	n/a	-999	1	[0, 0, 0]	n/a	FR1	0	R1231M
554.074	0.5	560372	TRIAL	n/a	n/a	n/a	-999	2	[0, 0, 0]	n/a	FR1	0	R1231M
554.574	10.428	560872	COUNTDOWN_START	n/a	n/a	n/a	-999	2	[0, 0, 0]	n/a	FR1	0	R1231M
565.002	0.008	571299	COUNTDOWN_END	n/a	n/a	n/a	-999	2	[0, 0, 0]	n/a	FR1	0	R1231M
565.01	1.617	571307	ORIENT	n/a	n/a	n/a	-999	2	[0, 0, 0]	n/a	FR1	0	R1231M
566.627	2.034	572924	ORIENT_OFF	n/a	n/a	n/a	-999	2	[0, 0, 0]	n/a	FR1	0	R1231M
568.661	1.617	574958	WORD	n/a	wordpools/wordpool_EN.txt	PURSE	1	2	[0, 0, 0]	n/a	FR1	0	R1231M
570.278	0.9	576575	WORD_OFF	n/a	n/a	PURSE	1	2	[0, 0, 0]	n/a	FR1	0	R1231M
571.178	1.618	577475	WORD	n/a	wordpools/wordpool_EN.txt	STEAK	2	2	[0, 0, 0]	n/a	FR1	0	R1231M
572.796	0.949	579093	WORD_OFF	n/a	n/a	STEAK	2	2	[0, 0, 0]	n/a	FR1	0	R1231M
573.745	1.617	580042	WORD	n/a	wordpools/wordpool_EN.txt	MAZE	3	2	[0, 0, 0]	n/a	FR1	0	R1231M
575.362	0.867	581659	WORD_OFF	n/a	n/a	MAZE	3	2	[0, 0, 0]	n/a	FR1	0	R1231M
576.229	1.601	582525	WORD	n/a	wordpools/wordpool_EN.txt	MOUTH	4	2	[0, 0, 0]	n/a	FR1	0	R1231M
577.83	0.984	584126	WORD_OFF	n/a	n/a	MOUTH	4	2	[0, 0, 0]	n/a	FR1	0	R1231M
578.814	1.616	585110	WORD	n/a	wordpools/wordpool_EN.txt	SWAMP	5	2	[0, 0, 0]	n/a	FR1	0	R1231M
580.43	0.9	586726	WORD_OFF	n/a	n/a	SWAMP	5	2	[0, 0, 0]	n/a	FR1	0	R1231M
581.33	1.617	587626	WORD	n/a	wordpools/wordpool_EN.txt	CHEEK	6	2	[0, 0, 0]	n/a	FR1	0	R1231M
582.947	0.868	589243	WORD_OFF	n/a	n/a	CHEEK	6	2	[0, 0, 0]	n/a	FR1	0	R1231M
583.815	1.616	590111	WORD	n/a	wordpools/wordpool_EN.txt	TENT	7	2	[0, 0, 0]	n/a	FR1	0	R1231M
585.431	0.966	591727	WORD_OFF	n/a	n/a	TENT	7	2	[0, 0, 0]	n/a	FR1	0	R1231M
586.397	1.617	592693	WORD	n/a	wordpools/wordpool_EN.txt	BREAD	8	2	[0, 0, 0]	n/a	FR1	0	R1231M
588.014	0.884	594310	WORD_OFF	n/a	n/a	BREAD	8	2	[0, 0, 0]	n/a	FR1	0	R1231M
588.898	1.617	595194	WORD	n/a	wordpools/wordpool_EN.txt	FUDGE	9	2	[0, 0, 0]	n/a	FR1	0	R1231M
590.515	0.833	596811	WORD_OFF	n/a	n/a	FUDGE	9	2	[0, 0, 0]	n/a	FR1	0	R1231M
591.348	1.617	597644	WORD	n/a	wordpools/wordpool_EN.txt	PEAR	10	2	[0, 0, 0]	n/a	FR1	0	R1231M
592.965	0.934	599261	WORD_OFF	n/a	n/a	PEAR	10	2	[0, 0, 0]	n/a	FR1	0	R1231M
593.899	1.617	600194	WORD	n/a	wordpools/wordpool_EN.txt	SPEAR	11	2	[0, 0, 0]	n/a	FR1	0	R1231M
595.516	0.883	601811	WORD_OFF	n/a	n/a	SPEAR	11	2	[0, 0, 0]	n/a	FR1	0	R1231M
596.399	1.617	602694	WORD	n/a	wordpools/wordpool_EN.txt	HAND	12	2	[0, 0, 0]	n/a	FR1	0	R1231M
598.016	0.0	604311	WORD_OFF	n/a	n/a	HAND	12	2	[0, 0, 0]	n/a	FR1	0	R1231M
598.016	0.001	604311	DISTRACT_START	n/a	n/a	n/a	-999	2	[0, 0, 0]	n/a	FR1	0	R1231M
598.017	0.016	604312	START	n/a	n/a	n/a	-999	3	[-999, -999, -999]	n/a	FR1	0	R1231M
598.033	6.551	604328	PROB	6.551	n/a	n/a	-999	3	[1, 9, 1]	11	FR1	0	R1231M
604.584	8.085	610879	PROB	8.085	n/a	n/a	-999	3	[3, 3, 3]	9	FR1	0	R1231M
612.669	12.244	618963	PROB	12.244	n/a	n/a	-999	3	[8, 4, 5]	16	FR1	0	R1231M
624.913	0.008	631207	STOP	n/a	n/a	n/a	-999	3	[-999, -999, -999]	n/a	FR1	0	R1231M
624.921	0.667	631215	DISTRACT_END	n/a	n/a	n/a	-999	2	[0, 0, 0]	n/a	FR1	0	R1231M
625.588	0.518	631882	RETRIEVAL_ORIENT	n/a	n/a	n/a	-999	2	[0, 0, 0]	n/a	FR1	0	R1231M
626.106	2.653	632400	REC_START	n/a	n/a	n/a	-999	2	[0, 0, 0]	n/a	FR1	0	R1231M
628.759	0.675	635052	REC_WORD	0.675	n/a	PURSE	-999	2	[0, 0, 0]	n/a	FR1	0	R1231M
629.434	2.086	635727	REC_WORD	2.086	n/a	SNAKE	-999	2	[0, 0, 0]	n/a	FR1	0	R1231M
631.52	3.72	637813	REC_WORD_VV	3.72	n/a	<>	-999	2	[0, 0, 0]	n/a	FR1	0	R1231M
635.24	0.365	641533	REC_WORD_VV	0.365	n/a	<>	-999	2	[0, 0, 0]	n/a	FR1	0	R1231M
635.605	0.492	641898	REC_WORD	0.492	n/a	PUR	-999	2	[0, 0, 0]	n/a	FR1	0	R1231M
636.097	4.864	642390	REC_WORD	4.864	n/a	STEAK	-999	2	[0, 0, 0]	n/a	FR1	0	R1231M
640.961	0.802	647254	REC_WORD	0.802	n/a	SWAMP	-999	2	[0, 0, 0]	n/a	FR1	0	R1231M
641.763	14.353	648056	REC_WORD	14.353	n/a	FUDGE	-999	2	[0, 0, 0]	n/a	FR1	0	R1231M
656.116	7.03	662408	REC_END	n/a	n/a	n/a	-999	2	[0, 0, 0]	n/a	FR1	0	R1231M
663.146	0.5	669437	TRIAL	n/a	n/a	n/a	-999	3	[0, 0, 0]	n/a	FR1	0	R1231M
663.646	10.428	669937	COUNTDOWN_START	n/a	n/a	n/a	-999	3	[0, 0, 0]	n/a	FR1	0	R1231M
674.074	0.007	680365	COUNTDOWN_END	n/a	n/a	n/a	-999	3	[0, 0, 0]	n/a	FR1	0	R1231M
674.081	1.617	680372	ORIENT	n/a	n/a	n/a	-999	3	[0, 0, 0]	n/a	FR1	0	R1231M
675.698	2.034	681989	ORIENT_OFF	n/a	n/a	n/a	-999	3	[0, 0, 0]	n/a	FR1	0	R1231M
677.732	1.617	684023	WORD	n/a	wordpools/wordpool_EN.txt	POND	1	3	[0, 0, 0]	n/a	FR1	0	R1231M
679.349	0.883	685640	WORD_OFF	n/a	n/a	POND	1	3	[0, 0, 0]	n/a	FR1	0	R1231M
680.232	1.601	686522	WORD	n/a	wordpools/wordpool_EN.txt	JAR	2	3	[0, 0, 0]	n/a	FR1	0	R1231M
681.833	0.899	688123	WORD_OFF	n/a	n/a	JAR	2	3	[0, 0, 0]	n/a	FR1	0	R1231M
682.732	1.618	689022	WORD	n/a	wordpools/wordpool_EN.txt	GLASS	3	3	[0, 0, 0]	n/a	FR1	0	R1231M
684.35	0.783	690640	WORD_OFF	n/a	n/a	GLASS	3	3	[0, 0, 0]	n/a	FR1	0	R1231M
685.133	1.617	691423	WORD	n/a	wordpools/wordpool_EN.txt	SPOON	4	3	[0, 0, 0]	n/a	FR1	0	R1231M
686.75	0.85	693040	WORD_OFF	n/a	n/a	SPOON	4	3	[0, 0, 0]	n/a	FR1	0	R1231M
687.6	1.617	693890	WORD	n/a	wordpools/wordpool_EN.txt	ARK	5	3	[0, 0, 0]	n/a	FR1	0	R1231M
689.217	0.917	695507	WORD_OFF	n/a	n/a	ARK	5	3	[0, 0, 0]	n/a	FR1	0	R1231M
690.134	1.617	696424	WORD	n/a	wordpools/wordpool_EN.txt	SHRIMP	6	3	[0, 0, 0]	n/a	FR1	0	R1231M
691.751	0.767	698041	WORD_OFF	n/a	n/a	SHRIMP	6	3	[0, 0, 0]	n/a	FR1	0	R1231M
692.518	1.617	698808	WORD	n/a	wordpools/wordpool_EN.txt	CAKE	7	3	[0, 0, 0]	n/a	FR1	0	R1231M
694.135	0.883	700425	WORD_OFF	n/a	n/a	CAKE	7	3	[0, 0, 0]	n/a	FR1	0	R1231M
695.018	1.617	701308	WORD	n/a	wordpools/wordpool_EN.txt	FLAME	8	3	[0, 0, 0]	n/a	FR1	0	R1231M
696.635	0.8	702925	WORD_OFF	n/a	n/a	FLAME	8	3	[0, 0, 0]	n/a	FR1	0	R1231M
697.435	1.618	703724	WORD	n/a	wordpools/wordpool_EN.txt	FOAM	9	3	[0, 0, 0]	n/a	FR1	0	R1231M
699.053	0.933	705342	WORD_OFF	n/a	n/a	FOAM	9	3	[0, 0, 0]	n/a	FR1	0	R1231M
699.986	1.617	706275	WORD	n/a	wordpools/wordpool_EN.txt	CHALK	10	3	[0, 0, 0]	n/a	FR1	0	R1231M
701.603	1.0	707892	WORD_OFF	n/a	n/a	CHALK	10	3	[0, 0, 0]	n/a	FR1	0	R1231M
702.603	1.617	708892	WORD	n/a	wordpools/wordpool_EN.txt	STOVE	11	3	[0, 0, 0]	n/a	FR1	0	R1231M
704.22	0.867	710509	WORD_OFF	n/a	n/a	STOVE	11	3	[0, 0, 0]	n/a	FR1	0	R1231M
705.087	1.617	711376	WORD	n/a	wordpools/wordpool_EN.txt	BEE	12	3	[0, 0, 0]	n/a	FR1	0	R1231M
706.704	0.0	712993	WORD_OFF	n/a	n/a	BEE	12	3	[0, 0, 0]	n/a	FR1	0	R1231M
706.704	0.001	712993	DISTRACT_START	n/a	n/a	n/a	-999	3	[0, 0, 0]	n/a	FR1	0	R1231M
706.705	0.016	712994	START	n/a	n/a	n/a	-999	4	[-999, -999, -999]	n/a	FR1	0	R1231M
706.721	8.335	713010	PROB	8.335	n/a	n/a	-999	4	[9, 4, 1]	14	FR1	0	R1231M
715.056	23.193	721344	PROB	23.193	n/a	n/a	-999	4	[4, 8, 4]	16	FR1	0	R1231M
738.249	0.011	744536	STOP	n/a	n/a	n/a	-999	4	[-999, -999, -999]	n/a	FR1	0	R1231M
738.26	0.617	744547	DISTRACT_END	n/a	n/a	n/a	-999	3	[0, 0, 0]	n/a	FR1	0	R1231M
738.877	0.517	745164	RETRIEVAL_ORIENT	n/a	n/a	n/a	-999	3	[0, 0, 0]	n/a	FR1	0	R1231M
739.394	8.245	745681	REC_START	n/a	n/a	n/a	-999	3	[0, 0, 0]	n/a	FR1	0	R1231M
747.639	0.693	753926	REC_WORD	0.693	n/a	JAR	-999	3	[0, 0, 0]	n/a	FR1	0	R1231M
748.332	0.62	754619	REC_WORD	0.62	n/a	GLASS	-999	3	[0, 0, 0]	n/a	FR1	0	R1231M
748.952	1.122	755239	REC_WORD	1.122	n/a	CAKE	-999	3	[0, 0, 0]	n/a	FR1	0	R1231M
750.074	5.246	756360	REC_WORD_VV	5.246	n/a	<>	-999	3	[0, 0, 0]	n/a	FR1	0	R1231M
755.32	0.752	761606	REC_WORD	0.752	n/a	FLAME	-999	3	[0, 0, 0]	n/a	FR1	0	R1231M
756.072	2.46	762358	REC_WORD	2.46	n/a	STOVE	-999	3	[0, 0, 0]	n/a	FR1	0	R1231M
758.532	5.447	764818	REC_WORD	5.447	n/a	ARK	-999	3	[0, 0, 0]	n/a	FR1	0	R1231M
763.979	5.426	770265	REC_WORD	5.426	n/a	FOAM	-999	3	[0, 0, 0]	n/a	FR1	0	R1231M
769.405	10.697	775690	REC_END	n/a	n/a	n/a	-999	3	[0, 0, 0]	n/a	FR1	0	R1231M
780.102	0.5	786387	TRIAL	n/a	n/a	n/a	-999	4	[0, 0, 0]	n/a	FR1	0	R1231M
780.602	10.428	786887	COUNTDOWN_START	n/a	n/a	n/a	-999	4	[0, 0, 0]	n/a	FR1	0	R1231M
791.03	0.007	797314	COUNTDOWN_END	n/a	n/a	n/a	-999	4	[0, 0, 0]	n/a	FR1	0	R1231M
791.037	1.617	797321	ORIENT	n/a	n/a	n/a	-999	4	[0, 0, 0]	n/a	FR1	0	R1231M
792.654	2.017	798938	ORIENT_OFF	n/a	n/a	n/a	-999	4	[0, 0, 0]	n/a	FR1	0	R1231M
794.671	1.617	800955	WORD	n/a	wordpools/wordpool_EN.txt	LAND	1	4	[0, 0, 0]	n/a	FR1	0	R1231M
796.288	0.783	802572	WORD_OFF	n/a	n/a	LAND	1	4	[0, 0, 0]	n/a	FR1	0	R1231M
797.071	1.617	803355	WORD	n/a	wordpools/wordpool_EN.txt	LAMP	2	4	[0, 0, 0]	n/a	FR1	0	R1231M
798.688	0.784	804972	WORD_OFF	n/a	n/a	LAMP	2	4	[0, 0, 0]	n/a	FR1	0	R1231M
799.472	1.617	805756	WORD	n/a	wordpools/wordpool_EN.txt	FOOD	3	4	[0, 0, 0]	n/a	FR1	0	R1231M
801.089	0.967	807373	WORD_OFF	n/a	n/a	FOOD	3	4	[0, 0, 0]	n/a	FR1	0	R1231M
802.056	1.617	808339	WORD	n/a	wordpools/wordpool_EN.txt	LAMB	4	4	[0, 0, 0]	n/a	FR1	0	R1231M
803.673	0.917	809956	WORD_OFF	n/a	n/a	LAMB	4	4	[0, 0, 0]	n/a	FR1	0	R1231M
804.59	1.617	810873	WORD	n/a	wordpools/wordpool_EN.txt	DRESS	5	4	[0, 0, 0]	n/a	FR1	0	R1231M
806.207	0.883	812490	WORD_OFF	n/a	n/a	DRESS	5	4	[0, 0, 0]	n/a	FR1	0	R1231M
807.09	1.617	813373	WORD	n/a	wordpools/wordpool_EN.txt	CHIEF	6	4	[0, 0, 0]	n/a	FR1	0	R1231M
808.707	0.934	814990	WORD_OFF	n/a	n/a	CHIEF	6	4	[0, 0, 0]	n/a	FR1	0	R1231M
809.641	1.617	815924	WORD	n/a	wordpools/wordpool_EN.txt	FROG	7	4	[0, 0, 0]	n/a	FR1	0	R1231M
811.258	1.016	817541	WORD_OFF	n/a	n/a	FROG	7	4	[0, 0, 0]	n/a	FR1	0	R1231M
812.274	1.617	818557	WORD	n/a	wordpools/wordpool_EN.txt	SWORD	8	4	[0, 0, 0]	n/a	FR1	0	R1231M
813.891	0.935	820174	WORD_OFF	n/a	n/a	SWORD	8	4	[0, 0, 0]	n/a	FR1	0	R1231M
814.826	1.616	821109	WORD	n/a	wordpools/wordpool_EN.txt	CROW	9	4	[0, 0, 0]	n/a	FR1	0	R1231M
816.442	0.833	822725	WORD_OFF	n/a	n/a	CROW	9	4	[0, 0, 0]	n/a	FR1	0	R1231M
817.275	1.617	823558	WORD	n/a	wordpools/wordpool_EN.txt	PEARL	10	4	[0, 0, 0]	n/a	FR1	0	R1231M
818.892	0.817	825174	WORD_OFF	n/a	n/a	PEARL	10	4	[0, 0, 0]	n/a	FR1	0	R1231M
819.709	1.617	825991	WORD	n/a	wordpools/wordpool_EN.txt	TEA	11	4	[0, 0, 0]	n/a	FR1	0	R1231M
821.326	0.8	827608	WORD_OFF	n/a	n/a	TEA	11	4	[0, 0, 0]	n/a	FR1	0	R1231M
822.126	1.617	828408	WORD	n/a	wordpools/wordpool_EN.txt	RICE	12	4	[0, 0, 0]	n/a	FR1	0	R1231M
823.743	0.0	830025	WORD_OFF	n/a	n/a	RICE	12	4	[0, 0, 0]	n/a	FR1	0	R1231M
823.743	0.001	830025	DISTRACT_START	n/a	n/a	n/a	-999	4	[0, 0, 0]	n/a	FR1	0	R1231M
823.744	0.016	830026	START	n/a	n/a	n/a	-999	5	[-999, -999, -999]	n/a	FR1	0	R1231M
823.76	20.76	830042	PROB	20.76	n/a	n/a	-999	5	[5, 1, 8]	14	FR1	0	R1231M
844.52	0.011	850801	STOP	n/a	n/a	n/a	-999	5	[-999, -999, -999]	n/a	FR1	0	R1231M
844.531	0.583	850812	DISTRACT_END	n/a	n/a	n/a	-999	4	[0, 0, 0]	n/a	FR1	0	R1231M
845.114	0.518	851395	RETRIEVAL_ORIENT	n/a	n/a	n/a	-999	4	[0, 0, 0]	n/a	FR1	0	R1231M
845.632	1.66	851913	REC_START	n/a	n/a	n/a	-999	4	[0, 0, 0]	n/a	FR1	0	R1231M
847.292	0.97	853573	REC_WORD	0.97	n/a	LAND	-999	4	[0, 0, 0]	n/a	FR1	0	R1231M
848.262	4.3	854543	REC_WORD	4.3	n/a	TEA	-999	4	[0, 0, 0]	n/a	FR1	0	R1231M
852.562	10.871	858843	REC_WORD	10.871	n/a	FROG	-999	4	[0, 0, 0]	n/a	FR1	0	R1231M
863.433	9.865	869713	REC_WORD_VV	9.865	n/a	<>	-999	4	[0, 0, 0]	n/a	FR1	0	R1231M
873.298	2.344	879577	REC_WORD	2.344	n/a	LAMP	-999	4	[0, 0, 0]	n/a	FR1	0	R1231M
875.642	11.464	881921	REC_END	n/a	n/a	n/a	-999	4	[0, 0, 0]	n/a	FR1	0	R1231M
887.106	0.5	893385	TRIAL	n/a	n/a	n/a	-999	5	[0, 0, 0]	n/a	FR1	0	R1231M
887.606	10.428	893885	COUNTDOWN_START	n/a	n/a	n/a	-999	5	[0, 0, 0]	n/a	FR1	0	R1231M
898.034	0.007	904312	COUNTDOWN_END	n/a	n/a	n/a	-999	5	[0, 0, 0]	n/a	FR1	0	R1231M
898.041	1.617	904319	ORIENT	n/a	n/a	n/a	-999	5	[0, 0, 0]	n/a	FR1	0	R1231M
899.658	2.117	905936	ORIENT_OFF	n/a	n/a	n/a	-999	5	[0, 0, 0]	n/a	FR1	0	R1231M
901.775	1.617	908053	WORD	n/a	wordpools/wordpool_EN.txt	BOY	1	5	[0, 0, 0]	n/a	FR1	0	R1231M
903.392	0.8	909670	WORD_OFF	n/a	n/a	BOY	1	5	[0, 0, 0]	n/a	FR1	0	R1231M
904.192	1.601	910470	WORD	n/a	wordpools/wordpool_EN.txt	PEN	2	5	[0, 0, 0]	n/a	FR1	0	R1231M
905.793	0.816	912070	WORD_OFF	n/a	n/a	PEN	2	5	[0, 0, 0]	n/a	FR1	0	R1231M
906.609	1.617	912886	WORD	n/a	wordpools/wordpool_EN.txt	FOX	3	5	[0, 0, 0]	n/a	FR1	0	R1231M
908.226	0.8	914503	WORD_OFF	n/a	n/a	FOX	3	5	[0, 0, 0]	n/a	FR1	0	R1231M
909.026	1.617	915303	WORD	n/a	wordpools/wordpool_EN.txt	ROAD	4	5	[0, 0, 0]	n/a	FR1	0	R1231M
910.643	0.934	916920	WORD_OFF	n/a	n/a	ROAD	4	5	[0, 0, 0]	n/a	FR1	0	R1231M
911.577	1.617	917854	WORD	n/a	wordpools/wordpool_EN.txt	CLOCK	5	5	[0, 0, 0]	n/a	FR1	0	R1231M
913.194	0.933	919471	WORD_OFF	n/a	n/a	CLOCK	5	5	[0, 0, 0]	n/a	FR1	0	R1231M
914.127	1.617	920404	WORD	n/a	wordpools/wordpool_EN.txt	PIPE	6	5	[0, 0, 0]	n/a	FR1	0	R1231M
915.744	1.001	922021	WORD_OFF	n/a	n/a	PIPE	6	5	[0, 0, 0]	n/a	FR1	0	R1231M
916.745	1.616	923022	WORD	n/a	wordpools/wordpool_EN.txt	BEAK	7	5	[0, 0, 0]	n/a	FR1	0	R1231M
918.361	0.901	924638	WORD_OFF	n/a	n/a	BEAK	7	5	[0, 0, 0]	n/a	FR1	0	R1231M
919.262	1.617	925539	WORD	n/a	wordpools/wordpool_EN.txt	BATH	8	5	[0, 0, 0]	n/a	FR1	0	R1231M
920.879	0.833	927156	WORD_OFF	n/a	n/a	BATH	8	5	[0, 0, 0]	n/a	FR1	0	R1231M
921.712	1.617	927989	WORD	n/a	wordpools/wordpool_EN.txt	CAR	9	5	[0, 0, 0]	n/a	FR1	0	R1231M
923.329	1.0	929605	WORD_OFF	n/a	n/a	CAR	9	5	[0, 0, 0]	n/a	FR1	0	R1231M
924.329	1.617	930605	WORD	n/a	wordpools/wordpool_EN.txt	MULE	10	5	[0, 0, 0]	n/a	FR1	0	R1231M
925.946	0.885	932222	WORD_OFF	n/a	n/a	MULE	10	5	[0, 0, 0]	n/a	FR1	0	R1231M
926.831	1.616	933107	WORD	n/a	wordpools/wordpool_EN.txt	HOUSE	11	5	[0, 0, 0]	n/a	FR1	0	R1231M
928.447	0.783	934723	WORD_OFF	n/a	n/a	HOUSE	11	5	[0, 0, 0]	n/a	FR1	0	R1231M
929.23	1.617	935506	WORD	n/a	wordpools/wordpool_EN.txt	ROSE	12	5	[0, 0, 0]	n/a	FR1	0	R1231M
930.847	0.0	937123	WORD_OFF	n/a	n/a	ROSE	12	5	[0, 0, 0]	n/a	FR1	0	R1231M
930.847	0.001	937123	DISTRACT_START	n/a	n/a	n/a	-999	5	[0, 0, 0]	n/a	FR1	0	R1231M
930.848	0.016	937124	START	n/a	n/a	n/a	-999	6	[-999, -999, -999]	n/a	FR1	0	R1231M
930.864	40.922	937140	PROB	40.922	n/a	n/a	-999	6	[9, 4, 7]	17	FR1	0	R1231M
971.786	0.02	978060	STOP	n/a	n/a	n/a	-999	6	[-999, -999, -999]	n/a	FR1	0	R1231M
971.806	0.549	978080	DISTRACT_END	n/a	n/a	n/a	-999	5	[0, 0, 0]	n/a	FR1	0	R1231M
972.355	0.518	978629	RETRIEVAL_ORIENT	n/a	n/a	n/a	-999	5	[0, 0, 0]	n/a	FR1	0	R1231M
972.873	3.477	979147	REC_START	n/a	n/a	n/a	-999	5	[0, 0, 0]	n/a	FR1	0	R1231M
976.35	1.562	982623	REC_WORD	1.562	n/a	BOY	-999	5	[0, 0, 0]	n/a	FR1	0	R1231M
977.912	11.558	984185	REC_WORD	11.558	n/a	PEN	-999	5	[0, 0, 0]	n/a	FR1	0	R1231M
989.47	13.414	995743	REC_WORD	13.414	n/a	ROSE	-999	5	[0, 0, 0]	n/a	FR1	0	R1231M
1002.884	6.695	1009156	REC_END	n/a	n/a	n/a	-999	5	[0, 0, 0]	n/a	FR1	0	R1231M
1009.579	0.5	1015850	TRIAL	n/a	n/a	n/a	-999	6	[0, 0, 0]	n/a	FR1	0	R1231M
1010.079	10.428	1016350	COUNTDOWN_START	n/a	n/a	n/a	-999	6	[0, 0, 0]	n/a	FR1	0	R1231M
1020.507	0.008	1026778	COUNTDOWN_END	n/a	n/a	n/a	-999	6	[0, 0, 0]	n/a	FR1	0	R1231M
1020.515	1.617	1026786	ORIENT	n/a	n/a	n/a	-999	6	[0, 0, 0]	n/a	FR1	0	R1231M
1022.132	2.333	1028403	ORIENT_OFF	n/a	n/a	n/a	-999	6	[0, 0, 0]	n/a	FR1	0	R1231M
1024.465	1.617	1030736	WORD	n/a	wordpools/wordpool_EN.txt	DEER	1	6	[0, 0, 0]	n/a	FR1	0	R1231M
1026.082	0.834	1032353	WORD_OFF	n/a	n/a	DEER	1	6	[0, 0, 0]	n/a	FR1	0	R1231M
1026.916	1.617	1033186	WORD	n/a	wordpools/wordpool_EN.txt	STORM	2	6	[0, 0, 0]	n/a	FR1	0	R1231M
1028.533	0.867	1034803	WORD_OFF	n/a	n/a	STORM	2	6	[0, 0, 0]	n/a	FR1	0	R1231M
1029.4	1.617	1035670	WORD	n/a	wordpools/wordpool_EN.txt	OWL	3	6	[0, 0, 0]	n/a	FR1	0	R1231M
1031.017	0.818	1037287	WORD_OFF	n/a	n/a	OWL	3	6	[0, 0, 0]	n/a	FR1	0	R1231M
1031.835	1.616	1038105	WORD	n/a	wordpools/wordpool_EN.txt	FENCE	4	6	[0, 0, 0]	n/a	FR1	0	R1231M
1033.451	0.816	1039721	WORD_OFF	n/a	n/a	FENCE	4	6	[0, 0, 0]	n/a	FR1	0	R1231M
1034.267	1.617	1040537	WORD	n/a	wordpools/wordpool_EN.txt	FLEA	5	6	[0, 0, 0]	n/a	FR1	0	R1231M
1035.884	0.817	1042154	WORD_OFF	n/a	n/a	FLEA	5	6	[0, 0, 0]	n/a	FR1	0	R1231M
1036.701	1.617	1042971	WORD	n/a	wordpools/wordpool_EN.txt	OAR	6	6	[0, 0, 0]	n/a	FR1	0	R1231M
1038.318	0.8	1044588	WORD_OFF	n/a	n/a	OAR	6	6	[0, 0, 0]	n/a	FR1	0	R1231M
1039.118	1.617	1045388	WORD	n/a	wordpools/wordpool_EN.txt	PIG	7	6	[0, 0, 0]	n/a	FR1	0	R1231M
1040.735	0.95	1047005	WORD_OFF	n/a	n/a	PIG	7	6	[0, 0, 0]	n/a	FR1	0	R1231M
1041.685	1.617	1047955	WORD	n/a	wordpools/wordpool_EN.txt	PET	8	6	[0, 0, 0]	n/a	FR1	0	R1231M
1043.302	0.834	1049572	WORD_OFF	n/a	n/a	PET	8	6	[0, 0, 0]	n/a	FR1	0	R1231M
1044.136	1.617	1050405	WORD	n/a	wordpools/wordpool_EN.txt	LAWN	9	6	[0, 0, 0]	n/a	FR1	0	R1231M
1045.753	0.917	1052022	WORD_OFF	n/a	n/a	LAWN	9	6	[0, 0, 0]	n/a	FR1	0	R1231M
1046.67	1.617	1052939	WORD	n/a	wordpools/wordpool_EN.txt	PARK	10	6	[0, 0, 0]	n/a	FR1	0	R1231M
1048.287	0.983	1054556	WORD_OFF	n/a	n/a	PARK	10	6	[0, 0, 0]	n/a	FR1	0	R1231M
1049.27	1.617	1055539	WORD	n/a	wordpools/wordpool_EN.txt	OAK	11	6	[0, 0, 0]	n/a	FR1	0	R1231M
1050.887	0.8	1057156	WORD_OFF	n/a	n/a	OAK	11	6	[0, 0, 0]	n/a	FR1	0	R1231M
1051.687	1.617	1057956	WORD	n/a	wordpools/wordpool_EN.txt	SKY	12	6	[0, 0, 0]	n/a	FR1	0	R1231M
1053.304	0.0	1059573	WORD_OFF	n/a	n/a	SKY	12	6	[0, 0, 0]	n/a	FR1	0	R1231M
1053.304	0.001	1059573	DISTRACT_START	n/a	n/a	n/a	-999	6	[0, 0, 0]	n/a	FR1	0	R1231M
1053.305	0.016	1059574	START	n/a	n/a	n/a	-999	7	[-999, -999, -999]	n/a	FR1	0	R1231M
1053.321	8.252	1059590	PROB	8.252	n/a	n/a	-999	7	[5, 5, 3]	13	FR1	0	R1231M
1061.573	42.252	1067841	PROB	42.252	n/a	n/a	-999	7	[9, 3, 5]	17	FR1	0	R1231M
1103.825	0.007	1110091	STOP	n/a	n/a	n/a	-999	7	[-999, -999, -999]	n/a	FR1	0	R1231M
1103.832	0.666	1110098	DISTRACT_END	n/a	n/a	n/a	-999	6	[0, 0, 0]	n/a	FR1	0	R1231M
1104.498	0.517	1110764	RETRIEVAL_ORIENT	n/a	n/a	n/a	-999	6	[0, 0, 0]	n/a	FR1	0	R1231M
1105.015	3.171	1111281	REC_START	n/a	n/a	n/a	-999	6	[0, 0, 0]	n/a	FR1	0	R1231M
1108.186	0.677	1114452	REC_WORD	0.677	n/a	DEER	-999	6	[0, 0, 0]	n/a	FR1	0	R1231M
1108.863	1.552	1115129	REC_WORD	1.552	n/a	STORM	-999	6	[0, 0, 0]	n/a	FR1	0	R1231M
1110.415	24.61	1116681	REC_WORD	24.61	n/a	OAK	-999	6	[0, 0, 0]	n/a	FR1	0	R1231M
1135.025	31.885	1141289	REC_END	n/a	n/a	n/a	-999	6	[0, 0, 0]	n/a	FR1	0	R1231M
1166.91	0.5	1173172	TRIAL	n/a	n/a	n/a	-999	7	[0, 0, 0]	n/a	FR1	0	R1231M
1167.41	10.428	1173672	COUNTDOWN_START	n/a	n/a	n/a	-999	7	[0, 0, 0]	n/a	FR1	0	R1231M
1177.838	0.008	1184100	COUNTDOWN_END	n/a	n/a	n/a	-999	7	[0, 0, 0]	n/a	FR1	0	R1231M
1177.846	1.616	1184108	ORIENT	n/a	n/a	n/a	-999	7	[0, 0, 0]	n/a	FR1	0	R1231M
1179.462	2.318	1185724	ORIENT_OFF	n/a	n/a	n/a	-999	7	[0, 0, 0]	n/a	FR1	0	R1231M
1181.78	1.616	1188042	WORD	n/a	wordpools/wordpool_EN.txt	PLANT	1	7	[0, 0, 0]	n/a	FR1	0	R1231M
1183.396	0.85	1189657	WORD_OFF	n/a	n/a	PLANT	1	7	[0, 0, 0]	n/a	FR1	0	R1231M
1184.246	1.601	1190507	WORD	n/a	wordpools/wordpool_EN.txt	STORE	2	7	[0, 0, 0]	n/a	FR1	0	R1231M
1185.847	0.968	1192108	WORD_OFF	n/a	n/a	STORE	2	7	[0, 0, 0]	n/a	FR1	0	R1231M
1186.815	1.616	1193076	WORD	n/a	wordpools/wordpool_EN.txt	ANT	3	7	[0, 0, 0]	n/a	FR1	0	R1231M
1188.431	0.933	1194692	WORD_OFF	n/a	n/a	ANT	3	7	[0, 0, 0]	n/a	FR1	0	R1231M
1189.364	1.617	1195625	WORD	n/a	wordpools/wordpool_EN.txt	ICE	4	7	[0, 0, 0]	n/a	FR1	0	R1231M
1190.981	0.95	1197242	WORD_OFF	n/a	n/a	ICE	4	7	[0, 0, 0]	n/a	FR1	0	R1231M
1191.931	1.617	1198192	WORD	n/a	wordpools/wordpool_EN.txt	EEL	5	7	[0, 0, 0]	n/a	FR1	0	R1231M
1193.548	0.867	1199809	WORD_OFF	n/a	n/a	EEL	5	7	[0, 0, 0]	n/a	FR1	0	R1231M
1194.415	1.617	1200676	WORD	n/a	wordpools/wordpool_EN.txt	SPONGE	6	7	[0, 0, 0]	n/a	FR1	0	R1231M
1196.032	0.967	1202293	WORD_OFF	n/a	n/a	SPONGE	6	7	[0, 0, 0]	n/a	FR1	0	R1231M
1196.999	1.617	1203260	WORD	n/a	wordpools/wordpool_EN.txt	MOLE	7	7	[0, 0, 0]	n/a	FR1	0	R1231M
1198.616	0.883	1204877	WORD_OFF	n/a	n/a	MOLE	7	7	[0, 0, 0]	n/a	FR1	0	R1231M
1199.499	1.617	1205760	WORD	n/a	wordpools/wordpool_EN.txt	EGG	8	7	[0, 0, 0]	n/a	FR1	0	R1231M
1201.116	0.834	1207376	WORD_OFF	n/a	n/a	EGG	8	7	[0, 0, 0]	n/a	FR1	0	R1231M
1201.95	1.617	1208210	WORD	n/a	wordpools/wordpool_EN.txt	NET	9	7	[0, 0, 0]	n/a	FR1	0	R1231M
1203.567	0.817	1209827	WORD_OFF	n/a	n/a	NET	9	7	[0, 0, 0]	n/a	FR1	0	R1231M
1204.384	1.617	1210644	WORD	n/a	wordpools/wordpool_EN.txt	SEED	10	7	[0, 0, 0]	n/a	FR1	0	R1231M
1206.001	0.9	1212261	WORD_OFF	n/a	n/a	SEED	10	7	[0, 0, 0]	n/a	FR1	0	R1231M
1206.901	1.617	1213161	WORD	n/a	wordpools/wordpool_EN.txt	FISH	11	7	[0, 0, 0]	n/a	FR1	0	R1231M
1208.518	0.767	1214778	WORD_OFF	n/a	n/a	FISH	11	7	[0, 0, 0]	n/a	FR1	0	R1231M
1209.285	1.617	1215545	WORD	n/a	wordpools/wordpool_EN.txt	SALT	12	7	[0, 0, 0]	n/a	FR1	0	R1231M
1210.902	0.0	1217162	WORD_OFF	n/a	n/a	SALT	12	7	[0, 0, 0]	n/a	FR1	0	R1231M
1210.902	0.0	1217162	DISTRACT_START	n/a	n/a	n/a	-999	7	[0, 0, 0]	n/a	FR1	0	R1231M
1210.902	0.016	1217162	START	n/a	n/a	n/a	-999	8	[-999, -999, -999]	n/a	FR1	0	R1231M
1210.918	15.353	1217178	PROB	15.353	n/a	n/a	-999	8	[3, 3, 8]	14	FR1	0	R1231M
1226.271	14.257	1232530	PROB	14.257	n/a	n/a	-999	8	[3, 7, 8]	18	FR1	0	R1231M
1240.528	0.013	1246786	STOP	n/a	n/a	n/a	-999	8	[-999, -999, -999]	n/a	FR1	0	R1231M
1240.541	0.616	1246799	DISTRACT_END	n/a	n/a	n/a	-999	7	[0, 0, 0]	n/a	FR1	0	R1231M
1241.157	0.518	1247415	RETRIEVAL_ORIENT	n/a	n/a	n/a	-999	7	[0, 0, 0]	n/a	FR1	0	R1231M
1241.675	21.264	1247933	REC_START	n/a	n/a	n/a	-999	7	[0, 0, 0]	n/a	FR1	0	R1231M
1262.939	8.747	1269196	REC_WORD	8.747	n/a	EEL	-999	7	[0, 0, 0]	n/a	FR1	0	R1231M
1271.686	41.919	1277942	REC_END	n/a	n/a	n/a	-999	7	[0, 0, 0]	n/a	FR1	0	R1231M
1313.605	0.5	1319859	TRIAL	n/a	n/a	n/a	-999	8	[0, 0, 0]	n/a	FR1	0	R1231M
1314.105	10.428	1320359	COUNTDOWN_START	n/a	n/a	n/a	-999	8	[0, 0, 0]	n/a	FR1	0	R1231M
1324.533	0.007	1330786	COUNTDOWN_END	n/a	n/a	n/a	-999	8	[0, 0, 0]	n/a	FR1	0	R1231M
1324.54	1.617	1330793	ORIENT	n/a	n/a	n/a	-999	8	[0, 0, 0]	n/a	FR1	0	R1231M
1326.157	2.034	1332410	ORIENT_OFF	n/a	n/a	n/a	-999	8	[0, 0, 0]	n/a	FR1	0	R1231M
1328.191	1.618	1334444	WORD	n/a	wordpools/wordpool_EN.txt	SHEET	1	8	[0, 0, 0]	n/a	FR1	0	R1231M
1329.809	0.949	1336062	WORD_OFF	n/a	n/a	SHEET	1	8	[0, 0, 0]	n/a	FR1	0	R1231M
1330.758	1.617	1337011	WORD	n/a	wordpools/wordpool_EN.txt	HEART	2	8	[0, 0, 0]	n/a	FR1	0	R1231M
1332.375	0.934	1338628	WORD_OFF	n/a	n/a	HEART	2	8	[0, 0, 0]	n/a	FR1	0	R1231M
1333.309	1.617	1339562	WORD	n/a	wordpools/wordpool_EN.txt	KEY	3	8	[0, 0, 0]	n/a	FR1	0	R1231M
1334.926	0.867	1341179	WORD_OFF	n/a	n/a	KEY	3	8	[0, 0, 0]	n/a	FR1	0	R1231M
1335.793	1.616	1342046	WORD	n/a	wordpools/wordpool_EN.txt	WAVE	4	8	[0, 0, 0]	n/a	FR1	0	R1231M
1337.409	0.984	1343662	WORD_OFF	n/a	n/a	WAVE	4	8	[0, 0, 0]	n/a	FR1	0	R1231M
1338.393	1.617	1344646	WORD	n/a	wordpools/wordpool_EN.txt	STEAM	5	8	[0, 0, 0]	n/a	FR1	0	R1231M
1340.01	0.95	1346262	WORD_OFF	n/a	n/a	STEAM	5	8	[0, 0, 0]	n/a	FR1	0	R1231M
1340.96	1.617	1347212	WORD	n/a	wordpools/wordpool_EN.txt	WING	6	8	[0, 0, 0]	n/a	FR1	0	R1231M
1342.577	1.0	1348829	WORD_OFF	n/a	n/a	WING	6	8	[0, 0, 0]	n/a	FR1	0	R1231M
1343.577	1.617	1349829	WORD	n/a	wordpools/wordpool_EN.txt	PHONE	7	8	[0, 0, 0]	n/a	FR1	0	R1231M
1345.194	0.834	1351446	WORD_OFF	n/a	n/a	PHONE	7	8	[0, 0, 0]	n/a	FR1	0	R1231M
1346.028	1.617	1352280	WORD	n/a	wordpools/wordpool_EN.txt	WHEEL	8	8	[0, 0, 0]	n/a	FR1	0	R1231M
1347.645	1.0	1353897	WORD_OFF	n/a	n/a	WHEEL	8	8	[0, 0, 0]	n/a	FR1	0	R1231M
1348.645	1.617	1354897	WORD	n/a	wordpools/wordpool_EN.txt	DRUM	9	8	[0, 0, 0]	n/a	FR1	0	R1231M
1350.262	0.817	1356514	WORD_OFF	n/a	n/a	DRUM	9	8	[0, 0, 0]	n/a	FR1	0	R1231M
1351.079	1.617	1357331	WORD	n/a	wordpools/wordpool_EN.txt	BOOK	10	8	[0, 0, 0]	n/a	FR1	0	R1231M
1352.696	0.9	1358948	WORD_OFF	n/a	n/a	BOOK	10	8	[0, 0, 0]	n/a	FR1	0	R1231M
1353.596	1.617	1359848	WORD	n/a	wordpools/wordpool_EN.txt	PEA	11	8	[0, 0, 0]	n/a	FR1	0	R1231M
1355.213	0.85	1361465	WORD_OFF	n/a	n/a	PEA	11	8	[0, 0, 0]	n/a	FR1	0	R1231M
1356.063	1.617	1362314	WORD	n/a	wordpools/wordpool_EN.txt	BOMB	12	8	[0, 0, 0]	n/a	FR1	0	R1231M
1357.68	0.0	1363931	WORD_OFF	n/a	n/a	BOMB	12	8	[0, 0, 0]	n/a	FR1	0	R1231M
1357.68	0.0	1363931	DISTRACT_START	n/a	n/a	n/a	-999	8	[0, 0, 0]	n/a	FR1	0	R1231M
1357.68	0.017	1363931	START	n/a	n/a	n/a	-999	9	[-999, -999, -999]	n/a	FR1	0	R1231M
1357.697	15.469	1363948	PROB	15.469	n/a	n/a	-999	9	[6, 2, 2]	10	FR1	0	R1231M
1373.166	13.763	1379417	PROB	13.763	n/a	n/a	-999	9	[3, 8, 8]	19	FR1	0	R1231M
1386.929	0.007	1393179	STOP	n/a	n/a	n/a	-999	9	[-999, -999, -999]	n/a	FR1	0	R1231M
1386.936	0.533	1393186	DISTRACT_END	n/a	n/a	n/a	-999	8	[0, 0, 0]	n/a	FR1	0	R1231M
1387.469	0.518	1393719	RETRIEVAL_ORIENT	n/a	n/a	n/a	-999	8	[0, 0, 0]	n/a	FR1	0	R1231M
1387.987	3.076	1394237	REC_START	n/a	n/a	n/a	-999	8	[0, 0, 0]	n/a	FR1	0	R1231M
1391.063	1.122	1397312	REC_WORD	1.122	n/a	SHEET	-999	8	[0, 0, 0]	n/a	FR1	0	R1231M
1392.185	3.629	1398434	REC_WORD	3.629	n/a	HEART	-999	8	[0, 0, 0]	n/a	FR1	0	R1231M
1395.814	1.911	1402063	REC_WORD	1.911	n/a	STEAM	-999	8	[0, 0, 0]	n/a	FR1	0	R1231M
1397.725	5.415	1403974	REC_WORD	5.415	n/a	WAVE	-999	8	[0, 0, 0]	n/a	FR1	0	R1231M
1403.14	1.257	1409389	REC_WORD	1.257	n/a	DRUM	-999	8	[0, 0, 0]	n/a	FR1	0	R1231M
1404.397	13.601	1410646	REC_WORD	13.601	n/a	BOOK	-999	8	[0, 0, 0]	n/a	FR1	0	R1231M
1417.998	25.615	1424246	REC_END	n/a	n/a	n/a	-999	8	[0, 0, 0]	n/a	FR1	0	R1231M
1443.613	0.5	1449859	TRIAL	n/a	n/a	n/a	-999	9	[0, 0, 0]	n/a	FR1	0	R1231M
1444.113	10.428	1450359	COUNTDOWN_START	n/a	n/a	n/a	-999	9	[0, 0, 0]	n/a	FR1	0	R1231M
1454.541	0.008	1460787	COUNTDOWN_END	n/a	n/a	n/a	-999	9	[0, 0, 0]	n/a	FR1	0	R1231M
1454.549	1.617	1460795	ORIENT	n/a	n/a	n/a	-999	9	[0, 0, 0]	n/a	FR1	0	R1231M
1456.166	2.217	1462412	ORIENT_OFF	n/a	n/a	n/a	-999	9	[0, 0, 0]	n/a	FR1	0	R1231M
1458.383	1.617	1464629	WORD	n/a	wordpools/wordpool_EN.txt	FLAG	1	9	[0, 0, 0]	n/a	FR1	0	R1231M
1460.0	0.818	1466246	WORD_OFF	n/a	n/a	FLAG	1	9	[0, 0, 0]	n/a	FR1	0	R1231M
1460.818	1.616	1467063	WORD	n/a	wordpools/wordpool_EN.txt	SLUSH	2	9	[0, 0, 0]	n/a	FR1	0	R1231M
1462.434	0.783	1468679	WORD_OFF	n/a	n/a	SLUSH	2	9	[0, 0, 0]	n/a	FR1	0	R1231M
1463.217	1.618	1469462	WORD	n/a	wordpools/wordpool_EN.txt	JUDGE	3	9	[0, 0, 0]	n/a	FR1	0	R1231M
1464.835	0.799	1471080	WORD_OFF	n/a	n/a	JUDGE	3	9	[0, 0, 0]	n/a	FR1	0	R1231M
1465.634	1.617	1471879	WORD	n/a	wordpools/wordpool_EN.txt	STREET	4	9	[0, 0, 0]	n/a	FR1	0	R1231M
1467.251	0.9	1473496	WORD_OFF	n/a	n/a	STREET	4	9	[0, 0, 0]	n/a	FR1	0	R1231M
1468.151	1.617	1474396	WORD	n/a	wordpools/wordpool_EN.txt	JAIL	5	9	[0, 0, 0]	n/a	FR1	0	R1231M
1469.768	0.984	1476013	WORD_OFF	n/a	n/a	JAIL	5	9	[0, 0, 0]	n/a	FR1	0	R1231M
1470.752	1.617	1476997	WORD	n/a	wordpools/wordpool_EN.txt	SIGN	6	9	[0, 0, 0]	n/a	FR1	0	R1231M
1472.369	0.983	1478614	WORD_OFF	n/a	n/a	SIGN	6	9	[0, 0, 0]	n/a	FR1	0	R1231M
1473.352	1.617	1479597	WORD	n/a	wordpools/wordpool_EN.txt	HAT	7	9	[0, 0, 0]	n/a	FR1	0	R1231M
1474.969	0.868	1481214	WORD_OFF	n/a	n/a	HAT	7	9	[0, 0, 0]	n/a	FR1	0	R1231M
1475.837	1.616	1482082	WORD	n/a	wordpools/wordpool_EN.txt	POOL	8	9	[0, 0, 0]	n/a	FR1	0	R1231M
1477.453	0.8	1483697	WORD_OFF	n/a	n/a	POOL	8	9	[0, 0, 0]	n/a	FR1	0	R1231M
1478.253	1.617	1484497	WORD	n/a	wordpools/wordpool_EN.txt	BADGE	9	9	[0, 0, 0]	n/a	FR1	0	R1231M
1479.87	1.0	1486114	WORD_OFF	n/a	n/a	BADGE	9	9	[0, 0, 0]	n/a	FR1	0	R1231M
1480.87	1.617	1487114	WORD	n/a	wordpools/wordpool_EN.txt	CRANE	10	9	[0, 0, 0]	n/a	FR1	0	R1231M
1482.487	0.767	1488731	WORD_OFF	n/a	n/a	CRANE	10	9	[0, 0, 0]	n/a	FR1	0	R1231M
1483.254	1.617	1489498	WORD	n/a	wordpools/wordpool_EN.txt	FACE	11	9	[0, 0, 0]	n/a	FR1	0	R1231M
1484.871	1.017	1491115	WORD_OFF	n/a	n/a	FACE	11	9	[0, 0, 0]	n/a	FR1	0	R1231M
1485.888	1.617	1492132	WORD	n/a	wordpools/wordpool_EN.txt	BAND	12	9	[0, 0, 0]	n/a	FR1	0	R1231M
1487.505	0.0	1493749	WORD_OFF	n/a	n/a	BAND	12	9	[0, 0, 0]	n/a	FR1	0	R1231M
1487.505	0.001	1493749	DISTRACT_START	n/a	n/a	n/a	-999	9	[0, 0, 0]	n/a	FR1	0	R1231M
1487.506	0.016	1493750	START	n/a	n/a	n/a	-999	10	[-999, -999, -999]	n/a	FR1	0	R1231M
1487.522	8.702	1493766	PROB	8.702	n/a	n/a	-999	10	[2, 4, 5]	11	FR1	0	R1231M
1496.224	19.784	1502467	PROB	19.784	n/a	n/a	-999	10	[6, 1, 5]	12	FR1	0	R1231M
1516.008	0.019	1522250	STOP	n/a	n/a	n/a	-999	10	[-999, -999, -999]	n/a	FR1	0	R1231M
1516.027	0.684	1522269	DISTRACT_END	n/a	n/a	n/a	-999	9	[0, 0, 0]	n/a	FR1	0	R1231M
1516.711	0.517	1522953	RETRIEVAL_ORIENT	n/a	n/a	n/a	-999	9	[0, 0, 0]	n/a	FR1	0	R1231M
1517.228	7.427	1523470	REC_START	n/a	n/a	n/a	-999	9	[0, 0, 0]	n/a	FR1	0	R1231M
1524.655	2.312	1530897	REC_WORD	2.312	n/a	JUDGE	-999	9	[0, 0, 0]	n/a	FR1	0	R1231M
1526.967	2.449	1533209	REC_WORD	2.449	n/a	STREET	-999	9	[0, 0, 0]	n/a	FR1	0	R1231M
1529.416	2.519	1535657	REC_WORD	2.519	n/a	SIGN	-999	9	[0, 0, 0]	n/a	FR1	0	R1231M
1531.935	11.085	1538176	REC_WORD	11.085	n/a	HAT	-999	9	[0, 0, 0]	n/a	FR1	0	R1231M
1543.02	4.218	1549261	REC_WORD_VV	4.218	n/a	<>	-999	9	[0, 0, 0]	n/a	FR1	0	R1231M
1547.238	7.513	1553478	REC_END	n/a	n/a	n/a	-999	9	[0, 0, 0]	n/a	FR1	0	R1231M
1554.751	0.5	1560991	TRIAL	n/a	n/a	n/a	-999	10	[0, 0, 0]	n/a	FR1	0	R1231M
1555.251	10.428	1561491	COUNTDOWN_START	n/a	n/a	n/a	-999	10	[0, 0, 0]	n/a	FR1	0	R1231M
1565.679	0.008	1571918	COUNTDOWN_END	n/a	n/a	n/a	-999	10	[0, 0, 0]	n/a	FR1	0	R1231M
1565.687	1.617	1571926	ORIENT	n/a	n/a	n/a	-999	10	[0, 0, 0]	n/a	FR1	0	R1231M
1567.304	1.95	1573543	ORIENT_OFF	n/a	n/a	n/a	-999	10	[0, 0, 0]	n/a	FR1	0	R1231M
1569.254	1.617	1575493	WORD	n/a	wordpools/wordpool_EN.txt	SPARK	1	10	[0, 0, 0]	n/a	FR1	0	R1231M
1570.871	0.918	1577110	WORD_OFF	n/a	n/a	SPARK	1	10	[0, 0, 0]	n/a	FR1	0	R1231M
1571.789	1.616	1578028	WORD	n/a	wordpools/wordpool_EN.txt	SCHOOL	2	10	[0, 0, 0]	n/a	FR1	0	R1231M
1573.405	0.834	1579644	WORD_OFF	n/a	n/a	SCHOOL	2	10	[0, 0, 0]	n/a	FR1	0	R1231M
1574.239	1.617	1580478	WORD	n/a	wordpools/wordpool_EN.txt	BOX	3	10	[0, 0, 0]	n/a	FR1	0	R1231M
1575.856	1.0	1582095	WORD_OFF	n/a	n/a	BOX	3	10	[0, 0, 0]	n/a	FR1	0	R1231M
1576.856	1.617	1583095	WORD	n/a	wordpools/wordpool_EN.txt	DIME	4	10	[0, 0, 0]	n/a	FR1	0	R1231M
1578.473	0.867	1584712	WORD_OFF	n/a	n/a	DIME	4	10	[0, 0, 0]	n/a	FR1	0	R1231M
1579.34	1.617	1585579	WORD	n/a	wordpools/wordpool_EN.txt	COIN	5	10	[0, 0, 0]	n/a	FR1	0	R1231M
1580.957	1.016	1587196	WORD_OFF	n/a	n/a	COIN	5	10	[0, 0, 0]	n/a	FR1	0	R1231M
1581.973	1.617	1588211	WORD	n/a	wordpools/wordpool_EN.txt	CLOTH	6	10	[0, 0, 0]	n/a	FR1	0	R1231M
1583.59	0.967	1589828	WORD_OFF	n/a	n/a	CLOTH	6	10	[0, 0, 0]	n/a	FR1	0	R1231M
1584.557	1.617	1590795	WORD	n/a	wordpools/wordpool_EN.txt	SOAP	7	10	[0, 0, 0]	n/a	FR1	0	R1231M
1586.174	0.967	1592412	WORD_OFF	n/a	n/a	SOAP	7	10	[0, 0, 0]	n/a	FR1	0	R1231M
1587.141	1.617	1593379	WORD	n/a	wordpools/wordpool_EN.txt	WOOD	8	10	[0, 0, 0]	n/a	FR1	0	R1231M
1588.758	0.917	1594996	WORD_OFF	n/a	n/a	WOOD	8	10	[0, 0, 0]	n/a	FR1	0	R1231M
1589.675	1.617	1595913	WORD	n/a	wordpools/wordpool_EN.txt	HOSE	9	10	[0, 0, 0]	n/a	FR1	0	R1231M
1591.292	1.0	1597530	WORD_OFF	n/a	n/a	HOSE	9	10	[0, 0, 0]	n/a	FR1	0	R1231M
1592.292	1.617	1598530	WORD	n/a	wordpools/wordpool_EN.txt	INK	10	10	[0, 0, 0]	n/a	FR1	0	R1231M
1593.909	0.967	1600147	WORD_OFF	n/a	n/a	INK	10	10	[0, 0, 0]	n/a	FR1	0	R1231M
1594.876	1.617	1601114	WORD	n/a	wordpools/wordpool_EN.txt	FLUTE	11	10	[0, 0, 0]	n/a	FR1	0	R1231M
1596.493	0.767	1602731	WORD_OFF	n/a	n/a	FLUTE	11	10	[0, 0, 0]	n/a	FR1	0	R1231M
1597.26	1.617	1603498	WORD	n/a	wordpools/wordpool_EN.txt	TANK	12	10	[0, 0, 0]	n/a	FR1	0	R1231M
1598.877	0.0	1605114	WORD_OFF	n/a	n/a	TANK	12	10	[0, 0, 0]	n/a	FR1	0	R1231M
1598.877	0.0	1605114	DISTRACT_START	n/a	n/a	n/a	-999	10	[0, 0, 0]	n/a	FR1	0	R1231M
1598.877	0.016	1605114	START	n/a	n/a	n/a	-999	11	[-999, -999, -999]	n/a	FR1	0	R1231M
1598.893	17.704	1605130	PROB	17.704	n/a	n/a	-999	11	[4, 3, 7]	14	FR1	0	R1231M
1616.597	6.564	1622833	PROB	6.564	n/a	n/a	-999	11	[6, 2, 7]	15	FR1	0	R1231M
1623.161	0.02	1629397	STOP	n/a	n/a	n/a	-999	11	[-999, -999, -999]	n/a	FR1	0	R1231M
1623.181	0.584	1629417	DISTRACT_END	n/a	n/a	n/a	-999	10	[0, 0, 0]	n/a	FR1	0	R1231M
1623.765	0.517	1630001	RETRIEVAL_ORIENT	n/a	n/a	n/a	-999	10	[0, 0, 0]	n/a	FR1	0	R1231M
1624.282	5.329	1630518	REC_START	n/a	n/a	n/a	-999	10	[0, 0, 0]	n/a	FR1	0	R1231M
1629.611	1.592	1635847	REC_WORD	1.592	n/a	SCHOOL	-999	10	[0, 0, 0]	n/a	FR1	0	R1231M
1631.203	2.109	1637439	REC_WORD	2.109	n/a	BOX	-999	10	[0, 0, 0]	n/a	FR1	0	R1231M
1633.312	7.25	1639548	REC_WORD	7.25	n/a	COIN	-999	10	[0, 0, 0]	n/a	FR1	0	R1231M
1640.562	13.732	1646797	REC_WORD	13.732	n/a	SPARK	-999	10	[0, 0, 0]	n/a	FR1	0	R1231M
1654.294	10.795	1660528	REC_END	n/a	n/a	n/a	-999	10	[0, 0, 0]	n/a	FR1	0	R1231M
1665.089	0.5	1671323	TRIAL	n/a	n/a	n/a	-999	11	[0, 0, 0]	n/a	FR1	0	R1231M
1665.589	10.428	1671823	COUNTDOWN_START	n/a	n/a	n/a	-999	11	[0, 0, 0]	n/a	FR1	0	R1231M
1676.017	0.008	1682250	COUNTDOWN_END	n/a	n/a	n/a	-999	11	[0, 0, 0]	n/a	FR1	0	R1231M
1676.025	1.617	1682258	ORIENT	n/a	n/a	n/a	-999	11	[0, 0, 0]	n/a	FR1	0	R1231M
1677.642	2.201	1683875	ORIENT_OFF	n/a	n/a	n/a	-999	11	[0, 0, 0]	n/a	FR1	0	R1231M
1679.843	1.616	1686076	WORD	n/a	wordpools/wordpool_EN.txt	VAN	1	11	[0, 0, 0]	n/a	FR1	0	R1231M
1681.459	0.801	1687692	WORD_OFF	n/a	n/a	VAN	1	11	[0, 0, 0]	n/a	FR1	0	R1231M
1682.26	1.617	1688493	WORD	n/a	wordpools/wordpool_EN.txt	SQUARE	2	11	[0, 0, 0]	n/a	FR1	0	R1231M
1683.877	0.766	1690110	WORD_OFF	n/a	n/a	SQUARE	2	11	[0, 0, 0]	n/a	FR1	0	R1231M
1684.643	1.617	1690876	WORD	n/a	wordpools/wordpool_EN.txt	FAN	3	11	[0, 0, 0]	n/a	FR1	0	R1231M
1686.26	0.8	1692492	WORD_OFF	n/a	n/a	FAN	3	11	[0, 0, 0]	n/a	FR1	0	R1231M
1687.06	1.617	1693292	WORD	n/a	wordpools/wordpool_EN.txt	COUCH	4	11	[0, 0, 0]	n/a	FR1	0	R1231M
1688.677	0.834	1694909	WORD_OFF	n/a	n/a	COUCH	4	11	[0, 0, 0]	n/a	FR1	0	R1231M
1689.511	1.617	1695743	WORD	n/a	wordpools/wordpool_EN.txt	CAGE	5	11	[0, 0, 0]	n/a	FR1	0	R1231M
1691.128	0.967	1697360	WORD_OFF	n/a	n/a	CAGE	5	11	[0, 0, 0]	n/a	FR1	0	R1231M
1692.095	1.617	1698327	WORD	n/a	wordpools/wordpool_EN.txt	NOSE	6	11	[0, 0, 0]	n/a	FR1	0	R1231M
1693.712	0.983	1699944	WORD_OFF	n/a	n/a	NOSE	6	11	[0, 0, 0]	n/a	FR1	0	R1231M
1694.695	1.617	1700927	WORD	n/a	wordpools/wordpool_EN.txt	CAPE	7	11	[0, 0, 0]	n/a	FR1	0	R1231M
1696.312	0.884	1702544	WORD_OFF	n/a	n/a	CAPE	7	11	[0, 0, 0]	n/a	FR1	0	R1231M
1697.196	1.618	1703428	WORD	n/a	wordpools/wordpool_EN.txt	PLANE	8	11	[0, 0, 0]	n/a	FR1	0	R1231M
1698.814	0.766	1705046	WORD_OFF	n/a	n/a	PLANE	8	11	[0, 0, 0]	n/a	FR1	0	R1231M
1699.58	1.617	1705812	WORD	n/a	wordpools/wordpool_EN.txt	PALM	9	11	[0, 0, 0]	n/a	FR1	0	R1231M
1701.197	0.766	1707429	WORD_OFF	n/a	n/a	PALM	9	11	[0, 0, 0]	n/a	FR1	0	R1231M
1701.963	1.617	1708195	WORD	n/a	wordpools/wordpool_EN.txt	VASE	10	11	[0, 0, 0]	n/a	FR1	0	R1231M
1703.58	0.951	1709811	WORD_OFF	n/a	n/a	VASE	10	11	[0, 0, 0]	n/a	FR1	0	R1231M
1704.531	1.617	1710762	WORD	n/a	wordpools/wordpool_EN.txt	SLEEVE	11	11	[0, 0, 0]	n/a	FR1	0	R1231M
1706.148	0.883	1712379	WORD_OFF	n/a	n/a	SLEEVE	11	11	[0, 0, 0]	n/a	FR1	0	R1231M
1707.031	1.617	1713262	WORD	n/a	wordpools/wordpool_EN.txt	WAND	12	11	[0, 0, 0]	n/a	FR1	0	R1231M
1708.648	0.0	1714879	WORD_OFF	n/a	n/a	WAND	12	11	[0, 0, 0]	n/a	FR1	0	R1231M
1708.648	0.001	1714879	DISTRACT_START	n/a	n/a	n/a	-999	11	[0, 0, 0]	n/a	FR1	0	R1231M
1708.649	0.016	1714880	START	n/a	n/a	n/a	-999	12	[-999, -999, -999]	n/a	FR1	0	R1231M
1708.665	54.439	1714896	PROB	54.439	n/a	n/a	-999	12	[6, 7, 2]	15	FR1	0	R1231M
1763.104	0.021	1769332	STOP	n/a	n/a	n/a	-999	12	[-999, -999, -999]	n/a	FR1	0	R1231M
1763.125	0.701	1769353	DISTRACT_END	n/a	n/a	n/a	-999	11	[0, 0, 0]	n/a	FR1	0	R1231M
1763.826	0.517	1770054	RETRIEVAL_ORIENT	n/a	n/a	n/a	-999	11	[0, 0, 0]	n/a	FR1	0	R1231M
1764.343	4.609	1770571	REC_START	n/a	n/a	n/a	-999	11	[0, 0, 0]	n/a	FR1	0	R1231M
1768.952	1.699	1775180	REC_WORD	1.699	n/a	SQUARE	-999	11	[0, 0, 0]	n/a	FR1	0	R1231M
1770.651	0.998	1776879	REC_WORD	0.998	n/a	VAN	-999	11	[0, 0, 0]	n/a	FR1	0	R1231M
1771.649	4.038	1777877	REC_WORD	4.038	n/a	VASE	-999	11	[0, 0, 0]	n/a	FR1	0	R1231M
1775.687	18.666	1781914	REC_WORD_VV	18.666	n/a	<>	-999	11	[0, 0, 0]	n/a	FR1	0	R1231M
1794.353	6.746	1800579	REC_END	n/a	n/a	n/a	-999	11	[0, 0, 0]	n/a	FR1	0	R1231M
1801.099	0.5	1807325	TRIAL	n/a	n/a	n/a	-999	12	[0, 0, 0]	n/a	FR1	0	R1231M
1801.599	10.428	1807825	COUNTDOWN_START	n/a	n/a	n/a	-999	12	[0, 0, 0]	n/a	FR1	0	R1231M
1812.027	0.008	1818252	COUNTDOWN_END	n/a	n/a	n/a	-999	12	[0, 0, 0]	n/a	FR1	0	R1231M
1812.035	1.617	1818260	ORIENT	n/a	n/a	n/a	-999	12	[0, 0, 0]	n/a	FR1	0	R1231M
1813.652	2.267	1819877	ORIENT_OFF	n/a	n/a	n/a	-999	12	[0, 0, 0]	n/a	FR1	0	R1231M
1815.919	1.617	1822144	WORD	n/a	wordpools/wordpool_EN.txt	BROOM	1	12	[0, 0, 0]	n/a	FR1	0	R1231M
1817.536	0.767	1823761	WORD_OFF	n/a	n/a	BROOM	1	12	[0, 0, 0]	n/a	FR1	0	R1231M
1818.303	1.616	1824528	WORD	n/a	wordpools/wordpool_EN.txt	STAIR	2	12	[0, 0, 0]	n/a	FR1	0	R1231M
1819.919	0.817	1826144	WORD_OFF	n/a	n/a	STAIR	2	12	[0, 0, 0]	n/a	FR1	0	R1231M
1820.736	1.617	1826961	WORD	n/a	wordpools/wordpool_EN.txt	STICK	3	12	[0, 0, 0]	n/a	FR1	0	R1231M
1822.353	0.834	1828578	WORD_OFF	n/a	n/a	STICK	3	12	[0, 0, 0]	n/a	FR1	0	R1231M
1823.187	1.601	1829412	WORD	n/a	wordpools/wordpool_EN.txt	SEAT	4	12	[0, 0, 0]	n/a	FR1	0	R1231M
1824.788	0.899	1831012	WORD_OFF	n/a	n/a	SEAT	4	12	[0, 0, 0]	n/a	FR1	0	R1231M
1825.687	1.617	1831911	WORD	n/a	wordpools/wordpool_EN.txt	GATE	5	12	[0, 0, 0]	n/a	FR1	0	R1231M
1827.304	0.8	1833528	WORD_OFF	n/a	n/a	GATE	5	12	[0, 0, 0]	n/a	FR1	0	R1231M
1828.104	1.617	1834328	WORD	n/a	wordpools/wordpool_EN.txt	TIE	6	12	[0, 0, 0]	n/a	FR1	0	R1231M
1829.721	0.967	1835945	WORD_OFF	n/a	n/a	TIE	6	12	[0, 0, 0]	n/a	FR1	0	R1231M
1830.688	1.617	1836912	WORD	n/a	wordpools/wordpool_EN.txt	TRUCK	7	12	[0, 0, 0]	n/a	FR1	0	R1231M
1832.305	0.834	1838529	WORD_OFF	n/a	n/a	TRUCK	7	12	[0, 0, 0]	n/a	FR1	0	R1231M
1833.139	1.617	1839363	WORD	n/a	wordpools/wordpool_EN.txt	LIP	8	12	[0, 0, 0]	n/a	FR1	0	R1231M
1834.756	0.8	1840980	WORD_OFF	n/a	n/a	LIP	8	12	[0, 0, 0]	n/a	FR1	0	R1231M
1835.556	1.617	1841780	WORD	n/a	wordpools/wordpool_EN.txt	ROOM	9	12	[0, 0, 0]	n/a	FR1	0	R1231M
1837.173	0.85	1843397	WORD_OFF	n/a	n/a	ROOM	9	12	[0, 0, 0]	n/a	FR1	0	R1231M
1838.023	1.617	1844247	WORD	n/a	wordpools/wordpool_EN.txt	ELF	10	12	[0, 0, 0]	n/a	FR1	0	R1231M
1839.64	0.783	1845864	WORD_OFF	n/a	n/a	ELF	10	12	[0, 0, 0]	n/a	FR1	0	R1231M
1840.423	1.617	1846647	WORD	n/a	wordpools/wordpool_EN.txt	VEST	11	12	[0, 0, 0]	n/a	FR1	0	R1231M
1842.04	0.934	1848263	WORD_OFF	n/a	n/a	VEST	11	12	[0, 0, 0]	n/a	FR1	0	R1231M
1842.974	1.617	1849197	WORD	n/a	wordpools/wordpool_EN.txt	DESK	12	12	[0, 0, 0]	n/a	FR1	0	R1231M
1844.591	0.0	1850814	WORD_OFF	n/a	n/a	DESK	12	12	[0, 0, 0]	n/a	FR1	0	R1231M
1844.591	0.0	1850814	DISTRACT_START	n/a	n/a	n/a	-999	12	[0, 0, 0]	n/a	FR1	0	R1231M
1844.591	0.017	1850814	START	n/a	n/a	n/a	-999	13	[-999, -999, -999]	n/a	FR1	0	R1231M
1844.608	15.187	1850831	PROB	15.187	n/a	n/a	-999	13	[7, 2, 7]	16	FR1	0	R1231M
1859.795	10.197	1866017	PROB	10.197	n/a	n/a	-999	13	[1, 8, 8]	17	FR1	0	R1231M
1869.992	0.021	1876214	STOP	n/a	n/a	n/a	-999	13	[-999, -999, -999]	n/a	FR1	0	R1231M
1870.013	0.633	1876235	DISTRACT_END	n/a	n/a	n/a	-999	12	[0, 0, 0]	n/a	FR1	0	R1231M
1870.646	0.517	1876868	RETRIEVAL_ORIENT	n/a	n/a	n/a	-999	12	[0, 0, 0]	n/a	FR1	0	R1231M
1871.163	3.614	1877385	REC_START	n/a	n/a	n/a	-999	12	[0, 0, 0]	n/a	FR1	0	R1231M
1874.777	1.014	1880999	REC_WORD	1.014	n/a	BROOM	-999	12	[0, 0, 0]	n/a	FR1	0	R1231M
1875.791	2.741	1882013	REC_WORD	2.741	n/a	STAIR	-999	12	[0, 0, 0]	n/a	FR1	0	R1231M
1878.532	3.223	1884753	REC_WORD	3.223	n/a	VEST	-999	12	[0, 0, 0]	n/a	FR1	0	R1231M
1881.755	5.629	1887976	REC_WORD	5.629	n/a	STICK	-999	12	[0, 0, 0]	n/a	FR1	0	R1231M
1887.384	4.331	1893605	REC_WORD	4.331	n/a	TIE	-999	12	[0, 0, 0]	n/a	FR1	0	R1231M
1891.715	9.458	1897936	REC_WORD_VV	9.458	n/a	<>	-999	12	[0, 0, 0]	n/a	FR1	0	R1231M
1901.173	11.914	1907393	REC_END	n/a	n/a	n/a	-999	12	[0, 0, 0]	n/a	FR1	0	R1231M
1913.087	0.5	1919306	TRIAL	n/a	n/a	n/a	-999	13	[0, 0, 0]	n/a	FR1	0	R1231M
1913.587	10.428	1919806	COUNTDOWN_START	n/a	n/a	n/a	-999	13	[0, 0, 0]	n/a	FR1	0	R1231M
1924.015	0.008	1930234	COUNTDOWN_END	n/a	n/a	n/a	-999	13	[0, 0, 0]	n/a	FR1	0	R1231M
1924.023	1.617	1930242	ORIENT	n/a	n/a	n/a	-999	13	[0, 0, 0]	n/a	FR1	0	R1231M
1925.64	1.934	1931859	ORIENT_OFF	n/a	n/a	n/a	-999	13	[0, 0, 0]	n/a	FR1	0	R1231M
1927.574	1.617	1933793	WORD	n/a	wordpools/wordpool_EN.txt	SKUNK	1	13	[0, 0, 0]	n/a	FR1	0	R1231M
1929.191	0.783	1935409	WORD_OFF	n/a	n/a	SKUNK	1	13	[0, 0, 0]	n/a	FR1	0	R1231M
1929.974	1.617	1936192	WORD	n/a	wordpools/wordpool_EN.txt	GRASS	2	13	[0, 0, 0]	n/a	FR1	0	R1231M
1931.591	0.884	1937809	WORD_OFF	n/a	n/a	GRASS	2	13	[0, 0, 0]	n/a	FR1	0	R1231M
1932.475	1.617	1938693	WORD	n/a	wordpools/wordpool_EN.txt	ZOO	3	13	[0, 0, 0]	n/a	FR1	0	R1231M
1934.092	0.816	1940310	WORD_OFF	n/a	n/a	ZOO	3	13	[0, 0, 0]	n/a	FR1	0	R1231M
1934.908	1.618	1941126	WORD	n/a	wordpools/wordpool_EN.txt	MOUSE	4	13	[0, 0, 0]	n/a	FR1	0	R1231M
1936.526	0.783	1942744	WORD_OFF	n/a	n/a	MOUSE	4	13	[0, 0, 0]	n/a	FR1	0	R1231M
1937.309	1.617	1943527	WORD	n/a	wordpools/wordpool_EN.txt	CAT	5	13	[0, 0, 0]	n/a	FR1	0	R1231M
1938.926	0.783	1945144	WORD_OFF	n/a	n/a	CAT	5	13	[0, 0, 0]	n/a	FR1	0	R1231M
1939.709	1.617	1945927	WORD	n/a	wordpools/wordpool_EN.txt	SNAKE	6	13	[0, 0, 0]	n/a	FR1	0	R1231M
1941.326	1.001	1947544	WORD_OFF	n/a	n/a	SNAKE	6	13	[0, 0, 0]	n/a	FR1	0	R1231M
1942.327	1.617	1948545	WORD	n/a	wordpools/wordpool_EN.txt	HAWK	7	13	[0, 0, 0]	n/a	FR1	0	R1231M
1943.944	0.933	1950162	WORD_OFF	n/a	n/a	HAWK	7	13	[0, 0, 0]	n/a	FR1	0	R1231M
1944.877	1.617	1951095	WORD	n/a	wordpools/wordpool_EN.txt	NEST	8	13	[0, 0, 0]	n/a	FR1	0	R1231M
1946.494	0.9	1952711	WORD_OFF	n/a	n/a	NEST	8	13	[0, 0, 0]	n/a	FR1	0	R1231M
1947.394	1.617	1953611	WORD	n/a	wordpools/wordpool_EN.txt	CLOUD	9	13	[0, 0, 0]	n/a	FR1	0	R1231M
1949.011	0.967	1955228	WORD_OFF	n/a	n/a	CLOUD	9	13	[0, 0, 0]	n/a	FR1	0	R1231M
1949.978	1.617	1956195	WORD	n/a	wordpools/wordpool_EN.txt	BIRD	10	13	[0, 0, 0]	n/a	FR1	0	R1231M
1951.595	0.867	1957812	WORD_OFF	n/a	n/a	BIRD	10	13	[0, 0, 0]	n/a	FR1	0	R1231M
1952.462	1.617	1958679	WORD	n/a	wordpools/wordpool_EN.txt	HORSE	11	13	[0, 0, 0]	n/a	FR1	0	R1231M
1954.079	0.85	1960296	WORD_OFF	n/a	n/a	HORSE	11	13	[0, 0, 0]	n/a	FR1	0	R1231M
1954.929	1.617	1961146	WORD	n/a	wordpools/wordpool_EN.txt	RIB	12	13	[0, 0, 0]	n/a	FR1	0	R1231M
1956.546	0.0	1962763	WORD_OFF	n/a	n/a	RIB	12	13	[0, 0, 0]	n/a	FR1	0	R1231M
1956.546	0.001	1962763	DISTRACT_START	n/a	n/a	n/a	-999	13	[0, 0, 0]	n/a	FR1	0	R1231M
1956.547	0.016	1962764	START	n/a	n/a	n/a	-999	14	[-999, -999, -999]	n/a	FR1	0	R1231M
1956.563	14.136	1962780	PROB	14.136	n/a	n/a	-999	14	[4, 8, 4]	16	FR1	0	R1231M
1970.699	30.582	1976915	PROB	30.582	n/a	n/a	-999	14	[8, 2, 6]	16	FR1	0	R1231M
2001.281	0.007	2007495	STOP	n/a	n/a	n/a	-999	14	[-999, -999, -999]	n/a	FR1	0	R1231M
2001.288	0.551	2007502	DISTRACT_END	n/a	n/a	n/a	-999	13	[0, 0, 0]	n/a	FR1	0	R1231M
2001.839	0.517	2008053	RETRIEVAL_ORIENT	n/a	n/a	n/a	-999	13	[0, 0, 0]	n/a	FR1	0	R1231M
2002.356	2.167	2008570	REC_START	n/a	n/a	n/a	-999	13	[0, 0, 0]	n/a	FR1	0	R1231M
2004.523	3.832	2010737	REC_WORD	3.832	n/a	HAWK	-999	13	[0, 0, 0]	n/a	FR1	0	R1231M
2008.355	2.623	2014569	REC_WORD	2.623	n/a	NEST	-999	13	[0, 0, 0]	n/a	FR1	0	R1231M
2010.978	1.675	2017192	REC_WORD	1.675	n/a	CAT	-999	13	[0, 0, 0]	n/a	FR1	0	R1231M
2012.653	3.266	2018867	REC_WORD	3.266	n/a	MOUSE	-999	13	[0, 0, 0]	n/a	FR1	0	R1231M
2015.919	3.927	2022132	REC_WORD	3.927	n/a	BIRD	-999	13	[0, 0, 0]	n/a	FR1	0	R1231M
2019.846	12.519	2026059	REC_WORD	12.519	n/a	ZOO	-999	13	[0, 0, 0]	n/a	FR1	0	R1231M
2032.365	18.133	2038577	REC_END	n/a	n/a	n/a	-999	13	[0, 0, 0]	n/a	FR1	0	R1231M
2050.498	0.5	2056709	TRIAL	n/a	n/a	n/a	-999	14	[0, 0, 0]	n/a	FR1	0	R1231M
2050.998	10.428	2057209	COUNTDOWN_START	n/a	n/a	n/a	-999	14	[0, 0, 0]	n/a	FR1	0	R1231M
2061.426	0.007	2067637	COUNTDOWN_END	n/a	n/a	n/a	-999	14	[0, 0, 0]	n/a	FR1	0	R1231M
2061.433	1.617	2067644	ORIENT	n/a	n/a	n/a	-999	14	[0, 0, 0]	n/a	FR1	0	R1231M
2063.05	2.034	2069261	ORIENT_OFF	n/a	n/a	n/a	-999	14	[0, 0, 0]	n/a	FR1	0	R1231M
2065.084	1.617	2071295	WORD	n/a	wordpools/wordpool_EN.txt	POLE	1	14	[0, 0, 0]	n/a	FR1	0	R1231M
2066.701	0.783	2072912	WORD_OFF	n/a	n/a	POLE	1	14	[0, 0, 0]	n/a	FR1	0	R1231M
2067.484	1.617	2073694	WORD	n/a	wordpools/wordpool_EN.txt	MAP	2	14	[0, 0, 0]	n/a	FR1	0	R1231M
2069.101	0.9	2075311	WORD_OFF	n/a	n/a	MAP	2	14	[0, 0, 0]	n/a	FR1	0	R1231M
2070.001	1.617	2076211	WORD	n/a	wordpools/wordpool_EN.txt	MAIL	3	14	[0, 0, 0]	n/a	FR1	0	R1231M
2071.618	0.817	2077828	WORD_OFF	n/a	n/a	MAIL	3	14	[0, 0, 0]	n/a	FR1	0	R1231M
2072.435	1.617	2078645	WORD	n/a	wordpools/wordpool_EN.txt	CASH	4	14	[0, 0, 0]	n/a	FR1	0	R1231M
2074.052	0.95	2080262	WORD_OFF	n/a	n/a	CASH	4	14	[0, 0, 0]	n/a	FR1	0	R1231M
2075.002	1.617	2081212	WORD	n/a	wordpools/wordpool_EN.txt	STAR	5	14	[0, 0, 0]	n/a	FR1	0	R1231M
2076.619	0.851	2082829	WORD_OFF	n/a	n/a	STAR	5	14	[0, 0, 0]	n/a	FR1	0	R1231M
2077.47	1.616	2083680	WORD	n/a	wordpools/wordpool_EN.txt	HOOF	6	14	[0, 0, 0]	n/a	FR1	0	R1231M
2079.086	0.851	2085296	WORD_OFF	n/a	n/a	HOOF	6	14	[0, 0, 0]	n/a	FR1	0	R1231M
2079.937	1.617	2086147	WORD	n/a	wordpools/wordpool_EN.txt	FILM	7	14	[0, 0, 0]	n/a	FR1	0	R1231M
2081.554	0.983	2087764	WORD_OFF	n/a	n/a	FILM	7	14	[0, 0, 0]	n/a	FR1	0	R1231M
2082.537	1.617	2088747	WORD	n/a	wordpools/wordpool_EN.txt	MOON	8	14	[0, 0, 0]	n/a	FR1	0	R1231M
2084.154	0.917	2090363	WORD_OFF	n/a	n/a	MOON	8	14	[0, 0, 0]	n/a	FR1	0	R1231M
2085.071	1.617	2091280	WORD	n/a	wordpools/wordpool_EN.txt	BANK	9	14	[0, 0, 0]	n/a	FR1	0	R1231M
2086.688	0.95	2092897	WORD_OFF	n/a	n/a	BANK	9	14	[0, 0, 0]	n/a	FR1	0	R1231M
2087.638	1.617	2093847	WORD	n/a	wordpools/wordpool_EN.txt	BALL	10	14	[0, 0, 0]	n/a	FR1	0	R1231M
2089.255	0.867	2095464	WORD_OFF	n/a	n/a	BALL	10	14	[0, 0, 0]	n/a	FR1	0	R1231M
2090.122	1.617	2096331	WORD	n/a	wordpools/wordpool_EN.txt	CORD	11	14	[0, 0, 0]	n/a	FR1	0	R1231M
2091.739	0.917	2097948	WORD_OFF	n/a	n/a	CORD	11	14	[0, 0, 0]	n/a	FR1	0	R1231M
2092.656	1.617	2098865	WORD	n/a	wordpools/wordpool_EN.txt	ROOT	12	14	[0, 0, 0]	n/a	FR1	0	R1231M
2094.273	0.0	2100482	WORD_OFF	n/a	n/a	ROOT	12	14	[0, 0, 0]	n/a	FR1	0	R1231M
2094.273	0.0	2100482	DISTRACT_START	n/a	n/a	n/a	-999	14	[0, 0, 0]	n/a	FR1	0	R1231M
2094.273	0.016	2100482	START	n/a	n/a	n/a	-999	15	[-999, -999, -999]	n/a	FR1	0	R1231M
2094.289	10.869	2100498	PROB	10.869	n/a	n/a	-999	15	[7, 3, 8]	18	FR1	0	R1231M
2105.158	13.203	2111366	PROB	13.203	n/a	n/a	-999	15	[7, 5, 6]	18	FR1	0	R1231M
2118.361	0.016	2124569	STOP	n/a	n/a	n/a	-999	15	[-999, -999, -999]	n/a	FR1	0	R1231M
2118.377	0.584	2124585	DISTRACT_END	n/a	n/a	n/a	-999	14	[0, 0, 0]	n/a	FR1	0	R1231M
2118.961	0.517	2125168	RETRIEVAL_ORIENT	n/a	n/a	n/a	-999	14	[0, 0, 0]	n/a	FR1	0	R1231M
2119.478	3.929	2125685	REC_START	n/a	n/a	n/a	-999	14	[0, 0, 0]	n/a	FR1	0	R1231M
2123.407	1.498	2129614	REC_WORD	1.498	n/a	POLE	-999	14	[0, 0, 0]	n/a	FR1	0	R1231M
2124.905	2.119	2131112	REC_WORD	2.119	n/a	CASH	-999	14	[0, 0, 0]	n/a	FR1	0	R1231M
2127.024	3.135	2133231	REC_WORD	3.135	n/a	MOON	-999	14	[0, 0, 0]	n/a	FR1	0	R1231M
2130.159	13.356	2136366	REC_WORD	13.356	n/a	MAIL	-999	14	[0, 0, 0]	n/a	FR1	0	R1231M
2143.515	5.973	2149721	REC_WORD	5.973	n/a	STAR	-999	14	[0, 0, 0]	n/a	FR1	0	R1231M
2149.488	8.047	2155694	REC_END	n/a	n/a	n/a	-999	14	[0, 0, 0]	n/a	FR1	0	R1231M
2157.535	0.5	2163740	TRIAL	n/a	n/a	n/a	-999	15	[0, 0, 0]	n/a	FR1	0	R1231M
2158.035	10.428	2164240	COUNTDOWN_START	n/a	n/a	n/a	-999	15	[0, 0, 0]	n/a	FR1	0	R1231M
2168.463	0.007	2174668	COUNTDOWN_END	n/a	n/a	n/a	-999	15	[0, 0, 0]	n/a	FR1	0	R1231M
2168.47	1.617	2174675	ORIENT	n/a	n/a	n/a	-999	15	[0, 0, 0]	n/a	FR1	0	R1231M
2170.087	2.017	2176292	ORIENT_OFF	n/a	n/a	n/a	-999	15	[0, 0, 0]	n/a	FR1	0	R1231M
2172.104	1.617	2178308	WORD	n/a	wordpools/wordpool_EN.txt	WORLD	1	15	[0, 0, 0]	n/a	FR1	0	R1231M
2173.721	0.834	2179925	WORD_OFF	n/a	n/a	WORLD	1	15	[0, 0, 0]	n/a	FR1	0	R1231M
2174.555	1.617	2180759	WORD	n/a	wordpools/wordpool_EN.txt	CROWN	2	15	[0, 0, 0]	n/a	FR1	0	R1231M
2176.172	0.967	2182376	WORD_OFF	n/a	n/a	CROWN	2	15	[0, 0, 0]	n/a	FR1	0	R1231M
2177.139	1.617	2183343	WORD	n/a	wordpools/wordpool_EN.txt	SHIP	3	15	[0, 0, 0]	n/a	FR1	0	R1231M
2178.756	0.933	2184960	WORD_OFF	n/a	n/a	SHIP	3	15	[0, 0, 0]	n/a	FR1	0	R1231M
2179.689	1.617	2185893	WORD	n/a	wordpools/wordpool_EN.txt	TRASH	4	15	[0, 0, 0]	n/a	FR1	0	R1231M
2181.306	0.767	2187510	WORD_OFF	n/a	n/a	TRASH	4	15	[0, 0, 0]	n/a	FR1	0	R1231M
2182.073	1.617	2188277	WORD	n/a	wordpools/wordpool_EN.txt	TOOTH	5	15	[0, 0, 0]	n/a	FR1	0	R1231M
2183.69	0.884	2189894	WORD_OFF	n/a	n/a	TOOTH	5	15	[0, 0, 0]	n/a	FR1	0	R1231M
2184.574	1.617	2190778	WORD	n/a	wordpools/wordpool_EN.txt	COW	6	15	[0, 0, 0]	n/a	FR1	0	R1231M
2186.191	0.816	2192395	WORD_OFF	n/a	n/a	COW	6	15	[0, 0, 0]	n/a	FR1	0	R1231M
2187.007	1.617	2193211	WORD	n/a	wordpools/wordpool_EN.txt	GOLD	7	15	[0, 0, 0]	n/a	FR1	0	R1231M
2188.624	0.984	2194827	WORD_OFF	n/a	n/a	GOLD	7	15	[0, 0, 0]	n/a	FR1	0	R1231M
2189.608	1.617	2195811	WORD	n/a	wordpools/wordpool_EN.txt	SHEEP	8	15	[0, 0, 0]	n/a	FR1	0	R1231M
2191.225	0.883	2197428	WORD_OFF	n/a	n/a	SHEEP	8	15	[0, 0, 0]	n/a	FR1	0	R1231M
2192.108	1.617	2198311	WORD	n/a	wordpools/wordpool_EN.txt	NAIL	9	15	[0, 0, 0]	n/a	FR1	0	R1231M
2193.725	0.834	2199928	WORD_OFF	n/a	n/a	NAIL	9	15	[0, 0, 0]	n/a	FR1	0	R1231M
2194.559	1.617	2200762	WORD	n/a	wordpools/wordpool_EN.txt	WALL	10	15	[0, 0, 0]	n/a	FR1	0	R1231M
2196.176	0.983	2202379	WORD_OFF	n/a	n/a	WALL	10	15	[0, 0, 0]	n/a	FR1	0	R1231M
2197.159	1.617	2203362	WORD	n/a	wordpools/wordpool_EN.txt	FORT	11	15	[0, 0, 0]	n/a	FR1	0	R1231M
2198.776	0.917	2204979	WORD_OFF	n/a	n/a	FORT	11	15	[0, 0, 0]	n/a	FR1	0	R1231M
2199.693	1.617	2205896	WORD	n/a	wordpools/wordpool_EN.txt	PRINCE	12	15	[0, 0, 0]	n/a	FR1	0	R1231M
2201.31	0.0	2207513	WORD_OFF	n/a	n/a	PRINCE	12	15	[0, 0, 0]	n/a	FR1	0	R1231M
2201.31	0.001	2207513	DISTRACT_START	n/a	n/a	n/a	-999	15	[0, 0, 0]	n/a	FR1	0	R1231M
2201.311	0.016	2207514	START	n/a	n/a	n/a	-999	16	[-999, -999, -999]	n/a	FR1	0	R1231M
2201.327	47.906	2207530	PROB	47.906	n/a	n/a	-999	16	[5, 6, 6]	17	FR1	0	R1231M
2249.233	0.02	2255433	STOP	n/a	n/a	n/a	-999	16	[-999, -999, -999]	n/a	FR1	0	R1231M
2249.253	0.567	2255453	DISTRACT_END	n/a	n/a	n/a	-999	15	[0, 0, 0]	n/a	FR1	0	R1231M
2249.82	0.517	2256020	RETRIEVAL_ORIENT	n/a	n/a	n/a	-999	15	[0, 0, 0]	n/a	FR1	0	R1231M
2250.337	6.635	2256537	REC_START	n/a	n/a	n/a	-999	15	[0, 0, 0]	n/a	FR1	0	R1231M
2256.972	6.214	2263172	REC_WORD	6.214	n/a	CROWN	-999	15	[0, 0, 0]	n/a	FR1	0	R1231M
2263.186	0.713	2269385	REC_WORD_VV	0.713	n/a	<>	-999	15	[0, 0, 0]	n/a	FR1	0	R1231M
2263.899	16.448	2270098	REC_WORD	16.448	n/a	PRINCE	-999	15	[0, 0, 0]	n/a	FR1	0	R1231M
2280.347	5.263	2286545	REC_END	n/a	n/a	n/a	-999	15	[0, 0, 0]	n/a	FR1	0	R1231M
2285.61	0.5	2291808	TRIAL	n/a	n/a	n/a	-999	16	[0, 0, 0]	n/a	FR1	0	R1231M
2286.11	10.428	2292308	COUNTDOWN_START	n/a	n/a	n/a	-999	16	[0, 0, 0]	n/a	FR1	0	R1231M
2296.538	0.007	2302735	COUNTDOWN_END	n/a	n/a	n/a	-999	16	[0, 0, 0]	n/a	FR1	0	R1231M
2296.545	1.617	2302742	ORIENT	n/a	n/a	n/a	-999	16	[0, 0, 0]	n/a	FR1	0	R1231M
2298.162	1.984	2304359	ORIENT_OFF	n/a	n/a	n/a	-999	16	[0, 0, 0]	n/a	FR1	0	R1231M
2300.146	1.617	2306343	WORD	n/a	wordpools/wordpool_EN.txt	TRAIN	1	16	[0, 0, 0]	n/a	FR1	0	R1231M
2301.763	0.967	2307960	WORD_OFF	n/a	n/a	TRAIN	1	16	[0, 0, 0]	n/a	FR1	0	R1231M
2302.73	1.617	2308927	WORD	n/a	wordpools/wordpool_EN.txt	LAKE	2	16	[0, 0, 0]	n/a	FR1	0	R1231M
2304.347	1.0	2310544	WORD_OFF	n/a	n/a	LAKE	2	16	[0, 0, 0]	n/a	FR1	0	R1231M
2305.347	1.617	2311544	WORD	n/a	wordpools/wordpool_EN.txt	FOG	3	16	[0, 0, 0]	n/a	FR1	0	R1231M
2306.964	0.95	2313161	WORD_OFF	n/a	n/a	FOG	3	16	[0, 0, 0]	n/a	FR1	0	R1231M
2307.914	1.617	2314111	WORD	n/a	wordpools/wordpool_EN.txt	SMOKE	4	16	[0, 0, 0]	n/a	FR1	0	R1231M
2309.531	1.0	2315727	WORD_OFF	n/a	n/a	SMOKE	4	16	[0, 0, 0]	n/a	FR1	0	R1231M
2310.531	1.617	2316727	WORD	n/a	wordpools/wordpool_EN.txt	SNOW	5	16	[0, 0, 0]	n/a	FR1	0	R1231M
2312.148	0.884	2318344	WORD_OFF	n/a	n/a	SNOW	5	16	[0, 0, 0]	n/a	FR1	0	R1231M
2313.032	1.617	2319228	WORD	n/a	wordpools/wordpool_EN.txt	JET	6	16	[0, 0, 0]	n/a	FR1	0	R1231M
2314.649	0.867	2320845	WORD_OFF	n/a	n/a	JET	6	16	[0, 0, 0]	n/a	FR1	0	R1231M
2315.516	1.617	2321712	WORD	n/a	wordpools/wordpool_EN.txt	RAIN	7	16	[0, 0, 0]	n/a	FR1	0	R1231M
2317.133	0.85	2323329	WORD_OFF	n/a	n/a	RAIN	7	16	[0, 0, 0]	n/a	FR1	0	R1231M
2317.983	1.617	2324179	WORD	n/a	wordpools/wordpool_EN.txt	DOG	8	16	[0, 0, 0]	n/a	FR1	0	R1231M
2319.6	0.767	2325796	WORD_OFF	n/a	n/a	DOG	8	16	[0, 0, 0]	n/a	FR1	0	R1231M
2320.367	1.616	2326563	WORD	n/a	wordpools/wordpool_EN.txt	MOOSE	9	16	[0, 0, 0]	n/a	FR1	0	R1231M
2321.983	0.818	2328179	WORD_OFF	n/a	n/a	MOOSE	9	16	[0, 0, 0]	n/a	FR1	0	R1231M
2322.801	1.616	2328997	WORD	n/a	wordpools/wordpool_EN.txt	BOAT	10	16	[0, 0, 0]	n/a	FR1	0	R1231M
2324.417	0.967	2330613	WORD_OFF	n/a	n/a	BOAT	10	16	[0, 0, 0]	n/a	FR1	0	R1231M
2325.384	1.617	2331580	WORD	n/a	wordpools/wordpool_EN.txt	HEN	11	16	[0, 0, 0]	n/a	FR1	0	R1231M
2327.001	0.784	2333196	WORD_OFF	n/a	n/a	HEN	11	16	[0, 0, 0]	n/a	FR1	0	R1231M
2327.785	1.617	2333980	WORD	n/a	wordpools/wordpool_EN.txt	HILL	12	16	[0, 0, 0]	n/a	FR1	0	R1231M
2329.402	0.0	2335597	WORD_OFF	n/a	n/a	HILL	12	16	[0, 0, 0]	n/a	FR1	0	R1231M
2329.402	0.0	2335597	DISTRACT_START	n/a	n/a	n/a	-999	16	[0, 0, 0]	n/a	FR1	0	R1231M
2329.402	0.016	2335597	START	n/a	n/a	n/a	-999	17	[-999, -999, -999]	n/a	FR1	0	R1231M
2329.418	51.87	2335613	PROB	51.87	n/a	n/a	-999	17	[9, 6, 6]	26	FR1	0	R1231M
2381.288	0.007	2387480	STOP	n/a	n/a	n/a	-999	17	[-999, -999, -999]	n/a	FR1	0	R1231M
2381.295	0.6	2387487	DISTRACT_END	n/a	n/a	n/a	-999	16	[0, 0, 0]	n/a	FR1	0	R1231M
2381.895	0.518	2388087	RETRIEVAL_ORIENT	n/a	n/a	n/a	-999	16	[0, 0, 0]	n/a	FR1	0	R1231M
2382.413	4.027	2388605	REC_START	n/a	n/a	n/a	-999	16	[0, 0, 0]	n/a	FR1	0	R1231M
2386.44	1.122	2392632	REC_WORD	1.122	n/a	JET	-999	16	[0, 0, 0]	n/a	FR1	0	R1231M
2387.562	0.835	2393754	REC_WORD	0.835	n/a	MOOSE	-999	16	[0, 0, 0]	n/a	FR1	0	R1231M
2388.397	2.099	2394589	REC_WORD	2.099	n/a	RAIN	-999	16	[0, 0, 0]	n/a	FR1	0	R1231M
2390.496	1.39	2396688	REC_WORD	1.39	n/a	SNOW	-999	16	[0, 0, 0]	n/a	FR1	0	R1231M
2391.886	20.537	2398078	REC_WORD	20.537	n/a	LAKE	-999	16	[0, 0, 0]	n/a	FR1	0	R1231M
2412.423	10.43	2418614	REC_END	n/a	n/a	n/a	-999	16	[0, 0, 0]	n/a	FR1	0	R1231M
2422.853	0.5	2429043	TRIAL	n/a	n/a	n/a	-999	17	[0, 0, 0]	n/a	FR1	0	R1231M
2423.353	10.428	2429543	COUNTDOWN_START	n/a	n/a	n/a	-999	17	[0, 0, 0]	n/a	FR1	0	R1231M
2433.781	0.009	2439970	COUNTDOWN_END	n/a	n/a	n/a	-999	17	[0, 0, 0]	n/a	FR1	0	R1231M
2433.79	1.615	2439979	ORIENT	n/a	n/a	n/a	-999	17	[0, 0, 0]	n/a	FR1	0	R1231M
2435.405	2.034	2441594	ORIENT_OFF	n/a	n/a	n/a	-999	17	[0, 0, 0]	n/a	FR1	0	R1231M
2437.439	1.617	2443628	WORD	n/a	wordpools/wordpool_EN.txt	BOOT	1	17	[0, 0, 0]	n/a	FR1	0	R1231M
2439.056	0.917	2445245	WORD_OFF	n/a	n/a	BOOT	1	17	[0, 0, 0]	n/a	FR1	0	R1231M
2439.973	1.617	2446162	WORD	n/a	wordpools/wordpool_EN.txt	TEETH	2	17	[0, 0, 0]	n/a	FR1	0	R1231M
2441.59	1.0	2447779	WORD_OFF	n/a	n/a	TEETH	2	17	[0, 0, 0]	n/a	FR1	0	R1231M
2442.59	1.617	2448779	WORD	n/a	wordpools/wordpool_EN.txt	TOY	3	17	[0, 0, 0]	n/a	FR1	0	R1231M
2444.207	0.95	2450396	WORD_OFF	n/a	n/a	TOY	3	17	[0, 0, 0]	n/a	FR1	0	R1231M
2445.157	1.617	2451346	WORD	n/a	wordpools/wordpool_EN.txt	LOCK	4	17	[0, 0, 0]	n/a	FR1	0	R1231M
2446.774	0.784	2452963	WORD_OFF	n/a	n/a	LOCK	4	17	[0, 0, 0]	n/a	FR1	0	R1231M
2447.558	1.617	2453747	WORD	n/a	wordpools/wordpool_EN.txt	FOOT	5	17	[0, 0, 0]	n/a	FR1	0	R1231M
2449.175	0.8	2455363	WORD_OFF	n/a	n/a	FOOT	5	17	[0, 0, 0]	n/a	FR1	0	R1231M
2449.975	1.617	2456163	WORD	n/a	wordpools/wordpool_EN.txt	STRAW	6	17	[0, 0, 0]	n/a	FR1	0	R1231M
2451.592	0.783	2457780	WORD_OFF	n/a	n/a	STRAW	6	17	[0, 0, 0]	n/a	FR1	0	R1231M
2452.375	1.617	2458563	WORD	n/a	wordpools/wordpool_EN.txt	BENCH	7	17	[0, 0, 0]	n/a	FR1	0	R1231M
2453.992	0.784	2460180	WORD_OFF	n/a	n/a	BENCH	7	17	[0, 0, 0]	n/a	FR1	0	R1231M
2454.776	1.617	2460964	WORD	n/a	wordpools/wordpool_EN.txt	AXE	8	17	[0, 0, 0]	n/a	FR1	0	R1231M
2456.393	0.833	2462581	WORD_OFF	n/a	n/a	AXE	8	17	[0, 0, 0]	n/a	FR1	0	R1231M
2457.226	1.618	2463414	WORD	n/a	wordpools/wordpool_EN.txt	STOOL	9	17	[0, 0, 0]	n/a	FR1	0	R1231M
2458.844	0.783	2465032	WORD_OFF	n/a	n/a	STOOL	9	17	[0, 0, 0]	n/a	FR1	0	R1231M
2459.627	1.617	2465815	WORD	n/a	wordpools/wordpool_EN.txt	SHOE	10	17	[0, 0, 0]	n/a	FR1	0	R1231M
2461.244	0.817	2467432	WORD_OFF	n/a	n/a	SHOE	10	17	[0, 0, 0]	n/a	FR1	0	R1231M
2462.061	1.617	2468249	WORD	n/a	wordpools/wordpool_EN.txt	YARD	11	17	[0, 0, 0]	n/a	FR1	0	R1231M
2463.678	0.917	2469866	WORD_OFF	n/a	n/a	YARD	11	17	[0, 0, 0]	n/a	FR1	0	R1231M
2464.595	1.616	2470783	WORD	n/a	wordpools/wordpool_EN.txt	BED	12	17	[0, 0, 0]	n/a	FR1	0	R1231M
2466.211	0.0	2472398	WORD_OFF	n/a	n/a	BED	12	17	[0, 0, 0]	n/a	FR1	0	R1231M
2466.211	0.001	2472398	DISTRACT_START	n/a	n/a	n/a	-999	17	[0, 0, 0]	n/a	FR1	0	R1231M
2466.212	0.016	2472399	START	n/a	n/a	n/a	-999	18	[-999, -999, -999]	n/a	FR1	0	R1231M
2466.228	19.404	2472415	PROB	19.404	n/a	n/a	-999	18	[7, 9, 7]	13	FR1	0	R1231M
2485.632	12.089	2491818	PROB	12.089	n/a	n/a	-999	18	[5, 1, 2]	8	FR1	0	R1231M
2497.721	0.013	2503907	STOP	n/a	n/a	n/a	-999	18	[-999, -999, -999]	n/a	FR1	0	R1231M
2497.734	0.55	2503920	DISTRACT_END	n/a	n/a	n/a	-999	17	[0, 0, 0]	n/a	FR1	0	R1231M
2498.284	0.519	2504470	RETRIEVAL_ORIENT	n/a	n/a	n/a	-999	17	[0, 0, 0]	n/a	FR1	0	R1231M
2498.803	4.376	2504989	REC_START	n/a	n/a	n/a	-999	17	[0, 0, 0]	n/a	FR1	0	R1231M
2503.179	5.412	2509364	REC_WORD	5.412	n/a	BOOT	-999	17	[0, 0, 0]	n/a	FR1	0	R1231M
2508.591	6.355	2514776	REC_WORD	6.355	n/a	TEETH	-999	17	[0, 0, 0]	n/a	FR1	0	R1231M
2514.946	2.471	2521131	REC_WORD	2.471	n/a	AXE	-999	17	[0, 0, 0]	n/a	FR1	0	R1231M
2517.417	11.398	2523601	REC_WORD	11.398	n/a	STRAW	-999	17	[0, 0, 0]	n/a	FR1	0	R1231M
2528.815	6.226	2534999	REC_END	n/a	n/a	n/a	-999	17	[0, 0, 0]	n/a	FR1	0	R1231M
2535.041	0.5	2541224	TRIAL	n/a	n/a	n/a	-999	18	[0, 0, 0]	n/a	FR1	0	R1231M
2535.541	10.428	2541724	COUNTDOWN_START	n/a	n/a	n/a	-999	18	[0, 0, 0]	n/a	FR1	0	R1231M
2545.969	0.008	2552152	COUNTDOWN_END	n/a	n/a	n/a	-999	18	[0, 0, 0]	n/a	FR1	0	R1231M
2545.977	1.617	2552160	ORIENT	n/a	n/a	n/a	-999	18	[0, 0, 0]	n/a	FR1	0	R1231M
2547.594	2.117	2553777	ORIENT_OFF	n/a	n/a	n/a	-999	18	[0, 0, 0]	n/a	FR1	0	R1231M
2549.711	1.617	2555894	WORD	n/a	wordpools/wordpool_EN.txt	STRING	1	18	[0, 0, 0]	n/a	FR1	0	R1231M
2551.328	0.9	2557511	WORD_OFF	n/a	n/a	STRING	1	18	[0, 0, 0]	n/a	FR1	0	R1231M
2552.228	1.601	2558410	WORD	n/a	wordpools/wordpool_EN.txt	DITCH	2	18	[0, 0, 0]	n/a	FR1	0	R1231M
2553.829	0.85	2560011	WORD_OFF	n/a	n/a	DITCH	2	18	[0, 0, 0]	n/a	FR1	0	R1231M
2554.679	1.617	2560861	WORD	n/a	wordpools/wordpool_EN.txt	THREAD	3	18	[0, 0, 0]	n/a	FR1	0	R1231M
2556.296	0.916	2562478	WORD_OFF	n/a	n/a	THREAD	3	18	[0, 0, 0]	n/a	FR1	0	R1231M
2557.212	1.618	2563394	WORD	n/a	wordpools/wordpool_EN.txt	TOOL	4	18	[0, 0, 0]	n/a	FR1	0	R1231M
2558.83	0.85	2565012	WORD_OFF	n/a	n/a	TOOL	4	18	[0, 0, 0]	n/a	FR1	0	R1231M
2559.68	1.617	2565862	WORD	n/a	wordpools/wordpool_EN.txt	BAT	5	18	[0, 0, 0]	n/a	FR1	0	R1231M
2561.297	0.983	2567479	WORD_OFF	n/a	n/a	BAT	5	18	[0, 0, 0]	n/a	FR1	0	R1231M
2562.28	1.617	2568462	WORD	n/a	wordpools/wordpool_EN.txt	BRUSH	6	18	[0, 0, 0]	n/a	FR1	0	R1231M
2563.897	0.935	2570079	WORD_OFF	n/a	n/a	BRUSH	6	18	[0, 0, 0]	n/a	FR1	0	R1231M
2564.832	1.616	2571014	WORD	n/a	wordpools/wordpool_EN.txt	SLIME	7	18	[0, 0, 0]	n/a	FR1	0	R1231M
2566.448	0.9	2572630	WORD_OFF	n/a	n/a	SLIME	7	18	[0, 0, 0]	n/a	FR1	0	R1231M
2567.348	1.617	2573530	WORD	n/a	wordpools/wordpool_EN.txt	LEG	8	18	[0, 0, 0]	n/a	FR1	0	R1231M
2568.965	0.933	2575147	WORD_OFF	n/a	n/a	LEG	8	18	[0, 0, 0]	n/a	FR1	0	R1231M
2569.898	1.617	2576079	WORD	n/a	wordpools/wordpool_EN.txt	CLIFF	9	18	[0, 0, 0]	n/a	FR1	0	R1231M
2571.515	0.934	2577696	WORD_OFF	n/a	n/a	CLIFF	9	18	[0, 0, 0]	n/a	FR1	0	R1231M
2572.449	1.617	2578630	WORD	n/a	wordpools/wordpool_EN.txt	GUARD	10	18	[0, 0, 0]	n/a	FR1	0	R1231M
2574.066	0.85	2580247	WORD_OFF	n/a	n/a	GUARD	10	18	[0, 0, 0]	n/a	FR1	0	R1231M
2574.916	1.617	2581097	WORD	n/a	wordpools/wordpool_EN.txt	GLOVE	11	18	[0, 0, 0]	n/a	FR1	0	R1231M
2576.533	0.867	2582714	WORD_OFF	n/a	n/a	GLOVE	11	18	[0, 0, 0]	n/a	FR1	0	R1231M
2577.4	1.617	2583581	WORD	n/a	wordpools/wordpool_EN.txt	WORM	12	18	[0, 0, 0]	n/a	FR1	0	R1231M
2579.017	0.0	2585198	WORD_OFF	n/a	n/a	WORM	12	18	[0, 0, 0]	n/a	FR1	0	R1231M
2579.017	0.0	2585198	DISTRACT_START	n/a	n/a	n/a	-999	18	[0, 0, 0]	n/a	FR1	0	R1231M
2579.017	0.016	2585198	START	n/a	n/a	n/a	-999	19	[-999, -999, -999]	n/a	FR1	0	R1231M
2579.033	16.837	2585214	PROB	16.837	n/a	n/a	-999	19	[5, 7, 6]	18	FR1	0	R1231M
2595.87	5.875	2602050	PROB	5.875	n/a	n/a	-999	19	[3, 6, 1]	10	FR1	0	R1231M
2601.745	0.009	2607925	STOP	n/a	n/a	n/a	-999	19	[-999, -999, -999]	n/a	FR1	0	R1231M
2601.754	0.667	2607934	DISTRACT_END	n/a	n/a	n/a	-999	18	[0, 0, 0]	n/a	FR1	0	R1231M
2602.421	0.518	2608601	RETRIEVAL_ORIENT	n/a	n/a	n/a	-999	18	[0, 0, 0]	n/a	FR1	0	R1231M
2602.939	2.776	2609119	REC_START	n/a	n/a	n/a	-999	18	[0, 0, 0]	n/a	FR1	0	R1231M
2605.715	1.605	2611894	REC_WORD	1.605	n/a	SLIME	-999	18	[0, 0, 0]	n/a	FR1	0	R1231M
2607.32	2.955	2613499	REC_WORD	2.955	n/a	LEG	-999	18	[0, 0, 0]	n/a	FR1	0	R1231M
2610.275	1.882	2616454	REC_WORD	1.882	n/a	DITCH	-999	18	[0, 0, 0]	n/a	FR1	0	R1231M
2612.157	7.517	2618336	REC_WORD	7.517	n/a	BAT	-999	18	[0, 0, 0]	n/a	FR1	0	R1231M
2619.674	9.958	2625853	REC_WORD	9.958	n/a	STRING	-999	18	[0, 0, 0]	n/a	FR1	0	R1231M
2629.632	0.63	2635810	REC_WORD_VV	0.63	n/a	<>	-999	18	[0, 0, 0]	n/a	FR1	0	R1231M
2630.262	2.686	2636440	REC_WORD	2.686	n/a	SLING	-999	18	[0, 0, 0]	n/a	FR1	0	R1231M
2632.948	36.119	2639126	REC_END	n/a	n/a	n/a	-999	18	[0, 0, 0]	n/a	FR1	0	R1231M
2669.067	0.5	2675243	TRIAL	n/a	n/a	n/a	-999	19	[0, 0, 0]	n/a	FR1	0	R1231M
2669.567	10.428	2675743	COUNTDOWN_START	n/a	n/a	n/a	-999	19	[0, 0, 0]	n/a	FR1	0	R1231M
2679.995	0.008	2686170	COUNTDOWN_END	n/a	n/a	n/a	-999	19	[0, 0, 0]	n/a	FR1	0	R1231M
2680.003	1.617	2686178	ORIENT	n/a	n/a	n/a	-999	19	[0, 0, 0]	n/a	FR1	0	R1231M
2681.62	1.867	2687795	ORIENT_OFF	n/a	n/a	n/a	-999	19	[0, 0, 0]	n/a	FR1	0	R1231M
2683.487	1.617	2689662	WORD	n/a	wordpools/wordpool_EN.txt	HOLE	1	19	[0, 0, 0]	n/a	FR1	0	R1231M
2685.104	1.017	2691279	WORD_OFF	n/a	n/a	HOLE	1	19	[0, 0, 0]	n/a	FR1	0	R1231M
2686.121	1.617	2692296	WORD	n/a	wordpools/wordpool_EN.txt	BRANCH	2	19	[0, 0, 0]	n/a	FR1	0	R1231M
2687.738	0.767	2693913	WORD_OFF	n/a	n/a	BRANCH	2	19	[0, 0, 0]	n/a	FR1	0	R1231M
2688.505	1.616	2694680	WORD	n/a	wordpools/wordpool_EN.txt	PIN	3	19	[0, 0, 0]	n/a	FR1	0	R1231M
2690.121	0.801	2696296	WORD_OFF	n/a	n/a	PIN	3	19	[0, 0, 0]	n/a	FR1	0	R1231M
2690.922	1.617	2697096	WORD	n/a	wordpools/wordpool_EN.txt	BUSH	4	19	[0, 0, 0]	n/a	FR1	0	R1231M
2692.539	1.017	2698713	WORD_OFF	n/a	n/a	BUSH	4	19	[0, 0, 0]	n/a	FR1	0	R1231M
2693.556	1.617	2699730	WORD	n/a	wordpools/wordpool_EN.txt	KITE	5	19	[0, 0, 0]	n/a	FR1	0	R1231M
2695.173	0.816	2701347	WORD_OFF	n/a	n/a	KITE	5	19	[0, 0, 0]	n/a	FR1	0	R1231M
2695.989	1.617	2702163	WORD	n/a	wordpools/wordpool_EN.txt	BARN	6	19	[0, 0, 0]	n/a	FR1	0	R1231M
2697.606	0.934	2703780	WORD_OFF	n/a	n/a	BARN	6	19	[0, 0, 0]	n/a	FR1	0	R1231M
2698.54	1.617	2704714	WORD	n/a	wordpools/wordpool_EN.txt	TREE	7	19	[0, 0, 0]	n/a	FR1	0	R1231M
2700.157	0.95	2706331	WORD_OFF	n/a	n/a	TREE	7	19	[0, 0, 0]	n/a	FR1	0	R1231M
2701.107	1.617	2707281	WORD	n/a	wordpools/wordpool_EN.txt	HOOK	8	19	[0, 0, 0]	n/a	FR1	0	R1231M
2702.724	0.8	2708898	WORD_OFF	n/a	n/a	HOOK	8	19	[0, 0, 0]	n/a	FR1	0	R1231M
2703.524	1.617	2709698	WORD	n/a	wordpools/wordpool_EN.txt	ROOF	9	19	[0, 0, 0]	n/a	FR1	0	R1231M
2705.141	0.834	2711315	WORD_OFF	n/a	n/a	ROOF	9	19	[0, 0, 0]	n/a	FR1	0	R1231M
2705.975	1.617	2712149	WORD	n/a	wordpools/wordpool_EN.txt	SEAL	10	19	[0, 0, 0]	n/a	FR1	0	R1231M
2707.592	0.883	2713766	WORD_OFF	n/a	n/a	SEAL	10	19	[0, 0, 0]	n/a	FR1	0	R1231M
2708.475	1.617	2714648	WORD	n/a	wordpools/wordpool_EN.txt	VINE	11	19	[0, 0, 0]	n/a	FR1	0	R1231M
2710.092	0.967	2716265	WORD_OFF	n/a	n/a	VINE	11	19	[0, 0, 0]	n/a	FR1	0	R1231M
2711.059	1.617	2717232	WORD	n/a	wordpools/wordpool_EN.txt	GOAT	12	19	[0, 0, 0]	n/a	FR1	0	R1231M
2712.676	0.0	2718849	WORD_OFF	n/a	n/a	GOAT	12	19	[0, 0, 0]	n/a	FR1	0	R1231M
2712.676	0.001	2718849	DISTRACT_START	n/a	n/a	n/a	-999	19	[0, 0, 0]	n/a	FR1	0	R1231M
2712.677	0.016	2718850	START	n/a	n/a	n/a	-999	20	[-999, -999, -999]	n/a	FR1	0	R1231M
2712.693	81.627	2718866	PROB	81.627	n/a	n/a	-999	20	[7, 8, 5]	20	FR1	0	R1231M
2794.32	0.005	2800489	STOP	n/a	n/a	n/a	-999	20	[-999, -999, -999]	n/a	FR1	0	R1231M
2794.325	0.617	2800494	DISTRACT_END	n/a	n/a	n/a	-999	19	[0, 0, 0]	n/a	FR1	0	R1231M
2794.942	0.517	2801110	RETRIEVAL_ORIENT	n/a	n/a	n/a	-999	19	[0, 0, 0]	n/a	FR1	0	R1231M
2795.459	2.222	2801627	REC_START	n/a	n/a	n/a	-999	19	[0, 0, 0]	n/a	FR1	0	R1231M
2797.681	5.493	2803849	REC_WORD	5.493	n/a	VINE	-999	19	[0, 0, 0]	n/a	FR1	0	R1231M
2803.174	22.295	2809342	REC_WORD	22.295	n/a	ROOF	-999	19	[0, 0, 0]	n/a	FR1	0	R1231M
2825.469	12.381	2831636	REC_END	n/a	n/a	n/a	-999	19	[0, 0, 0]	n/a	FR1	0	R1231M
2837.85	0.5	2844016	TRIAL	n/a	n/a	n/a	-999	20	[0, 0, 0]	n/a	FR1	0	R1231M
2838.35	10.428	2844516	COUNTDOWN_START	n/a	n/a	n/a	-999	20	[0, 0, 0]	n/a	FR1	0	R1231M
2848.778	0.009	2854943	COUNTDOWN_END	n/a	n/a	n/a	-999	20	[0, 0, 0]	n/a	FR1	0	R1231M
2848.787	1.616	2854952	ORIENT	n/a	n/a	n/a	-999	20	[0, 0, 0]	n/a	FR1	0	R1231M
2850.403	2.083	2856568	ORIENT_OFF	n/a	n/a	n/a	-999	20	[0, 0, 0]	n/a	FR1	0	R1231M
2852.486	1.617	2858651	WORD	n/a	wordpools/wordpool_EN.txt	CART	1	20	[0, 0, 0]	n/a	FR1	0	R1231M
2854.103	0.901	2860268	WORD_OFF	n/a	n/a	CART	1	20	[0, 0, 0]	n/a	FR1	0	R1231M
2855.004	1.616	2861169	WORD	n/a	wordpools/wordpool_EN.txt	BOARD	2	20	[0, 0, 0]	n/a	FR1	0	R1231M
2856.62	0.95	2862785	WORD_OFF	n/a	n/a	BOARD	2	20	[0, 0, 0]	n/a	FR1	0	R1231M
2857.57	1.618	2863735	WORD	n/a	wordpools/wordpool_EN.txt	BLUSH	3	20	[0, 0, 0]	n/a	FR1	0	R1231M
2859.188	0.917	2865353	WORD_OFF	n/a	n/a	BLUSH	3	20	[0, 0, 0]	n/a	FR1	0	R1231M
2860.105	1.616	2866270	WORD	n/a	wordpools/wordpool_EN.txt	CALF	4	20	[0, 0, 0]	n/a	FR1	0	R1231M
2861.721	0.901	2867886	WORD_OFF	n/a	n/a	CALF	4	20	[0, 0, 0]	n/a	FR1	0	R1231M
2862.622	1.617	2868787	WORD	n/a	wordpools/wordpool_EN.txt	BOWL	5	20	[0, 0, 0]	n/a	FR1	0	R1231M
2864.239	0.883	2870403	WORD_OFF	n/a	n/a	BOWL	5	20	[0, 0, 0]	n/a	FR1	0	R1231M
2865.122	1.617	2871286	WORD	n/a	wordpools/wordpool_EN.txt	HORN	6	20	[0, 0, 0]	n/a	FR1	0	R1231M
2866.739	0.8	2872903	WORD_OFF	n/a	n/a	HORN	6	20	[0, 0, 0]	n/a	FR1	0	R1231M
2867.539	1.617	2873703	WORD	n/a	wordpools/wordpool_EN.txt	SPRING	7	20	[0, 0, 0]	n/a	FR1	0	R1231M
2869.156	0.967	2875320	WORD_OFF	n/a	n/a	SPRING	7	20	[0, 0, 0]	n/a	FR1	0	R1231M
2870.123	1.617	2876287	WORD	n/a	wordpools/wordpool_EN.txt	MILK	8	20	[0, 0, 0]	n/a	FR1	0	R1231M
2871.74	0.85	2877904	WORD_OFF	n/a	n/a	MILK	8	20	[0, 0, 0]	n/a	FR1	0	R1231M
2872.59	1.617	2878754	WORD	n/a	wordpools/wordpool_EN.txt	JEEP	9	20	[0, 0, 0]	n/a	FR1	0	R1231M
2874.207	0.8	2880371	WORD_OFF	n/a	n/a	JEEP	9	20	[0, 0, 0]	n/a	FR1	0	R1231M
2875.007	1.617	2881171	WORD	n/a	wordpools/wordpool_EN.txt	BAG	10	20	[0, 0, 0]	n/a	FR1	0	R1231M
2876.624	0.884	2882788	WORD_OFF	n/a	n/a	BAG	10	20	[0, 0, 0]	n/a	FR1	0	R1231M
2877.508	1.617	2883672	WORD	n/a	wordpools/wordpool_EN.txt	FARM	11	20	[0, 0, 0]	n/a	FR1	0	R1231M
2879.125	0.933	2885289	WORD_OFF	n/a	n/a	FARM	11	20	[0, 0, 0]	n/a	FR1	0	R1231M
2880.058	1.617	2886222	WORD	n/a	wordpools/wordpool_EN.txt	CORN	12	20	[0, 0, 0]	n/a	FR1	0	R1231M
2881.675	0.0	2887838	WORD_OFF	n/a	n/a	CORN	12	20	[0, 0, 0]	n/a	FR1	0	R1231M
2881.675	0.001	2887838	DISTRACT_START	n/a	n/a	n/a	-999	20	[0, 0, 0]	n/a	FR1	0	R1231M
2881.676	0.016	2887839	START	n/a	n/a	n/a	-999	21	[-999, -999, -999]	n/a	FR1	0	R1231M
2881.692	13.619	2887855	PROB	13.619	n/a	n/a	-999	21	[3, 9, 4]	16	FR1	0	R1231M
2895.311	30.97	2901474	PROB	30.97	n/a	n/a	-999	21	[1, 3, 8]	11	FR1	0	R1231M
2926.281	0.02	2932442	STOP	n/a	n/a	n/a	-999	21	[-999, -999, -999]	n/a	FR1	0	R1231M
2926.301	0.633	2932462	DISTRACT_END	n/a	n/a	n/a	-999	20	[0, 0, 0]	n/a	FR1	0	R1231M
2926.934	0.517	2933095	RETRIEVAL_ORIENT	n/a	n/a	n/a	-999	20	[0, 0, 0]	n/a	FR1	0	R1231M
2927.451	3.348	2933612	REC_START	n/a	n/a	n/a	-999	20	[0, 0, 0]	n/a	FR1	0	R1231M
2930.799	1.439	2936960	REC_WORD	1.439	n/a	CART	-999	20	[0, 0, 0]	n/a	FR1	0	R1231M
2932.238	5.325	2938399	REC_WORD	5.325	n/a	BOARD	-999	20	[0, 0, 0]	n/a	FR1	0	R1231M
2937.563	0.487	2943723	REC_WORD_VV	0.487	n/a	<>	-999	20	[0, 0, 0]	n/a	FR1	0	R1231M
2938.05	19.412	2944210	REC_WORD	19.412	n/a	MILK	-999	20	[0, 0, 0]	n/a	FR1	0	R1231M
2957.462	7.946	2963621	REC_END	n/a	n/a	n/a	-999	20	[0, 0, 0]	n/a	FR1	0	R1231M
2965.408	0.5	2971567	TRIAL	n/a	n/a	n/a	-999	21	[0, 0, 0]	n/a	FR1	0	R1231M
2965.908	10.428	2972067	COUNTDOWN_START	n/a	n/a	n/a	-999	21	[0, 0, 0]	n/a	FR1	0	R1231M
2976.336	0.008	2982494	COUNTDOWN_END	n/a	n/a	n/a	-999	21	[0, 0, 0]	n/a	FR1	0	R1231M
2976.344	1.617	2982502	ORIENT	n/a	n/a	n/a	-999	21	[0, 0, 0]	n/a	FR1	0	R1231M
2977.961	2.067	2984119	ORIENT_OFF	n/a	n/a	n/a	-999	21	[0, 0, 0]	n/a	FR1	0	R1231M
2980.028	1.617	2986186	WORD	n/a	wordpools/wordpool_EN.txt	FORK	1	21	[0, 0, 0]	n/a	FR1	0	R1231M
2981.645	0.983	2987803	WORD_OFF	n/a	n/a	FORK	1	21	[0, 0, 0]	n/a	FR1	0	R1231M
2982.628	1.617	2988786	WORD	n/a	wordpools/wordpool_EN.txt	CHIN	2	21	[0, 0, 0]	n/a	FR1	0	R1231M
2984.245	1.0	2990403	WORD_OFF	n/a	n/a	CHIN	2	21	[0, 0, 0]	n/a	FR1	0	R1231M
2985.245	1.617	2991403	WORD	n/a	wordpools/wordpool_EN.txt	GRAPE	3	21	[0, 0, 0]	n/a	FR1	0	R1231M
2986.862	0.935	2993019	WORD_OFF	n/a	n/a	GRAPE	3	21	[0, 0, 0]	n/a	FR1	0	R1231M
2987.797	1.616	2993954	WORD	n/a	wordpools/wordpool_EN.txt	CAVE	4	21	[0, 0, 0]	n/a	FR1	0	R1231M
2989.413	0.983	2995570	WORD_OFF	n/a	n/a	CAVE	4	21	[0, 0, 0]	n/a	FR1	0	R1231M
2990.396	1.617	2996553	WORD	n/a	wordpools/wordpool_EN.txt	SHARK	5	21	[0, 0, 0]	n/a	FR1	0	R1231M
2992.013	0.818	2998170	WORD_OFF	n/a	n/a	SHARK	5	21	[0, 0, 0]	n/a	FR1	0	R1231M
2992.831	1.616	2998988	WORD	n/a	wordpools/wordpool_EN.txt	EAR	6	21	[0, 0, 0]	n/a	FR1	0	R1231M
2994.447	1.0	3000604	WORD_OFF	n/a	n/a	EAR	6	21	[0, 0, 0]	n/a	FR1	0	R1231M
2995.447	1.617	3001604	WORD	n/a	wordpools/wordpool_EN.txt	CUP	7	21	[0, 0, 0]	n/a	FR1	0	R1231M
2997.064	0.867	3003221	WORD_OFF	n/a	n/a	CUP	7	21	[0, 0, 0]	n/a	FR1	0	R1231M
2997.931	1.617	3004088	WORD	n/a	wordpools/wordpool_EN.txt	MAT	8	21	[0, 0, 0]	n/a	FR1	0	R1231M
2999.548	1.0	3005705	WORD_OFF	n/a	n/a	MAT	8	21	[0, 0, 0]	n/a	FR1	0	R1231M
3000.548	1.617	3006705	WORD	n/a	wordpools/wordpool_EN.txt	SHIRT	9	21	[0, 0, 0]	n/a	FR1	0	R1231M
3002.165	0.934	3008322	WORD_OFF	n/a	n/a	SHIRT	9	21	[0, 0, 0]	n/a	FR1	0	R1231M
3003.099	1.617	3009255	WORD	n/a	wordpools/wordpool_EN.txt	SMILE	10	21	[0, 0, 0]	n/a	FR1	0	R1231M
3004.716	0.983	3010872	WORD_OFF	n/a	n/a	SMILE	10	21	[0, 0, 0]	n/a	FR1	0	R1231M
3005.699	1.617	3011855	WORD	n/a	wordpools/wordpool_EN.txt	MUD	11	21	[0, 0, 0]	n/a	FR1	0	R1231M
3007.316	0.9	3013472	WORD_OFF	n/a	n/a	MUD	11	21	[0, 0, 0]	n/a	FR1	0	R1231M
3008.216	1.602	3014372	WORD	n/a	wordpools/wordpool_EN.txt	PIT	12	21	[0, 0, 0]	n/a	FR1	0	R1231M
3009.818	0.0	3015974	WORD_OFF	n/a	n/a	PIT	12	21	[0, 0, 0]	n/a	FR1	0	R1231M
3009.818	0.0	3015974	DISTRACT_START	n/a	n/a	n/a	-999	21	[0, 0, 0]	n/a	FR1	0	R1231M
3009.818	0.016	3015974	START	n/a	n/a	n/a	-999	22	[-999, -999, -999]	n/a	FR1	0	R1231M
3009.834	129.902	3015990	PROB	129.902	n/a	n/a	-999	22	[4, 4, 9]	17	FR1	0	R1231M
3139.736	0.023	3145885	STOP	n/a	n/a	n/a	-999	22	[-999, -999, -999]	n/a	FR1	0	R1231M
3139.759	0.666	3145908	DISTRACT_END	n/a	n/a	n/a	-999	21	[0, 0, 0]	n/a	FR1	0	R1231M
3140.425	0.518	3146574	RETRIEVAL_ORIENT	n/a	n/a	n/a	-999	21	[0, 0, 0]	n/a	FR1	0	R1231M
3140.943	1.604	3147092	REC_START	n/a	n/a	n/a	-999	21	[0, 0, 0]	n/a	FR1	0	R1231M
3142.547	1.05	3148695	REC_WORD	1.05	n/a	EAR	-999	21	[0, 0, 0]	n/a	FR1	0	R1231M
3143.597	20.608	3149745	REC_WORD	20.608	n/a	GRAPE	-999	21	[0, 0, 0]	n/a	FR1	0	R1231M
3164.205	0.45	3170352	REC_WORD_VV	0.45	n/a	<>	-999	21	[0, 0, 0]	n/a	FR1	0	R1231M
3164.655	0.602	3170802	REC_WORD	0.602	n/a	FORK	-999	21	[0, 0, 0]	n/a	FR1	0	R1231M
3165.257	5.695	3171404	REC_WORD_VV	5.695	n/a	<>	-999	21	[0, 0, 0]	n/a	FR1	0	R1231M
3170.952	10.515	3177099	REC_END	n/a	n/a	n/a	-999	21	[0, 0, 0]	n/a	FR1	0	R1231M
3181.467	0.5	3187613	TRIAL	n/a	n/a	n/a	-999	22	[0, 0, 0]	n/a	FR1	0	R1231M
3181.967	10.428	3188113	COUNTDOWN_START	n/a	n/a	n/a	-999	22	[0, 0, 0]	n/a	FR1	0	R1231M
3192.395	0.007	3198541	COUNTDOWN_END	n/a	n/a	n/a	-999	22	[0, 0, 0]	n/a	FR1	0	R1231M
3192.402	1.617	3198548	ORIENT	n/a	n/a	n/a	-999	22	[0, 0, 0]	n/a	FR1	0	R1231M
3194.019	2.034	3200164	ORIENT_OFF	n/a	n/a	n/a	-999	22	[0, 0, 0]	n/a	FR1	0	R1231M
3196.053	1.617	3202198	WORD	n/a	wordpools/wordpool_EN.txt	RAT	1	22	[0, 0, 0]	n/a	FR1	0	R1231M
3197.67	0.783	3203815	WORD_OFF	n/a	n/a	RAT	1	22	[0, 0, 0]	n/a	FR1	0	R1231M
3198.453	1.617	3204598	WORD	n/a	wordpools/wordpool_EN.txt	SINK	2	22	[0, 0, 0]	n/a	FR1	0	R1231M
3200.07	0.817	3206215	WORD_OFF	n/a	n/a	SINK	2	22	[0, 0, 0]	n/a	FR1	0	R1231M
3200.887	1.617	3207032	WORD	n/a	wordpools/wordpool_EN.txt	TOAD	3	22	[0, 0, 0]	n/a	FR1	0	R1231M
3202.504	0.967	3208649	WORD_OFF	n/a	n/a	TOAD	3	22	[0, 0, 0]	n/a	FR1	0	R1231M
3203.471	1.617	3209616	WORD	n/a	wordpools/wordpool_EN.txt	WEB	4	22	[0, 0, 0]	n/a	FR1	0	R1231M
3205.088	0.95	3211233	WORD_OFF	n/a	n/a	WEB	4	22	[0, 0, 0]	n/a	FR1	0	R1231M
3206.038	1.617	3212183	WORD	n/a	wordpools/wordpool_EN.txt	BEAN	5	22	[0, 0, 0]	n/a	FR1	0	R1231M
3207.655	0.934	3213800	WORD_OFF	n/a	n/a	BEAN	5	22	[0, 0, 0]	n/a	FR1	0	R1231M
3208.589	1.617	3214734	WORD	n/a	wordpools/wordpool_EN.txt	DUCK	6	22	[0, 0, 0]	n/a	FR1	0	R1231M
3210.206	0.883	3216351	WORD_OFF	n/a	n/a	DUCK	6	22	[0, 0, 0]	n/a	FR1	0	R1231M
3211.089	1.617	3217233	WORD	n/a	wordpools/wordpool_EN.txt	SOUP	7	22	[0, 0, 0]	n/a	FR1	0	R1231M
3212.706	1.0	3218850	WORD_OFF	n/a	n/a	SOUP	7	22	[0, 0, 0]	n/a	FR1	0	R1231M
3213.706	1.617	3219850	WORD	n/a	wordpools/wordpool_EN.txt	CLAY	8	22	[0, 0, 0]	n/a	FR1	0	R1231M
3215.323	0.934	3221467	WORD_OFF	n/a	n/a	CLAY	8	22	[0, 0, 0]	n/a	FR1	0	R1231M
3216.257	1.617	3222401	WORD	n/a	wordpools/wordpool_EN.txt	TAIL	9	22	[0, 0, 0]	n/a	FR1	0	R1231M
3217.874	0.817	3224018	WORD_OFF	n/a	n/a	TAIL	9	22	[0, 0, 0]	n/a	FR1	0	R1231M
3218.691	1.617	3224835	WORD	n/a	wordpools/wordpool_EN.txt	CUBE	10	22	[0, 0, 0]	n/a	FR1	0	R1231M
3220.308	0.933	3226452	WORD_OFF	n/a	n/a	CUBE	10	22	[0, 0, 0]	n/a	FR1	0	R1231M
3221.241	1.617	3227385	WORD	n/a	wordpools/wordpool_EN.txt	RAKE	11	22	[0, 0, 0]	n/a	FR1	0	R1231M
3222.858	0.968	3229002	WORD_OFF	n/a	n/a	RAKE	11	22	[0, 0, 0]	n/a	FR1	0	R1231M
3223.826	1.616	3229970	WORD	n/a	wordpools/wordpool_EN.txt	JUICE	12	22	[0, 0, 0]	n/a	FR1	0	R1231M
3225.442	0.0	3231586	WORD_OFF	n/a	n/a	JUICE	12	22	[0, 0, 0]	n/a	FR1	0	R1231M
3225.442	0.001	3231586	DISTRACT_START	n/a	n/a	n/a	-999	22	[0, 0, 0]	n/a	FR1	0	R1231M
3225.443	0.016	3231587	START	n/a	n/a	n/a	-999	23	[-999, -999, -999]	n/a	FR1	0	R1231M
3225.459	5.584	3231603	PROB	5.584	n/a	n/a	-999	23	[2, 2, 2]	6	FR1	0	R1231M
3231.043	24.893	3237186	PROB	24.893	n/a	n/a	-999	23	[3, 6, 7]	16	FR1	0	R1231M
3255.936	0.012	3262078	STOP	n/a	n/a	n/a	-999	23	[-999, -999, -999]	n/a	FR1	0	R1231M
3255.948	0.55	3262090	DISTRACT_END	n/a	n/a	n/a	-999	22	[0, 0, 0]	n/a	FR1	0	R1231M
3256.498	0.517	3262640	RETRIEVAL_ORIENT	n/a	n/a	n/a	-999	22	[0, 0, 0]	n/a	FR1	0	R1231M
3257.015	2.473	3263157	REC_START	n/a	n/a	n/a	-999	22	[0, 0, 0]	n/a	FR1	0	R1231M
3259.488	1.065	3265630	REC_WORD	1.065	n/a	RAT	-999	22	[0, 0, 0]	n/a	FR1	0	R1231M
3260.553	1.351	3266695	REC_WORD	1.351	n/a	TOAD	-999	22	[0, 0, 0]	n/a	FR1	0	R1231M
3261.904	1.959	3268046	REC_WORD	1.959	n/a	CLAY	-999	22	[0, 0, 0]	n/a	FR1	0	R1231M
3263.863	5.392	3270004	REC_WORD	5.392	n/a	WEB	-999	22	[0, 0, 0]	n/a	FR1	0	R1231M
3269.255	9.527	3275396	REC_WORD	9.527	n/a	SOUP	-999	22	[0, 0, 0]	n/a	FR1	0	R1231M
3278.782	0.379	3284923	REC_WORD_VV	0.379	n/a	<>	-999	22	[0, 0, 0]	n/a	FR1	0	R1231M
3279.161	0.457	3285302	REC_WORD	0.457	n/a	WEB	-999	22	[0, 0, 0]	n/a	FR1	0	R1231M
3279.618	4.623	3285759	REC_WORD_VV	4.623	n/a	<>	-999	22	[0, 0, 0]	n/a	FR1	0	R1231M
3284.241	2.785	3290381	REC_WORD	2.785	n/a	TAIL	-999	22	[0, 0, 0]	n/a	FR1	0	R1231M
3287.026	11.781	3293166	REC_END	n/a	n/a	n/a	-999	22	[0, 0, 0]	n/a	FR1	0	R1231M
3298.807	0.5	3304946	TRIAL	n/a	n/a	n/a	-999	23	[0, 0, 0]	n/a	FR1	0	R1231M
3299.307	10.428	3305446	COUNTDOWN_START	n/a	n/a	n/a	-999	23	[0, 0, 0]	n/a	FR1	0	R1231M
3309.735	0.007	3315874	COUNTDOWN_END	n/a	n/a	n/a	-999	23	[0, 0, 0]	n/a	FR1	0	R1231M
3309.742	1.617	3315881	ORIENT	n/a	n/a	n/a	-999	23	[0, 0, 0]	n/a	FR1	0	R1231M
3311.359	2.283	3317498	ORIENT_OFF	n/a	n/a	n/a	-999	23	[0, 0, 0]	n/a	FR1	0	R1231M
3313.642	1.617	3319781	WORD	n/a	wordpools/wordpool_EN.txt	GEESE	1	23	[0, 0, 0]	n/a	FR1	0	R1231M
3315.259	0.934	3321397	WORD_OFF	n/a	n/a	GEESE	1	23	[0, 0, 0]	n/a	FR1	0	R1231M
3316.193	1.601	3322331	WORD	n/a	wordpools/wordpool_EN.txt	BEAR	2	23	[0, 0, 0]	n/a	FR1	0	R1231M
3317.794	0.933	3323932	WORD_OFF	n/a	n/a	BEAR	2	23	[0, 0, 0]	n/a	FR1	0	R1231M
3318.727	1.617	3324865	WORD	n/a	wordpools/wordpool_EN.txt	PANTS	3	23	[0, 0, 0]	n/a	FR1	0	R1231M
3320.344	0.95	3326482	WORD_OFF	n/a	n/a	PANTS	3	23	[0, 0, 0]	n/a	FR1	0	R1231M
3321.294	1.617	3327432	WORD	n/a	wordpools/wordpool_EN.txt	CLOWN	4	23	[0, 0, 0]	n/a	FR1	0	R1231M
3322.911	0.95	3329049	WORD_OFF	n/a	n/a	CLOWN	4	23	[0, 0, 0]	n/a	FR1	0	R1231M
3323.861	1.617	3329999	WORD	n/a	wordpools/wordpool_EN.txt	DOCK	5	23	[0, 0, 0]	n/a	FR1	0	R1231M
3325.478	1.0	3331616	WORD_OFF	n/a	n/a	DOCK	5	23	[0, 0, 0]	n/a	FR1	0	R1231M
3326.478	1.617	3332616	WORD	n/a	wordpools/wordpool_EN.txt	SAIL	6	23	[0, 0, 0]	n/a	FR1	0	R1231M
3328.095	1.0	3334233	WORD_OFF	n/a	n/a	SAIL	6	23	[0, 0, 0]	n/a	FR1	0	R1231M
3329.095	1.617	3335233	WORD	n/a	wordpools/wordpool_EN.txt	SKI	7	23	[0, 0, 0]	n/a	FR1	0	R1231M
3330.712	0.867	3336850	WORD_OFF	n/a	n/a	SKI	7	23	[0, 0, 0]	n/a	FR1	0	R1231M
3331.579	1.617	3337717	WORD	n/a	wordpools/wordpool_EN.txt	DOOR	8	23	[0, 0, 0]	n/a	FR1	0	R1231M
3333.196	1.0	3339333	WORD_OFF	n/a	n/a	DOOR	8	23	[0, 0, 0]	n/a	FR1	0	R1231M
3334.196	1.618	3340333	WORD	n/a	wordpools/wordpool_EN.txt	WHALE	9	23	[0, 0, 0]	n/a	FR1	0	R1231M
3335.814	0.833	3341951	WORD_OFF	n/a	n/a	WHALE	9	23	[0, 0, 0]	n/a	FR1	0	R1231M
3336.647	1.617	3342784	WORD	n/a	wordpools/wordpool_EN.txt	FUR	10	23	[0, 0, 0]	n/a	FR1	0	R1231M
3338.264	0.866	3344401	WORD_OFF	n/a	n/a	FUR	10	23	[0, 0, 0]	n/a	FR1	0	R1231M
3339.13	1.618	3345267	WORD	n/a	wordpools/wordpool_EN.txt	WOLF	11	23	[0, 0, 0]	n/a	FR1	0	R1231M
3340.748	0.867	3346885	WORD_OFF	n/a	n/a	WOLF	11	23	[0, 0, 0]	n/a	FR1	0	R1231M
3341.615	1.617	3347752	WORD	n/a	wordpools/wordpool_EN.txt	RUG	12	23	[0, 0, 0]	n/a	FR1	0	R1231M
3343.232	0.0	3349369	WORD_OFF	n/a	n/a	RUG	12	23	[0, 0, 0]	n/a	FR1	0	R1231M
3343.232	0.0	3349369	DISTRACT_START	n/a	n/a	n/a	-999	23	[0, 0, 0]	n/a	FR1	0	R1231M
3343.232	0.016	3349369	START	n/a	n/a	n/a	-999	24	[-999, -999, -999]	n/a	FR1	0	R1231M
3343.248	11.669	3349385	PROB	11.669	n/a	n/a	-999	24	[6, 1, 5]	12	FR1	0	R1231M
3354.917	31.323	3361053	PROB	31.323	n/a	n/a	-999	24	[9, 2, 5]	16	FR1	0	R1231M
3386.24	0.017	3392374	STOP	n/a	n/a	n/a	-999	24	[-999, -999, -999]	n/a	FR1	0	R1231M
3386.257	0.666	3392391	DISTRACT_END	n/a	n/a	n/a	-999	23	[0, 0, 0]	n/a	FR1	0	R1231M
3386.923	0.518	3393057	RETRIEVAL_ORIENT	n/a	n/a	n/a	-999	23	[0, 0, 0]	n/a	FR1	0	R1231M
3387.441	8.513	3393575	REC_START	n/a	n/a	n/a	-999	23	[0, 0, 0]	n/a	FR1	0	R1231M
3395.954	2.153	3402088	REC_WORD	2.153	n/a	GEESE	-999	23	[0, 0, 0]	n/a	FR1	0	R1231M
3398.107	3.141	3404241	REC_WORD	3.141	n/a	BEAR	-999	23	[0, 0, 0]	n/a	FR1	0	R1231M
3401.248	3.401	3407382	REC_WORD	3.401	n/a	PANTS	-999	23	[0, 0, 0]	n/a	FR1	0	R1231M
3404.649	2.775	3410782	REC_WORD	2.775	n/a	SKI	-999	23	[0, 0, 0]	n/a	FR1	0	R1231M
3407.424	10.027	3413557	REC_WORD	10.027	n/a	CLOWN	-999	23	[0, 0, 0]	n/a	FR1	0	R1231M
3417.451	12.164	3423584	REC_END	n/a	n/a	n/a	-999	23	[0, 0, 0]	n/a	FR1	0	R1231M
3429.615	0.5	3435747	TRIAL	n/a	n/a	n/a	-999	24	[0, 0, 0]	n/a	FR1	0	R1231M
3430.115	10.428	3436247	COUNTDOWN_START	n/a	n/a	n/a	-999	24	[0, 0, 0]	n/a	FR1	0	R1231M
3440.543	0.007	3446674	COUNTDOWN_END	n/a	n/a	n/a	-999	24	[0, 0, 0]	n/a	FR1	0	R1231M
3440.55	1.617	3446681	ORIENT	n/a	n/a	n/a	-999	24	[0, 0, 0]	n/a	FR1	0	R1231M
3442.167	1.984	3448298	ORIENT_OFF	n/a	n/a	n/a	-999	24	[0, 0, 0]	n/a	FR1	0	R1231M
3444.151	1.617	3450282	WORD	n/a	wordpools/wordpool_EN.txt	DART	1	24	[0, 0, 0]	n/a	FR1	0	R1231M
3445.768	0.867	3451899	WORD_OFF	n/a	n/a	DART	1	24	[0, 0, 0]	n/a	FR1	0	R1231M
3446.635	1.617	3452766	WORD	n/a	wordpools/wordpool_EN.txt	SUIT	2	24	[0, 0, 0]	n/a	FR1	0	R1231M
3448.252	1.0	3454383	WORD_OFF	n/a	n/a	SUIT	2	24	[0, 0, 0]	n/a	FR1	0	R1231M
3449.252	1.617	3455383	WORD	n/a	wordpools/wordpool_EN.txt	CANE	3	24	[0, 0, 0]	n/a	FR1	0	R1231M
3450.869	0.867	3457000	WORD_OFF	n/a	n/a	CANE	3	24	[0, 0, 0]	n/a	FR1	0	R1231M
3451.736	1.617	3457867	WORD	n/a	wordpools/wordpool_EN.txt	SOCK	4	24	[0, 0, 0]	n/a	FR1	0	R1231M
3453.353	0.867	3459484	WORD_OFF	n/a	n/a	SOCK	4	24	[0, 0, 0]	n/a	FR1	0	R1231M
3454.22	1.618	3460350	WORD	n/a	wordpools/wordpool_EN.txt	CHAIR	5	24	[0, 0, 0]	n/a	FR1	0	R1231M
3455.838	0.983	3461968	WORD_OFF	n/a	n/a	CHAIR	5	24	[0, 0, 0]	n/a	FR1	0	R1231M
3456.821	1.616	3462951	WORD	n/a	wordpools/wordpool_EN.txt	PLATE	6	24	[0, 0, 0]	n/a	FR1	0	R1231M
3458.437	0.934	3464567	WORD_OFF	n/a	n/a	PLATE	6	24	[0, 0, 0]	n/a	FR1	0	R1231M
3459.371	1.617	3465501	WORD	n/a	wordpools/wordpool_EN.txt	PIE	7	24	[0, 0, 0]	n/a	FR1	0	R1231M
3460.988	0.783	3467118	WORD_OFF	n/a	n/a	PIE	7	24	[0, 0, 0]	n/a	FR1	0	R1231M
3461.771	1.617	3467901	WORD	n/a	wordpools/wordpool_EN.txt	MUG	8	24	[0, 0, 0]	n/a	FR1	0	R1231M
3463.388	0.967	3469518	WORD_OFF	n/a	n/a	MUG	8	24	[0, 0, 0]	n/a	FR1	0	R1231M
3464.355	1.617	3470485	WORD	n/a	wordpools/wordpool_EN.txt	DOLL	9	24	[0, 0, 0]	n/a	FR1	0	R1231M
3465.972	0.967	3472102	WORD_OFF	n/a	n/a	DOLL	9	24	[0, 0, 0]	n/a	FR1	0	R1231M
3466.939	1.617	3473069	WORD	n/a	wordpools/wordpool_EN.txt	PEACH	10	24	[0, 0, 0]	n/a	FR1	0	R1231M
3468.556	0.967	3474686	WORD_OFF	n/a	n/a	PEACH	10	24	[0, 0, 0]	n/a	FR1	0	R1231M
3469.523	1.617	3475653	WORD	n/a	wordpools/wordpool_EN.txt	TRAY	11	24	[0, 0, 0]	n/a	FR1	0	R1231M
3471.14	0.85	3477269	WORD_OFF	n/a	n/a	TRAY	11	24	[0, 0, 0]	n/a	FR1	0	R1231M
3471.99	1.617	3478119	WORD	n/a	wordpools/wordpool_EN.txt	FLOOR	12	24	[0, 0, 0]	n/a	FR1	0	R1231M
3473.607	0.0	3479736	WORD_OFF	n/a	n/a	FLOOR	12	24	[0, 0, 0]	n/a	FR1	0	R1231M
3473.607	0.0	3479736	DISTRACT_START	n/a	n/a	n/a	-999	24	[0, 0, 0]	n/a	FR1	0	R1231M
3473.607	0.017	3479736	START	n/a	n/a	n/a	-999	25	[-999, -999, -999]	n/a	FR1	0	R1231M
3473.624	23.712	3479753	PROB	23.712	n/a	n/a	-999	25	[5, 8, 4]	17	FR1	0	R1231M
3497.336	0.009	3503464	STOP	n/a	n/a	n/a	-999	25	[-999, -999, -999]	n/a	FR1	0	R1231M
3497.345	0.6	3503473	DISTRACT_END	n/a	n/a	n/a	-999	24	[0, 0, 0]	n/a	FR1	0	R1231M
3497.945	0.517	3504073	RETRIEVAL_ORIENT	n/a	n/a	n/a	-999	24	[0, 0, 0]	n/a	FR1	0	R1231M
3498.462	9.734	3504590	REC_START	n/a	n/a	n/a	-999	24	[0, 0, 0]	n/a	FR1	0	R1231M
3508.196	5.519	3514323	REC_WORD	5.519	n/a	SUIT	-999	24	[0, 0, 0]	n/a	FR1	0	R1231M
3513.715	4.062	3519842	REC_WORD	4.062	n/a	PLATE	-999	24	[0, 0, 0]	n/a	FR1	0	R1231M
3517.777	10.44	3523904	REC_WORD	10.44	n/a	PIE	-999	24	[0, 0, 0]	n/a	FR1	0	R1231M
3528.217	0.256	3534343	REC_WORD	0.256	n/a	DUCK	-999	24	[0, 0, 0]	n/a	FR1	0	R1231M
3528.473	28.117	3534599	REC_END	n/a	n/a	n/a	-999	24	[0, 0, 0]	n/a	FR1	0	R1231M
3556.59	0.5	3562715	TRIAL	n/a	n/a	n/a	-999	25	[0, 0, 0]	n/a	FR1	0	R1231M
3557.09	10.428	3563215	COUNTDOWN_START	n/a	n/a	n/a	-999	25	[0, 0, 0]	n/a	FR1	0	R1231M
3567.518	0.007	3573642	COUNTDOWN_END	n/a	n/a	n/a	-999	25	[0, 0, 0]	n/a	FR1	0	R1231M
3567.525	1.617	3573649	ORIENT	n/a	n/a	n/a	-999	25	[0, 0, 0]	n/a	FR1	0	R1231M
3569.142	2.067	3575266	ORIENT_OFF	n/a	n/a	n/a	-999	25	[0, 0, 0]	n/a	FR1	0	R1231M
3571.209	1.618	3577333	WORD	n/a	wordpools/wordpool_EN.txt	WEED	1	25	[0, 0, 0]	n/a	FR1	0	R1231M
3572.827	0.933	3578951	WORD_OFF	n/a	n/a	WEED	1	25	[0, 0, 0]	n/a	FR1	0	R1231M
3573.76	1.617	3579884	WORD	n/a	wordpools/wordpool_EN.txt	TOE	2	25	[0, 0, 0]	n/a	FR1	0	R1231M
3575.377	0.816	3581500	WORD_OFF	n/a	n/a	TOE	2	25	[0, 0, 0]	n/a	FR1	0	R1231M
3576.193	1.618	3582316	WORD	n/a	wordpools/wordpool_EN.txt	LEAF	3	25	[0, 0, 0]	n/a	FR1	0	R1231M
3577.811	0.984	3583934	WORD_OFF	n/a	n/a	LEAF	3	25	[0, 0, 0]	n/a	FR1	0	R1231M
3578.795	1.616	3584918	WORD	n/a	wordpools/wordpool_EN.txt	BLOOM	4	25	[0, 0, 0]	n/a	FR1	0	R1231M
3580.411	0.933	3586534	WORD_OFF	n/a	n/a	BLOOM	4	25	[0, 0, 0]	n/a	FR1	0	R1231M
3581.344	1.617	3587467	WORD	n/a	wordpools/wordpool_EN.txt	MOTH	5	25	[0, 0, 0]	n/a	FR1	0	R1231M
3582.961	0.817	3589084	WORD_OFF	n/a	n/a	MOTH	5	25	[0, 0, 0]	n/a	FR1	0	R1231M
3583.778	1.617	3589901	WORD	n/a	wordpools/wordpool_EN.txt	CONE	6	25	[0, 0, 0]	n/a	FR1	0	R1231M
3585.395	1.0	3591518	WORD_OFF	n/a	n/a	CONE	6	25	[0, 0, 0]	n/a	FR1	0	R1231M
3586.395	1.617	3592518	WORD	n/a	wordpools/wordpool_EN.txt	THUMB	7	25	[0, 0, 0]	n/a	FR1	0	R1231M
3588.012	0.917	3594135	WORD_OFF	n/a	n/a	THUMB	7	25	[0, 0, 0]	n/a	FR1	0	R1231M
3588.929	1.617	3595052	WORD	n/a	wordpools/wordpool_EN.txt	STEM	8	25	[0, 0, 0]	n/a	FR1	0	R1231M
3590.546	0.9	3596669	WORD_OFF	n/a	n/a	STEM	8	25	[0, 0, 0]	n/a	FR1	0	R1231M
3591.446	1.617	3597569	WORD	n/a	wordpools/wordpool_EN.txt	ARM	9	25	[0, 0, 0]	n/a	FR1	0	R1231M
3593.063	0.85	3599185	WORD_OFF	n/a	n/a	ARM	9	25	[0, 0, 0]	n/a	FR1	0	R1231M
3593.913	1.617	3600035	WORD	n/a	wordpools/wordpool_EN.txt	TOAST	10	25	[0, 0, 0]	n/a	FR1	0	R1231M
3595.53	0.917	3601652	WORD_OFF	n/a	n/a	TOAST	10	25	[0, 0, 0]	n/a	FR1	0	R1231M
3596.447	1.617	3602569	WORD	n/a	wordpools/wordpool_EN.txt	PASTE	11	25	[0, 0, 0]	n/a	FR1	0	R1231M
3598.064	0.95	3604186	WORD_OFF	n/a	n/a	PASTE	11	25	[0, 0, 0]	n/a	FR1	0	R1231M
3599.014	1.617	3605136	WORD	n/a	wordpools/wordpool_EN.txt	FRUIT	12	25	[0, 0, 0]	n/a	FR1	0	R1231M
3600.631	0.0	3606753	WORD_OFF	n/a	n/a	FRUIT	12	25	[0, 0, 0]	n/a	FR1	0	R1231M
3600.631	0.001	3606753	DISTRACT_START	n/a	n/a	n/a	-999	25	[0, 0, 0]	n/a	FR1	0	R1231M
3600.632	0.016	3606754	START	n/a	n/a	n/a	-999	26	[-999, -999, -999]	n/a	FR1	0	R1231M
3600.648	6.635	3606770	PROB	6.635	n/a	n/a	-999	26	[9, 8, 2]	19	FR1	0	R1231M
3607.283	18.551	3613405	PROB	18.551	n/a	n/a	-999	26	[3, 5, 1]	9	FR1	0	R1231M
3625.834	0.019	3631955	STOP	n/a	n/a	n/a	-999	26	[-999, -999, -999]	n/a	FR1	0	R1231M
3625.853	0.65	3631974	DISTRACT_END	n/a	n/a	n/a	-999	25	[0, 0, 0]	n/a	FR1	0	R1231M
3626.503	0.518	3632624	RETRIEVAL_ORIENT	n/a	n/a	n/a	-999	25	[0, 0, 0]	n/a	FR1	0	R1231M
3627.021	6.328	3633141	REC_START	n/a	n/a	n/a	-999	25	[0, 0, 0]	n/a	FR1	0	R1231M
3633.349	0.71	3639469	REC_WORD	0.71	n/a	WEED	-999	25	[0, 0, 0]	n/a	FR1	0	R1231M
3634.059	1.738	3640179	REC_WORD	1.738	n/a	STEM	-999	25	[0, 0, 0]	n/a	FR1	0	R1231M
3635.797	6.289	3641917	REC_WORD	6.289	n/a	LEAF	-999	25	[0, 0, 0]	n/a	FR1	0	R1231M
3642.086	14.946	3648206	REC_WORD	14.946	n/a	CONE	-999	25	[0, 0, 0]	n/a	FR1	0	R1231M
3657.032	153.207	3663151	REC_END	n/a	n/a	n/a	-999	25	[0, 0, 0]	n/a	FR1	0	R1231M
3810.239	0.0	3816349	SESS_END	n/a	n/a	n/a	-999	25	[0, 0, 0]	n/a	FR1	0	R1231M
