onset	duration	sample	trial_type	response_time	stim_file	item_name	serialpos	list	test	answer	experiment	session	subject
0.0	528.555	1057	INSTRUCT_START	n/a	n/a	n/a	-999	-999	[0, 0, 0]	n/a	FR1	3	R1350D
528.555	4.833	529585	INSTRUCT_END	n/a	n/a	n/a	-999	-999	[0, 0, 0]	n/a	FR1	3	R1350D
533.388	29.478	534417	MIC TEST_START	n/a	n/a	n/a	-999	-999	[0, 0, 0]	n/a	FR1	3	R1350D
562.866	0.01	563894	MIC TEST_END	n/a	n/a	n/a	-999	-999	[0, 0, 0]	n/a	FR1	3	R1350D
562.876	0.0	563904	TRIAL_START	n/a	n/a	n/a	-999	-1	[0, 0, 0]	n/a	FR1	3	R1350D
562.876	0.0	563904	TRIAL	n/a	n/a	n/a	-999	-1	[0, 0, 0]	n/a	FR1	3	R1350D
562.876	1.236	563904	WAITING_START	n/a	n/a	n/a	-999	-1	[0, 0, 0]	n/a	FR1	3	R1350D
564.112	0.0	565140	COUNTDOWN_START	n/a	n/a	n/a	-999	-1	[0, 0, 0]	n/a	FR1	3	R1350D
564.112	10.43	565140	WAITING_END	n/a	n/a	n/a	-999	-1	[0, 0, 0]	n/a	FR1	3	R1350D
574.542	0.0	575569	COUNTDOWN_END	n/a	n/a	n/a	-999	-1	[0, 0, 0]	n/a	FR1	3	R1350D
574.542	1.205	575569	ORIENT_START	n/a	n/a	n/a	-999	-1	[0, 0, 0]	n/a	FR1	3	R1350D
575.747	0.0	576774	ORIENT_END	n/a	n/a	n/a	-999	-1	[0, 0, 0]	n/a	FR1	3	R1350D
575.747	0.763	576774	ENCODING_START	n/a	n/a	n/a	-999	-1	[0, 0, 0]	n/a	FR1	3	R1350D
576.51	1.637	577537	WORD	n/a	n/a	WATCH	1	-1	[0, 0, 0]	n/a	FR1	3	R1350D
578.147	0.78	579174	WORD_OFF	n/a	n/a	WATCH	1	-1	[0, 0, 0]	n/a	FR1	3	R1350D
578.927	1.638	579954	WORD	n/a	n/a	WAGON	2	-1	[0, 0, 0]	n/a	FR1	3	R1350D
580.565	1.024	581592	WORD_OFF	n/a	n/a	WAGON	2	-1	[0, 0, 0]	n/a	FR1	3	R1350D
581.589	1.626	582616	WORD	n/a	n/a	FLOOD	3	-1	[0, 0, 0]	n/a	FR1	3	R1350D
583.215	1.093	584242	WORD_OFF	n/a	n/a	FLOOD	3	-1	[0, 0, 0]	n/a	FR1	3	R1350D
584.308	1.624	585335	WORD	n/a	n/a	BEAM	4	-1	[0, 0, 0]	n/a	FR1	3	R1350D
585.932	0.818	586959	WORD_OFF	n/a	n/a	BEAM	4	-1	[0, 0, 0]	n/a	FR1	3	R1350D
586.75	1.632	587777	WORD	n/a	n/a	IMAGE	5	-1	[0, 0, 0]	n/a	FR1	3	R1350D
588.382	0.801	589409	WORD_OFF	n/a	n/a	IMAGE	5	-1	[0, 0, 0]	n/a	FR1	3	R1350D
589.183	1.633	590210	WORD	n/a	n/a	CAMEL	6	-1	[0, 0, 0]	n/a	FR1	3	R1350D
590.816	0.869	591842	WORD_OFF	n/a	n/a	CAMEL	6	-1	[0, 0, 0]	n/a	FR1	3	R1350D
591.685	1.632	592711	WORD	n/a	n/a	RING	7	-1	[0, 0, 0]	n/a	FR1	3	R1350D
593.317	0.842	594343	WORD_OFF	n/a	n/a	RING	7	-1	[0, 0, 0]	n/a	FR1	3	R1350D
594.159	1.625	595185	WORD	n/a	n/a	COTTON	8	-1	[0, 0, 0]	n/a	FR1	3	R1350D
595.784	1.049	596810	WORD_OFF	n/a	n/a	COTTON	8	-1	[0, 0, 0]	n/a	FR1	3	R1350D
596.833	1.634	597859	WORD	n/a	n/a	BABY	9	-1	[0, 0, 0]	n/a	FR1	3	R1350D
598.467	0.854	599493	WORD_OFF	n/a	n/a	BABY	9	-1	[0, 0, 0]	n/a	FR1	3	R1350D
599.321	1.631	600347	WORD	n/a	n/a	RHINO	10	-1	[0, 0, 0]	n/a	FR1	3	R1350D
600.952	0.756	601978	WORD_OFF	n/a	n/a	RHINO	10	-1	[0, 0, 0]	n/a	FR1	3	R1350D
601.708	1.627	602734	WORD	n/a	n/a	TONGUE	11	-1	[0, 0, 0]	n/a	FR1	3	R1350D
603.335	0.884	604361	WORD_OFF	n/a	n/a	TONGUE	11	-1	[0, 0, 0]	n/a	FR1	3	R1350D
604.219	1.634	605245	WORD	n/a	n/a	CHEST	12	-1	[0, 0, 0]	n/a	FR1	3	R1350D
605.853	0.0	606879	WORD_OFF	n/a	n/a	CHEST	12	-1	[0, 0, 0]	n/a	FR1	3	R1350D
605.853	0.0	606879	ENCODING_END	n/a	n/a	n/a	-999	-1	[0, 0, 0]	n/a	FR1	3	R1350D
605.853	0.001	606879	DISTRACT_START	n/a	n/a	n/a	-999	-1	[0, 0, 0]	n/a	FR1	3	R1350D
605.854	0.015	606880	START	n/a	n/a	n/a	-999	-1	[-999, -999, -999]	n/a	FR1	3	R1350D
605.869	3.951	606895	PROB	3.951	n/a	n/a	-999	-1	[8, 4, 7]	19	FR1	3	R1350D
609.82	3.75	610845	PROB	3.75	n/a	n/a	-999	-1	[5, 8, 3]	16	FR1	3	R1350D
613.57	4.034	614595	PROB	4.034	n/a	n/a	-999	-1	[5, 4, 7]	16	FR1	3	R1350D
617.604	3.368	618629	PROB	3.368	n/a	n/a	-999	-1	[3, 7, 3]	13	FR1	3	R1350D
620.972	3.167	621997	PROB	3.167	n/a	n/a	-999	-1	[1, 6, 8]	15	FR1	3	R1350D
624.139	2.969	625164	PROB	2.969	n/a	n/a	-999	-1	[6, 1, 6]	13	FR1	3	R1350D
627.108	0.015	628133	STOP	n/a	n/a	n/a	-999	-1	[-999, -999, -999]	n/a	FR1	3	R1350D
627.123	0.551	628148	DISTRACT_END	n/a	n/a	n/a	-999	-1	[0, 0, 0]	n/a	FR1	3	R1350D
627.674	1.533	628699	RETRIEVAL_ORIENT_START	n/a	n/a	n/a	-999	-1	[0, 0, 0]	n/a	FR1	3	R1350D
629.207	0.0	630231	RETRIEVAL_ORIENT_END	n/a	n/a	n/a	-999	-1	[0, 0, 0]	n/a	FR1	3	R1350D
629.207	0.0	630231	REC_START	n/a	n/a	n/a	-999	-1	[0, 0, 0]	n/a	FR1	3	R1350D
629.207	30.013	630231	REC_WORD_VV	30.013	n/a	<>	-999	-1	[0, 0, 0]	n/a	FR1	3	R1350D
659.22	0.0	660243	PRACTICE_POST_INSTRUCT_START	n/a	n/a	n/a	-999	-1	[0, 0, 0]	n/a	FR1	3	R1350D
659.22	2.977	660243	REC_END	n/a	n/a	n/a	-999	-1	[0, 0, 0]	n/a	FR1	3	R1350D
662.197	0.0	663220	PRACTICE_POST_INSTRUCT_END	n/a	n/a	n/a	-999	-1	[0, 0, 0]	n/a	FR1	3	R1350D
662.197	0.016	663220	TRIAL_END	n/a	n/a	n/a	-999	-1	[0, 0, 0]	n/a	FR1	3	R1350D
662.213	0.001	663236	TRIAL_START	n/a	n/a	n/a	-999	1	[0, 0, 0]	n/a	FR1	3	R1350D
662.214	0.0	663237	TRIAL	n/a	n/a	n/a	-999	1	[0, 0, 0]	n/a	FR1	3	R1350D
662.214	0.999	663237	WAITING_START	n/a	n/a	n/a	-999	1	[0, 0, 0]	n/a	FR1	3	R1350D
663.213	0.0	664236	WAITING_END	n/a	n/a	n/a	-999	1	[0, 0, 0]	n/a	FR1	3	R1350D
663.213	10.429	664236	COUNTDOWN_START	n/a	n/a	n/a	-999	1	[0, 0, 0]	n/a	FR1	3	R1350D
673.642	0.001	674664	COUNTDOWN_END	n/a	n/a	n/a	-999	1	[0, 0, 0]	n/a	FR1	3	R1350D
673.643	1.055	674665	ORIENT_START	n/a	n/a	n/a	-999	1	[0, 0, 0]	n/a	FR1	3	R1350D
674.698	0.001	675720	ORIENT_END	n/a	n/a	n/a	-999	1	[0, 0, 0]	n/a	FR1	3	R1350D
674.699	1.118	675721	ENCODING_START	n/a	n/a	n/a	-999	1	[0, 0, 0]	n/a	FR1	3	R1350D
675.817	1.631	676839	WORD	n/a	wordpools/wordpool_EN.txt	MAIL	1	1	[0, 0, 0]	n/a	FR1	3	R1350D
677.448	0.848	678470	WORD_OFF	n/a	n/a	MAIL	1	1	[0, 0, 0]	n/a	FR1	3	R1350D
678.296	1.637	679318	WORD	n/a	wordpools/wordpool_EN.txt	DOOR	2	1	[0, 0, 0]	n/a	FR1	3	R1350D
679.933	0.952	680955	WORD_OFF	n/a	n/a	DOOR	2	1	[0, 0, 0]	n/a	FR1	3	R1350D
680.885	1.63	681907	WORD	n/a	wordpools/wordpool_EN.txt	SUN	3	1	[0, 0, 0]	n/a	FR1	3	R1350D
682.515	0.844	683537	WORD_OFF	n/a	n/a	SUN	3	1	[0, 0, 0]	n/a	FR1	3	R1350D
683.359	1.624	684381	WORD	n/a	wordpools/wordpool_EN.txt	STEAK	4	1	[0, 0, 0]	n/a	FR1	3	R1350D
684.983	1.012	686005	WORD_OFF	n/a	n/a	STEAK	4	1	[0, 0, 0]	n/a	FR1	3	R1350D
685.995	1.622	687017	WORD	n/a	wordpools/wordpool_EN.txt	CANE	5	1	[0, 0, 0]	n/a	FR1	3	R1350D
687.617	0.945	688638	WORD_OFF	n/a	n/a	CANE	5	1	[0, 0, 0]	n/a	FR1	3	R1350D
688.562	1.622	689583	WORD	n/a	wordpools/wordpool_EN.txt	CAKE	6	1	[0, 0, 0]	n/a	FR1	3	R1350D
690.184	0.853	691205	WORD_OFF	n/a	n/a	CAKE	6	1	[0, 0, 0]	n/a	FR1	3	R1350D
691.037	1.631	692058	WORD	n/a	wordpools/wordpool_EN.txt	WHALE	7	1	[0, 0, 0]	n/a	FR1	3	R1350D
692.668	0.81	693689	WORD_OFF	n/a	n/a	WHALE	7	1	[0, 0, 0]	n/a	FR1	3	R1350D
693.478	1.624	694499	WORD	n/a	wordpools/wordpool_EN.txt	STAIR	8	1	[0, 0, 0]	n/a	FR1	3	R1350D
695.102	1.133	696123	WORD_OFF	n/a	n/a	STAIR	8	1	[0, 0, 0]	n/a	FR1	3	R1350D
696.235	1.634	697256	WORD	n/a	wordpools/wordpool_EN.txt	STEAM	9	1	[0, 0, 0]	n/a	FR1	3	R1350D
697.869	0.842	698890	WORD_OFF	n/a	n/a	STEAM	9	1	[0, 0, 0]	n/a	FR1	3	R1350D
698.711	1.625	699732	WORD	n/a	wordpools/wordpool_EN.txt	PLATE	10	1	[0, 0, 0]	n/a	FR1	3	R1350D
700.336	0.761	701357	WORD_OFF	n/a	n/a	PLATE	10	1	[0, 0, 0]	n/a	FR1	3	R1350D
701.097	1.623	702118	WORD	n/a	wordpools/wordpool_EN.txt	FRUIT	11	1	[0, 0, 0]	n/a	FR1	3	R1350D
702.72	0.89	703741	WORD_OFF	n/a	n/a	FRUIT	11	1	[0, 0, 0]	n/a	FR1	3	R1350D
703.61	1.627	704631	WORD	n/a	wordpools/wordpool_EN.txt	CLIFF	12	1	[0, 0, 0]	n/a	FR1	3	R1350D
705.237	0.001	706258	WORD_OFF	n/a	n/a	CLIFF	12	1	[0, 0, 0]	n/a	FR1	3	R1350D
705.238	0.0	706259	ENCODING_END	n/a	n/a	n/a	-999	1	[0, 0, 0]	n/a	FR1	3	R1350D
705.238	0.0	706259	DISTRACT_START	n/a	n/a	n/a	-999	1	[0, 0, 0]	n/a	FR1	3	R1350D
705.238	0.016	706259	START	n/a	n/a	n/a	-999	1	[-999, -999, -999]	n/a	FR1	3	R1350D
705.254	4.484	706275	PROB	4.484	n/a	n/a	-999	1	[9, 4, 5]	18	FR1	3	R1350D
709.738	3.334	710758	PROB	3.334	n/a	n/a	-999	1	[2, 1, 3]	6	FR1	3	R1350D
713.072	2.634	714092	PROB	2.634	n/a	n/a	-999	1	[2, 4, 6]	12	FR1	3	R1350D
715.706	3.334	716726	PROB	3.334	n/a	n/a	-999	1	[5, 9, 3]	17	FR1	3	R1350D
719.04	4.017	720060	PROB	4.017	n/a	n/a	-999	1	[8, 5, 9]	22	FR1	3	R1350D
723.057	2.564	724077	PROB	2.564	n/a	n/a	-999	1	[3, 1, 8]	12	FR1	3	R1350D
725.621	0.02	726641	STOP	n/a	n/a	n/a	-999	1	[-999, -999, -999]	n/a	FR1	3	R1350D
725.641	0.514	726661	DISTRACT_END	n/a	n/a	n/a	-999	1	[0, 0, 0]	n/a	FR1	3	R1350D
726.155	1.636	727175	RETRIEVAL_ORIENT_START	n/a	n/a	n/a	-999	1	[0, 0, 0]	n/a	FR1	3	R1350D
727.791	0.001	728810	RETRIEVAL_ORIENT_END	n/a	n/a	n/a	-999	1	[0, 0, 0]	n/a	FR1	3	R1350D
727.792	1.44	728811	REC_START	n/a	n/a	n/a	-999	1	[0, 0, 0]	n/a	FR1	3	R1350D
729.232	0.496	730251	REC_WORD_VV	0.496	n/a	<>	-999	1	[0, 0, 0]	n/a	FR1	3	R1350D
729.728	2.781	730747	REC_WORD	2.781	n/a	STEAM	9	1	[0, 0, 0]	n/a	FR1	3	R1350D
732.509	25.294	733528	REC_WORD	25.294	n/a	PLATE	10	1	[0, 0, 0]	n/a	FR1	3	R1350D
757.803	0.0	758821	REC_END	n/a	n/a	n/a	-999	1	[0, 0, 0]	n/a	FR1	3	R1350D
757.803	0.017	758821	TRIAL_END	n/a	n/a	n/a	-999	1	[0, 0, 0]	n/a	FR1	3	R1350D
757.82	0.0	758838	TRIAL_START	n/a	n/a	n/a	-999	2	[0, 0, 0]	n/a	FR1	3	R1350D
757.82	0.0	758838	TRIAL	n/a	n/a	n/a	-999	2	[0, 0, 0]	n/a	FR1	3	R1350D
757.82	1.427	758838	WAITING_START	n/a	n/a	n/a	-999	2	[0, 0, 0]	n/a	FR1	3	R1350D
759.247	0.001	760265	WAITING_END	n/a	n/a	n/a	-999	2	[0, 0, 0]	n/a	FR1	3	R1350D
759.248	10.429	760266	COUNTDOWN_START	n/a	n/a	n/a	-999	2	[0, 0, 0]	n/a	FR1	3	R1350D
769.677	0.001	770694	COUNTDOWN_END	n/a	n/a	n/a	-999	2	[0, 0, 0]	n/a	FR1	3	R1350D
769.678	1.021	770695	ORIENT_START	n/a	n/a	n/a	-999	2	[0, 0, 0]	n/a	FR1	3	R1350D
770.699	0.001	771716	ORIENT_END	n/a	n/a	n/a	-999	2	[0, 0, 0]	n/a	FR1	3	R1350D
770.7	0.773	771717	ENCODING_START	n/a	n/a	n/a	-999	2	[0, 0, 0]	n/a	FR1	3	R1350D
771.473	1.61	772490	WORD	n/a	wordpools/wordpool_EN.txt	JAIL	1	2	[0, 0, 0]	n/a	FR1	3	R1350D
773.083	0.905	774100	WORD_OFF	n/a	n/a	JAIL	1	2	[0, 0, 0]	n/a	FR1	3	R1350D
773.988	1.629	775005	WORD	n/a	wordpools/wordpool_EN.txt	RIB	2	2	[0, 0, 0]	n/a	FR1	3	R1350D
775.617	0.873	776634	WORD_OFF	n/a	n/a	RIB	2	2	[0, 0, 0]	n/a	FR1	3	R1350D
776.49	1.627	777507	WORD	n/a	wordpools/wordpool_EN.txt	BEE	3	2	[0, 0, 0]	n/a	FR1	3	R1350D
778.117	0.758	779134	WORD_OFF	n/a	n/a	BEE	3	2	[0, 0, 0]	n/a	FR1	3	R1350D
778.875	1.625	779892	WORD	n/a	wordpools/wordpool_EN.txt	BAT	4	2	[0, 0, 0]	n/a	FR1	3	R1350D
780.5	0.784	781517	WORD_OFF	n/a	n/a	BAT	4	2	[0, 0, 0]	n/a	FR1	3	R1350D
781.284	1.634	782301	WORD	n/a	wordpools/wordpool_EN.txt	SMILE	5	2	[0, 0, 0]	n/a	FR1	3	R1350D
782.918	0.938	783935	WORD_OFF	n/a	n/a	SMILE	5	2	[0, 0, 0]	n/a	FR1	3	R1350D
783.856	1.628	784873	WORD	n/a	wordpools/wordpool_EN.txt	RUG	6	2	[0, 0, 0]	n/a	FR1	3	R1350D
785.484	0.859	786500	WORD_OFF	n/a	n/a	RUG	6	2	[0, 0, 0]	n/a	FR1	3	R1350D
786.343	1.626	787359	WORD	n/a	wordpools/wordpool_EN.txt	DOLL	7	2	[0, 0, 0]	n/a	FR1	3	R1350D
787.969	0.959	788985	WORD_OFF	n/a	n/a	DOLL	7	2	[0, 0, 0]	n/a	FR1	3	R1350D
788.928	1.624	789944	WORD	n/a	wordpools/wordpool_EN.txt	PASTE	8	2	[0, 0, 0]	n/a	FR1	3	R1350D
790.552	0.803	791568	WORD_OFF	n/a	n/a	PASTE	8	2	[0, 0, 0]	n/a	FR1	3	R1350D
791.355	1.632	792371	WORD	n/a	wordpools/wordpool_EN.txt	MOOSE	9	2	[0, 0, 0]	n/a	FR1	3	R1350D
792.987	0.92	794003	WORD_OFF	n/a	n/a	MOOSE	9	2	[0, 0, 0]	n/a	FR1	3	R1350D
793.907	1.629	794923	WORD	n/a	wordpools/wordpool_EN.txt	RAT	10	2	[0, 0, 0]	n/a	FR1	3	R1350D
795.536	0.974	796552	WORD_OFF	n/a	n/a	RAT	10	2	[0, 0, 0]	n/a	FR1	3	R1350D
796.51	1.627	797526	WORD	n/a	wordpools/wordpool_EN.txt	BUSH	11	2	[0, 0, 0]	n/a	FR1	3	R1350D
798.137	0.806	799153	WORD_OFF	n/a	n/a	BUSH	11	2	[0, 0, 0]	n/a	FR1	3	R1350D
798.943	1.628	799959	WORD	n/a	wordpools/wordpool_EN.txt	SPONGE	12	2	[0, 0, 0]	n/a	FR1	3	R1350D
800.571	0.0	801587	ENCODING_END	n/a	n/a	n/a	-999	2	[0, 0, 0]	n/a	FR1	3	R1350D
800.571	0.001	801587	WORD_OFF	n/a	n/a	SPONGE	12	2	[0, 0, 0]	n/a	FR1	3	R1350D
800.572	0.0	801588	DISTRACT_START	n/a	n/a	n/a	-999	2	[0, 0, 0]	n/a	FR1	3	R1350D
800.572	0.015	801588	START	n/a	n/a	n/a	-999	2	[-999, -999, -999]	n/a	FR1	3	R1350D
800.587	3.435	801603	PROB	3.435	n/a	n/a	-999	2	[1, 3, 3]	7	FR1	3	R1350D
804.022	5.416	805038	PROB	5.416	n/a	n/a	-999	2	[8, 5, 4]	17	FR1	3	R1350D
809.438	3.519	810453	PROB	3.519	n/a	n/a	-999	2	[5, 9, 8]	22	FR1	3	R1350D
812.957	3.017	813972	PROB	3.017	n/a	n/a	-999	2	[1, 4, 2]	6	FR1	3	R1350D
815.974	4.601	816989	PROB	4.601	n/a	n/a	-999	2	[6, 9, 8]	22	FR1	3	R1350D
820.575	3.449	821590	PROB	3.449	n/a	n/a	-999	2	[7, 6, 7]	20	FR1	3	R1350D
824.024	0.018	825038	STOP	n/a	n/a	n/a	-999	2	[-999, -999, -999]	n/a	FR1	3	R1350D
824.042	0.673	825056	DISTRACT_END	n/a	n/a	n/a	-999	2	[0, 0, 0]	n/a	FR1	3	R1350D
824.715	1.66	825729	RETRIEVAL_ORIENT_START	n/a	n/a	n/a	-999	2	[0, 0, 0]	n/a	FR1	3	R1350D
826.375	0.0	827389	RETRIEVAL_ORIENT_END	n/a	n/a	n/a	-999	2	[0, 0, 0]	n/a	FR1	3	R1350D
826.375	2.762	827389	REC_START	n/a	n/a	n/a	-999	2	[0, 0, 0]	n/a	FR1	3	R1350D
829.137	1.028	830151	REC_WORD_VV	1.028	n/a	<>	-999	2	[0, 0, 0]	n/a	FR1	3	R1350D
830.165	1.621	831179	REC_WORD	1.621	n/a	MOOSE	9	2	[0, 0, 0]	n/a	FR1	3	R1350D
831.786	1.741	832800	REC_WORD	1.741	n/a	RAT	10	2	[0, 0, 0]	n/a	FR1	3	R1350D
833.527	2.05	834541	REC_WORD	2.05	n/a	JAIL	1	2	[0, 0, 0]	n/a	FR1	3	R1350D
835.577	5.994	836591	REC_WORD	5.994	n/a	SPONGE	12	2	[0, 0, 0]	n/a	FR1	3	R1350D
841.571	3.242	842585	REC_WORD	3.242	n/a	RIB	2	2	[0, 0, 0]	n/a	FR1	3	R1350D
844.813	4.88	845826	REC_WORD	4.88	n/a	SMILE	5	2	[0, 0, 0]	n/a	FR1	3	R1350D
849.693	6.693	850706	REC_WORD	6.693	n/a	BEE	3	2	[0, 0, 0]	n/a	FR1	3	R1350D
856.386	0.0	857399	REC_END	n/a	n/a	n/a	-999	2	[0, 0, 0]	n/a	FR1	3	R1350D
856.386	0.014	857399	TRIAL_END	n/a	n/a	n/a	-999	2	[0, 0, 0]	n/a	FR1	3	R1350D
856.4	0.0	857413	TRIAL	n/a	n/a	n/a	-999	3	[0, 0, 0]	n/a	FR1	3	R1350D
856.4	0.0	857413	TRIAL_START	n/a	n/a	n/a	-999	3	[0, 0, 0]	n/a	FR1	3	R1350D
856.4	6.799	857413	WAITING_START	n/a	n/a	n/a	-999	3	[0, 0, 0]	n/a	FR1	3	R1350D
863.199	0.001	864211	WAITING_END	n/a	n/a	n/a	-999	3	[0, 0, 0]	n/a	FR1	3	R1350D
863.2	10.429	864212	COUNTDOWN_START	n/a	n/a	n/a	-999	3	[0, 0, 0]	n/a	FR1	3	R1350D
873.629	0.0	874641	COUNTDOWN_END	n/a	n/a	n/a	-999	3	[0, 0, 0]	n/a	FR1	3	R1350D
873.629	1.122	874641	ORIENT_START	n/a	n/a	n/a	-999	3	[0, 0, 0]	n/a	FR1	3	R1350D
874.751	0.001	875763	ORIENT_END	n/a	n/a	n/a	-999	3	[0, 0, 0]	n/a	FR1	3	R1350D
874.752	0.777	875764	ENCODING_START	n/a	n/a	n/a	-999	3	[0, 0, 0]	n/a	FR1	3	R1350D
875.529	1.64	876541	WORD	n/a	wordpools/wordpool_EN.txt	PHONE	1	3	[0, 0, 0]	n/a	FR1	3	R1350D
877.169	1.028	878181	WORD_OFF	n/a	n/a	PHONE	1	3	[0, 0, 0]	n/a	FR1	3	R1350D
878.197	1.622	879209	WORD	n/a	wordpools/wordpool_EN.txt	BIRD	2	3	[0, 0, 0]	n/a	FR1	3	R1350D
879.819	0.953	880831	WORD_OFF	n/a	n/a	BIRD	2	3	[0, 0, 0]	n/a	FR1	3	R1350D
880.772	1.63	881784	WORD	n/a	wordpools/wordpool_EN.txt	FACE	3	3	[0, 0, 0]	n/a	FR1	3	R1350D
882.402	0.796	883413	WORD_OFF	n/a	n/a	FACE	3	3	[0, 0, 0]	n/a	FR1	3	R1350D
883.198	1.622	884209	WORD	n/a	wordpools/wordpool_EN.txt	FLAG	4	3	[0, 0, 0]	n/a	FR1	3	R1350D
884.82	0.803	885831	WORD_OFF	n/a	n/a	FLAG	4	3	[0, 0, 0]	n/a	FR1	3	R1350D
885.623	1.631	886634	WORD	n/a	wordpools/wordpool_EN.txt	BENCH	5	3	[0, 0, 0]	n/a	FR1	3	R1350D
887.254	0.778	888265	WORD_OFF	n/a	n/a	BENCH	5	3	[0, 0, 0]	n/a	FR1	3	R1350D
888.032	1.622	889043	WORD	n/a	wordpools/wordpool_EN.txt	OAK	6	3	[0, 0, 0]	n/a	FR1	3	R1350D
889.654	0.898	890665	WORD_OFF	n/a	n/a	OAK	6	3	[0, 0, 0]	n/a	FR1	3	R1350D
890.552	1.636	891563	WORD	n/a	wordpools/wordpool_EN.txt	CAVE	7	3	[0, 0, 0]	n/a	FR1	3	R1350D
892.188	0.912	893199	WORD_OFF	n/a	n/a	CAVE	7	3	[0, 0, 0]	n/a	FR1	3	R1350D
893.1	1.638	894111	WORD	n/a	wordpools/wordpool_EN.txt	SLIME	8	3	[0, 0, 0]	n/a	FR1	3	R1350D
894.738	0.903	895749	WORD_OFF	n/a	n/a	SLIME	8	3	[0, 0, 0]	n/a	FR1	3	R1350D
895.641	1.631	896652	WORD	n/a	wordpools/wordpool_EN.txt	BADGE	9	3	[0, 0, 0]	n/a	FR1	3	R1350D
897.272	1.05	898283	WORD_OFF	n/a	n/a	BADGE	9	3	[0, 0, 0]	n/a	FR1	3	R1350D
898.322	1.634	899333	WORD	n/a	wordpools/wordpool_EN.txt	BEACH	10	3	[0, 0, 0]	n/a	FR1	3	R1350D
899.956	0.819	900967	WORD_OFF	n/a	n/a	BEACH	10	3	[0, 0, 0]	n/a	FR1	3	R1350D
900.775	1.63	901786	WORD	n/a	wordpools/wordpool_EN.txt	SHIELD	11	3	[0, 0, 0]	n/a	FR1	3	R1350D
902.405	0.903	903415	WORD_OFF	n/a	n/a	SHIELD	11	3	[0, 0, 0]	n/a	FR1	3	R1350D
903.308	1.632	904318	WORD	n/a	wordpools/wordpool_EN.txt	STRAW	12	3	[0, 0, 0]	n/a	FR1	3	R1350D
904.94	0.001	905950	WORD_OFF	n/a	n/a	STRAW	12	3	[0, 0, 0]	n/a	FR1	3	R1350D
904.941	0.0	905951	ENCODING_END	n/a	n/a	n/a	-999	3	[0, 0, 0]	n/a	FR1	3	R1350D
904.941	0.0	905951	DISTRACT_START	n/a	n/a	n/a	-999	3	[0, 0, 0]	n/a	FR1	3	R1350D
904.941	0.016	905951	START	n/a	n/a	n/a	-999	3	[-999, -999, -999]	n/a	FR1	3	R1350D
904.957	4.9	905967	PROB	4.9	n/a	n/a	-999	3	[1, 8, 8]	17	FR1	3	R1350D
909.857	2.868	910867	PROB	2.868	n/a	n/a	-999	3	[9, 1, 5]	15	FR1	3	R1350D
912.725	3.067	913735	PROB	3.067	n/a	n/a	-999	3	[5, 1, 3]	9	FR1	3	R1350D
915.792	3.084	916802	PROB	3.084	n/a	n/a	-999	3	[5, 1, 4]	10	FR1	3	R1350D
918.876	2.7	919886	PROB	2.7	n/a	n/a	-999	3	[9, 1, 3]	13	FR1	3	R1350D
921.576	2.933	922585	PROB	2.933	n/a	n/a	-999	3	[8, 6, 7]	22	FR1	3	R1350D
924.509	3.337	925518	PROB	3.337	n/a	n/a	-999	3	[8, 5, 1]	14	FR1	3	R1350D
927.846	0.015	928855	STOP	n/a	n/a	n/a	-999	3	[-999, -999, -999]	n/a	FR1	3	R1350D
927.861	0.5	928870	DISTRACT_END	n/a	n/a	n/a	-999	3	[0, 0, 0]	n/a	FR1	3	R1350D
928.361	1.567	929370	RETRIEVAL_ORIENT_START	n/a	n/a	n/a	-999	3	[0, 0, 0]	n/a	FR1	3	R1350D
929.928	0.0	930937	RETRIEVAL_ORIENT_END	n/a	n/a	n/a	-999	3	[0, 0, 0]	n/a	FR1	3	R1350D
929.928	2.811	930937	REC_START	n/a	n/a	n/a	-999	3	[0, 0, 0]	n/a	FR1	3	R1350D
932.739	1.52	933748	REC_WORD	1.52	n/a	OAK	6	3	[0, 0, 0]	n/a	FR1	3	R1350D
934.259	1.48	935268	REC_WORD	1.48	n/a	BENCH	5	3	[0, 0, 0]	n/a	FR1	3	R1350D
935.739	24.199	936748	REC_WORD	24.199	n/a	SLIME	8	3	[0, 0, 0]	n/a	FR1	3	R1350D
959.938	0.001	960945	REC_END	n/a	n/a	n/a	-999	3	[0, 0, 0]	n/a	FR1	3	R1350D
959.939	0.016	960946	TRIAL_END	n/a	n/a	n/a	-999	3	[0, 0, 0]	n/a	FR1	3	R1350D
959.955	0.001	960962	TRIAL_START	n/a	n/a	n/a	-999	4	[0, 0, 0]	n/a	FR1	3	R1350D
959.956	0.0	960963	TRIAL	n/a	n/a	n/a	-999	4	[0, 0, 0]	n/a	FR1	3	R1350D
959.956	1.41	960963	WAITING_START	n/a	n/a	n/a	-999	4	[0, 0, 0]	n/a	FR1	3	R1350D
961.366	0.001	962373	WAITING_END	n/a	n/a	n/a	-999	4	[0, 0, 0]	n/a	FR1	3	R1350D
961.367	10.428	962374	COUNTDOWN_START	n/a	n/a	n/a	-999	4	[0, 0, 0]	n/a	FR1	3	R1350D
971.795	0.001	972802	COUNTDOWN_END	n/a	n/a	n/a	-999	4	[0, 0, 0]	n/a	FR1	3	R1350D
971.796	1.223	972803	ORIENT_START	n/a	n/a	n/a	-999	4	[0, 0, 0]	n/a	FR1	3	R1350D
973.019	0.001	974026	ORIENT_END	n/a	n/a	n/a	-999	4	[0, 0, 0]	n/a	FR1	3	R1350D
973.02	0.874	974027	ENCODING_START	n/a	n/a	n/a	-999	4	[0, 0, 0]	n/a	FR1	3	R1350D
973.894	1.625	974901	WORD	n/a	wordpools/wordpool_EN.txt	COW	1	4	[0, 0, 0]	n/a	FR1	3	R1350D
975.519	1.019	976526	WORD_OFF	n/a	n/a	COW	1	4	[0, 0, 0]	n/a	FR1	3	R1350D
976.538	1.632	977545	WORD	n/a	wordpools/wordpool_EN.txt	SUIT	2	4	[0, 0, 0]	n/a	FR1	3	R1350D
978.17	1.01	979177	WORD_OFF	n/a	n/a	SUIT	2	4	[0, 0, 0]	n/a	FR1	3	R1350D
979.18	1.624	980186	WORD	n/a	wordpools/wordpool_EN.txt	DIME	3	4	[0, 0, 0]	n/a	FR1	3	R1350D
980.804	1.139	981810	WORD_OFF	n/a	n/a	DIME	3	4	[0, 0, 0]	n/a	FR1	3	R1350D
981.943	1.628	982949	WORD	n/a	wordpools/wordpool_EN.txt	PIT	4	4	[0, 0, 0]	n/a	FR1	3	R1350D
983.571	0.85	984577	WORD_OFF	n/a	n/a	PIT	4	4	[0, 0, 0]	n/a	FR1	3	R1350D
984.421	1.617	985427	WORD	n/a	wordpools/wordpool_EN.txt	MAT	5	4	[0, 0, 0]	n/a	FR1	3	R1350D
986.038	0.962	987044	WORD_OFF	n/a	n/a	MAT	5	4	[0, 0, 0]	n/a	FR1	3	R1350D
987.0	1.622	988006	WORD	n/a	wordpools/wordpool_EN.txt	JET	6	4	[0, 0, 0]	n/a	FR1	3	R1350D
988.622	0.757	989628	WORD_OFF	n/a	n/a	JET	6	4	[0, 0, 0]	n/a	FR1	3	R1350D
989.379	1.627	990385	WORD	n/a	wordpools/wordpool_EN.txt	GEESE	7	4	[0, 0, 0]	n/a	FR1	3	R1350D
991.006	1.092	992012	WORD_OFF	n/a	n/a	GEESE	7	4	[0, 0, 0]	n/a	FR1	3	R1350D
992.098	1.625	993104	WORD	n/a	wordpools/wordpool_EN.txt	BLUSH	8	4	[0, 0, 0]	n/a	FR1	3	R1350D
993.723	1.142	994729	WORD_OFF	n/a	n/a	BLUSH	8	4	[0, 0, 0]	n/a	FR1	3	R1350D
994.865	1.624	995871	WORD	n/a	wordpools/wordpool_EN.txt	SKUNK	9	4	[0, 0, 0]	n/a	FR1	3	R1350D
996.489	1.14	997495	WORD_OFF	n/a	n/a	SKUNK	9	4	[0, 0, 0]	n/a	FR1	3	R1350D
997.629	1.628	998635	WORD	n/a	wordpools/wordpool_EN.txt	WING	10	4	[0, 0, 0]	n/a	FR1	3	R1350D
999.257	0.902	1000262	WORD_OFF	n/a	n/a	WING	10	4	[0, 0, 0]	n/a	FR1	3	R1350D
1000.159	1.632	1001164	WORD	n/a	wordpools/wordpool_EN.txt	LIP	11	4	[0, 0, 0]	n/a	FR1	3	R1350D
1001.791	0.915	1002796	WORD_OFF	n/a	n/a	LIP	11	4	[0, 0, 0]	n/a	FR1	3	R1350D
1002.706	1.636	1003711	WORD	n/a	wordpools/wordpool_EN.txt	WOLF	12	4	[0, 0, 0]	n/a	FR1	3	R1350D
1004.342	0.0	1005347	DISTRACT_START	n/a	n/a	n/a	-999	4	[0, 0, 0]	n/a	FR1	3	R1350D
1004.342	0.0	1005347	WORD_OFF	n/a	n/a	WOLF	12	4	[0, 0, 0]	n/a	FR1	3	R1350D
1004.342	0.001	1005347	ENCODING_END	n/a	n/a	n/a	-999	4	[0, 0, 0]	n/a	FR1	3	R1350D
1004.343	0.015	1005348	START	n/a	n/a	n/a	-999	4	[-999, -999, -999]	n/a	FR1	3	R1350D
1004.358	3.701	1005363	PROB	3.701	n/a	n/a	-999	4	[2, 5, 2]	9	FR1	3	R1350D
1008.059	3.184	1009064	PROB	3.184	n/a	n/a	-999	4	[9, 2, 4]	15	FR1	3	R1350D
1011.243	3.067	1012248	PROB	3.067	n/a	n/a	-999	4	[2, 4, 1]	7	FR1	3	R1350D
1014.31	3.017	1015315	PROB	3.017	n/a	n/a	-999	4	[6, 6, 7]	19	FR1	3	R1350D
1017.327	4.001	1018332	PROB	4.001	n/a	n/a	-999	4	[8, 4, 5]	17	FR1	3	R1350D
1021.328	5.809	1022332	PROB	5.809	n/a	n/a	-999	4	[3, 4, 9]	16	FR1	3	R1350D
1027.137	0.009	1028141	STOP	n/a	n/a	n/a	-999	4	[-999, -999, -999]	n/a	FR1	3	R1350D
1027.146	0.53	1028150	DISTRACT_END	n/a	n/a	n/a	-999	4	[0, 0, 0]	n/a	FR1	3	R1350D
1027.676	1.587	1028680	RETRIEVAL_ORIENT_START	n/a	n/a	n/a	-999	4	[0, 0, 0]	n/a	FR1	3	R1350D
1029.263	0.0	1030267	RETRIEVAL_ORIENT_END	n/a	n/a	n/a	-999	4	[0, 0, 0]	n/a	FR1	3	R1350D
1029.263	2.362	1030267	REC_START	n/a	n/a	n/a	-999	4	[0, 0, 0]	n/a	FR1	3	R1350D
1031.625	1.729	1032629	REC_WORD	1.729	n/a	GEESE	7	4	[0, 0, 0]	n/a	FR1	3	R1350D
1033.354	4.176	1034358	REC_WORD	4.176	n/a	JET	6	4	[0, 0, 0]	n/a	FR1	3	R1350D
1037.53	2.697	1038533	REC_WORD	2.697	n/a	BEACH	-999	4	[0, 0, 0]	n/a	FR1	3	R1350D
1040.227	1.646	1041230	REC_WORD	1.646	n/a	CAVE	-999	4	[0, 0, 0]	n/a	FR1	3	R1350D
1041.873	9.505	1042876	REC_WORD	9.505	n/a	OAK	-999	4	[0, 0, 0]	n/a	FR1	3	R1350D
1051.378	7.897	1052381	REC_WORD	7.897	n/a	BENCH	-999	4	[0, 0, 0]	n/a	FR1	3	R1350D
1059.275	0.001	1060277	REC_END	n/a	n/a	n/a	-999	4	[0, 0, 0]	n/a	FR1	3	R1350D
1059.276	0.014	1060278	TRIAL_END	n/a	n/a	n/a	-999	4	[0, 0, 0]	n/a	FR1	3	R1350D
1059.29	0.001	1060292	TRIAL_START	n/a	n/a	n/a	-999	5	[0, 0, 0]	n/a	FR1	3	R1350D
1059.291	0.0	1060293	TRIAL	n/a	n/a	n/a	-999	5	[0, 0, 0]	n/a	FR1	3	R1350D
1059.291	1.261	1060293	WAITING_START	n/a	n/a	n/a	-999	5	[0, 0, 0]	n/a	FR1	3	R1350D
1060.552	0.0	1061554	COUNTDOWN_START	n/a	n/a	n/a	-999	5	[0, 0, 0]	n/a	FR1	3	R1350D
1060.552	10.43	1061554	WAITING_END	n/a	n/a	n/a	-999	5	[0, 0, 0]	n/a	FR1	3	R1350D
1070.982	0.0	1071984	COUNTDOWN_END	n/a	n/a	n/a	-999	5	[0, 0, 0]	n/a	FR1	3	R1350D
1070.982	1.022	1071984	ORIENT_START	n/a	n/a	n/a	-999	5	[0, 0, 0]	n/a	FR1	3	R1350D
1072.004	0.0	1073006	ORIENT_END	n/a	n/a	n/a	-999	5	[0, 0, 0]	n/a	FR1	3	R1350D
1072.004	1.065	1073006	ENCODING_START	n/a	n/a	n/a	-999	5	[0, 0, 0]	n/a	FR1	3	R1350D
1073.069	1.635	1074071	WORD	n/a	wordpools/wordpool_EN.txt	BOARD	1	5	[0, 0, 0]	n/a	FR1	3	R1350D
1074.704	0.934	1075706	WORD_OFF	n/a	n/a	BOARD	1	5	[0, 0, 0]	n/a	FR1	3	R1350D
1075.638	1.634	1076640	WORD	n/a	wordpools/wordpool_EN.txt	PURSE	2	5	[0, 0, 0]	n/a	FR1	3	R1350D
1077.272	1.077	1078273	WORD_OFF	n/a	n/a	PURSE	2	5	[0, 0, 0]	n/a	FR1	3	R1350D
1078.349	1.623	1079350	WORD	n/a	wordpools/wordpool_EN.txt	CLAY	3	5	[0, 0, 0]	n/a	FR1	3	R1350D
1079.972	0.93	1080973	WORD_OFF	n/a	n/a	CLAY	3	5	[0, 0, 0]	n/a	FR1	3	R1350D
1080.902	1.636	1081903	WORD	n/a	wordpools/wordpool_EN.txt	TRUCK	4	5	[0, 0, 0]	n/a	FR1	3	R1350D
1082.538	1.042	1083539	WORD_OFF	n/a	n/a	TRUCK	4	5	[0, 0, 0]	n/a	FR1	3	R1350D
1083.58	1.627	1084581	WORD	n/a	wordpools/wordpool_EN.txt	PEARL	5	5	[0, 0, 0]	n/a	FR1	3	R1350D
1085.207	0.809	1086208	WORD_OFF	n/a	n/a	PEARL	5	5	[0, 0, 0]	n/a	FR1	3	R1350D
1086.016	1.624	1087017	WORD	n/a	wordpools/wordpool_EN.txt	TEA	6	5	[0, 0, 0]	n/a	FR1	3	R1350D
1087.64	0.864	1088641	WORD_OFF	n/a	n/a	TEA	6	5	[0, 0, 0]	n/a	FR1	3	R1350D
1088.504	1.62	1089505	WORD	n/a	wordpools/wordpool_EN.txt	CHAIR	7	5	[0, 0, 0]	n/a	FR1	3	R1350D
1090.124	1.025	1091125	WORD_OFF	n/a	n/a	CHAIR	7	5	[0, 0, 0]	n/a	FR1	3	R1350D
1091.149	1.625	1092150	WORD	n/a	wordpools/wordpool_EN.txt	CLOCK	8	5	[0, 0, 0]	n/a	FR1	3	R1350D
1092.774	0.873	1093775	WORD_OFF	n/a	n/a	CLOCK	8	5	[0, 0, 0]	n/a	FR1	3	R1350D
1093.647	1.628	1094648	WORD	n/a	wordpools/wordpool_EN.txt	NEST	9	5	[0, 0, 0]	n/a	FR1	3	R1350D
1095.275	0.927	1096276	WORD_OFF	n/a	n/a	NEST	9	5	[0, 0, 0]	n/a	FR1	3	R1350D
1096.202	1.623	1097202	WORD	n/a	wordpools/wordpool_EN.txt	CLOWN	10	5	[0, 0, 0]	n/a	FR1	3	R1350D
1097.825	0.768	1098825	WORD_OFF	n/a	n/a	CLOWN	10	5	[0, 0, 0]	n/a	FR1	3	R1350D
1098.593	1.633	1099593	WORD	n/a	wordpools/wordpool_EN.txt	TRAIN	11	5	[0, 0, 0]	n/a	FR1	3	R1350D
1100.226	0.985	1101226	WORD_OFF	n/a	n/a	TRAIN	11	5	[0, 0, 0]	n/a	FR1	3	R1350D
1101.211	1.632	1102211	WORD	n/a	wordpools/wordpool_EN.txt	FENCE	12	5	[0, 0, 0]	n/a	FR1	3	R1350D
1102.843	0.0	1103843	WORD_OFF	n/a	n/a	FENCE	12	5	[0, 0, 0]	n/a	FR1	3	R1350D
1102.843	0.001	1103843	ENCODING_END	n/a	n/a	n/a	-999	5	[0, 0, 0]	n/a	FR1	3	R1350D
1102.844	0.0	1103844	DISTRACT_START	n/a	n/a	n/a	-999	5	[0, 0, 0]	n/a	FR1	3	R1350D
1102.844	0.015	1103844	START	n/a	n/a	n/a	-999	5	[-999, -999, -999]	n/a	FR1	3	R1350D
1102.859	4.401	1103859	PROB	4.401	n/a	n/a	-999	5	[9, 3, 3]	15	FR1	3	R1350D
1107.26	3.417	1108260	PROB	3.417	n/a	n/a	-999	5	[2, 9, 5]	16	FR1	3	R1350D
1110.677	3.368	1111677	PROB	3.368	n/a	n/a	-999	5	[3, 1, 6]	10	FR1	3	R1350D
1114.045	3.534	1115045	PROB	3.534	n/a	n/a	-999	5	[4, 5, 6]	15	FR1	3	R1350D
1117.579	3.684	1118578	PROB	3.684	n/a	n/a	-999	5	[2, 8, 9]	19	FR1	3	R1350D
1121.263	4.578	1122262	PROB	4.578	n/a	n/a	-999	5	[8, 4, 3]	15	FR1	3	R1350D
1125.841	0.023	1126840	STOP	n/a	n/a	n/a	-999	5	[-999, -999, -999]	n/a	FR1	3	R1350D
1125.864	0.608	1126863	DISTRACT_END	n/a	n/a	n/a	-999	5	[0, 0, 0]	n/a	FR1	3	R1350D
1126.472	1.692	1127471	RETRIEVAL_ORIENT_START	n/a	n/a	n/a	-999	5	[0, 0, 0]	n/a	FR1	3	R1350D
1128.164	0.001	1129163	RETRIEVAL_ORIENT_END	n/a	n/a	n/a	-999	5	[0, 0, 0]	n/a	FR1	3	R1350D
1128.165	2.912	1129164	REC_START	n/a	n/a	n/a	-999	5	[0, 0, 0]	n/a	FR1	3	R1350D
1131.077	1.907	1132076	REC_WORD	1.907	n/a	PEARL	5	5	[0, 0, 0]	n/a	FR1	3	R1350D
1132.984	10.035	1133983	REC_WORD	10.035	n/a	TRUCK	4	5	[0, 0, 0]	n/a	FR1	3	R1350D
1143.019	4.35	1144017	REC_WORD	4.35	n/a	CLOWN	10	5	[0, 0, 0]	n/a	FR1	3	R1350D
1147.369	10.806	1148367	REC_WORD	10.806	n/a	TRAIN	11	5	[0, 0, 0]	n/a	FR1	3	R1350D
1158.175	0.0	1159172	REC_END	n/a	n/a	n/a	-999	5	[0, 0, 0]	n/a	FR1	3	R1350D
1158.175	0.016	1159172	TRIAL_END	n/a	n/a	n/a	-999	5	[0, 0, 0]	n/a	FR1	3	R1350D
1158.191	0.001	1159188	TRIAL_START	n/a	n/a	n/a	-999	6	[0, 0, 0]	n/a	FR1	3	R1350D
1158.192	0.0	1159189	TRIAL	n/a	n/a	n/a	-999	6	[0, 0, 0]	n/a	FR1	3	R1350D
1158.192	1.378	1159189	WAITING_START	n/a	n/a	n/a	-999	6	[0, 0, 0]	n/a	FR1	3	R1350D
1159.57	0.001	1160567	WAITING_END	n/a	n/a	n/a	-999	6	[0, 0, 0]	n/a	FR1	3	R1350D
1159.571	10.428	1160568	COUNTDOWN_START	n/a	n/a	n/a	-999	6	[0, 0, 0]	n/a	FR1	3	R1350D
1169.999	0.0	1170996	COUNTDOWN_END	n/a	n/a	n/a	-999	6	[0, 0, 0]	n/a	FR1	3	R1350D
1169.999	1.106	1170996	ORIENT_START	n/a	n/a	n/a	-999	6	[0, 0, 0]	n/a	FR1	3	R1350D
1171.105	0.001	1172102	ORIENT_END	n/a	n/a	n/a	-999	6	[0, 0, 0]	n/a	FR1	3	R1350D
1171.106	1.08	1172103	ENCODING_START	n/a	n/a	n/a	-999	6	[0, 0, 0]	n/a	FR1	3	R1350D
1172.186	1.636	1173183	WORD	n/a	wordpools/wordpool_EN.txt	TOAST	1	6	[0, 0, 0]	n/a	FR1	3	R1350D
1173.822	1.026	1174818	WORD_OFF	n/a	n/a	TOAST	1	6	[0, 0, 0]	n/a	FR1	3	R1350D
1174.848	1.624	1175844	WORD	n/a	wordpools/wordpool_EN.txt	BARN	2	6	[0, 0, 0]	n/a	FR1	3	R1350D
1176.472	1.048	1177468	WORD_OFF	n/a	n/a	BARN	2	6	[0, 0, 0]	n/a	FR1	3	R1350D
1177.52	1.637	1178516	WORD	n/a	wordpools/wordpool_EN.txt	WOOD	3	6	[0, 0, 0]	n/a	FR1	3	R1350D
1179.157	1.082	1180153	WORD_OFF	n/a	n/a	WOOD	3	6	[0, 0, 0]	n/a	FR1	3	R1350D
1180.239	1.635	1181235	WORD	n/a	wordpools/wordpool_EN.txt	DART	4	6	[0, 0, 0]	n/a	FR1	3	R1350D
1181.874	1.055	1182870	WORD_OFF	n/a	n/a	DART	4	6	[0, 0, 0]	n/a	FR1	3	R1350D
1182.929	1.629	1183925	WORD	n/a	wordpools/wordpool_EN.txt	LOCK	5	6	[0, 0, 0]	n/a	FR1	3	R1350D
1184.558	0.785	1185554	WORD_OFF	n/a	n/a	LOCK	5	6	[0, 0, 0]	n/a	FR1	3	R1350D
1185.343	1.632	1186339	WORD	n/a	wordpools/wordpool_EN.txt	DITCH	6	6	[0, 0, 0]	n/a	FR1	3	R1350D
1186.975	0.909	1187971	WORD_OFF	n/a	n/a	DITCH	6	6	[0, 0, 0]	n/a	FR1	3	R1350D
1187.884	1.624	1188880	WORD	n/a	wordpools/wordpool_EN.txt	KITE	7	6	[0, 0, 0]	n/a	FR1	3	R1350D
1189.508	0.844	1190504	WORD_OFF	n/a	n/a	KITE	7	6	[0, 0, 0]	n/a	FR1	3	R1350D
1190.352	1.624	1191348	WORD	n/a	wordpools/wordpool_EN.txt	SEED	8	6	[0, 0, 0]	n/a	FR1	3	R1350D
1191.976	0.793	1192972	WORD_OFF	n/a	n/a	SEED	8	6	[0, 0, 0]	n/a	FR1	3	R1350D
1192.769	1.623	1193765	WORD	n/a	wordpools/wordpool_EN.txt	WORLD	9	6	[0, 0, 0]	n/a	FR1	3	R1350D
1194.392	0.896	1195387	WORD_OFF	n/a	n/a	WORLD	9	6	[0, 0, 0]	n/a	FR1	3	R1350D
1195.288	1.639	1196283	WORD	n/a	wordpools/wordpool_EN.txt	BRUSH	10	6	[0, 0, 0]	n/a	FR1	3	R1350D
1196.927	0.826	1197922	WORD_OFF	n/a	n/a	BRUSH	10	6	[0, 0, 0]	n/a	FR1	3	R1350D
1197.753	1.623	1198748	WORD	n/a	wordpools/wordpool_EN.txt	BOOK	11	6	[0, 0, 0]	n/a	FR1	3	R1350D
1199.376	0.891	1200371	WORD_OFF	n/a	n/a	BOOK	11	6	[0, 0, 0]	n/a	FR1	3	R1350D
1200.267	1.627	1201262	WORD	n/a	wordpools/wordpool_EN.txt	TIE	12	6	[0, 0, 0]	n/a	FR1	3	R1350D
1201.894	0.001	1202889	WORD_OFF	n/a	n/a	TIE	12	6	[0, 0, 0]	n/a	FR1	3	R1350D
1201.895	0.0	1202890	ENCODING_END	n/a	n/a	n/a	-999	6	[0, 0, 0]	n/a	FR1	3	R1350D
1201.895	0.0	1202890	DISTRACT_START	n/a	n/a	n/a	-999	6	[0, 0, 0]	n/a	FR1	3	R1350D
1201.895	0.016	1202890	START	n/a	n/a	n/a	-999	6	[-999, -999, -999]	n/a	FR1	3	R1350D
1201.911	4.751	1202906	PROB	4.751	n/a	n/a	-999	6	[6, 4, 5]	14	FR1	3	R1350D
1206.662	2.617	1207657	PROB	2.617	n/a	n/a	-999	6	[1, 3, 7]	11	FR1	3	R1350D
1209.279	2.617	1210274	PROB	2.617	n/a	n/a	-999	6	[9, 8, 1]	18	FR1	3	R1350D
1211.896	4.533	1212891	PROB	4.533	n/a	n/a	-999	6	[2, 8, 9]	19	FR1	3	R1350D
1216.429	3.084	1217423	PROB	3.084	n/a	n/a	-999	6	[2, 9, 9]	20	FR1	3	R1350D
1219.513	5.84	1220507	PROB	5.84	n/a	n/a	-999	6	[9, 4, 6]	19	FR1	3	R1350D
1225.353	0.012	1226347	STOP	n/a	n/a	n/a	-999	6	[-999, -999, -999]	n/a	FR1	3	R1350D
1225.365	0.646	1226359	DISTRACT_END	n/a	n/a	n/a	-999	6	[0, 0, 0]	n/a	FR1	3	R1350D
1226.011	1.671	1227005	RETRIEVAL_ORIENT_START	n/a	n/a	n/a	-999	6	[0, 0, 0]	n/a	FR1	3	R1350D
1227.682	0.001	1228676	RETRIEVAL_ORIENT_END	n/a	n/a	n/a	-999	6	[0, 0, 0]	n/a	FR1	3	R1350D
1227.683	3.801	1228677	REC_START	n/a	n/a	n/a	-999	6	[0, 0, 0]	n/a	FR1	3	R1350D
1231.484	0.812	1232478	REC_WORD_VV	0.812	n/a	<>	-999	6	[0, 0, 0]	n/a	FR1	3	R1350D
1232.296	4.52	1233289	REC_WORD	4.52	n/a	BROOK	-999	6	[0, 0, 0]	n/a	FR1	3	R1350D
1236.816	20.877	1237809	REC_WORD_VV	20.877	n/a	<>	-999	6	[0, 0, 0]	n/a	FR1	3	R1350D
1257.693	0.0	1258685	REC_END	n/a	n/a	n/a	-999	6	[0, 0, 0]	n/a	FR1	3	R1350D
1257.693	0.016	1258685	TRIAL_END	n/a	n/a	n/a	-999	6	[0, 0, 0]	n/a	FR1	3	R1350D
1257.709	0.0	1258701	TRIAL_START	n/a	n/a	n/a	-999	7	[0, 0, 0]	n/a	FR1	3	R1350D
1257.709	0.001	1258701	TRIAL	n/a	n/a	n/a	-999	7	[0, 0, 0]	n/a	FR1	3	R1350D
1257.71	1.677	1258702	WAITING_START	n/a	n/a	n/a	-999	7	[0, 0, 0]	n/a	FR1	3	R1350D
1259.387	0.001	1260379	WAITING_END	n/a	n/a	n/a	-999	7	[0, 0, 0]	n/a	FR1	3	R1350D
1259.388	10.428	1260380	COUNTDOWN_START	n/a	n/a	n/a	-999	7	[0, 0, 0]	n/a	FR1	3	R1350D
1269.816	0.0	1270808	ORIENT_START	n/a	n/a	n/a	-999	7	[0, 0, 0]	n/a	FR1	3	R1350D
1269.816	1.241	1270808	COUNTDOWN_END	n/a	n/a	n/a	-999	7	[0, 0, 0]	n/a	FR1	3	R1350D
1271.057	0.0	1272048	ORIENT_END	n/a	n/a	n/a	-999	7	[0, 0, 0]	n/a	FR1	3	R1350D
1271.057	0.796	1272048	ENCODING_START	n/a	n/a	n/a	-999	7	[0, 0, 0]	n/a	FR1	3	R1350D
1271.853	1.637	1272844	WORD	n/a	wordpools/wordpool_EN.txt	WEB	1	7	[0, 0, 0]	n/a	FR1	3	R1350D
1273.49	0.876	1274481	WORD_OFF	n/a	n/a	WEB	1	7	[0, 0, 0]	n/a	FR1	3	R1350D
1274.366	1.625	1275357	WORD	n/a	wordpools/wordpool_EN.txt	GUARD	2	7	[0, 0, 0]	n/a	FR1	3	R1350D
1275.991	0.957	1276982	WORD_OFF	n/a	n/a	GUARD	2	7	[0, 0, 0]	n/a	FR1	3	R1350D
1276.948	1.627	1277939	WORD	n/a	wordpools/wordpool_EN.txt	HAT	3	7	[0, 0, 0]	n/a	FR1	3	R1350D
1278.575	0.897	1279566	WORD_OFF	n/a	n/a	HAT	3	7	[0, 0, 0]	n/a	FR1	3	R1350D
1279.472	1.637	1280463	WORD	n/a	wordpools/wordpool_EN.txt	BRIDGE	4	7	[0, 0, 0]	n/a	FR1	3	R1350D
1281.109	1.035	1282100	WORD_OFF	n/a	n/a	BRIDGE	4	7	[0, 0, 0]	n/a	FR1	3	R1350D
1282.144	1.632	1283135	WORD	n/a	wordpools/wordpool_EN.txt	SPEAR	5	7	[0, 0, 0]	n/a	FR1	3	R1350D
1283.776	0.958	1284767	WORD_OFF	n/a	n/a	SPEAR	5	7	[0, 0, 0]	n/a	FR1	3	R1350D
1284.734	1.626	1285725	WORD	n/a	wordpools/wordpool_EN.txt	BLOOM	6	7	[0, 0, 0]	n/a	FR1	3	R1350D
1286.36	0.931	1287351	WORD_OFF	n/a	n/a	BLOOM	6	7	[0, 0, 0]	n/a	FR1	3	R1350D
1287.291	1.636	1288282	WORD	n/a	wordpools/wordpool_EN.txt	FUDGE	7	7	[0, 0, 0]	n/a	FR1	3	R1350D
1288.927	0.842	1289918	WORD_OFF	n/a	n/a	FUDGE	7	7	[0, 0, 0]	n/a	FR1	3	R1350D
1289.769	1.624	1290760	WORD	n/a	wordpools/wordpool_EN.txt	SHEET	8	7	[0, 0, 0]	n/a	FR1	3	R1350D
1291.393	0.894	1292383	WORD_OFF	n/a	n/a	SHEET	8	7	[0, 0, 0]	n/a	FR1	3	R1350D
1292.287	1.624	1293277	WORD	n/a	wordpools/wordpool_EN.txt	STRING	9	7	[0, 0, 0]	n/a	FR1	3	R1350D
1293.911	1.001	1294901	WORD_OFF	n/a	n/a	STRING	9	7	[0, 0, 0]	n/a	FR1	3	R1350D
1294.912	1.632	1295902	WORD	n/a	wordpools/wordpool_EN.txt	VASE	10	7	[0, 0, 0]	n/a	FR1	3	R1350D
1296.544	0.846	1297534	WORD_OFF	n/a	n/a	VASE	10	7	[0, 0, 0]	n/a	FR1	3	R1350D
1297.39	1.639	1298380	WORD	n/a	wordpools/wordpool_EN.txt	SLUSH	11	7	[0, 0, 0]	n/a	FR1	3	R1350D
1299.029	0.977	1300019	WORD_OFF	n/a	n/a	SLUSH	11	7	[0, 0, 0]	n/a	FR1	3	R1350D
1300.006	1.623	1300996	WORD	n/a	wordpools/wordpool_EN.txt	MOLE	12	7	[0, 0, 0]	n/a	FR1	3	R1350D
1301.629	0.001	1302619	WORD_OFF	n/a	n/a	MOLE	12	7	[0, 0, 0]	n/a	FR1	3	R1350D
1301.63	0.0	1302620	ENCODING_END	n/a	n/a	n/a	-999	7	[0, 0, 0]	n/a	FR1	3	R1350D
1301.63	0.0	1302620	DISTRACT_START	n/a	n/a	n/a	-999	7	[0, 0, 0]	n/a	FR1	3	R1350D
1301.63	0.016	1302620	START	n/a	n/a	n/a	-999	7	[-999, -999, -999]	n/a	FR1	3	R1350D
1301.646	3.5	1302636	PROB	3.5	n/a	n/a	-999	7	[4, 4, 4]	12	FR1	3	R1350D
1305.146	3.134	1306136	PROB	3.134	n/a	n/a	-999	7	[4, 5, 7]	16	FR1	3	R1350D
1308.28	2.717	1309270	PROB	2.717	n/a	n/a	-999	7	[1, 1, 4]	6	FR1	3	R1350D
1310.997	3.301	1311986	PROB	3.301	n/a	n/a	-999	7	[7, 9, 3]	19	FR1	3	R1350D
1314.298	3.034	1315287	PROB	3.034	n/a	n/a	-999	7	[6, 9, 2]	17	FR1	3	R1350D
1317.332	2.95	1318321	PROB	2.95	n/a	n/a	-999	7	[3, 7, 4]	14	FR1	3	R1350D
1320.282	3.623	1321271	PROB	3.623	n/a	n/a	-999	7	[2, 5, 7]	14	FR1	3	R1350D
1323.905	0.011	1324894	STOP	n/a	n/a	n/a	-999	7	[-999, -999, -999]	n/a	FR1	3	R1350D
1323.916	0.54	1324905	DISTRACT_END	n/a	n/a	n/a	-999	7	[0, 0, 0]	n/a	FR1	3	R1350D
1324.456	1.661	1325445	RETRIEVAL_ORIENT_START	n/a	n/a	n/a	-999	7	[0, 0, 0]	n/a	FR1	3	R1350D
1326.117	0.0	1327106	RETRIEVAL_ORIENT_END	n/a	n/a	n/a	-999	7	[0, 0, 0]	n/a	FR1	3	R1350D
1326.117	2.629	1327106	REC_START	n/a	n/a	n/a	-999	7	[0, 0, 0]	n/a	FR1	3	R1350D
1328.746	1.0	1329735	REC_WORD_VV	1.0	n/a	<>	-999	7	[0, 0, 0]	n/a	FR1	3	R1350D
1329.746	0.548	1330734	REC_WORD_VV	0.548	n/a	<>	-999	7	[0, 0, 0]	n/a	FR1	3	R1350D
1330.294	25.835	1331282	REC_WORD	25.835	n/a	SLUSH	11	7	[0, 0, 0]	n/a	FR1	3	R1350D
1356.129	0.0	1357116	TRIAL_END	n/a	n/a	n/a	-999	7	[0, 0, 0]	n/a	FR1	3	R1350D
1356.129	0.017	1357116	REC_END	n/a	n/a	n/a	-999	7	[0, 0, 0]	n/a	FR1	3	R1350D
1356.146	0.0	1357133	TRIAL_START	n/a	n/a	n/a	-999	8	[0, 0, 0]	n/a	FR1	3	R1350D
1356.146	0.001	1357133	TRIAL	n/a	n/a	n/a	-999	8	[0, 0, 0]	n/a	FR1	3	R1350D
1356.147	1.026	1357134	WAITING_START	n/a	n/a	n/a	-999	8	[0, 0, 0]	n/a	FR1	3	R1350D
1357.173	0.0	1358160	WAITING_END	n/a	n/a	n/a	-999	8	[0, 0, 0]	n/a	FR1	3	R1350D
1357.173	10.429	1358160	COUNTDOWN_START	n/a	n/a	n/a	-999	8	[0, 0, 0]	n/a	FR1	3	R1350D
1367.602	0.0	1368589	COUNTDOWN_END	n/a	n/a	n/a	-999	8	[0, 0, 0]	n/a	FR1	3	R1350D
1367.602	1.223	1368589	ORIENT_START	n/a	n/a	n/a	-999	8	[0, 0, 0]	n/a	FR1	3	R1350D
1368.825	0.0	1369811	ENCODING_START	n/a	n/a	n/a	-999	8	[0, 0, 0]	n/a	FR1	3	R1350D
1368.825	1.033	1369811	ORIENT_END	n/a	n/a	n/a	-999	8	[0, 0, 0]	n/a	FR1	3	R1350D
1369.858	1.633	1370844	WORD	n/a	wordpools/wordpool_EN.txt	RICE	1	8	[0, 0, 0]	n/a	FR1	3	R1350D
1371.491	0.831	1372477	WORD_OFF	n/a	n/a	RICE	1	8	[0, 0, 0]	n/a	FR1	3	R1350D
1372.322	1.637	1373308	WORD	n/a	wordpools/wordpool_EN.txt	ARK	2	8	[0, 0, 0]	n/a	FR1	3	R1350D
1373.959	0.764	1374945	WORD_OFF	n/a	n/a	ARK	2	8	[0, 0, 0]	n/a	FR1	3	R1350D
1374.723	1.636	1375709	WORD	n/a	wordpools/wordpool_EN.txt	CHALK	3	8	[0, 0, 0]	n/a	FR1	3	R1350D
1376.359	0.96	1377345	WORD_OFF	n/a	n/a	CHALK	3	8	[0, 0, 0]	n/a	FR1	3	R1350D
1377.319	1.624	1378305	WORD	n/a	wordpools/wordpool_EN.txt	STICK	4	8	[0, 0, 0]	n/a	FR1	3	R1350D
1378.943	0.908	1379929	WORD_OFF	n/a	n/a	STICK	4	8	[0, 0, 0]	n/a	FR1	3	R1350D
1379.851	1.625	1380837	WORD	n/a	wordpools/wordpool_EN.txt	CAGE	5	8	[0, 0, 0]	n/a	FR1	3	R1350D
1381.476	0.799	1382462	WORD_OFF	n/a	n/a	CAGE	5	8	[0, 0, 0]	n/a	FR1	3	R1350D
1382.275	1.636	1383261	WORD	n/a	wordpools/wordpool_EN.txt	DRUM	6	8	[0, 0, 0]	n/a	FR1	3	R1350D
1383.911	1.113	1384897	WORD_OFF	n/a	n/a	DRUM	6	8	[0, 0, 0]	n/a	FR1	3	R1350D
1385.024	1.637	1386010	WORD	n/a	wordpools/wordpool_EN.txt	CART	7	8	[0, 0, 0]	n/a	FR1	3	R1350D
1386.661	0.997	1387647	WORD_OFF	n/a	n/a	CART	7	8	[0, 0, 0]	n/a	FR1	3	R1350D
1387.658	1.637	1388643	WORD	n/a	wordpools/wordpool_EN.txt	STEM	8	8	[0, 0, 0]	n/a	FR1	3	R1350D
1389.295	0.768	1390280	WORD_OFF	n/a	n/a	STEM	8	8	[0, 0, 0]	n/a	FR1	3	R1350D
1390.063	1.633	1391048	WORD	n/a	wordpools/wordpool_EN.txt	ROCK	9	8	[0, 0, 0]	n/a	FR1	3	R1350D
1391.696	1.03	1392681	WORD_OFF	n/a	n/a	ROCK	9	8	[0, 0, 0]	n/a	FR1	3	R1350D
1392.726	1.637	1393711	WORD	n/a	wordpools/wordpool_EN.txt	WORM	10	8	[0, 0, 0]	n/a	FR1	3	R1350D
1394.363	0.982	1395348	WORD_OFF	n/a	n/a	WORM	10	8	[0, 0, 0]	n/a	FR1	3	R1350D
1395.345	1.635	1396330	WORD	n/a	wordpools/wordpool_EN.txt	CORD	11	8	[0, 0, 0]	n/a	FR1	3	R1350D
1396.98	1.125	1397965	WORD_OFF	n/a	n/a	CORD	11	8	[0, 0, 0]	n/a	FR1	3	R1350D
1398.105	1.625	1399090	WORD	n/a	wordpools/wordpool_EN.txt	SPOON	12	8	[0, 0, 0]	n/a	FR1	3	R1350D
1399.73	0.001	1400715	WORD_OFF	n/a	n/a	SPOON	12	8	[0, 0, 0]	n/a	FR1	3	R1350D
1399.731	0.0	1400716	ENCODING_END	n/a	n/a	n/a	-999	8	[0, 0, 0]	n/a	FR1	3	R1350D
1399.731	0.0	1400716	DISTRACT_START	n/a	n/a	n/a	-999	8	[0, 0, 0]	n/a	FR1	3	R1350D
1399.731	0.016	1400716	START	n/a	n/a	n/a	-999	8	[-999, -999, -999]	n/a	FR1	3	R1350D
1399.747	5.101	1400732	PROB	5.101	n/a	n/a	-999	8	[6, 7, 1]	14	FR1	3	R1350D
1404.848	3.984	1405833	PROB	3.984	n/a	n/a	-999	8	[4, 4, 6]	14	FR1	3	R1350D
1408.832	2.834	1409816	PROB	2.834	n/a	n/a	-999	8	[8, 1, 3]	12	FR1	3	R1350D
1411.666	4.2	1412650	PROB	4.2	n/a	n/a	-999	8	[5, 1, 3]	9	FR1	3	R1350D
1415.866	4.094	1416850	PROB	4.094	n/a	n/a	-999	8	[9, 7, 2]	18	FR1	3	R1350D
1419.96	0.007	1420944	STOP	n/a	n/a	n/a	-999	8	[-999, -999, -999]	n/a	FR1	3	R1350D
1419.967	0.509	1420951	DISTRACT_END	n/a	n/a	n/a	-999	8	[0, 0, 0]	n/a	FR1	3	R1350D
1420.476	1.575	1421460	RETRIEVAL_ORIENT_START	n/a	n/a	n/a	-999	8	[0, 0, 0]	n/a	FR1	3	R1350D
1422.051	0.0	1423035	RETRIEVAL_ORIENT_END	n/a	n/a	n/a	-999	8	[0, 0, 0]	n/a	FR1	3	R1350D
1422.051	1.425	1423035	REC_START	n/a	n/a	n/a	-999	8	[0, 0, 0]	n/a	FR1	3	R1350D
1423.476	1.248	1424460	REC_WORD	1.248	n/a	CAGE	5	8	[0, 0, 0]	n/a	FR1	3	R1350D
1424.724	1.656	1425708	REC_WORD	1.656	n/a	DRUM	6	8	[0, 0, 0]	n/a	FR1	3	R1350D
1426.38	2.135	1427363	REC_WORD	2.135	n/a	CART	7	8	[0, 0, 0]	n/a	FR1	3	R1350D
1428.515	23.549	1429498	REC_WORD	23.549	n/a	CORD	11	8	[0, 0, 0]	n/a	FR1	3	R1350D
1452.064	0.0	1453046	REC_END	n/a	n/a	n/a	-999	8	[0, 0, 0]	n/a	FR1	3	R1350D
1452.064	0.017	1453046	TRIAL_END	n/a	n/a	n/a	-999	8	[0, 0, 0]	n/a	FR1	3	R1350D
1452.081	0.0	1453063	TRIAL_START	n/a	n/a	n/a	-999	9	[0, 0, 0]	n/a	FR1	3	R1350D
1452.081	0.0	1453063	TRIAL	n/a	n/a	n/a	-999	9	[0, 0, 0]	n/a	FR1	3	R1350D
1452.081	1.626	1453063	WAITING_START	n/a	n/a	n/a	-999	9	[0, 0, 0]	n/a	FR1	3	R1350D
1453.707	0.0	1454689	WAITING_END	n/a	n/a	n/a	-999	9	[0, 0, 0]	n/a	FR1	3	R1350D
1453.707	10.43	1454689	COUNTDOWN_START	n/a	n/a	n/a	-999	9	[0, 0, 0]	n/a	FR1	3	R1350D
1464.137	0.001	1465119	COUNTDOWN_END	n/a	n/a	n/a	-999	9	[0, 0, 0]	n/a	FR1	3	R1350D
1464.138	1.121	1465120	ORIENT_START	n/a	n/a	n/a	-999	9	[0, 0, 0]	n/a	FR1	3	R1350D
1465.259	0.0	1466240	ENCODING_START	n/a	n/a	n/a	-999	9	[0, 0, 0]	n/a	FR1	3	R1350D
1465.259	1.048	1466240	ORIENT_END	n/a	n/a	n/a	-999	9	[0, 0, 0]	n/a	FR1	3	R1350D
1466.307	1.636	1467288	WORD	n/a	wordpools/wordpool_EN.txt	VAN	1	9	[0, 0, 0]	n/a	FR1	3	R1350D
1467.943	1.038	1468924	WORD_OFF	n/a	n/a	VAN	1	9	[0, 0, 0]	n/a	FR1	3	R1350D
1468.981	1.629	1469962	WORD	n/a	wordpools/wordpool_EN.txt	WALL	2	9	[0, 0, 0]	n/a	FR1	3	R1350D
1470.61	1.125	1471591	WORD_OFF	n/a	n/a	WALL	2	9	[0, 0, 0]	n/a	FR1	3	R1350D
1471.735	1.625	1472716	WORD	n/a	wordpools/wordpool_EN.txt	PEA	3	9	[0, 0, 0]	n/a	FR1	3	R1350D
1473.36	0.762	1474341	WORD_OFF	n/a	n/a	PEA	3	9	[0, 0, 0]	n/a	FR1	3	R1350D
1474.122	1.622	1475103	WORD	n/a	wordpools/wordpool_EN.txt	DRESS	4	9	[0, 0, 0]	n/a	FR1	3	R1350D
1475.744	1.082	1476725	WORD_OFF	n/a	n/a	DRESS	4	9	[0, 0, 0]	n/a	FR1	3	R1350D
1476.826	1.634	1477807	WORD	n/a	wordpools/wordpool_EN.txt	STONE	5	9	[0, 0, 0]	n/a	FR1	3	R1350D
1478.46	1.038	1479441	WORD_OFF	n/a	n/a	STONE	5	9	[0, 0, 0]	n/a	FR1	3	R1350D
1479.498	1.614	1480479	WORD	n/a	wordpools/wordpool_EN.txt	MULE	6	9	[0, 0, 0]	n/a	FR1	3	R1350D
1481.112	0.953	1482093	WORD_OFF	n/a	n/a	MULE	6	9	[0, 0, 0]	n/a	FR1	3	R1350D
1482.065	1.631	1483046	WORD	n/a	wordpools/wordpool_EN.txt	INK	7	9	[0, 0, 0]	n/a	FR1	3	R1350D
1483.696	1.129	1484677	WORD_OFF	n/a	n/a	INK	7	9	[0, 0, 0]	n/a	FR1	3	R1350D
1484.825	1.637	1485805	WORD	n/a	wordpools/wordpool_EN.txt	DOG	8	9	[0, 0, 0]	n/a	FR1	3	R1350D
1486.462	1.07	1487442	WORD_OFF	n/a	n/a	DOG	8	9	[0, 0, 0]	n/a	FR1	3	R1350D
1487.532	1.614	1488512	WORD	n/a	wordpools/wordpool_EN.txt	BOX	9	9	[0, 0, 0]	n/a	FR1	3	R1350D
1489.146	0.847	1490126	WORD_OFF	n/a	n/a	BOX	9	9	[0, 0, 0]	n/a	FR1	3	R1350D
1489.993	1.637	1490973	WORD	n/a	wordpools/wordpool_EN.txt	CHIEF	10	9	[0, 0, 0]	n/a	FR1	3	R1350D
1491.63	0.799	1492610	WORD_OFF	n/a	n/a	CHIEF	10	9	[0, 0, 0]	n/a	FR1	3	R1350D
1492.429	1.619	1493409	WORD	n/a	wordpools/wordpool_EN.txt	SHRIMP	11	9	[0, 0, 0]	n/a	FR1	3	R1350D
1494.048	0.845	1495028	WORD_OFF	n/a	n/a	SHRIMP	11	9	[0, 0, 0]	n/a	FR1	3	R1350D
1494.893	1.637	1495873	WORD	n/a	wordpools/wordpool_EN.txt	WEED	12	9	[0, 0, 0]	n/a	FR1	3	R1350D
1496.53	0.001	1497510	WORD_OFF	n/a	n/a	WEED	12	9	[0, 0, 0]	n/a	FR1	3	R1350D
1496.531	0.0	1497511	ENCODING_END	n/a	n/a	n/a	-999	9	[0, 0, 0]	n/a	FR1	3	R1350D
1496.531	0.0	1497511	DISTRACT_START	n/a	n/a	n/a	-999	9	[0, 0, 0]	n/a	FR1	3	R1350D
1496.531	0.016	1497511	START	n/a	n/a	n/a	-999	9	[-999, -999, -999]	n/a	FR1	3	R1350D
1496.547	6.585	1497527	PROB	6.585	n/a	n/a	-999	9	[4, 3, 5]	12	FR1	3	R1350D
1503.132	2.651	1504112	PROB	2.651	n/a	n/a	-999	9	[2, 9, 1]	12	FR1	3	R1350D
1505.783	2.367	1506762	PROB	2.367	n/a	n/a	-999	9	[7, 1, 1]	9	FR1	3	R1350D
1508.15	3.383	1509129	PROB	3.383	n/a	n/a	-999	9	[6, 1, 3]	10	FR1	3	R1350D
1511.533	4.085	1512512	PROB	4.085	n/a	n/a	-999	9	[3, 2, 9]	14	FR1	3	R1350D
1515.618	2.38	1516597	PROB	2.38	n/a	n/a	-999	9	[5, 1, 2]	8	FR1	3	R1350D
1517.998	0.021	1518977	STOP	n/a	n/a	n/a	-999	9	[-999, -999, -999]	n/a	FR1	3	R1350D
1518.019	0.534	1518998	DISTRACT_END	n/a	n/a	n/a	-999	9	[0, 0, 0]	n/a	FR1	3	R1350D
1518.553	1.649	1519532	RETRIEVAL_ORIENT_START	n/a	n/a	n/a	-999	9	[0, 0, 0]	n/a	FR1	3	R1350D
1520.202	0.0	1521181	RETRIEVAL_ORIENT_END	n/a	n/a	n/a	-999	9	[0, 0, 0]	n/a	FR1	3	R1350D
1520.202	1.619	1521181	REC_START	n/a	n/a	n/a	-999	9	[0, 0, 0]	n/a	FR1	3	R1350D
1521.821	2.303	1522800	REC_WORD	2.303	n/a	VAN	1	9	[0, 0, 0]	n/a	FR1	3	R1350D
1524.124	1.76	1525102	REC_WORD	1.76	n/a	WALL	2	9	[0, 0, 0]	n/a	FR1	3	R1350D
1525.884	24.329	1526862	REC_WORD	24.329	n/a	SHRIMP	11	9	[0, 0, 0]	n/a	FR1	3	R1350D
1550.213	0.0	1551190	REC_END	n/a	n/a	n/a	-999	9	[0, 0, 0]	n/a	FR1	3	R1350D
1550.213	0.014	1551190	TRIAL_END	n/a	n/a	n/a	-999	9	[0, 0, 0]	n/a	FR1	3	R1350D
1550.227	0.001	1551204	TRIAL_START	n/a	n/a	n/a	-999	10	[0, 0, 0]	n/a	FR1	3	R1350D
1550.228	0.0	1551205	TRIAL	n/a	n/a	n/a	-999	10	[0, 0, 0]	n/a	FR1	3	R1350D
1550.228	2.847	1551205	WAITING_START	n/a	n/a	n/a	-999	10	[0, 0, 0]	n/a	FR1	3	R1350D
1553.075	0.001	1554052	WAITING_END	n/a	n/a	n/a	-999	10	[0, 0, 0]	n/a	FR1	3	R1350D
1553.076	10.429	1554053	COUNTDOWN_START	n/a	n/a	n/a	-999	10	[0, 0, 0]	n/a	FR1	3	R1350D
1563.505	0.001	1564481	COUNTDOWN_END	n/a	n/a	n/a	-999	10	[0, 0, 0]	n/a	FR1	3	R1350D
1563.506	1.221	1564482	ORIENT_START	n/a	n/a	n/a	-999	10	[0, 0, 0]	n/a	FR1	3	R1350D
1564.727	0.001	1565703	ORIENT_END	n/a	n/a	n/a	-999	10	[0, 0, 0]	n/a	FR1	3	R1350D
1564.728	0.897	1565704	ENCODING_START	n/a	n/a	n/a	-999	10	[0, 0, 0]	n/a	FR1	3	R1350D
1565.625	1.636	1566601	WORD	n/a	wordpools/wordpool_EN.txt	BOY	1	10	[0, 0, 0]	n/a	FR1	3	R1350D
1567.261	0.868	1568237	WORD_OFF	n/a	n/a	BOY	1	10	[0, 0, 0]	n/a	FR1	3	R1350D
1568.129	1.632	1569105	WORD	n/a	wordpools/wordpool_EN.txt	FOOD	2	10	[0, 0, 0]	n/a	FR1	3	R1350D
1569.761	0.875	1570737	WORD_OFF	n/a	n/a	FOOD	2	10	[0, 0, 0]	n/a	FR1	3	R1350D
1570.636	1.626	1571612	WORD	n/a	wordpools/wordpool_EN.txt	SPARK	3	10	[0, 0, 0]	n/a	FR1	3	R1350D
1572.262	0.806	1573238	WORD_OFF	n/a	n/a	SPARK	3	10	[0, 0, 0]	n/a	FR1	3	R1350D
1573.068	1.628	1574044	WORD	n/a	wordpools/wordpool_EN.txt	SNAKE	4	10	[0, 0, 0]	n/a	FR1	3	R1350D
1574.696	0.764	1575672	WORD_OFF	n/a	n/a	SNAKE	4	10	[0, 0, 0]	n/a	FR1	3	R1350D
1575.46	1.636	1576436	WORD	n/a	wordpools/wordpool_EN.txt	EGG	5	10	[0, 0, 0]	n/a	FR1	3	R1350D
1577.096	0.849	1578072	WORD_OFF	n/a	n/a	EGG	5	10	[0, 0, 0]	n/a	FR1	3	R1350D
1577.945	1.635	1578921	WORD	n/a	wordpools/wordpool_EN.txt	NAIL	6	10	[0, 0, 0]	n/a	FR1	3	R1350D
1579.58	0.951	1580556	WORD_OFF	n/a	n/a	NAIL	6	10	[0, 0, 0]	n/a	FR1	3	R1350D
1580.531	1.616	1581507	WORD	n/a	wordpools/wordpool_EN.txt	GRAPE	7	10	[0, 0, 0]	n/a	FR1	3	R1350D
1582.147	0.937	1583122	WORD_OFF	n/a	n/a	GRAPE	7	10	[0, 0, 0]	n/a	FR1	3	R1350D
1583.084	1.63	1584059	WORD	n/a	wordpools/wordpool_EN.txt	VINE	8	10	[0, 0, 0]	n/a	FR1	3	R1350D
1584.714	0.968	1585689	WORD_OFF	n/a	n/a	VINE	8	10	[0, 0, 0]	n/a	FR1	3	R1350D
1585.682	1.633	1586657	WORD	n/a	wordpools/wordpool_EN.txt	DUCK	9	10	[0, 0, 0]	n/a	FR1	3	R1350D
1587.315	0.969	1588290	WORD_OFF	n/a	n/a	DUCK	9	10	[0, 0, 0]	n/a	FR1	3	R1350D
1588.284	1.631	1589259	WORD	n/a	wordpools/wordpool_EN.txt	FORK	10	10	[0, 0, 0]	n/a	FR1	3	R1350D
1589.915	0.831	1590890	WORD_OFF	n/a	n/a	FORK	10	10	[0, 0, 0]	n/a	FR1	3	R1350D
1590.746	1.635	1591721	WORD	n/a	wordpools/wordpool_EN.txt	LAKE	11	10	[0, 0, 0]	n/a	FR1	3	R1350D
1592.381	1.082	1593356	WORD_OFF	n/a	n/a	LAKE	11	10	[0, 0, 0]	n/a	FR1	3	R1350D
1593.463	1.62	1594438	WORD	n/a	wordpools/wordpool_EN.txt	SHIRT	12	10	[0, 0, 0]	n/a	FR1	3	R1350D
1595.083	0.0	1596058	WORD_OFF	n/a	n/a	SHIRT	12	10	[0, 0, 0]	n/a	FR1	3	R1350D
1595.083	0.0	1596058	ENCODING_END	n/a	n/a	n/a	-999	10	[0, 0, 0]	n/a	FR1	3	R1350D
1595.083	0.001	1596058	DISTRACT_START	n/a	n/a	n/a	-999	10	[0, 0, 0]	n/a	FR1	3	R1350D
1595.084	0.015	1596059	START	n/a	n/a	n/a	-999	10	[-999, -999, -999]	n/a	FR1	3	R1350D
1595.099	5.151	1596074	PROB	5.151	n/a	n/a	-999	10	[3, 4, 9]	16	FR1	3	R1350D
1600.25	3.101	1601225	PROB	3.101	n/a	n/a	-999	10	[7, 2, 6]	15	FR1	3	R1350D
1603.351	2.867	1604325	PROB	2.867	n/a	n/a	-999	10	[2, 8, 7]	17	FR1	3	R1350D
1606.218	2.85	1607192	PROB	2.85	n/a	n/a	-999	10	[6, 1, 2]	9	FR1	3	R1350D
1609.068	5.718	1610042	PROB	5.718	n/a	n/a	-999	10	[7, 1, 5]	13	FR1	3	R1350D
1614.786	3.061	1615760	PROB	3.061	n/a	n/a	-999	10	[5, 9, 3]	17	FR1	3	R1350D
1617.847	0.006	1618821	STOP	n/a	n/a	n/a	-999	10	[-999, -999, -999]	n/a	FR1	3	R1350D
1617.853	0.506	1618827	DISTRACT_END	n/a	n/a	n/a	-999	10	[0, 0, 0]	n/a	FR1	3	R1350D
1618.359	1.595	1619333	RETRIEVAL_ORIENT_START	n/a	n/a	n/a	-999	10	[0, 0, 0]	n/a	FR1	3	R1350D
1619.954	0.0	1620928	RETRIEVAL_ORIENT_END	n/a	n/a	n/a	-999	10	[0, 0, 0]	n/a	FR1	3	R1350D
1619.954	1.504	1620928	REC_START	n/a	n/a	n/a	-999	10	[0, 0, 0]	n/a	FR1	3	R1350D
1621.458	0.612	1622431	REC_WORD	0.612	n/a	BOY	1	10	[0, 0, 0]	n/a	FR1	3	R1350D
1622.07	3.204	1623043	REC_WORD	3.204	n/a	FOOD	2	10	[0, 0, 0]	n/a	FR1	3	R1350D
1625.274	24.692	1626247	REC_WORD	24.692	n/a	GRAPE	7	10	[0, 0, 0]	n/a	FR1	3	R1350D
1649.966	0.0	1650938	REC_END	n/a	n/a	n/a	-999	10	[0, 0, 0]	n/a	FR1	3	R1350D
1649.966	0.014	1650938	TRIAL_END	n/a	n/a	n/a	-999	10	[0, 0, 0]	n/a	FR1	3	R1350D
1649.98	0.001	1650952	TRIAL_START	n/a	n/a	n/a	-999	11	[0, 0, 0]	n/a	FR1	3	R1350D
1649.981	0.0	1650953	WAITING_START	n/a	n/a	n/a	-999	11	[0, 0, 0]	n/a	FR1	3	R1350D
1649.981	1.329	1650953	TRIAL	n/a	n/a	n/a	-999	11	[0, 0, 0]	n/a	FR1	3	R1350D
1651.31	0.0	1652282	WAITING_END	n/a	n/a	n/a	-999	11	[0, 0, 0]	n/a	FR1	3	R1350D
1651.31	10.429	1652282	COUNTDOWN_START	n/a	n/a	n/a	-999	11	[0, 0, 0]	n/a	FR1	3	R1350D
1661.739	0.0	1662710	COUNTDOWN_END	n/a	n/a	n/a	-999	11	[0, 0, 0]	n/a	FR1	3	R1350D
1661.739	1.239	1662710	ORIENT_START	n/a	n/a	n/a	-999	11	[0, 0, 0]	n/a	FR1	3	R1350D
1662.978	0.001	1663949	ORIENT_END	n/a	n/a	n/a	-999	11	[0, 0, 0]	n/a	FR1	3	R1350D
1662.979	1.029	1663950	ENCODING_START	n/a	n/a	n/a	-999	11	[0, 0, 0]	n/a	FR1	3	R1350D
1664.008	1.638	1664979	WORD	n/a	wordpools/wordpool_EN.txt	MAZE	1	11	[0, 0, 0]	n/a	FR1	3	R1350D
1665.646	0.931	1666617	WORD_OFF	n/a	n/a	MAZE	1	11	[0, 0, 0]	n/a	FR1	3	R1350D
1666.577	1.636	1667548	WORD	n/a	wordpools/wordpool_EN.txt	BRANCH	2	11	[0, 0, 0]	n/a	FR1	3	R1350D
1668.213	0.978	1669184	WORD_OFF	n/a	n/a	BRANCH	2	11	[0, 0, 0]	n/a	FR1	3	R1350D
1669.191	1.622	1670162	WORD	n/a	wordpools/wordpool_EN.txt	STOVE	3	11	[0, 0, 0]	n/a	FR1	3	R1350D
1670.813	0.852	1671784	WORD_OFF	n/a	n/a	STOVE	3	11	[0, 0, 0]	n/a	FR1	3	R1350D
1671.665	1.632	1672636	WORD	n/a	wordpools/wordpool_EN.txt	PLANE	4	11	[0, 0, 0]	n/a	FR1	3	R1350D
1673.297	0.921	1674268	WORD_OFF	n/a	n/a	PLANE	4	11	[0, 0, 0]	n/a	FR1	3	R1350D
1674.218	1.629	1675189	WORD	n/a	wordpools/wordpool_EN.txt	BROOM	5	11	[0, 0, 0]	n/a	FR1	3	R1350D
1675.847	1.083	1676818	WORD_OFF	n/a	n/a	BROOM	5	11	[0, 0, 0]	n/a	FR1	3	R1350D
1676.93	1.635	1677901	WORD	n/a	wordpools/wordpool_EN.txt	TRAY	6	11	[0, 0, 0]	n/a	FR1	3	R1350D
1678.565	0.86	1679536	WORD_OFF	n/a	n/a	TRAY	6	11	[0, 0, 0]	n/a	FR1	3	R1350D
1679.425	1.623	1680395	WORD	n/a	wordpools/wordpool_EN.txt	TRASH	7	11	[0, 0, 0]	n/a	FR1	3	R1350D
1681.048	0.857	1682018	WORD_OFF	n/a	n/a	TRASH	7	11	[0, 0, 0]	n/a	FR1	3	R1350D
1681.905	1.626	1682875	WORD	n/a	wordpools/wordpool_EN.txt	CROWN	8	11	[0, 0, 0]	n/a	FR1	3	R1350D
1683.531	0.833	1684501	WORD_OFF	n/a	n/a	CROWN	8	11	[0, 0, 0]	n/a	FR1	3	R1350D
1684.364	1.635	1685334	WORD	n/a	wordpools/wordpool_EN.txt	AXE	9	11	[0, 0, 0]	n/a	FR1	3	R1350D
1685.999	0.774	1686969	WORD_OFF	n/a	n/a	AXE	9	11	[0, 0, 0]	n/a	FR1	3	R1350D
1686.773	1.626	1687743	WORD	n/a	wordpools/wordpool_EN.txt	CUBE	10	11	[0, 0, 0]	n/a	FR1	3	R1350D
1688.399	0.776	1689369	WORD_OFF	n/a	n/a	CUBE	10	11	[0, 0, 0]	n/a	FR1	3	R1350D
1689.175	1.625	1690145	WORD	n/a	wordpools/wordpool_EN.txt	THUMB	11	11	[0, 0, 0]	n/a	FR1	3	R1350D
1690.8	1.006	1691770	WORD_OFF	n/a	n/a	THUMB	11	11	[0, 0, 0]	n/a	FR1	3	R1350D
1691.806	1.627	1692776	WORD	n/a	wordpools/wordpool_EN.txt	BEAR	12	11	[0, 0, 0]	n/a	FR1	3	R1350D
1693.433	0.0	1694403	WORD_OFF	n/a	n/a	BEAR	12	11	[0, 0, 0]	n/a	FR1	3	R1350D
1693.433	0.0	1694403	ENCODING_END	n/a	n/a	n/a	-999	11	[0, 0, 0]	n/a	FR1	3	R1350D
1693.433	0.001	1694403	DISTRACT_START	n/a	n/a	n/a	-999	11	[0, 0, 0]	n/a	FR1	3	R1350D
1693.434	0.015	1694404	START	n/a	n/a	n/a	-999	11	[-999, -999, -999]	n/a	FR1	3	R1350D
1693.449	4.702	1694419	PROB	4.702	n/a	n/a	-999	11	[8, 1, 2]	11	FR1	3	R1350D
1698.151	3.601	1699121	PROB	3.601	n/a	n/a	-999	11	[3, 6, 9]	18	FR1	3	R1350D
1701.752	3.167	1702721	PROB	3.167	n/a	n/a	-999	11	[1, 4, 9]	14	FR1	3	R1350D
1704.919	4.017	1705888	PROB	4.017	n/a	n/a	-999	11	[4, 6, 5]	15	FR1	3	R1350D
1708.936	3.734	1709905	PROB	3.734	n/a	n/a	-999	11	[9, 3, 5]	17	FR1	3	R1350D
1712.67	3.093	1713639	PROB	3.093	n/a	n/a	-999	11	[5, 2, 1]	8	FR1	3	R1350D
1715.763	0.008	1716732	STOP	n/a	n/a	n/a	-999	11	[-999, -999, -999]	n/a	FR1	3	R1350D
1715.771	0.613	1716740	DISTRACT_END	n/a	n/a	n/a	-999	11	[0, 0, 0]	n/a	FR1	3	R1350D
1716.384	1.671	1717353	RETRIEVAL_ORIENT_START	n/a	n/a	n/a	-999	11	[0, 0, 0]	n/a	FR1	3	R1350D
1718.055	0.0	1719023	REC_START	n/a	n/a	n/a	-999	11	[0, 0, 0]	n/a	FR1	3	R1350D
1718.055	2.058	1719023	RETRIEVAL_ORIENT_END	n/a	n/a	n/a	-999	11	[0, 0, 0]	n/a	FR1	3	R1350D
1720.113	1.668	1721081	REC_WORD	1.668	n/a	MAZE	1	11	[0, 0, 0]	n/a	FR1	3	R1350D
1721.781	2.637	1722749	REC_WORD	2.637	n/a	BRANCH	2	11	[0, 0, 0]	n/a	FR1	3	R1350D
1724.418	8.113	1725386	REC_WORD	8.113	n/a	STOVE	3	11	[0, 0, 0]	n/a	FR1	3	R1350D
1732.531	15.537	1733499	REC_WORD	15.537	n/a	BROOM	5	11	[0, 0, 0]	n/a	FR1	3	R1350D
1748.068	0.0	1749035	REC_END	n/a	n/a	n/a	-999	11	[0, 0, 0]	n/a	FR1	3	R1350D
1748.068	0.014	1749035	TRIAL_END	n/a	n/a	n/a	-999	11	[0, 0, 0]	n/a	FR1	3	R1350D
1748.082	0.0	1749049	TRIAL_START	n/a	n/a	n/a	-999	12	[0, 0, 0]	n/a	FR1	3	R1350D
1748.082	0.001	1749049	TRIAL	n/a	n/a	n/a	-999	12	[0, 0, 0]	n/a	FR1	3	R1350D
1748.083	1.695	1749050	WAITING_START	n/a	n/a	n/a	-999	12	[0, 0, 0]	n/a	FR1	3	R1350D
1749.778	0.0	1750745	WAITING_END	n/a	n/a	n/a	-999	12	[0, 0, 0]	n/a	FR1	3	R1350D
1749.778	10.429	1750745	COUNTDOWN_START	n/a	n/a	n/a	-999	12	[0, 0, 0]	n/a	FR1	3	R1350D
1760.207	0.0	1761173	COUNTDOWN_END	n/a	n/a	n/a	-999	12	[0, 0, 0]	n/a	FR1	3	R1350D
1760.207	1.039	1761173	ORIENT_START	n/a	n/a	n/a	-999	12	[0, 0, 0]	n/a	FR1	3	R1350D
1761.246	0.001	1762212	ORIENT_END	n/a	n/a	n/a	-999	12	[0, 0, 0]	n/a	FR1	3	R1350D
1761.247	1.092	1762213	ENCODING_START	n/a	n/a	n/a	-999	12	[0, 0, 0]	n/a	FR1	3	R1350D
1762.339	1.624	1763305	WORD	n/a	wordpools/wordpool_EN.txt	SOAP	1	12	[0, 0, 0]	n/a	FR1	3	R1350D
1763.963	0.79	1764929	WORD_OFF	n/a	n/a	SOAP	1	12	[0, 0, 0]	n/a	FR1	3	R1350D
1764.753	1.627	1765719	WORD	n/a	wordpools/wordpool_EN.txt	STORM	2	12	[0, 0, 0]	n/a	FR1	3	R1350D
1766.38	1.009	1767346	WORD_OFF	n/a	n/a	STORM	2	12	[0, 0, 0]	n/a	FR1	3	R1350D
1767.389	1.608	1768355	WORD	n/a	wordpools/wordpool_EN.txt	ICE	3	12	[0, 0, 0]	n/a	FR1	3	R1350D
1768.997	1.029	1769963	WORD_OFF	n/a	n/a	ICE	3	12	[0, 0, 0]	n/a	FR1	3	R1350D
1770.026	1.622	1770992	WORD	n/a	wordpools/wordpool_EN.txt	WAND	4	12	[0, 0, 0]	n/a	FR1	3	R1350D
1771.648	1.038	1772614	WORD_OFF	n/a	n/a	WAND	4	12	[0, 0, 0]	n/a	FR1	3	R1350D
1772.686	1.629	1773652	WORD	n/a	wordpools/wordpool_EN.txt	GRASS	5	12	[0, 0, 0]	n/a	FR1	3	R1350D
1774.315	1.145	1775281	WORD_OFF	n/a	n/a	GRASS	5	12	[0, 0, 0]	n/a	FR1	3	R1350D
1775.46	1.606	1776426	WORD	n/a	wordpools/wordpool_EN.txt	FLAME	6	12	[0, 0, 0]	n/a	FR1	3	R1350D
1777.066	1.098	1778031	WORD_OFF	n/a	n/a	FLAME	6	12	[0, 0, 0]	n/a	FR1	3	R1350D
1778.164	1.636	1779129	WORD	n/a	wordpools/wordpool_EN.txt	SWAMP	7	12	[0, 0, 0]	n/a	FR1	3	R1350D
1779.8	0.787	1780765	WORD_OFF	n/a	n/a	SWAMP	7	12	[0, 0, 0]	n/a	FR1	3	R1350D
1780.587	1.63	1781552	WORD	n/a	wordpools/wordpool_EN.txt	PEACH	8	12	[0, 0, 0]	n/a	FR1	3	R1350D
1782.217	0.879	1783182	WORD_OFF	n/a	n/a	PEACH	8	12	[0, 0, 0]	n/a	FR1	3	R1350D
1783.096	1.621	1784061	WORD	n/a	wordpools/wordpool_EN.txt	LAMP	9	12	[0, 0, 0]	n/a	FR1	3	R1350D
1784.717	0.786	1785682	WORD_OFF	n/a	n/a	LAMP	9	12	[0, 0, 0]	n/a	FR1	3	R1350D
1785.503	1.615	1786468	WORD	n/a	wordpools/wordpool_EN.txt	JUDGE	10	12	[0, 0, 0]	n/a	FR1	3	R1350D
1787.118	0.976	1788083	WORD_OFF	n/a	n/a	JUDGE	10	12	[0, 0, 0]	n/a	FR1	3	R1350D
1788.094	1.624	1789059	WORD	n/a	wordpools/wordpool_EN.txt	BATH	11	12	[0, 0, 0]	n/a	FR1	3	R1350D
1789.718	0.86	1790683	WORD_OFF	n/a	n/a	BATH	11	12	[0, 0, 0]	n/a	FR1	3	R1350D
1790.578	1.624	1791543	WORD	n/a	wordpools/wordpool_EN.txt	FARM	12	12	[0, 0, 0]	n/a	FR1	3	R1350D
1792.202	0.0	1793167	WORD_OFF	n/a	n/a	FARM	12	12	[0, 0, 0]	n/a	FR1	3	R1350D
1792.202	0.001	1793167	ENCODING_END	n/a	n/a	n/a	-999	12	[0, 0, 0]	n/a	FR1	3	R1350D
1792.203	0.0	1793168	DISTRACT_START	n/a	n/a	n/a	-999	12	[0, 0, 0]	n/a	FR1	3	R1350D
1792.203	0.015	1793168	START	n/a	n/a	n/a	-999	12	[-999, -999, -999]	n/a	FR1	3	R1350D
1792.218	3.418	1793183	PROB	3.418	n/a	n/a	-999	12	[6, 4, 1]	11	FR1	3	R1350D
1795.636	6.517	1796601	PROB	6.517	n/a	n/a	-999	12	[5, 3, 7]	15	FR1	3	R1350D
1802.153	3.568	1803117	PROB	3.568	n/a	n/a	-999	12	[4, 5, 5]	14	FR1	3	R1350D
1805.721	3.699	1806685	PROB	3.699	n/a	n/a	-999	12	[3, 5, 9]	17	FR1	3	R1350D
1809.42	3.645	1810384	PROB	3.645	n/a	n/a	-999	12	[3, 7, 4]	14	FR1	3	R1350D
1813.065	0.007	1814029	STOP	n/a	n/a	n/a	-999	12	[-999, -999, -999]	n/a	FR1	3	R1350D
1813.072	0.549	1814036	DISTRACT_END	n/a	n/a	n/a	-999	12	[0, 0, 0]	n/a	FR1	3	R1350D
1813.621	1.552	1814585	RETRIEVAL_ORIENT_START	n/a	n/a	n/a	-999	12	[0, 0, 0]	n/a	FR1	3	R1350D
1815.173	0.0	1816137	RETRIEVAL_ORIENT_END	n/a	n/a	n/a	-999	12	[0, 0, 0]	n/a	FR1	3	R1350D
1815.173	1.423	1816137	REC_START	n/a	n/a	n/a	-999	12	[0, 0, 0]	n/a	FR1	3	R1350D
1816.596	1.056	1817559	REC_WORD_VV	1.056	n/a	<>	-999	12	[0, 0, 0]	n/a	FR1	3	R1350D
1817.652	3.411	1818615	REC_WORD	3.411	n/a	PEACH	8	12	[0, 0, 0]	n/a	FR1	3	R1350D
1821.063	1.521	1822026	REC_WORD_VV	1.521	n/a	<>	-999	12	[0, 0, 0]	n/a	FR1	3	R1350D
1822.584	1.862	1823547	REC_WORD	1.862	n/a	STORM	2	12	[0, 0, 0]	n/a	FR1	3	R1350D
1824.446	1.444	1825409	REC_WORD	1.444	n/a	ICE	3	12	[0, 0, 0]	n/a	FR1	3	R1350D
1825.89	3.869	1826853	REC_WORD	3.869	n/a	WAND	4	12	[0, 0, 0]	n/a	FR1	3	R1350D
1829.759	11.766	1830722	REC_WORD_VV	11.766	n/a	<>	-999	12	[0, 0, 0]	n/a	FR1	3	R1350D
1841.525	3.66	1842487	REC_WORD_VV	3.66	n/a	<>	-999	12	[0, 0, 0]	n/a	FR1	3	R1350D
1845.185	0.0	1846147	REC_END	n/a	n/a	n/a	-999	12	[0, 0, 0]	n/a	FR1	3	R1350D
1845.185	0.015	1846147	TRIAL_END	n/a	n/a	n/a	-999	12	[0, 0, 0]	n/a	FR1	3	R1350D
1845.2	0.0	1846162	TRIAL_START	n/a	n/a	n/a	-999	13	[0, 0, 0]	n/a	FR1	3	R1350D
1845.2	0.0	1846162	TRIAL	n/a	n/a	n/a	-999	13	[0, 0, 0]	n/a	FR1	3	R1350D
1845.2	1.028	1846162	WAITING_START	n/a	n/a	n/a	-999	13	[0, 0, 0]	n/a	FR1	3	R1350D
1846.228	0.001	1847190	WAITING_END	n/a	n/a	n/a	-999	13	[0, 0, 0]	n/a	FR1	3	R1350D
1846.229	10.429	1847191	COUNTDOWN_START	n/a	n/a	n/a	-999	13	[0, 0, 0]	n/a	FR1	3	R1350D
1856.658	0.001	1857619	COUNTDOWN_END	n/a	n/a	n/a	-999	13	[0, 0, 0]	n/a	FR1	3	R1350D
1856.659	1.172	1857620	ORIENT_START	n/a	n/a	n/a	-999	13	[0, 0, 0]	n/a	FR1	3	R1350D
1857.831	0.0	1858792	ENCODING_START	n/a	n/a	n/a	-999	13	[0, 0, 0]	n/a	FR1	3	R1350D
1857.831	1.084	1858792	ORIENT_END	n/a	n/a	n/a	-999	13	[0, 0, 0]	n/a	FR1	3	R1350D
1858.915	1.632	1859876	WORD	n/a	wordpools/wordpool_EN.txt	JAR	1	13	[0, 0, 0]	n/a	FR1	3	R1350D
1860.547	0.82	1861508	WORD_OFF	n/a	n/a	JAR	1	13	[0, 0, 0]	n/a	FR1	3	R1350D
1861.367	1.631	1862328	WORD	n/a	wordpools/wordpool_EN.txt	FOOT	2	13	[0, 0, 0]	n/a	FR1	3	R1350D
1862.998	0.876	1863959	WORD_OFF	n/a	n/a	FOOT	2	13	[0, 0, 0]	n/a	FR1	3	R1350D
1863.874	1.624	1864835	WORD	n/a	wordpools/wordpool_EN.txt	BRICK	3	13	[0, 0, 0]	n/a	FR1	3	R1350D
1865.498	1.0	1866459	WORD_OFF	n/a	n/a	BRICK	3	13	[0, 0, 0]	n/a	FR1	3	R1350D
1866.498	1.618	1867459	WORD	n/a	wordpools/wordpool_EN.txt	GLASS	4	13	[0, 0, 0]	n/a	FR1	3	R1350D
1868.116	1.109	1869077	WORD_OFF	n/a	n/a	GLASS	4	13	[0, 0, 0]	n/a	FR1	3	R1350D
1869.225	1.625	1870186	WORD	n/a	wordpools/wordpool_EN.txt	BALL	5	13	[0, 0, 0]	n/a	FR1	3	R1350D
1870.85	0.819	1871811	WORD_OFF	n/a	n/a	BALL	5	13	[0, 0, 0]	n/a	FR1	3	R1350D
1871.669	1.631	1872630	WORD	n/a	wordpools/wordpool_EN.txt	FLOOR	6	13	[0, 0, 0]	n/a	FR1	3	R1350D
1873.3	0.838	1874261	WORD_OFF	n/a	n/a	FLOOR	6	13	[0, 0, 0]	n/a	FR1	3	R1350D
1874.138	1.629	1875098	WORD	n/a	wordpools/wordpool_EN.txt	CAR	7	13	[0, 0, 0]	n/a	FR1	3	R1350D
1875.767	0.83	1876727	WORD_OFF	n/a	n/a	CAR	7	13	[0, 0, 0]	n/a	FR1	3	R1350D
1876.597	1.637	1877557	WORD	n/a	wordpools/wordpool_EN.txt	TEETH	8	13	[0, 0, 0]	n/a	FR1	3	R1350D
1878.234	0.813	1879194	WORD_OFF	n/a	n/a	TEETH	8	13	[0, 0, 0]	n/a	FR1	3	R1350D
1879.047	1.638	1880007	WORD	n/a	wordpools/wordpool_EN.txt	ROOM	9	13	[0, 0, 0]	n/a	FR1	3	R1350D
1880.685	1.088	1881645	WORD_OFF	n/a	n/a	ROOM	9	13	[0, 0, 0]	n/a	FR1	3	R1350D
1881.773	1.628	1882733	WORD	n/a	wordpools/wordpool_EN.txt	PET	10	13	[0, 0, 0]	n/a	FR1	3	R1350D
1883.401	0.914	1884361	WORD_OFF	n/a	n/a	PET	10	13	[0, 0, 0]	n/a	FR1	3	R1350D
1884.315	1.637	1885275	WORD	n/a	wordpools/wordpool_EN.txt	LAMB	11	13	[0, 0, 0]	n/a	FR1	3	R1350D
1885.952	1.008	1886912	WORD_OFF	n/a	n/a	LAMB	11	13	[0, 0, 0]	n/a	FR1	3	R1350D
1886.96	1.626	1887920	WORD	n/a	wordpools/wordpool_EN.txt	CORN	12	13	[0, 0, 0]	n/a	FR1	3	R1350D
1888.586	0.001	1889546	WORD_OFF	n/a	n/a	CORN	12	13	[0, 0, 0]	n/a	FR1	3	R1350D
1888.587	0.0	1889547	ENCODING_END	n/a	n/a	n/a	-999	13	[0, 0, 0]	n/a	FR1	3	R1350D
1888.587	0.0	1889547	DISTRACT_START	n/a	n/a	n/a	-999	13	[0, 0, 0]	n/a	FR1	3	R1350D
1888.587	0.016	1889547	START	n/a	n/a	n/a	-999	13	[-999, -999, -999]	n/a	FR1	3	R1350D
1888.603	6.001	1889563	PROB	6.001	n/a	n/a	-999	13	[3, 2, 8]	13	FR1	3	R1350D
1894.604	2.483	1895563	PROB	2.483	n/a	n/a	-999	13	[7, 2, 2]	11	FR1	3	R1350D
1897.087	3.251	1898046	PROB	3.251	n/a	n/a	-999	13	[3, 6, 6]	15	FR1	3	R1350D
1900.338	3.166	1901297	PROB	3.166	n/a	n/a	-999	13	[2, 8, 6]	16	FR1	3	R1350D
1903.504	4.635	1904463	PROB	4.635	n/a	n/a	-999	13	[2, 7, 5]	14	FR1	3	R1350D
1908.139	4.368	1909098	PROB	4.368	n/a	n/a	-999	13	[9, 9, 5]	23	FR1	3	R1350D
1912.507	0.016	1913465	STOP	n/a	n/a	n/a	-999	13	[-999, -999, -999]	n/a	FR1	3	R1350D
1912.523	0.533	1913481	DISTRACT_END	n/a	n/a	n/a	-999	13	[0, 0, 0]	n/a	FR1	3	R1350D
1913.056	1.702	1914014	RETRIEVAL_ORIENT_START	n/a	n/a	n/a	-999	13	[0, 0, 0]	n/a	FR1	3	R1350D
1914.758	0.0	1915716	RETRIEVAL_ORIENT_END	n/a	n/a	n/a	-999	13	[0, 0, 0]	n/a	FR1	3	R1350D
1914.758	3.104	1915716	REC_START	n/a	n/a	n/a	-999	13	[0, 0, 0]	n/a	FR1	3	R1350D
1917.862	2.034	1918820	REC_WORD_VV	2.034	n/a	<>	-999	13	[0, 0, 0]	n/a	FR1	3	R1350D
1919.896	24.871	1920854	REC_WORD_VV	24.871	n/a	<>	-999	13	[0, 0, 0]	n/a	FR1	3	R1350D
1944.767	0.001	1945724	REC_END	n/a	n/a	n/a	-999	13	[0, 0, 0]	n/a	FR1	3	R1350D
1944.768	0.015	1945725	TRIAL_END	n/a	n/a	n/a	-999	13	[0, 0, 0]	n/a	FR1	3	R1350D
1944.783	0.001	1945740	TRIAL_START	n/a	n/a	n/a	-999	14	[0, 0, 0]	n/a	FR1	3	R1350D
1944.784	0.0	1945741	WAITING_START	n/a	n/a	n/a	-999	14	[0, 0, 0]	n/a	FR1	3	R1350D
1944.784	1.496	1945741	TRIAL	n/a	n/a	n/a	-999	14	[0, 0, 0]	n/a	FR1	3	R1350D
1946.28	0.0	1947237	WAITING_END	n/a	n/a	n/a	-999	14	[0, 0, 0]	n/a	FR1	3	R1350D
1946.28	10.429	1947237	COUNTDOWN_START	n/a	n/a	n/a	-999	14	[0, 0, 0]	n/a	FR1	3	R1350D
1956.709	0.001	1957665	COUNTDOWN_END	n/a	n/a	n/a	-999	14	[0, 0, 0]	n/a	FR1	3	R1350D
1956.71	1.105	1957666	ORIENT_START	n/a	n/a	n/a	-999	14	[0, 0, 0]	n/a	FR1	3	R1350D
1957.815	0.001	1958771	ORIENT_END	n/a	n/a	n/a	-999	14	[0, 0, 0]	n/a	FR1	3	R1350D
1957.816	0.765	1958772	ENCODING_START	n/a	n/a	n/a	-999	14	[0, 0, 0]	n/a	FR1	3	R1350D
1958.581	1.635	1959537	WORD	n/a	wordpools/wordpool_EN.txt	SQUARE	1	14	[0, 0, 0]	n/a	FR1	3	R1350D
1960.216	1.028	1961172	WORD_OFF	n/a	n/a	SQUARE	1	14	[0, 0, 0]	n/a	FR1	3	R1350D
1961.244	1.622	1962200	WORD	n/a	wordpools/wordpool_EN.txt	PIE	2	14	[0, 0, 0]	n/a	FR1	3	R1350D
1962.866	0.881	1963822	WORD_OFF	n/a	n/a	PIE	2	14	[0, 0, 0]	n/a	FR1	3	R1350D
1963.747	1.635	1964703	WORD	n/a	wordpools/wordpool_EN.txt	TAIL	3	14	[0, 0, 0]	n/a	FR1	3	R1350D
1965.382	0.922	1966338	WORD_OFF	n/a	n/a	TAIL	3	14	[0, 0, 0]	n/a	FR1	3	R1350D
1966.304	1.63	1967260	WORD	n/a	wordpools/wordpool_EN.txt	THREAD	4	14	[0, 0, 0]	n/a	FR1	3	R1350D
1967.934	0.864	1968890	WORD_OFF	n/a	n/a	THREAD	4	14	[0, 0, 0]	n/a	FR1	3	R1350D
1968.798	1.635	1969754	WORD	n/a	wordpools/wordpool_EN.txt	SOCK	5	14	[0, 0, 0]	n/a	FR1	3	R1350D
1970.433	1.0	1971389	WORD_OFF	n/a	n/a	SOCK	5	14	[0, 0, 0]	n/a	FR1	3	R1350D
1971.433	1.618	1972388	WORD	n/a	wordpools/wordpool_EN.txt	VEST	6	14	[0, 0, 0]	n/a	FR1	3	R1350D
1973.051	0.774	1974006	WORD_OFF	n/a	n/a	VEST	6	14	[0, 0, 0]	n/a	FR1	3	R1350D
1973.825	1.626	1974780	WORD	n/a	wordpools/wordpool_EN.txt	CLOTH	7	14	[0, 0, 0]	n/a	FR1	3	R1350D
1975.451	1.125	1976406	WORD_OFF	n/a	n/a	CLOTH	7	14	[0, 0, 0]	n/a	FR1	3	R1350D
1976.576	1.627	1977531	WORD	n/a	wordpools/wordpool_EN.txt	SHIP	8	14	[0, 0, 0]	n/a	FR1	3	R1350D
1978.203	1.086	1979158	WORD_OFF	n/a	n/a	SHIP	8	14	[0, 0, 0]	n/a	FR1	3	R1350D
1979.289	1.631	1980244	WORD	n/a	wordpools/wordpool_EN.txt	SOUP	9	14	[0, 0, 0]	n/a	FR1	3	R1350D
1980.92	1.146	1981875	WORD_OFF	n/a	n/a	SOUP	9	14	[0, 0, 0]	n/a	FR1	3	R1350D
1982.066	1.637	1983021	WORD	n/a	wordpools/wordpool_EN.txt	FORT	10	14	[0, 0, 0]	n/a	FR1	3	R1350D
1983.703	1.058	1984658	WORD_OFF	n/a	n/a	FORT	10	14	[0, 0, 0]	n/a	FR1	3	R1350D
1984.761	1.625	1985716	WORD	n/a	wordpools/wordpool_EN.txt	MOUSE	11	14	[0, 0, 0]	n/a	FR1	3	R1350D
1986.386	0.864	1987341	WORD_OFF	n/a	n/a	MOUSE	11	14	[0, 0, 0]	n/a	FR1	3	R1350D
1987.25	1.638	1988205	WORD	n/a	wordpools/wordpool_EN.txt	FOX	12	14	[0, 0, 0]	n/a	FR1	3	R1350D
1988.888	0.001	1989843	WORD_OFF	n/a	n/a	FOX	12	14	[0, 0, 0]	n/a	FR1	3	R1350D
1988.889	0.0	1989844	ENCODING_END	n/a	n/a	n/a	-999	14	[0, 0, 0]	n/a	FR1	3	R1350D
1988.889	0.0	1989844	DISTRACT_START	n/a	n/a	n/a	-999	14	[0, 0, 0]	n/a	FR1	3	R1350D
1988.889	0.015	1989844	START	n/a	n/a	n/a	-999	14	[-999, -999, -999]	n/a	FR1	3	R1350D
1988.904	4.384	1989859	PROB	4.384	n/a	n/a	-999	14	[8, 6, 3]	17	FR1	3	R1350D
1993.288	2.834	1994242	PROB	2.834	n/a	n/a	-999	14	[9, 1, 8]	18	FR1	3	R1350D
1996.122	3.184	1997076	PROB	3.184	n/a	n/a	-999	14	[3, 7, 4]	14	FR1	3	R1350D
1999.306	2.984	2000260	PROB	2.984	n/a	n/a	-999	14	[6, 3, 3]	12	FR1	3	R1350D
2002.29	3.25	2003244	PROB	3.25	n/a	n/a	-999	14	[9, 2, 7]	19	FR1	3	R1350D
2005.54	2.751	2006494	PROB	2.751	n/a	n/a	-999	14	[5, 4, 2]	11	FR1	3	R1350D
2008.291	3.841	2009245	PROB	3.841	n/a	n/a	-999	14	[3, 9, 7]	19	FR1	3	R1350D
2012.132	0.01	2013085	STOP	n/a	n/a	n/a	-999	14	[-999, -999, -999]	n/a	FR1	3	R1350D
2012.142	0.625	2013095	DISTRACT_END	n/a	n/a	n/a	-999	14	[0, 0, 0]	n/a	FR1	3	R1350D
2012.767	1.691	2013720	RETRIEVAL_ORIENT_START	n/a	n/a	n/a	-999	14	[0, 0, 0]	n/a	FR1	3	R1350D
2014.458	0.001	2015411	RETRIEVAL_ORIENT_END	n/a	n/a	n/a	-999	14	[0, 0, 0]	n/a	FR1	3	R1350D
2014.459	2.56	2015412	REC_START	n/a	n/a	n/a	-999	14	[0, 0, 0]	n/a	FR1	3	R1350D
2017.019	1.0	2017972	REC_WORD_VV	1.0	n/a	<>	-999	14	[0, 0, 0]	n/a	FR1	3	R1350D
2018.019	26.451	2018972	REC_WORD_VV	26.451	n/a	<>	-999	14	[0, 0, 0]	n/a	FR1	3	R1350D
2044.47	0.0	2045422	REC_END	n/a	n/a	n/a	-999	14	[0, 0, 0]	n/a	FR1	3	R1350D
2044.47	0.017	2045422	TRIAL_END	n/a	n/a	n/a	-999	14	[0, 0, 0]	n/a	FR1	3	R1350D
2044.487	0.0	2045439	TRIAL_START	n/a	n/a	n/a	-999	15	[0, 0, 0]	n/a	FR1	3	R1350D
2044.487	0.0	2045439	TRIAL	n/a	n/a	n/a	-999	15	[0, 0, 0]	n/a	FR1	3	R1350D
2044.487	1.761	2045439	WAITING_START	n/a	n/a	n/a	-999	15	[0, 0, 0]	n/a	FR1	3	R1350D
2046.248	0.001	2047200	WAITING_END	n/a	n/a	n/a	-999	15	[0, 0, 0]	n/a	FR1	3	R1350D
2046.249	10.43	2047201	COUNTDOWN_START	n/a	n/a	n/a	-999	15	[0, 0, 0]	n/a	FR1	3	R1350D
2056.679	0.0	2057630	COUNTDOWN_END	n/a	n/a	n/a	-999	15	[0, 0, 0]	n/a	FR1	3	R1350D
2056.679	1.188	2057630	ORIENT_START	n/a	n/a	n/a	-999	15	[0, 0, 0]	n/a	FR1	3	R1350D
2057.867	0.0	2058818	ORIENT_END	n/a	n/a	n/a	-999	15	[0, 0, 0]	n/a	FR1	3	R1350D
2057.867	1.142	2058818	ENCODING_START	n/a	n/a	n/a	-999	15	[0, 0, 0]	n/a	FR1	3	R1350D
2059.009	1.625	2059960	WORD	n/a	wordpools/wordpool_EN.txt	HAND	1	15	[0, 0, 0]	n/a	FR1	3	R1350D
2060.634	0.917	2061585	WORD_OFF	n/a	n/a	HAND	1	15	[0, 0, 0]	n/a	FR1	3	R1350D
2061.551	1.634	2062502	WORD	n/a	wordpools/wordpool_EN.txt	CUP	2	15	[0, 0, 0]	n/a	FR1	3	R1350D
2063.185	0.889	2064136	WORD_OFF	n/a	n/a	CUP	2	15	[0, 0, 0]	n/a	FR1	3	R1350D
2064.074	1.628	2065025	WORD	n/a	wordpools/wordpool_EN.txt	STORE	3	15	[0, 0, 0]	n/a	FR1	3	R1350D
2065.702	1.071	2066653	WORD_OFF	n/a	n/a	STORE	3	15	[0, 0, 0]	n/a	FR1	3	R1350D
2066.773	1.628	2067724	WORD	n/a	wordpools/wordpool_EN.txt	ROAD	4	15	[0, 0, 0]	n/a	FR1	3	R1350D
2068.401	0.912	2069351	WORD_OFF	n/a	n/a	ROAD	4	15	[0, 0, 0]	n/a	FR1	3	R1350D
2069.313	1.623	2070263	WORD	n/a	wordpools/wordpool_EN.txt	EEL	5	15	[0, 0, 0]	n/a	FR1	3	R1350D
2070.936	0.87	2071886	WORD_OFF	n/a	n/a	EEL	5	15	[0, 0, 0]	n/a	FR1	3	R1350D
2071.806	1.63	2072756	WORD	n/a	wordpools/wordpool_EN.txt	ROPE	6	15	[0, 0, 0]	n/a	FR1	3	R1350D
2073.436	0.998	2074386	WORD_OFF	n/a	n/a	ROPE	6	15	[0, 0, 0]	n/a	FR1	3	R1350D
2074.434	1.636	2075384	WORD	n/a	wordpools/wordpool_EN.txt	TANK	7	15	[0, 0, 0]	n/a	FR1	3	R1350D
2076.07	1.086	2077020	WORD_OFF	n/a	n/a	TANK	7	15	[0, 0, 0]	n/a	FR1	3	R1350D
2077.156	1.632	2078106	WORD	n/a	wordpools/wordpool_EN.txt	PARK	8	15	[0, 0, 0]	n/a	FR1	3	R1350D
2078.788	0.896	2079738	WORD_OFF	n/a	n/a	PARK	8	15	[0, 0, 0]	n/a	FR1	3	R1350D
2079.684	1.637	2080634	WORD	n/a	wordpools/wordpool_EN.txt	CAT	9	15	[0, 0, 0]	n/a	FR1	3	R1350D
2081.321	0.915	2082271	WORD_OFF	n/a	n/a	CAT	9	15	[0, 0, 0]	n/a	FR1	3	R1350D
2082.236	1.636	2083186	WORD	n/a	wordpools/wordpool_EN.txt	FUR	10	15	[0, 0, 0]	n/a	FR1	3	R1350D
2083.872	1.115	2084822	WORD_OFF	n/a	n/a	FUR	10	15	[0, 0, 0]	n/a	FR1	3	R1350D
2084.987	1.635	2085937	WORD	n/a	wordpools/wordpool_EN.txt	DESK	11	15	[0, 0, 0]	n/a	FR1	3	R1350D
2086.622	1.03	2087572	WORD_OFF	n/a	n/a	DESK	11	15	[0, 0, 0]	n/a	FR1	3	R1350D
2087.652	1.621	2088601	WORD	n/a	wordpools/wordpool_EN.txt	HOOK	12	15	[0, 0, 0]	n/a	FR1	3	R1350D
2089.273	0.0	2090222	WORD_OFF	n/a	n/a	HOOK	12	15	[0, 0, 0]	n/a	FR1	3	R1350D
2089.273	0.001	2090222	ENCODING_END	n/a	n/a	n/a	-999	15	[0, 0, 0]	n/a	FR1	3	R1350D
2089.274	0.0	2090223	DISTRACT_START	n/a	n/a	n/a	-999	15	[0, 0, 0]	n/a	FR1	3	R1350D
2089.274	0.015	2090223	START	n/a	n/a	n/a	-999	15	[-999, -999, -999]	n/a	FR1	3	R1350D
2089.289	4.301	2090238	PROB	4.301	n/a	n/a	-999	15	[3, 6, 6]	15	FR1	3	R1350D
2093.59	2.75	2094539	PROB	2.75	n/a	n/a	-999	15	[1, 1, 9]	11	FR1	3	R1350D
2096.34	3.885	2097289	PROB	3.885	n/a	n/a	-999	15	[3, 6, 4]	13	FR1	3	R1350D
2100.225	5.35	2101174	PROB	5.35	n/a	n/a	-999	15	[5, 3, 6]	14	FR1	3	R1350D
2105.575	3.434	2106524	PROB	3.434	n/a	n/a	-999	15	[9, 5, 1]	15	FR1	3	R1350D
2109.009	4.688	2109957	PROB	4.688	n/a	n/a	-999	15	[9, 5, 8]	23	FR1	3	R1350D
2113.697	0.014	2114645	STOP	n/a	n/a	n/a	-999	15	[-999, -999, -999]	n/a	FR1	3	R1350D
2113.711	0.58	2114659	DISTRACT_END	n/a	n/a	n/a	-999	15	[0, 0, 0]	n/a	FR1	3	R1350D
2114.291	1.553	2115239	RETRIEVAL_ORIENT_START	n/a	n/a	n/a	-999	15	[0, 0, 0]	n/a	FR1	3	R1350D
2115.844	0.0	2116792	RETRIEVAL_ORIENT_END	n/a	n/a	n/a	-999	15	[0, 0, 0]	n/a	FR1	3	R1350D
2115.844	3.374	2116792	REC_START	n/a	n/a	n/a	-999	15	[0, 0, 0]	n/a	FR1	3	R1350D
2119.218	2.139	2120166	REC_WORD	2.139	n/a	EEL	5	15	[0, 0, 0]	n/a	FR1	3	R1350D
2121.357	2.615	2122305	REC_WORD	2.615	n/a	HAT	-999	15	[0, 0, 0]	n/a	FR1	3	R1350D
2123.972	4.359	2124920	REC_WORD	4.359	n/a	CUP	2	15	[0, 0, 0]	n/a	FR1	3	R1350D
2128.331	1.0	2129278	REC_WORD	1.0	n/a	FUR	10	15	[0, 0, 0]	n/a	FR1	3	R1350D
2129.331	16.523	2130278	REC_WORD_VV	16.523	n/a	<>	-999	15	[0, 0, 0]	n/a	FR1	3	R1350D
2145.854	0.0	2146800	REC_END	n/a	n/a	n/a	-999	15	[0, 0, 0]	n/a	FR1	3	R1350D
2145.854	0.015	2146800	TRIAL_END	n/a	n/a	n/a	-999	15	[0, 0, 0]	n/a	FR1	3	R1350D
2145.869	0.0	2146815	TRIAL_START	n/a	n/a	n/a	-999	16	[0, 0, 0]	n/a	FR1	3	R1350D
2145.869	0.0	2146815	TRIAL	n/a	n/a	n/a	-999	16	[0, 0, 0]	n/a	FR1	3	R1350D
2145.869	1.781	2146815	WAITING_START	n/a	n/a	n/a	-999	16	[0, 0, 0]	n/a	FR1	3	R1350D
2147.65	0.0	2148596	COUNTDOWN_START	n/a	n/a	n/a	-999	16	[0, 0, 0]	n/a	FR1	3	R1350D
2147.65	10.429	2148596	WAITING_END	n/a	n/a	n/a	-999	16	[0, 0, 0]	n/a	FR1	3	R1350D
2158.079	0.0	2159025	COUNTDOWN_END	n/a	n/a	n/a	-999	16	[0, 0, 0]	n/a	FR1	3	R1350D
2158.079	1.19	2159025	ORIENT_START	n/a	n/a	n/a	-999	16	[0, 0, 0]	n/a	FR1	3	R1350D
2159.269	0.0	2160215	ORIENT_END	n/a	n/a	n/a	-999	16	[0, 0, 0]	n/a	FR1	3	R1350D
2159.269	0.929	2160215	ENCODING_START	n/a	n/a	n/a	-999	16	[0, 0, 0]	n/a	FR1	3	R1350D
2160.198	1.621	2161144	WORD	n/a	wordpools/wordpool_EN.txt	PIG	1	16	[0, 0, 0]	n/a	FR1	3	R1350D
2161.819	0.926	2162765	WORD_OFF	n/a	n/a	PIG	1	16	[0, 0, 0]	n/a	FR1	3	R1350D
2162.745	1.624	2163691	WORD	n/a	wordpools/wordpool_EN.txt	CRANE	2	16	[0, 0, 0]	n/a	FR1	3	R1350D
2164.369	0.807	2165315	WORD_OFF	n/a	n/a	CRANE	2	16	[0, 0, 0]	n/a	FR1	3	R1350D
2165.176	1.628	2166122	WORD	n/a	wordpools/wordpool_EN.txt	OWL	3	16	[0, 0, 0]	n/a	FR1	3	R1350D
2166.804	1.044	2167749	WORD_OFF	n/a	n/a	OWL	3	16	[0, 0, 0]	n/a	FR1	3	R1350D
2167.848	1.622	2168793	WORD	n/a	wordpools/wordpool_EN.txt	BOMB	4	16	[0, 0, 0]	n/a	FR1	3	R1350D
2169.47	0.833	2170415	WORD_OFF	n/a	n/a	BOMB	4	16	[0, 0, 0]	n/a	FR1	3	R1350D
2170.303	1.635	2171248	WORD	n/a	wordpools/wordpool_EN.txt	BOOT	5	16	[0, 0, 0]	n/a	FR1	3	R1350D
2171.938	0.82	2172883	WORD_OFF	n/a	n/a	BOOT	5	16	[0, 0, 0]	n/a	FR1	3	R1350D
2172.758	1.629	2173703	WORD	n/a	wordpools/wordpool_EN.txt	FOAM	6	16	[0, 0, 0]	n/a	FR1	3	R1350D
2174.387	1.013	2175332	WORD_OFF	n/a	n/a	FOAM	6	16	[0, 0, 0]	n/a	FR1	3	R1350D
2175.4	1.605	2176345	WORD	n/a	wordpools/wordpool_EN.txt	SCHOOL	7	16	[0, 0, 0]	n/a	FR1	3	R1350D
2177.005	0.958	2177950	WORD_OFF	n/a	n/a	SCHOOL	7	16	[0, 0, 0]	n/a	FR1	3	R1350D
2177.963	1.626	2178908	WORD	n/a	wordpools/wordpool_EN.txt	BOWL	8	16	[0, 0, 0]	n/a	FR1	3	R1350D
2179.589	0.796	2180534	WORD_OFF	n/a	n/a	BOWL	8	16	[0, 0, 0]	n/a	FR1	3	R1350D
2180.385	1.638	2181330	WORD	n/a	wordpools/wordpool_EN.txt	SWORD	9	16	[0, 0, 0]	n/a	FR1	3	R1350D
2182.023	0.947	2182968	WORD_OFF	n/a	n/a	SWORD	9	16	[0, 0, 0]	n/a	FR1	3	R1350D
2182.97	1.637	2183915	WORD	n/a	wordpools/wordpool_EN.txt	LAWN	10	16	[0, 0, 0]	n/a	FR1	3	R1350D
2184.607	0.769	2185552	WORD_OFF	n/a	n/a	LAWN	10	16	[0, 0, 0]	n/a	FR1	3	R1350D
2185.376	1.614	2186320	WORD	n/a	wordpools/wordpool_EN.txt	ELF	11	16	[0, 0, 0]	n/a	FR1	3	R1350D
2186.99	1.106	2187934	WORD_OFF	n/a	n/a	ELF	11	16	[0, 0, 0]	n/a	FR1	3	R1350D
2188.096	1.628	2189040	WORD	n/a	wordpools/wordpool_EN.txt	SEAT	12	16	[0, 0, 0]	n/a	FR1	3	R1350D
2189.724	0.001	2190668	WORD_OFF	n/a	n/a	SEAT	12	16	[0, 0, 0]	n/a	FR1	3	R1350D
2189.725	0.0	2190669	ENCODING_END	n/a	n/a	n/a	-999	16	[0, 0, 0]	n/a	FR1	3	R1350D
2189.725	0.0	2190669	DISTRACT_START	n/a	n/a	n/a	-999	16	[0, 0, 0]	n/a	FR1	3	R1350D
2189.725	0.016	2190669	START	n/a	n/a	n/a	-999	16	[-999, -999, -999]	n/a	FR1	3	R1350D
2189.741	4.101	2190685	PROB	4.101	n/a	n/a	-999	16	[1, 4, 4]	9	FR1	3	R1350D
2193.842	4.034	2194786	PROB	4.034	n/a	n/a	-999	16	[9, 3, 3]	15	FR1	3	R1350D
2197.876	3.549	2198820	PROB	3.549	n/a	n/a	-999	16	[1, 6, 4]	11	FR1	3	R1350D
2201.425	2.218	2202369	PROB	2.218	n/a	n/a	-999	16	[1, 1, 7]	9	FR1	3	R1350D
2203.643	3.234	2204587	PROB	3.234	n/a	n/a	-999	16	[9, 6, 2]	17	FR1	3	R1350D
2206.877	2.817	2207820	PROB	2.817	n/a	n/a	-999	16	[9, 8, 3]	20	FR1	3	R1350D
2209.694	2.46	2210637	PROB	2.46	n/a	n/a	-999	16	[4, 1, 1]	6	FR1	3	R1350D
2212.154	0.008	2213097	STOP	n/a	n/a	n/a	-999	16	[-999, -999, -999]	n/a	FR1	3	R1350D
2212.162	0.564	2213105	DISTRACT_END	n/a	n/a	n/a	-999	16	[0, 0, 0]	n/a	FR1	3	R1350D
2212.726	1.685	2213669	RETRIEVAL_ORIENT_START	n/a	n/a	n/a	-999	16	[0, 0, 0]	n/a	FR1	3	R1350D
2214.411	0.0	2215354	RETRIEVAL_ORIENT_END	n/a	n/a	n/a	-999	16	[0, 0, 0]	n/a	FR1	3	R1350D
2214.411	0.843	2215354	REC_START	n/a	n/a	n/a	-999	16	[0, 0, 0]	n/a	FR1	3	R1350D
2215.254	4.179	2216197	REC_WORD	4.179	n/a	PIG	1	16	[0, 0, 0]	n/a	FR1	3	R1350D
2219.433	5.38	2220376	REC_WORD	5.38	n/a	OWL	3	16	[0, 0, 0]	n/a	FR1	3	R1350D
2224.813	19.611	2225755	REC_WORD_VV	19.611	n/a	<>	-999	16	[0, 0, 0]	n/a	FR1	3	R1350D
2244.424	0.0	2245365	REC_END	n/a	n/a	n/a	-999	16	[0, 0, 0]	n/a	FR1	3	R1350D
2244.424	0.014	2245365	TRIAL_END	n/a	n/a	n/a	-999	16	[0, 0, 0]	n/a	FR1	3	R1350D
2244.438	0.001	2245379	TRIAL_START	n/a	n/a	n/a	-999	17	[0, 0, 0]	n/a	FR1	3	R1350D
2244.439	0.0	2245380	TRIAL	n/a	n/a	n/a	-999	17	[0, 0, 0]	n/a	FR1	3	R1350D
2244.439	1.262	2245380	WAITING_START	n/a	n/a	n/a	-999	17	[0, 0, 0]	n/a	FR1	3	R1350D
2245.701	0.001	2246642	WAITING_END	n/a	n/a	n/a	-999	17	[0, 0, 0]	n/a	FR1	3	R1350D
2245.702	10.428	2246643	COUNTDOWN_START	n/a	n/a	n/a	-999	17	[0, 0, 0]	n/a	FR1	3	R1350D
2256.13	0.001	2257071	COUNTDOWN_END	n/a	n/a	n/a	-999	17	[0, 0, 0]	n/a	FR1	3	R1350D
2256.131	1.139	2257072	ORIENT_START	n/a	n/a	n/a	-999	17	[0, 0, 0]	n/a	FR1	3	R1350D
2257.27	0.0	2258211	ORIENT_END	n/a	n/a	n/a	-999	17	[0, 0, 0]	n/a	FR1	3	R1350D
2257.27	0.809	2258211	ENCODING_START	n/a	n/a	n/a	-999	17	[0, 0, 0]	n/a	FR1	3	R1350D
2258.079	1.625	2259020	WORD	n/a	wordpools/wordpool_EN.txt	CHIN	1	17	[0, 0, 0]	n/a	FR1	3	R1350D
2259.704	0.978	2260645	WORD_OFF	n/a	n/a	CHIN	1	17	[0, 0, 0]	n/a	FR1	3	R1350D
2260.682	1.622	2261623	WORD	n/a	wordpools/wordpool_EN.txt	ROSE	2	17	[0, 0, 0]	n/a	FR1	3	R1350D
2262.304	1.02	2263245	WORD_OFF	n/a	n/a	ROSE	2	17	[0, 0, 0]	n/a	FR1	3	R1350D
2263.324	1.631	2264264	WORD	n/a	wordpools/wordpool_EN.txt	PEAR	3	17	[0, 0, 0]	n/a	FR1	3	R1350D
2264.955	0.915	2265895	WORD_OFF	n/a	n/a	PEAR	3	17	[0, 0, 0]	n/a	FR1	3	R1350D
2265.87	1.634	2266810	WORD	n/a	wordpools/wordpool_EN.txt	TOAD	4	17	[0, 0, 0]	n/a	FR1	3	R1350D
2267.504	0.848	2268444	WORD_OFF	n/a	n/a	TOAD	4	17	[0, 0, 0]	n/a	FR1	3	R1350D
2268.352	1.62	2269292	WORD	n/a	wordpools/wordpool_EN.txt	TOOTH	5	17	[0, 0, 0]	n/a	FR1	3	R1350D
2269.972	1.082	2270912	WORD_OFF	n/a	n/a	TOOTH	5	17	[0, 0, 0]	n/a	FR1	3	R1350D
2271.054	1.635	2271994	WORD	n/a	wordpools/wordpool_EN.txt	PIPE	6	17	[0, 0, 0]	n/a	FR1	3	R1350D
2272.689	1.072	2273629	WORD_OFF	n/a	n/a	PIPE	6	17	[0, 0, 0]	n/a	FR1	3	R1350D
2273.761	1.628	2274701	WORD	n/a	wordpools/wordpool_EN.txt	FAN	7	17	[0, 0, 0]	n/a	FR1	3	R1350D
2275.389	1.14	2276329	WORD_OFF	n/a	n/a	FAN	7	17	[0, 0, 0]	n/a	FR1	3	R1350D
2276.529	1.611	2277469	WORD	n/a	wordpools/wordpool_EN.txt	ROOT	8	17	[0, 0, 0]	n/a	FR1	3	R1350D
2278.14	1.09	2279080	WORD_OFF	n/a	n/a	ROOT	8	17	[0, 0, 0]	n/a	FR1	3	R1350D
2279.23	1.628	2280170	WORD	n/a	wordpools/wordpool_EN.txt	SEAL	9	17	[0, 0, 0]	n/a	FR1	3	R1350D
2280.858	1.042	2281798	WORD_OFF	n/a	n/a	SEAL	9	17	[0, 0, 0]	n/a	FR1	3	R1350D
2281.9	1.624	2282839	WORD	n/a	wordpools/wordpool_EN.txt	MOUTH	10	17	[0, 0, 0]	n/a	FR1	3	R1350D
2283.524	0.763	2284463	WORD_OFF	n/a	n/a	MOUTH	10	17	[0, 0, 0]	n/a	FR1	3	R1350D
2284.287	1.622	2285226	WORD	n/a	wordpools/wordpool_EN.txt	NET	11	17	[0, 0, 0]	n/a	FR1	3	R1350D
2285.909	0.979	2286848	WORD_OFF	n/a	n/a	NET	11	17	[0, 0, 0]	n/a	FR1	3	R1350D
2286.888	1.637	2287827	WORD	n/a	wordpools/wordpool_EN.txt	ROOF	12	17	[0, 0, 0]	n/a	FR1	3	R1350D
2288.525	0.0	2289464	ENCODING_END	n/a	n/a	n/a	-999	17	[0, 0, 0]	n/a	FR1	3	R1350D
2288.525	0.001	2289464	WORD_OFF	n/a	n/a	ROOF	12	17	[0, 0, 0]	n/a	FR1	3	R1350D
2288.526	0.0	2289465	DISTRACT_START	n/a	n/a	n/a	-999	17	[0, 0, 0]	n/a	FR1	3	R1350D
2288.526	0.015	2289465	START	n/a	n/a	n/a	-999	17	[-999, -999, -999]	n/a	FR1	3	R1350D
2288.541	5.085	2289480	PROB	5.085	n/a	n/a	-999	17	[5, 3, 5]	13	FR1	3	R1350D
2293.626	2.883	2294565	PROB	2.883	n/a	n/a	-999	17	[5, 4, 7]	16	FR1	3	R1350D
2296.509	2.735	2297448	PROB	2.735	n/a	n/a	-999	17	[5, 5, 9]	19	FR1	3	R1350D
2299.244	3.216	2300183	PROB	3.216	n/a	n/a	-999	17	[3, 1, 4]	8	FR1	3	R1350D
2302.46	3.735	2303398	PROB	3.735	n/a	n/a	-999	17	[4, 7, 6]	17	FR1	3	R1350D
2306.195	2.588	2307133	PROB	2.588	n/a	n/a	-999	17	[5, 3, 1]	9	FR1	3	R1350D
2308.783	0.013	2309721	STOP	n/a	n/a	n/a	-999	17	[-999, -999, -999]	n/a	FR1	3	R1350D
2308.796	0.627	2309734	DISTRACT_END	n/a	n/a	n/a	-999	17	[0, 0, 0]	n/a	FR1	3	R1350D
2309.423	1.723	2310361	RETRIEVAL_ORIENT_START	n/a	n/a	n/a	-999	17	[0, 0, 0]	n/a	FR1	3	R1350D
2311.146	0.001	2312084	RETRIEVAL_ORIENT_END	n/a	n/a	n/a	-999	17	[0, 0, 0]	n/a	FR1	3	R1350D
2311.147	2.772	2312085	REC_START	n/a	n/a	n/a	-999	17	[0, 0, 0]	n/a	FR1	3	R1350D
2313.919	1.178	2314857	REC_WORD	1.178	n/a	TEETH	-999	17	[0, 0, 0]	n/a	FR1	3	R1350D
2315.097	0.998	2316035	REC_WORD	0.998	n/a	MOUTH	10	17	[0, 0, 0]	n/a	FR1	3	R1350D
2316.095	25.063	2317033	REC_WORD	25.063	n/a	ROOF	12	17	[0, 0, 0]	n/a	FR1	3	R1350D
2341.158	0.0	2342094	TRIAL_END	n/a	n/a	n/a	-999	17	[0, 0, 0]	n/a	FR1	3	R1350D
2341.158	0.014	2342094	REC_END	n/a	n/a	n/a	-999	17	[0, 0, 0]	n/a	FR1	3	R1350D
2341.172	0.001	2342108	TRIAL_START	n/a	n/a	n/a	-999	18	[0, 0, 0]	n/a	FR1	3	R1350D
2341.173	0.0	2342109	TRIAL	n/a	n/a	n/a	-999	18	[0, 0, 0]	n/a	FR1	3	R1350D
2341.173	2.362	2342109	WAITING_START	n/a	n/a	n/a	-999	18	[0, 0, 0]	n/a	FR1	3	R1350D
2343.535	0.0	2344471	WAITING_END	n/a	n/a	n/a	-999	18	[0, 0, 0]	n/a	FR1	3	R1350D
2343.535	10.428	2344471	COUNTDOWN_START	n/a	n/a	n/a	-999	18	[0, 0, 0]	n/a	FR1	3	R1350D
2353.963	0.001	2354899	COUNTDOWN_END	n/a	n/a	n/a	-999	18	[0, 0, 0]	n/a	FR1	3	R1350D
2353.964	1.057	2354900	ORIENT_START	n/a	n/a	n/a	-999	18	[0, 0, 0]	n/a	FR1	3	R1350D
2355.021	0.001	2355957	ORIENT_END	n/a	n/a	n/a	-999	18	[0, 0, 0]	n/a	FR1	3	R1350D
2355.022	1.125	2355958	ENCODING_START	n/a	n/a	n/a	-999	18	[0, 0, 0]	n/a	FR1	3	R1350D
2356.147	1.625	2357083	WORD	n/a	wordpools/wordpool_EN.txt	SNOW	1	18	[0, 0, 0]	n/a	FR1	3	R1350D
2357.772	0.879	2358708	WORD_OFF	n/a	n/a	SNOW	1	18	[0, 0, 0]	n/a	FR1	3	R1350D
2358.651	1.621	2359587	WORD	n/a	wordpools/wordpool_EN.txt	LEG	2	18	[0, 0, 0]	n/a	FR1	3	R1350D
2360.272	0.945	2361207	WORD_OFF	n/a	n/a	LEG	2	18	[0, 0, 0]	n/a	FR1	3	R1350D
2361.217	1.622	2362152	WORD	n/a	wordpools/wordpool_EN.txt	FOG	3	18	[0, 0, 0]	n/a	FR1	3	R1350D
2362.839	1.081	2363774	WORD_OFF	n/a	n/a	FOG	3	18	[0, 0, 0]	n/a	FR1	3	R1350D
2363.92	1.636	2364855	WORD	n/a	wordpools/wordpool_EN.txt	GLOVE	4	18	[0, 0, 0]	n/a	FR1	3	R1350D
2365.556	0.946	2366491	WORD_OFF	n/a	n/a	GLOVE	4	18	[0, 0, 0]	n/a	FR1	3	R1350D
2366.502	1.638	2367437	WORD	n/a	wordpools/wordpool_EN.txt	CLOUD	5	18	[0, 0, 0]	n/a	FR1	3	R1350D
2368.14	0.913	2369075	WORD_OFF	n/a	n/a	CLOUD	5	18	[0, 0, 0]	n/a	FR1	3	R1350D
2369.053	1.638	2369988	WORD	n/a	wordpools/wordpool_EN.txt	ANT	6	18	[0, 0, 0]	n/a	FR1	3	R1350D
2370.691	0.814	2371626	WORD_OFF	n/a	n/a	ANT	6	18	[0, 0, 0]	n/a	FR1	3	R1350D
2371.505	1.636	2372440	WORD	n/a	wordpools/wordpool_EN.txt	NOSE	7	18	[0, 0, 0]	n/a	FR1	3	R1350D
2373.141	1.14	2374076	WORD_OFF	n/a	n/a	NOSE	7	18	[0, 0, 0]	n/a	FR1	3	R1350D
2374.281	1.627	2375216	WORD	n/a	wordpools/wordpool_EN.txt	WAVE	8	18	[0, 0, 0]	n/a	FR1	3	R1350D
2375.908	0.9	2376843	WORD_OFF	n/a	n/a	WAVE	8	18	[0, 0, 0]	n/a	FR1	3	R1350D
2376.808	1.633	2377743	WORD	n/a	wordpools/wordpool_EN.txt	MUD	9	18	[0, 0, 0]	n/a	FR1	3	R1350D
2378.441	0.937	2379376	WORD_OFF	n/a	n/a	MUD	9	18	[0, 0, 0]	n/a	FR1	3	R1350D
2379.378	1.631	2380312	WORD	n/a	wordpools/wordpool_EN.txt	POLE	10	18	[0, 0, 0]	n/a	FR1	3	R1350D
2381.009	0.831	2381943	WORD_OFF	n/a	n/a	POLE	10	18	[0, 0, 0]	n/a	FR1	3	R1350D
2381.84	1.635	2382774	WORD	n/a	wordpools/wordpool_EN.txt	HEN	11	18	[0, 0, 0]	n/a	FR1	3	R1350D
2383.475	0.924	2384409	WORD_OFF	n/a	n/a	HEN	11	18	[0, 0, 0]	n/a	FR1	3	R1350D
2384.399	1.628	2385333	WORD	n/a	wordpools/wordpool_EN.txt	EAR	12	18	[0, 0, 0]	n/a	FR1	3	R1350D
2386.027	0.0	2386961	ENCODING_END	n/a	n/a	n/a	-999	18	[0, 0, 0]	n/a	FR1	3	R1350D
2386.027	0.0	2386961	DISTRACT_START	n/a	n/a	n/a	-999	18	[0, 0, 0]	n/a	FR1	3	R1350D
2386.027	0.0	2386961	WORD_OFF	n/a	n/a	EAR	12	18	[0, 0, 0]	n/a	FR1	3	R1350D
2386.027	0.016	2386961	START	n/a	n/a	n/a	-999	18	[-999, -999, -999]	n/a	FR1	3	R1350D
2386.043	3.934	2386977	PROB	3.934	n/a	n/a	-999	18	[6, 6, 4]	18	FR1	3	R1350D
2389.977	2.801	2390911	PROB	2.801	n/a	n/a	-999	18	[1, 6, 2]	9	FR1	3	R1350D
2392.778	6.234	2393712	PROB	6.234	n/a	n/a	-999	18	[6, 9, 8]	22	FR1	3	R1350D
2399.012	4.101	2399945	PROB	4.101	n/a	n/a	-999	18	[7, 1, 7]	15	FR1	3	R1350D
2403.113	3.553	2404046	PROB	3.553	n/a	n/a	-999	18	[2, 7, 4]	13	FR1	3	R1350D
2406.666	0.015	2407599	STOP	n/a	n/a	n/a	-999	18	[-999, -999, -999]	n/a	FR1	3	R1350D
2406.681	0.595	2407614	DISTRACT_END	n/a	n/a	n/a	-999	18	[0, 0, 0]	n/a	FR1	3	R1350D
2407.276	1.655	2408209	RETRIEVAL_ORIENT_START	n/a	n/a	n/a	-999	18	[0, 0, 0]	n/a	FR1	3	R1350D
2408.931	0.001	2409864	RETRIEVAL_ORIENT_END	n/a	n/a	n/a	-999	18	[0, 0, 0]	n/a	FR1	3	R1350D
2408.932	4.496	2409865	REC_START	n/a	n/a	n/a	-999	18	[0, 0, 0]	n/a	FR1	3	R1350D
2413.428	1.88	2414361	REC_WORD	1.88	n/a	WAVE	8	18	[0, 0, 0]	n/a	FR1	3	R1350D
2415.308	1.401	2416241	REC_WORD_VV	1.401	n/a	<>	-999	18	[0, 0, 0]	n/a	FR1	3	R1350D
2416.709	22.234	2417642	REC_WORD_VV	22.234	n/a	<>	-999	18	[0, 0, 0]	n/a	FR1	3	R1350D
2438.943	0.001	2439874	REC_END	n/a	n/a	n/a	-999	18	[0, 0, 0]	n/a	FR1	3	R1350D
2438.944	0.016	2439875	TRIAL_END	n/a	n/a	n/a	-999	18	[0, 0, 0]	n/a	FR1	3	R1350D
2438.96	0.0	2439891	TRIAL_START	n/a	n/a	n/a	-999	19	[0, 0, 0]	n/a	FR1	3	R1350D
2438.96	0.001	2439891	TRIAL	n/a	n/a	n/a	-999	19	[0, 0, 0]	n/a	FR1	3	R1350D
2438.961	1.926	2439892	WAITING_START	n/a	n/a	n/a	-999	19	[0, 0, 0]	n/a	FR1	3	R1350D
2440.887	0.0	2441818	WAITING_END	n/a	n/a	n/a	-999	19	[0, 0, 0]	n/a	FR1	3	R1350D
2440.887	10.428	2441818	COUNTDOWN_START	n/a	n/a	n/a	-999	19	[0, 0, 0]	n/a	FR1	3	R1350D
2451.315	0.0	2452246	COUNTDOWN_END	n/a	n/a	n/a	-999	19	[0, 0, 0]	n/a	FR1	3	R1350D
2451.315	1.024	2452246	ORIENT_START	n/a	n/a	n/a	-999	19	[0, 0, 0]	n/a	FR1	3	R1350D
2452.339	0.0	2453270	ENCODING_START	n/a	n/a	n/a	-999	19	[0, 0, 0]	n/a	FR1	3	R1350D
2452.339	0.986	2453270	ORIENT_END	n/a	n/a	n/a	-999	19	[0, 0, 0]	n/a	FR1	3	R1350D
2453.325	1.631	2454256	WORD	n/a	wordpools/wordpool_EN.txt	FLEA	1	19	[0, 0, 0]	n/a	FR1	3	R1350D
2454.956	0.847	2455887	WORD_OFF	n/a	n/a	FLEA	1	19	[0, 0, 0]	n/a	FR1	3	R1350D
2455.803	1.636	2456734	WORD	n/a	wordpools/wordpool_EN.txt	CAPE	2	19	[0, 0, 0]	n/a	FR1	3	R1350D
2457.439	1.039	2458369	WORD_OFF	n/a	n/a	CAPE	2	19	[0, 0, 0]	n/a	FR1	3	R1350D
2458.478	1.629	2459408	WORD	n/a	wordpools/wordpool_EN.txt	HOUSE	3	19	[0, 0, 0]	n/a	FR1	3	R1350D
2460.107	0.784	2461037	WORD_OFF	n/a	n/a	HOUSE	3	19	[0, 0, 0]	n/a	FR1	3	R1350D
2460.891	1.632	2461821	WORD	n/a	wordpools/wordpool_EN.txt	CROW	4	19	[0, 0, 0]	n/a	FR1	3	R1350D
2462.523	0.835	2463453	WORD_OFF	n/a	n/a	CROW	4	19	[0, 0, 0]	n/a	FR1	3	R1350D
2463.358	1.633	2464288	WORD	n/a	wordpools/wordpool_EN.txt	ARM	5	19	[0, 0, 0]	n/a	FR1	3	R1350D
2464.991	1.133	2465921	WORD_OFF	n/a	n/a	ARM	5	19	[0, 0, 0]	n/a	FR1	3	R1350D
2466.124	1.634	2467054	WORD	n/a	wordpools/wordpool_EN.txt	MUG	6	19	[0, 0, 0]	n/a	FR1	3	R1350D
2467.758	0.858	2468688	WORD_OFF	n/a	n/a	MUG	6	19	[0, 0, 0]	n/a	FR1	3	R1350D
2468.616	1.626	2469546	WORD	n/a	wordpools/wordpool_EN.txt	HOOF	7	19	[0, 0, 0]	n/a	FR1	3	R1350D
2470.242	1.126	2471172	WORD_OFF	n/a	n/a	HOOF	7	19	[0, 0, 0]	n/a	FR1	3	R1350D
2471.368	1.625	2472298	WORD	n/a	wordpools/wordpool_EN.txt	JEEP	8	19	[0, 0, 0]	n/a	FR1	3	R1350D
2472.993	0.99	2473923	WORD_OFF	n/a	n/a	JEEP	8	19	[0, 0, 0]	n/a	FR1	3	R1350D
2473.983	1.627	2474913	WORD	n/a	wordpools/wordpool_EN.txt	SINK	9	19	[0, 0, 0]	n/a	FR1	3	R1350D
2475.61	0.817	2476540	WORD_OFF	n/a	n/a	SINK	9	19	[0, 0, 0]	n/a	FR1	3	R1350D
2476.427	1.633	2477356	WORD	n/a	wordpools/wordpool_EN.txt	SHELL	10	19	[0, 0, 0]	n/a	FR1	3	R1350D
2478.06	1.027	2478989	WORD_OFF	n/a	n/a	SHELL	10	19	[0, 0, 0]	n/a	FR1	3	R1350D
2479.087	1.624	2480016	WORD	n/a	wordpools/wordpool_EN.txt	GOLD	11	19	[0, 0, 0]	n/a	FR1	3	R1350D
2480.711	0.841	2481640	WORD_OFF	n/a	n/a	GOLD	11	19	[0, 0, 0]	n/a	FR1	3	R1350D
2481.552	1.626	2482481	WORD	n/a	wordpools/wordpool_EN.txt	RAKE	12	19	[0, 0, 0]	n/a	FR1	3	R1350D
2483.178	0.0	2484107	WORD_OFF	n/a	n/a	RAKE	12	19	[0, 0, 0]	n/a	FR1	3	R1350D
2483.178	0.001	2484107	ENCODING_END	n/a	n/a	n/a	-999	19	[0, 0, 0]	n/a	FR1	3	R1350D
2483.179	0.0	2484108	DISTRACT_START	n/a	n/a	n/a	-999	19	[0, 0, 0]	n/a	FR1	3	R1350D
2483.179	0.015	2484108	START	n/a	n/a	n/a	-999	19	[-999, -999, -999]	n/a	FR1	3	R1350D
2483.194	4.217	2484123	PROB	4.217	n/a	n/a	-999	19	[2, 1, 2]	5	FR1	3	R1350D
2487.411	7.286	2488340	PROB	7.286	n/a	n/a	-999	19	[9, 7, 5]	21	FR1	3	R1350D
2494.697	3.517	2495626	PROB	3.517	n/a	n/a	-999	19	[8, 3, 5]	16	FR1	3	R1350D
2498.214	3.1	2499142	PROB	3.1	n/a	n/a	-999	19	[4, 4, 2]	10	FR1	3	R1350D
2501.314	3.025	2502242	PROB	3.025	n/a	n/a	-999	19	[7, 1, 4]	12	FR1	3	R1350D
2504.339	0.009	2505267	STOP	n/a	n/a	n/a	-999	19	[-999, -999, -999]	n/a	FR1	3	R1350D
2504.348	0.684	2505276	DISTRACT_END	n/a	n/a	n/a	-999	19	[0, 0, 0]	n/a	FR1	3	R1350D
2505.032	1.7	2505960	RETRIEVAL_ORIENT_START	n/a	n/a	n/a	-999	19	[0, 0, 0]	n/a	FR1	3	R1350D
2506.732	0.0	2507660	RETRIEVAL_ORIENT_END	n/a	n/a	n/a	-999	19	[0, 0, 0]	n/a	FR1	3	R1350D
2506.732	3.966	2507660	REC_START	n/a	n/a	n/a	-999	19	[0, 0, 0]	n/a	FR1	3	R1350D
2510.698	26.046	2511626	REC_WORD	26.046	n/a	SHELL	10	19	[0, 0, 0]	n/a	FR1	3	R1350D
2536.744	0.0	2537670	REC_END	n/a	n/a	n/a	-999	19	[0, 0, 0]	n/a	FR1	3	R1350D
2536.744	0.015	2537670	TRIAL_END	n/a	n/a	n/a	-999	19	[0, 0, 0]	n/a	FR1	3	R1350D
2536.759	0.0	2537685	TRIAL	n/a	n/a	n/a	-999	20	[0, 0, 0]	n/a	FR1	3	R1350D
2536.759	0.0	2537685	WAITING_START	n/a	n/a	n/a	-999	20	[0, 0, 0]	n/a	FR1	3	R1350D
2536.759	1.596	2537685	TRIAL_START	n/a	n/a	n/a	-999	20	[0, 0, 0]	n/a	FR1	3	R1350D
2538.355	0.0	2539281	WAITING_END	n/a	n/a	n/a	-999	20	[0, 0, 0]	n/a	FR1	3	R1350D
2538.355	10.428	2539281	COUNTDOWN_START	n/a	n/a	n/a	-999	20	[0, 0, 0]	n/a	FR1	3	R1350D
2548.783	0.001	2549709	COUNTDOWN_END	n/a	n/a	n/a	-999	20	[0, 0, 0]	n/a	FR1	3	R1350D
2548.784	1.106	2549710	ORIENT_START	n/a	n/a	n/a	-999	20	[0, 0, 0]	n/a	FR1	3	R1350D
2549.89	0.001	2550816	ORIENT_END	n/a	n/a	n/a	-999	20	[0, 0, 0]	n/a	FR1	3	R1350D
2549.891	1.04	2550817	ENCODING_START	n/a	n/a	n/a	-999	20	[0, 0, 0]	n/a	FR1	3	R1350D
2550.931	1.626	2551857	WORD	n/a	wordpools/wordpool_EN.txt	PLANT	1	20	[0, 0, 0]	n/a	FR1	3	R1350D
2552.557	1.03	2553483	WORD_OFF	n/a	n/a	PLANT	1	20	[0, 0, 0]	n/a	FR1	3	R1350D
2553.587	1.621	2554513	WORD	n/a	wordpools/wordpool_EN.txt	TOY	2	20	[0, 0, 0]	n/a	FR1	3	R1350D
2555.208	0.881	2556133	WORD_OFF	n/a	n/a	TOY	2	20	[0, 0, 0]	n/a	FR1	3	R1350D
2556.089	1.636	2557014	WORD	n/a	wordpools/wordpool_EN.txt	SMOKE	3	20	[0, 0, 0]	n/a	FR1	3	R1350D
2557.725	0.894	2558650	WORD_OFF	n/a	n/a	SMOKE	3	20	[0, 0, 0]	n/a	FR1	3	R1350D
2558.619	1.623	2559544	WORD	n/a	wordpools/wordpool_EN.txt	ZOO	4	20	[0, 0, 0]	n/a	FR1	3	R1350D
2560.242	0.921	2561167	WORD_OFF	n/a	n/a	ZOO	4	20	[0, 0, 0]	n/a	FR1	3	R1350D
2561.163	1.629	2562088	WORD	n/a	wordpools/wordpool_EN.txt	HOLE	5	20	[0, 0, 0]	n/a	FR1	3	R1350D
2562.792	1.052	2563717	WORD_OFF	n/a	n/a	HOLE	5	20	[0, 0, 0]	n/a	FR1	3	R1350D
2563.844	1.631	2564769	WORD	n/a	wordpools/wordpool_EN.txt	PRINCE	6	20	[0, 0, 0]	n/a	FR1	3	R1350D
2565.475	0.977	2566400	WORD_OFF	n/a	n/a	PRINCE	6	20	[0, 0, 0]	n/a	FR1	3	R1350D
2566.452	1.625	2567377	WORD	n/a	wordpools/wordpool_EN.txt	GOAT	7	20	[0, 0, 0]	n/a	FR1	3	R1350D
2568.077	0.75	2569002	WORD_OFF	n/a	n/a	GOAT	7	20	[0, 0, 0]	n/a	FR1	3	R1350D
2568.827	1.633	2569752	WORD	n/a	wordpools/wordpool_EN.txt	COUCH	8	20	[0, 0, 0]	n/a	FR1	3	R1350D
2570.46	0.945	2571385	WORD_OFF	n/a	n/a	COUCH	8	20	[0, 0, 0]	n/a	FR1	3	R1350D
2571.405	1.606	2572330	WORD	n/a	wordpools/wordpool_EN.txt	MILK	9	20	[0, 0, 0]	n/a	FR1	3	R1350D
2573.011	1.024	2573936	WORD_OFF	n/a	n/a	MILK	9	20	[0, 0, 0]	n/a	FR1	3	R1350D
2574.035	1.627	2574959	WORD	n/a	wordpools/wordpool_EN.txt	PIN	10	20	[0, 0, 0]	n/a	FR1	3	R1350D
2575.662	0.8	2576586	WORD_OFF	n/a	n/a	PIN	10	20	[0, 0, 0]	n/a	FR1	3	R1350D
2576.462	1.617	2577386	WORD	n/a	wordpools/wordpool_EN.txt	APE	11	20	[0, 0, 0]	n/a	FR1	3	R1350D
2578.079	1.003	2579003	WORD_OFF	n/a	n/a	APE	11	20	[0, 0, 0]	n/a	FR1	3	R1350D
2579.082	1.63	2580006	WORD	n/a	wordpools/wordpool_EN.txt	TREE	12	20	[0, 0, 0]	n/a	FR1	3	R1350D
2580.712	0.001	2581636	WORD_OFF	n/a	n/a	TREE	12	20	[0, 0, 0]	n/a	FR1	3	R1350D
2580.713	0.0	2581637	ENCODING_END	n/a	n/a	n/a	-999	20	[0, 0, 0]	n/a	FR1	3	R1350D
2580.713	0.0	2581637	DISTRACT_START	n/a	n/a	n/a	-999	20	[0, 0, 0]	n/a	FR1	3	R1350D
2580.713	0.016	2581637	START	n/a	n/a	n/a	-999	20	[-999, -999, -999]	n/a	FR1	3	R1350D
2580.729	3.683	2581653	PROB	3.683	n/a	n/a	-999	20	[8, 1, 7]	16	FR1	3	R1350D
2584.412	3.335	2585336	PROB	3.335	n/a	n/a	-999	20	[4, 8, 5]	17	FR1	3	R1350D
2587.747	3.1	2588671	PROB	3.1	n/a	n/a	-999	20	[2, 5, 3]	10	FR1	3	R1350D
2590.847	2.7	2591771	PROB	2.7	n/a	n/a	-999	20	[9, 1, 6]	16	FR1	3	R1350D
2593.547	3.0	2594470	PROB	3.0	n/a	n/a	-999	20	[1, 5, 3]	9	FR1	3	R1350D
2596.547	3.152	2597470	PROB	3.152	n/a	n/a	-999	20	[5, 6, 1]	12	FR1	3	R1350D
2599.699	3.087	2600622	PROB	3.087	n/a	n/a	-999	20	[7, 7, 8]	22	FR1	3	R1350D
2602.786	0.014	2603709	STOP	n/a	n/a	n/a	-999	20	[-999, -999, -999]	n/a	FR1	3	R1350D
2602.8	0.686	2603723	DISTRACT_END	n/a	n/a	n/a	-999	20	[0, 0, 0]	n/a	FR1	3	R1350D
2603.486	1.614	2604409	RETRIEVAL_ORIENT_START	n/a	n/a	n/a	-999	20	[0, 0, 0]	n/a	FR1	3	R1350D
2605.1	0.001	2606023	RETRIEVAL_ORIENT_END	n/a	n/a	n/a	-999	20	[0, 0, 0]	n/a	FR1	3	R1350D
2605.101	1.489	2606024	REC_START	n/a	n/a	n/a	-999	20	[0, 0, 0]	n/a	FR1	3	R1350D
2606.59	1.019	2607513	REC_WORD	1.019	n/a	APE	11	20	[0, 0, 0]	n/a	FR1	3	R1350D
2607.609	5.063	2608532	REC_WORD	5.063	n/a	TREE	12	20	[0, 0, 0]	n/a	FR1	3	R1350D
2612.672	2.836	2613594	REC_WORD_VV	2.836	n/a	<>	-999	20	[0, 0, 0]	n/a	FR1	3	R1350D
2615.508	19.602	2616430	REC_WORD	19.602	n/a	TREE	12	20	[0, 0, 0]	n/a	FR1	3	R1350D
2635.11	0.001	2636031	REC_END	n/a	n/a	n/a	-999	20	[0, 0, 0]	n/a	FR1	3	R1350D
2635.111	0.014	2636032	TRIAL_END	n/a	n/a	n/a	-999	20	[0, 0, 0]	n/a	FR1	3	R1350D
2635.125	0.0	2636046	TRIAL_START	n/a	n/a	n/a	-999	21	[0, 0, 0]	n/a	FR1	3	R1350D
2635.125	0.001	2636046	TRIAL	n/a	n/a	n/a	-999	21	[0, 0, 0]	n/a	FR1	3	R1350D
2635.126	0.847	2636047	WAITING_START	n/a	n/a	n/a	-999	21	[0, 0, 0]	n/a	FR1	3	R1350D
2635.973	0.0	2636894	COUNTDOWN_START	n/a	n/a	n/a	-999	21	[0, 0, 0]	n/a	FR1	3	R1350D
2635.973	10.429	2636894	WAITING_END	n/a	n/a	n/a	-999	21	[0, 0, 0]	n/a	FR1	3	R1350D
2646.402	0.0	2647323	COUNTDOWN_END	n/a	n/a	n/a	-999	21	[0, 0, 0]	n/a	FR1	3	R1350D
2646.402	1.223	2647323	ORIENT_START	n/a	n/a	n/a	-999	21	[0, 0, 0]	n/a	FR1	3	R1350D
2647.625	0.0	2648546	ORIENT_END	n/a	n/a	n/a	-999	21	[0, 0, 0]	n/a	FR1	3	R1350D
2647.625	1.048	2648546	ENCODING_START	n/a	n/a	n/a	-999	21	[0, 0, 0]	n/a	FR1	3	R1350D
2648.673	1.635	2649594	WORD	n/a	wordpools/wordpool_EN.txt	BED	1	21	[0, 0, 0]	n/a	FR1	3	R1350D
2650.308	1.077	2651229	WORD_OFF	n/a	n/a	BED	1	21	[0, 0, 0]	n/a	FR1	3	R1350D
2651.385	1.607	2652305	WORD	n/a	wordpools/wordpool_EN.txt	SHARK	2	21	[0, 0, 0]	n/a	FR1	3	R1350D
2652.992	0.799	2653912	WORD_OFF	n/a	n/a	SHARK	2	21	[0, 0, 0]	n/a	FR1	3	R1350D
2653.791	1.634	2654711	WORD	n/a	wordpools/wordpool_EN.txt	TOE	3	21	[0, 0, 0]	n/a	FR1	3	R1350D
2655.425	0.755	2656345	WORD_OFF	n/a	n/a	TOE	3	21	[0, 0, 0]	n/a	FR1	3	R1350D
2656.18	1.63	2657100	WORD	n/a	wordpools/wordpool_EN.txt	MAP	4	21	[0, 0, 0]	n/a	FR1	3	R1350D
2657.81	0.873	2658730	WORD_OFF	n/a	n/a	MAP	4	21	[0, 0, 0]	n/a	FR1	3	R1350D
2658.683	1.627	2659603	WORD	n/a	wordpools/wordpool_EN.txt	BANK	5	21	[0, 0, 0]	n/a	FR1	3	R1350D
2660.31	1.11	2661230	WORD_OFF	n/a	n/a	BANK	5	21	[0, 0, 0]	n/a	FR1	3	R1350D
2661.42	1.624	2662340	WORD	n/a	wordpools/wordpool_EN.txt	JUICE	6	21	[0, 0, 0]	n/a	FR1	3	R1350D
2663.044	1.042	2663964	WORD_OFF	n/a	n/a	JUICE	6	21	[0, 0, 0]	n/a	FR1	3	R1350D
2664.086	1.625	2665006	WORD	n/a	wordpools/wordpool_EN.txt	CASH	7	21	[0, 0, 0]	n/a	FR1	3	R1350D
2665.711	0.757	2666631	WORD_OFF	n/a	n/a	CASH	7	21	[0, 0, 0]	n/a	FR1	3	R1350D
2666.468	1.627	2667388	WORD	n/a	wordpools/wordpool_EN.txt	SALT	8	21	[0, 0, 0]	n/a	FR1	3	R1350D
2668.095	1.114	2669015	WORD_OFF	n/a	n/a	SALT	8	21	[0, 0, 0]	n/a	FR1	3	R1350D
2669.209	1.637	2670129	WORD	n/a	wordpools/wordpool_EN.txt	WHEEL	9	21	[0, 0, 0]	n/a	FR1	3	R1350D
2670.846	0.85	2671765	WORD_OFF	n/a	n/a	WHEEL	9	21	[0, 0, 0]	n/a	FR1	3	R1350D
2671.696	1.633	2672615	WORD	n/a	wordpools/wordpool_EN.txt	FLUTE	10	21	[0, 0, 0]	n/a	FR1	3	R1350D
2673.329	1.131	2674248	WORD_OFF	n/a	n/a	FLUTE	10	21	[0, 0, 0]	n/a	FR1	3	R1350D
2674.46	1.636	2675379	WORD	n/a	wordpools/wordpool_EN.txt	BEAK	11	21	[0, 0, 0]	n/a	FR1	3	R1350D
2676.096	1.083	2677015	WORD_OFF	n/a	n/a	BEAK	11	21	[0, 0, 0]	n/a	FR1	3	R1350D
2677.179	1.635	2678098	WORD	n/a	wordpools/wordpool_EN.txt	PANTS	12	21	[0, 0, 0]	n/a	FR1	3	R1350D
2678.814	0.0	2679733	WORD_OFF	n/a	n/a	PANTS	12	21	[0, 0, 0]	n/a	FR1	3	R1350D
2678.814	0.0	2679733	ENCODING_END	n/a	n/a	n/a	-999	21	[0, 0, 0]	n/a	FR1	3	R1350D
2678.814	0.001	2679733	DISTRACT_START	n/a	n/a	n/a	-999	21	[0, 0, 0]	n/a	FR1	3	R1350D
2678.815	0.015	2679734	START	n/a	n/a	n/a	-999	21	[-999, -999, -999]	n/a	FR1	3	R1350D
2678.83	5.334	2679749	PROB	5.334	n/a	n/a	-999	21	[9, 9, 8]	26	FR1	3	R1350D
2684.164	2.768	2685083	PROB	2.768	n/a	n/a	-999	21	[8, 2, 1]	11	FR1	3	R1350D
2686.932	3.75	2687851	PROB	3.75	n/a	n/a	-999	21	[5, 1, 8]	14	FR1	3	R1350D
2690.682	2.8	2691600	PROB	2.8	n/a	n/a	-999	21	[3, 9, 1]	13	FR1	3	R1350D
2693.482	3.818	2694400	PROB	3.818	n/a	n/a	-999	21	[2, 6, 3]	11	FR1	3	R1350D
2697.3	3.693	2698218	PROB	3.693	n/a	n/a	-999	21	[9, 6, 3]	18	FR1	3	R1350D
2700.993	0.008	2701911	STOP	n/a	n/a	n/a	-999	21	[-999, -999, -999]	n/a	FR1	3	R1350D
2701.001	0.566	2701919	DISTRACT_END	n/a	n/a	n/a	-999	21	[0, 0, 0]	n/a	FR1	3	R1350D
2701.567	1.618	2702485	RETRIEVAL_ORIENT_START	n/a	n/a	n/a	-999	21	[0, 0, 0]	n/a	FR1	3	R1350D
2703.185	0.0	2704103	RETRIEVAL_ORIENT_END	n/a	n/a	n/a	-999	21	[0, 0, 0]	n/a	FR1	3	R1350D
2703.185	2.74	2704103	REC_START	n/a	n/a	n/a	-999	21	[0, 0, 0]	n/a	FR1	3	R1350D
2705.925	3.672	2706843	REC_WORD	3.672	n/a	BEAK	11	21	[0, 0, 0]	n/a	FR1	3	R1350D
2709.597	3.098	2710515	REC_WORD_VV	3.098	n/a	<>	-999	21	[0, 0, 0]	n/a	FR1	3	R1350D
2712.695	20.5	2713612	REC_WORD_VV	20.5	n/a	<>	-999	21	[0, 0, 0]	n/a	FR1	3	R1350D
2733.195	0.001	2734111	REC_END	n/a	n/a	n/a	-999	21	[0, 0, 0]	n/a	FR1	3	R1350D
2733.196	0.014	2734112	TRIAL_END	n/a	n/a	n/a	-999	21	[0, 0, 0]	n/a	FR1	3	R1350D
2733.21	0.0	2734126	TRIAL_START	n/a	n/a	n/a	-999	22	[0, 0, 0]	n/a	FR1	3	R1350D
2733.21	0.0	2734126	TRIAL	n/a	n/a	n/a	-999	22	[0, 0, 0]	n/a	FR1	3	R1350D
2733.21	2.246	2734126	WAITING_START	n/a	n/a	n/a	-999	22	[0, 0, 0]	n/a	FR1	3	R1350D
2735.456	0.001	2736372	WAITING_END	n/a	n/a	n/a	-999	22	[0, 0, 0]	n/a	FR1	3	R1350D
2735.457	10.428	2736373	COUNTDOWN_START	n/a	n/a	n/a	-999	22	[0, 0, 0]	n/a	FR1	3	R1350D
2745.885	0.0	2746801	ORIENT_START	n/a	n/a	n/a	-999	22	[0, 0, 0]	n/a	FR1	3	R1350D
2745.885	1.224	2746801	COUNTDOWN_END	n/a	n/a	n/a	-999	22	[0, 0, 0]	n/a	FR1	3	R1350D
2747.109	0.001	2748025	ORIENT_END	n/a	n/a	n/a	-999	22	[0, 0, 0]	n/a	FR1	3	R1350D
2747.11	0.969	2748026	ENCODING_START	n/a	n/a	n/a	-999	22	[0, 0, 0]	n/a	FR1	3	R1350D
2748.079	1.631	2748995	WORD	n/a	wordpools/wordpool_EN.txt	OAR	1	22	[0, 0, 0]	n/a	FR1	3	R1350D
2749.71	0.755	2750625	WORD_OFF	n/a	n/a	OAR	1	22	[0, 0, 0]	n/a	FR1	3	R1350D
2750.465	1.629	2751380	WORD	n/a	wordpools/wordpool_EN.txt	FISH	2	22	[0, 0, 0]	n/a	FR1	3	R1350D
2752.094	0.932	2753009	WORD_OFF	n/a	n/a	FISH	2	22	[0, 0, 0]	n/a	FR1	3	R1350D
2753.026	1.635	2753941	WORD	n/a	wordpools/wordpool_EN.txt	LEAF	3	22	[0, 0, 0]	n/a	FR1	3	R1350D
2754.661	1.035	2755576	WORD_OFF	n/a	n/a	LEAF	3	22	[0, 0, 0]	n/a	FR1	3	R1350D
2755.696	1.632	2756611	WORD	n/a	wordpools/wordpool_EN.txt	SKI	4	22	[0, 0, 0]	n/a	FR1	3	R1350D
2757.328	1.083	2758243	WORD_OFF	n/a	n/a	SKI	4	22	[0, 0, 0]	n/a	FR1	3	R1350D
2758.411	1.634	2759326	WORD	n/a	wordpools/wordpool_EN.txt	PALM	5	22	[0, 0, 0]	n/a	FR1	3	R1350D
2760.045	0.807	2760960	WORD_OFF	n/a	n/a	PALM	5	22	[0, 0, 0]	n/a	FR1	3	R1350D
2760.852	1.626	2761767	WORD	n/a	wordpools/wordpool_EN.txt	PEN	6	22	[0, 0, 0]	n/a	FR1	3	R1350D
2762.478	1.099	2763393	WORD_OFF	n/a	n/a	PEN	6	22	[0, 0, 0]	n/a	FR1	3	R1350D
2763.577	1.636	2764492	WORD	n/a	wordpools/wordpool_EN.txt	DEER	7	22	[0, 0, 0]	n/a	FR1	3	R1350D
2765.213	1.134	2766128	WORD_OFF	n/a	n/a	DEER	7	22	[0, 0, 0]	n/a	FR1	3	R1350D
2766.347	1.633	2767262	WORD	n/a	wordpools/wordpool_EN.txt	FROG	8	22	[0, 0, 0]	n/a	FR1	3	R1350D
2767.98	1.019	2768894	WORD_OFF	n/a	n/a	FROG	8	22	[0, 0, 0]	n/a	FR1	3	R1350D
2768.999	1.631	2769913	WORD	n/a	wordpools/wordpool_EN.txt	HORN	9	22	[0, 0, 0]	n/a	FR1	3	R1350D
2770.63	1.056	2771544	WORD_OFF	n/a	n/a	HORN	9	22	[0, 0, 0]	n/a	FR1	3	R1350D
2771.686	1.628	2772600	WORD	n/a	wordpools/wordpool_EN.txt	RAIN	10	22	[0, 0, 0]	n/a	FR1	3	R1350D
2773.314	0.949	2774228	WORD_OFF	n/a	n/a	RAIN	10	22	[0, 0, 0]	n/a	FR1	3	R1350D
2774.263	1.635	2775177	WORD	n/a	wordpools/wordpool_EN.txt	STAR	11	22	[0, 0, 0]	n/a	FR1	3	R1350D
2775.898	1.139	2776812	WORD_OFF	n/a	n/a	STAR	11	22	[0, 0, 0]	n/a	FR1	3	R1350D
2777.037	1.628	2777951	WORD	n/a	wordpools/wordpool_EN.txt	SPRING	12	22	[0, 0, 0]	n/a	FR1	3	R1350D
2778.665	0.001	2779579	WORD_OFF	n/a	n/a	SPRING	12	22	[0, 0, 0]	n/a	FR1	3	R1350D
2778.666	0.0	2779580	ENCODING_END	n/a	n/a	n/a	-999	22	[0, 0, 0]	n/a	FR1	3	R1350D
2778.666	0.0	2779580	DISTRACT_START	n/a	n/a	n/a	-999	22	[0, 0, 0]	n/a	FR1	3	R1350D
2778.666	0.016	2779580	START	n/a	n/a	n/a	-999	22	[-999, -999, -999]	n/a	FR1	3	R1350D
2778.682	4.816	2779596	PROB	4.816	n/a	n/a	-999	22	[3, 5, 9]	17	FR1	3	R1350D
2783.498	3.519	2784412	PROB	3.519	n/a	n/a	-999	22	[3, 8, 4]	15	FR1	3	R1350D
2787.017	3.2	2787931	PROB	3.2	n/a	n/a	-999	22	[2, 2, 4]	8	FR1	3	R1350D
2790.217	2.601	2791130	PROB	2.601	n/a	n/a	-999	22	[1, 9, 5]	15	FR1	3	R1350D
2792.818	3.1	2793731	PROB	3.1	n/a	n/a	-999	22	[2, 7, 4]	13	FR1	3	R1350D
2795.918	6.55	2796831	PROB	6.55	n/a	n/a	-999	22	[7, 8, 8]	23	FR1	3	R1350D
2802.468	0.017	2803381	STOP	n/a	n/a	n/a	-999	22	[-999, -999, -999]	n/a	FR1	3	R1350D
2802.485	0.68	2803398	DISTRACT_END	n/a	n/a	n/a	-999	22	[0, 0, 0]	n/a	FR1	3	R1350D
2803.165	1.672	2804078	RETRIEVAL_ORIENT_START	n/a	n/a	n/a	-999	22	[0, 0, 0]	n/a	FR1	3	R1350D
2804.837	0.0	2805750	RETRIEVAL_ORIENT_END	n/a	n/a	n/a	-999	22	[0, 0, 0]	n/a	FR1	3	R1350D
2804.837	1.545	2805750	REC_START	n/a	n/a	n/a	-999	22	[0, 0, 0]	n/a	FR1	3	R1350D
2806.382	1.292	2807295	REC_WORD	1.292	n/a	OAR	1	22	[0, 0, 0]	n/a	FR1	3	R1350D
2807.674	3.815	2808586	REC_WORD	3.815	n/a	FISH	2	22	[0, 0, 0]	n/a	FR1	3	R1350D
