onset	duration	sample	trial_type	response_time	stim_file	item_name	serialpos	list	test	answer	experiment	session	subject
0.0	0.0	7089	INSTRUCT_START	n/a	n/a	n/a	-999	-999	[0, 0, 0]	n/a	FR1	0	R1229M
0.0	10.974	7089	INSTRUCT_END	n/a	n/a	n/a	-999	-999	[0, 0, 0]	n/a	FR1	0	R1229M
10.974	0.0	18062	SESS_START	n/a	n/a	n/a	-999	-999	[0, 0, 0]	n/a	FR1	0	R1229M
10.974	21.0	18062	MIC_TEST	n/a	n/a	n/a	-999	-999	[0, 0, 0]	n/a	FR1	0	R1229M
31.974	51.142	39061	PRACTICE_TRIAL	n/a	n/a	n/a	-999	-1	[0, 0, 0]	n/a	FR1	0	R1229M
83.116	10.428	90200	COUNTDOWN_START	n/a	n/a	n/a	-999	-1	[0, 0, 0]	n/a	FR1	0	R1229M
93.544	0.008	100627	COUNTDOWN_END	n/a	n/a	n/a	-999	-1	[0, 0, 0]	n/a	FR1	0	R1229M
93.552	1.617	100635	PRACTICE_ORIENT	n/a	n/a	n/a	-999	-1	[0, 0, 0]	n/a	FR1	0	R1229M
95.169	2.2	102252	PRACTICE_ORIENT_OFF	n/a	n/a	n/a	-999	-1	[0, 0, 0]	n/a	FR1	0	R1229M
97.369	1.617	104452	PRACTICE_WORD	n/a	n/a	RING	1	-1	[0, 0, 0]	n/a	FR1	0	R1229M
98.986	0.917	106069	PRACTICE_WORD_OFF	n/a	n/a	RING	-999	-1	[0, 0, 0]	n/a	FR1	0	R1229M
99.903	1.617	106986	PRACTICE_WORD	n/a	n/a	BEAM	2	-1	[0, 0, 0]	n/a	FR1	0	R1229M
101.52	0.767	108603	PRACTICE_WORD_OFF	n/a	n/a	BEAM	-999	-1	[0, 0, 0]	n/a	FR1	0	R1229M
102.287	1.617	109370	PRACTICE_WORD	n/a	n/a	COTTON	3	-1	[0, 0, 0]	n/a	FR1	0	R1229M
103.904	1.0	110987	PRACTICE_WORD_OFF	n/a	n/a	COTTON	-999	-1	[0, 0, 0]	n/a	FR1	0	R1229M
104.904	1.617	111987	PRACTICE_WORD	n/a	n/a	CHEST	4	-1	[0, 0, 0]	n/a	FR1	0	R1229M
106.521	0.967	113603	PRACTICE_WORD_OFF	n/a	n/a	CHEST	-999	-1	[0, 0, 0]	n/a	FR1	0	R1229M
107.488	1.617	114570	PRACTICE_WORD	n/a	n/a	ATTIC	5	-1	[0, 0, 0]	n/a	FR1	0	R1229M
109.105	0.967	116187	PRACTICE_WORD_OFF	n/a	n/a	ATTIC	-999	-1	[0, 0, 0]	n/a	FR1	0	R1229M
110.072	1.616	117154	PRACTICE_WORD	n/a	n/a	RHINO	6	-1	[0, 0, 0]	n/a	FR1	0	R1229M
111.688	0.851	118770	PRACTICE_WORD_OFF	n/a	n/a	RHINO	-999	-1	[0, 0, 0]	n/a	FR1	0	R1229M
112.539	1.617	119621	PRACTICE_WORD	n/a	n/a	CAMEL	7	-1	[0, 0, 0]	n/a	FR1	0	R1229M
114.156	0.8	121238	PRACTICE_WORD_OFF	n/a	n/a	CAMEL	-999	-1	[0, 0, 0]	n/a	FR1	0	R1229M
114.956	1.617	122038	PRACTICE_WORD	n/a	n/a	WAGON	8	-1	[0, 0, 0]	n/a	FR1	0	R1229M
116.573	0.8	123655	PRACTICE_WORD_OFF	n/a	n/a	WAGON	-999	-1	[0, 0, 0]	n/a	FR1	0	R1229M
117.373	1.617	124455	PRACTICE_WORD	n/a	n/a	TONGUE	9	-1	[0, 0, 0]	n/a	FR1	0	R1229M
118.99	0.884	126072	PRACTICE_WORD_OFF	n/a	n/a	TONGUE	-999	-1	[0, 0, 0]	n/a	FR1	0	R1229M
119.874	1.617	126956	PRACTICE_WORD	n/a	n/a	IRON	10	-1	[0, 0, 0]	n/a	FR1	0	R1229M
121.491	0.816	128573	PRACTICE_WORD_OFF	n/a	n/a	IRON	-999	-1	[0, 0, 0]	n/a	FR1	0	R1229M
122.307	1.617	129389	PRACTICE_WORD	n/a	n/a	FLOOD	11	-1	[0, 0, 0]	n/a	FR1	0	R1229M
123.924	0.867	131005	PRACTICE_WORD_OFF	n/a	n/a	FLOOD	-999	-1	[0, 0, 0]	n/a	FR1	0	R1229M
124.791	1.617	131872	PRACTICE_WORD	n/a	n/a	WATCH	12	-1	[0, 0, 0]	n/a	FR1	0	R1229M
126.408	0.0	133489	PRACTICE_WORD_OFF	n/a	n/a	WATCH	-999	-1	[0, 0, 0]	n/a	FR1	0	R1229M
126.408	0.001	133489	DISTRACT_START	n/a	n/a	n/a	-999	-1	[0, 0, 0]	n/a	FR1	0	R1229M
126.409	0.016	133490	START	n/a	n/a	n/a	-999	-1	[-999, -999, -999]	n/a	FR1	0	R1229M
126.425	12.469	133506	PROB	12.469	n/a	n/a	-999	-1	[2, 5, 5]	12	FR1	0	R1229M
138.894	6.418	145975	PROB	6.418	n/a	n/a	-999	-1	[7, 7, 4]	18	FR1	0	R1229M
145.312	6.199	152392	PROB	6.199	n/a	n/a	-999	-1	[2, 7, 5]	14	FR1	0	R1229M
151.511	0.019	158591	STOP	n/a	n/a	n/a	-999	-1	[-999, -999, -999]	n/a	FR1	0	R1229M
151.53	0.667	158610	DISTRACT_END	n/a	n/a	n/a	-999	-1	[0, 0, 0]	n/a	FR1	0	R1229M
152.197	0.516	159277	RETRIEVAL_ORIENT	n/a	n/a	n/a	-999	-1	[0, 0, 0]	n/a	FR1	0	R1229M
152.713	30.011	159793	PRACTICE_REC_START	n/a	n/a	n/a	-999	-1	[0, 0, 0]	n/a	FR1	0	R1229M
182.724	17.349	189802	PRACTICE_REC_END	n/a	n/a	n/a	-999	-1	[0, 0, 0]	n/a	FR1	0	R1229M
200.073	0.5	207150	TRIAL	n/a	n/a	n/a	-999	1	[0, 0, 0]	n/a	FR1	0	R1229M
200.573	10.428	207650	COUNTDOWN_START	n/a	n/a	n/a	-999	1	[0, 0, 0]	n/a	FR1	0	R1229M
211.001	0.007	218077	COUNTDOWN_END	n/a	n/a	n/a	-999	1	[0, 0, 0]	n/a	FR1	0	R1229M
211.008	1.617	218084	ORIENT	n/a	n/a	n/a	-999	1	[0, 0, 0]	n/a	FR1	0	R1229M
212.625	2.2	219701	ORIENT_OFF	n/a	n/a	n/a	-999	1	[0, 0, 0]	n/a	FR1	0	R1229M
214.825	1.617	221901	WORD	n/a	wordpools/wordpool_EN.txt	SMILE	1	1	[0, 0, 0]	n/a	FR1	0	R1229M
216.442	1.0	223518	WORD_OFF	n/a	n/a	SMILE	1	1	[0, 0, 0]	n/a	FR1	0	R1229M
217.442	1.617	224518	WORD	n/a	wordpools/wordpool_EN.txt	PASTE	2	1	[0, 0, 0]	n/a	FR1	0	R1229M
219.059	0.951	226135	WORD_OFF	n/a	n/a	PASTE	2	1	[0, 0, 0]	n/a	FR1	0	R1229M
220.01	1.617	227086	WORD	n/a	wordpools/wordpool_EN.txt	PIE	3	1	[0, 0, 0]	n/a	FR1	0	R1229M
221.627	0.933	228703	WORD_OFF	n/a	n/a	PIE	3	1	[0, 0, 0]	n/a	FR1	0	R1229M
222.56	1.617	229636	WORD	n/a	wordpools/wordpool_EN.txt	MUG	4	1	[0, 0, 0]	n/a	FR1	0	R1229M
224.177	0.817	231253	WORD_OFF	n/a	n/a	MUG	4	1	[0, 0, 0]	n/a	FR1	0	R1229M
224.994	1.617	232070	WORD	n/a	wordpools/wordpool_EN.txt	LAMP	5	1	[0, 0, 0]	n/a	FR1	0	R1229M
226.611	0.783	233687	WORD_OFF	n/a	n/a	LAMP	5	1	[0, 0, 0]	n/a	FR1	0	R1229M
227.394	1.617	234470	WORD	n/a	wordpools/wordpool_EN.txt	FENCE	6	1	[0, 0, 0]	n/a	FR1	0	R1229M
229.011	0.767	236086	WORD_OFF	n/a	n/a	FENCE	6	1	[0, 0, 0]	n/a	FR1	0	R1229M
229.778	1.617	236853	WORD	n/a	wordpools/wordpool_EN.txt	TENT	7	1	[0, 0, 0]	n/a	FR1	0	R1229M
231.395	0.867	238470	WORD_OFF	n/a	n/a	TENT	7	1	[0, 0, 0]	n/a	FR1	0	R1229M
232.262	1.617	239337	WORD	n/a	wordpools/wordpool_EN.txt	BRICK	8	1	[0, 0, 0]	n/a	FR1	0	R1229M
233.879	0.9	240954	WORD_OFF	n/a	n/a	BRICK	8	1	[0, 0, 0]	n/a	FR1	0	R1229M
234.779	1.617	241854	WORD	n/a	wordpools/wordpool_EN.txt	RIB	9	1	[0, 0, 0]	n/a	FR1	0	R1229M
236.396	0.817	243471	WORD_OFF	n/a	n/a	RIB	9	1	[0, 0, 0]	n/a	FR1	0	R1229M
237.213	1.617	244288	WORD	n/a	wordpools/wordpool_EN.txt	SUIT	10	1	[0, 0, 0]	n/a	FR1	0	R1229M
238.83	0.783	245905	WORD_OFF	n/a	n/a	SUIT	10	1	[0, 0, 0]	n/a	FR1	0	R1229M
239.613	1.617	246688	WORD	n/a	wordpools/wordpool_EN.txt	CHEEK	11	1	[0, 0, 0]	n/a	FR1	0	R1229M
241.23	0.817	248305	WORD_OFF	n/a	n/a	CHEEK	11	1	[0, 0, 0]	n/a	FR1	0	R1229M
242.047	1.617	249122	WORD	n/a	wordpools/wordpool_EN.txt	PLATE	12	1	[0, 0, 0]	n/a	FR1	0	R1229M
243.664	0.0	250739	DISTRACT_START	n/a	n/a	n/a	-999	1	[0, 0, 0]	n/a	FR1	0	R1229M
243.664	0.001	250739	WORD_OFF	n/a	n/a	PLATE	12	1	[0, 0, 0]	n/a	FR1	0	R1229M
243.665	0.015	250740	START	n/a	n/a	n/a	-999	1	[-999, -999, -999]	n/a	FR1	0	R1229M
243.68	5.485	250755	PROB	5.485	n/a	n/a	-999	1	[2, 2, 3]	7	FR1	0	R1229M
249.165	5.685	256239	PROB	5.685	n/a	n/a	-999	1	[7, 7, 1]	15	FR1	0	R1229M
254.85	6.318	261924	PROB	6.318	n/a	n/a	-999	1	[7, 4, 9]	18	FR1	0	R1229M
261.168	18.581	268242	PROB	18.581	n/a	n/a	-999	1	[8, 7, 7]	22	FR1	0	R1229M
279.749	0.022	286822	STOP	n/a	n/a	n/a	-999	1	[-999, -999, -999]	n/a	FR1	0	R1229M
279.771	0.584	286844	DISTRACT_END	n/a	n/a	n/a	-999	1	[0, 0, 0]	n/a	FR1	0	R1229M
280.355	0.517	287428	RETRIEVAL_ORIENT	n/a	n/a	n/a	-999	1	[0, 0, 0]	n/a	FR1	0	R1229M
280.872	3.815	287944	REC_START	n/a	n/a	n/a	-999	1	[0, 0, 0]	n/a	FR1	0	R1229M
284.687	5.033	291759	REC_WORD_VV	5.033	n/a	<>	-999	1	[0, 0, 0]	n/a	FR1	0	R1229M
289.72	1.75	296792	REC_WORD	1.75	n/a	BRICK	8	1	[0, 0, 0]	n/a	FR1	0	R1229M
291.47	14.014	298542	REC_WORD	14.014	n/a	FENCE	6	1	[0, 0, 0]	n/a	FR1	0	R1229M
305.484	5.398	312555	REC_WORD	5.398	n/a	PIE	3	1	[0, 0, 0]	n/a	FR1	0	R1229M
310.882	12.081	317953	REC_END	n/a	n/a	n/a	-999	1	[0, 0, 0]	n/a	FR1	0	R1229M
322.963	0.5	330033	TRIAL	n/a	n/a	n/a	-999	2	[0, 0, 0]	n/a	FR1	0	R1229M
323.463	10.428	330533	COUNTDOWN_START	n/a	n/a	n/a	-999	2	[0, 0, 0]	n/a	FR1	0	R1229M
333.891	0.007	340960	COUNTDOWN_END	n/a	n/a	n/a	-999	2	[0, 0, 0]	n/a	FR1	0	R1229M
333.898	1.617	340967	ORIENT	n/a	n/a	n/a	-999	2	[0, 0, 0]	n/a	FR1	0	R1229M
335.515	2.166	342584	ORIENT_OFF	n/a	n/a	n/a	-999	2	[0, 0, 0]	n/a	FR1	0	R1229M
337.681	1.618	344750	WORD	n/a	wordpools/wordpool_EN.txt	NET	1	2	[0, 0, 0]	n/a	FR1	0	R1229M
339.299	0.917	346368	WORD_OFF	n/a	n/a	NET	1	2	[0, 0, 0]	n/a	FR1	0	R1229M
340.216	1.617	347285	WORD	n/a	wordpools/wordpool_EN.txt	JAIL	2	2	[0, 0, 0]	n/a	FR1	0	R1229M
341.833	0.8	348902	WORD_OFF	n/a	n/a	JAIL	2	2	[0, 0, 0]	n/a	FR1	0	R1229M
342.633	1.617	349702	WORD	n/a	wordpools/wordpool_EN.txt	GEESE	3	2	[0, 0, 0]	n/a	FR1	0	R1229M
344.25	0.851	351319	WORD_OFF	n/a	n/a	GEESE	3	2	[0, 0, 0]	n/a	FR1	0	R1229M
345.101	1.616	352170	WORD	n/a	wordpools/wordpool_EN.txt	ROOM	4	2	[0, 0, 0]	n/a	FR1	0	R1229M
346.717	0.951	353786	WORD_OFF	n/a	n/a	ROOM	4	2	[0, 0, 0]	n/a	FR1	0	R1229M
347.668	1.617	354737	WORD	n/a	wordpools/wordpool_EN.txt	FLUTE	5	2	[0, 0, 0]	n/a	FR1	0	R1229M
349.285	1.016	356354	WORD_OFF	n/a	n/a	FLUTE	5	2	[0, 0, 0]	n/a	FR1	0	R1229M
350.301	1.617	357369	WORD	n/a	wordpools/wordpool_EN.txt	BEACH	6	2	[0, 0, 0]	n/a	FR1	0	R1229M
351.918	0.917	358986	WORD_OFF	n/a	n/a	BEACH	6	2	[0, 0, 0]	n/a	FR1	0	R1229M
352.835	1.617	359903	WORD	n/a	wordpools/wordpool_EN.txt	LEAF	7	2	[0, 0, 0]	n/a	FR1	0	R1229M
354.452	0.767	361520	WORD_OFF	n/a	n/a	LEAF	7	2	[0, 0, 0]	n/a	FR1	0	R1229M
355.219	1.617	362287	WORD	n/a	wordpools/wordpool_EN.txt	BREAD	8	2	[0, 0, 0]	n/a	FR1	0	R1229M
356.836	0.899	363904	WORD_OFF	n/a	n/a	BREAD	8	2	[0, 0, 0]	n/a	FR1	0	R1229M
357.735	1.601	364803	WORD	n/a	wordpools/wordpool_EN.txt	BRANCH	9	2	[0, 0, 0]	n/a	FR1	0	R1229M
359.336	0.934	366404	WORD_OFF	n/a	n/a	BRANCH	9	2	[0, 0, 0]	n/a	FR1	0	R1229M
360.27	1.617	367338	WORD	n/a	wordpools/wordpool_EN.txt	SHEEP	10	2	[0, 0, 0]	n/a	FR1	0	R1229M
361.887	0.799	368955	WORD_OFF	n/a	n/a	SHEEP	10	2	[0, 0, 0]	n/a	FR1	0	R1229M
362.686	1.618	369754	WORD	n/a	wordpools/wordpool_EN.txt	GRAPE	11	2	[0, 0, 0]	n/a	FR1	0	R1229M
364.304	0.867	371372	WORD_OFF	n/a	n/a	GRAPE	11	2	[0, 0, 0]	n/a	FR1	0	R1229M
365.171	1.617	372239	WORD	n/a	wordpools/wordpool_EN.txt	THREAD	12	2	[0, 0, 0]	n/a	FR1	0	R1229M
366.788	0.0	373856	WORD_OFF	n/a	n/a	THREAD	12	2	[0, 0, 0]	n/a	FR1	0	R1229M
366.788	0.001	373856	DISTRACT_START	n/a	n/a	n/a	-999	2	[0, 0, 0]	n/a	FR1	0	R1229M
366.789	0.016	373857	START	n/a	n/a	n/a	-999	2	[-999, -999, -999]	n/a	FR1	0	R1229M
366.805	11.669	373873	PROB	11.669	n/a	n/a	-999	2	[6, 8, 7]	21	FR1	0	R1229M
378.474	14.564	385541	PROB	14.564	n/a	n/a	-999	2	[9, 8, 4]	21	FR1	0	R1229M
393.038	0.005	400104	STOP	n/a	n/a	n/a	-999	2	[-999, -999, -999]	n/a	FR1	0	R1229M
393.043	0.6	400109	DISTRACT_END	n/a	n/a	n/a	-999	2	[0, 0, 0]	n/a	FR1	0	R1229M
393.643	0.518	400709	RETRIEVAL_ORIENT	n/a	n/a	n/a	-999	2	[0, 0, 0]	n/a	FR1	0	R1229M
394.161	2.233	401227	REC_START	n/a	n/a	n/a	-999	2	[0, 0, 0]	n/a	FR1	0	R1229M
396.394	4.369	403460	REC_WORD	4.369	n/a	NET	1	2	[0, 0, 0]	n/a	FR1	0	R1229M
400.763	23.407	407829	REC_WORD	23.407	n/a	GRAPE	11	2	[0, 0, 0]	n/a	FR1	0	R1229M
424.17	14.999	431234	REC_END	n/a	n/a	n/a	-999	2	[0, 0, 0]	n/a	FR1	0	R1229M
439.169	0.5	446232	TRIAL	n/a	n/a	n/a	-999	3	[0, 0, 0]	n/a	FR1	0	R1229M
439.669	10.428	446732	COUNTDOWN_START	n/a	n/a	n/a	-999	3	[0, 0, 0]	n/a	FR1	0	R1229M
450.097	0.007	457160	COUNTDOWN_END	n/a	n/a	n/a	-999	3	[0, 0, 0]	n/a	FR1	0	R1229M
450.104	1.616	457167	ORIENT	n/a	n/a	n/a	-999	3	[0, 0, 0]	n/a	FR1	0	R1229M
451.72	2.202	458783	ORIENT_OFF	n/a	n/a	n/a	-999	3	[0, 0, 0]	n/a	FR1	0	R1229M
453.922	1.617	460985	WORD	n/a	wordpools/wordpool_EN.txt	SNAIL	1	3	[0, 0, 0]	n/a	FR1	0	R1229M
455.539	0.933	462601	WORD_OFF	n/a	n/a	SNAIL	1	3	[0, 0, 0]	n/a	FR1	0	R1229M
456.472	1.617	463534	WORD	n/a	wordpools/wordpool_EN.txt	HEART	2	3	[0, 0, 0]	n/a	FR1	0	R1229M
458.089	0.884	465151	WORD_OFF	n/a	n/a	HEART	2	3	[0, 0, 0]	n/a	FR1	0	R1229M
458.973	1.617	466035	WORD	n/a	wordpools/wordpool_EN.txt	BANK	3	3	[0, 0, 0]	n/a	FR1	0	R1229M
460.59	0.967	467652	WORD_OFF	n/a	n/a	BANK	3	3	[0, 0, 0]	n/a	FR1	0	R1229M
461.557	1.616	468619	WORD	n/a	wordpools/wordpool_EN.txt	FOX	4	3	[0, 0, 0]	n/a	FR1	0	R1229M
463.173	0.967	470235	WORD_OFF	n/a	n/a	FOX	4	3	[0, 0, 0]	n/a	FR1	0	R1229M
464.14	1.616	471202	WORD	n/a	wordpools/wordpool_EN.txt	WEB	5	3	[0, 0, 0]	n/a	FR1	0	R1229M
465.756	0.917	472818	WORD_OFF	n/a	n/a	WEB	5	3	[0, 0, 0]	n/a	FR1	0	R1229M
466.673	1.618	473735	WORD	n/a	wordpools/wordpool_EN.txt	SEA	6	3	[0, 0, 0]	n/a	FR1	0	R1229M
468.291	0.884	475353	WORD_OFF	n/a	n/a	SEA	6	3	[0, 0, 0]	n/a	FR1	0	R1229M
469.175	1.616	476237	WORD	n/a	wordpools/wordpool_EN.txt	BALL	7	3	[0, 0, 0]	n/a	FR1	0	R1229M
470.791	0.984	477853	WORD_OFF	n/a	n/a	BALL	7	3	[0, 0, 0]	n/a	FR1	0	R1229M
471.775	1.617	478837	WORD	n/a	wordpools/wordpool_EN.txt	PARK	8	3	[0, 0, 0]	n/a	FR1	0	R1229M
473.392	0.8	480453	WORD_OFF	n/a	n/a	PARK	8	3	[0, 0, 0]	n/a	FR1	0	R1229M
474.192	1.617	481253	WORD	n/a	wordpools/wordpool_EN.txt	CRANE	9	3	[0, 0, 0]	n/a	FR1	0	R1229M
475.809	0.767	482870	WORD_OFF	n/a	n/a	CRANE	9	3	[0, 0, 0]	n/a	FR1	0	R1229M
476.576	1.617	483637	WORD	n/a	wordpools/wordpool_EN.txt	PEARL	10	3	[0, 0, 0]	n/a	FR1	0	R1229M
478.193	1.017	485254	WORD_OFF	n/a	n/a	PEARL	10	3	[0, 0, 0]	n/a	FR1	0	R1229M
479.21	1.617	486271	WORD	n/a	wordpools/wordpool_EN.txt	BLUSH	11	3	[0, 0, 0]	n/a	FR1	0	R1229M
480.827	1.0	487888	WORD_OFF	n/a	n/a	BLUSH	11	3	[0, 0, 0]	n/a	FR1	0	R1229M
481.827	1.617	488888	WORD	n/a	wordpools/wordpool_EN.txt	HILL	12	3	[0, 0, 0]	n/a	FR1	0	R1229M
483.444	0.0	490505	WORD_OFF	n/a	n/a	HILL	12	3	[0, 0, 0]	n/a	FR1	0	R1229M
483.444	0.0	490505	DISTRACT_START	n/a	n/a	n/a	-999	3	[0, 0, 0]	n/a	FR1	0	R1229M
483.444	0.017	490505	START	n/a	n/a	n/a	-999	3	[-999, -999, -999]	n/a	FR1	0	R1229M
483.461	10.102	490522	PROB	10.102	n/a	n/a	-999	3	[1, 4, 7]	12	FR1	0	R1229M
493.563	3.784	500623	PROB	3.784	n/a	n/a	-999	3	[2, 3, 2]	7	FR1	0	R1229M
497.347	6.034	504407	PROB	6.034	n/a	n/a	-999	3	[8, 6, 1]	13	FR1	0	R1229M
503.381	10.642	510441	PROB	10.642	n/a	n/a	-999	3	[9, 8, 3]	21	FR1	0	R1229M
514.023	0.01	521082	STOP	n/a	n/a	n/a	-999	3	[-999, -999, -999]	n/a	FR1	0	R1229M
514.033	0.6	521092	DISTRACT_END	n/a	n/a	n/a	-999	3	[0, 0, 0]	n/a	FR1	0	R1229M
514.633	0.518	521692	RETRIEVAL_ORIENT	n/a	n/a	n/a	-999	3	[0, 0, 0]	n/a	FR1	0	R1229M
515.151	3.763	522210	REC_START	n/a	n/a	n/a	-999	3	[0, 0, 0]	n/a	FR1	0	R1229M
518.914	0.929	525973	REC_WORD	0.929	n/a	BALL	7	3	[0, 0, 0]	n/a	FR1	0	R1229M
519.843	1.904	526902	REC_WORD	1.904	n/a	PARK	8	3	[0, 0, 0]	n/a	FR1	0	R1229M
521.747	23.415	528806	REC_WORD	23.415	n/a	SNAIL	1	3	[0, 0, 0]	n/a	FR1	0	R1229M
545.162	29.8	552219	REC_END	n/a	n/a	n/a	-999	3	[0, 0, 0]	n/a	FR1	0	R1229M
574.962	0.5	582018	TRIAL	n/a	n/a	n/a	-999	4	[0, 0, 0]	n/a	FR1	0	R1229M
575.462	10.428	582518	COUNTDOWN_START	n/a	n/a	n/a	-999	4	[0, 0, 0]	n/a	FR1	0	R1229M
585.89	0.007	592945	COUNTDOWN_END	n/a	n/a	n/a	-999	4	[0, 0, 0]	n/a	FR1	0	R1229M
585.897	1.617	592952	ORIENT	n/a	n/a	n/a	-999	4	[0, 0, 0]	n/a	FR1	0	R1229M
587.514	1.967	594569	ORIENT_OFF	n/a	n/a	n/a	-999	4	[0, 0, 0]	n/a	FR1	0	R1229M
589.481	1.617	596536	WORD	n/a	wordpools/wordpool_EN.txt	BOWL	1	4	[0, 0, 0]	n/a	FR1	0	R1229M
591.098	0.9	598153	WORD_OFF	n/a	n/a	BOWL	1	4	[0, 0, 0]	n/a	FR1	0	R1229M
591.998	1.617	599053	WORD	n/a	wordpools/wordpool_EN.txt	TOOL	2	4	[0, 0, 0]	n/a	FR1	0	R1229M
593.615	0.85	600670	WORD_OFF	n/a	n/a	TOOL	2	4	[0, 0, 0]	n/a	FR1	0	R1229M
594.465	1.617	601519	WORD	n/a	wordpools/wordpool_EN.txt	SHEET	3	4	[0, 0, 0]	n/a	FR1	0	R1229M
596.082	0.834	603136	WORD_OFF	n/a	n/a	SHEET	3	4	[0, 0, 0]	n/a	FR1	0	R1229M
596.916	1.617	603970	WORD	n/a	wordpools/wordpool_EN.txt	PIT	4	4	[0, 0, 0]	n/a	FR1	0	R1229M
598.533	0.917	605587	WORD_OFF	n/a	n/a	PIT	4	4	[0, 0, 0]	n/a	FR1	0	R1229M
599.45	1.617	606504	WORD	n/a	wordpools/wordpool_EN.txt	STRAW	5	4	[0, 0, 0]	n/a	FR1	0	R1229M
601.067	0.9	608121	WORD_OFF	n/a	n/a	STRAW	5	4	[0, 0, 0]	n/a	FR1	0	R1229M
601.967	1.617	609021	WORD	n/a	wordpools/wordpool_EN.txt	GLASS	6	4	[0, 0, 0]	n/a	FR1	0	R1229M
603.584	1.0	610638	WORD_OFF	n/a	n/a	GLASS	6	4	[0, 0, 0]	n/a	FR1	0	R1229M
604.584	1.617	611638	WORD	n/a	wordpools/wordpool_EN.txt	BATH	7	4	[0, 0, 0]	n/a	FR1	0	R1229M
606.201	0.917	613255	WORD_OFF	n/a	n/a	BATH	7	4	[0, 0, 0]	n/a	FR1	0	R1229M
607.118	1.616	614172	WORD	n/a	wordpools/wordpool_EN.txt	CUBE	8	4	[0, 0, 0]	n/a	FR1	0	R1229M
608.734	0.851	615788	WORD_OFF	n/a	n/a	CUBE	8	4	[0, 0, 0]	n/a	FR1	0	R1229M
609.585	1.617	616639	WORD	n/a	wordpools/wordpool_EN.txt	BRIDGE	9	4	[0, 0, 0]	n/a	FR1	0	R1229M
611.202	0.984	618255	WORD_OFF	n/a	n/a	BRIDGE	9	4	[0, 0, 0]	n/a	FR1	0	R1229M
612.186	1.616	619239	WORD	n/a	wordpools/wordpool_EN.txt	SWAMP	10	4	[0, 0, 0]	n/a	FR1	0	R1229M
613.802	0.784	620855	WORD_OFF	n/a	n/a	SWAMP	10	4	[0, 0, 0]	n/a	FR1	0	R1229M
614.586	1.617	621639	WORD	n/a	wordpools/wordpool_EN.txt	TOE	11	4	[0, 0, 0]	n/a	FR1	0	R1229M
616.203	0.984	623256	WORD_OFF	n/a	n/a	TOE	11	4	[0, 0, 0]	n/a	FR1	0	R1229M
617.187	1.617	624240	WORD	n/a	wordpools/wordpool_EN.txt	PIPE	12	4	[0, 0, 0]	n/a	FR1	0	R1229M
618.804	0.0	625857	WORD_OFF	n/a	n/a	PIPE	12	4	[0, 0, 0]	n/a	FR1	0	R1229M
618.804	0.0	625857	DISTRACT_START	n/a	n/a	n/a	-999	4	[0, 0, 0]	n/a	FR1	0	R1229M
618.804	0.016	625857	START	n/a	n/a	n/a	-999	4	[-999, -999, -999]	n/a	FR1	0	R1229M
618.82	13.77	625873	PROB	13.77	n/a	n/a	-999	4	[7, 3, 8]	18	FR1	0	R1229M
632.59	9.832	639642	PROB	9.832	n/a	n/a	-999	4	[4, 9, 8]	21	FR1	0	R1229M
642.422	0.019	649474	STOP	n/a	n/a	n/a	-999	4	[-999, -999, -999]	n/a	FR1	0	R1229M
642.441	0.701	649493	DISTRACT_END	n/a	n/a	n/a	-999	4	[0, 0, 0]	n/a	FR1	0	R1229M
643.142	0.517	650194	RETRIEVAL_ORIENT	n/a	n/a	n/a	-999	4	[0, 0, 0]	n/a	FR1	0	R1229M
643.659	2.405	650711	REC_START	n/a	n/a	n/a	-999	4	[0, 0, 0]	n/a	FR1	0	R1229M
646.064	0.583	653115	REC_WORD	0.583	n/a	TOOL	2	4	[0, 0, 0]	n/a	FR1	0	R1229M
646.647	1.874	653698	REC_WORD	1.874	n/a	SHEET	3	4	[0, 0, 0]	n/a	FR1	0	R1229M
648.521	25.148	655572	REC_WORD	25.148	n/a	BRIDGE	9	4	[0, 0, 0]	n/a	FR1	0	R1229M
673.669	9.18	680719	REC_END	n/a	n/a	n/a	-999	4	[0, 0, 0]	n/a	FR1	0	R1229M
682.849	0.5	689898	TRIAL	n/a	n/a	n/a	-999	5	[0, 0, 0]	n/a	FR1	0	R1229M
683.349	10.428	690398	COUNTDOWN_START	n/a	n/a	n/a	-999	5	[0, 0, 0]	n/a	FR1	0	R1229M
693.777	0.008	700826	COUNTDOWN_END	n/a	n/a	n/a	-999	5	[0, 0, 0]	n/a	FR1	0	R1229M
693.785	1.617	700834	ORIENT	n/a	n/a	n/a	-999	5	[0, 0, 0]	n/a	FR1	0	R1229M
695.402	1.967	702451	ORIENT_OFF	n/a	n/a	n/a	-999	5	[0, 0, 0]	n/a	FR1	0	R1229M
697.369	1.617	704418	WORD	n/a	wordpools/wordpool_EN.txt	PET	1	5	[0, 0, 0]	n/a	FR1	0	R1229M
698.986	0.85	706034	WORD_OFF	n/a	n/a	PET	1	5	[0, 0, 0]	n/a	FR1	0	R1229M
699.836	1.617	706884	WORD	n/a	wordpools/wordpool_EN.txt	ZOO	2	5	[0, 0, 0]	n/a	FR1	0	R1229M
701.453	0.767	708501	WORD_OFF	n/a	n/a	ZOO	2	5	[0, 0, 0]	n/a	FR1	0	R1229M
702.22	1.617	709268	WORD	n/a	wordpools/wordpool_EN.txt	SHIP	3	5	[0, 0, 0]	n/a	FR1	0	R1229M
703.837	0.8	710885	WORD_OFF	n/a	n/a	SHIP	3	5	[0, 0, 0]	n/a	FR1	0	R1229M
704.637	1.617	711685	WORD	n/a	wordpools/wordpool_EN.txt	PEAR	4	5	[0, 0, 0]	n/a	FR1	0	R1229M
706.254	0.933	713302	WORD_OFF	n/a	n/a	PEAR	4	5	[0, 0, 0]	n/a	FR1	0	R1229M
707.187	1.617	714235	WORD	n/a	wordpools/wordpool_EN.txt	TREE	5	5	[0, 0, 0]	n/a	FR1	0	R1229M
708.804	0.783	715852	WORD_OFF	n/a	n/a	TREE	5	5	[0, 0, 0]	n/a	FR1	0	R1229M
709.587	1.618	716635	WORD	n/a	wordpools/wordpool_EN.txt	GOAT	6	5	[0, 0, 0]	n/a	FR1	0	R1229M
711.205	0.85	718253	WORD_OFF	n/a	n/a	GOAT	6	5	[0, 0, 0]	n/a	FR1	0	R1229M
712.055	1.616	719103	WORD	n/a	wordpools/wordpool_EN.txt	STAIR	7	5	[0, 0, 0]	n/a	FR1	0	R1229M
713.671	0.851	720719	WORD_OFF	n/a	n/a	STAIR	7	5	[0, 0, 0]	n/a	FR1	0	R1229M
714.522	1.617	721570	WORD	n/a	wordpools/wordpool_EN.txt	FORT	8	5	[0, 0, 0]	n/a	FR1	0	R1229M
716.139	0.817	723186	WORD_OFF	n/a	n/a	FORT	8	5	[0, 0, 0]	n/a	FR1	0	R1229M
716.956	1.617	724003	WORD	n/a	wordpools/wordpool_EN.txt	JET	9	5	[0, 0, 0]	n/a	FR1	0	R1229M
718.573	0.833	725620	WORD_OFF	n/a	n/a	JET	9	5	[0, 0, 0]	n/a	FR1	0	R1229M
719.406	1.617	726453	WORD	n/a	wordpools/wordpool_EN.txt	MAIL	10	5	[0, 0, 0]	n/a	FR1	0	R1229M
721.023	0.817	728070	WORD_OFF	n/a	n/a	MAIL	10	5	[0, 0, 0]	n/a	FR1	0	R1229M
721.84	1.617	728887	WORD	n/a	wordpools/wordpool_EN.txt	BOAT	11	5	[0, 0, 0]	n/a	FR1	0	R1229M
723.457	1.0	730504	WORD_OFF	n/a	n/a	BOAT	11	5	[0, 0, 0]	n/a	FR1	0	R1229M
724.457	1.617	731504	WORD	n/a	wordpools/wordpool_EN.txt	EEL	12	5	[0, 0, 0]	n/a	FR1	0	R1229M
726.074	0.0	733121	DISTRACT_START	n/a	n/a	n/a	-999	5	[0, 0, 0]	n/a	FR1	0	R1229M
726.074	0.001	733121	WORD_OFF	n/a	n/a	EEL	12	5	[0, 0, 0]	n/a	FR1	0	R1229M
726.075	0.016	733122	START	n/a	n/a	n/a	-999	5	[-999, -999, -999]	n/a	FR1	0	R1229M
726.091	6.518	733138	PROB	6.518	n/a	n/a	-999	5	[2, 3, 7]	12	FR1	0	R1229M
732.609	5.15	739656	PROB	5.15	n/a	n/a	-999	5	[1, 5, 2]	8	FR1	0	R1229M
737.759	5.319	744805	PROB	5.319	n/a	n/a	-999	5	[9, 4, 6]	19	FR1	0	R1229M
743.078	6.63	750124	PROB	6.63	n/a	n/a	-999	5	[1, 4, 9]	14	FR1	0	R1229M
749.708	0.02	756754	STOP	n/a	n/a	n/a	-999	5	[-999, -999, -999]	n/a	FR1	0	R1229M
749.728	0.534	756774	DISTRACT_END	n/a	n/a	n/a	-999	5	[0, 0, 0]	n/a	FR1	0	R1229M
750.262	0.518	757308	RETRIEVAL_ORIENT	n/a	n/a	n/a	-999	5	[0, 0, 0]	n/a	FR1	0	R1229M
750.78	3.051	757825	REC_START	n/a	n/a	n/a	-999	5	[0, 0, 0]	n/a	FR1	0	R1229M
753.831	1.082	760876	REC_WORD	1.082	n/a	EEL	12	5	[0, 0, 0]	n/a	FR1	0	R1229M
754.913	5.165	761958	REC_WORD	5.165	n/a	PET	1	5	[0, 0, 0]	n/a	FR1	0	R1229M
760.078	10.529	767123	REC_WORD	10.529	n/a	ZOO	2	5	[0, 0, 0]	n/a	FR1	0	R1229M
770.607	10.183	777651	REC_WORD	10.183	n/a	SAIL	-999	5	[0, 0, 0]	n/a	FR1	0	R1229M
780.79	24.133	787834	REC_END	n/a	n/a	n/a	-999	5	[0, 0, 0]	n/a	FR1	0	R1229M
804.923	0.5	811965	TRIAL	n/a	n/a	n/a	-999	6	[0, 0, 0]	n/a	FR1	0	R1229M
805.423	10.428	812465	COUNTDOWN_START	n/a	n/a	n/a	-999	6	[0, 0, 0]	n/a	FR1	0	R1229M
815.851	0.007	822893	COUNTDOWN_END	n/a	n/a	n/a	-999	6	[0, 0, 0]	n/a	FR1	0	R1229M
815.858	1.617	822900	ORIENT	n/a	n/a	n/a	-999	6	[0, 0, 0]	n/a	FR1	0	R1229M
817.475	1.834	824517	ORIENT_OFF	n/a	n/a	n/a	-999	6	[0, 0, 0]	n/a	FR1	0	R1229M
819.309	1.617	826351	WORD	n/a	wordpools/wordpool_EN.txt	MAZE	1	6	[0, 0, 0]	n/a	FR1	0	R1229M
820.926	0.95	827967	WORD_OFF	n/a	n/a	MAZE	1	6	[0, 0, 0]	n/a	FR1	0	R1229M
821.876	1.617	828917	WORD	n/a	wordpools/wordpool_EN.txt	TOY	2	6	[0, 0, 0]	n/a	FR1	0	R1229M
823.493	1.017	830534	WORD_OFF	n/a	n/a	TOY	2	6	[0, 0, 0]	n/a	FR1	0	R1229M
824.51	1.617	831551	WORD	n/a	wordpools/wordpool_EN.txt	SAIL	3	6	[0, 0, 0]	n/a	FR1	0	R1229M
826.127	0.867	833168	WORD_OFF	n/a	n/a	SAIL	3	6	[0, 0, 0]	n/a	FR1	0	R1229M
826.994	1.617	834035	WORD	n/a	wordpools/wordpool_EN.txt	SNOW	4	6	[0, 0, 0]	n/a	FR1	0	R1229M
828.611	0.85	835652	WORD_OFF	n/a	n/a	SNOW	4	6	[0, 0, 0]	n/a	FR1	0	R1229M
829.461	1.617	836502	WORD	n/a	wordpools/wordpool_EN.txt	ARM	5	6	[0, 0, 0]	n/a	FR1	0	R1229M
831.078	0.767	838119	WORD_OFF	n/a	n/a	ARM	5	6	[0, 0, 0]	n/a	FR1	0	R1229M
831.845	1.617	838886	WORD	n/a	wordpools/wordpool_EN.txt	TOOTH	6	6	[0, 0, 0]	n/a	FR1	0	R1229M
833.462	0.867	840503	WORD_OFF	n/a	n/a	TOOTH	6	6	[0, 0, 0]	n/a	FR1	0	R1229M
834.329	1.617	841370	WORD	n/a	wordpools/wordpool_EN.txt	FLAG	7	6	[0, 0, 0]	n/a	FR1	0	R1229M
835.946	0.933	842987	WORD_OFF	n/a	n/a	FLAG	7	6	[0, 0, 0]	n/a	FR1	0	R1229M
836.879	1.617	843920	WORD	n/a	wordpools/wordpool_EN.txt	CAT	8	6	[0, 0, 0]	n/a	FR1	0	R1229M
838.496	0.95	845536	WORD_OFF	n/a	n/a	CAT	8	6	[0, 0, 0]	n/a	FR1	0	R1229M
839.446	1.617	846486	WORD	n/a	wordpools/wordpool_EN.txt	ICE	9	6	[0, 0, 0]	n/a	FR1	0	R1229M
841.063	1.017	848103	WORD_OFF	n/a	n/a	ICE	9	6	[0, 0, 0]	n/a	FR1	0	R1229M
842.08	1.616	849120	WORD	n/a	wordpools/wordpool_EN.txt	LAND	10	6	[0, 0, 0]	n/a	FR1	0	R1229M
843.696	0.835	850736	WORD_OFF	n/a	n/a	LAND	10	6	[0, 0, 0]	n/a	FR1	0	R1229M
844.531	1.617	851571	WORD	n/a	wordpools/wordpool_EN.txt	RAKE	11	6	[0, 0, 0]	n/a	FR1	0	R1229M
846.148	0.933	853188	WORD_OFF	n/a	n/a	RAKE	11	6	[0, 0, 0]	n/a	FR1	0	R1229M
847.081	1.616	854121	WORD	n/a	wordpools/wordpool_EN.txt	RAIN	12	6	[0, 0, 0]	n/a	FR1	0	R1229M
848.697	0.0	855737	WORD_OFF	n/a	n/a	RAIN	12	6	[0, 0, 0]	n/a	FR1	0	R1229M
848.697	0.001	855737	DISTRACT_START	n/a	n/a	n/a	-999	6	[0, 0, 0]	n/a	FR1	0	R1229M
848.698	0.016	855738	START	n/a	n/a	n/a	-999	6	[-999, -999, -999]	n/a	FR1	0	R1229M
848.714	5.602	855754	PROB	5.602	n/a	n/a	-999	6	[7, 4, 1]	13	FR1	0	R1229M
854.316	11.352	861356	PROB	11.352	n/a	n/a	-999	6	[5, 9, 5]	19	FR1	0	R1229M
865.668	7.594	872707	PROB	7.594	n/a	n/a	-999	6	[7, 8, 1]	16	FR1	0	R1229M
873.262	0.008	880300	STOP	n/a	n/a	n/a	-999	6	[-999, -999, -999]	n/a	FR1	0	R1229M
873.27	0.583	880308	DISTRACT_END	n/a	n/a	n/a	-999	6	[0, 0, 0]	n/a	FR1	0	R1229M
873.853	0.517	880891	RETRIEVAL_ORIENT	n/a	n/a	n/a	-999	6	[0, 0, 0]	n/a	FR1	0	R1229M
874.37	3.164	881408	REC_START	n/a	n/a	n/a	-999	6	[0, 0, 0]	n/a	FR1	0	R1229M
877.534	1.196	884572	REC_WORD	1.196	n/a	SAIL	3	6	[0, 0, 0]	n/a	FR1	0	R1229M
878.73	1.658	885768	REC_WORD	1.658	n/a	LAND	10	6	[0, 0, 0]	n/a	FR1	0	R1229M
880.388	23.993	887426	REC_WORD	23.993	n/a	RAKE	11	6	[0, 0, 0]	n/a	FR1	0	R1229M
904.381	15.898	911418	REC_END	n/a	n/a	n/a	-999	6	[0, 0, 0]	n/a	FR1	0	R1229M
920.279	0.5	927315	TRIAL	n/a	n/a	n/a	-999	7	[0, 0, 0]	n/a	FR1	0	R1229M
920.779	10.428	927815	COUNTDOWN_START	n/a	n/a	n/a	-999	7	[0, 0, 0]	n/a	FR1	0	R1229M
931.207	0.007	938242	COUNTDOWN_END	n/a	n/a	n/a	-999	7	[0, 0, 0]	n/a	FR1	0	R1229M
931.214	1.617	938249	ORIENT	n/a	n/a	n/a	-999	7	[0, 0, 0]	n/a	FR1	0	R1229M
932.831	1.95	939866	ORIENT_OFF	n/a	n/a	n/a	-999	7	[0, 0, 0]	n/a	FR1	0	R1229M
934.781	1.617	941816	WORD	n/a	wordpools/wordpool_EN.txt	VASE	1	7	[0, 0, 0]	n/a	FR1	0	R1229M
936.398	0.784	943433	WORD_OFF	n/a	n/a	VASE	1	7	[0, 0, 0]	n/a	FR1	0	R1229M
937.182	1.617	944217	WORD	n/a	wordpools/wordpool_EN.txt	STEAM	2	7	[0, 0, 0]	n/a	FR1	0	R1229M
938.799	0.817	945834	WORD_OFF	n/a	n/a	STEAM	2	7	[0, 0, 0]	n/a	FR1	0	R1229M
939.616	1.617	946651	WORD	n/a	wordpools/wordpool_EN.txt	MILK	3	7	[0, 0, 0]	n/a	FR1	0	R1229M
941.233	0.933	948268	WORD_OFF	n/a	n/a	MILK	3	7	[0, 0, 0]	n/a	FR1	0	R1229M
942.166	1.617	949200	WORD	n/a	wordpools/wordpool_EN.txt	JUDGE	4	7	[0, 0, 0]	n/a	FR1	0	R1229M
943.783	1.017	950817	WORD_OFF	n/a	n/a	JUDGE	4	7	[0, 0, 0]	n/a	FR1	0	R1229M
944.8	1.617	951834	WORD	n/a	wordpools/wordpool_EN.txt	RICE	5	7	[0, 0, 0]	n/a	FR1	0	R1229M
946.417	0.95	953451	WORD_OFF	n/a	n/a	RICE	5	7	[0, 0, 0]	n/a	FR1	0	R1229M
947.367	1.617	954401	WORD	n/a	wordpools/wordpool_EN.txt	WEED	6	7	[0, 0, 0]	n/a	FR1	0	R1229M
948.984	0.884	956018	WORD_OFF	n/a	n/a	WEED	6	7	[0, 0, 0]	n/a	FR1	0	R1229M
949.868	1.617	956902	WORD	n/a	wordpools/wordpool_EN.txt	BOY	7	7	[0, 0, 0]	n/a	FR1	0	R1229M
951.485	0.916	958519	WORD_OFF	n/a	n/a	BOY	7	7	[0, 0, 0]	n/a	FR1	0	R1229M
952.401	1.618	959435	WORD	n/a	wordpools/wordpool_EN.txt	RAT	8	7	[0, 0, 0]	n/a	FR1	0	R1229M
954.019	0.983	961053	WORD_OFF	n/a	n/a	RAT	8	7	[0, 0, 0]	n/a	FR1	0	R1229M
955.002	1.617	962036	WORD	n/a	wordpools/wordpool_EN.txt	DRUM	9	7	[0, 0, 0]	n/a	FR1	0	R1229M
956.619	0.833	963653	WORD_OFF	n/a	n/a	DRUM	9	7	[0, 0, 0]	n/a	FR1	0	R1229M
957.452	1.618	964486	WORD	n/a	wordpools/wordpool_EN.txt	SKI	10	7	[0, 0, 0]	n/a	FR1	0	R1229M
959.07	0.966	966103	WORD_OFF	n/a	n/a	SKI	10	7	[0, 0, 0]	n/a	FR1	0	R1229M
960.036	1.617	967069	WORD	n/a	wordpools/wordpool_EN.txt	DOLL	11	7	[0, 0, 0]	n/a	FR1	0	R1229M
961.653	0.767	968686	WORD_OFF	n/a	n/a	DOLL	11	7	[0, 0, 0]	n/a	FR1	0	R1229M
962.42	1.617	969453	WORD	n/a	wordpools/wordpool_EN.txt	TOAD	12	7	[0, 0, 0]	n/a	FR1	0	R1229M
964.037	0.0	971070	WORD_OFF	n/a	n/a	TOAD	12	7	[0, 0, 0]	n/a	FR1	0	R1229M
964.037	0.001	971070	DISTRACT_START	n/a	n/a	n/a	-999	7	[0, 0, 0]	n/a	FR1	0	R1229M
964.038	0.016	971071	START	n/a	n/a	n/a	-999	7	[-999, -999, -999]	n/a	FR1	0	R1229M
964.054	7.034	971087	PROB	7.034	n/a	n/a	-999	7	[4, 8, 3]	15	FR1	0	R1229M
971.088	8.152	978121	PROB	8.152	n/a	n/a	-999	7	[5, 7, 9]	21	FR1	0	R1229M
979.24	11.782	986272	PROB	11.782	n/a	n/a	-999	7	[8, 7, 8]	23	FR1	0	R1229M
991.022	0.02	998054	STOP	n/a	n/a	n/a	-999	7	[-999, -999, -999]	n/a	FR1	0	R1229M
991.042	0.699	998074	DISTRACT_END	n/a	n/a	n/a	-999	7	[0, 0, 0]	n/a	FR1	0	R1229M
991.741	0.519	998773	RETRIEVAL_ORIENT	n/a	n/a	n/a	-999	7	[0, 0, 0]	n/a	FR1	0	R1229M
992.26	30.0	999292	REC_START	n/a	n/a	n/a	-999	7	[0, 0, 0]	n/a	FR1	0	R1229M
1022.26	0.011	1029290	REC_WORD_VV	0.011	n/a	<>	-999	7	[0, 0, 0]	n/a	FR1	0	R1229M
1022.271	12.213	1029301	REC_END	n/a	n/a	n/a	-999	7	[0, 0, 0]	n/a	FR1	0	R1229M
1034.484	0.5	1041513	TRIAL	n/a	n/a	n/a	-999	8	[0, 0, 0]	n/a	FR1	0	R1229M
1034.984	10.428	1042013	COUNTDOWN_START	n/a	n/a	n/a	-999	8	[0, 0, 0]	n/a	FR1	0	R1229M
1045.412	0.008	1052441	COUNTDOWN_END	n/a	n/a	n/a	-999	8	[0, 0, 0]	n/a	FR1	0	R1229M
1045.42	1.617	1052449	ORIENT	n/a	n/a	n/a	-999	8	[0, 0, 0]	n/a	FR1	0	R1229M
1047.037	2.2	1054065	ORIENT_OFF	n/a	n/a	n/a	-999	8	[0, 0, 0]	n/a	FR1	0	R1229M
1049.237	1.617	1056265	WORD	n/a	wordpools/wordpool_EN.txt	PEACH	1	8	[0, 0, 0]	n/a	FR1	0	R1229M
1050.854	0.866	1057882	WORD_OFF	n/a	n/a	PEACH	1	8	[0, 0, 0]	n/a	FR1	0	R1229M
1051.72	1.618	1058748	WORD	n/a	wordpools/wordpool_EN.txt	HORN	2	8	[0, 0, 0]	n/a	FR1	0	R1229M
1053.338	0.85	1060366	WORD_OFF	n/a	n/a	HORN	2	8	[0, 0, 0]	n/a	FR1	0	R1229M
1054.188	1.617	1061216	WORD	n/a	wordpools/wordpool_EN.txt	LOCK	3	8	[0, 0, 0]	n/a	FR1	0	R1229M
1055.805	0.983	1062833	WORD_OFF	n/a	n/a	LOCK	3	8	[0, 0, 0]	n/a	FR1	0	R1229M
1056.788	1.617	1063816	WORD	n/a	wordpools/wordpool_EN.txt	WALL	4	8	[0, 0, 0]	n/a	FR1	0	R1229M
1058.405	0.784	1065433	WORD_OFF	n/a	n/a	WALL	4	8	[0, 0, 0]	n/a	FR1	0	R1229M
1059.189	1.617	1066217	WORD	n/a	wordpools/wordpool_EN.txt	STOVE	5	8	[0, 0, 0]	n/a	FR1	0	R1229M
1060.806	0.882	1067834	WORD_OFF	n/a	n/a	STOVE	5	8	[0, 0, 0]	n/a	FR1	0	R1229M
1061.688	1.618	1068716	WORD	n/a	wordpools/wordpool_EN.txt	BENCH	6	8	[0, 0, 0]	n/a	FR1	0	R1229M
1063.306	0.934	1070334	WORD_OFF	n/a	n/a	BENCH	6	8	[0, 0, 0]	n/a	FR1	0	R1229M
1064.24	1.617	1071267	WORD	n/a	wordpools/wordpool_EN.txt	WHALE	7	8	[0, 0, 0]	n/a	FR1	0	R1229M
1065.857	0.866	1072884	WORD_OFF	n/a	n/a	WHALE	7	8	[0, 0, 0]	n/a	FR1	0	R1229M
1066.723	1.601	1073750	WORD	n/a	wordpools/wordpool_EN.txt	CLOTH	8	8	[0, 0, 0]	n/a	FR1	0	R1229M
1068.324	0.9	1075351	WORD_OFF	n/a	n/a	CLOTH	8	8	[0, 0, 0]	n/a	FR1	0	R1229M
1069.224	1.617	1076251	WORD	n/a	wordpools/wordpool_EN.txt	NAIL	9	8	[0, 0, 0]	n/a	FR1	0	R1229M
1070.841	0.95	1077868	WORD_OFF	n/a	n/a	NAIL	9	8	[0, 0, 0]	n/a	FR1	0	R1229M
1071.791	1.617	1078818	WORD	n/a	wordpools/wordpool_EN.txt	SCHOOL	10	8	[0, 0, 0]	n/a	FR1	0	R1229M
1073.408	0.783	1080435	WORD_OFF	n/a	n/a	SCHOOL	10	8	[0, 0, 0]	n/a	FR1	0	R1229M
1074.191	1.618	1081218	WORD	n/a	wordpools/wordpool_EN.txt	VINE	11	8	[0, 0, 0]	n/a	FR1	0	R1229M
1075.809	0.983	1082836	WORD_OFF	n/a	n/a	VINE	11	8	[0, 0, 0]	n/a	FR1	0	R1229M
1076.792	1.617	1083819	WORD	n/a	wordpools/wordpool_EN.txt	BOARD	12	8	[0, 0, 0]	n/a	FR1	0	R1229M
1078.409	0.0	1085436	WORD_OFF	n/a	n/a	BOARD	12	8	[0, 0, 0]	n/a	FR1	0	R1229M
1078.409	0.001	1085436	DISTRACT_START	n/a	n/a	n/a	-999	8	[0, 0, 0]	n/a	FR1	0	R1229M
1078.41	0.016	1085437	START	n/a	n/a	n/a	-999	8	[-999, -999, -999]	n/a	FR1	0	R1229M
1078.426	13.886	1085453	PROB	13.886	n/a	n/a	-999	8	[6, 3, 7]	16	FR1	0	R1229M
1092.312	9.454	1099338	PROB	9.454	n/a	n/a	-999	8	[1, 5, 4]	10	FR1	0	R1229M
1101.766	0.014	1108791	STOP	n/a	n/a	n/a	-999	8	[-999, -999, -999]	n/a	FR1	0	R1229M
1101.78	0.667	1108805	DISTRACT_END	n/a	n/a	n/a	-999	8	[0, 0, 0]	n/a	FR1	0	R1229M
1102.447	0.518	1109472	RETRIEVAL_ORIENT	n/a	n/a	n/a	-999	8	[0, 0, 0]	n/a	FR1	0	R1229M
1102.965	2.032	1109990	REC_START	n/a	n/a	n/a	-999	8	[0, 0, 0]	n/a	FR1	0	R1229M
1104.997	2.661	1112022	REC_WORD	2.661	n/a	WHALE	7	8	[0, 0, 0]	n/a	FR1	0	R1229M
1107.658	25.317	1114683	REC_WORD	25.317	n/a	BEACH	-999	8	[0, 0, 0]	n/a	FR1	0	R1229M
1132.975	33.717	1139999	REC_END	n/a	n/a	n/a	-999	8	[0, 0, 0]	n/a	FR1	0	R1229M
1166.692	0.5	1173714	TRIAL	n/a	n/a	n/a	-999	9	[0, 0, 0]	n/a	FR1	0	R1229M
1167.192	10.428	1174214	COUNTDOWN_START	n/a	n/a	n/a	-999	9	[0, 0, 0]	n/a	FR1	0	R1229M
1177.62	0.008	1184641	COUNTDOWN_END	n/a	n/a	n/a	-999	9	[0, 0, 0]	n/a	FR1	0	R1229M
1177.628	1.617	1184649	ORIENT	n/a	n/a	n/a	-999	9	[0, 0, 0]	n/a	FR1	0	R1229M
1179.245	2.001	1186266	ORIENT_OFF	n/a	n/a	n/a	-999	9	[0, 0, 0]	n/a	FR1	0	R1229M
1181.246	1.617	1188267	WORD	n/a	wordpools/wordpool_EN.txt	BOOT	1	9	[0, 0, 0]	n/a	FR1	0	R1229M
1182.863	0.767	1189884	WORD_OFF	n/a	n/a	BOOT	1	9	[0, 0, 0]	n/a	FR1	0	R1229M
1183.63	1.617	1190651	WORD	n/a	wordpools/wordpool_EN.txt	STOOL	2	9	[0, 0, 0]	n/a	FR1	0	R1229M
1185.247	0.816	1192267	WORD_OFF	n/a	n/a	STOOL	2	9	[0, 0, 0]	n/a	FR1	0	R1229M
1186.063	1.616	1193083	WORD	n/a	wordpools/wordpool_EN.txt	CART	3	9	[0, 0, 0]	n/a	FR1	0	R1229M
1187.679	1.001	1194699	WORD_OFF	n/a	n/a	CART	3	9	[0, 0, 0]	n/a	FR1	0	R1229M
1188.68	1.618	1195700	WORD	n/a	wordpools/wordpool_EN.txt	DIME	4	9	[0, 0, 0]	n/a	FR1	0	R1229M
1190.298	1.0	1197318	WORD_OFF	n/a	n/a	DIME	4	9	[0, 0, 0]	n/a	FR1	0	R1229M
1191.298	1.617	1198318	WORD	n/a	wordpools/wordpool_EN.txt	PEA	5	9	[0, 0, 0]	n/a	FR1	0	R1229M
1192.915	0.85	1199935	WORD_OFF	n/a	n/a	PEA	5	9	[0, 0, 0]	n/a	FR1	0	R1229M
1193.765	1.617	1200785	WORD	n/a	wordpools/wordpool_EN.txt	CLAY	6	9	[0, 0, 0]	n/a	FR1	0	R1229M
1195.382	1.017	1202402	WORD_OFF	n/a	n/a	CLAY	6	9	[0, 0, 0]	n/a	FR1	0	R1229M
1196.399	1.617	1203419	WORD	n/a	wordpools/wordpool_EN.txt	CROWN	7	9	[0, 0, 0]	n/a	FR1	0	R1229M
1198.016	0.95	1205036	WORD_OFF	n/a	n/a	CROWN	7	9	[0, 0, 0]	n/a	FR1	0	R1229M
1198.966	1.617	1205986	WORD	n/a	wordpools/wordpool_EN.txt	STEAK	8	9	[0, 0, 0]	n/a	FR1	0	R1229M
1200.583	0.85	1207603	WORD_OFF	n/a	n/a	STEAK	8	9	[0, 0, 0]	n/a	FR1	0	R1229M
1201.433	1.617	1208453	WORD	n/a	wordpools/wordpool_EN.txt	CALF	9	9	[0, 0, 0]	n/a	FR1	0	R1229M
1203.05	0.85	1210069	WORD_OFF	n/a	n/a	CALF	9	9	[0, 0, 0]	n/a	FR1	0	R1229M
1203.9	1.617	1210919	WORD	n/a	wordpools/wordpool_EN.txt	TIE	10	9	[0, 0, 0]	n/a	FR1	0	R1229M
1205.517	0.817	1212536	WORD_OFF	n/a	n/a	TIE	10	9	[0, 0, 0]	n/a	FR1	0	R1229M
1206.334	1.617	1213353	WORD	n/a	wordpools/wordpool_EN.txt	HAND	11	9	[0, 0, 0]	n/a	FR1	0	R1229M
1207.951	0.984	1214970	WORD_OFF	n/a	n/a	HAND	11	9	[0, 0, 0]	n/a	FR1	0	R1229M
1208.935	1.617	1215954	WORD	n/a	wordpools/wordpool_EN.txt	GRASS	12	9	[0, 0, 0]	n/a	FR1	0	R1229M
1210.552	0.0	1217571	WORD_OFF	n/a	n/a	GRASS	12	9	[0, 0, 0]	n/a	FR1	0	R1229M
1210.552	0.0	1217571	DISTRACT_START	n/a	n/a	n/a	-999	9	[0, 0, 0]	n/a	FR1	0	R1229M
1210.552	0.016	1217571	START	n/a	n/a	n/a	-999	9	[-999, -999, -999]	n/a	FR1	0	R1229M
1210.568	7.668	1217587	PROB	7.668	n/a	n/a	-999	9	[4, 7, 7]	18	FR1	0	R1229M
1218.236	8.085	1225255	PROB	8.085	n/a	n/a	-999	9	[6, 5, 4]	15	FR1	0	R1229M
1226.321	7.125	1233339	PROB	7.125	n/a	n/a	-999	9	[9, 9, 4]	22	FR1	0	R1229M
1233.446	0.01	1240464	STOP	n/a	n/a	n/a	-999	9	[-999, -999, -999]	n/a	FR1	0	R1229M
1233.456	0.633	1240474	DISTRACT_END	n/a	n/a	n/a	-999	9	[0, 0, 0]	n/a	FR1	0	R1229M
1234.089	0.518	1241107	RETRIEVAL_ORIENT	n/a	n/a	n/a	-999	9	[0, 0, 0]	n/a	FR1	0	R1229M
1234.607	2.658	1241625	REC_START	n/a	n/a	n/a	-999	9	[0, 0, 0]	n/a	FR1	0	R1229M
1237.265	0.97	1244283	REC_WORD	0.97	n/a	CALF	9	9	[0, 0, 0]	n/a	FR1	0	R1229M
1238.235	8.253	1245252	REC_WORD	8.253	n/a	TIE	10	9	[0, 0, 0]	n/a	FR1	0	R1229M
1246.488	18.13	1253505	REC_WORD	18.13	n/a	HAND	11	9	[0, 0, 0]	n/a	FR1	0	R1229M
1264.618	26.416	1271634	REC_END	n/a	n/a	n/a	-999	9	[0, 0, 0]	n/a	FR1	0	R1229M
1291.034	0.5	1298048	TRIAL	n/a	n/a	n/a	-999	10	[0, 0, 0]	n/a	FR1	0	R1229M
1291.534	10.428	1298548	COUNTDOWN_START	n/a	n/a	n/a	-999	10	[0, 0, 0]	n/a	FR1	0	R1229M
1301.962	0.007	1308976	COUNTDOWN_END	n/a	n/a	n/a	-999	10	[0, 0, 0]	n/a	FR1	0	R1229M
1301.969	1.617	1308983	ORIENT	n/a	n/a	n/a	-999	10	[0, 0, 0]	n/a	FR1	0	R1229M
1303.586	1.984	1310600	ORIENT_OFF	n/a	n/a	n/a	-999	10	[0, 0, 0]	n/a	FR1	0	R1229M
1305.57	1.617	1312584	WORD	n/a	wordpools/wordpool_EN.txt	WAND	1	10	[0, 0, 0]	n/a	FR1	0	R1229M
1307.187	0.917	1314200	WORD_OFF	n/a	n/a	WAND	1	10	[0, 0, 0]	n/a	FR1	0	R1229M
1308.104	1.616	1315117	WORD	n/a	wordpools/wordpool_EN.txt	STRING	2	10	[0, 0, 0]	n/a	FR1	0	R1229M
1309.72	0.801	1316733	WORD_OFF	n/a	n/a	STRING	2	10	[0, 0, 0]	n/a	FR1	0	R1229M
1310.521	1.617	1317534	WORD	n/a	wordpools/wordpool_EN.txt	CLOCK	3	10	[0, 0, 0]	n/a	FR1	0	R1229M
1312.138	0.95	1319151	WORD_OFF	n/a	n/a	CLOCK	3	10	[0, 0, 0]	n/a	FR1	0	R1229M
1313.088	1.616	1320101	WORD	n/a	wordpools/wordpool_EN.txt	CLOUD	4	10	[0, 0, 0]	n/a	FR1	0	R1229M
1314.704	0.984	1321717	WORD_OFF	n/a	n/a	CLOUD	4	10	[0, 0, 0]	n/a	FR1	0	R1229M
1315.688	1.618	1322701	WORD	n/a	wordpools/wordpool_EN.txt	FLOOR	5	10	[0, 0, 0]	n/a	FR1	0	R1229M
1317.306	0.916	1324319	WORD_OFF	n/a	n/a	FLOOR	5	10	[0, 0, 0]	n/a	FR1	0	R1229M
1318.222	1.617	1325235	WORD	n/a	wordpools/wordpool_EN.txt	DITCH	6	10	[0, 0, 0]	n/a	FR1	0	R1229M
1319.839	0.883	1326852	WORD_OFF	n/a	n/a	DITCH	6	10	[0, 0, 0]	n/a	FR1	0	R1229M
1320.722	1.618	1327735	WORD	n/a	wordpools/wordpool_EN.txt	TEETH	7	10	[0, 0, 0]	n/a	FR1	0	R1229M
1322.34	0.85	1329353	WORD_OFF	n/a	n/a	TEETH	7	10	[0, 0, 0]	n/a	FR1	0	R1229M
1323.19	1.617	1330203	WORD	n/a	wordpools/wordpool_EN.txt	INK	8	10	[0, 0, 0]	n/a	FR1	0	R1229M
1324.807	0.899	1331819	WORD_OFF	n/a	n/a	INK	8	10	[0, 0, 0]	n/a	FR1	0	R1229M
1325.706	1.601	1332718	WORD	n/a	wordpools/wordpool_EN.txt	HOSE	9	10	[0, 0, 0]	n/a	FR1	0	R1229M
1327.307	0.901	1334319	WORD_OFF	n/a	n/a	HOSE	9	10	[0, 0, 0]	n/a	FR1	0	R1229M
1328.208	1.617	1335220	WORD	n/a	wordpools/wordpool_EN.txt	WOOD	10	10	[0, 0, 0]	n/a	FR1	0	R1229M
1329.825	0.899	1336837	WORD_OFF	n/a	n/a	WOOD	10	10	[0, 0, 0]	n/a	FR1	0	R1229M
1330.724	1.618	1337736	WORD	n/a	wordpools/wordpool_EN.txt	FLEA	11	10	[0, 0, 0]	n/a	FR1	0	R1229M
1332.342	0.95	1339354	WORD_OFF	n/a	n/a	FLEA	11	10	[0, 0, 0]	n/a	FR1	0	R1229M
1333.292	1.617	1340304	WORD	n/a	wordpools/wordpool_EN.txt	JAR	12	10	[0, 0, 0]	n/a	FR1	0	R1229M
1334.909	0.0	1341921	WORD_OFF	n/a	n/a	JAR	12	10	[0, 0, 0]	n/a	FR1	0	R1229M
1334.909	0.001	1341921	DISTRACT_START	n/a	n/a	n/a	-999	10	[0, 0, 0]	n/a	FR1	0	R1229M
1334.91	0.016	1341922	START	n/a	n/a	n/a	-999	10	[-999, -999, -999]	n/a	FR1	0	R1229M
1334.926	13.152	1341938	PROB	13.152	n/a	n/a	-999	10	[8, 5, 5]	18	FR1	0	R1229M
1348.078	5.851	1355089	PROB	5.851	n/a	n/a	-999	10	[7, 6, 4]	17	FR1	0	R1229M
1353.929	4.413	1360940	PROB	4.413	n/a	n/a	-999	10	[3, 1, 3]	7	FR1	0	R1229M
1358.342	0.022	1365353	STOP	n/a	n/a	n/a	-999	10	[-999, -999, -999]	n/a	FR1	0	R1229M
1358.364	0.683	1365375	DISTRACT_END	n/a	n/a	n/a	-999	10	[0, 0, 0]	n/a	FR1	0	R1229M
1359.047	0.518	1366058	RETRIEVAL_ORIENT	n/a	n/a	n/a	-999	10	[0, 0, 0]	n/a	FR1	0	R1229M
1359.565	2.574	1366575	REC_START	n/a	n/a	n/a	-999	10	[0, 0, 0]	n/a	FR1	0	R1229M
1362.139	1.476	1369149	REC_WORD	1.476	n/a	WOOD	10	10	[0, 0, 0]	n/a	FR1	0	R1229M
1363.615	1.916	1370625	REC_WORD	1.916	n/a	FLOOR	5	10	[0, 0, 0]	n/a	FR1	0	R1229M
1365.531	16.952	1372541	REC_WORD	16.952	n/a	INK	8	10	[0, 0, 0]	n/a	FR1	0	R1229M
1382.483	7.093	1389492	REC_WORD	7.093	n/a	HOSE	9	10	[0, 0, 0]	n/a	FR1	0	R1229M
1389.576	33.533	1396585	REC_END	n/a	n/a	n/a	-999	10	[0, 0, 0]	n/a	FR1	0	R1229M
1423.109	0.5	1430116	TRIAL	n/a	n/a	n/a	-999	11	[0, 0, 0]	n/a	FR1	0	R1229M
1423.609	10.428	1430616	COUNTDOWN_START	n/a	n/a	n/a	-999	11	[0, 0, 0]	n/a	FR1	0	R1229M
1434.037	0.008	1441043	COUNTDOWN_END	n/a	n/a	n/a	-999	11	[0, 0, 0]	n/a	FR1	0	R1229M
1434.045	1.617	1441051	ORIENT	n/a	n/a	n/a	-999	11	[0, 0, 0]	n/a	FR1	0	R1229M
1435.662	2.35	1442668	ORIENT_OFF	n/a	n/a	n/a	-999	11	[0, 0, 0]	n/a	FR1	0	R1229M
1438.012	1.617	1445018	WORD	n/a	wordpools/wordpool_EN.txt	SHIELD	1	11	[0, 0, 0]	n/a	FR1	0	R1229M
1439.629	0.934	1446635	WORD_OFF	n/a	n/a	SHIELD	1	11	[0, 0, 0]	n/a	FR1	0	R1229M
1440.563	1.617	1447569	WORD	n/a	wordpools/wordpool_EN.txt	DESK	2	11	[0, 0, 0]	n/a	FR1	0	R1229M
1442.18	0.766	1449186	WORD_OFF	n/a	n/a	DESK	2	11	[0, 0, 0]	n/a	FR1	0	R1229M
1442.946	1.618	1449952	WORD	n/a	wordpools/wordpool_EN.txt	OAK	3	11	[0, 0, 0]	n/a	FR1	0	R1229M
1444.564	0.833	1451570	WORD_OFF	n/a	n/a	OAK	3	11	[0, 0, 0]	n/a	FR1	0	R1229M
1445.397	1.617	1452403	WORD	n/a	wordpools/wordpool_EN.txt	PANTS	4	11	[0, 0, 0]	n/a	FR1	0	R1229M
1447.014	0.934	1454019	WORD_OFF	n/a	n/a	PANTS	4	11	[0, 0, 0]	n/a	FR1	0	R1229M
1447.948	1.617	1454953	WORD	n/a	wordpools/wordpool_EN.txt	ELF	5	11	[0, 0, 0]	n/a	FR1	0	R1229M
1449.565	0.983	1456570	WORD_OFF	n/a	n/a	ELF	5	11	[0, 0, 0]	n/a	FR1	0	R1229M
1450.548	1.617	1457553	WORD	n/a	wordpools/wordpool_EN.txt	LEG	6	11	[0, 0, 0]	n/a	FR1	0	R1229M
1452.165	1.0	1459170	WORD_OFF	n/a	n/a	LEG	6	11	[0, 0, 0]	n/a	FR1	0	R1229M
1453.165	1.617	1460170	WORD	n/a	wordpools/wordpool_EN.txt	YARD	7	11	[0, 0, 0]	n/a	FR1	0	R1229M
1454.782	0.867	1461787	WORD_OFF	n/a	n/a	YARD	7	11	[0, 0, 0]	n/a	FR1	0	R1229M
1455.649	1.617	1462654	WORD	n/a	wordpools/wordpool_EN.txt	STICK	8	11	[0, 0, 0]	n/a	FR1	0	R1229M
1457.266	0.934	1464271	WORD_OFF	n/a	n/a	STICK	8	11	[0, 0, 0]	n/a	FR1	0	R1229M
1458.2	1.617	1465205	WORD	n/a	wordpools/wordpool_EN.txt	DRESS	9	11	[0, 0, 0]	n/a	FR1	0	R1229M
1459.817	0.882	1466822	WORD_OFF	n/a	n/a	DRESS	9	11	[0, 0, 0]	n/a	FR1	0	R1229M
1460.699	1.618	1467704	WORD	n/a	wordpools/wordpool_EN.txt	CHIN	10	11	[0, 0, 0]	n/a	FR1	0	R1229M
1462.317	0.984	1469322	WORD_OFF	n/a	n/a	CHIN	10	11	[0, 0, 0]	n/a	FR1	0	R1229M
1463.301	1.617	1470306	WORD	n/a	wordpools/wordpool_EN.txt	BAND	11	11	[0, 0, 0]	n/a	FR1	0	R1229M
1464.918	0.866	1471922	WORD_OFF	n/a	n/a	BAND	11	11	[0, 0, 0]	n/a	FR1	0	R1229M
1465.784	1.617	1472788	WORD	n/a	wordpools/wordpool_EN.txt	STONE	12	11	[0, 0, 0]	n/a	FR1	0	R1229M
1467.401	0.0	1474405	WORD_OFF	n/a	n/a	STONE	12	11	[0, 0, 0]	n/a	FR1	0	R1229M
1467.401	0.001	1474405	DISTRACT_START	n/a	n/a	n/a	-999	11	[0, 0, 0]	n/a	FR1	0	R1229M
1467.402	0.016	1474406	START	n/a	n/a	n/a	-999	11	[-999, -999, -999]	n/a	FR1	0	R1229M
1467.418	7.635	1474422	PROB	7.635	n/a	n/a	-999	11	[5, 8, 5]	18	FR1	0	R1229M
1475.053	6.184	1482057	PROB	6.184	n/a	n/a	-999	11	[5, 1, 8]	14	FR1	0	R1229M
1481.237	6.545	1488240	PROB	6.545	n/a	n/a	-999	11	[1, 6, 3]	10	FR1	0	R1229M
1487.782	0.007	1494785	STOP	n/a	n/a	n/a	-999	11	[-999, -999, -999]	n/a	FR1	0	R1229M
1487.789	0.633	1494792	DISTRACT_END	n/a	n/a	n/a	-999	11	[0, 0, 0]	n/a	FR1	0	R1229M
1488.422	0.517	1495425	RETRIEVAL_ORIENT	n/a	n/a	n/a	-999	11	[0, 0, 0]	n/a	FR1	0	R1229M
1488.939	3.062	1495942	REC_START	n/a	n/a	n/a	-999	11	[0, 0, 0]	n/a	FR1	0	R1229M
1492.001	0.98	1499004	REC_WORD	0.98	n/a	OAK	3	11	[0, 0, 0]	n/a	FR1	0	R1229M
1492.981	2.367	1499984	REC_WORD	2.367	n/a	STICK	8	11	[0, 0, 0]	n/a	FR1	0	R1229M
1495.348	2.388	1502351	REC_WORD	2.388	n/a	SHIELD	1	11	[0, 0, 0]	n/a	FR1	0	R1229M
1497.736	8.54	1504739	REC_WORD	8.54	n/a	CHIN	10	11	[0, 0, 0]	n/a	FR1	0	R1229M
1506.276	12.675	1513278	REC_WORD	12.675	n/a	PANTS	4	11	[0, 0, 0]	n/a	FR1	0	R1229M
1518.951	9.396	1525952	REC_END	n/a	n/a	n/a	-999	11	[0, 0, 0]	n/a	FR1	0	R1229M
1528.347	0.5	1535348	TRIAL	n/a	n/a	n/a	-999	12	[0, 0, 0]	n/a	FR1	0	R1229M
1528.847	10.428	1535848	COUNTDOWN_START	n/a	n/a	n/a	-999	12	[0, 0, 0]	n/a	FR1	0	R1229M
1539.275	0.007	1546275	COUNTDOWN_END	n/a	n/a	n/a	-999	12	[0, 0, 0]	n/a	FR1	0	R1229M
1539.282	1.617	1546282	ORIENT	n/a	n/a	n/a	-999	12	[0, 0, 0]	n/a	FR1	0	R1229M
1540.899	2.134	1547899	ORIENT_OFF	n/a	n/a	n/a	-999	12	[0, 0, 0]	n/a	FR1	0	R1229M
1543.033	1.617	1550033	WORD	n/a	wordpools/wordpool_EN.txt	DUCK	1	12	[0, 0, 0]	n/a	FR1	0	R1229M
1544.65	0.95	1551650	WORD_OFF	n/a	n/a	DUCK	1	12	[0, 0, 0]	n/a	FR1	0	R1229M
1545.6	1.617	1552600	WORD	n/a	wordpools/wordpool_EN.txt	SHIRT	2	12	[0, 0, 0]	n/a	FR1	0	R1229M
1547.217	0.883	1554217	WORD_OFF	n/a	n/a	SHIRT	2	12	[0, 0, 0]	n/a	FR1	0	R1229M
1548.1	1.616	1555100	WORD	n/a	wordpools/wordpool_EN.txt	FROG	3	12	[0, 0, 0]	n/a	FR1	0	R1229M
1549.716	0.951	1556716	WORD_OFF	n/a	n/a	FROG	3	12	[0, 0, 0]	n/a	FR1	0	R1229M
1550.667	1.617	1557666	WORD	n/a	wordpools/wordpool_EN.txt	CANE	4	12	[0, 0, 0]	n/a	FR1	0	R1229M
1552.284	0.834	1559283	WORD_OFF	n/a	n/a	CANE	4	12	[0, 0, 0]	n/a	FR1	0	R1229M
1553.118	1.616	1560117	WORD	n/a	wordpools/wordpool_EN.txt	BEE	5	12	[0, 0, 0]	n/a	FR1	0	R1229M
1554.734	0.818	1561733	WORD_OFF	n/a	n/a	BEE	5	12	[0, 0, 0]	n/a	FR1	0	R1229M
1555.552	1.617	1562551	WORD	n/a	wordpools/wordpool_EN.txt	PLANT	6	12	[0, 0, 0]	n/a	FR1	0	R1229M
1557.169	0.817	1564168	WORD_OFF	n/a	n/a	PLANT	6	12	[0, 0, 0]	n/a	FR1	0	R1229M
1557.986	1.617	1564985	WORD	n/a	wordpools/wordpool_EN.txt	SOUP	7	12	[0, 0, 0]	n/a	FR1	0	R1229M
1559.603	0.95	1566602	WORD_OFF	n/a	n/a	SOUP	7	12	[0, 0, 0]	n/a	FR1	0	R1229M
1560.553	1.617	1567552	WORD	n/a	wordpools/wordpool_EN.txt	CROW	8	12	[0, 0, 0]	n/a	FR1	0	R1229M
1562.17	0.95	1569169	WORD_OFF	n/a	n/a	CROW	8	12	[0, 0, 0]	n/a	FR1	0	R1229M
1563.12	1.616	1570119	WORD	n/a	wordpools/wordpool_EN.txt	CUP	9	12	[0, 0, 0]	n/a	FR1	0	R1229M
1564.736	0.801	1571735	WORD_OFF	n/a	n/a	CUP	9	12	[0, 0, 0]	n/a	FR1	0	R1229M
1565.537	1.617	1572536	WORD	n/a	wordpools/wordpool_EN.txt	BROOM	10	12	[0, 0, 0]	n/a	FR1	0	R1229M
1567.154	0.95	1574153	WORD_OFF	n/a	n/a	BROOM	10	12	[0, 0, 0]	n/a	FR1	0	R1229M
1568.104	1.616	1575102	WORD	n/a	wordpools/wordpool_EN.txt	PALM	11	12	[0, 0, 0]	n/a	FR1	0	R1229M
1569.72	0.768	1576718	WORD_OFF	n/a	n/a	PALM	11	12	[0, 0, 0]	n/a	FR1	0	R1229M
1570.488	1.617	1577486	WORD	n/a	wordpools/wordpool_EN.txt	ROOF	12	12	[0, 0, 0]	n/a	FR1	0	R1229M
1572.105	0.0	1579103	WORD_OFF	n/a	n/a	ROOF	12	12	[0, 0, 0]	n/a	FR1	0	R1229M
1572.105	0.001	1579103	DISTRACT_START	n/a	n/a	n/a	-999	12	[0, 0, 0]	n/a	FR1	0	R1229M
1572.106	0.016	1579104	START	n/a	n/a	n/a	-999	12	[-999, -999, -999]	n/a	FR1	0	R1229M
1572.122	9.567	1579120	PROB	9.567	n/a	n/a	-999	12	[8, 4, 6]	18	FR1	0	R1229M
1581.689	10.55	1588687	PROB	10.55	n/a	n/a	-999	12	[3, 5, 4]	12	FR1	0	R1229M
1592.239	0.02	1599236	STOP	n/a	n/a	n/a	-999	12	[-999, -999, -999]	n/a	FR1	0	R1229M
1592.259	0.683	1599256	DISTRACT_END	n/a	n/a	n/a	-999	12	[0, 0, 0]	n/a	FR1	0	R1229M
1592.942	0.518	1599939	RETRIEVAL_ORIENT	n/a	n/a	n/a	-999	12	[0, 0, 0]	n/a	FR1	0	R1229M
1593.46	2.344	1600457	REC_START	n/a	n/a	n/a	-999	12	[0, 0, 0]	n/a	FR1	0	R1229M
1595.804	10.693	1602801	REC_WORD	10.693	n/a	DUCK	1	12	[0, 0, 0]	n/a	FR1	0	R1229M
1606.497	16.974	1613493	REC_WORD	16.974	n/a	SHIRT	2	12	[0, 0, 0]	n/a	FR1	0	R1229M
1623.471	25.049	1630466	REC_END	n/a	n/a	n/a	-999	12	[0, 0, 0]	n/a	FR1	0	R1229M
1648.52	0.5	1655514	TRIAL	n/a	n/a	n/a	-999	13	[0, 0, 0]	n/a	FR1	0	R1229M
1649.02	10.428	1656014	COUNTDOWN_START	n/a	n/a	n/a	-999	13	[0, 0, 0]	n/a	FR1	0	R1229M
1659.448	0.007	1666441	COUNTDOWN_END	n/a	n/a	n/a	-999	13	[0, 0, 0]	n/a	FR1	0	R1229M
1659.455	1.617	1666448	ORIENT	n/a	n/a	n/a	-999	13	[0, 0, 0]	n/a	FR1	0	R1229M
1661.072	1.951	1668065	ORIENT_OFF	n/a	n/a	n/a	-999	13	[0, 0, 0]	n/a	FR1	0	R1229M
1663.023	1.617	1670016	WORD	n/a	wordpools/wordpool_EN.txt	SMOKE	1	13	[0, 0, 0]	n/a	FR1	0	R1229M
1664.64	0.8	1671633	WORD_OFF	n/a	n/a	SMOKE	1	13	[0, 0, 0]	n/a	FR1	0	R1229M
1665.44	1.617	1672433	WORD	n/a	wordpools/wordpool_EN.txt	SEAL	2	13	[0, 0, 0]	n/a	FR1	0	R1229M
1667.057	0.95	1674050	WORD_OFF	n/a	n/a	SEAL	2	13	[0, 0, 0]	n/a	FR1	0	R1229M
1668.007	1.617	1675000	WORD	n/a	wordpools/wordpool_EN.txt	WING	3	13	[0, 0, 0]	n/a	FR1	0	R1229M
1669.624	0.933	1676617	WORD_OFF	n/a	n/a	WING	3	13	[0, 0, 0]	n/a	FR1	0	R1229M
1670.557	1.618	1677550	WORD	n/a	wordpools/wordpool_EN.txt	DART	4	13	[0, 0, 0]	n/a	FR1	0	R1229M
1672.175	0.916	1679168	WORD_OFF	n/a	n/a	DART	4	13	[0, 0, 0]	n/a	FR1	0	R1229M
1673.091	1.616	1680083	WORD	n/a	wordpools/wordpool_EN.txt	SALT	5	13	[0, 0, 0]	n/a	FR1	0	R1229M
1674.707	0.851	1681699	WORD_OFF	n/a	n/a	SALT	5	13	[0, 0, 0]	n/a	FR1	0	R1229M
1675.558	1.617	1682550	WORD	n/a	wordpools/wordpool_EN.txt	WORM	6	13	[0, 0, 0]	n/a	FR1	0	R1229M
1677.175	0.967	1684167	WORD_OFF	n/a	n/a	WORM	6	13	[0, 0, 0]	n/a	FR1	0	R1229M
1678.142	1.616	1685134	WORD	n/a	wordpools/wordpool_EN.txt	HAT	7	13	[0, 0, 0]	n/a	FR1	0	R1229M
1679.758	0.901	1686750	WORD_OFF	n/a	n/a	HAT	7	13	[0, 0, 0]	n/a	FR1	0	R1229M
1680.659	1.617	1687651	WORD	n/a	wordpools/wordpool_EN.txt	CASH	8	13	[0, 0, 0]	n/a	FR1	0	R1229M
1682.276	0.784	1689268	WORD_OFF	n/a	n/a	CASH	8	13	[0, 0, 0]	n/a	FR1	0	R1229M
1683.06	1.616	1690052	WORD	n/a	wordpools/wordpool_EN.txt	STAR	9	13	[0, 0, 0]	n/a	FR1	0	R1229M
1684.676	0.984	1691668	WORD_OFF	n/a	n/a	STAR	9	13	[0, 0, 0]	n/a	FR1	0	R1229M
1685.66	1.617	1692652	WORD	n/a	wordpools/wordpool_EN.txt	ANT	10	13	[0, 0, 0]	n/a	FR1	0	R1229M
1687.277	0.801	1694269	WORD_OFF	n/a	n/a	ANT	10	13	[0, 0, 0]	n/a	FR1	0	R1229M
1688.078	1.616	1695070	WORD	n/a	wordpools/wordpool_EN.txt	CORN	11	13	[0, 0, 0]	n/a	FR1	0	R1229M
1689.694	0.851	1696686	WORD_OFF	n/a	n/a	CORN	11	13	[0, 0, 0]	n/a	FR1	0	R1229M
1690.545	1.617	1697536	WORD	n/a	wordpools/wordpool_EN.txt	GLOVE	12	13	[0, 0, 0]	n/a	FR1	0	R1229M
1692.162	0.0	1699153	DISTRACT_START	n/a	n/a	n/a	-999	13	[0, 0, 0]	n/a	FR1	0	R1229M
1692.162	0.0	1699153	WORD_OFF	n/a	n/a	GLOVE	12	13	[0, 0, 0]	n/a	FR1	0	R1229M
1692.162	0.016	1699153	START	n/a	n/a	n/a	-999	13	[-999, -999, -999]	n/a	FR1	0	R1229M
1692.178	5.751	1699169	PROB	5.751	n/a	n/a	-999	13	[7, 5, 5]	17	FR1	0	R1229M
1697.929	7.235	1704920	PROB	7.235	n/a	n/a	-999	13	[4, 4, 9]	17	FR1	0	R1229M
1705.164	5.868	1712155	PROB	5.868	n/a	n/a	-999	13	[5, 4, 2]	11	FR1	0	R1229M
1711.032	7.047	1718022	PROB	7.047	n/a	n/a	-999	13	[2, 5, 8]	15	FR1	0	R1229M
1718.079	0.021	1725069	STOP	n/a	n/a	n/a	-999	13	[-999, -999, -999]	n/a	FR1	0	R1229M
1718.1	0.55	1725090	DISTRACT_END	n/a	n/a	n/a	-999	13	[0, 0, 0]	n/a	FR1	0	R1229M
1718.65	0.517	1725640	RETRIEVAL_ORIENT	n/a	n/a	n/a	-999	13	[0, 0, 0]	n/a	FR1	0	R1229M
1719.167	2.49	1726157	REC_START	n/a	n/a	n/a	-999	13	[0, 0, 0]	n/a	FR1	0	R1229M
1721.657	0.506	1728647	REC_WORD_VV	0.506	n/a	<>	-999	13	[0, 0, 0]	n/a	FR1	0	R1229M
1722.163	27.015	1729153	REC_WORD	27.015	n/a	CORN	11	13	[0, 0, 0]	n/a	FR1	0	R1229M
1749.178	278.999	1756166	REC_END	n/a	n/a	n/a	-999	13	[0, 0, 0]	n/a	FR1	0	R1229M
2028.177	0.5	2035149	TRIAL	n/a	n/a	n/a	-999	14	[0, 0, 0]	n/a	FR1	0	R1229M
2028.677	10.428	2035649	COUNTDOWN_START	n/a	n/a	n/a	-999	14	[0, 0, 0]	n/a	FR1	0	R1229M
2039.105	0.007	2046076	COUNTDOWN_END	n/a	n/a	n/a	-999	14	[0, 0, 0]	n/a	FR1	0	R1229M
2039.112	1.616	2046083	ORIENT	n/a	n/a	n/a	-999	14	[0, 0, 0]	n/a	FR1	0	R1229M
2040.728	2.202	2047699	ORIENT_OFF	n/a	n/a	n/a	-999	14	[0, 0, 0]	n/a	FR1	0	R1229M
2042.93	1.617	2049901	WORD	n/a	wordpools/wordpool_EN.txt	SINK	1	14	[0, 0, 0]	n/a	FR1	0	R1229M
2044.547	0.816	2051518	WORD_OFF	n/a	n/a	SINK	1	14	[0, 0, 0]	n/a	FR1	0	R1229M
2045.363	1.617	2052334	WORD	n/a	wordpools/wordpool_EN.txt	DOCK	2	14	[0, 0, 0]	n/a	FR1	0	R1229M
2046.98	0.817	2053951	WORD_OFF	n/a	n/a	DOCK	2	14	[0, 0, 0]	n/a	FR1	0	R1229M
2047.797	1.617	2054768	WORD	n/a	wordpools/wordpool_EN.txt	TOAST	3	14	[0, 0, 0]	n/a	FR1	0	R1229M
2049.414	0.917	2056385	WORD_OFF	n/a	n/a	TOAST	3	14	[0, 0, 0]	n/a	FR1	0	R1229M
2050.331	1.617	2057302	WORD	n/a	wordpools/wordpool_EN.txt	LAMB	4	14	[0, 0, 0]	n/a	FR1	0	R1229M
2051.948	0.884	2058919	WORD_OFF	n/a	n/a	LAMB	4	14	[0, 0, 0]	n/a	FR1	0	R1229M
2052.832	1.617	2059803	WORD	n/a	wordpools/wordpool_EN.txt	TAIL	5	14	[0, 0, 0]	n/a	FR1	0	R1229M
2054.449	0.933	2061420	WORD_OFF	n/a	n/a	TAIL	5	14	[0, 0, 0]	n/a	FR1	0	R1229M
2055.382	1.617	2062352	WORD	n/a	wordpools/wordpool_EN.txt	MOLE	6	14	[0, 0, 0]	n/a	FR1	0	R1229M
2056.999	0.817	2063969	WORD_OFF	n/a	n/a	MOLE	6	14	[0, 0, 0]	n/a	FR1	0	R1229M
2057.816	1.617	2064786	WORD	n/a	wordpools/wordpool_EN.txt	FUDGE	7	14	[0, 0, 0]	n/a	FR1	0	R1229M
2059.433	0.883	2066403	WORD_OFF	n/a	n/a	FUDGE	7	14	[0, 0, 0]	n/a	FR1	0	R1229M
2060.316	1.617	2067286	WORD	n/a	wordpools/wordpool_EN.txt	THUMB	8	14	[0, 0, 0]	n/a	FR1	0	R1229M
2061.933	0.867	2068903	WORD_OFF	n/a	n/a	THUMB	8	14	[0, 0, 0]	n/a	FR1	0	R1229M
2062.8	1.617	2069770	WORD	n/a	wordpools/wordpool_EN.txt	CLOWN	9	14	[0, 0, 0]	n/a	FR1	0	R1229M
2064.417	0.967	2071387	WORD_OFF	n/a	n/a	CLOWN	9	14	[0, 0, 0]	n/a	FR1	0	R1229M
2065.384	1.617	2072354	WORD	n/a	wordpools/wordpool_EN.txt	SKUNK	10	14	[0, 0, 0]	n/a	FR1	0	R1229M
2067.001	0.834	2073971	WORD_OFF	n/a	n/a	SKUNK	10	14	[0, 0, 0]	n/a	FR1	0	R1229M
2067.835	1.616	2074805	WORD	n/a	wordpools/wordpool_EN.txt	BIRD	11	14	[0, 0, 0]	n/a	FR1	0	R1229M
2069.451	0.967	2076421	WORD_OFF	n/a	n/a	BIRD	11	14	[0, 0, 0]	n/a	FR1	0	R1229M
2070.418	1.617	2077388	WORD	n/a	wordpools/wordpool_EN.txt	CAVE	12	14	[0, 0, 0]	n/a	FR1	0	R1229M
2072.035	0.0	2079005	WORD_OFF	n/a	n/a	CAVE	12	14	[0, 0, 0]	n/a	FR1	0	R1229M
2072.035	0.001	2079005	DISTRACT_START	n/a	n/a	n/a	-999	14	[0, 0, 0]	n/a	FR1	0	R1229M
2072.036	0.016	2079006	START	n/a	n/a	n/a	-999	14	[-999, -999, -999]	n/a	FR1	0	R1229M
2072.052	6.401	2079022	PROB	6.401	n/a	n/a	-999	14	[9, 6, 4]	19	FR1	0	R1229M
2078.453	11.519	2085422	PROB	11.519	n/a	n/a	-999	14	[2, 7, 5]	14	FR1	0	R1229M
2089.972	3.97	2096941	PROB	3.97	n/a	n/a	-999	14	[1, 9, 8]	18	FR1	0	R1229M
2093.942	0.014	2100910	STOP	n/a	n/a	n/a	-999	14	[-999, -999, -999]	n/a	FR1	0	R1229M
2093.956	0.65	2100924	DISTRACT_END	n/a	n/a	n/a	-999	14	[0, 0, 0]	n/a	FR1	0	R1229M
2094.606	0.518	2101574	RETRIEVAL_ORIENT	n/a	n/a	n/a	-999	14	[0, 0, 0]	n/a	FR1	0	R1229M
2095.124	1.6	2102092	REC_START	n/a	n/a	n/a	-999	14	[0, 0, 0]	n/a	FR1	0	R1229M
2096.724	1.053	2103692	REC_WORD_VV	1.053	n/a	<>	-999	14	[0, 0, 0]	n/a	FR1	0	R1229M
2097.777	0.965	2104745	REC_WORD	0.965	n/a	FUDGE	7	14	[0, 0, 0]	n/a	FR1	0	R1229M
2098.742	26.392	2105710	REC_WORD	26.392	n/a	CLOWN	9	14	[0, 0, 0]	n/a	FR1	0	R1229M
2125.134	15.115	2132100	REC_END	n/a	n/a	n/a	-999	14	[0, 0, 0]	n/a	FR1	0	R1229M
2140.249	0.5	2147215	TRIAL	n/a	n/a	n/a	-999	15	[0, 0, 0]	n/a	FR1	0	R1229M
2140.749	10.428	2147715	COUNTDOWN_START	n/a	n/a	n/a	-999	15	[0, 0, 0]	n/a	FR1	0	R1229M
2151.177	0.007	2158142	COUNTDOWN_END	n/a	n/a	n/a	-999	15	[0, 0, 0]	n/a	FR1	0	R1229M
2151.184	1.617	2158149	ORIENT	n/a	n/a	n/a	-999	15	[0, 0, 0]	n/a	FR1	0	R1229M
2152.801	2.0	2159766	ORIENT_OFF	n/a	n/a	n/a	-999	15	[0, 0, 0]	n/a	FR1	0	R1229M
2154.801	1.617	2161766	WORD	n/a	wordpools/wordpool_EN.txt	WAVE	1	15	[0, 0, 0]	n/a	FR1	0	R1229M
2156.418	0.834	2163383	WORD_OFF	n/a	n/a	WAVE	1	15	[0, 0, 0]	n/a	FR1	0	R1229M
2157.252	1.617	2164217	WORD	n/a	wordpools/wordpool_EN.txt	KITE	2	15	[0, 0, 0]	n/a	FR1	0	R1229M
2158.869	0.783	2165834	WORD_OFF	n/a	n/a	KITE	2	15	[0, 0, 0]	n/a	FR1	0	R1229M
2159.652	1.617	2166616	WORD	n/a	wordpools/wordpool_EN.txt	SHELL	3	15	[0, 0, 0]	n/a	FR1	0	R1229M
2161.269	0.917	2168233	WORD_OFF	n/a	n/a	SHELL	3	15	[0, 0, 0]	n/a	FR1	0	R1229M
2162.186	1.617	2169150	WORD	n/a	wordpools/wordpool_EN.txt	BADGE	4	15	[0, 0, 0]	n/a	FR1	0	R1229M
2163.803	0.767	2170767	WORD_OFF	n/a	n/a	BADGE	4	15	[0, 0, 0]	n/a	FR1	0	R1229M
2164.57	1.617	2171534	WORD	n/a	wordpools/wordpool_EN.txt	BOOK	5	15	[0, 0, 0]	n/a	FR1	0	R1229M
2166.187	0.95	2173151	WORD_OFF	n/a	n/a	BOOK	5	15	[0, 0, 0]	n/a	FR1	0	R1229M
2167.137	1.616	2174101	WORD	n/a	wordpools/wordpool_EN.txt	BAT	6	15	[0, 0, 0]	n/a	FR1	0	R1229M
2168.753	0.967	2175717	WORD_OFF	n/a	n/a	BAT	6	15	[0, 0, 0]	n/a	FR1	0	R1229M
2169.72	1.618	2176684	WORD	n/a	wordpools/wordpool_EN.txt	CONE	7	15	[0, 0, 0]	n/a	FR1	0	R1229M
2171.338	0.9	2178302	WORD_OFF	n/a	n/a	CONE	7	15	[0, 0, 0]	n/a	FR1	0	R1229M
2172.238	1.617	2179202	WORD	n/a	wordpools/wordpool_EN.txt	ROOT	8	15	[0, 0, 0]	n/a	FR1	0	R1229M
2173.855	0.849	2180819	WORD_OFF	n/a	n/a	ROOT	8	15	[0, 0, 0]	n/a	FR1	0	R1229M
2174.704	1.601	2181668	WORD	n/a	wordpools/wordpool_EN.txt	SWORD	9	15	[0, 0, 0]	n/a	FR1	0	R1229M
2176.305	0.867	2183269	WORD_OFF	n/a	n/a	SWORD	9	15	[0, 0, 0]	n/a	FR1	0	R1229M
2177.172	1.617	2184135	WORD	n/a	wordpools/wordpool_EN.txt	CAPE	10	15	[0, 0, 0]	n/a	FR1	0	R1229M
2178.789	0.916	2185752	WORD_OFF	n/a	n/a	CAPE	10	15	[0, 0, 0]	n/a	FR1	0	R1229M
2179.705	1.618	2186668	WORD	n/a	wordpools/wordpool_EN.txt	VEST	11	15	[0, 0, 0]	n/a	FR1	0	R1229M
2181.323	0.9	2188286	WORD_OFF	n/a	n/a	VEST	11	15	[0, 0, 0]	n/a	FR1	0	R1229M
2182.223	1.617	2189186	WORD	n/a	wordpools/wordpool_EN.txt	PIG	12	15	[0, 0, 0]	n/a	FR1	0	R1229M
2183.84	0.0	2190803	WORD_OFF	n/a	n/a	PIG	12	15	[0, 0, 0]	n/a	FR1	0	R1229M
2183.84	0.001	2190803	DISTRACT_START	n/a	n/a	n/a	-999	15	[0, 0, 0]	n/a	FR1	0	R1229M
2183.841	0.016	2190804	START	n/a	n/a	n/a	-999	15	[-999, -999, -999]	n/a	FR1	0	R1229M
2183.857	6.935	2190820	PROB	6.935	n/a	n/a	-999	15	[7, 1, 2]	10	FR1	0	R1229M
2190.792	5.967	2197755	PROB	5.967	n/a	n/a	-999	15	[4, 9, 6]	19	FR1	0	R1229M
2196.759	19.488	2203721	PROB	19.488	n/a	n/a	-999	15	[8, 4, 5]	17	FR1	0	R1229M
2216.247	0.016	2223208	STOP	n/a	n/a	n/a	-999	15	[-999, -999, -999]	n/a	FR1	0	R1229M
2216.263	0.567	2223224	DISTRACT_END	n/a	n/a	n/a	-999	15	[0, 0, 0]	n/a	FR1	0	R1229M
2216.83	0.518	2223791	RETRIEVAL_ORIENT	n/a	n/a	n/a	-999	15	[0, 0, 0]	n/a	FR1	0	R1229M
2217.348	2.749	2224309	REC_START	n/a	n/a	n/a	-999	15	[0, 0, 0]	n/a	FR1	0	R1229M
2220.097	1.916	2227058	REC_WORD_VV	1.916	n/a	<>	-999	15	[0, 0, 0]	n/a	FR1	0	R1229M
2222.013	1.055	2228974	REC_WORD	1.055	n/a	ROOT	8	15	[0, 0, 0]	n/a	FR1	0	R1229M
2223.068	3.153	2230029	REC_WORD	3.153	n/a	WORD	-999	15	[0, 0, 0]	n/a	FR1	0	R1229M
2226.221	10.968	2233182	REC_WORD	10.968	n/a	CAPE	10	15	[0, 0, 0]	n/a	FR1	0	R1229M
2237.189	10.17	2244149	REC_WORD	10.17	n/a	FUDGE	-999	15	[0, 0, 0]	n/a	FR1	0	R1229M
2247.359	28.566	2254318	REC_END	n/a	n/a	n/a	-999	15	[0, 0, 0]	n/a	FR1	0	R1229M
2275.925	0.5	2282883	TRIAL	n/a	n/a	n/a	-999	16	[0, 0, 0]	n/a	FR1	0	R1229M
2276.425	10.428	2283383	COUNTDOWN_START	n/a	n/a	n/a	-999	16	[0, 0, 0]	n/a	FR1	0	R1229M
2286.853	0.007	2293810	COUNTDOWN_END	n/a	n/a	n/a	-999	16	[0, 0, 0]	n/a	FR1	0	R1229M
2286.86	1.617	2293817	ORIENT	n/a	n/a	n/a	-999	16	[0, 0, 0]	n/a	FR1	0	R1229M
2288.477	2.134	2295434	ORIENT_OFF	n/a	n/a	n/a	-999	16	[0, 0, 0]	n/a	FR1	0	R1229M
2290.611	1.617	2297568	WORD	n/a	wordpools/wordpool_EN.txt	AXE	1	16	[0, 0, 0]	n/a	FR1	0	R1229M
2292.228	0.767	2299185	WORD_OFF	n/a	n/a	AXE	1	16	[0, 0, 0]	n/a	FR1	0	R1229M
2292.995	1.617	2299952	WORD	n/a	wordpools/wordpool_EN.txt	BEAN	2	16	[0, 0, 0]	n/a	FR1	0	R1229M
2294.612	0.85	2301569	WORD_OFF	n/a	n/a	BEAN	2	16	[0, 0, 0]	n/a	FR1	0	R1229M
2295.462	1.617	2302419	WORD	n/a	wordpools/wordpool_EN.txt	HOOK	3	16	[0, 0, 0]	n/a	FR1	0	R1229M
2297.079	0.783	2304036	WORD_OFF	n/a	n/a	HOOK	3	16	[0, 0, 0]	n/a	FR1	0	R1229M
2297.862	1.617	2304819	WORD	n/a	wordpools/wordpool_EN.txt	FAN	4	16	[0, 0, 0]	n/a	FR1	0	R1229M
2299.479	0.934	2306435	WORD_OFF	n/a	n/a	FAN	4	16	[0, 0, 0]	n/a	FR1	0	R1229M
2300.413	1.617	2307369	WORD	n/a	wordpools/wordpool_EN.txt	NOSE	5	16	[0, 0, 0]	n/a	FR1	0	R1229M
2302.03	0.9	2308986	WORD_OFF	n/a	n/a	NOSE	5	16	[0, 0, 0]	n/a	FR1	0	R1229M
2302.93	1.617	2309886	WORD	n/a	wordpools/wordpool_EN.txt	SPARK	6	16	[0, 0, 0]	n/a	FR1	0	R1229M
2304.547	0.917	2311503	WORD_OFF	n/a	n/a	SPARK	6	16	[0, 0, 0]	n/a	FR1	0	R1229M
2305.464	1.617	2312420	WORD	n/a	wordpools/wordpool_EN.txt	SLEEVE	7	16	[0, 0, 0]	n/a	FR1	0	R1229M
2307.081	0.85	2314037	WORD_OFF	n/a	n/a	SLEEVE	7	16	[0, 0, 0]	n/a	FR1	0	R1229M
2307.931	1.617	2314887	WORD	n/a	wordpools/wordpool_EN.txt	BEAK	8	16	[0, 0, 0]	n/a	FR1	0	R1229M
2309.548	0.817	2316504	WORD_OFF	n/a	n/a	BEAK	8	16	[0, 0, 0]	n/a	FR1	0	R1229M
2310.365	1.617	2317321	WORD	n/a	wordpools/wordpool_EN.txt	ROPE	9	16	[0, 0, 0]	n/a	FR1	0	R1229M
2311.982	0.85	2318938	WORD_OFF	n/a	n/a	ROPE	9	16	[0, 0, 0]	n/a	FR1	0	R1229M
2312.832	1.617	2319788	WORD	n/a	wordpools/wordpool_EN.txt	MULE	10	16	[0, 0, 0]	n/a	FR1	0	R1229M
2314.449	0.867	2321405	WORD_OFF	n/a	n/a	MULE	10	16	[0, 0, 0]	n/a	FR1	0	R1229M
2315.316	1.617	2322272	WORD	n/a	wordpools/wordpool_EN.txt	JUICE	11	16	[0, 0, 0]	n/a	FR1	0	R1229M
2316.933	0.85	2323888	WORD_OFF	n/a	n/a	JUICE	11	16	[0, 0, 0]	n/a	FR1	0	R1229M
2317.783	1.617	2324738	WORD	n/a	wordpools/wordpool_EN.txt	MAT	12	16	[0, 0, 0]	n/a	FR1	0	R1229M
2319.4	0.0	2326355	WORD_OFF	n/a	n/a	MAT	12	16	[0, 0, 0]	n/a	FR1	0	R1229M
2319.4	0.001	2326355	DISTRACT_START	n/a	n/a	n/a	-999	16	[0, 0, 0]	n/a	FR1	0	R1229M
2319.401	0.016	2326356	START	n/a	n/a	n/a	-999	16	[-999, -999, -999]	n/a	FR1	0	R1229M
2319.417	12.669	2326372	PROB	12.669	n/a	n/a	-999	16	[6, 8, 7]	19	FR1	0	R1229M
2332.086	6.084	2339041	PROB	6.084	n/a	n/a	-999	16	[4, 4, 6]	14	FR1	0	R1229M
2338.17	5.157	2345124	PROB	5.157	n/a	n/a	-999	16	[3, 3, 1]	7	FR1	0	R1229M
2343.327	0.011	2350281	STOP	n/a	n/a	n/a	-999	16	[-999, -999, -999]	n/a	FR1	0	R1229M
2343.338	0.55	2350292	DISTRACT_END	n/a	n/a	n/a	-999	16	[0, 0, 0]	n/a	FR1	0	R1229M
2343.888	0.517	2350842	RETRIEVAL_ORIENT	n/a	n/a	n/a	-999	16	[0, 0, 0]	n/a	FR1	0	R1229M
2344.405	10.544	2351359	REC_START	n/a	n/a	n/a	-999	16	[0, 0, 0]	n/a	FR1	0	R1229M
2354.949	19.469	2361902	REC_WORD_VV	19.469	n/a	<>	-999	16	[0, 0, 0]	n/a	FR1	0	R1229M
2374.418	53.335	2381370	REC_END	n/a	n/a	n/a	-999	16	[0, 0, 0]	n/a	FR1	0	R1229M
2427.753	0.0	2434702	TRIAL	n/a	n/a	n/a	-999	17	[0, 0, 0]	n/a	FR1	0	R1229M
