onset	duration	sample	trial_type	response_time	stim_file	item_name	serialpos	list	test	answer	experiment	session	subject
0.0	127.163	-1	INSTRUCT_START	n/a	n/a	n/a	-999	-999	[0, 0, 0]	n/a	FR1	3	R1315T
127.163	47.586	490	INSTRUCT_START	n/a	n/a	n/a	-999	-999	[0, 0, 0]	n/a	FR1	3	R1315T
174.749	9.585	48074	INSTRUCT_END	n/a	n/a	n/a	-999	-999	[0, 0, 0]	n/a	FR1	3	R1315T
184.334	15.727	57659	MIC TEST_START	n/a	n/a	n/a	-999	-999	[0, 0, 0]	n/a	FR1	3	R1315T
200.061	0.019	73385	MIC TEST_END	n/a	n/a	n/a	-999	-999	[0, 0, 0]	n/a	FR1	3	R1315T
200.08	0.001	73404	TRIAL_START	n/a	n/a	n/a	-999	-1	[0, 0, 0]	n/a	FR1	3	R1315T
200.081	0.0	73405	TRIAL	n/a	n/a	n/a	-999	-1	[0, 0, 0]	n/a	FR1	3	R1315T
200.081	27.228	73405	WAITING_START	n/a	n/a	n/a	-999	-1	[0, 0, 0]	n/a	FR1	3	R1315T
227.309	0.0	100632	WAITING_END	n/a	n/a	n/a	-999	-1	[0, 0, 0]	n/a	FR1	3	R1315T
227.309	10.43	100632	COUNTDOWN_START	n/a	n/a	n/a	-999	-1	[0, 0, 0]	n/a	FR1	3	R1315T
237.739	0.001	111061	COUNTDOWN_END	n/a	n/a	n/a	-999	-1	[0, 0, 0]	n/a	FR1	3	R1315T
237.74	1.071	111062	ORIENT_START	n/a	n/a	n/a	-999	-1	[0, 0, 0]	n/a	FR1	3	R1315T
238.811	0.0	112133	ORIENT_END	n/a	n/a	n/a	-999	-1	[0, 0, 0]	n/a	FR1	3	R1315T
238.811	1.039	112133	ENCODING_START	n/a	n/a	n/a	-999	-1	[0, 0, 0]	n/a	FR1	3	R1315T
239.85	1.628	113172	WORD	n/a	n/a	CAMEL	1	-1	[0, 0, 0]	n/a	FR1	3	R1315T
241.478	0.824	114800	WORD_OFF	n/a	n/a	CAMEL	1	-1	[0, 0, 0]	n/a	FR1	3	R1315T
242.302	1.626	115624	WORD	n/a	n/a	RING	2	-1	[0, 0, 0]	n/a	FR1	3	R1315T
243.928	0.751	117250	WORD_OFF	n/a	n/a	RING	2	-1	[0, 0, 0]	n/a	FR1	3	R1315T
244.679	1.633	118001	WORD	n/a	n/a	TONGUE	3	-1	[0, 0, 0]	n/a	FR1	3	R1315T
246.312	0.942	119634	WORD_OFF	n/a	n/a	TONGUE	3	-1	[0, 0, 0]	n/a	FR1	3	R1315T
247.254	1.625	120576	WORD	n/a	n/a	WATCH	4	-1	[0, 0, 0]	n/a	FR1	3	R1315T
248.879	0.987	122201	WORD_OFF	n/a	n/a	WATCH	4	-1	[0, 0, 0]	n/a	FR1	3	R1315T
249.866	1.63	123188	WORD	n/a	n/a	BABY	5	-1	[0, 0, 0]	n/a	FR1	3	R1315T
251.496	1.025	124818	WORD_OFF	n/a	n/a	BABY	5	-1	[0, 0, 0]	n/a	FR1	3	R1315T
252.521	1.626	125842	WORD	n/a	n/a	BEAM	6	-1	[0, 0, 0]	n/a	FR1	3	R1315T
254.147	0.987	127468	WORD_OFF	n/a	n/a	BEAM	6	-1	[0, 0, 0]	n/a	FR1	3	R1315T
255.134	1.63	128455	WORD	n/a	n/a	FLOOD	7	-1	[0, 0, 0]	n/a	FR1	3	R1315T
256.764	0.801	130085	WORD_OFF	n/a	n/a	FLOOD	7	-1	[0, 0, 0]	n/a	FR1	3	R1315T
257.565	1.633	130886	WORD	n/a	n/a	COTTON	8	-1	[0, 0, 0]	n/a	FR1	3	R1315T
259.198	1.006	132519	WORD_OFF	n/a	n/a	COTTON	8	-1	[0, 0, 0]	n/a	FR1	3	R1315T
260.204	1.628	133525	WORD	n/a	n/a	WAGON	9	-1	[0, 0, 0]	n/a	FR1	3	R1315T
261.832	0.82	135153	WORD_OFF	n/a	n/a	WAGON	9	-1	[0, 0, 0]	n/a	FR1	3	R1315T
262.652	1.63	135973	WORD	n/a	n/a	CHEST	10	-1	[0, 0, 0]	n/a	FR1	3	R1315T
264.282	0.849	137603	WORD_OFF	n/a	n/a	CHEST	10	-1	[0, 0, 0]	n/a	FR1	3	R1315T
265.131	1.635	138452	WORD	n/a	n/a	RHINO	11	-1	[0, 0, 0]	n/a	FR1	3	R1315T
266.766	0.967	140087	WORD_OFF	n/a	n/a	RHINO	11	-1	[0, 0, 0]	n/a	FR1	3	R1315T
267.733	1.633	141054	WORD	n/a	n/a	IMAGE	12	-1	[0, 0, 0]	n/a	FR1	3	R1315T
269.366	0.001	142687	WORD_OFF	n/a	n/a	IMAGE	12	-1	[0, 0, 0]	n/a	FR1	3	R1315T
269.367	0.0	142688	ENCODING_END	n/a	n/a	n/a	-999	-1	[0, 0, 0]	n/a	FR1	3	R1315T
269.367	0.0	142688	DISTRACT_START	n/a	n/a	n/a	-999	-1	[0, 0, 0]	n/a	FR1	3	R1315T
269.367	0.016	142688	START	n/a	n/a	n/a	-999	-1	[-999, -999, -999]	n/a	FR1	3	R1315T
269.383	4.668	142704	PROB	4.668	n/a	n/a	-999	-1	[7, 7, 2]	16	FR1	3	R1315T
274.051	4.333	147372	PROB	4.333	n/a	n/a	-999	-1	[7, 4, 2]	13	FR1	3	R1315T
278.384	5.018	151704	PROB	5.018	n/a	n/a	-999	-1	[9, 3, 7]	19	FR1	3	R1315T
283.402	3.001	156722	PROB	3.001	n/a	n/a	-999	-1	[3, 6, 9]	18	FR1	3	R1315T
286.403	4.596	159723	PROB	4.596	n/a	n/a	-999	-1	[3, 7, 5]	15	FR1	3	R1315T
290.999	0.005	164319	STOP	n/a	n/a	n/a	-999	-1	[-999, -999, -999]	n/a	FR1	3	R1315T
291.004	0.58	164324	DISTRACT_END	n/a	n/a	n/a	-999	-1	[0, 0, 0]	n/a	FR1	3	R1315T
291.584	1.62	164904	RETRIEVAL_ORIENT_START	n/a	n/a	n/a	-999	-1	[0, 0, 0]	n/a	FR1	3	R1315T
293.204	0.0	166524	REC_START	n/a	n/a	n/a	-999	-1	[0, 0, 0]	n/a	FR1	3	R1315T
293.204	1.713	166524	RETRIEVAL_ORIENT_END	n/a	n/a	n/a	-999	-1	[0, 0, 0]	n/a	FR1	3	R1315T
294.917	0.893	168237	REC_WORD	0.893	n/a	CAMEL	1	-1	[0, 0, 0]	n/a	FR1	3	R1315T
295.81	3.616	169130	REC_WORD	3.616	n/a	TONGUE	3	-1	[0, 0, 0]	n/a	FR1	3	R1315T
299.426	0.712	172745	REC_WORD	0.712	n/a	RING	2	-1	[0, 0, 0]	n/a	FR1	3	R1315T
300.138	0.783	173457	REC_WORD	0.783	n/a	WATCH	4	-1	[0, 0, 0]	n/a	FR1	3	R1315T
300.921	1.0	174240	REC_WORD	1.0	n/a	COTTON	8	-1	[0, 0, 0]	n/a	FR1	3	R1315T
301.921	21.293	175240	REC_WORD	21.293	n/a	WAGON	9	-1	[0, 0, 0]	n/a	FR1	3	R1315T
323.214	0.001	196532	REC_END	n/a	n/a	n/a	-999	-1	[0, 0, 0]	n/a	FR1	3	R1315T
323.215	2.062	196533	PRACTICE_POST_INSTRUCT_START	n/a	n/a	n/a	-999	-1	[0, 0, 0]	n/a	FR1	3	R1315T
325.277	0.0	198595	TRIAL_END	n/a	n/a	n/a	-999	-1	[0, 0, 0]	n/a	FR1	3	R1315T
325.277	0.019	198595	PRACTICE_POST_INSTRUCT_END	n/a	n/a	n/a	-999	-1	[0, 0, 0]	n/a	FR1	3	R1315T
325.296	0.001	198614	TRIAL_START	n/a	n/a	n/a	-999	1	[0, 0, 0]	n/a	FR1	3	R1315T
325.297	0.0	198615	TRIAL	n/a	n/a	n/a	-999	1	[0, 0, 0]	n/a	FR1	3	R1315T
325.297	1.063	198615	WAITING_START	n/a	n/a	n/a	-999	1	[0, 0, 0]	n/a	FR1	3	R1315T
326.36	0.0	199678	WAITING_END	n/a	n/a	n/a	-999	1	[0, 0, 0]	n/a	FR1	3	R1315T
326.36	10.43	199678	COUNTDOWN_START	n/a	n/a	n/a	-999	1	[0, 0, 0]	n/a	FR1	3	R1315T
336.79	0.001	210108	COUNTDOWN_END	n/a	n/a	n/a	-999	1	[0, 0, 0]	n/a	FR1	3	R1315T
336.791	1.088	210109	ORIENT_START	n/a	n/a	n/a	-999	1	[0, 0, 0]	n/a	FR1	3	R1315T
337.879	0.0	211197	ORIENT_END	n/a	n/a	n/a	-999	1	[0, 0, 0]	n/a	FR1	3	R1315T
337.879	1.106	211197	ENCODING_START	n/a	n/a	n/a	-999	1	[0, 0, 0]	n/a	FR1	3	R1315T
338.985	1.628	212303	WORD	n/a	wordpools/wordpool_EN.txt	CUP	1	1	[0, 0, 0]	n/a	FR1	3	R1315T
340.613	0.839	213931	WORD_OFF	n/a	n/a	CUP	1	1	[0, 0, 0]	n/a	FR1	3	R1315T
341.452	1.612	214770	WORD	n/a	wordpools/wordpool_EN.txt	HILL	2	1	[0, 0, 0]	n/a	FR1	3	R1315T
343.064	0.993	216381	WORD_OFF	n/a	n/a	HILL	2	1	[0, 0, 0]	n/a	FR1	3	R1315T
344.057	1.623	217374	WORD	n/a	wordpools/wordpool_EN.txt	ARM	3	1	[0, 0, 0]	n/a	FR1	3	R1315T
345.68	0.837	218997	WORD_OFF	n/a	n/a	ARM	3	1	[0, 0, 0]	n/a	FR1	3	R1315T
346.517	1.63	219834	WORD	n/a	wordpools/wordpool_EN.txt	CONE	4	1	[0, 0, 0]	n/a	FR1	3	R1315T
348.147	0.979	221464	WORD_OFF	n/a	n/a	CONE	4	1	[0, 0, 0]	n/a	FR1	3	R1315T
349.126	1.638	222443	WORD	n/a	wordpools/wordpool_EN.txt	BAND	5	1	[0, 0, 0]	n/a	FR1	3	R1315T
350.764	0.757	224081	WORD_OFF	n/a	n/a	BAND	5	1	[0, 0, 0]	n/a	FR1	3	R1315T
351.521	1.627	224838	WORD	n/a	wordpools/wordpool_EN.txt	BLUSH	6	1	[0, 0, 0]	n/a	FR1	3	R1315T
353.148	1.032	226465	WORD_OFF	n/a	n/a	BLUSH	6	1	[0, 0, 0]	n/a	FR1	3	R1315T
354.18	1.635	227497	WORD	n/a	wordpools/wordpool_EN.txt	PEN	7	1	[0, 0, 0]	n/a	FR1	3	R1315T
355.815	1.067	229132	WORD_OFF	n/a	n/a	PEN	7	1	[0, 0, 0]	n/a	FR1	3	R1315T
356.882	1.634	230199	WORD	n/a	wordpools/wordpool_EN.txt	MULE	8	1	[0, 0, 0]	n/a	FR1	3	R1315T
358.516	1.013	231833	WORD_OFF	n/a	n/a	MULE	8	1	[0, 0, 0]	n/a	FR1	3	R1315T
359.529	1.637	232846	WORD	n/a	wordpools/wordpool_EN.txt	FLAG	9	1	[0, 0, 0]	n/a	FR1	3	R1315T
361.166	0.771	234483	WORD_OFF	n/a	n/a	FLAG	9	1	[0, 0, 0]	n/a	FR1	3	R1315T
361.937	1.63	235254	WORD	n/a	wordpools/wordpool_EN.txt	POND	10	1	[0, 0, 0]	n/a	FR1	3	R1315T
363.567	0.813	236884	WORD_OFF	n/a	n/a	POND	10	1	[0, 0, 0]	n/a	FR1	3	R1315T
364.38	1.638	237697	WORD	n/a	wordpools/wordpool_EN.txt	CAVE	11	1	[0, 0, 0]	n/a	FR1	3	R1315T
366.018	1.109	239334	WORD_OFF	n/a	n/a	CAVE	11	1	[0, 0, 0]	n/a	FR1	3	R1315T
367.127	1.624	240443	WORD	n/a	wordpools/wordpool_EN.txt	CLOCK	12	1	[0, 0, 0]	n/a	FR1	3	R1315T
368.751	0.0	242067	WORD_OFF	n/a	n/a	CLOCK	12	1	[0, 0, 0]	n/a	FR1	3	R1315T
368.751	0.001	242067	ENCODING_END	n/a	n/a	n/a	-999	1	[0, 0, 0]	n/a	FR1	3	R1315T
368.752	0.0	242068	DISTRACT_START	n/a	n/a	n/a	-999	1	[0, 0, 0]	n/a	FR1	3	R1315T
368.752	0.015	242068	START	n/a	n/a	n/a	-999	1	[-999, -999, -999]	n/a	FR1	3	R1315T
368.767	3.501	242083	PROB	3.501	n/a	n/a	-999	1	[9, 2, 2]	13	FR1	3	R1315T
372.268	4.484	245584	PROB	4.484	n/a	n/a	-999	1	[2, 8, 4]	14	FR1	3	R1315T
376.752	3.468	250068	PROB	3.468	n/a	n/a	-999	1	[1, 1, 7]	9	FR1	3	R1315T
380.22	2.533	253536	PROB	2.533	n/a	n/a	-999	1	[9, 1, 2]	12	FR1	3	R1315T
382.753	3.884	256069	PROB	3.884	n/a	n/a	-999	1	[1, 6, 3]	10	FR1	3	R1315T
386.637	2.182	259953	PROB	2.182	n/a	n/a	-999	1	[1, 9, 1]	11	FR1	3	R1315T
388.819	0.019	262134	STOP	n/a	n/a	n/a	-999	1	[-999, -999, -999]	n/a	FR1	3	R1315T
388.838	0.576	262153	DISTRACT_END	n/a	n/a	n/a	-999	1	[0, 0, 0]	n/a	FR1	3	R1315T
389.414	1.642	262729	RETRIEVAL_ORIENT_START	n/a	n/a	n/a	-999	1	[0, 0, 0]	n/a	FR1	3	R1315T
391.056	0.0	264371	RETRIEVAL_ORIENT_END	n/a	n/a	n/a	-999	1	[0, 0, 0]	n/a	FR1	3	R1315T
391.056	2.146	264371	REC_START	n/a	n/a	n/a	-999	1	[0, 0, 0]	n/a	FR1	3	R1315T
393.202	0.708	266517	REC_WORD	0.708	n/a	CUP	1	1	[0, 0, 0]	n/a	FR1	3	R1315T
393.91	10.153	267225	REC_WORD	10.153	n/a	ARM	3	1	[0, 0, 0]	n/a	FR1	3	R1315T
404.063	17.006	277378	REC_WORD	17.006	n/a	MULE	8	1	[0, 0, 0]	n/a	FR1	3	R1315T
421.069	0.001	294383	REC_END	n/a	n/a	n/a	-999	1	[0, 0, 0]	n/a	FR1	3	R1315T
421.07	0.016	294384	TRIAL_END	n/a	n/a	n/a	-999	1	[0, 0, 0]	n/a	FR1	3	R1315T
421.086	0.0	294400	TRIAL_START	n/a	n/a	n/a	-999	2	[0, 0, 0]	n/a	FR1	3	R1315T
421.086	0.0	294400	TRIAL	n/a	n/a	n/a	-999	2	[0, 0, 0]	n/a	FR1	3	R1315T
421.086	1.575	294400	WAITING_START	n/a	n/a	n/a	-999	2	[0, 0, 0]	n/a	FR1	3	R1315T
422.661	0.0	295975	WAITING_END	n/a	n/a	n/a	-999	2	[0, 0, 0]	n/a	FR1	3	R1315T
422.661	10.428	295975	COUNTDOWN_START	n/a	n/a	n/a	-999	2	[0, 0, 0]	n/a	FR1	3	R1315T
433.089	0.0	306402	COUNTDOWN_END	n/a	n/a	n/a	-999	2	[0, 0, 0]	n/a	FR1	3	R1315T
433.089	1.157	306402	ORIENT_START	n/a	n/a	n/a	-999	2	[0, 0, 0]	n/a	FR1	3	R1315T
434.246	0.001	307559	ORIENT_END	n/a	n/a	n/a	-999	2	[0, 0, 0]	n/a	FR1	3	R1315T
434.247	1.059	307560	ENCODING_START	n/a	n/a	n/a	-999	2	[0, 0, 0]	n/a	FR1	3	R1315T
435.306	1.624	308619	WORD	n/a	wordpools/wordpool_EN.txt	LAWN	1	2	[0, 0, 0]	n/a	FR1	3	R1315T
436.93	1.026	310243	WORD_OFF	n/a	n/a	LAWN	1	2	[0, 0, 0]	n/a	FR1	3	R1315T
437.956	1.624	311269	WORD	n/a	wordpools/wordpool_EN.txt	WHALE	2	2	[0, 0, 0]	n/a	FR1	3	R1315T
439.58	1.056	312893	WORD_OFF	n/a	n/a	WHALE	2	2	[0, 0, 0]	n/a	FR1	3	R1315T
440.636	1.628	313949	WORD	n/a	wordpools/wordpool_EN.txt	GOLD	3	2	[0, 0, 0]	n/a	FR1	3	R1315T
442.264	1.122	315577	WORD_OFF	n/a	n/a	GOLD	3	2	[0, 0, 0]	n/a	FR1	3	R1315T
443.386	1.63	316699	WORD	n/a	wordpools/wordpool_EN.txt	MAT	4	2	[0, 0, 0]	n/a	FR1	3	R1315T
445.016	0.886	318329	WORD_OFF	n/a	n/a	MAT	4	2	[0, 0, 0]	n/a	FR1	3	R1315T
445.902	1.63	319215	WORD	n/a	wordpools/wordpool_EN.txt	JET	5	2	[0, 0, 0]	n/a	FR1	3	R1315T
447.532	0.883	320845	WORD_OFF	n/a	n/a	JET	5	2	[0, 0, 0]	n/a	FR1	3	R1315T
448.415	1.635	321728	WORD	n/a	wordpools/wordpool_EN.txt	BEACH	6	2	[0, 0, 0]	n/a	FR1	3	R1315T
450.05	1.122	323363	WORD_OFF	n/a	n/a	BEACH	6	2	[0, 0, 0]	n/a	FR1	3	R1315T
451.172	1.628	324485	WORD	n/a	wordpools/wordpool_EN.txt	OWL	7	2	[0, 0, 0]	n/a	FR1	3	R1315T
452.8	1.019	326113	WORD_OFF	n/a	n/a	OWL	7	2	[0, 0, 0]	n/a	FR1	3	R1315T
453.819	1.631	327132	WORD	n/a	wordpools/wordpool_EN.txt	SMOKE	8	2	[0, 0, 0]	n/a	FR1	3	R1315T
455.45	0.918	328762	WORD_OFF	n/a	n/a	SMOKE	8	2	[0, 0, 0]	n/a	FR1	3	R1315T
456.368	1.617	329680	WORD	n/a	wordpools/wordpool_EN.txt	SKI	9	2	[0, 0, 0]	n/a	FR1	3	R1315T
457.985	1.026	331297	WORD_OFF	n/a	n/a	SKI	9	2	[0, 0, 0]	n/a	FR1	3	R1315T
459.011	1.623	332323	WORD	n/a	wordpools/wordpool_EN.txt	PEA	10	2	[0, 0, 0]	n/a	FR1	3	R1315T
460.634	1.085	333946	WORD_OFF	n/a	n/a	PEA	10	2	[0, 0, 0]	n/a	FR1	3	R1315T
461.719	1.633	335031	WORD	n/a	wordpools/wordpool_EN.txt	BENCH	11	2	[0, 0, 0]	n/a	FR1	3	R1315T
463.352	0.956	336664	WORD_OFF	n/a	n/a	BENCH	11	2	[0, 0, 0]	n/a	FR1	3	R1315T
464.308	1.627	337620	WORD	n/a	wordpools/wordpool_EN.txt	TOAST	12	2	[0, 0, 0]	n/a	FR1	3	R1315T
465.935	0.0	339247	WORD_OFF	n/a	n/a	TOAST	12	2	[0, 0, 0]	n/a	FR1	3	R1315T
465.935	0.001	339247	ENCODING_END	n/a	n/a	n/a	-999	2	[0, 0, 0]	n/a	FR1	3	R1315T
465.936	0.0	339248	DISTRACT_START	n/a	n/a	n/a	-999	2	[0, 0, 0]	n/a	FR1	3	R1315T
465.936	0.016	339248	START	n/a	n/a	n/a	-999	2	[-999, -999, -999]	n/a	FR1	3	R1315T
465.952	4.118	339264	PROB	4.118	n/a	n/a	-999	2	[5, 8, 6]	19	FR1	3	R1315T
470.07	3.333	343382	PROB	3.333	n/a	n/a	-999	2	[6, 9, 1]	16	FR1	3	R1315T
473.403	4.017	346715	PROB	4.017	n/a	n/a	-999	2	[2, 5, 7]	14	FR1	3	R1315T
477.42	3.384	350732	PROB	3.384	n/a	n/a	-999	2	[2, 4, 1]	7	FR1	3	R1315T
480.804	3.834	354115	PROB	3.834	n/a	n/a	-999	2	[4, 6, 4]	17	FR1	3	R1315T
484.638	6.268	357949	PROB	6.268	n/a	n/a	-999	2	[5, 3, 7]	15	FR1	3	R1315T
490.906	0.017	364217	STOP	n/a	n/a	n/a	-999	2	[-999, -999, -999]	n/a	FR1	3	R1315T
490.923	0.641	364234	DISTRACT_END	n/a	n/a	n/a	-999	2	[0, 0, 0]	n/a	FR1	3	R1315T
491.564	1.726	364875	RETRIEVAL_ORIENT_START	n/a	n/a	n/a	-999	2	[0, 0, 0]	n/a	FR1	3	R1315T
493.29	0.0	366601	RETRIEVAL_ORIENT_END	n/a	n/a	n/a	-999	2	[0, 0, 0]	n/a	FR1	3	R1315T
493.29	3.944	366601	REC_START	n/a	n/a	n/a	-999	2	[0, 0, 0]	n/a	FR1	3	R1315T
497.234	14.207	370545	REC_WORD	14.207	n/a	SMOKE	8	2	[0, 0, 0]	n/a	FR1	3	R1315T
511.441	11.862	384751	REC_WORD	11.862	n/a	MAT	4	2	[0, 0, 0]	n/a	FR1	3	R1315T
523.303	0.0	396612	REC_END	n/a	n/a	n/a	-999	2	[0, 0, 0]	n/a	FR1	3	R1315T
523.303	0.014	396612	TRIAL_END	n/a	n/a	n/a	-999	2	[0, 0, 0]	n/a	FR1	3	R1315T
523.317	0.0	396626	WAITING_START	n/a	n/a	n/a	-999	3	[0, 0, 0]	n/a	FR1	3	R1315T
523.317	0.0	396626	TRIAL_START	n/a	n/a	n/a	-999	3	[0, 0, 0]	n/a	FR1	3	R1315T
523.317	1.429	396626	TRIAL	n/a	n/a	n/a	-999	3	[0, 0, 0]	n/a	FR1	3	R1315T
524.746	0.0	398055	WAITING_END	n/a	n/a	n/a	-999	3	[0, 0, 0]	n/a	FR1	3	R1315T
524.746	10.43	398055	COUNTDOWN_START	n/a	n/a	n/a	-999	3	[0, 0, 0]	n/a	FR1	3	R1315T
535.176	0.0	408485	COUNTDOWN_END	n/a	n/a	n/a	-999	3	[0, 0, 0]	n/a	FR1	3	R1315T
535.176	1.205	408485	ORIENT_START	n/a	n/a	n/a	-999	3	[0, 0, 0]	n/a	FR1	3	R1315T
536.381	0.001	409690	ORIENT_END	n/a	n/a	n/a	-999	3	[0, 0, 0]	n/a	FR1	3	R1315T
536.382	0.958	409691	ENCODING_START	n/a	n/a	n/a	-999	3	[0, 0, 0]	n/a	FR1	3	R1315T
537.34	1.626	410649	WORD	n/a	wordpools/wordpool_EN.txt	HOOK	1	3	[0, 0, 0]	n/a	FR1	3	R1315T
538.966	1.065	412275	WORD_OFF	n/a	n/a	HOOK	1	3	[0, 0, 0]	n/a	FR1	3	R1315T
540.031	1.635	413340	WORD	n/a	wordpools/wordpool_EN.txt	CLAY	2	3	[0, 0, 0]	n/a	FR1	3	R1315T
541.666	0.775	414975	WORD_OFF	n/a	n/a	CLAY	2	3	[0, 0, 0]	n/a	FR1	3	R1315T
542.441	1.626	415750	WORD	n/a	wordpools/wordpool_EN.txt	BAG	3	3	[0, 0, 0]	n/a	FR1	3	R1315T
544.067	0.785	417376	WORD_OFF	n/a	n/a	BAG	3	3	[0, 0, 0]	n/a	FR1	3	R1315T
544.852	1.631	418161	WORD	n/a	wordpools/wordpool_EN.txt	LEAF	4	3	[0, 0, 0]	n/a	FR1	3	R1315T
546.483	0.883	419791	WORD_OFF	n/a	n/a	LEAF	4	3	[0, 0, 0]	n/a	FR1	3	R1315T
547.366	1.618	420674	WORD	n/a	wordpools/wordpool_EN.txt	CLOTH	5	3	[0, 0, 0]	n/a	FR1	3	R1315T
548.984	0.849	422292	WORD_OFF	n/a	n/a	CLOTH	5	3	[0, 0, 0]	n/a	FR1	3	R1315T
549.833	1.634	423141	WORD	n/a	wordpools/wordpool_EN.txt	SHEET	6	3	[0, 0, 0]	n/a	FR1	3	R1315T
551.467	1.092	424775	WORD_OFF	n/a	n/a	SHEET	6	3	[0, 0, 0]	n/a	FR1	3	R1315T
552.559	1.626	425867	WORD	n/a	wordpools/wordpool_EN.txt	SHRIMP	7	3	[0, 0, 0]	n/a	FR1	3	R1315T
554.185	0.946	427493	WORD_OFF	n/a	n/a	SHRIMP	7	3	[0, 0, 0]	n/a	FR1	3	R1315T
555.131	1.621	428439	WORD	n/a	wordpools/wordpool_EN.txt	DITCH	8	3	[0, 0, 0]	n/a	FR1	3	R1315T
556.752	1.082	430060	WORD_OFF	n/a	n/a	DITCH	8	3	[0, 0, 0]	n/a	FR1	3	R1315T
557.834	1.635	431142	WORD	n/a	wordpools/wordpool_EN.txt	WEED	9	3	[0, 0, 0]	n/a	FR1	3	R1315T
559.469	0.818	432777	WORD_OFF	n/a	n/a	WEED	9	3	[0, 0, 0]	n/a	FR1	3	R1315T
560.287	1.632	433595	WORD	n/a	wordpools/wordpool_EN.txt	SHIRT	10	3	[0, 0, 0]	n/a	FR1	3	R1315T
561.919	0.991	435227	WORD_OFF	n/a	n/a	SHIRT	10	3	[0, 0, 0]	n/a	FR1	3	R1315T
562.91	1.627	436218	WORD	n/a	wordpools/wordpool_EN.txt	ROSE	11	3	[0, 0, 0]	n/a	FR1	3	R1315T
564.537	1.089	437845	WORD_OFF	n/a	n/a	ROSE	11	3	[0, 0, 0]	n/a	FR1	3	R1315T
565.626	1.628	438934	WORD	n/a	wordpools/wordpool_EN.txt	VEST	12	3	[0, 0, 0]	n/a	FR1	3	R1315T
567.254	0.0	440562	WORD_OFF	n/a	n/a	VEST	12	3	[0, 0, 0]	n/a	FR1	3	R1315T
567.254	0.001	440562	ENCODING_END	n/a	n/a	n/a	-999	3	[0, 0, 0]	n/a	FR1	3	R1315T
567.255	0.0	440563	DISTRACT_START	n/a	n/a	n/a	-999	3	[0, 0, 0]	n/a	FR1	3	R1315T
567.255	0.015	440563	START	n/a	n/a	n/a	-999	3	[-999, -999, -999]	n/a	FR1	3	R1315T
567.27	7.085	440578	PROB	7.085	n/a	n/a	-999	3	[2, 9, 1]	12	FR1	3	R1315T
574.355	4.184	447662	PROB	4.184	n/a	n/a	-999	3	[1, 3, 8]	12	FR1	3	R1315T
578.539	2.917	451846	PROB	2.917	n/a	n/a	-999	3	[5, 2, 5]	12	FR1	3	R1315T
581.456	3.417	454763	PROB	3.417	n/a	n/a	-999	3	[3, 3, 2]	8	FR1	3	R1315T
584.873	11.265	458180	PROB	11.265	n/a	n/a	-999	3	[9, 7, 3]	20	FR1	3	R1315T
596.138	0.021	469444	STOP	n/a	n/a	n/a	-999	3	[-999, -999, -999]	n/a	FR1	3	R1315T
596.159	0.683	469465	DISTRACT_END	n/a	n/a	n/a	-999	3	[0, 0, 0]	n/a	FR1	3	R1315T
596.842	1.617	470148	RETRIEVAL_ORIENT_START	n/a	n/a	n/a	-999	3	[0, 0, 0]	n/a	FR1	3	R1315T
598.459	0.0	471765	RETRIEVAL_ORIENT_END	n/a	n/a	n/a	-999	3	[0, 0, 0]	n/a	FR1	3	R1315T
598.459	12.122	471765	REC_START	n/a	n/a	n/a	-999	3	[0, 0, 0]	n/a	FR1	3	R1315T
610.581	0.998	483887	REC_WORD	0.998	n/a	SHIRT	10	3	[0, 0, 0]	n/a	FR1	3	R1315T
611.579	2.709	484885	REC_WORD	2.709	n/a	VEST	12	3	[0, 0, 0]	n/a	FR1	3	R1315T
614.288	14.184	487593	REC_WORD	14.184	n/a	WEED	9	3	[0, 0, 0]	n/a	FR1	3	R1315T
628.472	0.0	501777	REC_END	n/a	n/a	n/a	-999	3	[0, 0, 0]	n/a	FR1	3	R1315T
628.472	0.017	501777	TRIAL_END	n/a	n/a	n/a	-999	3	[0, 0, 0]	n/a	FR1	3	R1315T
628.489	0.0	501794	TRIAL	n/a	n/a	n/a	-999	4	[0, 0, 0]	n/a	FR1	3	R1315T
628.489	0.001	501794	TRIAL_START	n/a	n/a	n/a	-999	4	[0, 0, 0]	n/a	FR1	3	R1315T
628.49	2.359	501795	WAITING_START	n/a	n/a	n/a	-999	4	[0, 0, 0]	n/a	FR1	3	R1315T
630.849	0.0	504154	WAITING_END	n/a	n/a	n/a	-999	4	[0, 0, 0]	n/a	FR1	3	R1315T
630.849	10.428	504154	COUNTDOWN_START	n/a	n/a	n/a	-999	4	[0, 0, 0]	n/a	FR1	3	R1315T
641.277	0.001	514581	COUNTDOWN_END	n/a	n/a	n/a	-999	4	[0, 0, 0]	n/a	FR1	3	R1315T
641.278	1.223	514582	ORIENT_START	n/a	n/a	n/a	-999	4	[0, 0, 0]	n/a	FR1	3	R1315T
642.501	0.0	515805	ENCODING_START	n/a	n/a	n/a	-999	4	[0, 0, 0]	n/a	FR1	3	R1315T
642.501	0.935	515805	ORIENT_END	n/a	n/a	n/a	-999	4	[0, 0, 0]	n/a	FR1	3	R1315T
643.436	1.633	516740	WORD	n/a	wordpools/wordpool_EN.txt	GRASS	1	4	[0, 0, 0]	n/a	FR1	3	R1315T
645.069	1.054	518373	WORD_OFF	n/a	n/a	GRASS	1	4	[0, 0, 0]	n/a	FR1	3	R1315T
646.123	1.629	519427	WORD	n/a	wordpools/wordpool_EN.txt	LAND	2	4	[0, 0, 0]	n/a	FR1	3	R1315T
647.752	0.973	521056	WORD_OFF	n/a	n/a	LAND	2	4	[0, 0, 0]	n/a	FR1	3	R1315T
648.725	1.627	522029	WORD	n/a	wordpools/wordpool_EN.txt	TRAIN	3	4	[0, 0, 0]	n/a	FR1	3	R1315T
650.352	1.112	523656	WORD_OFF	n/a	n/a	TRAIN	3	4	[0, 0, 0]	n/a	FR1	3	R1315T
651.464	1.639	524768	WORD	n/a	wordpools/wordpool_EN.txt	FLOOR	4	4	[0, 0, 0]	n/a	FR1	3	R1315T
653.103	1.119	526407	WORD_OFF	n/a	n/a	FLOOR	4	4	[0, 0, 0]	n/a	FR1	3	R1315T
654.222	1.631	527526	WORD	n/a	wordpools/wordpool_EN.txt	COW	5	4	[0, 0, 0]	n/a	FR1	3	R1315T
655.853	1.141	529157	WORD_OFF	n/a	n/a	COW	5	4	[0, 0, 0]	n/a	FR1	3	R1315T
656.994	1.626	530298	WORD	n/a	wordpools/wordpool_EN.txt	CORD	6	4	[0, 0, 0]	n/a	FR1	3	R1315T
658.62	0.944	531923	WORD_OFF	n/a	n/a	CORD	6	4	[0, 0, 0]	n/a	FR1	3	R1315T
659.564	1.623	532867	WORD	n/a	wordpools/wordpool_EN.txt	BED	7	4	[0, 0, 0]	n/a	FR1	3	R1315T
661.187	0.968	534490	WORD_OFF	n/a	n/a	BED	7	4	[0, 0, 0]	n/a	FR1	3	R1315T
662.155	1.633	535458	WORD	n/a	wordpools/wordpool_EN.txt	FLAME	8	4	[0, 0, 0]	n/a	FR1	3	R1315T
663.788	0.937	537091	WORD_OFF	n/a	n/a	FLAME	8	4	[0, 0, 0]	n/a	FR1	3	R1315T
664.725	1.63	538028	WORD	n/a	wordpools/wordpool_EN.txt	COUCH	9	4	[0, 0, 0]	n/a	FR1	3	R1315T
666.355	0.921	539658	WORD_OFF	n/a	n/a	COUCH	9	4	[0, 0, 0]	n/a	FR1	3	R1315T
667.276	1.629	540579	WORD	n/a	wordpools/wordpool_EN.txt	OAK	10	4	[0, 0, 0]	n/a	FR1	3	R1315T
668.905	0.832	542208	WORD_OFF	n/a	n/a	OAK	10	4	[0, 0, 0]	n/a	FR1	3	R1315T
669.737	1.636	543040	WORD	n/a	wordpools/wordpool_EN.txt	TRAY	11	4	[0, 0, 0]	n/a	FR1	3	R1315T
671.373	0.795	544676	WORD_OFF	n/a	n/a	TRAY	11	4	[0, 0, 0]	n/a	FR1	3	R1315T
672.168	1.622	545471	WORD	n/a	wordpools/wordpool_EN.txt	NET	12	4	[0, 0, 0]	n/a	FR1	3	R1315T
673.79	0.0	547093	WORD_OFF	n/a	n/a	NET	12	4	[0, 0, 0]	n/a	FR1	3	R1315T
673.79	0.0	547093	ENCODING_END	n/a	n/a	n/a	-999	4	[0, 0, 0]	n/a	FR1	3	R1315T
673.79	0.001	547093	DISTRACT_START	n/a	n/a	n/a	-999	4	[0, 0, 0]	n/a	FR1	3	R1315T
673.791	0.015	547094	START	n/a	n/a	n/a	-999	4	[-999, -999, -999]	n/a	FR1	3	R1315T
673.806	3.284	547109	PROB	3.284	n/a	n/a	-999	4	[9, 3, 1]	14	FR1	3	R1315T
677.09	5.218	550393	PROB	5.218	n/a	n/a	-999	4	[8, 9, 8]	23	FR1	3	R1315T
682.308	4.117	555610	PROB	4.117	n/a	n/a	-999	4	[4, 3, 3]	10	FR1	3	R1315T
686.425	3.151	559727	PROB	3.151	n/a	n/a	-999	4	[9, 8, 5]	21	FR1	3	R1315T
689.576	7.58	562878	PROB	7.58	n/a	n/a	-999	4	[8, 2, 7]	17	FR1	3	R1315T
697.156	0.021	570458	STOP	n/a	n/a	n/a	-999	4	[-999, -999, -999]	n/a	FR1	3	R1315T
697.177	0.576	570479	DISTRACT_END	n/a	n/a	n/a	-999	4	[0, 0, 0]	n/a	FR1	3	R1315T
697.753	1.541	571055	RETRIEVAL_ORIENT_START	n/a	n/a	n/a	-999	4	[0, 0, 0]	n/a	FR1	3	R1315T
699.294	0.0	572596	RETRIEVAL_ORIENT_END	n/a	n/a	n/a	-999	4	[0, 0, 0]	n/a	FR1	3	R1315T
699.294	1.829	572596	REC_START	n/a	n/a	n/a	-999	4	[0, 0, 0]	n/a	FR1	3	R1315T
701.123	0.869	574425	REC_WORD	0.869	n/a	COW	5	4	[0, 0, 0]	n/a	FR1	3	R1315T
701.992	23.502	575294	REC_WORD	23.502	n/a	LAND	2	4	[0, 0, 0]	n/a	FR1	3	R1315T
725.494	3.811	598795	REC_WORD	3.811	n/a	TRAIN	3	4	[0, 0, 0]	n/a	FR1	3	R1315T
729.305	0.0	602605	REC_END	n/a	n/a	n/a	-999	4	[0, 0, 0]	n/a	FR1	3	R1315T
729.305	0.015	602605	TRIAL_END	n/a	n/a	n/a	-999	4	[0, 0, 0]	n/a	FR1	3	R1315T
729.32	0.0	602620	WAITING_START	n/a	n/a	n/a	-999	5	[0, 0, 0]	n/a	FR1	3	R1315T
729.32	0.0	602620	TRIAL	n/a	n/a	n/a	-999	5	[0, 0, 0]	n/a	FR1	3	R1315T
729.32	1.097	602620	TRIAL_START	n/a	n/a	n/a	-999	5	[0, 0, 0]	n/a	FR1	3	R1315T
730.417	0.0	603717	WAITING_END	n/a	n/a	n/a	-999	5	[0, 0, 0]	n/a	FR1	3	R1315T
730.417	10.43	603717	COUNTDOWN_START	n/a	n/a	n/a	-999	5	[0, 0, 0]	n/a	FR1	3	R1315T
740.847	0.0	614147	COUNTDOWN_END	n/a	n/a	n/a	-999	5	[0, 0, 0]	n/a	FR1	3	R1315T
740.847	1.038	614147	ORIENT_START	n/a	n/a	n/a	-999	5	[0, 0, 0]	n/a	FR1	3	R1315T
741.885	0.001	615185	ORIENT_END	n/a	n/a	n/a	-999	5	[0, 0, 0]	n/a	FR1	3	R1315T
741.886	1.01	615186	ENCODING_START	n/a	n/a	n/a	-999	5	[0, 0, 0]	n/a	FR1	3	R1315T
742.896	1.623	616196	WORD	n/a	wordpools/wordpool_EN.txt	GLOVE	1	5	[0, 0, 0]	n/a	FR1	3	R1315T
744.519	1.083	617819	WORD_OFF	n/a	n/a	GLOVE	1	5	[0, 0, 0]	n/a	FR1	3	R1315T
745.602	1.634	618902	WORD	n/a	wordpools/wordpool_EN.txt	GRAPE	2	5	[0, 0, 0]	n/a	FR1	3	R1315T
747.236	0.855	620536	WORD_OFF	n/a	n/a	GRAPE	2	5	[0, 0, 0]	n/a	FR1	3	R1315T
748.091	1.629	621391	WORD	n/a	wordpools/wordpool_EN.txt	BOY	3	5	[0, 0, 0]	n/a	FR1	3	R1315T
749.72	1.068	623019	WORD_OFF	n/a	n/a	BOY	3	5	[0, 0, 0]	n/a	FR1	3	R1315T
750.788	1.633	624087	WORD	n/a	wordpools/wordpool_EN.txt	STEM	4	5	[0, 0, 0]	n/a	FR1	3	R1315T
752.421	0.753	625720	WORD_OFF	n/a	n/a	STEM	4	5	[0, 0, 0]	n/a	FR1	3	R1315T
753.174	1.63	626473	WORD	n/a	wordpools/wordpool_EN.txt	WING	5	5	[0, 0, 0]	n/a	FR1	3	R1315T
754.804	0.943	628103	WORD_OFF	n/a	n/a	WING	5	5	[0, 0, 0]	n/a	FR1	3	R1315T
755.747	1.625	629046	WORD	n/a	wordpools/wordpool_EN.txt	TRASH	6	5	[0, 0, 0]	n/a	FR1	3	R1315T
757.372	1.018	630671	WORD_OFF	n/a	n/a	TRASH	6	5	[0, 0, 0]	n/a	FR1	3	R1315T
758.39	1.633	631689	WORD	n/a	wordpools/wordpool_EN.txt	POLE	7	5	[0, 0, 0]	n/a	FR1	3	R1315T
760.023	1.121	633322	WORD_OFF	n/a	n/a	POLE	7	5	[0, 0, 0]	n/a	FR1	3	R1315T
761.144	1.628	634443	WORD	n/a	wordpools/wordpool_EN.txt	FOX	8	5	[0, 0, 0]	n/a	FR1	3	R1315T
762.772	1.01	636071	WORD_OFF	n/a	n/a	FOX	8	5	[0, 0, 0]	n/a	FR1	3	R1315T
763.782	1.624	637081	WORD	n/a	wordpools/wordpool_EN.txt	LAKE	9	5	[0, 0, 0]	n/a	FR1	3	R1315T
765.406	1.007	638705	WORD_OFF	n/a	n/a	LAKE	9	5	[0, 0, 0]	n/a	FR1	3	R1315T
766.413	1.611	639712	WORD	n/a	wordpools/wordpool_EN.txt	SINK	10	5	[0, 0, 0]	n/a	FR1	3	R1315T
768.024	0.993	641323	WORD_OFF	n/a	n/a	SINK	10	5	[0, 0, 0]	n/a	FR1	3	R1315T
769.017	1.624	642316	WORD	n/a	wordpools/wordpool_EN.txt	DART	11	5	[0, 0, 0]	n/a	FR1	3	R1315T
770.641	1.09	643940	WORD_OFF	n/a	n/a	DART	11	5	[0, 0, 0]	n/a	FR1	3	R1315T
771.731	1.627	645029	WORD	n/a	wordpools/wordpool_EN.txt	PARK	12	5	[0, 0, 0]	n/a	FR1	3	R1315T
773.358	0.0	646656	WORD_OFF	n/a	n/a	PARK	12	5	[0, 0, 0]	n/a	FR1	3	R1315T
773.358	0.0	646656	ENCODING_END	n/a	n/a	n/a	-999	5	[0, 0, 0]	n/a	FR1	3	R1315T
773.358	0.001	646656	DISTRACT_START	n/a	n/a	n/a	-999	5	[0, 0, 0]	n/a	FR1	3	R1315T
773.359	0.015	646657	START	n/a	n/a	n/a	-999	5	[-999, -999, -999]	n/a	FR1	3	R1315T
773.374	7.418	646672	PROB	7.418	n/a	n/a	-999	5	[5, 7, 4]	17	FR1	3	R1315T
780.792	7.485	654090	PROB	7.485	n/a	n/a	-999	5	[9, 6, 7]	22	FR1	3	R1315T
788.277	5.078	661575	PROB	5.078	n/a	n/a	-999	5	[9, 2, 9]	20	FR1	3	R1315T
793.355	0.006	666652	STOP	n/a	n/a	n/a	-999	5	[-999, -999, -999]	n/a	FR1	3	R1315T
793.361	0.598	666658	DISTRACT_END	n/a	n/a	n/a	-999	5	[0, 0, 0]	n/a	FR1	3	R1315T
793.959	1.686	667256	RETRIEVAL_ORIENT_START	n/a	n/a	n/a	-999	5	[0, 0, 0]	n/a	FR1	3	R1315T
795.645	0.001	668942	RETRIEVAL_ORIENT_END	n/a	n/a	n/a	-999	5	[0, 0, 0]	n/a	FR1	3	R1315T
795.646	5.004	668943	REC_START	n/a	n/a	n/a	-999	5	[0, 0, 0]	n/a	FR1	3	R1315T
800.65	14.942	673947	REC_WORD	14.942	n/a	STEM	4	5	[0, 0, 0]	n/a	FR1	3	R1315T
815.592	10.066	688889	REC_WORD	10.066	n/a	FOX	8	5	[0, 0, 0]	n/a	FR1	3	R1315T
825.658	0.0	698954	REC_END	n/a	n/a	n/a	-999	5	[0, 0, 0]	n/a	FR1	3	R1315T
825.658	0.017	698954	TRIAL_END	n/a	n/a	n/a	-999	5	[0, 0, 0]	n/a	FR1	3	R1315T
825.675	0.0	698971	WAITING_START	n/a	n/a	n/a	-999	6	[0, 0, 0]	n/a	FR1	3	R1315T
825.675	0.0	698971	TRIAL	n/a	n/a	n/a	-999	6	[0, 0, 0]	n/a	FR1	3	R1315T
825.675	1.443	698971	TRIAL_START	n/a	n/a	n/a	-999	6	[0, 0, 0]	n/a	FR1	3	R1315T
827.118	0.0	700414	WAITING_END	n/a	n/a	n/a	-999	6	[0, 0, 0]	n/a	FR1	3	R1315T
827.118	10.428	700414	COUNTDOWN_START	n/a	n/a	n/a	-999	6	[0, 0, 0]	n/a	FR1	3	R1315T
837.546	0.0	710842	COUNTDOWN_END	n/a	n/a	n/a	-999	6	[0, 0, 0]	n/a	FR1	3	R1315T
837.546	1.124	710842	ORIENT_START	n/a	n/a	n/a	-999	6	[0, 0, 0]	n/a	FR1	3	R1315T
838.67	0.0	711965	ORIENT_END	n/a	n/a	n/a	-999	6	[0, 0, 0]	n/a	FR1	3	R1315T
838.67	0.76	711965	ENCODING_START	n/a	n/a	n/a	-999	6	[0, 0, 0]	n/a	FR1	3	R1315T
839.43	1.624	712725	WORD	n/a	wordpools/wordpool_EN.txt	BOOT	1	6	[0, 0, 0]	n/a	FR1	3	R1315T
841.054	0.872	714349	WORD_OFF	n/a	n/a	BOOT	1	6	[0, 0, 0]	n/a	FR1	3	R1315T
841.926	1.628	715221	WORD	n/a	wordpools/wordpool_EN.txt	PIT	2	6	[0, 0, 0]	n/a	FR1	3	R1315T
843.554	1.012	716849	WORD_OFF	n/a	n/a	PIT	2	6	[0, 0, 0]	n/a	FR1	3	R1315T
844.566	1.638	717861	WORD	n/a	wordpools/wordpool_EN.txt	RAKE	3	6	[0, 0, 0]	n/a	FR1	3	R1315T
846.204	0.963	719499	WORD_OFF	n/a	n/a	RAKE	3	6	[0, 0, 0]	n/a	FR1	3	R1315T
847.167	1.638	720462	WORD	n/a	wordpools/wordpool_EN.txt	CALF	4	6	[0, 0, 0]	n/a	FR1	3	R1315T
848.805	0.995	722100	WORD_OFF	n/a	n/a	CALF	4	6	[0, 0, 0]	n/a	FR1	3	R1315T
849.8	1.622	723095	WORD	n/a	wordpools/wordpool_EN.txt	VINE	5	6	[0, 0, 0]	n/a	FR1	3	R1315T
851.422	0.829	724717	WORD_OFF	n/a	n/a	VINE	5	6	[0, 0, 0]	n/a	FR1	3	R1315T
852.251	1.638	725546	WORD	n/a	wordpools/wordpool_EN.txt	PLANE	6	6	[0, 0, 0]	n/a	FR1	3	R1315T
853.889	1.033	727184	WORD_OFF	n/a	n/a	PLANE	6	6	[0, 0, 0]	n/a	FR1	3	R1315T
854.922	1.634	728217	WORD	n/a	wordpools/wordpool_EN.txt	DOLL	7	6	[0, 0, 0]	n/a	FR1	3	R1315T
856.556	1.066	729851	WORD_OFF	n/a	n/a	DOLL	7	6	[0, 0, 0]	n/a	FR1	3	R1315T
857.622	1.635	730917	WORD	n/a	wordpools/wordpool_EN.txt	ROCK	8	6	[0, 0, 0]	n/a	FR1	3	R1315T
859.257	0.816	732552	WORD_OFF	n/a	n/a	ROCK	8	6	[0, 0, 0]	n/a	FR1	3	R1315T
860.073	1.634	733368	WORD	n/a	wordpools/wordpool_EN.txt	STEAM	9	6	[0, 0, 0]	n/a	FR1	3	R1315T
861.707	0.822	735001	WORD_OFF	n/a	n/a	STEAM	9	6	[0, 0, 0]	n/a	FR1	3	R1315T
862.529	1.629	735823	WORD	n/a	wordpools/wordpool_EN.txt	SALT	10	6	[0, 0, 0]	n/a	FR1	3	R1315T
864.158	1.032	737452	WORD_OFF	n/a	n/a	SALT	10	6	[0, 0, 0]	n/a	FR1	3	R1315T
865.19	1.635	738484	WORD	n/a	wordpools/wordpool_EN.txt	FISH	11	6	[0, 0, 0]	n/a	FR1	3	R1315T
866.825	0.779	740119	WORD_OFF	n/a	n/a	FISH	11	6	[0, 0, 0]	n/a	FR1	3	R1315T
867.604	1.621	740898	WORD	n/a	wordpools/wordpool_EN.txt	SOCK	12	6	[0, 0, 0]	n/a	FR1	3	R1315T
869.225	0.0	742519	WORD_OFF	n/a	n/a	SOCK	12	6	[0, 0, 0]	n/a	FR1	3	R1315T
869.225	0.001	742519	ENCODING_END	n/a	n/a	n/a	-999	6	[0, 0, 0]	n/a	FR1	3	R1315T
869.226	0.0	742520	DISTRACT_START	n/a	n/a	n/a	-999	6	[0, 0, 0]	n/a	FR1	3	R1315T
869.226	0.016	742520	START	n/a	n/a	n/a	-999	6	[-999, -999, -999]	n/a	FR1	3	R1315T
869.242	6.417	742536	PROB	6.417	n/a	n/a	-999	6	[2, 3, 3]	8	FR1	3	R1315T
875.659	3.434	748953	PROB	3.434	n/a	n/a	-999	6	[7, 5, 1]	23	FR1	3	R1315T
879.093	4.034	752387	PROB	4.034	n/a	n/a	-999	6	[1, 6, 2]	9	FR1	3	R1315T
883.127	5.785	756421	PROB	5.785	n/a	n/a	-999	6	[8, 7, 4]	19	FR1	3	R1315T
888.912	4.055	762205	PROB	4.055	n/a	n/a	-999	6	[9, 6, 4]	19	FR1	3	R1315T
892.967	0.013	766260	STOP	n/a	n/a	n/a	-999	6	[-999, -999, -999]	n/a	FR1	3	R1315T
892.98	0.632	766273	DISTRACT_END	n/a	n/a	n/a	-999	6	[0, 0, 0]	n/a	FR1	3	R1315T
893.612	1.635	766905	RETRIEVAL_ORIENT_START	n/a	n/a	n/a	-999	6	[0, 0, 0]	n/a	FR1	3	R1315T
895.247	0.0	768540	RETRIEVAL_ORIENT_END	n/a	n/a	n/a	-999	6	[0, 0, 0]	n/a	FR1	3	R1315T
895.247	1.103	768540	REC_START	n/a	n/a	n/a	-999	6	[0, 0, 0]	n/a	FR1	3	R1315T
896.35	2.402	769643	REC_WORD	2.402	n/a	STEAM	9	6	[0, 0, 0]	n/a	FR1	3	R1315T
898.752	0.923	772045	REC_WORD	0.923	n/a	SOCK	12	6	[0, 0, 0]	n/a	FR1	3	R1315T
899.675	7.607	772968	REC_WORD	7.607	n/a	BOOT	1	6	[0, 0, 0]	n/a	FR1	3	R1315T
907.282	17.977	780574	REC_WORD	17.977	n/a	PLANE	6	6	[0, 0, 0]	n/a	FR1	3	R1315T
925.259	0.0	798551	REC_END	n/a	n/a	n/a	-999	6	[0, 0, 0]	n/a	FR1	3	R1315T
925.259	0.015	798551	TRIAL_END	n/a	n/a	n/a	-999	6	[0, 0, 0]	n/a	FR1	3	R1315T
925.274	0.0	798566	TRIAL	n/a	n/a	n/a	-999	7	[0, 0, 0]	n/a	FR1	3	R1315T
925.274	0.0	798566	WAITING_START	n/a	n/a	n/a	-999	7	[0, 0, 0]	n/a	FR1	3	R1315T
925.274	1.562	798566	TRIAL_START	n/a	n/a	n/a	-999	7	[0, 0, 0]	n/a	FR1	3	R1315T
926.836	0.0	800128	WAITING_END	n/a	n/a	n/a	-999	7	[0, 0, 0]	n/a	FR1	3	R1315T
926.836	10.429	800128	COUNTDOWN_START	n/a	n/a	n/a	-999	7	[0, 0, 0]	n/a	FR1	3	R1315T
937.265	0.0	810556	COUNTDOWN_END	n/a	n/a	n/a	-999	7	[0, 0, 0]	n/a	FR1	3	R1315T
937.265	1.273	810556	ORIENT_START	n/a	n/a	n/a	-999	7	[0, 0, 0]	n/a	FR1	3	R1315T
938.538	0.0	811829	ORIENT_END	n/a	n/a	n/a	-999	7	[0, 0, 0]	n/a	FR1	3	R1315T
938.538	0.883	811829	ENCODING_START	n/a	n/a	n/a	-999	7	[0, 0, 0]	n/a	FR1	3	R1315T
939.421	1.635	812712	WORD	n/a	wordpools/wordpool_EN.txt	PEACH	1	7	[0, 0, 0]	n/a	FR1	3	R1315T
941.056	0.851	814347	WORD_OFF	n/a	n/a	PEACH	1	7	[0, 0, 0]	n/a	FR1	3	R1315T
941.907	1.632	815198	WORD	n/a	wordpools/wordpool_EN.txt	HAND	2	7	[0, 0, 0]	n/a	FR1	3	R1315T
943.539	0.991	816830	WORD_OFF	n/a	n/a	HAND	2	7	[0, 0, 0]	n/a	FR1	3	R1315T
944.53	1.626	817821	WORD	n/a	wordpools/wordpool_EN.txt	TOE	3	7	[0, 0, 0]	n/a	FR1	3	R1315T
946.156	0.797	819447	WORD_OFF	n/a	n/a	TOE	3	7	[0, 0, 0]	n/a	FR1	3	R1315T
946.953	1.62	820244	WORD	n/a	wordpools/wordpool_EN.txt	APE	4	7	[0, 0, 0]	n/a	FR1	3	R1315T
948.573	0.786	821864	WORD_OFF	n/a	n/a	APE	4	7	[0, 0, 0]	n/a	FR1	3	R1315T
949.359	1.615	822650	WORD	n/a	wordpools/wordpool_EN.txt	MOUSE	5	7	[0, 0, 0]	n/a	FR1	3	R1315T
950.974	1.066	824264	WORD_OFF	n/a	n/a	MOUSE	5	7	[0, 0, 0]	n/a	FR1	3	R1315T
952.04	1.634	825330	WORD	n/a	wordpools/wordpool_EN.txt	WAVE	6	7	[0, 0, 0]	n/a	FR1	3	R1315T
953.674	1.101	826964	WORD_OFF	n/a	n/a	WAVE	6	7	[0, 0, 0]	n/a	FR1	3	R1315T
954.775	1.633	828065	WORD	n/a	wordpools/wordpool_EN.txt	STRAW	7	7	[0, 0, 0]	n/a	FR1	3	R1315T
956.408	0.954	829698	WORD_OFF	n/a	n/a	STRAW	7	7	[0, 0, 0]	n/a	FR1	3	R1315T
957.362	1.614	830652	WORD	n/a	wordpools/wordpool_EN.txt	BANK	8	7	[0, 0, 0]	n/a	FR1	3	R1315T
958.976	0.975	832266	WORD_OFF	n/a	n/a	BANK	8	7	[0, 0, 0]	n/a	FR1	3	R1315T
959.951	1.624	833241	WORD	n/a	wordpools/wordpool_EN.txt	NOSE	9	7	[0, 0, 0]	n/a	FR1	3	R1315T
961.575	1.14	834865	WORD_OFF	n/a	n/a	NOSE	9	7	[0, 0, 0]	n/a	FR1	3	R1315T
962.715	1.627	836005	WORD	n/a	wordpools/wordpool_EN.txt	FARM	10	7	[0, 0, 0]	n/a	FR1	3	R1315T
964.342	0.92	837632	WORD_OFF	n/a	n/a	FARM	10	7	[0, 0, 0]	n/a	FR1	3	R1315T
965.262	1.631	838552	WORD	n/a	wordpools/wordpool_EN.txt	FOAM	11	7	[0, 0, 0]	n/a	FR1	3	R1315T
966.893	1.008	840183	WORD_OFF	n/a	n/a	FOAM	11	7	[0, 0, 0]	n/a	FR1	3	R1315T
967.901	1.626	841191	WORD	n/a	wordpools/wordpool_EN.txt	CASH	12	7	[0, 0, 0]	n/a	FR1	3	R1315T
969.527	0.0	842817	WORD_OFF	n/a	n/a	CASH	12	7	[0, 0, 0]	n/a	FR1	3	R1315T
969.527	0.001	842817	ENCODING_END	n/a	n/a	n/a	-999	7	[0, 0, 0]	n/a	FR1	3	R1315T
969.528	0.0	842818	DISTRACT_START	n/a	n/a	n/a	-999	7	[0, 0, 0]	n/a	FR1	3	R1315T
969.528	0.015	842818	START	n/a	n/a	n/a	-999	7	[-999, -999, -999]	n/a	FR1	3	R1315T
969.543	3.701	842833	PROB	3.701	n/a	n/a	-999	7	[9, 1, 8]	18	FR1	3	R1315T
973.244	2.9	846534	PROB	2.9	n/a	n/a	-999	7	[6, 2, 8]	16	FR1	3	R1315T
976.144	4.501	849433	PROB	4.501	n/a	n/a	-999	7	[2, 9, 1]	12	FR1	3	R1315T
980.645	2.467	853934	PROB	2.467	n/a	n/a	-999	7	[1, 8, 2]	11	FR1	3	R1315T
983.112	3.118	856401	PROB	3.118	n/a	n/a	-999	7	[8, 1, 9]	18	FR1	3	R1315T
986.23	3.423	859519	PROB	3.423	n/a	n/a	-999	7	[7, 6, 7]	22	FR1	3	R1315T
989.653	0.011	862942	STOP	n/a	n/a	n/a	-999	7	[-999, -999, -999]	n/a	FR1	3	R1315T
989.664	0.604	862953	DISTRACT_END	n/a	n/a	n/a	-999	7	[0, 0, 0]	n/a	FR1	3	R1315T
990.268	1.546	863557	RETRIEVAL_ORIENT_START	n/a	n/a	n/a	-999	7	[0, 0, 0]	n/a	FR1	3	R1315T
991.814	0.0	865103	REC_START	n/a	n/a	n/a	-999	7	[0, 0, 0]	n/a	FR1	3	R1315T
991.814	1.776	865103	RETRIEVAL_ORIENT_END	n/a	n/a	n/a	-999	7	[0, 0, 0]	n/a	FR1	3	R1315T
993.59	0.732	866879	REC_WORD	0.732	n/a	TOE	3	7	[0, 0, 0]	n/a	FR1	3	R1315T
994.322	0.71	867611	REC_WORD	0.71	n/a	APE	4	7	[0, 0, 0]	n/a	FR1	3	R1315T
995.032	0.849	868321	REC_WORD	0.849	n/a	CASH	12	7	[0, 0, 0]	n/a	FR1	3	R1315T
995.881	25.945	869170	REC_WORD	25.945	n/a	BANK	8	7	[0, 0, 0]	n/a	FR1	3	R1315T
1021.826	0.0	895113	REC_END	n/a	n/a	n/a	-999	7	[0, 0, 0]	n/a	FR1	3	R1315T
1021.826	0.018	895113	TRIAL_END	n/a	n/a	n/a	-999	7	[0, 0, 0]	n/a	FR1	3	R1315T
1021.844	0.0	895131	WAITING_START	n/a	n/a	n/a	-999	8	[0, 0, 0]	n/a	FR1	3	R1315T
1021.844	0.0	895131	TRIAL	n/a	n/a	n/a	-999	8	[0, 0, 0]	n/a	FR1	3	R1315T
1021.844	1.409	895131	TRIAL_START	n/a	n/a	n/a	-999	8	[0, 0, 0]	n/a	FR1	3	R1315T
1023.253	0.001	896540	WAITING_END	n/a	n/a	n/a	-999	8	[0, 0, 0]	n/a	FR1	3	R1315T
1023.254	10.428	896541	COUNTDOWN_START	n/a	n/a	n/a	-999	8	[0, 0, 0]	n/a	FR1	3	R1315T
1033.682	0.0	906969	COUNTDOWN_END	n/a	n/a	n/a	-999	8	[0, 0, 0]	n/a	FR1	3	R1315T
1033.682	1.24	906969	ORIENT_START	n/a	n/a	n/a	-999	8	[0, 0, 0]	n/a	FR1	3	R1315T
1034.922	0.0	908209	ORIENT_END	n/a	n/a	n/a	-999	8	[0, 0, 0]	n/a	FR1	3	R1315T
1034.922	1.063	908209	ENCODING_START	n/a	n/a	n/a	-999	8	[0, 0, 0]	n/a	FR1	3	R1315T
1035.985	1.621	909272	WORD	n/a	wordpools/wordpool_EN.txt	BAT	1	8	[0, 0, 0]	n/a	FR1	3	R1315T
1037.606	1.085	910893	WORD_OFF	n/a	n/a	BAT	1	8	[0, 0, 0]	n/a	FR1	3	R1315T
1038.691	1.632	911978	WORD	n/a	wordpools/wordpool_EN.txt	ELF	2	8	[0, 0, 0]	n/a	FR1	3	R1315T
1040.323	0.75	913610	WORD_OFF	n/a	n/a	ELF	2	8	[0, 0, 0]	n/a	FR1	3	R1315T
1041.073	1.634	914360	WORD	n/a	wordpools/wordpool_EN.txt	STICK	3	8	[0, 0, 0]	n/a	FR1	3	R1315T
1042.707	1.04	915993	WORD_OFF	n/a	n/a	STICK	3	8	[0, 0, 0]	n/a	FR1	3	R1315T
1043.747	1.627	917033	WORD	n/a	wordpools/wordpool_EN.txt	THREAD	4	8	[0, 0, 0]	n/a	FR1	3	R1315T
1045.374	0.771	918660	WORD_OFF	n/a	n/a	THREAD	4	8	[0, 0, 0]	n/a	FR1	3	R1315T
1046.145	1.629	919431	WORD	n/a	wordpools/wordpool_EN.txt	PALM	5	8	[0, 0, 0]	n/a	FR1	3	R1315T
1047.774	0.932	921060	WORD_OFF	n/a	n/a	PALM	5	8	[0, 0, 0]	n/a	FR1	3	R1315T
1048.706	1.635	921992	WORD	n/a	wordpools/wordpool_EN.txt	SQUARE	6	8	[0, 0, 0]	n/a	FR1	3	R1315T
1050.341	0.798	923627	WORD_OFF	n/a	n/a	SQUARE	6	8	[0, 0, 0]	n/a	FR1	3	R1315T
1051.139	1.636	924425	WORD	n/a	wordpools/wordpool_EN.txt	MOOSE	7	8	[0, 0, 0]	n/a	FR1	3	R1315T
1052.775	0.76	926061	WORD_OFF	n/a	n/a	MOOSE	7	8	[0, 0, 0]	n/a	FR1	3	R1315T
1053.535	1.624	926821	WORD	n/a	wordpools/wordpool_EN.txt	JAIL	8	8	[0, 0, 0]	n/a	FR1	3	R1315T
1055.159	1.07	928445	WORD_OFF	n/a	n/a	JAIL	8	8	[0, 0, 0]	n/a	FR1	3	R1315T
1056.229	1.631	929515	WORD	n/a	wordpools/wordpool_EN.txt	CLOUD	9	8	[0, 0, 0]	n/a	FR1	3	R1315T
1057.86	0.924	931146	WORD_OFF	n/a	n/a	CLOUD	9	8	[0, 0, 0]	n/a	FR1	3	R1315T
1058.784	1.626	932070	WORD	n/a	wordpools/wordpool_EN.txt	KEY	10	8	[0, 0, 0]	n/a	FR1	3	R1315T
1060.41	0.864	933696	WORD_OFF	n/a	n/a	KEY	10	8	[0, 0, 0]	n/a	FR1	3	R1315T
1061.274	1.636	934560	WORD	n/a	wordpools/wordpool_EN.txt	SNAKE	11	8	[0, 0, 0]	n/a	FR1	3	R1315T
1062.91	0.921	936196	WORD_OFF	n/a	n/a	SNAKE	11	8	[0, 0, 0]	n/a	FR1	3	R1315T
1063.831	1.63	937116	WORD	n/a	wordpools/wordpool_EN.txt	BRICK	12	8	[0, 0, 0]	n/a	FR1	3	R1315T
1065.461	0.0	938746	WORD_OFF	n/a	n/a	BRICK	12	8	[0, 0, 0]	n/a	FR1	3	R1315T
1065.461	0.001	938746	ENCODING_END	n/a	n/a	n/a	-999	8	[0, 0, 0]	n/a	FR1	3	R1315T
1065.462	0.0	938747	DISTRACT_START	n/a	n/a	n/a	-999	8	[0, 0, 0]	n/a	FR1	3	R1315T
1065.462	0.015	938747	START	n/a	n/a	n/a	-999	8	[-999, -999, -999]	n/a	FR1	3	R1315T
1065.477	8.668	938762	PROB	8.668	n/a	n/a	-999	8	[4, 7, 5]	17	FR1	3	R1315T
1074.145	4.501	947430	PROB	4.501	n/a	n/a	-999	8	[6, 6, 8]	20	FR1	3	R1315T
1078.646	3.018	951931	PROB	3.018	n/a	n/a	-999	8	[1, 6, 9]	16	FR1	3	R1315T
1081.664	5.06	954949	PROB	5.06	n/a	n/a	-999	8	[4, 2, 5]	11	FR1	3	R1315T
1086.724	0.007	960008	STOP	n/a	n/a	n/a	-999	8	[-999, -999, -999]	n/a	FR1	3	R1315T
1086.731	0.546	960015	DISTRACT_END	n/a	n/a	n/a	-999	8	[0, 0, 0]	n/a	FR1	3	R1315T
1087.277	1.555	960561	RETRIEVAL_ORIENT_START	n/a	n/a	n/a	-999	8	[0, 0, 0]	n/a	FR1	3	R1315T
1088.832	0.0	962116	RETRIEVAL_ORIENT_END	n/a	n/a	n/a	-999	8	[0, 0, 0]	n/a	FR1	3	R1315T
1088.832	26.673	962116	REC_START	n/a	n/a	n/a	-999	8	[0, 0, 0]	n/a	FR1	3	R1315T
1115.505	3.337	988788	REC_WORD_VV	3.337	n/a	<>	-999	8	[0, 0, 0]	n/a	FR1	3	R1315T
1118.842	0.001	992125	REC_END	n/a	n/a	n/a	-999	8	[0, 0, 0]	n/a	FR1	3	R1315T
1118.843	0.015	992126	TRIAL_END	n/a	n/a	n/a	-999	8	[0, 0, 0]	n/a	FR1	3	R1315T
1118.858	0.0	992141	TRIAL_START	n/a	n/a	n/a	-999	9	[0, 0, 0]	n/a	FR1	3	R1315T
1118.858	0.001	992141	TRIAL	n/a	n/a	n/a	-999	9	[0, 0, 0]	n/a	FR1	3	R1315T
1118.859	0.878	992142	WAITING_START	n/a	n/a	n/a	-999	9	[0, 0, 0]	n/a	FR1	3	R1315T
1119.737	0.001	993020	WAITING_END	n/a	n/a	n/a	-999	9	[0, 0, 0]	n/a	FR1	3	R1315T
1119.738	10.428	993021	COUNTDOWN_START	n/a	n/a	n/a	-999	9	[0, 0, 0]	n/a	FR1	3	R1315T
1130.166	0.0	1003449	COUNTDOWN_END	n/a	n/a	n/a	-999	9	[0, 0, 0]	n/a	FR1	3	R1315T
1130.166	1.107	1003449	ORIENT_START	n/a	n/a	n/a	-999	9	[0, 0, 0]	n/a	FR1	3	R1315T
1131.273	0.0	1004555	ORIENT_END	n/a	n/a	n/a	-999	9	[0, 0, 0]	n/a	FR1	3	R1315T
1131.273	0.82	1004555	ENCODING_START	n/a	n/a	n/a	-999	9	[0, 0, 0]	n/a	FR1	3	R1315T
1132.093	1.63	1005375	WORD	n/a	wordpools/wordpool_EN.txt	WEB	1	9	[0, 0, 0]	n/a	FR1	3	R1315T
1133.723	0.965	1007005	WORD_OFF	n/a	n/a	WEB	1	9	[0, 0, 0]	n/a	FR1	3	R1315T
1134.688	1.636	1007970	WORD	n/a	wordpools/wordpool_EN.txt	TREE	2	9	[0, 0, 0]	n/a	FR1	3	R1315T
1136.324	0.912	1009606	WORD_OFF	n/a	n/a	TREE	2	9	[0, 0, 0]	n/a	FR1	3	R1315T
1137.236	1.638	1010518	WORD	n/a	wordpools/wordpool_EN.txt	TANK	3	9	[0, 0, 0]	n/a	FR1	3	R1315T
1138.874	1.04	1012156	WORD_OFF	n/a	n/a	TANK	3	9	[0, 0, 0]	n/a	FR1	3	R1315T
1139.914	1.627	1013196	WORD	n/a	wordpools/wordpool_EN.txt	STAR	4	9	[0, 0, 0]	n/a	FR1	3	R1315T
1141.541	0.957	1014823	WORD_OFF	n/a	n/a	STAR	4	9	[0, 0, 0]	n/a	FR1	3	R1315T
1142.498	1.627	1015780	WORD	n/a	wordpools/wordpool_EN.txt	CHEEK	5	9	[0, 0, 0]	n/a	FR1	3	R1315T
1144.125	0.972	1017407	WORD_OFF	n/a	n/a	CHEEK	5	9	[0, 0, 0]	n/a	FR1	3	R1315T
1145.097	1.629	1018379	WORD	n/a	wordpools/wordpool_EN.txt	WHEEL	6	9	[0, 0, 0]	n/a	FR1	3	R1315T
1146.726	0.894	1020008	WORD_OFF	n/a	n/a	WHEEL	6	9	[0, 0, 0]	n/a	FR1	3	R1315T
1147.62	1.623	1020902	WORD	n/a	wordpools/wordpool_EN.txt	NAIL	7	9	[0, 0, 0]	n/a	FR1	3	R1315T
1149.243	0.882	1022525	WORD_OFF	n/a	n/a	NAIL	7	9	[0, 0, 0]	n/a	FR1	3	R1315T
1150.125	1.635	1023407	WORD	n/a	wordpools/wordpool_EN.txt	PEARL	8	9	[0, 0, 0]	n/a	FR1	3	R1315T
1151.76	0.925	1025042	WORD_OFF	n/a	n/a	PEARL	8	9	[0, 0, 0]	n/a	FR1	3	R1315T
1152.685	1.625	1025967	WORD	n/a	wordpools/wordpool_EN.txt	BADGE	9	9	[0, 0, 0]	n/a	FR1	3	R1315T
1154.31	0.775	1027591	WORD_OFF	n/a	n/a	BADGE	9	9	[0, 0, 0]	n/a	FR1	3	R1315T
1155.085	1.626	1028366	WORD	n/a	wordpools/wordpool_EN.txt	YARD	10	9	[0, 0, 0]	n/a	FR1	3	R1315T
1156.711	0.928	1029992	WORD_OFF	n/a	n/a	YARD	10	9	[0, 0, 0]	n/a	FR1	3	R1315T
1157.639	1.622	1030920	WORD	n/a	wordpools/wordpool_EN.txt	SMILE	11	9	[0, 0, 0]	n/a	FR1	3	R1315T
1159.261	1.109	1032542	WORD_OFF	n/a	n/a	SMILE	11	9	[0, 0, 0]	n/a	FR1	3	R1315T
1160.37	1.626	1033651	WORD	n/a	wordpools/wordpool_EN.txt	RIB	12	9	[0, 0, 0]	n/a	FR1	3	R1315T
1161.996	0.001	1035277	WORD_OFF	n/a	n/a	RIB	12	9	[0, 0, 0]	n/a	FR1	3	R1315T
1161.997	0.0	1035278	ENCODING_END	n/a	n/a	n/a	-999	9	[0, 0, 0]	n/a	FR1	3	R1315T
1161.997	0.0	1035278	DISTRACT_START	n/a	n/a	n/a	-999	9	[0, 0, 0]	n/a	FR1	3	R1315T
1161.997	0.015	1035278	START	n/a	n/a	n/a	-999	9	[-999, -999, -999]	n/a	FR1	3	R1315T
1162.012	7.734	1035293	PROB	7.734	n/a	n/a	-999	9	[2, 6, 3]	12	FR1	3	R1315T
1169.746	7.118	1043027	PROB	7.118	n/a	n/a	-999	9	[7, 7, 8]	24	FR1	3	R1315T
1176.864	10.077	1050144	PROB	10.077	n/a	n/a	-999	9	[8, 8, 4]	20	FR1	3	R1315T
1186.941	0.01	1060221	STOP	n/a	n/a	n/a	-999	9	[-999, -999, -999]	n/a	FR1	3	R1315T
1186.951	0.602	1060231	DISTRACT_END	n/a	n/a	n/a	-999	9	[0, 0, 0]	n/a	FR1	3	R1315T
1187.553	1.597	1060833	RETRIEVAL_ORIENT_START	n/a	n/a	n/a	-999	9	[0, 0, 0]	n/a	FR1	3	R1315T
1189.15	0.0	1062430	RETRIEVAL_ORIENT_END	n/a	n/a	n/a	-999	9	[0, 0, 0]	n/a	FR1	3	R1315T
1189.15	22.33	1062430	REC_START	n/a	n/a	n/a	-999	9	[0, 0, 0]	n/a	FR1	3	R1315T
1211.48	7.683	1084759	REC_WORD	7.683	n/a	STAR	4	9	[0, 0, 0]	n/a	FR1	3	R1315T
1219.163	0.0	1092442	REC_END	n/a	n/a	n/a	-999	9	[0, 0, 0]	n/a	FR1	3	R1315T
1219.163	0.016	1092442	TRIAL_END	n/a	n/a	n/a	-999	9	[0, 0, 0]	n/a	FR1	3	R1315T
1219.179	0.001	1092458	TRIAL_START	n/a	n/a	n/a	-999	10	[0, 0, 0]	n/a	FR1	3	R1315T
1219.18	0.0	1092459	TRIAL	n/a	n/a	n/a	-999	10	[0, 0, 0]	n/a	FR1	3	R1315T
1219.18	1.526	1092459	WAITING_START	n/a	n/a	n/a	-999	10	[0, 0, 0]	n/a	FR1	3	R1315T
1220.706	0.0	1093985	WAITING_END	n/a	n/a	n/a	-999	10	[0, 0, 0]	n/a	FR1	3	R1315T
1220.706	10.428	1093985	COUNTDOWN_START	n/a	n/a	n/a	-999	10	[0, 0, 0]	n/a	FR1	3	R1315T
1231.134	0.001	1104412	COUNTDOWN_END	n/a	n/a	n/a	-999	10	[0, 0, 0]	n/a	FR1	3	R1315T
1231.135	1.206	1104413	ORIENT_START	n/a	n/a	n/a	-999	10	[0, 0, 0]	n/a	FR1	3	R1315T
1232.341	0.001	1105619	ORIENT_END	n/a	n/a	n/a	-999	10	[0, 0, 0]	n/a	FR1	3	R1315T
1232.342	1.069	1105620	ENCODING_START	n/a	n/a	n/a	-999	10	[0, 0, 0]	n/a	FR1	3	R1315T
1233.411	1.615	1106689	WORD	n/a	wordpools/wordpool_EN.txt	SEAT	1	10	[0, 0, 0]	n/a	FR1	3	R1315T
1235.026	1.045	1108304	WORD_OFF	n/a	n/a	SEAT	1	10	[0, 0, 0]	n/a	FR1	3	R1315T
1236.071	1.621	1109349	WORD	n/a	wordpools/wordpool_EN.txt	FOOT	2	10	[0, 0, 0]	n/a	FR1	3	R1315T
1237.692	1.136	1110970	WORD_OFF	n/a	n/a	FOOT	2	10	[0, 0, 0]	n/a	FR1	3	R1315T
1238.828	1.631	1112106	WORD	n/a	wordpools/wordpool_EN.txt	SWORD	3	10	[0, 0, 0]	n/a	FR1	3	R1315T
1240.459	0.872	1113737	WORD_OFF	n/a	n/a	SWORD	3	10	[0, 0, 0]	n/a	FR1	3	R1315T
1241.331	1.63	1114609	WORD	n/a	wordpools/wordpool_EN.txt	GEESE	4	10	[0, 0, 0]	n/a	FR1	3	R1315T
1242.961	1.053	1116239	WORD_OFF	n/a	n/a	GEESE	4	10	[0, 0, 0]	n/a	FR1	3	R1315T
1244.014	1.63	1117291	WORD	n/a	wordpools/wordpool_EN.txt	SEAL	5	10	[0, 0, 0]	n/a	FR1	3	R1315T
1245.644	0.897	1118921	WORD_OFF	n/a	n/a	SEAL	5	10	[0, 0, 0]	n/a	FR1	3	R1315T
1246.541	1.636	1119818	WORD	n/a	wordpools/wordpool_EN.txt	DEER	6	10	[0, 0, 0]	n/a	FR1	3	R1315T
1248.177	0.882	1121454	WORD_OFF	n/a	n/a	DEER	6	10	[0, 0, 0]	n/a	FR1	3	R1315T
1249.059	1.635	1122336	WORD	n/a	wordpools/wordpool_EN.txt	LIP	7	10	[0, 0, 0]	n/a	FR1	3	R1315T
1250.694	1.037	1123971	WORD_OFF	n/a	n/a	LIP	7	10	[0, 0, 0]	n/a	FR1	3	R1315T
1251.731	1.631	1125008	WORD	n/a	wordpools/wordpool_EN.txt	BRANCH	8	10	[0, 0, 0]	n/a	FR1	3	R1315T
1253.362	0.935	1126639	WORD_OFF	n/a	n/a	BRANCH	8	10	[0, 0, 0]	n/a	FR1	3	R1315T
1254.297	1.632	1127574	WORD	n/a	wordpools/wordpool_EN.txt	TEA	9	10	[0, 0, 0]	n/a	FR1	3	R1315T
1255.929	0.926	1129206	WORD_OFF	n/a	n/a	TEA	9	10	[0, 0, 0]	n/a	FR1	3	R1315T
1256.855	1.624	1130132	WORD	n/a	wordpools/wordpool_EN.txt	CAPE	10	10	[0, 0, 0]	n/a	FR1	3	R1315T
1258.479	1.093	1131756	WORD_OFF	n/a	n/a	CAPE	10	10	[0, 0, 0]	n/a	FR1	3	R1315T
1259.572	1.624	1132849	WORD	n/a	wordpools/wordpool_EN.txt	ROOF	11	10	[0, 0, 0]	n/a	FR1	3	R1315T
1261.196	0.873	1134473	WORD_OFF	n/a	n/a	ROOF	11	10	[0, 0, 0]	n/a	FR1	3	R1315T
1262.069	1.628	1135346	WORD	n/a	wordpools/wordpool_EN.txt	DUCK	12	10	[0, 0, 0]	n/a	FR1	3	R1315T
1263.697	0.0	1136974	DISTRACT_START	n/a	n/a	n/a	-999	10	[0, 0, 0]	n/a	FR1	3	R1315T
1263.697	0.0	1136974	ENCODING_END	n/a	n/a	n/a	-999	10	[0, 0, 0]	n/a	FR1	3	R1315T
1263.697	0.001	1136974	WORD_OFF	n/a	n/a	DUCK	12	10	[0, 0, 0]	n/a	FR1	3	R1315T
1263.698	0.015	1136975	START	n/a	n/a	n/a	-999	10	[-999, -999, -999]	n/a	FR1	3	R1315T
1263.713	6.319	1136990	PROB	6.319	n/a	n/a	-999	10	[2, 5, 6]	13	FR1	3	R1315T
1270.032	4.7	1143308	PROB	4.7	n/a	n/a	-999	10	[2, 9, 6]	17	FR1	3	R1315T
1274.732	5.718	1148008	PROB	5.718	n/a	n/a	-999	10	[4, 3, 4]	11	FR1	3	R1315T
1280.45	2.95	1153726	PROB	2.95	n/a	n/a	-999	10	[6, 3, 2]	11	FR1	3	R1315T
1283.4	2.368	1156676	PROB	2.368	n/a	n/a	-999	10	[1, 8, 9]	18	FR1	3	R1315T
1285.768	0.016	1159044	STOP	n/a	n/a	n/a	-999	10	[-999, -999, -999]	n/a	FR1	3	R1315T
1285.784	0.668	1159060	DISTRACT_END	n/a	n/a	n/a	-999	10	[0, 0, 0]	n/a	FR1	3	R1315T
1286.452	1.6	1159728	RETRIEVAL_ORIENT_START	n/a	n/a	n/a	-999	10	[0, 0, 0]	n/a	FR1	3	R1315T
1288.052	0.001	1161328	RETRIEVAL_ORIENT_END	n/a	n/a	n/a	-999	10	[0, 0, 0]	n/a	FR1	3	R1315T
1288.053	1.323	1161329	REC_START	n/a	n/a	n/a	-999	10	[0, 0, 0]	n/a	FR1	3	R1315T
1289.376	28.688	1162651	REC_WORD_VV	28.688	n/a	<>	-999	10	[0, 0, 0]	n/a	FR1	3	R1315T
1318.064	0.0	1191338	REC_END	n/a	n/a	n/a	-999	10	[0, 0, 0]	n/a	FR1	3	R1315T
1318.064	0.014	1191338	TRIAL_END	n/a	n/a	n/a	-999	10	[0, 0, 0]	n/a	FR1	3	R1315T
1318.078	0.0	1191352	WAITING_START	n/a	n/a	n/a	-999	11	[0, 0, 0]	n/a	FR1	3	R1315T
1318.078	0.0	1191352	TRIAL_START	n/a	n/a	n/a	-999	11	[0, 0, 0]	n/a	FR1	3	R1315T
1318.078	1.046	1191352	TRIAL	n/a	n/a	n/a	-999	11	[0, 0, 0]	n/a	FR1	3	R1315T
1319.124	0.0	1192398	WAITING_END	n/a	n/a	n/a	-999	11	[0, 0, 0]	n/a	FR1	3	R1315T
1319.124	10.429	1192398	COUNTDOWN_START	n/a	n/a	n/a	-999	11	[0, 0, 0]	n/a	FR1	3	R1315T
1329.553	0.0	1202827	COUNTDOWN_END	n/a	n/a	n/a	-999	11	[0, 0, 0]	n/a	FR1	3	R1315T
1329.553	1.256	1202827	ORIENT_START	n/a	n/a	n/a	-999	11	[0, 0, 0]	n/a	FR1	3	R1315T
1330.809	0.0	1204083	ORIENT_END	n/a	n/a	n/a	-999	11	[0, 0, 0]	n/a	FR1	3	R1315T
1330.809	0.948	1204083	ENCODING_START	n/a	n/a	n/a	-999	11	[0, 0, 0]	n/a	FR1	3	R1315T
1331.757	1.636	1205031	WORD	n/a	wordpools/wordpool_EN.txt	STREET	1	11	[0, 0, 0]	n/a	FR1	3	R1315T
1333.393	0.93	1206667	WORD_OFF	n/a	n/a	STREET	1	11	[0, 0, 0]	n/a	FR1	3	R1315T
1334.323	1.638	1207596	WORD	n/a	wordpools/wordpool_EN.txt	BUSH	2	11	[0, 0, 0]	n/a	FR1	3	R1315T
1335.961	0.91	1209234	WORD_OFF	n/a	n/a	BUSH	2	11	[0, 0, 0]	n/a	FR1	3	R1315T
1336.871	1.623	1210144	WORD	n/a	wordpools/wordpool_EN.txt	JAR	3	11	[0, 0, 0]	n/a	FR1	3	R1315T
1338.494	0.921	1211767	WORD_OFF	n/a	n/a	JAR	3	11	[0, 0, 0]	n/a	FR1	3	R1315T
1339.415	1.63	1212688	WORD	n/a	wordpools/wordpool_EN.txt	GUARD	4	11	[0, 0, 0]	n/a	FR1	3	R1315T
1341.045	1.074	1214318	WORD_OFF	n/a	n/a	GUARD	4	11	[0, 0, 0]	n/a	FR1	3	R1315T
1342.119	1.626	1215392	WORD	n/a	wordpools/wordpool_EN.txt	FILM	5	11	[0, 0, 0]	n/a	FR1	3	R1315T
1343.745	0.866	1217018	WORD_OFF	n/a	n/a	FILM	5	11	[0, 0, 0]	n/a	FR1	3	R1315T
1344.611	1.634	1217884	WORD	n/a	wordpools/wordpool_EN.txt	DOOR	6	11	[0, 0, 0]	n/a	FR1	3	R1315T
1346.245	0.981	1219518	WORD_OFF	n/a	n/a	DOOR	6	11	[0, 0, 0]	n/a	FR1	3	R1315T
1347.226	1.636	1220499	WORD	n/a	wordpools/wordpool_EN.txt	PANTS	7	11	[0, 0, 0]	n/a	FR1	3	R1315T
1348.862	1.107	1222135	WORD_OFF	n/a	n/a	PANTS	7	11	[0, 0, 0]	n/a	FR1	3	R1315T
1349.969	1.627	1223242	WORD	n/a	wordpools/wordpool_EN.txt	HAT	8	11	[0, 0, 0]	n/a	FR1	3	R1315T
1351.596	0.946	1224869	WORD_OFF	n/a	n/a	HAT	8	11	[0, 0, 0]	n/a	FR1	3	R1315T
1352.542	1.638	1225815	WORD	n/a	wordpools/wordpool_EN.txt	BRUSH	9	11	[0, 0, 0]	n/a	FR1	3	R1315T
1354.18	0.752	1227453	WORD_OFF	n/a	n/a	BRUSH	9	11	[0, 0, 0]	n/a	FR1	3	R1315T
1354.932	1.632	1228205	WORD	n/a	wordpools/wordpool_EN.txt	DRUM	10	11	[0, 0, 0]	n/a	FR1	3	R1315T
1356.564	0.911	1229837	WORD_OFF	n/a	n/a	DRUM	10	11	[0, 0, 0]	n/a	FR1	3	R1315T
1357.475	1.622	1230747	WORD	n/a	wordpools/wordpool_EN.txt	CROW	11	11	[0, 0, 0]	n/a	FR1	3	R1315T
1359.097	0.878	1232369	WORD_OFF	n/a	n/a	CROW	11	11	[0, 0, 0]	n/a	FR1	3	R1315T
1359.975	1.623	1233247	WORD	n/a	wordpools/wordpool_EN.txt	CRANE	12	11	[0, 0, 0]	n/a	FR1	3	R1315T
1361.598	0.0	1234870	WORD_OFF	n/a	n/a	CRANE	12	11	[0, 0, 0]	n/a	FR1	3	R1315T
1361.598	0.001	1234870	ENCODING_END	n/a	n/a	n/a	-999	11	[0, 0, 0]	n/a	FR1	3	R1315T
1361.599	0.0	1234871	DISTRACT_START	n/a	n/a	n/a	-999	11	[0, 0, 0]	n/a	FR1	3	R1315T
1361.599	0.015	1234871	START	n/a	n/a	n/a	-999	11	[-999, -999, -999]	n/a	FR1	3	R1315T
1361.614	6.201	1234886	PROB	6.201	n/a	n/a	-999	11	[2, 6, 7]	17	FR1	3	R1315T
1367.815	2.318	1241087	PROB	2.318	n/a	n/a	-999	11	[3, 1, 1]	5	FR1	3	R1315T
1370.133	4.65	1243405	PROB	4.65	n/a	n/a	-999	11	[8, 6, 2]	16	FR1	3	R1315T
1374.783	6.385	1248055	PROB	6.385	n/a	n/a	-999	11	[9, 4, 6]	19	FR1	3	R1315T
1381.168	5.917	1254439	PROB	5.917	n/a	n/a	-999	11	[9, 9, 3]	12	FR1	3	R1315T
1387.085	0.018	1260356	STOP	n/a	n/a	n/a	-999	11	[-999, -999, -999]	n/a	FR1	3	R1315T
1387.103	0.7	1260374	DISTRACT_END	n/a	n/a	n/a	-999	11	[0, 0, 0]	n/a	FR1	3	R1315T
1387.803	1.683	1261074	RETRIEVAL_ORIENT_START	n/a	n/a	n/a	-999	11	[0, 0, 0]	n/a	FR1	3	R1315T
1389.486	0.001	1262757	RETRIEVAL_ORIENT_END	n/a	n/a	n/a	-999	11	[0, 0, 0]	n/a	FR1	3	R1315T
1389.487	3.173	1262758	REC_START	n/a	n/a	n/a	-999	11	[0, 0, 0]	n/a	FR1	3	R1315T
1392.66	26.838	1265931	REC_WORD	26.838	n/a	JAR	3	11	[0, 0, 0]	n/a	FR1	3	R1315T
1419.498	0.0	1292768	REC_END	n/a	n/a	n/a	-999	11	[0, 0, 0]	n/a	FR1	3	R1315T
1419.498	0.014	1292768	TRIAL_END	n/a	n/a	n/a	-999	11	[0, 0, 0]	n/a	FR1	3	R1315T
1419.512	0.001	1292782	TRIAL_START	n/a	n/a	n/a	-999	12	[0, 0, 0]	n/a	FR1	3	R1315T
1419.513	0.0	1292783	TRIAL	n/a	n/a	n/a	-999	12	[0, 0, 0]	n/a	FR1	3	R1315T
1419.513	2.029	1292783	WAITING_START	n/a	n/a	n/a	-999	12	[0, 0, 0]	n/a	FR1	3	R1315T
1421.542	0.0	1294812	COUNTDOWN_START	n/a	n/a	n/a	-999	12	[0, 0, 0]	n/a	FR1	3	R1315T
1421.542	10.429	1294812	WAITING_END	n/a	n/a	n/a	-999	12	[0, 0, 0]	n/a	FR1	3	R1315T
1431.971	0.0	1305240	COUNTDOWN_END	n/a	n/a	n/a	-999	12	[0, 0, 0]	n/a	FR1	3	R1315T
1431.971	1.24	1305240	ORIENT_START	n/a	n/a	n/a	-999	12	[0, 0, 0]	n/a	FR1	3	R1315T
1433.211	0.001	1306480	ORIENT_END	n/a	n/a	n/a	-999	12	[0, 0, 0]	n/a	FR1	3	R1315T
1433.212	1.013	1306481	ENCODING_START	n/a	n/a	n/a	-999	12	[0, 0, 0]	n/a	FR1	3	R1315T
1434.225	1.636	1307494	WORD	n/a	wordpools/wordpool_EN.txt	STONE	1	12	[0, 0, 0]	n/a	FR1	3	R1315T
1435.861	1.024	1309130	WORD_OFF	n/a	n/a	STONE	1	12	[0, 0, 0]	n/a	FR1	3	R1315T
1436.885	1.627	1310154	WORD	n/a	wordpools/wordpool_EN.txt	SIGN	2	12	[0, 0, 0]	n/a	FR1	3	R1315T
1438.512	0.891	1311781	WORD_OFF	n/a	n/a	SIGN	2	12	[0, 0, 0]	n/a	FR1	3	R1315T
1439.403	1.627	1312672	WORD	n/a	wordpools/wordpool_EN.txt	BOAT	3	12	[0, 0, 0]	n/a	FR1	3	R1315T
1441.03	1.017	1314299	WORD_OFF	n/a	n/a	BOAT	3	12	[0, 0, 0]	n/a	FR1	3	R1315T
1442.047	1.632	1315316	WORD	n/a	wordpools/wordpool_EN.txt	TAIL	4	12	[0, 0, 0]	n/a	FR1	3	R1315T
1443.679	0.852	1316948	WORD_OFF	n/a	n/a	TAIL	4	12	[0, 0, 0]	n/a	FR1	3	R1315T
1444.531	1.632	1317800	WORD	n/a	wordpools/wordpool_EN.txt	SLIME	5	12	[0, 0, 0]	n/a	FR1	3	R1315T
1446.163	0.991	1319432	WORD_OFF	n/a	n/a	SLIME	5	12	[0, 0, 0]	n/a	FR1	3	R1315T
1447.154	1.626	1320422	WORD	n/a	wordpools/wordpool_EN.txt	BOMB	6	12	[0, 0, 0]	n/a	FR1	3	R1315T
1448.78	0.905	1322048	WORD_OFF	n/a	n/a	BOMB	6	12	[0, 0, 0]	n/a	FR1	3	R1315T
1449.685	1.629	1322953	WORD	n/a	wordpools/wordpool_EN.txt	BEE	7	12	[0, 0, 0]	n/a	FR1	3	R1315T
1451.314	1.075	1324582	WORD_OFF	n/a	n/a	BEE	7	12	[0, 0, 0]	n/a	FR1	3	R1315T
1452.389	1.627	1325657	WORD	n/a	wordpools/wordpool_EN.txt	MAIL	8	12	[0, 0, 0]	n/a	FR1	3	R1315T
1454.016	1.003	1327284	WORD_OFF	n/a	n/a	MAIL	8	12	[0, 0, 0]	n/a	FR1	3	R1315T
1455.019	1.63	1328287	WORD	n/a	wordpools/wordpool_EN.txt	PRINCE	9	12	[0, 0, 0]	n/a	FR1	3	R1315T
1456.649	1.048	1329917	WORD_OFF	n/a	n/a	PRINCE	9	12	[0, 0, 0]	n/a	FR1	3	R1315T
1457.697	1.635	1330965	WORD	n/a	wordpools/wordpool_EN.txt	WORM	10	12	[0, 0, 0]	n/a	FR1	3	R1315T
1459.332	0.856	1332600	WORD_OFF	n/a	n/a	WORM	10	12	[0, 0, 0]	n/a	FR1	3	R1315T
1460.188	1.628	1333456	WORD	n/a	wordpools/wordpool_EN.txt	PIE	11	12	[0, 0, 0]	n/a	FR1	3	R1315T
1461.816	0.831	1335084	WORD_OFF	n/a	n/a	PIE	11	12	[0, 0, 0]	n/a	FR1	3	R1315T
1462.647	1.636	1335915	WORD	n/a	wordpools/wordpool_EN.txt	PHONE	12	12	[0, 0, 0]	n/a	FR1	3	R1315T
1464.283	0.001	1337551	WORD_OFF	n/a	n/a	PHONE	12	12	[0, 0, 0]	n/a	FR1	3	R1315T
1464.284	0.0	1337552	ENCODING_END	n/a	n/a	n/a	-999	12	[0, 0, 0]	n/a	FR1	3	R1315T
1464.284	0.0	1337552	DISTRACT_START	n/a	n/a	n/a	-999	12	[0, 0, 0]	n/a	FR1	3	R1315T
1464.284	0.016	1337552	START	n/a	n/a	n/a	-999	12	[-999, -999, -999]	n/a	FR1	3	R1315T
1464.3	6.068	1337568	PROB	6.068	n/a	n/a	-999	12	[2, 5, 1]	8	FR1	3	R1315T
1470.368	2.867	1343635	PROB	2.867	n/a	n/a	-999	12	[4, 4, 6]	14	FR1	3	R1315T
1473.235	3.15	1346502	PROB	3.15	n/a	n/a	-999	12	[5, 3, 3]	11	FR1	3	R1315T
1476.385	4.201	1349652	PROB	4.201	n/a	n/a	-999	12	[3, 3, 2]	8	FR1	3	R1315T
1480.586	5.244	1353853	PROB	5.244	n/a	n/a	-999	12	[5, 9, 4]	18	FR1	3	R1315T
1485.83	0.007	1359097	STOP	n/a	n/a	n/a	-999	12	[-999, -999, -999]	n/a	FR1	3	R1315T
1485.837	0.661	1359104	DISTRACT_END	n/a	n/a	n/a	-999	12	[0, 0, 0]	n/a	FR1	3	R1315T
1486.498	1.557	1359765	RETRIEVAL_ORIENT_START	n/a	n/a	n/a	-999	12	[0, 0, 0]	n/a	FR1	3	R1315T
1488.055	0.001	1361322	RETRIEVAL_ORIENT_END	n/a	n/a	n/a	-999	12	[0, 0, 0]	n/a	FR1	3	R1315T
1488.056	1.664	1361323	REC_START	n/a	n/a	n/a	-999	12	[0, 0, 0]	n/a	FR1	3	R1315T
1489.72	1.221	1362987	REC_WORD	1.221	n/a	SMILE	-999	12	[0, 0, 0]	n/a	FR1	3	R1315T
1490.941	2.003	1364208	REC_WORD	2.003	n/a	BOMB	6	12	[0, 0, 0]	n/a	FR1	3	R1315T
1492.944	25.124	1366210	REC_WORD	25.124	n/a	MAIL	8	12	[0, 0, 0]	n/a	FR1	3	R1315T
1518.068	0.0	1391333	REC_END	n/a	n/a	n/a	-999	12	[0, 0, 0]	n/a	FR1	3	R1315T
1518.068	0.015	1391333	TRIAL_END	n/a	n/a	n/a	-999	12	[0, 0, 0]	n/a	FR1	3	R1315T
1518.083	0.001	1391348	TRIAL_START	n/a	n/a	n/a	-999	13	[0, 0, 0]	n/a	FR1	3	R1315T
1518.084	0.0	1391349	TRIAL	n/a	n/a	n/a	-999	13	[0, 0, 0]	n/a	FR1	3	R1315T
1518.084	13.195	1391349	WAITING_START	n/a	n/a	n/a	-999	13	[0, 0, 0]	n/a	FR1	3	R1315T
1531.279	0.0	1404544	WAITING_END	n/a	n/a	n/a	-999	13	[0, 0, 0]	n/a	FR1	3	R1315T
1531.279	10.428	1404544	COUNTDOWN_START	n/a	n/a	n/a	-999	13	[0, 0, 0]	n/a	FR1	3	R1315T
1541.707	0.0	1414971	COUNTDOWN_END	n/a	n/a	n/a	-999	13	[0, 0, 0]	n/a	FR1	3	R1315T
1541.707	1.207	1414971	ORIENT_START	n/a	n/a	n/a	-999	13	[0, 0, 0]	n/a	FR1	3	R1315T
1542.914	0.001	1416178	ORIENT_END	n/a	n/a	n/a	-999	13	[0, 0, 0]	n/a	FR1	3	R1315T
1542.915	1.04	1416179	ENCODING_START	n/a	n/a	n/a	-999	13	[0, 0, 0]	n/a	FR1	3	R1315T
1543.955	1.626	1417219	WORD	n/a	wordpools/wordpool_EN.txt	FOG	1	13	[0, 0, 0]	n/a	FR1	3	R1315T
1545.581	0.9	1418845	WORD_OFF	n/a	n/a	FOG	1	13	[0, 0, 0]	n/a	FR1	3	R1315T
1546.481	1.634	1419745	WORD	n/a	wordpools/wordpool_EN.txt	INK	2	13	[0, 0, 0]	n/a	FR1	3	R1315T
1548.115	1.071	1421379	WORD_OFF	n/a	n/a	INK	2	13	[0, 0, 0]	n/a	FR1	3	R1315T
1549.186	1.63	1422450	WORD	n/a	wordpools/wordpool_EN.txt	KITE	3	13	[0, 0, 0]	n/a	FR1	3	R1315T
1550.816	0.99	1424080	WORD_OFF	n/a	n/a	KITE	3	13	[0, 0, 0]	n/a	FR1	3	R1315T
1551.806	1.627	1425070	WORD	n/a	wordpools/wordpool_EN.txt	SNOW	4	13	[0, 0, 0]	n/a	FR1	3	R1315T
1553.433	1.144	1426697	WORD_OFF	n/a	n/a	SNOW	4	13	[0, 0, 0]	n/a	FR1	3	R1315T
1554.577	1.623	1427841	WORD	n/a	wordpools/wordpool_EN.txt	TOY	5	13	[0, 0, 0]	n/a	FR1	3	R1315T
1556.2	1.009	1429464	WORD_OFF	n/a	n/a	TOY	5	13	[0, 0, 0]	n/a	FR1	3	R1315T
1557.209	1.625	1430473	WORD	n/a	wordpools/wordpool_EN.txt	SAIL	6	13	[0, 0, 0]	n/a	FR1	3	R1315T
1558.834	0.959	1432098	WORD_OFF	n/a	n/a	SAIL	6	13	[0, 0, 0]	n/a	FR1	3	R1315T
1559.793	1.625	1433056	WORD	n/a	wordpools/wordpool_EN.txt	PIG	7	13	[0, 0, 0]	n/a	FR1	3	R1315T
1561.418	0.791	1434681	WORD_OFF	n/a	n/a	PIG	7	13	[0, 0, 0]	n/a	FR1	3	R1315T
1562.209	1.626	1435472	WORD	n/a	wordpools/wordpool_EN.txt	CROWN	8	13	[0, 0, 0]	n/a	FR1	3	R1315T
1563.835	1.141	1437098	WORD_OFF	n/a	n/a	CROWN	8	13	[0, 0, 0]	n/a	FR1	3	R1315T
1564.976	1.626	1438239	WORD	n/a	wordpools/wordpool_EN.txt	FORT	9	13	[0, 0, 0]	n/a	FR1	3	R1315T
1566.602	0.91	1439865	WORD_OFF	n/a	n/a	FORT	9	13	[0, 0, 0]	n/a	FR1	3	R1315T
1567.512	1.623	1440775	WORD	n/a	wordpools/wordpool_EN.txt	SEED	10	13	[0, 0, 0]	n/a	FR1	3	R1315T
1569.135	0.833	1442398	WORD_OFF	n/a	n/a	SEED	10	13	[0, 0, 0]	n/a	FR1	3	R1315T
1569.968	1.635	1443231	WORD	n/a	wordpools/wordpool_EN.txt	WOLF	11	13	[0, 0, 0]	n/a	FR1	3	R1315T
1571.603	0.92	1444866	WORD_OFF	n/a	n/a	WOLF	11	13	[0, 0, 0]	n/a	FR1	3	R1315T
1572.523	1.63	1445786	WORD	n/a	wordpools/wordpool_EN.txt	CHAIR	12	13	[0, 0, 0]	n/a	FR1	3	R1315T
1574.153	0.001	1447416	WORD_OFF	n/a	n/a	CHAIR	12	13	[0, 0, 0]	n/a	FR1	3	R1315T
1574.154	0.0	1447417	ENCODING_END	n/a	n/a	n/a	-999	13	[0, 0, 0]	n/a	FR1	3	R1315T
1574.154	0.0	1447417	DISTRACT_START	n/a	n/a	n/a	-999	13	[0, 0, 0]	n/a	FR1	3	R1315T
1574.154	0.016	1447417	START	n/a	n/a	n/a	-999	13	[-999, -999, -999]	n/a	FR1	3	R1315T
1574.17	3.434	1447433	PROB	3.434	n/a	n/a	-999	13	[5, 3, 7]	15	FR1	3	R1315T
1577.604	3.133	1450867	PROB	3.133	n/a	n/a	-999	13	[2, 9, 1]	12	FR1	3	R1315T
1580.737	3.068	1454000	PROB	3.068	n/a	n/a	-999	13	[1, 9, 5]	15	FR1	3	R1315T
1583.805	2.833	1457067	PROB	2.833	n/a	n/a	-999	13	[9, 7, 1]	17	FR1	3	R1315T
1586.638	3.352	1459900	PROB	3.352	n/a	n/a	-999	13	[7, 4, 5]	17	FR1	3	R1315T
1589.99	7.946	1463252	PROB	7.946	n/a	n/a	-999	13	[7, 9, 7]	22	FR1	3	R1315T
1597.936	0.022	1471198	STOP	n/a	n/a	n/a	-999	13	[-999, -999, -999]	n/a	FR1	3	R1315T
1597.958	0.581	1471220	DISTRACT_END	n/a	n/a	n/a	-999	13	[0, 0, 0]	n/a	FR1	3	R1315T
1598.539	1.669	1471801	RETRIEVAL_ORIENT_START	n/a	n/a	n/a	-999	13	[0, 0, 0]	n/a	FR1	3	R1315T
1600.208	0.0	1473470	RETRIEVAL_ORIENT_END	n/a	n/a	n/a	-999	13	[0, 0, 0]	n/a	FR1	3	R1315T
1600.208	2.025	1473470	REC_START	n/a	n/a	n/a	-999	13	[0, 0, 0]	n/a	FR1	3	R1315T
1602.233	0.949	1475495	REC_WORD	0.949	n/a	FOG	1	13	[0, 0, 0]	n/a	FR1	3	R1315T
1603.182	27.039	1476444	REC_WORD	27.039	n/a	PIG	7	13	[0, 0, 0]	n/a	FR1	3	R1315T
1630.221	0.0	1503481	REC_END	n/a	n/a	n/a	-999	13	[0, 0, 0]	n/a	FR1	3	R1315T
1630.221	0.014	1503481	TRIAL_END	n/a	n/a	n/a	-999	13	[0, 0, 0]	n/a	FR1	3	R1315T
1630.235	0.0	1503495	TRIAL_START	n/a	n/a	n/a	-999	14	[0, 0, 0]	n/a	FR1	3	R1315T
1630.235	0.001	1503495	TRIAL	n/a	n/a	n/a	-999	14	[0, 0, 0]	n/a	FR1	3	R1315T
1630.236	1.745	1503496	WAITING_START	n/a	n/a	n/a	-999	14	[0, 0, 0]	n/a	FR1	3	R1315T
1631.981	0.001	1505241	WAITING_END	n/a	n/a	n/a	-999	14	[0, 0, 0]	n/a	FR1	3	R1315T
1631.982	10.429	1505242	COUNTDOWN_START	n/a	n/a	n/a	-999	14	[0, 0, 0]	n/a	FR1	3	R1315T
1642.411	0.0	1515671	ORIENT_START	n/a	n/a	n/a	-999	14	[0, 0, 0]	n/a	FR1	3	R1315T
1642.411	1.138	1515671	COUNTDOWN_END	n/a	n/a	n/a	-999	14	[0, 0, 0]	n/a	FR1	3	R1315T
1643.549	0.001	1516809	ORIENT_END	n/a	n/a	n/a	-999	14	[0, 0, 0]	n/a	FR1	3	R1315T
1643.55	0.9	1516810	ENCODING_START	n/a	n/a	n/a	-999	14	[0, 0, 0]	n/a	FR1	3	R1315T
1644.45	1.633	1517710	WORD	n/a	wordpools/wordpool_EN.txt	MUG	1	14	[0, 0, 0]	n/a	FR1	3	R1315T
1646.083	0.887	1519343	WORD_OFF	n/a	n/a	MUG	1	14	[0, 0, 0]	n/a	FR1	3	R1315T
1646.97	1.63	1520230	WORD	n/a	wordpools/wordpool_EN.txt	SWAMP	2	14	[0, 0, 0]	n/a	FR1	3	R1315T
1648.6	0.881	1521860	WORD_OFF	n/a	n/a	SWAMP	2	14	[0, 0, 0]	n/a	FR1	3	R1315T
1649.481	1.636	1522741	WORD	n/a	wordpools/wordpool_EN.txt	SPONGE	3	14	[0, 0, 0]	n/a	FR1	3	R1315T
1651.117	0.793	1524376	WORD_OFF	n/a	n/a	SPONGE	3	14	[0, 0, 0]	n/a	FR1	3	R1315T
1651.91	1.624	1525169	WORD	n/a	wordpools/wordpool_EN.txt	HOLE	4	14	[0, 0, 0]	n/a	FR1	3	R1315T
1653.534	0.809	1526793	WORD_OFF	n/a	n/a	HOLE	4	14	[0, 0, 0]	n/a	FR1	3	R1315T
1654.343	1.626	1527602	WORD	n/a	wordpools/wordpool_EN.txt	SPOON	5	14	[0, 0, 0]	n/a	FR1	3	R1315T
1655.969	1.073	1529228	WORD_OFF	n/a	n/a	SPOON	5	14	[0, 0, 0]	n/a	FR1	3	R1315T
1657.042	1.627	1530301	WORD	n/a	wordpools/wordpool_EN.txt	FOOD	6	14	[0, 0, 0]	n/a	FR1	3	R1315T
1658.669	0.847	1531928	WORD_OFF	n/a	n/a	FOOD	6	14	[0, 0, 0]	n/a	FR1	3	R1315T
1659.516	1.636	1532775	WORD	n/a	wordpools/wordpool_EN.txt	THUMB	7	14	[0, 0, 0]	n/a	FR1	3	R1315T
1661.152	0.961	1534411	WORD_OFF	n/a	n/a	THUMB	7	14	[0, 0, 0]	n/a	FR1	3	R1315T
1662.113	1.623	1535372	WORD	n/a	wordpools/wordpool_EN.txt	SNAIL	8	14	[0, 0, 0]	n/a	FR1	3	R1315T
1663.736	0.845	1536995	WORD_OFF	n/a	n/a	SNAIL	8	14	[0, 0, 0]	n/a	FR1	3	R1315T
1664.581	1.622	1537840	WORD	n/a	wordpools/wordpool_EN.txt	BREAD	9	14	[0, 0, 0]	n/a	FR1	3	R1315T
1666.203	0.982	1539462	WORD_OFF	n/a	n/a	BREAD	9	14	[0, 0, 0]	n/a	FR1	3	R1315T
1667.185	1.636	1540444	WORD	n/a	wordpools/wordpool_EN.txt	FUR	10	14	[0, 0, 0]	n/a	FR1	3	R1315T
1668.821	1.044	1542080	WORD_OFF	n/a	n/a	FUR	10	14	[0, 0, 0]	n/a	FR1	3	R1315T
1669.865	1.622	1543124	WORD	n/a	wordpools/wordpool_EN.txt	POOL	11	14	[0, 0, 0]	n/a	FR1	3	R1315T
1671.487	0.752	1544746	WORD_OFF	n/a	n/a	POOL	11	14	[0, 0, 0]	n/a	FR1	3	R1315T
1672.239	1.632	1545497	WORD	n/a	wordpools/wordpool_EN.txt	MILK	12	14	[0, 0, 0]	n/a	FR1	3	R1315T
1673.871	0.001	1547129	WORD_OFF	n/a	n/a	MILK	12	14	[0, 0, 0]	n/a	FR1	3	R1315T
1673.872	0.0	1547130	ENCODING_END	n/a	n/a	n/a	-999	14	[0, 0, 0]	n/a	FR1	3	R1315T
1673.872	0.0	1547130	DISTRACT_START	n/a	n/a	n/a	-999	14	[0, 0, 0]	n/a	FR1	3	R1315T
1673.872	0.016	1547130	START	n/a	n/a	n/a	-999	14	[-999, -999, -999]	n/a	FR1	3	R1315T
1673.888	7.169	1547146	PROB	7.169	n/a	n/a	-999	14	[1, 6, 2]	10	FR1	3	R1315T
1681.057	4.383	1554315	PROB	4.383	n/a	n/a	-999	14	[4, 2, 5]	11	FR1	3	R1315T
1685.44	6.268	1558698	PROB	6.268	n/a	n/a	-999	14	[7, 6, 5]	18	FR1	3	R1315T
1691.708	3.17	1564966	PROB	3.17	n/a	n/a	-999	14	[6, 3, 3]	12	FR1	3	R1315T
1694.878	0.014	1568135	STOP	n/a	n/a	n/a	-999	14	[-999, -999, -999]	n/a	FR1	3	R1315T
1694.892	0.545	1568149	DISTRACT_END	n/a	n/a	n/a	-999	14	[0, 0, 0]	n/a	FR1	3	R1315T
1695.437	1.589	1568694	RETRIEVAL_ORIENT_START	n/a	n/a	n/a	-999	14	[0, 0, 0]	n/a	FR1	3	R1315T
1697.026	0.001	1570283	RETRIEVAL_ORIENT_END	n/a	n/a	n/a	-999	14	[0, 0, 0]	n/a	FR1	3	R1315T
1697.027	1.967	1570284	REC_START	n/a	n/a	n/a	-999	14	[0, 0, 0]	n/a	FR1	3	R1315T
1698.994	2.393	1572251	REC_WORD	2.393	n/a	THUMB	7	14	[0, 0, 0]	n/a	FR1	3	R1315T
1701.387	2.951	1574644	REC_WORD	2.951	n/a	BREAD	9	14	[0, 0, 0]	n/a	FR1	3	R1315T
1704.338	22.699	1577595	REC_WORD	22.699	n/a	FOOD	6	14	[0, 0, 0]	n/a	FR1	3	R1315T
1727.037	0.0	1600293	REC_END	n/a	n/a	n/a	-999	14	[0, 0, 0]	n/a	FR1	3	R1315T
1727.037	0.015	1600293	TRIAL_END	n/a	n/a	n/a	-999	14	[0, 0, 0]	n/a	FR1	3	R1315T
1727.052	0.001	1600308	TRIAL_START	n/a	n/a	n/a	-999	15	[0, 0, 0]	n/a	FR1	3	R1315T
1727.053	0.0	1600309	TRIAL	n/a	n/a	n/a	-999	15	[0, 0, 0]	n/a	FR1	3	R1315T
1727.053	1.946	1600309	WAITING_START	n/a	n/a	n/a	-999	15	[0, 0, 0]	n/a	FR1	3	R1315T
1728.999	0.0	1602255	WAITING_END	n/a	n/a	n/a	-999	15	[0, 0, 0]	n/a	FR1	3	R1315T
1728.999	10.429	1602255	COUNTDOWN_START	n/a	n/a	n/a	-999	15	[0, 0, 0]	n/a	FR1	3	R1315T
1739.428	0.001	1612684	COUNTDOWN_END	n/a	n/a	n/a	-999	15	[0, 0, 0]	n/a	FR1	3	R1315T
1739.429	1.171	1612685	ORIENT_START	n/a	n/a	n/a	-999	15	[0, 0, 0]	n/a	FR1	3	R1315T
1740.6	0.0	1613855	ORIENT_END	n/a	n/a	n/a	-999	15	[0, 0, 0]	n/a	FR1	3	R1315T
1740.6	0.927	1613855	ENCODING_START	n/a	n/a	n/a	-999	15	[0, 0, 0]	n/a	FR1	3	R1315T
1741.527	1.623	1614782	WORD	n/a	wordpools/wordpool_EN.txt	BOX	1	15	[0, 0, 0]	n/a	FR1	3	R1315T
1743.15	0.803	1616405	WORD_OFF	n/a	n/a	BOX	1	15	[0, 0, 0]	n/a	FR1	3	R1315T
1743.953	1.631	1617208	WORD	n/a	wordpools/wordpool_EN.txt	LAMP	2	15	[0, 0, 0]	n/a	FR1	3	R1315T
1745.584	0.898	1618839	WORD_OFF	n/a	n/a	LAMP	2	15	[0, 0, 0]	n/a	FR1	3	R1315T
1746.482	1.636	1619737	WORD	n/a	wordpools/wordpool_EN.txt	FACE	3	15	[0, 0, 0]	n/a	FR1	3	R1315T
1748.118	1.005	1621373	WORD_OFF	n/a	n/a	FACE	3	15	[0, 0, 0]	n/a	FR1	3	R1315T
1749.123	1.629	1622378	WORD	n/a	wordpools/wordpool_EN.txt	SLEEVE	4	15	[0, 0, 0]	n/a	FR1	3	R1315T
1750.752	1.104	1624007	WORD_OFF	n/a	n/a	SLEEVE	4	15	[0, 0, 0]	n/a	FR1	3	R1315T
1751.856	1.63	1625111	WORD	n/a	wordpools/wordpool_EN.txt	CHIEF	5	15	[0, 0, 0]	n/a	FR1	3	R1315T
1753.486	1.134	1626741	WORD_OFF	n/a	n/a	CHIEF	5	15	[0, 0, 0]	n/a	FR1	3	R1315T
1754.62	1.633	1627875	WORD	n/a	wordpools/wordpool_EN.txt	BLOOM	6	15	[0, 0, 0]	n/a	FR1	3	R1315T
1756.253	1.128	1629508	WORD_OFF	n/a	n/a	BLOOM	6	15	[0, 0, 0]	n/a	FR1	3	R1315T
1757.381	1.623	1630636	WORD	n/a	wordpools/wordpool_EN.txt	TEETH	7	15	[0, 0, 0]	n/a	FR1	3	R1315T
1759.004	1.086	1632259	WORD_OFF	n/a	n/a	TEETH	7	15	[0, 0, 0]	n/a	FR1	3	R1315T
1760.09	1.63	1633345	WORD	n/a	wordpools/wordpool_EN.txt	ARK	8	15	[0, 0, 0]	n/a	FR1	3	R1315T
1761.72	0.992	1634975	WORD_OFF	n/a	n/a	ARK	8	15	[0, 0, 0]	n/a	FR1	3	R1315T
1762.712	1.626	1635966	WORD	n/a	wordpools/wordpool_EN.txt	ROPE	9	15	[0, 0, 0]	n/a	FR1	3	R1315T
1764.338	0.803	1637592	WORD_OFF	n/a	n/a	ROPE	9	15	[0, 0, 0]	n/a	FR1	3	R1315T
1765.141	1.63	1638395	WORD	n/a	wordpools/wordpool_EN.txt	STEAK	10	15	[0, 0, 0]	n/a	FR1	3	R1315T
1766.771	0.753	1640025	WORD_OFF	n/a	n/a	STEAK	10	15	[0, 0, 0]	n/a	FR1	3	R1315T
1767.524	1.631	1640778	WORD	n/a	wordpools/wordpool_EN.txt	RAT	11	15	[0, 0, 0]	n/a	FR1	3	R1315T
1769.155	0.991	1642409	WORD_OFF	n/a	n/a	RAT	11	15	[0, 0, 0]	n/a	FR1	3	R1315T
1770.146	1.626	1643400	WORD	n/a	wordpools/wordpool_EN.txt	SHEEP	12	15	[0, 0, 0]	n/a	FR1	3	R1315T
1771.772	0.001	1645026	WORD_OFF	n/a	n/a	SHEEP	12	15	[0, 0, 0]	n/a	FR1	3	R1315T
1771.773	0.0	1645027	ENCODING_END	n/a	n/a	n/a	-999	15	[0, 0, 0]	n/a	FR1	3	R1315T
1771.773	0.0	1645027	DISTRACT_START	n/a	n/a	n/a	-999	15	[0, 0, 0]	n/a	FR1	3	R1315T
1771.773	0.016	1645027	START	n/a	n/a	n/a	-999	15	[-999, -999, -999]	n/a	FR1	3	R1315T
1771.789	7.935	1645043	PROB	7.935	n/a	n/a	-999	15	[1, 7, 4]	12	FR1	3	R1315T
1779.724	3.167	1652978	PROB	3.167	n/a	n/a	-999	15	[1, 3, 9]	13	FR1	3	R1315T
1782.891	9.406	1656145	PROB	9.406	n/a	n/a	-999	15	[4, 8, 9]	21	FR1	3	R1315T
1792.297	0.012	1665550	STOP	n/a	n/a	n/a	-999	15	[-999, -999, -999]	n/a	FR1	3	R1315T
1792.309	0.528	1665562	DISTRACT_END	n/a	n/a	n/a	-999	15	[0, 0, 0]	n/a	FR1	3	R1315T
1792.837	1.689	1666090	RETRIEVAL_ORIENT_START	n/a	n/a	n/a	-999	15	[0, 0, 0]	n/a	FR1	3	R1315T
1794.526	0.001	1667779	RETRIEVAL_ORIENT_END	n/a	n/a	n/a	-999	15	[0, 0, 0]	n/a	FR1	3	R1315T
1794.527	1.392	1667780	REC_START	n/a	n/a	n/a	-999	15	[0, 0, 0]	n/a	FR1	3	R1315T
1795.919	1.105	1669172	REC_WORD	1.105	n/a	BOX	1	15	[0, 0, 0]	n/a	FR1	3	R1315T
1797.024	24.226	1670277	REC_WORD	24.226	n/a	STEAK	10	15	[0, 0, 0]	n/a	FR1	3	R1315T
1821.25	3.289	1694502	REC_WORD	3.289	n/a	CHEF	-999	15	[0, 0, 0]	n/a	FR1	3	R1315T
1824.539	0.0	1697791	REC_END	n/a	n/a	n/a	-999	15	[0, 0, 0]	n/a	FR1	3	R1315T
1824.539	0.017	1697791	TRIAL_END	n/a	n/a	n/a	-999	15	[0, 0, 0]	n/a	FR1	3	R1315T
1824.556	0.0	1697808	TRIAL_START	n/a	n/a	n/a	-999	16	[0, 0, 0]	n/a	FR1	3	R1315T
1824.556	0.0	1697808	TRIAL	n/a	n/a	n/a	-999	16	[0, 0, 0]	n/a	FR1	3	R1315T
1824.556	2.11	1697808	WAITING_START	n/a	n/a	n/a	-999	16	[0, 0, 0]	n/a	FR1	3	R1315T
1826.666	0.0	1699918	WAITING_END	n/a	n/a	n/a	-999	16	[0, 0, 0]	n/a	FR1	3	R1315T
1826.666	10.428	1699918	COUNTDOWN_START	n/a	n/a	n/a	-999	16	[0, 0, 0]	n/a	FR1	3	R1315T
1837.094	0.001	1710345	COUNTDOWN_END	n/a	n/a	n/a	-999	16	[0, 0, 0]	n/a	FR1	3	R1315T
1837.095	1.173	1710346	ORIENT_START	n/a	n/a	n/a	-999	16	[0, 0, 0]	n/a	FR1	3	R1315T
1838.268	0.0	1711519	ORIENT_END	n/a	n/a	n/a	-999	16	[0, 0, 0]	n/a	FR1	3	R1315T
1838.268	1.007	1711519	ENCODING_START	n/a	n/a	n/a	-999	16	[0, 0, 0]	n/a	FR1	3	R1315T
1839.275	1.626	1712526	WORD	n/a	wordpools/wordpool_EN.txt	STORE	1	16	[0, 0, 0]	n/a	FR1	3	R1315T
1840.901	1.14	1714152	WORD_OFF	n/a	n/a	STORE	1	16	[0, 0, 0]	n/a	FR1	3	R1315T
1842.041	1.628	1715292	WORD	n/a	wordpools/wordpool_EN.txt	FUDGE	2	16	[0, 0, 0]	n/a	FR1	3	R1315T
1843.669	0.907	1716920	WORD_OFF	n/a	n/a	FUDGE	2	16	[0, 0, 0]	n/a	FR1	3	R1315T
1844.576	1.627	1717827	WORD	n/a	wordpools/wordpool_EN.txt	SEA	3	16	[0, 0, 0]	n/a	FR1	3	R1315T
1846.203	0.775	1719454	WORD_OFF	n/a	n/a	SEA	3	16	[0, 0, 0]	n/a	FR1	3	R1315T
1846.978	1.625	1720229	WORD	n/a	wordpools/wordpool_EN.txt	SOAP	4	16	[0, 0, 0]	n/a	FR1	3	R1315T
1848.603	0.932	1721854	WORD_OFF	n/a	n/a	SOAP	4	16	[0, 0, 0]	n/a	FR1	3	R1315T
1849.535	1.635	1722786	WORD	n/a	wordpools/wordpool_EN.txt	TIE	5	16	[0, 0, 0]	n/a	FR1	3	R1315T
1851.17	0.97	1724421	WORD_OFF	n/a	n/a	TIE	5	16	[0, 0, 0]	n/a	FR1	3	R1315T
1852.14	1.63	1725391	WORD	n/a	wordpools/wordpool_EN.txt	HORSE	6	16	[0, 0, 0]	n/a	FR1	3	R1315T
1853.77	1.098	1727020	WORD_OFF	n/a	n/a	HORSE	6	16	[0, 0, 0]	n/a	FR1	3	R1315T
1854.868	1.636	1728118	WORD	n/a	wordpools/wordpool_EN.txt	HOOF	7	16	[0, 0, 0]	n/a	FR1	3	R1315T
1856.504	1.015	1729754	WORD_OFF	n/a	n/a	HOOF	7	16	[0, 0, 0]	n/a	FR1	3	R1315T
1857.519	1.636	1730769	WORD	n/a	wordpools/wordpool_EN.txt	COIN	8	16	[0, 0, 0]	n/a	FR1	3	R1315T
1859.155	0.947	1732405	WORD_OFF	n/a	n/a	COIN	8	16	[0, 0, 0]	n/a	FR1	3	R1315T
1860.102	1.637	1733352	WORD	n/a	wordpools/wordpool_EN.txt	HORN	9	16	[0, 0, 0]	n/a	FR1	3	R1315T
1861.739	0.776	1734989	WORD_OFF	n/a	n/a	HORN	9	16	[0, 0, 0]	n/a	FR1	3	R1315T
1862.515	1.624	1735765	WORD	n/a	wordpools/wordpool_EN.txt	BRIDGE	10	16	[0, 0, 0]	n/a	FR1	3	R1315T
1864.139	0.775	1737389	WORD_OFF	n/a	n/a	BRIDGE	10	16	[0, 0, 0]	n/a	FR1	3	R1315T
1864.914	1.626	1738164	WORD	n/a	wordpools/wordpool_EN.txt	RICE	11	16	[0, 0, 0]	n/a	FR1	3	R1315T
1866.54	0.79	1739790	WORD_OFF	n/a	n/a	RICE	11	16	[0, 0, 0]	n/a	FR1	3	R1315T
1867.33	1.628	1740580	WORD	n/a	wordpools/wordpool_EN.txt	EEL	12	16	[0, 0, 0]	n/a	FR1	3	R1315T
1868.958	0.0	1742208	WORD_OFF	n/a	n/a	EEL	12	16	[0, 0, 0]	n/a	FR1	3	R1315T
1868.958	0.001	1742208	ENCODING_END	n/a	n/a	n/a	-999	16	[0, 0, 0]	n/a	FR1	3	R1315T
1868.959	0.0	1742209	DISTRACT_START	n/a	n/a	n/a	-999	16	[0, 0, 0]	n/a	FR1	3	R1315T
1868.959	0.015	1742209	START	n/a	n/a	n/a	-999	16	[-999, -999, -999]	n/a	FR1	3	R1315T
1868.974	4.6	1742224	PROB	4.6	n/a	n/a	-999	16	[2, 5, 8]	15	FR1	3	R1315T
1873.574	2.7	1746824	PROB	2.7	n/a	n/a	-999	16	[6, 4, 8]	18	FR1	3	R1315T
1876.274	5.601	1749523	PROB	5.601	n/a	n/a	-999	16	[7, 9, 2]	18	FR1	3	R1315T
1881.875	2.384	1755124	PROB	2.384	n/a	n/a	-999	16	[3, 6, 4]	13	FR1	3	R1315T
1884.259	2.901	1757508	PROB	2.901	n/a	n/a	-999	16	[7, 4, 3]	14	FR1	3	R1315T
1887.16	4.784	1760409	PROB	4.784	n/a	n/a	-999	16	[1, 7, 4]	12	FR1	3	R1315T
1891.944	0.018	1765193	STOP	n/a	n/a	n/a	-999	16	[-999, -999, -999]	n/a	FR1	3	R1315T
1891.962	0.513	1765211	DISTRACT_END	n/a	n/a	n/a	-999	16	[0, 0, 0]	n/a	FR1	3	R1315T
1892.475	1.57	1765724	RETRIEVAL_ORIENT_START	n/a	n/a	n/a	-999	16	[0, 0, 0]	n/a	FR1	3	R1315T
1894.045	0.001	1767294	RETRIEVAL_ORIENT_END	n/a	n/a	n/a	-999	16	[0, 0, 0]	n/a	FR1	3	R1315T
1894.046	5.415	1767295	REC_START	n/a	n/a	n/a	-999	16	[0, 0, 0]	n/a	FR1	3	R1315T
1899.461	24.595	1772709	REC_WORD	24.595	n/a	EEL	12	16	[0, 0, 0]	n/a	FR1	3	R1315T
1924.056	0.0	1797303	TRIAL_END	n/a	n/a	n/a	-999	16	[0, 0, 0]	n/a	FR1	3	R1315T
1924.056	0.016	1797303	REC_END	n/a	n/a	n/a	-999	16	[0, 0, 0]	n/a	FR1	3	R1315T
1924.072	0.0	1797319	TRIAL_START	n/a	n/a	n/a	-999	17	[0, 0, 0]	n/a	FR1	3	R1315T
1924.072	0.001	1797319	TRIAL	n/a	n/a	n/a	-999	17	[0, 0, 0]	n/a	FR1	3	R1315T
1924.073	1.661	1797320	WAITING_START	n/a	n/a	n/a	-999	17	[0, 0, 0]	n/a	FR1	3	R1315T
1925.734	0.0	1798981	WAITING_END	n/a	n/a	n/a	-999	17	[0, 0, 0]	n/a	FR1	3	R1315T
1925.734	10.428	1798981	COUNTDOWN_START	n/a	n/a	n/a	-999	17	[0, 0, 0]	n/a	FR1	3	R1315T
1936.162	0.0	1809409	COUNTDOWN_END	n/a	n/a	n/a	-999	17	[0, 0, 0]	n/a	FR1	3	R1315T
1936.162	1.057	1809409	ORIENT_START	n/a	n/a	n/a	-999	17	[0, 0, 0]	n/a	FR1	3	R1315T
1937.219	0.0	1810466	ENCODING_START	n/a	n/a	n/a	-999	17	[0, 0, 0]	n/a	FR1	3	R1315T
1937.219	0.921	1810466	ORIENT_END	n/a	n/a	n/a	-999	17	[0, 0, 0]	n/a	FR1	3	R1315T
1938.14	1.63	1811387	WORD	n/a	wordpools/wordpool_EN.txt	NEST	1	17	[0, 0, 0]	n/a	FR1	3	R1315T
1939.77	0.983	1813017	WORD_OFF	n/a	n/a	NEST	1	17	[0, 0, 0]	n/a	FR1	3	R1315T
1940.753	1.634	1814000	WORD	n/a	wordpools/wordpool_EN.txt	MOLE	2	17	[0, 0, 0]	n/a	FR1	3	R1315T
1942.387	0.78	1815634	WORD_OFF	n/a	n/a	MOLE	2	17	[0, 0, 0]	n/a	FR1	3	R1315T
1943.167	1.637	1816413	WORD	n/a	wordpools/wordpool_EN.txt	ICE	3	17	[0, 0, 0]	n/a	FR1	3	R1315T
1944.804	0.908	1818050	WORD_OFF	n/a	n/a	ICE	3	17	[0, 0, 0]	n/a	FR1	3	R1315T
1945.712	1.626	1818958	WORD	n/a	wordpools/wordpool_EN.txt	TOAD	4	17	[0, 0, 0]	n/a	FR1	3	R1315T
1947.338	0.942	1820584	WORD_OFF	n/a	n/a	TOAD	4	17	[0, 0, 0]	n/a	FR1	3	R1315T
1948.28	1.625	1821526	WORD	n/a	wordpools/wordpool_EN.txt	TRUCK	5	17	[0, 0, 0]	n/a	FR1	3	R1315T
1949.905	0.9	1823151	WORD_OFF	n/a	n/a	TRUCK	5	17	[0, 0, 0]	n/a	FR1	3	R1315T
1950.805	1.633	1824051	WORD	n/a	wordpools/wordpool_EN.txt	ROAD	6	17	[0, 0, 0]	n/a	FR1	3	R1315T
1952.438	0.968	1825684	WORD_OFF	n/a	n/a	ROAD	6	17	[0, 0, 0]	n/a	FR1	3	R1315T
1953.406	1.634	1826652	WORD	n/a	wordpools/wordpool_EN.txt	PIPE	7	17	[0, 0, 0]	n/a	FR1	3	R1315T
1955.04	1.148	1828286	WORD_OFF	n/a	n/a	PIPE	7	17	[0, 0, 0]	n/a	FR1	3	R1315T
1956.188	1.635	1829434	WORD	n/a	wordpools/wordpool_EN.txt	GATE	8	17	[0, 0, 0]	n/a	FR1	3	R1315T
1957.823	0.839	1831069	WORD_OFF	n/a	n/a	GATE	8	17	[0, 0, 0]	n/a	FR1	3	R1315T
1958.662	1.628	1831908	WORD	n/a	wordpools/wordpool_EN.txt	SKY	9	17	[0, 0, 0]	n/a	FR1	3	R1315T
1960.29	0.919	1833536	WORD_OFF	n/a	n/a	SKY	9	17	[0, 0, 0]	n/a	FR1	3	R1315T
1961.209	1.631	1834455	WORD	n/a	wordpools/wordpool_EN.txt	PET	10	17	[0, 0, 0]	n/a	FR1	3	R1315T
1962.84	1.135	1836086	WORD_OFF	n/a	n/a	PET	10	17	[0, 0, 0]	n/a	FR1	3	R1315T
1963.975	1.633	1837221	WORD	n/a	wordpools/wordpool_EN.txt	HEART	11	17	[0, 0, 0]	n/a	FR1	3	R1315T
1965.608	0.919	1838853	WORD_OFF	n/a	n/a	HEART	11	17	[0, 0, 0]	n/a	FR1	3	R1315T
1966.527	1.631	1839772	WORD	n/a	wordpools/wordpool_EN.txt	WOOD	12	17	[0, 0, 0]	n/a	FR1	3	R1315T
1968.158	0.0	1841403	ENCODING_END	n/a	n/a	n/a	-999	17	[0, 0, 0]	n/a	FR1	3	R1315T
1968.158	0.001	1841403	WORD_OFF	n/a	n/a	WOOD	12	17	[0, 0, 0]	n/a	FR1	3	R1315T
1968.159	0.0	1841404	DISTRACT_START	n/a	n/a	n/a	-999	17	[0, 0, 0]	n/a	FR1	3	R1315T
1968.159	0.015	1841404	START	n/a	n/a	n/a	-999	17	[-999, -999, -999]	n/a	FR1	3	R1315T
1968.174	7.435	1841419	PROB	7.435	n/a	n/a	-999	17	[3, 1, 4]	8	FR1	3	R1315T
1975.609	3.601	1848854	PROB	3.601	n/a	n/a	-999	17	[3, 3, 5]	11	FR1	3	R1315T
1979.21	3.65	1852455	PROB	3.65	n/a	n/a	-999	17	[4, 1, 5]	10	FR1	3	R1315T
1982.86	12.742	1856105	PROB	12.742	n/a	n/a	-999	17	[7, 8, 8]	13	FR1	3	R1315T
1995.602	0.011	1868846	STOP	n/a	n/a	n/a	-999	17	[-999, -999, -999]	n/a	FR1	3	R1315T
1995.613	0.567	1868857	DISTRACT_END	n/a	n/a	n/a	-999	17	[0, 0, 0]	n/a	FR1	3	R1315T
1996.18	1.7	1869424	RETRIEVAL_ORIENT_START	n/a	n/a	n/a	-999	17	[0, 0, 0]	n/a	FR1	3	R1315T
1997.88	0.0	1871124	RETRIEVAL_ORIENT_END	n/a	n/a	n/a	-999	17	[0, 0, 0]	n/a	FR1	3	R1315T
1997.88	3.266	1871124	REC_START	n/a	n/a	n/a	-999	17	[0, 0, 0]	n/a	FR1	3	R1315T
2001.146	1.031	1874390	REC_WORD	1.031	n/a	ICE	3	17	[0, 0, 0]	n/a	FR1	3	R1315T
2002.177	1.566	1875421	REC_WORD	1.566	n/a	TRUCK	5	17	[0, 0, 0]	n/a	FR1	3	R1315T
2003.743	24.148	1876987	REC_WORD	24.148	n/a	PET	10	17	[0, 0, 0]	n/a	FR1	3	R1315T
2027.891	0.0	1901134	REC_END	n/a	n/a	n/a	-999	17	[0, 0, 0]	n/a	FR1	3	R1315T
2027.891	0.014	1901134	TRIAL_END	n/a	n/a	n/a	-999	17	[0, 0, 0]	n/a	FR1	3	R1315T
2027.905	0.0	1901148	TRIAL	n/a	n/a	n/a	-999	18	[0, 0, 0]	n/a	FR1	3	R1315T
2027.905	0.001	1901148	TRIAL_START	n/a	n/a	n/a	-999	18	[0, 0, 0]	n/a	FR1	3	R1315T
2027.906	0.696	1901149	WAITING_START	n/a	n/a	n/a	-999	18	[0, 0, 0]	n/a	FR1	3	R1315T
2028.602	0.001	1901845	WAITING_END	n/a	n/a	n/a	-999	18	[0, 0, 0]	n/a	FR1	3	R1315T
2028.603	10.428	1901846	COUNTDOWN_START	n/a	n/a	n/a	-999	18	[0, 0, 0]	n/a	FR1	3	R1315T
2039.031	0.0	1912273	COUNTDOWN_END	n/a	n/a	n/a	-999	18	[0, 0, 0]	n/a	FR1	3	R1315T
2039.031	1.19	1912273	ORIENT_START	n/a	n/a	n/a	-999	18	[0, 0, 0]	n/a	FR1	3	R1315T
2040.221	0.0	1913463	ORIENT_END	n/a	n/a	n/a	-999	18	[0, 0, 0]	n/a	FR1	3	R1315T
2040.221	1.01	1913463	ENCODING_START	n/a	n/a	n/a	-999	18	[0, 0, 0]	n/a	FR1	3	R1315T
2041.231	1.624	1914473	WORD	n/a	wordpools/wordpool_EN.txt	JUICE	1	18	[0, 0, 0]	n/a	FR1	3	R1315T
2042.855	0.971	1916097	WORD_OFF	n/a	n/a	JUICE	1	18	[0, 0, 0]	n/a	FR1	3	R1315T
2043.826	1.629	1917068	WORD	n/a	wordpools/wordpool_EN.txt	FENCE	2	18	[0, 0, 0]	n/a	FR1	3	R1315T
2045.455	0.991	1918697	WORD_OFF	n/a	n/a	FENCE	2	18	[0, 0, 0]	n/a	FR1	3	R1315T
2046.446	1.627	1919688	WORD	n/a	wordpools/wordpool_EN.txt	BIRD	3	18	[0, 0, 0]	n/a	FR1	3	R1315T
2048.073	1.101	1921315	WORD_OFF	n/a	n/a	BIRD	3	18	[0, 0, 0]	n/a	FR1	3	R1315T
2049.174	1.632	1922416	WORD	n/a	wordpools/wordpool_EN.txt	SOUP	4	18	[0, 0, 0]	n/a	FR1	3	R1315T
2050.806	0.983	1924048	WORD_OFF	n/a	n/a	SOUP	4	18	[0, 0, 0]	n/a	FR1	3	R1315T
2051.789	1.634	1925031	WORD	n/a	wordpools/wordpool_EN.txt	WORLD	5	18	[0, 0, 0]	n/a	FR1	3	R1315T
2053.423	0.82	1926665	WORD_OFF	n/a	n/a	WORLD	5	18	[0, 0, 0]	n/a	FR1	3	R1315T
2054.243	1.631	1927485	WORD	n/a	wordpools/wordpool_EN.txt	SUN	6	18	[0, 0, 0]	n/a	FR1	3	R1315T
2055.874	0.977	1929115	WORD_OFF	n/a	n/a	SUN	6	18	[0, 0, 0]	n/a	FR1	3	R1315T
2056.851	1.623	1930092	WORD	n/a	wordpools/wordpool_EN.txt	MAZE	7	18	[0, 0, 0]	n/a	FR1	3	R1315T
2058.474	1.016	1931715	WORD_OFF	n/a	n/a	MAZE	7	18	[0, 0, 0]	n/a	FR1	3	R1315T
2059.49	1.635	1932731	WORD	n/a	wordpools/wordpool_EN.txt	TOOL	8	18	[0, 0, 0]	n/a	FR1	3	R1315T
2061.125	0.753	1934366	WORD_OFF	n/a	n/a	TOOL	8	18	[0, 0, 0]	n/a	FR1	3	R1315T
2061.878	1.631	1935119	WORD	n/a	wordpools/wordpool_EN.txt	STAIR	9	18	[0, 0, 0]	n/a	FR1	3	R1315T
2063.509	0.758	1936750	WORD_OFF	n/a	n/a	STAIR	9	18	[0, 0, 0]	n/a	FR1	3	R1315T
2064.267	1.625	1937508	WORD	n/a	wordpools/wordpool_EN.txt	STRING	10	18	[0, 0, 0]	n/a	FR1	3	R1315T
2065.892	0.92	1939133	WORD_OFF	n/a	n/a	STRING	10	18	[0, 0, 0]	n/a	FR1	3	R1315T
2066.812	1.631	1940053	WORD	n/a	wordpools/wordpool_EN.txt	CLOWN	11	18	[0, 0, 0]	n/a	FR1	3	R1315T
2068.443	1.015	1941684	WORD_OFF	n/a	n/a	CLOWN	11	18	[0, 0, 0]	n/a	FR1	3	R1315T
2069.458	1.635	1942699	WORD	n/a	wordpools/wordpool_EN.txt	CART	12	18	[0, 0, 0]	n/a	FR1	3	R1315T
2071.093	0.001	1944334	WORD_OFF	n/a	n/a	CART	12	18	[0, 0, 0]	n/a	FR1	3	R1315T
2071.094	0.0	1944335	ENCODING_END	n/a	n/a	n/a	-999	18	[0, 0, 0]	n/a	FR1	3	R1315T
2071.094	0.0	1944335	DISTRACT_START	n/a	n/a	n/a	-999	18	[0, 0, 0]	n/a	FR1	3	R1315T
2071.094	0.016	1944335	START	n/a	n/a	n/a	-999	18	[-999, -999, -999]	n/a	FR1	3	R1315T
2071.11	4.484	1944351	PROB	4.484	n/a	n/a	-999	18	[6, 4, 2]	12	FR1	3	R1315T
2075.594	5.568	1948835	PROB	5.568	n/a	n/a	-999	18	[9, 8, 2]	19	FR1	3	R1315T
2081.162	6.367	1954402	PROB	6.367	n/a	n/a	-999	18	[9, 4, 9]	21	FR1	3	R1315T
2087.529	2.701	1960769	PROB	2.701	n/a	n/a	-999	18	[6, 1, 6]	13	FR1	3	R1315T
2090.23	2.643	1963470	PROB	2.643	n/a	n/a	-999	18	[3, 4, 2]	9	FR1	3	R1315T
2092.873	0.007	1966113	STOP	n/a	n/a	n/a	-999	18	[-999, -999, -999]	n/a	FR1	3	R1315T
2092.88	0.57	1966120	DISTRACT_END	n/a	n/a	n/a	-999	18	[0, 0, 0]	n/a	FR1	3	R1315T
2093.45	1.615	1966690	RETRIEVAL_ORIENT_START	n/a	n/a	n/a	-999	18	[0, 0, 0]	n/a	FR1	3	R1315T
2095.065	0.001	1968305	RETRIEVAL_ORIENT_END	n/a	n/a	n/a	-999	18	[0, 0, 0]	n/a	FR1	3	R1315T
2095.066	0.898	1968306	REC_START	n/a	n/a	n/a	-999	18	[0, 0, 0]	n/a	FR1	3	R1315T
2095.964	29.112	1969204	REC_WORD	29.112	n/a	WORLD	5	18	[0, 0, 0]	n/a	FR1	3	R1315T
2125.076	0.0	1998314	REC_END	n/a	n/a	n/a	-999	18	[0, 0, 0]	n/a	FR1	3	R1315T
2125.076	0.018	1998314	TRIAL_END	n/a	n/a	n/a	-999	18	[0, 0, 0]	n/a	FR1	3	R1315T
2125.094	0.0	1998332	TRIAL_START	n/a	n/a	n/a	-999	19	[0, 0, 0]	n/a	FR1	3	R1315T
2125.094	0.0	1998332	TRIAL	n/a	n/a	n/a	-999	19	[0, 0, 0]	n/a	FR1	3	R1315T
2125.094	1.143	1998332	WAITING_START	n/a	n/a	n/a	-999	19	[0, 0, 0]	n/a	FR1	3	R1315T
2126.237	0.0	1999475	COUNTDOWN_START	n/a	n/a	n/a	-999	19	[0, 0, 0]	n/a	FR1	3	R1315T
2126.237	10.428	1999475	WAITING_END	n/a	n/a	n/a	-999	19	[0, 0, 0]	n/a	FR1	3	R1315T
2136.665	0.001	2009903	COUNTDOWN_END	n/a	n/a	n/a	-999	19	[0, 0, 0]	n/a	FR1	3	R1315T
2136.666	1.106	2009904	ORIENT_START	n/a	n/a	n/a	-999	19	[0, 0, 0]	n/a	FR1	3	R1315T
2137.772	0.0	2011010	ORIENT_END	n/a	n/a	n/a	-999	19	[0, 0, 0]	n/a	FR1	3	R1315T
2137.772	0.927	2011010	ENCODING_START	n/a	n/a	n/a	-999	19	[0, 0, 0]	n/a	FR1	3	R1315T
2138.699	1.623	2011937	WORD	n/a	wordpools/wordpool_EN.txt	MOTH	1	19	[0, 0, 0]	n/a	FR1	3	R1315T
2140.322	1.045	2013560	WORD_OFF	n/a	n/a	MOTH	1	19	[0, 0, 0]	n/a	FR1	3	R1315T
2141.367	1.607	2014605	WORD	n/a	wordpools/wordpool_EN.txt	EAR	2	19	[0, 0, 0]	n/a	FR1	3	R1315T
2142.974	1.053	2016212	WORD_OFF	n/a	n/a	EAR	2	19	[0, 0, 0]	n/a	FR1	3	R1315T
2144.027	1.63	2017265	WORD	n/a	wordpools/wordpool_EN.txt	CANE	3	19	[0, 0, 0]	n/a	FR1	3	R1315T
2145.657	1.026	2018894	WORD_OFF	n/a	n/a	CANE	3	19	[0, 0, 0]	n/a	FR1	3	R1315T
2146.683	1.624	2019920	WORD	n/a	wordpools/wordpool_EN.txt	JUDGE	4	19	[0, 0, 0]	n/a	FR1	3	R1315T
2148.307	0.82	2021544	WORD_OFF	n/a	n/a	JUDGE	4	19	[0, 0, 0]	n/a	FR1	3	R1315T
2149.127	1.631	2022364	WORD	n/a	wordpools/wordpool_EN.txt	ZOO	5	19	[0, 0, 0]	n/a	FR1	3	R1315T
2150.758	1.069	2023995	WORD_OFF	n/a	n/a	ZOO	5	19	[0, 0, 0]	n/a	FR1	3	R1315T
2151.827	1.631	2025064	WORD	n/a	wordpools/wordpool_EN.txt	TOOTH	6	19	[0, 0, 0]	n/a	FR1	3	R1315T
2153.458	1.021	2026695	WORD_OFF	n/a	n/a	TOOTH	6	19	[0, 0, 0]	n/a	FR1	3	R1315T
2154.479	1.63	2027716	WORD	n/a	wordpools/wordpool_EN.txt	MUD	7	19	[0, 0, 0]	n/a	FR1	3	R1315T
2156.109	0.805	2029346	WORD_OFF	n/a	n/a	MUD	7	19	[0, 0, 0]	n/a	FR1	3	R1315T
2156.914	1.628	2030151	WORD	n/a	wordpools/wordpool_EN.txt	MOUTH	8	19	[0, 0, 0]	n/a	FR1	3	R1315T
2158.542	0.998	2031779	WORD_OFF	n/a	n/a	MOUTH	8	19	[0, 0, 0]	n/a	FR1	3	R1315T
2159.54	1.636	2032777	WORD	n/a	wordpools/wordpool_EN.txt	FROG	9	19	[0, 0, 0]	n/a	FR1	3	R1315T
2161.176	0.943	2034413	WORD_OFF	n/a	n/a	FROG	9	19	[0, 0, 0]	n/a	FR1	3	R1315T
2162.119	1.624	2035356	WORD	n/a	wordpools/wordpool_EN.txt	VAN	10	19	[0, 0, 0]	n/a	FR1	3	R1315T
2163.743	0.84	2036980	WORD_OFF	n/a	n/a	VAN	10	19	[0, 0, 0]	n/a	FR1	3	R1315T
2164.583	1.627	2037820	WORD	n/a	wordpools/wordpool_EN.txt	CAKE	11	19	[0, 0, 0]	n/a	FR1	3	R1315T
2166.21	0.808	2039447	WORD_OFF	n/a	n/a	CAKE	11	19	[0, 0, 0]	n/a	FR1	3	R1315T
2167.018	1.626	2040255	WORD	n/a	wordpools/wordpool_EN.txt	LEG	12	19	[0, 0, 0]	n/a	FR1	3	R1315T
2168.644	0.001	2041880	WORD_OFF	n/a	n/a	LEG	12	19	[0, 0, 0]	n/a	FR1	3	R1315T
2168.645	0.0	2041881	ENCODING_END	n/a	n/a	n/a	-999	19	[0, 0, 0]	n/a	FR1	3	R1315T
2168.645	0.0	2041881	DISTRACT_START	n/a	n/a	n/a	-999	19	[0, 0, 0]	n/a	FR1	3	R1315T
2168.645	0.016	2041881	START	n/a	n/a	n/a	-999	19	[-999, -999, -999]	n/a	FR1	3	R1315T
2168.661	4.484	2041897	PROB	4.484	n/a	n/a	-999	19	[6, 7, 4]	17	FR1	3	R1315T
2173.145	4.852	2046381	PROB	4.852	n/a	n/a	-999	19	[8, 7, 4]	19	FR1	3	R1315T
2177.997	7.018	2051233	PROB	7.018	n/a	n/a	-999	19	[9, 2, 6]	17	FR1	3	R1315T
2185.015	3.017	2058251	PROB	3.017	n/a	n/a	-999	19	[2, 6, 8]	16	FR1	3	R1315T
2188.032	7.484	2061268	PROB	7.484	n/a	n/a	-999	19	[5, 9, 7]	21	FR1	3	R1315T
2195.516	0.016	2068751	STOP	n/a	n/a	n/a	-999	19	[-999, -999, -999]	n/a	FR1	3	R1315T
2195.532	0.626	2068767	DISTRACT_END	n/a	n/a	n/a	-999	19	[0, 0, 0]	n/a	FR1	3	R1315T
2196.158	1.708	2069393	RETRIEVAL_ORIENT_START	n/a	n/a	n/a	-999	19	[0, 0, 0]	n/a	FR1	3	R1315T
2197.866	0.001	2071101	RETRIEVAL_ORIENT_END	n/a	n/a	n/a	-999	19	[0, 0, 0]	n/a	FR1	3	R1315T
2197.867	1.103	2071102	REC_START	n/a	n/a	n/a	-999	19	[0, 0, 0]	n/a	FR1	3	R1315T
2198.97	1.835	2072205	REC_WORD	1.835	n/a	CAKE	11	19	[0, 0, 0]	n/a	FR1	3	R1315T
2200.805	2.622	2074040	REC_WORD	2.622	n/a	VAN	10	19	[0, 0, 0]	n/a	FR1	3	R1315T
2203.427	24.451	2076662	REC_WORD	24.451	n/a	LEG	12	19	[0, 0, 0]	n/a	FR1	3	R1315T
2227.878	0.001	2101112	REC_END	n/a	n/a	n/a	-999	19	[0, 0, 0]	n/a	FR1	3	R1315T
2227.879	0.016	2101113	TRIAL_END	n/a	n/a	n/a	-999	19	[0, 0, 0]	n/a	FR1	3	R1315T
2227.895	0.001	2101129	TRIAL_START	n/a	n/a	n/a	-999	20	[0, 0, 0]	n/a	FR1	3	R1315T
2227.896	0.0	2101130	TRIAL	n/a	n/a	n/a	-999	20	[0, 0, 0]	n/a	FR1	3	R1315T
2227.896	1.843	2101130	WAITING_START	n/a	n/a	n/a	-999	20	[0, 0, 0]	n/a	FR1	3	R1315T
2229.739	0.0	2102973	COUNTDOWN_START	n/a	n/a	n/a	-999	20	[0, 0, 0]	n/a	FR1	3	R1315T
2229.739	10.429	2102973	WAITING_END	n/a	n/a	n/a	-999	20	[0, 0, 0]	n/a	FR1	3	R1315T
2240.168	0.0	2113401	COUNTDOWN_END	n/a	n/a	n/a	-999	20	[0, 0, 0]	n/a	FR1	3	R1315T
2240.168	1.256	2113401	ORIENT_START	n/a	n/a	n/a	-999	20	[0, 0, 0]	n/a	FR1	3	R1315T
2241.424	0.0	2114657	ORIENT_END	n/a	n/a	n/a	-999	20	[0, 0, 0]	n/a	FR1	3	R1315T
2241.424	1.017	2114657	ENCODING_START	n/a	n/a	n/a	-999	20	[0, 0, 0]	n/a	FR1	3	R1315T
2242.441	1.634	2115674	WORD	n/a	wordpools/wordpool_EN.txt	FLEA	1	20	[0, 0, 0]	n/a	FR1	3	R1315T
2244.075	0.824	2117308	WORD_OFF	n/a	n/a	FLEA	1	20	[0, 0, 0]	n/a	FR1	3	R1315T
2244.899	1.626	2118132	WORD	n/a	wordpools/wordpool_EN.txt	FAN	2	20	[0, 0, 0]	n/a	FR1	3	R1315T
2246.525	0.91	2119758	WORD_OFF	n/a	n/a	FAN	2	20	[0, 0, 0]	n/a	FR1	3	R1315T
2247.435	1.625	2120668	WORD	n/a	wordpools/wordpool_EN.txt	GOAT	3	20	[0, 0, 0]	n/a	FR1	3	R1315T
2249.06	1.006	2122293	WORD_OFF	n/a	n/a	GOAT	3	20	[0, 0, 0]	n/a	FR1	3	R1315T
2250.066	1.627	2123299	WORD	n/a	wordpools/wordpool_EN.txt	EGG	4	20	[0, 0, 0]	n/a	FR1	3	R1315T
2251.693	0.899	2124926	WORD_OFF	n/a	n/a	EGG	4	20	[0, 0, 0]	n/a	FR1	3	R1315T
2252.592	1.634	2125825	WORD	n/a	wordpools/wordpool_EN.txt	OAR	5	20	[0, 0, 0]	n/a	FR1	3	R1315T
2254.226	0.984	2127459	WORD_OFF	n/a	n/a	OAR	5	20	[0, 0, 0]	n/a	FR1	3	R1315T
2255.21	1.633	2128443	WORD	n/a	wordpools/wordpool_EN.txt	DOCK	6	20	[0, 0, 0]	n/a	FR1	3	R1315T
2256.843	0.986	2130076	WORD_OFF	n/a	n/a	DOCK	6	20	[0, 0, 0]	n/a	FR1	3	R1315T
2257.829	1.631	2131062	WORD	n/a	wordpools/wordpool_EN.txt	DOG	7	20	[0, 0, 0]	n/a	FR1	3	R1315T
2259.46	0.936	2132692	WORD_OFF	n/a	n/a	DOG	7	20	[0, 0, 0]	n/a	FR1	3	R1315T
2260.396	1.633	2133628	WORD	n/a	wordpools/wordpool_EN.txt	LOCK	8	20	[0, 0, 0]	n/a	FR1	3	R1315T
2262.029	1.041	2135261	WORD_OFF	n/a	n/a	LOCK	8	20	[0, 0, 0]	n/a	FR1	3	R1315T
2263.07	1.625	2136302	WORD	n/a	wordpools/wordpool_EN.txt	SHIP	9	20	[0, 0, 0]	n/a	FR1	3	R1315T
2264.695	1.014	2137927	WORD_OFF	n/a	n/a	SHIP	9	20	[0, 0, 0]	n/a	FR1	3	R1315T
2265.709	1.636	2138941	WORD	n/a	wordpools/wordpool_EN.txt	ANT	10	20	[0, 0, 0]	n/a	FR1	3	R1315T
2267.345	0.822	2140577	WORD_OFF	n/a	n/a	ANT	10	20	[0, 0, 0]	n/a	FR1	3	R1315T
2268.167	1.629	2141399	WORD	n/a	wordpools/wordpool_EN.txt	DESK	11	20	[0, 0, 0]	n/a	FR1	3	R1315T
2269.796	0.78	2143028	WORD_OFF	n/a	n/a	DESK	11	20	[0, 0, 0]	n/a	FR1	3	R1315T
2270.576	1.62	2143808	WORD	n/a	wordpools/wordpool_EN.txt	SUIT	12	20	[0, 0, 0]	n/a	FR1	3	R1315T
2272.196	0.001	2145428	WORD_OFF	n/a	n/a	SUIT	12	20	[0, 0, 0]	n/a	FR1	3	R1315T
2272.197	0.0	2145429	ENCODING_END	n/a	n/a	n/a	-999	20	[0, 0, 0]	n/a	FR1	3	R1315T
2272.197	0.0	2145429	DISTRACT_START	n/a	n/a	n/a	-999	20	[0, 0, 0]	n/a	FR1	3	R1315T
2272.197	0.016	2145429	START	n/a	n/a	n/a	-999	20	[-999, -999, -999]	n/a	FR1	3	R1315T
2272.213	5.768	2145445	PROB	5.768	n/a	n/a	-999	20	[1, 7, 2]	10	FR1	3	R1315T
2277.981	2.717	2151213	PROB	2.717	n/a	n/a	-999	20	[6, 4, 7]	17	FR1	3	R1315T
2280.698	1.933	2153929	PROB	1.933	n/a	n/a	-999	20	[5, 4, 5]	14	FR1	3	R1315T
2282.631	3.718	2155862	PROB	3.718	n/a	n/a	-999	20	[8, 3, 7]	18	FR1	3	R1315T
2286.349	3.1	2159580	PROB	3.1	n/a	n/a	-999	20	[5, 6, 8]	19	FR1	3	R1315T
2289.449	1.917	2162680	PROB	1.917	n/a	n/a	-999	20	[2, 6, 4]	12	FR1	3	R1315T
2291.366	1.749	2164597	PROB	1.749	n/a	n/a	-999	20	[6, 6, 1]	13	FR1	3	R1315T
2293.115	0.018	2166346	STOP	n/a	n/a	n/a	-999	20	[-999, -999, -999]	n/a	FR1	3	R1315T
2293.133	0.58	2166364	DISTRACT_END	n/a	n/a	n/a	-999	20	[0, 0, 0]	n/a	FR1	3	R1315T
2293.713	1.571	2166944	RETRIEVAL_ORIENT_START	n/a	n/a	n/a	-999	20	[0, 0, 0]	n/a	FR1	3	R1315T
2295.284	0.0	2168515	REC_START	n/a	n/a	n/a	-999	20	[0, 0, 0]	n/a	FR1	3	R1315T
2295.284	3.75	2168515	RETRIEVAL_ORIENT_END	n/a	n/a	n/a	-999	20	[0, 0, 0]	n/a	FR1	3	R1315T
2299.034	6.481	2172265	REC_WORD	6.481	n/a	DUCK	-999	20	[0, 0, 0]	n/a	FR1	3	R1315T
2305.515	0.763	2178745	REC_WORD	0.763	n/a	DOG	7	20	[0, 0, 0]	n/a	FR1	3	R1315T
2306.278	19.018	2179508	REC_WORD	19.018	n/a	ANT	10	20	[0, 0, 0]	n/a	FR1	3	R1315T
2325.296	0.001	2198526	REC_END	n/a	n/a	n/a	-999	20	[0, 0, 0]	n/a	FR1	3	R1315T
2325.297	0.017	2198527	TRIAL_END	n/a	n/a	n/a	-999	20	[0, 0, 0]	n/a	FR1	3	R1315T
2325.314	0.0	2198544	TRIAL	n/a	n/a	n/a	-999	21	[0, 0, 0]	n/a	FR1	3	R1315T
2325.314	0.0	2198544	TRIAL_START	n/a	n/a	n/a	-999	21	[0, 0, 0]	n/a	FR1	3	R1315T
2325.314	0.559	2198544	WAITING_START	n/a	n/a	n/a	-999	21	[0, 0, 0]	n/a	FR1	3	R1315T
2325.873	0.0	2199102	COUNTDOWN_START	n/a	n/a	n/a	-999	21	[0, 0, 0]	n/a	FR1	3	R1315T
2325.873	10.429	2199102	WAITING_END	n/a	n/a	n/a	-999	21	[0, 0, 0]	n/a	FR1	3	R1315T
2336.302	0.0	2209531	COUNTDOWN_END	n/a	n/a	n/a	-999	21	[0, 0, 0]	n/a	FR1	3	R1315T
2336.302	1.106	2209531	ORIENT_START	n/a	n/a	n/a	-999	21	[0, 0, 0]	n/a	FR1	3	R1315T
2337.408	0.001	2210637	ORIENT_END	n/a	n/a	n/a	-999	21	[0, 0, 0]	n/a	FR1	3	R1315T
2337.409	0.988	2210638	ENCODING_START	n/a	n/a	n/a	-999	21	[0, 0, 0]	n/a	FR1	3	R1315T
2338.397	1.613	2211626	WORD	n/a	wordpools/wordpool_EN.txt	CAR	1	21	[0, 0, 0]	n/a	FR1	3	R1315T
2340.01	1.024	2213239	WORD_OFF	n/a	n/a	CAR	1	21	[0, 0, 0]	n/a	FR1	3	R1315T
2341.034	1.625	2214263	WORD	n/a	wordpools/wordpool_EN.txt	SPARK	2	21	[0, 0, 0]	n/a	FR1	3	R1315T
2342.659	0.858	2215888	WORD_OFF	n/a	n/a	SPARK	2	21	[0, 0, 0]	n/a	FR1	3	R1315T
2343.517	1.626	2216746	WORD	n/a	wordpools/wordpool_EN.txt	SCHOOL	3	21	[0, 0, 0]	n/a	FR1	3	R1315T
2345.143	1.0	2218372	WORD_OFF	n/a	n/a	SCHOOL	3	21	[0, 0, 0]	n/a	FR1	3	R1315T
2346.143	1.634	2219372	WORD	n/a	wordpools/wordpool_EN.txt	SKUNK	4	21	[0, 0, 0]	n/a	FR1	3	R1315T
2347.777	0.921	2221006	WORD_OFF	n/a	n/a	SKUNK	4	21	[0, 0, 0]	n/a	FR1	3	R1315T
2348.698	1.629	2221926	WORD	n/a	wordpools/wordpool_EN.txt	AXE	5	21	[0, 0, 0]	n/a	FR1	3	R1315T
2350.327	0.979	2223555	WORD_OFF	n/a	n/a	AXE	5	21	[0, 0, 0]	n/a	FR1	3	R1315T
2351.306	1.622	2224534	WORD	n/a	wordpools/wordpool_EN.txt	BARN	6	21	[0, 0, 0]	n/a	FR1	3	R1315T
2352.928	0.761	2226156	WORD_OFF	n/a	n/a	BARN	6	21	[0, 0, 0]	n/a	FR1	3	R1315T
2353.689	1.622	2226917	WORD	n/a	wordpools/wordpool_EN.txt	STOVE	7	21	[0, 0, 0]	n/a	FR1	3	R1315T
2355.311	0.897	2228539	WORD_OFF	n/a	n/a	STOVE	7	21	[0, 0, 0]	n/a	FR1	3	R1315T
2356.208	1.637	2229436	WORD	n/a	wordpools/wordpool_EN.txt	SPRING	8	21	[0, 0, 0]	n/a	FR1	3	R1315T
2357.845	1.127	2231073	WORD_OFF	n/a	n/a	SPRING	8	21	[0, 0, 0]	n/a	FR1	3	R1315T
2358.972	1.624	2232200	WORD	n/a	wordpools/wordpool_EN.txt	CORN	9	21	[0, 0, 0]	n/a	FR1	3	R1315T
2360.596	0.841	2233824	WORD_OFF	n/a	n/a	CORN	9	21	[0, 0, 0]	n/a	FR1	3	R1315T
2361.437	1.627	2234665	WORD	n/a	wordpools/wordpool_EN.txt	FLUTE	10	21	[0, 0, 0]	n/a	FR1	3	R1315T
2363.064	0.948	2236292	WORD_OFF	n/a	n/a	FLUTE	10	21	[0, 0, 0]	n/a	FR1	3	R1315T
2364.012	1.634	2237240	WORD	n/a	wordpools/wordpool_EN.txt	WALL	11	21	[0, 0, 0]	n/a	FR1	3	R1315T
2365.646	1.064	2238874	WORD_OFF	n/a	n/a	WALL	11	21	[0, 0, 0]	n/a	FR1	3	R1315T
2366.71	1.637	2239938	WORD	n/a	wordpools/wordpool_EN.txt	SHIELD	12	21	[0, 0, 0]	n/a	FR1	3	R1315T
2368.347	0.0	2241575	WORD_OFF	n/a	n/a	SHIELD	12	21	[0, 0, 0]	n/a	FR1	3	R1315T
2368.347	0.001	2241575	ENCODING_END	n/a	n/a	n/a	-999	21	[0, 0, 0]	n/a	FR1	3	R1315T
2368.348	0.0	2241576	DISTRACT_START	n/a	n/a	n/a	-999	21	[0, 0, 0]	n/a	FR1	3	R1315T
2368.348	0.016	2241576	START	n/a	n/a	n/a	-999	21	[-999, -999, -999]	n/a	FR1	3	R1315T
2368.364	4.734	2241592	PROB	4.734	n/a	n/a	-999	21	[8, 8, 1]	17	FR1	3	R1315T
2373.098	2.467	2246325	PROB	2.467	n/a	n/a	-999	21	[5, 7, 5]	17	FR1	3	R1315T
2375.565	2.317	2248792	PROB	2.317	n/a	n/a	-999	21	[3, 3, 3]	9	FR1	3	R1315T
2377.882	2.434	2251109	PROB	2.434	n/a	n/a	-999	21	[4, 5, 6]	15	FR1	3	R1315T
2380.316	2.233	2253543	PROB	2.233	n/a	n/a	-999	21	[1, 9, 8]	18	FR1	3	R1315T
2382.549	2.251	2255776	PROB	2.251	n/a	n/a	-999	21	[3, 7, 8]	18	FR1	3	R1315T
2384.8	3.936	2258027	PROB	3.936	n/a	n/a	-999	21	[4, 7, 2]	13	FR1	3	R1315T
2388.736	0.015	2261963	STOP	n/a	n/a	n/a	-999	21	[-999, -999, -999]	n/a	FR1	3	R1315T
2388.751	0.681	2261978	DISTRACT_END	n/a	n/a	n/a	-999	21	[0, 0, 0]	n/a	FR1	3	R1315T
2389.432	1.553	2262659	RETRIEVAL_ORIENT_START	n/a	n/a	n/a	-999	21	[0, 0, 0]	n/a	FR1	3	R1315T
2390.985	0.001	2264212	RETRIEVAL_ORIENT_END	n/a	n/a	n/a	-999	21	[0, 0, 0]	n/a	FR1	3	R1315T
2390.986	1.229	2264213	REC_START	n/a	n/a	n/a	-999	21	[0, 0, 0]	n/a	FR1	3	R1315T
2392.215	1.131	2265442	REC_WORD	1.131	n/a	SCHOOL	3	21	[0, 0, 0]	n/a	FR1	3	R1315T
2393.346	27.651	2266572	REC_WORD	27.651	n/a	FLUTE	10	21	[0, 0, 0]	n/a	FR1	3	R1315T
2420.997	0.001	2294222	REC_END	n/a	n/a	n/a	-999	21	[0, 0, 0]	n/a	FR1	3	R1315T
2420.998	0.014	2294223	TRIAL_END	n/a	n/a	n/a	-999	21	[0, 0, 0]	n/a	FR1	3	R1315T
2421.012	0.0	2294237	TRIAL_START	n/a	n/a	n/a	-999	22	[0, 0, 0]	n/a	FR1	3	R1315T
2421.012	0.0	2294237	TRIAL	n/a	n/a	n/a	-999	22	[0, 0, 0]	n/a	FR1	3	R1315T
2421.012	1.528	2294237	WAITING_START	n/a	n/a	n/a	-999	22	[0, 0, 0]	n/a	FR1	3	R1315T
2422.54	0.001	2295765	WAITING_END	n/a	n/a	n/a	-999	22	[0, 0, 0]	n/a	FR1	3	R1315T
2422.541	10.428	2295766	COUNTDOWN_START	n/a	n/a	n/a	-999	22	[0, 0, 0]	n/a	FR1	3	R1315T
2432.969	0.0	2306194	COUNTDOWN_END	n/a	n/a	n/a	-999	22	[0, 0, 0]	n/a	FR1	3	R1315T
2432.969	1.14	2306194	ORIENT_START	n/a	n/a	n/a	-999	22	[0, 0, 0]	n/a	FR1	3	R1315T
2434.109	0.0	2307334	ORIENT_END	n/a	n/a	n/a	-999	22	[0, 0, 0]	n/a	FR1	3	R1315T
2434.109	1.13	2307334	ENCODING_START	n/a	n/a	n/a	-999	22	[0, 0, 0]	n/a	FR1	3	R1315T
2435.239	1.637	2308464	WORD	n/a	wordpools/wordpool_EN.txt	FRUIT	1	22	[0, 0, 0]	n/a	FR1	3	R1315T
2436.876	0.976	2310101	WORD_OFF	n/a	n/a	FRUIT	1	22	[0, 0, 0]	n/a	FR1	3	R1315T
2437.852	1.625	2311077	WORD	n/a	wordpools/wordpool_EN.txt	CUBE	2	22	[0, 0, 0]	n/a	FR1	3	R1315T
2439.477	0.93	2312701	WORD_OFF	n/a	n/a	CUBE	2	22	[0, 0, 0]	n/a	FR1	3	R1315T
2440.407	1.638	2313631	WORD	n/a	wordpools/wordpool_EN.txt	BROOM	3	22	[0, 0, 0]	n/a	FR1	3	R1315T
2442.045	0.988	2315269	WORD_OFF	n/a	n/a	BROOM	3	22	[0, 0, 0]	n/a	FR1	3	R1315T
2443.033	1.628	2316257	WORD	n/a	wordpools/wordpool_EN.txt	BATH	4	22	[0, 0, 0]	n/a	FR1	3	R1315T
2444.661	0.935	2317885	WORD_OFF	n/a	n/a	BATH	4	22	[0, 0, 0]	n/a	FR1	3	R1315T
2445.596	1.632	2318820	WORD	n/a	wordpools/wordpool_EN.txt	JEEP	5	22	[0, 0, 0]	n/a	FR1	3	R1315T
2447.228	1.014	2320452	WORD_OFF	n/a	n/a	JEEP	5	22	[0, 0, 0]	n/a	FR1	3	R1315T
2448.242	1.636	2321466	WORD	n/a	wordpools/wordpool_EN.txt	VASE	6	22	[0, 0, 0]	n/a	FR1	3	R1315T
2449.878	0.866	2323102	WORD_OFF	n/a	n/a	VASE	6	22	[0, 0, 0]	n/a	FR1	3	R1315T
2450.744	1.635	2323968	WORD	n/a	wordpools/wordpool_EN.txt	HAWK	7	22	[0, 0, 0]	n/a	FR1	3	R1315T
2452.379	0.907	2325603	WORD_OFF	n/a	n/a	HAWK	7	22	[0, 0, 0]	n/a	FR1	3	R1315T
2453.286	1.627	2326510	WORD	n/a	wordpools/wordpool_EN.txt	CLIFF	8	22	[0, 0, 0]	n/a	FR1	3	R1315T
2454.913	1.085	2328137	WORD_OFF	n/a	n/a	CLIFF	8	22	[0, 0, 0]	n/a	FR1	3	R1315T
2455.998	1.632	2329222	WORD	n/a	wordpools/wordpool_EN.txt	SPEAR	9	22	[0, 0, 0]	n/a	FR1	3	R1315T
2457.63	1.134	2330854	WORD_OFF	n/a	n/a	SPEAR	9	22	[0, 0, 0]	n/a	FR1	3	R1315T
2458.764	1.633	2331988	WORD	n/a	wordpools/wordpool_EN.txt	BEAN	10	22	[0, 0, 0]	n/a	FR1	3	R1315T
2460.397	0.796	2333621	WORD_OFF	n/a	n/a	BEAN	10	22	[0, 0, 0]	n/a	FR1	3	R1315T
2461.193	1.638	2334416	WORD	n/a	wordpools/wordpool_EN.txt	RAIN	11	22	[0, 0, 0]	n/a	FR1	3	R1315T
2462.831	1.128	2336054	WORD_OFF	n/a	n/a	RAIN	11	22	[0, 0, 0]	n/a	FR1	3	R1315T
2463.959	1.622	2337182	WORD	n/a	wordpools/wordpool_EN.txt	BOARD	12	22	[0, 0, 0]	n/a	FR1	3	R1315T
2465.581	0.001	2338804	WORD_OFF	n/a	n/a	BOARD	12	22	[0, 0, 0]	n/a	FR1	3	R1315T
2465.582	0.0	2338805	ENCODING_END	n/a	n/a	n/a	-999	22	[0, 0, 0]	n/a	FR1	3	R1315T
2465.582	0.0	2338805	DISTRACT_START	n/a	n/a	n/a	-999	22	[0, 0, 0]	n/a	FR1	3	R1315T
2465.582	0.016	2338805	START	n/a	n/a	n/a	-999	22	[-999, -999, -999]	n/a	FR1	3	R1315T
2465.598	3.717	2338821	PROB	3.717	n/a	n/a	-999	22	[1, 3, 7]	11	FR1	3	R1315T
2469.315	2.551	2342538	PROB	2.551	n/a	n/a	-999	22	[6, 6, 3]	15	FR1	3	R1315T
2471.866	6.484	2345089	PROB	6.484	n/a	n/a	-999	22	[9, 5, 7]	22	FR1	3	R1315T
2478.35	4.551	2351573	PROB	4.551	n/a	n/a	-999	22	[3, 2, 6]	11	FR1	3	R1315T
2482.901	8.107	2356124	PROB	8.107	n/a	n/a	-999	22	[5, 4, 7]	16	FR1	3	R1315T
2491.008	0.012	2364230	STOP	n/a	n/a	n/a	-999	22	[-999, -999, -999]	n/a	FR1	3	R1315T
2491.02	0.596	2364242	DISTRACT_END	n/a	n/a	n/a	-999	22	[0, 0, 0]	n/a	FR1	3	R1315T
2491.616	1.687	2364838	RETRIEVAL_ORIENT_START	n/a	n/a	n/a	-999	22	[0, 0, 0]	n/a	FR1	3	R1315T
2493.303	0.0	2366525	RETRIEVAL_ORIENT_END	n/a	n/a	n/a	-999	22	[0, 0, 0]	n/a	FR1	3	R1315T
2493.303	1.688	2366525	REC_START	n/a	n/a	n/a	-999	22	[0, 0, 0]	n/a	FR1	3	R1315T
2494.991	1.248	2368213	REC_WORD	1.248	n/a	CUBE	2	22	[0, 0, 0]	n/a	FR1	3	R1315T
2496.239	3.018	2369461	REC_WORD	3.018	n/a	FRUIT	1	22	[0, 0, 0]	n/a	FR1	3	R1315T
2499.257	1.272	2372479	REC_WORD	1.272	n/a	CLIFF	8	22	[0, 0, 0]	n/a	FR1	3	R1315T
2500.529	22.785	2373751	REC_WORD	22.785	n/a	RAIN	11	22	[0, 0, 0]	n/a	FR1	3	R1315T
2523.314	0.0	2396535	REC_END	n/a	n/a	n/a	-999	22	[0, 0, 0]	n/a	FR1	3	R1315T
2523.314	0.015	2396535	TRIAL_END	n/a	n/a	n/a	-999	22	[0, 0, 0]	n/a	FR1	3	R1315T
2523.329	0.0	2396550	TRIAL_START	n/a	n/a	n/a	-999	23	[0, 0, 0]	n/a	FR1	3	R1315T
2523.329	0.0	2396550	TRIAL	n/a	n/a	n/a	-999	23	[0, 0, 0]	n/a	FR1	3	R1315T
2523.329	0.963	2396550	WAITING_START	n/a	n/a	n/a	-999	23	[0, 0, 0]	n/a	FR1	3	R1315T
2524.292	0.0	2397513	COUNTDOWN_START	n/a	n/a	n/a	-999	23	[0, 0, 0]	n/a	FR1	3	R1315T
2524.292	10.428	2397513	WAITING_END	n/a	n/a	n/a	-999	23	[0, 0, 0]	n/a	FR1	3	R1315T
2534.72	0.0	2407940	COUNTDOWN_END	n/a	n/a	n/a	-999	23	[0, 0, 0]	n/a	FR1	3	R1315T
2534.72	1.207	2407940	ORIENT_START	n/a	n/a	n/a	-999	23	[0, 0, 0]	n/a	FR1	3	R1315T
2535.927	0.001	2409147	ORIENT_END	n/a	n/a	n/a	-999	23	[0, 0, 0]	n/a	FR1	3	R1315T
2535.928	0.932	2409148	ENCODING_START	n/a	n/a	n/a	-999	23	[0, 0, 0]	n/a	FR1	3	R1315T
2536.86	1.635	2410080	WORD	n/a	wordpools/wordpool_EN.txt	CAT	1	23	[0, 0, 0]	n/a	FR1	3	R1315T
2538.495	0.908	2411715	WORD_OFF	n/a	n/a	CAT	1	23	[0, 0, 0]	n/a	FR1	3	R1315T
2539.403	1.626	2412623	WORD	n/a	wordpools/wordpool_EN.txt	PIN	2	23	[0, 0, 0]	n/a	FR1	3	R1315T
2541.029	0.796	2414249	WORD_OFF	n/a	n/a	PIN	2	23	[0, 0, 0]	n/a	FR1	3	R1315T
2541.825	1.637	2415045	WORD	n/a	wordpools/wordpool_EN.txt	STORM	3	23	[0, 0, 0]	n/a	FR1	3	R1315T
2543.462	1.016	2416682	WORD_OFF	n/a	n/a	STORM	3	23	[0, 0, 0]	n/a	FR1	3	R1315T
2544.478	1.635	2417698	WORD	n/a	wordpools/wordpool_EN.txt	WAND	4	23	[0, 0, 0]	n/a	FR1	3	R1315T
2546.113	0.901	2419333	WORD_OFF	n/a	n/a	WAND	4	23	[0, 0, 0]	n/a	FR1	3	R1315T
2547.014	1.632	2420234	WORD	n/a	wordpools/wordpool_EN.txt	BOOK	5	23	[0, 0, 0]	n/a	FR1	3	R1315T
2548.646	0.934	2421866	WORD_OFF	n/a	n/a	BOOK	5	23	[0, 0, 0]	n/a	FR1	3	R1315T
2549.58	1.633	2422800	WORD	n/a	wordpools/wordpool_EN.txt	HOUSE	6	23	[0, 0, 0]	n/a	FR1	3	R1315T
2551.213	0.772	2424432	WORD_OFF	n/a	n/a	HOUSE	6	23	[0, 0, 0]	n/a	FR1	3	R1315T
2551.985	1.629	2425204	WORD	n/a	wordpools/wordpool_EN.txt	SLUSH	7	23	[0, 0, 0]	n/a	FR1	3	R1315T
2553.614	0.978	2426833	WORD_OFF	n/a	n/a	SLUSH	7	23	[0, 0, 0]	n/a	FR1	3	R1315T
2554.592	1.622	2427811	WORD	n/a	wordpools/wordpool_EN.txt	CHIN	8	23	[0, 0, 0]	n/a	FR1	3	R1315T
2556.214	1.127	2429433	WORD_OFF	n/a	n/a	CHIN	8	23	[0, 0, 0]	n/a	FR1	3	R1315T
2557.341	1.625	2430560	WORD	n/a	wordpools/wordpool_EN.txt	BEAR	9	23	[0, 0, 0]	n/a	FR1	3	R1315T
2558.966	1.001	2432185	WORD_OFF	n/a	n/a	BEAR	9	23	[0, 0, 0]	n/a	FR1	3	R1315T
2559.967	1.632	2433186	WORD	n/a	wordpools/wordpool_EN.txt	HEN	10	23	[0, 0, 0]	n/a	FR1	3	R1315T
2561.599	1.016	2434818	WORD_OFF	n/a	n/a	HEN	10	23	[0, 0, 0]	n/a	FR1	3	R1315T
2562.615	1.634	2435834	WORD	n/a	wordpools/wordpool_EN.txt	MAP	11	23	[0, 0, 0]	n/a	FR1	3	R1315T
2564.249	0.883	2437468	WORD_OFF	n/a	n/a	MAP	11	23	[0, 0, 0]	n/a	FR1	3	R1315T
2565.132	1.634	2438351	WORD	n/a	wordpools/wordpool_EN.txt	PLANT	12	23	[0, 0, 0]	n/a	FR1	3	R1315T
2566.766	0.001	2439985	WORD_OFF	n/a	n/a	PLANT	12	23	[0, 0, 0]	n/a	FR1	3	R1315T
2566.767	0.0	2439986	ENCODING_END	n/a	n/a	n/a	-999	23	[0, 0, 0]	n/a	FR1	3	R1315T
2566.767	0.0	2439986	DISTRACT_START	n/a	n/a	n/a	-999	23	[0, 0, 0]	n/a	FR1	3	R1315T
2566.767	0.016	2439986	START	n/a	n/a	n/a	-999	23	[-999, -999, -999]	n/a	FR1	3	R1315T
2566.783	2.65	2440002	PROB	2.65	n/a	n/a	-999	23	[2, 6, 6]	14	FR1	3	R1315T
2569.433	3.751	2442652	PROB	3.751	n/a	n/a	-999	23	[3, 1, 3]	7	FR1	3	R1315T
2573.184	2.768	2446403	PROB	2.768	n/a	n/a	-999	23	[5, 2, 2]	9	FR1	3	R1315T
2575.952	3.366	2449170	PROB	3.366	n/a	n/a	-999	23	[3, 3, 2]	8	FR1	3	R1315T
2579.318	2.501	2452536	PROB	2.501	n/a	n/a	-999	23	[1, 9, 2]	12	FR1	3	R1315T
2581.819	3.467	2455037	PROB	3.467	n/a	n/a	-999	23	[1, 6, 3]	10	FR1	3	R1315T
2585.286	2.976	2458504	PROB	2.976	n/a	n/a	-999	23	[1, 8, 8]	17	FR1	3	R1315T
2588.262	0.008	2461480	STOP	n/a	n/a	n/a	-999	23	[-999, -999, -999]	n/a	FR1	3	R1315T
2588.27	0.57	2461488	DISTRACT_END	n/a	n/a	n/a	-999	23	[0, 0, 0]	n/a	FR1	3	R1315T
