onset	duration	sample	trial_type	response_time	stim_file	item_name	serialpos	list	test	answer	experiment	session	subject
0.0	0.0	41959	INSTRUCT_START	n/a	n/a	n/a	-999	-999	[0, 0, 0]	n/a	FR1	1	R1168T
0.0	10.946	41959	INSTRUCT_END	n/a	n/a	n/a	-999	-999	[0, 0, 0]	n/a	FR1	1	R1168T
10.946	0.0	52904	SESS_START	n/a	n/a	n/a	-999	-999	[0, 0, 0]	n/a	FR1	1	R1168T
10.946	18.001	52904	MIC_TEST	n/a	n/a	n/a	-999	-999	[0, 0, 0]	n/a	FR1	1	R1168T
28.947	10.426	70904	PRACTICE_TRIAL	n/a	n/a	n/a	-999	-1	[0, 0, 0]	n/a	FR1	1	R1168T
39.373	10.428	81330	COUNTDOWN_START	n/a	n/a	n/a	-999	-1	[0, 0, 0]	n/a	FR1	1	R1168T
49.801	0.009	91757	COUNTDOWN_END	n/a	n/a	n/a	-999	-1	[0, 0, 0]	n/a	FR1	1	R1168T
49.81	1.617	91766	PRACTICE_ORIENT	n/a	n/a	n/a	-999	-1	[0, 0, 0]	n/a	FR1	1	R1168T
51.427	2.2	93383	PRACTICE_ORIENT_OFF	n/a	n/a	n/a	-999	-1	[0, 0, 0]	n/a	FR1	1	R1168T
53.627	1.616	95583	PRACTICE_WORD	n/a	n/a	BEAM	1	-1	[0, 0, 0]	n/a	FR1	1	R1168T
55.243	0.883	97199	PRACTICE_WORD_OFF	n/a	n/a	BEAM	-999	-1	[0, 0, 0]	n/a	FR1	1	R1168T
56.126	1.601	98082	PRACTICE_WORD	n/a	n/a	FLOOD	2	-1	[0, 0, 0]	n/a	FR1	1	R1168T
57.727	0.768	99683	PRACTICE_WORD_OFF	n/a	n/a	FLOOD	-999	-1	[0, 0, 0]	n/a	FR1	1	R1168T
58.495	1.616	100451	PRACTICE_WORD	n/a	n/a	COTTON	3	-1	[0, 0, 0]	n/a	FR1	1	R1168T
60.111	0.833	102066	PRACTICE_WORD_OFF	n/a	n/a	COTTON	-999	-1	[0, 0, 0]	n/a	FR1	1	R1168T
60.944	1.618	102899	PRACTICE_WORD	n/a	n/a	ATTIC	4	-1	[0, 0, 0]	n/a	FR1	1	R1168T
62.562	0.917	104517	PRACTICE_WORD_OFF	n/a	n/a	ATTIC	-999	-1	[0, 0, 0]	n/a	FR1	1	R1168T
63.479	1.616	105434	PRACTICE_WORD	n/a	n/a	RHINO	5	-1	[0, 0, 0]	n/a	FR1	1	R1168T
65.095	0.767	107050	PRACTICE_WORD_OFF	n/a	n/a	RHINO	-999	-1	[0, 0, 0]	n/a	FR1	1	R1168T
65.862	1.618	107817	PRACTICE_WORD	n/a	n/a	TONGUE	6	-1	[0, 0, 0]	n/a	FR1	1	R1168T
67.48	0.9	109435	PRACTICE_WORD_OFF	n/a	n/a	TONGUE	-999	-1	[0, 0, 0]	n/a	FR1	1	R1168T
68.38	1.616	110335	PRACTICE_WORD	n/a	n/a	CAMEL	7	-1	[0, 0, 0]	n/a	FR1	1	R1168T
69.996	0.85	111951	PRACTICE_WORD_OFF	n/a	n/a	CAMEL	-999	-1	[0, 0, 0]	n/a	FR1	1	R1168T
70.846	1.601	112801	PRACTICE_WORD	n/a	n/a	RING	8	-1	[0, 0, 0]	n/a	FR1	1	R1168T
72.447	0.917	114402	PRACTICE_WORD_OFF	n/a	n/a	RING	-999	-1	[0, 0, 0]	n/a	FR1	1	R1168T
73.364	1.616	115319	PRACTICE_WORD	n/a	n/a	WAGON	9	-1	[0, 0, 0]	n/a	FR1	1	R1168T
74.98	0.95	116935	PRACTICE_WORD_OFF	n/a	n/a	WAGON	-999	-1	[0, 0, 0]	n/a	FR1	1	R1168T
75.93	1.618	117885	PRACTICE_WORD	n/a	n/a	CHEST	10	-1	[0, 0, 0]	n/a	FR1	1	R1168T
77.548	0.917	119502	PRACTICE_WORD_OFF	n/a	n/a	CHEST	-999	-1	[0, 0, 0]	n/a	FR1	1	R1168T
78.465	1.616	120419	PRACTICE_WORD	n/a	n/a	IRON	11	-1	[0, 0, 0]	n/a	FR1	1	R1168T
80.081	0.917	122035	PRACTICE_WORD_OFF	n/a	n/a	IRON	-999	-1	[0, 0, 0]	n/a	FR1	1	R1168T
80.998	1.618	122952	PRACTICE_WORD	n/a	n/a	WATCH	12	-1	[0, 0, 0]	n/a	FR1	1	R1168T
82.616	0.0	124570	PRACTICE_WORD_OFF	n/a	n/a	WATCH	-999	-1	[0, 0, 0]	n/a	FR1	1	R1168T
82.616	0.0	124570	DISTRACT_START	n/a	n/a	n/a	-999	-1	[0, 0, 0]	n/a	FR1	1	R1168T
82.616	0.016	124570	START	n/a	n/a	n/a	-999	-1	[-999, -999, -999]	n/a	FR1	1	R1168T
82.632	5.651	124586	PROB	5.651	n/a	n/a	-999	-1	[4, 9, 5]	18	FR1	1	R1168T
88.283	11.219	130237	PROB	11.219	n/a	n/a	-999	-1	[5, 8, 8]	21	FR1	1	R1168T
99.502	12.371	141455	PROB	12.371	n/a	n/a	-999	-1	[6, 8, 9]	23	FR1	1	R1168T
111.873	0.013	153825	STOP	n/a	n/a	n/a	-999	-1	[-999, -999, -999]	n/a	FR1	1	R1168T
111.886	0.668	153838	DISTRACT_END	n/a	n/a	n/a	-999	-1	[0, 0, 0]	n/a	FR1	1	R1168T
112.554	0.517	154506	RETRIEVAL_ORIENT	n/a	n/a	n/a	-999	-1	[0, 0, 0]	n/a	FR1	1	R1168T
113.071	30.01	155023	PRACTICE_REC_START	n/a	n/a	n/a	-999	-1	[0, 0, 0]	n/a	FR1	1	R1168T
143.081	12.398	185032	PRACTICE_REC_END	n/a	n/a	n/a	-999	-1	[0, 0, 0]	n/a	FR1	1	R1168T
155.479	0.5	197429	TRIAL	n/a	n/a	n/a	-999	1	[0, 0, 0]	n/a	FR1	1	R1168T
155.979	10.428	197929	COUNTDOWN_START	n/a	n/a	n/a	-999	1	[0, 0, 0]	n/a	FR1	1	R1168T
166.407	0.007	208356	COUNTDOWN_END	n/a	n/a	n/a	-999	1	[0, 0, 0]	n/a	FR1	1	R1168T
166.414	1.616	208363	ORIENT	n/a	n/a	n/a	-999	1	[0, 0, 0]	n/a	FR1	1	R1168T
168.03	2.2	209979	ORIENT_OFF	n/a	n/a	n/a	-999	1	[0, 0, 0]	n/a	FR1	1	R1168T
170.23	1.602	212179	WORD	n/a	wordpools/wordpool_EN.txt	JET	1	1	[0, 0, 0]	n/a	FR1	1	R1168T
171.832	0.917	213781	WORD_OFF	n/a	n/a	JET	1	1	[0, 0, 0]	n/a	FR1	1	R1168T
172.749	1.617	214698	WORD	n/a	wordpools/wordpool_EN.txt	DRESS	2	1	[0, 0, 0]	n/a	FR1	1	R1168T
174.366	0.849	216315	WORD_OFF	n/a	n/a	DRESS	2	1	[0, 0, 0]	n/a	FR1	1	R1168T
175.215	1.618	217164	WORD	n/a	wordpools/wordpool_EN.txt	WAVE	3	1	[0, 0, 0]	n/a	FR1	1	R1168T
176.833	0.916	218782	WORD_OFF	n/a	n/a	WAVE	3	1	[0, 0, 0]	n/a	FR1	1	R1168T
177.749	1.617	219698	WORD	n/a	wordpools/wordpool_EN.txt	BOX	4	1	[0, 0, 0]	n/a	FR1	1	R1168T
179.366	0.766	221315	WORD_OFF	n/a	n/a	BOX	4	1	[0, 0, 0]	n/a	FR1	1	R1168T
180.132	1.602	222081	WORD	n/a	wordpools/wordpool_EN.txt	FOG	5	1	[0, 0, 0]	n/a	FR1	1	R1168T
181.734	0.85	223682	WORD_OFF	n/a	n/a	FOG	5	1	[0, 0, 0]	n/a	FR1	1	R1168T
182.584	1.616	224532	WORD	n/a	wordpools/wordpool_EN.txt	BOMB	6	1	[0, 0, 0]	n/a	FR1	1	R1168T
184.2	0.8	226148	WORD_OFF	n/a	n/a	BOMB	6	1	[0, 0, 0]	n/a	FR1	1	R1168T
185.0	1.618	226948	WORD	n/a	wordpools/wordpool_EN.txt	SMOKE	7	1	[0, 0, 0]	n/a	FR1	1	R1168T
186.618	0.817	228566	WORD_OFF	n/a	n/a	SMOKE	7	1	[0, 0, 0]	n/a	FR1	1	R1168T
187.435	1.615	229383	WORD	n/a	wordpools/wordpool_EN.txt	TEA	8	1	[0, 0, 0]	n/a	FR1	1	R1168T
189.05	0.884	230998	WORD_OFF	n/a	n/a	TEA	8	1	[0, 0, 0]	n/a	FR1	1	R1168T
189.934	1.601	231882	WORD	n/a	wordpools/wordpool_EN.txt	BEAK	9	1	[0, 0, 0]	n/a	FR1	1	R1168T
191.535	0.817	233483	WORD_OFF	n/a	n/a	BEAK	9	1	[0, 0, 0]	n/a	FR1	1	R1168T
192.352	1.616	234300	WORD	n/a	wordpools/wordpool_EN.txt	RICE	10	1	[0, 0, 0]	n/a	FR1	1	R1168T
193.968	0.785	235916	WORD_OFF	n/a	n/a	RICE	10	1	[0, 0, 0]	n/a	FR1	1	R1168T
194.753	1.617	236701	WORD	n/a	wordpools/wordpool_EN.txt	BATH	11	1	[0, 0, 0]	n/a	FR1	1	R1168T
196.37	0.966	238318	WORD_OFF	n/a	n/a	BATH	11	1	[0, 0, 0]	n/a	FR1	1	R1168T
197.336	1.616	239284	WORD	n/a	wordpools/wordpool_EN.txt	GRASS	12	1	[0, 0, 0]	n/a	FR1	1	R1168T
198.952	0.0	240899	WORD_OFF	n/a	n/a	GRASS	12	1	[0, 0, 0]	n/a	FR1	1	R1168T
198.952	0.001	240899	DISTRACT_START	n/a	n/a	n/a	-999	1	[0, 0, 0]	n/a	FR1	1	R1168T
198.953	0.016	240900	START	n/a	n/a	n/a	-999	1	[-999, -999, -999]	n/a	FR1	1	R1168T
198.969	4.835	240916	PROB	4.835	n/a	n/a	-999	1	[7, 7, 2]	16	FR1	1	R1168T
203.804	5.217	245751	PROB	5.217	n/a	n/a	-999	1	[8, 9, 1]	18	FR1	1	R1168T
209.021	4.884	250968	PROB	4.884	n/a	n/a	-999	1	[4, 6, 9]	19	FR1	1	R1168T
213.905	3.685	255852	PROB	3.685	n/a	n/a	-999	1	[1, 3, 4]	8	FR1	1	R1168T
217.59	3.548	259536	PROB	3.548	n/a	n/a	-999	1	[9, 1, 6]	16	FR1	1	R1168T
221.138	0.018	263084	STOP	n/a	n/a	n/a	-999	1	[-999, -999, -999]	n/a	FR1	1	R1168T
221.156	0.518	263102	DISTRACT_END	n/a	n/a	n/a	-999	1	[0, 0, 0]	n/a	FR1	1	R1168T
221.674	0.517	263620	RETRIEVAL_ORIENT	n/a	n/a	n/a	-999	1	[0, 0, 0]	n/a	FR1	1	R1168T
222.191	1.146	264137	REC_START	n/a	n/a	n/a	-999	1	[0, 0, 0]	n/a	FR1	1	R1168T
223.337	0.978	265283	REC_WORD	0.978	n/a	JET	1	1	[0, 0, 0]	n/a	FR1	1	R1168T
224.315	1.206	266261	REC_WORD	1.206	n/a	DRESS	2	1	[0, 0, 0]	n/a	FR1	1	R1168T
225.521	0.885	267467	REC_WORD	0.885	n/a	BOMB	6	1	[0, 0, 0]	n/a	FR1	1	R1168T
226.406	1.584	268352	REC_WORD	1.584	n/a	FOG	5	1	[0, 0, 0]	n/a	FR1	1	R1168T
227.99	24.214	269936	REC_WORD	24.214	n/a	RICE	10	1	[0, 0, 0]	n/a	FR1	1	R1168T
252.204	5.009	294148	REC_END	n/a	n/a	n/a	-999	1	[0, 0, 0]	n/a	FR1	1	R1168T
257.213	0.5	299157	TRIAL	n/a	n/a	n/a	-999	2	[0, 0, 0]	n/a	FR1	1	R1168T
257.713	10.428	299657	COUNTDOWN_START	n/a	n/a	n/a	-999	2	[0, 0, 0]	n/a	FR1	1	R1168T
268.141	0.007	310084	COUNTDOWN_END	n/a	n/a	n/a	-999	2	[0, 0, 0]	n/a	FR1	1	R1168T
268.148	1.618	310091	ORIENT	n/a	n/a	n/a	-999	2	[0, 0, 0]	n/a	FR1	1	R1168T
269.766	2.25	311709	ORIENT_OFF	n/a	n/a	n/a	-999	2	[0, 0, 0]	n/a	FR1	1	R1168T
272.016	1.618	313959	WORD	n/a	wordpools/wordpool_EN.txt	BOOT	1	2	[0, 0, 0]	n/a	FR1	1	R1168T
273.634	0.883	315577	WORD_OFF	n/a	n/a	BOOT	1	2	[0, 0, 0]	n/a	FR1	1	R1168T
274.517	1.616	316460	WORD	n/a	wordpools/wordpool_EN.txt	GOAT	2	2	[0, 0, 0]	n/a	FR1	1	R1168T
276.133	0.85	318076	WORD_OFF	n/a	n/a	GOAT	2	2	[0, 0, 0]	n/a	FR1	1	R1168T
276.983	1.601	318926	WORD	n/a	wordpools/wordpool_EN.txt	SPEAR	3	2	[0, 0, 0]	n/a	FR1	1	R1168T
278.584	0.884	320527	WORD_OFF	n/a	n/a	SPEAR	3	2	[0, 0, 0]	n/a	FR1	1	R1168T
279.468	1.616	321411	WORD	n/a	wordpools/wordpool_EN.txt	LAMB	4	2	[0, 0, 0]	n/a	FR1	1	R1168T
281.084	0.9	323027	WORD_OFF	n/a	n/a	LAMB	4	2	[0, 0, 0]	n/a	FR1	1	R1168T
281.984	1.618	323927	WORD	n/a	wordpools/wordpool_EN.txt	FAN	5	2	[0, 0, 0]	n/a	FR1	1	R1168T
283.602	0.917	325544	WORD_OFF	n/a	n/a	FAN	5	2	[0, 0, 0]	n/a	FR1	1	R1168T
284.519	1.616	326461	WORD	n/a	wordpools/wordpool_EN.txt	LIP	6	2	[0, 0, 0]	n/a	FR1	1	R1168T
286.135	0.9	328077	WORD_OFF	n/a	n/a	LIP	6	2	[0, 0, 0]	n/a	FR1	1	R1168T
287.035	1.618	328977	WORD	n/a	wordpools/wordpool_EN.txt	FORK	7	2	[0, 0, 0]	n/a	FR1	1	R1168T
288.653	0.983	330595	WORD_OFF	n/a	n/a	FORK	7	2	[0, 0, 0]	n/a	FR1	1	R1168T
289.636	1.616	331578	WORD	n/a	wordpools/wordpool_EN.txt	CROW	8	2	[0, 0, 0]	n/a	FR1	1	R1168T
291.252	0.851	333194	WORD_OFF	n/a	n/a	CROW	8	2	[0, 0, 0]	n/a	FR1	1	R1168T
292.103	1.618	334045	WORD	n/a	wordpools/wordpool_EN.txt	FLUTE	9	2	[0, 0, 0]	n/a	FR1	1	R1168T
293.721	0.866	335663	WORD_OFF	n/a	n/a	FLUTE	9	2	[0, 0, 0]	n/a	FR1	1	R1168T
294.587	1.616	336529	WORD	n/a	wordpools/wordpool_EN.txt	TOAD	10	2	[0, 0, 0]	n/a	FR1	1	R1168T
296.203	0.867	338145	WORD_OFF	n/a	n/a	TOAD	10	2	[0, 0, 0]	n/a	FR1	1	R1168T
297.07	1.618	339012	WORD	n/a	wordpools/wordpool_EN.txt	DOLL	11	2	[0, 0, 0]	n/a	FR1	1	R1168T
298.688	0.85	340630	WORD_OFF	n/a	n/a	DOLL	11	2	[0, 0, 0]	n/a	FR1	1	R1168T
299.538	1.616	341480	WORD	n/a	wordpools/wordpool_EN.txt	BAT	12	2	[0, 0, 0]	n/a	FR1	1	R1168T
301.154	0.0	343095	DISTRACT_START	n/a	n/a	n/a	-999	2	[0, 0, 0]	n/a	FR1	1	R1168T
301.154	0.001	343095	WORD_OFF	n/a	n/a	BAT	12	2	[0, 0, 0]	n/a	FR1	1	R1168T
301.155	0.016	343096	START	n/a	n/a	n/a	-999	2	[-999, -999, -999]	n/a	FR1	1	R1168T
301.171	6.001	343112	PROB	6.001	n/a	n/a	-999	2	[4, 5, 5]	14	FR1	1	R1168T
307.172	4.951	349113	PROB	4.951	n/a	n/a	-999	2	[5, 2, 5]	12	FR1	1	R1168T
312.123	9.214	354064	PROB	9.214	n/a	n/a	-999	2	[6, 9, 9]	24	FR1	1	R1168T
321.337	0.022	363277	STOP	n/a	n/a	n/a	-999	2	[-999, -999, -999]	n/a	FR1	1	R1168T
321.359	0.616	363299	DISTRACT_END	n/a	n/a	n/a	-999	2	[0, 0, 0]	n/a	FR1	1	R1168T
321.975	0.501	363915	RETRIEVAL_ORIENT	n/a	n/a	n/a	-999	2	[0, 0, 0]	n/a	FR1	1	R1168T
322.476	14.294	364416	REC_START	n/a	n/a	n/a	-999	2	[0, 0, 0]	n/a	FR1	1	R1168T
336.77	15.718	378709	REC_WORD	15.718	n/a	BOOM	-999	2	[0, 0, 0]	n/a	FR1	1	R1168T
352.488	6.161	394426	REC_END	n/a	n/a	n/a	-999	2	[0, 0, 0]	n/a	FR1	1	R1168T
358.649	0.5	400587	TRIAL	n/a	n/a	n/a	-999	3	[0, 0, 0]	n/a	FR1	1	R1168T
359.149	10.428	401087	COUNTDOWN_START	n/a	n/a	n/a	-999	3	[0, 0, 0]	n/a	FR1	1	R1168T
369.577	0.007	411514	COUNTDOWN_END	n/a	n/a	n/a	-999	3	[0, 0, 0]	n/a	FR1	1	R1168T
369.584	1.616	411521	ORIENT	n/a	n/a	n/a	-999	3	[0, 0, 0]	n/a	FR1	1	R1168T
371.2	2.185	413137	ORIENT_OFF	n/a	n/a	n/a	-999	3	[0, 0, 0]	n/a	FR1	1	R1168T
373.385	1.616	415322	WORD	n/a	wordpools/wordpool_EN.txt	FROG	1	3	[0, 0, 0]	n/a	FR1	1	R1168T
375.001	0.867	416938	WORD_OFF	n/a	n/a	FROG	1	3	[0, 0, 0]	n/a	FR1	1	R1168T
375.868	1.618	417805	WORD	n/a	wordpools/wordpool_EN.txt	BEACH	2	3	[0, 0, 0]	n/a	FR1	1	R1168T
377.486	0.833	419423	WORD_OFF	n/a	n/a	BEACH	2	3	[0, 0, 0]	n/a	FR1	1	R1168T
378.319	1.616	420256	WORD	n/a	wordpools/wordpool_EN.txt	COIN	3	3	[0, 0, 0]	n/a	FR1	1	R1168T
379.935	0.801	421872	WORD_OFF	n/a	n/a	COIN	3	3	[0, 0, 0]	n/a	FR1	1	R1168T
380.736	1.617	422673	WORD	n/a	wordpools/wordpool_EN.txt	MOUTH	4	3	[0, 0, 0]	n/a	FR1	1	R1168T
382.353	0.866	424290	WORD_OFF	n/a	n/a	MOUTH	4	3	[0, 0, 0]	n/a	FR1	1	R1168T
383.219	1.618	425156	WORD	n/a	wordpools/wordpool_EN.txt	PIG	5	3	[0, 0, 0]	n/a	FR1	1	R1168T
384.837	0.9	426774	WORD_OFF	n/a	n/a	PIG	5	3	[0, 0, 0]	n/a	FR1	1	R1168T
385.737	1.617	427674	WORD	n/a	wordpools/wordpool_EN.txt	HAND	6	3	[0, 0, 0]	n/a	FR1	1	R1168T
387.354	0.766	429290	WORD_OFF	n/a	n/a	HAND	6	3	[0, 0, 0]	n/a	FR1	1	R1168T
388.12	1.618	430056	WORD	n/a	wordpools/wordpool_EN.txt	SHELL	7	3	[0, 0, 0]	n/a	FR1	1	R1168T
389.738	0.934	431674	WORD_OFF	n/a	n/a	SHELL	7	3	[0, 0, 0]	n/a	FR1	1	R1168T
390.672	1.616	432608	WORD	n/a	wordpools/wordpool_EN.txt	MAP	8	3	[0, 0, 0]	n/a	FR1	1	R1168T
392.288	0.883	434224	WORD_OFF	n/a	n/a	MAP	8	3	[0, 0, 0]	n/a	FR1	1	R1168T
393.171	1.618	435107	WORD	n/a	wordpools/wordpool_EN.txt	STAR	9	3	[0, 0, 0]	n/a	FR1	1	R1168T
394.789	0.983	436725	WORD_OFF	n/a	n/a	STAR	9	3	[0, 0, 0]	n/a	FR1	1	R1168T
395.772	1.617	437708	WORD	n/a	wordpools/wordpool_EN.txt	CAR	10	3	[0, 0, 0]	n/a	FR1	1	R1168T
397.389	0.901	439325	WORD_OFF	n/a	n/a	CAR	10	3	[0, 0, 0]	n/a	FR1	1	R1168T
398.29	1.616	440226	WORD	n/a	wordpools/wordpool_EN.txt	SNAIL	11	3	[0, 0, 0]	n/a	FR1	1	R1168T
399.906	0.801	441842	WORD_OFF	n/a	n/a	SNAIL	11	3	[0, 0, 0]	n/a	FR1	1	R1168T
400.707	1.617	442643	WORD	n/a	wordpools/wordpool_EN.txt	BREAD	12	3	[0, 0, 0]	n/a	FR1	1	R1168T
402.324	0.0	444260	WORD_OFF	n/a	n/a	BREAD	12	3	[0, 0, 0]	n/a	FR1	1	R1168T
402.324	0.0	444260	DISTRACT_START	n/a	n/a	n/a	-999	3	[0, 0, 0]	n/a	FR1	1	R1168T
402.324	0.016	444260	START	n/a	n/a	n/a	-999	3	[-999, -999, -999]	n/a	FR1	1	R1168T
402.34	5.068	444276	PROB	5.068	n/a	n/a	-999	3	[9, 7, 1]	17	FR1	1	R1168T
407.408	10.684	449343	PROB	10.684	n/a	n/a	-999	3	[8, 8, 5]	21	FR1	1	R1168T
418.092	20.654	460027	PROB	20.654	n/a	n/a	-999	3	[5, 8, 9]	22	FR1	1	R1168T
438.746	0.018	480679	STOP	n/a	n/a	n/a	-999	3	[-999, -999, -999]	n/a	FR1	1	R1168T
438.764	0.65	480697	DISTRACT_END	n/a	n/a	n/a	-999	3	[0, 0, 0]	n/a	FR1	1	R1168T
439.414	0.516	481347	RETRIEVAL_ORIENT	n/a	n/a	n/a	-999	3	[0, 0, 0]	n/a	FR1	1	R1168T
439.93	2.131	481863	REC_START	n/a	n/a	n/a	-999	3	[0, 0, 0]	n/a	FR1	1	R1168T
442.061	1.042	483994	REC_WORD	1.042	n/a	SNAIL	11	3	[0, 0, 0]	n/a	FR1	1	R1168T
443.103	2.173	485036	REC_WORD	2.173	n/a	BREAD	12	3	[0, 0, 0]	n/a	FR1	1	R1168T
445.276	24.664	487209	REC_WORD	24.664	n/a	HAND	6	3	[0, 0, 0]	n/a	FR1	1	R1168T
469.94	6.279	511872	REC_END	n/a	n/a	n/a	-999	3	[0, 0, 0]	n/a	FR1	1	R1168T
476.219	0.5	518150	TRIAL	n/a	n/a	n/a	-999	4	[0, 0, 0]	n/a	FR1	1	R1168T
476.719	10.428	518650	COUNTDOWN_START	n/a	n/a	n/a	-999	4	[0, 0, 0]	n/a	FR1	1	R1168T
487.147	0.008	529078	COUNTDOWN_END	n/a	n/a	n/a	-999	4	[0, 0, 0]	n/a	FR1	1	R1168T
487.155	1.618	529086	ORIENT	n/a	n/a	n/a	-999	4	[0, 0, 0]	n/a	FR1	1	R1168T
488.773	2.0	530704	ORIENT_OFF	n/a	n/a	n/a	-999	4	[0, 0, 0]	n/a	FR1	1	R1168T
490.773	1.617	532703	WORD	n/a	wordpools/wordpool_EN.txt	WORLD	1	4	[0, 0, 0]	n/a	FR1	1	R1168T
492.39	0.849	534320	WORD_OFF	n/a	n/a	WORLD	1	4	[0, 0, 0]	n/a	FR1	1	R1168T
493.239	1.601	535169	WORD	n/a	wordpools/wordpool_EN.txt	RAIN	2	4	[0, 0, 0]	n/a	FR1	1	R1168T
494.84	0.867	536770	WORD_OFF	n/a	n/a	RAIN	2	4	[0, 0, 0]	n/a	FR1	1	R1168T
495.707	1.617	537637	WORD	n/a	wordpools/wordpool_EN.txt	TENT	3	4	[0, 0, 0]	n/a	FR1	1	R1168T
497.324	0.95	539254	WORD_OFF	n/a	n/a	TENT	3	4	[0, 0, 0]	n/a	FR1	1	R1168T
498.274	1.616	540204	WORD	n/a	wordpools/wordpool_EN.txt	CHEEK	4	4	[0, 0, 0]	n/a	FR1	1	R1168T
499.89	0.935	541820	WORD_OFF	n/a	n/a	CHEEK	4	4	[0, 0, 0]	n/a	FR1	1	R1168T
500.825	1.617	542755	WORD	n/a	wordpools/wordpool_EN.txt	KEY	5	4	[0, 0, 0]	n/a	FR1	1	R1168T
502.442	0.867	544372	WORD_OFF	n/a	n/a	KEY	5	4	[0, 0, 0]	n/a	FR1	1	R1168T
503.309	1.616	545239	WORD	n/a	wordpools/wordpool_EN.txt	CASH	6	4	[0, 0, 0]	n/a	FR1	1	R1168T
504.925	0.784	546855	WORD_OFF	n/a	n/a	CASH	6	4	[0, 0, 0]	n/a	FR1	1	R1168T
505.709	1.617	547639	WORD	n/a	wordpools/wordpool_EN.txt	FISH	7	4	[0, 0, 0]	n/a	FR1	1	R1168T
507.326	0.984	549255	WORD_OFF	n/a	n/a	FISH	7	4	[0, 0, 0]	n/a	FR1	1	R1168T
508.31	1.616	550239	WORD	n/a	wordpools/wordpool_EN.txt	SKUNK	8	4	[0, 0, 0]	n/a	FR1	1	R1168T
509.926	0.867	551855	WORD_OFF	n/a	n/a	SKUNK	8	4	[0, 0, 0]	n/a	FR1	1	R1168T
510.793	1.617	552722	WORD	n/a	wordpools/wordpool_EN.txt	MAIL	9	4	[0, 0, 0]	n/a	FR1	1	R1168T
512.41	0.917	554339	WORD_OFF	n/a	n/a	MAIL	9	4	[0, 0, 0]	n/a	FR1	1	R1168T
513.327	1.616	555256	WORD	n/a	wordpools/wordpool_EN.txt	PARK	10	4	[0, 0, 0]	n/a	FR1	1	R1168T
514.943	0.934	556872	WORD_OFF	n/a	n/a	PARK	10	4	[0, 0, 0]	n/a	FR1	1	R1168T
515.877	1.618	557806	WORD	n/a	wordpools/wordpool_EN.txt	CHIEF	11	4	[0, 0, 0]	n/a	FR1	1	R1168T
517.495	0.8	559424	WORD_OFF	n/a	n/a	CHIEF	11	4	[0, 0, 0]	n/a	FR1	1	R1168T
518.295	1.616	560224	WORD	n/a	wordpools/wordpool_EN.txt	SHIP	12	4	[0, 0, 0]	n/a	FR1	1	R1168T
519.911	0.0	561840	WORD_OFF	n/a	n/a	SHIP	12	4	[0, 0, 0]	n/a	FR1	1	R1168T
519.911	0.0	561840	DISTRACT_START	n/a	n/a	n/a	-999	4	[0, 0, 0]	n/a	FR1	1	R1168T
519.911	0.016	561840	START	n/a	n/a	n/a	-999	4	[-999, -999, -999]	n/a	FR1	1	R1168T
519.927	6.168	561856	PROB	6.168	n/a	n/a	-999	4	[7, 7, 5]	19	FR1	1	R1168T
526.095	4.001	568023	PROB	4.001	n/a	n/a	-999	4	[7, 1, 3]	11	FR1	1	R1168T
530.096	6.285	572024	PROB	6.285	n/a	n/a	-999	4	[5, 1, 7]	13	FR1	1	R1168T
536.381	6.901	578309	PROB	6.901	n/a	n/a	-999	4	[5, 7, 1]	13	FR1	1	R1168T
543.282	0.017	585209	STOP	n/a	n/a	n/a	-999	4	[-999, -999, -999]	n/a	FR1	1	R1168T
543.299	0.666	585226	DISTRACT_END	n/a	n/a	n/a	-999	4	[0, 0, 0]	n/a	FR1	1	R1168T
543.965	0.518	585892	RETRIEVAL_ORIENT	n/a	n/a	n/a	-999	4	[0, 0, 0]	n/a	FR1	1	R1168T
544.483	0.99	586410	REC_START	n/a	n/a	n/a	-999	4	[0, 0, 0]	n/a	FR1	1	R1168T
545.473	0.772	587400	REC_WORD	0.772	n/a	WORLD	1	4	[0, 0, 0]	n/a	FR1	1	R1168T
546.245	1.187	588172	REC_WORD	1.187	n/a	RAIN	2	4	[0, 0, 0]	n/a	FR1	1	R1168T
547.432	0.859	589359	REC_WORD	0.859	n/a	TENT	3	4	[0, 0, 0]	n/a	FR1	1	R1168T
548.291	1.192	590218	REC_WORD	1.192	n/a	SKUNK	8	4	[0, 0, 0]	n/a	FR1	1	R1168T
549.483	25.014	591410	REC_WORD	25.014	n/a	CHIEF	11	4	[0, 0, 0]	n/a	FR1	1	R1168T
574.497	4.741	616423	REC_END	n/a	n/a	n/a	-999	4	[0, 0, 0]	n/a	FR1	1	R1168T
579.238	0.5	621163	TRIAL	n/a	n/a	n/a	-999	5	[0, 0, 0]	n/a	FR1	1	R1168T
579.738	10.428	621663	COUNTDOWN_START	n/a	n/a	n/a	-999	5	[0, 0, 0]	n/a	FR1	1	R1168T
590.166	0.007	632091	COUNTDOWN_END	n/a	n/a	n/a	-999	5	[0, 0, 0]	n/a	FR1	1	R1168T
590.173	1.602	632098	ORIENT	n/a	n/a	n/a	-999	5	[0, 0, 0]	n/a	FR1	1	R1168T
591.775	2.216	633700	ORIENT_OFF	n/a	n/a	n/a	-999	5	[0, 0, 0]	n/a	FR1	1	R1168T
593.991	1.618	635915	WORD	n/a	wordpools/wordpool_EN.txt	POLE	1	5	[0, 0, 0]	n/a	FR1	1	R1168T
595.609	0.8	637533	WORD_OFF	n/a	n/a	POLE	1	5	[0, 0, 0]	n/a	FR1	1	R1168T
596.409	1.616	638333	WORD	n/a	wordpools/wordpool_EN.txt	BOY	2	5	[0, 0, 0]	n/a	FR1	1	R1168T
598.025	0.95	639949	WORD_OFF	n/a	n/a	BOY	2	5	[0, 0, 0]	n/a	FR1	1	R1168T
598.975	1.618	640899	WORD	n/a	wordpools/wordpool_EN.txt	STORE	3	5	[0, 0, 0]	n/a	FR1	1	R1168T
600.593	0.783	642517	WORD_OFF	n/a	n/a	STORE	3	5	[0, 0, 0]	n/a	FR1	1	R1168T
601.376	1.616	643300	WORD	n/a	wordpools/wordpool_EN.txt	TRASH	4	5	[0, 0, 0]	n/a	FR1	1	R1168T
602.992	0.818	644916	WORD_OFF	n/a	n/a	TRASH	4	5	[0, 0, 0]	n/a	FR1	1	R1168T
603.81	1.617	645734	WORD	n/a	wordpools/wordpool_EN.txt	WEED	5	5	[0, 0, 0]	n/a	FR1	1	R1168T
605.427	0.834	647351	WORD_OFF	n/a	n/a	WEED	5	5	[0, 0, 0]	n/a	FR1	1	R1168T
606.261	1.616	648185	WORD	n/a	wordpools/wordpool_EN.txt	PHONE	6	5	[0, 0, 0]	n/a	FR1	1	R1168T
607.877	0.868	649801	WORD_OFF	n/a	n/a	PHONE	6	5	[0, 0, 0]	n/a	FR1	1	R1168T
608.745	1.616	650669	WORD	n/a	wordpools/wordpool_EN.txt	WALL	7	5	[0, 0, 0]	n/a	FR1	1	R1168T
610.361	0.8	652284	WORD_OFF	n/a	n/a	WALL	7	5	[0, 0, 0]	n/a	FR1	1	R1168T
611.161	1.618	653084	WORD	n/a	wordpools/wordpool_EN.txt	SHIELD	8	5	[0, 0, 0]	n/a	FR1	1	R1168T
612.779	0.833	654702	WORD_OFF	n/a	n/a	SHIELD	8	5	[0, 0, 0]	n/a	FR1	1	R1168T
613.612	1.616	655535	WORD	n/a	wordpools/wordpool_EN.txt	PEARL	9	5	[0, 0, 0]	n/a	FR1	1	R1168T
615.228	0.867	657151	WORD_OFF	n/a	n/a	PEARL	9	5	[0, 0, 0]	n/a	FR1	1	R1168T
616.095	1.618	658018	WORD	n/a	wordpools/wordpool_EN.txt	PANTS	10	5	[0, 0, 0]	n/a	FR1	1	R1168T
617.713	0.867	659636	WORD_OFF	n/a	n/a	PANTS	10	5	[0, 0, 0]	n/a	FR1	1	R1168T
618.58	1.616	660503	WORD	n/a	wordpools/wordpool_EN.txt	PLANT	11	5	[0, 0, 0]	n/a	FR1	1	R1168T
620.196	0.8	662119	WORD_OFF	n/a	n/a	PLANT	11	5	[0, 0, 0]	n/a	FR1	1	R1168T
620.996	1.618	662919	WORD	n/a	wordpools/wordpool_EN.txt	OWL	12	5	[0, 0, 0]	n/a	FR1	1	R1168T
622.614	0.0	664537	WORD_OFF	n/a	n/a	OWL	12	5	[0, 0, 0]	n/a	FR1	1	R1168T
622.614	0.0	664537	DISTRACT_START	n/a	n/a	n/a	-999	5	[0, 0, 0]	n/a	FR1	1	R1168T
622.614	0.016	664537	START	n/a	n/a	n/a	-999	5	[-999, -999, -999]	n/a	FR1	1	R1168T
622.63	5.085	664553	PROB	5.085	n/a	n/a	-999	5	[3, 7, 5]	15	FR1	1	R1168T
627.715	2.884	669637	PROB	2.884	n/a	n/a	-999	5	[3, 3, 2]	8	FR1	1	R1168T
630.599	4.934	672521	PROB	4.934	n/a	n/a	-999	5	[6, 2, 8]	16	FR1	1	R1168T
635.533	13.734	677455	PROB	13.734	n/a	n/a	-999	5	[4, 8, 6]	18	FR1	1	R1168T
649.267	0.018	691188	STOP	n/a	n/a	n/a	-999	5	[-999, -999, -999]	n/a	FR1	1	R1168T
649.285	0.534	691206	DISTRACT_END	n/a	n/a	n/a	-999	5	[0, 0, 0]	n/a	FR1	1	R1168T
649.819	0.517	691740	RETRIEVAL_ORIENT	n/a	n/a	n/a	-999	5	[0, 0, 0]	n/a	FR1	1	R1168T
650.336	2.118	692257	REC_START	n/a	n/a	n/a	-999	5	[0, 0, 0]	n/a	FR1	1	R1168T
652.454	1.003	694375	REC_WORD	1.003	n/a	PEARL	9	5	[0, 0, 0]	n/a	FR1	1	R1168T
653.457	16.462	695378	REC_WORD	16.462	n/a	PANTS	10	5	[0, 0, 0]	n/a	FR1	1	R1168T
669.919	10.429	711839	REC_WORD	10.429	n/a	OWL	12	5	[0, 0, 0]	n/a	FR1	1	R1168T
680.348	6.244	722267	REC_END	n/a	n/a	n/a	-999	5	[0, 0, 0]	n/a	FR1	1	R1168T
686.592	0.5	728511	TRIAL	n/a	n/a	n/a	-999	6	[0, 0, 0]	n/a	FR1	1	R1168T
687.092	10.428	729011	COUNTDOWN_START	n/a	n/a	n/a	-999	6	[0, 0, 0]	n/a	FR1	1	R1168T
697.52	0.007	739438	COUNTDOWN_END	n/a	n/a	n/a	-999	6	[0, 0, 0]	n/a	FR1	1	R1168T
697.527	1.616	739445	ORIENT	n/a	n/a	n/a	-999	6	[0, 0, 0]	n/a	FR1	1	R1168T
699.143	2.017	741061	ORIENT_OFF	n/a	n/a	n/a	-999	6	[0, 0, 0]	n/a	FR1	1	R1168T
701.16	1.601	743078	WORD	n/a	wordpools/wordpool_EN.txt	MOOSE	1	6	[0, 0, 0]	n/a	FR1	1	R1168T
702.761	0.801	744679	WORD_OFF	n/a	n/a	MOOSE	1	6	[0, 0, 0]	n/a	FR1	1	R1168T
703.562	1.615	745480	WORD	n/a	wordpools/wordpool_EN.txt	STEM	2	6	[0, 0, 0]	n/a	FR1	1	R1168T
705.177	0.901	747095	WORD_OFF	n/a	n/a	STEM	2	6	[0, 0, 0]	n/a	FR1	1	R1168T
706.078	1.618	747996	WORD	n/a	wordpools/wordpool_EN.txt	SEED	3	6	[0, 0, 0]	n/a	FR1	1	R1168T
707.696	0.833	749614	WORD_OFF	n/a	n/a	SEED	3	6	[0, 0, 0]	n/a	FR1	1	R1168T
708.529	1.616	750447	WORD	n/a	wordpools/wordpool_EN.txt	HEART	4	6	[0, 0, 0]	n/a	FR1	1	R1168T
710.145	0.984	752063	WORD_OFF	n/a	n/a	HEART	4	6	[0, 0, 0]	n/a	FR1	1	R1168T
711.129	1.618	753047	WORD	n/a	wordpools/wordpool_EN.txt	ROPE	5	6	[0, 0, 0]	n/a	FR1	1	R1168T
712.747	0.85	754665	WORD_OFF	n/a	n/a	ROPE	5	6	[0, 0, 0]	n/a	FR1	1	R1168T
713.597	1.616	755514	WORD	n/a	wordpools/wordpool_EN.txt	WOOD	6	6	[0, 0, 0]	n/a	FR1	1	R1168T
715.213	0.85	757130	WORD_OFF	n/a	n/a	WOOD	6	6	[0, 0, 0]	n/a	FR1	1	R1168T
716.063	1.618	757980	WORD	n/a	wordpools/wordpool_EN.txt	SNOW	7	6	[0, 0, 0]	n/a	FR1	1	R1168T
717.681	0.9	759598	WORD_OFF	n/a	n/a	SNOW	7	6	[0, 0, 0]	n/a	FR1	1	R1168T
718.581	1.616	760498	WORD	n/a	wordpools/wordpool_EN.txt	MAZE	8	6	[0, 0, 0]	n/a	FR1	1	R1168T
720.197	0.834	762114	WORD_OFF	n/a	n/a	MAZE	8	6	[0, 0, 0]	n/a	FR1	1	R1168T
721.031	1.618	762948	WORD	n/a	wordpools/wordpool_EN.txt	LAKE	9	6	[0, 0, 0]	n/a	FR1	1	R1168T
722.649	0.85	764566	WORD_OFF	n/a	n/a	LAKE	9	6	[0, 0, 0]	n/a	FR1	1	R1168T
723.499	1.616	765416	WORD	n/a	wordpools/wordpool_EN.txt	HOUSE	10	6	[0, 0, 0]	n/a	FR1	1	R1168T
725.115	0.833	767032	WORD_OFF	n/a	n/a	HOUSE	10	6	[0, 0, 0]	n/a	FR1	1	R1168T
725.948	1.618	767865	WORD	n/a	wordpools/wordpool_EN.txt	COW	11	6	[0, 0, 0]	n/a	FR1	1	R1168T
727.566	0.867	769483	WORD_OFF	n/a	n/a	COW	11	6	[0, 0, 0]	n/a	FR1	1	R1168T
728.433	1.616	770350	WORD	n/a	wordpools/wordpool_EN.txt	BEAR	12	6	[0, 0, 0]	n/a	FR1	1	R1168T
730.049	0.0	771966	WORD_OFF	n/a	n/a	BEAR	12	6	[0, 0, 0]	n/a	FR1	1	R1168T
730.049	0.001	771966	DISTRACT_START	n/a	n/a	n/a	-999	6	[0, 0, 0]	n/a	FR1	1	R1168T
730.05	0.016	771967	START	n/a	n/a	n/a	-999	6	[-999, -999, -999]	n/a	FR1	1	R1168T
730.066	3.967	771983	PROB	3.967	n/a	n/a	-999	6	[2, 3, 2]	7	FR1	1	R1168T
734.033	6.285	775949	PROB	6.285	n/a	n/a	-999	6	[4, 5, 9]	19	FR1	1	R1168T
740.318	6.002	782234	PROB	6.002	n/a	n/a	-999	6	[3, 5, 5]	13	FR1	1	R1168T
746.32	3.969	788236	PROB	3.969	n/a	n/a	-999	6	[2, 7, 3]	12	FR1	1	R1168T
750.289	0.015	792204	STOP	n/a	n/a	n/a	-999	6	[-999, -999, -999]	n/a	FR1	1	R1168T
750.304	0.533	792219	DISTRACT_END	n/a	n/a	n/a	-999	6	[0, 0, 0]	n/a	FR1	1	R1168T
750.837	0.517	792752	RETRIEVAL_ORIENT	n/a	n/a	n/a	-999	6	[0, 0, 0]	n/a	FR1	1	R1168T
751.354	2.428	793269	REC_START	n/a	n/a	n/a	-999	6	[0, 0, 0]	n/a	FR1	1	R1168T
753.782	1.097	795697	REC_WORD	1.097	n/a	MOOSE	1	6	[0, 0, 0]	n/a	FR1	1	R1168T
754.879	1.341	796794	REC_WORD	1.341	n/a	LAKE	9	6	[0, 0, 0]	n/a	FR1	1	R1168T
756.22	1.051	798135	REC_WORD	1.051	n/a	HOUSE	10	6	[0, 0, 0]	n/a	FR1	1	R1168T
757.271	11.594	799186	REC_WORD	11.594	n/a	STEM	2	6	[0, 0, 0]	n/a	FR1	1	R1168T
768.865	12.502	810779	REC_WORD	12.502	n/a	GOAT	-999	6	[0, 0, 0]	n/a	FR1	1	R1168T
781.367	5.792	823281	REC_END	n/a	n/a	n/a	-999	6	[0, 0, 0]	n/a	FR1	1	R1168T
787.159	0.5	829072	TRIAL	n/a	n/a	n/a	-999	7	[0, 0, 0]	n/a	FR1	1	R1168T
787.659	10.428	829572	COUNTDOWN_START	n/a	n/a	n/a	-999	7	[0, 0, 0]	n/a	FR1	1	R1168T
798.087	0.008	840000	COUNTDOWN_END	n/a	n/a	n/a	-999	7	[0, 0, 0]	n/a	FR1	1	R1168T
798.095	1.618	840008	ORIENT	n/a	n/a	n/a	-999	7	[0, 0, 0]	n/a	FR1	1	R1168T
799.713	2.117	841625	ORIENT_OFF	n/a	n/a	n/a	-999	7	[0, 0, 0]	n/a	FR1	1	R1168T
801.83	1.617	843742	WORD	n/a	wordpools/wordpool_EN.txt	GRAPE	1	7	[0, 0, 0]	n/a	FR1	1	R1168T
803.447	0.966	845359	WORD_OFF	n/a	n/a	GRAPE	1	7	[0, 0, 0]	n/a	FR1	1	R1168T
804.413	1.616	846325	WORD	n/a	wordpools/wordpool_EN.txt	COUCH	2	7	[0, 0, 0]	n/a	FR1	1	R1168T
806.029	0.951	847941	WORD_OFF	n/a	n/a	COUCH	2	7	[0, 0, 0]	n/a	FR1	1	R1168T
806.98	1.617	848892	WORD	n/a	wordpools/wordpool_EN.txt	CORN	3	7	[0, 0, 0]	n/a	FR1	1	R1168T
808.597	0.801	850509	WORD_OFF	n/a	n/a	CORN	3	7	[0, 0, 0]	n/a	FR1	1	R1168T
809.398	1.616	851310	WORD	n/a	wordpools/wordpool_EN.txt	CRANE	4	7	[0, 0, 0]	n/a	FR1	1	R1168T
811.014	0.9	852926	WORD_OFF	n/a	n/a	CRANE	4	7	[0, 0, 0]	n/a	FR1	1	R1168T
811.914	1.618	853826	WORD	n/a	wordpools/wordpool_EN.txt	JUICE	5	7	[0, 0, 0]	n/a	FR1	1	R1168T
813.532	0.833	855444	WORD_OFF	n/a	n/a	JUICE	5	7	[0, 0, 0]	n/a	FR1	1	R1168T
814.365	1.616	856277	WORD	n/a	wordpools/wordpool_EN.txt	CAVE	6	7	[0, 0, 0]	n/a	FR1	1	R1168T
815.981	0.867	857893	WORD_OFF	n/a	n/a	CAVE	6	7	[0, 0, 0]	n/a	FR1	1	R1168T
816.848	1.601	858759	WORD	n/a	wordpools/wordpool_EN.txt	EAR	7	7	[0, 0, 0]	n/a	FR1	1	R1168T
818.449	0.851	860360	WORD_OFF	n/a	n/a	EAR	7	7	[0, 0, 0]	n/a	FR1	1	R1168T
819.3	1.616	861211	WORD	n/a	wordpools/wordpool_EN.txt	FARM	8	7	[0, 0, 0]	n/a	FR1	1	R1168T
820.916	0.95	862827	WORD_OFF	n/a	n/a	FARM	8	7	[0, 0, 0]	n/a	FR1	1	R1168T
821.866	1.618	863777	WORD	n/a	wordpools/wordpool_EN.txt	WAND	9	7	[0, 0, 0]	n/a	FR1	1	R1168T
823.484	1.0	865395	WORD_OFF	n/a	n/a	WAND	9	7	[0, 0, 0]	n/a	FR1	1	R1168T
824.484	1.616	866395	WORD	n/a	wordpools/wordpool_EN.txt	SEAT	10	7	[0, 0, 0]	n/a	FR1	1	R1168T
826.1	0.817	868011	WORD_OFF	n/a	n/a	SEAT	10	7	[0, 0, 0]	n/a	FR1	1	R1168T
826.917	1.617	868828	WORD	n/a	wordpools/wordpool_EN.txt	SLEEVE	11	7	[0, 0, 0]	n/a	FR1	1	R1168T
828.534	1.017	870445	WORD_OFF	n/a	n/a	SLEEVE	11	7	[0, 0, 0]	n/a	FR1	1	R1168T
829.551	1.616	871462	WORD	n/a	wordpools/wordpool_EN.txt	LOCK	12	7	[0, 0, 0]	n/a	FR1	1	R1168T
831.167	0.0	873078	WORD_OFF	n/a	n/a	LOCK	12	7	[0, 0, 0]	n/a	FR1	1	R1168T
831.167	0.001	873078	DISTRACT_START	n/a	n/a	n/a	-999	7	[0, 0, 0]	n/a	FR1	1	R1168T
831.168	0.016	873079	START	n/a	n/a	n/a	-999	7	[-999, -999, -999]	n/a	FR1	1	R1168T
831.184	14.27	873095	PROB	14.27	n/a	n/a	-999	7	[3, 3, 3]	9	FR1	1	R1168T
845.454	7.117	887364	PROB	7.117	n/a	n/a	-999	7	[3, 8, 6]	17	FR1	1	R1168T
852.571	0.018	894480	STOP	n/a	n/a	n/a	-999	7	[-999, -999, -999]	n/a	FR1	1	R1168T
852.589	0.599	894498	DISTRACT_END	n/a	n/a	n/a	-999	7	[0, 0, 0]	n/a	FR1	1	R1168T
853.188	0.502	895097	RETRIEVAL_ORIENT	n/a	n/a	n/a	-999	7	[0, 0, 0]	n/a	FR1	1	R1168T
853.69	6.985	895599	REC_START	n/a	n/a	n/a	-999	7	[0, 0, 0]	n/a	FR1	1	R1168T
860.675	1.024	902584	REC_WORD	1.024	n/a	GRAPE	1	7	[0, 0, 0]	n/a	FR1	1	R1168T
861.699	1.238	903608	REC_WORD	1.238	n/a	COUGH	-999	7	[0, 0, 0]	n/a	FR1	1	R1168T
862.937	1.368	904846	REC_WORD	1.368	n/a	JUICE	5	7	[0, 0, 0]	n/a	FR1	1	R1168T
864.305	19.396	906214	REC_WORD	19.396	n/a	CAVE	6	7	[0, 0, 0]	n/a	FR1	1	R1168T
883.701	4.828	925609	REC_END	n/a	n/a	n/a	-999	7	[0, 0, 0]	n/a	FR1	1	R1168T
888.529	0.5	930436	TRIAL	n/a	n/a	n/a	-999	8	[0, 0, 0]	n/a	FR1	1	R1168T
889.029	10.428	930936	COUNTDOWN_START	n/a	n/a	n/a	-999	8	[0, 0, 0]	n/a	FR1	1	R1168T
899.457	0.007	941364	COUNTDOWN_END	n/a	n/a	n/a	-999	8	[0, 0, 0]	n/a	FR1	1	R1168T
899.464	1.616	941371	ORIENT	n/a	n/a	n/a	-999	8	[0, 0, 0]	n/a	FR1	1	R1168T
901.08	2.117	942987	ORIENT_OFF	n/a	n/a	n/a	-999	8	[0, 0, 0]	n/a	FR1	1	R1168T
903.197	1.601	945103	WORD	n/a	wordpools/wordpool_EN.txt	BED	1	8	[0, 0, 0]	n/a	FR1	1	R1168T
904.798	0.884	946704	WORD_OFF	n/a	n/a	BED	1	8	[0, 0, 0]	n/a	FR1	1	R1168T
905.682	1.617	947588	WORD	n/a	wordpools/wordpool_EN.txt	BENCH	2	8	[0, 0, 0]	n/a	FR1	1	R1168T
907.299	0.932	949205	WORD_OFF	n/a	n/a	BENCH	2	8	[0, 0, 0]	n/a	FR1	1	R1168T
908.231	1.617	950137	WORD	n/a	wordpools/wordpool_EN.txt	SHARK	3	8	[0, 0, 0]	n/a	FR1	1	R1168T
909.848	0.835	951754	WORD_OFF	n/a	n/a	SHARK	3	8	[0, 0, 0]	n/a	FR1	1	R1168T
910.683	1.617	952589	WORD	n/a	wordpools/wordpool_EN.txt	FOOD	4	8	[0, 0, 0]	n/a	FR1	1	R1168T
912.3	0.916	954206	WORD_OFF	n/a	n/a	FOOD	4	8	[0, 0, 0]	n/a	FR1	1	R1168T
913.216	1.618	955122	WORD	n/a	wordpools/wordpool_EN.txt	NOSE	5	8	[0, 0, 0]	n/a	FR1	1	R1168T
914.834	0.9	956740	WORD_OFF	n/a	n/a	NOSE	5	8	[0, 0, 0]	n/a	FR1	1	R1168T
915.734	1.617	957640	WORD	n/a	wordpools/wordpool_EN.txt	FACE	6	8	[0, 0, 0]	n/a	FR1	1	R1168T
917.351	0.95	959257	WORD_OFF	n/a	n/a	FACE	6	8	[0, 0, 0]	n/a	FR1	1	R1168T
918.301	1.616	960207	WORD	n/a	wordpools/wordpool_EN.txt	BOWL	7	8	[0, 0, 0]	n/a	FR1	1	R1168T
919.917	0.95	961822	WORD_OFF	n/a	n/a	BOWL	7	8	[0, 0, 0]	n/a	FR1	1	R1168T
920.867	1.601	962772	WORD	n/a	wordpools/wordpool_EN.txt	WORM	8	8	[0, 0, 0]	n/a	FR1	1	R1168T
922.468	0.834	964373	WORD_OFF	n/a	n/a	WORM	8	8	[0, 0, 0]	n/a	FR1	1	R1168T
923.302	1.616	965207	WORD	n/a	wordpools/wordpool_EN.txt	LEG	9	8	[0, 0, 0]	n/a	FR1	1	R1168T
924.918	0.884	966823	WORD_OFF	n/a	n/a	LEG	9	8	[0, 0, 0]	n/a	FR1	1	R1168T
925.802	1.617	967707	WORD	n/a	wordpools/wordpool_EN.txt	GLASS	10	8	[0, 0, 0]	n/a	FR1	1	R1168T
927.419	0.917	969324	WORD_OFF	n/a	n/a	GLASS	10	8	[0, 0, 0]	n/a	FR1	1	R1168T
928.336	1.616	970241	WORD	n/a	wordpools/wordpool_EN.txt	HILL	11	8	[0, 0, 0]	n/a	FR1	1	R1168T
929.952	0.95	971857	WORD_OFF	n/a	n/a	HILL	11	8	[0, 0, 0]	n/a	FR1	1	R1168T
930.902	1.618	972807	WORD	n/a	wordpools/wordpool_EN.txt	MUD	12	8	[0, 0, 0]	n/a	FR1	1	R1168T
932.52	0.0	974425	WORD_OFF	n/a	n/a	MUD	12	8	[0, 0, 0]	n/a	FR1	1	R1168T
932.52	0.001	974425	DISTRACT_START	n/a	n/a	n/a	-999	8	[0, 0, 0]	n/a	FR1	1	R1168T
932.521	0.016	974426	START	n/a	n/a	n/a	-999	8	[-999, -999, -999]	n/a	FR1	1	R1168T
932.537	4.616	974442	PROB	4.616	n/a	n/a	-999	8	[2, 4, 2]	8	FR1	1	R1168T
937.153	4.152	979057	PROB	4.152	n/a	n/a	-999	8	[5, 5, 6]	16	FR1	1	R1168T
941.305	7.667	983209	PROB	7.667	n/a	n/a	-999	8	[1, 3, 6]	10	FR1	1	R1168T
948.972	6.863	990876	PROB	6.863	n/a	n/a	-999	8	[4, 9, 3]	16	FR1	1	R1168T
955.835	0.006	997738	STOP	n/a	n/a	n/a	-999	8	[-999, -999, -999]	n/a	FR1	1	R1168T
955.841	0.583	997744	DISTRACT_END	n/a	n/a	n/a	-999	8	[0, 0, 0]	n/a	FR1	1	R1168T
956.424	0.517	998327	RETRIEVAL_ORIENT	n/a	n/a	n/a	-999	8	[0, 0, 0]	n/a	FR1	1	R1168T
956.941	0.903	998844	REC_START	n/a	n/a	n/a	-999	8	[0, 0, 0]	n/a	FR1	1	R1168T
957.844	1.064	999747	REC_WORD	1.064	n/a	BED	1	8	[0, 0, 0]	n/a	FR1	1	R1168T
958.908	1.57	1000811	REC_WORD	1.57	n/a	BENCH	2	8	[0, 0, 0]	n/a	FR1	1	R1168T
960.478	1.755	1002381	REC_WORD	1.755	n/a	SHARK	3	8	[0, 0, 0]	n/a	FR1	1	R1168T
962.233	5.426	1004136	REC_WORD	5.426	n/a	WORM	8	8	[0, 0, 0]	n/a	FR1	1	R1168T
967.659	1.215	1009562	REC_WORD	1.215	n/a	HOLE	-999	8	[0, 0, 0]	n/a	FR1	1	R1168T
968.874	2.288	1010777	REC_WORD	2.288	n/a	FENCE	-999	8	[0, 0, 0]	n/a	FR1	1	R1168T
971.162	15.791	1013064	REC_WORD	15.791	n/a	CAVE	-999	8	[0, 0, 0]	n/a	FR1	1	R1168T
986.953	4.495	1028855	REC_END	n/a	n/a	n/a	-999	8	[0, 0, 0]	n/a	FR1	1	R1168T
991.448	0.5	1033349	TRIAL	n/a	n/a	n/a	-999	9	[0, 0, 0]	n/a	FR1	1	R1168T
991.948	10.428	1033849	COUNTDOWN_START	n/a	n/a	n/a	-999	9	[0, 0, 0]	n/a	FR1	1	R1168T
1002.376	0.007	1044277	COUNTDOWN_END	n/a	n/a	n/a	-999	9	[0, 0, 0]	n/a	FR1	1	R1168T
1002.383	1.616	1044284	ORIENT	n/a	n/a	n/a	-999	9	[0, 0, 0]	n/a	FR1	1	R1168T
1003.999	2.318	1045900	ORIENT_OFF	n/a	n/a	n/a	-999	9	[0, 0, 0]	n/a	FR1	1	R1168T
1006.317	1.616	1048217	WORD	n/a	wordpools/wordpool_EN.txt	JAIL	1	9	[0, 0, 0]	n/a	FR1	1	R1168T
1007.933	1.017	1049833	WORD_OFF	n/a	n/a	JAIL	1	9	[0, 0, 0]	n/a	FR1	1	R1168T
1008.95	1.618	1050850	WORD	n/a	wordpools/wordpool_EN.txt	STRAW	2	9	[0, 0, 0]	n/a	FR1	1	R1168T
1010.568	0.783	1052468	WORD_OFF	n/a	n/a	STRAW	2	9	[0, 0, 0]	n/a	FR1	1	R1168T
1011.351	1.616	1053251	WORD	n/a	wordpools/wordpool_EN.txt	TOOL	3	9	[0, 0, 0]	n/a	FR1	1	R1168T
1012.967	0.785	1054867	WORD_OFF	n/a	n/a	TOOL	3	9	[0, 0, 0]	n/a	FR1	1	R1168T
1013.752	1.616	1055652	WORD	n/a	wordpools/wordpool_EN.txt	DEER	4	9	[0, 0, 0]	n/a	FR1	1	R1168T
1015.368	0.833	1057268	WORD_OFF	n/a	n/a	DEER	4	9	[0, 0, 0]	n/a	FR1	1	R1168T
1016.201	1.618	1058101	WORD	n/a	wordpools/wordpool_EN.txt	BUSH	5	9	[0, 0, 0]	n/a	FR1	1	R1168T
1017.819	0.783	1059719	WORD_OFF	n/a	n/a	BUSH	5	9	[0, 0, 0]	n/a	FR1	1	R1168T
1018.602	1.616	1060502	WORD	n/a	wordpools/wordpool_EN.txt	VEST	6	9	[0, 0, 0]	n/a	FR1	1	R1168T
1020.218	0.784	1062118	WORD_OFF	n/a	n/a	VEST	6	9	[0, 0, 0]	n/a	FR1	1	R1168T
1021.002	1.618	1062902	WORD	n/a	wordpools/wordpool_EN.txt	SEAL	7	9	[0, 0, 0]	n/a	FR1	1	R1168T
1022.62	0.95	1064519	WORD_OFF	n/a	n/a	SEAL	7	9	[0, 0, 0]	n/a	FR1	1	R1168T
1023.57	1.616	1065469	WORD	n/a	wordpools/wordpool_EN.txt	PIPE	8	9	[0, 0, 0]	n/a	FR1	1	R1168T
1025.186	0.984	1067085	WORD_OFF	n/a	n/a	PIPE	8	9	[0, 0, 0]	n/a	FR1	1	R1168T
1026.17	1.617	1068069	WORD	n/a	wordpools/wordpool_EN.txt	ROOM	9	9	[0, 0, 0]	n/a	FR1	1	R1168T
1027.787	1.001	1069686	WORD_OFF	n/a	n/a	ROOM	9	9	[0, 0, 0]	n/a	FR1	1	R1168T
1028.788	1.617	1070687	WORD	n/a	wordpools/wordpool_EN.txt	CHIN	10	9	[0, 0, 0]	n/a	FR1	1	R1168T
1030.405	0.765	1072304	WORD_OFF	n/a	n/a	CHIN	10	9	[0, 0, 0]	n/a	FR1	1	R1168T
1031.17	1.618	1073069	WORD	n/a	wordpools/wordpool_EN.txt	SALT	11	9	[0, 0, 0]	n/a	FR1	1	R1168T
1032.788	0.984	1074687	WORD_OFF	n/a	n/a	SALT	11	9	[0, 0, 0]	n/a	FR1	1	R1168T
1033.772	1.617	1075671	WORD	n/a	wordpools/wordpool_EN.txt	CUBE	12	9	[0, 0, 0]	n/a	FR1	1	R1168T
1035.389	0.0	1077288	WORD_OFF	n/a	n/a	CUBE	12	9	[0, 0, 0]	n/a	FR1	1	R1168T
1035.389	0.001	1077288	DISTRACT_START	n/a	n/a	n/a	-999	9	[0, 0, 0]	n/a	FR1	1	R1168T
1035.39	0.016	1077289	START	n/a	n/a	n/a	-999	9	[-999, -999, -999]	n/a	FR1	1	R1168T
1035.406	7.101	1077305	PROB	7.101	n/a	n/a	-999	9	[8, 7, 7]	22	FR1	1	R1168T
1042.507	5.533	1084405	PROB	5.533	n/a	n/a	-999	9	[8, 1, 1]	10	FR1	1	R1168T
1048.04	3.235	1089938	PROB	3.235	n/a	n/a	-999	9	[7, 7, 1]	15	FR1	1	R1168T
1051.275	3.633	1093173	PROB	3.633	n/a	n/a	-999	9	[9, 3, 2]	14	FR1	1	R1168T
1054.908	6.254	1096806	PROB	6.254	n/a	n/a	-999	9	[6, 5, 6]	17	FR1	1	R1168T
1061.162	0.014	1103059	STOP	n/a	n/a	n/a	-999	9	[-999, -999, -999]	n/a	FR1	1	R1168T
1061.176	0.651	1103073	DISTRACT_END	n/a	n/a	n/a	-999	9	[0, 0, 0]	n/a	FR1	1	R1168T
1061.827	0.517	1103724	RETRIEVAL_ORIENT	n/a	n/a	n/a	-999	9	[0, 0, 0]	n/a	FR1	1	R1168T
1062.344	2.092	1104241	REC_START	n/a	n/a	n/a	-999	9	[0, 0, 0]	n/a	FR1	1	R1168T
1064.436	0.997	1106333	REC_WORD	0.997	n/a	JAIL	1	9	[0, 0, 0]	n/a	FR1	1	R1168T
1065.433	1.33	1107330	REC_WORD	1.33	n/a	STRAW	2	9	[0, 0, 0]	n/a	FR1	1	R1168T
1066.763	1.097	1108660	REC_WORD	1.097	n/a	TOOL	3	9	[0, 0, 0]	n/a	FR1	1	R1168T
1067.86	24.497	1109757	REC_WORD	24.497	n/a	DEER	4	9	[0, 0, 0]	n/a	FR1	1	R1168T
1092.357	4.759	1134252	REC_END	n/a	n/a	n/a	-999	9	[0, 0, 0]	n/a	FR1	1	R1168T
1097.116	0.5	1139011	TRIAL	n/a	n/a	n/a	-999	10	[0, 0, 0]	n/a	FR1	1	R1168T
1097.616	10.428	1139511	COUNTDOWN_START	n/a	n/a	n/a	-999	10	[0, 0, 0]	n/a	FR1	1	R1168T
1108.044	0.007	1149939	COUNTDOWN_END	n/a	n/a	n/a	-999	10	[0, 0, 0]	n/a	FR1	1	R1168T
1108.051	1.618	1149946	ORIENT	n/a	n/a	n/a	-999	10	[0, 0, 0]	n/a	FR1	1	R1168T
1109.669	1.967	1151563	ORIENT_OFF	n/a	n/a	n/a	-999	10	[0, 0, 0]	n/a	FR1	1	R1168T
1111.636	1.616	1153530	WORD	n/a	wordpools/wordpool_EN.txt	BLUSH	1	10	[0, 0, 0]	n/a	FR1	1	R1168T
1113.252	0.834	1155146	WORD_OFF	n/a	n/a	BLUSH	1	10	[0, 0, 0]	n/a	FR1	1	R1168T
1114.086	1.617	1155980	WORD	n/a	wordpools/wordpool_EN.txt	AXE	2	10	[0, 0, 0]	n/a	FR1	1	R1168T
1115.703	0.784	1157597	WORD_OFF	n/a	n/a	AXE	2	10	[0, 0, 0]	n/a	FR1	1	R1168T
1116.487	1.616	1158381	WORD	n/a	wordpools/wordpool_EN.txt	PIT	3	10	[0, 0, 0]	n/a	FR1	1	R1168T
1118.103	0.783	1159997	WORD_OFF	n/a	n/a	PIT	3	10	[0, 0, 0]	n/a	FR1	1	R1168T
1118.886	1.618	1160780	WORD	n/a	wordpools/wordpool_EN.txt	SIGN	4	10	[0, 0, 0]	n/a	FR1	1	R1168T
1120.504	0.834	1162398	WORD_OFF	n/a	n/a	SIGN	4	10	[0, 0, 0]	n/a	FR1	1	R1168T
1121.338	1.616	1163232	WORD	n/a	wordpools/wordpool_EN.txt	MOUSE	5	10	[0, 0, 0]	n/a	FR1	1	R1168T
1122.954	0.834	1164848	WORD_OFF	n/a	n/a	MOUSE	5	10	[0, 0, 0]	n/a	FR1	1	R1168T
1123.788	1.617	1165682	WORD	n/a	wordpools/wordpool_EN.txt	CART	6	10	[0, 0, 0]	n/a	FR1	1	R1168T
1125.405	0.783	1167299	WORD_OFF	n/a	n/a	CART	6	10	[0, 0, 0]	n/a	FR1	1	R1168T
1126.188	1.618	1168081	WORD	n/a	wordpools/wordpool_EN.txt	FLAME	7	10	[0, 0, 0]	n/a	FR1	1	R1168T
1127.806	0.9	1169699	WORD_OFF	n/a	n/a	FLAME	7	10	[0, 0, 0]	n/a	FR1	1	R1168T
1128.706	1.617	1170599	WORD	n/a	wordpools/wordpool_EN.txt	VASE	8	10	[0, 0, 0]	n/a	FR1	1	R1168T
1130.323	0.933	1172216	WORD_OFF	n/a	n/a	VASE	8	10	[0, 0, 0]	n/a	FR1	1	R1168T
1131.256	1.616	1173149	WORD	n/a	wordpools/wordpool_EN.txt	FENCE	9	10	[0, 0, 0]	n/a	FR1	1	R1168T
1132.872	0.918	1174765	WORD_OFF	n/a	n/a	FENCE	9	10	[0, 0, 0]	n/a	FR1	1	R1168T
1133.79	1.617	1175683	WORD	n/a	wordpools/wordpool_EN.txt	ROOF	10	10	[0, 0, 0]	n/a	FR1	1	R1168T
1135.407	0.984	1177300	WORD_OFF	n/a	n/a	ROOF	10	10	[0, 0, 0]	n/a	FR1	1	R1168T
1136.391	1.616	1178284	WORD	n/a	wordpools/wordpool_EN.txt	MILK	11	10	[0, 0, 0]	n/a	FR1	1	R1168T
1138.007	0.95	1179900	WORD_OFF	n/a	n/a	MILK	11	10	[0, 0, 0]	n/a	FR1	1	R1168T
1138.957	1.618	1180850	WORD	n/a	wordpools/wordpool_EN.txt	SHOE	12	10	[0, 0, 0]	n/a	FR1	1	R1168T
1140.575	0.0	1182468	WORD_OFF	n/a	n/a	SHOE	12	10	[0, 0, 0]	n/a	FR1	1	R1168T
1140.575	0.0	1182468	DISTRACT_START	n/a	n/a	n/a	-999	10	[0, 0, 0]	n/a	FR1	1	R1168T
1140.575	0.016	1182468	START	n/a	n/a	n/a	-999	10	[-999, -999, -999]	n/a	FR1	1	R1168T
1140.591	7.634	1182484	PROB	7.634	n/a	n/a	-999	10	[2, 1, 3]	6	FR1	1	R1168T
1148.225	5.552	1190117	PROB	5.552	n/a	n/a	-999	10	[4, 1, 5]	10	FR1	1	R1168T
1153.777	5.433	1195669	PROB	5.433	n/a	n/a	-999	10	[5, 6, 4]	15	FR1	1	R1168T
1159.21	2.903	1201102	PROB	2.903	n/a	n/a	-999	10	[2, 4, 2]	8	FR1	1	R1168T
1162.113	0.015	1204004	STOP	n/a	n/a	n/a	-999	10	[-999, -999, -999]	n/a	FR1	1	R1168T
1162.128	0.651	1204019	DISTRACT_END	n/a	n/a	n/a	-999	10	[0, 0, 0]	n/a	FR1	1	R1168T
1162.779	0.517	1204670	RETRIEVAL_ORIENT	n/a	n/a	n/a	-999	10	[0, 0, 0]	n/a	FR1	1	R1168T
1163.296	1.15	1205187	REC_START	n/a	n/a	n/a	-999	10	[0, 0, 0]	n/a	FR1	1	R1168T
1164.446	0.956	1206337	REC_WORD	0.956	n/a	BLUSH	1	10	[0, 0, 0]	n/a	FR1	1	R1168T
1165.402	0.995	1207293	REC_WORD	0.995	n/a	AXE	2	10	[0, 0, 0]	n/a	FR1	1	R1168T
1166.397	1.11	1208288	REC_WORD	1.11	n/a	SIGN	4	10	[0, 0, 0]	n/a	FR1	1	R1168T
1167.507	1.314	1209398	REC_WORD	1.314	n/a	MOUSE	5	10	[0, 0, 0]	n/a	FR1	1	R1168T
1168.821	1.782	1210712	REC_WORD	1.782	n/a	FLAME	7	10	[0, 0, 0]	n/a	FR1	1	R1168T
1170.603	1.638	1212494	REC_WORD	1.638	n/a	ROOF	10	10	[0, 0, 0]	n/a	FR1	1	R1168T
1172.241	21.066	1214132	REC_WORD	21.066	n/a	FENCE	9	10	[0, 0, 0]	n/a	FR1	1	R1168T
1193.307	5.894	1235197	REC_END	n/a	n/a	n/a	-999	10	[0, 0, 0]	n/a	FR1	1	R1168T
1199.201	0.5	1241090	TRIAL	n/a	n/a	n/a	-999	11	[0, 0, 0]	n/a	FR1	1	R1168T
1199.701	10.428	1241590	COUNTDOWN_START	n/a	n/a	n/a	-999	11	[0, 0, 0]	n/a	FR1	1	R1168T
1210.129	0.007	1252018	COUNTDOWN_END	n/a	n/a	n/a	-999	11	[0, 0, 0]	n/a	FR1	1	R1168T
1210.136	1.618	1252025	ORIENT	n/a	n/a	n/a	-999	11	[0, 0, 0]	n/a	FR1	1	R1168T
1211.754	1.851	1253642	ORIENT_OFF	n/a	n/a	n/a	-999	11	[0, 0, 0]	n/a	FR1	1	R1168T
1213.605	1.616	1255493	WORD	n/a	wordpools/wordpool_EN.txt	SPARK	1	11	[0, 0, 0]	n/a	FR1	1	R1168T
1215.221	0.9	1257109	WORD_OFF	n/a	n/a	SPARK	1	11	[0, 0, 0]	n/a	FR1	1	R1168T
1216.121	1.618	1258009	WORD	n/a	wordpools/wordpool_EN.txt	HAWK	2	11	[0, 0, 0]	n/a	FR1	1	R1168T
1217.739	0.866	1259627	WORD_OFF	n/a	n/a	HAWK	2	11	[0, 0, 0]	n/a	FR1	1	R1168T
1218.605	1.617	1260493	WORD	n/a	wordpools/wordpool_EN.txt	GATE	3	11	[0, 0, 0]	n/a	FR1	1	R1168T
1220.222	0.816	1262110	WORD_OFF	n/a	n/a	GATE	3	11	[0, 0, 0]	n/a	FR1	1	R1168T
1221.038	1.602	1262926	WORD	n/a	wordpools/wordpool_EN.txt	BRICK	4	11	[0, 0, 0]	n/a	FR1	1	R1168T
1222.64	0.783	1264528	WORD_OFF	n/a	n/a	BRICK	4	11	[0, 0, 0]	n/a	FR1	1	R1168T
1223.423	1.616	1265311	WORD	n/a	wordpools/wordpool_EN.txt	HOOF	5	11	[0, 0, 0]	n/a	FR1	1	R1168T
1225.039	0.768	1266927	WORD_OFF	n/a	n/a	HOOF	5	11	[0, 0, 0]	n/a	FR1	1	R1168T
1225.807	1.617	1267695	WORD	n/a	wordpools/wordpool_EN.txt	TEETH	6	11	[0, 0, 0]	n/a	FR1	1	R1168T
1227.424	0.782	1269312	WORD_OFF	n/a	n/a	TEETH	6	11	[0, 0, 0]	n/a	FR1	1	R1168T
1228.206	1.618	1270094	WORD	n/a	wordpools/wordpool_EN.txt	ANT	7	11	[0, 0, 0]	n/a	FR1	1	R1168T
1229.824	0.984	1271711	WORD_OFF	n/a	n/a	ANT	7	11	[0, 0, 0]	n/a	FR1	1	R1168T
1230.808	1.617	1272695	WORD	n/a	wordpools/wordpool_EN.txt	CLIFF	8	11	[0, 0, 0]	n/a	FR1	1	R1168T
1232.425	0.816	1274312	WORD_OFF	n/a	n/a	CLIFF	8	11	[0, 0, 0]	n/a	FR1	1	R1168T
1233.241	1.617	1275128	WORD	n/a	wordpools/wordpool_EN.txt	HOLE	9	11	[0, 0, 0]	n/a	FR1	1	R1168T
1234.858	0.867	1276745	WORD_OFF	n/a	n/a	HOLE	9	11	[0, 0, 0]	n/a	FR1	1	R1168T
1235.725	1.617	1277612	WORD	n/a	wordpools/wordpool_EN.txt	SOUP	10	11	[0, 0, 0]	n/a	FR1	1	R1168T
1237.342	0.951	1279229	WORD_OFF	n/a	n/a	SOUP	10	11	[0, 0, 0]	n/a	FR1	1	R1168T
1238.293	1.615	1280180	WORD	n/a	wordpools/wordpool_EN.txt	MOON	11	11	[0, 0, 0]	n/a	FR1	1	R1168T
1239.908	0.935	1281795	WORD_OFF	n/a	n/a	MOON	11	11	[0, 0, 0]	n/a	FR1	1	R1168T
1240.843	1.617	1282730	WORD	n/a	wordpools/wordpool_EN.txt	RAT	12	11	[0, 0, 0]	n/a	FR1	1	R1168T
1242.46	0.0	1284347	WORD_OFF	n/a	n/a	RAT	12	11	[0, 0, 0]	n/a	FR1	1	R1168T
1242.46	0.001	1284347	DISTRACT_START	n/a	n/a	n/a	-999	11	[0, 0, 0]	n/a	FR1	1	R1168T
1242.461	0.016	1284348	START	n/a	n/a	n/a	-999	11	[-999, -999, -999]	n/a	FR1	1	R1168T
1242.477	5.034	1284364	PROB	5.034	n/a	n/a	-999	11	[3, 2, 2]	7	FR1	1	R1168T
1247.511	4.583	1289397	PROB	4.583	n/a	n/a	-999	11	[7, 4, 3]	14	FR1	1	R1168T
1252.094	5.868	1293980	PROB	5.868	n/a	n/a	-999	11	[9, 1, 6]	16	FR1	1	R1168T
1257.962	4.783	1299848	PROB	4.783	n/a	n/a	-999	11	[1, 6, 6]	13	FR1	1	R1168T
1262.745	0.019	1304631	STOP	n/a	n/a	n/a	-999	11	[-999, -999, -999]	n/a	FR1	1	R1168T
1262.764	0.6	1304650	DISTRACT_END	n/a	n/a	n/a	-999	11	[0, 0, 0]	n/a	FR1	1	R1168T
1263.364	0.516	1305249	RETRIEVAL_ORIENT	n/a	n/a	n/a	-999	11	[0, 0, 0]	n/a	FR1	1	R1168T
1263.88	2.337	1305765	REC_START	n/a	n/a	n/a	-999	11	[0, 0, 0]	n/a	FR1	1	R1168T
1266.217	1.95	1308102	REC_WORD	1.95	n/a	HOOF	5	11	[0, 0, 0]	n/a	FR1	1	R1168T
1268.167	16.975	1310052	REC_WORD	16.975	n/a	CLIFF	8	11	[0, 0, 0]	n/a	FR1	1	R1168T
1285.142	8.749	1327026	REC_WORD	8.749	n/a	HORSE	-999	11	[0, 0, 0]	n/a	FR1	1	R1168T
1293.891	7.38	1335775	REC_END	n/a	n/a	n/a	-999	11	[0, 0, 0]	n/a	FR1	1	R1168T
1301.271	0.5	1343154	TRIAL	n/a	n/a	n/a	-999	12	[0, 0, 0]	n/a	FR1	1	R1168T
1301.771	10.428	1343654	COUNTDOWN_START	n/a	n/a	n/a	-999	12	[0, 0, 0]	n/a	FR1	1	R1168T
1312.199	0.006	1354082	COUNTDOWN_END	n/a	n/a	n/a	-999	12	[0, 0, 0]	n/a	FR1	1	R1168T
1312.205	1.601	1354088	ORIENT	n/a	n/a	n/a	-999	12	[0, 0, 0]	n/a	FR1	1	R1168T
1313.806	1.951	1355689	ORIENT_OFF	n/a	n/a	n/a	-999	12	[0, 0, 0]	n/a	FR1	1	R1168T
1315.757	1.617	1357639	WORD	n/a	wordpools/wordpool_EN.txt	PALM	1	12	[0, 0, 0]	n/a	FR1	1	R1168T
1317.374	0.832	1359256	WORD_OFF	n/a	n/a	PALM	1	12	[0, 0, 0]	n/a	FR1	1	R1168T
1318.206	1.601	1360088	WORD	n/a	wordpools/wordpool_EN.txt	CHAIR	2	12	[0, 0, 0]	n/a	FR1	1	R1168T
1319.807	0.834	1361689	WORD_OFF	n/a	n/a	CHAIR	2	12	[0, 0, 0]	n/a	FR1	1	R1168T
1320.641	1.617	1362523	WORD	n/a	wordpools/wordpool_EN.txt	CUP	3	12	[0, 0, 0]	n/a	FR1	1	R1168T
1322.258	0.899	1364140	WORD_OFF	n/a	n/a	CUP	3	12	[0, 0, 0]	n/a	FR1	1	R1168T
1323.157	1.618	1365039	WORD	n/a	wordpools/wordpool_EN.txt	SMILE	4	12	[0, 0, 0]	n/a	FR1	1	R1168T
1324.775	0.783	1366657	WORD_OFF	n/a	n/a	SMILE	4	12	[0, 0, 0]	n/a	FR1	1	R1168T
1325.558	1.616	1367440	WORD	n/a	wordpools/wordpool_EN.txt	BAND	5	12	[0, 0, 0]	n/a	FR1	1	R1168T
1327.174	0.784	1369056	WORD_OFF	n/a	n/a	BAND	5	12	[0, 0, 0]	n/a	FR1	1	R1168T
1327.958	1.618	1369840	WORD	n/a	wordpools/wordpool_EN.txt	TRAY	6	12	[0, 0, 0]	n/a	FR1	1	R1168T
1329.576	0.833	1371458	WORD_OFF	n/a	n/a	TRAY	6	12	[0, 0, 0]	n/a	FR1	1	R1168T
1330.409	1.616	1372291	WORD	n/a	wordpools/wordpool_EN.txt	RIB	7	12	[0, 0, 0]	n/a	FR1	1	R1168T
1332.025	0.801	1373906	WORD_OFF	n/a	n/a	RIB	7	12	[0, 0, 0]	n/a	FR1	1	R1168T
1332.826	1.617	1374707	WORD	n/a	wordpools/wordpool_EN.txt	BRUSH	8	12	[0, 0, 0]	n/a	FR1	1	R1168T
1334.443	0.917	1376324	WORD_OFF	n/a	n/a	BRUSH	8	12	[0, 0, 0]	n/a	FR1	1	R1168T
1335.36	1.616	1377241	WORD	n/a	wordpools/wordpool_EN.txt	PIN	9	12	[0, 0, 0]	n/a	FR1	1	R1168T
1336.976	0.984	1378857	WORD_OFF	n/a	n/a	PIN	9	12	[0, 0, 0]	n/a	FR1	1	R1168T
1337.96	1.618	1379841	WORD	n/a	wordpools/wordpool_EN.txt	CAGE	10	12	[0, 0, 0]	n/a	FR1	1	R1168T
1339.578	0.966	1381459	WORD_OFF	n/a	n/a	CAGE	10	12	[0, 0, 0]	n/a	FR1	1	R1168T
1340.544	1.616	1382425	WORD	n/a	wordpools/wordpool_EN.txt	SINK	11	12	[0, 0, 0]	n/a	FR1	1	R1168T
1342.16	0.951	1384041	WORD_OFF	n/a	n/a	SINK	11	12	[0, 0, 0]	n/a	FR1	1	R1168T
1343.111	1.618	1384992	WORD	n/a	wordpools/wordpool_EN.txt	DUCK	12	12	[0, 0, 0]	n/a	FR1	1	R1168T
1344.729	0.0	1386610	WORD_OFF	n/a	n/a	DUCK	12	12	[0, 0, 0]	n/a	FR1	1	R1168T
1344.729	0.0	1386610	DISTRACT_START	n/a	n/a	n/a	-999	12	[0, 0, 0]	n/a	FR1	1	R1168T
1344.729	0.016	1386610	START	n/a	n/a	n/a	-999	12	[-999, -999, -999]	n/a	FR1	1	R1168T
1344.745	6.068	1386626	PROB	6.068	n/a	n/a	-999	12	[2, 8, 3]	13	FR1	1	R1168T
1350.813	5.35	1392693	PROB	5.35	n/a	n/a	-999	12	[8, 6, 6]	20	FR1	1	R1168T
1356.163	7.336	1398043	PROB	7.336	n/a	n/a	-999	12	[8, 6, 9]	23	FR1	1	R1168T
1363.499	7.024	1405379	PROB	7.024	n/a	n/a	-999	12	[8, 8, 5]	23	FR1	1	R1168T
1370.523	0.01	1412402	STOP	n/a	n/a	n/a	-999	12	[-999, -999, -999]	n/a	FR1	1	R1168T
1370.533	0.699	1412412	DISTRACT_END	n/a	n/a	n/a	-999	12	[0, 0, 0]	n/a	FR1	1	R1168T
1371.232	0.519	1413111	RETRIEVAL_ORIENT	n/a	n/a	n/a	-999	12	[0, 0, 0]	n/a	FR1	1	R1168T
1371.751	2.303	1413630	REC_START	n/a	n/a	n/a	-999	12	[0, 0, 0]	n/a	FR1	1	R1168T
1374.054	1.344	1415933	REC_WORD	1.344	n/a	PALM	1	12	[0, 0, 0]	n/a	FR1	1	R1168T
1375.398	26.366	1417277	REC_WORD	26.366	n/a	TRAY	6	12	[0, 0, 0]	n/a	FR1	1	R1168T
1401.764	7.209	1443641	REC_END	n/a	n/a	n/a	-999	12	[0, 0, 0]	n/a	FR1	1	R1168T
1408.973	0.5	1450850	TRIAL	n/a	n/a	n/a	-999	13	[0, 0, 0]	n/a	FR1	1	R1168T
1409.473	10.428	1451350	COUNTDOWN_START	n/a	n/a	n/a	-999	13	[0, 0, 0]	n/a	FR1	1	R1168T
1419.901	0.007	1461777	COUNTDOWN_END	n/a	n/a	n/a	-999	13	[0, 0, 0]	n/a	FR1	1	R1168T
1419.908	1.601	1461784	ORIENT	n/a	n/a	n/a	-999	13	[0, 0, 0]	n/a	FR1	1	R1168T
1421.509	2.301	1463385	ORIENT_OFF	n/a	n/a	n/a	-999	13	[0, 0, 0]	n/a	FR1	1	R1168T
1423.81	1.617	1465686	WORD	n/a	wordpools/wordpool_EN.txt	PEAR	1	13	[0, 0, 0]	n/a	FR1	1	R1168T
1425.427	0.9	1467303	WORD_OFF	n/a	n/a	PEAR	1	13	[0, 0, 0]	n/a	FR1	1	R1168T
1426.327	1.616	1468203	WORD	n/a	wordpools/wordpool_EN.txt	GEESE	2	13	[0, 0, 0]	n/a	FR1	1	R1168T
1427.943	0.95	1469819	WORD_OFF	n/a	n/a	GEESE	2	13	[0, 0, 0]	n/a	FR1	1	R1168T
1428.893	1.618	1470769	WORD	n/a	wordpools/wordpool_EN.txt	NEST	3	13	[0, 0, 0]	n/a	FR1	1	R1168T
1430.511	0.833	1472387	WORD_OFF	n/a	n/a	NEST	3	13	[0, 0, 0]	n/a	FR1	1	R1168T
1431.344	1.616	1473220	WORD	n/a	wordpools/wordpool_EN.txt	SUN	4	13	[0, 0, 0]	n/a	FR1	1	R1168T
1432.96	0.868	1474836	WORD_OFF	n/a	n/a	SUN	4	13	[0, 0, 0]	n/a	FR1	1	R1168T
1433.828	1.617	1475704	WORD	n/a	wordpools/wordpool_EN.txt	BLOOM	5	13	[0, 0, 0]	n/a	FR1	1	R1168T
1435.445	0.95	1477320	WORD_OFF	n/a	n/a	BLOOM	5	13	[0, 0, 0]	n/a	FR1	1	R1168T
1436.395	1.616	1478270	WORD	n/a	wordpools/wordpool_EN.txt	SHEEP	6	13	[0, 0, 0]	n/a	FR1	1	R1168T
1438.011	0.9	1479886	WORD_OFF	n/a	n/a	SHEEP	6	13	[0, 0, 0]	n/a	FR1	1	R1168T
1438.911	1.618	1480786	WORD	n/a	wordpools/wordpool_EN.txt	LAWN	7	13	[0, 0, 0]	n/a	FR1	1	R1168T
1440.529	0.967	1482404	WORD_OFF	n/a	n/a	LAWN	7	13	[0, 0, 0]	n/a	FR1	1	R1168T
1441.496	1.616	1483371	WORD	n/a	wordpools/wordpool_EN.txt	WHALE	8	13	[0, 0, 0]	n/a	FR1	1	R1168T
1443.112	0.867	1484987	WORD_OFF	n/a	n/a	WHALE	8	13	[0, 0, 0]	n/a	FR1	1	R1168T
1443.979	1.618	1485854	WORD	n/a	wordpools/wordpool_EN.txt	SNAKE	9	13	[0, 0, 0]	n/a	FR1	1	R1168T
1445.597	0.883	1487472	WORD_OFF	n/a	n/a	SNAKE	9	13	[0, 0, 0]	n/a	FR1	1	R1168T
1446.48	1.616	1488355	WORD	n/a	wordpools/wordpool_EN.txt	BALL	10	13	[0, 0, 0]	n/a	FR1	1	R1168T
1448.096	0.951	1489971	WORD_OFF	n/a	n/a	BALL	10	13	[0, 0, 0]	n/a	FR1	1	R1168T
1449.047	1.618	1490922	WORD	n/a	wordpools/wordpool_EN.txt	WING	11	13	[0, 0, 0]	n/a	FR1	1	R1168T
1450.665	0.833	1492540	WORD_OFF	n/a	n/a	WING	11	13	[0, 0, 0]	n/a	FR1	1	R1168T
1451.498	1.616	1493373	WORD	n/a	wordpools/wordpool_EN.txt	FRUIT	12	13	[0, 0, 0]	n/a	FR1	1	R1168T
1453.114	0.0	1494988	WORD_OFF	n/a	n/a	FRUIT	12	13	[0, 0, 0]	n/a	FR1	1	R1168T
1453.114	0.001	1494988	DISTRACT_START	n/a	n/a	n/a	-999	13	[0, 0, 0]	n/a	FR1	1	R1168T
1453.115	0.016	1494989	START	n/a	n/a	n/a	-999	13	[-999, -999, -999]	n/a	FR1	1	R1168T
1453.131	7.485	1495005	PROB	7.485	n/a	n/a	-999	13	[6, 4, 6]	16	FR1	1	R1168T
1460.616	2.466	1502490	PROB	2.466	n/a	n/a	-999	13	[2, 2, 2]	6	FR1	1	R1168T
1463.082	5.835	1504956	PROB	5.835	n/a	n/a	-999	13	[4, 6, 7]	17	FR1	1	R1168T
1468.917	6.597	1510791	PROB	6.597	n/a	n/a	-999	13	[4, 6, 2]	12	FR1	1	R1168T
1475.514	0.022	1517387	STOP	n/a	n/a	n/a	-999	13	[-999, -999, -999]	n/a	FR1	1	R1168T
1475.536	0.615	1517409	DISTRACT_END	n/a	n/a	n/a	-999	13	[0, 0, 0]	n/a	FR1	1	R1168T
1476.151	0.519	1518024	RETRIEVAL_ORIENT	n/a	n/a	n/a	-999	13	[0, 0, 0]	n/a	FR1	1	R1168T
1476.67	1.384	1518543	REC_START	n/a	n/a	n/a	-999	13	[0, 0, 0]	n/a	FR1	1	R1168T
1478.054	1.141	1519927	REC_WORD	1.141	n/a	PEAR	1	13	[0, 0, 0]	n/a	FR1	1	R1168T
1479.195	1.71	1521068	REC_WORD	1.71	n/a	FRUIT	12	13	[0, 0, 0]	n/a	FR1	1	R1168T
1480.905	2.016	1522778	REC_WORD	2.016	n/a	GEESE	2	13	[0, 0, 0]	n/a	FR1	1	R1168T
1482.921	2.14	1524794	REC_WORD	2.14	n/a	BLOOM	5	13	[0, 0, 0]	n/a	FR1	1	R1168T
1485.061	11.739	1526934	REC_WORD	11.739	n/a	SUN	4	13	[0, 0, 0]	n/a	FR1	1	R1168T
1496.8	9.882	1538672	REC_WORD	9.882	n/a	NEST	3	13	[0, 0, 0]	n/a	FR1	1	R1168T
1506.682	6.326	1548553	REC_END	n/a	n/a	n/a	-999	13	[0, 0, 0]	n/a	FR1	1	R1168T
1513.008	0.5	1554879	TRIAL	n/a	n/a	n/a	-999	14	[0, 0, 0]	n/a	FR1	1	R1168T
1513.508	10.428	1555379	COUNTDOWN_START	n/a	n/a	n/a	-999	14	[0, 0, 0]	n/a	FR1	1	R1168T
1523.936	0.008	1565806	COUNTDOWN_END	n/a	n/a	n/a	-999	14	[0, 0, 0]	n/a	FR1	1	R1168T
1523.944	1.617	1565814	ORIENT	n/a	n/a	n/a	-999	14	[0, 0, 0]	n/a	FR1	1	R1168T
1525.561	1.934	1567431	ORIENT_OFF	n/a	n/a	n/a	-999	14	[0, 0, 0]	n/a	FR1	1	R1168T
1527.495	1.616	1569365	WORD	n/a	wordpools/wordpool_EN.txt	OAK	1	14	[0, 0, 0]	n/a	FR1	1	R1168T
1529.111	0.884	1570981	WORD_OFF	n/a	n/a	OAK	1	14	[0, 0, 0]	n/a	FR1	1	R1168T
1529.995	1.618	1571865	WORD	n/a	wordpools/wordpool_EN.txt	BRANCH	2	14	[0, 0, 0]	n/a	FR1	1	R1168T
1531.613	0.883	1573483	WORD_OFF	n/a	n/a	BRANCH	2	14	[0, 0, 0]	n/a	FR1	1	R1168T
1532.496	1.616	1574366	WORD	n/a	wordpools/wordpool_EN.txt	SOAP	3	14	[0, 0, 0]	n/a	FR1	1	R1168T
1534.112	0.85	1575982	WORD_OFF	n/a	n/a	SOAP	3	14	[0, 0, 0]	n/a	FR1	1	R1168T
1534.962	1.618	1576832	WORD	n/a	wordpools/wordpool_EN.txt	GOLD	4	14	[0, 0, 0]	n/a	FR1	1	R1168T
1536.58	0.834	1578450	WORD_OFF	n/a	n/a	GOLD	4	14	[0, 0, 0]	n/a	FR1	1	R1168T
1537.414	1.616	1579284	WORD	n/a	wordpools/wordpool_EN.txt	JEEP	5	14	[0, 0, 0]	n/a	FR1	1	R1168T
1539.03	0.966	1580899	WORD_OFF	n/a	n/a	JEEP	5	14	[0, 0, 0]	n/a	FR1	1	R1168T
1539.996	1.601	1581865	WORD	n/a	wordpools/wordpool_EN.txt	RAKE	6	14	[0, 0, 0]	n/a	FR1	1	R1168T
1541.597	0.951	1583466	WORD_OFF	n/a	n/a	RAKE	6	14	[0, 0, 0]	n/a	FR1	1	R1168T
1542.548	1.616	1584417	WORD	n/a	wordpools/wordpool_EN.txt	SLIME	7	14	[0, 0, 0]	n/a	FR1	1	R1168T
1544.164	0.983	1586033	WORD_OFF	n/a	n/a	SLIME	7	14	[0, 0, 0]	n/a	FR1	1	R1168T
1545.147	1.618	1587016	WORD	n/a	wordpools/wordpool_EN.txt	STEAM	8	14	[0, 0, 0]	n/a	FR1	1	R1168T
1546.765	0.767	1588634	WORD_OFF	n/a	n/a	STEAM	8	14	[0, 0, 0]	n/a	FR1	1	R1168T
1547.532	1.616	1589401	WORD	n/a	wordpools/wordpool_EN.txt	BAG	9	14	[0, 0, 0]	n/a	FR1	1	R1168T
1549.148	0.85	1591017	WORD_OFF	n/a	n/a	BAG	9	14	[0, 0, 0]	n/a	FR1	1	R1168T
1549.998	1.618	1591867	WORD	n/a	wordpools/wordpool_EN.txt	DRUM	10	14	[0, 0, 0]	n/a	FR1	1	R1168T
1551.616	1.001	1593485	WORD_OFF	n/a	n/a	DRUM	10	14	[0, 0, 0]	n/a	FR1	1	R1168T
1552.617	1.615	1594486	WORD	n/a	wordpools/wordpool_EN.txt	SHEET	11	14	[0, 0, 0]	n/a	FR1	1	R1168T
1554.232	0.834	1596101	WORD_OFF	n/a	n/a	SHEET	11	14	[0, 0, 0]	n/a	FR1	1	R1168T
1555.066	1.618	1596935	WORD	n/a	wordpools/wordpool_EN.txt	SHIRT	12	14	[0, 0, 0]	n/a	FR1	1	R1168T
1556.684	0.0	1598552	WORD_OFF	n/a	n/a	SHIRT	12	14	[0, 0, 0]	n/a	FR1	1	R1168T
1556.684	0.001	1598552	DISTRACT_START	n/a	n/a	n/a	-999	14	[0, 0, 0]	n/a	FR1	1	R1168T
1556.685	0.015	1598553	START	n/a	n/a	n/a	-999	14	[-999, -999, -999]	n/a	FR1	1	R1168T
1556.7	6.234	1598568	PROB	6.234	n/a	n/a	-999	14	[9, 5, 9]	23	FR1	1	R1168T
1562.934	26.355	1604802	PROB	26.355	n/a	n/a	-999	14	[8, 9, 8]	25	FR1	1	R1168T
1589.289	0.017	1631156	STOP	n/a	n/a	n/a	-999	14	[-999, -999, -999]	n/a	FR1	1	R1168T
1589.306	0.633	1631173	DISTRACT_END	n/a	n/a	n/a	-999	14	[0, 0, 0]	n/a	FR1	1	R1168T
1589.939	0.518	1631805	RETRIEVAL_ORIENT	n/a	n/a	n/a	-999	14	[0, 0, 0]	n/a	FR1	1	R1168T
1590.457	7.299	1632323	REC_START	n/a	n/a	n/a	-999	14	[0, 0, 0]	n/a	FR1	1	R1168T
1597.756	1.2	1639622	REC_WORD	1.2	n/a	JEEP	5	14	[0, 0, 0]	n/a	FR1	1	R1168T
1598.956	3.693	1640822	REC_WORD	3.693	n/a	GOLD	4	14	[0, 0, 0]	n/a	FR1	1	R1168T
1602.649	4.853	1644515	REC_WORD	4.853	n/a	SLIME	7	14	[0, 0, 0]	n/a	FR1	1	R1168T
1607.502	12.968	1649367	REC_WORD	12.968	n/a	WATCH	-999	14	[0, 0, 0]	n/a	FR1	1	R1168T
1620.47	4.692	1662335	REC_END	n/a	n/a	n/a	-999	14	[0, 0, 0]	n/a	FR1	1	R1168T
1625.162	0.5	1667026	TRIAL	n/a	n/a	n/a	-999	15	[0, 0, 0]	n/a	FR1	1	R1168T
1625.662	10.428	1667526	COUNTDOWN_START	n/a	n/a	n/a	-999	15	[0, 0, 0]	n/a	FR1	1	R1168T
1636.09	0.007	1677954	COUNTDOWN_END	n/a	n/a	n/a	-999	15	[0, 0, 0]	n/a	FR1	1	R1168T
1636.097	1.618	1677961	ORIENT	n/a	n/a	n/a	-999	15	[0, 0, 0]	n/a	FR1	1	R1168T
1637.715	2.383	1679579	ORIENT_OFF	n/a	n/a	n/a	-999	15	[0, 0, 0]	n/a	FR1	1	R1168T
1640.098	1.618	1681962	WORD	n/a	wordpools/wordpool_EN.txt	OAR	1	15	[0, 0, 0]	n/a	FR1	1	R1168T
1641.716	0.85	1683579	WORD_OFF	n/a	n/a	OAR	1	15	[0, 0, 0]	n/a	FR1	1	R1168T
1642.566	1.616	1684429	WORD	n/a	wordpools/wordpool_EN.txt	STEAK	2	15	[0, 0, 0]	n/a	FR1	1	R1168T
1644.182	0.934	1686045	WORD_OFF	n/a	n/a	STEAK	2	15	[0, 0, 0]	n/a	FR1	1	R1168T
1645.116	1.618	1686979	WORD	n/a	wordpools/wordpool_EN.txt	TOAST	3	15	[0, 0, 0]	n/a	FR1	1	R1168T
1646.734	0.8	1688597	WORD_OFF	n/a	n/a	TOAST	3	15	[0, 0, 0]	n/a	FR1	1	R1168T
1647.534	1.616	1689397	WORD	n/a	wordpools/wordpool_EN.txt	CROWN	4	15	[0, 0, 0]	n/a	FR1	1	R1168T
1649.15	0.833	1691013	WORD_OFF	n/a	n/a	CROWN	4	15	[0, 0, 0]	n/a	FR1	1	R1168T
1649.983	1.618	1691846	WORD	n/a	wordpools/wordpool_EN.txt	LEAF	5	15	[0, 0, 0]	n/a	FR1	1	R1168T
1651.601	0.9	1693464	WORD_OFF	n/a	n/a	LEAF	5	15	[0, 0, 0]	n/a	FR1	1	R1168T
1652.501	1.616	1694364	WORD	n/a	wordpools/wordpool_EN.txt	PASTE	6	15	[0, 0, 0]	n/a	FR1	1	R1168T
1654.117	0.9	1695980	WORD_OFF	n/a	n/a	PASTE	6	15	[0, 0, 0]	n/a	FR1	1	R1168T
1655.017	1.618	1696880	WORD	n/a	wordpools/wordpool_EN.txt	SEA	7	15	[0, 0, 0]	n/a	FR1	1	R1168T
1656.635	0.834	1698498	WORD_OFF	n/a	n/a	SEA	7	15	[0, 0, 0]	n/a	FR1	1	R1168T
1657.469	1.616	1699332	WORD	n/a	wordpools/wordpool_EN.txt	CAT	8	15	[0, 0, 0]	n/a	FR1	1	R1168T
1659.085	0.883	1700947	WORD_OFF	n/a	n/a	CAT	8	15	[0, 0, 0]	n/a	FR1	1	R1168T
1659.968	1.601	1701830	WORD	n/a	wordpools/wordpool_EN.txt	TRAIN	9	15	[0, 0, 0]	n/a	FR1	1	R1168T
1661.569	0.867	1703431	WORD_OFF	n/a	n/a	TRAIN	9	15	[0, 0, 0]	n/a	FR1	1	R1168T
1662.436	1.616	1704298	WORD	n/a	wordpools/wordpool_EN.txt	DOCK	10	15	[0, 0, 0]	n/a	FR1	1	R1168T
1664.052	0.984	1705914	WORD_OFF	n/a	n/a	DOCK	10	15	[0, 0, 0]	n/a	FR1	1	R1168T
1665.036	1.618	1706898	WORD	n/a	wordpools/wordpool_EN.txt	TANK	11	15	[0, 0, 0]	n/a	FR1	1	R1168T
1666.654	0.933	1708516	WORD_OFF	n/a	n/a	TANK	11	15	[0, 0, 0]	n/a	FR1	1	R1168T
1667.587	1.616	1709449	WORD	n/a	wordpools/wordpool_EN.txt	DOOR	12	15	[0, 0, 0]	n/a	FR1	1	R1168T
1669.203	0.0	1711065	WORD_OFF	n/a	n/a	DOOR	12	15	[0, 0, 0]	n/a	FR1	1	R1168T
1669.203	0.001	1711065	DISTRACT_START	n/a	n/a	n/a	-999	15	[0, 0, 0]	n/a	FR1	1	R1168T
1669.204	0.016	1711066	START	n/a	n/a	n/a	-999	15	[-999, -999, -999]	n/a	FR1	1	R1168T
1669.22	6.119	1711082	PROB	6.119	n/a	n/a	-999	15	[4, 5, 5]	14	FR1	1	R1168T
1675.339	3.184	1717201	PROB	3.184	n/a	n/a	-999	15	[9, 1, 4]	14	FR1	1	R1168T
1678.523	6.984	1720384	PROB	6.984	n/a	n/a	-999	15	[1, 5, 8]	14	FR1	1	R1168T
1685.507	5.679	1727368	PROB	5.679	n/a	n/a	-999	15	[4, 1, 9]	14	FR1	1	R1168T
1691.186	0.005	1733047	STOP	n/a	n/a	n/a	-999	15	[-999, -999, -999]	n/a	FR1	1	R1168T
1691.191	0.617	1733052	DISTRACT_END	n/a	n/a	n/a	-999	15	[0, 0, 0]	n/a	FR1	1	R1168T
1691.808	0.518	1733669	RETRIEVAL_ORIENT	n/a	n/a	n/a	-999	15	[0, 0, 0]	n/a	FR1	1	R1168T
1692.326	1.827	1734187	REC_START	n/a	n/a	n/a	-999	15	[0, 0, 0]	n/a	FR1	1	R1168T
1694.153	1.107	1736013	REC_WORD	1.107	n/a	OAR	1	15	[0, 0, 0]	n/a	FR1	1	R1168T
1695.26	1.346	1737120	REC_WORD	1.346	n/a	LEAF	5	15	[0, 0, 0]	n/a	FR1	1	R1168T
1696.606	25.733	1738466	REC_WORD	25.733	n/a	PASTE	6	15	[0, 0, 0]	n/a	FR1	1	R1168T
1722.339	4.226	1764198	REC_END	n/a	n/a	n/a	-999	15	[0, 0, 0]	n/a	FR1	1	R1168T
1726.565	0.5	1768424	TRIAL	n/a	n/a	n/a	-999	16	[0, 0, 0]	n/a	FR1	1	R1168T
1727.065	10.428	1768924	COUNTDOWN_START	n/a	n/a	n/a	-999	16	[0, 0, 0]	n/a	FR1	1	R1168T
1737.493	0.007	1779351	COUNTDOWN_END	n/a	n/a	n/a	-999	16	[0, 0, 0]	n/a	FR1	1	R1168T
1737.5	1.616	1779358	ORIENT	n/a	n/a	n/a	-999	16	[0, 0, 0]	n/a	FR1	1	R1168T
1739.116	2.301	1780974	ORIENT_OFF	n/a	n/a	n/a	-999	16	[0, 0, 0]	n/a	FR1	1	R1168T
1741.417	1.616	1783275	WORD	n/a	wordpools/wordpool_EN.txt	BOOK	1	16	[0, 0, 0]	n/a	FR1	1	R1168T
1743.033	0.785	1784891	WORD_OFF	n/a	n/a	BOOK	1	16	[0, 0, 0]	n/a	FR1	1	R1168T
1743.818	1.617	1785676	WORD	n/a	wordpools/wordpool_EN.txt	BRIDGE	2	16	[0, 0, 0]	n/a	FR1	1	R1168T
1745.435	0.9	1787292	WORD_OFF	n/a	n/a	BRIDGE	2	16	[0, 0, 0]	n/a	FR1	1	R1168T
1746.335	1.616	1788192	WORD	n/a	wordpools/wordpool_EN.txt	SKI	3	16	[0, 0, 0]	n/a	FR1	1	R1168T
1747.951	0.868	1789808	WORD_OFF	n/a	n/a	SKI	3	16	[0, 0, 0]	n/a	FR1	1	R1168T
1748.819	1.617	1790676	WORD	n/a	wordpools/wordpool_EN.txt	SWAMP	4	16	[0, 0, 0]	n/a	FR1	1	R1168T
1750.436	0.85	1792293	WORD_OFF	n/a	n/a	SWAMP	4	16	[0, 0, 0]	n/a	FR1	1	R1168T
1751.286	1.616	1793143	WORD	n/a	wordpools/wordpool_EN.txt	PURSE	5	16	[0, 0, 0]	n/a	FR1	1	R1168T
1752.902	1.017	1794759	WORD_OFF	n/a	n/a	PURSE	5	16	[0, 0, 0]	n/a	FR1	1	R1168T
1753.919	1.618	1795776	WORD	n/a	wordpools/wordpool_EN.txt	SPONGE	6	16	[0, 0, 0]	n/a	FR1	1	R1168T
1755.537	1.0	1797394	WORD_OFF	n/a	n/a	SPONGE	6	16	[0, 0, 0]	n/a	FR1	1	R1168T
1756.537	1.616	1798394	WORD	n/a	wordpools/wordpool_EN.txt	PET	7	16	[0, 0, 0]	n/a	FR1	1	R1168T
1758.153	0.933	1800010	WORD_OFF	n/a	n/a	PET	7	16	[0, 0, 0]	n/a	FR1	1	R1168T
1759.086	1.618	1800943	WORD	n/a	wordpools/wordpool_EN.txt	EGG	8	16	[0, 0, 0]	n/a	FR1	1	R1168T
1760.704	1.001	1802561	WORD_OFF	n/a	n/a	EGG	8	16	[0, 0, 0]	n/a	FR1	1	R1168T
1761.705	1.616	1803562	WORD	n/a	wordpools/wordpool_EN.txt	ARM	9	16	[0, 0, 0]	n/a	FR1	1	R1168T
1763.321	1.001	1805177	WORD_OFF	n/a	n/a	ARM	9	16	[0, 0, 0]	n/a	FR1	1	R1168T
1764.322	1.616	1806178	WORD	n/a	wordpools/wordpool_EN.txt	APE	10	16	[0, 0, 0]	n/a	FR1	1	R1168T
1765.938	0.933	1807794	WORD_OFF	n/a	n/a	APE	10	16	[0, 0, 0]	n/a	FR1	1	R1168T
1766.871	1.601	1808727	WORD	n/a	wordpools/wordpool_EN.txt	HEN	11	16	[0, 0, 0]	n/a	FR1	1	R1168T
1768.472	0.817	1810328	WORD_OFF	n/a	n/a	HEN	11	16	[0, 0, 0]	n/a	FR1	1	R1168T
1769.289	1.616	1811145	WORD	n/a	wordpools/wordpool_EN.txt	ROCK	12	16	[0, 0, 0]	n/a	FR1	1	R1168T
1770.905	0.0	1812761	WORD_OFF	n/a	n/a	ROCK	12	16	[0, 0, 0]	n/a	FR1	1	R1168T
1770.905	0.001	1812761	DISTRACT_START	n/a	n/a	n/a	-999	16	[0, 0, 0]	n/a	FR1	1	R1168T
1770.906	0.016	1812762	START	n/a	n/a	n/a	-999	16	[-999, -999, -999]	n/a	FR1	1	R1168T
1770.922	3.402	1812778	PROB	3.402	n/a	n/a	-999	16	[1, 1, 1]	3	FR1	1	R1168T
1774.324	4.217	1816180	PROB	4.217	n/a	n/a	-999	16	[4, 1, 8]	13	FR1	1	R1168T
1778.541	3.383	1820397	PROB	3.383	n/a	n/a	-999	16	[5, 5, 1]	11	FR1	1	R1168T
1781.924	3.351	1823779	PROB	3.351	n/a	n/a	-999	16	[5, 3, 3]	11	FR1	1	R1168T
1785.275	5.235	1827130	PROB	5.235	n/a	n/a	-999	16	[9, 9, 1]	19	FR1	1	R1168T
1790.51	5.133	1832365	PROB	5.133	n/a	n/a	-999	16	[3, 1, 6]	10	FR1	1	R1168T
1795.643	0.018	1837498	STOP	n/a	n/a	n/a	-999	16	[-999, -999, -999]	n/a	FR1	1	R1168T
1795.661	0.616	1837516	DISTRACT_END	n/a	n/a	n/a	-999	16	[0, 0, 0]	n/a	FR1	1	R1168T
1796.277	0.518	1838131	RETRIEVAL_ORIENT	n/a	n/a	n/a	-999	16	[0, 0, 0]	n/a	FR1	1	R1168T
1796.795	2.52	1838649	REC_START	n/a	n/a	n/a	-999	16	[0, 0, 0]	n/a	FR1	1	R1168T
1799.315	1.118	1841169	REC_WORD	1.118	n/a	APE	10	16	[0, 0, 0]	n/a	FR1	1	R1168T
1800.433	26.375	1842287	REC_WORD	26.375	n/a	PURSE	5	16	[0, 0, 0]	n/a	FR1	1	R1168T
1826.808	6.075	1868661	REC_END	n/a	n/a	n/a	-999	16	[0, 0, 0]	n/a	FR1	1	R1168T
1832.883	0.5	1874735	TRIAL	n/a	n/a	n/a	-999	17	[0, 0, 0]	n/a	FR1	1	R1168T
1833.383	10.428	1875235	COUNTDOWN_START	n/a	n/a	n/a	-999	17	[0, 0, 0]	n/a	FR1	1	R1168T
1843.811	0.008	1885663	COUNTDOWN_END	n/a	n/a	n/a	-999	17	[0, 0, 0]	n/a	FR1	1	R1168T
1843.819	1.617	1885671	ORIENT	n/a	n/a	n/a	-999	17	[0, 0, 0]	n/a	FR1	1	R1168T
1845.436	1.968	1887288	ORIENT_OFF	n/a	n/a	n/a	-999	17	[0, 0, 0]	n/a	FR1	1	R1168T
1847.404	1.615	1889256	WORD	n/a	wordpools/wordpool_EN.txt	MUG	1	17	[0, 0, 0]	n/a	FR1	1	R1168T
1849.019	0.802	1890870	WORD_OFF	n/a	n/a	MUG	1	17	[0, 0, 0]	n/a	FR1	1	R1168T
1849.821	1.616	1891672	WORD	n/a	wordpools/wordpool_EN.txt	VAN	2	17	[0, 0, 0]	n/a	FR1	1	R1168T
1851.437	0.934	1893288	WORD_OFF	n/a	n/a	VAN	2	17	[0, 0, 0]	n/a	FR1	1	R1168T
1852.371	1.616	1894222	WORD	n/a	wordpools/wordpool_EN.txt	WEB	3	17	[0, 0, 0]	n/a	FR1	1	R1168T
1853.987	0.801	1895838	WORD_OFF	n/a	n/a	WEB	3	17	[0, 0, 0]	n/a	FR1	1	R1168T
1854.788	1.617	1896639	WORD	n/a	wordpools/wordpool_EN.txt	YARD	4	17	[0, 0, 0]	n/a	FR1	1	R1168T
1856.405	1.0	1898256	WORD_OFF	n/a	n/a	YARD	4	17	[0, 0, 0]	n/a	FR1	1	R1168T
1857.405	1.616	1899256	WORD	n/a	wordpools/wordpool_EN.txt	STAIR	5	17	[0, 0, 0]	n/a	FR1	1	R1168T
1859.021	0.801	1900872	WORD_OFF	n/a	n/a	STAIR	5	17	[0, 0, 0]	n/a	FR1	1	R1168T
1859.822	1.617	1901673	WORD	n/a	wordpools/wordpool_EN.txt	JAR	6	17	[0, 0, 0]	n/a	FR1	1	R1168T
1861.439	0.901	1903290	WORD_OFF	n/a	n/a	JAR	6	17	[0, 0, 0]	n/a	FR1	1	R1168T
1862.34	1.615	1904191	WORD	n/a	wordpools/wordpool_EN.txt	SUIT	7	17	[0, 0, 0]	n/a	FR1	1	R1168T
1863.955	0.917	1905806	WORD_OFF	n/a	n/a	SUIT	7	17	[0, 0, 0]	n/a	FR1	1	R1168T
1864.872	1.601	1906722	WORD	n/a	wordpools/wordpool_EN.txt	CONE	8	17	[0, 0, 0]	n/a	FR1	1	R1168T
1866.473	0.867	1908323	WORD_OFF	n/a	n/a	CONE	8	17	[0, 0, 0]	n/a	FR1	1	R1168T
1867.34	1.616	1909190	WORD	n/a	wordpools/wordpool_EN.txt	POND	9	17	[0, 0, 0]	n/a	FR1	1	R1168T
1868.956	0.835	1910806	WORD_OFF	n/a	n/a	POND	9	17	[0, 0, 0]	n/a	FR1	1	R1168T
1869.791	1.617	1911641	WORD	n/a	wordpools/wordpool_EN.txt	ROAD	10	17	[0, 0, 0]	n/a	FR1	1	R1168T
1871.408	1.0	1913258	WORD_OFF	n/a	n/a	ROAD	10	17	[0, 0, 0]	n/a	FR1	1	R1168T
1872.408	1.616	1914258	WORD	n/a	wordpools/wordpool_EN.txt	TOY	11	17	[0, 0, 0]	n/a	FR1	1	R1168T
1874.024	0.967	1915874	WORD_OFF	n/a	n/a	TOY	11	17	[0, 0, 0]	n/a	FR1	1	R1168T
1874.991	1.618	1916841	WORD	n/a	wordpools/wordpool_EN.txt	BANK	12	17	[0, 0, 0]	n/a	FR1	1	R1168T
1876.609	0.0	1918459	DISTRACT_START	n/a	n/a	n/a	-999	17	[0, 0, 0]	n/a	FR1	1	R1168T
1876.609	0.0	1918459	WORD_OFF	n/a	n/a	BANK	12	17	[0, 0, 0]	n/a	FR1	1	R1168T
1876.609	0.016	1918459	START	n/a	n/a	n/a	-999	17	[-999, -999, -999]	n/a	FR1	1	R1168T
1876.625	5.467	1918475	PROB	5.467	n/a	n/a	-999	17	[3, 7, 9]	19	FR1	1	R1168T
1882.092	3.552	1923941	PROB	3.552	n/a	n/a	-999	17	[1, 9, 3]	13	FR1	1	R1168T
1885.644	5.034	1927493	PROB	5.034	n/a	n/a	-999	17	[9, 9, 4]	22	FR1	1	R1168T
1890.678	4.5	1932527	PROB	4.5	n/a	n/a	-999	17	[1, 8, 4]	13	FR1	1	R1168T
1895.178	3.887	1937027	PROB	3.887	n/a	n/a	-999	17	[9, 9, 4]	22	FR1	1	R1168T
1899.065	0.014	1940914	STOP	n/a	n/a	n/a	-999	17	[-999, -999, -999]	n/a	FR1	1	R1168T
1899.079	0.651	1940928	DISTRACT_END	n/a	n/a	n/a	-999	17	[0, 0, 0]	n/a	FR1	1	R1168T
1899.73	0.516	1941578	RETRIEVAL_ORIENT	n/a	n/a	n/a	-999	17	[0, 0, 0]	n/a	FR1	1	R1168T
1900.246	1.539	1942094	REC_START	n/a	n/a	n/a	-999	17	[0, 0, 0]	n/a	FR1	1	R1168T
1901.785	1.133	1943633	REC_WORD	1.133	n/a	MUG	1	17	[0, 0, 0]	n/a	FR1	1	R1168T
1902.918	1.169	1944766	REC_WORD	1.169	n/a	VAN	2	17	[0, 0, 0]	n/a	FR1	1	R1168T
1904.087	1.503	1945935	REC_WORD	1.503	n/a	WEB	3	17	[0, 0, 0]	n/a	FR1	1	R1168T
1905.59	24.67	1947438	REC_WORD	24.67	n/a	YARD	4	17	[0, 0, 0]	n/a	FR1	1	R1168T
1930.26	9.327	1972107	REC_END	n/a	n/a	n/a	-999	17	[0, 0, 0]	n/a	FR1	1	R1168T
1939.587	0.5	1981433	TRIAL	n/a	n/a	n/a	-999	18	[0, 0, 0]	n/a	FR1	1	R1168T
1940.087	10.428	1981933	COUNTDOWN_START	n/a	n/a	n/a	-999	18	[0, 0, 0]	n/a	FR1	1	R1168T
1950.515	0.007	1992361	COUNTDOWN_END	n/a	n/a	n/a	-999	18	[0, 0, 0]	n/a	FR1	1	R1168T
1950.522	1.616	1992368	ORIENT	n/a	n/a	n/a	-999	18	[0, 0, 0]	n/a	FR1	1	R1168T
1952.138	2.118	1993983	ORIENT_OFF	n/a	n/a	n/a	-999	18	[0, 0, 0]	n/a	FR1	1	R1168T
1954.256	1.616	1996101	WORD	n/a	wordpools/wordpool_EN.txt	EEL	1	18	[0, 0, 0]	n/a	FR1	1	R1168T
1955.872	0.785	1997717	WORD_OFF	n/a	n/a	EEL	1	18	[0, 0, 0]	n/a	FR1	1	R1168T
1956.657	1.617	1998502	WORD	n/a	wordpools/wordpool_EN.txt	NET	2	18	[0, 0, 0]	n/a	FR1	1	R1168T
1958.274	0.882	2000119	WORD_OFF	n/a	n/a	NET	2	18	[0, 0, 0]	n/a	FR1	1	R1168T
1959.156	1.618	2001001	WORD	n/a	wordpools/wordpool_EN.txt	ICE	3	18	[0, 0, 0]	n/a	FR1	1	R1168T
1960.774	0.917	2002619	WORD_OFF	n/a	n/a	ICE	3	18	[0, 0, 0]	n/a	FR1	1	R1168T
1961.691	1.617	2003536	WORD	n/a	wordpools/wordpool_EN.txt	INK	4	18	[0, 0, 0]	n/a	FR1	1	R1168T
1963.308	1.0	2005153	WORD_OFF	n/a	n/a	INK	4	18	[0, 0, 0]	n/a	FR1	1	R1168T
1964.308	1.616	2006153	WORD	n/a	wordpools/wordpool_EN.txt	CLOCK	5	18	[0, 0, 0]	n/a	FR1	1	R1168T
1965.924	0.768	2007769	WORD_OFF	n/a	n/a	CLOCK	5	18	[0, 0, 0]	n/a	FR1	1	R1168T
1966.692	1.617	2008537	WORD	n/a	wordpools/wordpool_EN.txt	DOG	6	18	[0, 0, 0]	n/a	FR1	1	R1168T
1968.309	0.932	2010153	WORD_OFF	n/a	n/a	DOG	6	18	[0, 0, 0]	n/a	FR1	1	R1168T
1969.241	1.602	2011085	WORD	n/a	wordpools/wordpool_EN.txt	BIRD	7	18	[0, 0, 0]	n/a	FR1	1	R1168T
1970.843	0.983	2012687	WORD_OFF	n/a	n/a	BIRD	7	18	[0, 0, 0]	n/a	FR1	1	R1168T
1971.826	1.617	2013670	WORD	n/a	wordpools/wordpool_EN.txt	SKY	8	18	[0, 0, 0]	n/a	FR1	1	R1168T
1973.443	0.984	2015287	WORD_OFF	n/a	n/a	SKY	8	18	[0, 0, 0]	n/a	FR1	1	R1168T
1974.427	1.616	2016271	WORD	n/a	wordpools/wordpool_EN.txt	TOOTH	9	18	[0, 0, 0]	n/a	FR1	1	R1168T
1976.043	0.883	2017887	WORD_OFF	n/a	n/a	TOOTH	9	18	[0, 0, 0]	n/a	FR1	1	R1168T
1976.926	1.618	2018770	WORD	n/a	wordpools/wordpool_EN.txt	RUG	10	18	[0, 0, 0]	n/a	FR1	1	R1168T
1978.544	1.0	2020388	WORD_OFF	n/a	n/a	RUG	10	18	[0, 0, 0]	n/a	FR1	1	R1168T
1979.544	1.616	2021388	WORD	n/a	wordpools/wordpool_EN.txt	STORM	11	18	[0, 0, 0]	n/a	FR1	1	R1168T
1981.16	0.967	2023004	WORD_OFF	n/a	n/a	STORM	11	18	[0, 0, 0]	n/a	FR1	1	R1168T
1982.127	1.618	2023971	WORD	n/a	wordpools/wordpool_EN.txt	LAND	12	18	[0, 0, 0]	n/a	FR1	1	R1168T
1983.745	0.0	2025589	WORD_OFF	n/a	n/a	LAND	12	18	[0, 0, 0]	n/a	FR1	1	R1168T
1983.745	0.001	2025589	DISTRACT_START	n/a	n/a	n/a	-999	18	[0, 0, 0]	n/a	FR1	1	R1168T
1983.746	0.016	2025590	START	n/a	n/a	n/a	-999	18	[-999, -999, -999]	n/a	FR1	1	R1168T
1983.762	7.15	2025606	PROB	7.15	n/a	n/a	-999	18	[2, 7, 9]	18	FR1	1	R1168T
1990.912	4.502	2032755	PROB	4.502	n/a	n/a	-999	18	[5, 4, 3]	12	FR1	1	R1168T
1995.414	6.851	2037257	PROB	6.851	n/a	n/a	-999	18	[8, 5, 4]	17	FR1	1	R1168T
2002.265	5.049	2044108	PROB	5.049	n/a	n/a	-999	18	[2, 6, 4]	12	FR1	1	R1168T
2007.314	0.019	2049156	STOP	n/a	n/a	n/a	-999	18	[-999, -999, -999]	n/a	FR1	1	R1168T
2007.333	0.682	2049175	DISTRACT_END	n/a	n/a	n/a	-999	18	[0, 0, 0]	n/a	FR1	1	R1168T
2008.015	0.518	2049857	RETRIEVAL_ORIENT	n/a	n/a	n/a	-999	18	[0, 0, 0]	n/a	FR1	1	R1168T
2008.533	1.384	2050375	REC_START	n/a	n/a	n/a	-999	18	[0, 0, 0]	n/a	FR1	1	R1168T
2009.917	0.937	2051759	REC_WORD	0.937	n/a	EEL	1	18	[0, 0, 0]	n/a	FR1	1	R1168T
2010.854	1.626	2052696	REC_WORD	1.626	n/a	NET	2	18	[0, 0, 0]	n/a	FR1	1	R1168T
2012.48	1.075	2054322	REC_WORD	1.075	n/a	BIRD	7	18	[0, 0, 0]	n/a	FR1	1	R1168T
2013.555	2.252	2055397	REC_WORD	2.252	n/a	STORM	11	18	[0, 0, 0]	n/a	FR1	1	R1168T
2015.807	22.74	2057649	REC_WORD	22.74	n/a	SKY	8	18	[0, 0, 0]	n/a	FR1	1	R1168T
2038.547	4.792	2080387	REC_END	n/a	n/a	n/a	-999	18	[0, 0, 0]	n/a	FR1	1	R1168T
2043.339	0.5	2085179	TRIAL	n/a	n/a	n/a	-999	19	[0, 0, 0]	n/a	FR1	1	R1168T
2043.839	10.428	2085679	COUNTDOWN_START	n/a	n/a	n/a	-999	19	[0, 0, 0]	n/a	FR1	1	R1168T
2054.267	0.007	2096106	COUNTDOWN_END	n/a	n/a	n/a	-999	19	[0, 0, 0]	n/a	FR1	1	R1168T
2054.274	1.616	2096113	ORIENT	n/a	n/a	n/a	-999	19	[0, 0, 0]	n/a	FR1	1	R1168T
2055.89	1.952	2097729	ORIENT_OFF	n/a	n/a	n/a	-999	19	[0, 0, 0]	n/a	FR1	1	R1168T
2057.842	1.617	2099681	WORD	n/a	wordpools/wordpool_EN.txt	DESK	1	19	[0, 0, 0]	n/a	FR1	1	R1168T
2059.459	0.817	2101298	WORD_OFF	n/a	n/a	DESK	1	19	[0, 0, 0]	n/a	FR1	1	R1168T
2060.276	1.616	2102115	WORD	n/a	wordpools/wordpool_EN.txt	ARK	2	19	[0, 0, 0]	n/a	FR1	1	R1168T
2061.892	0.951	2103731	WORD_OFF	n/a	n/a	ARK	2	19	[0, 0, 0]	n/a	FR1	1	R1168T
2062.843	1.617	2104682	WORD	n/a	wordpools/wordpool_EN.txt	FUR	3	19	[0, 0, 0]	n/a	FR1	1	R1168T
2064.46	0.833	2106299	WORD_OFF	n/a	n/a	FUR	3	19	[0, 0, 0]	n/a	FR1	1	R1168T
2065.293	1.616	2107132	WORD	n/a	wordpools/wordpool_EN.txt	BADGE	4	19	[0, 0, 0]	n/a	FR1	1	R1168T
2066.909	0.984	2108748	WORD_OFF	n/a	n/a	BADGE	4	19	[0, 0, 0]	n/a	FR1	1	R1168T
2067.893	1.618	2109732	WORD	n/a	wordpools/wordpool_EN.txt	HOOK	5	19	[0, 0, 0]	n/a	FR1	1	R1168T
2069.511	0.766	2111350	WORD_OFF	n/a	n/a	HOOK	5	19	[0, 0, 0]	n/a	FR1	1	R1168T
2070.277	1.616	2112116	WORD	n/a	wordpools/wordpool_EN.txt	MOTH	6	19	[0, 0, 0]	n/a	FR1	1	R1168T
2071.893	0.768	2113731	WORD_OFF	n/a	n/a	MOTH	6	19	[0, 0, 0]	n/a	FR1	1	R1168T
2072.661	1.617	2114499	WORD	n/a	wordpools/wordpool_EN.txt	POOL	7	19	[0, 0, 0]	n/a	FR1	1	R1168T
2074.278	1.017	2116116	WORD_OFF	n/a	n/a	POOL	7	19	[0, 0, 0]	n/a	FR1	1	R1168T
2075.295	1.616	2117133	WORD	n/a	wordpools/wordpool_EN.txt	HAT	8	19	[0, 0, 0]	n/a	FR1	1	R1168T
2076.911	0.784	2118749	WORD_OFF	n/a	n/a	HAT	8	19	[0, 0, 0]	n/a	FR1	1	R1168T
2077.695	1.617	2119533	WORD	n/a	wordpools/wordpool_EN.txt	DIME	9	19	[0, 0, 0]	n/a	FR1	1	R1168T
2079.312	0.883	2121150	WORD_OFF	n/a	n/a	DIME	9	19	[0, 0, 0]	n/a	FR1	1	R1168T
2080.195	1.618	2122033	WORD	n/a	wordpools/wordpool_EN.txt	CHALK	10	19	[0, 0, 0]	n/a	FR1	1	R1168T
2081.813	0.866	2123651	WORD_OFF	n/a	n/a	CHALK	10	19	[0, 0, 0]	n/a	FR1	1	R1168T
2082.679	1.618	2124517	WORD	n/a	wordpools/wordpool_EN.txt	SHRIMP	11	19	[0, 0, 0]	n/a	FR1	1	R1168T
2084.297	0.882	2126135	WORD_OFF	n/a	n/a	SHRIMP	11	19	[0, 0, 0]	n/a	FR1	1	R1168T
2085.179	1.618	2127017	WORD	n/a	wordpools/wordpool_EN.txt	FLEA	12	19	[0, 0, 0]	n/a	FR1	1	R1168T
2086.797	0.0	2128635	DISTRACT_START	n/a	n/a	n/a	-999	19	[0, 0, 0]	n/a	FR1	1	R1168T
2086.797	0.001	2128635	WORD_OFF	n/a	n/a	FLEA	12	19	[0, 0, 0]	n/a	FR1	1	R1168T
2086.798	0.016	2128636	START	n/a	n/a	n/a	-999	19	[-999, -999, -999]	n/a	FR1	1	R1168T
2086.814	6.033	2128652	PROB	6.033	n/a	n/a	-999	19	[7, 8, 8]	23	FR1	1	R1168T
2092.847	6.085	2134684	PROB	6.085	n/a	n/a	-999	19	[3, 8, 7]	18	FR1	1	R1168T
2098.932	7.168	2140769	PROB	7.168	n/a	n/a	-999	19	[6, 9, 9]	24	FR1	1	R1168T
2106.1	28.246	2147936	PROB	28.246	n/a	n/a	-999	19	[1, 8, 8]	17	FR1	1	R1168T
2134.346	0.01	2176181	STOP	n/a	n/a	n/a	-999	19	[-999, -999, -999]	n/a	FR1	1	R1168T
2134.356	0.549	2176191	DISTRACT_END	n/a	n/a	n/a	-999	19	[0, 0, 0]	n/a	FR1	1	R1168T
2134.905	0.518	2176740	RETRIEVAL_ORIENT	n/a	n/a	n/a	-999	19	[0, 0, 0]	n/a	FR1	1	R1168T
2135.423	30.0	2177258	REC_START	n/a	n/a	n/a	-999	19	[0, 0, 0]	n/a	FR1	1	R1168T
2165.423	0.013	2207256	REC_WORD_VV	0.013	n/a	<>	-999	19	[0, 0, 0]	n/a	FR1	1	R1168T
2165.436	29.998	2207269	REC_END	n/a	n/a	n/a	-999	19	[0, 0, 0]	n/a	FR1	1	R1168T
2195.434	0.5	2237265	TRIAL	n/a	n/a	n/a	-999	20	[0, 0, 0]	n/a	FR1	1	R1168T
2195.934	10.428	2237765	COUNTDOWN_START	n/a	n/a	n/a	-999	20	[0, 0, 0]	n/a	FR1	1	R1168T
2206.362	0.007	2248193	COUNTDOWN_END	n/a	n/a	n/a	-999	20	[0, 0, 0]	n/a	FR1	1	R1168T
2206.369	1.616	2248200	ORIENT	n/a	n/a	n/a	-999	20	[0, 0, 0]	n/a	FR1	1	R1168T
2207.985	1.851	2249816	ORIENT_OFF	n/a	n/a	n/a	-999	20	[0, 0, 0]	n/a	FR1	1	R1168T
2209.836	1.617	2251666	WORD	n/a	wordpools/wordpool_EN.txt	BEE	1	20	[0, 0, 0]	n/a	FR1	1	R1168T
2211.453	0.783	2253283	WORD_OFF	n/a	n/a	BEE	1	20	[0, 0, 0]	n/a	FR1	1	R1168T
2212.236	1.617	2254066	WORD	n/a	wordpools/wordpool_EN.txt	GUARD	2	20	[0, 0, 0]	n/a	FR1	1	R1168T
2213.853	0.901	2255683	WORD_OFF	n/a	n/a	GUARD	2	20	[0, 0, 0]	n/a	FR1	1	R1168T
2214.754	1.617	2256584	WORD	n/a	wordpools/wordpool_EN.txt	STRING	3	20	[0, 0, 0]	n/a	FR1	1	R1168T
2216.371	0.815	2258201	WORD_OFF	n/a	n/a	STRING	3	20	[0, 0, 0]	n/a	FR1	1	R1168T
2217.186	1.601	2259016	WORD	n/a	wordpools/wordpool_EN.txt	SCHOOL	4	20	[0, 0, 0]	n/a	FR1	1	R1168T
2218.787	0.884	2260617	WORD_OFF	n/a	n/a	SCHOOL	4	20	[0, 0, 0]	n/a	FR1	1	R1168T
2219.671	1.617	2261501	WORD	n/a	wordpools/wordpool_EN.txt	BOARD	5	20	[0, 0, 0]	n/a	FR1	1	R1168T
2221.288	0.766	2263118	WORD_OFF	n/a	n/a	BOARD	5	20	[0, 0, 0]	n/a	FR1	1	R1168T
2222.054	1.618	2263884	WORD	n/a	wordpools/wordpool_EN.txt	CALF	6	20	[0, 0, 0]	n/a	FR1	1	R1168T
2223.672	0.783	2265502	WORD_OFF	n/a	n/a	CALF	6	20	[0, 0, 0]	n/a	FR1	1	R1168T
2224.455	1.616	2266285	WORD	n/a	wordpools/wordpool_EN.txt	SOCK	7	20	[0, 0, 0]	n/a	FR1	1	R1168T
2226.071	0.917	2267900	WORD_OFF	n/a	n/a	SOCK	7	20	[0, 0, 0]	n/a	FR1	1	R1168T
2226.988	1.618	2268817	WORD	n/a	wordpools/wordpool_EN.txt	FOAM	8	20	[0, 0, 0]	n/a	FR1	1	R1168T
2228.606	1.017	2270435	WORD_OFF	n/a	n/a	FOAM	8	20	[0, 0, 0]	n/a	FR1	1	R1168T
2229.623	1.616	2271452	WORD	n/a	wordpools/wordpool_EN.txt	SLUSH	9	20	[0, 0, 0]	n/a	FR1	1	R1168T
2231.239	0.817	2273068	WORD_OFF	n/a	n/a	SLUSH	9	20	[0, 0, 0]	n/a	FR1	1	R1168T
2232.056	1.618	2273885	WORD	n/a	wordpools/wordpool_EN.txt	STREET	10	20	[0, 0, 0]	n/a	FR1	1	R1168T
2233.674	0.8	2275503	WORD_OFF	n/a	n/a	STREET	10	20	[0, 0, 0]	n/a	FR1	1	R1168T
2234.474	1.616	2276303	WORD	n/a	wordpools/wordpool_EN.txt	PIE	11	20	[0, 0, 0]	n/a	FR1	1	R1168T
2236.09	0.95	2277919	WORD_OFF	n/a	n/a	PIE	11	20	[0, 0, 0]	n/a	FR1	1	R1168T
2237.04	1.601	2278869	WORD	n/a	wordpools/wordpool_EN.txt	SWORD	12	20	[0, 0, 0]	n/a	FR1	1	R1168T
2238.641	0.0	2280470	WORD_OFF	n/a	n/a	SWORD	12	20	[0, 0, 0]	n/a	FR1	1	R1168T
2238.641	0.001	2280470	DISTRACT_START	n/a	n/a	n/a	-999	20	[0, 0, 0]	n/a	FR1	1	R1168T
2238.642	0.016	2280471	START	n/a	n/a	n/a	-999	20	[-999, -999, -999]	n/a	FR1	1	R1168T
2238.658	18.77	2280487	PROB	18.77	n/a	n/a	-999	20	[9, 7, 7]	23	FR1	1	R1168T
2257.428	6.46	2299256	PROB	6.46	n/a	n/a	-999	20	[3, 4, 6]	13	FR1	1	R1168T
2263.888	0.007	2305715	STOP	n/a	n/a	n/a	-999	20	[-999, -999, -999]	n/a	FR1	1	R1168T
2263.895	0.534	2305722	DISTRACT_END	n/a	n/a	n/a	-999	20	[0, 0, 0]	n/a	FR1	1	R1168T
2264.429	0.517	2306256	RETRIEVAL_ORIENT	n/a	n/a	n/a	-999	20	[0, 0, 0]	n/a	FR1	1	R1168T
2264.946	1.892	2306773	REC_START	n/a	n/a	n/a	-999	20	[0, 0, 0]	n/a	FR1	1	R1168T
2266.838	1.173	2308665	REC_WORD	1.173	n/a	BEE	1	20	[0, 0, 0]	n/a	FR1	1	R1168T
2268.011	1.256	2309838	REC_WORD	1.256	n/a	GUARD	2	20	[0, 0, 0]	n/a	FR1	1	R1168T
2269.267	2.108	2311094	REC_WORD	2.108	n/a	SWORD	12	20	[0, 0, 0]	n/a	FR1	1	R1168T
2271.375	23.582	2313202	REC_WORD	23.582	n/a	SLUSH	9	20	[0, 0, 0]	n/a	FR1	1	R1168T
2294.957	6.145	2336782	REC_END	n/a	n/a	n/a	-999	20	[0, 0, 0]	n/a	FR1	1	R1168T
2301.102	0.5	2342927	TRIAL	n/a	n/a	n/a	-999	21	[0, 0, 0]	n/a	FR1	1	R1168T
2301.602	10.428	2343427	COUNTDOWN_START	n/a	n/a	n/a	-999	21	[0, 0, 0]	n/a	FR1	1	R1168T
2312.03	0.007	2353854	COUNTDOWN_END	n/a	n/a	n/a	-999	21	[0, 0, 0]	n/a	FR1	1	R1168T
2312.037	1.618	2353861	ORIENT	n/a	n/a	n/a	-999	21	[0, 0, 0]	n/a	FR1	1	R1168T
2313.655	1.817	2355479	ORIENT_OFF	n/a	n/a	n/a	-999	21	[0, 0, 0]	n/a	FR1	1	R1168T
2315.472	1.616	2357296	WORD	n/a	wordpools/wordpool_EN.txt	CLOWN	1	21	[0, 0, 0]	n/a	FR1	1	R1168T
2317.088	0.783	2358912	WORD_OFF	n/a	n/a	CLOWN	1	21	[0, 0, 0]	n/a	FR1	1	R1168T
2317.871	1.618	2359695	WORD	n/a	wordpools/wordpool_EN.txt	PEA	2	21	[0, 0, 0]	n/a	FR1	1	R1168T
2319.489	0.917	2361313	WORD_OFF	n/a	n/a	PEA	2	21	[0, 0, 0]	n/a	FR1	1	R1168T
2320.406	1.616	2362230	WORD	n/a	wordpools/wordpool_EN.txt	ROOT	3	21	[0, 0, 0]	n/a	FR1	1	R1168T
2322.022	1.0	2363846	WORD_OFF	n/a	n/a	ROOT	3	21	[0, 0, 0]	n/a	FR1	1	R1168T
2323.022	1.601	2364846	WORD	n/a	wordpools/wordpool_EN.txt	STONE	4	21	[0, 0, 0]	n/a	FR1	1	R1168T
2324.623	0.901	2366447	WORD_OFF	n/a	n/a	STONE	4	21	[0, 0, 0]	n/a	FR1	1	R1168T
2325.524	1.616	2367348	WORD	n/a	wordpools/wordpool_EN.txt	CLOTH	5	21	[0, 0, 0]	n/a	FR1	1	R1168T
2327.14	0.867	2368964	WORD_OFF	n/a	n/a	CLOTH	5	21	[0, 0, 0]	n/a	FR1	1	R1168T
2328.007	1.618	2369831	WORD	n/a	wordpools/wordpool_EN.txt	FORT	6	21	[0, 0, 0]	n/a	FR1	1	R1168T
2329.625	0.766	2371448	WORD_OFF	n/a	n/a	FORT	6	21	[0, 0, 0]	n/a	FR1	1	R1168T
2330.391	1.616	2372214	WORD	n/a	wordpools/wordpool_EN.txt	SAIL	7	21	[0, 0, 0]	n/a	FR1	1	R1168T
2332.007	0.95	2373830	WORD_OFF	n/a	n/a	SAIL	7	21	[0, 0, 0]	n/a	FR1	1	R1168T
2332.957	1.618	2374780	WORD	n/a	wordpools/wordpool_EN.txt	WOLF	8	21	[0, 0, 0]	n/a	FR1	1	R1168T
2334.575	0.834	2376398	WORD_OFF	n/a	n/a	WOLF	8	21	[0, 0, 0]	n/a	FR1	1	R1168T
2335.409	1.616	2377232	WORD	n/a	wordpools/wordpool_EN.txt	WHEEL	9	21	[0, 0, 0]	n/a	FR1	1	R1168T
2337.025	0.85	2378848	WORD_OFF	n/a	n/a	WHEEL	9	21	[0, 0, 0]	n/a	FR1	1	R1168T
2337.875	1.601	2379698	WORD	n/a	wordpools/wordpool_EN.txt	HORSE	10	21	[0, 0, 0]	n/a	FR1	1	R1168T
2339.476	0.867	2381299	WORD_OFF	n/a	n/a	HORSE	10	21	[0, 0, 0]	n/a	FR1	1	R1168T
2340.343	1.616	2382166	WORD	n/a	wordpools/wordpool_EN.txt	THUMB	11	21	[0, 0, 0]	n/a	FR1	1	R1168T
2341.959	0.785	2383782	WORD_OFF	n/a	n/a	THUMB	11	21	[0, 0, 0]	n/a	FR1	1	R1168T
2342.744	1.617	2384567	WORD	n/a	wordpools/wordpool_EN.txt	MOLE	12	21	[0, 0, 0]	n/a	FR1	1	R1168T
2344.361	0.0	2386184	WORD_OFF	n/a	n/a	MOLE	12	21	[0, 0, 0]	n/a	FR1	1	R1168T
2344.361	0.0	2386184	DISTRACT_START	n/a	n/a	n/a	-999	21	[0, 0, 0]	n/a	FR1	1	R1168T
2344.361	0.016	2386184	START	n/a	n/a	n/a	-999	21	[-999, -999, -999]	n/a	FR1	1	R1168T
2344.377	6.902	2386200	PROB	6.902	n/a	n/a	-999	21	[1, 2, 2]	5	FR1	1	R1168T
2351.279	6.251	2393101	PROB	6.251	n/a	n/a	-999	21	[1, 2, 7]	10	FR1	1	R1168T
2357.53	5.416	2399352	PROB	5.416	n/a	n/a	-999	21	[8, 1, 8]	17	FR1	1	R1168T
2362.946	7.487	2404768	PROB	7.487	n/a	n/a	-999	21	[3, 2, 6]	11	FR1	1	R1168T
2370.433	0.016	2412254	STOP	n/a	n/a	n/a	-999	21	[-999, -999, -999]	n/a	FR1	1	R1168T
2370.449	0.582	2412270	DISTRACT_END	n/a	n/a	n/a	-999	21	[0, 0, 0]	n/a	FR1	1	R1168T
2371.031	0.519	2412852	RETRIEVAL_ORIENT	n/a	n/a	n/a	-999	21	[0, 0, 0]	n/a	FR1	1	R1168T
2371.55	1.525	2413371	REC_START	n/a	n/a	n/a	-999	21	[0, 0, 0]	n/a	FR1	1	R1168T
2373.075	1.242	2414896	REC_WORD	1.242	n/a	CLOWN	1	21	[0, 0, 0]	n/a	FR1	1	R1168T
2374.317	1.262	2416138	REC_WORD	1.262	n/a	PEA	2	21	[0, 0, 0]	n/a	FR1	1	R1168T
2375.579	10.073	2417400	REC_WORD	10.073	n/a	ROOT	3	21	[0, 0, 0]	n/a	FR1	1	R1168T
2385.652	15.118	2427472	REC_WORD	15.118	n/a	MOLE	12	21	[0, 0, 0]	n/a	FR1	1	R1168T
2400.77	0.792	2442589	REC_WORD	0.792	n/a	FORT	6	21	[0, 0, 0]	n/a	FR1	1	R1168T
2401.562	9.044	2443381	REC_END	n/a	n/a	n/a	-999	21	[0, 0, 0]	n/a	FR1	1	R1168T
2410.606	0.5	2452425	TRIAL	n/a	n/a	n/a	-999	22	[0, 0, 0]	n/a	FR1	1	R1168T
2411.106	10.428	2452925	COUNTDOWN_START	n/a	n/a	n/a	-999	22	[0, 0, 0]	n/a	FR1	1	R1168T
2421.534	0.007	2463352	COUNTDOWN_END	n/a	n/a	n/a	-999	22	[0, 0, 0]	n/a	FR1	1	R1168T
2421.541	1.616	2463359	ORIENT	n/a	n/a	n/a	-999	22	[0, 0, 0]	n/a	FR1	1	R1168T
2423.157	2.368	2464975	ORIENT_OFF	n/a	n/a	n/a	-999	22	[0, 0, 0]	n/a	FR1	1	R1168T
2425.525	1.616	2467343	WORD	n/a	wordpools/wordpool_EN.txt	LAMP	1	22	[0, 0, 0]	n/a	FR1	1	R1168T
2427.141	0.851	2468959	WORD_OFF	n/a	n/a	LAMP	1	22	[0, 0, 0]	n/a	FR1	1	R1168T
2427.992	1.617	2469810	WORD	n/a	wordpools/wordpool_EN.txt	CORD	2	22	[0, 0, 0]	n/a	FR1	1	R1168T
2429.609	0.834	2471427	WORD_OFF	n/a	n/a	CORD	2	22	[0, 0, 0]	n/a	FR1	1	R1168T
2430.443	1.616	2472261	WORD	n/a	wordpools/wordpool_EN.txt	BOAT	3	22	[0, 0, 0]	n/a	FR1	1	R1168T
2432.059	0.883	2473877	WORD_OFF	n/a	n/a	BOAT	3	22	[0, 0, 0]	n/a	FR1	1	R1168T
2432.942	1.618	2474759	WORD	n/a	wordpools/wordpool_EN.txt	ZOO	4	22	[0, 0, 0]	n/a	FR1	1	R1168T
2434.56	0.951	2476377	WORD_OFF	n/a	n/a	ZOO	4	22	[0, 0, 0]	n/a	FR1	1	R1168T
2435.511	1.615	2477328	WORD	n/a	wordpools/wordpool_EN.txt	PEN	5	22	[0, 0, 0]	n/a	FR1	1	R1168T
2437.126	0.867	2478943	WORD_OFF	n/a	n/a	PEN	5	22	[0, 0, 0]	n/a	FR1	1	R1168T
2437.993	1.618	2479810	WORD	n/a	wordpools/wordpool_EN.txt	CLOUD	6	22	[0, 0, 0]	n/a	FR1	1	R1168T
2439.611	0.984	2481428	WORD_OFF	n/a	n/a	CLOUD	6	22	[0, 0, 0]	n/a	FR1	1	R1168T
2440.595	1.616	2482412	WORD	n/a	wordpools/wordpool_EN.txt	FILM	7	22	[0, 0, 0]	n/a	FR1	1	R1168T
2442.211	0.917	2484028	WORD_OFF	n/a	n/a	FILM	7	22	[0, 0, 0]	n/a	FR1	1	R1168T
2443.128	1.618	2484945	WORD	n/a	wordpools/wordpool_EN.txt	FUDGE	8	22	[0, 0, 0]	n/a	FR1	1	R1168T
2444.746	0.783	2486563	WORD_OFF	n/a	n/a	FUDGE	8	22	[0, 0, 0]	n/a	FR1	1	R1168T
2445.529	1.616	2487346	WORD	n/a	wordpools/wordpool_EN.txt	MULE	9	22	[0, 0, 0]	n/a	FR1	1	R1168T
2447.145	0.867	2488962	WORD_OFF	n/a	n/a	MULE	9	22	[0, 0, 0]	n/a	FR1	1	R1168T
2448.012	1.618	2489829	WORD	n/a	wordpools/wordpool_EN.txt	PRINCE	10	22	[0, 0, 0]	n/a	FR1	1	R1168T
2449.63	0.767	2491446	WORD_OFF	n/a	n/a	PRINCE	10	22	[0, 0, 0]	n/a	FR1	1	R1168T
2450.397	1.616	2492213	WORD	n/a	wordpools/wordpool_EN.txt	ROSE	11	22	[0, 0, 0]	n/a	FR1	1	R1168T
2452.013	0.916	2493829	WORD_OFF	n/a	n/a	ROSE	11	22	[0, 0, 0]	n/a	FR1	1	R1168T
2452.929	1.618	2494745	WORD	n/a	wordpools/wordpool_EN.txt	TOE	12	22	[0, 0, 0]	n/a	FR1	1	R1168T
2454.547	0.0	2496363	WORD_OFF	n/a	n/a	TOE	12	22	[0, 0, 0]	n/a	FR1	1	R1168T
2454.547	0.001	2496363	DISTRACT_START	n/a	n/a	n/a	-999	22	[0, 0, 0]	n/a	FR1	1	R1168T
2454.548	0.016	2496364	START	n/a	n/a	n/a	-999	22	[-999, -999, -999]	n/a	FR1	1	R1168T
2454.564	5.751	2496380	PROB	5.751	n/a	n/a	-999	22	[8, 2, 5]	15	FR1	1	R1168T
2460.315	4.85	2502131	PROB	4.85	n/a	n/a	-999	22	[2, 4, 1]	7	FR1	1	R1168T
2465.165	6.968	2506981	PROB	6.968	n/a	n/a	-999	22	[9, 8, 7]	24	FR1	1	R1168T
2472.133	4.189	2513948	PROB	4.189	n/a	n/a	-999	22	[2, 5, 5]	12	FR1	1	R1168T
2476.322	0.013	2518137	STOP	n/a	n/a	n/a	-999	22	[-999, -999, -999]	n/a	FR1	1	R1168T
2476.335	0.632	2518150	DISTRACT_END	n/a	n/a	n/a	-999	22	[0, 0, 0]	n/a	FR1	1	R1168T
2476.967	0.502	2518782	RETRIEVAL_ORIENT	n/a	n/a	n/a	-999	22	[0, 0, 0]	n/a	FR1	1	R1168T
2477.469	2.101	2519284	REC_START	n/a	n/a	n/a	-999	22	[0, 0, 0]	n/a	FR1	1	R1168T
2479.57	1.323	2521385	REC_WORD	1.323	n/a	ROSE	11	22	[0, 0, 0]	n/a	FR1	1	R1168T
2480.893	3.72	2522708	REC_WORD	3.72	n/a	TOE	12	22	[0, 0, 0]	n/a	FR1	1	R1168T
2484.613	22.868	2526427	REC_WORD	22.868	n/a	MULE	9	22	[0, 0, 0]	n/a	FR1	1	R1168T
2507.481	5.559	2549294	REC_END	n/a	n/a	n/a	-999	22	[0, 0, 0]	n/a	FR1	1	R1168T
2513.04	0.5	2554853	TRIAL	n/a	n/a	n/a	-999	23	[0, 0, 0]	n/a	FR1	1	R1168T
2513.54	10.428	2555353	COUNTDOWN_START	n/a	n/a	n/a	-999	23	[0, 0, 0]	n/a	FR1	1	R1168T
2523.968	0.008	2565780	COUNTDOWN_END	n/a	n/a	n/a	-999	23	[0, 0, 0]	n/a	FR1	1	R1168T
2523.976	1.618	2565788	ORIENT	n/a	n/a	n/a	-999	23	[0, 0, 0]	n/a	FR1	1	R1168T
2525.594	1.95	2567406	ORIENT_OFF	n/a	n/a	n/a	-999	23	[0, 0, 0]	n/a	FR1	1	R1168T
2527.544	1.616	2569356	WORD	n/a	wordpools/wordpool_EN.txt	SPOON	1	23	[0, 0, 0]	n/a	FR1	1	R1168T
2529.16	0.883	2570972	WORD_OFF	n/a	n/a	SPOON	1	23	[0, 0, 0]	n/a	FR1	1	R1168T
2530.043	1.601	2571855	WORD	n/a	wordpools/wordpool_EN.txt	SPRING	2	23	[0, 0, 0]	n/a	FR1	1	R1168T
2531.644	0.984	2573456	WORD_OFF	n/a	n/a	SPRING	2	23	[0, 0, 0]	n/a	FR1	1	R1168T
2532.628	1.616	2574440	WORD	n/a	wordpools/wordpool_EN.txt	CAKE	3	23	[0, 0, 0]	n/a	FR1	1	R1168T
2534.244	0.867	2576056	WORD_OFF	n/a	n/a	CAKE	3	23	[0, 0, 0]	n/a	FR1	1	R1168T
2535.111	1.618	2576923	WORD	n/a	wordpools/wordpool_EN.txt	MAT	4	23	[0, 0, 0]	n/a	FR1	1	R1168T
2536.729	0.95	2578540	WORD_OFF	n/a	n/a	MAT	4	23	[0, 0, 0]	n/a	FR1	1	R1168T
2537.679	1.617	2579490	WORD	n/a	wordpools/wordpool_EN.txt	NAIL	5	23	[0, 0, 0]	n/a	FR1	1	R1168T
2539.296	0.799	2581107	WORD_OFF	n/a	n/a	NAIL	5	23	[0, 0, 0]	n/a	FR1	1	R1168T
2540.095	1.618	2581906	WORD	n/a	wordpools/wordpool_EN.txt	DART	6	23	[0, 0, 0]	n/a	FR1	1	R1168T
2541.713	0.85	2583524	WORD_OFF	n/a	n/a	DART	6	23	[0, 0, 0]	n/a	FR1	1	R1168T
2542.563	1.616	2584374	WORD	n/a	wordpools/wordpool_EN.txt	CANE	7	23	[0, 0, 0]	n/a	FR1	1	R1168T
2544.179	0.867	2585990	WORD_OFF	n/a	n/a	CANE	7	23	[0, 0, 0]	n/a	FR1	1	R1168T
2545.046	1.618	2586857	WORD	n/a	wordpools/wordpool_EN.txt	STICK	8	23	[0, 0, 0]	n/a	FR1	1	R1168T
2546.664	1.0	2588475	WORD_OFF	n/a	n/a	STICK	8	23	[0, 0, 0]	n/a	FR1	1	R1168T
2547.664	1.617	2589475	WORD	n/a	wordpools/wordpool_EN.txt	BARN	9	23	[0, 0, 0]	n/a	FR1	1	R1168T
2549.281	0.984	2591092	WORD_OFF	n/a	n/a	BARN	9	23	[0, 0, 0]	n/a	FR1	1	R1168T
2550.265	1.616	2592076	WORD	n/a	wordpools/wordpool_EN.txt	BEAN	10	23	[0, 0, 0]	n/a	FR1	1	R1168T
2551.881	0.966	2593692	WORD_OFF	n/a	n/a	BEAN	10	23	[0, 0, 0]	n/a	FR1	1	R1168T
2552.847	1.602	2594657	WORD	n/a	wordpools/wordpool_EN.txt	TIE	11	23	[0, 0, 0]	n/a	FR1	1	R1168T
2554.449	0.867	2596259	WORD_OFF	n/a	n/a	TIE	11	23	[0, 0, 0]	n/a	FR1	1	R1168T
2555.316	1.616	2597126	WORD	n/a	wordpools/wordpool_EN.txt	THREAD	12	23	[0, 0, 0]	n/a	FR1	1	R1168T
2556.932	0.0	2598742	WORD_OFF	n/a	n/a	THREAD	12	23	[0, 0, 0]	n/a	FR1	1	R1168T
2556.932	0.0	2598742	DISTRACT_START	n/a	n/a	n/a	-999	23	[0, 0, 0]	n/a	FR1	1	R1168T
2556.932	0.016	2598742	START	n/a	n/a	n/a	-999	23	[-999, -999, -999]	n/a	FR1	1	R1168T
2556.948	5.035	2598758	PROB	5.035	n/a	n/a	-999	23	[9, 3, 6]	18	FR1	1	R1168T
2561.983	4.601	2603793	PROB	4.601	n/a	n/a	-999	23	[6, 9, 3]	18	FR1	1	R1168T
2566.584	3.234	2608394	PROB	3.234	n/a	n/a	-999	23	[9, 1, 1]	11	FR1	1	R1168T
2569.818	3.968	2611627	PROB	3.968	n/a	n/a	-999	23	[5, 2, 7]	14	FR1	1	R1168T
2573.786	4.712	2615595	PROB	4.712	n/a	n/a	-999	23	[6, 7, 2]	15	FR1	1	R1168T
2578.498	0.005	2620307	STOP	n/a	n/a	n/a	-999	23	[-999, -999, -999]	n/a	FR1	1	R1168T
2578.503	0.583	2620312	DISTRACT_END	n/a	n/a	n/a	-999	23	[0, 0, 0]	n/a	FR1	1	R1168T
2579.086	0.518	2620895	RETRIEVAL_ORIENT	n/a	n/a	n/a	-999	23	[0, 0, 0]	n/a	FR1	1	R1168T
2579.604	3.04	2621413	REC_START	n/a	n/a	n/a	-999	23	[0, 0, 0]	n/a	FR1	1	R1168T
2582.644	1.378	2624453	REC_WORD	1.378	n/a	NOSE	-999	23	[0, 0, 0]	n/a	FR1	1	R1168T
2584.022	1.575	2625831	REC_WORD	1.575	n/a	CANE	7	23	[0, 0, 0]	n/a	FR1	1	R1168T
2585.597	1.562	2627406	REC_WORD	1.562	n/a	THREAD	12	23	[0, 0, 0]	n/a	FR1	1	R1168T
2587.159	22.456	2628967	REC_WORD	22.456	n/a	STICK	8	23	[0, 0, 0]	n/a	FR1	1	R1168T
2609.615	8.695	2651422	REC_END	n/a	n/a	n/a	-999	23	[0, 0, 0]	n/a	FR1	1	R1168T
2618.31	0.5	2660117	TRIAL	n/a	n/a	n/a	-999	24	[0, 0, 0]	n/a	FR1	1	R1168T
2618.81	10.428	2660617	COUNTDOWN_START	n/a	n/a	n/a	-999	24	[0, 0, 0]	n/a	FR1	1	R1168T
2629.238	0.007	2671044	COUNTDOWN_END	n/a	n/a	n/a	-999	24	[0, 0, 0]	n/a	FR1	1	R1168T
2629.245	1.617	2671051	ORIENT	n/a	n/a	n/a	-999	24	[0, 0, 0]	n/a	FR1	1	R1168T
2630.862	1.784	2672668	ORIENT_OFF	n/a	n/a	n/a	-999	24	[0, 0, 0]	n/a	FR1	1	R1168T
2632.646	1.617	2674452	WORD	n/a	wordpools/wordpool_EN.txt	CAPE	1	24	[0, 0, 0]	n/a	FR1	1	R1168T
2634.263	0.983	2676069	WORD_OFF	n/a	n/a	CAPE	1	24	[0, 0, 0]	n/a	FR1	1	R1168T
2635.246	1.617	2677052	WORD	n/a	wordpools/wordpool_EN.txt	PEACH	2	24	[0, 0, 0]	n/a	FR1	1	R1168T
2636.863	0.834	2678669	WORD_OFF	n/a	n/a	PEACH	2	24	[0, 0, 0]	n/a	FR1	1	R1168T
2637.697	1.617	2679503	WORD	n/a	wordpools/wordpool_EN.txt	BROOM	3	24	[0, 0, 0]	n/a	FR1	1	R1168T
2639.314	0.967	2681119	WORD_OFF	n/a	n/a	BROOM	3	24	[0, 0, 0]	n/a	FR1	1	R1168T
2640.281	1.616	2682086	WORD	n/a	wordpools/wordpool_EN.txt	VINE	4	24	[0, 0, 0]	n/a	FR1	1	R1168T
2641.897	0.818	2683702	WORD_OFF	n/a	n/a	VINE	4	24	[0, 0, 0]	n/a	FR1	1	R1168T
2642.715	1.617	2684520	WORD	n/a	wordpools/wordpool_EN.txt	HORN	5	24	[0, 0, 0]	n/a	FR1	1	R1168T
2644.332	0.866	2686137	WORD_OFF	n/a	n/a	HORN	5	24	[0, 0, 0]	n/a	FR1	1	R1168T
2645.198	1.618	2687003	WORD	n/a	wordpools/wordpool_EN.txt	STOVE	6	24	[0, 0, 0]	n/a	FR1	1	R1168T
2646.816	0.816	2688621	WORD_OFF	n/a	n/a	STOVE	6	24	[0, 0, 0]	n/a	FR1	1	R1168T
2647.632	1.616	2689437	WORD	n/a	wordpools/wordpool_EN.txt	PLATE	7	24	[0, 0, 0]	n/a	FR1	1	R1168T
2649.248	0.767	2691053	WORD_OFF	n/a	n/a	PLATE	7	24	[0, 0, 0]	n/a	FR1	1	R1168T
2650.015	1.601	2691820	WORD	n/a	wordpools/wordpool_EN.txt	STOOL	8	24	[0, 0, 0]	n/a	FR1	1	R1168T
2651.616	0.95	2693421	WORD_OFF	n/a	n/a	STOOL	8	24	[0, 0, 0]	n/a	FR1	1	R1168T
2652.566	1.617	2694371	WORD	n/a	wordpools/wordpool_EN.txt	FOOT	9	24	[0, 0, 0]	n/a	FR1	1	R1168T
2654.183	0.816	2695988	WORD_OFF	n/a	n/a	FOOT	9	24	[0, 0, 0]	n/a	FR1	1	R1168T
2654.999	1.618	2696804	WORD	n/a	wordpools/wordpool_EN.txt	KITE	10	24	[0, 0, 0]	n/a	FR1	1	R1168T
2656.617	0.917	2698421	WORD_OFF	n/a	n/a	KITE	10	24	[0, 0, 0]	n/a	FR1	1	R1168T
2657.534	1.616	2699338	WORD	n/a	wordpools/wordpool_EN.txt	GLOVE	11	24	[0, 0, 0]	n/a	FR1	1	R1168T
2659.15	0.934	2700954	WORD_OFF	n/a	n/a	GLOVE	11	24	[0, 0, 0]	n/a	FR1	1	R1168T
2660.084	1.618	2701888	WORD	n/a	wordpools/wordpool_EN.txt	HOSE	12	24	[0, 0, 0]	n/a	FR1	1	R1168T
2661.702	0.0	2703506	WORD_OFF	n/a	n/a	HOSE	12	24	[0, 0, 0]	n/a	FR1	1	R1168T
2661.702	0.0	2703506	DISTRACT_START	n/a	n/a	n/a	-999	24	[0, 0, 0]	n/a	FR1	1	R1168T
2661.702	0.016	2703506	START	n/a	n/a	n/a	-999	24	[-999, -999, -999]	n/a	FR1	1	R1168T
2661.718	5.284	2703522	PROB	5.284	n/a	n/a	-999	24	[7, 1, 8]	16	FR1	1	R1168T
2667.002	4.285	2708806	PROB	4.285	n/a	n/a	-999	24	[4, 4, 5]	13	FR1	1	R1168T
2671.287	4.484	2713091	PROB	4.484	n/a	n/a	-999	24	[5, 3, 2]	10	FR1	1	R1168T
2675.771	5.484	2717574	PROB	5.484	n/a	n/a	-999	24	[9, 9, 8]	26	FR1	1	R1168T
2681.255	4.572	2723058	PROB	4.572	n/a	n/a	-999	24	[1, 2, 9]	12	FR1	1	R1168T
2685.827	0.012	2727630	STOP	n/a	n/a	n/a	-999	24	[-999, -999, -999]	n/a	FR1	1	R1168T
2685.839	0.567	2727642	DISTRACT_END	n/a	n/a	n/a	-999	24	[0, 0, 0]	n/a	FR1	1	R1168T
2686.406	0.517	2728209	RETRIEVAL_ORIENT	n/a	n/a	n/a	-999	24	[0, 0, 0]	n/a	FR1	1	R1168T
2686.923	2.135	2728726	REC_START	n/a	n/a	n/a	-999	24	[0, 0, 0]	n/a	FR1	1	R1168T
2689.058	1.038	2730861	REC_WORD	1.038	n/a	KITE	10	24	[0, 0, 0]	n/a	FR1	1	R1168T
2690.096	1.035	2731898	REC_WORD	1.035	n/a	GLOVE	11	24	[0, 0, 0]	n/a	FR1	1	R1168T
2691.131	25.803	2732933	REC_WORD	25.803	n/a	STOOL	8	24	[0, 0, 0]	n/a	FR1	1	R1168T
2716.934	5.294	2758735	REC_END	n/a	n/a	n/a	-999	24	[0, 0, 0]	n/a	FR1	1	R1168T
2722.228	0.5	2764029	TRIAL	n/a	n/a	n/a	-999	25	[0, 0, 0]	n/a	FR1	1	R1168T
2722.728	10.428	2764529	COUNTDOWN_START	n/a	n/a	n/a	-999	25	[0, 0, 0]	n/a	FR1	1	R1168T
2733.156	0.008	2774956	COUNTDOWN_END	n/a	n/a	n/a	-999	25	[0, 0, 0]	n/a	FR1	1	R1168T
2733.164	1.618	2774964	ORIENT	n/a	n/a	n/a	-999	25	[0, 0, 0]	n/a	FR1	1	R1168T
2734.782	2.182	2776582	ORIENT_OFF	n/a	n/a	n/a	-999	25	[0, 0, 0]	n/a	FR1	1	R1168T
2736.964	1.601	2778764	WORD	n/a	wordpools/wordpool_EN.txt	ELF	1	25	[0, 0, 0]	n/a	FR1	1	R1168T
2738.565	0.817	2780365	WORD_OFF	n/a	n/a	ELF	1	25	[0, 0, 0]	n/a	FR1	1	R1168T
2739.382	1.616	2781182	WORD	n/a	wordpools/wordpool_EN.txt	DITCH	2	25	[0, 0, 0]	n/a	FR1	1	R1168T
2740.998	1.001	2782798	WORD_OFF	n/a	n/a	DITCH	2	25	[0, 0, 0]	n/a	FR1	1	R1168T
2741.999	1.618	2783798	WORD	n/a	wordpools/wordpool_EN.txt	FLOOR	3	25	[0, 0, 0]	n/a	FR1	1	R1168T
2743.617	0.85	2785416	WORD_OFF	n/a	n/a	FLOOR	3	25	[0, 0, 0]	n/a	FR1	1	R1168T
2744.467	1.616	2786266	WORD	n/a	wordpools/wordpool_EN.txt	FOX	4	25	[0, 0, 0]	n/a	FR1	1	R1168T
2746.083	0.933	2787882	WORD_OFF	n/a	n/a	FOX	4	25	[0, 0, 0]	n/a	FR1	1	R1168T
2747.016	1.618	2788815	WORD	n/a	wordpools/wordpool_EN.txt	JUDGE	5	25	[0, 0, 0]	n/a	FR1	1	R1168T
2748.634	0.884	2790433	WORD_OFF	n/a	n/a	JUDGE	5	25	[0, 0, 0]	n/a	FR1	1	R1168T
2749.518	1.616	2791317	WORD	n/a	wordpools/wordpool_EN.txt	TRUCK	6	25	[0, 0, 0]	n/a	FR1	1	R1168T
2751.134	0.866	2792933	WORD_OFF	n/a	n/a	TRUCK	6	25	[0, 0, 0]	n/a	FR1	1	R1168T
2752.0	1.601	2793799	WORD	n/a	wordpools/wordpool_EN.txt	FLAG	7	25	[0, 0, 0]	n/a	FR1	1	R1168T
2753.601	0.867	2795400	WORD_OFF	n/a	n/a	FLAG	7	25	[0, 0, 0]	n/a	FR1	1	R1168T
2754.468	1.616	2796267	WORD	n/a	wordpools/wordpool_EN.txt	TREE	8	25	[0, 0, 0]	n/a	FR1	1	R1168T
2756.084	0.834	2797883	WORD_OFF	n/a	n/a	TREE	8	25	[0, 0, 0]	n/a	FR1	1	R1168T
2756.918	1.618	2798717	WORD	n/a	wordpools/wordpool_EN.txt	TAIL	9	25	[0, 0, 0]	n/a	FR1	1	R1168T
2758.536	0.8	2800335	WORD_OFF	n/a	n/a	TAIL	9	25	[0, 0, 0]	n/a	FR1	1	R1168T
2759.336	1.616	2801134	WORD	n/a	wordpools/wordpool_EN.txt	SQUARE	10	25	[0, 0, 0]	n/a	FR1	1	R1168T
2760.952	0.868	2802750	WORD_OFF	n/a	n/a	SQUARE	10	25	[0, 0, 0]	n/a	FR1	1	R1168T
2761.82	1.617	2803618	WORD	n/a	wordpools/wordpool_EN.txt	PLANE	11	25	[0, 0, 0]	n/a	FR1	1	R1168T
2763.437	0.933	2805235	WORD_OFF	n/a	n/a	PLANE	11	25	[0, 0, 0]	n/a	FR1	1	R1168T
2764.37	1.616	2806168	WORD	n/a	wordpools/wordpool_EN.txt	CLAY	12	25	[0, 0, 0]	n/a	FR1	1	R1168T
2765.986	0.0	2807784	WORD_OFF	n/a	n/a	CLAY	12	25	[0, 0, 0]	n/a	FR1	1	R1168T
2765.986	0.001	2807784	DISTRACT_START	n/a	n/a	n/a	-999	25	[0, 0, 0]	n/a	FR1	1	R1168T
2765.987	0.016	2807785	START	n/a	n/a	n/a	-999	25	[-999, -999, -999]	n/a	FR1	1	R1168T
2766.003	7.336	2807801	PROB	7.336	n/a	n/a	-999	25	[2, 8, 8]	18	FR1	1	R1168T
2773.339	3.633	2815137	PROB	3.633	n/a	n/a	-999	25	[6, 3, 2]	11	FR1	1	R1168T
2776.972	8.752	2818769	PROB	8.752	n/a	n/a	-999	25	[8, 6, 6]	20	FR1	1	R1168T
2785.724	8.751	2827521	PROB	8.751	n/a	n/a	-999	25	[1, 9, 4]	14	FR1	1	R1168T
2794.475	0.017	2836271	STOP	n/a	n/a	n/a	-999	25	[-999, -999, -999]	n/a	FR1	1	R1168T
2794.492	0.716	2836288	DISTRACT_END	n/a	n/a	n/a	-999	25	[0, 0, 0]	n/a	FR1	1	R1168T
2795.208	0.519	2837004	RETRIEVAL_ORIENT	n/a	n/a	n/a	-999	25	[0, 0, 0]	n/a	FR1	1	R1168T
2795.727	1.688	2837523	REC_START	n/a	n/a	n/a	-999	25	[0, 0, 0]	n/a	FR1	1	R1168T
2797.415	28.322	2839211	REC_WORD	28.322	n/a	ELF	1	25	[0, 0, 0]	n/a	FR1	1	R1168T
2825.737	0.0	2867532	REC_END	n/a	n/a	n/a	-999	25	[0, 0, 0]	n/a	FR1	1	R1168T
