onset	duration	sample	trial_type	response_time	stim_file	item_name	serialpos	list	test	answer	experiment	session	subject
0.0	0.0	37038	INSTRUCT_START	n/a	n/a	n/a	-999	-999	[0, 0, 0]	n/a	FR1	3	R1156D
0.0	11.08	37038	INSTRUCT_END	n/a	n/a	n/a	-999	-999	[0, 0, 0]	n/a	FR1	3	R1156D
11.08	0.0	48119	SESS_START	n/a	n/a	n/a	-999	-999	[0, 0, 0]	n/a	FR1	3	R1156D
11.08	9.501	48119	MIC_TEST	n/a	n/a	n/a	-999	-999	[0, 0, 0]	n/a	FR1	3	R1156D
20.581	1.471	57622	PRACTICE_TRIAL	n/a	n/a	n/a	-999	-1	[0, 0, 0]	n/a	FR1	3	R1156D
22.052	10.428	59093	COUNTDOWN_START	n/a	n/a	n/a	-999	-1	[0, 0, 0]	n/a	FR1	3	R1156D
32.48	0.008	69523	COUNTDOWN_END	n/a	n/a	n/a	-999	-1	[0, 0, 0]	n/a	FR1	3	R1156D
32.488	1.617	69531	PRACTICE_ORIENT	n/a	n/a	n/a	-999	-1	[0, 0, 0]	n/a	FR1	3	R1156D
34.105	2.0	71148	PRACTICE_ORIENT_OFF	n/a	n/a	n/a	-999	-1	[0, 0, 0]	n/a	FR1	3	R1156D
36.105	1.617	73148	PRACTICE_WORD	n/a	n/a	BEAM	1	-1	[0, 0, 0]	n/a	FR1	3	R1156D
37.722	0.867	74765	PRACTICE_WORD_OFF	n/a	n/a	BEAM	-999	-1	[0, 0, 0]	n/a	FR1	3	R1156D
38.589	1.617	75633	PRACTICE_WORD	n/a	n/a	RHINO	2	-1	[0, 0, 0]	n/a	FR1	3	R1156D
40.206	0.967	77250	PRACTICE_WORD_OFF	n/a	n/a	RHINO	-999	-1	[0, 0, 0]	n/a	FR1	3	R1156D
41.173	1.617	78217	PRACTICE_WORD	n/a	n/a	WATCH	3	-1	[0, 0, 0]	n/a	FR1	3	R1156D
42.79	0.967	79834	PRACTICE_WORD_OFF	n/a	n/a	WATCH	-999	-1	[0, 0, 0]	n/a	FR1	3	R1156D
43.757	1.616	80801	PRACTICE_WORD	n/a	n/a	WAGON	4	-1	[0, 0, 0]	n/a	FR1	3	R1156D
45.373	0.817	82418	PRACTICE_WORD_OFF	n/a	n/a	WAGON	-999	-1	[0, 0, 0]	n/a	FR1	3	R1156D
46.19	1.617	83235	PRACTICE_WORD	n/a	n/a	IRON	5	-1	[0, 0, 0]	n/a	FR1	3	R1156D
47.807	0.95	84852	PRACTICE_WORD_OFF	n/a	n/a	IRON	-999	-1	[0, 0, 0]	n/a	FR1	3	R1156D
48.757	1.617	85802	PRACTICE_WORD	n/a	n/a	ATTIC	6	-1	[0, 0, 0]	n/a	FR1	3	R1156D
50.374	0.884	87419	PRACTICE_WORD_OFF	n/a	n/a	ATTIC	-999	-1	[0, 0, 0]	n/a	FR1	3	R1156D
51.258	1.617	88304	PRACTICE_WORD	n/a	n/a	COTTON	7	-1	[0, 0, 0]	n/a	FR1	3	R1156D
52.875	0.95	89921	PRACTICE_WORD_OFF	n/a	n/a	COTTON	-999	-1	[0, 0, 0]	n/a	FR1	3	R1156D
53.825	1.617	90871	PRACTICE_WORD	n/a	n/a	CHEST	8	-1	[0, 0, 0]	n/a	FR1	3	R1156D
55.442	0.8	92488	PRACTICE_WORD_OFF	n/a	n/a	CHEST	-999	-1	[0, 0, 0]	n/a	FR1	3	R1156D
56.242	1.617	93288	PRACTICE_WORD	n/a	n/a	FLOOD	9	-1	[0, 0, 0]	n/a	FR1	3	R1156D
57.859	0.984	94906	PRACTICE_WORD_OFF	n/a	n/a	FLOOD	-999	-1	[0, 0, 0]	n/a	FR1	3	R1156D
58.843	1.617	95890	PRACTICE_WORD	n/a	n/a	TONGUE	10	-1	[0, 0, 0]	n/a	FR1	3	R1156D
60.46	0.983	97507	PRACTICE_WORD_OFF	n/a	n/a	TONGUE	-999	-1	[0, 0, 0]	n/a	FR1	3	R1156D
61.443	1.617	98490	PRACTICE_WORD	n/a	n/a	RING	11	-1	[0, 0, 0]	n/a	FR1	3	R1156D
63.06	0.85	100107	PRACTICE_WORD_OFF	n/a	n/a	RING	-999	-1	[0, 0, 0]	n/a	FR1	3	R1156D
63.91	1.617	100958	PRACTICE_WORD	n/a	n/a	CAMEL	12	-1	[0, 0, 0]	n/a	FR1	3	R1156D
65.527	0.0	102575	PRACTICE_WORD_OFF	n/a	n/a	CAMEL	-999	-1	[0, 0, 0]	n/a	FR1	3	R1156D
65.527	0.001	102575	DISTRACT_START	n/a	n/a	n/a	-999	-1	[0, 0, 0]	n/a	FR1	3	R1156D
65.528	0.016	102576	START	n/a	n/a	n/a	-999	-1	[-999, -999, -999]	n/a	FR1	3	R1156D
65.544	6.501	102592	PROB	6.501	n/a	n/a	-999	-1	[2, 7, 2]	11	FR1	3	R1156D
72.045	3.634	109094	PROB	3.634	n/a	n/a	-999	-1	[8, 1, 5]	14	FR1	3	R1156D
75.679	2.751	112728	PROB	2.751	n/a	n/a	-999	-1	[5, 7, 7]	19	FR1	3	R1156D
78.43	4.067	115480	PROB	4.067	n/a	n/a	-999	-1	[2, 6, 8]	16	FR1	3	R1156D
82.497	2.8	119547	PROB	2.8	n/a	n/a	-999	-1	[1, 7, 1]	9	FR1	3	R1156D
85.297	4.628	122348	PROB	4.628	n/a	n/a	-999	-1	[9, 9, 1]	19	FR1	3	R1156D
89.925	0.006	126977	STOP	n/a	n/a	n/a	-999	-1	[-999, -999, -999]	n/a	FR1	3	R1156D
89.931	0.701	126983	DISTRACT_END	n/a	n/a	n/a	-999	-1	[0, 0, 0]	n/a	FR1	3	R1156D
90.632	0.517	127684	RETRIEVAL_ORIENT	n/a	n/a	n/a	-999	-1	[0, 0, 0]	n/a	FR1	3	R1156D
91.149	30.013	128201	PRACTICE_REC_START	n/a	n/a	n/a	-999	-1	[0, 0, 0]	n/a	FR1	3	R1156D
121.162	336.886	158218	PRACTICE_REC_END	n/a	n/a	n/a	-999	-1	[0, 0, 0]	n/a	FR1	3	R1156D
458.048	0.0	20502	INSTRUCT_START	n/a	n/a	n/a	-999	-1	[0, 0, 0]	n/a	FR1	3	R1156D
458.048	11.092	20502	INSTRUCT_END	n/a	n/a	n/a	-999	-1	[0, 0, 0]	n/a	FR1	3	R1156D
469.14	0.0	31594	SESS_START	n/a	n/a	n/a	-999	-1	[0, 0, 0]	n/a	FR1	3	R1156D
469.14	11.0	31594	MIC_TEST	n/a	n/a	n/a	-999	-1	[0, 0, 0]	n/a	FR1	3	R1156D
480.14	1.796	42593	PRACTICE_TRIAL	n/a	n/a	n/a	-999	-1	[0, 0, 0]	n/a	FR1	3	R1156D
481.936	10.428	44389	COUNTDOWN_START	n/a	n/a	n/a	-999	-1	[0, 0, 0]	n/a	FR1	3	R1156D
492.364	0.007	54816	COUNTDOWN_END	n/a	n/a	n/a	-999	-1	[0, 0, 0]	n/a	FR1	3	R1156D
492.371	1.617	54823	PRACTICE_ORIENT	n/a	n/a	n/a	-999	-1	[0, 0, 0]	n/a	FR1	3	R1156D
493.988	1.867	56440	PRACTICE_ORIENT_OFF	n/a	n/a	n/a	-999	-1	[0, 0, 0]	n/a	FR1	3	R1156D
495.855	1.617	58307	PRACTICE_WORD	n/a	n/a	BEAM	1	-1	[0, 0, 0]	n/a	FR1	3	R1156D
497.472	0.967	59924	PRACTICE_WORD_OFF	n/a	n/a	BEAM	-999	-1	[0, 0, 0]	n/a	FR1	3	R1156D
498.439	1.617	60891	PRACTICE_WORD	n/a	n/a	RHINO	2	-1	[0, 0, 0]	n/a	FR1	3	R1156D
500.056	0.899	62508	PRACTICE_WORD_OFF	n/a	n/a	RHINO	-999	-1	[0, 0, 0]	n/a	FR1	3	R1156D
500.955	1.602	63407	PRACTICE_WORD	n/a	n/a	WATCH	3	-1	[0, 0, 0]	n/a	FR1	3	R1156D
502.557	0.916	65009	PRACTICE_WORD_OFF	n/a	n/a	WATCH	-999	-1	[0, 0, 0]	n/a	FR1	3	R1156D
503.473	1.617	65925	PRACTICE_WORD	n/a	n/a	WAGON	4	-1	[0, 0, 0]	n/a	FR1	3	R1156D
505.09	0.984	67542	PRACTICE_WORD_OFF	n/a	n/a	WAGON	-999	-1	[0, 0, 0]	n/a	FR1	3	R1156D
506.074	1.617	68526	PRACTICE_WORD	n/a	n/a	IRON	5	-1	[0, 0, 0]	n/a	FR1	3	R1156D
507.691	0.817	70143	PRACTICE_WORD_OFF	n/a	n/a	IRON	-999	-1	[0, 0, 0]	n/a	FR1	3	R1156D
508.508	1.617	70959	PRACTICE_WORD	n/a	n/a	ATTIC	6	-1	[0, 0, 0]	n/a	FR1	3	R1156D
510.125	1.0	72576	PRACTICE_WORD_OFF	n/a	n/a	ATTIC	-999	-1	[0, 0, 0]	n/a	FR1	3	R1156D
511.125	1.617	73576	PRACTICE_WORD	n/a	n/a	COTTON	7	-1	[0, 0, 0]	n/a	FR1	3	R1156D
512.742	0.917	75193	PRACTICE_WORD_OFF	n/a	n/a	COTTON	-999	-1	[0, 0, 0]	n/a	FR1	3	R1156D
513.659	1.617	76110	PRACTICE_WORD	n/a	n/a	CHEST	8	-1	[0, 0, 0]	n/a	FR1	3	R1156D
515.276	1.0	77727	PRACTICE_WORD_OFF	n/a	n/a	CHEST	-999	-1	[0, 0, 0]	n/a	FR1	3	R1156D
516.276	1.617	78727	PRACTICE_WORD	n/a	n/a	FLOOD	9	-1	[0, 0, 0]	n/a	FR1	3	R1156D
517.893	0.9	80344	PRACTICE_WORD_OFF	n/a	n/a	FLOOD	-999	-1	[0, 0, 0]	n/a	FR1	3	R1156D
518.793	1.617	81244	PRACTICE_WORD	n/a	n/a	TONGUE	10	-1	[0, 0, 0]	n/a	FR1	3	R1156D
520.41	1.0	82861	PRACTICE_WORD_OFF	n/a	n/a	TONGUE	-999	-1	[0, 0, 0]	n/a	FR1	3	R1156D
521.41	1.617	83861	PRACTICE_WORD	n/a	n/a	RING	11	-1	[0, 0, 0]	n/a	FR1	3	R1156D
523.027	0.833	85478	PRACTICE_WORD_OFF	n/a	n/a	RING	-999	-1	[0, 0, 0]	n/a	FR1	3	R1156D
523.86	1.617	86311	PRACTICE_WORD	n/a	n/a	CAMEL	12	-1	[0, 0, 0]	n/a	FR1	3	R1156D
525.477	0.0	87928	PRACTICE_WORD_OFF	n/a	n/a	CAMEL	-999	-1	[0, 0, 0]	n/a	FR1	3	R1156D
525.477	0.001	87928	DISTRACT_START	n/a	n/a	n/a	-999	-1	[0, 0, 0]	n/a	FR1	3	R1156D
525.478	0.016	87929	START	n/a	n/a	n/a	-999	1	[-999, -999, -999]	n/a	FR1	3	R1156D
525.494	4.668	87945	PROB	4.668	n/a	n/a	-999	1	[9, 7, 8]	24	FR1	3	R1156D
530.162	3.617	92612	PROB	3.617	n/a	n/a	-999	1	[3, 3, 9]	15	FR1	3	R1156D
533.779	3.051	96229	PROB	3.051	n/a	n/a	-999	1	[1, 2, 3]	6	FR1	3	R1156D
536.83	3.3	99280	PROB	3.3	n/a	n/a	-999	1	[7, 2, 8]	17	FR1	3	R1156D
540.13	3.101	102580	PROB	3.101	n/a	n/a	-999	1	[4, 7, 3]	14	FR1	3	R1156D
543.231	2.733	105681	PROB	2.733	n/a	n/a	-999	1	[4, 3, 7]	14	FR1	3	R1156D
545.964	0.017	108413	STOP	n/a	n/a	n/a	-999	1	[-999, -999, -999]	n/a	FR1	3	R1156D
545.981	0.684	108430	DISTRACT_END	n/a	n/a	n/a	-999	-1	[0, 0, 0]	n/a	FR1	3	R1156D
546.665	0.517	109114	RETRIEVAL_ORIENT	n/a	n/a	n/a	-999	-1	[0, 0, 0]	n/a	FR1	3	R1156D
547.182	30.012	109631	PRACTICE_REC_START	n/a	n/a	n/a	-999	-1	[0, 0, 0]	n/a	FR1	3	R1156D
577.194	12.645	139642	PRACTICE_REC_END	n/a	n/a	n/a	-999	-1	[0, 0, 0]	n/a	FR1	3	R1156D
589.839	0.5	152286	TRIAL	n/a	n/a	n/a	-999	1	[0, 0, 0]	n/a	FR1	3	R1156D
590.339	10.428	152786	COUNTDOWN_START	n/a	n/a	n/a	-999	1	[0, 0, 0]	n/a	FR1	3	R1156D
600.767	0.008	163214	COUNTDOWN_END	n/a	n/a	n/a	-999	1	[0, 0, 0]	n/a	FR1	3	R1156D
600.775	1.617	163222	ORIENT	n/a	n/a	n/a	-999	1	[0, 0, 0]	n/a	FR1	3	R1156D
602.392	2.183	164838	ORIENT_OFF	n/a	n/a	n/a	-999	1	[0, 0, 0]	n/a	FR1	3	R1156D
604.575	1.617	167021	WORD	n/a	wordpools/wordpool_EN.txt	FISH	1	1	[0, 0, 0]	n/a	FR1	3	R1156D
606.192	0.867	168638	WORD_OFF	n/a	n/a	FISH	1	1	[0, 0, 0]	n/a	FR1	3	R1156D
607.059	1.617	169505	WORD	n/a	wordpools/wordpool_EN.txt	JEEP	2	1	[0, 0, 0]	n/a	FR1	3	R1156D
608.676	0.8	171122	WORD_OFF	n/a	n/a	JEEP	2	1	[0, 0, 0]	n/a	FR1	3	R1156D
609.476	1.617	171922	WORD	n/a	wordpools/wordpool_EN.txt	SHARK	3	1	[0, 0, 0]	n/a	FR1	3	R1156D
611.093	0.8	173539	WORD_OFF	n/a	n/a	SHARK	3	1	[0, 0, 0]	n/a	FR1	3	R1156D
611.893	1.617	174339	WORD	n/a	wordpools/wordpool_EN.txt	LAKE	4	1	[0, 0, 0]	n/a	FR1	3	R1156D
613.51	0.95	175956	WORD_OFF	n/a	n/a	LAKE	4	1	[0, 0, 0]	n/a	FR1	3	R1156D
614.46	1.617	176906	WORD	n/a	wordpools/wordpool_EN.txt	CHIEF	5	1	[0, 0, 0]	n/a	FR1	3	R1156D
616.077	1.017	178523	WORD_OFF	n/a	n/a	CHIEF	5	1	[0, 0, 0]	n/a	FR1	3	R1156D
617.094	1.617	179540	WORD	n/a	wordpools/wordpool_EN.txt	COIN	6	1	[0, 0, 0]	n/a	FR1	3	R1156D
618.711	0.884	181157	WORD_OFF	n/a	n/a	COIN	6	1	[0, 0, 0]	n/a	FR1	3	R1156D
619.595	1.617	182041	WORD	n/a	wordpools/wordpool_EN.txt	TRAIN	7	1	[0, 0, 0]	n/a	FR1	3	R1156D
621.212	0.833	183657	WORD_OFF	n/a	n/a	TRAIN	7	1	[0, 0, 0]	n/a	FR1	3	R1156D
622.045	1.617	184490	WORD	n/a	wordpools/wordpool_EN.txt	POOL	8	1	[0, 0, 0]	n/a	FR1	3	R1156D
623.662	1.0	186107	WORD_OFF	n/a	n/a	POOL	8	1	[0, 0, 0]	n/a	FR1	3	R1156D
624.662	1.617	187107	WORD	n/a	wordpools/wordpool_EN.txt	SPEAR	9	1	[0, 0, 0]	n/a	FR1	3	R1156D
626.279	0.817	188724	WORD_OFF	n/a	n/a	SPEAR	9	1	[0, 0, 0]	n/a	FR1	3	R1156D
627.096	1.617	189541	WORD	n/a	wordpools/wordpool_EN.txt	SPONGE	10	1	[0, 0, 0]	n/a	FR1	3	R1156D
628.713	0.95	191158	WORD_OFF	n/a	n/a	SPONGE	10	1	[0, 0, 0]	n/a	FR1	3	R1156D
629.663	1.617	192108	WORD	n/a	wordpools/wordpool_EN.txt	SEAT	11	1	[0, 0, 0]	n/a	FR1	3	R1156D
631.28	0.85	193725	WORD_OFF	n/a	n/a	SEAT	11	1	[0, 0, 0]	n/a	FR1	3	R1156D
632.13	1.617	194575	WORD	n/a	wordpools/wordpool_EN.txt	CAR	12	1	[0, 0, 0]	n/a	FR1	3	R1156D
633.747	0.0	196192	WORD_OFF	n/a	n/a	CAR	12	1	[0, 0, 0]	n/a	FR1	3	R1156D
633.747	0.001	196192	DISTRACT_START	n/a	n/a	n/a	-999	1	[0, 0, 0]	n/a	FR1	3	R1156D
633.748	0.016	196193	START	n/a	n/a	n/a	-999	2	[-999, -999, -999]	n/a	FR1	3	R1156D
633.764	4.351	196209	PROB	4.351	n/a	n/a	-999	2	[7, 6, 2]	15	FR1	3	R1156D
638.115	2.6	200560	PROB	2.6	n/a	n/a	-999	2	[1, 6, 5]	12	FR1	3	R1156D
640.715	4.884	203159	PROB	4.884	n/a	n/a	-999	2	[9, 8, 6]	24	FR1	3	R1156D
645.599	3.751	208043	PROB	3.751	n/a	n/a	-999	2	[2, 8, 9]	19	FR1	3	R1156D
649.35	4.99	211794	PROB	4.99	n/a	n/a	-999	2	[4, 6, 6]	16	FR1	3	R1156D
654.34	0.011	216784	STOP	n/a	n/a	n/a	-999	2	[-999, -999, -999]	n/a	FR1	3	R1156D
654.351	0.684	216795	DISTRACT_END	n/a	n/a	n/a	-999	1	[0, 0, 0]	n/a	FR1	3	R1156D
655.035	0.517	217479	RETRIEVAL_ORIENT	n/a	n/a	n/a	-999	1	[0, 0, 0]	n/a	FR1	3	R1156D
655.552	2.803	217996	REC_START	n/a	n/a	n/a	-999	1	[0, 0, 0]	n/a	FR1	3	R1156D
658.355	3.941	220799	REC_WORD_VV	3.941	n/a	<>	-999	1	[0, 0, 0]	n/a	FR1	3	R1156D
662.296	0.121	224739	REC_WORD_VV	0.121	n/a	<>	-999	1	[0, 0, 0]	n/a	FR1	3	R1156D
662.417	2.727	224860	REC_WORD	2.727	n/a	COIN	6	1	[0, 0, 0]	n/a	FR1	3	R1156D
665.144	6.035	227587	REC_WORD	6.035	n/a	TRAIN	7	1	[0, 0, 0]	n/a	FR1	3	R1156D
671.179	3.71	233622	REC_WORD	3.71	n/a	POOL	8	1	[0, 0, 0]	n/a	FR1	3	R1156D
674.889	1.534	237332	REC_WORD_VV	1.534	n/a	<>	-999	1	[0, 0, 0]	n/a	FR1	3	R1156D
676.423	1.484	238866	REC_WORD	1.484	n/a	CHIEF	5	1	[0, 0, 0]	n/a	FR1	3	R1156D
677.907	1.0	240349	REC_WORD_VV	1.0	n/a	<>	-999	1	[0, 0, 0]	n/a	FR1	3	R1156D
678.907	6.653	241349	REC_WORD_VV	6.653	n/a	<>	-999	1	[0, 0, 0]	n/a	FR1	3	R1156D
685.56	5.181	248002	REC_END	n/a	n/a	n/a	-999	1	[0, 0, 0]	n/a	FR1	3	R1156D
690.741	0.5	253183	TRIAL	n/a	n/a	n/a	-999	2	[0, 0, 0]	n/a	FR1	3	R1156D
691.241	10.428	253683	COUNTDOWN_START	n/a	n/a	n/a	-999	2	[0, 0, 0]	n/a	FR1	3	R1156D
701.669	0.007	264110	COUNTDOWN_END	n/a	n/a	n/a	-999	2	[0, 0, 0]	n/a	FR1	3	R1156D
701.676	1.617	264117	ORIENT	n/a	n/a	n/a	-999	2	[0, 0, 0]	n/a	FR1	3	R1156D
703.293	2.217	265734	ORIENT_OFF	n/a	n/a	n/a	-999	2	[0, 0, 0]	n/a	FR1	3	R1156D
705.51	1.617	267951	WORD	n/a	wordpools/wordpool_EN.txt	BENCH	1	2	[0, 0, 0]	n/a	FR1	3	R1156D
707.127	0.967	269568	WORD_OFF	n/a	n/a	BENCH	1	2	[0, 0, 0]	n/a	FR1	3	R1156D
708.094	1.617	270535	WORD	n/a	wordpools/wordpool_EN.txt	CLOTH	2	2	[0, 0, 0]	n/a	FR1	3	R1156D
709.711	0.967	272152	WORD_OFF	n/a	n/a	CLOTH	2	2	[0, 0, 0]	n/a	FR1	3	R1156D
710.678	1.617	273119	WORD	n/a	wordpools/wordpool_EN.txt	PEACH	3	2	[0, 0, 0]	n/a	FR1	3	R1156D
712.295	0.85	274736	WORD_OFF	n/a	n/a	PEACH	3	2	[0, 0, 0]	n/a	FR1	3	R1156D
713.145	1.617	275586	WORD	n/a	wordpools/wordpool_EN.txt	SCHOOL	4	2	[0, 0, 0]	n/a	FR1	3	R1156D
714.762	0.884	277203	WORD_OFF	n/a	n/a	SCHOOL	4	2	[0, 0, 0]	n/a	FR1	3	R1156D
715.646	1.617	278086	WORD	n/a	wordpools/wordpool_EN.txt	WHALE	5	2	[0, 0, 0]	n/a	FR1	3	R1156D
717.263	0.833	279703	WORD_OFF	n/a	n/a	WHALE	5	2	[0, 0, 0]	n/a	FR1	3	R1156D
718.096	1.617	280536	WORD	n/a	wordpools/wordpool_EN.txt	HORN	6	2	[0, 0, 0]	n/a	FR1	3	R1156D
719.713	0.917	282153	WORD_OFF	n/a	n/a	HORN	6	2	[0, 0, 0]	n/a	FR1	3	R1156D
720.63	1.617	283070	WORD	n/a	wordpools/wordpool_EN.txt	LOCK	7	2	[0, 0, 0]	n/a	FR1	3	R1156D
722.247	0.95	284687	WORD_OFF	n/a	n/a	LOCK	7	2	[0, 0, 0]	n/a	FR1	3	R1156D
723.197	1.617	285637	WORD	n/a	wordpools/wordpool_EN.txt	STOVE	8	2	[0, 0, 0]	n/a	FR1	3	R1156D
724.814	0.767	287254	WORD_OFF	n/a	n/a	STOVE	8	2	[0, 0, 0]	n/a	FR1	3	R1156D
725.581	1.617	288021	WORD	n/a	wordpools/wordpool_EN.txt	NAIL	9	2	[0, 0, 0]	n/a	FR1	3	R1156D
727.198	0.9	289638	WORD_OFF	n/a	n/a	NAIL	9	2	[0, 0, 0]	n/a	FR1	3	R1156D
728.098	1.617	290538	WORD	n/a	wordpools/wordpool_EN.txt	WALL	10	2	[0, 0, 0]	n/a	FR1	3	R1156D
729.715	0.85	292155	WORD_OFF	n/a	n/a	WALL	10	2	[0, 0, 0]	n/a	FR1	3	R1156D
730.565	1.617	293005	WORD	n/a	wordpools/wordpool_EN.txt	BOARD	11	2	[0, 0, 0]	n/a	FR1	3	R1156D
732.182	0.766	294622	WORD_OFF	n/a	n/a	BOARD	11	2	[0, 0, 0]	n/a	FR1	3	R1156D
732.948	1.618	295388	WORD	n/a	wordpools/wordpool_EN.txt	VINE	12	2	[0, 0, 0]	n/a	FR1	3	R1156D
734.566	0.0	297005	WORD_OFF	n/a	n/a	VINE	12	2	[0, 0, 0]	n/a	FR1	3	R1156D
734.566	0.0	297005	DISTRACT_START	n/a	n/a	n/a	-999	2	[0, 0, 0]	n/a	FR1	3	R1156D
734.566	0.016	297005	START	n/a	n/a	n/a	-999	3	[-999, -999, -999]	n/a	FR1	3	R1156D
734.582	3.201	297021	PROB	3.201	n/a	n/a	-999	3	[8, 2, 1]	11	FR1	3	R1156D
737.783	2.717	300222	PROB	2.717	n/a	n/a	-999	3	[7, 6, 3]	16	FR1	3	R1156D
740.5	3.868	302939	PROB	3.868	n/a	n/a	-999	3	[9, 4, 2]	15	FR1	3	R1156D
744.368	2.917	306807	PROB	2.917	n/a	n/a	-999	3	[1, 4, 7]	12	FR1	3	R1156D
747.285	3.067	309724	PROB	3.067	n/a	n/a	-999	3	[4, 9, 6]	19	FR1	3	R1156D
750.352	3.284	312791	PROB	3.284	n/a	n/a	-999	3	[8, 9, 2]	19	FR1	3	R1156D
753.636	4.961	316074	PROB	4.961	n/a	n/a	-999	3	[7, 9, 8]	24	FR1	3	R1156D
758.597	0.006	321035	STOP	n/a	n/a	n/a	-999	3	[-999, -999, -999]	n/a	FR1	3	R1156D
758.603	0.701	321041	DISTRACT_END	n/a	n/a	n/a	-999	2	[0, 0, 0]	n/a	FR1	3	R1156D
759.304	0.517	321742	RETRIEVAL_ORIENT	n/a	n/a	n/a	-999	2	[0, 0, 0]	n/a	FR1	3	R1156D
759.821	7.774	322259	REC_START	n/a	n/a	n/a	-999	2	[0, 0, 0]	n/a	FR1	3	R1156D
767.595	0.283	330033	REC_WORD_VV	0.283	n/a	<>	-999	2	[0, 0, 0]	n/a	FR1	3	R1156D
767.878	0.596	330316	REC_WORD	0.596	n/a	NAIL	9	2	[0, 0, 0]	n/a	FR1	3	R1156D
768.474	1.0	330912	REC_WORD_VV	1.0	n/a	<>	-999	2	[0, 0, 0]	n/a	FR1	3	R1156D
769.474	2.426	331912	REC_WORD_VV	2.426	n/a	<>	-999	2	[0, 0, 0]	n/a	FR1	3	R1156D
771.9	10.937	334337	REC_WORD_VV	10.937	n/a	<>	-999	2	[0, 0, 0]	n/a	FR1	3	R1156D
782.837	0.824	345274	REC_WORD_VV	0.824	n/a	<>	-999	2	[0, 0, 0]	n/a	FR1	3	R1156D
783.661	0.765	346098	REC_WORD	0.765	n/a	NAIL	9	2	[0, 0, 0]	n/a	FR1	3	R1156D
784.426	5.407	346863	REC_WORD_VV	5.407	n/a	<>	-999	2	[0, 0, 0]	n/a	FR1	3	R1156D
789.833	92.543	352270	REC_END	n/a	n/a	n/a	-999	2	[0, 0, 0]	n/a	FR1	3	R1156D
882.376	0.5	444808	TRIAL	n/a	n/a	n/a	-999	3	[0, 0, 0]	n/a	FR1	3	R1156D
882.876	10.428	445308	COUNTDOWN_START	n/a	n/a	n/a	-999	3	[0, 0, 0]	n/a	FR1	3	R1156D
893.304	0.008	455735	COUNTDOWN_END	n/a	n/a	n/a	-999	3	[0, 0, 0]	n/a	FR1	3	R1156D
893.312	1.615	455743	ORIENT	n/a	n/a	n/a	-999	3	[0, 0, 0]	n/a	FR1	3	R1156D
894.927	1.967	457358	ORIENT_OFF	n/a	n/a	n/a	-999	3	[0, 0, 0]	n/a	FR1	3	R1156D
896.894	1.602	459325	WORD	n/a	wordpools/wordpool_EN.txt	POND	1	3	[0, 0, 0]	n/a	FR1	3	R1156D
898.496	0.783	460927	WORD_OFF	n/a	n/a	POND	1	3	[0, 0, 0]	n/a	FR1	3	R1156D
899.279	1.616	461710	WORD	n/a	wordpools/wordpool_EN.txt	CHALK	2	3	[0, 0, 0]	n/a	FR1	3	R1156D
900.895	0.785	463326	WORD_OFF	n/a	n/a	CHALK	2	3	[0, 0, 0]	n/a	FR1	3	R1156D
901.68	1.617	464111	WORD	n/a	wordpools/wordpool_EN.txt	BED	3	3	[0, 0, 0]	n/a	FR1	3	R1156D
903.297	0.933	465727	WORD_OFF	n/a	n/a	BED	3	3	[0, 0, 0]	n/a	FR1	3	R1156D
904.23	1.617	466660	WORD	n/a	wordpools/wordpool_EN.txt	SHRIMP	4	3	[0, 0, 0]	n/a	FR1	3	R1156D
905.847	0.85	468277	WORD_OFF	n/a	n/a	SHRIMP	4	3	[0, 0, 0]	n/a	FR1	3	R1156D
906.697	1.617	469127	WORD	n/a	wordpools/wordpool_EN.txt	TRASH	5	3	[0, 0, 0]	n/a	FR1	3	R1156D
908.314	1.0	470744	WORD_OFF	n/a	n/a	TRASH	5	3	[0, 0, 0]	n/a	FR1	3	R1156D
909.314	1.616	471744	WORD	n/a	wordpools/wordpool_EN.txt	ROCK	6	3	[0, 0, 0]	n/a	FR1	3	R1156D
910.93	0.901	473360	WORD_OFF	n/a	n/a	ROCK	6	3	[0, 0, 0]	n/a	FR1	3	R1156D
911.831	1.618	474261	WORD	n/a	wordpools/wordpool_EN.txt	CORD	7	3	[0, 0, 0]	n/a	FR1	3	R1156D
913.449	0.9	475879	WORD_OFF	n/a	n/a	CORD	7	3	[0, 0, 0]	n/a	FR1	3	R1156D
914.349	1.616	476779	WORD	n/a	wordpools/wordpool_EN.txt	FILM	8	3	[0, 0, 0]	n/a	FR1	3	R1156D
915.965	0.95	478395	WORD_OFF	n/a	n/a	FILM	8	3	[0, 0, 0]	n/a	FR1	3	R1156D
916.915	1.618	479345	WORD	n/a	wordpools/wordpool_EN.txt	SLUSH	9	3	[0, 0, 0]	n/a	FR1	3	R1156D
918.533	0.883	480963	WORD_OFF	n/a	n/a	SLUSH	9	3	[0, 0, 0]	n/a	FR1	3	R1156D
919.416	1.617	481846	WORD	n/a	wordpools/wordpool_EN.txt	NEST	10	3	[0, 0, 0]	n/a	FR1	3	R1156D
921.033	0.933	483463	WORD_OFF	n/a	n/a	NEST	10	3	[0, 0, 0]	n/a	FR1	3	R1156D
921.966	1.601	484395	WORD	n/a	wordpools/wordpool_EN.txt	MOTH	11	3	[0, 0, 0]	n/a	FR1	3	R1156D
923.567	1.017	485996	WORD_OFF	n/a	n/a	MOTH	11	3	[0, 0, 0]	n/a	FR1	3	R1156D
924.584	1.617	487013	WORD	n/a	wordpools/wordpool_EN.txt	GOLD	12	3	[0, 0, 0]	n/a	FR1	3	R1156D
926.201	0.0	488630	DISTRACT_START	n/a	n/a	n/a	-999	3	[0, 0, 0]	n/a	FR1	3	R1156D
926.201	0.0	488630	WORD_OFF	n/a	n/a	GOLD	12	3	[0, 0, 0]	n/a	FR1	3	R1156D
926.201	0.017	488630	START	n/a	n/a	n/a	-999	4	[-999, -999, -999]	n/a	FR1	3	R1156D
926.218	2.933	488647	PROB	2.933	n/a	n/a	-999	4	[9, 2, 9]	20	FR1	3	R1156D
929.151	2.718	491580	PROB	2.718	n/a	n/a	-999	4	[3, 3, 2]	8	FR1	3	R1156D
931.869	3.25	494298	PROB	3.25	n/a	n/a	-999	4	[9, 8, 7]	24	FR1	3	R1156D
935.119	2.8	497548	PROB	2.8	n/a	n/a	-999	4	[3, 5, 1]	9	FR1	3	R1156D
937.919	2.918	500348	PROB	2.918	n/a	n/a	-999	4	[3, 7, 7]	17	FR1	3	R1156D
940.837	3.517	503265	PROB	3.517	n/a	n/a	-999	4	[4, 2, 9]	15	FR1	3	R1156D
944.354	2.435	506782	PROB	2.435	n/a	n/a	-999	4	[3, 1, 4]	8	FR1	3	R1156D
946.789	0.016	509217	STOP	n/a	n/a	n/a	-999	4	[-999, -999, -999]	n/a	FR1	3	R1156D
946.805	0.566	509233	DISTRACT_END	n/a	n/a	n/a	-999	3	[0, 0, 0]	n/a	FR1	3	R1156D
947.371	0.518	509799	RETRIEVAL_ORIENT	n/a	n/a	n/a	-999	3	[0, 0, 0]	n/a	FR1	3	R1156D
947.889	11.987	510317	REC_START	n/a	n/a	n/a	-999	3	[0, 0, 0]	n/a	FR1	3	R1156D
959.876	12.149	522303	REC_WORD	12.149	n/a	POND	1	3	[0, 0, 0]	n/a	FR1	3	R1156D
972.025	5.874	534452	REC_WORD	5.874	n/a	NEST	10	3	[0, 0, 0]	n/a	FR1	3	R1156D
977.899	4.829	540326	REC_END	n/a	n/a	n/a	-999	3	[0, 0, 0]	n/a	FR1	3	R1156D
982.728	0.5	545154	TRIAL	n/a	n/a	n/a	-999	4	[0, 0, 0]	n/a	FR1	3	R1156D
983.228	10.428	545654	COUNTDOWN_START	n/a	n/a	n/a	-999	4	[0, 0, 0]	n/a	FR1	3	R1156D
993.656	0.007	556082	COUNTDOWN_END	n/a	n/a	n/a	-999	4	[0, 0, 0]	n/a	FR1	3	R1156D
993.663	1.617	556089	ORIENT	n/a	n/a	n/a	-999	4	[0, 0, 0]	n/a	FR1	3	R1156D
995.28	2.267	557706	ORIENT_OFF	n/a	n/a	n/a	-999	4	[0, 0, 0]	n/a	FR1	3	R1156D
997.547	1.617	559972	WORD	n/a	wordpools/wordpool_EN.txt	WEED	1	4	[0, 0, 0]	n/a	FR1	3	R1156D
999.164	0.983	561589	WORD_OFF	n/a	n/a	WEED	1	4	[0, 0, 0]	n/a	FR1	3	R1156D
1000.147	1.618	562572	WORD	n/a	wordpools/wordpool_EN.txt	DRUM	2	4	[0, 0, 0]	n/a	FR1	3	R1156D
1001.765	0.933	564190	WORD_OFF	n/a	n/a	DRUM	2	4	[0, 0, 0]	n/a	FR1	3	R1156D
1002.698	1.617	565123	WORD	n/a	wordpools/wordpool_EN.txt	STEAM	3	4	[0, 0, 0]	n/a	FR1	3	R1156D
1004.315	0.917	566740	WORD_OFF	n/a	n/a	STEAM	3	4	[0, 0, 0]	n/a	FR1	3	R1156D
1005.232	1.617	567657	WORD	n/a	wordpools/wordpool_EN.txt	VASE	4	4	[0, 0, 0]	n/a	FR1	3	R1156D
1006.849	0.933	569274	WORD_OFF	n/a	n/a	VASE	4	4	[0, 0, 0]	n/a	FR1	3	R1156D
1007.782	1.617	570207	WORD	n/a	wordpools/wordpool_EN.txt	DOLL	5	4	[0, 0, 0]	n/a	FR1	3	R1156D
1009.399	0.901	571824	WORD_OFF	n/a	n/a	DOLL	5	4	[0, 0, 0]	n/a	FR1	3	R1156D
1010.3	1.615	572725	WORD	n/a	wordpools/wordpool_EN.txt	TOAD	6	4	[0, 0, 0]	n/a	FR1	3	R1156D
1011.915	0.818	574340	WORD_OFF	n/a	n/a	TOAD	6	4	[0, 0, 0]	n/a	FR1	3	R1156D
1012.733	1.617	575158	WORD	n/a	wordpools/wordpool_EN.txt	RAT	7	4	[0, 0, 0]	n/a	FR1	3	R1156D
1014.35	0.984	576775	WORD_OFF	n/a	n/a	RAT	7	4	[0, 0, 0]	n/a	FR1	3	R1156D
1015.334	1.616	577759	WORD	n/a	wordpools/wordpool_EN.txt	BOY	8	4	[0, 0, 0]	n/a	FR1	3	R1156D
1016.95	0.901	579374	WORD_OFF	n/a	n/a	BOY	8	4	[0, 0, 0]	n/a	FR1	3	R1156D
1017.851	1.617	580275	WORD	n/a	wordpools/wordpool_EN.txt	JUDGE	9	4	[0, 0, 0]	n/a	FR1	3	R1156D
1019.468	0.767	581892	WORD_OFF	n/a	n/a	JUDGE	9	4	[0, 0, 0]	n/a	FR1	3	R1156D
1020.235	1.617	582659	WORD	n/a	wordpools/wordpool_EN.txt	SKI	10	4	[0, 0, 0]	n/a	FR1	3	R1156D
1021.852	0.983	584276	WORD_OFF	n/a	n/a	SKI	10	4	[0, 0, 0]	n/a	FR1	3	R1156D
1022.835	1.617	585259	WORD	n/a	wordpools/wordpool_EN.txt	MILK	11	4	[0, 0, 0]	n/a	FR1	3	R1156D
1024.452	0.9	586876	WORD_OFF	n/a	n/a	MILK	11	4	[0, 0, 0]	n/a	FR1	3	R1156D
1025.352	1.617	587776	WORD	n/a	wordpools/wordpool_EN.txt	RICE	12	4	[0, 0, 0]	n/a	FR1	3	R1156D
1026.969	0.0	589393	WORD_OFF	n/a	n/a	RICE	12	4	[0, 0, 0]	n/a	FR1	3	R1156D
1026.969	0.001	589393	DISTRACT_START	n/a	n/a	n/a	-999	4	[0, 0, 0]	n/a	FR1	3	R1156D
1026.97	0.016	589394	START	n/a	n/a	n/a	-999	5	[-999, -999, -999]	n/a	FR1	3	R1156D
1026.986	2.434	589410	PROB	2.434	n/a	n/a	-999	5	[4, 4, 1]	9	FR1	3	R1156D
1029.42	4.101	591844	PROB	4.101	n/a	n/a	-999	5	[7, 5, 6]	18	FR1	3	R1156D
1033.521	5.017	595945	PROB	5.017	n/a	n/a	-999	5	[4, 8, 9]	21	FR1	3	R1156D
1038.538	4.034	600961	PROB	4.034	n/a	n/a	-999	5	[3, 9, 6]	18	FR1	3	R1156D
1042.572	2.884	604995	PROB	2.884	n/a	n/a	-999	5	[8, 9, 4]	21	FR1	3	R1156D
1045.456	2.853	607879	PROB	2.853	n/a	n/a	-999	5	[6, 8, 2]	16	FR1	3	R1156D
1048.309	0.014	610732	STOP	n/a	n/a	n/a	-999	5	[-999, -999, -999]	n/a	FR1	3	R1156D
1048.323	0.684	610746	DISTRACT_END	n/a	n/a	n/a	-999	4	[0, 0, 0]	n/a	FR1	3	R1156D
1049.007	0.517	611430	RETRIEVAL_ORIENT	n/a	n/a	n/a	-999	4	[0, 0, 0]	n/a	FR1	3	R1156D
1049.524	1.337	611947	REC_START	n/a	n/a	n/a	-999	4	[0, 0, 0]	n/a	FR1	3	R1156D
1050.861	1.446	613284	REC_WORD	1.446	n/a	WEED	1	4	[0, 0, 0]	n/a	FR1	3	R1156D
1052.307	1.136	614730	REC_WORD	1.136	n/a	MILK	11	4	[0, 0, 0]	n/a	FR1	3	R1156D
1053.443	2.146	615865	REC_WORD	2.146	n/a	BOY	8	4	[0, 0, 0]	n/a	FR1	3	R1156D
1055.589	12.086	618011	REC_WORD_VV	12.086	n/a	<>	-999	4	[0, 0, 0]	n/a	FR1	3	R1156D
1067.675	11.858	630097	REC_WORD_VV	11.858	n/a	<>	-999	4	[0, 0, 0]	n/a	FR1	3	R1156D
1079.533	30.318	641954	REC_END	n/a	n/a	n/a	-999	4	[0, 0, 0]	n/a	FR1	3	R1156D
1109.851	0.5	672270	TRIAL	n/a	n/a	n/a	-999	5	[0, 0, 0]	n/a	FR1	3	R1156D
1110.351	10.428	672770	COUNTDOWN_START	n/a	n/a	n/a	-999	5	[0, 0, 0]	n/a	FR1	3	R1156D
1120.779	0.008	683198	COUNTDOWN_END	n/a	n/a	n/a	-999	5	[0, 0, 0]	n/a	FR1	3	R1156D
1120.787	1.616	683206	ORIENT	n/a	n/a	n/a	-999	5	[0, 0, 0]	n/a	FR1	3	R1156D
1122.403	2.201	684822	ORIENT_OFF	n/a	n/a	n/a	-999	5	[0, 0, 0]	n/a	FR1	3	R1156D
1124.604	1.617	687023	WORD	n/a	wordpools/wordpool_EN.txt	SALT	1	5	[0, 0, 0]	n/a	FR1	3	R1156D
1126.221	0.983	688640	WORD_OFF	n/a	n/a	SALT	1	5	[0, 0, 0]	n/a	FR1	3	R1156D
1127.204	1.617	689623	WORD	n/a	wordpools/wordpool_EN.txt	CORN	2	5	[0, 0, 0]	n/a	FR1	3	R1156D
1128.821	0.85	691239	WORD_OFF	n/a	n/a	CORN	2	5	[0, 0, 0]	n/a	FR1	3	R1156D
1129.671	1.617	692089	WORD	n/a	wordpools/wordpool_EN.txt	HAT	3	5	[0, 0, 0]	n/a	FR1	3	R1156D
1131.288	0.784	693706	WORD_OFF	n/a	n/a	HAT	3	5	[0, 0, 0]	n/a	FR1	3	R1156D
1132.072	1.617	694490	WORD	n/a	wordpools/wordpool_EN.txt	STAR	4	5	[0, 0, 0]	n/a	FR1	3	R1156D
1133.689	0.917	696107	WORD_OFF	n/a	n/a	STAR	4	5	[0, 0, 0]	n/a	FR1	3	R1156D
1134.606	1.617	697024	WORD	n/a	wordpools/wordpool_EN.txt	WING	5	5	[0, 0, 0]	n/a	FR1	3	R1156D
1136.223	0.95	698641	WORD_OFF	n/a	n/a	WING	5	5	[0, 0, 0]	n/a	FR1	3	R1156D
1137.173	1.617	699591	WORD	n/a	wordpools/wordpool_EN.txt	SMOKE	6	5	[0, 0, 0]	n/a	FR1	3	R1156D
1138.79	0.817	701208	WORD_OFF	n/a	n/a	SMOKE	6	5	[0, 0, 0]	n/a	FR1	3	R1156D
1139.607	1.616	702025	WORD	n/a	wordpools/wordpool_EN.txt	ANT	7	5	[0, 0, 0]	n/a	FR1	3	R1156D
1141.223	0.917	703641	WORD_OFF	n/a	n/a	ANT	7	5	[0, 0, 0]	n/a	FR1	3	R1156D
1142.14	1.617	704558	WORD	n/a	wordpools/wordpool_EN.txt	WORM	8	5	[0, 0, 0]	n/a	FR1	3	R1156D
1143.757	1.0	706175	WORD_OFF	n/a	n/a	WORM	8	5	[0, 0, 0]	n/a	FR1	3	R1156D
1144.757	1.617	707175	WORD	n/a	wordpools/wordpool_EN.txt	CASH	9	5	[0, 0, 0]	n/a	FR1	3	R1156D
1146.374	0.917	708792	WORD_OFF	n/a	n/a	CASH	9	5	[0, 0, 0]	n/a	FR1	3	R1156D
1147.291	1.616	709709	WORD	n/a	wordpools/wordpool_EN.txt	DART	10	5	[0, 0, 0]	n/a	FR1	3	R1156D
1148.907	0.985	711324	WORD_OFF	n/a	n/a	DART	10	5	[0, 0, 0]	n/a	FR1	3	R1156D
1149.892	1.617	712309	WORD	n/a	wordpools/wordpool_EN.txt	SEAL	11	5	[0, 0, 0]	n/a	FR1	3	R1156D
1151.509	0.967	713926	WORD_OFF	n/a	n/a	SEAL	11	5	[0, 0, 0]	n/a	FR1	3	R1156D
1152.476	1.617	714893	WORD	n/a	wordpools/wordpool_EN.txt	GLOVE	12	5	[0, 0, 0]	n/a	FR1	3	R1156D
1154.093	0.0	716510	WORD_OFF	n/a	n/a	GLOVE	12	5	[0, 0, 0]	n/a	FR1	3	R1156D
1154.093	0.0	716510	DISTRACT_START	n/a	n/a	n/a	-999	5	[0, 0, 0]	n/a	FR1	3	R1156D
1154.093	0.016	716510	START	n/a	n/a	n/a	-999	6	[-999, -999, -999]	n/a	FR1	3	R1156D
1154.109	2.551	716526	PROB	2.551	n/a	n/a	-999	6	[1, 1, 6]	8	FR1	3	R1156D
1156.66	2.95	719077	PROB	2.95	n/a	n/a	-999	6	[5, 4, 3]	12	FR1	3	R1156D
1159.61	2.534	722027	PROB	2.534	n/a	n/a	-999	6	[5, 1, 6]	12	FR1	3	R1156D
1162.144	3.201	724561	PROB	3.201	n/a	n/a	-999	6	[3, 3, 6]	12	FR1	3	R1156D
1165.345	3.7	727762	PROB	3.7	n/a	n/a	-999	6	[8, 9, 8]	25	FR1	3	R1156D
1169.045	3.518	731461	PROB	3.518	n/a	n/a	-999	6	[9, 8, 1]	18	FR1	3	R1156D
1172.563	3.546	734979	PROB	3.546	n/a	n/a	-999	6	[5, 7, 4]	16	FR1	3	R1156D
1176.109	0.021	738525	STOP	n/a	n/a	n/a	-999	6	[-999, -999, -999]	n/a	FR1	3	R1156D
1176.13	0.633	738546	DISTRACT_END	n/a	n/a	n/a	-999	5	[0, 0, 0]	n/a	FR1	3	R1156D
1176.763	0.518	739179	RETRIEVAL_ORIENT	n/a	n/a	n/a	-999	5	[0, 0, 0]	n/a	FR1	3	R1156D
1177.281	3.917	739697	REC_START	n/a	n/a	n/a	-999	5	[0, 0, 0]	n/a	FR1	3	R1156D
1181.198	2.462	743614	REC_WORD	2.462	n/a	SMOKE	6	5	[0, 0, 0]	n/a	FR1	3	R1156D
1183.66	2.247	746076	REC_WORD	2.247	n/a	ANT	7	5	[0, 0, 0]	n/a	FR1	3	R1156D
1185.907	8.545	748322	REC_WORD_VV	8.545	n/a	<>	-999	5	[0, 0, 0]	n/a	FR1	3	R1156D
1194.452	0.3	756867	REC_WORD_VV	0.3	n/a	<>	-999	5	[0, 0, 0]	n/a	FR1	3	R1156D
1194.752	0.608	757167	REC_WORD	0.608	n/a	MILK	-999	5	[0, 0, 0]	n/a	FR1	3	R1156D
1195.36	11.931	757775	REC_WORD_VV	11.931	n/a	<>	-999	5	[0, 0, 0]	n/a	FR1	3	R1156D
1207.291	6.413	769705	REC_END	n/a	n/a	n/a	-999	5	[0, 0, 0]	n/a	FR1	3	R1156D
1213.704	0.5	776118	TRIAL	n/a	n/a	n/a	-999	6	[0, 0, 0]	n/a	FR1	3	R1156D
1214.204	10.428	776618	COUNTDOWN_START	n/a	n/a	n/a	-999	6	[0, 0, 0]	n/a	FR1	3	R1156D
1224.632	0.007	787045	COUNTDOWN_END	n/a	n/a	n/a	-999	6	[0, 0, 0]	n/a	FR1	3	R1156D
1224.639	1.617	787052	ORIENT	n/a	n/a	n/a	-999	6	[0, 0, 0]	n/a	FR1	3	R1156D
1226.256	2.184	788669	ORIENT_OFF	n/a	n/a	n/a	-999	6	[0, 0, 0]	n/a	FR1	3	R1156D
1228.44	1.616	790853	WORD	n/a	wordpools/wordpool_EN.txt	SINK	1	6	[0, 0, 0]	n/a	FR1	3	R1156D
1230.056	0.883	792469	WORD_OFF	n/a	n/a	SINK	1	6	[0, 0, 0]	n/a	FR1	3	R1156D
1230.939	1.618	793352	WORD	n/a	wordpools/wordpool_EN.txt	LAMB	2	6	[0, 0, 0]	n/a	FR1	3	R1156D
1232.557	1.0	794970	WORD_OFF	n/a	n/a	LAMB	2	6	[0, 0, 0]	n/a	FR1	3	R1156D
1233.557	1.617	795970	WORD	n/a	wordpools/wordpool_EN.txt	TOAST	3	6	[0, 0, 0]	n/a	FR1	3	R1156D
1235.174	0.9	797587	WORD_OFF	n/a	n/a	TOAST	3	6	[0, 0, 0]	n/a	FR1	3	R1156D
1236.074	1.617	798487	WORD	n/a	wordpools/wordpool_EN.txt	BIRD	4	6	[0, 0, 0]	n/a	FR1	3	R1156D
1237.691	0.834	800104	WORD_OFF	n/a	n/a	BIRD	4	6	[0, 0, 0]	n/a	FR1	3	R1156D
1238.525	1.617	800938	WORD	n/a	wordpools/wordpool_EN.txt	DOCK	5	6	[0, 0, 0]	n/a	FR1	3	R1156D
1240.142	0.983	802555	WORD_OFF	n/a	n/a	DOCK	5	6	[0, 0, 0]	n/a	FR1	3	R1156D
1241.125	1.617	803538	WORD	n/a	wordpools/wordpool_EN.txt	TAIL	6	6	[0, 0, 0]	n/a	FR1	3	R1156D
1242.742	0.934	805154	WORD_OFF	n/a	n/a	TAIL	6	6	[0, 0, 0]	n/a	FR1	3	R1156D
1243.676	1.617	806088	WORD	n/a	wordpools/wordpool_EN.txt	THUMB	7	6	[0, 0, 0]	n/a	FR1	3	R1156D
1245.293	0.883	807705	WORD_OFF	n/a	n/a	THUMB	7	6	[0, 0, 0]	n/a	FR1	3	R1156D
1246.176	1.617	808588	WORD	n/a	wordpools/wordpool_EN.txt	SKUNK	8	6	[0, 0, 0]	n/a	FR1	3	R1156D
1247.793	0.8	810205	WORD_OFF	n/a	n/a	SKUNK	8	6	[0, 0, 0]	n/a	FR1	3	R1156D
1248.593	1.617	811005	WORD	n/a	wordpools/wordpool_EN.txt	MOLE	9	6	[0, 0, 0]	n/a	FR1	3	R1156D
1250.21	0.884	812622	WORD_OFF	n/a	n/a	MOLE	9	6	[0, 0, 0]	n/a	FR1	3	R1156D
1251.094	1.617	813506	WORD	n/a	wordpools/wordpool_EN.txt	FUDGE	10	6	[0, 0, 0]	n/a	FR1	3	R1156D
1252.711	0.967	815123	WORD_OFF	n/a	n/a	FUDGE	10	6	[0, 0, 0]	n/a	FR1	3	R1156D
1253.678	1.616	816090	WORD	n/a	wordpools/wordpool_EN.txt	CLOWN	11	6	[0, 0, 0]	n/a	FR1	3	R1156D
1255.294	0.951	817706	WORD_OFF	n/a	n/a	CLOWN	11	6	[0, 0, 0]	n/a	FR1	3	R1156D
1256.245	1.617	818657	WORD	n/a	wordpools/wordpool_EN.txt	CAVE	12	6	[0, 0, 0]	n/a	FR1	3	R1156D
1257.862	0.0	820274	WORD_OFF	n/a	n/a	CAVE	12	6	[0, 0, 0]	n/a	FR1	3	R1156D
1257.862	0.0	820274	DISTRACT_START	n/a	n/a	n/a	-999	6	[0, 0, 0]	n/a	FR1	3	R1156D
1257.862	0.016	820274	START	n/a	n/a	n/a	-999	7	[-999, -999, -999]	n/a	FR1	3	R1156D
1257.878	3.218	820290	PROB	3.218	n/a	n/a	-999	7	[9, 8, 7]	24	FR1	3	R1156D
1261.096	3.217	823507	PROB	3.217	n/a	n/a	-999	7	[2, 6, 7]	15	FR1	3	R1156D
1264.313	2.85	826724	PROB	2.85	n/a	n/a	-999	7	[8, 3, 6]	17	FR1	3	R1156D
1267.163	2.684	829574	PROB	2.684	n/a	n/a	-999	7	[9, 9, 4]	22	FR1	3	R1156D
1269.847	2.867	832258	PROB	2.867	n/a	n/a	-999	7	[5, 3, 8]	16	FR1	3	R1156D
1272.714	2.684	835125	PROB	2.684	n/a	n/a	-999	7	[8, 9, 3]	20	FR1	3	R1156D
1275.398	3.199	837809	PROB	3.199	n/a	n/a	-999	7	[4, 9, 4]	17	FR1	3	R1156D
1278.597	0.018	841008	STOP	n/a	n/a	n/a	-999	7	[-999, -999, -999]	n/a	FR1	3	R1156D
1278.615	0.534	841026	DISTRACT_END	n/a	n/a	n/a	-999	6	[0, 0, 0]	n/a	FR1	3	R1156D
1279.149	0.517	841559	RETRIEVAL_ORIENT	n/a	n/a	n/a	-999	6	[0, 0, 0]	n/a	FR1	3	R1156D
1279.666	6.779	842076	REC_START	n/a	n/a	n/a	-999	6	[0, 0, 0]	n/a	FR1	3	R1156D
1286.445	9.837	848855	REC_WORD	9.837	n/a	NAIL	-999	6	[0, 0, 0]	n/a	FR1	3	R1156D
1296.282	9.091	858692	REC_WORD	9.091	n/a	COIN	-999	6	[0, 0, 0]	n/a	FR1	3	R1156D
1305.373	4.303	867782	REC_WORD	4.303	n/a	FUDGE	10	6	[0, 0, 0]	n/a	FR1	3	R1156D
1309.676	5.479	872085	REC_END	n/a	n/a	n/a	-999	6	[0, 0, 0]	n/a	FR1	3	R1156D
1315.155	0.5	877564	TRIAL	n/a	n/a	n/a	-999	7	[0, 0, 0]	n/a	FR1	3	R1156D
1315.655	10.428	878064	COUNTDOWN_START	n/a	n/a	n/a	-999	7	[0, 0, 0]	n/a	FR1	3	R1156D
1326.083	0.008	888491	COUNTDOWN_END	n/a	n/a	n/a	-999	7	[0, 0, 0]	n/a	FR1	3	R1156D
1326.091	1.617	888499	ORIENT	n/a	n/a	n/a	-999	7	[0, 0, 0]	n/a	FR1	3	R1156D
1327.708	2.283	890116	ORIENT_OFF	n/a	n/a	n/a	-999	7	[0, 0, 0]	n/a	FR1	3	R1156D
1329.991	1.617	892399	WORD	n/a	wordpools/wordpool_EN.txt	SUN	1	7	[0, 0, 0]	n/a	FR1	3	R1156D
1331.608	1.001	894016	WORD_OFF	n/a	n/a	SUN	1	7	[0, 0, 0]	n/a	FR1	3	R1156D
1332.609	1.617	895017	WORD	n/a	wordpools/wordpool_EN.txt	DOG	2	7	[0, 0, 0]	n/a	FR1	3	R1156D
1334.226	0.983	896634	WORD_OFF	n/a	n/a	DOG	2	7	[0, 0, 0]	n/a	FR1	3	R1156D
1335.209	1.617	897617	WORD	n/a	wordpools/wordpool_EN.txt	TEA	3	7	[0, 0, 0]	n/a	FR1	3	R1156D
1336.826	0.967	899233	WORD_OFF	n/a	n/a	TEA	3	7	[0, 0, 0]	n/a	FR1	3	R1156D
1337.793	1.617	900200	WORD	n/a	wordpools/wordpool_EN.txt	APE	4	7	[0, 0, 0]	n/a	FR1	3	R1156D
1339.41	0.9	901817	WORD_OFF	n/a	n/a	APE	4	7	[0, 0, 0]	n/a	FR1	3	R1156D
1340.31	1.616	902717	WORD	n/a	wordpools/wordpool_EN.txt	SOCK	5	7	[0, 0, 0]	n/a	FR1	3	R1156D
1341.926	0.818	904333	WORD_OFF	n/a	n/a	SOCK	5	7	[0, 0, 0]	n/a	FR1	3	R1156D
1342.744	1.617	905151	WORD	n/a	wordpools/wordpool_EN.txt	BEAR	6	7	[0, 0, 0]	n/a	FR1	3	R1156D
1344.361	0.883	906768	WORD_OFF	n/a	n/a	BEAR	6	7	[0, 0, 0]	n/a	FR1	3	R1156D
1345.244	1.617	907651	WORD	n/a	wordpools/wordpool_EN.txt	FORK	7	7	[0, 0, 0]	n/a	FR1	3	R1156D
1346.861	0.95	909268	WORD_OFF	n/a	n/a	FORK	7	7	[0, 0, 0]	n/a	FR1	3	R1156D
1347.811	1.617	910218	WORD	n/a	wordpools/wordpool_EN.txt	FOG	8	7	[0, 0, 0]	n/a	FR1	3	R1156D
1349.428	1.001	911835	WORD_OFF	n/a	n/a	FOG	8	7	[0, 0, 0]	n/a	FR1	3	R1156D
1350.429	1.617	912836	WORD	n/a	wordpools/wordpool_EN.txt	PRINCE	9	7	[0, 0, 0]	n/a	FR1	3	R1156D
1352.046	0.865	914453	WORD_OFF	n/a	n/a	PRINCE	9	7	[0, 0, 0]	n/a	FR1	3	R1156D
1352.911	1.618	915318	WORD	n/a	wordpools/wordpool_EN.txt	CAGE	10	7	[0, 0, 0]	n/a	FR1	3	R1156D
1354.529	1.001	916935	WORD_OFF	n/a	n/a	CAGE	10	7	[0, 0, 0]	n/a	FR1	3	R1156D
1355.53	1.616	917936	WORD	n/a	wordpools/wordpool_EN.txt	HOLE	11	7	[0, 0, 0]	n/a	FR1	3	R1156D
1357.146	0.816	919552	WORD_OFF	n/a	n/a	HOLE	11	7	[0, 0, 0]	n/a	FR1	3	R1156D
1357.962	1.618	920368	WORD	n/a	wordpools/wordpool_EN.txt	TRUCK	12	7	[0, 0, 0]	n/a	FR1	3	R1156D
1359.58	0.0	921986	WORD_OFF	n/a	n/a	TRUCK	12	7	[0, 0, 0]	n/a	FR1	3	R1156D
1359.58	0.001	921986	DISTRACT_START	n/a	n/a	n/a	-999	7	[0, 0, 0]	n/a	FR1	3	R1156D
1359.581	0.016	921987	START	n/a	n/a	n/a	-999	8	[-999, -999, -999]	n/a	FR1	3	R1156D
1359.597	6.635	922003	PROB	6.635	n/a	n/a	-999	8	[7, 8, 5]	20	FR1	3	R1156D
1366.232	2.5	928638	PROB	2.5	n/a	n/a	-999	8	[8, 4, 2]	14	FR1	3	R1156D
1368.732	3.317	931138	PROB	3.317	n/a	n/a	-999	8	[8, 9, 5]	21	FR1	3	R1156D
1372.049	2.551	934455	PROB	2.551	n/a	n/a	-999	8	[4, 6, 1]	11	FR1	3	R1156D
1374.6	3.217	937005	PROB	3.217	n/a	n/a	-999	8	[2, 3, 9]	14	FR1	3	R1156D
1377.817	3.588	940222	PROB	3.588	n/a	n/a	-999	8	[7, 5, 9]	21	FR1	3	R1156D
1381.405	0.013	943810	STOP	n/a	n/a	n/a	-999	8	[-999, -999, -999]	n/a	FR1	3	R1156D
1381.418	0.666	943823	DISTRACT_END	n/a	n/a	n/a	-999	7	[0, 0, 0]	n/a	FR1	3	R1156D
1382.084	0.518	944489	RETRIEVAL_ORIENT	n/a	n/a	n/a	-999	7	[0, 0, 0]	n/a	FR1	3	R1156D
1382.602	21.169	945007	REC_START	n/a	n/a	n/a	-999	7	[0, 0, 0]	n/a	FR1	3	R1156D
1403.771	5.745	966175	REC_WORD	5.745	n/a	FOG	8	7	[0, 0, 0]	n/a	FR1	3	R1156D
1409.516	1.322	971920	REC_WORD	1.322	n/a	PRINCE	9	7	[0, 0, 0]	n/a	FR1	3	R1156D
1410.838	1.775	973241	REC_WORD	1.775	n/a	TRUCK	12	7	[0, 0, 0]	n/a	FR1	3	R1156D
1412.613	24.598	975016	REC_END	n/a	n/a	n/a	-999	7	[0, 0, 0]	n/a	FR1	3	R1156D
1437.211	0.5	999613	TRIAL	n/a	n/a	n/a	-999	8	[0, 0, 0]	n/a	FR1	3	R1156D
1437.711	10.428	1000113	COUNTDOWN_START	n/a	n/a	n/a	-999	8	[0, 0, 0]	n/a	FR1	3	R1156D
1448.139	0.008	1010540	COUNTDOWN_END	n/a	n/a	n/a	-999	8	[0, 0, 0]	n/a	FR1	3	R1156D
1448.147	1.616	1010548	ORIENT	n/a	n/a	n/a	-999	8	[0, 0, 0]	n/a	FR1	3	R1156D
1449.763	2.051	1012164	ORIENT_OFF	n/a	n/a	n/a	-999	8	[0, 0, 0]	n/a	FR1	3	R1156D
1451.814	1.617	1014215	WORD	n/a	wordpools/wordpool_EN.txt	STREET	1	8	[0, 0, 0]	n/a	FR1	3	R1156D
1453.431	0.867	1015832	WORD_OFF	n/a	n/a	STREET	1	8	[0, 0, 0]	n/a	FR1	3	R1156D
1454.298	1.616	1016699	WORD	n/a	wordpools/wordpool_EN.txt	FUR	2	8	[0, 0, 0]	n/a	FR1	3	R1156D
1455.914	0.817	1018315	WORD_OFF	n/a	n/a	FUR	2	8	[0, 0, 0]	n/a	FR1	3	R1156D
1456.731	1.617	1019132	WORD	n/a	wordpools/wordpool_EN.txt	DOOR	3	8	[0, 0, 0]	n/a	FR1	3	R1156D
1458.348	0.934	1020749	WORD_OFF	n/a	n/a	DOOR	3	8	[0, 0, 0]	n/a	FR1	3	R1156D
1459.282	1.616	1021683	WORD	n/a	wordpools/wordpool_EN.txt	EGG	4	8	[0, 0, 0]	n/a	FR1	3	R1156D
1460.898	0.868	1023299	WORD_OFF	n/a	n/a	EGG	4	8	[0, 0, 0]	n/a	FR1	3	R1156D
1461.766	1.617	1024167	WORD	n/a	wordpools/wordpool_EN.txt	CAKE	5	8	[0, 0, 0]	n/a	FR1	3	R1156D
1463.383	1.016	1025784	WORD_OFF	n/a	n/a	CAKE	5	8	[0, 0, 0]	n/a	FR1	3	R1156D
1464.399	1.617	1026800	WORD	n/a	wordpools/wordpool_EN.txt	WOLF	6	8	[0, 0, 0]	n/a	FR1	3	R1156D
1466.016	0.967	1028417	WORD_OFF	n/a	n/a	WOLF	6	8	[0, 0, 0]	n/a	FR1	3	R1156D
1466.983	1.617	1029383	WORD	n/a	wordpools/wordpool_EN.txt	CLIFF	7	8	[0, 0, 0]	n/a	FR1	3	R1156D
1468.6	0.817	1031000	WORD_OFF	n/a	n/a	CLIFF	7	8	[0, 0, 0]	n/a	FR1	3	R1156D
1469.417	1.617	1031817	WORD	n/a	wordpools/wordpool_EN.txt	OAR	8	8	[0, 0, 0]	n/a	FR1	3	R1156D
1471.034	0.817	1033434	WORD_OFF	n/a	n/a	OAR	8	8	[0, 0, 0]	n/a	FR1	3	R1156D
1471.851	1.617	1034251	WORD	n/a	wordpools/wordpool_EN.txt	EAR	9	8	[0, 0, 0]	n/a	FR1	3	R1156D
1473.468	0.9	1035868	WORD_OFF	n/a	n/a	EAR	9	8	[0, 0, 0]	n/a	FR1	3	R1156D
1474.368	1.617	1036768	WORD	n/a	wordpools/wordpool_EN.txt	CHAIR	10	8	[0, 0, 0]	n/a	FR1	3	R1156D
1475.985	1.0	1038385	WORD_OFF	n/a	n/a	CHAIR	10	8	[0, 0, 0]	n/a	FR1	3	R1156D
1476.985	1.617	1039385	WORD	n/a	wordpools/wordpool_EN.txt	POLE	11	8	[0, 0, 0]	n/a	FR1	3	R1156D
1478.602	0.784	1041002	WORD_OFF	n/a	n/a	POLE	11	8	[0, 0, 0]	n/a	FR1	3	R1156D
1479.386	1.617	1041786	WORD	n/a	wordpools/wordpool_EN.txt	SHOE	12	8	[0, 0, 0]	n/a	FR1	3	R1156D
1481.003	0.0	1043403	WORD_OFF	n/a	n/a	SHOE	12	8	[0, 0, 0]	n/a	FR1	3	R1156D
1481.003	0.0	1043403	DISTRACT_START	n/a	n/a	n/a	-999	8	[0, 0, 0]	n/a	FR1	3	R1156D
1481.003	0.016	1043403	START	n/a	n/a	n/a	-999	9	[-999, -999, -999]	n/a	FR1	3	R1156D
1481.019	8.168	1043419	PROB	8.168	n/a	n/a	-999	9	[4, 9, 3]	16	FR1	3	R1156D
1489.187	2.968	1051586	PROB	2.968	n/a	n/a	-999	9	[5, 6, 3]	14	FR1	3	R1156D
1492.155	2.817	1054554	PROB	2.817	n/a	n/a	-999	9	[3, 2, 9]	14	FR1	3	R1156D
1494.972	2.5	1057371	PROB	2.5	n/a	n/a	-999	9	[6, 3, 1]	10	FR1	3	R1156D
1497.472	2.483	1059871	PROB	2.483	n/a	n/a	-999	9	[4, 1, 6]	11	FR1	3	R1156D
1499.955	2.409	1062354	PROB	2.409	n/a	n/a	-999	9	[3, 2, 8]	13	FR1	3	R1156D
1502.364	0.009	1064763	STOP	n/a	n/a	n/a	-999	9	[-999, -999, -999]	n/a	FR1	3	R1156D
1502.373	0.583	1064772	DISTRACT_END	n/a	n/a	n/a	-999	8	[0, 0, 0]	n/a	FR1	3	R1156D
1502.956	0.518	1065355	RETRIEVAL_ORIENT	n/a	n/a	n/a	-999	8	[0, 0, 0]	n/a	FR1	3	R1156D
1503.474	13.914	1065873	REC_START	n/a	n/a	n/a	-999	8	[0, 0, 0]	n/a	FR1	3	R1156D
1517.388	1.0	1079786	REC_WORD_VV	1.0	n/a	<>	-999	8	[0, 0, 0]	n/a	FR1	3	R1156D
1518.388	15.094	1080786	REC_WORD_VV	15.094	n/a	<>	-999	8	[0, 0, 0]	n/a	FR1	3	R1156D
1533.482	20.167	1095879	REC_END	n/a	n/a	n/a	-999	8	[0, 0, 0]	n/a	FR1	3	R1156D
1553.649	0.5	1116045	TRIAL	n/a	n/a	n/a	-999	9	[0, 0, 0]	n/a	FR1	3	R1156D
1554.149	10.428	1116545	COUNTDOWN_START	n/a	n/a	n/a	-999	9	[0, 0, 0]	n/a	FR1	3	R1156D
1564.577	0.008	1126972	COUNTDOWN_END	n/a	n/a	n/a	-999	9	[0, 0, 0]	n/a	FR1	3	R1156D
1564.585	1.616	1126980	ORIENT	n/a	n/a	n/a	-999	9	[0, 0, 0]	n/a	FR1	3	R1156D
1566.201	2.017	1128596	ORIENT_OFF	n/a	n/a	n/a	-999	9	[0, 0, 0]	n/a	FR1	3	R1156D
1568.218	1.617	1130613	WORD	n/a	wordpools/wordpool_EN.txt	BANK	1	9	[0, 0, 0]	n/a	FR1	3	R1156D
1569.835	1.0	1132230	WORD_OFF	n/a	n/a	BANK	1	9	[0, 0, 0]	n/a	FR1	3	R1156D
1570.835	1.601	1133230	WORD	n/a	wordpools/wordpool_EN.txt	HEART	2	9	[0, 0, 0]	n/a	FR1	3	R1156D
1572.436	0.833	1134831	WORD_OFF	n/a	n/a	HEART	2	9	[0, 0, 0]	n/a	FR1	3	R1156D
1573.269	1.617	1135664	WORD	n/a	wordpools/wordpool_EN.txt	PARK	3	9	[0, 0, 0]	n/a	FR1	3	R1156D
1574.886	0.917	1137281	WORD_OFF	n/a	n/a	PARK	3	9	[0, 0, 0]	n/a	FR1	3	R1156D
1575.803	1.617	1138198	WORD	n/a	wordpools/wordpool_EN.txt	SEA	4	9	[0, 0, 0]	n/a	FR1	3	R1156D
1577.42	0.95	1139815	WORD_OFF	n/a	n/a	SEA	4	9	[0, 0, 0]	n/a	FR1	3	R1156D
1578.37	1.617	1140765	WORD	n/a	wordpools/wordpool_EN.txt	PEARL	5	9	[0, 0, 0]	n/a	FR1	3	R1156D
1579.987	0.767	1142381	WORD_OFF	n/a	n/a	PEARL	5	9	[0, 0, 0]	n/a	FR1	3	R1156D
1580.754	1.617	1143148	WORD	n/a	wordpools/wordpool_EN.txt	BALL	6	9	[0, 0, 0]	n/a	FR1	3	R1156D
1582.371	0.8	1144765	WORD_OFF	n/a	n/a	BALL	6	9	[0, 0, 0]	n/a	FR1	3	R1156D
1583.171	1.617	1145565	WORD	n/a	wordpools/wordpool_EN.txt	WEB	7	9	[0, 0, 0]	n/a	FR1	3	R1156D
1584.788	0.8	1147182	WORD_OFF	n/a	n/a	WEB	7	9	[0, 0, 0]	n/a	FR1	3	R1156D
1585.588	1.617	1147982	WORD	n/a	wordpools/wordpool_EN.txt	HILL	8	9	[0, 0, 0]	n/a	FR1	3	R1156D
1587.205	0.801	1149599	WORD_OFF	n/a	n/a	HILL	8	9	[0, 0, 0]	n/a	FR1	3	R1156D
1588.006	1.616	1150400	WORD	n/a	wordpools/wordpool_EN.txt	FOX	9	9	[0, 0, 0]	n/a	FR1	3	R1156D
1589.622	0.834	1152016	WORD_OFF	n/a	n/a	FOX	9	9	[0, 0, 0]	n/a	FR1	3	R1156D
1590.456	1.617	1152850	WORD	n/a	wordpools/wordpool_EN.txt	CRANE	10	9	[0, 0, 0]	n/a	FR1	3	R1156D
1592.073	1.0	1154467	WORD_OFF	n/a	n/a	CRANE	10	9	[0, 0, 0]	n/a	FR1	3	R1156D
1593.073	1.617	1155467	WORD	n/a	wordpools/wordpool_EN.txt	BLUSH	11	9	[0, 0, 0]	n/a	FR1	3	R1156D
1594.69	0.917	1157084	WORD_OFF	n/a	n/a	BLUSH	11	9	[0, 0, 0]	n/a	FR1	3	R1156D
1595.607	1.617	1158001	WORD	n/a	wordpools/wordpool_EN.txt	SNAIL	12	9	[0, 0, 0]	n/a	FR1	3	R1156D
1597.224	0.0	1159618	WORD_OFF	n/a	n/a	SNAIL	12	9	[0, 0, 0]	n/a	FR1	3	R1156D
1597.224	0.0	1159618	DISTRACT_START	n/a	n/a	n/a	-999	9	[0, 0, 0]	n/a	FR1	3	R1156D
1597.224	0.017	1159618	START	n/a	n/a	n/a	-999	10	[-999, -999, -999]	n/a	FR1	3	R1156D
1597.241	3.45	1159635	PROB	3.45	n/a	n/a	-999	10	[8, 2, 4]	14	FR1	3	R1156D
1600.691	3.601	1163084	PROB	3.601	n/a	n/a	-999	10	[1, 7, 6]	14	FR1	3	R1156D
1604.292	3.684	1166685	PROB	3.684	n/a	n/a	-999	10	[1, 1, 6]	8	FR1	3	R1156D
1607.976	2.5	1170369	PROB	2.5	n/a	n/a	-999	10	[3, 7, 3]	13	FR1	3	R1156D
1610.476	2.701	1172869	PROB	2.701	n/a	n/a	-999	10	[1, 9, 9]	19	FR1	3	R1156D
1613.177	4.564	1175570	PROB	4.564	n/a	n/a	-999	10	[4, 5, 6]	15	FR1	3	R1156D
1617.741	0.02	1180133	STOP	n/a	n/a	n/a	-999	10	[-999, -999, -999]	n/a	FR1	3	R1156D
1617.761	0.55	1180153	DISTRACT_END	n/a	n/a	n/a	-999	9	[0, 0, 0]	n/a	FR1	3	R1156D
1618.311	0.518	1180703	RETRIEVAL_ORIENT	n/a	n/a	n/a	-999	9	[0, 0, 0]	n/a	FR1	3	R1156D
1618.829	3.579	1181221	REC_START	n/a	n/a	n/a	-999	9	[0, 0, 0]	n/a	FR1	3	R1156D
1622.408	1.966	1184800	REC_WORD	1.966	n/a	BALL	6	9	[0, 0, 0]	n/a	FR1	3	R1156D
1624.374	1.73	1186766	REC_WORD	1.73	n/a	PEARL	5	9	[0, 0, 0]	n/a	FR1	3	R1156D
1626.104	22.734	1188496	REC_WORD	22.734	n/a	SEA	4	9	[0, 0, 0]	n/a	FR1	3	R1156D
1648.838	5.396	1211229	REC_END	n/a	n/a	n/a	-999	9	[0, 0, 0]	n/a	FR1	3	R1156D
1654.234	0.5	1216625	TRIAL	n/a	n/a	n/a	-999	10	[0, 0, 0]	n/a	FR1	3	R1156D
1654.734	10.428	1217125	COUNTDOWN_START	n/a	n/a	n/a	-999	10	[0, 0, 0]	n/a	FR1	3	R1156D
1665.162	0.008	1227552	COUNTDOWN_END	n/a	n/a	n/a	-999	10	[0, 0, 0]	n/a	FR1	3	R1156D
1665.17	1.617	1227560	ORIENT	n/a	n/a	n/a	-999	10	[0, 0, 0]	n/a	FR1	3	R1156D
1666.787	2.3	1229177	ORIENT_OFF	n/a	n/a	n/a	-999	10	[0, 0, 0]	n/a	FR1	3	R1156D
1669.087	1.617	1231477	WORD	n/a	wordpools/wordpool_EN.txt	CANE	1	10	[0, 0, 0]	n/a	FR1	3	R1156D
1670.704	0.967	1233094	WORD_OFF	n/a	n/a	CANE	1	10	[0, 0, 0]	n/a	FR1	3	R1156D
1671.671	1.617	1234061	WORD	n/a	wordpools/wordpool_EN.txt	DUCK	2	10	[0, 0, 0]	n/a	FR1	3	R1156D
1673.288	0.783	1235678	WORD_OFF	n/a	n/a	DUCK	2	10	[0, 0, 0]	n/a	FR1	3	R1156D
1674.071	1.617	1236460	WORD	n/a	wordpools/wordpool_EN.txt	FROG	3	10	[0, 0, 0]	n/a	FR1	3	R1156D
1675.688	1.0	1238077	WORD_OFF	n/a	n/a	FROG	3	10	[0, 0, 0]	n/a	FR1	3	R1156D
1676.688	1.617	1239077	WORD	n/a	wordpools/wordpool_EN.txt	PALM	4	10	[0, 0, 0]	n/a	FR1	3	R1156D
1678.305	0.884	1240694	WORD_OFF	n/a	n/a	PALM	4	10	[0, 0, 0]	n/a	FR1	3	R1156D
1679.189	1.617	1241578	WORD	n/a	wordpools/wordpool_EN.txt	PLANT	5	10	[0, 0, 0]	n/a	FR1	3	R1156D
1680.806	0.766	1243195	WORD_OFF	n/a	n/a	PLANT	5	10	[0, 0, 0]	n/a	FR1	3	R1156D
1681.572	1.618	1243961	WORD	n/a	wordpools/wordpool_EN.txt	CROW	6	10	[0, 0, 0]	n/a	FR1	3	R1156D
1683.19	0.933	1245579	WORD_OFF	n/a	n/a	CROW	6	10	[0, 0, 0]	n/a	FR1	3	R1156D
1684.123	1.617	1246512	WORD	n/a	wordpools/wordpool_EN.txt	SHIRT	7	10	[0, 0, 0]	n/a	FR1	3	R1156D
1685.74	0.884	1248129	WORD_OFF	n/a	n/a	SHIRT	7	10	[0, 0, 0]	n/a	FR1	3	R1156D
1686.624	1.617	1249013	WORD	n/a	wordpools/wordpool_EN.txt	CUP	8	10	[0, 0, 0]	n/a	FR1	3	R1156D
1688.241	0.8	1250630	WORD_OFF	n/a	n/a	CUP	8	10	[0, 0, 0]	n/a	FR1	3	R1156D
1689.041	1.617	1251430	WORD	n/a	wordpools/wordpool_EN.txt	SOUP	9	10	[0, 0, 0]	n/a	FR1	3	R1156D
1690.658	0.8	1253047	WORD_OFF	n/a	n/a	SOUP	9	10	[0, 0, 0]	n/a	FR1	3	R1156D
1691.458	1.617	1253847	WORD	n/a	wordpools/wordpool_EN.txt	BROOM	10	10	[0, 0, 0]	n/a	FR1	3	R1156D
1693.075	1.0	1255463	WORD_OFF	n/a	n/a	BROOM	10	10	[0, 0, 0]	n/a	FR1	3	R1156D
1694.075	1.617	1256463	WORD	n/a	wordpools/wordpool_EN.txt	BEE	11	10	[0, 0, 0]	n/a	FR1	3	R1156D
1695.692	0.967	1258080	WORD_OFF	n/a	n/a	BEE	11	10	[0, 0, 0]	n/a	FR1	3	R1156D
1696.659	1.617	1259047	WORD	n/a	wordpools/wordpool_EN.txt	ROOF	12	10	[0, 0, 0]	n/a	FR1	3	R1156D
1698.276	0.0	1260664	WORD_OFF	n/a	n/a	ROOF	12	10	[0, 0, 0]	n/a	FR1	3	R1156D
1698.276	0.0	1260664	DISTRACT_START	n/a	n/a	n/a	-999	10	[0, 0, 0]	n/a	FR1	3	R1156D
1698.276	0.016	1260664	START	n/a	n/a	n/a	-999	11	[-999, -999, -999]	n/a	FR1	3	R1156D
1698.292	5.585	1260680	PROB	5.585	n/a	n/a	-999	11	[8, 5, 3]	16	FR1	3	R1156D
1703.877	2.082	1266265	PROB	2.082	n/a	n/a	-999	11	[4, 4, 1]	9	FR1	3	R1156D
1705.959	2.769	1268347	PROB	2.769	n/a	n/a	-999	11	[5, 3, 5]	13	FR1	3	R1156D
1708.728	3.017	1271116	PROB	3.017	n/a	n/a	-999	11	[6, 8, 4]	18	FR1	3	R1156D
1711.745	2.934	1274132	PROB	2.934	n/a	n/a	-999	11	[5, 4, 6]	15	FR1	3	R1156D
1714.679	2.249	1277066	PROB	2.249	n/a	n/a	-999	11	[7, 3, 1]	11	FR1	3	R1156D
1716.928	2.325	1279315	PROB	2.325	n/a	n/a	-999	11	[2, 1, 2]	5	FR1	3	R1156D
1719.253	0.01	1281640	STOP	n/a	n/a	n/a	-999	11	[-999, -999, -999]	n/a	FR1	3	R1156D
1719.263	0.583	1281650	DISTRACT_END	n/a	n/a	n/a	-999	10	[0, 0, 0]	n/a	FR1	3	R1156D
1719.846	0.518	1282233	RETRIEVAL_ORIENT	n/a	n/a	n/a	-999	10	[0, 0, 0]	n/a	FR1	3	R1156D
1720.364	1.548	1282751	REC_START	n/a	n/a	n/a	-999	10	[0, 0, 0]	n/a	FR1	3	R1156D
1721.912	1.0	1284299	REC_WORD_VV	1.0	n/a	<>	-999	10	[0, 0, 0]	n/a	FR1	3	R1156D
1722.912	3.847	1285299	REC_WORD_VV	3.847	n/a	<>	-999	10	[0, 0, 0]	n/a	FR1	3	R1156D
1726.759	0.637	1289146	REC_WORD_VV	0.637	n/a	<>	-999	10	[0, 0, 0]	n/a	FR1	3	R1156D
1727.396	10.29	1289783	REC_WORD	10.29	n/a	BROOM	10	10	[0, 0, 0]	n/a	FR1	3	R1156D
1737.686	2.84	1300072	REC_WORD	2.84	n/a	PALM	4	10	[0, 0, 0]	n/a	FR1	3	R1156D
1740.526	9.847	1302912	REC_WORD	9.847	n/a	PLANT	5	10	[0, 0, 0]	n/a	FR1	3	R1156D
1750.373	5.113	1312758	REC_END	n/a	n/a	n/a	-999	10	[0, 0, 0]	n/a	FR1	3	R1156D
1755.486	0.5	1317871	TRIAL	n/a	n/a	n/a	-999	11	[0, 0, 0]	n/a	FR1	3	R1156D
1755.986	10.428	1318371	COUNTDOWN_START	n/a	n/a	n/a	-999	11	[0, 0, 0]	n/a	FR1	3	R1156D
1766.414	0.008	1328799	COUNTDOWN_END	n/a	n/a	n/a	-999	11	[0, 0, 0]	n/a	FR1	3	R1156D
1766.422	1.616	1328807	ORIENT	n/a	n/a	n/a	-999	11	[0, 0, 0]	n/a	FR1	3	R1156D
1768.038	2.234	1330422	ORIENT_OFF	n/a	n/a	n/a	-999	11	[0, 0, 0]	n/a	FR1	3	R1156D
1770.272	1.617	1332656	WORD	n/a	wordpools/wordpool_EN.txt	FAN	1	11	[0, 0, 0]	n/a	FR1	3	R1156D
1771.889	0.884	1334273	WORD_OFF	n/a	n/a	FAN	1	11	[0, 0, 0]	n/a	FR1	3	R1156D
1772.773	1.617	1335157	WORD	n/a	wordpools/wordpool_EN.txt	AXE	2	11	[0, 0, 0]	n/a	FR1	3	R1156D
1774.39	0.866	1336774	WORD_OFF	n/a	n/a	AXE	2	11	[0, 0, 0]	n/a	FR1	3	R1156D
1775.256	1.617	1337640	WORD	n/a	wordpools/wordpool_EN.txt	ROPE	3	11	[0, 0, 0]	n/a	FR1	3	R1156D
1776.873	0.801	1339257	WORD_OFF	n/a	n/a	ROPE	3	11	[0, 0, 0]	n/a	FR1	3	R1156D
1777.674	1.617	1340058	WORD	n/a	wordpools/wordpool_EN.txt	JUICE	4	11	[0, 0, 0]	n/a	FR1	3	R1156D
1779.291	0.983	1341675	WORD_OFF	n/a	n/a	JUICE	4	11	[0, 0, 0]	n/a	FR1	3	R1156D
1780.274	1.617	1342658	WORD	n/a	wordpools/wordpool_EN.txt	BEAN	5	11	[0, 0, 0]	n/a	FR1	3	R1156D
1781.891	0.9	1344275	WORD_OFF	n/a	n/a	BEAN	5	11	[0, 0, 0]	n/a	FR1	3	R1156D
1782.791	1.617	1345175	WORD	n/a	wordpools/wordpool_EN.txt	SLEEVE	6	11	[0, 0, 0]	n/a	FR1	3	R1156D
1784.408	0.934	1346792	WORD_OFF	n/a	n/a	SLEEVE	6	11	[0, 0, 0]	n/a	FR1	3	R1156D
1785.342	1.616	1347726	WORD	n/a	wordpools/wordpool_EN.txt	NOSE	7	11	[0, 0, 0]	n/a	FR1	3	R1156D
1786.958	0.918	1349341	WORD_OFF	n/a	n/a	NOSE	7	11	[0, 0, 0]	n/a	FR1	3	R1156D
1787.876	1.617	1350259	WORD	n/a	wordpools/wordpool_EN.txt	MULE	8	11	[0, 0, 0]	n/a	FR1	3	R1156D
1789.493	0.816	1351876	WORD_OFF	n/a	n/a	MULE	8	11	[0, 0, 0]	n/a	FR1	3	R1156D
1790.309	1.616	1352692	WORD	n/a	wordpools/wordpool_EN.txt	SPARK	9	11	[0, 0, 0]	n/a	FR1	3	R1156D
1791.925	0.818	1354308	WORD_OFF	n/a	n/a	SPARK	9	11	[0, 0, 0]	n/a	FR1	3	R1156D
1792.743	1.617	1355126	WORD	n/a	wordpools/wordpool_EN.txt	MAT	10	11	[0, 0, 0]	n/a	FR1	3	R1156D
1794.36	0.917	1356743	WORD_OFF	n/a	n/a	MAT	10	11	[0, 0, 0]	n/a	FR1	3	R1156D
1795.277	1.617	1357660	WORD	n/a	wordpools/wordpool_EN.txt	HOOK	11	11	[0, 0, 0]	n/a	FR1	3	R1156D
1796.894	0.817	1359277	WORD_OFF	n/a	n/a	HOOK	11	11	[0, 0, 0]	n/a	FR1	3	R1156D
1797.711	1.617	1360094	WORD	n/a	wordpools/wordpool_EN.txt	BEAK	12	11	[0, 0, 0]	n/a	FR1	3	R1156D
1799.328	0.0	1361711	DISTRACT_START	n/a	n/a	n/a	-999	11	[0, 0, 0]	n/a	FR1	3	R1156D
1799.328	0.0	1361711	WORD_OFF	n/a	n/a	BEAK	12	11	[0, 0, 0]	n/a	FR1	3	R1156D
1799.328	0.016	1361711	START	n/a	n/a	n/a	-999	12	[-999, -999, -999]	n/a	FR1	3	R1156D
1799.344	2.967	1361727	PROB	2.967	n/a	n/a	-999	12	[3, 4, 6]	13	FR1	3	R1156D
1802.311	3.668	1364694	PROB	3.668	n/a	n/a	-999	12	[6, 5, 8]	19	FR1	3	R1156D
1805.979	3.067	1368361	PROB	3.067	n/a	n/a	-999	12	[5, 8, 9]	22	FR1	3	R1156D
1809.046	3.883	1371428	PROB	3.883	n/a	n/a	-999	12	[2, 9, 3]	14	FR1	3	R1156D
1812.929	3.602	1375311	PROB	3.602	n/a	n/a	-999	12	[3, 1, 6]	10	FR1	3	R1156D
1816.531	3.177	1378913	PROB	3.177	n/a	n/a	-999	12	[5, 7, 6]	18	FR1	3	R1156D
1819.708	0.006	1382090	STOP	n/a	n/a	n/a	-999	12	[-999, -999, -999]	n/a	FR1	3	R1156D
1819.714	0.551	1382096	DISTRACT_END	n/a	n/a	n/a	-999	11	[0, 0, 0]	n/a	FR1	3	R1156D
1820.265	0.517	1382647	RETRIEVAL_ORIENT	n/a	n/a	n/a	-999	11	[0, 0, 0]	n/a	FR1	3	R1156D
1820.782	1.97	1383164	REC_START	n/a	n/a	n/a	-999	11	[0, 0, 0]	n/a	FR1	3	R1156D
1822.752	1.698	1385134	REC_WORD	1.698	n/a	FAN	1	11	[0, 0, 0]	n/a	FR1	3	R1156D
1824.45	21.862	1386831	REC_WORD	21.862	n/a	BEAK	12	11	[0, 0, 0]	n/a	FR1	3	R1156D
1846.312	4.481	1408692	REC_WORD	4.481	n/a	COMB	-999	11	[0, 0, 0]	n/a	FR1	3	R1156D
1850.793	13.78	1413173	REC_END	n/a	n/a	n/a	-999	11	[0, 0, 0]	n/a	FR1	3	R1156D
1864.573	0.5	1426952	TRIAL	n/a	n/a	n/a	-999	12	[0, 0, 0]	n/a	FR1	3	R1156D
1865.073	10.428	1427452	COUNTDOWN_START	n/a	n/a	n/a	-999	12	[0, 0, 0]	n/a	FR1	3	R1156D
1875.501	0.007	1437880	COUNTDOWN_END	n/a	n/a	n/a	-999	12	[0, 0, 0]	n/a	FR1	3	R1156D
1875.508	1.617	1437887	ORIENT	n/a	n/a	n/a	-999	12	[0, 0, 0]	n/a	FR1	3	R1156D
1877.125	2.084	1439504	ORIENT_OFF	n/a	n/a	n/a	-999	12	[0, 0, 0]	n/a	FR1	3	R1156D
1879.209	1.617	1441588	WORD	n/a	wordpools/wordpool_EN.txt	COW	1	12	[0, 0, 0]	n/a	FR1	3	R1156D
1880.826	1.0	1443204	WORD_OFF	n/a	n/a	COW	1	12	[0, 0, 0]	n/a	FR1	3	R1156D
1881.826	1.617	1444204	WORD	n/a	wordpools/wordpool_EN.txt	SNAKE	2	12	[0, 0, 0]	n/a	FR1	3	R1156D
1883.443	0.917	1445821	WORD_OFF	n/a	n/a	SNAKE	2	12	[0, 0, 0]	n/a	FR1	3	R1156D
1884.36	1.617	1446738	WORD	n/a	wordpools/wordpool_EN.txt	HORSE	3	12	[0, 0, 0]	n/a	FR1	3	R1156D
1885.977	0.783	1448355	WORD_OFF	n/a	n/a	HORSE	3	12	[0, 0, 0]	n/a	FR1	3	R1156D
1886.76	1.617	1449138	WORD	n/a	wordpools/wordpool_EN.txt	VAN	4	12	[0, 0, 0]	n/a	FR1	3	R1156D
1888.377	0.984	1450755	WORD_OFF	n/a	n/a	VAN	4	12	[0, 0, 0]	n/a	FR1	3	R1156D
1889.361	1.617	1451739	WORD	n/a	wordpools/wordpool_EN.txt	PEN	5	12	[0, 0, 0]	n/a	FR1	3	R1156D
1890.978	0.85	1453356	WORD_OFF	n/a	n/a	PEN	5	12	[0, 0, 0]	n/a	FR1	3	R1156D
1891.828	1.617	1454206	WORD	n/a	wordpools/wordpool_EN.txt	MAP	6	12	[0, 0, 0]	n/a	FR1	3	R1156D
1893.445	0.85	1455823	WORD_OFF	n/a	n/a	MAP	6	12	[0, 0, 0]	n/a	FR1	3	R1156D
1894.295	1.616	1456673	WORD	n/a	wordpools/wordpool_EN.txt	SPOON	7	12	[0, 0, 0]	n/a	FR1	3	R1156D
1895.911	0.801	1458289	WORD_OFF	n/a	n/a	SPOON	7	12	[0, 0, 0]	n/a	FR1	3	R1156D
1896.712	1.617	1459090	WORD	n/a	wordpools/wordpool_EN.txt	WORLD	8	12	[0, 0, 0]	n/a	FR1	3	R1156D
1898.329	0.834	1460707	WORD_OFF	n/a	n/a	WORLD	8	12	[0, 0, 0]	n/a	FR1	3	R1156D
1899.163	1.617	1461540	WORD	n/a	wordpools/wordpool_EN.txt	DEER	9	12	[0, 0, 0]	n/a	FR1	3	R1156D
1900.78	0.833	1463157	WORD_OFF	n/a	n/a	DEER	9	12	[0, 0, 0]	n/a	FR1	3	R1156D
1901.613	1.617	1463990	WORD	n/a	wordpools/wordpool_EN.txt	BLOOM	10	12	[0, 0, 0]	n/a	FR1	3	R1156D
1903.23	0.984	1465607	WORD_OFF	n/a	n/a	BLOOM	10	12	[0, 0, 0]	n/a	FR1	3	R1156D
1904.214	1.616	1466591	WORD	n/a	wordpools/wordpool_EN.txt	KEY	11	12	[0, 0, 0]	n/a	FR1	3	R1156D
1905.83	1.001	1468207	WORD_OFF	n/a	n/a	KEY	11	12	[0, 0, 0]	n/a	FR1	3	R1156D
1906.831	1.617	1469208	WORD	n/a	wordpools/wordpool_EN.txt	HAWK	12	12	[0, 0, 0]	n/a	FR1	3	R1156D
1908.448	0.0	1470825	WORD_OFF	n/a	n/a	HAWK	12	12	[0, 0, 0]	n/a	FR1	3	R1156D
1908.448	0.0	1470825	DISTRACT_START	n/a	n/a	n/a	-999	12	[0, 0, 0]	n/a	FR1	3	R1156D
1908.448	0.016	1470825	START	n/a	n/a	n/a	-999	13	[-999, -999, -999]	n/a	FR1	3	R1156D
1908.464	6.968	1470841	PROB	6.968	n/a	n/a	-999	13	[8, 9, 7]	24	FR1	3	R1156D
1915.432	2.401	1477809	PROB	2.401	n/a	n/a	-999	13	[4, 1, 2]	7	FR1	3	R1156D
1917.833	2.85	1480210	PROB	2.85	n/a	n/a	-999	13	[5, 1, 7]	13	FR1	3	R1156D
1920.683	3.468	1483059	PROB	3.468	n/a	n/a	-999	13	[9, 5, 4]	18	FR1	3	R1156D
1924.151	3.617	1486527	PROB	3.617	n/a	n/a	-999	13	[9, 9, 6]	24	FR1	3	R1156D
1927.768	2.573	1490144	PROB	2.573	n/a	n/a	-999	13	[4, 6, 1]	11	FR1	3	R1156D
1930.341	0.011	1492717	STOP	n/a	n/a	n/a	-999	13	[-999, -999, -999]	n/a	FR1	3	R1156D
1930.352	0.633	1492728	DISTRACT_END	n/a	n/a	n/a	-999	12	[0, 0, 0]	n/a	FR1	3	R1156D
1930.985	0.517	1493361	RETRIEVAL_ORIENT	n/a	n/a	n/a	-999	12	[0, 0, 0]	n/a	FR1	3	R1156D
1931.502	1.573	1493878	REC_START	n/a	n/a	n/a	-999	12	[0, 0, 0]	n/a	FR1	3	R1156D
1933.075	2.905	1495451	REC_WORD_VV	2.905	n/a	<>	-999	12	[0, 0, 0]	n/a	FR1	3	R1156D
1935.98	25.533	1498356	REC_WORD	25.533	n/a	HAWK	12	12	[0, 0, 0]	n/a	FR1	3	R1156D
1961.513	8.246	1523887	REC_END	n/a	n/a	n/a	-999	12	[0, 0, 0]	n/a	FR1	3	R1156D
1969.759	0.5	1532133	TRIAL	n/a	n/a	n/a	-999	13	[0, 0, 0]	n/a	FR1	3	R1156D
1970.259	10.428	1532633	COUNTDOWN_START	n/a	n/a	n/a	-999	13	[0, 0, 0]	n/a	FR1	3	R1156D
1980.687	0.007	1543060	COUNTDOWN_END	n/a	n/a	n/a	-999	13	[0, 0, 0]	n/a	FR1	3	R1156D
1980.694	1.617	1543067	ORIENT	n/a	n/a	n/a	-999	13	[0, 0, 0]	n/a	FR1	3	R1156D
1982.311	2.001	1544684	ORIENT_OFF	n/a	n/a	n/a	-999	13	[0, 0, 0]	n/a	FR1	3	R1156D
1984.312	1.616	1546685	WORD	n/a	wordpools/wordpool_EN.txt	GUARD	1	13	[0, 0, 0]	n/a	FR1	3	R1156D
1985.928	0.901	1548301	WORD_OFF	n/a	n/a	GUARD	1	13	[0, 0, 0]	n/a	FR1	3	R1156D
1986.829	1.617	1549202	WORD	n/a	wordpools/wordpool_EN.txt	FRUIT	2	13	[0, 0, 0]	n/a	FR1	3	R1156D
1988.446	0.95	1550819	WORD_OFF	n/a	n/a	FRUIT	2	13	[0, 0, 0]	n/a	FR1	3	R1156D
1989.396	1.617	1551769	WORD	n/a	wordpools/wordpool_EN.txt	COUCH	3	13	[0, 0, 0]	n/a	FR1	3	R1156D
1991.013	0.8	1553386	WORD_OFF	n/a	n/a	COUCH	3	13	[0, 0, 0]	n/a	FR1	3	R1156D
1991.813	1.617	1554186	WORD	n/a	wordpools/wordpool_EN.txt	FLAME	4	13	[0, 0, 0]	n/a	FR1	3	R1156D
1993.43	0.917	1555802	WORD_OFF	n/a	n/a	FLAME	4	13	[0, 0, 0]	n/a	FR1	3	R1156D
1994.347	1.616	1556719	WORD	n/a	wordpools/wordpool_EN.txt	ROSE	5	13	[0, 0, 0]	n/a	FR1	3	R1156D
1995.963	0.918	1558335	WORD_OFF	n/a	n/a	ROSE	5	13	[0, 0, 0]	n/a	FR1	3	R1156D
1996.881	1.616	1559253	WORD	n/a	wordpools/wordpool_EN.txt	MOOSE	6	13	[0, 0, 0]	n/a	FR1	3	R1156D
1998.497	0.917	1560869	WORD_OFF	n/a	n/a	MOOSE	6	13	[0, 0, 0]	n/a	FR1	3	R1156D
1999.414	1.617	1561786	WORD	n/a	wordpools/wordpool_EN.txt	PHONE	7	13	[0, 0, 0]	n/a	FR1	3	R1156D
2001.031	0.95	1563403	WORD_OFF	n/a	n/a	PHONE	7	13	[0, 0, 0]	n/a	FR1	3	R1156D
2001.981	1.617	1564353	WORD	n/a	wordpools/wordpool_EN.txt	BUSH	8	13	[0, 0, 0]	n/a	FR1	3	R1156D
2003.598	0.801	1565970	WORD_OFF	n/a	n/a	BUSH	8	13	[0, 0, 0]	n/a	FR1	3	R1156D
2004.399	1.617	1566771	WORD	n/a	wordpools/wordpool_EN.txt	BOX	9	13	[0, 0, 0]	n/a	FR1	3	R1156D
2006.016	0.932	1568388	WORD_OFF	n/a	n/a	BOX	9	13	[0, 0, 0]	n/a	FR1	3	R1156D
2006.948	1.618	1569320	WORD	n/a	wordpools/wordpool_EN.txt	FACE	10	13	[0, 0, 0]	n/a	FR1	3	R1156D
2008.566	0.917	1570938	WORD_OFF	n/a	n/a	FACE	10	13	[0, 0, 0]	n/a	FR1	3	R1156D
2009.483	1.617	1571855	WORD	n/a	wordpools/wordpool_EN.txt	PURSE	11	13	[0, 0, 0]	n/a	FR1	3	R1156D
2011.1	0.816	1573472	WORD_OFF	n/a	n/a	PURSE	11	13	[0, 0, 0]	n/a	FR1	3	R1156D
2011.916	1.618	1574288	WORD	n/a	wordpools/wordpool_EN.txt	SPRING	12	13	[0, 0, 0]	n/a	FR1	3	R1156D
2013.534	0.0	1575905	WORD_OFF	n/a	n/a	SPRING	12	13	[0, 0, 0]	n/a	FR1	3	R1156D
2013.534	0.0	1575905	DISTRACT_START	n/a	n/a	n/a	-999	13	[0, 0, 0]	n/a	FR1	3	R1156D
2013.534	0.016	1575905	START	n/a	n/a	n/a	-999	14	[-999, -999, -999]	n/a	FR1	3	R1156D
2013.55	3.584	1575921	PROB	3.584	n/a	n/a	-999	14	[4, 9, 2]	15	FR1	3	R1156D
2017.134	3.117	1579505	PROB	3.117	n/a	n/a	-999	14	[6, 2, 7]	15	FR1	3	R1156D
2020.251	2.768	1582622	PROB	2.768	n/a	n/a	-999	14	[7, 6, 1]	14	FR1	3	R1156D
2023.019	2.05	1585390	PROB	2.05	n/a	n/a	-999	14	[3, 3, 3]	9	FR1	3	R1156D
2025.069	3.901	1587440	PROB	3.901	n/a	n/a	-999	14	[6, 9, 8]	23	FR1	3	R1156D
2028.97	3.15	1591341	PROB	3.15	n/a	n/a	-999	14	[9, 2, 1]	12	FR1	3	R1156D
2032.12	3.046	1594490	PROB	3.046	n/a	n/a	-999	14	[1, 7, 1]	9	FR1	3	R1156D
2035.166	0.021	1597536	STOP	n/a	n/a	n/a	-999	14	[-999, -999, -999]	n/a	FR1	3	R1156D
2035.187	0.634	1597557	DISTRACT_END	n/a	n/a	n/a	-999	13	[0, 0, 0]	n/a	FR1	3	R1156D
2035.821	0.517	1598191	RETRIEVAL_ORIENT	n/a	n/a	n/a	-999	13	[0, 0, 0]	n/a	FR1	3	R1156D
2036.338	10.332	1598708	REC_START	n/a	n/a	n/a	-999	13	[0, 0, 0]	n/a	FR1	3	R1156D
2046.67	6.41	1609040	REC_WORD	6.41	n/a	BLOOM	-999	13	[0, 0, 0]	n/a	FR1	3	R1156D
2053.08	2.175	1615449	REC_WORD	2.175	n/a	ROSE	5	13	[0, 0, 0]	n/a	FR1	3	R1156D
2055.255	4.526	1617624	REC_WORD	4.526	n/a	COUCH	3	13	[0, 0, 0]	n/a	FR1	3	R1156D
2059.781	6.568	1622150	REC_WORD	6.568	n/a	FLAME	4	13	[0, 0, 0]	n/a	FR1	3	R1156D
2066.349	5.279	1628718	REC_END	n/a	n/a	n/a	-999	13	[0, 0, 0]	n/a	FR1	3	R1156D
2071.628	0.5	1633996	TRIAL	n/a	n/a	n/a	-999	14	[0, 0, 0]	n/a	FR1	3	R1156D
2072.128	10.428	1634496	COUNTDOWN_START	n/a	n/a	n/a	-999	14	[0, 0, 0]	n/a	FR1	3	R1156D
2082.556	0.007	1644924	COUNTDOWN_END	n/a	n/a	n/a	-999	14	[0, 0, 0]	n/a	FR1	3	R1156D
2082.563	1.617	1644931	ORIENT	n/a	n/a	n/a	-999	14	[0, 0, 0]	n/a	FR1	3	R1156D
2084.18	2.117	1646548	ORIENT_OFF	n/a	n/a	n/a	-999	14	[0, 0, 0]	n/a	FR1	3	R1156D
2086.297	1.616	1648665	WORD	n/a	wordpools/wordpool_EN.txt	DITCH	1	14	[0, 0, 0]	n/a	FR1	3	R1156D
2087.913	0.934	1650280	WORD_OFF	n/a	n/a	DITCH	1	14	[0, 0, 0]	n/a	FR1	3	R1156D
2088.847	1.617	1651214	WORD	n/a	wordpools/wordpool_EN.txt	TEETH	2	14	[0, 0, 0]	n/a	FR1	3	R1156D
2090.464	0.784	1652831	WORD_OFF	n/a	n/a	TEETH	2	14	[0, 0, 0]	n/a	FR1	3	R1156D
2091.248	1.617	1653615	WORD	n/a	wordpools/wordpool_EN.txt	STRING	3	14	[0, 0, 0]	n/a	FR1	3	R1156D
2092.865	0.983	1655232	WORD_OFF	n/a	n/a	STRING	3	14	[0, 0, 0]	n/a	FR1	3	R1156D
2093.848	1.617	1656215	WORD	n/a	wordpools/wordpool_EN.txt	FLOOR	4	14	[0, 0, 0]	n/a	FR1	3	R1156D
2095.465	0.967	1657832	WORD_OFF	n/a	n/a	FLOOR	4	14	[0, 0, 0]	n/a	FR1	3	R1156D
2096.432	1.617	1658799	WORD	n/a	wordpools/wordpool_EN.txt	FLEA	5	14	[0, 0, 0]	n/a	FR1	3	R1156D
2098.049	0.899	1660416	WORD_OFF	n/a	n/a	FLEA	5	14	[0, 0, 0]	n/a	FR1	3	R1156D
2098.948	1.618	1661315	WORD	n/a	wordpools/wordpool_EN.txt	INK	6	14	[0, 0, 0]	n/a	FR1	3	R1156D
2100.566	0.8	1662933	WORD_OFF	n/a	n/a	INK	6	14	[0, 0, 0]	n/a	FR1	3	R1156D
2101.366	1.617	1663733	WORD	n/a	wordpools/wordpool_EN.txt	JAR	7	14	[0, 0, 0]	n/a	FR1	3	R1156D
2102.983	0.817	1665350	WORD_OFF	n/a	n/a	JAR	7	14	[0, 0, 0]	n/a	FR1	3	R1156D
2103.8	1.617	1666167	WORD	n/a	wordpools/wordpool_EN.txt	WAND	8	14	[0, 0, 0]	n/a	FR1	3	R1156D
2105.417	0.767	1667784	WORD_OFF	n/a	n/a	WAND	8	14	[0, 0, 0]	n/a	FR1	3	R1156D
2106.184	1.617	1668550	WORD	n/a	wordpools/wordpool_EN.txt	HOSE	9	14	[0, 0, 0]	n/a	FR1	3	R1156D
2107.801	0.783	1670167	WORD_OFF	n/a	n/a	HOSE	9	14	[0, 0, 0]	n/a	FR1	3	R1156D
2108.584	1.617	1670950	WORD	n/a	wordpools/wordpool_EN.txt	WOOD	10	14	[0, 0, 0]	n/a	FR1	3	R1156D
2110.201	0.917	1672567	WORD_OFF	n/a	n/a	WOOD	10	14	[0, 0, 0]	n/a	FR1	3	R1156D
2111.118	1.617	1673484	WORD	n/a	wordpools/wordpool_EN.txt	CLOUD	11	14	[0, 0, 0]	n/a	FR1	3	R1156D
2112.735	1.0	1675101	WORD_OFF	n/a	n/a	CLOUD	11	14	[0, 0, 0]	n/a	FR1	3	R1156D
2113.735	1.617	1676101	WORD	n/a	wordpools/wordpool_EN.txt	CLOCK	12	14	[0, 0, 0]	n/a	FR1	3	R1156D
2115.352	0.0	1677718	DISTRACT_START	n/a	n/a	n/a	-999	14	[0, 0, 0]	n/a	FR1	3	R1156D
2115.352	0.001	1677718	WORD_OFF	n/a	n/a	CLOCK	12	14	[0, 0, 0]	n/a	FR1	3	R1156D
2115.353	0.016	1677719	START	n/a	n/a	n/a	-999	15	[-999, -999, -999]	n/a	FR1	3	R1156D
2115.369	3.867	1677735	PROB	3.867	n/a	n/a	-999	15	[6, 1, 9]	16	FR1	3	R1156D
2119.236	3.601	1681602	PROB	3.601	n/a	n/a	-999	15	[5, 4, 9]	18	FR1	3	R1156D
2122.837	3.334	1685203	PROB	3.334	n/a	n/a	-999	15	[9, 2, 4]	15	FR1	3	R1156D
2126.171	2.15	1688536	PROB	2.15	n/a	n/a	-999	15	[5, 2, 5]	12	FR1	3	R1156D
2128.321	3.201	1690686	PROB	3.201	n/a	n/a	-999	15	[8, 2, 9]	19	FR1	3	R1156D
2131.522	2.684	1693887	PROB	2.684	n/a	n/a	-999	15	[1, 5, 3]	9	FR1	3	R1156D
2134.206	3.023	1696571	PROB	3.023	n/a	n/a	-999	15	[1, 3, 8]	12	FR1	3	R1156D
2137.229	0.011	1699594	STOP	n/a	n/a	n/a	-999	15	[-999, -999, -999]	n/a	FR1	3	R1156D
2137.24	0.566	1699605	DISTRACT_END	n/a	n/a	n/a	-999	14	[0, 0, 0]	n/a	FR1	3	R1156D
2137.806	0.518	1700171	RETRIEVAL_ORIENT	n/a	n/a	n/a	-999	14	[0, 0, 0]	n/a	FR1	3	R1156D
2138.324	23.568	1700689	REC_START	n/a	n/a	n/a	-999	14	[0, 0, 0]	n/a	FR1	3	R1156D
2161.892	6.441	1724256	REC_WORD	6.441	n/a	BRUSH	-999	14	[0, 0, 0]	n/a	FR1	3	R1156D
2168.333	7.33	1730696	REC_END	n/a	n/a	n/a	-999	14	[0, 0, 0]	n/a	FR1	3	R1156D
2175.663	0.5	1738026	TRIAL	n/a	n/a	n/a	-999	15	[0, 0, 0]	n/a	FR1	3	R1156D
2176.163	10.428	1738526	COUNTDOWN_START	n/a	n/a	n/a	-999	15	[0, 0, 0]	n/a	FR1	3	R1156D
2186.591	0.008	1748953	COUNTDOWN_END	n/a	n/a	n/a	-999	15	[0, 0, 0]	n/a	FR1	3	R1156D
2186.599	1.617	1748961	ORIENT	n/a	n/a	n/a	-999	15	[0, 0, 0]	n/a	FR1	3	R1156D
2188.216	1.967	1750578	ORIENT_OFF	n/a	n/a	n/a	-999	15	[0, 0, 0]	n/a	FR1	3	R1156D
2190.183	1.617	1752545	WORD	n/a	wordpools/wordpool_EN.txt	LEAF	1	15	[0, 0, 0]	n/a	FR1	3	R1156D
2191.8	0.8	1754162	WORD_OFF	n/a	n/a	LEAF	1	15	[0, 0, 0]	n/a	FR1	3	R1156D
2192.6	1.617	1754962	WORD	n/a	wordpools/wordpool_EN.txt	JAIL	2	15	[0, 0, 0]	n/a	FR1	3	R1156D
2194.217	1.0	1756579	WORD_OFF	n/a	n/a	JAIL	2	15	[0, 0, 0]	n/a	FR1	3	R1156D
2195.217	1.617	1757579	WORD	n/a	wordpools/wordpool_EN.txt	FLUTE	3	15	[0, 0, 0]	n/a	FR1	3	R1156D
2196.834	0.867	1759196	WORD_OFF	n/a	n/a	FLUTE	3	15	[0, 0, 0]	n/a	FR1	3	R1156D
2197.701	1.617	1760063	WORD	n/a	wordpools/wordpool_EN.txt	THREAD	4	15	[0, 0, 0]	n/a	FR1	3	R1156D
2199.318	1.0	1761680	WORD_OFF	n/a	n/a	THREAD	4	15	[0, 0, 0]	n/a	FR1	3	R1156D
2200.318	1.616	1762679	WORD	n/a	wordpools/wordpool_EN.txt	NET	5	15	[0, 0, 0]	n/a	FR1	3	R1156D
2201.934	0.983	1764295	WORD_OFF	n/a	n/a	NET	5	15	[0, 0, 0]	n/a	FR1	3	R1156D
2202.917	1.601	1765278	WORD	n/a	wordpools/wordpool_EN.txt	SHEEP	6	15	[0, 0, 0]	n/a	FR1	3	R1156D
2204.518	0.917	1766879	WORD_OFF	n/a	n/a	SHEEP	6	15	[0, 0, 0]	n/a	FR1	3	R1156D
2205.435	1.617	1767796	WORD	n/a	wordpools/wordpool_EN.txt	BEACH	7	15	[0, 0, 0]	n/a	FR1	3	R1156D
2207.052	0.883	1769413	WORD_OFF	n/a	n/a	BEACH	7	15	[0, 0, 0]	n/a	FR1	3	R1156D
2207.935	1.618	1770296	WORD	n/a	wordpools/wordpool_EN.txt	BREAD	8	15	[0, 0, 0]	n/a	FR1	3	R1156D
2209.553	0.817	1771914	WORD_OFF	n/a	n/a	BREAD	8	15	[0, 0, 0]	n/a	FR1	3	R1156D
2210.37	1.617	1772731	WORD	n/a	wordpools/wordpool_EN.txt	BRANCH	9	15	[0, 0, 0]	n/a	FR1	3	R1156D
2211.987	0.949	1774348	WORD_OFF	n/a	n/a	BRANCH	9	15	[0, 0, 0]	n/a	FR1	3	R1156D
2212.936	1.618	1775297	WORD	n/a	wordpools/wordpool_EN.txt	GEESE	10	15	[0, 0, 0]	n/a	FR1	3	R1156D
2214.554	0.917	1776915	WORD_OFF	n/a	n/a	GEESE	10	15	[0, 0, 0]	n/a	FR1	3	R1156D
2215.471	1.616	1777832	WORD	n/a	wordpools/wordpool_EN.txt	GRAPE	11	15	[0, 0, 0]	n/a	FR1	3	R1156D
2217.087	0.984	1779448	WORD_OFF	n/a	n/a	GRAPE	11	15	[0, 0, 0]	n/a	FR1	3	R1156D
2218.071	1.617	1780432	WORD	n/a	wordpools/wordpool_EN.txt	ROOM	12	15	[0, 0, 0]	n/a	FR1	3	R1156D
2219.688	0.0	1782048	WORD_OFF	n/a	n/a	ROOM	12	15	[0, 0, 0]	n/a	FR1	3	R1156D
2219.688	0.0	1782048	DISTRACT_START	n/a	n/a	n/a	-999	15	[0, 0, 0]	n/a	FR1	3	R1156D
2219.688	0.017	1782048	START	n/a	n/a	n/a	-999	16	[-999, -999, -999]	n/a	FR1	3	R1156D
2219.705	3.567	1782065	PROB	3.567	n/a	n/a	-999	16	[7, 3, 8]	18	FR1	3	R1156D
2223.272	3.633	1785632	PROB	3.633	n/a	n/a	-999	16	[9, 5, 2]	16	FR1	3	R1156D
2226.905	2.501	1789265	PROB	2.501	n/a	n/a	-999	16	[4, 1, 5]	10	FR1	3	R1156D
2229.406	2.901	1791766	PROB	2.901	n/a	n/a	-999	16	[7, 2, 9]	18	FR1	3	R1156D
2232.307	3.967	1794667	PROB	3.967	n/a	n/a	-999	16	[9, 4, 3]	16	FR1	3	R1156D
2236.274	2.451	1798634	PROB	2.451	n/a	n/a	-999	16	[1, 8, 2]	11	FR1	3	R1156D
2238.725	2.752	1801084	PROB	2.752	n/a	n/a	-999	16	[9, 7, 6]	22	FR1	3	R1156D
2241.477	0.015	1803836	STOP	n/a	n/a	n/a	-999	16	[-999, -999, -999]	n/a	FR1	3	R1156D
2241.492	0.6	1803851	DISTRACT_END	n/a	n/a	n/a	-999	15	[0, 0, 0]	n/a	FR1	3	R1156D
2242.092	0.518	1804451	RETRIEVAL_ORIENT	n/a	n/a	n/a	-999	15	[0, 0, 0]	n/a	FR1	3	R1156D
2242.61	3.955	1804969	REC_START	n/a	n/a	n/a	-999	15	[0, 0, 0]	n/a	FR1	3	R1156D
2246.565	7.027	1808924	REC_WORD	7.027	n/a	BEACH	7	15	[0, 0, 0]	n/a	FR1	3	R1156D
2253.592	11.064	1815951	REC_WORD	11.064	n/a	BREAD	8	15	[0, 0, 0]	n/a	FR1	3	R1156D
2264.656	2.331	1827014	REC_WORD	2.331	n/a	GRAPE	11	15	[0, 0, 0]	n/a	FR1	3	R1156D
2266.987	5.632	1829345	REC_WORD_VV	5.632	n/a	<>	-999	15	[0, 0, 0]	n/a	FR1	3	R1156D
2272.619	5.295	1834977	REC_END	n/a	n/a	n/a	-999	15	[0, 0, 0]	n/a	FR1	3	R1156D
2277.914	0.5	1840271	TRIAL	n/a	n/a	n/a	-999	16	[0, 0, 0]	n/a	FR1	3	R1156D
2278.414	10.428	1840771	COUNTDOWN_START	n/a	n/a	n/a	-999	16	[0, 0, 0]	n/a	FR1	3	R1156D
2288.842	0.009	1851199	COUNTDOWN_END	n/a	n/a	n/a	-999	16	[0, 0, 0]	n/a	FR1	3	R1156D
2288.851	1.617	1851208	ORIENT	n/a	n/a	n/a	-999	16	[0, 0, 0]	n/a	FR1	3	R1156D
2290.468	1.85	1852825	ORIENT_OFF	n/a	n/a	n/a	-999	16	[0, 0, 0]	n/a	FR1	3	R1156D
2292.318	1.616	1854675	WORD	n/a	wordpools/wordpool_EN.txt	HAND	1	16	[0, 0, 0]	n/a	FR1	3	R1156D
2293.934	0.784	1856290	WORD_OFF	n/a	n/a	HAND	1	16	[0, 0, 0]	n/a	FR1	3	R1156D
2294.718	1.617	1857074	WORD	n/a	wordpools/wordpool_EN.txt	CLAY	2	16	[0, 0, 0]	n/a	FR1	3	R1156D
2296.335	0.901	1858691	WORD_OFF	n/a	n/a	CLAY	2	16	[0, 0, 0]	n/a	FR1	3	R1156D
2297.236	1.617	1859592	WORD	n/a	wordpools/wordpool_EN.txt	CALF	3	16	[0, 0, 0]	n/a	FR1	3	R1156D
2298.853	0.966	1861209	WORD_OFF	n/a	n/a	CALF	3	16	[0, 0, 0]	n/a	FR1	3	R1156D
2299.819	1.617	1862175	WORD	n/a	wordpools/wordpool_EN.txt	STOOL	4	16	[0, 0, 0]	n/a	FR1	3	R1156D
2301.436	0.8	1863792	WORD_OFF	n/a	n/a	STOOL	4	16	[0, 0, 0]	n/a	FR1	3	R1156D
2302.236	1.617	1864592	WORD	n/a	wordpools/wordpool_EN.txt	BOOT	5	16	[0, 0, 0]	n/a	FR1	3	R1156D
2303.853	0.934	1866209	WORD_OFF	n/a	n/a	BOOT	5	16	[0, 0, 0]	n/a	FR1	3	R1156D
2304.787	1.617	1867143	WORD	n/a	wordpools/wordpool_EN.txt	CART	6	16	[0, 0, 0]	n/a	FR1	3	R1156D
2306.404	0.817	1868760	WORD_OFF	n/a	n/a	CART	6	16	[0, 0, 0]	n/a	FR1	3	R1156D
2307.221	1.617	1869577	WORD	n/a	wordpools/wordpool_EN.txt	CROWN	7	16	[0, 0, 0]	n/a	FR1	3	R1156D
2308.838	0.967	1871194	WORD_OFF	n/a	n/a	CROWN	7	16	[0, 0, 0]	n/a	FR1	3	R1156D
2309.805	1.616	1872161	WORD	n/a	wordpools/wordpool_EN.txt	PEA	8	16	[0, 0, 0]	n/a	FR1	3	R1156D
2311.421	0.917	1873777	WORD_OFF	n/a	n/a	PEA	8	16	[0, 0, 0]	n/a	FR1	3	R1156D
2312.338	1.616	1874694	WORD	n/a	wordpools/wordpool_EN.txt	STEAK	9	16	[0, 0, 0]	n/a	FR1	3	R1156D
2313.954	0.918	1876309	WORD_OFF	n/a	n/a	STEAK	9	16	[0, 0, 0]	n/a	FR1	3	R1156D
2314.872	1.617	1877227	WORD	n/a	wordpools/wordpool_EN.txt	TIE	10	16	[0, 0, 0]	n/a	FR1	3	R1156D
2316.489	1.0	1878844	WORD_OFF	n/a	n/a	TIE	10	16	[0, 0, 0]	n/a	FR1	3	R1156D
2317.489	1.617	1879844	WORD	n/a	wordpools/wordpool_EN.txt	GRASS	11	16	[0, 0, 0]	n/a	FR1	3	R1156D
2319.106	0.783	1881461	WORD_OFF	n/a	n/a	GRASS	11	16	[0, 0, 0]	n/a	FR1	3	R1156D
2319.889	1.618	1882244	WORD	n/a	wordpools/wordpool_EN.txt	DIME	12	16	[0, 0, 0]	n/a	FR1	3	R1156D
2321.507	0.0	1883862	WORD_OFF	n/a	n/a	DIME	12	16	[0, 0, 0]	n/a	FR1	3	R1156D
2321.507	0.0	1883862	DISTRACT_START	n/a	n/a	n/a	-999	16	[0, 0, 0]	n/a	FR1	3	R1156D
2321.507	0.016	1883862	START	n/a	n/a	n/a	-999	17	[-999, -999, -999]	n/a	FR1	3	R1156D
2321.523	3.234	1883878	PROB	3.234	n/a	n/a	-999	17	[3, 7, 6]	16	FR1	3	R1156D
2324.757	2.667	1887112	PROB	2.667	n/a	n/a	-999	17	[3, 7, 9]	19	FR1	3	R1156D
2327.424	2.284	1889779	PROB	2.284	n/a	n/a	-999	17	[1, 6, 6]	13	FR1	3	R1156D
2329.708	2.851	1892063	PROB	2.851	n/a	n/a	-999	17	[3, 9, 8]	20	FR1	3	R1156D
2332.559	3.2	1894913	PROB	3.2	n/a	n/a	-999	17	[4, 8, 1]	13	FR1	3	R1156D
2335.759	3.134	1898113	PROB	3.134	n/a	n/a	-999	17	[3, 9, 2]	14	FR1	3	R1156D
2338.893	3.672	1901247	PROB	3.672	n/a	n/a	-999	17	[6, 7, 2]	15	FR1	3	R1156D
2342.565	0.012	1904919	STOP	n/a	n/a	n/a	-999	17	[-999, -999, -999]	n/a	FR1	3	R1156D
2342.577	0.6	1904931	DISTRACT_END	n/a	n/a	n/a	-999	16	[0, 0, 0]	n/a	FR1	3	R1156D
2343.177	0.518	1905531	RETRIEVAL_ORIENT	n/a	n/a	n/a	-999	16	[0, 0, 0]	n/a	FR1	3	R1156D
2343.695	6.949	1906049	REC_START	n/a	n/a	n/a	-999	16	[0, 0, 0]	n/a	FR1	3	R1156D
2350.644	1.824	1912997	REC_WORD	1.824	n/a	HAND	1	16	[0, 0, 0]	n/a	FR1	3	R1156D
2352.468	4.342	1914821	REC_WORD	4.342	n/a	CLAY	2	16	[0, 0, 0]	n/a	FR1	3	R1156D
2356.81	16.895	1919163	REC_WORD	16.895	n/a	FOOT	-999	16	[0, 0, 0]	n/a	FR1	3	R1156D
2373.705	5.079	1936057	REC_END	n/a	n/a	n/a	-999	16	[0, 0, 0]	n/a	FR1	3	R1156D
2378.784	0.5	1941136	TRIAL	n/a	n/a	n/a	-999	17	[0, 0, 0]	n/a	FR1	3	R1156D
2379.284	10.428	1941636	COUNTDOWN_START	n/a	n/a	n/a	-999	17	[0, 0, 0]	n/a	FR1	3	R1156D
2389.712	0.007	1952063	COUNTDOWN_END	n/a	n/a	n/a	-999	17	[0, 0, 0]	n/a	FR1	3	R1156D
2389.719	1.617	1952070	ORIENT	n/a	n/a	n/a	-999	17	[0, 0, 0]	n/a	FR1	3	R1156D
2391.336	2.234	1953687	ORIENT_OFF	n/a	n/a	n/a	-999	17	[0, 0, 0]	n/a	FR1	3	R1156D
2393.57	1.617	1955921	WORD	n/a	wordpools/wordpool_EN.txt	SNOW	1	17	[0, 0, 0]	n/a	FR1	3	R1156D
2395.187	0.867	1957538	WORD_OFF	n/a	n/a	SNOW	1	17	[0, 0, 0]	n/a	FR1	3	R1156D
2396.054	1.617	1958405	WORD	n/a	wordpools/wordpool_EN.txt	LAND	2	17	[0, 0, 0]	n/a	FR1	3	R1156D
2397.671	0.983	1960022	WORD_OFF	n/a	n/a	LAND	2	17	[0, 0, 0]	n/a	FR1	3	R1156D
2398.654	1.617	1961005	WORD	n/a	wordpools/wordpool_EN.txt	SAIL	3	17	[0, 0, 0]	n/a	FR1	3	R1156D
2400.271	0.884	1962622	WORD_OFF	n/a	n/a	SAIL	3	17	[0, 0, 0]	n/a	FR1	3	R1156D
2401.155	1.617	1963506	WORD	n/a	wordpools/wordpool_EN.txt	RAIN	4	17	[0, 0, 0]	n/a	FR1	3	R1156D
2402.772	0.983	1965123	WORD_OFF	n/a	n/a	RAIN	4	17	[0, 0, 0]	n/a	FR1	3	R1156D
2403.755	1.617	1966106	WORD	n/a	wordpools/wordpool_EN.txt	ICE	5	17	[0, 0, 0]	n/a	FR1	3	R1156D
2405.372	0.984	1967723	WORD_OFF	n/a	n/a	ICE	5	17	[0, 0, 0]	n/a	FR1	3	R1156D
2406.356	1.617	1968707	WORD	n/a	wordpools/wordpool_EN.txt	TOY	6	17	[0, 0, 0]	n/a	FR1	3	R1156D
2407.973	0.816	1970323	WORD_OFF	n/a	n/a	TOY	6	17	[0, 0, 0]	n/a	FR1	3	R1156D
2408.789	1.617	1971139	WORD	n/a	wordpools/wordpool_EN.txt	CAT	7	17	[0, 0, 0]	n/a	FR1	3	R1156D
2410.406	0.8	1972756	WORD_OFF	n/a	n/a	CAT	7	17	[0, 0, 0]	n/a	FR1	3	R1156D
2411.206	1.617	1973556	WORD	n/a	wordpools/wordpool_EN.txt	MAZE	8	17	[0, 0, 0]	n/a	FR1	3	R1156D
2412.823	0.817	1975173	WORD_OFF	n/a	n/a	MAZE	8	17	[0, 0, 0]	n/a	FR1	3	R1156D
2413.64	1.617	1975990	WORD	n/a	wordpools/wordpool_EN.txt	RAKE	9	17	[0, 0, 0]	n/a	FR1	3	R1156D
2415.257	0.917	1977607	WORD_OFF	n/a	n/a	RAKE	9	17	[0, 0, 0]	n/a	FR1	3	R1156D
2416.174	1.617	1978524	WORD	n/a	wordpools/wordpool_EN.txt	FLAG	10	17	[0, 0, 0]	n/a	FR1	3	R1156D
2417.791	0.884	1980141	WORD_OFF	n/a	n/a	FLAG	10	17	[0, 0, 0]	n/a	FR1	3	R1156D
2418.675	1.616	1981025	WORD	n/a	wordpools/wordpool_EN.txt	TOOTH	11	17	[0, 0, 0]	n/a	FR1	3	R1156D
2420.291	0.784	1982641	WORD_OFF	n/a	n/a	TOOTH	11	17	[0, 0, 0]	n/a	FR1	3	R1156D
2421.075	1.617	1983425	WORD	n/a	wordpools/wordpool_EN.txt	ARM	12	17	[0, 0, 0]	n/a	FR1	3	R1156D
2422.692	0.0	1985042	DISTRACT_START	n/a	n/a	n/a	-999	17	[0, 0, 0]	n/a	FR1	3	R1156D
2422.692	0.001	1985042	WORD_OFF	n/a	n/a	ARM	12	17	[0, 0, 0]	n/a	FR1	3	R1156D
2422.693	0.016	1985043	START	n/a	n/a	n/a	-999	18	[-999, -999, -999]	n/a	FR1	3	R1156D
2422.709	3.984	1985059	PROB	3.984	n/a	n/a	-999	18	[5, 5, 4]	14	FR1	3	R1156D
2426.693	2.333	1989042	PROB	2.333	n/a	n/a	-999	18	[4, 1, 1]	6	FR1	3	R1156D
2429.026	3.601	1991375	PROB	3.601	n/a	n/a	-999	18	[4, 7, 4]	15	FR1	3	R1156D
2432.627	2.934	1994976	PROB	2.934	n/a	n/a	-999	18	[6, 5, 9]	20	FR1	3	R1156D
2435.561	4.267	1997910	PROB	4.267	n/a	n/a	-999	18	[8, 7, 5]	20	FR1	3	R1156D
2439.828	3.202	2002177	PROB	3.202	n/a	n/a	-999	18	[3, 4, 7]	14	FR1	3	R1156D
2443.03	0.016	2005379	STOP	n/a	n/a	n/a	-999	18	[-999, -999, -999]	n/a	FR1	3	R1156D
2443.046	0.566	2005395	DISTRACT_END	n/a	n/a	n/a	-999	17	[0, 0, 0]	n/a	FR1	3	R1156D
2443.612	0.518	2005961	RETRIEVAL_ORIENT	n/a	n/a	n/a	-999	17	[0, 0, 0]	n/a	FR1	3	R1156D
2444.13	23.19	2006479	REC_START	n/a	n/a	n/a	-999	17	[0, 0, 0]	n/a	FR1	3	R1156D
2467.32	2.962	2029667	REC_WORD_VV	2.962	n/a	<>	-999	17	[0, 0, 0]	n/a	FR1	3	R1156D
2470.282	3.858	2032629	REC_WORD_VV	3.858	n/a	<>	-999	17	[0, 0, 0]	n/a	FR1	3	R1156D
2474.14	7.046	2036487	REC_END	n/a	n/a	n/a	-999	17	[0, 0, 0]	n/a	FR1	3	R1156D
2481.186	0.5	2043533	TRIAL	n/a	n/a	n/a	-999	18	[0, 0, 0]	n/a	FR1	3	R1156D
2481.686	10.428	2044033	COUNTDOWN_START	n/a	n/a	n/a	-999	18	[0, 0, 0]	n/a	FR1	3	R1156D
2492.114	0.007	2054460	COUNTDOWN_END	n/a	n/a	n/a	-999	18	[0, 0, 0]	n/a	FR1	3	R1156D
2492.121	1.617	2054467	ORIENT	n/a	n/a	n/a	-999	18	[0, 0, 0]	n/a	FR1	3	R1156D
2493.738	2.084	2056084	ORIENT_OFF	n/a	n/a	n/a	-999	18	[0, 0, 0]	n/a	FR1	3	R1156D
2495.822	1.617	2058168	WORD	n/a	wordpools/wordpool_EN.txt	FARM	1	18	[0, 0, 0]	n/a	FR1	3	R1156D
2497.439	0.833	2059785	WORD_OFF	n/a	n/a	FARM	1	18	[0, 0, 0]	n/a	FR1	3	R1156D
2498.272	1.617	2060618	WORD	n/a	wordpools/wordpool_EN.txt	MUD	2	18	[0, 0, 0]	n/a	FR1	3	R1156D
2499.889	0.85	2062235	WORD_OFF	n/a	n/a	MUD	2	18	[0, 0, 0]	n/a	FR1	3	R1156D
2500.739	1.617	2063084	WORD	n/a	wordpools/wordpool_EN.txt	HEN	3	18	[0, 0, 0]	n/a	FR1	3	R1156D
2502.356	0.767	2064701	WORD_OFF	n/a	n/a	HEN	3	18	[0, 0, 0]	n/a	FR1	3	R1156D
2503.123	1.617	2065468	WORD	n/a	wordpools/wordpool_EN.txt	ROAD	4	18	[0, 0, 0]	n/a	FR1	3	R1156D
2504.74	0.784	2067085	WORD_OFF	n/a	n/a	ROAD	4	18	[0, 0, 0]	n/a	FR1	3	R1156D
2505.524	1.617	2067869	WORD	n/a	wordpools/wordpool_EN.txt	FOOT	5	18	[0, 0, 0]	n/a	FR1	3	R1156D
2507.141	1.017	2069486	WORD_OFF	n/a	n/a	FOOT	5	18	[0, 0, 0]	n/a	FR1	3	R1156D
2508.158	1.616	2070503	WORD	n/a	wordpools/wordpool_EN.txt	WHEEL	6	18	[0, 0, 0]	n/a	FR1	3	R1156D
2509.774	0.851	2072119	WORD_OFF	n/a	n/a	WHEEL	6	18	[0, 0, 0]	n/a	FR1	3	R1156D
2510.625	1.617	2072970	WORD	n/a	wordpools/wordpool_EN.txt	SLIME	7	18	[0, 0, 0]	n/a	FR1	3	R1156D
2512.242	0.966	2074587	WORD_OFF	n/a	n/a	SLIME	7	18	[0, 0, 0]	n/a	FR1	3	R1156D
2513.208	1.617	2075553	WORD	n/a	wordpools/wordpool_EN.txt	RUG	8	18	[0, 0, 0]	n/a	FR1	3	R1156D
2514.825	0.901	2077170	WORD_OFF	n/a	n/a	RUG	8	18	[0, 0, 0]	n/a	FR1	3	R1156D
2515.726	1.617	2078071	WORD	n/a	wordpools/wordpool_EN.txt	GATE	9	18	[0, 0, 0]	n/a	FR1	3	R1156D
2517.343	0.8	2079688	WORD_OFF	n/a	n/a	GATE	9	18	[0, 0, 0]	n/a	FR1	3	R1156D
2518.143	1.617	2080488	WORD	n/a	wordpools/wordpool_EN.txt	BRUSH	10	18	[0, 0, 0]	n/a	FR1	3	R1156D
2519.76	0.783	2082104	WORD_OFF	n/a	n/a	BRUSH	10	18	[0, 0, 0]	n/a	FR1	3	R1156D
2520.543	1.617	2082887	WORD	n/a	wordpools/wordpool_EN.txt	TRAY	11	18	[0, 0, 0]	n/a	FR1	3	R1156D
2522.16	0.867	2084504	WORD_OFF	n/a	n/a	TRAY	11	18	[0, 0, 0]	n/a	FR1	3	R1156D
2523.027	1.617	2085371	WORD	n/a	wordpools/wordpool_EN.txt	MOUTH	12	18	[0, 0, 0]	n/a	FR1	3	R1156D
2524.644	0.0	2086988	WORD_OFF	n/a	n/a	MOUTH	12	18	[0, 0, 0]	n/a	FR1	3	R1156D
2524.644	0.0	2086988	DISTRACT_START	n/a	n/a	n/a	-999	18	[0, 0, 0]	n/a	FR1	3	R1156D
2524.644	0.017	2086988	START	n/a	n/a	n/a	-999	19	[-999, -999, -999]	n/a	FR1	3	R1156D
2524.661	3.317	2087005	PROB	3.317	n/a	n/a	-999	19	[1, 1, 5]	7	FR1	3	R1156D
2527.978	3.701	2090322	PROB	3.701	n/a	n/a	-999	19	[6, 2, 9]	17	FR1	3	R1156D
2531.679	7.184	2094023	PROB	7.184	n/a	n/a	-999	19	[2, 5, 6]	13	FR1	3	R1156D
2538.863	2.817	2101206	PROB	2.817	n/a	n/a	-999	19	[7, 4, 8]	19	FR1	3	R1156D
2541.68	2.301	2104023	PROB	2.301	n/a	n/a	-999	19	[1, 9, 1]	11	FR1	3	R1156D
2543.981	2.943	2106324	PROB	2.943	n/a	n/a	-999	19	[5, 7, 8]	20	FR1	3	R1156D
2546.924	0.006	2109267	STOP	n/a	n/a	n/a	-999	19	[-999, -999, -999]	n/a	FR1	3	R1156D
2546.93	0.635	2109273	DISTRACT_END	n/a	n/a	n/a	-999	18	[0, 0, 0]	n/a	FR1	3	R1156D
2547.565	0.518	2109908	RETRIEVAL_ORIENT	n/a	n/a	n/a	-999	18	[0, 0, 0]	n/a	FR1	3	R1156D
2548.083	0.65	2110426	REC_START	n/a	n/a	n/a	-999	18	[0, 0, 0]	n/a	FR1	3	R1156D
2548.733	1.0	2111076	REC_WORD_VV	1.0	n/a	<>	-999	18	[0, 0, 0]	n/a	FR1	3	R1156D
2549.733	1.0	2112076	REC_WORD_VV	1.0	n/a	<>	-999	18	[0, 0, 0]	n/a	FR1	3	R1156D
2550.733	2.091	2113076	REC_WORD_VV	2.091	n/a	<>	-999	18	[0, 0, 0]	n/a	FR1	3	R1156D
2552.824	1.456	2115167	REC_WORD	1.456	n/a	BRUSH	10	18	[0, 0, 0]	n/a	FR1	3	R1156D
2554.28	4.305	2116623	REC_WORD	4.305	n/a	TRAY	11	18	[0, 0, 0]	n/a	FR1	3	R1156D
2558.585	19.509	2120927	REC_WORD	19.509	n/a	SLIME	7	18	[0, 0, 0]	n/a	FR1	3	R1156D
2578.094	4.927	2140435	REC_END	n/a	n/a	n/a	-999	18	[0, 0, 0]	n/a	FR1	3	R1156D
2583.021	0.5	2145362	TRIAL	n/a	n/a	n/a	-999	19	[0, 0, 0]	n/a	FR1	3	R1156D
2583.521	10.428	2145862	COUNTDOWN_START	n/a	n/a	n/a	-999	19	[0, 0, 0]	n/a	FR1	3	R1156D
2593.949	0.007	2156290	COUNTDOWN_END	n/a	n/a	n/a	-999	19	[0, 0, 0]	n/a	FR1	3	R1156D
2593.956	1.618	2156297	ORIENT	n/a	n/a	n/a	-999	19	[0, 0, 0]	n/a	FR1	3	R1156D
2595.574	2.167	2157914	ORIENT_OFF	n/a	n/a	n/a	-999	19	[0, 0, 0]	n/a	FR1	3	R1156D
2597.741	1.617	2160081	WORD	n/a	wordpools/wordpool_EN.txt	PIE	1	19	[0, 0, 0]	n/a	FR1	3	R1156D
2599.358	0.916	2161698	WORD_OFF	n/a	n/a	PIE	1	19	[0, 0, 0]	n/a	FR1	3	R1156D
2600.274	1.617	2162614	WORD	n/a	wordpools/wordpool_EN.txt	BRICK	2	19	[0, 0, 0]	n/a	FR1	3	R1156D
2601.891	0.784	2164231	WORD_OFF	n/a	n/a	BRICK	2	19	[0, 0, 0]	n/a	FR1	3	R1156D
2602.675	1.617	2165015	WORD	n/a	wordpools/wordpool_EN.txt	SMILE	3	19	[0, 0, 0]	n/a	FR1	3	R1156D
2604.292	0.967	2166632	WORD_OFF	n/a	n/a	SMILE	3	19	[0, 0, 0]	n/a	FR1	3	R1156D
2605.259	1.617	2167599	WORD	n/a	wordpools/wordpool_EN.txt	CHEEK	4	19	[0, 0, 0]	n/a	FR1	3	R1156D
2606.876	0.866	2169216	WORD_OFF	n/a	n/a	CHEEK	4	19	[0, 0, 0]	n/a	FR1	3	R1156D
2607.742	1.617	2170082	WORD	n/a	wordpools/wordpool_EN.txt	FENCE	5	19	[0, 0, 0]	n/a	FR1	3	R1156D
2609.359	0.917	2171699	WORD_OFF	n/a	n/a	FENCE	5	19	[0, 0, 0]	n/a	FR1	3	R1156D
2610.276	1.617	2172616	WORD	n/a	wordpools/wordpool_EN.txt	LAMP	6	19	[0, 0, 0]	n/a	FR1	3	R1156D
2611.893	0.934	2174233	WORD_OFF	n/a	n/a	LAMP	6	19	[0, 0, 0]	n/a	FR1	3	R1156D
2612.827	1.617	2175167	WORD	n/a	wordpools/wordpool_EN.txt	SUIT	7	19	[0, 0, 0]	n/a	FR1	3	R1156D
2614.444	0.983	2176783	WORD_OFF	n/a	n/a	SUIT	7	19	[0, 0, 0]	n/a	FR1	3	R1156D
2615.427	1.617	2177766	WORD	n/a	wordpools/wordpool_EN.txt	PLATE	8	19	[0, 0, 0]	n/a	FR1	3	R1156D
2617.044	1.0	2179383	WORD_OFF	n/a	n/a	PLATE	8	19	[0, 0, 0]	n/a	FR1	3	R1156D
2618.044	1.617	2180383	WORD	n/a	wordpools/wordpool_EN.txt	PASTE	9	19	[0, 0, 0]	n/a	FR1	3	R1156D
2619.661	0.8	2182000	WORD_OFF	n/a	n/a	PASTE	9	19	[0, 0, 0]	n/a	FR1	3	R1156D
2620.461	1.617	2182800	WORD	n/a	wordpools/wordpool_EN.txt	MUG	10	19	[0, 0, 0]	n/a	FR1	3	R1156D
2622.078	0.951	2184417	WORD_OFF	n/a	n/a	MUG	10	19	[0, 0, 0]	n/a	FR1	3	R1156D
2623.029	1.617	2185368	WORD	n/a	wordpools/wordpool_EN.txt	TENT	11	19	[0, 0, 0]	n/a	FR1	3	R1156D
2624.646	0.95	2186985	WORD_OFF	n/a	n/a	TENT	11	19	[0, 0, 0]	n/a	FR1	3	R1156D
2625.596	1.617	2187935	WORD	n/a	wordpools/wordpool_EN.txt	RIB	12	19	[0, 0, 0]	n/a	FR1	3	R1156D
2627.213	0.0	2189552	WORD_OFF	n/a	n/a	RIB	12	19	[0, 0, 0]	n/a	FR1	3	R1156D
2627.213	0.0	2189552	DISTRACT_START	n/a	n/a	n/a	-999	19	[0, 0, 0]	n/a	FR1	3	R1156D
2627.213	0.016	2189552	START	n/a	n/a	n/a	-999	20	[-999, -999, -999]	n/a	FR1	3	R1156D
2627.229	3.168	2189568	PROB	3.168	n/a	n/a	-999	20	[6, 4, 9]	19	FR1	3	R1156D
2630.397	2.583	2192736	PROB	2.583	n/a	n/a	-999	20	[2, 3, 8]	13	FR1	3	R1156D
2632.98	2.384	2195318	PROB	2.384	n/a	n/a	-999	20	[6, 8, 7]	21	FR1	3	R1156D
2635.364	2.484	2197702	PROB	2.484	n/a	n/a	-999	20	[6, 7, 7]	20	FR1	3	R1156D
2637.848	2.784	2200186	PROB	2.784	n/a	n/a	-999	20	[1, 6, 7]	14	FR1	3	R1156D
2640.632	8.565	2202970	PROB	8.565	n/a	n/a	-999	20	[2, 6, 3]	11	FR1	3	R1156D
2649.197	0.02	2211535	STOP	n/a	n/a	n/a	-999	20	[-999, -999, -999]	n/a	FR1	3	R1156D
2649.217	0.517	2211555	DISTRACT_END	n/a	n/a	n/a	-999	19	[0, 0, 0]	n/a	FR1	3	R1156D
2649.734	0.517	2212072	RETRIEVAL_ORIENT	n/a	n/a	n/a	-999	19	[0, 0, 0]	n/a	FR1	3	R1156D
2650.251	3.176	2212589	REC_START	n/a	n/a	n/a	-999	19	[0, 0, 0]	n/a	FR1	3	R1156D
2653.427	1.645	2215764	REC_WORD	1.645	n/a	MUG	10	19	[0, 0, 0]	n/a	FR1	3	R1156D
2655.072	1.792	2217409	REC_WORD	1.792	n/a	TENT	11	19	[0, 0, 0]	n/a	FR1	3	R1156D
2656.864	23.401	2219201	REC_WORD	23.401	n/a	FACE	-999	19	[0, 0, 0]	n/a	FR1	3	R1156D
2680.265	8.809	2242601	REC_END	n/a	n/a	n/a	-999	19	[0, 0, 0]	n/a	FR1	3	R1156D
2689.074	0.5	2251409	TRIAL	n/a	n/a	n/a	-999	20	[0, 0, 0]	n/a	FR1	3	R1156D
2689.574	10.428	2251909	COUNTDOWN_START	n/a	n/a	n/a	-999	20	[0, 0, 0]	n/a	FR1	3	R1156D
2700.002	0.007	2262337	COUNTDOWN_END	n/a	n/a	n/a	-999	20	[0, 0, 0]	n/a	FR1	3	R1156D
2700.009	1.617	2262344	ORIENT	n/a	n/a	n/a	-999	20	[0, 0, 0]	n/a	FR1	3	R1156D
2701.626	2.283	2263961	ORIENT_OFF	n/a	n/a	n/a	-999	20	[0, 0, 0]	n/a	FR1	3	R1156D
2703.909	1.618	2266244	WORD	n/a	wordpools/wordpool_EN.txt	WAVE	1	20	[0, 0, 0]	n/a	FR1	3	R1156D
2705.527	0.934	2267862	WORD_OFF	n/a	n/a	WAVE	1	20	[0, 0, 0]	n/a	FR1	3	R1156D
2706.461	1.616	2268796	WORD	n/a	wordpools/wordpool_EN.txt	CONE	2	20	[0, 0, 0]	n/a	FR1	3	R1156D
2708.077	0.883	2270411	WORD_OFF	n/a	n/a	CONE	2	20	[0, 0, 0]	n/a	FR1	3	R1156D
2708.96	1.618	2271294	WORD	n/a	wordpools/wordpool_EN.txt	BAT	3	20	[0, 0, 0]	n/a	FR1	3	R1156D
2710.578	0.783	2272912	WORD_OFF	n/a	n/a	BAT	3	20	[0, 0, 0]	n/a	FR1	3	R1156D
2711.361	1.617	2273695	WORD	n/a	wordpools/wordpool_EN.txt	KITE	4	20	[0, 0, 0]	n/a	FR1	3	R1156D
2712.978	0.834	2275312	WORD_OFF	n/a	n/a	KITE	4	20	[0, 0, 0]	n/a	FR1	3	R1156D
2713.812	1.617	2276146	WORD	n/a	wordpools/wordpool_EN.txt	CAPE	5	20	[0, 0, 0]	n/a	FR1	3	R1156D
2715.429	0.833	2277763	WORD_OFF	n/a	n/a	CAPE	5	20	[0, 0, 0]	n/a	FR1	3	R1156D
2716.262	1.617	2278596	WORD	n/a	wordpools/wordpool_EN.txt	SHELL	6	20	[0, 0, 0]	n/a	FR1	3	R1156D
2717.879	0.834	2280213	WORD_OFF	n/a	n/a	SHELL	6	20	[0, 0, 0]	n/a	FR1	3	R1156D
2718.713	1.617	2281047	WORD	n/a	wordpools/wordpool_EN.txt	BADGE	7	20	[0, 0, 0]	n/a	FR1	3	R1156D
2720.33	0.867	2282664	WORD_OFF	n/a	n/a	BADGE	7	20	[0, 0, 0]	n/a	FR1	3	R1156D
2721.197	1.617	2283531	WORD	n/a	wordpools/wordpool_EN.txt	SWORD	8	20	[0, 0, 0]	n/a	FR1	3	R1156D
2722.814	0.783	2285148	WORD_OFF	n/a	n/a	SWORD	8	20	[0, 0, 0]	n/a	FR1	3	R1156D
2723.597	1.617	2285931	WORD	n/a	wordpools/wordpool_EN.txt	ROOT	9	20	[0, 0, 0]	n/a	FR1	3	R1156D
2725.214	0.95	2287548	WORD_OFF	n/a	n/a	ROOT	9	20	[0, 0, 0]	n/a	FR1	3	R1156D
2726.164	1.617	2288497	WORD	n/a	wordpools/wordpool_EN.txt	BOOK	10	20	[0, 0, 0]	n/a	FR1	3	R1156D
2727.781	0.984	2290114	WORD_OFF	n/a	n/a	BOOK	10	20	[0, 0, 0]	n/a	FR1	3	R1156D
2728.765	1.617	2291098	WORD	n/a	wordpools/wordpool_EN.txt	PIG	11	20	[0, 0, 0]	n/a	FR1	3	R1156D
2730.382	0.966	2292715	WORD_OFF	n/a	n/a	PIG	11	20	[0, 0, 0]	n/a	FR1	3	R1156D
2731.348	1.616	2293681	WORD	n/a	wordpools/wordpool_EN.txt	VEST	12	20	[0, 0, 0]	n/a	FR1	3	R1156D
2732.964	0.0	2295297	WORD_OFF	n/a	n/a	VEST	12	20	[0, 0, 0]	n/a	FR1	3	R1156D
2732.964	0.001	2295297	DISTRACT_START	n/a	n/a	n/a	-999	20	[0, 0, 0]	n/a	FR1	3	R1156D
2732.965	0.017	2295298	START	n/a	n/a	n/a	-999	21	[-999, -999, -999]	n/a	FR1	3	R1156D
2732.982	3.734	2295315	PROB	3.734	n/a	n/a	-999	21	[7, 2, 1]	10	FR1	3	R1156D
2736.716	2.317	2299049	PROB	2.317	n/a	n/a	-999	21	[6, 9, 6]	21	FR1	3	R1156D
2739.033	3.651	2301366	PROB	3.651	n/a	n/a	-999	21	[9, 6, 9]	24	FR1	3	R1156D
2742.684	3.45	2305017	PROB	3.45	n/a	n/a	-999	21	[5, 6, 9]	20	FR1	3	R1156D
2746.134	2.601	2308466	PROB	2.601	n/a	n/a	-999	21	[2, 9, 5]	17	FR1	3	R1156D
2748.735	4.326	2311067	PROB	4.326	n/a	n/a	-999	21	[4, 7, 3]	14	FR1	3	R1156D
2753.061	0.008	2315393	STOP	n/a	n/a	n/a	-999	21	[-999, -999, -999]	n/a	FR1	3	R1156D
2753.069	0.667	2315401	DISTRACT_END	n/a	n/a	n/a	-999	20	[0, 0, 0]	n/a	FR1	3	R1156D
2753.736	0.517	2316068	RETRIEVAL_ORIENT	n/a	n/a	n/a	-999	20	[0, 0, 0]	n/a	FR1	3	R1156D
2754.253	18.011	2316585	REC_START	n/a	n/a	n/a	-999	20	[0, 0, 0]	n/a	FR1	3	R1156D
2772.264	1.331	2334595	REC_WORD	1.331	n/a	FACE	-999	20	[0, 0, 0]	n/a	FR1	3	R1156D
2773.595	10.672	2335926	REC_WORD_VV	10.672	n/a	<>	-999	20	[0, 0, 0]	n/a	FR1	3	R1156D
2784.267	5.425	2346597	REC_END	n/a	n/a	n/a	-999	20	[0, 0, 0]	n/a	FR1	3	R1156D
2789.692	0.5	2352022	TRIAL	n/a	n/a	n/a	-999	21	[0, 0, 0]	n/a	FR1	3	R1156D
2790.192	10.428	2352522	COUNTDOWN_START	n/a	n/a	n/a	-999	21	[0, 0, 0]	n/a	FR1	3	R1156D
2800.62	0.008	2362950	COUNTDOWN_END	n/a	n/a	n/a	-999	21	[0, 0, 0]	n/a	FR1	3	R1156D
2800.628	1.616	2362958	ORIENT	n/a	n/a	n/a	-999	21	[0, 0, 0]	n/a	FR1	3	R1156D
2802.244	2.235	2364573	ORIENT_OFF	n/a	n/a	n/a	-999	21	[0, 0, 0]	n/a	FR1	3	R1156D
2804.479	1.616	2366808	WORD	n/a	wordpools/wordpool_EN.txt	STRAW	1	21	[0, 0, 0]	n/a	FR1	3	R1156D
2806.095	0.866	2368424	WORD_OFF	n/a	n/a	STRAW	1	21	[0, 0, 0]	n/a	FR1	3	R1156D
2806.961	1.618	2369290	WORD	n/a	wordpools/wordpool_EN.txt	CUBE	2	21	[0, 0, 0]	n/a	FR1	3	R1156D
2808.579	0.767	2370908	WORD_OFF	n/a	n/a	CUBE	2	21	[0, 0, 0]	n/a	FR1	3	R1156D
2809.346	1.616	2371675	WORD	n/a	wordpools/wordpool_EN.txt	PIPE	3	21	[0, 0, 0]	n/a	FR1	3	R1156D
2810.962	0.818	2373291	WORD_OFF	n/a	n/a	PIPE	3	21	[0, 0, 0]	n/a	FR1	3	R1156D
2811.78	1.617	2374109	WORD	n/a	wordpools/wordpool_EN.txt	PIT	4	21	[0, 0, 0]	n/a	FR1	3	R1156D
2813.397	0.983	2375726	WORD_OFF	n/a	n/a	PIT	4	21	[0, 0, 0]	n/a	FR1	3	R1156D
2814.38	1.617	2376709	WORD	n/a	wordpools/wordpool_EN.txt	SWAMP	5	21	[0, 0, 0]	n/a	FR1	3	R1156D
2815.997	0.933	2378326	WORD_OFF	n/a	n/a	SWAMP	5	21	[0, 0, 0]	n/a	FR1	3	R1156D
2816.93	1.618	2379259	WORD	n/a	wordpools/wordpool_EN.txt	BOWL	6	21	[0, 0, 0]	n/a	FR1	3	R1156D
2818.548	0.9	2380877	WORD_OFF	n/a	n/a	BOWL	6	21	[0, 0, 0]	n/a	FR1	3	R1156D
2819.448	1.617	2381777	WORD	n/a	wordpools/wordpool_EN.txt	GLASS	7	21	[0, 0, 0]	n/a	FR1	3	R1156D
2821.065	0.849	2383393	WORD_OFF	n/a	n/a	GLASS	7	21	[0, 0, 0]	n/a	FR1	3	R1156D
2821.914	1.618	2384242	WORD	n/a	wordpools/wordpool_EN.txt	TOE	8	21	[0, 0, 0]	n/a	FR1	3	R1156D
2823.532	0.9	2385860	WORD_OFF	n/a	n/a	TOE	8	21	[0, 0, 0]	n/a	FR1	3	R1156D
2824.432	1.617	2386760	WORD	n/a	wordpools/wordpool_EN.txt	BATH	9	21	[0, 0, 0]	n/a	FR1	3	R1156D
2826.049	0.817	2388377	WORD_OFF	n/a	n/a	BATH	9	21	[0, 0, 0]	n/a	FR1	3	R1156D
2826.866	1.617	2389194	WORD	n/a	wordpools/wordpool_EN.txt	SHEET	10	21	[0, 0, 0]	n/a	FR1	3	R1156D
2828.483	1.0	2390811	WORD_OFF	n/a	n/a	SHEET	10	21	[0, 0, 0]	n/a	FR1	3	R1156D
2829.483	1.617	2391811	WORD	n/a	wordpools/wordpool_EN.txt	BRIDGE	11	21	[0, 0, 0]	n/a	FR1	3	R1156D
2831.1	0.866	2393428	WORD_OFF	n/a	n/a	BRIDGE	11	21	[0, 0, 0]	n/a	FR1	3	R1156D
2831.966	1.618	2394294	WORD	n/a	wordpools/wordpool_EN.txt	TOOL	12	21	[0, 0, 0]	n/a	FR1	3	R1156D
2833.584	0.0	2395912	WORD_OFF	n/a	n/a	TOOL	12	21	[0, 0, 0]	n/a	FR1	3	R1156D
2833.584	0.0	2395912	DISTRACT_START	n/a	n/a	n/a	-999	21	[0, 0, 0]	n/a	FR1	3	R1156D
2833.584	0.016	2395912	START	n/a	n/a	n/a	-999	22	[-999, -999, -999]	n/a	FR1	3	R1156D
2833.6	4.101	2395928	PROB	4.101	n/a	n/a	-999	22	[8, 4, 3]	15	FR1	3	R1156D
2837.701	2.867	2400029	PROB	2.867	n/a	n/a	-999	22	[2, 6, 7]	15	FR1	3	R1156D
2840.568	3.634	2402895	PROB	3.634	n/a	n/a	-999	22	[8, 3, 6]	17	FR1	3	R1156D
2844.202	2.768	2406529	PROB	2.768	n/a	n/a	-999	22	[6, 2, 9]	17	FR1	3	R1156D
2846.97	3.367	2409297	PROB	3.367	n/a	n/a	-999	22	[9, 8, 4]	21	FR1	3	R1156D
2850.337	3.725	2412664	PROB	3.725	n/a	n/a	-999	22	[8, 3, 5]	16	FR1	3	R1156D
2854.062	0.009	2416389	STOP	n/a	n/a	n/a	-999	22	[-999, -999, -999]	n/a	FR1	3	R1156D
2854.071	0.617	2416398	DISTRACT_END	n/a	n/a	n/a	-999	21	[0, 0, 0]	n/a	FR1	3	R1156D
2854.688	0.517	2417015	RETRIEVAL_ORIENT	n/a	n/a	n/a	-999	21	[0, 0, 0]	n/a	FR1	3	R1156D
2855.205	2.433	2417532	REC_START	n/a	n/a	n/a	-999	21	[0, 0, 0]	n/a	FR1	3	R1156D
2857.638	0.932	2419965	REC_WORD_VV	0.932	n/a	<>	-999	21	[0, 0, 0]	n/a	FR1	3	R1156D
2858.57	1.527	2420896	REC_WORD	1.527	n/a	BRIDGE	11	21	[0, 0, 0]	n/a	FR1	3	R1156D
2860.097	3.999	2422423	REC_WORD	3.999	n/a	TOE	8	21	[0, 0, 0]	n/a	FR1	3	R1156D
2864.096	21.121	2426422	REC_WORD_VV	21.121	n/a	<>	-999	21	[0, 0, 0]	n/a	FR1	3	R1156D
2885.217	4.844	2447542	REC_END	n/a	n/a	n/a	-999	21	[0, 0, 0]	n/a	FR1	3	R1156D
2890.061	0.5	2452386	TRIAL	n/a	n/a	n/a	-999	22	[0, 0, 0]	n/a	FR1	3	R1156D
2890.561	10.428	2452886	COUNTDOWN_START	n/a	n/a	n/a	-999	22	[0, 0, 0]	n/a	FR1	3	R1156D
2900.989	0.007	2463313	COUNTDOWN_END	n/a	n/a	n/a	-999	22	[0, 0, 0]	n/a	FR1	3	R1156D
2900.996	1.617	2463320	ORIENT	n/a	n/a	n/a	-999	22	[0, 0, 0]	n/a	FR1	3	R1156D
2902.613	2.1	2464937	ORIENT_OFF	n/a	n/a	n/a	-999	22	[0, 0, 0]	n/a	FR1	3	R1156D
2904.713	1.617	2467037	WORD	n/a	wordpools/wordpool_EN.txt	STAIR	1	22	[0, 0, 0]	n/a	FR1	3	R1156D
2906.33	0.951	2468654	WORD_OFF	n/a	n/a	STAIR	1	22	[0, 0, 0]	n/a	FR1	3	R1156D
2907.281	1.616	2469605	WORD	n/a	wordpools/wordpool_EN.txt	SHIP	2	22	[0, 0, 0]	n/a	FR1	3	R1156D
2908.897	0.801	2471221	WORD_OFF	n/a	n/a	SHIP	2	22	[0, 0, 0]	n/a	FR1	3	R1156D
2909.698	1.617	2472022	WORD	n/a	wordpools/wordpool_EN.txt	PET	3	22	[0, 0, 0]	n/a	FR1	3	R1156D
2911.315	0.866	2473639	WORD_OFF	n/a	n/a	PET	3	22	[0, 0, 0]	n/a	FR1	3	R1156D
2912.181	1.617	2474505	WORD	n/a	wordpools/wordpool_EN.txt	FORT	4	22	[0, 0, 0]	n/a	FR1	3	R1156D
2913.798	0.851	2476122	WORD_OFF	n/a	n/a	FORT	4	22	[0, 0, 0]	n/a	FR1	3	R1156D
2914.649	1.617	2476972	WORD	n/a	wordpools/wordpool_EN.txt	ZOO	5	22	[0, 0, 0]	n/a	FR1	3	R1156D
2916.266	0.9	2478589	WORD_OFF	n/a	n/a	ZOO	5	22	[0, 0, 0]	n/a	FR1	3	R1156D
2917.166	1.617	2479489	WORD	n/a	wordpools/wordpool_EN.txt	TREE	6	22	[0, 0, 0]	n/a	FR1	3	R1156D
2918.783	0.867	2481106	WORD_OFF	n/a	n/a	TREE	6	22	[0, 0, 0]	n/a	FR1	3	R1156D
2919.65	1.616	2481973	WORD	n/a	wordpools/wordpool_EN.txt	MAIL	7	22	[0, 0, 0]	n/a	FR1	3	R1156D
2921.266	0.934	2483589	WORD_OFF	n/a	n/a	MAIL	7	22	[0, 0, 0]	n/a	FR1	3	R1156D
2922.2	1.617	2484523	WORD	n/a	wordpools/wordpool_EN.txt	JET	8	22	[0, 0, 0]	n/a	FR1	3	R1156D
2923.817	0.817	2486140	WORD_OFF	n/a	n/a	JET	8	22	[0, 0, 0]	n/a	FR1	3	R1156D
2924.634	1.617	2486957	WORD	n/a	wordpools/wordpool_EN.txt	BOAT	9	22	[0, 0, 0]	n/a	FR1	3	R1156D
2926.251	0.8	2488574	WORD_OFF	n/a	n/a	BOAT	9	22	[0, 0, 0]	n/a	FR1	3	R1156D
2927.051	1.617	2489374	WORD	n/a	wordpools/wordpool_EN.txt	PEAR	10	22	[0, 0, 0]	n/a	FR1	3	R1156D
2928.668	0.767	2490991	WORD_OFF	n/a	n/a	PEAR	10	22	[0, 0, 0]	n/a	FR1	3	R1156D
2929.435	1.617	2491758	WORD	n/a	wordpools/wordpool_EN.txt	GOAT	11	22	[0, 0, 0]	n/a	FR1	3	R1156D
2931.052	0.966	2493375	WORD_OFF	n/a	n/a	GOAT	11	22	[0, 0, 0]	n/a	FR1	3	R1156D
2932.018	1.617	2494341	WORD	n/a	wordpools/wordpool_EN.txt	EEL	12	22	[0, 0, 0]	n/a	FR1	3	R1156D
2933.635	0.0	2495957	WORD_OFF	n/a	n/a	EEL	12	22	[0, 0, 0]	n/a	FR1	3	R1156D
2933.635	0.001	2495957	DISTRACT_START	n/a	n/a	n/a	-999	22	[0, 0, 0]	n/a	FR1	3	R1156D
2933.636	0.016	2495958	START	n/a	n/a	n/a	-999	23	[-999, -999, -999]	n/a	FR1	3	R1156D
2933.652	4.751	2495974	PROB	4.751	n/a	n/a	-999	23	[2, 9, 5]	16	FR1	3	R1156D
2938.403	6.151	2500725	PROB	6.151	n/a	n/a	-999	23	[7, 9, 9]	25	FR1	3	R1156D
2944.554	2.4	2506876	PROB	2.4	n/a	n/a	-999	23	[5, 2, 2]	9	FR1	3	R1156D
2946.954	7.066	2509276	PROB	7.066	n/a	n/a	-999	23	[8, 8, 7]	23	FR1	3	R1156D
2954.02	0.019	2516341	STOP	n/a	n/a	n/a	-999	23	[-999, -999, -999]	n/a	FR1	3	R1156D
2954.039	0.634	2516360	DISTRACT_END	n/a	n/a	n/a	-999	22	[0, 0, 0]	n/a	FR1	3	R1156D
2954.673	0.517	2516994	RETRIEVAL_ORIENT	n/a	n/a	n/a	-999	22	[0, 0, 0]	n/a	FR1	3	R1156D
2955.19	2.856	2517511	REC_START	n/a	n/a	n/a	-999	22	[0, 0, 0]	n/a	FR1	3	R1156D
2958.046	1.0	2520367	REC_WORD_VV	1.0	n/a	<>	-999	22	[0, 0, 0]	n/a	FR1	3	R1156D
2959.046	26.156	2521367	REC_WORD_VV	26.156	n/a	<>	-999	22	[0, 0, 0]	n/a	FR1	3	R1156D
2985.202	5.794	2547522	REC_END	n/a	n/a	n/a	-999	22	[0, 0, 0]	n/a	FR1	3	R1156D
2990.996	0.5	2553315	TRIAL	n/a	n/a	n/a	-999	23	[0, 0, 0]	n/a	FR1	3	R1156D
2991.496	10.428	2553815	COUNTDOWN_START	n/a	n/a	n/a	-999	23	[0, 0, 0]	n/a	FR1	3	R1156D
3001.924	0.006	2564243	COUNTDOWN_END	n/a	n/a	n/a	-999	23	[0, 0, 0]	n/a	FR1	3	R1156D
3001.93	1.601	2564249	ORIENT	n/a	n/a	n/a	-999	23	[0, 0, 0]	n/a	FR1	3	R1156D
3003.531	2.234	2565850	ORIENT_OFF	n/a	n/a	n/a	-999	23	[0, 0, 0]	n/a	FR1	3	R1156D
3005.765	1.617	2568084	WORD	n/a	wordpools/wordpool_EN.txt	SKY	1	23	[0, 0, 0]	n/a	FR1	3	R1156D
3007.382	0.784	2569701	WORD_OFF	n/a	n/a	SKY	1	23	[0, 0, 0]	n/a	FR1	3	R1156D
3008.166	1.617	2570484	WORD	n/a	wordpools/wordpool_EN.txt	OWL	2	23	[0, 0, 0]	n/a	FR1	3	R1156D
3009.783	0.883	2572101	WORD_OFF	n/a	n/a	OWL	2	23	[0, 0, 0]	n/a	FR1	3	R1156D
3010.666	1.617	2572984	WORD	n/a	wordpools/wordpool_EN.txt	MOON	3	23	[0, 0, 0]	n/a	FR1	3	R1156D
3012.283	0.767	2574601	WORD_OFF	n/a	n/a	MOON	3	23	[0, 0, 0]	n/a	FR1	3	R1156D
3013.05	1.617	2575368	WORD	n/a	wordpools/wordpool_EN.txt	STORE	4	23	[0, 0, 0]	n/a	FR1	3	R1156D
3014.667	0.883	2576985	WORD_OFF	n/a	n/a	STORE	4	23	[0, 0, 0]	n/a	FR1	3	R1156D
3015.55	1.617	2577868	WORD	n/a	wordpools/wordpool_EN.txt	FOOD	5	23	[0, 0, 0]	n/a	FR1	3	R1156D
3017.167	0.8	2579485	WORD_OFF	n/a	n/a	FOOD	5	23	[0, 0, 0]	n/a	FR1	3	R1156D
3017.967	1.618	2580285	WORD	n/a	wordpools/wordpool_EN.txt	BARN	6	23	[0, 0, 0]	n/a	FR1	3	R1156D
3019.585	0.883	2581903	WORD_OFF	n/a	n/a	BARN	6	23	[0, 0, 0]	n/a	FR1	3	R1156D
3020.468	1.617	2582786	WORD	n/a	wordpools/wordpool_EN.txt	PLANE	7	23	[0, 0, 0]	n/a	FR1	3	R1156D
3022.085	0.967	2584403	WORD_OFF	n/a	n/a	PLANE	7	23	[0, 0, 0]	n/a	FR1	3	R1156D
3023.052	1.617	2585370	WORD	n/a	wordpools/wordpool_EN.txt	HOUSE	8	23	[0, 0, 0]	n/a	FR1	3	R1156D
3024.669	0.983	2586987	WORD_OFF	n/a	n/a	HOUSE	8	23	[0, 0, 0]	n/a	FR1	3	R1156D
3025.652	1.617	2587970	WORD	n/a	wordpools/wordpool_EN.txt	HOOF	9	23	[0, 0, 0]	n/a	FR1	3	R1156D
3027.269	1.0	2589586	WORD_OFF	n/a	n/a	HOOF	9	23	[0, 0, 0]	n/a	FR1	3	R1156D
3028.269	1.617	2590586	WORD	n/a	wordpools/wordpool_EN.txt	SEED	10	23	[0, 0, 0]	n/a	FR1	3	R1156D
3029.886	0.834	2592203	WORD_OFF	n/a	n/a	SEED	10	23	[0, 0, 0]	n/a	FR1	3	R1156D
3030.72	1.617	2593037	WORD	n/a	wordpools/wordpool_EN.txt	TANK	11	23	[0, 0, 0]	n/a	FR1	3	R1156D
3032.337	0.9	2594654	WORD_OFF	n/a	n/a	TANK	11	23	[0, 0, 0]	n/a	FR1	3	R1156D
3033.237	1.617	2595554	WORD	n/a	wordpools/wordpool_EN.txt	STEM	12	23	[0, 0, 0]	n/a	FR1	3	R1156D
3034.854	0.0	2597171	DISTRACT_START	n/a	n/a	n/a	-999	23	[0, 0, 0]	n/a	FR1	3	R1156D
3034.854	0.001	2597171	WORD_OFF	n/a	n/a	STEM	12	23	[0, 0, 0]	n/a	FR1	3	R1156D
3034.855	0.016	2597172	START	n/a	n/a	n/a	-999	24	[-999, -999, -999]	n/a	FR1	3	R1156D
3034.871	3.384	2597188	PROB	3.384	n/a	n/a	-999	24	[9, 4, 6]	19	FR1	3	R1156D
3038.255	2.917	2600572	PROB	2.917	n/a	n/a	-999	24	[8, 5, 1]	14	FR1	3	R1156D
3041.172	2.834	2603489	PROB	2.834	n/a	n/a	-999	24	[1, 4, 9]	14	FR1	3	R1156D
3044.006	3.0	2606323	PROB	3.0	n/a	n/a	-999	24	[6, 6, 3]	15	FR1	3	R1156D
3047.006	2.984	2609322	PROB	2.984	n/a	n/a	-999	24	[4, 2, 2]	8	FR1	3	R1156D
3049.99	2.051	2612306	PROB	2.051	n/a	n/a	-999	24	[1, 7, 1]	9	FR1	3	R1156D
3052.041	3.46	2614357	PROB	3.46	n/a	n/a	-999	24	[8, 8, 9]	25	FR1	3	R1156D
3055.501	0.007	2617817	STOP	n/a	n/a	n/a	-999	24	[-999, -999, -999]	n/a	FR1	3	R1156D
3055.508	0.567	2617824	DISTRACT_END	n/a	n/a	n/a	-999	23	[0, 0, 0]	n/a	FR1	3	R1156D
3056.075	0.517	2618391	RETRIEVAL_ORIENT	n/a	n/a	n/a	-999	23	[0, 0, 0]	n/a	FR1	3	R1156D
3056.592	9.414	2618908	REC_START	n/a	n/a	n/a	-999	23	[0, 0, 0]	n/a	FR1	3	R1156D
3066.006	1.883	2628321	REC_WORD	1.883	n/a	BRIDGE	-999	23	[0, 0, 0]	n/a	FR1	3	R1156D
3067.889	14.524	2630204	REC_WORD	14.524	n/a	CAPE	-999	23	[0, 0, 0]	n/a	FR1	3	R1156D
3082.413	4.191	2644728	REC_WORD	4.191	n/a	ARM	-999	23	[0, 0, 0]	n/a	FR1	3	R1156D
3086.604	22.213	2648918	REC_END	n/a	n/a	n/a	-999	23	[0, 0, 0]	n/a	FR1	3	R1156D
3108.817	0.5	2671130	TRIAL	n/a	n/a	n/a	-999	24	[0, 0, 0]	n/a	FR1	3	R1156D
3109.317	10.428	2671630	COUNTDOWN_START	n/a	n/a	n/a	-999	24	[0, 0, 0]	n/a	FR1	3	R1156D
3119.745	0.008	2682058	COUNTDOWN_END	n/a	n/a	n/a	-999	24	[0, 0, 0]	n/a	FR1	3	R1156D
3119.753	1.617	2682066	ORIENT	n/a	n/a	n/a	-999	24	[0, 0, 0]	n/a	FR1	3	R1156D
3121.37	2.284	2683682	ORIENT_OFF	n/a	n/a	n/a	-999	24	[0, 0, 0]	n/a	FR1	3	R1156D
3123.654	1.616	2685966	WORD	n/a	wordpools/wordpool_EN.txt	SOAP	1	24	[0, 0, 0]	n/a	FR1	3	R1156D
3125.27	0.951	2687582	WORD_OFF	n/a	n/a	SOAP	1	24	[0, 0, 0]	n/a	FR1	3	R1156D
3126.221	1.617	2688533	WORD	n/a	wordpools/wordpool_EN.txt	BOMB	2	24	[0, 0, 0]	n/a	FR1	3	R1156D
3127.838	0.967	2690150	WORD_OFF	n/a	n/a	BOMB	2	24	[0, 0, 0]	n/a	FR1	3	R1156D
3128.805	1.617	2691117	WORD	n/a	wordpools/wordpool_EN.txt	SIGN	3	24	[0, 0, 0]	n/a	FR1	3	R1156D
3130.422	0.85	2692734	WORD_OFF	n/a	n/a	SIGN	3	24	[0, 0, 0]	n/a	FR1	3	R1156D
3131.272	1.617	2693584	WORD	n/a	wordpools/wordpool_EN.txt	BAG	4	24	[0, 0, 0]	n/a	FR1	3	R1156D
3132.889	0.833	2695201	WORD_OFF	n/a	n/a	BAG	4	24	[0, 0, 0]	n/a	FR1	3	R1156D
3133.722	1.617	2696034	WORD	n/a	wordpools/wordpool_EN.txt	FOAM	5	24	[0, 0, 0]	n/a	FR1	3	R1156D
3135.339	0.817	2697651	WORD_OFF	n/a	n/a	FOAM	5	24	[0, 0, 0]	n/a	FR1	3	R1156D
3136.156	1.617	2698468	WORD	n/a	wordpools/wordpool_EN.txt	MOUSE	6	24	[0, 0, 0]	n/a	FR1	3	R1156D
3137.773	0.767	2700085	WORD_OFF	n/a	n/a	MOUSE	6	24	[0, 0, 0]	n/a	FR1	3	R1156D
3138.54	1.617	2700852	WORD	n/a	wordpools/wordpool_EN.txt	STORM	7	24	[0, 0, 0]	n/a	FR1	3	R1156D
3140.157	0.933	2702468	WORD_OFF	n/a	n/a	STORM	7	24	[0, 0, 0]	n/a	FR1	3	R1156D
3141.09	1.617	2703401	WORD	n/a	wordpools/wordpool_EN.txt	LIP	8	24	[0, 0, 0]	n/a	FR1	3	R1156D
3142.707	0.767	2705018	WORD_OFF	n/a	n/a	LIP	8	24	[0, 0, 0]	n/a	FR1	3	R1156D
3143.474	1.617	2705785	WORD	n/a	wordpools/wordpool_EN.txt	PIN	9	24	[0, 0, 0]	n/a	FR1	3	R1156D
3145.091	0.917	2707402	WORD_OFF	n/a	n/a	PIN	9	24	[0, 0, 0]	n/a	FR1	3	R1156D
3146.008	1.617	2708319	WORD	n/a	wordpools/wordpool_EN.txt	SQUARE	10	24	[0, 0, 0]	n/a	FR1	3	R1156D
3147.625	1.017	2709936	WORD_OFF	n/a	n/a	SQUARE	10	24	[0, 0, 0]	n/a	FR1	3	R1156D
3148.642	1.616	2710953	WORD	n/a	wordpools/wordpool_EN.txt	LAWN	11	24	[0, 0, 0]	n/a	FR1	3	R1156D
3150.258	0.951	2712569	WORD_OFF	n/a	n/a	LAWN	11	24	[0, 0, 0]	n/a	FR1	3	R1156D
3151.209	1.617	2713520	WORD	n/a	wordpools/wordpool_EN.txt	ARK	12	24	[0, 0, 0]	n/a	FR1	3	R1156D
3152.826	0.0	2715137	WORD_OFF	n/a	n/a	ARK	12	24	[0, 0, 0]	n/a	FR1	3	R1156D
3152.826	0.0	2715137	DISTRACT_START	n/a	n/a	n/a	-999	24	[0, 0, 0]	n/a	FR1	3	R1156D
3152.826	0.016	2715137	START	n/a	n/a	n/a	-999	25	[-999, -999, -999]	n/a	FR1	3	R1156D
3152.842	3.184	2715153	PROB	3.184	n/a	n/a	-999	25	[1, 9, 6]	16	FR1	3	R1156D
3156.026	2.351	2718337	PROB	2.351	n/a	n/a	-999	25	[1, 8, 8]	17	FR1	3	R1156D
3158.377	3.267	2720688	PROB	3.267	n/a	n/a	-999	25	[5, 9, 5]	19	FR1	3	R1156D
3161.644	2.917	2723954	PROB	2.917	n/a	n/a	-999	25	[6, 6, 8]	20	FR1	3	R1156D
3164.561	2.784	2726871	PROB	2.784	n/a	n/a	-999	25	[1, 7, 4]	12	FR1	3	R1156D
3167.345	1.884	2729655	PROB	1.884	n/a	n/a	-999	25	[1, 4, 4]	9	FR1	3	R1156D
3169.229	2.617	2731539	PROB	2.617	n/a	n/a	-999	25	[1, 2, 7]	10	FR1	3	R1156D
3171.846	3.575	2734156	PROB	3.575	n/a	n/a	-999	25	[6, 6, 3]	15	FR1	3	R1156D
3175.421	0.009	2737731	STOP	n/a	n/a	n/a	-999	25	[-999, -999, -999]	n/a	FR1	3	R1156D
3175.43	0.515	2737740	DISTRACT_END	n/a	n/a	n/a	-999	24	[0, 0, 0]	n/a	FR1	3	R1156D
3175.945	0.519	2738255	RETRIEVAL_ORIENT	n/a	n/a	n/a	-999	24	[0, 0, 0]	n/a	FR1	3	R1156D
3176.464	3.164	2738774	REC_START	n/a	n/a	n/a	-999	24	[0, 0, 0]	n/a	FR1	3	R1156D
3179.628	14.546	2741937	REC_WORD_VV	14.546	n/a	<>	-999	24	[0, 0, 0]	n/a	FR1	3	R1156D
3194.174	12.303	2756483	REC_WORD	12.303	n/a	CAKE	-999	24	[0, 0, 0]	n/a	FR1	3	R1156D
3206.477	5.226	2768785	REC_END	n/a	n/a	n/a	-999	24	[0, 0, 0]	n/a	FR1	3	R1156D
3211.703	0.5	2774011	TRIAL	n/a	n/a	n/a	-999	25	[0, 0, 0]	n/a	FR1	3	R1156D
3212.203	10.428	2774511	COUNTDOWN_START	n/a	n/a	n/a	-999	25	[0, 0, 0]	n/a	FR1	3	R1156D
3222.631	0.007	2784938	COUNTDOWN_END	n/a	n/a	n/a	-999	25	[0, 0, 0]	n/a	FR1	3	R1156D
3222.638	1.617	2784945	ORIENT	n/a	n/a	n/a	-999	25	[0, 0, 0]	n/a	FR1	3	R1156D
3224.255	2.184	2786562	ORIENT_OFF	n/a	n/a	n/a	-999	25	[0, 0, 0]	n/a	FR1	3	R1156D
3226.439	1.617	2788746	WORD	n/a	wordpools/wordpool_EN.txt	STICK	1	25	[0, 0, 0]	n/a	FR1	3	R1156D
3228.056	0.984	2790363	WORD_OFF	n/a	n/a	STICK	1	25	[0, 0, 0]	n/a	FR1	3	R1156D
3229.04	1.617	2791347	WORD	n/a	wordpools/wordpool_EN.txt	DESK	2	25	[0, 0, 0]	n/a	FR1	3	R1156D
3230.657	0.983	2792964	WORD_OFF	n/a	n/a	DESK	2	25	[0, 0, 0]	n/a	FR1	3	R1156D
3231.64	1.617	2793947	WORD	n/a	wordpools/wordpool_EN.txt	LEG	3	25	[0, 0, 0]	n/a	FR1	3	R1156D
3233.257	0.933	2795564	WORD_OFF	n/a	n/a	LEG	3	25	[0, 0, 0]	n/a	FR1	3	R1156D
3234.19	1.617	2796496	WORD	n/a	wordpools/wordpool_EN.txt	ELF	4	25	[0, 0, 0]	n/a	FR1	3	R1156D
3235.807	0.984	2798113	WORD_OFF	n/a	n/a	ELF	4	25	[0, 0, 0]	n/a	FR1	3	R1156D
3236.791	1.617	2799097	WORD	n/a	wordpools/wordpool_EN.txt	YARD	5	25	[0, 0, 0]	n/a	FR1	3	R1156D
3238.408	0.917	2800714	WORD_OFF	n/a	n/a	YARD	5	25	[0, 0, 0]	n/a	FR1	3	R1156D
3239.325	1.616	2801631	WORD	n/a	wordpools/wordpool_EN.txt	DRESS	6	25	[0, 0, 0]	n/a	FR1	3	R1156D
3240.941	0.983	2803247	WORD_OFF	n/a	n/a	DRESS	6	25	[0, 0, 0]	n/a	FR1	3	R1156D
3241.924	1.618	2804230	WORD	n/a	wordpools/wordpool_EN.txt	STONE	7	25	[0, 0, 0]	n/a	FR1	3	R1156D
