onset	duration	sample	trial_type	response_time	stim_file	item_name	serialpos	list	test	answer	experiment	session	subject
0.0	0.243	-1	Logging	n/a	n/a	n/a	-999	23	[0, 0, 0]	n/a	FR1	1	R1306E
0.243	4.423	-1	Logging	n/a	n/a	n/a	-999	-999	[0, 0, 0]	n/a	FR1	1	R1306E
4.666	0.0	-1	INSTRUCT_END	n/a	n/a	n/a	-999	-999	[0, 0, 0]	n/a	FR1	1	R1306E
4.666	0.0	-1	WAITING_START	n/a	n/a	n/a	-999	-1	[0, 0, 0]	n/a	FR1	1	R1306E
4.666	0.0	-1	TRIAL	n/a	n/a	n/a	-999	-1	[0, 0, 0]	n/a	FR1	1	R1306E
4.666	0.0	-1	INSTRUCT_START	n/a	n/a	n/a	-999	-999	[0, 0, 0]	n/a	FR1	1	R1306E
4.666	0.0	-1	MIC	n/a	n/a	n/a	-999	-999	[0, 0, 0]	n/a	FR1	1	R1306E
4.666	0.0	-1	TRIAL_START	n/a	n/a	n/a	-999	-1	[0, 0, 0]	n/a	FR1	1	R1306E
4.666	361.629	-1	MIC	n/a	n/a	n/a	-999	-999	[0, 0, 0]	n/a	FR1	1	R1306E
366.295	0.0	333652	ORIENT_START	n/a	n/a	n/a	-999	-1	[0, 0, 0]	n/a	FR1	1	R1306E
366.295	0.0	333652	WAITING_END	n/a	n/a	n/a	-999	-1	[0, 0, 0]	n/a	FR1	1	R1306E
366.295	0.0	333652	COUNTDOWN_START	n/a	n/a	n/a	-999	-1	[0, 0, 0]	n/a	FR1	1	R1306E
366.295	11.67	333652	COUNTDOWN_END	n/a	n/a	n/a	-999	-1	[0, 0, 0]	n/a	FR1	1	R1306E
377.965	0.0	345322	ENCODING_START	n/a	n/a	n/a	-999	-1	[0, 0, 0]	n/a	FR1	1	R1306E
377.965	1.117	345322	ORIENT_END	n/a	n/a	n/a	-999	-1	[0, 0, 0]	n/a	FR1	1	R1306E
379.082	1.633	346439	WORD	n/a	n/a	ATTIC	1	-1	[0, 0, 0]	n/a	FR1	1	R1306E
380.715	1.006	348072	WORD_OFF	n/a	n/a	ATTIC	1	-1	[0, 0, 0]	n/a	FR1	1	R1306E
381.721	1.627	349077	WORD	n/a	n/a	BEAM	2	-1	[0, 0, 0]	n/a	FR1	1	R1306E
383.348	0.997	350704	WORD_OFF	n/a	n/a	BEAM	2	-1	[0, 0, 0]	n/a	FR1	1	R1306E
384.345	1.622	351701	WORD	n/a	n/a	CAMEL	3	-1	[0, 0, 0]	n/a	FR1	1	R1306E
385.967	0.912	353323	WORD_OFF	n/a	n/a	CAMEL	3	-1	[0, 0, 0]	n/a	FR1	1	R1306E
386.879	1.62	354235	WORD	n/a	n/a	CHEST	4	-1	[0, 0, 0]	n/a	FR1	1	R1306E
388.499	1.103	355855	WORD_OFF	n/a	n/a	CHEST	4	-1	[0, 0, 0]	n/a	FR1	1	R1306E
389.602	1.631	356958	WORD	n/a	n/a	COTTON	5	-1	[0, 0, 0]	n/a	FR1	1	R1306E
391.233	0.801	358589	WORD_OFF	n/a	n/a	COTTON	5	-1	[0, 0, 0]	n/a	FR1	1	R1306E
392.034	1.633	359390	WORD	n/a	n/a	FLOOD	6	-1	[0, 0, 0]	n/a	FR1	1	R1306E
393.667	0.771	361023	WORD_OFF	n/a	n/a	FLOOD	6	-1	[0, 0, 0]	n/a	FR1	1	R1306E
394.438	1.629	361794	WORD	n/a	n/a	IRON	7	-1	[0, 0, 0]	n/a	FR1	1	R1306E
396.067	1.02	363423	WORD_OFF	n/a	n/a	IRON	7	-1	[0, 0, 0]	n/a	FR1	1	R1306E
397.087	1.631	364443	WORD	n/a	n/a	RHINO	8	-1	[0, 0, 0]	n/a	FR1	1	R1306E
398.718	0.774	366074	WORD_OFF	n/a	n/a	RHINO	8	-1	[0, 0, 0]	n/a	FR1	1	R1306E
399.492	1.626	366848	WORD	n/a	n/a	RING	9	-1	[0, 0, 0]	n/a	FR1	1	R1306E
401.118	1.006	368474	WORD_OFF	n/a	n/a	RING	9	-1	[0, 0, 0]	n/a	FR1	1	R1306E
402.124	1.628	369480	WORD	n/a	n/a	TONGUE	10	-1	[0, 0, 0]	n/a	FR1	1	R1306E
403.752	0.82	371108	WORD_OFF	n/a	n/a	TONGUE	10	-1	[0, 0, 0]	n/a	FR1	1	R1306E
404.572	1.63	371928	WORD	n/a	n/a	WAGON	11	-1	[0, 0, 0]	n/a	FR1	1	R1306E
406.202	1.149	373558	WORD_OFF	n/a	n/a	WAGON	11	-1	[0, 0, 0]	n/a	FR1	1	R1306E
407.351	1.62	374707	WORD	n/a	n/a	WATCH	12	-1	[0, 0, 0]	n/a	FR1	1	R1306E
408.971	0.0	376327	WORD_OFF	n/a	n/a	WATCH	12	-1	[0, 0, 0]	n/a	FR1	1	R1306E
408.971	0.0	376327	ENCODING_END	n/a	n/a	n/a	-999	-1	[0, 0, 0]	n/a	FR1	1	R1306E
408.971	0.001	376327	DISTRACT_START	n/a	n/a	n/a	-999	-1	[0, 0, 0]	n/a	FR1	1	R1306E
408.972	0.015	376328	START	n/a	n/a	n/a	-999	-1	[-999, -999, -999]	n/a	FR1	1	R1306E
408.987	11.651	376343	PROB	11.651	n/a	n/a	-999	-1	[5, 1, 7]	13	FR1	1	R1306E
420.638	12.911	387993	PROB	12.911	n/a	n/a	-999	-1	[1, 6, 9]	16	FR1	1	R1306E
433.549	0.008	400904	STOP	n/a	n/a	n/a	-999	-1	[-999, -999, -999]	n/a	FR1	1	R1306E
433.557	1.242	400912	DISTRACT_END	n/a	n/a	n/a	-999	-1	[0, 0, 0]	n/a	FR1	1	R1306E
434.799	1.025	402154	RETRIEVAL_ORIENT_START	n/a	n/a	n/a	-999	-1	[0, 0, 0]	n/a	FR1	1	R1306E
435.824	0.0	403179	RETRIEVAL_ORIENT_END	n/a	n/a	n/a	-999	-1	[0, 0, 0]	n/a	FR1	1	R1306E
435.824	29.994	403179	REC_START	n/a	n/a	n/a	-999	-1	[0, 0, 0]	n/a	FR1	1	R1306E
465.818	0.517	433172	REC_WORD_VV	0.517	n/a	<>	-999	-1	[0, 0, 0]	n/a	FR1	1	R1306E
466.335	0.0	433689	REC_END	n/a	n/a	n/a	-999	-1	[0, 0, 0]	n/a	FR1	1	R1306E
466.335	27.416	433689	PRACTICE_POST_INSTRUCT_START	n/a	n/a	n/a	-999	-1	[0, 0, 0]	n/a	FR1	1	R1306E
493.751	0.0	461104	PRACTICE_POST_INSTRUCT_END	n/a	n/a	n/a	-999	-1	[0, 0, 0]	n/a	FR1	1	R1306E
493.751	0.0	461104	TRIAL_END	n/a	n/a	n/a	-999	-1	[0, 0, 0]	n/a	FR1	1	R1306E
493.751	0.0	461104	TRIAL_START	n/a	n/a	n/a	-999	1	[0, 0, 0]	n/a	FR1	1	R1306E
493.751	0.0	461104	TRIAL	n/a	n/a	n/a	-999	1	[0, 0, 0]	n/a	FR1	1	R1306E
493.751	9.153	461104	WAITING_START	n/a	n/a	n/a	-999	1	[0, 0, 0]	n/a	FR1	1	R1306E
502.904	0.0	470256	WAITING_END	n/a	n/a	n/a	-999	1	[0, 0, 0]	n/a	FR1	1	R1306E
502.904	0.0	470256	COUNTDOWN_START	n/a	n/a	n/a	-999	1	[0, 0, 0]	n/a	FR1	1	R1306E
502.904	0.0	470256	COUNTDOWN_END	n/a	n/a	n/a	-999	1	[0, 0, 0]	n/a	FR1	1	R1306E
502.904	11.467	470256	ORIENT_START	n/a	n/a	n/a	-999	1	[0, 0, 0]	n/a	FR1	1	R1306E
514.371	0.0	481723	ENCODING_START	n/a	n/a	n/a	-999	1	[0, 0, 0]	n/a	FR1	1	R1306E
514.371	0.802	481723	ORIENT_END	n/a	n/a	n/a	-999	1	[0, 0, 0]	n/a	FR1	1	R1306E
515.173	1.632	482525	WORD	n/a	n/a	FOOT	1	1	[0, 0, 0]	n/a	FR1	1	R1306E
516.805	0.952	484157	WORD_OFF	n/a	n/a	FOOT	1	1	[0, 0, 0]	n/a	FR1	1	R1306E
517.757	1.632	485109	WORD	n/a	n/a	SOAP	2	1	[0, 0, 0]	n/a	FR1	1	R1306E
519.389	1.107	486741	WORD_OFF	n/a	n/a	SOAP	2	1	[0, 0, 0]	n/a	FR1	1	R1306E
520.496	1.627	487848	WORD	n/a	n/a	STORE	3	1	[0, 0, 0]	n/a	FR1	1	R1306E
522.123	0.897	489475	WORD_OFF	n/a	n/a	STORE	3	1	[0, 0, 0]	n/a	FR1	1	R1306E
523.02	1.637	490372	WORD	n/a	n/a	FENCE	4	1	[0, 0, 0]	n/a	FR1	1	R1306E
524.657	1.081	492009	WORD_OFF	n/a	n/a	FENCE	4	1	[0, 0, 0]	n/a	FR1	1	R1306E
525.738	1.636	493090	WORD	n/a	n/a	BOAT	5	1	[0, 0, 0]	n/a	FR1	1	R1306E
527.374	1.129	494725	WORD_OFF	n/a	n/a	BOAT	5	1	[0, 0, 0]	n/a	FR1	1	R1306E
528.503	1.621	495854	WORD	n/a	n/a	VINE	6	1	[0, 0, 0]	n/a	FR1	1	R1306E
530.124	0.771	497475	WORD_OFF	n/a	n/a	VINE	6	1	[0, 0, 0]	n/a	FR1	1	R1306E
530.895	1.629	498246	WORD	n/a	n/a	ROCK	7	1	[0, 0, 0]	n/a	FR1	1	R1306E
532.524	0.961	499875	WORD_OFF	n/a	n/a	ROCK	7	1	[0, 0, 0]	n/a	FR1	1	R1306E
533.485	1.623	500836	WORD	n/a	n/a	CUP	8	1	[0, 0, 0]	n/a	FR1	1	R1306E
535.108	0.86	502459	WORD_OFF	n/a	n/a	CUP	8	1	[0, 0, 0]	n/a	FR1	1	R1306E
535.968	1.624	503319	WORD	n/a	n/a	BLUSH	9	1	[0, 0, 0]	n/a	FR1	1	R1306E
537.592	0.919	504943	WORD_OFF	n/a	n/a	BLUSH	9	1	[0, 0, 0]	n/a	FR1	1	R1306E
538.511	1.631	505862	WORD	n/a	n/a	TRUCK	10	1	[0, 0, 0]	n/a	FR1	1	R1306E
540.142	1.132	507493	WORD_OFF	n/a	n/a	TRUCK	10	1	[0, 0, 0]	n/a	FR1	1	R1306E
541.274	1.637	508625	WORD	n/a	n/a	JUICE	11	1	[0, 0, 0]	n/a	FR1	1	R1306E
542.911	0.809	510262	WORD_OFF	n/a	n/a	JUICE	11	1	[0, 0, 0]	n/a	FR1	1	R1306E
543.72	1.623	511071	WORD	n/a	n/a	DRESS	12	1	[0, 0, 0]	n/a	FR1	1	R1306E
545.343	0.0	512694	WORD_OFF	n/a	n/a	DRESS	12	1	[0, 0, 0]	n/a	FR1	1	R1306E
545.343	0.0	512694	ENCODING_END	n/a	n/a	n/a	-999	1	[0, 0, 0]	n/a	FR1	1	R1306E
545.343	0.001	512694	DISTRACT_START	n/a	n/a	n/a	-999	1	[0, 0, 0]	n/a	FR1	1	R1306E
545.344	0.016	512695	START	n/a	n/a	n/a	-999	1	[-999, -999, -999]	n/a	FR1	1	R1306E
545.36	9.202	512711	PROB	9.202	n/a	n/a	-999	1	[5, 5, 7]	17	FR1	1	R1306E
554.562	9.386	521913	PROB	9.386	n/a	n/a	-999	1	[5, 3, 6]	14	FR1	1	R1306E
563.948	4.81	531298	PROB	4.81	n/a	n/a	-999	1	[1, 4, 3]	8	FR1	1	R1306E
568.758	0.006	536108	STOP	n/a	n/a	n/a	-999	1	[-999, -999, -999]	n/a	FR1	1	R1306E
568.764	1.253	536114	DISTRACT_END	n/a	n/a	n/a	-999	1	[0, 0, 0]	n/a	FR1	1	R1306E
570.017	1.031	537367	RETRIEVAL_ORIENT_START	n/a	n/a	n/a	-999	1	[0, 0, 0]	n/a	FR1	1	R1306E
571.048	0.0	538398	RETRIEVAL_ORIENT_END	n/a	n/a	n/a	-999	1	[0, 0, 0]	n/a	FR1	1	R1306E
571.048	1.446	538398	REC_START	n/a	n/a	n/a	-999	1	[0, 0, 0]	n/a	FR1	1	R1306E
572.494	1.015	539844	REC_WORD_VV	1.015	n/a	<>	-999	1	[0, 0, 0]	n/a	FR1	1	R1306E
573.509	4.734	540859	REC_WORD_VV	4.734	n/a	<>	-999	1	[0, 0, 0]	n/a	FR1	1	R1306E
578.243	0.832	545593	REC_WORD_VV	0.832	n/a	<>	-999	1	[0, 0, 0]	n/a	FR1	1	R1306E
579.075	1.59	546425	REC_WORD_VV	1.59	n/a	<>	-999	1	[0, 0, 0]	n/a	FR1	1	R1306E
580.665	1.074	548015	REC_WORD	1.074	n/a	APPLE	-999	1	[0, 0, 0]	n/a	FR1	1	R1306E
581.739	1.082	549089	REC_WORD	1.082	n/a	CANE	-999	1	[0, 0, 0]	n/a	FR1	1	R1306E
582.821	1.689	550171	REC_WORD	1.689	n/a	FOOT	1	1	[0, 0, 0]	n/a	FR1	1	R1306E
584.51	2.283	551860	REC_WORD	2.283	n/a	BEAR	-999	1	[0, 0, 0]	n/a	FR1	1	R1306E
586.793	14.765	554142	REC_WORD	14.765	n/a	SOUP	-999	1	[0, 0, 0]	n/a	FR1	1	R1306E
601.558	0.0	568907	REC_END	n/a	n/a	n/a	-999	1	[0, 0, 0]	n/a	FR1	1	R1306E
601.558	0.0	568907	TRIAL_END	n/a	n/a	n/a	-999	1	[0, 0, 0]	n/a	FR1	1	R1306E
601.558	0.0	568907	TRIAL_START	n/a	n/a	n/a	-999	2	[0, 0, 0]	n/a	FR1	1	R1306E
601.558	0.0	568907	TRIAL	n/a	n/a	n/a	-999	2	[0, 0, 0]	n/a	FR1	1	R1306E
601.558	3.529	568907	WAITING_START	n/a	n/a	n/a	-999	2	[0, 0, 0]	n/a	FR1	1	R1306E
605.087	0.0	572436	ORIENT_START	n/a	n/a	n/a	-999	2	[0, 0, 0]	n/a	FR1	1	R1306E
605.087	0.0	572436	COUNTDOWN_START	n/a	n/a	n/a	-999	2	[0, 0, 0]	n/a	FR1	1	R1306E
605.087	0.0	572436	WAITING_END	n/a	n/a	n/a	-999	2	[0, 0, 0]	n/a	FR1	1	R1306E
605.087	11.519	572436	COUNTDOWN_END	n/a	n/a	n/a	-999	2	[0, 0, 0]	n/a	FR1	1	R1306E
616.606	0.0	583954	ORIENT_END	n/a	n/a	n/a	-999	2	[0, 0, 0]	n/a	FR1	1	R1306E
616.606	0.901	583954	ENCODING_START	n/a	n/a	n/a	-999	2	[0, 0, 0]	n/a	FR1	1	R1306E
617.507	1.633	584855	WORD	n/a	n/a	SHIP	1	2	[0, 0, 0]	n/a	FR1	1	R1306E
619.14	1.023	586488	WORD_OFF	n/a	n/a	SHIP	1	2	[0, 0, 0]	n/a	FR1	1	R1306E
620.163	1.627	587511	WORD	n/a	n/a	ICE	2	2	[0, 0, 0]	n/a	FR1	1	R1306E
621.79	1.077	589138	WORD_OFF	n/a	n/a	ICE	2	2	[0, 0, 0]	n/a	FR1	1	R1306E
622.867	1.624	590215	WORD	n/a	n/a	EEL	3	2	[0, 0, 0]	n/a	FR1	1	R1306E
624.491	0.859	591839	WORD_OFF	n/a	n/a	EEL	3	2	[0, 0, 0]	n/a	FR1	1	R1306E
625.35	1.609	592698	WORD	n/a	n/a	PEACH	4	2	[0, 0, 0]	n/a	FR1	1	R1306E
626.959	0.779	594307	WORD_OFF	n/a	n/a	PEACH	4	2	[0, 0, 0]	n/a	FR1	1	R1306E
627.738	1.637	595086	WORD	n/a	n/a	SKI	5	2	[0, 0, 0]	n/a	FR1	1	R1306E
629.375	0.906	596723	WORD_OFF	n/a	n/a	SKI	5	2	[0, 0, 0]	n/a	FR1	1	R1306E
630.281	1.628	597629	WORD	n/a	n/a	JEEP	6	2	[0, 0, 0]	n/a	FR1	1	R1306E
631.909	1.077	599257	WORD_OFF	n/a	n/a	JEEP	6	2	[0, 0, 0]	n/a	FR1	1	R1306E
632.986	1.623	600334	WORD	n/a	n/a	FOOD	7	2	[0, 0, 0]	n/a	FR1	1	R1306E
634.609	0.949	601957	WORD_OFF	n/a	n/a	FOOD	7	2	[0, 0, 0]	n/a	FR1	1	R1306E
635.558	1.635	602906	WORD	n/a	n/a	PRINCE	8	2	[0, 0, 0]	n/a	FR1	1	R1306E
637.193	0.896	604541	WORD_OFF	n/a	n/a	PRINCE	8	2	[0, 0, 0]	n/a	FR1	1	R1306E
638.089	1.638	605437	WORD	n/a	n/a	STORM	9	2	[0, 0, 0]	n/a	FR1	1	R1306E
639.727	1.134	607075	WORD_OFF	n/a	n/a	STORM	9	2	[0, 0, 0]	n/a	FR1	1	R1306E
640.861	1.633	608209	WORD	n/a	n/a	TRAY	10	2	[0, 0, 0]	n/a	FR1	1	R1306E
642.494	0.853	609842	WORD_OFF	n/a	n/a	TRAY	10	2	[0, 0, 0]	n/a	FR1	1	R1306E
643.347	1.631	610695	WORD	n/a	n/a	BAG	11	2	[0, 0, 0]	n/a	FR1	1	R1306E
644.978	0.966	612325	WORD_OFF	n/a	n/a	BAG	11	2	[0, 0, 0]	n/a	FR1	1	R1306E
645.944	1.634	613291	WORD	n/a	n/a	TAIL	12	2	[0, 0, 0]	n/a	FR1	1	R1306E
647.578	0.0	614925	DISTRACT_START	n/a	n/a	n/a	-999	2	[0, 0, 0]	n/a	FR1	1	R1306E
647.578	0.0	614925	ENCODING_END	n/a	n/a	n/a	-999	2	[0, 0, 0]	n/a	FR1	1	R1306E
647.578	0.001	614925	WORD_OFF	n/a	n/a	TAIL	12	2	[0, 0, 0]	n/a	FR1	1	R1306E
647.579	0.016	614926	START	n/a	n/a	n/a	-999	2	[-999, -999, -999]	n/a	FR1	1	R1306E
647.595	5.551	614942	PROB	5.551	n/a	n/a	-999	2	[1, 2, 3]	6	FR1	1	R1306E
653.146	6.835	620493	PROB	6.835	n/a	n/a	-999	2	[7, 4, 8]	19	FR1	1	R1306E
659.981	5.733	627328	PROB	5.733	n/a	n/a	-999	2	[9, 2, 2]	13	FR1	1	R1306E
665.714	6.736	633061	PROB	6.736	n/a	n/a	-999	2	[2, 7, 4]	13	FR1	1	R1306E
672.45	0.016	639797	STOP	n/a	n/a	n/a	-999	2	[-999, -999, -999]	n/a	FR1	1	R1306E
672.466	1.121	639813	DISTRACT_END	n/a	n/a	n/a	-999	2	[0, 0, 0]	n/a	FR1	1	R1306E
673.587	1.029	640933	RETRIEVAL_ORIENT_START	n/a	n/a	n/a	-999	2	[0, 0, 0]	n/a	FR1	1	R1306E
674.616	0.0	641962	RETRIEVAL_ORIENT_END	n/a	n/a	n/a	-999	2	[0, 0, 0]	n/a	FR1	1	R1306E
674.616	2.19	641962	REC_START	n/a	n/a	n/a	-999	2	[0, 0, 0]	n/a	FR1	1	R1306E
676.806	1.379	644152	REC_WORD	1.379	n/a	SHIP	1	2	[0, 0, 0]	n/a	FR1	1	R1306E
678.185	1.417	645531	REC_WORD	1.417	n/a	ICE	2	2	[0, 0, 0]	n/a	FR1	1	R1306E
679.602	3.616	646948	REC_WORD	3.616	n/a	FOG	-999	2	[0, 0, 0]	n/a	FR1	1	R1306E
683.218	16.454	650564	REC_WORD	16.454	n/a	BOOT	-999	2	[0, 0, 0]	n/a	FR1	1	R1306E
699.672	5.455	667018	REC_WORD	5.455	n/a	SAIL	-999	2	[0, 0, 0]	n/a	FR1	1	R1306E
705.127	0.0	672472	REC_END	n/a	n/a	n/a	-999	2	[0, 0, 0]	n/a	FR1	1	R1306E
705.127	0.0	672472	TRIAL_END	n/a	n/a	n/a	-999	2	[0, 0, 0]	n/a	FR1	1	R1306E
705.127	0.0	672472	TRIAL_START	n/a	n/a	n/a	-999	3	[0, 0, 0]	n/a	FR1	1	R1306E
705.127	0.0	672472	TRIAL	n/a	n/a	n/a	-999	3	[0, 0, 0]	n/a	FR1	1	R1306E
705.127	2.095	672472	WAITING_START	n/a	n/a	n/a	-999	3	[0, 0, 0]	n/a	FR1	1	R1306E
707.222	0.0	674567	WAITING_END	n/a	n/a	n/a	-999	3	[0, 0, 0]	n/a	FR1	1	R1306E
707.222	0.0	674567	COUNTDOWN_START	n/a	n/a	n/a	-999	3	[0, 0, 0]	n/a	FR1	1	R1306E
707.222	0.0	674567	COUNTDOWN_END	n/a	n/a	n/a	-999	3	[0, 0, 0]	n/a	FR1	1	R1306E
707.222	11.452	674567	ORIENT_START	n/a	n/a	n/a	-999	3	[0, 0, 0]	n/a	FR1	1	R1306E
718.674	0.0	686019	ENCODING_START	n/a	n/a	n/a	-999	3	[0, 0, 0]	n/a	FR1	1	R1306E
718.674	0.802	686019	ORIENT_END	n/a	n/a	n/a	-999	3	[0, 0, 0]	n/a	FR1	1	R1306E
719.476	1.631	686821	WORD	n/a	n/a	GOLD	1	3	[0, 0, 0]	n/a	FR1	1	R1306E
721.107	0.778	688452	WORD_OFF	n/a	n/a	GOLD	1	3	[0, 0, 0]	n/a	FR1	1	R1306E
721.885	1.623	689230	WORD	n/a	n/a	SHEET	2	3	[0, 0, 0]	n/a	FR1	1	R1306E
723.508	1.139	690853	WORD_OFF	n/a	n/a	SHEET	2	3	[0, 0, 0]	n/a	FR1	1	R1306E
724.647	1.628	691992	WORD	n/a	n/a	BRANCH	3	3	[0, 0, 0]	n/a	FR1	1	R1306E
726.275	0.934	693620	WORD_OFF	n/a	n/a	BRANCH	3	3	[0, 0, 0]	n/a	FR1	1	R1306E
727.209	1.633	694554	WORD	n/a	n/a	TOY	4	3	[0, 0, 0]	n/a	FR1	1	R1306E
728.842	0.861	696187	WORD_OFF	n/a	n/a	TOY	4	3	[0, 0, 0]	n/a	FR1	1	R1306E
729.703	1.623	697048	WORD	n/a	n/a	SHEEP	5	3	[0, 0, 0]	n/a	FR1	1	R1306E
731.326	0.755	698670	WORD_OFF	n/a	n/a	SHEEP	5	3	[0, 0, 0]	n/a	FR1	1	R1306E
732.081	1.629	699425	WORD	n/a	n/a	SALT	6	3	[0, 0, 0]	n/a	FR1	1	R1306E
733.71	0.762	701054	WORD_OFF	n/a	n/a	SALT	6	3	[0, 0, 0]	n/a	FR1	1	R1306E
734.472	1.621	701816	WORD	n/a	n/a	PIG	7	3	[0, 0, 0]	n/a	FR1	1	R1306E
736.093	0.761	703437	WORD_OFF	n/a	n/a	PIG	7	3	[0, 0, 0]	n/a	FR1	1	R1306E
736.854	1.623	704198	WORD	n/a	n/a	WOLF	8	3	[0, 0, 0]	n/a	FR1	1	R1306E
738.477	1.15	705821	WORD_OFF	n/a	n/a	WOLF	8	3	[0, 0, 0]	n/a	FR1	1	R1306E
739.627	1.634	706971	WORD	n/a	n/a	GEESE	9	3	[0, 0, 0]	n/a	FR1	1	R1306E
741.261	1.073	708605	WORD_OFF	n/a	n/a	GEESE	9	3	[0, 0, 0]	n/a	FR1	1	R1306E
742.334	1.628	709678	WORD	n/a	n/a	ELF	10	3	[0, 0, 0]	n/a	FR1	1	R1306E
743.962	0.856	711306	WORD_OFF	n/a	n/a	ELF	10	3	[0, 0, 0]	n/a	FR1	1	R1306E
744.818	1.627	712162	WORD	n/a	n/a	SEAT	11	3	[0, 0, 0]	n/a	FR1	1	R1306E
746.445	1.052	713789	WORD_OFF	n/a	n/a	SEAT	11	3	[0, 0, 0]	n/a	FR1	1	R1306E
747.497	1.632	714841	WORD	n/a	n/a	NAIL	12	3	[0, 0, 0]	n/a	FR1	1	R1306E
749.129	0.0	716473	WORD_OFF	n/a	n/a	NAIL	12	3	[0, 0, 0]	n/a	FR1	1	R1306E
749.129	0.0	716473	ENCODING_END	n/a	n/a	n/a	-999	3	[0, 0, 0]	n/a	FR1	1	R1306E
749.129	0.001	716473	DISTRACT_START	n/a	n/a	n/a	-999	3	[0, 0, 0]	n/a	FR1	1	R1306E
749.13	0.016	716474	START	n/a	n/a	n/a	-999	3	[-999, -999, -999]	n/a	FR1	1	R1306E
749.146	5.752	716490	PROB	5.752	n/a	n/a	-999	3	[8, 6, 8]	22	FR1	1	R1306E
754.898	8.167	722242	PROB	8.167	n/a	n/a	-999	3	[3, 3, 9]	15	FR1	1	R1306E
763.065	4.951	730408	PROB	4.951	n/a	n/a	-999	3	[3, 9, 7]	19	FR1	1	R1306E
768.016	4.431	735359	PROB	4.431	n/a	n/a	-999	3	[3, 3, 6]	12	FR1	1	R1306E
772.447	0.019	739790	STOP	n/a	n/a	n/a	-999	3	[-999, -999, -999]	n/a	FR1	1	R1306E
772.466	1.257	739809	DISTRACT_END	n/a	n/a	n/a	-999	3	[0, 0, 0]	n/a	FR1	1	R1306E
773.723	1.027	741066	RETRIEVAL_ORIENT_START	n/a	n/a	n/a	-999	3	[0, 0, 0]	n/a	FR1	1	R1306E
774.75	0.0	742093	REC_START	n/a	n/a	n/a	-999	3	[0, 0, 0]	n/a	FR1	1	R1306E
774.75	0.687	742093	RETRIEVAL_ORIENT_END	n/a	n/a	n/a	-999	3	[0, 0, 0]	n/a	FR1	1	R1306E
775.437	1.528	742780	REC_WORD	1.528	n/a	BALL	-999	3	[0, 0, 0]	n/a	FR1	1	R1306E
776.965	1.236	744308	REC_WORD	1.236	n/a	GOLD	1	3	[0, 0, 0]	n/a	FR1	1	R1306E
778.201	4.886	745544	REC_WORD	4.886	n/a	SHIP	-999	3	[0, 0, 0]	n/a	FR1	1	R1306E
783.087	13.506	750430	REC_WORD	13.506	n/a	LINE	-999	3	[0, 0, 0]	n/a	FR1	1	R1306E
796.593	1.0	763935	REC_WORD_VV	1.0	n/a	<>	-999	3	[0, 0, 0]	n/a	FR1	1	R1306E
797.593	7.67	764935	REC_WORD_VV	7.67	n/a	<>	-999	3	[0, 0, 0]	n/a	FR1	1	R1306E
805.263	0.0	772605	REC_END	n/a	n/a	n/a	-999	3	[0, 0, 0]	n/a	FR1	1	R1306E
805.263	0.0	772605	TRIAL_END	n/a	n/a	n/a	-999	3	[0, 0, 0]	n/a	FR1	1	R1306E
805.263	0.0	772605	TRIAL_START	n/a	n/a	n/a	-999	4	[0, 0, 0]	n/a	FR1	1	R1306E
805.263	0.0	772605	TRIAL	n/a	n/a	n/a	-999	4	[0, 0, 0]	n/a	FR1	1	R1306E
805.263	4.628	772605	WAITING_START	n/a	n/a	n/a	-999	4	[0, 0, 0]	n/a	FR1	1	R1306E
809.891	0.0	777233	ORIENT_START	n/a	n/a	n/a	-999	4	[0, 0, 0]	n/a	FR1	1	R1306E
809.891	0.0	777233	COUNTDOWN_START	n/a	n/a	n/a	-999	4	[0, 0, 0]	n/a	FR1	1	R1306E
809.891	0.0	777233	WAITING_END	n/a	n/a	n/a	-999	4	[0, 0, 0]	n/a	FR1	1	R1306E
809.891	11.584	777233	COUNTDOWN_END	n/a	n/a	n/a	-999	4	[0, 0, 0]	n/a	FR1	1	R1306E
821.475	0.0	788816	ENCODING_START	n/a	n/a	n/a	-999	4	[0, 0, 0]	n/a	FR1	1	R1306E
821.475	0.958	788816	ORIENT_END	n/a	n/a	n/a	-999	4	[0, 0, 0]	n/a	FR1	1	R1306E
822.433	1.626	789774	WORD	n/a	n/a	HORSE	1	4	[0, 0, 0]	n/a	FR1	1	R1306E
824.059	0.909	791400	WORD_OFF	n/a	n/a	HORSE	1	4	[0, 0, 0]	n/a	FR1	1	R1306E
824.968	1.625	792309	WORD	n/a	n/a	POLE	2	4	[0, 0, 0]	n/a	FR1	1	R1306E
826.593	0.773	793934	WORD_OFF	n/a	n/a	POLE	2	4	[0, 0, 0]	n/a	FR1	1	R1306E
827.366	1.611	794707	WORD	n/a	n/a	WORLD	3	4	[0, 0, 0]	n/a	FR1	1	R1306E
828.977	0.851	796318	WORD_OFF	n/a	n/a	WORLD	3	4	[0, 0, 0]	n/a	FR1	1	R1306E
829.828	1.632	797169	WORD	n/a	n/a	CLOCK	4	4	[0, 0, 0]	n/a	FR1	1	R1306E
831.46	1.131	798801	WORD_OFF	n/a	n/a	CLOCK	4	4	[0, 0, 0]	n/a	FR1	1	R1306E
832.591	1.636	799932	WORD	n/a	n/a	STEM	5	4	[0, 0, 0]	n/a	FR1	1	R1306E
834.227	0.756	801568	WORD_OFF	n/a	n/a	STEM	5	4	[0, 0, 0]	n/a	FR1	1	R1306E
834.983	1.628	802324	WORD	n/a	n/a	BRUSH	6	4	[0, 0, 0]	n/a	FR1	1	R1306E
836.611	0.823	803952	WORD_OFF	n/a	n/a	BRUSH	6	4	[0, 0, 0]	n/a	FR1	1	R1306E
837.434	1.627	804775	WORD	n/a	n/a	NEST	7	4	[0, 0, 0]	n/a	FR1	1	R1306E
839.061	0.81	806402	WORD_OFF	n/a	n/a	NEST	7	4	[0, 0, 0]	n/a	FR1	1	R1306E
839.871	1.624	807212	WORD	n/a	n/a	SUN	8	4	[0, 0, 0]	n/a	FR1	1	R1306E
841.495	0.888	808836	WORD_OFF	n/a	n/a	SUN	8	4	[0, 0, 0]	n/a	FR1	1	R1306E
842.383	1.629	809724	WORD	n/a	n/a	MAIL	9	4	[0, 0, 0]	n/a	FR1	1	R1306E
844.012	0.849	811353	WORD_OFF	n/a	n/a	MAIL	9	4	[0, 0, 0]	n/a	FR1	1	R1306E
844.861	1.635	812202	WORD	n/a	n/a	FUR	10	4	[0, 0, 0]	n/a	FR1	1	R1306E
846.496	1.069	813837	WORD_OFF	n/a	n/a	FUR	10	4	[0, 0, 0]	n/a	FR1	1	R1306E
847.565	1.631	814905	WORD	n/a	n/a	DITCH	11	4	[0, 0, 0]	n/a	FR1	1	R1306E
849.196	0.828	816536	WORD_OFF	n/a	n/a	DITCH	11	4	[0, 0, 0]	n/a	FR1	1	R1306E
850.024	1.623	817364	WORD	n/a	n/a	DOG	12	4	[0, 0, 0]	n/a	FR1	1	R1306E
851.647	0.0	818987	WORD_OFF	n/a	n/a	DOG	12	4	[0, 0, 0]	n/a	FR1	1	R1306E
851.647	0.0	818987	ENCODING_END	n/a	n/a	n/a	-999	4	[0, 0, 0]	n/a	FR1	1	R1306E
851.647	0.001	818987	DISTRACT_START	n/a	n/a	n/a	-999	4	[0, 0, 0]	n/a	FR1	1	R1306E
851.648	0.016	818988	START	n/a	n/a	n/a	-999	4	[-999, -999, -999]	n/a	FR1	1	R1306E
851.664	5.551	819004	PROB	5.551	n/a	n/a	-999	4	[3, 7, 4]	14	FR1	1	R1306E
857.215	4.751	824555	PROB	4.751	n/a	n/a	-999	4	[8, 2, 2]	12	FR1	1	R1306E
861.966	6.2	829306	PROB	6.2	n/a	n/a	-999	4	[1, 8, 2]	11	FR1	1	R1306E
868.166	5.181	835506	PROB	5.181	n/a	n/a	-999	4	[3, 1, 8]	12	FR1	1	R1306E
873.347	0.02	840687	STOP	n/a	n/a	n/a	-999	4	[-999, -999, -999]	n/a	FR1	1	R1306E
873.367	1.135	840707	DISTRACT_END	n/a	n/a	n/a	-999	4	[0, 0, 0]	n/a	FR1	1	R1306E
874.502	1.032	841842	RETRIEVAL_ORIENT_START	n/a	n/a	n/a	-999	4	[0, 0, 0]	n/a	FR1	1	R1306E
875.534	0.0	842874	RETRIEVAL_ORIENT_END	n/a	n/a	n/a	-999	4	[0, 0, 0]	n/a	FR1	1	R1306E
875.534	11.54	842874	REC_START	n/a	n/a	n/a	-999	4	[0, 0, 0]	n/a	FR1	1	R1306E
887.074	1.0	854413	REC_WORD_VV	1.0	n/a	<>	-999	4	[0, 0, 0]	n/a	FR1	1	R1306E
888.074	17.97	855413	REC_WORD_VV	17.97	n/a	<>	-999	4	[0, 0, 0]	n/a	FR1	1	R1306E
906.044	0.0	873382	REC_END	n/a	n/a	n/a	-999	4	[0, 0, 0]	n/a	FR1	1	R1306E
906.044	0.0	873382	TRIAL_END	n/a	n/a	n/a	-999	4	[0, 0, 0]	n/a	FR1	1	R1306E
906.044	0.0	873382	TRIAL_START	n/a	n/a	n/a	-999	5	[0, 0, 0]	n/a	FR1	1	R1306E
906.044	0.0	873382	TRIAL	n/a	n/a	n/a	-999	5	[0, 0, 0]	n/a	FR1	1	R1306E
906.044	22.583	873382	WAITING_START	n/a	n/a	n/a	-999	5	[0, 0, 0]	n/a	FR1	1	R1306E
928.627	0.0	895965	WAITING_END	n/a	n/a	n/a	-999	5	[0, 0, 0]	n/a	FR1	1	R1306E
928.627	0.0	895965	COUNTDOWN_START	n/a	n/a	n/a	-999	5	[0, 0, 0]	n/a	FR1	1	R1306E
928.627	0.0	895965	COUNTDOWN_END	n/a	n/a	n/a	-999	5	[0, 0, 0]	n/a	FR1	1	R1306E
928.627	11.552	895965	ORIENT_START	n/a	n/a	n/a	-999	5	[0, 0, 0]	n/a	FR1	1	R1306E
940.179	0.0	907516	ENCODING_START	n/a	n/a	n/a	-999	5	[0, 0, 0]	n/a	FR1	1	R1306E
940.179	0.806	907516	ORIENT_END	n/a	n/a	n/a	-999	5	[0, 0, 0]	n/a	FR1	1	R1306E
940.985	1.628	908322	WORD	n/a	n/a	RUG	1	5	[0, 0, 0]	n/a	FR1	1	R1306E
942.613	0.846	909950	WORD_OFF	n/a	n/a	RUG	1	5	[0, 0, 0]	n/a	FR1	1	R1306E
943.459	1.638	910796	WORD	n/a	n/a	MULE	2	5	[0, 0, 0]	n/a	FR1	1	R1306E
945.097	0.944	912434	WORD_OFF	n/a	n/a	MULE	2	5	[0, 0, 0]	n/a	FR1	1	R1306E
946.041	1.623	913378	WORD	n/a	n/a	TEETH	3	5	[0, 0, 0]	n/a	FR1	1	R1306E
947.664	0.875	915001	WORD_OFF	n/a	n/a	TEETH	3	5	[0, 0, 0]	n/a	FR1	1	R1306E
948.539	1.625	915876	WORD	n/a	n/a	FARM	4	5	[0, 0, 0]	n/a	FR1	1	R1306E
950.164	1.077	917501	WORD_OFF	n/a	n/a	FARM	4	5	[0, 0, 0]	n/a	FR1	1	R1306E
951.241	1.624	918578	WORD	n/a	n/a	RIB	5	5	[0, 0, 0]	n/a	FR1	1	R1306E
952.865	0.958	920202	WORD_OFF	n/a	n/a	RIB	5	5	[0, 0, 0]	n/a	FR1	1	R1306E
953.823	1.625	921160	WORD	n/a	n/a	PHONE	6	5	[0, 0, 0]	n/a	FR1	1	R1306E
955.448	0.812	922785	WORD_OFF	n/a	n/a	PHONE	6	5	[0, 0, 0]	n/a	FR1	1	R1306E
956.26	1.623	923597	WORD	n/a	n/a	CLIFF	7	5	[0, 0, 0]	n/a	FR1	1	R1306E
957.883	1.011	925220	WORD_OFF	n/a	n/a	CLIFF	7	5	[0, 0, 0]	n/a	FR1	1	R1306E
958.894	1.622	926231	WORD	n/a	n/a	WING	8	5	[0, 0, 0]	n/a	FR1	1	R1306E
960.516	1.122	927853	WORD_OFF	n/a	n/a	WING	8	5	[0, 0, 0]	n/a	FR1	1	R1306E
961.638	1.628	928975	WORD	n/a	n/a	SOUP	9	5	[0, 0, 0]	n/a	FR1	1	R1306E
963.266	1.059	930603	WORD_OFF	n/a	n/a	SOUP	9	5	[0, 0, 0]	n/a	FR1	1	R1306E
964.325	1.626	931661	WORD	n/a	n/a	THREAD	10	5	[0, 0, 0]	n/a	FR1	1	R1306E
965.951	0.811	933287	WORD_OFF	n/a	n/a	THREAD	10	5	[0, 0, 0]	n/a	FR1	1	R1306E
966.762	1.622	934098	WORD	n/a	n/a	BOOT	11	5	[0, 0, 0]	n/a	FR1	1	R1306E
968.384	1.117	935720	WORD_OFF	n/a	n/a	BOOT	11	5	[0, 0, 0]	n/a	FR1	1	R1306E
969.501	1.633	936837	WORD	n/a	n/a	ROOT	12	5	[0, 0, 0]	n/a	FR1	1	R1306E
971.134	0.0	938470	WORD_OFF	n/a	n/a	ROOT	12	5	[0, 0, 0]	n/a	FR1	1	R1306E
971.134	0.0	938470	ENCODING_END	n/a	n/a	n/a	-999	5	[0, 0, 0]	n/a	FR1	1	R1306E
971.134	0.001	938470	DISTRACT_START	n/a	n/a	n/a	-999	5	[0, 0, 0]	n/a	FR1	1	R1306E
971.135	0.016	938471	START	n/a	n/a	n/a	-999	5	[-999, -999, -999]	n/a	FR1	1	R1306E
971.151	5.234	938487	PROB	5.234	n/a	n/a	-999	5	[7, 2, 7]	16	FR1	1	R1306E
976.385	5.918	943721	PROB	5.918	n/a	n/a	-999	5	[1, 9, 4]	14	FR1	1	R1306E
982.303	6.669	949639	PROB	6.669	n/a	n/a	-999	5	[8, 6, 5]	19	FR1	1	R1306E
988.972	22.396	956308	PROB	22.396	n/a	n/a	-999	5	[7, 9, 6]	23	FR1	1	R1306E
1011.368	0.007	978703	STOP	n/a	n/a	n/a	-999	5	[-999, -999, -999]	n/a	FR1	1	R1306E
1011.375	1.306	978710	DISTRACT_END	n/a	n/a	n/a	-999	5	[0, 0, 0]	n/a	FR1	1	R1306E
1012.681	1.028	980016	RETRIEVAL_ORIENT_START	n/a	n/a	n/a	-999	5	[0, 0, 0]	n/a	FR1	1	R1306E
1013.709	0.0	981044	RETRIEVAL_ORIENT_END	n/a	n/a	n/a	-999	5	[0, 0, 0]	n/a	FR1	1	R1306E
1013.709	2.24	981044	REC_START	n/a	n/a	n/a	-999	5	[0, 0, 0]	n/a	FR1	1	R1306E
1015.949	2.414	983284	REC_WORD	2.414	n/a	DOG	-999	5	[0, 0, 0]	n/a	FR1	1	R1306E
1018.363	1.6	985698	REC_WORD	1.6	n/a	ROOT	12	5	[0, 0, 0]	n/a	FR1	1	R1306E
1019.963	14.108	987298	REC_WORD	14.108	n/a	BOOT	11	5	[0, 0, 0]	n/a	FR1	1	R1306E
1034.071	10.148	1001405	REC_WORD	10.148	n/a	SOUP	9	5	[0, 0, 0]	n/a	FR1	1	R1306E
1044.219	0.0	1011553	TRIAL_END	n/a	n/a	n/a	-999	5	[0, 0, 0]	n/a	FR1	1	R1306E
1044.219	0.0	1011553	TRIAL_START	n/a	n/a	n/a	-999	6	[0, 0, 0]	n/a	FR1	1	R1306E
1044.219	0.0	1011553	TRIAL	n/a	n/a	n/a	-999	6	[0, 0, 0]	n/a	FR1	1	R1306E
1044.219	0.0	1011553	WAITING_START	n/a	n/a	n/a	-999	6	[0, 0, 0]	n/a	FR1	1	R1306E
1044.219	2.645	1011553	REC_END	n/a	n/a	n/a	-999	5	[0, 0, 0]	n/a	FR1	1	R1306E
1046.864	0.0	1014198	WAITING_END	n/a	n/a	n/a	-999	6	[0, 0, 0]	n/a	FR1	1	R1306E
1046.864	0.0	1014198	COUNTDOWN_START	n/a	n/a	n/a	-999	6	[0, 0, 0]	n/a	FR1	1	R1306E
1046.864	0.0	1014198	COUNTDOWN_END	n/a	n/a	n/a	-999	6	[0, 0, 0]	n/a	FR1	1	R1306E
1046.864	11.486	1014198	ORIENT_START	n/a	n/a	n/a	-999	6	[0, 0, 0]	n/a	FR1	1	R1306E
1058.35	0.0	1025683	ORIENT_END	n/a	n/a	n/a	-999	6	[0, 0, 0]	n/a	FR1	1	R1306E
1058.35	1.139	1025683	ENCODING_START	n/a	n/a	n/a	-999	6	[0, 0, 0]	n/a	FR1	1	R1306E
1059.489	1.628	1026822	WORD	n/a	n/a	HOLE	1	6	[0, 0, 0]	n/a	FR1	1	R1306E
1061.117	0.937	1028450	WORD_OFF	n/a	n/a	HOLE	1	6	[0, 0, 0]	n/a	FR1	1	R1306E
1062.054	1.63	1029387	WORD	n/a	n/a	STEAM	2	6	[0, 0, 0]	n/a	FR1	1	R1306E
1063.684	1.116	1031017	WORD_OFF	n/a	n/a	STEAM	2	6	[0, 0, 0]	n/a	FR1	1	R1306E
1064.8	1.634	1032133	WORD	n/a	n/a	CALF	3	6	[0, 0, 0]	n/a	FR1	1	R1306E
1066.434	0.816	1033767	WORD_OFF	n/a	n/a	CALF	3	6	[0, 0, 0]	n/a	FR1	1	R1306E
1067.25	1.636	1034583	WORD	n/a	n/a	WALL	4	6	[0, 0, 0]	n/a	FR1	1	R1306E
1068.886	0.991	1036219	WORD_OFF	n/a	n/a	WALL	4	6	[0, 0, 0]	n/a	FR1	1	R1306E
1069.877	1.625	1037210	WORD	n/a	n/a	STEAK	5	6	[0, 0, 0]	n/a	FR1	1	R1306E
1071.502	0.778	1038835	WORD_OFF	n/a	n/a	STEAK	5	6	[0, 0, 0]	n/a	FR1	1	R1306E
1072.28	1.623	1039613	WORD	n/a	n/a	HAT	6	6	[0, 0, 0]	n/a	FR1	1	R1306E
1073.903	0.884	1041236	WORD_OFF	n/a	n/a	HAT	6	6	[0, 0, 0]	n/a	FR1	1	R1306E
1074.787	1.632	1042120	WORD	n/a	n/a	SNAIL	7	6	[0, 0, 0]	n/a	FR1	1	R1306E
1076.419	1.033	1043752	WORD_OFF	n/a	n/a	SNAIL	7	6	[0, 0, 0]	n/a	FR1	1	R1306E
1077.452	1.635	1044785	WORD	n/a	n/a	APE	8	6	[0, 0, 0]	n/a	FR1	1	R1306E
1079.087	1.115	1046420	WORD_OFF	n/a	n/a	APE	8	6	[0, 0, 0]	n/a	FR1	1	R1306E
1080.202	1.635	1047535	WORD	n/a	n/a	GRASS	9	6	[0, 0, 0]	n/a	FR1	1	R1306E
1081.837	0.973	1049169	WORD_OFF	n/a	n/a	GRASS	9	6	[0, 0, 0]	n/a	FR1	1	R1306E
1082.81	1.628	1050142	WORD	n/a	n/a	NOSE	10	6	[0, 0, 0]	n/a	FR1	1	R1306E
1084.438	0.871	1051770	WORD_OFF	n/a	n/a	NOSE	10	6	[0, 0, 0]	n/a	FR1	1	R1306E
1085.309	1.613	1052641	WORD	n/a	n/a	COUCH	11	6	[0, 0, 0]	n/a	FR1	1	R1306E
1086.922	0.883	1054254	WORD_OFF	n/a	n/a	COUCH	11	6	[0, 0, 0]	n/a	FR1	1	R1306E
1087.805	1.633	1055137	WORD	n/a	n/a	CLOTH	12	6	[0, 0, 0]	n/a	FR1	1	R1306E
1089.438	0.0	1056770	WORD_OFF	n/a	n/a	CLOTH	12	6	[0, 0, 0]	n/a	FR1	1	R1306E
1089.438	0.0	1056770	ENCODING_END	n/a	n/a	n/a	-999	6	[0, 0, 0]	n/a	FR1	1	R1306E
1089.438	0.001	1056770	DISTRACT_START	n/a	n/a	n/a	-999	6	[0, 0, 0]	n/a	FR1	1	R1306E
1089.439	0.016	1056771	START	n/a	n/a	n/a	-999	6	[-999, -999, -999]	n/a	FR1	1	R1306E
1089.455	6.452	1056787	PROB	6.452	n/a	n/a	-999	6	[3, 2, 8]	13	FR1	1	R1306E
1095.907	4.3	1063239	PROB	4.3	n/a	n/a	-999	6	[3, 3, 5]	11	FR1	1	R1306E
1100.207	7.435	1067539	PROB	7.435	n/a	n/a	-999	6	[1, 9, 9]	19	FR1	1	R1306E
1107.642	4.584	1074974	PROB	4.584	n/a	n/a	-999	6	[1, 5, 4]	10	FR1	1	R1306E
1112.226	0.016	1079557	STOP	n/a	n/a	n/a	-999	6	[-999, -999, -999]	n/a	FR1	1	R1306E
1112.242	1.191	1079573	DISTRACT_END	n/a	n/a	n/a	-999	6	[0, 0, 0]	n/a	FR1	1	R1306E
1113.433	1.026	1080764	RETRIEVAL_ORIENT_START	n/a	n/a	n/a	-999	6	[0, 0, 0]	n/a	FR1	1	R1306E
1114.459	0.0	1081790	RETRIEVAL_ORIENT_END	n/a	n/a	n/a	-999	6	[0, 0, 0]	n/a	FR1	1	R1306E
1114.459	2.174	1081790	REC_START	n/a	n/a	n/a	-999	6	[0, 0, 0]	n/a	FR1	1	R1306E
1116.633	1.495	1083964	REC_WORD	1.495	n/a	SOUP	-999	6	[0, 0, 0]	n/a	FR1	1	R1306E
1118.128	5.482	1085459	REC_WORD	5.482	n/a	TEETH	-999	6	[0, 0, 0]	n/a	FR1	1	R1306E
1123.61	11.383	1090941	REC_WORD	11.383	n/a	NOSE	10	6	[0, 0, 0]	n/a	FR1	1	R1306E
1134.993	9.976	1102324	REC_WORD	9.976	n/a	ROSE	-999	6	[0, 0, 0]	n/a	FR1	1	R1306E
1144.969	0.0	1112299	TRIAL_END	n/a	n/a	n/a	-999	6	[0, 0, 0]	n/a	FR1	1	R1306E
1144.969	0.0	1112299	WAITING_START	n/a	n/a	n/a	-999	7	[0, 0, 0]	n/a	FR1	1	R1306E
1144.969	0.0	1112299	REC_END	n/a	n/a	n/a	-999	6	[0, 0, 0]	n/a	FR1	1	R1306E
1144.969	0.0	1112299	TRIAL_START	n/a	n/a	n/a	-999	7	[0, 0, 0]	n/a	FR1	1	R1306E
1144.969	2.446	1112299	TRIAL	n/a	n/a	n/a	-999	7	[0, 0, 0]	n/a	FR1	1	R1306E
1147.415	0.0	1114745	COUNTDOWN_START	n/a	n/a	n/a	-999	7	[0, 0, 0]	n/a	FR1	1	R1306E
1147.415	0.0	1114745	COUNTDOWN_END	n/a	n/a	n/a	-999	7	[0, 0, 0]	n/a	FR1	1	R1306E
1147.415	0.0	1114745	ORIENT_START	n/a	n/a	n/a	-999	7	[0, 0, 0]	n/a	FR1	1	R1306E
1147.415	11.602	1114745	WAITING_END	n/a	n/a	n/a	-999	7	[0, 0, 0]	n/a	FR1	1	R1306E
1159.017	0.0	1126347	ORIENT_END	n/a	n/a	n/a	-999	7	[0, 0, 0]	n/a	FR1	1	R1306E
1159.017	0.849	1126347	ENCODING_START	n/a	n/a	n/a	-999	7	[0, 0, 0]	n/a	FR1	1	R1306E
1159.866	1.635	1127196	WORD	n/a	n/a	SHARK	1	7	[0, 0, 0]	n/a	FR1	1	R1306E
1161.501	1.113	1128831	WORD_OFF	n/a	n/a	SHARK	1	7	[0, 0, 0]	n/a	FR1	1	R1306E
1162.614	1.621	1129944	WORD	n/a	n/a	MUG	2	7	[0, 0, 0]	n/a	FR1	1	R1306E
1164.235	0.993	1131565	WORD_OFF	n/a	n/a	MUG	2	7	[0, 0, 0]	n/a	FR1	1	R1306E
1165.228	1.624	1132558	WORD	n/a	n/a	DOOR	3	7	[0, 0, 0]	n/a	FR1	1	R1306E
1166.852	1.009	1134182	WORD_OFF	n/a	n/a	DOOR	3	7	[0, 0, 0]	n/a	FR1	1	R1306E
1167.861	1.625	1135190	WORD	n/a	n/a	BOX	4	7	[0, 0, 0]	n/a	FR1	1	R1306E
1169.486	1.076	1136815	WORD_OFF	n/a	n/a	BOX	4	7	[0, 0, 0]	n/a	FR1	1	R1306E
1170.562	1.624	1137891	WORD	n/a	n/a	STOVE	5	7	[0, 0, 0]	n/a	FR1	1	R1306E
1172.186	0.889	1139515	WORD_OFF	n/a	n/a	STOVE	5	7	[0, 0, 0]	n/a	FR1	1	R1306E
1173.075	1.628	1140404	WORD	n/a	n/a	SMOKE	6	7	[0, 0, 0]	n/a	FR1	1	R1306E
1174.703	0.899	1142032	WORD_OFF	n/a	n/a	SMOKE	6	7	[0, 0, 0]	n/a	FR1	1	R1306E
1175.602	1.635	1142931	WORD	n/a	n/a	HEART	7	7	[0, 0, 0]	n/a	FR1	1	R1306E
1177.237	0.757	1144566	WORD_OFF	n/a	n/a	HEART	7	7	[0, 0, 0]	n/a	FR1	1	R1306E
1177.994	1.627	1145323	WORD	n/a	n/a	EGG	8	7	[0, 0, 0]	n/a	FR1	1	R1306E
1179.621	0.873	1146950	WORD_OFF	n/a	n/a	EGG	8	7	[0, 0, 0]	n/a	FR1	1	R1306E
1180.494	1.627	1147823	WORD	n/a	n/a	CHIEF	9	7	[0, 0, 0]	n/a	FR1	1	R1306E
1182.121	0.854	1149450	WORD_OFF	n/a	n/a	CHIEF	9	7	[0, 0, 0]	n/a	FR1	1	R1306E
1182.975	1.63	1150304	WORD	n/a	n/a	JAR	10	7	[0, 0, 0]	n/a	FR1	1	R1306E
1184.605	1.111	1151934	WORD_OFF	n/a	n/a	JAR	10	7	[0, 0, 0]	n/a	FR1	1	R1306E
1185.716	1.623	1153045	WORD	n/a	n/a	BALL	11	7	[0, 0, 0]	n/a	FR1	1	R1306E
1187.339	0.877	1154668	WORD_OFF	n/a	n/a	BALL	11	7	[0, 0, 0]	n/a	FR1	1	R1306E
1188.216	1.623	1155545	WORD	n/a	n/a	WORM	12	7	[0, 0, 0]	n/a	FR1	1	R1306E
1189.839	0.0	1157168	WORD_OFF	n/a	n/a	WORM	12	7	[0, 0, 0]	n/a	FR1	1	R1306E
1189.839	0.0	1157168	ENCODING_END	n/a	n/a	n/a	-999	7	[0, 0, 0]	n/a	FR1	1	R1306E
1189.839	0.001	1157168	DISTRACT_START	n/a	n/a	n/a	-999	7	[0, 0, 0]	n/a	FR1	1	R1306E
1189.84	0.016	1157169	START	n/a	n/a	n/a	-999	7	[-999, -999, -999]	n/a	FR1	1	R1306E
1189.856	5.501	1157185	PROB	5.501	n/a	n/a	-999	7	[9, 4, 9]	22	FR1	1	R1306E
1195.357	4.451	1162686	PROB	4.451	n/a	n/a	-999	7	[3, 1, 5]	9	FR1	1	R1306E
1199.808	3.55	1167136	PROB	3.55	n/a	n/a	-999	7	[1, 5, 3]	9	FR1	1	R1306E
1203.358	4.018	1170686	PROB	4.018	n/a	n/a	-999	7	[6, 3, 2]	10	FR1	1	R1306E
1207.376	5.779	1174704	PROB	5.779	n/a	n/a	-999	7	[1, 8, 5]	14	FR1	1	R1306E
1213.155	0.021	1180483	STOP	n/a	n/a	n/a	-999	7	[-999, -999, -999]	n/a	FR1	1	R1306E
1213.176	1.258	1180504	DISTRACT_END	n/a	n/a	n/a	-999	7	[0, 0, 0]	n/a	FR1	1	R1306E
1214.434	1.026	1181762	RETRIEVAL_ORIENT_START	n/a	n/a	n/a	-999	7	[0, 0, 0]	n/a	FR1	1	R1306E
1215.46	0.0	1182788	RETRIEVAL_ORIENT_END	n/a	n/a	n/a	-999	7	[0, 0, 0]	n/a	FR1	1	R1306E
1215.46	2.131	1182788	REC_START	n/a	n/a	n/a	-999	7	[0, 0, 0]	n/a	FR1	1	R1306E
1217.591	1.382	1184919	REC_WORD	1.382	n/a	GOLD	-999	7	[0, 0, 0]	n/a	FR1	1	R1306E
1218.973	6.463	1186301	REC_WORD	6.463	n/a	CUP	-999	7	[0, 0, 0]	n/a	FR1	1	R1306E
1225.436	20.534	1192764	REC_WORD_VV	20.534	n/a	<>	-999	7	[0, 0, 0]	n/a	FR1	1	R1306E
1245.97	0.0	1213297	WAITING_START	n/a	n/a	n/a	-999	8	[0, 0, 0]	n/a	FR1	1	R1306E
1245.97	0.0	1213297	TRIAL	n/a	n/a	n/a	-999	8	[0, 0, 0]	n/a	FR1	1	R1306E
1245.97	0.0	1213297	TRIAL_END	n/a	n/a	n/a	-999	7	[0, 0, 0]	n/a	FR1	1	R1306E
1245.97	0.0	1213297	REC_END	n/a	n/a	n/a	-999	7	[0, 0, 0]	n/a	FR1	1	R1306E
1245.97	2.38	1213297	TRIAL_START	n/a	n/a	n/a	-999	8	[0, 0, 0]	n/a	FR1	1	R1306E
1248.35	0.0	1215677	WAITING_END	n/a	n/a	n/a	-999	8	[0, 0, 0]	n/a	FR1	1	R1306E
1248.35	0.0	1215677	COUNTDOWN_START	n/a	n/a	n/a	-999	8	[0, 0, 0]	n/a	FR1	1	R1306E
1248.35	0.0	1215677	COUNTDOWN_END	n/a	n/a	n/a	-999	8	[0, 0, 0]	n/a	FR1	1	R1306E
1248.35	11.668	1215677	ORIENT_START	n/a	n/a	n/a	-999	8	[0, 0, 0]	n/a	FR1	1	R1306E
1260.018	0.0	1227344	ORIENT_END	n/a	n/a	n/a	-999	8	[0, 0, 0]	n/a	FR1	1	R1306E
1260.018	0.776	1227344	ENCODING_START	n/a	n/a	n/a	-999	8	[0, 0, 0]	n/a	FR1	1	R1306E
1260.794	1.625	1228120	WORD	n/a	n/a	POOL	1	8	[0, 0, 0]	n/a	FR1	1	R1306E
1262.419	1.111	1229745	WORD_OFF	n/a	n/a	POOL	1	8	[0, 0, 0]	n/a	FR1	1	R1306E
1263.53	1.622	1230856	WORD	n/a	n/a	TREE	2	8	[0, 0, 0]	n/a	FR1	1	R1306E
1265.152	1.005	1232478	WORD_OFF	n/a	n/a	TREE	2	8	[0, 0, 0]	n/a	FR1	1	R1306E
1266.157	1.629	1233483	WORD	n/a	n/a	MOTH	3	8	[0, 0, 0]	n/a	FR1	1	R1306E
1267.786	1.025	1235112	WORD_OFF	n/a	n/a	MOTH	3	8	[0, 0, 0]	n/a	FR1	1	R1306E
1268.811	1.626	1236137	WORD	n/a	n/a	DART	4	8	[0, 0, 0]	n/a	FR1	1	R1306E
1270.437	0.862	1237763	WORD_OFF	n/a	n/a	DART	4	8	[0, 0, 0]	n/a	FR1	1	R1306E
1271.299	1.622	1238625	WORD	n/a	n/a	CROWN	5	8	[0, 0, 0]	n/a	FR1	1	R1306E
1272.921	0.948	1240247	WORD_OFF	n/a	n/a	CROWN	5	8	[0, 0, 0]	n/a	FR1	1	R1306E
1273.869	1.635	1241195	WORD	n/a	n/a	TIE	6	8	[0, 0, 0]	n/a	FR1	1	R1306E
1275.504	0.96	1242830	WORD_OFF	n/a	n/a	TIE	6	8	[0, 0, 0]	n/a	FR1	1	R1306E
1276.464	1.624	1243790	WORD	n/a	n/a	STAR	7	8	[0, 0, 0]	n/a	FR1	1	R1306E
1278.088	0.988	1245414	WORD_OFF	n/a	n/a	STAR	7	8	[0, 0, 0]	n/a	FR1	1	R1306E
1279.076	1.629	1246402	WORD	n/a	n/a	PEAR	8	8	[0, 0, 0]	n/a	FR1	1	R1306E
1280.705	1.006	1248031	WORD_OFF	n/a	n/a	PEAR	8	8	[0, 0, 0]	n/a	FR1	1	R1306E
1281.711	1.628	1249037	WORD	n/a	n/a	PLANE	9	8	[0, 0, 0]	n/a	FR1	1	R1306E
1283.339	1.06	1250665	WORD_OFF	n/a	n/a	PLANE	9	8	[0, 0, 0]	n/a	FR1	1	R1306E
1284.399	1.624	1251724	WORD	n/a	n/a	VASE	10	8	[0, 0, 0]	n/a	FR1	1	R1306E
1286.023	0.814	1253348	WORD_OFF	n/a	n/a	VASE	10	8	[0, 0, 0]	n/a	FR1	1	R1306E
1286.837	1.636	1254162	WORD	n/a	n/a	CORD	11	8	[0, 0, 0]	n/a	FR1	1	R1306E
1288.473	1.038	1255798	WORD_OFF	n/a	n/a	CORD	11	8	[0, 0, 0]	n/a	FR1	1	R1306E
1289.511	1.629	1256836	WORD	n/a	n/a	MOLE	12	8	[0, 0, 0]	n/a	FR1	1	R1306E
1291.14	0.0	1258465	DISTRACT_START	n/a	n/a	n/a	-999	8	[0, 0, 0]	n/a	FR1	1	R1306E
1291.14	0.0	1258465	ENCODING_END	n/a	n/a	n/a	-999	8	[0, 0, 0]	n/a	FR1	1	R1306E
1291.14	0.001	1258465	WORD_OFF	n/a	n/a	MOLE	12	8	[0, 0, 0]	n/a	FR1	1	R1306E
1291.141	0.016	1258466	START	n/a	n/a	n/a	-999	8	[-999, -999, -999]	n/a	FR1	1	R1306E
1291.157	5.284	1258482	PROB	5.284	n/a	n/a	-999	8	[5, 5, 3]	13	FR1	1	R1306E
1296.441	3.934	1263766	PROB	3.934	n/a	n/a	-999	8	[1, 6, 6]	13	FR1	1	R1306E
1300.375	4.634	1267700	PROB	4.634	n/a	n/a	-999	8	[7, 7, 2]	16	FR1	1	R1306E
1305.009	7.557	1272334	PROB	7.557	n/a	n/a	-999	8	[4, 5, 7]	16	FR1	1	R1306E
1312.566	0.011	1279891	STOP	n/a	n/a	n/a	-999	8	[-999, -999, -999]	n/a	FR1	1	R1306E
1312.577	1.273	1279902	DISTRACT_END	n/a	n/a	n/a	-999	8	[0, 0, 0]	n/a	FR1	1	R1306E
1313.85	1.029	1281174	RETRIEVAL_ORIENT_START	n/a	n/a	n/a	-999	8	[0, 0, 0]	n/a	FR1	1	R1306E
1314.879	0.0	1282203	RETRIEVAL_ORIENT_END	n/a	n/a	n/a	-999	8	[0, 0, 0]	n/a	FR1	1	R1306E
1314.879	0.223	1282203	REC_START	n/a	n/a	n/a	-999	8	[0, 0, 0]	n/a	FR1	1	R1306E
1315.102	3.493	1282426	REC_WORD	3.493	n/a	POOL	1	8	[0, 0, 0]	n/a	FR1	1	R1306E
1318.595	26.796	1285919	REC_WORD	26.796	n/a	WINDOW	-999	8	[0, 0, 0]	n/a	FR1	1	R1306E
1345.391	0.0	1312714	REC_END	n/a	n/a	n/a	-999	8	[0, 0, 0]	n/a	FR1	1	R1306E
1345.391	0.0	1312714	TRIAL_END	n/a	n/a	n/a	-999	8	[0, 0, 0]	n/a	FR1	1	R1306E
1345.391	0.0	1312714	TRIAL_START	n/a	n/a	n/a	-999	9	[0, 0, 0]	n/a	FR1	1	R1306E
1345.391	0.0	1312714	TRIAL	n/a	n/a	n/a	-999	9	[0, 0, 0]	n/a	FR1	1	R1306E
1345.391	2.009	1312714	WAITING_START	n/a	n/a	n/a	-999	9	[0, 0, 0]	n/a	FR1	1	R1306E
1347.4	0.0	1314723	COUNTDOWN_END	n/a	n/a	n/a	-999	9	[0, 0, 0]	n/a	FR1	1	R1306E
1347.4	0.0	1314723	ORIENT_START	n/a	n/a	n/a	-999	9	[0, 0, 0]	n/a	FR1	1	R1306E
1347.4	0.0	1314723	WAITING_END	n/a	n/a	n/a	-999	9	[0, 0, 0]	n/a	FR1	1	R1306E
1347.4	11.486	1314723	COUNTDOWN_START	n/a	n/a	n/a	-999	9	[0, 0, 0]	n/a	FR1	1	R1306E
1358.886	0.0	1326209	ORIENT_END	n/a	n/a	n/a	-999	9	[0, 0, 0]	n/a	FR1	1	R1306E
1358.886	0.933	1326209	ENCODING_START	n/a	n/a	n/a	-999	9	[0, 0, 0]	n/a	FR1	1	R1306E
1359.819	1.634	1327142	WORD	n/a	n/a	BEE	1	9	[0, 0, 0]	n/a	FR1	1	R1306E
1361.453	1.13	1328776	WORD_OFF	n/a	n/a	BEE	1	9	[0, 0, 0]	n/a	FR1	1	R1306E
1362.583	1.637	1329906	WORD	n/a	n/a	DESK	2	9	[0, 0, 0]	n/a	FR1	1	R1306E
1364.22	0.76	1331543	WORD_OFF	n/a	n/a	DESK	2	9	[0, 0, 0]	n/a	FR1	1	R1306E
1364.98	1.624	1332303	WORD	n/a	n/a	WAND	3	9	[0, 0, 0]	n/a	FR1	1	R1306E
1366.604	0.945	1333927	WORD_OFF	n/a	n/a	WAND	3	9	[0, 0, 0]	n/a	FR1	1	R1306E
1367.549	1.638	1334872	WORD	n/a	n/a	DOCK	4	9	[0, 0, 0]	n/a	FR1	1	R1306E
1369.187	0.929	1336510	WORD_OFF	n/a	n/a	DOCK	4	9	[0, 0, 0]	n/a	FR1	1	R1306E
1370.116	1.622	1337439	WORD	n/a	n/a	SEAL	5	9	[0, 0, 0]	n/a	FR1	1	R1306E
1371.738	0.966	1339060	WORD_OFF	n/a	n/a	SEAL	5	9	[0, 0, 0]	n/a	FR1	1	R1306E
1372.704	1.634	1340026	WORD	n/a	n/a	DEER	6	9	[0, 0, 0]	n/a	FR1	1	R1306E
1374.338	0.869	1341660	WORD_OFF	n/a	n/a	DEER	6	9	[0, 0, 0]	n/a	FR1	1	R1306E
1375.207	1.631	1342529	WORD	n/a	n/a	CLAY	7	9	[0, 0, 0]	n/a	FR1	1	R1306E
1376.838	1.04	1344160	WORD_OFF	n/a	n/a	CLAY	7	9	[0, 0, 0]	n/a	FR1	1	R1306E
1377.878	1.628	1345200	WORD	n/a	n/a	INK	8	9	[0, 0, 0]	n/a	FR1	1	R1306E
1379.506	0.987	1346828	WORD_OFF	n/a	n/a	INK	8	9	[0, 0, 0]	n/a	FR1	1	R1306E
1380.493	1.63	1347815	WORD	n/a	n/a	SLIME	9	9	[0, 0, 0]	n/a	FR1	1	R1306E
1382.123	1.011	1349445	WORD_OFF	n/a	n/a	SLIME	9	9	[0, 0, 0]	n/a	FR1	1	R1306E
1383.134	1.623	1350456	WORD	n/a	n/a	STICK	10	9	[0, 0, 0]	n/a	FR1	1	R1306E
1384.757	1.041	1352079	WORD_OFF	n/a	n/a	STICK	10	9	[0, 0, 0]	n/a	FR1	1	R1306E
1385.798	1.626	1353120	WORD	n/a	n/a	BUSH	11	9	[0, 0, 0]	n/a	FR1	1	R1306E
1387.424	0.838	1354746	WORD_OFF	n/a	n/a	BUSH	11	9	[0, 0, 0]	n/a	FR1	1	R1306E
1388.262	1.63	1355584	WORD	n/a	n/a	MOON	12	9	[0, 0, 0]	n/a	FR1	1	R1306E
1389.892	0.0	1357214	WORD_OFF	n/a	n/a	MOON	12	9	[0, 0, 0]	n/a	FR1	1	R1306E
1389.892	0.0	1357214	ENCODING_END	n/a	n/a	n/a	-999	9	[0, 0, 0]	n/a	FR1	1	R1306E
1389.892	0.001	1357214	DISTRACT_START	n/a	n/a	n/a	-999	9	[0, 0, 0]	n/a	FR1	1	R1306E
1389.893	0.016	1357215	START	n/a	n/a	n/a	-999	9	[-999, -999, -999]	n/a	FR1	1	R1306E
1389.909	4.299	1357231	PROB	4.299	n/a	n/a	-999	9	[5, 1, 5]	11	FR1	1	R1306E
1394.208	6.268	1361530	PROB	6.268	n/a	n/a	-999	9	[7, 6, 6]	14	FR1	1	R1306E
1400.476	4.384	1367798	PROB	4.384	n/a	n/a	-999	9	[8, 4, 1]	13	FR1	1	R1306E
1404.86	5.34	1372181	PROB	5.34	n/a	n/a	-999	9	[9, 2, 8]	19	FR1	1	R1306E
1410.2	0.011	1377521	STOP	n/a	n/a	n/a	-999	9	[-999, -999, -999]	n/a	FR1	1	R1306E
1410.211	1.29	1377532	DISTRACT_END	n/a	n/a	n/a	-999	9	[0, 0, 0]	n/a	FR1	1	R1306E
1411.501	1.027	1378822	RETRIEVAL_ORIENT_START	n/a	n/a	n/a	-999	9	[0, 0, 0]	n/a	FR1	1	R1306E
1412.528	0.0	1379849	RETRIEVAL_ORIENT_END	n/a	n/a	n/a	-999	9	[0, 0, 0]	n/a	FR1	1	R1306E
1412.528	0.941	1379849	REC_START	n/a	n/a	n/a	-999	9	[0, 0, 0]	n/a	FR1	1	R1306E
1413.469	29.573	1380790	REC_WORD	29.573	n/a	BEE	1	9	[0, 0, 0]	n/a	FR1	1	R1306E
1443.042	0.0	1410362	TRIAL_END	n/a	n/a	n/a	-999	9	[0, 0, 0]	n/a	FR1	1	R1306E
1443.042	0.0	1410362	TRIAL_START	n/a	n/a	n/a	-999	10	[0, 0, 0]	n/a	FR1	1	R1306E
1443.042	0.0	1410362	TRIAL	n/a	n/a	n/a	-999	10	[0, 0, 0]	n/a	FR1	1	R1306E
1443.042	0.0	1410362	WAITING_START	n/a	n/a	n/a	-999	10	[0, 0, 0]	n/a	FR1	1	R1306E
1443.042	4.726	1410362	REC_END	n/a	n/a	n/a	-999	9	[0, 0, 0]	n/a	FR1	1	R1306E
1447.768	0.0	1415088	WAITING_END	n/a	n/a	n/a	-999	10	[0, 0, 0]	n/a	FR1	1	R1306E
1447.768	0.0	1415088	COUNTDOWN_START	n/a	n/a	n/a	-999	10	[0, 0, 0]	n/a	FR1	1	R1306E
1447.768	0.0	1415088	COUNTDOWN_END	n/a	n/a	n/a	-999	10	[0, 0, 0]	n/a	FR1	1	R1306E
1447.768	11.585	1415088	ORIENT_START	n/a	n/a	n/a	-999	10	[0, 0, 0]	n/a	FR1	1	R1306E
1459.353	0.0	1426672	ORIENT_END	n/a	n/a	n/a	-999	10	[0, 0, 0]	n/a	FR1	1	R1306E
1459.353	0.876	1426672	ENCODING_START	n/a	n/a	n/a	-999	10	[0, 0, 0]	n/a	FR1	1	R1306E
1460.229	1.624	1427548	WORD	n/a	n/a	PEARL	1	10	[0, 0, 0]	n/a	FR1	1	R1306E
1461.853	1.057	1429172	WORD_OFF	n/a	n/a	PEARL	1	10	[0, 0, 0]	n/a	FR1	1	R1306E
1462.91	1.627	1430229	WORD	n/a	n/a	OAK	2	10	[0, 0, 0]	n/a	FR1	1	R1306E
1464.537	1.082	1431856	WORD_OFF	n/a	n/a	OAK	2	10	[0, 0, 0]	n/a	FR1	1	R1306E
1465.619	1.635	1432938	WORD	n/a	n/a	PET	3	10	[0, 0, 0]	n/a	FR1	1	R1306E
1467.254	0.834	1434573	WORD_OFF	n/a	n/a	PET	3	10	[0, 0, 0]	n/a	FR1	1	R1306E
1468.088	1.634	1435407	WORD	n/a	n/a	HEN	4	10	[0, 0, 0]	n/a	FR1	1	R1306E
1469.722	0.953	1437041	WORD_OFF	n/a	n/a	HEN	4	10	[0, 0, 0]	n/a	FR1	1	R1306E
1470.675	1.63	1437994	WORD	n/a	n/a	ARM	5	10	[0, 0, 0]	n/a	FR1	1	R1306E
1472.305	1.149	1439624	WORD_OFF	n/a	n/a	ARM	5	10	[0, 0, 0]	n/a	FR1	1	R1306E
1473.454	1.635	1440773	WORD	n/a	n/a	YARD	6	10	[0, 0, 0]	n/a	FR1	1	R1306E
1475.089	0.897	1442408	WORD_OFF	n/a	n/a	YARD	6	10	[0, 0, 0]	n/a	FR1	1	R1306E
1475.986	1.637	1443305	WORD	n/a	n/a	SWORD	7	10	[0, 0, 0]	n/a	FR1	1	R1306E
1477.623	0.826	1444942	WORD_OFF	n/a	n/a	SWORD	7	10	[0, 0, 0]	n/a	FR1	1	R1306E
1478.449	1.624	1445768	WORD	n/a	n/a	HOOK	8	10	[0, 0, 0]	n/a	FR1	1	R1306E
1480.073	1.143	1447392	WORD_OFF	n/a	n/a	HOOK	8	10	[0, 0, 0]	n/a	FR1	1	R1306E
1481.216	1.624	1448535	WORD	n/a	n/a	SHRIMP	9	10	[0, 0, 0]	n/a	FR1	1	R1306E
1482.84	0.949	1450159	WORD_OFF	n/a	n/a	SHRIMP	9	10	[0, 0, 0]	n/a	FR1	1	R1306E
1483.789	1.635	1451108	WORD	n/a	n/a	PLATE	10	10	[0, 0, 0]	n/a	FR1	1	R1306E
1485.424	0.849	1452743	WORD_OFF	n/a	n/a	PLATE	10	10	[0, 0, 0]	n/a	FR1	1	R1306E
1486.273	1.636	1453592	WORD	n/a	n/a	CAPE	11	10	[0, 0, 0]	n/a	FR1	1	R1306E
1487.909	0.807	1455228	WORD_OFF	n/a	n/a	CAPE	11	10	[0, 0, 0]	n/a	FR1	1	R1306E
1488.716	1.626	1456034	WORD	n/a	n/a	WHALE	12	10	[0, 0, 0]	n/a	FR1	1	R1306E
1490.342	0.0	1457660	WORD_OFF	n/a	n/a	WHALE	12	10	[0, 0, 0]	n/a	FR1	1	R1306E
1490.342	0.0	1457660	ENCODING_END	n/a	n/a	n/a	-999	10	[0, 0, 0]	n/a	FR1	1	R1306E
1490.342	0.001	1457660	DISTRACT_START	n/a	n/a	n/a	-999	10	[0, 0, 0]	n/a	FR1	1	R1306E
1490.343	0.015	1457661	START	n/a	n/a	n/a	-999	10	[-999, -999, -999]	n/a	FR1	1	R1306E
1490.358	5.901	1457676	PROB	5.901	n/a	n/a	-999	10	[9, 1, 3]	13	FR1	1	R1306E
1496.259	4.118	1463577	PROB	4.118	n/a	n/a	-999	10	[8, 2, 4]	14	FR1	1	R1306E
1500.377	4.317	1467695	PROB	4.317	n/a	n/a	-999	10	[6, 3, 9]	18	FR1	1	R1306E
1504.694	5.118	1472012	PROB	5.118	n/a	n/a	-999	10	[1, 7, 9]	17	FR1	1	R1306E
1509.812	7.04	1477130	PROB	7.04	n/a	n/a	-999	10	[6, 9, 3]	18	FR1	1	R1306E
1516.852	0.011	1484170	STOP	n/a	n/a	n/a	-999	10	[-999, -999, -999]	n/a	FR1	1	R1306E
1516.863	1.177	1484181	DISTRACT_END	n/a	n/a	n/a	-999	10	[0, 0, 0]	n/a	FR1	1	R1306E
1518.04	1.024	1485357	RETRIEVAL_ORIENT_START	n/a	n/a	n/a	-999	10	[0, 0, 0]	n/a	FR1	1	R1306E
1519.064	0.0	1486381	RETRIEVAL_ORIENT_END	n/a	n/a	n/a	-999	10	[0, 0, 0]	n/a	FR1	1	R1306E
1519.064	7.805	1486381	REC_START	n/a	n/a	n/a	-999	10	[0, 0, 0]	n/a	FR1	1	R1306E
1526.869	22.705	1494186	REC_WORD_VV	22.705	n/a	<>	-999	10	[0, 0, 0]	n/a	FR1	1	R1306E
1549.574	0.0	1516890	WAITING_START	n/a	n/a	n/a	-999	11	[0, 0, 0]	n/a	FR1	1	R1306E
1549.574	0.0	1516890	TRIAL	n/a	n/a	n/a	-999	11	[0, 0, 0]	n/a	FR1	1	R1306E
1549.574	0.0	1516890	TRIAL_END	n/a	n/a	n/a	-999	10	[0, 0, 0]	n/a	FR1	1	R1306E
1549.574	0.0	1516890	REC_END	n/a	n/a	n/a	-999	10	[0, 0, 0]	n/a	FR1	1	R1306E
1549.574	2.262	1516890	TRIAL_START	n/a	n/a	n/a	-999	11	[0, 0, 0]	n/a	FR1	1	R1306E
1551.836	0.0	1519152	WAITING_END	n/a	n/a	n/a	-999	11	[0, 0, 0]	n/a	FR1	1	R1306E
1551.836	0.0	1519152	COUNTDOWN_START	n/a	n/a	n/a	-999	11	[0, 0, 0]	n/a	FR1	1	R1306E
1551.836	0.0	1519152	COUNTDOWN_END	n/a	n/a	n/a	-999	11	[0, 0, 0]	n/a	FR1	1	R1306E
1551.836	11.635	1519152	ORIENT_START	n/a	n/a	n/a	-999	11	[0, 0, 0]	n/a	FR1	1	R1306E
1563.471	0.0	1530787	ORIENT_END	n/a	n/a	n/a	-999	11	[0, 0, 0]	n/a	FR1	1	R1306E
1563.471	0.805	1530787	ENCODING_START	n/a	n/a	n/a	-999	11	[0, 0, 0]	n/a	FR1	1	R1306E
1564.276	1.63	1531592	WORD	n/a	n/a	FILM	1	11	[0, 0, 0]	n/a	FR1	1	R1306E
1565.906	0.82	1533222	WORD_OFF	n/a	n/a	FILM	1	11	[0, 0, 0]	n/a	FR1	1	R1306E
1566.726	1.629	1534042	WORD	n/a	n/a	STRAW	2	11	[0, 0, 0]	n/a	FR1	1	R1306E
1568.355	1.138	1535671	WORD_OFF	n/a	n/a	STRAW	2	11	[0, 0, 0]	n/a	FR1	1	R1306E
1569.493	1.63	1536809	WORD	n/a	n/a	FLEA	3	11	[0, 0, 0]	n/a	FR1	1	R1306E
1571.123	0.815	1538439	WORD_OFF	n/a	n/a	FLEA	3	11	[0, 0, 0]	n/a	FR1	1	R1306E
1571.938	1.635	1539254	WORD	n/a	n/a	LIP	4	11	[0, 0, 0]	n/a	FR1	1	R1306E
1573.573	0.932	1540889	WORD_OFF	n/a	n/a	LIP	4	11	[0, 0, 0]	n/a	FR1	1	R1306E
1574.505	1.635	1541821	WORD	n/a	n/a	NET	5	11	[0, 0, 0]	n/a	FR1	1	R1306E
1576.14	0.924	1543455	WORD_OFF	n/a	n/a	NET	5	11	[0, 0, 0]	n/a	FR1	1	R1306E
1577.064	1.627	1544379	WORD	n/a	n/a	BROOM	6	11	[0, 0, 0]	n/a	FR1	1	R1306E
1578.691	1.147	1546006	WORD_OFF	n/a	n/a	BROOM	6	11	[0, 0, 0]	n/a	FR1	1	R1306E
1579.838	1.636	1547153	WORD	n/a	n/a	CAVE	7	11	[0, 0, 0]	n/a	FR1	1	R1306E
1581.474	0.757	1548789	WORD_OFF	n/a	n/a	CAVE	7	11	[0, 0, 0]	n/a	FR1	1	R1306E
1582.231	1.627	1549546	WORD	n/a	n/a	STAIR	8	11	[0, 0, 0]	n/a	FR1	1	R1306E
1583.858	0.772	1551173	WORD_OFF	n/a	n/a	STAIR	8	11	[0, 0, 0]	n/a	FR1	1	R1306E
1584.63	1.629	1551945	WORD	n/a	n/a	LEAF	9	11	[0, 0, 0]	n/a	FR1	1	R1306E
1586.259	1.101	1553574	WORD_OFF	n/a	n/a	LEAF	9	11	[0, 0, 0]	n/a	FR1	1	R1306E
1587.36	1.617	1554675	WORD	n/a	n/a	BAND	10	11	[0, 0, 0]	n/a	FR1	1	R1306E
1588.977	1.011	1556292	WORD_OFF	n/a	n/a	BAND	10	11	[0, 0, 0]	n/a	FR1	1	R1306E
1589.988	1.621	1557303	WORD	n/a	n/a	BATH	11	11	[0, 0, 0]	n/a	FR1	1	R1306E
1591.609	0.876	1558924	WORD_OFF	n/a	n/a	BATH	11	11	[0, 0, 0]	n/a	FR1	1	R1306E
1592.485	1.625	1559800	WORD	n/a	n/a	TOAST	12	11	[0, 0, 0]	n/a	FR1	1	R1306E
1594.11	0.0	1561425	WORD_OFF	n/a	n/a	TOAST	12	11	[0, 0, 0]	n/a	FR1	1	R1306E
1594.11	0.0	1561425	ENCODING_END	n/a	n/a	n/a	-999	11	[0, 0, 0]	n/a	FR1	1	R1306E
1594.11	0.001	1561425	DISTRACT_START	n/a	n/a	n/a	-999	11	[0, 0, 0]	n/a	FR1	1	R1306E
1594.111	0.016	1561426	START	n/a	n/a	n/a	-999	11	[-999, -999, -999]	n/a	FR1	1	R1306E
1594.127	5.234	1561442	PROB	5.234	n/a	n/a	-999	11	[6, 3, 1]	10	FR1	1	R1306E
1599.361	4.234	1566676	PROB	4.234	n/a	n/a	-999	11	[9, 2, 9]	20	FR1	1	R1306E
1603.595	6.168	1570910	PROB	6.168	n/a	n/a	-999	11	[5, 9, 3]	17	FR1	1	R1306E
1609.763	4.993	1577077	PROB	4.993	n/a	n/a	-999	11	[8, 3, 3]	14	FR1	1	R1306E
1614.756	0.007	1582070	STOP	n/a	n/a	n/a	-999	11	[-999, -999, -999]	n/a	FR1	1	R1306E
1614.763	1.28	1582077	DISTRACT_END	n/a	n/a	n/a	-999	11	[0, 0, 0]	n/a	FR1	1	R1306E
1616.043	1.021	1583357	RETRIEVAL_ORIENT_START	n/a	n/a	n/a	-999	11	[0, 0, 0]	n/a	FR1	1	R1306E
1617.064	0.0	1584378	RETRIEVAL_ORIENT_END	n/a	n/a	n/a	-999	11	[0, 0, 0]	n/a	FR1	1	R1306E
1617.064	0.522	1584378	REC_START	n/a	n/a	n/a	-999	11	[0, 0, 0]	n/a	FR1	1	R1306E
1617.586	3.854	1584900	REC_WORD	3.854	n/a	LEAF	9	11	[0, 0, 0]	n/a	FR1	1	R1306E
1621.44	3.548	1588754	REC_WORD	3.548	n/a	STOVE	-999	11	[0, 0, 0]	n/a	FR1	1	R1306E
1624.988	22.587	1592302	REC_WORD	22.587	n/a	BOOK	-999	11	[0, 0, 0]	n/a	FR1	1	R1306E
1647.575	0.0	1614888	REC_END	n/a	n/a	n/a	-999	11	[0, 0, 0]	n/a	FR1	1	R1306E
1647.575	0.0	1614888	TRIAL_END	n/a	n/a	n/a	-999	11	[0, 0, 0]	n/a	FR1	1	R1306E
1647.575	0.0	1614888	TRIAL_START	n/a	n/a	n/a	-999	12	[0, 0, 0]	n/a	FR1	1	R1306E
1647.575	0.0	1614888	TRIAL	n/a	n/a	n/a	-999	12	[0, 0, 0]	n/a	FR1	1	R1306E
1647.575	2.178	1614888	WAITING_START	n/a	n/a	n/a	-999	12	[0, 0, 0]	n/a	FR1	1	R1306E
1649.753	0.0	1617066	WAITING_END	n/a	n/a	n/a	-999	12	[0, 0, 0]	n/a	FR1	1	R1306E
1649.753	0.0	1617066	COUNTDOWN_START	n/a	n/a	n/a	-999	12	[0, 0, 0]	n/a	FR1	1	R1306E
1649.753	0.0	1617066	COUNTDOWN_END	n/a	n/a	n/a	-999	12	[0, 0, 0]	n/a	FR1	1	R1306E
1649.753	11.569	1617066	ORIENT_START	n/a	n/a	n/a	-999	12	[0, 0, 0]	n/a	FR1	1	R1306E
1661.322	0.0	1628635	ORIENT_END	n/a	n/a	n/a	-999	12	[0, 0, 0]	n/a	FR1	1	R1306E
1661.322	0.905	1628635	ENCODING_START	n/a	n/a	n/a	-999	12	[0, 0, 0]	n/a	FR1	1	R1306E
1662.227	1.628	1629540	WORD	n/a	n/a	FAN	1	12	[0, 0, 0]	n/a	FR1	1	R1306E
1663.855	0.997	1631167	WORD_OFF	n/a	n/a	FAN	1	12	[0, 0, 0]	n/a	FR1	1	R1306E
1664.852	1.637	1632164	WORD	n/a	n/a	ROOF	2	12	[0, 0, 0]	n/a	FR1	1	R1306E
1666.489	0.91	1633801	WORD_OFF	n/a	n/a	ROOF	2	12	[0, 0, 0]	n/a	FR1	1	R1306E
1667.399	1.624	1634711	WORD	n/a	n/a	KEY	3	12	[0, 0, 0]	n/a	FR1	1	R1306E
1669.023	1.077	1636335	WORD_OFF	n/a	n/a	KEY	3	12	[0, 0, 0]	n/a	FR1	1	R1306E
1670.1	1.624	1637412	WORD	n/a	n/a	BOARD	4	12	[0, 0, 0]	n/a	FR1	1	R1306E
1671.724	0.932	1639036	WORD_OFF	n/a	n/a	BOARD	4	12	[0, 0, 0]	n/a	FR1	1	R1306E
1672.656	1.635	1639968	WORD	n/a	n/a	WAVE	5	12	[0, 0, 0]	n/a	FR1	1	R1306E
1674.291	1.127	1641603	WORD_OFF	n/a	n/a	WAVE	5	12	[0, 0, 0]	n/a	FR1	1	R1306E
1675.418	1.623	1642730	WORD	n/a	n/a	CART	6	12	[0, 0, 0]	n/a	FR1	1	R1306E
1677.041	0.859	1644353	WORD_OFF	n/a	n/a	CART	6	12	[0, 0, 0]	n/a	FR1	1	R1306E
1677.9	1.625	1645212	WORD	n/a	n/a	SCHOOL	7	12	[0, 0, 0]	n/a	FR1	1	R1306E
1679.525	0.937	1646837	WORD_OFF	n/a	n/a	SCHOOL	7	12	[0, 0, 0]	n/a	FR1	1	R1306E
1680.462	1.63	1647774	WORD	n/a	n/a	WHEEL	8	12	[0, 0, 0]	n/a	FR1	1	R1306E
1682.092	1.032	1649404	WORD_OFF	n/a	n/a	WHEEL	8	12	[0, 0, 0]	n/a	FR1	1	R1306E
1683.124	1.635	1650436	WORD	n/a	n/a	PIT	9	12	[0, 0, 0]	n/a	FR1	1	R1306E
1684.759	1.118	1652071	WORD_OFF	n/a	n/a	PIT	9	12	[0, 0, 0]	n/a	FR1	1	R1306E
1685.877	1.633	1653189	WORD	n/a	n/a	SHOE	10	12	[0, 0, 0]	n/a	FR1	1	R1306E
1687.51	0.808	1654822	WORD_OFF	n/a	n/a	SHOE	10	12	[0, 0, 0]	n/a	FR1	1	R1306E
1688.318	1.609	1655630	WORD	n/a	n/a	STONE	11	12	[0, 0, 0]	n/a	FR1	1	R1306E
1689.927	0.888	1657239	WORD_OFF	n/a	n/a	STONE	11	12	[0, 0, 0]	n/a	FR1	1	R1306E
1690.815	1.629	1658127	WORD	n/a	n/a	STOOL	12	12	[0, 0, 0]	n/a	FR1	1	R1306E
1692.444	0.0	1659755	WORD_OFF	n/a	n/a	STOOL	12	12	[0, 0, 0]	n/a	FR1	1	R1306E
1692.444	0.0	1659755	ENCODING_END	n/a	n/a	n/a	-999	12	[0, 0, 0]	n/a	FR1	1	R1306E
1692.444	0.001	1659755	DISTRACT_START	n/a	n/a	n/a	-999	12	[0, 0, 0]	n/a	FR1	1	R1306E
1692.445	0.015	1659756	START	n/a	n/a	n/a	-999	12	[-999, -999, -999]	n/a	FR1	1	R1306E
1692.46	5.268	1659771	PROB	5.268	n/a	n/a	-999	12	[6, 7, 3]	16	FR1	1	R1306E
1697.728	4.901	1665039	PROB	4.901	n/a	n/a	-999	12	[5, 1, 8]	14	FR1	1	R1306E
1702.629	6.868	1669940	PROB	6.868	n/a	n/a	-999	12	[3, 2, 9]	14	FR1	1	R1306E
1709.497	4.876	1676808	PROB	4.876	n/a	n/a	-999	12	[1, 5, 9]	15	FR1	1	R1306E
1714.373	0.008	1681684	STOP	n/a	n/a	n/a	-999	12	[-999, -999, -999]	n/a	FR1	1	R1306E
1714.381	1.186	1681692	DISTRACT_END	n/a	n/a	n/a	-999	12	[0, 0, 0]	n/a	FR1	1	R1306E
1715.567	1.031	1682878	RETRIEVAL_ORIENT_START	n/a	n/a	n/a	-999	12	[0, 0, 0]	n/a	FR1	1	R1306E
1716.598	0.0	1683909	RETRIEVAL_ORIENT_END	n/a	n/a	n/a	-999	12	[0, 0, 0]	n/a	FR1	1	R1306E
1716.598	1.734	1683909	REC_START	n/a	n/a	n/a	-999	12	[0, 0, 0]	n/a	FR1	1	R1306E
1718.332	2.087	1685643	REC_WORD	2.087	n/a	ROOF	2	12	[0, 0, 0]	n/a	FR1	1	R1306E
1720.419	26.69	1687730	REC_WORD	26.69	n/a	STONE	11	12	[0, 0, 0]	n/a	FR1	1	R1306E
1747.109	0.0	1714419	TRIAL_END	n/a	n/a	n/a	-999	12	[0, 0, 0]	n/a	FR1	1	R1306E
1747.109	0.0	1714419	WAITING_START	n/a	n/a	n/a	-999	13	[0, 0, 0]	n/a	FR1	1	R1306E
1747.109	0.0	1714419	REC_END	n/a	n/a	n/a	-999	12	[0, 0, 0]	n/a	FR1	1	R1306E
1747.109	0.0	1714419	TRIAL_START	n/a	n/a	n/a	-999	13	[0, 0, 0]	n/a	FR1	1	R1306E
1747.109	2.178	1714419	TRIAL	n/a	n/a	n/a	-999	13	[0, 0, 0]	n/a	FR1	1	R1306E
1749.287	0.0	1716597	COUNTDOWN_START	n/a	n/a	n/a	-999	13	[0, 0, 0]	n/a	FR1	1	R1306E
1749.287	0.0	1716597	COUNTDOWN_END	n/a	n/a	n/a	-999	13	[0, 0, 0]	n/a	FR1	1	R1306E
1749.287	0.0	1716597	ORIENT_START	n/a	n/a	n/a	-999	13	[0, 0, 0]	n/a	FR1	1	R1306E
1749.287	11.519	1716597	WAITING_END	n/a	n/a	n/a	-999	13	[0, 0, 0]	n/a	FR1	1	R1306E
1760.806	0.0	1728115	ORIENT_END	n/a	n/a	n/a	-999	13	[0, 0, 0]	n/a	FR1	1	R1306E
1760.806	0.954	1728115	ENCODING_START	n/a	n/a	n/a	-999	13	[0, 0, 0]	n/a	FR1	1	R1306E
1761.76	1.63	1729069	WORD	n/a	n/a	CAR	1	13	[0, 0, 0]	n/a	FR1	1	R1306E
1763.39	1.012	1730699	WORD_OFF	n/a	n/a	CAR	1	13	[0, 0, 0]	n/a	FR1	1	R1306E
1764.402	1.638	1731711	WORD	n/a	n/a	STRING	2	13	[0, 0, 0]	n/a	FR1	1	R1306E
1766.04	1.084	1733349	WORD_OFF	n/a	n/a	STRING	2	13	[0, 0, 0]	n/a	FR1	1	R1306E
1767.124	1.633	1734433	WORD	n/a	n/a	SEED	3	13	[0, 0, 0]	n/a	FR1	1	R1306E
1768.757	0.998	1736066	WORD_OFF	n/a	n/a	SEED	3	13	[0, 0, 0]	n/a	FR1	1	R1306E
1769.755	1.636	1737064	WORD	n/a	n/a	RAIN	4	13	[0, 0, 0]	n/a	FR1	1	R1306E
1771.391	1.12	1738700	WORD_OFF	n/a	n/a	RAIN	4	13	[0, 0, 0]	n/a	FR1	1	R1306E
1772.511	1.63	1739820	WORD	n/a	n/a	HILL	5	13	[0, 0, 0]	n/a	FR1	1	R1306E
1774.141	0.872	1741450	WORD_OFF	n/a	n/a	HILL	5	13	[0, 0, 0]	n/a	FR1	1	R1306E
1775.013	1.629	1742322	WORD	n/a	n/a	BOOK	6	13	[0, 0, 0]	n/a	FR1	1	R1306E
1776.642	0.981	1743951	WORD_OFF	n/a	n/a	BOOK	6	13	[0, 0, 0]	n/a	FR1	1	R1306E
1777.623	1.636	1744932	WORD	n/a	n/a	WOOD	7	13	[0, 0, 0]	n/a	FR1	1	R1306E
1779.259	1.078	1746567	WORD_OFF	n/a	n/a	WOOD	7	13	[0, 0, 0]	n/a	FR1	1	R1306E
1780.337	1.607	1747645	WORD	n/a	n/a	JAIL	8	13	[0, 0, 0]	n/a	FR1	1	R1306E
1781.944	1.052	1749252	WORD_OFF	n/a	n/a	JAIL	8	13	[0, 0, 0]	n/a	FR1	1	R1306E
1782.996	1.631	1750304	WORD	n/a	n/a	GLASS	9	13	[0, 0, 0]	n/a	FR1	1	R1306E
1784.627	0.957	1751935	WORD_OFF	n/a	n/a	GLASS	9	13	[0, 0, 0]	n/a	FR1	1	R1306E
1785.584	1.626	1752892	WORD	n/a	n/a	SNAKE	10	13	[0, 0, 0]	n/a	FR1	1	R1306E
1787.21	0.904	1754518	WORD_OFF	n/a	n/a	SNAKE	10	13	[0, 0, 0]	n/a	FR1	1	R1306E
1788.114	1.63	1755422	WORD	n/a	n/a	LAND	11	13	[0, 0, 0]	n/a	FR1	1	R1306E
1789.744	1.038	1757052	WORD_OFF	n/a	n/a	LAND	11	13	[0, 0, 0]	n/a	FR1	1	R1306E
1790.782	1.629	1758090	WORD	n/a	n/a	ZOO	12	13	[0, 0, 0]	n/a	FR1	1	R1306E
1792.411	0.0	1759719	ENCODING_END	n/a	n/a	n/a	-999	13	[0, 0, 0]	n/a	FR1	1	R1306E
1792.411	0.0	1759719	DISTRACT_START	n/a	n/a	n/a	-999	13	[0, 0, 0]	n/a	FR1	1	R1306E
1792.411	0.002	1759719	WORD_OFF	n/a	n/a	ZOO	12	13	[0, 0, 0]	n/a	FR1	1	R1306E
1792.413	0.015	1759721	START	n/a	n/a	n/a	-999	13	[-999, -999, -999]	n/a	FR1	1	R1306E
1792.428	4.518	1759736	PROB	4.518	n/a	n/a	-999	13	[2, 4, 1]	7	FR1	1	R1306E
1796.946	2.833	1764254	PROB	2.833	n/a	n/a	-999	13	[1, 5, 1]	7	FR1	1	R1306E
1799.779	4.601	1767087	PROB	4.601	n/a	n/a	-999	13	[5, 4, 3]	12	FR1	1	R1306E
1804.38	4.334	1771688	PROB	4.334	n/a	n/a	-999	13	[3, 3, 8]	13	FR1	1	R1306E
1808.714	5.205	1776021	PROB	5.205	n/a	n/a	-999	13	[2, 2, 2]	6	FR1	1	R1306E
1813.919	0.014	1781226	STOP	n/a	n/a	n/a	-999	13	[-999, -999, -999]	n/a	FR1	1	R1306E
1813.933	1.018	1781240	DISTRACT_END	n/a	n/a	n/a	-999	13	[0, 0, 0]	n/a	FR1	1	R1306E
1814.951	1.032	1782258	RETRIEVAL_ORIENT_START	n/a	n/a	n/a	-999	13	[0, 0, 0]	n/a	FR1	1	R1306E
1815.983	0.0	1783290	RETRIEVAL_ORIENT_END	n/a	n/a	n/a	-999	13	[0, 0, 0]	n/a	FR1	1	R1306E
1815.983	1.195	1783290	REC_START	n/a	n/a	n/a	-999	13	[0, 0, 0]	n/a	FR1	1	R1306E
1817.178	1.341	1784485	REC_WORD	1.341	n/a	CAR	1	13	[0, 0, 0]	n/a	FR1	1	R1306E
1818.519	1.65	1785826	REC_WORD	1.65	n/a	STEAL	-999	13	[0, 0, 0]	n/a	FR1	1	R1306E
1820.169	4.083	1787476	REC_WORD	4.083	n/a	KEY	-999	13	[0, 0, 0]	n/a	FR1	1	R1306E
1824.252	6.262	1791559	REC_WORD	6.262	n/a	STOOP	-999	13	[0, 0, 0]	n/a	FR1	1	R1306E
1830.514	15.98	1797821	REC_WORD	15.98	n/a	BOOT	-999	13	[0, 0, 0]	n/a	FR1	1	R1306E
1846.494	0.0	1813800	WAITING_START	n/a	n/a	n/a	-999	14	[0, 0, 0]	n/a	FR1	1	R1306E
1846.494	0.0	1813800	TRIAL	n/a	n/a	n/a	-999	14	[0, 0, 0]	n/a	FR1	1	R1306E
1846.494	0.0	1813800	TRIAL_START	n/a	n/a	n/a	-999	14	[0, 0, 0]	n/a	FR1	1	R1306E
1846.494	0.0	1813800	REC_END	n/a	n/a	n/a	-999	13	[0, 0, 0]	n/a	FR1	1	R1306E
1846.494	1.594	1813800	TRIAL_END	n/a	n/a	n/a	-999	13	[0, 0, 0]	n/a	FR1	1	R1306E
1848.088	0.0	1815394	WAITING_END	n/a	n/a	n/a	-999	14	[0, 0, 0]	n/a	FR1	1	R1306E
1848.088	0.0	1815394	COUNTDOWN_START	n/a	n/a	n/a	-999	14	[0, 0, 0]	n/a	FR1	1	R1306E
1848.088	0.0	1815394	COUNTDOWN_END	n/a	n/a	n/a	-999	14	[0, 0, 0]	n/a	FR1	1	R1306E
1848.088	11.618	1815394	ORIENT_START	n/a	n/a	n/a	-999	14	[0, 0, 0]	n/a	FR1	1	R1306E
1859.706	0.0	1827012	ORIENT_END	n/a	n/a	n/a	-999	14	[0, 0, 0]	n/a	FR1	1	R1306E
1859.706	1.045	1827012	ENCODING_START	n/a	n/a	n/a	-999	14	[0, 0, 0]	n/a	FR1	1	R1306E
1860.751	1.622	1828057	WORD	n/a	n/a	SLEEVE	1	14	[0, 0, 0]	n/a	FR1	1	R1306E
1862.373	1.046	1829679	WORD_OFF	n/a	n/a	SLEEVE	1	14	[0, 0, 0]	n/a	FR1	1	R1306E
1863.419	1.638	1830725	WORD	n/a	n/a	SQUARE	2	14	[0, 0, 0]	n/a	FR1	1	R1306E
1865.057	0.795	1832363	WORD_OFF	n/a	n/a	SQUARE	2	14	[0, 0, 0]	n/a	FR1	1	R1306E
1865.852	1.622	1833158	WORD	n/a	n/a	FLAME	3	14	[0, 0, 0]	n/a	FR1	1	R1306E
1867.474	0.914	1834779	WORD_OFF	n/a	n/a	FLAME	3	14	[0, 0, 0]	n/a	FR1	1	R1306E
1868.388	1.637	1835693	WORD	n/a	n/a	MOOSE	4	14	[0, 0, 0]	n/a	FR1	1	R1306E
1870.025	0.838	1837330	WORD_OFF	n/a	n/a	MOOSE	4	14	[0, 0, 0]	n/a	FR1	1	R1306E
1870.863	1.629	1838168	WORD	n/a	n/a	TOAD	5	14	[0, 0, 0]	n/a	FR1	1	R1306E
1872.492	0.998	1839797	WORD_OFF	n/a	n/a	TOAD	5	14	[0, 0, 0]	n/a	FR1	1	R1306E
1873.49	1.636	1840795	WORD	n/a	n/a	SPEAR	6	14	[0, 0, 0]	n/a	FR1	1	R1306E
1875.126	0.926	1842431	WORD_OFF	n/a	n/a	SPEAR	6	14	[0, 0, 0]	n/a	FR1	1	R1306E
1876.052	1.624	1843357	WORD	n/a	n/a	GOAT	7	14	[0, 0, 0]	n/a	FR1	1	R1306E
1877.676	0.931	1844981	WORD_OFF	n/a	n/a	GOAT	7	14	[0, 0, 0]	n/a	FR1	1	R1306E
1878.607	1.636	1845912	WORD	n/a	n/a	LOCK	8	14	[0, 0, 0]	n/a	FR1	1	R1306E
1880.243	0.979	1847548	WORD_OFF	n/a	n/a	LOCK	8	14	[0, 0, 0]	n/a	FR1	1	R1306E
1881.222	1.638	1848527	WORD	n/a	n/a	PANTS	9	14	[0, 0, 0]	n/a	FR1	1	R1306E
1882.86	1.089	1850165	WORD_OFF	n/a	n/a	PANTS	9	14	[0, 0, 0]	n/a	FR1	1	R1306E
1883.949	1.629	1851254	WORD	n/a	n/a	BLOOM	10	14	[0, 0, 0]	n/a	FR1	1	R1306E
1885.578	0.804	1852883	WORD_OFF	n/a	n/a	BLOOM	10	14	[0, 0, 0]	n/a	FR1	1	R1306E
1886.382	1.629	1853687	WORD	n/a	n/a	MILK	11	14	[0, 0, 0]	n/a	FR1	1	R1306E
1888.011	0.872	1855316	WORD_OFF	n/a	n/a	MILK	11	14	[0, 0, 0]	n/a	FR1	1	R1306E
1888.883	1.629	1856188	WORD	n/a	n/a	HOSE	12	14	[0, 0, 0]	n/a	FR1	1	R1306E
1890.512	0.0	1857817	ENCODING_END	n/a	n/a	n/a	-999	14	[0, 0, 0]	n/a	FR1	1	R1306E
1890.512	0.0	1857817	DISTRACT_START	n/a	n/a	n/a	-999	14	[0, 0, 0]	n/a	FR1	1	R1306E
1890.512	0.001	1857817	WORD_OFF	n/a	n/a	HOSE	12	14	[0, 0, 0]	n/a	FR1	1	R1306E
1890.513	0.015	1857818	START	n/a	n/a	n/a	-999	14	[-999, -999, -999]	n/a	FR1	1	R1306E
1890.528	5.568	1857833	PROB	5.568	n/a	n/a	-999	14	[5, 3, 8]	16	FR1	1	R1306E
1896.096	5.301	1863400	PROB	5.301	n/a	n/a	-999	14	[6, 2, 7]	15	FR1	1	R1306E
1901.397	9.288	1868701	PROB	9.288	n/a	n/a	-999	14	[7, 7, 8]	22	FR1	1	R1306E
1910.685	0.014	1877989	STOP	n/a	n/a	n/a	-999	14	[-999, -999, -999]	n/a	FR1	1	R1306E
1910.699	1.376	1878003	DISTRACT_END	n/a	n/a	n/a	-999	14	[0, 0, 0]	n/a	FR1	1	R1306E
1912.075	1.024	1879379	RETRIEVAL_ORIENT_START	n/a	n/a	n/a	-999	14	[0, 0, 0]	n/a	FR1	1	R1306E
1913.099	0.0	1880403	RETRIEVAL_ORIENT_END	n/a	n/a	n/a	-999	14	[0, 0, 0]	n/a	FR1	1	R1306E
1913.099	0.392	1880403	REC_START	n/a	n/a	n/a	-999	14	[0, 0, 0]	n/a	FR1	1	R1306E
1913.491	1.527	1880795	REC_WORD	1.527	n/a	SNAKE	-999	14	[0, 0, 0]	n/a	FR1	1	R1306E
1915.018	1.468	1882322	REC_WORD	1.468	n/a	PANTS	9	14	[0, 0, 0]	n/a	FR1	1	R1306E
1916.486	27.123	1883790	REC_WORD	27.123	n/a	SLEEVE	1	14	[0, 0, 0]	n/a	FR1	1	R1306E
1943.609	0.0	1910912	TRIAL	n/a	n/a	n/a	-999	15	[0, 0, 0]	n/a	FR1	1	R1306E
1943.609	0.0	1910912	WAITING_START	n/a	n/a	n/a	-999	15	[0, 0, 0]	n/a	FR1	1	R1306E
1943.609	0.0	1910912	TRIAL_END	n/a	n/a	n/a	-999	14	[0, 0, 0]	n/a	FR1	1	R1306E
1943.609	0.0	1910912	TRIAL_START	n/a	n/a	n/a	-999	15	[0, 0, 0]	n/a	FR1	1	R1306E
1943.609	1.596	1910912	REC_END	n/a	n/a	n/a	-999	14	[0, 0, 0]	n/a	FR1	1	R1306E
1945.205	0.0	1912508	ORIENT_START	n/a	n/a	n/a	-999	15	[0, 0, 0]	n/a	FR1	1	R1306E
1945.205	0.0	1912508	WAITING_END	n/a	n/a	n/a	-999	15	[0, 0, 0]	n/a	FR1	1	R1306E
1945.205	0.0	1912508	COUNTDOWN_START	n/a	n/a	n/a	-999	15	[0, 0, 0]	n/a	FR1	1	R1306E
1945.205	11.502	1912508	COUNTDOWN_END	n/a	n/a	n/a	-999	15	[0, 0, 0]	n/a	FR1	1	R1306E
1956.707	0.0	1924009	ORIENT_END	n/a	n/a	n/a	-999	15	[0, 0, 0]	n/a	FR1	1	R1306E
1956.707	0.88	1924009	ENCODING_START	n/a	n/a	n/a	-999	15	[0, 0, 0]	n/a	FR1	1	R1306E
1957.587	1.637	1924889	WORD	n/a	n/a	FOX	1	15	[0, 0, 0]	n/a	FR1	1	R1306E
1959.224	0.971	1926526	WORD_OFF	n/a	n/a	FOX	1	15	[0, 0, 0]	n/a	FR1	1	R1306E
1960.195	1.629	1927497	WORD	n/a	n/a	FROG	2	15	[0, 0, 0]	n/a	FR1	1	R1306E
1961.824	1.029	1929126	WORD_OFF	n/a	n/a	FROG	2	15	[0, 0, 0]	n/a	FR1	1	R1306E
1962.853	1.622	1930155	WORD	n/a	n/a	SWAMP	3	15	[0, 0, 0]	n/a	FR1	1	R1306E
1964.475	0.922	1931777	WORD_OFF	n/a	n/a	SWAMP	3	15	[0, 0, 0]	n/a	FR1	1	R1306E
1965.397	1.628	1932699	WORD	n/a	n/a	PASTE	4	15	[0, 0, 0]	n/a	FR1	1	R1306E
1967.025	1.031	1934327	WORD_OFF	n/a	n/a	PASTE	4	15	[0, 0, 0]	n/a	FR1	1	R1306E
1968.056	1.636	1935358	WORD	n/a	n/a	AXE	5	15	[0, 0, 0]	n/a	FR1	1	R1306E
1969.692	0.814	1936994	WORD_OFF	n/a	n/a	AXE	5	15	[0, 0, 0]	n/a	FR1	1	R1306E
1970.506	1.637	1937808	WORD	n/a	n/a	SHIELD	6	15	[0, 0, 0]	n/a	FR1	1	R1306E
1972.143	1.108	1939445	WORD_OFF	n/a	n/a	SHIELD	6	15	[0, 0, 0]	n/a	FR1	1	R1306E
1973.251	1.627	1940553	WORD	n/a	n/a	LAKE	7	15	[0, 0, 0]	n/a	FR1	1	R1306E
1974.878	1.072	1942180	WORD_OFF	n/a	n/a	LAKE	7	15	[0, 0, 0]	n/a	FR1	1	R1306E
1975.95	1.627	1943252	WORD	n/a	n/a	SAIL	8	15	[0, 0, 0]	n/a	FR1	1	R1306E
1977.577	1.102	1944879	WORD_OFF	n/a	n/a	SAIL	8	15	[0, 0, 0]	n/a	FR1	1	R1306E
1978.679	1.632	1945981	WORD	n/a	n/a	BRIDGE	9	15	[0, 0, 0]	n/a	FR1	1	R1306E
1980.311	1.115	1947613	WORD_OFF	n/a	n/a	BRIDGE	9	15	[0, 0, 0]	n/a	FR1	1	R1306E
1981.426	1.635	1948728	WORD	n/a	n/a	KITE	10	15	[0, 0, 0]	n/a	FR1	1	R1306E
1983.061	0.943	1950363	WORD_OFF	n/a	n/a	KITE	10	15	[0, 0, 0]	n/a	FR1	1	R1306E
1984.004	1.624	1951305	WORD	n/a	n/a	FISH	11	15	[0, 0, 0]	n/a	FR1	1	R1306E
1985.628	0.784	1952929	WORD_OFF	n/a	n/a	FISH	11	15	[0, 0, 0]	n/a	FR1	1	R1306E
1986.412	1.634	1953713	WORD	n/a	n/a	FOG	12	15	[0, 0, 0]	n/a	FR1	1	R1306E
1988.046	0.0	1955347	DISTRACT_START	n/a	n/a	n/a	-999	15	[0, 0, 0]	n/a	FR1	1	R1306E
1988.046	0.0	1955347	WORD_OFF	n/a	n/a	FOG	12	15	[0, 0, 0]	n/a	FR1	1	R1306E
1988.046	0.0	1955347	ENCODING_END	n/a	n/a	n/a	-999	15	[0, 0, 0]	n/a	FR1	1	R1306E
1988.046	0.016	1955347	START	n/a	n/a	n/a	-999	15	[-999, -999, -999]	n/a	FR1	1	R1306E
1988.062	4.118	1955363	PROB	4.118	n/a	n/a	-999	15	[2, 1, 9]	12	FR1	1	R1306E
1992.18	5.25	1959481	PROB	5.25	n/a	n/a	-999	15	[5, 4, 9]	18	FR1	1	R1306E
1997.43	4.569	1964731	PROB	4.569	n/a	n/a	-999	15	[1, 6, 7]	14	FR1	1	R1306E
2001.999	11.637	1969300	PROB	11.637	n/a	n/a	-999	15	[8, 4, 9]	22	FR1	1	R1306E
2013.636	0.014	1980936	STOP	n/a	n/a	n/a	-999	15	[-999, -999, -999]	n/a	FR1	1	R1306E
2013.65	1.266	1980950	DISTRACT_END	n/a	n/a	n/a	-999	15	[0, 0, 0]	n/a	FR1	1	R1306E
2014.916	1.019	1982216	RETRIEVAL_ORIENT_START	n/a	n/a	n/a	-999	15	[0, 0, 0]	n/a	FR1	1	R1306E
2015.935	0.0	1983235	REC_START	n/a	n/a	n/a	-999	15	[0, 0, 0]	n/a	FR1	1	R1306E
2015.935	0.0	1983235	REC_WORD	0.0	n/a	FOG	12	15	[0, 0, 0]	n/a	FR1	1	R1306E
2015.935	3.295	1983235	RETRIEVAL_ORIENT_END	n/a	n/a	n/a	-999	15	[0, 0, 0]	n/a	FR1	1	R1306E
2019.23	5.331	1986530	REC_WORD	5.331	n/a	SWAMP	3	15	[0, 0, 0]	n/a	FR1	1	R1306E
2024.561	21.885	1991861	REC_WORD	21.885	n/a	SNAKE	-999	15	[0, 0, 0]	n/a	FR1	1	R1306E
2046.446	0.0	2013745	REC_END	n/a	n/a	n/a	-999	15	[0, 0, 0]	n/a	FR1	1	R1306E
2046.446	0.0	2013745	TRIAL_END	n/a	n/a	n/a	-999	15	[0, 0, 0]	n/a	FR1	1	R1306E
2046.446	0.0	2013745	TRIAL_START	n/a	n/a	n/a	-999	16	[0, 0, 0]	n/a	FR1	1	R1306E
2046.446	0.0	2013745	TRIAL	n/a	n/a	n/a	-999	16	[0, 0, 0]	n/a	FR1	1	R1306E
2046.446	1.943	2013745	WAITING_START	n/a	n/a	n/a	-999	16	[0, 0, 0]	n/a	FR1	1	R1306E
2048.389	0.0	2015688	COUNTDOWN_END	n/a	n/a	n/a	-999	16	[0, 0, 0]	n/a	FR1	1	R1306E
2048.389	0.0	2015688	ORIENT_START	n/a	n/a	n/a	-999	16	[0, 0, 0]	n/a	FR1	1	R1306E
2048.389	0.0	2015688	WAITING_END	n/a	n/a	n/a	-999	16	[0, 0, 0]	n/a	FR1	1	R1306E
2048.389	11.487	2015688	COUNTDOWN_START	n/a	n/a	n/a	-999	16	[0, 0, 0]	n/a	FR1	1	R1306E
2059.876	0.0	2027175	ENCODING_START	n/a	n/a	n/a	-999	16	[0, 0, 0]	n/a	FR1	1	R1306E
2059.876	0.93	2027175	ORIENT_END	n/a	n/a	n/a	-999	16	[0, 0, 0]	n/a	FR1	1	R1306E
2060.806	1.636	2028105	WORD	n/a	n/a	HOOF	1	16	[0, 0, 0]	n/a	FR1	1	R1306E
2062.442	0.926	2029741	WORD_OFF	n/a	n/a	HOOF	1	16	[0, 0, 0]	n/a	FR1	1	R1306E
2063.368	1.625	2030667	WORD	n/a	n/a	LAMP	2	16	[0, 0, 0]	n/a	FR1	1	R1306E
2064.993	0.83	2032292	WORD_OFF	n/a	n/a	LAMP	2	16	[0, 0, 0]	n/a	FR1	1	R1306E
2065.823	1.636	2033122	WORD	n/a	n/a	STREET	3	16	[0, 0, 0]	n/a	FR1	1	R1306E
2067.459	0.871	2034758	WORD_OFF	n/a	n/a	STREET	3	16	[0, 0, 0]	n/a	FR1	1	R1306E
2068.33	1.614	2035629	WORD	n/a	n/a	TANK	4	16	[0, 0, 0]	n/a	FR1	1	R1306E
2069.944	0.989	2037243	WORD_OFF	n/a	n/a	TANK	4	16	[0, 0, 0]	n/a	FR1	1	R1306E
2070.933	1.627	2038231	WORD	n/a	n/a	SMILE	5	16	[0, 0, 0]	n/a	FR1	1	R1306E
2072.56	1.12	2039858	WORD_OFF	n/a	n/a	SMILE	5	16	[0, 0, 0]	n/a	FR1	1	R1306E
2073.68	1.631	2040978	WORD	n/a	n/a	BOMB	6	16	[0, 0, 0]	n/a	FR1	1	R1306E
2075.311	0.855	2042609	WORD_OFF	n/a	n/a	BOMB	6	16	[0, 0, 0]	n/a	FR1	1	R1306E
2076.166	1.628	2043464	WORD	n/a	n/a	SUIT	7	16	[0, 0, 0]	n/a	FR1	1	R1306E
2077.794	0.904	2045092	WORD_OFF	n/a	n/a	SUIT	7	16	[0, 0, 0]	n/a	FR1	1	R1306E
2078.698	1.63	2045996	WORD	n/a	n/a	PLANT	8	16	[0, 0, 0]	n/a	FR1	1	R1306E
2080.328	0.997	2047626	WORD_OFF	n/a	n/a	PLANT	8	16	[0, 0, 0]	n/a	FR1	1	R1306E
2081.325	1.621	2048623	WORD	n/a	n/a	THUMB	9	16	[0, 0, 0]	n/a	FR1	1	R1306E
2082.946	0.941	2050244	WORD_OFF	n/a	n/a	THUMB	9	16	[0, 0, 0]	n/a	FR1	1	R1306E
2083.887	1.626	2051185	WORD	n/a	n/a	DUCK	10	16	[0, 0, 0]	n/a	FR1	1	R1306E
2085.513	0.872	2052811	WORD_OFF	n/a	n/a	DUCK	10	16	[0, 0, 0]	n/a	FR1	1	R1306E
2086.385	1.628	2053683	WORD	n/a	n/a	BRICK	11	16	[0, 0, 0]	n/a	FR1	1	R1306E
2088.013	1.029	2055311	WORD_OFF	n/a	n/a	BRICK	11	16	[0, 0, 0]	n/a	FR1	1	R1306E
2089.042	1.638	2056340	WORD	n/a	n/a	SKUNK	12	16	[0, 0, 0]	n/a	FR1	1	R1306E
2090.68	0.0	2057978	WORD_OFF	n/a	n/a	SKUNK	12	16	[0, 0, 0]	n/a	FR1	1	R1306E
2090.68	0.0	2057978	ENCODING_END	n/a	n/a	n/a	-999	16	[0, 0, 0]	n/a	FR1	1	R1306E
2090.68	0.001	2057978	DISTRACT_START	n/a	n/a	n/a	-999	16	[0, 0, 0]	n/a	FR1	1	R1306E
2090.681	0.016	2057979	START	n/a	n/a	n/a	-999	16	[-999, -999, -999]	n/a	FR1	1	R1306E
2090.697	4.501	2057995	PROB	4.501	n/a	n/a	-999	16	[6, 7, 3]	16	FR1	1	R1306E
2095.198	3.6	2062496	PROB	3.6	n/a	n/a	-999	16	[2, 6, 4]	12	FR1	1	R1306E
2098.798	9.002	2066096	PROB	9.002	n/a	n/a	-999	16	[6, 8, 6]	29	FR1	1	R1306E
2107.8	11.749	2075097	PROB	11.749	n/a	n/a	-999	16	[1, 7, 6]	2	FR1	1	R1306E
2119.549	0.02	2086846	STOP	n/a	n/a	n/a	-999	16	[-999, -999, -999]	n/a	FR1	1	R1306E
2119.569	1.271	2086866	DISTRACT_END	n/a	n/a	n/a	-999	16	[0, 0, 0]	n/a	FR1	1	R1306E
2120.84	1.029	2088137	RETRIEVAL_ORIENT_START	n/a	n/a	n/a	-999	16	[0, 0, 0]	n/a	FR1	1	R1306E
2121.869	0.0	2089166	REC_START	n/a	n/a	n/a	-999	16	[0, 0, 0]	n/a	FR1	1	R1306E
2121.869	0.619	2089166	RETRIEVAL_ORIENT_END	n/a	n/a	n/a	-999	16	[0, 0, 0]	n/a	FR1	1	R1306E
2122.488	0.965	2089785	REC_WORD	0.965	n/a	WOLF	-999	16	[0, 0, 0]	n/a	FR1	1	R1306E
2123.453	14.735	2090750	REC_WORD	14.735	n/a	LAMB	-999	16	[0, 0, 0]	n/a	FR1	1	R1306E
2138.188	14.195	2105484	REC_WORD	14.195	n/a	BOOK	-999	16	[0, 0, 0]	n/a	FR1	1	R1306E
2152.383	0.0	2119679	REC_END	n/a	n/a	n/a	-999	16	[0, 0, 0]	n/a	FR1	1	R1306E
2152.383	0.0	2119679	TRIAL_END	n/a	n/a	n/a	-999	16	[0, 0, 0]	n/a	FR1	1	R1306E
2152.383	0.0	2119679	TRIAL_START	n/a	n/a	n/a	-999	17	[0, 0, 0]	n/a	FR1	1	R1306E
2152.383	0.0	2119679	TRIAL	n/a	n/a	n/a	-999	17	[0, 0, 0]	n/a	FR1	1	R1306E
2152.383	2.025	2119679	WAITING_START	n/a	n/a	n/a	-999	17	[0, 0, 0]	n/a	FR1	1	R1306E
2154.408	0.0	2121704	WAITING_END	n/a	n/a	n/a	-999	17	[0, 0, 0]	n/a	FR1	1	R1306E
2154.408	0.0	2121704	COUNTDOWN_START	n/a	n/a	n/a	-999	17	[0, 0, 0]	n/a	FR1	1	R1306E
2154.408	0.0	2121704	COUNTDOWN_END	n/a	n/a	n/a	-999	17	[0, 0, 0]	n/a	FR1	1	R1306E
2154.408	11.486	2121704	ORIENT_START	n/a	n/a	n/a	-999	17	[0, 0, 0]	n/a	FR1	1	R1306E
2165.894	0.0	2133189	ENCODING_START	n/a	n/a	n/a	-999	17	[0, 0, 0]	n/a	FR1	1	R1306E
2165.894	0.951	2133189	ORIENT_END	n/a	n/a	n/a	-999	17	[0, 0, 0]	n/a	FR1	1	R1306E
2166.845	1.632	2134140	WORD	n/a	n/a	FLOOR	1	17	[0, 0, 0]	n/a	FR1	1	R1306E
2168.477	0.997	2135772	WORD_OFF	n/a	n/a	FLOOR	1	17	[0, 0, 0]	n/a	FR1	1	R1306E
2169.474	1.637	2136769	WORD	n/a	n/a	FACE	2	17	[0, 0, 0]	n/a	FR1	1	R1306E
2171.111	1.003	2138406	WORD_OFF	n/a	n/a	FACE	2	17	[0, 0, 0]	n/a	FR1	1	R1306E
2172.114	1.631	2139409	WORD	n/a	n/a	MAZE	3	17	[0, 0, 0]	n/a	FR1	1	R1306E
2173.745	0.885	2141040	WORD_OFF	n/a	n/a	MAZE	3	17	[0, 0, 0]	n/a	FR1	1	R1306E
2174.63	1.632	2141925	WORD	n/a	n/a	PURSE	4	17	[0, 0, 0]	n/a	FR1	1	R1306E
2176.262	1.028	2143557	WORD_OFF	n/a	n/a	PURSE	4	17	[0, 0, 0]	n/a	FR1	1	R1306E
2177.29	1.623	2144585	WORD	n/a	n/a	PALM	5	17	[0, 0, 0]	n/a	FR1	1	R1306E
2178.913	1.005	2146208	WORD_OFF	n/a	n/a	PALM	5	17	[0, 0, 0]	n/a	FR1	1	R1306E
2179.918	1.628	2147213	WORD	n/a	n/a	ANT	6	17	[0, 0, 0]	n/a	FR1	1	R1306E
2181.546	0.809	2148841	WORD_OFF	n/a	n/a	ANT	6	17	[0, 0, 0]	n/a	FR1	1	R1306E
2182.355	1.626	2149650	WORD	n/a	n/a	BED	7	17	[0, 0, 0]	n/a	FR1	1	R1306E
2183.981	1.119	2151276	WORD_OFF	n/a	n/a	BED	7	17	[0, 0, 0]	n/a	FR1	1	R1306E
2185.1	1.63	2152395	WORD	n/a	n/a	SPOON	8	17	[0, 0, 0]	n/a	FR1	1	R1306E
2186.73	0.989	2154025	WORD_OFF	n/a	n/a	SPOON	8	17	[0, 0, 0]	n/a	FR1	1	R1306E
2187.719	1.628	2155013	WORD	n/a	n/a	HORN	9	17	[0, 0, 0]	n/a	FR1	1	R1306E
2189.347	0.847	2156641	WORD_OFF	n/a	n/a	HORN	9	17	[0, 0, 0]	n/a	FR1	1	R1306E
2190.194	1.637	2157488	WORD	n/a	n/a	SLUSH	10	17	[0, 0, 0]	n/a	FR1	1	R1306E
2191.831	0.754	2159125	WORD_OFF	n/a	n/a	SLUSH	10	17	[0, 0, 0]	n/a	FR1	1	R1306E
2192.585	1.63	2159879	WORD	n/a	n/a	CASH	11	17	[0, 0, 0]	n/a	FR1	1	R1306E
2194.215	0.866	2161509	WORD_OFF	n/a	n/a	CASH	11	17	[0, 0, 0]	n/a	FR1	1	R1306E
2195.081	1.634	2162375	WORD	n/a	n/a	LAMB	12	17	[0, 0, 0]	n/a	FR1	1	R1306E
2196.715	0.0	2164009	WORD_OFF	n/a	n/a	LAMB	12	17	[0, 0, 0]	n/a	FR1	1	R1306E
2196.715	0.0	2164009	ENCODING_END	n/a	n/a	n/a	-999	17	[0, 0, 0]	n/a	FR1	1	R1306E
2196.715	0.001	2164009	DISTRACT_START	n/a	n/a	n/a	-999	17	[0, 0, 0]	n/a	FR1	1	R1306E
2196.716	0.016	2164010	START	n/a	n/a	n/a	-999	17	[-999, -999, -999]	n/a	FR1	1	R1306E
2196.732	5.118	2164026	PROB	5.118	n/a	n/a	-999	17	[2, 5, 4]	11	FR1	1	R1306E
2201.85	4.234	2169144	PROB	4.234	n/a	n/a	-999	17	[9, 1, 5]	15	FR1	1	R1306E
2206.084	5.184	2173378	PROB	5.184	n/a	n/a	-999	17	[9, 4, 5]	18	FR1	1	R1306E
2211.268	3.767	2178562	PROB	3.767	n/a	n/a	-999	17	[1, 2, 4]	7	FR1	1	R1306E
2215.035	3.825	2182329	PROB	3.825	n/a	n/a	-999	17	[2, 5, 6]	12	FR1	1	R1306E
2218.86	0.009	2186153	STOP	n/a	n/a	n/a	-999	17	[-999, -999, -999]	n/a	FR1	1	R1306E
2218.869	1.23	2186162	DISTRACT_END	n/a	n/a	n/a	-999	17	[0, 0, 0]	n/a	FR1	1	R1306E
2220.099	1.021	2187392	RETRIEVAL_ORIENT_START	n/a	n/a	n/a	-999	17	[0, 0, 0]	n/a	FR1	1	R1306E
2221.12	0.0	2188413	RETRIEVAL_ORIENT_END	n/a	n/a	n/a	-999	17	[0, 0, 0]	n/a	FR1	1	R1306E
2221.12	2.169	2188413	REC_START	n/a	n/a	n/a	-999	17	[0, 0, 0]	n/a	FR1	1	R1306E
2223.289	1.872	2190582	REC_WORD	1.872	n/a	ROOF	-999	17	[0, 0, 0]	n/a	FR1	1	R1306E
2225.161	1.906	2192454	REC_WORD	1.906	n/a	ROOF	-999	17	[0, 0, 0]	n/a	FR1	1	R1306E
2227.067	2.405	2194360	REC_WORD	2.405	n/a	FLOOR	1	17	[0, 0, 0]	n/a	FR1	1	R1306E
2229.472	1.787	2196765	REC_WORD	1.787	n/a	ANT	6	17	[0, 0, 0]	n/a	FR1	1	R1306E
2231.259	20.372	2198552	REC_WORD	20.372	n/a	BED	7	17	[0, 0, 0]	n/a	FR1	1	R1306E
2251.631	0.0	2218923	TRIAL_END	n/a	n/a	n/a	-999	17	[0, 0, 0]	n/a	FR1	1	R1306E
2251.631	0.0	2218923	WAITING_START	n/a	n/a	n/a	-999	18	[0, 0, 0]	n/a	FR1	1	R1306E
2251.631	0.0	2218923	REC_END	n/a	n/a	n/a	-999	17	[0, 0, 0]	n/a	FR1	1	R1306E
2251.631	0.0	2218923	TRIAL_START	n/a	n/a	n/a	-999	18	[0, 0, 0]	n/a	FR1	1	R1306E
2251.631	1.427	2218923	TRIAL	n/a	n/a	n/a	-999	18	[0, 0, 0]	n/a	FR1	1	R1306E
2253.058	0.0	2220350	WAITING_END	n/a	n/a	n/a	-999	18	[0, 0, 0]	n/a	FR1	1	R1306E
2253.058	0.0	2220350	COUNTDOWN_START	n/a	n/a	n/a	-999	18	[0, 0, 0]	n/a	FR1	1	R1306E
2253.058	0.0	2220350	COUNTDOWN_END	n/a	n/a	n/a	-999	18	[0, 0, 0]	n/a	FR1	1	R1306E
2253.058	11.502	2220350	ORIENT_START	n/a	n/a	n/a	-999	18	[0, 0, 0]	n/a	FR1	1	R1306E
2264.56	0.0	2231852	ORIENT_END	n/a	n/a	n/a	-999	18	[0, 0, 0]	n/a	FR1	1	R1306E
2264.56	1.021	2231852	ENCODING_START	n/a	n/a	n/a	-999	18	[0, 0, 0]	n/a	FR1	1	R1306E
2265.581	1.63	2232873	WORD	n/a	n/a	BAT	1	18	[0, 0, 0]	n/a	FR1	1	R1306E
2267.211	0.831	2234503	WORD_OFF	n/a	n/a	BAT	1	18	[0, 0, 0]	n/a	FR1	1	R1306E
2268.042	1.636	2235334	WORD	n/a	n/a	CAKE	2	18	[0, 0, 0]	n/a	FR1	1	R1306E
2269.678	0.933	2236970	WORD_OFF	n/a	n/a	CAKE	2	18	[0, 0, 0]	n/a	FR1	1	R1306E
2270.611	1.634	2237903	WORD	n/a	n/a	HAWK	3	18	[0, 0, 0]	n/a	FR1	1	R1306E
2272.245	1.05	2239537	WORD_OFF	n/a	n/a	HAWK	3	18	[0, 0, 0]	n/a	FR1	1	R1306E
2273.295	1.635	2240587	WORD	n/a	n/a	GUARD	4	18	[0, 0, 0]	n/a	FR1	1	R1306E
2274.93	1.127	2242221	WORD_OFF	n/a	n/a	GUARD	4	18	[0, 0, 0]	n/a	FR1	1	R1306E
2276.057	1.622	2243348	WORD	n/a	n/a	ROPE	5	18	[0, 0, 0]	n/a	FR1	1	R1306E
2277.679	0.936	2244970	WORD_OFF	n/a	n/a	ROPE	5	18	[0, 0, 0]	n/a	FR1	1	R1306E
2278.615	1.632	2245906	WORD	n/a	n/a	VEST	6	18	[0, 0, 0]	n/a	FR1	1	R1306E
2280.247	0.84	2247538	WORD_OFF	n/a	n/a	VEST	6	18	[0, 0, 0]	n/a	FR1	1	R1306E
2281.087	1.627	2248378	WORD	n/a	n/a	PIPE	7	18	[0, 0, 0]	n/a	FR1	1	R1306E
2282.714	0.937	2250005	WORD_OFF	n/a	n/a	PIPE	7	18	[0, 0, 0]	n/a	FR1	1	R1306E
2283.651	1.63	2250942	WORD	n/a	n/a	FORT	8	18	[0, 0, 0]	n/a	FR1	1	R1306E
2285.281	1.064	2252572	WORD_OFF	n/a	n/a	FORT	8	18	[0, 0, 0]	n/a	FR1	1	R1306E
2286.345	1.621	2253636	WORD	n/a	n/a	CAGE	9	18	[0, 0, 0]	n/a	FR1	1	R1306E
2287.966	0.821	2255257	WORD_OFF	n/a	n/a	CAGE	9	18	[0, 0, 0]	n/a	FR1	1	R1306E
2288.787	1.628	2256078	WORD	n/a	n/a	CHAIR	10	18	[0, 0, 0]	n/a	FR1	1	R1306E
2290.415	0.856	2257706	WORD_OFF	n/a	n/a	CHAIR	10	18	[0, 0, 0]	n/a	FR1	1	R1306E
2291.271	1.629	2258562	WORD	n/a	n/a	TOOTH	11	18	[0, 0, 0]	n/a	FR1	1	R1306E
2292.9	0.973	2260191	WORD_OFF	n/a	n/a	TOOTH	11	18	[0, 0, 0]	n/a	FR1	1	R1306E
2293.873	1.626	2261164	WORD	n/a	n/a	CUBE	12	18	[0, 0, 0]	n/a	FR1	1	R1306E
2295.499	0.0	2262790	DISTRACT_START	n/a	n/a	n/a	-999	18	[0, 0, 0]	n/a	FR1	1	R1306E
2295.499	0.0	2262790	WORD_OFF	n/a	n/a	CUBE	12	18	[0, 0, 0]	n/a	FR1	1	R1306E
2295.499	0.001	2262790	ENCODING_END	n/a	n/a	n/a	-999	18	[0, 0, 0]	n/a	FR1	1	R1306E
2295.5	0.016	2262791	START	n/a	n/a	n/a	-999	18	[-999, -999, -999]	n/a	FR1	1	R1306E
2295.516	4.567	2262807	PROB	4.567	n/a	n/a	-999	18	[5, 7, 5]	17	FR1	1	R1306E
2300.083	6.135	2267374	PROB	6.135	n/a	n/a	-999	18	[5, 7, 9]	22	FR1	1	R1306E
2306.218	5.317	2273508	PROB	5.317	n/a	n/a	-999	18	[1, 9, 8]	18	FR1	1	R1306E
2311.535	3.973	2278825	PROB	3.973	n/a	n/a	-999	18	[1, 3, 8]	12	FR1	1	R1306E
2315.508	0.011	2282798	STOP	n/a	n/a	n/a	-999	18	[-999, -999, -999]	n/a	FR1	1	R1306E
2315.519	1.267	2282809	DISTRACT_END	n/a	n/a	n/a	-999	18	[0, 0, 0]	n/a	FR1	1	R1306E
2316.786	1.034	2284076	RETRIEVAL_ORIENT_START	n/a	n/a	n/a	-999	18	[0, 0, 0]	n/a	FR1	1	R1306E
2317.82	0.0	2285110	RETRIEVAL_ORIENT_END	n/a	n/a	n/a	-999	18	[0, 0, 0]	n/a	FR1	1	R1306E
2317.82	0.662	2285110	REC_START	n/a	n/a	n/a	-999	18	[0, 0, 0]	n/a	FR1	1	R1306E
2318.482	29.849	2285772	REC_WORD	29.849	n/a	BAT	1	18	[0, 0, 0]	n/a	FR1	1	R1306E
2348.331	0.0	2315620	REC_END	n/a	n/a	n/a	-999	18	[0, 0, 0]	n/a	FR1	1	R1306E
2348.331	0.0	2315620	TRIAL_END	n/a	n/a	n/a	-999	18	[0, 0, 0]	n/a	FR1	1	R1306E
2348.331	0.0	2315620	TRIAL_START	n/a	n/a	n/a	-999	19	[0, 0, 0]	n/a	FR1	1	R1306E
2348.331	0.0	2315620	TRIAL	n/a	n/a	n/a	-999	19	[0, 0, 0]	n/a	FR1	1	R1306E
2348.331	1.311	2315620	WAITING_START	n/a	n/a	n/a	-999	19	[0, 0, 0]	n/a	FR1	1	R1306E
2349.642	0.0	2316931	ORIENT_START	n/a	n/a	n/a	-999	19	[0, 0, 0]	n/a	FR1	1	R1306E
2349.642	0.0	2316931	COUNTDOWN_END	n/a	n/a	n/a	-999	19	[0, 0, 0]	n/a	FR1	1	R1306E
2349.642	0.0	2316931	WAITING_END	n/a	n/a	n/a	-999	19	[0, 0, 0]	n/a	FR1	1	R1306E
2349.642	11.519	2316931	COUNTDOWN_START	n/a	n/a	n/a	-999	19	[0, 0, 0]	n/a	FR1	1	R1306E
2361.161	0.0	2328450	ORIENT_END	n/a	n/a	n/a	-999	19	[0, 0, 0]	n/a	FR1	1	R1306E
2361.161	0.913	2328450	ENCODING_START	n/a	n/a	n/a	-999	19	[0, 0, 0]	n/a	FR1	1	R1306E
2362.074	1.62	2329362	WORD	n/a	n/a	ROSE	1	19	[0, 0, 0]	n/a	FR1	1	R1306E
2363.694	1.01	2330982	WORD_OFF	n/a	n/a	ROSE	1	19	[0, 0, 0]	n/a	FR1	1	R1306E
2364.704	1.624	2331992	WORD	n/a	n/a	SHIRT	2	19	[0, 0, 0]	n/a	FR1	1	R1306E
2366.328	1.036	2333616	WORD_OFF	n/a	n/a	SHIRT	2	19	[0, 0, 0]	n/a	FR1	1	R1306E
2367.364	1.632	2334652	WORD	n/a	n/a	CAT	3	19	[0, 0, 0]	n/a	FR1	1	R1306E
2368.996	0.844	2336284	WORD_OFF	n/a	n/a	CAT	3	19	[0, 0, 0]	n/a	FR1	1	R1306E
2369.84	1.623	2337128	WORD	n/a	n/a	BARN	4	19	[0, 0, 0]	n/a	FR1	1	R1306E
2371.463	1.091	2338751	WORD_OFF	n/a	n/a	BARN	4	19	[0, 0, 0]	n/a	FR1	1	R1306E
2372.554	1.626	2339842	WORD	n/a	n/a	LEG	5	19	[0, 0, 0]	n/a	FR1	1	R1306E
2374.18	0.987	2341468	WORD_OFF	n/a	n/a	LEG	5	19	[0, 0, 0]	n/a	FR1	1	R1306E
2375.167	1.63	2342455	WORD	n/a	n/a	MAP	6	19	[0, 0, 0]	n/a	FR1	1	R1306E
2376.797	0.97	2344085	WORD_OFF	n/a	n/a	MAP	6	19	[0, 0, 0]	n/a	FR1	1	R1306E
2377.767	1.63	2345055	WORD	n/a	n/a	PEN	7	19	[0, 0, 0]	n/a	FR1	1	R1306E
2379.397	1.057	2346685	WORD_OFF	n/a	n/a	PEN	7	19	[0, 0, 0]	n/a	FR1	1	R1306E
2380.454	1.627	2347742	WORD	n/a	n/a	JET	8	19	[0, 0, 0]	n/a	FR1	1	R1306E
2382.081	1.079	2349369	WORD_OFF	n/a	n/a	JET	8	19	[0, 0, 0]	n/a	FR1	1	R1306E
2383.16	1.622	2350448	WORD	n/a	n/a	BEAN	9	19	[0, 0, 0]	n/a	FR1	1	R1306E
2384.782	1.025	2352070	WORD_OFF	n/a	n/a	BEAN	9	19	[0, 0, 0]	n/a	FR1	1	R1306E
2385.807	1.625	2353095	WORD	n/a	n/a	SNOW	10	19	[0, 0, 0]	n/a	FR1	1	R1306E
2387.432	0.846	2354720	WORD_OFF	n/a	n/a	SNOW	10	19	[0, 0, 0]	n/a	FR1	1	R1306E
2388.278	1.622	2355566	WORD	n/a	n/a	MAT	11	19	[0, 0, 0]	n/a	FR1	1	R1306E
2389.9	0.984	2357188	WORD_OFF	n/a	n/a	MAT	11	19	[0, 0, 0]	n/a	FR1	1	R1306E
2390.884	1.632	2358171	WORD	n/a	n/a	FORK	12	19	[0, 0, 0]	n/a	FR1	1	R1306E
2392.516	0.0	2359803	DISTRACT_START	n/a	n/a	n/a	-999	19	[0, 0, 0]	n/a	FR1	1	R1306E
2392.516	0.0	2359803	WORD_OFF	n/a	n/a	FORK	12	19	[0, 0, 0]	n/a	FR1	1	R1306E
2392.516	0.001	2359803	ENCODING_END	n/a	n/a	n/a	-999	19	[0, 0, 0]	n/a	FR1	1	R1306E
2392.517	0.016	2359804	START	n/a	n/a	n/a	-999	19	[-999, -999, -999]	n/a	FR1	1	R1306E
2392.533	6.051	2359820	PROB	6.051	n/a	n/a	-999	19	[6, 2, 8]	16	FR1	1	R1306E
2398.584	3.6	2365871	PROB	3.6	n/a	n/a	-999	19	[6, 1, 4]	11	FR1	1	R1306E
2402.184	4.468	2369471	PROB	4.468	n/a	n/a	-999	19	[3, 6, 3]	12	FR1	1	R1306E
2406.652	5.893	2373939	PROB	5.893	n/a	n/a	-999	19	[3, 6, 8]	19	FR1	1	R1306E
2412.545	0.008	2379832	STOP	n/a	n/a	n/a	-999	19	[-999, -999, -999]	n/a	FR1	1	R1306E
2412.553	1.08	2379840	DISTRACT_END	n/a	n/a	n/a	-999	19	[0, 0, 0]	n/a	FR1	1	R1306E
2413.633	1.02	2380920	RETRIEVAL_ORIENT_START	n/a	n/a	n/a	-999	19	[0, 0, 0]	n/a	FR1	1	R1306E
2414.653	0.0	2381940	RETRIEVAL_ORIENT_END	n/a	n/a	n/a	-999	19	[0, 0, 0]	n/a	FR1	1	R1306E
2414.653	0.0	2381940	REC_START	n/a	n/a	n/a	-999	19	[0, 0, 0]	n/a	FR1	1	R1306E
2414.653	4.409	2381940	REC_WORD_VV	4.409	n/a	<>	-999	19	[0, 0, 0]	n/a	FR1	1	R1306E
2419.062	3.75	2386349	REC_WORD	3.75	n/a	GLOBE	-999	19	[0, 0, 0]	n/a	FR1	1	R1306E
2422.812	1.615	2390098	REC_WORD	1.615	n/a	SNAKE	-999	19	[0, 0, 0]	n/a	FR1	1	R1306E
2424.427	20.737	2391713	REC_WORD	20.737	n/a	FORK	12	19	[0, 0, 0]	n/a	FR1	1	R1306E
2445.164	0.0	2412450	REC_END	n/a	n/a	n/a	-999	19	[0, 0, 0]	n/a	FR1	1	R1306E
2445.164	0.0	2412450	TRIAL_END	n/a	n/a	n/a	-999	19	[0, 0, 0]	n/a	FR1	1	R1306E
2445.164	0.0	2412450	TRIAL_START	n/a	n/a	n/a	-999	20	[0, 0, 0]	n/a	FR1	1	R1306E
2445.164	0.0	2412450	TRIAL	n/a	n/a	n/a	-999	20	[0, 0, 0]	n/a	FR1	1	R1306E
2445.164	1.228	2412450	WAITING_START	n/a	n/a	n/a	-999	20	[0, 0, 0]	n/a	FR1	1	R1306E
2446.392	0.0	2413678	ORIENT_START	n/a	n/a	n/a	-999	20	[0, 0, 0]	n/a	FR1	1	R1306E
2446.392	0.0	2413678	COUNTDOWN_START	n/a	n/a	n/a	-999	20	[0, 0, 0]	n/a	FR1	1	R1306E
2446.392	0.0	2413678	WAITING_END	n/a	n/a	n/a	-999	20	[0, 0, 0]	n/a	FR1	1	R1306E
2446.392	11.469	2413678	COUNTDOWN_END	n/a	n/a	n/a	-999	20	[0, 0, 0]	n/a	FR1	1	R1306E
2457.861	0.0	2425146	ENCODING_START	n/a	n/a	n/a	-999	20	[0, 0, 0]	n/a	FR1	1	R1306E
2457.861	0.884	2425146	ORIENT_END	n/a	n/a	n/a	-999	20	[0, 0, 0]	n/a	FR1	1	R1306E
2458.745	1.633	2426030	WORD	n/a	n/a	WEB	1	20	[0, 0, 0]	n/a	FR1	1	R1306E
2460.378	0.893	2427663	WORD_OFF	n/a	n/a	WEB	1	20	[0, 0, 0]	n/a	FR1	1	R1306E
2461.271	1.625	2428556	WORD	n/a	n/a	CLOWN	2	20	[0, 0, 0]	n/a	FR1	1	R1306E
2462.896	0.977	2430181	WORD_OFF	n/a	n/a	CLOWN	2	20	[0, 0, 0]	n/a	FR1	1	R1306E
2463.873	1.623	2431158	WORD	n/a	n/a	SPRING	3	20	[0, 0, 0]	n/a	FR1	1	R1306E
2465.496	1.094	2432781	WORD_OFF	n/a	n/a	SPRING	3	20	[0, 0, 0]	n/a	FR1	1	R1306E
2466.59	1.623	2433875	WORD	n/a	n/a	SIGN	4	20	[0, 0, 0]	n/a	FR1	1	R1306E
2468.213	1.025	2435498	WORD_OFF	n/a	n/a	SIGN	4	20	[0, 0, 0]	n/a	FR1	1	R1306E
2469.238	1.625	2436523	WORD	n/a	n/a	SPONGE	5	20	[0, 0, 0]	n/a	FR1	1	R1306E
2470.863	0.959	2438148	WORD_OFF	n/a	n/a	SPONGE	5	20	[0, 0, 0]	n/a	FR1	1	R1306E
2471.822	1.625	2439107	WORD	n/a	n/a	BEAK	6	20	[0, 0, 0]	n/a	FR1	1	R1306E
2473.447	0.97	2440732	WORD_OFF	n/a	n/a	BEAK	6	20	[0, 0, 0]	n/a	FR1	1	R1306E
2474.417	1.631	2441702	WORD	n/a	n/a	MOUSE	7	20	[0, 0, 0]	n/a	FR1	1	R1306E
2476.048	0.808	2443333	WORD_OFF	n/a	n/a	MOUSE	7	20	[0, 0, 0]	n/a	FR1	1	R1306E
2476.856	1.625	2444141	WORD	n/a	n/a	TEA	8	20	[0, 0, 0]	n/a	FR1	1	R1306E
2478.481	0.99	2445765	WORD_OFF	n/a	n/a	TEA	8	20	[0, 0, 0]	n/a	FR1	1	R1306E
2479.471	1.627	2446755	WORD	n/a	n/a	HAND	9	20	[0, 0, 0]	n/a	FR1	1	R1306E
2481.098	1.035	2448382	WORD_OFF	n/a	n/a	HAND	9	20	[0, 0, 0]	n/a	FR1	1	R1306E
2482.133	1.633	2449417	WORD	n/a	n/a	ROOM	10	20	[0, 0, 0]	n/a	FR1	1	R1306E
2483.766	0.888	2451050	WORD_OFF	n/a	n/a	ROOM	10	20	[0, 0, 0]	n/a	FR1	1	R1306E
2484.654	1.629	2451938	WORD	n/a	n/a	GLOVE	11	20	[0, 0, 0]	n/a	FR1	1	R1306E
2486.283	0.819	2453567	WORD_OFF	n/a	n/a	GLOVE	11	20	[0, 0, 0]	n/a	FR1	1	R1306E
2487.102	1.631	2454386	WORD	n/a	n/a	SINK	12	20	[0, 0, 0]	n/a	FR1	1	R1306E
2488.733	0.0	2456017	WORD_OFF	n/a	n/a	SINK	12	20	[0, 0, 0]	n/a	FR1	1	R1306E
2488.733	0.0	2456017	ENCODING_END	n/a	n/a	n/a	-999	20	[0, 0, 0]	n/a	FR1	1	R1306E
2488.733	0.001	2456017	DISTRACT_START	n/a	n/a	n/a	-999	20	[0, 0, 0]	n/a	FR1	1	R1306E
2488.734	0.016	2456018	START	n/a	n/a	n/a	-999	20	[-999, -999, -999]	n/a	FR1	1	R1306E
2488.75	4.384	2456034	PROB	4.384	n/a	n/a	-999	20	[2, 7, 7]	16	FR1	1	R1306E
2493.134	5.117	2460418	PROB	5.117	n/a	n/a	-999	20	[9, 4, 6]	19	FR1	1	R1306E
2498.251	7.352	2465535	PROB	7.352	n/a	n/a	-999	20	[3, 7, 8]	20	FR1	1	R1306E
2505.603	4.504	2472887	PROB	4.504	n/a	n/a	-999	20	[1, 3, 8]	12	FR1	1	R1306E
2510.107	0.013	2477390	STOP	n/a	n/a	n/a	-999	20	[-999, -999, -999]	n/a	FR1	1	R1306E
2510.12	1.186	2477403	DISTRACT_END	n/a	n/a	n/a	-999	20	[0, 0, 0]	n/a	FR1	1	R1306E
2511.306	1.031	2478589	RETRIEVAL_ORIENT_START	n/a	n/a	n/a	-999	20	[0, 0, 0]	n/a	FR1	1	R1306E
2512.337	0.0	2479620	REC_START	n/a	n/a	n/a	-999	20	[0, 0, 0]	n/a	FR1	1	R1306E
2512.337	29.994	2479620	RETRIEVAL_ORIENT_END	n/a	n/a	n/a	-999	20	[0, 0, 0]	n/a	FR1	1	R1306E
2542.331	0.518	2509613	REC_WORD_VV	0.518	n/a	<>	-999	20	[0, 0, 0]	n/a	FR1	1	R1306E
2542.849	0.0	2510131	TRIAL_END	n/a	n/a	n/a	-999	20	[0, 0, 0]	n/a	FR1	1	R1306E
2542.849	0.0	2510131	TRIAL_START	n/a	n/a	n/a	-999	21	[0, 0, 0]	n/a	FR1	1	R1306E
2542.849	0.0	2510131	TRIAL	n/a	n/a	n/a	-999	21	[0, 0, 0]	n/a	FR1	1	R1306E
2542.849	0.0	2510131	WAITING_START	n/a	n/a	n/a	-999	21	[0, 0, 0]	n/a	FR1	1	R1306E
2542.849	2.444	2510131	REC_END	n/a	n/a	n/a	-999	20	[0, 0, 0]	n/a	FR1	1	R1306E
2545.293	0.0	2512575	WAITING_END	n/a	n/a	n/a	-999	21	[0, 0, 0]	n/a	FR1	1	R1306E
2545.293	0.0	2512575	COUNTDOWN_START	n/a	n/a	n/a	-999	21	[0, 0, 0]	n/a	FR1	1	R1306E
2545.293	0.0	2512575	COUNTDOWN_END	n/a	n/a	n/a	-999	21	[0, 0, 0]	n/a	FR1	1	R1306E
2545.293	11.485	2512575	ORIENT_START	n/a	n/a	n/a	-999	21	[0, 0, 0]	n/a	FR1	1	R1306E
2556.778	0.0	2524060	ORIENT_END	n/a	n/a	n/a	-999	21	[0, 0, 0]	n/a	FR1	1	R1306E
2556.778	0.763	2524060	ENCODING_START	n/a	n/a	n/a	-999	21	[0, 0, 0]	n/a	FR1	1	R1306E
2557.541	1.638	2524823	WORD	n/a	n/a	TRASH	1	21	[0, 0, 0]	n/a	FR1	1	R1306E
2559.179	1.148	2526461	WORD_OFF	n/a	n/a	TRASH	1	21	[0, 0, 0]	n/a	FR1	1	R1306E
2560.327	1.637	2527609	WORD	n/a	n/a	BADGE	2	21	[0, 0, 0]	n/a	FR1	1	R1306E
2561.964	0.821	2529246	WORD_OFF	n/a	n/a	BADGE	2	21	[0, 0, 0]	n/a	FR1	1	R1306E
2562.785	1.628	2530067	WORD	n/a	n/a	FLAG	3	21	[0, 0, 0]	n/a	FR1	1	R1306E
2564.413	1.044	2531695	WORD_OFF	n/a	n/a	FLAG	3	21	[0, 0, 0]	n/a	FR1	1	R1306E
2565.457	1.623	2532739	WORD	n/a	n/a	MOUTH	4	21	[0, 0, 0]	n/a	FR1	1	R1306E
2567.08	0.904	2534361	WORD_OFF	n/a	n/a	MOUTH	4	21	[0, 0, 0]	n/a	FR1	1	R1306E
2567.984	1.63	2535265	WORD	n/a	n/a	PARK	5	21	[0, 0, 0]	n/a	FR1	1	R1306E
2569.614	0.777	2536895	WORD_OFF	n/a	n/a	PARK	5	21	[0, 0, 0]	n/a	FR1	1	R1306E
2570.391	1.623	2537672	WORD	n/a	n/a	CLOUD	6	21	[0, 0, 0]	n/a	FR1	1	R1306E
2572.014	1.085	2539295	WORD_OFF	n/a	n/a	CLOUD	6	21	[0, 0, 0]	n/a	FR1	1	R1306E
2573.099	1.632	2540380	WORD	n/a	n/a	DOLL	7	21	[0, 0, 0]	n/a	FR1	1	R1306E
2574.731	0.772	2542012	WORD_OFF	n/a	n/a	DOLL	7	21	[0, 0, 0]	n/a	FR1	1	R1306E
2575.503	1.629	2542784	WORD	n/a	n/a	CROW	8	21	[0, 0, 0]	n/a	FR1	1	R1306E
2577.132	1.097	2544413	WORD_OFF	n/a	n/a	CROW	8	21	[0, 0, 0]	n/a	FR1	1	R1306E
2578.229	1.637	2545510	WORD	n/a	n/a	FRUIT	9	21	[0, 0, 0]	n/a	FR1	1	R1306E
2579.866	0.781	2547147	WORD_OFF	n/a	n/a	FRUIT	9	21	[0, 0, 0]	n/a	FR1	1	R1306E
2580.647	1.636	2547928	WORD	n/a	n/a	POND	10	21	[0, 0, 0]	n/a	FR1	1	R1306E
2582.283	1.063	2549564	WORD_OFF	n/a	n/a	POND	10	21	[0, 0, 0]	n/a	FR1	1	R1306E
2583.346	1.605	2550627	WORD	n/a	n/a	RAT	11	21	[0, 0, 0]	n/a	FR1	1	R1306E
2584.951	0.909	2552232	WORD_OFF	n/a	n/a	RAT	11	21	[0, 0, 0]	n/a	FR1	1	R1306E
2585.86	1.624	2553141	WORD	n/a	n/a	EAR	12	21	[0, 0, 0]	n/a	FR1	1	R1306E
2587.484	0.0	2554765	WORD_OFF	n/a	n/a	EAR	12	21	[0, 0, 0]	n/a	FR1	1	R1306E
2587.484	0.0	2554765	ENCODING_END	n/a	n/a	n/a	-999	21	[0, 0, 0]	n/a	FR1	1	R1306E
2587.484	0.001	2554765	DISTRACT_START	n/a	n/a	n/a	-999	21	[0, 0, 0]	n/a	FR1	1	R1306E
2587.485	0.015	2554766	START	n/a	n/a	n/a	-999	21	[-999, -999, -999]	n/a	FR1	1	R1306E
2587.5	6.402	2554781	PROB	6.402	n/a	n/a	-999	21	[1, 6, 7]	14	FR1	1	R1306E
2593.902	4.75	2561183	PROB	4.75	n/a	n/a	-999	21	[3, 1, 9]	13	FR1	1	R1306E
2598.652	11.803	2565932	PROB	11.803	n/a	n/a	-999	21	[6, 9, 7]	23	FR1	1	R1306E
2610.455	0.016	2577735	STOP	n/a	n/a	n/a	-999	21	[-999, -999, -999]	n/a	FR1	1	R1306E
2610.471	1.153	2577751	DISTRACT_END	n/a	n/a	n/a	-999	21	[0, 0, 0]	n/a	FR1	1	R1306E
2611.624	1.031	2578904	RETRIEVAL_ORIENT_START	n/a	n/a	n/a	-999	21	[0, 0, 0]	n/a	FR1	1	R1306E
2612.655	0.0	2579935	RETRIEVAL_ORIENT_END	n/a	n/a	n/a	-999	21	[0, 0, 0]	n/a	FR1	1	R1306E
2612.655	0.183	2579935	REC_START	n/a	n/a	n/a	-999	21	[0, 0, 0]	n/a	FR1	1	R1306E
2612.838	1.533	2580118	REC_WORD	1.533	n/a	CLOWN	-999	21	[0, 0, 0]	n/a	FR1	1	R1306E
2614.371	1.123	2581651	REC_WORD_VV	1.123	n/a	<>	-999	21	[0, 0, 0]	n/a	FR1	1	R1306E
2615.494	1.593	2582774	REC_WORD	1.593	n/a	MOUTH	4	21	[0, 0, 0]	n/a	FR1	1	R1306E
2617.087	26.079	2584367	REC_WORD	26.079	n/a	BAG	-999	21	[0, 0, 0]	n/a	FR1	1	R1306E
2643.166	0.0	2610445	WAITING_START	n/a	n/a	n/a	-999	22	[0, 0, 0]	n/a	FR1	1	R1306E
2643.166	0.0	2610445	TRIAL	n/a	n/a	n/a	-999	22	[0, 0, 0]	n/a	FR1	1	R1306E
2643.166	0.0	2610445	TRIAL_END	n/a	n/a	n/a	-999	21	[0, 0, 0]	n/a	FR1	1	R1306E
2643.166	0.0	2610445	TRIAL_START	n/a	n/a	n/a	-999	22	[0, 0, 0]	n/a	FR1	1	R1306E
2643.166	2.194	2610445	REC_END	n/a	n/a	n/a	-999	21	[0, 0, 0]	n/a	FR1	1	R1306E
2645.36	0.0	2612639	WAITING_END	n/a	n/a	n/a	-999	22	[0, 0, 0]	n/a	FR1	1	R1306E
2645.36	0.0	2612639	COUNTDOWN_START	n/a	n/a	n/a	-999	22	[0, 0, 0]	n/a	FR1	1	R1306E
2645.36	0.0	2612639	COUNTDOWN_END	n/a	n/a	n/a	-999	22	[0, 0, 0]	n/a	FR1	1	R1306E
2645.36	11.554	2612639	ORIENT_START	n/a	n/a	n/a	-999	22	[0, 0, 0]	n/a	FR1	1	R1306E
2656.914	0.0	2624192	ORIENT_END	n/a	n/a	n/a	-999	22	[0, 0, 0]	n/a	FR1	1	R1306E
2656.914	0.959	2624192	ENCODING_START	n/a	n/a	n/a	-999	22	[0, 0, 0]	n/a	FR1	1	R1306E
2657.873	1.623	2625151	WORD	n/a	n/a	GRAPE	1	22	[0, 0, 0]	n/a	FR1	1	R1306E
2659.496	1.122	2626774	WORD_OFF	n/a	n/a	GRAPE	1	22	[0, 0, 0]	n/a	FR1	1	R1306E
2660.618	1.629	2627896	WORD	n/a	n/a	BIRD	2	22	[0, 0, 0]	n/a	FR1	1	R1306E
2662.247	1.035	2629525	WORD_OFF	n/a	n/a	BIRD	2	22	[0, 0, 0]	n/a	FR1	1	R1306E
2663.282	1.633	2630560	WORD	n/a	n/a	HOUSE	3	22	[0, 0, 0]	n/a	FR1	1	R1306E
2664.915	0.84	2632193	WORD_OFF	n/a	n/a	HOUSE	3	22	[0, 0, 0]	n/a	FR1	1	R1306E
2665.755	1.626	2633033	WORD	n/a	n/a	SKY	4	22	[0, 0, 0]	n/a	FR1	1	R1306E
2667.381	1.036	2634659	WORD_OFF	n/a	n/a	SKY	4	22	[0, 0, 0]	n/a	FR1	1	R1306E
2668.417	1.631	2635695	WORD	n/a	n/a	CORN	5	22	[0, 0, 0]	n/a	FR1	1	R1306E
2670.048	0.868	2637326	WORD_OFF	n/a	n/a	CORN	5	22	[0, 0, 0]	n/a	FR1	1	R1306E
2670.916	1.633	2638194	WORD	n/a	n/a	LAWN	6	22	[0, 0, 0]	n/a	FR1	1	R1306E
2672.549	0.862	2639827	WORD_OFF	n/a	n/a	LAWN	6	22	[0, 0, 0]	n/a	FR1	1	R1306E
2673.411	1.621	2640689	WORD	n/a	n/a	BENCH	7	22	[0, 0, 0]	n/a	FR1	1	R1306E
2675.032	0.803	2642310	WORD_OFF	n/a	n/a	BENCH	7	22	[0, 0, 0]	n/a	FR1	1	R1306E
2675.835	1.631	2643113	WORD	n/a	n/a	PIE	8	22	[0, 0, 0]	n/a	FR1	1	R1306E
2677.466	1.051	2644744	WORD_OFF	n/a	n/a	PIE	8	22	[0, 0, 0]	n/a	FR1	1	R1306E
2678.517	1.633	2645795	WORD	n/a	n/a	SOCK	9	22	[0, 0, 0]	n/a	FR1	1	R1306E
2680.15	1.052	2647428	WORD_OFF	n/a	n/a	SOCK	9	22	[0, 0, 0]	n/a	FR1	1	R1306E
2681.202	1.632	2648480	WORD	n/a	n/a	BOWL	10	22	[0, 0, 0]	n/a	FR1	1	R1306E
2682.834	0.809	2650111	WORD_OFF	n/a	n/a	BOWL	10	22	[0, 0, 0]	n/a	FR1	1	R1306E
2683.643	1.624	2650920	WORD	n/a	n/a	ROAD	11	22	[0, 0, 0]	n/a	FR1	1	R1306E
2685.267	1.105	2652544	WORD_OFF	n/a	n/a	ROAD	11	22	[0, 0, 0]	n/a	FR1	1	R1306E
2686.372	1.629	2653649	WORD	n/a	n/a	CHEEK	12	22	[0, 0, 0]	n/a	FR1	1	R1306E
2688.001	0.0	2655278	WORD_OFF	n/a	n/a	CHEEK	12	22	[0, 0, 0]	n/a	FR1	1	R1306E
2688.001	0.0	2655278	ENCODING_END	n/a	n/a	n/a	-999	22	[0, 0, 0]	n/a	FR1	1	R1306E
2688.001	0.001	2655278	DISTRACT_START	n/a	n/a	n/a	-999	22	[0, 0, 0]	n/a	FR1	1	R1306E
2688.002	0.016	2655279	START	n/a	n/a	n/a	-999	22	[-999, -999, -999]	n/a	FR1	1	R1306E
2688.018	5.218	2655295	PROB	5.218	n/a	n/a	-999	22	[2, 5, 4]	11	FR1	1	R1306E
2693.236	4.084	2660513	PROB	4.084	n/a	n/a	-999	22	[3, 6, 1]	10	FR1	1	R1306E
2697.32	5.117	2664597	PROB	5.117	n/a	n/a	-999	22	[1, 7, 9]	17	FR1	1	R1306E
2702.437	4.901	2669714	PROB	4.901	n/a	n/a	-999	22	[1, 6, 9]	16	FR1	1	R1306E
2707.338	5.143	2674615	PROB	5.143	n/a	n/a	-999	22	[1, 7, 2]	10	FR1	1	R1306E
2712.481	0.008	2679757	STOP	n/a	n/a	n/a	-999	22	[-999, -999, -999]	n/a	FR1	1	R1306E
2712.489	1.054	2679765	DISTRACT_END	n/a	n/a	n/a	-999	22	[0, 0, 0]	n/a	FR1	1	R1306E
2713.543	1.03	2680819	RETRIEVAL_ORIENT_START	n/a	n/a	n/a	-999	22	[0, 0, 0]	n/a	FR1	1	R1306E
2714.573	0.0	2681849	RETRIEVAL_ORIENT_END	n/a	n/a	n/a	-999	22	[0, 0, 0]	n/a	FR1	1	R1306E
2714.573	0.187	2681849	REC_START	n/a	n/a	n/a	-999	22	[0, 0, 0]	n/a	FR1	1	R1306E
2714.76	30.324	2682036	REC_WORD	30.324	n/a	BIRD	2	22	[0, 0, 0]	n/a	FR1	1	R1306E
2745.084	0.0	2712359	REC_END	n/a	n/a	n/a	-999	22	[0, 0, 0]	n/a	FR1	1	R1306E
2745.084	0.0	2712359	TRIAL_END	n/a	n/a	n/a	-999	22	[0, 0, 0]	n/a	FR1	1	R1306E
2745.084	0.0	2712359	TRIAL_START	n/a	n/a	n/a	-999	23	[0, 0, 0]	n/a	FR1	1	R1306E
2745.084	0.0	2712359	TRIAL	n/a	n/a	n/a	-999	23	[0, 0, 0]	n/a	FR1	1	R1306E
