onset	duration	sample	trial_type	response_time	stim_file	item_name	serialpos	list	test	answer	experiment	session	subject
0.0	2251.23	657	INSTRUCT_START	n/a	n/a	n/a	-999	-999	[0, 0, 0]	n/a	FR1	1	R1350D
2251.23	3.167	2251771	INSTRUCT_END	n/a	n/a	n/a	-999	-999	[0, 0, 0]	n/a	FR1	1	R1350D
2254.397	10.28	2254938	MIC TEST_START	n/a	n/a	n/a	-999	-999	[0, 0, 0]	n/a	FR1	1	R1350D
2264.677	0.01	2265217	MIC TEST_END	n/a	n/a	n/a	-999	-999	[0, 0, 0]	n/a	FR1	1	R1350D
2264.687	0.001	2265227	TRIAL_START	n/a	n/a	n/a	-999	-1	[0, 0, 0]	n/a	FR1	1	R1350D
2264.688	0.0	2265228	TRIAL	n/a	n/a	n/a	-999	-1	[0, 0, 0]	n/a	FR1	1	R1350D
2264.688	2.396	2265228	WAITING_START	n/a	n/a	n/a	-999	-1	[0, 0, 0]	n/a	FR1	1	R1350D
2267.084	0.0	2267624	COUNTDOWN_START	n/a	n/a	n/a	-999	-1	[0, 0, 0]	n/a	FR1	1	R1350D
2267.084	10.43	2267624	WAITING_END	n/a	n/a	n/a	-999	-1	[0, 0, 0]	n/a	FR1	1	R1350D
2277.514	0.001	2278053	COUNTDOWN_END	n/a	n/a	n/a	-999	-1	[0, 0, 0]	n/a	FR1	1	R1350D
2277.515	1.253	2278054	ORIENT_START	n/a	n/a	n/a	-999	-1	[0, 0, 0]	n/a	FR1	1	R1350D
2278.768	0.001	2279307	ORIENT_END	n/a	n/a	n/a	-999	-1	[0, 0, 0]	n/a	FR1	1	R1350D
2278.769	1.053	2279308	ENCODING_START	n/a	n/a	n/a	-999	-1	[0, 0, 0]	n/a	FR1	1	R1350D
2279.822	1.63	2280361	WORD	n/a	n/a	WAGON	1	-1	[0, 0, 0]	n/a	FR1	1	R1350D
2281.452	1.044	2281991	WORD_OFF	n/a	n/a	WAGON	1	-1	[0, 0, 0]	n/a	FR1	1	R1350D
2282.496	1.608	2283035	WORD	n/a	n/a	COTTON	2	-1	[0, 0, 0]	n/a	FR1	1	R1350D
2284.104	0.751	2284643	WORD_OFF	n/a	n/a	COTTON	2	-1	[0, 0, 0]	n/a	FR1	1	R1350D
2284.855	1.631	2285394	WORD	n/a	n/a	FLOOD	3	-1	[0, 0, 0]	n/a	FR1	1	R1350D
2286.486	0.931	2287025	WORD_OFF	n/a	n/a	FLOOD	3	-1	[0, 0, 0]	n/a	FR1	1	R1350D
2287.417	1.621	2287956	WORD	n/a	n/a	BEAM	4	-1	[0, 0, 0]	n/a	FR1	1	R1350D
2289.038	1.146	2289577	WORD_OFF	n/a	n/a	BEAM	4	-1	[0, 0, 0]	n/a	FR1	1	R1350D
2290.184	1.62	2290723	WORD	n/a	n/a	BABY	5	-1	[0, 0, 0]	n/a	FR1	1	R1350D
2291.804	1.051	2292343	WORD_OFF	n/a	n/a	BABY	5	-1	[0, 0, 0]	n/a	FR1	1	R1350D
2292.855	1.633	2293394	WORD	n/a	n/a	TONGUE	6	-1	[0, 0, 0]	n/a	FR1	1	R1350D
2294.488	1.083	2295027	WORD_OFF	n/a	n/a	TONGUE	6	-1	[0, 0, 0]	n/a	FR1	1	R1350D
2295.571	1.635	2296109	WORD	n/a	n/a	CAMEL	7	-1	[0, 0, 0]	n/a	FR1	1	R1350D
2297.206	1.096	2297744	WORD_OFF	n/a	n/a	CAMEL	7	-1	[0, 0, 0]	n/a	FR1	1	R1350D
2298.302	1.637	2298840	WORD	n/a	n/a	CHEST	8	-1	[0, 0, 0]	n/a	FR1	1	R1350D
2299.939	0.779	2300477	WORD_OFF	n/a	n/a	CHEST	8	-1	[0, 0, 0]	n/a	FR1	1	R1350D
2300.718	1.621	2301256	WORD	n/a	n/a	WATCH	9	-1	[0, 0, 0]	n/a	FR1	1	R1350D
2302.339	0.887	2302877	WORD_OFF	n/a	n/a	WATCH	9	-1	[0, 0, 0]	n/a	FR1	1	R1350D
2303.226	1.63	2303764	WORD	n/a	n/a	RING	10	-1	[0, 0, 0]	n/a	FR1	1	R1350D
2304.856	1.097	2305394	WORD_OFF	n/a	n/a	RING	10	-1	[0, 0, 0]	n/a	FR1	1	R1350D
2305.953	1.621	2306491	WORD	n/a	n/a	RHINO	11	-1	[0, 0, 0]	n/a	FR1	1	R1350D
2307.574	0.909	2308112	WORD_OFF	n/a	n/a	RHINO	11	-1	[0, 0, 0]	n/a	FR1	1	R1350D
2308.483	1.625	2309021	WORD	n/a	n/a	IMAGE	12	-1	[0, 0, 0]	n/a	FR1	1	R1350D
2310.108	0.001	2310646	WORD_OFF	n/a	n/a	IMAGE	12	-1	[0, 0, 0]	n/a	FR1	1	R1350D
2310.109	0.0	2310647	DISTRACT_START	n/a	n/a	n/a	-999	-1	[0, 0, 0]	n/a	FR1	1	R1350D
2310.109	0.0	2310647	ENCODING_END	n/a	n/a	n/a	-999	-1	[0, 0, 0]	n/a	FR1	1	R1350D
2310.109	0.016	2310647	START	n/a	n/a	n/a	-999	-1	[-999, -999, -999]	n/a	FR1	1	R1350D
2310.125	3.683	2310663	PROB	3.683	n/a	n/a	-999	-1	[1, 3, 3]	7	FR1	1	R1350D
2313.808	5.318	2314346	PROB	5.318	n/a	n/a	-999	-1	[5, 7, 8]	20	FR1	1	R1350D
2319.126	3.683	2319663	PROB	3.683	n/a	n/a	-999	-1	[3, 8, 7]	18	FR1	1	R1350D
2322.809	2.884	2323346	PROB	2.884	n/a	n/a	-999	-1	[4, 1, 6]	11	FR1	1	R1350D
2325.693	4.084	2326230	PROB	4.084	n/a	n/a	-999	-1	[7, 6, 3]	16	FR1	1	R1350D
2329.777	3.265	2330314	PROB	3.265	n/a	n/a	-999	-1	[5, 6, 7]	18	FR1	1	R1350D
2333.042	0.02	2333579	STOP	n/a	n/a	n/a	-999	-1	[-999, -999, -999]	n/a	FR1	1	R1350D
2333.062	0.514	2333599	DISTRACT_END	n/a	n/a	n/a	-999	-1	[0, 0, 0]	n/a	FR1	1	R1350D
2333.576	1.587	2334112	RETRIEVAL_ORIENT_START	n/a	n/a	n/a	-999	-1	[0, 0, 0]	n/a	FR1	1	R1350D
2335.163	0.0	2335699	RETRIEVAL_ORIENT_END	n/a	n/a	n/a	-999	-1	[0, 0, 0]	n/a	FR1	1	R1350D
2335.163	0.0	2335699	REC_START	n/a	n/a	n/a	-999	-1	[0, 0, 0]	n/a	FR1	1	R1350D
2335.163	30.012	2335699	REC_WORD_VV	30.012	n/a	<>	-999	-1	[0, 0, 0]	n/a	FR1	1	R1350D
2365.175	0.001	2365710	REC_END	n/a	n/a	n/a	-999	-1	[0, 0, 0]	n/a	FR1	1	R1350D
2365.176	5.193	2365711	PRACTICE_POST_INSTRUCT_START	n/a	n/a	n/a	-999	-1	[0, 0, 0]	n/a	FR1	1	R1350D
2370.369	0.0	2370904	TRIAL_END	n/a	n/a	n/a	-999	-1	[0, 0, 0]	n/a	FR1	1	R1350D
2370.369	0.017	2370904	PRACTICE_POST_INSTRUCT_END	n/a	n/a	n/a	-999	-1	[0, 0, 0]	n/a	FR1	1	R1350D
2370.386	0.0	2370921	TRIAL_START	n/a	n/a	n/a	-999	1	[0, 0, 0]	n/a	FR1	1	R1350D
2370.386	0.0	2370921	TRIAL	n/a	n/a	n/a	-999	1	[0, 0, 0]	n/a	FR1	1	R1350D
2370.386	7.984	2370921	WAITING_START	n/a	n/a	n/a	-999	1	[0, 0, 0]	n/a	FR1	1	R1350D
2378.37	0.0	2378904	WAITING_END	n/a	n/a	n/a	-999	1	[0, 0, 0]	n/a	FR1	1	R1350D
2378.37	10.428	2378904	COUNTDOWN_START	n/a	n/a	n/a	-999	1	[0, 0, 0]	n/a	FR1	1	R1350D
2388.798	0.0	2389332	COUNTDOWN_END	n/a	n/a	n/a	-999	1	[0, 0, 0]	n/a	FR1	1	R1350D
2388.798	1.124	2389332	ORIENT_START	n/a	n/a	n/a	-999	1	[0, 0, 0]	n/a	FR1	1	R1350D
2389.922	0.0	2390456	ORIENT_END	n/a	n/a	n/a	-999	1	[0, 0, 0]	n/a	FR1	1	R1350D
2389.922	0.878	2390456	ENCODING_START	n/a	n/a	n/a	-999	1	[0, 0, 0]	n/a	FR1	1	R1350D
2390.8	1.622	2391334	WORD	n/a	n/a	SHRIMP	1	1	[0, 0, 0]	n/a	FR1	1	R1350D
2392.422	0.975	2392955	WORD_OFF	n/a	n/a	SHRIMP	1	1	[0, 0, 0]	n/a	FR1	1	R1350D
2393.397	1.627	2393930	WORD	n/a	n/a	CLOTH	2	1	[0, 0, 0]	n/a	FR1	1	R1350D
2395.024	0.945	2395557	WORD_OFF	n/a	n/a	CLOTH	2	1	[0, 0, 0]	n/a	FR1	1	R1350D
2395.969	1.621	2396502	WORD	n/a	n/a	SEAT	3	1	[0, 0, 0]	n/a	FR1	1	R1350D
2397.59	0.865	2398123	WORD_OFF	n/a	n/a	SEAT	3	1	[0, 0, 0]	n/a	FR1	1	R1350D
2398.455	1.636	2398988	WORD	n/a	n/a	CAT	4	1	[0, 0, 0]	n/a	FR1	1	R1350D
2400.091	0.798	2400624	WORD_OFF	n/a	n/a	CAT	4	1	[0, 0, 0]	n/a	FR1	1	R1350D
2400.889	1.635	2401422	WORD	n/a	n/a	FOG	5	1	[0, 0, 0]	n/a	FR1	1	R1350D
2402.524	0.873	2403057	WORD_OFF	n/a	n/a	FOG	5	1	[0, 0, 0]	n/a	FR1	1	R1350D
2403.397	1.612	2403930	WORD	n/a	n/a	DOG	6	1	[0, 0, 0]	n/a	FR1	1	R1350D
2405.009	0.905	2405542	WORD_OFF	n/a	n/a	DOG	6	1	[0, 0, 0]	n/a	FR1	1	R1350D
2405.914	1.628	2406447	WORD	n/a	n/a	CORN	7	1	[0, 0, 0]	n/a	FR1	1	R1350D
2407.542	1.056	2408075	WORD_OFF	n/a	n/a	CORN	7	1	[0, 0, 0]	n/a	FR1	1	R1350D
2408.598	1.628	2409131	WORD	n/a	n/a	DIME	8	1	[0, 0, 0]	n/a	FR1	1	R1350D
2410.226	1.105	2410759	WORD_OFF	n/a	n/a	DIME	8	1	[0, 0, 0]	n/a	FR1	1	R1350D
2411.331	1.629	2411863	WORD	n/a	n/a	NOSE	9	1	[0, 0, 0]	n/a	FR1	1	R1350D
2412.96	0.94	2413492	WORD_OFF	n/a	n/a	NOSE	9	1	[0, 0, 0]	n/a	FR1	1	R1350D
2413.9	1.627	2414432	WORD	n/a	n/a	BLUSH	10	1	[0, 0, 0]	n/a	FR1	1	R1350D
2415.527	0.952	2416059	WORD_OFF	n/a	n/a	BLUSH	10	1	[0, 0, 0]	n/a	FR1	1	R1350D
2416.479	1.616	2417011	WORD	n/a	n/a	PEARL	11	1	[0, 0, 0]	n/a	FR1	1	R1350D
2418.095	0.957	2418627	WORD_OFF	n/a	n/a	PEARL	11	1	[0, 0, 0]	n/a	FR1	1	R1350D
2419.052	1.626	2419584	WORD	n/a	n/a	SIGN	12	1	[0, 0, 0]	n/a	FR1	1	R1350D
2420.678	0.0	2421210	WORD_OFF	n/a	n/a	SIGN	12	1	[0, 0, 0]	n/a	FR1	1	R1350D
2420.678	0.0	2421210	ENCODING_END	n/a	n/a	n/a	-999	1	[0, 0, 0]	n/a	FR1	1	R1350D
2420.678	0.001	2421210	DISTRACT_START	n/a	n/a	n/a	-999	1	[0, 0, 0]	n/a	FR1	1	R1350D
2420.679	0.015	2421211	START	n/a	n/a	n/a	-999	1	[-999, -999, -999]	n/a	FR1	1	R1350D
2420.694	4.385	2421226	PROB	4.385	n/a	n/a	-999	1	[1, 6, 9]	16	FR1	1	R1350D
2425.079	3.017	2425611	PROB	3.017	n/a	n/a	-999	1	[4, 4, 1]	9	FR1	1	R1350D
2428.096	2.75	2428628	PROB	2.75	n/a	n/a	-999	1	[3, 7, 6]	16	FR1	1	R1350D
2430.846	2.85	2431377	PROB	2.85	n/a	n/a	-999	1	[3, 3, 6]	12	FR1	1	R1350D
2433.696	2.951	2434227	PROB	2.951	n/a	n/a	-999	1	[8, 9, 1]	18	FR1	1	R1350D
2436.647	2.7	2437178	PROB	2.7	n/a	n/a	-999	1	[2, 9, 1]	12	FR1	1	R1350D
2439.347	3.736	2439878	PROB	3.736	n/a	n/a	-999	1	[5, 2, 9]	16	FR1	1	R1350D
2443.083	0.016	2443614	STOP	n/a	n/a	n/a	-999	1	[-999, -999, -999]	n/a	FR1	1	R1350D
2443.099	0.637	2443630	DISTRACT_END	n/a	n/a	n/a	-999	1	[0, 0, 0]	n/a	FR1	1	R1350D
2443.736	1.596	2444267	RETRIEVAL_ORIENT_START	n/a	n/a	n/a	-999	1	[0, 0, 0]	n/a	FR1	1	R1350D
2445.332	0.0	2445863	REC_START	n/a	n/a	n/a	-999	1	[0, 0, 0]	n/a	FR1	1	R1350D
2445.332	2.22	2445863	RETRIEVAL_ORIENT_END	n/a	n/a	n/a	-999	1	[0, 0, 0]	n/a	FR1	1	R1350D
2447.552	1.514	2448083	REC_WORD	1.514	n/a	SHRIMP	1	1	[0, 0, 0]	n/a	FR1	1	R1350D
2449.066	1.971	2449597	REC_WORD	1.971	n/a	FOG	5	1	[0, 0, 0]	n/a	FR1	1	R1350D
2451.037	1.912	2451567	REC_WORD	1.912	n/a	CORN	7	1	[0, 0, 0]	n/a	FR1	1	R1350D
2452.949	15.915	2453479	REC_WORD	15.915	n/a	SEAT	3	1	[0, 0, 0]	n/a	FR1	1	R1350D
2468.864	0.462	2469393	REC_WORD	0.462	n/a	RHINO	-999	1	[0, 0, 0]	n/a	FR1	1	R1350D
2469.326	6.02	2469855	REC_WORD_VV	6.02	n/a	<>	-999	1	[0, 0, 0]	n/a	FR1	1	R1350D
2475.346	0.001	2475875	REC_END	n/a	n/a	n/a	-999	1	[0, 0, 0]	n/a	FR1	1	R1350D
2475.347	0.013	2475876	TRIAL_END	n/a	n/a	n/a	-999	1	[0, 0, 0]	n/a	FR1	1	R1350D
2475.36	0.0	2475889	WAITING_START	n/a	n/a	n/a	-999	2	[0, 0, 0]	n/a	FR1	1	R1350D
2475.36	0.0	2475889	TRIAL	n/a	n/a	n/a	-999	2	[0, 0, 0]	n/a	FR1	1	R1350D
2475.36	2.228	2475889	TRIAL_START	n/a	n/a	n/a	-999	2	[0, 0, 0]	n/a	FR1	1	R1350D
2477.588	0.0	2478117	WAITING_END	n/a	n/a	n/a	-999	2	[0, 0, 0]	n/a	FR1	1	R1350D
2477.588	10.43	2478117	COUNTDOWN_START	n/a	n/a	n/a	-999	2	[0, 0, 0]	n/a	FR1	1	R1350D
2488.018	0.0	2488546	COUNTDOWN_END	n/a	n/a	n/a	-999	2	[0, 0, 0]	n/a	FR1	1	R1350D
2488.018	1.239	2488546	ORIENT_START	n/a	n/a	n/a	-999	2	[0, 0, 0]	n/a	FR1	1	R1350D
2489.257	0.0	2489785	ORIENT_END	n/a	n/a	n/a	-999	2	[0, 0, 0]	n/a	FR1	1	R1350D
2489.257	1.113	2489785	ENCODING_START	n/a	n/a	n/a	-999	2	[0, 0, 0]	n/a	FR1	1	R1350D
2490.37	1.638	2490898	WORD	n/a	n/a	BOWL	1	2	[0, 0, 0]	n/a	FR1	1	R1350D
2492.008	1.049	2492536	WORD_OFF	n/a	n/a	BOWL	1	2	[0, 0, 0]	n/a	FR1	1	R1350D
2493.057	1.634	2493585	WORD	n/a	n/a	MULE	2	2	[0, 0, 0]	n/a	FR1	1	R1350D
2494.691	1.073	2495219	WORD_OFF	n/a	n/a	MULE	2	2	[0, 0, 0]	n/a	FR1	1	R1350D
2495.764	1.628	2496292	WORD	n/a	n/a	FORK	3	2	[0, 0, 0]	n/a	FR1	1	R1350D
2497.392	1.044	2497920	WORD_OFF	n/a	n/a	FORK	3	2	[0, 0, 0]	n/a	FR1	1	R1350D
2498.436	1.607	2498964	WORD	n/a	n/a	STAIR	4	2	[0, 0, 0]	n/a	FR1	1	R1350D
2500.043	1.119	2500571	WORD_OFF	n/a	n/a	STAIR	4	2	[0, 0, 0]	n/a	FR1	1	R1350D
2501.162	1.631	2501690	WORD	n/a	n/a	HORSE	5	2	[0, 0, 0]	n/a	FR1	1	R1350D
2502.793	1.051	2503321	WORD_OFF	n/a	n/a	HORSE	5	2	[0, 0, 0]	n/a	FR1	1	R1350D
2503.844	1.632	2504372	WORD	n/a	n/a	SCHOOL	6	2	[0, 0, 0]	n/a	FR1	1	R1350D
2505.476	1.098	2506004	WORD_OFF	n/a	n/a	SCHOOL	6	2	[0, 0, 0]	n/a	FR1	1	R1350D
2506.574	1.621	2507102	WORD	n/a	n/a	FLAG	7	2	[0, 0, 0]	n/a	FR1	1	R1350D
2508.195	1.112	2508722	WORD_OFF	n/a	n/a	FLAG	7	2	[0, 0, 0]	n/a	FR1	1	R1350D
2509.307	1.638	2509834	WORD	n/a	n/a	SHIELD	8	2	[0, 0, 0]	n/a	FR1	1	R1350D
2510.945	0.827	2511472	WORD_OFF	n/a	n/a	SHIELD	8	2	[0, 0, 0]	n/a	FR1	1	R1350D
2511.772	1.623	2512299	WORD	n/a	n/a	OAR	9	2	[0, 0, 0]	n/a	FR1	1	R1350D
2513.395	0.952	2513922	WORD_OFF	n/a	n/a	OAR	9	2	[0, 0, 0]	n/a	FR1	1	R1350D
2514.347	1.615	2514874	WORD	n/a	n/a	SOAP	10	2	[0, 0, 0]	n/a	FR1	1	R1350D
2515.962	0.998	2516489	WORD_OFF	n/a	n/a	SOAP	10	2	[0, 0, 0]	n/a	FR1	1	R1350D
2516.96	1.635	2517487	WORD	n/a	n/a	BROOM	11	2	[0, 0, 0]	n/a	FR1	1	R1350D
2518.595	1.044	2519122	WORD_OFF	n/a	n/a	BROOM	11	2	[0, 0, 0]	n/a	FR1	1	R1350D
2519.639	1.624	2520166	WORD	n/a	n/a	CUP	12	2	[0, 0, 0]	n/a	FR1	1	R1350D
2521.263	0.0	2521790	WORD_OFF	n/a	n/a	CUP	12	2	[0, 0, 0]	n/a	FR1	1	R1350D
2521.263	0.0	2521790	ENCODING_END	n/a	n/a	n/a	-999	2	[0, 0, 0]	n/a	FR1	1	R1350D
2521.263	0.0	2521790	DISTRACT_START	n/a	n/a	n/a	-999	2	[0, 0, 0]	n/a	FR1	1	R1350D
2521.263	0.016	2521790	START	n/a	n/a	n/a	-999	2	[-999, -999, -999]	n/a	FR1	1	R1350D
2521.279	4.551	2521806	PROB	4.551	n/a	n/a	-999	2	[3, 5, 8]	16	FR1	1	R1350D
2525.83	2.717	2526357	PROB	2.717	n/a	n/a	-999	2	[3, 6, 5]	14	FR1	1	R1350D
2528.547	3.217	2529073	PROB	3.217	n/a	n/a	-999	2	[5, 4, 4]	13	FR1	1	R1350D
2531.764	5.635	2532290	PROB	5.635	n/a	n/a	-999	2	[7, 6, 6]	19	FR1	1	R1350D
2537.399	3.1	2537925	PROB	3.1	n/a	n/a	-999	2	[8, 6, 2]	16	FR1	1	R1350D
2540.499	3.888	2541025	PROB	3.888	n/a	n/a	-999	2	[1, 5, 6]	12	FR1	1	R1350D
2544.387	0.013	2544913	STOP	n/a	n/a	n/a	-999	2	[-999, -999, -999]	n/a	FR1	1	R1350D
2544.4	0.536	2544926	DISTRACT_END	n/a	n/a	n/a	-999	2	[0, 0, 0]	n/a	FR1	1	R1350D
2544.936	1.714	2545462	RETRIEVAL_ORIENT_START	n/a	n/a	n/a	-999	2	[0, 0, 0]	n/a	FR1	1	R1350D
2546.65	0.001	2547175	RETRIEVAL_ORIENT_END	n/a	n/a	n/a	-999	2	[0, 0, 0]	n/a	FR1	1	R1350D
2546.651	2.885	2547176	REC_START	n/a	n/a	n/a	-999	2	[0, 0, 0]	n/a	FR1	1	R1350D
2549.536	1.853	2550061	REC_WORD	1.853	n/a	MULE	2	2	[0, 0, 0]	n/a	FR1	1	R1350D
2551.389	1.764	2551914	REC_WORD	1.764	n/a	BOWL	1	2	[0, 0, 0]	n/a	FR1	1	R1350D
2553.153	2.961	2553678	REC_WORD	2.961	n/a	STAIR	4	2	[0, 0, 0]	n/a	FR1	1	R1350D
2556.114	2.205	2556639	REC_WORD	2.205	n/a	HORSE	5	2	[0, 0, 0]	n/a	FR1	1	R1350D
2558.319	2.712	2558844	REC_WORD	2.712	n/a	SCHOOL	6	2	[0, 0, 0]	n/a	FR1	1	R1350D
2561.031	5.406	2561556	REC_WORD	5.406	n/a	FLAG	7	2	[0, 0, 0]	n/a	FR1	1	R1350D
2566.437	0.421	2566961	REC_WORD_VV	0.421	n/a	<>	-999	2	[0, 0, 0]	n/a	FR1	1	R1350D
2566.858	0.772	2567382	REC_WORD	0.772	n/a	BOWL	1	2	[0, 0, 0]	n/a	FR1	1	R1350D
2567.63	6.961	2568154	REC_WORD	6.961	n/a	BOWL	1	2	[0, 0, 0]	n/a	FR1	1	R1350D
2574.591	2.073	2575115	REC_WORD_VV	2.073	n/a	<>	-999	2	[0, 0, 0]	n/a	FR1	1	R1350D
2576.664	0.0	2577188	TRIAL_END	n/a	n/a	n/a	-999	2	[0, 0, 0]	n/a	FR1	1	R1350D
2576.664	0.016	2577188	REC_END	n/a	n/a	n/a	-999	2	[0, 0, 0]	n/a	FR1	1	R1350D
2576.68	0.001	2577204	TRIAL_START	n/a	n/a	n/a	-999	3	[0, 0, 0]	n/a	FR1	1	R1350D
2576.681	0.0	2577205	TRIAL	n/a	n/a	n/a	-999	3	[0, 0, 0]	n/a	FR1	1	R1350D
2576.681	2.042	2577205	WAITING_START	n/a	n/a	n/a	-999	3	[0, 0, 0]	n/a	FR1	1	R1350D
2578.723	0.001	2579247	WAITING_END	n/a	n/a	n/a	-999	3	[0, 0, 0]	n/a	FR1	1	R1350D
2578.724	10.428	2579248	COUNTDOWN_START	n/a	n/a	n/a	-999	3	[0, 0, 0]	n/a	FR1	1	R1350D
2589.152	0.0	2589675	COUNTDOWN_END	n/a	n/a	n/a	-999	3	[0, 0, 0]	n/a	FR1	1	R1350D
2589.152	1.256	2589675	ORIENT_START	n/a	n/a	n/a	-999	3	[0, 0, 0]	n/a	FR1	1	R1350D
2590.408	0.001	2590931	ORIENT_END	n/a	n/a	n/a	-999	3	[0, 0, 0]	n/a	FR1	1	R1350D
2590.409	1.051	2590932	ENCODING_START	n/a	n/a	n/a	-999	3	[0, 0, 0]	n/a	FR1	1	R1350D
2591.46	1.616	2591983	WORD	n/a	n/a	SKY	1	3	[0, 0, 0]	n/a	FR1	1	R1350D
2593.076	0.838	2593599	WORD_OFF	n/a	n/a	SKY	1	3	[0, 0, 0]	n/a	FR1	1	R1350D
2593.914	1.629	2594437	WORD	n/a	n/a	LAND	2	3	[0, 0, 0]	n/a	FR1	1	R1350D
2595.543	0.945	2596066	WORD_OFF	n/a	n/a	LAND	2	3	[0, 0, 0]	n/a	FR1	1	R1350D
2596.488	1.623	2597011	WORD	n/a	n/a	SEED	3	3	[0, 0, 0]	n/a	FR1	1	R1350D
2598.111	0.792	2598634	WORD_OFF	n/a	n/a	SEED	3	3	[0, 0, 0]	n/a	FR1	1	R1350D
2598.903	1.624	2599426	WORD	n/a	n/a	BRIDGE	4	3	[0, 0, 0]	n/a	FR1	1	R1350D
2600.527	1.073	2601050	WORD_OFF	n/a	n/a	BRIDGE	4	3	[0, 0, 0]	n/a	FR1	1	R1350D
2601.6	1.612	2602123	WORD	n/a	n/a	WEB	5	3	[0, 0, 0]	n/a	FR1	1	R1350D
2603.212	1.121	2603735	WORD_OFF	n/a	n/a	WEB	5	3	[0, 0, 0]	n/a	FR1	1	R1350D
2604.333	1.629	2604855	WORD	n/a	n/a	DOLL	6	3	[0, 0, 0]	n/a	FR1	1	R1350D
2605.962	1.035	2606484	WORD_OFF	n/a	n/a	DOLL	6	3	[0, 0, 0]	n/a	FR1	1	R1350D
2606.997	1.631	2607519	WORD	n/a	n/a	ROOF	7	3	[0, 0, 0]	n/a	FR1	1	R1350D
2608.628	0.819	2609150	WORD_OFF	n/a	n/a	ROOF	7	3	[0, 0, 0]	n/a	FR1	1	R1350D
2609.447	1.633	2609969	WORD	n/a	n/a	MOLE	8	3	[0, 0, 0]	n/a	FR1	1	R1350D
2611.08	0.755	2611602	WORD_OFF	n/a	n/a	MOLE	8	3	[0, 0, 0]	n/a	FR1	1	R1350D
2611.835	1.628	2612357	WORD	n/a	n/a	HORN	9	3	[0, 0, 0]	n/a	FR1	1	R1350D
2613.463	1.024	2613985	WORD_OFF	n/a	n/a	HORN	9	3	[0, 0, 0]	n/a	FR1	1	R1350D
2614.487	1.627	2615009	WORD	n/a	n/a	BRUSH	10	3	[0, 0, 0]	n/a	FR1	1	R1350D
2616.114	1.124	2616636	WORD_OFF	n/a	n/a	BRUSH	10	3	[0, 0, 0]	n/a	FR1	1	R1350D
2617.238	1.626	2617760	WORD	n/a	n/a	BREAD	11	3	[0, 0, 0]	n/a	FR1	1	R1350D
2618.864	1.093	2619386	WORD_OFF	n/a	n/a	BREAD	11	3	[0, 0, 0]	n/a	FR1	1	R1350D
2619.957	1.624	2620479	WORD	n/a	n/a	STREET	12	3	[0, 0, 0]	n/a	FR1	1	R1350D
2621.581	0.0	2622103	WORD_OFF	n/a	n/a	STREET	12	3	[0, 0, 0]	n/a	FR1	1	R1350D
2621.581	0.0	2622103	ENCODING_END	n/a	n/a	n/a	-999	3	[0, 0, 0]	n/a	FR1	1	R1350D
2621.581	0.001	2622103	DISTRACT_START	n/a	n/a	n/a	-999	3	[0, 0, 0]	n/a	FR1	1	R1350D
2621.582	0.015	2622104	START	n/a	n/a	n/a	-999	3	[-999, -999, -999]	n/a	FR1	1	R1350D
2621.597	3.618	2622119	PROB	3.618	n/a	n/a	-999	3	[1, 7, 2]	10	FR1	1	R1350D
2625.215	3.084	2625736	PROB	3.084	n/a	n/a	-999	3	[9, 3, 2]	14	FR1	1	R1350D
2628.299	3.534	2628820	PROB	3.534	n/a	n/a	-999	3	[8, 5, 4]	17	FR1	1	R1350D
2631.833	2.617	2632354	PROB	2.617	n/a	n/a	-999	3	[5, 8, 1]	14	FR1	1	R1350D
2634.45	2.651	2634971	PROB	2.651	n/a	n/a	-999	3	[1, 8, 9]	18	FR1	1	R1350D
2637.101	4.463	2637622	PROB	4.463	n/a	n/a	-999	3	[2, 6, 5]	13	FR1	1	R1350D
2641.564	0.02	2642085	STOP	n/a	n/a	n/a	-999	3	[-999, -999, -999]	n/a	FR1	1	R1350D
2641.584	0.598	2642105	DISTRACT_END	n/a	n/a	n/a	-999	3	[0, 0, 0]	n/a	FR1	1	R1350D
2642.182	1.586	2642703	RETRIEVAL_ORIENT_START	n/a	n/a	n/a	-999	3	[0, 0, 0]	n/a	FR1	1	R1350D
2643.768	0.001	2644288	RETRIEVAL_ORIENT_END	n/a	n/a	n/a	-999	3	[0, 0, 0]	n/a	FR1	1	R1350D
2643.769	2.43	2644289	REC_START	n/a	n/a	n/a	-999	3	[0, 0, 0]	n/a	FR1	1	R1350D
2646.199	0.309	2646719	REC_WORD_VV	0.309	n/a	<>	-999	3	[0, 0, 0]	n/a	FR1	1	R1350D
2646.508	1.472	2647028	REC_WORD	1.472	n/a	LAND	2	3	[0, 0, 0]	n/a	FR1	1	R1350D
2647.98	2.409	2648500	REC_WORD	2.409	n/a	SKY	1	3	[0, 0, 0]	n/a	FR1	1	R1350D
2650.389	1.89	2650909	REC_WORD	1.89	n/a	SEED	3	3	[0, 0, 0]	n/a	FR1	1	R1350D
2652.279	1.659	2652799	REC_WORD	1.659	n/a	BRIDGE	4	3	[0, 0, 0]	n/a	FR1	1	R1350D
2653.938	3.316	2654458	REC_WORD	3.316	n/a	WEB	5	3	[0, 0, 0]	n/a	FR1	1	R1350D
2657.254	13.147	2657774	REC_WORD	13.147	n/a	DOLL	6	3	[0, 0, 0]	n/a	FR1	1	R1350D
2670.401	3.38	2670920	REC_WORD_VV	3.38	n/a	<>	-999	3	[0, 0, 0]	n/a	FR1	1	R1350D
2673.781	0.0	2674300	TRIAL_END	n/a	n/a	n/a	-999	3	[0, 0, 0]	n/a	FR1	1	R1350D
2673.781	0.015	2674300	REC_END	n/a	n/a	n/a	-999	3	[0, 0, 0]	n/a	FR1	1	R1350D
2673.796	0.0	2674315	TRIAL_START	n/a	n/a	n/a	-999	4	[0, 0, 0]	n/a	FR1	1	R1350D
2673.796	0.0	2674315	TRIAL	n/a	n/a	n/a	-999	4	[0, 0, 0]	n/a	FR1	1	R1350D
2673.796	2.662	2674315	WAITING_START	n/a	n/a	n/a	-999	4	[0, 0, 0]	n/a	FR1	1	R1350D
2676.458	0.0	2676977	WAITING_END	n/a	n/a	n/a	-999	4	[0, 0, 0]	n/a	FR1	1	R1350D
2676.458	10.428	2676977	COUNTDOWN_START	n/a	n/a	n/a	-999	4	[0, 0, 0]	n/a	FR1	1	R1350D
2686.886	0.001	2687404	COUNTDOWN_END	n/a	n/a	n/a	-999	4	[0, 0, 0]	n/a	FR1	1	R1350D
2686.887	1.19	2687405	ORIENT_START	n/a	n/a	n/a	-999	4	[0, 0, 0]	n/a	FR1	1	R1350D
2688.077	0.001	2688595	ORIENT_END	n/a	n/a	n/a	-999	4	[0, 0, 0]	n/a	FR1	1	R1350D
2688.078	0.903	2688596	ENCODING_START	n/a	n/a	n/a	-999	4	[0, 0, 0]	n/a	FR1	1	R1350D
2688.981	1.629	2689499	WORD	n/a	n/a	SWAMP	1	4	[0, 0, 0]	n/a	FR1	1	R1350D
2690.61	0.97	2691128	WORD_OFF	n/a	n/a	SWAMP	1	4	[0, 0, 0]	n/a	FR1	1	R1350D
2691.58	1.615	2692098	WORD	n/a	n/a	STONE	2	4	[0, 0, 0]	n/a	FR1	1	R1350D
2693.195	1.048	2693713	WORD_OFF	n/a	n/a	STONE	2	4	[0, 0, 0]	n/a	FR1	1	R1350D
2694.243	1.635	2694761	WORD	n/a	n/a	SOCK	3	4	[0, 0, 0]	n/a	FR1	1	R1350D
2695.878	0.793	2696396	WORD_OFF	n/a	n/a	SOCK	3	4	[0, 0, 0]	n/a	FR1	1	R1350D
2696.671	1.624	2697189	WORD	n/a	n/a	CHAIR	4	4	[0, 0, 0]	n/a	FR1	1	R1350D
2698.295	0.809	2698813	WORD_OFF	n/a	n/a	CHAIR	4	4	[0, 0, 0]	n/a	FR1	1	R1350D
2699.104	1.625	2699622	WORD	n/a	n/a	FLOOR	5	4	[0, 0, 0]	n/a	FR1	1	R1350D
2700.729	0.756	2701246	WORD_OFF	n/a	n/a	FLOOR	5	4	[0, 0, 0]	n/a	FR1	1	R1350D
2701.485	1.612	2702002	WORD	n/a	n/a	MAT	6	4	[0, 0, 0]	n/a	FR1	1	R1350D
2703.097	0.771	2703614	WORD_OFF	n/a	n/a	MAT	6	4	[0, 0, 0]	n/a	FR1	1	R1350D
2703.868	1.628	2704385	WORD	n/a	n/a	PIG	7	4	[0, 0, 0]	n/a	FR1	1	R1350D
2705.496	0.994	2706013	WORD_OFF	n/a	n/a	PIG	7	4	[0, 0, 0]	n/a	FR1	1	R1350D
2706.49	1.624	2707007	WORD	n/a	n/a	COIN	8	4	[0, 0, 0]	n/a	FR1	1	R1350D
2708.114	1.054	2708631	WORD_OFF	n/a	n/a	COIN	8	4	[0, 0, 0]	n/a	FR1	1	R1350D
2709.168	1.629	2709685	WORD	n/a	n/a	STRAW	9	4	[0, 0, 0]	n/a	FR1	1	R1350D
2710.797	1.035	2711314	WORD_OFF	n/a	n/a	STRAW	9	4	[0, 0, 0]	n/a	FR1	1	R1350D
2711.832	1.632	2712349	WORD	n/a	n/a	TOE	10	4	[0, 0, 0]	n/a	FR1	1	R1350D
2713.464	1.092	2713981	WORD_OFF	n/a	n/a	TOE	10	4	[0, 0, 0]	n/a	FR1	1	R1350D
2714.556	1.627	2715073	WORD	n/a	n/a	PLATE	11	4	[0, 0, 0]	n/a	FR1	1	R1350D
2716.183	1.107	2716700	WORD_OFF	n/a	n/a	PLATE	11	4	[0, 0, 0]	n/a	FR1	1	R1350D
2717.29	1.625	2717807	WORD	n/a	n/a	GLASS	12	4	[0, 0, 0]	n/a	FR1	1	R1350D
2718.915	0.001	2719432	WORD_OFF	n/a	n/a	GLASS	12	4	[0, 0, 0]	n/a	FR1	1	R1350D
2718.916	0.0	2719433	ENCODING_END	n/a	n/a	n/a	-999	4	[0, 0, 0]	n/a	FR1	1	R1350D
2718.916	0.0	2719433	DISTRACT_START	n/a	n/a	n/a	-999	4	[0, 0, 0]	n/a	FR1	1	R1350D
2718.916	0.016	2719433	START	n/a	n/a	n/a	-999	4	[-999, -999, -999]	n/a	FR1	1	R1350D
2718.932	4.168	2719449	PROB	4.168	n/a	n/a	-999	4	[6, 3, 4]	13	FR1	1	R1350D
2723.1	4.233	2723616	PROB	4.233	n/a	n/a	-999	4	[2, 2, 1]	5	FR1	1	R1350D
2727.333	4.985	2727849	PROB	4.985	n/a	n/a	-999	4	[6, 9, 7]	22	FR1	1	R1350D
2732.318	2.784	2732834	PROB	2.784	n/a	n/a	-999	4	[1, 3, 3]	7	FR1	1	R1350D
2735.102	3.051	2735618	PROB	3.051	n/a	n/a	-999	4	[3, 4, 4]	11	FR1	1	R1350D
2738.153	3.158	2738669	PROB	3.158	n/a	n/a	-999	4	[7, 1, 5]	13	FR1	1	R1350D
2741.311	0.008	2741826	STOP	n/a	n/a	n/a	-999	4	[-999, -999, -999]	n/a	FR1	1	R1350D
2741.319	0.518	2741834	DISTRACT_END	n/a	n/a	n/a	-999	4	[0, 0, 0]	n/a	FR1	1	R1350D
2741.837	1.549	2742352	RETRIEVAL_ORIENT_START	n/a	n/a	n/a	-999	4	[0, 0, 0]	n/a	FR1	1	R1350D
2743.386	0.001	2743901	RETRIEVAL_ORIENT_END	n/a	n/a	n/a	-999	4	[0, 0, 0]	n/a	FR1	1	R1350D
2743.387	2.981	2743902	REC_START	n/a	n/a	n/a	-999	4	[0, 0, 0]	n/a	FR1	1	R1350D
2746.368	4.077	2746883	REC_WORD	4.077	n/a	SWAMP	1	4	[0, 0, 0]	n/a	FR1	1	R1350D
2750.445	0.622	2750960	REC_WORD	0.622	n/a	THUMB	-999	4	[0, 0, 0]	n/a	FR1	1	R1350D
2751.067	1.374	2751582	REC_WORD	1.374	n/a	TOE	10	4	[0, 0, 0]	n/a	FR1	1	R1350D
2752.441	5.653	2752956	REC_WORD	5.653	n/a	DISH	-999	4	[0, 0, 0]	n/a	FR1	1	R1350D
2758.094	2.425	2758609	REC_WORD	2.425	n/a	STONE	2	4	[0, 0, 0]	n/a	FR1	1	R1350D
2760.519	7.249	2761033	REC_WORD	7.249	n/a	SOCK	3	4	[0, 0, 0]	n/a	FR1	1	R1350D
2767.768	5.631	2768282	REC_WORD_VV	5.631	n/a	<>	-999	4	[0, 0, 0]	n/a	FR1	1	R1350D
2773.399	0.0	2773913	TRIAL_END	n/a	n/a	n/a	-999	4	[0, 0, 0]	n/a	FR1	1	R1350D
2773.399	0.017	2773913	REC_END	n/a	n/a	n/a	-999	4	[0, 0, 0]	n/a	FR1	1	R1350D
2773.416	0.0	2773930	TRIAL_START	n/a	n/a	n/a	-999	5	[0, 0, 0]	n/a	FR1	1	R1350D
2773.416	0.0	2773930	TRIAL	n/a	n/a	n/a	-999	5	[0, 0, 0]	n/a	FR1	1	R1350D
2773.416	2.594	2773930	WAITING_START	n/a	n/a	n/a	-999	5	[0, 0, 0]	n/a	FR1	1	R1350D
2776.01	0.001	2776524	WAITING_END	n/a	n/a	n/a	-999	5	[0, 0, 0]	n/a	FR1	1	R1350D
2776.011	10.428	2776525	COUNTDOWN_START	n/a	n/a	n/a	-999	5	[0, 0, 0]	n/a	FR1	1	R1350D
2786.439	0.0	2786952	COUNTDOWN_END	n/a	n/a	n/a	-999	5	[0, 0, 0]	n/a	FR1	1	R1350D
2786.439	1.089	2786952	ORIENT_START	n/a	n/a	n/a	-999	5	[0, 0, 0]	n/a	FR1	1	R1350D
2787.528	0.0	2788041	ORIENT_END	n/a	n/a	n/a	-999	5	[0, 0, 0]	n/a	FR1	1	R1350D
2787.528	0.94	2788041	ENCODING_START	n/a	n/a	n/a	-999	5	[0, 0, 0]	n/a	FR1	1	R1350D
2788.468	1.628	2788981	WORD	n/a	n/a	FOOT	1	5	[0, 0, 0]	n/a	FR1	1	R1350D
2790.096	0.752	2790609	WORD_OFF	n/a	n/a	FOOT	1	5	[0, 0, 0]	n/a	FR1	1	R1350D
2790.848	1.631	2791361	WORD	n/a	n/a	PIPE	2	5	[0, 0, 0]	n/a	FR1	1	R1350D
2792.479	0.825	2792992	WORD_OFF	n/a	n/a	PIPE	2	5	[0, 0, 0]	n/a	FR1	1	R1350D
2793.304	1.625	2793817	WORD	n/a	n/a	HEART	3	5	[0, 0, 0]	n/a	FR1	1	R1350D
2794.929	0.917	2795442	WORD_OFF	n/a	n/a	HEART	3	5	[0, 0, 0]	n/a	FR1	1	R1350D
2795.846	1.634	2796359	WORD	n/a	n/a	EAR	4	5	[0, 0, 0]	n/a	FR1	1	R1350D
2797.48	1.105	2797992	WORD_OFF	n/a	n/a	EAR	4	5	[0, 0, 0]	n/a	FR1	1	R1350D
2798.585	1.629	2799097	WORD	n/a	n/a	HAT	5	5	[0, 0, 0]	n/a	FR1	1	R1350D
2800.214	1.079	2800726	WORD_OFF	n/a	n/a	HAT	5	5	[0, 0, 0]	n/a	FR1	1	R1350D
2801.293	1.621	2801805	WORD	n/a	n/a	INK	6	5	[0, 0, 0]	n/a	FR1	1	R1350D
2802.914	0.774	2803426	WORD_OFF	n/a	n/a	INK	6	5	[0, 0, 0]	n/a	FR1	1	R1350D
2803.688	1.626	2804200	WORD	n/a	n/a	FORT	7	5	[0, 0, 0]	n/a	FR1	1	R1350D
2805.314	0.97	2805826	WORD_OFF	n/a	n/a	FORT	7	5	[0, 0, 0]	n/a	FR1	1	R1350D
2806.284	1.631	2806796	WORD	n/a	n/a	AXE	8	5	[0, 0, 0]	n/a	FR1	1	R1350D
2807.915	0.788	2808427	WORD_OFF	n/a	n/a	AXE	8	5	[0, 0, 0]	n/a	FR1	1	R1350D
2808.703	1.629	2809215	WORD	n/a	n/a	HEN	9	5	[0, 0, 0]	n/a	FR1	1	R1350D
2810.332	1.094	2810844	WORD_OFF	n/a	n/a	HEN	9	5	[0, 0, 0]	n/a	FR1	1	R1350D
2811.426	1.624	2811938	WORD	n/a	n/a	JAR	10	5	[0, 0, 0]	n/a	FR1	1	R1350D
2813.05	0.812	2813562	WORD_OFF	n/a	n/a	JAR	10	5	[0, 0, 0]	n/a	FR1	1	R1350D
2813.862	1.621	2814374	WORD	n/a	n/a	BEACH	11	5	[0, 0, 0]	n/a	FR1	1	R1350D
2815.483	0.859	2815995	WORD_OFF	n/a	n/a	BEACH	11	5	[0, 0, 0]	n/a	FR1	1	R1350D
2816.342	1.626	2816854	WORD	n/a	n/a	TOOL	12	5	[0, 0, 0]	n/a	FR1	1	R1350D
2817.968	0.0	2818479	WORD_OFF	n/a	n/a	TOOL	12	5	[0, 0, 0]	n/a	FR1	1	R1350D
2817.968	0.001	2818479	ENCODING_END	n/a	n/a	n/a	-999	5	[0, 0, 0]	n/a	FR1	1	R1350D
2817.969	0.0	2818480	DISTRACT_START	n/a	n/a	n/a	-999	5	[0, 0, 0]	n/a	FR1	1	R1350D
2817.969	0.015	2818480	START	n/a	n/a	n/a	-999	5	[-999, -999, -999]	n/a	FR1	1	R1350D
2817.984	6.201	2818495	PROB	6.201	n/a	n/a	-999	5	[8, 6, 5]	19	FR1	1	R1350D
2824.185	3.617	2824696	PROB	3.617	n/a	n/a	-999	5	[2, 2, 3]	7	FR1	1	R1350D
2827.802	2.5	2828313	PROB	2.5	n/a	n/a	-999	5	[4, 2, 2]	8	FR1	1	R1350D
2830.302	2.434	2830813	PROB	2.434	n/a	n/a	-999	5	[1, 3, 1]	5	FR1	1	R1350D
2832.736	3.934	2833247	PROB	3.934	n/a	n/a	-999	5	[7, 6, 6]	19	FR1	1	R1350D
2836.67	3.041	2837180	PROB	3.041	n/a	n/a	-999	5	[6, 3, 5]	14	FR1	1	R1350D
2839.711	0.01	2840221	STOP	n/a	n/a	n/a	-999	5	[-999, -999, -999]	n/a	FR1	1	R1350D
2839.721	0.663	2840231	DISTRACT_END	n/a	n/a	n/a	-999	5	[0, 0, 0]	n/a	FR1	1	R1350D
2840.384	1.671	2840894	RETRIEVAL_ORIENT_START	n/a	n/a	n/a	-999	5	[0, 0, 0]	n/a	FR1	1	R1350D
2842.055	0.001	2842565	RETRIEVAL_ORIENT_END	n/a	n/a	n/a	-999	5	[0, 0, 0]	n/a	FR1	1	R1350D
2842.056	5.568	2842566	REC_START	n/a	n/a	n/a	-999	5	[0, 0, 0]	n/a	FR1	1	R1350D
2847.624	0.385	2848134	REC_WORD_VV	0.385	n/a	<>	-999	5	[0, 0, 0]	n/a	FR1	1	R1350D
2848.009	3.387	2848519	REC_WORD	3.387	n/a	AXE	8	5	[0, 0, 0]	n/a	FR1	1	R1350D
2851.396	8.899	2851906	REC_WORD_VV	8.899	n/a	<>	-999	5	[0, 0, 0]	n/a	FR1	1	R1350D
2860.295	7.185	2860804	REC_WORD	7.185	n/a	PIPE	2	5	[0, 0, 0]	n/a	FR1	1	R1350D
2867.48	0.39	2867989	REC_WORD	0.39	n/a	INK	6	5	[0, 0, 0]	n/a	FR1	1	R1350D
2867.87	4.198	2868379	REC_WORD	4.198	n/a	FORT	7	5	[0, 0, 0]	n/a	FR1	1	R1350D
2872.068	0.0	2872577	REC_END	n/a	n/a	n/a	-999	5	[0, 0, 0]	n/a	FR1	1	R1350D
2872.068	0.014	2872577	TRIAL_END	n/a	n/a	n/a	-999	5	[0, 0, 0]	n/a	FR1	1	R1350D
2872.082	0.0	2872591	TRIAL	n/a	n/a	n/a	-999	6	[0, 0, 0]	n/a	FR1	1	R1350D
2872.082	0.0	2872591	WAITING_START	n/a	n/a	n/a	-999	6	[0, 0, 0]	n/a	FR1	1	R1350D
2872.082	8.346	2872591	TRIAL_START	n/a	n/a	n/a	-999	6	[0, 0, 0]	n/a	FR1	1	R1350D
2880.428	0.0	2880936	WAITING_END	n/a	n/a	n/a	-999	6	[0, 0, 0]	n/a	FR1	1	R1350D
2880.428	10.429	2880936	COUNTDOWN_START	n/a	n/a	n/a	-999	6	[0, 0, 0]	n/a	FR1	1	R1350D
2890.857	0.0	2891365	COUNTDOWN_END	n/a	n/a	n/a	-999	6	[0, 0, 0]	n/a	FR1	1	R1350D
2890.857	1.174	2891365	ORIENT_START	n/a	n/a	n/a	-999	6	[0, 0, 0]	n/a	FR1	1	R1350D
2892.031	0.001	2892539	ORIENT_END	n/a	n/a	n/a	-999	6	[0, 0, 0]	n/a	FR1	1	R1350D
2892.032	0.777	2892540	ENCODING_START	n/a	n/a	n/a	-999	6	[0, 0, 0]	n/a	FR1	1	R1350D
2892.809	1.638	2893317	WORD	n/a	n/a	CLOWN	1	6	[0, 0, 0]	n/a	FR1	1	R1350D
2894.447	0.994	2894954	WORD_OFF	n/a	n/a	CLOWN	1	6	[0, 0, 0]	n/a	FR1	1	R1350D
2895.441	1.624	2895948	WORD	n/a	n/a	CAPE	2	6	[0, 0, 0]	n/a	FR1	1	R1350D
2897.065	1.034	2897572	WORD_OFF	n/a	n/a	CAPE	2	6	[0, 0, 0]	n/a	FR1	1	R1350D
2898.099	1.633	2898606	WORD	n/a	n/a	BEE	3	6	[0, 0, 0]	n/a	FR1	1	R1350D
2899.732	0.983	2900239	WORD_OFF	n/a	n/a	BEE	3	6	[0, 0, 0]	n/a	FR1	1	R1350D
2900.715	1.634	2901222	WORD	n/a	n/a	WHEEL	4	6	[0, 0, 0]	n/a	FR1	1	R1350D
2902.349	0.783	2902856	WORD_OFF	n/a	n/a	WHEEL	4	6	[0, 0, 0]	n/a	FR1	1	R1350D
2903.132	1.634	2903639	WORD	n/a	n/a	TIE	5	6	[0, 0, 0]	n/a	FR1	1	R1350D
2904.766	1.068	2905273	WORD_OFF	n/a	n/a	TIE	5	6	[0, 0, 0]	n/a	FR1	1	R1350D
2905.834	1.632	2906341	WORD	n/a	n/a	LOCK	6	6	[0, 0, 0]	n/a	FR1	1	R1350D
2907.466	1.043	2907973	WORD_OFF	n/a	n/a	LOCK	6	6	[0, 0, 0]	n/a	FR1	1	R1350D
2908.509	1.626	2909016	WORD	n/a	n/a	SNAIL	7	6	[0, 0, 0]	n/a	FR1	1	R1350D
2910.135	0.763	2910642	WORD_OFF	n/a	n/a	SNAIL	7	6	[0, 0, 0]	n/a	FR1	1	R1350D
2910.898	1.636	2911405	WORD	n/a	n/a	BALL	8	6	[0, 0, 0]	n/a	FR1	1	R1350D
2912.534	0.78	2913041	WORD_OFF	n/a	n/a	BALL	8	6	[0, 0, 0]	n/a	FR1	1	R1350D
2913.314	1.638	2913821	WORD	n/a	n/a	FUDGE	9	6	[0, 0, 0]	n/a	FR1	1	R1350D
2914.952	0.925	2915458	WORD_OFF	n/a	n/a	FUDGE	9	6	[0, 0, 0]	n/a	FR1	1	R1350D
2915.877	1.624	2916383	WORD	n/a	n/a	SKI	10	6	[0, 0, 0]	n/a	FR1	1	R1350D
2917.501	0.765	2918007	WORD_OFF	n/a	n/a	SKI	10	6	[0, 0, 0]	n/a	FR1	1	R1350D
2918.266	1.636	2918772	WORD	n/a	n/a	MUG	11	6	[0, 0, 0]	n/a	FR1	1	R1350D
2919.902	1.088	2920408	WORD_OFF	n/a	n/a	MUG	11	6	[0, 0, 0]	n/a	FR1	1	R1350D
2920.99	1.629	2921496	WORD	n/a	n/a	FRUIT	12	6	[0, 0, 0]	n/a	FR1	1	R1350D
2922.619	0.001	2923125	WORD_OFF	n/a	n/a	FRUIT	12	6	[0, 0, 0]	n/a	FR1	1	R1350D
2922.62	0.0	2923126	ENCODING_END	n/a	n/a	n/a	-999	6	[0, 0, 0]	n/a	FR1	1	R1350D
2922.62	0.0	2923126	DISTRACT_START	n/a	n/a	n/a	-999	6	[0, 0, 0]	n/a	FR1	1	R1350D
2922.62	0.016	2923126	START	n/a	n/a	n/a	-999	6	[-999, -999, -999]	n/a	FR1	1	R1350D
2922.636	7.001	2923142	PROB	7.001	n/a	n/a	-999	6	[7, 8, 8]	22	FR1	1	R1350D
2929.637	3.584	2930143	PROB	3.584	n/a	n/a	-999	6	[7, 3, 6]	16	FR1	1	R1350D
2933.221	2.768	2933726	PROB	2.768	n/a	n/a	-999	6	[5, 9, 7]	21	FR1	1	R1350D
2935.989	2.249	2936494	PROB	2.249	n/a	n/a	-999	6	[9, 1, 4]	14	FR1	1	R1350D
2938.238	2.184	2938743	PROB	2.184	n/a	n/a	-999	6	[5, 4, 2]	11	FR1	1	R1350D
2940.422	3.889	2940927	PROB	3.889	n/a	n/a	-999	6	[1, 5, 9]	15	FR1	1	R1350D
2944.311	0.012	2944816	STOP	n/a	n/a	n/a	-999	6	[-999, -999, -999]	n/a	FR1	1	R1350D
2944.323	0.637	2944828	DISTRACT_END	n/a	n/a	n/a	-999	6	[0, 0, 0]	n/a	FR1	1	R1350D
2944.96	1.53	2945465	RETRIEVAL_ORIENT_START	n/a	n/a	n/a	-999	6	[0, 0, 0]	n/a	FR1	1	R1350D
2946.49	0.0	2946995	RETRIEVAL_ORIENT_END	n/a	n/a	n/a	-999	6	[0, 0, 0]	n/a	FR1	1	R1350D
2946.49	4.084	2946995	REC_START	n/a	n/a	n/a	-999	6	[0, 0, 0]	n/a	FR1	1	R1350D
2950.574	1.0	2951079	REC_WORD_VV	1.0	n/a	<>	-999	6	[0, 0, 0]	n/a	FR1	1	R1350D
2951.574	1.0	2952079	REC_WORD_VV	1.0	n/a	<>	-999	6	[0, 0, 0]	n/a	FR1	1	R1350D
2952.574	1.0	2953078	REC_WORD_VV	1.0	n/a	<>	-999	6	[0, 0, 0]	n/a	FR1	1	R1350D
2953.574	22.595	2954078	REC_WORD_VV	22.595	n/a	<>	-999	6	[0, 0, 0]	n/a	FR1	1	R1350D
2976.169	0.336	2976672	REC_WORD	0.336	n/a	SNAIL	7	6	[0, 0, 0]	n/a	FR1	1	R1350D
2976.505	0.0	2977008	REC_END	n/a	n/a	n/a	-999	6	[0, 0, 0]	n/a	FR1	1	R1350D
2976.505	0.016	2977008	TRIAL_END	n/a	n/a	n/a	-999	6	[0, 0, 0]	n/a	FR1	1	R1350D
2976.521	0.0	2977024	TRIAL_START	n/a	n/a	n/a	-999	7	[0, 0, 0]	n/a	FR1	1	R1350D
2976.521	0.001	2977024	TRIAL	n/a	n/a	n/a	-999	7	[0, 0, 0]	n/a	FR1	1	R1350D
2976.522	6.292	2977025	WAITING_START	n/a	n/a	n/a	-999	7	[0, 0, 0]	n/a	FR1	1	R1350D
2982.814	0.0	2983317	COUNTDOWN_START	n/a	n/a	n/a	-999	7	[0, 0, 0]	n/a	FR1	1	R1350D
2982.814	10.428	2983317	WAITING_END	n/a	n/a	n/a	-999	7	[0, 0, 0]	n/a	FR1	1	R1350D
2993.242	0.0	2993744	COUNTDOWN_END	n/a	n/a	n/a	-999	7	[0, 0, 0]	n/a	FR1	1	R1350D
2993.242	1.207	2993744	ORIENT_START	n/a	n/a	n/a	-999	7	[0, 0, 0]	n/a	FR1	1	R1350D
2994.449	0.0	2994951	ORIENT_END	n/a	n/a	n/a	-999	7	[0, 0, 0]	n/a	FR1	1	R1350D
2994.449	1.106	2994951	ENCODING_START	n/a	n/a	n/a	-999	7	[0, 0, 0]	n/a	FR1	1	R1350D
2995.555	1.629	2996057	WORD	n/a	n/a	TEA	1	7	[0, 0, 0]	n/a	FR1	1	R1350D
2997.184	1.1	2997686	WORD_OFF	n/a	n/a	TEA	1	7	[0, 0, 0]	n/a	FR1	1	R1350D
2998.284	1.633	2998786	WORD	n/a	n/a	PIT	2	7	[0, 0, 0]	n/a	FR1	1	R1350D
2999.917	1.116	3000419	WORD_OFF	n/a	n/a	PIT	2	7	[0, 0, 0]	n/a	FR1	1	R1350D
3001.033	1.634	3001535	WORD	n/a	n/a	PEACH	3	7	[0, 0, 0]	n/a	FR1	1	R1350D
3002.667	0.917	3003169	WORD_OFF	n/a	n/a	PEACH	3	7	[0, 0, 0]	n/a	FR1	1	R1350D
3003.584	1.618	3004086	WORD	n/a	n/a	SHEEP	4	7	[0, 0, 0]	n/a	FR1	1	R1350D
3005.202	0.769	3005704	WORD_OFF	n/a	n/a	SHEEP	4	7	[0, 0, 0]	n/a	FR1	1	R1350D
3005.971	1.63	3006473	WORD	n/a	n/a	TENT	5	7	[0, 0, 0]	n/a	FR1	1	R1350D
3007.601	1.019	3008103	WORD_OFF	n/a	n/a	TENT	5	7	[0, 0, 0]	n/a	FR1	1	R1350D
3008.62	1.632	3009122	WORD	n/a	n/a	HAWK	6	7	[0, 0, 0]	n/a	FR1	1	R1350D
3010.252	1.08	3010753	WORD_OFF	n/a	n/a	HAWK	6	7	[0, 0, 0]	n/a	FR1	1	R1350D
3011.332	1.638	3011833	WORD	n/a	n/a	HOOF	7	7	[0, 0, 0]	n/a	FR1	1	R1350D
3012.97	0.833	3013471	WORD_OFF	n/a	n/a	HOOF	7	7	[0, 0, 0]	n/a	FR1	1	R1350D
3013.803	1.633	3014304	WORD	n/a	n/a	GOAT	8	7	[0, 0, 0]	n/a	FR1	1	R1350D
3015.436	0.877	3015937	WORD_OFF	n/a	n/a	GOAT	8	7	[0, 0, 0]	n/a	FR1	1	R1350D
3016.313	1.607	3016814	WORD	n/a	n/a	ROCK	9	7	[0, 0, 0]	n/a	FR1	1	R1350D
3017.92	1.123	3018421	WORD_OFF	n/a	n/a	ROCK	9	7	[0, 0, 0]	n/a	FR1	1	R1350D
3019.043	1.627	3019544	WORD	n/a	n/a	MOUSE	10	7	[0, 0, 0]	n/a	FR1	1	R1350D
3020.67	1.008	3021171	WORD_OFF	n/a	n/a	MOUSE	10	7	[0, 0, 0]	n/a	FR1	1	R1350D
3021.678	1.626	3022179	WORD	n/a	n/a	STOVE	11	7	[0, 0, 0]	n/a	FR1	1	R1350D
3023.304	1.088	3023805	WORD_OFF	n/a	n/a	STOVE	11	7	[0, 0, 0]	n/a	FR1	1	R1350D
3024.392	1.63	3024893	WORD	n/a	n/a	MILK	12	7	[0, 0, 0]	n/a	FR1	1	R1350D
3026.022	0.001	3026523	WORD_OFF	n/a	n/a	MILK	12	7	[0, 0, 0]	n/a	FR1	1	R1350D
3026.023	0.0	3026524	DISTRACT_START	n/a	n/a	n/a	-999	7	[0, 0, 0]	n/a	FR1	1	R1350D
3026.023	0.001	3026524	ENCODING_END	n/a	n/a	n/a	-999	7	[0, 0, 0]	n/a	FR1	1	R1350D
3026.024	0.015	3026525	START	n/a	n/a	n/a	-999	7	[-999, -999, -999]	n/a	FR1	1	R1350D
3026.039	3.616	3026540	PROB	3.616	n/a	n/a	-999	7	[4, 5, 6]	15	FR1	1	R1350D
3029.655	4.184	3030155	PROB	4.184	n/a	n/a	-999	7	[8, 7, 4]	19	FR1	1	R1350D
3033.839	2.667	3034339	PROB	2.667	n/a	n/a	-999	7	[9, 7, 4]	20	FR1	1	R1350D
3036.506	2.602	3037006	PROB	2.602	n/a	n/a	-999	7	[1, 2, 7]	10	FR1	1	R1350D
3039.108	2.917	3039608	PROB	2.917	n/a	n/a	-999	7	[3, 2, 8]	12	FR1	1	R1350D
3042.025	3.683	3042525	PROB	3.683	n/a	n/a	-999	7	[9, 9, 8]	27	FR1	1	R1350D
3045.708	3.908	3046208	PROB	3.908	n/a	n/a	-999	7	[7, 3, 7]	17	FR1	1	R1350D
3049.616	0.01	3050115	STOP	n/a	n/a	n/a	-999	7	[-999, -999, -999]	n/a	FR1	1	R1350D
3049.626	0.681	3050125	DISTRACT_END	n/a	n/a	n/a	-999	7	[0, 0, 0]	n/a	FR1	1	R1350D
3050.307	1.703	3050806	RETRIEVAL_ORIENT_START	n/a	n/a	n/a	-999	7	[0, 0, 0]	n/a	FR1	1	R1350D
3052.01	0.001	3052509	RETRIEVAL_ORIENT_END	n/a	n/a	n/a	-999	7	[0, 0, 0]	n/a	FR1	1	R1350D
3052.011	2.797	3052510	REC_START	n/a	n/a	n/a	-999	7	[0, 0, 0]	n/a	FR1	1	R1350D
3054.808	1.366	3055307	REC_WORD_VV	1.366	n/a	<>	-999	7	[0, 0, 0]	n/a	FR1	1	R1350D
3056.174	1.979	3056673	REC_WORD	1.979	n/a	HOOF	7	7	[0, 0, 0]	n/a	FR1	1	R1350D
3058.153	2.491	3058652	REC_WORD	2.491	n/a	HAWK	6	7	[0, 0, 0]	n/a	FR1	1	R1350D
3060.644	6.197	3061143	REC_WORD_VV	6.197	n/a	<>	-999	7	[0, 0, 0]	n/a	FR1	1	R1350D
3066.841	1.0	3067340	REC_WORD_VV	1.0	n/a	<>	-999	7	[0, 0, 0]	n/a	FR1	1	R1350D
3067.841	8.954	3068340	REC_WORD_VV	8.954	n/a	<>	-999	7	[0, 0, 0]	n/a	FR1	1	R1350D
3076.795	5.228	3077293	REC_WORD_VV	5.228	n/a	<>	-999	7	[0, 0, 0]	n/a	FR1	1	R1350D
3082.023	0.0	3082521	REC_END	n/a	n/a	n/a	-999	7	[0, 0, 0]	n/a	FR1	1	R1350D
3082.023	0.014	3082521	TRIAL_END	n/a	n/a	n/a	-999	7	[0, 0, 0]	n/a	FR1	1	R1350D
3082.037	0.0	3082535	TRIAL_START	n/a	n/a	n/a	-999	8	[0, 0, 0]	n/a	FR1	1	R1350D
3082.037	0.001	3082535	TRIAL	n/a	n/a	n/a	-999	8	[0, 0, 0]	n/a	FR1	1	R1350D
3082.038	3.744	3082536	WAITING_START	n/a	n/a	n/a	-999	8	[0, 0, 0]	n/a	FR1	1	R1350D
3085.782	0.0	3086280	WAITING_END	n/a	n/a	n/a	-999	8	[0, 0, 0]	n/a	FR1	1	R1350D
3085.782	10.43	3086280	COUNTDOWN_START	n/a	n/a	n/a	-999	8	[0, 0, 0]	n/a	FR1	1	R1350D
3096.212	0.0	3096709	ORIENT_START	n/a	n/a	n/a	-999	8	[0, 0, 0]	n/a	FR1	1	R1350D
3096.212	1.172	3096709	COUNTDOWN_END	n/a	n/a	n/a	-999	8	[0, 0, 0]	n/a	FR1	1	R1350D
3097.384	0.001	3097881	ORIENT_END	n/a	n/a	n/a	-999	8	[0, 0, 0]	n/a	FR1	1	R1350D
3097.385	1.127	3097882	ENCODING_START	n/a	n/a	n/a	-999	8	[0, 0, 0]	n/a	FR1	1	R1350D
3098.512	1.624	3099009	WORD	n/a	n/a	CAGE	1	8	[0, 0, 0]	n/a	FR1	1	R1350D
3100.136	1.069	3100633	WORD_OFF	n/a	n/a	CAGE	1	8	[0, 0, 0]	n/a	FR1	1	R1350D
3101.205	1.63	3101702	WORD	n/a	n/a	SMILE	2	8	[0, 0, 0]	n/a	FR1	1	R1350D
3102.835	1.133	3103332	WORD_OFF	n/a	n/a	SMILE	2	8	[0, 0, 0]	n/a	FR1	1	R1350D
3103.968	1.635	3104465	WORD	n/a	n/a	BED	3	8	[0, 0, 0]	n/a	FR1	1	R1350D
3105.603	1.07	3106100	WORD_OFF	n/a	n/a	BED	3	8	[0, 0, 0]	n/a	FR1	1	R1350D
3106.673	1.63	3107170	WORD	n/a	n/a	SPRING	4	8	[0, 0, 0]	n/a	FR1	1	R1350D
3108.303	1.115	3108799	WORD_OFF	n/a	n/a	SPRING	4	8	[0, 0, 0]	n/a	FR1	1	R1350D
3109.418	1.62	3109914	WORD	n/a	n/a	SHARK	5	8	[0, 0, 0]	n/a	FR1	1	R1350D
3111.038	0.922	3111534	WORD_OFF	n/a	n/a	SHARK	5	8	[0, 0, 0]	n/a	FR1	1	R1350D
3111.96	1.627	3112456	WORD	n/a	n/a	WALL	6	8	[0, 0, 0]	n/a	FR1	1	R1350D
3113.587	1.136	3114083	WORD_OFF	n/a	n/a	WALL	6	8	[0, 0, 0]	n/a	FR1	1	R1350D
3114.723	1.632	3115219	WORD	n/a	n/a	TAIL	7	8	[0, 0, 0]	n/a	FR1	1	R1350D
3116.355	1.009	3116851	WORD_OFF	n/a	n/a	TAIL	7	8	[0, 0, 0]	n/a	FR1	1	R1350D
3117.364	1.608	3117860	WORD	n/a	n/a	WEED	8	8	[0, 0, 0]	n/a	FR1	1	R1350D
3118.972	1.043	3119468	WORD_OFF	n/a	n/a	WEED	8	8	[0, 0, 0]	n/a	FR1	1	R1350D
3120.015	1.624	3120511	WORD	n/a	n/a	SPOON	9	8	[0, 0, 0]	n/a	FR1	1	R1350D
3121.639	0.834	3122135	WORD_OFF	n/a	n/a	SPOON	9	8	[0, 0, 0]	n/a	FR1	1	R1350D
3122.473	1.617	3122969	WORD	n/a	n/a	GRAPE	10	8	[0, 0, 0]	n/a	FR1	1	R1350D
3124.09	0.961	3124586	WORD_OFF	n/a	n/a	GRAPE	10	8	[0, 0, 0]	n/a	FR1	1	R1350D
3125.051	1.622	3125547	WORD	n/a	n/a	DOCK	11	8	[0, 0, 0]	n/a	FR1	1	R1350D
3126.673	1.064	3127168	WORD_OFF	n/a	n/a	DOCK	11	8	[0, 0, 0]	n/a	FR1	1	R1350D
3127.737	1.637	3128232	WORD	n/a	n/a	OWL	12	8	[0, 0, 0]	n/a	FR1	1	R1350D
3129.374	0.0	3129869	ENCODING_END	n/a	n/a	n/a	-999	8	[0, 0, 0]	n/a	FR1	1	R1350D
3129.374	0.0	3129869	DISTRACT_START	n/a	n/a	n/a	-999	8	[0, 0, 0]	n/a	FR1	1	R1350D
3129.374	0.001	3129869	WORD_OFF	n/a	n/a	OWL	12	8	[0, 0, 0]	n/a	FR1	1	R1350D
3129.375	0.015	3129870	START	n/a	n/a	n/a	-999	8	[-999, -999, -999]	n/a	FR1	1	R1350D
3129.39	3.151	3129885	PROB	3.151	n/a	n/a	-999	8	[8, 1, 2]	11	FR1	1	R1350D
3132.541	3.834	3133036	PROB	3.834	n/a	n/a	-999	8	[2, 2, 6]	10	FR1	1	R1350D
3136.375	4.735	3136870	PROB	4.735	n/a	n/a	-999	8	[5, 7, 5]	17	FR1	1	R1350D
3141.11	2.616	3141605	PROB	2.616	n/a	n/a	-999	8	[5, 6, 3]	14	FR1	1	R1350D
3143.726	2.567	3144221	PROB	2.567	n/a	n/a	-999	8	[1, 3, 3]	5	FR1	1	R1350D
3146.293	3.531	3146787	PROB	3.531	n/a	n/a	-999	8	[8, 8, 6]	22	FR1	1	R1350D
3149.824	0.02	3150318	STOP	n/a	n/a	n/a	-999	8	[-999, -999, -999]	n/a	FR1	1	R1350D
3149.844	0.601	3150338	DISTRACT_END	n/a	n/a	n/a	-999	8	[0, 0, 0]	n/a	FR1	1	R1350D
3150.445	1.7	3150939	RETRIEVAL_ORIENT_START	n/a	n/a	n/a	-999	8	[0, 0, 0]	n/a	FR1	1	R1350D
3152.145	0.001	3152639	RETRIEVAL_ORIENT_END	n/a	n/a	n/a	-999	8	[0, 0, 0]	n/a	FR1	1	R1350D
3152.146	1.025	3152640	REC_START	n/a	n/a	n/a	-999	8	[0, 0, 0]	n/a	FR1	1	R1350D
3153.171	1.753	3153665	REC_WORD_VV	1.753	n/a	<>	-999	8	[0, 0, 0]	n/a	FR1	1	R1350D
3154.924	2.641	3155418	REC_WORD	2.641	n/a	WEED	8	8	[0, 0, 0]	n/a	FR1	1	R1350D
3157.565	2.166	3158059	REC_WORD	2.166	n/a	TAIL	7	8	[0, 0, 0]	n/a	FR1	1	R1350D
3159.731	2.167	3160225	REC_WORD	2.167	n/a	OWL	12	8	[0, 0, 0]	n/a	FR1	1	R1350D
3161.898	3.346	3162392	REC_WORD	3.346	n/a	DOCK	11	8	[0, 0, 0]	n/a	FR1	1	R1350D
3165.244	1.396	3165737	REC_WORD	1.396	n/a	SPOON	9	8	[0, 0, 0]	n/a	FR1	1	R1350D
3166.64	5.605	3167133	REC_WORD	5.605	n/a	GRAPE	10	8	[0, 0, 0]	n/a	FR1	1	R1350D
3172.245	2.095	3172738	REC_WORD_VV	2.095	n/a	<>	-999	8	[0, 0, 0]	n/a	FR1	1	R1350D
3174.34	5.855	3174833	REC_WORD	5.855	n/a	BABY	-999	8	[0, 0, 0]	n/a	FR1	1	R1350D
3180.195	1.963	3180688	REC_WORD_VV	1.963	n/a	<>	-999	8	[0, 0, 0]	n/a	FR1	1	R1350D
3182.158	0.0	3182651	REC_END	n/a	n/a	n/a	-999	8	[0, 0, 0]	n/a	FR1	1	R1350D
3182.158	0.015	3182651	TRIAL_END	n/a	n/a	n/a	-999	8	[0, 0, 0]	n/a	FR1	1	R1350D
3182.173	0.0	3182666	TRIAL	n/a	n/a	n/a	-999	9	[0, 0, 0]	n/a	FR1	1	R1350D
3182.173	0.0	3182666	WAITING_START	n/a	n/a	n/a	-999	9	[0, 0, 0]	n/a	FR1	1	R1350D
3182.173	2.577	3182666	TRIAL_START	n/a	n/a	n/a	-999	9	[0, 0, 0]	n/a	FR1	1	R1350D
3184.75	0.001	3185242	WAITING_END	n/a	n/a	n/a	-999	9	[0, 0, 0]	n/a	FR1	1	R1350D
3184.751	10.429	3185243	COUNTDOWN_START	n/a	n/a	n/a	-999	9	[0, 0, 0]	n/a	FR1	1	R1350D
3195.18	0.0	3195672	COUNTDOWN_END	n/a	n/a	n/a	-999	9	[0, 0, 0]	n/a	FR1	1	R1350D
3195.18	1.256	3195672	ORIENT_START	n/a	n/a	n/a	-999	9	[0, 0, 0]	n/a	FR1	1	R1350D
3196.436	0.0	3196928	ORIENT_END	n/a	n/a	n/a	-999	9	[0, 0, 0]	n/a	FR1	1	R1350D
3196.436	1.134	3196928	ENCODING_START	n/a	n/a	n/a	-999	9	[0, 0, 0]	n/a	FR1	1	R1350D
3197.57	1.634	3198062	WORD	n/a	n/a	ICE	1	9	[0, 0, 0]	n/a	FR1	1	R1350D
3199.204	1.055	3199696	WORD_OFF	n/a	n/a	ICE	1	9	[0, 0, 0]	n/a	FR1	1	R1350D
3200.259	1.628	3200751	WORD	n/a	n/a	SMOKE	2	9	[0, 0, 0]	n/a	FR1	1	R1350D
3201.887	0.816	3202379	WORD_OFF	n/a	n/a	SMOKE	2	9	[0, 0, 0]	n/a	FR1	1	R1350D
3202.703	1.634	3203195	WORD	n/a	n/a	COW	3	9	[0, 0, 0]	n/a	FR1	1	R1350D
3204.337	1.144	3204828	WORD_OFF	n/a	n/a	COW	3	9	[0, 0, 0]	n/a	FR1	1	R1350D
3205.481	1.608	3205972	WORD	n/a	n/a	MOON	4	9	[0, 0, 0]	n/a	FR1	1	R1350D
3207.089	0.957	3207580	WORD_OFF	n/a	n/a	MOON	4	9	[0, 0, 0]	n/a	FR1	1	R1350D
3208.046	1.626	3208537	WORD	n/a	n/a	PALM	5	9	[0, 0, 0]	n/a	FR1	1	R1350D
3209.672	0.775	3210163	WORD_OFF	n/a	n/a	PALM	5	9	[0, 0, 0]	n/a	FR1	1	R1350D
3210.447	1.626	3210938	WORD	n/a	n/a	WAND	6	9	[0, 0, 0]	n/a	FR1	1	R1350D
3212.073	1.016	3212564	WORD_OFF	n/a	n/a	WAND	6	9	[0, 0, 0]	n/a	FR1	1	R1350D
3213.089	1.633	3213580	WORD	n/a	n/a	CRANE	7	9	[0, 0, 0]	n/a	FR1	1	R1350D
3214.722	1.127	3215213	WORD_OFF	n/a	n/a	CRANE	7	9	[0, 0, 0]	n/a	FR1	1	R1350D
3215.849	1.624	3216340	WORD	n/a	n/a	KEY	8	9	[0, 0, 0]	n/a	FR1	1	R1350D
3217.473	1.082	3217964	WORD_OFF	n/a	n/a	KEY	8	9	[0, 0, 0]	n/a	FR1	1	R1350D
3218.555	1.619	3219046	WORD	n/a	n/a	HAND	9	9	[0, 0, 0]	n/a	FR1	1	R1350D
3220.174	0.885	3220665	WORD_OFF	n/a	n/a	HAND	9	9	[0, 0, 0]	n/a	FR1	1	R1350D
3221.059	1.632	3221550	WORD	n/a	n/a	SWORD	10	9	[0, 0, 0]	n/a	FR1	1	R1350D
3222.691	0.97	3223182	WORD_OFF	n/a	n/a	SWORD	10	9	[0, 0, 0]	n/a	FR1	1	R1350D
3223.661	1.63	3224151	WORD	n/a	n/a	WAVE	11	9	[0, 0, 0]	n/a	FR1	1	R1350D
3225.291	0.939	3225781	WORD_OFF	n/a	n/a	WAVE	11	9	[0, 0, 0]	n/a	FR1	1	R1350D
3226.23	1.628	3226720	WORD	n/a	n/a	BATH	12	9	[0, 0, 0]	n/a	FR1	1	R1350D
3227.858	0.001	3228348	WORD_OFF	n/a	n/a	BATH	12	9	[0, 0, 0]	n/a	FR1	1	R1350D
3227.859	0.0	3228349	DISTRACT_START	n/a	n/a	n/a	-999	9	[0, 0, 0]	n/a	FR1	1	R1350D
3227.859	0.0	3228349	ENCODING_END	n/a	n/a	n/a	-999	9	[0, 0, 0]	n/a	FR1	1	R1350D
3227.859	0.016	3228349	START	n/a	n/a	n/a	-999	9	[-999, -999, -999]	n/a	FR1	1	R1350D
3227.875	3.318	3228365	PROB	3.318	n/a	n/a	-999	9	[9, 9, 1]	19	FR1	1	R1350D
3231.193	3.35	3231683	PROB	3.35	n/a	n/a	-999	9	[8, 1, 7]	16	FR1	1	R1350D
3234.543	2.501	3235033	PROB	2.501	n/a	n/a	-999	9	[3, 4, 1]	8	FR1	1	R1350D
3237.044	4.183	3237534	PROB	4.183	n/a	n/a	-999	9	[2, 9, 8]	19	FR1	1	R1350D
3241.227	3.167	3241717	PROB	3.167	n/a	n/a	-999	9	[3, 9, 1]	13	FR1	1	R1350D
3244.394	2.719	3244883	PROB	2.719	n/a	n/a	-999	9	[9, 2, 1]	12	FR1	1	R1350D
3247.113	2.564	3247602	PROB	2.564	n/a	n/a	-999	9	[5, 4, 4]	13	FR1	1	R1350D
3249.677	0.019	3250166	STOP	n/a	n/a	n/a	-999	9	[-999, -999, -999]	n/a	FR1	1	R1350D
3249.696	0.695	3250185	DISTRACT_END	n/a	n/a	n/a	-999	9	[0, 0, 0]	n/a	FR1	1	R1350D
3250.391	1.639	3250880	RETRIEVAL_ORIENT_START	n/a	n/a	n/a	-999	9	[0, 0, 0]	n/a	FR1	1	R1350D
3252.03	0.001	3252519	RETRIEVAL_ORIENT_END	n/a	n/a	n/a	-999	9	[0, 0, 0]	n/a	FR1	1	R1350D
3252.031	1.742	3252520	REC_START	n/a	n/a	n/a	-999	9	[0, 0, 0]	n/a	FR1	1	R1350D
3253.773	0.92	3254262	REC_WORD_VV	0.92	n/a	<>	-999	9	[0, 0, 0]	n/a	FR1	1	R1350D
3254.693	1.533	3255182	REC_WORD	1.533	n/a	POND	-999	9	[0, 0, 0]	n/a	FR1	1	R1350D
3256.226	3.404	3256715	REC_WORD	3.404	n/a	WAND	6	9	[0, 0, 0]	n/a	FR1	1	R1350D
3259.63	3.248	3260119	REC_WORD	3.248	n/a	CRANE	7	9	[0, 0, 0]	n/a	FR1	1	R1350D
3262.878	3.606	3263366	REC_WORD	3.606	n/a	SMOKE	2	9	[0, 0, 0]	n/a	FR1	1	R1350D
3266.484	4.083	3266972	REC_WORD	4.083	n/a	ICE	1	9	[0, 0, 0]	n/a	FR1	1	R1350D
3270.567	2.288	3271055	REC_WORD	2.288	n/a	COW	3	9	[0, 0, 0]	n/a	FR1	1	R1350D
3272.855	9.187	3273343	REC_WORD	9.187	n/a	MOON	4	9	[0, 0, 0]	n/a	FR1	1	R1350D
3282.042	0.0	3282529	REC_END	n/a	n/a	n/a	-999	9	[0, 0, 0]	n/a	FR1	1	R1350D
3282.042	0.014	3282529	TRIAL_END	n/a	n/a	n/a	-999	9	[0, 0, 0]	n/a	FR1	1	R1350D
3282.056	0.0	3282543	TRIAL_START	n/a	n/a	n/a	-999	10	[0, 0, 0]	n/a	FR1	1	R1350D
3282.056	0.0	3282543	TRIAL	n/a	n/a	n/a	-999	10	[0, 0, 0]	n/a	FR1	1	R1350D
3282.056	1.913	3282543	WAITING_START	n/a	n/a	n/a	-999	10	[0, 0, 0]	n/a	FR1	1	R1350D
3283.969	0.001	3284456	WAITING_END	n/a	n/a	n/a	-999	10	[0, 0, 0]	n/a	FR1	1	R1350D
3283.97	10.428	3284457	COUNTDOWN_START	n/a	n/a	n/a	-999	10	[0, 0, 0]	n/a	FR1	1	R1350D
3294.398	0.001	3294885	COUNTDOWN_END	n/a	n/a	n/a	-999	10	[0, 0, 0]	n/a	FR1	1	R1350D
3294.399	1.172	3294886	ORIENT_START	n/a	n/a	n/a	-999	10	[0, 0, 0]	n/a	FR1	1	R1350D
3295.571	0.0	3296058	ORIENT_END	n/a	n/a	n/a	-999	10	[0, 0, 0]	n/a	FR1	1	R1350D
3295.571	0.829	3296058	ENCODING_START	n/a	n/a	n/a	-999	10	[0, 0, 0]	n/a	FR1	1	R1350D
3296.4	1.639	3296887	WORD	n/a	n/a	KITE	1	10	[0, 0, 0]	n/a	FR1	1	R1350D
3298.039	0.926	3298526	WORD_OFF	n/a	n/a	KITE	1	10	[0, 0, 0]	n/a	FR1	1	R1350D
3298.965	1.623	3299452	WORD	n/a	n/a	NET	2	10	[0, 0, 0]	n/a	FR1	1	R1350D
3300.588	0.861	3301074	WORD_OFF	n/a	n/a	NET	2	10	[0, 0, 0]	n/a	FR1	1	R1350D
3301.449	1.607	3301935	WORD	n/a	n/a	SHELL	3	10	[0, 0, 0]	n/a	FR1	1	R1350D
3303.056	1.105	3303542	WORD_OFF	n/a	n/a	SHELL	3	10	[0, 0, 0]	n/a	FR1	1	R1350D
3304.161	1.628	3304647	WORD	n/a	n/a	GUARD	4	10	[0, 0, 0]	n/a	FR1	1	R1350D
3305.789	0.96	3306275	WORD_OFF	n/a	n/a	GUARD	4	10	[0, 0, 0]	n/a	FR1	1	R1350D
3306.749	1.624	3307235	WORD	n/a	n/a	BARN	5	10	[0, 0, 0]	n/a	FR1	1	R1350D
3308.373	0.844	3308859	WORD_OFF	n/a	n/a	BARN	5	10	[0, 0, 0]	n/a	FR1	1	R1350D
3309.217	1.623	3309703	WORD	n/a	n/a	SHIP	6	10	[0, 0, 0]	n/a	FR1	1	R1350D
3310.84	1.101	3311326	WORD_OFF	n/a	n/a	SHIP	6	10	[0, 0, 0]	n/a	FR1	1	R1350D
3311.941	1.633	3312427	WORD	n/a	n/a	SHOE	7	10	[0, 0, 0]	n/a	FR1	1	R1350D
3313.574	0.792	3314060	WORD_OFF	n/a	n/a	SHOE	7	10	[0, 0, 0]	n/a	FR1	1	R1350D
3314.366	1.626	3314852	WORD	n/a	n/a	LEG	8	10	[0, 0, 0]	n/a	FR1	1	R1350D
3315.992	0.916	3316478	WORD_OFF	n/a	n/a	LEG	8	10	[0, 0, 0]	n/a	FR1	1	R1350D
3316.908	1.633	3317394	WORD	n/a	n/a	CORD	9	10	[0, 0, 0]	n/a	FR1	1	R1350D
3318.541	1.027	3319027	WORD_OFF	n/a	n/a	CORD	9	10	[0, 0, 0]	n/a	FR1	1	R1350D
3319.568	1.625	3320054	WORD	n/a	n/a	BOY	10	10	[0, 0, 0]	n/a	FR1	1	R1350D
3321.193	0.785	3321678	WORD_OFF	n/a	n/a	BOY	10	10	[0, 0, 0]	n/a	FR1	1	R1350D
3321.978	1.631	3322463	WORD	n/a	n/a	GOLD	11	10	[0, 0, 0]	n/a	FR1	1	R1350D
3323.609	0.869	3324094	WORD_OFF	n/a	n/a	GOLD	11	10	[0, 0, 0]	n/a	FR1	1	R1350D
3324.478	1.616	3324963	WORD	n/a	n/a	VASE	12	10	[0, 0, 0]	n/a	FR1	1	R1350D
3326.094	0.0	3326579	DISTRACT_START	n/a	n/a	n/a	-999	10	[0, 0, 0]	n/a	FR1	1	R1350D
3326.094	0.0	3326579	ENCODING_END	n/a	n/a	n/a	-999	10	[0, 0, 0]	n/a	FR1	1	R1350D
3326.094	0.001	3326579	WORD_OFF	n/a	n/a	VASE	12	10	[0, 0, 0]	n/a	FR1	1	R1350D
3326.095	0.015	3326580	START	n/a	n/a	n/a	-999	10	[-999, -999, -999]	n/a	FR1	1	R1350D
3326.11	4.4	3326595	PROB	4.4	n/a	n/a	-999	10	[3, 6, 5]	14	FR1	1	R1350D
3330.51	2.618	3330995	PROB	2.618	n/a	n/a	-999	10	[7, 2, 8]	17	FR1	1	R1350D
3333.128	2.233	3333613	PROB	2.233	n/a	n/a	-999	10	[5, 1, 1]	7	FR1	1	R1350D
3335.361	3.967	3335846	PROB	3.967	n/a	n/a	-999	10	[6, 2, 2]	10	FR1	1	R1350D
3339.328	3.619	3339812	PROB	3.619	n/a	n/a	-999	10	[3, 7, 9]	19	FR1	1	R1350D
3342.947	3.084	3343431	PROB	3.084	n/a	n/a	-999	10	[8, 7, 1]	16	FR1	1	R1350D
3346.031	2.672	3346515	PROB	2.672	n/a	n/a	-999	10	[4, 1, 5]	10	FR1	1	R1350D
3348.703	0.011	3349187	STOP	n/a	n/a	n/a	-999	10	[-999, -999, -999]	n/a	FR1	1	R1350D
3348.714	0.628	3349198	DISTRACT_END	n/a	n/a	n/a	-999	10	[0, 0, 0]	n/a	FR1	1	R1350D
3349.342	1.673	3349826	RETRIEVAL_ORIENT_START	n/a	n/a	n/a	-999	10	[0, 0, 0]	n/a	FR1	1	R1350D
3351.015	0.0	3351499	RETRIEVAL_ORIENT_END	n/a	n/a	n/a	-999	10	[0, 0, 0]	n/a	FR1	1	R1350D
3351.015	3.583	3351499	REC_START	n/a	n/a	n/a	-999	10	[0, 0, 0]	n/a	FR1	1	R1350D
3354.598	1.985	3355082	REC_WORD	1.985	n/a	BARN	5	10	[0, 0, 0]	n/a	FR1	1	R1350D
3356.583	1.752	3357067	REC_WORD	1.752	n/a	SHIP	6	10	[0, 0, 0]	n/a	FR1	1	R1350D
3358.335	2.886	3358818	REC_WORD	2.886	n/a	KITE	1	10	[0, 0, 0]	n/a	FR1	1	R1350D
3361.221	2.677	3361704	REC_WORD	2.677	n/a	SHELL	3	10	[0, 0, 0]	n/a	FR1	1	R1350D
3363.898	2.615	3364381	REC_WORD	2.615	n/a	NET	2	10	[0, 0, 0]	n/a	FR1	1	R1350D
3366.513	4.678	3366996	REC_WORD	4.678	n/a	SHOE	7	10	[0, 0, 0]	n/a	FR1	1	R1350D
3371.191	9.836	3371674	REC_WORD	9.836	n/a	LEG	8	10	[0, 0, 0]	n/a	FR1	1	R1350D
3381.027	0.0	3381509	REC_END	n/a	n/a	n/a	-999	10	[0, 0, 0]	n/a	FR1	1	R1350D
3381.027	0.016	3381509	TRIAL_END	n/a	n/a	n/a	-999	10	[0, 0, 0]	n/a	FR1	1	R1350D
3381.043	0.0	3381525	TRIAL_START	n/a	n/a	n/a	-999	11	[0, 0, 0]	n/a	FR1	1	R1350D
3381.043	0.0	3381525	TRIAL	n/a	n/a	n/a	-999	11	[0, 0, 0]	n/a	FR1	1	R1350D
3381.043	3.744	3381525	WAITING_START	n/a	n/a	n/a	-999	11	[0, 0, 0]	n/a	FR1	1	R1350D
3384.787	0.0	3385269	WAITING_END	n/a	n/a	n/a	-999	11	[0, 0, 0]	n/a	FR1	1	R1350D
3384.787	10.43	3385269	COUNTDOWN_START	n/a	n/a	n/a	-999	11	[0, 0, 0]	n/a	FR1	1	R1350D
3395.217	0.0	3395699	ORIENT_START	n/a	n/a	n/a	-999	11	[0, 0, 0]	n/a	FR1	1	R1350D
3395.217	1.255	3395699	COUNTDOWN_END	n/a	n/a	n/a	-999	11	[0, 0, 0]	n/a	FR1	1	R1350D
3396.472	0.001	3396954	ORIENT_END	n/a	n/a	n/a	-999	11	[0, 0, 0]	n/a	FR1	1	R1350D
3396.473	1.051	3396955	ENCODING_START	n/a	n/a	n/a	-999	11	[0, 0, 0]	n/a	FR1	1	R1350D
3397.524	1.633	3398005	WORD	n/a	n/a	PASTE	1	11	[0, 0, 0]	n/a	FR1	1	R1350D
3399.157	0.999	3399638	WORD_OFF	n/a	n/a	PASTE	1	11	[0, 0, 0]	n/a	FR1	1	R1350D
3400.156	1.634	3400637	WORD	n/a	n/a	CLIFF	2	11	[0, 0, 0]	n/a	FR1	1	R1350D
3401.79	1.144	3402271	WORD_OFF	n/a	n/a	CLIFF	2	11	[0, 0, 0]	n/a	FR1	1	R1350D
3402.934	1.623	3403415	WORD	n/a	n/a	CART	3	11	[0, 0, 0]	n/a	FR1	1	R1350D
3404.557	0.942	3405038	WORD_OFF	n/a	n/a	CART	3	11	[0, 0, 0]	n/a	FR1	1	R1350D
3405.499	1.626	3405980	WORD	n/a	n/a	FILM	4	11	[0, 0, 0]	n/a	FR1	1	R1350D
3407.125	1.015	3407606	WORD_OFF	n/a	n/a	FILM	4	11	[0, 0, 0]	n/a	FR1	1	R1350D
3408.14	1.635	3408621	WORD	n/a	n/a	CHEEK	5	11	[0, 0, 0]	n/a	FR1	1	R1350D
3409.775	0.883	3410256	WORD_OFF	n/a	n/a	CHEEK	5	11	[0, 0, 0]	n/a	FR1	1	R1350D
3410.658	1.634	3411139	WORD	n/a	n/a	STRING	6	11	[0, 0, 0]	n/a	FR1	1	R1350D
3412.292	1.055	3412773	WORD_OFF	n/a	n/a	STRING	6	11	[0, 0, 0]	n/a	FR1	1	R1350D
3413.347	1.613	3413828	WORD	n/a	n/a	PURSE	7	11	[0, 0, 0]	n/a	FR1	1	R1350D
3414.96	1.083	3415441	WORD_OFF	n/a	n/a	PURSE	7	11	[0, 0, 0]	n/a	FR1	1	R1350D
3416.043	1.633	3416524	WORD	n/a	n/a	SPARK	8	11	[0, 0, 0]	n/a	FR1	1	R1350D
3417.676	0.765	3418156	WORD_OFF	n/a	n/a	SPARK	8	11	[0, 0, 0]	n/a	FR1	1	R1350D
3418.441	1.637	3418921	WORD	n/a	n/a	VINE	9	11	[0, 0, 0]	n/a	FR1	1	R1350D
3420.078	0.854	3420558	WORD_OFF	n/a	n/a	VINE	9	11	[0, 0, 0]	n/a	FR1	1	R1350D
3420.932	1.628	3421412	WORD	n/a	n/a	PEN	10	11	[0, 0, 0]	n/a	FR1	1	R1350D
3422.56	0.769	3423040	WORD_OFF	n/a	n/a	PEN	10	11	[0, 0, 0]	n/a	FR1	1	R1350D
3423.329	1.633	3423809	WORD	n/a	n/a	SNOW	11	11	[0, 0, 0]	n/a	FR1	1	R1350D
3424.962	0.961	3425442	WORD_OFF	n/a	n/a	SNOW	11	11	[0, 0, 0]	n/a	FR1	1	R1350D
3425.923	1.622	3426403	WORD	n/a	n/a	HOOK	12	11	[0, 0, 0]	n/a	FR1	1	R1350D
3427.545	0.0	3428025	ENCODING_END	n/a	n/a	n/a	-999	11	[0, 0, 0]	n/a	FR1	1	R1350D
3427.545	0.0	3428025	DISTRACT_START	n/a	n/a	n/a	-999	11	[0, 0, 0]	n/a	FR1	1	R1350D
3427.545	0.001	3428025	WORD_OFF	n/a	n/a	HOOK	12	11	[0, 0, 0]	n/a	FR1	1	R1350D
3427.546	0.015	3428026	START	n/a	n/a	n/a	-999	11	[-999, -999, -999]	n/a	FR1	1	R1350D
3427.561	3.552	3428041	PROB	3.552	n/a	n/a	-999	11	[3, 2, 5]	10	FR1	1	R1350D
3431.113	2.95	3431593	PROB	2.95	n/a	n/a	-999	11	[1, 9, 7]	17	FR1	1	R1350D
3434.063	3.068	3434543	PROB	3.068	n/a	n/a	-999	11	[1, 6, 6]	13	FR1	1	R1350D
3437.131	3.449	3437610	PROB	3.449	n/a	n/a	-999	11	[5, 8, 1]	14	FR1	1	R1350D
3440.58	2.901	3441059	PROB	2.901	n/a	n/a	-999	11	[1, 9, 7]	17	FR1	1	R1350D
3443.481	2.434	3443960	PROB	2.434	n/a	n/a	-999	11	[7, 1, 1]	9	FR1	1	R1350D
3445.915	3.361	3446394	PROB	3.361	n/a	n/a	-999	11	[3, 1, 6]	10	FR1	1	R1350D
3449.276	0.006	3449755	STOP	n/a	n/a	n/a	-999	11	[-999, -999, -999]	n/a	FR1	1	R1350D
3449.282	0.622	3449761	DISTRACT_END	n/a	n/a	n/a	-999	11	[0, 0, 0]	n/a	FR1	1	R1350D
3449.904	1.712	3450383	RETRIEVAL_ORIENT_START	n/a	n/a	n/a	-999	11	[0, 0, 0]	n/a	FR1	1	R1350D
3451.616	0.0	3452095	RETRIEVAL_ORIENT_END	n/a	n/a	n/a	-999	11	[0, 0, 0]	n/a	FR1	1	R1350D
3451.616	2.607	3452095	REC_START	n/a	n/a	n/a	-999	11	[0, 0, 0]	n/a	FR1	1	R1350D
3454.223	0.789	3454702	REC_WORD	0.789	n/a	CHART	-999	11	[0, 0, 0]	n/a	FR1	1	R1350D
3455.012	1.0	3455491	REC_WORD	1.0	n/a	SHOCK	-999	11	[0, 0, 0]	n/a	FR1	1	R1350D
3456.012	1.118	3456490	REC_WORD_VV	1.118	n/a	<>	-999	11	[0, 0, 0]	n/a	FR1	1	R1350D
3457.13	7.246	3457608	REC_WORD	7.246	n/a	VINE	9	11	[0, 0, 0]	n/a	FR1	1	R1350D
3464.376	1.0	3464854	REC_WORD_VV	1.0	n/a	<>	-999	11	[0, 0, 0]	n/a	FR1	1	R1350D
3465.376	0.715	3465854	REC_WORD_VV	0.715	n/a	<>	-999	11	[0, 0, 0]	n/a	FR1	1	R1350D
3466.091	0.507	3466569	REC_WORD	0.507	n/a	SHOCK	-999	11	[0, 0, 0]	n/a	FR1	1	R1350D
3466.598	9.168	3467076	REC_WORD	9.168	n/a	VINE	9	11	[0, 0, 0]	n/a	FR1	1	R1350D
3475.766	1.877	3476243	REC_WORD	1.877	n/a	BOY	-999	11	[0, 0, 0]	n/a	FR1	1	R1350D
3477.643	1.0	3478120	REC_WORD_VV	1.0	n/a	<>	-999	11	[0, 0, 0]	n/a	FR1	1	R1350D
3478.643	2.985	3479120	REC_WORD_VV	2.985	n/a	<>	-999	11	[0, 0, 0]	n/a	FR1	1	R1350D
3481.628	0.0	3482105	TRIAL_END	n/a	n/a	n/a	-999	11	[0, 0, 0]	n/a	FR1	1	R1350D
3481.628	0.043	3482105	REC_END	n/a	n/a	n/a	-999	11	[0, 0, 0]	n/a	FR1	1	R1350D
3481.671	0.0	3482148	WAITING_START	n/a	n/a	n/a	-999	12	[0, 0, 0]	n/a	FR1	1	R1350D
3481.671	0.0	3482148	TRIAL	n/a	n/a	n/a	-999	12	[0, 0, 0]	n/a	FR1	1	R1350D
3481.671	2.684	3482148	TRIAL_START	n/a	n/a	n/a	-999	12	[0, 0, 0]	n/a	FR1	1	R1350D
3484.355	0.0	3484832	WAITING_END	n/a	n/a	n/a	-999	12	[0, 0, 0]	n/a	FR1	1	R1350D
3484.355	10.43	3484832	COUNTDOWN_START	n/a	n/a	n/a	-999	12	[0, 0, 0]	n/a	FR1	1	R1350D
3494.785	0.0	3495261	COUNTDOWN_END	n/a	n/a	n/a	-999	12	[0, 0, 0]	n/a	FR1	1	R1350D
3494.785	1.056	3495261	ORIENT_START	n/a	n/a	n/a	-999	12	[0, 0, 0]	n/a	FR1	1	R1350D
3495.841	0.0	3496317	ORIENT_END	n/a	n/a	n/a	-999	12	[0, 0, 0]	n/a	FR1	1	R1350D
3495.841	0.845	3496317	ENCODING_START	n/a	n/a	n/a	-999	12	[0, 0, 0]	n/a	FR1	1	R1350D
3496.686	1.622	3497162	WORD	n/a	n/a	ROSE	1	12	[0, 0, 0]	n/a	FR1	1	R1350D
3498.308	0.847	3498784	WORD_OFF	n/a	n/a	ROSE	1	12	[0, 0, 0]	n/a	FR1	1	R1350D
3499.155	1.636	3499631	WORD	n/a	n/a	COUCH	2	12	[0, 0, 0]	n/a	FR1	1	R1350D
3500.791	1.061	3501267	WORD_OFF	n/a	n/a	COUCH	2	12	[0, 0, 0]	n/a	FR1	1	R1350D
3501.852	1.623	3502328	WORD	n/a	n/a	BLOOM	3	12	[0, 0, 0]	n/a	FR1	1	R1350D
3503.475	0.834	3503951	WORD_OFF	n/a	n/a	BLOOM	3	12	[0, 0, 0]	n/a	FR1	1	R1350D
3504.309	1.633	3504785	WORD	n/a	n/a	POLE	4	12	[0, 0, 0]	n/a	FR1	1	R1350D
3505.942	0.919	3506418	WORD_OFF	n/a	n/a	POLE	4	12	[0, 0, 0]	n/a	FR1	1	R1350D
3506.861	1.632	3507337	WORD	n/a	n/a	CROW	5	12	[0, 0, 0]	n/a	FR1	1	R1350D
3508.493	1.143	3508969	WORD_OFF	n/a	n/a	CROW	5	12	[0, 0, 0]	n/a	FR1	1	R1350D
3509.636	1.624	3510112	WORD	n/a	n/a	WOLF	6	12	[0, 0, 0]	n/a	FR1	1	R1350D
3511.26	0.839	3511736	WORD_OFF	n/a	n/a	WOLF	6	12	[0, 0, 0]	n/a	FR1	1	R1350D
3512.099	1.628	3512575	WORD	n/a	n/a	FOOD	7	12	[0, 0, 0]	n/a	FR1	1	R1350D
3513.727	0.968	3514202	WORD_OFF	n/a	n/a	FOOD	7	12	[0, 0, 0]	n/a	FR1	1	R1350D
3514.695	1.633	3515170	WORD	n/a	n/a	SEAL	8	12	[0, 0, 0]	n/a	FR1	1	R1350D
3516.328	0.865	3516803	WORD_OFF	n/a	n/a	SEAL	8	12	[0, 0, 0]	n/a	FR1	1	R1350D
3517.193	1.635	3517668	WORD	n/a	n/a	PLANE	9	12	[0, 0, 0]	n/a	FR1	1	R1350D
3518.828	0.783	3519303	WORD_OFF	n/a	n/a	PLANE	9	12	[0, 0, 0]	n/a	FR1	1	R1350D
3519.611	1.634	3520086	WORD	n/a	n/a	TREE	10	12	[0, 0, 0]	n/a	FR1	1	R1350D
3521.245	0.868	3521720	WORD_OFF	n/a	n/a	TREE	10	12	[0, 0, 0]	n/a	FR1	1	R1350D
3522.113	1.633	3522588	WORD	n/a	n/a	GATE	11	12	[0, 0, 0]	n/a	FR1	1	R1350D
3523.746	0.788	3524221	WORD_OFF	n/a	n/a	GATE	11	12	[0, 0, 0]	n/a	FR1	1	R1350D
3524.534	1.613	3525009	WORD	n/a	n/a	JAIL	12	12	[0, 0, 0]	n/a	FR1	1	R1350D
3526.147	0.0	3526622	WORD_OFF	n/a	n/a	JAIL	12	12	[0, 0, 0]	n/a	FR1	1	R1350D
3526.147	0.001	3526622	ENCODING_END	n/a	n/a	n/a	-999	12	[0, 0, 0]	n/a	FR1	1	R1350D
3526.148	0.0	3526623	DISTRACT_START	n/a	n/a	n/a	-999	12	[0, 0, 0]	n/a	FR1	1	R1350D
3526.148	0.016	3526623	START	n/a	n/a	n/a	-999	12	[-999, -999, -999]	n/a	FR1	1	R1350D
3526.164	4.984	3526639	PROB	4.984	n/a	n/a	-999	12	[6, 7, 3]	16	FR1	1	R1350D
3531.148	3.549	3531623	PROB	3.549	n/a	n/a	-999	12	[9, 3, 7]	19	FR1	1	R1350D
3534.697	2.402	3535171	PROB	2.402	n/a	n/a	-999	12	[2, 6, 4]	12	FR1	1	R1350D
3537.099	2.599	3537573	PROB	2.599	n/a	n/a	-999	12	[6, 4, 7]	17	FR1	1	R1350D
3539.698	2.818	3540172	PROB	2.818	n/a	n/a	-999	12	[2, 8, 2]	12	FR1	1	R1350D
3542.516	3.535	3542990	PROB	3.535	n/a	n/a	-999	12	[4, 1, 9]	14	FR1	1	R1350D
3546.051	3.393	3546525	PROB	3.393	n/a	n/a	-999	12	[1, 7, 5]	13	FR1	1	R1350D
3549.444	0.006	3549918	STOP	n/a	n/a	n/a	-999	12	[-999, -999, -999]	n/a	FR1	1	R1350D
3549.45	0.584	3549924	DISTRACT_END	n/a	n/a	n/a	-999	12	[0, 0, 0]	n/a	FR1	1	R1350D
3550.034	1.683	3550508	RETRIEVAL_ORIENT_START	n/a	n/a	n/a	-999	12	[0, 0, 0]	n/a	FR1	1	R1350D
3551.717	0.001	3552191	RETRIEVAL_ORIENT_END	n/a	n/a	n/a	-999	12	[0, 0, 0]	n/a	FR1	1	R1350D
3551.718	2.835	3552192	REC_START	n/a	n/a	n/a	-999	12	[0, 0, 0]	n/a	FR1	1	R1350D
3554.553	2.003	3555026	REC_WORD	2.003	n/a	COUCH	2	12	[0, 0, 0]	n/a	FR1	1	R1350D
3556.556	2.529	3557029	REC_WORD	2.529	n/a	BLOOM	3	12	[0, 0, 0]	n/a	FR1	1	R1350D
3559.085	3.219	3559558	REC_WORD	3.219	n/a	ROSE	1	12	[0, 0, 0]	n/a	FR1	1	R1350D
3562.304	3.662	3562777	REC_WORD	3.662	n/a	CROW	5	12	[0, 0, 0]	n/a	FR1	1	R1350D
3565.966	10.223	3566439	REC_WORD	10.223	n/a	JAIL	12	12	[0, 0, 0]	n/a	FR1	1	R1350D
3576.189	0.472	3576661	REC_WORD	0.472	n/a	CHEWED	-999	12	[0, 0, 0]	n/a	FR1	1	R1350D
3576.661	1.871	3577133	REC_WORD	1.871	n/a	FEED	-999	12	[0, 0, 0]	n/a	FR1	1	R1350D
3578.532	3.197	3579004	REC_WORD_VV	3.197	n/a	<>	-999	12	[0, 0, 0]	n/a	FR1	1	R1350D
3581.729	0.0	3582201	REC_END	n/a	n/a	n/a	-999	12	[0, 0, 0]	n/a	FR1	1	R1350D
3581.729	0.016	3582201	TRIAL_END	n/a	n/a	n/a	-999	12	[0, 0, 0]	n/a	FR1	1	R1350D
3581.745	0.001	3582217	TRIAL_START	n/a	n/a	n/a	-999	13	[0, 0, 0]	n/a	FR1	1	R1350D
3581.746	0.0	3582218	TRIAL	n/a	n/a	n/a	-999	13	[0, 0, 0]	n/a	FR1	1	R1350D
3581.746	1.094	3582218	WAITING_START	n/a	n/a	n/a	-999	13	[0, 0, 0]	n/a	FR1	1	R1350D
3582.84	0.0	3583312	COUNTDOWN_START	n/a	n/a	n/a	-999	13	[0, 0, 0]	n/a	FR1	1	R1350D
3582.84	10.429	3583312	WAITING_END	n/a	n/a	n/a	-999	13	[0, 0, 0]	n/a	FR1	1	R1350D
3593.269	0.0	3593740	COUNTDOWN_END	n/a	n/a	n/a	-999	13	[0, 0, 0]	n/a	FR1	1	R1350D
3593.269	1.256	3593740	ORIENT_START	n/a	n/a	n/a	-999	13	[0, 0, 0]	n/a	FR1	1	R1350D
3594.525	0.001	3594996	ORIENT_END	n/a	n/a	n/a	-999	13	[0, 0, 0]	n/a	FR1	1	R1350D
3594.526	1.004	3594997	ENCODING_START	n/a	n/a	n/a	-999	13	[0, 0, 0]	n/a	FR1	1	R1350D
3595.53	1.63	3596001	WORD	n/a	n/a	SQUARE	1	13	[0, 0, 0]	n/a	FR1	1	R1350D
3597.16	1.129	3597631	WORD_OFF	n/a	n/a	SQUARE	1	13	[0, 0, 0]	n/a	FR1	1	R1350D
3598.289	1.62	3598760	WORD	n/a	n/a	OAK	2	13	[0, 0, 0]	n/a	FR1	1	R1350D
3599.909	0.865	3600380	WORD_OFF	n/a	n/a	OAK	2	13	[0, 0, 0]	n/a	FR1	1	R1350D
3600.774	1.636	3601245	WORD	n/a	n/a	LAMB	3	13	[0, 0, 0]	n/a	FR1	1	R1350D
3602.41	0.813	3602881	WORD_OFF	n/a	n/a	LAMB	3	13	[0, 0, 0]	n/a	FR1	1	R1350D
3603.223	1.637	3603694	WORD	n/a	n/a	BAT	4	13	[0, 0, 0]	n/a	FR1	1	R1350D
3604.86	1.035	3605331	WORD_OFF	n/a	n/a	BAT	4	13	[0, 0, 0]	n/a	FR1	1	R1350D
3605.895	1.632	3606366	WORD	n/a	n/a	STORE	5	13	[0, 0, 0]	n/a	FR1	1	R1350D
3607.527	0.873	3607998	WORD_OFF	n/a	n/a	STORE	5	13	[0, 0, 0]	n/a	FR1	1	R1350D
3608.4	1.629	3608871	WORD	n/a	n/a	BOX	6	13	[0, 0, 0]	n/a	FR1	1	R1350D
3610.029	0.827	3610499	WORD_OFF	n/a	n/a	BOX	6	13	[0, 0, 0]	n/a	FR1	1	R1350D
3610.856	1.622	3611326	WORD	n/a	n/a	LIP	7	13	[0, 0, 0]	n/a	FR1	1	R1350D
3612.478	1.052	3612948	WORD_OFF	n/a	n/a	LIP	7	13	[0, 0, 0]	n/a	FR1	1	R1350D
3613.53	1.617	3614000	WORD	n/a	n/a	RAKE	8	13	[0, 0, 0]	n/a	FR1	1	R1350D
3615.147	1.017	3615617	WORD_OFF	n/a	n/a	RAKE	8	13	[0, 0, 0]	n/a	FR1	1	R1350D
3616.164	1.632	3616634	WORD	n/a	n/a	SOUP	9	13	[0, 0, 0]	n/a	FR1	1	R1350D
3617.796	1.119	3618266	WORD_OFF	n/a	n/a	SOUP	9	13	[0, 0, 0]	n/a	FR1	1	R1350D
3618.915	1.632	3619385	WORD	n/a	n/a	NEST	10	13	[0, 0, 0]	n/a	FR1	1	R1350D
3620.547	1.132	3621017	WORD_OFF	n/a	n/a	NEST	10	13	[0, 0, 0]	n/a	FR1	1	R1350D
3621.679	1.635	3622149	WORD	n/a	n/a	SLIME	11	13	[0, 0, 0]	n/a	FR1	1	R1350D
3623.314	1.086	3623784	WORD_OFF	n/a	n/a	SLIME	11	13	[0, 0, 0]	n/a	FR1	1	R1350D
3624.4	1.632	3624870	WORD	n/a	n/a	GLOVE	12	13	[0, 0, 0]	n/a	FR1	1	R1350D
3626.032	0.0	3626502	ENCODING_END	n/a	n/a	n/a	-999	13	[0, 0, 0]	n/a	FR1	1	R1350D
3626.032	0.001	3626502	WORD_OFF	n/a	n/a	GLOVE	12	13	[0, 0, 0]	n/a	FR1	1	R1350D
3626.033	0.0	3626503	DISTRACT_START	n/a	n/a	n/a	-999	13	[0, 0, 0]	n/a	FR1	1	R1350D
3626.033	0.015	3626503	START	n/a	n/a	n/a	-999	13	[-999, -999, -999]	n/a	FR1	1	R1350D
3626.048	3.667	3626518	PROB	3.667	n/a	n/a	-999	13	[6, 4, 8]	18	FR1	1	R1350D
3629.715	2.235	3630184	PROB	2.235	n/a	n/a	-999	13	[1, 8, 2]	11	FR1	1	R1350D
3631.95	2.1	3632419	PROB	2.1	n/a	n/a	-999	13	[4, 4, 1]	9	FR1	1	R1350D
3634.05	2.084	3634519	PROB	2.084	n/a	n/a	-999	13	[1, 1, 5]	7	FR1	1	R1350D
3636.134	4.9	3636603	PROB	4.9	n/a	n/a	-999	13	[3, 9, 1]	13	FR1	1	R1350D
3641.034	4.918	3641503	PROB	4.918	n/a	n/a	-999	13	[7, 5, 5]	17	FR1	1	R1350D
3645.952	3.693	3646421	PROB	3.693	n/a	n/a	-999	13	[3, 9, 8]	20	FR1	1	R1350D
3649.645	0.007	3650113	STOP	n/a	n/a	n/a	-999	13	[-999, -999, -999]	n/a	FR1	1	R1350D
3649.652	0.686	3650120	DISTRACT_END	n/a	n/a	n/a	-999	13	[0, 0, 0]	n/a	FR1	1	R1350D
3650.338	1.682	3650806	RETRIEVAL_ORIENT_START	n/a	n/a	n/a	-999	13	[0, 0, 0]	n/a	FR1	1	R1350D
3652.02	0.0	3652488	RETRIEVAL_ORIENT_END	n/a	n/a	n/a	-999	13	[0, 0, 0]	n/a	FR1	1	R1350D
3652.02	2.45	3652488	REC_START	n/a	n/a	n/a	-999	13	[0, 0, 0]	n/a	FR1	1	R1350D
3654.47	2.486	3654938	REC_WORD	2.486	n/a	SLIME	11	13	[0, 0, 0]	n/a	FR1	1	R1350D
3656.956	3.13	3657424	REC_WORD	3.13	n/a	SOUP	9	13	[0, 0, 0]	n/a	FR1	1	R1350D
3660.086	2.704	3660554	REC_WORD	2.704	n/a	LAMB	3	13	[0, 0, 0]	n/a	FR1	1	R1350D
3662.79	2.672	3663258	REC_WORD	2.672	n/a	BAT	4	13	[0, 0, 0]	n/a	FR1	1	R1350D
3665.462	3.594	3665930	REC_WORD	3.594	n/a	SQUARE	1	13	[0, 0, 0]	n/a	FR1	1	R1350D
3669.056	12.978	3669523	REC_WORD	12.978	n/a	OAK	2	13	[0, 0, 0]	n/a	FR1	1	R1350D
3682.034	0.0	3682501	REC_END	n/a	n/a	n/a	-999	13	[0, 0, 0]	n/a	FR1	1	R1350D
3682.034	0.016	3682501	TRIAL_END	n/a	n/a	n/a	-999	13	[0, 0, 0]	n/a	FR1	1	R1350D
3682.05	0.001	3682517	TRIAL_START	n/a	n/a	n/a	-999	14	[0, 0, 0]	n/a	FR1	1	R1350D
3682.051	0.0	3682518	TRIAL	n/a	n/a	n/a	-999	14	[0, 0, 0]	n/a	FR1	1	R1350D
3682.051	2.142	3682518	WAITING_START	n/a	n/a	n/a	-999	14	[0, 0, 0]	n/a	FR1	1	R1350D
3684.193	0.0	3684660	WAITING_END	n/a	n/a	n/a	-999	14	[0, 0, 0]	n/a	FR1	1	R1350D
3684.193	10.428	3684660	COUNTDOWN_START	n/a	n/a	n/a	-999	14	[0, 0, 0]	n/a	FR1	1	R1350D
3694.621	0.0	3695087	ORIENT_START	n/a	n/a	n/a	-999	14	[0, 0, 0]	n/a	FR1	1	R1350D
3694.621	1.039	3695087	COUNTDOWN_END	n/a	n/a	n/a	-999	14	[0, 0, 0]	n/a	FR1	1	R1350D
3695.66	0.001	3696126	ORIENT_END	n/a	n/a	n/a	-999	14	[0, 0, 0]	n/a	FR1	1	R1350D
3695.661	1.099	3696127	ENCODING_START	n/a	n/a	n/a	-999	14	[0, 0, 0]	n/a	FR1	1	R1350D
3696.76	1.634	3697226	WORD	n/a	n/a	SKUNK	1	14	[0, 0, 0]	n/a	FR1	1	R1350D
3698.394	0.867	3698860	WORD_OFF	n/a	n/a	SKUNK	1	14	[0, 0, 0]	n/a	FR1	1	R1350D
3699.261	1.634	3699727	WORD	n/a	n/a	TRAIN	2	14	[0, 0, 0]	n/a	FR1	1	R1350D
3700.895	0.968	3701361	WORD_OFF	n/a	n/a	TRAIN	2	14	[0, 0, 0]	n/a	FR1	1	R1350D
3701.863	1.632	3702329	WORD	n/a	n/a	JUICE	3	14	[0, 0, 0]	n/a	FR1	1	R1350D
3703.495	0.915	3703961	WORD_OFF	n/a	n/a	JUICE	3	14	[0, 0, 0]	n/a	FR1	1	R1350D
3704.41	1.62	3704876	WORD	n/a	n/a	JUDGE	4	14	[0, 0, 0]	n/a	FR1	1	R1350D
3706.03	1.04	3706496	WORD_OFF	n/a	n/a	JUDGE	4	14	[0, 0, 0]	n/a	FR1	1	R1350D
3707.07	1.626	3707535	WORD	n/a	n/a	ARK	5	14	[0, 0, 0]	n/a	FR1	1	R1350D
3708.696	0.864	3709161	WORD_OFF	n/a	n/a	ARK	5	14	[0, 0, 0]	n/a	FR1	1	R1350D
3709.56	1.621	3710025	WORD	n/a	n/a	FACE	6	14	[0, 0, 0]	n/a	FR1	1	R1350D
3711.181	0.905	3711646	WORD_OFF	n/a	n/a	FACE	6	14	[0, 0, 0]	n/a	FR1	1	R1350D
3712.086	1.628	3712551	WORD	n/a	n/a	PIN	7	14	[0, 0, 0]	n/a	FR1	1	R1350D
3713.714	0.883	3714179	WORD_OFF	n/a	n/a	PIN	7	14	[0, 0, 0]	n/a	FR1	1	R1350D
3714.597	1.634	3715062	WORD	n/a	n/a	PRINCE	8	14	[0, 0, 0]	n/a	FR1	1	R1350D
3716.231	1.038	3716696	WORD_OFF	n/a	n/a	PRINCE	8	14	[0, 0, 0]	n/a	FR1	1	R1350D
3717.269	1.629	3717734	WORD	n/a	n/a	FOX	9	14	[0, 0, 0]	n/a	FR1	1	R1350D
3718.898	0.935	3719363	WORD_OFF	n/a	n/a	FOX	9	14	[0, 0, 0]	n/a	FR1	1	R1350D
3719.833	1.632	3720298	WORD	n/a	n/a	SPEAR	10	14	[0, 0, 0]	n/a	FR1	1	R1350D
3721.465	0.752	3721930	WORD_OFF	n/a	n/a	SPEAR	10	14	[0, 0, 0]	n/a	FR1	1	R1350D
3722.217	1.632	3722682	WORD	n/a	n/a	CLOCK	11	14	[0, 0, 0]	n/a	FR1	1	R1350D
3723.849	1.113	3724314	WORD_OFF	n/a	n/a	CLOCK	11	14	[0, 0, 0]	n/a	FR1	1	R1350D
3724.962	1.621	3725427	WORD	n/a	n/a	SNAKE	12	14	[0, 0, 0]	n/a	FR1	1	R1350D
3726.583	0.0	3727047	DISTRACT_START	n/a	n/a	n/a	-999	14	[0, 0, 0]	n/a	FR1	1	R1350D
3726.583	0.0	3727047	ENCODING_END	n/a	n/a	n/a	-999	14	[0, 0, 0]	n/a	FR1	1	R1350D
3726.583	0.0	3727047	WORD_OFF	n/a	n/a	SNAKE	12	14	[0, 0, 0]	n/a	FR1	1	R1350D
3726.583	0.016	3727047	START	n/a	n/a	n/a	-999	14	[-999, -999, -999]	n/a	FR1	1	R1350D
3726.599	4.535	3727063	PROB	4.535	n/a	n/a	-999	14	[5, 6, 2]	13	FR1	1	R1350D
3731.134	1.901	3731598	PROB	1.901	n/a	n/a	-999	14	[6, 4, 1]	11	FR1	1	R1350D
3733.035	6.316	3733499	PROB	6.316	n/a	n/a	-999	14	[8, 7, 5]	20	FR1	1	R1350D
3739.351	2.951	3739815	PROB	2.951	n/a	n/a	-999	14	[5, 2, 8]	15	FR1	1	R1350D
3742.302	2.835	3742766	PROB	2.835	n/a	n/a	-999	14	[3, 3, 2]	8	FR1	1	R1350D
3745.137	3.084	3745600	PROB	3.084	n/a	n/a	-999	14	[9, 9, 8]	25	FR1	1	R1350D
3748.221	0.016	3748684	STOP	n/a	n/a	n/a	-999	14	[-999, -999, -999]	n/a	FR1	1	R1350D
3748.237	0.643	3748700	DISTRACT_END	n/a	n/a	n/a	-999	14	[0, 0, 0]	n/a	FR1	1	R1350D
3748.88	1.59	3749343	RETRIEVAL_ORIENT_START	n/a	n/a	n/a	-999	14	[0, 0, 0]	n/a	FR1	1	R1350D
3750.47	0.001	3750933	RETRIEVAL_ORIENT_END	n/a	n/a	n/a	-999	14	[0, 0, 0]	n/a	FR1	1	R1350D
3750.471	2.691	3750934	REC_START	n/a	n/a	n/a	-999	14	[0, 0, 0]	n/a	FR1	1	R1350D
3753.162	3.427	3753625	REC_WORD	3.427	n/a	SKUNK	1	14	[0, 0, 0]	n/a	FR1	1	R1350D
3756.589	3.41	3757052	REC_WORD	3.41	n/a	TRAIN	2	14	[0, 0, 0]	n/a	FR1	1	R1350D
3759.999	2.535	3760462	REC_WORD	2.535	n/a	PIN	7	14	[0, 0, 0]	n/a	FR1	1	R1350D
3762.534	7.25	3762997	REC_WORD	7.25	n/a	PRINCE	8	14	[0, 0, 0]	n/a	FR1	1	R1350D
3769.784	6.536	3770246	REC_WORD	6.536	n/a	FOX	9	14	[0, 0, 0]	n/a	FR1	1	R1350D
3776.32	4.164	3776782	REC_WORD	4.164	n/a	SPRING	-999	14	[0, 0, 0]	n/a	FR1	1	R1350D
3780.484	0.0	3780946	REC_END	n/a	n/a	n/a	-999	14	[0, 0, 0]	n/a	FR1	1	R1350D
3780.484	0.017	3780946	TRIAL_END	n/a	n/a	n/a	-999	14	[0, 0, 0]	n/a	FR1	1	R1350D
3780.501	0.0	3780963	TRIAL_START	n/a	n/a	n/a	-999	15	[0, 0, 0]	n/a	FR1	1	R1350D
3780.501	0.0	3780963	TRIAL	n/a	n/a	n/a	-999	15	[0, 0, 0]	n/a	FR1	1	R1350D
3780.501	2.009	3780963	WAITING_START	n/a	n/a	n/a	-999	15	[0, 0, 0]	n/a	FR1	1	R1350D
3782.51	0.0	3782972	WAITING_END	n/a	n/a	n/a	-999	15	[0, 0, 0]	n/a	FR1	1	R1350D
3782.51	10.428	3782972	COUNTDOWN_START	n/a	n/a	n/a	-999	15	[0, 0, 0]	n/a	FR1	1	R1350D
3792.938	0.001	3793399	COUNTDOWN_END	n/a	n/a	n/a	-999	15	[0, 0, 0]	n/a	FR1	1	R1350D
3792.939	1.074	3793400	ORIENT_START	n/a	n/a	n/a	-999	15	[0, 0, 0]	n/a	FR1	1	R1350D
3794.013	0.0	3794474	ORIENT_END	n/a	n/a	n/a	-999	15	[0, 0, 0]	n/a	FR1	1	R1350D
3794.013	1.031	3794474	ENCODING_START	n/a	n/a	n/a	-999	15	[0, 0, 0]	n/a	FR1	1	R1350D
3795.044	1.635	3795505	WORD	n/a	n/a	MAZE	1	15	[0, 0, 0]	n/a	FR1	1	R1350D
3796.679	0.837	3797140	WORD_OFF	n/a	n/a	MAZE	1	15	[0, 0, 0]	n/a	FR1	1	R1350D
3797.516	1.631	3797977	WORD	n/a	n/a	STEAM	2	15	[0, 0, 0]	n/a	FR1	1	R1350D
3799.147	0.869	3799608	WORD_OFF	n/a	n/a	STEAM	2	15	[0, 0, 0]	n/a	FR1	1	R1350D
3800.016	1.63	3800477	WORD	n/a	n/a	MAIL	3	15	[0, 0, 0]	n/a	FR1	1	R1350D
3801.646	1.103	3802107	WORD_OFF	n/a	n/a	MAIL	3	15	[0, 0, 0]	n/a	FR1	1	R1350D
3802.749	1.631	3803210	WORD	n/a	n/a	SLUSH	4	15	[0, 0, 0]	n/a	FR1	1	R1350D
3804.38	0.943	3804840	WORD_OFF	n/a	n/a	SLUSH	4	15	[0, 0, 0]	n/a	FR1	1	R1350D
3805.323	1.625	3805783	WORD	n/a	n/a	SAIL	5	15	[0, 0, 0]	n/a	FR1	1	R1350D
3806.948	0.917	3807408	WORD_OFF	n/a	n/a	SAIL	5	15	[0, 0, 0]	n/a	FR1	1	R1350D
3807.865	1.633	3808325	WORD	n/a	n/a	SPONGE	6	15	[0, 0, 0]	n/a	FR1	1	R1350D
3809.498	0.877	3809958	WORD_OFF	n/a	n/a	SPONGE	6	15	[0, 0, 0]	n/a	FR1	1	R1350D
3810.375	1.608	3810835	WORD	n/a	n/a	THUMB	7	15	[0, 0, 0]	n/a	FR1	1	R1350D
3811.983	1.113	3812443	WORD_OFF	n/a	n/a	THUMB	7	15	[0, 0, 0]	n/a	FR1	1	R1350D
3813.096	1.636	3813556	WORD	n/a	n/a	ROOT	8	15	[0, 0, 0]	n/a	FR1	1	R1350D
3814.732	1.006	3815192	WORD_OFF	n/a	n/a	ROOT	8	15	[0, 0, 0]	n/a	FR1	1	R1350D
3815.738	1.628	3816198	WORD	n/a	n/a	ROPE	9	15	[0, 0, 0]	n/a	FR1	1	R1350D
3817.366	0.827	3817826	WORD_OFF	n/a	n/a	ROPE	9	15	[0, 0, 0]	n/a	FR1	1	R1350D
3818.193	1.623	3818653	WORD	n/a	n/a	FAN	10	15	[0, 0, 0]	n/a	FR1	1	R1350D
3819.816	0.971	3820276	WORD_OFF	n/a	n/a	FAN	10	15	[0, 0, 0]	n/a	FR1	1	R1350D
3820.787	1.63	3821247	WORD	n/a	n/a	STEAK	11	15	[0, 0, 0]	n/a	FR1	1	R1350D
3822.417	0.957	3822877	WORD_OFF	n/a	n/a	STEAK	11	15	[0, 0, 0]	n/a	FR1	1	R1350D
3823.374	1.611	3823833	WORD	n/a	n/a	MOOSE	12	15	[0, 0, 0]	n/a	FR1	1	R1350D
3824.985	0.0	3825444	WORD_OFF	n/a	n/a	MOOSE	12	15	[0, 0, 0]	n/a	FR1	1	R1350D
3824.985	0.0	3825444	ENCODING_END	n/a	n/a	n/a	-999	15	[0, 0, 0]	n/a	FR1	1	R1350D
3824.985	0.001	3825444	DISTRACT_START	n/a	n/a	n/a	-999	15	[0, 0, 0]	n/a	FR1	1	R1350D
3824.986	0.015	3825445	START	n/a	n/a	n/a	-999	15	[-999, -999, -999]	n/a	FR1	1	R1350D
3825.001	6.018	3825460	PROB	6.018	n/a	n/a	-999	15	[8, 4, 6]	18	FR1	1	R1350D
3831.019	2.366	3831478	PROB	2.366	n/a	n/a	-999	15	[3, 7, 2]	12	FR1	1	R1350D
3833.385	2.434	3833844	PROB	2.434	n/a	n/a	-999	15	[1, 4, 1]	6	FR1	1	R1350D
3835.819	3.051	3836278	PROB	3.051	n/a	n/a	-999	15	[4, 3, 9]	16	FR1	1	R1350D
3838.87	3.684	3839329	PROB	3.684	n/a	n/a	-999	15	[5, 6, 9]	20	FR1	1	R1350D
3842.554	2.927	3843012	PROB	2.927	n/a	n/a	-999	15	[1, 6, 8]	15	FR1	1	R1350D
3845.481	0.006	3845939	STOP	n/a	n/a	n/a	-999	15	[-999, -999, -999]	n/a	FR1	1	R1350D
3845.487	0.675	3845945	DISTRACT_END	n/a	n/a	n/a	-999	15	[0, 0, 0]	n/a	FR1	1	R1350D
3846.162	1.543	3846620	RETRIEVAL_ORIENT_START	n/a	n/a	n/a	-999	15	[0, 0, 0]	n/a	FR1	1	R1350D
3847.705	0.0	3848163	RETRIEVAL_ORIENT_END	n/a	n/a	n/a	-999	15	[0, 0, 0]	n/a	FR1	1	R1350D
3847.705	2.463	3848163	REC_START	n/a	n/a	n/a	-999	15	[0, 0, 0]	n/a	FR1	1	R1350D
3850.168	3.192	3850626	REC_WORD	3.192	n/a	STEAK	11	15	[0, 0, 0]	n/a	FR1	1	R1350D
3853.36	3.794	3853818	REC_WORD	3.794	n/a	MOOSE	12	15	[0, 0, 0]	n/a	FR1	1	R1350D
3857.154	2.632	3857612	REC_WORD	2.632	n/a	THUMB	7	15	[0, 0, 0]	n/a	FR1	1	R1350D
3859.786	3.365	3860244	REC_WORD	3.365	n/a	ROPE	9	15	[0, 0, 0]	n/a	FR1	1	R1350D
3863.151	4.151	3863608	REC_WORD	4.151	n/a	FAN	10	15	[0, 0, 0]	n/a	FR1	1	R1350D
3867.302	1.1	3867759	REC_WORD	1.1	n/a	MAZE	1	15	[0, 0, 0]	n/a	FR1	1	R1350D
3868.402	9.317	3868859	REC_WORD	9.317	n/a	STEAM	2	15	[0, 0, 0]	n/a	FR1	1	R1350D
3877.719	0.0	3878176	REC_END	n/a	n/a	n/a	-999	15	[0, 0, 0]	n/a	FR1	1	R1350D
3877.719	0.017	3878176	TRIAL_END	n/a	n/a	n/a	-999	15	[0, 0, 0]	n/a	FR1	1	R1350D
3877.736	0.0	3878193	TRIAL_START	n/a	n/a	n/a	-999	16	[0, 0, 0]	n/a	FR1	1	R1350D
3877.736	0.001	3878193	TRIAL	n/a	n/a	n/a	-999	16	[0, 0, 0]	n/a	FR1	1	R1350D
3877.737	2.774	3878194	WAITING_START	n/a	n/a	n/a	-999	16	[0, 0, 0]	n/a	FR1	1	R1350D
3880.511	0.0	3880968	WAITING_END	n/a	n/a	n/a	-999	16	[0, 0, 0]	n/a	FR1	1	R1350D
3880.511	10.428	3880968	COUNTDOWN_START	n/a	n/a	n/a	-999	16	[0, 0, 0]	n/a	FR1	1	R1350D
3890.939	0.001	3891395	COUNTDOWN_END	n/a	n/a	n/a	-999	16	[0, 0, 0]	n/a	FR1	1	R1350D
3890.94	1.024	3891396	ORIENT_START	n/a	n/a	n/a	-999	16	[0, 0, 0]	n/a	FR1	1	R1350D
3891.964	0.0	3892420	ENCODING_START	n/a	n/a	n/a	-999	16	[0, 0, 0]	n/a	FR1	1	R1350D
3891.964	0.929	3892420	ORIENT_END	n/a	n/a	n/a	-999	16	[0, 0, 0]	n/a	FR1	1	R1350D
3892.893	1.637	3893349	WORD	n/a	n/a	FLUTE	1	16	[0, 0, 0]	n/a	FR1	1	R1350D
3894.53	0.981	3894986	WORD_OFF	n/a	n/a	FLUTE	1	16	[0, 0, 0]	n/a	FR1	1	R1350D
3895.511	1.62	3895967	WORD	n/a	n/a	BRICK	2	16	[0, 0, 0]	n/a	FR1	1	R1350D
3897.131	1.096	3897587	WORD_OFF	n/a	n/a	BRICK	2	16	[0, 0, 0]	n/a	FR1	1	R1350D
3898.227	1.637	3898683	WORD	n/a	n/a	FROG	3	16	[0, 0, 0]	n/a	FR1	1	R1350D
3899.864	0.832	3900320	WORD_OFF	n/a	n/a	FROG	3	16	[0, 0, 0]	n/a	FR1	1	R1350D
3900.696	1.635	3901151	WORD	n/a	n/a	WORLD	4	16	[0, 0, 0]	n/a	FR1	1	R1350D
3902.331	1.069	3902786	WORD_OFF	n/a	n/a	WORLD	4	16	[0, 0, 0]	n/a	FR1	1	R1350D
3903.4	1.633	3903855	WORD	n/a	n/a	MOUTH	5	16	[0, 0, 0]	n/a	FR1	1	R1350D
3905.033	0.834	3905488	WORD_OFF	n/a	n/a	MOUTH	5	16	[0, 0, 0]	n/a	FR1	1	R1350D
3905.867	1.632	3906322	WORD	n/a	n/a	TOAST	6	16	[0, 0, 0]	n/a	FR1	1	R1350D
3907.499	1.054	3907954	WORD_OFF	n/a	n/a	TOAST	6	16	[0, 0, 0]	n/a	FR1	1	R1350D
3908.553	1.631	3909008	WORD	n/a	n/a	PET	7	16	[0, 0, 0]	n/a	FR1	1	R1350D
3910.184	1.082	3910639	WORD_OFF	n/a	n/a	PET	7	16	[0, 0, 0]	n/a	FR1	1	R1350D
3911.266	1.634	3911721	WORD	n/a	n/a	WHALE	8	16	[0, 0, 0]	n/a	FR1	1	R1350D
3912.9	0.922	3913355	WORD_OFF	n/a	n/a	WHALE	8	16	[0, 0, 0]	n/a	FR1	1	R1350D
3913.822	1.629	3914277	WORD	n/a	n/a	STEM	9	16	[0, 0, 0]	n/a	FR1	1	R1350D
3915.451	1.044	3915906	WORD_OFF	n/a	n/a	STEM	9	16	[0, 0, 0]	n/a	FR1	1	R1350D
3916.495	1.624	3916950	WORD	n/a	n/a	LAKE	10	16	[0, 0, 0]	n/a	FR1	1	R1350D
3918.119	0.873	3918574	WORD_OFF	n/a	n/a	LAKE	10	16	[0, 0, 0]	n/a	FR1	1	R1350D
3918.992	1.626	3919447	WORD	n/a	n/a	FUR	11	16	[0, 0, 0]	n/a	FR1	1	R1350D
3920.618	0.862	3921072	WORD_OFF	n/a	n/a	FUR	11	16	[0, 0, 0]	n/a	FR1	1	R1350D
3921.48	1.623	3921934	WORD	n/a	n/a	FLEA	12	16	[0, 0, 0]	n/a	FR1	1	R1350D
3923.103	0.0	3923557	WORD_OFF	n/a	n/a	FLEA	12	16	[0, 0, 0]	n/a	FR1	1	R1350D
3923.103	0.0	3923557	ENCODING_END	n/a	n/a	n/a	-999	16	[0, 0, 0]	n/a	FR1	1	R1350D
3923.103	0.001	3923557	DISTRACT_START	n/a	n/a	n/a	-999	16	[0, 0, 0]	n/a	FR1	1	R1350D
3923.104	0.015	3923558	START	n/a	n/a	n/a	-999	16	[-999, -999, -999]	n/a	FR1	1	R1350D
3923.119	3.767	3923573	PROB	3.767	n/a	n/a	-999	16	[4, 3, 7]	14	FR1	1	R1350D
3926.886	2.767	3927340	PROB	2.767	n/a	n/a	-999	16	[4, 3, 5]	12	FR1	1	R1350D
3929.653	3.267	3930107	PROB	3.267	n/a	n/a	-999	16	[4, 8, 5]	17	FR1	1	R1350D
3932.92	3.534	3933374	PROB	3.534	n/a	n/a	-999	16	[7, 7, 4]	18	FR1	1	R1350D
3936.454	2.602	3936908	PROB	2.602	n/a	n/a	-999	16	[5, 2, 2]	9	FR1	1	R1350D
3939.056	2.816	3939509	PROB	2.816	n/a	n/a	-999	16	[7, 3, 5]	15	FR1	1	R1350D
3941.872	6.022	3942325	PROB	6.022	n/a	n/a	-999	16	[7, 4, 6]	17	FR1	1	R1350D
3947.894	0.012	3948347	STOP	n/a	n/a	n/a	-999	16	[-999, -999, -999]	n/a	FR1	1	R1350D
3947.906	0.628	3948359	DISTRACT_END	n/a	n/a	n/a	-999	16	[0, 0, 0]	n/a	FR1	1	R1350D
3948.534	1.657	3948987	RETRIEVAL_ORIENT_START	n/a	n/a	n/a	-999	16	[0, 0, 0]	n/a	FR1	1	R1350D
3950.191	0.001	3950644	RETRIEVAL_ORIENT_END	n/a	n/a	n/a	-999	16	[0, 0, 0]	n/a	FR1	1	R1350D
3950.192	3.211	3950645	REC_START	n/a	n/a	n/a	-999	16	[0, 0, 0]	n/a	FR1	1	R1350D
3953.403	0.736	3953856	REC_WORD_VV	0.736	n/a	<>	-999	16	[0, 0, 0]	n/a	FR1	1	R1350D
3954.139	2.653	3954592	REC_WORD	2.653	n/a	FLEA	12	16	[0, 0, 0]	n/a	FR1	1	R1350D
3956.792	5.219	3957245	REC_WORD	5.219	n/a	FUR	11	16	[0, 0, 0]	n/a	FR1	1	R1350D
3962.011	8.632	3962463	REC_WORD	8.632	n/a	STEM	9	16	[0, 0, 0]	n/a	FR1	1	R1350D
3970.643	1.311	3971095	REC_WORD	1.311	n/a	FLUTE	1	16	[0, 0, 0]	n/a	FR1	1	R1350D
3971.954	1.374	3972406	REC_WORD	1.374	n/a	FROG	3	16	[0, 0, 0]	n/a	FR1	1	R1350D
3973.328	3.32	3973780	REC_WORD	3.32	n/a	BRICK	2	16	[0, 0, 0]	n/a	FR1	1	R1350D
3976.648	3.555	3977100	REC_WORD	3.555	n/a	WORLD	4	16	[0, 0, 0]	n/a	FR1	1	R1350D
3980.203	0.001	3980654	REC_END	n/a	n/a	n/a	-999	16	[0, 0, 0]	n/a	FR1	1	R1350D
3980.204	0.013	3980655	TRIAL_END	n/a	n/a	n/a	-999	16	[0, 0, 0]	n/a	FR1	1	R1350D
3980.217	0.0	3980668	TRIAL_START	n/a	n/a	n/a	-999	17	[0, 0, 0]	n/a	FR1	1	R1350D
3980.217	0.0	3980668	TRIAL	n/a	n/a	n/a	-999	17	[0, 0, 0]	n/a	FR1	1	R1350D
3980.217	2.146	3980668	WAITING_START	n/a	n/a	n/a	-999	17	[0, 0, 0]	n/a	FR1	1	R1350D
3982.363	0.0	3982814	WAITING_END	n/a	n/a	n/a	-999	17	[0, 0, 0]	n/a	FR1	1	R1350D
3982.363	10.429	3982814	COUNTDOWN_START	n/a	n/a	n/a	-999	17	[0, 0, 0]	n/a	FR1	1	R1350D
3992.792	0.001	3993243	COUNTDOWN_END	n/a	n/a	n/a	-999	17	[0, 0, 0]	n/a	FR1	1	R1350D
3992.793	1.223	3993244	ORIENT_START	n/a	n/a	n/a	-999	17	[0, 0, 0]	n/a	FR1	1	R1350D
3994.016	0.0	3994467	ENCODING_START	n/a	n/a	n/a	-999	17	[0, 0, 0]	n/a	FR1	1	R1350D
3994.016	0.956	3994467	ORIENT_END	n/a	n/a	n/a	-999	17	[0, 0, 0]	n/a	FR1	1	R1350D
3994.972	1.627	3995423	WORD	n/a	n/a	SINK	1	17	[0, 0, 0]	n/a	FR1	1	R1350D
3996.599	0.792	3997049	WORD_OFF	n/a	n/a	SINK	1	17	[0, 0, 0]	n/a	FR1	1	R1350D
3997.391	1.626	3997841	WORD	n/a	n/a	DART	2	17	[0, 0, 0]	n/a	FR1	1	R1350D
3999.017	1.059	3999467	WORD_OFF	n/a	n/a	DART	2	17	[0, 0, 0]	n/a	FR1	1	R1350D
4000.076	1.624	4000526	WORD	n/a	n/a	PANTS	3	17	[0, 0, 0]	n/a	FR1	1	R1350D
4001.7	0.936	4002150	WORD_OFF	n/a	n/a	PANTS	3	17	[0, 0, 0]	n/a	FR1	1	R1350D
4002.636	1.631	4003086	WORD	n/a	n/a	BUSH	4	17	[0, 0, 0]	n/a	FR1	1	R1350D
4004.267	0.819	4004717	WORD_OFF	n/a	n/a	BUSH	4	17	[0, 0, 0]	n/a	FR1	1	R1350D
4005.086	1.631	4005536	WORD	n/a	n/a	RAT	5	17	[0, 0, 0]	n/a	FR1	1	R1350D
4006.717	1.101	4007167	WORD_OFF	n/a	n/a	RAT	5	17	[0, 0, 0]	n/a	FR1	1	R1350D
4007.818	1.633	4008268	WORD	n/a	n/a	CAR	6	17	[0, 0, 0]	n/a	FR1	1	R1350D
4009.451	0.973	4009901	WORD_OFF	n/a	n/a	CAR	6	17	[0, 0, 0]	n/a	FR1	1	R1350D
4010.424	1.629	4010874	WORD	n/a	n/a	GRASS	7	17	[0, 0, 0]	n/a	FR1	1	R1350D
4012.053	0.975	4012503	WORD_OFF	n/a	n/a	GRASS	7	17	[0, 0, 0]	n/a	FR1	1	R1350D
4013.028	1.624	4013478	WORD	n/a	n/a	YARD	8	17	[0, 0, 0]	n/a	FR1	1	R1350D
4014.652	0.866	4015102	WORD_OFF	n/a	n/a	YARD	8	17	[0, 0, 0]	n/a	FR1	1	R1350D
4015.518	1.618	4015968	WORD	n/a	n/a	TOY	9	17	[0, 0, 0]	n/a	FR1	1	R1350D
4017.136	0.943	4017585	WORD_OFF	n/a	n/a	TOY	9	17	[0, 0, 0]	n/a	FR1	1	R1350D
4018.079	1.624	4018528	WORD	n/a	n/a	BRANCH	10	17	[0, 0, 0]	n/a	FR1	1	R1350D
4019.703	1.096	4020152	WORD_OFF	n/a	n/a	BRANCH	10	17	[0, 0, 0]	n/a	FR1	1	R1350D
4020.799	1.638	4021248	WORD	n/a	n/a	BEAK	11	17	[0, 0, 0]	n/a	FR1	1	R1350D
4022.437	1.066	4022886	WORD_OFF	n/a	n/a	BEAK	11	17	[0, 0, 0]	n/a	FR1	1	R1350D
4023.503	1.635	4023952	WORD	n/a	n/a	DESK	12	17	[0, 0, 0]	n/a	FR1	1	R1350D
4025.138	0.001	4025587	WORD_OFF	n/a	n/a	DESK	12	17	[0, 0, 0]	n/a	FR1	1	R1350D
4025.139	0.0	4025588	ENCODING_END	n/a	n/a	n/a	-999	17	[0, 0, 0]	n/a	FR1	1	R1350D
4025.139	0.0	4025588	DISTRACT_START	n/a	n/a	n/a	-999	17	[0, 0, 0]	n/a	FR1	1	R1350D
4025.139	0.016	4025588	START	n/a	n/a	n/a	-999	17	[-999, -999, -999]	n/a	FR1	1	R1350D
4025.155	6.467	4025604	PROB	6.467	n/a	n/a	-999	17	[7, 5, 4]	16	FR1	1	R1350D
4031.622	2.65	4032071	PROB	2.65	n/a	n/a	-999	17	[2, 8, 5]	15	FR1	1	R1350D
4034.272	3.051	4034721	PROB	3.051	n/a	n/a	-999	17	[6, 3, 6]	15	FR1	1	R1350D
4037.323	3.05	4037771	PROB	3.05	n/a	n/a	-999	17	[7, 1, 3]	12	FR1	1	R1350D
4040.373	3.051	4040821	PROB	3.051	n/a	n/a	-999	17	[9, 5, 1]	15	FR1	1	R1350D
4043.424	2.55	4043872	PROB	2.55	n/a	n/a	-999	17	[4, 2, 1]	7	FR1	1	R1350D
4045.974	0.018	4046422	STOP	n/a	n/a	n/a	-999	17	[-999, -999, -999]	n/a	FR1	1	R1350D
4045.992	0.595	4046440	DISTRACT_END	n/a	n/a	n/a	-999	17	[0, 0, 0]	n/a	FR1	1	R1350D
4046.587	1.555	4047035	RETRIEVAL_ORIENT_START	n/a	n/a	n/a	-999	17	[0, 0, 0]	n/a	FR1	1	R1350D
4048.142	0.001	4048590	RETRIEVAL_ORIENT_END	n/a	n/a	n/a	-999	17	[0, 0, 0]	n/a	FR1	1	R1350D
4048.143	3.925	4048591	REC_START	n/a	n/a	n/a	-999	17	[0, 0, 0]	n/a	FR1	1	R1350D
4052.068	6.371	4052516	REC_WORD_VV	6.371	n/a	<>	-999	17	[0, 0, 0]	n/a	FR1	1	R1350D
4058.439	1.34	4058886	REC_WORD	1.34	n/a	FUR	-999	17	[0, 0, 0]	n/a	FR1	1	R1350D
4059.779	2.385	4060226	REC_WORD	2.385	n/a	DART	2	17	[0, 0, 0]	n/a	FR1	1	R1350D
4062.164	2.397	4062611	REC_WORD	2.397	n/a	PANTS	3	17	[0, 0, 0]	n/a	FR1	1	R1350D
4064.561	13.593	4065008	REC_WORD	13.593	n/a	RAT	5	17	[0, 0, 0]	n/a	FR1	1	R1350D
4078.154	0.001	4078600	REC_END	n/a	n/a	n/a	-999	17	[0, 0, 0]	n/a	FR1	1	R1350D
4078.155	0.014	4078601	TRIAL_END	n/a	n/a	n/a	-999	17	[0, 0, 0]	n/a	FR1	1	R1350D
4078.169	0.0	4078615	WAITING_START	n/a	n/a	n/a	-999	18	[0, 0, 0]	n/a	FR1	1	R1350D
4078.169	0.0	4078615	TRIAL_START	n/a	n/a	n/a	-999	18	[0, 0, 0]	n/a	FR1	1	R1350D
4078.169	2.863	4078615	TRIAL	n/a	n/a	n/a	-999	18	[0, 0, 0]	n/a	FR1	1	R1350D
4081.032	0.0	4081478	WAITING_END	n/a	n/a	n/a	-999	18	[0, 0, 0]	n/a	FR1	1	R1350D
4081.032	10.429	4081478	COUNTDOWN_START	n/a	n/a	n/a	-999	18	[0, 0, 0]	n/a	FR1	1	R1350D
4091.461	0.0	4091907	COUNTDOWN_END	n/a	n/a	n/a	-999	18	[0, 0, 0]	n/a	FR1	1	R1350D
4091.461	1.255	4091907	ORIENT_START	n/a	n/a	n/a	-999	18	[0, 0, 0]	n/a	FR1	1	R1350D
4092.716	0.001	4093162	ORIENT_END	n/a	n/a	n/a	-999	18	[0, 0, 0]	n/a	FR1	1	R1350D
4092.717	0.853	4093163	ENCODING_START	n/a	n/a	n/a	-999	18	[0, 0, 0]	n/a	FR1	1	R1350D
4093.57	1.631	4094015	WORD	n/a	n/a	PARK	1	18	[0, 0, 0]	n/a	FR1	1	R1350D
4095.201	1.0	4095646	WORD_OFF	n/a	n/a	PARK	1	18	[0, 0, 0]	n/a	FR1	1	R1350D
4096.201	1.633	4096646	WORD	n/a	n/a	ELF	2	18	[0, 0, 0]	n/a	FR1	1	R1350D
4097.834	0.994	4098279	WORD_OFF	n/a	n/a	ELF	2	18	[0, 0, 0]	n/a	FR1	1	R1350D
4098.828	1.623	4099273	WORD	n/a	n/a	ZOO	3	18	[0, 0, 0]	n/a	FR1	1	R1350D
4100.451	0.796	4100896	WORD_OFF	n/a	n/a	ZOO	3	18	[0, 0, 0]	n/a	FR1	1	R1350D
4101.247	1.621	4101692	WORD	n/a	n/a	TRAY	4	18	[0, 0, 0]	n/a	FR1	1	R1350D
4102.868	1.104	4103313	WORD_OFF	n/a	n/a	TRAY	4	18	[0, 0, 0]	n/a	FR1	1	R1350D
4103.972	1.63	4104417	WORD	n/a	n/a	STORM	5	18	[0, 0, 0]	n/a	FR1	1	R1350D
4105.602	0.789	4106047	WORD_OFF	n/a	n/a	STORM	5	18	[0, 0, 0]	n/a	FR1	1	R1350D
4106.391	1.629	4106836	WORD	n/a	n/a	HOSE	6	18	[0, 0, 0]	n/a	FR1	1	R1350D
4108.02	0.765	4108465	WORD_OFF	n/a	n/a	HOSE	6	18	[0, 0, 0]	n/a	FR1	1	R1350D
4108.785	1.634	4109230	WORD	n/a	n/a	SLEEVE	7	18	[0, 0, 0]	n/a	FR1	1	R1350D
4110.419	0.991	4110864	WORD_OFF	n/a	n/a	SLEEVE	7	18	[0, 0, 0]	n/a	FR1	1	R1350D
4111.41	1.628	4111855	WORD	n/a	n/a	HOLE	8	18	[0, 0, 0]	n/a	FR1	1	R1350D
4113.038	1.082	4113482	WORD_OFF	n/a	n/a	HOLE	8	18	[0, 0, 0]	n/a	FR1	1	R1350D
4114.12	1.634	4114564	WORD	n/a	n/a	STAR	9	18	[0, 0, 0]	n/a	FR1	1	R1350D
4115.754	0.906	4116198	WORD_OFF	n/a	n/a	STAR	9	18	[0, 0, 0]	n/a	FR1	1	R1350D
4116.66	1.611	4117104	WORD	n/a	n/a	FENCE	10	18	[0, 0, 0]	n/a	FR1	1	R1350D
4118.271	0.777	4118715	WORD_OFF	n/a	n/a	FENCE	10	18	[0, 0, 0]	n/a	FR1	1	R1350D
4119.048	1.623	4119492	WORD	n/a	n/a	WING	11	18	[0, 0, 0]	n/a	FR1	1	R1350D
4120.671	1.065	4121115	WORD_OFF	n/a	n/a	WING	11	18	[0, 0, 0]	n/a	FR1	1	R1350D
4121.736	1.636	4122180	WORD	n/a	n/a	PIE	12	18	[0, 0, 0]	n/a	FR1	1	R1350D
4123.372	0.0	4123816	WORD_OFF	n/a	n/a	PIE	12	18	[0, 0, 0]	n/a	FR1	1	R1350D
4123.372	0.0	4123816	ENCODING_END	n/a	n/a	n/a	-999	18	[0, 0, 0]	n/a	FR1	1	R1350D
4123.372	0.001	4123816	DISTRACT_START	n/a	n/a	n/a	-999	18	[0, 0, 0]	n/a	FR1	1	R1350D
4123.373	0.015	4123817	START	n/a	n/a	n/a	-999	18	[-999, -999, -999]	n/a	FR1	1	R1350D
4123.388	4.602	4123832	PROB	4.602	n/a	n/a	-999	18	[4, 2, 1]	7	FR1	1	R1350D
4127.99	3.25	4128434	PROB	3.25	n/a	n/a	-999	18	[8, 7, 4]	19	FR1	1	R1350D
4131.24	3.267	4131684	PROB	3.267	n/a	n/a	-999	18	[2, 9, 7]	18	FR1	1	R1350D
4134.507	2.367	4134950	PROB	2.367	n/a	n/a	-999	18	[6, 4, 2]	12	FR1	1	R1350D
4136.874	3.085	4137317	PROB	3.085	n/a	n/a	-999	18	[5, 2, 8]	15	FR1	1	R1350D
4139.959	4.249	4140402	PROB	4.249	n/a	n/a	-999	18	[5, 4, 5]	14	FR1	1	R1350D
4144.208	0.018	4144651	STOP	n/a	n/a	n/a	-999	18	[-999, -999, -999]	n/a	FR1	1	R1350D
4144.226	0.605	4144669	DISTRACT_END	n/a	n/a	n/a	-999	18	[0, 0, 0]	n/a	FR1	1	R1350D
4144.831	1.695	4145274	RETRIEVAL_ORIENT_START	n/a	n/a	n/a	-999	18	[0, 0, 0]	n/a	FR1	1	R1350D
4146.526	0.0	4146969	REC_START	n/a	n/a	n/a	-999	18	[0, 0, 0]	n/a	FR1	1	R1350D
4146.526	3.353	4146969	RETRIEVAL_ORIENT_END	n/a	n/a	n/a	-999	18	[0, 0, 0]	n/a	FR1	1	R1350D
4149.879	1.245	4150322	REC_WORD	1.245	n/a	PARK	1	18	[0, 0, 0]	n/a	FR1	1	R1350D
4151.124	2.37	4151567	REC_WORD	2.37	n/a	ELF	2	18	[0, 0, 0]	n/a	FR1	1	R1350D
4153.494	3.352	4153936	REC_WORD	3.352	n/a	ZOO	3	18	[0, 0, 0]	n/a	FR1	1	R1350D
4156.846	1.636	4157288	REC_WORD	1.636	n/a	HOSE	6	18	[0, 0, 0]	n/a	FR1	1	R1350D
4158.482	4.685	4158924	REC_WORD	4.685	n/a	HOLE	8	18	[0, 0, 0]	n/a	FR1	1	R1350D
4163.167	6.031	4163609	REC_WORD	6.031	n/a	WING	11	18	[0, 0, 0]	n/a	FR1	1	R1350D
4169.198	1.811	4169640	REC_WORD	1.811	n/a	PIE	12	18	[0, 0, 0]	n/a	FR1	1	R1350D
4171.009	0.871	4171450	REC_WORD	0.871	n/a	APPLEPIE	-999	18	[0, 0, 0]	n/a	FR1	1	R1350D
4171.88	0.8	4172321	REC_WORD	0.8	n/a	PIE	12	18	[0, 0, 0]	n/a	FR1	1	R1350D
4172.68	3.859	4173121	REC_WORD_VV	3.859	n/a	<>	-999	18	[0, 0, 0]	n/a	FR1	1	R1350D
4176.539	0.0	4176980	REC_END	n/a	n/a	n/a	-999	18	[0, 0, 0]	n/a	FR1	1	R1350D
4176.539	0.014	4176980	TRIAL_END	n/a	n/a	n/a	-999	18	[0, 0, 0]	n/a	FR1	1	R1350D
4176.553	0.0	4176994	TRIAL_START	n/a	n/a	n/a	-999	19	[0, 0, 0]	n/a	FR1	1	R1350D
4176.553	0.0	4176994	TRIAL	n/a	n/a	n/a	-999	19	[0, 0, 0]	n/a	FR1	1	R1350D
4176.553	1.979	4176994	WAITING_START	n/a	n/a	n/a	-999	19	[0, 0, 0]	n/a	FR1	1	R1350D
4178.532	0.0	4178973	WAITING_END	n/a	n/a	n/a	-999	19	[0, 0, 0]	n/a	FR1	1	R1350D
4178.532	10.429	4178973	COUNTDOWN_START	n/a	n/a	n/a	-999	19	[0, 0, 0]	n/a	FR1	1	R1350D
4188.961	0.001	4189402	COUNTDOWN_END	n/a	n/a	n/a	-999	19	[0, 0, 0]	n/a	FR1	1	R1350D
4188.962	1.206	4189403	ORIENT_START	n/a	n/a	n/a	-999	19	[0, 0, 0]	n/a	FR1	1	R1350D
4190.168	0.001	4190608	ORIENT_END	n/a	n/a	n/a	-999	19	[0, 0, 0]	n/a	FR1	1	R1350D
4190.169	0.809	4190609	ENCODING_START	n/a	n/a	n/a	-999	19	[0, 0, 0]	n/a	FR1	1	R1350D
4190.978	1.623	4191418	WORD	n/a	n/a	BAG	1	19	[0, 0, 0]	n/a	FR1	1	R1350D
4192.601	0.823	4193041	WORD_OFF	n/a	n/a	BAG	1	19	[0, 0, 0]	n/a	FR1	1	R1350D
4193.424	1.629	4193864	WORD	n/a	n/a	PEAR	2	19	[0, 0, 0]	n/a	FR1	1	R1350D
4195.053	0.989	4195493	WORD_OFF	n/a	n/a	PEAR	2	19	[0, 0, 0]	n/a	FR1	1	R1350D
4196.042	1.627	4196482	WORD	n/a	n/a	JEEP	3	19	[0, 0, 0]	n/a	FR1	1	R1350D
4197.669	0.762	4198109	WORD_OFF	n/a	n/a	JEEP	3	19	[0, 0, 0]	n/a	FR1	1	R1350D
4198.431	1.623	4198871	WORD	n/a	n/a	POOL	4	19	[0, 0, 0]	n/a	FR1	1	R1350D
4200.054	1.128	4200494	WORD_OFF	n/a	n/a	POOL	4	19	[0, 0, 0]	n/a	FR1	1	R1350D
4201.182	1.621	4201622	WORD	n/a	n/a	BOOT	5	19	[0, 0, 0]	n/a	FR1	1	R1350D
4202.803	0.987	4203243	WORD_OFF	n/a	n/a	BOOT	5	19	[0, 0, 0]	n/a	FR1	1	R1350D
4203.79	1.63	4204230	WORD	n/a	n/a	SUIT	6	19	[0, 0, 0]	n/a	FR1	1	R1350D
4205.42	0.82	4205860	WORD_OFF	n/a	n/a	SUIT	6	19	[0, 0, 0]	n/a	FR1	1	R1350D
4206.24	1.631	4206680	WORD	n/a	n/a	SALT	7	19	[0, 0, 0]	n/a	FR1	1	R1350D
4207.871	0.796	4208311	WORD_OFF	n/a	n/a	SALT	7	19	[0, 0, 0]	n/a	FR1	1	R1350D
4208.667	1.637	4209107	WORD	n/a	n/a	CLOUD	8	19	[0, 0, 0]	n/a	FR1	1	R1350D
4210.304	0.899	4210743	WORD_OFF	n/a	n/a	CLOUD	8	19	[0, 0, 0]	n/a	FR1	1	R1350D
4211.203	1.635	4211642	WORD	n/a	n/a	RAIN	9	19	[0, 0, 0]	n/a	FR1	1	R1350D
4212.838	0.912	4213277	WORD_OFF	n/a	n/a	RAIN	9	19	[0, 0, 0]	n/a	FR1	1	R1350D
4213.75	1.622	4214189	WORD	n/a	n/a	CUBE	10	19	[0, 0, 0]	n/a	FR1	1	R1350D
4215.372	0.761	4215811	WORD_OFF	n/a	n/a	CUBE	10	19	[0, 0, 0]	n/a	FR1	1	R1350D
4216.133	1.623	4216572	WORD	n/a	n/a	STOOL	11	19	[0, 0, 0]	n/a	FR1	1	R1350D
4217.756	0.795	4218195	WORD_OFF	n/a	n/a	STOOL	11	19	[0, 0, 0]	n/a	FR1	1	R1350D
4218.551	1.623	4218990	WORD	n/a	n/a	BOAT	12	19	[0, 0, 0]	n/a	FR1	1	R1350D
4220.174	0.0	4220613	WORD_OFF	n/a	n/a	BOAT	12	19	[0, 0, 0]	n/a	FR1	1	R1350D
4220.174	0.0	4220613	ENCODING_END	n/a	n/a	n/a	-999	19	[0, 0, 0]	n/a	FR1	1	R1350D
4220.174	0.001	4220613	DISTRACT_START	n/a	n/a	n/a	-999	19	[0, 0, 0]	n/a	FR1	1	R1350D
4220.175	0.015	4220614	START	n/a	n/a	n/a	-999	19	[-999, -999, -999]	n/a	FR1	1	R1350D
4220.19	4.317	4220629	PROB	4.317	n/a	n/a	-999	19	[3, 1, 4]	8	FR1	1	R1350D
4224.507	2.884	4224946	PROB	2.884	n/a	n/a	-999	19	[4, 8, 5]	17	FR1	1	R1350D
4227.391	3.367	4227830	PROB	3.367	n/a	n/a	-999	19	[8, 6, 4]	18	FR1	1	R1350D
4230.758	3.501	4231196	PROB	3.501	n/a	n/a	-999	19	[4, 2, 8]	14	FR1	1	R1350D
4234.259	3.133	4234697	PROB	3.133	n/a	n/a	-999	19	[6, 3, 3]	12	FR1	1	R1350D
4237.392	3.31	4237830	PROB	3.31	n/a	n/a	-999	19	[5, 7, 2]	14	FR1	1	R1350D
4240.702	0.008	4241140	STOP	n/a	n/a	n/a	-999	19	[-999, -999, -999]	n/a	FR1	1	R1350D
4240.71	0.672	4241148	DISTRACT_END	n/a	n/a	n/a	-999	19	[0, 0, 0]	n/a	FR1	1	R1350D
4241.382	1.596	4241820	RETRIEVAL_ORIENT_START	n/a	n/a	n/a	-999	19	[0, 0, 0]	n/a	FR1	1	R1350D
4242.978	0.0	4243416	REC_START	n/a	n/a	n/a	-999	19	[0, 0, 0]	n/a	FR1	1	R1350D
4242.978	2.33	4243416	RETRIEVAL_ORIENT_END	n/a	n/a	n/a	-999	19	[0, 0, 0]	n/a	FR1	1	R1350D
4245.308	1.979	4245746	REC_WORD	1.979	n/a	CLOUD	8	19	[0, 0, 0]	n/a	FR1	1	R1350D
4247.287	2.799	4247725	REC_WORD	2.799	n/a	SALT	7	19	[0, 0, 0]	n/a	FR1	1	R1350D
4250.086	2.5	4250523	REC_WORD	2.5	n/a	BOAT	12	19	[0, 0, 0]	n/a	FR1	1	R1350D
4252.586	3.65	4253023	REC_WORD	3.65	n/a	CUBE	10	19	[0, 0, 0]	n/a	FR1	1	R1350D
4256.236	0.777	4256673	REC_WORD	0.777	n/a	JEEP	3	19	[0, 0, 0]	n/a	FR1	1	R1350D
4257.013	1.725	4257450	REC_WORD_VV	1.725	n/a	<>	-999	19	[0, 0, 0]	n/a	FR1	1	R1350D
4258.738	3.642	4259175	REC_WORD	3.642	n/a	BAG	1	19	[0, 0, 0]	n/a	FR1	1	R1350D
4262.38	0.681	4262817	REC_WORD	0.681	n/a	PEAR	2	19	[0, 0, 0]	n/a	FR1	1	R1350D
4263.061	9.931	4263498	REC_WORD_VV	9.931	n/a	<>	-999	19	[0, 0, 0]	n/a	FR1	1	R1350D
4272.992	0.0	4273428	REC_END	n/a	n/a	n/a	-999	19	[0, 0, 0]	n/a	FR1	1	R1350D
4272.992	0.017	4273428	TRIAL_END	n/a	n/a	n/a	-999	19	[0, 0, 0]	n/a	FR1	1	R1350D
4273.009	0.0	4273445	TRIAL_START	n/a	n/a	n/a	-999	20	[0, 0, 0]	n/a	FR1	1	R1350D
4273.009	0.0	4273445	TRIAL	n/a	n/a	n/a	-999	20	[0, 0, 0]	n/a	FR1	1	R1350D
4273.009	2.092	4273445	WAITING_START	n/a	n/a	n/a	-999	20	[0, 0, 0]	n/a	FR1	1	R1350D
4275.101	0.0	4275537	WAITING_END	n/a	n/a	n/a	-999	20	[0, 0, 0]	n/a	FR1	1	R1350D
4275.101	10.429	4275537	COUNTDOWN_START	n/a	n/a	n/a	-999	20	[0, 0, 0]	n/a	FR1	1	R1350D
4285.53	0.0	4285966	COUNTDOWN_END	n/a	n/a	n/a	-999	20	[0, 0, 0]	n/a	FR1	1	R1350D
4285.53	1.238	4285966	ORIENT_START	n/a	n/a	n/a	-999	20	[0, 0, 0]	n/a	FR1	1	R1350D
4286.768	0.001	4287203	ORIENT_END	n/a	n/a	n/a	-999	20	[0, 0, 0]	n/a	FR1	1	R1350D
4286.769	1.036	4287204	ENCODING_START	n/a	n/a	n/a	-999	20	[0, 0, 0]	n/a	FR1	1	R1350D
4287.805	1.631	4288240	WORD	n/a	n/a	CHALK	1	20	[0, 0, 0]	n/a	FR1	1	R1350D
4289.436	0.903	4289871	WORD_OFF	n/a	n/a	CHALK	1	20	[0, 0, 0]	n/a	FR1	1	R1350D
4290.339	1.631	4290774	WORD	n/a	n/a	PHONE	2	20	[0, 0, 0]	n/a	FR1	1	R1350D
4291.97	1.113	4292405	WORD_OFF	n/a	n/a	PHONE	2	20	[0, 0, 0]	n/a	FR1	1	R1350D
4293.083	1.62	4293518	WORD	n/a	n/a	FISH	3	20	[0, 0, 0]	n/a	FR1	1	R1350D
4294.703	0.916	4295138	WORD_OFF	n/a	n/a	FISH	3	20	[0, 0, 0]	n/a	FR1	1	R1350D
4295.619	1.634	4296054	WORD	n/a	n/a	TOAD	4	20	[0, 0, 0]	n/a	FR1	1	R1350D
4297.253	0.911	4297688	WORD_OFF	n/a	n/a	TOAD	4	20	[0, 0, 0]	n/a	FR1	1	R1350D
4298.164	1.623	4298599	WORD	n/a	n/a	SUN	5	20	[0, 0, 0]	n/a	FR1	1	R1350D
4299.787	0.907	4300222	WORD_OFF	n/a	n/a	SUN	5	20	[0, 0, 0]	n/a	FR1	1	R1350D
4300.694	1.627	4301129	WORD	n/a	n/a	FARM	6	20	[0, 0, 0]	n/a	FR1	1	R1350D
4302.321	1.018	4302756	WORD_OFF	n/a	n/a	FARM	6	20	[0, 0, 0]	n/a	FR1	1	R1350D
4303.339	1.634	4303774	WORD	n/a	n/a	BOOK	7	20	[0, 0, 0]	n/a	FR1	1	R1350D
4304.973	0.766	4305408	WORD_OFF	n/a	n/a	BOOK	7	20	[0, 0, 0]	n/a	FR1	1	R1350D
4305.739	1.633	4306174	WORD	n/a	n/a	CALF	8	20	[0, 0, 0]	n/a	FR1	1	R1350D
4307.372	0.794	4307806	WORD_OFF	n/a	n/a	CALF	8	20	[0, 0, 0]	n/a	FR1	1	R1350D
4308.166	1.623	4308600	WORD	n/a	n/a	GEESE	9	20	[0, 0, 0]	n/a	FR1	1	R1350D
4309.789	1.053	4310223	WORD_OFF	n/a	n/a	GEESE	9	20	[0, 0, 0]	n/a	FR1	1	R1350D
4310.842	1.631	4311276	WORD	n/a	n/a	WOOD	10	20	[0, 0, 0]	n/a	FR1	1	R1350D
4312.473	0.774	4312907	WORD_OFF	n/a	n/a	WOOD	10	20	[0, 0, 0]	n/a	FR1	1	R1350D
4313.247	1.626	4313681	WORD	n/a	n/a	CAKE	11	20	[0, 0, 0]	n/a	FR1	1	R1350D
4314.873	1.097	4315307	WORD_OFF	n/a	n/a	CAKE	11	20	[0, 0, 0]	n/a	FR1	1	R1350D
4315.97	1.621	4316404	WORD	n/a	n/a	CANE	12	20	[0, 0, 0]	n/a	FR1	1	R1350D
4317.591	0.0	4318025	WORD_OFF	n/a	n/a	CANE	12	20	[0, 0, 0]	n/a	FR1	1	R1350D
4317.591	0.0	4318025	ENCODING_END	n/a	n/a	n/a	-999	20	[0, 0, 0]	n/a	FR1	1	R1350D
4317.591	0.0	4318025	DISTRACT_START	n/a	n/a	n/a	-999	20	[0, 0, 0]	n/a	FR1	1	R1350D
4317.591	0.016	4318025	START	n/a	n/a	n/a	-999	20	[-999, -999, -999]	n/a	FR1	1	R1350D
4317.607	3.817	4318041	PROB	3.817	n/a	n/a	-999	20	[1, 8, 5]	14	FR1	1	R1350D
4321.424	2.719	4321858	PROB	2.719	n/a	n/a	-999	20	[2, 8, 5]	15	FR1	1	R1350D
4324.143	6.783	4324577	PROB	6.783	n/a	n/a	-999	20	[5, 3, 9]	17	FR1	1	R1350D
4330.926	3.718	4331359	PROB	3.718	n/a	n/a	-999	20	[3, 9, 2]	14	FR1	1	R1350D
4334.644	2.717	4335077	PROB	2.717	n/a	n/a	-999	20	[9, 9, 8]	25	FR1	1	R1350D
4337.361	3.033	4337794	PROB	3.033	n/a	n/a	-999	20	[5, 7, 3]	15	FR1	1	R1350D
4340.394	0.017	4340827	STOP	n/a	n/a	n/a	-999	20	[-999, -999, -999]	n/a	FR1	1	R1350D
4340.411	0.655	4340844	DISTRACT_END	n/a	n/a	n/a	-999	20	[0, 0, 0]	n/a	FR1	1	R1350D
4341.066	1.696	4341499	RETRIEVAL_ORIENT_START	n/a	n/a	n/a	-999	20	[0, 0, 0]	n/a	FR1	1	R1350D
4342.762	0.0	4343195	RETRIEVAL_ORIENT_END	n/a	n/a	n/a	-999	20	[0, 0, 0]	n/a	FR1	1	R1350D
4342.762	3.313	4343195	REC_START	n/a	n/a	n/a	-999	20	[0, 0, 0]	n/a	FR1	1	R1350D
4346.075	2.079	4346507	REC_WORD	2.079	n/a	FARM	6	20	[0, 0, 0]	n/a	FR1	1	R1350D
4348.154	2.615	4348586	REC_WORD	2.615	n/a	BOOK	7	20	[0, 0, 0]	n/a	FR1	1	R1350D
4350.769	10.146	4351201	REC_WORD	10.146	n/a	CALF	8	20	[0, 0, 0]	n/a	FR1	1	R1350D
4360.915	2.078	4361347	REC_WORD	2.078	n/a	PHONE	2	20	[0, 0, 0]	n/a	FR1	1	R1350D
4362.993	9.782	4363425	REC_WORD	9.782	n/a	FISH	3	20	[0, 0, 0]	n/a	FR1	1	R1350D
4372.775	0.0	4373206	REC_END	n/a	n/a	n/a	-999	20	[0, 0, 0]	n/a	FR1	1	R1350D
4372.775	0.014	4373206	TRIAL_END	n/a	n/a	n/a	-999	20	[0, 0, 0]	n/a	FR1	1	R1350D
4372.789	0.0	4373220	TRIAL	n/a	n/a	n/a	-999	21	[0, 0, 0]	n/a	FR1	1	R1350D
4372.789	0.001	4373220	TRIAL_START	n/a	n/a	n/a	-999	21	[0, 0, 0]	n/a	FR1	1	R1350D
4372.79	2.111	4373221	WAITING_START	n/a	n/a	n/a	-999	21	[0, 0, 0]	n/a	FR1	1	R1350D
4374.901	0.0	4375332	WAITING_END	n/a	n/a	n/a	-999	21	[0, 0, 0]	n/a	FR1	1	R1350D
4374.901	10.43	4375332	COUNTDOWN_START	n/a	n/a	n/a	-999	21	[0, 0, 0]	n/a	FR1	1	R1350D
4385.331	0.0	4385761	COUNTDOWN_END	n/a	n/a	n/a	-999	21	[0, 0, 0]	n/a	FR1	1	R1350D
4385.331	1.122	4385761	ORIENT_START	n/a	n/a	n/a	-999	21	[0, 0, 0]	n/a	FR1	1	R1350D
4386.453	0.001	4386883	ORIENT_END	n/a	n/a	n/a	-999	21	[0, 0, 0]	n/a	FR1	1	R1350D
4386.454	1.139	4386884	ENCODING_START	n/a	n/a	n/a	-999	21	[0, 0, 0]	n/a	FR1	1	R1350D
4387.593	1.612	4388023	WORD	n/a	n/a	CONE	1	21	[0, 0, 0]	n/a	FR1	1	R1350D
4389.205	1.064	4389635	WORD_OFF	n/a	n/a	CONE	1	21	[0, 0, 0]	n/a	FR1	1	R1350D
4390.269	1.635	4390699	WORD	n/a	n/a	TOOTH	2	21	[0, 0, 0]	n/a	FR1	1	R1350D
4391.904	0.958	4392334	WORD_OFF	n/a	n/a	TOOTH	2	21	[0, 0, 0]	n/a	FR1	1	R1350D
4392.862	1.626	4393292	WORD	n/a	n/a	RICE	3	21	[0, 0, 0]	n/a	FR1	1	R1350D
4394.488	1.081	4394918	WORD_OFF	n/a	n/a	RICE	3	21	[0, 0, 0]	n/a	FR1	1	R1350D
4395.569	1.637	4395999	WORD	n/a	n/a	BADGE	4	21	[0, 0, 0]	n/a	FR1	1	R1350D
4397.206	0.855	4397636	WORD_OFF	n/a	n/a	BADGE	4	21	[0, 0, 0]	n/a	FR1	1	R1350D
4398.061	1.628	4398491	WORD	n/a	n/a	DITCH	5	21	[0, 0, 0]	n/a	FR1	1	R1350D
4399.689	0.859	4400119	WORD_OFF	n/a	n/a	DITCH	5	21	[0, 0, 0]	n/a	FR1	1	R1350D
4400.548	1.626	4400978	WORD	n/a	n/a	BENCH	6	21	[0, 0, 0]	n/a	FR1	1	R1350D
4402.174	0.937	4402604	WORD_OFF	n/a	n/a	BENCH	6	21	[0, 0, 0]	n/a	FR1	1	R1350D
4403.111	1.629	4403540	WORD	n/a	n/a	MUD	7	21	[0, 0, 0]	n/a	FR1	1	R1350D
4404.74	0.937	4405169	WORD_OFF	n/a	n/a	MUD	7	21	[0, 0, 0]	n/a	FR1	1	R1350D
4405.677	1.63	4406106	WORD	n/a	n/a	EGG	8	21	[0, 0, 0]	n/a	FR1	1	R1350D
4407.307	0.856	4407736	WORD_OFF	n/a	n/a	EGG	8	21	[0, 0, 0]	n/a	FR1	1	R1350D
4408.163	1.628	4408592	WORD	n/a	n/a	RUG	9	21	[0, 0, 0]	n/a	FR1	1	R1350D
4409.791	0.97	4410220	WORD_OFF	n/a	n/a	RUG	9	21	[0, 0, 0]	n/a	FR1	1	R1350D
4410.761	1.63	4411190	WORD	n/a	n/a	VAN	10	21	[0, 0, 0]	n/a	FR1	1	R1350D
4412.391	1.05	4412820	WORD_OFF	n/a	n/a	VAN	10	21	[0, 0, 0]	n/a	FR1	1	R1350D
4413.441	1.618	4413870	WORD	n/a	n/a	DUCK	11	21	[0, 0, 0]	n/a	FR1	1	R1350D
4415.059	1.047	4415488	WORD_OFF	n/a	n/a	DUCK	11	21	[0, 0, 0]	n/a	FR1	1	R1350D
4416.106	1.636	4416535	WORD	n/a	n/a	STICK	12	21	[0, 0, 0]	n/a	FR1	1	R1350D
4417.742	0.001	4418171	WORD_OFF	n/a	n/a	STICK	12	21	[0, 0, 0]	n/a	FR1	1	R1350D
4417.743	0.0	4418172	ENCODING_END	n/a	n/a	n/a	-999	21	[0, 0, 0]	n/a	FR1	1	R1350D
4417.743	0.0	4418172	DISTRACT_START	n/a	n/a	n/a	-999	21	[0, 0, 0]	n/a	FR1	1	R1350D
4417.743	0.016	4418172	START	n/a	n/a	n/a	-999	21	[-999, -999, -999]	n/a	FR1	1	R1350D
4417.759	8.685	4418188	PROB	8.685	n/a	n/a	-999	21	[9, 8, 4]	21	FR1	1	R1350D
4426.444	2.618	4426872	PROB	2.618	n/a	n/a	-999	21	[1, 5, 6]	12	FR1	1	R1350D
4429.062	3.034	4429490	PROB	3.034	n/a	n/a	-999	21	[5, 7, 8]	20	FR1	1	R1350D
4432.096	2.85	4432524	PROB	2.85	n/a	n/a	-999	21	[6, 9, 4]	19	FR1	1	R1350D
4434.946	3.8	4435374	PROB	3.8	n/a	n/a	-999	21	[9, 8, 8]	25	FR1	1	R1350D
4438.746	0.017	4439174	STOP	n/a	n/a	n/a	-999	21	[-999, -999, -999]	n/a	FR1	1	R1350D
4438.763	0.688	4439191	DISTRACT_END	n/a	n/a	n/a	-999	21	[0, 0, 0]	n/a	FR1	1	R1350D
4439.451	1.697	4439879	RETRIEVAL_ORIENT_START	n/a	n/a	n/a	-999	21	[0, 0, 0]	n/a	FR1	1	R1350D
4441.148	0.0	4441576	RETRIEVAL_ORIENT_END	n/a	n/a	n/a	-999	21	[0, 0, 0]	n/a	FR1	1	R1350D
4441.148	3.511	4441576	REC_START	n/a	n/a	n/a	-999	21	[0, 0, 0]	n/a	FR1	1	R1350D
4444.659	1.819	4445086	REC_WORD	1.819	n/a	VAN	10	21	[0, 0, 0]	n/a	FR1	1	R1350D
4446.478	9.549	4446905	REC_WORD	9.549	n/a	STICK	12	21	[0, 0, 0]	n/a	FR1	1	R1350D
4456.027	2.697	4456454	REC_WORD	2.697	n/a	RICE	3	21	[0, 0, 0]	n/a	FR1	1	R1350D
4458.724	4.528	4459151	REC_WORD	4.528	n/a	TEETH	-999	21	[0, 0, 0]	n/a	FR1	1	R1350D
4463.252	7.909	4463678	REC_WORD	7.909	n/a	CONE	1	21	[0, 0, 0]	n/a	FR1	1	R1350D
4471.161	0.0	4471587	REC_END	n/a	n/a	n/a	-999	21	[0, 0, 0]	n/a	FR1	1	R1350D
4471.161	0.016	4471587	TRIAL_END	n/a	n/a	n/a	-999	21	[0, 0, 0]	n/a	FR1	1	R1350D
4471.177	0.001	4471603	TRIAL_START	n/a	n/a	n/a	-999	22	[0, 0, 0]	n/a	FR1	1	R1350D
4471.178	0.0	4471604	TRIAL	n/a	n/a	n/a	-999	22	[0, 0, 0]	n/a	FR1	1	R1350D
4471.178	1.474	4471604	WAITING_START	n/a	n/a	n/a	-999	22	[0, 0, 0]	n/a	FR1	1	R1350D
4472.652	0.001	4473078	WAITING_END	n/a	n/a	n/a	-999	22	[0, 0, 0]	n/a	FR1	1	R1350D
4472.653	10.429	4473079	COUNTDOWN_START	n/a	n/a	n/a	-999	22	[0, 0, 0]	n/a	FR1	1	R1350D
4483.082	0.0	4483507	COUNTDOWN_END	n/a	n/a	n/a	-999	22	[0, 0, 0]	n/a	FR1	1	R1350D
4483.082	1.023	4483507	ORIENT_START	n/a	n/a	n/a	-999	22	[0, 0, 0]	n/a	FR1	1	R1350D
4484.105	0.001	4484530	ORIENT_END	n/a	n/a	n/a	-999	22	[0, 0, 0]	n/a	FR1	1	R1350D
4484.106	1.125	4484531	ENCODING_START	n/a	n/a	n/a	-999	22	[0, 0, 0]	n/a	FR1	1	R1350D
4485.231	1.624	4485656	WORD	n/a	n/a	ROOM	1	22	[0, 0, 0]	n/a	FR1	1	R1350D
4486.855	1.131	4487280	WORD_OFF	n/a	n/a	ROOM	1	22	[0, 0, 0]	n/a	FR1	1	R1350D
4487.986	1.636	4488411	WORD	n/a	n/a	PEA	2	22	[0, 0, 0]	n/a	FR1	1	R1350D
4489.622	0.967	4490047	WORD_OFF	n/a	n/a	PEA	2	22	[0, 0, 0]	n/a	FR1	1	R1350D
4490.589	1.634	4491014	WORD	n/a	n/a	VEST	3	22	[0, 0, 0]	n/a	FR1	1	R1350D
4492.223	0.763	4492648	WORD_OFF	n/a	n/a	VEST	3	22	[0, 0, 0]	n/a	FR1	1	R1350D
4492.986	1.62	4493411	WORD	n/a	n/a	ANT	4	22	[0, 0, 0]	n/a	FR1	1	R1350D
4494.606	0.773	4495031	WORD_OFF	n/a	n/a	ANT	4	22	[0, 0, 0]	n/a	FR1	1	R1350D
4495.379	1.629	4495804	WORD	n/a	n/a	JET	5	22	[0, 0, 0]	n/a	FR1	1	R1350D
4497.008	0.943	4497433	WORD_OFF	n/a	n/a	JET	5	22	[0, 0, 0]	n/a	FR1	1	R1350D
4497.951	1.623	4498376	WORD	n/a	n/a	BEAR	6	22	[0, 0, 0]	n/a	FR1	1	R1350D
4499.574	0.771	4499998	WORD_OFF	n/a	n/a	BEAR	6	22	[0, 0, 0]	n/a	FR1	1	R1350D
4500.345	1.63	4500769	WORD	n/a	n/a	FLAME	7	22	[0, 0, 0]	n/a	FR1	1	R1350D
4501.975	0.903	4502399	WORD_OFF	n/a	n/a	FLAME	7	22	[0, 0, 0]	n/a	FR1	1	R1350D
4502.878	1.63	4503302	WORD	n/a	n/a	HILL	8	22	[0, 0, 0]	n/a	FR1	1	R1350D
4504.508	1.016	4504932	WORD_OFF	n/a	n/a	HILL	8	22	[0, 0, 0]	n/a	FR1	1	R1350D
4505.524	1.619	4505948	WORD	n/a	n/a	HOUSE	9	22	[0, 0, 0]	n/a	FR1	1	R1350D
4507.143	0.815	4507567	WORD_OFF	n/a	n/a	HOUSE	9	22	[0, 0, 0]	n/a	FR1	1	R1350D
4507.958	1.634	4508382	WORD	n/a	n/a	BANK	10	22	[0, 0, 0]	n/a	FR1	1	R1350D
4509.592	0.816	4510016	WORD_OFF	n/a	n/a	BANK	10	22	[0, 0, 0]	n/a	FR1	1	R1350D
4510.408	1.636	4510832	WORD	n/a	n/a	DOOR	11	22	[0, 0, 0]	n/a	FR1	1	R1350D
4512.044	1.099	4512468	WORD_OFF	n/a	n/a	DOOR	11	22	[0, 0, 0]	n/a	FR1	1	R1350D
4513.143	1.634	4513567	WORD	n/a	n/a	CHIEF	12	22	[0, 0, 0]	n/a	FR1	1	R1350D
4514.777	0.0	4515201	WORD_OFF	n/a	n/a	CHIEF	12	22	[0, 0, 0]	n/a	FR1	1	R1350D
4514.777	0.001	4515201	ENCODING_END	n/a	n/a	n/a	-999	22	[0, 0, 0]	n/a	FR1	1	R1350D
4514.778	0.0	4515202	DISTRACT_START	n/a	n/a	n/a	-999	22	[0, 0, 0]	n/a	FR1	1	R1350D
