onset	duration	sample	trial_type	response_time	stim_file	item_name	serialpos	list	test	answer	experiment	session	subject
0.0	0.0	8309	INSTRUCT_START	n/a	n/a	n/a	-999	-999	[0, 0, 0]	n/a	FR1	0	R1215M
0.0	10.968	8309	INSTRUCT_END	n/a	n/a	n/a	-999	-999	[0, 0, 0]	n/a	FR1	0	R1215M
10.968	0.0	19276	SESS_START	n/a	n/a	n/a	-999	-999	[0, 0, 0]	n/a	FR1	0	R1215M
10.968	12.001	19276	MIC_TEST	n/a	n/a	n/a	-999	-999	[0, 0, 0]	n/a	FR1	0	R1215M
22.969	320.614	31277	PRACTICE_TRIAL	n/a	n/a	n/a	-999	-1	[0, 0, 0]	n/a	FR1	0	R1215M
343.583	10.428	351872	COUNTDOWN_START	n/a	n/a	n/a	-999	-1	[0, 0, 0]	n/a	FR1	0	R1215M
354.011	0.007	362299	COUNTDOWN_END	n/a	n/a	n/a	-999	-1	[0, 0, 0]	n/a	FR1	0	R1215M
354.018	1.618	362306	PRACTICE_ORIENT	n/a	n/a	n/a	-999	-1	[0, 0, 0]	n/a	FR1	0	R1215M
355.636	2.101	363924	PRACTICE_ORIENT_OFF	n/a	n/a	n/a	-999	-1	[0, 0, 0]	n/a	FR1	0	R1215M
357.737	1.617	366025	PRACTICE_WORD	n/a	n/a	COTTON	1	-1	[0, 0, 0]	n/a	FR1	0	R1215M
359.354	0.883	367642	PRACTICE_WORD_OFF	n/a	n/a	COTTON	-999	-1	[0, 0, 0]	n/a	FR1	0	R1215M
360.237	1.616	368525	PRACTICE_WORD	n/a	n/a	WAGON	2	-1	[0, 0, 0]	n/a	FR1	0	R1215M
361.853	0.801	370141	PRACTICE_WORD_OFF	n/a	n/a	WAGON	-999	-1	[0, 0, 0]	n/a	FR1	0	R1215M
362.654	1.617	370942	PRACTICE_WORD	n/a	n/a	IRON	3	-1	[0, 0, 0]	n/a	FR1	0	R1215M
364.271	0.849	372559	PRACTICE_WORD_OFF	n/a	n/a	IRON	-999	-1	[0, 0, 0]	n/a	FR1	0	R1215M
365.12	1.618	373408	PRACTICE_WORD	n/a	n/a	CAMEL	4	-1	[0, 0, 0]	n/a	FR1	0	R1215M
366.738	0.767	375026	PRACTICE_WORD_OFF	n/a	n/a	CAMEL	-999	-1	[0, 0, 0]	n/a	FR1	0	R1215M
367.505	1.616	375793	PRACTICE_WORD	n/a	n/a	RING	5	-1	[0, 0, 0]	n/a	FR1	0	R1215M
369.121	0.9	377409	PRACTICE_WORD_OFF	n/a	n/a	RING	-999	-1	[0, 0, 0]	n/a	FR1	0	R1215M
370.021	1.601	378309	PRACTICE_WORD	n/a	n/a	RHINO	6	-1	[0, 0, 0]	n/a	FR1	0	R1215M
371.622	1.001	379909	PRACTICE_WORD_OFF	n/a	n/a	RHINO	-999	-1	[0, 0, 0]	n/a	FR1	0	R1215M
372.623	1.617	380910	PRACTICE_WORD	n/a	n/a	TONGUE	7	-1	[0, 0, 0]	n/a	FR1	0	R1215M
374.24	0.866	382527	PRACTICE_WORD_OFF	n/a	n/a	TONGUE	-999	-1	[0, 0, 0]	n/a	FR1	0	R1215M
375.106	1.618	383393	PRACTICE_WORD	n/a	n/a	WATCH	8	-1	[0, 0, 0]	n/a	FR1	0	R1215M
376.724	0.883	385011	PRACTICE_WORD_OFF	n/a	n/a	WATCH	-999	-1	[0, 0, 0]	n/a	FR1	0	R1215M
377.607	1.617	385894	PRACTICE_WORD	n/a	n/a	ATTIC	9	-1	[0, 0, 0]	n/a	FR1	0	R1215M
379.224	0.783	387511	PRACTICE_WORD_OFF	n/a	n/a	ATTIC	-999	-1	[0, 0, 0]	n/a	FR1	0	R1215M
380.007	1.618	388294	PRACTICE_WORD	n/a	n/a	BEAM	10	-1	[0, 0, 0]	n/a	FR1	0	R1215M
381.625	0.916	389912	PRACTICE_WORD_OFF	n/a	n/a	BEAM	-999	-1	[0, 0, 0]	n/a	FR1	0	R1215M
382.541	1.616	390828	PRACTICE_WORD	n/a	n/a	FLOOD	11	-1	[0, 0, 0]	n/a	FR1	0	R1215M
384.157	1.001	392444	PRACTICE_WORD_OFF	n/a	n/a	FLOOD	-999	-1	[0, 0, 0]	n/a	FR1	0	R1215M
385.158	1.617	393445	PRACTICE_WORD	n/a	n/a	CHEST	12	-1	[0, 0, 0]	n/a	FR1	0	R1215M
386.775	0.0	395062	PRACTICE_WORD_OFF	n/a	n/a	CHEST	-999	-1	[0, 0, 0]	n/a	FR1	0	R1215M
386.775	0.001	395062	DISTRACT_START	n/a	n/a	n/a	-999	-1	[0, 0, 0]	n/a	FR1	0	R1215M
386.776	0.016	395063	START	n/a	n/a	n/a	-999	-1	[-999, -999, -999]	n/a	FR1	0	R1215M
386.792	10.852	395079	PROB	10.852	n/a	n/a	-999	-1	[4, 1, 4]	13	FR1	0	R1215M
397.644	9.653	405930	PROB	9.653	n/a	n/a	-999	-1	[6, 9, 8]	13	FR1	0	R1215M
407.297	0.016	415582	STOP	n/a	n/a	n/a	-999	-1	[-999, -999, -999]	n/a	FR1	0	R1215M
407.313	0.599	415598	DISTRACT_END	n/a	n/a	n/a	-999	-1	[0, 0, 0]	n/a	FR1	0	R1215M
407.912	0.518	416197	RETRIEVAL_ORIENT	n/a	n/a	n/a	-999	-1	[0, 0, 0]	n/a	FR1	0	R1215M
408.43	30.01	416715	PRACTICE_REC_START	n/a	n/a	n/a	-999	-1	[0, 0, 0]	n/a	FR1	0	R1215M
438.44	152.242	446724	PRACTICE_REC_END	n/a	n/a	n/a	-999	-1	[0, 0, 0]	n/a	FR1	0	R1215M
590.682	0.5	598957	TRIAL	n/a	n/a	n/a	-999	1	[0, 0, 0]	n/a	FR1	0	R1215M
591.182	10.428	599457	COUNTDOWN_START	n/a	n/a	n/a	-999	1	[0, 0, 0]	n/a	FR1	0	R1215M
601.61	0.007	609884	COUNTDOWN_END	n/a	n/a	n/a	-999	1	[0, 0, 0]	n/a	FR1	0	R1215M
601.617	1.617	609891	ORIENT	n/a	n/a	n/a	-999	1	[0, 0, 0]	n/a	FR1	0	R1215M
603.234	2.2	611508	ORIENT_OFF	n/a	n/a	n/a	-999	1	[0, 0, 0]	n/a	FR1	0	R1215M
605.434	1.616	613708	WORD	n/a	wordpools/wordpool_EN.txt	BOWL	1	1	[0, 0, 0]	n/a	FR1	0	R1215M
607.05	1.001	615324	WORD_OFF	n/a	n/a	BOWL	1	1	[0, 0, 0]	n/a	FR1	0	R1215M
608.051	1.618	616325	WORD	n/a	wordpools/wordpool_EN.txt	SPRING	2	1	[0, 0, 0]	n/a	FR1	0	R1215M
609.669	0.866	617943	WORD_OFF	n/a	n/a	SPRING	2	1	[0, 0, 0]	n/a	FR1	0	R1215M
610.535	1.616	618809	WORD	n/a	wordpools/wordpool_EN.txt	CHEEK	3	1	[0, 0, 0]	n/a	FR1	0	R1215M
612.151	1.001	620425	WORD_OFF	n/a	n/a	CHEEK	3	1	[0, 0, 0]	n/a	FR1	0	R1215M
613.152	1.617	621426	WORD	n/a	wordpools/wordpool_EN.txt	HILL	4	1	[0, 0, 0]	n/a	FR1	0	R1215M
614.769	0.784	623042	WORD_OFF	n/a	n/a	HILL	4	1	[0, 0, 0]	n/a	FR1	0	R1215M
615.553	1.616	623826	WORD	n/a	wordpools/wordpool_EN.txt	BARN	5	1	[0, 0, 0]	n/a	FR1	0	R1215M
617.169	0.984	625442	WORD_OFF	n/a	n/a	BARN	5	1	[0, 0, 0]	n/a	FR1	0	R1215M
618.153	1.618	626426	WORD	n/a	wordpools/wordpool_EN.txt	CHALK	6	1	[0, 0, 0]	n/a	FR1	0	R1215M
619.771	0.883	628044	WORD_OFF	n/a	n/a	CHALK	6	1	[0, 0, 0]	n/a	FR1	0	R1215M
620.654	1.617	628927	WORD	n/a	wordpools/wordpool_EN.txt	CLAY	7	1	[0, 0, 0]	n/a	FR1	0	R1215M
622.271	0.95	630544	WORD_OFF	n/a	n/a	CLAY	7	1	[0, 0, 0]	n/a	FR1	0	R1215M
623.221	1.616	631494	WORD	n/a	wordpools/wordpool_EN.txt	BREAD	8	1	[0, 0, 0]	n/a	FR1	0	R1215M
624.837	0.785	633110	WORD_OFF	n/a	n/a	BREAD	8	1	[0, 0, 0]	n/a	FR1	0	R1215M
625.622	1.617	633895	WORD	n/a	wordpools/wordpool_EN.txt	HOOF	9	1	[0, 0, 0]	n/a	FR1	0	R1215M
627.239	0.765	635512	WORD_OFF	n/a	n/a	HOOF	9	1	[0, 0, 0]	n/a	FR1	0	R1215M
628.004	1.602	636277	WORD	n/a	wordpools/wordpool_EN.txt	STAIR	10	1	[0, 0, 0]	n/a	FR1	0	R1215M
629.606	1.0	637879	WORD_OFF	n/a	n/a	STAIR	10	1	[0, 0, 0]	n/a	FR1	0	R1215M
630.606	1.617	638878	WORD	n/a	wordpools/wordpool_EN.txt	PLATE	11	1	[0, 0, 0]	n/a	FR1	0	R1215M
632.223	0.916	640495	WORD_OFF	n/a	n/a	PLATE	11	1	[0, 0, 0]	n/a	FR1	0	R1215M
633.139	1.618	641411	WORD	n/a	wordpools/wordpool_EN.txt	FUR	12	1	[0, 0, 0]	n/a	FR1	0	R1215M
634.757	0.0	643029	WORD_OFF	n/a	n/a	FUR	12	1	[0, 0, 0]	n/a	FR1	0	R1215M
634.757	0.0	643029	DISTRACT_START	n/a	n/a	n/a	-999	1	[0, 0, 0]	n/a	FR1	0	R1215M
634.757	0.016	643029	START	n/a	n/a	n/a	-999	1	[-999, -999, -999]	n/a	FR1	0	R1215M
634.773	9.051	643045	PROB	9.051	n/a	n/a	-999	1	[3, 1, 7]	11	FR1	0	R1215M
643.824	6.285	652096	PROB	6.285	n/a	n/a	-999	1	[7, 1, 8]	16	FR1	0	R1215M
650.109	4.518	658380	PROB	4.518	n/a	n/a	-999	1	[3, 5, 5]	13	FR1	0	R1215M
654.627	4.839	662898	PROB	4.839	n/a	n/a	-999	1	[5, 3, 3]	11	FR1	0	R1215M
659.466	0.012	667737	STOP	n/a	n/a	n/a	-999	1	[-999, -999, -999]	n/a	FR1	0	R1215M
659.478	0.633	667749	DISTRACT_END	n/a	n/a	n/a	-999	1	[0, 0, 0]	n/a	FR1	0	R1215M
660.111	0.518	668382	RETRIEVAL_ORIENT	n/a	n/a	n/a	-999	1	[0, 0, 0]	n/a	FR1	0	R1215M
660.629	1.043	668900	REC_START	n/a	n/a	n/a	-999	1	[0, 0, 0]	n/a	FR1	0	R1215M
661.672	1.108	669943	REC_WORD	1.108	n/a	BOWL	-999	1	[0, 0, 0]	n/a	FR1	0	R1215M
662.78	1.642	671051	REC_WORD	1.642	n/a	SPRING	-999	1	[0, 0, 0]	n/a	FR1	0	R1215M
664.422	1.85	672693	REC_WORD	1.85	n/a	CHICK	-999	1	[0, 0, 0]	n/a	FR1	0	R1215M
666.272	1.164	674542	REC_WORD	1.164	n/a	PILL	-999	1	[0, 0, 0]	n/a	FR1	0	R1215M
667.436	7.292	675706	REC_WORD	7.292	n/a	CLAY	-999	1	[0, 0, 0]	n/a	FR1	0	R1215M
674.728	5.264	682998	REC_WORD	5.264	n/a	HILL	-999	1	[0, 0, 0]	n/a	FR1	0	R1215M
679.992	5.846	688262	REC_WORD	5.846	n/a	CHEEK	-999	1	[0, 0, 0]	n/a	FR1	0	R1215M
685.838	1.87	694107	REC_WORD_VV	1.87	n/a	<>	-999	1	[0, 0, 0]	n/a	FR1	0	R1215M
687.708	1.271	695977	REC_WORD	1.271	n/a	SHEEP	-999	1	[0, 0, 0]	n/a	FR1	0	R1215M
688.979	1.66	697248	REC_WORD	1.66	n/a	PLAY	-999	1	[0, 0, 0]	n/a	FR1	0	R1215M
690.639	52.072	698908	REC_END	n/a	n/a	n/a	-999	1	[0, 0, 0]	n/a	FR1	0	R1215M
742.711	0.5	750977	TRIAL	n/a	n/a	n/a	-999	2	[0, 0, 0]	n/a	FR1	0	R1215M
743.211	10.428	751477	COUNTDOWN_START	n/a	n/a	n/a	-999	2	[0, 0, 0]	n/a	FR1	0	R1215M
753.639	0.007	761904	COUNTDOWN_END	n/a	n/a	n/a	-999	2	[0, 0, 0]	n/a	FR1	0	R1215M
753.646	1.617	761911	ORIENT	n/a	n/a	n/a	-999	2	[0, 0, 0]	n/a	FR1	0	R1215M
755.263	2.268	763528	ORIENT_OFF	n/a	n/a	n/a	-999	2	[0, 0, 0]	n/a	FR1	0	R1215M
757.531	1.615	765796	WORD	n/a	wordpools/wordpool_EN.txt	RAIN	1	2	[0, 0, 0]	n/a	FR1	0	R1215M
759.146	0.934	767411	WORD_OFF	n/a	n/a	RAIN	1	2	[0, 0, 0]	n/a	FR1	0	R1215M
760.08	1.601	768345	WORD	n/a	wordpools/wordpool_EN.txt	DOCK	2	2	[0, 0, 0]	n/a	FR1	0	R1215M
761.681	0.967	769946	WORD_OFF	n/a	n/a	DOCK	2	2	[0, 0, 0]	n/a	FR1	0	R1215M
762.648	1.617	770913	WORD	n/a	wordpools/wordpool_EN.txt	NET	3	2	[0, 0, 0]	n/a	FR1	0	R1215M
764.265	0.933	772530	WORD_OFF	n/a	n/a	NET	3	2	[0, 0, 0]	n/a	FR1	0	R1215M
765.198	1.617	773463	WORD	n/a	wordpools/wordpool_EN.txt	BUSH	4	2	[0, 0, 0]	n/a	FR1	0	R1215M
766.815	1.016	775080	WORD_OFF	n/a	n/a	BUSH	4	2	[0, 0, 0]	n/a	FR1	0	R1215M
767.831	1.602	776096	WORD	n/a	wordpools/wordpool_EN.txt	PANTS	5	2	[0, 0, 0]	n/a	FR1	0	R1215M
769.433	0.867	777697	WORD_OFF	n/a	n/a	PANTS	5	2	[0, 0, 0]	n/a	FR1	0	R1215M
770.3	1.616	778564	WORD	n/a	wordpools/wordpool_EN.txt	SPARK	6	2	[0, 0, 0]	n/a	FR1	0	R1215M
771.916	0.851	780180	WORD_OFF	n/a	n/a	SPARK	6	2	[0, 0, 0]	n/a	FR1	0	R1215M
772.767	1.617	781031	WORD	n/a	wordpools/wordpool_EN.txt	BOARD	7	2	[0, 0, 0]	n/a	FR1	0	R1215M
774.384	0.967	782648	WORD_OFF	n/a	n/a	BOARD	7	2	[0, 0, 0]	n/a	FR1	0	R1215M
775.351	1.616	783615	WORD	n/a	wordpools/wordpool_EN.txt	SNAKE	8	2	[0, 0, 0]	n/a	FR1	0	R1215M
776.967	0.883	785231	WORD_OFF	n/a	n/a	SNAKE	8	2	[0, 0, 0]	n/a	FR1	0	R1215M
777.85	1.618	786114	WORD	n/a	wordpools/wordpool_EN.txt	HAWK	9	2	[0, 0, 0]	n/a	FR1	0	R1215M
779.468	0.85	787732	WORD_OFF	n/a	n/a	HAWK	9	2	[0, 0, 0]	n/a	FR1	0	R1215M
780.318	1.616	788582	WORD	n/a	wordpools/wordpool_EN.txt	FORT	10	2	[0, 0, 0]	n/a	FR1	0	R1215M
781.934	0.785	790198	WORD_OFF	n/a	n/a	FORT	10	2	[0, 0, 0]	n/a	FR1	0	R1215M
782.719	1.617	790983	WORD	n/a	wordpools/wordpool_EN.txt	TREE	11	2	[0, 0, 0]	n/a	FR1	0	R1215M
784.336	0.815	792600	WORD_OFF	n/a	n/a	TREE	11	2	[0, 0, 0]	n/a	FR1	0	R1215M
785.151	1.602	793415	WORD	n/a	wordpools/wordpool_EN.txt	APE	12	2	[0, 0, 0]	n/a	FR1	0	R1215M
786.753	0.0	795016	WORD_OFF	n/a	n/a	APE	12	2	[0, 0, 0]	n/a	FR1	0	R1215M
786.753	0.0	795016	DISTRACT_START	n/a	n/a	n/a	-999	2	[0, 0, 0]	n/a	FR1	0	R1215M
786.753	0.017	795016	START	n/a	n/a	n/a	-999	2	[-999, -999, -999]	n/a	FR1	0	R1215M
786.77	6.25	795033	PROB	6.25	n/a	n/a	-999	2	[5, 7, 7]	19	FR1	0	R1215M
793.02	5.502	801283	PROB	5.502	n/a	n/a	-999	2	[6, 1, 9]	16	FR1	0	R1215M
798.522	6.184	806785	PROB	6.184	n/a	n/a	-999	2	[4, 7, 5]	16	FR1	0	R1215M
804.706	5.976	812968	PROB	5.976	n/a	n/a	-999	2	[3, 6, 5]	14	FR1	0	R1215M
810.682	0.009	818944	STOP	n/a	n/a	n/a	-999	2	[-999, -999, -999]	n/a	FR1	0	R1215M
810.691	0.65	818953	DISTRACT_END	n/a	n/a	n/a	-999	2	[0, 0, 0]	n/a	FR1	0	R1215M
811.341	0.516	819603	RETRIEVAL_ORIENT	n/a	n/a	n/a	-999	2	[0, 0, 0]	n/a	FR1	0	R1215M
811.857	0.99	820119	REC_START	n/a	n/a	n/a	-999	2	[0, 0, 0]	n/a	FR1	0	R1215M
812.847	4.219	821109	REC_WORD	4.219	n/a	HAWK	-999	2	[0, 0, 0]	n/a	FR1	0	R1215M
817.066	2.733	825328	REC_WORD	2.733	n/a	BODY	-999	2	[0, 0, 0]	n/a	FR1	0	R1215M
819.799	0.607	828061	REC_WORD_VV	0.607	n/a	<>	-999	2	[0, 0, 0]	n/a	FR1	0	R1215M
820.406	4.035	828668	REC_WORD	4.035	n/a	ETHAN	-999	2	[0, 0, 0]	n/a	FR1	0	R1215M
824.441	3.016	832702	REC_WORD	3.016	n/a	WATER	-999	2	[0, 0, 0]	n/a	FR1	0	R1215M
827.457	6.429	835718	REC_WORD_VV	6.429	n/a	<>	-999	2	[0, 0, 0]	n/a	FR1	0	R1215M
833.886	7.983	842147	REC_WORD	7.983	n/a	COAST	-999	2	[0, 0, 0]	n/a	FR1	0	R1215M
841.869	131.553	850129	REC_END	n/a	n/a	n/a	-999	2	[0, 0, 0]	n/a	FR1	0	R1215M
973.422	0.5	981675	TRIAL	n/a	n/a	n/a	-999	3	[0, 0, 0]	n/a	FR1	0	R1215M
973.922	10.428	982175	COUNTDOWN_START	n/a	n/a	n/a	-999	3	[0, 0, 0]	n/a	FR1	0	R1215M
984.35	0.008	992602	COUNTDOWN_END	n/a	n/a	n/a	-999	3	[0, 0, 0]	n/a	FR1	0	R1215M
984.358	1.616	992610	ORIENT	n/a	n/a	n/a	-999	3	[0, 0, 0]	n/a	FR1	0	R1215M
985.974	1.967	994226	ORIENT_OFF	n/a	n/a	n/a	-999	3	[0, 0, 0]	n/a	FR1	0	R1215M
987.941	1.618	996193	WORD	n/a	wordpools/wordpool_EN.txt	SEAT	1	3	[0, 0, 0]	n/a	FR1	0	R1215M
989.559	0.917	997811	WORD_OFF	n/a	n/a	SEAT	1	3	[0, 0, 0]	n/a	FR1	0	R1215M
990.476	1.616	998728	WORD	n/a	wordpools/wordpool_EN.txt	MOUTH	2	3	[0, 0, 0]	n/a	FR1	0	R1215M
992.092	0.833	1000344	WORD_OFF	n/a	n/a	MOUTH	2	3	[0, 0, 0]	n/a	FR1	0	R1215M
992.925	1.601	1001177	WORD	n/a	wordpools/wordpool_EN.txt	CUBE	3	3	[0, 0, 0]	n/a	FR1	0	R1215M
994.526	0.984	1002777	WORD_OFF	n/a	n/a	CUBE	3	3	[0, 0, 0]	n/a	FR1	0	R1215M
995.51	1.616	1003761	WORD	n/a	wordpools/wordpool_EN.txt	SNOW	4	3	[0, 0, 0]	n/a	FR1	0	R1215M
997.126	0.95	1005377	WORD_OFF	n/a	n/a	SNOW	4	3	[0, 0, 0]	n/a	FR1	0	R1215M
998.076	1.618	1006327	WORD	n/a	wordpools/wordpool_EN.txt	MAZE	5	3	[0, 0, 0]	n/a	FR1	0	R1215M
999.694	0.867	1007945	WORD_OFF	n/a	n/a	MAZE	5	3	[0, 0, 0]	n/a	FR1	0	R1215M
1000.561	1.616	1008812	WORD	n/a	wordpools/wordpool_EN.txt	GATE	6	3	[0, 0, 0]	n/a	FR1	0	R1215M
1002.177	0.867	1010428	WORD_OFF	n/a	n/a	GATE	6	3	[0, 0, 0]	n/a	FR1	0	R1215M
1003.044	1.618	1011295	WORD	n/a	wordpools/wordpool_EN.txt	PIE	7	3	[0, 0, 0]	n/a	FR1	0	R1215M
1004.662	0.883	1012913	WORD_OFF	n/a	n/a	PIE	7	3	[0, 0, 0]	n/a	FR1	0	R1215M
1005.545	1.616	1013796	WORD	n/a	wordpools/wordpool_EN.txt	BALL	8	3	[0, 0, 0]	n/a	FR1	0	R1215M
1007.161	0.8	1015412	WORD_OFF	n/a	n/a	BALL	8	3	[0, 0, 0]	n/a	FR1	0	R1215M
1007.961	1.601	1016212	WORD	n/a	wordpools/wordpool_EN.txt	AXE	9	3	[0, 0, 0]	n/a	FR1	0	R1215M
1009.562	0.851	1017813	WORD_OFF	n/a	n/a	AXE	9	3	[0, 0, 0]	n/a	FR1	0	R1215M
1010.413	1.616	1018664	WORD	n/a	wordpools/wordpool_EN.txt	CORN	10	3	[0, 0, 0]	n/a	FR1	0	R1215M
1012.029	0.967	1020279	WORD_OFF	n/a	n/a	CORN	10	3	[0, 0, 0]	n/a	FR1	0	R1215M
1012.996	1.618	1021246	WORD	n/a	wordpools/wordpool_EN.txt	BRANCH	11	3	[0, 0, 0]	n/a	FR1	0	R1215M
1014.614	0.933	1022864	WORD_OFF	n/a	n/a	BRANCH	11	3	[0, 0, 0]	n/a	FR1	0	R1215M
1015.547	1.616	1023797	WORD	n/a	wordpools/wordpool_EN.txt	FAN	12	3	[0, 0, 0]	n/a	FR1	0	R1215M
1017.163	0.0	1025413	DISTRACT_START	n/a	n/a	n/a	-999	3	[0, 0, 0]	n/a	FR1	0	R1215M
1017.163	0.001	1025413	WORD_OFF	n/a	n/a	FAN	12	3	[0, 0, 0]	n/a	FR1	0	R1215M
1017.164	0.016	1025414	START	n/a	n/a	n/a	-999	3	[-999, -999, -999]	n/a	FR1	0	R1215M
1017.18	6.718	1025430	PROB	6.718	n/a	n/a	-999	3	[6, 6, 5]	17	FR1	0	R1215M
1023.898	6.785	1032148	PROB	6.785	n/a	n/a	-999	3	[6, 5, 8]	19	FR1	0	R1215M
1030.683	5.651	1038932	PROB	5.651	n/a	n/a	-999	3	[3, 6, 9]	18	FR1	0	R1215M
1036.334	6.795	1044583	PROB	6.795	n/a	n/a	-999	3	[1, 8, 5]	15	FR1	0	R1215M
1043.129	0.005	1051378	STOP	n/a	n/a	n/a	-999	3	[-999, -999, -999]	n/a	FR1	0	R1215M
1043.134	0.635	1051383	DISTRACT_END	n/a	n/a	n/a	-999	3	[0, 0, 0]	n/a	FR1	0	R1215M
1043.769	0.518	1052018	RETRIEVAL_ORIENT	n/a	n/a	n/a	-999	3	[0, 0, 0]	n/a	FR1	0	R1215M
1044.287	0.615	1052536	REC_START	n/a	n/a	n/a	-999	3	[0, 0, 0]	n/a	FR1	0	R1215M
1044.902	1.08	1053151	REC_WORD	1.08	n/a	SEAT	-999	3	[0, 0, 0]	n/a	FR1	0	R1215M
1045.982	1.295	1054230	REC_WORD	1.295	n/a	SNOW	-999	3	[0, 0, 0]	n/a	FR1	0	R1215M
1047.277	1.001	1055525	REC_WORD	1.001	n/a	HAZE	-999	3	[0, 0, 0]	n/a	FR1	0	R1215M
1048.278	0.752	1056526	REC_WORD_VV	0.752	n/a	<>	-999	3	[0, 0, 0]	n/a	FR1	0	R1215M
1049.03	1.724	1057278	REC_WORD	1.724	n/a	CORN	-999	3	[0, 0, 0]	n/a	FR1	0	R1215M
1050.754	4.258	1059002	REC_WORD	4.258	n/a	ROLL	-999	3	[0, 0, 0]	n/a	FR1	0	R1215M
1055.012	19.285	1063260	REC_WORD	19.285	n/a	MAZE	-999	3	[0, 0, 0]	n/a	FR1	0	R1215M
1074.297	48.586	1082544	REC_END	n/a	n/a	n/a	-999	3	[0, 0, 0]	n/a	FR1	0	R1215M
1122.883	0.5	1131127	TRIAL	n/a	n/a	n/a	-999	4	[0, 0, 0]	n/a	FR1	0	R1215M
1123.383	10.428	1131627	COUNTDOWN_START	n/a	n/a	n/a	-999	4	[0, 0, 0]	n/a	FR1	0	R1215M
1133.811	0.008	1142054	COUNTDOWN_END	n/a	n/a	n/a	-999	4	[0, 0, 0]	n/a	FR1	0	R1215M
1133.819	1.618	1142062	ORIENT	n/a	n/a	n/a	-999	4	[0, 0, 0]	n/a	FR1	0	R1215M
1135.437	2.383	1143680	ORIENT_OFF	n/a	n/a	n/a	-999	4	[0, 0, 0]	n/a	FR1	0	R1215M
1137.82	1.618	1146063	WORD	n/a	wordpools/wordpool_EN.txt	GOAT	1	4	[0, 0, 0]	n/a	FR1	0	R1215M
1139.438	0.833	1147681	WORD_OFF	n/a	n/a	GOAT	1	4	[0, 0, 0]	n/a	FR1	0	R1215M
1140.271	1.616	1148514	WORD	n/a	wordpools/wordpool_EN.txt	HOSE	2	4	[0, 0, 0]	n/a	FR1	0	R1215M
1141.887	0.835	1150130	WORD_OFF	n/a	n/a	HOSE	2	4	[0, 0, 0]	n/a	FR1	0	R1215M
1142.722	1.617	1150965	WORD	n/a	wordpools/wordpool_EN.txt	GLOVE	3	4	[0, 0, 0]	n/a	FR1	0	R1215M
1144.339	0.866	1152582	WORD_OFF	n/a	n/a	GLOVE	3	4	[0, 0, 0]	n/a	FR1	0	R1215M
1145.205	1.617	1153448	WORD	n/a	wordpools/wordpool_EN.txt	SHELL	4	4	[0, 0, 0]	n/a	FR1	0	R1215M
1146.822	0.851	1155065	WORD_OFF	n/a	n/a	SHELL	4	4	[0, 0, 0]	n/a	FR1	0	R1215M
1147.673	1.617	1155916	WORD	n/a	wordpools/wordpool_EN.txt	MOLE	5	4	[0, 0, 0]	n/a	FR1	0	R1215M
1149.29	0.782	1157533	WORD_OFF	n/a	n/a	MOLE	5	4	[0, 0, 0]	n/a	FR1	0	R1215M
1150.072	1.601	1158314	WORD	n/a	wordpools/wordpool_EN.txt	ZOO	6	4	[0, 0, 0]	n/a	FR1	0	R1215M
1151.673	0.867	1159915	WORD_OFF	n/a	n/a	ZOO	6	4	[0, 0, 0]	n/a	FR1	0	R1215M
1152.54	1.616	1160782	WORD	n/a	wordpools/wordpool_EN.txt	FLOOR	7	4	[0, 0, 0]	n/a	FR1	0	R1215M
1154.156	0.934	1162398	WORD_OFF	n/a	n/a	FLOOR	7	4	[0, 0, 0]	n/a	FR1	0	R1215M
1155.09	1.618	1163332	WORD	n/a	wordpools/wordpool_EN.txt	LAKE	8	4	[0, 0, 0]	n/a	FR1	0	R1215M
1156.708	0.816	1164950	WORD_OFF	n/a	n/a	LAKE	8	4	[0, 0, 0]	n/a	FR1	0	R1215M
1157.524	1.617	1165766	WORD	n/a	wordpools/wordpool_EN.txt	OAR	9	4	[0, 0, 0]	n/a	FR1	0	R1215M
1159.141	0.85	1167383	WORD_OFF	n/a	n/a	OAR	9	4	[0, 0, 0]	n/a	FR1	0	R1215M
1159.991	1.618	1168233	WORD	n/a	wordpools/wordpool_EN.txt	POLE	10	4	[0, 0, 0]	n/a	FR1	0	R1215M
1161.609	0.85	1169851	WORD_OFF	n/a	n/a	POLE	10	4	[0, 0, 0]	n/a	FR1	0	R1215M
1162.459	1.616	1170701	WORD	n/a	wordpools/wordpool_EN.txt	STEAM	11	4	[0, 0, 0]	n/a	FR1	0	R1215M
1164.075	0.917	1172317	WORD_OFF	n/a	n/a	STEAM	11	4	[0, 0, 0]	n/a	FR1	0	R1215M
1164.992	1.618	1173234	WORD	n/a	wordpools/wordpool_EN.txt	TRASH	12	4	[0, 0, 0]	n/a	FR1	0	R1215M
1166.61	0.0	1174852	WORD_OFF	n/a	n/a	TRASH	12	4	[0, 0, 0]	n/a	FR1	0	R1215M
1166.61	0.0	1174852	DISTRACT_START	n/a	n/a	n/a	-999	4	[0, 0, 0]	n/a	FR1	0	R1215M
1166.61	0.016	1174852	START	n/a	n/a	n/a	-999	4	[-999, -999, -999]	n/a	FR1	0	R1215M
1166.626	5.2	1174868	PROB	5.2	n/a	n/a	-999	4	[1, 1, 7]	9	FR1	0	R1215M
1171.826	3.685	1180067	PROB	3.685	n/a	n/a	-999	4	[2, 3, 1]	6	FR1	0	R1215M
1175.511	6.351	1183752	PROB	6.351	n/a	n/a	-999	4	[8, 6, 9]	23	FR1	0	R1215M
1181.862	4.418	1190103	PROB	4.418	n/a	n/a	-999	4	[4, 5, 1]	10	FR1	0	R1215M
1186.28	5.537	1194520	PROB	5.537	n/a	n/a	-999	4	[4, 5, 1]	10	FR1	0	R1215M
1191.817	0.013	1200057	STOP	n/a	n/a	n/a	-999	4	[-999, -999, -999]	n/a	FR1	0	R1215M
1191.83	0.701	1200070	DISTRACT_END	n/a	n/a	n/a	-999	4	[0, 0, 0]	n/a	FR1	0	R1215M
1192.531	0.517	1200771	RETRIEVAL_ORIENT	n/a	n/a	n/a	-999	4	[0, 0, 0]	n/a	FR1	0	R1215M
1193.048	1.099	1201288	REC_START	n/a	n/a	n/a	-999	4	[0, 0, 0]	n/a	FR1	0	R1215M
1194.147	0.987	1202387	REC_WORD	0.987	n/a	GOAT	-999	4	[0, 0, 0]	n/a	FR1	0	R1215M
1195.134	0.953	1203374	REC_WORD	0.953	n/a	HOLE	-999	4	[0, 0, 0]	n/a	FR1	0	R1215M
1196.087	2.54	1204327	REC_WORD	2.54	n/a	ZOO	-999	4	[0, 0, 0]	n/a	FR1	0	R1215M
1198.627	3.154	1206867	REC_WORD	3.154	n/a	SHOVEL	-999	4	[0, 0, 0]	n/a	FR1	0	R1215M
1201.781	4.468	1210020	REC_WORD	4.468	n/a	PICNIC	-999	4	[0, 0, 0]	n/a	FR1	0	R1215M
1206.249	1.0	1214488	REC_WORD_VV	1.0	n/a	<>	-999	4	[0, 0, 0]	n/a	FR1	0	R1215M
1207.249	3.564	1215488	REC_WORD_VV	3.564	n/a	<>	-999	4	[0, 0, 0]	n/a	FR1	0	R1215M
1210.813	3.459	1219052	REC_WORD_VV	3.459	n/a	<>	-999	4	[0, 0, 0]	n/a	FR1	0	R1215M
1214.272	1.0	1222511	REC_WORD_VV	1.0	n/a	<>	-999	4	[0, 0, 0]	n/a	FR1	0	R1215M
1215.272	1.699	1223511	REC_WORD_VV	1.699	n/a	<>	-999	4	[0, 0, 0]	n/a	FR1	0	R1215M
1216.971	0.741	1225210	REC_WORD_VV	0.741	n/a	<>	-999	4	[0, 0, 0]	n/a	FR1	0	R1215M
1217.712	0.43	1225951	REC_WORD	0.43	n/a	TREE	-999	4	[0, 0, 0]	n/a	FR1	0	R1215M
1218.142	4.915	1226381	REC_WORD_VV	4.915	n/a	<>	-999	4	[0, 0, 0]	n/a	FR1	0	R1215M
1223.057	30.17	1231295	REC_END	n/a	n/a	n/a	-999	4	[0, 0, 0]	n/a	FR1	0	R1215M
1253.227	0.5	1261463	TRIAL	n/a	n/a	n/a	-999	5	[0, 0, 0]	n/a	FR1	0	R1215M
1253.727	10.428	1261963	COUNTDOWN_START	n/a	n/a	n/a	-999	5	[0, 0, 0]	n/a	FR1	0	R1215M
1264.155	0.006	1272391	COUNTDOWN_END	n/a	n/a	n/a	-999	5	[0, 0, 0]	n/a	FR1	0	R1215M
1264.161	1.618	1272397	ORIENT	n/a	n/a	n/a	-999	5	[0, 0, 0]	n/a	FR1	0	R1215M
1265.779	1.967	1274015	ORIENT_OFF	n/a	n/a	n/a	-999	5	[0, 0, 0]	n/a	FR1	0	R1215M
1267.746	1.617	1275982	WORD	n/a	wordpools/wordpool_EN.txt	HORSE	1	5	[0, 0, 0]	n/a	FR1	0	R1215M
1269.363	0.832	1277599	WORD_OFF	n/a	n/a	HORSE	1	5	[0, 0, 0]	n/a	FR1	0	R1215M
1270.195	1.601	1278431	WORD	n/a	wordpools/wordpool_EN.txt	PALM	2	5	[0, 0, 0]	n/a	FR1	0	R1215M
1271.796	0.768	1280031	WORD_OFF	n/a	n/a	PALM	2	5	[0, 0, 0]	n/a	FR1	0	R1215M
1272.564	1.615	1280799	WORD	n/a	wordpools/wordpool_EN.txt	ROSE	3	5	[0, 0, 0]	n/a	FR1	0	R1215M
1274.179	0.867	1282414	WORD_OFF	n/a	n/a	ROSE	3	5	[0, 0, 0]	n/a	FR1	0	R1215M
1275.046	1.618	1283281	WORD	n/a	wordpools/wordpool_EN.txt	EEL	4	5	[0, 0, 0]	n/a	FR1	0	R1215M
1276.664	0.917	1284899	WORD_OFF	n/a	n/a	EEL	4	5	[0, 0, 0]	n/a	FR1	0	R1215M
1277.581	1.616	1285816	WORD	n/a	wordpools/wordpool_EN.txt	PHONE	5	5	[0, 0, 0]	n/a	FR1	0	R1215M
1279.197	0.817	1287432	WORD_OFF	n/a	n/a	PHONE	5	5	[0, 0, 0]	n/a	FR1	0	R1215M
1280.014	1.618	1288249	WORD	n/a	wordpools/wordpool_EN.txt	CASH	6	5	[0, 0, 0]	n/a	FR1	0	R1215M
1281.632	0.933	1289867	WORD_OFF	n/a	n/a	CASH	6	5	[0, 0, 0]	n/a	FR1	0	R1215M
1282.565	1.616	1290800	WORD	n/a	wordpools/wordpool_EN.txt	CROW	7	5	[0, 0, 0]	n/a	FR1	0	R1215M
1284.181	0.817	1292416	WORD_OFF	n/a	n/a	CROW	7	5	[0, 0, 0]	n/a	FR1	0	R1215M
1284.998	1.601	1293233	WORD	n/a	wordpools/wordpool_EN.txt	PRINCE	8	5	[0, 0, 0]	n/a	FR1	0	R1215M
1286.599	0.851	1294834	WORD_OFF	n/a	n/a	PRINCE	8	5	[0, 0, 0]	n/a	FR1	0	R1215M
1287.45	1.616	1295685	WORD	n/a	wordpools/wordpool_EN.txt	MAIL	9	5	[0, 0, 0]	n/a	FR1	0	R1215M
1289.066	0.933	1297300	WORD_OFF	n/a	n/a	MAIL	9	5	[0, 0, 0]	n/a	FR1	0	R1215M
1289.999	1.601	1298233	WORD	n/a	wordpools/wordpool_EN.txt	GRASS	10	5	[0, 0, 0]	n/a	FR1	0	R1215M
1291.6	0.851	1299834	WORD_OFF	n/a	n/a	GRASS	10	5	[0, 0, 0]	n/a	FR1	0	R1215M
1292.451	1.616	1300685	WORD	n/a	wordpools/wordpool_EN.txt	BLOOM	11	5	[0, 0, 0]	n/a	FR1	0	R1215M
1294.067	0.767	1302301	WORD_OFF	n/a	n/a	BLOOM	11	5	[0, 0, 0]	n/a	FR1	0	R1215M
1294.834	1.617	1303068	WORD	n/a	wordpools/wordpool_EN.txt	ROOM	12	5	[0, 0, 0]	n/a	FR1	0	R1215M
1296.451	0.0	1304685	DISTRACT_START	n/a	n/a	n/a	-999	5	[0, 0, 0]	n/a	FR1	0	R1215M
1296.451	0.001	1304685	WORD_OFF	n/a	n/a	ROOM	12	5	[0, 0, 0]	n/a	FR1	0	R1215M
1296.452	0.016	1304686	START	n/a	n/a	n/a	-999	5	[-999, -999, -999]	n/a	FR1	0	R1215M
1296.468	8.835	1304702	PROB	8.835	n/a	n/a	-999	5	[4, 2, 6]	12	FR1	0	R1215M
1305.303	5.135	1313536	PROB	5.135	n/a	n/a	-999	5	[7, 5, 2]	9	FR1	0	R1215M
1310.438	24.506	1318671	PROB	24.506	n/a	n/a	-999	5	[4, 4, 7]	15	FR1	0	R1215M
1334.944	0.014	1343176	STOP	n/a	n/a	n/a	-999	5	[-999, -999, -999]	n/a	FR1	0	R1215M
1334.958	0.651	1343190	DISTRACT_END	n/a	n/a	n/a	-999	5	[0, 0, 0]	n/a	FR1	0	R1215M
1335.609	0.516	1343841	RETRIEVAL_ORIENT	n/a	n/a	n/a	-999	5	[0, 0, 0]	n/a	FR1	0	R1215M
1336.125	2.457	1344357	REC_START	n/a	n/a	n/a	-999	5	[0, 0, 0]	n/a	FR1	0	R1215M
1338.582	10.578	1346814	REC_WORD	10.578	n/a	HORSE	-999	5	[0, 0, 0]	n/a	FR1	0	R1215M
1349.16	0.378	1357391	REC_WORD_VV	0.378	n/a	<>	-999	5	[0, 0, 0]	n/a	FR1	0	R1215M
1349.538	1.949	1357769	REC_WORD	1.949	n/a	SHOE	-999	5	[0, 0, 0]	n/a	FR1	0	R1215M
1351.487	1.0	1359718	REC_WORD_VV	1.0	n/a	<>	-999	5	[0, 0, 0]	n/a	FR1	0	R1215M
1352.487	13.651	1360718	REC_WORD_VV	13.651	n/a	<>	-999	5	[0, 0, 0]	n/a	FR1	0	R1215M
1366.138	2304.323	1374368	REC_END	n/a	n/a	n/a	-999	5	[0, 0, 0]	n/a	FR1	0	R1215M
3670.461	0.5	3678558	TRIAL	n/a	n/a	n/a	-999	6	[0, 0, 0]	n/a	FR1	0	R1215M
3670.961	10.428	3679058	COUNTDOWN_START	n/a	n/a	n/a	-999	6	[0, 0, 0]	n/a	FR1	0	R1215M
3681.389	0.008	3689485	COUNTDOWN_END	n/a	n/a	n/a	-999	6	[0, 0, 0]	n/a	FR1	0	R1215M
3681.397	1.616	3689493	ORIENT	n/a	n/a	n/a	-999	6	[0, 0, 0]	n/a	FR1	0	R1215M
3683.013	1.967	3691109	ORIENT_OFF	n/a	n/a	n/a	-999	6	[0, 0, 0]	n/a	FR1	0	R1215M
3684.98	1.618	3693076	WORD	n/a	wordpools/wordpool_EN.txt	CHIEF	1	6	[0, 0, 0]	n/a	FR1	0	R1215M
3686.598	0.833	3694694	WORD_OFF	n/a	n/a	CHIEF	1	6	[0, 0, 0]	n/a	FR1	0	R1215M
3687.431	1.616	3695527	WORD	n/a	wordpools/wordpool_EN.txt	JEEP	2	6	[0, 0, 0]	n/a	FR1	0	R1215M
3689.047	0.817	3697143	WORD_OFF	n/a	n/a	JEEP	2	6	[0, 0, 0]	n/a	FR1	0	R1215M
3689.864	1.601	3697960	WORD	n/a	wordpools/wordpool_EN.txt	STORE	3	6	[0, 0, 0]	n/a	FR1	0	R1215M
3691.465	0.934	3699561	WORD_OFF	n/a	n/a	STORE	3	6	[0, 0, 0]	n/a	FR1	0	R1215M
3692.399	1.616	3700494	WORD	n/a	wordpools/wordpool_EN.txt	PIT	4	6	[0, 0, 0]	n/a	FR1	0	R1215M
3694.015	0.917	3702110	WORD_OFF	n/a	n/a	PIT	4	6	[0, 0, 0]	n/a	FR1	0	R1215M
3694.932	1.618	3703027	WORD	n/a	wordpools/wordpool_EN.txt	CLOUD	5	6	[0, 0, 0]	n/a	FR1	0	R1215M
3696.55	0.867	3704645	WORD_OFF	n/a	n/a	CLOUD	5	6	[0, 0, 0]	n/a	FR1	0	R1215M
3697.417	1.615	3705512	WORD	n/a	wordpools/wordpool_EN.txt	SLIME	6	6	[0, 0, 0]	n/a	FR1	0	R1215M
3699.032	0.884	3707127	WORD_OFF	n/a	n/a	SLIME	6	6	[0, 0, 0]	n/a	FR1	0	R1215M
3699.916	1.601	3708011	WORD	n/a	wordpools/wordpool_EN.txt	SHIP	7	6	[0, 0, 0]	n/a	FR1	0	R1215M
3701.517	0.834	3709612	WORD_OFF	n/a	n/a	SHIP	7	6	[0, 0, 0]	n/a	FR1	0	R1215M
3702.351	1.616	3710446	WORD	n/a	wordpools/wordpool_EN.txt	TEETH	8	6	[0, 0, 0]	n/a	FR1	0	R1215M
3703.967	0.768	3712062	WORD_OFF	n/a	n/a	TEETH	8	6	[0, 0, 0]	n/a	FR1	0	R1215M
3704.735	1.616	3712830	WORD	n/a	wordpools/wordpool_EN.txt	DRUM	9	6	[0, 0, 0]	n/a	FR1	0	R1215M
3706.351	0.917	3714446	WORD_OFF	n/a	n/a	DRUM	9	6	[0, 0, 0]	n/a	FR1	0	R1215M
3707.268	1.616	3715363	WORD	n/a	wordpools/wordpool_EN.txt	SKI	10	6	[0, 0, 0]	n/a	FR1	0	R1215M
3708.884	0.768	3716979	WORD_OFF	n/a	n/a	SKI	10	6	[0, 0, 0]	n/a	FR1	0	R1215M
3709.652	1.617	3717746	WORD	n/a	wordpools/wordpool_EN.txt	SHEET	11	6	[0, 0, 0]	n/a	FR1	0	R1215M
3711.269	0.849	3719363	WORD_OFF	n/a	n/a	SHEET	11	6	[0, 0, 0]	n/a	FR1	0	R1215M
3712.118	1.618	3720212	WORD	n/a	wordpools/wordpool_EN.txt	PASTE	12	6	[0, 0, 0]	n/a	FR1	0	R1215M
3713.736	0.0	3721830	WORD_OFF	n/a	n/a	PASTE	12	6	[0, 0, 0]	n/a	FR1	0	R1215M
3713.736	0.001	3721830	DISTRACT_START	n/a	n/a	n/a	-999	6	[0, 0, 0]	n/a	FR1	0	R1215M
3713.737	0.016	3721831	START	n/a	n/a	n/a	-999	6	[-999, -999, -999]	n/a	FR1	0	R1215M
3713.753	13.586	3721847	PROB	13.586	n/a	n/a	-999	6	[6, 7, 3]	16	FR1	0	R1215M
3727.339	4.533	3735432	PROB	4.533	n/a	n/a	-999	6	[8, 2, 1]	11	FR1	0	R1215M
3731.872	4.873	3739965	PROB	4.873	n/a	n/a	-999	6	[3, 1, 3]	7	FR1	0	R1215M
3736.745	0.012	3744838	STOP	n/a	n/a	n/a	-999	6	[-999, -999, -999]	n/a	FR1	0	R1215M
3736.757	0.617	3744850	DISTRACT_END	n/a	n/a	n/a	-999	6	[0, 0, 0]	n/a	FR1	0	R1215M
3737.374	0.517	3745467	RETRIEVAL_ORIENT	n/a	n/a	n/a	-999	6	[0, 0, 0]	n/a	FR1	0	R1215M
3737.891	1.312	3745984	REC_START	n/a	n/a	n/a	-999	6	[0, 0, 0]	n/a	FR1	0	R1215M
3739.203	1.744	3747296	REC_WORD	1.744	n/a	JEEP	-999	6	[0, 0, 0]	n/a	FR1	0	R1215M
3740.947	0.763	3749040	REC_WORD_VV	0.763	n/a	<>	-999	6	[0, 0, 0]	n/a	FR1	0	R1215M
3741.71	1.561	3749803	REC_WORD	1.561	n/a	SAND	-999	6	[0, 0, 0]	n/a	FR1	0	R1215M
3743.271	2.063	3751364	REC_WORD	2.063	n/a	SUN	-999	6	[0, 0, 0]	n/a	FR1	0	R1215M
3745.334	3.374	3753426	REC_WORD	3.374	n/a	CLOUD	-999	6	[0, 0, 0]	n/a	FR1	0	R1215M
3748.708	2.292	3756800	REC_WORD	2.292	n/a	ROTATE	-999	6	[0, 0, 0]	n/a	FR1	0	R1215M
3751.0	9.334	3759092	REC_WORD	9.334	n/a	ROAD	-999	6	[0, 0, 0]	n/a	FR1	0	R1215M
3760.334	3.146	3768426	REC_WORD	3.146	n/a	DRINK	-999	6	[0, 0, 0]	n/a	FR1	0	R1215M
3763.48	4.421	3771571	REC_WORD	4.421	n/a	BAR	-999	6	[0, 0, 0]	n/a	FR1	0	R1215M
3767.901	13.548	3775992	REC_END	n/a	n/a	n/a	-999	6	[0, 0, 0]	n/a	FR1	0	R1215M
3781.449	0.5	3789539	TRIAL	n/a	n/a	n/a	-999	7	[0, 0, 0]	n/a	FR1	0	R1215M
3781.949	10.428	3790039	COUNTDOWN_START	n/a	n/a	n/a	-999	7	[0, 0, 0]	n/a	FR1	0	R1215M
3792.377	0.008	3800467	COUNTDOWN_END	n/a	n/a	n/a	-999	7	[0, 0, 0]	n/a	FR1	0	R1215M
3792.385	1.616	3800475	ORIENT	n/a	n/a	n/a	-999	7	[0, 0, 0]	n/a	FR1	0	R1215M
3794.001	2.084	3802091	ORIENT_OFF	n/a	n/a	n/a	-999	7	[0, 0, 0]	n/a	FR1	0	R1215M
3796.085	1.618	3804174	WORD	n/a	wordpools/wordpool_EN.txt	MOTH	1	7	[0, 0, 0]	n/a	FR1	0	R1215M
3797.703	0.85	3805792	WORD_OFF	n/a	n/a	MOTH	1	7	[0, 0, 0]	n/a	FR1	0	R1215M
3798.553	1.616	3806642	WORD	n/a	wordpools/wordpool_EN.txt	CAPE	2	7	[0, 0, 0]	n/a	FR1	0	R1215M
3800.169	0.8	3808258	WORD_OFF	n/a	n/a	CAPE	2	7	[0, 0, 0]	n/a	FR1	0	R1215M
3800.969	1.618	3809058	WORD	n/a	wordpools/wordpool_EN.txt	BENCH	3	7	[0, 0, 0]	n/a	FR1	0	R1215M
3802.587	0.817	3810676	WORD_OFF	n/a	n/a	BENCH	3	7	[0, 0, 0]	n/a	FR1	0	R1215M
3803.404	1.616	3811493	WORD	n/a	wordpools/wordpool_EN.txt	CAKE	4	7	[0, 0, 0]	n/a	FR1	0	R1215M
3805.02	0.933	3813109	WORD_OFF	n/a	n/a	CAKE	4	7	[0, 0, 0]	n/a	FR1	0	R1215M
3805.953	1.618	3814042	WORD	n/a	wordpools/wordpool_EN.txt	POOL	5	7	[0, 0, 0]	n/a	FR1	0	R1215M
3807.571	0.967	3815660	WORD_OFF	n/a	n/a	POOL	5	7	[0, 0, 0]	n/a	FR1	0	R1215M
3808.538	1.616	3816627	WORD	n/a	wordpools/wordpool_EN.txt	FARM	6	7	[0, 0, 0]	n/a	FR1	0	R1215M
3810.154	0.783	3818243	WORD_OFF	n/a	n/a	FARM	6	7	[0, 0, 0]	n/a	FR1	0	R1215M
3810.937	1.619	3819026	WORD	n/a	wordpools/wordpool_EN.txt	SUN	7	7	[0, 0, 0]	n/a	FR1	0	R1215M
3812.556	0.85	3820645	WORD_OFF	n/a	n/a	SUN	7	7	[0, 0, 0]	n/a	FR1	0	R1215M
3813.406	1.616	3821494	WORD	n/a	wordpools/wordpool_EN.txt	HOUSE	8	7	[0, 0, 0]	n/a	FR1	0	R1215M
3815.022	0.85	3823110	WORD_OFF	n/a	n/a	HOUSE	8	7	[0, 0, 0]	n/a	FR1	0	R1215M
3815.872	1.618	3823960	WORD	n/a	wordpools/wordpool_EN.txt	TOE	9	7	[0, 0, 0]	n/a	FR1	0	R1215M
3817.49	0.783	3825578	WORD_OFF	n/a	n/a	TOE	9	7	[0, 0, 0]	n/a	FR1	0	R1215M
3818.273	1.616	3826361	WORD	n/a	wordpools/wordpool_EN.txt	STEAK	10	7	[0, 0, 0]	n/a	FR1	0	R1215M
3819.889	0.851	3827977	WORD_OFF	n/a	n/a	STEAK	10	7	[0, 0, 0]	n/a	FR1	0	R1215M
3820.74	1.617	3828828	WORD	n/a	wordpools/wordpool_EN.txt	RIB	11	7	[0, 0, 0]	n/a	FR1	0	R1215M
3822.357	0.766	3830445	WORD_OFF	n/a	n/a	RIB	11	7	[0, 0, 0]	n/a	FR1	0	R1215M
3823.123	1.601	3831211	WORD	n/a	wordpools/wordpool_EN.txt	BATH	12	7	[0, 0, 0]	n/a	FR1	0	R1215M
3824.724	0.0	3832812	WORD_OFF	n/a	n/a	BATH	12	7	[0, 0, 0]	n/a	FR1	0	R1215M
3824.724	0.001	3832812	DISTRACT_START	n/a	n/a	n/a	-999	7	[0, 0, 0]	n/a	FR1	0	R1215M
3824.725	0.016	3832813	START	n/a	n/a	n/a	-999	7	[-999, -999, -999]	n/a	FR1	0	R1215M
3824.741	8.284	3832829	PROB	8.284	n/a	n/a	-999	7	[4, 4, 9]	17	FR1	0	R1215M
3833.025	5.552	3841112	PROB	5.552	n/a	n/a	-999	7	[2, 3, 7]	13	FR1	0	R1215M
3838.577	10.896	3846664	PROB	10.896	n/a	n/a	-999	7	[1, 9, 7]	17	FR1	0	R1215M
3849.473	0.006	3857559	STOP	n/a	n/a	n/a	-999	7	[-999, -999, -999]	n/a	FR1	0	R1215M
3849.479	0.566	3857565	DISTRACT_END	n/a	n/a	n/a	-999	7	[0, 0, 0]	n/a	FR1	0	R1215M
3850.045	0.519	3858131	RETRIEVAL_ORIENT	n/a	n/a	n/a	-999	7	[0, 0, 0]	n/a	FR1	0	R1215M
3850.564	1.012	3858650	REC_START	n/a	n/a	n/a	-999	7	[0, 0, 0]	n/a	FR1	0	R1215M
3851.576	1.236	3859662	REC_WORD	1.236	n/a	STEAK	-999	7	[0, 0, 0]	n/a	FR1	0	R1215M
3852.812	1.551	3860898	REC_WORD	1.551	n/a	RIB	-999	7	[0, 0, 0]	n/a	FR1	0	R1215M
3854.363	2.915	3862449	REC_WORD	2.915	n/a	BARBEQUE	-999	7	[0, 0, 0]	n/a	FR1	0	R1215M
3857.278	5.243	3865364	REC_WORD_VV	5.243	n/a	<>	-999	7	[0, 0, 0]	n/a	FR1	0	R1215M
3862.521	7.371	3870607	REC_WORD_VV	7.371	n/a	<>	-999	7	[0, 0, 0]	n/a	FR1	0	R1215M
3869.892	2.492	3877977	REC_WORD	2.492	n/a	GRILLING	-999	7	[0, 0, 0]	n/a	FR1	0	R1215M
3872.384	5.736	3880469	REC_WORD_VV	5.736	n/a	<>	-999	7	[0, 0, 0]	n/a	FR1	0	R1215M
3878.12	2.453	3886205	REC_WORD_VV	2.453	n/a	<>	-999	7	[0, 0, 0]	n/a	FR1	0	R1215M
3880.573	22.516	3888658	REC_END	n/a	n/a	n/a	-999	7	[0, 0, 0]	n/a	FR1	0	R1215M
3903.089	0.5	3911172	TRIAL	n/a	n/a	n/a	-999	8	[0, 0, 0]	n/a	FR1	0	R1215M
3903.589	10.428	3911672	COUNTDOWN_START	n/a	n/a	n/a	-999	8	[0, 0, 0]	n/a	FR1	0	R1215M
3914.017	0.007	3922100	COUNTDOWN_END	n/a	n/a	n/a	-999	8	[0, 0, 0]	n/a	FR1	0	R1215M
3914.024	1.618	3922107	ORIENT	n/a	n/a	n/a	-999	8	[0, 0, 0]	n/a	FR1	0	R1215M
3915.642	2.266	3923725	ORIENT_OFF	n/a	n/a	n/a	-999	8	[0, 0, 0]	n/a	FR1	0	R1215M
3917.908	1.618	3925990	WORD	n/a	wordpools/wordpool_EN.txt	ROOF	1	8	[0, 0, 0]	n/a	FR1	0	R1215M
3919.526	0.817	3927608	WORD_OFF	n/a	n/a	ROOF	1	8	[0, 0, 0]	n/a	FR1	0	R1215M
3920.343	1.616	3928425	WORD	n/a	wordpools/wordpool_EN.txt	SAIL	2	8	[0, 0, 0]	n/a	FR1	0	R1215M
3921.959	0.9	3930041	WORD_OFF	n/a	n/a	SAIL	2	8	[0, 0, 0]	n/a	FR1	0	R1215M
3922.859	1.618	3930941	WORD	n/a	wordpools/wordpool_EN.txt	OWL	3	8	[0, 0, 0]	n/a	FR1	0	R1215M
3924.477	0.884	3932559	WORD_OFF	n/a	n/a	OWL	3	8	[0, 0, 0]	n/a	FR1	0	R1215M
3925.361	1.616	3933443	WORD	n/a	wordpools/wordpool_EN.txt	SQUARE	4	8	[0, 0, 0]	n/a	FR1	0	R1215M
3926.977	0.85	3935059	WORD_OFF	n/a	n/a	SQUARE	4	8	[0, 0, 0]	n/a	FR1	0	R1215M
3927.827	1.618	3935909	WORD	n/a	wordpools/wordpool_EN.txt	SHOE	5	8	[0, 0, 0]	n/a	FR1	0	R1215M
3929.445	0.9	3937527	WORD_OFF	n/a	n/a	SHOE	5	8	[0, 0, 0]	n/a	FR1	0	R1215M
3930.345	1.616	3938427	WORD	n/a	wordpools/wordpool_EN.txt	DART	6	8	[0, 0, 0]	n/a	FR1	0	R1215M
3931.961	0.933	3940043	WORD_OFF	n/a	n/a	DART	6	8	[0, 0, 0]	n/a	FR1	0	R1215M
3932.894	1.602	3940976	WORD	n/a	wordpools/wordpool_EN.txt	CANE	7	8	[0, 0, 0]	n/a	FR1	0	R1215M
3934.496	0.783	3942577	WORD_OFF	n/a	n/a	CANE	7	8	[0, 0, 0]	n/a	FR1	0	R1215M
3935.279	1.616	3943360	WORD	n/a	wordpools/wordpool_EN.txt	DOLL	8	8	[0, 0, 0]	n/a	FR1	0	R1215M
3936.895	0.885	3944976	WORD_OFF	n/a	n/a	DOLL	8	8	[0, 0, 0]	n/a	FR1	0	R1215M
3937.78	1.617	3945861	WORD	n/a	wordpools/wordpool_EN.txt	CALF	9	8	[0, 0, 0]	n/a	FR1	0	R1215M
3939.397	1.0	3947478	WORD_OFF	n/a	n/a	CALF	9	8	[0, 0, 0]	n/a	FR1	0	R1215M
3940.397	1.616	3948478	WORD	n/a	wordpools/wordpool_EN.txt	DOOR	10	8	[0, 0, 0]	n/a	FR1	0	R1215M
3942.013	0.917	3950094	WORD_OFF	n/a	n/a	DOOR	10	8	[0, 0, 0]	n/a	FR1	0	R1215M
3942.93	1.601	3951011	WORD	n/a	wordpools/wordpool_EN.txt	SHIRT	11	8	[0, 0, 0]	n/a	FR1	0	R1215M
3944.531	0.8	3952612	WORD_OFF	n/a	n/a	SHIRT	11	8	[0, 0, 0]	n/a	FR1	0	R1215M
3945.331	1.616	3953412	WORD	n/a	wordpools/wordpool_EN.txt	TOOL	12	8	[0, 0, 0]	n/a	FR1	0	R1215M
3946.947	0.0	3955028	WORD_OFF	n/a	n/a	TOOL	12	8	[0, 0, 0]	n/a	FR1	0	R1215M
3946.947	0.001	3955028	DISTRACT_START	n/a	n/a	n/a	-999	8	[0, 0, 0]	n/a	FR1	0	R1215M
3946.948	0.016	3955029	START	n/a	n/a	n/a	-999	8	[-999, -999, -999]	n/a	FR1	0	R1215M
3946.964	6.435	3955045	PROB	6.435	n/a	n/a	-999	8	[4, 5, 9]	18	FR1	0	R1215M
3953.399	6.252	3961479	PROB	6.252	n/a	n/a	-999	8	[3, 8, 3]	14	FR1	0	R1215M
3959.651	5.5	3967731	PROB	5.5	n/a	n/a	-999	8	[5, 7, 5]	17	FR1	0	R1215M
3965.151	8.914	3973231	PROB	8.914	n/a	n/a	-999	8	[4, 1, 4]	9	FR1	0	R1215M
3974.065	0.021	3982144	STOP	n/a	n/a	n/a	-999	8	[-999, -999, -999]	n/a	FR1	0	R1215M
3974.086	0.684	3982165	DISTRACT_END	n/a	n/a	n/a	-999	8	[0, 0, 0]	n/a	FR1	0	R1215M
3974.77	0.518	3982849	RETRIEVAL_ORIENT	n/a	n/a	n/a	-999	8	[0, 0, 0]	n/a	FR1	0	R1215M
3975.288	0.999	3983367	REC_START	n/a	n/a	n/a	-999	8	[0, 0, 0]	n/a	FR1	0	R1215M
3976.287	0.951	3984366	REC_WORD	0.951	n/a	ROOF	-999	8	[0, 0, 0]	n/a	FR1	0	R1215M
3977.238	2.472	3985317	REC_WORD	2.472	n/a	SAIL	-999	8	[0, 0, 0]	n/a	FR1	0	R1215M
3979.71	2.945	3987789	REC_WORD	2.945	n/a	PORT	-999	8	[0, 0, 0]	n/a	FR1	0	R1215M
3982.655	1.937	3990734	REC_WORD_VV	1.937	n/a	<>	-999	8	[0, 0, 0]	n/a	FR1	0	R1215M
3984.592	4.076	3992671	REC_WORD	4.076	n/a	TOGETHER	-999	8	[0, 0, 0]	n/a	FR1	0	R1215M
3988.668	4.218	3996746	REC_WORD	4.218	n/a	BEATRICE	-999	8	[0, 0, 0]	n/a	FR1	0	R1215M
3992.886	4.608	4000964	REC_WORD	4.608	n/a	TOGETHER	-999	8	[0, 0, 0]	n/a	FR1	0	R1215M
3997.494	2.641	4005572	REC_WORD_VV	2.641	n/a	<>	-999	8	[0, 0, 0]	n/a	FR1	0	R1215M
4000.135	5.163	4008213	REC_WORD	5.163	n/a	OUT	-999	8	[0, 0, 0]	n/a	FR1	0	R1215M
4005.298	31.6	4013375	REC_END	n/a	n/a	n/a	-999	8	[0, 0, 0]	n/a	FR1	0	R1215M
4036.898	0.5	4044974	TRIAL	n/a	n/a	n/a	-999	9	[0, 0, 0]	n/a	FR1	0	R1215M
4037.398	10.428	4045474	COUNTDOWN_START	n/a	n/a	n/a	-999	9	[0, 0, 0]	n/a	FR1	0	R1215M
4047.826	0.007	4055901	COUNTDOWN_END	n/a	n/a	n/a	-999	9	[0, 0, 0]	n/a	FR1	0	R1215M
4047.833	1.601	4055908	ORIENT	n/a	n/a	n/a	-999	9	[0, 0, 0]	n/a	FR1	0	R1215M
4049.434	1.818	4057509	ORIENT_OFF	n/a	n/a	n/a	-999	9	[0, 0, 0]	n/a	FR1	0	R1215M
4051.252	1.616	4059327	WORD	n/a	wordpools/wordpool_EN.txt	ROPE	1	9	[0, 0, 0]	n/a	FR1	0	R1215M
4052.868	0.784	4060943	WORD_OFF	n/a	n/a	ROPE	1	9	[0, 0, 0]	n/a	FR1	0	R1215M
4053.652	1.617	4061727	WORD	n/a	wordpools/wordpool_EN.txt	CLOTH	2	9	[0, 0, 0]	n/a	FR1	0	R1215M
4055.269	0.799	4063344	WORD_OFF	n/a	n/a	CLOTH	2	9	[0, 0, 0]	n/a	FR1	0	R1215M
4056.068	1.618	4064142	WORD	n/a	wordpools/wordpool_EN.txt	WOOD	3	9	[0, 0, 0]	n/a	FR1	0	R1215M
4057.686	1.0	4065760	WORD_OFF	n/a	n/a	WOOD	3	9	[0, 0, 0]	n/a	FR1	0	R1215M
4058.686	1.617	4066760	WORD	n/a	wordpools/wordpool_EN.txt	RAKE	4	9	[0, 0, 0]	n/a	FR1	0	R1215M
4060.303	0.9	4068377	WORD_OFF	n/a	n/a	RAKE	4	9	[0, 0, 0]	n/a	FR1	0	R1215M
4061.203	1.617	4069277	WORD	n/a	wordpools/wordpool_EN.txt	PEACH	5	9	[0, 0, 0]	n/a	FR1	0	R1215M
4062.82	0.767	4070894	WORD_OFF	n/a	n/a	PEACH	5	9	[0, 0, 0]	n/a	FR1	0	R1215M
4063.587	1.616	4071661	WORD	n/a	wordpools/wordpool_EN.txt	WEED	6	9	[0, 0, 0]	n/a	FR1	0	R1215M
4065.203	0.934	4073277	WORD_OFF	n/a	n/a	WEED	6	9	[0, 0, 0]	n/a	FR1	0	R1215M
4066.137	1.618	4074211	WORD	n/a	wordpools/wordpool_EN.txt	CORD	7	9	[0, 0, 0]	n/a	FR1	0	R1215M
4067.755	0.767	4075829	WORD_OFF	n/a	n/a	CORD	7	9	[0, 0, 0]	n/a	FR1	0	R1215M
4068.522	1.616	4076596	WORD	n/a	wordpools/wordpool_EN.txt	WOLF	8	9	[0, 0, 0]	n/a	FR1	0	R1215M
4070.138	0.967	4078212	WORD_OFF	n/a	n/a	WOLF	8	9	[0, 0, 0]	n/a	FR1	0	R1215M
4071.105	1.618	4079179	WORD	n/a	wordpools/wordpool_EN.txt	BOOK	9	9	[0, 0, 0]	n/a	FR1	0	R1215M
4072.723	0.9	4080796	WORD_OFF	n/a	n/a	BOOK	9	9	[0, 0, 0]	n/a	FR1	0	R1215M
4073.623	1.617	4081696	WORD	n/a	wordpools/wordpool_EN.txt	LEAF	10	9	[0, 0, 0]	n/a	FR1	0	R1215M
4075.24	0.916	4083313	WORD_OFF	n/a	n/a	LEAF	10	9	[0, 0, 0]	n/a	FR1	0	R1215M
4076.156	1.617	4084229	WORD	n/a	wordpools/wordpool_EN.txt	FISH	11	9	[0, 0, 0]	n/a	FR1	0	R1215M
4077.773	0.867	4085846	WORD_OFF	n/a	n/a	FISH	11	9	[0, 0, 0]	n/a	FR1	0	R1215M
4078.64	1.617	4086713	WORD	n/a	wordpools/wordpool_EN.txt	MOUSE	12	9	[0, 0, 0]	n/a	FR1	0	R1215M
4080.257	0.0	4088330	WORD_OFF	n/a	n/a	MOUSE	12	9	[0, 0, 0]	n/a	FR1	0	R1215M
4080.257	0.001	4088330	DISTRACT_START	n/a	n/a	n/a	-999	9	[0, 0, 0]	n/a	FR1	0	R1215M
4080.258	0.016	4088331	START	n/a	n/a	n/a	-999	9	[-999, -999, -999]	n/a	FR1	0	R1215M
4080.274	11.136	4088347	PROB	11.136	n/a	n/a	-999	9	[2, 7, 3]	12	FR1	0	R1215M
4091.41	6.401	4099482	PROB	6.401	n/a	n/a	-999	9	[4, 8, 4]	16	FR1	0	R1215M
4097.811	18.174	4105883	PROB	18.174	n/a	n/a	-999	9	[3, 8, 3]	14	FR1	0	R1215M
4115.985	0.012	4124056	STOP	n/a	n/a	n/a	-999	9	[-999, -999, -999]	n/a	FR1	0	R1215M
4115.997	0.517	4124068	DISTRACT_END	n/a	n/a	n/a	-999	9	[0, 0, 0]	n/a	FR1	0	R1215M
4116.514	0.517	4124585	RETRIEVAL_ORIENT	n/a	n/a	n/a	-999	9	[0, 0, 0]	n/a	FR1	0	R1215M
4117.031	1.088	4125102	REC_START	n/a	n/a	n/a	-999	9	[0, 0, 0]	n/a	FR1	0	R1215M
4118.119	1.589	4126190	REC_WORD_VV	1.589	n/a	<>	-999	9	[0, 0, 0]	n/a	FR1	0	R1215M
4119.708	1.306	4127779	REC_WORD	1.306	n/a	PORT	-999	9	[0, 0, 0]	n/a	FR1	0	R1215M
4121.014	1.685	4129085	REC_WORD	1.685	n/a	WOOD	-999	9	[0, 0, 0]	n/a	FR1	0	R1215M
4122.699	1.733	4130770	REC_WORD_VV	1.733	n/a	<>	-999	9	[0, 0, 0]	n/a	FR1	0	R1215M
4124.432	2.957	4132503	REC_WORD	2.957	n/a	MOUSE	-999	9	[0, 0, 0]	n/a	FR1	0	R1215M
4127.389	2.344	4135459	REC_WORD_VV	2.344	n/a	<>	-999	9	[0, 0, 0]	n/a	FR1	0	R1215M
4129.733	13.206	4137803	REC_WORD	13.206	n/a	PORT RIFT	-999	9	[0, 0, 0]	n/a	FR1	0	R1215M
4142.939	4.103	4151008	REC_WORD	4.103	n/a	AXIS	-999	9	[0, 0, 0]	n/a	FR1	0	R1215M
4147.042	102.03	4155111	REC_END	n/a	n/a	n/a	-999	9	[0, 0, 0]	n/a	FR1	0	R1215M
4249.072	0.5	4257135	TRIAL	n/a	n/a	n/a	-999	10	[0, 0, 0]	n/a	FR1	0	R1215M
4249.572	10.428	4257635	COUNTDOWN_START	n/a	n/a	n/a	-999	10	[0, 0, 0]	n/a	FR1	0	R1215M
4260.0	0.008	4268063	COUNTDOWN_END	n/a	n/a	n/a	-999	10	[0, 0, 0]	n/a	FR1	0	R1215M
4260.008	1.601	4268071	ORIENT	n/a	n/a	n/a	-999	10	[0, 0, 0]	n/a	FR1	0	R1215M
4261.609	2.134	4269672	ORIENT_OFF	n/a	n/a	n/a	-999	10	[0, 0, 0]	n/a	FR1	0	R1215M
4263.743	1.617	4271805	WORD	n/a	wordpools/wordpool_EN.txt	RICE	1	10	[0, 0, 0]	n/a	FR1	0	R1215M
4265.36	0.782	4273422	WORD_OFF	n/a	n/a	RICE	1	10	[0, 0, 0]	n/a	FR1	0	R1215M
4266.142	1.601	4274204	WORD	n/a	wordpools/wordpool_EN.txt	TRAIN	2	10	[0, 0, 0]	n/a	FR1	0	R1215M
4267.743	0.834	4275805	WORD_OFF	n/a	n/a	TRAIN	2	10	[0, 0, 0]	n/a	FR1	0	R1215M
4268.577	1.616	4276639	WORD	n/a	wordpools/wordpool_EN.txt	BED	3	10	[0, 0, 0]	n/a	FR1	0	R1215M
4270.193	0.884	4278255	WORD_OFF	n/a	n/a	BED	3	10	[0, 0, 0]	n/a	FR1	0	R1215M
4271.077	1.618	4279139	WORD	n/a	wordpools/wordpool_EN.txt	BRICK	4	10	[0, 0, 0]	n/a	FR1	0	R1215M
4272.695	0.933	4280757	WORD_OFF	n/a	n/a	BRICK	4	10	[0, 0, 0]	n/a	FR1	0	R1215M
4273.628	1.617	4281690	WORD	n/a	wordpools/wordpool_EN.txt	MILK	5	10	[0, 0, 0]	n/a	FR1	0	R1215M
4275.245	1.017	4283307	WORD_OFF	n/a	n/a	MILK	5	10	[0, 0, 0]	n/a	FR1	0	R1215M
4276.262	1.616	4284324	WORD	n/a	wordpools/wordpool_EN.txt	BIRD	6	10	[0, 0, 0]	n/a	FR1	0	R1215M
4277.878	0.801	4285940	WORD_OFF	n/a	n/a	BIRD	6	10	[0, 0, 0]	n/a	FR1	0	R1215M
4278.679	1.617	4286741	WORD	n/a	wordpools/wordpool_EN.txt	JET	7	10	[0, 0, 0]	n/a	FR1	0	R1215M
4280.296	0.916	4288357	WORD_OFF	n/a	n/a	JET	7	10	[0, 0, 0]	n/a	FR1	0	R1215M
4281.212	1.617	4289273	WORD	n/a	wordpools/wordpool_EN.txt	HEN	8	10	[0, 0, 0]	n/a	FR1	0	R1215M
4282.829	0.901	4290890	WORD_OFF	n/a	n/a	HEN	8	10	[0, 0, 0]	n/a	FR1	0	R1215M
4283.73	1.617	4291791	WORD	n/a	wordpools/wordpool_EN.txt	SOAP	9	10	[0, 0, 0]	n/a	FR1	0	R1215M
4285.347	0.866	4293408	WORD_OFF	n/a	n/a	SOAP	9	10	[0, 0, 0]	n/a	FR1	0	R1215M
4286.213	1.617	4294274	WORD	n/a	wordpools/wordpool_EN.txt	PLANT	10	10	[0, 0, 0]	n/a	FR1	0	R1215M
4287.83	0.901	4295891	WORD_OFF	n/a	n/a	PLANT	10	10	[0, 0, 0]	n/a	FR1	0	R1215M
4288.731	1.617	4296792	WORD	n/a	wordpools/wordpool_EN.txt	FUDGE	11	10	[0, 0, 0]	n/a	FR1	0	R1215M
4290.348	1.0	4298409	WORD_OFF	n/a	n/a	FUDGE	11	10	[0, 0, 0]	n/a	FR1	0	R1215M
4291.348	1.616	4299409	WORD	n/a	wordpools/wordpool_EN.txt	STREET	12	10	[0, 0, 0]	n/a	FR1	0	R1215M
4292.964	0.0	4301025	WORD_OFF	n/a	n/a	STREET	12	10	[0, 0, 0]	n/a	FR1	0	R1215M
4292.964	0.001	4301025	DISTRACT_START	n/a	n/a	n/a	-999	10	[0, 0, 0]	n/a	FR1	0	R1215M
4292.965	0.016	4301026	START	n/a	n/a	n/a	-999	10	[-999, -999, -999]	n/a	FR1	0	R1215M
4292.981	10.118	4301042	PROB	10.118	n/a	n/a	-999	10	[2, 9, 5]	16	FR1	0	R1215M
4303.099	4.686	4311159	PROB	4.686	n/a	n/a	-999	10	[4, 6, 6]	16	FR1	0	R1215M
4307.785	4.817	4315845	PROB	4.817	n/a	n/a	-999	10	[4, 6, 3]	13	FR1	0	R1215M
4312.602	56.478	4320662	PROB	56.478	n/a	n/a	-999	10	[9, 9, 4]	22	FR1	0	R1215M
4369.08	0.016	4377136	STOP	n/a	n/a	n/a	-999	10	[-999, -999, -999]	n/a	FR1	0	R1215M
4369.096	0.517	4377152	DISTRACT_END	n/a	n/a	n/a	-999	10	[0, 0, 0]	n/a	FR1	0	R1215M
4369.613	0.517	4377669	RETRIEVAL_ORIENT	n/a	n/a	n/a	-999	10	[0, 0, 0]	n/a	FR1	0	R1215M
4370.13	0.673	4378186	REC_START	n/a	n/a	n/a	-999	10	[0, 0, 0]	n/a	FR1	0	R1215M
4370.803	1.0	4378859	REC_WORD_VV	1.0	n/a	<>	-999	10	[0, 0, 0]	n/a	FR1	0	R1215M
4371.803	0.997	4379859	REC_WORD_VV	0.997	n/a	<>	-999	10	[0, 0, 0]	n/a	FR1	0	R1215M
4372.8	1.299	4380856	REC_WORD_VV	1.299	n/a	<>	-999	10	[0, 0, 0]	n/a	FR1	0	R1215M
4374.099	2.173	4382155	REC_WORD	2.173	n/a	FUDGE	-999	10	[0, 0, 0]	n/a	FR1	0	R1215M
4376.272	1.79	4384328	REC_WORD_VV	1.79	n/a	<>	-999	10	[0, 0, 0]	n/a	FR1	0	R1215M
4378.062	0.895	4386118	REC_WORD	0.895	n/a	FUDGE	-999	10	[0, 0, 0]	n/a	FR1	0	R1215M
4378.957	5.414	4387013	REC_WORD_VV	5.414	n/a	<>	-999	10	[0, 0, 0]	n/a	FR1	0	R1215M
4384.371	1.049	4392426	REC_WORD	1.049	n/a	BED	-999	10	[0, 0, 0]	n/a	FR1	0	R1215M
4385.42	4.205	4393475	REC_WORD	4.205	n/a	TRAIN	-999	10	[0, 0, 0]	n/a	FR1	0	R1215M
4389.625	2.153	4397680	REC_WORD_VV	2.153	n/a	<>	-999	10	[0, 0, 0]	n/a	FR1	0	R1215M
4391.778	1.244	4399833	REC_WORD	1.244	n/a	SUN	-999	10	[0, 0, 0]	n/a	FR1	0	R1215M
4393.022	7.119	4401077	REC_WORD	7.119	n/a	BOY	-999	10	[0, 0, 0]	n/a	FR1	0	R1215M
4400.141	34.867	4408196	REC_END	n/a	n/a	n/a	-999	10	[0, 0, 0]	n/a	FR1	0	R1215M
4435.008	0.5	4443061	TRIAL	n/a	n/a	n/a	-999	11	[0, 0, 0]	n/a	FR1	0	R1215M
4435.508	10.428	4443561	COUNTDOWN_START	n/a	n/a	n/a	-999	11	[0, 0, 0]	n/a	FR1	0	R1215M
4445.936	0.008	4453988	COUNTDOWN_END	n/a	n/a	n/a	-999	11	[0, 0, 0]	n/a	FR1	0	R1215M
4445.944	1.618	4453996	ORIENT	n/a	n/a	n/a	-999	11	[0, 0, 0]	n/a	FR1	0	R1215M
4447.562	2.167	4455614	ORIENT_OFF	n/a	n/a	n/a	-999	11	[0, 0, 0]	n/a	FR1	0	R1215M
4449.729	1.617	4457781	WORD	n/a	wordpools/wordpool_EN.txt	JUICE	1	11	[0, 0, 0]	n/a	FR1	0	R1215M
4451.346	0.983	4459398	WORD_OFF	n/a	n/a	JUICE	1	11	[0, 0, 0]	n/a	FR1	0	R1215M
4452.329	1.616	4460381	WORD	n/a	wordpools/wordpool_EN.txt	ROOT	2	11	[0, 0, 0]	n/a	FR1	0	R1215M
4453.945	0.852	4461996	WORD_OFF	n/a	n/a	ROOT	2	11	[0, 0, 0]	n/a	FR1	0	R1215M
4454.797	1.617	4462848	WORD	n/a	wordpools/wordpool_EN.txt	HAT	3	11	[0, 0, 0]	n/a	FR1	0	R1215M
4456.414	0.883	4464465	WORD_OFF	n/a	n/a	HAT	3	11	[0, 0, 0]	n/a	FR1	0	R1215M
4457.297	1.616	4465348	WORD	n/a	wordpools/wordpool_EN.txt	BRIDGE	4	11	[0, 0, 0]	n/a	FR1	0	R1215M
4458.913	0.967	4466964	WORD_OFF	n/a	n/a	BRIDGE	4	11	[0, 0, 0]	n/a	FR1	0	R1215M
4459.88	1.618	4467931	WORD	n/a	wordpools/wordpool_EN.txt	ROAD	5	11	[0, 0, 0]	n/a	FR1	0	R1215M
4461.498	0.967	4469549	WORD_OFF	n/a	n/a	ROAD	5	11	[0, 0, 0]	n/a	FR1	0	R1215M
4462.465	1.616	4470516	WORD	n/a	wordpools/wordpool_EN.txt	JAIL	6	11	[0, 0, 0]	n/a	FR1	0	R1215M
4464.081	0.983	4472132	WORD_OFF	n/a	n/a	JAIL	6	11	[0, 0, 0]	n/a	FR1	0	R1215M
4465.064	1.618	4473115	WORD	n/a	wordpools/wordpool_EN.txt	TOAD	7	11	[0, 0, 0]	n/a	FR1	0	R1215M
4466.682	0.8	4474733	WORD_OFF	n/a	n/a	TOAD	7	11	[0, 0, 0]	n/a	FR1	0	R1215M
4467.482	1.616	4475533	WORD	n/a	wordpools/wordpool_EN.txt	ICE	8	11	[0, 0, 0]	n/a	FR1	0	R1215M
4469.098	1.017	4477149	WORD_OFF	n/a	n/a	ICE	8	11	[0, 0, 0]	n/a	FR1	0	R1215M
4470.115	1.601	4478166	WORD	n/a	wordpools/wordpool_EN.txt	FROG	9	11	[0, 0, 0]	n/a	FR1	0	R1215M
4471.716	0.884	4479766	WORD_OFF	n/a	n/a	FROG	9	11	[0, 0, 0]	n/a	FR1	0	R1215M
4472.6	1.616	4480650	WORD	n/a	wordpools/wordpool_EN.txt	INK	10	11	[0, 0, 0]	n/a	FR1	0	R1215M
4474.216	0.867	4482266	WORD_OFF	n/a	n/a	INK	10	11	[0, 0, 0]	n/a	FR1	0	R1215M
4475.083	1.618	4483133	WORD	n/a	wordpools/wordpool_EN.txt	BRUSH	11	11	[0, 0, 0]	n/a	FR1	0	R1215M
4476.701	0.883	4484751	WORD_OFF	n/a	n/a	BRUSH	11	11	[0, 0, 0]	n/a	FR1	0	R1215M
4477.584	1.616	4485634	WORD	n/a	wordpools/wordpool_EN.txt	SCHOOL	12	11	[0, 0, 0]	n/a	FR1	0	R1215M
4479.2	0.0	4487250	WORD_OFF	n/a	n/a	SCHOOL	12	11	[0, 0, 0]	n/a	FR1	0	R1215M
4479.2	0.001	4487250	DISTRACT_START	n/a	n/a	n/a	-999	11	[0, 0, 0]	n/a	FR1	0	R1215M
4479.201	0.016	4487251	START	n/a	n/a	n/a	-999	11	[-999, -999, -999]	n/a	FR1	0	R1215M
4479.217	6.436	4487267	PROB	6.436	n/a	n/a	-999	11	[1, 2, 2]	5	FR1	0	R1215M
4485.653	10.935	4493703	PROB	10.935	n/a	n/a	-999	11	[4, 8, 7]	19	FR1	0	R1215M
4496.588	10.869	4504637	PROB	10.869	n/a	n/a	-999	11	[8, 3, 6]	17	FR1	0	R1215M
4507.457	0.016	4515505	STOP	n/a	n/a	n/a	-999	11	[-999, -999, -999]	n/a	FR1	0	R1215M
4507.473	0.516	4515521	DISTRACT_END	n/a	n/a	n/a	-999	11	[0, 0, 0]	n/a	FR1	0	R1215M
4507.989	0.519	4516037	RETRIEVAL_ORIENT	n/a	n/a	n/a	-999	11	[0, 0, 0]	n/a	FR1	0	R1215M
4508.508	1.295	4516556	REC_START	n/a	n/a	n/a	-999	11	[0, 0, 0]	n/a	FR1	0	R1215M
4509.803	1.425	4517851	REC_WORD_VV	1.425	n/a	<>	-999	11	[0, 0, 0]	n/a	FR1	0	R1215M
4511.228	1.001	4519276	REC_WORD_VV	1.001	n/a	<>	-999	11	[0, 0, 0]	n/a	FR1	0	R1215M
4512.229	2.579	4520277	REC_WORD_VV	2.579	n/a	<>	-999	11	[0, 0, 0]	n/a	FR1	0	R1215M
4514.808	0.634	4522856	REC_WORD_VV	0.634	n/a	<>	-999	11	[0, 0, 0]	n/a	FR1	0	R1215M
4515.442	1.894	4523490	REC_WORD	1.894	n/a	BRIDGE	-999	11	[0, 0, 0]	n/a	FR1	0	R1215M
4517.336	1.078	4525384	REC_WORD_VV	1.078	n/a	<>	-999	11	[0, 0, 0]	n/a	FR1	0	R1215M
4518.414	1.472	4526462	REC_WORD	1.472	n/a	FUNNEL	-999	11	[0, 0, 0]	n/a	FR1	0	R1215M
4519.886	3.61	4527934	REC_WORD	3.61	n/a	TUNNEL	-999	11	[0, 0, 0]	n/a	FR1	0	R1215M
4523.496	0.596	4531543	REC_WORD_VV	0.596	n/a	<>	-999	11	[0, 0, 0]	n/a	FR1	0	R1215M
4524.092	2.428	4532139	REC_WORD	2.428	n/a	RED	-999	11	[0, 0, 0]	n/a	FR1	0	R1215M
4526.52	5.905	4534567	REC_WORD	5.905	n/a	RAINBOW	-999	11	[0, 0, 0]	n/a	FR1	0	R1215M
4532.425	6.093	4540472	REC_WORD	6.093	n/a	HAPPY	-999	11	[0, 0, 0]	n/a	FR1	0	R1215M
4538.518	67.224	4546565	REC_END	n/a	n/a	n/a	-999	11	[0, 0, 0]	n/a	FR1	0	R1215M
4605.742	0.5	4613785	TRIAL	n/a	n/a	n/a	-999	12	[0, 0, 0]	n/a	FR1	0	R1215M
4606.242	10.428	4614285	COUNTDOWN_START	n/a	n/a	n/a	-999	12	[0, 0, 0]	n/a	FR1	0	R1215M
4616.67	0.008	4624712	COUNTDOWN_END	n/a	n/a	n/a	-999	12	[0, 0, 0]	n/a	FR1	0	R1215M
4616.678	1.617	4624720	ORIENT	n/a	n/a	n/a	-999	12	[0, 0, 0]	n/a	FR1	0	R1215M
4618.295	1.833	4626337	ORIENT_OFF	n/a	n/a	n/a	-999	12	[0, 0, 0]	n/a	FR1	0	R1215M
4620.128	1.618	4628170	WORD	n/a	wordpools/wordpool_EN.txt	POND	1	12	[0, 0, 0]	n/a	FR1	0	R1215M
4621.746	0.983	4629788	WORD_OFF	n/a	n/a	POND	1	12	[0, 0, 0]	n/a	FR1	0	R1215M
4622.729	1.617	4630771	WORD	n/a	wordpools/wordpool_EN.txt	FOAM	2	12	[0, 0, 0]	n/a	FR1	0	R1215M
4624.346	0.866	4632388	WORD_OFF	n/a	n/a	FOAM	2	12	[0, 0, 0]	n/a	FR1	0	R1215M
4625.212	1.617	4633254	WORD	n/a	wordpools/wordpool_EN.txt	SMOKE	3	12	[0, 0, 0]	n/a	FR1	0	R1215M
4626.829	0.834	4634870	WORD_OFF	n/a	n/a	SMOKE	3	12	[0, 0, 0]	n/a	FR1	0	R1215M
4627.663	1.617	4635704	WORD	n/a	wordpools/wordpool_EN.txt	CONE	4	12	[0, 0, 0]	n/a	FR1	0	R1215M
4629.28	0.766	4637321	WORD_OFF	n/a	n/a	CONE	4	12	[0, 0, 0]	n/a	FR1	0	R1215M
4630.046	1.618	4638087	WORD	n/a	wordpools/wordpool_EN.txt	BEACH	5	12	[0, 0, 0]	n/a	FR1	0	R1215M
4631.664	0.984	4639705	WORD_OFF	n/a	n/a	BEACH	5	12	[0, 0, 0]	n/a	FR1	0	R1215M
4632.648	1.617	4640689	WORD	n/a	wordpools/wordpool_EN.txt	WHEEL	6	12	[0, 0, 0]	n/a	FR1	0	R1215M
4634.265	0.949	4642306	WORD_OFF	n/a	n/a	WHEEL	6	12	[0, 0, 0]	n/a	FR1	0	R1215M
4635.214	1.617	4643255	WORD	n/a	wordpools/wordpool_EN.txt	GOLD	7	12	[0, 0, 0]	n/a	FR1	0	R1215M
4636.831	0.884	4644872	WORD_OFF	n/a	n/a	GOLD	7	12	[0, 0, 0]	n/a	FR1	0	R1215M
4637.715	1.617	4645756	WORD	n/a	wordpools/wordpool_EN.txt	MOOSE	8	12	[0, 0, 0]	n/a	FR1	0	R1215M
4639.332	0.766	4647373	WORD_OFF	n/a	n/a	MOOSE	8	12	[0, 0, 0]	n/a	FR1	0	R1215M
4640.098	1.601	4648139	WORD	n/a	wordpools/wordpool_EN.txt	OAK	9	12	[0, 0, 0]	n/a	FR1	0	R1215M
4641.699	1.001	4649740	WORD_OFF	n/a	n/a	OAK	9	12	[0, 0, 0]	n/a	FR1	0	R1215M
4642.7	1.617	4650741	WORD	n/a	wordpools/wordpool_EN.txt	TANK	10	12	[0, 0, 0]	n/a	FR1	0	R1215M
4644.317	0.865	4652357	WORD_OFF	n/a	n/a	TANK	10	12	[0, 0, 0]	n/a	FR1	0	R1215M
4645.182	1.602	4653222	WORD	n/a	wordpools/wordpool_EN.txt	GEESE	11	12	[0, 0, 0]	n/a	FR1	0	R1215M
4646.784	0.967	4654824	WORD_OFF	n/a	n/a	GEESE	11	12	[0, 0, 0]	n/a	FR1	0	R1215M
4647.751	1.617	4655791	WORD	n/a	wordpools/wordpool_EN.txt	NEST	12	12	[0, 0, 0]	n/a	FR1	0	R1215M
4649.368	0.0	4657408	WORD_OFF	n/a	n/a	NEST	12	12	[0, 0, 0]	n/a	FR1	0	R1215M
4649.368	0.0	4657408	DISTRACT_START	n/a	n/a	n/a	-999	12	[0, 0, 0]	n/a	FR1	0	R1215M
4649.368	0.016	4657408	START	n/a	n/a	n/a	-999	12	[-999, -999, -999]	n/a	FR1	0	R1215M
4649.384	7.152	4657424	PROB	7.152	n/a	n/a	-999	12	[2, 4, 3]	9	FR1	0	R1215M
4656.536	4.583	4664576	PROB	4.583	n/a	n/a	-999	12	[4, 3, 3]	10	FR1	0	R1215M
4661.119	5.402	4669158	PROB	5.402	n/a	n/a	-999	12	[1, 8, 8]	17	FR1	0	R1215M
4666.521	4.655	4674560	PROB	4.655	n/a	n/a	-999	12	[3, 1, 8]	12	FR1	0	R1215M
4671.176	0.011	4679215	STOP	n/a	n/a	n/a	-999	12	[-999, -999, -999]	n/a	FR1	0	R1215M
4671.187	0.701	4679226	DISTRACT_END	n/a	n/a	n/a	-999	12	[0, 0, 0]	n/a	FR1	0	R1215M
4671.888	0.518	4679927	RETRIEVAL_ORIENT	n/a	n/a	n/a	-999	12	[0, 0, 0]	n/a	FR1	0	R1215M
4672.406	1.174	4680445	REC_START	n/a	n/a	n/a	-999	12	[0, 0, 0]	n/a	FR1	0	R1215M
4673.58	1.628	4681619	REC_WORD	1.628	n/a	GOLDEN	-999	12	[0, 0, 0]	n/a	FR1	0	R1215M
4675.208	2.84	4683247	REC_WORD	2.84	n/a	SMOKE	-999	12	[0, 0, 0]	n/a	FR1	0	R1215M
4678.048	5.63	4686087	REC_WORD	5.63	n/a	POND	-999	12	[0, 0, 0]	n/a	FR1	0	R1215M
4683.678	2.153	4691716	REC_WORD	2.153	n/a	BRIDGET	-999	12	[0, 0, 0]	n/a	FR1	0	R1215M
4685.831	0.208	4693869	REC_WORD_VV	0.208	n/a	<>	-999	12	[0, 0, 0]	n/a	FR1	0	R1215M
4686.039	0.581	4694077	REC_WORD	0.581	n/a	BRIDGES	-999	12	[0, 0, 0]	n/a	FR1	0	R1215M
4686.62	1.615	4694658	REC_WORD_VV	1.615	n/a	<>	-999	12	[0, 0, 0]	n/a	FR1	0	R1215M
4688.235	3.041	4696273	REC_WORD_VV	3.041	n/a	<>	-999	12	[0, 0, 0]	n/a	FR1	0	R1215M
4691.276	1.915	4699314	REC_WORD_VV	1.915	n/a	<>	-999	12	[0, 0, 0]	n/a	FR1	0	R1215M
4693.191	2.931	4701229	REC_WORD_VV	2.931	n/a	<>	-999	12	[0, 0, 0]	n/a	FR1	0	R1215M
4696.122	2.864	4704159	REC_WORD_VV	2.864	n/a	<>	-999	12	[0, 0, 0]	n/a	FR1	0	R1215M
4698.986	1.37	4707023	REC_WORD	1.37	n/a	GOLD	-999	12	[0, 0, 0]	n/a	FR1	0	R1215M
4700.356	1.105	4708393	REC_WORD_VV	1.105	n/a	<>	-999	12	[0, 0, 0]	n/a	FR1	0	R1215M
4701.461	0.955	4709498	REC_WORD_VV	0.955	n/a	<>	-999	12	[0, 0, 0]	n/a	FR1	0	R1215M
4702.416	39.203	4710453	REC_END	n/a	n/a	n/a	-999	12	[0, 0, 0]	n/a	FR1	0	R1215M
4741.619	0.5	4749654	TRIAL	n/a	n/a	n/a	-999	13	[0, 0, 0]	n/a	FR1	0	R1215M
4742.119	10.428	4750154	COUNTDOWN_START	n/a	n/a	n/a	-999	13	[0, 0, 0]	n/a	FR1	0	R1215M
4752.547	0.007	4760581	COUNTDOWN_END	n/a	n/a	n/a	-999	13	[0, 0, 0]	n/a	FR1	0	R1215M
4752.554	1.616	4760588	ORIENT	n/a	n/a	n/a	-999	13	[0, 0, 0]	n/a	FR1	0	R1215M
4754.17	2.251	4762204	ORIENT_OFF	n/a	n/a	n/a	-999	13	[0, 0, 0]	n/a	FR1	0	R1215M
4756.421	1.617	4764455	WORD	n/a	wordpools/wordpool_EN.txt	FORK	1	13	[0, 0, 0]	n/a	FR1	0	R1215M
4758.038	0.8	4766072	WORD_OFF	n/a	n/a	FORK	1	13	[0, 0, 0]	n/a	FR1	0	R1215M
4758.838	1.618	4766872	WORD	n/a	wordpools/wordpool_EN.txt	PARK	2	13	[0, 0, 0]	n/a	FR1	0	R1215M
4760.456	0.917	4768490	WORD_OFF	n/a	n/a	PARK	2	13	[0, 0, 0]	n/a	FR1	0	R1215M
4761.373	1.616	4769407	WORD	n/a	wordpools/wordpool_EN.txt	DITCH	3	13	[0, 0, 0]	n/a	FR1	0	R1215M
4762.989	0.784	4771023	WORD_OFF	n/a	n/a	DITCH	3	13	[0, 0, 0]	n/a	FR1	0	R1215M
4763.773	1.617	4771807	WORD	n/a	wordpools/wordpool_EN.txt	KITE	4	13	[0, 0, 0]	n/a	FR1	0	R1215M
4765.39	0.9	4773423	WORD_OFF	n/a	n/a	KITE	4	13	[0, 0, 0]	n/a	FR1	0	R1215M
4766.29	1.616	4774323	WORD	n/a	wordpools/wordpool_EN.txt	EAR	5	13	[0, 0, 0]	n/a	FR1	0	R1215M
4767.906	0.835	4775939	WORD_OFF	n/a	n/a	EAR	5	13	[0, 0, 0]	n/a	FR1	0	R1215M
4768.741	1.617	4776774	WORD	n/a	wordpools/wordpool_EN.txt	LAMB	6	13	[0, 0, 0]	n/a	FR1	0	R1215M
4770.358	0.883	4778391	WORD_OFF	n/a	n/a	LAMB	6	13	[0, 0, 0]	n/a	FR1	0	R1215M
4771.241	1.616	4779274	WORD	n/a	wordpools/wordpool_EN.txt	CAR	7	13	[0, 0, 0]	n/a	FR1	0	R1215M
4772.857	0.984	4780890	WORD_OFF	n/a	n/a	CAR	7	13	[0, 0, 0]	n/a	FR1	0	R1215M
4773.841	1.618	4781874	WORD	n/a	wordpools/wordpool_EN.txt	MAP	8	13	[0, 0, 0]	n/a	FR1	0	R1215M
4775.459	1.0	4783492	WORD_OFF	n/a	n/a	MAP	8	13	[0, 0, 0]	n/a	FR1	0	R1215M
4776.459	1.616	4784492	WORD	n/a	wordpools/wordpool_EN.txt	SEA	9	13	[0, 0, 0]	n/a	FR1	0	R1215M
4778.075	0.817	4786108	WORD_OFF	n/a	n/a	SEA	9	13	[0, 0, 0]	n/a	FR1	0	R1215M
4778.892	1.601	4786925	WORD	n/a	wordpools/wordpool_EN.txt	HOOK	10	13	[0, 0, 0]	n/a	FR1	0	R1215M
4780.493	0.95	4788526	WORD_OFF	n/a	n/a	HOOK	10	13	[0, 0, 0]	n/a	FR1	0	R1215M
4781.443	1.616	4789476	WORD	n/a	wordpools/wordpool_EN.txt	CROWN	11	13	[0, 0, 0]	n/a	FR1	0	R1215M
4783.059	0.967	4791091	WORD_OFF	n/a	n/a	CROWN	11	13	[0, 0, 0]	n/a	FR1	0	R1215M
4784.026	1.618	4792058	WORD	n/a	wordpools/wordpool_EN.txt	FLAME	12	13	[0, 0, 0]	n/a	FR1	0	R1215M
4785.644	0.0	4793676	WORD_OFF	n/a	n/a	FLAME	12	13	[0, 0, 0]	n/a	FR1	0	R1215M
4785.644	0.001	4793676	DISTRACT_START	n/a	n/a	n/a	-999	13	[0, 0, 0]	n/a	FR1	0	R1215M
4785.645	0.016	4793677	START	n/a	n/a	n/a	-999	13	[-999, -999, -999]	n/a	FR1	0	R1215M
4785.661	11.501	4793693	PROB	11.501	n/a	n/a	-999	13	[5, 7, 3]	15	FR1	0	R1215M
4797.162	3.085	4805194	PROB	3.085	n/a	n/a	-999	13	[1, 9, 1]	11	FR1	0	R1215M
4800.247	4.234	4808278	PROB	4.234	n/a	n/a	-999	13	[5, 8, 2]	15	FR1	0	R1215M
4804.481	5.495	4812512	PROB	5.495	n/a	n/a	-999	13	[7, 5, 4]	16	FR1	0	R1215M
4809.976	0.022	4818007	STOP	n/a	n/a	n/a	-999	13	[-999, -999, -999]	n/a	FR1	0	R1215M
4809.998	0.534	4818029	DISTRACT_END	n/a	n/a	n/a	-999	13	[0, 0, 0]	n/a	FR1	0	R1215M
4810.532	0.517	4818563	RETRIEVAL_ORIENT	n/a	n/a	n/a	-999	13	[0, 0, 0]	n/a	FR1	0	R1215M
4811.049	0.757	4819080	REC_START	n/a	n/a	n/a	-999	13	[0, 0, 0]	n/a	FR1	0	R1215M
4811.806	1.132	4819837	REC_WORD	1.132	n/a	LAMB	-999	13	[0, 0, 0]	n/a	FR1	0	R1215M
4812.938	2.16	4820969	REC_WORD	2.16	n/a	PORT	-999	13	[0, 0, 0]	n/a	FR1	0	R1215M
4815.098	1.957	4823129	REC_WORD	1.957	n/a	KITE	-999	13	[0, 0, 0]	n/a	FR1	0	R1215M
4817.055	2.173	4825085	REC_WORD_VV	2.173	n/a	<>	-999	13	[0, 0, 0]	n/a	FR1	0	R1215M
4819.228	3.11	4827258	REC_WORD	3.11	n/a	SMILE	-999	13	[0, 0, 0]	n/a	FR1	0	R1215M
4822.338	5.528	4830368	REC_WORD	5.528	n/a	CROWN	-999	13	[0, 0, 0]	n/a	FR1	0	R1215M
4827.866	2.494	4835896	REC_WORD	2.494	n/a	CRAZY	-999	13	[0, 0, 0]	n/a	FR1	0	R1215M
4830.36	1.02	4838390	REC_WORD_VV	1.02	n/a	<>	-999	13	[0, 0, 0]	n/a	FR1	0	R1215M
4831.38	4.57	4839410	REC_WORD	4.57	n/a	HAPPY	-999	13	[0, 0, 0]	n/a	FR1	0	R1215M
4835.95	5.11	4843979	REC_WORD	5.11	n/a	LEG	-999	13	[0, 0, 0]	n/a	FR1	0	R1215M
4841.06	31.967	4849089	REC_END	n/a	n/a	n/a	-999	13	[0, 0, 0]	n/a	FR1	0	R1215M
4873.027	0.5	4881054	TRIAL	n/a	n/a	n/a	-999	14	[0, 0, 0]	n/a	FR1	0	R1215M
4873.527	10.428	4881554	COUNTDOWN_START	n/a	n/a	n/a	-999	14	[0, 0, 0]	n/a	FR1	0	R1215M
4883.955	0.007	4891982	COUNTDOWN_END	n/a	n/a	n/a	-999	14	[0, 0, 0]	n/a	FR1	0	R1215M
4883.962	1.601	4891989	ORIENT	n/a	n/a	n/a	-999	14	[0, 0, 0]	n/a	FR1	0	R1215M
4885.563	1.984	4893590	ORIENT_OFF	n/a	n/a	n/a	-999	14	[0, 0, 0]	n/a	FR1	0	R1215M
4887.547	1.616	4895573	WORD	n/a	wordpools/wordpool_EN.txt	TOOTH	1	14	[0, 0, 0]	n/a	FR1	0	R1215M
4889.163	0.767	4897189	WORD_OFF	n/a	n/a	TOOTH	1	14	[0, 0, 0]	n/a	FR1	0	R1215M
4889.93	1.618	4897956	WORD	n/a	wordpools/wordpool_EN.txt	FOG	2	14	[0, 0, 0]	n/a	FR1	0	R1215M
4891.548	0.85	4899574	WORD_OFF	n/a	n/a	FOG	2	14	[0, 0, 0]	n/a	FR1	0	R1215M
4892.398	1.616	4900424	WORD	n/a	wordpools/wordpool_EN.txt	BEAR	3	14	[0, 0, 0]	n/a	FR1	0	R1215M
4894.014	0.934	4902040	WORD_OFF	n/a	n/a	BEAR	3	14	[0, 0, 0]	n/a	FR1	0	R1215M
4894.948	1.601	4902974	WORD	n/a	wordpools/wordpool_EN.txt	WING	4	14	[0, 0, 0]	n/a	FR1	0	R1215M
4896.549	0.9	4904575	WORD_OFF	n/a	n/a	WING	4	14	[0, 0, 0]	n/a	FR1	0	R1215M
4897.449	1.616	4905475	WORD	n/a	wordpools/wordpool_EN.txt	DUCK	5	14	[0, 0, 0]	n/a	FR1	0	R1215M
4899.065	0.867	4907091	WORD_OFF	n/a	n/a	DUCK	5	14	[0, 0, 0]	n/a	FR1	0	R1215M
4899.932	1.618	4907958	WORD	n/a	wordpools/wordpool_EN.txt	TRUCK	6	14	[0, 0, 0]	n/a	FR1	0	R1215M
4901.55	0.9	4909576	WORD_OFF	n/a	n/a	TRUCK	6	14	[0, 0, 0]	n/a	FR1	0	R1215M
4902.45	1.616	4910476	WORD	n/a	wordpools/wordpool_EN.txt	COIN	7	14	[0, 0, 0]	n/a	FR1	0	R1215M
4904.066	0.95	4912091	WORD_OFF	n/a	n/a	COIN	7	14	[0, 0, 0]	n/a	FR1	0	R1215M
4905.016	1.618	4913041	WORD	n/a	wordpools/wordpool_EN.txt	TENT	8	14	[0, 0, 0]	n/a	FR1	0	R1215M
4906.634	0.834	4914659	WORD_OFF	n/a	n/a	TENT	8	14	[0, 0, 0]	n/a	FR1	0	R1215M
4907.468	1.616	4915493	WORD	n/a	wordpools/wordpool_EN.txt	SWORD	9	14	[0, 0, 0]	n/a	FR1	0	R1215M
4909.084	0.9	4917109	WORD_OFF	n/a	n/a	SWORD	9	14	[0, 0, 0]	n/a	FR1	0	R1215M
4909.984	1.618	4918009	WORD	n/a	wordpools/wordpool_EN.txt	SLUSH	10	14	[0, 0, 0]	n/a	FR1	0	R1215M
4911.602	0.983	4919627	WORD_OFF	n/a	n/a	SLUSH	10	14	[0, 0, 0]	n/a	FR1	0	R1215M
4912.585	1.616	4920610	WORD	n/a	wordpools/wordpool_EN.txt	DOG	11	14	[0, 0, 0]	n/a	FR1	0	R1215M
4914.201	0.784	4922226	WORD_OFF	n/a	n/a	DOG	11	14	[0, 0, 0]	n/a	FR1	0	R1215M
4914.985	1.618	4923010	WORD	n/a	wordpools/wordpool_EN.txt	BEAN	12	14	[0, 0, 0]	n/a	FR1	0	R1215M
4916.603	0.0	4924628	DISTRACT_START	n/a	n/a	n/a	-999	14	[0, 0, 0]	n/a	FR1	0	R1215M
4916.603	0.0	4924628	WORD_OFF	n/a	n/a	BEAN	12	14	[0, 0, 0]	n/a	FR1	0	R1215M
4916.603	0.016	4924628	START	n/a	n/a	n/a	-999	14	[-999, -999, -999]	n/a	FR1	0	R1215M
4916.619	35.071	4924644	PROB	35.071	n/a	n/a	-999	14	[2, 4, 8]	9	FR1	0	R1215M
4951.69	0.02	4959713	STOP	n/a	n/a	n/a	-999	14	[-999, -999, -999]	n/a	FR1	0	R1215M
4951.71	0.55	4959733	DISTRACT_END	n/a	n/a	n/a	-999	14	[0, 0, 0]	n/a	FR1	0	R1215M
4952.26	0.517	4960283	RETRIEVAL_ORIENT	n/a	n/a	n/a	-999	14	[0, 0, 0]	n/a	FR1	0	R1215M
4952.777	30.0	4960800	REC_START	n/a	n/a	n/a	-999	14	[0, 0, 0]	n/a	FR1	0	R1215M
4982.777	0.011	4990798	REC_WORD_VV	0.011	n/a	<>	-999	14	[0, 0, 0]	n/a	FR1	0	R1215M
4982.788	8.729	4990809	REC_END	n/a	n/a	n/a	-999	14	[0, 0, 0]	n/a	FR1	0	R1215M
4991.517	0.5	4999537	TRIAL	n/a	n/a	n/a	-999	15	[0, 0, 0]	n/a	FR1	0	R1215M
4992.017	10.428	5000037	COUNTDOWN_START	n/a	n/a	n/a	-999	15	[0, 0, 0]	n/a	FR1	0	R1215M
5002.445	0.008	5010465	COUNTDOWN_END	n/a	n/a	n/a	-999	15	[0, 0, 0]	n/a	FR1	0	R1215M
5002.453	1.616	5010473	ORIENT	n/a	n/a	n/a	-999	15	[0, 0, 0]	n/a	FR1	0	R1215M
5004.069	2.134	5012089	ORIENT_OFF	n/a	n/a	n/a	-999	15	[0, 0, 0]	n/a	FR1	0	R1215M
5006.203	1.617	5014223	WORD	n/a	wordpools/wordpool_EN.txt	CHAIR	1	15	[0, 0, 0]	n/a	FR1	0	R1215M
5007.82	0.967	5015839	WORD_OFF	n/a	n/a	CHAIR	1	15	[0, 0, 0]	n/a	FR1	0	R1215M
5008.787	1.617	5016806	WORD	n/a	wordpools/wordpool_EN.txt	BAG	2	15	[0, 0, 0]	n/a	FR1	0	R1215M
5010.404	0.851	5018423	WORD_OFF	n/a	n/a	BAG	2	15	[0, 0, 0]	n/a	FR1	0	R1215M
5011.255	1.615	5019274	WORD	n/a	wordpools/wordpool_EN.txt	STOOL	3	15	[0, 0, 0]	n/a	FR1	0	R1215M
5012.87	0.818	5020889	WORD_OFF	n/a	n/a	STOOL	3	15	[0, 0, 0]	n/a	FR1	0	R1215M
5013.688	1.617	5021707	WORD	n/a	wordpools/wordpool_EN.txt	LAND	4	15	[0, 0, 0]	n/a	FR1	0	R1215M
5015.305	0.95	5023324	WORD_OFF	n/a	n/a	LAND	4	15	[0, 0, 0]	n/a	FR1	0	R1215M
5016.255	1.616	5024274	WORD	n/a	wordpools/wordpool_EN.txt	WORLD	5	15	[0, 0, 0]	n/a	FR1	0	R1215M
5017.871	0.785	5025890	WORD_OFF	n/a	n/a	WORLD	5	15	[0, 0, 0]	n/a	FR1	0	R1215M
5018.656	1.617	5026675	WORD	n/a	wordpools/wordpool_EN.txt	LOCK	6	15	[0, 0, 0]	n/a	FR1	0	R1215M
5020.273	0.983	5028292	WORD_OFF	n/a	n/a	LOCK	6	15	[0, 0, 0]	n/a	FR1	0	R1215M
5021.256	1.616	5029275	WORD	n/a	wordpools/wordpool_EN.txt	CRANE	7	15	[0, 0, 0]	n/a	FR1	0	R1215M
5022.872	0.902	5030891	WORD_OFF	n/a	n/a	CRANE	7	15	[0, 0, 0]	n/a	FR1	0	R1215M
5023.774	1.617	5031793	WORD	n/a	wordpools/wordpool_EN.txt	GUARD	8	15	[0, 0, 0]	n/a	FR1	0	R1215M
5025.391	0.799	5033409	WORD_OFF	n/a	n/a	GUARD	8	15	[0, 0, 0]	n/a	FR1	0	R1215M
5026.19	1.618	5034208	WORD	n/a	wordpools/wordpool_EN.txt	NOSE	9	15	[0, 0, 0]	n/a	FR1	0	R1215M
5027.808	0.867	5035826	WORD_OFF	n/a	n/a	NOSE	9	15	[0, 0, 0]	n/a	FR1	0	R1215M
5028.675	1.617	5036693	WORD	n/a	wordpools/wordpool_EN.txt	PEN	10	15	[0, 0, 0]	n/a	FR1	0	R1215M
5030.292	0.915	5038310	WORD_OFF	n/a	n/a	PEN	10	15	[0, 0, 0]	n/a	FR1	0	R1215M
5031.207	1.602	5039225	WORD	n/a	wordpools/wordpool_EN.txt	STONE	11	15	[0, 0, 0]	n/a	FR1	0	R1215M
5032.809	1.016	5040827	WORD_OFF	n/a	n/a	STONE	11	15	[0, 0, 0]	n/a	FR1	0	R1215M
5033.825	1.618	5041843	WORD	n/a	wordpools/wordpool_EN.txt	NAIL	12	15	[0, 0, 0]	n/a	FR1	0	R1215M
5035.443	0.0	5043461	WORD_OFF	n/a	n/a	NAIL	12	15	[0, 0, 0]	n/a	FR1	0	R1215M
5035.443	0.0	5043461	DISTRACT_START	n/a	n/a	n/a	-999	15	[0, 0, 0]	n/a	FR1	0	R1215M
5035.443	0.016	5043461	START	n/a	n/a	n/a	-999	15	[-999, -999, -999]	n/a	FR1	0	R1215M
5035.459	5.918	5043477	PROB	5.918	n/a	n/a	-999	15	[8, 1, 2]	11	FR1	0	R1215M
5041.377	6.201	5049394	PROB	6.201	n/a	n/a	-999	15	[2, 7, 8]	17	FR1	0	R1215M
5047.578	5.118	5055595	PROB	5.118	n/a	n/a	-999	15	[4, 5, 2]	11	FR1	0	R1215M
5052.696	4.465	5060713	PROB	4.465	n/a	n/a	-999	15	[1, 4, 6]	11	FR1	0	R1215M
5057.161	0.018	5065178	STOP	n/a	n/a	n/a	-999	15	[-999, -999, -999]	n/a	FR1	0	R1215M
5057.179	0.7	5065196	DISTRACT_END	n/a	n/a	n/a	-999	15	[0, 0, 0]	n/a	FR1	0	R1215M
5057.879	0.519	5065896	RETRIEVAL_ORIENT	n/a	n/a	n/a	-999	15	[0, 0, 0]	n/a	FR1	0	R1215M
5058.398	1.857	5066415	REC_START	n/a	n/a	n/a	-999	15	[0, 0, 0]	n/a	FR1	0	R1215M
5060.255	0.913	5068271	REC_WORD_VV	0.913	n/a	<>	-999	15	[0, 0, 0]	n/a	FR1	0	R1215M
5061.168	0.976	5069184	REC_WORD	0.976	n/a	LEG	-999	15	[0, 0, 0]	n/a	FR1	0	R1215M
5062.144	0.708	5070160	REC_WORD	0.708	n/a	CHAIR	-999	15	[0, 0, 0]	n/a	FR1	0	R1215M
5062.852	1.77	5070868	REC_WORD	1.77	n/a	ARM	-999	15	[0, 0, 0]	n/a	FR1	0	R1215M
5064.622	1.898	5072638	REC_WORD_VV	1.898	n/a	<>	-999	15	[0, 0, 0]	n/a	FR1	0	R1215M
5066.52	4.314	5074536	REC_WORD	4.314	n/a	WOODEN	-999	15	[0, 0, 0]	n/a	FR1	0	R1215M
5070.834	2.989	5078850	REC_WORD	2.989	n/a	CROWN	-999	15	[0, 0, 0]	n/a	FR1	0	R1215M
5073.823	12.484	5081839	REC_WORD	12.484	n/a	MOLD	-999	15	[0, 0, 0]	n/a	FR1	0	R1215M
5086.307	2.1	5094322	REC_WORD_VV	2.1	n/a	<>	-999	15	[0, 0, 0]	n/a	FR1	0	R1215M
5088.407	67.475	5096422	REC_END	n/a	n/a	n/a	-999	15	[0, 0, 0]	n/a	FR1	0	R1215M
5155.882	0.5	5163893	TRIAL	n/a	n/a	n/a	-999	16	[0, 0, 0]	n/a	FR1	0	R1215M
5156.382	10.428	5164393	COUNTDOWN_START	n/a	n/a	n/a	-999	16	[0, 0, 0]	n/a	FR1	0	R1215M
5166.81	0.007	5174820	COUNTDOWN_END	n/a	n/a	n/a	-999	16	[0, 0, 0]	n/a	FR1	0	R1215M
5166.817	1.618	5174827	ORIENT	n/a	n/a	n/a	-999	16	[0, 0, 0]	n/a	FR1	0	R1215M
5168.435	1.95	5176445	ORIENT_OFF	n/a	n/a	n/a	-999	16	[0, 0, 0]	n/a	FR1	0	R1215M
5170.385	1.616	5178395	WORD	n/a	wordpools/wordpool_EN.txt	FENCE	1	16	[0, 0, 0]	n/a	FR1	0	R1215M
5172.001	0.984	5180011	WORD_OFF	n/a	n/a	FENCE	1	16	[0, 0, 0]	n/a	FR1	0	R1215M
5172.985	1.601	5180995	WORD	n/a	wordpools/wordpool_EN.txt	YARD	2	16	[0, 0, 0]	n/a	FR1	0	R1215M
5174.586	0.784	5182596	WORD_OFF	n/a	n/a	YARD	2	16	[0, 0, 0]	n/a	FR1	0	R1215M
5175.37	1.616	5183380	WORD	n/a	wordpools/wordpool_EN.txt	STRING	3	16	[0, 0, 0]	n/a	FR1	0	R1215M
5176.986	1.0	5184996	WORD_OFF	n/a	n/a	STRING	3	16	[0, 0, 0]	n/a	FR1	0	R1215M
5177.986	1.618	5185996	WORD	n/a	wordpools/wordpool_EN.txt	FLUTE	4	16	[0, 0, 0]	n/a	FR1	0	R1215M
5179.604	0.983	5187614	WORD_OFF	n/a	n/a	FLUTE	4	16	[0, 0, 0]	n/a	FR1	0	R1215M
5180.587	1.616	5188596	WORD	n/a	wordpools/wordpool_EN.txt	FACE	5	16	[0, 0, 0]	n/a	FR1	0	R1215M
5182.203	1.001	5190212	WORD_OFF	n/a	n/a	FACE	5	16	[0, 0, 0]	n/a	FR1	0	R1215M
5183.204	1.617	5191213	WORD	n/a	wordpools/wordpool_EN.txt	TOAST	6	16	[0, 0, 0]	n/a	FR1	0	R1215M
5184.821	0.884	5192830	WORD_OFF	n/a	n/a	TOAST	6	16	[0, 0, 0]	n/a	FR1	0	R1215M
5185.705	1.617	5193714	WORD	n/a	wordpools/wordpool_EN.txt	MUG	7	16	[0, 0, 0]	n/a	FR1	0	R1215M
5187.322	0.782	5195331	WORD_OFF	n/a	n/a	MUG	7	16	[0, 0, 0]	n/a	FR1	0	R1215M
5188.104	1.618	5196113	WORD	n/a	wordpools/wordpool_EN.txt	ARM	8	16	[0, 0, 0]	n/a	FR1	0	R1215M
5189.722	1.001	5197731	WORD_OFF	n/a	n/a	ARM	8	16	[0, 0, 0]	n/a	FR1	0	R1215M
5190.723	1.617	5198732	WORD	n/a	wordpools/wordpool_EN.txt	FLEA	9	16	[0, 0, 0]	n/a	FR1	0	R1215M
5192.34	0.765	5200349	WORD_OFF	n/a	n/a	FLEA	9	16	[0, 0, 0]	n/a	FR1	0	R1215M
5193.105	1.619	5201114	WORD	n/a	wordpools/wordpool_EN.txt	SEAL	10	16	[0, 0, 0]	n/a	FR1	0	R1215M
5194.724	0.8	5202733	WORD_OFF	n/a	n/a	SEAL	10	16	[0, 0, 0]	n/a	FR1	0	R1215M
5195.524	1.616	5203533	WORD	n/a	wordpools/wordpool_EN.txt	SUIT	11	16	[0, 0, 0]	n/a	FR1	0	R1215M
5197.14	0.783	5205148	WORD_OFF	n/a	n/a	SUIT	11	16	[0, 0, 0]	n/a	FR1	0	R1215M
5197.923	1.618	5205931	WORD	n/a	wordpools/wordpool_EN.txt	PIN	12	16	[0, 0, 0]	n/a	FR1	0	R1215M
5199.541	0.0	5207549	WORD_OFF	n/a	n/a	PIN	12	16	[0, 0, 0]	n/a	FR1	0	R1215M
5199.541	0.001	5207549	DISTRACT_START	n/a	n/a	n/a	-999	16	[0, 0, 0]	n/a	FR1	0	R1215M
5199.542	0.016	5207550	START	n/a	n/a	n/a	-999	16	[-999, -999, -999]	n/a	FR1	0	R1215M
5199.558	7.868	5207566	PROB	7.868	n/a	n/a	-999	16	[3, 4, 5]	12	FR1	0	R1215M
5207.426	5.118	5215434	PROB	5.118	n/a	n/a	-999	16	[1, 3, 5]	9	FR1	0	R1215M
5212.544	28.169	5220552	PROB	28.169	n/a	n/a	-999	16	[8, 4, 2]	14	FR1	0	R1215M
5240.713	0.019	5248719	STOP	n/a	n/a	n/a	-999	16	[-999, -999, -999]	n/a	FR1	0	R1215M
5240.732	0.551	5248738	DISTRACT_END	n/a	n/a	n/a	-999	16	[0, 0, 0]	n/a	FR1	0	R1215M
5241.283	0.517	5249289	RETRIEVAL_ORIENT	n/a	n/a	n/a	-999	16	[0, 0, 0]	n/a	FR1	0	R1215M
5241.8	1.832	5249806	REC_START	n/a	n/a	n/a	-999	16	[0, 0, 0]	n/a	FR1	0	R1215M
5243.632	3.282	5251638	REC_WORD	3.282	n/a	FLUTE	-999	16	[0, 0, 0]	n/a	FR1	0	R1215M
5246.914	1.238	5254920	REC_WORD	1.238	n/a	FENCE	-999	16	[0, 0, 0]	n/a	FR1	0	R1215M
5248.152	2.48	5256158	REC_WORD_VV	2.48	n/a	<>	-999	16	[0, 0, 0]	n/a	FR1	0	R1215M
5250.632	6.733	5258637	REC_WORD	6.733	n/a	MUG	-999	16	[0, 0, 0]	n/a	FR1	0	R1215M
5257.365	3.342	5265370	REC_WORD	3.342	n/a	CUP	-999	16	[0, 0, 0]	n/a	FR1	0	R1215M
5260.707	3.232	5268712	REC_WORD	3.232	n/a	CUP	-999	16	[0, 0, 0]	n/a	FR1	0	R1215M
5263.939	7.871	5271944	REC_WORD_VV	7.871	n/a	<>	-999	16	[0, 0, 0]	n/a	FR1	0	R1215M
5271.81	30.951	5279814	REC_END	n/a	n/a	n/a	-999	16	[0, 0, 0]	n/a	FR1	0	R1215M
5302.761	0.5	5310763	TRIAL	n/a	n/a	n/a	-999	17	[0, 0, 0]	n/a	FR1	0	R1215M
5303.261	10.428	5311263	COUNTDOWN_START	n/a	n/a	n/a	-999	17	[0, 0, 0]	n/a	FR1	0	R1215M
5313.689	0.008	5321691	COUNTDOWN_END	n/a	n/a	n/a	-999	17	[0, 0, 0]	n/a	FR1	0	R1215M
5313.697	1.617	5321699	ORIENT	n/a	n/a	n/a	-999	17	[0, 0, 0]	n/a	FR1	0	R1215M
5315.314	2.183	5323316	ORIENT_OFF	n/a	n/a	n/a	-999	17	[0, 0, 0]	n/a	FR1	0	R1215M
5317.497	1.616	5325499	WORD	n/a	wordpools/wordpool_EN.txt	THUMB	1	17	[0, 0, 0]	n/a	FR1	0	R1215M
5319.113	1.0	5327114	WORD_OFF	n/a	n/a	THUMB	1	17	[0, 0, 0]	n/a	FR1	0	R1215M
5320.113	1.619	5328114	WORD	n/a	wordpools/wordpool_EN.txt	HEART	2	17	[0, 0, 0]	n/a	FR1	0	R1215M
5321.732	0.966	5329733	WORD_OFF	n/a	n/a	HEART	2	17	[0, 0, 0]	n/a	FR1	0	R1215M
5322.698	1.617	5330699	WORD	n/a	wordpools/wordpool_EN.txt	BOMB	3	17	[0, 0, 0]	n/a	FR1	0	R1215M
5324.315	0.783	5332316	WORD_OFF	n/a	n/a	BOMB	3	17	[0, 0, 0]	n/a	FR1	0	R1215M
5325.098	1.618	5333099	WORD	n/a	wordpools/wordpool_EN.txt	SMILE	4	17	[0, 0, 0]	n/a	FR1	0	R1215M
5326.716	0.767	5334717	WORD_OFF	n/a	n/a	SMILE	4	17	[0, 0, 0]	n/a	FR1	0	R1215M
5327.483	1.616	5335484	WORD	n/a	wordpools/wordpool_EN.txt	SNAIL	5	17	[0, 0, 0]	n/a	FR1	0	R1215M
5329.099	0.817	5337100	WORD_OFF	n/a	n/a	SNAIL	5	17	[0, 0, 0]	n/a	FR1	0	R1215M
5329.916	1.617	5337917	WORD	n/a	wordpools/wordpool_EN.txt	BOOT	6	17	[0, 0, 0]	n/a	FR1	0	R1215M
5331.533	0.917	5339534	WORD_OFF	n/a	n/a	BOOT	6	17	[0, 0, 0]	n/a	FR1	0	R1215M
5332.45	1.616	5340451	WORD	n/a	wordpools/wordpool_EN.txt	PURSE	7	17	[0, 0, 0]	n/a	FR1	0	R1215M
5334.066	0.8	5342067	WORD_OFF	n/a	n/a	PURSE	7	17	[0, 0, 0]	n/a	FR1	0	R1215M
5334.866	1.618	5342867	WORD	n/a	wordpools/wordpool_EN.txt	STRAW	8	17	[0, 0, 0]	n/a	FR1	0	R1215M
5336.484	0.984	5344484	WORD_OFF	n/a	n/a	STRAW	8	17	[0, 0, 0]	n/a	FR1	0	R1215M
5337.468	1.616	5345468	WORD	n/a	wordpools/wordpool_EN.txt	RUG	9	17	[0, 0, 0]	n/a	FR1	0	R1215M
5339.084	0.9	5347084	WORD_OFF	n/a	n/a	RUG	9	17	[0, 0, 0]	n/a	FR1	0	R1215M
5339.984	1.618	5347984	WORD	n/a	wordpools/wordpool_EN.txt	WHALE	10	17	[0, 0, 0]	n/a	FR1	0	R1215M
5341.602	0.867	5349602	WORD_OFF	n/a	n/a	WHALE	10	17	[0, 0, 0]	n/a	FR1	0	R1215M
5342.469	1.616	5350469	WORD	n/a	wordpools/wordpool_EN.txt	PEAR	11	17	[0, 0, 0]	n/a	FR1	0	R1215M
5344.085	0.867	5352085	WORD_OFF	n/a	n/a	PEAR	11	17	[0, 0, 0]	n/a	FR1	0	R1215M
5344.952	1.618	5352952	WORD	n/a	wordpools/wordpool_EN.txt	STICK	12	17	[0, 0, 0]	n/a	FR1	0	R1215M
5346.57	0.0	5354570	WORD_OFF	n/a	n/a	STICK	12	17	[0, 0, 0]	n/a	FR1	0	R1215M
5346.57	0.0	5354570	DISTRACT_START	n/a	n/a	n/a	-999	17	[0, 0, 0]	n/a	FR1	0	R1215M
5346.57	0.016	5354570	START	n/a	n/a	n/a	-999	17	[-999, -999, -999]	n/a	FR1	0	R1215M
5346.586	17.854	5354586	PROB	17.854	n/a	n/a	-999	17	[2, 3, 7]	7	FR1	0	R1215M
5364.44	7.066	5372439	PROB	7.066	n/a	n/a	-999	17	[3, 8, 8]	9	FR1	0	R1215M
5371.506	0.018	5379504	STOP	n/a	n/a	n/a	-999	17	[-999, -999, -999]	n/a	FR1	0	R1215M
5371.524	0.701	5379522	DISTRACT_END	n/a	n/a	n/a	-999	17	[0, 0, 0]	n/a	FR1	0	R1215M
5372.225	0.517	5380223	RETRIEVAL_ORIENT	n/a	n/a	n/a	-999	17	[0, 0, 0]	n/a	FR1	0	R1215M
5372.742	0.838	5380740	REC_START	n/a	n/a	n/a	-999	17	[0, 0, 0]	n/a	FR1	0	R1215M
5373.58	4.955	5381578	REC_WORD	4.955	n/a	SNAIL	-999	17	[0, 0, 0]	n/a	FR1	0	R1215M
5378.535	3.302	5386533	REC_WORD	3.302	n/a	COLOR	-999	17	[0, 0, 0]	n/a	FR1	0	R1215M
5381.837	1.128	5389835	REC_WORD_VV	1.128	n/a	<>	-999	17	[0, 0, 0]	n/a	FR1	0	R1215M
5382.965	4.973	5390963	REC_WORD	4.973	n/a	CANVAS	-999	17	[0, 0, 0]	n/a	FR1	0	R1215M
5387.938	14.814	5395935	REC_WORD	14.814	n/a	CARNIVAL	-999	17	[0, 0, 0]	n/a	FR1	0	R1215M
5402.752	43.136	5410749	REC_END	n/a	n/a	n/a	-999	17	[0, 0, 0]	n/a	FR1	0	R1215M
5445.888	0.5	5453882	TRIAL	n/a	n/a	n/a	-999	18	[0, 0, 0]	n/a	FR1	0	R1215M
5446.388	10.428	5454382	COUNTDOWN_START	n/a	n/a	n/a	-999	18	[0, 0, 0]	n/a	FR1	0	R1215M
5456.816	0.007	5464809	COUNTDOWN_END	n/a	n/a	n/a	-999	18	[0, 0, 0]	n/a	FR1	0	R1215M
5456.823	1.618	5464816	ORIENT	n/a	n/a	n/a	-999	18	[0, 0, 0]	n/a	FR1	0	R1215M
5458.441	2.084	5466434	ORIENT_OFF	n/a	n/a	n/a	-999	18	[0, 0, 0]	n/a	FR1	0	R1215M
5460.525	1.616	5468518	WORD	n/a	wordpools/wordpool_EN.txt	BOY	1	18	[0, 0, 0]	n/a	FR1	0	R1215M
5462.141	0.867	5470134	WORD_OFF	n/a	n/a	BOY	1	18	[0, 0, 0]	n/a	FR1	0	R1215M
5463.008	1.618	5471001	WORD	n/a	wordpools/wordpool_EN.txt	STAR	2	18	[0, 0, 0]	n/a	FR1	0	R1215M
5464.626	0.917	5472619	WORD_OFF	n/a	n/a	STAR	2	18	[0, 0, 0]	n/a	FR1	0	R1215M
5465.543	1.616	5473536	WORD	n/a	wordpools/wordpool_EN.txt	FILM	3	18	[0, 0, 0]	n/a	FR1	0	R1215M
5467.159	0.917	5475152	WORD_OFF	n/a	n/a	FILM	3	18	[0, 0, 0]	n/a	FR1	0	R1215M
5468.076	1.617	5476069	WORD	n/a	wordpools/wordpool_EN.txt	BAT	4	18	[0, 0, 0]	n/a	FR1	0	R1215M
5469.693	0.951	5477686	WORD_OFF	n/a	n/a	BAT	4	18	[0, 0, 0]	n/a	FR1	0	R1215M
5470.644	1.617	5478637	WORD	n/a	wordpools/wordpool_EN.txt	SHEEP	5	18	[0, 0, 0]	n/a	FR1	0	R1215M
5472.261	0.816	5480254	WORD_OFF	n/a	n/a	SHEEP	5	18	[0, 0, 0]	n/a	FR1	0	R1215M
5473.077	1.617	5481070	WORD	n/a	wordpools/wordpool_EN.txt	GLASS	6	18	[0, 0, 0]	n/a	FR1	0	R1215M
5474.694	0.834	5482686	WORD_OFF	n/a	n/a	GLASS	6	18	[0, 0, 0]	n/a	FR1	0	R1215M
5475.528	1.616	5483520	WORD	n/a	wordpools/wordpool_EN.txt	COW	7	18	[0, 0, 0]	n/a	FR1	0	R1215M
5477.144	0.817	5485136	WORD_OFF	n/a	n/a	COW	7	18	[0, 0, 0]	n/a	FR1	0	R1215M
5477.961	1.618	5485953	WORD	n/a	wordpools/wordpool_EN.txt	SWAMP	8	18	[0, 0, 0]	n/a	FR1	0	R1215M
5479.579	0.95	5487571	WORD_OFF	n/a	n/a	SWAMP	8	18	[0, 0, 0]	n/a	FR1	0	R1215M
5480.529	1.616	5488521	WORD	n/a	wordpools/wordpool_EN.txt	MULE	9	18	[0, 0, 0]	n/a	FR1	0	R1215M
5482.145	1.0	5490137	WORD_OFF	n/a	n/a	MULE	9	18	[0, 0, 0]	n/a	FR1	0	R1215M
5483.145	1.618	5491137	WORD	n/a	wordpools/wordpool_EN.txt	CAGE	10	18	[0, 0, 0]	n/a	FR1	0	R1215M
5484.763	0.867	5492755	WORD_OFF	n/a	n/a	CAGE	10	18	[0, 0, 0]	n/a	FR1	0	R1215M
5485.63	1.617	5493622	WORD	n/a	wordpools/wordpool_EN.txt	SIGN	11	18	[0, 0, 0]	n/a	FR1	0	R1215M
5487.247	0.849	5495239	WORD_OFF	n/a	n/a	SIGN	11	18	[0, 0, 0]	n/a	FR1	0	R1215M
5488.096	1.618	5496088	WORD	n/a	wordpools/wordpool_EN.txt	BEAK	12	18	[0, 0, 0]	n/a	FR1	0	R1215M
5489.714	0.0	5497706	WORD_OFF	n/a	n/a	BEAK	12	18	[0, 0, 0]	n/a	FR1	0	R1215M
5489.714	0.001	5497706	DISTRACT_START	n/a	n/a	n/a	-999	18	[0, 0, 0]	n/a	FR1	0	R1215M
5489.715	0.016	5497707	START	n/a	n/a	n/a	-999	18	[-999, -999, -999]	n/a	FR1	0	R1215M
5489.731	11.351	5497723	PROB	11.351	n/a	n/a	-999	18	[8, 6, 5]	19	FR1	0	R1215M
5501.082	4.017	5509073	PROB	4.017	n/a	n/a	-999	18	[1, 9, 1]	11	FR1	0	R1215M
5505.099	4.336	5513090	PROB	4.336	n/a	n/a	-999	18	[6, 6, 2]	14	FR1	0	R1215M
5509.435	7.974	5517425	PROB	7.974	n/a	n/a	-999	18	[9, 2, 6]	15	FR1	0	R1215M
5517.409	0.01	5525399	STOP	n/a	n/a	n/a	-999	18	[-999, -999, -999]	n/a	FR1	0	R1215M
5517.419	0.649	5525409	DISTRACT_END	n/a	n/a	n/a	-999	18	[0, 0, 0]	n/a	FR1	0	R1215M
5518.068	0.519	5526058	RETRIEVAL_ORIENT	n/a	n/a	n/a	-999	18	[0, 0, 0]	n/a	FR1	0	R1215M
5518.587	1.132	5526577	REC_START	n/a	n/a	n/a	-999	18	[0, 0, 0]	n/a	FR1	0	R1215M
5519.719	0.795	5527709	REC_WORD	0.795	n/a	BOY	-999	18	[0, 0, 0]	n/a	FR1	0	R1215M
5520.514	1.755	5528504	REC_WORD	1.755	n/a	BAT	-999	18	[0, 0, 0]	n/a	FR1	0	R1215M
5522.269	2.866	5530259	REC_WORD	2.866	n/a	SHEEP	-999	18	[0, 0, 0]	n/a	FR1	0	R1215M
5525.135	0.372	5533125	REC_WORD_VV	0.372	n/a	<>	-999	18	[0, 0, 0]	n/a	FR1	0	R1215M
5525.507	3.142	5533497	REC_WORD	3.142	n/a	MULE	-999	18	[0, 0, 0]	n/a	FR1	0	R1215M
5528.649	3.491	5536638	REC_WORD_VV	3.491	n/a	<>	-999	18	[0, 0, 0]	n/a	FR1	0	R1215M
5532.14	1.0	5540129	REC_WORD	1.0	n/a	MULE	-999	18	[0, 0, 0]	n/a	FR1	0	R1215M
5533.14	1.001	5541129	REC_WORD_VV	1.001	n/a	<>	-999	18	[0, 0, 0]	n/a	FR1	0	R1215M
5534.141	1.098	5542130	REC_WORD_VV	1.098	n/a	<>	-999	18	[0, 0, 0]	n/a	FR1	0	R1215M
5535.239	9.284	5543228	REC_WORD_VV	9.284	n/a	<>	-999	18	[0, 0, 0]	n/a	FR1	0	R1215M
5544.523	2.391	5552511	REC_WORD_VV	2.391	n/a	<>	-999	18	[0, 0, 0]	n/a	FR1	0	R1215M
5546.914	0.524	5554902	REC_WORD	0.524	n/a	MAIL	-999	18	[0, 0, 0]	n/a	FR1	0	R1215M
5547.438	1.161	5555426	REC_WORD	1.161	n/a	MATE	-999	18	[0, 0, 0]	n/a	FR1	0	R1215M
5548.599	68.056	5556587	REC_END	n/a	n/a	n/a	-999	18	[0, 0, 0]	n/a	FR1	0	R1215M
5616.655	0.5	5624639	TRIAL	n/a	n/a	n/a	-999	19	[0, 0, 0]	n/a	FR1	0	R1215M
5617.155	0.0	5625139	COUNTDOWN_START	n/a	n/a	n/a	-999	19	[0, 0, 0]	n/a	FR1	0	R1215M
