onset	duration	sample	trial_type	response_time	stim_file	item_name	serialpos	list	test	answer	experiment	session	subject
0.0	161.697	67022	INSTRUCT_START	n/a	n/a	n/a	-999	-999	[0, 0, 0]	n/a	FR1	0	R1382T
161.697	55.117	228704	INSTRUCT_END	n/a	n/a	n/a	-999	-999	[0, 0, 0]	n/a	FR1	0	R1382T
216.814	10.35	283823	COUNTDOWN_START	n/a	n/a	n/a	-999	-999	[0, 0, 0]	n/a	FR1	0	R1382T
227.164	0.001	294162	COUNTDOWN_END	n/a	n/a	n/a	-999	-999	[0, 0, 0]	n/a	FR1	0	R1382T
227.165	2.115	294176	ENCODING_START	n/a	n/a	n/a	-999	-1	[0, 0, 0]	n/a	FR1	0	R1382T
229.28	1.617	296286	WORD	n/a	n/a	CAMEL	1	-1	[0, 0, 0]	n/a	FR1	0	R1382T
230.897	0.95	297907	WORD_OFF	n/a	n/a	CAMEL	1	-1	[0, 0, 0]	n/a	FR1	0	R1382T
231.847	1.616	298843	WORD	n/a	n/a	COTTON	2	-1	[0, 0, 0]	n/a	FR1	0	R1382T
233.463	0.884	300464	WORD_OFF	n/a	n/a	COTTON	2	-1	[0, 0, 0]	n/a	FR1	0	R1382T
234.347	1.616	301344	WORD	n/a	n/a	BEAM	3	-1	[0, 0, 0]	n/a	FR1	0	R1382T
235.963	0.95	302964	WORD_OFF	n/a	n/a	BEAM	3	-1	[0, 0, 0]	n/a	FR1	0	R1382T
236.913	1.6	303914	WORD	n/a	n/a	CHEST	4	-1	[0, 0, 0]	n/a	FR1	0	R1382T
238.513	0.933	305521	WORD_OFF	n/a	n/a	CHEST	4	-1	[0, 0, 0]	n/a	FR1	0	R1382T
239.446	1.601	306443	WORD	n/a	n/a	IMAGE	5	-1	[0, 0, 0]	n/a	FR1	0	R1382T
241.047	0.883	308050	WORD_OFF	n/a	n/a	IMAGE	5	-1	[0, 0, 0]	n/a	FR1	0	R1382T
241.93	1.6	308930	WORD	n/a	n/a	RHINO	6	-1	[0, 0, 0]	n/a	FR1	0	R1382T
243.53	0.866	310537	WORD_OFF	n/a	n/a	RHINO	6	-1	[0, 0, 0]	n/a	FR1	0	R1382T
244.396	1.617	311403	WORD	n/a	n/a	TONGUE	7	-1	[0, 0, 0]	n/a	FR1	0	R1382T
246.013	0.933	313010	WORD_OFF	n/a	n/a	TONGUE	7	-1	[0, 0, 0]	n/a	FR1	0	R1382T
246.946	1.6	313946	WORD	n/a	n/a	FLOOD	8	-1	[0, 0, 0]	n/a	FR1	0	R1382T
248.546	0.784	315553	WORD_OFF	n/a	n/a	FLOOD	8	-1	[0, 0, 0]	n/a	FR1	0	R1382T
249.33	1.6	316335	WORD	n/a	n/a	RING	9	-1	[0, 0, 0]	n/a	FR1	0	R1382T
250.93	0.983	317928	WORD_OFF	n/a	n/a	RING	9	-1	[0, 0, 0]	n/a	FR1	0	R1382T
251.913	1.616	318920	WORD	n/a	n/a	BABY	10	-1	[0, 0, 0]	n/a	FR1	0	R1382T
253.529	0.834	320527	WORD_OFF	n/a	n/a	BABY	10	-1	[0, 0, 0]	n/a	FR1	0	R1382T
254.363	1.616	321365	WORD	n/a	n/a	WATCH	11	-1	[0, 0, 0]	n/a	FR1	0	R1382T
255.979	0.984	322986	WORD_OFF	n/a	n/a	WATCH	11	-1	[0, 0, 0]	n/a	FR1	0	R1382T
256.963	1.601	323964	WORD	n/a	n/a	WAGON	12	-1	[0, 0, 0]	n/a	FR1	0	R1382T
258.564	0.002	325558	PROB	0.002	n/a	n/a	-999	-1	[4, 1, 5]	10	FR1	0	R1382T
258.566	0.0	325560	START	n/a	n/a	n/a	-999	-1	[-999, -999, -999]	n/a	FR1	0	R1382T
258.563	0.001	325571	WORD_OFF	n/a	n/a	WAGON	12	-1	[0, 0, 0]	n/a	FR1	0	R1382T
258.564	0.002	325571	ENCODING_END	n/a	n/a	n/a	-999	-1	[0, 0, 0]	n/a	FR1	0	R1382T
258.566	6.116	325571	DISTRACT_START	n/a	n/a	n/a	-999	-1	[0, 0, 0]	n/a	FR1	0	R1382T
264.682	5.799	331676	PROB	5.799	n/a	n/a	-999	-1	[2, 4, 3]	9	FR1	0	R1382T
270.481	9.066	337475	PROB	9.066	n/a	n/a	-999	-1	[7, 7, 7]	21	FR1	0	R1382T
279.547	0.0	346540	STOP	n/a	n/a	n/a	-999	-1	[-999, -999, -999]	n/a	FR1	0	R1382T
279.547	1.318	346543	DISTRACT_END	n/a	n/a	n/a	-999	-1	[0, 0, 0]	n/a	FR1	0	R1382T
280.865	0.643	347870	REC_START	n/a	n/a	n/a	-999	-1	[0, 0, 0]	n/a	FR1	0	R1382T
281.508	1.237	348501	REC_WORD_VV	1.237	n/a	<>	-999	-1	[0, 0, 0]	n/a	FR1	0	R1382T
282.745	0.429	349738	REC_WORD_VV	0.429	n/a	<>	-999	-1	[0, 0, 0]	n/a	FR1	0	R1382T
283.174	1.065	350167	REC_WORD	1.065	n/a	CAMEL	1	-1	[0, 0, 0]	n/a	FR1	0	R1382T
284.239	1.581	351232	REC_WORD	1.581	n/a	COTTON	2	-1	[0, 0, 0]	n/a	FR1	0	R1382T
285.82	1.628	352813	REC_WORD_VV	1.628	n/a	<>	-999	-1	[0, 0, 0]	n/a	FR1	0	R1382T
287.448	1.0	354441	REC_WORD	1.0	n/a	RHINO	6	-1	[0, 0, 0]	n/a	FR1	0	R1382T
288.448	2.092	355441	REC_WORD_VV	2.092	n/a	<>	-999	-1	[0, 0, 0]	n/a	FR1	0	R1382T
290.54	1.675	357532	REC_WORD_VV	1.675	n/a	<>	-999	-1	[0, 0, 0]	n/a	FR1	0	R1382T
292.215	1.0	359207	REC_WORD_VV	1.0	n/a	<>	-999	-1	[0, 0, 0]	n/a	FR1	0	R1382T
293.215	1.0	360207	REC_WORD_VV	1.0	n/a	<>	-999	-1	[0, 0, 0]	n/a	FR1	0	R1382T
294.215	0.713	361207	REC_WORD_VV	0.713	n/a	<>	-999	-1	[0, 0, 0]	n/a	FR1	0	R1382T
294.928	2.352	361920	REC_WORD_VV	2.352	n/a	<>	-999	-1	[0, 0, 0]	n/a	FR1	0	R1382T
297.28	0.767	364272	REC_WORD	0.767	n/a	BEAM	3	-1	[0, 0, 0]	n/a	FR1	0	R1382T
298.047	7.012	365039	REC_WORD_VV	7.012	n/a	<>	-999	-1	[0, 0, 0]	n/a	FR1	0	R1382T
305.059	1.0	372051	REC_WORD_VV	1.0	n/a	<>	-999	-1	[0, 0, 0]	n/a	FR1	0	R1382T
306.059	0.357	373051	REC_WORD_VV	0.357	n/a	<>	-999	-1	[0, 0, 0]	n/a	FR1	0	R1382T
306.416	0.364	373408	REC_WORD	0.364	n/a	BABY	10	-1	[0, 0, 0]	n/a	FR1	0	R1382T
306.78	1.0	373772	REC_WORD_VV	1.0	n/a	<>	-999	-1	[0, 0, 0]	n/a	FR1	0	R1382T
307.78	0.795	374772	REC_WORD_VV	0.795	n/a	<>	-999	-1	[0, 0, 0]	n/a	FR1	0	R1382T
308.575	2.554	375567	REC_WORD_VV	2.554	n/a	<>	-999	-1	[0, 0, 0]	n/a	FR1	0	R1382T
311.129	40.251	378133	REC_END	n/a	n/a	n/a	-999	-1	[0, 0, 0]	n/a	FR1	0	R1382T
351.38	10.351	418372	COUNTDOWN_START	n/a	n/a	n/a	-999	1	[0, 0, 0]	n/a	FR1	0	R1382T
361.731	0.0	428725	COUNTDOWN_END	n/a	n/a	n/a	-999	1	[0, 0, 0]	n/a	FR1	0	R1382T
361.731	2.232	428725	ENCODING_START	n/a	n/a	n/a	-999	1	[0, 0, 0]	n/a	FR1	0	R1382T
363.963	1.601	430960	WORD	n/a	n/a	VINE	1	1	[0, 0, 0]	n/a	FR1	0	R1382T
365.564	0.884	432553	WORD_OFF	n/a	n/a	VINE	1	1	[0, 0, 0]	n/a	FR1	0	R1382T
366.448	1.616	433447	WORD	n/a	n/a	TOY	2	1	[0, 0, 0]	n/a	FR1	0	R1382T
368.064	0.85	435054	WORD_OFF	n/a	n/a	TOY	2	1	[0, 0, 0]	n/a	FR1	0	R1382T
368.914	1.6	435906	WORD	n/a	n/a	EARTH	3	1	[0, 0, 0]	n/a	FR1	0	R1382T
370.514	0.8	437513	WORD_OFF	n/a	n/a	EARTH	3	1	[0, 0, 0]	n/a	FR1	0	R1382T
371.314	1.6	438309	WORD	n/a	n/a	BOOK	4	1	[0, 0, 0]	n/a	FR1	0	R1382T
372.914	0.9	439916	WORD_OFF	n/a	n/a	BOOK	4	1	[0, 0, 0]	n/a	FR1	0	R1382T
373.814	1.615	440810	WORD	n/a	n/a	NIGHT	5	1	[0, 0, 0]	n/a	FR1	0	R1382T
375.429	0.851	442431	WORD_OFF	n/a	n/a	NIGHT	5	1	[0, 0, 0]	n/a	FR1	0	R1382T
376.28	1.6	443269	WORD	n/a	n/a	HEEL	6	1	[0, 0, 0]	n/a	FR1	0	R1382T
377.88	0.884	444876	WORD_OFF	n/a	n/a	HEEL	6	1	[0, 0, 0]	n/a	FR1	0	R1382T
378.764	1.6	445756	WORD	n/a	n/a	OAR	7	1	[0, 0, 0]	n/a	FR1	0	R1382T
380.364	1.0	447363	WORD_OFF	n/a	n/a	OAR	7	1	[0, 0, 0]	n/a	FR1	0	R1382T
381.364	1.6	448355	WORD	n/a	n/a	SOAP	8	1	[0, 0, 0]	n/a	FR1	0	R1382T
382.964	0.966	449962	WORD_OFF	n/a	n/a	SOAP	8	1	[0, 0, 0]	n/a	FR1	0	R1382T
383.93	1.6	450926	WORD	n/a	n/a	PET	9	1	[0, 0, 0]	n/a	FR1	0	R1382T
385.53	0.85	452519	WORD_OFF	n/a	n/a	PET	9	1	[0, 0, 0]	n/a	FR1	0	R1382T
386.38	1.617	453371	WORD	n/a	n/a	RUG	10	1	[0, 0, 0]	n/a	FR1	0	R1382T
387.997	1.0	454992	WORD_OFF	n/a	n/a	RUG	10	1	[0, 0, 0]	n/a	FR1	0	R1382T
388.997	1.6	455998	WORD	n/a	n/a	LENS	11	1	[0, 0, 0]	n/a	FR1	0	R1382T
390.597	0.95	457591	WORD_OFF	n/a	n/a	LENS	11	1	[0, 0, 0]	n/a	FR1	0	R1382T
391.547	1.618	458541	WORD	n/a	n/a	JAW	12	1	[0, 0, 0]	n/a	FR1	0	R1382T
393.165	0.001	460152	PROB	0.001	n/a	n/a	-999	1	[1, 7, 4]	12	FR1	0	R1382T
393.166	0.0	460153	START	n/a	n/a	n/a	-999	1	[-999, -999, -999]	n/a	FR1	0	R1382T
393.164	0.002	460161	WORD_OFF	n/a	n/a	JAW	12	1	[0, 0, 0]	n/a	FR1	0	R1382T
393.166	0.0	460161	ENCODING_END	n/a	n/a	n/a	-999	1	[0, 0, 0]	n/a	FR1	0	R1382T
393.166	10.915	460161	DISTRACT_START	n/a	n/a	n/a	-999	1	[0, 0, 0]	n/a	FR1	0	R1382T
404.081	5.383	471068	PROB	5.383	n/a	n/a	-999	1	[7, 3, 3]	13	FR1	0	R1382T
409.464	8.449	476450	PROB	8.449	n/a	n/a	-999	1	[3, 4, 4]	11	FR1	0	R1382T
417.913	0.0	484899	STOP	n/a	n/a	n/a	-999	1	[-999, -999, -999]	n/a	FR1	0	R1382T
417.913	1.234	484905	DISTRACT_END	n/a	n/a	n/a	-999	1	[0, 0, 0]	n/a	FR1	0	R1382T
419.147	1.086	486135	REC_START	n/a	n/a	n/a	-999	1	[0, 0, 0]	n/a	FR1	0	R1382T
420.233	0.516	487219	REC_WORD_VV	0.516	n/a	<>	-999	1	[0, 0, 0]	n/a	FR1	0	R1382T
420.749	1.015	487735	REC_WORD	1.015	n/a	VINE	1	1	[0, 0, 0]	n/a	FR1	0	R1382T
421.764	1.632	488750	REC_WORD	1.632	n/a	TOY	2	1	[0, 0, 0]	n/a	FR1	0	R1382T
423.396	1.51	490382	REC_WORD	1.51	n/a	BOOK	4	1	[0, 0, 0]	n/a	FR1	0	R1382T
424.906	1.872	491892	REC_WORD	1.872	n/a	HEEL	6	1	[0, 0, 0]	n/a	FR1	0	R1382T
426.778	2.337	493763	REC_WORD	2.337	n/a	OAR	7	1	[0, 0, 0]	n/a	FR1	0	R1382T
429.115	6.261	496100	REC_WORD_VV	6.261	n/a	<>	-999	1	[0, 0, 0]	n/a	FR1	0	R1382T
435.376	1.0	502361	REC_WORD_VV	1.0	n/a	<>	-999	1	[0, 0, 0]	n/a	FR1	0	R1382T
436.376	4.036	503361	REC_WORD_VV	4.036	n/a	<>	-999	1	[0, 0, 0]	n/a	FR1	0	R1382T
440.412	1.0	507397	REC_WORD_VV	1.0	n/a	<>	-999	1	[0, 0, 0]	n/a	FR1	0	R1382T
441.412	7.953	508397	REC_WORD_VV	7.953	n/a	<>	-999	1	[0, 0, 0]	n/a	FR1	0	R1382T
449.365	21.849	516356	REC_END	n/a	n/a	n/a	-999	1	[0, 0, 0]	n/a	FR1	0	R1382T
471.214	10.351	538208	COUNTDOWN_START	n/a	n/a	n/a	-999	2	[0, 0, 0]	n/a	FR1	0	R1382T
481.565	0.0	548561	COUNTDOWN_END	n/a	n/a	n/a	-999	2	[0, 0, 0]	n/a	FR1	0	R1382T
481.565	1.849	548561	ENCODING_START	n/a	n/a	n/a	-999	2	[0, 0, 0]	n/a	FR1	0	R1382T
483.414	1.6	550405	WORD	n/a	n/a	EGG	1	2	[0, 0, 0]	n/a	FR1	0	R1382T
485.014	0.816	551998	WORD_OFF	n/a	n/a	EGG	1	2	[0, 0, 0]	n/a	FR1	0	R1382T
485.83	1.6	552822	WORD	n/a	n/a	SEAL	2	2	[0, 0, 0]	n/a	FR1	0	R1382T
487.43	0.933	554415	WORD_OFF	n/a	n/a	SEAL	2	2	[0, 0, 0]	n/a	FR1	0	R1382T
488.363	1.601	555351	WORD	n/a	n/a	SHARK	3	2	[0, 0, 0]	n/a	FR1	0	R1382T
489.964	1.0	556958	WORD_OFF	n/a	n/a	SHARK	3	2	[0, 0, 0]	n/a	FR1	0	R1382T
490.964	1.616	557950	WORD	n/a	n/a	LIMB	4	2	[0, 0, 0]	n/a	FR1	0	R1382T
492.58	0.85	559571	WORD_OFF	n/a	n/a	LIMB	4	2	[0, 0, 0]	n/a	FR1	0	R1382T
493.43	1.6	560423	WORD	n/a	n/a	CASH	5	2	[0, 0, 0]	n/a	FR1	0	R1382T
495.03	0.884	562016	WORD_OFF	n/a	n/a	CASH	5	2	[0, 0, 0]	n/a	FR1	0	R1382T
495.914	1.6	562896	WORD	n/a	n/a	EEL	6	2	[0, 0, 0]	n/a	FR1	0	R1382T
497.514	0.932	564503	WORD_OFF	n/a	n/a	EEL	6	2	[0, 0, 0]	n/a	FR1	0	R1382T
498.446	1.601	565439	WORD	n/a	n/a	LAMP	7	2	[0, 0, 0]	n/a	FR1	0	R1382T
500.047	0.866	567032	WORD_OFF	n/a	n/a	LAMP	7	2	[0, 0, 0]	n/a	FR1	0	R1382T
500.913	1.617	567898	WORD	n/a	n/a	STEAK	8	2	[0, 0, 0]	n/a	FR1	0	R1382T
502.53	0.767	569519	WORD_OFF	n/a	n/a	STEAK	8	2	[0, 0, 0]	n/a	FR1	0	R1382T
503.297	1.6	570287	WORD	n/a	n/a	WORLD	9	2	[0, 0, 0]	n/a	FR1	0	R1382T
504.897	1.0	571880	WORD_OFF	n/a	n/a	WORLD	9	2	[0, 0, 0]	n/a	FR1	0	R1382T
505.897	1.616	572886	WORD	n/a	n/a	ROAD	10	2	[0, 0, 0]	n/a	FR1	0	R1382T
507.513	0.884	574507	WORD_OFF	n/a	n/a	ROAD	10	2	[0, 0, 0]	n/a	FR1	0	R1382T
508.397	1.6	575387	WORD	n/a	n/a	PLATE	11	2	[0, 0, 0]	n/a	FR1	0	R1382T
509.997	0.883	576980	WORD_OFF	n/a	n/a	PLATE	11	2	[0, 0, 0]	n/a	FR1	0	R1382T
510.88	1.617	577874	WORD	n/a	n/a	THUMB	12	2	[0, 0, 0]	n/a	FR1	0	R1382T
512.497	0.001	579478	PROB	0.001	n/a	n/a	-999	2	[4, 6, 5]	15	FR1	0	R1382T
512.498	0.0	579479	START	n/a	n/a	n/a	-999	2	[-999, -999, -999]	n/a	FR1	0	R1382T
512.496	0.002	579481	WORD_OFF	n/a	n/a	THUMB	12	2	[0, 0, 0]	n/a	FR1	0	R1382T
512.498	0.0	579481	ENCODING_END	n/a	n/a	n/a	-999	2	[0, 0, 0]	n/a	FR1	0	R1382T
512.498	8.649	579495	DISTRACT_START	n/a	n/a	n/a	-999	2	[0, 0, 0]	n/a	FR1	0	R1382T
521.147	4.516	588128	PROB	4.516	n/a	n/a	-999	2	[4, 1, 7]	12	FR1	0	R1382T
525.663	6.884	592643	PROB	6.884	n/a	n/a	-999	2	[3, 2, 3]	8	FR1	0	R1382T
532.547	0.0	599527	STOP	n/a	n/a	n/a	-999	2	[-999, -999, -999]	n/a	FR1	0	R1382T
532.547	1.1	599530	DISTRACT_END	n/a	n/a	n/a	-999	2	[0, 0, 0]	n/a	FR1	0	R1382T
533.647	2.077	600634	REC_START	n/a	n/a	n/a	-999	2	[0, 0, 0]	n/a	FR1	0	R1382T
535.724	0.326	602704	REC_WORD_VV	0.326	n/a	<>	-999	2	[0, 0, 0]	n/a	FR1	0	R1382T
536.05	0.736	603030	REC_WORD	0.736	n/a	EGG	1	2	[0, 0, 0]	n/a	FR1	0	R1382T
536.786	1.635	603766	REC_WORD	1.635	n/a	SEAL	2	2	[0, 0, 0]	n/a	FR1	0	R1382T
538.421	1.63	605401	REC_WORD	1.63	n/a	SHARK	3	2	[0, 0, 0]	n/a	FR1	0	R1382T
540.051	2.692	607031	REC_WORD	2.692	n/a	WORLD	9	2	[0, 0, 0]	n/a	FR1	0	R1382T
542.743	7.748	609722	REC_WORD_VV	7.748	n/a	<>	-999	2	[0, 0, 0]	n/a	FR1	0	R1382T
550.491	1.0	617470	REC_WORD_VV	1.0	n/a	<>	-999	2	[0, 0, 0]	n/a	FR1	0	R1382T
551.491	1.0	618470	REC_WORD_VV	1.0	n/a	<>	-999	2	[0, 0, 0]	n/a	FR1	0	R1382T
552.491	2.726	619470	REC_WORD_VV	2.726	n/a	<>	-999	2	[0, 0, 0]	n/a	FR1	0	R1382T
555.217	4.364	622196	REC_WORD_VV	4.364	n/a	<>	-999	2	[0, 0, 0]	n/a	FR1	0	R1382T
559.581	1.0	626560	REC_WORD_VV	1.0	n/a	<>	-999	2	[0, 0, 0]	n/a	FR1	0	R1382T
560.581	1.0	627559	REC_WORD_VV	1.0	n/a	<>	-999	2	[0, 0, 0]	n/a	FR1	0	R1382T
561.581	1.0	628559	REC_WORD_VV	1.0	n/a	<>	-999	2	[0, 0, 0]	n/a	FR1	0	R1382T
562.581	1.318	629559	REC_WORD_VV	1.318	n/a	<>	-999	2	[0, 0, 0]	n/a	FR1	0	R1382T
563.899	4.315	630883	REC_END	n/a	n/a	n/a	-999	2	[0, 0, 0]	n/a	FR1	0	R1382T
568.214	10.35	635200	COUNTDOWN_START	n/a	n/a	n/a	-999	3	[0, 0, 0]	n/a	FR1	0	R1382T
578.564	0.0	645553	COUNTDOWN_END	n/a	n/a	n/a	-999	3	[0, 0, 0]	n/a	FR1	0	R1382T
578.564	2.1	645553	ENCODING_START	n/a	n/a	n/a	-999	3	[0, 0, 0]	n/a	FR1	0	R1382T
580.664	1.6	647649	WORD	n/a	n/a	SHIELD	1	3	[0, 0, 0]	n/a	FR1	0	R1382T
582.264	0.833	649242	WORD_OFF	n/a	n/a	SHIELD	1	3	[0, 0, 0]	n/a	FR1	0	R1382T
583.097	1.6	650080	WORD	n/a	n/a	BENCH	2	3	[0, 0, 0]	n/a	FR1	0	R1382T
584.697	0.95	651687	WORD_OFF	n/a	n/a	BENCH	2	3	[0, 0, 0]	n/a	FR1	0	R1382T
585.647	1.617	652637	WORD	n/a	n/a	RICE	3	3	[0, 0, 0]	n/a	FR1	0	R1382T
587.264	0.816	654244	WORD_OFF	n/a	n/a	RICE	3	3	[0, 0, 0]	n/a	FR1	0	R1382T
588.08	1.617	655068	WORD	n/a	n/a	STEM	4	3	[0, 0, 0]	n/a	FR1	0	R1382T
589.697	0.8	656675	WORD_OFF	n/a	n/a	STEM	4	3	[0, 0, 0]	n/a	FR1	0	R1382T
590.497	1.616	657485	WORD	n/a	n/a	BRIDGE	5	3	[0, 0, 0]	n/a	FR1	0	R1382T
592.113	0.967	659092	WORD_OFF	n/a	n/a	BRIDGE	5	3	[0, 0, 0]	n/a	FR1	0	R1382T
593.08	1.601	660070	WORD	n/a	n/a	BOARD	6	3	[0, 0, 0]	n/a	FR1	0	R1382T
594.681	0.899	661663	WORD_OFF	n/a	n/a	BOARD	6	3	[0, 0, 0]	n/a	FR1	0	R1382T
595.58	1.617	662557	WORD	n/a	n/a	WHEEL	7	3	[0, 0, 0]	n/a	FR1	0	R1382T
597.197	0.932	664178	WORD_OFF	n/a	n/a	WHEEL	7	3	[0, 0, 0]	n/a	FR1	0	R1382T
598.129	1.601	665114	WORD	n/a	n/a	TENT	8	3	[0, 0, 0]	n/a	FR1	0	R1382T
599.73	0.767	666721	WORD_OFF	n/a	n/a	TENT	8	3	[0, 0, 0]	n/a	FR1	0	R1382T
600.497	1.616	667475	WORD	n/a	n/a	ASH	9	3	[0, 0, 0]	n/a	FR1	0	R1382T
602.113	0.9	669096	WORD_OFF	n/a	n/a	ASH	9	3	[0, 0, 0]	n/a	FR1	0	R1382T
603.013	1.6	669990	WORD	n/a	n/a	STAIR	10	3	[0, 0, 0]	n/a	FR1	0	R1382T
604.613	0.85	671597	WORD_OFF	n/a	n/a	STAIR	10	3	[0, 0, 0]	n/a	FR1	0	R1382T
605.463	1.616	672449	WORD	n/a	n/a	SKIN	11	3	[0, 0, 0]	n/a	FR1	0	R1382T
607.079	0.901	674070	WORD_OFF	n/a	n/a	SKIN	11	3	[0, 0, 0]	n/a	FR1	0	R1382T
607.98	1.6	674964	WORD	n/a	n/a	SAUCE	12	3	[0, 0, 0]	n/a	FR1	0	R1382T
609.58	0.0	676556	PROB	0.0	n/a	n/a	-999	3	[1, 8, 6]	15	FR1	0	R1382T
609.58	0.001	676557	WORD_OFF	n/a	n/a	SAUCE	12	3	[0, 0, 0]	n/a	FR1	0	R1382T
609.581	0.0	676557	START	n/a	n/a	n/a	-999	3	[-999, -999, -999]	n/a	FR1	0	R1382T
609.581	0.0	676571	ENCODING_END	n/a	n/a	n/a	-999	3	[0, 0, 0]	n/a	FR1	0	R1382T
609.581	19.817	676571	DISTRACT_START	n/a	n/a	n/a	-999	3	[0, 0, 0]	n/a	FR1	0	R1382T
629.398	3.298	696373	PROB	3.298	n/a	n/a	-999	3	[1, 7, 1]	9	FR1	0	R1382T
632.696	0.0	699671	STOP	n/a	n/a	n/a	-999	3	[-999, -999, -999]	n/a	FR1	0	R1382T
632.696	1.184	699680	DISTRACT_END	n/a	n/a	n/a	-999	3	[0, 0, 0]	n/a	FR1	0	R1382T
633.88	1.897	700868	REC_START	n/a	n/a	n/a	-999	3	[0, 0, 0]	n/a	FR1	0	R1382T
635.777	1.0	702752	REC_WORD_VV	1.0	n/a	<>	-999	3	[0, 0, 0]	n/a	FR1	0	R1382T
636.777	1.0	703752	REC_WORD_VV	1.0	n/a	<>	-999	3	[0, 0, 0]	n/a	FR1	0	R1382T
637.777	1.0	704752	REC_WORD_VV	1.0	n/a	<>	-999	3	[0, 0, 0]	n/a	FR1	0	R1382T
638.777	2.173	705751	REC_WORD_VV	2.173	n/a	<>	-999	3	[0, 0, 0]	n/a	FR1	0	R1382T
640.95	1.0	707924	REC_WORD_VV	1.0	n/a	<>	-999	3	[0, 0, 0]	n/a	FR1	0	R1382T
641.95	1.0	708924	REC_WORD_VV	1.0	n/a	<>	-999	3	[0, 0, 0]	n/a	FR1	0	R1382T
642.95	1.0	709924	REC_WORD_VV	1.0	n/a	<>	-999	3	[0, 0, 0]	n/a	FR1	0	R1382T
643.95	1.0	710924	REC_WORD_VV	1.0	n/a	<>	-999	3	[0, 0, 0]	n/a	FR1	0	R1382T
644.95	1.0	711924	REC_WORD_VV	1.0	n/a	<>	-999	3	[0, 0, 0]	n/a	FR1	0	R1382T
645.95	2.718	712924	REC_WORD_VV	2.718	n/a	<>	-999	3	[0, 0, 0]	n/a	FR1	0	R1382T
648.668	1.0	715642	REC_WORD_VV	1.0	n/a	<>	-999	3	[0, 0, 0]	n/a	FR1	0	R1382T
649.668	1.12	716642	REC_WORD_VV	1.12	n/a	<>	-999	3	[0, 0, 0]	n/a	FR1	0	R1382T
650.788	1.0	717762	REC_WORD_VV	1.0	n/a	<>	-999	3	[0, 0, 0]	n/a	FR1	0	R1382T
651.788	1.553	718762	REC_WORD_VV	1.553	n/a	<>	-999	3	[0, 0, 0]	n/a	FR1	0	R1382T
653.341	2.195	720315	REC_WORD_VV	2.195	n/a	<>	-999	3	[0, 0, 0]	n/a	FR1	0	R1382T
655.536	1.0	722510	REC_WORD_VV	1.0	n/a	<>	-999	3	[0, 0, 0]	n/a	FR1	0	R1382T
656.536	1.0	723510	REC_WORD_VV	1.0	n/a	<>	-999	3	[0, 0, 0]	n/a	FR1	0	R1382T
657.536	1.0	724509	REC_WORD_VV	1.0	n/a	<>	-999	3	[0, 0, 0]	n/a	FR1	0	R1382T
658.536	1.665	725509	REC_WORD_VV	1.665	n/a	<>	-999	3	[0, 0, 0]	n/a	FR1	0	R1382T
660.201	1.84	727174	REC_WORD_VV	1.84	n/a	<>	-999	3	[0, 0, 0]	n/a	FR1	0	R1382T
662.041	0.285	729014	REC_WORD_VV	0.285	n/a	<>	-999	3	[0, 0, 0]	n/a	FR1	0	R1382T
662.326	0.269	729299	REC_WORD	0.269	n/a	EGG	-999	3	[0, 0, 0]	n/a	FR1	0	R1382T
662.595	1.0	729568	REC_WORD_VV	1.0	n/a	<>	-999	3	[0, 0, 0]	n/a	FR1	0	R1382T
663.595	0.539	730568	REC_WORD_VV	0.539	n/a	<>	-999	3	[0, 0, 0]	n/a	FR1	0	R1382T
664.134	19.146	731117	REC_END	n/a	n/a	n/a	-999	3	[0, 0, 0]	n/a	FR1	0	R1382T
683.28	10.35	750258	COUNTDOWN_START	n/a	n/a	n/a	-999	4	[0, 0, 0]	n/a	FR1	0	R1382T
693.63	0.001	760611	COUNTDOWN_END	n/a	n/a	n/a	-999	4	[0, 0, 0]	n/a	FR1	0	R1382T
693.631	2.349	760611	ENCODING_START	n/a	n/a	n/a	-999	4	[0, 0, 0]	n/a	FR1	0	R1382T
695.98	1.617	762959	WORD	n/a	n/a	PEARL	1	4	[0, 0, 0]	n/a	FR1	0	R1382T
697.597	0.866	764579	WORD_OFF	n/a	n/a	PEARL	1	4	[0, 0, 0]	n/a	FR1	0	R1382T
698.463	1.601	765446	WORD	n/a	n/a	BEAK	2	4	[0, 0, 0]	n/a	FR1	0	R1382T
700.064	0.999	767038	WORD_OFF	n/a	n/a	BEAK	2	4	[0, 0, 0]	n/a	FR1	0	R1382T
701.063	1.601	768044	WORD	n/a	n/a	CONE	3	4	[0, 0, 0]	n/a	FR1	0	R1382T
702.664	0.816	769637	WORD_OFF	n/a	n/a	CONE	3	4	[0, 0, 0]	n/a	FR1	0	R1382T
703.48	1.617	770461	WORD	n/a	n/a	PLANT	4	4	[0, 0, 0]	n/a	FR1	0	R1382T
705.097	0.917	772068	WORD_OFF	n/a	n/a	PLANT	4	4	[0, 0, 0]	n/a	FR1	0	R1382T
706.014	1.6	772990	WORD	n/a	n/a	CHIN	5	4	[0, 0, 0]	n/a	FR1	0	R1382T
707.614	0.932	774597	WORD_OFF	n/a	n/a	CHIN	5	4	[0, 0, 0]	n/a	FR1	0	R1382T
708.546	1.601	775519	WORD	n/a	n/a	MOUSE	6	4	[0, 0, 0]	n/a	FR1	0	R1382T
710.147	0.8	777126	WORD_OFF	n/a	n/a	MOUSE	6	4	[0, 0, 0]	n/a	FR1	0	R1382T
710.947	1.599	777922	WORD	n/a	n/a	BOOT	7	4	[0, 0, 0]	n/a	FR1	0	R1382T
712.546	0.834	779529	WORD_OFF	n/a	n/a	BOOT	7	4	[0, 0, 0]	n/a	FR1	0	R1382T
713.38	1.617	780354	WORD	n/a	n/a	SPICE	8	4	[0, 0, 0]	n/a	FR1	0	R1382T
714.997	0.932	781974	WORD_OFF	n/a	n/a	SPICE	8	4	[0, 0, 0]	n/a	FR1	0	R1382T
715.929	1.601	782910	WORD	n/a	n/a	SNAKE	9	4	[0, 0, 0]	n/a	FR1	0	R1382T
717.53	0.834	784503	WORD_OFF	n/a	n/a	SNAKE	9	4	[0, 0, 0]	n/a	FR1	0	R1382T
718.364	1.6	785341	WORD	n/a	n/a	FACE	10	4	[0, 0, 0]	n/a	FR1	0	R1382T
719.964	0.783	786948	WORD_OFF	n/a	n/a	FACE	10	4	[0, 0, 0]	n/a	FR1	0	R1382T
720.747	1.6	787731	WORD	n/a	n/a	MUD	11	4	[0, 0, 0]	n/a	FR1	0	R1382T
722.347	0.767	789323	WORD_OFF	n/a	n/a	MUD	11	4	[0, 0, 0]	n/a	FR1	0	R1382T
723.114	1.6	790092	WORD	n/a	n/a	HAT	12	4	[0, 0, 0]	n/a	FR1	0	R1382T
724.714	0.0	791684	PROB	0.0	n/a	n/a	-999	4	[2, 4, 7]	13	FR1	0	R1382T
724.714	0.001	791685	WORD_OFF	n/a	n/a	HAT	12	4	[0, 0, 0]	n/a	FR1	0	R1382T
724.715	0.0	791685	START	n/a	n/a	n/a	-999	4	[-999, -999, -999]	n/a	FR1	0	R1382T
724.715	0.0	791699	ENCODING_END	n/a	n/a	n/a	-999	4	[0, 0, 0]	n/a	FR1	0	R1382T
724.715	18.832	791699	DISTRACT_START	n/a	n/a	n/a	-999	4	[0, 0, 0]	n/a	FR1	0	R1382T
743.547	6.967	810516	PROB	6.967	n/a	n/a	-999	4	[5, 5, 3]	13	FR1	0	R1382T
750.514	0.0	817483	STOP	n/a	n/a	n/a	-999	4	[-999, -999, -999]	n/a	FR1	0	R1382T
750.514	1.083	817491	DISTRACT_END	n/a	n/a	n/a	-999	4	[0, 0, 0]	n/a	FR1	0	R1382T
751.597	1.365	818566	REC_START	n/a	n/a	n/a	-999	4	[0, 0, 0]	n/a	FR1	0	R1382T
752.962	0.7	819931	REC_WORD_VV	0.7	n/a	<>	-999	4	[0, 0, 0]	n/a	FR1	0	R1382T
753.662	1.599	820631	REC_WORD	1.599	n/a	PEARL	1	4	[0, 0, 0]	n/a	FR1	0	R1382T
755.261	0.509	822229	REC_WORD_VV	0.509	n/a	<>	-999	4	[0, 0, 0]	n/a	FR1	0	R1382T
755.77	1.483	822738	REC_WORD	1.483	n/a	BEAK	2	4	[0, 0, 0]	n/a	FR1	0	R1382T
757.253	1.697	824221	REC_WORD	1.697	n/a	CONE	3	4	[0, 0, 0]	n/a	FR1	0	R1382T
758.95	2.295	825918	REC_WORD	2.295	n/a	PLANT	4	4	[0, 0, 0]	n/a	FR1	0	R1382T
761.245	5.84	828213	REC_WORD	5.84	n/a	BOOT	7	4	[0, 0, 0]	n/a	FR1	0	R1382T
767.085	1.0	834053	REC_WORD_VV	1.0	n/a	<>	-999	4	[0, 0, 0]	n/a	FR1	0	R1382T
768.085	1.0	835053	REC_WORD_VV	1.0	n/a	<>	-999	4	[0, 0, 0]	n/a	FR1	0	R1382T
769.085	1.0	836053	REC_WORD_VV	1.0	n/a	<>	-999	4	[0, 0, 0]	n/a	FR1	0	R1382T
770.085	1.0	837053	REC_WORD_VV	1.0	n/a	<>	-999	4	[0, 0, 0]	n/a	FR1	0	R1382T
771.085	10.765	838053	REC_WORD_VV	10.765	n/a	<>	-999	4	[0, 0, 0]	n/a	FR1	0	R1382T
781.85	2.764	848829	REC_END	n/a	n/a	n/a	-999	4	[0, 0, 0]	n/a	FR1	0	R1382T
784.614	10.35	851596	COUNTDOWN_START	n/a	n/a	n/a	-999	5	[0, 0, 0]	n/a	FR1	0	R1382T
794.964	0.001	861935	COUNTDOWN_END	n/a	n/a	n/a	-999	5	[0, 0, 0]	n/a	FR1	0	R1382T
794.965	2.249	861935	ENCODING_START	n/a	n/a	n/a	-999	5	[0, 0, 0]	n/a	FR1	0	R1382T
797.214	1.616	864184	WORD	n/a	n/a	SHIP	1	5	[0, 0, 0]	n/a	FR1	0	R1382T
798.83	0.917	865805	WORD_OFF	n/a	n/a	SHIP	1	5	[0, 0, 0]	n/a	FR1	0	R1382T
799.747	1.616	866727	WORD	n/a	n/a	COURT	2	5	[0, 0, 0]	n/a	FR1	0	R1382T
801.363	0.867	868334	WORD_OFF	n/a	n/a	COURT	2	5	[0, 0, 0]	n/a	FR1	0	R1382T
802.23	1.617	869200	WORD	n/a	n/a	MUG	3	5	[0, 0, 0]	n/a	FR1	0	R1382T
803.847	0.9	870821	WORD_OFF	n/a	n/a	MUG	3	5	[0, 0, 0]	n/a	FR1	0	R1382T
804.747	1.617	871715	WORD	n/a	n/a	SAIL	4	5	[0, 0, 0]	n/a	FR1	0	R1382T
806.364	0.85	873336	WORD_OFF	n/a	n/a	SAIL	4	5	[0, 0, 0]	n/a	FR1	0	R1382T
807.214	1.616	874188	WORD	n/a	n/a	SQUARE	5	5	[0, 0, 0]	n/a	FR1	0	R1382T
808.83	1.0	875809	WORD_OFF	n/a	n/a	SQUARE	5	5	[0, 0, 0]	n/a	FR1	0	R1382T
809.83	1.6	876801	WORD	n/a	n/a	BLOOD	6	5	[0, 0, 0]	n/a	FR1	0	R1382T
811.43	0.833	878408	WORD_OFF	n/a	n/a	BLOOD	6	5	[0, 0, 0]	n/a	FR1	0	R1382T
812.263	1.601	879232	WORD	n/a	n/a	SINK	7	5	[0, 0, 0]	n/a	FR1	0	R1382T
813.864	0.95	880839	WORD_OFF	n/a	n/a	SINK	7	5	[0, 0, 0]	n/a	FR1	0	R1382T
814.814	1.6	881789	WORD	n/a	n/a	BEAN	8	5	[0, 0, 0]	n/a	FR1	0	R1382T
816.414	0.883	883382	WORD_OFF	n/a	n/a	BEAN	8	5	[0, 0, 0]	n/a	FR1	0	R1382T
817.297	1.6	884276	WORD	n/a	n/a	STEEL	9	5	[0, 0, 0]	n/a	FR1	0	R1382T
818.897	0.883	885869	WORD_OFF	n/a	n/a	STEEL	9	5	[0, 0, 0]	n/a	FR1	0	R1382T
819.78	1.6	886749	WORD	n/a	n/a	SKI	10	5	[0, 0, 0]	n/a	FR1	0	R1382T
821.38	0.884	888356	WORD_OFF	n/a	n/a	SKI	10	5	[0, 0, 0]	n/a	FR1	0	R1382T
822.264	1.6	889236	WORD	n/a	n/a	BRICK	11	5	[0, 0, 0]	n/a	FR1	0	R1382T
823.864	0.766	890843	WORD_OFF	n/a	n/a	BRICK	11	5	[0, 0, 0]	n/a	FR1	0	R1382T
824.63	1.601	891597	WORD	n/a	n/a	TREE	12	5	[0, 0, 0]	n/a	FR1	0	R1382T
826.231	0.001	893196	PROB	0.001	n/a	n/a	-999	5	[5, 3, 4]	12	FR1	0	R1382T
826.232	0.0	893197	START	n/a	n/a	n/a	-999	5	[-999, -999, -999]	n/a	FR1	0	R1382T
826.23	0.002	893204	WORD_OFF	n/a	n/a	TREE	12	5	[0, 0, 0]	n/a	FR1	0	R1382T
826.232	0.0	893204	ENCODING_END	n/a	n/a	n/a	-999	5	[0, 0, 0]	n/a	FR1	0	R1382T
826.232	14.916	893204	DISTRACT_START	n/a	n/a	n/a	-999	5	[0, 0, 0]	n/a	FR1	0	R1382T
841.148	9.932	908112	PROB	9.932	n/a	n/a	-999	5	[3, 8, 4]	15	FR1	0	R1382T
851.08	0.0	918043	STOP	n/a	n/a	n/a	-999	5	[-999, -999, -999]	n/a	FR1	0	R1382T
851.08	1.249	918046	DISTRACT_END	n/a	n/a	n/a	-999	5	[0, 0, 0]	n/a	FR1	0	R1382T
852.329	1.695	919303	REC_START	n/a	n/a	n/a	-999	5	[0, 0, 0]	n/a	FR1	0	R1382T
854.024	1.425	920987	REC_WORD_VV	1.425	n/a	<>	-999	5	[0, 0, 0]	n/a	FR1	0	R1382T
855.449	0.812	922412	REC_WORD	0.812	n/a	MUG	3	5	[0, 0, 0]	n/a	FR1	0	R1382T
856.261	1.621	923224	REC_WORD	1.621	n/a	SAIL	4	5	[0, 0, 0]	n/a	FR1	0	R1382T
857.882	2.586	924845	REC_WORD	2.586	n/a	SQUARE	5	5	[0, 0, 0]	n/a	FR1	0	R1382T
860.468	1.408	927431	REC_WORD_VV	1.408	n/a	<>	-999	5	[0, 0, 0]	n/a	FR1	0	R1382T
861.876	1.035	928839	REC_WORD	1.035	n/a	SINK	7	5	[0, 0, 0]	n/a	FR1	0	R1382T
862.911	4.782	929874	REC_WORD	4.782	n/a	SHIP	1	5	[0, 0, 0]	n/a	FR1	0	R1382T
867.693	1.0	934656	REC_WORD_VV	1.0	n/a	<>	-999	5	[0, 0, 0]	n/a	FR1	0	R1382T
868.693	4.385	935656	REC_WORD_VV	4.385	n/a	<>	-999	5	[0, 0, 0]	n/a	FR1	0	R1382T
873.078	6.81	940040	REC_WORD_VV	6.81	n/a	<>	-999	5	[0, 0, 0]	n/a	FR1	0	R1382T
879.888	1.0	946850	REC_WORD_VV	1.0	n/a	<>	-999	5	[0, 0, 0]	n/a	FR1	0	R1382T
880.888	1.697	947850	REC_WORD_VV	1.697	n/a	<>	-999	5	[0, 0, 0]	n/a	FR1	0	R1382T
882.585	10.678	949552	REC_END	n/a	n/a	n/a	-999	5	[0, 0, 0]	n/a	FR1	0	R1382T
893.263	10.35	960227	COUNTDOWN_START	n/a	n/a	n/a	-999	6	[0, 0, 0]	n/a	FR1	0	R1382T
903.613	0.001	970580	COUNTDOWN_END	n/a	n/a	n/a	-999	6	[0, 0, 0]	n/a	FR1	0	R1382T
903.614	1.832	970580	ENCODING_START	n/a	n/a	n/a	-999	6	[0, 0, 0]	n/a	FR1	0	R1382T
905.446	1.601	972410	WORD	n/a	n/a	PRINCE	1	6	[0, 0, 0]	n/a	FR1	0	R1382T
907.047	0.967	974017	WORD_OFF	n/a	n/a	PRINCE	1	6	[0, 0, 0]	n/a	FR1	0	R1382T
908.014	1.6	974981	WORD	n/a	n/a	JUDGE	2	6	[0, 0, 0]	n/a	FR1	0	R1382T
909.614	0.983	976588	WORD_OFF	n/a	n/a	JUDGE	2	6	[0, 0, 0]	n/a	FR1	0	R1382T
910.597	1.6	977566	WORD	n/a	n/a	BOWL	3	6	[0, 0, 0]	n/a	FR1	0	R1382T
912.197	0.967	979158	WORD_OFF	n/a	n/a	BOWL	3	6	[0, 0, 0]	n/a	FR1	0	R1382T
913.164	1.616	980137	WORD	n/a	n/a	TOAD	4	6	[0, 0, 0]	n/a	FR1	0	R1382T
914.78	0.95	981743	WORD_OFF	n/a	n/a	TOAD	4	6	[0, 0, 0]	n/a	FR1	0	R1382T
915.73	1.617	982693	WORD	n/a	n/a	HOOF	5	6	[0, 0, 0]	n/a	FR1	0	R1382T
917.347	0.834	984314	WORD_OFF	n/a	n/a	HOOF	5	6	[0, 0, 0]	n/a	FR1	0	R1382T
918.181	1.616	985152	WORD	n/a	n/a	FOX	6	6	[0, 0, 0]	n/a	FR1	0	R1382T
919.797	0.967	986759	WORD_OFF	n/a	n/a	FOX	6	6	[0, 0, 0]	n/a	FR1	0	R1382T
920.764	1.616	987737	WORD	n/a	n/a	CHAIN	7	6	[0, 0, 0]	n/a	FR1	0	R1382T
922.38	0.967	989344	WORD_OFF	n/a	n/a	CHAIN	7	6	[0, 0, 0]	n/a	FR1	0	R1382T
923.347	1.617	990308	WORD	n/a	n/a	MEAL	8	6	[0, 0, 0]	n/a	FR1	0	R1382T
924.964	0.833	991929	WORD_OFF	n/a	n/a	MEAL	8	6	[0, 0, 0]	n/a	FR1	0	R1382T
925.797	1.6	992767	WORD	n/a	n/a	ELF	9	6	[0, 0, 0]	n/a	FR1	0	R1382T
927.397	0.966	994360	WORD_OFF	n/a	n/a	ELF	9	6	[0, 0, 0]	n/a	FR1	0	R1382T
928.363	1.601	995324	WORD	n/a	n/a	BOY	10	6	[0, 0, 0]	n/a	FR1	0	R1382T
929.964	0.833	996931	WORD_OFF	n/a	n/a	BOY	10	6	[0, 0, 0]	n/a	FR1	0	R1382T
930.797	1.6	997769	WORD	n/a	n/a	LOCK	11	6	[0, 0, 0]	n/a	FR1	0	R1382T
932.397	0.933	999362	WORD_OFF	n/a	n/a	LOCK	11	6	[0, 0, 0]	n/a	FR1	0	R1382T
933.33	1.601	1000298	WORD	n/a	n/a	BRUSH	12	6	[0, 0, 0]	n/a	FR1	0	R1382T
934.931	0.0	1001890	PROB	0.0	n/a	n/a	-999	6	[7, 6, 3]	16	FR1	0	R1382T
934.93	0.002	1001891	WORD_OFF	n/a	n/a	BRUSH	12	6	[0, 0, 0]	n/a	FR1	0	R1382T
934.932	0.0	1001891	START	n/a	n/a	n/a	-999	6	[-999, -999, -999]	n/a	FR1	0	R1382T
934.932	0.0	1001905	ENCODING_END	n/a	n/a	n/a	-999	6	[0, 0, 0]	n/a	FR1	0	R1382T
934.932	26.465	1001905	DISTRACT_START	n/a	n/a	n/a	-999	6	[0, 0, 0]	n/a	FR1	0	R1382T
961.397	0.0	1028355	STOP	n/a	n/a	n/a	-999	6	[-999, -999, -999]	n/a	FR1	0	R1382T
961.397	1.233	1028367	DISTRACT_END	n/a	n/a	n/a	-999	6	[0, 0, 0]	n/a	FR1	0	R1382T
962.63	1.58	1029597	REC_START	n/a	n/a	n/a	-999	6	[0, 0, 0]	n/a	FR1	0	R1382T
964.21	0.428	1031168	REC_WORD_VV	0.428	n/a	<>	-999	6	[0, 0, 0]	n/a	FR1	0	R1382T
964.638	1.842	1031596	REC_WORD	1.842	n/a	PRINCE	1	6	[0, 0, 0]	n/a	FR1	0	R1382T
966.48	0.39	1033437	REC_WORD_VV	0.39	n/a	<>	-999	6	[0, 0, 0]	n/a	FR1	0	R1382T
966.87	1.223	1033827	REC_WORD	1.223	n/a	JUDGE	2	6	[0, 0, 0]	n/a	FR1	0	R1382T
968.093	3.153	1035050	REC_WORD	3.153	n/a	BOWL	3	6	[0, 0, 0]	n/a	FR1	0	R1382T
971.246	1.523	1038203	REC_WORD_VV	1.523	n/a	<>	-999	6	[0, 0, 0]	n/a	FR1	0	R1382T
972.769	1.673	1039726	REC_WORD	1.673	n/a	TOAD	4	6	[0, 0, 0]	n/a	FR1	0	R1382T
974.442	2.474	1041399	REC_WORD	2.474	n/a	BOY	10	6	[0, 0, 0]	n/a	FR1	0	R1382T
976.916	10.286	1043873	REC_WORD	10.286	n/a	FOX	6	6	[0, 0, 0]	n/a	FR1	0	R1382T
987.202	1.0	1054158	REC_WORD_VV	1.0	n/a	<>	-999	6	[0, 0, 0]	n/a	FR1	0	R1382T
988.202	4.669	1055158	REC_WORD_VV	4.669	n/a	<>	-999	6	[0, 0, 0]	n/a	FR1	0	R1382T
992.871	2.075	1059832	REC_END	n/a	n/a	n/a	-999	6	[0, 0, 0]	n/a	FR1	0	R1382T
994.946	10.352	1061914	COUNTDOWN_START	n/a	n/a	n/a	-999	7	[0, 0, 0]	n/a	FR1	0	R1382T
1005.298	0.0	1072267	COUNTDOWN_END	n/a	n/a	n/a	-999	7	[0, 0, 0]	n/a	FR1	0	R1382T
1005.298	2.366	1072267	ENCODING_START	n/a	n/a	n/a	-999	7	[0, 0, 0]	n/a	FR1	0	R1382T
1007.664	1.6	1074628	WORD	n/a	n/a	SEAT	1	7	[0, 0, 0]	n/a	FR1	0	R1382T
1009.264	0.949	1076221	WORD_OFF	n/a	n/a	SEAT	1	7	[0, 0, 0]	n/a	FR1	0	R1382T
1010.213	1.617	1077171	WORD	n/a	n/a	CAGE	2	7	[0, 0, 0]	n/a	FR1	0	R1382T
1011.83	0.767	1078792	WORD_OFF	n/a	n/a	CAGE	2	7	[0, 0, 0]	n/a	FR1	0	R1382T
1012.597	1.6	1079560	WORD	n/a	n/a	BREAST	3	7	[0, 0, 0]	n/a	FR1	0	R1382T
1014.197	0.85	1081167	WORD_OFF	n/a	n/a	BREAST	3	7	[0, 0, 0]	n/a	FR1	0	R1382T
1015.047	1.6	1082005	WORD	n/a	n/a	CLAY	4	7	[0, 0, 0]	n/a	FR1	0	R1382T
1016.647	0.85	1083612	WORD_OFF	n/a	n/a	CLAY	4	7	[0, 0, 0]	n/a	FR1	0	R1382T
1017.497	1.617	1084464	WORD	n/a	n/a	HOLE	5	7	[0, 0, 0]	n/a	FR1	0	R1382T
1019.114	1.0	1086071	WORD_OFF	n/a	n/a	HOLE	5	7	[0, 0, 0]	n/a	FR1	0	R1382T
1020.114	1.6	1087077	WORD	n/a	n/a	HOSE	6	7	[0, 0, 0]	n/a	FR1	0	R1382T
1021.714	0.833	1088670	WORD_OFF	n/a	n/a	HOSE	6	7	[0, 0, 0]	n/a	FR1	0	R1382T
1022.547	1.6	1089508	WORD	n/a	n/a	DRAIN	7	7	[0, 0, 0]	n/a	FR1	0	R1382T
1024.147	0.8	1091115	WORD_OFF	n/a	n/a	DRAIN	7	7	[0, 0, 0]	n/a	FR1	0	R1382T
1024.947	1.6	1091911	WORD	n/a	n/a	FROG	8	7	[0, 0, 0]	n/a	FR1	0	R1382T
1026.547	0.8	1093504	WORD_OFF	n/a	n/a	FROG	8	7	[0, 0, 0]	n/a	FR1	0	R1382T
1027.347	1.6	1094314	WORD	n/a	n/a	WAND	9	7	[0, 0, 0]	n/a	FR1	0	R1382T
1028.947	0.817	1095907	WORD_OFF	n/a	n/a	WAND	9	7	[0, 0, 0]	n/a	FR1	0	R1382T
1029.764	1.6	1096731	WORD	n/a	n/a	POOL	10	7	[0, 0, 0]	n/a	FR1	0	R1382T
1031.364	0.799	1098324	WORD_OFF	n/a	n/a	POOL	10	7	[0, 0, 0]	n/a	FR1	0	R1382T
1032.163	1.617	1099121	WORD	n/a	n/a	PALM	11	7	[0, 0, 0]	n/a	FR1	0	R1382T
1033.78	0.817	1100741	WORD_OFF	n/a	n/a	PALM	11	7	[0, 0, 0]	n/a	FR1	0	R1382T
1034.597	1.617	1101552	WORD	n/a	n/a	SALT	12	7	[0, 0, 0]	n/a	FR1	0	R1382T
1036.214	0.001	1103168	PROB	0.001	n/a	n/a	-999	7	[2, 1, 7]	10	FR1	0	R1382T
1036.215	0.0	1103169	START	n/a	n/a	n/a	-999	7	[-999, -999, -999]	n/a	FR1	0	R1382T
1036.214	0.001	1103172	WORD_OFF	n/a	n/a	SALT	12	7	[0, 0, 0]	n/a	FR1	0	R1382T
1036.215	0.0	1103172	ENCODING_END	n/a	n/a	n/a	-999	7	[0, 0, 0]	n/a	FR1	0	R1382T
1036.215	11.483	1103172	DISTRACT_START	n/a	n/a	n/a	-999	7	[0, 0, 0]	n/a	FR1	0	R1382T
1047.698	4.566	1114651	PROB	4.566	n/a	n/a	-999	7	[5, 3, 1]	9	FR1	0	R1382T
1052.264	6.482	1119217	PROB	6.482	n/a	n/a	-999	7	[4, 6, 5]	15	FR1	0	R1382T
1058.746	0.0	1125699	STOP	n/a	n/a	n/a	-999	7	[-999, -999, -999]	n/a	FR1	0	R1382T
1058.746	1.367	1125709	DISTRACT_END	n/a	n/a	n/a	-999	7	[0, 0, 0]	n/a	FR1	0	R1382T
1060.113	2.091	1127078	REC_START	n/a	n/a	n/a	-999	7	[0, 0, 0]	n/a	FR1	0	R1382T
1062.204	1.644	1129157	REC_WORD	1.644	n/a	SEAT	1	7	[0, 0, 0]	n/a	FR1	0	R1382T
1063.848	1.101	1130800	REC_WORD	1.101	n/a	BREAST	3	7	[0, 0, 0]	n/a	FR1	0	R1382T
1064.949	1.27	1131901	REC_WORD	1.27	n/a	HOLE	5	7	[0, 0, 0]	n/a	FR1	0	R1382T
1066.219	1.537	1133171	REC_WORD	1.537	n/a	SALT	12	7	[0, 0, 0]	n/a	FR1	0	R1382T
1067.756	7.355	1134708	REC_WORD	7.355	n/a	CAGE	2	7	[0, 0, 0]	n/a	FR1	0	R1382T
1075.111	1.0	1142063	REC_WORD_VV	1.0	n/a	<>	-999	7	[0, 0, 0]	n/a	FR1	0	R1382T
1076.111	14.223	1143063	REC_WORD_VV	14.223	n/a	<>	-999	7	[0, 0, 0]	n/a	FR1	0	R1382T
1090.334	2.097	1157285	REC_END	n/a	n/a	n/a	-999	7	[0, 0, 0]	n/a	FR1	0	R1382T
1092.431	10.35	1159395	COUNTDOWN_START	n/a	n/a	n/a	-999	8	[0, 0, 0]	n/a	FR1	0	R1382T
1102.781	0.0	1169734	COUNTDOWN_END	n/a	n/a	n/a	-999	8	[0, 0, 0]	n/a	FR1	0	R1382T
1102.781	2.216	1169748	ENCODING_START	n/a	n/a	n/a	-999	8	[0, 0, 0]	n/a	FR1	0	R1382T
1104.997	1.6	1171956	WORD	n/a	n/a	ROOT	1	8	[0, 0, 0]	n/a	FR1	0	R1382T
1106.597	0.984	1173548	WORD_OFF	n/a	n/a	ROOT	1	8	[0, 0, 0]	n/a	FR1	0	R1382T
1107.581	1.616	1174540	WORD	n/a	n/a	VEST	2	8	[0, 0, 0]	n/a	FR1	0	R1382T
1109.197	0.967	1176161	WORD_OFF	n/a	n/a	VEST	2	8	[0, 0, 0]	n/a	FR1	0	R1382T
1110.164	1.6	1177125	WORD	n/a	n/a	FRUIT	3	8	[0, 0, 0]	n/a	FR1	0	R1382T
1111.764	0.783	1178718	WORD_OFF	n/a	n/a	FRUIT	3	8	[0, 0, 0]	n/a	FR1	0	R1382T
1112.547	1.616	1179500	WORD	n/a	n/a	STORM	4	8	[0, 0, 0]	n/a	FR1	0	R1382T
1114.163	0.984	1181121	WORD_OFF	n/a	n/a	STORM	4	8	[0, 0, 0]	n/a	FR1	0	R1382T
1115.147	1.617	1182099	WORD	n/a	n/a	PIPE	5	8	[0, 0, 0]	n/a	FR1	0	R1382T
1116.764	0.833	1183720	WORD_OFF	n/a	n/a	PIPE	5	8	[0, 0, 0]	n/a	FR1	0	R1382T
1117.597	1.617	1184558	WORD	n/a	n/a	GOWN	6	8	[0, 0, 0]	n/a	FR1	0	R1382T
1119.214	0.95	1186165	WORD_OFF	n/a	n/a	GOWN	6	8	[0, 0, 0]	n/a	FR1	0	R1382T
1120.164	1.616	1187115	WORD	n/a	n/a	FORT	7	8	[0, 0, 0]	n/a	FR1	0	R1382T
1121.78	0.85	1188736	WORD_OFF	n/a	n/a	FORT	7	8	[0, 0, 0]	n/a	FR1	0	R1382T
1122.63	1.617	1189588	WORD	n/a	n/a	STEAM	8	8	[0, 0, 0]	n/a	FR1	0	R1382T
1124.247	0.783	1191209	WORD_OFF	n/a	n/a	STEAM	8	8	[0, 0, 0]	n/a	FR1	0	R1382T
1125.03	1.6	1191991	WORD	n/a	n/a	LANE	9	8	[0, 0, 0]	n/a	FR1	0	R1382T
1126.63	0.934	1193584	WORD_OFF	n/a	n/a	LANE	9	8	[0, 0, 0]	n/a	FR1	0	R1382T
1127.564	1.6	1194520	WORD	n/a	n/a	LAND	10	8	[0, 0, 0]	n/a	FR1	0	R1382T
1129.164	0.8	1196127	WORD_OFF	n/a	n/a	LAND	10	8	[0, 0, 0]	n/a	FR1	0	R1382T
1129.964	1.6	1196923	WORD	n/a	n/a	GOLD	11	8	[0, 0, 0]	n/a	FR1	0	R1382T
1131.564	0.983	1198516	WORD_OFF	n/a	n/a	GOLD	11	8	[0, 0, 0]	n/a	FR1	0	R1382T
1132.547	1.601	1199508	WORD	n/a	n/a	SMILE	12	8	[0, 0, 0]	n/a	FR1	0	R1382T
1134.148	0.0	1201097	START	n/a	n/a	n/a	-999	8	[-999, -999, -999]	n/a	FR1	0	R1382T
1134.148	0.0	1201097	PROB	0.0	n/a	n/a	-999	8	[7, 8, 5]	20	FR1	0	R1382T
1134.147	0.001	1201101	WORD_OFF	n/a	n/a	SMILE	12	8	[0, 0, 0]	n/a	FR1	0	R1382T
1134.148	0.0	1201115	ENCODING_END	n/a	n/a	n/a	-999	8	[0, 0, 0]	n/a	FR1	0	R1382T
1134.148	11.466	1201115	DISTRACT_START	n/a	n/a	n/a	-999	8	[0, 0, 0]	n/a	FR1	0	R1382T
1145.614	3.567	1212562	PROB	3.567	n/a	n/a	-999	8	[5, 2, 3]	10	FR1	0	R1382T
1149.181	5.268	1216129	PROB	5.268	n/a	n/a	-999	8	[4, 8, 4]	16	FR1	0	R1382T
1154.449	0.0	1221397	STOP	n/a	n/a	n/a	-999	8	[-999, -999, -999]	n/a	FR1	0	R1382T
1154.449	1.198	1221402	DISTRACT_END	n/a	n/a	n/a	-999	8	[0, 0, 0]	n/a	FR1	0	R1382T
1155.647	1.781	1222603	REC_START	n/a	n/a	n/a	-999	8	[0, 0, 0]	n/a	FR1	0	R1382T
1157.428	1.104	1224376	REC_WORD	1.104	n/a	ROOT	1	8	[0, 0, 0]	n/a	FR1	0	R1382T
1158.532	1.316	1225480	REC_WORD	1.316	n/a	VEST	2	8	[0, 0, 0]	n/a	FR1	0	R1382T
1159.848	1.305	1226795	REC_WORD	1.305	n/a	FRUIT	3	8	[0, 0, 0]	n/a	FR1	0	R1382T
1161.153	1.546	1228100	REC_WORD	1.546	n/a	STORM	4	8	[0, 0, 0]	n/a	FR1	0	R1382T
1162.699	1.397	1229646	REC_WORD	1.397	n/a	PIPE	5	8	[0, 0, 0]	n/a	FR1	0	R1382T
1164.096	21.788	1231043	REC_WORD	21.788	n/a	GROW	-999	8	[0, 0, 0]	n/a	FR1	0	R1382T
1185.884	12.697	1252838	REC_END	n/a	n/a	n/a	-999	8	[0, 0, 0]	n/a	FR1	0	R1382T
1198.581	10.349	1265539	COUNTDOWN_START	n/a	n/a	n/a	-999	9	[0, 0, 0]	n/a	FR1	0	R1382T
1208.93	0.0	1275878	COUNTDOWN_END	n/a	n/a	n/a	-999	9	[0, 0, 0]	n/a	FR1	0	R1382T
1208.93	2.034	1275878	ENCODING_START	n/a	n/a	n/a	-999	9	[0, 0, 0]	n/a	FR1	0	R1382T
1210.964	1.6	1277918	WORD	n/a	n/a	YARD	1	9	[0, 0, 0]	n/a	FR1	0	R1382T
1212.564	0.816	1279511	WORD_OFF	n/a	n/a	YARD	1	9	[0, 0, 0]	n/a	FR1	0	R1382T
1213.38	1.6	1280335	WORD	n/a	n/a	KITE	2	9	[0, 0, 0]	n/a	FR1	0	R1382T
1214.98	0.934	1281928	WORD_OFF	n/a	n/a	KITE	2	9	[0, 0, 0]	n/a	FR1	0	R1382T
1215.914	1.616	1282864	WORD	n/a	n/a	SLIME	3	9	[0, 0, 0]	n/a	FR1	0	R1382T
1217.53	0.834	1284485	WORD_OFF	n/a	n/a	SLIME	3	9	[0, 0, 0]	n/a	FR1	0	R1382T
1218.364	1.6	1285323	WORD	n/a	n/a	CAT	4	9	[0, 0, 0]	n/a	FR1	0	R1382T
1219.964	0.816	1286916	WORD_OFF	n/a	n/a	CAT	4	9	[0, 0, 0]	n/a	FR1	0	R1382T
1220.78	1.617	1287726	WORD	n/a	n/a	PAGE	5	9	[0, 0, 0]	n/a	FR1	0	R1382T
1222.397	1.017	1289347	WORD_OFF	n/a	n/a	PAGE	5	9	[0, 0, 0]	n/a	FR1	0	R1382T
1223.414	1.616	1290367	WORD	n/a	n/a	CLOCK	6	9	[0, 0, 0]	n/a	FR1	0	R1382T
1225.03	0.883	1291988	WORD_OFF	n/a	n/a	CLOCK	6	9	[0, 0, 0]	n/a	FR1	0	R1382T
1225.913	1.601	1292868	WORD	n/a	n/a	BUSH	7	9	[0, 0, 0]	n/a	FR1	0	R1382T
1227.514	0.982	1294461	WORD_OFF	n/a	n/a	BUSH	7	9	[0, 0, 0]	n/a	FR1	0	R1382T
1228.496	1.6	1295453	WORD	n/a	n/a	MULE	8	9	[0, 0, 0]	n/a	FR1	0	R1382T
1230.096	0.934	1297045	WORD_OFF	n/a	n/a	MULE	8	9	[0, 0, 0]	n/a	FR1	0	R1382T
1231.03	1.616	1297981	WORD	n/a	n/a	MEN	9	9	[0, 0, 0]	n/a	FR1	0	R1382T
1232.646	0.801	1299602	WORD_OFF	n/a	n/a	MEN	9	9	[0, 0, 0]	n/a	FR1	0	R1382T
1233.447	1.599	1300399	WORD	n/a	n/a	ARK	10	9	[0, 0, 0]	n/a	FR1	0	R1382T
1235.046	0.934	1301991	WORD_OFF	n/a	n/a	ARK	10	9	[0, 0, 0]	n/a	FR1	0	R1382T
1235.98	1.6	1302927	WORD	n/a	n/a	SEA	11	9	[0, 0, 0]	n/a	FR1	0	R1382T
1237.58	0.95	1304534	WORD_OFF	n/a	n/a	SEA	11	9	[0, 0, 0]	n/a	FR1	0	R1382T
1238.53	1.617	1305484	WORD	n/a	n/a	HARP	12	9	[0, 0, 0]	n/a	FR1	0	R1382T
1240.147	0.0	1307090	PROB	0.0	n/a	n/a	-999	9	[3, 7, 1]	11	FR1	0	R1382T
1240.146	0.002	1307091	WORD_OFF	n/a	n/a	HARP	12	9	[0, 0, 0]	n/a	FR1	0	R1382T
1240.148	0.0	1307091	START	n/a	n/a	n/a	-999	9	[-999, -999, -999]	n/a	FR1	0	R1382T
1240.148	0.0	1307105	ENCODING_END	n/a	n/a	n/a	-999	9	[0, 0, 0]	n/a	FR1	0	R1382T
1240.148	17.733	1307105	DISTRACT_START	n/a	n/a	n/a	-999	9	[0, 0, 0]	n/a	FR1	0	R1382T
1257.881	8.216	1324823	PROB	8.216	n/a	n/a	-999	9	[7, 1, 8]	16	FR1	0	R1382T
1266.097	0.0	1333039	STOP	n/a	n/a	n/a	-999	9	[-999, -999, -999]	n/a	FR1	0	R1382T
1266.097	1.017	1333051	DISTRACT_END	n/a	n/a	n/a	-999	9	[0, 0, 0]	n/a	FR1	0	R1382T
1267.114	2.175	1334057	REC_START	n/a	n/a	n/a	-999	9	[0, 0, 0]	n/a	FR1	0	R1382T
1269.289	1.042	1336231	REC_WORD	1.042	n/a	YARD	1	9	[0, 0, 0]	n/a	FR1	0	R1382T
1270.331	1.252	1337273	REC_WORD	1.252	n/a	CAT	4	9	[0, 0, 0]	n/a	FR1	0	R1382T
1271.583	1.542	1338525	REC_WORD	1.542	n/a	SLIME	3	9	[0, 0, 0]	n/a	FR1	0	R1382T
1273.125	1.121	1340067	REC_WORD	1.121	n/a	HARP	12	9	[0, 0, 0]	n/a	FR1	0	R1382T
1274.246	2.751	1341188	REC_WORD	2.751	n/a	PAGE	5	9	[0, 0, 0]	n/a	FR1	0	R1382T
1276.997	1.0	1343938	REC_WORD_VV	1.0	n/a	<>	-999	9	[0, 0, 0]	n/a	FR1	0	R1382T
1277.997	4.989	1344938	REC_WORD_VV	4.989	n/a	<>	-999	9	[0, 0, 0]	n/a	FR1	0	R1382T
1282.986	14.367	1349927	REC_WORD_VV	14.367	n/a	<>	-999	9	[0, 0, 0]	n/a	FR1	0	R1382T
1297.353	2.728	1364306	REC_END	n/a	n/a	n/a	-999	9	[0, 0, 0]	n/a	FR1	0	R1382T
1300.081	10.35	1367030	COUNTDOWN_START	n/a	n/a	n/a	-999	10	[0, 0, 0]	n/a	FR1	0	R1382T
1310.431	0.0	1377383	COUNTDOWN_END	n/a	n/a	n/a	-999	10	[0, 0, 0]	n/a	FR1	0	R1382T
1310.431	2.099	1377383	ENCODING_START	n/a	n/a	n/a	-999	10	[0, 0, 0]	n/a	FR1	0	R1382T
1312.53	1.6	1379479	WORD	n/a	n/a	GLOBE	1	10	[0, 0, 0]	n/a	FR1	0	R1382T
1314.13	0.934	1381072	WORD_OFF	n/a	n/a	GLOBE	1	10	[0, 0, 0]	n/a	FR1	0	R1382T
1315.064	1.616	1382008	WORD	n/a	n/a	SEED	2	10	[0, 0, 0]	n/a	FR1	0	R1382T
1316.68	0.95	1383629	WORD_OFF	n/a	n/a	SEED	2	10	[0, 0, 0]	n/a	FR1	0	R1382T
1317.63	1.6	1384579	WORD	n/a	n/a	TRAY	3	10	[0, 0, 0]	n/a	FR1	0	R1382T
1319.23	0.767	1386172	WORD_OFF	n/a	n/a	TRAY	3	10	[0, 0, 0]	n/a	FR1	0	R1382T
1319.997	1.616	1386940	WORD	n/a	n/a	DOG	4	10	[0, 0, 0]	n/a	FR1	0	R1382T
1321.613	0.967	1388561	WORD_OFF	n/a	n/a	DOG	4	10	[0, 0, 0]	n/a	FR1	0	R1382T
1322.58	1.6	1389525	WORD	n/a	n/a	DIME	5	10	[0, 0, 0]	n/a	FR1	0	R1382T
1324.18	0.933	1391132	WORD_OFF	n/a	n/a	DIME	5	10	[0, 0, 0]	n/a	FR1	0	R1382T
1325.113	1.617	1392054	WORD	n/a	n/a	POLE	6	10	[0, 0, 0]	n/a	FR1	0	R1382T
1326.73	0.8	1393674	WORD_OFF	n/a	n/a	POLE	6	10	[0, 0, 0]	n/a	FR1	0	R1382T
1327.53	1.6	1394471	WORD	n/a	n/a	SACK	7	10	[0, 0, 0]	n/a	FR1	0	R1382T
1329.13	0.767	1396078	WORD_OFF	n/a	n/a	SACK	7	10	[0, 0, 0]	n/a	FR1	0	R1382T
1329.897	1.616	1396846	WORD	n/a	n/a	CHALK	8	10	[0, 0, 0]	n/a	FR1	0	R1382T
1331.513	0.817	1398453	WORD_OFF	n/a	n/a	CHALK	8	10	[0, 0, 0]	n/a	FR1	0	R1382T
1332.33	1.6	1399277	WORD	n/a	n/a	CRANE	9	10	[0, 0, 0]	n/a	FR1	0	R1382T
1333.93	0.783	1400870	WORD_OFF	n/a	n/a	CRANE	9	10	[0, 0, 0]	n/a	FR1	0	R1382T
1334.713	1.6	1401652	WORD	n/a	n/a	RAT	10	10	[0, 0, 0]	n/a	FR1	0	R1382T
1336.313	0.883	1403259	WORD_OFF	n/a	n/a	RAT	10	10	[0, 0, 0]	n/a	FR1	0	R1382T
1337.196	1.617	1404139	WORD	n/a	n/a	RAKE	11	10	[0, 0, 0]	n/a	FR1	0	R1382T
1338.813	0.767	1405760	WORD_OFF	n/a	n/a	RAKE	11	10	[0, 0, 0]	n/a	FR1	0	R1382T
1339.58	1.616	1406528	WORD	n/a	n/a	BIN	12	10	[0, 0, 0]	n/a	FR1	0	R1382T
1341.196	0.0	1408134	PROB	0.0	n/a	n/a	-999	10	[6, 6, 2]	14	FR1	0	R1382T
1341.196	0.001	1408135	WORD_OFF	n/a	n/a	BIN	12	10	[0, 0, 0]	n/a	FR1	0	R1382T
1341.197	0.0	1408135	START	n/a	n/a	n/a	-999	10	[-999, -999, -999]	n/a	FR1	0	R1382T
1341.197	0.0	1408149	ENCODING_END	n/a	n/a	n/a	-999	10	[0, 0, 0]	n/a	FR1	0	R1382T
1341.197	7.118	1408149	DISTRACT_START	n/a	n/a	n/a	-999	10	[0, 0, 0]	n/a	FR1	0	R1382T
1348.315	3.866	1415253	PROB	3.866	n/a	n/a	-999	10	[7, 7, 2]	16	FR1	0	R1382T
1352.181	5.667	1419119	PROB	5.667	n/a	n/a	-999	10	[3, 2, 1]	6	FR1	0	R1382T
1357.848	11.916	1424785	PROB	11.916	n/a	n/a	-999	10	[2, 8, 8]	18	FR1	0	R1382T
1369.764	0.0	1436701	STOP	n/a	n/a	n/a	-999	10	[-999, -999, -999]	n/a	FR1	0	R1382T
1369.764	1.366	1436708	DISTRACT_END	n/a	n/a	n/a	-999	10	[0, 0, 0]	n/a	FR1	0	R1382T
1371.13	2.255	1438077	REC_START	n/a	n/a	n/a	-999	10	[0, 0, 0]	n/a	FR1	0	R1382T
1373.385	1.135	1440321	REC_WORD	1.135	n/a	GLOBE	1	10	[0, 0, 0]	n/a	FR1	0	R1382T
1374.52	1.905	1441456	REC_WORD	1.905	n/a	SEED	2	10	[0, 0, 0]	n/a	FR1	0	R1382T
1376.425	1.989	1443361	REC_WORD	1.989	n/a	TRAY	3	10	[0, 0, 0]	n/a	FR1	0	R1382T
1378.414	1.81	1445350	REC_WORD	1.81	n/a	DOG	4	10	[0, 0, 0]	n/a	FR1	0	R1382T
1380.224	1.76	1447160	REC_WORD	1.76	n/a	RAT	10	10	[0, 0, 0]	n/a	FR1	0	R1382T
1381.984	3.489	1448920	REC_WORD	3.489	n/a	RAKE	11	10	[0, 0, 0]	n/a	FR1	0	R1382T
1385.473	15.912	1452409	REC_WORD_VV	15.912	n/a	<>	-999	10	[0, 0, 0]	n/a	FR1	0	R1382T
1401.385	2.729	1468326	REC_END	n/a	n/a	n/a	-999	10	[0, 0, 0]	n/a	FR1	0	R1382T
1404.114	10.35	1471064	COUNTDOWN_START	n/a	n/a	n/a	-999	11	[0, 0, 0]	n/a	FR1	0	R1382T
1414.464	0.0	1481403	COUNTDOWN_END	n/a	n/a	n/a	-999	11	[0, 0, 0]	n/a	FR1	0	R1382T
1414.464	2.199	1481403	ENCODING_START	n/a	n/a	n/a	-999	11	[0, 0, 0]	n/a	FR1	0	R1382T
1416.663	1.617	1483611	WORD	n/a	n/a	LEAF	1	11	[0, 0, 0]	n/a	FR1	0	R1382T
1418.28	0.8	1485218	WORD_OFF	n/a	n/a	LEAF	1	11	[0, 0, 0]	n/a	FR1	0	R1382T
1419.08	1.616	1486014	WORD	n/a	n/a	STREET	2	11	[0, 0, 0]	n/a	FR1	0	R1382T
1420.696	0.917	1487635	WORD_OFF	n/a	n/a	STREET	2	11	[0, 0, 0]	n/a	FR1	0	R1382T
1421.613	1.6	1488557	WORD	n/a	n/a	CREAM	3	11	[0, 0, 0]	n/a	FR1	0	R1382T
1423.213	0.884	1490150	WORD_OFF	n/a	n/a	CREAM	3	11	[0, 0, 0]	n/a	FR1	0	R1382T
1424.097	1.616	1491044	WORD	n/a	n/a	PILL	4	11	[0, 0, 0]	n/a	FR1	0	R1382T
1425.713	0.983	1492651	WORD_OFF	n/a	n/a	PILL	4	11	[0, 0, 0]	n/a	FR1	0	R1382T
1426.696	1.6	1493643	WORD	n/a	n/a	THORN	5	11	[0, 0, 0]	n/a	FR1	0	R1382T
1428.296	0.967	1495236	WORD_OFF	n/a	n/a	THORN	5	11	[0, 0, 0]	n/a	FR1	0	R1382T
1429.263	1.616	1496200	WORD	n/a	n/a	SPONGE	6	11	[0, 0, 0]	n/a	FR1	0	R1382T
1430.879	0.817	1497820	WORD_OFF	n/a	n/a	SPONGE	6	11	[0, 0, 0]	n/a	FR1	0	R1382T
1431.696	1.617	1498631	WORD	n/a	n/a	PARK	7	11	[0, 0, 0]	n/a	FR1	0	R1382T
1433.313	0.883	1500251	WORD_OFF	n/a	n/a	PARK	7	11	[0, 0, 0]	n/a	FR1	0	R1382T
1434.196	1.601	1501132	WORD	n/a	n/a	NAIL	8	11	[0, 0, 0]	n/a	FR1	0	R1382T
1435.797	0.95	1502738	WORD_OFF	n/a	n/a	NAIL	8	11	[0, 0, 0]	n/a	FR1	0	R1382T
1436.747	1.6	1503688	WORD	n/a	n/a	STRING	9	11	[0, 0, 0]	n/a	FR1	0	R1382T
1438.347	0.901	1505281	WORD_OFF	n/a	n/a	STRING	9	11	[0, 0, 0]	n/a	FR1	0	R1382T
1439.248	1.599	1506189	WORD	n/a	n/a	HAIR	10	11	[0, 0, 0]	n/a	FR1	0	R1382T
1440.847	0.968	1507782	WORD_OFF	n/a	n/a	HAIR	10	11	[0, 0, 0]	n/a	FR1	0	R1382T
1441.815	1.614	1508760	WORD	n/a	n/a	JET	11	11	[0, 0, 0]	n/a	FR1	0	R1382T
1443.429	0.851	1510367	WORD_OFF	n/a	n/a	JET	11	11	[0, 0, 0]	n/a	FR1	0	R1382T
1444.28	1.601	1511219	WORD	n/a	n/a	POND	12	11	[0, 0, 0]	n/a	FR1	0	R1382T
1445.881	0.001	1512814	PROB	0.001	n/a	n/a	-999	11	[4, 3, 5]	12	FR1	0	R1382T
1445.882	0.0	1512815	START	n/a	n/a	n/a	-999	11	[-999, -999, -999]	n/a	FR1	0	R1382T
1445.88	0.002	1512826	WORD_OFF	n/a	n/a	POND	12	11	[0, 0, 0]	n/a	FR1	0	R1382T
1445.882	0.0	1512826	ENCODING_END	n/a	n/a	n/a	-999	11	[0, 0, 0]	n/a	FR1	0	R1382T
1445.882	13.199	1512826	DISTRACT_START	n/a	n/a	n/a	-999	11	[0, 0, 0]	n/a	FR1	0	R1382T
1459.081	3.35	1526013	PROB	3.35	n/a	n/a	-999	11	[5, 5, 5]	15	FR1	0	R1382T
1462.431	7.583	1529363	PROB	7.583	n/a	n/a	-999	11	[3, 2, 2]	7	FR1	0	R1382T
1470.014	0.0	1536945	STOP	n/a	n/a	n/a	-999	11	[-999, -999, -999]	n/a	FR1	0	R1382T
1470.014	1.099	1536955	DISTRACT_END	n/a	n/a	n/a	-999	11	[0, 0, 0]	n/a	FR1	0	R1382T
1471.113	2.097	1538059	REC_START	n/a	n/a	n/a	-999	11	[0, 0, 0]	n/a	FR1	0	R1382T
1473.21	1.028	1540141	REC_WORD	1.028	n/a	LEAF	1	11	[0, 0, 0]	n/a	FR1	0	R1382T
1474.238	1.083	1541169	REC_WORD	1.083	n/a	STREET	2	11	[0, 0, 0]	n/a	FR1	0	R1382T
1475.321	1.637	1542252	REC_WORD	1.637	n/a	SPONGE	6	11	[0, 0, 0]	n/a	FR1	0	R1382T
1476.958	2.072	1543889	REC_WORD	2.072	n/a	STRING	9	11	[0, 0, 0]	n/a	FR1	0	R1382T
1479.03	4.441	1545961	REC_WORD	4.441	n/a	HAIR	10	11	[0, 0, 0]	n/a	FR1	0	R1382T
1483.471	4.307	1550402	REC_WORD	4.307	n/a	PILL	4	11	[0, 0, 0]	n/a	FR1	0	R1382T
1487.778	13.573	1554709	REC_WORD_VV	13.573	n/a	<>	-999	11	[0, 0, 0]	n/a	FR1	0	R1382T
1501.351	3.246	1568294	REC_END	n/a	n/a	n/a	-999	11	[0, 0, 0]	n/a	FR1	0	R1382T
1504.597	10.35	1571536	COUNTDOWN_START	n/a	n/a	n/a	-999	12	[0, 0, 0]	n/a	FR1	0	R1382T
1514.947	0.0	1581889	COUNTDOWN_END	n/a	n/a	n/a	-999	12	[0, 0, 0]	n/a	FR1	0	R1382T
1514.947	2.067	1581889	ENCODING_START	n/a	n/a	n/a	-999	12	[0, 0, 0]	n/a	FR1	0	R1382T
1517.014	1.6	1583943	WORD	n/a	n/a	SOIL	1	12	[0, 0, 0]	n/a	FR1	0	R1382T
1518.614	0.933	1585549	WORD_OFF	n/a	n/a	SOIL	1	12	[0, 0, 0]	n/a	FR1	0	R1382T
1519.547	1.617	1586485	WORD	n/a	n/a	MOLE	2	12	[0, 0, 0]	n/a	FR1	0	R1382T
1521.164	0.966	1588106	WORD_OFF	n/a	n/a	MOLE	2	12	[0, 0, 0]	n/a	FR1	0	R1382T
1522.13	1.616	1589070	WORD	n/a	n/a	HOOK	3	12	[0, 0, 0]	n/a	FR1	0	R1382T
1523.746	0.933	1590677	WORD_OFF	n/a	n/a	HOOK	3	12	[0, 0, 0]	n/a	FR1	0	R1382T
1524.679	1.601	1591613	WORD	n/a	n/a	SKY	4	12	[0, 0, 0]	n/a	FR1	0	R1382T
1526.28	0.949	1593220	WORD_OFF	n/a	n/a	SKY	4	12	[0, 0, 0]	n/a	FR1	0	R1382T
1527.229	1.601	1594170	WORD	n/a	n/a	CLIFF	5	12	[0, 0, 0]	n/a	FR1	0	R1382T
1528.83	0.967	1595763	WORD_OFF	n/a	n/a	CLIFF	5	12	[0, 0, 0]	n/a	FR1	0	R1382T
1529.797	1.6	1596727	WORD	n/a	n/a	POT	6	12	[0, 0, 0]	n/a	FR1	0	R1382T
1531.397	0.866	1598334	WORD_OFF	n/a	n/a	POT	6	12	[0, 0, 0]	n/a	FR1	0	R1382T
1532.263	1.601	1599200	WORD	n/a	n/a	ROCK	7	12	[0, 0, 0]	n/a	FR1	0	R1382T
1533.864	0.966	1600807	WORD_OFF	n/a	n/a	ROCK	7	12	[0, 0, 0]	n/a	FR1	0	R1382T
1534.83	1.601	1601771	WORD	n/a	n/a	KEY	8	12	[0, 0, 0]	n/a	FR1	0	R1382T
1536.431	0.883	1603363	WORD_OFF	n/a	n/a	KEY	8	12	[0, 0, 0]	n/a	FR1	0	R1382T
1537.314	1.6	1604244	WORD	n/a	n/a	CLOTH	9	12	[0, 0, 0]	n/a	FR1	0	R1382T
1538.914	0.983	1605850	WORD_OFF	n/a	n/a	CLOTH	9	12	[0, 0, 0]	n/a	FR1	0	R1382T
1539.897	1.6	1606828	WORD	n/a	n/a	HEART	10	12	[0, 0, 0]	n/a	FR1	0	R1382T
1541.497	0.867	1608435	WORD_OFF	n/a	n/a	HEART	10	12	[0, 0, 0]	n/a	FR1	0	R1382T
1542.364	1.616	1609301	WORD	n/a	n/a	TANK	11	12	[0, 0, 0]	n/a	FR1	0	R1382T
1543.98	0.867	1610922	WORD_OFF	n/a	n/a	TANK	11	12	[0, 0, 0]	n/a	FR1	0	R1382T
1544.847	1.6	1611788	WORD	n/a	n/a	THREAD	12	12	[0, 0, 0]	n/a	FR1	0	R1382T
1546.447	0.001	1613374	PROB	0.001	n/a	n/a	-999	12	[8, 2, 2]	12	FR1	0	R1382T
1546.448	0.0	1613375	START	n/a	n/a	n/a	-999	12	[-999, -999, -999]	n/a	FR1	0	R1382T
1546.447	0.001	1613381	WORD_OFF	n/a	n/a	THREAD	12	12	[0, 0, 0]	n/a	FR1	0	R1382T
1546.448	0.0	1613381	ENCODING_END	n/a	n/a	n/a	-999	12	[0, 0, 0]	n/a	FR1	0	R1382T
1546.448	7.849	1613381	DISTRACT_START	n/a	n/a	n/a	-999	12	[0, 0, 0]	n/a	FR1	0	R1382T
1554.297	22.866	1621224	PROB	22.866	n/a	n/a	-999	12	[7, 5, 6]	18	FR1	0	R1382T
1577.163	0.0	1644089	STOP	n/a	n/a	n/a	-999	12	[-999, -999, -999]	n/a	FR1	0	R1382T
1577.163	1.217	1644091	DISTRACT_END	n/a	n/a	n/a	-999	12	[0, 0, 0]	n/a	FR1	0	R1382T
1578.38	1.798	1645307	REC_START	n/a	n/a	n/a	-999	12	[0, 0, 0]	n/a	FR1	0	R1382T
1580.178	1.415	1647104	REC_WORD	1.415	n/a	SOIL	1	12	[0, 0, 0]	n/a	FR1	0	R1382T
1581.593	1.349	1648519	REC_WORD	1.349	n/a	MOLE	2	12	[0, 0, 0]	n/a	FR1	0	R1382T
1582.942	0.805	1649868	REC_WORD	0.805	n/a	HOOK	3	12	[0, 0, 0]	n/a	FR1	0	R1382T
1583.747	1.621	1650673	REC_WORD	1.621	n/a	SKY	4	12	[0, 0, 0]	n/a	FR1	0	R1382T
1585.368	1.442	1652293	REC_WORD	1.442	n/a	CLIFF	5	12	[0, 0, 0]	n/a	FR1	0	R1382T
1586.81	3.066	1653735	REC_WORD	3.066	n/a	POT	6	12	[0, 0, 0]	n/a	FR1	0	R1382T
1589.876	5.314	1656801	REC_WORD_VV	5.314	n/a	<>	-999	12	[0, 0, 0]	n/a	FR1	0	R1382T
1595.19	1.0	1662115	REC_WORD_VV	1.0	n/a	<>	-999	12	[0, 0, 0]	n/a	FR1	0	R1382T
1596.19	12.425	1663115	REC_WORD_VV	12.425	n/a	<>	-999	12	[0, 0, 0]	n/a	FR1	0	R1382T
1608.615	0.0	1675542	REC_END	n/a	n/a	n/a	-999	12	[0, 0, 0]	n/a	FR1	0	R1382T
