onset	duration	sample	trial_type	response_time	stim_file	item_name	serialpos	list	test	answer	experiment	session	subject
0.0	161.866	10683	INSTRUCT_START	n/a	n/a	n/a	-999	-999	[0, 0, 0]	n/a	FR1	3	R1406M
161.866	35.799	172550	INSTRUCT_END	n/a	n/a	n/a	-999	-999	[0, 0, 0]	n/a	FR1	3	R1406M
197.665	10.35	208338	COUNTDOWN_START	n/a	n/a	n/a	-999	-999	[0, 0, 0]	n/a	FR1	3	R1406M
208.015	0.0	218697	COUNTDOWN_END	n/a	n/a	n/a	-999	-999	[0, 0, 0]	n/a	FR1	3	R1406M
208.015	1.933	218697	ENCODING_START	n/a	n/a	n/a	-999	-1	[0, 0, 0]	n/a	FR1	3	R1406M
209.948	1.616	220624	WORD	n/a	n/a	NAIL	1	-1	[0, 0, 0]	n/a	FR1	3	R1406M
211.564	0.95	222245	WORD_OFF	n/a	n/a	NAIL	1	-1	[0, 0, 0]	n/a	FR1	3	R1406M
212.514	1.601	223180	WORD	n/a	n/a	MOOSE	2	-1	[0, 0, 0]	n/a	FR1	3	R1406M
214.115	0.833	224783	WORD_OFF	n/a	n/a	MOOSE	2	-1	[0, 0, 0]	n/a	FR1	3	R1406M
214.948	1.617	225622	WORD	n/a	n/a	OWL	3	-1	[0, 0, 0]	n/a	FR1	3	R1406M
216.565	0.767	227244	WORD_OFF	n/a	n/a	OWL	3	-1	[0, 0, 0]	n/a	FR1	3	R1406M
217.332	1.6	228007	WORD	n/a	n/a	HILL	4	-1	[0, 0, 0]	n/a	FR1	3	R1406M
218.932	0.816	229609	WORD_OFF	n/a	n/a	HILL	4	-1	[0, 0, 0]	n/a	FR1	3	R1406M
219.748	1.6	230429	WORD	n/a	n/a	BRANCH	5	-1	[0, 0, 0]	n/a	FR1	3	R1406M
221.348	0.834	232013	WORD_OFF	n/a	n/a	BRANCH	5	-1	[0, 0, 0]	n/a	FR1	3	R1406M
222.182	1.617	232852	WORD	n/a	n/a	SHOE	6	-1	[0, 0, 0]	n/a	FR1	3	R1406M
223.799	0.899	234474	WORD_OFF	n/a	n/a	SHOE	6	-1	[0, 0, 0]	n/a	FR1	3	R1406M
224.698	1.617	235370	WORD	n/a	n/a	STONE	7	-1	[0, 0, 0]	n/a	FR1	3	R1406M
226.315	1.0	236992	WORD_OFF	n/a	n/a	STONE	7	-1	[0, 0, 0]	n/a	FR1	3	R1406M
227.315	1.616	237984	WORD	n/a	n/a	CAVE	8	-1	[0, 0, 0]	n/a	FR1	3	R1406M
228.931	0.784	239605	WORD_OFF	n/a	n/a	CAVE	8	-1	[0, 0, 0]	n/a	FR1	3	R1406M
229.715	1.617	240388	WORD	n/a	n/a	TANK	9	-1	[0, 0, 0]	n/a	FR1	3	R1406M
231.332	0.833	242009	WORD_OFF	n/a	n/a	TANK	9	-1	[0, 0, 0]	n/a	FR1	3	R1406M
232.165	1.617	242829	WORD	n/a	n/a	SEA	10	-1	[0, 0, 0]	n/a	FR1	3	R1406M
233.782	0.883	244451	WORD_OFF	n/a	n/a	SEA	10	-1	[0, 0, 0]	n/a	FR1	3	R1406M
234.665	1.6	245328	WORD	n/a	n/a	HOOF	11	-1	[0, 0, 0]	n/a	FR1	3	R1406M
236.265	0.817	246931	WORD_OFF	n/a	n/a	HOOF	11	-1	[0, 0, 0]	n/a	FR1	3	R1406M
237.082	1.618	247751	WORD	n/a	n/a	COIN	12	-1	[0, 0, 0]	n/a	FR1	3	R1406M
238.7	0.0	249372	START	n/a	n/a	n/a	-999	-1	[-999, -999, -999]	n/a	FR1	3	R1406M
238.7	0.0	249372	PROB	0.0	n/a	n/a	-999	-1	[6, 1, 5]	12	FR1	3	R1406M
238.698	0.002	249373	WORD_OFF	n/a	n/a	COIN	12	-1	[0, 0, 0]	n/a	FR1	3	R1406M
238.7	0.0	249373	ENCODING_END	n/a	n/a	n/a	-999	-1	[0, 0, 0]	n/a	FR1	3	R1406M
238.7	4.966	249373	DISTRACT_START	n/a	n/a	n/a	-999	-1	[0, 0, 0]	n/a	FR1	3	R1406M
243.666	3.734	254338	PROB	3.734	n/a	n/a	-999	-1	[3, 3, 7]	13	FR1	3	R1406M
247.4	2.916	258071	PROB	2.916	n/a	n/a	-999	-1	[2, 5, 4]	11	FR1	3	R1406M
250.316	4.016	260987	PROB	4.016	n/a	n/a	-999	-1	[2, 2, 3]	7	FR1	3	R1406M
254.332	3.7	265003	PROB	3.7	n/a	n/a	-999	-1	[7, 1, 7]	15	FR1	3	R1406M
258.032	5.15	268703	PROB	5.15	n/a	n/a	-999	-1	[8, 3, 2]	14	FR1	3	R1406M
263.182	0.0	273848	DISTRACT_END	n/a	n/a	n/a	-999	-1	[0, 0, 0]	n/a	FR1	3	R1406M
263.182	2.066	273853	STOP	n/a	n/a	n/a	-999	-1	[-999, -999, -999]	n/a	FR1	3	R1406M
265.248	5.385	275917	REC_START	n/a	n/a	n/a	-999	-1	[0, 0, 0]	n/a	FR1	3	R1406M
270.633	4.786	281303	REC_WORD	4.786	n/a	SHOE	6	-1	[0, 0, 0]	n/a	FR1	3	R1406M
275.419	4.188	286089	REC_WORD	4.188	n/a	SEA	10	-1	[0, 0, 0]	n/a	FR1	3	R1406M
279.607	4.523	290277	REC_WORD	4.523	n/a	HOOF	11	-1	[0, 0, 0]	n/a	FR1	3	R1406M
284.13	8.761	294800	REC_WORD	8.761	n/a	BOAT	-999	-1	[0, 0, 0]	n/a	FR1	3	R1406M
292.891	2.605	303560	REC_WORD	2.605	n/a	HUT	-999	-1	[0, 0, 0]	n/a	FR1	3	R1406M
295.496	46.352	306165	REC_END	n/a	n/a	n/a	-999	-1	[0, 0, 0]	n/a	FR1	3	R1406M
341.848	10.351	352522	COUNTDOWN_START	n/a	n/a	n/a	-999	1	[0, 0, 0]	n/a	FR1	3	R1406M
352.199	0.0	362861	COUNTDOWN_END	n/a	n/a	n/a	-999	1	[0, 0, 0]	n/a	FR1	3	R1406M
352.199	1.966	362861	ENCODING_START	n/a	n/a	n/a	-999	1	[0, 0, 0]	n/a	FR1	3	R1406M
354.165	1.6	364826	WORD	n/a	wordpools/wordpool_long_EN.txt	PEA	1	1	[0, 0, 0]	n/a	FR1	3	R1406M
355.765	0.866	366429	WORD_OFF	n/a	n/a	PEA	1	1	[0, 0, 0]	n/a	FR1	3	R1406M
356.631	1.617	367306	WORD	n/a	wordpools/wordpool_long_EN.txt	SKUNK	2	1	[0, 0, 0]	n/a	FR1	3	R1406M
358.248	0.833	368909	WORD_OFF	n/a	n/a	SKUNK	2	1	[0, 0, 0]	n/a	FR1	3	R1406M
359.081	1.617	369748	WORD	n/a	wordpools/wordpool_long_EN.txt	STAKE	3	1	[0, 0, 0]	n/a	FR1	3	R1406M
360.698	0.916	371370	WORD_OFF	n/a	n/a	STAKE	3	1	[0, 0, 0]	n/a	FR1	3	R1406M
361.614	1.617	372285	WORD	n/a	wordpools/wordpool_long_EN.txt	RUST	4	1	[0, 0, 0]	n/a	FR1	3	R1406M
363.231	0.85	373888	WORD_OFF	n/a	n/a	RUST	4	1	[0, 0, 0]	n/a	FR1	3	R1406M
364.081	1.6	374746	WORD	n/a	wordpools/wordpool_long_EN.txt	DEER	5	1	[0, 0, 0]	n/a	FR1	3	R1406M
365.681	0.867	376349	WORD_OFF	n/a	n/a	DEER	5	1	[0, 0, 0]	n/a	FR1	3	R1406M
366.548	1.6	377207	WORD	n/a	wordpools/wordpool_long_EN.txt	QUEEN	6	1	[0, 0, 0]	n/a	FR1	3	R1406M
368.148	0.849	378810	WORD_OFF	n/a	n/a	QUEEN	6	1	[0, 0, 0]	n/a	FR1	3	R1406M
368.997	1.601	379668	WORD	n/a	wordpools/wordpool_long_EN.txt	TART	7	1	[0, 0, 0]	n/a	FR1	3	R1406M
370.598	0.916	381270	WORD_OFF	n/a	n/a	TART	7	1	[0, 0, 0]	n/a	FR1	3	R1406M
371.514	1.6	382186	WORD	n/a	wordpools/wordpool_long_EN.txt	ARK	8	1	[0, 0, 0]	n/a	FR1	3	R1406M
373.114	0.784	383770	WORD_OFF	n/a	n/a	ARK	8	1	[0, 0, 0]	n/a	FR1	3	R1406M
373.898	1.617	384571	WORD	n/a	wordpools/wordpool_long_EN.txt	SLUSH	9	1	[0, 0, 0]	n/a	FR1	3	R1406M
375.515	1.0	386173	WORD_OFF	n/a	n/a	SLUSH	9	1	[0, 0, 0]	n/a	FR1	3	R1406M
376.515	1.616	387184	WORD	n/a	wordpools/wordpool_long_EN.txt	FOAM	10	1	[0, 0, 0]	n/a	FR1	3	R1406M
378.131	0.767	388791	WORD_OFF	n/a	n/a	FOAM	10	1	[0, 0, 0]	n/a	FR1	3	R1406M
378.898	1.6	389569	WORD	n/a	wordpools/wordpool_long_EN.txt	SPOUSE	11	1	[0, 0, 0]	n/a	FR1	3	R1406M
380.498	1.001	391171	WORD_OFF	n/a	n/a	SPOUSE	11	1	[0, 0, 0]	n/a	FR1	3	R1406M
381.499	1.6	392163	WORD	n/a	wordpools/wordpool_long_EN.txt	THUMB	12	1	[0, 0, 0]	n/a	FR1	3	R1406M
383.099	0.001	393763	PROB	0.001	n/a	n/a	-999	1	[3, 4, 4]	11	FR1	3	R1406M
383.1	0.0	393764	START	n/a	n/a	n/a	-999	1	[-999, -999, -999]	n/a	FR1	3	R1406M
383.099	0.001	393766	WORD_OFF	n/a	n/a	THUMB	12	1	[0, 0, 0]	n/a	FR1	3	R1406M
383.1	0.0	393766	ENCODING_END	n/a	n/a	n/a	-999	1	[0, 0, 0]	n/a	FR1	3	R1406M
383.1	8.115	393766	DISTRACT_START	n/a	n/a	n/a	-999	1	[0, 0, 0]	n/a	FR1	3	R1406M
391.215	3.217	401879	PROB	3.217	n/a	n/a	-999	1	[1, 8, 1]	10	FR1	3	R1406M
394.432	7.234	405096	PROB	7.234	n/a	n/a	-999	1	[6, 8, 7]	21	FR1	3	R1406M
401.666	3.582	412329	PROB	3.582	n/a	n/a	-999	1	[1, 7, 5]	12	FR1	3	R1406M
405.248	0.0	415911	STOP	n/a	n/a	n/a	-999	1	[-999, -999, -999]	n/a	FR1	3	R1406M
405.248	2.217	415914	DISTRACT_END	n/a	n/a	n/a	-999	1	[0, 0, 0]	n/a	FR1	3	R1406M
407.465	1.49	418135	REC_START	n/a	n/a	n/a	-999	1	[0, 0, 0]	n/a	FR1	3	R1406M
408.955	0.285	419618	REC_WORD_VV	0.285	n/a	<>	-999	1	[0, 0, 0]	n/a	FR1	3	R1406M
409.24	0.895	419903	REC_WORD	0.895	n/a	RUST	4	1	[0, 0, 0]	n/a	FR1	3	R1406M
410.135	6.194	420798	REC_WORD	6.194	n/a	NAIL	-999	1	[0, 0, 0]	n/a	FR1	3	R1406M
416.329	4.626	426991	REC_WORD	4.626	n/a	TURTLE	-999	1	[0, 0, 0]	n/a	FR1	3	R1406M
420.955	4.269	431617	REC_WORD	4.269	n/a	STAKE	3	1	[0, 0, 0]	n/a	FR1	3	R1406M
425.224	5.647	435886	REC_WORD	5.647	n/a	ARK	8	1	[0, 0, 0]	n/a	FR1	3	R1406M
430.871	6.81	441533	REC_WORD	6.81	n/a	TANK	-999	1	[0, 0, 0]	n/a	FR1	3	R1406M
437.681	4.551	448345	REC_END	n/a	n/a	n/a	-999	1	[0, 0, 0]	n/a	FR1	3	R1406M
442.232	10.35	452904	COUNTDOWN_START	n/a	n/a	n/a	-999	2	[0, 0, 0]	n/a	FR1	3	R1406M
452.582	0.0	463244	COUNTDOWN_END	n/a	n/a	n/a	-999	2	[0, 0, 0]	n/a	FR1	3	R1406M
452.582	1.983	463244	ENCODING_START	n/a	n/a	n/a	-999	2	[0, 0, 0]	n/a	FR1	3	R1406M
454.565	1.617	465228	WORD	n/a	wordpools/wordpool_long_EN.txt	SPHINX	1	2	[0, 0, 0]	n/a	FR1	3	R1406M
456.182	0.8	466849	WORD_OFF	n/a	n/a	SPHINX	1	2	[0, 0, 0]	n/a	FR1	3	R1406M
456.982	1.616	467651	WORD	n/a	wordpools/wordpool_long_EN.txt	NEST	2	2	[0, 0, 0]	n/a	FR1	3	R1406M
458.598	0.85	469253	WORD_OFF	n/a	n/a	NEST	2	2	[0, 0, 0]	n/a	FR1	3	R1406M
459.448	1.616	470112	WORD	n/a	wordpools/wordpool_long_EN.txt	GLOVE	3	2	[0, 0, 0]	n/a	FR1	3	R1406M
461.064	0.867	471733	WORD_OFF	n/a	n/a	GLOVE	3	2	[0, 0, 0]	n/a	FR1	3	R1406M
461.931	1.617	472592	WORD	n/a	wordpools/wordpool_long_EN.txt	TRENCH	4	2	[0, 0, 0]	n/a	FR1	3	R1406M
463.548	0.8	474213	WORD_OFF	n/a	n/a	TRENCH	4	2	[0, 0, 0]	n/a	FR1	3	R1406M
464.348	1.6	475014	WORD	n/a	wordpools/wordpool_long_EN.txt	STOOL	5	2	[0, 0, 0]	n/a	FR1	3	R1406M
465.948	0.816	476617	WORD_OFF	n/a	n/a	STOOL	5	2	[0, 0, 0]	n/a	FR1	3	R1406M
466.764	1.601	477418	WORD	n/a	wordpools/wordpool_long_EN.txt	SOAP	6	2	[0, 0, 0]	n/a	FR1	3	R1406M
468.365	0.85	479021	WORD_OFF	n/a	n/a	SOAP	6	2	[0, 0, 0]	n/a	FR1	3	R1406M
469.215	1.6	479879	WORD	n/a	wordpools/wordpool_long_EN.txt	CLIFF	7	2	[0, 0, 0]	n/a	FR1	3	R1406M
470.815	0.817	481481	WORD_OFF	n/a	n/a	CLIFF	7	2	[0, 0, 0]	n/a	FR1	3	R1406M
471.632	1.616	482283	WORD	n/a	wordpools/wordpool_long_EN.txt	HORN	8	2	[0, 0, 0]	n/a	FR1	3	R1406M
473.248	0.95	483904	WORD_OFF	n/a	n/a	HORN	8	2	[0, 0, 0]	n/a	FR1	3	R1406M
474.198	1.617	484858	WORD	n/a	wordpools/wordpool_long_EN.txt	SWAMP	9	2	[0, 0, 0]	n/a	FR1	3	R1406M
475.815	0.767	486480	WORD_OFF	n/a	n/a	SWAMP	9	2	[0, 0, 0]	n/a	FR1	3	R1406M
476.582	1.616	487243	WORD	n/a	wordpools/wordpool_long_EN.txt	BOARD	10	2	[0, 0, 0]	n/a	FR1	3	R1406M
478.198	0.917	488864	WORD_OFF	n/a	n/a	BOARD	10	2	[0, 0, 0]	n/a	FR1	3	R1406M
479.115	1.6	489780	WORD	n/a	wordpools/wordpool_long_EN.txt	HAT	11	2	[0, 0, 0]	n/a	FR1	3	R1406M
480.715	1.0	491382	WORD_OFF	n/a	n/a	HAT	11	2	[0, 0, 0]	n/a	FR1	3	R1406M
481.715	1.601	492374	WORD	n/a	wordpools/wordpool_long_EN.txt	VAULT	12	2	[0, 0, 0]	n/a	FR1	3	R1406M
483.316	0.001	493975	PROB	0.001	n/a	n/a	-999	2	[1, 5, 6]	12	FR1	3	R1406M
483.317	0.0	493976	START	n/a	n/a	n/a	-999	2	[-999, -999, -999]	n/a	FR1	3	R1406M
483.315	0.001	493977	WORD_OFF	n/a	n/a	VAULT	12	2	[0, 0, 0]	n/a	FR1	3	R1406M
483.316	0.001	493977	ENCODING_END	n/a	n/a	n/a	-999	2	[0, 0, 0]	n/a	FR1	3	R1406M
483.317	3.431	493977	DISTRACT_START	n/a	n/a	n/a	-999	2	[0, 0, 0]	n/a	FR1	3	R1406M
486.748	4.317	497407	PROB	4.317	n/a	n/a	-999	2	[7, 4, 7]	18	FR1	3	R1406M
491.065	3.017	501723	PROB	3.017	n/a	n/a	-999	2	[5, 5, 7]	17	FR1	3	R1406M
494.082	3.783	504740	PROB	3.783	n/a	n/a	-999	2	[8, 1, 5]	14	FR1	3	R1406M
497.865	4.783	508523	PROB	4.783	n/a	n/a	-999	2	[6, 6, 3]	15	FR1	3	R1406M
502.648	7.167	513306	PROB	7.167	n/a	n/a	-999	2	[6, 6, 8]	20	FR1	3	R1406M
509.815	0.0	520472	STOP	n/a	n/a	n/a	-999	2	[-999, -999, -999]	n/a	FR1	3	R1406M
509.815	2.183	520475	DISTRACT_END	n/a	n/a	n/a	-999	2	[0, 0, 0]	n/a	FR1	3	R1406M
511.998	10.595	522657	REC_START	n/a	n/a	n/a	-999	2	[0, 0, 0]	n/a	FR1	3	R1406M
522.593	19.632	533250	REC_WORD	19.632	n/a	SLEEVES	-999	2	[0, 0, 0]	n/a	FR1	3	R1406M
542.225	14.257	552886	REC_END	n/a	n/a	n/a	-999	2	[0, 0, 0]	n/a	FR1	3	R1406M
556.482	10.35	567137	COUNTDOWN_START	n/a	n/a	n/a	-999	3	[0, 0, 0]	n/a	FR1	3	R1406M
566.832	0.0	577495	COUNTDOWN_END	n/a	n/a	n/a	-999	3	[0, 0, 0]	n/a	FR1	3	R1406M
566.832	2.016	577495	ENCODING_START	n/a	n/a	n/a	-999	3	[0, 0, 0]	n/a	FR1	3	R1406M
568.848	1.617	579499	WORD	n/a	wordpools/wordpool_long_EN.txt	PEARL	1	3	[0, 0, 0]	n/a	FR1	3	R1406M
570.465	0.917	581120	WORD_OFF	n/a	n/a	PEARL	1	3	[0, 0, 0]	n/a	FR1	3	R1406M
571.382	1.6	582036	WORD	n/a	wordpools/wordpool_long_EN.txt	SKI	2	3	[0, 0, 0]	n/a	FR1	3	R1406M
572.982	0.966	583638	WORD_OFF	n/a	n/a	SKI	2	3	[0, 0, 0]	n/a	FR1	3	R1406M
573.948	1.6	584611	WORD	n/a	wordpools/wordpool_long_EN.txt	TOAST	3	3	[0, 0, 0]	n/a	FR1	3	R1406M
575.548	0.917	586195	WORD_OFF	n/a	n/a	TOAST	3	3	[0, 0, 0]	n/a	FR1	3	R1406M
576.465	1.6	587110	WORD	n/a	wordpools/wordpool_long_EN.txt	BROOK	4	3	[0, 0, 0]	n/a	FR1	3	R1406M
578.065	0.8	588713	WORD_OFF	n/a	n/a	BROOK	4	3	[0, 0, 0]	n/a	FR1	3	R1406M
578.865	1.617	589514	WORD	n/a	wordpools/wordpool_long_EN.txt	JAIL	5	3	[0, 0, 0]	n/a	FR1	3	R1406M
580.482	0.766	591135	WORD_OFF	n/a	n/a	JAIL	5	3	[0, 0, 0]	n/a	FR1	3	R1406M
581.248	1.6	591899	WORD	n/a	wordpools/wordpool_long_EN.txt	SEED	6	3	[0, 0, 0]	n/a	FR1	3	R1406M
582.848	0.784	593501	WORD_OFF	n/a	n/a	SEED	6	3	[0, 0, 0]	n/a	FR1	3	R1406M
583.632	1.6	594283	WORD	n/a	wordpools/wordpool_long_EN.txt	WIFE	7	3	[0, 0, 0]	n/a	FR1	3	R1406M
585.232	0.783	595886	WORD_OFF	n/a	n/a	WIFE	7	3	[0, 0, 0]	n/a	FR1	3	R1406M
586.015	1.6	596668	WORD	n/a	wordpools/wordpool_long_EN.txt	QUAIL	8	3	[0, 0, 0]	n/a	FR1	3	R1406M
587.615	0.883	598270	WORD_OFF	n/a	n/a	QUAIL	8	3	[0, 0, 0]	n/a	FR1	3	R1406M
588.498	1.617	599148	WORD	n/a	wordpools/wordpool_long_EN.txt	CORD	9	3	[0, 0, 0]	n/a	FR1	3	R1406M
590.115	0.9	600769	WORD_OFF	n/a	n/a	CORD	9	3	[0, 0, 0]	n/a	FR1	3	R1406M
591.015	1.6	601666	WORD	n/a	wordpools/wordpool_long_EN.txt	WASP	10	3	[0, 0, 0]	n/a	FR1	3	R1406M
592.615	0.867	603268	WORD_OFF	n/a	n/a	WASP	10	3	[0, 0, 0]	n/a	FR1	3	R1406M
593.482	1.616	604127	WORD	n/a	wordpools/wordpool_long_EN.txt	STEAK	11	3	[0, 0, 0]	n/a	FR1	3	R1406M
595.098	0.967	605748	WORD_OFF	n/a	n/a	STEAK	11	3	[0, 0, 0]	n/a	FR1	3	R1406M
596.065	1.6	606721	WORD	n/a	wordpools/wordpool_long_EN.txt	SHELL	12	3	[0, 0, 0]	n/a	FR1	3	R1406M
597.665	0.001	608318	PROB	0.001	n/a	n/a	-999	3	[7, 1, 3]	11	FR1	3	R1406M
597.666	0.0	608319	START	n/a	n/a	n/a	-999	3	[-999, -999, -999]	n/a	FR1	3	R1406M
597.665	0.001	608324	WORD_OFF	n/a	n/a	SHELL	12	3	[0, 0, 0]	n/a	FR1	3	R1406M
597.666	0.0	608324	ENCODING_END	n/a	n/a	n/a	-999	3	[0, 0, 0]	n/a	FR1	3	R1406M
597.666	4.533	608324	DISTRACT_START	n/a	n/a	n/a	-999	3	[0, 0, 0]	n/a	FR1	3	R1406M
602.199	7.266	612852	PROB	7.266	n/a	n/a	-999	3	[7, 3, 6]	16	FR1	3	R1406M
609.465	4.55	620117	PROB	4.55	n/a	n/a	-999	3	[3, 4, 8]	15	FR1	3	R1406M
614.015	7.783	624667	PROB	7.783	n/a	n/a	-999	3	[5, 7, 7]	19	FR1	3	R1406M
621.798	0.0	632449	STOP	n/a	n/a	n/a	-999	3	[-999, -999, -999]	n/a	FR1	3	R1406M
621.798	2.399	632456	DISTRACT_END	n/a	n/a	n/a	-999	3	[0, 0, 0]	n/a	FR1	3	R1406M
624.197	2.669	634849	REC_START	n/a	n/a	n/a	-999	3	[0, 0, 0]	n/a	FR1	3	R1406M
626.866	9.768	637517	REC_WORD_VV	9.768	n/a	<>	-999	3	[0, 0, 0]	n/a	FR1	3	R1406M
636.634	0.838	647285	REC_WORD	0.838	n/a	POOL	-999	3	[0, 0, 0]	n/a	FR1	3	R1406M
637.472	2.512	648123	REC_WORD	2.512	n/a	HEM	-999	3	[0, 0, 0]	n/a	FR1	3	R1406M
639.984	5.443	650635	REC_WORD	5.443	n/a	STEAK	11	3	[0, 0, 0]	n/a	FR1	3	R1406M
645.427	8.983	656077	REC_WORD	8.983	n/a	SQUASH	-999	3	[0, 0, 0]	n/a	FR1	3	R1406M
654.41	11.805	665058	REC_END	n/a	n/a	n/a	-999	3	[0, 0, 0]	n/a	FR1	3	R1406M
666.215	10.35	676867	COUNTDOWN_START	n/a	n/a	n/a	-999	4	[0, 0, 0]	n/a	FR1	3	R1406M
676.565	0.001	687207	COUNTDOWN_END	n/a	n/a	n/a	-999	4	[0, 0, 0]	n/a	FR1	3	R1406M
676.566	2.216	687207	ENCODING_START	n/a	n/a	n/a	-999	4	[0, 0, 0]	n/a	FR1	3	R1406M
678.782	1.6	689439	WORD	n/a	wordpools/wordpool_long_EN.txt	DOCK	1	4	[0, 0, 0]	n/a	FR1	3	R1406M
680.382	0.95	691022	WORD_OFF	n/a	n/a	DOCK	1	4	[0, 0, 0]	n/a	FR1	3	R1406M
681.332	1.616	691976	WORD	n/a	wordpools/wordpool_long_EN.txt	SKY	2	4	[0, 0, 0]	n/a	FR1	3	R1406M
682.948	0.934	693597	WORD_OFF	n/a	n/a	SKY	2	4	[0, 0, 0]	n/a	FR1	3	R1406M
683.882	1.616	694532	WORD	n/a	wordpools/wordpool_long_EN.txt	BRICK	3	4	[0, 0, 0]	n/a	FR1	3	R1406M
685.498	0.767	696154	WORD_OFF	n/a	n/a	BRICK	3	4	[0, 0, 0]	n/a	FR1	3	R1406M
686.265	1.6	696917	WORD	n/a	wordpools/wordpool_long_EN.txt	TREE	4	4	[0, 0, 0]	n/a	FR1	3	R1406M
687.865	0.917	698519	WORD_OFF	n/a	n/a	TREE	4	4	[0, 0, 0]	n/a	FR1	3	R1406M
688.782	1.616	699435	WORD	n/a	wordpools/wordpool_long_EN.txt	CASH	5	4	[0, 0, 0]	n/a	FR1	3	R1406M
690.398	0.833	701037	WORD_OFF	n/a	n/a	CASH	5	4	[0, 0, 0]	n/a	FR1	3	R1406M
691.231	1.617	701877	WORD	n/a	wordpools/wordpool_long_EN.txt	YOLK	6	4	[0, 0, 0]	n/a	FR1	3	R1406M
692.848	0.95	703498	WORD_OFF	n/a	n/a	YOLK	6	4	[0, 0, 0]	n/a	FR1	3	R1406M
693.798	1.6	704452	WORD	n/a	wordpools/wordpool_long_EN.txt	BOY	7	4	[0, 0, 0]	n/a	FR1	3	R1406M
695.398	0.833	706055	WORD_OFF	n/a	n/a	BOY	7	4	[0, 0, 0]	n/a	FR1	3	R1406M
696.231	1.6	706875	WORD	n/a	wordpools/wordpool_long_EN.txt	BAT	8	4	[0, 0, 0]	n/a	FR1	3	R1406M
697.831	0.934	708477	WORD_OFF	n/a	n/a	BAT	8	4	[0, 0, 0]	n/a	FR1	3	R1406M
698.765	1.616	709412	WORD	n/a	wordpools/wordpool_long_EN.txt	SHIELD	9	4	[0, 0, 0]	n/a	FR1	3	R1406M
700.381	0.95	711034	WORD_OFF	n/a	n/a	SHIELD	9	4	[0, 0, 0]	n/a	FR1	3	R1406M
701.331	1.6	711969	WORD	n/a	wordpools/wordpool_long_EN.txt	SPONGE	10	4	[0, 0, 0]	n/a	FR1	3	R1406M
702.931	0.933	713571	WORD_OFF	n/a	n/a	SPONGE	10	4	[0, 0, 0]	n/a	FR1	3	R1406M
703.864	1.6	714506	WORD	n/a	wordpools/wordpool_long_EN.txt	GLASS	11	4	[0, 0, 0]	n/a	FR1	3	R1406M
705.464	0.884	716108	WORD_OFF	n/a	n/a	GLASS	11	4	[0, 0, 0]	n/a	FR1	3	R1406M
706.348	1.599	716986	WORD	n/a	wordpools/wordpool_long_EN.txt	JUDGE	12	4	[0, 0, 0]	n/a	FR1	3	R1406M
707.947	0.002	718588	WORD_OFF	n/a	n/a	JUDGE	12	4	[0, 0, 0]	n/a	FR1	3	R1406M
707.949	0.0	718588	ENCODING_END	n/a	n/a	n/a	-999	4	[0, 0, 0]	n/a	FR1	3	R1406M
707.948	0.001	718595	PROB	0.001	n/a	n/a	-999	4	[1, 6, 7]	14	FR1	3	R1406M
707.949	0.0	718596	START	n/a	n/a	n/a	-999	4	[-999, -999, -999]	n/a	FR1	3	R1406M
707.949	4.499	718607	DISTRACT_START	n/a	n/a	n/a	-999	4	[0, 0, 0]	n/a	FR1	3	R1406M
712.448	3.9	723095	PROB	3.9	n/a	n/a	-999	4	[1, 6, 3]	10	FR1	3	R1406M
716.348	5.585	726994	PROB	5.585	n/a	n/a	-999	4	[3, 3, 4]	11	FR1	3	R1406M
721.933	5.699	732579	PROB	5.699	n/a	n/a	-999	4	[8, 8, 5]	21	FR1	3	R1406M
727.632	5.616	738278	PROB	5.616	n/a	n/a	-999	4	[5, 3, 6]	14	FR1	3	R1406M
733.248	0.0	743887	DISTRACT_END	n/a	n/a	n/a	-999	4	[0, 0, 0]	n/a	FR1	3	R1406M
733.248	2.167	743894	STOP	n/a	n/a	n/a	-999	4	[-999, -999, -999]	n/a	FR1	3	R1406M
735.415	1.972	746067	REC_START	n/a	n/a	n/a	-999	4	[0, 0, 0]	n/a	FR1	3	R1406M
737.387	0.778	748032	REC_WORD	0.778	n/a	BOY	7	4	[0, 0, 0]	n/a	FR1	3	R1406M
738.165	1.108	748810	REC_WORD	1.108	n/a	GLASS	11	4	[0, 0, 0]	n/a	FR1	3	R1406M
739.273	0.918	749918	REC_WORD	0.918	n/a	EGG	-999	4	[0, 0, 0]	n/a	FR1	3	R1406M
740.191	3.396	750836	REC_WORD	3.396	n/a	BAT	8	4	[0, 0, 0]	n/a	FR1	3	R1406M
743.587	0.065	754232	REC_WORD_VV	0.065	n/a	<>	-999	4	[0, 0, 0]	n/a	FR1	3	R1406M
743.652	5.224	754297	REC_WORD	5.224	n/a	SKY	2	4	[0, 0, 0]	n/a	FR1	3	R1406M
748.876	12.441	759521	REC_WORD	12.441	n/a	DIVE	-999	4	[0, 0, 0]	n/a	FR1	3	R1406M
761.317	4.062	771961	REC_WORD	4.062	n/a	DOCK	1	4	[0, 0, 0]	n/a	FR1	3	R1406M
765.379	0.249	776023	REC_WORD	0.249	n/a	BRICK	3	4	[0, 0, 0]	n/a	FR1	3	R1406M
765.628	18.737	776277	REC_END	n/a	n/a	n/a	-999	4	[0, 0, 0]	n/a	FR1	3	R1406M
784.365	10.35	795010	COUNTDOWN_START	n/a	n/a	n/a	-999	5	[0, 0, 0]	n/a	FR1	3	R1406M
794.715	0.0	805350	COUNTDOWN_END	n/a	n/a	n/a	-999	5	[0, 0, 0]	n/a	FR1	3	R1406M
794.715	1.933	805369	ENCODING_START	n/a	n/a	n/a	-999	5	[0, 0, 0]	n/a	FR1	3	R1406M
796.648	1.6	807296	WORD	n/a	wordpools/wordpool_long_EN.txt	STEAM	1	5	[0, 0, 0]	n/a	FR1	3	R1406M
798.248	0.817	808898	WORD_OFF	n/a	n/a	STEAM	1	5	[0, 0, 0]	n/a	FR1	3	R1406M
799.065	1.6	809699	WORD	n/a	wordpools/wordpool_long_EN.txt	MOLE	2	5	[0, 0, 0]	n/a	FR1	3	R1406M
800.665	1.0	811302	WORD_OFF	n/a	n/a	MOLE	2	5	[0, 0, 0]	n/a	FR1	3	R1406M
801.665	1.601	812313	WORD	n/a	wordpools/wordpool_long_EN.txt	GIRL	3	5	[0, 0, 0]	n/a	FR1	3	R1406M
803.266	0.766	813915	WORD_OFF	n/a	n/a	GIRL	3	5	[0, 0, 0]	n/a	FR1	3	R1406M
804.032	1.616	814679	WORD	n/a	wordpools/wordpool_long_EN.txt	BUG	4	5	[0, 0, 0]	n/a	FR1	3	R1406M
805.648	0.917	816281	WORD_OFF	n/a	n/a	BUG	4	5	[0, 0, 0]	n/a	FR1	3	R1406M
806.565	1.6	817216	WORD	n/a	wordpools/wordpool_long_EN.txt	RIB	5	5	[0, 0, 0]	n/a	FR1	3	R1406M
808.165	0.867	818799	WORD_OFF	n/a	n/a	RIB	5	5	[0, 0, 0]	n/a	FR1	3	R1406M
809.032	1.6	819677	WORD	n/a	wordpools/wordpool_long_EN.txt	SNAKE	6	5	[0, 0, 0]	n/a	FR1	3	R1406M
810.632	0.866	821279	WORD_OFF	n/a	n/a	SNAKE	6	5	[0, 0, 0]	n/a	FR1	3	R1406M
811.498	1.6	822138	WORD	n/a	wordpools/wordpool_long_EN.txt	FRAME	7	5	[0, 0, 0]	n/a	FR1	3	R1406M
813.098	0.782	823740	WORD_OFF	n/a	n/a	FRAME	7	5	[0, 0, 0]	n/a	FR1	3	R1406M
813.88	1.602	824522	WORD	n/a	wordpools/wordpool_long_EN.txt	GRASS	8	5	[0, 0, 0]	n/a	FR1	3	R1406M
815.482	0.9	826125	WORD_OFF	n/a	n/a	GRASS	8	5	[0, 0, 0]	n/a	FR1	3	R1406M
816.382	1.6	827021	WORD	n/a	wordpools/wordpool_long_EN.txt	JAR	9	5	[0, 0, 0]	n/a	FR1	3	R1406M
817.982	1.0	828624	WORD_OFF	n/a	n/a	JAR	9	5	[0, 0, 0]	n/a	FR1	3	R1406M
818.982	1.616	829616	WORD	n/a	wordpools/wordpool_long_EN.txt	SOUP	10	5	[0, 0, 0]	n/a	FR1	3	R1406M
820.598	0.917	831237	WORD_OFF	n/a	n/a	SOUP	10	5	[0, 0, 0]	n/a	FR1	3	R1406M
821.515	1.617	832153	WORD	n/a	wordpools/wordpool_long_EN.txt	MAIL	11	5	[0, 0, 0]	n/a	FR1	3	R1406M
823.132	0.833	833775	WORD_OFF	n/a	n/a	MAIL	11	5	[0, 0, 0]	n/a	FR1	3	R1406M
823.965	1.6	834614	WORD	n/a	wordpools/wordpool_long_EN.txt	SEAT	12	5	[0, 0, 0]	n/a	FR1	3	R1406M
825.565	0.001	836197	WORD_OFF	n/a	n/a	SEAT	12	5	[0, 0, 0]	n/a	FR1	3	R1406M
825.566	0.001	836207	PROB	0.001	n/a	n/a	-999	5	[7, 4, 2]	13	FR1	3	R1406M
825.567	0.0	836208	START	n/a	n/a	n/a	-999	5	[-999, -999, -999]	n/a	FR1	3	R1406M
825.566	0.001	836216	ENCODING_END	n/a	n/a	n/a	-999	5	[0, 0, 0]	n/a	FR1	3	R1406M
825.567	5.582	836216	DISTRACT_START	n/a	n/a	n/a	-999	5	[0, 0, 0]	n/a	FR1	3	R1406M
831.149	4.533	841789	PROB	4.533	n/a	n/a	-999	5	[8, 3, 1]	12	FR1	3	R1406M
835.682	3.184	846322	PROB	3.184	n/a	n/a	-999	5	[2, 4, 5]	11	FR1	3	R1406M
838.866	5.533	849506	PROB	5.533	n/a	n/a	-999	5	[3, 6, 8]	17	FR1	3	R1406M
844.399	3.649	855039	PROB	3.649	n/a	n/a	-999	5	[2, 7, 1]	10	FR1	3	R1406M
848.048	0.0	858687	STOP	n/a	n/a	n/a	-999	5	[-999, -999, -999]	n/a	FR1	3	R1406M
848.048	2.049	858689	DISTRACT_END	n/a	n/a	n/a	-999	5	[0, 0, 0]	n/a	FR1	3	R1406M
850.097	5.005	860738	REC_START	n/a	n/a	n/a	-999	5	[0, 0, 0]	n/a	FR1	3	R1406M
855.102	1.625	865741	REC_WORD_VV	1.625	n/a	<>	-999	5	[0, 0, 0]	n/a	FR1	3	R1406M
856.727	12.546	867366	REC_WORD	12.546	n/a	SCREAM	-999	5	[0, 0, 0]	n/a	FR1	3	R1406M
869.273	0.959	879911	REC_WORD	0.959	n/a	GIRL	3	5	[0, 0, 0]	n/a	FR1	3	R1406M
870.232	9.464	880870	REC_WORD	9.464	n/a	BUG	4	5	[0, 0, 0]	n/a	FR1	3	R1406M
879.696	0.617	890334	REC_WORD	0.617	n/a	LEAD	-999	5	[0, 0, 0]	n/a	FR1	3	R1406M
880.313	22.069	890948	REC_END	n/a	n/a	n/a	-999	5	[0, 0, 0]	n/a	FR1	3	R1406M
902.382	10.35	913020	COUNTDOWN_START	n/a	n/a	n/a	-999	6	[0, 0, 0]	n/a	FR1	3	R1406M
912.732	0.0	923360	COUNTDOWN_END	n/a	n/a	n/a	-999	6	[0, 0, 0]	n/a	FR1	3	R1406M
912.732	2.0	923379	ENCODING_START	n/a	n/a	n/a	-999	6	[0, 0, 0]	n/a	FR1	3	R1406M
914.732	1.6	925363	WORD	n/a	wordpools/wordpool_long_EN.txt	BANK	1	6	[0, 0, 0]	n/a	FR1	3	R1406M
916.332	0.833	926965	WORD_OFF	n/a	n/a	BANK	1	6	[0, 0, 0]	n/a	FR1	3	R1406M
917.165	1.616	927805	WORD	n/a	wordpools/wordpool_long_EN.txt	TAIL	2	6	[0, 0, 0]	n/a	FR1	3	R1406M
918.781	0.767	929426	WORD_OFF	n/a	n/a	TAIL	2	6	[0, 0, 0]	n/a	FR1	3	R1406M
919.548	1.617	930189	WORD	n/a	wordpools/wordpool_long_EN.txt	TRAY	3	6	[0, 0, 0]	n/a	FR1	3	R1406M
921.165	0.833	931792	WORD_OFF	n/a	n/a	TRAY	3	6	[0, 0, 0]	n/a	FR1	3	R1406M
921.998	1.617	932631	WORD	n/a	wordpools/wordpool_long_EN.txt	MULE	4	6	[0, 0, 0]	n/a	FR1	3	R1406M
923.615	0.933	934253	WORD_OFF	n/a	n/a	MULE	4	6	[0, 0, 0]	n/a	FR1	3	R1406M
924.548	1.6	935187	WORD	n/a	wordpools/wordpool_long_EN.txt	COD	5	6	[0, 0, 0]	n/a	FR1	3	R1406M
926.148	0.784	936790	WORD_OFF	n/a	n/a	COD	5	6	[0, 0, 0]	n/a	FR1	3	R1406M
926.932	1.616	937572	WORD	n/a	wordpools/wordpool_long_EN.txt	KITE	6	6	[0, 0, 0]	n/a	FR1	3	R1406M
928.548	0.867	939193	WORD_OFF	n/a	n/a	KITE	6	6	[0, 0, 0]	n/a	FR1	3	R1406M
929.415	1.6	940052	WORD	n/a	wordpools/wordpool_long_EN.txt	PURSE	7	6	[0, 0, 0]	n/a	FR1	3	R1406M
931.015	0.933	941654	WORD_OFF	n/a	n/a	PURSE	7	6	[0, 0, 0]	n/a	FR1	3	R1406M
931.948	1.617	942589	WORD	n/a	wordpools/wordpool_long_EN.txt	STAIR	8	6	[0, 0, 0]	n/a	FR1	3	R1406M
933.565	0.783	944192	WORD_OFF	n/a	n/a	STAIR	8	6	[0, 0, 0]	n/a	FR1	3	R1406M
934.348	1.6	944993	WORD	n/a	wordpools/wordpool_long_EN.txt	BATH	9	6	[0, 0, 0]	n/a	FR1	3	R1406M
935.948	0.767	946576	WORD_OFF	n/a	n/a	BATH	9	6	[0, 0, 0]	n/a	FR1	3	R1406M
936.715	1.6	947358	WORD	n/a	wordpools/wordpool_long_EN.txt	THRONE	10	6	[0, 0, 0]	n/a	FR1	3	R1406M
938.315	0.816	948942	WORD_OFF	n/a	n/a	THRONE	10	6	[0, 0, 0]	n/a	FR1	3	R1406M
939.131	1.6	949762	WORD	n/a	wordpools/wordpool_long_EN.txt	TENT	11	6	[0, 0, 0]	n/a	FR1	3	R1406M
940.731	0.9	951365	WORD_OFF	n/a	n/a	TENT	11	6	[0, 0, 0]	n/a	FR1	3	R1406M
941.631	1.617	952261	WORD	n/a	wordpools/wordpool_long_EN.txt	CLOWN	12	6	[0, 0, 0]	n/a	FR1	3	R1406M
943.248	0.0	953882	PROB	0.0	n/a	n/a	-999	6	[8, 1, 5]	14	FR1	3	R1406M
943.248	0.001	953883	WORD_OFF	n/a	n/a	CLOWN	12	6	[0, 0, 0]	n/a	FR1	3	R1406M
943.249	0.0	953883	ENCODING_END	n/a	n/a	n/a	-999	6	[0, 0, 0]	n/a	FR1	3	R1406M
943.249	0.0	953883	DISTRACT_START	n/a	n/a	n/a	-999	6	[0, 0, 0]	n/a	FR1	3	R1406M
943.249	5.066	953883	START	n/a	n/a	n/a	-999	6	[-999, -999, -999]	n/a	FR1	3	R1406M
948.315	5.0	958949	PROB	5.0	n/a	n/a	-999	6	[3, 2, 7]	12	FR1	3	R1406M
953.315	6.382	963949	PROB	6.382	n/a	n/a	-999	6	[7, 5, 4]	16	FR1	3	R1406M
959.697	5.167	970330	PROB	5.167	n/a	n/a	-999	6	[6, 1, 1]	8	FR1	3	R1406M
964.864	0.0	975497	DISTRACT_END	n/a	n/a	n/a	-999	6	[0, 0, 0]	n/a	FR1	3	R1406M
964.864	2.1	975497	STOP	n/a	n/a	n/a	-999	6	[-999, -999, -999]	n/a	FR1	3	R1406M
966.964	16.557	977603	REC_START	n/a	n/a	n/a	-999	6	[0, 0, 0]	n/a	FR1	3	R1406M
983.521	6.909	994153	REC_WORD	6.909	n/a	MULE	4	6	[0, 0, 0]	n/a	FR1	3	R1406M
990.43	6.756	1001062	REC_WORD	6.756	n/a	GIRL	-999	6	[0, 0, 0]	n/a	FR1	3	R1406M
997.186	5.963	1007813	REC_END	n/a	n/a	n/a	-999	6	[0, 0, 0]	n/a	FR1	3	R1406M
1003.149	10.35	1013784	COUNTDOWN_START	n/a	n/a	n/a	-999	7	[0, 0, 0]	n/a	FR1	3	R1406M
1013.499	0.0	1024124	COUNTDOWN_END	n/a	n/a	n/a	-999	7	[0, 0, 0]	n/a	FR1	3	R1406M
1013.499	2.149	1024124	ENCODING_START	n/a	n/a	n/a	-999	7	[0, 0, 0]	n/a	FR1	3	R1406M
1015.648	1.6	1026279	WORD	n/a	wordpools/wordpool_long_EN.txt	MARSH	1	7	[0, 0, 0]	n/a	FR1	3	R1406M
1017.248	0.884	1027882	WORD_OFF	n/a	n/a	MARSH	1	7	[0, 0, 0]	n/a	FR1	3	R1406M
1018.132	1.6	1028759	WORD	n/a	wordpools/wordpool_long_EN.txt	EGG	2	7	[0, 0, 0]	n/a	FR1	3	R1406M
1019.732	0.866	1030362	WORD_OFF	n/a	n/a	EGG	2	7	[0, 0, 0]	n/a	FR1	3	R1406M
1020.598	1.617	1031220	WORD	n/a	wordpools/wordpool_long_EN.txt	GOAL	3	7	[0, 0, 0]	n/a	FR1	3	R1406M
1022.215	0.8	1032842	WORD_OFF	n/a	n/a	GOAL	3	7	[0, 0, 0]	n/a	FR1	3	R1406M
1023.015	1.616	1033643	WORD	n/a	wordpools/wordpool_long_EN.txt	BRIDGE	4	7	[0, 0, 0]	n/a	FR1	3	R1406M
1024.631	0.784	1035265	WORD_OFF	n/a	n/a	BRIDGE	4	7	[0, 0, 0]	n/a	FR1	3	R1406M
1025.415	1.6	1036047	WORD	n/a	wordpools/wordpool_long_EN.txt	STRAW	5	7	[0, 0, 0]	n/a	FR1	3	R1406M
1027.015	0.833	1037649	WORD_OFF	n/a	n/a	STRAW	5	7	[0, 0, 0]	n/a	FR1	3	R1406M
1027.848	1.6	1038470	WORD	n/a	wordpools/wordpool_long_EN.txt	STRING	6	7	[0, 0, 0]	n/a	FR1	3	R1406M
1029.448	0.9	1040072	WORD_OFF	n/a	n/a	STRING	6	7	[0, 0, 0]	n/a	FR1	3	R1406M
1030.348	1.6	1040969	WORD	n/a	wordpools/wordpool_long_EN.txt	STORE	7	7	[0, 0, 0]	n/a	FR1	3	R1406M
1031.948	0.817	1042571	WORD_OFF	n/a	n/a	STORE	7	7	[0, 0, 0]	n/a	FR1	3	R1406M
1032.765	1.616	1043391	WORD	n/a	wordpools/wordpool_long_EN.txt	BOX	8	7	[0, 0, 0]	n/a	FR1	3	R1406M
1034.381	0.883	1045013	WORD_OFF	n/a	n/a	BOX	8	7	[0, 0, 0]	n/a	FR1	3	R1406M
1035.264	1.6	1045891	WORD	n/a	wordpools/wordpool_long_EN.txt	CHIEF	9	7	[0, 0, 0]	n/a	FR1	3	R1406M
1036.864	0.934	1047493	WORD_OFF	n/a	n/a	CHIEF	9	7	[0, 0, 0]	n/a	FR1	3	R1406M
1037.798	1.6	1048428	WORD	n/a	wordpools/wordpool_long_EN.txt	SLOPE	10	7	[0, 0, 0]	n/a	FR1	3	R1406M
1039.398	0.983	1050030	WORD_OFF	n/a	n/a	SLOPE	10	7	[0, 0, 0]	n/a	FR1	3	R1406M
1040.381	1.617	1051003	WORD	n/a	wordpools/wordpool_long_EN.txt	FARM	11	7	[0, 0, 0]	n/a	FR1	3	R1406M
1041.998	0.933	1052625	WORD_OFF	n/a	n/a	FARM	11	7	[0, 0, 0]	n/a	FR1	3	R1406M
1042.931	1.6	1053559	WORD	n/a	wordpools/wordpool_long_EN.txt	LOFT	12	7	[0, 0, 0]	n/a	FR1	3	R1406M
1044.531	0.001	1055160	PROB	0.001	n/a	n/a	-999	7	[7, 6, 5]	18	FR1	3	R1406M
1044.532	0.0	1055161	START	n/a	n/a	n/a	-999	7	[-999, -999, -999]	n/a	FR1	3	R1406M
1044.531	0.001	1055162	WORD_OFF	n/a	n/a	LOFT	12	7	[0, 0, 0]	n/a	FR1	3	R1406M
1044.532	0.0	1055162	ENCODING_END	n/a	n/a	n/a	-999	7	[0, 0, 0]	n/a	FR1	3	R1406M
1044.532	5.416	1055162	DISTRACT_START	n/a	n/a	n/a	-999	7	[0, 0, 0]	n/a	FR1	3	R1406M
1049.948	3.951	1060577	PROB	3.951	n/a	n/a	-999	7	[6, 2, 4]	12	FR1	3	R1406M
1053.899	7.1	1064527	PROB	7.1	n/a	n/a	-999	7	[6, 3, 8]	15	FR1	3	R1406M
1060.999	3.832	1071627	PROB	3.832	n/a	n/a	-999	7	[4, 8, 4]	16	FR1	3	R1406M
1064.831	0.0	1075459	STOP	n/a	n/a	n/a	-999	7	[-999, -999, -999]	n/a	FR1	3	R1406M
1064.831	2.05	1075460	DISTRACT_END	n/a	n/a	n/a	-999	7	[0, 0, 0]	n/a	FR1	3	R1406M
1066.881	2.106	1077509	REC_START	n/a	n/a	n/a	-999	7	[0, 0, 0]	n/a	FR1	3	R1406M
1068.987	8.352	1079615	REC_WORD	8.352	n/a	EGG	2	7	[0, 0, 0]	n/a	FR1	3	R1406M
1077.339	2.345	1087966	REC_WORD	2.345	n/a	SPRING	-999	7	[0, 0, 0]	n/a	FR1	3	R1406M
1079.684	14.241	1090311	REC_WORD	14.241	n/a	STRING	6	7	[0, 0, 0]	n/a	FR1	3	R1406M
1093.925	3.168	1104551	REC_WORD	3.168	n/a	DOCTOR	-999	7	[0, 0, 0]	n/a	FR1	3	R1406M
1097.093	9.339	1107719	REC_END	n/a	n/a	n/a	-999	7	[0, 0, 0]	n/a	FR1	3	R1406M
1106.432	10.35	1117066	COUNTDOWN_START	n/a	n/a	n/a	-999	8	[0, 0, 0]	n/a	FR1	3	R1406M
1116.782	0.0	1127406	COUNTDOWN_END	n/a	n/a	n/a	-999	8	[0, 0, 0]	n/a	FR1	3	R1406M
1116.782	2.216	1127406	ENCODING_START	n/a	n/a	n/a	-999	8	[0, 0, 0]	n/a	FR1	3	R1406M
1118.998	1.6	1129619	WORD	n/a	wordpools/wordpool_long_EN.txt	CHILD	1	8	[0, 0, 0]	n/a	FR1	3	R1406M
1120.598	0.866	1131222	WORD_OFF	n/a	n/a	CHILD	1	8	[0, 0, 0]	n/a	FR1	3	R1406M
1121.464	1.6	1132099	WORD	n/a	wordpools/wordpool_long_EN.txt	MOP	2	8	[0, 0, 0]	n/a	FR1	3	R1406M
1123.064	0.95	1133682	WORD_OFF	n/a	n/a	MOP	2	8	[0, 0, 0]	n/a	FR1	3	R1406M
1124.014	1.6	1134636	WORD	n/a	wordpools/wordpool_long_EN.txt	PARK	3	8	[0, 0, 0]	n/a	FR1	3	R1406M
1125.614	1.0	1136239	WORD_OFF	n/a	n/a	PARK	3	8	[0, 0, 0]	n/a	FR1	3	R1406M
1126.614	1.6	1137250	WORD	n/a	wordpools/wordpool_long_EN.txt	CAGE	4	8	[0, 0, 0]	n/a	FR1	3	R1406M
1128.214	0.8	1138833	WORD_OFF	n/a	n/a	CAGE	4	8	[0, 0, 0]	n/a	FR1	3	R1406M
1129.014	1.6	1139634	WORD	n/a	wordpools/wordpool_long_EN.txt	BREAD	5	8	[0, 0, 0]	n/a	FR1	3	R1406M
1130.614	0.967	1141237	WORD_OFF	n/a	n/a	BREAD	5	8	[0, 0, 0]	n/a	FR1	3	R1406M
1131.581	1.6	1142210	WORD	n/a	wordpools/wordpool_long_EN.txt	FLEET	6	8	[0, 0, 0]	n/a	FR1	3	R1406M
1133.181	0.95	1143812	WORD_OFF	n/a	n/a	FLEET	6	8	[0, 0, 0]	n/a	FR1	3	R1406M
1134.131	1.617	1144747	WORD	n/a	wordpools/wordpool_long_EN.txt	SOCK	7	8	[0, 0, 0]	n/a	FR1	3	R1406M
1135.748	0.8	1146369	WORD_OFF	n/a	n/a	SOCK	7	8	[0, 0, 0]	n/a	FR1	3	R1406M
1136.548	1.601	1147170	WORD	n/a	wordpools/wordpool_long_EN.txt	RUG	8	8	[0, 0, 0]	n/a	FR1	3	R1406M
1138.149	0.933	1148772	WORD_OFF	n/a	n/a	RUG	8	8	[0, 0, 0]	n/a	FR1	3	R1406M
1139.082	1.617	1149707	WORD	n/a	wordpools/wordpool_long_EN.txt	SWORD	9	8	[0, 0, 0]	n/a	FR1	3	R1406M
1140.699	0.766	1151329	WORD_OFF	n/a	n/a	SWORD	9	8	[0, 0, 0]	n/a	FR1	3	R1406M
1141.465	1.6	1152092	WORD	n/a	wordpools/wordpool_long_EN.txt	BOOK	10	8	[0, 0, 0]	n/a	FR1	3	R1406M
1143.065	0.783	1153694	WORD_OFF	n/a	n/a	BOOK	10	8	[0, 0, 0]	n/a	FR1	3	R1406M
1143.848	1.6	1154476	WORD	n/a	wordpools/wordpool_long_EN.txt	TIE	11	8	[0, 0, 0]	n/a	FR1	3	R1406M
1145.448	0.8	1156079	WORD_OFF	n/a	n/a	TIE	11	8	[0, 0, 0]	n/a	FR1	3	R1406M
1146.248	1.601	1156880	WORD	n/a	wordpools/wordpool_long_EN.txt	FORT	12	8	[0, 0, 0]	n/a	FR1	3	R1406M
1147.849	0.001	1158472	PROB	0.001	n/a	n/a	-999	8	[4, 3, 7]	14	FR1	3	R1406M
1147.85	0.0	1158473	START	n/a	n/a	n/a	-999	8	[-999, -999, -999]	n/a	FR1	3	R1406M
1147.849	0.001	1158482	WORD_OFF	n/a	n/a	FORT	12	8	[0, 0, 0]	n/a	FR1	3	R1406M
1147.85	0.0	1158482	ENCODING_END	n/a	n/a	n/a	-999	8	[0, 0, 0]	n/a	FR1	3	R1406M
1147.85	5.065	1158482	DISTRACT_START	n/a	n/a	n/a	-999	8	[0, 0, 0]	n/a	FR1	3	R1406M
1152.915	3.634	1163538	PROB	3.634	n/a	n/a	-999	8	[3, 1, 2]	5	FR1	3	R1406M
1156.549	6.1	1167172	PROB	6.1	n/a	n/a	-999	8	[8, 7, 4]	19	FR1	3	R1406M
1162.649	6.349	1173272	PROB	6.349	n/a	n/a	-999	8	[8, 7, 2]	16	FR1	3	R1406M
1168.998	0.0	1179620	DISTRACT_END	n/a	n/a	n/a	-999	8	[0, 0, 0]	n/a	FR1	3	R1406M
1168.998	2.184	1179620	STOP	n/a	n/a	n/a	-999	8	[-999, -999, -999]	n/a	FR1	3	R1406M
1171.182	3.446	1181802	REC_START	n/a	n/a	n/a	-999	8	[0, 0, 0]	n/a	FR1	3	R1406M
1174.628	6.407	1185250	REC_WORD	6.407	n/a	CAGE	4	8	[0, 0, 0]	n/a	FR1	3	R1406M
1181.035	4.207	1191657	REC_WORD	4.207	n/a	BOX	-999	8	[0, 0, 0]	n/a	FR1	3	R1406M
1185.242	5.28	1195864	REC_WORD	5.28	n/a	FORT	12	8	[0, 0, 0]	n/a	FR1	3	R1406M
1190.522	7.078	1201143	REC_WORD	7.078	n/a	BALL	-999	8	[0, 0, 0]	n/a	FR1	3	R1406M
1197.6	3.814	1208221	REC_WORD	3.814	n/a	BREAD	5	8	[0, 0, 0]	n/a	FR1	3	R1406M
1201.414	7.568	1212031	REC_END	n/a	n/a	n/a	-999	8	[0, 0, 0]	n/a	FR1	3	R1406M
1208.982	10.35	1219605	COUNTDOWN_START	n/a	n/a	n/a	-999	9	[0, 0, 0]	n/a	FR1	3	R1406M
1219.332	0.0	1229944	COUNTDOWN_END	n/a	n/a	n/a	-999	9	[0, 0, 0]	n/a	FR1	3	R1406M
1219.332	2.283	1229964	ENCODING_START	n/a	n/a	n/a	-999	9	[0, 0, 0]	n/a	FR1	3	R1406M
1221.615	1.616	1232234	WORD	n/a	wordpools/wordpool_long_EN.txt	DUST	1	9	[0, 0, 0]	n/a	FR1	3	R1406M
1223.231	0.818	1233855	WORD_OFF	n/a	n/a	DUST	1	9	[0, 0, 0]	n/a	FR1	3	R1406M
1224.049	1.599	1234676	WORD	n/a	wordpools/wordpool_long_EN.txt	PET	2	9	[0, 0, 0]	n/a	FR1	3	R1406M
1225.648	0.783	1236259	WORD_OFF	n/a	n/a	PET	2	9	[0, 0, 0]	n/a	FR1	3	R1406M
1226.431	1.601	1237060	WORD	n/a	wordpools/wordpool_long_EN.txt	MUG	3	9	[0, 0, 0]	n/a	FR1	3	R1406M
1228.032	0.833	1238644	WORD_OFF	n/a	n/a	MUG	3	9	[0, 0, 0]	n/a	FR1	3	R1406M
1228.865	1.616	1239483	WORD	n/a	wordpools/wordpool_long_EN.txt	CLOTH	4	9	[0, 0, 0]	n/a	FR1	3	R1406M
1230.481	0.834	1241104	WORD_OFF	n/a	n/a	CLOTH	4	9	[0, 0, 0]	n/a	FR1	3	R1406M
1231.315	1.6	1241944	WORD	n/a	wordpools/wordpool_long_EN.txt	ROOT	5	9	[0, 0, 0]	n/a	FR1	3	R1406M
1232.915	0.933	1243527	WORD_OFF	n/a	n/a	ROOT	5	9	[0, 0, 0]	n/a	FR1	3	R1406M
1233.848	1.6	1244462	WORD	n/a	wordpools/wordpool_long_EN.txt	SPACE	6	9	[0, 0, 0]	n/a	FR1	3	R1406M
1235.448	0.967	1246064	WORD_OFF	n/a	n/a	SPACE	6	9	[0, 0, 0]	n/a	FR1	3	R1406M
1236.415	1.617	1247037	WORD	n/a	wordpools/wordpool_long_EN.txt	MAZE	7	9	[0, 0, 0]	n/a	FR1	3	R1406M
1238.032	0.85	1248659	WORD_OFF	n/a	n/a	MAZE	7	9	[0, 0, 0]	n/a	FR1	3	R1406M
1238.882	1.616	1249498	WORD	n/a	wordpools/wordpool_long_EN.txt	PLATE	8	9	[0, 0, 0]	n/a	FR1	3	R1406M
1240.498	0.767	1251120	WORD_OFF	n/a	n/a	PLATE	8	9	[0, 0, 0]	n/a	FR1	3	R1406M
1241.265	1.6	1251883	WORD	n/a	wordpools/wordpool_long_EN.txt	NET	9	9	[0, 0, 0]	n/a	FR1	3	R1406M
1242.865	0.95	1253485	WORD_OFF	n/a	n/a	NET	9	9	[0, 0, 0]	n/a	FR1	3	R1406M
1243.815	1.617	1254439	WORD	n/a	wordpools/wordpool_long_EN.txt	GLOBE	10	9	[0, 0, 0]	n/a	FR1	3	R1406M
1245.432	0.833	1256042	WORD_OFF	n/a	n/a	GLOBE	10	9	[0, 0, 0]	n/a	FR1	3	R1406M
1246.265	1.6	1256881	WORD	n/a	wordpools/wordpool_long_EN.txt	GRILL	11	9	[0, 0, 0]	n/a	FR1	3	R1406M
1247.865	0.916	1258484	WORD_OFF	n/a	n/a	GRILL	11	9	[0, 0, 0]	n/a	FR1	3	R1406M
1248.781	1.601	1259399	WORD	n/a	wordpools/wordpool_long_EN.txt	GIFT	12	9	[0, 0, 0]	n/a	FR1	3	R1406M
1250.382	0.0	1261000	START	n/a	n/a	n/a	-999	9	[-999, -999, -999]	n/a	FR1	3	R1406M
1250.382	0.0	1261000	PROB	0.0	n/a	n/a	-999	9	[7, 2, 8]	17	FR1	3	R1406M
1250.381	0.001	1261002	WORD_OFF	n/a	n/a	GIFT	12	9	[0, 0, 0]	n/a	FR1	3	R1406M
1250.382	0.0	1261002	ENCODING_END	n/a	n/a	n/a	-999	9	[0, 0, 0]	n/a	FR1	3	R1406M
1250.382	4.217	1261002	DISTRACT_START	n/a	n/a	n/a	-999	9	[0, 0, 0]	n/a	FR1	3	R1406M
1254.599	4.184	1265217	PROB	4.184	n/a	n/a	-999	9	[3, 7, 6]	16	FR1	3	R1406M
1258.783	2.583	1269401	PROB	2.583	n/a	n/a	-999	9	[1, 7, 3]	11	FR1	3	R1406M
1261.366	2.733	1271983	PROB	2.733	n/a	n/a	-999	9	[5, 5, 8]	18	FR1	3	R1406M
1264.099	4.033	1274716	PROB	4.033	n/a	n/a	-999	9	[7, 3, 8]	18	FR1	3	R1406M
1268.132	4.233	1278749	PROB	4.233	n/a	n/a	-999	9	[3, 7, 4]	14	FR1	3	R1406M
1272.365	0.0	1282978	DISTRACT_END	n/a	n/a	n/a	-999	9	[0, 0, 0]	n/a	FR1	3	R1406M
1272.365	2.166	1282982	STOP	n/a	n/a	n/a	-999	9	[-999, -999, -999]	n/a	FR1	3	R1406M
1274.531	0.689	1285142	REC_START	n/a	n/a	n/a	-999	9	[0, 0, 0]	n/a	FR1	3	R1406M
1275.22	15.543	1285837	REC_WORD	15.543	n/a	DUST	1	9	[0, 0, 0]	n/a	FR1	3	R1406M
1290.763	4.65	1301379	REC_WORD	4.65	n/a	DART	-999	9	[0, 0, 0]	n/a	FR1	3	R1406M
1295.413	9.333	1306029	REC_WORD	9.333	n/a	WEED	-999	9	[0, 0, 0]	n/a	FR1	3	R1406M
1304.746	11.768	1315352	REC_END	n/a	n/a	n/a	-999	9	[0, 0, 0]	n/a	FR1	3	R1406M
1316.514	10.352	1327122	COUNTDOWN_START	n/a	n/a	n/a	-999	10	[0, 0, 0]	n/a	FR1	3	R1406M
1326.866	0.0	1337481	COUNTDOWN_END	n/a	n/a	n/a	-999	10	[0, 0, 0]	n/a	FR1	3	R1406M
1326.866	2.182	1337481	ENCODING_START	n/a	n/a	n/a	-999	10	[0, 0, 0]	n/a	FR1	3	R1406M
1329.048	1.617	1339656	WORD	n/a	wordpools/wordpool_long_EN.txt	TOOTH	1	10	[0, 0, 0]	n/a	FR1	3	R1406M
1330.665	0.95	1341277	WORD_OFF	n/a	n/a	TOOTH	1	10	[0, 0, 0]	n/a	FR1	3	R1406M
1331.615	1.6	1342231	WORD	n/a	wordpools/wordpool_long_EN.txt	DART	2	10	[0, 0, 0]	n/a	FR1	3	R1406M
1333.215	0.933	1343834	WORD_OFF	n/a	n/a	DART	2	10	[0, 0, 0]	n/a	FR1	3	R1406M
1334.148	1.617	1344768	WORD	n/a	wordpools/wordpool_long_EN.txt	WEED	3	10	[0, 0, 0]	n/a	FR1	3	R1406M
1335.765	0.867	1346371	WORD_OFF	n/a	n/a	WEED	3	10	[0, 0, 0]	n/a	FR1	3	R1406M
1336.632	1.6	1347248	WORD	n/a	wordpools/wordpool_long_EN.txt	POOL	4	10	[0, 0, 0]	n/a	FR1	3	R1406M
1338.232	0.882	1348851	WORD_OFF	n/a	n/a	POOL	4	10	[0, 0, 0]	n/a	FR1	3	R1406M
1339.114	1.601	1349728	WORD	n/a	wordpools/wordpool_long_EN.txt	HOUSE	5	10	[0, 0, 0]	n/a	FR1	3	R1406M
1340.715	0.966	1351331	WORD_OFF	n/a	n/a	HOUSE	5	10	[0, 0, 0]	n/a	FR1	3	R1406M
1341.681	1.601	1352285	WORD	n/a	wordpools/wordpool_long_EN.txt	TRASH	6	10	[0, 0, 0]	n/a	FR1	3	R1406M
1343.282	0.9	1353887	WORD_OFF	n/a	n/a	TRASH	6	10	[0, 0, 0]	n/a	FR1	3	R1406M
1344.182	1.6	1354803	WORD	n/a	wordpools/wordpool_long_EN.txt	CART	7	10	[0, 0, 0]	n/a	FR1	3	R1406M
1345.782	0.833	1356386	WORD_OFF	n/a	n/a	CART	7	10	[0, 0, 0]	n/a	FR1	3	R1406M
1346.615	1.617	1357226	WORD	n/a	wordpools/wordpool_long_EN.txt	BLADE	8	10	[0, 0, 0]	n/a	FR1	3	R1406M
1348.232	1.0	1358847	WORD_OFF	n/a	n/a	BLADE	8	10	[0, 0, 0]	n/a	FR1	3	R1406M
1349.232	1.6	1359839	WORD	n/a	wordpools/wordpool_long_EN.txt	CRANE	9	10	[0, 0, 0]	n/a	FR1	3	R1406M
1350.832	0.899	1361442	WORD_OFF	n/a	n/a	CRANE	9	10	[0, 0, 0]	n/a	FR1	3	R1406M
1351.731	1.601	1362338	WORD	n/a	wordpools/wordpool_long_EN.txt	WOOD	10	10	[0, 0, 0]	n/a	FR1	3	R1406M
1353.332	0.833	1363941	WORD_OFF	n/a	n/a	WOOD	10	10	[0, 0, 0]	n/a	FR1	3	R1406M
1354.165	1.6	1364780	WORD	n/a	wordpools/wordpool_long_EN.txt	SLEEVE	11	10	[0, 0, 0]	n/a	FR1	3	R1406M
1355.765	0.916	1366382	WORD_OFF	n/a	n/a	SLEEVE	11	10	[0, 0, 0]	n/a	FR1	3	R1406M
1356.681	1.601	1367298	WORD	n/a	wordpools/wordpool_long_EN.txt	STORM	12	10	[0, 0, 0]	n/a	FR1	3	R1406M
1358.282	0.001	1368894	PROB	0.001	n/a	n/a	-999	10	[2, 8, 8]	18	FR1	3	R1406M
1358.283	0.0	1368895	START	n/a	n/a	n/a	-999	10	[-999, -999, -999]	n/a	FR1	3	R1406M
1358.281	0.002	1368901	WORD_OFF	n/a	n/a	STORM	12	10	[0, 0, 0]	n/a	FR1	3	R1406M
1358.283	0.0	1368901	ENCODING_END	n/a	n/a	n/a	-999	10	[0, 0, 0]	n/a	FR1	3	R1406M
1358.283	4.316	1368901	DISTRACT_START	n/a	n/a	n/a	-999	10	[0, 0, 0]	n/a	FR1	3	R1406M
1362.599	4.215	1373211	PROB	4.215	n/a	n/a	-999	10	[3, 2, 3]	8	FR1	3	R1406M
1366.814	5.169	1377426	PROB	5.169	n/a	n/a	-999	10	[4, 2, 5]	11	FR1	3	R1406M
1371.983	3.265	1382595	PROB	3.265	n/a	n/a	-999	10	[4, 4, 2]	10	FR1	3	R1406M
1375.248	5.016	1385859	PROB	5.016	n/a	n/a	-999	10	[4, 7, 6]	17	FR1	3	R1406M
1380.264	0.0	1390875	STOP	n/a	n/a	n/a	-999	10	[-999, -999, -999]	n/a	FR1	3	R1406M
1380.264	2.083	1390877	DISTRACT_END	n/a	n/a	n/a	-999	10	[0, 0, 0]	n/a	FR1	3	R1406M
1382.347	3.97	1392965	REC_START	n/a	n/a	n/a	-999	10	[0, 0, 0]	n/a	FR1	3	R1406M
1386.317	5.097	1396928	REC_WORD	5.097	n/a	TOOL	-999	10	[0, 0, 0]	n/a	FR1	3	R1406M
1391.414	8.645	1402025	REC_WORD	8.645	n/a	TRASH	6	10	[0, 0, 0]	n/a	FR1	3	R1406M
1400.059	7.383	1410669	REC_WORD	7.383	n/a	BAG	-999	10	[0, 0, 0]	n/a	FR1	3	R1406M
1407.442	2.828	1418052	REC_WORD	2.828	n/a	BOOK	-999	10	[0, 0, 0]	n/a	FR1	3	R1406M
1410.27	2.294	1420880	REC_WORD	2.294	n/a	CAMERA	-999	10	[0, 0, 0]	n/a	FR1	3	R1406M
1412.564	22.217	1423174	REC_END	n/a	n/a	n/a	-999	10	[0, 0, 0]	n/a	FR1	3	R1406M
1434.781	10.351	1445399	COUNTDOWN_START	n/a	n/a	n/a	-999	11	[0, 0, 0]	n/a	FR1	3	R1406M
1445.132	0.0	1455739	COUNTDOWN_END	n/a	n/a	n/a	-999	11	[0, 0, 0]	n/a	FR1	3	R1406M
1445.132	2.099	1455739	ENCODING_START	n/a	n/a	n/a	-999	11	[0, 0, 0]	n/a	FR1	3	R1406M
1447.231	1.6	1457837	WORD	n/a	wordpools/wordpool_long_EN.txt	FROG	1	11	[0, 0, 0]	n/a	FR1	3	R1406M
1448.831	0.8	1459440	WORD_OFF	n/a	n/a	FROG	1	11	[0, 0, 0]	n/a	FR1	3	R1406M
1449.631	1.6	1460241	WORD	n/a	wordpools/wordpool_long_EN.txt	HUT	2	11	[0, 0, 0]	n/a	FR1	3	R1406M
1451.231	0.883	1461843	WORD_OFF	n/a	n/a	HUT	2	11	[0, 0, 0]	n/a	FR1	3	R1406M
1452.114	1.6	1462721	WORD	n/a	wordpools/wordpool_long_EN.txt	HOLE	3	11	[0, 0, 0]	n/a	FR1	3	R1406M
1453.714	0.917	1464323	WORD_OFF	n/a	n/a	HOLE	3	11	[0, 0, 0]	n/a	FR1	3	R1406M
1454.631	1.6	1465239	WORD	n/a	wordpools/wordpool_long_EN.txt	MASK	4	11	[0, 0, 0]	n/a	FR1	3	R1406M
1456.231	0.817	1466841	WORD_OFF	n/a	n/a	MASK	4	11	[0, 0, 0]	n/a	FR1	3	R1406M
1457.048	1.6	1467662	WORD	n/a	wordpools/wordpool_long_EN.txt	INK	5	11	[0, 0, 0]	n/a	FR1	3	R1406M
1458.648	0.9	1469245	WORD_OFF	n/a	n/a	INK	5	11	[0, 0, 0]	n/a	FR1	3	R1406M
1459.548	1.616	1470161	WORD	n/a	wordpools/wordpool_long_EN.txt	BRUSH	6	11	[0, 0, 0]	n/a	FR1	3	R1406M
1461.164	0.883	1471763	WORD_OFF	n/a	n/a	BRUSH	6	11	[0, 0, 0]	n/a	FR1	3	R1406M
1462.047	1.617	1472660	WORD	n/a	wordpools/wordpool_long_EN.txt	BLUSH	7	11	[0, 0, 0]	n/a	FR1	3	R1406M
1463.664	0.9	1474262	WORD_OFF	n/a	n/a	BLUSH	7	11	[0, 0, 0]	n/a	FR1	3	R1406M
1464.564	1.617	1475178	WORD	n/a	wordpools/wordpool_long_EN.txt	PERCH	8	11	[0, 0, 0]	n/a	FR1	3	R1406M
1466.181	0.967	1476780	WORD_OFF	n/a	n/a	PERCH	8	11	[0, 0, 0]	n/a	FR1	3	R1406M
1467.148	1.6	1477753	WORD	n/a	wordpools/wordpool_long_EN.txt	SCOTCH	9	11	[0, 0, 0]	n/a	FR1	3	R1406M
1468.748	0.95	1479356	WORD_OFF	n/a	n/a	SCOTCH	9	11	[0, 0, 0]	n/a	FR1	3	R1406M
1469.698	1.617	1480310	WORD	n/a	wordpools/wordpool_long_EN.txt	TOOL	10	11	[0, 0, 0]	n/a	FR1	3	R1406M
1471.315	0.817	1481931	WORD_OFF	n/a	n/a	TOOL	10	11	[0, 0, 0]	n/a	FR1	3	R1406M
1472.132	1.6	1482732	WORD	n/a	wordpools/wordpool_long_EN.txt	ROPE	11	11	[0, 0, 0]	n/a	FR1	3	R1406M
1473.732	0.917	1484335	WORD_OFF	n/a	n/a	ROPE	11	11	[0, 0, 0]	n/a	FR1	3	R1406M
1474.649	1.6	1485251	WORD	n/a	wordpools/wordpool_long_EN.txt	FRUIT	12	11	[0, 0, 0]	n/a	FR1	3	R1406M
1476.249	0.001	1486853	WORD_OFF	n/a	n/a	FRUIT	12	11	[0, 0, 0]	n/a	FR1	3	R1406M
1476.25	0.008	1486856	PROB	0.008	n/a	n/a	-999	11	[5, 7, 2]	14	FR1	3	R1406M
1476.258	0.0	1486864	START	n/a	n/a	n/a	-999	11	[-999, -999, -999]	n/a	FR1	3	R1406M
1476.258	0.0	1486872	ENCODING_END	n/a	n/a	n/a	-999	11	[0, 0, 0]	n/a	FR1	3	R1406M
1476.258	6.24	1486872	DISTRACT_START	n/a	n/a	n/a	-999	11	[0, 0, 0]	n/a	FR1	3	R1406M
1482.498	6.467	1493104	PROB	6.467	n/a	n/a	-999	11	[8, 6, 6]	20	FR1	3	R1406M
1488.965	8.15	1499570	PROB	8.15	n/a	n/a	-999	11	[5, 4, 3]	12	FR1	3	R1406M
1497.115	0.0	1507720	STOP	n/a	n/a	n/a	-999	11	[-999, -999, -999]	n/a	FR1	3	R1406M
1497.115	2.4	1507723	DISTRACT_END	n/a	n/a	n/a	-999	11	[0, 0, 0]	n/a	FR1	3	R1406M
1499.515	3.899	1510116	REC_START	n/a	n/a	n/a	-999	11	[0, 0, 0]	n/a	FR1	3	R1406M
1503.414	4.66	1514019	REC_WORD	4.66	n/a	TOOL	10	11	[0, 0, 0]	n/a	FR1	3	R1406M
1508.074	3.313	1518678	REC_WORD	3.313	n/a	MOLE	-999	11	[0, 0, 0]	n/a	FR1	3	R1406M
1511.387	1.939	1521991	REC_WORD	1.939	n/a	KIT	-999	11	[0, 0, 0]	n/a	FR1	3	R1406M
1513.326	5.547	1523930	REC_WORD	5.547	n/a	BOX	-999	11	[0, 0, 0]	n/a	FR1	3	R1406M
1518.873	8.053	1529477	REC_WORD	8.053	n/a	PERCH	8	11	[0, 0, 0]	n/a	FR1	3	R1406M
1526.926	2.806	1537529	REC_WORD	2.806	n/a	STRIPE	-999	11	[0, 0, 0]	n/a	FR1	3	R1406M
1529.732	15.066	1540345	REC_END	n/a	n/a	n/a	-999	11	[0, 0, 0]	n/a	FR1	3	R1406M
1544.798	10.35	1555396	COUNTDOWN_START	n/a	n/a	n/a	-999	12	[0, 0, 0]	n/a	FR1	3	R1406M
1555.148	0.0	1565755	COUNTDOWN_END	n/a	n/a	n/a	-999	12	[0, 0, 0]	n/a	FR1	3	R1406M
1555.148	2.15	1565755	ENCODING_START	n/a	n/a	n/a	-999	12	[0, 0, 0]	n/a	FR1	3	R1406M
1557.298	1.617	1567892	WORD	n/a	wordpools/wordpool_long_EN.txt	SALT	1	12	[0, 0, 0]	n/a	FR1	3	R1406M
1558.915	0.767	1569513	WORD_OFF	n/a	n/a	SALT	1	12	[0, 0, 0]	n/a	FR1	3	R1406M
1559.682	1.6	1570276	WORD	n/a	wordpools/wordpool_long_EN.txt	RAT	2	12	[0, 0, 0]	n/a	FR1	3	R1406M
1561.282	0.95	1571879	WORD_OFF	n/a	n/a	RAT	2	12	[0, 0, 0]	n/a	FR1	3	R1406M
1562.232	1.6	1572833	WORD	n/a	wordpools/wordpool_long_EN.txt	CUBE	3	12	[0, 0, 0]	n/a	FR1	3	R1406M
1563.832	0.933	1574435	WORD_OFF	n/a	n/a	CUBE	3	12	[0, 0, 0]	n/a	FR1	3	R1406M
1564.765	1.6	1575370	WORD	n/a	wordpools/wordpool_long_EN.txt	CROWN	4	12	[0, 0, 0]	n/a	FR1	3	R1406M
1566.365	0.833	1576972	WORD_OFF	n/a	n/a	CROWN	4	12	[0, 0, 0]	n/a	FR1	3	R1406M
1567.198	1.6	1577793	WORD	n/a	wordpools/wordpool_long_EN.txt	BEAN	5	12	[0, 0, 0]	n/a	FR1	3	R1406M
1568.798	0.9	1579395	WORD_OFF	n/a	n/a	BEAN	5	12	[0, 0, 0]	n/a	FR1	3	R1406M
1569.698	1.6	1580292	WORD	n/a	wordpools/wordpool_long_EN.txt	RAIL	6	12	[0, 0, 0]	n/a	FR1	3	R1406M
1571.298	0.85	1581894	WORD_OFF	n/a	n/a	RAIL	6	12	[0, 0, 0]	n/a	FR1	3	R1406M
1572.148	1.6	1582753	WORD	n/a	wordpools/wordpool_long_EN.txt	GREASE	7	12	[0, 0, 0]	n/a	FR1	3	R1406M
1573.748	0.817	1584355	WORD_OFF	n/a	n/a	GREASE	7	12	[0, 0, 0]	n/a	FR1	3	R1406M
1574.565	1.617	1585175	WORD	n/a	wordpools/wordpool_long_EN.txt	WING	8	12	[0, 0, 0]	n/a	FR1	3	R1406M
1576.182	0.983	1586778	WORD_OFF	n/a	n/a	WING	8	12	[0, 0, 0]	n/a	FR1	3	R1406M
1577.165	1.616	1587770	WORD	n/a	wordpools/wordpool_long_EN.txt	ICE	9	12	[0, 0, 0]	n/a	FR1	3	R1406M
1578.781	0.884	1589391	WORD_OFF	n/a	n/a	ICE	9	12	[0, 0, 0]	n/a	FR1	3	R1406M
1579.665	1.6	1590269	WORD	n/a	wordpools/wordpool_long_EN.txt	DRINK	10	12	[0, 0, 0]	n/a	FR1	3	R1406M
1581.265	0.783	1591871	WORD_OFF	n/a	n/a	DRINK	10	12	[0, 0, 0]	n/a	FR1	3	R1406M
1582.048	1.6	1592654	WORD	n/a	wordpools/wordpool_long_EN.txt	PIT	11	12	[0, 0, 0]	n/a	FR1	3	R1406M
1583.648	0.849	1594256	WORD_OFF	n/a	n/a	PIT	11	12	[0, 0, 0]	n/a	FR1	3	R1406M
1584.497	1.601	1595095	WORD	n/a	wordpools/wordpool_long_EN.txt	LEAF	12	12	[0, 0, 0]	n/a	FR1	3	R1406M
1586.098	0.002	1596698	WORD_OFF	n/a	n/a	LEAF	12	12	[0, 0, 0]	n/a	FR1	3	R1406M
1586.1	0.0	1596698	ENCODING_END	n/a	n/a	n/a	-999	12	[0, 0, 0]	n/a	FR1	3	R1406M
1586.1	0.0	1596698	DISTRACT_START	n/a	n/a	n/a	-999	12	[0, 0, 0]	n/a	FR1	3	R1406M
1586.099	0.001	1596699	PROB	0.001	n/a	n/a	-999	12	[3, 3, 3]	9	FR1	3	R1406M
1586.1	2.749	1596700	START	n/a	n/a	n/a	-999	12	[-999, -999, -999]	n/a	FR1	3	R1406M
1588.849	3.35	1599449	PROB	3.35	n/a	n/a	-999	12	[4, 1, 2]	7	FR1	3	R1406M
1592.199	8.116	1602799	PROB	8.116	n/a	n/a	-999	12	[8, 6, 5]	20	FR1	3	R1406M
1600.315	3.15	1610914	PROB	3.15	n/a	n/a	-999	12	[5, 3, 1]	9	FR1	3	R1406M
1603.465	4.233	1614064	PROB	4.233	n/a	n/a	-999	12	[5, 6, 5]	16	FR1	3	R1406M
1607.698	0.0	1618293	DISTRACT_END	n/a	n/a	n/a	-999	12	[0, 0, 0]	n/a	FR1	3	R1406M
1607.698	2.4	1618297	STOP	n/a	n/a	n/a	-999	12	[-999, -999, -999]	n/a	FR1	3	R1406M
1610.098	12.067	1620705	REC_START	n/a	n/a	n/a	-999	12	[0, 0, 0]	n/a	FR1	3	R1406M
1622.165	5.894	1632763	REC_WORD	5.894	n/a	MULE	-999	12	[0, 0, 0]	n/a	FR1	3	R1406M
1628.059	3.27	1638657	REC_WORD	3.27	n/a	BREAD	-999	12	[0, 0, 0]	n/a	FR1	3	R1406M
1631.329	4.22	1641927	REC_WORD	4.22	n/a	CORNER	-999	12	[0, 0, 0]	n/a	FR1	3	R1406M
1635.549	3.405	1646147	REC_WORD	3.405	n/a	SHELF	-999	12	[0, 0, 0]	n/a	FR1	3	R1406M
1638.954	1.339	1649551	REC_WORD	1.339	n/a	STRING	-999	12	[0, 0, 0]	n/a	FR1	3	R1406M
1640.293	0.0	1650895	REC_END	n/a	n/a	n/a	-999	12	[0, 0, 0]	n/a	FR1	3	R1406M
