onset	duration	sample	trial_type	response_time	stim_file	item_name	serialpos	list	test	answer	experiment	session	subject
0.0	0.0	46411	INSTRUCT_START	n/a	n/a	n/a	-999	-999	[0, 0, 0]	n/a	FR1	2	R1189M
0.0	11.019	46411	INSTRUCT_END	n/a	n/a	n/a	-999	-999	[0, 0, 0]	n/a	FR1	2	R1189M
11.019	0.0	57429	SESS_START	n/a	n/a	n/a	-999	-999	[0, 0, 0]	n/a	FR1	2	R1189M
11.019	13.001	57429	MIC_TEST	n/a	n/a	n/a	-999	-999	[0, 0, 0]	n/a	FR1	2	R1189M
24.02	2.834	70429	PRACTICE_TRIAL	n/a	n/a	n/a	-999	-1	[0, 0, 0]	n/a	FR1	2	R1189M
26.854	10.428	73263	COUNTDOWN_START	n/a	n/a	n/a	-999	-1	[0, 0, 0]	n/a	FR1	2	R1189M
37.282	0.008	83691	COUNTDOWN_END	n/a	n/a	n/a	-999	-1	[0, 0, 0]	n/a	FR1	2	R1189M
37.29	1.617	83699	PRACTICE_ORIENT	n/a	n/a	n/a	-999	-1	[0, 0, 0]	n/a	FR1	2	R1189M
38.907	2.2	85316	PRACTICE_ORIENT_OFF	n/a	n/a	n/a	-999	-1	[0, 0, 0]	n/a	FR1	2	R1189M
41.107	1.616	87515	PRACTICE_WORD	n/a	n/a	FLOOD	1	-1	[0, 0, 0]	n/a	FR1	2	R1189M
42.723	0.984	89131	PRACTICE_WORD_OFF	n/a	n/a	FLOOD	-999	-1	[0, 0, 0]	n/a	FR1	2	R1189M
43.707	1.617	90115	PRACTICE_WORD	n/a	n/a	TONGUE	2	-1	[0, 0, 0]	n/a	FR1	2	R1189M
45.324	0.851	91732	PRACTICE_WORD_OFF	n/a	n/a	TONGUE	-999	-1	[0, 0, 0]	n/a	FR1	2	R1189M
46.175	1.617	92583	PRACTICE_WORD	n/a	n/a	BEAM	3	-1	[0, 0, 0]	n/a	FR1	2	R1189M
47.792	1.0	94200	PRACTICE_WORD_OFF	n/a	n/a	BEAM	-999	-1	[0, 0, 0]	n/a	FR1	2	R1189M
48.792	1.616	95200	PRACTICE_WORD	n/a	n/a	CAMEL	4	-1	[0, 0, 0]	n/a	FR1	2	R1189M
50.408	0.868	96816	PRACTICE_WORD_OFF	n/a	n/a	CAMEL	-999	-1	[0, 0, 0]	n/a	FR1	2	R1189M
51.276	1.617	97684	PRACTICE_WORD	n/a	n/a	RING	5	-1	[0, 0, 0]	n/a	FR1	2	R1189M
52.893	0.917	99301	PRACTICE_WORD_OFF	n/a	n/a	RING	-999	-1	[0, 0, 0]	n/a	FR1	2	R1189M
53.81	1.616	100218	PRACTICE_WORD	n/a	n/a	RHINO	6	-1	[0, 0, 0]	n/a	FR1	2	R1189M
55.426	0.817	101834	PRACTICE_WORD_OFF	n/a	n/a	RHINO	-999	-1	[0, 0, 0]	n/a	FR1	2	R1189M
56.243	1.601	102651	PRACTICE_WORD	n/a	n/a	CHEST	7	-1	[0, 0, 0]	n/a	FR1	2	R1189M
57.844	0.782	104251	PRACTICE_WORD_OFF	n/a	n/a	CHEST	-999	-1	[0, 0, 0]	n/a	FR1	2	R1189M
58.626	1.618	105033	PRACTICE_WORD	n/a	n/a	WATCH	8	-1	[0, 0, 0]	n/a	FR1	2	R1189M
60.244	0.851	106651	PRACTICE_WORD_OFF	n/a	n/a	WATCH	-999	-1	[0, 0, 0]	n/a	FR1	2	R1189M
61.095	1.616	107502	PRACTICE_WORD	n/a	n/a	ATTIC	9	-1	[0, 0, 0]	n/a	FR1	2	R1189M
62.711	0.783	109118	PRACTICE_WORD_OFF	n/a	n/a	ATTIC	-999	-1	[0, 0, 0]	n/a	FR1	2	R1189M
63.494	1.618	109901	PRACTICE_WORD	n/a	n/a	COTTON	10	-1	[0, 0, 0]	n/a	FR1	2	R1189M
65.112	0.834	111519	PRACTICE_WORD_OFF	n/a	n/a	COTTON	-999	-1	[0, 0, 0]	n/a	FR1	2	R1189M
65.946	1.616	112353	PRACTICE_WORD	n/a	n/a	WAGON	11	-1	[0, 0, 0]	n/a	FR1	2	R1189M
67.562	0.883	113969	PRACTICE_WORD_OFF	n/a	n/a	WAGON	-999	-1	[0, 0, 0]	n/a	FR1	2	R1189M
68.445	1.618	114852	PRACTICE_WORD	n/a	n/a	IRON	12	-1	[0, 0, 0]	n/a	FR1	2	R1189M
70.063	0.0	116470	PRACTICE_WORD_OFF	n/a	n/a	IRON	-999	-1	[0, 0, 0]	n/a	FR1	2	R1189M
70.063	0.0	116470	DISTRACT_START	n/a	n/a	n/a	-999	-1	[0, 0, 0]	n/a	FR1	2	R1189M
70.063	0.017	116470	START	n/a	n/a	n/a	-999	-1	[-999, -999, -999]	n/a	FR1	2	R1189M
70.08	5.967	116487	PROB	5.967	n/a	n/a	-999	-1	[5, 4, 3]	12	FR1	2	R1189M
76.047	3.901	122453	PROB	3.901	n/a	n/a	-999	-1	[8, 8, 8]	24	FR1	2	R1189M
79.948	2.533	126354	PROB	2.533	n/a	n/a	-999	-1	[3, 1, 6]	10	FR1	2	R1189M
82.481	3.752	128887	PROB	3.752	n/a	n/a	-999	-1	[9, 7, 2]	18	FR1	2	R1189M
86.233	2.684	132639	PROB	2.684	n/a	n/a	-999	-1	[4, 8, 5]	17	FR1	2	R1189M
88.917	3.717	135323	PROB	3.717	n/a	n/a	-999	-1	[4, 1, 8]	13	FR1	2	R1189M
92.634	0.016	139039	STOP	n/a	n/a	n/a	-999	-1	[-999, -999, -999]	n/a	FR1	2	R1189M
92.65	0.517	139055	DISTRACT_END	n/a	n/a	n/a	-999	-1	[0, 0, 0]	n/a	FR1	2	R1189M
93.167	0.52	139572	RETRIEVAL_ORIENT	n/a	n/a	n/a	-999	-1	[0, 0, 0]	n/a	FR1	2	R1189M
93.687	30.007	140092	PRACTICE_REC_START	n/a	n/a	n/a	-999	-1	[0, 0, 0]	n/a	FR1	2	R1189M
123.694	18.965	170098	PRACTICE_REC_END	n/a	n/a	n/a	-999	-1	[0, 0, 0]	n/a	FR1	2	R1189M
142.659	0.5	189062	TRIAL	n/a	n/a	n/a	-999	1	[0, 0, 0]	n/a	FR1	2	R1189M
143.159	10.428	189562	COUNTDOWN_START	n/a	n/a	n/a	-999	1	[0, 0, 0]	n/a	FR1	2	R1189M
153.587	0.008	199989	COUNTDOWN_END	n/a	n/a	n/a	-999	1	[0, 0, 0]	n/a	FR1	2	R1189M
153.595	1.618	199997	ORIENT	n/a	n/a	n/a	-999	1	[0, 0, 0]	n/a	FR1	2	R1189M
155.213	1.917	201615	ORIENT_OFF	n/a	n/a	n/a	-999	1	[0, 0, 0]	n/a	FR1	2	R1189M
157.13	1.616	203532	WORD	n/a	wordpools/wordpool_EN.txt	SWORD	1	1	[0, 0, 0]	n/a	FR1	2	R1189M
158.746	0.867	205148	WORD_OFF	n/a	n/a	SWORD	1	1	[0, 0, 0]	n/a	FR1	2	R1189M
159.613	1.618	206015	WORD	n/a	wordpools/wordpool_EN.txt	STONE	2	1	[0, 0, 0]	n/a	FR1	2	R1189M
161.231	0.866	207633	WORD_OFF	n/a	n/a	STONE	2	1	[0, 0, 0]	n/a	FR1	2	R1189M
162.097	1.616	208499	WORD	n/a	wordpools/wordpool_EN.txt	CANE	3	1	[0, 0, 0]	n/a	FR1	2	R1189M
163.713	0.867	210114	WORD_OFF	n/a	n/a	CANE	3	1	[0, 0, 0]	n/a	FR1	2	R1189M
164.58	1.618	210981	WORD	n/a	wordpools/wordpool_EN.txt	STORE	4	1	[0, 0, 0]	n/a	FR1	2	R1189M
166.198	0.967	212599	WORD_OFF	n/a	n/a	STORE	4	1	[0, 0, 0]	n/a	FR1	2	R1189M
167.165	1.616	213566	WORD	n/a	wordpools/wordpool_EN.txt	DITCH	5	1	[0, 0, 0]	n/a	FR1	2	R1189M
168.781	0.984	215182	WORD_OFF	n/a	n/a	DITCH	5	1	[0, 0, 0]	n/a	FR1	2	R1189M
169.765	1.616	216166	WORD	n/a	wordpools/wordpool_EN.txt	STOOL	6	1	[0, 0, 0]	n/a	FR1	2	R1189M
171.381	0.934	217782	WORD_OFF	n/a	n/a	STOOL	6	1	[0, 0, 0]	n/a	FR1	2	R1189M
172.315	1.618	218716	WORD	n/a	wordpools/wordpool_EN.txt	FLEA	7	1	[0, 0, 0]	n/a	FR1	2	R1189M
173.933	0.934	220334	WORD_OFF	n/a	n/a	FLEA	7	1	[0, 0, 0]	n/a	FR1	2	R1189M
174.867	1.615	221268	WORD	n/a	wordpools/wordpool_EN.txt	INK	8	1	[0, 0, 0]	n/a	FR1	2	R1189M
176.482	0.817	222883	WORD_OFF	n/a	n/a	INK	8	1	[0, 0, 0]	n/a	FR1	2	R1189M
177.299	1.601	223700	WORD	n/a	wordpools/wordpool_EN.txt	CHAIR	9	1	[0, 0, 0]	n/a	FR1	2	R1189M
178.9	0.866	225301	WORD_OFF	n/a	n/a	CHAIR	9	1	[0, 0, 0]	n/a	FR1	2	R1189M
179.766	1.617	226167	WORD	n/a	wordpools/wordpool_EN.txt	TENT	10	1	[0, 0, 0]	n/a	FR1	2	R1189M
181.383	0.917	227783	WORD_OFF	n/a	n/a	TENT	10	1	[0, 0, 0]	n/a	FR1	2	R1189M
182.3	1.601	228700	WORD	n/a	wordpools/wordpool_EN.txt	FLUTE	11	1	[0, 0, 0]	n/a	FR1	2	R1189M
183.901	0.766	230301	WORD_OFF	n/a	n/a	FLUTE	11	1	[0, 0, 0]	n/a	FR1	2	R1189M
184.667	1.618	231067	WORD	n/a	wordpools/wordpool_EN.txt	WALL	12	1	[0, 0, 0]	n/a	FR1	2	R1189M
186.285	0.0	232685	WORD_OFF	n/a	n/a	WALL	12	1	[0, 0, 0]	n/a	FR1	2	R1189M
186.285	0.001	232685	DISTRACT_START	n/a	n/a	n/a	-999	1	[0, 0, 0]	n/a	FR1	2	R1189M
186.286	0.015	232686	START	n/a	n/a	n/a	-999	1	[-999, -999, -999]	n/a	FR1	2	R1189M
186.301	3.535	232701	PROB	3.535	n/a	n/a	-999	1	[7, 7, 5]	19	FR1	2	R1189M
189.836	3.483	236236	PROB	3.483	n/a	n/a	-999	1	[1, 9, 2]	12	FR1	2	R1189M
193.319	1.968	239719	PROB	1.968	n/a	n/a	-999	1	[5, 9, 1]	15	FR1	2	R1189M
195.287	2.216	241687	PROB	2.216	n/a	n/a	-999	1	[1, 8, 7]	16	FR1	2	R1189M
197.503	2.267	243903	PROB	2.267	n/a	n/a	-999	1	[6, 9, 8]	23	FR1	2	R1189M
199.77	1.734	246169	PROB	1.734	n/a	n/a	-999	1	[9, 1, 5]	15	FR1	2	R1189M
201.504	2.752	247903	PROB	2.752	n/a	n/a	-999	1	[5, 7, 3]	15	FR1	2	R1189M
204.256	1.783	250655	PROB	1.783	n/a	n/a	-999	1	[5, 8, 1]	14	FR1	2	R1189M
206.039	2.57	252438	PROB	2.57	n/a	n/a	-999	1	[8, 6, 2]	16	FR1	2	R1189M
208.609	0.013	255008	STOP	n/a	n/a	n/a	-999	1	[-999, -999, -999]	n/a	FR1	2	R1189M
208.622	0.568	255021	DISTRACT_END	n/a	n/a	n/a	-999	1	[0, 0, 0]	n/a	FR1	2	R1189M
209.19	0.516	255589	RETRIEVAL_ORIENT	n/a	n/a	n/a	-999	1	[0, 0, 0]	n/a	FR1	2	R1189M
209.706	1.417	256105	REC_START	n/a	n/a	n/a	-999	1	[0, 0, 0]	n/a	FR1	2	R1189M
211.123	1.309	257522	REC_WORD	1.309	n/a	SWORD	-999	1	[0, 0, 0]	n/a	FR1	2	R1189M
212.432	2.98	258831	REC_WORD	2.98	n/a	STONE	-999	1	[0, 0, 0]	n/a	FR1	2	R1189M
215.412	1.959	261811	REC_WORD	1.959	n/a	FLEA	-999	1	[0, 0, 0]	n/a	FR1	2	R1189M
217.371	22.348	263769	REC_WORD	22.348	n/a	TENT	-999	1	[0, 0, 0]	n/a	FR1	2	R1189M
239.719	4.743	286116	REC_END	n/a	n/a	n/a	-999	1	[0, 0, 0]	n/a	FR1	2	R1189M
244.462	0.5	290859	TRIAL	n/a	n/a	n/a	-999	2	[0, 0, 0]	n/a	FR1	2	R1189M
244.962	10.428	291359	COUNTDOWN_START	n/a	n/a	n/a	-999	2	[0, 0, 0]	n/a	FR1	2	R1189M
255.39	0.008	301786	COUNTDOWN_END	n/a	n/a	n/a	-999	2	[0, 0, 0]	n/a	FR1	2	R1189M
255.398	1.618	301794	ORIENT	n/a	n/a	n/a	-999	2	[0, 0, 0]	n/a	FR1	2	R1189M
257.016	1.883	303412	ORIENT_OFF	n/a	n/a	n/a	-999	2	[0, 0, 0]	n/a	FR1	2	R1189M
258.899	1.616	305295	WORD	n/a	wordpools/wordpool_EN.txt	ROOT	1	2	[0, 0, 0]	n/a	FR1	2	R1189M
260.515	0.834	306911	WORD_OFF	n/a	n/a	ROOT	1	2	[0, 0, 0]	n/a	FR1	2	R1189M
261.349	1.601	307745	WORD	n/a	wordpools/wordpool_EN.txt	BEAK	2	2	[0, 0, 0]	n/a	FR1	2	R1189M
262.95	0.783	309346	WORD_OFF	n/a	n/a	BEAK	2	2	[0, 0, 0]	n/a	FR1	2	R1189M
263.733	1.617	310129	WORD	n/a	wordpools/wordpool_EN.txt	FOX	3	2	[0, 0, 0]	n/a	FR1	2	R1189M
265.35	0.801	311746	WORD_OFF	n/a	n/a	FOX	3	2	[0, 0, 0]	n/a	FR1	2	R1189M
266.151	1.616	312547	WORD	n/a	wordpools/wordpool_EN.txt	SEED	4	2	[0, 0, 0]	n/a	FR1	2	R1189M
267.767	1.0	314163	WORD_OFF	n/a	n/a	SEED	4	2	[0, 0, 0]	n/a	FR1	2	R1189M
268.767	1.617	315162	WORD	n/a	wordpools/wordpool_EN.txt	TRAIN	5	2	[0, 0, 0]	n/a	FR1	2	R1189M
270.384	0.917	316779	WORD_OFF	n/a	n/a	TRAIN	5	2	[0, 0, 0]	n/a	FR1	2	R1189M
271.301	1.618	317696	WORD	n/a	wordpools/wordpool_EN.txt	JAR	6	2	[0, 0, 0]	n/a	FR1	2	R1189M
272.919	0.866	319314	WORD_OFF	n/a	n/a	JAR	6	2	[0, 0, 0]	n/a	FR1	2	R1189M
273.785	1.616	320180	WORD	n/a	wordpools/wordpool_EN.txt	ICE	7	2	[0, 0, 0]	n/a	FR1	2	R1189M
275.401	1.001	321796	WORD_OFF	n/a	n/a	ICE	7	2	[0, 0, 0]	n/a	FR1	2	R1189M
276.402	1.618	322797	WORD	n/a	wordpools/wordpool_EN.txt	COW	8	2	[0, 0, 0]	n/a	FR1	2	R1189M
278.02	0.95	324415	WORD_OFF	n/a	n/a	COW	8	2	[0, 0, 0]	n/a	FR1	2	R1189M
278.97	1.616	325365	WORD	n/a	wordpools/wordpool_EN.txt	SHRIMP	9	2	[0, 0, 0]	n/a	FR1	2	R1189M
280.586	0.95	326981	WORD_OFF	n/a	n/a	SHRIMP	9	2	[0, 0, 0]	n/a	FR1	2	R1189M
281.536	1.618	327931	WORD	n/a	wordpools/wordpool_EN.txt	PEAR	10	2	[0, 0, 0]	n/a	FR1	2	R1189M
283.154	0.984	329549	WORD_OFF	n/a	n/a	PEAR	10	2	[0, 0, 0]	n/a	FR1	2	R1189M
284.138	1.615	330533	WORD	n/a	wordpools/wordpool_EN.txt	JAIL	11	2	[0, 0, 0]	n/a	FR1	2	R1189M
285.753	0.9	332148	WORD_OFF	n/a	n/a	JAIL	11	2	[0, 0, 0]	n/a	FR1	2	R1189M
286.653	1.602	333047	WORD	n/a	wordpools/wordpool_EN.txt	EGG	12	2	[0, 0, 0]	n/a	FR1	2	R1189M
288.255	0.0	334649	WORD_OFF	n/a	n/a	EGG	12	2	[0, 0, 0]	n/a	FR1	2	R1189M
288.255	0.0	334649	DISTRACT_START	n/a	n/a	n/a	-999	2	[0, 0, 0]	n/a	FR1	2	R1189M
288.255	0.017	334649	START	n/a	n/a	n/a	-999	2	[-999, -999, -999]	n/a	FR1	2	R1189M
288.272	2.449	334666	PROB	2.449	n/a	n/a	-999	2	[7, 4, 1]	12	FR1	2	R1189M
290.721	2.651	337115	PROB	2.651	n/a	n/a	-999	2	[4, 9, 5]	18	FR1	2	R1189M
293.372	1.768	339766	PROB	1.768	n/a	n/a	-999	2	[3, 9, 2]	14	FR1	2	R1189M
295.14	1.967	341534	PROB	1.967	n/a	n/a	-999	2	[1, 9, 7]	17	FR1	2	R1189M
297.107	1.499	343501	PROB	1.499	n/a	n/a	-999	2	[3, 6, 3]	12	FR1	2	R1189M
298.606	1.385	345000	PROB	1.385	n/a	n/a	-999	2	[7, 2, 2]	11	FR1	2	R1189M
299.991	1.632	346385	PROB	1.632	n/a	n/a	-999	2	[1, 9, 1]	11	FR1	2	R1189M
301.623	1.934	348017	PROB	1.934	n/a	n/a	-999	2	[9, 1, 4]	14	FR1	2	R1189M
303.557	1.834	349951	PROB	1.834	n/a	n/a	-999	2	[7, 3, 5]	15	FR1	2	R1189M
305.391	2.834	351784	PROB	2.834	n/a	n/a	-999	2	[6, 8, 6]	20	FR1	2	R1189M
308.225	2.208	354618	PROB	2.208	n/a	n/a	-999	2	[6, 4, 7]	17	FR1	2	R1189M
310.433	0.009	356826	STOP	n/a	n/a	n/a	-999	2	[-999, -999, -999]	n/a	FR1	2	R1189M
310.442	0.567	356835	DISTRACT_END	n/a	n/a	n/a	-999	2	[0, 0, 0]	n/a	FR1	2	R1189M
311.009	0.517	357402	RETRIEVAL_ORIENT	n/a	n/a	n/a	-999	2	[0, 0, 0]	n/a	FR1	2	R1189M
311.526	1.432	357919	REC_START	n/a	n/a	n/a	-999	2	[0, 0, 0]	n/a	FR1	2	R1189M
312.958	0.251	359351	REC_WORD_VV	0.251	n/a	<>	-999	2	[0, 0, 0]	n/a	FR1	2	R1189M
313.209	2.027	359602	REC_WORD	2.027	n/a	FOX	-999	2	[0, 0, 0]	n/a	FR1	2	R1189M
315.236	2.039	361629	REC_WORD	2.039	n/a	COW	-999	2	[0, 0, 0]	n/a	FR1	2	R1189M
317.275	24.262	363668	REC_WORD	24.262	n/a	SHRIMP	-999	2	[0, 0, 0]	n/a	FR1	2	R1189M
341.537	3.995	387928	REC_END	n/a	n/a	n/a	-999	2	[0, 0, 0]	n/a	FR1	2	R1189M
345.532	0.5	391923	TRIAL	n/a	n/a	n/a	-999	3	[0, 0, 0]	n/a	FR1	2	R1189M
346.032	10.428	392423	COUNTDOWN_START	n/a	n/a	n/a	-999	3	[0, 0, 0]	n/a	FR1	2	R1189M
356.46	0.007	402850	COUNTDOWN_END	n/a	n/a	n/a	-999	3	[0, 0, 0]	n/a	FR1	2	R1189M
356.467	1.618	402857	ORIENT	n/a	n/a	n/a	-999	3	[0, 0, 0]	n/a	FR1	2	R1189M
358.085	1.9	404475	ORIENT_OFF	n/a	n/a	n/a	-999	3	[0, 0, 0]	n/a	FR1	2	R1189M
359.985	1.616	406375	WORD	n/a	wordpools/wordpool_EN.txt	SEA	1	3	[0, 0, 0]	n/a	FR1	2	R1189M
361.601	0.817	407991	WORD_OFF	n/a	n/a	SEA	1	3	[0, 0, 0]	n/a	FR1	2	R1189M
362.418	1.618	408808	WORD	n/a	wordpools/wordpool_EN.txt	DRESS	2	3	[0, 0, 0]	n/a	FR1	2	R1189M
364.036	1.0	410426	WORD_OFF	n/a	n/a	DRESS	2	3	[0, 0, 0]	n/a	FR1	2	R1189M
365.036	1.616	411426	WORD	n/a	wordpools/wordpool_EN.txt	BARN	3	3	[0, 0, 0]	n/a	FR1	2	R1189M
366.652	0.851	413042	WORD_OFF	n/a	n/a	BARN	3	3	[0, 0, 0]	n/a	FR1	2	R1189M
367.503	1.618	413893	WORD	n/a	wordpools/wordpool_EN.txt	GATE	4	3	[0, 0, 0]	n/a	FR1	2	R1189M
369.121	0.883	415511	WORD_OFF	n/a	n/a	GATE	4	3	[0, 0, 0]	n/a	FR1	2	R1189M
370.004	1.616	416394	WORD	n/a	wordpools/wordpool_EN.txt	RAT	5	3	[0, 0, 0]	n/a	FR1	2	R1189M
371.62	0.884	418010	WORD_OFF	n/a	n/a	RAT	5	3	[0, 0, 0]	n/a	FR1	2	R1189M
372.504	1.618	418894	WORD	n/a	wordpools/wordpool_EN.txt	BOX	6	3	[0, 0, 0]	n/a	FR1	2	R1189M
374.122	0.966	420511	WORD_OFF	n/a	n/a	BOX	6	3	[0, 0, 0]	n/a	FR1	2	R1189M
375.088	1.616	421477	WORD	n/a	wordpools/wordpool_EN.txt	SWAMP	7	3	[0, 0, 0]	n/a	FR1	2	R1189M
376.704	0.767	423093	WORD_OFF	n/a	n/a	SWAMP	7	3	[0, 0, 0]	n/a	FR1	2	R1189M
377.471	1.618	423860	WORD	n/a	wordpools/wordpool_EN.txt	BRICK	8	3	[0, 0, 0]	n/a	FR1	2	R1189M
379.089	0.834	425478	WORD_OFF	n/a	n/a	BRICK	8	3	[0, 0, 0]	n/a	FR1	2	R1189M
379.923	1.616	426312	WORD	n/a	wordpools/wordpool_EN.txt	SIGN	9	3	[0, 0, 0]	n/a	FR1	2	R1189M
381.539	0.917	427928	WORD_OFF	n/a	n/a	SIGN	9	3	[0, 0, 0]	n/a	FR1	2	R1189M
382.456	1.617	428845	WORD	n/a	wordpools/wordpool_EN.txt	BRUSH	10	3	[0, 0, 0]	n/a	FR1	2	R1189M
384.073	1.001	430462	WORD_OFF	n/a	n/a	BRUSH	10	3	[0, 0, 0]	n/a	FR1	2	R1189M
385.074	1.616	431463	WORD	n/a	wordpools/wordpool_EN.txt	CUBE	11	3	[0, 0, 0]	n/a	FR1	2	R1189M
386.69	0.766	433079	WORD_OFF	n/a	n/a	CUBE	11	3	[0, 0, 0]	n/a	FR1	2	R1189M
387.456	1.618	433845	WORD	n/a	wordpools/wordpool_EN.txt	BIRD	12	3	[0, 0, 0]	n/a	FR1	2	R1189M
389.074	0.0	435463	DISTRACT_START	n/a	n/a	n/a	-999	3	[0, 0, 0]	n/a	FR1	2	R1189M
389.074	0.001	435463	WORD_OFF	n/a	n/a	BIRD	12	3	[0, 0, 0]	n/a	FR1	2	R1189M
389.075	0.016	435464	START	n/a	n/a	n/a	-999	3	[-999, -999, -999]	n/a	FR1	2	R1189M
389.091	6.035	435480	PROB	6.035	n/a	n/a	-999	3	[4, 9, 4]	17	FR1	2	R1189M
395.126	1.566	441514	PROB	1.566	n/a	n/a	-999	3	[3, 8, 1]	12	FR1	2	R1189M
396.692	1.251	443080	PROB	1.251	n/a	n/a	-999	3	[9, 1, 1]	11	FR1	2	R1189M
397.943	2.0	444331	PROB	2.0	n/a	n/a	-999	3	[9, 3, 3]	15	FR1	2	R1189M
399.943	1.583	446331	PROB	1.583	n/a	n/a	-999	3	[3, 1, 1]	5	FR1	2	R1189M
401.526	2.217	447914	PROB	2.217	n/a	n/a	-999	3	[7, 2, 6]	15	FR1	2	R1189M
403.743	3.667	450131	PROB	3.667	n/a	n/a	-999	3	[9, 5, 6]	20	FR1	2	R1189M
407.41	3.2	453798	PROB	3.2	n/a	n/a	-999	3	[9, 1, 9]	19	FR1	2	R1189M
410.61	0.018	456997	STOP	n/a	n/a	n/a	-999	3	[-999, -999, -999]	n/a	FR1	2	R1189M
410.628	0.634	457015	DISTRACT_END	n/a	n/a	n/a	-999	3	[0, 0, 0]	n/a	FR1	2	R1189M
411.262	0.516	457649	RETRIEVAL_ORIENT	n/a	n/a	n/a	-999	3	[0, 0, 0]	n/a	FR1	2	R1189M
411.778	1.133	458165	REC_START	n/a	n/a	n/a	-999	3	[0, 0, 0]	n/a	FR1	2	R1189M
412.911	1.619	459298	REC_WORD	1.619	n/a	SEA	-999	3	[0, 0, 0]	n/a	FR1	2	R1189M
414.53	1.769	460917	REC_WORD	1.769	n/a	DRESS	-999	3	[0, 0, 0]	n/a	FR1	2	R1189M
416.299	1.806	462686	REC_WORD	1.806	n/a	BARN	-999	3	[0, 0, 0]	n/a	FR1	2	R1189M
418.105	23.685	464492	REC_WORD	23.685	n/a	GATE	-999	3	[0, 0, 0]	n/a	FR1	2	R1189M
441.79	4.062	488176	REC_END	n/a	n/a	n/a	-999	3	[0, 0, 0]	n/a	FR1	2	R1189M
445.852	0.5	492237	TRIAL	n/a	n/a	n/a	-999	4	[0, 0, 0]	n/a	FR1	2	R1189M
446.352	10.428	492737	COUNTDOWN_START	n/a	n/a	n/a	-999	4	[0, 0, 0]	n/a	FR1	2	R1189M
456.78	0.008	503165	COUNTDOWN_END	n/a	n/a	n/a	-999	4	[0, 0, 0]	n/a	FR1	2	R1189M
456.788	1.615	503173	ORIENT	n/a	n/a	n/a	-999	4	[0, 0, 0]	n/a	FR1	2	R1189M
458.403	2.234	504788	ORIENT_OFF	n/a	n/a	n/a	-999	4	[0, 0, 0]	n/a	FR1	2	R1189M
460.637	1.601	507022	WORD	n/a	wordpools/wordpool_EN.txt	DOCK	1	4	[0, 0, 0]	n/a	FR1	2	R1189M
462.238	0.851	508622	WORD_OFF	n/a	n/a	DOCK	1	4	[0, 0, 0]	n/a	FR1	2	R1189M
463.089	1.616	509473	WORD	n/a	wordpools/wordpool_EN.txt	BAG	2	4	[0, 0, 0]	n/a	FR1	2	R1189M
464.705	0.95	511089	WORD_OFF	n/a	n/a	BAG	2	4	[0, 0, 0]	n/a	FR1	2	R1189M
465.655	1.618	512039	WORD	n/a	wordpools/wordpool_EN.txt	VEST	3	4	[0, 0, 0]	n/a	FR1	2	R1189M
467.273	0.867	513657	WORD_OFF	n/a	n/a	VEST	3	4	[0, 0, 0]	n/a	FR1	2	R1189M
468.14	1.616	514524	WORD	n/a	wordpools/wordpool_EN.txt	CLOTH	4	4	[0, 0, 0]	n/a	FR1	2	R1189M
469.756	1.0	516140	WORD_OFF	n/a	n/a	CLOTH	4	4	[0, 0, 0]	n/a	FR1	2	R1189M
470.756	1.617	517140	WORD	n/a	wordpools/wordpool_EN.txt	FENCE	5	4	[0, 0, 0]	n/a	FR1	2	R1189M
472.373	0.801	518757	WORD_OFF	n/a	n/a	FENCE	5	4	[0, 0, 0]	n/a	FR1	2	R1189M
473.174	1.617	519558	WORD	n/a	wordpools/wordpool_EN.txt	OWL	6	4	[0, 0, 0]	n/a	FR1	2	R1189M
474.791	0.832	521175	WORD_OFF	n/a	n/a	OWL	6	4	[0, 0, 0]	n/a	FR1	2	R1189M
475.623	1.618	522007	WORD	n/a	wordpools/wordpool_EN.txt	STICK	7	4	[0, 0, 0]	n/a	FR1	2	R1189M
477.241	0.917	523625	WORD_OFF	n/a	n/a	STICK	7	4	[0, 0, 0]	n/a	FR1	2	R1189M
478.158	1.616	524542	WORD	n/a	wordpools/wordpool_EN.txt	FUDGE	8	4	[0, 0, 0]	n/a	FR1	2	R1189M
479.774	0.95	526157	WORD_OFF	n/a	n/a	FUDGE	8	4	[0, 0, 0]	n/a	FR1	2	R1189M
480.724	1.617	527107	WORD	n/a	wordpools/wordpool_EN.txt	BALL	9	4	[0, 0, 0]	n/a	FR1	2	R1189M
482.341	0.984	528724	WORD_OFF	n/a	n/a	BALL	9	4	[0, 0, 0]	n/a	FR1	2	R1189M
483.325	1.618	529708	WORD	n/a	wordpools/wordpool_EN.txt	GRAPE	10	4	[0, 0, 0]	n/a	FR1	2	R1189M
484.943	0.917	531326	WORD_OFF	n/a	n/a	GRAPE	10	4	[0, 0, 0]	n/a	FR1	2	R1189M
485.86	1.616	532243	WORD	n/a	wordpools/wordpool_EN.txt	DIME	11	4	[0, 0, 0]	n/a	FR1	2	R1189M
487.476	0.85	533859	WORD_OFF	n/a	n/a	DIME	11	4	[0, 0, 0]	n/a	FR1	2	R1189M
488.326	1.618	534709	WORD	n/a	wordpools/wordpool_EN.txt	HILL	12	4	[0, 0, 0]	n/a	FR1	2	R1189M
489.944	0.0	536327	WORD_OFF	n/a	n/a	HILL	12	4	[0, 0, 0]	n/a	FR1	2	R1189M
489.944	0.0	536327	DISTRACT_START	n/a	n/a	n/a	-999	4	[0, 0, 0]	n/a	FR1	2	R1189M
489.944	0.017	536327	START	n/a	n/a	n/a	-999	4	[-999, -999, -999]	n/a	FR1	2	R1189M
489.961	3.967	536344	PROB	3.967	n/a	n/a	-999	4	[9, 2, 5]	16	FR1	2	R1189M
493.928	3.55	540311	PROB	3.55	n/a	n/a	-999	4	[9, 5, 3]	17	FR1	2	R1189M
497.478	2.451	543860	PROB	2.451	n/a	n/a	-999	4	[4, 3, 9]	16	FR1	2	R1189M
499.929	2.616	546311	PROB	2.616	n/a	n/a	-999	4	[6, 8, 3]	17	FR1	2	R1189M
502.545	2.285	548927	PROB	2.285	n/a	n/a	-999	4	[1, 2, 1]	4	FR1	2	R1189M
504.83	5.732	551212	PROB	5.732	n/a	n/a	-999	4	[8, 6, 7]	21	FR1	2	R1189M
510.562	0.018	556944	STOP	n/a	n/a	n/a	-999	4	[-999, -999, -999]	n/a	FR1	2	R1189M
510.58	0.685	556962	DISTRACT_END	n/a	n/a	n/a	-999	4	[0, 0, 0]	n/a	FR1	2	R1189M
511.265	0.516	557647	RETRIEVAL_ORIENT	n/a	n/a	n/a	-999	4	[0, 0, 0]	n/a	FR1	2	R1189M
511.781	2.401	558163	REC_START	n/a	n/a	n/a	-999	4	[0, 0, 0]	n/a	FR1	2	R1189M
514.182	0.318	560564	REC_WORD_VV	0.318	n/a	<>	-999	4	[0, 0, 0]	n/a	FR1	2	R1189M
514.5	6.67	560882	REC_WORD	6.67	n/a	STICK	-999	4	[0, 0, 0]	n/a	FR1	2	R1189M
521.17	3.621	567551	REC_WORD	3.621	n/a	DRAG	-999	4	[0, 0, 0]	n/a	FR1	2	R1189M
524.791	17.002	571172	REC_WORD	17.002	n/a	CLOTH	-999	4	[0, 0, 0]	n/a	FR1	2	R1189M
541.793	16.397	588173	REC_END	n/a	n/a	n/a	-999	4	[0, 0, 0]	n/a	FR1	2	R1189M
558.19	0.5	604569	TRIAL	n/a	n/a	n/a	-999	5	[0, 0, 0]	n/a	FR1	2	R1189M
558.69	10.428	605069	COUNTDOWN_START	n/a	n/a	n/a	-999	5	[0, 0, 0]	n/a	FR1	2	R1189M
569.118	0.008	615496	COUNTDOWN_END	n/a	n/a	n/a	-999	5	[0, 0, 0]	n/a	FR1	2	R1189M
569.126	1.616	615504	ORIENT	n/a	n/a	n/a	-999	5	[0, 0, 0]	n/a	FR1	2	R1189M
570.742	2.251	617120	ORIENT_OFF	n/a	n/a	n/a	-999	5	[0, 0, 0]	n/a	FR1	2	R1189M
572.993	1.616	619371	WORD	n/a	wordpools/wordpool_EN.txt	LAMB	1	5	[0, 0, 0]	n/a	FR1	2	R1189M
574.609	0.834	620987	WORD_OFF	n/a	n/a	LAMB	1	5	[0, 0, 0]	n/a	FR1	2	R1189M
575.443	1.618	621821	WORD	n/a	wordpools/wordpool_EN.txt	MOON	2	5	[0, 0, 0]	n/a	FR1	2	R1189M
577.061	1.0	623439	WORD_OFF	n/a	n/a	MOON	2	5	[0, 0, 0]	n/a	FR1	2	R1189M
578.061	1.616	624439	WORD	n/a	wordpools/wordpool_EN.txt	STAR	3	5	[0, 0, 0]	n/a	FR1	2	R1189M
579.677	0.85	626055	WORD_OFF	n/a	n/a	STAR	3	5	[0, 0, 0]	n/a	FR1	2	R1189M
580.527	1.618	626905	WORD	n/a	wordpools/wordpool_EN.txt	RUG	4	5	[0, 0, 0]	n/a	FR1	2	R1189M
582.145	0.917	628523	WORD_OFF	n/a	n/a	RUG	4	5	[0, 0, 0]	n/a	FR1	2	R1189M
583.062	1.616	629440	WORD	n/a	wordpools/wordpool_EN.txt	POLE	5	5	[0, 0, 0]	n/a	FR1	2	R1189M
584.678	0.983	631056	WORD_OFF	n/a	n/a	POLE	5	5	[0, 0, 0]	n/a	FR1	2	R1189M
585.661	1.602	632038	WORD	n/a	wordpools/wordpool_EN.txt	STRING	6	5	[0, 0, 0]	n/a	FR1	2	R1189M
587.263	0.917	633640	WORD_OFF	n/a	n/a	STRING	6	5	[0, 0, 0]	n/a	FR1	2	R1189M
588.18	1.616	634557	WORD	n/a	wordpools/wordpool_EN.txt	WORLD	7	5	[0, 0, 0]	n/a	FR1	2	R1189M
589.796	0.766	636173	WORD_OFF	n/a	n/a	WORLD	7	5	[0, 0, 0]	n/a	FR1	2	R1189M
590.562	1.618	636939	WORD	n/a	wordpools/wordpool_EN.txt	CAR	8	5	[0, 0, 0]	n/a	FR1	2	R1189M
592.18	0.817	638557	WORD_OFF	n/a	n/a	CAR	8	5	[0, 0, 0]	n/a	FR1	2	R1189M
592.997	1.616	639374	WORD	n/a	wordpools/wordpool_EN.txt	CORN	9	5	[0, 0, 0]	n/a	FR1	2	R1189M
594.613	0.917	640990	WORD_OFF	n/a	n/a	CORN	9	5	[0, 0, 0]	n/a	FR1	2	R1189M
595.53	1.601	641907	WORD	n/a	wordpools/wordpool_EN.txt	RAKE	10	5	[0, 0, 0]	n/a	FR1	2	R1189M
597.131	0.834	643508	WORD_OFF	n/a	n/a	RAKE	10	5	[0, 0, 0]	n/a	FR1	2	R1189M
597.965	1.616	644342	WORD	n/a	wordpools/wordpool_EN.txt	BADGE	11	5	[0, 0, 0]	n/a	FR1	2	R1189M
599.581	0.916	645958	WORD_OFF	n/a	n/a	BADGE	11	5	[0, 0, 0]	n/a	FR1	2	R1189M
600.497	1.602	646874	WORD	n/a	wordpools/wordpool_EN.txt	SUIT	12	5	[0, 0, 0]	n/a	FR1	2	R1189M
602.099	0.0	648476	WORD_OFF	n/a	n/a	SUIT	12	5	[0, 0, 0]	n/a	FR1	2	R1189M
602.099	0.0	648476	DISTRACT_START	n/a	n/a	n/a	-999	5	[0, 0, 0]	n/a	FR1	2	R1189M
602.099	0.017	648476	START	n/a	n/a	n/a	-999	5	[-999, -999, -999]	n/a	FR1	2	R1189M
602.116	4.767	648493	PROB	4.767	n/a	n/a	-999	5	[8, 1, 8]	17	FR1	2	R1189M
606.883	2.351	653259	PROB	2.351	n/a	n/a	-999	5	[2, 7, 4]	13	FR1	2	R1189M
609.234	2.532	655610	PROB	2.532	n/a	n/a	-999	5	[1, 6, 7]	14	FR1	2	R1189M
611.766	2.667	658142	PROB	2.667	n/a	n/a	-999	5	[8, 3, 7]	18	FR1	2	R1189M
614.433	3.118	660809	PROB	3.118	n/a	n/a	-999	5	[7, 3, 7]	17	FR1	2	R1189M
617.551	3.801	663927	PROB	3.801	n/a	n/a	-999	5	[5, 3, 9]	17	FR1	2	R1189M
621.352	4.498	667727	PROB	4.498	n/a	n/a	-999	5	[8, 9, 7]	24	FR1	2	R1189M
625.85	0.02	672225	STOP	n/a	n/a	n/a	-999	5	[-999, -999, -999]	n/a	FR1	2	R1189M
625.87	0.633	672245	DISTRACT_END	n/a	n/a	n/a	-999	5	[0, 0, 0]	n/a	FR1	2	R1189M
626.503	0.518	672878	RETRIEVAL_ORIENT	n/a	n/a	n/a	-999	5	[0, 0, 0]	n/a	FR1	2	R1189M
627.021	1.231	673396	REC_START	n/a	n/a	n/a	-999	5	[0, 0, 0]	n/a	FR1	2	R1189M
628.252	1.153	674627	REC_WORD	1.153	n/a	LAMB	-999	5	[0, 0, 0]	n/a	FR1	2	R1189M
629.405	1.24	675780	REC_WORD	1.24	n/a	MOON	-999	5	[0, 0, 0]	n/a	FR1	2	R1189M
630.645	1.555	677020	REC_WORD	1.555	n/a	STAR	-999	5	[0, 0, 0]	n/a	FR1	2	R1189M
632.2	1.911	678575	REC_WORD	1.911	n/a	RUG	-999	5	[0, 0, 0]	n/a	FR1	2	R1189M
634.111	22.921	680486	REC_WORD	22.921	n/a	SUIT	-999	5	[0, 0, 0]	n/a	FR1	2	R1189M
657.032	4.812	703405	REC_END	n/a	n/a	n/a	-999	5	[0, 0, 0]	n/a	FR1	2	R1189M
661.844	0.5	708217	TRIAL	n/a	n/a	n/a	-999	6	[0, 0, 0]	n/a	FR1	2	R1189M
662.344	10.428	708717	COUNTDOWN_START	n/a	n/a	n/a	-999	6	[0, 0, 0]	n/a	FR1	2	R1189M
672.772	0.006	719145	COUNTDOWN_END	n/a	n/a	n/a	-999	6	[0, 0, 0]	n/a	FR1	2	R1189M
672.778	1.617	719151	ORIENT	n/a	n/a	n/a	-999	6	[0, 0, 0]	n/a	FR1	2	R1189M
674.395	2.134	720767	ORIENT_OFF	n/a	n/a	n/a	-999	6	[0, 0, 0]	n/a	FR1	2	R1189M
676.529	1.618	722901	WORD	n/a	wordpools/wordpool_EN.txt	BROOM	1	6	[0, 0, 0]	n/a	FR1	2	R1189M
678.147	1.0	724519	WORD_OFF	n/a	n/a	BROOM	1	6	[0, 0, 0]	n/a	FR1	2	R1189M
679.147	1.616	725519	WORD	n/a	wordpools/wordpool_EN.txt	PEN	2	6	[0, 0, 0]	n/a	FR1	2	R1189M
680.763	0.983	727135	WORD_OFF	n/a	n/a	PEN	2	6	[0, 0, 0]	n/a	FR1	2	R1189M
681.746	1.617	728118	WORD	n/a	wordpools/wordpool_EN.txt	LEG	3	6	[0, 0, 0]	n/a	FR1	2	R1189M
683.363	0.785	729735	WORD_OFF	n/a	n/a	LEG	3	6	[0, 0, 0]	n/a	FR1	2	R1189M
684.148	1.616	730520	WORD	n/a	wordpools/wordpool_EN.txt	APE	4	6	[0, 0, 0]	n/a	FR1	2	R1189M
685.764	0.967	732136	WORD_OFF	n/a	n/a	APE	4	6	[0, 0, 0]	n/a	FR1	2	R1189M
686.731	1.617	733103	WORD	n/a	wordpools/wordpool_EN.txt	HEART	5	6	[0, 0, 0]	n/a	FR1	2	R1189M
688.348	0.818	734720	WORD_OFF	n/a	n/a	HEART	5	6	[0, 0, 0]	n/a	FR1	2	R1189M
689.166	1.616	735538	WORD	n/a	wordpools/wordpool_EN.txt	ARM	6	6	[0, 0, 0]	n/a	FR1	2	R1189M
690.782	0.967	737153	WORD_OFF	n/a	n/a	ARM	6	6	[0, 0, 0]	n/a	FR1	2	R1189M
691.749	1.616	738120	WORD	n/a	wordpools/wordpool_EN.txt	JEEP	7	6	[0, 0, 0]	n/a	FR1	2	R1189M
693.365	0.885	739736	WORD_OFF	n/a	n/a	JEEP	7	6	[0, 0, 0]	n/a	FR1	2	R1189M
694.25	1.617	740621	WORD	n/a	wordpools/wordpool_EN.txt	CHIN	8	6	[0, 0, 0]	n/a	FR1	2	R1189M
695.867	0.967	742238	WORD_OFF	n/a	n/a	CHIN	8	6	[0, 0, 0]	n/a	FR1	2	R1189M
696.834	1.616	743205	WORD	n/a	wordpools/wordpool_EN.txt	BUSH	9	6	[0, 0, 0]	n/a	FR1	2	R1189M
698.45	0.867	744821	WORD_OFF	n/a	n/a	BUSH	9	6	[0, 0, 0]	n/a	FR1	2	R1189M
699.317	1.618	745688	WORD	n/a	wordpools/wordpool_EN.txt	HORSE	10	6	[0, 0, 0]	n/a	FR1	2	R1189M
700.935	0.765	747306	WORD_OFF	n/a	n/a	HORSE	10	6	[0, 0, 0]	n/a	FR1	2	R1189M
701.7	1.617	748071	WORD	n/a	wordpools/wordpool_EN.txt	CHALK	11	6	[0, 0, 0]	n/a	FR1	2	R1189M
703.317	0.868	749688	WORD_OFF	n/a	n/a	CHALK	11	6	[0, 0, 0]	n/a	FR1	2	R1189M
704.185	1.617	750556	WORD	n/a	wordpools/wordpool_EN.txt	FOOT	12	6	[0, 0, 0]	n/a	FR1	2	R1189M
705.802	0.0	752173	WORD_OFF	n/a	n/a	FOOT	12	6	[0, 0, 0]	n/a	FR1	2	R1189M
705.802	0.001	752173	DISTRACT_START	n/a	n/a	n/a	-999	6	[0, 0, 0]	n/a	FR1	2	R1189M
705.803	0.016	752174	START	n/a	n/a	n/a	-999	6	[-999, -999, -999]	n/a	FR1	2	R1189M
705.819	2.699	752190	PROB	2.699	n/a	n/a	-999	6	[2, 4, 7]	13	FR1	2	R1189M
708.518	3.184	754888	PROB	3.184	n/a	n/a	-999	6	[1, 6, 6]	13	FR1	2	R1189M
711.702	3.452	758072	PROB	3.452	n/a	n/a	-999	6	[6, 2, 8]	16	FR1	2	R1189M
715.154	3.634	761524	PROB	3.634	n/a	n/a	-999	6	[2, 4, 3]	8	FR1	2	R1189M
718.788	4.001	765158	PROB	4.001	n/a	n/a	-999	6	[3, 9, 6]	18	FR1	2	R1189M
722.789	2.15	769159	PROB	2.15	n/a	n/a	-999	6	[5, 5, 3]	13	FR1	2	R1189M
724.939	1.671	771309	PROB	1.671	n/a	n/a	-999	6	[1, 4, 7]	12	FR1	2	R1189M
726.61	0.012	772979	STOP	n/a	n/a	n/a	-999	6	[-999, -999, -999]	n/a	FR1	2	R1189M
726.622	0.584	772991	DISTRACT_END	n/a	n/a	n/a	-999	6	[0, 0, 0]	n/a	FR1	2	R1189M
727.206	0.517	773575	RETRIEVAL_ORIENT	n/a	n/a	n/a	-999	6	[0, 0, 0]	n/a	FR1	2	R1189M
727.723	1.172	774092	REC_START	n/a	n/a	n/a	-999	6	[0, 0, 0]	n/a	FR1	2	R1189M
728.895	1.207	775264	REC_WORD	1.207	n/a	ARM	-999	6	[0, 0, 0]	n/a	FR1	2	R1189M
730.102	1.757	776471	REC_WORD	1.757	n/a	CHIN	-999	6	[0, 0, 0]	n/a	FR1	2	R1189M
731.859	1.88	778228	REC_WORD	1.88	n/a	BUSH	-999	6	[0, 0, 0]	n/a	FR1	2	R1189M
733.739	2.053	780108	REC_WORD	2.053	n/a	JEEP	-999	6	[0, 0, 0]	n/a	FR1	2	R1189M
735.792	21.941	782161	REC_WORD	21.941	n/a	APE	-999	6	[0, 0, 0]	n/a	FR1	2	R1189M
757.733	4.513	804101	REC_END	n/a	n/a	n/a	-999	6	[0, 0, 0]	n/a	FR1	2	R1189M
762.246	0.5	808613	TRIAL	n/a	n/a	n/a	-999	7	[0, 0, 0]	n/a	FR1	2	R1189M
762.746	10.428	809113	COUNTDOWN_START	n/a	n/a	n/a	-999	7	[0, 0, 0]	n/a	FR1	2	R1189M
773.174	0.008	819541	COUNTDOWN_END	n/a	n/a	n/a	-999	7	[0, 0, 0]	n/a	FR1	2	R1189M
773.182	1.617	819549	ORIENT	n/a	n/a	n/a	-999	7	[0, 0, 0]	n/a	FR1	2	R1189M
774.799	2.217	821166	ORIENT_OFF	n/a	n/a	n/a	-999	7	[0, 0, 0]	n/a	FR1	2	R1189M
777.016	1.616	823383	WORD	n/a	wordpools/wordpool_EN.txt	WEB	1	7	[0, 0, 0]	n/a	FR1	2	R1189M
778.632	0.9	824998	WORD_OFF	n/a	n/a	WEB	1	7	[0, 0, 0]	n/a	FR1	2	R1189M
779.532	1.618	825898	WORD	n/a	wordpools/wordpool_EN.txt	MAP	2	7	[0, 0, 0]	n/a	FR1	2	R1189M
781.15	0.85	827516	WORD_OFF	n/a	n/a	MAP	2	7	[0, 0, 0]	n/a	FR1	2	R1189M
782.0	1.616	828366	WORD	n/a	wordpools/wordpool_EN.txt	STREET	3	7	[0, 0, 0]	n/a	FR1	2	R1189M
783.616	0.867	829982	WORD_OFF	n/a	n/a	STREET	3	7	[0, 0, 0]	n/a	FR1	2	R1189M
784.483	1.618	830849	WORD	n/a	wordpools/wordpool_EN.txt	GRASS	4	7	[0, 0, 0]	n/a	FR1	2	R1189M
786.101	1.0	832467	WORD_OFF	n/a	n/a	GRASS	4	7	[0, 0, 0]	n/a	FR1	2	R1189M
787.101	1.616	833467	WORD	n/a	wordpools/wordpool_EN.txt	WAVE	5	7	[0, 0, 0]	n/a	FR1	2	R1189M
788.717	0.9	835083	WORD_OFF	n/a	n/a	WAVE	5	7	[0, 0, 0]	n/a	FR1	2	R1189M
789.617	1.602	835983	WORD	n/a	wordpools/wordpool_EN.txt	TANK	6	7	[0, 0, 0]	n/a	FR1	2	R1189M
791.219	0.9	837585	WORD_OFF	n/a	n/a	TANK	6	7	[0, 0, 0]	n/a	FR1	2	R1189M
792.119	1.616	838485	WORD	n/a	wordpools/wordpool_EN.txt	RAIN	7	7	[0, 0, 0]	n/a	FR1	2	R1189M
793.735	0.917	840101	WORD_OFF	n/a	n/a	RAIN	7	7	[0, 0, 0]	n/a	FR1	2	R1189M
794.652	1.618	841018	WORD	n/a	wordpools/wordpool_EN.txt	PLANE	8	7	[0, 0, 0]	n/a	FR1	2	R1189M
796.27	0.767	842635	WORD_OFF	n/a	n/a	PLANE	8	7	[0, 0, 0]	n/a	FR1	2	R1189M
797.037	1.616	843402	WORD	n/a	wordpools/wordpool_EN.txt	FLAG	9	7	[0, 0, 0]	n/a	FR1	2	R1189M
798.653	0.883	845018	WORD_OFF	n/a	n/a	FLAG	9	7	[0, 0, 0]	n/a	FR1	2	R1189M
799.536	1.618	845901	WORD	n/a	wordpools/wordpool_EN.txt	SHARK	10	7	[0, 0, 0]	n/a	FR1	2	R1189M
801.154	0.883	847519	WORD_OFF	n/a	n/a	SHARK	10	7	[0, 0, 0]	n/a	FR1	2	R1189M
802.037	1.616	848402	WORD	n/a	wordpools/wordpool_EN.txt	SUN	11	7	[0, 0, 0]	n/a	FR1	2	R1189M
803.653	0.951	850018	WORD_OFF	n/a	n/a	SUN	11	7	[0, 0, 0]	n/a	FR1	2	R1189M
804.604	1.601	850969	WORD	n/a	wordpools/wordpool_EN.txt	MAIL	12	7	[0, 0, 0]	n/a	FR1	2	R1189M
806.205	0.0	852570	WORD_OFF	n/a	n/a	MAIL	12	7	[0, 0, 0]	n/a	FR1	2	R1189M
806.205	0.001	852570	DISTRACT_START	n/a	n/a	n/a	-999	7	[0, 0, 0]	n/a	FR1	2	R1189M
806.206	0.016	852571	START	n/a	n/a	n/a	-999	7	[-999, -999, -999]	n/a	FR1	2	R1189M
806.222	2.717	852587	PROB	2.717	n/a	n/a	-999	7	[2, 3, 5]	7	FR1	2	R1189M
808.939	4.516	855304	PROB	4.516	n/a	n/a	-999	7	[2, 9, 9]	20	FR1	2	R1189M
813.455	3.034	859820	PROB	3.034	n/a	n/a	-999	7	[6, 9, 4]	19	FR1	2	R1189M
816.489	2.067	862853	PROB	2.067	n/a	n/a	-999	7	[2, 4, 7]	13	FR1	2	R1189M
818.556	2.252	864920	PROB	2.252	n/a	n/a	-999	7	[5, 4, 5]	14	FR1	2	R1189M
820.808	3.434	867172	PROB	3.434	n/a	n/a	-999	7	[8, 6, 6]	20	FR1	2	R1189M
824.242	2.32	870606	PROB	2.32	n/a	n/a	-999	7	[8, 3, 1]	12	FR1	2	R1189M
826.562	0.012	872926	STOP	n/a	n/a	n/a	-999	7	[-999, -999, -999]	n/a	FR1	2	R1189M
826.574	0.518	872938	DISTRACT_END	n/a	n/a	n/a	-999	7	[0, 0, 0]	n/a	FR1	2	R1189M
827.092	0.517	873456	RETRIEVAL_ORIENT	n/a	n/a	n/a	-999	7	[0, 0, 0]	n/a	FR1	2	R1189M
827.609	1.042	873973	REC_START	n/a	n/a	n/a	-999	7	[0, 0, 0]	n/a	FR1	2	R1189M
828.651	1.537	875015	REC_WORD	1.537	n/a	WEB	-999	7	[0, 0, 0]	n/a	FR1	2	R1189M
830.188	2.549	876552	REC_WORD	2.549	n/a	MAP	-999	7	[0, 0, 0]	n/a	FR1	2	R1189M
832.737	2.066	879100	REC_WORD	2.066	n/a	STREET	-999	7	[0, 0, 0]	n/a	FR1	2	R1189M
834.803	2.235	881166	REC_WORD	2.235	n/a	RAIN	-999	7	[0, 0, 0]	n/a	FR1	2	R1189M
837.038	20.581	883401	REC_WORD	20.581	n/a	PLANE	-999	7	[0, 0, 0]	n/a	FR1	2	R1189M
857.619	4.896	903981	REC_END	n/a	n/a	n/a	-999	7	[0, 0, 0]	n/a	FR1	2	R1189M
862.515	0.5	908877	TRIAL	n/a	n/a	n/a	-999	8	[0, 0, 0]	n/a	FR1	2	R1189M
863.015	10.428	909377	COUNTDOWN_START	n/a	n/a	n/a	-999	8	[0, 0, 0]	n/a	FR1	2	R1189M
873.443	0.007	919804	COUNTDOWN_END	n/a	n/a	n/a	-999	8	[0, 0, 0]	n/a	FR1	2	R1189M
873.45	1.618	919811	ORIENT	n/a	n/a	n/a	-999	8	[0, 0, 0]	n/a	FR1	2	R1189M
875.068	1.867	921429	ORIENT_OFF	n/a	n/a	n/a	-999	8	[0, 0, 0]	n/a	FR1	2	R1189M
876.935	1.616	923296	WORD	n/a	wordpools/wordpool_EN.txt	SEAT	1	8	[0, 0, 0]	n/a	FR1	2	R1189M
878.551	0.95	924912	WORD_OFF	n/a	n/a	SEAT	1	8	[0, 0, 0]	n/a	FR1	2	R1189M
879.501	1.618	925862	WORD	n/a	wordpools/wordpool_EN.txt	BOWL	2	8	[0, 0, 0]	n/a	FR1	2	R1189M
881.119	0.951	927480	WORD_OFF	n/a	n/a	BOWL	2	8	[0, 0, 0]	n/a	FR1	2	R1189M
882.07	1.616	928431	WORD	n/a	wordpools/wordpool_EN.txt	FLOOR	3	8	[0, 0, 0]	n/a	FR1	2	R1189M
883.686	0.866	930047	WORD_OFF	n/a	n/a	FLOOR	3	8	[0, 0, 0]	n/a	FR1	2	R1189M
884.552	1.618	930912	WORD	n/a	wordpools/wordpool_EN.txt	TOE	4	8	[0, 0, 0]	n/a	FR1	2	R1189M
886.17	0.984	932530	WORD_OFF	n/a	n/a	TOE	4	8	[0, 0, 0]	n/a	FR1	2	R1189M
887.154	1.616	933514	WORD	n/a	wordpools/wordpool_EN.txt	AXE	5	8	[0, 0, 0]	n/a	FR1	2	R1189M
888.77	0.767	935130	WORD_OFF	n/a	n/a	AXE	5	8	[0, 0, 0]	n/a	FR1	2	R1189M
889.537	1.618	935897	WORD	n/a	wordpools/wordpool_EN.txt	LAMP	6	8	[0, 0, 0]	n/a	FR1	2	R1189M
891.155	0.816	937515	WORD_OFF	n/a	n/a	LAMP	6	8	[0, 0, 0]	n/a	FR1	2	R1189M
891.971	1.616	938331	WORD	n/a	wordpools/wordpool_EN.txt	VAN	7	8	[0, 0, 0]	n/a	FR1	2	R1189M
893.587	0.984	939947	WORD_OFF	n/a	n/a	VAN	7	8	[0, 0, 0]	n/a	FR1	2	R1189M
894.571	1.618	940931	WORD	n/a	wordpools/wordpool_EN.txt	BOOT	8	8	[0, 0, 0]	n/a	FR1	2	R1189M
896.189	0.967	942549	WORD_OFF	n/a	n/a	BOOT	8	8	[0, 0, 0]	n/a	FR1	2	R1189M
897.156	1.616	943516	WORD	n/a	wordpools/wordpool_EN.txt	TIE	9	8	[0, 0, 0]	n/a	FR1	2	R1189M
898.772	0.867	945132	WORD_OFF	n/a	n/a	TIE	9	8	[0, 0, 0]	n/a	FR1	2	R1189M
899.639	1.618	945999	WORD	n/a	wordpools/wordpool_EN.txt	FACE	10	8	[0, 0, 0]	n/a	FR1	2	R1189M
901.257	0.85	947617	WORD_OFF	n/a	n/a	FACE	10	8	[0, 0, 0]	n/a	FR1	2	R1189M
902.107	1.616	948466	WORD	n/a	wordpools/wordpool_EN.txt	BLOOM	11	8	[0, 0, 0]	n/a	FR1	2	R1189M
903.723	0.766	950082	WORD_OFF	n/a	n/a	BLOOM	11	8	[0, 0, 0]	n/a	FR1	2	R1189M
904.489	1.619	950848	WORD	n/a	wordpools/wordpool_EN.txt	SLIME	12	8	[0, 0, 0]	n/a	FR1	2	R1189M
906.108	0.0	952467	DISTRACT_START	n/a	n/a	n/a	-999	8	[0, 0, 0]	n/a	FR1	2	R1189M
906.108	0.0	952467	WORD_OFF	n/a	n/a	SLIME	12	8	[0, 0, 0]	n/a	FR1	2	R1189M
906.108	0.016	952467	START	n/a	n/a	n/a	-999	8	[-999, -999, -999]	n/a	FR1	2	R1189M
906.124	4.567	952483	PROB	4.567	n/a	n/a	-999	8	[3, 9, 4]	16	FR1	2	R1189M
910.691	3.767	957050	PROB	3.767	n/a	n/a	-999	8	[2, 6, 9]	17	FR1	2	R1189M
914.458	2.618	960817	PROB	2.618	n/a	n/a	-999	8	[9, 2, 7]	18	FR1	2	R1189M
917.076	3.533	963435	PROB	3.533	n/a	n/a	-999	8	[3, 9, 9]	21	FR1	2	R1189M
920.609	1.934	966967	PROB	1.934	n/a	n/a	-999	8	[9, 7, 5]	21	FR1	2	R1189M
922.543	2.184	968901	PROB	2.184	n/a	n/a	-999	8	[7, 1, 9]	17	FR1	2	R1189M
924.727	2.739	971085	PROB	2.739	n/a	n/a	-999	8	[7, 9, 3]	19	FR1	2	R1189M
927.466	0.011	973824	STOP	n/a	n/a	n/a	-999	8	[-999, -999, -999]	n/a	FR1	2	R1189M
927.477	0.685	973835	DISTRACT_END	n/a	n/a	n/a	-999	8	[0, 0, 0]	n/a	FR1	2	R1189M
928.162	0.516	974520	RETRIEVAL_ORIENT	n/a	n/a	n/a	-999	8	[0, 0, 0]	n/a	FR1	2	R1189M
928.678	1.777	975036	REC_START	n/a	n/a	n/a	-999	8	[0, 0, 0]	n/a	FR1	2	R1189M
930.455	3.683	976813	REC_WORD	3.683	n/a	FACE	-999	8	[0, 0, 0]	n/a	FR1	2	R1189M
934.138	1.995	980496	REC_WORD_VV	1.995	n/a	<>	-999	8	[0, 0, 0]	n/a	FR1	2	R1189M
936.133	1.597	982491	REC_WORD	1.597	n/a	SEAT	-999	8	[0, 0, 0]	n/a	FR1	2	R1189M
937.73	3.799	984087	REC_WORD	3.799	n/a	BOWL	-999	8	[0, 0, 0]	n/a	FR1	2	R1189M
941.529	2.278	987886	REC_WORD	2.278	n/a	FLOOR	-999	8	[0, 0, 0]	n/a	FR1	2	R1189M
943.807	3.418	990164	REC_WORD	3.418	n/a	TIE	-999	8	[0, 0, 0]	n/a	FR1	2	R1189M
947.225	11.465	993582	REC_WORD	11.465	n/a	SLIDE	-999	8	[0, 0, 0]	n/a	FR1	2	R1189M
958.69	6.945	1005046	REC_END	n/a	n/a	n/a	-999	8	[0, 0, 0]	n/a	FR1	2	R1189M
965.635	0.5	1011991	TRIAL	n/a	n/a	n/a	-999	9	[0, 0, 0]	n/a	FR1	2	R1189M
966.135	10.428	1012491	COUNTDOWN_START	n/a	n/a	n/a	-999	9	[0, 0, 0]	n/a	FR1	2	R1189M
976.563	0.007	1022918	COUNTDOWN_END	n/a	n/a	n/a	-999	9	[0, 0, 0]	n/a	FR1	2	R1189M
976.57	1.618	1022925	ORIENT	n/a	n/a	n/a	-999	9	[0, 0, 0]	n/a	FR1	2	R1189M
978.188	2.067	1024543	ORIENT_OFF	n/a	n/a	n/a	-999	9	[0, 0, 0]	n/a	FR1	2	R1189M
980.255	1.617	1026610	WORD	n/a	wordpools/wordpool_EN.txt	ROOM	1	9	[0, 0, 0]	n/a	FR1	2	R1189M
981.872	0.816	1028227	WORD_OFF	n/a	n/a	ROOM	1	9	[0, 0, 0]	n/a	FR1	2	R1189M
982.688	1.601	1029043	WORD	n/a	wordpools/wordpool_EN.txt	CAGE	2	9	[0, 0, 0]	n/a	FR1	2	R1189M
984.289	1.001	1030644	WORD_OFF	n/a	n/a	CAGE	2	9	[0, 0, 0]	n/a	FR1	2	R1189M
985.29	1.616	1031645	WORD	n/a	wordpools/wordpool_EN.txt	OAR	3	9	[0, 0, 0]	n/a	FR1	2	R1189M
986.906	0.816	1033261	WORD_OFF	n/a	n/a	OAR	3	9	[0, 0, 0]	n/a	FR1	2	R1189M
987.722	1.617	1034077	WORD	n/a	wordpools/wordpool_EN.txt	LIP	4	9	[0, 0, 0]	n/a	FR1	2	R1189M
989.339	0.801	1035694	WORD_OFF	n/a	n/a	LIP	4	9	[0, 0, 0]	n/a	FR1	2	R1189M
990.14	1.616	1036494	WORD	n/a	wordpools/wordpool_EN.txt	SHOE	5	9	[0, 0, 0]	n/a	FR1	2	R1189M
991.756	0.784	1038110	WORD_OFF	n/a	n/a	SHOE	5	9	[0, 0, 0]	n/a	FR1	2	R1189M
992.54	1.618	1038894	WORD	n/a	wordpools/wordpool_EN.txt	FLAME	6	9	[0, 0, 0]	n/a	FR1	2	R1189M
994.158	0.767	1040512	WORD_OFF	n/a	n/a	FLAME	6	9	[0, 0, 0]	n/a	FR1	2	R1189M
994.925	1.616	1041279	WORD	n/a	wordpools/wordpool_EN.txt	TRAY	7	9	[0, 0, 0]	n/a	FR1	2	R1189M
996.541	0.983	1042895	WORD_OFF	n/a	n/a	TRAY	7	9	[0, 0, 0]	n/a	FR1	2	R1189M
997.524	1.618	1043878	WORD	n/a	wordpools/wordpool_EN.txt	TREE	8	9	[0, 0, 0]	n/a	FR1	2	R1189M
999.142	0.984	1045496	WORD_OFF	n/a	n/a	TREE	8	9	[0, 0, 0]	n/a	FR1	2	R1189M
1000.126	1.616	1046480	WORD	n/a	wordpools/wordpool_EN.txt	STAIR	9	9	[0, 0, 0]	n/a	FR1	2	R1189M
1001.742	0.983	1048096	WORD_OFF	n/a	n/a	STAIR	9	9	[0, 0, 0]	n/a	FR1	2	R1189M
1002.725	1.617	1049079	WORD	n/a	wordpools/wordpool_EN.txt	BENCH	10	9	[0, 0, 0]	n/a	FR1	2	R1189M
1004.342	0.801	1050696	WORD_OFF	n/a	n/a	BENCH	10	9	[0, 0, 0]	n/a	FR1	2	R1189M
1005.143	1.616	1051497	WORD	n/a	wordpools/wordpool_EN.txt	MOTH	11	9	[0, 0, 0]	n/a	FR1	2	R1189M
1006.759	0.8	1053113	WORD_OFF	n/a	n/a	MOTH	11	9	[0, 0, 0]	n/a	FR1	2	R1189M
1007.559	1.618	1053912	WORD	n/a	wordpools/wordpool_EN.txt	SPOON	12	9	[0, 0, 0]	n/a	FR1	2	R1189M
1009.177	0.0	1055530	WORD_OFF	n/a	n/a	SPOON	12	9	[0, 0, 0]	n/a	FR1	2	R1189M
1009.177	0.001	1055530	DISTRACT_START	n/a	n/a	n/a	-999	9	[0, 0, 0]	n/a	FR1	2	R1189M
1009.178	0.016	1055531	START	n/a	n/a	n/a	-999	9	[-999, -999, -999]	n/a	FR1	2	R1189M
1009.194	6.635	1055547	PROB	6.635	n/a	n/a	-999	9	[2, 5, 2]	9	FR1	2	R1189M
1015.829	3.699	1062182	PROB	3.699	n/a	n/a	-999	9	[9, 7, 6]	22	FR1	2	R1189M
1019.528	1.735	1065881	PROB	1.735	n/a	n/a	-999	9	[4, 1, 7]	12	FR1	2	R1189M
1021.263	1.466	1067616	PROB	1.466	n/a	n/a	-999	9	[2, 2, 1]	5	FR1	2	R1189M
1022.729	2.468	1069082	PROB	2.468	n/a	n/a	-999	9	[6, 8, 1]	15	FR1	2	R1189M
1025.197	3.067	1071549	PROB	3.067	n/a	n/a	-999	9	[5, 6, 9]	20	FR1	2	R1189M
1028.264	2.09	1074616	PROB	2.09	n/a	n/a	-999	9	[8, 8, 8]	24	FR1	2	R1189M
1030.354	0.01	1076706	STOP	n/a	n/a	n/a	-999	9	[-999, -999, -999]	n/a	FR1	2	R1189M
1030.364	0.668	1076716	DISTRACT_END	n/a	n/a	n/a	-999	9	[0, 0, 0]	n/a	FR1	2	R1189M
1031.032	0.516	1077384	RETRIEVAL_ORIENT	n/a	n/a	n/a	-999	9	[0, 0, 0]	n/a	FR1	2	R1189M
1031.548	1.556	1077900	REC_START	n/a	n/a	n/a	-999	9	[0, 0, 0]	n/a	FR1	2	R1189M
1033.104	1.784	1079456	REC_WORD	1.784	n/a	ROOM	-999	9	[0, 0, 0]	n/a	FR1	2	R1189M
1034.888	2.365	1081240	REC_WORD	2.365	n/a	CAGE	-999	9	[0, 0, 0]	n/a	FR1	2	R1189M
1037.253	1.852	1083605	REC_WORD	1.852	n/a	OAR	-999	9	[0, 0, 0]	n/a	FR1	2	R1189M
1039.105	1.937	1085457	REC_WORD	1.937	n/a	LIP	-999	9	[0, 0, 0]	n/a	FR1	2	R1189M
1041.042	20.516	1087394	REC_WORD	20.516	n/a	SHOE	-999	9	[0, 0, 0]	n/a	FR1	2	R1189M
1061.558	4.464	1107908	REC_END	n/a	n/a	n/a	-999	9	[0, 0, 0]	n/a	FR1	2	R1189M
1066.022	0.5	1112372	TRIAL	n/a	n/a	n/a	-999	10	[0, 0, 0]	n/a	FR1	2	R1189M
1066.522	10.428	1112872	COUNTDOWN_START	n/a	n/a	n/a	-999	10	[0, 0, 0]	n/a	FR1	2	R1189M
1076.95	0.007	1123300	COUNTDOWN_END	n/a	n/a	n/a	-999	10	[0, 0, 0]	n/a	FR1	2	R1189M
1076.957	1.616	1123307	ORIENT	n/a	n/a	n/a	-999	10	[0, 0, 0]	n/a	FR1	2	R1189M
1078.573	1.951	1124922	ORIENT_OFF	n/a	n/a	n/a	-999	10	[0, 0, 0]	n/a	FR1	2	R1189M
1080.524	1.618	1126873	WORD	n/a	wordpools/wordpool_EN.txt	PIPE	1	10	[0, 0, 0]	n/a	FR1	2	R1189M
1082.142	0.9	1128491	WORD_OFF	n/a	n/a	PIPE	1	10	[0, 0, 0]	n/a	FR1	2	R1189M
1083.042	1.616	1129391	WORD	n/a	wordpools/wordpool_EN.txt	PLATE	2	10	[0, 0, 0]	n/a	FR1	2	R1189M
1084.658	1.0	1131007	WORD_OFF	n/a	n/a	PLATE	2	10	[0, 0, 0]	n/a	FR1	2	R1189M
1085.658	1.601	1132007	WORD	n/a	wordpools/wordpool_EN.txt	BLUSH	3	10	[0, 0, 0]	n/a	FR1	2	R1189M
1087.259	0.867	1133608	WORD_OFF	n/a	n/a	BLUSH	3	10	[0, 0, 0]	n/a	FR1	2	R1189M
1088.126	1.616	1134475	WORD	n/a	wordpools/wordpool_EN.txt	HOSE	4	10	[0, 0, 0]	n/a	FR1	2	R1189M
1089.742	1.017	1136091	WORD_OFF	n/a	n/a	HOSE	4	10	[0, 0, 0]	n/a	FR1	2	R1189M
1090.759	1.617	1137108	WORD	n/a	wordpools/wordpool_EN.txt	BATH	5	10	[0, 0, 0]	n/a	FR1	2	R1189M
1092.376	0.801	1138725	WORD_OFF	n/a	n/a	BATH	5	10	[0, 0, 0]	n/a	FR1	2	R1189M
1093.177	1.617	1139526	WORD	n/a	wordpools/wordpool_EN.txt	BED	6	10	[0, 0, 0]	n/a	FR1	2	R1189M
1094.794	0.849	1141143	WORD_OFF	n/a	n/a	BED	6	10	[0, 0, 0]	n/a	FR1	2	R1189M
1095.643	1.618	1141991	WORD	n/a	wordpools/wordpool_EN.txt	PIN	7	10	[0, 0, 0]	n/a	FR1	2	R1189M
1097.261	0.834	1143609	WORD_OFF	n/a	n/a	PIN	7	10	[0, 0, 0]	n/a	FR1	2	R1189M
1098.095	1.616	1144443	WORD	n/a	wordpools/wordpool_EN.txt	CUP	8	10	[0, 0, 0]	n/a	FR1	2	R1189M
1099.711	0.9	1146059	WORD_OFF	n/a	n/a	CUP	8	10	[0, 0, 0]	n/a	FR1	2	R1189M
1100.611	1.618	1146959	WORD	n/a	wordpools/wordpool_EN.txt	SHIELD	9	10	[0, 0, 0]	n/a	FR1	2	R1189M
1102.229	0.783	1148577	WORD_OFF	n/a	n/a	SHIELD	9	10	[0, 0, 0]	n/a	FR1	2	R1189M
1103.012	1.616	1149360	WORD	n/a	wordpools/wordpool_EN.txt	JUDGE	10	10	[0, 0, 0]	n/a	FR1	2	R1189M
1104.628	0.884	1150976	WORD_OFF	n/a	n/a	JUDGE	10	10	[0, 0, 0]	n/a	FR1	2	R1189M
1105.512	1.618	1151860	WORD	n/a	wordpools/wordpool_EN.txt	NAIL	11	10	[0, 0, 0]	n/a	FR1	2	R1189M
1107.13	0.983	1153478	WORD_OFF	n/a	n/a	NAIL	11	10	[0, 0, 0]	n/a	FR1	2	R1189M
1108.113	1.616	1154461	WORD	n/a	wordpools/wordpool_EN.txt	SQUARE	12	10	[0, 0, 0]	n/a	FR1	2	R1189M
1109.729	0.0	1156077	DISTRACT_START	n/a	n/a	n/a	-999	10	[0, 0, 0]	n/a	FR1	2	R1189M
1109.729	0.001	1156077	WORD_OFF	n/a	n/a	SQUARE	12	10	[0, 0, 0]	n/a	FR1	2	R1189M
1109.73	0.016	1156078	START	n/a	n/a	n/a	-999	10	[-999, -999, -999]	n/a	FR1	2	R1189M
1109.746	2.8	1156094	PROB	2.8	n/a	n/a	-999	10	[1, 4, 5]	10	FR1	2	R1189M
1112.546	2.585	1158894	PROB	2.585	n/a	n/a	-999	10	[7, 9, 1]	17	FR1	2	R1189M
1115.131	2.233	1161478	PROB	2.233	n/a	n/a	-999	10	[1, 4, 5]	10	FR1	2	R1189M
1117.364	2.084	1163711	PROB	2.084	n/a	n/a	-999	10	[3, 3, 6]	12	FR1	2	R1189M
1119.448	2.067	1165795	PROB	2.067	n/a	n/a	-999	10	[4, 1, 5]	10	FR1	2	R1189M
1121.515	2.685	1167862	PROB	2.685	n/a	n/a	-999	10	[5, 1, 3]	9	FR1	2	R1189M
1124.2	2.65	1170547	PROB	2.65	n/a	n/a	-999	10	[4, 8, 6]	18	FR1	2	R1189M
1126.85	1.8	1173197	PROB	1.8	n/a	n/a	-999	10	[3, 6, 3]	12	FR1	2	R1189M
1128.65	2.919	1174997	PROB	2.919	n/a	n/a	-999	10	[4, 7, 9]	20	FR1	2	R1189M
1131.569	0.014	1177915	STOP	n/a	n/a	n/a	-999	10	[-999, -999, -999]	n/a	FR1	2	R1189M
1131.583	0.685	1177929	DISTRACT_END	n/a	n/a	n/a	-999	10	[0, 0, 0]	n/a	FR1	2	R1189M
1132.268	0.517	1178614	RETRIEVAL_ORIENT	n/a	n/a	n/a	-999	10	[0, 0, 0]	n/a	FR1	2	R1189M
1132.785	1.421	1179131	REC_START	n/a	n/a	n/a	-999	10	[0, 0, 0]	n/a	FR1	2	R1189M
1134.206	1.677	1180552	REC_WORD	1.677	n/a	PIN	-999	10	[0, 0, 0]	n/a	FR1	2	R1189M
1135.883	2.142	1182229	REC_WORD	2.142	n/a	CUP	-999	10	[0, 0, 0]	n/a	FR1	2	R1189M
1138.025	3.055	1184371	REC_WORD	3.055	n/a	SHIELD	-999	10	[0, 0, 0]	n/a	FR1	2	R1189M
1141.08	4.033	1187426	REC_WORD	4.033	n/a	JUDGE	-999	10	[0, 0, 0]	n/a	FR1	2	R1189M
1145.113	17.685	1191459	REC_WORD	17.685	n/a	BRUSH	-999	10	[0, 0, 0]	n/a	FR1	2	R1189M
1162.798	8.643	1209143	REC_END	n/a	n/a	n/a	-999	10	[0, 0, 0]	n/a	FR1	2	R1189M
1171.441	0.5	1217785	TRIAL	n/a	n/a	n/a	-999	11	[0, 0, 0]	n/a	FR1	2	R1189M
1171.941	10.428	1218285	COUNTDOWN_START	n/a	n/a	n/a	-999	11	[0, 0, 0]	n/a	FR1	2	R1189M
1182.369	0.008	1228713	COUNTDOWN_END	n/a	n/a	n/a	-999	11	[0, 0, 0]	n/a	FR1	2	R1189M
1182.377	1.618	1228721	ORIENT	n/a	n/a	n/a	-999	11	[0, 0, 0]	n/a	FR1	2	R1189M
1183.995	1.8	1230338	ORIENT_OFF	n/a	n/a	n/a	-999	11	[0, 0, 0]	n/a	FR1	2	R1189M
1185.795	1.616	1232138	WORD	n/a	wordpools/wordpool_EN.txt	PHONE	1	11	[0, 0, 0]	n/a	FR1	2	R1189M
1187.411	0.818	1233754	WORD_OFF	n/a	n/a	PHONE	1	11	[0, 0, 0]	n/a	FR1	2	R1189M
1188.229	1.617	1234572	WORD	n/a	wordpools/wordpool_EN.txt	LOCK	2	11	[0, 0, 0]	n/a	FR1	2	R1189M
1189.846	1.0	1236189	WORD_OFF	n/a	n/a	LOCK	2	11	[0, 0, 0]	n/a	FR1	2	R1189M
1190.846	1.616	1237189	WORD	n/a	wordpools/wordpool_EN.txt	SEAL	3	11	[0, 0, 0]	n/a	FR1	2	R1189M
1192.462	0.818	1238805	WORD_OFF	n/a	n/a	SEAL	3	11	[0, 0, 0]	n/a	FR1	2	R1189M
1193.28	1.617	1239623	WORD	n/a	wordpools/wordpool_EN.txt	PARK	4	11	[0, 0, 0]	n/a	FR1	2	R1189M
1194.897	0.849	1241240	WORD_OFF	n/a	n/a	PARK	4	11	[0, 0, 0]	n/a	FR1	2	R1189M
1195.746	1.617	1242089	WORD	n/a	wordpools/wordpool_EN.txt	WING	5	11	[0, 0, 0]	n/a	FR1	2	R1189M
1197.363	0.818	1243706	WORD_OFF	n/a	n/a	WING	5	11	[0, 0, 0]	n/a	FR1	2	R1189M
1198.181	1.617	1244524	WORD	n/a	wordpools/wordpool_EN.txt	ANT	6	11	[0, 0, 0]	n/a	FR1	2	R1189M
1199.798	0.982	1246141	WORD_OFF	n/a	n/a	ANT	6	11	[0, 0, 0]	n/a	FR1	2	R1189M
1200.78	1.617	1247122	WORD	n/a	wordpools/wordpool_EN.txt	BREAD	7	11	[0, 0, 0]	n/a	FR1	2	R1189M
1202.397	0.95	1248739	WORD_OFF	n/a	n/a	BREAD	7	11	[0, 0, 0]	n/a	FR1	2	R1189M
1203.347	1.601	1249689	WORD	n/a	wordpools/wordpool_EN.txt	TAIL	8	11	[0, 0, 0]	n/a	FR1	2	R1189M
1204.948	0.8	1251290	WORD_OFF	n/a	n/a	TAIL	8	11	[0, 0, 0]	n/a	FR1	2	R1189M
1205.748	1.617	1252090	WORD	n/a	wordpools/wordpool_EN.txt	HOOF	9	11	[0, 0, 0]	n/a	FR1	2	R1189M
1207.365	0.983	1253707	WORD_OFF	n/a	n/a	HOOF	9	11	[0, 0, 0]	n/a	FR1	2	R1189M
1208.348	1.618	1254690	WORD	n/a	wordpools/wordpool_EN.txt	FOOD	10	11	[0, 0, 0]	n/a	FR1	2	R1189M
1209.966	0.967	1256308	WORD_OFF	n/a	n/a	FOOD	10	11	[0, 0, 0]	n/a	FR1	2	R1189M
1210.933	1.616	1257275	WORD	n/a	wordpools/wordpool_EN.txt	BEE	11	11	[0, 0, 0]	n/a	FR1	2	R1189M
1212.549	0.984	1258891	WORD_OFF	n/a	n/a	BEE	11	11	[0, 0, 0]	n/a	FR1	2	R1189M
1213.533	1.618	1259875	WORD	n/a	wordpools/wordpool_EN.txt	ROCK	12	11	[0, 0, 0]	n/a	FR1	2	R1189M
1215.151	0.0	1261493	WORD_OFF	n/a	n/a	ROCK	12	11	[0, 0, 0]	n/a	FR1	2	R1189M
1215.151	0.0	1261493	DISTRACT_START	n/a	n/a	n/a	-999	11	[0, 0, 0]	n/a	FR1	2	R1189M
1215.151	0.016	1261493	START	n/a	n/a	n/a	-999	11	[-999, -999, -999]	n/a	FR1	2	R1189M
1215.167	4.367	1261509	PROB	4.367	n/a	n/a	-999	11	[6, 9, 5]	20	FR1	2	R1189M
1219.534	1.767	1265875	PROB	1.767	n/a	n/a	-999	11	[3, 6, 4]	13	FR1	2	R1189M
1221.301	2.25	1267642	PROB	2.25	n/a	n/a	-999	11	[4, 1, 3]	8	FR1	2	R1189M
1223.551	1.401	1269892	PROB	1.401	n/a	n/a	-999	11	[2, 8, 2]	12	FR1	2	R1189M
1224.952	2.051	1271293	PROB	2.051	n/a	n/a	-999	11	[7, 9, 3]	19	FR1	2	R1189M
1227.003	2.533	1273344	PROB	2.533	n/a	n/a	-999	11	[9, 4, 2]	15	FR1	2	R1189M
1229.536	3.385	1275877	PROB	3.385	n/a	n/a	-999	11	[3, 4, 4]	11	FR1	2	R1189M
1232.921	2.761	1279262	PROB	2.761	n/a	n/a	-999	11	[3, 9, 7]	19	FR1	2	R1189M
1235.682	0.022	1282023	STOP	n/a	n/a	n/a	-999	11	[-999, -999, -999]	n/a	FR1	2	R1189M
1235.704	0.666	1282045	DISTRACT_END	n/a	n/a	n/a	-999	11	[0, 0, 0]	n/a	FR1	2	R1189M
1236.37	0.519	1282710	RETRIEVAL_ORIENT	n/a	n/a	n/a	-999	11	[0, 0, 0]	n/a	FR1	2	R1189M
1236.889	1.173	1283229	REC_START	n/a	n/a	n/a	-999	11	[0, 0, 0]	n/a	FR1	2	R1189M
1238.062	1.623	1284402	REC_WORD	1.623	n/a	LOCK	-999	11	[0, 0, 0]	n/a	FR1	2	R1189M
1239.685	1.779	1286025	REC_WORD	1.779	n/a	PHONE	-999	11	[0, 0, 0]	n/a	FR1	2	R1189M
1241.464	2.122	1287804	REC_WORD	2.122	n/a	SEAL	-999	11	[0, 0, 0]	n/a	FR1	2	R1189M
1243.586	23.315	1289926	REC_WORD	23.315	n/a	PARK	-999	11	[0, 0, 0]	n/a	FR1	2	R1189M
1266.901	4.994	1313240	REC_END	n/a	n/a	n/a	-999	11	[0, 0, 0]	n/a	FR1	2	R1189M
1271.895	0.5	1318233	TRIAL	n/a	n/a	n/a	-999	12	[0, 0, 0]	n/a	FR1	2	R1189M
1272.395	10.428	1318733	COUNTDOWN_START	n/a	n/a	n/a	-999	12	[0, 0, 0]	n/a	FR1	2	R1189M
1282.823	0.007	1329161	COUNTDOWN_END	n/a	n/a	n/a	-999	12	[0, 0, 0]	n/a	FR1	2	R1189M
1282.83	1.616	1329168	ORIENT	n/a	n/a	n/a	-999	12	[0, 0, 0]	n/a	FR1	2	R1189M
1284.446	2.151	1330784	ORIENT_OFF	n/a	n/a	n/a	-999	12	[0, 0, 0]	n/a	FR1	2	R1189M
1286.597	1.618	1332935	WORD	n/a	wordpools/wordpool_EN.txt	CLOWN	1	12	[0, 0, 0]	n/a	FR1	2	R1189M
1288.215	0.95	1334553	WORD_OFF	n/a	n/a	CLOWN	1	12	[0, 0, 0]	n/a	FR1	2	R1189M
1289.165	1.616	1335502	WORD	n/a	wordpools/wordpool_EN.txt	HOUSE	2	12	[0, 0, 0]	n/a	FR1	2	R1189M
1290.781	0.817	1337118	WORD_OFF	n/a	n/a	HOUSE	2	12	[0, 0, 0]	n/a	FR1	2	R1189M
1291.598	1.618	1337935	WORD	n/a	wordpools/wordpool_EN.txt	STEAM	3	12	[0, 0, 0]	n/a	FR1	2	R1189M
1293.216	1.0	1339553	WORD_OFF	n/a	n/a	STEAM	3	12	[0, 0, 0]	n/a	FR1	2	R1189M
1294.216	1.617	1340553	WORD	n/a	wordpools/wordpool_EN.txt	ROPE	4	12	[0, 0, 0]	n/a	FR1	2	R1189M
1295.833	0.866	1342170	WORD_OFF	n/a	n/a	ROPE	4	12	[0, 0, 0]	n/a	FR1	2	R1189M
1296.699	1.617	1343036	WORD	n/a	wordpools/wordpool_EN.txt	COIN	5	12	[0, 0, 0]	n/a	FR1	2	R1189M
1298.316	0.983	1344653	WORD_OFF	n/a	n/a	COIN	5	12	[0, 0, 0]	n/a	FR1	2	R1189M
1299.299	1.601	1345636	WORD	n/a	wordpools/wordpool_EN.txt	SHELL	6	12	[0, 0, 0]	n/a	FR1	2	R1189M
1300.9	0.8	1347237	WORD_OFF	n/a	n/a	SHELL	6	12	[0, 0, 0]	n/a	FR1	2	R1189M
1301.7	1.617	1348037	WORD	n/a	wordpools/wordpool_EN.txt	HOOK	7	12	[0, 0, 0]	n/a	FR1	2	R1189M
1303.317	1.0	1349654	WORD_OFF	n/a	n/a	HOOK	7	12	[0, 0, 0]	n/a	FR1	2	R1189M
1304.317	1.618	1350654	WORD	n/a	wordpools/wordpool_EN.txt	PLANT	8	12	[0, 0, 0]	n/a	FR1	2	R1189M
1305.935	0.967	1352272	WORD_OFF	n/a	n/a	PLANT	8	12	[0, 0, 0]	n/a	FR1	2	R1189M
1306.902	1.616	1353238	WORD	n/a	wordpools/wordpool_EN.txt	SHIP	9	12	[0, 0, 0]	n/a	FR1	2	R1189M
1308.518	0.95	1354854	WORD_OFF	n/a	n/a	SHIP	9	12	[0, 0, 0]	n/a	FR1	2	R1189M
1309.468	1.618	1355804	WORD	n/a	wordpools/wordpool_EN.txt	GEESE	10	12	[0, 0, 0]	n/a	FR1	2	R1189M
1311.086	1.017	1357422	WORD_OFF	n/a	n/a	GEESE	10	12	[0, 0, 0]	n/a	FR1	2	R1189M
1312.103	1.616	1358439	WORD	n/a	wordpools/wordpool_EN.txt	FOAM	11	12	[0, 0, 0]	n/a	FR1	2	R1189M
1313.719	0.766	1360055	WORD_OFF	n/a	n/a	FOAM	11	12	[0, 0, 0]	n/a	FR1	2	R1189M
1314.485	1.618	1360821	WORD	n/a	wordpools/wordpool_EN.txt	TOY	12	12	[0, 0, 0]	n/a	FR1	2	R1189M
1316.103	0.0	1362439	WORD_OFF	n/a	n/a	TOY	12	12	[0, 0, 0]	n/a	FR1	2	R1189M
1316.103	0.001	1362439	DISTRACT_START	n/a	n/a	n/a	-999	12	[0, 0, 0]	n/a	FR1	2	R1189M
1316.104	0.016	1362440	START	n/a	n/a	n/a	-999	12	[-999, -999, -999]	n/a	FR1	2	R1189M
1316.12	5.567	1362456	PROB	5.567	n/a	n/a	-999	12	[5, 5, 8]	18	FR1	2	R1189M
1321.687	2.0	1368023	PROB	2.0	n/a	n/a	-999	12	[5, 5, 2]	12	FR1	2	R1189M
1323.687	3.018	1370023	PROB	3.018	n/a	n/a	-999	12	[5, 4, 7]	16	FR1	2	R1189M
1326.705	4.817	1373040	PROB	4.817	n/a	n/a	-999	12	[7, 2, 5]	14	FR1	2	R1189M
1331.522	2.951	1377857	PROB	2.951	n/a	n/a	-999	12	[4, 2, 4]	10	FR1	2	R1189M
1334.473	2.505	1380808	PROB	2.505	n/a	n/a	-999	12	[8, 1, 6]	15	FR1	2	R1189M
1336.978	0.013	1383313	STOP	n/a	n/a	n/a	-999	12	[-999, -999, -999]	n/a	FR1	2	R1189M
1336.991	0.632	1383326	DISTRACT_END	n/a	n/a	n/a	-999	12	[0, 0, 0]	n/a	FR1	2	R1189M
1337.623	0.519	1383958	RETRIEVAL_ORIENT	n/a	n/a	n/a	-999	12	[0, 0, 0]	n/a	FR1	2	R1189M
1338.142	3.185	1384477	REC_START	n/a	n/a	n/a	-999	12	[0, 0, 0]	n/a	FR1	2	R1189M
1341.327	0.833	1387662	REC_WORD_VV	0.833	n/a	<>	-999	12	[0, 0, 0]	n/a	FR1	2	R1189M
1342.16	8.533	1388494	REC_WORD	8.533	n/a	SHIP	-999	12	[0, 0, 0]	n/a	FR1	2	R1189M
1350.693	17.46	1397027	REC_WORD	17.46	n/a	FOAM	-999	12	[0, 0, 0]	n/a	FR1	2	R1189M
1368.153	4.41	1414486	REC_END	n/a	n/a	n/a	-999	12	[0, 0, 0]	n/a	FR1	2	R1189M
1372.563	0.5	1418896	TRIAL	n/a	n/a	n/a	-999	13	[0, 0, 0]	n/a	FR1	2	R1189M
1373.063	10.428	1419396	COUNTDOWN_START	n/a	n/a	n/a	-999	13	[0, 0, 0]	n/a	FR1	2	R1189M
1383.491	0.008	1429823	COUNTDOWN_END	n/a	n/a	n/a	-999	13	[0, 0, 0]	n/a	FR1	2	R1189M
1383.499	1.601	1429831	ORIENT	n/a	n/a	n/a	-999	13	[0, 0, 0]	n/a	FR1	2	R1189M
1385.1	1.9	1431432	ORIENT_OFF	n/a	n/a	n/a	-999	13	[0, 0, 0]	n/a	FR1	2	R1189M
1387.0	1.616	1433332	WORD	n/a	wordpools/wordpool_EN.txt	DOLL	1	13	[0, 0, 0]	n/a	FR1	2	R1189M
1388.616	0.817	1434948	WORD_OFF	n/a	n/a	DOLL	1	13	[0, 0, 0]	n/a	FR1	2	R1189M
1389.433	1.602	1435765	WORD	n/a	wordpools/wordpool_EN.txt	THUMB	2	13	[0, 0, 0]	n/a	FR1	2	R1189M
1391.035	0.983	1437367	WORD_OFF	n/a	n/a	THUMB	2	13	[0, 0, 0]	n/a	FR1	2	R1189M
1392.018	1.616	1438350	WORD	n/a	wordpools/wordpool_EN.txt	MULE	3	13	[0, 0, 0]	n/a	FR1	2	R1189M
1393.634	1.0	1439966	WORD_OFF	n/a	n/a	MULE	3	13	[0, 0, 0]	n/a	FR1	2	R1189M
1394.634	1.618	1440965	WORD	n/a	wordpools/wordpool_EN.txt	MOOSE	4	13	[0, 0, 0]	n/a	FR1	2	R1189M
1396.252	0.783	1442583	WORD_OFF	n/a	n/a	MOOSE	4	13	[0, 0, 0]	n/a	FR1	2	R1189M
1397.035	1.617	1443366	WORD	n/a	wordpools/wordpool_EN.txt	GOAT	5	13	[0, 0, 0]	n/a	FR1	2	R1189M
1398.652	0.833	1444983	WORD_OFF	n/a	n/a	GOAT	5	13	[0, 0, 0]	n/a	FR1	2	R1189M
1399.485	1.618	1445816	WORD	n/a	wordpools/wordpool_EN.txt	MUG	6	13	[0, 0, 0]	n/a	FR1	2	R1189M
1401.103	0.95	1447434	WORD_OFF	n/a	n/a	MUG	6	13	[0, 0, 0]	n/a	FR1	2	R1189M
1402.053	1.616	1448384	WORD	n/a	wordpools/wordpool_EN.txt	HORN	7	13	[0, 0, 0]	n/a	FR1	2	R1189M
1403.669	0.917	1450000	WORD_OFF	n/a	n/a	HORN	7	13	[0, 0, 0]	n/a	FR1	2	R1189M
1404.586	1.618	1450917	WORD	n/a	wordpools/wordpool_EN.txt	TOAD	8	13	[0, 0, 0]	n/a	FR1	2	R1189M
1406.204	0.817	1452535	WORD_OFF	n/a	n/a	TOAD	8	13	[0, 0, 0]	n/a	FR1	2	R1189M
1407.021	1.616	1453352	WORD	n/a	wordpools/wordpool_EN.txt	DEER	9	13	[0, 0, 0]	n/a	FR1	2	R1189M
1408.637	0.95	1454968	WORD_OFF	n/a	n/a	DEER	9	13	[0, 0, 0]	n/a	FR1	2	R1189M
1409.587	1.618	1455918	WORD	n/a	wordpools/wordpool_EN.txt	HOLE	10	13	[0, 0, 0]	n/a	FR1	2	R1189M
1411.205	0.817	1457536	WORD_OFF	n/a	n/a	HOLE	10	13	[0, 0, 0]	n/a	FR1	2	R1189M
1412.022	1.616	1458352	WORD	n/a	wordpools/wordpool_EN.txt	FRUIT	11	13	[0, 0, 0]	n/a	FR1	2	R1189M
1413.638	0.967	1459968	WORD_OFF	n/a	n/a	FRUIT	11	13	[0, 0, 0]	n/a	FR1	2	R1189M
1414.605	1.618	1460935	WORD	n/a	wordpools/wordpool_EN.txt	LAND	12	13	[0, 0, 0]	n/a	FR1	2	R1189M
1416.223	0.0	1462553	WORD_OFF	n/a	n/a	LAND	12	13	[0, 0, 0]	n/a	FR1	2	R1189M
1416.223	0.0	1462553	DISTRACT_START	n/a	n/a	n/a	-999	13	[0, 0, 0]	n/a	FR1	2	R1189M
1416.223	0.016	1462553	START	n/a	n/a	n/a	-999	13	[-999, -999, -999]	n/a	FR1	2	R1189M
1416.239	7.685	1462569	PROB	7.685	n/a	n/a	-999	13	[8, 9, 3]	20	FR1	2	R1189M
1423.924	3.918	1470254	PROB	3.918	n/a	n/a	-999	13	[4, 7, 6]	17	FR1	2	R1189M
1427.842	2.183	1474172	PROB	2.183	n/a	n/a	-999	13	[1, 7, 5]	13	FR1	2	R1189M
1430.025	2.117	1476354	PROB	2.117	n/a	n/a	-999	13	[3, 9, 3]	15	FR1	2	R1189M
1432.142	2.118	1478471	PROB	2.118	n/a	n/a	-999	13	[1, 7, 8]	16	FR1	2	R1189M
1434.26	2.094	1480589	PROB	2.094	n/a	n/a	-999	13	[9, 4, 3]	16	FR1	2	R1189M
1436.354	0.022	1482683	STOP	n/a	n/a	n/a	-999	13	[-999, -999, -999]	n/a	FR1	2	R1189M
1436.376	0.617	1482705	DISTRACT_END	n/a	n/a	n/a	-999	13	[0, 0, 0]	n/a	FR1	2	R1189M
1436.993	0.517	1483322	RETRIEVAL_ORIENT	n/a	n/a	n/a	-999	13	[0, 0, 0]	n/a	FR1	2	R1189M
1437.51	1.363	1483839	REC_START	n/a	n/a	n/a	-999	13	[0, 0, 0]	n/a	FR1	2	R1189M
1438.873	1.689	1485202	REC_WORD	1.689	n/a	DOLL	-999	13	[0, 0, 0]	n/a	FR1	2	R1189M
1440.562	2.183	1486891	REC_WORD	2.183	n/a	THUMB	-999	13	[0, 0, 0]	n/a	FR1	2	R1189M
1442.745	2.038	1489074	REC_WORD	2.038	n/a	MULE	-999	13	[0, 0, 0]	n/a	FR1	2	R1189M
1444.783	2.086	1491112	REC_WORD	2.086	n/a	MOOSE	-999	13	[0, 0, 0]	n/a	FR1	2	R1189M
1446.869	1.798	1493198	REC_WORD	1.798	n/a	GOAT	-999	13	[0, 0, 0]	n/a	FR1	2	R1189M
1448.667	18.854	1494995	REC_WORD	18.854	n/a	MUG	-999	13	[0, 0, 0]	n/a	FR1	2	R1189M
1467.521	5.045	1513848	REC_END	n/a	n/a	n/a	-999	13	[0, 0, 0]	n/a	FR1	2	R1189M
1472.566	0.5	1518893	TRIAL	n/a	n/a	n/a	-999	14	[0, 0, 0]	n/a	FR1	2	R1189M
1473.066	10.428	1519393	COUNTDOWN_START	n/a	n/a	n/a	-999	14	[0, 0, 0]	n/a	FR1	2	R1189M
1483.494	0.007	1529820	COUNTDOWN_END	n/a	n/a	n/a	-999	14	[0, 0, 0]	n/a	FR1	2	R1189M
1483.501	1.602	1529827	ORIENT	n/a	n/a	n/a	-999	14	[0, 0, 0]	n/a	FR1	2	R1189M
1485.103	2.133	1531429	ORIENT_OFF	n/a	n/a	n/a	-999	14	[0, 0, 0]	n/a	FR1	2	R1189M
1487.236	1.617	1533562	WORD	n/a	wordpools/wordpool_EN.txt	BOAT	1	14	[0, 0, 0]	n/a	FR1	2	R1189M
1488.853	0.8	1535179	WORD_OFF	n/a	n/a	BOAT	1	14	[0, 0, 0]	n/a	FR1	2	R1189M
1489.653	1.618	1535979	WORD	n/a	wordpools/wordpool_EN.txt	LAKE	2	14	[0, 0, 0]	n/a	FR1	2	R1189M
1491.271	0.833	1537597	WORD_OFF	n/a	n/a	LAKE	2	14	[0, 0, 0]	n/a	FR1	2	R1189M
1492.104	1.616	1538430	WORD	n/a	wordpools/wordpool_EN.txt	SHIRT	3	14	[0, 0, 0]	n/a	FR1	2	R1189M
1493.72	0.8	1540046	WORD_OFF	n/a	n/a	SHIRT	3	14	[0, 0, 0]	n/a	FR1	2	R1189M
1494.52	1.601	1540846	WORD	n/a	wordpools/wordpool_EN.txt	BAND	4	14	[0, 0, 0]	n/a	FR1	2	R1189M
1496.121	0.834	1542447	WORD_OFF	n/a	n/a	BAND	4	14	[0, 0, 0]	n/a	FR1	2	R1189M
1496.955	1.616	1543281	WORD	n/a	wordpools/wordpool_EN.txt	SLUSH	5	14	[0, 0, 0]	n/a	FR1	2	R1189M
1498.571	0.917	1544897	WORD_OFF	n/a	n/a	SLUSH	5	14	[0, 0, 0]	n/a	FR1	2	R1189M
1499.488	1.618	1545814	WORD	n/a	wordpools/wordpool_EN.txt	CLOCK	6	14	[0, 0, 0]	n/a	FR1	2	R1189M
1501.106	0.783	1547431	WORD_OFF	n/a	n/a	CLOCK	6	14	[0, 0, 0]	n/a	FR1	2	R1189M
1501.889	1.616	1548214	WORD	n/a	wordpools/wordpool_EN.txt	BOARD	7	14	[0, 0, 0]	n/a	FR1	2	R1189M
1503.505	0.785	1549830	WORD_OFF	n/a	n/a	BOARD	7	14	[0, 0, 0]	n/a	FR1	2	R1189M
1504.29	1.617	1550615	WORD	n/a	wordpools/wordpool_EN.txt	PASTE	8	14	[0, 0, 0]	n/a	FR1	2	R1189M
1505.907	0.832	1552232	WORD_OFF	n/a	n/a	PASTE	8	14	[0, 0, 0]	n/a	FR1	2	R1189M
1506.739	1.617	1553064	WORD	n/a	wordpools/wordpool_EN.txt	STEAK	9	14	[0, 0, 0]	n/a	FR1	2	R1189M
1508.356	0.984	1554681	WORD_OFF	n/a	n/a	STEAK	9	14	[0, 0, 0]	n/a	FR1	2	R1189M
1509.34	1.601	1555665	WORD	n/a	wordpools/wordpool_EN.txt	BOY	10	14	[0, 0, 0]	n/a	FR1	2	R1189M
1510.941	0.984	1557266	WORD_OFF	n/a	n/a	BOY	10	14	[0, 0, 0]	n/a	FR1	2	R1189M
1511.925	1.616	1558250	WORD	n/a	wordpools/wordpool_EN.txt	SHEET	11	14	[0, 0, 0]	n/a	FR1	2	R1189M
1513.541	0.816	1559866	WORD_OFF	n/a	n/a	SHEET	11	14	[0, 0, 0]	n/a	FR1	2	R1189M
1514.357	1.602	1560682	WORD	n/a	wordpools/wordpool_EN.txt	JUICE	12	14	[0, 0, 0]	n/a	FR1	2	R1189M
1515.959	0.0	1562284	WORD_OFF	n/a	n/a	JUICE	12	14	[0, 0, 0]	n/a	FR1	2	R1189M
1515.959	0.0	1562284	DISTRACT_START	n/a	n/a	n/a	-999	14	[0, 0, 0]	n/a	FR1	2	R1189M
1515.959	0.016	1562284	START	n/a	n/a	n/a	-999	14	[-999, -999, -999]	n/a	FR1	2	R1189M
1515.975	3.717	1562300	PROB	3.717	n/a	n/a	-999	14	[1, 1, 2]	4	FR1	2	R1189M
1519.692	4.418	1566016	PROB	4.418	n/a	n/a	-999	14	[7, 5, 4]	16	FR1	2	R1189M
1524.11	6.185	1570434	PROB	6.185	n/a	n/a	-999	14	[2, 2, 1]	5	FR1	2	R1189M
1530.295	4.383	1576619	PROB	4.383	n/a	n/a	-999	14	[8, 7, 2]	17	FR1	2	R1189M
1534.678	2.205	1581002	PROB	2.205	n/a	n/a	-999	14	[9, 8, 4]	21	FR1	2	R1189M
1536.883	0.013	1583206	STOP	n/a	n/a	n/a	-999	14	[-999, -999, -999]	n/a	FR1	2	R1189M
1536.896	0.633	1583219	DISTRACT_END	n/a	n/a	n/a	-999	14	[0, 0, 0]	n/a	FR1	2	R1189M
1537.529	0.518	1583852	RETRIEVAL_ORIENT	n/a	n/a	n/a	-999	14	[0, 0, 0]	n/a	FR1	2	R1189M
1538.047	1.358	1584370	REC_START	n/a	n/a	n/a	-999	14	[0, 0, 0]	n/a	FR1	2	R1189M
1539.405	1.879	1585728	REC_WORD	1.879	n/a	BOAT	-999	14	[0, 0, 0]	n/a	FR1	2	R1189M
1541.284	0.972	1587607	REC_WORD	0.972	n/a	LEG	-999	14	[0, 0, 0]	n/a	FR1	2	R1189M
1542.256	0.986	1588579	REC_WORD	0.986	n/a	LAKE	-999	14	[0, 0, 0]	n/a	FR1	2	R1189M
1543.242	0.361	1589565	REC_WORD_VV	0.361	n/a	<>	-999	14	[0, 0, 0]	n/a	FR1	2	R1189M
1543.603	0.874	1589926	REC_WORD	0.874	n/a	LAKE	-999	14	[0, 0, 0]	n/a	FR1	2	R1189M
1544.477	2.014	1590800	REC_WORD_VV	2.014	n/a	<>	-999	14	[0, 0, 0]	n/a	FR1	2	R1189M
1546.491	1.791	1592814	REC_WORD	1.791	n/a	SHIRT	-999	14	[0, 0, 0]	n/a	FR1	2	R1189M
1548.282	1.561	1594605	REC_WORD	1.561	n/a	BAND	-999	14	[0, 0, 0]	n/a	FR1	2	R1189M
1549.843	2.155	1596166	REC_WORD	2.155	n/a	STEAK	-999	14	[0, 0, 0]	n/a	FR1	2	R1189M
1551.998	16.061	1598321	REC_WORD	16.061	n/a	BOY	-999	14	[0, 0, 0]	n/a	FR1	2	R1189M
1568.059	5.527	1614381	REC_END	n/a	n/a	n/a	-999	14	[0, 0, 0]	n/a	FR1	2	R1189M
1573.586	0.5	1619907	TRIAL	n/a	n/a	n/a	-999	15	[0, 0, 0]	n/a	FR1	2	R1189M
1574.086	10.428	1620407	COUNTDOWN_START	n/a	n/a	n/a	-999	15	[0, 0, 0]	n/a	FR1	2	R1189M
1584.514	0.007	1630835	COUNTDOWN_END	n/a	n/a	n/a	-999	15	[0, 0, 0]	n/a	FR1	2	R1189M
1584.521	1.618	1630842	ORIENT	n/a	n/a	n/a	-999	15	[0, 0, 0]	n/a	FR1	2	R1189M
1586.139	2.134	1632460	ORIENT_OFF	n/a	n/a	n/a	-999	15	[0, 0, 0]	n/a	FR1	2	R1189M
1588.273	1.617	1634593	WORD	n/a	wordpools/wordpool_EN.txt	SPEAR	1	15	[0, 0, 0]	n/a	FR1	2	R1189M
1589.89	0.967	1636210	WORD_OFF	n/a	n/a	SPEAR	1	15	[0, 0, 0]	n/a	FR1	2	R1189M
1590.857	1.616	1637177	WORD	n/a	wordpools/wordpool_EN.txt	SALT	2	15	[0, 0, 0]	n/a	FR1	2	R1189M
1592.473	0.817	1638793	WORD_OFF	n/a	n/a	SALT	2	15	[0, 0, 0]	n/a	FR1	2	R1189M
1593.29	1.617	1639610	WORD	n/a	wordpools/wordpool_EN.txt	MAT	3	15	[0, 0, 0]	n/a	FR1	2	R1189M
1594.907	0.917	1641227	WORD_OFF	n/a	n/a	MAT	3	15	[0, 0, 0]	n/a	FR1	2	R1189M
1595.824	1.616	1642144	WORD	n/a	wordpools/wordpool_EN.txt	BEAR	4	15	[0, 0, 0]	n/a	FR1	2	R1189M
1597.44	0.95	1643760	WORD_OFF	n/a	n/a	BEAR	4	15	[0, 0, 0]	n/a	FR1	2	R1189M
1598.39	1.601	1644710	WORD	n/a	wordpools/wordpool_EN.txt	YARD	5	15	[0, 0, 0]	n/a	FR1	2	R1189M
1599.991	0.818	1646311	WORD_OFF	n/a	n/a	YARD	5	15	[0, 0, 0]	n/a	FR1	2	R1189M
1600.809	1.615	1647129	WORD	n/a	wordpools/wordpool_EN.txt	RIB	6	15	[0, 0, 0]	n/a	FR1	2	R1189M
1602.424	0.901	1648744	WORD_OFF	n/a	n/a	RIB	6	15	[0, 0, 0]	n/a	FR1	2	R1189M
1603.325	1.618	1649645	WORD	n/a	wordpools/wordpool_EN.txt	DUCK	7	15	[0, 0, 0]	n/a	FR1	2	R1189M
1604.943	0.85	1651263	WORD_OFF	n/a	n/a	DUCK	7	15	[0, 0, 0]	n/a	FR1	2	R1189M
1605.793	1.616	1652112	WORD	n/a	wordpools/wordpool_EN.txt	CART	8	15	[0, 0, 0]	n/a	FR1	2	R1189M
1607.409	0.784	1653728	WORD_OFF	n/a	n/a	CART	8	15	[0, 0, 0]	n/a	FR1	2	R1189M
1608.193	1.617	1654512	WORD	n/a	wordpools/wordpool_EN.txt	PET	9	15	[0, 0, 0]	n/a	FR1	2	R1189M
1609.81	0.866	1656129	WORD_OFF	n/a	n/a	PET	9	15	[0, 0, 0]	n/a	FR1	2	R1189M
1610.676	1.618	1656995	WORD	n/a	wordpools/wordpool_EN.txt	CLAY	10	15	[0, 0, 0]	n/a	FR1	2	R1189M
1612.294	0.984	1658613	WORD_OFF	n/a	n/a	CLAY	10	15	[0, 0, 0]	n/a	FR1	2	R1189M
1613.278	1.617	1659597	WORD	n/a	wordpools/wordpool_EN.txt	SAIL	11	15	[0, 0, 0]	n/a	FR1	2	R1189M
1614.895	0.882	1661214	WORD_OFF	n/a	n/a	SAIL	11	15	[0, 0, 0]	n/a	FR1	2	R1189M
1615.777	1.617	1662096	WORD	n/a	wordpools/wordpool_EN.txt	PEACH	12	15	[0, 0, 0]	n/a	FR1	2	R1189M
1617.394	0.0	1663713	WORD_OFF	n/a	n/a	PEACH	12	15	[0, 0, 0]	n/a	FR1	2	R1189M
1617.394	0.001	1663713	DISTRACT_START	n/a	n/a	n/a	-999	15	[0, 0, 0]	n/a	FR1	2	R1189M
1617.395	0.016	1663714	START	n/a	n/a	n/a	-999	15	[-999, -999, -999]	n/a	FR1	2	R1189M
1617.411	4.535	1663730	PROB	4.535	n/a	n/a	-999	15	[3, 7, 7]	17	FR1	2	R1189M
1621.946	3.967	1668265	PROB	3.967	n/a	n/a	-999	15	[8, 7, 4]	19	FR1	2	R1189M
1625.913	2.417	1672231	PROB	2.417	n/a	n/a	-999	15	[9, 3, 8]	20	FR1	2	R1189M
1628.33	2.267	1674648	PROB	2.267	n/a	n/a	-999	15	[6, 6, 4]	16	FR1	2	R1189M
1630.597	2.917	1676915	PROB	2.917	n/a	n/a	-999	15	[4, 8, 8]	20	FR1	2	R1189M
1633.514	2.551	1679832	PROB	2.551	n/a	n/a	-999	15	[4, 7, 8]	19	FR1	2	R1189M
1636.065	1.818	1682383	PROB	1.818	n/a	n/a	-999	15	[5, 1, 1]	7	FR1	2	R1189M
1637.883	0.016	1684201	STOP	n/a	n/a	n/a	-999	15	[-999, -999, -999]	n/a	FR1	2	R1189M
1637.899	0.549	1684217	DISTRACT_END	n/a	n/a	n/a	-999	15	[0, 0, 0]	n/a	FR1	2	R1189M
1638.448	0.518	1684766	RETRIEVAL_ORIENT	n/a	n/a	n/a	-999	15	[0, 0, 0]	n/a	FR1	2	R1189M
1638.966	1.295	1685284	REC_START	n/a	n/a	n/a	-999	15	[0, 0, 0]	n/a	FR1	2	R1189M
1640.261	1.93	1686579	REC_WORD	1.93	n/a	SPEAR	-999	15	[0, 0, 0]	n/a	FR1	2	R1189M
1642.191	1.781	1688508	REC_WORD	1.781	n/a	SALT	-999	15	[0, 0, 0]	n/a	FR1	2	R1189M
1643.972	2.018	1690289	REC_WORD	2.018	n/a	MAT	-999	15	[0, 0, 0]	n/a	FR1	2	R1189M
1645.99	2.087	1692307	REC_WORD	2.087	n/a	RIB	-999	15	[0, 0, 0]	n/a	FR1	2	R1189M
1648.077	20.901	1694394	REC_WORD	20.901	n/a	CART	-999	15	[0, 0, 0]	n/a	FR1	2	R1189M
1668.978	4.845	1715294	REC_END	n/a	n/a	n/a	-999	15	[0, 0, 0]	n/a	FR1	2	R1189M
1673.823	0.5	1720139	TRIAL	n/a	n/a	n/a	-999	16	[0, 0, 0]	n/a	FR1	2	R1189M
1674.323	10.428	1720639	COUNTDOWN_START	n/a	n/a	n/a	-999	16	[0, 0, 0]	n/a	FR1	2	R1189M
1684.751	0.006	1731066	COUNTDOWN_END	n/a	n/a	n/a	-999	16	[0, 0, 0]	n/a	FR1	2	R1189M
1684.757	1.617	1731072	ORIENT	n/a	n/a	n/a	-999	16	[0, 0, 0]	n/a	FR1	2	R1189M
1686.374	2.3	1732689	ORIENT_OFF	n/a	n/a	n/a	-999	16	[0, 0, 0]	n/a	FR1	2	R1189M
1688.674	1.618	1734989	WORD	n/a	wordpools/wordpool_EN.txt	PURSE	1	16	[0, 0, 0]	n/a	FR1	2	R1189M
1690.292	0.901	1736607	WORD_OFF	n/a	n/a	PURSE	1	16	[0, 0, 0]	n/a	FR1	2	R1189M
1691.193	1.617	1737508	WORD	n/a	wordpools/wordpool_EN.txt	BEACH	2	16	[0, 0, 0]	n/a	FR1	2	R1189M
1692.81	0.899	1739125	WORD_OFF	n/a	n/a	BEACH	2	16	[0, 0, 0]	n/a	FR1	2	R1189M
1693.709	1.617	1740023	WORD	n/a	wordpools/wordpool_EN.txt	SMILE	3	16	[0, 0, 0]	n/a	FR1	2	R1189M
1695.326	0.934	1741640	WORD_OFF	n/a	n/a	SMILE	3	16	[0, 0, 0]	n/a	FR1	2	R1189M
1696.26	1.617	1742574	WORD	n/a	wordpools/wordpool_EN.txt	FISH	4	16	[0, 0, 0]	n/a	FR1	2	R1189M
1697.877	0.766	1744191	WORD_OFF	n/a	n/a	FISH	4	16	[0, 0, 0]	n/a	FR1	2	R1189M
1698.643	1.618	1744957	WORD	n/a	wordpools/wordpool_EN.txt	BOMB	5	16	[0, 0, 0]	n/a	FR1	2	R1189M
1700.261	0.85	1746575	WORD_OFF	n/a	n/a	BOMB	5	16	[0, 0, 0]	n/a	FR1	2	R1189M
1701.111	1.616	1747425	WORD	n/a	wordpools/wordpool_EN.txt	MILK	6	16	[0, 0, 0]	n/a	FR1	2	R1189M
1702.727	0.817	1749041	WORD_OFF	n/a	n/a	MILK	6	16	[0, 0, 0]	n/a	FR1	2	R1189M
1703.544	1.618	1749858	WORD	n/a	wordpools/wordpool_EN.txt	FROG	7	16	[0, 0, 0]	n/a	FR1	2	R1189M
1705.162	0.767	1751476	WORD_OFF	n/a	n/a	FROG	7	16	[0, 0, 0]	n/a	FR1	2	R1189M
1705.929	1.616	1752243	WORD	n/a	wordpools/wordpool_EN.txt	CONE	8	16	[0, 0, 0]	n/a	FR1	2	R1189M
1707.545	0.833	1753859	WORD_OFF	n/a	n/a	CONE	8	16	[0, 0, 0]	n/a	FR1	2	R1189M
1708.378	1.601	1754692	WORD	n/a	wordpools/wordpool_EN.txt	WORM	9	16	[0, 0, 0]	n/a	FR1	2	R1189M
1709.979	0.884	1756293	WORD_OFF	n/a	n/a	WORM	9	16	[0, 0, 0]	n/a	FR1	2	R1189M
1710.863	1.616	1757176	WORD	n/a	wordpools/wordpool_EN.txt	WHEEL	10	16	[0, 0, 0]	n/a	FR1	2	R1189M
1712.479	0.984	1758792	WORD_OFF	n/a	n/a	WHEEL	10	16	[0, 0, 0]	n/a	FR1	2	R1189M
1713.463	1.618	1759776	WORD	n/a	wordpools/wordpool_EN.txt	BRIDGE	11	16	[0, 0, 0]	n/a	FR1	2	R1189M
1715.081	0.883	1761394	WORD_OFF	n/a	n/a	BRIDGE	11	16	[0, 0, 0]	n/a	FR1	2	R1189M
1715.964	1.616	1762277	WORD	n/a	wordpools/wordpool_EN.txt	SCHOOL	12	16	[0, 0, 0]	n/a	FR1	2	R1189M
1717.58	0.0	1763893	WORD_OFF	n/a	n/a	SCHOOL	12	16	[0, 0, 0]	n/a	FR1	2	R1189M
1717.58	0.001	1763893	DISTRACT_START	n/a	n/a	n/a	-999	16	[0, 0, 0]	n/a	FR1	2	R1189M
1717.581	0.016	1763894	START	n/a	n/a	n/a	-999	16	[-999, -999, -999]	n/a	FR1	2	R1189M
1717.597	5.535	1763910	PROB	5.535	n/a	n/a	-999	16	[4, 7, 1]	12	FR1	2	R1189M
1723.132	3.768	1769445	PROB	3.768	n/a	n/a	-999	16	[2, 5, 8]	15	FR1	2	R1189M
1726.9	2.283	1773213	PROB	2.283	n/a	n/a	-999	16	[4, 4, 7]	15	FR1	2	R1189M
1729.183	2.884	1775495	PROB	2.884	n/a	n/a	-999	16	[6, 9, 1]	16	FR1	2	R1189M
1732.067	4.7	1778379	PROB	4.7	n/a	n/a	-999	16	[1, 8, 7]	16	FR1	2	R1189M
1736.767	2.171	1783079	PROB	2.171	n/a	n/a	-999	16	[1, 3, 4]	8	FR1	2	R1189M
1738.938	0.014	1785250	STOP	n/a	n/a	n/a	-999	16	[-999, -999, -999]	n/a	FR1	2	R1189M
1738.952	0.532	1785264	DISTRACT_END	n/a	n/a	n/a	-999	16	[0, 0, 0]	n/a	FR1	2	R1189M
1739.484	0.519	1785796	RETRIEVAL_ORIENT	n/a	n/a	n/a	-999	16	[0, 0, 0]	n/a	FR1	2	R1189M
1740.003	1.329	1786315	REC_START	n/a	n/a	n/a	-999	16	[0, 0, 0]	n/a	FR1	2	R1189M
1741.332	1.97	1787644	REC_WORD	1.97	n/a	FISH	-999	16	[0, 0, 0]	n/a	FR1	2	R1189M
1743.302	2.132	1789614	REC_WORD	2.132	n/a	SMILE	-999	16	[0, 0, 0]	n/a	FR1	2	R1189M
1745.434	2.333	1791746	REC_WORD	2.333	n/a	FROG	-999	16	[0, 0, 0]	n/a	FR1	2	R1189M
1747.767	2.063	1794078	REC_WORD	2.063	n/a	CONE	-999	16	[0, 0, 0]	n/a	FR1	2	R1189M
1749.83	1.964	1796141	REC_WORD	1.964	n/a	WORM	-999	16	[0, 0, 0]	n/a	FR1	2	R1189M
1751.794	18.221	1798105	REC_WORD	18.221	n/a	WHEEL	-999	16	[0, 0, 0]	n/a	FR1	2	R1189M
1770.015	4.11	1816325	REC_END	n/a	n/a	n/a	-999	16	[0, 0, 0]	n/a	FR1	2	R1189M
1774.125	0.5	1820435	TRIAL	n/a	n/a	n/a	-999	17	[0, 0, 0]	n/a	FR1	2	R1189M
1774.625	10.428	1820935	COUNTDOWN_START	n/a	n/a	n/a	-999	17	[0, 0, 0]	n/a	FR1	2	R1189M
1785.053	0.008	1831362	COUNTDOWN_END	n/a	n/a	n/a	-999	17	[0, 0, 0]	n/a	FR1	2	R1189M
1785.061	1.616	1831370	ORIENT	n/a	n/a	n/a	-999	17	[0, 0, 0]	n/a	FR1	2	R1189M
1786.677	2.318	1832986	ORIENT_OFF	n/a	n/a	n/a	-999	17	[0, 0, 0]	n/a	FR1	2	R1189M
1788.995	1.616	1835304	WORD	n/a	wordpools/wordpool_EN.txt	SKUNK	1	17	[0, 0, 0]	n/a	FR1	2	R1189M
1790.611	0.9	1836920	WORD_OFF	n/a	n/a	SKUNK	1	17	[0, 0, 0]	n/a	FR1	2	R1189M
1791.511	1.618	1837820	WORD	n/a	wordpools/wordpool_EN.txt	SNAKE	2	17	[0, 0, 0]	n/a	FR1	2	R1189M
1793.129	0.817	1839438	WORD_OFF	n/a	n/a	SNAKE	2	17	[0, 0, 0]	n/a	FR1	2	R1189M
1793.946	1.616	1840255	WORD	n/a	wordpools/wordpool_EN.txt	CHIEF	3	17	[0, 0, 0]	n/a	FR1	2	R1189M
1795.562	0.867	1841871	WORD_OFF	n/a	n/a	CHIEF	3	17	[0, 0, 0]	n/a	FR1	2	R1189M
1796.429	1.618	1842738	WORD	n/a	wordpools/wordpool_EN.txt	DOG	4	17	[0, 0, 0]	n/a	FR1	2	R1189M
1798.047	0.833	1844356	WORD_OFF	n/a	n/a	DOG	4	17	[0, 0, 0]	n/a	FR1	2	R1189M
1798.88	1.616	1845188	WORD	n/a	wordpools/wordpool_EN.txt	SKY	5	17	[0, 0, 0]	n/a	FR1	2	R1189M
1800.496	0.867	1846804	WORD_OFF	n/a	n/a	SKY	5	17	[0, 0, 0]	n/a	FR1	2	R1189M
1801.363	1.618	1847671	WORD	n/a	wordpools/wordpool_EN.txt	FORK	6	17	[0, 0, 0]	n/a	FR1	2	R1189M
1802.981	1.0	1849289	WORD_OFF	n/a	n/a	FORK	6	17	[0, 0, 0]	n/a	FR1	2	R1189M
1803.981	1.616	1850289	WORD	n/a	wordpools/wordpool_EN.txt	BANK	7	17	[0, 0, 0]	n/a	FR1	2	R1189M
1805.597	0.884	1851905	WORD_OFF	n/a	n/a	BANK	7	17	[0, 0, 0]	n/a	FR1	2	R1189M
1806.481	1.618	1852789	WORD	n/a	wordpools/wordpool_EN.txt	ARK	8	17	[0, 0, 0]	n/a	FR1	2	R1189M
1808.099	0.983	1854407	WORD_OFF	n/a	n/a	ARK	8	17	[0, 0, 0]	n/a	FR1	2	R1189M
1809.082	1.616	1855390	WORD	n/a	wordpools/wordpool_EN.txt	BRANCH	9	17	[0, 0, 0]	n/a	FR1	2	R1189M
1810.698	0.934	1857006	WORD_OFF	n/a	n/a	BRANCH	9	17	[0, 0, 0]	n/a	FR1	2	R1189M
1811.632	1.618	1857940	WORD	n/a	wordpools/wordpool_EN.txt	MOUSE	10	17	[0, 0, 0]	n/a	FR1	2	R1189M
1813.25	0.866	1859558	WORD_OFF	n/a	n/a	MOUSE	10	17	[0, 0, 0]	n/a	FR1	2	R1189M
1814.116	1.616	1860424	WORD	n/a	wordpools/wordpool_EN.txt	POND	11	17	[0, 0, 0]	n/a	FR1	2	R1189M
1815.732	1.017	1862040	WORD_OFF	n/a	n/a	POND	11	17	[0, 0, 0]	n/a	FR1	2	R1189M
1816.749	1.617	1863056	WORD	n/a	wordpools/wordpool_EN.txt	MUD	12	17	[0, 0, 0]	n/a	FR1	2	R1189M
1818.366	0.0	1864673	WORD_OFF	n/a	n/a	MUD	12	17	[0, 0, 0]	n/a	FR1	2	R1189M
1818.366	0.001	1864673	DISTRACT_START	n/a	n/a	n/a	-999	17	[0, 0, 0]	n/a	FR1	2	R1189M
1818.367	0.016	1864674	START	n/a	n/a	n/a	-999	17	[-999, -999, -999]	n/a	FR1	2	R1189M
1818.383	7.051	1864690	PROB	7.051	n/a	n/a	-999	17	[5, 6, 5]	17	FR1	2	R1189M
1825.434	4.935	1871741	PROB	4.935	n/a	n/a	-999	17	[5, 3, 6]	14	FR1	2	R1189M
1830.369	2.501	1876676	PROB	2.501	n/a	n/a	-999	17	[3, 2, 4]	9	FR1	2	R1189M
1832.87	3.151	1879177	PROB	3.151	n/a	n/a	-999	17	[9, 2, 7]	18	FR1	2	R1189M
1836.021	1.599	1882327	PROB	1.599	n/a	n/a	-999	17	[4, 6, 1]	11	FR1	2	R1189M
1837.62	3.015	1883926	PROB	3.015	n/a	n/a	-999	17	[4, 9, 5]	18	FR1	2	R1189M
1840.635	0.019	1886941	STOP	n/a	n/a	n/a	-999	17	[-999, -999, -999]	n/a	FR1	2	R1189M
1840.654	0.683	1886960	DISTRACT_END	n/a	n/a	n/a	-999	17	[0, 0, 0]	n/a	FR1	2	R1189M
1841.337	0.519	1887643	RETRIEVAL_ORIENT	n/a	n/a	n/a	-999	17	[0, 0, 0]	n/a	FR1	2	R1189M
1841.856	2.271	1888162	REC_START	n/a	n/a	n/a	-999	17	[0, 0, 0]	n/a	FR1	2	R1189M
1844.127	2.029	1890433	REC_WORD	2.029	n/a	SNAKE	-999	17	[0, 0, 0]	n/a	FR1	2	R1189M
1846.156	2.442	1892462	REC_WORD	2.442	n/a	CHIEF	-999	17	[0, 0, 0]	n/a	FR1	2	R1189M
1848.598	1.846	1894904	REC_WORD	1.846	n/a	DOG	-999	17	[0, 0, 0]	n/a	FR1	2	R1189M
1850.444	2.317	1896750	REC_WORD	2.317	n/a	POND	-999	17	[0, 0, 0]	n/a	FR1	2	R1189M
1852.761	2.524	1899066	REC_WORD	2.524	n/a	MOUSE	-999	17	[0, 0, 0]	n/a	FR1	2	R1189M
1855.285	16.582	1901590	REC_WORD	16.582	n/a	MUD	-999	17	[0, 0, 0]	n/a	FR1	2	R1189M
1871.867	4.978	1918171	REC_END	n/a	n/a	n/a	-999	17	[0, 0, 0]	n/a	FR1	2	R1189M
1876.845	0.5	1923149	TRIAL	n/a	n/a	n/a	-999	18	[0, 0, 0]	n/a	FR1	2	R1189M
1877.345	10.428	1923649	COUNTDOWN_START	n/a	n/a	n/a	-999	18	[0, 0, 0]	n/a	FR1	2	R1189M
1887.773	0.007	1934076	COUNTDOWN_END	n/a	n/a	n/a	-999	18	[0, 0, 0]	n/a	FR1	2	R1189M
1887.78	1.617	1934083	ORIENT	n/a	n/a	n/a	-999	18	[0, 0, 0]	n/a	FR1	2	R1189M
1889.397	2.15	1935700	ORIENT_OFF	n/a	n/a	n/a	-999	18	[0, 0, 0]	n/a	FR1	2	R1189M
1891.547	1.618	1937850	WORD	n/a	wordpools/wordpool_EN.txt	SOAP	1	18	[0, 0, 0]	n/a	FR1	2	R1189M
1893.165	0.984	1939468	WORD_OFF	n/a	n/a	SOAP	1	18	[0, 0, 0]	n/a	FR1	2	R1189M
1894.149	1.616	1940452	WORD	n/a	wordpools/wordpool_EN.txt	ROOF	2	18	[0, 0, 0]	n/a	FR1	2	R1189M
1895.765	0.816	1942068	WORD_OFF	n/a	n/a	ROOF	2	18	[0, 0, 0]	n/a	FR1	2	R1189M
1896.581	1.601	1942884	WORD	n/a	wordpools/wordpool_EN.txt	WHALE	3	18	[0, 0, 0]	n/a	FR1	2	R1189M
1898.182	0.818	1944485	WORD_OFF	n/a	n/a	WHALE	3	18	[0, 0, 0]	n/a	FR1	2	R1189M
1899.0	1.615	1945303	WORD	n/a	wordpools/wordpool_EN.txt	FARM	4	18	[0, 0, 0]	n/a	FR1	2	R1189M
1900.615	0.784	1946918	WORD_OFF	n/a	n/a	FARM	4	18	[0, 0, 0]	n/a	FR1	2	R1189M
1901.399	1.618	1947702	WORD	n/a	wordpools/wordpool_EN.txt	DOOR	5	18	[0, 0, 0]	n/a	FR1	2	R1189M
1903.017	0.766	1949320	WORD_OFF	n/a	n/a	DOOR	5	18	[0, 0, 0]	n/a	FR1	2	R1189M
1903.783	1.617	1950086	WORD	n/a	wordpools/wordpool_EN.txt	PALM	6	18	[0, 0, 0]	n/a	FR1	2	R1189M
1905.4	0.868	1951702	WORD_OFF	n/a	n/a	PALM	6	18	[0, 0, 0]	n/a	FR1	2	R1189M
1906.268	1.617	1952570	WORD	n/a	wordpools/wordpool_EN.txt	RICE	7	18	[0, 0, 0]	n/a	FR1	2	R1189M
1907.885	0.882	1954187	WORD_OFF	n/a	n/a	RICE	7	18	[0, 0, 0]	n/a	FR1	2	R1189M
1908.767	1.617	1955069	WORD	n/a	wordpools/wordpool_EN.txt	SOCK	8	18	[0, 0, 0]	n/a	FR1	2	R1189M
1910.384	0.834	1956686	WORD_OFF	n/a	n/a	SOCK	8	18	[0, 0, 0]	n/a	FR1	2	R1189M
1911.218	1.618	1957520	WORD	n/a	wordpools/wordpool_EN.txt	OAK	9	18	[0, 0, 0]	n/a	FR1	2	R1189M
1912.836	0.815	1959138	WORD_OFF	n/a	n/a	OAK	9	18	[0, 0, 0]	n/a	FR1	2	R1189M
1913.651	1.618	1959953	WORD	n/a	wordpools/wordpool_EN.txt	GLOVE	10	18	[0, 0, 0]	n/a	FR1	2	R1189M
1915.269	0.884	1961571	WORD_OFF	n/a	n/a	GLOVE	10	18	[0, 0, 0]	n/a	FR1	2	R1189M
1916.153	1.616	1962455	WORD	n/a	wordpools/wordpool_EN.txt	PANTS	11	18	[0, 0, 0]	n/a	FR1	2	R1189M
1917.769	0.867	1964071	WORD_OFF	n/a	n/a	PANTS	11	18	[0, 0, 0]	n/a	FR1	2	R1189M
1918.636	1.618	1964938	WORD	n/a	wordpools/wordpool_EN.txt	SMOKE	12	18	[0, 0, 0]	n/a	FR1	2	R1189M
1920.254	0.0	1966556	WORD_OFF	n/a	n/a	SMOKE	12	18	[0, 0, 0]	n/a	FR1	2	R1189M
1920.254	0.0	1966556	DISTRACT_START	n/a	n/a	n/a	-999	18	[0, 0, 0]	n/a	FR1	2	R1189M
1920.254	0.016	1966556	START	n/a	n/a	n/a	-999	18	[-999, -999, -999]	n/a	FR1	2	R1189M
1920.27	4.534	1966572	PROB	4.534	n/a	n/a	-999	18	[8, 3, 2]	13	FR1	2	R1189M
1924.804	1.767	1971105	PROB	1.767	n/a	n/a	-999	18	[8, 2, 2]	12	FR1	2	R1189M
1926.571	2.183	1972872	PROB	2.183	n/a	n/a	-999	18	[5, 4, 2]	11	FR1	2	R1189M
1928.754	2.385	1975055	PROB	2.385	n/a	n/a	-999	18	[4, 7, 5]	16	FR1	2	R1189M
1931.139	3.383	1977440	PROB	3.383	n/a	n/a	-999	18	[2, 9, 3]	14	FR1	2	R1189M
1934.522	2.368	1980823	PROB	2.368	n/a	n/a	-999	18	[5, 3, 2]	10	FR1	2	R1189M
1936.89	2.151	1983191	PROB	2.151	n/a	n/a	-999	18	[3, 2, 5]	10	FR1	2	R1189M
1939.041	3.066	1985342	PROB	3.066	n/a	n/a	-999	18	[9, 9, 8]	26	FR1	2	R1189M
1942.107	0.017	1988407	STOP	n/a	n/a	n/a	-999	18	[-999, -999, -999]	n/a	FR1	2	R1189M
1942.124	0.566	1988424	DISTRACT_END	n/a	n/a	n/a	-999	18	[0, 0, 0]	n/a	FR1	2	R1189M
1942.69	0.519	1988990	RETRIEVAL_ORIENT	n/a	n/a	n/a	-999	18	[0, 0, 0]	n/a	FR1	2	R1189M
1943.209	0.946	1989509	REC_START	n/a	n/a	n/a	-999	18	[0, 0, 0]	n/a	FR1	2	R1189M
1944.155	2.12	1990455	REC_WORD	2.12	n/a	SOCK	-999	18	[0, 0, 0]	n/a	FR1	2	R1189M
1946.275	2.137	1992575	REC_WORD	2.137	n/a	SMOKE	-999	18	[0, 0, 0]	n/a	FR1	2	R1189M
1948.412	2.138	1994712	REC_WORD	2.138	n/a	WHALE	-999	18	[0, 0, 0]	n/a	FR1	2	R1189M
1950.55	22.67	1996850	REC_WORD	22.67	n/a	FARM	-999	18	[0, 0, 0]	n/a	FR1	2	R1189M
1973.22	5.227	2019519	REC_END	n/a	n/a	n/a	-999	18	[0, 0, 0]	n/a	FR1	2	R1189M
1978.447	0.5	2024745	TRIAL	n/a	n/a	n/a	-999	19	[0, 0, 0]	n/a	FR1	2	R1189M
1978.947	10.428	2025245	COUNTDOWN_START	n/a	n/a	n/a	-999	19	[0, 0, 0]	n/a	FR1	2	R1189M
1989.375	0.008	2035673	COUNTDOWN_END	n/a	n/a	n/a	-999	19	[0, 0, 0]	n/a	FR1	2	R1189M
1989.383	1.618	2035681	ORIENT	n/a	n/a	n/a	-999	19	[0, 0, 0]	n/a	FR1	2	R1189M
1991.001	2.332	2037299	ORIENT_OFF	n/a	n/a	n/a	-999	19	[0, 0, 0]	n/a	FR1	2	R1189M
1993.333	1.602	2039630	WORD	n/a	wordpools/wordpool_EN.txt	CLIFF	1	19	[0, 0, 0]	n/a	FR1	2	R1189M
1994.935	0.766	2041232	WORD_OFF	n/a	n/a	CLIFF	1	19	[0, 0, 0]	n/a	FR1	2	R1189M
1995.701	1.617	2041998	WORD	n/a	wordpools/wordpool_EN.txt	HEN	2	19	[0, 0, 0]	n/a	FR1	2	R1189M
1997.318	0.951	2043615	WORD_OFF	n/a	n/a	HEN	2	19	[0, 0, 0]	n/a	FR1	2	R1189M
1998.269	1.617	2044566	WORD	n/a	wordpools/wordpool_EN.txt	CAT	3	19	[0, 0, 0]	n/a	FR1	2	R1189M
1999.886	0.866	2046183	WORD_OFF	n/a	n/a	CAT	3	19	[0, 0, 0]	n/a	FR1	2	R1189M
2000.752	1.617	2047049	WORD	n/a	wordpools/wordpool_EN.txt	CAPE	4	19	[0, 0, 0]	n/a	FR1	2	R1189M
2002.369	0.784	2048666	WORD_OFF	n/a	n/a	CAPE	4	19	[0, 0, 0]	n/a	FR1	2	R1189M
2003.153	1.616	2049450	WORD	n/a	wordpools/wordpool_EN.txt	CRANE	5	19	[0, 0, 0]	n/a	FR1	2	R1189M
2004.769	1.0	2051066	WORD_OFF	n/a	n/a	CRANE	5	19	[0, 0, 0]	n/a	FR1	2	R1189M
2005.769	1.617	2052066	WORD	n/a	wordpools/wordpool_EN.txt	CLOUD	6	19	[0, 0, 0]	n/a	FR1	2	R1189M
2007.386	1.017	2053683	WORD_OFF	n/a	n/a	CLOUD	6	19	[0, 0, 0]	n/a	FR1	2	R1189M
2008.403	1.618	2054700	WORD	n/a	wordpools/wordpool_EN.txt	WEED	7	19	[0, 0, 0]	n/a	FR1	2	R1189M
2010.021	0.95	2056317	WORD_OFF	n/a	n/a	WEED	7	19	[0, 0, 0]	n/a	FR1	2	R1189M
2010.971	1.616	2057267	WORD	n/a	wordpools/wordpool_EN.txt	WOLF	8	19	[0, 0, 0]	n/a	FR1	2	R1189M
2012.587	0.867	2058883	WORD_OFF	n/a	n/a	WOLF	8	19	[0, 0, 0]	n/a	FR1	2	R1189M
2013.454	1.618	2059750	WORD	n/a	wordpools/wordpool_EN.txt	BEAN	9	19	[0, 0, 0]	n/a	FR1	2	R1189M
2015.072	0.933	2061368	WORD_OFF	n/a	n/a	BEAN	9	19	[0, 0, 0]	n/a	FR1	2	R1189M
2016.005	1.616	2062301	WORD	n/a	wordpools/wordpool_EN.txt	CROWN	10	19	[0, 0, 0]	n/a	FR1	2	R1189M
2017.621	0.767	2063917	WORD_OFF	n/a	n/a	CROWN	10	19	[0, 0, 0]	n/a	FR1	2	R1189M
2018.388	1.601	2064684	WORD	n/a	wordpools/wordpool_EN.txt	CALF	11	19	[0, 0, 0]	n/a	FR1	2	R1189M
2019.989	0.917	2066285	WORD_OFF	n/a	n/a	CALF	11	19	[0, 0, 0]	n/a	FR1	2	R1189M
2020.906	1.616	2067202	WORD	n/a	wordpools/wordpool_EN.txt	PIG	12	19	[0, 0, 0]	n/a	FR1	2	R1189M
2022.522	0.0	2068818	WORD_OFF	n/a	n/a	PIG	12	19	[0, 0, 0]	n/a	FR1	2	R1189M
2022.522	0.001	2068818	DISTRACT_START	n/a	n/a	n/a	-999	19	[0, 0, 0]	n/a	FR1	2	R1189M
2022.523	0.016	2068819	START	n/a	n/a	n/a	-999	19	[-999, -999, -999]	n/a	FR1	2	R1189M
2022.539	3.252	2068835	PROB	3.252	n/a	n/a	-999	19	[2, 5, 8]	15	FR1	2	R1189M
2025.791	2.5	2072087	PROB	2.5	n/a	n/a	-999	19	[6, 5, 3]	14	FR1	2	R1189M
2028.291	2.984	2074586	PROB	2.984	n/a	n/a	-999	19	[5, 9, 1]	15	FR1	2	R1189M
2031.275	3.433	2077570	PROB	3.433	n/a	n/a	-999	19	[9, 2, 3]	14	FR1	2	R1189M
2034.708	2.585	2081003	PROB	2.585	n/a	n/a	-999	19	[9, 5, 4]	18	FR1	2	R1189M
2037.293	2.216	2083588	PROB	2.216	n/a	n/a	-999	19	[7, 4, 2]	13	FR1	2	R1189M
2039.509	3.399	2085804	PROB	3.399	n/a	n/a	-999	19	[1, 2, 6]	9	FR1	2	R1189M
2042.908	0.019	2089203	STOP	n/a	n/a	n/a	-999	19	[-999, -999, -999]	n/a	FR1	2	R1189M
2042.927	0.583	2089222	DISTRACT_END	n/a	n/a	n/a	-999	19	[0, 0, 0]	n/a	FR1	2	R1189M
2043.51	0.518	2089805	RETRIEVAL_ORIENT	n/a	n/a	n/a	-999	19	[0, 0, 0]	n/a	FR1	2	R1189M
2044.028	1.196	2090323	REC_START	n/a	n/a	n/a	-999	19	[0, 0, 0]	n/a	FR1	2	R1189M
2045.224	1.686	2091518	REC_WORD	1.686	n/a	CROWN	-999	19	[0, 0, 0]	n/a	FR1	2	R1189M
2046.91	1.77	2093204	REC_WORD	1.77	n/a	CALF	-999	19	[0, 0, 0]	n/a	FR1	2	R1189M
2048.68	2.238	2094974	REC_WORD	2.238	n/a	PIG	-999	19	[0, 0, 0]	n/a	FR1	2	R1189M
2050.918	2.861	2097212	REC_WORD	2.861	n/a	CAT	-999	19	[0, 0, 0]	n/a	FR1	2	R1189M
2053.779	6.376	2100073	REC_WORD	6.376	n/a	CRANE	-999	19	[0, 0, 0]	n/a	FR1	2	R1189M
2060.155	13.884	2106449	REC_WORD	13.884	n/a	HEN	-999	19	[0, 0, 0]	n/a	FR1	2	R1189M
2074.039	5.611	2120332	REC_END	n/a	n/a	n/a	-999	19	[0, 0, 0]	n/a	FR1	2	R1189M
2079.65	0.5	2125943	TRIAL	n/a	n/a	n/a	-999	20	[0, 0, 0]	n/a	FR1	2	R1189M
2080.15	10.428	2126443	COUNTDOWN_START	n/a	n/a	n/a	-999	20	[0, 0, 0]	n/a	FR1	2	R1189M
2090.578	0.008	2136870	COUNTDOWN_END	n/a	n/a	n/a	-999	20	[0, 0, 0]	n/a	FR1	2	R1189M
2090.586	1.617	2136878	ORIENT	n/a	n/a	n/a	-999	20	[0, 0, 0]	n/a	FR1	2	R1189M
2092.203	2.001	2138495	ORIENT_OFF	n/a	n/a	n/a	-999	20	[0, 0, 0]	n/a	FR1	2	R1189M
2094.204	1.617	2140496	WORD	n/a	wordpools/wordpool_EN.txt	JET	1	20	[0, 0, 0]	n/a	FR1	2	R1189M
2095.821	0.916	2142113	WORD_OFF	n/a	n/a	JET	1	20	[0, 0, 0]	n/a	FR1	2	R1189M
2096.737	1.617	2143029	WORD	n/a	wordpools/wordpool_EN.txt	MAZE	2	20	[0, 0, 0]	n/a	FR1	2	R1189M
2098.354	0.983	2144645	WORD_OFF	n/a	n/a	MAZE	2	20	[0, 0, 0]	n/a	FR1	2	R1189M
2099.337	1.602	2145628	WORD	n/a	wordpools/wordpool_EN.txt	FILM	3	20	[0, 0, 0]	n/a	FR1	2	R1189M
2100.939	0.983	2147230	WORD_OFF	n/a	n/a	FILM	3	20	[0, 0, 0]	n/a	FR1	2	R1189M
2101.922	1.616	2148213	WORD	n/a	wordpools/wordpool_EN.txt	NEST	4	20	[0, 0, 0]	n/a	FR1	2	R1189M
2103.538	0.767	2149829	WORD_OFF	n/a	n/a	NEST	4	20	[0, 0, 0]	n/a	FR1	2	R1189M
2104.305	1.618	2150596	WORD	n/a	wordpools/wordpool_EN.txt	PRINCE	5	20	[0, 0, 0]	n/a	FR1	2	R1189M
2105.923	1.017	2152214	WORD_OFF	n/a	n/a	PRINCE	5	20	[0, 0, 0]	n/a	FR1	2	R1189M
2106.94	1.616	2153231	WORD	n/a	wordpools/wordpool_EN.txt	SPARK	6	20	[0, 0, 0]	n/a	FR1	2	R1189M
2108.556	0.933	2154847	WORD_OFF	n/a	n/a	SPARK	6	20	[0, 0, 0]	n/a	FR1	2	R1189M
2109.489	1.601	2155780	WORD	n/a	wordpools/wordpool_EN.txt	LAWN	7	20	[0, 0, 0]	n/a	FR1	2	R1189M
2111.09	1.001	2157381	WORD_OFF	n/a	n/a	LAWN	7	20	[0, 0, 0]	n/a	FR1	2	R1189M
2112.091	1.616	2158382	WORD	n/a	wordpools/wordpool_EN.txt	SNAIL	8	20	[0, 0, 0]	n/a	FR1	2	R1189M
2113.707	0.933	2159998	WORD_OFF	n/a	n/a	SNAIL	8	20	[0, 0, 0]	n/a	FR1	2	R1189M
2114.64	1.618	2160931	WORD	n/a	wordpools/wordpool_EN.txt	BOOK	9	20	[0, 0, 0]	n/a	FR1	2	R1189M
2116.258	1.0	2162548	WORD_OFF	n/a	n/a	BOOK	9	20	[0, 0, 0]	n/a	FR1	2	R1189M
2117.258	1.617	2163548	WORD	n/a	wordpools/wordpool_EN.txt	DESK	10	20	[0, 0, 0]	n/a	FR1	2	R1189M
2118.875	0.816	2165165	WORD_OFF	n/a	n/a	DESK	10	20	[0, 0, 0]	n/a	FR1	2	R1189M
2119.691	1.617	2165981	WORD	n/a	wordpools/wordpool_EN.txt	STORM	11	20	[0, 0, 0]	n/a	FR1	2	R1189M
2121.308	0.835	2167598	WORD_OFF	n/a	n/a	STORM	11	20	[0, 0, 0]	n/a	FR1	2	R1189M
2122.143	1.616	2168433	WORD	n/a	wordpools/wordpool_EN.txt	KITE	12	20	[0, 0, 0]	n/a	FR1	2	R1189M
2123.759	0.0	2170049	WORD_OFF	n/a	n/a	KITE	12	20	[0, 0, 0]	n/a	FR1	2	R1189M
2123.759	0.0	2170049	DISTRACT_START	n/a	n/a	n/a	-999	20	[0, 0, 0]	n/a	FR1	2	R1189M
2123.759	0.016	2170049	START	n/a	n/a	n/a	-999	20	[-999, -999, -999]	n/a	FR1	2	R1189M
2123.775	5.269	2170065	PROB	5.269	n/a	n/a	-999	20	[9, 6, 9]	24	FR1	2	R1189M
2129.044	3.017	2175334	PROB	3.017	n/a	n/a	-999	20	[8, 6, 9]	23	FR1	2	R1189M
2132.061	2.001	2178351	PROB	2.001	n/a	n/a	-999	20	[6, 1, 6]	13	FR1	2	R1189M
2134.062	2.867	2180351	PROB	2.867	n/a	n/a	-999	20	[7, 5, 8]	20	FR1	2	R1189M
2136.929	1.816	2183218	PROB	1.816	n/a	n/a	-999	20	[9, 1, 4]	14	FR1	2	R1189M
2138.745	2.034	2185034	PROB	2.034	n/a	n/a	-999	20	[3, 8, 3]	14	FR1	2	R1189M
2140.779	2.0	2187068	PROB	2.0	n/a	n/a	-999	20	[3, 1, 3]	7	FR1	2	R1189M
2142.779	2.247	2189068	PROB	2.247	n/a	n/a	-999	20	[2, 9, 6]	17	FR1	2	R1189M
2145.026	0.021	2191315	STOP	n/a	n/a	n/a	-999	20	[-999, -999, -999]	n/a	FR1	2	R1189M
2145.047	0.633	2191336	DISTRACT_END	n/a	n/a	n/a	-999	20	[0, 0, 0]	n/a	FR1	2	R1189M
2145.68	0.518	2191969	RETRIEVAL_ORIENT	n/a	n/a	n/a	-999	20	[0, 0, 0]	n/a	FR1	2	R1189M
2146.198	2.017	2192487	REC_START	n/a	n/a	n/a	-999	20	[0, 0, 0]	n/a	FR1	2	R1189M
2148.215	1.781	2194504	REC_WORD	1.781	n/a	SPARK	-999	20	[0, 0, 0]	n/a	FR1	2	R1189M
2149.996	5.671	2196285	REC_WORD	5.671	n/a	LAWN	-999	20	[0, 0, 0]	n/a	FR1	2	R1189M
2155.667	2.375	2201955	REC_WORD	2.375	n/a	KITE	-999	20	[0, 0, 0]	n/a	FR1	2	R1189M
2158.042	2.286	2204330	REC_WORD	2.286	n/a	JET	-999	20	[0, 0, 0]	n/a	FR1	2	R1189M
2160.328	15.88	2206616	REC_WORD	15.88	n/a	MAZE	-999	20	[0, 0, 0]	n/a	FR1	2	R1189M
2176.208	5.63	2222495	REC_END	n/a	n/a	n/a	-999	20	[0, 0, 0]	n/a	FR1	2	R1189M
2181.838	0.5	2228125	TRIAL	n/a	n/a	n/a	-999	21	[0, 0, 0]	n/a	FR1	2	R1189M
2182.338	10.428	2228625	COUNTDOWN_START	n/a	n/a	n/a	-999	21	[0, 0, 0]	n/a	FR1	2	R1189M
2192.766	0.006	2239052	COUNTDOWN_END	n/a	n/a	n/a	-999	21	[0, 0, 0]	n/a	FR1	2	R1189M
2192.772	1.617	2239058	ORIENT	n/a	n/a	n/a	-999	21	[0, 0, 0]	n/a	FR1	2	R1189M
2194.389	1.917	2240675	ORIENT_OFF	n/a	n/a	n/a	-999	21	[0, 0, 0]	n/a	FR1	2	R1189M
2196.306	1.618	2242592	WORD	n/a	wordpools/wordpool_EN.txt	KEY	1	21	[0, 0, 0]	n/a	FR1	2	R1189M
2197.924	0.849	2244210	WORD_OFF	n/a	n/a	KEY	1	21	[0, 0, 0]	n/a	FR1	2	R1189M
2198.773	1.617	2245059	WORD	n/a	wordpools/wordpool_EN.txt	GOLD	2	21	[0, 0, 0]	n/a	FR1	2	R1189M
2200.39	0.95	2246676	WORD_OFF	n/a	n/a	GOLD	2	21	[0, 0, 0]	n/a	FR1	2	R1189M
2201.34	1.601	2247626	WORD	n/a	wordpools/wordpool_EN.txt	TOAST	3	21	[0, 0, 0]	n/a	FR1	2	R1189M
2202.941	1.001	2249227	WORD_OFF	n/a	n/a	TOAST	3	21	[0, 0, 0]	n/a	FR1	2	R1189M
2203.942	1.616	2250227	WORD	n/a	wordpools/wordpool_EN.txt	TEETH	4	21	[0, 0, 0]	n/a	FR1	2	R1189M
2205.558	0.917	2251843	WORD_OFF	n/a	n/a	TEETH	4	21	[0, 0, 0]	n/a	FR1	2	R1189M
2206.475	1.618	2252760	WORD	n/a	wordpools/wordpool_EN.txt	MOLE	5	21	[0, 0, 0]	n/a	FR1	2	R1189M
2208.093	0.85	2254378	WORD_OFF	n/a	n/a	MOLE	5	21	[0, 0, 0]	n/a	FR1	2	R1189M
2208.943	1.616	2255228	WORD	n/a	wordpools/wordpool_EN.txt	SHEEP	6	21	[0, 0, 0]	n/a	FR1	2	R1189M
2210.559	0.967	2256844	WORD_OFF	n/a	n/a	SHEEP	6	21	[0, 0, 0]	n/a	FR1	2	R1189M
2211.526	1.618	2257811	WORD	n/a	wordpools/wordpool_EN.txt	CHEEK	7	21	[0, 0, 0]	n/a	FR1	2	R1189M
2213.144	0.817	2259429	WORD_OFF	n/a	n/a	CHEEK	7	21	[0, 0, 0]	n/a	FR1	2	R1189M
2213.961	1.615	2260246	WORD	n/a	wordpools/wordpool_EN.txt	PEARL	8	21	[0, 0, 0]	n/a	FR1	2	R1189M
2215.576	0.867	2261861	WORD_OFF	n/a	n/a	PEARL	8	21	[0, 0, 0]	n/a	FR1	2	R1189M
2216.443	1.601	2262728	WORD	n/a	wordpools/wordpool_EN.txt	ZOO	9	21	[0, 0, 0]	n/a	FR1	2	R1189M
2218.044	0.784	2264329	WORD_OFF	n/a	n/a	ZOO	9	21	[0, 0, 0]	n/a	FR1	2	R1189M
2218.828	1.616	2265113	WORD	n/a	wordpools/wordpool_EN.txt	DART	10	21	[0, 0, 0]	n/a	FR1	2	R1189M
2220.444	0.884	2266729	WORD_OFF	n/a	n/a	DART	10	21	[0, 0, 0]	n/a	FR1	2	R1189M
2221.328	1.617	2267612	WORD	n/a	wordpools/wordpool_EN.txt	TRASH	11	21	[0, 0, 0]	n/a	FR1	2	R1189M
2222.945	0.984	2269229	WORD_OFF	n/a	n/a	TRASH	11	21	[0, 0, 0]	n/a	FR1	2	R1189M
2223.929	1.616	2270213	WORD	n/a	wordpools/wordpool_EN.txt	LEAF	12	21	[0, 0, 0]	n/a	FR1	2	R1189M
2225.545	0.0	2271829	WORD_OFF	n/a	n/a	LEAF	12	21	[0, 0, 0]	n/a	FR1	2	R1189M
2225.545	0.001	2271829	DISTRACT_START	n/a	n/a	n/a	-999	21	[0, 0, 0]	n/a	FR1	2	R1189M
2225.546	0.016	2271830	START	n/a	n/a	n/a	-999	21	[-999, -999, -999]	n/a	FR1	2	R1189M
2225.562	3.585	2271846	PROB	3.585	n/a	n/a	-999	21	[2, 2, 3]	7	FR1	2	R1189M
2229.147	2.767	2275431	PROB	2.767	n/a	n/a	-999	21	[7, 2, 1]	10	FR1	2	R1189M
2231.914	2.766	2278198	PROB	2.766	n/a	n/a	-999	21	[5, 8, 8]	21	FR1	2	R1189M
2234.68	2.067	2280964	PROB	2.067	n/a	n/a	-999	21	[1, 3, 1]	5	FR1	2	R1189M
2236.747	2.717	2283031	PROB	2.717	n/a	n/a	-999	21	[6, 1, 5]	12	FR1	2	R1189M
2239.464	3.419	2285747	PROB	3.419	n/a	n/a	-999	21	[7, 4, 7]	18	FR1	2	R1189M
2242.883	2.267	2289166	PROB	2.267	n/a	n/a	-999	21	[7, 7, 1]	15	FR1	2	R1189M
2245.15	4.852	2291433	PROB	4.852	n/a	n/a	-999	21	[3, 9, 5]	17	FR1	2	R1189M
2250.002	0.015	2296285	STOP	n/a	n/a	n/a	-999	21	[-999, -999, -999]	n/a	FR1	2	R1189M
2250.017	0.65	2296300	DISTRACT_END	n/a	n/a	n/a	-999	21	[0, 0, 0]	n/a	FR1	2	R1189M
2250.667	0.518	2296950	RETRIEVAL_ORIENT	n/a	n/a	n/a	-999	21	[0, 0, 0]	n/a	FR1	2	R1189M
2251.185	0.851	2297468	REC_START	n/a	n/a	n/a	-999	21	[0, 0, 0]	n/a	FR1	2	R1189M
2252.036	1.754	2298319	REC_WORD	1.754	n/a	PEARL	-999	21	[0, 0, 0]	n/a	FR1	2	R1189M
2253.79	1.71	2300073	REC_WORD	1.71	n/a	DART	-999	21	[0, 0, 0]	n/a	FR1	2	R1189M
2255.5	2.003	2301783	REC_WORD	2.003	n/a	ZOO	-999	21	[0, 0, 0]	n/a	FR1	2	R1189M
2257.503	1.903	2303785	REC_WORD	1.903	n/a	KEY	-999	21	[0, 0, 0]	n/a	FR1	2	R1189M
2259.406	2.533	2305688	REC_WORD	2.533	n/a	GOLD	-999	21	[0, 0, 0]	n/a	FR1	2	R1189M
2261.939	1.978	2308221	REC_WORD	1.978	n/a	TOAST	-999	21	[0, 0, 0]	n/a	FR1	2	R1189M
2263.917	17.279	2310199	REC_WORD	17.279	n/a	TEETH	-999	21	[0, 0, 0]	n/a	FR1	2	R1189M
2281.196	4.778	2327477	REC_END	n/a	n/a	n/a	-999	21	[0, 0, 0]	n/a	FR1	2	R1189M
2285.974	0.5	2332255	TRIAL	n/a	n/a	n/a	-999	22	[0, 0, 0]	n/a	FR1	2	R1189M
2286.474	10.428	2332755	COUNTDOWN_START	n/a	n/a	n/a	-999	22	[0, 0, 0]	n/a	FR1	2	R1189M
2296.902	0.008	2343182	COUNTDOWN_END	n/a	n/a	n/a	-999	22	[0, 0, 0]	n/a	FR1	2	R1189M
2296.91	1.616	2343190	ORIENT	n/a	n/a	n/a	-999	22	[0, 0, 0]	n/a	FR1	2	R1189M
2298.526	2.217	2344806	ORIENT_OFF	n/a	n/a	n/a	-999	22	[0, 0, 0]	n/a	FR1	2	R1189M
2300.743	1.617	2347023	WORD	n/a	wordpools/wordpool_EN.txt	FORT	1	22	[0, 0, 0]	n/a	FR1	2	R1189M
2302.36	0.834	2348640	WORD_OFF	n/a	n/a	FORT	1	22	[0, 0, 0]	n/a	FR1	2	R1189M
2303.194	1.617	2349474	WORD	n/a	wordpools/wordpool_EN.txt	CAVE	2	22	[0, 0, 0]	n/a	FR1	2	R1189M
2304.811	0.899	2351091	WORD_OFF	n/a	n/a	CAVE	2	22	[0, 0, 0]	n/a	FR1	2	R1189M
2305.71	1.618	2351990	WORD	n/a	wordpools/wordpool_EN.txt	SPRING	3	22	[0, 0, 0]	n/a	FR1	2	R1189M
2307.328	1.0	2353608	WORD_OFF	n/a	n/a	SPRING	3	22	[0, 0, 0]	n/a	FR1	2	R1189M
2308.328	1.618	2354608	WORD	n/a	wordpools/wordpool_EN.txt	EAR	4	22	[0, 0, 0]	n/a	FR1	2	R1189M
2309.946	0.967	2356225	WORD_OFF	n/a	n/a	EAR	4	22	[0, 0, 0]	n/a	FR1	2	R1189M
2310.913	1.616	2357192	WORD	n/a	wordpools/wordpool_EN.txt	SLEEVE	5	22	[0, 0, 0]	n/a	FR1	2	R1189M
2312.529	0.983	2358808	WORD_OFF	n/a	n/a	SLEEVE	5	22	[0, 0, 0]	n/a	FR1	2	R1189M
2313.512	1.618	2359791	WORD	n/a	wordpools/wordpool_EN.txt	GLASS	6	22	[0, 0, 0]	n/a	FR1	2	R1189M
2315.13	0.95	2361409	WORD_OFF	n/a	n/a	GLASS	6	22	[0, 0, 0]	n/a	FR1	2	R1189M
2316.08	1.616	2362359	WORD	n/a	wordpools/wordpool_EN.txt	WOOD	7	22	[0, 0, 0]	n/a	FR1	2	R1189M
2317.696	0.85	2363975	WORD_OFF	n/a	n/a	WOOD	7	22	[0, 0, 0]	n/a	FR1	2	R1189M
2318.546	1.618	2364825	WORD	n/a	wordpools/wordpool_EN.txt	CAKE	8	22	[0, 0, 0]	n/a	FR1	2	R1189M
2320.164	0.9	2366443	WORD_OFF	n/a	n/a	CAKE	8	22	[0, 0, 0]	n/a	FR1	2	R1189M
2321.064	1.616	2367343	WORD	n/a	wordpools/wordpool_EN.txt	MOUTH	9	22	[0, 0, 0]	n/a	FR1	2	R1189M
2322.68	1.001	2368959	WORD_OFF	n/a	n/a	MOUTH	9	22	[0, 0, 0]	n/a	FR1	2	R1189M
2323.681	1.618	2369960	WORD	n/a	wordpools/wordpool_EN.txt	ELF	10	22	[0, 0, 0]	n/a	FR1	2	R1189M
2325.299	1.0	2371578	WORD_OFF	n/a	n/a	ELF	10	22	[0, 0, 0]	n/a	FR1	2	R1189M
2326.299	1.617	2372578	WORD	n/a	wordpools/wordpool_EN.txt	TOOL	11	22	[0, 0, 0]	n/a	FR1	2	R1189M
2327.916	0.799	2374194	WORD_OFF	n/a	n/a	TOOL	11	22	[0, 0, 0]	n/a	FR1	2	R1189M
2328.715	1.617	2374993	WORD	n/a	wordpools/wordpool_EN.txt	TOOTH	12	22	[0, 0, 0]	n/a	FR1	2	R1189M
2330.332	0.0	2376610	WORD_OFF	n/a	n/a	TOOTH	12	22	[0, 0, 0]	n/a	FR1	2	R1189M
2330.332	0.001	2376610	DISTRACT_START	n/a	n/a	n/a	-999	22	[0, 0, 0]	n/a	FR1	2	R1189M
2330.333	0.016	2376611	START	n/a	n/a	n/a	-999	22	[-999, -999, -999]	n/a	FR1	2	R1189M
2330.349	3.267	2376627	PROB	3.267	n/a	n/a	-999	22	[1, 4, 2]	7	FR1	2	R1189M
2333.616	2.651	2379894	PROB	2.651	n/a	n/a	-999	22	[9, 1, 9]	19	FR1	2	R1189M
2336.267	2.551	2382545	PROB	2.551	n/a	n/a	-999	22	[3, 7, 2]	12	FR1	2	R1189M
2338.818	2.117	2385096	PROB	2.117	n/a	n/a	-999	22	[1, 2, 6]	9	FR1	2	R1189M
2340.935	2.633	2387213	PROB	2.633	n/a	n/a	-999	22	[6, 9, 6]	21	FR1	2	R1189M
2343.568	1.668	2389846	PROB	1.668	n/a	n/a	-999	22	[5, 5, 7]	17	FR1	2	R1189M
2345.236	3.05	2391513	PROB	3.05	n/a	n/a	-999	22	[8, 6, 3]	17	FR1	2	R1189M
2348.286	1.967	2394563	PROB	1.967	n/a	n/a	-999	22	[6, 3, 2]	11	FR1	2	R1189M
2350.253	2.717	2396530	PROB	2.717	n/a	n/a	-999	22	[2, 7, 1]	10	FR1	2	R1189M
2352.97	0.017	2399247	STOP	n/a	n/a	n/a	-999	22	[-999, -999, -999]	n/a	FR1	2	R1189M
2352.987	0.7	2399264	DISTRACT_END	n/a	n/a	n/a	-999	22	[0, 0, 0]	n/a	FR1	2	R1189M
2353.687	0.518	2399964	RETRIEVAL_ORIENT	n/a	n/a	n/a	-999	22	[0, 0, 0]	n/a	FR1	2	R1189M
2354.205	0.909	2400482	REC_START	n/a	n/a	n/a	-999	22	[0, 0, 0]	n/a	FR1	2	R1189M
2355.114	2.128	2401391	REC_WORD	2.128	n/a	FORT	-999	22	[0, 0, 0]	n/a	FR1	2	R1189M
2357.242	1.586	2403519	REC_WORD	1.586	n/a	CAVE	-999	22	[0, 0, 0]	n/a	FR1	2	R1189M
2358.828	1.821	2405105	REC_WORD	1.821	n/a	SPRING	-999	22	[0, 0, 0]	n/a	FR1	2	R1189M
2360.649	1.902	2406926	REC_WORD	1.902	n/a	EAR	-999	22	[0, 0, 0]	n/a	FR1	2	R1189M
2362.551	2.043	2408827	REC_WORD	2.043	n/a	SLEEVE	-999	22	[0, 0, 0]	n/a	FR1	2	R1189M
2364.594	2.752	2410870	REC_WORD	2.752	n/a	GLASS	-999	22	[0, 0, 0]	n/a	FR1	2	R1189M
2367.346	1.998	2413622	REC_WORD	1.998	n/a	WOOD	-999	22	[0, 0, 0]	n/a	FR1	2	R1189M
2369.344	14.873	2415620	REC_WORD	14.873	n/a	MOUTH	-999	22	[0, 0, 0]	n/a	FR1	2	R1189M
2384.217	5.443	2430492	REC_END	n/a	n/a	n/a	-999	22	[0, 0, 0]	n/a	FR1	2	R1189M
2389.66	0.5	2435935	TRIAL	n/a	n/a	n/a	-999	23	[0, 0, 0]	n/a	FR1	2	R1189M
2390.16	10.428	2436435	COUNTDOWN_START	n/a	n/a	n/a	-999	23	[0, 0, 0]	n/a	FR1	2	R1189M
2400.588	0.008	2446862	COUNTDOWN_END	n/a	n/a	n/a	-999	23	[0, 0, 0]	n/a	FR1	2	R1189M
2400.596	1.618	2446870	ORIENT	n/a	n/a	n/a	-999	23	[0, 0, 0]	n/a	FR1	2	R1189M
2402.214	2.0	2448488	ORIENT_OFF	n/a	n/a	n/a	-999	23	[0, 0, 0]	n/a	FR1	2	R1189M
2404.214	1.617	2450488	WORD	n/a	wordpools/wordpool_EN.txt	HAT	1	23	[0, 0, 0]	n/a	FR1	2	R1189M
2405.831	0.932	2452105	WORD_OFF	n/a	n/a	HAT	1	23	[0, 0, 0]	n/a	FR1	2	R1189M
2406.763	1.617	2453037	WORD	n/a	wordpools/wordpool_EN.txt	VINE	2	23	[0, 0, 0]	n/a	FR1	2	R1189M
2408.38	0.785	2454654	WORD_OFF	n/a	n/a	VINE	2	23	[0, 0, 0]	n/a	FR1	2	R1189M
2409.165	1.616	2455439	WORD	n/a	wordpools/wordpool_EN.txt	TEA	3	23	[0, 0, 0]	n/a	FR1	2	R1189M
2410.781	0.8	2457055	WORD_OFF	n/a	n/a	TEA	3	23	[0, 0, 0]	n/a	FR1	2	R1189M
2411.581	1.618	2457855	WORD	n/a	wordpools/wordpool_EN.txt	SNOW	4	23	[0, 0, 0]	n/a	FR1	2	R1189M
2413.199	0.9	2459473	WORD_OFF	n/a	n/a	SNOW	4	23	[0, 0, 0]	n/a	FR1	2	R1189M
2414.099	1.616	2460373	WORD	n/a	wordpools/wordpool_EN.txt	STEM	5	23	[0, 0, 0]	n/a	FR1	2	R1189M
2415.715	0.834	2461988	WORD_OFF	n/a	n/a	STEM	5	23	[0, 0, 0]	n/a	FR1	2	R1189M
2416.549	1.618	2462822	WORD	n/a	wordpools/wordpool_EN.txt	DRUM	6	23	[0, 0, 0]	n/a	FR1	2	R1189M
2418.167	0.967	2464440	WORD_OFF	n/a	n/a	DRUM	6	23	[0, 0, 0]	n/a	FR1	2	R1189M
2419.134	1.616	2465407	WORD	n/a	wordpools/wordpool_EN.txt	FUR	7	23	[0, 0, 0]	n/a	FR1	2	R1189M
2420.75	0.95	2467023	WORD_OFF	n/a	n/a	FUR	7	23	[0, 0, 0]	n/a	FR1	2	R1189M
2421.7	1.617	2467973	WORD	n/a	wordpools/wordpool_EN.txt	HAWK	8	23	[0, 0, 0]	n/a	FR1	2	R1189M
2423.317	0.918	2469590	WORD_OFF	n/a	n/a	HAWK	8	23	[0, 0, 0]	n/a	FR1	2	R1189M
2424.235	1.616	2470508	WORD	n/a	wordpools/wordpool_EN.txt	COUCH	9	23	[0, 0, 0]	n/a	FR1	2	R1189M
2425.851	0.8	2472124	WORD_OFF	n/a	n/a	COUCH	9	23	[0, 0, 0]	n/a	FR1	2	R1189M
2426.651	1.618	2472924	WORD	n/a	wordpools/wordpool_EN.txt	PIE	10	23	[0, 0, 0]	n/a	FR1	2	R1189M
2428.269	0.783	2474542	WORD_OFF	n/a	n/a	PIE	10	23	[0, 0, 0]	n/a	FR1	2	R1189M
2429.052	1.616	2475325	WORD	n/a	wordpools/wordpool_EN.txt	EEL	11	23	[0, 0, 0]	n/a	FR1	2	R1189M
2430.668	0.967	2476941	WORD_OFF	n/a	n/a	EEL	11	23	[0, 0, 0]	n/a	FR1	2	R1189M
2431.635	1.601	2477908	WORD	n/a	wordpools/wordpool_EN.txt	FAN	12	23	[0, 0, 0]	n/a	FR1	2	R1189M
2433.236	0.0	2479508	WORD_OFF	n/a	n/a	FAN	12	23	[0, 0, 0]	n/a	FR1	2	R1189M
2433.236	0.001	2479508	DISTRACT_START	n/a	n/a	n/a	-999	23	[0, 0, 0]	n/a	FR1	2	R1189M
2433.237	0.016	2479509	START	n/a	n/a	n/a	-999	23	[-999, -999, -999]	n/a	FR1	2	R1189M
2433.253	4.216	2479525	PROB	4.216	n/a	n/a	-999	23	[3, 6, 6]	15	FR1	2	R1189M
2437.469	3.435	2483741	PROB	3.435	n/a	n/a	-999	23	[8, 6, 3]	17	FR1	2	R1189M
2440.904	3.984	2487176	PROB	3.984	n/a	n/a	-999	23	[4, 7, 8]	19	FR1	2	R1189M
2444.888	1.8	2491160	PROB	1.8	n/a	n/a	-999	23	[5, 5, 5]	15	FR1	2	R1189M
2446.688	2.585	2492960	PROB	2.585	n/a	n/a	-999	23	[2, 8, 6]	16	FR1	2	R1189M
2449.273	2.0	2495545	PROB	2.0	n/a	n/a	-999	23	[3, 8, 5]	16	FR1	2	R1189M
2451.273	2.32	2497544	PROB	2.32	n/a	n/a	-999	23	[2, 7, 6]	15	FR1	2	R1189M
2453.593	0.013	2499864	STOP	n/a	n/a	n/a	-999	23	[-999, -999, -999]	n/a	FR1	2	R1189M
2453.606	0.634	2499877	DISTRACT_END	n/a	n/a	n/a	-999	23	[0, 0, 0]	n/a	FR1	2	R1189M
2454.24	0.517	2500511	RETRIEVAL_ORIENT	n/a	n/a	n/a	-999	23	[0, 0, 0]	n/a	FR1	2	R1189M
2454.757	1.115	2501028	REC_START	n/a	n/a	n/a	-999	23	[0, 0, 0]	n/a	FR1	2	R1189M
2455.872	1.361	2502143	REC_WORD	1.361	n/a	HAT	-999	23	[0, 0, 0]	n/a	FR1	2	R1189M
2457.233	1.523	2503504	REC_WORD	1.523	n/a	VINE	-999	23	[0, 0, 0]	n/a	FR1	2	R1189M
2458.756	1.408	2505027	REC_WORD	1.408	n/a	TEA	-999	23	[0, 0, 0]	n/a	FR1	2	R1189M
2460.164	2.535	2506435	REC_WORD	2.535	n/a	STEM	-999	23	[0, 0, 0]	n/a	FR1	2	R1189M
2462.699	22.069	2508970	REC_WORD	22.069	n/a	HAWK	-999	23	[0, 0, 0]	n/a	FR1	2	R1189M
2484.768	4.396	2531037	REC_END	n/a	n/a	n/a	-999	23	[0, 0, 0]	n/a	FR1	2	R1189M
2489.164	0.5	2535433	TRIAL	n/a	n/a	n/a	-999	24	[0, 0, 0]	n/a	FR1	2	R1189M
2489.664	10.428	2535933	COUNTDOWN_START	n/a	n/a	n/a	-999	24	[0, 0, 0]	n/a	FR1	2	R1189M
2500.092	0.007	2546361	COUNTDOWN_END	n/a	n/a	n/a	-999	24	[0, 0, 0]	n/a	FR1	2	R1189M
2500.099	1.616	2546368	ORIENT	n/a	n/a	n/a	-999	24	[0, 0, 0]	n/a	FR1	2	R1189M
2501.715	2.118	2547984	ORIENT_OFF	n/a	n/a	n/a	-999	24	[0, 0, 0]	n/a	FR1	2	R1189M
2503.833	1.616	2550101	WORD	n/a	wordpools/wordpool_EN.txt	PEA	1	24	[0, 0, 0]	n/a	FR1	2	R1189M
2505.449	0.835	2551717	WORD_OFF	n/a	n/a	PEA	1	24	[0, 0, 0]	n/a	FR1	2	R1189M
2506.284	1.617	2552552	WORD	n/a	wordpools/wordpool_EN.txt	FOG	2	24	[0, 0, 0]	n/a	FR1	2	R1189M
2507.901	1.017	2554169	WORD_OFF	n/a	n/a	FOG	2	24	[0, 0, 0]	n/a	FR1	2	R1189M
2508.918	1.616	2555186	WORD	n/a	wordpools/wordpool_EN.txt	STRAW	3	24	[0, 0, 0]	n/a	FR1	2	R1189M
2510.534	0.966	2556802	WORD_OFF	n/a	n/a	STRAW	3	24	[0, 0, 0]	n/a	FR1	2	R1189M
2511.5	1.618	2557768	WORD	n/a	wordpools/wordpool_EN.txt	BAT	4	24	[0, 0, 0]	n/a	FR1	2	R1189M
2513.118	0.967	2559386	WORD_OFF	n/a	n/a	BAT	4	24	[0, 0, 0]	n/a	FR1	2	R1189M
2514.085	1.616	2560353	WORD	n/a	wordpools/wordpool_EN.txt	SKI	5	24	[0, 0, 0]	n/a	FR1	2	R1189M
2515.701	0.834	2561969	WORD_OFF	n/a	n/a	SKI	5	24	[0, 0, 0]	n/a	FR1	2	R1189M
2516.535	1.618	2562803	WORD	n/a	wordpools/wordpool_EN.txt	NOSE	6	24	[0, 0, 0]	n/a	FR1	2	R1189M
2518.153	0.833	2564421	WORD_OFF	n/a	n/a	NOSE	6	24	[0, 0, 0]	n/a	FR1	2	R1189M
2518.986	1.616	2565254	WORD	n/a	wordpools/wordpool_EN.txt	PIT	7	24	[0, 0, 0]	n/a	FR1	2	R1189M
2520.602	0.867	2566869	WORD_OFF	n/a	n/a	PIT	7	24	[0, 0, 0]	n/a	FR1	2	R1189M
2521.469	1.618	2567736	WORD	n/a	wordpools/wordpool_EN.txt	CORD	8	24	[0, 0, 0]	n/a	FR1	2	R1189M
2523.087	0.95	2569354	WORD_OFF	n/a	n/a	CORD	8	24	[0, 0, 0]	n/a	FR1	2	R1189M
2524.037	1.616	2570304	WORD	n/a	wordpools/wordpool_EN.txt	POOL	9	24	[0, 0, 0]	n/a	FR1	2	R1189M
2525.653	0.85	2571920	WORD_OFF	n/a	n/a	POOL	9	24	[0, 0, 0]	n/a	FR1	2	R1189M
2526.503	1.618	2572770	WORD	n/a	wordpools/wordpool_EN.txt	NET	10	24	[0, 0, 0]	n/a	FR1	2	R1189M
2528.121	1.017	2574388	WORD_OFF	n/a	n/a	NET	10	24	[0, 0, 0]	n/a	FR1	2	R1189M
2529.138	1.616	2575405	WORD	n/a	wordpools/wordpool_EN.txt	CASH	11	24	[0, 0, 0]	n/a	FR1	2	R1189M
2530.754	0.967	2577021	WORD_OFF	n/a	n/a	CASH	11	24	[0, 0, 0]	n/a	FR1	2	R1189M
2531.721	1.617	2577988	WORD	n/a	wordpools/wordpool_EN.txt	SOUP	12	24	[0, 0, 0]	n/a	FR1	2	R1189M
2533.338	0.0	2579605	WORD_OFF	n/a	n/a	SOUP	12	24	[0, 0, 0]	n/a	FR1	2	R1189M
2533.338	0.001	2579605	DISTRACT_START	n/a	n/a	n/a	-999	24	[0, 0, 0]	n/a	FR1	2	R1189M
2533.339	0.016	2579606	START	n/a	n/a	n/a	-999	24	[-999, -999, -999]	n/a	FR1	2	R1189M
2533.355	3.568	2579622	PROB	3.568	n/a	n/a	-999	24	[3, 2, 2]	7	FR1	2	R1189M
2536.923	2.549	2583190	PROB	2.549	n/a	n/a	-999	24	[1, 8, 7]	16	FR1	2	R1189M
2539.472	2.702	2585738	PROB	2.702	n/a	n/a	-999	24	[9, 7, 2]	18	FR1	2	R1189M
2542.174	1.934	2588440	PROB	1.934	n/a	n/a	-999	24	[6, 4, 3]	1	FR1	2	R1189M
2544.108	5.001	2590374	PROB	5.001	n/a	n/a	-999	24	[7, 2, 8]	17	FR1	2	R1189M
2549.109	3.7	2595375	PROB	3.7	n/a	n/a	-999	24	[7, 5, 8]	20	FR1	2	R1189M
2552.809	2.705	2599075	PROB	2.705	n/a	n/a	-999	24	[3, 6, 3]	12	FR1	2	R1189M
2555.514	0.012	2601779	STOP	n/a	n/a	n/a	-999	24	[-999, -999, -999]	n/a	FR1	2	R1189M
2555.526	0.684	2601791	DISTRACT_END	n/a	n/a	n/a	-999	24	[0, 0, 0]	n/a	FR1	2	R1189M
2556.21	0.516	2602475	RETRIEVAL_ORIENT	n/a	n/a	n/a	-999	24	[0, 0, 0]	n/a	FR1	2	R1189M
2556.726	1.394	2602991	REC_START	n/a	n/a	n/a	-999	24	[0, 0, 0]	n/a	FR1	2	R1189M
2558.12	2.043	2604385	REC_WORD	2.043	n/a	PEA	-999	24	[0, 0, 0]	n/a	FR1	2	R1189M
2560.163	1.667	2606428	REC_WORD	1.667	n/a	FOG	-999	24	[0, 0, 0]	n/a	FR1	2	R1189M
2561.83	2.139	2608095	REC_WORD	2.139	n/a	STRAW	-999	24	[0, 0, 0]	n/a	FR1	2	R1189M
2563.969	1.89	2610234	REC_WORD	1.89	n/a	BAT	-999	24	[0, 0, 0]	n/a	FR1	2	R1189M
2565.859	2.277	2612124	REC_WORD	2.277	n/a	SKI	-999	24	[0, 0, 0]	n/a	FR1	2	R1189M
2568.136	18.602	2614401	REC_WORD	18.602	n/a	NOSE	-999	24	[0, 0, 0]	n/a	FR1	2	R1189M
2586.738	5.346	2633002	REC_END	n/a	n/a	n/a	-999	24	[0, 0, 0]	n/a	FR1	2	R1189M
2592.084	0.5	2638347	TRIAL	n/a	n/a	n/a	-999	25	[0, 0, 0]	n/a	FR1	2	R1189M
2592.584	10.428	2638847	COUNTDOWN_START	n/a	n/a	n/a	-999	25	[0, 0, 0]	n/a	FR1	2	R1189M
2603.012	0.007	2649275	COUNTDOWN_END	n/a	n/a	n/a	-999	25	[0, 0, 0]	n/a	FR1	2	R1189M
2603.019	1.616	2649282	ORIENT	n/a	n/a	n/a	-999	25	[0, 0, 0]	n/a	FR1	2	R1189M
