onset	duration	sample	trial_type	response_time	stim_file	item_name	serialpos	list	test	answer	experiment	session	subject
0.0	33.568	2436	SESS_START	n/a	n/a	n/a	-999	-999	[0, 0, 0]	n/a	FR1	2	R1123C
33.568	10.428	19219	COUNTDOWN_START	n/a	n/a	n/a	-999	-999	[0, 0, 0]	n/a	FR1	2	R1123C
43.996	3.757	24433	COUNTDOWN_END	n/a	n/a	n/a	-999	-999	[0, 0, 0]	n/a	FR1	2	R1123C
47.753	2.552	26311	PRACTICE_WORD	n/a	n/a	WATCH	1	-1	[0, 0, 0]	n/a	FR1	2	R1123C
50.305	2.433	27587	PRACTICE_WORD	n/a	n/a	RING	2	-1	[0, 0, 0]	n/a	FR1	2	R1123C
52.738	2.584	28803	PRACTICE_WORD	n/a	n/a	TONGUE	3	-1	[0, 0, 0]	n/a	FR1	2	R1123C
55.322	2.417	30095	PRACTICE_WORD	n/a	n/a	CHEST	4	-1	[0, 0, 0]	n/a	FR1	2	R1123C
57.739	2.384	31303	PRACTICE_WORD	n/a	n/a	BEAM	5	-1	[0, 0, 0]	n/a	FR1	2	R1123C
60.123	2.484	32495	PRACTICE_WORD	n/a	n/a	WAGON	6	-1	[0, 0, 0]	n/a	FR1	2	R1123C
62.607	2.517	33737	PRACTICE_WORD	n/a	n/a	ATTIC	7	-1	[0, 0, 0]	n/a	FR1	2	R1123C
65.124	2.533	34996	PRACTICE_WORD	n/a	n/a	FLOOD	8	-1	[0, 0, 0]	n/a	FR1	2	R1123C
67.657	2.385	36262	PRACTICE_WORD	n/a	n/a	COTTON	9	-1	[0, 0, 0]	n/a	FR1	2	R1123C
70.042	2.384	37454	PRACTICE_WORD	n/a	n/a	CAMEL	10	-1	[0, 0, 0]	n/a	FR1	2	R1123C
72.426	2.382	38646	PRACTICE_WORD	n/a	n/a	IRON	11	-1	[0, 0, 0]	n/a	FR1	2	R1123C
74.808	1.601	39837	PRACTICE_WORD	n/a	n/a	RHINO	12	-1	[0, 0, 0]	n/a	FR1	2	R1123C
76.409	0.001	40638	PRACTICE_DISTRACT_START	n/a	n/a	n/a	-999	-1	[0, 0, 0]	n/a	FR1	2	R1123C
76.41	0.016	40638	START	n/a	n/a	n/a	-999	-1	[-999, -999, -999]	n/a	FR1	2	R1123C
76.426	6.334	40646	PROB	6.334	n/a	n/a	-999	-1	[6, 5, 4]	15	FR1	2	R1123C
82.76	3.135	43813	PROB	3.135	n/a	n/a	-999	-1	[6, 7, 3]	16	FR1	2	R1123C
85.895	2.883	45380	PROB	2.883	n/a	n/a	-999	-1	[9, 1, 9]	19	FR1	2	R1123C
88.778	4.335	46822	PROB	4.335	n/a	n/a	-999	-1	[8, 3, 2]	13	FR1	2	R1123C
93.113	4.1	48989	PROB	4.1	n/a	n/a	-999	-1	[7, 1, 9]	17	FR1	2	R1123C
97.213	0.017	51039	STOP	n/a	n/a	n/a	-999	-1	[-999, -999, -999]	n/a	FR1	2	R1123C
97.23	0.618	51047	PRACTICE_DISTRACT_END	n/a	n/a	n/a	-999	-1	[0, 0, 0]	n/a	FR1	2	R1123C
97.848	30.516	51356	PRACTICE_REC_START	n/a	n/a	n/a	-999	-1	[0, 0, 0]	n/a	FR1	2	R1123C
128.364	12.258	66613	PRACTICE_REC_END	n/a	n/a	n/a	-999	-1	[0, 0, 0]	n/a	FR1	2	R1123C
140.622	0.0	72741	TRIAL	n/a	n/a	n/a	-999	1	[0, 0, 0]	n/a	FR1	2	R1123C
140.622	10.428	72741	COUNTDOWN_START	n/a	n/a	n/a	-999	1	[0, 0, 0]	n/a	FR1	2	R1123C
151.05	0.007	77955	COUNTDOWN_END	n/a	n/a	n/a	-999	1	[0, 0, 0]	n/a	FR1	2	R1123C
151.057	2.4	77958	ORIENT	n/a	n/a	n/a	-999	1	[0, 0, 0]	n/a	FR1	2	R1123C
153.457	2.601	79158	WORD	n/a	wordpools/wordpool_EN.txt	CLOTH	1	1	[0, 0, 0]	n/a	FR1	2	R1123C
156.058	2.583	80459	WORD	n/a	wordpools/wordpool_EN.txt	ZOO	2	1	[0, 0, 0]	n/a	FR1	2	R1123C
158.641	2.518	81750	WORD	n/a	wordpools/wordpool_EN.txt	GUARD	3	1	[0, 0, 0]	n/a	FR1	2	R1123C
161.159	2.549	83009	WORD	n/a	wordpools/wordpool_EN.txt	DEER	4	1	[0, 0, 0]	n/a	FR1	2	R1123C
163.708	2.552	84283	WORD	n/a	wordpools/wordpool_EN.txt	INK	5	1	[0, 0, 0]	n/a	FR1	2	R1123C
166.26	2.383	85559	WORD	n/a	wordpools/wordpool_EN.txt	MAIL	6	1	[0, 0, 0]	n/a	FR1	2	R1123C
168.643	2.585	86750	WORD	n/a	wordpools/wordpool_EN.txt	FOAM	7	1	[0, 0, 0]	n/a	FR1	2	R1123C
171.228	2.566	88043	WORD	n/a	wordpools/wordpool_EN.txt	PIT	8	1	[0, 0, 0]	n/a	FR1	2	R1123C
173.794	2.618	89326	WORD	n/a	wordpools/wordpool_EN.txt	BADGE	9	1	[0, 0, 0]	n/a	FR1	2	R1123C
176.412	2.567	90635	WORD	n/a	wordpools/wordpool_EN.txt	CAGE	10	1	[0, 0, 0]	n/a	FR1	2	R1123C
178.979	2.567	91918	WORD	n/a	wordpools/wordpool_EN.txt	BEAK	11	1	[0, 0, 0]	n/a	FR1	2	R1123C
181.546	1.617	93201	WORD	n/a	wordpools/wordpool_EN.txt	SHEET	12	1	[0, 0, 0]	n/a	FR1	2	R1123C
183.163	0.001	94010	DISTRACT_START	n/a	n/a	n/a	-999	1	[0, 0, 0]	n/a	FR1	2	R1123C
183.164	0.016	94010	START	n/a	n/a	n/a	-999	1	[-999, -999, -999]	n/a	FR1	2	R1123C
183.18	4.483	94018	PROB	4.483	n/a	n/a	-999	1	[1, 3, 8]	12	FR1	2	R1123C
187.663	4.435	96260	PROB	4.435	n/a	n/a	-999	1	[8, 7, 5]	20	FR1	2	R1123C
192.098	3.367	98477	PROB	3.367	n/a	n/a	-999	1	[4, 8, 8]	20	FR1	2	R1123C
195.465	4.635	100160	PROB	4.635	n/a	n/a	-999	1	[2, 5, 8]	15	FR1	2	R1123C
200.1	3.067	102478	PROB	3.067	n/a	n/a	-999	1	[8, 1, 1]	10	FR1	2	R1123C
203.167	3.629	104011	PROB	3.629	n/a	n/a	-999	1	[2, 6, 8]	16	FR1	2	R1123C
206.796	0.004	105825	STOP	n/a	n/a	n/a	-999	1	[-999, -999, -999]	n/a	FR1	2	R1123C
206.8	1.188	105827	DISTRACT_END	n/a	n/a	n/a	-999	1	[0, 0, 0]	n/a	FR1	2	R1123C
207.988	0.451	106421	REC_START	n/a	n/a	n/a	-999	1	[0, 0, 0]	n/a	FR1	2	R1123C
208.439	1.068	106647	REC_WORD	1.068	n/a	CAGE	-999	1	[0, 0, 0]	n/a	FR1	2	R1123C
209.507	1.188	107181	REC_WORD	1.188	n/a	CLOTH	-999	1	[0, 0, 0]	n/a	FR1	2	R1123C
210.695	0.975	107775	REC_WORD	0.975	n/a	DEER	-999	1	[0, 0, 0]	n/a	FR1	2	R1123C
211.67	26.325	108262	REC_WORD	26.325	n/a	ZOO	-999	1	[0, 0, 0]	n/a	FR1	2	R1123C
237.995	5.946	121423	REC_END	n/a	n/a	n/a	-999	1	[0, 0, 0]	n/a	FR1	2	R1123C
243.941	0.001	124396	COUNTDOWN_START	n/a	n/a	n/a	-999	2	[0, 0, 0]	n/a	FR1	2	R1123C
243.942	10.427	124397	TRIAL	n/a	n/a	n/a	-999	2	[0, 0, 0]	n/a	FR1	2	R1123C
254.369	0.008	129610	COUNTDOWN_END	n/a	n/a	n/a	-999	2	[0, 0, 0]	n/a	FR1	2	R1123C
254.377	2.567	129614	ORIENT	n/a	n/a	n/a	-999	2	[0, 0, 0]	n/a	FR1	2	R1123C
256.944	2.4	130897	WORD	n/a	wordpools/wordpool_EN.txt	HOOK	1	2	[0, 0, 0]	n/a	FR1	2	R1123C
259.344	2.483	132097	WORD	n/a	wordpools/wordpool_EN.txt	POOL	2	2	[0, 0, 0]	n/a	FR1	2	R1123C
261.827	2.551	133338	WORD	n/a	wordpools/wordpool_EN.txt	MOUSE	3	2	[0, 0, 0]	n/a	FR1	2	R1123C
264.378	2.45	134614	WORD	n/a	wordpools/wordpool_EN.txt	MAT	4	2	[0, 0, 0]	n/a	FR1	2	R1123C
266.828	2.535	135839	WORD	n/a	wordpools/wordpool_EN.txt	PET	5	2	[0, 0, 0]	n/a	FR1	2	R1123C
269.363	2.617	137106	WORD	n/a	wordpools/wordpool_EN.txt	BALL	6	2	[0, 0, 0]	n/a	FR1	2	R1123C
271.98	2.567	138414	WORD	n/a	wordpools/wordpool_EN.txt	TOY	7	2	[0, 0, 0]	n/a	FR1	2	R1123C
274.547	2.617	139698	WORD	n/a	wordpools/wordpool_EN.txt	FLAME	8	2	[0, 0, 0]	n/a	FR1	2	R1123C
277.164	2.583	141006	WORD	n/a	wordpools/wordpool_EN.txt	DOLL	9	2	[0, 0, 0]	n/a	FR1	2	R1123C
279.747	2.518	142298	WORD	n/a	wordpools/wordpool_EN.txt	CAT	10	2	[0, 0, 0]	n/a	FR1	2	R1123C
282.265	2.516	143556	WORD	n/a	wordpools/wordpool_EN.txt	NAIL	11	2	[0, 0, 0]	n/a	FR1	2	R1123C
284.781	1.601	144814	WORD	n/a	wordpools/wordpool_EN.txt	FISH	12	2	[0, 0, 0]	n/a	FR1	2	R1123C
286.382	0.001	145615	DISTRACT_START	n/a	n/a	n/a	-999	2	[0, 0, 0]	n/a	FR1	2	R1123C
286.383	0.016	145615	START	n/a	n/a	n/a	-999	2	[-999, -999, -999]	n/a	FR1	2	R1123C
286.399	5.384	145623	PROB	5.384	n/a	n/a	-999	2	[9, 7, 7]	21	FR1	2	R1123C
291.783	4.635	148315	PROB	4.635	n/a	n/a	-999	2	[3, 5, 9]	17	FR1	2	R1123C
296.418	3.767	150632	PROB	3.767	n/a	n/a	-999	2	[8, 3, 4]	15	FR1	2	R1123C
300.185	10.413	152516	PROB	10.413	n/a	n/a	-999	2	[6, 8, 4]	18	FR1	2	R1123C
310.598	0.006	157722	STOP	n/a	n/a	n/a	-999	2	[-999, -999, -999]	n/a	FR1	2	R1123C
310.604	1.216	157725	DISTRACT_END	n/a	n/a	n/a	-999	2	[0, 0, 0]	n/a	FR1	2	R1123C
311.82	0.379	158333	REC_START	n/a	n/a	n/a	-999	2	[0, 0, 0]	n/a	FR1	2	R1123C
312.199	1.086	158522	REC_WORD	1.086	n/a	HOOK	-999	2	[0, 0, 0]	n/a	FR1	2	R1123C
313.285	1.117	159065	REC_WORD	1.117	n/a	POOL	-999	2	[0, 0, 0]	n/a	FR1	2	R1123C
314.402	1.693	159623	REC_WORD	1.693	n/a	FISH	-999	2	[0, 0, 0]	n/a	FR1	2	R1123C
316.095	3.636	160470	REC_WORD	3.636	n/a	TOY	-999	2	[0, 0, 0]	n/a	FR1	2	R1123C
319.731	5.529	162288	REC_WORD	5.529	n/a	DOG	-999	2	[0, 0, 0]	n/a	FR1	2	R1123C
325.26	0.889	165052	REC_WORD	0.889	n/a	MAT	-999	2	[0, 0, 0]	n/a	FR1	2	R1123C
326.149	15.685	165496	REC_WORD	15.685	n/a	MOUSE	-999	2	[0, 0, 0]	n/a	FR1	2	R1123C
341.834	19.663	173338	REC_END	n/a	n/a	n/a	-999	2	[0, 0, 0]	n/a	FR1	2	R1123C
361.497	0.0	183169	TRIAL	n/a	n/a	n/a	-999	3	[0, 0, 0]	n/a	FR1	2	R1123C
361.497	10.428	183169	COUNTDOWN_START	n/a	n/a	n/a	-999	3	[0, 0, 0]	n/a	FR1	2	R1123C
371.925	0.007	188382	COUNTDOWN_END	n/a	n/a	n/a	-999	3	[0, 0, 0]	n/a	FR1	2	R1123C
371.932	2.434	188386	ORIENT	n/a	n/a	n/a	-999	3	[0, 0, 0]	n/a	FR1	2	R1123C
374.366	2.533	189603	WORD	n/a	wordpools/wordpool_EN.txt	TAIL	1	3	[0, 0, 0]	n/a	FR1	2	R1123C
376.899	2.368	190869	WORD	n/a	wordpools/wordpool_EN.txt	WOLF	2	3	[0, 0, 0]	n/a	FR1	2	R1123C
379.267	2.382	192053	WORD	n/a	wordpools/wordpool_EN.txt	NEST	3	3	[0, 0, 0]	n/a	FR1	2	R1123C
381.649	2.535	193244	WORD	n/a	wordpools/wordpool_EN.txt	KITE	4	3	[0, 0, 0]	n/a	FR1	2	R1123C
384.184	2.616	194511	WORD	n/a	wordpools/wordpool_EN.txt	DUCK	5	3	[0, 0, 0]	n/a	FR1	2	R1123C
386.8	2.519	195819	WORD	n/a	wordpools/wordpool_EN.txt	RAT	6	3	[0, 0, 0]	n/a	FR1	2	R1123C
389.319	2.516	197079	WORD	n/a	wordpools/wordpool_EN.txt	HOLE	7	3	[0, 0, 0]	n/a	FR1	2	R1123C
391.835	2.618	198337	WORD	n/a	wordpools/wordpool_EN.txt	PIG	8	3	[0, 0, 0]	n/a	FR1	2	R1123C
394.453	2.617	199645	WORD	n/a	wordpools/wordpool_EN.txt	PRINCE	9	3	[0, 0, 0]	n/a	FR1	2	R1123C
397.07	2.599	200954	WORD	n/a	wordpools/wordpool_EN.txt	RAKE	10	3	[0, 0, 0]	n/a	FR1	2	R1123C
399.669	2.435	202253	WORD	n/a	wordpools/wordpool_EN.txt	BARN	11	3	[0, 0, 0]	n/a	FR1	2	R1123C
402.104	1.616	203471	WORD	n/a	wordpools/wordpool_EN.txt	PEN	12	3	[0, 0, 0]	n/a	FR1	2	R1123C
403.72	0.001	204279	DISTRACT_START	n/a	n/a	n/a	-999	3	[0, 0, 0]	n/a	FR1	2	R1123C
403.721	0.016	204279	START	n/a	n/a	n/a	-999	3	[-999, -999, -999]	n/a	FR1	2	R1123C
403.737	6.569	204287	PROB	6.569	n/a	n/a	-999	3	[3, 5, 6]	14	FR1	2	R1123C
410.306	5.55	207571	PROB	5.55	n/a	n/a	-999	3	[3, 5, 6]	14	FR1	2	R1123C
415.856	6.335	210346	PROB	6.335	n/a	n/a	-999	3	[8, 2, 6]	16	FR1	2	R1123C
422.191	3.086	213513	PROB	3.086	n/a	n/a	-999	3	[5, 1, 1]	7	FR1	2	R1123C
425.277	0.015	215056	STOP	n/a	n/a	n/a	-999	3	[-999, -999, -999]	n/a	FR1	2	R1123C
425.292	1.051	215064	DISTRACT_END	n/a	n/a	n/a	-999	3	[0, 0, 0]	n/a	FR1	2	R1123C
426.343	0.573	215589	REC_START	n/a	n/a	n/a	-999	3	[0, 0, 0]	n/a	FR1	2	R1123C
426.916	0.898	215875	REC_WORD	0.898	n/a	PIG	-999	3	[0, 0, 0]	n/a	FR1	2	R1123C
427.814	0.982	216324	REC_WORD	0.982	n/a	BARN	-999	3	[0, 0, 0]	n/a	FR1	2	R1123C
428.796	27.558	216815	REC_WORD	27.558	n/a	TAIL	-999	3	[0, 0, 0]	n/a	FR1	2	R1123C
456.354	1.827	230593	REC_END	n/a	n/a	n/a	-999	3	[0, 0, 0]	n/a	FR1	2	R1123C
458.181	0.001	231507	COUNTDOWN_START	n/a	n/a	n/a	-999	4	[0, 0, 0]	n/a	FR1	2	R1123C
458.182	10.427	231507	TRIAL	n/a	n/a	n/a	-999	4	[0, 0, 0]	n/a	FR1	2	R1123C
468.609	0.008	236720	COUNTDOWN_END	n/a	n/a	n/a	-999	4	[0, 0, 0]	n/a	FR1	2	R1123C
468.617	2.45	236724	ORIENT	n/a	n/a	n/a	-999	4	[0, 0, 0]	n/a	FR1	2	R1123C
471.067	2.517	237949	WORD	n/a	wordpools/wordpool_EN.txt	SINK	1	4	[0, 0, 0]	n/a	FR1	2	R1123C
473.584	2.434	239207	WORD	n/a	wordpools/wordpool_EN.txt	RAIN	2	4	[0, 0, 0]	n/a	FR1	2	R1123C
476.018	2.467	240424	WORD	n/a	wordpools/wordpool_EN.txt	PURSE	3	4	[0, 0, 0]	n/a	FR1	2	R1123C
478.485	2.434	241658	WORD	n/a	wordpools/wordpool_EN.txt	BAG	4	4	[0, 0, 0]	n/a	FR1	2	R1123C
480.919	2.534	242875	WORD	n/a	wordpools/wordpool_EN.txt	NOSE	5	4	[0, 0, 0]	n/a	FR1	2	R1123C
483.453	2.5	244141	WORD	n/a	wordpools/wordpool_EN.txt	FENCE	6	4	[0, 0, 0]	n/a	FR1	2	R1123C
485.953	2.567	245391	WORD	n/a	wordpools/wordpool_EN.txt	PIPE	7	4	[0, 0, 0]	n/a	FR1	2	R1123C
488.52	2.568	246675	WORD	n/a	wordpools/wordpool_EN.txt	HAND	8	4	[0, 0, 0]	n/a	FR1	2	R1123C
491.088	2.417	247959	WORD	n/a	wordpools/wordpool_EN.txt	SUIT	9	4	[0, 0, 0]	n/a	FR1	2	R1123C
493.505	2.417	249167	WORD	n/a	wordpools/wordpool_EN.txt	BOY	10	4	[0, 0, 0]	n/a	FR1	2	R1123C
495.922	2.583	250375	WORD	n/a	wordpools/wordpool_EN.txt	FLUTE	11	4	[0, 0, 0]	n/a	FR1	2	R1123C
498.505	1.618	251667	WORD	n/a	wordpools/wordpool_EN.txt	SHIRT	12	4	[0, 0, 0]	n/a	FR1	2	R1123C
500.123	0.001	252476	DISTRACT_START	n/a	n/a	n/a	-999	4	[0, 0, 0]	n/a	FR1	2	R1123C
500.124	0.015	252476	START	n/a	n/a	n/a	-999	4	[-999, -999, -999]	n/a	FR1	2	R1123C
500.139	3.918	252484	PROB	3.918	n/a	n/a	-999	4	[3, 8, 8]	19	FR1	2	R1123C
504.057	3.934	254443	PROB	3.934	n/a	n/a	-999	4	[7, 7, 6]	20	FR1	2	R1123C
507.991	4.05	256409	PROB	4.05	n/a	n/a	-999	4	[5, 3, 2]	10	FR1	2	R1123C
512.041	4.418	258434	PROB	4.418	n/a	n/a	-999	4	[1, 4, 6]	11	FR1	2	R1123C
516.459	2.567	260643	PROB	2.567	n/a	n/a	-999	4	[8, 1, 2]	11	FR1	2	R1123C
519.026	6.762	261926	PROB	6.762	n/a	n/a	-999	4	[4, 7, 6]	17	FR1	2	R1123C
525.788	0.005	265307	STOP	n/a	n/a	n/a	-999	4	[-999, -999, -999]	n/a	FR1	2	R1123C
525.793	1.218	265310	DISTRACT_END	n/a	n/a	n/a	-999	4	[0, 0, 0]	n/a	FR1	2	R1123C
527.011	0.532	265919	REC_START	n/a	n/a	n/a	-999	4	[0, 0, 0]	n/a	FR1	2	R1123C
527.543	1.23	266184	REC_WORD	1.23	n/a	NOSE	-999	4	[0, 0, 0]	n/a	FR1	2	R1123C
528.773	1.465	266799	REC_WORD	1.465	n/a	BOY	-999	4	[0, 0, 0]	n/a	FR1	2	R1123C
530.238	5.116	267532	REC_WORD	5.116	n/a	FINGER	-999	4	[0, 0, 0]	n/a	FR1	2	R1123C
535.354	21.671	270090	REC_WORD	21.671	n/a	FLUTE	-999	4	[0, 0, 0]	n/a	FR1	2	R1123C
557.025	1.724	280924	REC_END	n/a	n/a	n/a	-999	4	[0, 0, 0]	n/a	FR1	2	R1123C
558.749	0.001	281786	COUNTDOWN_START	n/a	n/a	n/a	-999	5	[0, 0, 0]	n/a	FR1	2	R1123C
558.75	10.427	281787	TRIAL	n/a	n/a	n/a	-999	5	[0, 0, 0]	n/a	FR1	2	R1123C
569.177	0.009	287000	COUNTDOWN_END	n/a	n/a	n/a	-999	5	[0, 0, 0]	n/a	FR1	2	R1123C
569.186	2.4	287004	ORIENT	n/a	n/a	n/a	-999	5	[0, 0, 0]	n/a	FR1	2	R1123C
571.586	2.434	288204	WORD	n/a	wordpools/wordpool_EN.txt	JET	1	5	[0, 0, 0]	n/a	FR1	2	R1123C
574.02	2.433	289421	WORD	n/a	wordpools/wordpool_EN.txt	SAIL	2	5	[0, 0, 0]	n/a	FR1	2	R1123C
576.453	2.601	290637	WORD	n/a	wordpools/wordpool_EN.txt	CLOCK	3	5	[0, 0, 0]	n/a	FR1	2	R1123C
579.054	2.616	291938	WORD	n/a	wordpools/wordpool_EN.txt	SPARK	4	5	[0, 0, 0]	n/a	FR1	2	R1123C
581.67	2.585	293246	WORD	n/a	wordpools/wordpool_EN.txt	EAR	5	5	[0, 0, 0]	n/a	FR1	2	R1123C
584.255	2.634	294538	WORD	n/a	wordpools/wordpool_EN.txt	SHIP	6	5	[0, 0, 0]	n/a	FR1	2	R1123C
586.889	2.384	295855	WORD	n/a	wordpools/wordpool_EN.txt	BLUSH	7	5	[0, 0, 0]	n/a	FR1	2	R1123C
589.273	2.382	297047	WORD	n/a	wordpools/wordpool_EN.txt	PLANE	8	5	[0, 0, 0]	n/a	FR1	2	R1123C
591.655	2.452	298238	WORD	n/a	wordpools/wordpool_EN.txt	LAMP	9	5	[0, 0, 0]	n/a	FR1	2	R1123C
594.107	2.434	299464	WORD	n/a	wordpools/wordpool_EN.txt	PHONE	10	5	[0, 0, 0]	n/a	FR1	2	R1123C
596.541	2.617	300680	WORD	n/a	wordpools/wordpool_EN.txt	CAR	11	5	[0, 0, 0]	n/a	FR1	2	R1123C
599.158	1.616	301989	WORD	n/a	wordpools/wordpool_EN.txt	DOG	12	5	[0, 0, 0]	n/a	FR1	2	R1123C
600.774	0.001	302797	DISTRACT_START	n/a	n/a	n/a	-999	5	[0, 0, 0]	n/a	FR1	2	R1123C
600.775	0.016	302797	START	n/a	n/a	n/a	-999	5	[-999, -999, -999]	n/a	FR1	2	R1123C
600.791	3.634	302805	PROB	3.634	n/a	n/a	-999	5	[6, 6, 2]	14	FR1	2	R1123C
604.425	2.4	304622	PROB	2.4	n/a	n/a	-999	5	[1, 7, 7]	15	FR1	2	R1123C
606.825	4.302	305822	PROB	4.302	n/a	n/a	-999	5	[7, 7, 9]	2	FR1	2	R1123C
611.127	2.967	307973	PROB	2.967	n/a	n/a	-999	5	[5, 9, 1]	15	FR1	2	R1123C
614.094	4.034	309456	PROB	4.034	n/a	n/a	-999	5	[6, 3, 5]	14	FR1	2	R1123C
618.128	2.184	311473	PROB	2.184	n/a	n/a	-999	5	[5, 5, 1]	11	FR1	2	R1123C
620.312	2.902	312565	PROB	2.902	n/a	n/a	-999	5	[6, 1, 2]	9	FR1	2	R1123C
623.214	0.015	314016	STOP	n/a	n/a	n/a	-999	5	[-999, -999, -999]	n/a	FR1	2	R1123C
623.229	1.084	314023	DISTRACT_END	n/a	n/a	n/a	-999	5	[0, 0, 0]	n/a	FR1	2	R1123C
624.313	0.442	314565	REC_START	n/a	n/a	n/a	-999	5	[0, 0, 0]	n/a	FR1	2	R1123C
624.755	0.557	314786	REC_WORD	0.557	n/a	JET	-999	5	[0, 0, 0]	n/a	FR1	2	R1123C
625.312	1.002	315065	REC_WORD	1.002	n/a	SHIP	-999	5	[0, 0, 0]	n/a	FR1	2	R1123C
626.314	1.119	315566	REC_WORD	1.119	n/a	CAR	-999	5	[0, 0, 0]	n/a	FR1	2	R1123C
627.433	3.005	316125	REC_WORD	3.005	n/a	EAR	-999	5	[0, 0, 0]	n/a	FR1	2	R1123C
630.438	1.712	317627	REC_WORD	1.712	n/a	SAIL	-999	5	[0, 0, 0]	n/a	FR1	2	R1123C
632.15	22.177	318483	REC_WORD	22.177	n/a	SHIP	-999	5	[0, 0, 0]	n/a	FR1	2	R1123C
654.327	1.775	329571	REC_END	n/a	n/a	n/a	-999	5	[0, 0, 0]	n/a	FR1	2	R1123C
656.102	0.0	330458	COUNTDOWN_START	n/a	n/a	n/a	-999	6	[0, 0, 0]	n/a	FR1	2	R1123C
656.102	10.428	330458	TRIAL	n/a	n/a	n/a	-999	6	[0, 0, 0]	n/a	FR1	2	R1123C
666.53	0.007	335672	COUNTDOWN_END	n/a	n/a	n/a	-999	6	[0, 0, 0]	n/a	FR1	2	R1123C
666.537	2.501	335675	ORIENT	n/a	n/a	n/a	-999	6	[0, 0, 0]	n/a	FR1	2	R1123C
669.038	2.45	336926	WORD	n/a	wordpools/wordpool_EN.txt	TEA	1	6	[0, 0, 0]	n/a	FR1	2	R1123C
671.488	2.451	338151	WORD	n/a	wordpools/wordpool_EN.txt	FARM	2	6	[0, 0, 0]	n/a	FR1	2	R1123C
673.939	2.4	339376	WORD	n/a	wordpools/wordpool_EN.txt	SEAT	3	6	[0, 0, 0]	n/a	FR1	2	R1123C
676.339	2.466	340576	WORD	n/a	wordpools/wordpool_EN.txt	BRUSH	4	6	[0, 0, 0]	n/a	FR1	2	R1123C
678.805	2.535	341809	WORD	n/a	wordpools/wordpool_EN.txt	AXE	5	6	[0, 0, 0]	n/a	FR1	2	R1123C
681.34	2.399	343076	WORD	n/a	wordpools/wordpool_EN.txt	SLEEVE	6	6	[0, 0, 0]	n/a	FR1	2	R1123C
683.739	2.585	344276	WORD	n/a	wordpools/wordpool_EN.txt	CORN	7	6	[0, 0, 0]	n/a	FR1	2	R1123C
686.324	2.483	345568	WORD	n/a	wordpools/wordpool_EN.txt	HOSE	8	6	[0, 0, 0]	n/a	FR1	2	R1123C
688.807	2.618	346809	WORD	n/a	wordpools/wordpool_EN.txt	SMILE	9	6	[0, 0, 0]	n/a	FR1	2	R1123C
691.425	2.517	348118	WORD	n/a	wordpools/wordpool_EN.txt	POLE	10	6	[0, 0, 0]	n/a	FR1	2	R1123C
693.942	2.401	349377	WORD	n/a	wordpools/wordpool_EN.txt	DART	11	6	[0, 0, 0]	n/a	FR1	2	R1123C
696.343	1.617	350577	WORD	n/a	wordpools/wordpool_EN.txt	HAT	12	6	[0, 0, 0]	n/a	FR1	2	R1123C
697.96	0.001	351385	DISTRACT_START	n/a	n/a	n/a	-999	6	[0, 0, 0]	n/a	FR1	2	R1123C
697.961	0.015	351386	START	n/a	n/a	n/a	-999	6	[-999, -999, -999]	n/a	FR1	2	R1123C
697.976	4.401	351393	PROB	4.401	n/a	n/a	-999	6	[8, 3, 3]	14	FR1	2	R1123C
702.377	3.784	353594	PROB	3.784	n/a	n/a	-999	6	[2, 9, 4]	15	FR1	2	R1123C
706.161	3.517	355486	PROB	3.517	n/a	n/a	-999	6	[9, 2, 2]	13	FR1	2	R1123C
709.678	2.668	357244	PROB	2.668	n/a	n/a	-999	6	[2, 9, 2]	13	FR1	2	R1123C
712.346	2.984	358578	PROB	2.984	n/a	n/a	-999	6	[2, 6, 2]	10	FR1	2	R1123C
715.33	5.667	360070	PROB	5.667	n/a	n/a	-999	6	[2, 5, 9]	16	FR1	2	R1123C
720.997	0.017	362903	STOP	n/a	n/a	n/a	-999	6	[-999, -999, -999]	n/a	FR1	2	R1123C
721.014	1.151	362911	DISTRACT_END	n/a	n/a	n/a	-999	6	[0, 0, 0]	n/a	FR1	2	R1123C
722.165	0.378	363487	REC_START	n/a	n/a	n/a	-999	6	[0, 0, 0]	n/a	FR1	2	R1123C
722.543	1.136	363676	REC_WORD	1.136	n/a	FARM	-999	6	[0, 0, 0]	n/a	FR1	2	R1123C
723.679	4.128	364244	REC_WORD	4.128	n/a	AXE	-999	6	[0, 0, 0]	n/a	FR1	2	R1123C
727.807	24.368	366308	REC_WORD	24.368	n/a	SHIRT	-999	6	[0, 0, 0]	n/a	FR1	2	R1123C
752.175	2.112	378490	REC_END	n/a	n/a	n/a	-999	6	[0, 0, 0]	n/a	FR1	2	R1123C
754.287	0.0	379546	TRIAL	n/a	n/a	n/a	-999	7	[0, 0, 0]	n/a	FR1	2	R1123C
754.287	10.428	379546	COUNTDOWN_START	n/a	n/a	n/a	-999	7	[0, 0, 0]	n/a	FR1	2	R1123C
764.715	0.006	384760	COUNTDOWN_END	n/a	n/a	n/a	-999	7	[0, 0, 0]	n/a	FR1	2	R1123C
764.721	2.368	384763	ORIENT	n/a	n/a	n/a	-999	7	[0, 0, 0]	n/a	FR1	2	R1123C
767.089	2.401	385947	WORD	n/a	wordpools/wordpool_EN.txt	CORD	1	7	[0, 0, 0]	n/a	FR1	2	R1123C
769.49	2.583	387147	WORD	n/a	wordpools/wordpool_EN.txt	SHEEP	2	7	[0, 0, 0]	n/a	FR1	2	R1123C
772.073	2.484	388439	WORD	n/a	wordpools/wordpool_EN.txt	FILM	3	7	[0, 0, 0]	n/a	FR1	2	R1123C
774.557	2.468	389680	WORD	n/a	wordpools/wordpool_EN.txt	TOOTH	4	7	[0, 0, 0]	n/a	FR1	2	R1123C
777.025	2.383	390914	WORD	n/a	wordpools/wordpool_EN.txt	FORT	5	7	[0, 0, 0]	n/a	FR1	2	R1123C
779.408	2.501	392106	WORD	n/a	wordpools/wordpool_EN.txt	CASH	6	7	[0, 0, 0]	n/a	FR1	2	R1123C
781.909	2.4	393356	WORD	n/a	wordpools/wordpool_EN.txt	BEAN	7	7	[0, 0, 0]	n/a	FR1	2	R1123C
784.309	2.533	394556	WORD	n/a	wordpools/wordpool_EN.txt	SHARK	8	7	[0, 0, 0]	n/a	FR1	2	R1123C
786.842	2.585	395822	WORD	n/a	wordpools/wordpool_EN.txt	TOAD	9	7	[0, 0, 0]	n/a	FR1	2	R1123C
789.427	2.567	397115	WORD	n/a	wordpools/wordpool_EN.txt	BANK	10	7	[0, 0, 0]	n/a	FR1	2	R1123C
791.994	2.534	398398	WORD	n/a	wordpools/wordpool_EN.txt	BOOK	11	7	[0, 0, 0]	n/a	FR1	2	R1123C
794.528	1.617	399665	WORD	n/a	wordpools/wordpool_EN.txt	TEETH	12	7	[0, 0, 0]	n/a	FR1	2	R1123C
796.145	0.001	400474	DISTRACT_START	n/a	n/a	n/a	-999	7	[0, 0, 0]	n/a	FR1	2	R1123C
796.146	0.016	400474	START	n/a	n/a	n/a	-999	7	[-999, -999, -999]	n/a	FR1	2	R1123C
796.162	7.017	400482	PROB	7.017	n/a	n/a	-999	7	[7, 5, 8]	20	FR1	2	R1123C
803.179	3.368	403990	PROB	3.368	n/a	n/a	-999	7	[3, 8, 8]	19	FR1	2	R1123C
806.547	5.351	405674	PROB	5.351	n/a	n/a	-999	7	[6, 3, 5]	15	FR1	2	R1123C
811.898	4.084	408349	PROB	4.084	n/a	n/a	-999	7	[3, 3, 8]	14	FR1	2	R1123C
815.982	5.056	410391	PROB	5.056	n/a	n/a	-999	7	[3, 5, 9]	17	FR1	2	R1123C
821.038	0.011	412919	STOP	n/a	n/a	n/a	-999	7	[-999, -999, -999]	n/a	FR1	2	R1123C
821.049	1.085	412924	DISTRACT_END	n/a	n/a	n/a	-999	7	[0, 0, 0]	n/a	FR1	2	R1123C
822.134	0.46	413467	REC_START	n/a	n/a	n/a	-999	7	[0, 0, 0]	n/a	FR1	2	R1123C
822.594	1.092	413697	REC_WORD	1.092	n/a	BOOK	-999	7	[0, 0, 0]	n/a	FR1	2	R1123C
823.686	1.13	414243	REC_WORD	1.13	n/a	BANK	-999	7	[0, 0, 0]	n/a	FR1	2	R1123C
824.816	16.231	414808	REC_WORD	16.231	n/a	TEETH	-999	7	[0, 0, 0]	n/a	FR1	2	R1123C
841.047	11.097	422923	REC_WORD	11.097	n/a	STAR	-999	7	[0, 0, 0]	n/a	FR1	2	R1123C
852.144	1.828	428471	REC_END	n/a	n/a	n/a	-999	7	[0, 0, 0]	n/a	FR1	2	R1123C
853.972	0.001	429384	COUNTDOWN_START	n/a	n/a	n/a	-999	8	[0, 0, 0]	n/a	FR1	2	R1123C
853.973	10.427	429385	TRIAL	n/a	n/a	n/a	-999	8	[0, 0, 0]	n/a	FR1	2	R1123C
864.4	0.008	434598	COUNTDOWN_END	n/a	n/a	n/a	-999	8	[0, 0, 0]	n/a	FR1	2	R1123C
864.408	2.6	434602	ORIENT	n/a	n/a	n/a	-999	8	[0, 0, 0]	n/a	FR1	2	R1123C
867.008	2.617	435902	WORD	n/a	wordpools/wordpool_EN.txt	BRICK	1	8	[0, 0, 0]	n/a	FR1	2	R1123C
869.625	2.617	437210	WORD	n/a	wordpools/wordpool_EN.txt	ROOM	2	8	[0, 0, 0]	n/a	FR1	2	R1123C
872.242	2.5	438519	WORD	n/a	wordpools/wordpool_EN.txt	TIE	3	8	[0, 0, 0]	n/a	FR1	2	R1123C
874.742	2.601	439769	WORD	n/a	wordpools/wordpool_EN.txt	SLIME	4	8	[0, 0, 0]	n/a	FR1	2	R1123C
877.343	2.417	441069	WORD	n/a	wordpools/wordpool_EN.txt	DESK	5	8	[0, 0, 0]	n/a	FR1	2	R1123C
879.76	2.451	442277	WORD	n/a	wordpools/wordpool_EN.txt	CHALK	6	8	[0, 0, 0]	n/a	FR1	2	R1123C
882.211	2.433	443503	WORD	n/a	wordpools/wordpool_EN.txt	MAZE	7	8	[0, 0, 0]	n/a	FR1	2	R1123C
884.644	2.601	444719	WORD	n/a	wordpools/wordpool_EN.txt	SCHOOL	8	8	[0, 0, 0]	n/a	FR1	2	R1123C
887.245	2.416	446019	WORD	n/a	wordpools/wordpool_EN.txt	BAND	9	8	[0, 0, 0]	n/a	FR1	2	R1123C
889.661	2.535	447227	WORD	n/a	wordpools/wordpool_EN.txt	FLAG	10	8	[0, 0, 0]	n/a	FR1	2	R1123C
892.196	2.45	448495	WORD	n/a	wordpools/wordpool_EN.txt	FLOOR	11	8	[0, 0, 0]	n/a	FR1	2	R1123C
894.646	1.618	449720	WORD	n/a	wordpools/wordpool_EN.txt	GLOVE	12	8	[0, 0, 0]	n/a	FR1	2	R1123C
896.264	0.0	450529	DISTRACT_START	n/a	n/a	n/a	-999	8	[0, 0, 0]	n/a	FR1	2	R1123C
896.264	0.016	450529	START	n/a	n/a	n/a	-999	8	[-999, -999, -999]	n/a	FR1	2	R1123C
896.28	4.818	450537	PROB	4.818	n/a	n/a	-999	8	[5, 9, 9]	23	FR1	2	R1123C
901.098	2.434	452945	PROB	2.434	n/a	n/a	-999	8	[1, 8, 1]	10	FR1	2	R1123C
903.532	4.149	454162	PROB	4.149	n/a	n/a	-999	8	[1, 5, 9]	15	FR1	2	R1123C
907.681	4.135	456237	PROB	4.135	n/a	n/a	-999	8	[5, 7, 7]	19	FR1	2	R1123C
911.816	2.501	458304	PROB	2.501	n/a	n/a	-999	8	[1, 9, 2]	12	FR1	2	R1123C
914.317	3.327	459554	PROB	3.327	n/a	n/a	-999	8	[2, 5, 4]	11	FR1	2	R1123C
917.644	0.006	461218	STOP	n/a	n/a	n/a	-999	8	[-999, -999, -999]	n/a	FR1	2	R1123C
917.65	1.218	461221	DISTRACT_END	n/a	n/a	n/a	-999	8	[0, 0, 0]	n/a	FR1	2	R1123C
918.868	0.531	461830	REC_START	n/a	n/a	n/a	-999	8	[0, 0, 0]	n/a	FR1	2	R1123C
919.399	0.786	462095	REC_WORD	0.786	n/a	BOOK	-999	8	[0, 0, 0]	n/a	FR1	2	R1123C
920.185	1.357	462488	REC_WORD	1.357	n/a	SCHOOL	-999	8	[0, 0, 0]	n/a	FR1	2	R1123C
921.542	4.972	463166	REC_WORD	4.972	n/a	CABLE	-999	8	[0, 0, 0]	n/a	FR1	2	R1123C
926.514	1.156	465652	REC_WORD	1.156	n/a	FLAG	-999	8	[0, 0, 0]	n/a	FR1	2	R1123C
927.67	9.142	466230	REC_WORD	9.142	n/a	FLOOR	-999	8	[0, 0, 0]	n/a	FR1	2	R1123C
936.812	12.067	470801	REC_WORD	12.067	n/a	SCHOOL	-999	8	[0, 0, 0]	n/a	FR1	2	R1123C
948.879	1.661	476834	REC_END	n/a	n/a	n/a	-999	8	[0, 0, 0]	n/a	FR1	2	R1123C
950.54	0.001	477664	COUNTDOWN_START	n/a	n/a	n/a	-999	9	[0, 0, 0]	n/a	FR1	2	R1123C
950.541	10.427	477665	TRIAL	n/a	n/a	n/a	-999	9	[0, 0, 0]	n/a	FR1	2	R1123C
960.968	0.008	482878	COUNTDOWN_END	n/a	n/a	n/a	-999	9	[0, 0, 0]	n/a	FR1	2	R1123C
960.976	2.4	482882	ORIENT	n/a	n/a	n/a	-999	9	[0, 0, 0]	n/a	FR1	2	R1123C
963.376	2.433	484082	WORD	n/a	wordpools/wordpool_EN.txt	PEAR	1	9	[0, 0, 0]	n/a	FR1	2	R1123C
965.809	2.384	485298	WORD	n/a	wordpools/wordpool_EN.txt	POND	2	9	[0, 0, 0]	n/a	FR1	2	R1123C
968.193	2.6	486490	WORD	n/a	wordpools/wordpool_EN.txt	GLASS	3	9	[0, 0, 0]	n/a	FR1	2	R1123C
970.793	2.468	487790	WORD	n/a	wordpools/wordpool_EN.txt	SOAP	4	9	[0, 0, 0]	n/a	FR1	2	R1123C
973.261	2.618	489024	WORD	n/a	wordpools/wordpool_EN.txt	SPOON	5	9	[0, 0, 0]	n/a	FR1	2	R1123C
975.879	2.567	490333	WORD	n/a	wordpools/wordpool_EN.txt	SPONGE	6	9	[0, 0, 0]	n/a	FR1	2	R1123C
978.446	2.416	491616	WORD	n/a	wordpools/wordpool_EN.txt	GRAPE	7	9	[0, 0, 0]	n/a	FR1	2	R1123C
980.862	2.618	492824	WORD	n/a	wordpools/wordpool_EN.txt	SHRIMP	8	9	[0, 0, 0]	n/a	FR1	2	R1123C
983.48	2.45	494133	WORD	n/a	wordpools/wordpool_EN.txt	WORM	9	9	[0, 0, 0]	n/a	FR1	2	R1123C
985.93	2.468	495358	WORD	n/a	wordpools/wordpool_EN.txt	JAR	10	9	[0, 0, 0]	n/a	FR1	2	R1123C
988.398	2.617	496591	WORD	n/a	wordpools/wordpool_EN.txt	WORLD	11	9	[0, 0, 0]	n/a	FR1	2	R1123C
991.015	1.617	497900	WORD	n/a	wordpools/wordpool_EN.txt	PEACH	12	9	[0, 0, 0]	n/a	FR1	2	R1123C
992.632	0.001	498708	DISTRACT_START	n/a	n/a	n/a	-999	9	[0, 0, 0]	n/a	FR1	2	R1123C
992.633	0.014	498709	START	n/a	n/a	n/a	-999	9	[-999, -999, -999]	n/a	FR1	2	R1123C
992.647	5.118	498716	PROB	5.118	n/a	n/a	-999	9	[7, 8, 1]	16	FR1	2	R1123C
997.765	3.884	501275	PROB	3.884	n/a	n/a	-999	9	[5, 3, 1]	9	FR1	2	R1123C
1001.649	10.353	503216	PROB	10.353	n/a	n/a	-999	9	[1, 4, 8]	13	FR1	2	R1123C
1012.002	5.674	508392	PROB	5.674	n/a	n/a	-999	9	[3, 7, 9]	19	FR1	2	R1123C
1017.676	0.009	511229	STOP	n/a	n/a	n/a	-999	9	[-999, -999, -999]	n/a	FR1	2	R1123C
1017.685	1.086	511234	DISTRACT_END	n/a	n/a	n/a	-999	9	[0, 0, 0]	n/a	FR1	2	R1123C
1018.771	0.442	511777	REC_START	n/a	n/a	n/a	-999	9	[0, 0, 0]	n/a	FR1	2	R1123C
1019.213	1.054	511998	REC_WORD	1.054	n/a	SINK	-999	9	[0, 0, 0]	n/a	FR1	2	R1123C
1020.267	1.283	512525	REC_WORD	1.283	n/a	GLASS	-999	9	[0, 0, 0]	n/a	FR1	2	R1123C
1021.55	2.929	513166	REC_WORD	2.929	n/a	JAR	-999	9	[0, 0, 0]	n/a	FR1	2	R1123C
1024.479	13.567	514630	REC_WORD	13.567	n/a	WASH	-999	9	[0, 0, 0]	n/a	FR1	2	R1123C
1038.046	0.913	521413	REC_WORD_VV	0.913	n/a	<>	-999	9	[0, 0, 0]	n/a	FR1	2	R1123C
1038.959	9.823	521870	REC_WORD	9.823	n/a	SOAP	-999	9	[0, 0, 0]	n/a	FR1	2	R1123C
1048.782	1.627	526781	REC_END	n/a	n/a	n/a	-999	9	[0, 0, 0]	n/a	FR1	2	R1123C
1050.409	0.0	527594	TRIAL	n/a	n/a	n/a	-999	10	[0, 0, 0]	n/a	FR1	2	R1123C
1050.409	10.428	527594	COUNTDOWN_START	n/a	n/a	n/a	-999	10	[0, 0, 0]	n/a	FR1	2	R1123C
1060.837	0.006	532808	COUNTDOWN_END	n/a	n/a	n/a	-999	10	[0, 0, 0]	n/a	FR1	2	R1123C
1060.843	2.469	532811	ORIENT	n/a	n/a	n/a	-999	10	[0, 0, 0]	n/a	FR1	2	R1123C
1063.312	2.499	534045	WORD	n/a	wordpools/wordpool_EN.txt	STICK	1	10	[0, 0, 0]	n/a	FR1	2	R1123C
1065.811	2.501	535295	WORD	n/a	wordpools/wordpool_EN.txt	MUG	2	10	[0, 0, 0]	n/a	FR1	2	R1123C
1068.312	2.533	536545	WORD	n/a	wordpools/wordpool_EN.txt	FOOT	3	10	[0, 0, 0]	n/a	FR1	2	R1123C
1070.845	2.552	537811	WORD	n/a	wordpools/wordpool_EN.txt	CHEEK	4	10	[0, 0, 0]	n/a	FR1	2	R1123C
1073.397	2.399	539087	WORD	n/a	wordpools/wordpool_EN.txt	RUG	5	10	[0, 0, 0]	n/a	FR1	2	R1123C
1075.796	2.502	540287	WORD	n/a	wordpools/wordpool_EN.txt	DOOR	6	10	[0, 0, 0]	n/a	FR1	2	R1123C
1078.298	2.433	541537	WORD	n/a	wordpools/wordpool_EN.txt	THUMB	7	10	[0, 0, 0]	n/a	FR1	2	R1123C
1080.731	2.434	542754	WORD	n/a	wordpools/wordpool_EN.txt	EEL	8	10	[0, 0, 0]	n/a	FR1	2	R1123C
1083.165	2.516	543971	WORD	n/a	wordpools/wordpool_EN.txt	CHIN	9	10	[0, 0, 0]	n/a	FR1	2	R1123C
1085.681	2.485	545229	WORD	n/a	wordpools/wordpool_EN.txt	LIP	10	10	[0, 0, 0]	n/a	FR1	2	R1123C
1088.166	2.401	546471	WORD	n/a	wordpools/wordpool_EN.txt	SIGN	11	10	[0, 0, 0]	n/a	FR1	2	R1123C
1090.567	1.617	547671	WORD	n/a	wordpools/wordpool_EN.txt	BED	12	10	[0, 0, 0]	n/a	FR1	2	R1123C
1092.184	0.001	548480	DISTRACT_START	n/a	n/a	n/a	-999	10	[0, 0, 0]	n/a	FR1	2	R1123C
1092.185	0.015	548480	START	n/a	n/a	n/a	-999	10	[-999, -999, -999]	n/a	FR1	2	R1123C
1092.2	8.402	548488	PROB	8.402	n/a	n/a	-999	10	[3, 5, 6]	14	FR1	2	R1123C
1100.602	10.719	552688	PROB	10.719	n/a	n/a	-999	10	[8, 9, 7]	25	FR1	2	R1123C
1111.321	4.709	558047	PROB	4.709	n/a	n/a	-999	10	[6, 3, 8]	17	FR1	2	R1123C
1116.03	0.008	560402	STOP	n/a	n/a	n/a	-999	10	[-999, -999, -999]	n/a	FR1	2	R1123C
1116.038	1.101	560406	DISTRACT_END	n/a	n/a	n/a	-999	10	[0, 0, 0]	n/a	FR1	2	R1123C
1117.139	0.371	560956	REC_START	n/a	n/a	n/a	-999	10	[0, 0, 0]	n/a	FR1	2	R1123C
1117.51	1.186	561142	REC_WORD	1.186	n/a	FOOT	-999	10	[0, 0, 0]	n/a	FR1	2	R1123C
1118.696	14.677	561735	REC_WORD	14.677	n/a	CHIN	-999	10	[0, 0, 0]	n/a	FR1	2	R1123C
1133.373	13.776	569072	REC_WORD	13.776	n/a	FLOOR	-999	10	[0, 0, 0]	n/a	FR1	2	R1123C
1147.149	25.599	575960	REC_END	n/a	n/a	n/a	-999	10	[0, 0, 0]	n/a	FR1	2	R1123C
1172.748	0.0	588758	TRIAL	n/a	n/a	n/a	-999	11	[0, 0, 0]	n/a	FR1	2	R1123C
1172.748	10.428	588758	COUNTDOWN_START	n/a	n/a	n/a	-999	11	[0, 0, 0]	n/a	FR1	2	R1123C
1183.176	0.008	593972	COUNTDOWN_END	n/a	n/a	n/a	-999	11	[0, 0, 0]	n/a	FR1	2	R1123C
1183.184	2.466	593976	ORIENT	n/a	n/a	n/a	-999	11	[0, 0, 0]	n/a	FR1	2	R1123C
1185.65	2.485	595209	WORD	n/a	wordpools/wordpool_EN.txt	CALF	1	11	[0, 0, 0]	n/a	FR1	2	R1123C
1188.135	2.516	596451	WORD	n/a	wordpools/wordpool_EN.txt	DITCH	2	11	[0, 0, 0]	n/a	FR1	2	R1123C
1190.651	2.585	597709	WORD	n/a	wordpools/wordpool_EN.txt	BEACH	3	11	[0, 0, 0]	n/a	FR1	2	R1123C
1193.236	2.516	599001	WORD	n/a	wordpools/wordpool_EN.txt	OWL	4	11	[0, 0, 0]	n/a	FR1	2	R1123C
1195.752	2.535	600259	WORD	n/a	wordpools/wordpool_EN.txt	SEA	5	11	[0, 0, 0]	n/a	FR1	2	R1123C
1198.287	2.533	601527	WORD	n/a	wordpools/wordpool_EN.txt	SHELL	6	11	[0, 0, 0]	n/a	FR1	2	R1123C
1200.82	2.368	602793	WORD	n/a	wordpools/wordpool_EN.txt	PEA	7	11	[0, 0, 0]	n/a	FR1	2	R1123C
1203.188	2.616	603977	WORD	n/a	wordpools/wordpool_EN.txt	HORSE	8	11	[0, 0, 0]	n/a	FR1	2	R1123C
1205.804	2.485	605285	WORD	n/a	wordpools/wordpool_EN.txt	SOCK	9	11	[0, 0, 0]	n/a	FR1	2	R1123C
1208.289	2.533	606527	WORD	n/a	wordpools/wordpool_EN.txt	MULE	10	11	[0, 0, 0]	n/a	FR1	2	R1123C
1210.822	2.384	607794	WORD	n/a	wordpools/wordpool_EN.txt	SKUNK	11	11	[0, 0, 0]	n/a	FR1	2	R1123C
1213.206	1.616	608985	WORD	n/a	wordpools/wordpool_EN.txt	CLAY	12	11	[0, 0, 0]	n/a	FR1	2	R1123C
1214.822	0.001	609793	DISTRACT_START	n/a	n/a	n/a	-999	11	[0, 0, 0]	n/a	FR1	2	R1123C
1214.823	0.016	609794	START	n/a	n/a	n/a	-999	11	[-999, -999, -999]	n/a	FR1	2	R1123C
1214.839	4.235	609802	PROB	4.235	n/a	n/a	-999	11	[7, 9, 2]	18	FR1	2	R1123C
1219.074	7.218	611919	PROB	7.218	n/a	n/a	-999	11	[9, 6, 5]	20	FR1	2	R1123C
1226.292	3.35	615528	PROB	3.35	n/a	n/a	-999	11	[7, 1, 2]	10	FR1	2	R1123C
1229.642	5.827	617203	PROB	5.827	n/a	n/a	-999	11	[8, 2, 6]	16	FR1	2	R1123C
1235.469	0.008	620116	STOP	n/a	n/a	n/a	-999	11	[-999, -999, -999]	n/a	FR1	2	R1123C
1235.477	1.184	620120	DISTRACT_END	n/a	n/a	n/a	-999	11	[0, 0, 0]	n/a	FR1	2	R1123C
1236.661	0.348	620712	REC_START	n/a	n/a	n/a	-999	11	[0, 0, 0]	n/a	FR1	2	R1123C
1237.009	1.035	620886	REC_WORD	1.035	n/a	SKUNK	-999	11	[0, 0, 0]	n/a	FR1	2	R1123C
1238.044	12.11	621403	REC_WORD	12.11	n/a	FROG	-999	11	[0, 0, 0]	n/a	FR1	2	R1123C
1250.154	6.316	627458	REC_WORD	6.316	n/a	SEA	-999	11	[0, 0, 0]	n/a	FR1	2	R1123C
1256.47	6.483	630616	REC_WORD	6.483	n/a	FISH	-999	11	[0, 0, 0]	n/a	FR1	2	R1123C
1262.953	3.718	633857	REC_WORD	3.718	n/a	STAR	-999	11	[0, 0, 0]	n/a	FR1	2	R1123C
1266.671	1.796	635716	REC_END	n/a	n/a	n/a	-999	11	[0, 0, 0]	n/a	FR1	2	R1123C
1268.467	0.0	636613	TRIAL	n/a	n/a	n/a	-999	12	[0, 0, 0]	n/a	FR1	2	R1123C
1268.467	10.428	636613	COUNTDOWN_START	n/a	n/a	n/a	-999	12	[0, 0, 0]	n/a	FR1	2	R1123C
1278.895	0.007	641827	COUNTDOWN_END	n/a	n/a	n/a	-999	12	[0, 0, 0]	n/a	FR1	2	R1123C
1278.902	2.517	641831	ORIENT	n/a	n/a	n/a	-999	12	[0, 0, 0]	n/a	FR1	2	R1123C
1281.419	2.551	643089	WORD	n/a	wordpools/wordpool_EN.txt	ROPE	1	12	[0, 0, 0]	n/a	FR1	2	R1123C
1283.97	2.567	644364	WORD	n/a	wordpools/wordpool_EN.txt	NET	2	12	[0, 0, 0]	n/a	FR1	2	R1123C
1286.537	2.584	645648	WORD	n/a	wordpools/wordpool_EN.txt	FUDGE	3	12	[0, 0, 0]	n/a	FR1	2	R1123C
1289.121	2.383	646940	WORD	n/a	wordpools/wordpool_EN.txt	FOX	4	12	[0, 0, 0]	n/a	FR1	2	R1123C
1291.504	2.484	648131	WORD	n/a	wordpools/wordpool_EN.txt	SUN	5	12	[0, 0, 0]	n/a	FR1	2	R1123C
1293.988	2.534	649373	WORD	n/a	wordpools/wordpool_EN.txt	SOUP	6	12	[0, 0, 0]	n/a	FR1	2	R1123C
1296.522	2.567	650640	WORD	n/a	wordpools/wordpool_EN.txt	VINE	7	12	[0, 0, 0]	n/a	FR1	2	R1123C
1299.089	2.401	651923	WORD	n/a	wordpools/wordpool_EN.txt	SKY	8	12	[0, 0, 0]	n/a	FR1	2	R1123C
1301.49	2.417	653124	WORD	n/a	wordpools/wordpool_EN.txt	FRUIT	9	12	[0, 0, 0]	n/a	FR1	2	R1123C
1303.907	2.383	654332	WORD	n/a	wordpools/wordpool_EN.txt	BRANCH	10	12	[0, 0, 0]	n/a	FR1	2	R1123C
1306.29	2.567	655523	WORD	n/a	wordpools/wordpool_EN.txt	STORM	11	12	[0, 0, 0]	n/a	FR1	2	R1123C
1308.857	1.618	656807	WORD	n/a	wordpools/wordpool_EN.txt	BOAT	12	12	[0, 0, 0]	n/a	FR1	2	R1123C
1310.475	0.001	657616	DISTRACT_START	n/a	n/a	n/a	-999	12	[0, 0, 0]	n/a	FR1	2	R1123C
1310.476	0.015	657616	START	n/a	n/a	n/a	-999	12	[-999, -999, -999]	n/a	FR1	2	R1123C
1310.491	3.601	657624	PROB	3.601	n/a	n/a	-999	12	[8, 2, 1]	11	FR1	2	R1123C
1314.092	2.616	659424	PROB	2.616	n/a	n/a	-999	12	[6, 5, 5]	16	FR1	2	R1123C
1316.708	3.185	660732	PROB	3.185	n/a	n/a	-999	12	[1, 8, 5]	14	FR1	2	R1123C
1319.893	4.018	662324	PROB	4.018	n/a	n/a	-999	12	[5, 3, 8]	16	FR1	2	R1123C
1323.911	3.35	664333	PROB	3.35	n/a	n/a	-999	12	[4, 1, 2]	7	FR1	2	R1123C
1327.261	4.888	666008	PROB	4.888	n/a	n/a	-999	12	[9, 9, 4]	22	FR1	2	R1123C
1332.149	0.013	668452	STOP	n/a	n/a	n/a	-999	12	[-999, -999, -999]	n/a	FR1	2	R1123C
1332.162	1.101	668458	DISTRACT_END	n/a	n/a	n/a	-999	12	[0, 0, 0]	n/a	FR1	2	R1123C
1333.263	0.283	669009	REC_START	n/a	n/a	n/a	-999	12	[0, 0, 0]	n/a	FR1	2	R1123C
1333.546	1.078	669150	REC_WORD	1.078	n/a	SKY	-999	12	[0, 0, 0]	n/a	FR1	2	R1123C
1334.624	2.177	669689	REC_WORD	2.177	n/a	SEA	-999	12	[0, 0, 0]	n/a	FR1	2	R1123C
1336.801	2.599	670777	REC_WORD	2.599	n/a	STAR	-999	12	[0, 0, 0]	n/a	FR1	2	R1123C
1339.4	6.744	672077	REC_WORD	6.744	n/a	SWORD	-999	12	[0, 0, 0]	n/a	FR1	2	R1123C
1346.144	17.129	675449	REC_WORD	17.129	n/a	SHARK	-999	12	[0, 0, 0]	n/a	FR1	2	R1123C
1363.273	1.862	684012	REC_END	n/a	n/a	n/a	-999	12	[0, 0, 0]	n/a	FR1	2	R1123C
1365.135	0.0	684943	TRIAL	n/a	n/a	n/a	-999	13	[0, 0, 0]	n/a	FR1	2	R1123C
1365.135	10.428	684943	COUNTDOWN_START	n/a	n/a	n/a	-999	13	[0, 0, 0]	n/a	FR1	2	R1123C
1375.563	0.007	690157	COUNTDOWN_END	n/a	n/a	n/a	-999	13	[0, 0, 0]	n/a	FR1	2	R1123C
1375.57	2.467	690160	ORIENT	n/a	n/a	n/a	-999	13	[0, 0, 0]	n/a	FR1	2	R1123C
1378.037	2.434	691394	WORD	n/a	wordpools/wordpool_EN.txt	SALT	1	13	[0, 0, 0]	n/a	FR1	2	R1123C
1380.471	2.584	692610	WORD	n/a	wordpools/wordpool_EN.txt	TRASH	2	13	[0, 0, 0]	n/a	FR1	2	R1123C
1383.055	2.583	693902	WORD	n/a	wordpools/wordpool_EN.txt	MAP	3	13	[0, 0, 0]	n/a	FR1	2	R1123C
1385.638	2.485	695194	WORD	n/a	wordpools/wordpool_EN.txt	ICE	4	13	[0, 0, 0]	n/a	FR1	2	R1123C
1388.123	2.433	696436	WORD	n/a	wordpools/wordpool_EN.txt	SNOW	5	13	[0, 0, 0]	n/a	FR1	2	R1123C
1390.556	2.584	697653	WORD	n/a	wordpools/wordpool_EN.txt	STEAM	6	13	[0, 0, 0]	n/a	FR1	2	R1123C
1393.14	2.467	698944	WORD	n/a	wordpools/wordpool_EN.txt	BOMB	7	13	[0, 0, 0]	n/a	FR1	2	R1123C
1395.607	2.551	700178	WORD	n/a	wordpools/wordpool_EN.txt	ROCK	8	13	[0, 0, 0]	n/a	FR1	2	R1123C
1398.158	2.45	701453	WORD	n/a	wordpools/wordpool_EN.txt	TANK	9	13	[0, 0, 0]	n/a	FR1	2	R1123C
1400.608	2.417	702678	WORD	n/a	wordpools/wordpool_EN.txt	LAKE	10	13	[0, 0, 0]	n/a	FR1	2	R1123C
1403.025	2.551	703886	WORD	n/a	wordpools/wordpool_EN.txt	MOOSE	11	13	[0, 0, 0]	n/a	FR1	2	R1123C
1405.576	1.617	705162	WORD	n/a	wordpools/wordpool_EN.txt	STONE	12	13	[0, 0, 0]	n/a	FR1	2	R1123C
1407.193	0.001	705970	DISTRACT_START	n/a	n/a	n/a	-999	13	[0, 0, 0]	n/a	FR1	2	R1123C
1407.194	0.016	705971	START	n/a	n/a	n/a	-999	13	[-999, -999, -999]	n/a	FR1	2	R1123C
1407.21	5.901	705979	PROB	5.901	n/a	n/a	-999	13	[3, 7, 6]	16	FR1	2	R1123C
1413.111	4.984	708929	PROB	4.984	n/a	n/a	-999	13	[5, 5, 8]	18	FR1	2	R1123C
1418.095	3.733	711421	PROB	3.733	n/a	n/a	-999	13	[2, 9, 4]	15	FR1	2	R1123C
1421.828	4.769	713287	PROB	4.769	n/a	n/a	-999	13	[3, 5, 3]	11	FR1	2	R1123C
1426.597	10.288	715671	PROB	10.288	n/a	n/a	-999	13	[1, 6, 8]	15	FR1	2	R1123C
1436.885	0.013	720815	STOP	n/a	n/a	n/a	-999	13	[-999, -999, -999]	n/a	FR1	2	R1123C
1436.898	1.134	720821	DISTRACT_END	n/a	n/a	n/a	-999	13	[0, 0, 0]	n/a	FR1	2	R1123C
1438.032	1.058	721388	REC_START	n/a	n/a	n/a	-999	13	[0, 0, 0]	n/a	FR1	2	R1123C
1439.09	1.035	721917	REC_WORD	1.035	n/a	SOAK	-999	13	[0, 0, 0]	n/a	FR1	2	R1123C
1440.125	7.676	722435	REC_WORD	7.676	n/a	STAR	-999	13	[0, 0, 0]	n/a	FR1	2	R1123C
1447.801	7.682	726272	REC_WORD	7.682	n/a	SOAP	-999	13	[0, 0, 0]	n/a	FR1	2	R1123C
1455.483	12.563	730113	REC_WORD	12.563	n/a	HORSE	-999	13	[0, 0, 0]	n/a	FR1	2	R1123C
1468.046	2.225	736394	REC_END	n/a	n/a	n/a	-999	13	[0, 0, 0]	n/a	FR1	2	R1123C
1470.271	0.001	737506	COUNTDOWN_START	n/a	n/a	n/a	-999	14	[0, 0, 0]	n/a	FR1	2	R1123C
1470.272	10.427	737507	TRIAL	n/a	n/a	n/a	-999	14	[0, 0, 0]	n/a	FR1	2	R1123C
1480.699	0.007	742720	COUNTDOWN_END	n/a	n/a	n/a	-999	14	[0, 0, 0]	n/a	FR1	2	R1123C
1480.706	2.534	742724	ORIENT	n/a	n/a	n/a	-999	14	[0, 0, 0]	n/a	FR1	2	R1123C
1483.24	2.4	743990	WORD	n/a	wordpools/wordpool_EN.txt	BAT	1	14	[0, 0, 0]	n/a	FR1	2	R1123C
1485.64	2.418	745190	WORD	n/a	wordpools/wordpool_EN.txt	MOTH	2	14	[0, 0, 0]	n/a	FR1	2	R1123C
1488.058	2.467	746399	WORD	n/a	wordpools/wordpool_EN.txt	STEM	3	14	[0, 0, 0]	n/a	FR1	2	R1123C
1490.525	2.434	747633	WORD	n/a	wordpools/wordpool_EN.txt	STORE	4	14	[0, 0, 0]	n/a	FR1	2	R1123C
1492.959	2.45	748849	WORD	n/a	wordpools/wordpool_EN.txt	CAPE	5	14	[0, 0, 0]	n/a	FR1	2	R1123C
1495.409	2.45	750074	WORD	n/a	wordpools/wordpool_EN.txt	FOG	6	14	[0, 0, 0]	n/a	FR1	2	R1123C
1497.859	2.635	751299	WORD	n/a	wordpools/wordpool_EN.txt	PLANT	7	14	[0, 0, 0]	n/a	FR1	2	R1123C
1500.494	2.517	752617	WORD	n/a	wordpools/wordpool_EN.txt	HOOF	8	14	[0, 0, 0]	n/a	FR1	2	R1123C
1503.011	2.584	753875	WORD	n/a	wordpools/wordpool_EN.txt	MOON	9	14	[0, 0, 0]	n/a	FR1	2	R1123C
1505.595	2.4	755167	WORD	n/a	wordpools/wordpool_EN.txt	BIRD	10	14	[0, 0, 0]	n/a	FR1	2	R1123C
1507.995	2.601	756367	WORD	n/a	wordpools/wordpool_EN.txt	WING	11	14	[0, 0, 0]	n/a	FR1	2	R1123C
1510.596	1.617	757667	WORD	n/a	wordpools/wordpool_EN.txt	ANT	12	14	[0, 0, 0]	n/a	FR1	2	R1123C
1512.213	0.0	758476	DISTRACT_START	n/a	n/a	n/a	-999	14	[0, 0, 0]	n/a	FR1	2	R1123C
1512.213	0.016	758476	START	n/a	n/a	n/a	-999	14	[-999, -999, -999]	n/a	FR1	2	R1123C
1512.229	5.084	758484	PROB	5.084	n/a	n/a	-999	14	[9, 5, 3]	17	FR1	2	R1123C
1517.313	6.417	761025	PROB	6.417	n/a	n/a	-999	14	[8, 5, 6]	20	FR1	2	R1123C
1523.73	5.819	764234	PROB	5.819	n/a	n/a	-999	14	[4, 9, 5]	18	FR1	2	R1123C
1529.549	4.032	767143	PROB	4.032	n/a	n/a	-999	14	[9, 1, 9]	19	FR1	2	R1123C
1533.581	0.019	769159	STOP	n/a	n/a	n/a	-999	14	[-999, -999, -999]	n/a	FR1	2	R1123C
1533.6	1.033	769168	DISTRACT_END	n/a	n/a	n/a	-999	14	[0, 0, 0]	n/a	FR1	2	R1123C
1534.633	0.477	769685	REC_START	n/a	n/a	n/a	-999	14	[0, 0, 0]	n/a	FR1	2	R1123C
1535.11	0.977	769923	REC_WORD	0.977	n/a	BIRD	-999	14	[0, 0, 0]	n/a	FR1	2	R1123C
1536.087	28.559	770412	REC_WORD	28.559	n/a	WING	-999	14	[0, 0, 0]	n/a	FR1	2	R1123C
1564.646	17.646	784690	REC_END	n/a	n/a	n/a	-999	14	[0, 0, 0]	n/a	FR1	2	R1123C
1582.292	0.001	793512	COUNTDOWN_START	n/a	n/a	n/a	-999	15	[0, 0, 0]	n/a	FR1	2	R1123C
1582.293	10.427	793512	TRIAL	n/a	n/a	n/a	-999	15	[0, 0, 0]	n/a	FR1	2	R1123C
1592.72	0.007	798726	COUNTDOWN_END	n/a	n/a	n/a	-999	15	[0, 0, 0]	n/a	FR1	2	R1123C
1592.727	2.534	798729	ORIENT	n/a	n/a	n/a	-999	15	[0, 0, 0]	n/a	FR1	2	R1123C
1595.261	2.417	799996	WORD	n/a	wordpools/wordpool_EN.txt	CONE	1	15	[0, 0, 0]	n/a	FR1	2	R1123C
1597.678	2.484	801204	WORD	n/a	wordpools/wordpool_EN.txt	TRAY	2	15	[0, 0, 0]	n/a	FR1	2	R1123C
1600.162	2.384	802446	WORD	n/a	wordpools/wordpool_EN.txt	SWAMP	3	15	[0, 0, 0]	n/a	FR1	2	R1123C
1602.546	2.634	803638	WORD	n/a	wordpools/wordpool_EN.txt	LAND	4	15	[0, 0, 0]	n/a	FR1	2	R1123C
1605.18	2.549	804955	WORD	n/a	wordpools/wordpool_EN.txt	LEAF	5	15	[0, 0, 0]	n/a	FR1	2	R1123C
1607.729	2.435	806229	WORD	n/a	wordpools/wordpool_EN.txt	FORK	6	15	[0, 0, 0]	n/a	FR1	2	R1123C
1610.164	2.566	807447	WORD	n/a	wordpools/wordpool_EN.txt	DRESS	7	15	[0, 0, 0]	n/a	FR1	2	R1123C
1612.73	2.568	808730	WORD	n/a	wordpools/wordpool_EN.txt	ARK	8	15	[0, 0, 0]	n/a	FR1	2	R1123C
1615.298	2.4	810014	WORD	n/a	wordpools/wordpool_EN.txt	ROOT	9	15	[0, 0, 0]	n/a	FR1	2	R1123C
1617.698	2.535	811213	WORD	n/a	wordpools/wordpool_EN.txt	SEED	10	15	[0, 0, 0]	n/a	FR1	2	R1123C
1620.233	2.566	812481	WORD	n/a	wordpools/wordpool_EN.txt	LAWN	11	15	[0, 0, 0]	n/a	FR1	2	R1123C
1622.799	1.601	813764	WORD	n/a	wordpools/wordpool_EN.txt	TOAST	12	15	[0, 0, 0]	n/a	FR1	2	R1123C
1624.4	0.001	814564	DISTRACT_START	n/a	n/a	n/a	-999	15	[0, 0, 0]	n/a	FR1	2	R1123C
1624.401	0.016	814565	START	n/a	n/a	n/a	-999	15	[-999, -999, -999]	n/a	FR1	2	R1123C
1624.417	4.651	814573	PROB	4.651	n/a	n/a	-999	15	[5, 6, 1]	12	FR1	2	R1123C
1629.068	6.868	816898	PROB	6.868	n/a	n/a	-999	15	[6, 6, 9]	21	FR1	2	R1123C
1635.936	2.167	820332	PROB	2.167	n/a	n/a	-999	15	[4, 1, 1]	6	FR1	2	R1123C
1638.103	2.616	821415	PROB	2.616	n/a	n/a	-999	15	[1, 3, 2]	6	FR1	2	R1123C
1640.719	5.334	822723	PROB	5.334	n/a	n/a	-999	15	[9, 2, 5]	16	FR1	2	R1123C
1646.053	0.018	825390	STOP	n/a	n/a	n/a	-999	15	[-999, -999, -999]	n/a	FR1	2	R1123C
1646.071	1.168	825399	DISTRACT_END	n/a	n/a	n/a	-999	15	[0, 0, 0]	n/a	FR1	2	R1123C
1647.239	30.0	825983	REC_START	n/a	n/a	n/a	-999	15	[0, 0, 0]	n/a	FR1	2	R1123C
1677.239	0.009	840981	REC_WORD_VV	0.009	n/a	<>	-999	15	[0, 0, 0]	n/a	FR1	2	R1123C
1677.248	1.796	840986	REC_END	n/a	n/a	n/a	-999	15	[0, 0, 0]	n/a	FR1	2	R1123C
1679.044	0.0	841884	TRIAL	n/a	n/a	n/a	-999	16	[0, 0, 0]	n/a	FR1	2	R1123C
1679.044	10.428	841884	COUNTDOWN_START	n/a	n/a	n/a	-999	16	[0, 0, 0]	n/a	FR1	2	R1123C
1689.472	0.007	847097	COUNTDOWN_END	n/a	n/a	n/a	-999	16	[0, 0, 0]	n/a	FR1	2	R1123C
1689.479	2.6	847101	ORIENT	n/a	n/a	n/a	-999	16	[0, 0, 0]	n/a	FR1	2	R1123C
1692.079	2.584	848401	WORD	n/a	wordpools/wordpool_EN.txt	HOUSE	1	16	[0, 0, 0]	n/a	FR1	2	R1123C
1694.663	2.534	849692	WORD	n/a	wordpools/wordpool_EN.txt	HAWK	2	16	[0, 0, 0]	n/a	FR1	2	R1123C
1697.197	2.583	850959	WORD	n/a	wordpools/wordpool_EN.txt	WAND	3	16	[0, 0, 0]	n/a	FR1	2	R1123C
1699.78	2.401	852251	WORD	n/a	wordpools/wordpool_EN.txt	GEESE	4	16	[0, 0, 0]	n/a	FR1	2	R1123C
1702.181	2.434	853451	WORD	n/a	wordpools/wordpool_EN.txt	STAR	5	16	[0, 0, 0]	n/a	FR1	2	R1123C
1704.615	2.567	854668	WORD	n/a	wordpools/wordpool_EN.txt	CLOUD	6	16	[0, 0, 0]	n/a	FR1	2	R1123C
1707.182	2.418	855951	WORD	n/a	wordpools/wordpool_EN.txt	PEARL	7	16	[0, 0, 0]	n/a	FR1	2	R1123C
1709.6	2.4	857160	WORD	n/a	wordpools/wordpool_EN.txt	SWORD	8	16	[0, 0, 0]	n/a	FR1	2	R1123C
1712.0	2.534	858360	WORD	n/a	wordpools/wordpool_EN.txt	STAIR	9	16	[0, 0, 0]	n/a	FR1	2	R1123C
1714.534	2.484	859627	WORD	n/a	wordpools/wordpool_EN.txt	GOLD	10	16	[0, 0, 0]	n/a	FR1	2	R1123C
1717.018	2.483	860869	WORD	n/a	wordpools/wordpool_EN.txt	ROAD	11	16	[0, 0, 0]	n/a	FR1	2	R1123C
1719.501	1.617	862110	WORD	n/a	wordpools/wordpool_EN.txt	BRIDGE	12	16	[0, 0, 0]	n/a	FR1	2	R1123C
1721.118	0.001	862919	DISTRACT_START	n/a	n/a	n/a	-999	16	[0, 0, 0]	n/a	FR1	2	R1123C
1721.119	0.016	862919	START	n/a	n/a	n/a	-999	16	[-999, -999, -999]	n/a	FR1	2	R1123C
1721.135	3.717	862927	PROB	3.717	n/a	n/a	-999	16	[7, 6, 1]	14	FR1	2	R1123C
1724.852	7.285	864786	PROB	7.285	n/a	n/a	-999	16	[8, 2, 8]	18	FR1	2	R1123C
1732.137	5.7	868428	PROB	5.7	n/a	n/a	-999	16	[3, 8, 5]	16	FR1	2	R1123C
1737.837	3.807	871278	PROB	3.807	n/a	n/a	-999	16	[7, 7, 5]	19	FR1	2	R1123C
1741.644	0.011	873181	STOP	n/a	n/a	n/a	-999	16	[-999, -999, -999]	n/a	FR1	2	R1123C
1741.655	1.1	873186	DISTRACT_END	n/a	n/a	n/a	-999	16	[0, 0, 0]	n/a	FR1	2	R1123C
1742.755	0.427	873736	REC_START	n/a	n/a	n/a	-999	16	[0, 0, 0]	n/a	FR1	2	R1123C
1743.182	1.156	873950	REC_WORD	1.156	n/a	HOUSE	-999	16	[0, 0, 0]	n/a	FR1	2	R1123C
1744.338	0.962	874528	REC_WORD	0.962	n/a	ROAD	-999	16	[0, 0, 0]	n/a	FR1	2	R1123C
1745.3	27.469	875009	REC_WORD	27.469	n/a	STAR	-999	16	[0, 0, 0]	n/a	FR1	2	R1123C
1772.769	6.477	888742	REC_END	n/a	n/a	n/a	-999	16	[0, 0, 0]	n/a	FR1	2	R1123C
1779.246	0.0	891980	TRIAL	n/a	n/a	n/a	-999	17	[0, 0, 0]	n/a	FR1	2	R1123C
1779.246	10.428	891980	COUNTDOWN_START	n/a	n/a	n/a	-999	17	[0, 0, 0]	n/a	FR1	2	R1123C
1789.674	0.006	897194	COUNTDOWN_END	n/a	n/a	n/a	-999	17	[0, 0, 0]	n/a	FR1	2	R1123C
1789.68	2.552	897197	ORIENT	n/a	n/a	n/a	-999	17	[0, 0, 0]	n/a	FR1	2	R1123C
1792.232	2.466	898473	WORD	n/a	wordpools/wordpool_EN.txt	WEB	1	17	[0, 0, 0]	n/a	FR1	2	R1123C
1794.698	2.435	899706	WORD	n/a	wordpools/wordpool_EN.txt	SHOE	2	17	[0, 0, 0]	n/a	FR1	2	R1123C
1797.133	2.532	900923	WORD	n/a	wordpools/wordpool_EN.txt	WHALE	3	17	[0, 0, 0]	n/a	FR1	2	R1123C
1799.665	2.535	902189	WORD	n/a	wordpools/wordpool_EN.txt	TENT	4	17	[0, 0, 0]	n/a	FR1	2	R1123C
1802.2	2.417	903456	WORD	n/a	wordpools/wordpool_EN.txt	FUR	5	17	[0, 0, 0]	n/a	FR1	2	R1123C
1804.617	2.451	904665	WORD	n/a	wordpools/wordpool_EN.txt	STOOL	6	17	[0, 0, 0]	n/a	FR1	2	R1123C
1807.068	2.534	905890	WORD	n/a	wordpools/wordpool_EN.txt	PANTS	7	17	[0, 0, 0]	n/a	FR1	2	R1123C
1809.602	2.417	907157	WORD	n/a	wordpools/wordpool_EN.txt	TOE	8	17	[0, 0, 0]	n/a	FR1	2	R1123C
1812.019	2.467	908365	WORD	n/a	wordpools/wordpool_EN.txt	GOAT	9	17	[0, 0, 0]	n/a	FR1	2	R1123C
1814.486	2.467	909599	WORD	n/a	wordpools/wordpool_EN.txt	ROOF	10	17	[0, 0, 0]	n/a	FR1	2	R1123C
1816.953	2.517	910832	WORD	n/a	wordpools/wordpool_EN.txt	FAN	11	17	[0, 0, 0]	n/a	FR1	2	R1123C
1819.47	1.617	912090	WORD	n/a	wordpools/wordpool_EN.txt	FACE	12	17	[0, 0, 0]	n/a	FR1	2	R1123C
1821.087	0.001	912899	DISTRACT_START	n/a	n/a	n/a	-999	17	[0, 0, 0]	n/a	FR1	2	R1123C
1821.088	0.016	912899	START	n/a	n/a	n/a	-999	17	[-999, -999, -999]	n/a	FR1	2	R1123C
1821.104	4.733	912907	PROB	4.733	n/a	n/a	-999	17	[4, 5, 1]	10	FR1	2	R1123C
1825.837	8.153	915274	PROB	8.153	n/a	n/a	-999	17	[5, 8, 7]	20	FR1	2	R1123C
1833.99	4.084	919350	PROB	4.084	n/a	n/a	-999	17	[9, 5, 9]	24	FR1	2	R1123C
1838.074	5.091	921392	PROB	5.091	n/a	n/a	-999	17	[6, 4, 2]	12	FR1	2	R1123C
1843.165	0.01	923937	STOP	n/a	n/a	n/a	-999	17	[-999, -999, -999]	n/a	FR1	2	R1123C
1843.175	1.05	923942	DISTRACT_END	n/a	n/a	n/a	-999	17	[0, 0, 0]	n/a	FR1	2	R1123C
1844.225	1.129	924467	REC_START	n/a	n/a	n/a	-999	17	[0, 0, 0]	n/a	FR1	2	R1123C
1845.354	1.205	925031	REC_WORD	1.205	n/a	GOAT	-999	17	[0, 0, 0]	n/a	FR1	2	R1123C
1846.559	1.599	925634	REC_WORD	1.599	n/a	STAR	-999	17	[0, 0, 0]	n/a	FR1	2	R1123C
1848.158	3.687	926433	REC_WORD	3.687	n/a	SHOE	-999	17	[0, 0, 0]	n/a	FR1	2	R1123C
1851.845	22.394	928276	REC_WORD	22.394	n/a	CHIN	-999	17	[0, 0, 0]	n/a	FR1	2	R1123C
1874.239	1.892	939472	REC_END	n/a	n/a	n/a	-999	17	[0, 0, 0]	n/a	FR1	2	R1123C
1876.131	0.0	940418	TRIAL	n/a	n/a	n/a	-999	18	[0, 0, 0]	n/a	FR1	2	R1123C
1876.131	10.428	940418	COUNTDOWN_START	n/a	n/a	n/a	-999	18	[0, 0, 0]	n/a	FR1	2	R1123C
1886.559	0.007	945632	COUNTDOWN_END	n/a	n/a	n/a	-999	18	[0, 0, 0]	n/a	FR1	2	R1123C
1886.566	2.401	945635	ORIENT	n/a	n/a	n/a	-999	18	[0, 0, 0]	n/a	FR1	2	R1123C
1888.967	2.417	946836	WORD	n/a	wordpools/wordpool_EN.txt	CHIEF	1	18	[0, 0, 0]	n/a	FR1	2	R1123C
1891.384	2.483	948044	WORD	n/a	wordpools/wordpool_EN.txt	BENCH	2	18	[0, 0, 0]	n/a	FR1	2	R1123C
1893.867	2.601	949286	WORD	n/a	wordpools/wordpool_EN.txt	PALM	3	18	[0, 0, 0]	n/a	FR1	2	R1123C
1896.468	2.417	950586	WORD	n/a	wordpools/wordpool_EN.txt	SHIELD	4	18	[0, 0, 0]	n/a	FR1	2	R1123C
1898.885	2.517	951794	WORD	n/a	wordpools/wordpool_EN.txt	CAKE	5	18	[0, 0, 0]	n/a	FR1	2	R1123C
1901.402	2.383	953053	WORD	n/a	wordpools/wordpool_EN.txt	COIN	6	18	[0, 0, 0]	n/a	FR1	2	R1123C
1903.785	2.551	954244	WORD	n/a	wordpools/wordpool_EN.txt	ROSE	7	18	[0, 0, 0]	n/a	FR1	2	R1123C
1906.336	2.551	955520	WORD	n/a	wordpools/wordpool_EN.txt	RICE	8	18	[0, 0, 0]	n/a	FR1	2	R1123C
1908.887	2.55	956795	WORD	n/a	wordpools/wordpool_EN.txt	CHAIR	9	18	[0, 0, 0]	n/a	FR1	2	R1123C
1911.437	2.601	958070	WORD	n/a	wordpools/wordpool_EN.txt	CUP	10	18	[0, 0, 0]	n/a	FR1	2	R1123C
1914.038	2.534	959370	WORD	n/a	wordpools/wordpool_EN.txt	DRUM	11	18	[0, 0, 0]	n/a	FR1	2	R1123C
1916.572	1.617	960637	WORD	n/a	wordpools/wordpool_EN.txt	FROG	12	18	[0, 0, 0]	n/a	FR1	2	R1123C
1918.189	0.001	961446	DISTRACT_START	n/a	n/a	n/a	-999	18	[0, 0, 0]	n/a	FR1	2	R1123C
1918.19	0.015	961446	START	n/a	n/a	n/a	-999	18	[-999, -999, -999]	n/a	FR1	2	R1123C
1918.205	7.318	961454	PROB	7.318	n/a	n/a	-999	18	[4, 6, 5]	15	FR1	2	R1123C
1925.523	5.968	965112	PROB	5.968	n/a	n/a	-999	18	[2, 7, 8]	19	FR1	2	R1123C
1931.491	6.15	968096	PROB	6.15	n/a	n/a	-999	18	[5, 9, 4]	18	FR1	2	R1123C
1937.641	3.628	971171	PROB	3.628	n/a	n/a	-999	18	[1, 6, 5]	12	FR1	2	R1123C
1941.269	0.007	972984	STOP	n/a	n/a	n/a	-999	18	[-999, -999, -999]	n/a	FR1	2	R1123C
1941.276	1.218	972988	DISTRACT_END	n/a	n/a	n/a	-999	18	[0, 0, 0]	n/a	FR1	2	R1123C
1942.494	29.994	973597	REC_START	n/a	n/a	n/a	-999	18	[0, 0, 0]	n/a	FR1	2	R1123C
1972.488	0.016	988593	REC_WORD_VV	0.016	n/a	<>	-999	18	[0, 0, 0]	n/a	FR1	2	R1123C
1972.504	1.845	988601	REC_END	n/a	n/a	n/a	-999	18	[0, 0, 0]	n/a	FR1	2	R1123C
1974.349	0.001	989523	COUNTDOWN_START	n/a	n/a	n/a	-999	19	[0, 0, 0]	n/a	FR1	2	R1123C
1974.35	10.427	989524	TRIAL	n/a	n/a	n/a	-999	19	[0, 0, 0]	n/a	FR1	2	R1123C
1984.777	0.007	994737	COUNTDOWN_END	n/a	n/a	n/a	-999	19	[0, 0, 0]	n/a	FR1	2	R1123C
1984.784	2.534	994740	ORIENT	n/a	n/a	n/a	-999	19	[0, 0, 0]	n/a	FR1	2	R1123C
1987.318	2.4	996007	WORD	n/a	wordpools/wordpool_EN.txt	STRING	1	19	[0, 0, 0]	n/a	FR1	2	R1123C
1989.718	2.451	997207	WORD	n/a	wordpools/wordpool_EN.txt	VAN	2	19	[0, 0, 0]	n/a	FR1	2	R1123C
1992.169	2.566	998432	WORD	n/a	wordpools/wordpool_EN.txt	CART	3	19	[0, 0, 0]	n/a	FR1	2	R1123C
1994.735	2.369	999715	WORD	n/a	wordpools/wordpool_EN.txt	CLIFF	4	19	[0, 0, 0]	n/a	FR1	2	R1123C
1997.104	2.582	1000900	WORD	n/a	wordpools/wordpool_EN.txt	LEG	5	19	[0, 0, 0]	n/a	FR1	2	R1123C
1999.686	2.368	1002190	WORD	n/a	wordpools/wordpool_EN.txt	TOOL	6	19	[0, 0, 0]	n/a	FR1	2	R1123C
2002.054	2.451	1003374	WORD	n/a	wordpools/wordpool_EN.txt	SKI	7	19	[0, 0, 0]	n/a	FR1	2	R1123C
2004.505	2.6	1004600	WORD	n/a	wordpools/wordpool_EN.txt	SPEAR	8	19	[0, 0, 0]	n/a	FR1	2	R1123C
2007.105	2.468	1005900	WORD	n/a	wordpools/wordpool_EN.txt	CRANE	9	19	[0, 0, 0]	n/a	FR1	2	R1123C
2009.573	2.617	1007133	WORD	n/a	wordpools/wordpool_EN.txt	WAVE	10	19	[0, 0, 0]	n/a	FR1	2	R1123C
2012.19	2.516	1008442	WORD	n/a	wordpools/wordpool_EN.txt	RIB	11	19	[0, 0, 0]	n/a	FR1	2	R1123C
2014.706	1.618	1009700	WORD	n/a	wordpools/wordpool_EN.txt	TRUCK	12	19	[0, 0, 0]	n/a	FR1	2	R1123C
2016.324	0.001	1010509	DISTRACT_START	n/a	n/a	n/a	-999	19	[0, 0, 0]	n/a	FR1	2	R1123C
2016.325	0.015	1010509	START	n/a	n/a	n/a	-999	19	[-999, -999, -999]	n/a	FR1	2	R1123C
2016.34	4.268	1010517	PROB	4.268	n/a	n/a	-999	19	[2, 8, 2]	12	FR1	2	R1123C
2020.608	5.133	1012650	PROB	5.133	n/a	n/a	-999	19	[7, 9, 2]	18	FR1	2	R1123C
2025.741	3.769	1015217	PROB	3.769	n/a	n/a	-999	19	[4, 2, 8]	14	FR1	2	R1123C
2029.51	5.784	1017101	PROB	5.784	n/a	n/a	-999	19	[7, 6, 4]	17	FR1	2	R1123C
2035.294	4.518	1019993	PROB	4.518	n/a	n/a	-999	19	[4, 5, 3]	12	FR1	2	R1123C
2039.812	0.015	1022252	STOP	n/a	n/a	n/a	-999	19	[-999, -999, -999]	n/a	FR1	2	R1123C
2039.827	1.119	1022259	DISTRACT_END	n/a	n/a	n/a	-999	19	[0, 0, 0]	n/a	FR1	2	R1123C
2040.946	0.248	1022819	REC_START	n/a	n/a	n/a	-999	19	[0, 0, 0]	n/a	FR1	2	R1123C
2041.194	1.037	1022943	REC_WORD	1.037	n/a	STRING	-999	19	[0, 0, 0]	n/a	FR1	2	R1123C
2042.231	1.288	1023461	REC_WORD	1.288	n/a	CLIFF	-999	19	[0, 0, 0]	n/a	FR1	2	R1123C
2043.519	3.162	1024105	REC_WORD	3.162	n/a	LEG	-999	19	[0, 0, 0]	n/a	FR1	2	R1123C
2046.681	24.276	1025686	REC_WORD	24.276	n/a	SCAR	-999	19	[0, 0, 0]	n/a	FR1	2	R1123C
2070.957	2.044	1037823	REC_END	n/a	n/a	n/a	-999	19	[0, 0, 0]	n/a	FR1	2	R1123C
2073.001	0.0	1038845	TRIAL	n/a	n/a	n/a	-999	20	[0, 0, 0]	n/a	FR1	2	R1123C
2073.001	10.428	1038845	COUNTDOWN_START	n/a	n/a	n/a	-999	20	[0, 0, 0]	n/a	FR1	2	R1123C
2083.429	0.007	1044058	COUNTDOWN_END	n/a	n/a	n/a	-999	20	[0, 0, 0]	n/a	FR1	2	R1123C
2083.436	2.568	1044062	ORIENT	n/a	n/a	n/a	-999	20	[0, 0, 0]	n/a	FR1	2	R1123C
2086.004	2.467	1045346	WORD	n/a	wordpools/wordpool_EN.txt	BOOT	1	20	[0, 0, 0]	n/a	FR1	2	R1123C
2088.471	2.382	1046579	WORD	n/a	wordpools/wordpool_EN.txt	CROW	2	20	[0, 0, 0]	n/a	FR1	2	R1123C
2090.853	2.602	1047770	WORD	n/a	wordpools/wordpool_EN.txt	CANE	3	20	[0, 0, 0]	n/a	FR1	2	R1123C
2093.455	2.484	1049071	WORD	n/a	wordpools/wordpool_EN.txt	BOWL	4	20	[0, 0, 0]	n/a	FR1	2	R1123C
2095.939	2.417	1050313	WORD	n/a	wordpools/wordpool_EN.txt	SPRING	5	20	[0, 0, 0]	n/a	FR1	2	R1123C
2098.356	2.466	1051521	WORD	n/a	wordpools/wordpool_EN.txt	COW	6	20	[0, 0, 0]	n/a	FR1	2	R1123C
2100.822	2.552	1052754	WORD	n/a	wordpools/wordpool_EN.txt	GRASS	7	20	[0, 0, 0]	n/a	FR1	2	R1123C
2103.374	2.399	1054030	WORD	n/a	wordpools/wordpool_EN.txt	BROOM	8	20	[0, 0, 0]	n/a	FR1	2	R1123C
2105.773	2.585	1055229	WORD	n/a	wordpools/wordpool_EN.txt	BUSH	9	20	[0, 0, 0]	n/a	FR1	2	R1123C
2108.358	2.6	1056522	WORD	n/a	wordpools/wordpool_EN.txt	STOVE	10	20	[0, 0, 0]	n/a	FR1	2	R1123C
2110.958	2.534	1057821	WORD	n/a	wordpools/wordpool_EN.txt	CUBE	11	20	[0, 0, 0]	n/a	FR1	2	R1123C
2113.492	1.617	1059088	WORD	n/a	wordpools/wordpool_EN.txt	HEN	12	20	[0, 0, 0]	n/a	FR1	2	R1123C
2115.109	0.001	1059897	DISTRACT_START	n/a	n/a	n/a	-999	20	[0, 0, 0]	n/a	FR1	2	R1123C
2115.11	0.016	1059897	START	n/a	n/a	n/a	-999	20	[-999, -999, -999]	n/a	FR1	2	R1123C
2115.126	4.967	1059905	PROB	4.967	n/a	n/a	-999	20	[9, 1, 8]	18	FR1	2	R1123C
2120.093	6.468	1062389	PROB	6.468	n/a	n/a	-999	20	[2, 7, 3]	12	FR1	2	R1123C
2126.561	3.183	1065622	PROB	3.183	n/a	n/a	-999	20	[9, 1, 7]	17	FR1	2	R1123C
2129.744	6.237	1067214	PROB	6.237	n/a	n/a	-999	20	[3, 6, 8]	17	FR1	2	R1123C
2135.981	0.015	1070332	STOP	n/a	n/a	n/a	-999	20	[-999, -999, -999]	n/a	FR1	2	R1123C
2135.996	1.184	1070339	DISTRACT_END	n/a	n/a	n/a	-999	20	[0, 0, 0]	n/a	FR1	2	R1123C
2137.18	0.447	1070931	REC_START	n/a	n/a	n/a	-999	20	[0, 0, 0]	n/a	FR1	2	R1123C
2137.627	0.946	1071155	REC_WORD	0.946	n/a	BOOT	-999	20	[0, 0, 0]	n/a	FR1	2	R1123C
2138.573	1.9	1071628	REC_WORD	1.9	n/a	BOWL	-999	20	[0, 0, 0]	n/a	FR1	2	R1123C
2140.473	14.63	1072578	REC_WORD	14.63	n/a	SCAR	-999	20	[0, 0, 0]	n/a	FR1	2	R1123C
2155.103	12.091	1079892	REC_WORD	12.091	n/a	LAKE	-999	20	[0, 0, 0]	n/a	FR1	2	R1123C
2167.194	2.775	1085937	REC_END	n/a	n/a	n/a	-999	20	[0, 0, 0]	n/a	FR1	2	R1123C
2169.969	0.0	1087324	TRIAL	n/a	n/a	n/a	-999	21	[0, 0, 0]	n/a	FR1	2	R1123C
2169.969	10.428	1087324	COUNTDOWN_START	n/a	n/a	n/a	-999	21	[0, 0, 0]	n/a	FR1	2	R1123C
2180.397	0.008	1092538	COUNTDOWN_END	n/a	n/a	n/a	-999	21	[0, 0, 0]	n/a	FR1	2	R1123C
2180.405	2.583	1092542	ORIENT	n/a	n/a	n/a	-999	21	[0, 0, 0]	n/a	FR1	2	R1123C
2182.988	2.584	1093833	WORD	n/a	wordpools/wordpool_EN.txt	STREET	1	21	[0, 0, 0]	n/a	FR1	2	R1123C
2185.572	2.467	1095125	WORD	n/a	wordpools/wordpool_EN.txt	PARK	2	21	[0, 0, 0]	n/a	FR1	2	R1123C
2188.039	2.551	1096359	WORD	n/a	wordpools/wordpool_EN.txt	CLOWN	3	21	[0, 0, 0]	n/a	FR1	2	R1123C
2190.59	2.517	1097634	WORD	n/a	wordpools/wordpool_EN.txt	TREE	4	21	[0, 0, 0]	n/a	FR1	2	R1123C
2193.107	2.45	1098892	WORD	n/a	wordpools/wordpool_EN.txt	BLOOM	5	21	[0, 0, 0]	n/a	FR1	2	R1123C
2195.557	2.551	1100117	WORD	n/a	wordpools/wordpool_EN.txt	VASE	6	21	[0, 0, 0]	n/a	FR1	2	R1123C
2198.108	2.45	1101393	WORD	n/a	wordpools/wordpool_EN.txt	HILL	7	21	[0, 0, 0]	n/a	FR1	2	R1123C
2200.558	2.401	1102617	WORD	n/a	wordpools/wordpool_EN.txt	PIE	8	21	[0, 0, 0]	n/a	FR1	2	R1123C
2202.959	2.6	1103818	WORD	n/a	wordpools/wordpool_EN.txt	BEE	9	21	[0, 0, 0]	n/a	FR1	2	R1123C
2205.559	2.568	1105118	WORD	n/a	wordpools/wordpool_EN.txt	JUICE	10	21	[0, 0, 0]	n/a	FR1	2	R1123C
2208.127	2.532	1106402	WORD	n/a	wordpools/wordpool_EN.txt	ELF	11	21	[0, 0, 0]	n/a	FR1	2	R1123C
2210.659	1.601	1107667	WORD	n/a	wordpools/wordpool_EN.txt	BREAD	12	21	[0, 0, 0]	n/a	FR1	2	R1123C
2212.26	0.001	1108468	DISTRACT_START	n/a	n/a	n/a	-999	21	[0, 0, 0]	n/a	FR1	2	R1123C
2212.261	0.016	1108468	START	n/a	n/a	n/a	-999	21	[-999, -999, -999]	n/a	FR1	2	R1123C
2212.277	4.201	1108476	PROB	4.201	n/a	n/a	-999	21	[1, 6, 3]	10	FR1	2	R1123C
2216.478	3.101	1110577	PROB	3.101	n/a	n/a	-999	21	[1, 4, 7]	12	FR1	2	R1123C
2219.579	8.768	1112127	PROB	8.768	n/a	n/a	-999	21	[9, 4, 4]	17	FR1	2	R1123C
2228.347	5.489	1116511	PROB	5.489	n/a	n/a	-999	21	[5, 7, 2]	14	FR1	2	R1123C
2233.836	0.011	1119255	STOP	n/a	n/a	n/a	-999	21	[-999, -999, -999]	n/a	FR1	2	R1123C
2233.847	1.202	1119260	DISTRACT_END	n/a	n/a	n/a	-999	21	[0, 0, 0]	n/a	FR1	2	R1123C
2235.049	0.273	1119861	REC_START	n/a	n/a	n/a	-999	21	[0, 0, 0]	n/a	FR1	2	R1123C
2235.322	1.282	1119998	REC_WORD	1.282	n/a	STREET	-999	21	[0, 0, 0]	n/a	FR1	2	R1123C
2236.604	1.25	1120639	REC_WORD	1.25	n/a	PARK	-999	21	[0, 0, 0]	n/a	FR1	2	R1123C
2237.854	2.564	1121264	REC_WORD	2.564	n/a	JUICE	-999	21	[0, 0, 0]	n/a	FR1	2	R1123C
2240.418	1.604	1122546	REC_WORD	1.604	n/a	FOOD	-999	21	[0, 0, 0]	n/a	FR1	2	R1123C
2242.022	23.037	1123348	REC_WORD	23.037	n/a	FRUIT	-999	21	[0, 0, 0]	n/a	FR1	2	R1123C
2265.059	1.694	1134865	REC_END	n/a	n/a	n/a	-999	21	[0, 0, 0]	n/a	FR1	2	R1123C
2266.753	0.0	1135712	TRIAL	n/a	n/a	n/a	-999	22	[0, 0, 0]	n/a	FR1	2	R1123C
2266.753	10.428	1135712	COUNTDOWN_START	n/a	n/a	n/a	-999	22	[0, 0, 0]	n/a	FR1	2	R1123C
2277.181	0.008	1140926	COUNTDOWN_END	n/a	n/a	n/a	-999	22	[0, 0, 0]	n/a	FR1	2	R1123C
2277.189	2.384	1140930	ORIENT	n/a	n/a	n/a	-999	22	[0, 0, 0]	n/a	FR1	2	R1123C
2279.573	2.434	1142121	WORD	n/a	wordpools/wordpool_EN.txt	MILK	1	22	[0, 0, 0]	n/a	FR1	2	R1123C
2282.007	2.617	1143338	WORD	n/a	wordpools/wordpool_EN.txt	DIME	2	22	[0, 0, 0]	n/a	FR1	2	R1123C
2284.624	2.567	1144647	WORD	n/a	wordpools/wordpool_EN.txt	FOOD	3	22	[0, 0, 0]	n/a	FR1	2	R1123C
2287.191	2.5	1145930	WORD	n/a	wordpools/wordpool_EN.txt	OAR	4	22	[0, 0, 0]	n/a	FR1	2	R1123C
2289.691	2.451	1147180	WORD	n/a	wordpools/wordpool_EN.txt	HEART	5	22	[0, 0, 0]	n/a	FR1	2	R1123C
2292.142	2.533	1148405	WORD	n/a	wordpools/wordpool_EN.txt	CROWN	6	22	[0, 0, 0]	n/a	FR1	2	R1123C
2294.675	2.602	1149672	WORD	n/a	wordpools/wordpool_EN.txt	STEAK	7	22	[0, 0, 0]	n/a	FR1	2	R1123C
2297.277	2.499	1150973	WORD	n/a	wordpools/wordpool_EN.txt	TRAIN	8	22	[0, 0, 0]	n/a	FR1	2	R1123C
2299.776	2.401	1152222	WORD	n/a	wordpools/wordpool_EN.txt	LAMB	9	22	[0, 0, 0]	n/a	FR1	2	R1123C
2302.177	2.567	1153422	WORD	n/a	wordpools/wordpool_EN.txt	SMOKE	10	22	[0, 0, 0]	n/a	FR1	2	R1123C
2304.744	2.418	1154706	WORD	n/a	wordpools/wordpool_EN.txt	EGG	11	22	[0, 0, 0]	n/a	FR1	2	R1123C
2307.162	1.616	1155915	WORD	n/a	wordpools/wordpool_EN.txt	PLATE	12	22	[0, 0, 0]	n/a	FR1	2	R1123C
2308.778	0.001	1156723	DISTRACT_START	n/a	n/a	n/a	-999	22	[0, 0, 0]	n/a	FR1	2	R1123C
2308.779	0.015	1156723	START	n/a	n/a	n/a	-999	22	[-999, -999, -999]	n/a	FR1	2	R1123C
2308.794	11.287	1156731	PROB	11.287	n/a	n/a	-999	22	[9, 6, 8]	24	FR1	2	R1123C
2320.081	5.567	1162374	PROB	5.567	n/a	n/a	-999	22	[4, 3, 3]	1	FR1	2	R1123C
2325.648	6.813	1165157	PROB	6.813	n/a	n/a	-999	22	[7, 4, 7]	18	FR1	2	R1123C
2332.461	0.006	1168563	STOP	n/a	n/a	n/a	-999	22	[-999, -999, -999]	n/a	FR1	2	R1123C
2332.467	1.067	1168566	DISTRACT_END	n/a	n/a	n/a	-999	22	[0, 0, 0]	n/a	FR1	2	R1123C
2333.534	0.636	1169100	REC_START	n/a	n/a	n/a	-999	22	[0, 0, 0]	n/a	FR1	2	R1123C
2334.17	1.053	1169417	REC_WORD	1.053	n/a	STEAK	-999	22	[0, 0, 0]	n/a	FR1	2	R1123C
2335.223	1.094	1169944	REC_WORD	1.094	n/a	PLATE	-999	22	[0, 0, 0]	n/a	FR1	2	R1123C
2336.317	2.101	1170491	REC_WORD	2.101	n/a	LAMB	-999	22	[0, 0, 0]	n/a	FR1	2	R1123C
2338.418	4.371	1171541	REC_WORD	4.371	n/a	SMOKE	-999	22	[0, 0, 0]	n/a	FR1	2	R1123C
2342.789	20.755	1173727	REC_WORD	20.755	n/a	STEAM	-999	22	[0, 0, 0]	n/a	FR1	2	R1123C
2363.544	1.762	1184103	REC_END	n/a	n/a	n/a	-999	22	[0, 0, 0]	n/a	FR1	2	R1123C
2365.306	0.0	1184984	COUNTDOWN_START	n/a	n/a	n/a	-999	23	[0, 0, 0]	n/a	FR1	2	R1123C
2365.306	10.428	1184984	TRIAL	n/a	n/a	n/a	-999	23	[0, 0, 0]	n/a	FR1	2	R1123C
2375.734	0.006	1190198	COUNTDOWN_END	n/a	n/a	n/a	-999	23	[0, 0, 0]	n/a	FR1	2	R1123C
2375.74	2.402	1190201	ORIENT	n/a	n/a	n/a	-999	23	[0, 0, 0]	n/a	FR1	2	R1123C
2378.142	2.549	1191402	WORD	n/a	wordpools/wordpool_EN.txt	MOLE	1	23	[0, 0, 0]	n/a	FR1	2	R1123C
2380.691	2.402	1192676	WORD	n/a	wordpools/wordpool_EN.txt	SNAIL	2	23	[0, 0, 0]	n/a	FR1	2	R1123C
2383.093	2.45	1193877	WORD	n/a	wordpools/wordpool_EN.txt	CAVE	3	23	[0, 0, 0]	n/a	FR1	2	R1123C
2385.543	2.534	1195102	WORD	n/a	wordpools/wordpool_EN.txt	BEAR	4	23	[0, 0, 0]	n/a	FR1	2	R1123C
2388.077	2.616	1196369	WORD	n/a	wordpools/wordpool_EN.txt	JEEP	5	23	[0, 0, 0]	n/a	FR1	2	R1123C
2390.693	2.535	1197676	WORD	n/a	wordpools/wordpool_EN.txt	SEAL	6	23	[0, 0, 0]	n/a	FR1	2	R1123C
2393.228	2.483	1198944	WORD	n/a	wordpools/wordpool_EN.txt	WEED	7	23	[0, 0, 0]	n/a	FR1	2	R1123C
2395.711	2.401	1200185	WORD	n/a	wordpools/wordpool_EN.txt	LOCK	8	23	[0, 0, 0]	n/a	FR1	2	R1123C
2398.112	2.434	1201386	WORD	n/a	wordpools/wordpool_EN.txt	WHEEL	9	23	[0, 0, 0]	n/a	FR1	2	R1123C
2400.546	2.434	1202603	WORD	n/a	wordpools/wordpool_EN.txt	FLEA	10	23	[0, 0, 0]	n/a	FR1	2	R1123C
2402.98	2.583	1203819	WORD	n/a	wordpools/wordpool_EN.txt	GATE	11	23	[0, 0, 0]	n/a	FR1	2	R1123C
2405.563	1.617	1205111	WORD	n/a	wordpools/wordpool_EN.txt	KEY	12	23	[0, 0, 0]	n/a	FR1	2	R1123C
2407.18	0.001	1205919	DISTRACT_START	n/a	n/a	n/a	-999	23	[0, 0, 0]	n/a	FR1	2	R1123C
2407.181	0.016	1205920	START	n/a	n/a	n/a	-999	23	[-999, -999, -999]	n/a	FR1	2	R1123C
2407.197	4.084	1205928	PROB	4.084	n/a	n/a	-999	23	[4, 4, 2]	10	FR1	2	R1123C
2411.281	6.035	1207970	PROB	6.035	n/a	n/a	-999	23	[2, 6, 7]	15	FR1	2	R1123C
2417.316	8.951	1210987	PROB	8.951	n/a	n/a	-999	23	[9, 7, 5]	21	FR1	2	R1123C
2426.267	5.643	1215462	PROB	5.643	n/a	n/a	-999	23	[8, 6, 6]	20	FR1	2	R1123C
2431.91	0.008	1218283	STOP	n/a	n/a	n/a	-999	23	[-999, -999, -999]	n/a	FR1	2	R1123C
2431.918	1.201	1218287	DISTRACT_END	n/a	n/a	n/a	-999	23	[0, 0, 0]	n/a	FR1	2	R1123C
2433.119	0.502	1218888	REC_START	n/a	n/a	n/a	-999	23	[0, 0, 0]	n/a	FR1	2	R1123C
2433.621	1.043	1219139	REC_WORD	1.043	n/a	GATE	-999	23	[0, 0, 0]	n/a	FR1	2	R1123C
2434.664	3.261	1219660	REC_WORD	3.261	n/a	KEY	-999	23	[0, 0, 0]	n/a	FR1	2	R1123C
2437.925	25.208	1221290	REC_WORD	25.208	n/a	LOCK	-999	23	[0, 0, 0]	n/a	FR1	2	R1123C
2463.133	2.358	1233893	REC_END	n/a	n/a	n/a	-999	23	[0, 0, 0]	n/a	FR1	2	R1123C
2465.491	0.001	1235072	COUNTDOWN_START	n/a	n/a	n/a	-999	24	[0, 0, 0]	n/a	FR1	2	R1123C
2465.492	10.427	1235073	TRIAL	n/a	n/a	n/a	-999	24	[0, 0, 0]	n/a	FR1	2	R1123C
2475.919	0.008	1240286	COUNTDOWN_END	n/a	n/a	n/a	-999	24	[0, 0, 0]	n/a	FR1	2	R1123C
2475.927	2.6	1240290	ORIENT	n/a	n/a	n/a	-999	24	[0, 0, 0]	n/a	FR1	2	R1123C
2478.527	2.567	1241590	WORD	n/a	wordpools/wordpool_EN.txt	WALL	1	24	[0, 0, 0]	n/a	FR1	2	R1123C
2481.094	2.451	1242873	WORD	n/a	wordpools/wordpool_EN.txt	VEST	2	24	[0, 0, 0]	n/a	FR1	2	R1123C
2483.545	2.4	1244098	WORD	n/a	wordpools/wordpool_EN.txt	SLUSH	3	24	[0, 0, 0]	n/a	FR1	2	R1123C
2485.945	2.601	1245298	WORD	n/a	wordpools/wordpool_EN.txt	BOX	4	24	[0, 0, 0]	n/a	FR1	2	R1123C
2488.546	2.567	1246599	WORD	n/a	wordpools/wordpool_EN.txt	THREAD	5	24	[0, 0, 0]	n/a	FR1	2	R1123C
2491.113	2.517	1247882	WORD	n/a	wordpools/wordpool_EN.txt	PASTE	6	24	[0, 0, 0]	n/a	FR1	2	R1123C
2493.63	2.417	1249140	WORD	n/a	wordpools/wordpool_EN.txt	WOOD	7	24	[0, 0, 0]	n/a	FR1	2	R1123C
2496.047	2.551	1250349	WORD	n/a	wordpools/wordpool_EN.txt	PIN	8	24	[0, 0, 0]	n/a	FR1	2	R1123C
2498.598	2.533	1251624	WORD	n/a	wordpools/wordpool_EN.txt	SQUARE	9	24	[0, 0, 0]	n/a	FR1	2	R1123C
2501.131	2.451	1252891	WORD	n/a	wordpools/wordpool_EN.txt	DOCK	10	24	[0, 0, 0]	n/a	FR1	2	R1123C
2503.582	2.584	1254116	WORD	n/a	wordpools/wordpool_EN.txt	BOARD	11	24	[0, 0, 0]	n/a	FR1	2	R1123C
2506.166	1.616	1255408	WORD	n/a	wordpools/wordpool_EN.txt	YARD	12	24	[0, 0, 0]	n/a	FR1	2	R1123C
2507.782	0.001	1256216	DISTRACT_START	n/a	n/a	n/a	-999	24	[0, 0, 0]	n/a	FR1	2	R1123C
2507.783	0.015	1256216	START	n/a	n/a	n/a	-999	24	[-999, -999, -999]	n/a	FR1	2	R1123C
2507.798	4.769	1256224	PROB	4.769	n/a	n/a	-999	24	[9, 1, 7]	17	FR1	2	R1123C
2512.567	6.985	1258608	PROB	6.985	n/a	n/a	-999	24	[1, 8, 6]	15	FR1	2	R1123C
2519.552	3.767	1262100	PROB	3.767	n/a	n/a	-999	24	[3, 7, 7]	17	FR1	2	R1123C
2523.319	7.774	1263984	PROB	7.774	n/a	n/a	-999	24	[5, 8, 7]	20	FR1	2	R1123C
2531.093	0.011	1267870	STOP	n/a	n/a	n/a	-999	24	[-999, -999, -999]	n/a	FR1	2	R1123C
2531.104	1.134	1267876	DISTRACT_END	n/a	n/a	n/a	-999	24	[0, 0, 0]	n/a	FR1	2	R1123C
2532.238	0.421	1268443	REC_START	n/a	n/a	n/a	-999	24	[0, 0, 0]	n/a	FR1	2	R1123C
2532.659	29.591	1268653	REC_WORD	29.591	n/a	WALL	-999	24	[0, 0, 0]	n/a	FR1	2	R1123C
2562.25	1.71	1283447	REC_END	n/a	n/a	n/a	-999	24	[0, 0, 0]	n/a	FR1	2	R1123C
2563.96	0.0	1284302	TRIAL	n/a	n/a	n/a	-999	25	[0, 0, 0]	n/a	FR1	2	R1123C
2563.96	10.428	1284302	COUNTDOWN_START	n/a	n/a	n/a	-999	25	[0, 0, 0]	n/a	FR1	2	R1123C
2574.388	0.007	1289516	COUNTDOWN_END	n/a	n/a	n/a	-999	25	[0, 0, 0]	n/a	FR1	2	R1123C
2574.395	2.501	1289519	ORIENT	n/a	n/a	n/a	-999	25	[0, 0, 0]	n/a	FR1	2	R1123C
2576.896	2.467	1290770	WORD	n/a	wordpools/wordpool_EN.txt	COUCH	1	25	[0, 0, 0]	n/a	FR1	2	R1123C
2579.363	2.466	1292003	WORD	n/a	wordpools/wordpool_EN.txt	HORN	2	25	[0, 0, 0]	n/a	FR1	2	R1123C
2581.829	2.402	1293236	WORD	n/a	wordpools/wordpool_EN.txt	JUDGE	3	25	[0, 0, 0]	n/a	FR1	2	R1123C
2584.231	2.4	1294437	WORD	n/a	wordpools/wordpool_EN.txt	OAK	4	25	[0, 0, 0]	n/a	FR1	2	R1123C
2586.631	2.584	1295637	WORD	n/a	wordpools/wordpool_EN.txt	MUD	5	25	[0, 0, 0]	n/a	FR1	2	R1123C
2589.215	2.599	1296929	WORD	n/a	wordpools/wordpool_EN.txt	STRAW	6	25	[0, 0, 0]	n/a	FR1	2	R1123C
2591.814	2.602	1298228	WORD	n/a	wordpools/wordpool_EN.txt	APE	7	25	[0, 0, 0]	n/a	FR1	2	R1123C
2594.416	2.416	1299529	WORD	n/a	wordpools/wordpool_EN.txt	ARM	8	25	[0, 0, 0]	n/a	FR1	2	R1123C
2596.832	2.418	1300737	WORD	n/a	wordpools/wordpool_EN.txt	MOUTH	9	25	[0, 0, 0]	n/a	FR1	2	R1123C
2599.25	2.599	1301946	WORD	n/a	wordpools/wordpool_EN.txt	JAIL	10	25	[0, 0, 0]	n/a	FR1	2	R1123C
2601.849	2.418	1303245	WORD	n/a	wordpools/wordpool_EN.txt	SNAKE	11	25	[0, 0, 0]	n/a	FR1	2	R1123C
2604.267	1.618	1304454	WORD	n/a	wordpools/wordpool_EN.txt	BATH	12	25	[0, 0, 0]	n/a	FR1	2	R1123C
2605.885	0.0	1305263	DISTRACT_START	n/a	n/a	n/a	-999	25	[0, 0, 0]	n/a	FR1	2	R1123C
2605.885	0.016	1305263	START	n/a	n/a	n/a	-999	25	[-999, -999, -999]	n/a	FR1	2	R1123C
2605.901	4.733	1305271	PROB	4.733	n/a	n/a	-999	25	[6, 4, 2]	12	FR1	2	R1123C
2610.634	4.286	1307637	PROB	4.286	n/a	n/a	-999	25	[2, 8, 5]	15	FR1	2	R1123C
2614.92	7.518	1309780	PROB	7.518	n/a	n/a	-999	25	[9, 8, 7]	24	FR1	2	R1123C
2622.438	3.959	1313539	PROB	3.959	n/a	n/a	-999	25	[8, 8, 6]	22	FR1	2	R1123C
2626.397	0.008	1315518	STOP	n/a	n/a	n/a	-999	25	[-999, -999, -999]	n/a	FR1	2	R1123C
2626.405	1.051	1315522	DISTRACT_END	n/a	n/a	n/a	-999	25	[0, 0, 0]	n/a	FR1	2	R1123C
2627.456	0.505	1316047	REC_START	n/a	n/a	n/a	-999	25	[0, 0, 0]	n/a	FR1	2	R1123C
2627.961	1.262	1316300	REC_WORD	1.262	n/a	OAK	-999	25	[0, 0, 0]	n/a	FR1	2	R1123C
2629.223	1.382	1316931	REC_WORD	1.382	n/a	MUD	-999	25	[0, 0, 0]	n/a	FR1	2	R1123C
2630.605	8.088	1317622	REC_WORD	8.088	n/a	JAIL	-999	25	[0, 0, 0]	n/a	FR1	2	R1123C
2638.693	18.774	1321665	REC_WORD	18.774	n/a	STAR	-999	25	[0, 0, 0]	n/a	FR1	2	R1123C
2657.467	32.05	1331052	REC_END	n/a	n/a	n/a	-999	25	[0, 0, 0]	n/a	FR1	2	R1123C
2689.517	0.0	1347075	SESS_END	n/a	n/a	n/a	-999	25	[0, 0, 0]	n/a	FR1	2	R1123C
