onset	duration	sample	trial_type	response_time	stim_file	item_name	serialpos	list	test	answer	experiment	session	subject
0.0	2.497	85532	INSTRUCT_START	n/a	n/a	n/a	-999	-999	[0, 0, 0]	n/a	FR1	0	R1414E
2.497	56.764	88020	INSTRUCT_END	n/a	n/a	n/a	-999	-999	[0, 0, 0]	n/a	FR1	0	R1414E
59.261	10.401	144784	COUNTDOWN_START	n/a	n/a	n/a	-999	-999	[0, 0, 0]	n/a	FR1	0	R1414E
69.662	0.0	155177	COUNTDOWN_END	n/a	n/a	n/a	-999	-999	[0, 0, 0]	n/a	FR1	0	R1414E
69.662	2.082	155192	ENCODING_START	n/a	n/a	n/a	-999	-1	[0, 0, 0]	n/a	FR1	0	R1414E
71.744	1.6	157271	WORD	n/a	n/a	BOARD	1	-1	[0, 0, 0]	n/a	FR1	0	R1414E
73.344	0.85	158861	WORD_OFF	n/a	n/a	BOARD	1	-1	[0, 0, 0]	n/a	FR1	0	R1414E
74.194	1.616	159711	WORD	n/a	n/a	TRAY	2	-1	[0, 0, 0]	n/a	FR1	0	R1414E
75.81	0.884	161333	WORD_OFF	n/a	n/a	TRAY	2	-1	[0, 0, 0]	n/a	FR1	0	R1414E
76.694	1.615	162215	WORD	n/a	n/a	SLIME	3	-1	[0, 0, 0]	n/a	FR1	0	R1414E
78.309	0.901	163837	WORD_OFF	n/a	n/a	SLIME	3	-1	[0, 0, 0]	n/a	FR1	0	R1414E
79.21	1.617	164734	WORD	n/a	n/a	SKATE	4	-1	[0, 0, 0]	n/a	FR1	0	R1414E
80.827	0.8	166356	WORD_OFF	n/a	n/a	SKATE	4	-1	[0, 0, 0]	n/a	FR1	0	R1414E
81.627	1.617	167144	WORD	n/a	n/a	OX	5	-1	[0, 0, 0]	n/a	FR1	0	R1414E
83.244	0.917	168765	WORD_OFF	n/a	n/a	OX	5	-1	[0, 0, 0]	n/a	FR1	0	R1414E
84.161	1.615	169679	WORD	n/a	n/a	CART	6	-1	[0, 0, 0]	n/a	FR1	0	R1414E
85.776	1.001	171300	WORD_OFF	n/a	n/a	CART	6	-1	[0, 0, 0]	n/a	FR1	0	R1414E
86.777	1.616	172292	WORD	n/a	n/a	MEAT	7	-1	[0, 0, 0]	n/a	FR1	0	R1414E
88.393	0.8	173914	WORD_OFF	n/a	n/a	MEAT	7	-1	[0, 0, 0]	n/a	FR1	0	R1414E
89.193	1.617	174717	WORD	n/a	n/a	THRONE	8	-1	[0, 0, 0]	n/a	FR1	0	R1414E
90.81	0.983	176339	WORD_OFF	n/a	n/a	THRONE	8	-1	[0, 0, 0]	n/a	FR1	0	R1414E
91.793	1.616	177315	WORD	n/a	n/a	FOAM	9	-1	[0, 0, 0]	n/a	FR1	0	R1414E
93.409	0.901	178937	WORD_OFF	n/a	n/a	FOAM	9	-1	[0, 0, 0]	n/a	FR1	0	R1414E
94.31	1.6	179835	WORD	n/a	n/a	LIP	10	-1	[0, 0, 0]	n/a	FR1	0	R1414E
95.91	0.767	181425	WORD_OFF	n/a	n/a	LIP	10	-1	[0, 0, 0]	n/a	FR1	0	R1414E
96.677	1.616	182197	WORD	n/a	n/a	WING	11	-1	[0, 0, 0]	n/a	FR1	0	R1414E
98.293	0.817	183818	WORD_OFF	n/a	n/a	WING	11	-1	[0, 0, 0]	n/a	FR1	0	R1414E
99.11	1.616	184637	WORD	n/a	n/a	NET	12	-1	[0, 0, 0]	n/a	FR1	0	R1414E
100.726	0.002	186243	WORD_OFF	n/a	n/a	NET	12	-1	[0, 0, 0]	n/a	FR1	0	R1414E
100.728	0.0	186243	ENCODING_END	n/a	n/a	n/a	-999	-1	[0, 0, 0]	n/a	FR1	0	R1414E
100.728	0.0	186249	START	n/a	n/a	n/a	-999	-1	[-999, -999, -999]	n/a	FR1	0	R1414E
100.728	0.0	186249	PROB	0.0	n/a	n/a	-999	-1	[6, 3, 8]	17	FR1	0	R1414E
100.728	3.716	186259	DISTRACT_START	n/a	n/a	n/a	-999	-1	[0, 0, 0]	n/a	FR1	0	R1414E
104.444	4.866	189965	PROB	4.866	n/a	n/a	-999	-1	[8, 4, 3]	15	FR1	0	R1414E
109.31	1.966	194831	PROB	1.966	n/a	n/a	-999	-1	[3, 1, 5]	9	FR1	0	R1414E
111.276	2.7	196797	PROB	2.7	n/a	n/a	-999	-1	[4, 4, 8]	16	FR1	0	R1414E
113.976	3.6	199497	PROB	3.6	n/a	n/a	-999	-1	[6, 8, 3]	17	FR1	0	R1414E
117.576	2.55	203097	PROB	2.55	n/a	n/a	-999	-1	[6, 3, 2]	11	FR1	0	R1414E
120.126	2.649	205647	PROB	2.649	n/a	n/a	-999	-1	[7, 6, 1]	14	FR1	0	R1414E
122.775	0.0	208296	STOP	n/a	n/a	n/a	-999	-1	[-999, -999, -999]	n/a	FR1	0	R1414E
122.775	2.25	208304	DISTRACT_END	n/a	n/a	n/a	-999	-1	[0, 0, 0]	n/a	FR1	0	R1414E
125.025	0.475	210548	REC_START	n/a	n/a	n/a	-999	-1	[0, 0, 0]	n/a	FR1	0	R1414E
125.5	0.615	211021	REC_WORD	0.615	n/a	BOARD	1	-1	[0, 0, 0]	n/a	FR1	0	R1414E
126.115	0.634	211636	REC_WORD	0.634	n/a	TREE	-999	-1	[0, 0, 0]	n/a	FR1	0	R1414E
126.749	0.769	212270	REC_WORD	0.769	n/a	SLIME	3	-1	[0, 0, 0]	n/a	FR1	0	R1414E
127.518	0.853	213039	REC_WORD	0.853	n/a	FOAM	9	-1	[0, 0, 0]	n/a	FR1	0	R1414E
128.371	0.612	213892	REC_WORD	0.612	n/a	BOARD	1	-1	[0, 0, 0]	n/a	FR1	0	R1414E
128.983	8.668	214504	REC_WORD	8.668	n/a	TRAY	2	-1	[0, 0, 0]	n/a	FR1	0	R1414E
137.651	1.0	223172	REC_WORD	1.0	n/a	FOAM	9	-1	[0, 0, 0]	n/a	FR1	0	R1414E
138.651	3.692	224172	REC_WORD_VV	3.692	n/a	<>	-999	-1	[0, 0, 0]	n/a	FR1	0	R1414E
142.343	1.0	227864	REC_WORD	1.0	n/a	BOX	-999	-1	[0, 0, 0]	n/a	FR1	0	R1414E
143.343	3.493	228864	REC_WORD_VV	3.493	n/a	<>	-999	-1	[0, 0, 0]	n/a	FR1	0	R1414E
146.836	1.213	232357	REC_WORD	1.213	n/a	LIP	10	-1	[0, 0, 0]	n/a	FR1	0	R1414E
148.049	0.56	233570	REC_WORD	0.56	n/a	WING	11	-1	[0, 0, 0]	n/a	FR1	0	R1414E
148.609	6.671	234130	REC_WORD	6.671	n/a	NET	12	-1	[0, 0, 0]	n/a	FR1	0	R1414E
155.28	6.377	240803	REC_END	n/a	n/a	n/a	-999	-1	[0, 0, 0]	n/a	FR1	0	R1414E
161.657	10.353	247180	COUNTDOWN_START	n/a	n/a	n/a	-999	1	[0, 0, 0]	n/a	FR1	0	R1414E
172.01	0.0	257526	COUNTDOWN_END	n/a	n/a	n/a	-999	1	[0, 0, 0]	n/a	FR1	0	R1414E
172.01	2.18	257541	ENCODING_START	n/a	n/a	n/a	-999	1	[0, 0, 0]	n/a	FR1	0	R1414E
174.19	1.617	259714	WORD	n/a	wordpools/wordpool_long_EN.txt	SMOKE	1	1	[0, 0, 0]	n/a	FR1	0	R1414E
175.807	0.933	261336	WORD_OFF	n/a	n/a	SMOKE	1	1	[0, 0, 0]	n/a	FR1	0	R1414E
176.74	1.617	262265	WORD	n/a	wordpools/wordpool_long_EN.txt	SHIELD	2	1	[0, 0, 0]	n/a	FR1	0	R1414E
178.357	0.9	263871	WORD_OFF	n/a	n/a	SHIELD	2	1	[0, 0, 0]	n/a	FR1	0	R1414E
179.257	1.617	264785	WORD	n/a	wordpools/wordpool_long_EN.txt	WORLD	3	1	[0, 0, 0]	n/a	FR1	0	R1414E
180.874	0.882	266391	WORD_OFF	n/a	n/a	WORLD	3	1	[0, 0, 0]	n/a	FR1	0	R1414E
181.756	1.6	267272	WORD	n/a	wordpools/wordpool_long_EN.txt	RUG	4	1	[0, 0, 0]	n/a	FR1	0	R1414E
183.356	0.901	268878	WORD_OFF	n/a	n/a	RUG	4	1	[0, 0, 0]	n/a	FR1	0	R1414E
184.257	1.616	269776	WORD	n/a	wordpools/wordpool_long_EN.txt	VINE	5	1	[0, 0, 0]	n/a	FR1	0	R1414E
185.873	0.933	271398	WORD_OFF	n/a	n/a	VINE	5	1	[0, 0, 0]	n/a	FR1	0	R1414E
186.806	1.601	272327	WORD	n/a	wordpools/wordpool_long_EN.txt	SKI	6	1	[0, 0, 0]	n/a	FR1	0	R1414E
188.407	0.933	273933	WORD_OFF	n/a	n/a	SKI	6	1	[0, 0, 0]	n/a	FR1	0	R1414E
189.34	1.617	274862	WORD	n/a	wordpools/wordpool_long_EN.txt	HUT	7	1	[0, 0, 0]	n/a	FR1	0	R1414E
190.957	0.95	276484	WORD_OFF	n/a	n/a	HUT	7	1	[0, 0, 0]	n/a	FR1	0	R1414E
191.907	1.616	277429	WORD	n/a	wordpools/wordpool_long_EN.txt	POOL	8	1	[0, 0, 0]	n/a	FR1	0	R1414E
193.523	0.8	279050	WORD_OFF	n/a	n/a	POOL	8	1	[0, 0, 0]	n/a	FR1	0	R1414E
194.323	1.617	279853	WORD	n/a	wordpools/wordpool_long_EN.txt	BROOK	9	1	[0, 0, 0]	n/a	FR1	0	R1414E
195.94	0.9	281460	WORD_OFF	n/a	n/a	BROOK	9	1	[0, 0, 0]	n/a	FR1	0	R1414E
196.84	1.6	282357	WORD	n/a	wordpools/wordpool_long_EN.txt	BATH	10	1	[0, 0, 0]	n/a	FR1	0	R1414E
198.44	0.883	283963	WORD_OFF	n/a	n/a	BATH	10	1	[0, 0, 0]	n/a	FR1	0	R1414E
199.323	1.616	284845	WORD	n/a	wordpools/wordpool_long_EN.txt	MUG	11	1	[0, 0, 0]	n/a	FR1	0	R1414E
200.939	0.767	286467	WORD_OFF	n/a	n/a	MUG	11	1	[0, 0, 0]	n/a	FR1	0	R1414E
201.706	1.616	287223	WORD	n/a	wordpools/wordpool_long_EN.txt	TRASH	12	1	[0, 0, 0]	n/a	FR1	0	R1414E
203.322	0.001	288844	WORD_OFF	n/a	n/a	TRASH	12	1	[0, 0, 0]	n/a	FR1	0	R1414E
203.323	0.001	288844	ENCODING_END	n/a	n/a	n/a	-999	1	[0, 0, 0]	n/a	FR1	0	R1414E
203.324	0.0	288844	DISTRACT_START	n/a	n/a	n/a	-999	1	[0, 0, 0]	n/a	FR1	0	R1414E
203.323	0.001	288844	PROB	0.001	n/a	n/a	-999	1	[6, 5, 3]	14	FR1	0	R1414E
203.324	4.632	288845	START	n/a	n/a	n/a	-999	1	[-999, -999, -999]	n/a	FR1	0	R1414E
207.956	2.566	293477	PROB	2.566	n/a	n/a	-999	1	[6, 7, 5]	18	FR1	0	R1414E
210.522	3.883	296043	PROB	3.883	n/a	n/a	-999	1	[7, 1, 8]	16	FR1	0	R1414E
214.405	2.851	299926	PROB	2.851	n/a	n/a	-999	1	[3, 2, 2]	7	FR1	0	R1414E
217.256	3.133	302777	PROB	3.133	n/a	n/a	-999	1	[3, 5, 2]	10	FR1	0	R1414E
220.389	4.25	305910	PROB	4.25	n/a	n/a	-999	1	[6, 1, 6]	13	FR1	0	R1414E
224.639	0.0	310160	STOP	n/a	n/a	n/a	-999	1	[-999, -999, -999]	n/a	FR1	0	R1414E
224.639	2.316	310165	DISTRACT_END	n/a	n/a	n/a	-999	1	[0, 0, 0]	n/a	FR1	0	R1414E
226.955	0.835	312471	REC_START	n/a	n/a	n/a	-999	1	[0, 0, 0]	n/a	FR1	0	R1414E
227.79	0.931	313311	REC_WORD	0.931	n/a	MUG	11	1	[0, 0, 0]	n/a	FR1	0	R1414E
228.721	1.43	314242	REC_WORD	1.43	n/a	RUG	4	1	[0, 0, 0]	n/a	FR1	0	R1414E
230.151	2.148	315672	REC_WORD	2.148	n/a	VINE	5	1	[0, 0, 0]	n/a	FR1	0	R1414E
232.299	5.42	317820	REC_WORD	5.42	n/a	CARPET	-999	1	[0, 0, 0]	n/a	FR1	0	R1414E
237.719	1.0	323240	REC_WORD_VV	1.0	n/a	<>	-999	1	[0, 0, 0]	n/a	FR1	0	R1414E
238.719	1.0	324240	REC_WORD_VV	1.0	n/a	<>	-999	1	[0, 0, 0]	n/a	FR1	0	R1414E
239.719	6.034	325240	REC_WORD_VV	6.034	n/a	<>	-999	1	[0, 0, 0]	n/a	FR1	0	R1414E
245.753	0.634	331274	REC_WORD	0.634	n/a	TREE	-999	1	[0, 0, 0]	n/a	FR1	0	R1414E
246.387	1.644	331908	REC_WORD	1.644	n/a	POOL	8	1	[0, 0, 0]	n/a	FR1	0	R1414E
248.031	4.564	333552	REC_WORD	4.564	n/a	BATH	10	1	[0, 0, 0]	n/a	FR1	0	R1414E
252.595	3.285	338116	REC_WORD	3.285	n/a	SMOKE	1	1	[0, 0, 0]	n/a	FR1	0	R1414E
255.88	1.337	341401	REC_WORD	1.337	n/a	HOUSE	-999	1	[0, 0, 0]	n/a	FR1	0	R1414E
257.217	1.553	342743	REC_END	n/a	n/a	n/a	-999	1	[0, 0, 0]	n/a	FR1	0	R1414E
258.77	10.352	344286	COUNTDOWN_START	n/a	n/a	n/a	-999	2	[0, 0, 0]	n/a	FR1	0	R1414E
269.122	0.0	354647	COUNTDOWN_END	n/a	n/a	n/a	-999	2	[0, 0, 0]	n/a	FR1	0	R1414E
269.122	1.949	354647	ENCODING_START	n/a	n/a	n/a	-999	2	[0, 0, 0]	n/a	FR1	0	R1414E
271.071	1.6	356600	WORD	n/a	wordpools/wordpool_long_EN.txt	RAIL	1	2	[0, 0, 0]	n/a	FR1	0	R1414E
272.671	0.949	358190	WORD_OFF	n/a	n/a	RAIL	1	2	[0, 0, 0]	n/a	FR1	0	R1414E
273.62	1.616	359135	WORD	n/a	wordpools/wordpool_long_EN.txt	FLAG	2	2	[0, 0, 0]	n/a	FR1	0	R1414E
275.236	0.984	360757	WORD_OFF	n/a	n/a	FLAG	2	2	[0, 0, 0]	n/a	FR1	0	R1414E
276.22	1.617	361748	WORD	n/a	wordpools/wordpool_long_EN.txt	CARD	3	2	[0, 0, 0]	n/a	FR1	0	R1414E
277.837	0.833	363355	WORD_OFF	n/a	n/a	CARD	3	2	[0, 0, 0]	n/a	FR1	0	R1414E
278.67	1.6	364189	WORD	n/a	wordpools/wordpool_long_EN.txt	FLEA	4	2	[0, 0, 0]	n/a	FR1	0	R1414E
280.27	1.0	365795	WORD_OFF	n/a	n/a	FLEA	4	2	[0, 0, 0]	n/a	FR1	0	R1414E
281.27	1.616	366787	WORD	n/a	wordpools/wordpool_long_EN.txt	PIPE	5	2	[0, 0, 0]	n/a	FR1	0	R1414E
282.886	0.851	368409	WORD_OFF	n/a	n/a	PIPE	5	2	[0, 0, 0]	n/a	FR1	0	R1414E
283.737	1.6	369259	WORD	n/a	wordpools/wordpool_long_EN.txt	CLOWN	6	2	[0, 0, 0]	n/a	FR1	0	R1414E
285.337	0.866	370865	WORD_OFF	n/a	n/a	CLOWN	6	2	[0, 0, 0]	n/a	FR1	0	R1414E
286.203	1.6	371731	WORD	n/a	wordpools/wordpool_long_EN.txt	BOOT	7	2	[0, 0, 0]	n/a	FR1	0	R1414E
287.803	0.967	373338	WORD_OFF	n/a	n/a	BOOT	7	2	[0, 0, 0]	n/a	FR1	0	R1414E
288.77	1.616	374298	WORD	n/a	wordpools/wordpool_long_EN.txt	FARM	8	2	[0, 0, 0]	n/a	FR1	0	R1414E
290.386	1.0	375904	WORD_OFF	n/a	n/a	FARM	8	2	[0, 0, 0]	n/a	FR1	0	R1414E
291.386	1.617	376912	WORD	n/a	wordpools/wordpool_long_EN.txt	CLAY	9	2	[0, 0, 0]	n/a	FR1	0	R1414E
293.003	0.8	378518	WORD_OFF	n/a	n/a	CLAY	9	2	[0, 0, 0]	n/a	FR1	0	R1414E
293.803	1.617	379321	WORD	n/a	wordpools/wordpool_long_EN.txt	TWIG	10	2	[0, 0, 0]	n/a	FR1	0	R1414E
295.42	0.949	380943	WORD_OFF	n/a	n/a	TWIG	10	2	[0, 0, 0]	n/a	FR1	0	R1414E
296.369	1.617	381888	WORD	n/a	wordpools/wordpool_long_EN.txt	ARK	11	2	[0, 0, 0]	n/a	FR1	0	R1414E
297.986	0.869	383509	WORD_OFF	n/a	n/a	ARK	11	2	[0, 0, 0]	n/a	FR1	0	R1414E
298.855	1.615	384376	WORD	n/a	wordpools/wordpool_long_EN.txt	VASE	12	2	[0, 0, 0]	n/a	FR1	0	R1414E
300.47	0.001	385991	PROB	0.001	n/a	n/a	-999	2	[5, 8, 8]	21	FR1	0	R1414E
300.471	0.0	385992	START	n/a	n/a	n/a	-999	2	[-999, -999, -999]	n/a	FR1	0	R1414E
300.469	0.002	385997	WORD_OFF	n/a	n/a	VASE	12	2	[0, 0, 0]	n/a	FR1	0	R1414E
300.471	0.0	385997	ENCODING_END	n/a	n/a	n/a	-999	2	[0, 0, 0]	n/a	FR1	0	R1414E
300.471	4.298	385997	DISTRACT_START	n/a	n/a	n/a	-999	2	[0, 0, 0]	n/a	FR1	0	R1414E
304.769	2.868	390290	PROB	2.868	n/a	n/a	-999	2	[3, 4, 7]	14	FR1	0	R1414E
307.637	2.932	393158	PROB	2.932	n/a	n/a	-999	2	[7, 5, 3]	15	FR1	0	R1414E
310.569	2.416	396090	PROB	2.416	n/a	n/a	-999	2	[3, 5, 4]	12	FR1	0	R1414E
312.985	2.518	398506	PROB	2.518	n/a	n/a	-999	2	[1, 6, 3]	10	FR1	0	R1414E
315.503	2.683	401024	PROB	2.683	n/a	n/a	-999	2	[3, 4, 6]	13	FR1	0	R1414E
318.186	3.749	403707	PROB	3.749	n/a	n/a	-999	2	[4, 5, 1]	10	FR1	0	R1414E
321.935	0.0	407456	STOP	n/a	n/a	n/a	-999	2	[-999, -999, -999]	n/a	FR1	0	R1414E
321.935	2.067	407459	DISTRACT_END	n/a	n/a	n/a	-999	2	[0, 0, 0]	n/a	FR1	0	R1414E
324.002	1.718	409530	REC_START	n/a	n/a	n/a	-999	2	[0, 0, 0]	n/a	FR1	0	R1414E
325.72	3.765	411241	REC_WORD	3.765	n/a	SHIELD	-999	2	[0, 0, 0]	n/a	FR1	0	R1414E
329.485	0.526	415006	REC_WORD_VV	0.526	n/a	<>	-999	2	[0, 0, 0]	n/a	FR1	0	R1414E
330.011	5.641	415532	REC_WORD	5.641	n/a	SMOKE	-999	2	[0, 0, 0]	n/a	FR1	0	R1414E
335.652	7.121	421173	REC_WORD_VV	7.121	n/a	<>	-999	2	[0, 0, 0]	n/a	FR1	0	R1414E
342.773	6.814	428294	REC_WORD	6.814	n/a	VINE	-999	2	[0, 0, 0]	n/a	FR1	0	R1414E
349.587	1.0	435108	REC_WORD	1.0	n/a	CLAY	9	2	[0, 0, 0]	n/a	FR1	0	R1414E
350.587	0.315	436108	REC_WORD_VV	0.315	n/a	<>	-999	2	[0, 0, 0]	n/a	FR1	0	R1414E
350.902	3.349	436423	REC_WORD	3.349	n/a	TWIG	10	2	[0, 0, 0]	n/a	FR1	0	R1414E
354.251	1.967	439770	REC_END	n/a	n/a	n/a	-999	2	[0, 0, 0]	n/a	FR1	0	R1414E
356.218	10.35	441738	COUNTDOWN_START	n/a	n/a	n/a	-999	3	[0, 0, 0]	n/a	FR1	0	R1414E
366.568	0.0	452083	COUNTDOWN_END	n/a	n/a	n/a	-999	3	[0, 0, 0]	n/a	FR1	0	R1414E
366.568	2.098	452099	ENCODING_START	n/a	n/a	n/a	-999	3	[0, 0, 0]	n/a	FR1	0	R1414E
368.666	1.6	454193	WORD	n/a	wordpools/wordpool_long_EN.txt	STOOL	1	3	[0, 0, 0]	n/a	FR1	0	R1414E
370.266	0.95	455784	WORD_OFF	n/a	n/a	STOOL	1	3	[0, 0, 0]	n/a	FR1	0	R1414E
371.216	1.617	456744	WORD	n/a	wordpools/wordpool_long_EN.txt	BEAN	2	3	[0, 0, 0]	n/a	FR1	0	R1414E
372.833	0.951	458350	WORD_OFF	n/a	n/a	BEAN	2	3	[0, 0, 0]	n/a	FR1	0	R1414E
373.784	1.6	459311	WORD	n/a	wordpools/wordpool_long_EN.txt	MOUSE	3	3	[0, 0, 0]	n/a	FR1	0	R1414E
375.384	0.983	460901	WORD_OFF	n/a	n/a	MOUSE	3	3	[0, 0, 0]	n/a	FR1	0	R1414E
376.367	1.616	461893	WORD	n/a	wordpools/wordpool_long_EN.txt	BEEF	4	3	[0, 0, 0]	n/a	FR1	0	R1414E
377.983	1.0	463499	WORD_OFF	n/a	n/a	BEEF	4	3	[0, 0, 0]	n/a	FR1	0	R1414E
378.983	1.6	464507	WORD	n/a	wordpools/wordpool_long_EN.txt	DOCK	5	3	[0, 0, 0]	n/a	FR1	0	R1414E
380.583	0.917	466113	WORD_OFF	n/a	n/a	DOCK	5	3	[0, 0, 0]	n/a	FR1	0	R1414E
381.5	1.617	467026	WORD	n/a	wordpools/wordpool_long_EN.txt	HOOF	6	3	[0, 0, 0]	n/a	FR1	0	R1414E
383.117	0.999	468632	WORD_OFF	n/a	n/a	HOOF	6	3	[0, 0, 0]	n/a	FR1	0	R1414E
384.116	1.6	469640	WORD	n/a	wordpools/wordpool_long_EN.txt	CAPE	7	3	[0, 0, 0]	n/a	FR1	0	R1414E
385.716	0.8	471246	WORD_OFF	n/a	n/a	CAPE	7	3	[0, 0, 0]	n/a	FR1	0	R1414E
386.516	1.617	472034	WORD	n/a	wordpools/wordpool_long_EN.txt	LUNCH	8	3	[0, 0, 0]	n/a	FR1	0	R1414E
388.133	0.783	473655	WORD_OFF	n/a	n/a	LUNCH	8	3	[0, 0, 0]	n/a	FR1	0	R1414E
388.916	1.6	474443	WORD	n/a	wordpools/wordpool_long_EN.txt	STEM	9	3	[0, 0, 0]	n/a	FR1	0	R1414E
390.516	0.834	476033	WORD_OFF	n/a	n/a	STEM	9	3	[0, 0, 0]	n/a	FR1	0	R1414E
391.35	1.6	476868	WORD	n/a	wordpools/wordpool_long_EN.txt	FOX	10	3	[0, 0, 0]	n/a	FR1	0	R1414E
392.95	0.949	478474	WORD_OFF	n/a	n/a	FOX	10	3	[0, 0, 0]	n/a	FR1	0	R1414E
393.899	1.6	479418	WORD	n/a	wordpools/wordpool_long_EN.txt	EGG	11	3	[0, 0, 0]	n/a	FR1	0	R1414E
395.499	0.983	481025	WORD_OFF	n/a	n/a	EGG	11	3	[0, 0, 0]	n/a	FR1	0	R1414E
396.482	1.6	482001	WORD	n/a	wordpools/wordpool_long_EN.txt	STAKE	12	3	[0, 0, 0]	n/a	FR1	0	R1414E
398.082	0.001	483603	PROB	0.001	n/a	n/a	-999	3	[2, 4, 3]	9	FR1	0	R1414E
398.083	0.0	483604	START	n/a	n/a	n/a	-999	3	[-999, -999, -999]	n/a	FR1	0	R1414E
398.082	0.001	483607	WORD_OFF	n/a	n/a	STAKE	12	3	[0, 0, 0]	n/a	FR1	0	R1414E
398.083	0.0	483607	ENCODING_END	n/a	n/a	n/a	-999	3	[0, 0, 0]	n/a	FR1	0	R1414E
398.083	3.05	483607	DISTRACT_START	n/a	n/a	n/a	-999	3	[0, 0, 0]	n/a	FR1	0	R1414E
401.133	2.584	486654	PROB	2.584	n/a	n/a	-999	3	[3, 1, 7]	10	FR1	0	R1414E
403.717	3.565	489238	PROB	3.565	n/a	n/a	-999	3	[7, 4, 5]	16	FR1	0	R1414E
407.282	2.433	492803	PROB	2.433	n/a	n/a	-999	3	[4, 3, 8]	15	FR1	0	R1414E
409.715	2.184	495236	PROB	2.184	n/a	n/a	-999	3	[5, 5, 3]	13	FR1	0	R1414E
411.899	2.916	497420	PROB	2.916	n/a	n/a	-999	3	[7, 2, 8]	17	FR1	0	R1414E
414.815	2.95	500336	PROB	2.95	n/a	n/a	-999	3	[1, 5, 4]	10	FR1	0	R1414E
417.765	3.067	503286	PROB	3.067	n/a	n/a	-999	3	[4, 8, 3]	15	FR1	0	R1414E
420.832	0.0	506353	STOP	n/a	n/a	n/a	-999	3	[-999, -999, -999]	n/a	FR1	0	R1414E
420.832	2.299	506360	DISTRACT_END	n/a	n/a	n/a	-999	3	[0, 0, 0]	n/a	FR1	0	R1414E
423.131	0.83	508651	REC_START	n/a	n/a	n/a	-999	3	[0, 0, 0]	n/a	FR1	0	R1414E
423.961	1.702	509482	REC_WORD	1.702	n/a	STOOL	1	3	[0, 0, 0]	n/a	FR1	0	R1414E
425.663	0.685	511184	REC_WORD	0.685	n/a	VASE	-999	3	[0, 0, 0]	n/a	FR1	0	R1414E
426.348	4.921	511869	REC_WORD	4.921	n/a	STEM	9	3	[0, 0, 0]	n/a	FR1	0	R1414E
431.269	7.652	516790	REC_WORD	7.652	n/a	BOOT	-999	3	[0, 0, 0]	n/a	FR1	0	R1414E
438.921	14.469	524442	REC_WORD	14.469	n/a	TWIG	-999	3	[0, 0, 0]	n/a	FR1	0	R1414E
453.39	117.12	538907	REC_END	n/a	n/a	n/a	-999	3	[0, 0, 0]	n/a	FR1	0	R1414E
570.51	10.351	656026	COUNTDOWN_START	n/a	n/a	n/a	-999	4	[0, 0, 0]	n/a	FR1	0	R1414E
580.861	0.0	666387	COUNTDOWN_END	n/a	n/a	n/a	-999	4	[0, 0, 0]	n/a	FR1	0	R1414E
580.861	2.331	666387	ENCODING_START	n/a	n/a	n/a	-999	4	[0, 0, 0]	n/a	FR1	0	R1414E
583.192	1.618	668717	WORD	n/a	wordpools/wordpool_long_EN.txt	CAT	1	4	[0, 0, 0]	n/a	FR1	0	R1414E
584.81	0.816	670323	WORD_OFF	n/a	n/a	CAT	1	4	[0, 0, 0]	n/a	FR1	0	R1414E
585.626	1.617	671142	WORD	n/a	wordpools/wordpool_long_EN.txt	APE	2	4	[0, 0, 0]	n/a	FR1	0	R1414E
587.243	0.882	672764	WORD_OFF	n/a	n/a	APE	2	4	[0, 0, 0]	n/a	FR1	0	R1414E
588.125	1.601	673646	WORD	n/a	wordpools/wordpool_long_EN.txt	MAZE	3	4	[0, 0, 0]	n/a	FR1	0	R1414E
589.726	0.933	675252	WORD_OFF	n/a	n/a	MAZE	3	4	[0, 0, 0]	n/a	FR1	0	R1414E
590.659	1.617	676181	WORD	n/a	wordpools/wordpool_long_EN.txt	ROOT	4	4	[0, 0, 0]	n/a	FR1	0	R1414E
592.276	0.983	677802	WORD_OFF	n/a	n/a	ROOT	4	4	[0, 0, 0]	n/a	FR1	0	R1414E
593.259	1.617	678779	WORD	n/a	wordpools/wordpool_long_EN.txt	CHEST	5	4	[0, 0, 0]	n/a	FR1	0	R1414E
594.876	0.883	680401	WORD_OFF	n/a	n/a	CHEST	5	4	[0, 0, 0]	n/a	FR1	0	R1414E
595.759	1.617	681282	WORD	n/a	wordpools/wordpool_long_EN.txt	BAND	6	4	[0, 0, 0]	n/a	FR1	0	R1414E
597.376	0.882	682904	WORD_OFF	n/a	n/a	BAND	6	4	[0, 0, 0]	n/a	FR1	0	R1414E
598.258	1.601	683786	WORD	n/a	wordpools/wordpool_long_EN.txt	MARSH	7	4	[0, 0, 0]	n/a	FR1	0	R1414E
599.859	0.767	685376	WORD_OFF	n/a	n/a	MARSH	7	4	[0, 0, 0]	n/a	FR1	0	R1414E
600.626	1.616	686148	WORD	n/a	wordpools/wordpool_long_EN.txt	STEAK	8	4	[0, 0, 0]	n/a	FR1	0	R1414E
602.242	0.817	687770	WORD_OFF	n/a	n/a	STEAK	8	4	[0, 0, 0]	n/a	FR1	0	R1414E
603.059	1.6	688573	WORD	n/a	wordpools/wordpool_long_EN.txt	POLE	9	4	[0, 0, 0]	n/a	FR1	0	R1414E
604.659	0.833	690179	WORD_OFF	n/a	n/a	POLE	9	4	[0, 0, 0]	n/a	FR1	0	R1414E
605.492	1.616	691013	WORD	n/a	wordpools/wordpool_long_EN.txt	JAIL	10	4	[0, 0, 0]	n/a	FR1	0	R1414E
607.108	0.9	692635	WORD_OFF	n/a	n/a	JAIL	10	4	[0, 0, 0]	n/a	FR1	0	R1414E
608.008	1.601	693533	WORD	n/a	wordpools/wordpool_long_EN.txt	RAFT	11	4	[0, 0, 0]	n/a	FR1	0	R1414E
609.609	0.916	695123	WORD_OFF	n/a	n/a	RAFT	11	4	[0, 0, 0]	n/a	FR1	0	R1414E
610.525	1.617	696052	WORD	n/a	wordpools/wordpool_long_EN.txt	SCOTCH	12	4	[0, 0, 0]	n/a	FR1	0	R1414E
612.142	0.001	697658	WORD_OFF	n/a	n/a	SCOTCH	12	4	[0, 0, 0]	n/a	FR1	0	R1414E
612.143	0.0	697658	ENCODING_END	n/a	n/a	n/a	-999	4	[0, 0, 0]	n/a	FR1	0	R1414E
612.143	0.001	697664	PROB	0.001	n/a	n/a	-999	4	[2, 2, 1]	5	FR1	0	R1414E
612.144	0.0	697665	START	n/a	n/a	n/a	-999	4	[-999, -999, -999]	n/a	FR1	0	R1414E
612.144	2.098	697674	DISTRACT_START	n/a	n/a	n/a	-999	4	[0, 0, 0]	n/a	FR1	0	R1414E
614.242	2.65	699763	PROB	2.65	n/a	n/a	-999	4	[8, 8, 4]	20	FR1	0	R1414E
616.892	4.084	702413	PROB	4.084	n/a	n/a	-999	4	[6, 6, 4]	16	FR1	0	R1414E
620.976	2.432	706497	PROB	2.432	n/a	n/a	-999	4	[1, 6, 6]	13	FR1	0	R1414E
623.408	2.17	708929	PROB	2.17	n/a	n/a	-999	4	[4, 5, 5]	14	FR1	0	R1414E
625.578	2.764	711099	PROB	2.764	n/a	n/a	-999	4	[6, 5, 5]	16	FR1	0	R1414E
628.342	4.116	713863	PROB	4.116	n/a	n/a	-999	4	[6, 4, 7]	17	FR1	0	R1414E
632.458	0.0	717979	STOP	n/a	n/a	n/a	-999	4	[-999, -999, -999]	n/a	FR1	0	R1414E
632.458	2.083	717986	DISTRACT_END	n/a	n/a	n/a	-999	4	[0, 0, 0]	n/a	FR1	0	R1414E
634.541	0.025	720057	REC_START	n/a	n/a	n/a	-999	4	[0, 0, 0]	n/a	FR1	0	R1414E
634.566	0.654	720087	REC_WORD	0.654	n/a	CAT	1	4	[0, 0, 0]	n/a	FR1	0	R1414E
635.22	0.389	720741	REC_WORD	0.389	n/a	APE	2	4	[0, 0, 0]	n/a	FR1	0	R1414E
635.609	1.161	721130	REC_WORD	1.161	n/a	SCOTCH	12	4	[0, 0, 0]	n/a	FR1	0	R1414E
636.77	3.945	722291	REC_WORD	3.945	n/a	MAZE	3	4	[0, 0, 0]	n/a	FR1	0	R1414E
640.715	7.299	726236	REC_WORD	7.299	n/a	CHEST	5	4	[0, 0, 0]	n/a	FR1	0	R1414E
648.014	7.684	733535	REC_WORD_VV	7.684	n/a	<>	-999	4	[0, 0, 0]	n/a	FR1	0	R1414E
655.698	9.112	741219	REC_WORD	9.112	n/a	BAND	6	4	[0, 0, 0]	n/a	FR1	0	R1414E
664.81	1.729	750329	REC_END	n/a	n/a	n/a	-999	4	[0, 0, 0]	n/a	FR1	0	R1414E
666.539	10.351	752061	COUNTDOWN_START	n/a	n/a	n/a	-999	5	[0, 0, 0]	n/a	FR1	0	R1414E
676.89	0.0	762406	COUNTDOWN_END	n/a	n/a	n/a	-999	5	[0, 0, 0]	n/a	FR1	0	R1414E
676.89	2.066	762406	ENCODING_START	n/a	n/a	n/a	-999	5	[0, 0, 0]	n/a	FR1	0	R1414E
678.956	1.617	764484	WORD	n/a	wordpools/wordpool_long_EN.txt	KITE	1	5	[0, 0, 0]	n/a	FR1	0	R1414E
680.573	0.949	766090	WORD_OFF	n/a	n/a	KITE	1	5	[0, 0, 0]	n/a	FR1	0	R1414E
681.522	1.6	767051	WORD	n/a	wordpools/wordpool_long_EN.txt	SMOG	2	5	[0, 0, 0]	n/a	FR1	0	R1414E
683.122	0.984	768641	WORD_OFF	n/a	n/a	SMOG	2	5	[0, 0, 0]	n/a	FR1	0	R1414E
684.106	1.6	769633	WORD	n/a	wordpools/wordpool_long_EN.txt	INN	3	5	[0, 0, 0]	n/a	FR1	0	R1414E
685.706	0.95	771224	WORD_OFF	n/a	n/a	INN	3	5	[0, 0, 0]	n/a	FR1	0	R1414E
686.656	1.616	772184	WORD	n/a	wordpools/wordpool_long_EN.txt	BENCH	4	5	[0, 0, 0]	n/a	FR1	0	R1414E
688.272	0.866	773790	WORD_OFF	n/a	n/a	BENCH	4	5	[0, 0, 0]	n/a	FR1	0	R1414E
689.138	1.601	774656	WORD	n/a	wordpools/wordpool_long_EN.txt	STORM	5	5	[0, 0, 0]	n/a	FR1	0	R1414E
690.739	0.95	776262	WORD_OFF	n/a	n/a	STORM	5	5	[0, 0, 0]	n/a	FR1	0	R1414E
691.689	1.6	777207	WORD	n/a	wordpools/wordpool_long_EN.txt	SHELL	6	5	[0, 0, 0]	n/a	FR1	0	R1414E
693.289	0.766	778813	WORD_OFF	n/a	n/a	SHELL	6	5	[0, 0, 0]	n/a	FR1	0	R1414E
694.055	1.601	779585	WORD	n/a	wordpools/wordpool_long_EN.txt	ARCH	7	5	[0, 0, 0]	n/a	FR1	0	R1414E
695.656	0.883	781175	WORD_OFF	n/a	n/a	ARCH	7	5	[0, 0, 0]	n/a	FR1	0	R1414E
696.539	1.615	782057	WORD	n/a	wordpools/wordpool_long_EN.txt	BARN	8	5	[0, 0, 0]	n/a	FR1	0	R1414E
698.154	0.868	783679	WORD_OFF	n/a	n/a	BARN	8	5	[0, 0, 0]	n/a	FR1	0	R1414E
699.022	1.617	784545	WORD	n/a	wordpools/wordpool_long_EN.txt	MASK	9	5	[0, 0, 0]	n/a	FR1	0	R1414E
700.639	0.783	786167	WORD_OFF	n/a	n/a	MASK	9	5	[0, 0, 0]	n/a	FR1	0	R1414E
701.422	1.6	786938	WORD	n/a	wordpools/wordpool_long_EN.txt	CUBE	10	5	[0, 0, 0]	n/a	FR1	0	R1414E
703.022	0.8	788544	WORD_OFF	n/a	n/a	CUBE	10	5	[0, 0, 0]	n/a	FR1	0	R1414E
703.822	1.6	789347	WORD	n/a	wordpools/wordpool_long_EN.txt	RUST	11	5	[0, 0, 0]	n/a	FR1	0	R1414E
705.422	0.817	790938	WORD_OFF	n/a	n/a	RUST	11	5	[0, 0, 0]	n/a	FR1	0	R1414E
706.239	1.617	791756	WORD	n/a	wordpools/wordpool_long_EN.txt	MAT	12	5	[0, 0, 0]	n/a	FR1	0	R1414E
707.856	0.0	793377	PROB	0.0	n/a	n/a	-999	5	[5, 1, 2]	8	FR1	0	R1414E
707.855	0.002	793378	WORD_OFF	n/a	n/a	MAT	12	5	[0, 0, 0]	n/a	FR1	0	R1414E
707.857	0.0	793378	ENCODING_END	n/a	n/a	n/a	-999	5	[0, 0, 0]	n/a	FR1	0	R1414E
707.857	0.0	793378	DISTRACT_START	n/a	n/a	n/a	-999	5	[0, 0, 0]	n/a	FR1	0	R1414E
707.857	6.199	793378	START	n/a	n/a	n/a	-999	5	[-999, -999, -999]	n/a	FR1	0	R1414E
714.056	2.583	799577	PROB	2.583	n/a	n/a	-999	5	[4, 6, 1]	11	FR1	0	R1414E
716.639	1.983	802160	PROB	1.983	n/a	n/a	-999	5	[5, 5, 1]	11	FR1	0	R1414E
718.622	3.433	804143	PROB	3.433	n/a	n/a	-999	5	[2, 8, 6]	16	FR1	0	R1414E
722.055	3.35	807576	PROB	3.35	n/a	n/a	-999	5	[7, 2, 1]	10	FR1	0	R1414E
725.405	2.5	810926	PROB	2.5	n/a	n/a	-999	5	[5, 1, 6]	12	FR1	0	R1414E
727.905	0.0	813423	DISTRACT_END	n/a	n/a	n/a	-999	5	[0, 0, 0]	n/a	FR1	0	R1414E
727.905	2.382	813426	STOP	n/a	n/a	n/a	-999	5	[-999, -999, -999]	n/a	FR1	0	R1414E
730.287	6.107	815809	REC_START	n/a	n/a	n/a	-999	5	[0, 0, 0]	n/a	FR1	0	R1414E
736.394	5.204	821915	REC_WORD	5.204	n/a	MAZE	-999	5	[0, 0, 0]	n/a	FR1	0	R1414E
741.598	1.104	827119	REC_WORD	1.104	n/a	MASK	9	5	[0, 0, 0]	n/a	FR1	0	R1414E
742.702	2.309	828223	REC_WORD	2.309	n/a	BARN	8	5	[0, 0, 0]	n/a	FR1	0	R1414E
745.011	5.608	830532	REC_WORD	5.608	n/a	ARCH	7	5	[0, 0, 0]	n/a	FR1	0	R1414E
750.619	0.363	836140	REC_WORD_VV	0.363	n/a	<>	-999	5	[0, 0, 0]	n/a	FR1	0	R1414E
750.982	1.0	836503	REC_WORD	1.0	n/a	STORM	5	5	[0, 0, 0]	n/a	FR1	0	R1414E
751.982	8.572	837503	REC_WORD_VV	8.572	n/a	<>	-999	5	[0, 0, 0]	n/a	FR1	0	R1414E
760.554	1.883	846080	REC_END	n/a	n/a	n/a	-999	5	[0, 0, 0]	n/a	FR1	0	R1414E
762.437	10.35	847954	COUNTDOWN_START	n/a	n/a	n/a	-999	6	[0, 0, 0]	n/a	FR1	0	R1414E
772.787	0.0	858315	COUNTDOWN_END	n/a	n/a	n/a	-999	6	[0, 0, 0]	n/a	FR1	0	R1414E
772.787	1.949	858315	ENCODING_START	n/a	n/a	n/a	-999	6	[0, 0, 0]	n/a	FR1	0	R1414E
774.736	1.616	860252	WORD	n/a	wordpools/wordpool_long_EN.txt	HEART	1	6	[0, 0, 0]	n/a	FR1	0	R1414E
776.352	0.834	861873	WORD_OFF	n/a	n/a	HEART	1	6	[0, 0, 0]	n/a	FR1	0	R1414E
777.186	1.616	862708	WORD	n/a	wordpools/wordpool_long_EN.txt	GLOBE	2	6	[0, 0, 0]	n/a	FR1	0	R1414E
778.802	1.0	864330	WORD_OFF	n/a	n/a	GLOBE	2	6	[0, 0, 0]	n/a	FR1	0	R1414E
779.802	1.617	865322	WORD	n/a	wordpools/wordpool_long_EN.txt	SEAL	3	6	[0, 0, 0]	n/a	FR1	0	R1414E
781.419	1.0	866944	WORD_OFF	n/a	n/a	SEAL	3	6	[0, 0, 0]	n/a	FR1	0	R1414E
782.419	1.6	867936	WORD	n/a	wordpools/wordpool_long_EN.txt	CHEEK	4	6	[0, 0, 0]	n/a	FR1	0	R1414E
784.019	0.934	869542	WORD_OFF	n/a	n/a	CHEEK	4	6	[0, 0, 0]	n/a	FR1	0	R1414E
784.953	1.616	870471	WORD	n/a	wordpools/wordpool_long_EN.txt	HOSE	5	6	[0, 0, 0]	n/a	FR1	0	R1414E
786.569	0.782	872093	WORD_OFF	n/a	n/a	HOSE	5	6	[0, 0, 0]	n/a	FR1	0	R1414E
787.351	1.602	872880	WORD	n/a	wordpools/wordpool_long_EN.txt	INK	6	6	[0, 0, 0]	n/a	FR1	0	R1414E
788.953	0.849	874470	WORD_OFF	n/a	n/a	INK	6	6	[0, 0, 0]	n/a	FR1	0	R1414E
789.802	1.6	875321	WORD	n/a	wordpools/wordpool_long_EN.txt	SUN	7	6	[0, 0, 0]	n/a	FR1	0	R1414E
791.402	0.95	876927	WORD_OFF	n/a	n/a	SUN	7	6	[0, 0, 0]	n/a	FR1	0	R1414E
792.352	1.616	877871	WORD	n/a	wordpools/wordpool_long_EN.txt	PET	8	6	[0, 0, 0]	n/a	FR1	0	R1414E
793.968	0.951	879493	WORD_OFF	n/a	n/a	PET	8	6	[0, 0, 0]	n/a	FR1	0	R1414E
794.919	1.6	880438	WORD	n/a	wordpools/wordpool_long_EN.txt	BROOM	9	6	[0, 0, 0]	n/a	FR1	0	R1414E
796.519	0.916	882044	WORD_OFF	n/a	n/a	BROOM	9	6	[0, 0, 0]	n/a	FR1	0	R1414E
797.435	1.601	882957	WORD	n/a	wordpools/wordpool_long_EN.txt	GOAL	10	6	[0, 0, 0]	n/a	FR1	0	R1414E
799.036	0.933	884563	WORD_OFF	n/a	n/a	GOAL	10	6	[0, 0, 0]	n/a	FR1	0	R1414E
799.969	1.616	885492	WORD	n/a	wordpools/wordpool_long_EN.txt	HOOK	11	6	[0, 0, 0]	n/a	FR1	0	R1414E
801.585	0.933	887114	WORD_OFF	n/a	n/a	HOOK	11	6	[0, 0, 0]	n/a	FR1	0	R1414E
802.518	1.601	888043	WORD	n/a	wordpools/wordpool_long_EN.txt	CRIB	12	6	[0, 0, 0]	n/a	FR1	0	R1414E
804.119	0.0	889634	WORD_OFF	n/a	n/a	CRIB	12	6	[0, 0, 0]	n/a	FR1	0	R1414E
804.119	0.001	889640	PROB	0.001	n/a	n/a	-999	6	[7, 5, 2]	14	FR1	0	R1414E
804.12	0.0	889641	START	n/a	n/a	n/a	-999	6	[-999, -999, -999]	n/a	FR1	0	R1414E
804.12	0.0	889649	ENCODING_END	n/a	n/a	n/a	-999	6	[0, 0, 0]	n/a	FR1	0	R1414E
804.12	3.55	889649	DISTRACT_START	n/a	n/a	n/a	-999	6	[0, 0, 0]	n/a	FR1	0	R1414E
807.67	4.266	893191	PROB	4.266	n/a	n/a	-999	6	[4, 5, 7]	16	FR1	0	R1414E
811.936	2.782	897457	PROB	2.782	n/a	n/a	-999	6	[7, 5, 3]	15	FR1	0	R1414E
814.718	2.75	900239	PROB	2.75	n/a	n/a	-999	6	[1, 1, 8]	10	FR1	0	R1414E
817.468	2.9	902989	PROB	2.9	n/a	n/a	-999	6	[7, 7, 4]	18	FR1	0	R1414E
820.368	3.169	905889	PROB	3.169	n/a	n/a	-999	6	[5, 6, 2]	13	FR1	0	R1414E
823.537	3.531	909058	PROB	3.531	n/a	n/a	-999	6	[2, 5, 4]	11	FR1	0	R1414E
827.068	0.0	912589	STOP	n/a	n/a	n/a	-999	6	[-999, -999, -999]	n/a	FR1	0	R1414E
827.068	2.066	912591	DISTRACT_END	n/a	n/a	n/a	-999	6	[0, 0, 0]	n/a	FR1	0	R1414E
829.134	0.041	914662	REC_START	n/a	n/a	n/a	-999	6	[0, 0, 0]	n/a	FR1	0	R1414E
829.175	0.513	914696	REC_WORD	0.513	n/a	HEART	1	6	[0, 0, 0]	n/a	FR1	0	R1414E
829.688	0.555	915209	REC_WORD	0.555	n/a	GLOBE	2	6	[0, 0, 0]	n/a	FR1	0	R1414E
830.243	0.696	915764	REC_WORD	0.696	n/a	SUN	7	6	[0, 0, 0]	n/a	FR1	0	R1414E
830.939	0.918	916460	REC_WORD	0.918	n/a	CHEEK	4	6	[0, 0, 0]	n/a	FR1	0	R1414E
831.857	6.425	917378	REC_WORD	6.425	n/a	CRIB	12	6	[0, 0, 0]	n/a	FR1	0	R1414E
838.282	1.0	923803	REC_WORD	1.0	n/a	SKY	-999	6	[0, 0, 0]	n/a	FR1	0	R1414E
839.282	20.122	924803	REC_WORD_VV	20.122	n/a	<>	-999	6	[0, 0, 0]	n/a	FR1	0	R1414E
859.404	3.212	944934	REC_END	n/a	n/a	n/a	-999	6	[0, 0, 0]	n/a	FR1	0	R1414E
862.616	10.35	948146	COUNTDOWN_START	n/a	n/a	n/a	-999	7	[0, 0, 0]	n/a	FR1	0	R1414E
872.966	0.0	958491	COUNTDOWN_END	n/a	n/a	n/a	-999	7	[0, 0, 0]	n/a	FR1	0	R1414E
872.966	1.866	958491	ENCODING_START	n/a	n/a	n/a	-999	7	[0, 0, 0]	n/a	FR1	0	R1414E
874.832	1.6	960349	WORD	n/a	wordpools/wordpool_long_EN.txt	BOMB	1	7	[0, 0, 0]	n/a	FR1	0	R1414E
876.432	0.8	961955	WORD_OFF	n/a	n/a	BOMB	1	7	[0, 0, 0]	n/a	FR1	0	R1414E
877.232	1.6	962758	WORD	n/a	wordpools/wordpool_long_EN.txt	SOAP	2	7	[0, 0, 0]	n/a	FR1	0	R1414E
878.832	0.8	964348	WORD_OFF	n/a	n/a	SOAP	2	7	[0, 0, 0]	n/a	FR1	0	R1414E
879.632	1.6	965152	WORD	n/a	wordpools/wordpool_long_EN.txt	MOP	3	7	[0, 0, 0]	n/a	FR1	0	R1414E
881.232	0.934	966758	WORD_OFF	n/a	n/a	MOP	3	7	[0, 0, 0]	n/a	FR1	0	R1414E
882.166	1.616	967687	WORD	n/a	wordpools/wordpool_long_EN.txt	GLOVE	4	7	[0, 0, 0]	n/a	FR1	0	R1414E
883.782	0.784	969308	WORD_OFF	n/a	n/a	GLOVE	4	7	[0, 0, 0]	n/a	FR1	0	R1414E
884.566	1.6	970080	WORD	n/a	wordpools/wordpool_long_EN.txt	TIE	5	7	[0, 0, 0]	n/a	FR1	0	R1414E
886.166	0.849	971686	WORD_OFF	n/a	n/a	TIE	5	7	[0, 0, 0]	n/a	FR1	0	R1414E
887.015	1.6	972536	WORD	n/a	wordpools/wordpool_long_EN.txt	SPOUSE	6	7	[0, 0, 0]	n/a	FR1	0	R1414E
888.615	1.0	974142	WORD_OFF	n/a	n/a	SPOUSE	6	7	[0, 0, 0]	n/a	FR1	0	R1414E
889.615	1.6	975134	WORD	n/a	wordpools/wordpool_long_EN.txt	WOLF	7	7	[0, 0, 0]	n/a	FR1	0	R1414E
891.215	0.817	976741	WORD_OFF	n/a	n/a	WOLF	7	7	[0, 0, 0]	n/a	FR1	0	R1414E
892.032	1.617	977559	WORD	n/a	wordpools/wordpool_long_EN.txt	VAULT	8	7	[0, 0, 0]	n/a	FR1	0	R1414E
893.649	1.0	979165	WORD_OFF	n/a	n/a	VAULT	8	7	[0, 0, 0]	n/a	FR1	0	R1414E
894.649	1.6	980173	WORD	n/a	wordpools/wordpool_long_EN.txt	GROUND	9	7	[0, 0, 0]	n/a	FR1	0	R1414E
896.249	0.966	981764	WORD_OFF	n/a	n/a	GROUND	9	7	[0, 0, 0]	n/a	FR1	0	R1414E
897.215	1.601	982740	WORD	n/a	wordpools/wordpool_long_EN.txt	BEAK	10	7	[0, 0, 0]	n/a	FR1	0	R1414E
898.816	0.833	984330	WORD_OFF	n/a	n/a	BEAK	10	7	[0, 0, 0]	n/a	FR1	0	R1414E
899.649	1.616	985165	WORD	n/a	wordpools/wordpool_long_EN.txt	TOY	11	7	[0, 0, 0]	n/a	FR1	0	R1414E
901.265	0.967	986787	WORD_OFF	n/a	n/a	TOY	11	7	[0, 0, 0]	n/a	FR1	0	R1414E
902.232	1.6	987747	WORD	n/a	wordpools/wordpool_long_EN.txt	CRANE	12	7	[0, 0, 0]	n/a	FR1	0	R1414E
903.832	0.001	989353	WORD_OFF	n/a	n/a	CRANE	12	7	[0, 0, 0]	n/a	FR1	0	R1414E
903.833	0.0	989353	ENCODING_END	n/a	n/a	n/a	-999	7	[0, 0, 0]	n/a	FR1	0	R1414E
903.833	0.0	989353	DISTRACT_START	n/a	n/a	n/a	-999	7	[0, 0, 0]	n/a	FR1	0	R1414E
903.833	0.0	989354	START	n/a	n/a	n/a	-999	7	[-999, -999, -999]	n/a	FR1	0	R1414E
903.833	2.833	989354	PROB	2.833	n/a	n/a	-999	7	[3, 8, 2]	13	FR1	0	R1414E
906.666	3.733	992187	PROB	3.733	n/a	n/a	-999	7	[6, 7, 1]	14	FR1	0	R1414E
910.399	4.233	995920	PROB	4.233	n/a	n/a	-999	7	[8, 6, 4]	18	FR1	0	R1414E
914.632	4.5	1000153	PROB	4.5	n/a	n/a	-999	7	[2, 6, 7]	15	FR1	0	R1414E
919.132	2.25	1004653	PROB	2.25	n/a	n/a	-999	7	[4, 1, 3]	8	FR1	0	R1414E
921.382	3.149	1006903	PROB	3.149	n/a	n/a	-999	7	[3, 3, 7]	13	FR1	0	R1414E
924.531	0.0	1010052	STOP	n/a	n/a	n/a	-999	7	[-999, -999, -999]	n/a	FR1	0	R1414E
924.531	2.017	1010059	DISTRACT_END	n/a	n/a	n/a	-999	7	[0, 0, 0]	n/a	FR1	0	R1414E
926.548	3.484	1012067	REC_START	n/a	n/a	n/a	-999	7	[0, 0, 0]	n/a	FR1	0	R1414E
930.032	4.601	1015553	REC_WORD	4.601	n/a	PET	-999	7	[0, 0, 0]	n/a	FR1	0	R1414E
934.633	0.532	1020154	REC_WORD	0.532	n/a	BROOM	-999	7	[0, 0, 0]	n/a	FR1	0	R1414E
935.165	14.108	1020686	REC_WORD	14.108	n/a	MOP	3	7	[0, 0, 0]	n/a	FR1	0	R1414E
949.273	1.448	1034793	REC_WORD	1.448	n/a	GLOVE	4	7	[0, 0, 0]	n/a	FR1	0	R1414E
950.721	6.101	1036241	REC_WORD	6.101	n/a	TIE	5	7	[0, 0, 0]	n/a	FR1	0	R1414E
956.822	40.973	1042338	REC_END	n/a	n/a	n/a	-999	7	[0, 0, 0]	n/a	FR1	0	R1414E
997.795	10.351	1083325	COUNTDOWN_START	n/a	n/a	n/a	-999	8	[0, 0, 0]	n/a	FR1	0	R1414E
1008.146	0.0	1093670	COUNTDOWN_END	n/a	n/a	n/a	-999	8	[0, 0, 0]	n/a	FR1	0	R1414E
1008.146	1.932	1093670	ENCODING_START	n/a	n/a	n/a	-999	8	[0, 0, 0]	n/a	FR1	0	R1414E
1010.078	1.6	1095607	WORD	n/a	wordpools/wordpool_long_EN.txt	FORT	1	8	[0, 0, 0]	n/a	FR1	0	R1414E
1011.678	0.949	1097198	WORD_OFF	n/a	n/a	FORT	1	8	[0, 0, 0]	n/a	FR1	0	R1414E
1012.627	1.601	1098142	WORD	n/a	wordpools/wordpool_long_EN.txt	GRASS	2	8	[0, 0, 0]	n/a	FR1	0	R1414E
1014.228	0.886	1099748	WORD_OFF	n/a	n/a	GRASS	2	8	[0, 0, 0]	n/a	FR1	0	R1414E
1015.114	1.614	1100630	WORD	n/a	wordpools/wordpool_long_EN.txt	SPRING	3	8	[0, 0, 0]	n/a	FR1	0	R1414E
1016.728	0.983	1102252	WORD_OFF	n/a	n/a	SPRING	3	8	[0, 0, 0]	n/a	FR1	0	R1414E
1017.711	1.6	1103228	WORD	n/a	wordpools/wordpool_long_EN.txt	CASH	4	8	[0, 0, 0]	n/a	FR1	0	R1414E
1019.311	0.767	1104834	WORD_OFF	n/a	n/a	CASH	4	8	[0, 0, 0]	n/a	FR1	0	R1414E
1020.078	1.616	1105606	WORD	n/a	wordpools/wordpool_long_EN.txt	STRAW	5	8	[0, 0, 0]	n/a	FR1	0	R1414E
1021.694	0.851	1107212	WORD_OFF	n/a	n/a	STRAW	5	8	[0, 0, 0]	n/a	FR1	0	R1414E
1022.545	1.616	1108062	WORD	n/a	wordpools/wordpool_long_EN.txt	SLEEVE	6	8	[0, 0, 0]	n/a	FR1	0	R1414E
1024.161	0.866	1109684	WORD_OFF	n/a	n/a	SLEEVE	6	8	[0, 0, 0]	n/a	FR1	0	R1414E
1025.027	1.601	1110550	WORD	n/a	wordpools/wordpool_long_EN.txt	CROWN	7	8	[0, 0, 0]	n/a	FR1	0	R1414E
1026.628	0.816	1112156	WORD_OFF	n/a	n/a	CROWN	7	8	[0, 0, 0]	n/a	FR1	0	R1414E
1027.444	1.6	1112959	WORD	n/a	wordpools/wordpool_long_EN.txt	FILM	8	8	[0, 0, 0]	n/a	FR1	0	R1414E
1029.044	0.833	1114565	WORD_OFF	n/a	n/a	FILM	8	8	[0, 0, 0]	n/a	FR1	0	R1414E
1029.877	1.6	1115400	WORD	n/a	wordpools/wordpool_long_EN.txt	SHARK	9	8	[0, 0, 0]	n/a	FR1	0	R1414E
1031.477	0.966	1117006	WORD_OFF	n/a	n/a	SHARK	9	8	[0, 0, 0]	n/a	FR1	0	R1414E
1032.443	1.601	1117967	WORD	n/a	wordpools/wordpool_long_EN.txt	TREE	10	8	[0, 0, 0]	n/a	FR1	0	R1414E
1034.044	0.933	1119573	WORD_OFF	n/a	n/a	TREE	10	8	[0, 0, 0]	n/a	FR1	0	R1414E
1034.977	1.6	1120502	WORD	n/a	wordpools/wordpool_long_EN.txt	OAR	11	8	[0, 0, 0]	n/a	FR1	0	R1414E
1036.577	1.0	1122092	WORD_OFF	n/a	n/a	OAR	11	8	[0, 0, 0]	n/a	FR1	0	R1414E
1037.577	1.617	1123100	WORD	n/a	wordpools/wordpool_long_EN.txt	CLIFF	12	8	[0, 0, 0]	n/a	FR1	0	R1414E
1039.194	0.0	1124714	PROB	0.0	n/a	n/a	-999	8	[6, 3, 4]	13	FR1	0	R1414E
1039.194	0.0	1124714	START	n/a	n/a	n/a	-999	8	[-999, -999, -999]	n/a	FR1	0	R1414E
1039.193	0.001	1124722	WORD_OFF	n/a	n/a	CLIFF	12	8	[0, 0, 0]	n/a	FR1	0	R1414E
1039.194	0.0	1124722	ENCODING_END	n/a	n/a	n/a	-999	8	[0, 0, 0]	n/a	FR1	0	R1414E
1039.194	4.65	1124722	DISTRACT_START	n/a	n/a	n/a	-999	8	[0, 0, 0]	n/a	FR1	0	R1414E
1043.844	2.35	1129364	PROB	2.35	n/a	n/a	-999	8	[8, 3, 1]	12	FR1	0	R1414E
1046.194	2.8	1131714	PROB	2.8	n/a	n/a	-999	8	[3, 4, 7]	14	FR1	0	R1414E
1048.994	4.233	1134514	PROB	4.233	n/a	n/a	-999	8	[4, 8, 7]	19	FR1	0	R1414E
1053.227	2.583	1138747	PROB	2.583	n/a	n/a	-999	8	[5, 8, 4]	17	FR1	0	R1414E
1055.81	5.549	1141330	PROB	5.549	n/a	n/a	-999	8	[6, 4, 5]	15	FR1	0	R1414E
1061.359	0.0	1146876	DISTRACT_END	n/a	n/a	n/a	-999	8	[0, 0, 0]	n/a	FR1	0	R1414E
1061.359	2.383	1146879	STOP	n/a	n/a	n/a	-999	8	[-999, -999, -999]	n/a	FR1	0	R1414E
1063.742	0.903	1149262	REC_START	n/a	n/a	n/a	-999	8	[0, 0, 0]	n/a	FR1	0	R1414E
1064.645	0.762	1150165	REC_WORD	0.762	n/a	FORT	1	8	[0, 0, 0]	n/a	FR1	0	R1414E
1065.407	0.663	1150927	REC_WORD	0.663	n/a	GRASS	2	8	[0, 0, 0]	n/a	FR1	0	R1414E
1066.07	1.272	1151590	REC_WORD	1.272	n/a	SPRING	3	8	[0, 0, 0]	n/a	FR1	0	R1414E
1067.342	3.647	1152862	REC_WORD	3.647	n/a	ROCK	-999	8	[0, 0, 0]	n/a	FR1	0	R1414E
1070.989	1.656	1156509	REC_WORD	1.656	n/a	TREE	10	8	[0, 0, 0]	n/a	FR1	0	R1414E
1072.645	0.515	1158165	REC_WORD	0.515	n/a	OAR	11	8	[0, 0, 0]	n/a	FR1	0	R1414E
1073.16	6.308	1158680	REC_WORD	6.308	n/a	CLIFF	12	8	[0, 0, 0]	n/a	FR1	0	R1414E
1079.468	1.2	1164988	REC_WORD	1.2	n/a	SLEEVE	6	8	[0, 0, 0]	n/a	FR1	0	R1414E
1080.668	5.534	1166188	REC_WORD	5.534	n/a	SHIRT	-999	8	[0, 0, 0]	n/a	FR1	0	R1414E
1086.202	7.779	1171722	REC_WORD_VV	7.779	n/a	<>	-999	8	[0, 0, 0]	n/a	FR1	0	R1414E
1093.981	2.394	1179502	REC_END	n/a	n/a	n/a	-999	8	[0, 0, 0]	n/a	FR1	0	R1414E
1096.375	10.351	1181895	COUNTDOWN_START	n/a	n/a	n/a	-999	9	[0, 0, 0]	n/a	FR1	0	R1414E
1106.726	0.0	1192241	COUNTDOWN_END	n/a	n/a	n/a	-999	9	[0, 0, 0]	n/a	FR1	0	R1414E
1106.726	2.134	1192256	ENCODING_START	n/a	n/a	n/a	-999	9	[0, 0, 0]	n/a	FR1	0	R1414E
1108.86	1.598	1194382	WORD	n/a	wordpools/wordpool_long_EN.txt	WEED	1	9	[0, 0, 0]	n/a	FR1	0	R1414E
1110.458	0.85	1195972	WORD_OFF	n/a	n/a	WEED	1	9	[0, 0, 0]	n/a	FR1	0	R1414E
1111.308	1.617	1196823	WORD	n/a	wordpools/wordpool_long_EN.txt	SNAIL	2	9	[0, 0, 0]	n/a	FR1	0	R1414E
1112.925	0.915	1198445	WORD_OFF	n/a	n/a	SNAIL	2	9	[0, 0, 0]	n/a	FR1	0	R1414E
1113.84	1.601	1199358	WORD	n/a	wordpools/wordpool_long_EN.txt	GUARD	3	9	[0, 0, 0]	n/a	FR1	0	R1414E
1115.441	0.917	1200964	WORD_OFF	n/a	n/a	GUARD	3	9	[0, 0, 0]	n/a	FR1	0	R1414E
1116.358	1.6	1201877	WORD	n/a	wordpools/wordpool_long_EN.txt	CORD	4	9	[0, 0, 0]	n/a	FR1	0	R1414E
1117.958	0.902	1203483	WORD_OFF	n/a	n/a	CORD	4	9	[0, 0, 0]	n/a	FR1	0	R1414E
1118.86	1.614	1204381	WORD	n/a	wordpools/wordpool_long_EN.txt	TENT	5	9	[0, 0, 0]	n/a	FR1	0	R1414E
1120.474	0.95	1206003	WORD_OFF	n/a	n/a	TENT	5	9	[0, 0, 0]	n/a	FR1	0	R1414E
1121.424	1.6	1206947	WORD	n/a	wordpools/wordpool_long_EN.txt	GEESE	6	9	[0, 0, 0]	n/a	FR1	0	R1414E
1123.024	0.884	1208553	WORD_OFF	n/a	n/a	GEESE	6	9	[0, 0, 0]	n/a	FR1	0	R1414E
1123.908	1.6	1209435	WORD	n/a	wordpools/wordpool_long_EN.txt	BADGE	7	9	[0, 0, 0]	n/a	FR1	0	R1414E
1125.508	0.899	1211026	WORD_OFF	n/a	n/a	BADGE	7	9	[0, 0, 0]	n/a	FR1	0	R1414E
1126.407	1.617	1211923	WORD	n/a	wordpools/wordpool_long_EN.txt	QUAIL	8	9	[0, 0, 0]	n/a	FR1	0	R1414E
1128.024	0.836	1213545	WORD_OFF	n/a	n/a	QUAIL	8	9	[0, 0, 0]	n/a	FR1	0	R1414E
1128.86	1.613	1214379	WORD	n/a	wordpools/wordpool_long_EN.txt	NAIL	9	9	[0, 0, 0]	n/a	FR1	0	R1414E
1130.473	0.9	1216001	WORD_OFF	n/a	n/a	NAIL	9	9	[0, 0, 0]	n/a	FR1	0	R1414E
1131.373	1.617	1216899	WORD	n/a	wordpools/wordpool_long_EN.txt	HOUSE	10	9	[0, 0, 0]	n/a	FR1	0	R1414E
1132.99	0.934	1218505	WORD_OFF	n/a	n/a	HOUSE	10	9	[0, 0, 0]	n/a	FR1	0	R1414E
1133.924	1.617	1219450	WORD	n/a	wordpools/wordpool_long_EN.txt	ROAD	11	9	[0, 0, 0]	n/a	FR1	0	R1414E
1135.541	0.799	1221056	WORD_OFF	n/a	n/a	ROAD	11	9	[0, 0, 0]	n/a	FR1	0	R1414E
1136.34	1.601	1221859	WORD	n/a	wordpools/wordpool_long_EN.txt	PLANT	12	9	[0, 0, 0]	n/a	FR1	0	R1414E
1137.941	0.001	1223461	PROB	0.001	n/a	n/a	-999	9	[7, 3, 4]	14	FR1	0	R1414E
1137.942	0.0	1223462	START	n/a	n/a	n/a	-999	9	[-999, -999, -999]	n/a	FR1	0	R1414E
1137.94	0.002	1223465	WORD_OFF	n/a	n/a	PLANT	12	9	[0, 0, 0]	n/a	FR1	0	R1414E
1137.942	0.0	1223465	ENCODING_END	n/a	n/a	n/a	-999	9	[0, 0, 0]	n/a	FR1	0	R1414E
1137.942	2.548	1223465	DISTRACT_START	n/a	n/a	n/a	-999	9	[0, 0, 0]	n/a	FR1	0	R1414E
1140.49	2.618	1226010	PROB	2.618	n/a	n/a	-999	9	[8, 5, 7]	20	FR1	0	R1414E
1143.108	2.703	1228628	PROB	2.703	n/a	n/a	-999	9	[8, 2, 4]	14	FR1	0	R1414E
1145.811	2.063	1231331	PROB	2.063	n/a	n/a	-999	9	[5, 2, 2]	9	FR1	0	R1414E
1147.874	2.783	1233394	PROB	2.783	n/a	n/a	-999	9	[5, 7, 3]	15	FR1	0	R1414E
1150.657	5.1	1236177	PROB	5.1	n/a	n/a	-999	9	[7, 7, 4]	15	FR1	0	R1414E
1155.757	5.016	1241277	PROB	5.016	n/a	n/a	-999	9	[4, 7, 2]	13	FR1	0	R1414E
1160.773	0.0	1246293	STOP	n/a	n/a	n/a	-999	9	[-999, -999, -999]	n/a	FR1	0	R1414E
1160.773	2.283	1246297	DISTRACT_END	n/a	n/a	n/a	-999	9	[0, 0, 0]	n/a	FR1	0	R1414E
1163.056	1.116	1248572	REC_START	n/a	n/a	n/a	-999	9	[0, 0, 0]	n/a	FR1	0	R1414E
1164.172	6.879	1249692	REC_WORD	6.879	n/a	GUARD	3	9	[0, 0, 0]	n/a	FR1	0	R1414E
1171.051	0.347	1256571	REC_WORD	0.347	n/a	GUARD	3	9	[0, 0, 0]	n/a	FR1	0	R1414E
1171.398	0.725	1256918	REC_WORD	0.725	n/a	TREE	-999	9	[0, 0, 0]	n/a	FR1	0	R1414E
1172.123	0.671	1257643	REC_WORD	0.671	n/a	SNAIL	2	9	[0, 0, 0]	n/a	FR1	0	R1414E
1172.794	1.568	1258314	REC_WORD	1.568	n/a	QUAIL	8	9	[0, 0, 0]	n/a	FR1	0	R1414E
1174.362	1.517	1259882	REC_WORD_VV	1.517	n/a	<>	-999	9	[0, 0, 0]	n/a	FR1	0	R1414E
1175.879	3.264	1261399	REC_WORD	3.264	n/a	TRAIL	-999	9	[0, 0, 0]	n/a	FR1	0	R1414E
1179.143	8.175	1264663	REC_WORD	8.175	n/a	NAIL	9	9	[0, 0, 0]	n/a	FR1	0	R1414E
1187.318	0.727	1272838	REC_WORD	0.727	n/a	WEED	1	9	[0, 0, 0]	n/a	FR1	0	R1414E
1188.045	1.0	1273565	REC_WORD	1.0	n/a	GRASS	-999	9	[0, 0, 0]	n/a	FR1	0	R1414E
1189.045	4.257	1274565	REC_WORD_VV	4.257	n/a	<>	-999	9	[0, 0, 0]	n/a	FR1	0	R1414E
1193.302	6.62	1278828	REC_END	n/a	n/a	n/a	-999	9	[0, 0, 0]	n/a	FR1	0	R1414E
1199.922	0.334	1285441	COUNTDOWN_START	n/a	n/a	n/a	-999	10	[0, 0, 0]	n/a	FR1	0	R1414E
1200.256	0.0	1285772	COUNTDOWN_END	n/a	n/a	n/a	-999	10	[0, 0, 0]	n/a	FR1	0	R1414E
1200.256	2.349	1285772	ENCODING_START	n/a	n/a	n/a	-999	10	[0, 0, 0]	n/a	FR1	0	R1414E
1202.605	1.6	1288134	WORD	n/a	wordpools/wordpool_long_EN.txt	FLASK	1	10	[0, 0, 0]	n/a	FR1	0	R1414E
1204.205	0.783	1289724	WORD_OFF	n/a	n/a	FLASK	1	10	[0, 0, 0]	n/a	FR1	0	R1414E
1204.988	1.6	1290511	WORD	n/a	wordpools/wordpool_long_EN.txt	HOLE	2	10	[0, 0, 0]	n/a	FR1	0	R1414E
1206.588	0.867	1292102	WORD_OFF	n/a	n/a	HOLE	2	10	[0, 0, 0]	n/a	FR1	0	R1414E
1207.455	1.6	1292984	WORD	n/a	wordpools/wordpool_long_EN.txt	COIN	3	10	[0, 0, 0]	n/a	FR1	0	R1414E
1209.055	0.916	1294574	WORD_OFF	n/a	n/a	COIN	3	10	[0, 0, 0]	n/a	FR1	0	R1414E
1209.971	1.6	1295487	WORD	n/a	wordpools/wordpool_long_EN.txt	HOUND	4	10	[0, 0, 0]	n/a	FR1	0	R1414E
1211.571	0.867	1297093	WORD_OFF	n/a	n/a	HOUND	4	10	[0, 0, 0]	n/a	FR1	0	R1414E
1212.438	1.616	1297959	WORD	n/a	wordpools/wordpool_long_EN.txt	STAR	5	10	[0, 0, 0]	n/a	FR1	0	R1414E
1214.054	0.934	1299581	WORD_OFF	n/a	n/a	STAR	5	10	[0, 0, 0]	n/a	FR1	0	R1414E
1214.988	1.616	1300510	WORD	n/a	wordpools/wordpool_long_EN.txt	BOY	6	10	[0, 0, 0]	n/a	FR1	0	R1414E
1216.604	0.85	1302132	WORD_OFF	n/a	n/a	BOY	6	10	[0, 0, 0]	n/a	FR1	0	R1414E
1217.454	1.617	1302982	WORD	n/a	wordpools/wordpool_long_EN.txt	COD	7	10	[0, 0, 0]	n/a	FR1	0	R1414E
1219.071	0.85	1304588	WORD_OFF	n/a	n/a	COD	7	10	[0, 0, 0]	n/a	FR1	0	R1414E
1219.921	1.6	1305439	WORD	n/a	wordpools/wordpool_long_EN.txt	DART	8	10	[0, 0, 0]	n/a	FR1	0	R1414E
1221.521	1.0	1307045	WORD_OFF	n/a	n/a	DART	8	10	[0, 0, 0]	n/a	FR1	0	R1414E
1222.521	1.616	1308037	WORD	n/a	wordpools/wordpool_long_EN.txt	SUIT	9	10	[0, 0, 0]	n/a	FR1	0	R1414E
1224.137	0.917	1309659	WORD_OFF	n/a	n/a	SUIT	9	10	[0, 0, 0]	n/a	FR1	0	R1414E
1225.054	1.6	1310572	WORD	n/a	wordpools/wordpool_long_EN.txt	SHOE	10	10	[0, 0, 0]	n/a	FR1	0	R1414E
1226.654	0.866	1312178	WORD_OFF	n/a	n/a	SHOE	10	10	[0, 0, 0]	n/a	FR1	0	R1414E
1227.52	1.601	1313044	WORD	n/a	wordpools/wordpool_long_EN.txt	SLOPE	11	10	[0, 0, 0]	n/a	FR1	0	R1414E
1229.121	0.866	1314634	WORD_OFF	n/a	n/a	SLOPE	11	10	[0, 0, 0]	n/a	FR1	0	R1414E
1229.987	1.617	1315516	WORD	n/a	wordpools/wordpool_long_EN.txt	SPOOL	12	10	[0, 0, 0]	n/a	FR1	0	R1414E
1231.604	0.001	1317122	WORD_OFF	n/a	n/a	SPOOL	12	10	[0, 0, 0]	n/a	FR1	0	R1414E
1231.605	0.0	1317122	ENCODING_END	n/a	n/a	n/a	-999	10	[0, 0, 0]	n/a	FR1	0	R1414E
1231.605	0.0	1317125	START	n/a	n/a	n/a	-999	10	[-999, -999, -999]	n/a	FR1	0	R1414E
1231.605	0.0	1317125	PROB	0.0	n/a	n/a	-999	10	[5, 4, 4]	13	FR1	0	R1414E
1231.605	3.498	1317138	DISTRACT_START	n/a	n/a	n/a	-999	10	[0, 0, 0]	n/a	FR1	0	R1414E
1235.103	4.567	1320623	PROB	4.567	n/a	n/a	-999	10	[4, 8, 5]	17	FR1	0	R1414E
1239.67	2.75	1325190	PROB	2.75	n/a	n/a	-999	10	[7, 2, 4]	13	FR1	0	R1414E
1242.42	2.134	1327940	PROB	2.134	n/a	n/a	-999	10	[1, 1, 3]	5	FR1	0	R1414E
1244.554	2.632	1330074	PROB	2.632	n/a	n/a	-999	10	[2, 2, 4]	8	FR1	0	R1414E
1247.186	3.085	1332706	PROB	3.085	n/a	n/a	-999	10	[8, 2, 1]	11	FR1	0	R1414E
1250.271	4.249	1335791	PROB	4.249	n/a	n/a	-999	10	[1, 7, 8]	16	FR1	0	R1414E
1254.52	0.0	1340040	STOP	n/a	n/a	n/a	-999	10	[-999, -999, -999]	n/a	FR1	0	R1414E
1254.52	2.116	1340048	DISTRACT_END	n/a	n/a	n/a	-999	10	[0, 0, 0]	n/a	FR1	0	R1414E
1256.636	0.872	1342151	REC_START	n/a	n/a	n/a	-999	10	[0, 0, 0]	n/a	FR1	0	R1414E
1257.508	0.627	1343028	REC_WORD	0.627	n/a	SUIT	9	10	[0, 0, 0]	n/a	FR1	0	R1414E
1258.135	1.895	1343655	REC_WORD	1.895	n/a	SHOE	10	10	[0, 0, 0]	n/a	FR1	0	R1414E
1260.03	4.142	1345550	REC_WORD	4.142	n/a	TIE	-999	10	[0, 0, 0]	n/a	FR1	0	R1414E
1264.172	0.873	1349692	REC_WORD	0.873	n/a	HOUND	4	10	[0, 0, 0]	n/a	FR1	0	R1414E
1265.045	1.846	1350565	REC_WORD	1.846	n/a	STAR	5	10	[0, 0, 0]	n/a	FR1	0	R1414E
1266.891	8.787	1352411	REC_WORD	8.787	n/a	BOY	6	10	[0, 0, 0]	n/a	FR1	0	R1414E
1275.678	11.225	1361198	REC_WORD	11.225	n/a	FORT	-999	10	[0, 0, 0]	n/a	FR1	0	R1414E
1286.903	2.115	1372422	REC_END	n/a	n/a	n/a	-999	10	[0, 0, 0]	n/a	FR1	0	R1414E
1289.018	10.35	1374548	COUNTDOWN_START	n/a	n/a	n/a	-999	11	[0, 0, 0]	n/a	FR1	0	R1414E
1299.368	0.001	1384893	COUNTDOWN_END	n/a	n/a	n/a	-999	11	[0, 0, 0]	n/a	FR1	0	R1414E
1299.369	1.866	1384893	ENCODING_START	n/a	n/a	n/a	-999	11	[0, 0, 0]	n/a	FR1	0	R1414E
1301.235	1.616	1386751	WORD	n/a	wordpools/wordpool_long_EN.txt	DIME	1	11	[0, 0, 0]	n/a	FR1	0	R1414E
1302.851	0.884	1388373	WORD_OFF	n/a	n/a	DIME	1	11	[0, 0, 0]	n/a	FR1	0	R1414E
1303.735	1.616	1389255	WORD	n/a	wordpools/wordpool_long_EN.txt	CHURCH	2	11	[0, 0, 0]	n/a	FR1	0	R1414E
1305.351	0.883	1390877	WORD_OFF	n/a	n/a	CHURCH	2	11	[0, 0, 0]	n/a	FR1	0	R1414E
1306.234	1.6	1391758	WORD	n/a	wordpools/wordpool_long_EN.txt	BAR	3	11	[0, 0, 0]	n/a	FR1	0	R1414E
1307.834	0.967	1393349	WORD_OFF	n/a	n/a	BAR	3	11	[0, 0, 0]	n/a	FR1	0	R1414E
1308.801	1.6	1394325	WORD	n/a	wordpools/wordpool_long_EN.txt	BEAST	4	11	[0, 0, 0]	n/a	FR1	0	R1414E
1310.401	0.817	1395915	WORD_OFF	n/a	n/a	BEAST	4	11	[0, 0, 0]	n/a	FR1	0	R1414E
1311.218	1.616	1396734	WORD	n/a	wordpools/wordpool_long_EN.txt	DEER	5	11	[0, 0, 0]	n/a	FR1	0	R1414E
1312.834	0.767	1398356	WORD_OFF	n/a	n/a	DEER	5	11	[0, 0, 0]	n/a	FR1	0	R1414E
1313.601	1.616	1399127	WORD	n/a	wordpools/wordpool_long_EN.txt	MAIL	6	11	[0, 0, 0]	n/a	FR1	0	R1414E
1315.217	0.8	1400734	WORD_OFF	n/a	n/a	MAIL	6	11	[0, 0, 0]	n/a	FR1	0	R1414E
1316.017	1.6	1401537	WORD	n/a	wordpools/wordpool_long_EN.txt	POND	7	11	[0, 0, 0]	n/a	FR1	0	R1414E
1317.617	0.967	1403143	WORD_OFF	n/a	n/a	POND	7	11	[0, 0, 0]	n/a	FR1	0	R1414E
1318.584	1.6	1404103	WORD	n/a	wordpools/wordpool_long_EN.txt	CAGE	8	11	[0, 0, 0]	n/a	FR1	0	R1414E
1320.184	0.767	1405709	WORD_OFF	n/a	n/a	CAGE	8	11	[0, 0, 0]	n/a	FR1	0	R1414E
1320.951	1.6	1406465	WORD	n/a	wordpools/wordpool_long_EN.txt	STAIR	9	11	[0, 0, 0]	n/a	FR1	0	R1414E
1322.551	0.766	1408071	WORD_OFF	n/a	n/a	STAIR	9	11	[0, 0, 0]	n/a	FR1	0	R1414E
1323.317	1.6	1408843	WORD	n/a	wordpools/wordpool_long_EN.txt	WHEEL	10	11	[0, 0, 0]	n/a	FR1	0	R1414E
1324.917	0.95	1410433	WORD_OFF	n/a	n/a	WHEEL	10	11	[0, 0, 0]	n/a	FR1	0	R1414E
1325.867	1.617	1411394	WORD	n/a	wordpools/wordpool_long_EN.txt	BOOK	11	11	[0, 0, 0]	n/a	FR1	0	R1414E
1327.484	0.783	1413000	WORD_OFF	n/a	n/a	BOOK	11	11	[0, 0, 0]	n/a	FR1	0	R1414E
1328.267	1.618	1413787	WORD	n/a	wordpools/wordpool_long_EN.txt	KEY	12	11	[0, 0, 0]	n/a	FR1	0	R1414E
1329.885	0.0	1415405	START	n/a	n/a	n/a	-999	11	[-999, -999, -999]	n/a	FR1	0	R1414E
1329.885	0.0	1415405	PROB	0.0	n/a	n/a	-999	11	[1, 6, 5]	12	FR1	0	R1414E
1329.884	0.001	1415409	WORD_OFF	n/a	n/a	KEY	12	11	[0, 0, 0]	n/a	FR1	0	R1414E
1329.885	0.0	1415409	ENCODING_END	n/a	n/a	n/a	-999	11	[0, 0, 0]	n/a	FR1	0	R1414E
1329.885	2.7	1415409	DISTRACT_START	n/a	n/a	n/a	-999	11	[0, 0, 0]	n/a	FR1	0	R1414E
1332.585	2.565	1418105	PROB	2.565	n/a	n/a	-999	11	[3, 5, 4]	12	FR1	0	R1414E
1335.15	2.6	1420670	PROB	2.6	n/a	n/a	-999	11	[5, 4, 2]	11	FR1	0	R1414E
1337.75	2.416	1423270	PROB	2.416	n/a	n/a	-999	11	[3, 5, 7]	15	FR1	0	R1414E
1340.166	2.817	1425686	PROB	2.817	n/a	n/a	-999	11	[8, 1, 7]	16	FR1	0	R1414E
1342.983	4.268	1428503	PROB	4.268	n/a	n/a	-999	11	[3, 7, 7]	17	FR1	0	R1414E
1347.251	3.765	1432771	PROB	3.765	n/a	n/a	-999	11	[1, 7, 5]	13	FR1	0	R1414E
1351.016	0.0	1436536	STOP	n/a	n/a	n/a	-999	11	[-999, -999, -999]	n/a	FR1	0	R1414E
1351.016	2.067	1436540	DISTRACT_END	n/a	n/a	n/a	-999	11	[0, 0, 0]	n/a	FR1	0	R1414E
1353.083	1.999	1438611	REC_START	n/a	n/a	n/a	-999	11	[0, 0, 0]	n/a	FR1	0	R1414E
1355.082	2.843	1440602	REC_WORD	2.843	n/a	GROUND	-999	11	[0, 0, 0]	n/a	FR1	0	R1414E
1357.925	2.922	1443445	REC_WORD	2.922	n/a	SKI	-999	11	[0, 0, 0]	n/a	FR1	0	R1414E
1360.847	1.524	1446367	REC_WORD	1.524	n/a	SUIT	-999	11	[0, 0, 0]	n/a	FR1	0	R1414E
1362.371	2.752	1447891	REC_WORD	2.752	n/a	SHOE	-999	11	[0, 0, 0]	n/a	FR1	0	R1414E
1365.123	0.658	1450643	REC_WORD	0.658	n/a	DEER	5	11	[0, 0, 0]	n/a	FR1	0	R1414E
1365.781	3.854	1451301	REC_WORD	3.854	n/a	GAME	-999	11	[0, 0, 0]	n/a	FR1	0	R1414E
1369.635	13.695	1455155	REC_WORD	13.695	n/a	HUNT	-999	11	[0, 0, 0]	n/a	FR1	0	R1414E
1383.33	1.802	1468851	REC_END	n/a	n/a	n/a	-999	11	[0, 0, 0]	n/a	FR1	0	R1414E
1385.132	10.35	1470662	COUNTDOWN_START	n/a	n/a	n/a	-999	12	[0, 0, 0]	n/a	FR1	0	R1414E
1395.482	0.0	1481007	COUNTDOWN_END	n/a	n/a	n/a	-999	12	[0, 0, 0]	n/a	FR1	0	R1414E
1395.482	2.049	1481007	ENCODING_START	n/a	n/a	n/a	-999	12	[0, 0, 0]	n/a	FR1	0	R1414E
1397.531	1.616	1483054	WORD	n/a	wordpools/wordpool_long_EN.txt	PAIL	1	12	[0, 0, 0]	n/a	FR1	0	R1414E
1399.147	0.817	1484676	WORD_OFF	n/a	n/a	PAIL	1	12	[0, 0, 0]	n/a	FR1	0	R1414E
1399.964	1.617	1485479	WORD	n/a	wordpools/wordpool_long_EN.txt	TOAST	2	12	[0, 0, 0]	n/a	FR1	0	R1414E
1401.581	0.95	1487100	WORD_OFF	n/a	n/a	TOAST	2	12	[0, 0, 0]	n/a	FR1	0	R1414E
1402.531	1.617	1488045	WORD	n/a	wordpools/wordpool_long_EN.txt	CHALK	3	12	[0, 0, 0]	n/a	FR1	0	R1414E
1404.148	0.983	1489667	WORD_OFF	n/a	n/a	CHALK	3	12	[0, 0, 0]	n/a	FR1	0	R1414E
1405.131	1.617	1490659	WORD	n/a	wordpools/wordpool_long_EN.txt	GIRL	4	12	[0, 0, 0]	n/a	FR1	0	R1414E
1406.748	0.966	1492265	WORD_OFF	n/a	n/a	GIRL	4	12	[0, 0, 0]	n/a	FR1	0	R1414E
1407.714	1.617	1493241	WORD	n/a	wordpools/wordpool_long_EN.txt	STORE	5	12	[0, 0, 0]	n/a	FR1	0	R1414E
1409.331	0.883	1494848	WORD_OFF	n/a	n/a	STORE	5	12	[0, 0, 0]	n/a	FR1	0	R1414E
1410.214	1.6	1495729	WORD	n/a	wordpools/wordpool_long_EN.txt	STRING	6	12	[0, 0, 0]	n/a	FR1	0	R1414E
1411.814	0.9	1497335	WORD_OFF	n/a	n/a	STRING	6	12	[0, 0, 0]	n/a	FR1	0	R1414E
1412.714	1.6	1498233	WORD	n/a	wordpools/wordpool_long_EN.txt	SINK	7	12	[0, 0, 0]	n/a	FR1	0	R1414E
1414.314	0.917	1499839	WORD_OFF	n/a	n/a	SINK	7	12	[0, 0, 0]	n/a	FR1	0	R1414E
1415.231	1.6	1500752	WORD	n/a	wordpools/wordpool_long_EN.txt	BLUSH	8	12	[0, 0, 0]	n/a	FR1	0	R1414E
1416.831	0.916	1502358	WORD_OFF	n/a	n/a	BLUSH	8	12	[0, 0, 0]	n/a	FR1	0	R1414E
1417.747	1.616	1503272	WORD	n/a	wordpools/wordpool_long_EN.txt	BRICK	9	12	[0, 0, 0]	n/a	FR1	0	R1414E
1419.363	0.818	1504878	WORD_OFF	n/a	n/a	BRICK	9	12	[0, 0, 0]	n/a	FR1	0	R1414E
1420.181	1.6	1505696	WORD	n/a	wordpools/wordpool_long_EN.txt	SMILE	10	12	[0, 0, 0]	n/a	FR1	0	R1414E
1421.781	0.883	1507303	WORD_OFF	n/a	n/a	SMILE	10	12	[0, 0, 0]	n/a	FR1	0	R1414E
1422.664	1.616	1508184	WORD	n/a	wordpools/wordpool_long_EN.txt	PLAID	11	12	[0, 0, 0]	n/a	FR1	0	R1414E
1424.28	0.784	1509806	WORD_OFF	n/a	n/a	PLAID	11	12	[0, 0, 0]	n/a	FR1	0	R1414E
1425.064	1.616	1510578	WORD	n/a	wordpools/wordpool_long_EN.txt	JAR	12	12	[0, 0, 0]	n/a	FR1	0	R1414E
1426.68	0.002	1512200	WORD_OFF	n/a	n/a	JAR	12	12	[0, 0, 0]	n/a	FR1	0	R1414E
1426.682	0.0	1512200	ENCODING_END	n/a	n/a	n/a	-999	12	[0, 0, 0]	n/a	FR1	0	R1414E
1426.682	0.0	1512200	DISTRACT_START	n/a	n/a	n/a	-999	12	[0, 0, 0]	n/a	FR1	0	R1414E
1426.681	0.001	1512201	PROB	0.001	n/a	n/a	-999	12	[7, 5, 8]	20	FR1	0	R1414E
1426.682	3.915	1512202	START	n/a	n/a	n/a	-999	12	[-999, -999, -999]	n/a	FR1	0	R1414E
1430.597	2.917	1516117	PROB	2.917	n/a	n/a	-999	12	[4, 3, 6]	13	FR1	0	R1414E
1433.514	2.583	1519034	PROB	2.583	n/a	n/a	-999	12	[1, 6, 5]	12	FR1	0	R1414E
1436.097	2.45	1521617	PROB	2.45	n/a	n/a	-999	12	[7, 5, 3]	15	FR1	0	R1414E
1438.547	2.75	1524067	PROB	2.75	n/a	n/a	-999	12	[6, 2, 2]	10	FR1	0	R1414E
1441.297	4.383	1526817	PROB	4.383	n/a	n/a	-999	12	[7, 7, 8]	22	FR1	0	R1414E
1445.68	3.033	1531200	PROB	3.033	n/a	n/a	-999	12	[2, 5, 4]	11	FR1	0	R1414E
1448.713	0.0	1534228	DISTRACT_END	n/a	n/a	n/a	-999	12	[0, 0, 0]	n/a	FR1	0	R1414E
1448.713	2.317	1534233	STOP	n/a	n/a	n/a	-999	12	[-999, -999, -999]	n/a	FR1	0	R1414E
1451.03	0.071	1536551	REC_START	n/a	n/a	n/a	-999	12	[0, 0, 0]	n/a	FR1	0	R1414E
1451.101	0.527	1536621	REC_WORD	0.527	n/a	BLUSH	8	12	[0, 0, 0]	n/a	FR1	0	R1414E
1451.628	0.386	1537148	REC_WORD	0.386	n/a	BRICK	9	12	[0, 0, 0]	n/a	FR1	0	R1414E
1452.014	1.756	1537534	REC_WORD	1.756	n/a	SMILE	10	12	[0, 0, 0]	n/a	FR1	0	R1414E
1453.77	0.556	1539290	REC_WORD_VV	0.556	n/a	<>	-999	12	[0, 0, 0]	n/a	FR1	0	R1414E
1454.326	4.03	1539846	REC_WORD	4.03	n/a	JAR	12	12	[0, 0, 0]	n/a	FR1	0	R1414E
1458.356	22.944	1543876	REC_WORD	22.944	n/a	GUARD	-999	12	[0, 0, 0]	n/a	FR1	0	R1414E
1481.3	0.0	1566822	REC_END	n/a	n/a	n/a	-999	12	[0, 0, 0]	n/a	FR1	0	R1414E
