onset	duration	sample	trial_type	response_time	stim_file	item_name	serialpos	list	test	answer	experiment	session	subject
0.0	0.0	4895	INSTRUCT_START	n/a	n/a	n/a	-999	-999	[0, 0, 0]	n/a	FR1	0	R1203T
0.0	10.898	4895	INSTRUCT_END	n/a	n/a	n/a	-999	-999	[0, 0, 0]	n/a	FR1	0	R1203T
10.898	0.0	15793	SESS_START	n/a	n/a	n/a	-999	-999	[0, 0, 0]	n/a	FR1	0	R1203T
10.898	199.805	15793	MIC_TEST	n/a	n/a	n/a	-999	-999	[0, 0, 0]	n/a	FR1	0	R1203T
210.703	10.27	215587	PRACTICE_TRIAL	n/a	n/a	n/a	-999	-1	[0, 0, 0]	n/a	FR1	0	R1203T
220.973	10.428	225856	COUNTDOWN_START	n/a	n/a	n/a	-999	-1	[0, 0, 0]	n/a	FR1	0	R1203T
231.401	0.007	236284	COUNTDOWN_END	n/a	n/a	n/a	-999	-1	[0, 0, 0]	n/a	FR1	0	R1203T
231.408	1.618	236291	PRACTICE_ORIENT	n/a	n/a	n/a	-999	-1	[0, 0, 0]	n/a	FR1	0	R1203T
233.026	2.299	237908	PRACTICE_ORIENT_OFF	n/a	n/a	n/a	-999	-1	[0, 0, 0]	n/a	FR1	0	R1203T
235.325	1.618	240207	PRACTICE_WORD	n/a	n/a	ATTIC	1	-1	[0, 0, 0]	n/a	FR1	0	R1203T
236.943	0.933	241825	PRACTICE_WORD_OFF	n/a	n/a	ATTIC	-999	-1	[0, 0, 0]	n/a	FR1	0	R1203T
237.876	1.617	242758	PRACTICE_WORD	n/a	n/a	RING	2	-1	[0, 0, 0]	n/a	FR1	0	R1203T
239.493	0.8	244375	PRACTICE_WORD_OFF	n/a	n/a	RING	-999	-1	[0, 0, 0]	n/a	FR1	0	R1203T
240.293	1.618	245175	PRACTICE_WORD	n/a	n/a	WATCH	3	-1	[0, 0, 0]	n/a	FR1	0	R1203T
241.911	0.983	246793	PRACTICE_WORD_OFF	n/a	n/a	WATCH	-999	-1	[0, 0, 0]	n/a	FR1	0	R1203T
242.894	1.617	247776	PRACTICE_WORD	n/a	n/a	BEAM	4	-1	[0, 0, 0]	n/a	FR1	0	R1203T
244.511	0.882	249393	PRACTICE_WORD_OFF	n/a	n/a	BEAM	-999	-1	[0, 0, 0]	n/a	FR1	0	R1203T
245.393	1.602	250275	PRACTICE_WORD	n/a	n/a	FLOOD	5	-1	[0, 0, 0]	n/a	FR1	0	R1203T
246.995	1.017	251877	PRACTICE_WORD_OFF	n/a	n/a	FLOOD	-999	-1	[0, 0, 0]	n/a	FR1	0	R1203T
248.012	1.617	252894	PRACTICE_WORD	n/a	n/a	IRON	6	-1	[0, 0, 0]	n/a	FR1	0	R1203T
249.629	0.782	254511	PRACTICE_WORD_OFF	n/a	n/a	IRON	-999	-1	[0, 0, 0]	n/a	FR1	0	R1203T
250.411	1.601	255293	PRACTICE_WORD	n/a	n/a	COTTON	7	-1	[0, 0, 0]	n/a	FR1	0	R1203T
252.012	0.967	256893	PRACTICE_WORD_OFF	n/a	n/a	COTTON	-999	-1	[0, 0, 0]	n/a	FR1	0	R1203T
252.979	1.617	257860	PRACTICE_WORD	n/a	n/a	RHINO	8	-1	[0, 0, 0]	n/a	FR1	0	R1203T
254.596	0.849	259477	PRACTICE_WORD_OFF	n/a	n/a	RHINO	-999	-1	[0, 0, 0]	n/a	FR1	0	R1203T
255.445	1.618	260326	PRACTICE_WORD	n/a	n/a	CHEST	9	-1	[0, 0, 0]	n/a	FR1	0	R1203T
257.063	0.867	261944	PRACTICE_WORD_OFF	n/a	n/a	CHEST	-999	-1	[0, 0, 0]	n/a	FR1	0	R1203T
257.93	1.617	262811	PRACTICE_WORD	n/a	n/a	WAGON	10	-1	[0, 0, 0]	n/a	FR1	0	R1203T
259.547	0.849	264428	PRACTICE_WORD_OFF	n/a	n/a	WAGON	-999	-1	[0, 0, 0]	n/a	FR1	0	R1203T
260.396	1.601	265277	PRACTICE_WORD	n/a	n/a	CAMEL	11	-1	[0, 0, 0]	n/a	FR1	0	R1203T
261.997	0.901	266878	PRACTICE_WORD_OFF	n/a	n/a	CAMEL	-999	-1	[0, 0, 0]	n/a	FR1	0	R1203T
262.898	1.617	267779	PRACTICE_WORD	n/a	n/a	TONGUE	12	-1	[0, 0, 0]	n/a	FR1	0	R1203T
264.515	0.0	269396	PRACTICE_WORD_OFF	n/a	n/a	TONGUE	-999	-1	[0, 0, 0]	n/a	FR1	0	R1203T
264.515	0.0	269396	DISTRACT_START	n/a	n/a	n/a	-999	-1	[0, 0, 0]	n/a	FR1	0	R1203T
264.515	0.016	269396	START	n/a	n/a	n/a	-999	-1	[-999, -999, -999]	n/a	FR1	0	R1203T
264.531	10.019	269412	PROB	10.019	n/a	n/a	-999	-1	[1, 7, 2]	10	FR1	0	R1203T
274.55	5.617	279430	PROB	5.617	n/a	n/a	-999	-1	[5, 1, 1]	7	FR1	0	R1203T
280.167	12.955	285047	PROB	12.955	n/a	n/a	-999	-1	[1, 3, 7]	11	FR1	0	R1203T
293.122	0.015	298001	STOP	n/a	n/a	n/a	-999	-1	[-999, -999, -999]	n/a	FR1	0	R1203T
293.137	0.666	298016	DISTRACT_END	n/a	n/a	n/a	-999	-1	[0, 0, 0]	n/a	FR1	0	R1203T
293.803	0.517	298682	RETRIEVAL_ORIENT	n/a	n/a	n/a	-999	-1	[0, 0, 0]	n/a	FR1	0	R1203T
294.32	30.011	299199	PRACTICE_REC_START	n/a	n/a	n/a	-999	-1	[0, 0, 0]	n/a	FR1	0	R1203T
324.331	55.488	329208	PRACTICE_REC_END	n/a	n/a	n/a	-999	-1	[0, 0, 0]	n/a	FR1	0	R1203T
379.819	0.5	384693	TRIAL	n/a	n/a	n/a	-999	1	[0, 0, 0]	n/a	FR1	0	R1203T
380.319	10.428	385193	COUNTDOWN_START	n/a	n/a	n/a	-999	1	[0, 0, 0]	n/a	FR1	0	R1203T
390.747	0.007	395621	COUNTDOWN_END	n/a	n/a	n/a	-999	1	[0, 0, 0]	n/a	FR1	0	R1203T
390.754	1.616	395628	ORIENT	n/a	n/a	n/a	-999	1	[0, 0, 0]	n/a	FR1	0	R1203T
392.37	2.034	397244	ORIENT_OFF	n/a	n/a	n/a	-999	1	[0, 0, 0]	n/a	FR1	0	R1203T
394.404	1.618	399277	WORD	n/a	wordpools/wordpool_EN.txt	BED	1	1	[0, 0, 0]	n/a	FR1	0	R1203T
396.022	0.883	400895	WORD_OFF	n/a	n/a	BED	1	1	[0, 0, 0]	n/a	FR1	0	R1203T
396.905	1.617	401778	WORD	n/a	wordpools/wordpool_EN.txt	HAWK	2	1	[0, 0, 0]	n/a	FR1	0	R1203T
398.522	0.766	403395	WORD_OFF	n/a	n/a	HAWK	2	1	[0, 0, 0]	n/a	FR1	0	R1203T
399.288	1.618	404161	WORD	n/a	wordpools/wordpool_EN.txt	CLIFF	3	1	[0, 0, 0]	n/a	FR1	0	R1203T
400.906	0.967	405779	WORD_OFF	n/a	n/a	CLIFF	3	1	[0, 0, 0]	n/a	FR1	0	R1203T
401.873	1.617	406746	WORD	n/a	wordpools/wordpool_EN.txt	STEM	4	1	[0, 0, 0]	n/a	FR1	0	R1203T
403.49	1.0	408363	WORD_OFF	n/a	n/a	STEM	4	1	[0, 0, 0]	n/a	FR1	0	R1203T
404.49	1.617	409363	WORD	n/a	wordpools/wordpool_EN.txt	ROOM	5	1	[0, 0, 0]	n/a	FR1	0	R1203T
406.107	0.967	410980	WORD_OFF	n/a	n/a	ROOM	5	1	[0, 0, 0]	n/a	FR1	0	R1203T
407.074	1.617	411947	WORD	n/a	wordpools/wordpool_EN.txt	ANT	6	1	[0, 0, 0]	n/a	FR1	0	R1203T
408.691	0.783	413564	WORD_OFF	n/a	n/a	ANT	6	1	[0, 0, 0]	n/a	FR1	0	R1203T
409.474	1.617	414347	WORD	n/a	wordpools/wordpool_EN.txt	WING	7	1	[0, 0, 0]	n/a	FR1	0	R1203T
411.091	0.834	415964	WORD_OFF	n/a	n/a	WING	7	1	[0, 0, 0]	n/a	FR1	0	R1203T
411.925	1.617	416798	WORD	n/a	wordpools/wordpool_EN.txt	ROOT	8	1	[0, 0, 0]	n/a	FR1	0	R1203T
413.542	0.766	418414	WORD_OFF	n/a	n/a	ROOT	8	1	[0, 0, 0]	n/a	FR1	0	R1203T
414.308	1.618	419180	WORD	n/a	wordpools/wordpool_EN.txt	OAK	9	1	[0, 0, 0]	n/a	FR1	0	R1203T
415.926	0.933	420798	WORD_OFF	n/a	n/a	OAK	9	1	[0, 0, 0]	n/a	FR1	0	R1203T
416.859	1.617	421731	WORD	n/a	wordpools/wordpool_EN.txt	LEAF	10	1	[0, 0, 0]	n/a	FR1	0	R1203T
418.476	0.783	423348	WORD_OFF	n/a	n/a	LEAF	10	1	[0, 0, 0]	n/a	FR1	0	R1203T
419.259	1.617	424131	WORD	n/a	wordpools/wordpool_EN.txt	FLOOR	11	1	[0, 0, 0]	n/a	FR1	0	R1203T
420.876	0.951	425748	WORD_OFF	n/a	n/a	FLOOR	11	1	[0, 0, 0]	n/a	FR1	0	R1203T
421.827	1.616	426699	WORD	n/a	wordpools/wordpool_EN.txt	SLUSH	12	1	[0, 0, 0]	n/a	FR1	0	R1203T
423.443	0.0	428315	WORD_OFF	n/a	n/a	SLUSH	12	1	[0, 0, 0]	n/a	FR1	0	R1203T
423.443	0.0	428315	DISTRACT_START	n/a	n/a	n/a	-999	1	[0, 0, 0]	n/a	FR1	0	R1203T
423.443	0.017	428315	START	n/a	n/a	n/a	-999	1	[-999, -999, -999]	n/a	FR1	0	R1203T
423.46	5.701	428332	PROB	5.701	n/a	n/a	-999	1	[1, 5, 3]	9	FR1	0	R1203T
429.161	12.102	434033	PROB	12.102	n/a	n/a	-999	1	[4, 7, 4]	15	FR1	0	R1203T
441.263	15.058	446134	PROB	15.058	n/a	n/a	-999	1	[9, 6, 8]	23	FR1	0	R1203T
456.321	0.011	461191	STOP	n/a	n/a	n/a	-999	1	[-999, -999, -999]	n/a	FR1	0	R1203T
456.332	0.618	461202	DISTRACT_END	n/a	n/a	n/a	-999	1	[0, 0, 0]	n/a	FR1	0	R1203T
456.95	0.517	461820	RETRIEVAL_ORIENT	n/a	n/a	n/a	-999	1	[0, 0, 0]	n/a	FR1	0	R1203T
457.467	6.189	462337	REC_START	n/a	n/a	n/a	-999	1	[0, 0, 0]	n/a	FR1	0	R1203T
463.656	3.132	468526	REC_WORD_VV	3.132	n/a	<>	-999	1	[0, 0, 0]	n/a	FR1	0	R1203T
466.788	1.79	471657	REC_WORD	1.79	n/a	GIANT	-999	1	[0, 0, 0]	n/a	FR1	0	R1203T
468.578	2.007	473447	REC_WORD	2.007	n/a	BED	-999	1	[0, 0, 0]	n/a	FR1	0	R1203T
470.585	4.045	475454	REC_WORD	4.045	n/a	ANT	-999	1	[0, 0, 0]	n/a	FR1	0	R1203T
474.63	5.147	479499	REC_WORD	5.147	n/a	WING	-999	1	[0, 0, 0]	n/a	FR1	0	R1203T
479.777	7.7	484646	REC_WORD	7.7	n/a	ROCK	-999	1	[0, 0, 0]	n/a	FR1	0	R1203T
487.477	66.939	492345	REC_END	n/a	n/a	n/a	-999	1	[0, 0, 0]	n/a	FR1	0	R1203T
554.416	0.5	559281	TRIAL	n/a	n/a	n/a	-999	2	[0, 0, 0]	n/a	FR1	0	R1203T
554.916	10.428	559781	COUNTDOWN_START	n/a	n/a	n/a	-999	2	[0, 0, 0]	n/a	FR1	0	R1203T
565.344	0.008	570208	COUNTDOWN_END	n/a	n/a	n/a	-999	2	[0, 0, 0]	n/a	FR1	0	R1203T
565.352	1.618	570216	ORIENT	n/a	n/a	n/a	-999	2	[0, 0, 0]	n/a	FR1	0	R1203T
566.97	2.267	571834	ORIENT_OFF	n/a	n/a	n/a	-999	2	[0, 0, 0]	n/a	FR1	0	R1203T
569.237	1.617	574101	WORD	n/a	wordpools/wordpool_EN.txt	STRAW	1	2	[0, 0, 0]	n/a	FR1	0	R1203T
570.854	0.816	575718	WORD_OFF	n/a	n/a	STRAW	1	2	[0, 0, 0]	n/a	FR1	0	R1203T
571.67	1.616	576534	WORD	n/a	wordpools/wordpool_EN.txt	MAP	2	2	[0, 0, 0]	n/a	FR1	0	R1203T
573.286	0.835	578150	WORD_OFF	n/a	n/a	MAP	2	2	[0, 0, 0]	n/a	FR1	0	R1203T
574.121	1.617	578984	WORD	n/a	wordpools/wordpool_EN.txt	BOAT	3	2	[0, 0, 0]	n/a	FR1	0	R1203T
575.738	1.0	580601	WORD_OFF	n/a	n/a	BOAT	3	2	[0, 0, 0]	n/a	FR1	0	R1203T
576.738	1.616	581601	WORD	n/a	wordpools/wordpool_EN.txt	FARM	4	2	[0, 0, 0]	n/a	FR1	0	R1203T
578.354	0.901	583217	WORD_OFF	n/a	n/a	FARM	4	2	[0, 0, 0]	n/a	FR1	0	R1203T
579.255	1.617	584118	WORD	n/a	wordpools/wordpool_EN.txt	MUD	5	2	[0, 0, 0]	n/a	FR1	0	R1203T
580.872	0.917	585735	WORD_OFF	n/a	n/a	MUD	5	2	[0, 0, 0]	n/a	FR1	0	R1203T
581.789	1.616	586652	WORD	n/a	wordpools/wordpool_EN.txt	ELF	6	2	[0, 0, 0]	n/a	FR1	0	R1203T
583.405	0.884	588268	WORD_OFF	n/a	n/a	ELF	6	2	[0, 0, 0]	n/a	FR1	0	R1203T
584.289	1.617	589152	WORD	n/a	wordpools/wordpool_EN.txt	STORM	7	2	[0, 0, 0]	n/a	FR1	0	R1203T
585.906	0.934	590769	WORD_OFF	n/a	n/a	STORM	7	2	[0, 0, 0]	n/a	FR1	0	R1203T
586.84	1.617	591703	WORD	n/a	wordpools/wordpool_EN.txt	CAPE	8	2	[0, 0, 0]	n/a	FR1	0	R1203T
588.457	0.832	593320	WORD_OFF	n/a	n/a	CAPE	8	2	[0, 0, 0]	n/a	FR1	0	R1203T
589.289	1.601	594152	WORD	n/a	wordpools/wordpool_EN.txt	HOOK	9	2	[0, 0, 0]	n/a	FR1	0	R1203T
590.89	0.784	595753	WORD_OFF	n/a	n/a	HOOK	9	2	[0, 0, 0]	n/a	FR1	0	R1203T
591.674	1.616	596537	WORD	n/a	wordpools/wordpool_EN.txt	STICK	10	2	[0, 0, 0]	n/a	FR1	0	R1203T
593.29	0.935	598152	WORD_OFF	n/a	n/a	STICK	10	2	[0, 0, 0]	n/a	FR1	0	R1203T
594.225	1.617	599087	WORD	n/a	wordpools/wordpool_EN.txt	LAND	11	2	[0, 0, 0]	n/a	FR1	0	R1203T
595.842	0.766	600704	WORD_OFF	n/a	n/a	LAND	11	2	[0, 0, 0]	n/a	FR1	0	R1203T
596.608	1.617	601470	WORD	n/a	wordpools/wordpool_EN.txt	SEA	12	2	[0, 0, 0]	n/a	FR1	0	R1203T
598.225	0.0	603087	WORD_OFF	n/a	n/a	SEA	12	2	[0, 0, 0]	n/a	FR1	0	R1203T
598.225	0.001	603087	DISTRACT_START	n/a	n/a	n/a	-999	2	[0, 0, 0]	n/a	FR1	0	R1203T
598.226	0.016	603088	START	n/a	n/a	n/a	-999	2	[-999, -999, -999]	n/a	FR1	0	R1203T
598.242	7.301	603104	PROB	7.301	n/a	n/a	-999	2	[4, 5, 2]	12	FR1	0	R1203T
605.543	9.119	610405	PROB	9.119	n/a	n/a	-999	2	[9, 4, 5]	18	FR1	0	R1203T
614.662	7.173	619523	PROB	7.173	n/a	n/a	-999	2	[1, 7, 9]	17	FR1	0	R1203T
621.835	0.011	626696	STOP	n/a	n/a	n/a	-999	2	[-999, -999, -999]	n/a	FR1	0	R1203T
621.846	0.566	626707	DISTRACT_END	n/a	n/a	n/a	-999	2	[0, 0, 0]	n/a	FR1	0	R1203T
622.412	0.502	627273	RETRIEVAL_ORIENT	n/a	n/a	n/a	-999	2	[0, 0, 0]	n/a	FR1	0	R1203T
622.914	3.791	627775	REC_START	n/a	n/a	n/a	-999	2	[0, 0, 0]	n/a	FR1	0	R1203T
626.705	2.451	631566	REC_WORD	2.451	n/a	ADDITION	-999	2	[0, 0, 0]	n/a	FR1	0	R1203T
629.156	1.527	634016	REC_WORD	1.527	n/a	SEA	-999	2	[0, 0, 0]	n/a	FR1	0	R1203T
630.683	4.193	635543	REC_WORD	4.193	n/a	BOAT	-999	2	[0, 0, 0]	n/a	FR1	0	R1203T
634.876	8.158	639736	REC_WORD	8.158	n/a	LAND	-999	2	[0, 0, 0]	n/a	FR1	0	R1203T
643.034	3.233	647894	REC_WORD	3.233	n/a	AIRPLANE	-999	2	[0, 0, 0]	n/a	FR1	0	R1203T
646.267	6.657	651126	REC_WORD	6.657	n/a	FLOOR	-999	2	[0, 0, 0]	n/a	FR1	0	R1203T
652.924	8.863	657783	REC_END	n/a	n/a	n/a	-999	2	[0, 0, 0]	n/a	FR1	0	R1203T
661.787	0.5	666646	TRIAL	n/a	n/a	n/a	-999	3	[0, 0, 0]	n/a	FR1	0	R1203T
662.287	10.428	667146	COUNTDOWN_START	n/a	n/a	n/a	-999	3	[0, 0, 0]	n/a	FR1	0	R1203T
672.715	0.007	677573	COUNTDOWN_END	n/a	n/a	n/a	-999	3	[0, 0, 0]	n/a	FR1	0	R1203T
672.722	1.616	677580	ORIENT	n/a	n/a	n/a	-999	3	[0, 0, 0]	n/a	FR1	0	R1203T
674.338	2.05	679196	ORIENT_OFF	n/a	n/a	n/a	-999	3	[0, 0, 0]	n/a	FR1	0	R1203T
676.388	1.618	681246	WORD	n/a	wordpools/wordpool_EN.txt	EAR	1	3	[0, 0, 0]	n/a	FR1	0	R1203T
678.006	0.917	682864	WORD_OFF	n/a	n/a	EAR	1	3	[0, 0, 0]	n/a	FR1	0	R1203T
678.923	1.617	683781	WORD	n/a	wordpools/wordpool_EN.txt	OWL	2	3	[0, 0, 0]	n/a	FR1	0	R1203T
680.54	0.766	685398	WORD_OFF	n/a	n/a	OWL	2	3	[0, 0, 0]	n/a	FR1	0	R1203T
681.306	1.618	686164	WORD	n/a	wordpools/wordpool_EN.txt	CHAIR	3	3	[0, 0, 0]	n/a	FR1	0	R1203T
682.924	0.884	687781	WORD_OFF	n/a	n/a	CHAIR	3	3	[0, 0, 0]	n/a	FR1	0	R1203T
683.808	1.615	688665	WORD	n/a	wordpools/wordpool_EN.txt	RAT	4	3	[0, 0, 0]	n/a	FR1	0	R1203T
685.423	0.917	690280	WORD_OFF	n/a	n/a	RAT	4	3	[0, 0, 0]	n/a	FR1	0	R1203T
686.34	1.618	691197	WORD	n/a	wordpools/wordpool_EN.txt	CLOCK	5	3	[0, 0, 0]	n/a	FR1	0	R1203T
687.958	0.934	692815	WORD_OFF	n/a	n/a	CLOCK	5	3	[0, 0, 0]	n/a	FR1	0	R1203T
688.892	1.617	693749	WORD	n/a	wordpools/wordpool_EN.txt	GUARD	6	3	[0, 0, 0]	n/a	FR1	0	R1203T
690.509	0.815	695366	WORD_OFF	n/a	n/a	GUARD	6	3	[0, 0, 0]	n/a	FR1	0	R1203T
691.324	1.602	696181	WORD	n/a	wordpools/wordpool_EN.txt	STOOL	7	3	[0, 0, 0]	n/a	FR1	0	R1203T
692.926	0.783	697783	WORD_OFF	n/a	n/a	STOOL	7	3	[0, 0, 0]	n/a	FR1	0	R1203T
693.709	1.616	698566	WORD	n/a	wordpools/wordpool_EN.txt	DART	8	3	[0, 0, 0]	n/a	FR1	0	R1203T
695.325	0.868	700182	WORD_OFF	n/a	n/a	DART	8	3	[0, 0, 0]	n/a	FR1	0	R1203T
696.193	1.617	701050	WORD	n/a	wordpools/wordpool_EN.txt	HOUSE	9	3	[0, 0, 0]	n/a	FR1	0	R1203T
697.81	0.784	702667	WORD_OFF	n/a	n/a	HOUSE	9	3	[0, 0, 0]	n/a	FR1	0	R1203T
698.594	1.617	703451	WORD	n/a	wordpools/wordpool_EN.txt	DESK	10	3	[0, 0, 0]	n/a	FR1	0	R1203T
700.211	0.983	705067	WORD_OFF	n/a	n/a	DESK	10	3	[0, 0, 0]	n/a	FR1	0	R1203T
701.194	1.617	706050	WORD	n/a	wordpools/wordpool_EN.txt	SLEEVE	11	3	[0, 0, 0]	n/a	FR1	0	R1203T
702.811	0.9	707667	WORD_OFF	n/a	n/a	SLEEVE	11	3	[0, 0, 0]	n/a	FR1	0	R1203T
703.711	1.616	708567	WORD	n/a	wordpools/wordpool_EN.txt	COUCH	12	3	[0, 0, 0]	n/a	FR1	0	R1203T
705.327	0.0	710183	WORD_OFF	n/a	n/a	COUCH	12	3	[0, 0, 0]	n/a	FR1	0	R1203T
705.327	0.001	710183	DISTRACT_START	n/a	n/a	n/a	-999	3	[0, 0, 0]	n/a	FR1	0	R1203T
705.328	0.016	710184	START	n/a	n/a	n/a	-999	3	[-999, -999, -999]	n/a	FR1	0	R1203T
705.344	11.753	710200	PROB	11.753	n/a	n/a	-999	3	[5, 9, 5]	19	FR1	0	R1203T
717.097	9.329	721953	PROB	9.329	n/a	n/a	-999	3	[7, 2, 8]	17	FR1	0	R1203T
726.426	0.022	731281	STOP	n/a	n/a	n/a	-999	3	[-999, -999, -999]	n/a	FR1	0	R1203T
726.448	0.584	731303	DISTRACT_END	n/a	n/a	n/a	-999	3	[0, 0, 0]	n/a	FR1	0	R1203T
727.032	0.517	731887	RETRIEVAL_ORIENT	n/a	n/a	n/a	-999	3	[0, 0, 0]	n/a	FR1	0	R1203T
727.549	2.453	732404	REC_START	n/a	n/a	n/a	-999	3	[0, 0, 0]	n/a	FR1	0	R1203T
730.002	2.831	734857	REC_WORD	2.831	n/a	ADDITION	-999	3	[0, 0, 0]	n/a	FR1	0	R1203T
732.833	4.044	737688	REC_WORD	4.044	n/a	LAND	-999	3	[0, 0, 0]	n/a	FR1	0	R1203T
736.877	1.54	741731	REC_WORD	1.54	n/a	DESK	-999	3	[0, 0, 0]	n/a	FR1	0	R1203T
738.417	1.423	743271	REC_WORD	1.423	n/a	FLOOR	-999	3	[0, 0, 0]	n/a	FR1	0	R1203T
739.84	3.535	744694	REC_WORD	3.535	n/a	COUCH	-999	3	[0, 0, 0]	n/a	FR1	0	R1203T
743.375	14.187	748229	REC_WORD	14.187	n/a	SHEILD	-999	3	[0, 0, 0]	n/a	FR1	0	R1203T
757.562	67.705	762415	REC_END	n/a	n/a	n/a	-999	3	[0, 0, 0]	n/a	FR1	0	R1203T
825.267	0.5	830117	TRIAL	n/a	n/a	n/a	-999	4	[0, 0, 0]	n/a	FR1	0	R1203T
825.767	10.428	830616	COUNTDOWN_START	n/a	n/a	n/a	-999	4	[0, 0, 0]	n/a	FR1	0	R1203T
836.195	0.007	841044	COUNTDOWN_END	n/a	n/a	n/a	-999	4	[0, 0, 0]	n/a	FR1	0	R1203T
836.202	1.617	841051	ORIENT	n/a	n/a	n/a	-999	4	[0, 0, 0]	n/a	FR1	0	R1203T
837.819	2.134	842668	ORIENT_OFF	n/a	n/a	n/a	-999	4	[0, 0, 0]	n/a	FR1	0	R1203T
839.953	1.617	844802	WORD	n/a	wordpools/wordpool_EN.txt	TENT	1	4	[0, 0, 0]	n/a	FR1	0	R1203T
841.57	0.849	846419	WORD_OFF	n/a	n/a	TENT	1	4	[0, 0, 0]	n/a	FR1	0	R1203T
842.419	1.618	847268	WORD	n/a	wordpools/wordpool_EN.txt	PIG	2	4	[0, 0, 0]	n/a	FR1	0	R1203T
844.037	0.883	848885	WORD_OFF	n/a	n/a	PIG	2	4	[0, 0, 0]	n/a	FR1	0	R1203T
844.92	1.617	849768	WORD	n/a	wordpools/wordpool_EN.txt	BRUSH	3	4	[0, 0, 0]	n/a	FR1	0	R1203T
846.537	0.882	851385	WORD_OFF	n/a	n/a	BRUSH	3	4	[0, 0, 0]	n/a	FR1	0	R1203T
847.419	1.602	852267	WORD	n/a	wordpools/wordpool_EN.txt	TRUCK	4	4	[0, 0, 0]	n/a	FR1	0	R1203T
849.021	1.017	853869	WORD_OFF	n/a	n/a	TRUCK	4	4	[0, 0, 0]	n/a	FR1	0	R1203T
850.038	1.617	854886	WORD	n/a	wordpools/wordpool_EN.txt	TOY	5	4	[0, 0, 0]	n/a	FR1	0	R1203T
851.655	0.8	856503	WORD_OFF	n/a	n/a	TOY	5	4	[0, 0, 0]	n/a	FR1	0	R1203T
852.455	1.617	857303	WORD	n/a	wordpools/wordpool_EN.txt	TOOTH	6	4	[0, 0, 0]	n/a	FR1	0	R1203T
854.072	0.867	858920	WORD_OFF	n/a	n/a	TOOTH	6	4	[0, 0, 0]	n/a	FR1	0	R1203T
854.939	1.617	859787	WORD	n/a	wordpools/wordpool_EN.txt	CAGE	7	4	[0, 0, 0]	n/a	FR1	0	R1203T
856.556	0.916	861404	WORD_OFF	n/a	n/a	CAGE	7	4	[0, 0, 0]	n/a	FR1	0	R1203T
857.472	1.617	862320	WORD	n/a	wordpools/wordpool_EN.txt	PANTS	8	4	[0, 0, 0]	n/a	FR1	0	R1203T
859.089	1.017	863937	WORD_OFF	n/a	n/a	PANTS	8	4	[0, 0, 0]	n/a	FR1	0	R1203T
860.106	1.617	864954	WORD	n/a	wordpools/wordpool_EN.txt	SNAKE	9	4	[0, 0, 0]	n/a	FR1	0	R1203T
861.723	0.884	866570	WORD_OFF	n/a	n/a	SNAKE	9	4	[0, 0, 0]	n/a	FR1	0	R1203T
862.607	1.617	867454	WORD	n/a	wordpools/wordpool_EN.txt	TEETH	10	4	[0, 0, 0]	n/a	FR1	0	R1203T
864.224	1.0	869071	WORD_OFF	n/a	n/a	TEETH	10	4	[0, 0, 0]	n/a	FR1	0	R1203T
865.224	1.617	870071	WORD	n/a	wordpools/wordpool_EN.txt	DUCK	11	4	[0, 0, 0]	n/a	FR1	0	R1203T
866.841	0.767	871688	WORD_OFF	n/a	n/a	DUCK	11	4	[0, 0, 0]	n/a	FR1	0	R1203T
867.608	1.617	872455	WORD	n/a	wordpools/wordpool_EN.txt	TOAD	12	4	[0, 0, 0]	n/a	FR1	0	R1203T
869.225	0.0	874072	DISTRACT_START	n/a	n/a	n/a	-999	4	[0, 0, 0]	n/a	FR1	0	R1203T
869.225	0.0	874072	WORD_OFF	n/a	n/a	TOAD	12	4	[0, 0, 0]	n/a	FR1	0	R1203T
869.225	0.016	874072	START	n/a	n/a	n/a	-999	4	[-999, -999, -999]	n/a	FR1	0	R1203T
869.241	8.868	874088	PROB	8.868	n/a	n/a	-999	4	[7, 4, 8]	19	FR1	0	R1203T
878.109	11.069	882956	PROB	11.069	n/a	n/a	-999	4	[7, 6, 2]	15	FR1	0	R1203T
889.178	11.696	894024	PROB	11.696	n/a	n/a	-999	4	[8, 7, 6]	21	FR1	0	R1203T
900.874	0.006	905719	STOP	n/a	n/a	n/a	-999	4	[-999, -999, -999]	n/a	FR1	0	R1203T
900.88	0.6	905725	DISTRACT_END	n/a	n/a	n/a	-999	4	[0, 0, 0]	n/a	FR1	0	R1203T
901.48	0.518	906325	RETRIEVAL_ORIENT	n/a	n/a	n/a	-999	4	[0, 0, 0]	n/a	FR1	0	R1203T
901.998	2.512	906843	REC_START	n/a	n/a	n/a	-999	4	[0, 0, 0]	n/a	FR1	0	R1203T
904.51	1.501	909355	REC_WORD	1.501	n/a	DUCK	-999	4	[0, 0, 0]	n/a	FR1	0	R1203T
906.011	1.394	910856	REC_WORD	1.394	n/a	COW	-999	4	[0, 0, 0]	n/a	FR1	0	R1203T
907.405	8.491	912250	REC_WORD	8.491	n/a	TENT	-999	4	[0, 0, 0]	n/a	FR1	0	R1203T
915.896	0.67	920740	REC_WORD	0.67	n/a	DUCK	-999	4	[0, 0, 0]	n/a	FR1	0	R1203T
916.566	5.926	921410	REC_WORD	5.926	n/a	COW	-999	4	[0, 0, 0]	n/a	FR1	0	R1203T
922.492	9.519	927336	REC_WORD	9.519	n/a	SKY	-999	4	[0, 0, 0]	n/a	FR1	0	R1203T
932.011	28.597	936855	REC_END	n/a	n/a	n/a	-999	4	[0, 0, 0]	n/a	FR1	0	R1203T
960.608	0.5	965450	TRIAL	n/a	n/a	n/a	-999	5	[0, 0, 0]	n/a	FR1	0	R1203T
961.108	10.428	965950	COUNTDOWN_START	n/a	n/a	n/a	-999	5	[0, 0, 0]	n/a	FR1	0	R1203T
971.536	0.007	976377	COUNTDOWN_END	n/a	n/a	n/a	-999	5	[0, 0, 0]	n/a	FR1	0	R1203T
971.543	1.617	976384	ORIENT	n/a	n/a	n/a	-999	5	[0, 0, 0]	n/a	FR1	0	R1203T
973.16	2.199	978001	ORIENT_OFF	n/a	n/a	n/a	-999	5	[0, 0, 0]	n/a	FR1	0	R1203T
975.359	1.618	980200	WORD	n/a	wordpools/wordpool_EN.txt	SOCK	1	5	[0, 0, 0]	n/a	FR1	0	R1203T
976.977	0.884	981818	WORD_OFF	n/a	n/a	SOCK	1	5	[0, 0, 0]	n/a	FR1	0	R1203T
977.861	1.617	982702	WORD	n/a	wordpools/wordpool_EN.txt	MOUTH	2	5	[0, 0, 0]	n/a	FR1	0	R1203T
979.478	0.816	984319	WORD_OFF	n/a	n/a	MOUTH	2	5	[0, 0, 0]	n/a	FR1	0	R1203T
980.294	1.618	985135	WORD	n/a	wordpools/wordpool_EN.txt	TOAST	3	5	[0, 0, 0]	n/a	FR1	0	R1203T
981.912	0.933	986753	WORD_OFF	n/a	n/a	TOAST	3	5	[0, 0, 0]	n/a	FR1	0	R1203T
982.845	1.617	987686	WORD	n/a	wordpools/wordpool_EN.txt	DOOR	4	5	[0, 0, 0]	n/a	FR1	0	R1203T
984.462	0.866	989303	WORD_OFF	n/a	n/a	DOOR	4	5	[0, 0, 0]	n/a	FR1	0	R1203T
985.328	1.618	990169	WORD	n/a	wordpools/wordpool_EN.txt	ROOF	5	5	[0, 0, 0]	n/a	FR1	0	R1203T
986.946	0.783	991787	WORD_OFF	n/a	n/a	ROOF	5	5	[0, 0, 0]	n/a	FR1	0	R1203T
987.729	1.616	992569	WORD	n/a	wordpools/wordpool_EN.txt	BOOT	6	5	[0, 0, 0]	n/a	FR1	0	R1203T
989.345	0.95	994185	WORD_OFF	n/a	n/a	BOOT	6	5	[0, 0, 0]	n/a	FR1	0	R1203T
990.295	1.618	995135	WORD	n/a	wordpools/wordpool_EN.txt	FLUTE	7	5	[0, 0, 0]	n/a	FR1	0	R1203T
991.913	0.967	996753	WORD_OFF	n/a	n/a	FLUTE	7	5	[0, 0, 0]	n/a	FR1	0	R1203T
992.88	1.617	997720	WORD	n/a	wordpools/wordpool_EN.txt	POOL	8	5	[0, 0, 0]	n/a	FR1	0	R1203T
994.497	0.949	999337	WORD_OFF	n/a	n/a	POOL	8	5	[0, 0, 0]	n/a	FR1	0	R1203T
995.446	1.601	1000286	WORD	n/a	wordpools/wordpool_EN.txt	BROOM	9	5	[0, 0, 0]	n/a	FR1	0	R1203T
997.047	0.918	1001887	WORD_OFF	n/a	n/a	BROOM	9	5	[0, 0, 0]	n/a	FR1	0	R1203T
997.965	1.616	1002805	WORD	n/a	wordpools/wordpool_EN.txt	HILL	10	5	[0, 0, 0]	n/a	FR1	0	R1203T
999.581	0.901	1004421	WORD_OFF	n/a	n/a	HILL	10	5	[0, 0, 0]	n/a	FR1	0	R1203T
1000.482	1.617	1005322	WORD	n/a	wordpools/wordpool_EN.txt	GATE	11	5	[0, 0, 0]	n/a	FR1	0	R1203T
1002.099	0.95	1006939	WORD_OFF	n/a	n/a	GATE	11	5	[0, 0, 0]	n/a	FR1	0	R1203T
1003.049	1.617	1007889	WORD	n/a	wordpools/wordpool_EN.txt	VASE	12	5	[0, 0, 0]	n/a	FR1	0	R1203T
1004.666	0.0	1009506	WORD_OFF	n/a	n/a	VASE	12	5	[0, 0, 0]	n/a	FR1	0	R1203T
1004.666	0.0	1009506	DISTRACT_START	n/a	n/a	n/a	-999	5	[0, 0, 0]	n/a	FR1	0	R1203T
1004.666	0.016	1009506	START	n/a	n/a	n/a	-999	5	[-999, -999, -999]	n/a	FR1	0	R1203T
1004.682	10.718	1009522	PROB	10.718	n/a	n/a	-999	5	[2, 7, 5]	14	FR1	0	R1203T
1015.4	11.619	1020239	PROB	11.619	n/a	n/a	-999	5	[3, 4, 5]	12	FR1	0	R1203T
1027.019	0.017	1031857	STOP	n/a	n/a	n/a	-999	5	[-999, -999, -999]	n/a	FR1	0	R1203T
1027.036	0.584	1031874	DISTRACT_END	n/a	n/a	n/a	-999	5	[0, 0, 0]	n/a	FR1	0	R1203T
1027.62	0.517	1032458	RETRIEVAL_ORIENT	n/a	n/a	n/a	-999	5	[0, 0, 0]	n/a	FR1	0	R1203T
1028.137	3.382	1032975	REC_START	n/a	n/a	n/a	-999	5	[0, 0, 0]	n/a	FR1	0	R1203T
1031.519	10.226	1036357	REC_WORD	10.226	n/a	DUCK	-999	5	[0, 0, 0]	n/a	FR1	0	R1203T
1041.745	0.962	1046582	REC_WORD	0.962	n/a	LOW	-999	5	[0, 0, 0]	n/a	FR1	0	R1203T
1042.707	0.97	1047544	REC_WORD	0.97	n/a	BROOM	-999	5	[0, 0, 0]	n/a	FR1	0	R1203T
1043.677	6.443	1048514	REC_WORD	6.443	n/a	GATE	-999	5	[0, 0, 0]	n/a	FR1	0	R1203T
1050.12	1.255	1054957	REC_WORD	1.255	n/a	SKY	-999	5	[0, 0, 0]	n/a	FR1	0	R1203T
1051.375	6.774	1056212	REC_WORD	6.774	n/a	HILL	-999	5	[0, 0, 0]	n/a	FR1	0	R1203T
1058.149	20.129	1062986	REC_END	n/a	n/a	n/a	-999	5	[0, 0, 0]	n/a	FR1	0	R1203T
1078.278	0.5	1083113	TRIAL	n/a	n/a	n/a	-999	6	[0, 0, 0]	n/a	FR1	0	R1203T
1078.778	10.428	1083613	COUNTDOWN_START	n/a	n/a	n/a	-999	6	[0, 0, 0]	n/a	FR1	0	R1203T
1089.206	0.008	1094041	COUNTDOWN_END	n/a	n/a	n/a	-999	6	[0, 0, 0]	n/a	FR1	0	R1203T
1089.214	1.617	1094049	ORIENT	n/a	n/a	n/a	-999	6	[0, 0, 0]	n/a	FR1	0	R1203T
1090.831	1.951	1095666	ORIENT_OFF	n/a	n/a	n/a	-999	6	[0, 0, 0]	n/a	FR1	0	R1203T
1092.782	1.616	1097617	WORD	n/a	wordpools/wordpool_EN.txt	ARK	1	6	[0, 0, 0]	n/a	FR1	0	R1203T
1094.398	0.95	1099233	WORD_OFF	n/a	n/a	ARK	1	6	[0, 0, 0]	n/a	FR1	0	R1203T
1095.348	1.618	1100182	WORD	n/a	wordpools/wordpool_EN.txt	NAIL	2	6	[0, 0, 0]	n/a	FR1	0	R1203T
1096.966	0.917	1101800	WORD_OFF	n/a	n/a	NAIL	2	6	[0, 0, 0]	n/a	FR1	0	R1203T
1097.883	1.617	1102717	WORD	n/a	wordpools/wordpool_EN.txt	GRAPE	3	6	[0, 0, 0]	n/a	FR1	0	R1203T
1099.5	0.799	1104334	WORD_OFF	n/a	n/a	GRAPE	3	6	[0, 0, 0]	n/a	FR1	0	R1203T
1100.299	1.618	1105133	WORD	n/a	wordpools/wordpool_EN.txt	BEE	4	6	[0, 0, 0]	n/a	FR1	0	R1203T
1101.917	0.883	1106751	WORD_OFF	n/a	n/a	BEE	4	6	[0, 0, 0]	n/a	FR1	0	R1203T
1102.8	1.616	1107634	WORD	n/a	wordpools/wordpool_EN.txt	TIE	5	6	[0, 0, 0]	n/a	FR1	0	R1203T
1104.416	0.95	1109250	WORD_OFF	n/a	n/a	TIE	5	6	[0, 0, 0]	n/a	FR1	0	R1203T
1105.366	1.618	1110200	WORD	n/a	wordpools/wordpool_EN.txt	CAVE	6	6	[0, 0, 0]	n/a	FR1	0	R1203T
1106.984	0.784	1111818	WORD_OFF	n/a	n/a	CAVE	6	6	[0, 0, 0]	n/a	FR1	0	R1203T
1107.768	1.616	1112602	WORD	n/a	wordpools/wordpool_EN.txt	MUG	7	6	[0, 0, 0]	n/a	FR1	0	R1203T
1109.384	0.933	1114218	WORD_OFF	n/a	n/a	MUG	7	6	[0, 0, 0]	n/a	FR1	0	R1203T
1110.317	1.601	1115151	WORD	n/a	wordpools/wordpool_EN.txt	PIPE	8	6	[0, 0, 0]	n/a	FR1	0	R1203T
1111.918	0.951	1116752	WORD_OFF	n/a	n/a	PIPE	8	6	[0, 0, 0]	n/a	FR1	0	R1203T
1112.869	1.617	1117703	WORD	n/a	wordpools/wordpool_EN.txt	MOTH	9	6	[0, 0, 0]	n/a	FR1	0	R1203T
1114.486	0.882	1119319	WORD_OFF	n/a	n/a	MOTH	9	6	[0, 0, 0]	n/a	FR1	0	R1203T
1115.368	1.601	1120201	WORD	n/a	wordpools/wordpool_EN.txt	PIE	10	6	[0, 0, 0]	n/a	FR1	0	R1203T
1116.969	1.001	1121802	WORD_OFF	n/a	n/a	PIE	10	6	[0, 0, 0]	n/a	FR1	0	R1203T
1117.97	1.617	1122803	WORD	n/a	wordpools/wordpool_EN.txt	JAR	11	6	[0, 0, 0]	n/a	FR1	0	R1203T
1119.587	0.832	1124420	WORD_OFF	n/a	n/a	JAR	11	6	[0, 0, 0]	n/a	FR1	0	R1203T
1120.419	1.601	1125252	WORD	n/a	wordpools/wordpool_EN.txt	CHIN	12	6	[0, 0, 0]	n/a	FR1	0	R1203T
1122.02	0.0	1126853	WORD_OFF	n/a	n/a	CHIN	12	6	[0, 0, 0]	n/a	FR1	0	R1203T
1122.02	0.001	1126853	DISTRACT_START	n/a	n/a	n/a	-999	6	[0, 0, 0]	n/a	FR1	0	R1203T
1122.021	0.016	1126854	START	n/a	n/a	n/a	-999	6	[-999, -999, -999]	n/a	FR1	0	R1203T
1122.037	9.785	1126870	PROB	9.785	n/a	n/a	-999	6	[9, 2, 3]	14	FR1	0	R1203T
1131.822	7.068	1136654	PROB	7.068	n/a	n/a	-999	6	[4, 9, 8]	21	FR1	0	R1203T
1138.89	7.657	1143722	PROB	7.657	n/a	n/a	-999	6	[1, 8, 5]	14	FR1	0	R1203T
1146.547	0.011	1151379	STOP	n/a	n/a	n/a	-999	6	[-999, -999, -999]	n/a	FR1	0	R1203T
1146.558	0.684	1151390	DISTRACT_END	n/a	n/a	n/a	-999	6	[0, 0, 0]	n/a	FR1	0	R1203T
1147.242	0.517	1152074	RETRIEVAL_ORIENT	n/a	n/a	n/a	-999	6	[0, 0, 0]	n/a	FR1	0	R1203T
1147.759	1.985	1152591	REC_START	n/a	n/a	n/a	-999	6	[0, 0, 0]	n/a	FR1	0	R1203T
1149.744	3.964	1154575	REC_WORD	3.964	n/a	DUCK	-999	6	[0, 0, 0]	n/a	FR1	0	R1203T
1153.708	5.101	1158539	REC_WORD	5.101	n/a	LAND	-999	6	[0, 0, 0]	n/a	FR1	0	R1203T
1158.809	4.703	1163640	REC_WORD	4.703	n/a	WATER	-999	6	[0, 0, 0]	n/a	FR1	0	R1203T
1163.512	14.259	1168343	REC_WORD	14.259	n/a	LOVE	-999	6	[0, 0, 0]	n/a	FR1	0	R1203T
1177.771	17.996	1182601	REC_END	n/a	n/a	n/a	-999	6	[0, 0, 0]	n/a	FR1	0	R1203T
1195.767	0.5	1200596	TRIAL	n/a	n/a	n/a	-999	7	[0, 0, 0]	n/a	FR1	0	R1203T
1196.267	10.428	1201096	COUNTDOWN_START	n/a	n/a	n/a	-999	7	[0, 0, 0]	n/a	FR1	0	R1203T
1206.695	0.007	1211523	COUNTDOWN_END	n/a	n/a	n/a	-999	7	[0, 0, 0]	n/a	FR1	0	R1203T
1206.702	1.616	1211530	ORIENT	n/a	n/a	n/a	-999	7	[0, 0, 0]	n/a	FR1	0	R1203T
1208.318	2.185	1213146	ORIENT_OFF	n/a	n/a	n/a	-999	7	[0, 0, 0]	n/a	FR1	0	R1203T
1210.503	1.617	1215331	WORD	n/a	wordpools/wordpool_EN.txt	RAKE	1	7	[0, 0, 0]	n/a	FR1	0	R1203T
1212.12	1.0	1216948	WORD_OFF	n/a	n/a	RAKE	1	7	[0, 0, 0]	n/a	FR1	0	R1203T
1213.12	1.617	1217948	WORD	n/a	wordpools/wordpool_EN.txt	STEAM	2	7	[0, 0, 0]	n/a	FR1	0	R1203T
1214.737	0.867	1219565	WORD_OFF	n/a	n/a	STEAM	2	7	[0, 0, 0]	n/a	FR1	0	R1203T
1215.604	1.617	1220432	WORD	n/a	wordpools/wordpool_EN.txt	ROSE	3	7	[0, 0, 0]	n/a	FR1	0	R1203T
1217.221	0.984	1222049	WORD_OFF	n/a	n/a	ROSE	3	7	[0, 0, 0]	n/a	FR1	0	R1203T
1218.205	1.617	1223033	WORD	n/a	wordpools/wordpool_EN.txt	BRIDGE	4	7	[0, 0, 0]	n/a	FR1	0	R1203T
1219.822	0.816	1224650	WORD_OFF	n/a	n/a	BRIDGE	4	7	[0, 0, 0]	n/a	FR1	0	R1203T
1220.638	1.617	1225466	WORD	n/a	wordpools/wordpool_EN.txt	BEAK	5	7	[0, 0, 0]	n/a	FR1	0	R1203T
1222.255	0.784	1227082	WORD_OFF	n/a	n/a	BEAK	5	7	[0, 0, 0]	n/a	FR1	0	R1203T
1223.039	1.617	1227866	WORD	n/a	wordpools/wordpool_EN.txt	GOAT	6	7	[0, 0, 0]	n/a	FR1	0	R1203T
1224.656	0.933	1229483	WORD_OFF	n/a	n/a	GOAT	6	7	[0, 0, 0]	n/a	FR1	0	R1203T
1225.589	1.617	1230416	WORD	n/a	wordpools/wordpool_EN.txt	SWAMP	7	7	[0, 0, 0]	n/a	FR1	0	R1203T
1227.206	0.9	1232033	WORD_OFF	n/a	n/a	SWAMP	7	7	[0, 0, 0]	n/a	FR1	0	R1203T
1228.106	1.617	1232933	WORD	n/a	wordpools/wordpool_EN.txt	LAKE	8	7	[0, 0, 0]	n/a	FR1	0	R1203T
1229.723	0.784	1234550	WORD_OFF	n/a	n/a	LAKE	8	7	[0, 0, 0]	n/a	FR1	0	R1203T
1230.507	1.617	1235334	WORD	n/a	wordpools/wordpool_EN.txt	SPEAR	9	7	[0, 0, 0]	n/a	FR1	0	R1203T
1232.124	0.933	1236951	WORD_OFF	n/a	n/a	SPEAR	9	7	[0, 0, 0]	n/a	FR1	0	R1203T
1233.057	1.617	1237884	WORD	n/a	wordpools/wordpool_EN.txt	CONE	10	7	[0, 0, 0]	n/a	FR1	0	R1203T
1234.674	0.9	1239501	WORD_OFF	n/a	n/a	CONE	10	7	[0, 0, 0]	n/a	FR1	0	R1203T
1235.574	1.617	1240401	WORD	n/a	wordpools/wordpool_EN.txt	HORSE	11	7	[0, 0, 0]	n/a	FR1	0	R1203T
1237.191	0.85	1242018	WORD_OFF	n/a	n/a	HORSE	11	7	[0, 0, 0]	n/a	FR1	0	R1203T
1238.041	1.617	1242868	WORD	n/a	wordpools/wordpool_EN.txt	ROPE	12	7	[0, 0, 0]	n/a	FR1	0	R1203T
1239.658	0.0	1244484	WORD_OFF	n/a	n/a	ROPE	12	7	[0, 0, 0]	n/a	FR1	0	R1203T
1239.658	0.001	1244484	DISTRACT_START	n/a	n/a	n/a	-999	7	[0, 0, 0]	n/a	FR1	0	R1203T
1239.659	0.016	1244485	START	n/a	n/a	n/a	-999	7	[-999, -999, -999]	n/a	FR1	0	R1203T
1239.675	10.252	1244501	PROB	10.252	n/a	n/a	-999	7	[3, 3, 4]	10	FR1	0	R1203T
1249.927	11.211	1254753	PROB	11.211	n/a	n/a	-999	7	[8, 9, 8]	25	FR1	0	R1203T
1261.138	0.008	1265963	STOP	n/a	n/a	n/a	-999	7	[-999, -999, -999]	n/a	FR1	0	R1203T
1261.146	0.616	1265971	DISTRACT_END	n/a	n/a	n/a	-999	7	[0, 0, 0]	n/a	FR1	0	R1203T
1261.762	0.517	1266587	RETRIEVAL_ORIENT	n/a	n/a	n/a	-999	7	[0, 0, 0]	n/a	FR1	0	R1203T
1262.279	4.217	1267104	REC_START	n/a	n/a	n/a	-999	7	[0, 0, 0]	n/a	FR1	0	R1203T
1266.496	3.901	1271321	REC_WORD	3.901	n/a	FACE	-999	7	[0, 0, 0]	n/a	FR1	0	R1203T
1270.397	2.221	1275222	REC_WORD	2.221	n/a	HORSE	-999	7	[0, 0, 0]	n/a	FR1	0	R1203T
1272.618	1.878	1277443	REC_WORD	1.878	n/a	LAND	-999	7	[0, 0, 0]	n/a	FR1	0	R1203T
1274.496	4.471	1279321	REC_WORD	4.471	n/a	STEAM	-999	7	[0, 0, 0]	n/a	FR1	0	R1203T
1278.967	13.325	1283791	REC_WORD	13.325	n/a	TEETH	-999	7	[0, 0, 0]	n/a	FR1	0	R1203T
1292.292	7.511	1297116	REC_END	n/a	n/a	n/a	-999	7	[0, 0, 0]	n/a	FR1	0	R1203T
1299.803	0.5	1304626	TRIAL	n/a	n/a	n/a	-999	8	[0, 0, 0]	n/a	FR1	0	R1203T
1300.303	10.428	1305126	COUNTDOWN_START	n/a	n/a	n/a	-999	8	[0, 0, 0]	n/a	FR1	0	R1203T
1310.731	0.007	1315553	COUNTDOWN_END	n/a	n/a	n/a	-999	8	[0, 0, 0]	n/a	FR1	0	R1203T
1310.738	1.616	1315560	ORIENT	n/a	n/a	n/a	-999	8	[0, 0, 0]	n/a	FR1	0	R1203T
1312.354	2.351	1317176	ORIENT_OFF	n/a	n/a	n/a	-999	8	[0, 0, 0]	n/a	FR1	0	R1203T
1314.705	1.616	1319527	WORD	n/a	wordpools/wordpool_EN.txt	SAIL	1	8	[0, 0, 0]	n/a	FR1	0	R1203T
1316.321	0.801	1321143	WORD_OFF	n/a	n/a	SAIL	1	8	[0, 0, 0]	n/a	FR1	0	R1203T
1317.122	1.617	1321944	WORD	n/a	wordpools/wordpool_EN.txt	SIGN	2	8	[0, 0, 0]	n/a	FR1	0	R1203T
1318.739	0.951	1323561	WORD_OFF	n/a	n/a	SIGN	2	8	[0, 0, 0]	n/a	FR1	0	R1203T
1319.69	1.616	1324512	WORD	n/a	wordpools/wordpool_EN.txt	SKY	3	8	[0, 0, 0]	n/a	FR1	0	R1203T
1321.306	0.817	1326128	WORD_OFF	n/a	n/a	SKY	3	8	[0, 0, 0]	n/a	FR1	0	R1203T
1322.123	1.617	1326945	WORD	n/a	wordpools/wordpool_EN.txt	STAR	4	8	[0, 0, 0]	n/a	FR1	0	R1203T
1323.74	0.85	1328562	WORD_OFF	n/a	n/a	STAR	4	8	[0, 0, 0]	n/a	FR1	0	R1203T
1324.59	1.617	1329412	WORD	n/a	wordpools/wordpool_EN.txt	FOAM	5	8	[0, 0, 0]	n/a	FR1	0	R1203T
1326.207	0.901	1331029	WORD_OFF	n/a	n/a	FOAM	5	8	[0, 0, 0]	n/a	FR1	0	R1203T
1327.108	1.617	1331930	WORD	n/a	wordpools/wordpool_EN.txt	RAIN	6	8	[0, 0, 0]	n/a	FR1	0	R1203T
1328.725	0.933	1333546	WORD_OFF	n/a	n/a	RAIN	6	8	[0, 0, 0]	n/a	FR1	0	R1203T
1329.658	1.616	1334479	WORD	n/a	wordpools/wordpool_EN.txt	PALM	7	8	[0, 0, 0]	n/a	FR1	0	R1203T
1331.274	0.985	1336095	WORD_OFF	n/a	n/a	PALM	7	8	[0, 0, 0]	n/a	FR1	0	R1203T
1332.259	1.616	1337080	WORD	n/a	wordpools/wordpool_EN.txt	ARM	8	8	[0, 0, 0]	n/a	FR1	0	R1203T
1333.875	0.901	1338696	WORD_OFF	n/a	n/a	ARM	8	8	[0, 0, 0]	n/a	FR1	0	R1203T
1334.776	1.616	1339597	WORD	n/a	wordpools/wordpool_EN.txt	MOOSE	9	8	[0, 0, 0]	n/a	FR1	0	R1203T
1336.392	0.801	1341213	WORD_OFF	n/a	n/a	MOOSE	9	8	[0, 0, 0]	n/a	FR1	0	R1203T
1337.193	1.617	1342014	WORD	n/a	wordpools/wordpool_EN.txt	DOCK	10	8	[0, 0, 0]	n/a	FR1	0	R1203T
1338.81	0.95	1343631	WORD_OFF	n/a	n/a	DOCK	10	8	[0, 0, 0]	n/a	FR1	0	R1203T
1339.76	1.616	1344581	WORD	n/a	wordpools/wordpool_EN.txt	SWORD	11	8	[0, 0, 0]	n/a	FR1	0	R1203T
1341.376	0.834	1346197	WORD_OFF	n/a	n/a	SWORD	11	8	[0, 0, 0]	n/a	FR1	0	R1203T
1342.21	1.617	1347031	WORD	n/a	wordpools/wordpool_EN.txt	SHIP	12	8	[0, 0, 0]	n/a	FR1	0	R1203T
1343.827	0.0	1348648	WORD_OFF	n/a	n/a	SHIP	12	8	[0, 0, 0]	n/a	FR1	0	R1203T
1343.827	0.001	1348648	DISTRACT_START	n/a	n/a	n/a	-999	8	[0, 0, 0]	n/a	FR1	0	R1203T
1343.828	0.016	1348649	START	n/a	n/a	n/a	-999	8	[-999, -999, -999]	n/a	FR1	0	R1203T
1343.844	7.185	1348665	PROB	7.185	n/a	n/a	-999	8	[4, 4, 2]	10	FR1	0	R1203T
1351.029	17.781	1355849	PROB	17.781	n/a	n/a	-999	8	[7, 6, 8]	21	FR1	0	R1203T
1368.81	0.022	1373629	STOP	n/a	n/a	n/a	-999	8	[-999, -999, -999]	n/a	FR1	0	R1203T
1368.832	0.65	1373651	DISTRACT_END	n/a	n/a	n/a	-999	8	[0, 0, 0]	n/a	FR1	0	R1203T
1369.482	0.517	1374301	RETRIEVAL_ORIENT	n/a	n/a	n/a	-999	8	[0, 0, 0]	n/a	FR1	0	R1203T
1369.999	8.398	1374818	REC_START	n/a	n/a	n/a	-999	8	[0, 0, 0]	n/a	FR1	0	R1203T
1378.397	2.188	1383216	REC_WORD	2.188	n/a	DUCK	-999	8	[0, 0, 0]	n/a	FR1	0	R1203T
1380.585	2.798	1385404	REC_WORD	2.798	n/a	HORSE	-999	8	[0, 0, 0]	n/a	FR1	0	R1203T
1383.383	4.97	1388201	REC_WORD	4.97	n/a	MINE	-999	8	[0, 0, 0]	n/a	FR1	0	R1203T
1388.353	5.834	1393171	REC_WORD	5.834	n/a	FISHERMAN	-999	8	[0, 0, 0]	n/a	FR1	0	R1203T
1394.187	4.593	1399005	REC_WORD	4.593	n/a	ANT	-999	8	[0, 0, 0]	n/a	FR1	0	R1203T
1398.78	1.232	1403598	REC_WORD	1.232	n/a	STORM	-999	8	[0, 0, 0]	n/a	FR1	0	R1203T
1400.012	6.86	1404830	REC_END	n/a	n/a	n/a	-999	8	[0, 0, 0]	n/a	FR1	0	R1203T
1406.872	0.5	1411689	TRIAL	n/a	n/a	n/a	-999	9	[0, 0, 0]	n/a	FR1	0	R1203T
1407.372	10.428	1412189	COUNTDOWN_START	n/a	n/a	n/a	-999	9	[0, 0, 0]	n/a	FR1	0	R1203T
1417.8	0.007	1422617	COUNTDOWN_END	n/a	n/a	n/a	-999	9	[0, 0, 0]	n/a	FR1	0	R1203T
1417.807	1.616	1422624	ORIENT	n/a	n/a	n/a	-999	9	[0, 0, 0]	n/a	FR1	0	R1203T
1419.423	2.052	1424239	ORIENT_OFF	n/a	n/a	n/a	-999	9	[0, 0, 0]	n/a	FR1	0	R1203T
1421.475	1.617	1426291	WORD	n/a	wordpools/wordpool_EN.txt	TANK	1	9	[0, 0, 0]	n/a	FR1	0	R1203T
1423.092	0.817	1427908	WORD_OFF	n/a	n/a	TANK	1	9	[0, 0, 0]	n/a	FR1	0	R1203T
1423.909	1.616	1428725	WORD	n/a	wordpools/wordpool_EN.txt	ROCK	2	9	[0, 0, 0]	n/a	FR1	0	R1203T
1425.525	0.766	1430341	WORD_OFF	n/a	n/a	ROCK	2	9	[0, 0, 0]	n/a	FR1	0	R1203T
1426.291	1.618	1431107	WORD	n/a	wordpools/wordpool_EN.txt	HOSE	3	9	[0, 0, 0]	n/a	FR1	0	R1203T
1427.909	1.0	1432725	WORD_OFF	n/a	n/a	HOSE	3	9	[0, 0, 0]	n/a	FR1	0	R1203T
1428.909	1.617	1433725	WORD	n/a	wordpools/wordpool_EN.txt	RICE	4	9	[0, 0, 0]	n/a	FR1	0	R1203T
1430.526	0.783	1435342	WORD_OFF	n/a	n/a	RICE	4	9	[0, 0, 0]	n/a	FR1	0	R1203T
1431.309	1.618	1436125	WORD	n/a	wordpools/wordpool_EN.txt	SEED	5	9	[0, 0, 0]	n/a	FR1	0	R1203T
1432.927	0.983	1437743	WORD_OFF	n/a	n/a	SEED	5	9	[0, 0, 0]	n/a	FR1	0	R1203T
1433.91	1.617	1438726	WORD	n/a	wordpools/wordpool_EN.txt	SOAP	6	9	[0, 0, 0]	n/a	FR1	0	R1203T
1435.527	0.951	1440343	WORD_OFF	n/a	n/a	SOAP	6	9	[0, 0, 0]	n/a	FR1	0	R1203T
1436.478	1.616	1441293	WORD	n/a	wordpools/wordpool_EN.txt	WORLD	7	9	[0, 0, 0]	n/a	FR1	0	R1203T
1438.094	0.834	1442909	WORD_OFF	n/a	n/a	WORLD	7	9	[0, 0, 0]	n/a	FR1	0	R1203T
1438.928	1.617	1443743	WORD	n/a	wordpools/wordpool_EN.txt	BRICK	8	9	[0, 0, 0]	n/a	FR1	0	R1203T
1440.545	0.983	1445360	WORD_OFF	n/a	n/a	BRICK	8	9	[0, 0, 0]	n/a	FR1	0	R1203T
1441.528	1.617	1446343	WORD	n/a	wordpools/wordpool_EN.txt	CLAY	9	9	[0, 0, 0]	n/a	FR1	0	R1203T
1443.145	0.901	1447960	WORD_OFF	n/a	n/a	CLAY	9	9	[0, 0, 0]	n/a	FR1	0	R1203T
1444.046	1.617	1448861	WORD	n/a	wordpools/wordpool_EN.txt	CLOTH	10	9	[0, 0, 0]	n/a	FR1	0	R1203T
1445.663	0.866	1450478	WORD_OFF	n/a	n/a	CLOTH	10	9	[0, 0, 0]	n/a	FR1	0	R1203T
1446.529	1.617	1451344	WORD	n/a	wordpools/wordpool_EN.txt	FRUIT	11	9	[0, 0, 0]	n/a	FR1	0	R1203T
1448.146	0.834	1452961	WORD_OFF	n/a	n/a	FRUIT	11	9	[0, 0, 0]	n/a	FR1	0	R1203T
1448.98	1.617	1453795	WORD	n/a	wordpools/wordpool_EN.txt	WOOD	12	9	[0, 0, 0]	n/a	FR1	0	R1203T
1450.597	0.0	1455412	WORD_OFF	n/a	n/a	WOOD	12	9	[0, 0, 0]	n/a	FR1	0	R1203T
1450.597	0.0	1455412	DISTRACT_START	n/a	n/a	n/a	-999	9	[0, 0, 0]	n/a	FR1	0	R1203T
1450.597	0.016	1455412	START	n/a	n/a	n/a	-999	9	[-999, -999, -999]	n/a	FR1	0	R1203T
1450.613	15.786	1455428	PROB	15.786	n/a	n/a	-999	9	[8, 2, 7]	17	FR1	0	R1203T
1466.399	9.507	1471213	PROB	9.507	n/a	n/a	-999	9	[7, 7, 8]	22	FR1	0	R1203T
1475.906	0.012	1480719	STOP	n/a	n/a	n/a	-999	9	[-999, -999, -999]	n/a	FR1	0	R1203T
1475.918	0.583	1480731	DISTRACT_END	n/a	n/a	n/a	-999	9	[0, 0, 0]	n/a	FR1	0	R1203T
1476.501	0.518	1481314	RETRIEVAL_ORIENT	n/a	n/a	n/a	-999	9	[0, 0, 0]	n/a	FR1	0	R1203T
1477.019	1.586	1481832	REC_START	n/a	n/a	n/a	-999	9	[0, 0, 0]	n/a	FR1	0	R1203T
1478.605	8.637	1483418	REC_WORD	8.637	n/a	WOOD	-999	9	[0, 0, 0]	n/a	FR1	0	R1203T
1487.242	2.334	1492055	REC_WORD	2.334	n/a	WOOD	-999	9	[0, 0, 0]	n/a	FR1	0	R1203T
1489.576	6.831	1494389	REC_WORD	6.831	n/a	LINE	-999	9	[0, 0, 0]	n/a	FR1	0	R1203T
1496.407	3.463	1501219	REC_WORD	3.463	n/a	ROOF	-999	9	[0, 0, 0]	n/a	FR1	0	R1203T
1499.87	4.143	1504682	REC_WORD	4.143	n/a	SAIL	-999	9	[0, 0, 0]	n/a	FR1	0	R1203T
1504.013	3.018	1508825	REC_WORD	3.018	n/a	BOAT	-999	9	[0, 0, 0]	n/a	FR1	0	R1203T
1507.031	9.678	1511843	REC_END	n/a	n/a	n/a	-999	9	[0, 0, 0]	n/a	FR1	0	R1203T
1516.709	0.5	1521520	TRIAL	n/a	n/a	n/a	-999	10	[0, 0, 0]	n/a	FR1	0	R1203T
1517.209	10.428	1522020	COUNTDOWN_START	n/a	n/a	n/a	-999	10	[0, 0, 0]	n/a	FR1	0	R1203T
1527.637	0.007	1532447	COUNTDOWN_END	n/a	n/a	n/a	-999	10	[0, 0, 0]	n/a	FR1	0	R1203T
1527.644	1.617	1532454	ORIENT	n/a	n/a	n/a	-999	10	[0, 0, 0]	n/a	FR1	0	R1203T
1529.261	1.967	1534071	ORIENT_OFF	n/a	n/a	n/a	-999	10	[0, 0, 0]	n/a	FR1	0	R1203T
1531.228	1.617	1536038	WORD	n/a	wordpools/wordpool_EN.txt	MAZE	1	10	[0, 0, 0]	n/a	FR1	0	R1203T
1532.845	0.933	1537655	WORD_OFF	n/a	n/a	MAZE	1	10	[0, 0, 0]	n/a	FR1	0	R1203T
1533.778	1.617	1538588	WORD	n/a	wordpools/wordpool_EN.txt	CAR	2	10	[0, 0, 0]	n/a	FR1	0	R1203T
1535.395	0.933	1540205	WORD_OFF	n/a	n/a	CAR	2	10	[0, 0, 0]	n/a	FR1	0	R1203T
1536.328	1.601	1541138	WORD	n/a	wordpools/wordpool_EN.txt	WALL	3	10	[0, 0, 0]	n/a	FR1	0	R1203T
1537.929	0.884	1542739	WORD_OFF	n/a	n/a	WALL	3	10	[0, 0, 0]	n/a	FR1	0	R1203T
1538.813	1.616	1543623	WORD	n/a	wordpools/wordpool_EN.txt	FLAG	4	10	[0, 0, 0]	n/a	FR1	0	R1203T
1540.429	0.768	1545239	WORD_OFF	n/a	n/a	FLAG	4	10	[0, 0, 0]	n/a	FR1	0	R1203T
1541.197	1.617	1546007	WORD	n/a	wordpools/wordpool_EN.txt	JAIL	5	10	[0, 0, 0]	n/a	FR1	0	R1203T
1542.814	1.0	1547624	WORD_OFF	n/a	n/a	JAIL	5	10	[0, 0, 0]	n/a	FR1	0	R1203T
1543.814	1.616	1548624	WORD	n/a	wordpools/wordpool_EN.txt	HAT	6	10	[0, 0, 0]	n/a	FR1	0	R1203T
1545.43	0.95	1550239	WORD_OFF	n/a	n/a	HAT	6	10	[0, 0, 0]	n/a	FR1	0	R1203T
1546.38	1.618	1551189	WORD	n/a	wordpools/wordpool_EN.txt	FUDGE	7	10	[0, 0, 0]	n/a	FR1	0	R1203T
1547.998	1.0	1552807	WORD_OFF	n/a	n/a	FUDGE	7	10	[0, 0, 0]	n/a	FR1	0	R1203T
1548.998	1.617	1553807	WORD	n/a	wordpools/wordpool_EN.txt	SMOKE	8	10	[0, 0, 0]	n/a	FR1	0	R1203T
1550.615	0.933	1555424	WORD_OFF	n/a	n/a	SMOKE	8	10	[0, 0, 0]	n/a	FR1	0	R1203T
1551.548	1.617	1556357	WORD	n/a	wordpools/wordpool_EN.txt	PHONE	9	10	[0, 0, 0]	n/a	FR1	0	R1203T
1553.165	0.9	1557974	WORD_OFF	n/a	n/a	PHONE	9	10	[0, 0, 0]	n/a	FR1	0	R1203T
1554.065	1.617	1558874	WORD	n/a	wordpools/wordpool_EN.txt	STAIR	10	10	[0, 0, 0]	n/a	FR1	0	R1203T
1555.682	0.834	1560491	WORD_OFF	n/a	n/a	STAIR	10	10	[0, 0, 0]	n/a	FR1	0	R1203T
1556.516	1.617	1561325	WORD	n/a	wordpools/wordpool_EN.txt	SUIT	11	10	[0, 0, 0]	n/a	FR1	0	R1203T
1558.133	0.95	1562942	WORD_OFF	n/a	n/a	SUIT	11	10	[0, 0, 0]	n/a	FR1	0	R1203T
1559.083	1.617	1563892	WORD	n/a	wordpools/wordpool_EN.txt	HEART	12	10	[0, 0, 0]	n/a	FR1	0	R1203T
1560.7	0.0	1565509	WORD_OFF	n/a	n/a	HEART	12	10	[0, 0, 0]	n/a	FR1	0	R1203T
1560.7	0.001	1565509	DISTRACT_START	n/a	n/a	n/a	-999	10	[0, 0, 0]	n/a	FR1	0	R1203T
1560.701	0.016	1565510	START	n/a	n/a	n/a	-999	10	[-999, -999, -999]	n/a	FR1	0	R1203T
1560.717	9.185	1565526	PROB	9.185	n/a	n/a	-999	10	[8, 2, 2]	12	FR1	0	R1203T
1569.902	9.668	1574710	PROB	9.668	n/a	n/a	-999	10	[9, 5, 7]	21	FR1	0	R1203T
1579.57	7.871	1584378	PROB	7.871	n/a	n/a	-999	10	[9, 2, 7]	18	FR1	0	R1203T
1587.441	0.014	1592248	STOP	n/a	n/a	n/a	-999	10	[-999, -999, -999]	n/a	FR1	0	R1203T
1587.455	0.683	1592262	DISTRACT_END	n/a	n/a	n/a	-999	10	[0, 0, 0]	n/a	FR1	0	R1203T
1588.138	0.518	1592945	RETRIEVAL_ORIENT	n/a	n/a	n/a	-999	10	[0, 0, 0]	n/a	FR1	0	R1203T
1588.656	1.66	1593463	REC_START	n/a	n/a	n/a	-999	10	[0, 0, 0]	n/a	FR1	0	R1203T
1590.316	8.829	1595123	REC_WORD	8.829	n/a	HEART	-999	10	[0, 0, 0]	n/a	FR1	0	R1203T
1599.145	18.555	1603951	REC_WORD	18.555	n/a	LAND	-999	10	[0, 0, 0]	n/a	FR1	0	R1203T
1617.7	0.969	1622505	REC_WORD	0.969	n/a	VINE	-999	10	[0, 0, 0]	n/a	FR1	0	R1203T
1618.669	39.099	1623474	REC_END	n/a	n/a	n/a	-999	10	[0, 0, 0]	n/a	FR1	0	R1203T
1657.768	0.5	1662571	TRIAL	n/a	n/a	n/a	-999	11	[0, 0, 0]	n/a	FR1	0	R1203T
1658.268	10.428	1663071	COUNTDOWN_START	n/a	n/a	n/a	-999	11	[0, 0, 0]	n/a	FR1	0	R1203T
1668.696	0.007	1673499	COUNTDOWN_END	n/a	n/a	n/a	-999	11	[0, 0, 0]	n/a	FR1	0	R1203T
1668.703	1.616	1673506	ORIENT	n/a	n/a	n/a	-999	11	[0, 0, 0]	n/a	FR1	0	R1203T
1670.319	2.268	1675121	ORIENT_OFF	n/a	n/a	n/a	-999	11	[0, 0, 0]	n/a	FR1	0	R1203T
1672.587	1.617	1677389	WORD	n/a	wordpools/wordpool_EN.txt	MOUSE	1	11	[0, 0, 0]	n/a	FR1	0	R1203T
1674.204	0.95	1679006	WORD_OFF	n/a	n/a	MOUSE	1	11	[0, 0, 0]	n/a	FR1	0	R1203T
1675.154	1.617	1679956	WORD	n/a	wordpools/wordpool_EN.txt	TRAIN	2	11	[0, 0, 0]	n/a	FR1	0	R1203T
1676.771	0.767	1681573	WORD_OFF	n/a	n/a	TRAIN	2	11	[0, 0, 0]	n/a	FR1	0	R1203T
1677.538	1.617	1682340	WORD	n/a	wordpools/wordpool_EN.txt	SHEEP	3	11	[0, 0, 0]	n/a	FR1	0	R1203T
1679.155	0.9	1683957	WORD_OFF	n/a	n/a	SHEEP	3	11	[0, 0, 0]	n/a	FR1	0	R1203T
1680.055	1.617	1684857	WORD	n/a	wordpools/wordpool_EN.txt	TRASH	4	11	[0, 0, 0]	n/a	FR1	0	R1203T
1681.672	0.983	1686474	WORD_OFF	n/a	n/a	TRASH	4	11	[0, 0, 0]	n/a	FR1	0	R1203T
1682.655	1.617	1687457	WORD	n/a	wordpools/wordpool_EN.txt	MOON	5	11	[0, 0, 0]	n/a	FR1	0	R1203T
1684.272	1.0	1689074	WORD_OFF	n/a	n/a	MOON	5	11	[0, 0, 0]	n/a	FR1	0	R1203T
1685.272	1.618	1690074	WORD	n/a	wordpools/wordpool_EN.txt	BANK	6	11	[0, 0, 0]	n/a	FR1	0	R1203T
1686.89	0.783	1691692	WORD_OFF	n/a	n/a	BANK	6	11	[0, 0, 0]	n/a	FR1	0	R1203T
1687.673	1.616	1692475	WORD	n/a	wordpools/wordpool_EN.txt	APE	7	11	[0, 0, 0]	n/a	FR1	0	R1203T
1689.289	0.885	1694090	WORD_OFF	n/a	n/a	APE	7	11	[0, 0, 0]	n/a	FR1	0	R1203T
1690.174	1.617	1694975	WORD	n/a	wordpools/wordpool_EN.txt	WAVE	8	11	[0, 0, 0]	n/a	FR1	0	R1203T
1691.791	0.966	1696592	WORD_OFF	n/a	n/a	WAVE	8	11	[0, 0, 0]	n/a	FR1	0	R1203T
1692.757	1.616	1697558	WORD	n/a	wordpools/wordpool_EN.txt	BOOK	9	11	[0, 0, 0]	n/a	FR1	0	R1203T
1694.373	0.967	1699174	WORD_OFF	n/a	n/a	BOOK	9	11	[0, 0, 0]	n/a	FR1	0	R1203T
1695.34	1.618	1700141	WORD	n/a	wordpools/wordpool_EN.txt	BOMB	10	11	[0, 0, 0]	n/a	FR1	0	R1203T
1696.958	0.8	1701759	WORD_OFF	n/a	n/a	BOMB	10	11	[0, 0, 0]	n/a	FR1	0	R1203T
1697.758	1.616	1702559	WORD	n/a	wordpools/wordpool_EN.txt	FORT	11	11	[0, 0, 0]	n/a	FR1	0	R1203T
1699.374	0.818	1704175	WORD_OFF	n/a	n/a	FORT	11	11	[0, 0, 0]	n/a	FR1	0	R1203T
1700.192	1.617	1704993	WORD	n/a	wordpools/wordpool_EN.txt	GOLD	12	11	[0, 0, 0]	n/a	FR1	0	R1203T
1701.809	0.0	1706610	WORD_OFF	n/a	n/a	GOLD	12	11	[0, 0, 0]	n/a	FR1	0	R1203T
1701.809	0.001	1706610	DISTRACT_START	n/a	n/a	n/a	-999	11	[0, 0, 0]	n/a	FR1	0	R1203T
1701.81	0.016	1706611	START	n/a	n/a	n/a	-999	11	[-999, -999, -999]	n/a	FR1	0	R1203T
1701.826	9.968	1706627	PROB	9.968	n/a	n/a	-999	11	[7, 3, 9]	19	FR1	0	R1203T
1711.794	18.257	1716594	PROB	18.257	n/a	n/a	-999	11	[6, 9, 5]	20	FR1	0	R1203T
1730.051	0.013	1734850	STOP	n/a	n/a	n/a	-999	11	[-999, -999, -999]	n/a	FR1	0	R1203T
1730.064	0.55	1734863	DISTRACT_END	n/a	n/a	n/a	-999	11	[0, 0, 0]	n/a	FR1	0	R1203T
1730.614	0.518	1735413	RETRIEVAL_ORIENT	n/a	n/a	n/a	-999	11	[0, 0, 0]	n/a	FR1	0	R1203T
1731.132	4.417	1735931	REC_START	n/a	n/a	n/a	-999	11	[0, 0, 0]	n/a	FR1	0	R1203T
1735.549	4.507	1740348	REC_WORD	4.507	n/a	TRAIN	-999	11	[0, 0, 0]	n/a	FR1	0	R1203T
1740.056	4.697	1744855	REC_WORD	4.697	n/a	ATE	-999	11	[0, 0, 0]	n/a	FR1	0	R1203T
1744.753	16.389	1749551	REC_WORD	16.389	n/a	MOUTH	-999	11	[0, 0, 0]	n/a	FR1	0	R1203T
1761.142	6.079	1765939	REC_END	n/a	n/a	n/a	-999	11	[0, 0, 0]	n/a	FR1	0	R1203T
1767.221	0.5	1772018	TRIAL	n/a	n/a	n/a	-999	12	[0, 0, 0]	n/a	FR1	0	R1203T
1767.721	10.428	1772518	COUNTDOWN_START	n/a	n/a	n/a	-999	12	[0, 0, 0]	n/a	FR1	0	R1203T
1778.149	0.007	1782945	COUNTDOWN_END	n/a	n/a	n/a	-999	12	[0, 0, 0]	n/a	FR1	0	R1203T
1778.156	1.617	1782952	ORIENT	n/a	n/a	n/a	-999	12	[0, 0, 0]	n/a	FR1	0	R1203T
1779.773	2.267	1784569	ORIENT_OFF	n/a	n/a	n/a	-999	12	[0, 0, 0]	n/a	FR1	0	R1203T
1782.04	1.617	1786836	WORD	n/a	wordpools/wordpool_EN.txt	BLOOM	1	12	[0, 0, 0]	n/a	FR1	0	R1203T
1783.657	1.017	1788453	WORD_OFF	n/a	n/a	BLOOM	1	12	[0, 0, 0]	n/a	FR1	0	R1203T
1784.674	1.616	1789470	WORD	n/a	wordpools/wordpool_EN.txt	POND	2	12	[0, 0, 0]	n/a	FR1	0	R1203T
1786.29	0.934	1791086	WORD_OFF	n/a	n/a	POND	2	12	[0, 0, 0]	n/a	FR1	0	R1203T
1787.224	1.618	1792020	WORD	n/a	wordpools/wordpool_EN.txt	SNAIL	3	12	[0, 0, 0]	n/a	FR1	0	R1203T
1788.842	0.983	1793638	WORD_OFF	n/a	n/a	SNAIL	3	12	[0, 0, 0]	n/a	FR1	0	R1203T
1789.825	1.616	1794621	WORD	n/a	wordpools/wordpool_EN.txt	SHRIMP	4	12	[0, 0, 0]	n/a	FR1	0	R1203T
1791.441	0.983	1796237	WORD_OFF	n/a	n/a	SHRIMP	4	12	[0, 0, 0]	n/a	FR1	0	R1203T
1792.424	1.602	1797220	WORD	n/a	wordpools/wordpool_EN.txt	WAND	5	12	[0, 0, 0]	n/a	FR1	0	R1203T
1794.026	0.933	1798822	WORD_OFF	n/a	n/a	WAND	5	12	[0, 0, 0]	n/a	FR1	0	R1203T
1794.959	1.617	1799755	WORD	n/a	wordpools/wordpool_EN.txt	SNOW	6	12	[0, 0, 0]	n/a	FR1	0	R1203T
1796.576	0.9	1801371	WORD_OFF	n/a	n/a	SNOW	6	12	[0, 0, 0]	n/a	FR1	0	R1203T
1797.476	1.617	1802271	WORD	n/a	wordpools/wordpool_EN.txt	SALT	7	12	[0, 0, 0]	n/a	FR1	0	R1203T
1799.093	0.867	1803888	WORD_OFF	n/a	n/a	SALT	7	12	[0, 0, 0]	n/a	FR1	0	R1203T
1799.96	1.617	1804755	WORD	n/a	wordpools/wordpool_EN.txt	TREE	8	12	[0, 0, 0]	n/a	FR1	0	R1203T
1801.577	0.967	1806372	WORD_OFF	n/a	n/a	TREE	8	12	[0, 0, 0]	n/a	FR1	0	R1203T
1802.544	1.617	1807339	WORD	n/a	wordpools/wordpool_EN.txt	SHELL	9	12	[0, 0, 0]	n/a	FR1	0	R1203T
1804.161	0.85	1808956	WORD_OFF	n/a	n/a	SHELL	9	12	[0, 0, 0]	n/a	FR1	0	R1203T
1805.011	1.617	1809806	WORD	n/a	wordpools/wordpool_EN.txt	BEACH	10	12	[0, 0, 0]	n/a	FR1	0	R1203T
1806.628	0.967	1811423	WORD_OFF	n/a	n/a	BEACH	10	12	[0, 0, 0]	n/a	FR1	0	R1203T
1807.595	1.617	1812390	WORD	n/a	wordpools/wordpool_EN.txt	POLE	11	12	[0, 0, 0]	n/a	FR1	0	R1203T
1809.212	0.85	1814007	WORD_OFF	n/a	n/a	POLE	11	12	[0, 0, 0]	n/a	FR1	0	R1203T
1810.062	1.617	1814857	WORD	n/a	wordpools/wordpool_EN.txt	FISH	12	12	[0, 0, 0]	n/a	FR1	0	R1203T
1811.679	0.0	1816474	WORD_OFF	n/a	n/a	FISH	12	12	[0, 0, 0]	n/a	FR1	0	R1203T
1811.679	0.001	1816474	DISTRACT_START	n/a	n/a	n/a	-999	12	[0, 0, 0]	n/a	FR1	0	R1203T
1811.68	0.016	1816475	START	n/a	n/a	n/a	-999	12	[-999, -999, -999]	n/a	FR1	0	R1203T
1811.696	7.784	1816491	PROB	7.784	n/a	n/a	-999	12	[7, 3, 5]	15	FR1	0	R1203T
1819.48	8.052	1824274	PROB	8.052	n/a	n/a	-999	12	[7, 6, 4]	17	FR1	0	R1203T
1827.532	12.142	1832326	PROB	12.142	n/a	n/a	-999	12	[3, 6, 2]	11	FR1	0	R1203T
1839.674	0.01	1844467	STOP	n/a	n/a	n/a	-999	12	[-999, -999, -999]	n/a	FR1	0	R1203T
1839.684	0.616	1844477	DISTRACT_END	n/a	n/a	n/a	-999	12	[0, 0, 0]	n/a	FR1	0	R1203T
1840.3	0.519	1845093	RETRIEVAL_ORIENT	n/a	n/a	n/a	-999	12	[0, 0, 0]	n/a	FR1	0	R1203T
1840.819	4.651	1845612	REC_START	n/a	n/a	n/a	-999	12	[0, 0, 0]	n/a	FR1	0	R1203T
1845.47	4.997	1850263	REC_WORD	4.997	n/a	VINE	-999	12	[0, 0, 0]	n/a	FR1	0	R1203T
1850.467	5.831	1855259	REC_WORD	5.831	n/a	MOUTH	-999	12	[0, 0, 0]	n/a	FR1	0	R1203T
1856.298	14.532	1861090	REC_WORD	14.532	n/a	BEACH	-999	12	[0, 0, 0]	n/a	FR1	0	R1203T
1870.83	17.196	1875621	REC_END	n/a	n/a	n/a	-999	12	[0, 0, 0]	n/a	FR1	0	R1203T
1888.026	0.5	1892816	TRIAL	n/a	n/a	n/a	-999	13	[0, 0, 0]	n/a	FR1	0	R1203T
1888.526	10.428	1893316	COUNTDOWN_START	n/a	n/a	n/a	-999	13	[0, 0, 0]	n/a	FR1	0	R1203T
1898.954	0.008	1903744	COUNTDOWN_END	n/a	n/a	n/a	-999	13	[0, 0, 0]	n/a	FR1	0	R1203T
1898.962	1.616	1903752	ORIENT	n/a	n/a	n/a	-999	13	[0, 0, 0]	n/a	FR1	0	R1203T
1900.578	2.117	1905368	ORIENT_OFF	n/a	n/a	n/a	-999	13	[0, 0, 0]	n/a	FR1	0	R1203T
1902.695	1.616	1907485	WORD	n/a	wordpools/wordpool_EN.txt	NET	1	13	[0, 0, 0]	n/a	FR1	0	R1203T
1904.311	0.785	1909100	WORD_OFF	n/a	n/a	NET	1	13	[0, 0, 0]	n/a	FR1	0	R1203T
1905.096	1.617	1909885	WORD	n/a	wordpools/wordpool_EN.txt	CLOUD	2	13	[0, 0, 0]	n/a	FR1	0	R1203T
1906.713	0.833	1911502	WORD_OFF	n/a	n/a	CLOUD	2	13	[0, 0, 0]	n/a	FR1	0	R1203T
1907.546	1.617	1912335	WORD	n/a	wordpools/wordpool_EN.txt	WHEEL	3	13	[0, 0, 0]	n/a	FR1	0	R1203T
1909.163	0.984	1913952	WORD_OFF	n/a	n/a	WHEEL	3	13	[0, 0, 0]	n/a	FR1	0	R1203T
1910.147	1.617	1914936	WORD	n/a	wordpools/wordpool_EN.txt	PLANE	4	13	[0, 0, 0]	n/a	FR1	0	R1203T
1911.764	0.8	1916553	WORD_OFF	n/a	n/a	PLANE	4	13	[0, 0, 0]	n/a	FR1	0	R1203T
1912.564	1.617	1917353	WORD	n/a	wordpools/wordpool_EN.txt	JET	5	13	[0, 0, 0]	n/a	FR1	0	R1203T
1914.181	0.967	1918970	WORD_OFF	n/a	n/a	JET	5	13	[0, 0, 0]	n/a	FR1	0	R1203T
1915.148	1.617	1919937	WORD	n/a	wordpools/wordpool_EN.txt	MOLE	6	13	[0, 0, 0]	n/a	FR1	0	R1203T
1916.765	0.883	1921554	WORD_OFF	n/a	n/a	MOLE	6	13	[0, 0, 0]	n/a	FR1	0	R1203T
1917.648	1.617	1922437	WORD	n/a	wordpools/wordpool_EN.txt	SKI	7	13	[0, 0, 0]	n/a	FR1	0	R1203T
1919.265	0.967	1924054	WORD_OFF	n/a	n/a	SKI	7	13	[0, 0, 0]	n/a	FR1	0	R1203T
1920.232	1.617	1925021	WORD	n/a	wordpools/wordpool_EN.txt	BEAR	8	13	[0, 0, 0]	n/a	FR1	0	R1203T
1921.849	0.8	1926637	WORD_OFF	n/a	n/a	BEAR	8	13	[0, 0, 0]	n/a	FR1	0	R1203T
1922.649	1.617	1927437	WORD	n/a	wordpools/wordpool_EN.txt	SPARK	9	13	[0, 0, 0]	n/a	FR1	0	R1203T
1924.266	0.917	1929054	WORD_OFF	n/a	n/a	SPARK	9	13	[0, 0, 0]	n/a	FR1	0	R1203T
1925.183	1.617	1929971	WORD	n/a	wordpools/wordpool_EN.txt	ICE	10	13	[0, 0, 0]	n/a	FR1	0	R1203T
1926.8	0.8	1931588	WORD_OFF	n/a	n/a	ICE	10	13	[0, 0, 0]	n/a	FR1	0	R1203T
1927.6	1.617	1932388	WORD	n/a	wordpools/wordpool_EN.txt	ZOO	11	13	[0, 0, 0]	n/a	FR1	0	R1203T
1929.217	0.85	1934005	WORD_OFF	n/a	n/a	ZOO	11	13	[0, 0, 0]	n/a	FR1	0	R1203T
1930.067	1.617	1934855	WORD	n/a	wordpools/wordpool_EN.txt	SLIME	12	13	[0, 0, 0]	n/a	FR1	0	R1203T
1931.684	0.0	1936472	WORD_OFF	n/a	n/a	SLIME	12	13	[0, 0, 0]	n/a	FR1	0	R1203T
1931.684	0.001	1936472	DISTRACT_START	n/a	n/a	n/a	-999	13	[0, 0, 0]	n/a	FR1	0	R1203T
1931.685	0.016	1936473	START	n/a	n/a	n/a	-999	13	[-999, -999, -999]	n/a	FR1	0	R1203T
1931.701	11.902	1936489	PROB	11.902	n/a	n/a	-999	13	[3, 9, 9]	21	FR1	0	R1203T
1943.603	7.952	1948390	PROB	7.952	n/a	n/a	-999	13	[1, 4, 5]	10	FR1	0	R1203T
1951.555	16.814	1956342	PROB	16.814	n/a	n/a	-999	13	[9, 1, 8]	18	FR1	0	R1203T
1968.369	0.021	1973155	STOP	n/a	n/a	n/a	-999	13	[-999, -999, -999]	n/a	FR1	0	R1203T
1968.39	0.684	1973176	DISTRACT_END	n/a	n/a	n/a	-999	13	[0, 0, 0]	n/a	FR1	0	R1203T
1969.074	0.518	1973860	RETRIEVAL_ORIENT	n/a	n/a	n/a	-999	13	[0, 0, 0]	n/a	FR1	0	R1203T
1969.592	1.32	1974378	REC_START	n/a	n/a	n/a	-999	13	[0, 0, 0]	n/a	FR1	0	R1203T
1970.912	0.83	1975698	REC_WORD	0.83	n/a	NET	-999	13	[0, 0, 0]	n/a	FR1	0	R1203T
1971.742	2.749	1976528	REC_WORD	2.749	n/a	CLOUD	-999	13	[0, 0, 0]	n/a	FR1	0	R1203T
1974.491	1.57	1979277	REC_WORD	1.57	n/a	AIR	-999	13	[0, 0, 0]	n/a	FR1	0	R1203T
1976.061	4.725	1980846	REC_WORD	4.725	n/a	PLANE	-999	13	[0, 0, 0]	n/a	FR1	0	R1203T
1980.786	18.816	1985571	REC_WORD	18.816	n/a	JET	-999	13	[0, 0, 0]	n/a	FR1	0	R1203T
1999.602	7.745	2004386	REC_END	n/a	n/a	n/a	-999	13	[0, 0, 0]	n/a	FR1	0	R1203T
2007.347	0.5	2012131	TRIAL	n/a	n/a	n/a	-999	14	[0, 0, 0]	n/a	FR1	0	R1203T
2007.847	10.428	2012631	COUNTDOWN_START	n/a	n/a	n/a	-999	14	[0, 0, 0]	n/a	FR1	0	R1203T
2018.275	0.007	2023058	COUNTDOWN_END	n/a	n/a	n/a	-999	14	[0, 0, 0]	n/a	FR1	0	R1203T
2018.282	1.618	2023065	ORIENT	n/a	n/a	n/a	-999	14	[0, 0, 0]	n/a	FR1	0	R1203T
2019.9	1.801	2024683	ORIENT_OFF	n/a	n/a	n/a	-999	14	[0, 0, 0]	n/a	FR1	0	R1203T
2021.701	1.615	2026484	WORD	n/a	wordpools/wordpool_EN.txt	CROW	1	14	[0, 0, 0]	n/a	FR1	0	R1203T
2023.316	0.918	2028099	WORD_OFF	n/a	n/a	CROW	1	14	[0, 0, 0]	n/a	FR1	0	R1203T
2024.234	1.617	2029017	WORD	n/a	wordpools/wordpool_EN.txt	GEESE	2	14	[0, 0, 0]	n/a	FR1	0	R1203T
2025.851	0.901	2030634	WORD_OFF	n/a	n/a	GEESE	2	14	[0, 0, 0]	n/a	FR1	0	R1203T
2026.752	1.615	2031535	WORD	n/a	wordpools/wordpool_EN.txt	PRINCE	3	14	[0, 0, 0]	n/a	FR1	0	R1203T
2028.367	0.984	2033150	WORD_OFF	n/a	n/a	PRINCE	3	14	[0, 0, 0]	n/a	FR1	0	R1203T
2029.351	1.618	2034133	WORD	n/a	wordpools/wordpool_EN.txt	PIT	4	14	[0, 0, 0]	n/a	FR1	0	R1203T
2030.969	0.917	2035751	WORD_OFF	n/a	n/a	PIT	4	14	[0, 0, 0]	n/a	FR1	0	R1203T
2031.886	1.617	2036668	WORD	n/a	wordpools/wordpool_EN.txt	BREAD	5	14	[0, 0, 0]	n/a	FR1	0	R1203T
2033.503	0.815	2038285	WORD_OFF	n/a	n/a	BREAD	5	14	[0, 0, 0]	n/a	FR1	0	R1203T
2034.318	1.601	2039100	WORD	n/a	wordpools/wordpool_EN.txt	NEST	6	14	[0, 0, 0]	n/a	FR1	0	R1203T
2035.919	0.968	2040701	WORD_OFF	n/a	n/a	NEST	6	14	[0, 0, 0]	n/a	FR1	0	R1203T
2036.887	1.617	2041669	WORD	n/a	wordpools/wordpool_EN.txt	PEACH	7	14	[0, 0, 0]	n/a	FR1	0	R1203T
2038.504	0.849	2043286	WORD_OFF	n/a	n/a	PEACH	7	14	[0, 0, 0]	n/a	FR1	0	R1203T
2039.353	1.618	2044135	WORD	n/a	wordpools/wordpool_EN.txt	FOOD	8	14	[0, 0, 0]	n/a	FR1	0	R1203T
2040.971	0.983	2045753	WORD_OFF	n/a	n/a	FOOD	8	14	[0, 0, 0]	n/a	FR1	0	R1203T
2041.954	1.617	2046736	WORD	n/a	wordpools/wordpool_EN.txt	MILK	9	14	[0, 0, 0]	n/a	FR1	0	R1203T
2043.571	0.984	2048353	WORD_OFF	n/a	n/a	MILK	9	14	[0, 0, 0]	n/a	FR1	0	R1203T
2044.555	1.617	2049337	WORD	n/a	wordpools/wordpool_EN.txt	DEER	10	14	[0, 0, 0]	n/a	FR1	0	R1203T
2046.172	0.966	2050954	WORD_OFF	n/a	n/a	DEER	10	14	[0, 0, 0]	n/a	FR1	0	R1203T
2047.138	1.617	2051920	WORD	n/a	wordpools/wordpool_EN.txt	EEL	11	14	[0, 0, 0]	n/a	FR1	0	R1203T
2048.755	0.984	2053536	WORD_OFF	n/a	n/a	EEL	11	14	[0, 0, 0]	n/a	FR1	0	R1203T
2049.739	1.616	2054520	WORD	n/a	wordpools/wordpool_EN.txt	WOLF	12	14	[0, 0, 0]	n/a	FR1	0	R1203T
2051.355	0.0	2056136	WORD_OFF	n/a	n/a	WOLF	12	14	[0, 0, 0]	n/a	FR1	0	R1203T
2051.355	0.0	2056136	DISTRACT_START	n/a	n/a	n/a	-999	14	[0, 0, 0]	n/a	FR1	0	R1203T
2051.355	0.017	2056136	START	n/a	n/a	n/a	-999	14	[-999, -999, -999]	n/a	FR1	0	R1203T
2051.372	9.636	2056153	PROB	9.636	n/a	n/a	-999	14	[9, 1, 9]	19	FR1	0	R1203T
2061.008	12.058	2065789	PROB	12.058	n/a	n/a	-999	14	[6, 3, 5]	14	FR1	0	R1203T
2073.066	0.011	2077846	STOP	n/a	n/a	n/a	-999	14	[-999, -999, -999]	n/a	FR1	0	R1203T
2073.077	0.683	2077857	DISTRACT_END	n/a	n/a	n/a	-999	14	[0, 0, 0]	n/a	FR1	0	R1203T
2073.76	0.516	2078540	RETRIEVAL_ORIENT	n/a	n/a	n/a	-999	14	[0, 0, 0]	n/a	FR1	0	R1203T
2074.276	1.173	2079056	REC_START	n/a	n/a	n/a	-999	14	[0, 0, 0]	n/a	FR1	0	R1203T
2075.449	6.293	2080229	REC_WORD	6.293	n/a	EEL	-999	14	[0, 0, 0]	n/a	FR1	0	R1203T
2081.742	11.351	2086522	REC_WORD	11.351	n/a	HORSE	-999	14	[0, 0, 0]	n/a	FR1	0	R1203T
2093.093	3.852	2097872	REC_WORD	3.852	n/a	BAND	-999	14	[0, 0, 0]	n/a	FR1	0	R1203T
2096.945	7.343	2101724	REC_WORD	7.343	n/a	WATER	-999	14	[0, 0, 0]	n/a	FR1	0	R1203T
2104.288	6.529	2109066	REC_END	n/a	n/a	n/a	-999	14	[0, 0, 0]	n/a	FR1	0	R1203T
2110.817	0.5	2115595	TRIAL	n/a	n/a	n/a	-999	15	[0, 0, 0]	n/a	FR1	0	R1203T
2111.317	10.428	2116095	COUNTDOWN_START	n/a	n/a	n/a	-999	15	[0, 0, 0]	n/a	FR1	0	R1203T
2121.745	0.007	2126522	COUNTDOWN_END	n/a	n/a	n/a	-999	15	[0, 0, 0]	n/a	FR1	0	R1203T
2121.752	1.616	2126529	ORIENT	n/a	n/a	n/a	-999	15	[0, 0, 0]	n/a	FR1	0	R1203T
2123.368	2.235	2128145	ORIENT_OFF	n/a	n/a	n/a	-999	15	[0, 0, 0]	n/a	FR1	0	R1203T
2125.603	1.617	2130380	WORD	n/a	wordpools/wordpool_EN.txt	SINK	1	15	[0, 0, 0]	n/a	FR1	0	R1203T
2127.22	0.967	2131997	WORD_OFF	n/a	n/a	SINK	1	15	[0, 0, 0]	n/a	FR1	0	R1203T
2128.187	1.617	2132964	WORD	n/a	wordpools/wordpool_EN.txt	BARN	2	15	[0, 0, 0]	n/a	FR1	0	R1203T
2129.804	0.8	2134581	WORD_OFF	n/a	n/a	BARN	2	15	[0, 0, 0]	n/a	FR1	0	R1203T
2130.604	1.617	2135381	WORD	n/a	wordpools/wordpool_EN.txt	THUMB	3	15	[0, 0, 0]	n/a	FR1	0	R1203T
2132.221	0.883	2136998	WORD_OFF	n/a	n/a	THUMB	3	15	[0, 0, 0]	n/a	FR1	0	R1203T
2133.104	1.617	2137881	WORD	n/a	wordpools/wordpool_EN.txt	FOX	4	15	[0, 0, 0]	n/a	FR1	0	R1203T
2134.721	0.9	2139498	WORD_OFF	n/a	n/a	FOX	4	15	[0, 0, 0]	n/a	FR1	0	R1203T
2135.621	1.617	2140398	WORD	n/a	wordpools/wordpool_EN.txt	CALF	5	15	[0, 0, 0]	n/a	FR1	0	R1203T
2137.238	0.967	2142014	WORD_OFF	n/a	n/a	CALF	5	15	[0, 0, 0]	n/a	FR1	0	R1203T
2138.205	1.617	2142981	WORD	n/a	wordpools/wordpool_EN.txt	FOOT	6	15	[0, 0, 0]	n/a	FR1	0	R1203T
2139.822	0.783	2144598	WORD_OFF	n/a	n/a	FOOT	6	15	[0, 0, 0]	n/a	FR1	0	R1203T
2140.605	1.617	2145381	WORD	n/a	wordpools/wordpool_EN.txt	PEN	7	15	[0, 0, 0]	n/a	FR1	0	R1203T
2142.222	0.951	2146998	WORD_OFF	n/a	n/a	PEN	7	15	[0, 0, 0]	n/a	FR1	0	R1203T
2143.173	1.616	2147949	WORD	n/a	wordpools/wordpool_EN.txt	BENCH	8	15	[0, 0, 0]	n/a	FR1	0	R1203T
2144.789	0.851	2149565	WORD_OFF	n/a	n/a	BENCH	8	15	[0, 0, 0]	n/a	FR1	0	R1203T
2145.64	1.617	2150416	WORD	n/a	wordpools/wordpool_EN.txt	TAIL	9	15	[0, 0, 0]	n/a	FR1	0	R1203T
2147.257	0.866	2152033	WORD_OFF	n/a	n/a	TAIL	9	15	[0, 0, 0]	n/a	FR1	0	R1203T
2148.123	1.617	2152899	WORD	n/a	wordpools/wordpool_EN.txt	SKUNK	10	15	[0, 0, 0]	n/a	FR1	0	R1203T
2149.74	0.917	2154516	WORD_OFF	n/a	n/a	SKUNK	10	15	[0, 0, 0]	n/a	FR1	0	R1203T
2150.657	1.616	2155433	WORD	n/a	wordpools/wordpool_EN.txt	PEA	11	15	[0, 0, 0]	n/a	FR1	0	R1203T
2152.273	0.818	2157049	WORD_OFF	n/a	n/a	PEA	11	15	[0, 0, 0]	n/a	FR1	0	R1203T
2153.091	1.617	2157867	WORD	n/a	wordpools/wordpool_EN.txt	SMILE	12	15	[0, 0, 0]	n/a	FR1	0	R1203T
2154.708	0.0	2159484	WORD_OFF	n/a	n/a	SMILE	12	15	[0, 0, 0]	n/a	FR1	0	R1203T
2154.708	0.001	2159484	DISTRACT_START	n/a	n/a	n/a	-999	15	[0, 0, 0]	n/a	FR1	0	R1203T
2154.709	0.016	2159485	START	n/a	n/a	n/a	-999	15	[-999, -999, -999]	n/a	FR1	0	R1203T
2154.725	16.186	2159501	PROB	16.186	n/a	n/a	-999	15	[6, 1, 3]	10	FR1	0	R1203T
2170.911	4.676	2175686	PROB	4.676	n/a	n/a	-999	15	[2, 5, 1]	8	FR1	0	R1203T
2175.587	0.008	2180361	STOP	n/a	n/a	n/a	-999	15	[-999, -999, -999]	n/a	FR1	0	R1203T
2175.595	0.667	2180369	DISTRACT_END	n/a	n/a	n/a	-999	15	[0, 0, 0]	n/a	FR1	0	R1203T
2176.262	0.518	2181036	RETRIEVAL_ORIENT	n/a	n/a	n/a	-999	15	[0, 0, 0]	n/a	FR1	0	R1203T
2176.78	1.611	2181554	REC_START	n/a	n/a	n/a	-999	15	[0, 0, 0]	n/a	FR1	0	R1203T
2178.391	1.189	2183165	REC_WORD	1.189	n/a	SKUNK	-999	15	[0, 0, 0]	n/a	FR1	0	R1203T
2179.58	0.974	2184354	REC_WORD	0.974	n/a	LAND	-999	15	[0, 0, 0]	n/a	FR1	0	R1203T
2180.554	1.36	2185328	REC_WORD	1.36	n/a	TREE	-999	15	[0, 0, 0]	n/a	FR1	0	R1203T
2181.914	1.375	2186688	REC_WORD	1.375	n/a	PEA	-999	15	[0, 0, 0]	n/a	FR1	0	R1203T
2183.289	13.786	2188063	REC_WORD	13.786	n/a	SMILE	-999	15	[0, 0, 0]	n/a	FR1	0	R1203T
2197.075	5.422	2201848	REC_WORD	5.422	n/a	ATE	-999	15	[0, 0, 0]	n/a	FR1	0	R1203T
2202.497	4.296	2207270	REC_WORD	4.296	n/a	WOLF	-999	15	[0, 0, 0]	n/a	FR1	0	R1203T
2206.793	66.586	2211566	REC_END	n/a	n/a	n/a	-999	15	[0, 0, 0]	n/a	FR1	0	R1203T
2273.379	0.5	2278148	TRIAL	n/a	n/a	n/a	-999	16	[0, 0, 0]	n/a	FR1	0	R1203T
2273.879	10.428	2278648	COUNTDOWN_START	n/a	n/a	n/a	-999	16	[0, 0, 0]	n/a	FR1	0	R1203T
2284.307	0.007	2289075	COUNTDOWN_END	n/a	n/a	n/a	-999	16	[0, 0, 0]	n/a	FR1	0	R1203T
2284.314	1.601	2289082	ORIENT	n/a	n/a	n/a	-999	16	[0, 0, 0]	n/a	FR1	0	R1203T
2285.915	1.984	2290683	ORIENT_OFF	n/a	n/a	n/a	-999	16	[0, 0, 0]	n/a	FR1	0	R1203T
2287.899	1.617	2292667	WORD	n/a	wordpools/wordpool_EN.txt	ROAD	1	16	[0, 0, 0]	n/a	FR1	0	R1203T
2289.516	0.866	2294284	WORD_OFF	n/a	n/a	ROAD	1	16	[0, 0, 0]	n/a	FR1	0	R1203T
2290.382	1.618	2295150	WORD	n/a	wordpools/wordpool_EN.txt	BAT	2	16	[0, 0, 0]	n/a	FR1	0	R1203T
2292.0	0.9	2296768	WORD_OFF	n/a	n/a	BAT	2	16	[0, 0, 0]	n/a	FR1	0	R1203T
2292.9	1.617	2297668	WORD	n/a	wordpools/wordpool_EN.txt	MULE	3	16	[0, 0, 0]	n/a	FR1	0	R1203T
2294.517	0.967	2299285	WORD_OFF	n/a	n/a	MULE	3	16	[0, 0, 0]	n/a	FR1	0	R1203T
2295.484	1.617	2300252	WORD	n/a	wordpools/wordpool_EN.txt	BIRD	4	16	[0, 0, 0]	n/a	FR1	0	R1203T
2297.101	0.883	2301869	WORD_OFF	n/a	n/a	BIRD	4	16	[0, 0, 0]	n/a	FR1	0	R1203T
2297.984	1.617	2302752	WORD	n/a	wordpools/wordpool_EN.txt	HEN	5	16	[0, 0, 0]	n/a	FR1	0	R1203T
2299.601	0.816	2304368	WORD_OFF	n/a	n/a	HEN	5	16	[0, 0, 0]	n/a	FR1	0	R1203T
2300.417	1.618	2305184	WORD	n/a	wordpools/wordpool_EN.txt	WEB	6	16	[0, 0, 0]	n/a	FR1	0	R1203T
2302.035	0.967	2306802	WORD_OFF	n/a	n/a	WEB	6	16	[0, 0, 0]	n/a	FR1	0	R1203T
2303.002	1.617	2307769	WORD	n/a	wordpools/wordpool_EN.txt	GLOVE	7	16	[0, 0, 0]	n/a	FR1	0	R1203T
2304.619	0.765	2309386	WORD_OFF	n/a	n/a	GLOVE	7	16	[0, 0, 0]	n/a	FR1	0	R1203T
2305.384	1.601	2310151	WORD	n/a	wordpools/wordpool_EN.txt	PET	8	16	[0, 0, 0]	n/a	FR1	0	R1203T
2306.985	1.001	2311752	WORD_OFF	n/a	n/a	PET	8	16	[0, 0, 0]	n/a	FR1	0	R1203T
2307.986	1.617	2312753	WORD	n/a	wordpools/wordpool_EN.txt	DOG	9	16	[0, 0, 0]	n/a	FR1	0	R1203T
2309.603	0.95	2314370	WORD_OFF	n/a	n/a	DOG	9	16	[0, 0, 0]	n/a	FR1	0	R1203T
2310.553	1.617	2315320	WORD	n/a	wordpools/wordpool_EN.txt	CAT	10	16	[0, 0, 0]	n/a	FR1	0	R1203T
2312.17	0.967	2316937	WORD_OFF	n/a	n/a	CAT	10	16	[0, 0, 0]	n/a	FR1	0	R1203T
2313.137	1.617	2317904	WORD	n/a	wordpools/wordpool_EN.txt	FACE	11	16	[0, 0, 0]	n/a	FR1	0	R1203T
2314.754	0.783	2319521	WORD_OFF	n/a	n/a	FACE	11	16	[0, 0, 0]	n/a	FR1	0	R1203T
2315.537	1.617	2320304	WORD	n/a	wordpools/wordpool_EN.txt	OAR	12	16	[0, 0, 0]	n/a	FR1	0	R1203T
2317.154	0.0	2321920	WORD_OFF	n/a	n/a	OAR	12	16	[0, 0, 0]	n/a	FR1	0	R1203T
2317.154	0.001	2321920	DISTRACT_START	n/a	n/a	n/a	-999	16	[0, 0, 0]	n/a	FR1	0	R1203T
2317.155	0.016	2321921	START	n/a	n/a	n/a	-999	16	[-999, -999, -999]	n/a	FR1	0	R1203T
2317.171	12.118	2321937	PROB	12.118	n/a	n/a	-999	16	[4, 6, 7]	17	FR1	0	R1203T
2329.289	7.435	2334055	PROB	7.435	n/a	n/a	-999	16	[5, 5, 3]	13	FR1	0	R1203T
2336.724	9.511	2341489	PROB	9.511	n/a	n/a	-999	16	[2, 5, 6]	13	FR1	0	R1203T
2346.235	0.008	2351000	STOP	n/a	n/a	n/a	-999	16	[-999, -999, -999]	n/a	FR1	0	R1203T
2346.243	0.567	2351008	DISTRACT_END	n/a	n/a	n/a	-999	16	[0, 0, 0]	n/a	FR1	0	R1203T
2346.81	0.516	2351575	RETRIEVAL_ORIENT	n/a	n/a	n/a	-999	16	[0, 0, 0]	n/a	FR1	0	R1203T
2347.326	3.69	2352091	REC_START	n/a	n/a	n/a	-999	16	[0, 0, 0]	n/a	FR1	0	R1203T
2351.016	4.127	2355781	REC_WORD	4.127	n/a	ROAD	-999	16	[0, 0, 0]	n/a	FR1	0	R1203T
2355.143	0.792	2359907	REC_WORD	0.792	n/a	ROAD	-999	16	[0, 0, 0]	n/a	FR1	0	R1203T
2355.935	1.809	2360699	REC_WORD	1.809	n/a	BAT	-999	16	[0, 0, 0]	n/a	FR1	0	R1203T
2357.744	1.483	2362508	REC_WORD	1.483	n/a	CAT	-999	16	[0, 0, 0]	n/a	FR1	0	R1203T
2359.227	7.477	2363991	REC_WORD	7.477	n/a	DOG	-999	16	[0, 0, 0]	n/a	FR1	0	R1203T
2366.704	10.634	2371468	REC_WORD	10.634	n/a	BIRD	-999	16	[0, 0, 0]	n/a	FR1	0	R1203T
2377.338	8.629	2382101	REC_END	n/a	n/a	n/a	-999	16	[0, 0, 0]	n/a	FR1	0	R1203T
2385.967	0.5	2390730	TRIAL	n/a	n/a	n/a	-999	17	[0, 0, 0]	n/a	FR1	0	R1203T
2386.467	10.428	2391230	COUNTDOWN_START	n/a	n/a	n/a	-999	17	[0, 0, 0]	n/a	FR1	0	R1203T
2396.895	0.007	2401657	COUNTDOWN_END	n/a	n/a	n/a	-999	17	[0, 0, 0]	n/a	FR1	0	R1203T
2396.902	1.617	2401664	ORIENT	n/a	n/a	n/a	-999	17	[0, 0, 0]	n/a	FR1	0	R1203T
2398.519	2.3	2403281	ORIENT_OFF	n/a	n/a	n/a	-999	17	[0, 0, 0]	n/a	FR1	0	R1203T
2400.819	1.616	2405581	WORD	n/a	wordpools/wordpool_EN.txt	CUBE	1	17	[0, 0, 0]	n/a	FR1	0	R1203T
2402.435	0.951	2407197	WORD_OFF	n/a	n/a	CUBE	1	17	[0, 0, 0]	n/a	FR1	0	R1203T
2403.386	1.618	2408148	WORD	n/a	wordpools/wordpool_EN.txt	NOSE	2	17	[0, 0, 0]	n/a	FR1	0	R1203T
2405.004	0.866	2409766	WORD_OFF	n/a	n/a	NOSE	2	17	[0, 0, 0]	n/a	FR1	0	R1203T
2405.87	1.617	2410632	WORD	n/a	wordpools/wordpool_EN.txt	LEG	3	17	[0, 0, 0]	n/a	FR1	0	R1203T
2407.487	0.984	2412248	WORD_OFF	n/a	n/a	LEG	3	17	[0, 0, 0]	n/a	FR1	0	R1203T
2408.471	1.617	2413232	WORD	n/a	wordpools/wordpool_EN.txt	CANE	4	17	[0, 0, 0]	n/a	FR1	0	R1203T
2410.088	0.817	2414849	WORD_OFF	n/a	n/a	CANE	4	17	[0, 0, 0]	n/a	FR1	0	R1203T
2410.905	1.617	2415666	WORD	n/a	wordpools/wordpool_EN.txt	MAT	5	17	[0, 0, 0]	n/a	FR1	0	R1203T
2412.522	0.966	2417283	WORD_OFF	n/a	n/a	MAT	5	17	[0, 0, 0]	n/a	FR1	0	R1203T
2413.488	1.617	2418249	WORD	n/a	wordpools/wordpool_EN.txt	SPOON	6	17	[0, 0, 0]	n/a	FR1	0	R1203T
2415.105	0.867	2419866	WORD_OFF	n/a	n/a	SPOON	6	17	[0, 0, 0]	n/a	FR1	0	R1203T
2415.972	1.617	2420733	WORD	n/a	wordpools/wordpool_EN.txt	STOVE	7	17	[0, 0, 0]	n/a	FR1	0	R1203T
2417.589	0.934	2422350	WORD_OFF	n/a	n/a	STOVE	7	17	[0, 0, 0]	n/a	FR1	0	R1203T
2418.523	1.617	2423284	WORD	n/a	wordpools/wordpool_EN.txt	DOLL	8	17	[0, 0, 0]	n/a	FR1	0	R1203T
2420.14	0.766	2424901	WORD_OFF	n/a	n/a	DOLL	8	17	[0, 0, 0]	n/a	FR1	0	R1203T
2420.906	1.617	2425667	WORD	n/a	wordpools/wordpool_EN.txt	PURSE	9	17	[0, 0, 0]	n/a	FR1	0	R1203T
2422.523	0.866	2427284	WORD_OFF	n/a	n/a	PURSE	9	17	[0, 0, 0]	n/a	FR1	0	R1203T
2423.389	1.601	2428150	WORD	n/a	wordpools/wordpool_EN.txt	SEAT	10	17	[0, 0, 0]	n/a	FR1	0	R1203T
2424.99	0.934	2429750	WORD_OFF	n/a	n/a	SEAT	10	17	[0, 0, 0]	n/a	FR1	0	R1203T
2425.924	1.617	2430684	WORD	n/a	wordpools/wordpool_EN.txt	BAG	11	17	[0, 0, 0]	n/a	FR1	0	R1203T
2427.541	0.782	2432301	WORD_OFF	n/a	n/a	BAG	11	17	[0, 0, 0]	n/a	FR1	0	R1203T
2428.323	1.618	2433083	WORD	n/a	wordpools/wordpool_EN.txt	TRAY	12	17	[0, 0, 0]	n/a	FR1	0	R1203T
2429.941	0.0	2434701	WORD_OFF	n/a	n/a	TRAY	12	17	[0, 0, 0]	n/a	FR1	0	R1203T
2429.941	0.001	2434701	DISTRACT_START	n/a	n/a	n/a	-999	17	[0, 0, 0]	n/a	FR1	0	R1203T
2429.942	0.016	2434702	START	n/a	n/a	n/a	-999	17	[-999, -999, -999]	n/a	FR1	0	R1203T
2429.958	10.052	2434718	PROB	10.052	n/a	n/a	-999	17	[8, 4, 1]	13	FR1	0	R1203T
2440.01	8.518	2444770	PROB	8.518	n/a	n/a	-999	17	[7, 2, 9]	18	FR1	0	R1203T
2448.528	15.082	2453287	PROB	15.082	n/a	n/a	-999	17	[9, 5, 9]	23	FR1	0	R1203T
2463.61	0.021	2468368	STOP	n/a	n/a	n/a	-999	17	[-999, -999, -999]	n/a	FR1	0	R1203T
2463.631	0.716	2468389	DISTRACT_END	n/a	n/a	n/a	-999	17	[0, 0, 0]	n/a	FR1	0	R1203T
2464.347	0.518	2469105	RETRIEVAL_ORIENT	n/a	n/a	n/a	-999	17	[0, 0, 0]	n/a	FR1	0	R1203T
2464.865	1.594	2469623	REC_START	n/a	n/a	n/a	-999	17	[0, 0, 0]	n/a	FR1	0	R1203T
2466.459	4.774	2471217	REC_WORD	4.774	n/a	LEG	-999	17	[0, 0, 0]	n/a	FR1	0	R1203T
2471.233	1.522	2475991	REC_WORD	1.522	n/a	NOSE	-999	17	[0, 0, 0]	n/a	FR1	0	R1203T
2472.755	3.339	2477513	REC_WORD	3.339	n/a	PURSE	-999	17	[0, 0, 0]	n/a	FR1	0	R1203T
2476.094	18.783	2480852	REC_WORD	18.783	n/a	BAG	-999	17	[0, 0, 0]	n/a	FR1	0	R1203T
2494.877	28.464	2499634	REC_END	n/a	n/a	n/a	-999	17	[0, 0, 0]	n/a	FR1	0	R1203T
2523.341	0.5	2528096	TRIAL	n/a	n/a	n/a	-999	18	[0, 0, 0]	n/a	FR1	0	R1203T
2523.841	10.428	2528596	COUNTDOWN_START	n/a	n/a	n/a	-999	18	[0, 0, 0]	n/a	FR1	0	R1203T
2534.269	0.007	2539023	COUNTDOWN_END	n/a	n/a	n/a	-999	18	[0, 0, 0]	n/a	FR1	0	R1203T
2534.276	1.618	2539030	ORIENT	n/a	n/a	n/a	-999	18	[0, 0, 0]	n/a	FR1	0	R1203T
2535.894	2.2	2540648	ORIENT_OFF	n/a	n/a	n/a	-999	18	[0, 0, 0]	n/a	FR1	0	R1203T
2538.094	1.617	2542848	WORD	n/a	wordpools/wordpool_EN.txt	SHEET	1	18	[0, 0, 0]	n/a	FR1	0	R1203T
2539.711	0.867	2544465	WORD_OFF	n/a	n/a	SHEET	1	18	[0, 0, 0]	n/a	FR1	0	R1203T
2540.578	1.617	2545332	WORD	n/a	wordpools/wordpool_EN.txt	EGG	2	18	[0, 0, 0]	n/a	FR1	0	R1203T
2542.195	1.017	2546949	WORD_OFF	n/a	n/a	EGG	2	18	[0, 0, 0]	n/a	FR1	0	R1203T
2543.212	1.617	2547966	WORD	n/a	wordpools/wordpool_EN.txt	FROG	3	18	[0, 0, 0]	n/a	FR1	0	R1203T
2544.829	0.967	2549583	WORD_OFF	n/a	n/a	FROG	3	18	[0, 0, 0]	n/a	FR1	0	R1203T
2545.796	1.616	2550550	WORD	n/a	wordpools/wordpool_EN.txt	CORD	4	18	[0, 0, 0]	n/a	FR1	0	R1203T
2547.412	0.967	2552166	WORD_OFF	n/a	n/a	CORD	4	18	[0, 0, 0]	n/a	FR1	0	R1203T
2548.379	1.618	2553133	WORD	n/a	wordpools/wordpool_EN.txt	FILM	5	18	[0, 0, 0]	n/a	FR1	0	R1203T
2549.997	1.016	2554751	WORD_OFF	n/a	n/a	FILM	5	18	[0, 0, 0]	n/a	FR1	0	R1203T
2551.013	1.617	2555766	WORD	n/a	wordpools/wordpool_EN.txt	STORE	6	18	[0, 0, 0]	n/a	FR1	0	R1203T
2552.63	0.901	2557383	WORD_OFF	n/a	n/a	STORE	6	18	[0, 0, 0]	n/a	FR1	0	R1203T
2553.531	1.616	2558284	WORD	n/a	wordpools/wordpool_EN.txt	MAIL	7	18	[0, 0, 0]	n/a	FR1	0	R1203T
2555.147	0.884	2559900	WORD_OFF	n/a	n/a	MAIL	7	18	[0, 0, 0]	n/a	FR1	0	R1203T
2556.031	1.617	2560784	WORD	n/a	wordpools/wordpool_EN.txt	PASTE	8	18	[0, 0, 0]	n/a	FR1	0	R1203T
2557.648	0.95	2562401	WORD_OFF	n/a	n/a	PASTE	8	18	[0, 0, 0]	n/a	FR1	0	R1203T
2558.598	1.617	2563351	WORD	n/a	wordpools/wordpool_EN.txt	JUICE	9	18	[0, 0, 0]	n/a	FR1	0	R1203T
2560.215	0.817	2564968	WORD_OFF	n/a	n/a	JUICE	9	18	[0, 0, 0]	n/a	FR1	0	R1203T
2561.032	1.617	2565785	WORD	n/a	wordpools/wordpool_EN.txt	BOARD	10	18	[0, 0, 0]	n/a	FR1	0	R1203T
2562.649	0.95	2567402	WORD_OFF	n/a	n/a	BOARD	10	18	[0, 0, 0]	n/a	FR1	0	R1203T
2563.599	1.617	2568352	WORD	n/a	wordpools/wordpool_EN.txt	SPONGE	11	18	[0, 0, 0]	n/a	FR1	0	R1203T
2565.216	0.95	2569969	WORD_OFF	n/a	n/a	SPONGE	11	18	[0, 0, 0]	n/a	FR1	0	R1203T
2566.166	1.617	2570919	WORD	n/a	wordpools/wordpool_EN.txt	INK	12	18	[0, 0, 0]	n/a	FR1	0	R1203T
2567.783	0.0	2572536	WORD_OFF	n/a	n/a	INK	12	18	[0, 0, 0]	n/a	FR1	0	R1203T
2567.783	0.001	2572536	DISTRACT_START	n/a	n/a	n/a	-999	18	[0, 0, 0]	n/a	FR1	0	R1203T
2567.784	0.016	2572537	START	n/a	n/a	n/a	-999	18	[-999, -999, -999]	n/a	FR1	0	R1203T
2567.8	13.069	2572553	PROB	13.069	n/a	n/a	-999	18	[8, 5, 1]	14	FR1	0	R1203T
2580.869	10.95	2585621	PROB	10.95	n/a	n/a	-999	18	[4, 4, 6]	14	FR1	0	R1203T
2591.819	0.019	2596570	STOP	n/a	n/a	n/a	-999	18	[-999, -999, -999]	n/a	FR1	0	R1203T
2591.838	0.565	2596589	DISTRACT_END	n/a	n/a	n/a	-999	18	[0, 0, 0]	n/a	FR1	0	R1203T
2592.403	0.519	2597154	RETRIEVAL_ORIENT	n/a	n/a	n/a	-999	18	[0, 0, 0]	n/a	FR1	0	R1203T
2592.922	4.892	2597673	REC_START	n/a	n/a	n/a	-999	18	[0, 0, 0]	n/a	FR1	0	R1203T
2597.814	1.457	2602565	REC_WORD	1.457	n/a	BIRD	-999	18	[0, 0, 0]	n/a	FR1	0	R1203T
2599.271	1.855	2604022	REC_WORD	1.855	n/a	SPONGE	-999	18	[0, 0, 0]	n/a	FR1	0	R1203T
2601.126	6.685	2605877	REC_WORD	6.685	n/a	WATER	-999	18	[0, 0, 0]	n/a	FR1	0	R1203T
2607.811	15.122	2612561	REC_WORD	15.122	n/a	BROOM	-999	18	[0, 0, 0]	n/a	FR1	0	R1203T
2622.933	11.461	2627682	REC_END	n/a	n/a	n/a	-999	18	[0, 0, 0]	n/a	FR1	0	R1203T
2634.394	0.5	2639143	TRIAL	n/a	n/a	n/a	-999	19	[0, 0, 0]	n/a	FR1	0	R1203T
2634.894	10.428	2639643	COUNTDOWN_START	n/a	n/a	n/a	-999	19	[0, 0, 0]	n/a	FR1	0	R1203T
2645.322	0.008	2650070	COUNTDOWN_END	n/a	n/a	n/a	-999	19	[0, 0, 0]	n/a	FR1	0	R1203T
2645.33	1.617	2650078	ORIENT	n/a	n/a	n/a	-999	19	[0, 0, 0]	n/a	FR1	0	R1203T
2646.947	1.934	2651695	ORIENT_OFF	n/a	n/a	n/a	-999	19	[0, 0, 0]	n/a	FR1	0	R1203T
2648.881	1.617	2653629	WORD	n/a	wordpools/wordpool_EN.txt	HAND	1	19	[0, 0, 0]	n/a	FR1	0	R1203T
2650.498	0.949	2655246	WORD_OFF	n/a	n/a	HAND	1	19	[0, 0, 0]	n/a	FR1	0	R1203T
2651.447	1.618	2656195	WORD	n/a	wordpools/wordpool_EN.txt	LAMP	2	19	[0, 0, 0]	n/a	FR1	0	R1203T
2653.065	0.867	2657813	WORD_OFF	n/a	n/a	LAMP	2	19	[0, 0, 0]	n/a	FR1	0	R1203T
2653.932	1.617	2658680	WORD	n/a	wordpools/wordpool_EN.txt	PEARL	3	19	[0, 0, 0]	n/a	FR1	0	R1203T
2655.549	1.0	2660297	WORD_OFF	n/a	n/a	PEARL	3	19	[0, 0, 0]	n/a	FR1	0	R1203T
2656.549	1.617	2661297	WORD	n/a	wordpools/wordpool_EN.txt	CROWN	4	19	[0, 0, 0]	n/a	FR1	0	R1203T
2658.166	0.984	2662913	WORD_OFF	n/a	n/a	CROWN	4	19	[0, 0, 0]	n/a	FR1	0	R1203T
2659.15	1.617	2663897	WORD	n/a	wordpools/wordpool_EN.txt	BADGE	5	19	[0, 0, 0]	n/a	FR1	0	R1203T
2660.767	0.917	2665514	WORD_OFF	n/a	n/a	BADGE	5	19	[0, 0, 0]	n/a	FR1	0	R1203T
2661.684	1.616	2666431	WORD	n/a	wordpools/wordpool_EN.txt	SHIRT	6	19	[0, 0, 0]	n/a	FR1	0	R1203T
2663.3	0.767	2668047	WORD_OFF	n/a	n/a	SHIRT	6	19	[0, 0, 0]	n/a	FR1	0	R1203T
2664.067	1.617	2668814	WORD	n/a	wordpools/wordpool_EN.txt	BLUSH	7	19	[0, 0, 0]	n/a	FR1	0	R1203T
2665.684	0.934	2670431	WORD_OFF	n/a	n/a	BLUSH	7	19	[0, 0, 0]	n/a	FR1	0	R1203T
2666.618	1.617	2671365	WORD	n/a	wordpools/wordpool_EN.txt	BATH	8	19	[0, 0, 0]	n/a	FR1	0	R1203T
2668.235	0.817	2672982	WORD_OFF	n/a	n/a	BATH	8	19	[0, 0, 0]	n/a	FR1	0	R1203T
2669.052	1.617	2673799	WORD	n/a	wordpools/wordpool_EN.txt	CART	9	19	[0, 0, 0]	n/a	FR1	0	R1203T
2670.669	0.866	2675416	WORD_OFF	n/a	n/a	CART	9	19	[0, 0, 0]	n/a	FR1	0	R1203T
2671.535	1.617	2676282	WORD	n/a	wordpools/wordpool_EN.txt	CHEEK	10	19	[0, 0, 0]	n/a	FR1	0	R1203T
2673.152	0.8	2677899	WORD_OFF	n/a	n/a	CHEEK	10	19	[0, 0, 0]	n/a	FR1	0	R1203T
2673.952	1.617	2678699	WORD	n/a	wordpools/wordpool_EN.txt	SHIELD	11	19	[0, 0, 0]	n/a	FR1	0	R1203T
2675.569	0.833	2680316	WORD_OFF	n/a	n/a	SHIELD	11	19	[0, 0, 0]	n/a	FR1	0	R1203T
2676.402	1.618	2681148	WORD	n/a	wordpools/wordpool_EN.txt	VEST	12	19	[0, 0, 0]	n/a	FR1	0	R1203T
2678.02	0.0	2682766	WORD_OFF	n/a	n/a	VEST	12	19	[0, 0, 0]	n/a	FR1	0	R1203T
2678.02	0.0	2682766	DISTRACT_START	n/a	n/a	n/a	-999	19	[0, 0, 0]	n/a	FR1	0	R1203T
2678.02	0.017	2682766	START	n/a	n/a	n/a	-999	19	[-999, -999, -999]	n/a	FR1	0	R1203T
2678.037	12.301	2682783	PROB	12.301	n/a	n/a	-999	19	[1, 7, 6]	14	FR1	0	R1203T
2690.338	15.825	2695084	PROB	15.825	n/a	n/a	-999	19	[8, 9, 7]	24	FR1	0	R1203T
2706.163	0.012	2710908	STOP	n/a	n/a	n/a	-999	19	[-999, -999, -999]	n/a	FR1	0	R1203T
2706.175	0.7	2710920	DISTRACT_END	n/a	n/a	n/a	-999	19	[0, 0, 0]	n/a	FR1	0	R1203T
2706.875	0.517	2711620	RETRIEVAL_ORIENT	n/a	n/a	n/a	-999	19	[0, 0, 0]	n/a	FR1	0	R1203T
2707.392	1.787	2712137	REC_START	n/a	n/a	n/a	-999	19	[0, 0, 0]	n/a	FR1	0	R1203T
2709.179	0.962	2713924	REC_WORD	0.962	n/a	HAND	-999	19	[0, 0, 0]	n/a	FR1	0	R1203T
2710.141	1.269	2714886	REC_WORD	1.269	n/a	LAMP	-999	19	[0, 0, 0]	n/a	FR1	0	R1203T
2711.41	3.133	2716155	REC_WORD	3.133	n/a	PEARLS	-999	19	[0, 0, 0]	n/a	FR1	0	R1203T
2714.543	14.99	2719287	REC_WORD	14.99	n/a	NOSE	-999	19	[0, 0, 0]	n/a	FR1	0	R1203T
2729.533	7.871	2734277	REC_WORD	7.871	n/a	BLUSH	-999	19	[0, 0, 0]	n/a	FR1	0	R1203T
2737.404	7.811	2742147	REC_END	n/a	n/a	n/a	-999	19	[0, 0, 0]	n/a	FR1	0	R1203T
2745.215	0.5	2749958	TRIAL	n/a	n/a	n/a	-999	20	[0, 0, 0]	n/a	FR1	0	R1203T
2745.715	10.428	2750458	COUNTDOWN_START	n/a	n/a	n/a	-999	20	[0, 0, 0]	n/a	FR1	0	R1203T
2756.143	0.008	2760885	COUNTDOWN_END	n/a	n/a	n/a	-999	20	[0, 0, 0]	n/a	FR1	0	R1203T
2756.151	1.617	2760893	ORIENT	n/a	n/a	n/a	-999	20	[0, 0, 0]	n/a	FR1	0	R1203T
2757.768	2.183	2762510	ORIENT_OFF	n/a	n/a	n/a	-999	20	[0, 0, 0]	n/a	FR1	0	R1203T
2759.951	1.617	2764693	WORD	n/a	wordpools/wordpool_EN.txt	HOLE	1	20	[0, 0, 0]	n/a	FR1	0	R1203T
2761.568	0.951	2766310	WORD_OFF	n/a	n/a	HOLE	1	20	[0, 0, 0]	n/a	FR1	0	R1203T
2762.519	1.617	2767261	WORD	n/a	wordpools/wordpool_EN.txt	WORM	2	20	[0, 0, 0]	n/a	FR1	0	R1203T
2764.136	0.783	2768878	WORD_OFF	n/a	n/a	WORM	2	20	[0, 0, 0]	n/a	FR1	0	R1203T
2764.919	1.617	2769661	WORD	n/a	wordpools/wordpool_EN.txt	TOOL	3	20	[0, 0, 0]	n/a	FR1	0	R1203T
2766.536	0.933	2771277	WORD_OFF	n/a	n/a	TOOL	3	20	[0, 0, 0]	n/a	FR1	0	R1203T
2767.469	1.617	2772210	WORD	n/a	wordpools/wordpool_EN.txt	BAND	4	20	[0, 0, 0]	n/a	FR1	0	R1203T
2769.086	0.884	2773827	WORD_OFF	n/a	n/a	BAND	4	20	[0, 0, 0]	n/a	FR1	0	R1203T
2769.97	1.617	2774711	WORD	n/a	wordpools/wordpool_EN.txt	FUR	5	20	[0, 0, 0]	n/a	FR1	0	R1203T
2771.587	0.95	2776328	WORD_OFF	n/a	n/a	FUR	5	20	[0, 0, 0]	n/a	FR1	0	R1203T
2772.537	1.617	2777278	WORD	n/a	wordpools/wordpool_EN.txt	SQUARE	6	20	[0, 0, 0]	n/a	FR1	0	R1203T
2774.154	0.934	2778895	WORD_OFF	n/a	n/a	SQUARE	6	20	[0, 0, 0]	n/a	FR1	0	R1203T
2775.088	1.616	2779829	WORD	n/a	wordpools/wordpool_EN.txt	CHALK	7	20	[0, 0, 0]	n/a	FR1	0	R1203T
2776.704	0.767	2781445	WORD_OFF	n/a	n/a	CHALK	7	20	[0, 0, 0]	n/a	FR1	0	R1203T
2777.471	1.617	2782212	WORD	n/a	wordpools/wordpool_EN.txt	CRANE	8	20	[0, 0, 0]	n/a	FR1	0	R1203T
2779.088	0.834	2783829	WORD_OFF	n/a	n/a	CRANE	8	20	[0, 0, 0]	n/a	FR1	0	R1203T
2779.922	1.617	2784663	WORD	n/a	wordpools/wordpool_EN.txt	THREAD	9	20	[0, 0, 0]	n/a	FR1	0	R1203T
2781.539	0.866	2786280	WORD_OFF	n/a	n/a	THREAD	9	20	[0, 0, 0]	n/a	FR1	0	R1203T
2782.405	1.617	2787146	WORD	n/a	wordpools/wordpool_EN.txt	YARD	10	20	[0, 0, 0]	n/a	FR1	0	R1203T
2784.022	0.984	2788762	WORD_OFF	n/a	n/a	YARD	10	20	[0, 0, 0]	n/a	FR1	0	R1203T
2785.006	1.617	2789746	WORD	n/a	wordpools/wordpool_EN.txt	SEAL	11	20	[0, 0, 0]	n/a	FR1	0	R1203T
2786.623	0.933	2791363	WORD_OFF	n/a	n/a	SEAL	11	20	[0, 0, 0]	n/a	FR1	0	R1203T
2787.556	1.617	2792296	WORD	n/a	wordpools/wordpool_EN.txt	RIB	12	20	[0, 0, 0]	n/a	FR1	0	R1203T
2789.173	0.0	2793913	WORD_OFF	n/a	n/a	RIB	12	20	[0, 0, 0]	n/a	FR1	0	R1203T
2789.173	0.001	2793913	DISTRACT_START	n/a	n/a	n/a	-999	20	[0, 0, 0]	n/a	FR1	0	R1203T
2789.174	0.016	2793914	START	n/a	n/a	n/a	-999	20	[-999, -999, -999]	n/a	FR1	0	R1203T
2789.19	18.903	2793930	PROB	18.903	n/a	n/a	-999	20	[4, 2, 9]	15	FR1	0	R1203T
2808.093	5.958	2812832	PROB	5.958	n/a	n/a	-999	20	[6, 4, 8]	18	FR1	0	R1203T
2814.051	0.01	2818790	STOP	n/a	n/a	n/a	-999	20	[-999, -999, -999]	n/a	FR1	0	R1203T
2814.061	0.65	2818800	DISTRACT_END	n/a	n/a	n/a	-999	20	[0, 0, 0]	n/a	FR1	0	R1203T
2814.711	0.518	2819450	RETRIEVAL_ORIENT	n/a	n/a	n/a	-999	20	[0, 0, 0]	n/a	FR1	0	R1203T
2815.229	0.821	2819968	REC_START	n/a	n/a	n/a	-999	20	[0, 0, 0]	n/a	FR1	0	R1203T
2816.05	1.037	2820789	REC_WORD	1.037	n/a	FUR	-999	20	[0, 0, 0]	n/a	FR1	0	R1203T
2817.087	0.714	2821826	REC_WORD	0.714	n/a	BAND	-999	20	[0, 0, 0]	n/a	FR1	0	R1203T
2817.801	1.123	2822540	REC_WORD	1.123	n/a	SQUARE	-999	20	[0, 0, 0]	n/a	FR1	0	R1203T
2818.924	26.316	2823663	REC_WORD	26.316	n/a	CHALK	-999	20	[0, 0, 0]	n/a	FR1	0	R1203T
2845.24	39.484	2849977	REC_END	n/a	n/a	n/a	-999	20	[0, 0, 0]	n/a	FR1	0	R1203T
2884.724	0.5	2889459	TRIAL	n/a	n/a	n/a	-999	21	[0, 0, 0]	n/a	FR1	0	R1203T
2885.224	10.428	2889959	COUNTDOWN_START	n/a	n/a	n/a	-999	21	[0, 0, 0]	n/a	FR1	0	R1203T
2895.652	0.007	2900386	COUNTDOWN_END	n/a	n/a	n/a	-999	21	[0, 0, 0]	n/a	FR1	0	R1203T
2895.659	1.616	2900393	ORIENT	n/a	n/a	n/a	-999	21	[0, 0, 0]	n/a	FR1	0	R1203T
2897.275	1.785	2902009	ORIENT_OFF	n/a	n/a	n/a	-999	21	[0, 0, 0]	n/a	FR1	0	R1203T
2899.06	1.617	2903794	WORD	n/a	wordpools/wordpool_EN.txt	CUP	1	21	[0, 0, 0]	n/a	FR1	0	R1203T
2900.677	0.984	2905411	WORD_OFF	n/a	n/a	CUP	1	21	[0, 0, 0]	n/a	FR1	0	R1203T
2901.661	1.616	2906395	WORD	n/a	wordpools/wordpool_EN.txt	BALL	2	21	[0, 0, 0]	n/a	FR1	0	R1203T
2903.277	0.851	2908011	WORD_OFF	n/a	n/a	BALL	2	21	[0, 0, 0]	n/a	FR1	0	R1203T
2904.128	1.617	2908862	WORD	n/a	wordpools/wordpool_EN.txt	STEAK	3	21	[0, 0, 0]	n/a	FR1	0	R1203T
2905.745	0.866	2910479	WORD_OFF	n/a	n/a	STEAK	3	21	[0, 0, 0]	n/a	FR1	0	R1203T
2906.611	1.617	2911345	WORD	n/a	wordpools/wordpool_EN.txt	SHARK	4	21	[0, 0, 0]	n/a	FR1	0	R1203T
2908.228	0.834	2912962	WORD_OFF	n/a	n/a	SHARK	4	21	[0, 0, 0]	n/a	FR1	0	R1203T
2909.062	1.617	2913796	WORD	n/a	wordpools/wordpool_EN.txt	FORK	5	21	[0, 0, 0]	n/a	FR1	0	R1203T
2910.679	0.95	2915412	WORD_OFF	n/a	n/a	FORK	5	21	[0, 0, 0]	n/a	FR1	0	R1203T
2911.629	1.617	2916362	WORD	n/a	wordpools/wordpool_EN.txt	STRING	6	21	[0, 0, 0]	n/a	FR1	0	R1203T
2913.246	0.8	2917979	WORD_OFF	n/a	n/a	STRING	6	21	[0, 0, 0]	n/a	FR1	0	R1203T
2914.046	1.617	2918779	WORD	n/a	wordpools/wordpool_EN.txt	SUN	7	21	[0, 0, 0]	n/a	FR1	0	R1203T
2915.663	0.884	2920396	WORD_OFF	n/a	n/a	SUN	7	21	[0, 0, 0]	n/a	FR1	0	R1203T
2916.547	1.617	2921280	WORD	n/a	wordpools/wordpool_EN.txt	STONE	8	21	[0, 0, 0]	n/a	FR1	0	R1203T
2918.164	0.966	2922897	WORD_OFF	n/a	n/a	STONE	8	21	[0, 0, 0]	n/a	FR1	0	R1203T
2919.13	1.617	2923863	WORD	n/a	wordpools/wordpool_EN.txt	SOUP	9	21	[0, 0, 0]	n/a	FR1	0	R1203T
2920.747	0.834	2925480	WORD_OFF	n/a	n/a	SOUP	9	21	[0, 0, 0]	n/a	FR1	0	R1203T
2921.581	1.617	2926314	WORD	n/a	wordpools/wordpool_EN.txt	FLAME	10	21	[0, 0, 0]	n/a	FR1	0	R1203T
2923.198	0.8	2927931	WORD_OFF	n/a	n/a	FLAME	10	21	[0, 0, 0]	n/a	FR1	0	R1203T
2923.998	1.617	2928731	WORD	n/a	wordpools/wordpool_EN.txt	CORN	11	21	[0, 0, 0]	n/a	FR1	0	R1203T
2925.615	0.9	2930348	WORD_OFF	n/a	n/a	CORN	11	21	[0, 0, 0]	n/a	FR1	0	R1203T
2926.515	1.617	2931248	WORD	n/a	wordpools/wordpool_EN.txt	FENCE	12	21	[0, 0, 0]	n/a	FR1	0	R1203T
2928.132	0.0	2932864	WORD_OFF	n/a	n/a	FENCE	12	21	[0, 0, 0]	n/a	FR1	0	R1203T
2928.132	0.001	2932864	DISTRACT_START	n/a	n/a	n/a	-999	21	[0, 0, 0]	n/a	FR1	0	R1203T
2928.133	0.016	2932865	START	n/a	n/a	n/a	-999	21	[-999, -999, -999]	n/a	FR1	0	R1203T
2928.149	13.151	2932881	PROB	13.151	n/a	n/a	-999	21	[8, 8, 3]	19	FR1	0	R1203T
2941.3	8.184	2946032	PROB	8.184	n/a	n/a	-999	21	[7, 1, 5]	13	FR1	0	R1203T
2949.484	0.019	2954215	STOP	n/a	n/a	n/a	-999	21	[-999, -999, -999]	n/a	FR1	0	R1203T
2949.503	0.566	2954234	DISTRACT_END	n/a	n/a	n/a	-999	21	[0, 0, 0]	n/a	FR1	0	R1203T
2950.069	0.518	2954800	RETRIEVAL_ORIENT	n/a	n/a	n/a	-999	21	[0, 0, 0]	n/a	FR1	0	R1203T
2950.587	1.814	2955318	REC_START	n/a	n/a	n/a	-999	21	[0, 0, 0]	n/a	FR1	0	R1203T
2952.401	1.14	2957132	REC_WORD	1.14	n/a	SHARK	-999	21	[0, 0, 0]	n/a	FR1	0	R1203T
2953.541	27.057	2958272	REC_WORD	27.057	n/a	FISH	-999	21	[0, 0, 0]	n/a	FR1	0	R1203T
2980.598	105.214	2985328	REC_END	n/a	n/a	n/a	-999	21	[0, 0, 0]	n/a	FR1	0	R1203T
3085.812	0.0	3090536	INSTRUCT_START	n/a	n/a	n/a	-999	21	[0, 0, 0]	n/a	FR1	0	R1203T
3085.812	10.836	3090536	INSTRUCT_END	n/a	n/a	n/a	-999	21	[0, 0, 0]	n/a	FR1	0	R1203T
3096.648	0.0	3101371	SESS_START	n/a	n/a	n/a	-999	21	[0, 0, 0]	n/a	FR1	0	R1203T
3096.648	17.552	3101371	MIC_TEST	n/a	n/a	n/a	-999	21	[0, 0, 0]	n/a	FR1	0	R1203T
3114.2	0.5	3118922	TRIAL	n/a	n/a	n/a	-999	22	[0, 0, 0]	n/a	FR1	0	R1203T
3114.7	10.428	3119422	COUNTDOWN_START	n/a	n/a	n/a	-999	22	[0, 0, 0]	n/a	FR1	0	R1203T
3125.128	0.008	3129850	COUNTDOWN_END	n/a	n/a	n/a	-999	22	[0, 0, 0]	n/a	FR1	0	R1203T
3125.136	1.617	3129858	ORIENT	n/a	n/a	n/a	-999	22	[0, 0, 0]	n/a	FR1	0	R1203T
3126.753	2.167	3131474	ORIENT_OFF	n/a	n/a	n/a	-999	22	[0, 0, 0]	n/a	FR1	0	R1203T
3128.92	1.618	3133641	WORD	n/a	wordpools/wordpool_EN.txt	WEED	1	22	[0, 0, 0]	n/a	FR1	0	R1203T
3130.538	0.832	3135259	WORD_OFF	n/a	n/a	WEED	1	22	[0, 0, 0]	n/a	FR1	0	R1203T
3131.37	1.617	3136091	WORD	n/a	wordpools/wordpool_EN.txt	COIN	2	22	[0, 0, 0]	n/a	FR1	0	R1203T
3132.987	0.8	3137708	WORD_OFF	n/a	n/a	COIN	2	22	[0, 0, 0]	n/a	FR1	0	R1203T
3133.787	1.617	3138508	WORD	n/a	wordpools/wordpool_EN.txt	FLEA	3	22	[0, 0, 0]	n/a	FR1	0	R1203T
3135.404	0.817	3140125	WORD_OFF	n/a	n/a	FLEA	3	22	[0, 0, 0]	n/a	FR1	0	R1203T
3136.221	1.617	3140942	WORD	n/a	wordpools/wordpool_EN.txt	CHIEF	4	22	[0, 0, 0]	n/a	FR1	0	R1203T
3137.838	0.85	3142559	WORD_OFF	n/a	n/a	CHIEF	4	22	[0, 0, 0]	n/a	FR1	0	R1203T
3138.688	1.617	3143409	WORD	n/a	wordpools/wordpool_EN.txt	GLASS	5	22	[0, 0, 0]	n/a	FR1	0	R1203T
3140.305	0.9	3145026	WORD_OFF	n/a	n/a	GLASS	5	22	[0, 0, 0]	n/a	FR1	0	R1203T
3141.205	1.617	3145926	WORD	n/a	wordpools/wordpool_EN.txt	FOG	6	22	[0, 0, 0]	n/a	FR1	0	R1203T
3142.822	0.85	3147543	WORD_OFF	n/a	n/a	FOG	6	22	[0, 0, 0]	n/a	FR1	0	R1203T
3143.672	1.617	3148392	WORD	n/a	wordpools/wordpool_EN.txt	BOY	7	22	[0, 0, 0]	n/a	FR1	0	R1203T
3145.289	0.8	3150009	WORD_OFF	n/a	n/a	BOY	7	22	[0, 0, 0]	n/a	FR1	0	R1203T
3146.089	1.617	3150809	WORD	n/a	wordpools/wordpool_EN.txt	CASH	8	22	[0, 0, 0]	n/a	FR1	0	R1203T
3147.706	0.967	3152426	WORD_OFF	n/a	n/a	CASH	8	22	[0, 0, 0]	n/a	FR1	0	R1203T
3148.673	1.617	3153393	WORD	n/a	wordpools/wordpool_EN.txt	SCHOOL	9	22	[0, 0, 0]	n/a	FR1	0	R1203T
3150.29	0.917	3155010	WORD_OFF	n/a	n/a	SCHOOL	9	22	[0, 0, 0]	n/a	FR1	0	R1203T
3151.207	1.617	3155927	WORD	n/a	wordpools/wordpool_EN.txt	DRUM	10	22	[0, 0, 0]	n/a	FR1	0	R1203T
3152.824	0.95	3157544	WORD_OFF	n/a	n/a	DRUM	10	22	[0, 0, 0]	n/a	FR1	0	R1203T
3153.774	1.617	3158494	WORD	n/a	wordpools/wordpool_EN.txt	VAN	11	22	[0, 0, 0]	n/a	FR1	0	R1203T
3155.391	0.767	3160111	WORD_OFF	n/a	n/a	VAN	11	22	[0, 0, 0]	n/a	FR1	0	R1203T
3156.158	1.617	3160878	WORD	n/a	wordpools/wordpool_EN.txt	STREET	12	22	[0, 0, 0]	n/a	FR1	0	R1203T
3157.775	0.0	3162495	WORD_OFF	n/a	n/a	STREET	12	22	[0, 0, 0]	n/a	FR1	0	R1203T
3157.775	0.0	3162495	DISTRACT_START	n/a	n/a	n/a	-999	22	[0, 0, 0]	n/a	FR1	0	R1203T
3157.775	0.017	3162495	START	n/a	n/a	n/a	-999	22	[-999, -999, -999]	n/a	FR1	0	R1203T
3157.792	17.103	3162512	PROB	17.103	n/a	n/a	-999	22	[2, 5, 1]	8	FR1	0	R1203T
3174.895	7.47	3179614	PROB	7.47	n/a	n/a	-999	22	[4, 2, 5]	11	FR1	0	R1203T
3182.365	0.014	3187083	STOP	n/a	n/a	n/a	-999	22	[-999, -999, -999]	n/a	FR1	0	R1203T
3182.379	0.65	3187097	DISTRACT_END	n/a	n/a	n/a	-999	22	[0, 0, 0]	n/a	FR1	0	R1203T
3183.029	0.519	3187747	RETRIEVAL_ORIENT	n/a	n/a	n/a	-999	22	[0, 0, 0]	n/a	FR1	0	R1203T
3183.548	1.258	3188266	REC_START	n/a	n/a	n/a	-999	22	[0, 0, 0]	n/a	FR1	0	R1203T
3184.806	0.916	3189524	REC_WORD	0.916	n/a	FROG	-999	22	[0, 0, 0]	n/a	FR1	0	R1203T
3185.722	0.877	3190440	REC_WORD	0.877	n/a	BOY	-999	22	[0, 0, 0]	n/a	FR1	0	R1203T
3186.599	26.434	3191317	REC_WORD	26.434	n/a	FISH	-999	22	[0, 0, 0]	n/a	FR1	0	R1203T
3213.033	0.528	3217750	REC_WORD_VV	0.528	n/a	<>	-999	22	[0, 0, 0]	n/a	FR1	0	R1203T
3213.561	77.388	3218278	REC_END	n/a	n/a	n/a	-999	22	[0, 0, 0]	n/a	FR1	0	R1203T
3290.949	0.5	3295661	TRIAL	n/a	n/a	n/a	-999	23	[0, 0, 0]	n/a	FR1	0	R1203T
3291.449	10.428	3296161	COUNTDOWN_START	n/a	n/a	n/a	-999	23	[0, 0, 0]	n/a	FR1	0	R1203T
3301.877	0.007	3306589	COUNTDOWN_END	n/a	n/a	n/a	-999	23	[0, 0, 0]	n/a	FR1	0	R1203T
3301.884	1.618	3306596	ORIENT	n/a	n/a	n/a	-999	23	[0, 0, 0]	n/a	FR1	0	R1203T
3303.502	1.95	3308214	ORIENT_OFF	n/a	n/a	n/a	-999	23	[0, 0, 0]	n/a	FR1	0	R1203T
3305.452	1.617	3310163	WORD	n/a	wordpools/wordpool_EN.txt	BEAN	1	23	[0, 0, 0]	n/a	FR1	0	R1203T
3307.069	0.783	3311780	WORD_OFF	n/a	n/a	BEAN	1	23	[0, 0, 0]	n/a	FR1	0	R1203T
3307.852	1.618	3312563	WORD	n/a	wordpools/wordpool_EN.txt	PLANT	2	23	[0, 0, 0]	n/a	FR1	0	R1203T
3309.47	0.849	3314181	WORD_OFF	n/a	n/a	PLANT	2	23	[0, 0, 0]	n/a	FR1	0	R1203T
3310.319	1.617	3315030	WORD	n/a	wordpools/wordpool_EN.txt	VINE	3	23	[0, 0, 0]	n/a	FR1	0	R1203T
3311.936	0.95	3316647	WORD_OFF	n/a	n/a	VINE	3	23	[0, 0, 0]	n/a	FR1	0	R1203T
3312.886	1.618	3317597	WORD	n/a	wordpools/wordpool_EN.txt	DITCH	4	23	[0, 0, 0]	n/a	FR1	0	R1203T
3314.504	0.916	3319215	WORD_OFF	n/a	n/a	DITCH	4	23	[0, 0, 0]	n/a	FR1	0	R1203T
3315.42	1.617	3320131	WORD	n/a	wordpools/wordpool_EN.txt	LAMB	5	23	[0, 0, 0]	n/a	FR1	0	R1203T
3317.037	0.8	3321748	WORD_OFF	n/a	n/a	LAMB	5	23	[0, 0, 0]	n/a	FR1	0	R1203T
3317.837	1.618	3322548	WORD	n/a	wordpools/wordpool_EN.txt	TEA	6	23	[0, 0, 0]	n/a	FR1	0	R1203T
3319.455	0.983	3324166	WORD_OFF	n/a	n/a	TEA	6	23	[0, 0, 0]	n/a	FR1	0	R1203T
3320.438	1.617	3325149	WORD	n/a	wordpools/wordpool_EN.txt	COW	7	23	[0, 0, 0]	n/a	FR1	0	R1203T
3322.055	0.8	3326766	WORD_OFF	n/a	n/a	COW	7	23	[0, 0, 0]	n/a	FR1	0	R1203T
3322.855	1.618	3327566	WORD	n/a	wordpools/wordpool_EN.txt	JEEP	8	23	[0, 0, 0]	n/a	FR1	0	R1203T
3324.473	0.882	3329183	WORD_OFF	n/a	n/a	JEEP	8	23	[0, 0, 0]	n/a	FR1	0	R1203T
3325.355	1.617	3330065	WORD	n/a	wordpools/wordpool_EN.txt	HOOF	9	23	[0, 0, 0]	n/a	FR1	0	R1203T
3326.972	0.8	3331682	WORD_OFF	n/a	n/a	HOOF	9	23	[0, 0, 0]	n/a	FR1	0	R1203T
3327.772	1.617	3332482	WORD	n/a	wordpools/wordpool_EN.txt	SPRING	10	23	[0, 0, 0]	n/a	FR1	0	R1203T
3329.389	0.967	3334099	WORD_OFF	n/a	n/a	SPRING	10	23	[0, 0, 0]	n/a	FR1	0	R1203T
3330.356	1.617	3335066	WORD	n/a	wordpools/wordpool_EN.txt	BUSH	11	23	[0, 0, 0]	n/a	FR1	0	R1203T
3331.973	0.834	3336683	WORD_OFF	n/a	n/a	BUSH	11	23	[0, 0, 0]	n/a	FR1	0	R1203T
3332.807	1.617	3337517	WORD	n/a	wordpools/wordpool_EN.txt	GRASS	12	23	[0, 0, 0]	n/a	FR1	0	R1203T
3334.424	0.0	3339134	WORD_OFF	n/a	n/a	GRASS	12	23	[0, 0, 0]	n/a	FR1	0	R1203T
3334.424	0.0	3339134	DISTRACT_START	n/a	n/a	n/a	-999	23	[0, 0, 0]	n/a	FR1	0	R1203T
3334.424	0.016	3339134	START	n/a	n/a	n/a	-999	23	[-999, -999, -999]	n/a	FR1	0	R1203T
3334.44	16.603	3339150	PROB	16.603	n/a	n/a	-999	23	[5, 9, 8]	12	FR1	0	R1203T
3351.043	18.217	3355752	PROB	18.217	n/a	n/a	-999	23	[9, 7, 5]	22	FR1	0	R1203T
3369.26	0.02	3373968	STOP	n/a	n/a	n/a	-999	23	[-999, -999, -999]	n/a	FR1	0	R1203T
3369.28	0.7	3373988	DISTRACT_END	n/a	n/a	n/a	-999	23	[0, 0, 0]	n/a	FR1	0	R1203T
3369.98	0.519	3374688	RETRIEVAL_ORIENT	n/a	n/a	n/a	-999	23	[0, 0, 0]	n/a	FR1	0	R1203T
3370.499	1.447	3375207	REC_START	n/a	n/a	n/a	-999	23	[0, 0, 0]	n/a	FR1	0	R1203T
3371.946	0.758	3376654	REC_WORD	0.758	n/a	BEAN	-999	23	[0, 0, 0]	n/a	FR1	0	R1203T
3372.704	1.159	3377412	REC_WORD	1.159	n/a	PLANT	-999	23	[0, 0, 0]	n/a	FR1	0	R1203T
3373.863	26.647	3378571	REC_WORD	26.647	n/a	COW	-999	23	[0, 0, 0]	n/a	FR1	0	R1203T
3400.51	20.663	3405216	REC_END	n/a	n/a	n/a	-999	23	[0, 0, 0]	n/a	FR1	0	R1203T
3421.173	0.5	3425878	TRIAL	n/a	n/a	n/a	-999	24	[0, 0, 0]	n/a	FR1	0	R1203T
3421.673	10.428	3426378	COUNTDOWN_START	n/a	n/a	n/a	-999	24	[0, 0, 0]	n/a	FR1	0	R1203T
3432.101	0.007	3436805	COUNTDOWN_END	n/a	n/a	n/a	-999	24	[0, 0, 0]	n/a	FR1	0	R1203T
3432.108	1.617	3436812	ORIENT	n/a	n/a	n/a	-999	24	[0, 0, 0]	n/a	FR1	0	R1203T
3433.725	2.184	3438429	ORIENT_OFF	n/a	n/a	n/a	-999	24	[0, 0, 0]	n/a	FR1	0	R1203T
3435.909	1.618	3440613	WORD	n/a	wordpools/wordpool_EN.txt	SHOE	1	24	[0, 0, 0]	n/a	FR1	0	R1203T
3437.527	0.782	3442231	WORD_OFF	n/a	n/a	SHOE	1	24	[0, 0, 0]	n/a	FR1	0	R1203T
3438.309	1.617	3443013	WORD	n/a	wordpools/wordpool_EN.txt	DRESS	2	24	[0, 0, 0]	n/a	FR1	0	R1203T
3439.926	0.767	3444630	WORD_OFF	n/a	n/a	DRESS	2	24	[0, 0, 0]	n/a	FR1	0	R1203T
3440.693	1.617	3445397	WORD	n/a	wordpools/wordpool_EN.txt	BOWL	3	24	[0, 0, 0]	n/a	FR1	0	R1203T
3442.31	0.8	3447014	WORD_OFF	n/a	n/a	BOWL	3	24	[0, 0, 0]	n/a	FR1	0	R1203T
3443.11	1.617	3447814	WORD	n/a	wordpools/wordpool_EN.txt	CAKE	4	24	[0, 0, 0]	n/a	FR1	0	R1203T
3444.727	0.901	3449431	WORD_OFF	n/a	n/a	CAKE	4	24	[0, 0, 0]	n/a	FR1	0	R1203T
3445.628	1.616	3450332	WORD	n/a	wordpools/wordpool_EN.txt	PLATE	5	24	[0, 0, 0]	n/a	FR1	0	R1203T
3447.244	0.934	3451948	WORD_OFF	n/a	n/a	PLATE	5	24	[0, 0, 0]	n/a	FR1	0	R1203T
3448.178	1.617	3452882	WORD	n/a	wordpools/wordpool_EN.txt	BOX	6	24	[0, 0, 0]	n/a	FR1	0	R1203T
3449.795	0.866	3454498	WORD_OFF	n/a	n/a	BOX	6	24	[0, 0, 0]	n/a	FR1	0	R1203T
3450.661	1.617	3455364	WORD	n/a	wordpools/wordpool_EN.txt	RUG	7	24	[0, 0, 0]	n/a	FR1	0	R1203T
3452.278	0.984	3456981	WORD_OFF	n/a	n/a	RUG	7	24	[0, 0, 0]	n/a	FR1	0	R1203T
3453.262	1.617	3457965	WORD	n/a	wordpools/wordpool_EN.txt	FAN	8	24	[0, 0, 0]	n/a	FR1	0	R1203T
3454.879	0.85	3459582	WORD_OFF	n/a	n/a	FAN	8	24	[0, 0, 0]	n/a	FR1	0	R1203T
3455.729	1.617	3460432	WORD	n/a	wordpools/wordpool_EN.txt	DIME	9	24	[0, 0, 0]	n/a	FR1	0	R1203T
3457.346	0.85	3462049	WORD_OFF	n/a	n/a	DIME	9	24	[0, 0, 0]	n/a	FR1	0	R1203T
3458.196	1.617	3462899	WORD	n/a	wordpools/wordpool_EN.txt	KITE	10	24	[0, 0, 0]	n/a	FR1	0	R1203T
3459.813	0.883	3464516	WORD_OFF	n/a	n/a	KITE	10	24	[0, 0, 0]	n/a	FR1	0	R1203T
3460.696	1.618	3465399	WORD	n/a	wordpools/wordpool_EN.txt	CLOWN	11	24	[0, 0, 0]	n/a	FR1	0	R1203T
3462.314	0.85	3467017	WORD_OFF	n/a	n/a	CLOWN	11	24	[0, 0, 0]	n/a	FR1	0	R1203T
3463.164	1.617	3467867	WORD	n/a	wordpools/wordpool_EN.txt	PIN	12	24	[0, 0, 0]	n/a	FR1	0	R1203T
3464.781	0.0	3469484	WORD_OFF	n/a	n/a	PIN	12	24	[0, 0, 0]	n/a	FR1	0	R1203T
3464.781	0.0	3469484	DISTRACT_START	n/a	n/a	n/a	-999	24	[0, 0, 0]	n/a	FR1	0	R1203T
3464.781	0.016	3469484	START	n/a	n/a	n/a	-999	24	[-999, -999, -999]	n/a	FR1	0	R1203T
3464.797	7.952	3469500	PROB	7.952	n/a	n/a	-999	24	[9, 3, 1]	13	FR1	0	R1203T
3472.749	4.667	3477451	PROB	4.667	n/a	n/a	-999	24	[5, 2, 2]	9	FR1	0	R1203T
3477.416	4.069	3482118	PROB	4.069	n/a	n/a	-999	24	[5, 5, 3]	13	FR1	0	R1203T
3481.485	5.774	3486187	PROB	5.774	n/a	n/a	-999	24	[4, 3, 6]	13	FR1	0	R1203T
3487.259	0.009	3491960	STOP	n/a	n/a	n/a	-999	24	[-999, -999, -999]	n/a	FR1	0	R1203T
3487.268	0.667	3491969	DISTRACT_END	n/a	n/a	n/a	-999	24	[0, 0, 0]	n/a	FR1	0	R1203T
3487.935	0.517	3492636	RETRIEVAL_ORIENT	n/a	n/a	n/a	-999	24	[0, 0, 0]	n/a	FR1	0	R1203T
3488.452	0.837	3493153	REC_START	n/a	n/a	n/a	-999	24	[0, 0, 0]	n/a	FR1	0	R1203T
3489.289	1.153	3493990	REC_WORD	1.153	n/a	SHOE	-999	24	[0, 0, 0]	n/a	FR1	0	R1203T
3490.442	0.995	3495143	REC_WORD	0.995	n/a	DRESS	-999	24	[0, 0, 0]	n/a	FR1	0	R1203T
3491.437	1.306	3496138	REC_WORD	1.306	n/a	KITE	-999	24	[0, 0, 0]	n/a	FR1	0	R1203T
3492.743	25.722	3497444	REC_WORD	25.722	n/a	PIN	-999	24	[0, 0, 0]	n/a	FR1	0	R1203T
3518.465	12.795	3523165	REC_END	n/a	n/a	n/a	-999	24	[0, 0, 0]	n/a	FR1	0	R1203T
3531.26	0.5	3535959	TRIAL	n/a	n/a	n/a	-999	25	[0, 0, 0]	n/a	FR1	0	R1203T
3531.76	10.428	3536459	COUNTDOWN_START	n/a	n/a	n/a	-999	25	[0, 0, 0]	n/a	FR1	0	R1203T
3542.188	0.007	3546886	COUNTDOWN_END	n/a	n/a	n/a	-999	25	[0, 0, 0]	n/a	FR1	0	R1203T
3542.195	1.617	3546893	ORIENT	n/a	n/a	n/a	-999	25	[0, 0, 0]	n/a	FR1	0	R1203T
3543.812	1.95	3548510	ORIENT_OFF	n/a	n/a	n/a	-999	25	[0, 0, 0]	n/a	FR1	0	R1203T
3545.762	1.617	3550460	WORD	n/a	wordpools/wordpool_EN.txt	TOE	1	25	[0, 0, 0]	n/a	FR1	0	R1203T
3547.379	0.984	3552077	WORD_OFF	n/a	n/a	TOE	1	25	[0, 0, 0]	n/a	FR1	0	R1203T
3548.363	1.617	3553061	WORD	n/a	wordpools/wordpool_EN.txt	JUDGE	2	25	[0, 0, 0]	n/a	FR1	0	R1203T
3549.98	0.833	3554678	WORD_OFF	n/a	n/a	JUDGE	2	25	[0, 0, 0]	n/a	FR1	0	R1203T
3550.813	1.617	3555511	WORD	n/a	wordpools/wordpool_EN.txt	LIP	3	25	[0, 0, 0]	n/a	FR1	0	R1203T
3552.43	0.917	3557128	WORD_OFF	n/a	n/a	LIP	3	25	[0, 0, 0]	n/a	FR1	0	R1203T
3553.347	1.617	3558045	WORD	n/a	wordpools/wordpool_EN.txt	BRANCH	4	25	[0, 0, 0]	n/a	FR1	0	R1203T
3554.964	0.967	3559662	WORD_OFF	n/a	n/a	BRANCH	4	25	[0, 0, 0]	n/a	FR1	0	R1203T
3555.931	1.618	3560629	WORD	n/a	wordpools/wordpool_EN.txt	LAWN	5	25	[0, 0, 0]	n/a	FR1	0	R1203T
3557.549	0.95	3562246	WORD_OFF	n/a	n/a	LAWN	5	25	[0, 0, 0]	n/a	FR1	0	R1203T
3558.499	1.616	3563196	WORD	n/a	wordpools/wordpool_EN.txt	PEAR	6	25	[0, 0, 0]	n/a	FR1	0	R1203T
3560.115	0.883	3564812	WORD_OFF	n/a	n/a	PEAR	6	25	[0, 0, 0]	n/a	FR1	0	R1203T
3560.998	1.618	3565695	WORD	n/a	wordpools/wordpool_EN.txt	KEY	7	25	[0, 0, 0]	n/a	FR1	0	R1203T
3562.616	0.984	3567313	WORD_OFF	n/a	n/a	KEY	7	25	[0, 0, 0]	n/a	FR1	0	R1203T
3563.6	1.616	3568297	WORD	n/a	wordpools/wordpool_EN.txt	HORN	8	25	[0, 0, 0]	n/a	FR1	0	R1203T
3565.216	1.0	3569913	WORD_OFF	n/a	n/a	HORN	8	25	[0, 0, 0]	n/a	FR1	0	R1203T
3566.216	1.617	3570913	WORD	n/a	wordpools/wordpool_EN.txt	WHALE	9	25	[0, 0, 0]	n/a	FR1	0	R1203T
3567.833	0.883	3572530	WORD_OFF	n/a	n/a	WHALE	9	25	[0, 0, 0]	n/a	FR1	0	R1203T
3568.716	1.617	3573413	WORD	n/a	wordpools/wordpool_EN.txt	PARK	10	25	[0, 0, 0]	n/a	FR1	0	R1203T
3570.333	0.934	3575030	WORD_OFF	n/a	n/a	PARK	10	25	[0, 0, 0]	n/a	FR1	0	R1203T
3571.267	1.617	3575964	WORD	n/a	wordpools/wordpool_EN.txt	LOCK	11	25	[0, 0, 0]	n/a	FR1	0	R1203T
3572.884	0.9	3577581	WORD_OFF	n/a	n/a	LOCK	11	25	[0, 0, 0]	n/a	FR1	0	R1203T
3573.784	1.617	3578481	WORD	n/a	wordpools/wordpool_EN.txt	AXE	12	25	[0, 0, 0]	n/a	FR1	0	R1203T
3575.401	0.0	3580097	WORD_OFF	n/a	n/a	AXE	12	25	[0, 0, 0]	n/a	FR1	0	R1203T
3575.401	0.0	3580097	DISTRACT_START	n/a	n/a	n/a	-999	25	[0, 0, 0]	n/a	FR1	0	R1203T
3575.401	0.0	3580097	START	n/a	n/a	n/a	-999	25	[-999, -999, -999]	n/a	FR1	0	R1203T
