onset	duration	sample	trial_type	response_time	stim_file	item_name	serialpos	list	test	answer	experiment	session	subject
0.0	79.797	336930	SESS_START	n/a	n/a	n/a	-999	-999	[0, 0, 0]	n/a	FR1	0	R1006P
79.797	10.428	376827	COUNTDOWN_START	n/a	n/a	n/a	-999	-999	[0, 0, 0]	n/a	FR1	0	R1006P
90.225	3.841	382041	COUNTDOWN_END	n/a	n/a	n/a	-999	-999	[0, 0, 0]	n/a	FR1	0	R1006P
94.066	2.602	383961	PRACTICE_WORD	n/a	n/a	RHINO	1	-1	[0, 0, 0]	n/a	FR1	0	R1006P
96.668	2.449	385262	PRACTICE_WORD	n/a	n/a	CAMEL	2	-1	[0, 0, 0]	n/a	FR1	0	R1006P
99.117	2.468	386487	PRACTICE_WORD	n/a	n/a	CHEST	3	-1	[0, 0, 0]	n/a	FR1	0	R1006P
101.585	2.417	387720	PRACTICE_WORD	n/a	n/a	WATCH	4	-1	[0, 0, 0]	n/a	FR1	0	R1006P
104.002	2.501	388929	PRACTICE_WORD	n/a	n/a	IRON	5	-1	[0, 0, 0]	n/a	FR1	0	R1006P
106.503	2.383	390179	PRACTICE_WORD	n/a	n/a	FLOOD	6	-1	[0, 0, 0]	n/a	FR1	0	R1006P
108.886	2.551	391371	PRACTICE_WORD	n/a	n/a	TONGUE	7	-1	[0, 0, 0]	n/a	FR1	0	R1006P
111.437	2.6	392646	PRACTICE_WORD	n/a	n/a	RING	8	-1	[0, 0, 0]	n/a	FR1	0	R1006P
114.037	2.451	393946	PRACTICE_WORD	n/a	n/a	ATTIC	9	-1	[0, 0, 0]	n/a	FR1	0	R1006P
116.488	2.45	395172	PRACTICE_WORD	n/a	n/a	COTTON	10	-1	[0, 0, 0]	n/a	FR1	0	R1006P
118.938	2.601	396397	PRACTICE_WORD	n/a	n/a	WAGON	11	-1	[0, 0, 0]	n/a	FR1	0	R1006P
121.539	1.616	397697	PRACTICE_WORD	n/a	n/a	BEAM	12	-1	[0, 0, 0]	n/a	FR1	0	R1006P
123.155	0.0	398505	PRACTICE_DISTRACT_START	n/a	n/a	n/a	-999	-1	[0, 0, 0]	n/a	FR1	0	R1006P
123.155	0.017	398505	START	n/a	n/a	n/a	-999	-1	[-999, -999, -999]	n/a	FR1	0	R1006P
123.172	25.496	398513	PROB	25.496	n/a	n/a	-999	-1	[6, 1, 5]	12	FR1	0	R1006P
148.668	0.01	411261	STOP	n/a	n/a	n/a	-999	-1	[-999, -999, -999]	n/a	FR1	0	R1006P
148.678	0.568	411266	PRACTICE_DISTRACT_END	n/a	n/a	n/a	-999	-1	[0, 0, 0]	n/a	FR1	0	R1006P
149.246	30.514	411550	PRACTICE_REC_START	n/a	n/a	n/a	-999	-1	[0, 0, 0]	n/a	FR1	0	R1006P
179.76	41.664	426806	PRACTICE_REC_END	n/a	n/a	n/a	-999	-1	[0, 0, 0]	n/a	FR1	0	R1006P
221.424	0.001	447637	COUNTDOWN_START	n/a	n/a	n/a	-999	1	[0, 0, 0]	n/a	FR1	0	R1006P
221.425	10.427	447637	TRIAL	n/a	n/a	n/a	-999	1	[0, 0, 0]	n/a	FR1	0	R1006P
231.852	0.007	452851	COUNTDOWN_END	n/a	n/a	n/a	-999	1	[0, 0, 0]	n/a	FR1	0	R1006P
231.859	2.552	452854	ORIENT	n/a	n/a	n/a	-999	1	[0, 0, 0]	n/a	FR1	0	R1006P
234.411	2.532	454130	WORD	n/a	wordpools/wordpool_EN.txt	BRUSH	1	1	[0, 0, 0]	n/a	FR1	0	R1006P
236.943	2.485	455396	WORD	n/a	wordpools/wordpool_EN.txt	FLAME	2	1	[0, 0, 0]	n/a	FR1	0	R1006P
239.428	2.6	456639	WORD	n/a	wordpools/wordpool_EN.txt	STICK	3	1	[0, 0, 0]	n/a	FR1	0	R1006P
242.028	2.418	457938	WORD	n/a	wordpools/wordpool_EN.txt	ROSE	4	1	[0, 0, 0]	n/a	FR1	0	R1006P
244.446	2.533	459147	WORD	n/a	wordpools/wordpool_EN.txt	POND	5	1	[0, 0, 0]	n/a	FR1	0	R1006P
246.979	2.484	460414	WORD	n/a	wordpools/wordpool_EN.txt	PARK	6	1	[0, 0, 0]	n/a	FR1	0	R1006P
249.463	2.517	461656	WORD	n/a	wordpools/wordpool_EN.txt	SLIME	7	1	[0, 0, 0]	n/a	FR1	0	R1006P
251.98	2.501	462914	WORD	n/a	wordpools/wordpool_EN.txt	DEER	8	1	[0, 0, 0]	n/a	FR1	0	R1006P
254.481	2.466	464165	WORD	n/a	wordpools/wordpool_EN.txt	LIP	9	1	[0, 0, 0]	n/a	FR1	0	R1006P
256.947	2.452	465398	WORD	n/a	wordpools/wordpool_EN.txt	MAT	10	1	[0, 0, 0]	n/a	FR1	0	R1006P
259.399	2.566	466624	WORD	n/a	wordpools/wordpool_EN.txt	CLIFF	11	1	[0, 0, 0]	n/a	FR1	0	R1006P
261.965	1.618	467906	WORD	n/a	wordpools/wordpool_EN.txt	JAR	12	1	[0, 0, 0]	n/a	FR1	0	R1006P
263.583	0.001	468715	DISTRACT_START	n/a	n/a	n/a	-999	1	[0, 0, 0]	n/a	FR1	0	R1006P
263.584	0.015	468716	START	n/a	n/a	n/a	-999	1	[-999, -999, -999]	n/a	FR1	0	R1006P
263.599	7.918	468723	PROB	7.918	n/a	n/a	-999	1	[4, 5, 1]	10	FR1	0	R1006P
271.517	6.651	472682	PROB	6.651	n/a	n/a	-999	1	[2, 7, 3]	12	FR1	0	R1006P
278.168	4.218	476008	PROB	4.218	n/a	n/a	-999	1	[3, 6, 1]	10	FR1	0	R1006P
282.386	4.569	478116	PROB	4.569	n/a	n/a	-999	1	[4, 1, 9]	14	FR1	0	R1006P
286.955	0.014	480401	STOP	n/a	n/a	n/a	-999	1	[-999, -999, -999]	n/a	FR1	0	R1006P
286.969	1.135	480408	DISTRACT_END	n/a	n/a	n/a	-999	1	[0, 0, 0]	n/a	FR1	0	R1006P
288.104	4.943	480975	REC_START	n/a	n/a	n/a	-999	1	[0, 0, 0]	n/a	FR1	0	R1006P
293.047	0.706	483447	REC_WORD	0.706	n/a	BRUSH	-999	1	[0, 0, 0]	n/a	FR1	0	R1006P
293.753	2.269	483800	REC_WORD	2.269	n/a	FIRE	-999	1	[0, 0, 0]	n/a	FR1	0	R1006P
296.022	2.12	484934	REC_WORD	2.12	n/a	FLAME	-999	1	[0, 0, 0]	n/a	FR1	0	R1006P
298.142	2.882	485994	REC_WORD_VV	2.882	n/a	<>	-999	1	[0, 0, 0]	n/a	FR1	0	R1006P
301.024	0.859	487435	REC_WORD	0.859	n/a	STICK	-999	1	[0, 0, 0]	n/a	FR1	0	R1006P
301.883	7.948	487864	REC_WORD	7.948	n/a	POND	-999	1	[0, 0, 0]	n/a	FR1	0	R1006P
309.831	8.285	491838	REC_WORD_VV	8.285	n/a	<>	-999	1	[0, 0, 0]	n/a	FR1	0	R1006P
318.116	10.678	495981	REC_END	n/a	n/a	n/a	-999	1	[0, 0, 0]	n/a	FR1	0	R1006P
328.794	0.0	501319	TRIAL	n/a	n/a	n/a	-999	2	[0, 0, 0]	n/a	FR1	0	R1006P
328.794	10.428	501319	COUNTDOWN_START	n/a	n/a	n/a	-999	2	[0, 0, 0]	n/a	FR1	0	R1006P
339.222	0.007	506533	COUNTDOWN_END	n/a	n/a	n/a	-999	2	[0, 0, 0]	n/a	FR1	0	R1006P
339.229	2.402	506537	ORIENT	n/a	n/a	n/a	-999	2	[0, 0, 0]	n/a	FR1	0	R1006P
341.631	2.449	507737	WORD	n/a	wordpools/wordpool_EN.txt	STONE	1	2	[0, 0, 0]	n/a	FR1	0	R1006P
344.08	2.568	508962	WORD	n/a	wordpools/wordpool_EN.txt	FOAM	2	2	[0, 0, 0]	n/a	FR1	0	R1006P
346.648	2.567	510246	WORD	n/a	wordpools/wordpool_EN.txt	CUBE	3	2	[0, 0, 0]	n/a	FR1	0	R1006P
349.215	2.6	511529	WORD	n/a	wordpools/wordpool_EN.txt	BEACH	4	2	[0, 0, 0]	n/a	FR1	0	R1006P
351.815	2.401	512829	WORD	n/a	wordpools/wordpool_EN.txt	ROOF	5	2	[0, 0, 0]	n/a	FR1	0	R1006P
354.216	2.55	514030	WORD	n/a	wordpools/wordpool_EN.txt	CAVE	6	2	[0, 0, 0]	n/a	FR1	0	R1006P
356.766	2.384	515305	WORD	n/a	wordpools/wordpool_EN.txt	WEB	7	2	[0, 0, 0]	n/a	FR1	0	R1006P
359.15	2.501	516497	WORD	n/a	wordpools/wordpool_EN.txt	HOLE	8	2	[0, 0, 0]	n/a	FR1	0	R1006P
361.651	2.601	517747	WORD	n/a	wordpools/wordpool_EN.txt	BUSH	9	2	[0, 0, 0]	n/a	FR1	0	R1006P
364.252	2.583	519047	WORD	n/a	wordpools/wordpool_EN.txt	SNAIL	10	2	[0, 0, 0]	n/a	FR1	0	R1006P
366.835	2.584	520339	WORD	n/a	wordpools/wordpool_EN.txt	LAKE	11	2	[0, 0, 0]	n/a	FR1	0	R1006P
369.419	1.616	521631	WORD	n/a	wordpools/wordpool_EN.txt	SPEAR	12	2	[0, 0, 0]	n/a	FR1	0	R1006P
371.035	0.001	522439	DISTRACT_START	n/a	n/a	n/a	-999	2	[0, 0, 0]	n/a	FR1	0	R1006P
371.036	0.016	522439	START	n/a	n/a	n/a	-999	2	[-999, -999, -999]	n/a	FR1	0	R1006P
371.052	11.387	522447	PROB	11.387	n/a	n/a	-999	2	[9, 4, 9]	22	FR1	0	R1006P
382.439	10.837	528140	PROB	10.837	n/a	n/a	-999	2	[7, 8, 8]	24	FR1	0	R1006P
393.276	0.015	533559	STOP	n/a	n/a	n/a	-999	2	[-999, -999, -999]	n/a	FR1	0	R1006P
393.291	1.2	533566	DISTRACT_END	n/a	n/a	n/a	-999	2	[0, 0, 0]	n/a	FR1	0	R1006P
394.491	2.738	534166	REC_START	n/a	n/a	n/a	-999	2	[0, 0, 0]	n/a	FR1	0	R1006P
397.229	2.824	535535	REC_WORD_VV	2.824	n/a	<>	-999	2	[0, 0, 0]	n/a	FR1	0	R1006P
400.053	0.963	536947	REC_WORD	0.963	n/a	CAVE	-999	2	[0, 0, 0]	n/a	FR1	0	R1006P
401.016	1.205	537428	REC_WORD	1.205	n/a	BUSH	-999	2	[0, 0, 0]	n/a	FR1	0	R1006P
402.221	5.02	538031	REC_WORD	5.02	n/a	WEB	-999	2	[0, 0, 0]	n/a	FR1	0	R1006P
407.241	0.93	540541	REC_WORD	0.93	n/a	GIANT	-999	2	[0, 0, 0]	n/a	FR1	0	R1006P
408.171	2.71	541006	REC_WORD_VV	2.71	n/a	<>	-999	2	[0, 0, 0]	n/a	FR1	0	R1006P
410.881	4.486	542361	REC_WORD_VV	4.486	n/a	<>	-999	2	[0, 0, 0]	n/a	FR1	0	R1006P
415.367	9.14	544604	REC_WORD	9.14	n/a	POND	-999	2	[0, 0, 0]	n/a	FR1	0	R1006P
424.507	2.973	549173	REC_END	n/a	n/a	n/a	-999	2	[0, 0, 0]	n/a	FR1	0	R1006P
427.48	0.001	550660	COUNTDOWN_START	n/a	n/a	n/a	-999	3	[0, 0, 0]	n/a	FR1	0	R1006P
427.481	10.427	550660	TRIAL	n/a	n/a	n/a	-999	3	[0, 0, 0]	n/a	FR1	0	R1006P
437.908	0.007	555874	COUNTDOWN_END	n/a	n/a	n/a	-999	3	[0, 0, 0]	n/a	FR1	0	R1006P
437.915	2.384	555877	ORIENT	n/a	n/a	n/a	-999	3	[0, 0, 0]	n/a	FR1	0	R1006P
440.299	2.55	557069	WORD	n/a	wordpools/wordpool_EN.txt	BALL	1	3	[0, 0, 0]	n/a	FR1	0	R1006P
442.849	2.535	558344	WORD	n/a	wordpools/wordpool_EN.txt	GLOVE	2	3	[0, 0, 0]	n/a	FR1	0	R1006P
445.384	2.599	559611	WORD	n/a	wordpools/wordpool_EN.txt	DRUM	3	3	[0, 0, 0]	n/a	FR1	0	R1006P
447.983	2.518	560911	WORD	n/a	wordpools/wordpool_EN.txt	PALM	4	3	[0, 0, 0]	n/a	FR1	0	R1006P
450.501	2.4	562170	WORD	n/a	wordpools/wordpool_EN.txt	PLATE	5	3	[0, 0, 0]	n/a	FR1	0	R1006P
452.901	2.501	563370	WORD	n/a	wordpools/wordpool_EN.txt	PRINCE	6	3	[0, 0, 0]	n/a	FR1	0	R1006P
455.402	2.383	564620	WORD	n/a	wordpools/wordpool_EN.txt	CHAIR	7	3	[0, 0, 0]	n/a	FR1	0	R1006P
457.785	2.384	565812	WORD	n/a	wordpools/wordpool_EN.txt	NET	8	3	[0, 0, 0]	n/a	FR1	0	R1006P
460.169	2.501	567004	WORD	n/a	wordpools/wordpool_EN.txt	TREE	9	3	[0, 0, 0]	n/a	FR1	0	R1006P
462.67	2.483	568254	WORD	n/a	wordpools/wordpool_EN.txt	VASE	10	3	[0, 0, 0]	n/a	FR1	0	R1006P
465.153	2.502	569495	WORD	n/a	wordpools/wordpool_EN.txt	SHARK	11	3	[0, 0, 0]	n/a	FR1	0	R1006P
467.655	1.617	570746	WORD	n/a	wordpools/wordpool_EN.txt	COIN	12	3	[0, 0, 0]	n/a	FR1	0	R1006P
469.272	0.0	571555	DISTRACT_START	n/a	n/a	n/a	-999	3	[0, 0, 0]	n/a	FR1	0	R1006P
469.272	0.016	571555	START	n/a	n/a	n/a	-999	3	[-999, -999, -999]	n/a	FR1	0	R1006P
469.288	5.867	571563	PROB	5.867	n/a	n/a	-999	3	[2, 1, 6]	9	FR1	0	R1006P
475.155	17.936	574496	PROB	17.936	n/a	n/a	-999	3	[3, 8, 7]	18	FR1	0	R1006P
493.091	0.017	583464	STOP	n/a	n/a	n/a	-999	3	[-999, -999, -999]	n/a	FR1	0	R1006P
493.108	1.219	583472	DISTRACT_END	n/a	n/a	n/a	-999	3	[0, 0, 0]	n/a	FR1	0	R1006P
494.327	2.698	584082	REC_START	n/a	n/a	n/a	-999	3	[0, 0, 0]	n/a	FR1	0	R1006P
497.025	1.614	585431	REC_WORD	1.614	n/a	GLOVE	-999	3	[0, 0, 0]	n/a	FR1	0	R1006P
498.639	2.383	586238	REC_WORD	2.383	n/a	SHARK	-999	3	[0, 0, 0]	n/a	FR1	0	R1006P
501.022	13.54	587429	REC_WORD	13.54	n/a	VASE	-999	3	[0, 0, 0]	n/a	FR1	0	R1006P
514.562	5.493	594199	REC_WORD	5.493	n/a	ROCK	-999	3	[0, 0, 0]	n/a	FR1	0	R1006P
520.055	1.346	596945	REC_WORD_VV	1.346	n/a	<>	-999	3	[0, 0, 0]	n/a	FR1	0	R1006P
521.401	2.938	597618	REC_WORD_VV	2.938	n/a	<>	-999	3	[0, 0, 0]	n/a	FR1	0	R1006P
524.339	1.742	599087	REC_END	n/a	n/a	n/a	-999	3	[0, 0, 0]	n/a	FR1	0	R1006P
526.081	0.001	599958	COUNTDOWN_START	n/a	n/a	n/a	-999	4	[0, 0, 0]	n/a	FR1	0	R1006P
526.082	10.427	599958	TRIAL	n/a	n/a	n/a	-999	4	[0, 0, 0]	n/a	FR1	0	R1006P
536.509	0.009	605172	COUNTDOWN_END	n/a	n/a	n/a	-999	4	[0, 0, 0]	n/a	FR1	0	R1006P
536.518	2.532	605176	ORIENT	n/a	n/a	n/a	-999	4	[0, 0, 0]	n/a	FR1	0	R1006P
539.05	2.452	606442	WORD	n/a	wordpools/wordpool_EN.txt	MAIL	1	4	[0, 0, 0]	n/a	FR1	0	R1006P
541.502	2.483	607668	WORD	n/a	wordpools/wordpool_EN.txt	BANK	2	4	[0, 0, 0]	n/a	FR1	0	R1006P
543.985	2.635	608909	WORD	n/a	wordpools/wordpool_EN.txt	STORE	3	4	[0, 0, 0]	n/a	FR1	0	R1006P
546.62	2.382	610227	WORD	n/a	wordpools/wordpool_EN.txt	LAWN	4	4	[0, 0, 0]	n/a	FR1	0	R1006P
549.002	2.535	611418	WORD	n/a	wordpools/wordpool_EN.txt	PHONE	5	4	[0, 0, 0]	n/a	FR1	0	R1006P
551.537	2.5	612685	WORD	n/a	wordpools/wordpool_EN.txt	KEY	6	4	[0, 0, 0]	n/a	FR1	0	R1006P
554.037	2.601	613935	WORD	n/a	wordpools/wordpool_EN.txt	FUDGE	7	4	[0, 0, 0]	n/a	FR1	0	R1006P
556.638	2.416	615236	WORD	n/a	wordpools/wordpool_EN.txt	CASH	8	4	[0, 0, 0]	n/a	FR1	0	R1006P
559.054	2.585	616444	WORD	n/a	wordpools/wordpool_EN.txt	WALL	9	4	[0, 0, 0]	n/a	FR1	0	R1006P
561.639	2.466	617736	WORD	n/a	wordpools/wordpool_EN.txt	MILK	10	4	[0, 0, 0]	n/a	FR1	0	R1006P
564.105	2.468	618969	WORD	n/a	wordpools/wordpool_EN.txt	FOG	11	4	[0, 0, 0]	n/a	FR1	0	R1006P
566.573	1.616	620203	WORD	n/a	wordpools/wordpool_EN.txt	HEART	12	4	[0, 0, 0]	n/a	FR1	0	R1006P
568.189	0.001	621011	DISTRACT_START	n/a	n/a	n/a	-999	4	[0, 0, 0]	n/a	FR1	0	R1006P
568.19	0.016	621011	START	n/a	n/a	n/a	-999	4	[-999, -999, -999]	n/a	FR1	0	R1006P
568.206	15.803	621019	PROB	15.803	n/a	n/a	-999	4	[7, 8, 6]	22	FR1	0	R1006P
584.009	12.867	628920	PROB	12.867	n/a	n/a	-999	4	[7, 8, 6]	21	FR1	0	R1006P
596.876	0.019	635354	STOP	n/a	n/a	n/a	-999	4	[-999, -999, -999]	n/a	FR1	0	R1006P
596.895	1.217	635363	DISTRACT_END	n/a	n/a	n/a	-999	4	[0, 0, 0]	n/a	FR1	0	R1006P
598.112	1.717	635972	REC_START	n/a	n/a	n/a	-999	4	[0, 0, 0]	n/a	FR1	0	R1006P
599.829	1.125	636830	REC_WORD	1.125	n/a	ARM	-999	4	[0, 0, 0]	n/a	FR1	0	R1006P
600.954	0.808	637392	REC_WORD	0.808	n/a	MAIL	-999	4	[0, 0, 0]	n/a	FR1	0	R1006P
601.762	0.921	637796	REC_WORD	0.921	n/a	BANK	-999	4	[0, 0, 0]	n/a	FR1	0	R1006P
602.683	1.564	638257	REC_WORD	1.564	n/a	LAWN	-999	4	[0, 0, 0]	n/a	FR1	0	R1006P
604.247	7.193	639039	REC_WORD	7.193	n/a	FOG	-999	4	[0, 0, 0]	n/a	FR1	0	R1006P
611.44	6.028	642635	REC_WORD	6.028	n/a	LAWN	-999	4	[0, 0, 0]	n/a	FR1	0	R1006P
617.468	7.517	645649	REC_WORD_VV	7.517	n/a	<>	-999	4	[0, 0, 0]	n/a	FR1	0	R1006P
624.985	3.139	649407	REC_WORD	3.139	n/a	STONE	-999	4	[0, 0, 0]	n/a	FR1	0	R1006P
628.124	1.81	650977	REC_END	n/a	n/a	n/a	-999	4	[0, 0, 0]	n/a	FR1	0	R1006P
629.934	0.001	651882	COUNTDOWN_START	n/a	n/a	n/a	-999	5	[0, 0, 0]	n/a	FR1	0	R1006P
629.935	10.427	651882	TRIAL	n/a	n/a	n/a	-999	5	[0, 0, 0]	n/a	FR1	0	R1006P
640.362	0.009	657096	COUNTDOWN_END	n/a	n/a	n/a	-999	5	[0, 0, 0]	n/a	FR1	0	R1006P
640.371	2.399	657100	ORIENT	n/a	n/a	n/a	-999	5	[0, 0, 0]	n/a	FR1	0	R1006P
642.77	2.535	658299	WORD	n/a	wordpools/wordpool_EN.txt	BADGE	1	5	[0, 0, 0]	n/a	FR1	0	R1006P
645.305	2.4	659567	WORD	n/a	wordpools/wordpool_EN.txt	JUDGE	2	5	[0, 0, 0]	n/a	FR1	0	R1006P
647.705	2.551	660767	WORD	n/a	wordpools/wordpool_EN.txt	BOOK	3	5	[0, 0, 0]	n/a	FR1	0	R1006P
650.256	2.549	662042	WORD	n/a	wordpools/wordpool_EN.txt	PIG	4	5	[0, 0, 0]	n/a	FR1	0	R1006P
652.805	2.401	663317	WORD	n/a	wordpools/wordpool_EN.txt	PLANE	5	5	[0, 0, 0]	n/a	FR1	0	R1006P
655.206	2.418	664517	WORD	n/a	wordpools/wordpool_EN.txt	SHEET	6	5	[0, 0, 0]	n/a	FR1	0	R1006P
657.624	2.416	665726	WORD	n/a	wordpools/wordpool_EN.txt	CAR	7	5	[0, 0, 0]	n/a	FR1	0	R1006P
660.04	2.602	666934	WORD	n/a	wordpools/wordpool_EN.txt	SMOKE	8	5	[0, 0, 0]	n/a	FR1	0	R1006P
662.642	2.382	668235	WORD	n/a	wordpools/wordpool_EN.txt	SHEEP	9	5	[0, 0, 0]	n/a	FR1	0	R1006P
665.024	2.585	669426	WORD	n/a	wordpools/wordpool_EN.txt	WAVE	10	5	[0, 0, 0]	n/a	FR1	0	R1006P
667.609	2.399	670718	WORD	n/a	wordpools/wordpool_EN.txt	ARK	11	5	[0, 0, 0]	n/a	FR1	0	R1006P
670.008	1.602	671918	WORD	n/a	wordpools/wordpool_EN.txt	JET	12	5	[0, 0, 0]	n/a	FR1	0	R1006P
671.61	0.001	672719	DISTRACT_START	n/a	n/a	n/a	-999	5	[0, 0, 0]	n/a	FR1	0	R1006P
671.611	0.016	672719	START	n/a	n/a	n/a	-999	5	[-999, -999, -999]	n/a	FR1	0	R1006P
671.627	5.233	672727	PROB	5.233	n/a	n/a	-999	5	[6, 5, 5]	16	FR1	0	R1006P
676.86	11.152	675344	PROB	11.152	n/a	n/a	-999	5	[8, 9, 8]	26	FR1	0	R1006P
688.012	10.617	680919	PROB	10.617	n/a	n/a	-999	5	[5, 8, 4]	17	FR1	0	R1006P
698.629	0.019	686228	STOP	n/a	n/a	n/a	-999	5	[-999, -999, -999]	n/a	FR1	0	R1006P
698.648	1.133	686237	DISTRACT_END	n/a	n/a	n/a	-999	5	[0, 0, 0]	n/a	FR1	0	R1006P
699.781	1.33	686804	REC_START	n/a	n/a	n/a	-999	5	[0, 0, 0]	n/a	FR1	0	R1006P
701.111	2.689	687468	REC_WORD	2.689	n/a	JUDGE	-999	5	[0, 0, 0]	n/a	FR1	0	R1006P
703.8	0.735	688813	REC_WORD	0.735	n/a	BOOK	-999	5	[0, 0, 0]	n/a	FR1	0	R1006P
704.535	1.103	689180	REC_WORD	1.103	n/a	BADGE	-999	5	[0, 0, 0]	n/a	FR1	0	R1006P
705.638	2.239	689732	REC_WORD	2.239	n/a	CAKE	-999	5	[0, 0, 0]	n/a	FR1	0	R1006P
707.877	3.408	690851	REC_WORD_VV	3.408	n/a	<>	-999	5	[0, 0, 0]	n/a	FR1	0	R1006P
711.285	9.965	692555	REC_WORD	9.965	n/a	FOG	-999	5	[0, 0, 0]	n/a	FR1	0	R1006P
721.25	8.547	697537	REC_WORD	8.547	n/a	BOOK	-999	5	[0, 0, 0]	n/a	FR1	0	R1006P
729.797	1.874	701811	REC_END	n/a	n/a	n/a	-999	5	[0, 0, 0]	n/a	FR1	0	R1006P
731.671	0.0	702748	TRIAL	n/a	n/a	n/a	-999	6	[0, 0, 0]	n/a	FR1	0	R1006P
731.671	10.428	702748	COUNTDOWN_START	n/a	n/a	n/a	-999	6	[0, 0, 0]	n/a	FR1	0	R1006P
742.099	0.006	707961	COUNTDOWN_END	n/a	n/a	n/a	-999	6	[0, 0, 0]	n/a	FR1	0	R1006P
742.105	2.452	707964	ORIENT	n/a	n/a	n/a	-999	6	[0, 0, 0]	n/a	FR1	0	R1006P
744.557	2.599	709190	WORD	n/a	wordpools/wordpool_EN.txt	HILL	1	6	[0, 0, 0]	n/a	FR1	0	R1006P
747.156	2.601	710490	WORD	n/a	wordpools/wordpool_EN.txt	CLOUD	2	6	[0, 0, 0]	n/a	FR1	0	R1006P
749.757	2.601	711790	WORD	n/a	wordpools/wordpool_EN.txt	SHOE	3	6	[0, 0, 0]	n/a	FR1	0	R1006P
752.358	2.5	713091	WORD	n/a	wordpools/wordpool_EN.txt	BOX	4	6	[0, 0, 0]	n/a	FR1	0	R1006P
754.858	2.451	714341	WORD	n/a	wordpools/wordpool_EN.txt	RICE	5	6	[0, 0, 0]	n/a	FR1	0	R1006P
757.309	2.416	715566	WORD	n/a	wordpools/wordpool_EN.txt	TOAST	6	6	[0, 0, 0]	n/a	FR1	0	R1006P
759.725	2.519	716774	WORD	n/a	wordpools/wordpool_EN.txt	RAIN	7	6	[0, 0, 0]	n/a	FR1	0	R1006P
762.244	2.599	718033	WORD	n/a	wordpools/wordpool_EN.txt	ELF	8	6	[0, 0, 0]	n/a	FR1	0	R1006P
764.843	2.402	719333	WORD	n/a	wordpools/wordpool_EN.txt	FILM	9	6	[0, 0, 0]	n/a	FR1	0	R1006P
767.245	2.516	720534	WORD	n/a	wordpools/wordpool_EN.txt	CHIN	10	6	[0, 0, 0]	n/a	FR1	0	R1006P
769.761	2.518	721792	WORD	n/a	wordpools/wordpool_EN.txt	SWAMP	11	6	[0, 0, 0]	n/a	FR1	0	R1006P
772.279	1.616	723051	WORD	n/a	wordpools/wordpool_EN.txt	SALT	12	6	[0, 0, 0]	n/a	FR1	0	R1006P
773.895	0.001	723859	DISTRACT_START	n/a	n/a	n/a	-999	6	[0, 0, 0]	n/a	FR1	0	R1006P
773.896	0.015	723859	START	n/a	n/a	n/a	-999	6	[-999, -999, -999]	n/a	FR1	0	R1006P
773.911	5.135	723867	PROB	5.135	n/a	n/a	-999	6	[1, 5, 2]	8	FR1	0	R1006P
779.046	4.934	726434	PROB	4.934	n/a	n/a	-999	6	[2, 7, 7]	16	FR1	0	R1006P
783.98	10.6	728901	PROB	10.6	n/a	n/a	-999	6	[6, 7, 9]	22	FR1	0	R1006P
794.58	0.02	734201	STOP	n/a	n/a	n/a	-999	6	[-999, -999, -999]	n/a	FR1	0	R1006P
794.6	1.133	734211	DISTRACT_END	n/a	n/a	n/a	-999	6	[0, 0, 0]	n/a	FR1	0	R1006P
795.733	2.184	734777	REC_START	n/a	n/a	n/a	-999	6	[0, 0, 0]	n/a	FR1	0	R1006P
797.917	6.405	735869	REC_WORD_VV	6.405	n/a	<>	-999	6	[0, 0, 0]	n/a	FR1	0	R1006P
804.322	0.751	739071	REC_WORD	0.751	n/a	BOX	-999	6	[0, 0, 0]	n/a	FR1	0	R1006P
805.073	14.098	739447	REC_WORD	14.098	n/a	RICE	-999	6	[0, 0, 0]	n/a	FR1	0	R1006P
819.171	6.573	746496	REC_WORD_VV	6.573	n/a	<>	-999	6	[0, 0, 0]	n/a	FR1	0	R1006P
825.744	2.044	749782	REC_END	n/a	n/a	n/a	-999	6	[0, 0, 0]	n/a	FR1	0	R1006P
827.788	0.001	750804	COUNTDOWN_START	n/a	n/a	n/a	-999	7	[0, 0, 0]	n/a	FR1	0	R1006P
827.789	10.427	750804	TRIAL	n/a	n/a	n/a	-999	7	[0, 0, 0]	n/a	FR1	0	R1006P
838.216	0.008	756018	COUNTDOWN_END	n/a	n/a	n/a	-999	7	[0, 0, 0]	n/a	FR1	0	R1006P
838.224	2.583	756022	ORIENT	n/a	n/a	n/a	-999	7	[0, 0, 0]	n/a	FR1	0	R1006P
840.807	2.552	757313	WORD	n/a	wordpools/wordpool_EN.txt	SCHOOL	1	7	[0, 0, 0]	n/a	FR1	0	R1006P
843.359	2.549	758589	WORD	n/a	wordpools/wordpool_EN.txt	PIN	2	7	[0, 0, 0]	n/a	FR1	0	R1006P
845.908	2.468	759863	WORD	n/a	wordpools/wordpool_EN.txt	CLOCK	3	7	[0, 0, 0]	n/a	FR1	0	R1006P
848.376	2.55	761097	WORD	n/a	wordpools/wordpool_EN.txt	FLAG	4	7	[0, 0, 0]	n/a	FR1	0	R1006P
850.926	2.401	762372	WORD	n/a	wordpools/wordpool_EN.txt	THUMB	5	7	[0, 0, 0]	n/a	FR1	0	R1006P
853.327	2.6	763573	WORD	n/a	wordpools/wordpool_EN.txt	BOY	6	7	[0, 0, 0]	n/a	FR1	0	R1006P
855.927	2.401	764873	WORD	n/a	wordpools/wordpool_EN.txt	WORLD	7	7	[0, 0, 0]	n/a	FR1	0	R1006P
858.328	2.4	766073	WORD	n/a	wordpools/wordpool_EN.txt	DESK	8	7	[0, 0, 0]	n/a	FR1	0	R1006P
860.728	2.551	767273	WORD	n/a	wordpools/wordpool_EN.txt	BRIDGE	9	7	[0, 0, 0]	n/a	FR1	0	R1006P
863.279	2.5	768548	WORD	n/a	wordpools/wordpool_EN.txt	THREAD	10	7	[0, 0, 0]	n/a	FR1	0	R1006P
865.779	2.485	769798	WORD	n/a	wordpools/wordpool_EN.txt	INK	11	7	[0, 0, 0]	n/a	FR1	0	R1006P
868.264	1.615	771041	WORD	n/a	wordpools/wordpool_EN.txt	POOL	12	7	[0, 0, 0]	n/a	FR1	0	R1006P
869.879	0.001	771848	DISTRACT_START	n/a	n/a	n/a	-999	7	[0, 0, 0]	n/a	FR1	0	R1006P
869.88	0.016	771849	START	n/a	n/a	n/a	-999	7	[-999, -999, -999]	n/a	FR1	0	R1006P
869.896	10.819	771857	PROB	10.819	n/a	n/a	-999	7	[8, 6, 4]	28	FR1	0	R1006P
880.715	12.505	777266	PROB	12.505	n/a	n/a	-999	7	[8, 6, 2]	16	FR1	0	R1006P
893.22	0.014	783518	STOP	n/a	n/a	n/a	-999	7	[-999, -999, -999]	n/a	FR1	0	R1006P
893.234	1.036	783525	DISTRACT_END	n/a	n/a	n/a	-999	7	[0, 0, 0]	n/a	FR1	0	R1006P
894.27	1.729	784043	REC_START	n/a	n/a	n/a	-999	7	[0, 0, 0]	n/a	FR1	0	R1006P
895.999	0.715	784908	REC_WORD_VV	0.715	n/a	<>	-999	7	[0, 0, 0]	n/a	FR1	0	R1006P
896.714	2.041	785265	REC_WORD	2.041	n/a	SCHOOL	-999	7	[0, 0, 0]	n/a	FR1	0	R1006P
898.755	4.836	786286	REC_WORD	4.836	n/a	LOCK	-999	7	[0, 0, 0]	n/a	FR1	0	R1006P
903.591	1.161	788703	REC_WORD	1.161	n/a	WORLD	-999	7	[0, 0, 0]	n/a	FR1	0	R1006P
904.752	10.09	789284	REC_WORD	10.09	n/a	BOY	-999	7	[0, 0, 0]	n/a	FR1	0	R1006P
914.842	4.346	794329	REC_WORD	4.346	n/a	BOOK	-999	7	[0, 0, 0]	n/a	FR1	0	R1006P
919.188	4.014	796502	REC_WORD	4.014	n/a	LAWN	-999	7	[0, 0, 0]	n/a	FR1	0	R1006P
923.202	1.079	798508	REC_WORD	1.079	n/a	FLAG	-999	7	[0, 0, 0]	n/a	FR1	0	R1006P
924.281	3.294	799048	REC_END	n/a	n/a	n/a	-999	7	[0, 0, 0]	n/a	FR1	0	R1006P
927.575	0.0	800695	TRIAL	n/a	n/a	n/a	-999	8	[0, 0, 0]	n/a	FR1	0	R1006P
927.575	10.428	800695	COUNTDOWN_START	n/a	n/a	n/a	-999	8	[0, 0, 0]	n/a	FR1	0	R1006P
938.003	0.006	805909	COUNTDOWN_END	n/a	n/a	n/a	-999	8	[0, 0, 0]	n/a	FR1	0	R1006P
938.009	2.501	805912	ORIENT	n/a	n/a	n/a	-999	8	[0, 0, 0]	n/a	FR1	0	R1006P
940.51	2.4	807162	WORD	n/a	wordpools/wordpool_EN.txt	SUN	1	8	[0, 0, 0]	n/a	FR1	0	R1006P
942.91	2.602	808362	WORD	n/a	wordpools/wordpool_EN.txt	TOAD	2	8	[0, 0, 0]	n/a	FR1	0	R1006P
945.512	2.399	809663	WORD	n/a	wordpools/wordpool_EN.txt	SEA	3	8	[0, 0, 0]	n/a	FR1	0	R1006P
947.911	2.551	810862	WORD	n/a	wordpools/wordpool_EN.txt	SNOW	4	8	[0, 0, 0]	n/a	FR1	0	R1006P
950.462	2.433	812138	WORD	n/a	wordpools/wordpool_EN.txt	WOLF	5	8	[0, 0, 0]	n/a	FR1	0	R1006P
952.895	2.502	813354	WORD	n/a	wordpools/wordpool_EN.txt	SHIP	6	8	[0, 0, 0]	n/a	FR1	0	R1006P
955.397	2.483	814605	WORD	n/a	wordpools/wordpool_EN.txt	RIB	7	8	[0, 0, 0]	n/a	FR1	0	R1006P
957.88	2.468	815847	WORD	n/a	wordpools/wordpool_EN.txt	MOLE	8	8	[0, 0, 0]	n/a	FR1	0	R1006P
960.348	2.499	817081	WORD	n/a	wordpools/wordpool_EN.txt	MOTH	9	8	[0, 0, 0]	n/a	FR1	0	R1006P
962.847	2.535	818330	WORD	n/a	wordpools/wordpool_EN.txt	TEETH	10	8	[0, 0, 0]	n/a	FR1	0	R1006P
965.382	2.549	819597	WORD	n/a	wordpools/wordpool_EN.txt	FOX	11	8	[0, 0, 0]	n/a	FR1	0	R1006P
967.931	1.602	820872	WORD	n/a	wordpools/wordpool_EN.txt	BEAR	12	8	[0, 0, 0]	n/a	FR1	0	R1006P
969.533	0.0	821673	DISTRACT_START	n/a	n/a	n/a	-999	8	[0, 0, 0]	n/a	FR1	0	R1006P
969.533	0.016	821673	START	n/a	n/a	n/a	-999	8	[-999, -999, -999]	n/a	FR1	0	R1006P
969.549	5.384	821681	PROB	5.384	n/a	n/a	-999	8	[1, 4, 9]	14	FR1	0	R1006P
974.933	4.034	824373	PROB	4.034	n/a	n/a	-999	8	[1, 1, 5]	7	FR1	0	R1006P
978.967	6.635	826390	PROB	6.635	n/a	n/a	-999	8	[4, 4, 6]	14	FR1	0	R1006P
985.602	4.202	829707	PROB	4.202	n/a	n/a	-999	8	[3, 7, 1]	11	FR1	0	R1006P
989.804	0.015	831808	STOP	n/a	n/a	n/a	-999	8	[-999, -999, -999]	n/a	FR1	0	R1006P
989.819	1.067	831815	DISTRACT_END	n/a	n/a	n/a	-999	8	[0, 0, 0]	n/a	FR1	0	R1006P
990.886	1.375	832349	REC_START	n/a	n/a	n/a	-999	8	[0, 0, 0]	n/a	FR1	0	R1006P
992.261	0.888	833036	REC_WORD	0.888	n/a	FOX	-999	8	[0, 0, 0]	n/a	FR1	0	R1006P
993.149	0.892	833480	REC_WORD	0.892	n/a	BEAR	-999	8	[0, 0, 0]	n/a	FR1	0	R1006P
994.041	0.926	833926	REC_WORD	0.926	n/a	TOAD	-999	8	[0, 0, 0]	n/a	FR1	0	R1006P
994.967	2.024	834389	REC_WORD	2.024	n/a	SNOW	-999	8	[0, 0, 0]	n/a	FR1	0	R1006P
996.991	2.138	835401	REC_WORD	2.138	n/a	SUN	-999	8	[0, 0, 0]	n/a	FR1	0	R1006P
999.129	1.316	836470	REC_WORD_VV	1.316	n/a	<>	-999	8	[0, 0, 0]	n/a	FR1	0	R1006P
1000.445	3.213	837128	REC_WORD	3.213	n/a	BEACH	-999	8	[0, 0, 0]	n/a	FR1	0	R1006P
1003.658	4.468	838734	REC_WORD_VV	4.468	n/a	<>	-999	8	[0, 0, 0]	n/a	FR1	0	R1006P
1008.126	3.41	840968	REC_WORD	3.41	n/a	MOLE	-999	8	[0, 0, 0]	n/a	FR1	0	R1006P
1011.536	1.319	842673	REC_WORD_VV	1.319	n/a	<>	-999	8	[0, 0, 0]	n/a	FR1	0	R1006P
1012.855	8.043	843333	REC_WORD	8.043	n/a	TEETH	-999	8	[0, 0, 0]	n/a	FR1	0	R1006P
1020.898	2.211	847354	REC_END	n/a	n/a	n/a	-999	8	[0, 0, 0]	n/a	FR1	0	R1006P
1023.109	0.0	848459	TRIAL	n/a	n/a	n/a	-999	9	[0, 0, 0]	n/a	FR1	0	R1006P
1023.109	10.428	848459	COUNTDOWN_START	n/a	n/a	n/a	-999	9	[0, 0, 0]	n/a	FR1	0	R1006P
1033.537	0.008	853673	COUNTDOWN_END	n/a	n/a	n/a	-999	9	[0, 0, 0]	n/a	FR1	0	R1006P
1033.545	2.399	853677	ORIENT	n/a	n/a	n/a	-999	9	[0, 0, 0]	n/a	FR1	0	R1006P
1035.944	2.435	854877	WORD	n/a	wordpools/wordpool_EN.txt	TEA	1	9	[0, 0, 0]	n/a	FR1	0	R1006P
1038.379	2.6	856094	WORD	n/a	wordpools/wordpool_EN.txt	SHRIMP	2	9	[0, 0, 0]	n/a	FR1	0	R1006P
1040.979	2.618	857394	WORD	n/a	wordpools/wordpool_EN.txt	LAMP	3	9	[0, 0, 0]	n/a	FR1	0	R1006P
1043.597	2.383	858703	WORD	n/a	wordpools/wordpool_EN.txt	SUIT	4	9	[0, 0, 0]	n/a	FR1	0	R1006P
1045.98	2.484	859894	WORD	n/a	wordpools/wordpool_EN.txt	FOOD	5	9	[0, 0, 0]	n/a	FR1	0	R1006P
1048.464	2.416	861136	WORD	n/a	wordpools/wordpool_EN.txt	TOE	6	9	[0, 0, 0]	n/a	FR1	0	R1006P
1050.88	2.502	862344	WORD	n/a	wordpools/wordpool_EN.txt	HOOF	7	9	[0, 0, 0]	n/a	FR1	0	R1006P
1053.382	2.516	863595	WORD	n/a	wordpools/wordpool_EN.txt	ROOT	8	9	[0, 0, 0]	n/a	FR1	0	R1006P
1055.898	2.518	864853	WORD	n/a	wordpools/wordpool_EN.txt	BEAN	9	9	[0, 0, 0]	n/a	FR1	0	R1006P
1058.416	2.6	866112	WORD	n/a	wordpools/wordpool_EN.txt	RAKE	10	9	[0, 0, 0]	n/a	FR1	0	R1006P
1061.016	2.518	867412	WORD	n/a	wordpools/wordpool_EN.txt	SOCK	11	9	[0, 0, 0]	n/a	FR1	0	R1006P
1063.534	1.616	868671	WORD	n/a	wordpools/wordpool_EN.txt	BATH	12	9	[0, 0, 0]	n/a	FR1	0	R1006P
1065.15	0.001	869479	DISTRACT_START	n/a	n/a	n/a	-999	9	[0, 0, 0]	n/a	FR1	0	R1006P
1065.151	0.016	869479	START	n/a	n/a	n/a	-999	9	[-999, -999, -999]	n/a	FR1	0	R1006P
1065.167	9.968	869487	PROB	9.968	n/a	n/a	-999	9	[7, 6, 9]	22	FR1	0	R1006P
1075.135	9.186	874471	PROB	9.186	n/a	n/a	-999	9	[4, 8, 7]	9	FR1	0	R1006P
1084.321	5.882	879064	PROB	5.882	n/a	n/a	-999	9	[3, 3, 2]	8	FR1	0	R1006P
1090.203	0.018	882005	STOP	n/a	n/a	n/a	-999	9	[-999, -999, -999]	n/a	FR1	0	R1006P
1090.221	1.185	882014	DISTRACT_END	n/a	n/a	n/a	-999	9	[0, 0, 0]	n/a	FR1	0	R1006P
1091.406	5.463	882606	REC_START	n/a	n/a	n/a	-999	9	[0, 0, 0]	n/a	FR1	0	R1006P
1096.869	0.946	885338	REC_WORD	0.946	n/a	RAKE	-999	9	[0, 0, 0]	n/a	FR1	0	R1006P
1097.815	2.346	885811	REC_WORD	2.346	n/a	TOE	-999	9	[0, 0, 0]	n/a	FR1	0	R1006P
1100.161	2.144	886984	REC_WORD_VV	2.144	n/a	<>	-999	9	[0, 0, 0]	n/a	FR1	0	R1006P
1102.305	9.177	888055	REC_WORD	9.177	n/a	BATH	-999	9	[0, 0, 0]	n/a	FR1	0	R1006P
1111.482	0.732	892644	REC_WORD	0.732	n/a	FOX	-999	9	[0, 0, 0]	n/a	FR1	0	R1006P
1112.214	7.555	893010	REC_WORD	7.555	n/a	WOLF	-999	9	[0, 0, 0]	n/a	FR1	0	R1006P
1119.769	1.653	896787	REC_WORD	1.653	n/a	SUN	-999	9	[0, 0, 0]	n/a	FR1	0	R1006P
1121.422	3.572	897614	REC_END	n/a	n/a	n/a	-999	9	[0, 0, 0]	n/a	FR1	0	R1006P
1124.994	0.001	899399	COUNTDOWN_START	n/a	n/a	n/a	-999	10	[0, 0, 0]	n/a	FR1	0	R1006P
1124.995	10.427	899400	TRIAL	n/a	n/a	n/a	-999	10	[0, 0, 0]	n/a	FR1	0	R1006P
1135.422	0.009	904613	COUNTDOWN_END	n/a	n/a	n/a	-999	10	[0, 0, 0]	n/a	FR1	0	R1006P
1135.431	2.616	904618	ORIENT	n/a	n/a	n/a	-999	10	[0, 0, 0]	n/a	FR1	0	R1006P
1138.047	2.618	905926	WORD	n/a	wordpools/wordpool_EN.txt	MUG	1	10	[0, 0, 0]	n/a	FR1	0	R1006P
1140.665	2.416	907235	WORD	n/a	wordpools/wordpool_EN.txt	TRUCK	2	10	[0, 0, 0]	n/a	FR1	0	R1006P
1143.081	2.418	908442	WORD	n/a	wordpools/wordpool_EN.txt	STOOL	3	10	[0, 0, 0]	n/a	FR1	0	R1006P
1145.499	2.567	909651	WORD	n/a	wordpools/wordpool_EN.txt	PURSE	4	10	[0, 0, 0]	n/a	FR1	0	R1006P
1148.066	2.534	910935	WORD	n/a	wordpools/wordpool_EN.txt	SHELL	5	10	[0, 0, 0]	n/a	FR1	0	R1006P
1150.6	2.533	912202	WORD	n/a	wordpools/wordpool_EN.txt	PEARL	6	10	[0, 0, 0]	n/a	FR1	0	R1006P
1153.133	2.418	913468	WORD	n/a	wordpools/wordpool_EN.txt	MAZE	7	10	[0, 0, 0]	n/a	FR1	0	R1006P
1155.551	2.583	914677	WORD	n/a	wordpools/wordpool_EN.txt	FLOOR	8	10	[0, 0, 0]	n/a	FR1	0	R1006P
1158.134	2.584	915969	WORD	n/a	wordpools/wordpool_EN.txt	VAN	9	10	[0, 0, 0]	n/a	FR1	0	R1006P
1160.718	2.5	917261	WORD	n/a	wordpools/wordpool_EN.txt	HOOK	10	10	[0, 0, 0]	n/a	FR1	0	R1006P
1163.218	2.485	918510	WORD	n/a	wordpools/wordpool_EN.txt	PEA	11	10	[0, 0, 0]	n/a	FR1	0	R1006P
1165.703	1.617	919753	WORD	n/a	wordpools/wordpool_EN.txt	CLOWN	12	10	[0, 0, 0]	n/a	FR1	0	R1006P
1167.32	0.001	920561	DISTRACT_START	n/a	n/a	n/a	-999	10	[0, 0, 0]	n/a	FR1	0	R1006P
1167.321	0.016	920562	START	n/a	n/a	n/a	-999	10	[-999, -999, -999]	n/a	FR1	0	R1006P
1167.337	19.703	920570	PROB	19.703	n/a	n/a	-999	10	[6, 9, 5]	20	FR1	0	R1006P
1187.04	3.348	930421	PROB	3.348	n/a	n/a	-999	10	[6, 4, 7]	17	FR1	0	R1006P
1190.388	0.003	932095	STOP	n/a	n/a	n/a	-999	10	[-999, -999, -999]	n/a	FR1	0	R1006P
1190.391	1.218	932096	DISTRACT_END	n/a	n/a	n/a	-999	10	[0, 0, 0]	n/a	FR1	0	R1006P
1191.609	1.804	932705	REC_START	n/a	n/a	n/a	-999	10	[0, 0, 0]	n/a	FR1	0	R1006P
1193.413	0.762	933607	REC_WORD	0.762	n/a	PEARL	-999	10	[0, 0, 0]	n/a	FR1	0	R1006P
1194.175	0.816	933988	REC_WORD	0.816	n/a	SHELL	-999	10	[0, 0, 0]	n/a	FR1	0	R1006P
1194.991	15.085	934396	REC_WORD	15.085	n/a	MAZE	-999	10	[0, 0, 0]	n/a	FR1	0	R1006P
1210.076	7.654	941938	REC_WORD_VV	7.654	n/a	<>	-999	10	[0, 0, 0]	n/a	FR1	0	R1006P
1217.73	3.89	945765	REC_WORD	3.89	n/a	MUG	-999	10	[0, 0, 0]	n/a	FR1	0	R1006P
1221.62	1.677	947710	REC_END	n/a	n/a	n/a	-999	10	[0, 0, 0]	n/a	FR1	0	R1006P
1223.297	0.001	948548	COUNTDOWN_START	n/a	n/a	n/a	-999	11	[0, 0, 0]	n/a	FR1	0	R1006P
1223.298	10.427	948549	TRIAL	n/a	n/a	n/a	-999	11	[0, 0, 0]	n/a	FR1	0	R1006P
1233.725	0.007	953762	COUNTDOWN_END	n/a	n/a	n/a	-999	11	[0, 0, 0]	n/a	FR1	0	R1006P
1233.732	2.568	953766	ORIENT	n/a	n/a	n/a	-999	11	[0, 0, 0]	n/a	FR1	0	R1006P
1236.3	2.599	955050	WORD	n/a	wordpools/wordpool_EN.txt	HAWK	1	11	[0, 0, 0]	n/a	FR1	0	R1006P
1238.899	2.385	956349	WORD	n/a	wordpools/wordpool_EN.txt	BEE	2	11	[0, 0, 0]	n/a	FR1	0	R1006P
1241.284	2.6	957542	WORD	n/a	wordpools/wordpool_EN.txt	SEAT	3	11	[0, 0, 0]	n/a	FR1	0	R1006P
1243.884	2.418	958841	WORD	n/a	wordpools/wordpool_EN.txt	CORN	4	11	[0, 0, 0]	n/a	FR1	0	R1006P
1246.302	2.466	960050	WORD	n/a	wordpools/wordpool_EN.txt	COW	5	11	[0, 0, 0]	n/a	FR1	0	R1006P
1248.768	2.551	961283	WORD	n/a	wordpools/wordpool_EN.txt	BARN	6	11	[0, 0, 0]	n/a	FR1	0	R1006P
1251.319	2.5	962559	WORD	n/a	wordpools/wordpool_EN.txt	OWL	7	11	[0, 0, 0]	n/a	FR1	0	R1006P
1253.819	2.535	963809	WORD	n/a	wordpools/wordpool_EN.txt	PET	8	11	[0, 0, 0]	n/a	FR1	0	R1006P
1256.354	2.566	965076	WORD	n/a	wordpools/wordpool_EN.txt	LAMB	9	11	[0, 0, 0]	n/a	FR1	0	R1006P
1258.92	2.585	966359	WORD	n/a	wordpools/wordpool_EN.txt	SKY	10	11	[0, 0, 0]	n/a	FR1	0	R1006P
1261.505	2.382	967652	WORD	n/a	wordpools/wordpool_EN.txt	FLEA	11	11	[0, 0, 0]	n/a	FR1	0	R1006P
1263.887	1.602	968842	WORD	n/a	wordpools/wordpool_EN.txt	EEL	12	11	[0, 0, 0]	n/a	FR1	0	R1006P
1265.489	0.0	969643	DISTRACT_START	n/a	n/a	n/a	-999	11	[0, 0, 0]	n/a	FR1	0	R1006P
1265.489	0.016	969643	START	n/a	n/a	n/a	-999	11	[-999, -999, -999]	n/a	FR1	0	R1006P
1265.505	4.768	969651	PROB	4.768	n/a	n/a	-999	11	[4, 3, 3]	10	FR1	0	R1006P
1270.273	3.434	972035	PROB	3.434	n/a	n/a	-999	11	[9, 1, 7]	17	FR1	0	R1006P
1273.707	10.785	973752	PROB	10.785	n/a	n/a	-999	11	[7, 8, 8]	23	FR1	0	R1006P
1284.492	15.519	979144	PROB	15.519	n/a	n/a	-999	11	[6, 9, 8]	23	FR1	0	R1006P
1300.011	0.017	986904	STOP	n/a	n/a	n/a	-999	11	[-999, -999, -999]	n/a	FR1	0	R1006P
1300.028	1.184	986912	DISTRACT_END	n/a	n/a	n/a	-999	11	[0, 0, 0]	n/a	FR1	0	R1006P
1301.212	1.203	987504	REC_START	n/a	n/a	n/a	-999	11	[0, 0, 0]	n/a	FR1	0	R1006P
1302.415	0.632	988106	REC_WORD	0.632	n/a	HAWK	-999	11	[0, 0, 0]	n/a	FR1	0	R1006P
1303.047	1.884	988421	REC_WORD	1.884	n/a	FLEA	-999	11	[0, 0, 0]	n/a	FR1	0	R1006P
1304.931	5.527	989363	REC_WORD	5.527	n/a	SKY	-999	11	[0, 0, 0]	n/a	FR1	0	R1006P
1310.458	7.792	992127	REC_WORD	7.792	n/a	LAMB	-999	11	[0, 0, 0]	n/a	FR1	0	R1006P
1318.25	12.972	996023	REC_WORD	12.972	n/a	BEE	-999	11	[0, 0, 0]	n/a	FR1	0	R1006P
1331.222	3.046	1002508	REC_END	n/a	n/a	n/a	-999	11	[0, 0, 0]	n/a	FR1	0	R1006P
1334.268	0.001	1004031	COUNTDOWN_START	n/a	n/a	n/a	-999	12	[0, 0, 0]	n/a	FR1	0	R1006P
1334.269	10.427	1004032	TRIAL	n/a	n/a	n/a	-999	12	[0, 0, 0]	n/a	FR1	0	R1006P
1344.696	0.008	1009245	COUNTDOWN_END	n/a	n/a	n/a	-999	12	[0, 0, 0]	n/a	FR1	0	R1006P
1344.704	2.466	1009249	ORIENT	n/a	n/a	n/a	-999	12	[0, 0, 0]	n/a	FR1	0	R1006P
1347.17	2.6	1010482	WORD	n/a	wordpools/wordpool_EN.txt	TRAY	1	12	[0, 0, 0]	n/a	FR1	0	R1006P
1349.77	2.485	1011782	WORD	n/a	wordpools/wordpool_EN.txt	SPOON	2	12	[0, 0, 0]	n/a	FR1	0	R1006P
1352.255	2.55	1013024	WORD	n/a	wordpools/wordpool_EN.txt	TIE	3	12	[0, 0, 0]	n/a	FR1	0	R1006P
1354.805	2.4	1014299	WORD	n/a	wordpools/wordpool_EN.txt	FROG	4	12	[0, 0, 0]	n/a	FR1	0	R1006P
1357.205	2.418	1015499	WORD	n/a	wordpools/wordpool_EN.txt	SMILE	5	12	[0, 0, 0]	n/a	FR1	0	R1006P
1359.623	2.634	1016708	WORD	n/a	wordpools/wordpool_EN.txt	FORK	6	12	[0, 0, 0]	n/a	FR1	0	R1006P
1362.257	2.466	1018025	WORD	n/a	wordpools/wordpool_EN.txt	VEST	7	12	[0, 0, 0]	n/a	FR1	0	R1006P
1364.723	2.618	1019258	WORD	n/a	wordpools/wordpool_EN.txt	ARM	8	12	[0, 0, 0]	n/a	FR1	0	R1006P
1367.341	2.483	1020567	WORD	n/a	wordpools/wordpool_EN.txt	BREAD	9	12	[0, 0, 0]	n/a	FR1	0	R1006P
1369.824	2.551	1021808	WORD	n/a	wordpools/wordpool_EN.txt	GOAT	10	12	[0, 0, 0]	n/a	FR1	0	R1006P
1372.375	2.483	1023084	WORD	n/a	wordpools/wordpool_EN.txt	PIE	11	12	[0, 0, 0]	n/a	FR1	0	R1006P
1374.858	1.601	1024325	WORD	n/a	wordpools/wordpool_EN.txt	STEAK	12	12	[0, 0, 0]	n/a	FR1	0	R1006P
1376.459	0.001	1025126	DISTRACT_START	n/a	n/a	n/a	-999	12	[0, 0, 0]	n/a	FR1	0	R1006P
1376.46	0.016	1025126	START	n/a	n/a	n/a	-999	12	[-999, -999, -999]	n/a	FR1	0	R1006P
1376.476	4.851	1025134	PROB	4.851	n/a	n/a	-999	12	[9, 7, 1]	17	FR1	0	R1006P
1381.327	8.085	1027560	PROB	8.085	n/a	n/a	-999	12	[6, 8, 1]	15	FR1	0	R1006P
1389.412	6.952	1031602	PROB	6.952	n/a	n/a	-999	12	[4, 3, 2]	9	FR1	0	R1006P
1396.364	4.824	1035078	PROB	4.824	n/a	n/a	-999	12	[2, 4, 4]	10	FR1	0	R1006P
1401.188	0.009	1037490	STOP	n/a	n/a	n/a	-999	12	[-999, -999, -999]	n/a	FR1	0	R1006P
1401.197	1.051	1037494	DISTRACT_END	n/a	n/a	n/a	-999	12	[0, 0, 0]	n/a	FR1	0	R1006P
1402.248	1.481	1038020	REC_START	n/a	n/a	n/a	-999	12	[0, 0, 0]	n/a	FR1	0	R1006P
1403.729	0.745	1038760	REC_WORD	0.745	n/a	TRAY	-999	12	[0, 0, 0]	n/a	FR1	0	R1006P
1404.474	0.843	1039132	REC_WORD	0.843	n/a	ARM	-999	12	[0, 0, 0]	n/a	FR1	0	R1006P
1405.317	2.152	1039554	REC_WORD	2.152	n/a	BREAD	-999	12	[0, 0, 0]	n/a	FR1	0	R1006P
1407.469	7.58	1040630	REC_WORD	7.58	n/a	VEST	-999	12	[0, 0, 0]	n/a	FR1	0	R1006P
1415.049	6.173	1044420	REC_WORD	6.173	n/a	PIE	-999	12	[0, 0, 0]	n/a	FR1	0	R1006P
1421.222	5.337	1047506	REC_WORD	5.337	n/a	ARM	-999	12	[0, 0, 0]	n/a	FR1	0	R1006P
1426.559	0.72	1050174	REC_WORD	0.72	n/a	SPOON	-999	12	[0, 0, 0]	n/a	FR1	0	R1006P
1427.279	4.981	1050534	REC_WORD	4.981	n/a	FORK	-999	12	[0, 0, 0]	n/a	FR1	0	R1006P
1432.26	1.843	1053025	REC_END	n/a	n/a	n/a	-999	12	[0, 0, 0]	n/a	FR1	0	R1006P
1434.103	0.0	1053946	TRIAL	n/a	n/a	n/a	-999	13	[0, 0, 0]	n/a	FR1	0	R1006P
1434.103	10.428	1053946	COUNTDOWN_START	n/a	n/a	n/a	-999	13	[0, 0, 0]	n/a	FR1	0	R1006P
1444.531	0.008	1059160	COUNTDOWN_END	n/a	n/a	n/a	-999	13	[0, 0, 0]	n/a	FR1	0	R1006P
1444.539	2.533	1059164	ORIENT	n/a	n/a	n/a	-999	13	[0, 0, 0]	n/a	FR1	0	R1006P
1447.072	2.485	1060430	WORD	n/a	wordpools/wordpool_EN.txt	PIPE	1	13	[0, 0, 0]	n/a	FR1	0	R1006P
1449.557	2.533	1061673	WORD	n/a	wordpools/wordpool_EN.txt	STRING	2	13	[0, 0, 0]	n/a	FR1	0	R1006P
1452.09	2.401	1062939	WORD	n/a	wordpools/wordpool_EN.txt	ROOM	3	13	[0, 0, 0]	n/a	FR1	0	R1006P
1454.491	2.566	1064140	WORD	n/a	wordpools/wordpool_EN.txt	DART	4	13	[0, 0, 0]	n/a	FR1	0	R1006P
1457.057	2.518	1065423	WORD	n/a	wordpools/wordpool_EN.txt	BAND	5	13	[0, 0, 0]	n/a	FR1	0	R1006P
1459.575	2.483	1066682	WORD	n/a	wordpools/wordpool_EN.txt	CHEEK	6	13	[0, 0, 0]	n/a	FR1	0	R1006P
1462.058	2.535	1067923	WORD	n/a	wordpools/wordpool_EN.txt	NEST	7	13	[0, 0, 0]	n/a	FR1	0	R1006P
1464.593	2.4	1069190	WORD	n/a	wordpools/wordpool_EN.txt	HAT	8	13	[0, 0, 0]	n/a	FR1	0	R1006P
1466.993	2.634	1070390	WORD	n/a	wordpools/wordpool_EN.txt	DOLL	9	13	[0, 0, 0]	n/a	FR1	0	R1006P
1469.627	2.433	1071707	WORD	n/a	wordpools/wordpool_EN.txt	BIRD	10	13	[0, 0, 0]	n/a	FR1	0	R1006P
1472.06	2.435	1072924	WORD	n/a	wordpools/wordpool_EN.txt	CRANE	11	13	[0, 0, 0]	n/a	FR1	0	R1006P
1474.495	1.616	1074141	WORD	n/a	wordpools/wordpool_EN.txt	TAIL	12	13	[0, 0, 0]	n/a	FR1	0	R1006P
1476.111	0.001	1074949	DISTRACT_START	n/a	n/a	n/a	-999	13	[0, 0, 0]	n/a	FR1	0	R1006P
1476.112	0.016	1074950	START	n/a	n/a	n/a	-999	13	[-999, -999, -999]	n/a	FR1	0	R1006P
1476.128	7.018	1074958	PROB	7.018	n/a	n/a	-999	13	[9, 6, 2]	17	FR1	0	R1006P
1483.146	7.701	1078467	PROB	7.701	n/a	n/a	-999	13	[3, 1, 8]	12	FR1	0	R1006P
1490.847	7.164	1082317	PROB	7.164	n/a	n/a	-999	13	[9, 6, 6]	21	FR1	0	R1006P
1498.011	0.004	1085899	STOP	n/a	n/a	n/a	-999	13	[-999, -999, -999]	n/a	FR1	0	R1006P
1498.015	1.134	1085901	DISTRACT_END	n/a	n/a	n/a	-999	13	[0, 0, 0]	n/a	FR1	0	R1006P
1499.149	1.367	1086468	REC_START	n/a	n/a	n/a	-999	13	[0, 0, 0]	n/a	FR1	0	R1006P
1500.516	0.622	1087151	REC_WORD	0.622	n/a	ROOM	-999	13	[0, 0, 0]	n/a	FR1	0	R1006P
1501.138	1.937	1087462	REC_WORD	1.937	n/a	DART	-999	13	[0, 0, 0]	n/a	FR1	0	R1006P
1503.075	2.529	1088431	REC_WORD	2.529	n/a	FORK	-999	13	[0, 0, 0]	n/a	FR1	0	R1006P
1505.604	1.244	1089695	REC_WORD	1.244	n/a	BIRD	-999	13	[0, 0, 0]	n/a	FR1	0	R1006P
1506.848	2.494	1090317	REC_WORD	2.494	n/a	NEST	-999	13	[0, 0, 0]	n/a	FR1	0	R1006P
1509.342	0.847	1091564	REC_WORD_VV	0.847	n/a	<>	-999	13	[0, 0, 0]	n/a	FR1	0	R1006P
1510.189	0.898	1091987	REC_WORD	0.898	n/a	DOLL	-999	13	[0, 0, 0]	n/a	FR1	0	R1006P
1511.087	3.951	1092436	REC_WORD	3.951	n/a	HAT	-999	13	[0, 0, 0]	n/a	FR1	0	R1006P
1515.038	10.338	1094412	REC_WORD	10.338	n/a	HAWK	-999	13	[0, 0, 0]	n/a	FR1	0	R1006P
1525.376	3.789	1099580	REC_WORD	3.789	n/a	CHEEK	-999	13	[0, 0, 0]	n/a	FR1	0	R1006P
1529.165	2.157	1101475	REC_END	n/a	n/a	n/a	-999	13	[0, 0, 0]	n/a	FR1	0	R1006P
1531.322	0.0	1102553	TRIAL	n/a	n/a	n/a	-999	14	[0, 0, 0]	n/a	FR1	0	R1006P
1531.322	10.428	1102553	COUNTDOWN_START	n/a	n/a	n/a	-999	14	[0, 0, 0]	n/a	FR1	0	R1006P
1541.75	0.007	1107767	COUNTDOWN_END	n/a	n/a	n/a	-999	14	[0, 0, 0]	n/a	FR1	0	R1006P
1541.757	2.417	1107771	ORIENT	n/a	n/a	n/a	-999	14	[0, 0, 0]	n/a	FR1	0	R1006P
1544.174	2.518	1108979	WORD	n/a	wordpools/wordpool_EN.txt	STEAM	1	14	[0, 0, 0]	n/a	FR1	0	R1006P
1546.692	2.55	1110238	WORD	n/a	wordpools/wordpool_EN.txt	SIGN	2	14	[0, 0, 0]	n/a	FR1	0	R1006P
1549.242	2.617	1111513	WORD	n/a	wordpools/wordpool_EN.txt	WHALE	3	14	[0, 0, 0]	n/a	FR1	0	R1006P
1551.859	2.518	1112821	WORD	n/a	wordpools/wordpool_EN.txt	SHIELD	4	14	[0, 0, 0]	n/a	FR1	0	R1006P
1554.377	2.466	1114080	WORD	n/a	wordpools/wordpool_EN.txt	ICE	5	14	[0, 0, 0]	n/a	FR1	0	R1006P
1556.843	2.551	1115313	WORD	n/a	wordpools/wordpool_EN.txt	CROW	6	14	[0, 0, 0]	n/a	FR1	0	R1006P
1559.394	2.416	1116589	WORD	n/a	wordpools/wordpool_EN.txt	AXE	7	14	[0, 0, 0]	n/a	FR1	0	R1006P
1561.81	2.535	1117797	WORD	n/a	wordpools/wordpool_EN.txt	JEEP	8	14	[0, 0, 0]	n/a	FR1	0	R1006P
1564.345	2.6	1119064	WORD	n/a	wordpools/wordpool_EN.txt	SPRING	9	14	[0, 0, 0]	n/a	FR1	0	R1006P
1566.945	2.484	1120364	WORD	n/a	wordpools/wordpool_EN.txt	SLEEVE	10	14	[0, 0, 0]	n/a	FR1	0	R1006P
1569.429	2.55	1121606	WORD	n/a	wordpools/wordpool_EN.txt	GEESE	11	14	[0, 0, 0]	n/a	FR1	0	R1006P
1571.979	1.618	1122881	WORD	n/a	wordpools/wordpool_EN.txt	GATE	12	14	[0, 0, 0]	n/a	FR1	0	R1006P
1573.597	0.001	1123690	DISTRACT_START	n/a	n/a	n/a	-999	14	[0, 0, 0]	n/a	FR1	0	R1006P
1573.598	0.016	1123690	START	n/a	n/a	n/a	-999	14	[-999, -999, -999]	n/a	FR1	0	R1006P
1573.614	3.149	1123698	PROB	3.149	n/a	n/a	-999	14	[9, 1, 4]	14	FR1	0	R1006P
1576.763	8.886	1125273	PROB	8.886	n/a	n/a	-999	14	[4, 8, 5]	17	FR1	0	R1006P
1585.649	2.617	1129715	PROB	2.617	n/a	n/a	-999	14	[5, 5, 2]	12	FR1	0	R1006P
1588.266	5.817	1131024	PROB	5.817	n/a	n/a	-999	14	[5, 2, 7]	14	FR1	0	R1006P
1594.083	0.017	1133932	STOP	n/a	n/a	n/a	-999	14	[-999, -999, -999]	n/a	FR1	0	R1006P
1594.1	1.117	1133941	DISTRACT_END	n/a	n/a	n/a	-999	14	[0, 0, 0]	n/a	FR1	0	R1006P
1595.217	3.051	1134499	REC_START	n/a	n/a	n/a	-999	14	[0, 0, 0]	n/a	FR1	0	R1006P
1598.268	2.839	1136025	REC_WORD_VV	2.839	n/a	<>	-999	14	[0, 0, 0]	n/a	FR1	0	R1006P
1601.107	3.406	1137444	REC_WORD	3.406	n/a	STEAM	-999	14	[0, 0, 0]	n/a	FR1	0	R1006P
1604.513	4.441	1139147	REC_WORD	4.441	n/a	SIGN	-999	14	[0, 0, 0]	n/a	FR1	0	R1006P
1608.954	4.909	1141367	REC_WORD	4.909	n/a	SLEEVE	-999	14	[0, 0, 0]	n/a	FR1	0	R1006P
1613.863	1.277	1143822	REC_WORD_VV	1.277	n/a	<>	-999	14	[0, 0, 0]	n/a	FR1	0	R1006P
1615.14	2.424	1144460	REC_WORD_VV	2.424	n/a	<>	-999	14	[0, 0, 0]	n/a	FR1	0	R1006P
1617.564	0.676	1145672	REC_WORD_VV	0.676	n/a	<>	-999	14	[0, 0, 0]	n/a	FR1	0	R1006P
1618.24	6.993	1146010	REC_WORD	6.993	n/a	ICE	-999	14	[0, 0, 0]	n/a	FR1	0	R1006P
1625.233	3.84	1149506	REC_END	n/a	n/a	n/a	-999	14	[0, 0, 0]	n/a	FR1	0	R1006P
1629.073	0.0	1151426	TRIAL	n/a	n/a	n/a	-999	15	[0, 0, 0]	n/a	FR1	0	R1006P
1629.073	10.428	1151426	COUNTDOWN_START	n/a	n/a	n/a	-999	15	[0, 0, 0]	n/a	FR1	0	R1006P
1639.501	0.008	1156640	COUNTDOWN_END	n/a	n/a	n/a	-999	15	[0, 0, 0]	n/a	FR1	0	R1006P
1639.509	2.4	1156644	ORIENT	n/a	n/a	n/a	-999	15	[0, 0, 0]	n/a	FR1	0	R1006P
1641.909	2.418	1157844	WORD	n/a	wordpools/wordpool_EN.txt	DUCK	1	15	[0, 0, 0]	n/a	FR1	0	R1006P
1644.327	2.55	1159053	WORD	n/a	wordpools/wordpool_EN.txt	ZOO	2	15	[0, 0, 0]	n/a	FR1	0	R1006P
1646.877	2.434	1160328	WORD	n/a	wordpools/wordpool_EN.txt	SOUP	3	15	[0, 0, 0]	n/a	FR1	0	R1006P
1649.311	2.433	1161545	WORD	n/a	wordpools/wordpool_EN.txt	CLAY	4	15	[0, 0, 0]	n/a	FR1	0	R1006P
1651.744	2.417	1162761	WORD	n/a	wordpools/wordpool_EN.txt	MOUSE	5	15	[0, 0, 0]	n/a	FR1	0	R1006P
1654.161	2.584	1163970	WORD	n/a	wordpools/wordpool_EN.txt	SKUNK	6	15	[0, 0, 0]	n/a	FR1	0	R1006P
1656.745	2.601	1165262	WORD	n/a	wordpools/wordpool_EN.txt	ANT	7	15	[0, 0, 0]	n/a	FR1	0	R1006P
1659.346	2.55	1166562	WORD	n/a	wordpools/wordpool_EN.txt	MOOSE	8	15	[0, 0, 0]	n/a	FR1	0	R1006P
1661.896	2.418	1167837	WORD	n/a	wordpools/wordpool_EN.txt	ROCK	9	15	[0, 0, 0]	n/a	FR1	0	R1006P
1664.314	2.583	1169046	WORD	n/a	wordpools/wordpool_EN.txt	SPONGE	10	15	[0, 0, 0]	n/a	FR1	0	R1006P
1666.897	2.368	1170337	WORD	n/a	wordpools/wordpool_EN.txt	TENT	11	15	[0, 0, 0]	n/a	FR1	0	R1006P
1669.265	1.616	1171521	WORD	n/a	wordpools/wordpool_EN.txt	SNAKE	12	15	[0, 0, 0]	n/a	FR1	0	R1006P
1670.881	0.001	1172329	DISTRACT_START	n/a	n/a	n/a	-999	15	[0, 0, 0]	n/a	FR1	0	R1006P
1670.882	0.016	1172330	START	n/a	n/a	n/a	-999	15	[-999, -999, -999]	n/a	FR1	0	R1006P
1670.898	10.852	1172338	PROB	10.852	n/a	n/a	-999	15	[2, 4, 3]	9	FR1	0	R1006P
1681.75	5.467	1177764	PROB	5.467	n/a	n/a	-999	15	[5, 4, 2]	11	FR1	0	R1006P
1687.217	3.369	1180497	PROB	3.369	n/a	n/a	-999	15	[1, 9, 9]	19	FR1	0	R1006P
1690.586	14.77	1182181	PROB	14.77	n/a	n/a	-999	15	[6, 8, 5]	29	FR1	0	R1006P
1705.356	0.016	1189566	STOP	n/a	n/a	n/a	-999	15	[-999, -999, -999]	n/a	FR1	0	R1006P
1705.372	1.15	1189574	DISTRACT_END	n/a	n/a	n/a	-999	15	[0, 0, 0]	n/a	FR1	0	R1006P
1706.522	5.617	1190149	REC_START	n/a	n/a	n/a	-999	15	[0, 0, 0]	n/a	FR1	0	R1006P
1712.139	0.839	1192957	REC_WORD	0.839	n/a	ANT	-999	15	[0, 0, 0]	n/a	FR1	0	R1006P
1712.978	5.391	1193377	REC_WORD	5.391	n/a	MOOSE	-999	15	[0, 0, 0]	n/a	FR1	0	R1006P
1718.369	18.169	1196072	REC_WORD	18.169	n/a	FARM	-999	15	[0, 0, 0]	n/a	FR1	0	R1006P
1736.538	1.99	1205156	REC_END	n/a	n/a	n/a	-999	15	[0, 0, 0]	n/a	FR1	0	R1006P
1738.528	0.0	1206151	TRIAL	n/a	n/a	n/a	-999	16	[0, 0, 0]	n/a	FR1	0	R1006P
1738.528	10.428	1206151	COUNTDOWN_START	n/a	n/a	n/a	-999	16	[0, 0, 0]	n/a	FR1	0	R1006P
1748.956	0.006	1211365	COUNTDOWN_END	n/a	n/a	n/a	-999	16	[0, 0, 0]	n/a	FR1	0	R1006P
1748.962	2.569	1211368	ORIENT	n/a	n/a	n/a	-999	16	[0, 0, 0]	n/a	FR1	0	R1006P
1751.531	2.432	1212652	WORD	n/a	wordpools/wordpool_EN.txt	BLOOM	1	16	[0, 0, 0]	n/a	FR1	0	R1006P
1753.963	2.535	1213868	WORD	n/a	wordpools/wordpool_EN.txt	BROOM	2	16	[0, 0, 0]	n/a	FR1	0	R1006P
1756.498	2.466	1215136	WORD	n/a	wordpools/wordpool_EN.txt	BRANCH	3	16	[0, 0, 0]	n/a	FR1	0	R1006P
1758.964	2.435	1216369	WORD	n/a	wordpools/wordpool_EN.txt	ROAD	4	16	[0, 0, 0]	n/a	FR1	0	R1006P
1761.399	2.533	1217586	WORD	n/a	wordpools/wordpool_EN.txt	OAK	5	16	[0, 0, 0]	n/a	FR1	0	R1006P
1763.932	2.385	1218852	WORD	n/a	wordpools/wordpool_EN.txt	GRASS	6	16	[0, 0, 0]	n/a	FR1	0	R1006P
1766.317	2.416	1220045	WORD	n/a	wordpools/wordpool_EN.txt	VINE	7	16	[0, 0, 0]	n/a	FR1	0	R1006P
1768.733	2.618	1221253	WORD	n/a	wordpools/wordpool_EN.txt	STRAW	8	16	[0, 0, 0]	n/a	FR1	0	R1006P
1771.351	2.433	1222562	WORD	n/a	wordpools/wordpool_EN.txt	ROPE	9	16	[0, 0, 0]	n/a	FR1	0	R1006P
1773.784	2.518	1223778	WORD	n/a	wordpools/wordpool_EN.txt	PANTS	10	16	[0, 0, 0]	n/a	FR1	0	R1006P
1776.302	2.466	1225037	WORD	n/a	wordpools/wordpool_EN.txt	PEACH	11	16	[0, 0, 0]	n/a	FR1	0	R1006P
1778.768	1.601	1226270	WORD	n/a	wordpools/wordpool_EN.txt	WEED	12	16	[0, 0, 0]	n/a	FR1	0	R1006P
1780.369	0.001	1227071	DISTRACT_START	n/a	n/a	n/a	-999	16	[0, 0, 0]	n/a	FR1	0	R1006P
1780.37	0.016	1227071	START	n/a	n/a	n/a	-999	16	[-999, -999, -999]	n/a	FR1	0	R1006P
1780.386	2.884	1227079	PROB	2.884	n/a	n/a	-999	16	[1, 5, 5]	11	FR1	0	R1006P
1783.27	4.466	1228521	PROB	4.466	n/a	n/a	-999	16	[5, 1, 2]	8	FR1	0	R1006P
1787.736	2.652	1230754	PROB	2.652	n/a	n/a	-999	16	[5, 4, 5]	14	FR1	0	R1006P
1790.388	7.051	1232080	PROB	7.051	n/a	n/a	-999	16	[3, 1, 8]	12	FR1	0	R1006P
1797.439	7.245	1235605	PROB	7.245	n/a	n/a	-999	16	[5, 7, 3]	15	FR1	0	R1006P
1804.684	0.007	1239227	STOP	n/a	n/a	n/a	-999	16	[-999, -999, -999]	n/a	FR1	0	R1006P
1804.691	1.099	1239231	DISTRACT_END	n/a	n/a	n/a	-999	16	[0, 0, 0]	n/a	FR1	0	R1006P
1805.79	1.294	1239780	REC_START	n/a	n/a	n/a	-999	16	[0, 0, 0]	n/a	FR1	0	R1006P
1807.084	1.015	1240427	REC_WORD	1.015	n/a	BLOOM	-999	16	[0, 0, 0]	n/a	FR1	0	R1006P
1808.099	6.384	1240935	REC_WORD	6.384	n/a	BRANCH	-999	16	[0, 0, 0]	n/a	FR1	0	R1006P
1814.483	5.598	1244127	REC_WORD	5.598	n/a	WEED	-999	16	[0, 0, 0]	n/a	FR1	0	R1006P
1820.081	15.724	1246926	REC_WORD	15.724	n/a	TOAD	-999	16	[0, 0, 0]	n/a	FR1	0	R1006P
1835.805	1.559	1254787	REC_END	n/a	n/a	n/a	-999	16	[0, 0, 0]	n/a	FR1	0	R1006P
1837.364	0.0	1255567	TRIAL	n/a	n/a	n/a	-999	17	[0, 0, 0]	n/a	FR1	0	R1006P
1837.364	10.428	1255567	COUNTDOWN_START	n/a	n/a	n/a	-999	17	[0, 0, 0]	n/a	FR1	0	R1006P
1847.792	0.006	1260780	COUNTDOWN_END	n/a	n/a	n/a	-999	17	[0, 0, 0]	n/a	FR1	0	R1006P
1847.798	2.434	1260783	ORIENT	n/a	n/a	n/a	-999	17	[0, 0, 0]	n/a	FR1	0	R1006P
1850.232	2.55	1262000	WORD	n/a	wordpools/wordpool_EN.txt	MULE	1	17	[0, 0, 0]	n/a	FR1	0	R1006P
1852.782	2.401	1263275	WORD	n/a	wordpools/wordpool_EN.txt	STORM	2	17	[0, 0, 0]	n/a	FR1	0	R1006P
1855.183	2.583	1264476	WORD	n/a	wordpools/wordpool_EN.txt	HEN	3	17	[0, 0, 0]	n/a	FR1	0	R1006P
1857.766	2.417	1265767	WORD	n/a	wordpools/wordpool_EN.txt	EGG	4	17	[0, 0, 0]	n/a	FR1	0	R1006P
1860.183	2.519	1266976	WORD	n/a	wordpools/wordpool_EN.txt	SKI	5	17	[0, 0, 0]	n/a	FR1	0	R1006P
1862.702	2.416	1268235	WORD	n/a	wordpools/wordpool_EN.txt	PEN	6	17	[0, 0, 0]	n/a	FR1	0	R1006P
1865.118	2.535	1269443	WORD	n/a	wordpools/wordpool_EN.txt	FORT	7	17	[0, 0, 0]	n/a	FR1	0	R1006P
1867.653	2.582	1270710	WORD	n/a	wordpools/wordpool_EN.txt	BEAK	8	17	[0, 0, 0]	n/a	FR1	0	R1006P
1870.235	2.551	1272001	WORD	n/a	wordpools/wordpool_EN.txt	SAIL	9	17	[0, 0, 0]	n/a	FR1	0	R1006P
1872.786	2.601	1273277	WORD	n/a	wordpools/wordpool_EN.txt	FARM	10	17	[0, 0, 0]	n/a	FR1	0	R1006P
1875.387	2.533	1274577	WORD	n/a	wordpools/wordpool_EN.txt	FUR	11	17	[0, 0, 0]	n/a	FR1	0	R1006P
1877.92	1.601	1275844	WORD	n/a	wordpools/wordpool_EN.txt	TRAIN	12	17	[0, 0, 0]	n/a	FR1	0	R1006P
1879.521	0.001	1276644	DISTRACT_START	n/a	n/a	n/a	-999	17	[0, 0, 0]	n/a	FR1	0	R1006P
1879.522	0.016	1276645	START	n/a	n/a	n/a	-999	17	[-999, -999, -999]	n/a	FR1	0	R1006P
1879.538	6.035	1276653	PROB	6.035	n/a	n/a	-999	17	[2, 6, 4]	12	FR1	0	R1006P
1885.573	6.684	1279670	PROB	6.684	n/a	n/a	-999	17	[2, 6, 5]	13	FR1	0	R1006P
1892.257	3.85	1283012	PROB	3.85	n/a	n/a	-999	17	[7, 3, 2]	12	FR1	0	R1006P
1896.107	3.401	1284937	PROB	3.401	n/a	n/a	-999	17	[5, 4, 1]	10	FR1	0	R1006P
1899.508	0.017	1286637	STOP	n/a	n/a	n/a	-999	17	[-999, -999, -999]	n/a	FR1	0	R1006P
1899.525	1.068	1286646	DISTRACT_END	n/a	n/a	n/a	-999	17	[0, 0, 0]	n/a	FR1	0	R1006P
1900.593	2.166	1287180	REC_START	n/a	n/a	n/a	-999	17	[0, 0, 0]	n/a	FR1	0	R1006P
1902.759	0.861	1288263	REC_WORD_VV	0.861	n/a	<>	-999	17	[0, 0, 0]	n/a	FR1	0	R1006P
1903.62	0.608	1288693	REC_WORD	0.608	n/a	WHEEL	-999	17	[0, 0, 0]	n/a	FR1	0	R1006P
1904.228	4.082	1288997	REC_WORD	4.082	n/a	STORM	-999	17	[0, 0, 0]	n/a	FR1	0	R1006P
1908.31	0.564	1291038	REC_WORD	0.564	n/a	BIRD	-999	17	[0, 0, 0]	n/a	FR1	0	R1006P
1908.874	5.617	1291320	REC_WORD	5.617	n/a	EGG	-999	17	[0, 0, 0]	n/a	FR1	0	R1006P
1914.491	6.327	1294128	REC_WORD	6.327	n/a	FARM	-999	17	[0, 0, 0]	n/a	FR1	0	R1006P
1920.818	9.786	1297292	REC_WORD	9.786	n/a	BEAK	-999	17	[0, 0, 0]	n/a	FR1	0	R1006P
1930.604	2.828	1302184	REC_END	n/a	n/a	n/a	-999	17	[0, 0, 0]	n/a	FR1	0	R1006P
1933.432	0.0	1303598	TRIAL	n/a	n/a	n/a	-999	18	[0, 0, 0]	n/a	FR1	0	R1006P
1933.432	10.428	1303598	COUNTDOWN_START	n/a	n/a	n/a	-999	18	[0, 0, 0]	n/a	FR1	0	R1006P
1943.86	0.006	1308812	COUNTDOWN_END	n/a	n/a	n/a	-999	18	[0, 0, 0]	n/a	FR1	0	R1006P
1943.866	2.501	1308815	ORIENT	n/a	n/a	n/a	-999	18	[0, 0, 0]	n/a	FR1	0	R1006P
1946.367	2.433	1310065	WORD	n/a	wordpools/wordpool_EN.txt	SEAL	1	18	[0, 0, 0]	n/a	FR1	0	R1006P
1948.8	2.468	1311282	WORD	n/a	wordpools/wordpool_EN.txt	GOLD	2	18	[0, 0, 0]	n/a	FR1	0	R1006P
1951.268	2.467	1312516	WORD	n/a	wordpools/wordpool_EN.txt	GUARD	3	18	[0, 0, 0]	n/a	FR1	0	R1006P
1953.735	2.417	1313749	WORD	n/a	wordpools/wordpool_EN.txt	NAIL	4	18	[0, 0, 0]	n/a	FR1	0	R1006P
1956.152	2.617	1314958	WORD	n/a	wordpools/wordpool_EN.txt	SQUARE	5	18	[0, 0, 0]	n/a	FR1	0	R1006P
1958.769	2.601	1316266	WORD	n/a	wordpools/wordpool_EN.txt	CAPE	6	18	[0, 0, 0]	n/a	FR1	0	R1006P
1961.37	2.466	1317567	WORD	n/a	wordpools/wordpool_EN.txt	TOOL	7	18	[0, 0, 0]	n/a	FR1	0	R1006P
1963.836	2.452	1318800	WORD	n/a	wordpools/wordpool_EN.txt	CROWN	8	18	[0, 0, 0]	n/a	FR1	0	R1006P
1966.288	2.616	1320025	WORD	n/a	wordpools/wordpool_EN.txt	SWORD	9	18	[0, 0, 0]	n/a	FR1	0	R1006P
1968.904	2.602	1321333	WORD	n/a	wordpools/wordpool_EN.txt	HAND	10	18	[0, 0, 0]	n/a	FR1	0	R1006P
1971.506	2.499	1322634	WORD	n/a	wordpools/wordpool_EN.txt	BLUSH	11	18	[0, 0, 0]	n/a	FR1	0	R1006P
1974.005	1.601	1323884	WORD	n/a	wordpools/wordpool_EN.txt	PIT	12	18	[0, 0, 0]	n/a	FR1	0	R1006P
1975.606	0.001	1324684	DISTRACT_START	n/a	n/a	n/a	-999	18	[0, 0, 0]	n/a	FR1	0	R1006P
1975.607	0.016	1324685	START	n/a	n/a	n/a	-999	18	[-999, -999, -999]	n/a	FR1	0	R1006P
1975.623	3.55	1324693	PROB	3.55	n/a	n/a	-999	18	[3, 3, 5]	11	FR1	0	R1006P
1979.173	5.318	1326468	PROB	5.318	n/a	n/a	-999	18	[3, 3, 8]	14	FR1	0	R1006P
1984.491	3.7	1329127	PROB	3.7	n/a	n/a	-999	18	[2, 1, 7]	10	FR1	0	R1006P
1988.191	4.168	1330976	PROB	4.168	n/a	n/a	-999	18	[8, 3, 8]	19	FR1	0	R1006P
1992.359	9.469	1333060	PROB	9.469	n/a	n/a	-999	18	[5, 6, 3]	14	FR1	0	R1006P
2001.828	0.016	1337795	STOP	n/a	n/a	n/a	-999	18	[-999, -999, -999]	n/a	FR1	0	R1006P
2001.844	1.084	1337803	DISTRACT_END	n/a	n/a	n/a	-999	18	[0, 0, 0]	n/a	FR1	0	R1006P
2002.928	2.57	1338345	REC_START	n/a	n/a	n/a	-999	18	[0, 0, 0]	n/a	FR1	0	R1006P
2005.498	1.345	1339629	REC_WORD	1.345	n/a	PIT	-999	18	[0, 0, 0]	n/a	FR1	0	R1006P
2006.843	0.528	1340302	REC_WORD	0.528	n/a	SWORD	-999	18	[0, 0, 0]	n/a	FR1	0	R1006P
2007.371	0.956	1340566	REC_WORD	0.956	n/a	HEN	-999	18	[0, 0, 0]	n/a	FR1	0	R1006P
2008.327	5.463	1341044	REC_WORD	5.463	n/a	CROWN	-999	18	[0, 0, 0]	n/a	FR1	0	R1006P
2013.79	0.572	1343775	REC_WORD	0.572	n/a	GOLD	-999	18	[0, 0, 0]	n/a	FR1	0	R1006P
2014.362	13.175	1344061	REC_WORD	13.175	n/a	SEAL	-999	18	[0, 0, 0]	n/a	FR1	0	R1006P
2027.537	5.402	1350648	REC_WORD	5.402	n/a	NAIL	-999	18	[0, 0, 0]	n/a	FR1	0	R1006P
2032.939	1.745	1353349	REC_END	n/a	n/a	n/a	-999	18	[0, 0, 0]	n/a	FR1	0	R1006P
2034.684	0.0	1354222	TRIAL	n/a	n/a	n/a	-999	19	[0, 0, 0]	n/a	FR1	0	R1006P
2034.684	10.428	1354222	COUNTDOWN_START	n/a	n/a	n/a	-999	19	[0, 0, 0]	n/a	FR1	0	R1006P
2045.112	0.006	1359435	COUNTDOWN_END	n/a	n/a	n/a	-999	19	[0, 0, 0]	n/a	FR1	0	R1006P
2045.118	2.435	1359438	ORIENT	n/a	n/a	n/a	-999	19	[0, 0, 0]	n/a	FR1	0	R1006P
2047.553	2.399	1360656	WORD	n/a	wordpools/wordpool_EN.txt	EAR	1	19	[0, 0, 0]	n/a	FR1	0	R1006P
2049.952	2.486	1361855	WORD	n/a	wordpools/wordpool_EN.txt	HOUSE	2	19	[0, 0, 0]	n/a	FR1	0	R1006P
2052.438	2.599	1363098	WORD	n/a	wordpools/wordpool_EN.txt	DOOR	3	19	[0, 0, 0]	n/a	FR1	0	R1006P
2055.037	2.535	1364398	WORD	n/a	wordpools/wordpool_EN.txt	STREET	4	19	[0, 0, 0]	n/a	FR1	0	R1006P
2057.572	2.549	1365665	WORD	n/a	wordpools/wordpool_EN.txt	DIME	5	19	[0, 0, 0]	n/a	FR1	0	R1006P
2060.121	2.634	1366940	WORD	n/a	wordpools/wordpool_EN.txt	BED	6	19	[0, 0, 0]	n/a	FR1	0	R1006P
2062.755	2.451	1368257	WORD	n/a	wordpools/wordpool_EN.txt	CAKE	7	19	[0, 0, 0]	n/a	FR1	0	R1006P
2065.206	2.583	1369482	WORD	n/a	wordpools/wordpool_EN.txt	CART	8	19	[0, 0, 0]	n/a	FR1	0	R1006P
2067.789	2.434	1370773	WORD	n/a	wordpools/wordpool_EN.txt	FENCE	9	19	[0, 0, 0]	n/a	FR1	0	R1006P
2070.223	2.385	1371990	WORD	n/a	wordpools/wordpool_EN.txt	CUP	10	19	[0, 0, 0]	n/a	FR1	0	R1006P
2072.608	2.433	1373183	WORD	n/a	wordpools/wordpool_EN.txt	SLUSH	11	19	[0, 0, 0]	n/a	FR1	0	R1006P
2075.041	1.601	1374399	WORD	n/a	wordpools/wordpool_EN.txt	STAIR	12	19	[0, 0, 0]	n/a	FR1	0	R1006P
2076.642	0.001	1375200	DISTRACT_START	n/a	n/a	n/a	-999	19	[0, 0, 0]	n/a	FR1	0	R1006P
2076.643	0.016	1375200	START	n/a	n/a	n/a	-999	19	[-999, -999, -999]	n/a	FR1	0	R1006P
2076.659	6.433	1375208	PROB	6.433	n/a	n/a	-999	19	[7, 6, 4]	17	FR1	0	R1006P
2083.092	9.836	1378425	PROB	9.836	n/a	n/a	-999	19	[9, 9, 5]	23	FR1	0	R1006P
2092.928	4.899	1383342	PROB	4.899	n/a	n/a	-999	19	[5, 4, 6]	15	FR1	0	R1006P
2097.827	0.018	1385792	STOP	n/a	n/a	n/a	-999	19	[-999, -999, -999]	n/a	FR1	0	R1006P
2097.845	1.151	1385801	DISTRACT_END	n/a	n/a	n/a	-999	19	[0, 0, 0]	n/a	FR1	0	R1006P
2098.996	5.369	1386376	REC_START	n/a	n/a	n/a	-999	19	[0, 0, 0]	n/a	FR1	0	R1006P
2104.365	1.1	1389061	REC_WORD_VV	1.1	n/a	<>	-999	19	[0, 0, 0]	n/a	FR1	0	R1006P
2105.465	1.919	1389610	REC_WORD	1.919	n/a	BED	-999	19	[0, 0, 0]	n/a	FR1	0	R1006P
2107.384	3.438	1390570	REC_WORD	3.438	n/a	CAKE	-999	19	[0, 0, 0]	n/a	FR1	0	R1006P
2110.822	1.685	1392289	REC_WORD_VV	1.685	n/a	<>	-999	19	[0, 0, 0]	n/a	FR1	0	R1006P
2112.507	1.342	1393131	REC_WORD	1.342	n/a	HOUSE	-999	19	[0, 0, 0]	n/a	FR1	0	R1006P
2113.849	0.911	1393802	REC_WORD	0.911	n/a	DIME	-999	19	[0, 0, 0]	n/a	FR1	0	R1006P
2114.76	14.247	1394258	REC_WORD	14.247	n/a	STREET	-999	19	[0, 0, 0]	n/a	FR1	0	R1006P
2129.007	1.728	1401381	REC_END	n/a	n/a	n/a	-999	19	[0, 0, 0]	n/a	FR1	0	R1006P
2130.735	0.0	1402245	TRIAL	n/a	n/a	n/a	-999	20	[0, 0, 0]	n/a	FR1	0	R1006P
2130.735	10.428	1402245	COUNTDOWN_START	n/a	n/a	n/a	-999	20	[0, 0, 0]	n/a	FR1	0	R1006P
2141.163	0.007	1407459	COUNTDOWN_END	n/a	n/a	n/a	-999	20	[0, 0, 0]	n/a	FR1	0	R1006P
2141.17	2.535	1407462	ORIENT	n/a	n/a	n/a	-999	20	[0, 0, 0]	n/a	FR1	0	R1006P
2143.705	2.617	1408730	WORD	n/a	wordpools/wordpool_EN.txt	PASTE	1	20	[0, 0, 0]	n/a	FR1	0	R1006P
2146.322	2.583	1410038	WORD	n/a	wordpools/wordpool_EN.txt	PEAR	2	20	[0, 0, 0]	n/a	FR1	0	R1006P
2148.905	2.401	1411329	WORD	n/a	wordpools/wordpool_EN.txt	LEG	3	20	[0, 0, 0]	n/a	FR1	0	R1006P
2151.306	2.466	1412530	WORD	n/a	wordpools/wordpool_EN.txt	APE	4	20	[0, 0, 0]	n/a	FR1	0	R1006P
2153.772	2.401	1413763	WORD	n/a	wordpools/wordpool_EN.txt	CONE	5	20	[0, 0, 0]	n/a	FR1	0	R1006P
2156.173	2.435	1414963	WORD	n/a	wordpools/wordpool_EN.txt	SEED	6	20	[0, 0, 0]	n/a	FR1	0	R1006P
2158.608	2.633	1416181	WORD	n/a	wordpools/wordpool_EN.txt	CLOTH	7	20	[0, 0, 0]	n/a	FR1	0	R1006P
2161.241	2.517	1417497	WORD	n/a	wordpools/wordpool_EN.txt	LEAF	8	20	[0, 0, 0]	n/a	FR1	0	R1006P
2163.758	2.484	1418756	WORD	n/a	wordpools/wordpool_EN.txt	RAT	9	20	[0, 0, 0]	n/a	FR1	0	R1006P
2166.242	2.451	1419997	WORD	n/a	wordpools/wordpool_EN.txt	WING	10	20	[0, 0, 0]	n/a	FR1	0	R1006P
2168.693	2.466	1421223	WORD	n/a	wordpools/wordpool_EN.txt	CHIEF	11	20	[0, 0, 0]	n/a	FR1	0	R1006P
2171.159	1.617	1422456	WORD	n/a	wordpools/wordpool_EN.txt	PLANT	12	20	[0, 0, 0]	n/a	FR1	0	R1006P
2172.776	0.001	1423264	DISTRACT_START	n/a	n/a	n/a	-999	20	[0, 0, 0]	n/a	FR1	0	R1006P
2172.777	0.016	1423265	START	n/a	n/a	n/a	-999	20	[-999, -999, -999]	n/a	FR1	0	R1006P
2172.793	5.868	1423273	PROB	5.868	n/a	n/a	-999	20	[3, 7, 7]	17	FR1	0	R1006P
2178.661	6.752	1426207	PROB	6.752	n/a	n/a	-999	20	[5, 9, 7]	21	FR1	0	R1006P
2185.413	4.383	1429582	PROB	4.383	n/a	n/a	-999	20	[6, 2, 3]	11	FR1	0	R1006P
2189.796	6.151	1431774	PROB	6.151	n/a	n/a	-999	20	[5, 4, 7]	16	FR1	0	R1006P
2195.947	0.017	1434849	STOP	n/a	n/a	n/a	-999	20	[-999, -999, -999]	n/a	FR1	0	R1006P
2195.964	1.201	1434858	DISTRACT_END	n/a	n/a	n/a	-999	20	[0, 0, 0]	n/a	FR1	0	R1006P
2197.165	1.19	1435458	REC_START	n/a	n/a	n/a	-999	20	[0, 0, 0]	n/a	FR1	0	R1006P
2198.355	0.671	1436053	REC_WORD	0.671	n/a	PASTE	-999	20	[0, 0, 0]	n/a	FR1	0	R1006P
2199.026	0.54	1436389	REC_WORD	0.54	n/a	PEAR	-999	20	[0, 0, 0]	n/a	FR1	0	R1006P
2199.566	3.212	1436659	REC_WORD	3.212	n/a	LEG	-999	20	[0, 0, 0]	n/a	FR1	0	R1006P
2202.778	24.398	1438265	REC_WORD	24.398	n/a	CHICKEN	-999	20	[0, 0, 0]	n/a	FR1	0	R1006P
2227.176	1.961	1450463	REC_END	n/a	n/a	n/a	-999	20	[0, 0, 0]	n/a	FR1	0	R1006P
2229.137	0.0	1451443	TRIAL	n/a	n/a	n/a	-999	21	[0, 0, 0]	n/a	FR1	0	R1006P
2229.137	10.428	1451443	COUNTDOWN_START	n/a	n/a	n/a	-999	21	[0, 0, 0]	n/a	FR1	0	R1006P
2239.565	0.008	1456657	COUNTDOWN_END	n/a	n/a	n/a	-999	21	[0, 0, 0]	n/a	FR1	0	R1006P
2239.573	2.566	1456661	ORIENT	n/a	n/a	n/a	-999	21	[0, 0, 0]	n/a	FR1	0	R1006P
2242.139	2.452	1457944	WORD	n/a	wordpools/wordpool_EN.txt	FOOT	1	21	[0, 0, 0]	n/a	FR1	0	R1006P
2244.591	2.466	1459170	WORD	n/a	wordpools/wordpool_EN.txt	HORSE	2	21	[0, 0, 0]	n/a	FR1	0	R1006P
2247.057	2.535	1460403	WORD	n/a	wordpools/wordpool_EN.txt	CALF	3	21	[0, 0, 0]	n/a	FR1	0	R1006P
2249.592	2.599	1461670	WORD	n/a	wordpools/wordpool_EN.txt	BAG	4	21	[0, 0, 0]	n/a	FR1	0	R1006P
2252.191	2.534	1462970	WORD	n/a	wordpools/wordpool_EN.txt	NOSE	5	21	[0, 0, 0]	n/a	FR1	0	R1006P
2254.725	2.601	1464237	WORD	n/a	wordpools/wordpool_EN.txt	DITCH	6	21	[0, 0, 0]	n/a	FR1	0	R1006P
2257.326	2.6	1465537	WORD	n/a	wordpools/wordpool_EN.txt	WAND	7	21	[0, 0, 0]	n/a	FR1	0	R1006P
2259.926	2.385	1466837	WORD	n/a	wordpools/wordpool_EN.txt	SHIRT	8	21	[0, 0, 0]	n/a	FR1	0	R1006P
2262.311	2.599	1468030	WORD	n/a	wordpools/wordpool_EN.txt	MOUTH	9	21	[0, 0, 0]	n/a	FR1	0	R1006P
2264.91	2.385	1469329	WORD	n/a	wordpools/wordpool_EN.txt	CHALK	10	21	[0, 0, 0]	n/a	FR1	0	R1006P
2267.295	2.516	1470521	WORD	n/a	wordpools/wordpool_EN.txt	SINK	11	21	[0, 0, 0]	n/a	FR1	0	R1006P
2269.811	1.601	1471779	WORD	n/a	wordpools/wordpool_EN.txt	MUD	12	21	[0, 0, 0]	n/a	FR1	0	R1006P
2271.412	0.001	1472580	DISTRACT_START	n/a	n/a	n/a	-999	21	[0, 0, 0]	n/a	FR1	0	R1006P
2271.413	0.016	1472580	START	n/a	n/a	n/a	-999	21	[-999, -999, -999]	n/a	FR1	0	R1006P
2271.429	7.35	1472588	PROB	7.35	n/a	n/a	-999	21	[8, 2, 5]	15	FR1	0	R1006P
2278.779	4.051	1476263	PROB	4.051	n/a	n/a	-999	21	[1, 5, 2]	8	FR1	0	R1006P
2282.83	10.917	1478289	PROB	10.917	n/a	n/a	-999	21	[7, 8, 5]	20	FR1	0	R1006P
2293.747	0.019	1483747	STOP	n/a	n/a	n/a	-999	21	[-999, -999, -999]	n/a	FR1	0	R1006P
2293.766	1.068	1483756	DISTRACT_END	n/a	n/a	n/a	-999	21	[0, 0, 0]	n/a	FR1	0	R1006P
2294.834	3.328	1484290	REC_START	n/a	n/a	n/a	-999	21	[0, 0, 0]	n/a	FR1	0	R1006P
2298.162	0.872	1485954	REC_WORD	0.872	n/a	HORSE	-999	21	[0, 0, 0]	n/a	FR1	0	R1006P
2299.034	1.966	1486390	REC_WORD	1.966	n/a	CALF	-999	21	[0, 0, 0]	n/a	FR1	0	R1006P
2301.0	2.908	1487373	REC_WORD	2.908	n/a	NOSE	-999	21	[0, 0, 0]	n/a	FR1	0	R1006P
2303.908	0.717	1488827	REC_WORD_VV	0.717	n/a	<>	-999	21	[0, 0, 0]	n/a	FR1	0	R1006P
2304.625	2.28	1489186	REC_WORD	2.28	n/a	WAND	-999	21	[0, 0, 0]	n/a	FR1	0	R1006P
2306.905	17.939	1490325	REC_WORD	17.939	n/a	DITCH	-999	21	[0, 0, 0]	n/a	FR1	0	R1006P
2324.844	2.746	1499295	REC_END	n/a	n/a	n/a	-999	21	[0, 0, 0]	n/a	FR1	0	R1006P
2327.59	0.0	1500667	TRIAL	n/a	n/a	n/a	-999	22	[0, 0, 0]	n/a	FR1	0	R1006P
2327.59	10.428	1500667	COUNTDOWN_START	n/a	n/a	n/a	-999	22	[0, 0, 0]	n/a	FR1	0	R1006P
2338.018	0.006	1505881	COUNTDOWN_END	n/a	n/a	n/a	-999	22	[0, 0, 0]	n/a	FR1	0	R1006P
2338.024	2.485	1505884	ORIENT	n/a	n/a	n/a	-999	22	[0, 0, 0]	n/a	FR1	0	R1006P
2340.509	2.399	1507127	WORD	n/a	wordpools/wordpool_EN.txt	RUG	1	22	[0, 0, 0]	n/a	FR1	0	R1006P
2342.908	2.568	1508326	WORD	n/a	wordpools/wordpool_EN.txt	YARD	2	22	[0, 0, 0]	n/a	FR1	0	R1006P
2345.476	2.416	1509610	WORD	n/a	wordpools/wordpool_EN.txt	STOVE	3	22	[0, 0, 0]	n/a	FR1	0	R1006P
2347.892	2.602	1510818	WORD	n/a	wordpools/wordpool_EN.txt	LOCK	4	22	[0, 0, 0]	n/a	FR1	0	R1006P
2350.494	2.533	1512119	WORD	n/a	wordpools/wordpool_EN.txt	FACE	5	22	[0, 0, 0]	n/a	FR1	0	R1006P
2353.027	2.551	1513385	WORD	n/a	wordpools/wordpool_EN.txt	BOARD	6	22	[0, 0, 0]	n/a	FR1	0	R1006P
2355.578	2.383	1514661	WORD	n/a	wordpools/wordpool_EN.txt	CAGE	7	22	[0, 0, 0]	n/a	FR1	0	R1006P
2357.961	2.468	1515852	WORD	n/a	wordpools/wordpool_EN.txt	HORN	8	22	[0, 0, 0]	n/a	FR1	0	R1006P
2360.429	2.383	1517086	WORD	n/a	wordpools/wordpool_EN.txt	DRESS	9	22	[0, 0, 0]	n/a	FR1	0	R1006P
2362.812	2.435	1518278	WORD	n/a	wordpools/wordpool_EN.txt	DOCK	10	22	[0, 0, 0]	n/a	FR1	0	R1006P
2365.247	2.383	1519495	WORD	n/a	wordpools/wordpool_EN.txt	WOOD	11	22	[0, 0, 0]	n/a	FR1	0	R1006P
2367.63	1.617	1520686	WORD	n/a	wordpools/wordpool_EN.txt	TOY	12	22	[0, 0, 0]	n/a	FR1	0	R1006P
2369.247	0.001	1521495	DISTRACT_START	n/a	n/a	n/a	-999	22	[0, 0, 0]	n/a	FR1	0	R1006P
2369.248	0.016	1521495	START	n/a	n/a	n/a	-999	22	[-999, -999, -999]	n/a	FR1	0	R1006P
2369.264	7.101	1521503	PROB	7.101	n/a	n/a	-999	22	[1, 1, 3]	5	FR1	0	R1006P
2376.365	7.269	1525054	PROB	7.269	n/a	n/a	-999	22	[7, 4, 3]	14	FR1	0	R1006P
2383.634	8.899	1528688	PROB	8.899	n/a	n/a	-999	22	[2, 9, 3]	14	FR1	0	R1006P
2392.533	0.019	1533137	STOP	n/a	n/a	n/a	-999	22	[-999, -999, -999]	n/a	FR1	0	R1006P
2392.552	1.101	1533147	DISTRACT_END	n/a	n/a	n/a	-999	22	[0, 0, 0]	n/a	FR1	0	R1006P
2393.653	1.643	1533697	REC_START	n/a	n/a	n/a	-999	22	[0, 0, 0]	n/a	FR1	0	R1006P
2395.296	1.077	1534519	REC_WORD	1.077	n/a	LAWN	-999	22	[0, 0, 0]	n/a	FR1	0	R1006P
2396.373	1.354	1535057	REC_WORD	1.354	n/a	LOCK	-999	22	[0, 0, 0]	n/a	FR1	0	R1006P
2397.727	2.418	1535734	REC_WORD	2.418	n/a	CAGE	-999	22	[0, 0, 0]	n/a	FR1	0	R1006P
2400.145	3.099	1536943	REC_WORD	3.099	n/a	STOVE	-999	22	[0, 0, 0]	n/a	FR1	0	R1006P
2403.244	16.896	1538493	REC_WORD_VV	16.896	n/a	<>	-999	22	[0, 0, 0]	n/a	FR1	0	R1006P
2420.14	3.524	1546940	REC_WORD	3.524	n/a	RUG	-999	22	[0, 0, 0]	n/a	FR1	0	R1006P
2423.664	4.327	1548702	REC_END	n/a	n/a	n/a	-999	22	[0, 0, 0]	n/a	FR1	0	R1006P
2427.991	0.0	1550865	TRIAL	n/a	n/a	n/a	-999	23	[0, 0, 0]	n/a	FR1	0	R1006P
2427.991	10.428	1550865	COUNTDOWN_START	n/a	n/a	n/a	-999	23	[0, 0, 0]	n/a	FR1	0	R1006P
2438.419	0.008	1556079	COUNTDOWN_END	n/a	n/a	n/a	-999	23	[0, 0, 0]	n/a	FR1	0	R1006P
2438.427	2.566	1556083	ORIENT	n/a	n/a	n/a	-999	23	[0, 0, 0]	n/a	FR1	0	R1006P
2440.993	2.585	1557366	WORD	n/a	wordpools/wordpool_EN.txt	SOAP	1	23	[0, 0, 0]	n/a	FR1	0	R1006P
2443.578	2.533	1558659	WORD	n/a	wordpools/wordpool_EN.txt	GRAPE	2	23	[0, 0, 0]	n/a	FR1	0	R1006P
2446.111	2.551	1559925	WORD	n/a	wordpools/wordpool_EN.txt	FLUTE	3	23	[0, 0, 0]	n/a	FR1	0	R1006P
2448.662	2.5	1561200	WORD	n/a	wordpools/wordpool_EN.txt	BENCH	4	23	[0, 0, 0]	n/a	FR1	0	R1006P
2451.162	2.418	1562450	WORD	n/a	wordpools/wordpool_EN.txt	FAN	5	23	[0, 0, 0]	n/a	FR1	0	R1006P
2453.58	2.416	1563659	WORD	n/a	wordpools/wordpool_EN.txt	JUICE	6	23	[0, 0, 0]	n/a	FR1	0	R1006P
2455.996	2.468	1564867	WORD	n/a	wordpools/wordpool_EN.txt	FRUIT	7	23	[0, 0, 0]	n/a	FR1	0	R1006P
2458.464	2.449	1566101	WORD	n/a	wordpools/wordpool_EN.txt	COUCH	8	23	[0, 0, 0]	n/a	FR1	0	R1006P
2460.913	2.386	1567326	WORD	n/a	wordpools/wordpool_EN.txt	GLASS	9	23	[0, 0, 0]	n/a	FR1	0	R1006P
2463.299	2.482	1568519	WORD	n/a	wordpools/wordpool_EN.txt	BOWL	10	23	[0, 0, 0]	n/a	FR1	0	R1006P
2465.781	2.417	1569760	WORD	n/a	wordpools/wordpool_EN.txt	BOOT	11	23	[0, 0, 0]	n/a	FR1	0	R1006P
2468.198	1.617	1570968	WORD	n/a	wordpools/wordpool_EN.txt	CANE	12	23	[0, 0, 0]	n/a	FR1	0	R1006P
2469.815	0.001	1571776	DISTRACT_START	n/a	n/a	n/a	-999	23	[0, 0, 0]	n/a	FR1	0	R1006P
2469.816	0.016	1571777	START	n/a	n/a	n/a	-999	23	[-999, -999, -999]	n/a	FR1	0	R1006P
2469.832	3.984	1571785	PROB	3.984	n/a	n/a	-999	23	[6, 2, 2]	10	FR1	0	R1006P
2473.816	3.284	1573777	PROB	3.284	n/a	n/a	-999	23	[5, 3, 1]	9	FR1	0	R1006P
2477.1	3.667	1575419	PROB	3.667	n/a	n/a	-999	23	[3, 3, 5]	11	FR1	0	R1006P
2480.767	3.769	1577252	PROB	3.769	n/a	n/a	-999	23	[3, 5, 4]	12	FR1	0	R1006P
2484.536	7.149	1579137	PROB	7.149	n/a	n/a	-999	23	[5, 6, 2]	13	FR1	0	R1006P
2491.685	0.019	1582711	STOP	n/a	n/a	n/a	-999	23	[-999, -999, -999]	n/a	FR1	0	R1006P
2491.704	1.166	1582720	DISTRACT_END	n/a	n/a	n/a	-999	23	[0, 0, 0]	n/a	FR1	0	R1006P
2492.87	10.876	1583303	REC_START	n/a	n/a	n/a	-999	23	[0, 0, 0]	n/a	FR1	0	R1006P
2503.746	0.952	1588741	REC_WORD	0.952	n/a	JUICE	-999	23	[0, 0, 0]	n/a	FR1	0	R1006P
2504.698	1.883	1589217	REC_WORD	1.883	n/a	FAN	-999	23	[0, 0, 0]	n/a	FR1	0	R1006P
2506.581	6.553	1590158	REC_WORD	6.553	n/a	COUCH	-999	23	[0, 0, 0]	n/a	FR1	0	R1006P
2513.134	1.784	1593435	REC_WORD	1.784	n/a	BOOK	-999	23	[0, 0, 0]	n/a	FR1	0	R1006P
2514.918	0.953	1594327	REC_WORD	0.953	n/a	LAWN	-999	23	[0, 0, 0]	n/a	FR1	0	R1006P
2515.871	5.215	1594803	REC_WORD	5.215	n/a	HOUSE	-999	23	[0, 0, 0]	n/a	FR1	0	R1006P
2521.086	1.8	1597411	REC_WORD	1.8	n/a	STOVE	-999	23	[0, 0, 0]	n/a	FR1	0	R1006P
2522.886	2.323	1598311	REC_END	n/a	n/a	n/a	-999	23	[0, 0, 0]	n/a	FR1	0	R1006P
2525.209	0.0	1599472	TRIAL	n/a	n/a	n/a	-999	24	[0, 0, 0]	n/a	FR1	0	R1006P
2525.209	10.428	1599472	COUNTDOWN_START	n/a	n/a	n/a	-999	24	[0, 0, 0]	n/a	FR1	0	R1006P
2535.637	0.009	1604686	COUNTDOWN_END	n/a	n/a	n/a	-999	24	[0, 0, 0]	n/a	FR1	0	R1006P
2535.646	2.516	1604690	ORIENT	n/a	n/a	n/a	-999	24	[0, 0, 0]	n/a	FR1	0	R1006P
2538.162	2.501	1605948	WORD	n/a	wordpools/wordpool_EN.txt	BRICK	1	24	[0, 0, 0]	n/a	FR1	0	R1006P
2540.663	2.601	1607199	WORD	n/a	wordpools/wordpool_EN.txt	POLE	2	24	[0, 0, 0]	n/a	FR1	0	R1006P
2543.264	2.499	1608499	WORD	n/a	wordpools/wordpool_EN.txt	JAIL	3	24	[0, 0, 0]	n/a	FR1	0	R1006P
2545.763	2.485	1609749	WORD	n/a	wordpools/wordpool_EN.txt	MAP	4	24	[0, 0, 0]	n/a	FR1	0	R1006P
2548.248	2.533	1610991	WORD	n/a	wordpools/wordpool_EN.txt	MOON	5	24	[0, 0, 0]	n/a	FR1	0	R1006P
2550.781	2.584	1612257	WORD	n/a	wordpools/wordpool_EN.txt	CORD	6	24	[0, 0, 0]	n/a	FR1	0	R1006P
2553.365	2.617	1613549	WORD	n/a	wordpools/wordpool_EN.txt	BOMB	7	24	[0, 0, 0]	n/a	FR1	0	R1006P
2555.982	2.618	1614858	WORD	n/a	wordpools/wordpool_EN.txt	OAR	8	24	[0, 0, 0]	n/a	FR1	0	R1006P
2558.6	2.532	1616167	WORD	n/a	wordpools/wordpool_EN.txt	STAR	9	24	[0, 0, 0]	n/a	FR1	0	R1006P
2561.132	2.585	1617433	WORD	n/a	wordpools/wordpool_EN.txt	STEM	10	24	[0, 0, 0]	n/a	FR1	0	R1006P
2563.717	2.584	1618725	WORD	n/a	wordpools/wordpool_EN.txt	BAT	11	24	[0, 0, 0]	n/a	FR1	0	R1006P
2566.301	1.616	1620017	WORD	n/a	wordpools/wordpool_EN.txt	TOOTH	12	24	[0, 0, 0]	n/a	FR1	0	R1006P
2567.917	0.001	1620825	DISTRACT_START	n/a	n/a	n/a	-999	24	[0, 0, 0]	n/a	FR1	0	R1006P
2567.918	0.016	1620825	START	n/a	n/a	n/a	-999	24	[-999, -999, -999]	n/a	FR1	0	R1006P
2567.934	13.836	1620833	PROB	13.836	n/a	n/a	-999	24	[3, 7, 8]	18	FR1	0	R1006P
2581.77	10.946	1627751	PROB	10.946	n/a	n/a	-999	24	[9, 6, 8]	23	FR1	0	R1006P
2592.716	0.006	1633224	STOP	n/a	n/a	n/a	-999	24	[-999, -999, -999]	n/a	FR1	0	R1006P
2592.722	1.218	1633227	DISTRACT_END	n/a	n/a	n/a	-999	24	[0, 0, 0]	n/a	FR1	0	R1006P
2593.94	4.311	1633836	REC_START	n/a	n/a	n/a	-999	24	[0, 0, 0]	n/a	FR1	0	R1006P
2598.251	0.601	1635991	REC_WORD	0.601	n/a	OAR	-999	24	[0, 0, 0]	n/a	FR1	0	R1006P
2598.852	1.972	1636292	REC_WORD	1.972	n/a	CORD	-999	24	[0, 0, 0]	n/a	FR1	0	R1006P
2600.824	13.221	1637278	REC_WORD	13.221	n/a	MOON	-999	24	[0, 0, 0]	n/a	FR1	0	R1006P
2614.045	9.906	1643888	REC_WORD	9.906	n/a	BOOK	-999	24	[0, 0, 0]	n/a	FR1	0	R1006P
2623.951	2.161	1648841	REC_END	n/a	n/a	n/a	-999	24	[0, 0, 0]	n/a	FR1	0	R1006P
2626.112	0.0	1649921	TRIAL	n/a	n/a	n/a	-999	25	[0, 0, 0]	n/a	FR1	0	R1006P
2626.112	10.428	1649921	COUNTDOWN_START	n/a	n/a	n/a	-999	25	[0, 0, 0]	n/a	FR1	0	R1006P
2636.54	0.008	1655135	COUNTDOWN_END	n/a	n/a	n/a	-999	25	[0, 0, 0]	n/a	FR1	0	R1006P
2636.548	2.449	1655139	ORIENT	n/a	n/a	n/a	-999	25	[0, 0, 0]	n/a	FR1	0	R1006P
2638.997	2.519	1656363	WORD	n/a	wordpools/wordpool_EN.txt	CAT	1	25	[0, 0, 0]	n/a	FR1	0	R1006P
2641.516	2.516	1657623	WORD	n/a	wordpools/wordpool_EN.txt	TANK	2	25	[0, 0, 0]	n/a	FR1	0	R1006P
2644.032	2.518	1658881	WORD	n/a	wordpools/wordpool_EN.txt	BOAT	3	25	[0, 0, 0]	n/a	FR1	0	R1006P
2646.55	2.499	1660139	WORD	n/a	wordpools/wordpool_EN.txt	SPARK	4	25	[0, 0, 0]	n/a	FR1	0	R1006P
2649.049	2.452	1661389	WORD	n/a	wordpools/wordpool_EN.txt	WORM	5	25	[0, 0, 0]	n/a	FR1	0	R1006P
2651.501	2.533	1662615	WORD	n/a	wordpools/wordpool_EN.txt	HOSE	6	25	[0, 0, 0]	n/a	FR1	0	R1006P
2654.034	2.384	1663881	WORD	n/a	wordpools/wordpool_EN.txt	TRASH	7	25	[0, 0, 0]	n/a	FR1	0	R1006P
2656.418	2.517	1665073	WORD	n/a	wordpools/wordpool_EN.txt	KITE	8	25	[0, 0, 0]	n/a	FR1	0	R1006P
2658.935	2.484	1666332	WORD	n/a	wordpools/wordpool_EN.txt	FISH	9	25	[0, 0, 0]	n/a	FR1	0	R1006P
2661.419	2.55	1667574	WORD	n/a	wordpools/wordpool_EN.txt	WHEEL	10	25	[0, 0, 0]	n/a	FR1	0	R1006P
2663.969	2.435	1668849	WORD	n/a	wordpools/wordpool_EN.txt	DOG	11	25	[0, 0, 0]	n/a	FR1	0	R1006P
2666.404	1.616	1670066	WORD	n/a	wordpools/wordpool_EN.txt	LAND	12	25	[0, 0, 0]	n/a	FR1	0	R1006P
2668.02	0.001	1670874	DISTRACT_START	n/a	n/a	n/a	-999	25	[0, 0, 0]	n/a	FR1	0	R1006P
2668.021	0.015	1670874	START	n/a	n/a	n/a	-999	25	[-999, -999, -999]	n/a	FR1	0	R1006P
2668.036	3.552	1670882	PROB	3.552	n/a	n/a	-999	25	[2, 8, 1]	11	FR1	0	R1006P
2671.588	10.368	1672658	PROB	10.368	n/a	n/a	-999	25	[3, 8, 7]	18	FR1	0	R1006P
2681.956	3.967	1677842	PROB	3.967	n/a	n/a	-999	25	[1, 6, 4]	11	FR1	0	R1006P
2685.923	5.232	1679825	PROB	5.232	n/a	n/a	-999	25	[7, 5, 1]	13	FR1	0	R1006P
2691.155	0.019	1682441	STOP	n/a	n/a	n/a	-999	25	[-999, -999, -999]	n/a	FR1	0	R1006P
2691.174	1.135	1682450	DISTRACT_END	n/a	n/a	n/a	-999	25	[0, 0, 0]	n/a	FR1	0	R1006P
2692.309	2.457	1683018	REC_START	n/a	n/a	n/a	-999	25	[0, 0, 0]	n/a	FR1	0	R1006P
2694.766	2.19	1684246	REC_WORD	2.19	n/a	SPARK	-999	25	[0, 0, 0]	n/a	FR1	0	R1006P
2696.956	0.957	1685341	REC_WORD	0.957	n/a	WORM	-999	25	[0, 0, 0]	n/a	FR1	0	R1006P
2697.913	2.74	1685820	REC_WORD	2.74	n/a	HOSE	-999	25	[0, 0, 0]	n/a	FR1	0	R1006P
2700.653	3.749	1687190	REC_WORD	3.749	n/a	TANK	-999	25	[0, 0, 0]	n/a	FR1	0	R1006P
2704.402	3.411	1689064	REC_WORD	3.411	n/a	CAT	-999	25	[0, 0, 0]	n/a	FR1	0	R1006P
2707.813	12.798	1690769	REC_WORD	12.798	n/a	OAR	-999	25	[0, 0, 0]	n/a	FR1	0	R1006P
2720.611	1.71	1697168	REC_WORD_VV	1.71	n/a	<>	-999	25	[0, 0, 0]	n/a	FR1	0	R1006P
2722.321	4.361	1698023	REC_END	n/a	n/a	n/a	-999	25	[0, 0, 0]	n/a	FR1	0	R1006P
2726.682	0.0	1700203	SESS_END	n/a	n/a	n/a	-999	25	[0, 0, 0]	n/a	FR1	0	R1006P
