onset	duration	sample	trial_type	response_time	stim_file	item_name	serialpos	list	test	answer	experiment	session	subject
0.0	1.066	25660	INSTRUCT_START	n/a	n/a	n/a	-999	-999	[0, 0, 0]	n/a	FR1	0	R1404E
1.066	42.364	26725	INSTRUCT_END	n/a	n/a	n/a	-999	-999	[0, 0, 0]	n/a	FR1	0	R1404E
43.43	10.401	69089	COUNTDOWN_START	n/a	n/a	n/a	-999	-999	[0, 0, 0]	n/a	FR1	0	R1404E
53.831	0.0	79491	COUNTDOWN_END	n/a	n/a	n/a	-999	-999	[0, 0, 0]	n/a	FR1	0	R1404E
53.831	2.049	79491	ENCODING_START	n/a	n/a	n/a	-999	-1	[0, 0, 0]	n/a	FR1	0	R1404E
55.88	1.616	81533	WORD	n/a	n/a	BUSH	1	-1	[0, 0, 0]	n/a	FR1	0	R1404E
57.496	0.884	83152	WORD_OFF	n/a	n/a	BUSH	1	-1	[0, 0, 0]	n/a	FR1	0	R1404E
58.38	1.6	84042	WORD	n/a	n/a	CUBE	2	-1	[0, 0, 0]	n/a	FR1	0	R1404E
59.98	0.95	85632	WORD_OFF	n/a	n/a	CUBE	2	-1	[0, 0, 0]	n/a	FR1	0	R1404E
60.93	1.6	86595	WORD	n/a	n/a	WEB	3	-1	[0, 0, 0]	n/a	FR1	0	R1404E
62.53	0.815	88185	WORD_OFF	n/a	n/a	WEB	3	-1	[0, 0, 0]	n/a	FR1	0	R1404E
63.345	1.601	89002	WORD	n/a	n/a	ELF	4	-1	[0, 0, 0]	n/a	FR1	0	R1404E
64.946	0.917	90607	WORD_OFF	n/a	n/a	ELF	4	-1	[0, 0, 0]	n/a	FR1	0	R1404E
65.863	1.615	91526	WORD	n/a	n/a	BATH	5	-1	[0, 0, 0]	n/a	FR1	0	R1404E
67.478	0.935	93131	WORD_OFF	n/a	n/a	BATH	5	-1	[0, 0, 0]	n/a	FR1	0	R1404E
68.413	1.616	94079	WORD	n/a	n/a	BOY	6	-1	[0, 0, 0]	n/a	FR1	0	R1404E
70.029	0.983	95684	WORD_OFF	n/a	n/a	BOY	6	-1	[0, 0, 0]	n/a	FR1	0	R1404E
71.012	1.601	96676	WORD	n/a	n/a	PET	7	-1	[0, 0, 0]	n/a	FR1	0	R1404E
72.613	0.966	98266	WORD_OFF	n/a	n/a	PET	7	-1	[0, 0, 0]	n/a	FR1	0	R1404E
73.579	1.617	99243	WORD	n/a	n/a	TILE	8	-1	[0, 0, 0]	n/a	FR1	0	R1404E
75.196	0.849	100848	WORD_OFF	n/a	n/a	TILE	8	-1	[0, 0, 0]	n/a	FR1	0	R1404E
76.045	1.601	101709	WORD	n/a	n/a	WOLF	9	-1	[0, 0, 0]	n/a	FR1	0	R1404E
77.646	0.8	103299	WORD_OFF	n/a	n/a	WOLF	9	-1	[0, 0, 0]	n/a	FR1	0	R1404E
78.446	1.616	104101	WORD	n/a	n/a	SPACE	10	-1	[0, 0, 0]	n/a	FR1	0	R1404E
80.062	0.85	105720	WORD_OFF	n/a	n/a	SPACE	10	-1	[0, 0, 0]	n/a	FR1	0	R1404E
80.912	1.617	106567	WORD	n/a	n/a	LUNCH	11	-1	[0, 0, 0]	n/a	FR1	0	R1404E
82.529	0.999	108186	WORD_OFF	n/a	n/a	LUNCH	11	-1	[0, 0, 0]	n/a	FR1	0	R1404E
83.528	1.6	109192	WORD	n/a	n/a	CHURCH	12	-1	[0, 0, 0]	n/a	FR1	0	R1404E
85.128	0.002	110783	WORD_OFF	n/a	n/a	CHURCH	12	-1	[0, 0, 0]	n/a	FR1	0	R1404E
85.13	0.0	110783	ENCODING_END	n/a	n/a	n/a	-999	-1	[0, 0, 0]	n/a	FR1	0	R1404E
85.13	0.0	110783	DISTRACT_START	n/a	n/a	n/a	-999	-1	[0, 0, 0]	n/a	FR1	0	R1404E
85.129	0.001	110786	PROB	0.001	n/a	n/a	-999	-1	[5, 6, 8]	19	FR1	0	R1404E
85.13	7.099	110787	START	n/a	n/a	n/a	-999	-1	[-999, -999, -999]	n/a	FR1	0	R1404E
92.229	7.868	117886	PROB	7.868	n/a	n/a	-999	-1	[8, 8, 7]	23	FR1	0	R1404E
100.097	5.08	125754	PROB	5.08	n/a	n/a	-999	-1	[8, 5, 4]	17	FR1	0	R1404E
105.177	0.0	130834	STOP	n/a	n/a	n/a	-999	-1	[-999, -999, -999]	n/a	FR1	0	R1404E
105.177	2.367	130841	DISTRACT_END	n/a	n/a	n/a	-999	-1	[0, 0, 0]	n/a	FR1	0	R1404E
107.544	2.138	133198	REC_START	n/a	n/a	n/a	-999	-1	[0, 0, 0]	n/a	FR1	0	R1404E
109.682	1.123	135339	REC_WORD	1.123	n/a	BUSH	1	-1	[0, 0, 0]	n/a	FR1	0	R1404E
110.805	5.838	136462	REC_WORD	5.838	n/a	CUBE	2	-1	[0, 0, 0]	n/a	FR1	0	R1404E
116.643	21.161	142300	REC_WORD	21.161	n/a	SCHOOL	-999	-1	[0, 0, 0]	n/a	FR1	0	R1404E
137.804	12.856	163461	REC_END	n/a	n/a	n/a	-999	-1	[0, 0, 0]	n/a	FR1	0	R1404E
150.66	10.35	176327	COUNTDOWN_START	n/a	n/a	n/a	-999	1	[0, 0, 0]	n/a	FR1	0	R1404E
161.01	0.001	186670	COUNTDOWN_END	n/a	n/a	n/a	-999	1	[0, 0, 0]	n/a	FR1	0	R1404E
161.011	2.315	186670	ENCODING_START	n/a	n/a	n/a	-999	1	[0, 0, 0]	n/a	FR1	0	R1404E
163.326	1.616	188990	WORD	n/a	wordpools/wordpool_long_EN.txt	FROG	1	1	[0, 0, 0]	n/a	FR1	0	R1404E
164.942	0.918	190595	WORD_OFF	n/a	n/a	FROG	1	1	[0, 0, 0]	n/a	FR1	0	R1404E
165.86	1.616	191514	WORD	n/a	wordpools/wordpool_long_EN.txt	BOX	2	1	[0, 0, 0]	n/a	FR1	0	R1404E
167.476	0.949	193133	WORD_OFF	n/a	n/a	BOX	2	1	[0, 0, 0]	n/a	FR1	0	R1404E
168.425	1.601	194081	WORD	n/a	wordpools/wordpool_long_EN.txt	HAT	3	1	[0, 0, 0]	n/a	FR1	0	R1404E
170.026	0.767	195686	WORD_OFF	n/a	n/a	HAT	3	1	[0, 0, 0]	n/a	FR1	0	R1404E
170.793	1.6	196445	WORD	n/a	wordpools/wordpool_long_EN.txt	SOUP	4	1	[0, 0, 0]	n/a	FR1	0	R1404E
172.393	0.849	198049	WORD_OFF	n/a	n/a	SOUP	4	1	[0, 0, 0]	n/a	FR1	0	R1404E
173.242	1.601	198895	WORD	n/a	wordpools/wordpool_long_EN.txt	MOP	5	1	[0, 0, 0]	n/a	FR1	0	R1404E
174.843	0.816	200500	WORD_OFF	n/a	n/a	MOP	5	1	[0, 0, 0]	n/a	FR1	0	R1404E
175.659	1.617	201317	WORD	n/a	wordpools/wordpool_long_EN.txt	YACHT	6	1	[0, 0, 0]	n/a	FR1	0	R1404E
177.276	0.866	202936	WORD_OFF	n/a	n/a	YACHT	6	1	[0, 0, 0]	n/a	FR1	0	R1404E
178.142	1.617	203797	WORD	n/a	wordpools/wordpool_long_EN.txt	LIP	7	1	[0, 0, 0]	n/a	FR1	0	R1404E
179.759	0.85	205416	WORD_OFF	n/a	n/a	LIP	7	1	[0, 0, 0]	n/a	FR1	0	R1404E
180.609	1.616	206262	WORD	n/a	wordpools/wordpool_long_EN.txt	DOCK	8	1	[0, 0, 0]	n/a	FR1	0	R1404E
182.225	0.884	207882	WORD_OFF	n/a	n/a	DOCK	8	1	[0, 0, 0]	n/a	FR1	0	R1404E
183.109	1.616	208772	WORD	n/a	wordpools/wordpool_long_EN.txt	SPHINX	9	1	[0, 0, 0]	n/a	FR1	0	R1404E
184.725	0.867	210376	WORD_OFF	n/a	n/a	SPHINX	9	1	[0, 0, 0]	n/a	FR1	0	R1404E
185.592	1.615	211252	WORD	n/a	wordpools/wordpool_long_EN.txt	POND	10	1	[0, 0, 0]	n/a	FR1	0	R1404E
187.207	0.918	212871	WORD_OFF	n/a	n/a	POND	10	1	[0, 0, 0]	n/a	FR1	0	R1404E
188.125	1.6	213790	WORD	n/a	wordpools/wordpool_long_EN.txt	INK	11	1	[0, 0, 0]	n/a	FR1	0	R1404E
189.725	0.784	215380	WORD_OFF	n/a	n/a	INK	11	1	[0, 0, 0]	n/a	FR1	0	R1404E
190.509	1.616	216168	WORD	n/a	wordpools/wordpool_long_EN.txt	BANK	12	1	[0, 0, 0]	n/a	FR1	0	R1404E
192.125	0.001	217782	PROB	0.001	n/a	n/a	-999	1	[8, 5, 6]	19	FR1	0	R1404E
192.126	0.0	217783	START	n/a	n/a	n/a	-999	1	[-999, -999, -999]	n/a	FR1	0	R1404E
192.125	0.001	217787	WORD_OFF	n/a	n/a	BANK	12	1	[0, 0, 0]	n/a	FR1	0	R1404E
192.126	0.0	217787	ENCODING_END	n/a	n/a	n/a	-999	1	[0, 0, 0]	n/a	FR1	0	R1404E
192.126	5.249	217787	DISTRACT_START	n/a	n/a	n/a	-999	1	[0, 0, 0]	n/a	FR1	0	R1404E
197.375	4.583	223032	PROB	4.583	n/a	n/a	-999	1	[3, 5, 7]	15	FR1	0	R1404E
201.958	7.216	227615	PROB	7.216	n/a	n/a	-999	1	[5, 2, 5]	12	FR1	0	R1404E
209.174	5.95	234831	PROB	5.95	n/a	n/a	-999	1	[8, 6, 5]	19	FR1	0	R1404E
215.124	0.0	240778	DISTRACT_END	n/a	n/a	n/a	-999	1	[0, 0, 0]	n/a	FR1	0	R1404E
215.124	2.316	240781	STOP	n/a	n/a	n/a	-999	1	[-999, -999, -999]	n/a	FR1	0	R1404E
217.44	3.046	243106	REC_START	n/a	n/a	n/a	-999	1	[0, 0, 0]	n/a	FR1	0	R1404E
220.486	0.599	246143	REC_WORD	0.599	n/a	BOX	2	1	[0, 0, 0]	n/a	FR1	0	R1404E
221.085	1.136	246742	REC_WORD	1.136	n/a	HAT	3	1	[0, 0, 0]	n/a	FR1	0	R1404E
222.221	1.787	247878	REC_WORD	1.787	n/a	CUBE	-999	1	[0, 0, 0]	n/a	FR1	0	R1404E
224.008	1.0	249665	REC_WORD	1.0	n/a	SPHINX	9	1	[0, 0, 0]	n/a	FR1	0	R1404E
225.008	4.901	250665	REC_WORD_VV	4.901	n/a	<>	-999	1	[0, 0, 0]	n/a	FR1	0	R1404E
229.909	12.563	255566	REC_WORD	12.563	n/a	POND	10	1	[0, 0, 0]	n/a	FR1	0	R1404E
242.472	5.227	268129	REC_WORD	5.227	n/a	SQUIRREL	-999	1	[0, 0, 0]	n/a	FR1	0	R1404E
247.699	3.574	273354	REC_END	n/a	n/a	n/a	-999	1	[0, 0, 0]	n/a	FR1	0	R1404E
251.273	10.351	276928	COUNTDOWN_START	n/a	n/a	n/a	-999	2	[0, 0, 0]	n/a	FR1	0	R1404E
261.624	0.0	287285	COUNTDOWN_END	n/a	n/a	n/a	-999	2	[0, 0, 0]	n/a	FR1	0	R1404E
261.624	2.049	287285	ENCODING_START	n/a	n/a	n/a	-999	2	[0, 0, 0]	n/a	FR1	0	R1404E
263.673	1.616	289328	WORD	n/a	wordpools/wordpool_long_EN.txt	RAFT	1	2	[0, 0, 0]	n/a	FR1	0	R1404E
265.289	0.767	290947	WORD_OFF	n/a	n/a	RAFT	1	2	[0, 0, 0]	n/a	FR1	0	R1404E
266.056	1.617	291720	WORD	n/a	wordpools/wordpool_long_EN.txt	HILL	2	2	[0, 0, 0]	n/a	FR1	0	R1404E
267.673	0.85	293325	WORD_OFF	n/a	n/a	HILL	2	2	[0, 0, 0]	n/a	FR1	0	R1404E
268.523	1.616	294186	WORD	n/a	wordpools/wordpool_long_EN.txt	BOOK	3	2	[0, 0, 0]	n/a	FR1	0	R1404E
270.139	0.784	295790	WORD_OFF	n/a	n/a	BOOK	3	2	[0, 0, 0]	n/a	FR1	0	R1404E
270.923	1.616	296578	WORD	n/a	wordpools/wordpool_long_EN.txt	STORM	4	2	[0, 0, 0]	n/a	FR1	0	R1404E
272.539	0.917	298197	WORD_OFF	n/a	n/a	STORM	4	2	[0, 0, 0]	n/a	FR1	0	R1404E
273.456	1.6	299116	WORD	n/a	wordpools/wordpool_long_EN.txt	VASE	5	2	[0, 0, 0]	n/a	FR1	0	R1404E
275.056	0.833	300721	WORD_OFF	n/a	n/a	VASE	5	2	[0, 0, 0]	n/a	FR1	0	R1404E
275.889	1.616	301553	WORD	n/a	wordpools/wordpool_long_EN.txt	ROD	6	2	[0, 0, 0]	n/a	FR1	0	R1404E
277.505	0.834	303157	WORD_OFF	n/a	n/a	ROD	6	2	[0, 0, 0]	n/a	FR1	0	R1404E
278.339	1.616	304003	WORD	n/a	wordpools/wordpool_long_EN.txt	MAT	7	2	[0, 0, 0]	n/a	FR1	0	R1404E
279.955	0.867	305608	WORD_OFF	n/a	n/a	MAT	7	2	[0, 0, 0]	n/a	FR1	0	R1404E
280.822	1.602	306483	WORD	n/a	wordpools/wordpool_long_EN.txt	CAVE	8	2	[0, 0, 0]	n/a	FR1	0	R1404E
282.424	0.815	308088	WORD_OFF	n/a	n/a	CAVE	8	2	[0, 0, 0]	n/a	FR1	0	R1404E
283.239	1.616	308891	WORD	n/a	wordpools/wordpool_long_EN.txt	SKATE	9	2	[0, 0, 0]	n/a	FR1	0	R1404E
284.855	0.817	310510	WORD_OFF	n/a	n/a	SKATE	9	2	[0, 0, 0]	n/a	FR1	0	R1404E
285.672	1.616	311327	WORD	n/a	wordpools/wordpool_long_EN.txt	CRANE	10	2	[0, 0, 0]	n/a	FR1	0	R1404E
287.288	0.8	312946	WORD_OFF	n/a	n/a	CRANE	10	2	[0, 0, 0]	n/a	FR1	0	R1404E
288.088	1.617	313748	WORD	n/a	wordpools/wordpool_long_EN.txt	NET	11	2	[0, 0, 0]	n/a	FR1	0	R1404E
289.705	0.883	315368	WORD_OFF	n/a	n/a	NET	11	2	[0, 0, 0]	n/a	FR1	0	R1404E
290.588	1.617	316243	WORD	n/a	wordpools/wordpool_long_EN.txt	YOLK	12	2	[0, 0, 0]	n/a	FR1	0	R1404E
292.205	0.001	317862	WORD_OFF	n/a	n/a	YOLK	12	2	[0, 0, 0]	n/a	FR1	0	R1404E
292.206	0.0	317862	ENCODING_END	n/a	n/a	n/a	-999	2	[0, 0, 0]	n/a	FR1	0	R1404E
292.206	0.0	317862	DISTRACT_START	n/a	n/a	n/a	-999	2	[0, 0, 0]	n/a	FR1	0	R1404E
292.205	0.001	317862	PROB	0.001	n/a	n/a	-999	2	[3, 2, 2]	7	FR1	0	R1404E
292.206	4.482	317863	START	n/a	n/a	n/a	-999	2	[-999, -999, -999]	n/a	FR1	0	R1404E
296.688	4.418	322345	PROB	4.418	n/a	n/a	-999	2	[2, 3, 4]	10	FR1	0	R1404E
301.106	4.831	326763	PROB	4.831	n/a	n/a	-999	2	[3, 8, 2]	13	FR1	0	R1404E
305.937	4.117	331594	PROB	4.117	n/a	n/a	-999	2	[3, 6, 6]	15	FR1	0	R1404E
310.054	4.434	335711	PROB	4.434	n/a	n/a	-999	2	[8, 7, 3]	19	FR1	0	R1404E
314.488	0.0	340145	STOP	n/a	n/a	n/a	-999	2	[-999, -999, -999]	n/a	FR1	0	R1404E
314.488	2.283	340153	DISTRACT_END	n/a	n/a	n/a	-999	2	[0, 0, 0]	n/a	FR1	0	R1404E
316.771	2.835	342422	REC_START	n/a	n/a	n/a	-999	2	[0, 0, 0]	n/a	FR1	0	R1404E
319.606	8.059	345263	REC_WORD	8.059	n/a	VASE	5	2	[0, 0, 0]	n/a	FR1	0	R1404E
327.665	3.829	353322	REC_WORD	3.829	n/a	HILL	2	2	[0, 0, 0]	n/a	FR1	0	R1404E
331.494	15.537	357151	REC_WORD	15.537	n/a	CRANE	10	2	[0, 0, 0]	n/a	FR1	0	R1404E
347.031	2.272	372685	REC_END	n/a	n/a	n/a	-999	2	[0, 0, 0]	n/a	FR1	0	R1404E
349.303	10.351	374961	COUNTDOWN_START	n/a	n/a	n/a	-999	3	[0, 0, 0]	n/a	FR1	0	R1404E
359.654	0.0	385318	COUNTDOWN_END	n/a	n/a	n/a	-999	3	[0, 0, 0]	n/a	FR1	0	R1404E
359.654	2.282	385318	ENCODING_START	n/a	n/a	n/a	-999	3	[0, 0, 0]	n/a	FR1	0	R1404E
361.936	1.617	387594	WORD	n/a	wordpools/wordpool_long_EN.txt	TEETH	1	3	[0, 0, 0]	n/a	FR1	0	R1404E
363.553	0.833	389213	WORD_OFF	n/a	n/a	TEETH	1	3	[0, 0, 0]	n/a	FR1	0	R1404E
364.386	1.6	390045	WORD	n/a	wordpools/wordpool_long_EN.txt	FLASK	2	3	[0, 0, 0]	n/a	FR1	0	R1404E
365.986	0.817	391650	WORD_OFF	n/a	n/a	FLASK	2	3	[0, 0, 0]	n/a	FR1	0	R1404E
366.803	1.616	392466	WORD	n/a	wordpools/wordpool_long_EN.txt	BAR	3	3	[0, 0, 0]	n/a	FR1	0	R1404E
368.419	0.817	394071	WORD_OFF	n/a	n/a	BAR	3	3	[0, 0, 0]	n/a	FR1	0	R1404E
369.236	1.6	394888	WORD	n/a	wordpools/wordpool_long_EN.txt	SLUG	4	3	[0, 0, 0]	n/a	FR1	0	R1404E
370.836	0.999	396493	WORD_OFF	n/a	n/a	SLUG	4	3	[0, 0, 0]	n/a	FR1	0	R1404E
371.835	1.601	397499	WORD	n/a	wordpools/wordpool_long_EN.txt	BLUSH	5	3	[0, 0, 0]	n/a	FR1	0	R1404E
373.436	0.8	399090	WORD_OFF	n/a	n/a	BLUSH	5	3	[0, 0, 0]	n/a	FR1	0	R1404E
374.236	1.616	399892	WORD	n/a	wordpools/wordpool_long_EN.txt	SKI	6	3	[0, 0, 0]	n/a	FR1	0	R1404E
375.852	0.784	401511	WORD_OFF	n/a	n/a	SKI	6	3	[0, 0, 0]	n/a	FR1	0	R1404E
376.636	1.616	402299	WORD	n/a	wordpools/wordpool_long_EN.txt	SHOE	7	3	[0, 0, 0]	n/a	FR1	0	R1404E
378.252	0.933	403918	WORD_OFF	n/a	n/a	SHOE	7	3	[0, 0, 0]	n/a	FR1	0	R1404E
379.185	1.617	404837	WORD	n/a	wordpools/wordpool_long_EN.txt	PORK	8	3	[0, 0, 0]	n/a	FR1	0	R1404E
380.802	0.866	406457	WORD_OFF	n/a	n/a	PORK	8	3	[0, 0, 0]	n/a	FR1	0	R1404E
381.668	1.601	407332	WORD	n/a	wordpools/wordpool_long_EN.txt	PLAID	9	3	[0, 0, 0]	n/a	FR1	0	R1404E
383.269	0.799	408922	WORD_OFF	n/a	n/a	PLAID	9	3	[0, 0, 0]	n/a	FR1	0	R1404E
384.068	1.617	409724	WORD	n/a	wordpools/wordpool_long_EN.txt	FORT	10	3	[0, 0, 0]	n/a	FR1	0	R1404E
385.685	0.817	411344	WORD_OFF	n/a	n/a	FORT	10	3	[0, 0, 0]	n/a	FR1	0	R1404E
386.502	1.616	412161	WORD	n/a	wordpools/wordpool_long_EN.txt	BEAST	11	3	[0, 0, 0]	n/a	FR1	0	R1404E
388.118	1.0	413780	WORD_OFF	n/a	n/a	BEAST	11	3	[0, 0, 0]	n/a	FR1	0	R1404E
389.118	1.617	414772	WORD	n/a	wordpools/wordpool_long_EN.txt	SHIP	12	3	[0, 0, 0]	n/a	FR1	0	R1404E
390.735	0.001	416391	WORD_OFF	n/a	n/a	SHIP	12	3	[0, 0, 0]	n/a	FR1	0	R1404E
390.736	0.0	416391	ENCODING_END	n/a	n/a	n/a	-999	3	[0, 0, 0]	n/a	FR1	0	R1404E
390.736	0.0	416391	DISTRACT_START	n/a	n/a	n/a	-999	3	[0, 0, 0]	n/a	FR1	0	R1404E
390.735	0.001	416392	PROB	0.001	n/a	n/a	-999	3	[3, 6, 8]	17	FR1	0	R1404E
390.736	7.182	416393	START	n/a	n/a	n/a	-999	3	[-999, -999, -999]	n/a	FR1	0	R1404E
397.918	3.4	423575	PROB	3.4	n/a	n/a	-999	3	[3, 7, 3]	13	FR1	0	R1404E
401.318	4.383	426975	PROB	4.383	n/a	n/a	-999	3	[8, 8, 8]	24	FR1	0	R1404E
405.701	3.267	431358	PROB	3.267	n/a	n/a	-999	3	[2, 5, 1]	8	FR1	0	R1404E
408.968	3.182	434625	PROB	3.182	n/a	n/a	-999	3	[7, 4, 1]	10	FR1	0	R1404E
412.15	0.0	437807	DISTRACT_END	n/a	n/a	n/a	-999	3	[0, 0, 0]	n/a	FR1	0	R1404E
412.15	2.317	437807	STOP	n/a	n/a	n/a	-999	3	[-999, -999, -999]	n/a	FR1	0	R1404E
414.467	1.594	440120	REC_START	n/a	n/a	n/a	-999	3	[0, 0, 0]	n/a	FR1	0	R1404E
416.061	1.317	441718	REC_WORD	1.317	n/a	SHIP	12	3	[0, 0, 0]	n/a	FR1	0	R1404E
417.378	1.563	443035	REC_WORD	1.563	n/a	PLAID	9	3	[0, 0, 0]	n/a	FR1	0	R1404E
418.941	0.97	444598	REC_WORD	0.97	n/a	PORK	8	3	[0, 0, 0]	n/a	FR1	0	R1404E
419.911	15.662	445568	REC_WORD	15.662	n/a	FORT	10	3	[0, 0, 0]	n/a	FR1	0	R1404E
435.573	9.142	461230	REC_WORD	9.142	n/a	VASE	-999	3	[0, 0, 0]	n/a	FR1	0	R1404E
444.715	2.152	470368	REC_END	n/a	n/a	n/a	-999	3	[0, 0, 0]	n/a	FR1	0	R1404E
446.867	10.35	472527	COUNTDOWN_START	n/a	n/a	n/a	-999	4	[0, 0, 0]	n/a	FR1	0	R1404E
457.217	0.0	482870	COUNTDOWN_END	n/a	n/a	n/a	-999	4	[0, 0, 0]	n/a	FR1	0	R1404E
457.217	1.916	482870	ENCODING_START	n/a	n/a	n/a	-999	4	[0, 0, 0]	n/a	FR1	0	R1404E
459.133	1.616	484795	WORD	n/a	wordpools/wordpool_long_EN.txt	SOCK	1	4	[0, 0, 0]	n/a	FR1	0	R1404E
460.749	0.933	486415	WORD_OFF	n/a	n/a	SOCK	1	4	[0, 0, 0]	n/a	FR1	0	R1404E
461.682	1.601	487348	WORD	n/a	wordpools/wordpool_long_EN.txt	LACE	2	4	[0, 0, 0]	n/a	FR1	0	R1404E
463.283	0.866	488938	WORD_OFF	n/a	n/a	LACE	2	4	[0, 0, 0]	n/a	FR1	0	R1404E
464.149	1.617	489814	WORD	n/a	wordpools/wordpool_long_EN.txt	FARM	3	4	[0, 0, 0]	n/a	FR1	0	R1404E
465.766	0.883	491418	WORD_OFF	n/a	n/a	FARM	3	4	[0, 0, 0]	n/a	FR1	0	R1404E
466.649	1.617	492308	WORD	n/a	wordpools/wordpool_long_EN.txt	STONE	4	4	[0, 0, 0]	n/a	FR1	0	R1404E
468.266	0.849	493928	WORD_OFF	n/a	n/a	STONE	4	4	[0, 0, 0]	n/a	FR1	0	R1404E
469.115	1.601	494774	WORD	n/a	wordpools/wordpool_long_EN.txt	TENT	5	4	[0, 0, 0]	n/a	FR1	0	R1404E
470.716	0.934	496378	WORD_OFF	n/a	n/a	TENT	5	4	[0, 0, 0]	n/a	FR1	0	R1404E
471.65	1.616	497312	WORD	n/a	wordpools/wordpool_long_EN.txt	ROAD	6	4	[0, 0, 0]	n/a	FR1	0	R1404E
473.266	0.983	498931	WORD_OFF	n/a	n/a	ROAD	6	4	[0, 0, 0]	n/a	FR1	0	R1404E
474.249	1.617	499909	WORD	n/a	wordpools/wordpool_long_EN.txt	WIFE	7	4	[0, 0, 0]	n/a	FR1	0	R1404E
475.866	1.0	501528	WORD_OFF	n/a	n/a	WIFE	7	4	[0, 0, 0]	n/a	FR1	0	R1404E
476.866	1.616	502520	WORD	n/a	wordpools/wordpool_long_EN.txt	WASP	8	4	[0, 0, 0]	n/a	FR1	0	R1404E
478.482	0.817	504139	WORD_OFF	n/a	n/a	WASP	8	4	[0, 0, 0]	n/a	FR1	0	R1404E
479.299	1.616	504956	WORD	n/a	wordpools/wordpool_long_EN.txt	SPOUSE	9	4	[0, 0, 0]	n/a	FR1	0	R1404E
480.915	0.767	506576	WORD_OFF	n/a	n/a	SPOUSE	9	4	[0, 0, 0]	n/a	FR1	0	R1404E
481.682	1.6	507334	WORD	n/a	wordpools/wordpool_long_EN.txt	CHALK	10	4	[0, 0, 0]	n/a	FR1	0	R1404E
483.282	0.783	508939	WORD_OFF	n/a	n/a	CHALK	10	4	[0, 0, 0]	n/a	FR1	0	R1404E
484.065	1.617	509727	WORD	n/a	wordpools/wordpool_long_EN.txt	MARSH	11	4	[0, 0, 0]	n/a	FR1	0	R1404E
485.682	0.999	511346	WORD_OFF	n/a	n/a	MARSH	11	4	[0, 0, 0]	n/a	FR1	0	R1404E
486.681	1.601	512338	WORD	n/a	wordpools/wordpool_long_EN.txt	POOL	12	4	[0, 0, 0]	n/a	FR1	0	R1404E
488.282	0.001	513939	PROB	0.001	n/a	n/a	-999	4	[6, 8, 4]	18	FR1	0	R1404E
488.283	0.0	513940	START	n/a	n/a	n/a	-999	4	[-999, -999, -999]	n/a	FR1	0	R1404E
488.282	0.001	513943	WORD_OFF	n/a	n/a	POOL	12	4	[0, 0, 0]	n/a	FR1	0	R1404E
488.283	0.0	513943	ENCODING_END	n/a	n/a	n/a	-999	4	[0, 0, 0]	n/a	FR1	0	R1404E
488.283	6.132	513943	DISTRACT_START	n/a	n/a	n/a	-999	4	[0, 0, 0]	n/a	FR1	0	R1404E
494.415	4.333	520072	PROB	4.333	n/a	n/a	-999	4	[3, 8, 6]	17	FR1	0	R1404E
498.748	3.233	524405	PROB	3.233	n/a	n/a	-999	4	[7, 5, 5]	17	FR1	0	R1404E
501.981	4.752	527638	PROB	4.752	n/a	n/a	-999	4	[8, 5, 3]	16	FR1	0	R1404E
506.733	9.464	532390	PROB	9.464	n/a	n/a	-999	4	[4, 8, 4]	16	FR1	0	R1404E
516.197	0.0	541850	DISTRACT_END	n/a	n/a	n/a	-999	4	[0, 0, 0]	n/a	FR1	0	R1404E
516.197	2.216	541854	STOP	n/a	n/a	n/a	-999	4	[-999, -999, -999]	n/a	FR1	0	R1404E
518.413	2.41	544075	REC_START	n/a	n/a	n/a	-999	4	[0, 0, 0]	n/a	FR1	0	R1404E
520.823	0.794	546480	REC_WORD	0.794	n/a	MARSH	11	4	[0, 0, 0]	n/a	FR1	0	R1404E
521.617	1.0	547274	REC_WORD	1.0	n/a	SPOUSE	9	4	[0, 0, 0]	n/a	FR1	0	R1404E
522.617	0.355	548274	REC_WORD_VV	0.355	n/a	<>	-999	4	[0, 0, 0]	n/a	FR1	0	R1404E
522.972	25.701	548629	REC_WORD	25.701	n/a	WIFE	7	4	[0, 0, 0]	n/a	FR1	0	R1404E
548.673	2.359	574338	REC_END	n/a	n/a	n/a	-999	4	[0, 0, 0]	n/a	FR1	0	R1404E
551.032	10.347	576687	COUNTDOWN_START	n/a	n/a	n/a	-999	5	[0, 0, 0]	n/a	FR1	0	R1404E
561.379	0.0	587044	COUNTDOWN_END	n/a	n/a	n/a	-999	5	[0, 0, 0]	n/a	FR1	0	R1404E
561.379	2.267	587044	ENCODING_START	n/a	n/a	n/a	-999	5	[0, 0, 0]	n/a	FR1	0	R1404E
563.646	1.617	589305	WORD	n/a	wordpools/wordpool_long_EN.txt	COD	1	5	[0, 0, 0]	n/a	FR1	0	R1404E
565.263	0.983	590925	WORD_OFF	n/a	n/a	COD	1	5	[0, 0, 0]	n/a	FR1	0	R1404E
566.246	1.616	591902	WORD	n/a	wordpools/wordpool_long_EN.txt	SINK	2	5	[0, 0, 0]	n/a	FR1	0	R1404E
567.862	0.767	593521	WORD_OFF	n/a	n/a	SINK	2	5	[0, 0, 0]	n/a	FR1	0	R1404E
568.629	1.617	594295	WORD	n/a	wordpools/wordpool_long_EN.txt	APE	3	5	[0, 0, 0]	n/a	FR1	0	R1404E
570.246	0.916	595899	WORD_OFF	n/a	n/a	APE	3	5	[0, 0, 0]	n/a	FR1	0	R1404E
571.162	1.6	596818	WORD	n/a	wordpools/wordpool_long_EN.txt	STRAW	4	5	[0, 0, 0]	n/a	FR1	0	R1404E
572.762	0.9	598423	WORD_OFF	n/a	n/a	STRAW	4	5	[0, 0, 0]	n/a	FR1	0	R1404E
573.662	1.617	599327	WORD	n/a	wordpools/wordpool_long_EN.txt	COOK	5	5	[0, 0, 0]	n/a	FR1	0	R1404E
575.279	0.866	600947	WORD_OFF	n/a	n/a	COOK	5	5	[0, 0, 0]	n/a	FR1	0	R1404E
576.145	1.6	601807	WORD	n/a	wordpools/wordpool_long_EN.txt	BUG	6	5	[0, 0, 0]	n/a	FR1	0	R1404E
577.745	0.934	603398	WORD_OFF	n/a	n/a	BUG	6	5	[0, 0, 0]	n/a	FR1	0	R1404E
578.679	1.6	604331	WORD	n/a	wordpools/wordpool_long_EN.txt	MAIL	7	5	[0, 0, 0]	n/a	FR1	0	R1404E
580.279	0.916	605936	WORD_OFF	n/a	n/a	MAIL	7	5	[0, 0, 0]	n/a	FR1	0	R1404E
581.195	1.617	606855	WORD	n/a	wordpools/wordpool_long_EN.txt	STOOL	8	5	[0, 0, 0]	n/a	FR1	0	R1404E
582.812	0.916	608474	WORD_OFF	n/a	n/a	STOOL	8	5	[0, 0, 0]	n/a	FR1	0	R1404E
583.728	1.6	609393	WORD	n/a	wordpools/wordpool_long_EN.txt	SKUNK	9	5	[0, 0, 0]	n/a	FR1	0	R1404E
585.328	0.917	610983	WORD_OFF	n/a	n/a	SKUNK	9	5	[0, 0, 0]	n/a	FR1	0	R1404E
586.245	1.6	611902	WORD	n/a	wordpools/wordpool_long_EN.txt	BAND	10	5	[0, 0, 0]	n/a	FR1	0	R1404E
587.845	0.967	613507	WORD_OFF	n/a	n/a	BAND	10	5	[0, 0, 0]	n/a	FR1	0	R1404E
588.812	1.616	614470	WORD	n/a	wordpools/wordpool_long_EN.txt	STICK	11	5	[0, 0, 0]	n/a	FR1	0	R1404E
590.428	0.85	616089	WORD_OFF	n/a	n/a	STICK	11	5	[0, 0, 0]	n/a	FR1	0	R1404E
591.278	1.618	616935	WORD	n/a	wordpools/wordpool_long_EN.txt	FLAME	12	5	[0, 0, 0]	n/a	FR1	0	R1404E
592.896	0.0	618554	START	n/a	n/a	n/a	-999	5	[-999, -999, -999]	n/a	FR1	0	R1404E
592.896	0.0	618554	PROB	0.0	n/a	n/a	-999	5	[3, 8, 5]	16	FR1	0	R1404E
592.895	0.001	618555	WORD_OFF	n/a	n/a	FLAME	12	5	[0, 0, 0]	n/a	FR1	0	R1404E
592.896	0.0	618555	ENCODING_END	n/a	n/a	n/a	-999	5	[0, 0, 0]	n/a	FR1	0	R1404E
592.896	7.366	618555	DISTRACT_START	n/a	n/a	n/a	-999	5	[0, 0, 0]	n/a	FR1	0	R1404E
600.262	9.116	625920	PROB	9.116	n/a	n/a	-999	5	[1, 4, 3]	8	FR1	0	R1404E
609.378	3.115	635036	PROB	3.115	n/a	n/a	-999	5	[7, 5, 5]	17	FR1	0	R1404E
612.493	3.767	638151	PROB	3.767	n/a	n/a	-999	5	[1, 4, 7]	12	FR1	0	R1404E
616.26	0.0	641918	STOP	n/a	n/a	n/a	-999	5	[-999, -999, -999]	n/a	FR1	0	R1404E
616.26	2.166	641925	DISTRACT_END	n/a	n/a	n/a	-999	5	[0, 0, 0]	n/a	FR1	0	R1404E
618.426	9.966	644092	REC_START	n/a	n/a	n/a	-999	5	[0, 0, 0]	n/a	FR1	0	R1404E
628.392	5.211	654050	REC_WORD	5.211	n/a	COD	1	5	[0, 0, 0]	n/a	FR1	0	R1404E
633.603	15.081	659261	REC_WORD	15.081	n/a	COOK	5	5	[0, 0, 0]	n/a	FR1	0	R1404E
648.684	2.776	674340	REC_END	n/a	n/a	n/a	-999	5	[0, 0, 0]	n/a	FR1	0	R1404E
651.46	10.35	677126	COUNTDOWN_START	n/a	n/a	n/a	-999	6	[0, 0, 0]	n/a	FR1	0	R1404E
661.81	0.0	687469	COUNTDOWN_END	n/a	n/a	n/a	-999	6	[0, 0, 0]	n/a	FR1	0	R1404E
661.81	2.149	687469	ENCODING_START	n/a	n/a	n/a	-999	6	[0, 0, 0]	n/a	FR1	0	R1404E
663.959	1.6	689614	WORD	n/a	wordpools/wordpool_long_EN.txt	LINT	1	6	[0, 0, 0]	n/a	FR1	0	R1404E
665.559	0.783	691219	WORD_OFF	n/a	n/a	LINT	1	6	[0, 0, 0]	n/a	FR1	0	R1404E
666.342	1.617	692006	WORD	n/a	wordpools/wordpool_long_EN.txt	SUN	2	6	[0, 0, 0]	n/a	FR1	0	R1404E
667.959	0.816	693611	WORD_OFF	n/a	n/a	SUN	2	6	[0, 0, 0]	n/a	FR1	0	R1404E
668.775	1.601	694428	WORD	n/a	wordpools/wordpool_long_EN.txt	MOON	3	6	[0, 0, 0]	n/a	FR1	0	R1404E
670.376	0.966	696033	WORD_OFF	n/a	n/a	MOON	3	6	[0, 0, 0]	n/a	FR1	0	R1404E
671.342	1.617	696996	WORD	n/a	wordpools/wordpool_long_EN.txt	STEM	4	6	[0, 0, 0]	n/a	FR1	0	R1404E
672.959	0.916	698615	WORD_OFF	n/a	n/a	STEM	4	6	[0, 0, 0]	n/a	FR1	0	R1404E
673.875	1.616	699534	WORD	n/a	wordpools/wordpool_long_EN.txt	MAZE	5	6	[0, 0, 0]	n/a	FR1	0	R1404E
675.491	1.001	701153	WORD_OFF	n/a	n/a	MAZE	5	6	[0, 0, 0]	n/a	FR1	0	R1404E
676.492	1.6	702145	WORD	n/a	wordpools/wordpool_long_EN.txt	MASK	6	6	[0, 0, 0]	n/a	FR1	0	R1404E
678.092	0.95	703750	WORD_OFF	n/a	n/a	MASK	6	6	[0, 0, 0]	n/a	FR1	0	R1404E
679.042	1.6	704698	WORD	n/a	wordpools/wordpool_long_EN.txt	PRINCE	7	6	[0, 0, 0]	n/a	FR1	0	R1404E
680.642	0.982	706303	WORD_OFF	n/a	n/a	PRINCE	7	6	[0, 0, 0]	n/a	FR1	0	R1404E
681.624	1.601	707280	WORD	n/a	wordpools/wordpool_long_EN.txt	WHEEL	8	6	[0, 0, 0]	n/a	FR1	0	R1404E
683.225	0.95	708885	WORD_OFF	n/a	n/a	WHEEL	8	6	[0, 0, 0]	n/a	FR1	0	R1404E
684.175	1.6	709833	WORD	n/a	wordpools/wordpool_long_EN.txt	SWORD	9	6	[0, 0, 0]	n/a	FR1	0	R1404E
685.775	0.999	711438	WORD_OFF	n/a	n/a	SWORD	9	6	[0, 0, 0]	n/a	FR1	0	R1404E
686.774	1.601	712430	WORD	n/a	wordpools/wordpool_long_EN.txt	SEA	10	6	[0, 0, 0]	n/a	FR1	0	R1404E
688.375	0.817	714035	WORD_OFF	n/a	n/a	SEA	10	6	[0, 0, 0]	n/a	FR1	0	R1404E
689.192	1.616	714852	WORD	n/a	wordpools/wordpool_long_EN.txt	TOOL	11	6	[0, 0, 0]	n/a	FR1	0	R1404E
690.808	0.784	716471	WORD_OFF	n/a	n/a	TOOL	11	6	[0, 0, 0]	n/a	FR1	0	R1404E
691.592	1.6	717244	WORD	n/a	wordpools/wordpool_long_EN.txt	CART	12	6	[0, 0, 0]	n/a	FR1	0	R1404E
693.192	0.001	718849	WORD_OFF	n/a	n/a	CART	12	6	[0, 0, 0]	n/a	FR1	0	R1404E
693.193	0.0	718849	ENCODING_END	n/a	n/a	n/a	-999	6	[0, 0, 0]	n/a	FR1	0	R1404E
693.193	0.0	718849	DISTRACT_START	n/a	n/a	n/a	-999	6	[0, 0, 0]	n/a	FR1	0	R1404E
693.192	0.001	718850	PROB	0.001	n/a	n/a	-999	6	[2, 1, 1]	4	FR1	0	R1404E
693.193	3.582	718851	START	n/a	n/a	n/a	-999	6	[-999, -999, -999]	n/a	FR1	0	R1404E
696.775	3.784	722433	PROB	3.784	n/a	n/a	-999	6	[1, 8, 8]	17	FR1	0	R1404E
700.559	3.165	726217	PROB	3.165	n/a	n/a	-999	6	[8, 2, 7]	17	FR1	0	R1404E
703.724	3.534	729382	PROB	3.534	n/a	n/a	-999	6	[2, 4, 3]	9	FR1	0	R1404E
707.258	3.182	732916	PROB	3.182	n/a	n/a	-999	6	[2, 1, 4]	7	FR1	0	R1404E
710.44	7.783	736098	PROB	7.783	n/a	n/a	-999	6	[7, 4, 5]	16	FR1	0	R1404E
718.223	0.0	743881	STOP	n/a	n/a	n/a	-999	6	[-999, -999, -999]	n/a	FR1	0	R1404E
718.223	2.117	743882	DISTRACT_END	n/a	n/a	n/a	-999	6	[0, 0, 0]	n/a	FR1	0	R1404E
720.34	2.126	746005	REC_START	n/a	n/a	n/a	-999	6	[0, 0, 0]	n/a	FR1	0	R1404E
722.466	1.269	748124	REC_WORD	1.269	n/a	SUN	2	6	[0, 0, 0]	n/a	FR1	0	R1404E
723.735	3.216	749393	REC_WORD	3.216	n/a	MOON	3	6	[0, 0, 0]	n/a	FR1	0	R1404E
726.951	6.769	752609	REC_WORD	6.769	n/a	LINT	1	6	[0, 0, 0]	n/a	FR1	0	R1404E
733.72	2.37	759378	REC_WORD	2.37	n/a	CART	12	6	[0, 0, 0]	n/a	FR1	0	R1404E
736.09	14.49	761748	REC_WORD	14.49	n/a	WHEEL	8	6	[0, 0, 0]	n/a	FR1	0	R1404E
750.58	4.676	776239	REC_END	n/a	n/a	n/a	-999	6	[0, 0, 0]	n/a	FR1	0	R1404E
755.256	10.351	780922	COUNTDOWN_START	n/a	n/a	n/a	-999	7	[0, 0, 0]	n/a	FR1	0	R1404E
765.607	0.0	791265	COUNTDOWN_END	n/a	n/a	n/a	-999	7	[0, 0, 0]	n/a	FR1	0	R1404E
765.607	2.282	791265	ENCODING_START	n/a	n/a	n/a	-999	7	[0, 0, 0]	n/a	FR1	0	R1404E
767.889	1.615	793540	WORD	n/a	wordpools/wordpool_long_EN.txt	TWIG	1	7	[0, 0, 0]	n/a	FR1	0	R1404E
769.504	0.785	795160	WORD_OFF	n/a	n/a	TWIG	1	7	[0, 0, 0]	n/a	FR1	0	R1404E
770.289	1.616	795947	WORD	n/a	wordpools/wordpool_long_EN.txt	BEEF	2	7	[0, 0, 0]	n/a	FR1	0	R1404E
771.905	0.766	797567	WORD_OFF	n/a	n/a	BEEF	2	7	[0, 0, 0]	n/a	FR1	0	R1404E
772.671	1.6	798325	WORD	n/a	wordpools/wordpool_long_EN.txt	MUG	3	7	[0, 0, 0]	n/a	FR1	0	R1404E
774.271	0.767	799930	WORD_OFF	n/a	n/a	MUG	3	7	[0, 0, 0]	n/a	FR1	0	R1404E
775.038	1.617	800703	WORD	n/a	wordpools/wordpool_long_EN.txt	QUEEN	4	7	[0, 0, 0]	n/a	FR1	0	R1404E
776.655	0.899	802308	WORD_OFF	n/a	n/a	QUEEN	4	7	[0, 0, 0]	n/a	FR1	0	R1404E
777.554	1.601	803212	WORD	n/a	wordpools/wordpool_long_EN.txt	LEAF	5	7	[0, 0, 0]	n/a	FR1	0	R1404E
779.155	0.95	804817	WORD_OFF	n/a	n/a	LEAF	5	7	[0, 0, 0]	n/a	FR1	0	R1404E
780.105	1.6	805765	WORD	n/a	wordpools/wordpool_long_EN.txt	CORD	6	7	[0, 0, 0]	n/a	FR1	0	R1404E
781.705	0.834	807370	WORD_OFF	n/a	n/a	CORD	6	7	[0, 0, 0]	n/a	FR1	0	R1404E
782.539	1.616	808202	WORD	n/a	wordpools/wordpool_long_EN.txt	OX	7	7	[0, 0, 0]	n/a	FR1	0	R1404E
784.155	0.967	809806	WORD_OFF	n/a	n/a	OX	7	7	[0, 0, 0]	n/a	FR1	0	R1404E
785.122	1.6	810784	WORD	n/a	wordpools/wordpool_long_EN.txt	BOMB	8	7	[0, 0, 0]	n/a	FR1	0	R1404E
786.722	0.916	812374	WORD_OFF	n/a	n/a	BOMB	8	7	[0, 0, 0]	n/a	FR1	0	R1404E
787.638	1.616	813293	WORD	n/a	wordpools/wordpool_long_EN.txt	WAVE	9	7	[0, 0, 0]	n/a	FR1	0	R1404E
789.254	0.967	814912	WORD_OFF	n/a	n/a	WAVE	9	7	[0, 0, 0]	n/a	FR1	0	R1404E
790.221	1.601	815875	WORD	n/a	wordpools/wordpool_long_EN.txt	RAKE	10	7	[0, 0, 0]	n/a	FR1	0	R1404E
791.822	0.85	817494	WORD_OFF	n/a	n/a	RAKE	10	7	[0, 0, 0]	n/a	FR1	0	R1404E
792.672	1.616	818326	WORD	n/a	wordpools/wordpool_long_EN.txt	BRICK	11	7	[0, 0, 0]	n/a	FR1	0	R1404E
794.288	0.816	819945	WORD_OFF	n/a	n/a	BRICK	11	7	[0, 0, 0]	n/a	FR1	0	R1404E
795.104	1.601	820762	WORD	n/a	wordpools/wordpool_long_EN.txt	CLAM	12	7	[0, 0, 0]	n/a	FR1	0	R1404E
796.705	0.001	822363	PROB	0.001	n/a	n/a	-999	7	[7, 3, 3]	13	FR1	0	R1404E
796.706	0.0	822364	START	n/a	n/a	n/a	-999	7	[-999, -999, -999]	n/a	FR1	0	R1404E
796.705	0.001	822367	WORD_OFF	n/a	n/a	CLAM	12	7	[0, 0, 0]	n/a	FR1	0	R1404E
796.706	0.0	822367	ENCODING_END	n/a	n/a	n/a	-999	7	[0, 0, 0]	n/a	FR1	0	R1404E
796.706	10.732	822367	DISTRACT_START	n/a	n/a	n/a	-999	7	[0, 0, 0]	n/a	FR1	0	R1404E
807.438	3.316	833096	PROB	3.316	n/a	n/a	-999	7	[1, 6, 6]	13	FR1	0	R1404E
810.754	5.434	836412	PROB	5.434	n/a	n/a	-999	7	[6, 3, 4]	13	FR1	0	R1404E
816.188	4.035	841846	PROB	4.035	n/a	n/a	-999	7	[7, 1, 3]	11	FR1	0	R1404E
820.223	0.0	845881	STOP	n/a	n/a	n/a	-999	7	[-999, -999, -999]	n/a	FR1	0	R1404E
820.223	2.231	845883	DISTRACT_END	n/a	n/a	n/a	-999	7	[0, 0, 0]	n/a	FR1	0	R1404E
822.454	6.063	848108	REC_START	n/a	n/a	n/a	-999	7	[0, 0, 0]	n/a	FR1	0	R1404E
828.517	24.191	854175	REC_WORD	24.191	n/a	RAKE	10	7	[0, 0, 0]	n/a	FR1	0	R1404E
852.708	3.611	878371	REC_END	n/a	n/a	n/a	-999	7	[0, 0, 0]	n/a	FR1	0	R1404E
856.319	10.351	881974	COUNTDOWN_START	n/a	n/a	n/a	-999	8	[0, 0, 0]	n/a	FR1	0	R1404E
866.67	0.0	892332	COUNTDOWN_END	n/a	n/a	n/a	-999	8	[0, 0, 0]	n/a	FR1	0	R1404E
866.67	1.982	892332	ENCODING_START	n/a	n/a	n/a	-999	8	[0, 0, 0]	n/a	FR1	0	R1404E
868.652	1.617	894316	WORD	n/a	wordpools/wordpool_long_EN.txt	GLASS	1	8	[0, 0, 0]	n/a	FR1	0	R1404E
870.269	0.85	895921	WORD_OFF	n/a	n/a	GLASS	1	8	[0, 0, 0]	n/a	FR1	0	R1404E
871.119	1.616	896781	WORD	n/a	wordpools/wordpool_long_EN.txt	CROWN	2	8	[0, 0, 0]	n/a	FR1	0	R1404E
872.735	0.816	898401	WORD_OFF	n/a	n/a	CROWN	2	8	[0, 0, 0]	n/a	FR1	0	R1404E
873.551	1.601	899218	WORD	n/a	wordpools/wordpool_long_EN.txt	SPONGE	3	8	[0, 0, 0]	n/a	FR1	0	R1404E
875.152	0.999	900808	WORD_OFF	n/a	n/a	SPONGE	3	8	[0, 0, 0]	n/a	FR1	0	R1404E
876.151	1.6	901814	WORD	n/a	wordpools/wordpool_long_EN.txt	STEAM	4	8	[0, 0, 0]	n/a	FR1	0	R1404E
877.751	0.967	903404	WORD_OFF	n/a	n/a	STEAM	4	8	[0, 0, 0]	n/a	FR1	0	R1404E
878.718	1.617	904382	WORD	n/a	wordpools/wordpool_long_EN.txt	JET	5	8	[0, 0, 0]	n/a	FR1	0	R1404E
880.335	0.949	906001	WORD_OFF	n/a	n/a	JET	5	8	[0, 0, 0]	n/a	FR1	0	R1404E
881.284	1.601	906949	WORD	n/a	wordpools/wordpool_long_EN.txt	SMILE	6	8	[0, 0, 0]	n/a	FR1	0	R1404E
882.885	0.833	908539	WORD_OFF	n/a	n/a	SMILE	6	8	[0, 0, 0]	n/a	FR1	0	R1404E
883.718	1.617	909371	WORD	n/a	wordpools/wordpool_long_EN.txt	EGG	7	8	[0, 0, 0]	n/a	FR1	0	R1404E
885.335	0.783	910990	WORD_OFF	n/a	n/a	EGG	7	8	[0, 0, 0]	n/a	FR1	0	R1404E
886.118	1.617	911778	WORD	n/a	wordpools/wordpool_long_EN.txt	FOOD	8	8	[0, 0, 0]	n/a	FR1	0	R1404E
887.735	0.783	913397	WORD_OFF	n/a	n/a	FOOD	8	8	[0, 0, 0]	n/a	FR1	0	R1404E
888.518	1.617	914185	WORD	n/a	wordpools/wordpool_long_EN.txt	TIE	9	8	[0, 0, 0]	n/a	FR1	0	R1404E
890.135	1.0	915790	WORD_OFF	n/a	n/a	TIE	9	8	[0, 0, 0]	n/a	FR1	0	R1404E
891.135	1.616	916796	WORD	n/a	wordpools/wordpool_long_EN.txt	DITCH	10	8	[0, 0, 0]	n/a	FR1	0	R1404E
892.751	0.883	918416	WORD_OFF	n/a	n/a	DITCH	10	8	[0, 0, 0]	n/a	FR1	0	R1404E
893.634	1.6	919291	WORD	n/a	wordpools/wordpool_long_EN.txt	BRUSH	11	8	[0, 0, 0]	n/a	FR1	0	R1404E
895.234	0.784	920896	WORD_OFF	n/a	n/a	BRUSH	11	8	[0, 0, 0]	n/a	FR1	0	R1404E
896.018	1.616	921683	WORD	n/a	wordpools/wordpool_long_EN.txt	MUD	12	8	[0, 0, 0]	n/a	FR1	0	R1404E
897.634	0.002	923288	WORD_OFF	n/a	n/a	MUD	12	8	[0, 0, 0]	n/a	FR1	0	R1404E
897.636	0.0	923288	ENCODING_END	n/a	n/a	n/a	-999	8	[0, 0, 0]	n/a	FR1	0	R1404E
897.635	0.001	923293	PROB	0.001	n/a	n/a	-999	8	[4, 3, 2]	9	FR1	0	R1404E
897.636	0.0	923294	START	n/a	n/a	n/a	-999	8	[-999, -999, -999]	n/a	FR1	0	R1404E
897.636	5.265	923303	DISTRACT_START	n/a	n/a	n/a	-999	8	[0, 0, 0]	n/a	FR1	0	R1404E
902.901	10.133	928559	PROB	10.133	n/a	n/a	-999	8	[7, 3, 6]	16	FR1	0	R1404E
913.034	6.382	938692	PROB	6.382	n/a	n/a	-999	8	[5, 4, 7]	16	FR1	0	R1404E
919.416	0.0	945068	DISTRACT_END	n/a	n/a	n/a	-999	8	[0, 0, 0]	n/a	FR1	0	R1404E
919.416	2.05	945074	STOP	n/a	n/a	n/a	-999	8	[-999, -999, -999]	n/a	FR1	0	R1404E
921.466	6.418	947119	REC_START	n/a	n/a	n/a	-999	8	[0, 0, 0]	n/a	FR1	0	R1404E
927.884	18.618	953542	REC_WORD	18.618	n/a	GLASS	1	8	[0, 0, 0]	n/a	FR1	0	R1404E
946.502	5.213	972160	REC_WORD	5.213	n/a	SEA	-999	8	[0, 0, 0]	n/a	FR1	0	R1404E
951.715	6.153	977381	REC_END	n/a	n/a	n/a	-999	8	[0, 0, 0]	n/a	FR1	0	R1404E
957.868	10.348	983523	COUNTDOWN_START	n/a	n/a	n/a	-999	9	[0, 0, 0]	n/a	FR1	0	R1404E
968.216	0.0	993880	COUNTDOWN_END	n/a	n/a	n/a	-999	9	[0, 0, 0]	n/a	FR1	0	R1404E
968.216	2.199	993880	ENCODING_START	n/a	n/a	n/a	-999	9	[0, 0, 0]	n/a	FR1	0	R1404E
970.415	1.617	996069	WORD	n/a	wordpools/wordpool_long_EN.txt	SLEEVE	1	9	[0, 0, 0]	n/a	FR1	0	R1404E
972.032	0.883	997688	WORD_OFF	n/a	n/a	SLEEVE	1	9	[0, 0, 0]	n/a	FR1	0	R1404E
972.915	1.6	998578	WORD	n/a	wordpools/wordpool_long_EN.txt	GRASS	2	9	[0, 0, 0]	n/a	FR1	0	R1404E
974.515	1.017	1000168	WORD_OFF	n/a	n/a	GRASS	2	9	[0, 0, 0]	n/a	FR1	0	R1404E
975.532	1.617	1001189	WORD	n/a	wordpools/wordpool_long_EN.txt	OWL	3	9	[0, 0, 0]	n/a	FR1	0	R1404E
977.149	0.799	1002808	WORD_OFF	n/a	n/a	OWL	3	9	[0, 0, 0]	n/a	FR1	0	R1404E
977.948	1.6	1003611	WORD	n/a	wordpools/wordpool_long_EN.txt	CONE	4	9	[0, 0, 0]	n/a	FR1	0	R1404E
979.548	0.8	1005201	WORD_OFF	n/a	n/a	CONE	4	9	[0, 0, 0]	n/a	FR1	0	R1404E
980.348	1.6	1006003	WORD	n/a	wordpools/wordpool_long_EN.txt	SHIELD	5	9	[0, 0, 0]	n/a	FR1	0	R1404E
981.948	0.783	1007608	WORD_OFF	n/a	n/a	SHIELD	5	9	[0, 0, 0]	n/a	FR1	0	R1404E
982.731	1.601	1008396	WORD	n/a	wordpools/wordpool_long_EN.txt	OAR	6	9	[0, 0, 0]	n/a	FR1	0	R1404E
984.332	0.966	1009986	WORD_OFF	n/a	n/a	OAR	6	9	[0, 0, 0]	n/a	FR1	0	R1404E
985.298	1.617	1010963	WORD	n/a	wordpools/wordpool_long_EN.txt	CARD	7	9	[0, 0, 0]	n/a	FR1	0	R1404E
986.915	0.917	1012568	WORD_OFF	n/a	n/a	CARD	7	9	[0, 0, 0]	n/a	FR1	0	R1404E
987.832	1.616	1013487	WORD	n/a	wordpools/wordpool_long_EN.txt	SLOPE	8	9	[0, 0, 0]	n/a	FR1	0	R1404E
989.448	0.767	1015106	WORD_OFF	n/a	n/a	SLOPE	8	9	[0, 0, 0]	n/a	FR1	0	R1404E
990.215	1.6	1015880	WORD	n/a	wordpools/wordpool_long_EN.txt	SAIL	9	9	[0, 0, 0]	n/a	FR1	0	R1404E
991.815	0.8	1017470	WORD_OFF	n/a	n/a	SAIL	9	9	[0, 0, 0]	n/a	FR1	0	R1404E
992.615	1.6	1018272	WORD	n/a	wordpools/wordpool_long_EN.txt	YARN	10	9	[0, 0, 0]	n/a	FR1	0	R1404E
994.215	0.915	1019877	WORD_OFF	n/a	n/a	YARN	10	9	[0, 0, 0]	n/a	FR1	0	R1404E
995.13	1.618	1020796	WORD	n/a	wordpools/wordpool_long_EN.txt	HORN	11	9	[0, 0, 0]	n/a	FR1	0	R1404E
996.748	0.766	1022400	WORD_OFF	n/a	n/a	HORN	11	9	[0, 0, 0]	n/a	FR1	0	R1404E
997.514	1.601	1023174	WORD	n/a	wordpools/wordpool_long_EN.txt	GOLD	12	9	[0, 0, 0]	n/a	FR1	0	R1404E
999.115	0.0	1024773	START	n/a	n/a	n/a	-999	9	[-999, -999, -999]	n/a	FR1	0	R1404E
999.115	0.0	1024773	PROB	0.0	n/a	n/a	-999	9	[6, 7, 1]	14	FR1	0	R1404E
999.114	0.001	1024778	WORD_OFF	n/a	n/a	GOLD	12	9	[0, 0, 0]	n/a	FR1	0	R1404E
999.115	0.0	1024778	ENCODING_END	n/a	n/a	n/a	-999	9	[0, 0, 0]	n/a	FR1	0	R1404E
999.115	5.383	1024778	DISTRACT_START	n/a	n/a	n/a	-999	9	[0, 0, 0]	n/a	FR1	0	R1404E
1004.498	3.733	1030156	PROB	3.733	n/a	n/a	-999	9	[3, 6, 1]	10	FR1	0	R1404E
1008.231	5.649	1033889	PROB	5.649	n/a	n/a	-999	9	[1, 7, 2]	10	FR1	0	R1404E
1013.88	7.199	1039538	PROB	7.199	n/a	n/a	-999	9	[7, 7, 8]	22	FR1	0	R1404E
1021.079	0.0	1046734	DISTRACT_END	n/a	n/a	n/a	-999	9	[0, 0, 0]	n/a	FR1	0	R1404E
1021.079	2.351	1046737	STOP	n/a	n/a	n/a	-999	9	[-999, -999, -999]	n/a	FR1	0	R1404E
1023.43	2.729	1049090	REC_START	n/a	n/a	n/a	-999	9	[0, 0, 0]	n/a	FR1	0	R1404E
1026.159	27.528	1051817	REC_WORD	27.528	n/a	OAR	6	9	[0, 0, 0]	n/a	FR1	0	R1404E
1053.687	3.359	1079338	REC_END	n/a	n/a	n/a	-999	9	[0, 0, 0]	n/a	FR1	0	R1404E
1057.046	10.349	1082708	COUNTDOWN_START	n/a	n/a	n/a	-999	10	[0, 0, 0]	n/a	FR1	0	R1404E
1067.395	0.0	1093051	COUNTDOWN_END	n/a	n/a	n/a	-999	10	[0, 0, 0]	n/a	FR1	0	R1404E
1067.395	2.05	1093051	ENCODING_START	n/a	n/a	n/a	-999	10	[0, 0, 0]	n/a	FR1	0	R1404E
1069.445	1.6	1095108	WORD	n/a	wordpools/wordpool_long_EN.txt	ARCH	1	10	[0, 0, 0]	n/a	FR1	0	R1404E
1071.045	0.9	1096698	WORD_OFF	n/a	n/a	ARCH	1	10	[0, 0, 0]	n/a	FR1	0	R1404E
1071.945	1.617	1097603	WORD	n/a	wordpools/wordpool_long_EN.txt	SPARK	2	10	[0, 0, 0]	n/a	FR1	0	R1404E
1073.562	0.983	1099222	WORD_OFF	n/a	n/a	SPARK	2	10	[0, 0, 0]	n/a	FR1	0	R1404E
1074.545	1.617	1100199	WORD	n/a	wordpools/wordpool_long_EN.txt	STREET	3	10	[0, 0, 0]	n/a	FR1	0	R1404E
1076.162	0.899	1101819	WORD_OFF	n/a	n/a	STREET	3	10	[0, 0, 0]	n/a	FR1	0	R1404E
1077.061	1.601	1102723	WORD	n/a	wordpools/wordpool_long_EN.txt	ICE	4	10	[0, 0, 0]	n/a	FR1	0	R1404E
1078.662	0.766	1104313	WORD_OFF	n/a	n/a	ICE	4	10	[0, 0, 0]	n/a	FR1	0	R1404E
1079.428	1.6	1105086	WORD	n/a	wordpools/wordpool_long_EN.txt	HAZE	5	10	[0, 0, 0]	n/a	FR1	0	R1404E
1081.028	0.967	1106691	WORD_OFF	n/a	n/a	HAZE	5	10	[0, 0, 0]	n/a	FR1	0	R1404E
1081.995	1.616	1107654	WORD	n/a	wordpools/wordpool_long_EN.txt	BRIDGE	6	10	[0, 0, 0]	n/a	FR1	0	R1404E
1083.611	0.95	1109273	WORD_OFF	n/a	n/a	BRIDGE	6	10	[0, 0, 0]	n/a	FR1	0	R1404E
1084.561	1.617	1110222	WORD	n/a	wordpools/wordpool_long_EN.txt	TAIL	7	10	[0, 0, 0]	n/a	FR1	0	R1404E
1086.178	0.95	1111841	WORD_OFF	n/a	n/a	TAIL	7	10	[0, 0, 0]	n/a	FR1	0	R1404E
1087.128	1.6	1112789	WORD	n/a	wordpools/wordpool_long_EN.txt	FRAME	8	10	[0, 0, 0]	n/a	FR1	0	R1404E
1088.728	0.883	1114379	WORD_OFF	n/a	n/a	FRAME	8	10	[0, 0, 0]	n/a	FR1	0	R1404E
1089.611	1.617	1115269	WORD	n/a	wordpools/wordpool_long_EN.txt	HUT	9	10	[0, 0, 0]	n/a	FR1	0	R1404E
1091.228	0.833	1116888	WORD_OFF	n/a	n/a	HUT	9	10	[0, 0, 0]	n/a	FR1	0	R1404E
1092.061	1.6	1117720	WORD	n/a	wordpools/wordpool_long_EN.txt	CHEST	10	10	[0, 0, 0]	n/a	FR1	0	R1404E
1093.661	0.884	1119325	WORD_OFF	n/a	n/a	CHEST	10	10	[0, 0, 0]	n/a	FR1	0	R1404E
1094.545	1.616	1120200	WORD	n/a	wordpools/wordpool_long_EN.txt	PIPE	11	10	[0, 0, 0]	n/a	FR1	0	R1404E
1096.161	0.883	1121819	WORD_OFF	n/a	n/a	PIPE	11	10	[0, 0, 0]	n/a	FR1	0	R1404E
1097.044	1.6	1122709	WORD	n/a	wordpools/wordpool_long_EN.txt	RIB	12	10	[0, 0, 0]	n/a	FR1	0	R1404E
1098.644	0.001	1124299	WORD_OFF	n/a	n/a	RIB	12	10	[0, 0, 0]	n/a	FR1	0	R1404E
1098.645	0.0	1124299	ENCODING_END	n/a	n/a	n/a	-999	10	[0, 0, 0]	n/a	FR1	0	R1404E
1098.645	0.0	1124299	DISTRACT_START	n/a	n/a	n/a	-999	10	[0, 0, 0]	n/a	FR1	0	R1404E
1098.645	0.0	1124304	START	n/a	n/a	n/a	-999	10	[-999, -999, -999]	n/a	FR1	0	R1404E
1098.645	9.932	1124304	PROB	9.932	n/a	n/a	-999	10	[5, 4, 2]	11	FR1	0	R1404E
1108.577	11.866	1134236	PROB	11.866	n/a	n/a	-999	10	[7, 8, 5]	20	FR1	0	R1404E
1120.443	0.0	1146102	STOP	n/a	n/a	n/a	-999	10	[-999, -999, -999]	n/a	FR1	0	R1404E
1120.443	2.083	1146109	DISTRACT_END	n/a	n/a	n/a	-999	10	[0, 0, 0]	n/a	FR1	0	R1404E
1122.526	4.767	1148188	REC_START	n/a	n/a	n/a	-999	10	[0, 0, 0]	n/a	FR1	0	R1404E
1127.293	0.67	1152952	REC_WORD	0.67	n/a	CHEST	10	10	[0, 0, 0]	n/a	FR1	0	R1404E
1127.963	1.005	1153622	REC_WORD	1.005	n/a	PIPE	11	10	[0, 0, 0]	n/a	FR1	0	R1404E
1128.968	11.583	1154627	REC_WORD	11.583	n/a	WIND	-999	10	[0, 0, 0]	n/a	FR1	0	R1404E
1140.551	1.0	1166210	REC_WORD	1.0	n/a	ARCH	1	10	[0, 0, 0]	n/a	FR1	0	R1404E
1141.551	11.22	1167210	REC_WORD_VV	11.22	n/a	<>	-999	10	[0, 0, 0]	n/a	FR1	0	R1404E
1152.771	2.488	1178436	REC_END	n/a	n/a	n/a	-999	10	[0, 0, 0]	n/a	FR1	0	R1404E
1155.259	10.35	1180916	COUNTDOWN_START	n/a	n/a	n/a	-999	11	[0, 0, 0]	n/a	FR1	0	R1404E
1165.609	0.001	1191274	COUNTDOWN_END	n/a	n/a	n/a	-999	11	[0, 0, 0]	n/a	FR1	0	R1404E
1165.61	2.015	1191274	ENCODING_START	n/a	n/a	n/a	-999	11	[0, 0, 0]	n/a	FR1	0	R1404E
1167.625	1.616	1193287	WORD	n/a	wordpools/wordpool_long_EN.txt	TOY	1	11	[0, 0, 0]	n/a	FR1	0	R1404E
1169.241	0.818	1194906	WORD_OFF	n/a	n/a	TOY	1	11	[0, 0, 0]	n/a	FR1	0	R1404E
1170.059	1.616	1195723	WORD	n/a	wordpools/wordpool_long_EN.txt	STAKE	2	11	[0, 0, 0]	n/a	FR1	0	R1404E
1171.675	0.917	1197328	WORD_OFF	n/a	n/a	STAKE	2	11	[0, 0, 0]	n/a	FR1	0	R1404E
1172.592	1.616	1198247	WORD	n/a	wordpools/wordpool_long_EN.txt	SNAKE	3	11	[0, 0, 0]	n/a	FR1	0	R1404E
1174.208	0.818	1199866	WORD_OFF	n/a	n/a	SNAKE	3	11	[0, 0, 0]	n/a	FR1	0	R1404E
1175.026	1.616	1200683	WORD	n/a	wordpools/wordpool_long_EN.txt	SLIME	4	11	[0, 0, 0]	n/a	FR1	0	R1404E
1176.642	0.783	1202302	WORD_OFF	n/a	n/a	SLIME	4	11	[0, 0, 0]	n/a	FR1	0	R1404E
1177.425	1.6	1203090	WORD	n/a	wordpools/wordpool_long_EN.txt	BOWL	5	11	[0, 0, 0]	n/a	FR1	0	R1404E
1179.025	0.917	1204680	WORD_OFF	n/a	n/a	BOWL	5	11	[0, 0, 0]	n/a	FR1	0	R1404E
1179.942	1.616	1205599	WORD	n/a	wordpools/wordpool_long_EN.txt	BENCH	6	11	[0, 0, 0]	n/a	FR1	0	R1404E
1181.558	0.784	1207219	WORD_OFF	n/a	n/a	BENCH	6	11	[0, 0, 0]	n/a	FR1	0	R1404E
1182.342	1.6	1208006	WORD	n/a	wordpools/wordpool_long_EN.txt	BREAD	7	11	[0, 0, 0]	n/a	FR1	0	R1404E
1183.942	0.799	1209596	WORD_OFF	n/a	n/a	BREAD	7	11	[0, 0, 0]	n/a	FR1	0	R1404E
1184.741	1.6	1210399	WORD	n/a	wordpools/wordpool_long_EN.txt	LOFT	8	11	[0, 0, 0]	n/a	FR1	0	R1404E
1186.341	0.984	1212004	WORD_OFF	n/a	n/a	LOFT	8	11	[0, 0, 0]	n/a	FR1	0	R1404E
1187.325	1.6	1212981	WORD	n/a	wordpools/wordpool_long_EN.txt	TART	9	11	[0, 0, 0]	n/a	FR1	0	R1404E
1188.925	0.933	1214586	WORD_OFF	n/a	n/a	TART	9	11	[0, 0, 0]	n/a	FR1	0	R1404E
1189.858	1.6	1215519	WORD	n/a	wordpools/wordpool_long_EN.txt	SHELL	10	11	[0, 0, 0]	n/a	FR1	0	R1404E
1191.458	0.866	1217124	WORD_OFF	n/a	n/a	SHELL	10	11	[0, 0, 0]	n/a	FR1	0	R1404E
1192.324	1.617	1217985	WORD	n/a	wordpools/wordpool_long_EN.txt	NAIL	11	11	[0, 0, 0]	n/a	FR1	0	R1404E
1193.941	0.833	1219604	WORD_OFF	n/a	n/a	NAIL	11	11	[0, 0, 0]	n/a	FR1	0	R1404E
1194.774	1.618	1220436	WORD	n/a	wordpools/wordpool_long_EN.txt	SEAL	12	11	[0, 0, 0]	n/a	FR1	0	R1404E
1196.392	0.0	1222051	START	n/a	n/a	n/a	-999	11	[-999, -999, -999]	n/a	FR1	0	R1404E
1196.392	0.0	1222051	PROB	0.0	n/a	n/a	-999	11	[5, 4, 1]	10	FR1	0	R1404E
1196.391	0.001	1222055	WORD_OFF	n/a	n/a	SEAL	12	11	[0, 0, 0]	n/a	FR1	0	R1404E
1196.392	0.0	1222055	ENCODING_END	n/a	n/a	n/a	-999	11	[0, 0, 0]	n/a	FR1	0	R1404E
1196.392	3.582	1222055	DISTRACT_START	n/a	n/a	n/a	-999	11	[0, 0, 0]	n/a	FR1	0	R1404E
1199.974	3.149	1225633	PROB	3.149	n/a	n/a	-999	11	[6, 3, 2]	11	FR1	0	R1404E
1203.123	2.885	1228782	PROB	2.885	n/a	n/a	-999	11	[5, 5, 1]	11	FR1	0	R1404E
1206.008	3.916	1231667	PROB	3.916	n/a	n/a	-999	11	[2, 8, 4]	14	FR1	0	R1404E
1209.924	3.183	1235583	PROB	3.183	n/a	n/a	-999	11	[1, 3, 4]	8	FR1	0	R1404E
1213.107	7.166	1238766	PROB	7.166	n/a	n/a	-999	11	[5, 2, 3]	10	FR1	0	R1404E
1220.273	0.0	1245932	STOP	n/a	n/a	n/a	-999	11	[-999, -999, -999]	n/a	FR1	0	R1404E
1220.273	2.083	1245936	DISTRACT_END	n/a	n/a	n/a	-999	11	[0, 0, 0]	n/a	FR1	0	R1404E
1222.356	0.809	1248015	REC_START	n/a	n/a	n/a	-999	11	[0, 0, 0]	n/a	FR1	0	R1404E
1223.165	0.667	1248824	REC_WORD	0.667	n/a	SLIME	4	11	[0, 0, 0]	n/a	FR1	0	R1404E
1223.832	1.189	1249491	REC_WORD	1.189	n/a	SNAKE	3	11	[0, 0, 0]	n/a	FR1	0	R1404E
1225.021	7.366	1250680	REC_WORD	7.366	n/a	SNAIL	-999	11	[0, 0, 0]	n/a	FR1	0	R1404E
1232.387	20.225	1258046	REC_WORD	20.225	n/a	STAKE	2	11	[0, 0, 0]	n/a	FR1	0	R1404E
1252.612	2.46	1278278	REC_END	n/a	n/a	n/a	-999	11	[0, 0, 0]	n/a	FR1	0	R1404E
1255.072	10.351	1280729	COUNTDOWN_START	n/a	n/a	n/a	-999	12	[0, 0, 0]	n/a	FR1	0	R1404E
1265.423	0.0	1291086	COUNTDOWN_END	n/a	n/a	n/a	-999	12	[0, 0, 0]	n/a	FR1	0	R1404E
1265.423	2.232	1291086	ENCODING_START	n/a	n/a	n/a	-999	12	[0, 0, 0]	n/a	FR1	0	R1404E
1267.655	1.617	1293318	WORD	n/a	wordpools/wordpool_long_EN.txt	EEL	1	12	[0, 0, 0]	n/a	FR1	0	R1404E
1269.272	0.8	1294938	WORD_OFF	n/a	n/a	EEL	1	12	[0, 0, 0]	n/a	FR1	0	R1404E
1270.072	1.6	1295725	WORD	n/a	wordpools/wordpool_long_EN.txt	LAMP	2	12	[0, 0, 0]	n/a	FR1	0	R1404E
1271.672	0.883	1297330	WORD_OFF	n/a	n/a	LAMP	2	12	[0, 0, 0]	n/a	FR1	0	R1404E
1272.555	1.617	1298220	WORD	n/a	wordpools/wordpool_long_EN.txt	ROPE	3	12	[0, 0, 0]	n/a	FR1	0	R1404E
1274.172	0.966	1299825	WORD_OFF	n/a	n/a	ROPE	3	12	[0, 0, 0]	n/a	FR1	0	R1404E
1275.138	1.616	1300802	WORD	n/a	wordpools/wordpool_long_EN.txt	MEAT	4	12	[0, 0, 0]	n/a	FR1	0	R1404E
1276.754	0.967	1302407	WORD_OFF	n/a	n/a	MEAT	4	12	[0, 0, 0]	n/a	FR1	0	R1404E
1277.721	1.601	1303384	WORD	n/a	wordpools/wordpool_long_EN.txt	TRENCH	5	12	[0, 0, 0]	n/a	FR1	0	R1404E
1279.322	0.766	1304974	WORD_OFF	n/a	n/a	TRENCH	5	12	[0, 0, 0]	n/a	FR1	0	R1404E
1280.088	1.6	1305747	WORD	n/a	wordpools/wordpool_long_EN.txt	RUG	6	12	[0, 0, 0]	n/a	FR1	0	R1404E
1281.688	0.933	1307352	WORD_OFF	n/a	n/a	RUG	6	12	[0, 0, 0]	n/a	FR1	0	R1404E
1282.621	1.6	1308286	WORD	n/a	wordpools/wordpool_long_EN.txt	CLAY	7	12	[0, 0, 0]	n/a	FR1	0	R1404E
1284.221	1.0	1309876	WORD_OFF	n/a	n/a	CLAY	7	12	[0, 0, 0]	n/a	FR1	0	R1404E
1285.221	1.6	1310883	WORD	n/a	wordpools/wordpool_long_EN.txt	THIEF	8	12	[0, 0, 0]	n/a	FR1	0	R1404E
1286.821	0.817	1312487	WORD_OFF	n/a	n/a	THIEF	8	12	[0, 0, 0]	n/a	FR1	0	R1404E
1287.638	1.616	1313304	WORD	n/a	wordpools/wordpool_long_EN.txt	VAULT	9	12	[0, 0, 0]	n/a	FR1	0	R1404E
1289.254	0.834	1314909	WORD_OFF	n/a	n/a	VAULT	9	12	[0, 0, 0]	n/a	FR1	0	R1404E
1290.088	1.616	1315740	WORD	n/a	wordpools/wordpool_long_EN.txt	SALT	10	12	[0, 0, 0]	n/a	FR1	0	R1404E
1291.704	1.0	1317360	WORD_OFF	n/a	n/a	SALT	10	12	[0, 0, 0]	n/a	FR1	0	R1404E
1292.704	1.617	1318366	WORD	n/a	wordpools/wordpool_long_EN.txt	SOAP	11	12	[0, 0, 0]	n/a	FR1	0	R1404E
1294.321	0.933	1319986	WORD_OFF	n/a	n/a	SOAP	11	12	[0, 0, 0]	n/a	FR1	0	R1404E
1295.254	1.617	1320919	WORD	n/a	wordpools/wordpool_long_EN.txt	INN	12	12	[0, 0, 0]	n/a	FR1	0	R1404E
1296.871	0.001	1322524	WORD_OFF	n/a	n/a	INN	12	12	[0, 0, 0]	n/a	FR1	0	R1404E
1296.872	0.0	1322531	START	n/a	n/a	n/a	-999	12	[-999, -999, -999]	n/a	FR1	0	R1404E
1296.872	0.0	1322531	PROB	0.0	n/a	n/a	-999	12	[7, 6, 4]	17	FR1	0	R1404E
1296.872	0.0	1322538	ENCODING_END	n/a	n/a	n/a	-999	12	[0, 0, 0]	n/a	FR1	0	R1404E
1296.872	7.916	1322538	DISTRACT_START	n/a	n/a	n/a	-999	12	[0, 0, 0]	n/a	FR1	0	R1404E
1304.788	5.633	1330447	PROB	5.633	n/a	n/a	-999	12	[2, 5, 2]	9	FR1	0	R1404E
1310.421	3.449	1336080	PROB	3.449	n/a	n/a	-999	12	[1, 8, 4]	13	FR1	0	R1404E
1313.87	7.083	1339529	PROB	7.083	n/a	n/a	-999	12	[8, 5, 2]	15	FR1	0	R1404E
1320.953	0.0	1346609	DISTRACT_END	n/a	n/a	n/a	-999	12	[0, 0, 0]	n/a	FR1	0	R1404E
1320.953	2.283	1346612	STOP	n/a	n/a	n/a	-999	12	[-999, -999, -999]	n/a	FR1	0	R1404E
1323.236	29.999	1348893	REC_START	n/a	n/a	n/a	-999	12	[0, 0, 0]	n/a	FR1	0	R1404E
1353.235	0.235	1378894	REC_WORD_VV	0.235	n/a	<>	-999	12	[0, 0, 0]	n/a	FR1	0	R1404E
1353.47	0.0	1379126	REC_END	n/a	n/a	n/a	-999	12	[0, 0, 0]	n/a	FR1	0	R1404E
