onset	duration	sample	trial_type	response_time	stim_file	item_name	serialpos	list	test	answer	experiment	session	subject
0.0	0.0	11942	INSTRUCT_START	n/a	n/a	n/a	-999	-999	[0, 0, 0]	n/a	FR1	1	R1200T
0.0	11.019	11942	INSTRUCT_END	n/a	n/a	n/a	-999	-999	[0, 0, 0]	n/a	FR1	1	R1200T
11.019	0.0	22960	SESS_START	n/a	n/a	n/a	-999	-999	[0, 0, 0]	n/a	FR1	1	R1200T
11.019	11.0	22960	MIC_TEST	n/a	n/a	n/a	-999	-999	[0, 0, 0]	n/a	FR1	1	R1200T
22.019	5.185	33959	PRACTICE_TRIAL	n/a	n/a	n/a	-999	-1	[0, 0, 0]	n/a	FR1	1	R1200T
27.204	10.428	39144	COUNTDOWN_START	n/a	n/a	n/a	-999	-1	[0, 0, 0]	n/a	FR1	1	R1200T
37.632	0.007	49571	COUNTDOWN_END	n/a	n/a	n/a	-999	-1	[0, 0, 0]	n/a	FR1	1	R1200T
37.639	1.617	49578	PRACTICE_ORIENT	n/a	n/a	n/a	-999	-1	[0, 0, 0]	n/a	FR1	1	R1200T
39.256	1.935	51195	PRACTICE_ORIENT_OFF	n/a	n/a	n/a	-999	-1	[0, 0, 0]	n/a	FR1	1	R1200T
41.191	1.616	53130	PRACTICE_WORD	n/a	n/a	CAMEL	1	-1	[0, 0, 0]	n/a	FR1	1	R1200T
42.807	0.783	54746	PRACTICE_WORD_OFF	n/a	n/a	CAMEL	-999	-1	[0, 0, 0]	n/a	FR1	1	R1200T
43.59	1.601	55529	PRACTICE_WORD	n/a	n/a	CHEST	2	-1	[0, 0, 0]	n/a	FR1	1	R1200T
45.191	0.784	57130	PRACTICE_WORD_OFF	n/a	n/a	CHEST	-999	-1	[0, 0, 0]	n/a	FR1	1	R1200T
45.975	1.616	57914	PRACTICE_WORD	n/a	n/a	IRON	3	-1	[0, 0, 0]	n/a	FR1	1	R1200T
47.591	0.8	59530	PRACTICE_WORD_OFF	n/a	n/a	IRON	-999	-1	[0, 0, 0]	n/a	FR1	1	R1200T
48.391	1.618	60330	PRACTICE_WORD	n/a	n/a	ATTIC	4	-1	[0, 0, 0]	n/a	FR1	1	R1200T
50.009	0.782	61948	PRACTICE_WORD_OFF	n/a	n/a	ATTIC	-999	-1	[0, 0, 0]	n/a	FR1	1	R1200T
50.791	1.617	62730	PRACTICE_WORD	n/a	n/a	RING	5	-1	[0, 0, 0]	n/a	FR1	1	R1200T
52.408	0.967	64346	PRACTICE_WORD_OFF	n/a	n/a	RING	-999	-1	[0, 0, 0]	n/a	FR1	1	R1200T
53.375	1.601	65313	PRACTICE_WORD	n/a	n/a	BEAM	6	-1	[0, 0, 0]	n/a	FR1	1	R1200T
54.976	0.883	66914	PRACTICE_WORD_OFF	n/a	n/a	BEAM	-999	-1	[0, 0, 0]	n/a	FR1	1	R1200T
55.859	1.617	67797	PRACTICE_WORD	n/a	n/a	TONGUE	7	-1	[0, 0, 0]	n/a	FR1	1	R1200T
57.476	0.817	69414	PRACTICE_WORD_OFF	n/a	n/a	TONGUE	-999	-1	[0, 0, 0]	n/a	FR1	1	R1200T
58.293	1.618	70231	PRACTICE_WORD	n/a	n/a	WAGON	8	-1	[0, 0, 0]	n/a	FR1	1	R1200T
59.911	0.799	71849	PRACTICE_WORD_OFF	n/a	n/a	WAGON	-999	-1	[0, 0, 0]	n/a	FR1	1	R1200T
60.71	1.617	72648	PRACTICE_WORD	n/a	n/a	RHINO	9	-1	[0, 0, 0]	n/a	FR1	1	R1200T
62.327	0.818	74265	PRACTICE_WORD_OFF	n/a	n/a	RHINO	-999	-1	[0, 0, 0]	n/a	FR1	1	R1200T
63.145	1.616	75083	PRACTICE_WORD	n/a	n/a	COTTON	10	-1	[0, 0, 0]	n/a	FR1	1	R1200T
64.761	0.866	76699	PRACTICE_WORD_OFF	n/a	n/a	COTTON	-999	-1	[0, 0, 0]	n/a	FR1	1	R1200T
65.627	1.617	77565	PRACTICE_WORD	n/a	n/a	WATCH	11	-1	[0, 0, 0]	n/a	FR1	1	R1200T
67.244	1.001	79182	PRACTICE_WORD_OFF	n/a	n/a	WATCH	-999	-1	[0, 0, 0]	n/a	FR1	1	R1200T
68.245	1.617	80183	PRACTICE_WORD	n/a	n/a	FLOOD	12	-1	[0, 0, 0]	n/a	FR1	1	R1200T
69.862	0.0	81799	PRACTICE_WORD_OFF	n/a	n/a	FLOOD	-999	-1	[0, 0, 0]	n/a	FR1	1	R1200T
69.862	0.0	81799	DISTRACT_START	n/a	n/a	n/a	-999	-1	[0, 0, 0]	n/a	FR1	1	R1200T
69.862	0.017	81799	START	n/a	n/a	n/a	-999	-1	[-999, -999, -999]	n/a	FR1	1	R1200T
69.879	13.186	81816	PROB	13.186	n/a	n/a	-999	-1	[9, 8, 6]	17	FR1	1	R1200T
83.065	2.583	95002	PROB	2.583	n/a	n/a	-999	-1	[6, 4, 6]	16	FR1	1	R1200T
85.648	3.268	97585	PROB	3.268	n/a	n/a	-999	-1	[1, 9, 7]	17	FR1	1	R1200T
88.916	6.067	100852	PROB	6.067	n/a	n/a	-999	-1	[4, 8, 3]	13	FR1	1	R1200T
94.983	0.017	106919	STOP	n/a	n/a	n/a	-999	-1	[-999, -999, -999]	n/a	FR1	1	R1200T
95.0	0.516	106936	DISTRACT_END	n/a	n/a	n/a	-999	-1	[0, 0, 0]	n/a	FR1	1	R1200T
95.516	0.519	107452	RETRIEVAL_ORIENT	n/a	n/a	n/a	-999	-1	[0, 0, 0]	n/a	FR1	1	R1200T
96.035	30.012	107971	PRACTICE_REC_START	n/a	n/a	n/a	-999	-1	[0, 0, 0]	n/a	FR1	1	R1200T
126.047	8.877	137981	PRACTICE_REC_END	n/a	n/a	n/a	-999	-1	[0, 0, 0]	n/a	FR1	1	R1200T
134.924	0.5	146858	TRIAL	n/a	n/a	n/a	-999	1	[0, 0, 0]	n/a	FR1	1	R1200T
135.424	10.428	147358	COUNTDOWN_START	n/a	n/a	n/a	-999	1	[0, 0, 0]	n/a	FR1	1	R1200T
145.852	0.007	157785	COUNTDOWN_END	n/a	n/a	n/a	-999	1	[0, 0, 0]	n/a	FR1	1	R1200T
145.859	1.617	157792	ORIENT	n/a	n/a	n/a	-999	1	[0, 0, 0]	n/a	FR1	1	R1200T
147.476	2.267	159409	ORIENT_OFF	n/a	n/a	n/a	-999	1	[0, 0, 0]	n/a	FR1	1	R1200T
149.743	1.617	161676	WORD	n/a	wordpools/wordpool_EN.txt	BANK	1	1	[0, 0, 0]	n/a	FR1	1	R1200T
151.36	0.784	163293	WORD_OFF	n/a	n/a	BANK	1	1	[0, 0, 0]	n/a	FR1	1	R1200T
152.144	1.616	164077	WORD	n/a	wordpools/wordpool_EN.txt	YARD	2	1	[0, 0, 0]	n/a	FR1	1	R1200T
153.76	0.85	165693	WORD_OFF	n/a	n/a	YARD	2	1	[0, 0, 0]	n/a	FR1	1	R1200T
154.61	1.617	166543	WORD	n/a	wordpools/wordpool_EN.txt	SUIT	3	1	[0, 0, 0]	n/a	FR1	1	R1200T
156.227	0.918	168159	WORD_OFF	n/a	n/a	SUIT	3	1	[0, 0, 0]	n/a	FR1	1	R1200T
157.145	1.616	169077	WORD	n/a	wordpools/wordpool_EN.txt	POND	4	1	[0, 0, 0]	n/a	FR1	1	R1200T
158.761	0.85	170693	WORD_OFF	n/a	n/a	POND	4	1	[0, 0, 0]	n/a	FR1	1	R1200T
159.611	1.617	171543	WORD	n/a	wordpools/wordpool_EN.txt	CONE	5	1	[0, 0, 0]	n/a	FR1	1	R1200T
161.228	0.885	173160	WORD_OFF	n/a	n/a	CONE	5	1	[0, 0, 0]	n/a	FR1	1	R1200T
162.113	1.616	174045	WORD	n/a	wordpools/wordpool_EN.txt	MUG	6	1	[0, 0, 0]	n/a	FR1	1	R1200T
163.729	0.85	175661	WORD_OFF	n/a	n/a	MUG	6	1	[0, 0, 0]	n/a	FR1	1	R1200T
164.579	1.618	176511	WORD	n/a	wordpools/wordpool_EN.txt	TOY	7	1	[0, 0, 0]	n/a	FR1	1	R1200T
166.197	0.9	178129	WORD_OFF	n/a	n/a	TOY	7	1	[0, 0, 0]	n/a	FR1	1	R1200T
167.097	1.616	179029	WORD	n/a	wordpools/wordpool_EN.txt	JAR	8	1	[0, 0, 0]	n/a	FR1	1	R1200T
168.713	0.95	180645	WORD_OFF	n/a	n/a	JAR	8	1	[0, 0, 0]	n/a	FR1	1	R1200T
169.663	1.617	181595	WORD	n/a	wordpools/wordpool_EN.txt	VAN	9	1	[0, 0, 0]	n/a	FR1	1	R1200T
171.28	0.868	183212	WORD_OFF	n/a	n/a	VAN	9	1	[0, 0, 0]	n/a	FR1	1	R1200T
172.148	1.616	184079	WORD	n/a	wordpools/wordpool_EN.txt	ROAD	10	1	[0, 0, 0]	n/a	FR1	1	R1200T
173.764	0.95	185695	WORD_OFF	n/a	n/a	ROAD	10	1	[0, 0, 0]	n/a	FR1	1	R1200T
174.714	1.617	186645	WORD	n/a	wordpools/wordpool_EN.txt	WEB	11	1	[0, 0, 0]	n/a	FR1	1	R1200T
176.331	0.801	188262	WORD_OFF	n/a	n/a	WEB	11	1	[0, 0, 0]	n/a	FR1	1	R1200T
177.132	1.616	189063	WORD	n/a	wordpools/wordpool_EN.txt	STAIR	12	1	[0, 0, 0]	n/a	FR1	1	R1200T
178.748	0.0	190679	WORD_OFF	n/a	n/a	STAIR	12	1	[0, 0, 0]	n/a	FR1	1	R1200T
178.748	0.001	190679	DISTRACT_START	n/a	n/a	n/a	-999	1	[0, 0, 0]	n/a	FR1	1	R1200T
178.749	0.016	190680	START	n/a	n/a	n/a	-999	1	[-999, -999, -999]	n/a	FR1	1	R1200T
178.765	7.768	190696	PROB	7.768	n/a	n/a	-999	1	[9, 3, 8]	6	FR1	1	R1200T
186.533	2.518	198464	PROB	2.518	n/a	n/a	-999	1	[1, 1, 1]	3	FR1	1	R1200T
189.051	2.533	200981	PROB	2.533	n/a	n/a	-999	1	[7, 3, 8]	18	FR1	1	R1200T
191.584	2.983	203514	PROB	2.983	n/a	n/a	-999	1	[7, 9, 1]	17	FR1	1	R1200T
194.567	4.591	206497	PROB	4.591	n/a	n/a	-999	1	[2, 5, 7]	14	FR1	1	R1200T
199.158	0.011	211088	STOP	n/a	n/a	n/a	-999	1	[-999, -999, -999]	n/a	FR1	1	R1200T
199.169	0.566	211099	DISTRACT_END	n/a	n/a	n/a	-999	1	[0, 0, 0]	n/a	FR1	1	R1200T
199.735	0.517	211665	RETRIEVAL_ORIENT	n/a	n/a	n/a	-999	1	[0, 0, 0]	n/a	FR1	1	R1200T
200.252	2.169	212182	REC_START	n/a	n/a	n/a	-999	1	[0, 0, 0]	n/a	FR1	1	R1200T
202.421	0.531	214351	REC_WORD	0.531	n/a	BANK	1	1	[0, 0, 0]	n/a	FR1	1	R1200T
202.952	0.525	214882	REC_WORD	0.525	n/a	TOY	7	1	[0, 0, 0]	n/a	FR1	1	R1200T
203.477	6.927	215407	REC_WORD	6.927	n/a	STAIR	12	1	[0, 0, 0]	n/a	FR1	1	R1200T
210.404	19.86	222333	REC_WORD	19.86	n/a	WEB	11	1	[0, 0, 0]	n/a	FR1	1	R1200T
230.264	4.427	242192	REC_END	n/a	n/a	n/a	-999	1	[0, 0, 0]	n/a	FR1	1	R1200T
234.691	0.5	246619	TRIAL	n/a	n/a	n/a	-999	2	[0, 0, 0]	n/a	FR1	1	R1200T
235.191	10.428	247119	COUNTDOWN_START	n/a	n/a	n/a	-999	2	[0, 0, 0]	n/a	FR1	1	R1200T
245.619	0.008	257546	COUNTDOWN_END	n/a	n/a	n/a	-999	2	[0, 0, 0]	n/a	FR1	1	R1200T
245.627	1.617	257554	ORIENT	n/a	n/a	n/a	-999	2	[0, 0, 0]	n/a	FR1	1	R1200T
247.244	1.951	259171	ORIENT_OFF	n/a	n/a	n/a	-999	2	[0, 0, 0]	n/a	FR1	1	R1200T
249.195	1.616	261122	WORD	n/a	wordpools/wordpool_EN.txt	WAND	1	2	[0, 0, 0]	n/a	FR1	1	R1200T
250.811	0.784	262738	WORD_OFF	n/a	n/a	WAND	1	2	[0, 0, 0]	n/a	FR1	1	R1200T
251.595	1.617	263522	WORD	n/a	wordpools/wordpool_EN.txt	CORN	2	2	[0, 0, 0]	n/a	FR1	1	R1200T
253.212	0.784	265139	WORD_OFF	n/a	n/a	CORN	2	2	[0, 0, 0]	n/a	FR1	1	R1200T
253.996	1.616	265923	WORD	n/a	wordpools/wordpool_EN.txt	CRANE	3	2	[0, 0, 0]	n/a	FR1	1	R1200T
255.612	0.967	267539	WORD_OFF	n/a	n/a	CRANE	3	2	[0, 0, 0]	n/a	FR1	1	R1200T
256.579	1.618	268506	WORD	n/a	wordpools/wordpool_EN.txt	COUCH	4	2	[0, 0, 0]	n/a	FR1	1	R1200T
258.197	0.8	270123	WORD_OFF	n/a	n/a	COUCH	4	2	[0, 0, 0]	n/a	FR1	1	R1200T
258.997	1.616	270923	WORD	n/a	wordpools/wordpool_EN.txt	FARM	5	2	[0, 0, 0]	n/a	FR1	1	R1200T
260.613	0.8	272539	WORD_OFF	n/a	n/a	FARM	5	2	[0, 0, 0]	n/a	FR1	1	R1200T
261.413	1.618	273339	WORD	n/a	wordpools/wordpool_EN.txt	SLEEVE	6	2	[0, 0, 0]	n/a	FR1	1	R1200T
263.031	0.816	274957	WORD_OFF	n/a	n/a	SLEEVE	6	2	[0, 0, 0]	n/a	FR1	1	R1200T
263.847	1.617	275773	WORD	n/a	wordpools/wordpool_EN.txt	EAR	7	2	[0, 0, 0]	n/a	FR1	1	R1200T
265.464	0.883	277390	WORD_OFF	n/a	n/a	EAR	7	2	[0, 0, 0]	n/a	FR1	1	R1200T
266.347	1.601	278273	WORD	n/a	wordpools/wordpool_EN.txt	CAVE	8	2	[0, 0, 0]	n/a	FR1	1	R1200T
267.948	0.951	279874	WORD_OFF	n/a	n/a	CAVE	8	2	[0, 0, 0]	n/a	FR1	1	R1200T
268.899	1.616	280825	WORD	n/a	wordpools/wordpool_EN.txt	SEAT	9	2	[0, 0, 0]	n/a	FR1	1	R1200T
270.515	1.016	282441	WORD_OFF	n/a	n/a	SEAT	9	2	[0, 0, 0]	n/a	FR1	1	R1200T
271.531	1.618	283457	WORD	n/a	wordpools/wordpool_EN.txt	GRAPE	10	2	[0, 0, 0]	n/a	FR1	1	R1200T
273.149	0.984	285075	WORD_OFF	n/a	n/a	GRAPE	10	2	[0, 0, 0]	n/a	FR1	1	R1200T
274.133	1.616	286059	WORD	n/a	wordpools/wordpool_EN.txt	JUICE	11	2	[0, 0, 0]	n/a	FR1	1	R1200T
275.749	0.917	287674	WORD_OFF	n/a	n/a	JUICE	11	2	[0, 0, 0]	n/a	FR1	1	R1200T
276.666	1.617	288591	WORD	n/a	wordpools/wordpool_EN.txt	LOCK	12	2	[0, 0, 0]	n/a	FR1	1	R1200T
278.283	0.0	290208	WORD_OFF	n/a	n/a	LOCK	12	2	[0, 0, 0]	n/a	FR1	1	R1200T
278.283	0.0	290208	DISTRACT_START	n/a	n/a	n/a	-999	2	[0, 0, 0]	n/a	FR1	1	R1200T
278.283	0.016	290208	START	n/a	n/a	n/a	-999	2	[-999, -999, -999]	n/a	FR1	1	R1200T
278.299	4.752	290224	PROB	4.752	n/a	n/a	-999	2	[3, 4, 1]	8	FR1	1	R1200T
283.051	2.766	294976	PROB	2.766	n/a	n/a	-999	2	[5, 6, 3]	14	FR1	1	R1200T
285.817	2.934	297742	PROB	2.934	n/a	n/a	-999	2	[7, 5, 1]	13	FR1	1	R1200T
288.751	1.817	300676	PROB	1.817	n/a	n/a	-999	2	[7, 3, 5]	15	FR1	1	R1200T
290.568	2.084	302493	PROB	2.084	n/a	n/a	-999	2	[5, 8, 2]	15	FR1	1	R1200T
292.652	4.001	304576	PROB	4.001	n/a	n/a	-999	2	[4, 5, 5]	14	FR1	1	R1200T
296.653	8.354	308577	PROB	8.354	n/a	n/a	-999	2	[2, 4, 2]	8	FR1	1	R1200T
305.007	0.015	316931	STOP	n/a	n/a	n/a	-999	2	[-999, -999, -999]	n/a	FR1	1	R1200T
305.022	0.582	316946	DISTRACT_END	n/a	n/a	n/a	-999	2	[0, 0, 0]	n/a	FR1	1	R1200T
305.604	0.519	317528	RETRIEVAL_ORIENT	n/a	n/a	n/a	-999	2	[0, 0, 0]	n/a	FR1	1	R1200T
306.123	16.181	318047	REC_START	n/a	n/a	n/a	-999	2	[0, 0, 0]	n/a	FR1	1	R1200T
322.304	0.369	334227	REC_WORD	0.369	n/a	GRAPE	10	2	[0, 0, 0]	n/a	FR1	1	R1200T
322.673	4.756	334596	REC_WORD	4.756	n/a	JUICE	11	2	[0, 0, 0]	n/a	FR1	1	R1200T
327.429	8.704	339351	REC_WORD	8.704	n/a	LOCK	12	2	[0, 0, 0]	n/a	FR1	1	R1200T
336.133	6.912	348055	REC_END	n/a	n/a	n/a	-999	2	[0, 0, 0]	n/a	FR1	1	R1200T
343.045	0.5	354967	TRIAL	n/a	n/a	n/a	-999	3	[0, 0, 0]	n/a	FR1	1	R1200T
343.545	10.428	355466	COUNTDOWN_START	n/a	n/a	n/a	-999	3	[0, 0, 0]	n/a	FR1	1	R1200T
353.973	0.008	365894	COUNTDOWN_END	n/a	n/a	n/a	-999	3	[0, 0, 0]	n/a	FR1	1	R1200T
353.981	1.616	365902	ORIENT	n/a	n/a	n/a	-999	3	[0, 0, 0]	n/a	FR1	1	R1200T
355.597	2.0	367518	ORIENT_OFF	n/a	n/a	n/a	-999	3	[0, 0, 0]	n/a	FR1	1	R1200T
357.597	1.617	369518	WORD	n/a	wordpools/wordpool_EN.txt	MOUSE	1	3	[0, 0, 0]	n/a	FR1	1	R1200T
359.214	0.935	371135	WORD_OFF	n/a	n/a	MOUSE	1	3	[0, 0, 0]	n/a	FR1	1	R1200T
360.149	1.616	372070	WORD	n/a	wordpools/wordpool_EN.txt	FENCE	2	3	[0, 0, 0]	n/a	FR1	1	R1200T
361.765	0.783	373685	WORD_OFF	n/a	n/a	FENCE	2	3	[0, 0, 0]	n/a	FR1	1	R1200T
362.548	1.618	374468	WORD	n/a	wordpools/wordpool_EN.txt	SHOE	3	3	[0, 0, 0]	n/a	FR1	1	R1200T
364.166	0.85	376086	WORD_OFF	n/a	n/a	SHOE	3	3	[0, 0, 0]	n/a	FR1	1	R1200T
365.016	1.616	376936	WORD	n/a	wordpools/wordpool_EN.txt	ROOF	4	3	[0, 0, 0]	n/a	FR1	1	R1200T
366.632	0.817	378552	WORD_OFF	n/a	n/a	ROOF	4	3	[0, 0, 0]	n/a	FR1	1	R1200T
367.449	1.601	379369	WORD	n/a	wordpools/wordpool_EN.txt	CART	5	3	[0, 0, 0]	n/a	FR1	1	R1200T
369.05	0.867	380970	WORD_OFF	n/a	n/a	CART	5	3	[0, 0, 0]	n/a	FR1	1	R1200T
369.917	1.616	381837	WORD	n/a	wordpools/wordpool_EN.txt	MILK	6	3	[0, 0, 0]	n/a	FR1	1	R1200T
371.533	0.867	383453	WORD_OFF	n/a	n/a	MILK	6	3	[0, 0, 0]	n/a	FR1	1	R1200T
372.4	1.618	384320	WORD	n/a	wordpools/wordpool_EN.txt	BLUSH	7	3	[0, 0, 0]	n/a	FR1	1	R1200T
374.018	0.816	385938	WORD_OFF	n/a	n/a	BLUSH	7	3	[0, 0, 0]	n/a	FR1	1	R1200T
374.834	1.617	386754	WORD	n/a	wordpools/wordpool_EN.txt	VASE	8	3	[0, 0, 0]	n/a	FR1	1	R1200T
376.451	0.966	388371	WORD_OFF	n/a	n/a	VASE	8	3	[0, 0, 0]	n/a	FR1	1	R1200T
377.417	1.602	389337	WORD	n/a	wordpools/wordpool_EN.txt	FLAME	9	3	[0, 0, 0]	n/a	FR1	1	R1200T
379.019	1.0	390938	WORD_OFF	n/a	n/a	FLAME	9	3	[0, 0, 0]	n/a	FR1	1	R1200T
380.019	1.616	391938	WORD	n/a	wordpools/wordpool_EN.txt	PIT	10	3	[0, 0, 0]	n/a	FR1	1	R1200T
381.635	0.867	393554	WORD_OFF	n/a	n/a	PIT	10	3	[0, 0, 0]	n/a	FR1	1	R1200T
382.502	1.618	394421	WORD	n/a	wordpools/wordpool_EN.txt	SIGN	11	3	[0, 0, 0]	n/a	FR1	1	R1200T
384.12	0.783	396039	WORD_OFF	n/a	n/a	SIGN	11	3	[0, 0, 0]	n/a	FR1	1	R1200T
384.903	1.616	396822	WORD	n/a	wordpools/wordpool_EN.txt	AXE	12	3	[0, 0, 0]	n/a	FR1	1	R1200T
386.519	0.0	398438	WORD_OFF	n/a	n/a	AXE	12	3	[0, 0, 0]	n/a	FR1	1	R1200T
386.519	0.0	398438	DISTRACT_START	n/a	n/a	n/a	-999	3	[0, 0, 0]	n/a	FR1	1	R1200T
386.519	0.017	398438	START	n/a	n/a	n/a	-999	3	[-999, -999, -999]	n/a	FR1	1	R1200T
386.536	5.101	398455	PROB	5.101	n/a	n/a	-999	3	[3, 1, 9]	13	FR1	1	R1200T
391.637	3.6	403556	PROB	3.6	n/a	n/a	-999	3	[2, 1, 2]	5	FR1	1	R1200T
395.237	5.585	407155	PROB	5.585	n/a	n/a	-999	3	[9, 8, 9]	16	FR1	1	R1200T
400.822	2.867	412740	PROB	2.867	n/a	n/a	-999	3	[5, 4, 9]	19	FR1	1	R1200T
403.689	6.326	415607	PROB	6.326	n/a	n/a	-999	3	[9, 7, 8]	17	FR1	1	R1200T
410.015	0.009	421933	STOP	n/a	n/a	n/a	-999	3	[-999, -999, -999]	n/a	FR1	1	R1200T
410.024	0.566	421942	DISTRACT_END	n/a	n/a	n/a	-999	3	[0, 0, 0]	n/a	FR1	1	R1200T
410.59	0.518	422508	RETRIEVAL_ORIENT	n/a	n/a	n/a	-999	3	[0, 0, 0]	n/a	FR1	1	R1200T
411.108	3.213	423026	REC_START	n/a	n/a	n/a	-999	3	[0, 0, 0]	n/a	FR1	1	R1200T
414.321	8.131	426238	REC_WORD	8.131	n/a	PIT	10	3	[0, 0, 0]	n/a	FR1	1	R1200T
422.452	1.0	434369	REC_WORD	1.0	n/a	SIGN	11	3	[0, 0, 0]	n/a	FR1	1	R1200T
423.452	17.666	435369	REC_WORD_VV	17.666	n/a	<>	-999	3	[0, 0, 0]	n/a	FR1	1	R1200T
441.118	8.162	453034	REC_END	n/a	n/a	n/a	-999	3	[0, 0, 0]	n/a	FR1	1	R1200T
449.28	0.5	461195	TRIAL	n/a	n/a	n/a	-999	4	[0, 0, 0]	n/a	FR1	1	R1200T
449.78	10.428	461695	COUNTDOWN_START	n/a	n/a	n/a	-999	4	[0, 0, 0]	n/a	FR1	1	R1200T
460.208	0.008	472123	COUNTDOWN_END	n/a	n/a	n/a	-999	4	[0, 0, 0]	n/a	FR1	1	R1200T
460.216	1.617	472131	ORIENT	n/a	n/a	n/a	-999	4	[0, 0, 0]	n/a	FR1	1	R1200T
461.833	2.334	473748	ORIENT_OFF	n/a	n/a	n/a	-999	4	[0, 0, 0]	n/a	FR1	1	R1200T
464.167	1.617	476081	WORD	n/a	wordpools/wordpool_EN.txt	DART	1	4	[0, 0, 0]	n/a	FR1	1	R1200T
465.784	0.9	477698	WORD_OFF	n/a	n/a	DART	1	4	[0, 0, 0]	n/a	FR1	1	R1200T
466.684	1.617	478598	WORD	n/a	wordpools/wordpool_EN.txt	NAIL	2	4	[0, 0, 0]	n/a	FR1	1	R1200T
468.301	0.884	480215	WORD_OFF	n/a	n/a	NAIL	2	4	[0, 0, 0]	n/a	FR1	1	R1200T
469.185	1.616	481099	WORD	n/a	wordpools/wordpool_EN.txt	TIE	3	4	[0, 0, 0]	n/a	FR1	1	R1200T
470.801	0.967	482715	WORD_OFF	n/a	n/a	TIE	3	4	[0, 0, 0]	n/a	FR1	1	R1200T
471.768	1.617	483682	WORD	n/a	wordpools/wordpool_EN.txt	BARN	4	4	[0, 0, 0]	n/a	FR1	1	R1200T
473.385	1.017	485299	WORD_OFF	n/a	n/a	BARN	4	4	[0, 0, 0]	n/a	FR1	1	R1200T
474.402	1.618	486316	WORD	n/a	wordpools/wordpool_EN.txt	BEAN	5	4	[0, 0, 0]	n/a	FR1	1	R1200T
476.02	0.883	487934	WORD_OFF	n/a	n/a	BEAN	5	4	[0, 0, 0]	n/a	FR1	1	R1200T
476.903	1.616	488817	WORD	n/a	wordpools/wordpool_EN.txt	THREAD	6	4	[0, 0, 0]	n/a	FR1	1	R1200T
478.519	0.8	490433	WORD_OFF	n/a	n/a	THREAD	6	4	[0, 0, 0]	n/a	FR1	1	R1200T
479.319	1.618	491233	WORD	n/a	wordpools/wordpool_EN.txt	SPOON	7	4	[0, 0, 0]	n/a	FR1	1	R1200T
480.937	0.916	492850	WORD_OFF	n/a	n/a	SPOON	7	4	[0, 0, 0]	n/a	FR1	1	R1200T
481.853	1.617	493766	WORD	n/a	wordpools/wordpool_EN.txt	CANE	8	4	[0, 0, 0]	n/a	FR1	1	R1200T
483.47	0.95	495383	WORD_OFF	n/a	n/a	CANE	8	4	[0, 0, 0]	n/a	FR1	1	R1200T
484.42	1.601	496333	WORD	n/a	wordpools/wordpool_EN.txt	STICK	9	4	[0, 0, 0]	n/a	FR1	1	R1200T
486.021	0.901	497934	WORD_OFF	n/a	n/a	STICK	9	4	[0, 0, 0]	n/a	FR1	1	R1200T
486.922	1.616	498835	WORD	n/a	wordpools/wordpool_EN.txt	SPRING	10	4	[0, 0, 0]	n/a	FR1	1	R1200T
488.538	0.783	500451	WORD_OFF	n/a	n/a	SPRING	10	4	[0, 0, 0]	n/a	FR1	1	R1200T
489.321	1.601	501234	WORD	n/a	wordpools/wordpool_EN.txt	MAT	11	4	[0, 0, 0]	n/a	FR1	1	R1200T
490.922	0.866	502835	WORD_OFF	n/a	n/a	MAT	11	4	[0, 0, 0]	n/a	FR1	1	R1200T
491.788	1.617	503701	WORD	n/a	wordpools/wordpool_EN.txt	CAKE	12	4	[0, 0, 0]	n/a	FR1	1	R1200T
493.405	0.0	505318	WORD_OFF	n/a	n/a	CAKE	12	4	[0, 0, 0]	n/a	FR1	1	R1200T
493.405	0.001	505318	DISTRACT_START	n/a	n/a	n/a	-999	4	[0, 0, 0]	n/a	FR1	1	R1200T
493.406	0.016	505319	START	n/a	n/a	n/a	-999	4	[-999, -999, -999]	n/a	FR1	1	R1200T
493.422	5.502	505335	PROB	5.502	n/a	n/a	-999	4	[6, 3, 6]	15	FR1	1	R1200T
498.924	2.349	510836	PROB	2.349	n/a	n/a	-999	4	[1, 8, 1]	10	FR1	1	R1200T
501.273	2.551	513185	PROB	2.551	n/a	n/a	-999	4	[8, 1, 4]	13	FR1	1	R1200T
503.824	5.484	515736	PROB	5.484	n/a	n/a	-999	4	[3, 8, 4]	16	FR1	1	R1200T
509.308	4.113	521220	PROB	4.113	n/a	n/a	-999	4	[3, 3, 8]	14	FR1	1	R1200T
513.421	0.021	525333	STOP	n/a	n/a	n/a	-999	4	[-999, -999, -999]	n/a	FR1	1	R1200T
513.442	0.651	525354	DISTRACT_END	n/a	n/a	n/a	-999	4	[0, 0, 0]	n/a	FR1	1	R1200T
514.093	0.517	526005	RETRIEVAL_ORIENT	n/a	n/a	n/a	-999	4	[0, 0, 0]	n/a	FR1	1	R1200T
514.61	2.459	526522	REC_START	n/a	n/a	n/a	-999	4	[0, 0, 0]	n/a	FR1	1	R1200T
517.069	0.947	528980	REC_WORD	0.947	n/a	DART	1	4	[0, 0, 0]	n/a	FR1	1	R1200T
518.016	1.157	529927	REC_WORD	1.157	n/a	NAIL	2	4	[0, 0, 0]	n/a	FR1	1	R1200T
519.173	1.083	531084	REC_WORD	1.083	n/a	TIE	3	4	[0, 0, 0]	n/a	FR1	1	R1200T
520.256	9.09	532167	REC_WORD	9.09	n/a	MAT	11	4	[0, 0, 0]	n/a	FR1	1	R1200T
529.346	0.876	541257	REC_WORD	0.876	n/a	MUD	-999	4	[0, 0, 0]	n/a	FR1	1	R1200T
530.222	6.161	542133	REC_WORD	6.161	n/a	BARN	4	4	[0, 0, 0]	n/a	FR1	1	R1200T
536.383	8.239	548293	REC_WORD	8.239	n/a	FARM	-999	4	[0, 0, 0]	n/a	FR1	1	R1200T
544.622	5.81	556532	REC_END	n/a	n/a	n/a	-999	4	[0, 0, 0]	n/a	FR1	1	R1200T
550.432	0.5	562341	TRIAL	n/a	n/a	n/a	-999	5	[0, 0, 0]	n/a	FR1	1	R1200T
550.932	10.428	562841	COUNTDOWN_START	n/a	n/a	n/a	-999	5	[0, 0, 0]	n/a	FR1	1	R1200T
561.36	0.008	573269	COUNTDOWN_END	n/a	n/a	n/a	-999	5	[0, 0, 0]	n/a	FR1	1	R1200T
561.368	1.617	573277	ORIENT	n/a	n/a	n/a	-999	5	[0, 0, 0]	n/a	FR1	1	R1200T
562.985	2.067	574894	ORIENT_OFF	n/a	n/a	n/a	-999	5	[0, 0, 0]	n/a	FR1	1	R1200T
565.052	1.616	576961	WORD	n/a	wordpools/wordpool_EN.txt	JET	1	5	[0, 0, 0]	n/a	FR1	1	R1200T
566.668	0.834	578576	WORD_OFF	n/a	n/a	JET	1	5	[0, 0, 0]	n/a	FR1	1	R1200T
567.502	1.601	579410	WORD	n/a	wordpools/wordpool_EN.txt	BATH	2	5	[0, 0, 0]	n/a	FR1	1	R1200T
569.103	0.817	581011	WORD_OFF	n/a	n/a	BATH	2	5	[0, 0, 0]	n/a	FR1	1	R1200T
569.92	1.616	581828	WORD	n/a	wordpools/wordpool_EN.txt	BEAK	3	5	[0, 0, 0]	n/a	FR1	1	R1200T
571.536	0.783	583444	WORD_OFF	n/a	n/a	BEAK	3	5	[0, 0, 0]	n/a	FR1	1	R1200T
572.319	1.602	584227	WORD	n/a	wordpools/wordpool_EN.txt	DRESS	4	5	[0, 0, 0]	n/a	FR1	1	R1200T
573.921	0.816	585829	WORD_OFF	n/a	n/a	DRESS	4	5	[0, 0, 0]	n/a	FR1	1	R1200T
574.737	1.617	586645	WORD	n/a	wordpools/wordpool_EN.txt	RICE	5	5	[0, 0, 0]	n/a	FR1	1	R1200T
576.354	0.966	588262	WORD_OFF	n/a	n/a	RICE	5	5	[0, 0, 0]	n/a	FR1	1	R1200T
577.32	1.602	589228	WORD	n/a	wordpools/wordpool_EN.txt	SMOKE	6	5	[0, 0, 0]	n/a	FR1	1	R1200T
578.922	0.916	590830	WORD_OFF	n/a	n/a	SMOKE	6	5	[0, 0, 0]	n/a	FR1	1	R1200T
579.838	1.617	591746	WORD	n/a	wordpools/wordpool_EN.txt	WAVE	7	5	[0, 0, 0]	n/a	FR1	1	R1200T
581.455	0.966	593363	WORD_OFF	n/a	n/a	WAVE	7	5	[0, 0, 0]	n/a	FR1	1	R1200T
582.421	1.601	594329	WORD	n/a	wordpools/wordpool_EN.txt	BOMB	8	5	[0, 0, 0]	n/a	FR1	1	R1200T
584.022	0.851	595929	WORD_OFF	n/a	n/a	BOMB	8	5	[0, 0, 0]	n/a	FR1	1	R1200T
584.873	1.616	596780	WORD	n/a	wordpools/wordpool_EN.txt	BOX	9	5	[0, 0, 0]	n/a	FR1	1	R1200T
586.489	0.833	598396	WORD_OFF	n/a	n/a	BOX	9	5	[0, 0, 0]	n/a	FR1	1	R1200T
587.322	1.618	599229	WORD	n/a	wordpools/wordpool_EN.txt	GRASS	10	5	[0, 0, 0]	n/a	FR1	1	R1200T
588.94	0.866	600847	WORD_OFF	n/a	n/a	GRASS	10	5	[0, 0, 0]	n/a	FR1	1	R1200T
589.806	1.617	601713	WORD	n/a	wordpools/wordpool_EN.txt	FOG	11	5	[0, 0, 0]	n/a	FR1	1	R1200T
591.423	0.917	603330	WORD_OFF	n/a	n/a	FOG	11	5	[0, 0, 0]	n/a	FR1	1	R1200T
592.34	1.618	604247	WORD	n/a	wordpools/wordpool_EN.txt	TEA	12	5	[0, 0, 0]	n/a	FR1	1	R1200T
593.958	0.0	605865	WORD_OFF	n/a	n/a	TEA	12	5	[0, 0, 0]	n/a	FR1	1	R1200T
593.958	0.0	605865	DISTRACT_START	n/a	n/a	n/a	-999	5	[0, 0, 0]	n/a	FR1	1	R1200T
593.958	0.016	605865	START	n/a	n/a	n/a	-999	5	[-999, -999, -999]	n/a	FR1	1	R1200T
593.974	3.65	605881	PROB	3.65	n/a	n/a	-999	5	[2, 5, 4]	11	FR1	1	R1200T
597.624	7.635	609531	PROB	7.635	n/a	n/a	-999	5	[7, 9, 8]	19	FR1	1	R1200T
605.259	2.534	617165	PROB	2.534	n/a	n/a	-999	5	[3, 7, 2]	12	FR1	1	R1200T
607.793	7.995	619699	PROB	7.995	n/a	n/a	-999	5	[5, 9, 7]	21	FR1	1	R1200T
615.788	0.006	627694	STOP	n/a	n/a	n/a	-999	5	[-999, -999, -999]	n/a	FR1	1	R1200T
615.794	0.517	627700	DISTRACT_END	n/a	n/a	n/a	-999	5	[0, 0, 0]	n/a	FR1	1	R1200T
616.311	0.518	628217	RETRIEVAL_ORIENT	n/a	n/a	n/a	-999	5	[0, 0, 0]	n/a	FR1	1	R1200T
616.829	12.163	628735	REC_START	n/a	n/a	n/a	-999	5	[0, 0, 0]	n/a	FR1	1	R1200T
628.992	1.103	640897	REC_WORD_VV	1.103	n/a	<>	-999	5	[0, 0, 0]	n/a	FR1	1	R1200T
630.095	0.747	642000	REC_WORD_VV	0.747	n/a	<>	-999	5	[0, 0, 0]	n/a	FR1	1	R1200T
630.842	1.2	642747	REC_WORD	1.2	n/a	TEA	12	5	[0, 0, 0]	n/a	FR1	1	R1200T
632.042	0.862	643947	REC_WORD_VV	0.862	n/a	<>	-999	5	[0, 0, 0]	n/a	FR1	1	R1200T
632.904	1.47	644809	REC_WORD_VV	1.47	n/a	<>	-999	5	[0, 0, 0]	n/a	FR1	1	R1200T
634.374	10.034	646279	REC_WORD_VV	10.034	n/a	<>	-999	5	[0, 0, 0]	n/a	FR1	1	R1200T
644.408	2.432	656312	REC_WORD	2.432	n/a	WAVE	7	5	[0, 0, 0]	n/a	FR1	1	R1200T
646.84	9.212	658744	REC_END	n/a	n/a	n/a	-999	5	[0, 0, 0]	n/a	FR1	1	R1200T
656.052	0.5	667955	TRIAL	n/a	n/a	n/a	-999	6	[0, 0, 0]	n/a	FR1	1	R1200T
656.552	10.428	668455	COUNTDOWN_START	n/a	n/a	n/a	-999	6	[0, 0, 0]	n/a	FR1	1	R1200T
666.98	0.008	678883	COUNTDOWN_END	n/a	n/a	n/a	-999	6	[0, 0, 0]	n/a	FR1	1	R1200T
666.988	1.616	678891	ORIENT	n/a	n/a	n/a	-999	6	[0, 0, 0]	n/a	FR1	1	R1200T
668.604	2.167	680507	ORIENT_OFF	n/a	n/a	n/a	-999	6	[0, 0, 0]	n/a	FR1	1	R1200T
670.771	1.617	682673	WORD	n/a	wordpools/wordpool_EN.txt	SUN	1	6	[0, 0, 0]	n/a	FR1	1	R1200T
672.388	0.867	684290	WORD_OFF	n/a	n/a	SUN	1	6	[0, 0, 0]	n/a	FR1	1	R1200T
673.255	1.617	685157	WORD	n/a	wordpools/wordpool_EN.txt	WHALE	2	6	[0, 0, 0]	n/a	FR1	1	R1200T
674.872	0.916	686774	WORD_OFF	n/a	n/a	WHALE	2	6	[0, 0, 0]	n/a	FR1	1	R1200T
675.788	1.617	687690	WORD	n/a	wordpools/wordpool_EN.txt	FRUIT	3	6	[0, 0, 0]	n/a	FR1	1	R1200T
677.405	0.817	689307	WORD_OFF	n/a	n/a	FRUIT	3	6	[0, 0, 0]	n/a	FR1	1	R1200T
678.222	1.617	690124	WORD	n/a	wordpools/wordpool_EN.txt	PEAR	4	6	[0, 0, 0]	n/a	FR1	1	R1200T
679.839	1.0	691741	WORD_OFF	n/a	n/a	PEAR	4	6	[0, 0, 0]	n/a	FR1	1	R1200T
680.839	1.617	692741	WORD	n/a	wordpools/wordpool_EN.txt	NEST	5	6	[0, 0, 0]	n/a	FR1	1	R1200T
682.456	0.884	694358	WORD_OFF	n/a	n/a	NEST	5	6	[0, 0, 0]	n/a	FR1	1	R1200T
683.34	1.618	695242	WORD	n/a	wordpools/wordpool_EN.txt	BLOOM	6	6	[0, 0, 0]	n/a	FR1	1	R1200T
684.958	0.832	696860	WORD_OFF	n/a	n/a	BLOOM	6	6	[0, 0, 0]	n/a	FR1	1	R1200T
685.79	1.617	697692	WORD	n/a	wordpools/wordpool_EN.txt	SNAKE	7	6	[0, 0, 0]	n/a	FR1	1	R1200T
687.407	1.017	699308	WORD_OFF	n/a	n/a	SNAKE	7	6	[0, 0, 0]	n/a	FR1	1	R1200T
688.424	1.618	700325	WORD	n/a	wordpools/wordpool_EN.txt	WING	8	6	[0, 0, 0]	n/a	FR1	1	R1200T
690.042	0.984	701943	WORD_OFF	n/a	n/a	WING	8	6	[0, 0, 0]	n/a	FR1	1	R1200T
691.026	1.615	702927	WORD	n/a	wordpools/wordpool_EN.txt	GEESE	9	6	[0, 0, 0]	n/a	FR1	1	R1200T
692.641	1.001	704542	WORD_OFF	n/a	n/a	GEESE	9	6	[0, 0, 0]	n/a	FR1	1	R1200T
693.642	1.617	705543	WORD	n/a	wordpools/wordpool_EN.txt	BALL	10	6	[0, 0, 0]	n/a	FR1	1	R1200T
695.259	0.901	707160	WORD_OFF	n/a	n/a	BALL	10	6	[0, 0, 0]	n/a	FR1	1	R1200T
696.16	1.616	708061	WORD	n/a	wordpools/wordpool_EN.txt	SHEEP	11	6	[0, 0, 0]	n/a	FR1	1	R1200T
697.776	0.966	709677	WORD_OFF	n/a	n/a	SHEEP	11	6	[0, 0, 0]	n/a	FR1	1	R1200T
698.742	1.618	710643	WORD	n/a	wordpools/wordpool_EN.txt	LAWN	12	6	[0, 0, 0]	n/a	FR1	1	R1200T
700.36	0.0	712261	DISTRACT_START	n/a	n/a	n/a	-999	6	[0, 0, 0]	n/a	FR1	1	R1200T
700.36	0.0	712261	WORD_OFF	n/a	n/a	LAWN	12	6	[0, 0, 0]	n/a	FR1	1	R1200T
700.36	0.016	712261	START	n/a	n/a	n/a	-999	6	[-999, -999, -999]	n/a	FR1	1	R1200T
700.376	5.685	712277	PROB	5.685	n/a	n/a	-999	6	[7, 6, 2]	15	FR1	1	R1200T
706.061	2.984	717961	PROB	2.984	n/a	n/a	-999	6	[1, 1, 7]	9	FR1	1	R1200T
709.045	8.869	720945	PROB	8.869	n/a	n/a	-999	6	[1, 7, 6]	14	FR1	1	R1200T
717.914	6.675	729814	PROB	6.675	n/a	n/a	-999	6	[6, 5, 7]	21	FR1	1	R1200T
724.589	0.008	736488	STOP	n/a	n/a	n/a	-999	6	[-999, -999, -999]	n/a	FR1	1	R1200T
724.597	0.65	736496	DISTRACT_END	n/a	n/a	n/a	-999	6	[0, 0, 0]	n/a	FR1	1	R1200T
725.247	0.518	737146	RETRIEVAL_ORIENT	n/a	n/a	n/a	-999	6	[0, 0, 0]	n/a	FR1	1	R1200T
725.765	1.444	737664	REC_START	n/a	n/a	n/a	-999	6	[0, 0, 0]	n/a	FR1	1	R1200T
727.209	0.609	739108	REC_WORD	0.609	n/a	SUN	1	6	[0, 0, 0]	n/a	FR1	1	R1200T
727.818	1.078	739717	REC_WORD	1.078	n/a	SHEEP	11	6	[0, 0, 0]	n/a	FR1	1	R1200T
728.896	12.956	740795	REC_WORD	12.956	n/a	LAKE	-999	6	[0, 0, 0]	n/a	FR1	1	R1200T
741.852	13.922	753750	REC_WORD	13.922	n/a	LAWN	12	6	[0, 0, 0]	n/a	FR1	1	R1200T
755.774	7.564	767671	REC_END	n/a	n/a	n/a	-999	6	[0, 0, 0]	n/a	FR1	1	R1200T
763.338	0.5	775235	TRIAL	n/a	n/a	n/a	-999	7	[0, 0, 0]	n/a	FR1	1	R1200T
763.838	10.428	775735	COUNTDOWN_START	n/a	n/a	n/a	-999	7	[0, 0, 0]	n/a	FR1	1	R1200T
774.266	0.007	786162	COUNTDOWN_END	n/a	n/a	n/a	-999	7	[0, 0, 0]	n/a	FR1	1	R1200T
774.273	1.601	786169	ORIENT	n/a	n/a	n/a	-999	7	[0, 0, 0]	n/a	FR1	1	R1200T
775.874	2.017	787770	ORIENT_OFF	n/a	n/a	n/a	-999	7	[0, 0, 0]	n/a	FR1	1	R1200T
777.891	1.616	789787	WORD	n/a	wordpools/wordpool_EN.txt	LAMB	1	7	[0, 0, 0]	n/a	FR1	1	R1200T
779.507	0.784	791403	WORD_OFF	n/a	n/a	LAMB	1	7	[0, 0, 0]	n/a	FR1	1	R1200T
780.291	1.618	792187	WORD	n/a	wordpools/wordpool_EN.txt	FORK	2	7	[0, 0, 0]	n/a	FR1	1	R1200T
781.909	0.832	793805	WORD_OFF	n/a	n/a	FORK	2	7	[0, 0, 0]	n/a	FR1	1	R1200T
782.741	1.617	794637	WORD	n/a	wordpools/wordpool_EN.txt	SPEAR	3	7	[0, 0, 0]	n/a	FR1	1	R1200T
784.358	0.884	796254	WORD_OFF	n/a	n/a	SPEAR	3	7	[0, 0, 0]	n/a	FR1	1	R1200T
785.242	1.617	797138	WORD	n/a	wordpools/wordpool_EN.txt	BAT	4	7	[0, 0, 0]	n/a	FR1	1	R1200T
786.859	0.966	798755	WORD_OFF	n/a	n/a	BAT	4	7	[0, 0, 0]	n/a	FR1	1	R1200T
787.825	1.617	799721	WORD	n/a	wordpools/wordpool_EN.txt	CROW	5	7	[0, 0, 0]	n/a	FR1	1	R1200T
789.442	0.867	801337	WORD_OFF	n/a	n/a	CROW	5	7	[0, 0, 0]	n/a	FR1	1	R1200T
790.309	1.618	802204	WORD	n/a	wordpools/wordpool_EN.txt	FAN	6	7	[0, 0, 0]	n/a	FR1	1	R1200T
791.927	0.816	803822	WORD_OFF	n/a	n/a	FAN	6	7	[0, 0, 0]	n/a	FR1	1	R1200T
792.743	1.617	804638	WORD	n/a	wordpools/wordpool_EN.txt	BOOT	7	7	[0, 0, 0]	n/a	FR1	1	R1200T
794.36	0.834	806255	WORD_OFF	n/a	n/a	BOOT	7	7	[0, 0, 0]	n/a	FR1	1	R1200T
795.194	1.616	807089	WORD	n/a	wordpools/wordpool_EN.txt	DOLL	8	7	[0, 0, 0]	n/a	FR1	1	R1200T
796.81	0.884	808705	WORD_OFF	n/a	n/a	DOLL	8	7	[0, 0, 0]	n/a	FR1	1	R1200T
797.694	1.617	809589	WORD	n/a	wordpools/wordpool_EN.txt	FLUTE	9	7	[0, 0, 0]	n/a	FR1	1	R1200T
799.311	0.784	811206	WORD_OFF	n/a	n/a	FLUTE	9	7	[0, 0, 0]	n/a	FR1	1	R1200T
800.095	1.616	811990	WORD	n/a	wordpools/wordpool_EN.txt	GOAT	10	7	[0, 0, 0]	n/a	FR1	1	R1200T
801.711	0.9	813606	WORD_OFF	n/a	n/a	GOAT	10	7	[0, 0, 0]	n/a	FR1	1	R1200T
802.611	1.601	814506	WORD	n/a	wordpools/wordpool_EN.txt	LIP	11	7	[0, 0, 0]	n/a	FR1	1	R1200T
804.212	0.818	816107	WORD_OFF	n/a	n/a	LIP	11	7	[0, 0, 0]	n/a	FR1	1	R1200T
805.03	1.615	816925	WORD	n/a	wordpools/wordpool_EN.txt	TOAD	12	7	[0, 0, 0]	n/a	FR1	1	R1200T
806.645	0.0	818539	WORD_OFF	n/a	n/a	TOAD	12	7	[0, 0, 0]	n/a	FR1	1	R1200T
806.645	0.001	818539	DISTRACT_START	n/a	n/a	n/a	-999	7	[0, 0, 0]	n/a	FR1	1	R1200T
806.646	0.016	818540	START	n/a	n/a	n/a	-999	7	[-999, -999, -999]	n/a	FR1	1	R1200T
806.662	4.402	818556	PROB	4.402	n/a	n/a	-999	7	[2, 8, 2]	12	FR1	1	R1200T
811.064	1.9	822958	PROB	1.9	n/a	n/a	-999	7	[5, 5, 5]	15	FR1	1	R1200T
812.964	6.334	824858	PROB	6.334	n/a	n/a	-999	7	[9, 9, 7]	15	FR1	1	R1200T
819.298	2.934	831192	PROB	2.934	n/a	n/a	-999	7	[6, 7, 9]	17	FR1	1	R1200T
822.232	2.267	834126	PROB	2.267	n/a	n/a	-999	7	[4, 8, 4]	14	FR1	1	R1200T
824.499	3.403	836392	PROB	3.403	n/a	n/a	-999	7	[3, 1, 7]	1	FR1	1	R1200T
827.902	0.015	839795	STOP	n/a	n/a	n/a	-999	7	[-999, -999, -999]	n/a	FR1	1	R1200T
827.917	0.516	839810	DISTRACT_END	n/a	n/a	n/a	-999	7	[0, 0, 0]	n/a	FR1	1	R1200T
828.433	0.518	840326	RETRIEVAL_ORIENT	n/a	n/a	n/a	-999	7	[0, 0, 0]	n/a	FR1	1	R1200T
828.951	2.046	840844	REC_START	n/a	n/a	n/a	-999	7	[0, 0, 0]	n/a	FR1	1	R1200T
830.997	4.833	842890	REC_WORD	4.833	n/a	LAMB	1	7	[0, 0, 0]	n/a	FR1	1	R1200T
835.83	2.567	847723	REC_WORD	2.567	n/a	SHEEP	-999	7	[0, 0, 0]	n/a	FR1	1	R1200T
838.397	20.564	850290	REC_WORD	20.564	n/a	BAT	4	7	[0, 0, 0]	n/a	FR1	1	R1200T
858.961	122.068	870852	REC_END	n/a	n/a	n/a	-999	7	[0, 0, 0]	n/a	FR1	1	R1200T
981.029	0.0	992913	INSTRUCT_START	n/a	n/a	n/a	-999	7	[0, 0, 0]	n/a	FR1	1	R1200T
981.029	11.141	992913	INSTRUCT_END	n/a	n/a	n/a	-999	7	[0, 0, 0]	n/a	FR1	1	R1200T
992.17	0.0	1004054	SESS_START	n/a	n/a	n/a	-999	7	[0, 0, 0]	n/a	FR1	1	R1200T
992.17	16.396	1004054	MIC_TEST	n/a	n/a	n/a	-999	7	[0, 0, 0]	n/a	FR1	1	R1200T
1008.566	0.5	1020449	TRIAL	n/a	n/a	n/a	-999	8	[0, 0, 0]	n/a	FR1	1	R1200T
1009.066	10.428	1020949	COUNTDOWN_START	n/a	n/a	n/a	-999	8	[0, 0, 0]	n/a	FR1	1	R1200T
1019.494	0.007	1031376	COUNTDOWN_END	n/a	n/a	n/a	-999	8	[0, 0, 0]	n/a	FR1	1	R1200T
1019.501	1.601	1031383	ORIENT	n/a	n/a	n/a	-999	8	[0, 0, 0]	n/a	FR1	1	R1200T
1021.102	1.951	1032984	ORIENT_OFF	n/a	n/a	n/a	-999	8	[0, 0, 0]	n/a	FR1	1	R1200T
1023.053	1.616	1034935	WORD	n/a	wordpools/wordpool_EN.txt	DRUM	1	8	[0, 0, 0]	n/a	FR1	1	R1200T
1024.669	0.884	1036551	WORD_OFF	n/a	n/a	DRUM	1	8	[0, 0, 0]	n/a	FR1	1	R1200T
1025.553	1.617	1037435	WORD	n/a	wordpools/wordpool_EN.txt	JEEP	2	8	[0, 0, 0]	n/a	FR1	1	R1200T
1027.17	0.801	1039052	WORD_OFF	n/a	n/a	JEEP	2	8	[0, 0, 0]	n/a	FR1	1	R1200T
1027.971	1.616	1039853	WORD	n/a	wordpools/wordpool_EN.txt	STEAM	3	8	[0, 0, 0]	n/a	FR1	1	R1200T
1029.587	0.9	1041468	WORD_OFF	n/a	n/a	STEAM	3	8	[0, 0, 0]	n/a	FR1	1	R1200T
1030.487	1.618	1042368	WORD	n/a	wordpools/wordpool_EN.txt	SLIME	4	8	[0, 0, 0]	n/a	FR1	1	R1200T
1032.105	0.85	1043986	WORD_OFF	n/a	n/a	SLIME	4	8	[0, 0, 0]	n/a	FR1	1	R1200T
1032.955	1.616	1044836	WORD	n/a	wordpools/wordpool_EN.txt	SHIRT	5	8	[0, 0, 0]	n/a	FR1	1	R1200T
1034.571	0.868	1046452	WORD_OFF	n/a	n/a	SHIRT	5	8	[0, 0, 0]	n/a	FR1	1	R1200T
1035.439	1.617	1047320	WORD	n/a	wordpools/wordpool_EN.txt	OAK	6	8	[0, 0, 0]	n/a	FR1	1	R1200T
1037.056	0.966	1048937	WORD_OFF	n/a	n/a	OAK	6	8	[0, 0, 0]	n/a	FR1	1	R1200T
1038.022	1.616	1049903	WORD	n/a	wordpools/wordpool_EN.txt	SOAP	7	8	[0, 0, 0]	n/a	FR1	1	R1200T
1039.638	0.818	1051519	WORD_OFF	n/a	n/a	SOAP	7	8	[0, 0, 0]	n/a	FR1	1	R1200T
1040.456	1.617	1052337	WORD	n/a	wordpools/wordpool_EN.txt	SHEET	8	8	[0, 0, 0]	n/a	FR1	1	R1200T
1042.073	0.884	1053954	WORD_OFF	n/a	n/a	SHEET	8	8	[0, 0, 0]	n/a	FR1	1	R1200T
1042.957	1.616	1054838	WORD	n/a	wordpools/wordpool_EN.txt	BAG	9	8	[0, 0, 0]	n/a	FR1	1	R1200T
1044.573	0.9	1056454	WORD_OFF	n/a	n/a	BAG	9	8	[0, 0, 0]	n/a	FR1	1	R1200T
1045.473	1.618	1057354	WORD	n/a	wordpools/wordpool_EN.txt	RAKE	10	8	[0, 0, 0]	n/a	FR1	1	R1200T
1047.091	0.933	1058971	WORD_OFF	n/a	n/a	RAKE	10	8	[0, 0, 0]	n/a	FR1	1	R1200T
1048.024	1.616	1059904	WORD	n/a	wordpools/wordpool_EN.txt	GOLD	11	8	[0, 0, 0]	n/a	FR1	1	R1200T
1049.64	0.801	1061520	WORD_OFF	n/a	n/a	GOLD	11	8	[0, 0, 0]	n/a	FR1	1	R1200T
1050.441	1.617	1062321	WORD	n/a	wordpools/wordpool_EN.txt	BRANCH	12	8	[0, 0, 0]	n/a	FR1	1	R1200T
1052.058	0.0	1063938	WORD_OFF	n/a	n/a	BRANCH	12	8	[0, 0, 0]	n/a	FR1	1	R1200T
1052.058	0.001	1063938	DISTRACT_START	n/a	n/a	n/a	-999	8	[0, 0, 0]	n/a	FR1	1	R1200T
1052.059	0.016	1063939	START	n/a	n/a	n/a	-999	8	[-999, -999, -999]	n/a	FR1	1	R1200T
1052.075	6.75	1063955	PROB	6.75	n/a	n/a	-999	8	[3, 9, 4]	17	FR1	1	R1200T
1058.825	5.052	1070705	PROB	5.052	n/a	n/a	-999	8	[4, 5, 7]	16	FR1	1	R1200T
1063.877	4.75	1075756	PROB	4.75	n/a	n/a	-999	8	[2, 6, 7]	15	FR1	1	R1200T
1068.627	3.051	1080506	PROB	3.051	n/a	n/a	-999	8	[5, 8, 7]	18	FR1	1	R1200T
1071.678	3.976	1083557	PROB	3.976	n/a	n/a	-999	8	[9, 2, 9]	20	FR1	1	R1200T
1075.654	0.008	1087533	STOP	n/a	n/a	n/a	-999	8	[-999, -999, -999]	n/a	FR1	1	R1200T
1075.662	0.551	1087541	DISTRACT_END	n/a	n/a	n/a	-999	8	[0, 0, 0]	n/a	FR1	1	R1200T
1076.213	0.516	1088092	RETRIEVAL_ORIENT	n/a	n/a	n/a	-999	8	[0, 0, 0]	n/a	FR1	1	R1200T
1076.729	2.629	1088608	REC_START	n/a	n/a	n/a	-999	8	[0, 0, 0]	n/a	FR1	1	R1200T
1079.358	0.838	1091237	REC_WORD	0.838	n/a	DRUM	1	8	[0, 0, 0]	n/a	FR1	1	R1200T
1080.196	0.849	1092075	REC_WORD	0.849	n/a	SHEET	8	8	[0, 0, 0]	n/a	FR1	1	R1200T
1081.045	25.697	1092923	REC_WORD	25.697	n/a	SLIME	4	8	[0, 0, 0]	n/a	FR1	1	R1200T
1106.742	9.178	1118619	REC_END	n/a	n/a	n/a	-999	8	[0, 0, 0]	n/a	FR1	1	R1200T
1115.92	0.5	1127796	TRIAL	n/a	n/a	n/a	-999	9	[0, 0, 0]	n/a	FR1	1	R1200T
1116.42	10.428	1128296	COUNTDOWN_START	n/a	n/a	n/a	-999	9	[0, 0, 0]	n/a	FR1	1	R1200T
1126.848	0.006	1138724	COUNTDOWN_END	n/a	n/a	n/a	-999	9	[0, 0, 0]	n/a	FR1	1	R1200T
1126.854	1.617	1138730	ORIENT	n/a	n/a	n/a	-999	9	[0, 0, 0]	n/a	FR1	1	R1200T
1128.471	2.101	1140347	ORIENT_OFF	n/a	n/a	n/a	-999	9	[0, 0, 0]	n/a	FR1	1	R1200T
1130.572	1.618	1142448	WORD	n/a	wordpools/wordpool_EN.txt	BOY	1	9	[0, 0, 0]	n/a	FR1	1	R1200T
1132.19	0.983	1144065	WORD_OFF	n/a	n/a	BOY	1	9	[0, 0, 0]	n/a	FR1	1	R1200T
1133.173	1.616	1145048	WORD	n/a	wordpools/wordpool_EN.txt	PEARL	2	9	[0, 0, 0]	n/a	FR1	1	R1200T
1134.789	1.0	1146664	WORD_OFF	n/a	n/a	PEARL	2	9	[0, 0, 0]	n/a	FR1	1	R1200T
1135.789	1.618	1147664	WORD	n/a	wordpools/wordpool_EN.txt	PHONE	3	9	[0, 0, 0]	n/a	FR1	1	R1200T
1137.407	0.767	1149282	WORD_OFF	n/a	n/a	PHONE	3	9	[0, 0, 0]	n/a	FR1	1	R1200T
1138.174	1.616	1150049	WORD	n/a	wordpools/wordpool_EN.txt	PANTS	4	9	[0, 0, 0]	n/a	FR1	1	R1200T
1139.79	1.017	1151665	WORD_OFF	n/a	n/a	PANTS	4	9	[0, 0, 0]	n/a	FR1	1	R1200T
1140.807	1.618	1152682	WORD	n/a	wordpools/wordpool_EN.txt	TRASH	5	9	[0, 0, 0]	n/a	FR1	1	R1200T
1142.425	0.933	1154300	WORD_OFF	n/a	n/a	TRASH	5	9	[0, 0, 0]	n/a	FR1	1	R1200T
1143.358	1.617	1155233	WORD	n/a	wordpools/wordpool_EN.txt	SHIELD	6	9	[0, 0, 0]	n/a	FR1	1	R1200T
1144.975	0.883	1156850	WORD_OFF	n/a	n/a	SHIELD	6	9	[0, 0, 0]	n/a	FR1	1	R1200T
1145.858	1.617	1157733	WORD	n/a	wordpools/wordpool_EN.txt	POLE	7	9	[0, 0, 0]	n/a	FR1	1	R1200T
1147.475	0.784	1159350	WORD_OFF	n/a	n/a	POLE	7	9	[0, 0, 0]	n/a	FR1	1	R1200T
1148.259	1.617	1160134	WORD	n/a	wordpools/wordpool_EN.txt	WEED	8	9	[0, 0, 0]	n/a	FR1	1	R1200T
1149.876	0.983	1161750	WORD_OFF	n/a	n/a	WEED	8	9	[0, 0, 0]	n/a	FR1	1	R1200T
1150.859	1.617	1162733	WORD	n/a	wordpools/wordpool_EN.txt	STORE	9	9	[0, 0, 0]	n/a	FR1	1	R1200T
1152.476	0.784	1164350	WORD_OFF	n/a	n/a	STORE	9	9	[0, 0, 0]	n/a	FR1	1	R1200T
1153.26	1.617	1165134	WORD	n/a	wordpools/wordpool_EN.txt	OWL	10	9	[0, 0, 0]	n/a	FR1	1	R1200T
1154.877	0.882	1166751	WORD_OFF	n/a	n/a	OWL	10	9	[0, 0, 0]	n/a	FR1	1	R1200T
1155.759	1.618	1167633	WORD	n/a	wordpools/wordpool_EN.txt	PLANT	11	9	[0, 0, 0]	n/a	FR1	1	R1200T
1157.377	0.834	1169251	WORD_OFF	n/a	n/a	PLANT	11	9	[0, 0, 0]	n/a	FR1	1	R1200T
1158.211	1.616	1170085	WORD	n/a	wordpools/wordpool_EN.txt	WALL	12	9	[0, 0, 0]	n/a	FR1	1	R1200T
1159.827	0.0	1171701	WORD_OFF	n/a	n/a	WALL	12	9	[0, 0, 0]	n/a	FR1	1	R1200T
1159.827	0.001	1171701	DISTRACT_START	n/a	n/a	n/a	-999	9	[0, 0, 0]	n/a	FR1	1	R1200T
1159.828	0.016	1171702	START	n/a	n/a	n/a	-999	9	[-999, -999, -999]	n/a	FR1	1	R1200T
1159.844	4.634	1171718	PROB	4.634	n/a	n/a	-999	9	[6, 8, 9]	17	FR1	1	R1200T
1164.478	5.184	1176352	PROB	5.184	n/a	n/a	-999	9	[5, 3, 3]	11	FR1	1	R1200T
1169.662	2.15	1181535	PROB	2.15	n/a	n/a	-999	9	[1, 4, 9]	14	FR1	1	R1200T
1171.812	2.884	1183685	PROB	2.884	n/a	n/a	-999	9	[2, 8, 3]	13	FR1	1	R1200T
1174.696	3.319	1186569	PROB	3.319	n/a	n/a	-999	9	[7, 9, 1]	17	FR1	1	R1200T
1178.015	3.911	1189888	PROB	3.911	n/a	n/a	-999	9	[8, 6, 8]	21	FR1	1	R1200T
1181.926	0.023	1193799	STOP	n/a	n/a	n/a	-999	9	[-999, -999, -999]	n/a	FR1	1	R1200T
1181.949	0.665	1193822	DISTRACT_END	n/a	n/a	n/a	-999	9	[0, 0, 0]	n/a	FR1	1	R1200T
1182.614	0.519	1194487	RETRIEVAL_ORIENT	n/a	n/a	n/a	-999	9	[0, 0, 0]	n/a	FR1	1	R1200T
1183.133	1.219	1195006	REC_START	n/a	n/a	n/a	-999	9	[0, 0, 0]	n/a	FR1	1	R1200T
1184.352	0.874	1196224	REC_WORD	0.874	n/a	BOY	1	9	[0, 0, 0]	n/a	FR1	1	R1200T
1185.226	4.42	1197098	REC_WORD	4.42	n/a	PEARL	2	9	[0, 0, 0]	n/a	FR1	1	R1200T
1189.646	23.497	1201518	REC_WORD	23.497	n/a	WEED	8	9	[0, 0, 0]	n/a	FR1	1	R1200T
1213.143	6.328	1225014	REC_END	n/a	n/a	n/a	-999	9	[0, 0, 0]	n/a	FR1	1	R1200T
1219.471	0.5	1231341	TRIAL	n/a	n/a	n/a	-999	10	[0, 0, 0]	n/a	FR1	1	R1200T
1219.971	10.428	1231841	COUNTDOWN_START	n/a	n/a	n/a	-999	10	[0, 0, 0]	n/a	FR1	1	R1200T
1230.399	0.008	1242269	COUNTDOWN_END	n/a	n/a	n/a	-999	10	[0, 0, 0]	n/a	FR1	1	R1200T
1230.407	1.617	1242277	ORIENT	n/a	n/a	n/a	-999	10	[0, 0, 0]	n/a	FR1	1	R1200T
1232.024	1.984	1243894	ORIENT_OFF	n/a	n/a	n/a	-999	10	[0, 0, 0]	n/a	FR1	1	R1200T
1234.008	1.616	1245878	WORD	n/a	wordpools/wordpool_EN.txt	STEAK	1	10	[0, 0, 0]	n/a	FR1	1	R1200T
1235.624	0.801	1247493	WORD_OFF	n/a	n/a	STEAK	1	10	[0, 0, 0]	n/a	FR1	1	R1200T
1236.425	1.617	1248294	WORD	n/a	wordpools/wordpool_EN.txt	OAR	2	10	[0, 0, 0]	n/a	FR1	1	R1200T
1238.042	1.0	1249911	WORD_OFF	n/a	n/a	OAR	2	10	[0, 0, 0]	n/a	FR1	1	R1200T
1239.042	1.616	1250911	WORD	n/a	wordpools/wordpool_EN.txt	CAT	3	10	[0, 0, 0]	n/a	FR1	1	R1200T
1240.658	1.0	1252527	WORD_OFF	n/a	n/a	CAT	3	10	[0, 0, 0]	n/a	FR1	1	R1200T
1241.658	1.602	1253527	WORD	n/a	wordpools/wordpool_EN.txt	TRAIN	4	10	[0, 0, 0]	n/a	FR1	1	R1200T
1243.26	0.917	1255129	WORD_OFF	n/a	n/a	TRAIN	4	10	[0, 0, 0]	n/a	FR1	1	R1200T
1244.177	1.616	1256046	WORD	n/a	wordpools/wordpool_EN.txt	DOCK	5	10	[0, 0, 0]	n/a	FR1	1	R1200T
1245.793	0.933	1257662	WORD_OFF	n/a	n/a	DOCK	5	10	[0, 0, 0]	n/a	FR1	1	R1200T
1246.726	1.618	1258595	WORD	n/a	wordpools/wordpool_EN.txt	SEA	6	10	[0, 0, 0]	n/a	FR1	1	R1200T
1248.344	0.883	1260213	WORD_OFF	n/a	n/a	SEA	6	10	[0, 0, 0]	n/a	FR1	1	R1200T
1249.227	1.616	1261096	WORD	n/a	wordpools/wordpool_EN.txt	CROWN	7	10	[0, 0, 0]	n/a	FR1	1	R1200T
1250.843	0.767	1262712	WORD_OFF	n/a	n/a	CROWN	7	10	[0, 0, 0]	n/a	FR1	1	R1200T
1251.61	1.618	1263479	WORD	n/a	wordpools/wordpool_EN.txt	PASTE	8	10	[0, 0, 0]	n/a	FR1	1	R1200T
1253.228	0.95	1265096	WORD_OFF	n/a	n/a	PASTE	8	10	[0, 0, 0]	n/a	FR1	1	R1200T
1254.178	1.616	1266046	WORD	n/a	wordpools/wordpool_EN.txt	LEAF	9	10	[0, 0, 0]	n/a	FR1	1	R1200T
1255.794	0.95	1267662	WORD_OFF	n/a	n/a	LEAF	9	10	[0, 0, 0]	n/a	FR1	1	R1200T
1256.744	1.601	1268612	WORD	n/a	wordpools/wordpool_EN.txt	DOOR	10	10	[0, 0, 0]	n/a	FR1	1	R1200T
1258.345	0.868	1270213	WORD_OFF	n/a	n/a	DOOR	10	10	[0, 0, 0]	n/a	FR1	1	R1200T
1259.213	1.616	1271081	WORD	n/a	wordpools/wordpool_EN.txt	TOAST	11	10	[0, 0, 0]	n/a	FR1	1	R1200T
1260.829	0.816	1272697	WORD_OFF	n/a	n/a	TOAST	11	10	[0, 0, 0]	n/a	FR1	1	R1200T
1261.645	1.618	1273513	WORD	n/a	wordpools/wordpool_EN.txt	TANK	12	10	[0, 0, 0]	n/a	FR1	1	R1200T
1263.263	0.0	1275131	DISTRACT_START	n/a	n/a	n/a	-999	10	[0, 0, 0]	n/a	FR1	1	R1200T
1263.263	0.001	1275131	WORD_OFF	n/a	n/a	TANK	12	10	[0, 0, 0]	n/a	FR1	1	R1200T
1263.264	0.016	1275132	START	n/a	n/a	n/a	-999	10	[-999, -999, -999]	n/a	FR1	1	R1200T
1263.28	5.034	1275148	PROB	5.034	n/a	n/a	-999	10	[4, 7, 8]	18	FR1	1	R1200T
1268.314	3.118	1280182	PROB	3.118	n/a	n/a	-999	10	[7, 1, 1]	9	FR1	1	R1200T
1271.432	4.233	1283299	PROB	4.233	n/a	n/a	-999	10	[8, 3, 8]	19	FR1	1	R1200T
1275.665	3.401	1287532	PROB	3.401	n/a	n/a	-999	10	[3, 3, 4]	9	FR1	1	R1200T
1279.066	1.901	1290933	PROB	1.901	n/a	n/a	-999	10	[8, 1, 2]	11	FR1	1	R1200T
1280.967	1.582	1292834	PROB	1.582	n/a	n/a	-999	10	[3, 7, 1]	11	FR1	1	R1200T
1282.549	6.81	1294416	PROB	6.81	n/a	n/a	-999	10	[8, 2, 7]	17	FR1	1	R1200T
1289.359	0.009	1301225	STOP	n/a	n/a	n/a	-999	10	[-999, -999, -999]	n/a	FR1	1	R1200T
1289.368	0.6	1301234	DISTRACT_END	n/a	n/a	n/a	-999	10	[0, 0, 0]	n/a	FR1	1	R1200T
1289.968	0.517	1301834	RETRIEVAL_ORIENT	n/a	n/a	n/a	-999	10	[0, 0, 0]	n/a	FR1	1	R1200T
1290.485	1.274	1302351	REC_START	n/a	n/a	n/a	-999	10	[0, 0, 0]	n/a	FR1	1	R1200T
1291.759	0.99	1303625	REC_WORD	0.99	n/a	STEAK	1	10	[0, 0, 0]	n/a	FR1	1	R1200T
1292.749	0.815	1304615	REC_WORD	0.815	n/a	CAT	3	10	[0, 0, 0]	n/a	FR1	1	R1200T
1293.564	4.396	1305430	REC_WORD	4.396	n/a	DOOR	10	10	[0, 0, 0]	n/a	FR1	1	R1200T
1297.96	0.942	1309826	REC_WORD	0.942	n/a	BOAT	-999	10	[0, 0, 0]	n/a	FR1	1	R1200T
1298.902	16.169	1310768	REC_WORD	16.169	n/a	DOCK	5	10	[0, 0, 0]	n/a	FR1	1	R1200T
1315.071	5.424	1326936	REC_WORD_VV	5.424	n/a	<>	-999	10	[0, 0, 0]	n/a	FR1	1	R1200T
1320.495	18.981	1332360	REC_END	n/a	n/a	n/a	-999	10	[0, 0, 0]	n/a	FR1	1	R1200T
1339.476	0.5	1351339	TRIAL	n/a	n/a	n/a	-999	11	[0, 0, 0]	n/a	FR1	1	R1200T
1339.976	10.428	1351839	COUNTDOWN_START	n/a	n/a	n/a	-999	11	[0, 0, 0]	n/a	FR1	1	R1200T
1350.404	0.009	1362267	COUNTDOWN_END	n/a	n/a	n/a	-999	11	[0, 0, 0]	n/a	FR1	1	R1200T
1350.413	1.616	1362276	ORIENT	n/a	n/a	n/a	-999	11	[0, 0, 0]	n/a	FR1	1	R1200T
1352.029	2.184	1363892	ORIENT_OFF	n/a	n/a	n/a	-999	11	[0, 0, 0]	n/a	FR1	1	R1200T
1354.213	1.616	1366076	WORD	n/a	wordpools/wordpool_EN.txt	BREAD	1	11	[0, 0, 0]	n/a	FR1	1	R1200T
1355.829	0.984	1367691	WORD_OFF	n/a	n/a	BREAD	1	11	[0, 0, 0]	n/a	FR1	1	R1200T
1356.813	1.618	1368675	WORD	n/a	wordpools/wordpool_EN.txt	FROG	2	11	[0, 0, 0]	n/a	FR1	1	R1200T
1358.431	0.833	1370293	WORD_OFF	n/a	n/a	FROG	2	11	[0, 0, 0]	n/a	FR1	1	R1200T
1359.264	1.617	1371126	WORD	n/a	wordpools/wordpool_EN.txt	MAP	3	11	[0, 0, 0]	n/a	FR1	1	R1200T
1360.881	0.983	1372743	WORD_OFF	n/a	n/a	MAP	3	11	[0, 0, 0]	n/a	FR1	1	R1200T
1361.864	1.617	1373726	WORD	n/a	wordpools/wordpool_EN.txt	SHELL	4	11	[0, 0, 0]	n/a	FR1	1	R1200T
1363.481	0.851	1375343	WORD_OFF	n/a	n/a	SHELL	4	11	[0, 0, 0]	n/a	FR1	1	R1200T
1364.332	1.617	1376194	WORD	n/a	wordpools/wordpool_EN.txt	STAR	5	11	[0, 0, 0]	n/a	FR1	1	R1200T
1365.949	0.983	1377811	WORD_OFF	n/a	n/a	STAR	5	11	[0, 0, 0]	n/a	FR1	1	R1200T
1366.932	1.616	1378794	WORD	n/a	wordpools/wordpool_EN.txt	BEACH	6	11	[0, 0, 0]	n/a	FR1	1	R1200T
1368.548	0.901	1380410	WORD_OFF	n/a	n/a	BEACH	6	11	[0, 0, 0]	n/a	FR1	1	R1200T
1369.449	1.617	1381311	WORD	n/a	wordpools/wordpool_EN.txt	CAR	7	11	[0, 0, 0]	n/a	FR1	1	R1200T
1371.066	0.817	1382928	WORD_OFF	n/a	n/a	CAR	7	11	[0, 0, 0]	n/a	FR1	1	R1200T
1371.883	1.616	1383745	WORD	n/a	wordpools/wordpool_EN.txt	SNAIL	8	11	[0, 0, 0]	n/a	FR1	1	R1200T
1373.499	0.835	1385360	WORD_OFF	n/a	n/a	SNAIL	8	11	[0, 0, 0]	n/a	FR1	1	R1200T
1374.334	1.616	1386195	WORD	n/a	wordpools/wordpool_EN.txt	COIN	9	11	[0, 0, 0]	n/a	FR1	1	R1200T
1375.95	0.85	1387811	WORD_OFF	n/a	n/a	COIN	9	11	[0, 0, 0]	n/a	FR1	1	R1200T
1376.8	1.618	1388661	WORD	n/a	wordpools/wordpool_EN.txt	HAND	10	11	[0, 0, 0]	n/a	FR1	1	R1200T
1378.418	1.0	1390279	WORD_OFF	n/a	n/a	HAND	10	11	[0, 0, 0]	n/a	FR1	1	R1200T
1379.418	1.617	1391279	WORD	n/a	wordpools/wordpool_EN.txt	PIG	11	11	[0, 0, 0]	n/a	FR1	1	R1200T
1381.035	0.883	1392896	WORD_OFF	n/a	n/a	PIG	11	11	[0, 0, 0]	n/a	FR1	1	R1200T
1381.918	1.616	1393779	WORD	n/a	wordpools/wordpool_EN.txt	MOUTH	12	11	[0, 0, 0]	n/a	FR1	1	R1200T
1383.534	0.0	1395395	WORD_OFF	n/a	n/a	MOUTH	12	11	[0, 0, 0]	n/a	FR1	1	R1200T
1383.534	0.001	1395395	DISTRACT_START	n/a	n/a	n/a	-999	11	[0, 0, 0]	n/a	FR1	1	R1200T
1383.535	0.016	1395396	START	n/a	n/a	n/a	-999	11	[-999, -999, -999]	n/a	FR1	1	R1200T
1383.551	3.718	1395412	PROB	3.718	n/a	n/a	-999	11	[8, 2, 2]	12	FR1	1	R1200T
1387.269	7.601	1399130	PROB	7.601	n/a	n/a	-999	11	[6, 7, 9]	18	FR1	1	R1200T
1394.87	2.7	1406730	PROB	2.7	n/a	n/a	-999	11	[4, 3, 6]	13	FR1	1	R1200T
1397.57	3.618	1409430	PROB	3.618	n/a	n/a	-999	11	[2, 9, 3]	14	FR1	1	R1200T
1401.188	3.939	1413048	PROB	3.939	n/a	n/a	-999	11	[5, 6, 8]	18	FR1	1	R1200T
1405.127	0.012	1416987	STOP	n/a	n/a	n/a	-999	11	[-999, -999, -999]	n/a	FR1	1	R1200T
1405.139	0.649	1416999	DISTRACT_END	n/a	n/a	n/a	-999	11	[0, 0, 0]	n/a	FR1	1	R1200T
1405.788	0.519	1417648	RETRIEVAL_ORIENT	n/a	n/a	n/a	-999	11	[0, 0, 0]	n/a	FR1	1	R1200T
1406.307	3.163	1418167	REC_START	n/a	n/a	n/a	-999	11	[0, 0, 0]	n/a	FR1	1	R1200T
1409.47	1.156	1421329	REC_WORD	1.156	n/a	BREAD	1	11	[0, 0, 0]	n/a	FR1	1	R1200T
1410.626	2.417	1422485	REC_WORD	2.417	n/a	SNAIL	8	11	[0, 0, 0]	n/a	FR1	1	R1200T
1413.043	23.275	1424902	REC_WORD	23.275	n/a	PIG	11	11	[0, 0, 0]	n/a	FR1	1	R1200T
1436.318	5.46	1448176	REC_END	n/a	n/a	n/a	-999	11	[0, 0, 0]	n/a	FR1	1	R1200T
1441.778	0.5	1453635	TRIAL	n/a	n/a	n/a	-999	12	[0, 0, 0]	n/a	FR1	1	R1200T
1442.278	10.428	1454135	COUNTDOWN_START	n/a	n/a	n/a	-999	12	[0, 0, 0]	n/a	FR1	1	R1200T
1452.706	0.008	1464563	COUNTDOWN_END	n/a	n/a	n/a	-999	12	[0, 0, 0]	n/a	FR1	1	R1200T
1452.714	1.617	1464571	ORIENT	n/a	n/a	n/a	-999	12	[0, 0, 0]	n/a	FR1	1	R1200T
1454.331	1.967	1466188	ORIENT_OFF	n/a	n/a	n/a	-999	12	[0, 0, 0]	n/a	FR1	1	R1200T
1456.298	1.617	1468155	WORD	n/a	wordpools/wordpool_EN.txt	ELF	1	12	[0, 0, 0]	n/a	FR1	1	R1200T
1457.915	0.85	1469772	WORD_OFF	n/a	n/a	ELF	1	12	[0, 0, 0]	n/a	FR1	1	R1200T
1458.765	1.618	1470621	WORD	n/a	wordpools/wordpool_EN.txt	FLAG	2	12	[0, 0, 0]	n/a	FR1	1	R1200T
1460.383	0.85	1472239	WORD_OFF	n/a	n/a	FLAG	2	12	[0, 0, 0]	n/a	FR1	1	R1200T
1461.233	1.616	1473089	WORD	n/a	wordpools/wordpool_EN.txt	TRUCK	3	12	[0, 0, 0]	n/a	FR1	1	R1200T
1462.849	0.833	1474705	WORD_OFF	n/a	n/a	TRUCK	3	12	[0, 0, 0]	n/a	FR1	1	R1200T
1463.682	1.618	1475538	WORD	n/a	wordpools/wordpool_EN.txt	FLOOR	4	12	[0, 0, 0]	n/a	FR1	1	R1200T
1465.3	0.783	1477156	WORD_OFF	n/a	n/a	FLOOR	4	12	[0, 0, 0]	n/a	FR1	1	R1200T
1466.083	1.617	1477939	WORD	n/a	wordpools/wordpool_EN.txt	DITCH	5	12	[0, 0, 0]	n/a	FR1	1	R1200T
1467.7	0.966	1479556	WORD_OFF	n/a	n/a	DITCH	5	12	[0, 0, 0]	n/a	FR1	1	R1200T
1468.666	1.618	1480522	WORD	n/a	wordpools/wordpool_EN.txt	TREE	6	12	[0, 0, 0]	n/a	FR1	1	R1200T
1470.284	0.984	1482140	WORD_OFF	n/a	n/a	TREE	6	12	[0, 0, 0]	n/a	FR1	1	R1200T
1471.268	1.617	1483124	WORD	n/a	wordpools/wordpool_EN.txt	TAIL	7	12	[0, 0, 0]	n/a	FR1	1	R1200T
1472.885	0.982	1484741	WORD_OFF	n/a	n/a	TAIL	7	12	[0, 0, 0]	n/a	FR1	1	R1200T
1473.867	1.617	1485723	WORD	n/a	wordpools/wordpool_EN.txt	JUDGE	8	12	[0, 0, 0]	n/a	FR1	1	R1200T
1475.484	0.801	1487339	WORD_OFF	n/a	n/a	JUDGE	8	12	[0, 0, 0]	n/a	FR1	1	R1200T
1476.285	1.617	1488140	WORD	n/a	wordpools/wordpool_EN.txt	SQUARE	9	12	[0, 0, 0]	n/a	FR1	1	R1200T
1477.902	0.866	1489757	WORD_OFF	n/a	n/a	SQUARE	9	12	[0, 0, 0]	n/a	FR1	1	R1200T
1478.768	1.618	1490623	WORD	n/a	wordpools/wordpool_EN.txt	PLANE	10	12	[0, 0, 0]	n/a	FR1	1	R1200T
1480.386	0.8	1492241	WORD_OFF	n/a	n/a	PLANE	10	12	[0, 0, 0]	n/a	FR1	1	R1200T
1481.186	1.616	1493041	WORD	n/a	wordpools/wordpool_EN.txt	CLAY	11	12	[0, 0, 0]	n/a	FR1	1	R1200T
1482.802	0.95	1494657	WORD_OFF	n/a	n/a	CLAY	11	12	[0, 0, 0]	n/a	FR1	1	R1200T
1483.752	1.618	1495607	WORD	n/a	wordpools/wordpool_EN.txt	FOX	12	12	[0, 0, 0]	n/a	FR1	1	R1200T
1485.37	0.0	1497225	WORD_OFF	n/a	n/a	FOX	12	12	[0, 0, 0]	n/a	FR1	1	R1200T
1485.37	0.001	1497225	DISTRACT_START	n/a	n/a	n/a	-999	12	[0, 0, 0]	n/a	FR1	1	R1200T
1485.371	0.016	1497226	START	n/a	n/a	n/a	-999	12	[-999, -999, -999]	n/a	FR1	1	R1200T
1485.387	6.685	1497242	PROB	6.685	n/a	n/a	-999	12	[9, 5, 8]	21	FR1	1	R1200T
1492.072	4.566	1503927	PROB	4.566	n/a	n/a	-999	12	[8, 7, 4]	29	FR1	1	R1200T
1496.638	5.268	1508492	PROB	5.268	n/a	n/a	-999	12	[9, 7, 5]	18	FR1	1	R1200T
1501.906	6.604	1513760	PROB	6.604	n/a	n/a	-999	12	[8, 6, 8]	24	FR1	1	R1200T
1508.51	0.014	1520364	STOP	n/a	n/a	n/a	-999	12	[-999, -999, -999]	n/a	FR1	1	R1200T
1508.524	0.534	1520378	DISTRACT_END	n/a	n/a	n/a	-999	12	[0, 0, 0]	n/a	FR1	1	R1200T
1509.058	0.516	1520912	RETRIEVAL_ORIENT	n/a	n/a	n/a	-999	12	[0, 0, 0]	n/a	FR1	1	R1200T
1509.574	1.735	1521427	REC_START	n/a	n/a	n/a	-999	12	[0, 0, 0]	n/a	FR1	1	R1200T
1511.309	0.781	1523162	REC_WORD	0.781	n/a	ELF	1	12	[0, 0, 0]	n/a	FR1	1	R1200T
1512.09	4.538	1523943	REC_WORD	4.538	n/a	FLAG	2	12	[0, 0, 0]	n/a	FR1	1	R1200T
1516.628	13.682	1528481	REC_WORD	13.682	n/a	JUDGE	8	12	[0, 0, 0]	n/a	FR1	1	R1200T
1530.31	9.277	1542162	REC_WORD	9.277	n/a	FOX	12	12	[0, 0, 0]	n/a	FR1	1	R1200T
1539.587	6.461	1551439	REC_END	n/a	n/a	n/a	-999	12	[0, 0, 0]	n/a	FR1	1	R1200T
1546.048	0.5	1557899	TRIAL	n/a	n/a	n/a	-999	13	[0, 0, 0]	n/a	FR1	1	R1200T
1546.548	10.428	1558399	COUNTDOWN_START	n/a	n/a	n/a	-999	13	[0, 0, 0]	n/a	FR1	1	R1200T
1556.976	0.007	1568827	COUNTDOWN_END	n/a	n/a	n/a	-999	13	[0, 0, 0]	n/a	FR1	1	R1200T
1556.983	1.616	1568834	ORIENT	n/a	n/a	n/a	-999	13	[0, 0, 0]	n/a	FR1	1	R1200T
1558.599	1.785	1570450	ORIENT_OFF	n/a	n/a	n/a	-999	13	[0, 0, 0]	n/a	FR1	1	R1200T
1560.384	1.617	1572235	WORD	n/a	wordpools/wordpool_EN.txt	WOLF	1	13	[0, 0, 0]	n/a	FR1	1	R1200T
1562.001	0.816	1573851	WORD_OFF	n/a	n/a	WOLF	1	13	[0, 0, 0]	n/a	FR1	1	R1200T
1562.817	1.618	1574667	WORD	n/a	wordpools/wordpool_EN.txt	THUMB	2	13	[0, 0, 0]	n/a	FR1	1	R1200T
1564.435	0.783	1576285	WORD_OFF	n/a	n/a	THUMB	2	13	[0, 0, 0]	n/a	FR1	1	R1200T
1565.218	1.616	1577068	WORD	n/a	wordpools/wordpool_EN.txt	CLOWN	3	13	[0, 0, 0]	n/a	FR1	1	R1200T
1566.834	0.933	1578684	WORD_OFF	n/a	n/a	CLOWN	3	13	[0, 0, 0]	n/a	FR1	1	R1200T
1567.767	1.602	1579617	WORD	n/a	wordpools/wordpool_EN.txt	STONE	4	13	[0, 0, 0]	n/a	FR1	1	R1200T
1569.369	0.85	1581219	WORD_OFF	n/a	n/a	STONE	4	13	[0, 0, 0]	n/a	FR1	1	R1200T
1570.219	1.616	1582069	WORD	n/a	wordpools/wordpool_EN.txt	MOLE	5	13	[0, 0, 0]	n/a	FR1	1	R1200T
1571.835	0.8	1583685	WORD_OFF	n/a	n/a	MOLE	5	13	[0, 0, 0]	n/a	FR1	1	R1200T
1572.635	1.618	1584485	WORD	n/a	wordpools/wordpool_EN.txt	PEA	6	13	[0, 0, 0]	n/a	FR1	1	R1200T
1574.253	0.85	1586103	WORD_OFF	n/a	n/a	PEA	6	13	[0, 0, 0]	n/a	FR1	1	R1200T
1575.103	1.616	1586953	WORD	n/a	wordpools/wordpool_EN.txt	WHEEL	7	13	[0, 0, 0]	n/a	FR1	1	R1200T
1576.719	0.817	1588569	WORD_OFF	n/a	n/a	WHEEL	7	13	[0, 0, 0]	n/a	FR1	1	R1200T
1577.536	1.601	1589386	WORD	n/a	wordpools/wordpool_EN.txt	FORT	8	13	[0, 0, 0]	n/a	FR1	1	R1200T
1579.137	0.784	1590986	WORD_OFF	n/a	n/a	FORT	8	13	[0, 0, 0]	n/a	FR1	1	R1200T
1579.921	1.616	1591770	WORD	n/a	wordpools/wordpool_EN.txt	ROOT	9	13	[0, 0, 0]	n/a	FR1	1	R1200T
1581.537	0.901	1593386	WORD_OFF	n/a	n/a	ROOT	9	13	[0, 0, 0]	n/a	FR1	1	R1200T
1582.438	1.617	1594287	WORD	n/a	wordpools/wordpool_EN.txt	CLOTH	10	13	[0, 0, 0]	n/a	FR1	1	R1200T
1584.055	0.933	1595904	WORD_OFF	n/a	n/a	CLOTH	10	13	[0, 0, 0]	n/a	FR1	1	R1200T
1584.988	1.616	1596837	WORD	n/a	wordpools/wordpool_EN.txt	SAIL	11	13	[0, 0, 0]	n/a	FR1	1	R1200T
1586.604	0.785	1598453	WORD_OFF	n/a	n/a	SAIL	11	13	[0, 0, 0]	n/a	FR1	1	R1200T
1587.389	1.617	1599238	WORD	n/a	wordpools/wordpool_EN.txt	HORSE	12	13	[0, 0, 0]	n/a	FR1	1	R1200T
1589.006	0.0	1600855	WORD_OFF	n/a	n/a	HORSE	12	13	[0, 0, 0]	n/a	FR1	1	R1200T
1589.006	0.0	1600855	DISTRACT_START	n/a	n/a	n/a	-999	13	[0, 0, 0]	n/a	FR1	1	R1200T
1589.006	0.017	1600855	START	n/a	n/a	n/a	-999	13	[-999, -999, -999]	n/a	FR1	1	R1200T
1589.023	6.783	1600872	PROB	6.783	n/a	n/a	-999	13	[7, 8, 6]	19	FR1	1	R1200T
1595.806	4.068	1607654	PROB	4.068	n/a	n/a	-999	13	[5, 9, 4]	18	FR1	1	R1200T
1599.874	5.701	1611722	PROB	5.701	n/a	n/a	-999	13	[2, 7, 2]	13	FR1	1	R1200T
1605.575	1.751	1617423	PROB	1.751	n/a	n/a	-999	13	[4, 6, 3]	13	FR1	1	R1200T
1607.326	8.12	1619174	PROB	8.12	n/a	n/a	-999	13	[4, 8, 1]	13	FR1	1	R1200T
1615.446	0.015	1627293	STOP	n/a	n/a	n/a	-999	13	[-999, -999, -999]	n/a	FR1	1	R1200T
1615.461	0.533	1627308	DISTRACT_END	n/a	n/a	n/a	-999	13	[0, 0, 0]	n/a	FR1	1	R1200T
1615.994	0.516	1627841	RETRIEVAL_ORIENT	n/a	n/a	n/a	-999	13	[0, 0, 0]	n/a	FR1	1	R1200T
1616.51	1.587	1628357	REC_START	n/a	n/a	n/a	-999	13	[0, 0, 0]	n/a	FR1	1	R1200T
1618.097	28.424	1629944	REC_WORD	28.424	n/a	WOLF	1	13	[0, 0, 0]	n/a	FR1	1	R1200T
1646.521	4.646	1658367	REC_END	n/a	n/a	n/a	-999	13	[0, 0, 0]	n/a	FR1	1	R1200T
1651.167	0.5	1663012	TRIAL	n/a	n/a	n/a	-999	14	[0, 0, 0]	n/a	FR1	1	R1200T
1651.667	10.428	1663512	COUNTDOWN_START	n/a	n/a	n/a	-999	14	[0, 0, 0]	n/a	FR1	1	R1200T
1662.095	0.007	1673940	COUNTDOWN_END	n/a	n/a	n/a	-999	14	[0, 0, 0]	n/a	FR1	1	R1200T
1662.102	1.616	1673947	ORIENT	n/a	n/a	n/a	-999	14	[0, 0, 0]	n/a	FR1	1	R1200T
1663.718	2.034	1675563	ORIENT_OFF	n/a	n/a	n/a	-999	14	[0, 0, 0]	n/a	FR1	1	R1200T
1665.752	1.618	1677596	WORD	n/a	wordpools/wordpool_EN.txt	BUSH	1	14	[0, 0, 0]	n/a	FR1	1	R1200T
1667.37	0.917	1679214	WORD_OFF	n/a	n/a	BUSH	1	14	[0, 0, 0]	n/a	FR1	1	R1200T
1668.287	1.617	1680131	WORD	n/a	wordpools/wordpool_EN.txt	ROOM	2	14	[0, 0, 0]	n/a	FR1	1	R1200T
1669.904	0.899	1681748	WORD_OFF	n/a	n/a	ROOM	2	14	[0, 0, 0]	n/a	FR1	1	R1200T
1670.803	1.601	1682647	WORD	n/a	wordpools/wordpool_EN.txt	CUBE	3	14	[0, 0, 0]	n/a	FR1	1	R1200T
1672.404	0.834	1684248	WORD_OFF	n/a	n/a	CUBE	3	14	[0, 0, 0]	n/a	FR1	1	R1200T
1673.238	1.616	1685082	WORD	n/a	wordpools/wordpool_EN.txt	DEER	4	14	[0, 0, 0]	n/a	FR1	1	R1200T
1674.854	0.8	1686698	WORD_OFF	n/a	n/a	DEER	4	14	[0, 0, 0]	n/a	FR1	1	R1200T
1675.654	1.601	1687498	WORD	n/a	wordpools/wordpool_EN.txt	VEST	5	14	[0, 0, 0]	n/a	FR1	1	R1200T
1677.255	0.934	1689099	WORD_OFF	n/a	n/a	VEST	5	14	[0, 0, 0]	n/a	FR1	1	R1200T
1678.189	1.616	1690033	WORD	n/a	wordpools/wordpool_EN.txt	SALT	6	14	[0, 0, 0]	n/a	FR1	1	R1200T
1679.805	0.816	1691649	WORD_OFF	n/a	n/a	SALT	6	14	[0, 0, 0]	n/a	FR1	1	R1200T
1680.621	1.618	1692465	WORD	n/a	wordpools/wordpool_EN.txt	PIPE	7	14	[0, 0, 0]	n/a	FR1	1	R1200T
1682.239	0.834	1694082	WORD_OFF	n/a	n/a	PIPE	7	14	[0, 0, 0]	n/a	FR1	1	R1200T
1683.073	1.616	1694916	WORD	n/a	wordpools/wordpool_EN.txt	STRAW	8	14	[0, 0, 0]	n/a	FR1	1	R1200T
1684.689	0.883	1696532	WORD_OFF	n/a	n/a	STRAW	8	14	[0, 0, 0]	n/a	FR1	1	R1200T
1685.572	1.618	1697415	WORD	n/a	wordpools/wordpool_EN.txt	CHIN	9	14	[0, 0, 0]	n/a	FR1	1	R1200T
1687.19	0.834	1699033	WORD_OFF	n/a	n/a	CHIN	9	14	[0, 0, 0]	n/a	FR1	1	R1200T
1688.024	1.616	1699867	WORD	n/a	wordpools/wordpool_EN.txt	SEAL	10	14	[0, 0, 0]	n/a	FR1	1	R1200T
1689.64	0.768	1701483	WORD_OFF	n/a	n/a	SEAL	10	14	[0, 0, 0]	n/a	FR1	1	R1200T
1690.408	1.617	1702251	WORD	n/a	wordpools/wordpool_EN.txt	JAIL	11	14	[0, 0, 0]	n/a	FR1	1	R1200T
1692.025	0.85	1703868	WORD_OFF	n/a	n/a	JAIL	11	14	[0, 0, 0]	n/a	FR1	1	R1200T
1692.875	1.616	1704718	WORD	n/a	wordpools/wordpool_EN.txt	TOOL	12	14	[0, 0, 0]	n/a	FR1	1	R1200T
1694.491	0.0	1706334	WORD_OFF	n/a	n/a	TOOL	12	14	[0, 0, 0]	n/a	FR1	1	R1200T
1694.491	0.0	1706334	DISTRACT_START	n/a	n/a	n/a	-999	14	[0, 0, 0]	n/a	FR1	1	R1200T
1694.491	0.016	1706334	START	n/a	n/a	n/a	-999	14	[-999, -999, -999]	n/a	FR1	1	R1200T
1694.507	3.968	1706350	PROB	3.968	n/a	n/a	-999	14	[7, 5, 3]	15	FR1	1	R1200T
1698.475	11.403	1710317	PROB	11.403	n/a	n/a	-999	14	[3, 4, 4]	11	FR1	1	R1200T
1709.878	3.949	1721720	PROB	3.949	n/a	n/a	-999	14	[9, 8, 7]	21	FR1	1	R1200T
1713.827	4.595	1725669	PROB	4.595	n/a	n/a	-999	14	[1, 9, 9]	19	FR1	1	R1200T
1718.422	0.007	1730263	STOP	n/a	n/a	n/a	-999	14	[-999, -999, -999]	n/a	FR1	1	R1200T
1718.429	0.534	1730270	DISTRACT_END	n/a	n/a	n/a	-999	14	[0, 0, 0]	n/a	FR1	1	R1200T
1718.963	0.516	1730804	RETRIEVAL_ORIENT	n/a	n/a	n/a	-999	14	[0, 0, 0]	n/a	FR1	1	R1200T
1719.479	1.948	1731320	REC_START	n/a	n/a	n/a	-999	14	[0, 0, 0]	n/a	FR1	1	R1200T
1721.427	4.428	1733268	REC_WORD	4.428	n/a	BUSH	1	14	[0, 0, 0]	n/a	FR1	1	R1200T
1725.855	3.984	1737696	REC_WORD	3.984	n/a	CUBE	3	14	[0, 0, 0]	n/a	FR1	1	R1200T
1729.839	19.652	1741680	REC_WORD	19.652	n/a	PIPE	7	14	[0, 0, 0]	n/a	FR1	1	R1200T
1749.491	6.628	1761331	REC_END	n/a	n/a	n/a	-999	14	[0, 0, 0]	n/a	FR1	1	R1200T
1756.119	0.5	1767958	TRIAL	n/a	n/a	n/a	-999	15	[0, 0, 0]	n/a	FR1	1	R1200T
1756.619	10.428	1768458	COUNTDOWN_START	n/a	n/a	n/a	-999	15	[0, 0, 0]	n/a	FR1	1	R1200T
1767.047	0.008	1778885	COUNTDOWN_END	n/a	n/a	n/a	-999	15	[0, 0, 0]	n/a	FR1	1	R1200T
1767.055	1.616	1778893	ORIENT	n/a	n/a	n/a	-999	15	[0, 0, 0]	n/a	FR1	1	R1200T
1768.671	2.083	1780509	ORIENT_OFF	n/a	n/a	n/a	-999	15	[0, 0, 0]	n/a	FR1	1	R1200T
1770.754	1.618	1782592	WORD	n/a	wordpools/wordpool_EN.txt	MAZE	1	15	[0, 0, 0]	n/a	FR1	1	R1200T
1772.372	0.867	1784210	WORD_OFF	n/a	n/a	MAZE	1	15	[0, 0, 0]	n/a	FR1	1	R1200T
1773.239	1.616	1785077	WORD	n/a	wordpools/wordpool_EN.txt	WOOD	2	15	[0, 0, 0]	n/a	FR1	1	R1200T
1774.855	0.884	1786693	WORD_OFF	n/a	n/a	WOOD	2	15	[0, 0, 0]	n/a	FR1	1	R1200T
1775.739	1.618	1787577	WORD	n/a	wordpools/wordpool_EN.txt	LAKE	3	15	[0, 0, 0]	n/a	FR1	1	R1200T
1777.357	0.883	1789195	WORD_OFF	n/a	n/a	LAKE	3	15	[0, 0, 0]	n/a	FR1	1	R1200T
1778.24	1.616	1790078	WORD	n/a	wordpools/wordpool_EN.txt	ROPE	4	15	[0, 0, 0]	n/a	FR1	1	R1200T
1779.856	0.784	1791694	WORD_OFF	n/a	n/a	ROPE	4	15	[0, 0, 0]	n/a	FR1	1	R1200T
1780.64	1.618	1792478	WORD	n/a	wordpools/wordpool_EN.txt	HEART	5	15	[0, 0, 0]	n/a	FR1	1	R1200T
1782.258	0.816	1794096	WORD_OFF	n/a	n/a	HEART	5	15	[0, 0, 0]	n/a	FR1	1	R1200T
1783.074	1.616	1794912	WORD	n/a	wordpools/wordpool_EN.txt	BEAR	6	15	[0, 0, 0]	n/a	FR1	1	R1200T
1784.69	0.9	1796527	WORD_OFF	n/a	n/a	BEAR	6	15	[0, 0, 0]	n/a	FR1	1	R1200T
1785.59	1.602	1797427	WORD	n/a	wordpools/wordpool_EN.txt	SNOW	7	15	[0, 0, 0]	n/a	FR1	1	R1200T
1787.192	0.783	1799029	WORD_OFF	n/a	n/a	SNOW	7	15	[0, 0, 0]	n/a	FR1	1	R1200T
1787.975	1.616	1799812	WORD	n/a	wordpools/wordpool_EN.txt	STEM	8	15	[0, 0, 0]	n/a	FR1	1	R1200T
1789.591	0.768	1801428	WORD_OFF	n/a	n/a	STEM	8	15	[0, 0, 0]	n/a	FR1	1	R1200T
1790.359	1.617	1802196	WORD	n/a	wordpools/wordpool_EN.txt	COW	9	15	[0, 0, 0]	n/a	FR1	1	R1200T
1791.976	0.934	1803813	WORD_OFF	n/a	n/a	COW	9	15	[0, 0, 0]	n/a	FR1	1	R1200T
1792.91	1.615	1804747	WORD	n/a	wordpools/wordpool_EN.txt	MOOSE	10	15	[0, 0, 0]	n/a	FR1	1	R1200T
1794.525	0.935	1806362	WORD_OFF	n/a	n/a	MOOSE	10	15	[0, 0, 0]	n/a	FR1	1	R1200T
1795.46	1.617	1807297	WORD	n/a	wordpools/wordpool_EN.txt	HOUSE	11	15	[0, 0, 0]	n/a	FR1	1	R1200T
1797.077	0.766	1808914	WORD_OFF	n/a	n/a	HOUSE	11	15	[0, 0, 0]	n/a	FR1	1	R1200T
1797.843	1.618	1809680	WORD	n/a	wordpools/wordpool_EN.txt	SEED	12	15	[0, 0, 0]	n/a	FR1	1	R1200T
1799.461	0.0	1811298	WORD_OFF	n/a	n/a	SEED	12	15	[0, 0, 0]	n/a	FR1	1	R1200T
1799.461	0.0	1811298	DISTRACT_START	n/a	n/a	n/a	-999	15	[0, 0, 0]	n/a	FR1	1	R1200T
1799.461	0.015	1811298	START	n/a	n/a	n/a	-999	15	[-999, -999, -999]	n/a	FR1	1	R1200T
1799.476	8.586	1811313	PROB	8.586	n/a	n/a	-999	15	[5, 6, 8]	19	FR1	1	R1200T
1808.062	6.101	1819898	PROB	6.101	n/a	n/a	-999	15	[3, 3, 2]	8	FR1	1	R1200T
1814.163	5.339	1825999	PROB	5.339	n/a	n/a	-999	15	[8, 9, 3]	17	FR1	1	R1200T
1819.502	0.011	1831337	STOP	n/a	n/a	n/a	-999	15	[-999, -999, -999]	n/a	FR1	1	R1200T
1819.513	0.668	1831348	DISTRACT_END	n/a	n/a	n/a	-999	15	[0, 0, 0]	n/a	FR1	1	R1200T
1820.181	0.516	1832016	RETRIEVAL_ORIENT	n/a	n/a	n/a	-999	15	[0, 0, 0]	n/a	FR1	1	R1200T
1820.697	1.698	1832532	REC_START	n/a	n/a	n/a	-999	15	[0, 0, 0]	n/a	FR1	1	R1200T
1822.395	0.865	1834230	REC_WORD	0.865	n/a	MAZE	1	15	[0, 0, 0]	n/a	FR1	1	R1200T
1823.26	0.95	1835095	REC_WORD	0.95	n/a	WOOD	2	15	[0, 0, 0]	n/a	FR1	1	R1200T
1824.21	4.664	1836045	REC_WORD	4.664	n/a	BEAR	6	15	[0, 0, 0]	n/a	FR1	1	R1200T
1828.874	10.567	1840709	REC_WORD	10.567	n/a	MOOSE	10	15	[0, 0, 0]	n/a	FR1	1	R1200T
1839.441	11.268	1851275	REC_WORD	11.268	n/a	COW	9	15	[0, 0, 0]	n/a	FR1	1	R1200T
1850.709	5.761	1862543	REC_END	n/a	n/a	n/a	-999	15	[0, 0, 0]	n/a	FR1	1	R1200T
1856.47	0.5	1868303	TRIAL	n/a	n/a	n/a	-999	16	[0, 0, 0]	n/a	FR1	1	R1200T
1856.97	10.428	1868803	COUNTDOWN_START	n/a	n/a	n/a	-999	16	[0, 0, 0]	n/a	FR1	1	R1200T
1867.398	0.008	1879231	COUNTDOWN_END	n/a	n/a	n/a	-999	16	[0, 0, 0]	n/a	FR1	1	R1200T
1867.406	1.617	1879239	ORIENT	n/a	n/a	n/a	-999	16	[0, 0, 0]	n/a	FR1	1	R1200T
1869.023	2.034	1880856	ORIENT_OFF	n/a	n/a	n/a	-999	16	[0, 0, 0]	n/a	FR1	1	R1200T
1871.057	1.616	1882889	WORD	n/a	wordpools/wordpool_EN.txt	APE	1	16	[0, 0, 0]	n/a	FR1	1	R1200T
1872.673	0.85	1884505	WORD_OFF	n/a	n/a	APE	1	16	[0, 0, 0]	n/a	FR1	1	R1200T
1873.523	1.618	1885355	WORD	n/a	wordpools/wordpool_EN.txt	ROCK	2	16	[0, 0, 0]	n/a	FR1	1	R1200T
1875.141	0.95	1886973	WORD_OFF	n/a	n/a	ROCK	2	16	[0, 0, 0]	n/a	FR1	1	R1200T
1876.091	1.616	1887923	WORD	n/a	wordpools/wordpool_EN.txt	PET	3	16	[0, 0, 0]	n/a	FR1	1	R1200T
1877.707	0.85	1889539	WORD_OFF	n/a	n/a	PET	3	16	[0, 0, 0]	n/a	FR1	1	R1200T
1878.557	1.601	1890389	WORD	n/a	wordpools/wordpool_EN.txt	BRIDGE	4	16	[0, 0, 0]	n/a	FR1	1	R1200T
1880.158	0.918	1891990	WORD_OFF	n/a	n/a	BRIDGE	4	16	[0, 0, 0]	n/a	FR1	1	R1200T
1881.076	1.616	1892908	WORD	n/a	wordpools/wordpool_EN.txt	EGG	5	16	[0, 0, 0]	n/a	FR1	1	R1200T
1882.692	0.916	1894524	WORD_OFF	n/a	n/a	EGG	5	16	[0, 0, 0]	n/a	FR1	1	R1200T
1883.608	1.601	1895440	WORD	n/a	wordpools/wordpool_EN.txt	SKI	6	16	[0, 0, 0]	n/a	FR1	1	R1200T
1885.209	0.834	1897041	WORD_OFF	n/a	n/a	SKI	6	16	[0, 0, 0]	n/a	FR1	1	R1200T
1886.043	1.616	1897875	WORD	n/a	wordpools/wordpool_EN.txt	SWAMP	7	16	[0, 0, 0]	n/a	FR1	1	R1200T
1887.659	0.9	1899490	WORD_OFF	n/a	n/a	SWAMP	7	16	[0, 0, 0]	n/a	FR1	1	R1200T
1888.559	1.618	1900390	WORD	n/a	wordpools/wordpool_EN.txt	PURSE	8	16	[0, 0, 0]	n/a	FR1	1	R1200T
1890.177	1.0	1902008	WORD_OFF	n/a	n/a	PURSE	8	16	[0, 0, 0]	n/a	FR1	1	R1200T
1891.177	1.616	1903008	WORD	n/a	wordpools/wordpool_EN.txt	BOOK	9	16	[0, 0, 0]	n/a	FR1	1	R1200T
1892.793	0.951	1904624	WORD_OFF	n/a	n/a	BOOK	9	16	[0, 0, 0]	n/a	FR1	1	R1200T
1893.744	1.617	1905575	WORD	n/a	wordpools/wordpool_EN.txt	ARM	10	16	[0, 0, 0]	n/a	FR1	1	R1200T
1895.361	0.984	1907192	WORD_OFF	n/a	n/a	ARM	10	16	[0, 0, 0]	n/a	FR1	1	R1200T
1896.345	1.617	1908176	WORD	n/a	wordpools/wordpool_EN.txt	HEN	11	16	[0, 0, 0]	n/a	FR1	1	R1200T
1897.962	0.967	1909793	WORD_OFF	n/a	n/a	HEN	11	16	[0, 0, 0]	n/a	FR1	1	R1200T
1898.929	1.616	1910760	WORD	n/a	wordpools/wordpool_EN.txt	SPONGE	12	16	[0, 0, 0]	n/a	FR1	1	R1200T
1900.545	0.0	1912376	WORD_OFF	n/a	n/a	SPONGE	12	16	[0, 0, 0]	n/a	FR1	1	R1200T
1900.545	0.0	1912376	DISTRACT_START	n/a	n/a	n/a	-999	16	[0, 0, 0]	n/a	FR1	1	R1200T
1900.545	0.016	1912376	START	n/a	n/a	n/a	-999	16	[-999, -999, -999]	n/a	FR1	1	R1200T
1900.561	8.952	1912392	PROB	8.952	n/a	n/a	-999	16	[1, 7, 5]	15	FR1	1	R1200T
1909.513	11.22	1921343	PROB	11.22	n/a	n/a	-999	16	[5, 4, 3]	12	FR1	1	R1200T
1920.733	0.015	1932563	STOP	n/a	n/a	n/a	-999	16	[-999, -999, -999]	n/a	FR1	1	R1200T
1920.748	0.668	1932578	DISTRACT_END	n/a	n/a	n/a	-999	16	[0, 0, 0]	n/a	FR1	1	R1200T
1921.416	0.518	1933245	RETRIEVAL_ORIENT	n/a	n/a	n/a	-999	16	[0, 0, 0]	n/a	FR1	1	R1200T
1921.934	1.719	1933763	REC_START	n/a	n/a	n/a	-999	16	[0, 0, 0]	n/a	FR1	1	R1200T
1923.653	0.884	1935482	REC_WORD	0.884	n/a	APE	1	16	[0, 0, 0]	n/a	FR1	1	R1200T
1924.537	7.956	1936366	REC_WORD	7.956	n/a	BRIDGE	4	16	[0, 0, 0]	n/a	FR1	1	R1200T
1932.493	19.453	1944322	REC_WORD	19.453	n/a	PET	3	16	[0, 0, 0]	n/a	FR1	1	R1200T
1951.946	8.859	1963774	REC_END	n/a	n/a	n/a	-999	16	[0, 0, 0]	n/a	FR1	1	R1200T
1960.805	0.5	1972632	TRIAL	n/a	n/a	n/a	-999	17	[0, 0, 0]	n/a	FR1	1	R1200T
1961.305	10.428	1973132	COUNTDOWN_START	n/a	n/a	n/a	-999	17	[0, 0, 0]	n/a	FR1	1	R1200T
1971.733	0.008	1983560	COUNTDOWN_END	n/a	n/a	n/a	-999	17	[0, 0, 0]	n/a	FR1	1	R1200T
1971.741	1.618	1983568	ORIENT	n/a	n/a	n/a	-999	17	[0, 0, 0]	n/a	FR1	1	R1200T
1973.359	2.034	1985185	ORIENT_OFF	n/a	n/a	n/a	-999	17	[0, 0, 0]	n/a	FR1	1	R1200T
1975.393	1.617	1987219	WORD	n/a	wordpools/wordpool_EN.txt	BADGE	1	17	[0, 0, 0]	n/a	FR1	1	R1200T
1977.01	0.917	1988836	WORD_OFF	n/a	n/a	BADGE	1	17	[0, 0, 0]	n/a	FR1	1	R1200T
1977.927	1.615	1989753	WORD	n/a	wordpools/wordpool_EN.txt	DESK	2	17	[0, 0, 0]	n/a	FR1	1	R1200T
1979.542	0.818	1991368	WORD_OFF	n/a	n/a	DESK	2	17	[0, 0, 0]	n/a	FR1	1	R1200T
1980.36	1.617	1992186	WORD	n/a	wordpools/wordpool_EN.txt	HAT	3	17	[0, 0, 0]	n/a	FR1	1	R1200T
1981.977	0.984	1993803	WORD_OFF	n/a	n/a	HAT	3	17	[0, 0, 0]	n/a	FR1	1	R1200T
1982.961	1.616	1994787	WORD	n/a	wordpools/wordpool_EN.txt	HOOK	4	17	[0, 0, 0]	n/a	FR1	1	R1200T
1984.577	0.917	1996403	WORD_OFF	n/a	n/a	HOOK	4	17	[0, 0, 0]	n/a	FR1	1	R1200T
1985.494	1.617	1997320	WORD	n/a	wordpools/wordpool_EN.txt	FUR	5	17	[0, 0, 0]	n/a	FR1	1	R1200T
1987.111	0.784	1998937	WORD_OFF	n/a	n/a	FUR	5	17	[0, 0, 0]	n/a	FR1	1	R1200T
1987.895	1.616	1999721	WORD	n/a	wordpools/wordpool_EN.txt	ARK	6	17	[0, 0, 0]	n/a	FR1	1	R1200T
1989.511	1.0	2001337	WORD_OFF	n/a	n/a	ARK	6	17	[0, 0, 0]	n/a	FR1	1	R1200T
1990.511	1.618	2002336	WORD	n/a	wordpools/wordpool_EN.txt	CHALK	7	17	[0, 0, 0]	n/a	FR1	1	R1200T
1992.129	0.783	2003954	WORD_OFF	n/a	n/a	CHALK	7	17	[0, 0, 0]	n/a	FR1	1	R1200T
1992.912	1.616	2004737	WORD	n/a	wordpools/wordpool_EN.txt	MOTH	8	17	[0, 0, 0]	n/a	FR1	1	R1200T
1994.528	0.802	2006353	WORD_OFF	n/a	n/a	MOTH	8	17	[0, 0, 0]	n/a	FR1	1	R1200T
1995.33	1.617	2007155	WORD	n/a	wordpools/wordpool_EN.txt	SHRIMP	9	17	[0, 0, 0]	n/a	FR1	1	R1200T
1996.947	0.933	2008772	WORD_OFF	n/a	n/a	SHRIMP	9	17	[0, 0, 0]	n/a	FR1	1	R1200T
1997.88	1.616	2009705	WORD	n/a	wordpools/wordpool_EN.txt	POOL	10	17	[0, 0, 0]	n/a	FR1	1	R1200T
1999.496	0.801	2011321	WORD_OFF	n/a	n/a	POOL	10	17	[0, 0, 0]	n/a	FR1	1	R1200T
2000.297	1.617	2012122	WORD	n/a	wordpools/wordpool_EN.txt	FLEA	11	17	[0, 0, 0]	n/a	FR1	1	R1200T
2001.914	0.766	2013739	WORD_OFF	n/a	n/a	FLEA	11	17	[0, 0, 0]	n/a	FR1	1	R1200T
2002.68	1.618	2014505	WORD	n/a	wordpools/wordpool_EN.txt	DIME	12	17	[0, 0, 0]	n/a	FR1	1	R1200T
2004.298	0.0	2016123	DISTRACT_START	n/a	n/a	n/a	-999	17	[0, 0, 0]	n/a	FR1	1	R1200T
2004.298	0.0	2016123	WORD_OFF	n/a	n/a	DIME	12	17	[0, 0, 0]	n/a	FR1	1	R1200T
2004.298	0.017	2016123	START	n/a	n/a	n/a	-999	17	[-999, -999, -999]	n/a	FR1	1	R1200T
2004.315	5.316	2016140	PROB	5.316	n/a	n/a	-999	17	[2, 4, 8]	14	FR1	1	R1200T
2009.631	7.152	2021455	PROB	7.152	n/a	n/a	-999	17	[9, 6, 9]	20	FR1	1	R1200T
2016.783	2.484	2028607	PROB	2.484	n/a	n/a	-999	17	[5, 1, 6]	11	FR1	1	R1200T
2019.267	7.763	2031091	PROB	7.763	n/a	n/a	-999	17	[4, 3, 3]	10	FR1	1	R1200T
2027.03	0.022	2038853	STOP	n/a	n/a	n/a	-999	17	[-999, -999, -999]	n/a	FR1	1	R1200T
2027.052	0.566	2038875	DISTRACT_END	n/a	n/a	n/a	-999	17	[0, 0, 0]	n/a	FR1	1	R1200T
2027.618	0.518	2039441	RETRIEVAL_ORIENT	n/a	n/a	n/a	-999	17	[0, 0, 0]	n/a	FR1	1	R1200T
2028.136	2.365	2039959	REC_START	n/a	n/a	n/a	-999	17	[0, 0, 0]	n/a	FR1	1	R1200T
2030.501	14.861	2042324	REC_WORD	14.861	n/a	BADGE	1	17	[0, 0, 0]	n/a	FR1	1	R1200T
2045.362	12.786	2057184	REC_WORD	12.786	n/a	DIME	12	17	[0, 0, 0]	n/a	FR1	1	R1200T
2058.148	5.261	2069970	REC_END	n/a	n/a	n/a	-999	17	[0, 0, 0]	n/a	FR1	1	R1200T
2063.409	0.5	2075230	TRIAL	n/a	n/a	n/a	-999	18	[0, 0, 0]	n/a	FR1	1	R1200T
2063.909	10.428	2075730	COUNTDOWN_START	n/a	n/a	n/a	-999	18	[0, 0, 0]	n/a	FR1	1	R1200T
2074.337	0.007	2086158	COUNTDOWN_END	n/a	n/a	n/a	-999	18	[0, 0, 0]	n/a	FR1	1	R1200T
2074.344	1.617	2086165	ORIENT	n/a	n/a	n/a	-999	18	[0, 0, 0]	n/a	FR1	1	R1200T
2075.961	2.234	2087781	ORIENT_OFF	n/a	n/a	n/a	-999	18	[0, 0, 0]	n/a	FR1	1	R1200T
2078.195	1.616	2090015	WORD	n/a	wordpools/wordpool_EN.txt	PIE	1	18	[0, 0, 0]	n/a	FR1	1	R1200T
2079.811	0.766	2091631	WORD_OFF	n/a	n/a	PIE	1	18	[0, 0, 0]	n/a	FR1	1	R1200T
2080.577	1.601	2092397	WORD	n/a	wordpools/wordpool_EN.txt	FOAM	2	18	[0, 0, 0]	n/a	FR1	1	R1200T
2082.178	1.001	2093998	WORD_OFF	n/a	n/a	FOAM	2	18	[0, 0, 0]	n/a	FR1	1	R1200T
2083.179	1.616	2094999	WORD	n/a	wordpools/wordpool_EN.txt	SOCK	3	18	[0, 0, 0]	n/a	FR1	1	R1200T
2084.795	0.883	2096615	WORD_OFF	n/a	n/a	SOCK	3	18	[0, 0, 0]	n/a	FR1	1	R1200T
2085.678	1.618	2097498	WORD	n/a	wordpools/wordpool_EN.txt	CALF	4	18	[0, 0, 0]	n/a	FR1	1	R1200T
2087.296	1.017	2099116	WORD_OFF	n/a	n/a	CALF	4	18	[0, 0, 0]	n/a	FR1	1	R1200T
2088.313	1.617	2100133	WORD	n/a	wordpools/wordpool_EN.txt	SCHOOL	5	18	[0, 0, 0]	n/a	FR1	1	R1200T
2089.93	0.833	2101750	WORD_OFF	n/a	n/a	SCHOOL	5	18	[0, 0, 0]	n/a	FR1	1	R1200T
2090.763	1.618	2102583	WORD	n/a	wordpools/wordpool_EN.txt	BOARD	6	18	[0, 0, 0]	n/a	FR1	1	R1200T
2092.381	0.933	2104201	WORD_OFF	n/a	n/a	BOARD	6	18	[0, 0, 0]	n/a	FR1	1	R1200T
2093.314	1.617	2105133	WORD	n/a	wordpools/wordpool_EN.txt	STRING	7	18	[0, 0, 0]	n/a	FR1	1	R1200T
2094.931	0.866	2106750	WORD_OFF	n/a	n/a	STRING	7	18	[0, 0, 0]	n/a	FR1	1	R1200T
2095.797	1.618	2107616	WORD	n/a	wordpools/wordpool_EN.txt	BEE	8	18	[0, 0, 0]	n/a	FR1	1	R1200T
2097.415	0.833	2109234	WORD_OFF	n/a	n/a	BEE	8	18	[0, 0, 0]	n/a	FR1	1	R1200T
2098.248	1.616	2110067	WORD	n/a	wordpools/wordpool_EN.txt	GUARD	9	18	[0, 0, 0]	n/a	FR1	1	R1200T
2099.864	0.867	2111683	WORD_OFF	n/a	n/a	GUARD	9	18	[0, 0, 0]	n/a	FR1	1	R1200T
2100.731	1.601	2112550	WORD	n/a	wordpools/wordpool_EN.txt	SWORD	10	18	[0, 0, 0]	n/a	FR1	1	R1200T
2102.332	0.817	2114151	WORD_OFF	n/a	n/a	SWORD	10	18	[0, 0, 0]	n/a	FR1	1	R1200T
2103.149	1.616	2114968	WORD	n/a	wordpools/wordpool_EN.txt	STREET	11	18	[0, 0, 0]	n/a	FR1	1	R1200T
2104.765	0.817	2116584	WORD_OFF	n/a	n/a	STREET	11	18	[0, 0, 0]	n/a	FR1	1	R1200T
2105.582	1.618	2117401	WORD	n/a	wordpools/wordpool_EN.txt	SLUSH	12	18	[0, 0, 0]	n/a	FR1	1	R1200T
2107.2	0.0	2119019	WORD_OFF	n/a	n/a	SLUSH	12	18	[0, 0, 0]	n/a	FR1	1	R1200T
2107.2	0.001	2119019	DISTRACT_START	n/a	n/a	n/a	-999	18	[0, 0, 0]	n/a	FR1	1	R1200T
2107.201	0.016	2119020	START	n/a	n/a	n/a	-999	18	[-999, -999, -999]	n/a	FR1	1	R1200T
2107.217	7.3	2119036	PROB	7.3	n/a	n/a	-999	18	[6, 7, 6]	19	FR1	1	R1200T
2114.517	13.12	2126335	PROB	13.12	n/a	n/a	-999	18	[7, 7, 9]	23	FR1	1	R1200T
2127.637	0.016	2139454	STOP	n/a	n/a	n/a	-999	18	[-999, -999, -999]	n/a	FR1	1	R1200T
2127.653	0.551	2139470	DISTRACT_END	n/a	n/a	n/a	-999	18	[0, 0, 0]	n/a	FR1	1	R1200T
2128.204	0.516	2140021	RETRIEVAL_ORIENT	n/a	n/a	n/a	-999	18	[0, 0, 0]	n/a	FR1	1	R1200T
2128.72	11.019	2140537	REC_START	n/a	n/a	n/a	-999	18	[0, 0, 0]	n/a	FR1	1	R1200T
2139.739	1.033	2151556	REC_WORD	1.033	n/a	SWORD	10	18	[0, 0, 0]	n/a	FR1	1	R1200T
2140.772	4.536	2152589	REC_WORD	4.536	n/a	STREET	11	18	[0, 0, 0]	n/a	FR1	1	R1200T
2145.308	1.0	2157124	REC_WORD	1.0	n/a	SCHOOL	5	18	[0, 0, 0]	n/a	FR1	1	R1200T
2146.308	6.112	2158124	REC_WORD_VV	6.112	n/a	<>	-999	18	[0, 0, 0]	n/a	FR1	1	R1200T
2152.42	0.438	2164236	REC_WORD	0.438	n/a	PIE	1	18	[0, 0, 0]	n/a	FR1	1	R1200T
2152.858	5.872	2164674	REC_WORD	5.872	n/a	FOAM	2	18	[0, 0, 0]	n/a	FR1	1	R1200T
2158.73	4.913	2170546	REC_END	n/a	n/a	n/a	-999	18	[0, 0, 0]	n/a	FR1	1	R1200T
2163.643	0.5	2175458	TRIAL	n/a	n/a	n/a	-999	19	[0, 0, 0]	n/a	FR1	1	R1200T
2164.143	10.428	2175958	COUNTDOWN_START	n/a	n/a	n/a	-999	19	[0, 0, 0]	n/a	FR1	1	R1200T
2174.571	0.007	2186386	COUNTDOWN_END	n/a	n/a	n/a	-999	19	[0, 0, 0]	n/a	FR1	1	R1200T
2174.578	1.601	2186393	ORIENT	n/a	n/a	n/a	-999	19	[0, 0, 0]	n/a	FR1	1	R1200T
2176.179	2.1	2187994	ORIENT_OFF	n/a	n/a	n/a	-999	19	[0, 0, 0]	n/a	FR1	1	R1200T
2178.279	1.617	2190094	WORD	n/a	wordpools/wordpool_EN.txt	BED	1	19	[0, 0, 0]	n/a	FR1	1	R1200T
2179.896	0.816	2191710	WORD_OFF	n/a	n/a	BED	1	19	[0, 0, 0]	n/a	FR1	1	R1200T
2180.712	1.618	2192526	WORD	n/a	wordpools/wordpool_EN.txt	BOWL	2	19	[0, 0, 0]	n/a	FR1	1	R1200T
2182.33	0.984	2194144	WORD_OFF	n/a	n/a	BOWL	2	19	[0, 0, 0]	n/a	FR1	1	R1200T
2183.314	1.617	2195128	WORD	n/a	wordpools/wordpool_EN.txt	WORM	3	19	[0, 0, 0]	n/a	FR1	1	R1200T
2184.931	0.882	2196745	WORD_OFF	n/a	n/a	WORM	3	19	[0, 0, 0]	n/a	FR1	1	R1200T
2185.813	1.601	2197627	WORD	n/a	wordpools/wordpool_EN.txt	LEG	4	19	[0, 0, 0]	n/a	FR1	1	R1200T
2187.414	0.784	2199228	WORD_OFF	n/a	n/a	LEG	4	19	[0, 0, 0]	n/a	FR1	1	R1200T
2188.198	1.616	2200012	WORD	n/a	wordpools/wordpool_EN.txt	BENCH	5	19	[0, 0, 0]	n/a	FR1	1	R1200T
2189.814	0.85	2201628	WORD_OFF	n/a	n/a	BENCH	5	19	[0, 0, 0]	n/a	FR1	1	R1200T
2190.664	1.618	2202478	WORD	n/a	wordpools/wordpool_EN.txt	HILL	6	19	[0, 0, 0]	n/a	FR1	1	R1200T
2192.282	0.817	2204096	WORD_OFF	n/a	n/a	HILL	6	19	[0, 0, 0]	n/a	FR1	1	R1200T
2193.099	1.616	2204913	WORD	n/a	wordpools/wordpool_EN.txt	MUD	7	19	[0, 0, 0]	n/a	FR1	1	R1200T
2194.715	0.817	2206529	WORD_OFF	n/a	n/a	MUD	7	19	[0, 0, 0]	n/a	FR1	1	R1200T
2195.532	1.618	2207345	WORD	n/a	wordpools/wordpool_EN.txt	NOSE	8	19	[0, 0, 0]	n/a	FR1	1	R1200T
2197.15	0.833	2208963	WORD_OFF	n/a	n/a	NOSE	8	19	[0, 0, 0]	n/a	FR1	1	R1200T
2197.983	1.616	2209796	WORD	n/a	wordpools/wordpool_EN.txt	GLASS	9	19	[0, 0, 0]	n/a	FR1	1	R1200T
2199.599	1.0	2211412	WORD_OFF	n/a	n/a	GLASS	9	19	[0, 0, 0]	n/a	FR1	1	R1200T
2200.599	1.618	2212412	WORD	n/a	wordpools/wordpool_EN.txt	FACE	10	19	[0, 0, 0]	n/a	FR1	1	R1200T
2202.217	0.767	2214030	WORD_OFF	n/a	n/a	FACE	10	19	[0, 0, 0]	n/a	FR1	1	R1200T
2202.984	1.616	2214797	WORD	n/a	wordpools/wordpool_EN.txt	FOOD	11	19	[0, 0, 0]	n/a	FR1	1	R1200T
2204.6	0.867	2216413	WORD_OFF	n/a	n/a	FOOD	11	19	[0, 0, 0]	n/a	FR1	1	R1200T
2205.467	1.618	2217280	WORD	n/a	wordpools/wordpool_EN.txt	SHARK	12	19	[0, 0, 0]	n/a	FR1	1	R1200T
2207.085	0.0	2218898	WORD_OFF	n/a	n/a	SHARK	12	19	[0, 0, 0]	n/a	FR1	1	R1200T
2207.085	0.0	2218898	DISTRACT_START	n/a	n/a	n/a	-999	19	[0, 0, 0]	n/a	FR1	1	R1200T
2207.085	0.016	2218898	START	n/a	n/a	n/a	-999	19	[-999, -999, -999]	n/a	FR1	1	R1200T
2207.101	6.835	2218914	PROB	6.835	n/a	n/a	-999	19	[3, 8, 6]	17	FR1	1	R1200T
2213.936	4.683	2225748	PROB	4.683	n/a	n/a	-999	19	[4, 2, 5]	11	FR1	1	R1200T
2218.619	3.519	2230431	PROB	3.519	n/a	n/a	-999	19	[2, 2, 4]	6	FR1	1	R1200T
2222.138	4.383	2233950	PROB	4.383	n/a	n/a	-999	19	[8, 3, 7]	18	FR1	1	R1200T
2226.521	3.997	2238333	PROB	3.997	n/a	n/a	-999	19	[2, 7, 7]	16	FR1	1	R1200T
2230.518	0.02	2242329	STOP	n/a	n/a	n/a	-999	19	[-999, -999, -999]	n/a	FR1	1	R1200T
2230.538	0.534	2242349	DISTRACT_END	n/a	n/a	n/a	-999	19	[0, 0, 0]	n/a	FR1	1	R1200T
2231.072	0.517	2242883	RETRIEVAL_ORIENT	n/a	n/a	n/a	-999	19	[0, 0, 0]	n/a	FR1	1	R1200T
2231.589	10.774	2243400	REC_START	n/a	n/a	n/a	-999	19	[0, 0, 0]	n/a	FR1	1	R1200T
2242.363	9.965	2254174	REC_WORD_VV	9.965	n/a	<>	-999	19	[0, 0, 0]	n/a	FR1	1	R1200T
2252.328	1.0	2264138	REC_WORD_VV	1.0	n/a	<>	-999	19	[0, 0, 0]	n/a	FR1	1	R1200T
2253.328	1.0	2265138	REC_WORD_VV	1.0	n/a	<>	-999	19	[0, 0, 0]	n/a	FR1	1	R1200T
2254.328	1.0	2266138	REC_WORD_VV	1.0	n/a	<>	-999	19	[0, 0, 0]	n/a	FR1	1	R1200T
2255.328	6.271	2267138	REC_WORD_VV	6.271	n/a	<>	-999	19	[0, 0, 0]	n/a	FR1	1	R1200T
2261.599	4.796	2273409	REC_END	n/a	n/a	n/a	-999	19	[0, 0, 0]	n/a	FR1	1	R1200T
2266.395	0.5	2278204	TRIAL	n/a	n/a	n/a	-999	20	[0, 0, 0]	n/a	FR1	1	R1200T
2266.895	10.428	2278704	COUNTDOWN_START	n/a	n/a	n/a	-999	20	[0, 0, 0]	n/a	FR1	1	R1200T
2277.323	0.008	2289132	COUNTDOWN_END	n/a	n/a	n/a	-999	20	[0, 0, 0]	n/a	FR1	1	R1200T
2277.331	1.617	2289140	ORIENT	n/a	n/a	n/a	-999	20	[0, 0, 0]	n/a	FR1	1	R1200T
2278.948	2.034	2290757	ORIENT_OFF	n/a	n/a	n/a	-999	20	[0, 0, 0]	n/a	FR1	1	R1200T
2280.982	1.616	2292791	WORD	n/a	wordpools/wordpool_EN.txt	RAT	1	20	[0, 0, 0]	n/a	FR1	1	R1200T
2282.598	0.983	2294406	WORD_OFF	n/a	n/a	RAT	1	20	[0, 0, 0]	n/a	FR1	1	R1200T
2283.581	1.601	2295389	WORD	n/a	wordpools/wordpool_EN.txt	BRICK	2	20	[0, 0, 0]	n/a	FR1	1	R1200T
2285.182	0.934	2296990	WORD_OFF	n/a	n/a	BRICK	2	20	[0, 0, 0]	n/a	FR1	1	R1200T
2286.116	1.616	2297924	WORD	n/a	wordpools/wordpool_EN.txt	HAWK	3	20	[0, 0, 0]	n/a	FR1	1	R1200T
2287.732	0.9	2299540	WORD_OFF	n/a	n/a	HAWK	3	20	[0, 0, 0]	n/a	FR1	1	R1200T
2288.632	1.618	2300440	WORD	n/a	wordpools/wordpool_EN.txt	HOOF	4	20	[0, 0, 0]	n/a	FR1	1	R1200T
2290.25	0.867	2302058	WORD_OFF	n/a	n/a	HOOF	4	20	[0, 0, 0]	n/a	FR1	1	R1200T
2291.117	1.616	2302925	WORD	n/a	wordpools/wordpool_EN.txt	SPARK	5	20	[0, 0, 0]	n/a	FR1	1	R1200T
2292.733	0.766	2304541	WORD_OFF	n/a	n/a	SPARK	5	20	[0, 0, 0]	n/a	FR1	1	R1200T
2293.499	1.602	2305307	WORD	n/a	wordpools/wordpool_EN.txt	HOLE	6	20	[0, 0, 0]	n/a	FR1	1	R1200T
2295.101	0.867	2306909	WORD_OFF	n/a	n/a	HOLE	6	20	[0, 0, 0]	n/a	FR1	1	R1200T
2295.968	1.616	2307776	WORD	n/a	wordpools/wordpool_EN.txt	CLIFF	7	20	[0, 0, 0]	n/a	FR1	1	R1200T
2297.584	0.883	2309392	WORD_OFF	n/a	n/a	CLIFF	7	20	[0, 0, 0]	n/a	FR1	1	R1200T
2298.467	1.601	2310274	WORD	n/a	wordpools/wordpool_EN.txt	SOUP	8	20	[0, 0, 0]	n/a	FR1	1	R1200T
2300.068	0.85	2311875	WORD_OFF	n/a	n/a	SOUP	8	20	[0, 0, 0]	n/a	FR1	1	R1200T
2300.918	1.616	2312725	WORD	n/a	wordpools/wordpool_EN.txt	MOON	9	20	[0, 0, 0]	n/a	FR1	1	R1200T
2302.534	0.852	2314341	WORD_OFF	n/a	n/a	MOON	9	20	[0, 0, 0]	n/a	FR1	1	R1200T
2303.386	1.617	2315193	WORD	n/a	wordpools/wordpool_EN.txt	TEETH	10	20	[0, 0, 0]	n/a	FR1	1	R1200T
2305.003	0.883	2316810	WORD_OFF	n/a	n/a	TEETH	10	20	[0, 0, 0]	n/a	FR1	1	R1200T
2305.886	1.616	2317693	WORD	n/a	wordpools/wordpool_EN.txt	ANT	11	20	[0, 0, 0]	n/a	FR1	1	R1200T
2307.502	0.983	2319309	WORD_OFF	n/a	n/a	ANT	11	20	[0, 0, 0]	n/a	FR1	1	R1200T
2308.485	1.602	2320292	WORD	n/a	wordpools/wordpool_EN.txt	GATE	12	20	[0, 0, 0]	n/a	FR1	1	R1200T
2310.087	0.0	2321894	WORD_OFF	n/a	n/a	GATE	12	20	[0, 0, 0]	n/a	FR1	1	R1200T
2310.087	0.0	2321894	DISTRACT_START	n/a	n/a	n/a	-999	20	[0, 0, 0]	n/a	FR1	1	R1200T
2310.087	0.017	2321894	START	n/a	n/a	n/a	-999	20	[-999, -999, -999]	n/a	FR1	1	R1200T
2310.104	8.633	2321911	PROB	8.633	n/a	n/a	-999	20	[7, 9, 4]	10	FR1	1	R1200T
2318.737	3.851	2330543	PROB	3.851	n/a	n/a	-999	20	[8, 4, 4]	16	FR1	1	R1200T
2322.588	1.751	2334394	PROB	1.751	n/a	n/a	-999	20	[9, 1, 6]	16	FR1	1	R1200T
2324.339	5.5	2336145	PROB	5.5	n/a	n/a	-999	20	[6, 5, 9]	20	FR1	1	R1200T
2329.839	4.384	2341645	PROB	4.384	n/a	n/a	-999	20	[8, 9, 4]	22	FR1	1	R1200T
2334.223	0.018	2346028	STOP	n/a	n/a	n/a	-999	20	[-999, -999, -999]	n/a	FR1	1	R1200T
2334.241	0.667	2346046	DISTRACT_END	n/a	n/a	n/a	-999	20	[0, 0, 0]	n/a	FR1	1	R1200T
2334.908	0.517	2346713	RETRIEVAL_ORIENT	n/a	n/a	n/a	-999	20	[0, 0, 0]	n/a	FR1	1	R1200T
2335.425	1.429	2347230	REC_START	n/a	n/a	n/a	-999	20	[0, 0, 0]	n/a	FR1	1	R1200T
2336.854	1.036	2348659	REC_WORD	1.036	n/a	RAT	1	20	[0, 0, 0]	n/a	FR1	1	R1200T
2337.89	6.632	2349695	REC_WORD	6.632	n/a	BRICK	2	20	[0, 0, 0]	n/a	FR1	1	R1200T
2344.522	20.915	2356327	REC_WORD	20.915	n/a	TOOTH	-999	20	[0, 0, 0]	n/a	FR1	1	R1200T
2365.437	6.544	2377241	REC_END	n/a	n/a	n/a	-999	20	[0, 0, 0]	n/a	FR1	1	R1200T
2371.981	0.5	2383784	TRIAL	n/a	n/a	n/a	-999	21	[0, 0, 0]	n/a	FR1	1	R1200T
2372.481	10.428	2384284	COUNTDOWN_START	n/a	n/a	n/a	-999	21	[0, 0, 0]	n/a	FR1	1	R1200T
2382.909	0.008	2394712	COUNTDOWN_END	n/a	n/a	n/a	-999	21	[0, 0, 0]	n/a	FR1	1	R1200T
2382.917	1.616	2394720	ORIENT	n/a	n/a	n/a	-999	21	[0, 0, 0]	n/a	FR1	1	R1200T
2384.533	2.233	2396335	ORIENT_OFF	n/a	n/a	n/a	-999	21	[0, 0, 0]	n/a	FR1	1	R1200T
2386.766	1.601	2398568	WORD	n/a	wordpools/wordpool_EN.txt	BIRD	1	21	[0, 0, 0]	n/a	FR1	1	R1200T
2388.367	0.917	2400169	WORD_OFF	n/a	n/a	BIRD	1	21	[0, 0, 0]	n/a	FR1	1	R1200T
2389.284	1.617	2401086	WORD	n/a	wordpools/wordpool_EN.txt	ICE	2	21	[0, 0, 0]	n/a	FR1	1	R1200T
2390.901	0.984	2402703	WORD_OFF	n/a	n/a	ICE	2	21	[0, 0, 0]	n/a	FR1	1	R1200T
2391.885	1.616	2403687	WORD	n/a	wordpools/wordpool_EN.txt	NET	3	21	[0, 0, 0]	n/a	FR1	1	R1200T
2393.501	0.818	2405303	WORD_OFF	n/a	n/a	NET	3	21	[0, 0, 0]	n/a	FR1	1	R1200T
2394.319	1.617	2406121	WORD	n/a	wordpools/wordpool_EN.txt	STORM	4	21	[0, 0, 0]	n/a	FR1	1	R1200T
2395.936	1.0	2407738	WORD_OFF	n/a	n/a	STORM	4	21	[0, 0, 0]	n/a	FR1	1	R1200T
2396.936	1.616	2408738	WORD	n/a	wordpools/wordpool_EN.txt	RUG	5	21	[0, 0, 0]	n/a	FR1	1	R1200T
2398.552	0.967	2410354	WORD_OFF	n/a	n/a	RUG	5	21	[0, 0, 0]	n/a	FR1	1	R1200T
2399.519	1.618	2411321	WORD	n/a	wordpools/wordpool_EN.txt	EEL	6	21	[0, 0, 0]	n/a	FR1	1	R1200T
2401.137	0.8	2412939	WORD_OFF	n/a	n/a	EEL	6	21	[0, 0, 0]	n/a	FR1	1	R1200T
2401.937	1.616	2413738	WORD	n/a	wordpools/wordpool_EN.txt	CLOCK	7	21	[0, 0, 0]	n/a	FR1	1	R1200T
2403.553	0.967	2415354	WORD_OFF	n/a	n/a	CLOCK	7	21	[0, 0, 0]	n/a	FR1	1	R1200T
2404.52	1.618	2416321	WORD	n/a	wordpools/wordpool_EN.txt	TOOTH	8	21	[0, 0, 0]	n/a	FR1	1	R1200T
2406.138	0.866	2417939	WORD_OFF	n/a	n/a	TOOTH	8	21	[0, 0, 0]	n/a	FR1	1	R1200T
2407.004	1.616	2418805	WORD	n/a	wordpools/wordpool_EN.txt	INK	9	21	[0, 0, 0]	n/a	FR1	1	R1200T
2408.62	0.884	2420421	WORD_OFF	n/a	n/a	INK	9	21	[0, 0, 0]	n/a	FR1	1	R1200T
2409.504	1.618	2421305	WORD	n/a	wordpools/wordpool_EN.txt	SKY	10	21	[0, 0, 0]	n/a	FR1	1	R1200T
2411.122	0.783	2422923	WORD_OFF	n/a	n/a	SKY	10	21	[0, 0, 0]	n/a	FR1	1	R1200T
2411.905	1.616	2423706	WORD	n/a	wordpools/wordpool_EN.txt	LAND	11	21	[0, 0, 0]	n/a	FR1	1	R1200T
2413.521	0.95	2425322	WORD_OFF	n/a	n/a	LAND	11	21	[0, 0, 0]	n/a	FR1	1	R1200T
2414.471	1.601	2426272	WORD	n/a	wordpools/wordpool_EN.txt	DOG	12	21	[0, 0, 0]	n/a	FR1	1	R1200T
2416.072	0.0	2427873	WORD_OFF	n/a	n/a	DOG	12	21	[0, 0, 0]	n/a	FR1	1	R1200T
2416.072	0.001	2427873	DISTRACT_START	n/a	n/a	n/a	-999	21	[0, 0, 0]	n/a	FR1	1	R1200T
2416.073	0.016	2427874	START	n/a	n/a	n/a	-999	21	[-999, -999, -999]	n/a	FR1	1	R1200T
2416.089	3.268	2427890	PROB	3.268	n/a	n/a	-999	21	[5, 5, 2]	12	FR1	1	R1200T
2419.357	4.1	2431157	PROB	4.1	n/a	n/a	-999	21	[9, 6, 2]	17	FR1	1	R1200T
2423.457	1.634	2435257	PROB	1.634	n/a	n/a	-999	21	[3, 1, 7]	11	FR1	1	R1200T
2425.091	4.717	2436891	PROB	4.717	n/a	n/a	-999	21	[4, 9, 9]	23	FR1	1	R1200T
2429.808	2.268	2441608	PROB	2.268	n/a	n/a	-999	21	[7, 3, 6]	16	FR1	1	R1200T
2432.076	2.917	2443876	PROB	2.917	n/a	n/a	-999	21	[7, 2, 5]	14	FR1	1	R1200T
2434.993	5.111	2446793	PROB	5.111	n/a	n/a	-999	21	[4, 2, 3]	9	FR1	1	R1200T
2440.104	0.006	2451903	STOP	n/a	n/a	n/a	-999	21	[-999, -999, -999]	n/a	FR1	1	R1200T
2440.11	0.55	2451909	DISTRACT_END	n/a	n/a	n/a	-999	21	[0, 0, 0]	n/a	FR1	1	R1200T
2440.66	0.518	2452459	RETRIEVAL_ORIENT	n/a	n/a	n/a	-999	21	[0, 0, 0]	n/a	FR1	1	R1200T
2441.178	2.55	2452977	REC_START	n/a	n/a	n/a	-999	21	[0, 0, 0]	n/a	FR1	1	R1200T
2443.728	0.495	2455527	REC_WORD	0.495	n/a	TOOTH	8	21	[0, 0, 0]	n/a	FR1	1	R1200T
2444.223	1.217	2456022	REC_WORD	1.217	n/a	SKY	10	21	[0, 0, 0]	n/a	FR1	1	R1200T
2445.44	2.054	2457239	REC_WORD	2.054	n/a	BIRD	1	21	[0, 0, 0]	n/a	FR1	1	R1200T
2447.494	11.34	2459293	REC_WORD	11.34	n/a	NET	3	21	[0, 0, 0]	n/a	FR1	1	R1200T
2458.834	12.354	2470632	REC_WORD	12.354	n/a	STORM	4	21	[0, 0, 0]	n/a	FR1	1	R1200T
2471.188	4.495	2482985	REC_END	n/a	n/a	n/a	-999	21	[0, 0, 0]	n/a	FR1	1	R1200T
2475.683	0.5	2487480	TRIAL	n/a	n/a	n/a	-999	22	[0, 0, 0]	n/a	FR1	1	R1200T
2476.183	10.428	2487980	COUNTDOWN_START	n/a	n/a	n/a	-999	22	[0, 0, 0]	n/a	FR1	1	R1200T
2486.611	0.007	2498408	COUNTDOWN_END	n/a	n/a	n/a	-999	22	[0, 0, 0]	n/a	FR1	1	R1200T
2486.618	1.618	2498415	ORIENT	n/a	n/a	n/a	-999	22	[0, 0, 0]	n/a	FR1	1	R1200T
2488.236	2.283	2500032	ORIENT_OFF	n/a	n/a	n/a	-999	22	[0, 0, 0]	n/a	FR1	1	R1200T
2490.519	1.618	2502315	WORD	n/a	wordpools/wordpool_EN.txt	PIN	1	22	[0, 0, 0]	n/a	FR1	1	R1200T
2492.137	0.85	2503933	WORD_OFF	n/a	n/a	PIN	1	22	[0, 0, 0]	n/a	FR1	1	R1200T
2492.987	1.616	2504783	WORD	n/a	wordpools/wordpool_EN.txt	TRAY	2	22	[0, 0, 0]	n/a	FR1	1	R1200T
2494.603	0.866	2506399	WORD_OFF	n/a	n/a	TRAY	2	22	[0, 0, 0]	n/a	FR1	1	R1200T
2495.469	1.602	2507265	WORD	n/a	wordpools/wordpool_EN.txt	BAND	3	22	[0, 0, 0]	n/a	FR1	1	R1200T
2497.071	0.983	2508867	WORD_OFF	n/a	n/a	BAND	3	22	[0, 0, 0]	n/a	FR1	1	R1200T
2498.054	1.616	2509850	WORD	n/a	wordpools/wordpool_EN.txt	BRUSH	4	22	[0, 0, 0]	n/a	FR1	1	R1200T
2499.67	0.984	2511466	WORD_OFF	n/a	n/a	BRUSH	4	22	[0, 0, 0]	n/a	FR1	1	R1200T
2500.654	1.618	2512450	WORD	n/a	wordpools/wordpool_EN.txt	CAGE	5	22	[0, 0, 0]	n/a	FR1	1	R1200T
2502.272	0.917	2514068	WORD_OFF	n/a	n/a	CAGE	5	22	[0, 0, 0]	n/a	FR1	1	R1200T
2503.189	1.616	2514985	WORD	n/a	wordpools/wordpool_EN.txt	DUCK	6	22	[0, 0, 0]	n/a	FR1	1	R1200T
2504.805	0.766	2516600	WORD_OFF	n/a	n/a	DUCK	6	22	[0, 0, 0]	n/a	FR1	1	R1200T
2505.571	1.601	2517366	WORD	n/a	wordpools/wordpool_EN.txt	SMILE	7	22	[0, 0, 0]	n/a	FR1	1	R1200T
2507.172	0.767	2518967	WORD_OFF	n/a	n/a	SMILE	7	22	[0, 0, 0]	n/a	FR1	1	R1200T
2507.939	1.616	2519734	WORD	n/a	wordpools/wordpool_EN.txt	PALM	8	22	[0, 0, 0]	n/a	FR1	1	R1200T
2509.555	0.852	2521350	WORD_OFF	n/a	n/a	PALM	8	22	[0, 0, 0]	n/a	FR1	1	R1200T
2510.407	1.617	2522202	WORD	n/a	wordpools/wordpool_EN.txt	RIB	9	22	[0, 0, 0]	n/a	FR1	1	R1200T
2512.024	0.815	2523819	WORD_OFF	n/a	n/a	RIB	9	22	[0, 0, 0]	n/a	FR1	1	R1200T
2512.839	1.618	2524634	WORD	n/a	wordpools/wordpool_EN.txt	CHAIR	10	22	[0, 0, 0]	n/a	FR1	1	R1200T
2514.457	0.884	2526252	WORD_OFF	n/a	n/a	CHAIR	10	22	[0, 0, 0]	n/a	FR1	1	R1200T
2515.341	1.617	2527136	WORD	n/a	wordpools/wordpool_EN.txt	CUP	11	22	[0, 0, 0]	n/a	FR1	1	R1200T
2516.958	0.966	2528753	WORD_OFF	n/a	n/a	CUP	11	22	[0, 0, 0]	n/a	FR1	1	R1200T
2517.924	1.617	2529719	WORD	n/a	wordpools/wordpool_EN.txt	SINK	12	22	[0, 0, 0]	n/a	FR1	1	R1200T
2519.541	0.0	2531336	WORD_OFF	n/a	n/a	SINK	12	22	[0, 0, 0]	n/a	FR1	1	R1200T
2519.541	0.0	2531336	DISTRACT_START	n/a	n/a	n/a	-999	22	[0, 0, 0]	n/a	FR1	1	R1200T
2519.541	0.016	2531336	START	n/a	n/a	n/a	-999	22	[-999, -999, -999]	n/a	FR1	1	R1200T
2519.557	4.802	2531352	PROB	4.802	n/a	n/a	-999	22	[8, 1, 6]	15	FR1	1	R1200T
2524.359	2.784	2536153	PROB	2.784	n/a	n/a	-999	22	[5, 5, 7]	17	FR1	1	R1200T
2527.143	6.935	2538937	PROB	6.935	n/a	n/a	-999	22	[5, 3, 6]	12	FR1	1	R1200T
2534.078	11.322	2545872	PROB	11.322	n/a	n/a	-999	22	[6, 6, 7]	19	FR1	1	R1200T
2545.4	0.013	2557193	STOP	n/a	n/a	n/a	-999	22	[-999, -999, -999]	n/a	FR1	1	R1200T
2545.413	0.65	2557206	DISTRACT_END	n/a	n/a	n/a	-999	22	[0, 0, 0]	n/a	FR1	1	R1200T
2546.063	0.516	2557856	RETRIEVAL_ORIENT	n/a	n/a	n/a	-999	22	[0, 0, 0]	n/a	FR1	1	R1200T
2546.579	2.06	2558372	REC_START	n/a	n/a	n/a	-999	22	[0, 0, 0]	n/a	FR1	1	R1200T
2548.639	27.951	2560432	REC_WORD	27.951	n/a	PIN	1	22	[0, 0, 0]	n/a	FR1	1	R1200T
2576.59	4.429	2588381	REC_END	n/a	n/a	n/a	-999	22	[0, 0, 0]	n/a	FR1	1	R1200T
2581.019	0.5	2592810	TRIAL	n/a	n/a	n/a	-999	23	[0, 0, 0]	n/a	FR1	1	R1200T
2581.519	10.428	2593310	COUNTDOWN_START	n/a	n/a	n/a	-999	23	[0, 0, 0]	n/a	FR1	1	R1200T
2591.947	0.008	2603737	COUNTDOWN_END	n/a	n/a	n/a	-999	23	[0, 0, 0]	n/a	FR1	1	R1200T
2591.955	1.616	2603745	ORIENT	n/a	n/a	n/a	-999	23	[0, 0, 0]	n/a	FR1	1	R1200T
2593.571	2.067	2605361	ORIENT_OFF	n/a	n/a	n/a	-999	23	[0, 0, 0]	n/a	FR1	1	R1200T
2595.638	1.618	2607428	WORD	n/a	wordpools/wordpool_EN.txt	CHEEK	1	23	[0, 0, 0]	n/a	FR1	1	R1200T
2597.256	0.817	2609046	WORD_OFF	n/a	n/a	CHEEK	1	23	[0, 0, 0]	n/a	FR1	1	R1200T
2598.073	1.615	2609863	WORD	n/a	wordpools/wordpool_EN.txt	KEY	2	23	[0, 0, 0]	n/a	FR1	1	R1200T
2599.688	0.934	2611478	WORD_OFF	n/a	n/a	KEY	2	23	[0, 0, 0]	n/a	FR1	1	R1200T
2600.622	1.618	2612412	WORD	n/a	wordpools/wordpool_EN.txt	CASH	3	23	[0, 0, 0]	n/a	FR1	1	R1200T
2602.24	0.95	2614030	WORD_OFF	n/a	n/a	CASH	3	23	[0, 0, 0]	n/a	FR1	1	R1200T
2603.19	1.616	2614980	WORD	n/a	wordpools/wordpool_EN.txt	SHIP	4	23	[0, 0, 0]	n/a	FR1	1	R1200T
2604.806	0.784	2616596	WORD_OFF	n/a	n/a	SHIP	4	23	[0, 0, 0]	n/a	FR1	1	R1200T
2605.59	1.617	2617380	WORD	n/a	wordpools/wordpool_EN.txt	RAIN	5	23	[0, 0, 0]	n/a	FR1	1	R1200T
2607.207	0.767	2618996	WORD_OFF	n/a	n/a	RAIN	5	23	[0, 0, 0]	n/a	FR1	1	R1200T
2607.974	1.616	2619763	WORD	n/a	wordpools/wordpool_EN.txt	SKUNK	6	23	[0, 0, 0]	n/a	FR1	1	R1200T
2609.59	0.984	2621379	WORD_OFF	n/a	n/a	SKUNK	6	23	[0, 0, 0]	n/a	FR1	1	R1200T
2610.574	1.618	2622363	WORD	n/a	wordpools/wordpool_EN.txt	CHIEF	7	23	[0, 0, 0]	n/a	FR1	1	R1200T
2612.192	0.95	2623981	WORD_OFF	n/a	n/a	CHIEF	7	23	[0, 0, 0]	n/a	FR1	1	R1200T
2613.142	1.616	2624931	WORD	n/a	wordpools/wordpool_EN.txt	WORLD	8	23	[0, 0, 0]	n/a	FR1	1	R1200T
2614.758	1.0	2626547	WORD_OFF	n/a	n/a	WORLD	8	23	[0, 0, 0]	n/a	FR1	1	R1200T
2615.758	1.618	2627547	WORD	n/a	wordpools/wordpool_EN.txt	FISH	9	23	[0, 0, 0]	n/a	FR1	1	R1200T
2617.376	0.867	2629165	WORD_OFF	n/a	n/a	FISH	9	23	[0, 0, 0]	n/a	FR1	1	R1200T
2618.243	1.616	2630032	WORD	n/a	wordpools/wordpool_EN.txt	TENT	10	23	[0, 0, 0]	n/a	FR1	1	R1200T
2619.859	0.917	2631648	WORD_OFF	n/a	n/a	TENT	10	23	[0, 0, 0]	n/a	FR1	1	R1200T
2620.776	1.617	2632565	WORD	n/a	wordpools/wordpool_EN.txt	PARK	11	23	[0, 0, 0]	n/a	FR1	1	R1200T
2622.393	0.901	2634182	WORD_OFF	n/a	n/a	PARK	11	23	[0, 0, 0]	n/a	FR1	1	R1200T
2623.294	1.617	2635083	WORD	n/a	wordpools/wordpool_EN.txt	MAIL	12	23	[0, 0, 0]	n/a	FR1	1	R1200T
2624.911	0.0	2636699	WORD_OFF	n/a	n/a	MAIL	12	23	[0, 0, 0]	n/a	FR1	1	R1200T
2624.911	0.0	2636699	DISTRACT_START	n/a	n/a	n/a	-999	23	[0, 0, 0]	n/a	FR1	1	R1200T
2624.911	0.016	2636699	START	n/a	n/a	n/a	-999	23	[-999, -999, -999]	n/a	FR1	1	R1200T
2624.927	2.984	2636715	PROB	2.984	n/a	n/a	-999	23	[6, 5, 2]	13	FR1	1	R1200T
2627.911	4.001	2639699	PROB	4.001	n/a	n/a	-999	23	[9, 4, 6]	19	FR1	1	R1200T
2631.912	10.385	2643700	PROB	10.385	n/a	n/a	-999	23	[7, 9, 9]	26	FR1	1	R1200T
2642.297	3.951	2654084	PROB	3.951	n/a	n/a	-999	23	[9, 5, 2]	16	FR1	1	R1200T
2646.248	0.017	2658035	STOP	n/a	n/a	n/a	-999	23	[-999, -999, -999]	n/a	FR1	1	R1200T
2646.265	0.616	2658052	DISTRACT_END	n/a	n/a	n/a	-999	23	[0, 0, 0]	n/a	FR1	1	R1200T
2646.881	0.518	2658668	RETRIEVAL_ORIENT	n/a	n/a	n/a	-999	23	[0, 0, 0]	n/a	FR1	1	R1200T
2647.399	9.764	2659186	REC_START	n/a	n/a	n/a	-999	23	[0, 0, 0]	n/a	FR1	1	R1200T
2657.163	15.794	2668950	REC_WORD_VV	15.794	n/a	<>	-999	23	[0, 0, 0]	n/a	FR1	1	R1200T
2672.957	4.452	2684743	REC_WORD_VV	4.452	n/a	<>	-999	23	[0, 0, 0]	n/a	FR1	1	R1200T
2677.409	7.563	2689194	REC_END	n/a	n/a	n/a	-999	23	[0, 0, 0]	n/a	FR1	1	R1200T
2684.972	0.5	2696757	TRIAL	n/a	n/a	n/a	-999	24	[0, 0, 0]	n/a	FR1	1	R1200T
2685.472	10.428	2697257	COUNTDOWN_START	n/a	n/a	n/a	-999	24	[0, 0, 0]	n/a	FR1	1	R1200T
2695.9	0.007	2707684	COUNTDOWN_END	n/a	n/a	n/a	-999	24	[0, 0, 0]	n/a	FR1	1	R1200T
2695.907	1.616	2707691	ORIENT	n/a	n/a	n/a	-999	24	[0, 0, 0]	n/a	FR1	1	R1200T
2697.523	2.184	2709307	ORIENT_OFF	n/a	n/a	n/a	-999	24	[0, 0, 0]	n/a	FR1	1	R1200T
2699.707	1.618	2711491	WORD	n/a	wordpools/wordpool_EN.txt	PEN	1	24	[0, 0, 0]	n/a	FR1	1	R1200T
2701.325	0.933	2713109	WORD_OFF	n/a	n/a	PEN	1	24	[0, 0, 0]	n/a	FR1	1	R1200T
2702.258	1.617	2714042	WORD	n/a	wordpools/wordpool_EN.txt	FUDGE	2	24	[0, 0, 0]	n/a	FR1	1	R1200T
2703.875	0.966	2715659	WORD_OFF	n/a	n/a	FUDGE	2	24	[0, 0, 0]	n/a	FR1	1	R1200T
2704.841	1.618	2716625	WORD	n/a	wordpools/wordpool_EN.txt	ZOO	3	24	[0, 0, 0]	n/a	FR1	1	R1200T
2706.459	0.967	2718243	WORD_OFF	n/a	n/a	ZOO	3	24	[0, 0, 0]	n/a	FR1	1	R1200T
2707.426	1.617	2719210	WORD	n/a	wordpools/wordpool_EN.txt	ROSE	4	24	[0, 0, 0]	n/a	FR1	1	R1200T
2709.043	0.916	2720827	WORD_OFF	n/a	n/a	ROSE	4	24	[0, 0, 0]	n/a	FR1	1	R1200T
2709.959	1.616	2721743	WORD	n/a	wordpools/wordpool_EN.txt	FILM	5	24	[0, 0, 0]	n/a	FR1	1	R1200T
2711.575	0.967	2723358	WORD_OFF	n/a	n/a	FILM	5	24	[0, 0, 0]	n/a	FR1	1	R1200T
2712.542	1.601	2724325	WORD	n/a	wordpools/wordpool_EN.txt	TOE	6	24	[0, 0, 0]	n/a	FR1	1	R1200T
2714.143	0.784	2725926	WORD_OFF	n/a	n/a	TOE	6	24	[0, 0, 0]	n/a	FR1	1	R1200T
2714.927	1.616	2726710	WORD	n/a	wordpools/wordpool_EN.txt	CORD	7	24	[0, 0, 0]	n/a	FR1	1	R1200T
2716.543	1.0	2728326	WORD_OFF	n/a	n/a	CORD	7	24	[0, 0, 0]	n/a	FR1	1	R1200T
2717.543	1.601	2729326	WORD	n/a	wordpools/wordpool_EN.txt	MULE	8	24	[0, 0, 0]	n/a	FR1	1	R1200T
2719.144	0.967	2730927	WORD_OFF	n/a	n/a	MULE	8	24	[0, 0, 0]	n/a	FR1	1	R1200T
2720.111	1.616	2731894	WORD	n/a	wordpools/wordpool_EN.txt	PRINCE	9	24	[0, 0, 0]	n/a	FR1	1	R1200T
2721.727	0.917	2733510	WORD_OFF	n/a	n/a	PRINCE	9	24	[0, 0, 0]	n/a	FR1	1	R1200T
2722.644	1.618	2734427	WORD	n/a	wordpools/wordpool_EN.txt	BOAT	10	24	[0, 0, 0]	n/a	FR1	1	R1200T
2724.262	0.95	2736045	WORD_OFF	n/a	n/a	BOAT	10	24	[0, 0, 0]	n/a	FR1	1	R1200T
2725.212	1.616	2736995	WORD	n/a	wordpools/wordpool_EN.txt	CLOUD	11	24	[0, 0, 0]	n/a	FR1	1	R1200T
2726.828	0.984	2738611	WORD_OFF	n/a	n/a	CLOUD	11	24	[0, 0, 0]	n/a	FR1	1	R1200T
2727.812	1.618	2739594	WORD	n/a	wordpools/wordpool_EN.txt	LAMP	12	24	[0, 0, 0]	n/a	FR1	1	R1200T
2729.43	0.0	2741212	DISTRACT_START	n/a	n/a	n/a	-999	24	[0, 0, 0]	n/a	FR1	1	R1200T
2729.43	0.0	2741212	WORD_OFF	n/a	n/a	LAMP	12	24	[0, 0, 0]	n/a	FR1	1	R1200T
2729.43	0.016	2741212	START	n/a	n/a	n/a	-999	24	[-999, -999, -999]	n/a	FR1	1	R1200T
2729.446	4.083	2741228	PROB	4.083	n/a	n/a	-999	24	[7, 6, 1]	14	FR1	1	R1200T
2733.529	6.903	2745311	PROB	6.903	n/a	n/a	-999	24	[7, 2, 6]	16	FR1	1	R1200T
2740.432	2.967	2752214	PROB	2.967	n/a	n/a	-999	24	[1, 9, 6]	16	FR1	1	R1200T
2743.399	6.127	2755181	PROB	6.127	n/a	n/a	-999	24	[3, 9, 9]	21	FR1	1	R1200T
2749.526	0.006	2761307	STOP	n/a	n/a	n/a	-999	24	[-999, -999, -999]	n/a	FR1	1	R1200T
2749.532	0.601	2761313	DISTRACT_END	n/a	n/a	n/a	-999	24	[0, 0, 0]	n/a	FR1	1	R1200T
2750.133	0.517	2761914	RETRIEVAL_ORIENT	n/a	n/a	n/a	-999	24	[0, 0, 0]	n/a	FR1	1	R1200T
2750.65	2.173	2762431	REC_START	n/a	n/a	n/a	-999	24	[0, 0, 0]	n/a	FR1	1	R1200T
2752.823	1.01	2764604	REC_WORD	1.01	n/a	BOAT	10	24	[0, 0, 0]	n/a	FR1	1	R1200T
2753.833	4.2	2765614	REC_WORD	4.2	n/a	PRINCE	9	24	[0, 0, 0]	n/a	FR1	1	R1200T
2758.033	2.516	2769814	REC_WORD	2.516	n/a	FISH	-999	24	[0, 0, 0]	n/a	FR1	1	R1200T
2760.549	20.111	2772330	REC_WORD	20.111	n/a	PEN	1	24	[0, 0, 0]	n/a	FR1	1	R1200T
2780.66	5.979	2792439	REC_END	n/a	n/a	n/a	-999	24	[0, 0, 0]	n/a	FR1	1	R1200T
2786.639	0.5	2798418	TRIAL	n/a	n/a	n/a	-999	25	[0, 0, 0]	n/a	FR1	1	R1200T
2787.139	10.428	2798918	COUNTDOWN_START	n/a	n/a	n/a	-999	25	[0, 0, 0]	n/a	FR1	1	R1200T
2797.567	0.007	2809345	COUNTDOWN_END	n/a	n/a	n/a	-999	25	[0, 0, 0]	n/a	FR1	1	R1200T
2797.574	1.601	2809352	ORIENT	n/a	n/a	n/a	-999	25	[0, 0, 0]	n/a	FR1	1	R1200T
2799.175	2.001	2810953	ORIENT_OFF	n/a	n/a	n/a	-999	25	[0, 0, 0]	n/a	FR1	1	R1200T
2801.176	1.616	2812954	WORD	n/a	wordpools/wordpool_EN.txt	PEACH	1	25	[0, 0, 0]	n/a	FR1	1	R1200T
2802.792	0.934	2814570	WORD_OFF	n/a	n/a	PEACH	1	25	[0, 0, 0]	n/a	FR1	1	R1200T
2803.726	1.617	2815504	WORD	n/a	wordpools/wordpool_EN.txt	VINE	2	25	[0, 0, 0]	n/a	FR1	1	R1200T
2805.343	0.801	2817121	WORD_OFF	n/a	n/a	VINE	2	25	[0, 0, 0]	n/a	FR1	1	R1200T
2806.144	1.616	2817922	WORD	n/a	wordpools/wordpool_EN.txt	STOVE	3	25	[0, 0, 0]	n/a	FR1	1	R1200T
2807.76	0.833	2819538	WORD_OFF	n/a	n/a	STOVE	3	25	[0, 0, 0]	n/a	FR1	1	R1200T
2808.593	1.618	2820371	WORD	n/a	wordpools/wordpool_EN.txt	PLATE	4	25	[0, 0, 0]	n/a	FR1	1	R1200T
2810.211	0.984	2821989	WORD_OFF	n/a	n/a	PLATE	4	25	[0, 0, 0]	n/a	FR1	1	R1200T
2811.195	1.616	2822973	WORD	n/a	wordpools/wordpool_EN.txt	BROOM	5	25	[0, 0, 0]	n/a	FR1	1	R1200T
2812.811	1.0	2824589	WORD_OFF	n/a	n/a	BROOM	5	25	[0, 0, 0]	n/a	FR1	1	R1200T
2813.811	1.618	2825588	WORD	n/a	wordpools/wordpool_EN.txt	HORN	6	25	[0, 0, 0]	n/a	FR1	1	R1200T
2815.429	0.817	2827206	WORD_OFF	n/a	n/a	HORN	6	25	[0, 0, 0]	n/a	FR1	1	R1200T
2816.246	1.615	2828023	WORD	n/a	wordpools/wordpool_EN.txt	FOOT	7	25	[0, 0, 0]	n/a	FR1	1	R1200T
2817.861	0.817	2829638	WORD_OFF	n/a	n/a	FOOT	7	25	[0, 0, 0]	n/a	FR1	1	R1200T
2818.678	1.601	2830455	WORD	n/a	wordpools/wordpool_EN.txt	KITE	8	25	[0, 0, 0]	n/a	FR1	1	R1200T
2820.279	0.817	2832056	WORD_OFF	n/a	n/a	KITE	8	25	[0, 0, 0]	n/a	FR1	1	R1200T
2821.096	1.616	2832873	WORD	n/a	wordpools/wordpool_EN.txt	CAPE	9	25	[0, 0, 0]	n/a	FR1	1	R1200T
2822.712	0.967	2834489	WORD_OFF	n/a	n/a	CAPE	9	25	[0, 0, 0]	n/a	FR1	1	R1200T
2823.679	1.618	2835456	WORD	n/a	wordpools/wordpool_EN.txt	STOOL	10	25	[0, 0, 0]	n/a	FR1	1	R1200T
2825.297	0.85	2837074	WORD_OFF	n/a	n/a	STOOL	10	25	[0, 0, 0]	n/a	FR1	1	R1200T
2826.147	1.616	2837924	WORD	n/a	wordpools/wordpool_EN.txt	GLOVE	11	25	[0, 0, 0]	n/a	FR1	1	R1200T
2827.763	1.0	2839540	WORD_OFF	n/a	n/a	GLOVE	11	25	[0, 0, 0]	n/a	FR1	1	R1200T
2828.763	1.601	2840540	WORD	n/a	wordpools/wordpool_EN.txt	HOSE	12	25	[0, 0, 0]	n/a	FR1	1	R1200T
2830.364	0.0	2842140	WORD_OFF	n/a	n/a	HOSE	12	25	[0, 0, 0]	n/a	FR1	1	R1200T
2830.364	0.001	2842140	DISTRACT_START	n/a	n/a	n/a	-999	25	[0, 0, 0]	n/a	FR1	1	R1200T
2830.365	0.016	2842141	START	n/a	n/a	n/a	-999	25	[-999, -999, -999]	n/a	FR1	1	R1200T
2830.381	5.467	2842157	PROB	5.467	n/a	n/a	-999	25	[6, 8, 1]	15	FR1	1	R1200T
2835.848	6.552	2847624	PROB	6.552	n/a	n/a	-999	25	[6, 6, 6]	17	FR1	1	R1200T
2842.4	5.15	2854176	PROB	5.15	n/a	n/a	-999	25	[6, 7, 3]	16	FR1	1	R1200T
2847.55	4.346	2859325	PROB	4.346	n/a	n/a	-999	25	[6, 6, 5]	17	FR1	1	R1200T
2851.896	0.006	2863671	STOP	n/a	n/a	n/a	-999	25	[-999, -999, -999]	n/a	FR1	1	R1200T
2851.902	0.682	2863677	DISTRACT_END	n/a	n/a	n/a	-999	25	[0, 0, 0]	n/a	FR1	1	R1200T
2852.584	0.519	2864359	RETRIEVAL_ORIENT	n/a	n/a	n/a	-999	25	[0, 0, 0]	n/a	FR1	1	R1200T
2853.103	2.238	2864878	REC_START	n/a	n/a	n/a	-999	25	[0, 0, 0]	n/a	FR1	1	R1200T
2855.341	2.6	2867116	REC_WORD	2.6	n/a	PEACH	1	25	[0, 0, 0]	n/a	FR1	1	R1200T
2857.941	4.627	2869716	REC_WORD	4.627	n/a	STOVE	3	25	[0, 0, 0]	n/a	FR1	1	R1200T
2862.568	3.166	2874343	REC_WORD	3.166	n/a	GLOVE	11	25	[0, 0, 0]	n/a	FR1	1	R1200T
2865.734	17.38	2877508	REC_WORD_VV	17.38	n/a	<>	-999	25	[0, 0, 0]	n/a	FR1	1	R1200T
2883.114	0.0	2894887	REC_END	n/a	n/a	n/a	-999	25	[0, 0, 0]	n/a	FR1	1	R1200T
