onset	duration	sample	trial_type	response_time	stim_file	item_name	serialpos	list	test	answer	experiment	session	subject
0.0	72.213	610	INSTRUCT_START	n/a	n/a	n/a	-999	-999	[0, 0, 0]	n/a	FR1	9	R1299T
72.213	3.001	72820	INSTRUCT_END	n/a	n/a	n/a	-999	-999	[0, 0, 0]	n/a	FR1	9	R1299T
75.214	12.151	75821	MIC TEST_START	n/a	n/a	n/a	-999	-999	[0, 0, 0]	n/a	FR1	9	R1299T
87.365	0.01	87971	MIC TEST_END	n/a	n/a	n/a	-999	-999	[0, 0, 0]	n/a	FR1	9	R1299T
87.375	0.0	87981	TRIAL_START	n/a	n/a	n/a	-999	-1	[0, 0, 0]	n/a	FR1	9	R1299T
87.375	0.0	87981	TRIAL	n/a	n/a	n/a	-999	-1	[0, 0, 0]	n/a	FR1	9	R1299T
87.375	36.264	87981	WAITING_START	n/a	n/a	n/a	-999	-1	[0, 0, 0]	n/a	FR1	9	R1299T
123.639	0.001	124244	WAITING_END	n/a	n/a	n/a	-999	-1	[0, 0, 0]	n/a	FR1	9	R1299T
123.64	10.429	124245	COUNTDOWN_START	n/a	n/a	n/a	-999	-1	[0, 0, 0]	n/a	FR1	9	R1299T
134.069	0.001	134673	COUNTDOWN_END	n/a	n/a	n/a	-999	-1	[0, 0, 0]	n/a	FR1	9	R1299T
134.07	1.255	134674	ORIENT_START	n/a	n/a	n/a	-999	-1	[0, 0, 0]	n/a	FR1	9	R1299T
135.325	0.0	135929	ORIENT_END	n/a	n/a	n/a	-999	-1	[0, 0, 0]	n/a	FR1	9	R1299T
135.325	1.084	135929	ENCODING_START	n/a	n/a	n/a	-999	-1	[0, 0, 0]	n/a	FR1	9	R1299T
136.409	1.633	137013	WORD	n/a	n/a	ATTIC	1	-1	[0, 0, 0]	n/a	FR1	9	R1299T
138.042	0.901	138646	WORD_OFF	n/a	n/a	ATTIC	1	-1	[0, 0, 0]	n/a	FR1	9	R1299T
138.943	1.631	139547	WORD	n/a	n/a	BEAM	2	-1	[0, 0, 0]	n/a	FR1	9	R1299T
140.574	1.106	141178	WORD_OFF	n/a	n/a	BEAM	2	-1	[0, 0, 0]	n/a	FR1	9	R1299T
141.68	1.629	142284	WORD	n/a	n/a	CAMEL	3	-1	[0, 0, 0]	n/a	FR1	9	R1299T
143.309	1.059	143913	WORD_OFF	n/a	n/a	CAMEL	3	-1	[0, 0, 0]	n/a	FR1	9	R1299T
144.368	1.625	144972	WORD	n/a	n/a	CHEST	4	-1	[0, 0, 0]	n/a	FR1	9	R1299T
145.993	0.894	146597	WORD_OFF	n/a	n/a	CHEST	4	-1	[0, 0, 0]	n/a	FR1	9	R1299T
146.887	1.623	147491	WORD	n/a	n/a	COTTON	5	-1	[0, 0, 0]	n/a	FR1	9	R1299T
148.51	1.146	149114	WORD_OFF	n/a	n/a	COTTON	5	-1	[0, 0, 0]	n/a	FR1	9	R1299T
149.656	1.638	150260	WORD	n/a	n/a	FLOOD	6	-1	[0, 0, 0]	n/a	FR1	9	R1299T
151.294	0.801	151898	WORD_OFF	n/a	n/a	FLOOD	6	-1	[0, 0, 0]	n/a	FR1	9	R1299T
152.095	1.633	152698	WORD	n/a	n/a	IRON	7	-1	[0, 0, 0]	n/a	FR1	9	R1299T
153.728	1.086	154331	WORD_OFF	n/a	n/a	IRON	7	-1	[0, 0, 0]	n/a	FR1	9	R1299T
154.814	1.631	155417	WORD	n/a	n/a	RHINO	8	-1	[0, 0, 0]	n/a	FR1	9	R1299T
156.445	0.942	157048	WORD_OFF	n/a	n/a	RHINO	8	-1	[0, 0, 0]	n/a	FR1	9	R1299T
157.387	1.625	157990	WORD	n/a	n/a	RING	9	-1	[0, 0, 0]	n/a	FR1	9	R1299T
159.012	1.02	159615	WORD_OFF	n/a	n/a	RING	9	-1	[0, 0, 0]	n/a	FR1	9	R1299T
160.032	1.631	160635	WORD	n/a	n/a	TONGUE	10	-1	[0, 0, 0]	n/a	FR1	9	R1299T
161.663	0.831	162266	WORD_OFF	n/a	n/a	TONGUE	10	-1	[0, 0, 0]	n/a	FR1	9	R1299T
162.494	1.636	163097	WORD	n/a	n/a	WAGON	11	-1	[0, 0, 0]	n/a	FR1	9	R1299T
164.13	0.986	164733	WORD_OFF	n/a	n/a	WAGON	11	-1	[0, 0, 0]	n/a	FR1	9	R1299T
165.116	1.631	165719	WORD	n/a	n/a	WATCH	12	-1	[0, 0, 0]	n/a	FR1	9	R1299T
166.747	0.0	167350	WORD_OFF	n/a	n/a	WATCH	12	-1	[0, 0, 0]	n/a	FR1	9	R1299T
166.747	0.001	167350	ENCODING_END	n/a	n/a	n/a	-999	-1	[0, 0, 0]	n/a	FR1	9	R1299T
166.748	0.0	167351	DISTRACT_START	n/a	n/a	n/a	-999	-1	[0, 0, 0]	n/a	FR1	9	R1299T
166.748	0.015	167351	START	n/a	n/a	n/a	-999	-1	[-999, -999, -999]	n/a	FR1	9	R1299T
166.763	4.851	167366	PROB	4.851	n/a	n/a	-999	-1	[7, 9, 7]	23	FR1	9	R1299T
171.614	3.751	172217	PROB	3.751	n/a	n/a	-999	-1	[1, 3, 6]	10	FR1	9	R1299T
175.365	5.651	175967	PROB	5.651	n/a	n/a	-999	-1	[1, 8, 7]	16	FR1	9	R1299T
181.016	3.051	181618	PROB	3.051	n/a	n/a	-999	-1	[9, 3, 1]	13	FR1	9	R1299T
184.067	5.47	184669	PROB	5.47	n/a	n/a	-999	-1	[1, 1, 3]	5	FR1	9	R1299T
189.537	0.013	190139	STOP	n/a	n/a	n/a	-999	-1	[-999, -999, -999]	n/a	FR1	9	R1299T
189.55	0.699	190152	DISTRACT_END	n/a	n/a	n/a	-999	-1	[0, 0, 0]	n/a	FR1	9	R1299T
190.249	1.686	190851	RETRIEVAL_ORIENT_START	n/a	n/a	n/a	-999	-1	[0, 0, 0]	n/a	FR1	9	R1299T
191.935	0.0	192537	RETRIEVAL_ORIENT_END	n/a	n/a	n/a	-999	-1	[0, 0, 0]	n/a	FR1	9	R1299T
191.935	1.079	192537	REC_START	n/a	n/a	n/a	-999	-1	[0, 0, 0]	n/a	FR1	9	R1299T
193.014	1.117	193616	REC_WORD_VV	1.117	n/a	<>	-999	-1	[0, 0, 0]	n/a	FR1	9	R1299T
194.131	1.214	194733	REC_WORD	1.214	n/a	ATTIC	-999	-1	[0, 0, 0]	n/a	FR1	9	R1299T
195.345	0.393	195947	REC_WORD_VV	0.393	n/a	<>	-999	-1	[0, 0, 0]	n/a	FR1	9	R1299T
195.738	1.507	196340	REC_WORD	1.507	n/a	BEAN	-999	-1	[0, 0, 0]	n/a	FR1	9	R1299T
197.245	2.68	197847	REC_WORD	2.68	n/a	RHINO	-999	-1	[0, 0, 0]	n/a	FR1	9	R1299T
199.925	2.951	200526	REC_WORD	2.951	n/a	TONGUE	-999	-1	[0, 0, 0]	n/a	FR1	9	R1299T
202.876	11.176	203477	REC_WORD	11.176	n/a	CHEST	-999	-1	[0, 0, 0]	n/a	FR1	9	R1299T
214.052	7.898	214653	REC_WORD_VV	7.898	n/a	<>	-999	-1	[0, 0, 0]	n/a	FR1	9	R1299T
221.95	0.0	222550	REC_END	n/a	n/a	n/a	-999	-1	[0, 0, 0]	n/a	FR1	9	R1299T
221.95	4.308	222550	PRACTICE_POST_INSTRUCT_START	n/a	n/a	n/a	-999	-1	[0, 0, 0]	n/a	FR1	9	R1299T
226.258	0.0	226858	TRIAL_END	n/a	n/a	n/a	-999	-1	[0, 0, 0]	n/a	FR1	9	R1299T
226.258	0.017	226858	PRACTICE_POST_INSTRUCT_END	n/a	n/a	n/a	-999	-1	[0, 0, 0]	n/a	FR1	9	R1299T
226.275	0.0	226875	TRIAL_START	n/a	n/a	n/a	-999	1	[0, 0, 0]	n/a	FR1	9	R1299T
226.275	0.0	226875	TRIAL	n/a	n/a	n/a	-999	1	[0, 0, 0]	n/a	FR1	9	R1299T
226.275	1.533	226875	WAITING_START	n/a	n/a	n/a	-999	1	[0, 0, 0]	n/a	FR1	9	R1299T
227.808	0.0	228408	WAITING_END	n/a	n/a	n/a	-999	1	[0, 0, 0]	n/a	FR1	9	R1299T
227.808	10.43	228408	COUNTDOWN_START	n/a	n/a	n/a	-999	1	[0, 0, 0]	n/a	FR1	9	R1299T
238.238	0.001	238838	COUNTDOWN_END	n/a	n/a	n/a	-999	1	[0, 0, 0]	n/a	FR1	9	R1299T
238.239	1.171	238839	ORIENT_START	n/a	n/a	n/a	-999	1	[0, 0, 0]	n/a	FR1	9	R1299T
239.41	0.0	240010	ENCODING_START	n/a	n/a	n/a	-999	1	[0, 0, 0]	n/a	FR1	9	R1299T
239.41	1.036	240010	ORIENT_END	n/a	n/a	n/a	-999	1	[0, 0, 0]	n/a	FR1	9	R1299T
240.446	1.631	241046	WORD	n/a	wordpools/wordpool_EN.txt	SHRIMP	1	1	[0, 0, 0]	n/a	FR1	9	R1299T
242.077	0.842	242677	WORD_OFF	n/a	n/a	SHRIMP	1	1	[0, 0, 0]	n/a	FR1	9	R1299T
242.919	1.624	243518	WORD	n/a	wordpools/wordpool_EN.txt	SKUNK	2	1	[0, 0, 0]	n/a	FR1	9	R1299T
244.543	0.753	245142	WORD_OFF	n/a	n/a	SKUNK	2	1	[0, 0, 0]	n/a	FR1	9	R1299T
245.296	1.632	245895	WORD	n/a	wordpools/wordpool_EN.txt	COIN	3	1	[0, 0, 0]	n/a	FR1	9	R1299T
246.928	0.766	247527	WORD_OFF	n/a	n/a	COIN	3	1	[0, 0, 0]	n/a	FR1	9	R1299T
247.694	1.634	248293	WORD	n/a	wordpools/wordpool_EN.txt	HAWK	4	1	[0, 0, 0]	n/a	FR1	9	R1299T
249.328	0.817	249927	WORD_OFF	n/a	n/a	HAWK	4	1	[0, 0, 0]	n/a	FR1	9	R1299T
250.145	1.634	250744	WORD	n/a	wordpools/wordpool_EN.txt	SOAP	5	1	[0, 0, 0]	n/a	FR1	9	R1299T
251.779	0.833	252378	WORD_OFF	n/a	n/a	SOAP	5	1	[0, 0, 0]	n/a	FR1	9	R1299T
252.612	1.634	253211	WORD	n/a	wordpools/wordpool_EN.txt	SPONGE	6	1	[0, 0, 0]	n/a	FR1	9	R1299T
254.246	1.071	254845	WORD_OFF	n/a	n/a	SPONGE	6	1	[0, 0, 0]	n/a	FR1	9	R1299T
255.317	1.63	255916	WORD	n/a	wordpools/wordpool_EN.txt	BEAN	7	1	[0, 0, 0]	n/a	FR1	9	R1299T
256.947	1.074	257546	WORD_OFF	n/a	n/a	BEAN	7	1	[0, 0, 0]	n/a	FR1	9	R1299T
258.021	1.626	258620	WORD	n/a	wordpools/wordpool_EN.txt	FRUIT	8	1	[0, 0, 0]	n/a	FR1	9	R1299T
259.647	0.829	260246	WORD_OFF	n/a	n/a	FRUIT	8	1	[0, 0, 0]	n/a	FR1	9	R1299T
260.476	1.621	261075	WORD	n/a	wordpools/wordpool_EN.txt	CORD	9	1	[0, 0, 0]	n/a	FR1	9	R1299T
262.097	1.025	262696	WORD_OFF	n/a	n/a	CORD	9	1	[0, 0, 0]	n/a	FR1	9	R1299T
263.122	1.626	263721	WORD	n/a	wordpools/wordpool_EN.txt	JUDGE	10	1	[0, 0, 0]	n/a	FR1	9	R1299T
264.748	0.779	265347	WORD_OFF	n/a	n/a	JUDGE	10	1	[0, 0, 0]	n/a	FR1	9	R1299T
265.527	1.638	266126	WORD	n/a	wordpools/wordpool_EN.txt	RAT	11	1	[0, 0, 0]	n/a	FR1	9	R1299T
267.165	0.858	267763	WORD_OFF	n/a	n/a	RAT	11	1	[0, 0, 0]	n/a	FR1	9	R1299T
268.023	1.626	268621	WORD	n/a	wordpools/wordpool_EN.txt	HOOF	12	1	[0, 0, 0]	n/a	FR1	9	R1299T
269.649	0.0	270247	WORD_OFF	n/a	n/a	HOOF	12	1	[0, 0, 0]	n/a	FR1	9	R1299T
269.649	0.001	270247	ENCODING_END	n/a	n/a	n/a	-999	1	[0, 0, 0]	n/a	FR1	9	R1299T
269.65	0.0	270248	DISTRACT_START	n/a	n/a	n/a	-999	1	[0, 0, 0]	n/a	FR1	9	R1299T
269.65	0.015	270248	START	n/a	n/a	n/a	-999	1	[-999, -999, -999]	n/a	FR1	9	R1299T
269.665	4.401	270263	PROB	4.401	n/a	n/a	-999	1	[8, 7, 8]	23	FR1	9	R1299T
274.066	5.051	274664	PROB	5.051	n/a	n/a	-999	1	[5, 7, 8]	21	FR1	9	R1299T
279.117	6.785	279715	PROB	6.785	n/a	n/a	-999	1	[1, 5, 7]	13	FR1	9	R1299T
285.902	5.511	286500	PROB	5.511	n/a	n/a	-999	1	[7, 8, 8]	23	FR1	9	R1299T
291.413	0.006	292010	STOP	n/a	n/a	n/a	-999	1	[-999, -999, -999]	n/a	FR1	9	R1299T
291.419	0.6	292016	DISTRACT_END	n/a	n/a	n/a	-999	1	[0, 0, 0]	n/a	FR1	9	R1299T
292.019	1.634	292616	RETRIEVAL_ORIENT_START	n/a	n/a	n/a	-999	1	[0, 0, 0]	n/a	FR1	9	R1299T
293.653	0.001	294250	RETRIEVAL_ORIENT_END	n/a	n/a	n/a	-999	1	[0, 0, 0]	n/a	FR1	9	R1299T
293.654	2.158	294251	REC_START	n/a	n/a	n/a	-999	1	[0, 0, 0]	n/a	FR1	9	R1299T
295.812	0.739	296409	REC_WORD_VV	0.739	n/a	<>	-999	1	[0, 0, 0]	n/a	FR1	9	R1299T
296.551	2.875	297148	REC_WORD	2.875	n/a	CORD	9	1	[0, 0, 0]	n/a	FR1	9	R1299T
299.426	0.381	300023	REC_WORD_VV	0.381	n/a	<>	-999	1	[0, 0, 0]	n/a	FR1	9	R1299T
299.807	23.861	300404	REC_WORD	23.861	n/a	JUDGE	10	1	[0, 0, 0]	n/a	FR1	9	R1299T
323.668	0.0	324264	TRIAL_END	n/a	n/a	n/a	-999	1	[0, 0, 0]	n/a	FR1	9	R1299T
323.668	0.014	324264	REC_END	n/a	n/a	n/a	-999	1	[0, 0, 0]	n/a	FR1	9	R1299T
323.682	0.0	324278	TRIAL_START	n/a	n/a	n/a	-999	2	[0, 0, 0]	n/a	FR1	9	R1299T
323.682	0.001	324278	TRIAL	n/a	n/a	n/a	-999	2	[0, 0, 0]	n/a	FR1	9	R1299T
323.683	1.809	324279	WAITING_START	n/a	n/a	n/a	-999	2	[0, 0, 0]	n/a	FR1	9	R1299T
325.492	0.0	326088	WAITING_END	n/a	n/a	n/a	-999	2	[0, 0, 0]	n/a	FR1	9	R1299T
325.492	10.43	326088	COUNTDOWN_START	n/a	n/a	n/a	-999	2	[0, 0, 0]	n/a	FR1	9	R1299T
335.922	0.0	336517	COUNTDOWN_END	n/a	n/a	n/a	-999	2	[0, 0, 0]	n/a	FR1	9	R1299T
335.922	1.089	336517	ORIENT_START	n/a	n/a	n/a	-999	2	[0, 0, 0]	n/a	FR1	9	R1299T
337.011	0.001	337606	ORIENT_END	n/a	n/a	n/a	-999	2	[0, 0, 0]	n/a	FR1	9	R1299T
337.012	1.019	337607	ENCODING_START	n/a	n/a	n/a	-999	2	[0, 0, 0]	n/a	FR1	9	R1299T
338.031	1.63	338626	WORD	n/a	wordpools/wordpool_EN.txt	DOCK	1	2	[0, 0, 0]	n/a	FR1	9	R1299T
339.661	0.806	340256	WORD_OFF	n/a	n/a	DOCK	1	2	[0, 0, 0]	n/a	FR1	9	R1299T
340.467	1.628	341062	WORD	n/a	wordpools/wordpool_EN.txt	OWL	2	2	[0, 0, 0]	n/a	FR1	9	R1299T
342.095	1.041	342690	WORD_OFF	n/a	n/a	OWL	2	2	[0, 0, 0]	n/a	FR1	9	R1299T
343.136	1.626	343731	WORD	n/a	wordpools/wordpool_EN.txt	JEEP	3	2	[0, 0, 0]	n/a	FR1	9	R1299T
344.762	0.834	345357	WORD_OFF	n/a	n/a	JEEP	3	2	[0, 0, 0]	n/a	FR1	9	R1299T
345.596	1.617	346191	WORD	n/a	wordpools/wordpool_EN.txt	MOOSE	4	2	[0, 0, 0]	n/a	FR1	9	R1299T
347.213	0.902	347808	WORD_OFF	n/a	n/a	MOOSE	4	2	[0, 0, 0]	n/a	FR1	9	R1299T
348.115	1.632	348710	WORD	n/a	wordpools/wordpool_EN.txt	MOUTH	5	2	[0, 0, 0]	n/a	FR1	9	R1299T
349.747	0.973	350342	WORD_OFF	n/a	n/a	MOUTH	5	2	[0, 0, 0]	n/a	FR1	9	R1299T
350.72	1.627	351315	WORD	n/a	wordpools/wordpool_EN.txt	ICE	6	2	[0, 0, 0]	n/a	FR1	9	R1299T
352.347	1.013	352942	WORD_OFF	n/a	n/a	ICE	6	2	[0, 0, 0]	n/a	FR1	9	R1299T
353.36	1.621	353955	WORD	n/a	wordpools/wordpool_EN.txt	PIE	7	2	[0, 0, 0]	n/a	FR1	9	R1299T
354.981	1.073	355576	WORD_OFF	n/a	n/a	PIE	7	2	[0, 0, 0]	n/a	FR1	9	R1299T
356.054	1.627	356649	WORD	n/a	wordpools/wordpool_EN.txt	SPRING	8	2	[0, 0, 0]	n/a	FR1	9	R1299T
357.681	0.881	358275	WORD_OFF	n/a	n/a	SPRING	8	2	[0, 0, 0]	n/a	FR1	9	R1299T
358.562	1.62	359156	WORD	n/a	wordpools/wordpool_EN.txt	BOAT	9	2	[0, 0, 0]	n/a	FR1	9	R1299T
360.182	1.058	360776	WORD_OFF	n/a	n/a	BOAT	9	2	[0, 0, 0]	n/a	FR1	9	R1299T
361.24	1.626	361834	WORD	n/a	wordpools/wordpool_EN.txt	SAIL	10	2	[0, 0, 0]	n/a	FR1	9	R1299T
362.866	1.061	363460	WORD_OFF	n/a	n/a	SAIL	10	2	[0, 0, 0]	n/a	FR1	9	R1299T
363.927	1.621	364521	WORD	n/a	wordpools/wordpool_EN.txt	NET	11	2	[0, 0, 0]	n/a	FR1	9	R1299T
365.548	0.869	366142	WORD_OFF	n/a	n/a	NET	11	2	[0, 0, 0]	n/a	FR1	9	R1299T
366.417	1.633	367011	WORD	n/a	wordpools/wordpool_EN.txt	BRANCH	12	2	[0, 0, 0]	n/a	FR1	9	R1299T
368.05	0.001	368644	WORD_OFF	n/a	n/a	BRANCH	12	2	[0, 0, 0]	n/a	FR1	9	R1299T
368.051	0.0	368645	ENCODING_END	n/a	n/a	n/a	-999	2	[0, 0, 0]	n/a	FR1	9	R1299T
368.051	0.0	368645	DISTRACT_START	n/a	n/a	n/a	-999	2	[0, 0, 0]	n/a	FR1	9	R1299T
368.051	0.016	368645	START	n/a	n/a	n/a	-999	2	[-999, -999, -999]	n/a	FR1	9	R1299T
368.067	5.034	368661	PROB	5.034	n/a	n/a	-999	2	[4, 2, 9]	15	FR1	9	R1299T
373.101	5.817	373695	PROB	5.817	n/a	n/a	-999	2	[2, 3, 4]	9	FR1	9	R1299T
378.918	4.451	379512	PROB	4.451	n/a	n/a	-999	2	[2, 5, 2]	9	FR1	9	R1299T
383.369	6.882	383962	PROB	6.882	n/a	n/a	-999	2	[7, 9, 6]	22	FR1	9	R1299T
390.251	0.02	390844	STOP	n/a	n/a	n/a	-999	2	[-999, -999, -999]	n/a	FR1	9	R1299T
390.271	0.502	390864	DISTRACT_END	n/a	n/a	n/a	-999	2	[0, 0, 0]	n/a	FR1	9	R1299T
390.773	1.731	391366	RETRIEVAL_ORIENT_START	n/a	n/a	n/a	-999	2	[0, 0, 0]	n/a	FR1	9	R1299T
392.504	0.001	393097	RETRIEVAL_ORIENT_END	n/a	n/a	n/a	-999	2	[0, 0, 0]	n/a	FR1	9	R1299T
392.505	4.724	393098	REC_START	n/a	n/a	n/a	-999	2	[0, 0, 0]	n/a	FR1	9	R1299T
397.229	25.287	397822	REC_WORD_VV	25.287	n/a	<>	-999	2	[0, 0, 0]	n/a	FR1	9	R1299T
422.516	0.0	423108	REC_END	n/a	n/a	n/a	-999	2	[0, 0, 0]	n/a	FR1	9	R1299T
422.516	0.015	423108	TRIAL_END	n/a	n/a	n/a	-999	2	[0, 0, 0]	n/a	FR1	9	R1299T
422.531	0.0	423123	TRIAL_START	n/a	n/a	n/a	-999	3	[0, 0, 0]	n/a	FR1	9	R1299T
422.531	0.001	423123	TRIAL	n/a	n/a	n/a	-999	3	[0, 0, 0]	n/a	FR1	9	R1299T
422.532	2.778	423124	WAITING_START	n/a	n/a	n/a	-999	3	[0, 0, 0]	n/a	FR1	9	R1299T
425.31	0.001	425901	WAITING_END	n/a	n/a	n/a	-999	3	[0, 0, 0]	n/a	FR1	9	R1299T
425.311	10.428	425902	COUNTDOWN_START	n/a	n/a	n/a	-999	3	[0, 0, 0]	n/a	FR1	9	R1299T
435.739	0.0	436330	COUNTDOWN_END	n/a	n/a	n/a	-999	3	[0, 0, 0]	n/a	FR1	9	R1299T
435.739	1.024	436330	ORIENT_START	n/a	n/a	n/a	-999	3	[0, 0, 0]	n/a	FR1	9	R1299T
436.763	0.0	437354	ORIENT_END	n/a	n/a	n/a	-999	3	[0, 0, 0]	n/a	FR1	9	R1299T
436.763	0.972	437354	ENCODING_START	n/a	n/a	n/a	-999	3	[0, 0, 0]	n/a	FR1	9	R1299T
437.735	1.628	438326	WORD	n/a	wordpools/wordpool_EN.txt	GOAT	1	3	[0, 0, 0]	n/a	FR1	9	R1299T
439.363	0.815	439954	WORD_OFF	n/a	n/a	GOAT	1	3	[0, 0, 0]	n/a	FR1	9	R1299T
440.178	1.635	440769	WORD	n/a	wordpools/wordpool_EN.txt	PEAR	2	3	[0, 0, 0]	n/a	FR1	9	R1299T
441.813	0.837	442404	WORD_OFF	n/a	n/a	PEAR	2	3	[0, 0, 0]	n/a	FR1	9	R1299T
442.65	1.631	443241	WORD	n/a	wordpools/wordpool_EN.txt	WHALE	3	3	[0, 0, 0]	n/a	FR1	9	R1299T
444.281	1.134	444872	WORD_OFF	n/a	n/a	WHALE	3	3	[0, 0, 0]	n/a	FR1	9	R1299T
445.415	1.633	446006	WORD	n/a	wordpools/wordpool_EN.txt	PIT	4	3	[0, 0, 0]	n/a	FR1	9	R1299T
447.048	0.954	447639	WORD_OFF	n/a	n/a	PIT	4	3	[0, 0, 0]	n/a	FR1	9	R1299T
448.002	1.629	448592	WORD	n/a	wordpools/wordpool_EN.txt	CLOUD	5	3	[0, 0, 0]	n/a	FR1	9	R1299T
449.631	0.822	450221	WORD_OFF	n/a	n/a	CLOUD	5	3	[0, 0, 0]	n/a	FR1	9	R1299T
450.453	1.629	451043	WORD	n/a	wordpools/wordpool_EN.txt	CORN	6	3	[0, 0, 0]	n/a	FR1	9	R1299T
452.082	0.968	452672	WORD_OFF	n/a	n/a	CORN	6	3	[0, 0, 0]	n/a	FR1	9	R1299T
453.05	1.632	453640	WORD	n/a	wordpools/wordpool_EN.txt	FLEA	7	3	[0, 0, 0]	n/a	FR1	9	R1299T
454.682	0.842	455272	WORD_OFF	n/a	n/a	FLEA	7	3	[0, 0, 0]	n/a	FR1	9	R1299T
455.524	1.626	456114	WORD	n/a	wordpools/wordpool_EN.txt	SHIRT	8	3	[0, 0, 0]	n/a	FR1	9	R1299T
457.15	1.097	457740	WORD_OFF	n/a	n/a	SHIRT	8	3	[0, 0, 0]	n/a	FR1	9	R1299T
458.247	1.636	458837	WORD	n/a	wordpools/wordpool_EN.txt	PASTE	9	3	[0, 0, 0]	n/a	FR1	9	R1299T
459.883	0.866	460473	WORD_OFF	n/a	n/a	PASTE	9	3	[0, 0, 0]	n/a	FR1	9	R1299T
460.749	1.635	461339	WORD	n/a	wordpools/wordpool_EN.txt	RAIN	10	3	[0, 0, 0]	n/a	FR1	9	R1299T
462.384	0.751	462974	WORD_OFF	n/a	n/a	RAIN	10	3	[0, 0, 0]	n/a	FR1	9	R1299T
463.135	1.633	463725	WORD	n/a	wordpools/wordpool_EN.txt	TOE	11	3	[0, 0, 0]	n/a	FR1	9	R1299T
464.768	0.876	465358	WORD_OFF	n/a	n/a	TOE	11	3	[0, 0, 0]	n/a	FR1	9	R1299T
465.644	1.624	466234	WORD	n/a	wordpools/wordpool_EN.txt	PALM	12	3	[0, 0, 0]	n/a	FR1	9	R1299T
467.268	0.0	467858	WORD_OFF	n/a	n/a	PALM	12	3	[0, 0, 0]	n/a	FR1	9	R1299T
467.268	0.001	467858	ENCODING_END	n/a	n/a	n/a	-999	3	[0, 0, 0]	n/a	FR1	9	R1299T
467.269	0.0	467859	DISTRACT_START	n/a	n/a	n/a	-999	3	[0, 0, 0]	n/a	FR1	9	R1299T
467.269	0.015	467859	START	n/a	n/a	n/a	-999	3	[-999, -999, -999]	n/a	FR1	9	R1299T
467.284	3.168	467874	PROB	3.168	n/a	n/a	-999	3	[6, 4, 1]	11	FR1	9	R1299T
470.452	4.851	471042	PROB	4.851	n/a	n/a	-999	3	[4, 5, 5]	14	FR1	9	R1299T
475.303	7.151	475892	PROB	7.151	n/a	n/a	-999	3	[3, 9, 7]	19	FR1	9	R1299T
482.454	6.015	483043	PROB	6.015	n/a	n/a	-999	3	[2, 4, 1]	7	FR1	9	R1299T
488.469	0.02	489058	STOP	n/a	n/a	n/a	-999	3	[-999, -999, -999]	n/a	FR1	9	R1299T
488.489	0.505	489078	DISTRACT_END	n/a	n/a	n/a	-999	3	[0, 0, 0]	n/a	FR1	9	R1299T
488.994	1.712	489583	RETRIEVAL_ORIENT_START	n/a	n/a	n/a	-999	3	[0, 0, 0]	n/a	FR1	9	R1299T
490.706	0.0	491295	RETRIEVAL_ORIENT_END	n/a	n/a	n/a	-999	3	[0, 0, 0]	n/a	FR1	9	R1299T
490.706	1.535	491295	REC_START	n/a	n/a	n/a	-999	3	[0, 0, 0]	n/a	FR1	9	R1299T
492.241	0.751	492830	REC_WORD_VV	0.751	n/a	<>	-999	3	[0, 0, 0]	n/a	FR1	9	R1299T
492.992	2.541	493581	REC_WORD	2.541	n/a	WHALE	3	3	[0, 0, 0]	n/a	FR1	9	R1299T
495.533	2.257	496121	REC_WORD	2.257	n/a	PIT	4	3	[0, 0, 0]	n/a	FR1	9	R1299T
497.79	3.02	498378	REC_WORD	3.02	n/a	CLOUD	5	3	[0, 0, 0]	n/a	FR1	9	R1299T
500.81	15.729	501398	REC_WORD	15.729	n/a	PASTE	9	3	[0, 0, 0]	n/a	FR1	9	R1299T
516.539	4.179	517126	REC_WORD	4.179	n/a	RAIN	10	3	[0, 0, 0]	n/a	FR1	9	R1299T
520.718	0.0	521305	REC_END	n/a	n/a	n/a	-999	3	[0, 0, 0]	n/a	FR1	9	R1299T
520.718	0.015	521305	TRIAL_END	n/a	n/a	n/a	-999	3	[0, 0, 0]	n/a	FR1	9	R1299T
520.733	0.0	521320	TRIAL	n/a	n/a	n/a	-999	4	[0, 0, 0]	n/a	FR1	9	R1299T
520.733	0.0	521320	WAITING_START	n/a	n/a	n/a	-999	4	[0, 0, 0]	n/a	FR1	9	R1299T
520.733	2.128	521320	TRIAL_START	n/a	n/a	n/a	-999	4	[0, 0, 0]	n/a	FR1	9	R1299T
522.861	0.001	523448	WAITING_END	n/a	n/a	n/a	-999	4	[0, 0, 0]	n/a	FR1	9	R1299T
522.862	10.429	523449	COUNTDOWN_START	n/a	n/a	n/a	-999	4	[0, 0, 0]	n/a	FR1	9	R1299T
533.291	0.0	533878	COUNTDOWN_END	n/a	n/a	n/a	-999	4	[0, 0, 0]	n/a	FR1	9	R1299T
533.291	1.172	533878	ORIENT_START	n/a	n/a	n/a	-999	4	[0, 0, 0]	n/a	FR1	9	R1299T
534.463	0.001	535050	ORIENT_END	n/a	n/a	n/a	-999	4	[0, 0, 0]	n/a	FR1	9	R1299T
534.464	0.84	535051	ENCODING_START	n/a	n/a	n/a	-999	4	[0, 0, 0]	n/a	FR1	9	R1299T
535.304	1.626	535891	WORD	n/a	wordpools/wordpool_EN.txt	PIG	1	4	[0, 0, 0]	n/a	FR1	9	R1299T
536.93	1.145	537517	WORD_OFF	n/a	n/a	PIG	1	4	[0, 0, 0]	n/a	FR1	9	R1299T
538.075	1.623	538662	WORD	n/a	wordpools/wordpool_EN.txt	PHONE	2	4	[0, 0, 0]	n/a	FR1	9	R1299T
539.698	0.971	540284	WORD_OFF	n/a	n/a	PHONE	2	4	[0, 0, 0]	n/a	FR1	9	R1299T
540.669	1.629	541255	WORD	n/a	wordpools/wordpool_EN.txt	WEED	3	4	[0, 0, 0]	n/a	FR1	9	R1299T
542.298	1.009	542884	WORD_OFF	n/a	n/a	WEED	3	4	[0, 0, 0]	n/a	FR1	9	R1299T
543.307	1.625	543893	WORD	n/a	wordpools/wordpool_EN.txt	CUP	4	4	[0, 0, 0]	n/a	FR1	9	R1299T
544.932	0.772	545518	WORD_OFF	n/a	n/a	CUP	4	4	[0, 0, 0]	n/a	FR1	9	R1299T
545.704	1.628	546290	WORD	n/a	wordpools/wordpool_EN.txt	WAND	5	4	[0, 0, 0]	n/a	FR1	9	R1299T
547.332	0.912	547918	WORD_OFF	n/a	n/a	WAND	5	4	[0, 0, 0]	n/a	FR1	9	R1299T
548.244	1.622	548830	WORD	n/a	wordpools/wordpool_EN.txt	BIRD	6	4	[0, 0, 0]	n/a	FR1	9	R1299T
549.866	1.13	550452	WORD_OFF	n/a	n/a	BIRD	6	4	[0, 0, 0]	n/a	FR1	9	R1299T
550.996	1.638	551582	WORD	n/a	wordpools/wordpool_EN.txt	FARM	7	4	[0, 0, 0]	n/a	FR1	9	R1299T
552.634	0.928	553220	WORD_OFF	n/a	n/a	FARM	7	4	[0, 0, 0]	n/a	FR1	9	R1299T
553.562	1.622	554148	WORD	n/a	wordpools/wordpool_EN.txt	DITCH	8	4	[0, 0, 0]	n/a	FR1	9	R1299T
555.184	0.852	555770	WORD_OFF	n/a	n/a	DITCH	8	4	[0, 0, 0]	n/a	FR1	9	R1299T
556.036	1.632	556622	WORD	n/a	wordpools/wordpool_EN.txt	WOOD	9	4	[0, 0, 0]	n/a	FR1	9	R1299T
557.668	0.815	558254	WORD_OFF	n/a	n/a	WOOD	9	4	[0, 0, 0]	n/a	FR1	9	R1299T
558.483	1.635	559069	WORD	n/a	wordpools/wordpool_EN.txt	ARM	10	4	[0, 0, 0]	n/a	FR1	9	R1299T
560.118	0.897	560704	WORD_OFF	n/a	n/a	ARM	10	4	[0, 0, 0]	n/a	FR1	9	R1299T
561.015	1.637	561601	WORD	n/a	wordpools/wordpool_EN.txt	EAR	11	4	[0, 0, 0]	n/a	FR1	9	R1299T
562.652	1.09	563237	WORD_OFF	n/a	n/a	EAR	11	4	[0, 0, 0]	n/a	FR1	9	R1299T
563.742	1.627	564327	WORD	n/a	wordpools/wordpool_EN.txt	SQUARE	12	4	[0, 0, 0]	n/a	FR1	9	R1299T
565.369	0.001	565954	WORD_OFF	n/a	n/a	SQUARE	12	4	[0, 0, 0]	n/a	FR1	9	R1299T
565.37	0.0	565955	ENCODING_END	n/a	n/a	n/a	-999	4	[0, 0, 0]	n/a	FR1	9	R1299T
565.37	0.0	565955	DISTRACT_START	n/a	n/a	n/a	-999	4	[0, 0, 0]	n/a	FR1	9	R1299T
565.37	0.016	565955	START	n/a	n/a	n/a	-999	4	[-999, -999, -999]	n/a	FR1	9	R1299T
565.386	7.451	565971	PROB	7.451	n/a	n/a	-999	4	[2, 5, 9]	16	FR1	9	R1299T
572.837	3.716	573422	PROB	3.716	n/a	n/a	-999	4	[6, 6, 9]	21	FR1	9	R1299T
576.553	6.436	577138	PROB	6.436	n/a	n/a	-999	4	[6, 5, 6]	17	FR1	9	R1299T
582.989	7.546	583574	PROB	7.546	n/a	n/a	-999	4	[9, 3, 8]	20	FR1	9	R1299T
590.535	0.021	591119	STOP	n/a	n/a	n/a	-999	4	[-999, -999, -999]	n/a	FR1	9	R1299T
590.556	0.594	591140	DISTRACT_END	n/a	n/a	n/a	-999	4	[0, 0, 0]	n/a	FR1	9	R1299T
591.15	1.724	591734	RETRIEVAL_ORIENT_START	n/a	n/a	n/a	-999	4	[0, 0, 0]	n/a	FR1	9	R1299T
592.874	0.001	593458	RETRIEVAL_ORIENT_END	n/a	n/a	n/a	-999	4	[0, 0, 0]	n/a	FR1	9	R1299T
592.875	2.157	593459	REC_START	n/a	n/a	n/a	-999	4	[0, 0, 0]	n/a	FR1	9	R1299T
595.032	0.754	595616	REC_WORD_VV	0.754	n/a	<>	-999	4	[0, 0, 0]	n/a	FR1	9	R1299T
595.786	2.176	596370	REC_WORD	2.176	n/a	WOOD	9	4	[0, 0, 0]	n/a	FR1	9	R1299T
597.962	3.167	598546	REC_WORD	3.167	n/a	WEED	3	4	[0, 0, 0]	n/a	FR1	9	R1299T
601.129	21.759	601713	REC_WORD	21.759	n/a	PIG	1	4	[0, 0, 0]	n/a	FR1	9	R1299T
622.888	0.0	623471	REC_END	n/a	n/a	n/a	-999	4	[0, 0, 0]	n/a	FR1	9	R1299T
622.888	0.014	623471	TRIAL_END	n/a	n/a	n/a	-999	4	[0, 0, 0]	n/a	FR1	9	R1299T
622.902	0.001	623485	TRIAL_START	n/a	n/a	n/a	-999	5	[0, 0, 0]	n/a	FR1	9	R1299T
622.903	0.0	623486	TRIAL	n/a	n/a	n/a	-999	5	[0, 0, 0]	n/a	FR1	9	R1299T
622.903	3.511	623486	WAITING_START	n/a	n/a	n/a	-999	5	[0, 0, 0]	n/a	FR1	9	R1299T
626.414	0.0	626997	COUNTDOWN_START	n/a	n/a	n/a	-999	5	[0, 0, 0]	n/a	FR1	9	R1299T
626.414	10.428	626997	WAITING_END	n/a	n/a	n/a	-999	5	[0, 0, 0]	n/a	FR1	9	R1299T
636.842	0.001	637424	COUNTDOWN_END	n/a	n/a	n/a	-999	5	[0, 0, 0]	n/a	FR1	9	R1299T
636.843	1.206	637425	ORIENT_START	n/a	n/a	n/a	-999	5	[0, 0, 0]	n/a	FR1	9	R1299T
638.049	0.001	638631	ORIENT_END	n/a	n/a	n/a	-999	5	[0, 0, 0]	n/a	FR1	9	R1299T
638.05	1.083	638632	ENCODING_START	n/a	n/a	n/a	-999	5	[0, 0, 0]	n/a	FR1	9	R1299T
639.133	1.633	639715	WORD	n/a	wordpools/wordpool_EN.txt	SWAMP	1	5	[0, 0, 0]	n/a	FR1	9	R1299T
640.766	0.999	641348	WORD_OFF	n/a	n/a	SWAMP	1	5	[0, 0, 0]	n/a	FR1	9	R1299T
641.765	1.635	642347	WORD	n/a	wordpools/wordpool_EN.txt	PIPE	2	5	[0, 0, 0]	n/a	FR1	9	R1299T
643.4	1.08	643982	WORD_OFF	n/a	n/a	PIPE	2	5	[0, 0, 0]	n/a	FR1	9	R1299T
644.48	1.637	645062	WORD	n/a	wordpools/wordpool_EN.txt	BOOT	3	5	[0, 0, 0]	n/a	FR1	9	R1299T
646.117	0.905	646699	WORD_OFF	n/a	n/a	BOOT	3	5	[0, 0, 0]	n/a	FR1	9	R1299T
647.022	1.629	647604	WORD	n/a	wordpools/wordpool_EN.txt	CHALK	4	5	[0, 0, 0]	n/a	FR1	9	R1299T
648.651	0.769	649233	WORD_OFF	n/a	n/a	CHALK	4	5	[0, 0, 0]	n/a	FR1	9	R1299T
649.42	1.632	650002	WORD	n/a	wordpools/wordpool_EN.txt	ANT	5	5	[0, 0, 0]	n/a	FR1	9	R1299T
651.052	0.989	651634	WORD_OFF	n/a	n/a	ANT	5	5	[0, 0, 0]	n/a	FR1	9	R1299T
652.041	1.628	652623	WORD	n/a	wordpools/wordpool_EN.txt	FOAM	6	5	[0, 0, 0]	n/a	FR1	9	R1299T
653.669	0.949	654250	WORD_OFF	n/a	n/a	FOAM	6	5	[0, 0, 0]	n/a	FR1	9	R1299T
654.618	1.634	655199	WORD	n/a	wordpools/wordpool_EN.txt	BENCH	7	5	[0, 0, 0]	n/a	FR1	9	R1299T
656.252	1.113	656833	WORD_OFF	n/a	n/a	BENCH	7	5	[0, 0, 0]	n/a	FR1	9	R1299T
657.365	1.638	657946	WORD	n/a	wordpools/wordpool_EN.txt	SWORD	8	5	[0, 0, 0]	n/a	FR1	9	R1299T
659.003	0.826	659584	WORD_OFF	n/a	n/a	SWORD	8	5	[0, 0, 0]	n/a	FR1	9	R1299T
659.829	1.624	660410	WORD	n/a	wordpools/wordpool_EN.txt	CLOTH	9	5	[0, 0, 0]	n/a	FR1	9	R1299T
661.453	0.936	662034	WORD_OFF	n/a	n/a	CLOTH	9	5	[0, 0, 0]	n/a	FR1	9	R1299T
662.389	1.631	662970	WORD	n/a	wordpools/wordpool_EN.txt	RAKE	10	5	[0, 0, 0]	n/a	FR1	9	R1299T
664.02	1.02	664601	WORD_OFF	n/a	n/a	RAKE	10	5	[0, 0, 0]	n/a	FR1	9	R1299T
665.04	1.631	665621	WORD	n/a	wordpools/wordpool_EN.txt	FUR	11	5	[0, 0, 0]	n/a	FR1	9	R1299T
666.671	0.964	667252	WORD_OFF	n/a	n/a	FUR	11	5	[0, 0, 0]	n/a	FR1	9	R1299T
667.635	1.636	668216	WORD	n/a	wordpools/wordpool_EN.txt	BALL	12	5	[0, 0, 0]	n/a	FR1	9	R1299T
669.271	0.001	669852	WORD_OFF	n/a	n/a	BALL	12	5	[0, 0, 0]	n/a	FR1	9	R1299T
669.272	0.0	669853	ENCODING_END	n/a	n/a	n/a	-999	5	[0, 0, 0]	n/a	FR1	9	R1299T
669.272	0.0	669853	DISTRACT_START	n/a	n/a	n/a	-999	5	[0, 0, 0]	n/a	FR1	9	R1299T
669.272	0.016	669853	START	n/a	n/a	n/a	-999	5	[-999, -999, -999]	n/a	FR1	9	R1299T
669.288	3.817	669869	PROB	3.817	n/a	n/a	-999	5	[2, 6, 1]	9	FR1	9	R1299T
673.105	4.101	673686	PROB	4.101	n/a	n/a	-999	5	[6, 3, 3]	12	FR1	9	R1299T
677.206	7.235	677786	PROB	7.235	n/a	n/a	-999	5	[8, 2, 6]	16	FR1	9	R1299T
684.441	8.45	685021	PROB	8.45	n/a	n/a	-999	5	[9, 6, 8]	23	FR1	9	R1299T
692.891	0.018	693471	STOP	n/a	n/a	n/a	-999	5	[-999, -999, -999]	n/a	FR1	9	R1299T
692.909	0.583	693489	DISTRACT_END	n/a	n/a	n/a	-999	5	[0, 0, 0]	n/a	FR1	9	R1299T
693.492	1.651	694072	RETRIEVAL_ORIENT_START	n/a	n/a	n/a	-999	5	[0, 0, 0]	n/a	FR1	9	R1299T
695.143	0.0	695723	RETRIEVAL_ORIENT_END	n/a	n/a	n/a	-999	5	[0, 0, 0]	n/a	FR1	9	R1299T
695.143	1.946	695723	REC_START	n/a	n/a	n/a	-999	5	[0, 0, 0]	n/a	FR1	9	R1299T
697.089	0.309	697669	REC_WORD_VV	0.309	n/a	<>	-999	5	[0, 0, 0]	n/a	FR1	9	R1299T
697.398	27.757	697978	REC_WORD	27.757	n/a	SWAMP	1	5	[0, 0, 0]	n/a	FR1	9	R1299T
725.155	0.0	725733	REC_END	n/a	n/a	n/a	-999	5	[0, 0, 0]	n/a	FR1	9	R1299T
725.155	0.017	725733	TRIAL_END	n/a	n/a	n/a	-999	5	[0, 0, 0]	n/a	FR1	9	R1299T
725.172	0.0	725750	TRIAL_START	n/a	n/a	n/a	-999	6	[0, 0, 0]	n/a	FR1	9	R1299T
725.172	0.0	725750	TRIAL	n/a	n/a	n/a	-999	6	[0, 0, 0]	n/a	FR1	9	R1299T
725.172	3.443	725750	WAITING_START	n/a	n/a	n/a	-999	6	[0, 0, 0]	n/a	FR1	9	R1299T
728.615	0.001	729193	WAITING_END	n/a	n/a	n/a	-999	6	[0, 0, 0]	n/a	FR1	9	R1299T
728.616	10.429	729194	COUNTDOWN_START	n/a	n/a	n/a	-999	6	[0, 0, 0]	n/a	FR1	9	R1299T
739.045	0.0	739623	ORIENT_START	n/a	n/a	n/a	-999	6	[0, 0, 0]	n/a	FR1	9	R1299T
739.045	1.106	739623	COUNTDOWN_END	n/a	n/a	n/a	-999	6	[0, 0, 0]	n/a	FR1	9	R1299T
740.151	0.0	740729	ORIENT_END	n/a	n/a	n/a	-999	6	[0, 0, 0]	n/a	FR1	9	R1299T
740.151	1.05	740729	ENCODING_START	n/a	n/a	n/a	-999	6	[0, 0, 0]	n/a	FR1	9	R1299T
741.201	1.634	741779	WORD	n/a	wordpools/wordpool_EN.txt	SHEEP	1	6	[0, 0, 0]	n/a	FR1	9	R1299T
742.835	0.872	743413	WORD_OFF	n/a	n/a	SHEEP	1	6	[0, 0, 0]	n/a	FR1	9	R1299T
743.707	1.628	744285	WORD	n/a	wordpools/wordpool_EN.txt	TRUCK	2	6	[0, 0, 0]	n/a	FR1	9	R1299T
745.335	1.058	745912	WORD_OFF	n/a	n/a	TRUCK	2	6	[0, 0, 0]	n/a	FR1	9	R1299T
746.393	1.626	746970	WORD	n/a	wordpools/wordpool_EN.txt	STEM	3	6	[0, 0, 0]	n/a	FR1	9	R1299T
748.019	1.116	748596	WORD_OFF	n/a	n/a	STEM	3	6	[0, 0, 0]	n/a	FR1	9	R1299T
749.135	1.634	749712	WORD	n/a	wordpools/wordpool_EN.txt	FOG	4	6	[0, 0, 0]	n/a	FR1	9	R1299T
750.769	0.97	751346	WORD_OFF	n/a	n/a	FOG	4	6	[0, 0, 0]	n/a	FR1	9	R1299T
751.739	1.631	752316	WORD	n/a	wordpools/wordpool_EN.txt	LAMB	5	6	[0, 0, 0]	n/a	FR1	9	R1299T
753.37	1.052	753947	WORD_OFF	n/a	n/a	LAMB	5	6	[0, 0, 0]	n/a	FR1	9	R1299T
754.422	1.632	754999	WORD	n/a	wordpools/wordpool_EN.txt	KEY	6	6	[0, 0, 0]	n/a	FR1	9	R1299T
756.054	0.926	756631	WORD_OFF	n/a	n/a	KEY	6	6	[0, 0, 0]	n/a	FR1	9	R1299T
756.98	1.623	757557	WORD	n/a	wordpools/wordpool_EN.txt	STORE	7	6	[0, 0, 0]	n/a	FR1	9	R1299T
758.603	0.751	759180	WORD_OFF	n/a	n/a	STORE	7	6	[0, 0, 0]	n/a	FR1	9	R1299T
759.354	1.634	759931	WORD	n/a	wordpools/wordpool_EN.txt	FROG	8	6	[0, 0, 0]	n/a	FR1	9	R1299T
760.988	0.777	761565	WORD_OFF	n/a	n/a	FROG	8	6	[0, 0, 0]	n/a	FR1	9	R1299T
761.765	1.623	762342	WORD	n/a	wordpools/wordpool_EN.txt	MOTH	9	6	[0, 0, 0]	n/a	FR1	9	R1299T
763.388	1.086	763965	WORD_OFF	n/a	n/a	MOTH	9	6	[0, 0, 0]	n/a	FR1	9	R1299T
764.474	1.615	765051	WORD	n/a	wordpools/wordpool_EN.txt	TOAD	10	6	[0, 0, 0]	n/a	FR1	9	R1299T
766.089	1.047	766666	WORD_OFF	n/a	n/a	TOAD	10	6	[0, 0, 0]	n/a	FR1	9	R1299T
767.136	1.637	767712	WORD	n/a	wordpools/wordpool_EN.txt	NOSE	11	6	[0, 0, 0]	n/a	FR1	9	R1299T
768.773	0.862	769349	WORD_OFF	n/a	n/a	NOSE	11	6	[0, 0, 0]	n/a	FR1	9	R1299T
769.635	1.622	770211	WORD	n/a	wordpools/wordpool_EN.txt	BOWL	12	6	[0, 0, 0]	n/a	FR1	9	R1299T
771.257	0.0	771833	DISTRACT_START	n/a	n/a	n/a	-999	6	[0, 0, 0]	n/a	FR1	9	R1299T
771.257	0.0	771833	ENCODING_END	n/a	n/a	n/a	-999	6	[0, 0, 0]	n/a	FR1	9	R1299T
771.257	0.001	771833	WORD_OFF	n/a	n/a	BOWL	12	6	[0, 0, 0]	n/a	FR1	9	R1299T
771.258	0.015	771834	START	n/a	n/a	n/a	-999	6	[-999, -999, -999]	n/a	FR1	9	R1299T
771.273	5.051	771849	PROB	5.051	n/a	n/a	-999	6	[2, 5, 5]	12	FR1	9	R1299T
776.324	3.684	776900	PROB	3.684	n/a	n/a	-999	6	[7, 4, 6]	17	FR1	9	R1299T
780.008	4.301	780584	PROB	4.301	n/a	n/a	-999	6	[9, 8, 5]	23	FR1	9	R1299T
784.309	6.233	784885	PROB	6.233	n/a	n/a	-999	6	[3, 6, 5]	14	FR1	9	R1299T
790.542	5.187	791117	PROB	5.187	n/a	n/a	-999	6	[1, 1, 8]	10	FR1	9	R1299T
795.729	0.015	796304	STOP	n/a	n/a	n/a	-999	6	[-999, -999, -999]	n/a	FR1	9	R1299T
795.744	0.576	796319	DISTRACT_END	n/a	n/a	n/a	-999	6	[0, 0, 0]	n/a	FR1	9	R1299T
796.32	1.691	796895	RETRIEVAL_ORIENT_START	n/a	n/a	n/a	-999	6	[0, 0, 0]	n/a	FR1	9	R1299T
798.011	0.001	798586	RETRIEVAL_ORIENT_END	n/a	n/a	n/a	-999	6	[0, 0, 0]	n/a	FR1	9	R1299T
798.012	1.439	798587	REC_START	n/a	n/a	n/a	-999	6	[0, 0, 0]	n/a	FR1	9	R1299T
799.451	0.12	800026	REC_WORD_VV	0.12	n/a	<>	-999	6	[0, 0, 0]	n/a	FR1	9	R1299T
799.571	1.353	800146	REC_WORD	1.353	n/a	FROG	8	6	[0, 0, 0]	n/a	FR1	9	R1299T
800.924	27.1	801499	REC_WORD	27.1	n/a	TOAD	10	6	[0, 0, 0]	n/a	FR1	9	R1299T
828.024	0.0	828598	TRIAL_END	n/a	n/a	n/a	-999	6	[0, 0, 0]	n/a	FR1	9	R1299T
828.024	0.015	828598	REC_END	n/a	n/a	n/a	-999	6	[0, 0, 0]	n/a	FR1	9	R1299T
828.039	0.0	828613	TRIAL_START	n/a	n/a	n/a	-999	7	[0, 0, 0]	n/a	FR1	9	R1299T
828.039	0.0	828613	TRIAL	n/a	n/a	n/a	-999	7	[0, 0, 0]	n/a	FR1	9	R1299T
828.039	1.812	828613	WAITING_START	n/a	n/a	n/a	-999	7	[0, 0, 0]	n/a	FR1	9	R1299T
829.851	0.0	830425	WAITING_END	n/a	n/a	n/a	-999	7	[0, 0, 0]	n/a	FR1	9	R1299T
829.851	10.429	830425	COUNTDOWN_START	n/a	n/a	n/a	-999	7	[0, 0, 0]	n/a	FR1	9	R1299T
840.28	0.0	840853	COUNTDOWN_END	n/a	n/a	n/a	-999	7	[0, 0, 0]	n/a	FR1	9	R1299T
840.28	1.156	840853	ORIENT_START	n/a	n/a	n/a	-999	7	[0, 0, 0]	n/a	FR1	9	R1299T
841.436	0.0	842009	ENCODING_START	n/a	n/a	n/a	-999	7	[0, 0, 0]	n/a	FR1	9	R1299T
841.436	0.827	842009	ORIENT_END	n/a	n/a	n/a	-999	7	[0, 0, 0]	n/a	FR1	9	R1299T
842.263	1.623	842836	WORD	n/a	wordpools/wordpool_EN.txt	STEAK	1	7	[0, 0, 0]	n/a	FR1	9	R1299T
843.886	0.992	844459	WORD_OFF	n/a	n/a	STEAK	1	7	[0, 0, 0]	n/a	FR1	9	R1299T
844.878	1.625	845451	WORD	n/a	wordpools/wordpool_EN.txt	ROCK	2	7	[0, 0, 0]	n/a	FR1	9	R1299T
846.503	0.758	847076	WORD_OFF	n/a	n/a	ROCK	2	7	[0, 0, 0]	n/a	FR1	9	R1299T
847.261	1.626	847834	WORD	n/a	wordpools/wordpool_EN.txt	FLUTE	3	7	[0, 0, 0]	n/a	FR1	9	R1299T
848.887	1.102	849460	WORD_OFF	n/a	n/a	FLUTE	3	7	[0, 0, 0]	n/a	FR1	9	R1299T
849.989	1.632	850562	WORD	n/a	wordpools/wordpool_EN.txt	SLEEVE	4	7	[0, 0, 0]	n/a	FR1	9	R1299T
851.621	0.861	852194	WORD_OFF	n/a	n/a	SLEEVE	4	7	[0, 0, 0]	n/a	FR1	9	R1299T
852.482	1.623	853055	WORD	n/a	wordpools/wordpool_EN.txt	LOCK	5	7	[0, 0, 0]	n/a	FR1	9	R1299T
854.105	1.072	854678	WORD_OFF	n/a	n/a	LOCK	5	7	[0, 0, 0]	n/a	FR1	9	R1299T
855.177	1.628	855750	WORD	n/a	wordpools/wordpool_EN.txt	HOSE	6	7	[0, 0, 0]	n/a	FR1	9	R1299T
856.805	0.861	857378	WORD_OFF	n/a	n/a	HOSE	6	7	[0, 0, 0]	n/a	FR1	9	R1299T
857.666	1.623	858239	WORD	n/a	wordpools/wordpool_EN.txt	OAK	7	7	[0, 0, 0]	n/a	FR1	9	R1299T
859.289	0.932	859861	WORD_OFF	n/a	n/a	OAK	7	7	[0, 0, 0]	n/a	FR1	9	R1299T
860.221	1.635	860793	WORD	n/a	wordpools/wordpool_EN.txt	SMILE	8	7	[0, 0, 0]	n/a	FR1	9	R1299T
861.856	0.958	862428	WORD_OFF	n/a	n/a	SMILE	8	7	[0, 0, 0]	n/a	FR1	9	R1299T
862.814	1.626	863386	WORD	n/a	wordpools/wordpool_EN.txt	BRIDGE	9	7	[0, 0, 0]	n/a	FR1	9	R1299T
864.44	1.08	865012	WORD_OFF	n/a	n/a	BRIDGE	9	7	[0, 0, 0]	n/a	FR1	9	R1299T
865.52	1.62	866092	WORD	n/a	wordpools/wordpool_EN.txt	CART	10	7	[0, 0, 0]	n/a	FR1	9	R1299T
867.14	0.89	867712	WORD_OFF	n/a	n/a	CART	10	7	[0, 0, 0]	n/a	FR1	9	R1299T
868.03	1.628	868602	WORD	n/a	wordpools/wordpool_EN.txt	AXE	11	7	[0, 0, 0]	n/a	FR1	9	R1299T
869.658	0.837	870230	WORD_OFF	n/a	n/a	AXE	11	7	[0, 0, 0]	n/a	FR1	9	R1299T
870.495	1.63	871067	WORD	n/a	wordpools/wordpool_EN.txt	DRUM	12	7	[0, 0, 0]	n/a	FR1	9	R1299T
872.125	0.0	872697	WORD_OFF	n/a	n/a	DRUM	12	7	[0, 0, 0]	n/a	FR1	9	R1299T
872.125	0.001	872697	ENCODING_END	n/a	n/a	n/a	-999	7	[0, 0, 0]	n/a	FR1	9	R1299T
872.126	0.0	872698	DISTRACT_START	n/a	n/a	n/a	-999	7	[0, 0, 0]	n/a	FR1	9	R1299T
872.126	0.015	872698	START	n/a	n/a	n/a	-999	7	[-999, -999, -999]	n/a	FR1	9	R1299T
872.141	2.884	872713	PROB	2.884	n/a	n/a	-999	7	[7, 1, 1]	9	FR1	9	R1299T
875.025	3.967	875597	PROB	3.967	n/a	n/a	-999	7	[1, 3, 6]	10	FR1	9	R1299T
878.992	4.534	879564	PROB	4.534	n/a	n/a	-999	7	[3, 5, 6]	14	FR1	9	R1299T
883.526	3.901	884097	PROB	3.901	n/a	n/a	-999	7	[6, 7, 8]	21	FR1	9	R1299T
887.427	5.015	887998	PROB	5.015	n/a	n/a	-999	7	[8, 4, 4]	16	FR1	9	R1299T
892.442	0.02	893013	STOP	n/a	n/a	n/a	-999	7	[-999, -999, -999]	n/a	FR1	9	R1299T
892.462	0.58	893033	DISTRACT_END	n/a	n/a	n/a	-999	7	[0, 0, 0]	n/a	FR1	9	R1299T
893.042	1.704	893613	RETRIEVAL_ORIENT_START	n/a	n/a	n/a	-999	7	[0, 0, 0]	n/a	FR1	9	R1299T
894.746	0.0	895317	RETRIEVAL_ORIENT_END	n/a	n/a	n/a	-999	7	[0, 0, 0]	n/a	FR1	9	R1299T
894.746	1.028	895317	REC_START	n/a	n/a	n/a	-999	7	[0, 0, 0]	n/a	FR1	9	R1299T
895.774	0.84	896345	REC_WORD_VV	0.84	n/a	<>	-999	7	[0, 0, 0]	n/a	FR1	9	R1299T
896.614	2.162	897185	REC_WORD	2.162	n/a	SMILE	8	7	[0, 0, 0]	n/a	FR1	9	R1299T
898.776	2.271	899347	REC_WORD	2.271	n/a	BRIDGE	9	7	[0, 0, 0]	n/a	FR1	9	R1299T
901.047	11.115	901618	REC_WORD	11.115	n/a	STEAK	1	7	[0, 0, 0]	n/a	FR1	9	R1299T
912.162	12.596	912732	REC_WORD	12.596	n/a	AXE	11	7	[0, 0, 0]	n/a	FR1	9	R1299T
924.758	0.001	925328	REC_END	n/a	n/a	n/a	-999	7	[0, 0, 0]	n/a	FR1	9	R1299T
924.759	0.014	925329	TRIAL_END	n/a	n/a	n/a	-999	7	[0, 0, 0]	n/a	FR1	9	R1299T
924.773	0.0	925343	TRIAL_START	n/a	n/a	n/a	-999	8	[0, 0, 0]	n/a	FR1	9	R1299T
924.773	0.0	925343	TRIAL	n/a	n/a	n/a	-999	8	[0, 0, 0]	n/a	FR1	9	R1299T
924.773	2.012	925343	WAITING_START	n/a	n/a	n/a	-999	8	[0, 0, 0]	n/a	FR1	9	R1299T
926.785	0.0	927354	WAITING_END	n/a	n/a	n/a	-999	8	[0, 0, 0]	n/a	FR1	9	R1299T
926.785	10.428	927354	COUNTDOWN_START	n/a	n/a	n/a	-999	8	[0, 0, 0]	n/a	FR1	9	R1299T
937.213	0.001	937782	COUNTDOWN_END	n/a	n/a	n/a	-999	8	[0, 0, 0]	n/a	FR1	9	R1299T
937.214	1.04	937783	ORIENT_START	n/a	n/a	n/a	-999	8	[0, 0, 0]	n/a	FR1	9	R1299T
938.254	0.0	938823	ENCODING_START	n/a	n/a	n/a	-999	8	[0, 0, 0]	n/a	FR1	9	R1299T
938.254	0.971	938823	ORIENT_END	n/a	n/a	n/a	-999	8	[0, 0, 0]	n/a	FR1	9	R1299T
939.225	1.629	939794	WORD	n/a	wordpools/wordpool_EN.txt	SLIME	1	8	[0, 0, 0]	n/a	FR1	9	R1299T
940.854	0.93	941423	WORD_OFF	n/a	n/a	SLIME	1	8	[0, 0, 0]	n/a	FR1	9	R1299T
941.784	1.637	942353	WORD	n/a	wordpools/wordpool_EN.txt	CROW	2	8	[0, 0, 0]	n/a	FR1	9	R1299T
943.421	0.938	943990	WORD_OFF	n/a	n/a	CROW	2	8	[0, 0, 0]	n/a	FR1	9	R1299T
944.359	1.629	944928	WORD	n/a	wordpools/wordpool_EN.txt	GLASS	3	8	[0, 0, 0]	n/a	FR1	9	R1299T
945.988	0.944	946557	WORD_OFF	n/a	n/a	GLASS	3	8	[0, 0, 0]	n/a	FR1	9	R1299T
946.932	1.622	947501	WORD	n/a	wordpools/wordpool_EN.txt	CAPE	4	8	[0, 0, 0]	n/a	FR1	9	R1299T
948.554	0.847	949123	WORD_OFF	n/a	n/a	CAPE	4	8	[0, 0, 0]	n/a	FR1	9	R1299T
949.401	1.621	949969	WORD	n/a	wordpools/wordpool_EN.txt	COUCH	5	8	[0, 0, 0]	n/a	FR1	9	R1299T
951.022	1.068	951590	WORD_OFF	n/a	n/a	COUCH	5	8	[0, 0, 0]	n/a	FR1	9	R1299T
952.09	1.633	952658	WORD	n/a	wordpools/wordpool_EN.txt	SMOKE	6	8	[0, 0, 0]	n/a	FR1	9	R1299T
953.723	0.787	954291	WORD_OFF	n/a	n/a	SMOKE	6	8	[0, 0, 0]	n/a	FR1	9	R1299T
954.51	1.63	955078	WORD	n/a	wordpools/wordpool_EN.txt	BEACH	7	8	[0, 0, 0]	n/a	FR1	9	R1299T
956.14	0.974	956708	WORD_OFF	n/a	n/a	BEACH	7	8	[0, 0, 0]	n/a	FR1	9	R1299T
957.114	1.627	957682	WORD	n/a	wordpools/wordpool_EN.txt	CAVE	8	8	[0, 0, 0]	n/a	FR1	9	R1299T
958.741	1.071	959309	WORD_OFF	n/a	n/a	CAVE	8	8	[0, 0, 0]	n/a	FR1	9	R1299T
959.812	1.629	960380	WORD	n/a	wordpools/wordpool_EN.txt	ELF	9	8	[0, 0, 0]	n/a	FR1	9	R1299T
961.441	0.792	962009	WORD_OFF	n/a	n/a	ELF	9	8	[0, 0, 0]	n/a	FR1	9	R1299T
962.233	1.625	962801	WORD	n/a	wordpools/wordpool_EN.txt	TRAY	10	8	[0, 0, 0]	n/a	FR1	9	R1299T
963.858	1.006	964426	WORD_OFF	n/a	n/a	TRAY	10	8	[0, 0, 0]	n/a	FR1	9	R1299T
964.864	1.628	965432	WORD	n/a	wordpools/wordpool_EN.txt	CRANE	11	8	[0, 0, 0]	n/a	FR1	9	R1299T
966.492	1.068	967060	WORD_OFF	n/a	n/a	CRANE	11	8	[0, 0, 0]	n/a	FR1	9	R1299T
967.56	1.616	968128	WORD	n/a	wordpools/wordpool_EN.txt	MOON	12	8	[0, 0, 0]	n/a	FR1	9	R1299T
969.176	0.0	969744	WORD_OFF	n/a	n/a	MOON	12	8	[0, 0, 0]	n/a	FR1	9	R1299T
969.176	0.0	969744	ENCODING_END	n/a	n/a	n/a	-999	8	[0, 0, 0]	n/a	FR1	9	R1299T
969.176	0.0	969744	DISTRACT_START	n/a	n/a	n/a	-999	8	[0, 0, 0]	n/a	FR1	9	R1299T
969.176	0.016	969744	START	n/a	n/a	n/a	-999	8	[-999, -999, -999]	n/a	FR1	9	R1299T
969.192	6.201	969760	PROB	6.201	n/a	n/a	-999	8	[4, 4, 9]	17	FR1	9	R1299T
975.393	4.801	975960	PROB	4.801	n/a	n/a	-999	8	[8, 7, 6]	21	FR1	9	R1299T
980.194	4.134	980761	PROB	4.134	n/a	n/a	-999	8	[9, 2, 9]	20	FR1	9	R1299T
984.328	6.3	984895	PROB	6.3	n/a	n/a	-999	8	[7, 1, 6]	14	FR1	9	R1299T
990.628	0.018	991195	STOP	n/a	n/a	n/a	-999	8	[-999, -999, -999]	n/a	FR1	9	R1299T
990.646	0.65	991213	DISTRACT_END	n/a	n/a	n/a	-999	8	[0, 0, 0]	n/a	FR1	9	R1299T
991.296	1.617	991863	RETRIEVAL_ORIENT_START	n/a	n/a	n/a	-999	8	[0, 0, 0]	n/a	FR1	9	R1299T
992.913	0.001	993480	RETRIEVAL_ORIENT_END	n/a	n/a	n/a	-999	8	[0, 0, 0]	n/a	FR1	9	R1299T
992.914	4.911	993481	REC_START	n/a	n/a	n/a	-999	8	[0, 0, 0]	n/a	FR1	9	R1299T
997.825	1.154	998391	REC_WORD_VV	1.154	n/a	<>	-999	8	[0, 0, 0]	n/a	FR1	9	R1299T
998.979	3.016	999545	REC_WORD	3.016	n/a	SLIME	1	8	[0, 0, 0]	n/a	FR1	9	R1299T
1001.995	3.984	1002561	REC_WORD	3.984	n/a	CROW	2	8	[0, 0, 0]	n/a	FR1	9	R1299T
1005.979	16.948	1006545	REC_WORD	16.948	n/a	MOON	12	8	[0, 0, 0]	n/a	FR1	9	R1299T
1022.927	0.0	1023492	REC_END	n/a	n/a	n/a	-999	8	[0, 0, 0]	n/a	FR1	9	R1299T
1022.927	0.016	1023492	TRIAL_END	n/a	n/a	n/a	-999	8	[0, 0, 0]	n/a	FR1	9	R1299T
1022.943	0.0	1023508	WAITING_START	n/a	n/a	n/a	-999	9	[0, 0, 0]	n/a	FR1	9	R1299T
1022.943	0.0	1023508	TRIAL_START	n/a	n/a	n/a	-999	9	[0, 0, 0]	n/a	FR1	9	R1299T
1022.943	2.276	1023508	TRIAL	n/a	n/a	n/a	-999	9	[0, 0, 0]	n/a	FR1	9	R1299T
1025.219	0.001	1025784	WAITING_END	n/a	n/a	n/a	-999	9	[0, 0, 0]	n/a	FR1	9	R1299T
1025.22	10.428	1025785	COUNTDOWN_START	n/a	n/a	n/a	-999	9	[0, 0, 0]	n/a	FR1	9	R1299T
1035.648	0.001	1036213	COUNTDOWN_END	n/a	n/a	n/a	-999	9	[0, 0, 0]	n/a	FR1	9	R1299T
1035.649	1.123	1036214	ORIENT_START	n/a	n/a	n/a	-999	9	[0, 0, 0]	n/a	FR1	9	R1299T
1036.772	0.0	1037337	ORIENT_END	n/a	n/a	n/a	-999	9	[0, 0, 0]	n/a	FR1	9	R1299T
1036.772	1.044	1037337	ENCODING_START	n/a	n/a	n/a	-999	9	[0, 0, 0]	n/a	FR1	9	R1299T
1037.816	1.623	1038381	WORD	n/a	wordpools/wordpool_EN.txt	FORT	1	9	[0, 0, 0]	n/a	FR1	9	R1299T
1039.439	0.756	1040004	WORD_OFF	n/a	n/a	FORT	1	9	[0, 0, 0]	n/a	FR1	9	R1299T
1040.195	1.627	1040760	WORD	n/a	wordpools/wordpool_EN.txt	BRUSH	2	9	[0, 0, 0]	n/a	FR1	9	R1299T
1041.822	1.031	1042386	WORD_OFF	n/a	n/a	BRUSH	2	9	[0, 0, 0]	n/a	FR1	9	R1299T
1042.853	1.636	1043417	WORD	n/a	wordpools/wordpool_EN.txt	VASE	3	9	[0, 0, 0]	n/a	FR1	9	R1299T
1044.489	0.883	1045053	WORD_OFF	n/a	n/a	VASE	3	9	[0, 0, 0]	n/a	FR1	9	R1299T
1045.372	1.635	1045936	WORD	n/a	wordpools/wordpool_EN.txt	STICK	4	9	[0, 0, 0]	n/a	FR1	9	R1299T
1047.007	1.059	1047571	WORD_OFF	n/a	n/a	STICK	4	9	[0, 0, 0]	n/a	FR1	9	R1299T
1048.066	1.624	1048630	WORD	n/a	wordpools/wordpool_EN.txt	SHOE	5	9	[0, 0, 0]	n/a	FR1	9	R1299T
1049.69	0.885	1050254	WORD_OFF	n/a	n/a	SHOE	5	9	[0, 0, 0]	n/a	FR1	9	R1299T
1050.575	1.633	1051139	WORD	n/a	wordpools/wordpool_EN.txt	SHIELD	6	9	[0, 0, 0]	n/a	FR1	9	R1299T
1052.208	0.984	1052772	WORD_OFF	n/a	n/a	SHIELD	6	9	[0, 0, 0]	n/a	FR1	9	R1299T
1053.192	1.633	1053756	WORD	n/a	wordpools/wordpool_EN.txt	BRICK	7	9	[0, 0, 0]	n/a	FR1	9	R1299T
1054.825	0.861	1055389	WORD_OFF	n/a	n/a	BRICK	7	9	[0, 0, 0]	n/a	FR1	9	R1299T
1055.686	1.622	1056250	WORD	n/a	wordpools/wordpool_EN.txt	DOLL	8	9	[0, 0, 0]	n/a	FR1	9	R1299T
1057.308	1.107	1057872	WORD_OFF	n/a	n/a	DOLL	8	9	[0, 0, 0]	n/a	FR1	9	R1299T
1058.415	1.627	1058979	WORD	n/a	wordpools/wordpool_EN.txt	CROWN	9	9	[0, 0, 0]	n/a	FR1	9	R1299T
1060.042	1.084	1060606	WORD_OFF	n/a	n/a	CROWN	9	9	[0, 0, 0]	n/a	FR1	9	R1299T
1061.126	1.633	1061690	WORD	n/a	wordpools/wordpool_EN.txt	HAT	10	9	[0, 0, 0]	n/a	FR1	9	R1299T
1062.759	0.898	1063323	WORD_OFF	n/a	n/a	HAT	10	9	[0, 0, 0]	n/a	FR1	9	R1299T
1063.657	1.636	1064220	WORD	n/a	wordpools/wordpool_EN.txt	ROOF	11	9	[0, 0, 0]	n/a	FR1	9	R1299T
1065.293	1.044	1065856	WORD_OFF	n/a	n/a	ROOF	11	9	[0, 0, 0]	n/a	FR1	9	R1299T
1066.337	1.623	1066900	WORD	n/a	wordpools/wordpool_EN.txt	CAT	12	9	[0, 0, 0]	n/a	FR1	9	R1299T
1067.96	0.001	1068523	WORD_OFF	n/a	n/a	CAT	12	9	[0, 0, 0]	n/a	FR1	9	R1299T
1067.961	0.0	1068524	ENCODING_END	n/a	n/a	n/a	-999	9	[0, 0, 0]	n/a	FR1	9	R1299T
1067.961	0.0	1068524	DISTRACT_START	n/a	n/a	n/a	-999	9	[0, 0, 0]	n/a	FR1	9	R1299T
1067.961	0.016	1068524	START	n/a	n/a	n/a	-999	9	[-999, -999, -999]	n/a	FR1	9	R1299T
1067.977	3.684	1068540	PROB	3.684	n/a	n/a	-999	9	[8, 2, 4]	14	FR1	9	R1299T
1071.661	6.051	1072224	PROB	6.051	n/a	n/a	-999	9	[6, 2, 6]	14	FR1	9	R1299T
1077.712	5.284	1078275	PROB	5.284	n/a	n/a	-999	9	[9, 9, 8]	26	FR1	9	R1299T
1082.996	3.634	1083559	PROB	3.634	n/a	n/a	-999	9	[4, 3, 6]	13	FR1	9	R1299T
1086.63	4.921	1087192	PROB	4.921	n/a	n/a	-999	9	[2, 5, 7]	14	FR1	9	R1299T
1091.551	0.013	1092113	STOP	n/a	n/a	n/a	-999	9	[-999, -999, -999]	n/a	FR1	9	R1299T
1091.564	0.536	1092126	DISTRACT_END	n/a	n/a	n/a	-999	9	[0, 0, 0]	n/a	FR1	9	R1299T
1092.1	1.665	1092662	RETRIEVAL_ORIENT_START	n/a	n/a	n/a	-999	9	[0, 0, 0]	n/a	FR1	9	R1299T
1093.765	0.0	1094327	RETRIEVAL_ORIENT_END	n/a	n/a	n/a	-999	9	[0, 0, 0]	n/a	FR1	9	R1299T
1093.765	28.413	1094327	REC_START	n/a	n/a	n/a	-999	9	[0, 0, 0]	n/a	FR1	9	R1299T
1122.178	1.599	1122739	REC_WORD_VV	1.599	n/a	<>	-999	9	[0, 0, 0]	n/a	FR1	9	R1299T
1123.777	0.0	1124338	REC_END	n/a	n/a	n/a	-999	9	[0, 0, 0]	n/a	FR1	9	R1299T
1123.777	0.016	1124338	TRIAL_END	n/a	n/a	n/a	-999	9	[0, 0, 0]	n/a	FR1	9	R1299T
1123.793	0.0	1124354	TRIAL_START	n/a	n/a	n/a	-999	10	[0, 0, 0]	n/a	FR1	9	R1299T
1123.793	0.001	1124354	TRIAL	n/a	n/a	n/a	-999	10	[0, 0, 0]	n/a	FR1	9	R1299T
1123.794	3.944	1124355	WAITING_START	n/a	n/a	n/a	-999	10	[0, 0, 0]	n/a	FR1	9	R1299T
1127.738	0.0	1128299	COUNTDOWN_START	n/a	n/a	n/a	-999	10	[0, 0, 0]	n/a	FR1	9	R1299T
1127.738	10.43	1128299	WAITING_END	n/a	n/a	n/a	-999	10	[0, 0, 0]	n/a	FR1	9	R1299T
1138.168	0.0	1138728	COUNTDOWN_END	n/a	n/a	n/a	-999	10	[0, 0, 0]	n/a	FR1	9	R1299T
1138.168	1.022	1138728	ORIENT_START	n/a	n/a	n/a	-999	10	[0, 0, 0]	n/a	FR1	9	R1299T
1139.19	0.0	1139750	ORIENT_END	n/a	n/a	n/a	-999	10	[0, 0, 0]	n/a	FR1	9	R1299T
1139.19	0.779	1139750	ENCODING_START	n/a	n/a	n/a	-999	10	[0, 0, 0]	n/a	FR1	9	R1299T
1139.969	1.62	1140529	WORD	n/a	wordpools/wordpool_EN.txt	CAR	1	10	[0, 0, 0]	n/a	FR1	9	R1299T
1141.589	1.142	1142149	WORD_OFF	n/a	n/a	CAR	1	10	[0, 0, 0]	n/a	FR1	9	R1299T
1142.731	1.627	1143291	WORD	n/a	wordpools/wordpool_EN.txt	SCHOOL	2	10	[0, 0, 0]	n/a	FR1	9	R1299T
1144.358	1.076	1144918	WORD_OFF	n/a	n/a	SCHOOL	2	10	[0, 0, 0]	n/a	FR1	9	R1299T
1145.434	1.624	1145994	WORD	n/a	wordpools/wordpool_EN.txt	GEESE	3	10	[0, 0, 0]	n/a	FR1	9	R1299T
1147.058	0.784	1147618	WORD_OFF	n/a	n/a	GEESE	3	10	[0, 0, 0]	n/a	FR1	9	R1299T
1147.842	1.633	1148402	WORD	n/a	wordpools/wordpool_EN.txt	THUMB	4	10	[0, 0, 0]	n/a	FR1	9	R1299T
1149.475	1.119	1150035	WORD_OFF	n/a	n/a	THUMB	4	10	[0, 0, 0]	n/a	FR1	9	R1299T
1150.594	1.632	1151154	WORD	n/a	wordpools/wordpool_EN.txt	ZOO	5	10	[0, 0, 0]	n/a	FR1	9	R1299T
1152.226	0.997	1152786	WORD_OFF	n/a	n/a	ZOO	5	10	[0, 0, 0]	n/a	FR1	9	R1299T
1153.223	1.636	1153783	WORD	n/a	wordpools/wordpool_EN.txt	SIGN	6	10	[0, 0, 0]	n/a	FR1	9	R1299T
1154.859	0.963	1155418	WORD_OFF	n/a	n/a	SIGN	6	10	[0, 0, 0]	n/a	FR1	9	R1299T
1155.822	1.621	1156381	WORD	n/a	wordpools/wordpool_EN.txt	ROPE	7	10	[0, 0, 0]	n/a	FR1	9	R1299T
1157.443	0.943	1158002	WORD_OFF	n/a	n/a	ROPE	7	10	[0, 0, 0]	n/a	FR1	9	R1299T
1158.386	1.624	1158945	WORD	n/a	wordpools/wordpool_EN.txt	DESK	8	10	[0, 0, 0]	n/a	FR1	9	R1299T
1160.01	0.983	1160569	WORD_OFF	n/a	n/a	DESK	8	10	[0, 0, 0]	n/a	FR1	9	R1299T
1160.993	1.634	1161552	WORD	n/a	wordpools/wordpool_EN.txt	WORM	9	10	[0, 0, 0]	n/a	FR1	9	R1299T
1162.627	0.944	1163186	WORD_OFF	n/a	n/a	WORM	9	10	[0, 0, 0]	n/a	FR1	9	R1299T
1163.571	1.624	1164130	WORD	n/a	wordpools/wordpool_EN.txt	JUICE	10	10	[0, 0, 0]	n/a	FR1	9	R1299T
1165.195	0.906	1165754	WORD_OFF	n/a	n/a	JUICE	10	10	[0, 0, 0]	n/a	FR1	9	R1299T
1166.101	1.627	1166660	WORD	n/a	wordpools/wordpool_EN.txt	PEACH	11	10	[0, 0, 0]	n/a	FR1	9	R1299T
1167.728	0.984	1168287	WORD_OFF	n/a	n/a	PEACH	11	10	[0, 0, 0]	n/a	FR1	9	R1299T
1168.712	1.634	1169271	WORD	n/a	wordpools/wordpool_EN.txt	SNAKE	12	10	[0, 0, 0]	n/a	FR1	9	R1299T
1170.346	0.0	1170905	DISTRACT_START	n/a	n/a	n/a	-999	10	[0, 0, 0]	n/a	FR1	9	R1299T
1170.346	0.0	1170905	WORD_OFF	n/a	n/a	SNAKE	12	10	[0, 0, 0]	n/a	FR1	9	R1299T
1170.346	0.001	1170905	ENCODING_END	n/a	n/a	n/a	-999	10	[0, 0, 0]	n/a	FR1	9	R1299T
1170.347	0.015	1170906	START	n/a	n/a	n/a	-999	10	[-999, -999, -999]	n/a	FR1	9	R1299T
1170.362	4.183	1170921	PROB	4.183	n/a	n/a	-999	10	[3, 7, 7]	17	FR1	9	R1299T
1174.545	4.635	1175104	PROB	4.635	n/a	n/a	-999	10	[4, 6, 6]	16	FR1	9	R1299T
1179.18	4.985	1179738	PROB	4.985	n/a	n/a	-999	10	[6, 1, 6]	13	FR1	9	R1299T
1184.165	7.514	1184723	PROB	7.514	n/a	n/a	-999	10	[8, 9, 6]	23	FR1	9	R1299T
1191.679	0.02	1192237	STOP	n/a	n/a	n/a	-999	10	[-999, -999, -999]	n/a	FR1	9	R1299T
1191.699	0.689	1192257	DISTRACT_END	n/a	n/a	n/a	-999	10	[0, 0, 0]	n/a	FR1	9	R1299T
1192.388	1.562	1192946	RETRIEVAL_ORIENT_START	n/a	n/a	n/a	-999	10	[0, 0, 0]	n/a	FR1	9	R1299T
1193.95	0.0	1194508	RETRIEVAL_ORIENT_END	n/a	n/a	n/a	-999	10	[0, 0, 0]	n/a	FR1	9	R1299T
1193.95	0.538	1194508	REC_START	n/a	n/a	n/a	-999	10	[0, 0, 0]	n/a	FR1	9	R1299T
1194.488	1.384	1195046	REC_WORD_VV	1.384	n/a	<>	-999	10	[0, 0, 0]	n/a	FR1	9	R1299T
1195.872	1.876	1196430	REC_WORD	1.876	n/a	PEAR	-999	10	[0, 0, 0]	n/a	FR1	9	R1299T
1197.748	2.698	1198306	REC_WORD	2.698	n/a	JUICE	10	10	[0, 0, 0]	n/a	FR1	9	R1299T
1200.446	23.517	1201003	REC_WORD	23.517	n/a	WORM	9	10	[0, 0, 0]	n/a	FR1	9	R1299T
1223.963	0.0	1224519	REC_END	n/a	n/a	n/a	-999	10	[0, 0, 0]	n/a	FR1	9	R1299T
1223.963	0.017	1224519	TRIAL_END	n/a	n/a	n/a	-999	10	[0, 0, 0]	n/a	FR1	9	R1299T
1223.98	0.001	1224536	TRIAL_START	n/a	n/a	n/a	-999	11	[0, 0, 0]	n/a	FR1	9	R1299T
1223.981	0.0	1224537	TRIAL	n/a	n/a	n/a	-999	11	[0, 0, 0]	n/a	FR1	9	R1299T
1223.981	3.975	1224537	WAITING_START	n/a	n/a	n/a	-999	11	[0, 0, 0]	n/a	FR1	9	R1299T
1227.956	0.001	1228512	WAITING_END	n/a	n/a	n/a	-999	11	[0, 0, 0]	n/a	FR1	9	R1299T
1227.957	10.428	1228513	COUNTDOWN_START	n/a	n/a	n/a	-999	11	[0, 0, 0]	n/a	FR1	9	R1299T
1238.385	0.0	1238941	ORIENT_START	n/a	n/a	n/a	-999	11	[0, 0, 0]	n/a	FR1	9	R1299T
1238.385	1.257	1238941	COUNTDOWN_END	n/a	n/a	n/a	-999	11	[0, 0, 0]	n/a	FR1	9	R1299T
1239.642	0.0	1240198	ORIENT_END	n/a	n/a	n/a	-999	11	[0, 0, 0]	n/a	FR1	9	R1299T
1239.642	1.026	1240198	ENCODING_START	n/a	n/a	n/a	-999	11	[0, 0, 0]	n/a	FR1	9	R1299T
1240.668	1.624	1241224	WORD	n/a	wordpools/wordpool_EN.txt	COW	1	11	[0, 0, 0]	n/a	FR1	9	R1299T
1242.292	0.925	1242848	WORD_OFF	n/a	n/a	COW	1	11	[0, 0, 0]	n/a	FR1	9	R1299T
1243.217	1.626	1243773	WORD	n/a	wordpools/wordpool_EN.txt	MAP	2	11	[0, 0, 0]	n/a	FR1	9	R1299T
1244.843	1.102	1245399	WORD_OFF	n/a	n/a	MAP	2	11	[0, 0, 0]	n/a	FR1	9	R1299T
1245.945	1.63	1246500	WORD	n/a	wordpools/wordpool_EN.txt	TANK	3	11	[0, 0, 0]	n/a	FR1	9	R1299T
1247.575	0.865	1248130	WORD_OFF	n/a	n/a	TANK	3	11	[0, 0, 0]	n/a	FR1	9	R1299T
1248.44	1.637	1248995	WORD	n/a	wordpools/wordpool_EN.txt	STOVE	4	11	[0, 0, 0]	n/a	FR1	9	R1299T
1250.077	0.902	1250632	WORD_OFF	n/a	n/a	STOVE	4	11	[0, 0, 0]	n/a	FR1	9	R1299T
1250.979	1.631	1251534	WORD	n/a	wordpools/wordpool_EN.txt	SOCK	5	11	[0, 0, 0]	n/a	FR1	9	R1299T
1252.61	1.044	1253165	WORD_OFF	n/a	n/a	SOCK	5	11	[0, 0, 0]	n/a	FR1	9	R1299T
1253.654	1.624	1254209	WORD	n/a	wordpools/wordpool_EN.txt	STREET	6	11	[0, 0, 0]	n/a	FR1	9	R1299T
1255.278	0.964	1255833	WORD_OFF	n/a	n/a	STREET	6	11	[0, 0, 0]	n/a	FR1	9	R1299T
1256.242	1.636	1256797	WORD	n/a	wordpools/wordpool_EN.txt	CHIEF	7	11	[0, 0, 0]	n/a	FR1	9	R1299T
1257.878	1.074	1258433	WORD_OFF	n/a	n/a	CHIEF	7	11	[0, 0, 0]	n/a	FR1	9	R1299T
1258.952	1.626	1259507	WORD	n/a	wordpools/wordpool_EN.txt	BED	8	11	[0, 0, 0]	n/a	FR1	9	R1299T
1260.578	0.994	1261133	WORD_OFF	n/a	n/a	BED	8	11	[0, 0, 0]	n/a	FR1	9	R1299T
1261.572	1.607	1262127	WORD	n/a	wordpools/wordpool_EN.txt	SLUSH	9	11	[0, 0, 0]	n/a	FR1	9	R1299T
1263.179	1.08	1263734	WORD_OFF	n/a	n/a	SLUSH	9	11	[0, 0, 0]	n/a	FR1	9	R1299T
1264.259	1.637	1264814	WORD	n/a	wordpools/wordpool_EN.txt	SKI	10	11	[0, 0, 0]	n/a	FR1	9	R1299T
1265.896	1.008	1266451	WORD_OFF	n/a	n/a	SKI	10	11	[0, 0, 0]	n/a	FR1	9	R1299T
1266.904	1.625	1267459	WORD	n/a	wordpools/wordpool_EN.txt	LAWN	11	11	[0, 0, 0]	n/a	FR1	9	R1299T
1268.529	0.908	1269083	WORD_OFF	n/a	n/a	LAWN	11	11	[0, 0, 0]	n/a	FR1	9	R1299T
1269.437	1.627	1269991	WORD	n/a	wordpools/wordpool_EN.txt	BOMB	12	11	[0, 0, 0]	n/a	FR1	9	R1299T
1271.064	0.0	1271618	ENCODING_END	n/a	n/a	n/a	-999	11	[0, 0, 0]	n/a	FR1	9	R1299T
1271.064	0.001	1271618	WORD_OFF	n/a	n/a	BOMB	12	11	[0, 0, 0]	n/a	FR1	9	R1299T
1271.065	0.0	1271619	DISTRACT_START	n/a	n/a	n/a	-999	11	[0, 0, 0]	n/a	FR1	9	R1299T
1271.065	0.015	1271619	START	n/a	n/a	n/a	-999	11	[-999, -999, -999]	n/a	FR1	9	R1299T
1271.08	5.718	1271634	PROB	5.718	n/a	n/a	-999	11	[4, 9, 1]	14	FR1	9	R1299T
1276.798	4.101	1277352	PROB	4.101	n/a	n/a	-999	11	[9, 4, 5]	18	FR1	9	R1299T
1280.899	3.617	1281453	PROB	3.617	n/a	n/a	-999	11	[7, 4, 3]	14	FR1	9	R1299T
1284.516	5.484	1285070	PROB	5.484	n/a	n/a	-999	11	[6, 9, 2]	17	FR1	9	R1299T
1290.0	4.891	1290554	PROB	4.891	n/a	n/a	-999	11	[2, 4, 9]	23	FR1	9	R1299T
1294.891	0.011	1295444	STOP	n/a	n/a	n/a	-999	11	[-999, -999, -999]	n/a	FR1	9	R1299T
1294.902	0.539	1295455	DISTRACT_END	n/a	n/a	n/a	-999	11	[0, 0, 0]	n/a	FR1	9	R1299T
1295.441	1.561	1295994	RETRIEVAL_ORIENT_START	n/a	n/a	n/a	-999	11	[0, 0, 0]	n/a	FR1	9	R1299T
1297.002	0.0	1297555	RETRIEVAL_ORIENT_END	n/a	n/a	n/a	-999	11	[0, 0, 0]	n/a	FR1	9	R1299T
1297.002	1.251	1297555	REC_START	n/a	n/a	n/a	-999	11	[0, 0, 0]	n/a	FR1	9	R1299T
1298.253	0.812	1298806	REC_WORD_VV	0.812	n/a	<>	-999	11	[0, 0, 0]	n/a	FR1	9	R1299T
1299.065	0.523	1299618	REC_WORD_VV	0.523	n/a	<>	-999	11	[0, 0, 0]	n/a	FR1	9	R1299T
1299.588	1.63	1300141	REC_WORD	1.63	n/a	SKI	10	11	[0, 0, 0]	n/a	FR1	9	R1299T
1301.218	2.883	1301771	REC_WORD	2.883	n/a	SLUSH	9	11	[0, 0, 0]	n/a	FR1	9	R1299T
1304.101	22.913	1304654	REC_WORD	22.913	n/a	COW	1	11	[0, 0, 0]	n/a	FR1	9	R1299T
1327.014	0.001	1327566	REC_END	n/a	n/a	n/a	-999	11	[0, 0, 0]	n/a	FR1	9	R1299T
1327.015	0.014	1327567	TRIAL_END	n/a	n/a	n/a	-999	11	[0, 0, 0]	n/a	FR1	9	R1299T
1327.029	0.0	1327581	TRIAL_START	n/a	n/a	n/a	-999	12	[0, 0, 0]	n/a	FR1	9	R1299T
1327.029	0.0	1327581	TRIAL	n/a	n/a	n/a	-999	12	[0, 0, 0]	n/a	FR1	9	R1299T
1327.029	2.963	1327581	WAITING_START	n/a	n/a	n/a	-999	12	[0, 0, 0]	n/a	FR1	9	R1299T
1329.992	0.0	1330544	WAITING_END	n/a	n/a	n/a	-999	12	[0, 0, 0]	n/a	FR1	9	R1299T
1329.992	10.429	1330544	COUNTDOWN_START	n/a	n/a	n/a	-999	12	[0, 0, 0]	n/a	FR1	9	R1299T
1340.421	0.0	1340972	ORIENT_START	n/a	n/a	n/a	-999	12	[0, 0, 0]	n/a	FR1	9	R1299T
1340.421	1.039	1340972	COUNTDOWN_END	n/a	n/a	n/a	-999	12	[0, 0, 0]	n/a	FR1	9	R1299T
1341.46	0.001	1342011	ORIENT_END	n/a	n/a	n/a	-999	12	[0, 0, 0]	n/a	FR1	9	R1299T
1341.461	1.072	1342012	ENCODING_START	n/a	n/a	n/a	-999	12	[0, 0, 0]	n/a	FR1	9	R1299T
1342.533	1.611	1343084	WORD	n/a	wordpools/wordpool_EN.txt	ROOT	1	12	[0, 0, 0]	n/a	FR1	9	R1299T
1344.144	0.831	1344695	WORD_OFF	n/a	n/a	ROOT	1	12	[0, 0, 0]	n/a	FR1	9	R1299T
1344.975	1.635	1345526	WORD	n/a	wordpools/wordpool_EN.txt	CALF	2	12	[0, 0, 0]	n/a	FR1	9	R1299T
1346.61	0.869	1347161	WORD_OFF	n/a	n/a	CALF	2	12	[0, 0, 0]	n/a	FR1	9	R1299T
1347.479	1.632	1348030	WORD	n/a	wordpools/wordpool_EN.txt	PLANT	3	12	[0, 0, 0]	n/a	FR1	9	R1299T
1349.111	0.939	1349662	WORD_OFF	n/a	n/a	PLANT	3	12	[0, 0, 0]	n/a	FR1	9	R1299T
1350.05	1.629	1350601	WORD	n/a	wordpools/wordpool_EN.txt	SUN	4	12	[0, 0, 0]	n/a	FR1	9	R1299T
1351.679	0.969	1352230	WORD_OFF	n/a	n/a	SUN	4	12	[0, 0, 0]	n/a	FR1	9	R1299T
1352.648	1.631	1353199	WORD	n/a	wordpools/wordpool_EN.txt	HORSE	5	12	[0, 0, 0]	n/a	FR1	9	R1299T
1354.279	0.857	1354830	WORD_OFF	n/a	n/a	HORSE	5	12	[0, 0, 0]	n/a	FR1	9	R1299T
1355.136	1.627	1355687	WORD	n/a	wordpools/wordpool_EN.txt	BAG	6	12	[0, 0, 0]	n/a	FR1	9	R1299T
1356.763	0.808	1357314	WORD_OFF	n/a	n/a	BAG	6	12	[0, 0, 0]	n/a	FR1	9	R1299T
1357.571	1.609	1358122	WORD	n/a	wordpools/wordpool_EN.txt	LAND	7	12	[0, 0, 0]	n/a	FR1	9	R1299T
1359.18	0.903	1359730	WORD_OFF	n/a	n/a	LAND	7	12	[0, 0, 0]	n/a	FR1	9	R1299T
1360.083	1.631	1360633	WORD	n/a	wordpools/wordpool_EN.txt	JAR	8	12	[0, 0, 0]	n/a	FR1	9	R1299T
1361.714	1.099	1362264	WORD_OFF	n/a	n/a	JAR	8	12	[0, 0, 0]	n/a	FR1	9	R1299T
1362.813	1.635	1363363	WORD	n/a	wordpools/wordpool_EN.txt	CAKE	9	12	[0, 0, 0]	n/a	FR1	9	R1299T
1364.448	0.834	1364998	WORD_OFF	n/a	n/a	CAKE	9	12	[0, 0, 0]	n/a	FR1	9	R1299T
1365.282	1.633	1365832	WORD	n/a	wordpools/wordpool_EN.txt	WOLF	10	12	[0, 0, 0]	n/a	FR1	9	R1299T
1366.915	0.788	1367465	WORD_OFF	n/a	n/a	WOLF	10	12	[0, 0, 0]	n/a	FR1	9	R1299T
1367.703	1.629	1368253	WORD	n/a	wordpools/wordpool_EN.txt	CASH	11	12	[0, 0, 0]	n/a	FR1	9	R1299T
1369.332	0.832	1369882	WORD_OFF	n/a	n/a	CASH	11	12	[0, 0, 0]	n/a	FR1	9	R1299T
1370.164	1.635	1370714	WORD	n/a	wordpools/wordpool_EN.txt	BARN	12	12	[0, 0, 0]	n/a	FR1	9	R1299T
1371.799	0.0	1372349	WORD_OFF	n/a	n/a	BARN	12	12	[0, 0, 0]	n/a	FR1	9	R1299T
1371.799	0.001	1372349	ENCODING_END	n/a	n/a	n/a	-999	12	[0, 0, 0]	n/a	FR1	9	R1299T
1371.8	0.0	1372350	DISTRACT_START	n/a	n/a	n/a	-999	12	[0, 0, 0]	n/a	FR1	9	R1299T
1371.8	0.015	1372350	START	n/a	n/a	n/a	-999	12	[-999, -999, -999]	n/a	FR1	9	R1299T
1371.815	5.085	1372365	PROB	5.085	n/a	n/a	-999	12	[5, 7, 1]	13	FR1	9	R1299T
1376.9	4.734	1377450	PROB	4.734	n/a	n/a	-999	12	[1, 4, 7]	12	FR1	9	R1299T
1381.634	3.884	1382184	PROB	3.884	n/a	n/a	-999	12	[7, 8, 3]	18	FR1	9	R1299T
1385.518	3.834	1386067	PROB	3.834	n/a	n/a	-999	12	[7, 6, 4]	17	FR1	9	R1299T
1389.352	5.46	1389901	PROB	5.46	n/a	n/a	-999	12	[2, 8, 4]	14	FR1	9	R1299T
1394.812	0.008	1395361	STOP	n/a	n/a	n/a	-999	12	[-999, -999, -999]	n/a	FR1	9	R1299T
1394.82	0.679	1395369	DISTRACT_END	n/a	n/a	n/a	-999	12	[0, 0, 0]	n/a	FR1	9	R1299T
1395.499	1.654	1396048	RETRIEVAL_ORIENT_START	n/a	n/a	n/a	-999	12	[0, 0, 0]	n/a	FR1	9	R1299T
1397.153	0.001	1397702	RETRIEVAL_ORIENT_END	n/a	n/a	n/a	-999	12	[0, 0, 0]	n/a	FR1	9	R1299T
1397.154	17.833	1397703	REC_START	n/a	n/a	n/a	-999	12	[0, 0, 0]	n/a	FR1	9	R1299T
1414.987	12.18	1415535	REC_WORD_VV	12.18	n/a	<>	-999	12	[0, 0, 0]	n/a	FR1	9	R1299T
1427.167	0.0	1427715	TRIAL_END	n/a	n/a	n/a	-999	12	[0, 0, 0]	n/a	FR1	9	R1299T
1427.167	0.017	1427715	REC_END	n/a	n/a	n/a	-999	12	[0, 0, 0]	n/a	FR1	9	R1299T
1427.184	0.0	1427732	TRIAL	n/a	n/a	n/a	-999	13	[0, 0, 0]	n/a	FR1	9	R1299T
1427.184	0.0	1427732	WAITING_START	n/a	n/a	n/a	-999	13	[0, 0, 0]	n/a	FR1	9	R1299T
1427.184	5.576	1427732	TRIAL_START	n/a	n/a	n/a	-999	13	[0, 0, 0]	n/a	FR1	9	R1299T
1432.76	0.0	1433307	WAITING_END	n/a	n/a	n/a	-999	13	[0, 0, 0]	n/a	FR1	9	R1299T
1432.76	10.43	1433307	COUNTDOWN_START	n/a	n/a	n/a	-999	13	[0, 0, 0]	n/a	FR1	9	R1299T
1443.19	0.0	1443737	COUNTDOWN_END	n/a	n/a	n/a	-999	13	[0, 0, 0]	n/a	FR1	9	R1299T
1443.19	1.022	1443737	ORIENT_START	n/a	n/a	n/a	-999	13	[0, 0, 0]	n/a	FR1	9	R1299T
1444.212	0.0	1444759	ORIENT_END	n/a	n/a	n/a	-999	13	[0, 0, 0]	n/a	FR1	9	R1299T
1444.212	0.946	1444759	ENCODING_START	n/a	n/a	n/a	-999	13	[0, 0, 0]	n/a	FR1	9	R1299T
1445.158	1.638	1445705	WORD	n/a	wordpools/wordpool_EN.txt	PARK	1	13	[0, 0, 0]	n/a	FR1	9	R1299T
1446.796	1.064	1447343	WORD_OFF	n/a	n/a	PARK	1	13	[0, 0, 0]	n/a	FR1	9	R1299T
1447.86	1.636	1448407	WORD	n/a	wordpools/wordpool_EN.txt	HORN	2	13	[0, 0, 0]	n/a	FR1	9	R1299T
1449.496	0.977	1450043	WORD_OFF	n/a	n/a	HORN	2	13	[0, 0, 0]	n/a	FR1	9	R1299T
1450.473	1.624	1451019	WORD	n/a	wordpools/wordpool_EN.txt	DEER	3	13	[0, 0, 0]	n/a	FR1	9	R1299T
1452.097	0.942	1452643	WORD_OFF	n/a	n/a	DEER	3	13	[0, 0, 0]	n/a	FR1	9	R1299T
1453.039	1.625	1453585	WORD	n/a	wordpools/wordpool_EN.txt	HILL	4	13	[0, 0, 0]	n/a	FR1	9	R1299T
1454.664	0.888	1455210	WORD_OFF	n/a	n/a	HILL	4	13	[0, 0, 0]	n/a	FR1	9	R1299T
1455.552	1.629	1456098	WORD	n/a	wordpools/wordpool_EN.txt	PLATE	5	13	[0, 0, 0]	n/a	FR1	9	R1299T
1457.181	0.86	1457727	WORD_OFF	n/a	n/a	PLATE	5	13	[0, 0, 0]	n/a	FR1	9	R1299T
1458.041	1.624	1458587	WORD	n/a	wordpools/wordpool_EN.txt	STEAM	6	13	[0, 0, 0]	n/a	FR1	9	R1299T
1459.665	1.079	1460211	WORD_OFF	n/a	n/a	STEAM	6	13	[0, 0, 0]	n/a	FR1	9	R1299T
1460.744	1.621	1461290	WORD	n/a	wordpools/wordpool_EN.txt	SPEAR	7	13	[0, 0, 0]	n/a	FR1	9	R1299T
1462.365	0.783	1462911	WORD_OFF	n/a	n/a	SPEAR	7	13	[0, 0, 0]	n/a	FR1	9	R1299T
1463.148	1.635	1463694	WORD	n/a	wordpools/wordpool_EN.txt	CLOCK	8	13	[0, 0, 0]	n/a	FR1	9	R1299T
1464.783	0.758	1465329	WORD_OFF	n/a	n/a	CLOCK	8	13	[0, 0, 0]	n/a	FR1	9	R1299T
1465.541	1.625	1466087	WORD	n/a	wordpools/wordpool_EN.txt	FAN	9	13	[0, 0, 0]	n/a	FR1	9	R1299T
1467.166	0.756	1467712	WORD_OFF	n/a	n/a	FAN	9	13	[0, 0, 0]	n/a	FR1	9	R1299T
1467.922	1.627	1468468	WORD	n/a	wordpools/wordpool_EN.txt	MUG	10	13	[0, 0, 0]	n/a	FR1	9	R1299T
1469.549	0.779	1470095	WORD_OFF	n/a	n/a	MUG	10	13	[0, 0, 0]	n/a	FR1	9	R1299T
1470.328	1.622	1470874	WORD	n/a	wordpools/wordpool_EN.txt	ROSE	11	13	[0, 0, 0]	n/a	FR1	9	R1299T
1471.95	1.0	1472496	WORD_OFF	n/a	n/a	ROSE	11	13	[0, 0, 0]	n/a	FR1	9	R1299T
1472.95	1.633	1473496	WORD	n/a	wordpools/wordpool_EN.txt	MAIL	12	13	[0, 0, 0]	n/a	FR1	9	R1299T
1474.583	0.001	1475128	WORD_OFF	n/a	n/a	MAIL	12	13	[0, 0, 0]	n/a	FR1	9	R1299T
1474.584	0.0	1475129	ENCODING_END	n/a	n/a	n/a	-999	13	[0, 0, 0]	n/a	FR1	9	R1299T
1474.584	0.0	1475129	DISTRACT_START	n/a	n/a	n/a	-999	13	[0, 0, 0]	n/a	FR1	9	R1299T
1474.584	0.016	1475129	START	n/a	n/a	n/a	-999	13	[-999, -999, -999]	n/a	FR1	9	R1299T
1474.6	5.869	1475145	PROB	5.869	n/a	n/a	-999	13	[3, 7, 8]	18	FR1	9	R1299T
1480.469	4.116	1481014	PROB	4.116	n/a	n/a	-999	13	[5, 3, 1]	9	FR1	9	R1299T
1484.585	3.268	1485130	PROB	3.268	n/a	n/a	-999	13	[1, 5, 8]	14	FR1	9	R1299T
1487.853	2.7	1488398	PROB	2.7	n/a	n/a	-999	13	[6, 4, 5]	15	FR1	9	R1299T
1490.553	3.984	1491098	PROB	3.984	n/a	n/a	-999	13	[1, 4, 5]	10	FR1	9	R1299T
1494.537	3.658	1495082	PROB	3.658	n/a	n/a	-999	13	[3, 1, 5]	9	FR1	9	R1299T
1498.195	0.01	1498739	STOP	n/a	n/a	n/a	-999	13	[-999, -999, -999]	n/a	FR1	9	R1299T
1498.205	0.673	1498749	DISTRACT_END	n/a	n/a	n/a	-999	13	[0, 0, 0]	n/a	FR1	9	R1299T
1498.878	1.643	1499422	RETRIEVAL_ORIENT_START	n/a	n/a	n/a	-999	13	[0, 0, 0]	n/a	FR1	9	R1299T
1500.521	0.001	1501065	RETRIEVAL_ORIENT_END	n/a	n/a	n/a	-999	13	[0, 0, 0]	n/a	FR1	9	R1299T
1500.522	0.841	1501066	REC_START	n/a	n/a	n/a	-999	13	[0, 0, 0]	n/a	FR1	9	R1299T
1501.363	0.722	1501907	REC_WORD_VV	0.722	n/a	<>	-999	13	[0, 0, 0]	n/a	FR1	9	R1299T
1502.085	2.0	1502629	REC_WORD	2.0	n/a	PARK	1	13	[0, 0, 0]	n/a	FR1	9	R1299T
1504.085	2.864	1504629	REC_WORD	2.864	n/a	HORN	2	13	[0, 0, 0]	n/a	FR1	9	R1299T
1506.949	23.585	1507493	REC_WORD	23.585	n/a	DEER	3	13	[0, 0, 0]	n/a	FR1	9	R1299T
1530.534	0.001	1531077	REC_END	n/a	n/a	n/a	-999	13	[0, 0, 0]	n/a	FR1	9	R1299T
1530.535	0.014	1531078	TRIAL_END	n/a	n/a	n/a	-999	13	[0, 0, 0]	n/a	FR1	9	R1299T
1530.549	0.001	1531092	TRIAL_START	n/a	n/a	n/a	-999	14	[0, 0, 0]	n/a	FR1	9	R1299T
1530.55	0.0	1531093	WAITING_START	n/a	n/a	n/a	-999	14	[0, 0, 0]	n/a	FR1	9	R1299T
1530.55	1.928	1531093	TRIAL	n/a	n/a	n/a	-999	14	[0, 0, 0]	n/a	FR1	9	R1299T
1532.478	0.0	1533021	WAITING_END	n/a	n/a	n/a	-999	14	[0, 0, 0]	n/a	FR1	9	R1299T
1532.478	10.43	1533021	COUNTDOWN_START	n/a	n/a	n/a	-999	14	[0, 0, 0]	n/a	FR1	9	R1299T
1542.908	0.0	1543450	COUNTDOWN_END	n/a	n/a	n/a	-999	14	[0, 0, 0]	n/a	FR1	9	R1299T
1542.908	1.122	1543450	ORIENT_START	n/a	n/a	n/a	-999	14	[0, 0, 0]	n/a	FR1	9	R1299T
1544.03	0.001	1544572	ORIENT_END	n/a	n/a	n/a	-999	14	[0, 0, 0]	n/a	FR1	9	R1299T
1544.031	0.987	1544573	ENCODING_START	n/a	n/a	n/a	-999	14	[0, 0, 0]	n/a	FR1	9	R1299T
1545.018	1.629	1545560	WORD	n/a	wordpools/wordpool_EN.txt	CUBE	1	14	[0, 0, 0]	n/a	FR1	9	R1299T
1546.647	0.821	1547189	WORD_OFF	n/a	n/a	CUBE	1	14	[0, 0, 0]	n/a	FR1	9	R1299T
1547.468	1.63	1548010	WORD	n/a	wordpools/wordpool_EN.txt	BLOOM	2	14	[0, 0, 0]	n/a	FR1	9	R1299T
1549.098	0.944	1549640	WORD_OFF	n/a	n/a	BLOOM	2	14	[0, 0, 0]	n/a	FR1	9	R1299T
1550.042	1.623	1550584	WORD	n/a	wordpools/wordpool_EN.txt	SPARK	3	14	[0, 0, 0]	n/a	FR1	9	R1299T
1551.665	0.864	1552207	WORD_OFF	n/a	n/a	SPARK	3	14	[0, 0, 0]	n/a	FR1	9	R1299T
1552.529	1.62	1553071	WORD	n/a	wordpools/wordpool_EN.txt	MILK	4	14	[0, 0, 0]	n/a	FR1	9	R1299T
1554.149	0.896	1554691	WORD_OFF	n/a	n/a	MILK	4	14	[0, 0, 0]	n/a	FR1	9	R1299T
1555.045	1.638	1555587	WORD	n/a	wordpools/wordpool_EN.txt	SKY	5	14	[0, 0, 0]	n/a	FR1	9	R1299T
1556.683	0.973	1557225	WORD_OFF	n/a	n/a	SKY	5	14	[0, 0, 0]	n/a	FR1	9	R1299T
1557.656	1.627	1558198	WORD	n/a	wordpools/wordpool_EN.txt	TAIL	6	14	[0, 0, 0]	n/a	FR1	9	R1299T
1559.283	0.944	1559825	WORD_OFF	n/a	n/a	TAIL	6	14	[0, 0, 0]	n/a	FR1	9	R1299T
1560.227	1.623	1560769	WORD	n/a	wordpools/wordpool_EN.txt	WHEEL	7	14	[0, 0, 0]	n/a	FR1	9	R1299T
1561.85	1.143	1562392	WORD_OFF	n/a	n/a	WHEEL	7	14	[0, 0, 0]	n/a	FR1	9	R1299T
1562.993	1.624	1563535	WORD	n/a	wordpools/wordpool_EN.txt	GRASS	8	14	[0, 0, 0]	n/a	FR1	9	R1299T
1564.617	0.897	1565158	WORD_OFF	n/a	n/a	GRASS	8	14	[0, 0, 0]	n/a	FR1	9	R1299T
1565.514	1.62	1566055	WORD	n/a	wordpools/wordpool_EN.txt	RIB	9	14	[0, 0, 0]	n/a	FR1	9	R1299T
1567.134	1.06	1567675	WORD_OFF	n/a	n/a	RIB	9	14	[0, 0, 0]	n/a	FR1	9	R1299T
1568.194	1.624	1568735	WORD	n/a	wordpools/wordpool_EN.txt	FUDGE	10	14	[0, 0, 0]	n/a	FR1	9	R1299T
1569.818	0.775	1570359	WORD_OFF	n/a	n/a	FUDGE	10	14	[0, 0, 0]	n/a	FR1	9	R1299T
1570.593	1.609	1571134	WORD	n/a	wordpools/wordpool_EN.txt	SOUP	11	14	[0, 0, 0]	n/a	FR1	9	R1299T
1572.202	1.073	1572743	WORD_OFF	n/a	n/a	SOUP	11	14	[0, 0, 0]	n/a	FR1	9	R1299T
1573.275	1.628	1573816	WORD	n/a	wordpools/wordpool_EN.txt	CAGE	12	14	[0, 0, 0]	n/a	FR1	9	R1299T
1574.903	0.0	1575444	WORD_OFF	n/a	n/a	CAGE	12	14	[0, 0, 0]	n/a	FR1	9	R1299T
1574.903	0.0	1575444	ENCODING_END	n/a	n/a	n/a	-999	14	[0, 0, 0]	n/a	FR1	9	R1299T
1574.903	0.001	1575444	DISTRACT_START	n/a	n/a	n/a	-999	14	[0, 0, 0]	n/a	FR1	9	R1299T
1574.904	0.015	1575445	START	n/a	n/a	n/a	-999	14	[-999, -999, -999]	n/a	FR1	9	R1299T
1574.919	3.951	1575460	PROB	3.951	n/a	n/a	-999	14	[4, 4, 2]	10	FR1	9	R1299T
1578.87	4.234	1579411	PROB	4.234	n/a	n/a	-999	14	[9, 8, 6]	23	FR1	9	R1299T
1583.104	9.118	1583645	PROB	9.118	n/a	n/a	-999	14	[4, 4, 2]	10	FR1	9	R1299T
1592.222	6.775	1592762	PROB	6.775	n/a	n/a	-999	14	[2, 5, 3]	10	FR1	9	R1299T
1598.997	0.01	1599537	STOP	n/a	n/a	n/a	-999	14	[-999, -999, -999]	n/a	FR1	9	R1299T
1599.007	0.533	1599547	DISTRACT_END	n/a	n/a	n/a	-999	14	[0, 0, 0]	n/a	FR1	9	R1299T
1599.54	1.551	1600080	RETRIEVAL_ORIENT_START	n/a	n/a	n/a	-999	14	[0, 0, 0]	n/a	FR1	9	R1299T
1601.091	0.0	1601631	RETRIEVAL_ORIENT_END	n/a	n/a	n/a	-999	14	[0, 0, 0]	n/a	FR1	9	R1299T
1601.091	4.447	1601631	REC_START	n/a	n/a	n/a	-999	14	[0, 0, 0]	n/a	FR1	9	R1299T
1605.538	0.145	1606078	REC_WORD_VV	0.145	n/a	<>	-999	14	[0, 0, 0]	n/a	FR1	9	R1299T
1605.683	25.421	1606223	REC_WORD	25.421	n/a	CUBE	1	14	[0, 0, 0]	n/a	FR1	9	R1299T
1631.104	0.001	1631643	REC_END	n/a	n/a	n/a	-999	14	[0, 0, 0]	n/a	FR1	9	R1299T
1631.105	0.015	1631644	TRIAL_END	n/a	n/a	n/a	-999	14	[0, 0, 0]	n/a	FR1	9	R1299T
1631.12	0.0	1631659	TRIAL_START	n/a	n/a	n/a	-999	15	[0, 0, 0]	n/a	FR1	9	R1299T
1631.12	0.0	1631659	TRIAL	n/a	n/a	n/a	-999	15	[0, 0, 0]	n/a	FR1	9	R1299T
1631.12	2.543	1631659	WAITING_START	n/a	n/a	n/a	-999	15	[0, 0, 0]	n/a	FR1	9	R1299T
1633.663	0.0	1634201	COUNTDOWN_START	n/a	n/a	n/a	-999	15	[0, 0, 0]	n/a	FR1	9	R1299T
1633.663	10.429	1634201	WAITING_END	n/a	n/a	n/a	-999	15	[0, 0, 0]	n/a	FR1	9	R1299T
1644.092	0.001	1644630	COUNTDOWN_END	n/a	n/a	n/a	-999	15	[0, 0, 0]	n/a	FR1	9	R1299T
1644.093	1.022	1644631	ORIENT_START	n/a	n/a	n/a	-999	15	[0, 0, 0]	n/a	FR1	9	R1299T
1645.115	0.001	1645653	ORIENT_END	n/a	n/a	n/a	-999	15	[0, 0, 0]	n/a	FR1	9	R1299T
1645.116	1.001	1645654	ENCODING_START	n/a	n/a	n/a	-999	15	[0, 0, 0]	n/a	FR1	9	R1299T
1646.117	1.632	1646655	WORD	n/a	wordpools/wordpool_EN.txt	OAR	1	15	[0, 0, 0]	n/a	FR1	9	R1299T
1647.749	0.978	1648287	WORD_OFF	n/a	n/a	OAR	1	15	[0, 0, 0]	n/a	FR1	9	R1299T
1648.727	1.622	1649265	WORD	n/a	wordpools/wordpool_EN.txt	FISH	2	15	[0, 0, 0]	n/a	FR1	9	R1299T
1650.349	0.87	1650887	WORD_OFF	n/a	n/a	FISH	2	15	[0, 0, 0]	n/a	FR1	9	R1299T
1651.219	1.631	1651757	WORD	n/a	wordpools/wordpool_EN.txt	YARD	3	15	[0, 0, 0]	n/a	FR1	9	R1299T
1652.85	0.813	1653388	WORD_OFF	n/a	n/a	YARD	3	15	[0, 0, 0]	n/a	FR1	9	R1299T
1653.663	1.637	1654201	WORD	n/a	wordpools/wordpool_EN.txt	BEAK	4	15	[0, 0, 0]	n/a	FR1	9	R1299T
1655.3	0.812	1655838	WORD_OFF	n/a	n/a	BEAK	4	15	[0, 0, 0]	n/a	FR1	9	R1299T
1656.112	1.639	1656649	WORD	n/a	wordpools/wordpool_EN.txt	SHEET	5	15	[0, 0, 0]	n/a	FR1	9	R1299T
1657.751	1.113	1658288	WORD_OFF	n/a	n/a	SHEET	5	15	[0, 0, 0]	n/a	FR1	9	R1299T
1658.864	1.637	1659401	WORD	n/a	wordpools/wordpool_EN.txt	WAVE	6	15	[0, 0, 0]	n/a	FR1	9	R1299T
1660.501	0.987	1661038	WORD_OFF	n/a	n/a	WAVE	6	15	[0, 0, 0]	n/a	FR1	9	R1299T
1661.488	1.63	1662025	WORD	n/a	wordpools/wordpool_EN.txt	VAN	7	15	[0, 0, 0]	n/a	FR1	9	R1299T
1663.118	0.775	1663655	WORD_OFF	n/a	n/a	VAN	7	15	[0, 0, 0]	n/a	FR1	9	R1299T
1663.893	1.626	1664430	WORD	n/a	wordpools/wordpool_EN.txt	TRAIN	8	15	[0, 0, 0]	n/a	FR1	9	R1299T
1665.519	0.976	1666056	WORD_OFF	n/a	n/a	TRAIN	8	15	[0, 0, 0]	n/a	FR1	9	R1299T
1666.495	1.624	1667032	WORD	n/a	wordpools/wordpool_EN.txt	STORM	9	15	[0, 0, 0]	n/a	FR1	9	R1299T
1668.119	0.983	1668656	WORD_OFF	n/a	n/a	STORM	9	15	[0, 0, 0]	n/a	FR1	9	R1299T
1669.102	1.635	1669639	WORD	n/a	wordpools/wordpool_EN.txt	BADGE	10	15	[0, 0, 0]	n/a	FR1	9	R1299T
1670.737	0.753	1671274	WORD_OFF	n/a	n/a	BADGE	10	15	[0, 0, 0]	n/a	FR1	9	R1299T
1671.49	1.63	1672027	WORD	n/a	wordpools/wordpool_EN.txt	ROOM	11	15	[0, 0, 0]	n/a	FR1	9	R1299T
1673.12	1.045	1673657	WORD_OFF	n/a	n/a	ROOM	11	15	[0, 0, 0]	n/a	FR1	9	R1299T
1674.165	1.622	1674702	WORD	n/a	wordpools/wordpool_EN.txt	BEAR	12	15	[0, 0, 0]	n/a	FR1	9	R1299T
1675.787	0.001	1676324	WORD_OFF	n/a	n/a	BEAR	12	15	[0, 0, 0]	n/a	FR1	9	R1299T
1675.788	0.0	1676325	ENCODING_END	n/a	n/a	n/a	-999	15	[0, 0, 0]	n/a	FR1	9	R1299T
1675.788	0.0	1676325	DISTRACT_START	n/a	n/a	n/a	-999	15	[0, 0, 0]	n/a	FR1	9	R1299T
1675.788	0.016	1676325	START	n/a	n/a	n/a	-999	15	[-999, -999, -999]	n/a	FR1	9	R1299T
1675.804	4.817	1676341	PROB	4.817	n/a	n/a	-999	15	[5, 9, 5]	19	FR1	9	R1299T
1680.621	6.002	1681157	PROB	6.002	n/a	n/a	-999	15	[7, 9, 6]	22	FR1	9	R1299T
1686.623	9.068	1687159	PROB	9.068	n/a	n/a	-999	15	[8, 1, 2]	11	FR1	9	R1299T
1695.691	7.89	1696227	PROB	7.89	n/a	n/a	-999	15	[5, 8, 1]	14	FR1	9	R1299T
1703.581	0.01	1704116	STOP	n/a	n/a	n/a	-999	15	[-999, -999, -999]	n/a	FR1	9	R1299T
1703.591	0.526	1704126	DISTRACT_END	n/a	n/a	n/a	-999	15	[0, 0, 0]	n/a	FR1	9	R1299T
1704.117	1.626	1704652	RETRIEVAL_ORIENT_START	n/a	n/a	n/a	-999	15	[0, 0, 0]	n/a	FR1	9	R1299T
1705.743	0.0	1706278	RETRIEVAL_ORIENT_END	n/a	n/a	n/a	-999	15	[0, 0, 0]	n/a	FR1	9	R1299T
1705.743	3.39	1706278	REC_START	n/a	n/a	n/a	-999	15	[0, 0, 0]	n/a	FR1	9	R1299T
1709.133	2.915	1709668	REC_WORD	2.915	n/a	FISH	2	15	[0, 0, 0]	n/a	FR1	9	R1299T
1712.048	4.173	1712583	REC_WORD	4.173	n/a	OAR	1	15	[0, 0, 0]	n/a	FR1	9	R1299T
1716.221	6.903	1716756	REC_WORD	6.903	n/a	ROOM	11	15	[0, 0, 0]	n/a	FR1	9	R1299T
1723.124	12.632	1723659	REC_WORD	12.632	n/a	RAIN	-999	15	[0, 0, 0]	n/a	FR1	9	R1299T
1735.756	0.0	1736290	REC_END	n/a	n/a	n/a	-999	15	[0, 0, 0]	n/a	FR1	9	R1299T
1735.756	0.016	1736290	TRIAL_END	n/a	n/a	n/a	-999	15	[0, 0, 0]	n/a	FR1	9	R1299T
1735.772	0.0	1736306	TRIAL_START	n/a	n/a	n/a	-999	16	[0, 0, 0]	n/a	FR1	9	R1299T
1735.772	0.001	1736306	TRIAL	n/a	n/a	n/a	-999	16	[0, 0, 0]	n/a	FR1	9	R1299T
1735.773	2.225	1736307	WAITING_START	n/a	n/a	n/a	-999	16	[0, 0, 0]	n/a	FR1	9	R1299T
1737.998	0.001	1738532	WAITING_END	n/a	n/a	n/a	-999	16	[0, 0, 0]	n/a	FR1	9	R1299T
1737.999	10.428	1738533	COUNTDOWN_START	n/a	n/a	n/a	-999	16	[0, 0, 0]	n/a	FR1	9	R1299T
1748.427	0.001	1748960	COUNTDOWN_END	n/a	n/a	n/a	-999	16	[0, 0, 0]	n/a	FR1	9	R1299T
1748.428	1.056	1748961	ORIENT_START	n/a	n/a	n/a	-999	16	[0, 0, 0]	n/a	FR1	9	R1299T
1749.484	0.0	1750017	ORIENT_END	n/a	n/a	n/a	-999	16	[0, 0, 0]	n/a	FR1	9	R1299T
1749.484	0.999	1750017	ENCODING_START	n/a	n/a	n/a	-999	16	[0, 0, 0]	n/a	FR1	9	R1299T
1750.483	1.635	1751016	WORD	n/a	wordpools/wordpool_EN.txt	HOLE	1	16	[0, 0, 0]	n/a	FR1	9	R1299T
1752.118	0.872	1752651	WORD_OFF	n/a	n/a	HOLE	1	16	[0, 0, 0]	n/a	FR1	9	R1299T
1752.99	1.629	1753523	WORD	n/a	wordpools/wordpool_EN.txt	CLIFF	2	16	[0, 0, 0]	n/a	FR1	9	R1299T
1754.619	0.771	1755152	WORD_OFF	n/a	n/a	CLIFF	2	16	[0, 0, 0]	n/a	FR1	9	R1299T
1755.39	1.629	1755923	WORD	n/a	wordpools/wordpool_EN.txt	BROOM	3	16	[0, 0, 0]	n/a	FR1	9	R1299T
1757.019	0.851	1757552	WORD_OFF	n/a	n/a	BROOM	3	16	[0, 0, 0]	n/a	FR1	9	R1299T
1757.87	1.633	1758403	WORD	n/a	wordpools/wordpool_EN.txt	THREAD	4	16	[0, 0, 0]	n/a	FR1	9	R1299T
1759.503	1.079	1760036	WORD_OFF	n/a	n/a	THREAD	4	16	[0, 0, 0]	n/a	FR1	9	R1299T
1760.582	1.638	1761115	WORD	n/a	wordpools/wordpool_EN.txt	STAR	5	16	[0, 0, 0]	n/a	FR1	9	R1299T
1762.22	1.106	1762753	WORD_OFF	n/a	n/a	STAR	5	16	[0, 0, 0]	n/a	FR1	9	R1299T
1763.326	1.628	1763859	WORD	n/a	wordpools/wordpool_EN.txt	MAT	6	16	[0, 0, 0]	n/a	FR1	9	R1299T
1764.954	1.081	1765487	WORD_OFF	n/a	n/a	MAT	6	16	[0, 0, 0]	n/a	FR1	9	R1299T
1766.035	1.636	1766568	WORD	n/a	wordpools/wordpool_EN.txt	GATE	7	16	[0, 0, 0]	n/a	FR1	9	R1299T
1767.671	0.895	1768204	WORD_OFF	n/a	n/a	GATE	7	16	[0, 0, 0]	n/a	FR1	9	R1299T
1768.566	1.605	1769099	WORD	n/a	wordpools/wordpool_EN.txt	SINK	8	16	[0, 0, 0]	n/a	FR1	9	R1299T
1770.171	0.874	1770703	WORD_OFF	n/a	n/a	SINK	8	16	[0, 0, 0]	n/a	FR1	9	R1299T
1771.045	1.627	1771577	WORD	n/a	wordpools/wordpool_EN.txt	POLE	9	16	[0, 0, 0]	n/a	FR1	9	R1299T
1772.672	1.147	1773204	WORD_OFF	n/a	n/a	POLE	9	16	[0, 0, 0]	n/a	FR1	9	R1299T
1773.819	1.636	1774351	WORD	n/a	wordpools/wordpool_EN.txt	FOOD	10	16	[0, 0, 0]	n/a	FR1	9	R1299T
1775.455	1.129	1775987	WORD_OFF	n/a	n/a	FOOD	10	16	[0, 0, 0]	n/a	FR1	9	R1299T
1776.584	1.639	1777116	WORD	n/a	wordpools/wordpool_EN.txt	TEETH	11	16	[0, 0, 0]	n/a	FR1	9	R1299T
1778.223	0.777	1778755	WORD_OFF	n/a	n/a	TEETH	11	16	[0, 0, 0]	n/a	FR1	9	R1299T
1779.0	1.623	1779532	WORD	n/a	wordpools/wordpool_EN.txt	CANE	12	16	[0, 0, 0]	n/a	FR1	9	R1299T
1780.623	0.001	1781155	WORD_OFF	n/a	n/a	CANE	12	16	[0, 0, 0]	n/a	FR1	9	R1299T
1780.624	0.0	1781156	DISTRACT_START	n/a	n/a	n/a	-999	16	[0, 0, 0]	n/a	FR1	9	R1299T
1780.624	0.0	1781156	ENCODING_END	n/a	n/a	n/a	-999	16	[0, 0, 0]	n/a	FR1	9	R1299T
1780.624	0.016	1781156	START	n/a	n/a	n/a	-999	16	[-999, -999, -999]	n/a	FR1	9	R1299T
1780.64	3.05	1781172	PROB	3.05	n/a	n/a	-999	16	[1, 1, 1]	3	FR1	9	R1299T
1783.69	5.384	1784222	PROB	5.384	n/a	n/a	-999	16	[1, 5, 2]	8	FR1	9	R1299T
1789.074	4.818	1789606	PROB	4.818	n/a	n/a	-999	16	[6, 9, 6]	21	FR1	9	R1299T
1793.892	3.05	1794423	PROB	3.05	n/a	n/a	-999	16	[1, 7, 1]	9	FR1	9	R1299T
1796.942	3.65	1797473	PROB	3.65	n/a	n/a	-999	16	[6, 1, 3]	10	FR1	9	R1299T
1800.592	4.361	1801123	PROB	4.361	n/a	n/a	-999	16	[7, 5, 7]	19	FR1	9	R1299T
1804.953	0.008	1805484	STOP	n/a	n/a	n/a	-999	16	[-999, -999, -999]	n/a	FR1	9	R1299T
1804.961	0.656	1805492	DISTRACT_END	n/a	n/a	n/a	-999	16	[0, 0, 0]	n/a	FR1	9	R1299T
1805.617	1.528	1806148	RETRIEVAL_ORIENT_START	n/a	n/a	n/a	-999	16	[0, 0, 0]	n/a	FR1	9	R1299T
1807.145	0.0	1807676	RETRIEVAL_ORIENT_END	n/a	n/a	n/a	-999	16	[0, 0, 0]	n/a	FR1	9	R1299T
1807.145	1.579	1807676	REC_START	n/a	n/a	n/a	-999	16	[0, 0, 0]	n/a	FR1	9	R1299T
1808.724	2.958	1809255	REC_WORD_VV	2.958	n/a	<>	-999	16	[0, 0, 0]	n/a	FR1	9	R1299T
1811.682	2.64	1812213	REC_WORD	2.64	n/a	TEETH	11	16	[0, 0, 0]	n/a	FR1	9	R1299T
1814.322	2.891	1814853	REC_WORD	2.891	n/a	FLOOR	-999	16	[0, 0, 0]	n/a	FR1	9	R1299T
1817.213	2.563	1817743	REC_WORD	2.563	n/a	MAT	6	16	[0, 0, 0]	n/a	FR1	9	R1299T
1819.776	17.382	1820306	REC_WORD	17.382	n/a	THREAD	4	16	[0, 0, 0]	n/a	FR1	9	R1299T
1837.158	0.0	1837688	REC_END	n/a	n/a	n/a	-999	16	[0, 0, 0]	n/a	FR1	9	R1299T
1837.158	0.015	1837688	TRIAL_END	n/a	n/a	n/a	-999	16	[0, 0, 0]	n/a	FR1	9	R1299T
1837.173	0.0	1837703	TRIAL_START	n/a	n/a	n/a	-999	17	[0, 0, 0]	n/a	FR1	9	R1299T
1837.173	0.0	1837703	TRIAL	n/a	n/a	n/a	-999	17	[0, 0, 0]	n/a	FR1	9	R1299T
1837.173	1.611	1837703	WAITING_START	n/a	n/a	n/a	-999	17	[0, 0, 0]	n/a	FR1	9	R1299T
1838.784	0.0	1839313	WAITING_END	n/a	n/a	n/a	-999	17	[0, 0, 0]	n/a	FR1	9	R1299T
1838.784	10.429	1839313	COUNTDOWN_START	n/a	n/a	n/a	-999	17	[0, 0, 0]	n/a	FR1	9	R1299T
1849.213	0.0	1849742	ORIENT_START	n/a	n/a	n/a	-999	17	[0, 0, 0]	n/a	FR1	9	R1299T
1849.213	1.173	1849742	COUNTDOWN_END	n/a	n/a	n/a	-999	17	[0, 0, 0]	n/a	FR1	9	R1299T
1850.386	0.0	1850915	ORIENT_END	n/a	n/a	n/a	-999	17	[0, 0, 0]	n/a	FR1	9	R1299T
1850.386	0.827	1850915	ENCODING_START	n/a	n/a	n/a	-999	17	[0, 0, 0]	n/a	FR1	9	R1299T
1851.213	1.623	1851742	WORD	n/a	wordpools/wordpool_EN.txt	FORK	1	17	[0, 0, 0]	n/a	FR1	9	R1299T
1852.836	0.916	1853365	WORD_OFF	n/a	n/a	FORK	1	17	[0, 0, 0]	n/a	FR1	9	R1299T
1853.752	1.635	1854281	WORD	n/a	wordpools/wordpool_EN.txt	PET	2	17	[0, 0, 0]	n/a	FR1	9	R1299T
1855.387	1.092	1855916	WORD_OFF	n/a	n/a	PET	2	17	[0, 0, 0]	n/a	FR1	9	R1299T
1856.479	1.625	1857008	WORD	n/a	wordpools/wordpool_EN.txt	CONE	3	17	[0, 0, 0]	n/a	FR1	9	R1299T
1858.104	1.029	1858633	WORD_OFF	n/a	n/a	CONE	3	17	[0, 0, 0]	n/a	FR1	9	R1299T
1859.133	1.638	1859662	WORD	n/a	wordpools/wordpool_EN.txt	WALL	4	17	[0, 0, 0]	n/a	FR1	9	R1299T
1860.771	1.121	1861299	WORD_OFF	n/a	n/a	WALL	4	17	[0, 0, 0]	n/a	FR1	9	R1299T
1861.892	1.629	1862420	WORD	n/a	wordpools/wordpool_EN.txt	SNOW	5	17	[0, 0, 0]	n/a	FR1	9	R1299T
1863.521	1.126	1864049	WORD_OFF	n/a	n/a	SNOW	5	17	[0, 0, 0]	n/a	FR1	9	R1299T
1864.647	1.625	1865175	WORD	n/a	wordpools/wordpool_EN.txt	FACE	6	17	[0, 0, 0]	n/a	FR1	9	R1299T
1866.272	0.765	1866800	WORD_OFF	n/a	n/a	FACE	6	17	[0, 0, 0]	n/a	FR1	9	R1299T
1867.037	1.635	1867565	WORD	n/a	wordpools/wordpool_EN.txt	BATH	7	17	[0, 0, 0]	n/a	FR1	9	R1299T
1868.672	1.047	1869200	WORD_OFF	n/a	n/a	BATH	7	17	[0, 0, 0]	n/a	FR1	9	R1299T
1869.719	1.637	1870247	WORD	n/a	wordpools/wordpool_EN.txt	NEST	8	17	[0, 0, 0]	n/a	FR1	9	R1299T
1871.356	0.959	1871884	WORD_OFF	n/a	n/a	NEST	8	17	[0, 0, 0]	n/a	FR1	9	R1299T
1872.315	1.625	1872843	WORD	n/a	wordpools/wordpool_EN.txt	BOARD	9	17	[0, 0, 0]	n/a	FR1	9	R1299T
1873.94	1.126	1874468	WORD_OFF	n/a	n/a	BOARD	9	17	[0, 0, 0]	n/a	FR1	9	R1299T
1875.066	1.624	1875594	WORD	n/a	wordpools/wordpool_EN.txt	VINE	10	17	[0, 0, 0]	n/a	FR1	9	R1299T
1876.69	1.148	1877218	WORD_OFF	n/a	n/a	VINE	10	17	[0, 0, 0]	n/a	FR1	9	R1299T
1877.838	1.636	1878366	WORD	n/a	wordpools/wordpool_EN.txt	BEE	11	17	[0, 0, 0]	n/a	FR1	9	R1299T
1879.474	1.118	1880002	WORD_OFF	n/a	n/a	BEE	11	17	[0, 0, 0]	n/a	FR1	9	R1299T
1880.592	1.633	1881120	WORD	n/a	wordpools/wordpool_EN.txt	RUG	12	17	[0, 0, 0]	n/a	FR1	9	R1299T
1882.225	0.0	1882753	WORD_OFF	n/a	n/a	RUG	12	17	[0, 0, 0]	n/a	FR1	9	R1299T
1882.225	0.001	1882753	ENCODING_END	n/a	n/a	n/a	-999	17	[0, 0, 0]	n/a	FR1	9	R1299T
1882.226	0.0	1882754	DISTRACT_START	n/a	n/a	n/a	-999	17	[0, 0, 0]	n/a	FR1	9	R1299T
1882.226	0.015	1882754	START	n/a	n/a	n/a	-999	17	[-999, -999, -999]	n/a	FR1	9	R1299T
1882.241	16.437	1882769	PROB	16.437	n/a	n/a	-999	17	[6, 9, 7]	22	FR1	9	R1299T
1898.678	3.737	1899205	PROB	3.737	n/a	n/a	-999	17	[5, 9, 5]	19	FR1	9	R1299T
1902.415	0.014	1902942	STOP	n/a	n/a	n/a	-999	17	[-999, -999, -999]	n/a	FR1	9	R1299T
1902.429	0.508	1902956	DISTRACT_END	n/a	n/a	n/a	-999	17	[0, 0, 0]	n/a	FR1	9	R1299T
1902.937	1.709	1903464	RETRIEVAL_ORIENT_START	n/a	n/a	n/a	-999	17	[0, 0, 0]	n/a	FR1	9	R1299T
1904.646	0.0	1905173	RETRIEVAL_ORIENT_END	n/a	n/a	n/a	-999	17	[0, 0, 0]	n/a	FR1	9	R1299T
1904.646	0.596	1905173	REC_START	n/a	n/a	n/a	-999	17	[0, 0, 0]	n/a	FR1	9	R1299T
1905.242	14.193	1905769	REC_WORD_VV	14.193	n/a	<>	-999	17	[0, 0, 0]	n/a	FR1	9	R1299T
1919.435	0.392	1919961	REC_WORD_VV	0.392	n/a	<>	-999	17	[0, 0, 0]	n/a	FR1	9	R1299T
1919.827	1.0	1920353	REC_WORD	1.0	n/a	FOOD	-999	17	[0, 0, 0]	n/a	FR1	9	R1299T
1920.827	0.824	1921353	REC_WORD_VV	0.824	n/a	<>	-999	17	[0, 0, 0]	n/a	FR1	9	R1299T
1921.651	0.883	1922177	REC_WORD_VV	0.883	n/a	<>	-999	17	[0, 0, 0]	n/a	FR1	9	R1299T
1922.534	12.125	1923060	REC_WORD_VV	12.125	n/a	<>	-999	17	[0, 0, 0]	n/a	FR1	9	R1299T
1934.659	0.0	1935184	REC_END	n/a	n/a	n/a	-999	17	[0, 0, 0]	n/a	FR1	9	R1299T
1934.659	0.015	1935184	TRIAL_END	n/a	n/a	n/a	-999	17	[0, 0, 0]	n/a	FR1	9	R1299T
1934.674	0.0	1935199	TRIAL_START	n/a	n/a	n/a	-999	18	[0, 0, 0]	n/a	FR1	9	R1299T
1934.674	0.0	1935199	TRIAL	n/a	n/a	n/a	-999	18	[0, 0, 0]	n/a	FR1	9	R1299T
1934.674	184.594	1935199	WAITING_START	n/a	n/a	n/a	-999	18	[0, 0, 0]	n/a	FR1	9	R1299T
2119.268	0.0	2119785	WAITING_END	n/a	n/a	n/a	-999	18	[0, 0, 0]	n/a	FR1	9	R1299T
2119.268	10.428	2119785	COUNTDOWN_START	n/a	n/a	n/a	-999	18	[0, 0, 0]	n/a	FR1	9	R1299T
2129.696	0.0	2130213	ORIENT_START	n/a	n/a	n/a	-999	18	[0, 0, 0]	n/a	FR1	9	R1299T
2129.696	1.091	2130213	COUNTDOWN_END	n/a	n/a	n/a	-999	18	[0, 0, 0]	n/a	FR1	9	R1299T
2130.787	0.0	2131304	ORIENT_END	n/a	n/a	n/a	-999	18	[0, 0, 0]	n/a	FR1	9	R1299T
2130.787	0.795	2131304	ENCODING_START	n/a	n/a	n/a	-999	18	[0, 0, 0]	n/a	FR1	9	R1299T
2131.582	1.622	2132099	WORD	n/a	wordpools/wordpool_EN.txt	HOOK	1	18	[0, 0, 0]	n/a	FR1	9	R1299T
2133.204	0.762	2133721	WORD_OFF	n/a	n/a	HOOK	1	18	[0, 0, 0]	n/a	FR1	9	R1299T
2133.966	1.637	2134482	WORD	n/a	wordpools/wordpool_EN.txt	GRAPE	2	18	[0, 0, 0]	n/a	FR1	9	R1299T
2135.603	0.773	2136119	WORD_OFF	n/a	n/a	GRAPE	2	18	[0, 0, 0]	n/a	FR1	9	R1299T
2136.376	1.629	2136892	WORD	n/a	wordpools/wordpool_EN.txt	SHARK	3	18	[0, 0, 0]	n/a	FR1	9	R1299T
2138.005	0.822	2138521	WORD_OFF	n/a	n/a	SHARK	3	18	[0, 0, 0]	n/a	FR1	9	R1299T
2138.827	1.628	2139343	WORD	n/a	wordpools/wordpool_EN.txt	KITE	4	18	[0, 0, 0]	n/a	FR1	9	R1299T
2140.455	1.057	2140971	WORD_OFF	n/a	n/a	KITE	4	18	[0, 0, 0]	n/a	FR1	9	R1299T
2141.512	1.627	2142028	WORD	n/a	wordpools/wordpool_EN.txt	DUCK	5	18	[0, 0, 0]	n/a	FR1	9	R1299T
2143.139	0.813	2143655	WORD_OFF	n/a	n/a	DUCK	5	18	[0, 0, 0]	n/a	FR1	9	R1299T
2143.952	1.636	2144468	WORD	n/a	wordpools/wordpool_EN.txt	PANTS	6	18	[0, 0, 0]	n/a	FR1	9	R1299T
2145.588	1.096	2146104	WORD_OFF	n/a	n/a	PANTS	6	18	[0, 0, 0]	n/a	FR1	9	R1299T
2146.684	1.622	2147200	WORD	n/a	wordpools/wordpool_EN.txt	STOOL	7	18	[0, 0, 0]	n/a	FR1	9	R1299T
2148.306	1.012	2148822	WORD_OFF	n/a	n/a	STOOL	7	18	[0, 0, 0]	n/a	FR1	9	R1299T
2149.318	1.622	2149834	WORD	n/a	wordpools/wordpool_EN.txt	LIP	8	18	[0, 0, 0]	n/a	FR1	9	R1299T
2150.94	0.959	2151456	WORD_OFF	n/a	n/a	LIP	8	18	[0, 0, 0]	n/a	FR1	9	R1299T
2151.899	1.624	2152415	WORD	n/a	wordpools/wordpool_EN.txt	TENT	9	18	[0, 0, 0]	n/a	FR1	9	R1299T
2153.523	0.955	2154039	WORD_OFF	n/a	n/a	TENT	9	18	[0, 0, 0]	n/a	FR1	9	R1299T
2154.478	1.63	2154994	WORD	n/a	wordpools/wordpool_EN.txt	DOG	10	18	[0, 0, 0]	n/a	FR1	9	R1299T
2156.108	0.927	2156624	WORD_OFF	n/a	n/a	DOG	10	18	[0, 0, 0]	n/a	FR1	9	R1299T
2157.035	1.623	2157550	WORD	n/a	wordpools/wordpool_EN.txt	FILM	11	18	[0, 0, 0]	n/a	FR1	9	R1299T
2158.658	0.869	2159173	WORD_OFF	n/a	n/a	FILM	11	18	[0, 0, 0]	n/a	FR1	9	R1299T
2159.527	1.632	2160042	WORD	n/a	wordpools/wordpool_EN.txt	BREAD	12	18	[0, 0, 0]	n/a	FR1	9	R1299T
2161.159	0.0	2161674	ENCODING_END	n/a	n/a	n/a	-999	18	[0, 0, 0]	n/a	FR1	9	R1299T
2161.159	0.001	2161674	WORD_OFF	n/a	n/a	BREAD	12	18	[0, 0, 0]	n/a	FR1	9	R1299T
2161.16	0.0	2161675	DISTRACT_START	n/a	n/a	n/a	-999	18	[0, 0, 0]	n/a	FR1	9	R1299T
2161.16	0.015	2161675	START	n/a	n/a	n/a	-999	18	[-999, -999, -999]	n/a	FR1	9	R1299T
2161.175	4.884	2161690	PROB	4.884	n/a	n/a	-999	18	[5, 7, 1]	13	FR1	9	R1299T
2166.059	6.252	2166574	PROB	6.252	n/a	n/a	-999	18	[7, 9, 5]	21	FR1	9	R1299T
2172.311	5.767	2172826	PROB	5.767	n/a	n/a	-999	18	[2, 4, 9]	15	FR1	9	R1299T
2178.078	2.034	2178593	PROB	2.034	n/a	n/a	-999	18	[1, 5, 5]	11	FR1	9	R1299T
2180.112	3.629	2180626	PROB	3.629	n/a	n/a	-999	18	[9, 2, 7]	18	FR1	9	R1299T
2183.741	0.022	2184255	STOP	n/a	n/a	n/a	-999	18	[-999, -999, -999]	n/a	FR1	9	R1299T
2183.763	0.671	2184277	DISTRACT_END	n/a	n/a	n/a	-999	18	[0, 0, 0]	n/a	FR1	9	R1299T
2184.434	1.646	2184948	RETRIEVAL_ORIENT_START	n/a	n/a	n/a	-999	18	[0, 0, 0]	n/a	FR1	9	R1299T
2186.08	0.0	2186594	RETRIEVAL_ORIENT_END	n/a	n/a	n/a	-999	18	[0, 0, 0]	n/a	FR1	9	R1299T
2186.08	0.735	2186594	REC_START	n/a	n/a	n/a	-999	18	[0, 0, 0]	n/a	FR1	9	R1299T
2186.815	0.934	2187329	REC_WORD_VV	0.934	n/a	<>	-999	18	[0, 0, 0]	n/a	FR1	9	R1299T
2187.749	1.735	2188263	REC_WORD	1.735	n/a	HOOK	1	18	[0, 0, 0]	n/a	FR1	9	R1299T
2189.484	2.212	2189998	REC_WORD	2.212	n/a	GRAPE	2	18	[0, 0, 0]	n/a	FR1	9	R1299T
2191.696	14.548	2192210	REC_WORD	14.548	n/a	SHARK	3	18	[0, 0, 0]	n/a	FR1	9	R1299T
2206.244	7.34	2206757	REC_WORD	7.34	n/a	NET	-999	18	[0, 0, 0]	n/a	FR1	9	R1299T
2213.584	2.508	2214097	REC_WORD	2.508	n/a	DOG	10	18	[0, 0, 0]	n/a	FR1	9	R1299T
2216.092	0.0	2216605	REC_END	n/a	n/a	n/a	-999	18	[0, 0, 0]	n/a	FR1	9	R1299T
2216.092	0.015	2216605	TRIAL_END	n/a	n/a	n/a	-999	18	[0, 0, 0]	n/a	FR1	9	R1299T
2216.107	0.0	2216620	TRIAL_START	n/a	n/a	n/a	-999	19	[0, 0, 0]	n/a	FR1	9	R1299T
2216.107	0.0	2216620	TRIAL	n/a	n/a	n/a	-999	19	[0, 0, 0]	n/a	FR1	9	R1299T
2216.107	3.112	2216620	WAITING_START	n/a	n/a	n/a	-999	19	[0, 0, 0]	n/a	FR1	9	R1299T
2219.219	0.001	2219732	WAITING_END	n/a	n/a	n/a	-999	19	[0, 0, 0]	n/a	FR1	9	R1299T
2219.22	10.429	2219733	COUNTDOWN_START	n/a	n/a	n/a	-999	19	[0, 0, 0]	n/a	FR1	9	R1299T
2229.649	0.0	2230161	COUNTDOWN_END	n/a	n/a	n/a	-999	19	[0, 0, 0]	n/a	FR1	9	R1299T
2229.649	1.022	2230161	ORIENT_START	n/a	n/a	n/a	-999	19	[0, 0, 0]	n/a	FR1	9	R1299T
2230.671	0.001	2231183	ORIENT_END	n/a	n/a	n/a	-999	19	[0, 0, 0]	n/a	FR1	9	R1299T
2230.672	0.986	2231184	ENCODING_START	n/a	n/a	n/a	-999	19	[0, 0, 0]	n/a	FR1	9	R1299T
2231.658	1.63	2232170	WORD	n/a	wordpools/wordpool_EN.txt	PLANE	1	19	[0, 0, 0]	n/a	FR1	9	R1299T
2233.288	1.081	2233800	WORD_OFF	n/a	n/a	PLANE	1	19	[0, 0, 0]	n/a	FR1	9	R1299T
2234.369	1.637	2234881	WORD	n/a	wordpools/wordpool_EN.txt	MUD	2	19	[0, 0, 0]	n/a	FR1	9	R1299T
2236.006	1.0	2236518	WORD_OFF	n/a	n/a	MUD	2	19	[0, 0, 0]	n/a	FR1	9	R1299T
2237.006	1.634	2237518	WORD	n/a	wordpools/wordpool_EN.txt	TEA	3	19	[0, 0, 0]	n/a	FR1	9	R1299T
2238.64	0.843	2239152	WORD_OFF	n/a	n/a	TEA	3	19	[0, 0, 0]	n/a	FR1	9	R1299T
2239.483	1.624	2239995	WORD	n/a	wordpools/wordpool_EN.txt	SHELL	4	19	[0, 0, 0]	n/a	FR1	9	R1299T
2241.107	0.838	2241619	WORD_OFF	n/a	n/a	SHELL	4	19	[0, 0, 0]	n/a	FR1	9	R1299T
2241.945	1.628	2242457	WORD	n/a	wordpools/wordpool_EN.txt	CHAIR	5	19	[0, 0, 0]	n/a	FR1	9	R1299T
2243.573	0.769	2244085	WORD_OFF	n/a	n/a	CHAIR	5	19	[0, 0, 0]	n/a	FR1	9	R1299T
2244.342	1.632	2244854	WORD	n/a	wordpools/wordpool_EN.txt	FLAG	6	19	[0, 0, 0]	n/a	FR1	9	R1299T
2245.974	1.136	2246486	WORD_OFF	n/a	n/a	FLAG	6	19	[0, 0, 0]	n/a	FR1	9	R1299T
2247.11	1.631	2247622	WORD	n/a	wordpools/wordpool_EN.txt	SEA	7	19	[0, 0, 0]	n/a	FR1	9	R1299T
2248.741	1.088	2249252	WORD_OFF	n/a	n/a	SEA	7	19	[0, 0, 0]	n/a	FR1	9	R1299T
2249.829	1.629	2250340	WORD	n/a	wordpools/wordpool_EN.txt	POOL	8	19	[0, 0, 0]	n/a	FR1	9	R1299T
2251.458	1.021	2251969	WORD_OFF	n/a	n/a	POOL	8	19	[0, 0, 0]	n/a	FR1	9	R1299T
2252.479	1.63	2252990	WORD	n/a	wordpools/wordpool_EN.txt	INK	9	19	[0, 0, 0]	n/a	FR1	9	R1299T
2254.109	0.817	2254620	WORD_OFF	n/a	n/a	INK	9	19	[0, 0, 0]	n/a	FR1	9	R1299T
2254.926	1.632	2255437	WORD	n/a	wordpools/wordpool_EN.txt	DRESS	10	19	[0, 0, 0]	n/a	FR1	9	R1299T
2256.558	1.116	2257069	WORD_OFF	n/a	n/a	DRESS	10	19	[0, 0, 0]	n/a	FR1	9	R1299T
2257.674	1.636	2258185	WORD	n/a	wordpools/wordpool_EN.txt	SEAT	11	19	[0, 0, 0]	n/a	FR1	9	R1299T
2259.31	1.138	2259821	WORD_OFF	n/a	n/a	SEAT	11	19	[0, 0, 0]	n/a	FR1	9	R1299T
2260.448	1.629	2260959	WORD	n/a	wordpools/wordpool_EN.txt	JAIL	12	19	[0, 0, 0]	n/a	FR1	9	R1299T
2262.077	0.0	2262588	ENCODING_END	n/a	n/a	n/a	-999	19	[0, 0, 0]	n/a	FR1	9	R1299T
2262.077	0.001	2262588	WORD_OFF	n/a	n/a	JAIL	12	19	[0, 0, 0]	n/a	FR1	9	R1299T
2262.078	0.0	2262589	DISTRACT_START	n/a	n/a	n/a	-999	19	[0, 0, 0]	n/a	FR1	9	R1299T
2262.078	0.015	2262589	START	n/a	n/a	n/a	-999	19	[-999, -999, -999]	n/a	FR1	9	R1299T
2262.093	4.168	2262604	PROB	4.168	n/a	n/a	-999	19	[8, 9, 3]	20	FR1	9	R1299T
2266.261	2.767	2266772	PROB	2.767	n/a	n/a	-999	19	[5, 2, 1]	8	FR1	9	R1299T
2269.028	3.484	2269539	PROB	3.484	n/a	n/a	-999	19	[9, 1, 8]	18	FR1	9	R1299T
2272.512	2.867	2273022	PROB	2.867	n/a	n/a	-999	19	[7, 3, 8]	18	FR1	9	R1299T
2275.379	3.818	2275889	PROB	3.818	n/a	n/a	-999	19	[1, 2, 4]	7	FR1	9	R1299T
2279.197	3.001	2279707	PROB	3.001	n/a	n/a	-999	19	[2, 1, 8]	11	FR1	9	R1299T
2282.198	0.016	2282708	STOP	n/a	n/a	n/a	-999	19	[-999, -999, -999]	n/a	FR1	9	R1299T
2282.214	0.64	2282724	DISTRACT_END	n/a	n/a	n/a	-999	19	[0, 0, 0]	n/a	FR1	9	R1299T
2282.854	1.527	2283364	RETRIEVAL_ORIENT_START	n/a	n/a	n/a	-999	19	[0, 0, 0]	n/a	FR1	9	R1299T
2284.381	0.0	2284891	RETRIEVAL_ORIENT_END	n/a	n/a	n/a	-999	19	[0, 0, 0]	n/a	FR1	9	R1299T
2284.381	1.833	2284891	REC_START	n/a	n/a	n/a	-999	19	[0, 0, 0]	n/a	FR1	9	R1299T
2286.214	0.154	2286724	REC_WORD_VV	0.154	n/a	<>	-999	19	[0, 0, 0]	n/a	FR1	9	R1299T
2286.368	2.237	2286878	REC_WORD	2.237	n/a	DRESS	10	19	[0, 0, 0]	n/a	FR1	9	R1299T
2288.605	4.973	2289115	REC_WORD	4.973	n/a	JAIL	12	19	[0, 0, 0]	n/a	FR1	9	R1299T
2293.578	8.624	2294087	REC_WORD	8.624	n/a	HOOK	-999	19	[0, 0, 0]	n/a	FR1	9	R1299T
2302.202	12.193	2302711	REC_WORD_VV	12.193	n/a	<>	-999	19	[0, 0, 0]	n/a	FR1	9	R1299T
2314.395	0.0	2314904	REC_END	n/a	n/a	n/a	-999	19	[0, 0, 0]	n/a	FR1	9	R1299T
2314.395	0.015	2314904	TRIAL_END	n/a	n/a	n/a	-999	19	[0, 0, 0]	n/a	FR1	9	R1299T
2314.41	0.0	2314919	TRIAL_START	n/a	n/a	n/a	-999	20	[0, 0, 0]	n/a	FR1	9	R1299T
2314.41	0.0	2314919	TRIAL	n/a	n/a	n/a	-999	20	[0, 0, 0]	n/a	FR1	9	R1299T
2314.41	1.493	2314919	WAITING_START	n/a	n/a	n/a	-999	20	[0, 0, 0]	n/a	FR1	9	R1299T
2315.903	0.001	2316412	WAITING_END	n/a	n/a	n/a	-999	20	[0, 0, 0]	n/a	FR1	9	R1299T
2315.904	10.429	2316413	COUNTDOWN_START	n/a	n/a	n/a	-999	20	[0, 0, 0]	n/a	FR1	9	R1299T
2326.333	0.0	2326841	COUNTDOWN_END	n/a	n/a	n/a	-999	20	[0, 0, 0]	n/a	FR1	9	R1299T
2326.333	1.056	2326841	ORIENT_START	n/a	n/a	n/a	-999	20	[0, 0, 0]	n/a	FR1	9	R1299T
2327.389	0.0	2327897	ORIENT_END	n/a	n/a	n/a	-999	20	[0, 0, 0]	n/a	FR1	9	R1299T
2327.389	0.799	2327897	ENCODING_START	n/a	n/a	n/a	-999	20	[0, 0, 0]	n/a	FR1	9	R1299T
2328.188	1.635	2328696	WORD	n/a	wordpools/wordpool_EN.txt	FOX	1	20	[0, 0, 0]	n/a	FR1	9	R1299T
2329.823	1.002	2330331	WORD_OFF	n/a	n/a	FOX	1	20	[0, 0, 0]	n/a	FR1	9	R1299T
2330.825	1.631	2331333	WORD	n/a	wordpools/wordpool_EN.txt	GLOVE	2	20	[0, 0, 0]	n/a	FR1	9	R1299T
2332.456	0.871	2332964	WORD_OFF	n/a	n/a	GLOVE	2	20	[0, 0, 0]	n/a	FR1	9	R1299T
2333.327	1.63	2333835	WORD	n/a	wordpools/wordpool_EN.txt	MOLE	3	20	[0, 0, 0]	n/a	FR1	9	R1299T
2334.957	0.812	2335465	WORD_OFF	n/a	n/a	MOLE	3	20	[0, 0, 0]	n/a	FR1	9	R1299T
2335.769	1.605	2336277	WORD	n/a	wordpools/wordpool_EN.txt	SALT	4	20	[0, 0, 0]	n/a	FR1	9	R1299T
2337.374	1.014	2337882	WORD_OFF	n/a	n/a	SALT	4	20	[0, 0, 0]	n/a	FR1	9	R1299T
2338.388	1.636	2338896	WORD	n/a	wordpools/wordpool_EN.txt	MAZE	5	20	[0, 0, 0]	n/a	FR1	9	R1299T
2340.024	1.01	2340531	WORD_OFF	n/a	n/a	MAZE	5	20	[0, 0, 0]	n/a	FR1	9	R1299T
2341.034	1.624	2341541	WORD	n/a	wordpools/wordpool_EN.txt	FOOT	6	20	[0, 0, 0]	n/a	FR1	9	R1299T
2342.658	0.974	2343165	WORD_OFF	n/a	n/a	FOOT	6	20	[0, 0, 0]	n/a	FR1	9	R1299T
2343.632	1.627	2344139	WORD	n/a	wordpools/wordpool_EN.txt	DART	7	20	[0, 0, 0]	n/a	FR1	9	R1299T
2345.259	0.917	2345766	WORD_OFF	n/a	n/a	DART	7	20	[0, 0, 0]	n/a	FR1	9	R1299T
2346.176	1.633	2346683	WORD	n/a	wordpools/wordpool_EN.txt	VEST	8	20	[0, 0, 0]	n/a	FR1	9	R1299T
2347.809	0.992	2348316	WORD_OFF	n/a	n/a	VEST	8	20	[0, 0, 0]	n/a	FR1	9	R1299T
2348.801	1.625	2349308	WORD	n/a	wordpools/wordpool_EN.txt	HEN	9	20	[0, 0, 0]	n/a	FR1	9	R1299T
2350.426	1.074	2350933	WORD_OFF	n/a	n/a	HEN	9	20	[0, 0, 0]	n/a	FR1	9	R1299T
2351.5	1.627	2352007	WORD	n/a	wordpools/wordpool_EN.txt	WEB	10	20	[0, 0, 0]	n/a	FR1	9	R1299T
2353.127	0.846	2353634	WORD_OFF	n/a	n/a	WEB	10	20	[0, 0, 0]	n/a	FR1	9	R1299T
2353.973	1.637	2354480	WORD	n/a	wordpools/wordpool_EN.txt	BOOK	11	20	[0, 0, 0]	n/a	FR1	9	R1299T
2355.61	0.761	2356117	WORD_OFF	n/a	n/a	BOOK	11	20	[0, 0, 0]	n/a	FR1	9	R1299T
2356.371	1.623	2356878	WORD	n/a	wordpools/wordpool_EN.txt	TRASH	12	20	[0, 0, 0]	n/a	FR1	9	R1299T
2357.994	0.001	2358501	WORD_OFF	n/a	n/a	TRASH	12	20	[0, 0, 0]	n/a	FR1	9	R1299T
2357.995	0.0	2358502	ENCODING_END	n/a	n/a	n/a	-999	20	[0, 0, 0]	n/a	FR1	9	R1299T
2357.995	0.0	2358502	DISTRACT_START	n/a	n/a	n/a	-999	20	[0, 0, 0]	n/a	FR1	9	R1299T
2357.995	0.016	2358502	START	n/a	n/a	n/a	-999	20	[-999, -999, -999]	n/a	FR1	9	R1299T
2358.011	3.951	2358518	PROB	3.951	n/a	n/a	-999	20	[2, 8, 4]	14	FR1	9	R1299T
2361.962	5.917	2362468	PROB	5.917	n/a	n/a	-999	20	[5, 3, 6]	14	FR1	9	R1299T
2367.879	2.367	2368385	PROB	2.367	n/a	n/a	-999	20	[8, 2, 4]	14	FR1	9	R1299T
2370.246	3.534	2370752	PROB	3.534	n/a	n/a	-999	20	[8, 6, 5]	19	FR1	9	R1299T
2373.78	3.618	2374286	PROB	3.618	n/a	n/a	-999	20	[6, 9, 9]	26	FR1	9	R1299T
2377.398	3.25	2377904	PROB	3.25	n/a	n/a	-999	20	[1, 6, 9]	16	FR1	9	R1299T
2380.648	0.017	2381154	STOP	n/a	n/a	n/a	-999	20	[-999, -999, -999]	n/a	FR1	9	R1299T
2380.665	0.527	2381171	DISTRACT_END	n/a	n/a	n/a	-999	20	[0, 0, 0]	n/a	FR1	9	R1299T
2381.192	1.524	2381698	RETRIEVAL_ORIENT_START	n/a	n/a	n/a	-999	20	[0, 0, 0]	n/a	FR1	9	R1299T
2382.716	0.0	2383222	RETRIEVAL_ORIENT_END	n/a	n/a	n/a	-999	20	[0, 0, 0]	n/a	FR1	9	R1299T
2382.716	1.9	2383222	REC_START	n/a	n/a	n/a	-999	20	[0, 0, 0]	n/a	FR1	9	R1299T
2384.616	0.477	2385121	REC_WORD_VV	0.477	n/a	<>	-999	20	[0, 0, 0]	n/a	FR1	9	R1299T
2385.093	1.77	2385598	REC_WORD	1.77	n/a	TRASH	12	20	[0, 0, 0]	n/a	FR1	9	R1299T
2386.863	2.381	2387368	REC_WORD	2.381	n/a	BOOK	11	20	[0, 0, 0]	n/a	FR1	9	R1299T
2389.244	16.822	2389749	REC_WORD	16.822	n/a	GLOVE	2	20	[0, 0, 0]	n/a	FR1	9	R1299T
2406.066	6.664	2406571	REC_WORD	6.664	n/a	FOOT	6	20	[0, 0, 0]	n/a	FR1	9	R1299T
2412.73	0.001	2413234	REC_END	n/a	n/a	n/a	-999	20	[0, 0, 0]	n/a	FR1	9	R1299T
2412.731	0.014	2413235	TRIAL_END	n/a	n/a	n/a	-999	20	[0, 0, 0]	n/a	FR1	9	R1299T
2412.745	0.001	2413249	TRIAL_START	n/a	n/a	n/a	-999	21	[0, 0, 0]	n/a	FR1	9	R1299T
2412.746	0.0	2413250	TRIAL	n/a	n/a	n/a	-999	21	[0, 0, 0]	n/a	FR1	9	R1299T
2412.746	1.675	2413250	WAITING_START	n/a	n/a	n/a	-999	21	[0, 0, 0]	n/a	FR1	9	R1299T
2414.421	0.001	2414925	WAITING_END	n/a	n/a	n/a	-999	21	[0, 0, 0]	n/a	FR1	9	R1299T
2414.422	10.428	2414926	COUNTDOWN_START	n/a	n/a	n/a	-999	21	[0, 0, 0]	n/a	FR1	9	R1299T
2424.85	0.001	2425354	COUNTDOWN_END	n/a	n/a	n/a	-999	21	[0, 0, 0]	n/a	FR1	9	R1299T
2424.851	1.089	2425355	ORIENT_START	n/a	n/a	n/a	-999	21	[0, 0, 0]	n/a	FR1	9	R1299T
2425.94	0.001	2426444	ORIENT_END	n/a	n/a	n/a	-999	21	[0, 0, 0]	n/a	FR1	9	R1299T
2425.941	0.875	2426445	ENCODING_START	n/a	n/a	n/a	-999	21	[0, 0, 0]	n/a	FR1	9	R1299T
2426.816	1.625	2427320	WORD	n/a	wordpools/wordpool_EN.txt	BLUSH	1	21	[0, 0, 0]	n/a	FR1	9	R1299T
2428.441	1.107	2428945	WORD_OFF	n/a	n/a	BLUSH	1	21	[0, 0, 0]	n/a	FR1	9	R1299T
2429.548	1.627	2430052	WORD	n/a	wordpools/wordpool_EN.txt	ARK	2	21	[0, 0, 0]	n/a	FR1	9	R1299T
2431.175	0.911	2431678	WORD_OFF	n/a	n/a	ARK	2	21	[0, 0, 0]	n/a	FR1	9	R1299T
2432.086	1.622	2432589	WORD	n/a	wordpools/wordpool_EN.txt	JET	3	21	[0, 0, 0]	n/a	FR1	9	R1299T
2433.708	0.922	2434211	WORD_OFF	n/a	n/a	JET	3	21	[0, 0, 0]	n/a	FR1	9	R1299T
2434.63	1.628	2435133	WORD	n/a	wordpools/wordpool_EN.txt	ROAD	4	21	[0, 0, 0]	n/a	FR1	9	R1299T
2436.258	1.054	2436761	WORD_OFF	n/a	n/a	ROAD	4	21	[0, 0, 0]	n/a	FR1	9	R1299T
2437.312	1.63	2437815	WORD	n/a	wordpools/wordpool_EN.txt	SHIP	5	21	[0, 0, 0]	n/a	FR1	9	R1299T
2438.942	1.141	2439445	WORD_OFF	n/a	n/a	SHIP	5	21	[0, 0, 0]	n/a	FR1	9	R1299T
2440.083	1.627	2440586	WORD	n/a	wordpools/wordpool_EN.txt	CLOWN	6	21	[0, 0, 0]	n/a	FR1	9	R1299T
2441.71	1.15	2442213	WORD_OFF	n/a	n/a	CLOWN	6	21	[0, 0, 0]	n/a	FR1	9	R1299T
2442.86	1.633	2443363	WORD	n/a	wordpools/wordpool_EN.txt	STAIR	7	21	[0, 0, 0]	n/a	FR1	9	R1299T
2444.493	0.778	2444996	WORD_OFF	n/a	n/a	STAIR	7	21	[0, 0, 0]	n/a	FR1	9	R1299T
2445.271	1.623	2445774	WORD	n/a	wordpools/wordpool_EN.txt	BAT	8	21	[0, 0, 0]	n/a	FR1	9	R1299T
2446.894	0.777	2447397	WORD_OFF	n/a	n/a	BAT	8	21	[0, 0, 0]	n/a	FR1	9	R1299T
2447.671	1.623	2448174	WORD	n/a	wordpools/wordpool_EN.txt	TOAST	9	21	[0, 0, 0]	n/a	FR1	9	R1299T
2449.294	0.938	2449797	WORD_OFF	n/a	n/a	TOAST	9	21	[0, 0, 0]	n/a	FR1	9	R1299T
2450.232	1.629	2450735	WORD	n/a	wordpools/wordpool_EN.txt	LEAF	10	21	[0, 0, 0]	n/a	FR1	9	R1299T
2451.861	0.96	2452364	WORD_OFF	n/a	n/a	LEAF	10	21	[0, 0, 0]	n/a	FR1	9	R1299T
2452.821	1.624	2453323	WORD	n/a	wordpools/wordpool_EN.txt	WORLD	11	21	[0, 0, 0]	n/a	FR1	9	R1299T
2454.445	0.906	2454947	WORD_OFF	n/a	n/a	WORLD	11	21	[0, 0, 0]	n/a	FR1	9	R1299T
2455.351	1.628	2455853	WORD	n/a	wordpools/wordpool_EN.txt	FLAME	12	21	[0, 0, 0]	n/a	FR1	9	R1299T
2456.979	0.0	2457481	WORD_OFF	n/a	n/a	FLAME	12	21	[0, 0, 0]	n/a	FR1	9	R1299T
2456.979	0.001	2457481	ENCODING_END	n/a	n/a	n/a	-999	21	[0, 0, 0]	n/a	FR1	9	R1299T
2456.98	0.0	2457482	DISTRACT_START	n/a	n/a	n/a	-999	21	[0, 0, 0]	n/a	FR1	9	R1299T
2456.98	0.016	2457482	START	n/a	n/a	n/a	-999	21	[-999, -999, -999]	n/a	FR1	9	R1299T
2456.996	3.35	2457498	PROB	3.35	n/a	n/a	-999	21	[1, 3, 1]	5	FR1	9	R1299T
2460.346	3.601	2460848	PROB	3.601	n/a	n/a	-999	21	[4, 3, 4]	11	FR1	9	R1299T
2463.947	2.667	2464449	PROB	2.667	n/a	n/a	-999	21	[6, 6, 5]	17	FR1	9	R1299T
2466.614	3.284	2467116	PROB	3.284	n/a	n/a	-999	21	[6, 3, 4]	13	FR1	9	R1299T
2469.898	3.017	2470400	PROB	3.017	n/a	n/a	-999	21	[7, 7, 2]	16	FR1	9	R1299T
2472.915	2.784	2473417	PROB	2.784	n/a	n/a	-999	21	[8, 8, 8]	24	FR1	9	R1299T
2475.699	4.082	2476200	PROB	4.082	n/a	n/a	-999	21	[3, 2, 2]	7	FR1	9	R1299T
2479.781	0.019	2480282	STOP	n/a	n/a	n/a	-999	21	[-999, -999, -999]	n/a	FR1	9	R1299T
2479.8	0.635	2480301	DISTRACT_END	n/a	n/a	n/a	-999	21	[0, 0, 0]	n/a	FR1	9	R1299T
2480.435	1.665	2480936	RETRIEVAL_ORIENT_START	n/a	n/a	n/a	-999	21	[0, 0, 0]	n/a	FR1	9	R1299T
2482.1	0.001	2482601	RETRIEVAL_ORIENT_END	n/a	n/a	n/a	-999	21	[0, 0, 0]	n/a	FR1	9	R1299T
2482.101	3.849	2482602	REC_START	n/a	n/a	n/a	-999	21	[0, 0, 0]	n/a	FR1	9	R1299T
2485.95	2.431	2486451	REC_WORD	2.431	n/a	STAIR	7	21	[0, 0, 0]	n/a	FR1	9	R1299T
2488.381	3.365	2488882	REC_WORD	3.365	n/a	CLOWN	6	21	[0, 0, 0]	n/a	FR1	9	R1299T
2491.746	5.189	2492247	REC_WORD	5.189	n/a	JET	3	21	[0, 0, 0]	n/a	FR1	9	R1299T
2496.935	9.046	2497436	REC_WORD	9.046	n/a	ARK	2	21	[0, 0, 0]	n/a	FR1	9	R1299T
2505.981	6.132	2506481	REC_WORD	6.132	n/a	FOX	-999	21	[0, 0, 0]	n/a	FR1	9	R1299T
2512.113	0.0	2512613	REC_END	n/a	n/a	n/a	-999	21	[0, 0, 0]	n/a	FR1	9	R1299T
2512.113	0.016	2512613	TRIAL_END	n/a	n/a	n/a	-999	21	[0, 0, 0]	n/a	FR1	9	R1299T
2512.129	0.0	2512629	TRIAL_START	n/a	n/a	n/a	-999	22	[0, 0, 0]	n/a	FR1	9	R1299T
2512.129	0.0	2512629	TRIAL	n/a	n/a	n/a	-999	22	[0, 0, 0]	n/a	FR1	9	R1299T
2512.129	1.977	2512629	WAITING_START	n/a	n/a	n/a	-999	22	[0, 0, 0]	n/a	FR1	9	R1299T
2514.106	0.0	2514606	COUNTDOWN_START	n/a	n/a	n/a	-999	22	[0, 0, 0]	n/a	FR1	9	R1299T
2514.106	10.429	2514606	WAITING_END	n/a	n/a	n/a	-999	22	[0, 0, 0]	n/a	FR1	9	R1299T
2524.535	0.001	2525034	COUNTDOWN_END	n/a	n/a	n/a	-999	22	[0, 0, 0]	n/a	FR1	9	R1299T
2524.536	1.089	2525035	ORIENT_START	n/a	n/a	n/a	-999	22	[0, 0, 0]	n/a	FR1	9	R1299T
2525.625	0.0	2526124	ORIENT_END	n/a	n/a	n/a	-999	22	[0, 0, 0]	n/a	FR1	9	R1299T
2525.625	0.853	2526124	ENCODING_START	n/a	n/a	n/a	-999	22	[0, 0, 0]	n/a	FR1	9	R1299T
2526.478	1.63	2526977	WORD	n/a	wordpools/wordpool_EN.txt	POND	1	22	[0, 0, 0]	n/a	FR1	9	R1299T
2528.108	0.989	2528607	WORD_OFF	n/a	n/a	POND	1	22	[0, 0, 0]	n/a	FR1	9	R1299T
2529.097	1.629	2529596	WORD	n/a	wordpools/wordpool_EN.txt	RICE	2	22	[0, 0, 0]	n/a	FR1	9	R1299T
2530.726	0.762	2531225	WORD_OFF	n/a	n/a	RICE	2	22	[0, 0, 0]	n/a	FR1	9	R1299T
2531.488	1.622	2531987	WORD	n/a	wordpools/wordpool_EN.txt	LAKE	3	22	[0, 0, 0]	n/a	FR1	9	R1299T
2533.11	0.905	2533609	WORD_OFF	n/a	n/a	LAKE	3	22	[0, 0, 0]	n/a	FR1	9	R1299T
2534.015	1.628	2534514	WORD	n/a	wordpools/wordpool_EN.txt	BOX	4	22	[0, 0, 0]	n/a	FR1	9	R1299T
2535.643	1.126	2536142	WORD_OFF	n/a	n/a	BOX	4	22	[0, 0, 0]	n/a	FR1	9	R1299T
2536.769	1.625	2537268	WORD	n/a	wordpools/wordpool_EN.txt	HAND	5	22	[0, 0, 0]	n/a	FR1	9	R1299T
2538.394	0.857	2538893	WORD_OFF	n/a	n/a	HAND	5	22	[0, 0, 0]	n/a	FR1	9	R1299T
2539.251	1.627	2539750	WORD	n/a	wordpools/wordpool_EN.txt	STRAW	6	22	[0, 0, 0]	n/a	FR1	9	R1299T
2540.878	1.027	2541377	WORD_OFF	n/a	n/a	STRAW	6	22	[0, 0, 0]	n/a	FR1	9	R1299T
2541.905	1.622	2542404	WORD	n/a	wordpools/wordpool_EN.txt	LAMP	7	22	[0, 0, 0]	n/a	FR1	9	R1299T
2543.527	0.91	2544026	WORD_OFF	n/a	n/a	LAMP	7	22	[0, 0, 0]	n/a	FR1	9	R1299T
2544.437	1.625	2544935	WORD	n/a	wordpools/wordpool_EN.txt	PURSE	8	22	[0, 0, 0]	n/a	FR1	9	R1299T
2546.062	0.858	2546560	WORD_OFF	n/a	n/a	PURSE	8	22	[0, 0, 0]	n/a	FR1	9	R1299T
2546.92	1.625	2547418	WORD	n/a	wordpools/wordpool_EN.txt	PEA	9	22	[0, 0, 0]	n/a	FR1	9	R1299T
2548.545	0.919	2549043	WORD_OFF	n/a	n/a	PEA	9	22	[0, 0, 0]	n/a	FR1	9	R1299T
2549.464	1.632	2549962	WORD	n/a	wordpools/wordpool_EN.txt	PEN	10	22	[0, 0, 0]	n/a	FR1	9	R1299T
2551.096	0.938	2551594	WORD_OFF	n/a	n/a	PEN	10	22	[0, 0, 0]	n/a	FR1	9	R1299T
2552.034	1.629	2552532	WORD	n/a	wordpools/wordpool_EN.txt	BANK	11	22	[0, 0, 0]	n/a	FR1	9	R1299T
2553.663	0.981	2554161	WORD_OFF	n/a	n/a	BANK	11	22	[0, 0, 0]	n/a	FR1	9	R1299T
2554.644	1.636	2555142	WORD	n/a	wordpools/wordpool_EN.txt	PRINCE	12	22	[0, 0, 0]	n/a	FR1	9	R1299T
2556.28	0.001	2556778	WORD_OFF	n/a	n/a	PRINCE	12	22	[0, 0, 0]	n/a	FR1	9	R1299T
2556.281	0.0	2556779	ENCODING_END	n/a	n/a	n/a	-999	22	[0, 0, 0]	n/a	FR1	9	R1299T
2556.281	0.0	2556779	DISTRACT_START	n/a	n/a	n/a	-999	22	[0, 0, 0]	n/a	FR1	9	R1299T
2556.281	0.016	2556779	START	n/a	n/a	n/a	-999	22	[-999, -999, -999]	n/a	FR1	9	R1299T
2556.297	3.467	2556795	PROB	3.467	n/a	n/a	-999	22	[2, 3, 7]	12	FR1	9	R1299T
2559.764	3.551	2560262	PROB	3.551	n/a	n/a	-999	22	[8, 7, 2]	17	FR1	9	R1299T
2563.315	2.183	2563813	PROB	2.183	n/a	n/a	-999	22	[3, 3, 8]	14	FR1	9	R1299T
2565.498	4.501	2565996	PROB	4.501	n/a	n/a	-999	22	[9, 3, 7]	19	FR1	9	R1299T
2569.999	3.384	2570496	PROB	3.384	n/a	n/a	-999	22	[5, 7, 9]	21	FR1	9	R1299T
2573.383	5.157	2573880	PROB	5.157	n/a	n/a	-999	22	[7, 8, 1]	16	FR1	9	R1299T
2578.54	0.01	2579037	STOP	n/a	n/a	n/a	-999	22	[-999, -999, -999]	n/a	FR1	9	R1299T
2578.55	0.556	2579047	DISTRACT_END	n/a	n/a	n/a	-999	22	[0, 0, 0]	n/a	FR1	9	R1299T
2579.106	1.645	2579603	RETRIEVAL_ORIENT_START	n/a	n/a	n/a	-999	22	[0, 0, 0]	n/a	FR1	9	R1299T
2580.751	0.001	2581248	RETRIEVAL_ORIENT_END	n/a	n/a	n/a	-999	22	[0, 0, 0]	n/a	FR1	9	R1299T
2580.752	4.122	2581249	REC_START	n/a	n/a	n/a	-999	22	[0, 0, 0]	n/a	FR1	9	R1299T
2584.874	2.247	2585371	REC_WORD	2.247	n/a	PEN	10	22	[0, 0, 0]	n/a	FR1	9	R1299T
2587.121	4.832	2587618	REC_WORD	4.832	n/a	STRAW	6	22	[0, 0, 0]	n/a	FR1	9	R1299T
2591.953	18.812	2592449	REC_WORD	18.812	n/a	PEA	9	22	[0, 0, 0]	n/a	FR1	9	R1299T
2610.765	0.0	2611261	REC_END	n/a	n/a	n/a	-999	22	[0, 0, 0]	n/a	FR1	9	R1299T
2610.765	0.016	2611261	TRIAL_END	n/a	n/a	n/a	-999	22	[0, 0, 0]	n/a	FR1	9	R1299T
2610.781	0.0	2611277	TRIAL_START	n/a	n/a	n/a	-999	23	[0, 0, 0]	n/a	FR1	9	R1299T
2610.781	0.0	2611277	TRIAL	n/a	n/a	n/a	-999	23	[0, 0, 0]	n/a	FR1	9	R1299T
2610.781	1.792	2611277	WAITING_START	n/a	n/a	n/a	-999	23	[0, 0, 0]	n/a	FR1	9	R1299T
2612.573	0.0	2613068	WAITING_END	n/a	n/a	n/a	-999	23	[0, 0, 0]	n/a	FR1	9	R1299T
2612.573	10.429	2613068	COUNTDOWN_START	n/a	n/a	n/a	-999	23	[0, 0, 0]	n/a	FR1	9	R1299T
2623.002	0.001	2623497	COUNTDOWN_END	n/a	n/a	n/a	-999	23	[0, 0, 0]	n/a	FR1	9	R1299T
2623.003	1.04	2623498	ORIENT_START	n/a	n/a	n/a	-999	23	[0, 0, 0]	n/a	FR1	9	R1299T
2624.043	0.0	2624538	ORIENT_END	n/a	n/a	n/a	-999	23	[0, 0, 0]	n/a	FR1	9	R1299T
2624.043	0.791	2624538	ENCODING_START	n/a	n/a	n/a	-999	23	[0, 0, 0]	n/a	FR1	9	R1299T
2624.834	1.626	2625329	WORD	n/a	wordpools/wordpool_EN.txt	EGG	1	23	[0, 0, 0]	n/a	FR1	9	R1299T
2626.46	0.757	2626955	WORD_OFF	n/a	n/a	EGG	1	23	[0, 0, 0]	n/a	FR1	9	R1299T
2627.217	1.626	2627712	WORD	n/a	wordpools/wordpool_EN.txt	TOOL	2	23	[0, 0, 0]	n/a	FR1	9	R1299T
2628.843	0.842	2629338	WORD_OFF	n/a	n/a	TOOL	2	23	[0, 0, 0]	n/a	FR1	9	R1299T
2629.685	1.626	2630180	WORD	n/a	wordpools/wordpool_EN.txt	PIN	3	23	[0, 0, 0]	n/a	FR1	9	R1299T
2631.311	0.893	2631806	WORD_OFF	n/a	n/a	PIN	3	23	[0, 0, 0]	n/a	FR1	9	R1299T
2632.204	1.624	2632699	WORD	n/a	wordpools/wordpool_EN.txt	MULE	4	23	[0, 0, 0]	n/a	FR1	9	R1299T
2633.828	1.08	2634323	WORD_OFF	n/a	n/a	MULE	4	23	[0, 0, 0]	n/a	FR1	9	R1299T
