onset	duration	sample	trial_type	response_time	stim_file	item_name	serialpos	list	test	answer	experiment	session	subject
0.0	39.832	305490	SESS_START	n/a	n/a	n/a	-999	-999	[0, 0, 0]	n/a	FR1	1	R1066P
39.832	10.428	325404	COUNTDOWN_START	n/a	n/a	n/a	-999	-999	[0, 0, 0]	n/a	FR1	1	R1066P
50.26	3.658	330618	COUNTDOWN_END	n/a	n/a	n/a	-999	-999	[0, 0, 0]	n/a	FR1	1	R1066P
53.918	2.601	332447	PRACTICE_WORD	n/a	n/a	RHINO	1	-1	[0, 0, 0]	n/a	FR1	1	R1066P
56.519	2.383	333748	PRACTICE_WORD	n/a	n/a	ATTIC	2	-1	[0, 0, 0]	n/a	FR1	1	R1066P
58.902	2.383	334939	PRACTICE_WORD	n/a	n/a	WATCH	3	-1	[0, 0, 0]	n/a	FR1	1	R1066P
61.285	2.518	336130	PRACTICE_WORD	n/a	n/a	FLOOD	4	-1	[0, 0, 0]	n/a	FR1	1	R1066P
63.803	2.45	337389	PRACTICE_WORD	n/a	n/a	CAMEL	5	-1	[0, 0, 0]	n/a	FR1	1	R1066P
66.253	2.451	338614	PRACTICE_WORD	n/a	n/a	BEAM	6	-1	[0, 0, 0]	n/a	FR1	1	R1066P
68.704	2.417	339840	PRACTICE_WORD	n/a	n/a	RING	7	-1	[0, 0, 0]	n/a	FR1	1	R1066P
71.121	2.535	341048	PRACTICE_WORD	n/a	n/a	COTTON	8	-1	[0, 0, 0]	n/a	FR1	1	R1066P
73.656	2.599	342316	PRACTICE_WORD	n/a	n/a	CHEST	9	-1	[0, 0, 0]	n/a	FR1	1	R1066P
76.255	2.617	343615	PRACTICE_WORD	n/a	n/a	IRON	10	-1	[0, 0, 0]	n/a	FR1	1	R1066P
78.872	2.551	344923	PRACTICE_WORD	n/a	n/a	TONGUE	11	-1	[0, 0, 0]	n/a	FR1	1	R1066P
81.423	1.617	346199	PRACTICE_WORD	n/a	n/a	WAGON	12	-1	[0, 0, 0]	n/a	FR1	1	R1066P
83.04	0.0	347007	PRACTICE_DISTRACT_START	n/a	n/a	n/a	-999	-1	[0, 0, 0]	n/a	FR1	1	R1066P
83.04	0.016	347007	START	n/a	n/a	n/a	-999	-1	[-999, -999, -999]	n/a	FR1	1	R1066P
83.056	4.351	347015	PROB	4.351	n/a	n/a	-999	-1	[8, 2, 8]	18	FR1	1	R1066P
87.407	3.052	349191	PROB	3.052	n/a	n/a	-999	-1	[5, 1, 8]	14	FR1	1	R1066P
90.459	5.084	350717	PROB	5.084	n/a	n/a	-999	-1	[9, 4, 4]	17	FR1	1	R1066P
95.543	4.467	353258	PROB	4.467	n/a	n/a	-999	-1	[7, 1, 7]	15	FR1	1	R1066P
100.01	3.034	355492	PROB	3.034	n/a	n/a	-999	-1	[2, 4, 7]	13	FR1	1	R1066P
103.044	3.006	357009	PROB	3.006	n/a	n/a	-999	-1	[1, 5, 9]	15	FR1	1	R1066P
106.05	0.011	358512	STOP	n/a	n/a	n/a	-999	-1	[-999, -999, -999]	n/a	FR1	1	R1066P
106.061	0.57	358517	PRACTICE_DISTRACT_END	n/a	n/a	n/a	-999	-1	[0, 0, 0]	n/a	FR1	1	R1066P
106.631	30.513	358802	PRACTICE_REC_START	n/a	n/a	n/a	-999	-1	[0, 0, 0]	n/a	FR1	1	R1066P
137.144	22.277	374058	PRACTICE_REC_END	n/a	n/a	n/a	-999	-1	[0, 0, 0]	n/a	FR1	1	R1066P
159.421	0.0	385196	TRIAL	n/a	n/a	n/a	-999	1	[0, 0, 0]	n/a	FR1	1	R1066P
159.421	10.428	385196	COUNTDOWN_START	n/a	n/a	n/a	-999	1	[0, 0, 0]	n/a	FR1	1	R1066P
169.849	0.007	390410	COUNTDOWN_END	n/a	n/a	n/a	-999	1	[0, 0, 0]	n/a	FR1	1	R1066P
169.856	2.434	390413	ORIENT	n/a	n/a	n/a	-999	1	[0, 0, 0]	n/a	FR1	1	R1066P
172.29	2.55	391630	WORD	n/a	wordpools/wordpool_EN.txt	BROOM	1	1	[0, 0, 0]	n/a	FR1	1	R1066P
174.84	2.401	392905	WORD	n/a	wordpools/wordpool_EN.txt	PANTS	2	1	[0, 0, 0]	n/a	FR1	1	R1066P
177.241	2.401	394105	WORD	n/a	wordpools/wordpool_EN.txt	SWAMP	3	1	[0, 0, 0]	n/a	FR1	1	R1066P
179.642	2.517	395306	WORD	n/a	wordpools/wordpool_EN.txt	BREAD	4	1	[0, 0, 0]	n/a	FR1	1	R1066P
182.159	2.484	396564	WORD	n/a	wordpools/wordpool_EN.txt	BRANCH	5	1	[0, 0, 0]	n/a	FR1	1	R1066P
184.643	2.4	397806	WORD	n/a	wordpools/wordpool_EN.txt	FOX	6	1	[0, 0, 0]	n/a	FR1	1	R1066P
187.043	2.535	399006	WORD	n/a	wordpools/wordpool_EN.txt	BOWL	7	1	[0, 0, 0]	n/a	FR1	1	R1066P
189.578	2.516	400274	WORD	n/a	wordpools/wordpool_EN.txt	CROW	8	1	[0, 0, 0]	n/a	FR1	1	R1066P
192.094	2.501	401531	WORD	n/a	wordpools/wordpool_EN.txt	TREE	9	1	[0, 0, 0]	n/a	FR1	1	R1066P
194.595	2.466	402782	WORD	n/a	wordpools/wordpool_EN.txt	BEAR	10	1	[0, 0, 0]	n/a	FR1	1	R1066P
197.061	2.502	404015	WORD	n/a	wordpools/wordpool_EN.txt	SHOE	11	1	[0, 0, 0]	n/a	FR1	1	R1066P
199.563	1.616	405266	WORD	n/a	wordpools/wordpool_EN.txt	PEA	12	1	[0, 0, 0]	n/a	FR1	1	R1066P
201.179	0.001	406074	DISTRACT_START	n/a	n/a	n/a	-999	1	[0, 0, 0]	n/a	FR1	1	R1066P
201.18	0.015	406074	START	n/a	n/a	n/a	-999	1	[-999, -999, -999]	n/a	FR1	1	R1066P
201.195	4.851	406082	PROB	4.851	n/a	n/a	-999	1	[4, 3, 5]	12	FR1	1	R1066P
206.046	2.751	408507	PROB	2.751	n/a	n/a	-999	1	[2, 8, 5]	16	FR1	1	R1066P
208.797	2.785	409883	PROB	2.785	n/a	n/a	-999	1	[4, 8, 9]	21	FR1	1	R1066P
211.582	2.616	411275	PROB	2.616	n/a	n/a	-999	1	[9, 2, 1]	12	FR1	1	R1066P
214.198	3.468	412583	PROB	3.468	n/a	n/a	-999	1	[2, 4, 2]	8	FR1	1	R1066P
217.666	2.901	414317	PROB	2.901	n/a	n/a	-999	1	[7, 5, 6]	18	FR1	1	R1066P
220.567	2.339	415767	PROB	2.339	n/a	n/a	-999	1	[3, 4, 4]	1	FR1	1	R1066P
222.906	0.01	416937	STOP	n/a	n/a	n/a	-999	1	[-999, -999, -999]	n/a	FR1	1	R1066P
222.916	1.151	416942	DISTRACT_END	n/a	n/a	n/a	-999	1	[0, 0, 0]	n/a	FR1	1	R1066P
224.067	1.738	417517	REC_START	n/a	n/a	n/a	-999	1	[0, 0, 0]	n/a	FR1	1	R1066P
225.805	2.04	418386	REC_WORD	2.04	n/a	BROOM	1	1	[0, 0, 0]	n/a	FR1	1	R1066P
227.845	1.989	419406	REC_WORD	1.989	n/a	WATCH	-999	1	[0, 0, 0]	n/a	FR1	1	R1066P
229.834	1.557	420400	REC_WORD_VV	1.557	n/a	<>	-999	1	[0, 0, 0]	n/a	FR1	1	R1066P
231.391	12.027	421179	REC_WORD	12.027	n/a	PANTS	2	1	[0, 0, 0]	n/a	FR1	1	R1066P
243.418	10.659	427192	REC_WORD	10.659	n/a	SHOE	11	1	[0, 0, 0]	n/a	FR1	1	R1066P
254.077	38.152	432521	REC_END	n/a	n/a	n/a	-999	1	[0, 0, 0]	n/a	FR1	1	R1066P
292.229	0.0	451596	TRIAL	n/a	n/a	n/a	-999	2	[0, 0, 0]	n/a	FR1	1	R1066P
292.229	10.428	451596	COUNTDOWN_START	n/a	n/a	n/a	-999	2	[0, 0, 0]	n/a	FR1	1	R1066P
302.657	0.008	456810	COUNTDOWN_END	n/a	n/a	n/a	-999	2	[0, 0, 0]	n/a	FR1	1	R1066P
302.665	2.617	456814	ORIENT	n/a	n/a	n/a	-999	2	[0, 0, 0]	n/a	FR1	1	R1066P
305.282	2.467	458122	WORD	n/a	wordpools/wordpool_EN.txt	PURSE	1	2	[0, 0, 0]	n/a	FR1	1	R1066P
307.749	2.483	459356	WORD	n/a	wordpools/wordpool_EN.txt	CHAIR	2	2	[0, 0, 0]	n/a	FR1	1	R1066P
310.232	2.618	460597	WORD	n/a	wordpools/wordpool_EN.txt	KITE	3	2	[0, 0, 0]	n/a	FR1	1	R1066P
312.85	2.6	461906	WORD	n/a	wordpools/wordpool_EN.txt	STOOL	4	2	[0, 0, 0]	n/a	FR1	1	R1066P
315.45	2.484	463206	WORD	n/a	wordpools/wordpool_EN.txt	CHIN	5	2	[0, 0, 0]	n/a	FR1	1	R1066P
317.934	2.584	464448	WORD	n/a	wordpools/wordpool_EN.txt	BRUSH	6	2	[0, 0, 0]	n/a	FR1	1	R1066P
320.518	2.6	465740	WORD	n/a	wordpools/wordpool_EN.txt	CANE	7	2	[0, 0, 0]	n/a	FR1	1	R1066P
323.118	2.485	467040	WORD	n/a	wordpools/wordpool_EN.txt	ROSE	8	2	[0, 0, 0]	n/a	FR1	1	R1066P
325.603	2.549	468282	WORD	n/a	wordpools/wordpool_EN.txt	DRESS	9	2	[0, 0, 0]	n/a	FR1	1	R1066P
328.152	2.485	469557	WORD	n/a	wordpools/wordpool_EN.txt	BLOOM	10	2	[0, 0, 0]	n/a	FR1	1	R1066P
330.637	2.583	470799	WORD	n/a	wordpools/wordpool_EN.txt	SQUARE	11	2	[0, 0, 0]	n/a	FR1	1	R1066P
333.22	1.617	472091	WORD	n/a	wordpools/wordpool_EN.txt	SOCK	12	2	[0, 0, 0]	n/a	FR1	1	R1066P
334.837	0.001	472899	DISTRACT_START	n/a	n/a	n/a	-999	2	[0, 0, 0]	n/a	FR1	1	R1066P
334.838	0.016	472900	START	n/a	n/a	n/a	-999	2	[-999, -999, -999]	n/a	FR1	1	R1066P
334.854	4.517	472908	PROB	4.517	n/a	n/a	-999	2	[8, 5, 6]	19	FR1	1	R1066P
339.371	3.318	475166	PROB	3.318	n/a	n/a	-999	2	[5, 3, 8]	16	FR1	1	R1066P
342.689	2.083	476825	PROB	2.083	n/a	n/a	-999	2	[1, 6, 4]	11	FR1	1	R1066P
344.772	2.534	477866	PROB	2.534	n/a	n/a	-999	2	[1, 6, 3]	10	FR1	1	R1066P
347.306	3.117	479133	PROB	3.117	n/a	n/a	-999	2	[4, 1, 7]	12	FR1	1	R1066P
350.423	2.584	480692	PROB	2.584	n/a	n/a	-999	2	[3, 6, 3]	12	FR1	1	R1066P
353.007	2.62	481984	PROB	2.62	n/a	n/a	-999	2	[3, 2, 2]	7	FR1	1	R1066P
355.627	0.015	483294	STOP	n/a	n/a	n/a	-999	2	[-999, -999, -999]	n/a	FR1	1	R1066P
355.642	1.1	483301	DISTRACT_END	n/a	n/a	n/a	-999	2	[0, 0, 0]	n/a	FR1	1	R1066P
356.742	1.611	483851	REC_START	n/a	n/a	n/a	-999	2	[0, 0, 0]	n/a	FR1	1	R1066P
358.353	0.755	484657	REC_WORD	0.755	n/a	PURSE	1	2	[0, 0, 0]	n/a	FR1	1	R1066P
359.108	1.336	485034	REC_WORD	1.336	n/a	CHAIR	2	2	[0, 0, 0]	n/a	FR1	1	R1066P
360.444	1.412	485702	REC_WORD	1.412	n/a	CHIN	5	2	[0, 0, 0]	n/a	FR1	1	R1066P
361.856	15.827	486408	REC_WORD	15.827	n/a	CANE	7	2	[0, 0, 0]	n/a	FR1	1	R1066P
377.683	0.825	494321	REC_WORD	0.825	n/a	CHIN	5	2	[0, 0, 0]	n/a	FR1	1	R1066P
378.508	2.727	494734	REC_WORD	2.727	n/a	CANE	7	2	[0, 0, 0]	n/a	FR1	1	R1066P
381.235	5.517	496097	REC_WORD	5.517	n/a	CANE	7	2	[0, 0, 0]	n/a	FR1	1	R1066P
386.752	3.429	498855	REC_END	n/a	n/a	n/a	-999	2	[0, 0, 0]	n/a	FR1	1	R1066P
390.181	0.0	500570	TRIAL	n/a	n/a	n/a	-999	3	[0, 0, 0]	n/a	FR1	1	R1066P
390.181	10.428	500570	COUNTDOWN_START	n/a	n/a	n/a	-999	3	[0, 0, 0]	n/a	FR1	1	R1066P
400.609	0.008	505783	COUNTDOWN_END	n/a	n/a	n/a	-999	3	[0, 0, 0]	n/a	FR1	1	R1066P
400.617	2.583	505787	ORIENT	n/a	n/a	n/a	-999	3	[0, 0, 0]	n/a	FR1	1	R1066P
403.2	2.468	507079	WORD	n/a	wordpools/wordpool_EN.txt	POND	1	3	[0, 0, 0]	n/a	FR1	1	R1066P
405.668	2.516	508313	WORD	n/a	wordpools/wordpool_EN.txt	COW	2	3	[0, 0, 0]	n/a	FR1	1	R1066P
408.184	2.485	509571	WORD	n/a	wordpools/wordpool_EN.txt	BOY	3	3	[0, 0, 0]	n/a	FR1	1	R1066P
410.669	2.383	510813	WORD	n/a	wordpools/wordpool_EN.txt	HEART	4	3	[0, 0, 0]	n/a	FR1	1	R1066P
413.052	2.601	512005	WORD	n/a	wordpools/wordpool_EN.txt	CORD	5	3	[0, 0, 0]	n/a	FR1	1	R1066P
415.653	2.583	513305	WORD	n/a	wordpools/wordpool_EN.txt	FOAM	6	3	[0, 0, 0]	n/a	FR1	1	R1066P
418.236	2.501	514596	WORD	n/a	wordpools/wordpool_EN.txt	PEAR	7	3	[0, 0, 0]	n/a	FR1	1	R1066P
420.737	2.417	515847	WORD	n/a	wordpools/wordpool_EN.txt	BED	8	3	[0, 0, 0]	n/a	FR1	1	R1066P
423.154	2.384	517055	WORD	n/a	wordpools/wordpool_EN.txt	EGG	9	3	[0, 0, 0]	n/a	FR1	1	R1066P
425.538	2.55	518247	WORD	n/a	wordpools/wordpool_EN.txt	TOAST	10	3	[0, 0, 0]	n/a	FR1	1	R1066P
428.088	2.468	519522	WORD	n/a	wordpools/wordpool_EN.txt	HILL	11	3	[0, 0, 0]	n/a	FR1	1	R1066P
430.556	1.616	520756	WORD	n/a	wordpools/wordpool_EN.txt	TOY	12	3	[0, 0, 0]	n/a	FR1	1	R1066P
432.172	0.001	521564	DISTRACT_START	n/a	n/a	n/a	-999	3	[0, 0, 0]	n/a	FR1	1	R1066P
432.173	0.016	521565	START	n/a	n/a	n/a	-999	3	[-999, -999, -999]	n/a	FR1	1	R1066P
432.189	5.084	521573	PROB	5.084	n/a	n/a	-999	3	[8, 5, 5]	18	FR1	1	R1066P
437.273	2.434	524114	PROB	2.434	n/a	n/a	-999	3	[1, 2, 3]	6	FR1	1	R1066P
439.707	1.3	525331	PROB	1.3	n/a	n/a	-999	3	[2, 1, 2]	5	FR1	1	R1066P
441.007	2.551	525981	PROB	2.551	n/a	n/a	-999	3	[6, 5, 7]	18	FR1	1	R1066P
443.558	2.383	527257	PROB	2.383	n/a	n/a	-999	3	[3, 9, 1]	13	FR1	1	R1066P
445.941	2.734	528448	PROB	2.734	n/a	n/a	-999	3	[4, 6, 7]	17	FR1	1	R1066P
448.675	3.301	529815	PROB	3.301	n/a	n/a	-999	3	[2, 9, 4]	15	FR1	1	R1066P
451.976	2.491	531466	PROB	2.491	n/a	n/a	-999	3	[6, 2, 6]	13	FR1	1	R1066P
454.467	0.01	532711	STOP	n/a	n/a	n/a	-999	3	[-999, -999, -999]	n/a	FR1	1	R1066P
454.477	1.051	532716	DISTRACT_END	n/a	n/a	n/a	-999	3	[0, 0, 0]	n/a	FR1	1	R1066P
455.528	3.084	533241	REC_START	n/a	n/a	n/a	-999	3	[0, 0, 0]	n/a	FR1	1	R1066P
458.612	0.702	534783	REC_WORD	0.702	n/a	POND	1	3	[0, 0, 0]	n/a	FR1	1	R1066P
459.314	0.546	535134	REC_WORD	0.546	n/a	BOY	3	3	[0, 0, 0]	n/a	FR1	1	R1066P
459.86	1.519	535407	REC_WORD	1.519	n/a	COW	2	3	[0, 0, 0]	n/a	FR1	1	R1066P
461.379	2.181	536167	REC_WORD	2.181	n/a	HEART	4	3	[0, 0, 0]	n/a	FR1	1	R1066P
463.56	12.1	537257	REC_WORD	12.1	n/a	COTTON	-999	3	[0, 0, 0]	n/a	FR1	1	R1066P
475.66	1.0	543307	REC_WORD_VV	1.0	n/a	<>	-999	3	[0, 0, 0]	n/a	FR1	1	R1066P
476.66	8.879	543807	REC_WORD_VV	8.879	n/a	<>	-999	3	[0, 0, 0]	n/a	FR1	1	R1066P
485.539	5.61	548246	REC_END	n/a	n/a	n/a	-999	3	[0, 0, 0]	n/a	FR1	1	R1066P
491.149	0.001	551051	COUNTDOWN_START	n/a	n/a	n/a	-999	4	[0, 0, 0]	n/a	FR1	1	R1066P
491.15	10.427	551052	TRIAL	n/a	n/a	n/a	-999	4	[0, 0, 0]	n/a	FR1	1	R1066P
501.577	0.009	556265	COUNTDOWN_END	n/a	n/a	n/a	-999	4	[0, 0, 0]	n/a	FR1	1	R1066P
501.586	2.399	556269	ORIENT	n/a	n/a	n/a	-999	4	[0, 0, 0]	n/a	FR1	1	R1066P
503.985	2.434	557469	WORD	n/a	wordpools/wordpool_EN.txt	SKI	1	4	[0, 0, 0]	n/a	FR1	1	R1066P
506.419	2.467	558686	WORD	n/a	wordpools/wordpool_EN.txt	SHRIMP	2	4	[0, 0, 0]	n/a	FR1	1	R1066P
508.886	2.451	559919	WORD	n/a	wordpools/wordpool_EN.txt	PLANE	3	4	[0, 0, 0]	n/a	FR1	1	R1066P
511.337	2.384	561145	WORD	n/a	wordpools/wordpool_EN.txt	DART	4	4	[0, 0, 0]	n/a	FR1	1	R1066P
513.721	2.45	562336	WORD	n/a	wordpools/wordpool_EN.txt	CLAY	5	4	[0, 0, 0]	n/a	FR1	1	R1066P
516.171	2.485	563561	WORD	n/a	wordpools/wordpool_EN.txt	CLOUD	6	4	[0, 0, 0]	n/a	FR1	1	R1066P
518.656	2.599	564804	WORD	n/a	wordpools/wordpool_EN.txt	BALL	7	4	[0, 0, 0]	n/a	FR1	1	R1066P
521.255	2.418	566103	WORD	n/a	wordpools/wordpool_EN.txt	BOMB	8	4	[0, 0, 0]	n/a	FR1	1	R1066P
523.673	2.483	567312	WORD	n/a	wordpools/wordpool_EN.txt	MOON	9	4	[0, 0, 0]	n/a	FR1	1	R1066P
526.156	2.517	568554	WORD	n/a	wordpools/wordpool_EN.txt	WHEEL	10	4	[0, 0, 0]	n/a	FR1	1	R1066P
528.673	2.434	569812	WORD	n/a	wordpools/wordpool_EN.txt	FILM	11	4	[0, 0, 0]	n/a	FR1	1	R1066P
531.107	1.617	571029	WORD	n/a	wordpools/wordpool_EN.txt	BAT	12	4	[0, 0, 0]	n/a	FR1	1	R1066P
532.724	0.001	571837	DISTRACT_START	n/a	n/a	n/a	-999	4	[0, 0, 0]	n/a	FR1	1	R1066P
532.725	0.016	571838	START	n/a	n/a	n/a	-999	4	[-999, -999, -999]	n/a	FR1	1	R1066P
532.741	3.2	571846	PROB	3.2	n/a	n/a	-999	4	[2, 6, 8]	14	FR1	1	R1066P
535.941	2.284	573446	PROB	2.284	n/a	n/a	-999	4	[6, 1, 7]	14	FR1	1	R1066P
538.225	3.184	574588	PROB	3.184	n/a	n/a	-999	4	[8, 7, 9]	24	FR1	1	R1066P
541.409	2.451	576180	PROB	2.451	n/a	n/a	-999	4	[7, 8, 2]	17	FR1	1	R1066P
543.86	2.734	577405	PROB	2.734	n/a	n/a	-999	4	[3, 6, 5]	14	FR1	1	R1066P
546.594	2.167	578772	PROB	2.167	n/a	n/a	-999	4	[1, 2, 2]	5	FR1	1	R1066P
548.761	3.567	579856	PROB	3.567	n/a	n/a	-999	4	[4, 9, 6]	15	FR1	1	R1066P
552.328	2.914	581639	PROB	2.914	n/a	n/a	-999	4	[8, 4, 8]	20	FR1	1	R1066P
555.242	0.019	583096	STOP	n/a	n/a	n/a	-999	4	[-999, -999, -999]	n/a	FR1	1	R1066P
555.261	1.151	583105	DISTRACT_END	n/a	n/a	n/a	-999	4	[0, 0, 0]	n/a	FR1	1	R1066P
556.412	1.525	583681	REC_START	n/a	n/a	n/a	-999	4	[0, 0, 0]	n/a	FR1	1	R1066P
557.937	0.764	584443	REC_WORD	0.764	n/a	CLAY	5	4	[0, 0, 0]	n/a	FR1	1	R1066P
558.701	2.921	584825	REC_WORD	2.921	n/a	DART	4	4	[0, 0, 0]	n/a	FR1	1	R1066P
561.622	2.392	586286	REC_WORD	2.392	n/a	SHRIMP	2	4	[0, 0, 0]	n/a	FR1	1	R1066P
564.014	12.875	587482	REC_WORD	12.875	n/a	MOON	9	4	[0, 0, 0]	n/a	FR1	1	R1066P
576.889	9.537	593919	REC_WORD	9.537	n/a	PIE	-999	4	[0, 0, 0]	n/a	FR1	1	R1066P
586.426	5.243	598687	REC_END	n/a	n/a	n/a	-999	4	[0, 0, 0]	n/a	FR1	1	R1066P
591.669	0.0	601308	TRIAL	n/a	n/a	n/a	-999	5	[0, 0, 0]	n/a	FR1	1	R1066P
591.669	10.428	601308	COUNTDOWN_START	n/a	n/a	n/a	-999	5	[0, 0, 0]	n/a	FR1	1	R1066P
602.097	0.007	606522	COUNTDOWN_END	n/a	n/a	n/a	-999	5	[0, 0, 0]	n/a	FR1	1	R1066P
602.104	2.418	606526	ORIENT	n/a	n/a	n/a	-999	5	[0, 0, 0]	n/a	FR1	1	R1066P
604.522	2.399	607735	WORD	n/a	wordpools/wordpool_EN.txt	MAP	1	5	[0, 0, 0]	n/a	FR1	1	R1066P
606.921	2.468	608934	WORD	n/a	wordpools/wordpool_EN.txt	LAKE	2	5	[0, 0, 0]	n/a	FR1	1	R1066P
609.389	2.433	610168	WORD	n/a	wordpools/wordpool_EN.txt	SNOW	3	5	[0, 0, 0]	n/a	FR1	1	R1066P
611.822	2.551	611384	WORD	n/a	wordpools/wordpool_EN.txt	TRAIN	4	5	[0, 0, 0]	n/a	FR1	1	R1066P
614.373	2.484	612660	WORD	n/a	wordpools/wordpool_EN.txt	SKUNK	5	5	[0, 0, 0]	n/a	FR1	1	R1066P
616.857	2.417	613902	WORD	n/a	wordpools/wordpool_EN.txt	CAPE	6	5	[0, 0, 0]	n/a	FR1	1	R1066P
619.274	2.5	615110	WORD	n/a	wordpools/wordpool_EN.txt	ICE	7	5	[0, 0, 0]	n/a	FR1	1	R1066P
621.774	2.384	616360	WORD	n/a	wordpools/wordpool_EN.txt	ROCK	8	5	[0, 0, 0]	n/a	FR1	1	R1066P
624.158	2.385	617552	WORD	n/a	wordpools/wordpool_EN.txt	RAIN	9	5	[0, 0, 0]	n/a	FR1	1	R1066P
626.543	2.416	618744	WORD	n/a	wordpools/wordpool_EN.txt	POLE	10	5	[0, 0, 0]	n/a	FR1	1	R1066P
628.959	2.45	619952	WORD	n/a	wordpools/wordpool_EN.txt	BAND	11	5	[0, 0, 0]	n/a	FR1	1	R1066P
631.409	1.617	621177	WORD	n/a	wordpools/wordpool_EN.txt	SLIME	12	5	[0, 0, 0]	n/a	FR1	1	R1066P
633.026	0.001	621986	DISTRACT_START	n/a	n/a	n/a	-999	5	[0, 0, 0]	n/a	FR1	1	R1066P
633.027	0.016	621986	START	n/a	n/a	n/a	-999	5	[-999, -999, -999]	n/a	FR1	1	R1066P
633.043	3.401	621994	PROB	3.401	n/a	n/a	-999	5	[2, 7, 3]	1	FR1	1	R1066P
636.444	2.833	623695	PROB	2.833	n/a	n/a	-999	5	[3, 4, 5]	11	FR1	1	R1066P
639.277	3.935	625111	PROB	3.935	n/a	n/a	-999	5	[6, 8, 1]	15	FR1	1	R1066P
643.212	2.583	627079	PROB	2.583	n/a	n/a	-999	5	[2, 5, 1]	8	FR1	1	R1066P
645.795	2.802	628370	PROB	2.802	n/a	n/a	-999	5	[7, 7, 9]	24	FR1	1	R1066P
648.597	2.216	629771	PROB	2.216	n/a	n/a	-999	5	[3, 1, 9]	13	FR1	1	R1066P
650.813	3.533	630879	PROB	3.533	n/a	n/a	-999	5	[2, 3, 9]	14	FR1	1	R1066P
654.346	0.018	632645	STOP	n/a	n/a	n/a	-999	5	[-999, -999, -999]	n/a	FR1	1	R1066P
654.364	1.168	632654	DISTRACT_END	n/a	n/a	n/a	-999	5	[0, 0, 0]	n/a	FR1	1	R1066P
655.532	1.438	633238	REC_START	n/a	n/a	n/a	-999	5	[0, 0, 0]	n/a	FR1	1	R1066P
656.97	1.041	633957	REC_WORD	1.041	n/a	MAP	1	5	[0, 0, 0]	n/a	FR1	1	R1066P
658.011	0.731	634478	REC_WORD	0.731	n/a	SNOW	3	5	[0, 0, 0]	n/a	FR1	1	R1066P
658.742	0.662	634843	REC_WORD	0.662	n/a	ICE	7	5	[0, 0, 0]	n/a	FR1	1	R1066P
659.404	4.05	635174	REC_WORD	4.05	n/a	ROCK	8	5	[0, 0, 0]	n/a	FR1	1	R1066P
663.454	5.316	637199	REC_WORD	5.316	n/a	GLASS	-999	5	[0, 0, 0]	n/a	FR1	1	R1066P
668.77	4.543	639857	REC_WORD	4.543	n/a	ICE	7	5	[0, 0, 0]	n/a	FR1	1	R1066P
673.313	5.586	642128	REC_WORD	5.586	n/a	TRAIN	4	5	[0, 0, 0]	n/a	FR1	1	R1066P
678.899	6.643	644921	REC_WORD_VV	6.643	n/a	<>	-999	5	[0, 0, 0]	n/a	FR1	1	R1066P
685.542	282.88	648242	REC_END	n/a	n/a	n/a	-999	5	[0, 0, 0]	n/a	FR1	1	R1066P
968.422	0.0	789675	TRIAL	n/a	n/a	n/a	-999	6	[0, 0, 0]	n/a	FR1	1	R1066P
968.422	10.428	789675	COUNTDOWN_START	n/a	n/a	n/a	-999	6	[0, 0, 0]	n/a	FR1	1	R1066P
978.85	0.008	794889	COUNTDOWN_END	n/a	n/a	n/a	-999	6	[0, 0, 0]	n/a	FR1	1	R1066P
978.858	2.45	794893	ORIENT	n/a	n/a	n/a	-999	6	[0, 0, 0]	n/a	FR1	1	R1066P
981.308	2.551	796118	WORD	n/a	wordpools/wordpool_EN.txt	TANK	1	6	[0, 0, 0]	n/a	FR1	1	R1066P
983.859	2.45	797393	WORD	n/a	wordpools/wordpool_EN.txt	LIP	2	6	[0, 0, 0]	n/a	FR1	1	R1066P
986.309	2.55	798618	WORD	n/a	wordpools/wordpool_EN.txt	HOOF	3	6	[0, 0, 0]	n/a	FR1	1	R1066P
988.859	2.467	799893	WORD	n/a	wordpools/wordpool_EN.txt	PARK	4	6	[0, 0, 0]	n/a	FR1	1	R1066P
991.326	2.534	801126	WORD	n/a	wordpools/wordpool_EN.txt	STICK	5	6	[0, 0, 0]	n/a	FR1	1	R1066P
993.86	2.534	802393	WORD	n/a	wordpools/wordpool_EN.txt	CASH	6	6	[0, 0, 0]	n/a	FR1	1	R1066P
996.394	2.601	803660	WORD	n/a	wordpools/wordpool_EN.txt	FUR	7	6	[0, 0, 0]	n/a	FR1	1	R1066P
998.995	2.568	804961	WORD	n/a	wordpools/wordpool_EN.txt	CAVE	8	6	[0, 0, 0]	n/a	FR1	1	R1066P
1001.563	2.549	806245	WORD	n/a	wordpools/wordpool_EN.txt	CALF	9	6	[0, 0, 0]	n/a	FR1	1	R1066P
1004.112	2.385	807519	WORD	n/a	wordpools/wordpool_EN.txt	ZOO	10	6	[0, 0, 0]	n/a	FR1	1	R1066P
1006.497	2.616	808711	WORD	n/a	wordpools/wordpool_EN.txt	SPRING	11	6	[0, 0, 0]	n/a	FR1	1	R1066P
1009.113	1.617	810019	WORD	n/a	wordpools/wordpool_EN.txt	ARM	12	6	[0, 0, 0]	n/a	FR1	1	R1066P
1010.73	0.001	810828	DISTRACT_START	n/a	n/a	n/a	-999	6	[0, 0, 0]	n/a	FR1	1	R1066P
1010.731	0.016	810828	START	n/a	n/a	n/a	-999	6	[-999, -999, -999]	n/a	FR1	1	R1066P
1010.747	4.451	810836	PROB	4.451	n/a	n/a	-999	6	[4, 4, 2]	10	FR1	1	R1066P
1015.198	2.534	813062	PROB	2.534	n/a	n/a	-999	6	[2, 3, 2]	7	FR1	1	R1066P
1017.732	3.283	814329	PROB	3.283	n/a	n/a	-999	6	[8, 9, 3]	20	FR1	1	R1066P
1021.015	3.635	815970	PROB	3.635	n/a	n/a	-999	6	[2, 3, 3]	6	FR1	1	R1066P
1024.65	3.901	817787	PROB	3.901	n/a	n/a	-999	6	[5, 1, 7]	13	FR1	1	R1066P
1028.551	2.539	819738	PROB	2.539	n/a	n/a	-999	6	[7, 4, 1]	12	FR1	1	R1066P
1031.09	0.011	821007	STOP	n/a	n/a	n/a	-999	6	[-999, -999, -999]	n/a	FR1	1	R1066P
1031.101	1.051	821013	DISTRACT_END	n/a	n/a	n/a	-999	6	[0, 0, 0]	n/a	FR1	1	R1066P
1032.152	2.782	821538	REC_START	n/a	n/a	n/a	-999	6	[0, 0, 0]	n/a	FR1	1	R1066P
1034.934	1.428	822929	REC_WORD	1.428	n/a	CASH	6	6	[0, 0, 0]	n/a	FR1	1	R1066P
1036.362	1.024	823643	REC_WORD	1.024	n/a	CALF	9	6	[0, 0, 0]	n/a	FR1	1	R1066P
1037.386	1.744	824155	REC_WORD	1.744	n/a	LIP	2	6	[0, 0, 0]	n/a	FR1	1	R1066P
1039.13	23.032	825027	REC_WORD	23.032	n/a	STICK	5	6	[0, 0, 0]	n/a	FR1	1	R1066P
1062.162	3.012	836542	REC_END	n/a	n/a	n/a	-999	6	[0, 0, 0]	n/a	FR1	1	R1066P
1065.174	0.0	838048	TRIAL	n/a	n/a	n/a	-999	7	[0, 0, 0]	n/a	FR1	1	R1066P
1065.174	10.428	838048	COUNTDOWN_START	n/a	n/a	n/a	-999	7	[0, 0, 0]	n/a	FR1	1	R1066P
1075.602	0.008	843262	COUNTDOWN_END	n/a	n/a	n/a	-999	7	[0, 0, 0]	n/a	FR1	1	R1066P
1075.61	2.383	843266	ORIENT	n/a	n/a	n/a	-999	7	[0, 0, 0]	n/a	FR1	1	R1066P
1077.993	2.535	844458	WORD	n/a	wordpools/wordpool_EN.txt	RAT	1	7	[0, 0, 0]	n/a	FR1	1	R1066P
1080.528	2.566	845725	WORD	n/a	wordpools/wordpool_EN.txt	CAT	2	7	[0, 0, 0]	n/a	FR1	1	R1066P
1083.094	2.551	847008	WORD	n/a	wordpools/wordpool_EN.txt	ANT	3	7	[0, 0, 0]	n/a	FR1	1	R1066P
1085.645	2.383	848283	WORD	n/a	wordpools/wordpool_EN.txt	FOOD	4	7	[0, 0, 0]	n/a	FR1	1	R1066P
1088.028	2.518	849475	WORD	n/a	wordpools/wordpool_EN.txt	STORE	5	7	[0, 0, 0]	n/a	FR1	1	R1066P
1090.546	2.55	850734	WORD	n/a	wordpools/wordpool_EN.txt	BANK	6	7	[0, 0, 0]	n/a	FR1	1	R1066P
1093.096	2.401	852009	WORD	n/a	wordpools/wordpool_EN.txt	DUCK	7	7	[0, 0, 0]	n/a	FR1	1	R1066P
1095.497	2.533	853209	WORD	n/a	wordpools/wordpool_EN.txt	PIG	8	7	[0, 0, 0]	n/a	FR1	1	R1066P
1098.03	2.551	854476	WORD	n/a	wordpools/wordpool_EN.txt	GEESE	9	7	[0, 0, 0]	n/a	FR1	1	R1066P
1100.581	2.566	855751	WORD	n/a	wordpools/wordpool_EN.txt	WOLF	10	7	[0, 0, 0]	n/a	FR1	1	R1066P
1103.147	2.568	857034	WORD	n/a	wordpools/wordpool_EN.txt	FLUTE	11	7	[0, 0, 0]	n/a	FR1	1	R1066P
1105.715	1.617	858318	WORD	n/a	wordpools/wordpool_EN.txt	LAMB	12	7	[0, 0, 0]	n/a	FR1	1	R1066P
1107.332	0.001	859126	DISTRACT_START	n/a	n/a	n/a	-999	7	[0, 0, 0]	n/a	FR1	1	R1066P
1107.333	0.015	859127	START	n/a	n/a	n/a	-999	7	[-999, -999, -999]	n/a	FR1	1	R1066P
1107.348	3.068	859134	PROB	3.068	n/a	n/a	-999	7	[8, 9, 4]	21	FR1	1	R1066P
1110.416	2.467	860668	PROB	2.467	n/a	n/a	-999	7	[7, 4, 4]	15	FR1	1	R1066P
1112.883	2.618	861902	PROB	2.618	n/a	n/a	-999	7	[8, 3, 9]	20	FR1	1	R1066P
1115.501	3.85	863211	PROB	3.85	n/a	n/a	-999	7	[3, 2, 2]	7	FR1	1	R1066P
1119.351	2.983	865135	PROB	2.983	n/a	n/a	-999	7	[1, 6, 9]	16	FR1	1	R1066P
1122.334	2.818	866627	PROB	2.818	n/a	n/a	-999	7	[7, 4, 5]	16	FR1	1	R1066P
1125.152	3.538	868036	PROB	3.538	n/a	n/a	-999	7	[1, 2, 3]	6	FR1	1	R1066P
1128.69	0.012	869805	STOP	n/a	n/a	n/a	-999	7	[-999, -999, -999]	n/a	FR1	1	R1066P
1128.702	1.052	869811	DISTRACT_END	n/a	n/a	n/a	-999	7	[0, 0, 0]	n/a	FR1	1	R1066P
1129.754	1.603	870337	REC_START	n/a	n/a	n/a	-999	7	[0, 0, 0]	n/a	FR1	1	R1066P
1131.357	0.51	871138	REC_WORD_VV	0.51	n/a	<>	-999	7	[0, 0, 0]	n/a	FR1	1	R1066P
1131.867	0.848	871393	REC_WORD	0.848	n/a	RAT	1	7	[0, 0, 0]	n/a	FR1	1	R1066P
1132.715	6.667	871817	REC_WORD	6.667	n/a	CAT	2	7	[0, 0, 0]	n/a	FR1	1	R1066P
1139.382	3.348	875150	REC_WORD	3.348	n/a	ANT	3	7	[0, 0, 0]	n/a	FR1	1	R1066P
1142.73	3.216	876824	REC_WORD	3.216	n/a	BANK	6	7	[0, 0, 0]	n/a	FR1	1	R1066P
1145.946	13.818	878432	REC_WORD	13.818	n/a	STORE	5	7	[0, 0, 0]	n/a	FR1	1	R1066P
1159.764	7.847	885341	REC_END	n/a	n/a	n/a	-999	7	[0, 0, 0]	n/a	FR1	1	R1066P
1167.611	0.0	889264	TRIAL	n/a	n/a	n/a	-999	8	[0, 0, 0]	n/a	FR1	1	R1066P
1167.611	10.428	889264	COUNTDOWN_START	n/a	n/a	n/a	-999	8	[0, 0, 0]	n/a	FR1	1	R1066P
1178.039	0.006	894478	COUNTDOWN_END	n/a	n/a	n/a	-999	8	[0, 0, 0]	n/a	FR1	1	R1066P
1178.045	2.601	894481	ORIENT	n/a	n/a	n/a	-999	8	[0, 0, 0]	n/a	FR1	1	R1066P
1180.646	2.55	895781	WORD	n/a	wordpools/wordpool_EN.txt	BENCH	1	8	[0, 0, 0]	n/a	FR1	1	R1066P
1183.196	2.418	897056	WORD	n/a	wordpools/wordpool_EN.txt	CLOCK	2	8	[0, 0, 0]	n/a	FR1	1	R1066P
1185.614	2.549	898265	WORD	n/a	wordpools/wordpool_EN.txt	TRUCK	3	8	[0, 0, 0]	n/a	FR1	1	R1066P
1188.163	2.385	899540	WORD	n/a	wordpools/wordpool_EN.txt	DESK	4	8	[0, 0, 0]	n/a	FR1	1	R1066P
1190.548	2.583	900732	WORD	n/a	wordpools/wordpool_EN.txt	BATH	5	8	[0, 0, 0]	n/a	FR1	1	R1066P
1193.131	2.468	902023	WORD	n/a	wordpools/wordpool_EN.txt	BAG	6	8	[0, 0, 0]	n/a	FR1	1	R1066P
1195.599	2.45	903257	WORD	n/a	wordpools/wordpool_EN.txt	SPOON	7	8	[0, 0, 0]	n/a	FR1	1	R1066P
1198.049	2.568	904482	WORD	n/a	wordpools/wordpool_EN.txt	FUDGE	8	8	[0, 0, 0]	n/a	FR1	1	R1066P
1200.617	2.566	905766	WORD	n/a	wordpools/wordpool_EN.txt	BOX	9	8	[0, 0, 0]	n/a	FR1	1	R1066P
1203.183	2.567	907049	WORD	n/a	wordpools/wordpool_EN.txt	MUG	10	8	[0, 0, 0]	n/a	FR1	1	R1066P
1205.75	2.45	908333	WORD	n/a	wordpools/wordpool_EN.txt	HAND	11	8	[0, 0, 0]	n/a	FR1	1	R1066P
1208.2	1.618	909558	WORD	n/a	wordpools/wordpool_EN.txt	VAN	12	8	[0, 0, 0]	n/a	FR1	1	R1066P
1209.818	0.001	910367	DISTRACT_START	n/a	n/a	n/a	-999	8	[0, 0, 0]	n/a	FR1	1	R1066P
1209.819	0.015	910367	START	n/a	n/a	n/a	-999	8	[-999, -999, -999]	n/a	FR1	1	R1066P
1209.834	4.218	910375	PROB	4.218	n/a	n/a	-999	8	[9, 4, 2]	15	FR1	1	R1066P
1214.052	5.867	912483	PROB	5.867	n/a	n/a	-999	8	[8, 9, 8]	25	FR1	1	R1066P
1219.919	2.234	915417	PROB	2.234	n/a	n/a	-999	8	[3, 5, 1]	9	FR1	1	R1066P
1222.153	4.118	916534	PROB	4.118	n/a	n/a	-999	8	[4, 9, 7]	15	FR1	1	R1066P
1226.271	2.617	918593	PROB	2.617	n/a	n/a	-999	8	[1, 3, 2]	6	FR1	1	R1066P
1228.888	2.546	919901	PROB	2.546	n/a	n/a	-999	8	[4, 3, 2]	9	FR1	1	R1066P
1231.434	0.004	921174	STOP	n/a	n/a	n/a	-999	8	[-999, -999, -999]	n/a	FR1	1	R1066P
1231.438	1.035	921176	DISTRACT_END	n/a	n/a	n/a	-999	8	[0, 0, 0]	n/a	FR1	1	R1066P
1232.473	1.675	921693	REC_START	n/a	n/a	n/a	-999	8	[0, 0, 0]	n/a	FR1	1	R1066P
1234.148	0.947	922531	REC_WORD	0.947	n/a	TRUCK	3	8	[0, 0, 0]	n/a	FR1	1	R1066P
1235.095	3.995	923004	REC_WORD	3.995	n/a	BATH	5	8	[0, 0, 0]	n/a	FR1	1	R1066P
1239.09	9.149	925002	REC_WORD	9.149	n/a	MENU	-999	8	[0, 0, 0]	n/a	FR1	1	R1066P
1248.239	1.0	929576	REC_WORD_VV	1.0	n/a	<>	-999	8	[0, 0, 0]	n/a	FR1	1	R1066P
1249.239	0.123	930076	REC_WORD_VV	0.123	n/a	<>	-999	8	[0, 0, 0]	n/a	FR1	1	R1066P
1249.362	10.617	930138	REC_WORD	10.617	n/a	ANT	-999	8	[0, 0, 0]	n/a	FR1	1	R1066P
1259.979	1.0	935446	REC_WORD_VV	1.0	n/a	<>	-999	8	[0, 0, 0]	n/a	FR1	1	R1066P
1260.979	1.508	935946	REC_WORD_VV	1.508	n/a	<>	-999	8	[0, 0, 0]	n/a	FR1	1	R1066P
1262.487	5.608	936700	REC_END	n/a	n/a	n/a	-999	8	[0, 0, 0]	n/a	FR1	1	R1066P
1268.095	0.0	939504	TRIAL	n/a	n/a	n/a	-999	9	[0, 0, 0]	n/a	FR1	1	R1066P
1268.095	10.428	939504	COUNTDOWN_START	n/a	n/a	n/a	-999	9	[0, 0, 0]	n/a	FR1	1	R1066P
1278.523	0.008	944717	COUNTDOWN_END	n/a	n/a	n/a	-999	9	[0, 0, 0]	n/a	FR1	1	R1066P
1278.531	2.483	944721	ORIENT	n/a	n/a	n/a	-999	9	[0, 0, 0]	n/a	FR1	1	R1066P
1281.014	2.518	945963	WORD	n/a	wordpools/wordpool_EN.txt	LAMP	1	9	[0, 0, 0]	n/a	FR1	1	R1066P
1283.532	2.45	947222	WORD	n/a	wordpools/wordpool_EN.txt	BRIDGE	2	9	[0, 0, 0]	n/a	FR1	1	R1066P
1285.982	2.485	948447	WORD	n/a	wordpools/wordpool_EN.txt	MOLE	3	9	[0, 0, 0]	n/a	FR1	1	R1066P
1288.467	2.532	949689	WORD	n/a	wordpools/wordpool_EN.txt	STAIR	4	9	[0, 0, 0]	n/a	FR1	1	R1066P
1290.999	2.552	950955	WORD	n/a	wordpools/wordpool_EN.txt	CHIEF	5	9	[0, 0, 0]	n/a	FR1	1	R1066P
1293.551	2.516	952231	WORD	n/a	wordpools/wordpool_EN.txt	NET	6	9	[0, 0, 0]	n/a	FR1	1	R1066P
1296.067	2.501	953489	WORD	n/a	wordpools/wordpool_EN.txt	LOCK	7	9	[0, 0, 0]	n/a	FR1	1	R1066P
1298.568	2.616	954739	WORD	n/a	wordpools/wordpool_EN.txt	CART	8	9	[0, 0, 0]	n/a	FR1	1	R1066P
1301.184	2.469	956047	WORD	n/a	wordpools/wordpool_EN.txt	PHONE	9	9	[0, 0, 0]	n/a	FR1	1	R1066P
1303.653	2.516	957282	WORD	n/a	wordpools/wordpool_EN.txt	MAZE	10	9	[0, 0, 0]	n/a	FR1	1	R1066P
1306.169	2.401	958540	WORD	n/a	wordpools/wordpool_EN.txt	FARM	11	9	[0, 0, 0]	n/a	FR1	1	R1066P
1308.57	1.616	959740	WORD	n/a	wordpools/wordpool_EN.txt	WAND	12	9	[0, 0, 0]	n/a	FR1	1	R1066P
1310.186	0.001	960548	DISTRACT_START	n/a	n/a	n/a	-999	9	[0, 0, 0]	n/a	FR1	1	R1066P
1310.187	0.016	960548	START	n/a	n/a	n/a	-999	9	[-999, -999, -999]	n/a	FR1	1	R1066P
1310.203	5.651	960556	PROB	5.651	n/a	n/a	-999	9	[5, 1, 6]	2	FR1	1	R1066P
1315.854	1.768	963382	PROB	1.768	n/a	n/a	-999	9	[1, 1, 9]	11	FR1	1	R1066P
1317.622	3.233	964266	PROB	3.233	n/a	n/a	-999	9	[9, 5, 1]	15	FR1	1	R1066P
1320.855	3.351	965882	PROB	3.351	n/a	n/a	-999	9	[4, 4, 8]	14	FR1	1	R1066P
1324.206	2.967	967558	PROB	2.967	n/a	n/a	-999	9	[7, 6, 3]	15	FR1	1	R1066P
1327.173	3.765	969041	PROB	3.765	n/a	n/a	-999	9	[7, 4, 9]	20	FR1	1	R1066P
1330.938	0.019	970923	STOP	n/a	n/a	n/a	-999	9	[-999, -999, -999]	n/a	FR1	1	R1066P
1330.957	1.101	970933	DISTRACT_END	n/a	n/a	n/a	-999	9	[0, 0, 0]	n/a	FR1	1	R1066P
1332.058	0.851	971483	REC_START	n/a	n/a	n/a	-999	9	[0, 0, 0]	n/a	FR1	1	R1066P
1332.909	0.706	971909	REC_WORD	0.706	n/a	LAMP	1	9	[0, 0, 0]	n/a	FR1	1	R1066P
1333.615	0.592	972262	REC_WORD	0.592	n/a	BRIDGE	2	9	[0, 0, 0]	n/a	FR1	1	R1066P
1334.207	0.59	972558	REC_WORD	0.59	n/a	MOLE	3	9	[0, 0, 0]	n/a	FR1	1	R1066P
1334.797	3.664	972853	REC_WORD	3.664	n/a	MAZE	10	9	[0, 0, 0]	n/a	FR1	1	R1066P
1338.461	1.259	974685	REC_WORD	1.259	n/a	RAT	-999	9	[0, 0, 0]	n/a	FR1	1	R1066P
1339.72	2.505	975314	REC_WORD_VV	2.505	n/a	<>	-999	9	[0, 0, 0]	n/a	FR1	1	R1066P
1342.225	8.218	976567	REC_WORD	8.218	n/a	LAMP	1	9	[0, 0, 0]	n/a	FR1	1	R1066P
1350.443	6.48	980675	REC_WORD	6.48	n/a	BRIDGE	2	9	[0, 0, 0]	n/a	FR1	1	R1066P
1356.923	4.172	983915	REC_WORD	4.172	n/a	CHIEF	5	9	[0, 0, 0]	n/a	FR1	1	R1066P
1361.095	0.973	986001	REC_WORD	0.973	n/a	CAPTAIN	-999	9	[0, 0, 0]	n/a	FR1	1	R1066P
1362.068	3.112	986488	REC_END	n/a	n/a	n/a	-999	9	[0, 0, 0]	n/a	FR1	1	R1066P
1365.18	0.0	988043	TRIAL	n/a	n/a	n/a	-999	10	[0, 0, 0]	n/a	FR1	1	R1066P
1365.18	10.428	988043	COUNTDOWN_START	n/a	n/a	n/a	-999	10	[0, 0, 0]	n/a	FR1	1	R1066P
1375.608	0.008	993257	COUNTDOWN_END	n/a	n/a	n/a	-999	10	[0, 0, 0]	n/a	FR1	1	R1066P
1375.616	2.483	993261	ORIENT	n/a	n/a	n/a	-999	10	[0, 0, 0]	n/a	FR1	1	R1066P
1378.099	2.601	994503	WORD	n/a	wordpools/wordpool_EN.txt	VASE	1	10	[0, 0, 0]	n/a	FR1	1	R1066P
1380.7	2.6	995803	WORD	n/a	wordpools/wordpool_EN.txt	BIRD	2	10	[0, 0, 0]	n/a	FR1	1	R1066P
1383.3	2.4	997103	WORD	n/a	wordpools/wordpool_EN.txt	NEST	3	10	[0, 0, 0]	n/a	FR1	1	R1066P
1385.7	2.534	998303	WORD	n/a	wordpools/wordpool_EN.txt	SHARK	4	10	[0, 0, 0]	n/a	FR1	1	R1066P
1388.234	2.501	999570	WORD	n/a	wordpools/wordpool_EN.txt	HOUSE	5	10	[0, 0, 0]	n/a	FR1	1	R1066P
1390.735	2.467	1000820	WORD	n/a	wordpools/wordpool_EN.txt	DOOR	6	10	[0, 0, 0]	n/a	FR1	1	R1066P
1393.202	2.6	1002054	WORD	n/a	wordpools/wordpool_EN.txt	WING	7	10	[0, 0, 0]	n/a	FR1	1	R1066P
1395.802	2.584	1003354	WORD	n/a	wordpools/wordpool_EN.txt	CAGE	8	10	[0, 0, 0]	n/a	FR1	1	R1066P
1398.386	2.584	1004646	WORD	n/a	wordpools/wordpool_EN.txt	ROPE	9	10	[0, 0, 0]	n/a	FR1	1	R1066P
1400.97	2.45	1005937	WORD	n/a	wordpools/wordpool_EN.txt	SEAL	10	10	[0, 0, 0]	n/a	FR1	1	R1066P
1403.42	2.518	1007162	WORD	n/a	wordpools/wordpool_EN.txt	WEB	11	10	[0, 0, 0]	n/a	FR1	1	R1066P
1405.938	1.601	1008421	WORD	n/a	wordpools/wordpool_EN.txt	SNAKE	12	10	[0, 0, 0]	n/a	FR1	1	R1066P
1407.539	0.001	1009222	DISTRACT_START	n/a	n/a	n/a	-999	10	[0, 0, 0]	n/a	FR1	1	R1066P
1407.54	0.016	1009222	START	n/a	n/a	n/a	-999	10	[-999, -999, -999]	n/a	FR1	1	R1066P
1407.556	3.432	1009230	PROB	3.432	n/a	n/a	-999	10	[5, 3, 7]	15	FR1	1	R1066P
1410.988	4.035	1010946	PROB	4.035	n/a	n/a	-999	10	[8, 5, 7]	20	FR1	1	R1066P
1415.023	3.618	1012964	PROB	3.618	n/a	n/a	-999	10	[6, 6, 3]	15	FR1	1	R1066P
1418.641	6.935	1014773	PROB	6.935	n/a	n/a	-999	10	[7, 8, 7]	21	FR1	1	R1066P
1425.576	2.883	1018240	PROB	2.883	n/a	n/a	-999	10	[1, 5, 1]	7	FR1	1	R1066P
1428.459	0.017	1019681	STOP	n/a	n/a	n/a	-999	10	[-999, -999, -999]	n/a	FR1	1	R1066P
1428.476	1.051	1019690	DISTRACT_END	n/a	n/a	n/a	-999	10	[0, 0, 0]	n/a	FR1	1	R1066P
1429.527	1.449	1020215	REC_START	n/a	n/a	n/a	-999	10	[0, 0, 0]	n/a	FR1	1	R1066P
1430.976	1.0	1020940	REC_WORD_VV	1.0	n/a	<>	-999	10	[0, 0, 0]	n/a	FR1	1	R1066P
1431.976	1.0	1021440	REC_WORD_VV	1.0	n/a	<>	-999	10	[0, 0, 0]	n/a	FR1	1	R1066P
1432.976	0.933	1021940	REC_WORD_VV	0.933	n/a	<>	-999	10	[0, 0, 0]	n/a	FR1	1	R1066P
1433.909	5.093	1022406	REC_WORD_VV	5.093	n/a	<>	-999	10	[0, 0, 0]	n/a	FR1	1	R1066P
1439.002	0.966	1024952	REC_WORD_VV	0.966	n/a	<>	-999	10	[0, 0, 0]	n/a	FR1	1	R1066P
1439.968	16.056	1025435	REC_WORD	16.056	n/a	VASE	1	10	[0, 0, 0]	n/a	FR1	1	R1066P
1456.024	2.407	1033463	REC_WORD_VV	2.407	n/a	<>	-999	10	[0, 0, 0]	n/a	FR1	1	R1066P
1458.431	1.106	1034666	REC_WORD_VV	1.106	n/a	<>	-999	10	[0, 0, 0]	n/a	FR1	1	R1066P
1459.537	5.412	1035219	REC_END	n/a	n/a	n/a	-999	10	[0, 0, 0]	n/a	FR1	1	R1066P
1464.949	0.0	1037925	TRIAL	n/a	n/a	n/a	-999	11	[0, 0, 0]	n/a	FR1	1	R1066P
1464.949	10.428	1037925	COUNTDOWN_START	n/a	n/a	n/a	-999	11	[0, 0, 0]	n/a	FR1	1	R1066P
1475.377	0.007	1043139	COUNTDOWN_END	n/a	n/a	n/a	-999	11	[0, 0, 0]	n/a	FR1	1	R1066P
1475.384	2.5	1043143	ORIENT	n/a	n/a	n/a	-999	11	[0, 0, 0]	n/a	FR1	1	R1066P
1477.884	2.602	1044392	WORD	n/a	wordpools/wordpool_EN.txt	JAR	1	11	[0, 0, 0]	n/a	FR1	1	R1066P
1480.486	2.416	1045693	WORD	n/a	wordpools/wordpool_EN.txt	MILK	2	11	[0, 0, 0]	n/a	FR1	1	R1066P
1482.902	2.5	1046901	WORD	n/a	wordpools/wordpool_EN.txt	STORM	3	11	[0, 0, 0]	n/a	FR1	1	R1066P
1485.402	2.434	1048151	WORD	n/a	wordpools/wordpool_EN.txt	DITCH	4	11	[0, 0, 0]	n/a	FR1	1	R1066P
1487.836	2.567	1049368	WORD	n/a	wordpools/wordpool_EN.txt	FLEA	5	11	[0, 0, 0]	n/a	FR1	1	R1066P
1490.403	2.568	1050652	WORD	n/a	wordpools/wordpool_EN.txt	MOTH	6	11	[0, 0, 0]	n/a	FR1	1	R1066P
1492.971	2.383	1051936	WORD	n/a	wordpools/wordpool_EN.txt	STRAW	7	11	[0, 0, 0]	n/a	FR1	1	R1066P
1495.354	2.484	1053127	WORD	n/a	wordpools/wordpool_EN.txt	SOUP	8	11	[0, 0, 0]	n/a	FR1	1	R1066P
1497.838	2.584	1054369	WORD	n/a	wordpools/wordpool_EN.txt	CHEEK	9	11	[0, 0, 0]	n/a	FR1	1	R1066P
1500.422	2.384	1055661	WORD	n/a	wordpools/wordpool_EN.txt	RAKE	10	11	[0, 0, 0]	n/a	FR1	1	R1066P
1502.806	2.467	1056853	WORD	n/a	wordpools/wordpool_EN.txt	ARK	11	11	[0, 0, 0]	n/a	FR1	1	R1066P
1505.273	1.617	1058086	WORD	n/a	wordpools/wordpool_EN.txt	FRUIT	12	11	[0, 0, 0]	n/a	FR1	1	R1066P
1506.89	0.001	1058895	DISTRACT_START	n/a	n/a	n/a	-999	11	[0, 0, 0]	n/a	FR1	1	R1066P
1506.891	0.016	1058895	START	n/a	n/a	n/a	-999	11	[-999, -999, -999]	n/a	FR1	1	R1066P
1506.907	2.85	1058903	PROB	2.85	n/a	n/a	-999	11	[2, 2, 2]	6	FR1	1	R1066P
1509.757	2.902	1060328	PROB	2.902	n/a	n/a	-999	11	[4, 7, 7]	18	FR1	1	R1066P
1512.659	2.582	1061779	PROB	2.582	n/a	n/a	-999	11	[2, 8, 3]	13	FR1	1	R1066P
1515.241	2.484	1063070	PROB	2.484	n/a	n/a	-999	11	[4, 1, 1]	6	FR1	1	R1066P
1517.725	2.967	1064312	PROB	2.967	n/a	n/a	-999	11	[5, 5, 1]	11	FR1	1	R1066P
1520.692	4.618	1065795	PROB	4.618	n/a	n/a	-999	11	[2, 4, 8]	14	FR1	1	R1066P
1525.31	2.309	1068104	PROB	2.309	n/a	n/a	-999	11	[9, 1, 6]	16	FR1	1	R1066P
1527.619	0.009	1069259	STOP	n/a	n/a	n/a	-999	11	[-999, -999, -999]	n/a	FR1	1	R1066P
1527.628	1.034	1069263	DISTRACT_END	n/a	n/a	n/a	-999	11	[0, 0, 0]	n/a	FR1	1	R1066P
1528.662	1.294	1069780	REC_START	n/a	n/a	n/a	-999	11	[0, 0, 0]	n/a	FR1	1	R1066P
1529.956	0.5	1070427	REC_WORD_VV	0.5	n/a	<>	-999	11	[0, 0, 0]	n/a	FR1	1	R1066P
1530.456	0.886	1070677	REC_WORD	0.886	n/a	JAR	1	11	[0, 0, 0]	n/a	FR1	1	R1066P
1531.342	27.335	1071120	REC_WORD	27.335	n/a	MILK	2	11	[0, 0, 0]	n/a	FR1	1	R1066P
1558.677	35.512	1084787	REC_END	n/a	n/a	n/a	-999	11	[0, 0, 0]	n/a	FR1	1	R1066P
1594.189	0.001	1102542	COUNTDOWN_START	n/a	n/a	n/a	-999	12	[0, 0, 0]	n/a	FR1	1	R1066P
1594.19	0.0	1102542	TRIAL	n/a	n/a	n/a	-999	12	[0, 0, 0]	n/a	FR1	1	R1066P
