onset	duration	sample	trial_type	response_time	stim_file	item_name	serialpos	list	test	answer	experiment	session	subject
0.0	517.362	630	INSTRUCT_START	n/a	n/a	n/a	-999	-999	[0, 0, 0]	n/a	FR1	0	R1345D
517.362	13.103	517964	INSTRUCT_END	n/a	n/a	n/a	-999	-999	[0, 0, 0]	n/a	FR1	0	R1345D
530.465	7.423	531066	MIC TEST_START	n/a	n/a	n/a	-999	-999	[0, 0, 0]	n/a	FR1	0	R1345D
537.888	0.009	538489	MIC TEST_END	n/a	n/a	n/a	-999	-999	[0, 0, 0]	n/a	FR1	0	R1345D
537.897	0.0	538498	TRIAL_START	n/a	n/a	n/a	-999	-1	[0, 0, 0]	n/a	FR1	0	R1345D
537.897	0.0	538498	TRIAL	n/a	n/a	n/a	-999	-1	[0, 0, 0]	n/a	FR1	0	R1345D
537.897	1.07	538498	WAITING_START	n/a	n/a	n/a	-999	-1	[0, 0, 0]	n/a	FR1	0	R1345D
538.967	0.0	539568	WAITING_END	n/a	n/a	n/a	-999	-1	[0, 0, 0]	n/a	FR1	0	R1345D
538.967	10.43	539568	COUNTDOWN_START	n/a	n/a	n/a	-999	-1	[0, 0, 0]	n/a	FR1	0	R1345D
549.397	0.0	549997	COUNTDOWN_END	n/a	n/a	n/a	-999	-1	[0, 0, 0]	n/a	FR1	0	R1345D
549.397	1.189	549997	ORIENT_START	n/a	n/a	n/a	-999	-1	[0, 0, 0]	n/a	FR1	0	R1345D
550.586	0.0	551186	ENCODING_START	n/a	n/a	n/a	-999	-1	[0, 0, 0]	n/a	FR1	0	R1345D
550.586	1.065	551186	ORIENT_END	n/a	n/a	n/a	-999	-1	[0, 0, 0]	n/a	FR1	0	R1345D
551.651	1.634	552251	WORD	n/a	n/a	COTTON	1	-1	[0, 0, 0]	n/a	FR1	0	R1345D
553.285	1.133	553885	WORD_OFF	n/a	n/a	COTTON	1	-1	[0, 0, 0]	n/a	FR1	0	R1345D
554.418	1.634	555018	WORD	n/a	n/a	CHEST	2	-1	[0, 0, 0]	n/a	FR1	0	R1345D
556.052	1.018	556652	WORD_OFF	n/a	n/a	CHEST	2	-1	[0, 0, 0]	n/a	FR1	0	R1345D
557.07	1.634	557670	WORD	n/a	n/a	RHINO	3	-1	[0, 0, 0]	n/a	FR1	0	R1345D
558.704	1.089	559304	WORD_OFF	n/a	n/a	RHINO	3	-1	[0, 0, 0]	n/a	FR1	0	R1345D
559.793	1.627	560393	WORD	n/a	n/a	RING	4	-1	[0, 0, 0]	n/a	FR1	0	R1345D
561.42	1.144	562020	WORD_OFF	n/a	n/a	RING	4	-1	[0, 0, 0]	n/a	FR1	0	R1345D
562.564	1.623	563163	WORD	n/a	n/a	WATCH	5	-1	[0, 0, 0]	n/a	FR1	0	R1345D
564.187	0.943	564786	WORD_OFF	n/a	n/a	WATCH	5	-1	[0, 0, 0]	n/a	FR1	0	R1345D
565.13	1.608	565729	WORD	n/a	n/a	BABY	6	-1	[0, 0, 0]	n/a	FR1	0	R1345D
566.738	0.961	567337	WORD_OFF	n/a	n/a	BABY	6	-1	[0, 0, 0]	n/a	FR1	0	R1345D
567.699	1.622	568298	WORD	n/a	n/a	IMAGE	7	-1	[0, 0, 0]	n/a	FR1	0	R1345D
569.321	0.872	569920	WORD_OFF	n/a	n/a	IMAGE	7	-1	[0, 0, 0]	n/a	FR1	0	R1345D
570.193	1.63	570792	WORD	n/a	n/a	TONGUE	8	-1	[0, 0, 0]	n/a	FR1	0	R1345D
571.823	0.982	572422	WORD_OFF	n/a	n/a	TONGUE	8	-1	[0, 0, 0]	n/a	FR1	0	R1345D
572.805	1.634	573404	WORD	n/a	n/a	BEAM	9	-1	[0, 0, 0]	n/a	FR1	0	R1345D
574.439	1.136	575038	WORD_OFF	n/a	n/a	BEAM	9	-1	[0, 0, 0]	n/a	FR1	0	R1345D
575.575	1.631	576174	WORD	n/a	n/a	WAGON	10	-1	[0, 0, 0]	n/a	FR1	0	R1345D
577.206	0.908	577805	WORD_OFF	n/a	n/a	WAGON	10	-1	[0, 0, 0]	n/a	FR1	0	R1345D
578.114	1.627	578713	WORD	n/a	n/a	CAMEL	11	-1	[0, 0, 0]	n/a	FR1	0	R1345D
579.741	1.148	580340	WORD_OFF	n/a	n/a	CAMEL	11	-1	[0, 0, 0]	n/a	FR1	0	R1345D
580.889	1.636	581487	WORD	n/a	n/a	FLOOD	12	-1	[0, 0, 0]	n/a	FR1	0	R1345D
582.525	0.0	583123	ENCODING_END	n/a	n/a	n/a	-999	-1	[0, 0, 0]	n/a	FR1	0	R1345D
582.525	0.0	583123	DISTRACT_START	n/a	n/a	n/a	-999	-1	[0, 0, 0]	n/a	FR1	0	R1345D
582.525	0.001	583123	WORD_OFF	n/a	n/a	FLOOD	12	-1	[0, 0, 0]	n/a	FR1	0	R1345D
582.526	0.015	583124	START	n/a	n/a	n/a	-999	-1	[-999, -999, -999]	n/a	FR1	0	R1345D
582.541	14.37	583139	PROB	14.37	n/a	n/a	-999	-1	[2, 2, 8]	12	FR1	0	R1345D
596.911	9.032	597509	PROB	9.032	n/a	n/a	-999	-1	[5, 6, 3]	14	FR1	0	R1345D
605.943	0.019	606540	STOP	n/a	n/a	n/a	-999	-1	[-999, -999, -999]	n/a	FR1	0	R1345D
605.962	0.573	606559	DISTRACT_END	n/a	n/a	n/a	-999	-1	[0, 0, 0]	n/a	FR1	0	R1345D
606.535	1.594	607132	RETRIEVAL_ORIENT_START	n/a	n/a	n/a	-999	-1	[0, 0, 0]	n/a	FR1	0	R1345D
608.129	0.0	608726	RETRIEVAL_ORIENT_END	n/a	n/a	n/a	-999	-1	[0, 0, 0]	n/a	FR1	0	R1345D
608.129	0.0	608726	REC_START	n/a	n/a	n/a	-999	-1	[0, 0, 0]	n/a	FR1	0	R1345D
608.129	30.012	608726	REC_WORD_VV	30.012	n/a	<>	-999	-1	[0, 0, 0]	n/a	FR1	0	R1345D
638.141	0.0	638736	REC_END	n/a	n/a	n/a	-999	-1	[0, 0, 0]	n/a	FR1	0	R1345D
638.141	21.131	638736	PRACTICE_POST_INSTRUCT_START	n/a	n/a	n/a	-999	-1	[0, 0, 0]	n/a	FR1	0	R1345D
659.272	0.0	659866	PRACTICE_POST_INSTRUCT_END	n/a	n/a	n/a	-999	-1	[0, 0, 0]	n/a	FR1	0	R1345D
659.272	0.018	659866	TRIAL_END	n/a	n/a	n/a	-999	-1	[0, 0, 0]	n/a	FR1	0	R1345D
659.29	0.0	659884	WAITING_START	n/a	n/a	n/a	-999	1	[0, 0, 0]	n/a	FR1	0	R1345D
659.29	0.0	659884	TRIAL_START	n/a	n/a	n/a	-999	1	[0, 0, 0]	n/a	FR1	0	R1345D
659.29	8.016	659884	TRIAL	n/a	n/a	n/a	-999	1	[0, 0, 0]	n/a	FR1	0	R1345D
667.306	0.001	667900	WAITING_END	n/a	n/a	n/a	-999	1	[0, 0, 0]	n/a	FR1	0	R1345D
667.307	10.429	667901	COUNTDOWN_START	n/a	n/a	n/a	-999	1	[0, 0, 0]	n/a	FR1	0	R1345D
677.736	0.0	678329	COUNTDOWN_END	n/a	n/a	n/a	-999	1	[0, 0, 0]	n/a	FR1	0	R1345D
677.736	1.157	678329	ORIENT_START	n/a	n/a	n/a	-999	1	[0, 0, 0]	n/a	FR1	0	R1345D
678.893	0.0	679486	ORIENT_END	n/a	n/a	n/a	-999	1	[0, 0, 0]	n/a	FR1	0	R1345D
678.893	1.016	679486	ENCODING_START	n/a	n/a	n/a	-999	1	[0, 0, 0]	n/a	FR1	0	R1345D
679.909	1.634	680502	WORD	n/a	wordpools/wordpool_EN.txt	HORSE	1	1	[0, 0, 0]	n/a	FR1	0	R1345D
681.543	1.046	682136	WORD_OFF	n/a	n/a	HORSE	1	1	[0, 0, 0]	n/a	FR1	0	R1345D
682.589	1.62	683182	WORD	n/a	wordpools/wordpool_EN.txt	SEA	2	1	[0, 0, 0]	n/a	FR1	0	R1345D
684.209	1.048	684802	WORD_OFF	n/a	n/a	SEA	2	1	[0, 0, 0]	n/a	FR1	0	R1345D
685.257	1.637	685850	WORD	n/a	wordpools/wordpool_EN.txt	COUCH	3	1	[0, 0, 0]	n/a	FR1	0	R1345D
686.894	0.907	687487	WORD_OFF	n/a	n/a	COUCH	3	1	[0, 0, 0]	n/a	FR1	0	R1345D
687.801	1.626	688394	WORD	n/a	wordpools/wordpool_EN.txt	COIN	4	1	[0, 0, 0]	n/a	FR1	0	R1345D
689.427	1.045	690020	WORD_OFF	n/a	n/a	COIN	4	1	[0, 0, 0]	n/a	FR1	0	R1345D
690.472	1.622	691065	WORD	n/a	wordpools/wordpool_EN.txt	GLOVE	5	1	[0, 0, 0]	n/a	FR1	0	R1345D
692.094	1.067	692686	WORD_OFF	n/a	n/a	GLOVE	5	1	[0, 0, 0]	n/a	FR1	0	R1345D
693.161	1.618	693753	WORD	n/a	wordpools/wordpool_EN.txt	BOWL	6	1	[0, 0, 0]	n/a	FR1	0	R1345D
694.779	1.074	695371	WORD_OFF	n/a	n/a	BOWL	6	1	[0, 0, 0]	n/a	FR1	0	R1345D
695.853	1.625	696445	WORD	n/a	wordpools/wordpool_EN.txt	SKY	7	1	[0, 0, 0]	n/a	FR1	0	R1345D
697.478	0.951	698070	WORD_OFF	n/a	n/a	SKY	7	1	[0, 0, 0]	n/a	FR1	0	R1345D
698.429	1.633	699021	WORD	n/a	wordpools/wordpool_EN.txt	NEST	8	1	[0, 0, 0]	n/a	FR1	0	R1345D
700.062	1.115	700654	WORD_OFF	n/a	n/a	NEST	8	1	[0, 0, 0]	n/a	FR1	0	R1345D
701.177	1.637	701769	WORD	n/a	wordpools/wordpool_EN.txt	SPEAR	9	1	[0, 0, 0]	n/a	FR1	0	R1345D
702.814	0.917	703406	WORD_OFF	n/a	n/a	SPEAR	9	1	[0, 0, 0]	n/a	FR1	0	R1345D
703.731	1.632	704323	WORD	n/a	wordpools/wordpool_EN.txt	TANK	10	1	[0, 0, 0]	n/a	FR1	0	R1345D
705.363	0.851	705955	WORD_OFF	n/a	n/a	TANK	10	1	[0, 0, 0]	n/a	FR1	0	R1345D
706.214	1.634	706806	WORD	n/a	wordpools/wordpool_EN.txt	FENCE	11	1	[0, 0, 0]	n/a	FR1	0	R1345D
707.848	0.962	708440	WORD_OFF	n/a	n/a	FENCE	11	1	[0, 0, 0]	n/a	FR1	0	R1345D
708.81	1.621	709402	WORD	n/a	wordpools/wordpool_EN.txt	PLANE	12	1	[0, 0, 0]	n/a	FR1	0	R1345D
710.431	0.0	711023	WORD_OFF	n/a	n/a	PLANE	12	1	[0, 0, 0]	n/a	FR1	0	R1345D
710.431	0.0	711023	ENCODING_END	n/a	n/a	n/a	-999	1	[0, 0, 0]	n/a	FR1	0	R1345D
710.431	0.001	711023	DISTRACT_START	n/a	n/a	n/a	-999	1	[0, 0, 0]	n/a	FR1	0	R1345D
710.432	0.015	711024	START	n/a	n/a	n/a	-999	1	[-999, -999, -999]	n/a	FR1	0	R1345D
710.447	12.303	711039	PROB	12.303	n/a	n/a	-999	1	[6, 9, 5]	19	FR1	0	R1345D
722.75	9.51	723341	PROB	9.51	n/a	n/a	-999	1	[8, 3, 6]	17	FR1	0	R1345D
732.26	0.008	732850	STOP	n/a	n/a	n/a	-999	1	[-999, -999, -999]	n/a	FR1	0	R1345D
732.268	0.698	732858	DISTRACT_END	n/a	n/a	n/a	-999	1	[0, 0, 0]	n/a	FR1	0	R1345D
732.966	1.62	733556	RETRIEVAL_ORIENT_START	n/a	n/a	n/a	-999	1	[0, 0, 0]	n/a	FR1	0	R1345D
734.586	0.0	735176	RETRIEVAL_ORIENT_END	n/a	n/a	n/a	-999	1	[0, 0, 0]	n/a	FR1	0	R1345D
734.586	5.693	735176	REC_START	n/a	n/a	n/a	-999	1	[0, 0, 0]	n/a	FR1	0	R1345D
740.279	0.698	740869	REC_WORD	0.698	n/a	HORSE	1	1	[0, 0, 0]	n/a	FR1	0	R1345D
740.977	2.335	741567	REC_WORD	2.335	n/a	SEA	2	1	[0, 0, 0]	n/a	FR1	0	R1345D
743.312	4.312	743902	REC_WORD_VV	4.312	n/a	<>	-999	1	[0, 0, 0]	n/a	FR1	0	R1345D
747.624	15.054	748214	REC_WORD	15.054	n/a	COUCH	3	1	[0, 0, 0]	n/a	FR1	0	R1345D
762.678	0.62	763267	REC_WORD	0.62	n/a	COUCH	3	1	[0, 0, 0]	n/a	FR1	0	R1345D
763.298	1.303	763887	REC_WORD	1.303	n/a	SEA	2	1	[0, 0, 0]	n/a	FR1	0	R1345D
764.601	0.0	765190	REC_END	n/a	n/a	n/a	-999	1	[0, 0, 0]	n/a	FR1	0	R1345D
764.601	0.014	765190	TRIAL_END	n/a	n/a	n/a	-999	1	[0, 0, 0]	n/a	FR1	0	R1345D
764.615	0.001	765204	TRIAL_START	n/a	n/a	n/a	-999	2	[0, 0, 0]	n/a	FR1	0	R1345D
764.616	0.0	765205	TRIAL	n/a	n/a	n/a	-999	2	[0, 0, 0]	n/a	FR1	0	R1345D
764.616	6.01	765205	WAITING_START	n/a	n/a	n/a	-999	2	[0, 0, 0]	n/a	FR1	0	R1345D
770.626	0.0	771214	WAITING_END	n/a	n/a	n/a	-999	2	[0, 0, 0]	n/a	FR1	0	R1345D
770.626	10.43	771214	COUNTDOWN_START	n/a	n/a	n/a	-999	2	[0, 0, 0]	n/a	FR1	0	R1345D
781.056	0.001	781644	COUNTDOWN_END	n/a	n/a	n/a	-999	2	[0, 0, 0]	n/a	FR1	0	R1345D
781.057	1.02	781645	ORIENT_START	n/a	n/a	n/a	-999	2	[0, 0, 0]	n/a	FR1	0	R1345D
782.077	0.0	782665	ORIENT_END	n/a	n/a	n/a	-999	2	[0, 0, 0]	n/a	FR1	0	R1345D
782.077	1.051	782665	ENCODING_START	n/a	n/a	n/a	-999	2	[0, 0, 0]	n/a	FR1	0	R1345D
783.128	1.634	783716	WORD	n/a	wordpools/wordpool_EN.txt	VASE	1	2	[0, 0, 0]	n/a	FR1	0	R1345D
784.762	1.141	785350	WORD_OFF	n/a	n/a	VASE	1	2	[0, 0, 0]	n/a	FR1	0	R1345D
785.903	1.626	786490	WORD	n/a	wordpools/wordpool_EN.txt	SUN	2	2	[0, 0, 0]	n/a	FR1	0	R1345D
787.529	1.028	788116	WORD_OFF	n/a	n/a	SUN	2	2	[0, 0, 0]	n/a	FR1	0	R1345D
788.557	1.622	789144	WORD	n/a	wordpools/wordpool_EN.txt	COW	3	2	[0, 0, 0]	n/a	FR1	0	R1345D
790.179	1.117	790766	WORD_OFF	n/a	n/a	COW	3	2	[0, 0, 0]	n/a	FR1	0	R1345D
791.296	1.617	791883	WORD	n/a	wordpools/wordpool_EN.txt	BIRD	4	2	[0, 0, 0]	n/a	FR1	0	R1345D
792.913	0.928	793500	WORD_OFF	n/a	n/a	BIRD	4	2	[0, 0, 0]	n/a	FR1	0	R1345D
793.841	1.622	794428	WORD	n/a	wordpools/wordpool_EN.txt	CORN	5	2	[0, 0, 0]	n/a	FR1	0	R1345D
795.463	1.025	796050	WORD_OFF	n/a	n/a	CORN	5	2	[0, 0, 0]	n/a	FR1	0	R1345D
796.488	1.625	797075	WORD	n/a	wordpools/wordpool_EN.txt	NAIL	6	2	[0, 0, 0]	n/a	FR1	0	R1345D
798.113	0.753	798700	WORD_OFF	n/a	n/a	NAIL	6	2	[0, 0, 0]	n/a	FR1	0	R1345D
798.866	1.632	799453	WORD	n/a	wordpools/wordpool_EN.txt	POOL	7	2	[0, 0, 0]	n/a	FR1	0	R1345D
800.498	1.056	801085	WORD_OFF	n/a	n/a	POOL	7	2	[0, 0, 0]	n/a	FR1	0	R1345D
801.554	1.627	802141	WORD	n/a	wordpools/wordpool_EN.txt	SCHOOL	8	2	[0, 0, 0]	n/a	FR1	0	R1345D
803.181	0.86	803768	WORD_OFF	n/a	n/a	SCHOOL	8	2	[0, 0, 0]	n/a	FR1	0	R1345D
804.041	1.608	804627	WORD	n/a	wordpools/wordpool_EN.txt	TENT	9	2	[0, 0, 0]	n/a	FR1	0	R1345D
805.649	1.07	806235	WORD_OFF	n/a	n/a	TENT	9	2	[0, 0, 0]	n/a	FR1	0	R1345D
806.719	1.629	807305	WORD	n/a	wordpools/wordpool_EN.txt	VINE	10	2	[0, 0, 0]	n/a	FR1	0	R1345D
808.348	1.148	808934	WORD_OFF	n/a	n/a	VINE	10	2	[0, 0, 0]	n/a	FR1	0	R1345D
809.496	1.636	810082	WORD	n/a	wordpools/wordpool_EN.txt	LAND	11	2	[0, 0, 0]	n/a	FR1	0	R1345D
811.132	0.794	811718	WORD_OFF	n/a	n/a	LAND	11	2	[0, 0, 0]	n/a	FR1	0	R1345D
811.926	1.624	812512	WORD	n/a	wordpools/wordpool_EN.txt	BOARD	12	2	[0, 0, 0]	n/a	FR1	0	R1345D
813.55	0.001	814136	WORD_OFF	n/a	n/a	BOARD	12	2	[0, 0, 0]	n/a	FR1	0	R1345D
813.551	0.0	814137	ENCODING_END	n/a	n/a	n/a	-999	2	[0, 0, 0]	n/a	FR1	0	R1345D
813.551	0.0	814137	DISTRACT_START	n/a	n/a	n/a	-999	2	[0, 0, 0]	n/a	FR1	0	R1345D
813.551	0.016	814137	START	n/a	n/a	n/a	-999	2	[-999, -999, -999]	n/a	FR1	0	R1345D
813.567	10.235	814153	PROB	10.235	n/a	n/a	-999	2	[6, 5, 5]	16	FR1	0	R1345D
823.802	27.746	824387	PROB	27.746	n/a	n/a	-999	2	[5, 9, 2]	16	FR1	0	R1345D
851.548	0.009	852132	STOP	n/a	n/a	n/a	-999	2	[-999, -999, -999]	n/a	FR1	0	R1345D
851.557	0.599	852141	DISTRACT_END	n/a	n/a	n/a	-999	2	[0, 0, 0]	n/a	FR1	0	R1345D
852.156	1.702	852740	RETRIEVAL_ORIENT_START	n/a	n/a	n/a	-999	2	[0, 0, 0]	n/a	FR1	0	R1345D
853.858	0.0	854442	RETRIEVAL_ORIENT_END	n/a	n/a	n/a	-999	2	[0, 0, 0]	n/a	FR1	0	R1345D
853.858	6.395	854442	REC_START	n/a	n/a	n/a	-999	2	[0, 0, 0]	n/a	FR1	0	R1345D
860.253	3.86	860836	REC_WORD	3.86	n/a	TENT	9	2	[0, 0, 0]	n/a	FR1	0	R1345D
864.113	2.438	864696	REC_WORD_VV	2.438	n/a	<>	-999	2	[0, 0, 0]	n/a	FR1	0	R1345D
866.551	5.938	867134	REC_WORD	5.938	n/a	BABY	-999	2	[0, 0, 0]	n/a	FR1	0	R1345D
872.489	4.542	873072	REC_WORD	4.542	n/a	VASE	1	2	[0, 0, 0]	n/a	FR1	0	R1345D
877.031	6.841	877614	REC_WORD	6.841	n/a	COUCH	-999	2	[0, 0, 0]	n/a	FR1	0	R1345D
883.872	0.0	884454	REC_END	n/a	n/a	n/a	-999	2	[0, 0, 0]	n/a	FR1	0	R1345D
883.872	0.014	884454	TRIAL_END	n/a	n/a	n/a	-999	2	[0, 0, 0]	n/a	FR1	0	R1345D
883.886	0.0	884468	TRIAL_START	n/a	n/a	n/a	-999	3	[0, 0, 0]	n/a	FR1	0	R1345D
883.886	0.0	884468	TRIAL	n/a	n/a	n/a	-999	3	[0, 0, 0]	n/a	FR1	0	R1345D
883.886	8.528	884468	WAITING_START	n/a	n/a	n/a	-999	3	[0, 0, 0]	n/a	FR1	0	R1345D
892.414	0.0	892996	COUNTDOWN_START	n/a	n/a	n/a	-999	3	[0, 0, 0]	n/a	FR1	0	R1345D
892.414	10.429	892996	WAITING_END	n/a	n/a	n/a	-999	3	[0, 0, 0]	n/a	FR1	0	R1345D
902.843	0.0	903424	COUNTDOWN_END	n/a	n/a	n/a	-999	3	[0, 0, 0]	n/a	FR1	0	R1345D
902.843	1.091	903424	ORIENT_START	n/a	n/a	n/a	-999	3	[0, 0, 0]	n/a	FR1	0	R1345D
903.934	0.0	904515	ORIENT_END	n/a	n/a	n/a	-999	3	[0, 0, 0]	n/a	FR1	0	R1345D
903.934	0.778	904515	ENCODING_START	n/a	n/a	n/a	-999	3	[0, 0, 0]	n/a	FR1	0	R1345D
904.712	1.638	905293	WORD	n/a	wordpools/wordpool_EN.txt	ROCK	1	3	[0, 0, 0]	n/a	FR1	0	R1345D
906.35	1.06	906931	WORD_OFF	n/a	n/a	ROCK	1	3	[0, 0, 0]	n/a	FR1	0	R1345D
907.41	1.608	907991	WORD	n/a	wordpools/wordpool_EN.txt	GEESE	2	3	[0, 0, 0]	n/a	FR1	0	R1345D
909.018	0.878	909599	WORD_OFF	n/a	n/a	GEESE	2	3	[0, 0, 0]	n/a	FR1	0	R1345D
909.896	1.622	910477	WORD	n/a	wordpools/wordpool_EN.txt	SHELL	3	3	[0, 0, 0]	n/a	FR1	0	R1345D
911.518	0.954	912099	WORD_OFF	n/a	n/a	SHELL	3	3	[0, 0, 0]	n/a	FR1	0	R1345D
912.472	1.629	913053	WORD	n/a	wordpools/wordpool_EN.txt	GRASS	4	3	[0, 0, 0]	n/a	FR1	0	R1345D
914.101	0.863	914682	WORD_OFF	n/a	n/a	GRASS	4	3	[0, 0, 0]	n/a	FR1	0	R1345D
914.964	1.622	915545	WORD	n/a	wordpools/wordpool_EN.txt	PIN	5	3	[0, 0, 0]	n/a	FR1	0	R1345D
916.586	0.942	917166	WORD_OFF	n/a	n/a	PIN	5	3	[0, 0, 0]	n/a	FR1	0	R1345D
917.528	1.624	918108	WORD	n/a	wordpools/wordpool_EN.txt	CAGE	6	3	[0, 0, 0]	n/a	FR1	0	R1345D
919.152	1.048	919732	WORD_OFF	n/a	n/a	CAGE	6	3	[0, 0, 0]	n/a	FR1	0	R1345D
920.2	1.637	920780	WORD	n/a	wordpools/wordpool_EN.txt	CAR	7	3	[0, 0, 0]	n/a	FR1	0	R1345D
921.837	1.059	922417	WORD_OFF	n/a	n/a	CAR	7	3	[0, 0, 0]	n/a	FR1	0	R1345D
922.896	1.608	923476	WORD	n/a	wordpools/wordpool_EN.txt	ROOT	8	3	[0, 0, 0]	n/a	FR1	0	R1345D
924.504	1.038	925084	WORD_OFF	n/a	n/a	ROOT	8	3	[0, 0, 0]	n/a	FR1	0	R1345D
925.542	1.628	926122	WORD	n/a	wordpools/wordpool_EN.txt	WORLD	9	3	[0, 0, 0]	n/a	FR1	0	R1345D
927.17	1.065	927750	WORD_OFF	n/a	n/a	WORLD	9	3	[0, 0, 0]	n/a	FR1	0	R1345D
928.235	1.62	928815	WORD	n/a	wordpools/wordpool_EN.txt	OAR	10	3	[0, 0, 0]	n/a	FR1	0	R1345D
929.855	0.837	930435	WORD_OFF	n/a	n/a	OAR	10	3	[0, 0, 0]	n/a	FR1	0	R1345D
930.692	1.629	931272	WORD	n/a	wordpools/wordpool_EN.txt	BANK	11	3	[0, 0, 0]	n/a	FR1	0	R1345D
932.321	0.824	932901	WORD_OFF	n/a	n/a	BANK	11	3	[0, 0, 0]	n/a	FR1	0	R1345D
933.145	1.611	933725	WORD	n/a	wordpools/wordpool_EN.txt	PLANT	12	3	[0, 0, 0]	n/a	FR1	0	R1345D
934.756	0.0	935335	WORD_OFF	n/a	n/a	PLANT	12	3	[0, 0, 0]	n/a	FR1	0	R1345D
934.756	0.0	935335	ENCODING_END	n/a	n/a	n/a	-999	3	[0, 0, 0]	n/a	FR1	0	R1345D
934.756	0.001	935335	DISTRACT_START	n/a	n/a	n/a	-999	3	[0, 0, 0]	n/a	FR1	0	R1345D
934.757	0.015	935336	START	n/a	n/a	n/a	-999	3	[-999, -999, -999]	n/a	FR1	0	R1345D
934.772	8.002	935351	PROB	8.002	n/a	n/a	-999	3	[8, 3, 8]	19	FR1	0	R1345D
942.774	6.65	943353	PROB	6.65	n/a	n/a	-999	3	[1, 2, 1]	4	FR1	0	R1345D
949.424	6.504	950003	PROB	6.504	n/a	n/a	-999	3	[1, 2, 7]	10	FR1	0	R1345D
955.928	0.015	956506	STOP	n/a	n/a	n/a	-999	3	[-999, -999, -999]	n/a	FR1	0	R1345D
955.943	0.609	956521	DISTRACT_END	n/a	n/a	n/a	-999	3	[0, 0, 0]	n/a	FR1	0	R1345D
956.552	1.557	957130	RETRIEVAL_ORIENT_START	n/a	n/a	n/a	-999	3	[0, 0, 0]	n/a	FR1	0	R1345D
958.109	0.0	958687	RETRIEVAL_ORIENT_END	n/a	n/a	n/a	-999	3	[0, 0, 0]	n/a	FR1	0	R1345D
958.109	1.943	958687	REC_START	n/a	n/a	n/a	-999	3	[0, 0, 0]	n/a	FR1	0	R1345D
960.052	2.055	960630	REC_WORD	2.055	n/a	BOY	-999	3	[0, 0, 0]	n/a	FR1	0	R1345D
962.107	2.373	962685	REC_WORD_VV	2.373	n/a	<>	-999	3	[0, 0, 0]	n/a	FR1	0	R1345D
964.48	6.835	965058	REC_WORD	6.835	n/a	GRASS	4	3	[0, 0, 0]	n/a	FR1	0	R1345D
971.315	12.794	971892	REC_WORD	12.794	n/a	OAR	10	3	[0, 0, 0]	n/a	FR1	0	R1345D
984.109	0.433	984686	REC_WORD	0.433	n/a	GRASS	4	3	[0, 0, 0]	n/a	FR1	0	R1345D
984.542	3.581	985119	REC_WORD	3.581	n/a	OAR	10	3	[0, 0, 0]	n/a	FR1	0	R1345D
988.123	0.0	988700	REC_END	n/a	n/a	n/a	-999	3	[0, 0, 0]	n/a	FR1	0	R1345D
988.123	0.017	988700	TRIAL_END	n/a	n/a	n/a	-999	3	[0, 0, 0]	n/a	FR1	0	R1345D
988.14	0.0	988717	TRIAL_START	n/a	n/a	n/a	-999	4	[0, 0, 0]	n/a	FR1	0	R1345D
988.14	0.0	988717	TRIAL	n/a	n/a	n/a	-999	4	[0, 0, 0]	n/a	FR1	0	R1345D
988.14	18.328	988717	WAITING_START	n/a	n/a	n/a	-999	4	[0, 0, 0]	n/a	FR1	0	R1345D
1006.468	0.0	1007044	WAITING_END	n/a	n/a	n/a	-999	4	[0, 0, 0]	n/a	FR1	0	R1345D
1006.468	10.429	1007044	COUNTDOWN_START	n/a	n/a	n/a	-999	4	[0, 0, 0]	n/a	FR1	0	R1345D
1016.897	0.001	1017472	COUNTDOWN_END	n/a	n/a	n/a	-999	4	[0, 0, 0]	n/a	FR1	0	R1345D
1016.898	1.172	1017473	ORIENT_START	n/a	n/a	n/a	-999	4	[0, 0, 0]	n/a	FR1	0	R1345D
1018.07	0.001	1018645	ORIENT_END	n/a	n/a	n/a	-999	4	[0, 0, 0]	n/a	FR1	0	R1345D
1018.071	0.79	1018646	ENCODING_START	n/a	n/a	n/a	-999	4	[0, 0, 0]	n/a	FR1	0	R1345D
1018.861	1.626	1019436	WORD	n/a	wordpools/wordpool_EN.txt	CLIFF	1	4	[0, 0, 0]	n/a	FR1	0	R1345D
1020.487	0.921	1021062	WORD_OFF	n/a	n/a	CLIFF	1	4	[0, 0, 0]	n/a	FR1	0	R1345D
1021.408	1.614	1021983	WORD	n/a	wordpools/wordpool_EN.txt	CHALK	2	4	[0, 0, 0]	n/a	FR1	0	R1345D
1023.022	0.935	1023597	WORD_OFF	n/a	n/a	CHALK	2	4	[0, 0, 0]	n/a	FR1	0	R1345D
1023.957	1.632	1024532	WORD	n/a	wordpools/wordpool_EN.txt	SHIELD	3	4	[0, 0, 0]	n/a	FR1	0	R1345D
1025.589	0.932	1026164	WORD_OFF	n/a	n/a	SHIELD	3	4	[0, 0, 0]	n/a	FR1	0	R1345D
1026.521	1.634	1027096	WORD	n/a	wordpools/wordpool_EN.txt	FACE	4	4	[0, 0, 0]	n/a	FR1	0	R1345D
1028.155	0.818	1028729	WORD_OFF	n/a	n/a	FACE	4	4	[0, 0, 0]	n/a	FR1	0	R1345D
1028.973	1.634	1029547	WORD	n/a	wordpools/wordpool_EN.txt	PRINCE	5	4	[0, 0, 0]	n/a	FR1	0	R1345D
1030.607	1.073	1031181	WORD_OFF	n/a	n/a	PRINCE	5	4	[0, 0, 0]	n/a	FR1	0	R1345D
1031.68	1.626	1032254	WORD	n/a	wordpools/wordpool_EN.txt	PEAR	6	4	[0, 0, 0]	n/a	FR1	0	R1345D
1033.306	0.791	1033880	WORD_OFF	n/a	n/a	PEAR	6	4	[0, 0, 0]	n/a	FR1	0	R1345D
1034.097	1.61	1034671	WORD	n/a	wordpools/wordpool_EN.txt	SHEET	7	4	[0, 0, 0]	n/a	FR1	0	R1345D
1035.707	0.873	1036281	WORD_OFF	n/a	n/a	SHEET	7	4	[0, 0, 0]	n/a	FR1	0	R1345D
1036.58	1.627	1037154	WORD	n/a	wordpools/wordpool_EN.txt	NOSE	8	4	[0, 0, 0]	n/a	FR1	0	R1345D
1038.207	1.077	1038781	WORD_OFF	n/a	n/a	NOSE	8	4	[0, 0, 0]	n/a	FR1	0	R1345D
1039.284	1.608	1039858	WORD	n/a	wordpools/wordpool_EN.txt	BEAR	9	4	[0, 0, 0]	n/a	FR1	0	R1345D
1040.892	1.124	1041466	WORD_OFF	n/a	n/a	BEAR	9	4	[0, 0, 0]	n/a	FR1	0	R1345D
1042.016	1.626	1042590	WORD	n/a	wordpools/wordpool_EN.txt	SNAIL	10	4	[0, 0, 0]	n/a	FR1	0	R1345D
1043.642	0.78	1044216	WORD_OFF	n/a	n/a	SNAIL	10	4	[0, 0, 0]	n/a	FR1	0	R1345D
1044.422	1.636	1044996	WORD	n/a	wordpools/wordpool_EN.txt	SEED	11	4	[0, 0, 0]	n/a	FR1	0	R1345D
1046.058	0.83	1046631	WORD_OFF	n/a	n/a	SEED	11	4	[0, 0, 0]	n/a	FR1	0	R1345D
1046.888	1.622	1047461	WORD	n/a	wordpools/wordpool_EN.txt	JET	12	4	[0, 0, 0]	n/a	FR1	0	R1345D
1048.51	0.0	1049083	WORD_OFF	n/a	n/a	JET	12	4	[0, 0, 0]	n/a	FR1	0	R1345D
1048.51	0.0	1049083	ENCODING_END	n/a	n/a	n/a	-999	4	[0, 0, 0]	n/a	FR1	0	R1345D
1048.51	0.001	1049083	DISTRACT_START	n/a	n/a	n/a	-999	4	[0, 0, 0]	n/a	FR1	0	R1345D
1048.511	0.015	1049084	START	n/a	n/a	n/a	-999	4	[-999, -999, -999]	n/a	FR1	0	R1345D
1048.526	9.419	1049099	PROB	9.419	n/a	n/a	-999	4	[6, 1, 5]	12	FR1	0	R1345D
1057.945	7.701	1058518	PROB	7.701	n/a	n/a	-999	4	[5, 6, 7]	18	FR1	0	R1345D
1065.646	7.934	1066218	PROB	7.934	n/a	n/a	-999	4	[6, 4, 6]	16	FR1	0	R1345D
1073.58	0.018	1074152	STOP	n/a	n/a	n/a	-999	4	[-999, -999, -999]	n/a	FR1	0	R1345D
1073.598	0.636	1074170	DISTRACT_END	n/a	n/a	n/a	-999	4	[0, 0, 0]	n/a	FR1	0	R1345D
1074.234	1.664	1074806	RETRIEVAL_ORIENT_START	n/a	n/a	n/a	-999	4	[0, 0, 0]	n/a	FR1	0	R1345D
1075.898	0.001	1076470	RETRIEVAL_ORIENT_END	n/a	n/a	n/a	-999	4	[0, 0, 0]	n/a	FR1	0	R1345D
1075.899	3.112	1076471	REC_START	n/a	n/a	n/a	-999	4	[0, 0, 0]	n/a	FR1	0	R1345D
1079.011	1.07	1079583	REC_WORD	1.07	n/a	SEED	11	4	[0, 0, 0]	n/a	FR1	0	R1345D
1080.081	2.841	1080653	REC_WORD	2.841	n/a	JET	12	4	[0, 0, 0]	n/a	FR1	0	R1345D
1082.922	2.478	1083494	REC_WORD	2.478	n/a	CHALK	2	4	[0, 0, 0]	n/a	FR1	0	R1345D
1085.4	9.143	1085971	REC_WORD	9.143	n/a	CLIFF	1	4	[0, 0, 0]	n/a	FR1	0	R1345D
1094.543	6.062	1095114	REC_WORD	6.062	n/a	PEAR	6	4	[0, 0, 0]	n/a	FR1	0	R1345D
1100.605	5.307	1101176	REC_WORD_VV	5.307	n/a	<>	-999	4	[0, 0, 0]	n/a	FR1	0	R1345D
1105.912	0.0	1106482	REC_END	n/a	n/a	n/a	-999	4	[0, 0, 0]	n/a	FR1	0	R1345D
1105.912	0.017	1106482	TRIAL_END	n/a	n/a	n/a	-999	4	[0, 0, 0]	n/a	FR1	0	R1345D
1105.929	0.0	1106499	TRIAL_START	n/a	n/a	n/a	-999	5	[0, 0, 0]	n/a	FR1	0	R1345D
1105.929	0.0	1106499	TRIAL	n/a	n/a	n/a	-999	5	[0, 0, 0]	n/a	FR1	0	R1345D
1105.929	8.71	1106499	WAITING_START	n/a	n/a	n/a	-999	5	[0, 0, 0]	n/a	FR1	0	R1345D
1114.639	0.0	1115209	COUNTDOWN_START	n/a	n/a	n/a	-999	5	[0, 0, 0]	n/a	FR1	0	R1345D
1114.639	10.428	1115209	WAITING_END	n/a	n/a	n/a	-999	5	[0, 0, 0]	n/a	FR1	0	R1345D
1125.067	0.0	1125636	COUNTDOWN_END	n/a	n/a	n/a	-999	5	[0, 0, 0]	n/a	FR1	0	R1345D
1125.067	1.139	1125636	ORIENT_START	n/a	n/a	n/a	-999	5	[0, 0, 0]	n/a	FR1	0	R1345D
1126.206	0.001	1126775	ORIENT_END	n/a	n/a	n/a	-999	5	[0, 0, 0]	n/a	FR1	0	R1345D
1126.207	0.956	1126776	ENCODING_START	n/a	n/a	n/a	-999	5	[0, 0, 0]	n/a	FR1	0	R1345D
1127.163	1.628	1127732	WORD	n/a	wordpools/wordpool_EN.txt	CLAY	1	5	[0, 0, 0]	n/a	FR1	0	R1345D
1128.791	0.844	1129360	WORD_OFF	n/a	n/a	CLAY	1	5	[0, 0, 0]	n/a	FR1	0	R1345D
1129.635	1.622	1130204	WORD	n/a	wordpools/wordpool_EN.txt	OAK	2	5	[0, 0, 0]	n/a	FR1	0	R1345D
1131.257	1.046	1131826	WORD_OFF	n/a	n/a	OAK	2	5	[0, 0, 0]	n/a	FR1	0	R1345D
1132.303	1.623	1132872	WORD	n/a	wordpools/wordpool_EN.txt	SHEEP	3	5	[0, 0, 0]	n/a	FR1	0	R1345D
1133.926	0.938	1134495	WORD_OFF	n/a	n/a	SHEEP	3	5	[0, 0, 0]	n/a	FR1	0	R1345D
1134.864	1.628	1135433	WORD	n/a	wordpools/wordpool_EN.txt	MAZE	4	5	[0, 0, 0]	n/a	FR1	0	R1345D
1136.492	1.081	1137061	WORD_OFF	n/a	n/a	MAZE	4	5	[0, 0, 0]	n/a	FR1	0	R1345D
1137.573	1.636	1138142	WORD	n/a	wordpools/wordpool_EN.txt	MAP	5	5	[0, 0, 0]	n/a	FR1	0	R1345D
1139.209	0.808	1139777	WORD_OFF	n/a	n/a	MAP	5	5	[0, 0, 0]	n/a	FR1	0	R1345D
1140.017	1.627	1140585	WORD	n/a	wordpools/wordpool_EN.txt	FLAME	6	5	[0, 0, 0]	n/a	FR1	0	R1345D
1141.644	1.096	1142212	WORD_OFF	n/a	n/a	FLAME	6	5	[0, 0, 0]	n/a	FR1	0	R1345D
1142.74	1.636	1143308	WORD	n/a	wordpools/wordpool_EN.txt	WEED	7	5	[0, 0, 0]	n/a	FR1	0	R1345D
1144.376	0.949	1144944	WORD_OFF	n/a	n/a	WEED	7	5	[0, 0, 0]	n/a	FR1	0	R1345D
1145.325	1.636	1145893	WORD	n/a	wordpools/wordpool_EN.txt	ARM	8	5	[0, 0, 0]	n/a	FR1	0	R1345D
1146.961	0.821	1147529	WORD_OFF	n/a	n/a	ARM	8	5	[0, 0, 0]	n/a	FR1	0	R1345D
1147.782	1.629	1148350	WORD	n/a	wordpools/wordpool_EN.txt	STORM	9	5	[0, 0, 0]	n/a	FR1	0	R1345D
1149.411	1.082	1149979	WORD_OFF	n/a	n/a	STORM	9	5	[0, 0, 0]	n/a	FR1	0	R1345D
1150.493	1.635	1151061	WORD	n/a	wordpools/wordpool_EN.txt	MOOSE	10	5	[0, 0, 0]	n/a	FR1	0	R1345D
1152.128	0.859	1152696	WORD_OFF	n/a	n/a	MOOSE	10	5	[0, 0, 0]	n/a	FR1	0	R1345D
1152.987	1.625	1153555	WORD	n/a	wordpools/wordpool_EN.txt	FUR	11	5	[0, 0, 0]	n/a	FR1	0	R1345D
1154.612	1.146	1155180	WORD_OFF	n/a	n/a	FUR	11	5	[0, 0, 0]	n/a	FR1	0	R1345D
1155.758	1.621	1156326	WORD	n/a	wordpools/wordpool_EN.txt	CLOUD	12	5	[0, 0, 0]	n/a	FR1	0	R1345D
1157.379	0.0	1157947	WORD_OFF	n/a	n/a	CLOUD	12	5	[0, 0, 0]	n/a	FR1	0	R1345D
1157.379	0.0	1157947	ENCODING_END	n/a	n/a	n/a	-999	5	[0, 0, 0]	n/a	FR1	0	R1345D
1157.379	0.0	1157947	DISTRACT_START	n/a	n/a	n/a	-999	5	[0, 0, 0]	n/a	FR1	0	R1345D
1157.379	0.016	1157947	START	n/a	n/a	n/a	-999	5	[-999, -999, -999]	n/a	FR1	0	R1345D
1157.395	13.337	1157963	PROB	13.337	n/a	n/a	-999	5	[5, 9, 8]	22	FR1	0	R1345D
1170.732	7.224	1171299	PROB	7.224	n/a	n/a	-999	5	[9, 9, 7]	25	FR1	0	R1345D
1177.956	0.011	1178522	STOP	n/a	n/a	n/a	-999	5	[-999, -999, -999]	n/a	FR1	0	R1345D
1177.967	0.642	1178533	DISTRACT_END	n/a	n/a	n/a	-999	5	[0, 0, 0]	n/a	FR1	0	R1345D
1178.609	1.657	1179175	RETRIEVAL_ORIENT_START	n/a	n/a	n/a	-999	5	[0, 0, 0]	n/a	FR1	0	R1345D
1180.266	0.001	1180832	RETRIEVAL_ORIENT_END	n/a	n/a	n/a	-999	5	[0, 0, 0]	n/a	FR1	0	R1345D
1180.267	2.923	1180833	REC_START	n/a	n/a	n/a	-999	5	[0, 0, 0]	n/a	FR1	0	R1345D
1183.19	0.806	1183756	REC_WORD	0.806	n/a	WEED	7	5	[0, 0, 0]	n/a	FR1	0	R1345D
1183.996	2.146	1184562	REC_WORD	2.146	n/a	CLAY	1	5	[0, 0, 0]	n/a	FR1	0	R1345D
1186.142	2.444	1186708	REC_WORD	2.444	n/a	FUR	11	5	[0, 0, 0]	n/a	FR1	0	R1345D
1188.586	10.358	1189152	REC_WORD	10.358	n/a	MOOSE	10	5	[0, 0, 0]	n/a	FR1	0	R1345D
1198.944	6.453	1199509	REC_WORD	6.453	n/a	SEED	-999	5	[0, 0, 0]	n/a	FR1	0	R1345D
1205.397	0.951	1205962	REC_WORD	0.951	n/a	FUR	11	5	[0, 0, 0]	n/a	FR1	0	R1345D
1206.348	2.673	1206913	REC_WORD	2.673	n/a	MOOSE	10	5	[0, 0, 0]	n/a	FR1	0	R1345D
1209.021	1.259	1209586	REC_WORD	1.259	n/a	CLAY	1	5	[0, 0, 0]	n/a	FR1	0	R1345D
1210.28	0.0	1210845	REC_END	n/a	n/a	n/a	-999	5	[0, 0, 0]	n/a	FR1	0	R1345D
1210.28	0.018	1210845	TRIAL_END	n/a	n/a	n/a	-999	5	[0, 0, 0]	n/a	FR1	0	R1345D
1210.298	0.0	1210863	TRIAL_START	n/a	n/a	n/a	-999	6	[0, 0, 0]	n/a	FR1	0	R1345D
1210.298	0.0	1210863	TRIAL	n/a	n/a	n/a	-999	6	[0, 0, 0]	n/a	FR1	0	R1345D
1210.298	11.56	1210863	WAITING_START	n/a	n/a	n/a	-999	6	[0, 0, 0]	n/a	FR1	0	R1345D
1221.858	0.0	1222422	WAITING_END	n/a	n/a	n/a	-999	6	[0, 0, 0]	n/a	FR1	0	R1345D
1221.858	10.43	1222422	COUNTDOWN_START	n/a	n/a	n/a	-999	6	[0, 0, 0]	n/a	FR1	0	R1345D
1232.288	0.0	1232851	COUNTDOWN_END	n/a	n/a	n/a	-999	6	[0, 0, 0]	n/a	FR1	0	R1345D
1232.288	1.155	1232851	ORIENT_START	n/a	n/a	n/a	-999	6	[0, 0, 0]	n/a	FR1	0	R1345D
1233.443	0.0	1234006	ENCODING_START	n/a	n/a	n/a	-999	6	[0, 0, 0]	n/a	FR1	0	R1345D
1233.443	0.989	1234006	ORIENT_END	n/a	n/a	n/a	-999	6	[0, 0, 0]	n/a	FR1	0	R1345D
1234.432	1.628	1234995	WORD	n/a	wordpools/wordpool_EN.txt	TOAST	1	6	[0, 0, 0]	n/a	FR1	0	R1345D
1236.06	1.029	1236623	WORD_OFF	n/a	n/a	TOAST	1	6	[0, 0, 0]	n/a	FR1	0	R1345D
1237.089	1.639	1237652	WORD	n/a	wordpools/wordpool_EN.txt	EEL	2	6	[0, 0, 0]	n/a	FR1	0	R1345D
1238.728	1.124	1239291	WORD_OFF	n/a	n/a	EEL	2	6	[0, 0, 0]	n/a	FR1	0	R1345D
1239.852	1.625	1240415	WORD	n/a	wordpools/wordpool_EN.txt	POND	3	6	[0, 0, 0]	n/a	FR1	0	R1345D
1241.477	0.773	1242040	WORD_OFF	n/a	n/a	POND	3	6	[0, 0, 0]	n/a	FR1	0	R1345D
1242.25	1.629	1242813	WORD	n/a	wordpools/wordpool_EN.txt	STOOL	4	6	[0, 0, 0]	n/a	FR1	0	R1345D
1243.879	0.853	1244442	WORD_OFF	n/a	n/a	STOOL	4	6	[0, 0, 0]	n/a	FR1	0	R1345D
1244.732	1.63	1245295	WORD	n/a	wordpools/wordpool_EN.txt	SKUNK	5	6	[0, 0, 0]	n/a	FR1	0	R1345D
1246.362	0.951	1246925	WORD_OFF	n/a	n/a	SKUNK	5	6	[0, 0, 0]	n/a	FR1	0	R1345D
1247.313	1.617	1247876	WORD	n/a	wordpools/wordpool_EN.txt	PLATE	6	6	[0, 0, 0]	n/a	FR1	0	R1345D
1248.93	1.073	1249493	WORD_OFF	n/a	n/a	PLATE	6	6	[0, 0, 0]	n/a	FR1	0	R1345D
1250.003	1.627	1250566	WORD	n/a	wordpools/wordpool_EN.txt	PET	7	6	[0, 0, 0]	n/a	FR1	0	R1345D
1251.63	1.031	1252192	WORD_OFF	n/a	n/a	PET	7	6	[0, 0, 0]	n/a	FR1	0	R1345D
1252.661	1.636	1253223	WORD	n/a	wordpools/wordpool_EN.txt	SOUP	8	6	[0, 0, 0]	n/a	FR1	0	R1345D
1254.297	0.93	1254859	WORD_OFF	n/a	n/a	SOUP	8	6	[0, 0, 0]	n/a	FR1	0	R1345D
1255.227	1.621	1255789	WORD	n/a	wordpools/wordpool_EN.txt	INK	9	6	[0, 0, 0]	n/a	FR1	0	R1345D
1256.848	0.766	1257410	WORD_OFF	n/a	n/a	INK	9	6	[0, 0, 0]	n/a	FR1	0	R1345D
1257.614	1.633	1258176	WORD	n/a	wordpools/wordpool_EN.txt	DOOR	10	6	[0, 0, 0]	n/a	FR1	0	R1345D
1259.247	1.103	1259809	WORD_OFF	n/a	n/a	DOOR	10	6	[0, 0, 0]	n/a	FR1	0	R1345D
1260.35	1.632	1260912	WORD	n/a	wordpools/wordpool_EN.txt	SHARK	11	6	[0, 0, 0]	n/a	FR1	0	R1345D
1261.982	0.896	1262544	WORD_OFF	n/a	n/a	SHARK	11	6	[0, 0, 0]	n/a	FR1	0	R1345D
1262.878	1.621	1263440	WORD	n/a	wordpools/wordpool_EN.txt	FORK	12	6	[0, 0, 0]	n/a	FR1	0	R1345D
1264.499	0.001	1265061	WORD_OFF	n/a	n/a	FORK	12	6	[0, 0, 0]	n/a	FR1	0	R1345D
1264.5	0.0	1265062	ENCODING_END	n/a	n/a	n/a	-999	6	[0, 0, 0]	n/a	FR1	0	R1345D
1264.5	0.0	1265062	DISTRACT_START	n/a	n/a	n/a	-999	6	[0, 0, 0]	n/a	FR1	0	R1345D
1264.5	0.016	1265062	START	n/a	n/a	n/a	-999	6	[-999, -999, -999]	n/a	FR1	0	R1345D
1264.516	8.834	1265078	PROB	8.834	n/a	n/a	-999	6	[9, 7, 3]	19	FR1	0	R1345D
1273.35	7.034	1273911	PROB	7.034	n/a	n/a	-999	6	[6, 9, 4]	19	FR1	0	R1345D
1280.384	7.243	1280945	PROB	7.243	n/a	n/a	-999	6	[1, 2, 6]	9	FR1	0	R1345D
1287.627	0.01	1288188	STOP	n/a	n/a	n/a	-999	6	[-999, -999, -999]	n/a	FR1	0	R1345D
1287.637	0.679	1288198	DISTRACT_END	n/a	n/a	n/a	-999	6	[0, 0, 0]	n/a	FR1	0	R1345D
1288.316	1.72	1288876	RETRIEVAL_ORIENT_START	n/a	n/a	n/a	-999	6	[0, 0, 0]	n/a	FR1	0	R1345D
1290.036	0.001	1290596	RETRIEVAL_ORIENT_END	n/a	n/a	n/a	-999	6	[0, 0, 0]	n/a	FR1	0	R1345D
1290.037	6.314	1290597	REC_START	n/a	n/a	n/a	-999	6	[0, 0, 0]	n/a	FR1	0	R1345D
1296.351	0.798	1296911	REC_WORD	0.798	n/a	MOON	-999	6	[0, 0, 0]	n/a	FR1	0	R1345D
1297.149	0.751	1297709	REC_WORD	0.751	n/a	EEL	2	6	[0, 0, 0]	n/a	FR1	0	R1345D
1297.9	3.381	1298460	REC_WORD	3.381	n/a	TOAST	1	6	[0, 0, 0]	n/a	FR1	0	R1345D
1301.281	3.212	1301841	REC_WORD_VV	3.212	n/a	<>	-999	6	[0, 0, 0]	n/a	FR1	0	R1345D
1304.493	1.929	1305053	REC_WORD	1.929	n/a	INK	9	6	[0, 0, 0]	n/a	FR1	0	R1345D
1306.422	7.761	1306982	REC_WORD	7.761	n/a	SKUNK	5	6	[0, 0, 0]	n/a	FR1	0	R1345D
1314.183	5.867	1314742	REC_WORD	5.867	n/a	SNAIL	-999	6	[0, 0, 0]	n/a	FR1	0	R1345D
1320.05	0.0	1320609	REC_END	n/a	n/a	n/a	-999	6	[0, 0, 0]	n/a	FR1	0	R1345D
1320.05	0.016	1320609	TRIAL_END	n/a	n/a	n/a	-999	6	[0, 0, 0]	n/a	FR1	0	R1345D
1320.066	0.001	1320625	TRIAL_START	n/a	n/a	n/a	-999	7	[0, 0, 0]	n/a	FR1	0	R1345D
1320.067	0.0	1320626	TRIAL	n/a	n/a	n/a	-999	7	[0, 0, 0]	n/a	FR1	0	R1345D
1320.067	7.494	1320626	WAITING_START	n/a	n/a	n/a	-999	7	[0, 0, 0]	n/a	FR1	0	R1345D
1327.561	0.0	1328119	WAITING_END	n/a	n/a	n/a	-999	7	[0, 0, 0]	n/a	FR1	0	R1345D
1327.561	10.429	1328119	COUNTDOWN_START	n/a	n/a	n/a	-999	7	[0, 0, 0]	n/a	FR1	0	R1345D
1337.99	0.001	1338548	COUNTDOWN_END	n/a	n/a	n/a	-999	7	[0, 0, 0]	n/a	FR1	0	R1345D
1337.991	1.104	1338549	ORIENT_START	n/a	n/a	n/a	-999	7	[0, 0, 0]	n/a	FR1	0	R1345D
1339.095	0.001	1339653	ORIENT_END	n/a	n/a	n/a	-999	7	[0, 0, 0]	n/a	FR1	0	R1345D
1339.096	0.776	1339654	ENCODING_START	n/a	n/a	n/a	-999	7	[0, 0, 0]	n/a	FR1	0	R1345D
1339.872	1.625	1340430	WORD	n/a	wordpools/wordpool_EN.txt	GATE	1	7	[0, 0, 0]	n/a	FR1	0	R1345D
1341.497	0.867	1342055	WORD_OFF	n/a	n/a	GATE	1	7	[0, 0, 0]	n/a	FR1	0	R1345D
1342.364	1.633	1342922	WORD	n/a	wordpools/wordpool_EN.txt	SLEEVE	2	7	[0, 0, 0]	n/a	FR1	0	R1345D
1343.997	0.823	1344554	WORD_OFF	n/a	n/a	SLEEVE	2	7	[0, 0, 0]	n/a	FR1	0	R1345D
1344.82	1.627	1345377	WORD	n/a	wordpools/wordpool_EN.txt	TRAIN	3	7	[0, 0, 0]	n/a	FR1	0	R1345D
1346.447	1.031	1347004	WORD_OFF	n/a	n/a	TRAIN	3	7	[0, 0, 0]	n/a	FR1	0	R1345D
1347.478	1.636	1348035	WORD	n/a	wordpools/wordpool_EN.txt	PIT	4	7	[0, 0, 0]	n/a	FR1	0	R1345D
1349.114	0.918	1349671	WORD_OFF	n/a	n/a	PIT	4	7	[0, 0, 0]	n/a	FR1	0	R1345D
1350.032	1.633	1350589	WORD	n/a	wordpools/wordpool_EN.txt	FROG	5	7	[0, 0, 0]	n/a	FR1	0	R1345D
1351.665	0.936	1352222	WORD_OFF	n/a	n/a	FROG	5	7	[0, 0, 0]	n/a	FR1	0	R1345D
1352.601	1.63	1353158	WORD	n/a	wordpools/wordpool_EN.txt	HOUSE	6	7	[0, 0, 0]	n/a	FR1	0	R1345D
1354.231	1.057	1354788	WORD_OFF	n/a	n/a	HOUSE	6	7	[0, 0, 0]	n/a	FR1	0	R1345D
1355.288	1.611	1355845	WORD	n/a	wordpools/wordpool_EN.txt	CAKE	7	7	[0, 0, 0]	n/a	FR1	0	R1345D
1356.899	0.857	1357456	WORD_OFF	n/a	n/a	CAKE	7	7	[0, 0, 0]	n/a	FR1	0	R1345D
1357.756	1.626	1358313	WORD	n/a	wordpools/wordpool_EN.txt	TIE	8	7	[0, 0, 0]	n/a	FR1	0	R1345D
1359.382	0.951	1359939	WORD_OFF	n/a	n/a	TIE	8	7	[0, 0, 0]	n/a	FR1	0	R1345D
1360.333	1.634	1360890	WORD	n/a	wordpools/wordpool_EN.txt	FILM	9	7	[0, 0, 0]	n/a	FR1	0	R1345D
1361.967	1.084	1362524	WORD_OFF	n/a	n/a	FILM	9	7	[0, 0, 0]	n/a	FR1	0	R1345D
1363.051	1.616	1363607	WORD	n/a	wordpools/wordpool_EN.txt	STRAW	10	7	[0, 0, 0]	n/a	FR1	0	R1345D
1364.667	1.031	1365223	WORD_OFF	n/a	n/a	STRAW	10	7	[0, 0, 0]	n/a	FR1	0	R1345D
1365.698	1.636	1366254	WORD	n/a	wordpools/wordpool_EN.txt	STREET	11	7	[0, 0, 0]	n/a	FR1	0	R1345D
1367.334	0.792	1367890	WORD_OFF	n/a	n/a	STREET	11	7	[0, 0, 0]	n/a	FR1	0	R1345D
1368.126	1.626	1368682	WORD	n/a	wordpools/wordpool_EN.txt	ZOO	12	7	[0, 0, 0]	n/a	FR1	0	R1345D
1369.752	0.0	1370308	WORD_OFF	n/a	n/a	ZOO	12	7	[0, 0, 0]	n/a	FR1	0	R1345D
1369.752	0.001	1370308	ENCODING_END	n/a	n/a	n/a	-999	7	[0, 0, 0]	n/a	FR1	0	R1345D
1369.753	0.0	1370309	DISTRACT_START	n/a	n/a	n/a	-999	7	[0, 0, 0]	n/a	FR1	0	R1345D
1369.753	0.015	1370309	START	n/a	n/a	n/a	-999	7	[-999, -999, -999]	n/a	FR1	0	R1345D
1369.768	5.4	1370324	PROB	5.4	n/a	n/a	-999	7	[3, 5, 1]	9	FR1	0	R1345D
1375.168	6.318	1375724	PROB	6.318	n/a	n/a	-999	7	[8, 2, 4]	14	FR1	0	R1345D
1381.486	9.118	1382041	PROB	9.118	n/a	n/a	-999	7	[1, 2, 7]	10	FR1	0	R1345D
1390.604	0.018	1391159	STOP	n/a	n/a	n/a	-999	7	[-999, -999, -999]	n/a	FR1	0	R1345D
1390.622	0.616	1391177	DISTRACT_END	n/a	n/a	n/a	-999	7	[0, 0, 0]	n/a	FR1	0	R1345D
1391.238	1.635	1391793	RETRIEVAL_ORIENT_START	n/a	n/a	n/a	-999	7	[0, 0, 0]	n/a	FR1	0	R1345D
1392.873	0.0	1393428	RETRIEVAL_ORIENT_END	n/a	n/a	n/a	-999	7	[0, 0, 0]	n/a	FR1	0	R1345D
1392.873	3.158	1393428	REC_START	n/a	n/a	n/a	-999	7	[0, 0, 0]	n/a	FR1	0	R1345D
1396.031	0.69	1396586	REC_WORD	0.69	n/a	STRAW	10	7	[0, 0, 0]	n/a	FR1	0	R1345D
1396.721	3.611	1397276	REC_WORD	3.611	n/a	SHEET	-999	7	[0, 0, 0]	n/a	FR1	0	R1345D
1400.332	2.425	1400886	REC_WORD_VV	2.425	n/a	<>	-999	7	[0, 0, 0]	n/a	FR1	0	R1345D
1402.757	12.549	1403311	REC_WORD	12.549	n/a	FROG	5	7	[0, 0, 0]	n/a	FR1	0	R1345D
1415.306	5.917	1415860	REC_WORD	5.917	n/a	GATE	1	7	[0, 0, 0]	n/a	FR1	0	R1345D
1421.223	1.661	1421776	REC_WORD	1.661	n/a	STOOL	-999	7	[0, 0, 0]	n/a	FR1	0	R1345D
1422.884	0.0	1423437	REC_END	n/a	n/a	n/a	-999	7	[0, 0, 0]	n/a	FR1	0	R1345D
1422.884	0.016	1423437	TRIAL_END	n/a	n/a	n/a	-999	7	[0, 0, 0]	n/a	FR1	0	R1345D
1422.9	0.0	1423453	TRIAL_START	n/a	n/a	n/a	-999	8	[0, 0, 0]	n/a	FR1	0	R1345D
1422.9	0.0	1423453	TRIAL	n/a	n/a	n/a	-999	8	[0, 0, 0]	n/a	FR1	0	R1345D
1422.9	11.146	1423453	WAITING_START	n/a	n/a	n/a	-999	8	[0, 0, 0]	n/a	FR1	0	R1345D
1434.046	0.0	1434599	WAITING_END	n/a	n/a	n/a	-999	8	[0, 0, 0]	n/a	FR1	0	R1345D
1434.046	10.428	1434599	COUNTDOWN_START	n/a	n/a	n/a	-999	8	[0, 0, 0]	n/a	FR1	0	R1345D
1444.474	0.001	1445026	COUNTDOWN_END	n/a	n/a	n/a	-999	8	[0, 0, 0]	n/a	FR1	0	R1345D
1444.475	1.191	1445027	ORIENT_START	n/a	n/a	n/a	-999	8	[0, 0, 0]	n/a	FR1	0	R1345D
1445.666	0.0	1446218	ORIENT_END	n/a	n/a	n/a	-999	8	[0, 0, 0]	n/a	FR1	0	R1345D
1445.666	1.101	1446218	ENCODING_START	n/a	n/a	n/a	-999	8	[0, 0, 0]	n/a	FR1	0	R1345D
1446.767	1.632	1447319	WORD	n/a	wordpools/wordpool_EN.txt	FORT	1	8	[0, 0, 0]	n/a	FR1	0	R1345D
1448.399	0.967	1448951	WORD_OFF	n/a	n/a	FORT	1	8	[0, 0, 0]	n/a	FR1	0	R1345D
1449.366	1.634	1449918	WORD	n/a	wordpools/wordpool_EN.txt	EGG	2	8	[0, 0, 0]	n/a	FR1	0	R1345D
1451.0	1.069	1451552	WORD_OFF	n/a	n/a	EGG	2	8	[0, 0, 0]	n/a	FR1	0	R1345D
1452.069	1.614	1452621	WORD	n/a	wordpools/wordpool_EN.txt	DOLL	3	8	[0, 0, 0]	n/a	FR1	0	R1345D
1453.683	0.779	1454235	WORD_OFF	n/a	n/a	DOLL	3	8	[0, 0, 0]	n/a	FR1	0	R1345D
1454.462	1.638	1455014	WORD	n/a	wordpools/wordpool_EN.txt	JUDGE	4	8	[0, 0, 0]	n/a	FR1	0	R1345D
1456.1	1.095	1456651	WORD_OFF	n/a	n/a	JUDGE	4	8	[0, 0, 0]	n/a	FR1	0	R1345D
1457.195	1.606	1457746	WORD	n/a	wordpools/wordpool_EN.txt	CONE	5	8	[0, 0, 0]	n/a	FR1	0	R1345D
1458.801	1.11	1459352	WORD_OFF	n/a	n/a	CONE	5	8	[0, 0, 0]	n/a	FR1	0	R1345D
1459.911	1.624	1460462	WORD	n/a	wordpools/wordpool_EN.txt	WALL	6	8	[0, 0, 0]	n/a	FR1	0	R1345D
1461.535	0.815	1462086	WORD_OFF	n/a	n/a	WALL	6	8	[0, 0, 0]	n/a	FR1	0	R1345D
1462.35	1.636	1462901	WORD	n/a	wordpools/wordpool_EN.txt	CHIN	7	8	[0, 0, 0]	n/a	FR1	0	R1345D
1463.986	0.905	1464537	WORD_OFF	n/a	n/a	CHIN	7	8	[0, 0, 0]	n/a	FR1	0	R1345D
1464.891	1.628	1465442	WORD	n/a	wordpools/wordpool_EN.txt	BAND	8	8	[0, 0, 0]	n/a	FR1	0	R1345D
1466.519	1.143	1467070	WORD_OFF	n/a	n/a	BAND	8	8	[0, 0, 0]	n/a	FR1	0	R1345D
1467.662	1.624	1468213	WORD	n/a	wordpools/wordpool_EN.txt	PIPE	9	8	[0, 0, 0]	n/a	FR1	0	R1345D
1469.286	0.801	1469837	WORD_OFF	n/a	n/a	PIPE	9	8	[0, 0, 0]	n/a	FR1	0	R1345D
1470.087	1.616	1470638	WORD	n/a	wordpools/wordpool_EN.txt	FLEA	10	8	[0, 0, 0]	n/a	FR1	0	R1345D
1471.703	0.937	1472254	WORD_OFF	n/a	n/a	FLEA	10	8	[0, 0, 0]	n/a	FR1	0	R1345D
1472.64	1.63	1473191	WORD	n/a	wordpools/wordpool_EN.txt	FISH	11	8	[0, 0, 0]	n/a	FR1	0	R1345D
1474.27	0.932	1474820	WORD_OFF	n/a	n/a	FISH	11	8	[0, 0, 0]	n/a	FR1	0	R1345D
1475.202	1.637	1475752	WORD	n/a	wordpools/wordpool_EN.txt	FOOD	12	8	[0, 0, 0]	n/a	FR1	0	R1345D
1476.839	0.001	1477389	WORD_OFF	n/a	n/a	FOOD	12	8	[0, 0, 0]	n/a	FR1	0	R1345D
1476.84	0.0	1477390	DISTRACT_START	n/a	n/a	n/a	-999	8	[0, 0, 0]	n/a	FR1	0	R1345D
1476.84	0.0	1477390	ENCODING_END	n/a	n/a	n/a	-999	8	[0, 0, 0]	n/a	FR1	0	R1345D
1476.84	0.014	1477390	START	n/a	n/a	n/a	-999	8	[-999, -999, -999]	n/a	FR1	0	R1345D
1476.854	30.054	1477404	PROB	30.054	n/a	n/a	-999	8	[9, 7, 7]	23	FR1	0	R1345D
1506.908	0.019	1507457	STOP	n/a	n/a	n/a	-999	8	[-999, -999, -999]	n/a	FR1	0	R1345D
1506.927	0.564	1507476	DISTRACT_END	n/a	n/a	n/a	-999	8	[0, 0, 0]	n/a	FR1	0	R1345D
1507.491	1.569	1508040	RETRIEVAL_ORIENT_START	n/a	n/a	n/a	-999	8	[0, 0, 0]	n/a	FR1	0	R1345D
1509.06	0.0	1509609	RETRIEVAL_ORIENT_END	n/a	n/a	n/a	-999	8	[0, 0, 0]	n/a	FR1	0	R1345D
1509.06	16.756	1509609	REC_START	n/a	n/a	n/a	-999	8	[0, 0, 0]	n/a	FR1	0	R1345D
1525.816	0.366	1526364	REC_WORD	0.366	n/a	WALL	6	8	[0, 0, 0]	n/a	FR1	0	R1345D
1526.182	7.205	1526730	REC_WORD	7.205	n/a	CHIN	7	8	[0, 0, 0]	n/a	FR1	0	R1345D
1533.387	5.684	1533934	REC_WORD_VV	5.684	n/a	<>	-999	8	[0, 0, 0]	n/a	FR1	0	R1345D
1539.071	0.001	1539618	REC_END	n/a	n/a	n/a	-999	8	[0, 0, 0]	n/a	FR1	0	R1345D
1539.072	0.014	1539619	TRIAL_END	n/a	n/a	n/a	-999	8	[0, 0, 0]	n/a	FR1	0	R1345D
1539.086	0.0	1539633	TRIAL_START	n/a	n/a	n/a	-999	9	[0, 0, 0]	n/a	FR1	0	R1345D
1539.086	0.0	1539633	TRIAL	n/a	n/a	n/a	-999	9	[0, 0, 0]	n/a	FR1	0	R1345D
1539.086	0.0	1539633	WAITING_START	n/a	n/a	n/a	-999	9	[0, 0, 0]	n/a	FR1	0	R1345D
