onset	duration	sample	trial_type	response_time	stim_file	item_name	serialpos	list	test	answer	experiment	session	subject
0.0	0.0	18053	INSTRUCT_START	n/a	n/a	n/a	-999	-999	[0, 0, 0]	n/a	FR1	1	R1215M
0.0	229.61	18053	INSTRUCT_END	n/a	n/a	n/a	-999	-999	[0, 0, 0]	n/a	FR1	1	R1215M
229.61	0.0	5307	INSTRUCT_START	n/a	n/a	n/a	-999	-999	[0, 0, 0]	n/a	FR1	1	R1215M
229.61	11.114	5307	INSTRUCT_END	n/a	n/a	n/a	-999	-999	[0, 0, 0]	n/a	FR1	1	R1215M
240.724	0.0	16420	SESS_START	n/a	n/a	n/a	-999	-999	[0, 0, 0]	n/a	FR1	1	R1215M
240.724	12.0	16420	MIC_TEST	n/a	n/a	n/a	-999	-999	[0, 0, 0]	n/a	FR1	1	R1215M
252.724	2.391	28419	PRACTICE_TRIAL	n/a	n/a	n/a	-999	-1	[0, 0, 0]	n/a	FR1	1	R1215M
255.115	10.428	30810	COUNTDOWN_START	n/a	n/a	n/a	-999	-1	[0, 0, 0]	n/a	FR1	1	R1215M
265.543	0.008	41238	COUNTDOWN_END	n/a	n/a	n/a	-999	-1	[0, 0, 0]	n/a	FR1	1	R1215M
265.551	1.617	41246	PRACTICE_ORIENT	n/a	n/a	n/a	-999	-1	[0, 0, 0]	n/a	FR1	1	R1215M
267.168	1.983	42863	PRACTICE_ORIENT_OFF	n/a	n/a	n/a	-999	-1	[0, 0, 0]	n/a	FR1	1	R1215M
269.151	1.617	44845	PRACTICE_WORD	n/a	n/a	CAMEL	1	-1	[0, 0, 0]	n/a	FR1	1	R1215M
270.768	1.0	46462	PRACTICE_WORD_OFF	n/a	n/a	CAMEL	-999	-1	[0, 0, 0]	n/a	FR1	1	R1215M
271.768	1.601	47462	PRACTICE_WORD	n/a	n/a	BEAM	2	-1	[0, 0, 0]	n/a	FR1	1	R1215M
273.369	0.816	49063	PRACTICE_WORD_OFF	n/a	n/a	BEAM	-999	-1	[0, 0, 0]	n/a	FR1	1	R1215M
274.185	1.617	49879	PRACTICE_WORD	n/a	n/a	IRON	3	-1	[0, 0, 0]	n/a	FR1	1	R1215M
275.802	0.901	51496	PRACTICE_WORD_OFF	n/a	n/a	IRON	-999	-1	[0, 0, 0]	n/a	FR1	1	R1215M
276.703	1.618	52397	PRACTICE_WORD	n/a	n/a	ATTIC	4	-1	[0, 0, 0]	n/a	FR1	1	R1215M
278.321	0.816	54015	PRACTICE_WORD_OFF	n/a	n/a	ATTIC	-999	-1	[0, 0, 0]	n/a	FR1	1	R1215M
279.137	1.616	54831	PRACTICE_WORD	n/a	n/a	RHINO	5	-1	[0, 0, 0]	n/a	FR1	1	R1215M
280.753	0.817	56447	PRACTICE_WORD_OFF	n/a	n/a	RHINO	-999	-1	[0, 0, 0]	n/a	FR1	1	R1215M
281.57	1.617	57264	PRACTICE_WORD	n/a	n/a	WATCH	6	-1	[0, 0, 0]	n/a	FR1	1	R1215M
283.187	1.0	58881	PRACTICE_WORD_OFF	n/a	n/a	WATCH	-999	-1	[0, 0, 0]	n/a	FR1	1	R1215M
284.187	1.617	59881	PRACTICE_WORD	n/a	n/a	FLOOD	7	-1	[0, 0, 0]	n/a	FR1	1	R1215M
285.804	0.984	61497	PRACTICE_WORD_OFF	n/a	n/a	FLOOD	-999	-1	[0, 0, 0]	n/a	FR1	1	R1215M
286.788	1.601	62481	PRACTICE_WORD	n/a	n/a	RING	8	-1	[0, 0, 0]	n/a	FR1	1	R1215M
288.389	0.967	64082	PRACTICE_WORD_OFF	n/a	n/a	RING	-999	-1	[0, 0, 0]	n/a	FR1	1	R1215M
289.356	1.616	65049	PRACTICE_WORD	n/a	n/a	WAGON	9	-1	[0, 0, 0]	n/a	FR1	1	R1215M
290.972	0.817	66665	PRACTICE_WORD_OFF	n/a	n/a	WAGON	-999	-1	[0, 0, 0]	n/a	FR1	1	R1215M
291.789	1.618	67482	PRACTICE_WORD	n/a	n/a	COTTON	10	-1	[0, 0, 0]	n/a	FR1	1	R1215M
293.407	1.0	69100	PRACTICE_WORD_OFF	n/a	n/a	COTTON	-999	-1	[0, 0, 0]	n/a	FR1	1	R1215M
294.407	1.616	70100	PRACTICE_WORD	n/a	n/a	CHEST	11	-1	[0, 0, 0]	n/a	FR1	1	R1215M
296.023	0.984	71716	PRACTICE_WORD_OFF	n/a	n/a	CHEST	-999	-1	[0, 0, 0]	n/a	FR1	1	R1215M
297.007	1.617	72700	PRACTICE_WORD	n/a	n/a	TONGUE	12	-1	[0, 0, 0]	n/a	FR1	1	R1215M
298.624	0.0	74317	PRACTICE_WORD_OFF	n/a	n/a	TONGUE	-999	-1	[0, 0, 0]	n/a	FR1	1	R1215M
298.624	0.0	74317	DISTRACT_START	n/a	n/a	n/a	-999	-1	[0, 0, 0]	n/a	FR1	1	R1215M
298.624	0.016	74317	START	n/a	n/a	n/a	-999	-1	[-999, -999, -999]	n/a	FR1	1	R1215M
298.64	5.501	74333	PROB	5.501	n/a	n/a	-999	-1	[9, 7, 5]	21	FR1	1	R1215M
304.141	6.085	79833	PROB	6.085	n/a	n/a	-999	-1	[7, 6, 3]	16	FR1	1	R1215M
310.226	4.934	85918	PROB	4.934	n/a	n/a	-999	-1	[8, 6, 1]	15	FR1	1	R1215M
315.16	7.819	90852	PROB	7.819	n/a	n/a	-999	-1	[9, 1, 4]	14	FR1	1	R1215M
322.979	0.016	98670	STOP	n/a	n/a	n/a	-999	-1	[-999, -999, -999]	n/a	FR1	1	R1215M
322.995	0.6	98686	DISTRACT_END	n/a	n/a	n/a	-999	-1	[0, 0, 0]	n/a	FR1	1	R1215M
323.595	0.517	99286	RETRIEVAL_ORIENT	n/a	n/a	n/a	-999	-1	[0, 0, 0]	n/a	FR1	1	R1215M
324.112	30.014	99803	PRACTICE_REC_START	n/a	n/a	n/a	-999	-1	[0, 0, 0]	n/a	FR1	1	R1215M
354.126	39.082	129816	PRACTICE_REC_END	n/a	n/a	n/a	-999	-1	[0, 0, 0]	n/a	FR1	1	R1215M
393.208	0.5	168895	TRIAL	n/a	n/a	n/a	-999	1	[0, 0, 0]	n/a	FR1	1	R1215M
393.708	10.428	169395	COUNTDOWN_START	n/a	n/a	n/a	-999	1	[0, 0, 0]	n/a	FR1	1	R1215M
404.136	0.008	179823	COUNTDOWN_END	n/a	n/a	n/a	-999	1	[0, 0, 0]	n/a	FR1	1	R1215M
404.144	1.617	179831	ORIENT	n/a	n/a	n/a	-999	1	[0, 0, 0]	n/a	FR1	1	R1215M
405.761	2.2	181448	ORIENT_OFF	n/a	n/a	n/a	-999	1	[0, 0, 0]	n/a	FR1	1	R1215M
407.961	1.617	183648	WORD	n/a	wordpools/wordpool_EN.txt	BOOT	1	1	[0, 0, 0]	n/a	FR1	1	R1215M
409.578	0.802	185264	WORD_OFF	n/a	n/a	BOOT	1	1	[0, 0, 0]	n/a	FR1	1	R1215M
410.38	1.615	186066	WORD	n/a	wordpools/wordpool_EN.txt	SHOE	2	1	[0, 0, 0]	n/a	FR1	1	R1215M
411.995	0.984	187681	WORD_OFF	n/a	n/a	SHOE	2	1	[0, 0, 0]	n/a	FR1	1	R1215M
412.979	1.617	188665	WORD	n/a	wordpools/wordpool_EN.txt	MAT	3	1	[0, 0, 0]	n/a	FR1	1	R1215M
414.596	0.801	190282	WORD_OFF	n/a	n/a	MAT	3	1	[0, 0, 0]	n/a	FR1	1	R1215M
415.397	1.616	191083	WORD	n/a	wordpools/wordpool_EN.txt	STEAM	4	1	[0, 0, 0]	n/a	FR1	1	R1215M
417.013	0.85	192699	WORD_OFF	n/a	n/a	STEAM	4	1	[0, 0, 0]	n/a	FR1	1	R1215M
417.863	1.617	193549	WORD	n/a	wordpools/wordpool_EN.txt	SEAL	5	1	[0, 0, 0]	n/a	FR1	1	R1215M
419.48	0.918	195166	WORD_OFF	n/a	n/a	SEAL	5	1	[0, 0, 0]	n/a	FR1	1	R1215M
420.398	1.616	196084	WORD	n/a	wordpools/wordpool_EN.txt	TIE	6	1	[0, 0, 0]	n/a	FR1	1	R1215M
422.014	0.767	197700	WORD_OFF	n/a	n/a	TIE	6	1	[0, 0, 0]	n/a	FR1	1	R1215M
422.781	1.618	198467	WORD	n/a	wordpools/wordpool_EN.txt	STAIR	7	1	[0, 0, 0]	n/a	FR1	1	R1215M
424.399	0.917	200085	WORD_OFF	n/a	n/a	STAIR	7	1	[0, 0, 0]	n/a	FR1	1	R1215M
425.316	1.616	201002	WORD	n/a	wordpools/wordpool_EN.txt	CAR	8	1	[0, 0, 0]	n/a	FR1	1	R1215M
426.932	0.933	202617	WORD_OFF	n/a	n/a	CAR	8	1	[0, 0, 0]	n/a	FR1	1	R1215M
427.865	1.617	203550	WORD	n/a	wordpools/wordpool_EN.txt	SOCK	9	1	[0, 0, 0]	n/a	FR1	1	R1215M
429.482	0.918	205167	WORD_OFF	n/a	n/a	SOCK	9	1	[0, 0, 0]	n/a	FR1	1	R1215M
430.4	1.616	206085	WORD	n/a	wordpools/wordpool_EN.txt	LIP	10	1	[0, 0, 0]	n/a	FR1	1	R1215M
432.016	0.85	207701	WORD_OFF	n/a	n/a	LIP	10	1	[0, 0, 0]	n/a	FR1	1	R1215M
432.866	1.617	208551	WORD	n/a	wordpools/wordpool_EN.txt	RIB	11	1	[0, 0, 0]	n/a	FR1	1	R1215M
434.483	0.951	210168	WORD_OFF	n/a	n/a	RIB	11	1	[0, 0, 0]	n/a	FR1	1	R1215M
435.434	1.616	211119	WORD	n/a	wordpools/wordpool_EN.txt	CROW	12	1	[0, 0, 0]	n/a	FR1	1	R1215M
437.05	0.0	212735	WORD_OFF	n/a	n/a	CROW	12	1	[0, 0, 0]	n/a	FR1	1	R1215M
437.05	0.001	212735	DISTRACT_START	n/a	n/a	n/a	-999	1	[0, 0, 0]	n/a	FR1	1	R1215M
437.051	0.016	212736	START	n/a	n/a	n/a	-999	1	[-999, -999, -999]	n/a	FR1	1	R1215M
437.067	5.901	212752	PROB	5.901	n/a	n/a	-999	1	[9, 3, 3]	13	FR1	1	R1215M
442.968	6.035	218653	PROB	6.035	n/a	n/a	-999	1	[9, 6, 2]	17	FR1	1	R1215M
449.003	9.712	224687	PROB	9.712	n/a	n/a	-999	1	[9, 9, 8]	27	FR1	1	R1215M
458.715	0.006	234399	STOP	n/a	n/a	n/a	-999	1	[-999, -999, -999]	n/a	FR1	1	R1215M
458.721	0.551	234405	DISTRACT_END	n/a	n/a	n/a	-999	1	[0, 0, 0]	n/a	FR1	1	R1215M
459.272	0.517	234956	RETRIEVAL_ORIENT	n/a	n/a	n/a	-999	1	[0, 0, 0]	n/a	FR1	1	R1215M
459.789	2.811	235473	REC_START	n/a	n/a	n/a	-999	1	[0, 0, 0]	n/a	FR1	1	R1215M
462.6	0.739	238283	REC_WORD	0.739	n/a	BOOT	-999	1	[0, 0, 0]	n/a	FR1	1	R1215M
463.339	7.173	239022	REC_WORD	7.173	n/a	SHOE	-999	1	[0, 0, 0]	n/a	FR1	1	R1215M
470.512	1.374	246195	REC_WORD	1.374	n/a	TOE	-999	1	[0, 0, 0]	n/a	FR1	1	R1215M
471.886	17.915	247569	REC_WORD	17.915	n/a	SEAL	-999	1	[0, 0, 0]	n/a	FR1	1	R1215M
489.801	41.984	265483	REC_END	n/a	n/a	n/a	-999	1	[0, 0, 0]	n/a	FR1	1	R1215M
531.785	0.5	307464	TRIAL	n/a	n/a	n/a	-999	2	[0, 0, 0]	n/a	FR1	1	R1215M
532.285	10.428	307964	COUNTDOWN_START	n/a	n/a	n/a	-999	2	[0, 0, 0]	n/a	FR1	1	R1215M
542.713	0.008	318392	COUNTDOWN_END	n/a	n/a	n/a	-999	2	[0, 0, 0]	n/a	FR1	1	R1215M
542.721	1.601	318400	ORIENT	n/a	n/a	n/a	-999	2	[0, 0, 0]	n/a	FR1	1	R1215M
544.322	2.034	320001	ORIENT_OFF	n/a	n/a	n/a	-999	2	[0, 0, 0]	n/a	FR1	1	R1215M
546.356	1.616	322035	WORD	n/a	wordpools/wordpool_EN.txt	PEA	1	2	[0, 0, 0]	n/a	FR1	1	R1215M
547.972	0.817	323651	WORD_OFF	n/a	n/a	PEA	1	2	[0, 0, 0]	n/a	FR1	1	R1215M
548.789	1.618	324468	WORD	n/a	wordpools/wordpool_EN.txt	CLIFF	2	2	[0, 0, 0]	n/a	FR1	1	R1215M
550.407	0.815	326085	WORD_OFF	n/a	n/a	CLIFF	2	2	[0, 0, 0]	n/a	FR1	1	R1215M
551.222	1.617	326900	WORD	n/a	wordpools/wordpool_EN.txt	ANT	3	2	[0, 0, 0]	n/a	FR1	1	R1215M
552.839	0.851	328517	WORD_OFF	n/a	n/a	ANT	3	2	[0, 0, 0]	n/a	FR1	1	R1215M
553.69	1.618	329368	WORD	n/a	wordpools/wordpool_EN.txt	NEST	4	2	[0, 0, 0]	n/a	FR1	1	R1215M
555.308	0.966	330986	WORD_OFF	n/a	n/a	NEST	4	2	[0, 0, 0]	n/a	FR1	1	R1215M
556.274	1.616	331952	WORD	n/a	wordpools/wordpool_EN.txt	HAWK	5	2	[0, 0, 0]	n/a	FR1	1	R1215M
557.89	0.867	333568	WORD_OFF	n/a	n/a	HAWK	5	2	[0, 0, 0]	n/a	FR1	1	R1215M
558.757	1.618	334435	WORD	n/a	wordpools/wordpool_EN.txt	CHEEK	6	2	[0, 0, 0]	n/a	FR1	1	R1215M
560.375	0.833	336053	WORD_OFF	n/a	n/a	CHEEK	6	2	[0, 0, 0]	n/a	FR1	1	R1215M
561.208	1.617	336886	WORD	n/a	wordpools/wordpool_EN.txt	CHAIR	7	2	[0, 0, 0]	n/a	FR1	1	R1215M
562.825	0.783	338503	WORD_OFF	n/a	n/a	CHAIR	7	2	[0, 0, 0]	n/a	FR1	1	R1215M
563.608	1.617	339286	WORD	n/a	wordpools/wordpool_EN.txt	NET	8	2	[0, 0, 0]	n/a	FR1	1	R1215M
565.225	1.0	340903	WORD_OFF	n/a	n/a	NET	8	2	[0, 0, 0]	n/a	FR1	1	R1215M
566.225	1.617	341903	WORD	n/a	wordpools/wordpool_EN.txt	TOE	9	2	[0, 0, 0]	n/a	FR1	1	R1215M
567.842	0.901	343519	WORD_OFF	n/a	n/a	TOE	9	2	[0, 0, 0]	n/a	FR1	1	R1215M
568.743	1.617	344420	WORD	n/a	wordpools/wordpool_EN.txt	MULE	10	2	[0, 0, 0]	n/a	FR1	1	R1215M
570.36	0.934	346037	WORD_OFF	n/a	n/a	MULE	10	2	[0, 0, 0]	n/a	FR1	1	R1215M
571.294	1.616	346971	WORD	n/a	wordpools/wordpool_EN.txt	ROOF	11	2	[0, 0, 0]	n/a	FR1	1	R1215M
572.91	0.933	348587	WORD_OFF	n/a	n/a	ROOF	11	2	[0, 0, 0]	n/a	FR1	1	R1215M
573.843	1.618	349520	WORD	n/a	wordpools/wordpool_EN.txt	LEAF	12	2	[0, 0, 0]	n/a	FR1	1	R1215M
575.461	0.0	351138	WORD_OFF	n/a	n/a	LEAF	12	2	[0, 0, 0]	n/a	FR1	1	R1215M
575.461	0.0	351138	DISTRACT_START	n/a	n/a	n/a	-999	2	[0, 0, 0]	n/a	FR1	1	R1215M
575.461	0.016	351138	START	n/a	n/a	n/a	-999	2	[-999, -999, -999]	n/a	FR1	1	R1215M
575.477	4.885	351154	PROB	4.885	n/a	n/a	-999	2	[9, 6, 6]	21	FR1	1	R1215M
580.362	3.5	356039	PROB	3.5	n/a	n/a	-999	2	[6, 4, 4]	14	FR1	1	R1215M
583.862	4.268	359539	PROB	4.268	n/a	n/a	-999	2	[9, 3, 7]	19	FR1	1	R1215M
588.13	4.334	363806	PROB	4.334	n/a	n/a	-999	2	[1, 5, 7]	13	FR1	1	R1215M
592.464	17.299	368140	PROB	17.299	n/a	n/a	-999	2	[7, 8, 5]	20	FR1	1	R1215M
609.763	0.021	385438	STOP	n/a	n/a	n/a	-999	2	[-999, -999, -999]	n/a	FR1	1	R1215M
609.784	0.618	385459	DISTRACT_END	n/a	n/a	n/a	-999	2	[0, 0, 0]	n/a	FR1	1	R1215M
610.402	0.516	386077	RETRIEVAL_ORIENT	n/a	n/a	n/a	-999	2	[0, 0, 0]	n/a	FR1	1	R1215M
610.918	1.207	386593	REC_START	n/a	n/a	n/a	-999	2	[0, 0, 0]	n/a	FR1	1	R1215M
612.125	0.877	387800	REC_WORD	0.877	n/a	HAWK	-999	2	[0, 0, 0]	n/a	FR1	1	R1215M
613.002	1.577	388677	REC_WORD	1.577	n/a	PEA	-999	2	[0, 0, 0]	n/a	FR1	1	R1215M
614.579	4.727	390254	REC_WORD	4.727	n/a	NEST	-999	2	[0, 0, 0]	n/a	FR1	1	R1215M
619.306	6.612	394981	REC_WORD_VV	6.612	n/a	<>	-999	2	[0, 0, 0]	n/a	FR1	1	R1215M
625.918	1.621	401592	REC_WORD_VV	1.621	n/a	<>	-999	2	[0, 0, 0]	n/a	FR1	1	R1215M
627.539	13.391	403213	REC_WORD	13.391	n/a	CROW	-999	2	[0, 0, 0]	n/a	FR1	1	R1215M
640.93	39.368	416603	REC_END	n/a	n/a	n/a	-999	2	[0, 0, 0]	n/a	FR1	1	R1215M
680.298	0.5	455969	TRIAL	n/a	n/a	n/a	-999	3	[0, 0, 0]	n/a	FR1	1	R1215M
680.798	10.428	456469	COUNTDOWN_START	n/a	n/a	n/a	-999	3	[0, 0, 0]	n/a	FR1	1	R1215M
691.226	0.007	466896	COUNTDOWN_END	n/a	n/a	n/a	-999	3	[0, 0, 0]	n/a	FR1	1	R1215M
691.233	1.617	466903	ORIENT	n/a	n/a	n/a	-999	3	[0, 0, 0]	n/a	FR1	1	R1215M
692.85	2.283	468520	ORIENT_OFF	n/a	n/a	n/a	-999	3	[0, 0, 0]	n/a	FR1	1	R1215M
695.133	1.618	470803	WORD	n/a	wordpools/wordpool_EN.txt	SHEEP	1	3	[0, 0, 0]	n/a	FR1	1	R1215M
696.751	1.0	472421	WORD_OFF	n/a	n/a	SHEEP	1	3	[0, 0, 0]	n/a	FR1	1	R1215M
697.751	1.601	473421	WORD	n/a	wordpools/wordpool_EN.txt	FOOT	2	3	[0, 0, 0]	n/a	FR1	1	R1215M
699.352	0.833	475022	WORD_OFF	n/a	n/a	FOOT	2	3	[0, 0, 0]	n/a	FR1	1	R1215M
700.185	1.616	475855	WORD	n/a	wordpools/wordpool_EN.txt	SEED	3	3	[0, 0, 0]	n/a	FR1	1	R1215M
701.801	0.951	477471	WORD_OFF	n/a	n/a	SEED	3	3	[0, 0, 0]	n/a	FR1	1	R1215M
702.752	1.601	478422	WORD	n/a	wordpools/wordpool_EN.txt	AXE	4	3	[0, 0, 0]	n/a	FR1	1	R1215M
704.353	0.883	480023	WORD_OFF	n/a	n/a	AXE	4	3	[0, 0, 0]	n/a	FR1	1	R1215M
705.236	1.617	480906	WORD	n/a	wordpools/wordpool_EN.txt	WEB	5	3	[0, 0, 0]	n/a	FR1	1	R1215M
706.853	0.833	482523	WORD_OFF	n/a	n/a	WEB	5	3	[0, 0, 0]	n/a	FR1	1	R1215M
707.686	1.601	483355	WORD	n/a	wordpools/wordpool_EN.txt	TOY	6	3	[0, 0, 0]	n/a	FR1	1	R1215M
709.287	0.899	484956	WORD_OFF	n/a	n/a	TOY	6	3	[0, 0, 0]	n/a	FR1	1	R1215M
710.186	1.618	485855	WORD	n/a	wordpools/wordpool_EN.txt	GEESE	7	3	[0, 0, 0]	n/a	FR1	1	R1215M
711.804	0.833	487473	WORD_OFF	n/a	n/a	GEESE	7	3	[0, 0, 0]	n/a	FR1	1	R1215M
712.637	1.617	488306	WORD	n/a	wordpools/wordpool_EN.txt	RICE	8	3	[0, 0, 0]	n/a	FR1	1	R1215M
714.254	0.983	489923	WORD_OFF	n/a	n/a	RICE	8	3	[0, 0, 0]	n/a	FR1	1	R1215M
715.237	1.617	490906	WORD	n/a	wordpools/wordpool_EN.txt	HORSE	9	3	[0, 0, 0]	n/a	FR1	1	R1215M
716.854	0.967	492523	WORD_OFF	n/a	n/a	HORSE	9	3	[0, 0, 0]	n/a	FR1	1	R1215M
717.821	1.618	493490	WORD	n/a	wordpools/wordpool_EN.txt	SALT	10	3	[0, 0, 0]	n/a	FR1	1	R1215M
719.439	0.967	495108	WORD_OFF	n/a	n/a	SALT	10	3	[0, 0, 0]	n/a	FR1	1	R1215M
720.406	1.616	496075	WORD	n/a	wordpools/wordpool_EN.txt	BANK	11	3	[0, 0, 0]	n/a	FR1	1	R1215M
722.022	0.767	497691	WORD_OFF	n/a	n/a	BANK	11	3	[0, 0, 0]	n/a	FR1	1	R1215M
722.789	1.601	498458	WORD	n/a	wordpools/wordpool_EN.txt	FUR	12	3	[0, 0, 0]	n/a	FR1	1	R1215M
724.39	0.0	500059	WORD_OFF	n/a	n/a	FUR	12	3	[0, 0, 0]	n/a	FR1	1	R1215M
724.39	0.001	500059	DISTRACT_START	n/a	n/a	n/a	-999	3	[0, 0, 0]	n/a	FR1	1	R1215M
724.391	0.016	500060	START	n/a	n/a	n/a	-999	3	[-999, -999, -999]	n/a	FR1	1	R1215M
724.407	5.417	500076	PROB	5.417	n/a	n/a	-999	3	[9, 1, 6]	16	FR1	1	R1215M
729.824	3.3	505492	PROB	3.3	n/a	n/a	-999	3	[5, 3, 3]	11	FR1	1	R1215M
733.124	4.185	508792	PROB	4.185	n/a	n/a	-999	3	[9, 2, 1]	12	FR1	1	R1215M
737.309	4.284	512977	PROB	4.284	n/a	n/a	-999	3	[1, 2, 4]	7	FR1	1	R1215M
741.593	3.915	517261	PROB	3.915	n/a	n/a	-999	3	[6, 1, 3]	10	FR1	1	R1215M
745.508	0.019	521175	STOP	n/a	n/a	n/a	-999	3	[-999, -999, -999]	n/a	FR1	1	R1215M
745.527	0.666	521194	DISTRACT_END	n/a	n/a	n/a	-999	3	[0, 0, 0]	n/a	FR1	1	R1215M
746.193	0.518	521860	RETRIEVAL_ORIENT	n/a	n/a	n/a	-999	3	[0, 0, 0]	n/a	FR1	1	R1215M
746.711	1.159	522378	REC_START	n/a	n/a	n/a	-999	3	[0, 0, 0]	n/a	FR1	1	R1215M
747.87	0.777	523537	REC_WORD	0.777	n/a	SHEEP	-999	3	[0, 0, 0]	n/a	FR1	1	R1215M
748.647	0.936	524314	REC_WORD	0.936	n/a	SHED	-999	3	[0, 0, 0]	n/a	FR1	1	R1215M
749.583	1.504	525250	REC_WORD	1.504	n/a	FUR	-999	3	[0, 0, 0]	n/a	FR1	1	R1215M
751.087	4.041	526754	REC_WORD	4.041	n/a	AXE	-999	3	[0, 0, 0]	n/a	FR1	1	R1215M
755.128	3.54	530795	REC_WORD_VV	3.54	n/a	<>	-999	3	[0, 0, 0]	n/a	FR1	1	R1215M
758.668	4.58	534335	REC_WORD_VV	4.58	n/a	<>	-999	3	[0, 0, 0]	n/a	FR1	1	R1215M
763.248	0.985	538914	REC_WORD	0.985	n/a	WEED	-999	3	[0, 0, 0]	n/a	FR1	1	R1215M
764.233	12.489	539899	REC_WORD_VV	12.489	n/a	<>	-999	3	[0, 0, 0]	n/a	FR1	1	R1215M
776.722	155.608	552388	REC_END	n/a	n/a	n/a	-999	3	[0, 0, 0]	n/a	FR1	1	R1215M
932.33	0.5	707987	TRIAL	n/a	n/a	n/a	-999	4	[0, 0, 0]	n/a	FR1	1	R1215M
932.83	10.428	708487	COUNTDOWN_START	n/a	n/a	n/a	-999	4	[0, 0, 0]	n/a	FR1	1	R1215M
943.258	0.007	718914	COUNTDOWN_END	n/a	n/a	n/a	-999	4	[0, 0, 0]	n/a	FR1	1	R1215M
943.265	1.617	718921	ORIENT	n/a	n/a	n/a	-999	4	[0, 0, 0]	n/a	FR1	1	R1215M
944.882	2.117	720538	ORIENT_OFF	n/a	n/a	n/a	-999	4	[0, 0, 0]	n/a	FR1	1	R1215M
946.999	1.617	722655	WORD	n/a	wordpools/wordpool_EN.txt	STRING	1	4	[0, 0, 0]	n/a	FR1	1	R1215M
948.616	0.967	724272	WORD_OFF	n/a	n/a	STRING	1	4	[0, 0, 0]	n/a	FR1	1	R1215M
949.583	1.617	725239	WORD	n/a	wordpools/wordpool_EN.txt	SUN	2	4	[0, 0, 0]	n/a	FR1	1	R1215M
951.2	0.767	726856	WORD_OFF	n/a	n/a	SUN	2	4	[0, 0, 0]	n/a	FR1	1	R1215M
951.967	1.616	727623	WORD	n/a	wordpools/wordpool_EN.txt	PALM	3	4	[0, 0, 0]	n/a	FR1	1	R1215M
953.583	0.951	729239	WORD_OFF	n/a	n/a	PALM	3	4	[0, 0, 0]	n/a	FR1	1	R1215M
954.534	1.617	730189	WORD	n/a	wordpools/wordpool_EN.txt	FORT	4	4	[0, 0, 0]	n/a	FR1	1	R1215M
956.151	0.933	731806	WORD_OFF	n/a	n/a	FORT	4	4	[0, 0, 0]	n/a	FR1	1	R1215M
957.084	1.617	732739	WORD	n/a	wordpools/wordpool_EN.txt	CLAY	5	4	[0, 0, 0]	n/a	FR1	1	R1215M
958.701	0.884	734356	WORD_OFF	n/a	n/a	CLAY	5	4	[0, 0, 0]	n/a	FR1	1	R1215M
959.585	1.617	735240	WORD	n/a	wordpools/wordpool_EN.txt	BARN	6	4	[0, 0, 0]	n/a	FR1	1	R1215M
961.202	0.9	736857	WORD_OFF	n/a	n/a	BARN	6	4	[0, 0, 0]	n/a	FR1	1	R1215M
962.102	1.617	737757	WORD	n/a	wordpools/wordpool_EN.txt	SKI	7	4	[0, 0, 0]	n/a	FR1	1	R1215M
963.719	0.767	739374	WORD_OFF	n/a	n/a	SKI	7	4	[0, 0, 0]	n/a	FR1	1	R1215M
964.486	1.617	740141	WORD	n/a	wordpools/wordpool_EN.txt	HEN	8	4	[0, 0, 0]	n/a	FR1	1	R1215M
966.103	0.816	741758	WORD_OFF	n/a	n/a	HEN	8	4	[0, 0, 0]	n/a	FR1	1	R1215M
966.919	1.617	742574	WORD	n/a	wordpools/wordpool_EN.txt	HOUSE	9	4	[0, 0, 0]	n/a	FR1	1	R1215M
968.536	1.001	744191	WORD_OFF	n/a	n/a	HOUSE	9	4	[0, 0, 0]	n/a	FR1	1	R1215M
969.537	1.617	745192	WORD	n/a	wordpools/wordpool_EN.txt	ELF	10	4	[0, 0, 0]	n/a	FR1	1	R1215M
971.154	0.833	746809	WORD_OFF	n/a	n/a	ELF	10	4	[0, 0, 0]	n/a	FR1	1	R1215M
971.987	1.617	747641	WORD	n/a	wordpools/wordpool_EN.txt	FENCE	11	4	[0, 0, 0]	n/a	FR1	1	R1215M
973.604	0.785	749258	WORD_OFF	n/a	n/a	FENCE	11	4	[0, 0, 0]	n/a	FR1	1	R1215M
974.389	1.616	750043	WORD	n/a	wordpools/wordpool_EN.txt	CAT	12	4	[0, 0, 0]	n/a	FR1	1	R1215M
976.005	0.0	751659	DISTRACT_START	n/a	n/a	n/a	-999	4	[0, 0, 0]	n/a	FR1	1	R1215M
976.005	0.0	751659	WORD_OFF	n/a	n/a	CAT	12	4	[0, 0, 0]	n/a	FR1	1	R1215M
976.005	0.016	751659	START	n/a	n/a	n/a	-999	4	[-999, -999, -999]	n/a	FR1	1	R1215M
976.021	4.734	751675	PROB	4.734	n/a	n/a	-999	4	[4, 1, 2]	7	FR1	1	R1215M
980.755	3.184	756409	PROB	3.184	n/a	n/a	-999	4	[2, 3, 2]	7	FR1	1	R1215M
983.939	8.836	759593	PROB	8.836	n/a	n/a	-999	4	[9, 3, 3]	15	FR1	1	R1215M
992.775	3.525	768428	PROB	3.525	n/a	n/a	-999	4	[5, 5, 3]	13	FR1	1	R1215M
996.3	0.009	771953	STOP	n/a	n/a	n/a	-999	4	[-999, -999, -999]	n/a	FR1	1	R1215M
996.309	0.633	771962	DISTRACT_END	n/a	n/a	n/a	-999	4	[0, 0, 0]	n/a	FR1	1	R1215M
996.942	0.518	772595	RETRIEVAL_ORIENT	n/a	n/a	n/a	-999	4	[0, 0, 0]	n/a	FR1	1	R1215M
997.46	1.459	773113	REC_START	n/a	n/a	n/a	-999	4	[0, 0, 0]	n/a	FR1	1	R1215M
998.919	1.668	774572	REC_WORD	1.668	n/a	ELF	-999	4	[0, 0, 0]	n/a	FR1	1	R1215M
1000.587	1.485	776240	REC_WORD	1.485	n/a	CAT	-999	4	[0, 0, 0]	n/a	FR1	1	R1215M
1002.072	1.163	777725	REC_WORD_VV	1.163	n/a	<>	-999	4	[0, 0, 0]	n/a	FR1	1	R1215M
1003.235	1.374	778888	REC_WORD	1.374	n/a	SHELF	-999	4	[0, 0, 0]	n/a	FR1	1	R1215M
1004.609	1.967	780262	REC_WORD_VV	1.967	n/a	<>	-999	4	[0, 0, 0]	n/a	FR1	1	R1215M
1006.576	6.486	782229	REC_WORD	6.486	n/a	CLAY	-999	4	[0, 0, 0]	n/a	FR1	1	R1215M
1013.062	12.859	788714	REC_WORD_VV	12.859	n/a	<>	-999	4	[0, 0, 0]	n/a	FR1	1	R1215M
1025.921	1.551	801572	REC_WORD	1.551	n/a	BARN	-999	4	[0, 0, 0]	n/a	FR1	1	R1215M
1027.472	19.931	803123	REC_END	n/a	n/a	n/a	-999	4	[0, 0, 0]	n/a	FR1	1	R1215M
1047.403	0.5	823053	TRIAL	n/a	n/a	n/a	-999	5	[0, 0, 0]	n/a	FR1	1	R1215M
1047.903	10.428	823553	COUNTDOWN_START	n/a	n/a	n/a	-999	5	[0, 0, 0]	n/a	FR1	1	R1215M
1058.331	0.007	833981	COUNTDOWN_END	n/a	n/a	n/a	-999	5	[0, 0, 0]	n/a	FR1	1	R1215M
1058.338	1.616	833988	ORIENT	n/a	n/a	n/a	-999	5	[0, 0, 0]	n/a	FR1	1	R1215M
1059.954	1.934	835603	ORIENT_OFF	n/a	n/a	n/a	-999	5	[0, 0, 0]	n/a	FR1	1	R1215M
1061.888	1.617	837537	WORD	n/a	wordpools/wordpool_EN.txt	CHIN	1	5	[0, 0, 0]	n/a	FR1	1	R1215M
1063.505	0.851	839154	WORD_OFF	n/a	n/a	CHIN	1	5	[0, 0, 0]	n/a	FR1	1	R1215M
1064.356	1.616	840005	WORD	n/a	wordpools/wordpool_EN.txt	TRUCK	2	5	[0, 0, 0]	n/a	FR1	1	R1215M
1065.972	0.917	841621	WORD_OFF	n/a	n/a	TRUCK	2	5	[0, 0, 0]	n/a	FR1	1	R1215M
1066.889	1.617	842538	WORD	n/a	wordpools/wordpool_EN.txt	OAK	3	5	[0, 0, 0]	n/a	FR1	1	R1215M
1068.506	1.0	844155	WORD_OFF	n/a	n/a	OAK	3	5	[0, 0, 0]	n/a	FR1	1	R1215M
1069.506	1.617	845155	WORD	n/a	wordpools/wordpool_EN.txt	KITE	4	5	[0, 0, 0]	n/a	FR1	1	R1215M
1071.123	0.983	846772	WORD_OFF	n/a	n/a	KITE	4	5	[0, 0, 0]	n/a	FR1	1	R1215M
1072.106	1.617	847755	WORD	n/a	wordpools/wordpool_EN.txt	SHRIMP	5	5	[0, 0, 0]	n/a	FR1	1	R1215M
1073.723	0.867	849372	WORD_OFF	n/a	n/a	SHRIMP	5	5	[0, 0, 0]	n/a	FR1	1	R1215M
1074.59	1.617	850239	WORD	n/a	wordpools/wordpool_EN.txt	WHEEL	6	5	[0, 0, 0]	n/a	FR1	1	R1215M
1076.207	0.95	851856	WORD_OFF	n/a	n/a	WHEEL	6	5	[0, 0, 0]	n/a	FR1	1	R1215M
1077.157	1.617	852806	WORD	n/a	wordpools/wordpool_EN.txt	OWL	7	5	[0, 0, 0]	n/a	FR1	1	R1215M
1078.774	1.001	854422	WORD_OFF	n/a	n/a	OWL	7	5	[0, 0, 0]	n/a	FR1	1	R1215M
1079.775	1.618	855423	WORD	n/a	wordpools/wordpool_EN.txt	HORN	8	5	[0, 0, 0]	n/a	FR1	1	R1215M
1081.393	0.883	857041	WORD_OFF	n/a	n/a	HORN	8	5	[0, 0, 0]	n/a	FR1	1	R1215M
1082.276	1.616	857924	WORD	n/a	wordpools/wordpool_EN.txt	BOWL	9	5	[0, 0, 0]	n/a	FR1	1	R1215M
1083.892	0.867	859540	WORD_OFF	n/a	n/a	BOWL	9	5	[0, 0, 0]	n/a	FR1	1	R1215M
1084.759	1.601	860407	WORD	n/a	wordpools/wordpool_EN.txt	BOX	10	5	[0, 0, 0]	n/a	FR1	1	R1215M
1086.36	1.017	862008	WORD_OFF	n/a	n/a	BOX	10	5	[0, 0, 0]	n/a	FR1	1	R1215M
1087.377	1.616	863025	WORD	n/a	wordpools/wordpool_EN.txt	DOG	11	5	[0, 0, 0]	n/a	FR1	1	R1215M
1088.993	0.967	864641	WORD_OFF	n/a	n/a	DOG	11	5	[0, 0, 0]	n/a	FR1	1	R1215M
1089.96	1.617	865608	WORD	n/a	wordpools/wordpool_EN.txt	SPRING	12	5	[0, 0, 0]	n/a	FR1	1	R1215M
1091.577	0.0	867225	DISTRACT_START	n/a	n/a	n/a	-999	5	[0, 0, 0]	n/a	FR1	1	R1215M
1091.577	0.0	867225	WORD_OFF	n/a	n/a	SPRING	12	5	[0, 0, 0]	n/a	FR1	1	R1215M
1091.577	0.017	867225	START	n/a	n/a	n/a	-999	5	[-999, -999, -999]	n/a	FR1	1	R1215M
1091.594	7.551	867242	PROB	7.551	n/a	n/a	-999	5	[1, 6, 9]	16	FR1	1	R1215M
1099.145	5.034	874792	PROB	5.034	n/a	n/a	-999	5	[9, 2, 8]	19	FR1	1	R1215M
1104.179	7.649	879826	PROB	7.649	n/a	n/a	-999	5	[8, 7, 5]	20	FR1	1	R1215M
1111.828	0.02	887475	STOP	n/a	n/a	n/a	-999	5	[-999, -999, -999]	n/a	FR1	1	R1215M
1111.848	0.616	887495	DISTRACT_END	n/a	n/a	n/a	-999	5	[0, 0, 0]	n/a	FR1	1	R1215M
1112.464	0.518	888111	RETRIEVAL_ORIENT	n/a	n/a	n/a	-999	5	[0, 0, 0]	n/a	FR1	1	R1215M
1112.982	1.479	888628	REC_START	n/a	n/a	n/a	-999	5	[0, 0, 0]	n/a	FR1	1	R1215M
1114.461	1.161	890107	REC_WORD	1.161	n/a	BOWL	-999	5	[0, 0, 0]	n/a	FR1	1	R1215M
1115.622	3.664	891268	REC_WORD	3.664	n/a	BOX	-999	5	[0, 0, 0]	n/a	FR1	1	R1215M
1119.286	4.424	894932	REC_WORD	4.424	n/a	DOG	-999	5	[0, 0, 0]	n/a	FR1	1	R1215M
1123.71	3.535	899356	REC_WORD_VV	3.535	n/a	<>	-999	5	[0, 0, 0]	n/a	FR1	1	R1215M
1127.245	10.628	902891	REC_WORD	10.628	n/a	SHRIMP	-999	5	[0, 0, 0]	n/a	FR1	1	R1215M
1137.873	2.956	913518	REC_WORD	2.956	n/a	COW	-999	5	[0, 0, 0]	n/a	FR1	1	R1215M
1140.829	2.165	916474	REC_WORD	2.165	n/a	CHIN	-999	5	[0, 0, 0]	n/a	FR1	1	R1215M
1142.994	11.228	918639	REC_END	n/a	n/a	n/a	-999	5	[0, 0, 0]	n/a	FR1	1	R1215M
1154.222	0.5	929866	TRIAL	n/a	n/a	n/a	-999	6	[0, 0, 0]	n/a	FR1	1	R1215M
1154.722	10.428	930366	COUNTDOWN_START	n/a	n/a	n/a	-999	6	[0, 0, 0]	n/a	FR1	1	R1215M
1165.15	0.008	940794	COUNTDOWN_END	n/a	n/a	n/a	-999	6	[0, 0, 0]	n/a	FR1	1	R1215M
1165.158	1.617	940802	ORIENT	n/a	n/a	n/a	-999	6	[0, 0, 0]	n/a	FR1	1	R1215M
1166.775	1.884	942418	ORIENT_OFF	n/a	n/a	n/a	-999	6	[0, 0, 0]	n/a	FR1	1	R1215M
1168.659	1.617	944302	WORD	n/a	wordpools/wordpool_EN.txt	SPEAR	1	6	[0, 0, 0]	n/a	FR1	1	R1215M
1170.276	0.883	945919	WORD_OFF	n/a	n/a	SPEAR	1	6	[0, 0, 0]	n/a	FR1	1	R1215M
1171.159	1.617	946802	WORD	n/a	wordpools/wordpool_EN.txt	SWORD	2	6	[0, 0, 0]	n/a	FR1	1	R1215M
1172.776	0.85	948419	WORD_OFF	n/a	n/a	SWORD	2	6	[0, 0, 0]	n/a	FR1	1	R1215M
1173.626	1.617	949269	WORD	n/a	wordpools/wordpool_EN.txt	CROWN	3	6	[0, 0, 0]	n/a	FR1	1	R1215M
1175.243	0.817	950886	WORD_OFF	n/a	n/a	CROWN	3	6	[0, 0, 0]	n/a	FR1	1	R1215M
1176.06	1.617	951703	WORD	n/a	wordpools/wordpool_EN.txt	PRINCE	4	6	[0, 0, 0]	n/a	FR1	1	R1215M
1177.677	0.917	953320	WORD_OFF	n/a	n/a	PRINCE	4	6	[0, 0, 0]	n/a	FR1	1	R1215M
1178.594	1.617	954237	WORD	n/a	wordpools/wordpool_EN.txt	LAWN	5	6	[0, 0, 0]	n/a	FR1	1	R1215M
1180.211	0.933	955854	WORD_OFF	n/a	n/a	LAWN	5	6	[0, 0, 0]	n/a	FR1	1	R1215M
1181.144	1.617	956787	WORD	n/a	wordpools/wordpool_EN.txt	STONE	6	6	[0, 0, 0]	n/a	FR1	1	R1215M
1182.761	0.884	958404	WORD_OFF	n/a	n/a	STONE	6	6	[0, 0, 0]	n/a	FR1	1	R1215M
1183.645	1.617	959287	WORD	n/a	wordpools/wordpool_EN.txt	FACE	7	6	[0, 0, 0]	n/a	FR1	1	R1215M
1185.262	0.817	960904	WORD_OFF	n/a	n/a	FACE	7	6	[0, 0, 0]	n/a	FR1	1	R1215M
1186.079	1.617	961721	WORD	n/a	wordpools/wordpool_EN.txt	HAND	8	6	[0, 0, 0]	n/a	FR1	1	R1215M
1187.696	0.983	963338	WORD_OFF	n/a	n/a	HAND	8	6	[0, 0, 0]	n/a	FR1	1	R1215M
1188.679	1.618	964321	WORD	n/a	wordpools/wordpool_EN.txt	BLOOM	9	6	[0, 0, 0]	n/a	FR1	1	R1215M
1190.297	0.966	965939	WORD_OFF	n/a	n/a	BLOOM	9	6	[0, 0, 0]	n/a	FR1	1	R1215M
1191.263	1.617	966905	WORD	n/a	wordpools/wordpool_EN.txt	PIN	10	6	[0, 0, 0]	n/a	FR1	1	R1215M
1192.88	0.883	968522	WORD_OFF	n/a	n/a	PIN	10	6	[0, 0, 0]	n/a	FR1	1	R1215M
1193.763	1.618	969405	WORD	n/a	wordpools/wordpool_EN.txt	WING	11	6	[0, 0, 0]	n/a	FR1	1	R1215M
1195.381	0.866	971023	WORD_OFF	n/a	n/a	WING	11	6	[0, 0, 0]	n/a	FR1	1	R1215M
1196.247	1.617	971889	WORD	n/a	wordpools/wordpool_EN.txt	BLUSH	12	6	[0, 0, 0]	n/a	FR1	1	R1215M
1197.864	0.0	973506	DISTRACT_START	n/a	n/a	n/a	-999	6	[0, 0, 0]	n/a	FR1	1	R1215M
1197.864	0.001	973506	WORD_OFF	n/a	n/a	BLUSH	12	6	[0, 0, 0]	n/a	FR1	1	R1215M
1197.865	0.016	973507	START	n/a	n/a	n/a	-999	6	[-999, -999, -999]	n/a	FR1	1	R1215M
1197.881	12.019	973523	PROB	12.019	n/a	n/a	-999	6	[1, 2, 2]	510	FR1	1	R1215M
1209.9	5.034	985541	PROB	5.034	n/a	n/a	-999	6	[1, 1, 4]	6	FR1	1	R1215M
1214.934	4.191	990575	PROB	4.191	n/a	n/a	-999	6	[7, 9, 1]	17	FR1	1	R1215M
1219.125	0.01	994765	STOP	n/a	n/a	n/a	-999	6	[-999, -999, -999]	n/a	FR1	1	R1215M
1219.135	0.6	994775	DISTRACT_END	n/a	n/a	n/a	-999	6	[0, 0, 0]	n/a	FR1	1	R1215M
1219.735	0.518	995375	RETRIEVAL_ORIENT	n/a	n/a	n/a	-999	6	[0, 0, 0]	n/a	FR1	1	R1215M
1220.253	12.474	995893	REC_START	n/a	n/a	n/a	-999	6	[0, 0, 0]	n/a	FR1	1	R1215M
1232.727	5.484	1008367	REC_WORD	5.484	n/a	DOLL	-999	6	[0, 0, 0]	n/a	FR1	1	R1215M
1238.211	10.725	1013850	REC_WORD	10.725	n/a	HAND	-999	6	[0, 0, 0]	n/a	FR1	1	R1215M
1248.936	1.329	1024575	REC_WORD	1.329	n/a	CHORE	-999	6	[0, 0, 0]	n/a	FR1	1	R1215M
1250.265	41.085	1025904	REC_END	n/a	n/a	n/a	-999	6	[0, 0, 0]	n/a	FR1	1	R1215M
1291.35	0.5	1066986	TRIAL	n/a	n/a	n/a	-999	7	[0, 0, 0]	n/a	FR1	1	R1215M
1291.85	10.428	1067486	COUNTDOWN_START	n/a	n/a	n/a	-999	7	[0, 0, 0]	n/a	FR1	1	R1215M
1302.278	0.007	1077914	COUNTDOWN_END	n/a	n/a	n/a	-999	7	[0, 0, 0]	n/a	FR1	1	R1215M
1302.285	1.616	1077921	ORIENT	n/a	n/a	n/a	-999	7	[0, 0, 0]	n/a	FR1	1	R1215M
1303.901	2.167	1079537	ORIENT_OFF	n/a	n/a	n/a	-999	7	[0, 0, 0]	n/a	FR1	1	R1215M
1306.068	1.617	1081704	WORD	n/a	wordpools/wordpool_EN.txt	TREE	1	7	[0, 0, 0]	n/a	FR1	1	R1215M
1307.685	0.984	1083320	WORD_OFF	n/a	n/a	TREE	1	7	[0, 0, 0]	n/a	FR1	1	R1215M
1308.669	1.618	1084304	WORD	n/a	wordpools/wordpool_EN.txt	CHALK	2	7	[0, 0, 0]	n/a	FR1	1	R1215M
1310.287	0.966	1085922	WORD_OFF	n/a	n/a	CHALK	2	7	[0, 0, 0]	n/a	FR1	1	R1215M
1311.253	1.617	1086888	WORD	n/a	wordpools/wordpool_EN.txt	TRASH	3	7	[0, 0, 0]	n/a	FR1	1	R1215M
1312.87	1.017	1088505	WORD_OFF	n/a	n/a	TRASH	3	7	[0, 0, 0]	n/a	FR1	1	R1215M
1313.887	1.617	1089522	WORD	n/a	wordpools/wordpool_EN.txt	CLOTH	4	7	[0, 0, 0]	n/a	FR1	1	R1215M
1315.504	0.784	1091139	WORD_OFF	n/a	n/a	CLOTH	4	7	[0, 0, 0]	n/a	FR1	1	R1215M
1316.288	1.616	1091923	WORD	n/a	wordpools/wordpool_EN.txt	ROPE	5	7	[0, 0, 0]	n/a	FR1	1	R1215M
1317.904	0.8	1093539	WORD_OFF	n/a	n/a	ROPE	5	7	[0, 0, 0]	n/a	FR1	1	R1215M
1318.704	1.618	1094339	WORD	n/a	wordpools/wordpool_EN.txt	SNAIL	6	7	[0, 0, 0]	n/a	FR1	1	R1215M
1320.322	0.866	1095957	WORD_OFF	n/a	n/a	SNAIL	6	7	[0, 0, 0]	n/a	FR1	1	R1215M
1321.188	1.617	1096823	WORD	n/a	wordpools/wordpool_EN.txt	COW	7	7	[0, 0, 0]	n/a	FR1	1	R1215M
1322.805	0.784	1098440	WORD_OFF	n/a	n/a	COW	7	7	[0, 0, 0]	n/a	FR1	1	R1215M
1323.589	1.617	1099224	WORD	n/a	wordpools/wordpool_EN.txt	CAGE	8	7	[0, 0, 0]	n/a	FR1	1	R1215M
1325.206	0.916	1100840	WORD_OFF	n/a	n/a	CAGE	8	7	[0, 0, 0]	n/a	FR1	1	R1215M
1326.122	1.617	1101756	WORD	n/a	wordpools/wordpool_EN.txt	MAZE	9	7	[0, 0, 0]	n/a	FR1	1	R1215M
1327.739	0.9	1103373	WORD_OFF	n/a	n/a	MAZE	9	7	[0, 0, 0]	n/a	FR1	1	R1215M
1328.639	1.618	1104273	WORD	n/a	wordpools/wordpool_EN.txt	SHIRT	10	7	[0, 0, 0]	n/a	FR1	1	R1215M
1330.257	0.8	1105891	WORD_OFF	n/a	n/a	SHIRT	10	7	[0, 0, 0]	n/a	FR1	1	R1215M
1331.057	1.617	1106691	WORD	n/a	wordpools/wordpool_EN.txt	LAMB	11	7	[0, 0, 0]	n/a	FR1	1	R1215M
1332.674	0.8	1108308	WORD_OFF	n/a	n/a	LAMB	11	7	[0, 0, 0]	n/a	FR1	1	R1215M
1333.474	1.617	1109108	WORD	n/a	wordpools/wordpool_EN.txt	ARK	12	7	[0, 0, 0]	n/a	FR1	1	R1215M
1335.091	0.0	1110725	WORD_OFF	n/a	n/a	ARK	12	7	[0, 0, 0]	n/a	FR1	1	R1215M
1335.091	0.001	1110725	DISTRACT_START	n/a	n/a	n/a	-999	7	[0, 0, 0]	n/a	FR1	1	R1215M
1335.092	0.015	1110726	START	n/a	n/a	n/a	-999	7	[-999, -999, -999]	n/a	FR1	1	R1215M
1335.107	7.435	1110741	PROB	7.435	n/a	n/a	-999	7	[7, 1, 4]	12	FR1	1	R1215M
1342.542	5.351	1118175	PROB	5.351	n/a	n/a	-999	7	[3, 2, 2]	7	FR1	1	R1215M
1347.893	8.568	1123526	PROB	8.568	n/a	n/a	-999	7	[3, 9, 5]	17	FR1	1	R1215M
1356.461	0.017	1132094	STOP	n/a	n/a	n/a	-999	7	[-999, -999, -999]	n/a	FR1	1	R1215M
1356.478	0.684	1132111	DISTRACT_END	n/a	n/a	n/a	-999	7	[0, 0, 0]	n/a	FR1	1	R1215M
1357.162	0.517	1132795	RETRIEVAL_ORIENT	n/a	n/a	n/a	-999	7	[0, 0, 0]	n/a	FR1	1	R1215M
1357.679	1.831	1133312	REC_START	n/a	n/a	n/a	-999	7	[0, 0, 0]	n/a	FR1	1	R1215M
1359.51	0.788	1135142	REC_WORD	0.788	n/a	TREE	-999	7	[0, 0, 0]	n/a	FR1	1	R1215M
1360.298	5.637	1135930	REC_WORD	5.637	n/a	CHALK	-999	7	[0, 0, 0]	n/a	FR1	1	R1215M
1365.935	8.658	1141567	REC_WORD	8.658	n/a	COW	-999	7	[0, 0, 0]	n/a	FR1	1	R1215M
1374.593	1.442	1150225	REC_WORD	1.442	n/a	SADDLE	-999	7	[0, 0, 0]	n/a	FR1	1	R1215M
1376.035	6.222	1151667	REC_WORD_VV	6.222	n/a	<>	-999	7	[0, 0, 0]	n/a	FR1	1	R1215M
1382.257	5.433	1157888	REC_WORD	5.433	n/a	HAND	-999	7	[0, 0, 0]	n/a	FR1	1	R1215M
1387.69	59.122	1163321	REC_END	n/a	n/a	n/a	-999	7	[0, 0, 0]	n/a	FR1	1	R1215M
1446.812	0.5	1222440	TRIAL	n/a	n/a	n/a	-999	8	[0, 0, 0]	n/a	FR1	1	R1215M
1447.312	10.428	1222939	COUNTDOWN_START	n/a	n/a	n/a	-999	8	[0, 0, 0]	n/a	FR1	1	R1215M
1457.74	0.008	1233367	COUNTDOWN_END	n/a	n/a	n/a	-999	8	[0, 0, 0]	n/a	FR1	1	R1215M
1457.748	1.618	1233375	ORIENT	n/a	n/a	n/a	-999	8	[0, 0, 0]	n/a	FR1	1	R1215M
1459.366	2.299	1234993	ORIENT_OFF	n/a	n/a	n/a	-999	8	[0, 0, 0]	n/a	FR1	1	R1215M
1461.665	1.618	1237292	WORD	n/a	wordpools/wordpool_EN.txt	ROAD	1	8	[0, 0, 0]	n/a	FR1	1	R1215M
1463.283	0.883	1238910	WORD_OFF	n/a	n/a	ROAD	1	8	[0, 0, 0]	n/a	FR1	1	R1215M
1464.166	1.617	1239793	WORD	n/a	wordpools/wordpool_EN.txt	LAND	2	8	[0, 0, 0]	n/a	FR1	1	R1215M
1465.783	0.833	1241409	WORD_OFF	n/a	n/a	LAND	2	8	[0, 0, 0]	n/a	FR1	1	R1215M
1466.616	1.617	1242242	WORD	n/a	wordpools/wordpool_EN.txt	WOOD	3	8	[0, 0, 0]	n/a	FR1	1	R1215M
1468.233	0.967	1243859	WORD_OFF	n/a	n/a	WOOD	3	8	[0, 0, 0]	n/a	FR1	1	R1215M
1469.2	1.617	1244826	WORD	n/a	wordpools/wordpool_EN.txt	SINK	4	8	[0, 0, 0]	n/a	FR1	1	R1215M
1470.817	0.984	1246443	WORD_OFF	n/a	n/a	SINK	4	8	[0, 0, 0]	n/a	FR1	1	R1215M
1471.801	1.618	1247427	WORD	n/a	wordpools/wordpool_EN.txt	PEN	5	8	[0, 0, 0]	n/a	FR1	1	R1215M
1473.419	0.883	1249045	WORD_OFF	n/a	n/a	PEN	5	8	[0, 0, 0]	n/a	FR1	1	R1215M
1474.302	1.616	1249928	WORD	n/a	wordpools/wordpool_EN.txt	CORD	6	8	[0, 0, 0]	n/a	FR1	1	R1215M
1475.918	0.85	1251544	WORD_OFF	n/a	n/a	CORD	6	8	[0, 0, 0]	n/a	FR1	1	R1215M
1476.768	1.618	1252394	WORD	n/a	wordpools/wordpool_EN.txt	SAIL	7	8	[0, 0, 0]	n/a	FR1	1	R1215M
1478.386	0.934	1254012	WORD_OFF	n/a	n/a	SAIL	7	8	[0, 0, 0]	n/a	FR1	1	R1215M
1479.32	1.616	1254946	WORD	n/a	wordpools/wordpool_EN.txt	SCHOOL	8	8	[0, 0, 0]	n/a	FR1	1	R1215M
1480.936	0.766	1256562	WORD_OFF	n/a	n/a	SCHOOL	8	8	[0, 0, 0]	n/a	FR1	1	R1215M
1481.702	1.602	1257328	WORD	n/a	wordpools/wordpool_EN.txt	PLATE	9	8	[0, 0, 0]	n/a	FR1	1	R1215M
1483.304	0.832	1258929	WORD_OFF	n/a	n/a	PLATE	9	8	[0, 0, 0]	n/a	FR1	1	R1215M
1484.136	1.617	1259761	WORD	n/a	wordpools/wordpool_EN.txt	TRAY	10	8	[0, 0, 0]	n/a	FR1	1	R1215M
1485.753	0.934	1261378	WORD_OFF	n/a	n/a	TRAY	10	8	[0, 0, 0]	n/a	FR1	1	R1215M
1486.687	1.618	1262312	WORD	n/a	wordpools/wordpool_EN.txt	RAT	11	8	[0, 0, 0]	n/a	FR1	1	R1215M
1488.305	0.816	1263930	WORD_OFF	n/a	n/a	RAT	11	8	[0, 0, 0]	n/a	FR1	1	R1215M
1489.121	1.617	1264746	WORD	n/a	wordpools/wordpool_EN.txt	WHALE	12	8	[0, 0, 0]	n/a	FR1	1	R1215M
1490.738	0.0	1266363	WORD_OFF	n/a	n/a	WHALE	12	8	[0, 0, 0]	n/a	FR1	1	R1215M
1490.738	0.0	1266363	DISTRACT_START	n/a	n/a	n/a	-999	8	[0, 0, 0]	n/a	FR1	1	R1215M
1490.738	0.016	1266363	START	n/a	n/a	n/a	-999	8	[-999, -999, -999]	n/a	FR1	1	R1215M
1490.754	6.702	1266379	PROB	6.702	n/a	n/a	-999	8	[2, 8, 1]	11	FR1	1	R1215M
1497.456	4.2	1273081	PROB	4.2	n/a	n/a	-999	8	[4, 7, 1]	12	FR1	1	R1215M
1501.656	4.268	1277280	PROB	4.268	n/a	n/a	-999	8	[1, 4, 1]	6	FR1	1	R1215M
1505.924	4.101	1281548	PROB	4.101	n/a	n/a	-999	8	[5, 5, 4]	14	FR1	1	R1215M
1510.025	6.188	1285649	PROB	6.188	n/a	n/a	-999	8	[6, 1, 9]	16	FR1	1	R1215M
1516.213	0.013	1291837	STOP	n/a	n/a	n/a	-999	8	[-999, -999, -999]	n/a	FR1	1	R1215M
1516.226	0.533	1291850	DISTRACT_END	n/a	n/a	n/a	-999	8	[0, 0, 0]	n/a	FR1	1	R1215M
1516.759	0.519	1292383	RETRIEVAL_ORIENT	n/a	n/a	n/a	-999	8	[0, 0, 0]	n/a	FR1	1	R1215M
1517.278	2.016	1292902	REC_START	n/a	n/a	n/a	-999	8	[0, 0, 0]	n/a	FR1	1	R1215M
1519.294	2.128	1294917	REC_WORD	2.128	n/a	ROAD	-999	8	[0, 0, 0]	n/a	FR1	1	R1215M
1521.422	2.469	1297045	REC_WORD	2.469	n/a	LAND	-999	8	[0, 0, 0]	n/a	FR1	1	R1215M
1523.891	3.118	1299514	REC_WORD	3.118	n/a	SCHOOL	-999	8	[0, 0, 0]	n/a	FR1	1	R1215M
1527.009	14.214	1302632	REC_WORD	14.214	n/a	PLATE	-999	8	[0, 0, 0]	n/a	FR1	1	R1215M
1541.223	6.067	1316845	REC_WORD	6.067	n/a	TRAY	-999	8	[0, 0, 0]	n/a	FR1	1	R1215M
1547.29	19.729	1322912	REC_END	n/a	n/a	n/a	-999	8	[0, 0, 0]	n/a	FR1	1	R1215M
1567.019	0.5	1342640	TRIAL	n/a	n/a	n/a	-999	9	[0, 0, 0]	n/a	FR1	1	R1215M
1567.519	10.428	1343140	COUNTDOWN_START	n/a	n/a	n/a	-999	9	[0, 0, 0]	n/a	FR1	1	R1215M
1577.947	0.007	1353567	COUNTDOWN_END	n/a	n/a	n/a	-999	9	[0, 0, 0]	n/a	FR1	1	R1215M
1577.954	1.617	1353574	ORIENT	n/a	n/a	n/a	-999	9	[0, 0, 0]	n/a	FR1	1	R1215M
1579.571	2.017	1355191	ORIENT_OFF	n/a	n/a	n/a	-999	9	[0, 0, 0]	n/a	FR1	1	R1215M
1581.588	1.618	1357208	WORD	n/a	wordpools/wordpool_EN.txt	HAT	1	9	[0, 0, 0]	n/a	FR1	1	R1215M
1583.206	0.8	1358826	WORD_OFF	n/a	n/a	HAT	1	9	[0, 0, 0]	n/a	FR1	1	R1215M
1584.006	1.617	1359626	WORD	n/a	wordpools/wordpool_EN.txt	WORM	2	9	[0, 0, 0]	n/a	FR1	1	R1215M
1585.623	0.833	1361243	WORD_OFF	n/a	n/a	WORM	2	9	[0, 0, 0]	n/a	FR1	1	R1215M
1586.456	1.617	1362076	WORD	n/a	wordpools/wordpool_EN.txt	WORLD	3	9	[0, 0, 0]	n/a	FR1	1	R1215M
1588.073	0.9	1363692	WORD_OFF	n/a	n/a	WORLD	3	9	[0, 0, 0]	n/a	FR1	1	R1215M
1588.973	1.617	1364592	WORD	n/a	wordpools/wordpool_EN.txt	VEST	4	9	[0, 0, 0]	n/a	FR1	1	R1215M
1590.59	0.984	1366209	WORD_OFF	n/a	n/a	VEST	4	9	[0, 0, 0]	n/a	FR1	1	R1215M
1591.574	1.617	1367193	WORD	n/a	wordpools/wordpool_EN.txt	HILL	5	9	[0, 0, 0]	n/a	FR1	1	R1215M
1593.191	0.783	1368810	WORD_OFF	n/a	n/a	HILL	5	9	[0, 0, 0]	n/a	FR1	1	R1215M
1593.974	1.617	1369593	WORD	n/a	wordpools/wordpool_EN.txt	PET	6	9	[0, 0, 0]	n/a	FR1	1	R1215M
1595.591	1.017	1371210	WORD_OFF	n/a	n/a	PET	6	9	[0, 0, 0]	n/a	FR1	1	R1215M
1596.608	1.617	1372227	WORD	n/a	wordpools/wordpool_EN.txt	CART	7	9	[0, 0, 0]	n/a	FR1	1	R1215M
1598.225	0.967	1373844	WORD_OFF	n/a	n/a	CART	7	9	[0, 0, 0]	n/a	FR1	1	R1215M
1599.192	1.617	1374811	WORD	n/a	wordpools/wordpool_EN.txt	PEACH	8	9	[0, 0, 0]	n/a	FR1	1	R1215M
1600.809	0.983	1376428	WORD_OFF	n/a	n/a	PEACH	8	9	[0, 0, 0]	n/a	FR1	1	R1215M
1601.792	1.618	1377411	WORD	n/a	wordpools/wordpool_EN.txt	BAG	9	9	[0, 0, 0]	n/a	FR1	1	R1215M
1603.41	0.766	1379029	WORD_OFF	n/a	n/a	BAG	9	9	[0, 0, 0]	n/a	FR1	1	R1215M
1604.176	1.617	1379795	WORD	n/a	wordpools/wordpool_EN.txt	WALL	10	9	[0, 0, 0]	n/a	FR1	1	R1215M
1605.793	0.984	1381411	WORD_OFF	n/a	n/a	WALL	10	9	[0, 0, 0]	n/a	FR1	1	R1215M
1606.777	1.618	1382395	WORD	n/a	wordpools/wordpool_EN.txt	GATE	11	9	[0, 0, 0]	n/a	FR1	1	R1215M
1608.395	0.933	1384013	WORD_OFF	n/a	n/a	GATE	11	9	[0, 0, 0]	n/a	FR1	1	R1215M
1609.328	1.616	1384946	WORD	n/a	wordpools/wordpool_EN.txt	TOAD	12	9	[0, 0, 0]	n/a	FR1	1	R1215M
1610.944	0.0	1386562	WORD_OFF	n/a	n/a	TOAD	12	9	[0, 0, 0]	n/a	FR1	1	R1215M
1610.944	0.001	1386562	DISTRACT_START	n/a	n/a	n/a	-999	9	[0, 0, 0]	n/a	FR1	1	R1215M
1610.945	0.016	1386563	START	n/a	n/a	n/a	-999	9	[-999, -999, -999]	n/a	FR1	1	R1215M
1610.961	8.268	1386579	PROB	8.268	n/a	n/a	-999	9	[8, 5, 6]	19	FR1	1	R1215M
1619.229	7.485	1394847	PROB	7.485	n/a	n/a	-999	9	[8, 2, 5]	15	FR1	1	R1215M
1626.714	10.474	1402331	PROB	10.474	n/a	n/a	-999	9	[3, 3, 8]	14	FR1	1	R1215M
1637.188	0.011	1412805	STOP	n/a	n/a	n/a	-999	9	[-999, -999, -999]	n/a	FR1	1	R1215M
1637.199	0.567	1412816	DISTRACT_END	n/a	n/a	n/a	-999	9	[0, 0, 0]	n/a	FR1	1	R1215M
1637.766	0.519	1413383	RETRIEVAL_ORIENT	n/a	n/a	n/a	-999	9	[0, 0, 0]	n/a	FR1	1	R1215M
1638.285	1.404	1413902	REC_START	n/a	n/a	n/a	-999	9	[0, 0, 0]	n/a	FR1	1	R1215M
1639.689	1.8	1415306	REC_WORD	1.8	n/a	HAT	-999	9	[0, 0, 0]	n/a	FR1	1	R1215M
1641.489	2.531	1417105	REC_WORD	2.531	n/a	WORM	-999	9	[0, 0, 0]	n/a	FR1	1	R1215M
1644.02	5.707	1419636	REC_WORD	5.707	n/a	WORLD	-999	9	[0, 0, 0]	n/a	FR1	1	R1215M
1649.727	5.559	1425343	REC_WORD	5.559	n/a	PEACH	-999	9	[0, 0, 0]	n/a	FR1	1	R1215M
1655.286	13.011	1430902	REC_WORD	13.011	n/a	VEST	-999	9	[0, 0, 0]	n/a	FR1	1	R1215M
1668.297	33.398	1443912	REC_END	n/a	n/a	n/a	-999	9	[0, 0, 0]	n/a	FR1	1	R1215M
1701.695	0.5	1477308	TRIAL	n/a	n/a	n/a	-999	10	[0, 0, 0]	n/a	FR1	1	R1215M
1702.195	10.428	1477808	COUNTDOWN_START	n/a	n/a	n/a	-999	10	[0, 0, 0]	n/a	FR1	1	R1215M
1712.623	0.008	1488235	COUNTDOWN_END	n/a	n/a	n/a	-999	10	[0, 0, 0]	n/a	FR1	1	R1215M
1712.631	1.617	1488243	ORIENT	n/a	n/a	n/a	-999	10	[0, 0, 0]	n/a	FR1	1	R1215M
1714.248	2.101	1489860	ORIENT_OFF	n/a	n/a	n/a	-999	10	[0, 0, 0]	n/a	FR1	1	R1215M
1716.349	1.616	1491961	WORD	n/a	wordpools/wordpool_EN.txt	BRIDGE	1	10	[0, 0, 0]	n/a	FR1	1	R1215M
1717.965	0.933	1493577	WORD_OFF	n/a	n/a	BRIDGE	1	10	[0, 0, 0]	n/a	FR1	1	R1215M
1718.898	1.617	1494510	WORD	n/a	wordpools/wordpool_EN.txt	HOOK	2	10	[0, 0, 0]	n/a	FR1	1	R1215M
1720.515	0.885	1496127	WORD_OFF	n/a	n/a	HOOK	2	10	[0, 0, 0]	n/a	FR1	1	R1215M
1721.4	1.616	1497012	WORD	n/a	wordpools/wordpool_EN.txt	BEE	3	10	[0, 0, 0]	n/a	FR1	1	R1215M
1723.016	0.883	1498628	WORD_OFF	n/a	n/a	BEE	3	10	[0, 0, 0]	n/a	FR1	1	R1215M
1723.899	1.617	1499511	WORD	n/a	wordpools/wordpool_EN.txt	BEACH	4	10	[0, 0, 0]	n/a	FR1	1	R1215M
1725.516	0.984	1501128	WORD_OFF	n/a	n/a	BEACH	4	10	[0, 0, 0]	n/a	FR1	1	R1215M
1726.5	1.617	1502112	WORD	n/a	wordpools/wordpool_EN.txt	SPARK	5	10	[0, 0, 0]	n/a	FR1	1	R1215M
1728.117	0.95	1503729	WORD_OFF	n/a	n/a	SPARK	5	10	[0, 0, 0]	n/a	FR1	1	R1215M
1729.067	1.617	1504678	WORD	n/a	wordpools/wordpool_EN.txt	STORM	6	10	[0, 0, 0]	n/a	FR1	1	R1215M
1730.684	0.833	1506295	WORD_OFF	n/a	n/a	STORM	6	10	[0, 0, 0]	n/a	FR1	1	R1215M
1731.517	1.618	1507128	WORD	n/a	wordpools/wordpool_EN.txt	FLAG	7	10	[0, 0, 0]	n/a	FR1	1	R1215M
1733.135	0.833	1508746	WORD_OFF	n/a	n/a	FLAG	7	10	[0, 0, 0]	n/a	FR1	1	R1215M
1733.968	1.617	1509579	WORD	n/a	wordpools/wordpool_EN.txt	DART	8	10	[0, 0, 0]	n/a	FR1	1	R1215M
1735.585	0.883	1511196	WORD_OFF	n/a	n/a	DART	8	10	[0, 0, 0]	n/a	FR1	1	R1215M
1736.468	1.617	1512079	WORD	n/a	wordpools/wordpool_EN.txt	BAND	9	10	[0, 0, 0]	n/a	FR1	1	R1215M
1738.085	0.851	1513696	WORD_OFF	n/a	n/a	BAND	9	10	[0, 0, 0]	n/a	FR1	1	R1215M
1738.936	1.617	1514547	WORD	n/a	wordpools/wordpool_EN.txt	MOUSE	10	10	[0, 0, 0]	n/a	FR1	1	R1215M
1740.553	0.784	1516164	WORD_OFF	n/a	n/a	MOUSE	10	10	[0, 0, 0]	n/a	FR1	1	R1215M
1741.337	1.616	1516948	WORD	n/a	wordpools/wordpool_EN.txt	ROOM	11	10	[0, 0, 0]	n/a	FR1	1	R1215M
1742.953	0.8	1518564	WORD_OFF	n/a	n/a	ROOM	11	10	[0, 0, 0]	n/a	FR1	1	R1215M
1743.753	1.601	1519364	WORD	n/a	wordpools/wordpool_EN.txt	BOARD	12	10	[0, 0, 0]	n/a	FR1	1	R1215M
1745.354	0.0	1520965	WORD_OFF	n/a	n/a	BOARD	12	10	[0, 0, 0]	n/a	FR1	1	R1215M
1745.354	0.001	1520965	DISTRACT_START	n/a	n/a	n/a	-999	10	[0, 0, 0]	n/a	FR1	1	R1215M
1745.355	0.016	1520966	START	n/a	n/a	n/a	-999	10	[-999, -999, -999]	n/a	FR1	1	R1215M
1745.371	11.185	1520982	PROB	11.185	n/a	n/a	-999	10	[5, 7, 2]	14	FR1	1	R1215M
1756.556	3.768	1532166	PROB	3.768	n/a	n/a	-999	10	[3, 1, 9]	13	FR1	1	R1215M
1760.324	4.517	1535934	PROB	4.517	n/a	n/a	-999	10	[2, 3, 9]	14	FR1	1	R1215M
1764.841	5.091	1540450	PROB	5.091	n/a	n/a	-999	10	[4, 2, 4]	10	FR1	1	R1215M
1769.932	0.01	1545541	STOP	n/a	n/a	n/a	-999	10	[-999, -999, -999]	n/a	FR1	1	R1215M
1769.942	0.583	1545551	DISTRACT_END	n/a	n/a	n/a	-999	10	[0, 0, 0]	n/a	FR1	1	R1215M
1770.525	0.517	1546134	RETRIEVAL_ORIENT	n/a	n/a	n/a	-999	10	[0, 0, 0]	n/a	FR1	1	R1215M
1771.042	2.76	1546651	REC_START	n/a	n/a	n/a	-999	10	[0, 0, 0]	n/a	FR1	1	R1215M
1773.802	2.422	1549411	REC_WORD	2.422	n/a	SPARK	-999	10	[0, 0, 0]	n/a	FR1	1	R1215M
1776.224	4.193	1551833	REC_WORD	4.193	n/a	BRIDGE	-999	10	[0, 0, 0]	n/a	FR1	1	R1215M
1780.417	2.962	1556026	REC_WORD	2.962	n/a	WOOD	-999	10	[0, 0, 0]	n/a	FR1	1	R1215M
1783.379	17.674	1558987	REC_WORD	17.674	n/a	FLY	-999	10	[0, 0, 0]	n/a	FR1	1	R1215M
1801.053	43.97	1576660	REC_END	n/a	n/a	n/a	-999	10	[0, 0, 0]	n/a	FR1	1	R1215M
1845.023	0.5	1620628	TRIAL	n/a	n/a	n/a	-999	11	[0, 0, 0]	n/a	FR1	1	R1215M
1845.523	10.428	1621128	COUNTDOWN_START	n/a	n/a	n/a	-999	11	[0, 0, 0]	n/a	FR1	1	R1215M
1855.951	0.007	1631555	COUNTDOWN_END	n/a	n/a	n/a	-999	11	[0, 0, 0]	n/a	FR1	1	R1215M
1855.958	1.617	1631562	ORIENT	n/a	n/a	n/a	-999	11	[0, 0, 0]	n/a	FR1	1	R1215M
1857.575	2.167	1633179	ORIENT_OFF	n/a	n/a	n/a	-999	11	[0, 0, 0]	n/a	FR1	1	R1215M
1859.742	1.601	1635346	WORD	n/a	wordpools/wordpool_EN.txt	APE	1	11	[0, 0, 0]	n/a	FR1	1	R1215M
1861.343	0.917	1636947	WORD_OFF	n/a	n/a	APE	1	11	[0, 0, 0]	n/a	FR1	1	R1215M
1862.26	1.617	1637864	WORD	n/a	wordpools/wordpool_EN.txt	ROCK	2	11	[0, 0, 0]	n/a	FR1	1	R1215M
1863.877	0.883	1639481	WORD_OFF	n/a	n/a	ROCK	2	11	[0, 0, 0]	n/a	FR1	1	R1215M
1864.76	1.618	1640364	WORD	n/a	wordpools/wordpool_EN.txt	TEETH	3	11	[0, 0, 0]	n/a	FR1	1	R1215M
1866.378	0.9	1641982	WORD_OFF	n/a	n/a	TEETH	3	11	[0, 0, 0]	n/a	FR1	1	R1215M
1867.278	1.616	1642882	WORD	n/a	wordpools/wordpool_EN.txt	PANTS	4	11	[0, 0, 0]	n/a	FR1	1	R1215M
1868.894	0.884	1644498	WORD_OFF	n/a	n/a	PANTS	4	11	[0, 0, 0]	n/a	FR1	1	R1215M
1869.778	1.618	1645381	WORD	n/a	wordpools/wordpool_EN.txt	CASH	5	11	[0, 0, 0]	n/a	FR1	1	R1215M
1871.396	0.832	1646999	WORD_OFF	n/a	n/a	CASH	5	11	[0, 0, 0]	n/a	FR1	1	R1215M
1872.228	1.617	1647831	WORD	n/a	wordpools/wordpool_EN.txt	VASE	6	11	[0, 0, 0]	n/a	FR1	1	R1215M
1873.845	0.934	1649448	WORD_OFF	n/a	n/a	VASE	6	11	[0, 0, 0]	n/a	FR1	1	R1215M
1874.779	1.618	1650382	WORD	n/a	wordpools/wordpool_EN.txt	YARD	7	11	[0, 0, 0]	n/a	FR1	1	R1215M
1876.397	0.917	1652000	WORD_OFF	n/a	n/a	YARD	7	11	[0, 0, 0]	n/a	FR1	1	R1215M
1877.314	1.615	1652917	WORD	n/a	wordpools/wordpool_EN.txt	GOAT	8	11	[0, 0, 0]	n/a	FR1	1	R1215M
1878.929	0.801	1654532	WORD_OFF	n/a	n/a	GOAT	8	11	[0, 0, 0]	n/a	FR1	1	R1215M
1879.73	1.601	1655333	WORD	n/a	wordpools/wordpool_EN.txt	BENCH	9	11	[0, 0, 0]	n/a	FR1	1	R1215M
1881.331	0.832	1656934	WORD_OFF	n/a	n/a	BENCH	9	11	[0, 0, 0]	n/a	FR1	1	R1215M
1882.163	1.617	1657766	WORD	n/a	wordpools/wordpool_EN.txt	CLOUD	10	11	[0, 0, 0]	n/a	FR1	1	R1215M
1883.78	0.801	1659383	WORD_OFF	n/a	n/a	CLOUD	10	11	[0, 0, 0]	n/a	FR1	1	R1215M
1884.581	1.617	1660184	WORD	n/a	wordpools/wordpool_EN.txt	CONE	11	11	[0, 0, 0]	n/a	FR1	1	R1215M
1886.198	0.833	1661801	WORD_OFF	n/a	n/a	CONE	11	11	[0, 0, 0]	n/a	FR1	1	R1215M
1887.031	1.617	1662634	WORD	n/a	wordpools/wordpool_EN.txt	STORE	12	11	[0, 0, 0]	n/a	FR1	1	R1215M
1888.648	0.0	1664250	WORD_OFF	n/a	n/a	STORE	12	11	[0, 0, 0]	n/a	FR1	1	R1215M
1888.648	0.001	1664250	DISTRACT_START	n/a	n/a	n/a	-999	11	[0, 0, 0]	n/a	FR1	1	R1215M
1888.649	0.016	1664251	START	n/a	n/a	n/a	-999	11	[-999, -999, -999]	n/a	FR1	1	R1215M
1888.665	6.818	1664267	PROB	6.818	n/a	n/a	-999	11	[8, 3, 2]	13	FR1	1	R1215M
1895.483	5.151	1671085	PROB	5.151	n/a	n/a	-999	11	[5, 9, 9]	23	FR1	1	R1215M
1900.634	8.538	1676236	PROB	8.538	n/a	n/a	-999	11	[8, 1, 6]	15	FR1	1	R1215M
1909.172	0.013	1684773	STOP	n/a	n/a	n/a	-999	11	[-999, -999, -999]	n/a	FR1	1	R1215M
1909.185	0.684	1684786	DISTRACT_END	n/a	n/a	n/a	-999	11	[0, 0, 0]	n/a	FR1	1	R1215M
1909.869	0.518	1685470	RETRIEVAL_ORIENT	n/a	n/a	n/a	-999	11	[0, 0, 0]	n/a	FR1	1	R1215M
1910.387	1.506	1685988	REC_START	n/a	n/a	n/a	-999	11	[0, 0, 0]	n/a	FR1	1	R1215M
1911.893	2.448	1687494	REC_WORD	2.448	n/a	APE	-999	11	[0, 0, 0]	n/a	FR1	1	R1215M
1914.341	4.454	1689942	REC_WORD	4.454	n/a	ROD	-999	11	[0, 0, 0]	n/a	FR1	1	R1215M
1918.795	12.826	1694396	REC_WORD	12.826	n/a	ROCK	-999	11	[0, 0, 0]	n/a	FR1	1	R1215M
1931.621	8.778	1707221	REC_WORD	8.778	n/a	CANNON	-999	11	[0, 0, 0]	n/a	FR1	1	R1215M
1940.399	21.446	1715998	REC_END	n/a	n/a	n/a	-999	11	[0, 0, 0]	n/a	FR1	1	R1215M
1961.845	0.5	1737443	TRIAL	n/a	n/a	n/a	-999	12	[0, 0, 0]	n/a	FR1	1	R1215M
1962.345	10.428	1737943	COUNTDOWN_START	n/a	n/a	n/a	-999	12	[0, 0, 0]	n/a	FR1	1	R1215M
1972.773	0.008	1748371	COUNTDOWN_END	n/a	n/a	n/a	-999	12	[0, 0, 0]	n/a	FR1	1	R1215M
1972.781	1.618	1748379	ORIENT	n/a	n/a	n/a	-999	12	[0, 0, 0]	n/a	FR1	1	R1215M
1974.399	2.266	1749997	ORIENT_OFF	n/a	n/a	n/a	-999	12	[0, 0, 0]	n/a	FR1	1	R1215M
1976.665	1.618	1752262	WORD	n/a	wordpools/wordpool_EN.txt	GUARD	1	12	[0, 0, 0]	n/a	FR1	1	R1215M
1978.283	0.866	1753880	WORD_OFF	n/a	n/a	GUARD	1	12	[0, 0, 0]	n/a	FR1	1	R1215M
1979.149	1.617	1754746	WORD	n/a	wordpools/wordpool_EN.txt	GOLD	2	12	[0, 0, 0]	n/a	FR1	1	R1215M
1980.766	0.783	1756363	WORD_OFF	n/a	n/a	GOLD	2	12	[0, 0, 0]	n/a	FR1	1	R1215M
1981.549	1.617	1757146	WORD	n/a	wordpools/wordpool_EN.txt	NAIL	3	12	[0, 0, 0]	n/a	FR1	1	R1215M
1983.166	0.934	1758763	WORD_OFF	n/a	n/a	NAIL	3	12	[0, 0, 0]	n/a	FR1	1	R1215M
1984.1	1.617	1759697	WORD	n/a	wordpools/wordpool_EN.txt	TOOTH	4	12	[0, 0, 0]	n/a	FR1	1	R1215M
1985.717	1.017	1761314	WORD_OFF	n/a	n/a	TOOTH	4	12	[0, 0, 0]	n/a	FR1	1	R1215M
1986.734	1.601	1762331	WORD	n/a	wordpools/wordpool_EN.txt	GLASS	5	12	[0, 0, 0]	n/a	FR1	1	R1215M
1988.335	0.916	1763932	WORD_OFF	n/a	n/a	GLASS	5	12	[0, 0, 0]	n/a	FR1	1	R1215M
1989.251	1.617	1764848	WORD	n/a	wordpools/wordpool_EN.txt	FORK	6	12	[0, 0, 0]	n/a	FR1	1	R1215M
1990.868	0.817	1766465	WORD_OFF	n/a	n/a	FORK	6	12	[0, 0, 0]	n/a	FR1	1	R1215M
1991.685	1.618	1767282	WORD	n/a	wordpools/wordpool_EN.txt	RAKE	7	12	[0, 0, 0]	n/a	FR1	1	R1215M
1993.303	0.799	1768899	WORD_OFF	n/a	n/a	RAKE	7	12	[0, 0, 0]	n/a	FR1	1	R1215M
1994.102	1.617	1769698	WORD	n/a	wordpools/wordpool_EN.txt	BROOM	8	12	[0, 0, 0]	n/a	FR1	1	R1215M
1995.719	0.783	1771315	WORD_OFF	n/a	n/a	BROOM	8	12	[0, 0, 0]	n/a	FR1	1	R1215M
1996.502	1.617	1772098	WORD	n/a	wordpools/wordpool_EN.txt	CUBE	9	12	[0, 0, 0]	n/a	FR1	1	R1215M
1998.119	0.967	1773715	WORD_OFF	n/a	n/a	CUBE	9	12	[0, 0, 0]	n/a	FR1	1	R1215M
1999.086	1.617	1774682	WORD	n/a	wordpools/wordpool_EN.txt	STEAK	10	12	[0, 0, 0]	n/a	FR1	1	R1215M
2000.703	0.85	1776299	WORD_OFF	n/a	n/a	STEAK	10	12	[0, 0, 0]	n/a	FR1	1	R1215M
2001.553	1.617	1777149	WORD	n/a	wordpools/wordpool_EN.txt	SIGN	11	12	[0, 0, 0]	n/a	FR1	1	R1215M
2003.17	0.783	1778766	WORD_OFF	n/a	n/a	SIGN	11	12	[0, 0, 0]	n/a	FR1	1	R1215M
2003.953	1.618	1779549	WORD	n/a	wordpools/wordpool_EN.txt	STICK	12	12	[0, 0, 0]	n/a	FR1	1	R1215M
2005.571	0.0	1781167	DISTRACT_START	n/a	n/a	n/a	-999	12	[0, 0, 0]	n/a	FR1	1	R1215M
2005.571	0.0	1781167	WORD_OFF	n/a	n/a	STICK	12	12	[0, 0, 0]	n/a	FR1	1	R1215M
2005.571	0.016	1781167	START	n/a	n/a	n/a	-999	12	[-999, -999, -999]	n/a	FR1	1	R1215M
2005.587	5.935	1781183	PROB	5.935	n/a	n/a	-999	12	[2, 3, 4]	9	FR1	1	R1215M
2011.522	3.684	1787117	PROB	3.684	n/a	n/a	-999	12	[3, 2, 5]	10	FR1	1	R1215M
2015.206	4.202	1790801	PROB	4.202	n/a	n/a	-999	12	[7, 3, 6]	16	FR1	1	R1215M
2019.408	2.549	1795003	PROB	2.549	n/a	n/a	-999	12	[1, 1, 1]	3	FR1	1	R1215M
2021.957	4.408	1797552	PROB	4.408	n/a	n/a	-999	12	[4, 9, 7]	20	FR1	1	R1215M
2026.365	0.011	1801960	STOP	n/a	n/a	n/a	-999	12	[-999, -999, -999]	n/a	FR1	1	R1215M
2026.376	0.632	1801971	DISTRACT_END	n/a	n/a	n/a	-999	12	[0, 0, 0]	n/a	FR1	1	R1215M
2027.008	0.518	1802603	RETRIEVAL_ORIENT	n/a	n/a	n/a	-999	12	[0, 0, 0]	n/a	FR1	1	R1215M
2027.526	1.759	1803121	REC_START	n/a	n/a	n/a	-999	12	[0, 0, 0]	n/a	FR1	1	R1215M
2029.285	1.145	1804879	REC_WORD	1.145	n/a	BROOM	-999	12	[0, 0, 0]	n/a	FR1	1	R1215M
2030.43	3.188	1806024	REC_WORD	3.188	n/a	GOLD	-999	12	[0, 0, 0]	n/a	FR1	1	R1215M
2033.618	4.709	1809212	REC_WORD	4.709	n/a	CUBE	-999	12	[0, 0, 0]	n/a	FR1	1	R1215M
2038.327	3.094	1813921	REC_WORD	3.094	n/a	ICE	-999	12	[0, 0, 0]	n/a	FR1	1	R1215M
2041.421	1.088	1817015	REC_WORD	1.088	n/a	TEETH	-999	12	[0, 0, 0]	n/a	FR1	1	R1215M
2042.509	10.409	1818103	REC_WORD	10.409	n/a	TOOTH	-999	12	[0, 0, 0]	n/a	FR1	1	R1215M
2052.918	4.619	1828511	REC_WORD	4.619	n/a	ACE	-999	12	[0, 0, 0]	n/a	FR1	1	R1215M
2057.537	44.119	1833130	REC_END	n/a	n/a	n/a	-999	12	[0, 0, 0]	n/a	FR1	1	R1215M
2101.656	0.5	1877246	TRIAL	n/a	n/a	n/a	-999	13	[0, 0, 0]	n/a	FR1	1	R1215M
2102.156	10.428	1877746	COUNTDOWN_START	n/a	n/a	n/a	-999	13	[0, 0, 0]	n/a	FR1	1	R1215M
2112.584	0.007	1888174	COUNTDOWN_END	n/a	n/a	n/a	-999	13	[0, 0, 0]	n/a	FR1	1	R1215M
2112.591	1.617	1888181	ORIENT	n/a	n/a	n/a	-999	13	[0, 0, 0]	n/a	FR1	1	R1215M
2114.208	1.951	1889798	ORIENT_OFF	n/a	n/a	n/a	-999	13	[0, 0, 0]	n/a	FR1	1	R1215M
2116.159	1.617	1891749	WORD	n/a	wordpools/wordpool_EN.txt	BOY	1	13	[0, 0, 0]	n/a	FR1	1	R1215M
2117.776	1.017	1893365	WORD_OFF	n/a	n/a	BOY	1	13	[0, 0, 0]	n/a	FR1	1	R1215M
2118.793	1.618	1894382	WORD	n/a	wordpools/wordpool_EN.txt	FLUTE	2	13	[0, 0, 0]	n/a	FR1	1	R1215M
2120.411	0.765	1896000	WORD_OFF	n/a	n/a	FLUTE	2	13	[0, 0, 0]	n/a	FR1	1	R1215M
2121.176	1.617	1896765	WORD	n/a	wordpools/wordpool_EN.txt	FOAM	3	13	[0, 0, 0]	n/a	FR1	1	R1215M
2122.793	0.917	1898382	WORD_OFF	n/a	n/a	FOAM	3	13	[0, 0, 0]	n/a	FR1	1	R1215M
2123.71	1.618	1899299	WORD	n/a	wordpools/wordpool_EN.txt	GRAPE	4	13	[0, 0, 0]	n/a	FR1	1	R1215M
2125.328	1.0	1900917	WORD_OFF	n/a	n/a	GRAPE	4	13	[0, 0, 0]	n/a	FR1	1	R1215M
2126.328	1.616	1901917	WORD	n/a	wordpools/wordpool_EN.txt	BRUSH	5	13	[0, 0, 0]	n/a	FR1	1	R1215M
2127.944	0.934	1903533	WORD_OFF	n/a	n/a	BRUSH	5	13	[0, 0, 0]	n/a	FR1	1	R1215M
2128.878	1.617	1904467	WORD	n/a	wordpools/wordpool_EN.txt	CLOCK	6	13	[0, 0, 0]	n/a	FR1	1	R1215M
2130.495	0.851	1906084	WORD_OFF	n/a	n/a	CLOCK	6	13	[0, 0, 0]	n/a	FR1	1	R1215M
2131.346	1.616	1906935	WORD	n/a	wordpools/wordpool_EN.txt	BED	7	13	[0, 0, 0]	n/a	FR1	1	R1215M
2132.962	0.884	1908551	WORD_OFF	n/a	n/a	BED	7	13	[0, 0, 0]	n/a	FR1	1	R1215M
2133.846	1.617	1909434	WORD	n/a	wordpools/wordpool_EN.txt	PEAR	8	13	[0, 0, 0]	n/a	FR1	1	R1215M
2135.463	0.851	1911051	WORD_OFF	n/a	n/a	PEAR	8	13	[0, 0, 0]	n/a	FR1	1	R1215M
2136.314	1.616	1911902	WORD	n/a	wordpools/wordpool_EN.txt	SNAKE	9	13	[0, 0, 0]	n/a	FR1	1	R1215M
2137.93	0.917	1913518	WORD_OFF	n/a	n/a	SNAKE	9	13	[0, 0, 0]	n/a	FR1	1	R1215M
2138.847	1.616	1914435	WORD	n/a	wordpools/wordpool_EN.txt	RAIN	10	13	[0, 0, 0]	n/a	FR1	1	R1215M
2140.463	0.784	1916051	WORD_OFF	n/a	n/a	RAIN	10	13	[0, 0, 0]	n/a	FR1	1	R1215M
2141.247	1.617	1916835	WORD	n/a	wordpools/wordpool_EN.txt	INK	11	13	[0, 0, 0]	n/a	FR1	1	R1215M
2142.864	0.817	1918452	WORD_OFF	n/a	n/a	INK	11	13	[0, 0, 0]	n/a	FR1	1	R1215M
2143.681	1.618	1919269	WORD	n/a	wordpools/wordpool_EN.txt	TOOL	12	13	[0, 0, 0]	n/a	FR1	1	R1215M
2145.299	0.0	1920887	WORD_OFF	n/a	n/a	TOOL	12	13	[0, 0, 0]	n/a	FR1	1	R1215M
2145.299	0.0	1920887	DISTRACT_START	n/a	n/a	n/a	-999	13	[0, 0, 0]	n/a	FR1	1	R1215M
2145.299	0.016	1920887	START	n/a	n/a	n/a	-999	13	[-999, -999, -999]	n/a	FR1	1	R1215M
2145.315	6.317	1920903	PROB	6.317	n/a	n/a	-999	13	[4, 3, 3]	10	FR1	1	R1215M
2151.632	4.885	1927219	PROB	4.885	n/a	n/a	-999	13	[2, 1, 4]	7	FR1	1	R1215M
2156.517	3.284	1932104	PROB	3.284	n/a	n/a	-999	13	[4, 4, 4]	12	FR1	1	R1215M
2159.801	4.35	1935388	PROB	4.35	n/a	n/a	-999	13	[6, 8, 6]	20	FR1	1	R1215M
2164.151	6.133	1939738	PROB	6.133	n/a	n/a	-999	13	[9, 6, 9]	24	FR1	1	R1215M
2170.284	0.02	1945870	STOP	n/a	n/a	n/a	-999	13	[-999, -999, -999]	n/a	FR1	1	R1215M
2170.304	0.549	1945890	DISTRACT_END	n/a	n/a	n/a	-999	13	[0, 0, 0]	n/a	FR1	1	R1215M
2170.853	0.519	1946439	RETRIEVAL_ORIENT	n/a	n/a	n/a	-999	13	[0, 0, 0]	n/a	FR1	1	R1215M
2171.372	1.537	1946958	REC_START	n/a	n/a	n/a	-999	13	[0, 0, 0]	n/a	FR1	1	R1215M
2172.909	1.013	1948495	REC_WORD	1.013	n/a	BOY	-999	13	[0, 0, 0]	n/a	FR1	1	R1215M
2173.922	4.855	1949508	REC_WORD	4.855	n/a	BRUSH	-999	13	[0, 0, 0]	n/a	FR1	1	R1215M
2178.777	5.777	1954363	REC_WORD_VV	5.777	n/a	<>	-999	13	[0, 0, 0]	n/a	FR1	1	R1215M
2184.554	8.122	1960140	REC_WORD	8.122	n/a	GROWN	-999	13	[0, 0, 0]	n/a	FR1	1	R1215M
2192.676	2.993	1968261	REC_WORD	2.993	n/a	BED	-999	13	[0, 0, 0]	n/a	FR1	1	R1215M
2195.669	3.115	1971254	REC_WORD_VV	3.115	n/a	<>	-999	13	[0, 0, 0]	n/a	FR1	1	R1215M
2198.784	2.597	1974369	REC_WORD	2.597	n/a	BED	-999	13	[0, 0, 0]	n/a	FR1	1	R1215M
2201.381	37.368	1976966	REC_END	n/a	n/a	n/a	-999	13	[0, 0, 0]	n/a	FR1	1	R1215M
2238.749	0.5	2014332	TRIAL	n/a	n/a	n/a	-999	14	[0, 0, 0]	n/a	FR1	1	R1215M
2239.249	10.428	2014832	COUNTDOWN_START	n/a	n/a	n/a	-999	14	[0, 0, 0]	n/a	FR1	1	R1215M
2249.677	0.008	2025259	COUNTDOWN_END	n/a	n/a	n/a	-999	14	[0, 0, 0]	n/a	FR1	1	R1215M
2249.685	1.618	2025267	ORIENT	n/a	n/a	n/a	-999	14	[0, 0, 0]	n/a	FR1	1	R1215M
2251.303	1.782	2026885	ORIENT_OFF	n/a	n/a	n/a	-999	14	[0, 0, 0]	n/a	FR1	1	R1215M
2253.085	1.617	2028667	WORD	n/a	wordpools/wordpool_EN.txt	JAIL	1	14	[0, 0, 0]	n/a	FR1	1	R1215M
2254.702	0.9	2030284	WORD_OFF	n/a	n/a	JAIL	1	14	[0, 0, 0]	n/a	FR1	1	R1215M
2255.602	1.617	2031184	WORD	n/a	wordpools/wordpool_EN.txt	WEED	2	14	[0, 0, 0]	n/a	FR1	1	R1215M
2257.219	0.901	2032800	WORD_OFF	n/a	n/a	WEED	2	14	[0, 0, 0]	n/a	FR1	1	R1215M
2258.12	1.617	2033701	WORD	n/a	wordpools/wordpool_EN.txt	VAN	3	14	[0, 0, 0]	n/a	FR1	1	R1215M
2259.737	0.783	2035318	WORD_OFF	n/a	n/a	VAN	3	14	[0, 0, 0]	n/a	FR1	1	R1215M
2260.52	1.617	2036101	WORD	n/a	wordpools/wordpool_EN.txt	SMOKE	4	14	[0, 0, 0]	n/a	FR1	1	R1215M
2262.137	0.917	2037718	WORD_OFF	n/a	n/a	SMOKE	4	14	[0, 0, 0]	n/a	FR1	1	R1215M
2263.054	1.617	2038635	WORD	n/a	wordpools/wordpool_EN.txt	PIPE	5	14	[0, 0, 0]	n/a	FR1	1	R1215M
2264.671	1.0	2040252	WORD_OFF	n/a	n/a	PIPE	5	14	[0, 0, 0]	n/a	FR1	1	R1215M
2265.671	1.618	2041252	WORD	n/a	wordpools/wordpool_EN.txt	BOMB	6	14	[0, 0, 0]	n/a	FR1	1	R1215M
2267.289	1.0	2042870	WORD_OFF	n/a	n/a	BOMB	6	14	[0, 0, 0]	n/a	FR1	1	R1215M
2268.289	1.616	2043870	WORD	n/a	wordpools/wordpool_EN.txt	COIN	7	14	[0, 0, 0]	n/a	FR1	1	R1215M
2269.905	0.934	2045486	WORD_OFF	n/a	n/a	COIN	7	14	[0, 0, 0]	n/a	FR1	1	R1215M
2270.839	1.617	2046420	WORD	n/a	wordpools/wordpool_EN.txt	SOAP	8	14	[0, 0, 0]	n/a	FR1	1	R1215M
2272.456	0.901	2048037	WORD_OFF	n/a	n/a	SOAP	8	14	[0, 0, 0]	n/a	FR1	1	R1215M
2273.357	1.616	2048938	WORD	n/a	wordpools/wordpool_EN.txt	MILK	9	14	[0, 0, 0]	n/a	FR1	1	R1215M
2274.973	0.95	2050553	WORD_OFF	n/a	n/a	MILK	9	14	[0, 0, 0]	n/a	FR1	1	R1215M
2275.923	1.617	2051503	WORD	n/a	wordpools/wordpool_EN.txt	CLOWN	10	14	[0, 0, 0]	n/a	FR1	1	R1215M
2277.54	0.851	2053120	WORD_OFF	n/a	n/a	CLOWN	10	14	[0, 0, 0]	n/a	FR1	1	R1215M
2278.391	1.616	2053971	WORD	n/a	wordpools/wordpool_EN.txt	FARM	11	14	[0, 0, 0]	n/a	FR1	1	R1215M
2280.007	0.9	2055587	WORD_OFF	n/a	n/a	FARM	11	14	[0, 0, 0]	n/a	FR1	1	R1215M
2280.907	1.617	2056487	WORD	n/a	wordpools/wordpool_EN.txt	SNOW	12	14	[0, 0, 0]	n/a	FR1	1	R1215M
2282.524	0.0	2058104	WORD_OFF	n/a	n/a	SNOW	12	14	[0, 0, 0]	n/a	FR1	1	R1215M
2282.524	0.001	2058104	DISTRACT_START	n/a	n/a	n/a	-999	14	[0, 0, 0]	n/a	FR1	1	R1215M
2282.525	0.016	2058105	START	n/a	n/a	n/a	-999	14	[-999, -999, -999]	n/a	FR1	1	R1215M
2282.541	5.634	2058121	PROB	5.634	n/a	n/a	-999	14	[3, 5, 9]	17	FR1	1	R1215M
2288.175	4.451	2063755	PROB	4.451	n/a	n/a	-999	14	[6, 3, 9]	18	FR1	1	R1215M
2292.626	11.962	2068205	PROB	11.962	n/a	n/a	-999	14	[6, 8, 7]	21	FR1	1	R1215M
2304.588	0.007	2080167	STOP	n/a	n/a	n/a	-999	14	[-999, -999, -999]	n/a	FR1	1	R1215M
2304.595	0.718	2080174	DISTRACT_END	n/a	n/a	n/a	-999	14	[0, 0, 0]	n/a	FR1	1	R1215M
2305.313	0.517	2080892	RETRIEVAL_ORIENT	n/a	n/a	n/a	-999	14	[0, 0, 0]	n/a	FR1	1	R1215M
2305.83	1.071	2081409	REC_START	n/a	n/a	n/a	-999	14	[0, 0, 0]	n/a	FR1	1	R1215M
2306.901	0.799	2082480	REC_WORD	0.799	n/a	JAIL	-999	14	[0, 0, 0]	n/a	FR1	1	R1215M
2307.7	0.442	2083279	REC_WORD	0.442	n/a	WEED	-999	14	[0, 0, 0]	n/a	FR1	1	R1215M
2308.142	2.426	2083721	REC_WORD	2.426	n/a	SMOKE	-999	14	[0, 0, 0]	n/a	FR1	1	R1215M
2310.568	22.895	2086146	REC_WORD	22.895	n/a	PIPE	-999	14	[0, 0, 0]	n/a	FR1	1	R1215M
2333.463	2.377	2109040	REC_WORD_VV	2.377	n/a	<>	-999	14	[0, 0, 0]	n/a	FR1	1	R1215M
2335.84	338.027	2111417	REC_END	n/a	n/a	n/a	-999	14	[0, 0, 0]	n/a	FR1	1	R1215M
2673.867	0.5	2449425	TRIAL	n/a	n/a	n/a	-999	15	[0, 0, 0]	n/a	FR1	1	R1215M
2674.367	10.428	2449925	COUNTDOWN_START	n/a	n/a	n/a	-999	15	[0, 0, 0]	n/a	FR1	1	R1215M
2684.795	0.007	2460352	COUNTDOWN_END	n/a	n/a	n/a	-999	15	[0, 0, 0]	n/a	FR1	1	R1215M
2684.802	1.618	2460359	ORIENT	n/a	n/a	n/a	-999	15	[0, 0, 0]	n/a	FR1	1	R1215M
2686.42	2.1	2461977	ORIENT_OFF	n/a	n/a	n/a	-999	15	[0, 0, 0]	n/a	FR1	1	R1215M
2688.52	1.617	2464077	WORD	n/a	wordpools/wordpool_EN.txt	BUSH	1	15	[0, 0, 0]	n/a	FR1	1	R1215M
2690.137	0.85	2465694	WORD_OFF	n/a	n/a	BUSH	1	15	[0, 0, 0]	n/a	FR1	1	R1215M
2690.987	1.617	2466544	WORD	n/a	wordpools/wordpool_EN.txt	VINE	2	15	[0, 0, 0]	n/a	FR1	1	R1215M
2692.604	0.784	2468161	WORD_OFF	n/a	n/a	VINE	2	15	[0, 0, 0]	n/a	FR1	1	R1215M
2693.388	1.616	2468945	WORD	n/a	wordpools/wordpool_EN.txt	FAN	3	15	[0, 0, 0]	n/a	FR1	1	R1215M
2695.004	0.784	2470561	WORD_OFF	n/a	n/a	FAN	3	15	[0, 0, 0]	n/a	FR1	1	R1215M
2695.788	1.618	2471345	WORD	n/a	wordpools/wordpool_EN.txt	PASTE	4	15	[0, 0, 0]	n/a	FR1	1	R1215M
2697.406	0.799	2472962	WORD_OFF	n/a	n/a	PASTE	4	15	[0, 0, 0]	n/a	FR1	1	R1215M
2698.205	1.617	2473761	WORD	n/a	wordpools/wordpool_EN.txt	CHIEF	5	15	[0, 0, 0]	n/a	FR1	1	R1215M
2699.822	0.834	2475378	WORD_OFF	n/a	n/a	CHIEF	5	15	[0, 0, 0]	n/a	FR1	1	R1215M
2700.656	1.617	2476212	WORD	n/a	wordpools/wordpool_EN.txt	BAT	6	15	[0, 0, 0]	n/a	FR1	1	R1215M
2702.273	0.983	2477829	WORD_OFF	n/a	n/a	BAT	6	15	[0, 0, 0]	n/a	FR1	1	R1215M
2703.256	1.617	2478812	WORD	n/a	wordpools/wordpool_EN.txt	PARK	7	15	[0, 0, 0]	n/a	FR1	1	R1215M
2704.873	0.833	2480429	WORD_OFF	n/a	n/a	PARK	7	15	[0, 0, 0]	n/a	FR1	1	R1215M
2705.706	1.618	2481262	WORD	n/a	wordpools/wordpool_EN.txt	SLUSH	8	15	[0, 0, 0]	n/a	FR1	1	R1215M
2707.324	0.799	2482880	WORD_OFF	n/a	n/a	SLUSH	8	15	[0, 0, 0]	n/a	FR1	1	R1215M
2708.123	1.617	2483679	WORD	n/a	wordpools/wordpool_EN.txt	PLANT	9	15	[0, 0, 0]	n/a	FR1	1	R1215M
2709.74	1.001	2485296	WORD_OFF	n/a	n/a	PLANT	9	15	[0, 0, 0]	n/a	FR1	1	R1215M
2710.741	1.618	2486297	WORD	n/a	wordpools/wordpool_EN.txt	WOLF	10	15	[0, 0, 0]	n/a	FR1	1	R1215M
2712.359	0.849	2487915	WORD_OFF	n/a	n/a	WOLF	10	15	[0, 0, 0]	n/a	FR1	1	R1215M
2713.208	1.617	2488764	WORD	n/a	wordpools/wordpool_EN.txt	JAR	11	15	[0, 0, 0]	n/a	FR1	1	R1215M
2714.825	1.017	2490381	WORD_OFF	n/a	n/a	JAR	11	15	[0, 0, 0]	n/a	FR1	1	R1215M
2715.842	1.617	2491397	WORD	n/a	wordpools/wordpool_EN.txt	SOUP	12	15	[0, 0, 0]	n/a	FR1	1	R1215M
2717.459	0.0	2493014	WORD_OFF	n/a	n/a	SOUP	12	15	[0, 0, 0]	n/a	FR1	1	R1215M
2717.459	0.0	2493014	DISTRACT_START	n/a	n/a	n/a	-999	15	[0, 0, 0]	n/a	FR1	1	R1215M
2717.459	0.016	2493014	START	n/a	n/a	n/a	-999	15	[-999, -999, -999]	n/a	FR1	1	R1215M
2717.475	5.551	2493030	PROB	5.551	n/a	n/a	-999	15	[7, 1, 6]	14	FR1	1	R1215M
2723.026	11.669	2498581	PROB	11.669	n/a	n/a	-999	15	[8, 9, 6]	25	FR1	1	R1215M
2734.695	4.639	2510249	PROB	4.639	n/a	n/a	-999	15	[7, 2, 1]	10	FR1	1	R1215M
2739.334	0.013	2514888	STOP	n/a	n/a	n/a	-999	15	[-999, -999, -999]	n/a	FR1	1	R1215M
2739.347	0.533	2514901	DISTRACT_END	n/a	n/a	n/a	-999	15	[0, 0, 0]	n/a	FR1	1	R1215M
2739.88	0.518	2515434	RETRIEVAL_ORIENT	n/a	n/a	n/a	-999	15	[0, 0, 0]	n/a	FR1	1	R1215M
2740.398	1.562	2515952	REC_START	n/a	n/a	n/a	-999	15	[0, 0, 0]	n/a	FR1	1	R1215M
2741.96	0.951	2517514	REC_WORD	0.951	n/a	BUSH	-999	15	[0, 0, 0]	n/a	FR1	1	R1215M
2742.911	2.827	2518465	REC_WORD	2.827	n/a	VINE	-999	15	[0, 0, 0]	n/a	FR1	1	R1215M
2745.738	7.57	2521292	REC_WORD	7.57	n/a	JAR	-999	15	[0, 0, 0]	n/a	FR1	1	R1215M
2753.308	2.833	2528861	REC_WORD_VV	2.833	n/a	<>	-999	15	[0, 0, 0]	n/a	FR1	1	R1215M
2756.141	14.267	2531694	REC_WORD_VV	14.267	n/a	<>	-999	15	[0, 0, 0]	n/a	FR1	1	R1215M
2770.408	16.247	2545960	REC_END	n/a	n/a	n/a	-999	15	[0, 0, 0]	n/a	FR1	1	R1215M
2786.655	0.5	2562206	TRIAL	n/a	n/a	n/a	-999	16	[0, 0, 0]	n/a	FR1	1	R1215M
2787.155	10.428	2562706	COUNTDOWN_START	n/a	n/a	n/a	-999	16	[0, 0, 0]	n/a	FR1	1	R1215M
2797.583	0.008	2573134	COUNTDOWN_END	n/a	n/a	n/a	-999	16	[0, 0, 0]	n/a	FR1	1	R1215M
2797.591	1.617	2573142	ORIENT	n/a	n/a	n/a	-999	16	[0, 0, 0]	n/a	FR1	1	R1215M
2799.208	2.085	2574759	ORIENT_OFF	n/a	n/a	n/a	-999	16	[0, 0, 0]	n/a	FR1	1	R1215M
2801.293	1.616	2576844	WORD	n/a	wordpools/wordpool_EN.txt	TOAST	1	16	[0, 0, 0]	n/a	FR1	1	R1215M
2802.909	0.883	2578460	WORD_OFF	n/a	n/a	TOAST	1	16	[0, 0, 0]	n/a	FR1	1	R1215M
2803.792	1.601	2579342	WORD	n/a	wordpools/wordpool_EN.txt	COUCH	2	16	[0, 0, 0]	n/a	FR1	1	R1215M
2805.393	0.984	2580943	WORD_OFF	n/a	n/a	COUCH	2	16	[0, 0, 0]	n/a	FR1	1	R1215M
2806.377	1.616	2581927	WORD	n/a	wordpools/wordpool_EN.txt	BRANCH	3	16	[0, 0, 0]	n/a	FR1	1	R1215M
2807.993	0.95	2583543	WORD_OFF	n/a	n/a	BRANCH	3	16	[0, 0, 0]	n/a	FR1	1	R1215M
2808.943	1.617	2584493	WORD	n/a	wordpools/wordpool_EN.txt	TENT	4	16	[0, 0, 0]	n/a	FR1	1	R1215M
2810.56	0.934	2586110	WORD_OFF	n/a	n/a	TENT	4	16	[0, 0, 0]	n/a	FR1	1	R1215M
2811.494	1.617	2587044	WORD	n/a	wordpools/wordpool_EN.txt	MUD	5	16	[0, 0, 0]	n/a	FR1	1	R1215M
2813.111	1.0	2588661	WORD_OFF	n/a	n/a	MUD	5	16	[0, 0, 0]	n/a	FR1	1	R1215M
2814.111	1.617	2589661	WORD	n/a	wordpools/wordpool_EN.txt	BEAK	6	16	[0, 0, 0]	n/a	FR1	1	R1215M
2815.728	0.8	2591278	WORD_OFF	n/a	n/a	BEAK	6	16	[0, 0, 0]	n/a	FR1	1	R1215M
2816.528	1.617	2592078	WORD	n/a	wordpools/wordpool_EN.txt	CAVE	7	16	[0, 0, 0]	n/a	FR1	1	R1215M
2818.145	0.783	2593695	WORD_OFF	n/a	n/a	CAVE	7	16	[0, 0, 0]	n/a	FR1	1	R1215M
2818.928	1.617	2594478	WORD	n/a	wordpools/wordpool_EN.txt	LEG	8	16	[0, 0, 0]	n/a	FR1	1	R1215M
2820.545	0.951	2596095	WORD_OFF	n/a	n/a	LEG	8	16	[0, 0, 0]	n/a	FR1	1	R1215M
2821.496	1.617	2597045	WORD	n/a	wordpools/wordpool_EN.txt	FLOOR	9	16	[0, 0, 0]	n/a	FR1	1	R1215M
2823.113	0.966	2598662	WORD_OFF	n/a	n/a	FLOOR	9	16	[0, 0, 0]	n/a	FR1	1	R1215M
2824.079	1.617	2599628	WORD	n/a	wordpools/wordpool_EN.txt	SHIELD	10	16	[0, 0, 0]	n/a	FR1	1	R1215M
2825.696	0.951	2601245	WORD_OFF	n/a	n/a	SHIELD	10	16	[0, 0, 0]	n/a	FR1	1	R1215M
2826.647	1.616	2602196	WORD	n/a	wordpools/wordpool_EN.txt	NOSE	11	16	[0, 0, 0]	n/a	FR1	1	R1215M
2828.263	0.817	2603812	WORD_OFF	n/a	n/a	NOSE	11	16	[0, 0, 0]	n/a	FR1	1	R1215M
2829.08	1.617	2604629	WORD	n/a	wordpools/wordpool_EN.txt	BREAD	12	16	[0, 0, 0]	n/a	FR1	1	R1215M
2830.697	0.0	2606246	WORD_OFF	n/a	n/a	BREAD	12	16	[0, 0, 0]	n/a	FR1	1	R1215M
2830.697	0.001	2606246	DISTRACT_START	n/a	n/a	n/a	-999	16	[0, 0, 0]	n/a	FR1	1	R1215M
2830.698	0.016	2606247	START	n/a	n/a	n/a	-999	16	[-999, -999, -999]	n/a	FR1	1	R1215M
2830.714	8.703	2606263	PROB	8.703	n/a	n/a	-999	16	[1, 9, 4]	14	FR1	1	R1215M
2839.417	4.65	2614965	PROB	4.65	n/a	n/a	-999	16	[9, 1, 7]	17	FR1	1	R1215M
2844.067	32.872	2619615	PROB	32.872	n/a	n/a	-999	16	[8, 1, 4]	13	FR1	1	R1215M
2876.939	0.017	2652485	STOP	n/a	n/a	n/a	-999	16	[-999, -999, -999]	n/a	FR1	1	R1215M
2876.956	0.55	2652502	DISTRACT_END	n/a	n/a	n/a	-999	16	[0, 0, 0]	n/a	FR1	1	R1215M
2877.506	0.518	2653052	RETRIEVAL_ORIENT	n/a	n/a	n/a	-999	16	[0, 0, 0]	n/a	FR1	1	R1215M
2878.024	1.608	2653570	REC_START	n/a	n/a	n/a	-999	16	[0, 0, 0]	n/a	FR1	1	R1215M
2879.632	1.183	2655178	REC_WORD	1.183	n/a	MUD	-999	16	[0, 0, 0]	n/a	FR1	1	R1215M
2880.815	0.749	2656361	REC_WORD_VV	0.749	n/a	<>	-999	16	[0, 0, 0]	n/a	FR1	1	R1215M
2881.564	4.012	2657110	REC_WORD	4.012	n/a	TENT	-999	16	[0, 0, 0]	n/a	FR1	1	R1215M
2885.576	2.406	2661122	REC_WORD_VV	2.406	n/a	<>	-999	16	[0, 0, 0]	n/a	FR1	1	R1215M
2887.982	4.881	2663528	REC_WORD_VV	4.881	n/a	<>	-999	16	[0, 0, 0]	n/a	FR1	1	R1215M
2892.863	6.884	2668408	REC_WORD_VV	6.884	n/a	<>	-999	16	[0, 0, 0]	n/a	FR1	1	R1215M
2899.747	0.493	2675292	REC_WORD	0.493	n/a	MUD	-999	16	[0, 0, 0]	n/a	FR1	1	R1215M
2900.24	0.79	2675785	REC_WORD	0.79	n/a	TENT	-999	16	[0, 0, 0]	n/a	FR1	1	R1215M
2901.03	7.005	2676575	REC_WORD	7.005	n/a	TOAST	-999	16	[0, 0, 0]	n/a	FR1	1	R1215M
2908.035	211.168	2683580	REC_END	n/a	n/a	n/a	-999	16	[0, 0, 0]	n/a	FR1	1	R1215M
3119.203	0.5	2894736	TRIAL	n/a	n/a	n/a	-999	17	[0, 0, 0]	n/a	FR1	1	R1215M
3119.703	10.428	2895236	COUNTDOWN_START	n/a	n/a	n/a	-999	17	[0, 0, 0]	n/a	FR1	1	R1215M
3130.131	0.008	2905663	COUNTDOWN_END	n/a	n/a	n/a	-999	17	[0, 0, 0]	n/a	FR1	1	R1215M
3130.139	1.617	2905671	ORIENT	n/a	n/a	n/a	-999	17	[0, 0, 0]	n/a	FR1	1	R1215M
3131.756	1.883	2907288	ORIENT_OFF	n/a	n/a	n/a	-999	17	[0, 0, 0]	n/a	FR1	1	R1215M
3133.639	1.617	2909171	WORD	n/a	wordpools/wordpool_EN.txt	MOTH	1	17	[0, 0, 0]	n/a	FR1	1	R1215M
3135.256	0.834	2910788	WORD_OFF	n/a	n/a	MOTH	1	17	[0, 0, 0]	n/a	FR1	1	R1215M
3136.09	1.617	2911622	WORD	n/a	wordpools/wordpool_EN.txt	STRAW	2	17	[0, 0, 0]	n/a	FR1	1	R1215M
3137.707	0.967	2913238	WORD_OFF	n/a	n/a	STRAW	2	17	[0, 0, 0]	n/a	FR1	1	R1215M
3138.674	1.618	2914205	WORD	n/a	wordpools/wordpool_EN.txt	SQUARE	3	17	[0, 0, 0]	n/a	FR1	1	R1215M
3140.292	0.966	2915823	WORD_OFF	n/a	n/a	SQUARE	3	17	[0, 0, 0]	n/a	FR1	1	R1215M
3141.258	1.617	2916789	WORD	n/a	wordpools/wordpool_EN.txt	FLAME	4	17	[0, 0, 0]	n/a	FR1	1	R1215M
3142.875	0.916	2918406	WORD_OFF	n/a	n/a	FLAME	4	17	[0, 0, 0]	n/a	FR1	1	R1215M
3143.791	1.618	2919322	WORD	n/a	wordpools/wordpool_EN.txt	DUCK	5	17	[0, 0, 0]	n/a	FR1	1	R1215M
3145.409	0.85	2920940	WORD_OFF	n/a	n/a	DUCK	5	17	[0, 0, 0]	n/a	FR1	1	R1215M
3146.259	1.617	2921790	WORD	n/a	wordpools/wordpool_EN.txt	SLEEVE	6	17	[0, 0, 0]	n/a	FR1	1	R1215M
3147.876	0.766	2923407	WORD_OFF	n/a	n/a	SLEEVE	6	17	[0, 0, 0]	n/a	FR1	1	R1215M
3148.642	1.617	2924173	WORD	n/a	wordpools/wordpool_EN.txt	DESK	7	17	[0, 0, 0]	n/a	FR1	1	R1215M
3150.259	0.95	2925790	WORD_OFF	n/a	n/a	DESK	7	17	[0, 0, 0]	n/a	FR1	1	R1215M
3151.209	1.617	2926740	WORD	n/a	wordpools/wordpool_EN.txt	SWAMP	8	17	[0, 0, 0]	n/a	FR1	1	R1215M
3152.826	0.867	2928357	WORD_OFF	n/a	n/a	SWAMP	8	17	[0, 0, 0]	n/a	FR1	1	R1215M
3153.693	1.618	2929224	WORD	n/a	wordpools/wordpool_EN.txt	JEEP	9	17	[0, 0, 0]	n/a	FR1	1	R1215M
3155.311	0.984	2930841	WORD_OFF	n/a	n/a	JEEP	9	17	[0, 0, 0]	n/a	FR1	1	R1215M
3156.295	1.616	2931825	WORD	n/a	wordpools/wordpool_EN.txt	SLIME	10	17	[0, 0, 0]	n/a	FR1	1	R1215M
3157.911	0.9	2933441	WORD_OFF	n/a	n/a	SLIME	10	17	[0, 0, 0]	n/a	FR1	1	R1215M
3158.811	1.601	2934341	WORD	n/a	wordpools/wordpool_EN.txt	BOAT	11	17	[0, 0, 0]	n/a	FR1	1	R1215M
3160.412	0.849	2935942	WORD_OFF	n/a	n/a	BOAT	11	17	[0, 0, 0]	n/a	FR1	1	R1215M
3161.261	1.617	2936791	WORD	n/a	wordpools/wordpool_EN.txt	BRICK	12	17	[0, 0, 0]	n/a	FR1	1	R1215M
3162.878	0.0	2938408	WORD_OFF	n/a	n/a	BRICK	12	17	[0, 0, 0]	n/a	FR1	1	R1215M
3162.878	0.001	2938408	DISTRACT_START	n/a	n/a	n/a	-999	17	[0, 0, 0]	n/a	FR1	1	R1215M
3162.879	0.016	2938409	START	n/a	n/a	n/a	-999	17	[-999, -999, -999]	n/a	FR1	1	R1215M
3162.895	15.586	2938425	PROB	15.586	n/a	n/a	-999	17	[8, 7, 3]	18	FR1	1	R1215M
3178.481	4.691	2954010	PROB	4.691	n/a	n/a	-999	17	[4, 5, 8]	17	FR1	1	R1215M
3183.172	0.01	2958701	STOP	n/a	n/a	n/a	-999	17	[-999, -999, -999]	n/a	FR1	1	R1215M
3183.182	0.65	2958711	DISTRACT_END	n/a	n/a	n/a	-999	17	[0, 0, 0]	n/a	FR1	1	R1215M
3183.832	0.519	2959361	RETRIEVAL_ORIENT	n/a	n/a	n/a	-999	17	[0, 0, 0]	n/a	FR1	1	R1215M
3184.351	1.3	2959880	REC_START	n/a	n/a	n/a	-999	17	[0, 0, 0]	n/a	FR1	1	R1215M
3185.651	1.639	2961180	REC_WORD	1.639	n/a	MOTH	-999	17	[0, 0, 0]	n/a	FR1	1	R1215M
3187.29	3.208	2962819	REC_WORD	3.208	n/a	SQUARE	-999	17	[0, 0, 0]	n/a	FR1	1	R1215M
3190.498	10.786	2966026	REC_WORD	10.786	n/a	BOAT	-999	17	[0, 0, 0]	n/a	FR1	1	R1215M
3201.284	3.582	2976812	REC_WORD_VV	3.582	n/a	<>	-999	17	[0, 0, 0]	n/a	FR1	1	R1215M
3204.866	9.497	2980394	REC_WORD	9.497	n/a	ROW	-999	17	[0, 0, 0]	n/a	FR1	1	R1215M
3214.363	93.494	2989890	REC_END	n/a	n/a	n/a	-999	17	[0, 0, 0]	n/a	FR1	1	R1215M
3307.857	0.5	3083379	TRIAL	n/a	n/a	n/a	-999	18	[0, 0, 0]	n/a	FR1	1	R1215M
3308.357	10.428	3083879	COUNTDOWN_START	n/a	n/a	n/a	-999	18	[0, 0, 0]	n/a	FR1	1	R1215M
3318.785	0.007	3094306	COUNTDOWN_END	n/a	n/a	n/a	-999	18	[0, 0, 0]	n/a	FR1	1	R1215M
3318.792	1.618	3094313	ORIENT	n/a	n/a	n/a	-999	18	[0, 0, 0]	n/a	FR1	1	R1215M
3320.41	2.099	3095931	ORIENT_OFF	n/a	n/a	n/a	-999	18	[0, 0, 0]	n/a	FR1	1	R1215M
3322.509	1.617	3098030	WORD	n/a	wordpools/wordpool_EN.txt	DRESS	1	18	[0, 0, 0]	n/a	FR1	1	R1215M
3324.126	0.85	3099647	WORD_OFF	n/a	n/a	DRESS	1	18	[0, 0, 0]	n/a	FR1	1	R1215M
3324.976	1.617	3100497	WORD	n/a	wordpools/wordpool_EN.txt	PURSE	2	18	[0, 0, 0]	n/a	FR1	1	R1215M
3326.593	0.835	3102114	WORD_OFF	n/a	n/a	PURSE	2	18	[0, 0, 0]	n/a	FR1	1	R1215M
3327.428	1.616	3102949	WORD	n/a	wordpools/wordpool_EN.txt	SHARK	3	18	[0, 0, 0]	n/a	FR1	1	R1215M
3329.044	0.917	3104565	WORD_OFF	n/a	n/a	SHARK	3	18	[0, 0, 0]	n/a	FR1	1	R1215M
3329.961	1.617	3105482	WORD	n/a	wordpools/wordpool_EN.txt	SUIT	4	18	[0, 0, 0]	n/a	FR1	1	R1215M
3331.578	0.983	3107098	WORD_OFF	n/a	n/a	SUIT	4	18	[0, 0, 0]	n/a	FR1	1	R1215M
3332.561	1.617	3108081	WORD	n/a	wordpools/wordpool_EN.txt	PIE	5	18	[0, 0, 0]	n/a	FR1	1	R1215M
3334.178	0.917	3109698	WORD_OFF	n/a	n/a	PIE	5	18	[0, 0, 0]	n/a	FR1	1	R1215M
3335.095	1.617	3110615	WORD	n/a	wordpools/wordpool_EN.txt	SEAT	6	18	[0, 0, 0]	n/a	FR1	1	R1215M
3336.712	0.984	3112232	WORD_OFF	n/a	n/a	SEAT	6	18	[0, 0, 0]	n/a	FR1	1	R1215M
3337.696	1.618	3113216	WORD	n/a	wordpools/wordpool_EN.txt	SMILE	7	18	[0, 0, 0]	n/a	FR1	1	R1215M
3339.314	0.949	3114834	WORD_OFF	n/a	n/a	SMILE	7	18	[0, 0, 0]	n/a	FR1	1	R1215M
3340.263	1.617	3115783	WORD	n/a	wordpools/wordpool_EN.txt	CANE	8	18	[0, 0, 0]	n/a	FR1	1	R1215M
3341.88	0.95	3117400	WORD_OFF	n/a	n/a	CANE	8	18	[0, 0, 0]	n/a	FR1	1	R1215M
3342.83	1.617	3118350	WORD	n/a	wordpools/wordpool_EN.txt	CRANE	9	18	[0, 0, 0]	n/a	FR1	1	R1215M
3344.447	0.968	3119967	WORD_OFF	n/a	n/a	CRANE	9	18	[0, 0, 0]	n/a	FR1	1	R1215M
3345.415	1.616	3120935	WORD	n/a	wordpools/wordpool_EN.txt	DIME	10	18	[0, 0, 0]	n/a	FR1	1	R1215M
3347.031	0.783	3122551	WORD_OFF	n/a	n/a	DIME	10	18	[0, 0, 0]	n/a	FR1	1	R1215M
3347.814	1.601	3123334	WORD	n/a	wordpools/wordpool_EN.txt	DITCH	11	18	[0, 0, 0]	n/a	FR1	1	R1215M
3349.415	0.951	3124934	WORD_OFF	n/a	n/a	DITCH	11	18	[0, 0, 0]	n/a	FR1	1	R1215M
3350.366	1.616	3125885	WORD	n/a	wordpools/wordpool_EN.txt	HOSE	12	18	[0, 0, 0]	n/a	FR1	1	R1215M
3351.982	0.0	3127501	WORD_OFF	n/a	n/a	HOSE	12	18	[0, 0, 0]	n/a	FR1	1	R1215M
3351.982	0.001	3127501	DISTRACT_START	n/a	n/a	n/a	-999	18	[0, 0, 0]	n/a	FR1	1	R1215M
3351.983	0.016	3127502	START	n/a	n/a	n/a	-999	18	[-999, -999, -999]	n/a	FR1	1	R1215M
3351.999	5.267	3127518	PROB	5.267	n/a	n/a	-999	18	[4, 8, 2]	14	FR1	1	R1215M
3357.266	4.052	3132785	PROB	4.052	n/a	n/a	-999	18	[8, 2, 9]	19	FR1	1	R1215M
3361.318	4.566	3136837	PROB	4.566	n/a	n/a	-999	18	[3, 9, 8]	20	FR1	1	R1215M
3365.884	3.618	3141403	PROB	3.618	n/a	n/a	-999	18	[6, 5, 3]	14	FR1	1	R1215M
3369.502	4.061	3145020	PROB	4.061	n/a	n/a	-999	18	[2, 7, 1]	10	FR1	1	R1215M
3373.563	0.006	3149081	STOP	n/a	n/a	n/a	-999	18	[-999, -999, -999]	n/a	FR1	1	R1215M
3373.569	0.517	3149087	DISTRACT_END	n/a	n/a	n/a	-999	18	[0, 0, 0]	n/a	FR1	1	R1215M
3374.086	0.518	3149604	RETRIEVAL_ORIENT	n/a	n/a	n/a	-999	18	[0, 0, 0]	n/a	FR1	1	R1215M
3374.604	2.438	3150122	REC_START	n/a	n/a	n/a	-999	18	[0, 0, 0]	n/a	FR1	1	R1215M
3377.042	2.527	3152560	REC_WORD_VV	2.527	n/a	<>	-999	18	[0, 0, 0]	n/a	FR1	1	R1215M
3379.569	0.879	3155087	REC_WORD	0.879	n/a	DRESS	-999	18	[0, 0, 0]	n/a	FR1	1	R1215M
3380.448	2.084	3155966	REC_WORD	2.084	n/a	SHARK	-999	18	[0, 0, 0]	n/a	FR1	1	R1215M
3382.532	22.083	3158050	REC_WORD	22.083	n/a	TOOTH	-999	18	[0, 0, 0]	n/a	FR1	1	R1215M
3404.615	31.216	3180131	REC_END	n/a	n/a	n/a	-999	18	[0, 0, 0]	n/a	FR1	1	R1215M
3435.831	0.5	3211346	TRIAL	n/a	n/a	n/a	-999	19	[0, 0, 0]	n/a	FR1	1	R1215M
3436.331	10.428	3211846	COUNTDOWN_START	n/a	n/a	n/a	-999	19	[0, 0, 0]	n/a	FR1	1	R1215M
3446.759	0.008	3222273	COUNTDOWN_END	n/a	n/a	n/a	-999	19	[0, 0, 0]	n/a	FR1	1	R1215M
3446.767	1.601	3222281	ORIENT	n/a	n/a	n/a	-999	19	[0, 0, 0]	n/a	FR1	1	R1215M
3448.368	2.051	3223882	ORIENT_OFF	n/a	n/a	n/a	-999	19	[0, 0, 0]	n/a	FR1	1	R1215M
3450.419	1.616	3225933	WORD	n/a	wordpools/wordpool_EN.txt	PHONE	1	19	[0, 0, 0]	n/a	FR1	1	R1215M
3452.035	0.933	3227549	WORD_OFF	n/a	n/a	PHONE	1	19	[0, 0, 0]	n/a	FR1	1	R1215M
3452.968	1.617	3228482	WORD	n/a	wordpools/wordpool_EN.txt	FILM	2	19	[0, 0, 0]	n/a	FR1	1	R1215M
3454.585	0.818	3230098	WORD_OFF	n/a	n/a	FILM	2	19	[0, 0, 0]	n/a	FR1	1	R1215M
3455.403	1.616	3230916	WORD	n/a	wordpools/wordpool_EN.txt	JUDGE	3	19	[0, 0, 0]	n/a	FR1	1	R1215M
3457.019	0.917	3232532	WORD_OFF	n/a	n/a	JUDGE	3	19	[0, 0, 0]	n/a	FR1	1	R1215M
3457.936	1.617	3233449	WORD	n/a	wordpools/wordpool_EN.txt	HOOF	4	19	[0, 0, 0]	n/a	FR1	1	R1215M
3459.553	0.967	3235066	WORD_OFF	n/a	n/a	HOOF	4	19	[0, 0, 0]	n/a	FR1	1	R1215M
3460.52	1.616	3236033	WORD	n/a	wordpools/wordpool_EN.txt	FRUIT	5	19	[0, 0, 0]	n/a	FR1	1	R1215M
3462.136	0.951	3237649	WORD_OFF	n/a	n/a	FRUIT	5	19	[0, 0, 0]	n/a	FR1	1	R1215M
3463.087	1.617	3238600	WORD	n/a	wordpools/wordpool_EN.txt	POND	6	19	[0, 0, 0]	n/a	FR1	1	R1215M
3464.704	0.85	3240217	WORD_OFF	n/a	n/a	POND	6	19	[0, 0, 0]	n/a	FR1	1	R1215M
3465.554	1.617	3241067	WORD	n/a	wordpools/wordpool_EN.txt	PEARL	7	19	[0, 0, 0]	n/a	FR1	1	R1215M
3467.171	0.867	3242684	WORD_OFF	n/a	n/a	PEARL	7	19	[0, 0, 0]	n/a	FR1	1	R1215M
3468.038	1.617	3243551	WORD	n/a	wordpools/wordpool_EN.txt	SHELL	8	19	[0, 0, 0]	n/a	FR1	1	R1215M
3469.655	0.917	3245168	WORD_OFF	n/a	n/a	SHELL	8	19	[0, 0, 0]	n/a	FR1	1	R1215M
3470.572	1.616	3246085	WORD	n/a	wordpools/wordpool_EN.txt	SEA	9	19	[0, 0, 0]	n/a	FR1	1	R1215M
3472.188	0.767	3247700	WORD_OFF	n/a	n/a	SEA	9	19	[0, 0, 0]	n/a	FR1	1	R1215M
3472.955	1.617	3248467	WORD	n/a	wordpools/wordpool_EN.txt	MAP	10	19	[0, 0, 0]	n/a	FR1	1	R1215M
3474.572	0.768	3250084	WORD_OFF	n/a	n/a	MAP	10	19	[0, 0, 0]	n/a	FR1	1	R1215M
3475.34	1.616	3250852	WORD	n/a	wordpools/wordpool_EN.txt	LAKE	11	19	[0, 0, 0]	n/a	FR1	1	R1215M
3476.956	0.934	3252468	WORD_OFF	n/a	n/a	LAKE	11	19	[0, 0, 0]	n/a	FR1	1	R1215M
3477.89	1.617	3253402	WORD	n/a	wordpools/wordpool_EN.txt	SHEET	12	19	[0, 0, 0]	n/a	FR1	1	R1215M
3479.507	0.0	3255019	WORD_OFF	n/a	n/a	SHEET	12	19	[0, 0, 0]	n/a	FR1	1	R1215M
3479.507	0.0	3255019	DISTRACT_START	n/a	n/a	n/a	-999	19	[0, 0, 0]	n/a	FR1	1	R1215M
3479.507	0.016	3255019	START	n/a	n/a	n/a	-999	19	[-999, -999, -999]	n/a	FR1	1	R1215M
3479.523	6.535	3255035	PROB	6.535	n/a	n/a	-999	19	[5, 1, 9]	15	FR1	1	R1215M
3486.058	5.801	3261570	PROB	5.801	n/a	n/a	-999	19	[8, 6, 9]	23	FR1	1	R1215M
3491.859	3.568	3267370	PROB	3.568	n/a	n/a	-999	19	[2, 5, 3]	10	FR1	1	R1215M
3495.427	4.168	3270938	PROB	4.168	n/a	n/a	-999	19	[1, 5, 7]	13	FR1	1	R1215M
3499.595	0.015	3275106	STOP	n/a	n/a	n/a	-999	19	[-999, -999, -999]	n/a	FR1	1	R1215M
3499.61	0.617	3275121	DISTRACT_END	n/a	n/a	n/a	-999	19	[0, 0, 0]	n/a	FR1	1	R1215M
3500.227	0.518	3275738	RETRIEVAL_ORIENT	n/a	n/a	n/a	-999	19	[0, 0, 0]	n/a	FR1	1	R1215M
3500.745	1.2	3276256	REC_START	n/a	n/a	n/a	-999	19	[0, 0, 0]	n/a	FR1	1	R1215M
3501.945	2.778	3277456	REC_WORD	2.778	n/a	PHONE	-999	19	[0, 0, 0]	n/a	FR1	1	R1215M
3504.723	1.7	3280234	REC_WORD	1.7	n/a	FILM	-999	19	[0, 0, 0]	n/a	FR1	1	R1215M
3506.423	7.103	3281934	REC_WORD	7.103	n/a	JUDGE	-999	19	[0, 0, 0]	n/a	FR1	1	R1215M
3513.526	6.802	3289036	REC_WORD	6.802	n/a	TREE	-999	19	[0, 0, 0]	n/a	FR1	1	R1215M
3520.328	3.307	3295838	REC_WORD	3.307	n/a	CAT	-999	19	[0, 0, 0]	n/a	FR1	1	R1215M
3523.635	3.529	3299145	REC_WORD	3.529	n/a	SEA	-999	19	[0, 0, 0]	n/a	FR1	1	R1215M
3527.164	3.593	3302673	REC_WORD_VV	3.593	n/a	<>	-999	19	[0, 0, 0]	n/a	FR1	1	R1215M
3530.757	14.062	3306266	REC_END	n/a	n/a	n/a	-999	19	[0, 0, 0]	n/a	FR1	1	R1215M
3544.819	0.5	3320327	TRIAL	n/a	n/a	n/a	-999	20	[0, 0, 0]	n/a	FR1	1	R1215M
3545.319	10.428	3320827	COUNTDOWN_START	n/a	n/a	n/a	-999	20	[0, 0, 0]	n/a	FR1	1	R1215M
3555.747	0.008	3331255	COUNTDOWN_END	n/a	n/a	n/a	-999	20	[0, 0, 0]	n/a	FR1	1	R1215M
3555.755	1.618	3331263	ORIENT	n/a	n/a	n/a	-999	20	[0, 0, 0]	n/a	FR1	1	R1215M
3557.373	2.232	3332881	ORIENT_OFF	n/a	n/a	n/a	-999	20	[0, 0, 0]	n/a	FR1	1	R1215M
3559.605	1.617	3335113	WORD	n/a	wordpools/wordpool_EN.txt	MOUTH	1	20	[0, 0, 0]	n/a	FR1	1	R1215M
3561.222	0.801	3336729	WORD_OFF	n/a	n/a	MOUTH	1	20	[0, 0, 0]	n/a	FR1	1	R1215M
3562.023	1.617	3337530	WORD	n/a	wordpools/wordpool_EN.txt	TRAIN	2	20	[0, 0, 0]	n/a	FR1	1	R1215M
3563.64	0.8	3339147	WORD_OFF	n/a	n/a	TRAIN	2	20	[0, 0, 0]	n/a	FR1	1	R1215M
3564.44	1.617	3339947	WORD	n/a	wordpools/wordpool_EN.txt	POLE	3	20	[0, 0, 0]	n/a	FR1	1	R1215M
3566.057	0.95	3341564	WORD_OFF	n/a	n/a	POLE	3	20	[0, 0, 0]	n/a	FR1	1	R1215M
3567.007	1.617	3342514	WORD	n/a	wordpools/wordpool_EN.txt	OAR	4	20	[0, 0, 0]	n/a	FR1	1	R1215M
3568.624	0.916	3344131	WORD_OFF	n/a	n/a	OAR	4	20	[0, 0, 0]	n/a	FR1	1	R1215M
3569.54	1.601	3345047	WORD	n/a	wordpools/wordpool_EN.txt	ZOO	5	20	[0, 0, 0]	n/a	FR1	1	R1215M
3571.141	0.817	3346648	WORD_OFF	n/a	n/a	ZOO	5	20	[0, 0, 0]	n/a	FR1	1	R1215M
3571.958	1.617	3347465	WORD	n/a	wordpools/wordpool_EN.txt	CUP	6	20	[0, 0, 0]	n/a	FR1	1	R1215M
3573.575	0.768	3349082	WORD_OFF	n/a	n/a	CUP	6	20	[0, 0, 0]	n/a	FR1	1	R1215M
3574.343	1.616	3349850	WORD	n/a	wordpools/wordpool_EN.txt	STOVE	7	20	[0, 0, 0]	n/a	FR1	1	R1215M
3575.959	0.85	3351466	WORD_OFF	n/a	n/a	STOVE	7	20	[0, 0, 0]	n/a	FR1	1	R1215M
3576.809	1.618	3352316	WORD	n/a	wordpools/wordpool_EN.txt	CORN	8	20	[0, 0, 0]	n/a	FR1	1	R1215M
3578.427	1.0	3353933	WORD_OFF	n/a	n/a	CORN	8	20	[0, 0, 0]	n/a	FR1	1	R1215M
3579.427	1.616	3354933	WORD	n/a	wordpools/wordpool_EN.txt	SKUNK	9	20	[0, 0, 0]	n/a	FR1	1	R1215M
3581.043	0.967	3356549	WORD_OFF	n/a	n/a	SKUNK	9	20	[0, 0, 0]	n/a	FR1	1	R1215M
3582.01	1.617	3357516	WORD	n/a	wordpools/wordpool_EN.txt	THUMB	10	20	[0, 0, 0]	n/a	FR1	1	R1215M
3583.627	0.9	3359133	WORD_OFF	n/a	n/a	THUMB	10	20	[0, 0, 0]	n/a	FR1	1	R1215M
3584.527	1.617	3360033	WORD	n/a	wordpools/wordpool_EN.txt	POOL	11	20	[0, 0, 0]	n/a	FR1	1	R1215M
3586.144	0.917	3361650	WORD_OFF	n/a	n/a	POOL	11	20	[0, 0, 0]	n/a	FR1	1	R1215M
3587.061	1.617	3362567	WORD	n/a	wordpools/wordpool_EN.txt	FLEA	12	20	[0, 0, 0]	n/a	FR1	1	R1215M
3588.678	0.0	3364184	WORD_OFF	n/a	n/a	FLEA	12	20	[0, 0, 0]	n/a	FR1	1	R1215M
3588.678	0.0	3364184	DISTRACT_START	n/a	n/a	n/a	-999	20	[0, 0, 0]	n/a	FR1	1	R1215M
3588.678	0.016	3364184	START	n/a	n/a	n/a	-999	20	[-999, -999, -999]	n/a	FR1	1	R1215M
3588.694	6.485	3364200	PROB	6.485	n/a	n/a	-999	20	[5, 5, 4]	14	FR1	1	R1215M
3595.179	3.334	3370685	PROB	3.334	n/a	n/a	-999	20	[2, 3, 1]	6	FR1	1	R1215M
3598.513	4.417	3374018	PROB	4.417	n/a	n/a	-999	20	[8, 6, 1]	15	FR1	1	R1215M
3602.93	5.419	3378435	PROB	5.419	n/a	n/a	-999	20	[9, 5, 3]	17	FR1	1	R1215M
3608.349	5.167	3383854	PROB	5.167	n/a	n/a	-999	20	[4, 3, 3]	10	FR1	1	R1215M
3613.516	0.017	3389020	STOP	n/a	n/a	n/a	-999	20	[-999, -999, -999]	n/a	FR1	1	R1215M
3613.533	0.7	3389037	DISTRACT_END	n/a	n/a	n/a	-999	20	[0, 0, 0]	n/a	FR1	1	R1215M
3614.233	0.517	3389737	RETRIEVAL_ORIENT	n/a	n/a	n/a	-999	20	[0, 0, 0]	n/a	FR1	1	R1215M
3614.75	2.394	3390254	REC_START	n/a	n/a	n/a	-999	20	[0, 0, 0]	n/a	FR1	1	R1215M
3617.144	0.863	3392648	REC_WORD	0.863	n/a	POOL	-999	20	[0, 0, 0]	n/a	FR1	1	R1215M
3618.007	1.467	3393511	REC_WORD	1.467	n/a	ZOO	-999	20	[0, 0, 0]	n/a	FR1	1	R1215M
3619.474	2.217	3394978	REC_WORD	2.217	n/a	SKUNK	-999	20	[0, 0, 0]	n/a	FR1	1	R1215M
3621.691	3.338	3397195	REC_WORD	3.338	n/a	FLEA	-999	20	[0, 0, 0]	n/a	FR1	1	R1215M
3625.029	11.49	3400533	REC_WORD	11.49	n/a	MOUTH	-999	20	[0, 0, 0]	n/a	FR1	1	R1215M
3636.519	8.241	3412022	REC_WORD_VV	8.241	n/a	<>	-999	20	[0, 0, 0]	n/a	FR1	1	R1215M
3644.76	9.164	3420263	REC_END	n/a	n/a	n/a	-999	20	[0, 0, 0]	n/a	FR1	1	R1215M
3653.924	0.5	3429426	TRIAL	n/a	n/a	n/a	-999	21	[0, 0, 0]	n/a	FR1	1	R1215M
3654.424	10.428	3429926	COUNTDOWN_START	n/a	n/a	n/a	-999	21	[0, 0, 0]	n/a	FR1	1	R1215M
3664.852	0.007	3440354	COUNTDOWN_END	n/a	n/a	n/a	-999	21	[0, 0, 0]	n/a	FR1	1	R1215M
3664.859	1.617	3440361	ORIENT	n/a	n/a	n/a	-999	21	[0, 0, 0]	n/a	FR1	1	R1215M
3666.476	2.234	3441977	ORIENT_OFF	n/a	n/a	n/a	-999	21	[0, 0, 0]	n/a	FR1	1	R1215M
3668.71	1.618	3444211	WORD	n/a	wordpools/wordpool_EN.txt	SHIP	1	21	[0, 0, 0]	n/a	FR1	1	R1215M
3670.328	0.866	3445829	WORD_OFF	n/a	n/a	SHIP	1	21	[0, 0, 0]	n/a	FR1	1	R1215M
3671.194	1.617	3446695	WORD	n/a	wordpools/wordpool_EN.txt	WAND	2	21	[0, 0, 0]	n/a	FR1	1	R1215M
3672.811	0.883	3448312	WORD_OFF	n/a	n/a	WAND	2	21	[0, 0, 0]	n/a	FR1	1	R1215M
3673.694	1.618	3449195	WORD	n/a	wordpools/wordpool_EN.txt	STREET	3	21	[0, 0, 0]	n/a	FR1	1	R1215M
3675.312	0.866	3450813	WORD_OFF	n/a	n/a	STREET	3	21	[0, 0, 0]	n/a	FR1	1	R1215M
3676.178	1.617	3451679	WORD	n/a	wordpools/wordpool_EN.txt	SPOON	4	21	[0, 0, 0]	n/a	FR1	1	R1215M
3677.795	0.884	3453296	WORD_OFF	n/a	n/a	SPOON	4	21	[0, 0, 0]	n/a	FR1	1	R1215M
3678.679	1.617	3454180	WORD	n/a	wordpools/wordpool_EN.txt	FOOD	5	21	[0, 0, 0]	n/a	FR1	1	R1215M
3680.296	0.917	3455797	WORD_OFF	n/a	n/a	FOOD	5	21	[0, 0, 0]	n/a	FR1	1	R1215M
3681.213	1.616	3456714	WORD	n/a	wordpools/wordpool_EN.txt	LAMP	6	21	[0, 0, 0]	n/a	FR1	1	R1215M
3682.829	0.984	3458330	WORD_OFF	n/a	n/a	LAMP	6	21	[0, 0, 0]	n/a	FR1	1	R1215M
3683.813	1.618	3459313	WORD	n/a	wordpools/wordpool_EN.txt	FOG	7	21	[0, 0, 0]	n/a	FR1	1	R1215M
3685.431	0.933	3460931	WORD_OFF	n/a	n/a	FOG	7	21	[0, 0, 0]	n/a	FR1	1	R1215M
3686.364	1.616	3461864	WORD	n/a	wordpools/wordpool_EN.txt	GLOVE	8	21	[0, 0, 0]	n/a	FR1	1	R1215M
3687.98	0.784	3463480	WORD_OFF	n/a	n/a	GLOVE	8	21	[0, 0, 0]	n/a	FR1	1	R1215M
3688.764	1.618	3464264	WORD	n/a	wordpools/wordpool_EN.txt	LOCK	9	21	[0, 0, 0]	n/a	FR1	1	R1215M
3690.382	0.882	3465882	WORD_OFF	n/a	n/a	LOCK	9	21	[0, 0, 0]	n/a	FR1	1	R1215M
3691.264	1.617	3466764	WORD	n/a	wordpools/wordpool_EN.txt	JET	10	21	[0, 0, 0]	n/a	FR1	1	R1215M
3692.881	0.934	3468381	WORD_OFF	n/a	n/a	JET	10	21	[0, 0, 0]	n/a	FR1	1	R1215M
3693.815	1.618	3469315	WORD	n/a	wordpools/wordpool_EN.txt	BATH	11	21	[0, 0, 0]	n/a	FR1	1	R1215M
3695.433	0.983	3470933	WORD_OFF	n/a	n/a	BATH	11	21	[0, 0, 0]	n/a	FR1	1	R1215M
3696.416	1.616	3471916	WORD	n/a	wordpools/wordpool_EN.txt	DEER	12	21	[0, 0, 0]	n/a	FR1	1	R1215M
3698.032	0.0	3473532	WORD_OFF	n/a	n/a	DEER	12	21	[0, 0, 0]	n/a	FR1	1	R1215M
3698.032	0.001	3473532	DISTRACT_START	n/a	n/a	n/a	-999	21	[0, 0, 0]	n/a	FR1	1	R1215M
3698.033	0.016	3473533	START	n/a	n/a	n/a	-999	21	[-999, -999, -999]	n/a	FR1	1	R1215M
3698.049	5.534	3473549	PROB	5.534	n/a	n/a	-999	21	[4, 5, 3]	12	FR1	1	R1215M
3703.583	4.585	3479082	PROB	4.585	n/a	n/a	-999	21	[6, 9, 5]	20	FR1	1	R1215M
3708.168	4.784	3483667	PROB	4.784	n/a	n/a	-999	21	[3, 8, 9]	20	FR1	1	R1215M
3712.952	4.335	3488451	PROB	4.335	n/a	n/a	-999	21	[4, 8, 8]	20	FR1	1	R1215M
3717.287	6.469	3492786	PROB	6.469	n/a	n/a	-999	21	[3, 4, 2]	9	FR1	1	R1215M
3723.756	0.015	3499254	STOP	n/a	n/a	n/a	-999	21	[-999, -999, -999]	n/a	FR1	1	R1215M
3723.771	0.7	3499269	DISTRACT_END	n/a	n/a	n/a	-999	21	[0, 0, 0]	n/a	FR1	1	R1215M
3724.471	0.517	3499969	RETRIEVAL_ORIENT	n/a	n/a	n/a	-999	21	[0, 0, 0]	n/a	FR1	1	R1215M
3724.988	1.345	3500486	REC_START	n/a	n/a	n/a	-999	21	[0, 0, 0]	n/a	FR1	1	R1215M
3726.333	1.212	3501831	REC_WORD	1.212	n/a	WAND	-999	21	[0, 0, 0]	n/a	FR1	1	R1215M
3727.545	9.444	3503043	REC_WORD	9.444	n/a	SPOON	-999	21	[0, 0, 0]	n/a	FR1	1	R1215M
3736.989	9.142	3512486	REC_WORD	9.142	n/a	TOOL	-999	21	[0, 0, 0]	n/a	FR1	1	R1215M
3746.131	8.869	3521628	REC_WORD	8.869	n/a	KITCHEN	-999	21	[0, 0, 0]	n/a	FR1	1	R1215M
3755.0	32.334	3530496	REC_END	n/a	n/a	n/a	-999	21	[0, 0, 0]	n/a	FR1	1	R1215M
3787.334	0.0	3562829	TRIAL	n/a	n/a	n/a	-999	22	[0, 0, 0]	n/a	FR1	1	R1215M
