onset	duration	sample	trial_type	response_time	stim_file	item_name	serialpos	list	test	answer	experiment	session	subject
0.0	1.235	37159	INSTRUCT_START	n/a	n/a	n/a	-999	-999	[0, 0, 0]	n/a	FR1	4	R1542J
1.235	25.849	38395	INSTRUCT_END	n/a	n/a	n/a	-999	-999	[0, 0, 0]	n/a	FR1	4	R1542J
27.084	10.349	64236	COUNTDOWN_START	n/a	n/a	n/a	-999	-999	[0, 0, 0]	n/a	FR1	4	R1542J
37.433	0.0	74595	COUNTDOWN_END	n/a	n/a	n/a	-999	-999	[0, 0, 0]	n/a	FR1	4	R1542J
37.433	2.3	74595	ENCODING_START	n/a	n/a	n/a	-999	-1	[0, 0, 0]	n/a	FR1	4	R1542J
39.733	1.6	76888	WORD	n/a	n/a	JAR	1	-1	[0, 0, 0]	n/a	FR1	4	R1542J
41.333	0.816	78481	WORD_OFF	n/a	n/a	JAR	1	-1	[0, 0, 0]	n/a	FR1	4	R1542J
42.149	1.6	79311	WORD	n/a	n/a	CLOTH	2	-1	[0, 0, 0]	n/a	FR1	4	R1542J
43.749	0.967	80904	WORD_OFF	n/a	n/a	CLOTH	2	-1	[0, 0, 0]	n/a	FR1	4	R1542J
44.716	1.617	81864	WORD	n/a	n/a	SALT	3	-1	[0, 0, 0]	n/a	FR1	4	R1542J
46.333	0.9	83490	WORD_OFF	n/a	n/a	SALT	3	-1	[0, 0, 0]	n/a	FR1	4	R1542J
47.233	1.601	84384	WORD	n/a	n/a	JET	4	-1	[0, 0, 0]	n/a	FR1	4	R1542J
48.834	0.864	85994	WORD_OFF	n/a	n/a	JET	4	-1	[0, 0, 0]	n/a	FR1	4	R1542J
49.698	1.602	86856	WORD	n/a	n/a	TOAD	5	-1	[0, 0, 0]	n/a	FR1	4	R1542J
51.3	0.783	88450	WORD_OFF	n/a	n/a	TOAD	5	-1	[0, 0, 0]	n/a	FR1	4	R1542J
52.083	1.617	89231	WORD	n/a	n/a	WORLD	6	-1	[0, 0, 0]	n/a	FR1	4	R1542J
53.7	0.933	90857	WORD_OFF	n/a	n/a	WORLD	6	-1	[0, 0, 0]	n/a	FR1	4	R1542J
54.633	1.616	91784	WORD	n/a	n/a	MEAT	7	-1	[0, 0, 0]	n/a	FR1	4	R1542J
56.249	0.799	93410	WORD_OFF	n/a	n/a	MEAT	7	-1	[0, 0, 0]	n/a	FR1	4	R1542J
57.048	1.601	94207	WORD	n/a	n/a	PALM	8	-1	[0, 0, 0]	n/a	FR1	4	R1542J
58.649	0.967	95801	WORD_OFF	n/a	n/a	PALM	8	-1	[0, 0, 0]	n/a	FR1	4	R1542J
59.616	1.617	96776	WORD	n/a	n/a	MOP	9	-1	[0, 0, 0]	n/a	FR1	4	R1542J
61.233	0.95	98386	WORD_OFF	n/a	n/a	MOP	9	-1	[0, 0, 0]	n/a	FR1	4	R1542J
62.183	1.616	99330	WORD	n/a	n/a	SUIT	10	-1	[0, 0, 0]	n/a	FR1	4	R1542J
63.799	0.984	100956	WORD_OFF	n/a	n/a	SUIT	10	-1	[0, 0, 0]	n/a	FR1	4	R1542J
64.783	1.616	101932	WORD	n/a	n/a	HEART	11	-1	[0, 0, 0]	n/a	FR1	4	R1542J
66.399	0.784	103558	WORD_OFF	n/a	n/a	HEART	11	-1	[0, 0, 0]	n/a	FR1	4	R1542J
67.183	1.6	104338	WORD	n/a	n/a	CUBE	12	-1	[0, 0, 0]	n/a	FR1	4	R1542J
68.783	0.002	105932	WORD_OFF	n/a	n/a	CUBE	12	-1	[0, 0, 0]	n/a	FR1	4	R1542J
68.785	0.0	105932	ENCODING_END	n/a	n/a	n/a	-999	-1	[0, 0, 0]	n/a	FR1	4	R1542J
68.784	0.001	105943	PROB	0.001	n/a	n/a	-999	-1	[2, 4, 3]	9	FR1	4	R1542J
68.785	0.0	105944	START	n/a	n/a	n/a	-999	-1	[-999, -999, -999]	n/a	FR1	4	R1542J
68.785	3.232	105948	DISTRACT_START	n/a	n/a	n/a	-999	-1	[0, 0, 0]	n/a	FR1	4	R1542J
72.017	2.582	109176	PROB	2.582	n/a	n/a	-999	-1	[2, 7, 3]	12	FR1	4	R1542J
74.599	2.483	111758	PROB	2.483	n/a	n/a	-999	-1	[8, 6, 5]	19	FR1	4	R1542J
77.082	2.235	114240	PROB	2.235	n/a	n/a	-999	-1	[8, 4, 2]	14	FR1	4	R1542J
79.317	2.017	116475	PROB	2.017	n/a	n/a	-999	-1	[2, 1, 4]	7	FR1	4	R1542J
81.334	2.116	118492	PROB	2.116	n/a	n/a	-999	-1	[8, 6, 2]	16	FR1	4	R1542J
83.45	2.533	120608	PROB	2.533	n/a	n/a	-999	-1	[5, 3, 6]	14	FR1	4	R1542J
85.983	1.732	123141	PROB	1.732	n/a	n/a	-999	-1	[7, 3, 1]	11	FR1	4	R1542J
87.715	3.3	124873	PROB	3.3	n/a	n/a	-999	-1	[4, 1, 4]	9	FR1	4	R1542J
91.015	0.0	128163	DISTRACT_END	n/a	n/a	n/a	-999	-1	[0, 0, 0]	n/a	FR1	4	R1542J
91.015	1.635	128173	STOP	n/a	n/a	n/a	-999	-1	[-999, -999, -999]	n/a	FR1	4	R1542J
92.65	1.365	129805	REC_START	n/a	n/a	n/a	-999	-1	[0, 0, 0]	n/a	FR1	4	R1542J
94.015	0.985	131173	REC_WORD	0.985	n/a	JET	4	-1	[0, 0, 0]	n/a	FR1	4	R1542J
95.0	1.045	132158	REC_WORD	1.045	n/a	MUD	-999	-1	[0, 0, 0]	n/a	FR1	4	R1542J
96.045	1.465	133203	REC_WORD	1.465	n/a	WORLD	6	-1	[0, 0, 0]	n/a	FR1	4	R1542J
97.51	1.155	134668	REC_WORD	1.155	n/a	JAR	1	-1	[0, 0, 0]	n/a	FR1	4	R1542J
98.665	1.18	135822	REC_WORD	1.18	n/a	CLOTH	2	-1	[0, 0, 0]	n/a	FR1	4	R1542J
99.845	1.18	137002	REC_WORD	1.18	n/a	TOAD	5	-1	[0, 0, 0]	n/a	FR1	4	R1542J
101.025	1.335	138182	REC_WORD	1.335	n/a	MEAT	7	-1	[0, 0, 0]	n/a	FR1	4	R1542J
102.36	20.481	139517	REC_WORD	20.481	n/a	HEART	11	-1	[0, 0, 0]	n/a	FR1	4	R1542J
122.841	3.709	159988	REC_END	n/a	n/a	n/a	-999	-1	[0, 0, 0]	n/a	FR1	4	R1542J
126.55	10.351	163696	COUNTDOWN_START	n/a	n/a	n/a	-999	1	[0, 0, 0]	n/a	FR1	4	R1542J
136.901	0.0	174055	COUNTDOWN_END	n/a	n/a	n/a	-999	1	[0, 0, 0]	n/a	FR1	4	R1542J
136.901	2.181	174055	ENCODING_START	n/a	n/a	n/a	-999	1	[0, 0, 0]	n/a	FR1	4	R1542J
139.082	1.617	176234	WORD	n/a	wordpools/wordpool_long_EN.txt	THREAD	1	1	[0, 0, 0]	n/a	FR1	4	R1542J
140.699	0.901	177844	WORD_OFF	n/a	n/a	THREAD	1	1	[0, 0, 0]	n/a	FR1	4	R1542J
141.6	1.616	178755	WORD	n/a	wordpools/wordpool_long_EN.txt	FACE	2	1	[0, 0, 0]	n/a	FR1	4	R1542J
143.216	0.817	180364	WORD_OFF	n/a	n/a	FACE	2	1	[0, 0, 0]	n/a	FR1	4	R1542J
144.033	1.616	181178	WORD	n/a	wordpools/wordpool_long_EN.txt	SMOKE	3	1	[0, 0, 0]	n/a	FR1	4	R1542J
145.649	0.935	182804	WORD_OFF	n/a	n/a	SMOKE	3	1	[0, 0, 0]	n/a	FR1	4	R1542J
146.584	1.615	183731	WORD	n/a	wordpools/wordpool_long_EN.txt	SPOOL	4	1	[0, 0, 0]	n/a	FR1	4	R1542J
148.199	0.8	185357	WORD_OFF	n/a	n/a	SPOOL	4	1	[0, 0, 0]	n/a	FR1	4	R1542J
148.999	1.616	186154	WORD	n/a	wordpools/wordpool_long_EN.txt	PRINCE	5	1	[0, 0, 0]	n/a	FR1	4	R1542J
150.615	0.984	187764	WORD_OFF	n/a	n/a	PRINCE	5	1	[0, 0, 0]	n/a	FR1	4	R1542J
151.599	1.6	188756	WORD	n/a	wordpools/wordpool_long_EN.txt	STONE	6	1	[0, 0, 0]	n/a	FR1	4	R1542J
153.199	0.817	190349	WORD_OFF	n/a	n/a	STONE	6	1	[0, 0, 0]	n/a	FR1	4	R1542J
154.016	1.6	191163	WORD	n/a	wordpools/wordpool_long_EN.txt	ARCH	7	1	[0, 0, 0]	n/a	FR1	4	R1542J
155.616	0.849	192773	WORD_OFF	n/a	n/a	ARCH	7	1	[0, 0, 0]	n/a	FR1	4	R1542J
156.465	1.601	193618	WORD	n/a	wordpools/wordpool_long_EN.txt	COIN	8	1	[0, 0, 0]	n/a	FR1	4	R1542J
158.066	0.8	195212	WORD_OFF	n/a	n/a	COIN	8	1	[0, 0, 0]	n/a	FR1	4	R1542J
158.866	1.617	196009	WORD	n/a	wordpools/wordpool_long_EN.txt	PARK	9	1	[0, 0, 0]	n/a	FR1	4	R1542J
160.483	0.883	197635	WORD_OFF	n/a	n/a	PARK	9	1	[0, 0, 0]	n/a	FR1	4	R1542J
161.366	1.617	198513	WORD	n/a	wordpools/wordpool_long_EN.txt	SPONGE	10	1	[0, 0, 0]	n/a	FR1	4	R1542J
162.983	0.899	200139	WORD_OFF	n/a	n/a	SPONGE	10	1	[0, 0, 0]	n/a	FR1	4	R1542J
163.882	1.601	201034	WORD	n/a	wordpools/wordpool_long_EN.txt	RAIL	11	1	[0, 0, 0]	n/a	FR1	4	R1542J
165.483	0.916	202628	WORD_OFF	n/a	n/a	RAIL	11	1	[0, 0, 0]	n/a	FR1	4	R1542J
166.399	1.601	203554	WORD	n/a	wordpools/wordpool_long_EN.txt	TIE	12	1	[0, 0, 0]	n/a	FR1	4	R1542J
168.0	0.002	205148	WORD_OFF	n/a	n/a	TIE	12	1	[0, 0, 0]	n/a	FR1	4	R1542J
168.002	0.0	205148	ENCODING_END	n/a	n/a	n/a	-999	1	[0, 0, 0]	n/a	FR1	4	R1542J
168.002	0.0	205148	DISTRACT_START	n/a	n/a	n/a	-999	1	[0, 0, 0]	n/a	FR1	4	R1542J
168.0	0.002	205155	PROB	0.002	n/a	n/a	-999	1	[8, 1, 3]	12	FR1	4	R1542J
168.002	2.599	205157	START	n/a	n/a	n/a	-999	1	[-999, -999, -999]	n/a	FR1	4	R1542J
170.601	2.983	207755	PROB	2.983	n/a	n/a	-999	1	[1, 6, 7]	14	FR1	4	R1542J
173.584	1.716	210738	PROB	1.716	n/a	n/a	-999	1	[2, 1, 4]	7	FR1	4	R1542J
175.3	2.4	212454	PROB	2.4	n/a	n/a	-999	1	[3, 3, 4]	10	FR1	4	R1542J
177.7	2.017	214854	PROB	2.017	n/a	n/a	-999	1	[3, 2, 8]	13	FR1	4	R1542J
179.717	3.984	216871	PROB	3.984	n/a	n/a	-999	1	[8, 7, 7]	22	FR1	4	R1542J
183.701	2.132	220855	PROB	2.132	n/a	n/a	-999	1	[6, 8, 4]	18	FR1	4	R1542J
185.833	3.033	222987	PROB	3.033	n/a	n/a	-999	1	[1, 5, 8]	14	FR1	4	R1542J
188.866	0.0	226013	DISTRACT_END	n/a	n/a	n/a	-999	1	[0, 0, 0]	n/a	FR1	4	R1542J
188.866	1.782	226020	STOP	n/a	n/a	n/a	-999	1	[-999, -999, -999]	n/a	FR1	4	R1542J
190.648	1.22	227802	REC_START	n/a	n/a	n/a	-999	1	[0, 0, 0]	n/a	FR1	4	R1542J
191.868	1.535	229022	REC_WORD	1.535	n/a	PRINCE	5	1	[0, 0, 0]	n/a	FR1	4	R1542J
193.403	2.05	230557	REC_WORD	2.05	n/a	ARCH	7	1	[0, 0, 0]	n/a	FR1	4	R1542J
195.453	1.58	232606	REC_WORD	1.58	n/a	RAIL	11	1	[0, 0, 0]	n/a	FR1	4	R1542J
197.033	2.02	234186	REC_WORD	2.02	n/a	STONE	6	1	[0, 0, 0]	n/a	FR1	4	R1542J
199.053	2.315	236206	REC_WORD	2.315	n/a	THREAD	1	1	[0, 0, 0]	n/a	FR1	4	R1542J
201.368	1.945	238521	REC_WORD	1.945	n/a	FACE	2	1	[0, 0, 0]	n/a	FR1	4	R1542J
203.313	17.531	240466	REC_WORD	17.531	n/a	SPOOL	4	1	[0, 0, 0]	n/a	FR1	4	R1542J
220.844	1.722	257984	REC_END	n/a	n/a	n/a	-999	1	[0, 0, 0]	n/a	FR1	4	R1542J
222.566	10.351	259708	COUNTDOWN_START	n/a	n/a	n/a	-999	2	[0, 0, 0]	n/a	FR1	4	R1542J
232.917	0.0	270067	COUNTDOWN_END	n/a	n/a	n/a	-999	2	[0, 0, 0]	n/a	FR1	4	R1542J
232.917	2.049	270067	ENCODING_START	n/a	n/a	n/a	-999	2	[0, 0, 0]	n/a	FR1	4	R1542J
234.966	1.617	272116	WORD	n/a	wordpools/wordpool_long_EN.txt	COOK	1	2	[0, 0, 0]	n/a	FR1	4	R1542J
236.583	0.9	273726	WORD_OFF	n/a	n/a	COOK	1	2	[0, 0, 0]	n/a	FR1	4	R1542J
237.483	1.601	274637	WORD	n/a	wordpools/wordpool_long_EN.txt	BAND	2	2	[0, 0, 0]	n/a	FR1	4	R1542J
239.084	0.783	276231	WORD_OFF	n/a	n/a	BAND	2	2	[0, 0, 0]	n/a	FR1	4	R1542J
239.867	1.615	277011	WORD	n/a	wordpools/wordpool_long_EN.txt	TRIBE	3	2	[0, 0, 0]	n/a	FR1	4	R1542J
241.482	0.834	278621	WORD_OFF	n/a	n/a	TRIBE	3	2	[0, 0, 0]	n/a	FR1	4	R1542J
242.316	1.617	279467	WORD	n/a	wordpools/wordpool_long_EN.txt	BANK	4	2	[0, 0, 0]	n/a	FR1	4	R1542J
243.933	0.934	281077	WORD_OFF	n/a	n/a	BANK	4	2	[0, 0, 0]	n/a	FR1	4	R1542J
244.867	1.617	282020	WORD	n/a	wordpools/wordpool_long_EN.txt	SLUSH	5	2	[0, 0, 0]	n/a	FR1	4	R1542J
246.484	0.965	283630	WORD_OFF	n/a	n/a	SLUSH	5	2	[0, 0, 0]	n/a	FR1	4	R1542J
247.449	1.601	284589	WORD	n/a	wordpools/wordpool_long_EN.txt	BOOT	6	2	[0, 0, 0]	n/a	FR1	4	R1542J
249.05	0.798	286199	WORD_OFF	n/a	n/a	BOOT	6	2	[0, 0, 0]	n/a	FR1	4	R1542J
249.848	1.6	286996	WORD	n/a	wordpools/wordpool_long_EN.txt	MOOSE	7	2	[0, 0, 0]	n/a	FR1	4	R1542J
251.448	0.785	288590	WORD_OFF	n/a	n/a	MOOSE	7	2	[0, 0, 0]	n/a	FR1	4	R1542J
252.233	1.618	289371	WORD	n/a	wordpools/wordpool_long_EN.txt	THRONE	8	2	[0, 0, 0]	n/a	FR1	4	R1542J
253.851	0.814	290997	WORD_OFF	n/a	n/a	THRONE	8	2	[0, 0, 0]	n/a	FR1	4	R1542J
254.665	1.601	291810	WORD	n/a	wordpools/wordpool_long_EN.txt	CORD	9	2	[0, 0, 0]	n/a	FR1	4	R1542J
256.266	0.966	293404	WORD_OFF	n/a	n/a	CORD	9	2	[0, 0, 0]	n/a	FR1	4	R1542J
257.232	1.617	294379	WORD	n/a	wordpools/wordpool_long_EN.txt	MAZE	10	2	[0, 0, 0]	n/a	FR1	4	R1542J
258.849	0.949	295989	WORD_OFF	n/a	n/a	MAZE	10	2	[0, 0, 0]	n/a	FR1	4	R1542J
259.798	1.602	296949	WORD	n/a	wordpools/wordpool_long_EN.txt	TENT	11	2	[0, 0, 0]	n/a	FR1	4	R1542J
261.4	0.766	298542	WORD_OFF	n/a	n/a	TENT	11	2	[0, 0, 0]	n/a	FR1	4	R1542J
262.166	1.617	299307	WORD	n/a	wordpools/wordpool_long_EN.txt	LODGE	12	2	[0, 0, 0]	n/a	FR1	4	R1542J
263.783	0.0	300933	WORD_OFF	n/a	n/a	LODGE	12	2	[0, 0, 0]	n/a	FR1	4	R1542J
263.783	0.0	300933	ENCODING_END	n/a	n/a	n/a	-999	2	[0, 0, 0]	n/a	FR1	4	R1542J
263.783	0.0	300933	DISTRACT_START	n/a	n/a	n/a	-999	2	[0, 0, 0]	n/a	FR1	4	R1542J
263.783	0.0	300934	START	n/a	n/a	n/a	-999	2	[-999, -999, -999]	n/a	FR1	4	R1542J
263.783	2.001	300934	PROB	2.001	n/a	n/a	-999	2	[3, 1, 5]	9	FR1	4	R1542J
265.784	2.049	302935	PROB	2.049	n/a	n/a	-999	2	[5, 8, 3]	16	FR1	4	R1542J
267.833	2.083	304983	PROB	2.083	n/a	n/a	-999	2	[6, 3, 6]	15	FR1	4	R1542J
269.916	2.067	307066	PROB	2.067	n/a	n/a	-999	2	[1, 6, 4]	11	FR1	4	R1542J
271.983	1.584	309133	PROB	1.584	n/a	n/a	-999	2	[2, 8, 2]	12	FR1	4	R1542J
273.567	1.949	310717	PROB	1.949	n/a	n/a	-999	2	[3, 6, 2]	11	FR1	4	R1542J
275.516	1.767	312666	PROB	1.767	n/a	n/a	-999	2	[1, 2, 4]	7	FR1	4	R1542J
277.283	1.567	314433	PROB	1.567	n/a	n/a	-999	2	[7, 4, 1]	12	FR1	4	R1542J
278.85	2.484	316000	PROB	2.484	n/a	n/a	-999	2	[2, 4, 4]	10	FR1	4	R1542J
281.334	3.448	318484	PROB	3.448	n/a	n/a	-999	2	[5, 8, 7]	20	FR1	4	R1542J
284.782	0.0	321928	DISTRACT_END	n/a	n/a	n/a	-999	2	[0, 0, 0]	n/a	FR1	4	R1542J
284.782	1.85	321932	STOP	n/a	n/a	n/a	-999	2	[-999, -999, -999]	n/a	FR1	4	R1542J
286.632	0.935	323781	REC_START	n/a	n/a	n/a	-999	2	[0, 0, 0]	n/a	FR1	4	R1542J
287.567	1.895	324717	REC_WORD	1.895	n/a	LODGE	12	2	[0, 0, 0]	n/a	FR1	4	R1542J
289.462	4.155	326612	REC_WORD	4.155	n/a	TENT	11	2	[0, 0, 0]	n/a	FR1	4	R1542J
293.617	2.03	330766	REC_WORD	2.03	n/a	BAND	2	2	[0, 0, 0]	n/a	FR1	4	R1542J
295.647	5.79	332796	REC_WORD	5.79	n/a	TRIBE	3	2	[0, 0, 0]	n/a	FR1	4	R1542J
301.437	15.402	338586	REC_WORD	15.402	n/a	CORD	9	2	[0, 0, 0]	n/a	FR1	4	R1542J
316.839	1.395	353981	REC_END	n/a	n/a	n/a	-999	2	[0, 0, 0]	n/a	FR1	4	R1542J
318.234	10.348	355379	COUNTDOWN_START	n/a	n/a	n/a	-999	3	[0, 0, 0]	n/a	FR1	4	R1542J
328.582	0.0	365722	COUNTDOWN_END	n/a	n/a	n/a	-999	3	[0, 0, 0]	n/a	FR1	4	R1542J
328.582	2.083	365722	ENCODING_START	n/a	n/a	n/a	-999	3	[0, 0, 0]	n/a	FR1	4	R1542J
330.665	1.601	367803	WORD	n/a	wordpools/wordpool_long_EN.txt	SNAIL	1	3	[0, 0, 0]	n/a	FR1	4	R1542J
332.266	0.9	369413	WORD_OFF	n/a	n/a	SNAIL	1	3	[0, 0, 0]	n/a	FR1	4	R1542J
333.166	1.601	370308	WORD	n/a	wordpools/wordpool_long_EN.txt	GUARD	2	3	[0, 0, 0]	n/a	FR1	4	R1542J
334.767	1.0	371902	WORD_OFF	n/a	n/a	GUARD	2	3	[0, 0, 0]	n/a	FR1	4	R1542J
335.767	1.6	372910	WORD	n/a	wordpools/wordpool_long_EN.txt	FOAM	3	3	[0, 0, 0]	n/a	FR1	4	R1542J
337.367	0.933	374504	WORD_OFF	n/a	n/a	FOAM	3	3	[0, 0, 0]	n/a	FR1	4	R1542J
338.3	1.616	375447	WORD	n/a	wordpools/wordpool_long_EN.txt	DOCK	4	3	[0, 0, 0]	n/a	FR1	4	R1542J
339.916	1.0	377057	WORD_OFF	n/a	n/a	DOCK	4	3	[0, 0, 0]	n/a	FR1	4	R1542J
340.916	1.601	378065	WORD	n/a	wordpools/wordpool_long_EN.txt	SKI	5	3	[0, 0, 0]	n/a	FR1	4	R1542J
342.517	1.0	379659	WORD_OFF	n/a	n/a	SKI	5	3	[0, 0, 0]	n/a	FR1	4	R1542J
343.517	1.615	380651	WORD	n/a	wordpools/wordpool_long_EN.txt	SNAKE	6	3	[0, 0, 0]	n/a	FR1	4	R1542J
345.132	0.968	382277	WORD_OFF	n/a	n/a	SNAKE	6	3	[0, 0, 0]	n/a	FR1	4	R1542J
346.1	1.615	383236	WORD	n/a	wordpools/wordpool_long_EN.txt	GEESE	7	3	[0, 0, 0]	n/a	FR1	4	R1542J
347.715	0.851	384863	WORD_OFF	n/a	n/a	GEESE	7	3	[0, 0, 0]	n/a	FR1	4	R1542J
348.566	1.6	385708	WORD	n/a	wordpools/wordpool_long_EN.txt	BLADE	8	3	[0, 0, 0]	n/a	FR1	4	R1542J
350.166	0.866	387302	WORD_OFF	n/a	n/a	BLADE	8	3	[0, 0, 0]	n/a	FR1	4	R1542J
351.032	1.6	388180	WORD	n/a	wordpools/wordpool_long_EN.txt	DART	9	3	[0, 0, 0]	n/a	FR1	4	R1542J
352.632	0.851	389774	WORD_OFF	n/a	n/a	DART	9	3	[0, 0, 0]	n/a	FR1	4	R1542J
353.483	1.615	390619	WORD	n/a	wordpools/wordpool_long_EN.txt	HEDGE	10	3	[0, 0, 0]	n/a	FR1	4	R1542J
355.098	0.984	392246	WORD_OFF	n/a	n/a	HEDGE	10	3	[0, 0, 0]	n/a	FR1	4	R1542J
356.082	1.602	393221	WORD	n/a	wordpools/wordpool_long_EN.txt	STRAW	11	3	[0, 0, 0]	n/a	FR1	4	R1542J
357.684	0.915	394831	WORD_OFF	n/a	n/a	STRAW	11	3	[0, 0, 0]	n/a	FR1	4	R1542J
358.599	1.616	395742	WORD	n/a	wordpools/wordpool_long_EN.txt	CLIFF	12	3	[0, 0, 0]	n/a	FR1	4	R1542J
360.215	0.001	397352	WORD_OFF	n/a	n/a	CLIFF	12	3	[0, 0, 0]	n/a	FR1	4	R1542J
360.216	0.0	397352	ENCODING_END	n/a	n/a	n/a	-999	3	[0, 0, 0]	n/a	FR1	4	R1542J
360.216	0.0	397352	DISTRACT_START	n/a	n/a	n/a	-999	3	[0, 0, 0]	n/a	FR1	4	R1542J
360.215	0.001	397362	PROB	0.001	n/a	n/a	-999	3	[2, 2, 8]	12	FR1	4	R1542J
360.216	2.251	397363	START	n/a	n/a	n/a	-999	3	[-999, -999, -999]	n/a	FR1	4	R1542J
362.467	2.8	399613	PROB	2.8	n/a	n/a	-999	3	[6, 7, 3]	16	FR1	4	R1542J
365.267	1.9	402413	PROB	1.9	n/a	n/a	-999	3	[1, 2, 6]	9	FR1	4	R1542J
367.167	3.316	404313	PROB	3.316	n/a	n/a	-999	3	[2, 4, 6]	12	FR1	4	R1542J
370.483	2.434	407629	PROB	2.434	n/a	n/a	-999	3	[4, 3, 1]	8	FR1	4	R1542J
372.917	4.232	410063	PROB	4.232	n/a	n/a	-999	3	[8, 4, 5]	17	FR1	4	R1542J
377.149	1.666	414295	PROB	1.666	n/a	n/a	-999	3	[7, 5, 1]	13	FR1	4	R1542J
378.815	2.717	415961	PROB	2.717	n/a	n/a	-999	3	[8, 7, 7]	22	FR1	4	R1542J
381.532	0.0	418672	DISTRACT_END	n/a	n/a	n/a	-999	3	[0, 0, 0]	n/a	FR1	4	R1542J
381.532	1.633	418678	STOP	n/a	n/a	n/a	-999	3	[-999, -999, -999]	n/a	FR1	4	R1542J
383.165	1.23	420298	REC_START	n/a	n/a	n/a	-999	3	[0, 0, 0]	n/a	FR1	4	R1542J
384.395	1.375	421541	REC_WORD	1.375	n/a	CLIFF	12	3	[0, 0, 0]	n/a	FR1	4	R1542J
385.77	1.38	422915	REC_WORD	1.38	n/a	HEDGE	10	3	[0, 0, 0]	n/a	FR1	4	R1542J
387.15	1.78	424295	REC_WORD	1.78	n/a	GUARD	2	3	[0, 0, 0]	n/a	FR1	4	R1542J
388.93	1.305	426075	REC_WORD	1.305	n/a	BLADE	8	3	[0, 0, 0]	n/a	FR1	4	R1542J
390.235	1.0	427380	REC_WORD	1.0	n/a	SPEAR	-999	3	[0, 0, 0]	n/a	FR1	4	R1542J
391.235	0.55	428380	REC_WORD_VV	0.55	n/a	<>	-999	3	[0, 0, 0]	n/a	FR1	4	R1542J
391.785	1.47	428930	REC_WORD	1.47	n/a	SNAKE	6	3	[0, 0, 0]	n/a	FR1	4	R1542J
393.255	1.12	430400	REC_WORD	1.12	n/a	GEESE	7	3	[0, 0, 0]	n/a	FR1	4	R1542J
394.375	1.505	431520	REC_WORD	1.505	n/a	SNAIL	1	3	[0, 0, 0]	n/a	FR1	4	R1542J
395.88	17.505	433025	REC_WORD	17.505	n/a	FOAM	3	3	[0, 0, 0]	n/a	FR1	4	R1542J
413.385	1.515	450530	REC_END	n/a	n/a	n/a	-999	3	[0, 0, 0]	n/a	FR1	4	R1542J
414.9	10.35	452042	COUNTDOWN_START	n/a	n/a	n/a	-999	4	[0, 0, 0]	n/a	FR1	4	R1542J
425.25	0.0	462385	COUNTDOWN_END	n/a	n/a	n/a	-999	4	[0, 0, 0]	n/a	FR1	4	R1542J
425.25	2.134	462385	ENCODING_START	n/a	n/a	n/a	-999	4	[0, 0, 0]	n/a	FR1	4	R1542J
427.384	1.615	464515	WORD	n/a	wordpools/wordpool_long_EN.txt	SEAL	1	4	[0, 0, 0]	n/a	FR1	4	R1542J
428.999	0.884	466141	WORD_OFF	n/a	n/a	SEAL	1	4	[0, 0, 0]	n/a	FR1	4	R1542J
429.883	1.6	467020	WORD	n/a	wordpools/wordpool_long_EN.txt	STEAK	2	4	[0, 0, 0]	n/a	FR1	4	R1542J
431.483	0.85	468613	WORD_OFF	n/a	n/a	STEAK	2	4	[0, 0, 0]	n/a	FR1	4	R1542J
432.333	1.615	469475	WORD	n/a	wordpools/wordpool_long_EN.txt	BROOM	3	4	[0, 0, 0]	n/a	FR1	4	R1542J
433.948	0.901	471085	WORD_OFF	n/a	n/a	BROOM	3	4	[0, 0, 0]	n/a	FR1	4	R1542J
434.849	1.601	471980	WORD	n/a	wordpools/wordpool_long_EN.txt	WOOD	4	4	[0, 0, 0]	n/a	FR1	4	R1542J
436.45	0.815	473590	WORD_OFF	n/a	n/a	WOOD	4	4	[0, 0, 0]	n/a	FR1	4	R1542J
437.265	1.601	474403	WORD	n/a	wordpools/wordpool_long_EN.txt	FORT	5	4	[0, 0, 0]	n/a	FR1	4	R1542J
438.866	0.983	475996	WORD_OFF	n/a	n/a	FORT	5	4	[0, 0, 0]	n/a	FR1	4	R1542J
439.849	1.617	476988	WORD	n/a	wordpools/wordpool_long_EN.txt	WAVE	6	4	[0, 0, 0]	n/a	FR1	4	R1542J
441.466	0.866	478598	WORD_OFF	n/a	n/a	WAVE	6	4	[0, 0, 0]	n/a	FR1	4	R1542J
442.332	1.601	479477	WORD	n/a	wordpools/wordpool_long_EN.txt	HAT	7	4	[0, 0, 0]	n/a	FR1	4	R1542J
443.933	0.85	481070	WORD_OFF	n/a	n/a	HAT	7	4	[0, 0, 0]	n/a	FR1	4	R1542J
444.783	1.616	481916	WORD	n/a	wordpools/wordpool_long_EN.txt	TAIL	8	4	[0, 0, 0]	n/a	FR1	4	R1542J
446.399	0.868	483542	WORD_OFF	n/a	n/a	TAIL	8	4	[0, 0, 0]	n/a	FR1	4	R1542J
447.267	1.6	484404	WORD	n/a	wordpools/wordpool_long_EN.txt	MAT	9	4	[0, 0, 0]	n/a	FR1	4	R1542J
448.867	0.783	485998	WORD_OFF	n/a	n/a	MAT	9	4	[0, 0, 0]	n/a	FR1	4	R1542J
449.65	1.616	486795	WORD	n/a	wordpools/wordpool_long_EN.txt	HOOK	10	4	[0, 0, 0]	n/a	FR1	4	R1542J
451.266	0.783	488404	WORD_OFF	n/a	n/a	HOOK	10	4	[0, 0, 0]	n/a	FR1	4	R1542J
452.049	1.601	489185	WORD	n/a	wordpools/wordpool_long_EN.txt	PURSE	11	4	[0, 0, 0]	n/a	FR1	4	R1542J
453.65	0.965	490795	WORD_OFF	n/a	n/a	PURSE	11	4	[0, 0, 0]	n/a	FR1	4	R1542J
454.615	1.6	491755	WORD	n/a	wordpools/wordpool_long_EN.txt	APE	12	4	[0, 0, 0]	n/a	FR1	4	R1542J
456.215	0.001	493348	WORD_OFF	n/a	n/a	APE	12	4	[0, 0, 0]	n/a	FR1	4	R1542J
456.216	0.0	493348	ENCODING_END	n/a	n/a	n/a	-999	4	[0, 0, 0]	n/a	FR1	4	R1542J
456.215	0.001	493358	PROB	0.001	n/a	n/a	-999	4	[1, 7, 7]	15	FR1	4	R1542J
456.216	0.0	493359	START	n/a	n/a	n/a	-999	4	[-999, -999, -999]	n/a	FR1	4	R1542J
456.216	2.451	493364	DISTRACT_START	n/a	n/a	n/a	-999	4	[0, 0, 0]	n/a	FR1	4	R1542J
458.667	1.8	495809	PROB	1.8	n/a	n/a	-999	4	[3, 5, 1]	9	FR1	4	R1542J
460.467	2.383	497609	PROB	2.383	n/a	n/a	-999	4	[3, 2, 1]	6	FR1	4	R1542J
462.85	2.6	499992	PROB	2.6	n/a	n/a	-999	4	[7, 4, 4]	15	FR1	4	R1542J
465.45	2.033	502592	PROB	2.033	n/a	n/a	-999	4	[8, 3, 5]	13	FR1	4	R1542J
467.483	2.684	504625	PROB	2.684	n/a	n/a	-999	4	[5, 6, 6]	17	FR1	4	R1542J
470.167	1.533	507309	PROB	1.533	n/a	n/a	-999	4	[2, 1, 6]	9	FR1	4	R1542J
471.7	2.0	508842	PROB	2.0	n/a	n/a	-999	4	[8, 1, 1]	10	FR1	4	R1542J
473.7	2.383	510842	PROB	2.383	n/a	n/a	-999	4	[3, 1, 3]	7	FR1	4	R1542J
476.083	1.966	513225	PROB	1.966	n/a	n/a	-999	4	[2, 5, 4]	11	FR1	4	R1542J
478.049	0.0	515188	DISTRACT_END	n/a	n/a	n/a	-999	4	[0, 0, 0]	n/a	FR1	4	R1542J
478.049	1.633	515191	STOP	n/a	n/a	n/a	-999	4	[-999, -999, -999]	n/a	FR1	4	R1542J
479.682	0.575	516815	REC_START	n/a	n/a	n/a	-999	4	[0, 0, 0]	n/a	FR1	4	R1542J
480.257	1.77	517399	REC_WORD	1.77	n/a	SEAL	1	4	[0, 0, 0]	n/a	FR1	4	R1542J
482.027	3.035	519168	REC_WORD	3.035	n/a	STEAK	2	4	[0, 0, 0]	n/a	FR1	4	R1542J
485.062	1.545	522203	REC_WORD	1.545	n/a	HOOK	10	4	[0, 0, 0]	n/a	FR1	4	R1542J
486.607	1.995	523748	REC_WORD	1.995	n/a	PURSE	11	4	[0, 0, 0]	n/a	FR1	4	R1542J
488.602	2.07	525743	REC_WORD	2.07	n/a	MAT	9	4	[0, 0, 0]	n/a	FR1	4	R1542J
490.672	3.955	527813	REC_WORD	3.955	n/a	WOOD	4	4	[0, 0, 0]	n/a	FR1	4	R1542J
494.627	8.245	531768	REC_WORD	8.245	n/a	FORT	5	4	[0, 0, 0]	n/a	FR1	4	R1542J
502.872	7.028	540013	REC_WORD	7.028	n/a	WAVE	6	4	[0, 0, 0]	n/a	FR1	4	R1542J
509.9	1.732	547030	REC_END	n/a	n/a	n/a	-999	4	[0, 0, 0]	n/a	FR1	4	R1542J
511.632	10.351	548770	COUNTDOWN_START	n/a	n/a	n/a	-999	5	[0, 0, 0]	n/a	FR1	4	R1542J
521.983	0.0	559113	COUNTDOWN_END	n/a	n/a	n/a	-999	5	[0, 0, 0]	n/a	FR1	4	R1542J
521.983	2.1	559113	ENCODING_START	n/a	n/a	n/a	-999	5	[0, 0, 0]	n/a	FR1	4	R1542J
524.083	1.6	561211	WORD	n/a	wordpools/wordpool_long_EN.txt	SINK	1	5	[0, 0, 0]	n/a	FR1	4	R1542J
525.683	0.849	562821	WORD_OFF	n/a	n/a	SINK	1	5	[0, 0, 0]	n/a	FR1	4	R1542J
526.532	1.618	563666	WORD	n/a	wordpools/wordpool_long_EN.txt	SPRING	2	5	[0, 0, 0]	n/a	FR1	4	R1542J
528.15	0.833	565276	WORD_OFF	n/a	n/a	SPRING	2	5	[0, 0, 0]	n/a	FR1	4	R1542J
528.983	1.6	566122	WORD	n/a	wordpools/wordpool_long_EN.txt	CROSS	3	5	[0, 0, 0]	n/a	FR1	4	R1542J
530.583	0.966	567716	WORD_OFF	n/a	n/a	CROSS	3	5	[0, 0, 0]	n/a	FR1	4	R1542J
531.549	1.6	568675	WORD	n/a	wordpools/wordpool_long_EN.txt	SNACK	4	5	[0, 0, 0]	n/a	FR1	4	R1542J
533.149	0.834	570285	WORD_OFF	n/a	n/a	SNACK	4	5	[0, 0, 0]	n/a	FR1	4	R1542J
533.983	1.616	571114	WORD	n/a	wordpools/wordpool_long_EN.txt	SAIL	5	5	[0, 0, 0]	n/a	FR1	4	R1542J
535.599	0.951	572724	WORD_OFF	n/a	n/a	SAIL	5	5	[0, 0, 0]	n/a	FR1	4	R1542J
536.55	1.616	573684	WORD	n/a	wordpools/wordpool_long_EN.txt	BEAST	6	5	[0, 0, 0]	n/a	FR1	4	R1542J
538.166	0.767	575294	WORD_OFF	n/a	n/a	BEAST	6	5	[0, 0, 0]	n/a	FR1	4	R1542J
538.933	1.6	576074	WORD	n/a	wordpools/wordpool_long_EN.txt	TART	7	5	[0, 0, 0]	n/a	FR1	4	R1542J
540.533	0.967	577668	WORD_OFF	n/a	n/a	TART	7	5	[0, 0, 0]	n/a	FR1	4	R1542J
541.5	1.615	578628	WORD	n/a	wordpools/wordpool_long_EN.txt	MARSH	8	5	[0, 0, 0]	n/a	FR1	4	R1542J
543.115	0.817	580254	WORD_OFF	n/a	n/a	MARSH	8	5	[0, 0, 0]	n/a	FR1	4	R1542J
543.932	1.601	581067	WORD	n/a	wordpools/wordpool_long_EN.txt	FUR	9	5	[0, 0, 0]	n/a	FR1	4	R1542J
545.533	0.833	582661	WORD_OFF	n/a	n/a	FUR	9	5	[0, 0, 0]	n/a	FR1	4	R1542J
546.366	1.6	583506	WORD	n/a	wordpools/wordpool_long_EN.txt	MOLE	10	5	[0, 0, 0]	n/a	FR1	4	R1542J
547.966	0.966	585100	WORD_OFF	n/a	n/a	MOLE	10	5	[0, 0, 0]	n/a	FR1	4	R1542J
548.932	1.6	586060	WORD	n/a	wordpools/wordpool_long_EN.txt	HOUSE	11	5	[0, 0, 0]	n/a	FR1	4	R1542J
550.532	0.834	587669	WORD_OFF	n/a	n/a	HOUSE	11	5	[0, 0, 0]	n/a	FR1	4	R1542J
551.366	1.616	588499	WORD	n/a	wordpools/wordpool_long_EN.txt	STEM	12	5	[0, 0, 0]	n/a	FR1	4	R1542J
552.982	0.001	590109	WORD_OFF	n/a	n/a	STEM	12	5	[0, 0, 0]	n/a	FR1	4	R1542J
552.983	0.0	590122	START	n/a	n/a	n/a	-999	5	[-999, -999, -999]	n/a	FR1	4	R1542J
552.983	0.0	590122	PROB	0.0	n/a	n/a	-999	5	[3, 2, 4]	9	FR1	4	R1542J
552.983	0.0	590125	ENCODING_END	n/a	n/a	n/a	-999	5	[0, 0, 0]	n/a	FR1	4	R1542J
552.983	4.05	590125	DISTRACT_START	n/a	n/a	n/a	-999	5	[0, 0, 0]	n/a	FR1	4	R1542J
557.033	2.366	594171	PROB	2.366	n/a	n/a	-999	5	[8, 1, 7]	16	FR1	4	R1542J
559.399	2.083	596537	PROB	2.083	n/a	n/a	-999	5	[7, 6, 5]	18	FR1	4	R1542J
561.482	1.834	598620	PROB	1.834	n/a	n/a	-999	5	[6, 5, 3]	14	FR1	4	R1542J
563.316	3.083	600454	PROB	3.083	n/a	n/a	-999	5	[5, 1, 1]	7	FR1	4	R1542J
566.399	3.15	603537	PROB	3.15	n/a	n/a	-999	5	[4, 4, 6]	14	FR1	4	R1542J
569.549	2.318	606687	PROB	2.318	n/a	n/a	-999	5	[3, 7, 8]	18	FR1	4	R1542J
571.867	2.849	609005	PROB	2.849	n/a	n/a	-999	5	[5, 6, 7]	18	FR1	4	R1542J
574.716	0.0	611851	DISTRACT_END	n/a	n/a	n/a	-999	5	[0, 0, 0]	n/a	FR1	4	R1542J
574.716	1.901	611854	STOP	n/a	n/a	n/a	-999	5	[-999, -999, -999]	n/a	FR1	4	R1542J
576.617	0.635	613754	REC_START	n/a	n/a	n/a	-999	5	[0, 0, 0]	n/a	FR1	4	R1542J
577.252	1.01	614389	REC_WORD	1.01	n/a	BEAST	6	5	[0, 0, 0]	n/a	FR1	4	R1542J
578.262	1.085	615399	REC_WORD	1.085	n/a	FUR	9	5	[0, 0, 0]	n/a	FR1	4	R1542J
579.347	1.335	616484	REC_WORD	1.335	n/a	STEM	12	5	[0, 0, 0]	n/a	FR1	4	R1542J
580.682	0.98	617819	REC_WORD	0.98	n/a	MOLE	10	5	[0, 0, 0]	n/a	FR1	4	R1542J
581.662	2.685	618799	REC_WORD	2.685	n/a	SPRING	2	5	[0, 0, 0]	n/a	FR1	4	R1542J
584.347	9.045	621484	REC_WORD	9.045	n/a	HOUSE	11	5	[0, 0, 0]	n/a	FR1	4	R1542J
593.392	13.448	630529	REC_WORD	13.448	n/a	TART	7	5	[0, 0, 0]	n/a	FR1	4	R1542J
606.84	0.476	643969	REC_END	n/a	n/a	n/a	-999	5	[0, 0, 0]	n/a	FR1	4	R1542J
607.316	10.35	644457	COUNTDOWN_START	n/a	n/a	n/a	-999	6	[0, 0, 0]	n/a	FR1	4	R1542J
617.666	0.0	654800	COUNTDOWN_END	n/a	n/a	n/a	-999	6	[0, 0, 0]	n/a	FR1	4	R1542J
617.666	2.301	654800	ENCODING_START	n/a	n/a	n/a	-999	6	[0, 0, 0]	n/a	FR1	4	R1542J
619.967	1.617	657093	WORD	n/a	wordpools/wordpool_long_EN.txt	STREET	1	6	[0, 0, 0]	n/a	FR1	4	R1542J
621.584	0.882	658719	WORD_OFF	n/a	n/a	STREET	1	6	[0, 0, 0]	n/a	FR1	4	R1542J
622.466	1.601	659598	WORD	n/a	wordpools/wordpool_long_EN.txt	SKY	2	6	[0, 0, 0]	n/a	FR1	4	R1542J
624.067	0.915	661191	WORD_OFF	n/a	n/a	SKY	2	6	[0, 0, 0]	n/a	FR1	4	R1542J
624.982	1.601	662118	WORD	n/a	wordpools/wordpool_long_EN.txt	MAIL	3	6	[0, 0, 0]	n/a	FR1	4	R1542J
626.583	0.949	663712	WORD_OFF	n/a	n/a	MAIL	3	6	[0, 0, 0]	n/a	FR1	4	R1542J
627.532	1.601	664655	WORD	n/a	wordpools/wordpool_long_EN.txt	HOUND	4	6	[0, 0, 0]	n/a	FR1	4	R1542J
629.133	0.95	666265	WORD_OFF	n/a	n/a	HOUND	4	6	[0, 0, 0]	n/a	FR1	4	R1542J
630.083	1.601	667208	WORD	n/a	wordpools/wordpool_long_EN.txt	SOAP	5	6	[0, 0, 0]	n/a	FR1	4	R1542J
631.684	0.999	668818	WORD_OFF	n/a	n/a	SOAP	5	6	[0, 0, 0]	n/a	FR1	4	R1542J
632.683	1.6	669810	WORD	n/a	wordpools/wordpool_long_EN.txt	GOLD	6	6	[0, 0, 0]	n/a	FR1	4	R1542J
634.283	1.0	671420	WORD_OFF	n/a	n/a	GOLD	6	6	[0, 0, 0]	n/a	FR1	4	R1542J
635.283	1.6	672412	WORD	n/a	wordpools/wordpool_long_EN.txt	RICE	7	6	[0, 0, 0]	n/a	FR1	4	R1542J
636.883	0.766	674006	WORD_OFF	n/a	n/a	RICE	7	6	[0, 0, 0]	n/a	FR1	4	R1542J
637.649	1.6	674786	WORD	n/a	wordpools/wordpool_long_EN.txt	STAR	8	6	[0, 0, 0]	n/a	FR1	4	R1542J
639.249	0.768	676380	WORD_OFF	n/a	n/a	STAR	8	6	[0, 0, 0]	n/a	FR1	4	R1542J
640.017	1.615	677144	WORD	n/a	wordpools/wordpool_long_EN.txt	SCHOOL	9	6	[0, 0, 0]	n/a	FR1	4	R1542J
641.632	0.784	678754	WORD_OFF	n/a	n/a	SCHOOL	9	6	[0, 0, 0]	n/a	FR1	4	R1542J
642.416	1.6	679551	WORD	n/a	wordpools/wordpool_long_EN.txt	LOCK	10	6	[0, 0, 0]	n/a	FR1	4	R1542J
644.016	0.8	681145	WORD_OFF	n/a	n/a	LOCK	10	6	[0, 0, 0]	n/a	FR1	4	R1542J
644.816	1.615	681942	WORD	n/a	wordpools/wordpool_long_EN.txt	FRAME	11	6	[0, 0, 0]	n/a	FR1	4	R1542J
646.431	0.968	683568	WORD_OFF	n/a	n/a	FRAME	11	6	[0, 0, 0]	n/a	FR1	4	R1542J
647.399	1.6	684528	WORD	n/a	wordpools/wordpool_long_EN.txt	SHOE	12	6	[0, 0, 0]	n/a	FR1	4	R1542J
648.999	0.001	686121	WORD_OFF	n/a	n/a	SHOE	12	6	[0, 0, 0]	n/a	FR1	4	R1542J
649.0	0.001	686134	START	n/a	n/a	n/a	-999	6	[-999, -999, -999]	n/a	FR1	4	R1542J
649.001	0.0	686135	PROB	0.0	n/a	n/a	-999	6	[7, 2, 6]	15	FR1	4	R1542J
649.0	0.0	686138	ENCODING_END	n/a	n/a	n/a	-999	6	[0, 0, 0]	n/a	FR1	4	R1542J
649.0	3.298	686138	DISTRACT_START	n/a	n/a	n/a	-999	6	[0, 0, 0]	n/a	FR1	4	R1542J
652.298	2.635	689432	PROB	2.635	n/a	n/a	-999	6	[2, 1, 3]	6	FR1	4	R1542J
654.933	2.336	692067	PROB	2.336	n/a	n/a	-999	6	[4, 1, 2]	7	FR1	4	R1542J
657.269	3.03	694403	PROB	3.03	n/a	n/a	-999	6	[6, 5, 8]	19	FR1	4	R1542J
660.299	3.384	697433	PROB	3.384	n/a	n/a	-999	6	[8, 1, 7]	16	FR1	4	R1542J
663.683	2.451	700817	PROB	2.451	n/a	n/a	-999	6	[5, 3, 4]	12	FR1	4	R1542J
666.134	2.816	703268	PROB	2.816	n/a	n/a	-999	6	[2, 4, 8]	14	FR1	4	R1542J
668.95	1.683	706084	PROB	1.683	n/a	n/a	-999	6	[3, 3, 3]	9	FR1	4	R1542J
670.633	0.0	707766	DISTRACT_END	n/a	n/a	n/a	-999	6	[0, 0, 0]	n/a	FR1	4	R1542J
670.633	1.533	707767	STOP	n/a	n/a	n/a	-999	6	[-999, -999, -999]	n/a	FR1	4	R1542J
672.166	2.72	709295	REC_START	n/a	n/a	n/a	-999	6	[0, 0, 0]	n/a	FR1	4	R1542J
674.886	1.1	712019	REC_WORD	1.1	n/a	MAIL	3	6	[0, 0, 0]	n/a	FR1	4	R1542J
675.986	0.985	713119	REC_WORD	0.985	n/a	GOLD	6	6	[0, 0, 0]	n/a	FR1	4	R1542J
676.971	3.505	714104	REC_WORD	3.505	n/a	SOAP	5	6	[0, 0, 0]	n/a	FR1	4	R1542J
680.476	2.325	717609	REC_WORD	2.325	n/a	SHOE	12	6	[0, 0, 0]	n/a	FR1	4	R1542J
682.801	1.91	719934	REC_WORD	1.91	n/a	LOCK	10	6	[0, 0, 0]	n/a	FR1	4	R1542J
684.711	1.795	721844	REC_WORD	1.795	n/a	SKY	2	6	[0, 0, 0]	n/a	FR1	4	R1542J
686.506	11.895	723639	REC_WORD	11.895	n/a	STREET	1	6	[0, 0, 0]	n/a	FR1	4	R1542J
698.401	3.983	735533	REC_WORD	3.983	n/a	HOUND	4	6	[0, 0, 0]	n/a	FR1	4	R1542J
702.384	1.349	739510	REC_END	n/a	n/a	n/a	-999	6	[0, 0, 0]	n/a	FR1	4	R1542J
703.733	10.35	740860	COUNTDOWN_START	n/a	n/a	n/a	-999	7	[0, 0, 0]	n/a	FR1	4	R1542J
714.083	0.0	751203	COUNTDOWN_END	n/a	n/a	n/a	-999	7	[0, 0, 0]	n/a	FR1	4	R1542J
714.083	2.034	751219	ENCODING_START	n/a	n/a	n/a	-999	7	[0, 0, 0]	n/a	FR1	4	R1542J
716.117	1.6	753236	WORD	n/a	wordpools/wordpool_long_EN.txt	SIGN	1	7	[0, 0, 0]	n/a	FR1	4	R1542J
717.717	0.966	754846	WORD_OFF	n/a	n/a	SIGN	1	7	[0, 0, 0]	n/a	FR1	4	R1542J
718.683	1.6	755805	WORD	n/a	wordpools/wordpool_long_EN.txt	SPARK	2	7	[0, 0, 0]	n/a	FR1	4	R1542J
720.283	0.917	757415	WORD_OFF	n/a	n/a	SPARK	2	7	[0, 0, 0]	n/a	FR1	4	R1542J
721.2	1.616	758326	WORD	n/a	wordpools/wordpool_long_EN.txt	HOSE	3	7	[0, 0, 0]	n/a	FR1	4	R1542J
722.816	0.782	759936	WORD_OFF	n/a	n/a	HOSE	3	7	[0, 0, 0]	n/a	FR1	4	R1542J
723.598	1.601	760733	WORD	n/a	wordpools/wordpool_long_EN.txt	GATE	4	7	[0, 0, 0]	n/a	FR1	4	R1542J
725.199	0.95	762326	WORD_OFF	n/a	n/a	GATE	4	7	[0, 0, 0]	n/a	FR1	4	R1542J
726.149	1.617	763270	WORD	n/a	wordpools/wordpool_long_EN.txt	CHILD	5	7	[0, 0, 0]	n/a	FR1	4	R1542J
727.766	0.901	764896	WORD_OFF	n/a	n/a	CHILD	5	7	[0, 0, 0]	n/a	FR1	4	R1542J
728.667	1.615	765790	WORD	n/a	wordpools/wordpool_long_EN.txt	GLOBE	6	7	[0, 0, 0]	n/a	FR1	4	R1542J
730.282	0.952	767400	WORD_OFF	n/a	n/a	GLOBE	6	7	[0, 0, 0]	n/a	FR1	4	R1542J
731.234	1.616	768360	WORD	n/a	wordpools/wordpool_long_EN.txt	HUT	7	7	[0, 0, 0]	n/a	FR1	4	R1542J
732.85	0.916	769970	WORD_OFF	n/a	n/a	HUT	7	7	[0, 0, 0]	n/a	FR1	4	R1542J
733.766	1.6	770897	WORD	n/a	wordpools/wordpool_long_EN.txt	GRILL	8	7	[0, 0, 0]	n/a	FR1	4	R1542J
735.366	0.899	772490	WORD_OFF	n/a	n/a	GRILL	8	7	[0, 0, 0]	n/a	FR1	4	R1542J
736.265	1.619	773385	WORD	n/a	wordpools/wordpool_long_EN.txt	FLAME	9	7	[0, 0, 0]	n/a	FR1	4	R1542J
737.884	0.964	775011	WORD_OFF	n/a	n/a	FLAME	9	7	[0, 0, 0]	n/a	FR1	4	R1542J
738.848	1.601	775970	WORD	n/a	wordpools/wordpool_long_EN.txt	INN	10	7	[0, 0, 0]	n/a	FR1	4	R1542J
740.449	0.9	777580	WORD_OFF	n/a	n/a	INN	10	7	[0, 0, 0]	n/a	FR1	4	R1542J
741.349	1.6	778475	WORD	n/a	wordpools/wordpool_long_EN.txt	CRANE	11	7	[0, 0, 0]	n/a	FR1	4	R1542J
742.949	0.867	780068	WORD_OFF	n/a	n/a	CRANE	11	7	[0, 0, 0]	n/a	FR1	4	R1542J
743.816	1.616	780947	WORD	n/a	wordpools/wordpool_long_EN.txt	BOX	12	7	[0, 0, 0]	n/a	FR1	4	R1542J
745.432	0.002	782557	WORD_OFF	n/a	n/a	BOX	12	7	[0, 0, 0]	n/a	FR1	4	R1542J
745.434	0.0	782557	ENCODING_END	n/a	n/a	n/a	-999	7	[0, 0, 0]	n/a	FR1	4	R1542J
745.434	0.0	782557	DISTRACT_START	n/a	n/a	n/a	-999	7	[0, 0, 0]	n/a	FR1	4	R1542J
745.432	0.002	782562	PROB	0.002	n/a	n/a	-999	7	[2, 5, 8]	15	FR1	4	R1542J
745.434	3.249	782564	START	n/a	n/a	n/a	-999	7	[-999, -999, -999]	n/a	FR1	4	R1542J
748.683	2.8	785813	PROB	2.8	n/a	n/a	-999	7	[4, 4, 7]	15	FR1	4	R1542J
751.483	2.683	788613	PROB	2.683	n/a	n/a	-999	7	[6, 4, 4]	14	FR1	4	R1542J
754.166	2.799	791296	PROB	2.799	n/a	n/a	-999	7	[4, 6, 8]	18	FR1	4	R1542J
756.965	2.418	794095	PROB	2.418	n/a	n/a	-999	7	[4, 6, 8]	18	FR1	4	R1542J
759.383	1.784	796513	PROB	1.784	n/a	n/a	-999	7	[2, 3, 2]	7	FR1	4	R1542J
761.167	2.417	798297	PROB	2.417	n/a	n/a	-999	7	[6, 2, 4]	12	FR1	4	R1542J
763.584	2.414	800714	PROB	2.414	n/a	n/a	-999	7	[3, 3, 8]	14	FR1	4	R1542J
765.998	0.0	803128	DISTRACT_END	n/a	n/a	n/a	-999	7	[0, 0, 0]	n/a	FR1	4	R1542J
765.998	1.701	803128	STOP	n/a	n/a	n/a	-999	7	[-999, -999, -999]	n/a	FR1	4	R1542J
767.699	1.34	804820	REC_START	n/a	n/a	n/a	-999	7	[0, 0, 0]	n/a	FR1	4	R1542J
769.039	1.355	806168	REC_WORD	1.355	n/a	CHILD	5	7	[0, 0, 0]	n/a	FR1	4	R1542J
770.394	1.085	807523	REC_WORD	1.085	n/a	BOX	12	7	[0, 0, 0]	n/a	FR1	4	R1542J
771.479	1.379	808608	REC_WORD	1.379	n/a	HUT	7	7	[0, 0, 0]	n/a	FR1	4	R1542J
772.858	1.116	809987	REC_WORD	1.116	n/a	INN	10	7	[0, 0, 0]	n/a	FR1	4	R1542J
773.974	1.185	811103	REC_WORD	1.185	n/a	CRANE	11	7	[0, 0, 0]	n/a	FR1	4	R1542J
775.159	1.455	812288	REC_WORD	1.455	n/a	SPARK	2	7	[0, 0, 0]	n/a	FR1	4	R1542J
776.614	1.995	813743	REC_WORD	1.995	n/a	FLAME	9	7	[0, 0, 0]	n/a	FR1	4	R1542J
778.609	1.23	815738	REC_WORD	1.23	n/a	SIGN	1	7	[0, 0, 0]	n/a	FR1	4	R1542J
779.839	18.085	816968	REC_WORD	18.085	n/a	GLOBE	6	7	[0, 0, 0]	n/a	FR1	4	R1542J
797.924	1.427	835051	REC_END	n/a	n/a	n/a	-999	7	[0, 0, 0]	n/a	FR1	4	R1542J
799.351	10.349	836482	COUNTDOWN_START	n/a	n/a	n/a	-999	8	[0, 0, 0]	n/a	FR1	4	R1542J
809.7	0.0	846825	COUNTDOWN_END	n/a	n/a	n/a	-999	8	[0, 0, 0]	n/a	FR1	4	R1542J
809.7	1.816	846825	ENCODING_START	n/a	n/a	n/a	-999	8	[0, 0, 0]	n/a	FR1	4	R1542J
811.516	1.616	848646	WORD	n/a	wordpools/wordpool_long_EN.txt	BRUSH	1	8	[0, 0, 0]	n/a	FR1	4	R1542J
813.132	0.817	850256	WORD_OFF	n/a	n/a	BRUSH	1	8	[0, 0, 0]	n/a	FR1	4	R1542J
813.949	1.601	851070	WORD	n/a	wordpools/wordpool_long_EN.txt	ARK	2	8	[0, 0, 0]	n/a	FR1	4	R1542J
815.55	0.95	852680	WORD_OFF	n/a	n/a	ARK	2	8	[0, 0, 0]	n/a	FR1	4	R1542J
816.5	1.6	853623	WORD	n/a	wordpools/wordpool_long_EN.txt	BEAN	3	8	[0, 0, 0]	n/a	FR1	4	R1542J
818.1	0.883	855216	WORD_OFF	n/a	n/a	BEAN	3	8	[0, 0, 0]	n/a	FR1	4	R1542J
818.983	1.617	856111	WORD	n/a	wordpools/wordpool_long_EN.txt	FROG	4	8	[0, 0, 0]	n/a	FR1	4	R1542J
820.6	0.9	857721	WORD_OFF	n/a	n/a	FROG	4	8	[0, 0, 0]	n/a	FR1	4	R1542J
821.5	1.615	858615	WORD	n/a	wordpools/wordpool_long_EN.txt	SHELL	5	8	[0, 0, 0]	n/a	FR1	4	R1542J
823.115	1.0	860241	WORD_OFF	n/a	n/a	SHELL	5	8	[0, 0, 0]	n/a	FR1	4	R1542J
824.115	1.601	861233	WORD	n/a	wordpools/wordpool_long_EN.txt	ELF	6	8	[0, 0, 0]	n/a	FR1	4	R1542J
825.716	0.818	862843	WORD_OFF	n/a	n/a	ELF	6	8	[0, 0, 0]	n/a	FR1	4	R1542J
826.534	1.616	863657	WORD	n/a	wordpools/wordpool_long_EN.txt	BLOOM	7	8	[0, 0, 0]	n/a	FR1	4	R1542J
828.15	0.917	865267	WORD_OFF	n/a	n/a	BLOOM	7	8	[0, 0, 0]	n/a	FR1	4	R1542J
829.067	1.6	866193	WORD	n/a	wordpools/wordpool_long_EN.txt	TREE	8	8	[0, 0, 0]	n/a	FR1	4	R1542J
830.667	0.766	867787	WORD_OFF	n/a	n/a	TREE	8	8	[0, 0, 0]	n/a	FR1	4	R1542J
831.433	1.616	868552	WORD	n/a	wordpools/wordpool_long_EN.txt	RAT	9	8	[0, 0, 0]	n/a	FR1	4	R1542J
833.049	0.985	870178	WORD_OFF	n/a	n/a	RAT	9	8	[0, 0, 0]	n/a	FR1	4	R1542J
834.034	1.615	871153	WORD	n/a	wordpools/wordpool_long_EN.txt	RAFT	10	8	[0, 0, 0]	n/a	FR1	4	R1542J
835.649	0.801	872763	WORD_OFF	n/a	n/a	RAFT	10	8	[0, 0, 0]	n/a	FR1	4	R1542J
836.45	1.6	873577	WORD	n/a	wordpools/wordpool_long_EN.txt	WAND	11	8	[0, 0, 0]	n/a	FR1	4	R1542J
838.05	0.849	875170	WORD_OFF	n/a	n/a	WAND	11	8	[0, 0, 0]	n/a	FR1	4	R1542J
838.899	1.616	876016	WORD	n/a	wordpools/wordpool_long_EN.txt	WOLF	12	8	[0, 0, 0]	n/a	FR1	4	R1542J
840.515	0.002	877642	WORD_OFF	n/a	n/a	WOLF	12	8	[0, 0, 0]	n/a	FR1	4	R1542J
840.517	0.0	877642	ENCODING_END	n/a	n/a	n/a	-999	8	[0, 0, 0]	n/a	FR1	4	R1542J
840.517	0.0	877642	DISTRACT_START	n/a	n/a	n/a	-999	8	[0, 0, 0]	n/a	FR1	4	R1542J
840.516	0.001	877642	PROB	0.001	n/a	n/a	-999	8	[5, 1, 5]	11	FR1	4	R1542J
840.517	2.882	877643	START	n/a	n/a	n/a	-999	8	[-999, -999, -999]	n/a	FR1	4	R1542J
843.399	2.634	880525	PROB	2.634	n/a	n/a	-999	8	[5, 3, 2]	10	FR1	4	R1542J
846.033	2.649	883159	PROB	2.649	n/a	n/a	-999	8	[6, 4, 2]	12	FR1	4	R1542J
848.682	1.918	885808	PROB	1.918	n/a	n/a	-999	8	[2, 3, 7]	12	FR1	4	R1542J
850.6	1.934	887726	PROB	1.934	n/a	n/a	-999	8	[7, 5, 2]	14	FR1	4	R1542J
852.534	1.733	889660	PROB	1.733	n/a	n/a	-999	8	[5, 7, 1]	13	FR1	4	R1542J
854.267	2.3	891393	PROB	2.3	n/a	n/a	-999	8	[8, 8, 7]	23	FR1	4	R1542J
856.567	1.982	893693	PROB	1.982	n/a	n/a	-999	8	[4, 3, 1]	8	FR1	4	R1542J
858.549	1.818	895675	PROB	1.818	n/a	n/a	-999	8	[8, 1, 2]	11	FR1	4	R1542J
860.367	2.149	897493	PROB	2.149	n/a	n/a	-999	8	[5, 5, 6]	16	FR1	4	R1542J
862.516	0.0	899629	DISTRACT_END	n/a	n/a	n/a	-999	8	[0, 0, 0]	n/a	FR1	4	R1542J
862.516	1.55	899642	STOP	n/a	n/a	n/a	-999	8	[-999, -999, -999]	n/a	FR1	4	R1542J
864.066	1.1	901190	REC_START	n/a	n/a	n/a	-999	8	[0, 0, 0]	n/a	FR1	4	R1542J
865.166	1.345	902291	REC_WORD	1.345	n/a	BRUSH	1	8	[0, 0, 0]	n/a	FR1	4	R1542J
866.511	1.335	903636	REC_WORD	1.335	n/a	ARCH	-999	8	[0, 0, 0]	n/a	FR1	4	R1542J
867.846	1.61	904971	REC_WORD	1.61	n/a	WAND	11	8	[0, 0, 0]	n/a	FR1	4	R1542J
869.456	20.05	906581	REC_WORD	20.05	n/a	WOLF	12	8	[0, 0, 0]	n/a	FR1	4	R1542J
889.506	4.798	926630	REC_WORD	4.798	n/a	BLOOM	7	8	[0, 0, 0]	n/a	FR1	4	R1542J
894.304	1.563	931421	REC_END	n/a	n/a	n/a	-999	8	[0, 0, 0]	n/a	FR1	4	R1542J
895.867	10.349	932983	COUNTDOWN_START	n/a	n/a	n/a	-999	9	[0, 0, 0]	n/a	FR1	4	R1542J
906.216	0.001	943342	COUNTDOWN_END	n/a	n/a	n/a	-999	9	[0, 0, 0]	n/a	FR1	4	R1542J
906.217	2.115	943342	ENCODING_START	n/a	n/a	n/a	-999	9	[0, 0, 0]	n/a	FR1	4	R1542J
908.332	1.602	945456	WORD	n/a	wordpools/wordpool_long_EN.txt	FRUIT	1	9	[0, 0, 0]	n/a	FR1	4	R1542J
909.934	0.981	947050	WORD_OFF	n/a	n/a	FRUIT	1	9	[0, 0, 0]	n/a	FR1	4	R1542J
910.915	1.601	948042	WORD	n/a	wordpools/wordpool_long_EN.txt	BEEF	2	9	[0, 0, 0]	n/a	FR1	4	R1542J
912.516	0.816	949635	WORD_OFF	n/a	n/a	BEEF	2	9	[0, 0, 0]	n/a	FR1	4	R1542J
913.332	1.6	950448	WORD	n/a	wordpools/wordpool_long_EN.txt	BATH	3	9	[0, 0, 0]	n/a	FR1	4	R1542J
914.932	0.883	952058	WORD_OFF	n/a	n/a	BATH	3	9	[0, 0, 0]	n/a	FR1	4	R1542J
915.815	1.602	952936	WORD	n/a	wordpools/wordpool_long_EN.txt	ICE	4	9	[0, 0, 0]	n/a	FR1	4	R1542J
917.417	0.882	954530	WORD_OFF	n/a	n/a	ICE	4	9	[0, 0, 0]	n/a	FR1	4	R1542J
918.299	1.617	955425	WORD	n/a	wordpools/wordpool_long_EN.txt	TEETH	5	9	[0, 0, 0]	n/a	FR1	4	R1542J
919.916	0.833	957035	WORD_OFF	n/a	n/a	TEETH	5	9	[0, 0, 0]	n/a	FR1	4	R1542J
920.749	1.618	957864	WORD	n/a	wordpools/wordpool_long_EN.txt	TANK	6	9	[0, 0, 0]	n/a	FR1	4	R1542J
922.367	0.915	959490	WORD_OFF	n/a	n/a	TANK	6	9	[0, 0, 0]	n/a	FR1	4	R1542J
923.282	1.6	960401	WORD	n/a	wordpools/wordpool_long_EN.txt	STORE	7	9	[0, 0, 0]	n/a	FR1	4	R1542J
924.882	0.901	961995	WORD_OFF	n/a	n/a	STORE	7	9	[0, 0, 0]	n/a	FR1	4	R1542J
925.783	1.601	962905	WORD	n/a	wordpools/wordpool_long_EN.txt	CHALK	8	9	[0, 0, 0]	n/a	FR1	4	R1542J
927.384	0.865	964499	WORD_OFF	n/a	n/a	CHALK	8	9	[0, 0, 0]	n/a	FR1	4	R1542J
928.249	1.599	965361	WORD	n/a	wordpools/wordpool_long_EN.txt	HOOD	9	9	[0, 0, 0]	n/a	FR1	4	R1542J
929.848	0.935	966971	WORD_OFF	n/a	n/a	HOOD	9	9	[0, 0, 0]	n/a	FR1	4	R1542J
930.783	1.6	967898	WORD	n/a	wordpools/wordpool_long_EN.txt	PAIL	10	9	[0, 0, 0]	n/a	FR1	4	R1542J
932.383	0.85	969508	WORD_OFF	n/a	n/a	PAIL	10	9	[0, 0, 0]	n/a	FR1	4	R1542J
933.233	1.617	970353	WORD	n/a	wordpools/wordpool_long_EN.txt	BAT	11	9	[0, 0, 0]	n/a	FR1	4	R1542J
934.85	1.017	971963	WORD_OFF	n/a	n/a	BAT	11	9	[0, 0, 0]	n/a	FR1	4	R1542J
935.867	1.617	972988	WORD	n/a	wordpools/wordpool_long_EN.txt	SPACE	12	9	[0, 0, 0]	n/a	FR1	4	R1542J
937.484	0.003	974598	WORD_OFF	n/a	n/a	SPACE	12	9	[0, 0, 0]	n/a	FR1	4	R1542J
937.487	0.0	974598	ENCODING_END	n/a	n/a	n/a	-999	9	[0, 0, 0]	n/a	FR1	4	R1542J
937.487	0.0	974598	DISTRACT_START	n/a	n/a	n/a	-999	9	[0, 0, 0]	n/a	FR1	4	R1542J
937.483	0.004	974605	PROB	0.004	n/a	n/a	-999	9	[2, 2, 4]	8	FR1	4	R1542J
937.487	3.23	974609	START	n/a	n/a	n/a	-999	9	[-999, -999, -999]	n/a	FR1	4	R1542J
940.717	2.415	977839	PROB	2.415	n/a	n/a	-999	9	[6, 5, 5]	16	FR1	4	R1542J
943.132	1.817	980254	PROB	1.817	n/a	n/a	-999	9	[7, 2, 2]	11	FR1	4	R1542J
944.949	2.534	982071	PROB	2.534	n/a	n/a	-999	9	[3, 4, 7]	14	FR1	4	R1542J
947.483	2.768	984605	PROB	2.768	n/a	n/a	-999	9	[6, 8, 6]	20	FR1	4	R1542J
950.251	2.05	987373	PROB	2.05	n/a	n/a	-999	9	[3, 3, 8]	14	FR1	4	R1542J
952.301	3.098	989423	PROB	3.098	n/a	n/a	-999	9	[6, 1, 8]	15	FR1	4	R1542J
955.399	1.968	992521	PROB	1.968	n/a	n/a	-999	9	[6, 1, 1]	8	FR1	4	R1542J
957.367	2.966	994489	PROB	2.966	n/a	n/a	-999	9	[8, 5, 5]	18	FR1	4	R1542J
960.333	0.0	997446	DISTRACT_END	n/a	n/a	n/a	-999	9	[0, 0, 0]	n/a	FR1	4	R1542J
960.333	1.648	997454	STOP	n/a	n/a	n/a	-999	9	[-999, -999, -999]	n/a	FR1	4	R1542J
961.981	3.045	999105	REC_START	n/a	n/a	n/a	-999	9	[0, 0, 0]	n/a	FR1	4	R1542J
965.026	1.315	1002147	REC_WORD	1.315	n/a	BATH	3	9	[0, 0, 0]	n/a	FR1	4	R1542J
966.341	1.69	1003462	REC_WORD	1.69	n/a	ICE	4	9	[0, 0, 0]	n/a	FR1	4	R1542J
968.031	1.345	1005152	REC_WORD	1.345	n/a	TANK	6	9	[0, 0, 0]	n/a	FR1	4	R1542J
969.376	1.555	1006497	REC_WORD	1.555	n/a	FRUIT	1	9	[0, 0, 0]	n/a	FR1	4	R1542J
970.931	1.54	1008052	REC_WORD	1.54	n/a	BEEF	2	9	[0, 0, 0]	n/a	FR1	4	R1542J
972.471	1.56	1009592	REC_WORD	1.56	n/a	BAT	11	9	[0, 0, 0]	n/a	FR1	4	R1542J
974.031	18.156	1011152	REC_WORD	18.156	n/a	PAIL	10	9	[0, 0, 0]	n/a	FR1	4	R1542J
992.187	1.68	1029304	REC_END	n/a	n/a	n/a	-999	9	[0, 0, 0]	n/a	FR1	4	R1542J
993.867	10.349	1030979	COUNTDOWN_START	n/a	n/a	n/a	-999	10	[0, 0, 0]	n/a	FR1	4	R1542J
1004.216	0.0	1041338	COUNTDOWN_END	n/a	n/a	n/a	-999	10	[0, 0, 0]	n/a	FR1	4	R1542J
1004.216	2.034	1041338	ENCODING_START	n/a	n/a	n/a	-999	10	[0, 0, 0]	n/a	FR1	4	R1542J
1006.25	1.616	1043371	WORD	n/a	wordpools/wordpool_long_EN.txt	VASE	1	10	[0, 0, 0]	n/a	FR1	4	R1542J
1007.866	0.767	1044981	WORD_OFF	n/a	n/a	VASE	1	10	[0, 0, 0]	n/a	FR1	4	R1542J
1008.633	1.599	1045745	WORD	n/a	wordpools/wordpool_long_EN.txt	POOL	2	10	[0, 0, 0]	n/a	FR1	4	R1542J
1010.232	0.868	1047355	WORD_OFF	n/a	n/a	POOL	2	10	[0, 0, 0]	n/a	FR1	4	R1542J
1011.1	1.6	1048217	WORD	n/a	wordpools/wordpool_long_EN.txt	OWL	3	10	[0, 0, 0]	n/a	FR1	4	R1542J
1012.7	0.866	1049811	WORD_OFF	n/a	n/a	OWL	3	10	[0, 0, 0]	n/a	FR1	4	R1542J
1013.566	1.6	1050689	WORD	n/a	wordpools/wordpool_long_EN.txt	SHIELD	4	10	[0, 0, 0]	n/a	FR1	4	R1542J
1015.166	0.967	1052283	WORD_OFF	n/a	n/a	SHIELD	4	10	[0, 0, 0]	n/a	FR1	4	R1542J
1016.133	1.617	1053242	WORD	n/a	wordpools/wordpool_long_EN.txt	ROPE	5	10	[0, 0, 0]	n/a	FR1	4	R1542J
1017.75	0.933	1054868	WORD_OFF	n/a	n/a	ROPE	5	10	[0, 0, 0]	n/a	FR1	4	R1542J
1018.683	1.616	1055795	WORD	n/a	wordpools/wordpool_long_EN.txt	BOY	6	10	[0, 0, 0]	n/a	FR1	4	R1542J
1020.299	0.867	1057405	WORD_OFF	n/a	n/a	BOY	6	10	[0, 0, 0]	n/a	FR1	4	R1542J
1021.166	1.601	1058284	WORD	n/a	wordpools/wordpool_long_EN.txt	BIRD	7	10	[0, 0, 0]	n/a	FR1	4	R1542J
1022.767	0.799	1059877	WORD_OFF	n/a	n/a	BIRD	7	10	[0, 0, 0]	n/a	FR1	4	R1542J
1023.566	1.601	1060674	WORD	n/a	wordpools/wordpool_long_EN.txt	CAT	8	10	[0, 0, 0]	n/a	FR1	4	R1542J
1025.167	0.915	1062284	WORD_OFF	n/a	n/a	CAT	8	10	[0, 0, 0]	n/a	FR1	4	R1542J
1026.082	1.601	1063195	WORD	n/a	wordpools/wordpool_long_EN.txt	GIFT	9	10	[0, 0, 0]	n/a	FR1	4	R1542J
1027.683	0.767	1064788	WORD_OFF	n/a	n/a	GIFT	9	10	[0, 0, 0]	n/a	FR1	4	R1542J
1028.45	1.615	1065569	WORD	n/a	wordpools/wordpool_long_EN.txt	CLOWN	10	10	[0, 0, 0]	n/a	FR1	4	R1542J
1030.065	0.801	1067179	WORD_OFF	n/a	n/a	CLOWN	10	10	[0, 0, 0]	n/a	FR1	4	R1542J
1030.866	1.615	1067976	WORD	n/a	wordpools/wordpool_long_EN.txt	VAULT	11	10	[0, 0, 0]	n/a	FR1	4	R1542J
1032.481	0.968	1069602	WORD_OFF	n/a	n/a	VAULT	11	10	[0, 0, 0]	n/a	FR1	4	R1542J
1033.449	1.618	1070562	WORD	n/a	wordpools/wordpool_long_EN.txt	DRINK	12	10	[0, 0, 0]	n/a	FR1	4	R1542J
1035.067	0.0	1072185	PROB	0.0	n/a	n/a	-999	10	[5, 1, 3]	9	FR1	4	R1542J
1035.067	0.003	1072188	WORD_OFF	n/a	n/a	DRINK	12	10	[0, 0, 0]	n/a	FR1	4	R1542J
1035.07	0.0	1072188	ENCODING_END	n/a	n/a	n/a	-999	10	[0, 0, 0]	n/a	FR1	4	R1542J
1035.07	0.0	1072188	DISTRACT_START	n/a	n/a	n/a	-999	10	[0, 0, 0]	n/a	FR1	4	R1542J
1035.07	2.18	1072188	START	n/a	n/a	n/a	-999	10	[-999, -999, -999]	n/a	FR1	4	R1542J
1037.25	2.167	1074368	PROB	2.167	n/a	n/a	-999	10	[8, 3, 2]	13	FR1	4	R1542J
1039.417	2.283	1076535	PROB	2.283	n/a	n/a	-999	10	[5, 1, 4]	10	FR1	4	R1542J
1041.7	2.283	1078818	PROB	2.283	n/a	n/a	-999	10	[7, 1, 2]	10	FR1	4	R1542J
1043.983	2.399	1081101	PROB	2.399	n/a	n/a	-999	10	[4, 3, 7]	14	FR1	4	R1542J
1046.382	1.884	1083500	PROB	1.884	n/a	n/a	-999	10	[8, 2, 8]	18	FR1	4	R1542J
1048.266	1.899	1085384	PROB	1.899	n/a	n/a	-999	10	[1, 7, 1]	9	FR1	4	R1542J
1050.165	2.669	1087283	PROB	2.669	n/a	n/a	-999	10	[3, 1, 2]	6	FR1	4	R1542J
1052.834	3.282	1089952	PROB	3.282	n/a	n/a	-999	10	[3, 2, 6]	11	FR1	4	R1542J
1056.116	0.0	1093231	DISTRACT_END	n/a	n/a	n/a	-999	10	[0, 0, 0]	n/a	FR1	4	R1542J
1056.116	1.867	1093233	STOP	n/a	n/a	n/a	-999	10	[-999, -999, -999]	n/a	FR1	4	R1542J
1057.983	0.719	1095101	REC_START	n/a	n/a	n/a	-999	10	[0, 0, 0]	n/a	FR1	4	R1542J
1058.702	1.366	1095819	REC_WORD	1.366	n/a	POOL	2	10	[0, 0, 0]	n/a	FR1	4	R1542J
1060.068	1.26	1097185	REC_WORD	1.26	n/a	OWL	3	10	[0, 0, 0]	n/a	FR1	4	R1542J
1061.328	1.24	1098445	REC_WORD	1.24	n/a	BIRD	7	10	[0, 0, 0]	n/a	FR1	4	R1542J
1062.568	1.09	1099685	REC_WORD	1.09	n/a	GIFT	9	10	[0, 0, 0]	n/a	FR1	4	R1542J
1063.658	1.425	1100775	REC_WORD	1.425	n/a	VAULT	11	10	[0, 0, 0]	n/a	FR1	4	R1542J
1065.083	2.94	1102200	REC_WORD	2.94	n/a	ROPE	5	10	[0, 0, 0]	n/a	FR1	4	R1542J
1068.023	12.945	1105140	REC_WORD	12.945	n/a	VASE	1	10	[0, 0, 0]	n/a	FR1	4	R1542J
1080.968	7.236	1118084	REC_WORD	7.236	n/a	BOY	6	10	[0, 0, 0]	n/a	FR1	4	R1542J
1088.204	1.128	1125317	REC_END	n/a	n/a	n/a	-999	10	[0, 0, 0]	n/a	FR1	4	R1542J
1089.332	10.352	1126439	COUNTDOWN_START	n/a	n/a	n/a	-999	11	[0, 0, 0]	n/a	FR1	4	R1542J
1099.684	0.0	1136798	COUNTDOWN_END	n/a	n/a	n/a	-999	11	[0, 0, 0]	n/a	FR1	4	R1542J
1099.684	2.149	1136798	ENCODING_START	n/a	n/a	n/a	-999	11	[0, 0, 0]	n/a	FR1	4	R1542J
1101.833	1.616	1138944	WORD	n/a	wordpools/wordpool_long_EN.txt	YARN	1	11	[0, 0, 0]	n/a	FR1	4	R1542J
1103.449	0.801	1140554	WORD_OFF	n/a	n/a	YARN	1	11	[0, 0, 0]	n/a	FR1	4	R1542J
1104.25	1.616	1141367	WORD	n/a	wordpools/wordpool_long_EN.txt	POLE	2	11	[0, 0, 0]	n/a	FR1	4	R1542J
1105.866	0.966	1142977	WORD_OFF	n/a	n/a	POLE	2	11	[0, 0, 0]	n/a	FR1	4	R1542J
1106.832	1.601	1143937	WORD	n/a	wordpools/wordpool_long_EN.txt	GLASS	3	11	[0, 0, 0]	n/a	FR1	4	R1542J
1108.433	0.85	1145547	WORD_OFF	n/a	n/a	GLASS	3	11	[0, 0, 0]	n/a	FR1	4	R1542J
1109.283	1.617	1146392	WORD	n/a	wordpools/wordpool_long_EN.txt	SLUG	4	11	[0, 0, 0]	n/a	FR1	4	R1542J
1110.9	0.783	1148002	WORD_OFF	n/a	n/a	SLUG	4	11	[0, 0, 0]	n/a	FR1	4	R1542J
1111.683	1.618	1148799	WORD	n/a	wordpools/wordpool_long_EN.txt	MUG	5	11	[0, 0, 0]	n/a	FR1	4	R1542J
1113.301	0.814	1150409	WORD_OFF	n/a	n/a	MUG	5	11	[0, 0, 0]	n/a	FR1	4	R1542J
1114.115	1.601	1151222	WORD	n/a	wordpools/wordpool_long_EN.txt	DOG	6	11	[0, 0, 0]	n/a	FR1	4	R1542J
1115.716	0.967	1152832	WORD_OFF	n/a	n/a	DOG	6	11	[0, 0, 0]	n/a	FR1	4	R1542J
1116.683	1.6	1153792	WORD	n/a	wordpools/wordpool_long_EN.txt	HAZE	7	11	[0, 0, 0]	n/a	FR1	4	R1542J
1118.283	0.948	1155386	WORD_OFF	n/a	n/a	HAZE	7	11	[0, 0, 0]	n/a	FR1	4	R1542J
1119.231	1.601	1156345	WORD	n/a	wordpools/wordpool_long_EN.txt	SCOTCH	8	11	[0, 0, 0]	n/a	FR1	4	R1542J
1120.832	1.0	1157939	WORD_OFF	n/a	n/a	SCOTCH	8	11	[0, 0, 0]	n/a	FR1	4	R1542J
1121.832	1.601	1158947	WORD	n/a	wordpools/wordpool_long_EN.txt	LAMP	9	11	[0, 0, 0]	n/a	FR1	4	R1542J
1123.433	0.85	1160541	WORD_OFF	n/a	n/a	LAMP	9	11	[0, 0, 0]	n/a	FR1	4	R1542J
1124.283	1.6	1161386	WORD	n/a	wordpools/wordpool_long_EN.txt	CHEEK	10	11	[0, 0, 0]	n/a	FR1	4	R1542J
1125.883	0.9	1162996	WORD_OFF	n/a	n/a	CHEEK	10	11	[0, 0, 0]	n/a	FR1	4	R1542J
1126.783	1.616	1163891	WORD	n/a	wordpools/wordpool_long_EN.txt	PIN	11	11	[0, 0, 0]	n/a	FR1	4	R1542J
1128.399	0.917	1165501	WORD_OFF	n/a	n/a	PIN	11	11	[0, 0, 0]	n/a	FR1	4	R1542J
1129.316	1.6	1166428	WORD	n/a	wordpools/wordpool_long_EN.txt	CONE	12	11	[0, 0, 0]	n/a	FR1	4	R1542J
1130.916	0.002	1168021	WORD_OFF	n/a	n/a	CONE	12	11	[0, 0, 0]	n/a	FR1	4	R1542J
1130.918	0.0	1168021	ENCODING_END	n/a	n/a	n/a	-999	11	[0, 0, 0]	n/a	FR1	4	R1542J
1130.918	0.0	1168021	DISTRACT_START	n/a	n/a	n/a	-999	11	[0, 0, 0]	n/a	FR1	4	R1542J
1130.917	0.001	1168031	PROB	0.001	n/a	n/a	-999	11	[2, 6, 6]	14	FR1	4	R1542J
1130.918	2.632	1168032	START	n/a	n/a	n/a	-999	11	[-999, -999, -999]	n/a	FR1	4	R1542J
1133.55	2.982	1170664	PROB	2.982	n/a	n/a	-999	11	[7, 5, 5]	17	FR1	4	R1542J
1136.532	1.751	1173646	PROB	1.751	n/a	n/a	-999	11	[2, 3, 1]	6	FR1	4	R1542J
1138.283	2.016	1175397	PROB	2.016	n/a	n/a	-999	11	[8, 8, 2]	18	FR1	4	R1542J
1140.299	2.767	1177413	PROB	2.767	n/a	n/a	-999	11	[3, 6, 6]	15	FR1	4	R1542J
1143.066	2.099	1180180	PROB	2.099	n/a	n/a	-999	11	[5, 8, 5]	18	FR1	4	R1542J
1145.165	2.602	1182279	PROB	2.602	n/a	n/a	-999	11	[6, 7, 7]	20	FR1	4	R1542J
1147.767	3.2	1184881	PROB	3.2	n/a	n/a	-999	11	[1, 7, 7]	15	FR1	4	R1542J
1150.967	0.0	1188073	DISTRACT_END	n/a	n/a	n/a	-999	11	[0, 0, 0]	n/a	FR1	4	R1542J
1150.967	1.666	1188081	STOP	n/a	n/a	n/a	-999	11	[-999, -999, -999]	n/a	FR1	4	R1542J
1152.633	1.455	1189748	REC_START	n/a	n/a	n/a	-999	11	[0, 0, 0]	n/a	FR1	4	R1542J
1154.088	1.765	1191201	REC_WORD	1.765	n/a	SLUG	4	11	[0, 0, 0]	n/a	FR1	4	R1542J
1155.853	1.44	1192966	REC_WORD	1.44	n/a	DOG	6	11	[0, 0, 0]	n/a	FR1	4	R1542J
1157.293	1.0	1194406	REC_WORD	1.0	n/a	HAZE	7	11	[0, 0, 0]	n/a	FR1	4	R1542J
1158.293	0.77	1195406	REC_WORD_VV	0.77	n/a	<>	-999	11	[0, 0, 0]	n/a	FR1	4	R1542J
1159.063	6.695	1196176	REC_WORD	6.695	n/a	JAR	-999	11	[0, 0, 0]	n/a	FR1	4	R1542J
1165.758	3.115	1202871	REC_WORD	3.115	n/a	PIN	11	11	[0, 0, 0]	n/a	FR1	4	R1542J
1168.873	13.984	1205986	REC_WORD	13.984	n/a	LIGHT	-999	11	[0, 0, 0]	n/a	FR1	4	R1542J
1182.857	0.46	1219963	REC_END	n/a	n/a	n/a	-999	11	[0, 0, 0]	n/a	FR1	4	R1542J
1183.317	10.349	1220418	COUNTDOWN_START	n/a	n/a	n/a	-999	12	[0, 0, 0]	n/a	FR1	4	R1542J
1193.666	0.0	1230777	COUNTDOWN_END	n/a	n/a	n/a	-999	12	[0, 0, 0]	n/a	FR1	4	R1542J
1193.666	1.934	1230777	ENCODING_START	n/a	n/a	n/a	-999	12	[0, 0, 0]	n/a	FR1	4	R1542J
1195.6	1.615	1232713	WORD	n/a	wordpools/wordpool_long_EN.txt	THUMB	1	12	[0, 0, 0]	n/a	FR1	4	R1542J
1197.215	0.934	1234323	WORD_OFF	n/a	n/a	THUMB	1	12	[0, 0, 0]	n/a	FR1	4	R1542J
1198.149	1.601	1235250	WORD	n/a	wordpools/wordpool_long_EN.txt	SMOG	2	12	[0, 0, 0]	n/a	FR1	4	R1542J
1199.75	0.799	1236860	WORD_OFF	n/a	n/a	SMOG	2	12	[0, 0, 0]	n/a	FR1	4	R1542J
1200.549	1.601	1237656	WORD	n/a	wordpools/wordpool_long_EN.txt	VINE	3	12	[0, 0, 0]	n/a	FR1	4	R1542J
1202.15	0.798	1239250	WORD_OFF	n/a	n/a	VINE	3	12	[0, 0, 0]	n/a	FR1	4	R1542J
1202.948	1.602	1240047	WORD	n/a	wordpools/wordpool_long_EN.txt	FRIEND	4	12	[0, 0, 0]	n/a	FR1	4	R1542J
1204.55	0.95	1241657	WORD_OFF	n/a	n/a	FRIEND	4	12	[0, 0, 0]	n/a	FR1	4	R1542J
1205.5	1.615	1242600	WORD	n/a	wordpools/wordpool_long_EN.txt	GLOVE	5	12	[0, 0, 0]	n/a	FR1	4	R1542J
1207.115	0.886	1244226	WORD_OFF	n/a	n/a	GLOVE	5	12	[0, 0, 0]	n/a	FR1	4	R1542J
1208.001	1.615	1245105	WORD	n/a	wordpools/wordpool_long_EN.txt	WORM	6	12	[0, 0, 0]	n/a	FR1	4	R1542J
1209.616	0.883	1246715	WORD_OFF	n/a	n/a	WORM	6	12	[0, 0, 0]	n/a	FR1	4	R1542J
1210.499	1.617	1247609	WORD	n/a	wordpools/wordpool_long_EN.txt	MOON	7	12	[0, 0, 0]	n/a	FR1	4	R1542J
1212.116	0.966	1249219	WORD_OFF	n/a	n/a	MOON	7	12	[0, 0, 0]	n/a	FR1	4	R1542J
1213.082	1.601	1250195	WORD	n/a	wordpools/wordpool_long_EN.txt	PIPE	8	12	[0, 0, 0]	n/a	FR1	4	R1542J
1214.683	0.95	1251788	WORD_OFF	n/a	n/a	PIPE	8	12	[0, 0, 0]	n/a	FR1	4	R1542J
1215.633	1.6	1252732	WORD	n/a	wordpools/wordpool_long_EN.txt	SLIDE	9	12	[0, 0, 0]	n/a	FR1	4	R1542J
1217.233	0.95	1254342	WORD_OFF	n/a	n/a	SLIDE	9	12	[0, 0, 0]	n/a	FR1	4	R1542J
1218.183	1.617	1255285	WORD	n/a	wordpools/wordpool_long_EN.txt	CLOCK	10	12	[0, 0, 0]	n/a	FR1	4	R1542J
1219.8	0.85	1256911	WORD_OFF	n/a	n/a	CLOCK	10	12	[0, 0, 0]	n/a	FR1	4	R1542J
1220.65	1.616	1257757	WORD	n/a	wordpools/wordpool_long_EN.txt	GRASS	11	12	[0, 0, 0]	n/a	FR1	4	R1542J
1222.266	0.766	1259367	WORD_OFF	n/a	n/a	GRASS	11	12	[0, 0, 0]	n/a	FR1	4	R1542J
1223.032	1.601	1260131	WORD	n/a	wordpools/wordpool_long_EN.txt	BOOK	12	12	[0, 0, 0]	n/a	FR1	4	R1542J
1224.633	0.002	1261741	WORD_OFF	n/a	n/a	BOOK	12	12	[0, 0, 0]	n/a	FR1	4	R1542J
1224.635	0.001	1261741	ENCODING_END	n/a	n/a	n/a	-999	12	[0, 0, 0]	n/a	FR1	4	R1542J
1224.636	0.0	1261741	DISTRACT_START	n/a	n/a	n/a	-999	12	[0, 0, 0]	n/a	FR1	4	R1542J
1224.633	0.003	1261743	PROB	0.003	n/a	n/a	-999	12	[3, 2, 8]	13	FR1	4	R1542J
1224.636	2.965	1261746	START	n/a	n/a	n/a	-999	12	[-999, -999, -999]	n/a	FR1	4	R1542J
1227.601	2.099	1264711	PROB	2.099	n/a	n/a	-999	12	[1, 8, 1]	10	FR1	4	R1542J
1229.7	2.1	1266810	PROB	2.1	n/a	n/a	-999	12	[5, 6, 4]	15	FR1	4	R1542J
1231.8	2.048	1268910	PROB	2.048	n/a	n/a	-999	12	[5, 1, 8]	14	FR1	4	R1542J
1233.848	2.968	1270958	PROB	2.968	n/a	n/a	-999	12	[4, 6, 6]	16	FR1	4	R1542J
1236.816	2.101	1273926	PROB	2.101	n/a	n/a	-999	12	[5, 5, 6]	16	FR1	4	R1542J
1238.917	2.349	1276027	PROB	2.349	n/a	n/a	-999	12	[6, 1, 3]	10	FR1	4	R1542J
1241.266	2.483	1278376	PROB	2.483	n/a	n/a	-999	12	[5, 3, 7]	15	FR1	4	R1542J
1243.749	1.866	1280859	PROB	1.866	n/a	n/a	-999	12	[5, 1, 1]	7	FR1	4	R1542J
1245.615	0.0	1282719	DISTRACT_END	n/a	n/a	n/a	-999	12	[0, 0, 0]	n/a	FR1	4	R1542J
1245.615	1.568	1282725	STOP	n/a	n/a	n/a	-999	12	[-999, -999, -999]	n/a	FR1	4	R1542J
1247.183	0.459	1284280	REC_START	n/a	n/a	n/a	-999	12	[0, 0, 0]	n/a	FR1	4	R1542J
1247.642	1.356	1284751	REC_WORD	1.356	n/a	THUMB	1	12	[0, 0, 0]	n/a	FR1	4	R1542J
1248.998	1.0	1286107	REC_WORD	1.0	n/a	GLOVE	5	12	[0, 0, 0]	n/a	FR1	4	R1542J
1249.998	0.07	1287107	REC_WORD_VV	0.07	n/a	<>	-999	12	[0, 0, 0]	n/a	FR1	4	R1542J
1250.068	1.35	1287177	REC_WORD	1.35	n/a	FRIEND	4	12	[0, 0, 0]	n/a	FR1	4	R1542J
1251.418	1.22	1288527	REC_WORD	1.22	n/a	CLOCK	10	12	[0, 0, 0]	n/a	FR1	4	R1542J
1252.638	1.22	1289747	REC_WORD	1.22	n/a	VINE	3	12	[0, 0, 0]	n/a	FR1	4	R1542J
1253.858	1.145	1290967	REC_WORD	1.145	n/a	PIPE	8	12	[0, 0, 0]	n/a	FR1	4	R1542J
1255.003	15.22	1292112	REC_WORD	15.22	n/a	GRASS	11	12	[0, 0, 0]	n/a	FR1	4	R1542J
1270.223	7.186	1307332	REC_WORD	7.186	n/a	MOON	7	12	[0, 0, 0]	n/a	FR1	4	R1542J
1277.409	0.0	1314512	REC_END	n/a	n/a	n/a	-999	12	[0, 0, 0]	n/a	FR1	4	R1542J
