onset	duration	sample	trial_type	response_time	stim_file	item_name	serialpos	list	test	answer	experiment	session	subject
0.0	96695.74	-1	INSTRUCT_START	n/a	n/a	n/a	-999	-999	[0, 0, 0]	n/a	FR1	2	R1339D
96695.74	223.157	-1	INSTRUCT_START	n/a	n/a	n/a	-999	-999	[0, 0, 0]	n/a	FR1	2	R1339D
96918.897	113.835	1506	INSTRUCT_START	n/a	n/a	n/a	-999	-999	[0, 0, 0]	n/a	FR1	2	R1339D
97032.732	15.703	115336	INSTRUCT_END	n/a	n/a	n/a	-999	-999	[0, 0, 0]	n/a	FR1	2	R1339D
97048.435	6.544	131038	MIC TEST_START	n/a	n/a	n/a	-999	-999	[0, 0, 0]	n/a	FR1	2	R1339D
97054.979	0.01	137582	MIC TEST_END	n/a	n/a	n/a	-999	-999	[0, 0, 0]	n/a	FR1	2	R1339D
97054.989	0.001	137592	TRIAL_START	n/a	n/a	n/a	-999	-1	[0, 0, 0]	n/a	FR1	2	R1339D
97054.99	0.0	137593	TRIAL	n/a	n/a	n/a	-999	-1	[0, 0, 0]	n/a	FR1	2	R1339D
97054.99	0.812	137593	WAITING_START	n/a	n/a	n/a	-999	-1	[0, 0, 0]	n/a	FR1	2	R1339D
97055.802	0.0	138404	WAITING_END	n/a	n/a	n/a	-999	-1	[0, 0, 0]	n/a	FR1	2	R1339D
97055.802	10.429	138404	COUNTDOWN_START	n/a	n/a	n/a	-999	-1	[0, 0, 0]	n/a	FR1	2	R1339D
97066.231	0.0	148833	ORIENT_START	n/a	n/a	n/a	-999	-1	[0, 0, 0]	n/a	FR1	2	R1339D
97066.231	1.074	148833	COUNTDOWN_END	n/a	n/a	n/a	-999	-1	[0, 0, 0]	n/a	FR1	2	R1339D
97067.305	0.0	149907	ORIENT_END	n/a	n/a	n/a	-999	-1	[0, 0, 0]	n/a	FR1	2	R1339D
97067.305	0.952	149907	ENCODING_START	n/a	n/a	n/a	-999	-1	[0, 0, 0]	n/a	FR1	2	R1339D
97068.257	1.631	150859	WORD	n/a	n/a	BEAM	1	-1	[0, 0, 0]	n/a	FR1	2	R1339D
97069.888	1.126	152490	WORD_OFF	n/a	n/a	BEAM	1	-1	[0, 0, 0]	n/a	FR1	2	R1339D
97071.014	1.625	153616	WORD	n/a	n/a	RHINO	2	-1	[0, 0, 0]	n/a	FR1	2	R1339D
97072.639	1.089	155241	WORD_OFF	n/a	n/a	RHINO	2	-1	[0, 0, 0]	n/a	FR1	2	R1339D
97073.728	1.628	156330	WORD	n/a	n/a	WATCH	3	-1	[0, 0, 0]	n/a	FR1	2	R1339D
97075.356	1.122	157958	WORD_OFF	n/a	n/a	WATCH	3	-1	[0, 0, 0]	n/a	FR1	2	R1339D
97076.478	1.629	159080	WORD	n/a	n/a	RING	4	-1	[0, 0, 0]	n/a	FR1	2	R1339D
97078.107	0.997	160708	WORD_OFF	n/a	n/a	RING	4	-1	[0, 0, 0]	n/a	FR1	2	R1339D
97079.104	1.637	161705	WORD	n/a	n/a	WAGON	5	-1	[0, 0, 0]	n/a	FR1	2	R1339D
97080.741	1.121	163342	WORD_OFF	n/a	n/a	WAGON	5	-1	[0, 0, 0]	n/a	FR1	2	R1339D
97081.862	1.629	164463	WORD	n/a	n/a	COTTON	6	-1	[0, 0, 0]	n/a	FR1	2	R1339D
97083.491	1.047	166092	WORD_OFF	n/a	n/a	COTTON	6	-1	[0, 0, 0]	n/a	FR1	2	R1339D
97084.538	1.637	167139	WORD	n/a	n/a	IMAGE	7	-1	[0, 0, 0]	n/a	FR1	2	R1339D
97086.175	1.036	168776	WORD_OFF	n/a	n/a	IMAGE	7	-1	[0, 0, 0]	n/a	FR1	2	R1339D
97087.211	1.63	169812	WORD	n/a	n/a	CHEST	8	-1	[0, 0, 0]	n/a	FR1	2	R1339D
97088.841	1.142	171442	WORD_OFF	n/a	n/a	CHEST	8	-1	[0, 0, 0]	n/a	FR1	2	R1339D
97089.983	1.61	172584	WORD	n/a	n/a	CAMEL	9	-1	[0, 0, 0]	n/a	FR1	2	R1339D
97091.593	1.057	174194	WORD_OFF	n/a	n/a	CAMEL	9	-1	[0, 0, 0]	n/a	FR1	2	R1339D
97092.65	1.626	175251	WORD	n/a	n/a	BABY	10	-1	[0, 0, 0]	n/a	FR1	2	R1339D
97094.276	0.752	176877	WORD_OFF	n/a	n/a	BABY	10	-1	[0, 0, 0]	n/a	FR1	2	R1339D
97095.028	1.616	177629	WORD	n/a	n/a	TONGUE	11	-1	[0, 0, 0]	n/a	FR1	2	R1339D
97096.644	0.949	179245	WORD_OFF	n/a	n/a	TONGUE	11	-1	[0, 0, 0]	n/a	FR1	2	R1339D
97097.593	1.634	180194	WORD	n/a	n/a	FLOOD	12	-1	[0, 0, 0]	n/a	FR1	2	R1339D
97099.227	0.001	181828	WORD_OFF	n/a	n/a	FLOOD	12	-1	[0, 0, 0]	n/a	FR1	2	R1339D
97099.228	0.0	181829	ENCODING_END	n/a	n/a	n/a	-999	-1	[0, 0, 0]	n/a	FR1	2	R1339D
97099.228	0.0	181829	DISTRACT_START	n/a	n/a	n/a	-999	-1	[0, 0, 0]	n/a	FR1	2	R1339D
97099.228	0.016	181829	START	n/a	n/a	n/a	-999	-1	[-999, -999, -999]	n/a	FR1	2	R1339D
97099.244	10.818	181845	PROB	10.818	n/a	n/a	-999	-1	[3, 3, 4]	12	FR1	2	R1339D
97110.062	1.617	192662	PROB	1.617	n/a	n/a	-999	-1	[5, 2, 4]	66	FR1	2	R1339D
97111.679	1.3	194279	PROB	1.3	n/a	n/a	-999	-1	[6, 4, 8]	66	FR1	2	R1339D
97112.979	1.251	195579	PROB	1.251	n/a	n/a	-999	-1	[1, 4, 6]	77	FR1	2	R1339D
97114.23	1.35	196830	PROB	1.35	n/a	n/a	-999	-1	[7, 3, 1]	77	FR1	2	R1339D
97115.58	1.299	198180	PROB	1.299	n/a	n/a	-999	-1	[3, 9, 1]	88	FR1	2	R1339D
97116.879	1.268	199479	PROB	1.268	n/a	n/a	-999	-1	[4, 8, 4]	99	FR1	2	R1339D
97118.147	3.424	200747	PROB	3.424	n/a	n/a	-999	-1	[3, 9, 2]	5	FR1	2	R1339D
97121.571	0.011	204171	STOP	n/a	n/a	n/a	-999	-1	[-999, -999, -999]	n/a	FR1	2	R1339D
97121.582	0.516	204182	DISTRACT_END	n/a	n/a	n/a	-999	-1	[0, 0, 0]	n/a	FR1	2	R1339D
97122.098	1.7	204698	RETRIEVAL_ORIENT_START	n/a	n/a	n/a	-999	-1	[0, 0, 0]	n/a	FR1	2	R1339D
97123.798	0.0	206397	RETRIEVAL_ORIENT_END	n/a	n/a	n/a	-999	-1	[0, 0, 0]	n/a	FR1	2	R1339D
97123.798	0.371	206397	REC_START	n/a	n/a	n/a	-999	-1	[0, 0, 0]	n/a	FR1	2	R1339D
97124.169	29.639	206768	REC_WORD_VV	29.639	n/a	<>	-999	-1	[0, 0, 0]	n/a	FR1	2	R1339D
97153.808	0.001	236406	REC_END	n/a	n/a	n/a	-999	-1	[0, 0, 0]	n/a	FR1	2	R1339D
97153.809	5.246	236407	PRACTICE_POST_INSTRUCT_START	n/a	n/a	n/a	-999	-1	[0, 0, 0]	n/a	FR1	2	R1339D
97159.055	0.0	241653	PRACTICE_POST_INSTRUCT_END	n/a	n/a	n/a	-999	-1	[0, 0, 0]	n/a	FR1	2	R1339D
97159.055	0.017	241653	TRIAL_END	n/a	n/a	n/a	-999	-1	[0, 0, 0]	n/a	FR1	2	R1339D
97159.072	0.001	241670	TRIAL_START	n/a	n/a	n/a	-999	1	[0, 0, 0]	n/a	FR1	2	R1339D
97159.073	0.0	241671	TRIAL	n/a	n/a	n/a	-999	1	[0, 0, 0]	n/a	FR1	2	R1339D
97159.073	7.417	241671	WAITING_START	n/a	n/a	n/a	-999	1	[0, 0, 0]	n/a	FR1	2	R1339D
97166.49	0.0	249088	WAITING_END	n/a	n/a	n/a	-999	1	[0, 0, 0]	n/a	FR1	2	R1339D
97166.49	10.43	249088	COUNTDOWN_START	n/a	n/a	n/a	-999	1	[0, 0, 0]	n/a	FR1	2	R1339D
97176.92	0.0	259517	COUNTDOWN_END	n/a	n/a	n/a	-999	1	[0, 0, 0]	n/a	FR1	2	R1339D
97176.92	1.121	259517	ORIENT_START	n/a	n/a	n/a	-999	1	[0, 0, 0]	n/a	FR1	2	R1339D
97178.041	0.0	260638	ORIENT_END	n/a	n/a	n/a	-999	1	[0, 0, 0]	n/a	FR1	2	R1339D
97178.041	0.942	260638	ENCODING_START	n/a	n/a	n/a	-999	1	[0, 0, 0]	n/a	FR1	2	R1339D
97178.983	1.626	261580	WORD	n/a	n/a	BOAT	1	1	[0, 0, 0]	n/a	FR1	2	R1339D
97180.609	1.012	263206	WORD_OFF	n/a	n/a	BOAT	1	1	[0, 0, 0]	n/a	FR1	2	R1339D
97181.621	1.638	264218	WORD	n/a	n/a	SNAKE	2	1	[0, 0, 0]	n/a	FR1	2	R1339D
97183.259	1.033	265856	WORD_OFF	n/a	n/a	SNAKE	2	1	[0, 0, 0]	n/a	FR1	2	R1339D
97184.292	1.634	266889	WORD	n/a	n/a	CAGE	3	1	[0, 0, 0]	n/a	FR1	2	R1339D
97185.926	0.768	268523	WORD_OFF	n/a	n/a	CAGE	3	1	[0, 0, 0]	n/a	FR1	2	R1339D
97186.694	1.633	269291	WORD	n/a	n/a	CONE	4	1	[0, 0, 0]	n/a	FR1	2	R1339D
97188.327	1.077	270924	WORD_OFF	n/a	n/a	CONE	4	1	[0, 0, 0]	n/a	FR1	2	R1339D
97189.404	1.622	272001	WORD	n/a	n/a	BIRD	5	1	[0, 0, 0]	n/a	FR1	2	R1339D
97191.026	1.053	273622	WORD_OFF	n/a	n/a	BIRD	5	1	[0, 0, 0]	n/a	FR1	2	R1339D
97192.079	1.632	274675	WORD	n/a	n/a	APE	6	1	[0, 0, 0]	n/a	FR1	2	R1339D
97193.711	0.816	276307	WORD_OFF	n/a	n/a	APE	6	1	[0, 0, 0]	n/a	FR1	2	R1339D
97194.527	1.635	277123	WORD	n/a	n/a	WORM	7	1	[0, 0, 0]	n/a	FR1	2	R1339D
97196.162	0.982	278758	WORD_OFF	n/a	n/a	WORM	7	1	[0, 0, 0]	n/a	FR1	2	R1339D
97197.144	1.635	279740	WORD	n/a	n/a	STOVE	8	1	[0, 0, 0]	n/a	FR1	2	R1339D
97198.779	1.034	281375	WORD_OFF	n/a	n/a	STOVE	8	1	[0, 0, 0]	n/a	FR1	2	R1339D
97199.813	1.633	282409	WORD	n/a	n/a	PLANT	9	1	[0, 0, 0]	n/a	FR1	2	R1339D
97201.446	1.061	284042	WORD_OFF	n/a	n/a	PLANT	9	1	[0, 0, 0]	n/a	FR1	2	R1339D
97202.507	1.623	285103	WORD	n/a	n/a	BRUSH	10	1	[0, 0, 0]	n/a	FR1	2	R1339D
97204.13	0.766	286726	WORD_OFF	n/a	n/a	BRUSH	10	1	[0, 0, 0]	n/a	FR1	2	R1339D
97204.896	1.634	287492	WORD	n/a	n/a	SIGN	11	1	[0, 0, 0]	n/a	FR1	2	R1339D
97206.53	1.115	289126	WORD_OFF	n/a	n/a	SIGN	11	1	[0, 0, 0]	n/a	FR1	2	R1339D
97207.645	1.636	290241	WORD	n/a	n/a	NEST	12	1	[0, 0, 0]	n/a	FR1	2	R1339D
97209.281	0.0	291877	WORD_OFF	n/a	n/a	NEST	12	1	[0, 0, 0]	n/a	FR1	2	R1339D
97209.281	0.0	291877	ENCODING_END	n/a	n/a	n/a	-999	1	[0, 0, 0]	n/a	FR1	2	R1339D
97209.281	0.001	291877	DISTRACT_START	n/a	n/a	n/a	-999	1	[0, 0, 0]	n/a	FR1	2	R1339D
97209.282	0.015	291878	START	n/a	n/a	n/a	-999	1	[-999, -999, -999]	n/a	FR1	2	R1339D
97209.297	3.168	291893	PROB	3.168	n/a	n/a	-999	1	[7, 1, 7]	15	FR1	2	R1339D
97212.465	2.65	295060	PROB	2.65	n/a	n/a	-999	1	[7, 2, 1]	10	FR1	2	R1339D
97215.115	5.051	297710	PROB	5.051	n/a	n/a	-999	1	[8, 8, 9]	25	FR1	2	R1339D
97220.166	2.783	302761	PROB	2.783	n/a	n/a	-999	1	[1, 5, 6]	12	FR1	2	R1339D
97222.949	6.525	305544	PROB	6.525	n/a	n/a	-999	1	[4, 3, 5]	12	FR1	2	R1339D
97229.474	0.01	312069	STOP	n/a	n/a	n/a	-999	1	[-999, -999, -999]	n/a	FR1	2	R1339D
97229.484	0.623	312079	DISTRACT_END	n/a	n/a	n/a	-999	1	[0, 0, 0]	n/a	FR1	2	R1339D
97230.107	1.611	312702	RETRIEVAL_ORIENT_START	n/a	n/a	n/a	-999	1	[0, 0, 0]	n/a	FR1	2	R1339D
97231.718	0.001	314313	RETRIEVAL_ORIENT_END	n/a	n/a	n/a	-999	1	[0, 0, 0]	n/a	FR1	2	R1339D
97231.719	0.662	314314	REC_START	n/a	n/a	n/a	-999	1	[0, 0, 0]	n/a	FR1	2	R1339D
97232.381	0.949	314976	REC_WORD	0.949	n/a	BOAT	1	1	[0, 0, 0]	n/a	FR1	2	R1339D
97233.33	0.819	315925	REC_WORD	0.819	n/a	CAGE	3	1	[0, 0, 0]	n/a	FR1	2	R1339D
97234.149	0.929	316744	REC_WORD	0.929	n/a	BIRD	5	1	[0, 0, 0]	n/a	FR1	2	R1339D
97235.078	10.684	317672	REC_WORD	10.684	n/a	WORM	7	1	[0, 0, 0]	n/a	FR1	2	R1339D
97245.762	5.135	328356	REC_WORD	5.135	n/a	APE	6	1	[0, 0, 0]	n/a	FR1	2	R1339D
97250.897	10.832	333491	REC_WORD	10.832	n/a	SWORD	-999	1	[0, 0, 0]	n/a	FR1	2	R1339D
97261.729	0.0	344322	REC_END	n/a	n/a	n/a	-999	1	[0, 0, 0]	n/a	FR1	2	R1339D
97261.729	0.016	344322	TRIAL_END	n/a	n/a	n/a	-999	1	[0, 0, 0]	n/a	FR1	2	R1339D
97261.745	0.0	344338	TRIAL_START	n/a	n/a	n/a	-999	2	[0, 0, 0]	n/a	FR1	2	R1339D
97261.745	0.001	344338	TRIAL	n/a	n/a	n/a	-999	2	[0, 0, 0]	n/a	FR1	2	R1339D
97261.746	2.094	344339	WAITING_START	n/a	n/a	n/a	-999	2	[0, 0, 0]	n/a	FR1	2	R1339D
97263.84	0.0	346433	COUNTDOWN_START	n/a	n/a	n/a	-999	2	[0, 0, 0]	n/a	FR1	2	R1339D
97263.84	10.429	346433	WAITING_END	n/a	n/a	n/a	-999	2	[0, 0, 0]	n/a	FR1	2	R1339D
97274.269	0.0	356862	COUNTDOWN_END	n/a	n/a	n/a	-999	2	[0, 0, 0]	n/a	FR1	2	R1339D
97274.269	1.157	356862	ORIENT_START	n/a	n/a	n/a	-999	2	[0, 0, 0]	n/a	FR1	2	R1339D
97275.426	0.0	358019	ORIENT_END	n/a	n/a	n/a	-999	2	[0, 0, 0]	n/a	FR1	2	R1339D
97275.426	1.106	358019	ENCODING_START	n/a	n/a	n/a	-999	2	[0, 0, 0]	n/a	FR1	2	R1339D
97276.532	1.628	359125	WORD	n/a	n/a	FROG	1	2	[0, 0, 0]	n/a	FR1	2	R1339D
97278.16	0.905	360753	WORD_OFF	n/a	n/a	FROG	1	2	[0, 0, 0]	n/a	FR1	2	R1339D
97279.065	1.629	361657	WORD	n/a	n/a	MAP	2	2	[0, 0, 0]	n/a	FR1	2	R1339D
97280.694	0.958	363286	WORD_OFF	n/a	n/a	MAP	2	2	[0, 0, 0]	n/a	FR1	2	R1339D
97281.652	1.626	364244	WORD	n/a	n/a	CAR	3	2	[0, 0, 0]	n/a	FR1	2	R1339D
97283.278	0.863	365870	WORD_OFF	n/a	n/a	CAR	3	2	[0, 0, 0]	n/a	FR1	2	R1339D
97284.141	1.637	366733	WORD	n/a	n/a	SHARK	4	2	[0, 0, 0]	n/a	FR1	2	R1339D
97285.778	0.859	368370	WORD_OFF	n/a	n/a	SHARK	4	2	[0, 0, 0]	n/a	FR1	2	R1339D
97286.637	1.625	369229	WORD	n/a	n/a	THREAD	5	2	[0, 0, 0]	n/a	FR1	2	R1339D
97288.262	0.833	370854	WORD_OFF	n/a	n/a	THREAD	5	2	[0, 0, 0]	n/a	FR1	2	R1339D
97289.095	1.634	371687	WORD	n/a	n/a	TREE	6	2	[0, 0, 0]	n/a	FR1	2	R1339D
97290.729	1.091	373321	WORD_OFF	n/a	n/a	TREE	6	2	[0, 0, 0]	n/a	FR1	2	R1339D
97291.82	1.626	374412	WORD	n/a	n/a	SLEEVE	7	2	[0, 0, 0]	n/a	FR1	2	R1339D
97293.446	0.94	376038	WORD_OFF	n/a	n/a	SLEEVE	7	2	[0, 0, 0]	n/a	FR1	2	R1339D
97294.386	1.626	376978	WORD	n/a	n/a	JUDGE	8	2	[0, 0, 0]	n/a	FR1	2	R1339D
97296.012	1.07	378604	WORD_OFF	n/a	n/a	JUDGE	8	2	[0, 0, 0]	n/a	FR1	2	R1339D
97297.082	1.632	379674	WORD	n/a	n/a	SPONGE	9	2	[0, 0, 0]	n/a	FR1	2	R1339D
97298.714	0.758	381306	WORD_OFF	n/a	n/a	SPONGE	9	2	[0, 0, 0]	n/a	FR1	2	R1339D
97299.472	1.626	382064	WORD	n/a	n/a	BROOM	10	2	[0, 0, 0]	n/a	FR1	2	R1339D
97301.098	0.88	383690	WORD_OFF	n/a	n/a	BROOM	10	2	[0, 0, 0]	n/a	FR1	2	R1339D
97301.978	1.637	384569	WORD	n/a	n/a	COW	11	2	[0, 0, 0]	n/a	FR1	2	R1339D
97303.615	0.895	386206	WORD_OFF	n/a	n/a	COW	11	2	[0, 0, 0]	n/a	FR1	2	R1339D
97304.51	1.622	387101	WORD	n/a	n/a	SHRIMP	12	2	[0, 0, 0]	n/a	FR1	2	R1339D
97306.132	0.0	388723	WORD_OFF	n/a	n/a	SHRIMP	12	2	[0, 0, 0]	n/a	FR1	2	R1339D
97306.132	0.0	388723	ENCODING_END	n/a	n/a	n/a	-999	2	[0, 0, 0]	n/a	FR1	2	R1339D
97306.132	0.001	388723	DISTRACT_START	n/a	n/a	n/a	-999	2	[0, 0, 0]	n/a	FR1	2	R1339D
97306.133	0.015	388724	START	n/a	n/a	n/a	-999	2	[-999, -999, -999]	n/a	FR1	2	R1339D
97306.148	3.817	388739	PROB	3.817	n/a	n/a	-999	2	[7, 7, 8]	22	FR1	2	R1339D
97309.965	3.118	392556	PROB	3.118	n/a	n/a	-999	2	[1, 8, 8]	17	FR1	2	R1339D
97313.083	2.567	395674	PROB	2.567	n/a	n/a	-999	2	[5, 3, 5]	13	FR1	2	R1339D
97315.65	4.35	398241	PROB	4.35	n/a	n/a	-999	2	[3, 7, 6]	16	FR1	2	R1339D
97320.0	4.385	402591	PROB	4.385	n/a	n/a	-999	2	[9, 3, 8]	20	FR1	2	R1339D
97324.385	6.358	406975	PROB	6.358	n/a	n/a	-999	2	[6, 5, 6]	17	FR1	2	R1339D
97330.743	0.01	413333	STOP	n/a	n/a	n/a	-999	2	[-999, -999, -999]	n/a	FR1	2	R1339D
97330.753	0.598	413343	DISTRACT_END	n/a	n/a	n/a	-999	2	[0, 0, 0]	n/a	FR1	2	R1339D
97331.351	1.535	413941	RETRIEVAL_ORIENT_START	n/a	n/a	n/a	-999	2	[0, 0, 0]	n/a	FR1	2	R1339D
97332.886	0.0	415476	RETRIEVAL_ORIENT_END	n/a	n/a	n/a	-999	2	[0, 0, 0]	n/a	FR1	2	R1339D
97332.886	5.066	415476	REC_START	n/a	n/a	n/a	-999	2	[0, 0, 0]	n/a	FR1	2	R1339D
97337.952	1.0	420542	REC_WORD	1.0	n/a	SPONGE	9	2	[0, 0, 0]	n/a	FR1	2	R1339D
97338.952	5.627	421542	REC_WORD_VV	5.627	n/a	<>	-999	2	[0, 0, 0]	n/a	FR1	2	R1339D
97344.579	3.961	427169	REC_WORD	3.961	n/a	BIRD	-999	2	[0, 0, 0]	n/a	FR1	2	R1339D
97348.54	14.356	431129	REC_WORD	14.356	n/a	COW	11	2	[0, 0, 0]	n/a	FR1	2	R1339D
97362.896	0.0	445485	REC_END	n/a	n/a	n/a	-999	2	[0, 0, 0]	n/a	FR1	2	R1339D
97362.896	0.016	445485	TRIAL_END	n/a	n/a	n/a	-999	2	[0, 0, 0]	n/a	FR1	2	R1339D
97362.912	0.001	445501	TRIAL_START	n/a	n/a	n/a	-999	3	[0, 0, 0]	n/a	FR1	2	R1339D
97362.913	0.0	445502	TRIAL	n/a	n/a	n/a	-999	3	[0, 0, 0]	n/a	FR1	2	R1339D
97362.913	2.962	445502	WAITING_START	n/a	n/a	n/a	-999	3	[0, 0, 0]	n/a	FR1	2	R1339D
97365.875	0.0	448464	WAITING_END	n/a	n/a	n/a	-999	3	[0, 0, 0]	n/a	FR1	2	R1339D
97365.875	10.429	448464	COUNTDOWN_START	n/a	n/a	n/a	-999	3	[0, 0, 0]	n/a	FR1	2	R1339D
97376.304	0.0	458892	COUNTDOWN_END	n/a	n/a	n/a	-999	3	[0, 0, 0]	n/a	FR1	2	R1339D
97376.304	1.024	458892	ORIENT_START	n/a	n/a	n/a	-999	3	[0, 0, 0]	n/a	FR1	2	R1339D
97377.328	0.001	459916	ORIENT_END	n/a	n/a	n/a	-999	3	[0, 0, 0]	n/a	FR1	2	R1339D
97377.329	0.921	459917	ENCODING_START	n/a	n/a	n/a	-999	3	[0, 0, 0]	n/a	FR1	2	R1339D
97378.25	1.628	460838	WORD	n/a	n/a	MOTH	1	3	[0, 0, 0]	n/a	FR1	2	R1339D
97379.878	1.024	462466	WORD_OFF	n/a	n/a	MOTH	1	3	[0, 0, 0]	n/a	FR1	2	R1339D
97380.902	1.61	463490	WORD	n/a	n/a	FAN	2	3	[0, 0, 0]	n/a	FR1	2	R1339D
97382.512	1.095	465100	WORD_OFF	n/a	n/a	FAN	2	3	[0, 0, 0]	n/a	FR1	2	R1339D
97383.607	1.623	466195	WORD	n/a	n/a	FARM	3	3	[0, 0, 0]	n/a	FR1	2	R1339D
97385.23	0.926	467818	WORD_OFF	n/a	n/a	FARM	3	3	[0, 0, 0]	n/a	FR1	2	R1339D
97386.156	1.624	468744	WORD	n/a	n/a	SAIL	4	3	[0, 0, 0]	n/a	FR1	2	R1339D
97387.78	1.037	470368	WORD_OFF	n/a	n/a	SAIL	4	3	[0, 0, 0]	n/a	FR1	2	R1339D
97388.817	1.63	471405	WORD	n/a	n/a	HAWK	5	3	[0, 0, 0]	n/a	FR1	2	R1339D
97390.447	0.771	473034	WORD_OFF	n/a	n/a	HAWK	5	3	[0, 0, 0]	n/a	FR1	2	R1339D
97391.218	1.629	473805	WORD	n/a	n/a	CLOUD	6	3	[0, 0, 0]	n/a	FR1	2	R1339D
97392.847	1.009	475434	WORD_OFF	n/a	n/a	CLOUD	6	3	[0, 0, 0]	n/a	FR1	2	R1339D
97393.856	1.625	476443	WORD	n/a	n/a	CLIFF	7	3	[0, 0, 0]	n/a	FR1	2	R1339D
97395.481	0.884	478068	WORD_OFF	n/a	n/a	CLIFF	7	3	[0, 0, 0]	n/a	FR1	2	R1339D
97396.365	1.633	478952	WORD	n/a	n/a	SOCK	8	3	[0, 0, 0]	n/a	FR1	2	R1339D
97397.998	1.133	480585	WORD_OFF	n/a	n/a	SOCK	8	3	[0, 0, 0]	n/a	FR1	2	R1339D
97399.131	1.635	481718	WORD	n/a	n/a	RUG	9	3	[0, 0, 0]	n/a	FR1	2	R1339D
97400.766	1.081	483353	WORD_OFF	n/a	n/a	RUG	9	3	[0, 0, 0]	n/a	FR1	2	R1339D
97401.847	1.636	484434	WORD	n/a	n/a	BAG	10	3	[0, 0, 0]	n/a	FR1	2	R1339D
97403.483	0.954	486070	WORD_OFF	n/a	n/a	BAG	10	3	[0, 0, 0]	n/a	FR1	2	R1339D
97404.437	1.629	487024	WORD	n/a	n/a	MILK	11	3	[0, 0, 0]	n/a	FR1	2	R1339D
97406.066	0.954	488653	WORD_OFF	n/a	n/a	MILK	11	3	[0, 0, 0]	n/a	FR1	2	R1339D
97407.02	1.631	489607	WORD	n/a	n/a	NAIL	12	3	[0, 0, 0]	n/a	FR1	2	R1339D
97408.651	0.0	491238	ENCODING_END	n/a	n/a	n/a	-999	3	[0, 0, 0]	n/a	FR1	2	R1339D
97408.651	0.0	491238	DISTRACT_START	n/a	n/a	n/a	-999	3	[0, 0, 0]	n/a	FR1	2	R1339D
97408.651	0.001	491238	WORD_OFF	n/a	n/a	NAIL	12	3	[0, 0, 0]	n/a	FR1	2	R1339D
97408.652	0.015	491239	START	n/a	n/a	n/a	-999	3	[-999, -999, -999]	n/a	FR1	2	R1339D
97408.667	3.15	491254	PROB	3.15	n/a	n/a	-999	3	[2, 8, 5]	15	FR1	2	R1339D
97411.817	2.551	494404	PROB	2.551	n/a	n/a	-999	3	[7, 6, 1]	14	FR1	2	R1339D
97414.368	8.651	496954	PROB	8.651	n/a	n/a	-999	3	[5, 9, 5]	19	FR1	2	R1339D
97423.019	8.015	505605	PROB	8.015	n/a	n/a	-999	3	[7, 9, 9]	25	FR1	2	R1339D
97431.034	0.02	513620	STOP	n/a	n/a	n/a	-999	3	[-999, -999, -999]	n/a	FR1	2	R1339D
97431.054	0.544	513640	DISTRACT_END	n/a	n/a	n/a	-999	3	[0, 0, 0]	n/a	FR1	2	R1339D
97431.598	1.624	514184	RETRIEVAL_ORIENT_START	n/a	n/a	n/a	-999	3	[0, 0, 0]	n/a	FR1	2	R1339D
97433.222	0.0	515808	RETRIEVAL_ORIENT_END	n/a	n/a	n/a	-999	3	[0, 0, 0]	n/a	FR1	2	R1339D
97433.222	0.371	515808	REC_START	n/a	n/a	n/a	-999	3	[0, 0, 0]	n/a	FR1	2	R1339D
97433.593	1.703	516179	REC_WORD	1.703	n/a	NAIL	12	3	[0, 0, 0]	n/a	FR1	2	R1339D
97435.296	1.135	517881	REC_WORD	1.135	n/a	CLIFF	7	3	[0, 0, 0]	n/a	FR1	2	R1339D
97436.431	1.362	519016	REC_WORD	1.362	n/a	CLOUD	6	3	[0, 0, 0]	n/a	FR1	2	R1339D
97437.793	2.831	520378	REC_WORD	2.831	n/a	HAWK	5	3	[0, 0, 0]	n/a	FR1	2	R1339D
97440.624	22.61	523209	REC_WORD	22.61	n/a	WORM	-999	3	[0, 0, 0]	n/a	FR1	2	R1339D
97463.234	0.0	545818	TRIAL_END	n/a	n/a	n/a	-999	3	[0, 0, 0]	n/a	FR1	2	R1339D
97463.234	0.014	545818	REC_END	n/a	n/a	n/a	-999	3	[0, 0, 0]	n/a	FR1	2	R1339D
97463.248	0.0	545832	WAITING_START	n/a	n/a	n/a	-999	4	[0, 0, 0]	n/a	FR1	2	R1339D
97463.248	0.0	545832	TRIAL_START	n/a	n/a	n/a	-999	4	[0, 0, 0]	n/a	FR1	2	R1339D
97463.248	2.296	545832	TRIAL	n/a	n/a	n/a	-999	4	[0, 0, 0]	n/a	FR1	2	R1339D
97465.544	0.001	548128	WAITING_END	n/a	n/a	n/a	-999	4	[0, 0, 0]	n/a	FR1	2	R1339D
97465.545	10.429	548129	COUNTDOWN_START	n/a	n/a	n/a	-999	4	[0, 0, 0]	n/a	FR1	2	R1339D
97475.974	0.0	558558	COUNTDOWN_END	n/a	n/a	n/a	-999	4	[0, 0, 0]	n/a	FR1	2	R1339D
97475.974	1.139	558558	ORIENT_START	n/a	n/a	n/a	-999	4	[0, 0, 0]	n/a	FR1	2	R1339D
97477.113	0.001	559697	ORIENT_END	n/a	n/a	n/a	-999	4	[0, 0, 0]	n/a	FR1	2	R1339D
97477.114	1.092	559698	ENCODING_START	n/a	n/a	n/a	-999	4	[0, 0, 0]	n/a	FR1	2	R1339D
97478.206	1.623	560790	WORD	n/a	n/a	COIN	1	4	[0, 0, 0]	n/a	FR1	2	R1339D
97479.829	1.009	562412	WORD_OFF	n/a	n/a	COIN	1	4	[0, 0, 0]	n/a	FR1	2	R1339D
97480.838	1.626	563421	WORD	n/a	n/a	CHIEF	2	4	[0, 0, 0]	n/a	FR1	2	R1339D
97482.464	1.033	565047	WORD_OFF	n/a	n/a	CHIEF	2	4	[0, 0, 0]	n/a	FR1	2	R1339D
97483.497	1.634	566080	WORD	n/a	n/a	MOON	3	4	[0, 0, 0]	n/a	FR1	2	R1339D
97485.131	1.134	567714	WORD_OFF	n/a	n/a	MOON	3	4	[0, 0, 0]	n/a	FR1	2	R1339D
97486.265	1.632	568848	WORD	n/a	n/a	ARK	4	4	[0, 0, 0]	n/a	FR1	2	R1339D
97487.897	0.85	570480	WORD_OFF	n/a	n/a	ARK	4	4	[0, 0, 0]	n/a	FR1	2	R1339D
97488.747	1.635	571330	WORD	n/a	n/a	CAPE	5	4	[0, 0, 0]	n/a	FR1	2	R1339D
97490.382	0.937	572965	WORD_OFF	n/a	n/a	CAPE	5	4	[0, 0, 0]	n/a	FR1	2	R1339D
97491.319	1.629	573902	WORD	n/a	n/a	SHEET	6	4	[0, 0, 0]	n/a	FR1	2	R1339D
97492.948	0.815	575531	WORD_OFF	n/a	n/a	SHEET	6	4	[0, 0, 0]	n/a	FR1	2	R1339D
97493.763	1.637	576346	WORD	n/a	n/a	FOOT	7	4	[0, 0, 0]	n/a	FR1	2	R1339D
97495.4	1.001	577983	WORD_OFF	n/a	n/a	FOOT	7	4	[0, 0, 0]	n/a	FR1	2	R1339D
97496.401	1.631	578984	WORD	n/a	n/a	SHIELD	8	4	[0, 0, 0]	n/a	FR1	2	R1339D
97498.032	0.809	580615	WORD_OFF	n/a	n/a	SHIELD	8	4	[0, 0, 0]	n/a	FR1	2	R1339D
97498.841	1.626	581424	WORD	n/a	n/a	FLAME	9	4	[0, 0, 0]	n/a	FR1	2	R1339D
97500.467	0.97	583050	WORD_OFF	n/a	n/a	FLAME	9	4	[0, 0, 0]	n/a	FR1	2	R1339D
97501.437	1.63	584020	WORD	n/a	n/a	JET	10	4	[0, 0, 0]	n/a	FR1	2	R1339D
97503.067	0.84	585649	WORD_OFF	n/a	n/a	JET	10	4	[0, 0, 0]	n/a	FR1	2	R1339D
97503.907	1.628	586489	WORD	n/a	n/a	EGG	11	4	[0, 0, 0]	n/a	FR1	2	R1339D
97505.535	0.953	588117	WORD_OFF	n/a	n/a	EGG	11	4	[0, 0, 0]	n/a	FR1	2	R1339D
97506.488	1.631	589070	WORD	n/a	n/a	THUMB	12	4	[0, 0, 0]	n/a	FR1	2	R1339D
97508.119	0.0	590701	WORD_OFF	n/a	n/a	THUMB	12	4	[0, 0, 0]	n/a	FR1	2	R1339D
97508.119	0.0	590701	ENCODING_END	n/a	n/a	n/a	-999	4	[0, 0, 0]	n/a	FR1	2	R1339D
97508.119	0.001	590701	DISTRACT_START	n/a	n/a	n/a	-999	4	[0, 0, 0]	n/a	FR1	2	R1339D
97508.12	0.015	590702	START	n/a	n/a	n/a	-999	4	[-999, -999, -999]	n/a	FR1	2	R1339D
97508.135	3.017	590717	PROB	3.017	n/a	n/a	-999	4	[2, 1, 5]	8	FR1	2	R1339D
97511.152	2.134	593734	PROB	2.134	n/a	n/a	-999	4	[8, 2, 2]	12	FR1	2	R1339D
97513.286	4.75	595868	PROB	4.75	n/a	n/a	-999	4	[9, 6, 9]	24	FR1	2	R1339D
97518.036	3.201	600618	PROB	3.201	n/a	n/a	-999	4	[8, 2, 1]	11	FR1	2	R1339D
97521.237	6.302	603819	PROB	6.302	n/a	n/a	-999	4	[8, 5, 8]	21	FR1	2	R1339D
97527.539	3.363	610120	PROB	3.363	n/a	n/a	-999	4	[1, 1, 7]	9	FR1	2	R1339D
97530.902	0.02	613483	STOP	n/a	n/a	n/a	-999	4	[-999, -999, -999]	n/a	FR1	2	R1339D
97530.922	0.507	613503	DISTRACT_END	n/a	n/a	n/a	-999	4	[0, 0, 0]	n/a	FR1	2	R1339D
97531.429	1.694	614010	RETRIEVAL_ORIENT_START	n/a	n/a	n/a	-999	4	[0, 0, 0]	n/a	FR1	2	R1339D
97533.123	0.001	615704	RETRIEVAL_ORIENT_END	n/a	n/a	n/a	-999	4	[0, 0, 0]	n/a	FR1	2	R1339D
97533.124	27.26	615705	REC_START	n/a	n/a	n/a	-999	4	[0, 0, 0]	n/a	FR1	2	R1339D
97560.384	2.75	642964	REC_WORD_VV	2.75	n/a	<>	-999	4	[0, 0, 0]	n/a	FR1	2	R1339D
97563.134	0.0	645714	REC_END	n/a	n/a	n/a	-999	4	[0, 0, 0]	n/a	FR1	2	R1339D
97563.134	0.015	645714	TRIAL_END	n/a	n/a	n/a	-999	4	[0, 0, 0]	n/a	FR1	2	R1339D
97563.149	0.0	645729	TRIAL_START	n/a	n/a	n/a	-999	5	[0, 0, 0]	n/a	FR1	2	R1339D
97563.149	0.0	645729	TRIAL	n/a	n/a	n/a	-999	5	[0, 0, 0]	n/a	FR1	2	R1339D
97563.149	2.246	645729	WAITING_START	n/a	n/a	n/a	-999	5	[0, 0, 0]	n/a	FR1	2	R1339D
97565.395	0.001	647975	WAITING_END	n/a	n/a	n/a	-999	5	[0, 0, 0]	n/a	FR1	2	R1339D
97565.396	10.429	647976	COUNTDOWN_START	n/a	n/a	n/a	-999	5	[0, 0, 0]	n/a	FR1	2	R1339D
97575.825	0.0	658404	COUNTDOWN_END	n/a	n/a	n/a	-999	5	[0, 0, 0]	n/a	FR1	2	R1339D
97575.825	1.088	658404	ORIENT_START	n/a	n/a	n/a	-999	5	[0, 0, 0]	n/a	FR1	2	R1339D
97576.913	0.001	659492	ORIENT_END	n/a	n/a	n/a	-999	5	[0, 0, 0]	n/a	FR1	2	R1339D
97576.914	0.83	659493	ENCODING_START	n/a	n/a	n/a	-999	5	[0, 0, 0]	n/a	FR1	2	R1339D
97577.744	1.638	660323	WORD	n/a	n/a	MOOSE	1	5	[0, 0, 0]	n/a	FR1	2	R1339D
97579.382	0.826	661961	WORD_OFF	n/a	n/a	MOOSE	1	5	[0, 0, 0]	n/a	FR1	2	R1339D
97580.208	1.623	662787	WORD	n/a	n/a	FUDGE	2	5	[0, 0, 0]	n/a	FR1	2	R1339D
97581.831	0.846	664410	WORD_OFF	n/a	n/a	FUDGE	2	5	[0, 0, 0]	n/a	FR1	2	R1339D
97582.677	1.622	665256	WORD	n/a	n/a	DUCK	3	5	[0, 0, 0]	n/a	FR1	2	R1339D
97584.299	1.147	666878	WORD_OFF	n/a	n/a	DUCK	3	5	[0, 0, 0]	n/a	FR1	2	R1339D
97585.446	1.637	668025	WORD	n/a	n/a	STEAM	4	5	[0, 0, 0]	n/a	FR1	2	R1339D
97587.083	0.86	669662	WORD_OFF	n/a	n/a	STEAM	4	5	[0, 0, 0]	n/a	FR1	2	R1339D
97587.943	1.624	670522	WORD	n/a	n/a	POOL	5	5	[0, 0, 0]	n/a	FR1	2	R1339D
97589.567	0.933	672146	WORD_OFF	n/a	n/a	POOL	5	5	[0, 0, 0]	n/a	FR1	2	R1339D
97590.5	1.634	673079	WORD	n/a	n/a	HOLE	6	5	[0, 0, 0]	n/a	FR1	2	R1339D
97592.134	0.767	674712	WORD_OFF	n/a	n/a	HOLE	6	5	[0, 0, 0]	n/a	FR1	2	R1339D
97592.901	1.617	675479	WORD	n/a	n/a	FOX	7	5	[0, 0, 0]	n/a	FR1	2	R1339D
97594.518	0.945	677096	WORD_OFF	n/a	n/a	FOX	7	5	[0, 0, 0]	n/a	FR1	2	R1339D
97595.463	1.622	678041	WORD	n/a	n/a	LEG	8	5	[0, 0, 0]	n/a	FR1	2	R1339D
97597.085	0.9	679663	WORD_OFF	n/a	n/a	LEG	8	5	[0, 0, 0]	n/a	FR1	2	R1339D
97597.985	1.617	680563	WORD	n/a	n/a	DRUM	9	5	[0, 0, 0]	n/a	FR1	2	R1339D
97599.602	1.146	682180	WORD_OFF	n/a	n/a	DRUM	9	5	[0, 0, 0]	n/a	FR1	2	R1339D
97600.748	1.621	683326	WORD	n/a	n/a	FISH	10	5	[0, 0, 0]	n/a	FR1	2	R1339D
97602.369	0.873	684947	WORD_OFF	n/a	n/a	FISH	10	5	[0, 0, 0]	n/a	FR1	2	R1339D
97603.242	1.627	685820	WORD	n/a	n/a	TRAY	11	5	[0, 0, 0]	n/a	FR1	2	R1339D
97604.869	0.805	687447	WORD_OFF	n/a	n/a	TRAY	11	5	[0, 0, 0]	n/a	FR1	2	R1339D
97605.674	1.63	688252	WORD	n/a	n/a	ROOF	12	5	[0, 0, 0]	n/a	FR1	2	R1339D
97607.304	0.0	689882	DISTRACT_START	n/a	n/a	n/a	-999	5	[0, 0, 0]	n/a	FR1	2	R1339D
97607.304	0.0	689882	ENCODING_END	n/a	n/a	n/a	-999	5	[0, 0, 0]	n/a	FR1	2	R1339D
97607.304	0.001	689882	WORD_OFF	n/a	n/a	ROOF	12	5	[0, 0, 0]	n/a	FR1	2	R1339D
97607.305	0.015	689883	START	n/a	n/a	n/a	-999	5	[-999, -999, -999]	n/a	FR1	2	R1339D
97607.32	3.301	689898	PROB	3.301	n/a	n/a	-999	5	[4, 7, 1]	12	FR1	2	R1339D
97610.621	2.55	693199	PROB	2.55	n/a	n/a	-999	5	[1, 5, 6]	12	FR1	2	R1339D
97613.171	7.684	695749	PROB	7.684	n/a	n/a	-999	5	[9, 6, 9]	24	FR1	2	R1339D
97620.855	4.335	703432	PROB	4.335	n/a	n/a	-999	5	[8, 1, 3]	12	FR1	2	R1339D
97625.19	2.449	707767	PROB	2.449	n/a	n/a	-999	5	[5, 6, 4]	15	FR1	2	R1339D
97627.639	0.018	710216	STOP	n/a	n/a	n/a	-999	5	[-999, -999, -999]	n/a	FR1	2	R1339D
97627.657	0.54	710234	DISTRACT_END	n/a	n/a	n/a	-999	5	[0, 0, 0]	n/a	FR1	2	R1339D
97628.197	1.676	710774	RETRIEVAL_ORIENT_START	n/a	n/a	n/a	-999	5	[0, 0, 0]	n/a	FR1	2	R1339D
97629.873	0.0	712450	RETRIEVAL_ORIENT_END	n/a	n/a	n/a	-999	5	[0, 0, 0]	n/a	FR1	2	R1339D
97629.873	6.639	712450	REC_START	n/a	n/a	n/a	-999	5	[0, 0, 0]	n/a	FR1	2	R1339D
97636.512	1.228	719088	REC_WORD	1.228	n/a	BROOM	-999	5	[0, 0, 0]	n/a	FR1	2	R1339D
97637.74	22.144	720316	REC_WORD	22.144	n/a	TRIM	-999	5	[0, 0, 0]	n/a	FR1	2	R1339D
97659.884	0.001	742459	REC_END	n/a	n/a	n/a	-999	5	[0, 0, 0]	n/a	FR1	2	R1339D
97659.885	0.013	742460	TRIAL_END	n/a	n/a	n/a	-999	5	[0, 0, 0]	n/a	FR1	2	R1339D
97659.898	0.001	742473	TRIAL_START	n/a	n/a	n/a	-999	6	[0, 0, 0]	n/a	FR1	2	R1339D
97659.899	0.0	742474	TRIAL	n/a	n/a	n/a	-999	6	[0, 0, 0]	n/a	FR1	2	R1339D
97659.899	2.831	742474	WAITING_START	n/a	n/a	n/a	-999	6	[0, 0, 0]	n/a	FR1	2	R1339D
97662.73	0.001	745305	WAITING_END	n/a	n/a	n/a	-999	6	[0, 0, 0]	n/a	FR1	2	R1339D
97662.731	10.429	745306	COUNTDOWN_START	n/a	n/a	n/a	-999	6	[0, 0, 0]	n/a	FR1	2	R1339D
97673.16	0.0	755735	COUNTDOWN_END	n/a	n/a	n/a	-999	6	[0, 0, 0]	n/a	FR1	2	R1339D
97673.16	1.189	755735	ORIENT_START	n/a	n/a	n/a	-999	6	[0, 0, 0]	n/a	FR1	2	R1339D
97674.349	0.0	756924	ORIENT_END	n/a	n/a	n/a	-999	6	[0, 0, 0]	n/a	FR1	2	R1339D
97674.349	1.141	756924	ENCODING_START	n/a	n/a	n/a	-999	6	[0, 0, 0]	n/a	FR1	2	R1339D
97675.49	1.626	758065	WORD	n/a	n/a	STAIR	1	6	[0, 0, 0]	n/a	FR1	2	R1339D
97677.116	1.028	759691	WORD_OFF	n/a	n/a	STAIR	1	6	[0, 0, 0]	n/a	FR1	2	R1339D
97678.144	1.623	760719	WORD	n/a	n/a	MOUTH	2	6	[0, 0, 0]	n/a	FR1	2	R1339D
97679.767	0.867	762342	WORD_OFF	n/a	n/a	MOUTH	2	6	[0, 0, 0]	n/a	FR1	2	R1339D
97680.634	1.633	763208	WORD	n/a	n/a	GLOVE	3	6	[0, 0, 0]	n/a	FR1	2	R1339D
97682.267	1.043	764841	WORD_OFF	n/a	n/a	GLOVE	3	6	[0, 0, 0]	n/a	FR1	2	R1339D
97683.31	1.623	765884	WORD	n/a	n/a	FACE	4	6	[0, 0, 0]	n/a	FR1	2	R1339D
97684.933	0.862	767507	WORD_OFF	n/a	n/a	FACE	4	6	[0, 0, 0]	n/a	FR1	2	R1339D
97685.795	1.606	768369	WORD	n/a	n/a	PEN	5	6	[0, 0, 0]	n/a	FR1	2	R1339D
97687.401	1.071	769975	WORD_OFF	n/a	n/a	PEN	5	6	[0, 0, 0]	n/a	FR1	2	R1339D
97688.472	1.63	771046	WORD	n/a	n/a	TANK	6	6	[0, 0, 0]	n/a	FR1	2	R1339D
97690.102	1.133	772676	WORD_OFF	n/a	n/a	TANK	6	6	[0, 0, 0]	n/a	FR1	2	R1339D
97691.235	1.633	773809	WORD	n/a	n/a	WAVE	7	6	[0, 0, 0]	n/a	FR1	2	R1339D
97692.868	0.989	775442	WORD_OFF	n/a	n/a	WAVE	7	6	[0, 0, 0]	n/a	FR1	2	R1339D
97693.857	1.629	776431	WORD	n/a	n/a	PIN	8	6	[0, 0, 0]	n/a	FR1	2	R1339D
97695.486	0.857	778060	WORD_OFF	n/a	n/a	PIN	8	6	[0, 0, 0]	n/a	FR1	2	R1339D
97696.343	1.626	778917	WORD	n/a	n/a	BOMB	9	6	[0, 0, 0]	n/a	FR1	2	R1339D
97697.969	0.952	780543	WORD_OFF	n/a	n/a	BOMB	9	6	[0, 0, 0]	n/a	FR1	2	R1339D
97698.921	1.633	781495	WORD	n/a	n/a	ROSE	10	6	[0, 0, 0]	n/a	FR1	2	R1339D
97700.554	0.839	783128	WORD_OFF	n/a	n/a	ROSE	10	6	[0, 0, 0]	n/a	FR1	2	R1339D
97701.393	1.627	783967	WORD	n/a	n/a	ROPE	11	6	[0, 0, 0]	n/a	FR1	2	R1339D
97703.02	0.915	785593	WORD_OFF	n/a	n/a	ROPE	11	6	[0, 0, 0]	n/a	FR1	2	R1339D
97703.935	1.619	786508	WORD	n/a	n/a	LAMB	12	6	[0, 0, 0]	n/a	FR1	2	R1339D
97705.554	0.001	788127	WORD_OFF	n/a	n/a	LAMB	12	6	[0, 0, 0]	n/a	FR1	2	R1339D
97705.555	0.0	788128	ENCODING_END	n/a	n/a	n/a	-999	6	[0, 0, 0]	n/a	FR1	2	R1339D
97705.555	0.0	788128	DISTRACT_START	n/a	n/a	n/a	-999	6	[0, 0, 0]	n/a	FR1	2	R1339D
97705.555	0.016	788128	START	n/a	n/a	n/a	-999	6	[-999, -999, -999]	n/a	FR1	2	R1339D
97705.571	3.584	788144	PROB	3.584	n/a	n/a	-999	6	[1, 5, 9]	15	FR1	2	R1339D
97709.155	3.084	791728	PROB	3.084	n/a	n/a	-999	6	[8, 2, 6]	16	FR1	2	R1339D
97712.239	2.566	794812	PROB	2.566	n/a	n/a	-999	6	[7, 7, 2]	16	FR1	2	R1339D
97714.805	4.352	797378	PROB	4.352	n/a	n/a	-999	6	[9, 3, 9]	20	FR1	2	R1339D
97719.157	8.148	801730	PROB	8.148	n/a	n/a	-999	6	[3, 4, 3]	11	FR1	2	R1339D
97727.305	0.02	809877	STOP	n/a	n/a	n/a	-999	6	[-999, -999, -999]	n/a	FR1	2	R1339D
97727.325	0.538	809897	DISTRACT_END	n/a	n/a	n/a	-999	6	[0, 0, 0]	n/a	FR1	2	R1339D
97727.863	1.646	810435	RETRIEVAL_ORIENT_START	n/a	n/a	n/a	-999	6	[0, 0, 0]	n/a	FR1	2	R1339D
97729.509	0.0	812081	RETRIEVAL_ORIENT_END	n/a	n/a	n/a	-999	6	[0, 0, 0]	n/a	FR1	2	R1339D
97729.509	29.988	812081	REC_START	n/a	n/a	n/a	-999	6	[0, 0, 0]	n/a	FR1	2	R1339D
97759.497	0.023	842068	REC_WORD_VV	0.023	n/a	<>	-999	6	[0, 0, 0]	n/a	FR1	2	R1339D
97759.52	0.0	842091	TRIAL_END	n/a	n/a	n/a	-999	6	[0, 0, 0]	n/a	FR1	2	R1339D
97759.52	0.017	842091	REC_END	n/a	n/a	n/a	-999	6	[0, 0, 0]	n/a	FR1	2	R1339D
97759.537	0.0	842108	TRIAL_START	n/a	n/a	n/a	-999	7	[0, 0, 0]	n/a	FR1	2	R1339D
97759.537	0.0	842108	TRIAL	n/a	n/a	n/a	-999	7	[0, 0, 0]	n/a	FR1	2	R1339D
97759.537	23.498	842108	WAITING_START	n/a	n/a	n/a	-999	7	[0, 0, 0]	n/a	FR1	2	R1339D
97783.035	0.0	865605	WAITING_END	n/a	n/a	n/a	-999	7	[0, 0, 0]	n/a	FR1	2	R1339D
97783.035	10.428	865605	COUNTDOWN_START	n/a	n/a	n/a	-999	7	[0, 0, 0]	n/a	FR1	2	R1339D
97793.463	0.0	876032	COUNTDOWN_END	n/a	n/a	n/a	-999	7	[0, 0, 0]	n/a	FR1	2	R1339D
97793.463	1.125	876032	ORIENT_START	n/a	n/a	n/a	-999	7	[0, 0, 0]	n/a	FR1	2	R1339D
97794.588	0.0	877157	ORIENT_END	n/a	n/a	n/a	-999	7	[0, 0, 0]	n/a	FR1	2	R1339D
97794.588	0.904	877157	ENCODING_START	n/a	n/a	n/a	-999	7	[0, 0, 0]	n/a	FR1	2	R1339D
97795.492	1.629	878061	WORD	n/a	n/a	CHAIR	1	7	[0, 0, 0]	n/a	FR1	2	R1339D
97797.121	0.783	879690	WORD_OFF	n/a	n/a	CHAIR	1	7	[0, 0, 0]	n/a	FR1	2	R1339D
97797.904	1.634	880473	WORD	n/a	n/a	VASE	2	7	[0, 0, 0]	n/a	FR1	2	R1339D
97799.538	1.073	882107	WORD_OFF	n/a	n/a	VASE	2	7	[0, 0, 0]	n/a	FR1	2	R1339D
97800.611	1.628	883180	WORD	n/a	n/a	PHONE	3	7	[0, 0, 0]	n/a	FR1	2	R1339D
97802.239	1.014	884808	WORD_OFF	n/a	n/a	PHONE	3	7	[0, 0, 0]	n/a	FR1	2	R1339D
97803.253	1.635	885822	WORD	n/a	n/a	FOOD	4	7	[0, 0, 0]	n/a	FR1	2	R1339D
97804.888	0.783	887457	WORD_OFF	n/a	n/a	FOOD	4	7	[0, 0, 0]	n/a	FR1	2	R1339D
97805.671	1.636	888240	WORD	n/a	n/a	MAIL	5	7	[0, 0, 0]	n/a	FR1	2	R1339D
97807.307	0.886	889876	WORD_OFF	n/a	n/a	MAIL	5	7	[0, 0, 0]	n/a	FR1	2	R1339D
97808.193	1.63	890762	WORD	n/a	n/a	TEETH	6	7	[0, 0, 0]	n/a	FR1	2	R1339D
97809.823	0.926	892392	WORD_OFF	n/a	n/a	TEETH	6	7	[0, 0, 0]	n/a	FR1	2	R1339D
97810.749	1.625	893318	WORD	n/a	n/a	SNOW	7	7	[0, 0, 0]	n/a	FR1	2	R1339D
97812.374	1.069	894943	WORD_OFF	n/a	n/a	SNOW	7	7	[0, 0, 0]	n/a	FR1	2	R1339D
97813.443	1.631	896012	WORD	n/a	n/a	PEA	8	7	[0, 0, 0]	n/a	FR1	2	R1339D
97815.074	0.77	897642	WORD_OFF	n/a	n/a	PEA	8	7	[0, 0, 0]	n/a	FR1	2	R1339D
97815.844	1.631	898412	WORD	n/a	n/a	PEARL	9	7	[0, 0, 0]	n/a	FR1	2	R1339D
97817.475	1.043	900043	WORD_OFF	n/a	n/a	PEARL	9	7	[0, 0, 0]	n/a	FR1	2	R1339D
97818.518	1.624	901086	WORD	n/a	n/a	HOOF	10	7	[0, 0, 0]	n/a	FR1	2	R1339D
97820.142	1.061	902710	WORD_OFF	n/a	n/a	HOOF	10	7	[0, 0, 0]	n/a	FR1	2	R1339D
97821.203	1.622	903771	WORD	n/a	n/a	CHALK	11	7	[0, 0, 0]	n/a	FR1	2	R1339D
97822.825	0.948	905393	WORD_OFF	n/a	n/a	CHALK	11	7	[0, 0, 0]	n/a	FR1	2	R1339D
97823.773	1.637	906341	WORD	n/a	n/a	YARD	12	7	[0, 0, 0]	n/a	FR1	2	R1339D
97825.41	0.0	907978	WORD_OFF	n/a	n/a	YARD	12	7	[0, 0, 0]	n/a	FR1	2	R1339D
97825.41	0.0	907978	ENCODING_END	n/a	n/a	n/a	-999	7	[0, 0, 0]	n/a	FR1	2	R1339D
97825.41	0.001	907978	DISTRACT_START	n/a	n/a	n/a	-999	7	[0, 0, 0]	n/a	FR1	2	R1339D
97825.411	0.015	907979	START	n/a	n/a	n/a	-999	7	[-999, -999, -999]	n/a	FR1	2	R1339D
97825.426	2.55	907994	PROB	2.55	n/a	n/a	-999	7	[2, 3, 1]	6	FR1	2	R1339D
97827.976	2.168	910544	PROB	2.168	n/a	n/a	-999	7	[7, 7, 7]	21	FR1	2	R1339D
97830.144	5.401	912712	PROB	5.401	n/a	n/a	-999	7	[6, 3, 5]	14	FR1	2	R1339D
97835.545	3.0	918113	PROB	3.0	n/a	n/a	-999	7	[4, 4, 6]	14	FR1	2	R1339D
97838.545	2.634	921112	PROB	2.634	n/a	n/a	-999	7	[1, 3, 1]	5	FR1	2	R1339D
97841.179	4.101	923746	PROB	4.101	n/a	n/a	-999	7	[2, 5, 3]	10	FR1	2	R1339D
97845.28	2.409	927847	PROB	2.409	n/a	n/a	-999	7	[3, 5, 7]	15	FR1	2	R1339D
97847.689	0.008	930256	STOP	n/a	n/a	n/a	-999	7	[-999, -999, -999]	n/a	FR1	2	R1339D
97847.697	0.662	930264	DISTRACT_END	n/a	n/a	n/a	-999	7	[0, 0, 0]	n/a	FR1	2	R1339D
97848.359	1.588	930926	RETRIEVAL_ORIENT_START	n/a	n/a	n/a	-999	7	[0, 0, 0]	n/a	FR1	2	R1339D
97849.947	0.0	932514	REC_START	n/a	n/a	n/a	-999	7	[0, 0, 0]	n/a	FR1	2	R1339D
97849.947	3.623	932514	RETRIEVAL_ORIENT_END	n/a	n/a	n/a	-999	7	[0, 0, 0]	n/a	FR1	2	R1339D
97853.57	1.24	936137	REC_WORD	1.24	n/a	CHAIR	1	7	[0, 0, 0]	n/a	FR1	2	R1339D
97854.81	25.15	937377	REC_WORD	25.15	n/a	SLIP	-999	7	[0, 0, 0]	n/a	FR1	2	R1339D
97879.96	0.0	962526	REC_END	n/a	n/a	n/a	-999	7	[0, 0, 0]	n/a	FR1	2	R1339D
97879.96	0.016	962526	TRIAL_END	n/a	n/a	n/a	-999	7	[0, 0, 0]	n/a	FR1	2	R1339D
97879.976	0.001	962542	TRIAL_START	n/a	n/a	n/a	-999	8	[0, 0, 0]	n/a	FR1	2	R1339D
97879.977	0.0	962543	TRIAL	n/a	n/a	n/a	-999	8	[0, 0, 0]	n/a	FR1	2	R1339D
97879.977	10.178	962543	WAITING_START	n/a	n/a	n/a	-999	8	[0, 0, 0]	n/a	FR1	2	R1339D
97890.155	0.0	972720	WAITING_END	n/a	n/a	n/a	-999	8	[0, 0, 0]	n/a	FR1	2	R1339D
97890.155	10.429	972720	COUNTDOWN_START	n/a	n/a	n/a	-999	8	[0, 0, 0]	n/a	FR1	2	R1339D
97900.584	0.001	983149	COUNTDOWN_END	n/a	n/a	n/a	-999	8	[0, 0, 0]	n/a	FR1	2	R1339D
97900.585	1.205	983150	ORIENT_START	n/a	n/a	n/a	-999	8	[0, 0, 0]	n/a	FR1	2	R1339D
97901.79	0.001	984355	ORIENT_END	n/a	n/a	n/a	-999	8	[0, 0, 0]	n/a	FR1	2	R1339D
97901.791	0.845	984356	ENCODING_START	n/a	n/a	n/a	-999	8	[0, 0, 0]	n/a	FR1	2	R1339D
97902.636	1.638	985201	WORD	n/a	n/a	SPEAR	1	8	[0, 0, 0]	n/a	FR1	2	R1339D
97904.274	0.844	986838	WORD_OFF	n/a	n/a	SPEAR	1	8	[0, 0, 0]	n/a	FR1	2	R1339D
97905.118	1.623	987682	WORD	n/a	n/a	DOCK	2	8	[0, 0, 0]	n/a	FR1	2	R1339D
97906.741	0.904	989305	WORD_OFF	n/a	n/a	DOCK	2	8	[0, 0, 0]	n/a	FR1	2	R1339D
97907.645	1.63	990209	WORD	n/a	n/a	EAR	3	8	[0, 0, 0]	n/a	FR1	2	R1339D
97909.275	0.96	991839	WORD_OFF	n/a	n/a	EAR	3	8	[0, 0, 0]	n/a	FR1	2	R1339D
97910.235	1.623	992799	WORD	n/a	n/a	FLEA	4	8	[0, 0, 0]	n/a	FR1	2	R1339D
97911.858	0.967	994422	WORD_OFF	n/a	n/a	FLEA	4	8	[0, 0, 0]	n/a	FR1	2	R1339D
97912.825	1.634	995389	WORD	n/a	n/a	FUR	5	8	[0, 0, 0]	n/a	FR1	2	R1339D
97914.459	0.86	997023	WORD_OFF	n/a	n/a	FUR	5	8	[0, 0, 0]	n/a	FR1	2	R1339D
97915.319	1.623	997883	WORD	n/a	n/a	WORLD	6	8	[0, 0, 0]	n/a	FR1	2	R1339D
97916.942	1.03	999506	WORD_OFF	n/a	n/a	WORLD	6	8	[0, 0, 0]	n/a	FR1	2	R1339D
97917.972	1.622	1000536	WORD	n/a	n/a	HORN	7	8	[0, 0, 0]	n/a	FR1	2	R1339D
97919.594	0.831	1002158	WORD_OFF	n/a	n/a	HORN	7	8	[0, 0, 0]	n/a	FR1	2	R1339D
97920.425	1.635	1002989	WORD	n/a	n/a	CAT	8	8	[0, 0, 0]	n/a	FR1	2	R1339D
97922.06	0.766	1004624	WORD_OFF	n/a	n/a	CAT	8	8	[0, 0, 0]	n/a	FR1	2	R1339D
97922.826	1.635	1005390	WORD	n/a	n/a	WALL	9	8	[0, 0, 0]	n/a	FR1	2	R1339D
97924.461	0.881	1007025	WORD_OFF	n/a	n/a	WALL	9	8	[0, 0, 0]	n/a	FR1	2	R1339D
97925.342	1.635	1007906	WORD	n/a	n/a	FLUTE	10	8	[0, 0, 0]	n/a	FR1	2	R1339D
97926.977	1.14	1009540	WORD_OFF	n/a	n/a	FLUTE	10	8	[0, 0, 0]	n/a	FR1	2	R1339D
97928.117	1.629	1010680	WORD	n/a	n/a	BOY	11	8	[0, 0, 0]	n/a	FR1	2	R1339D
97929.746	1.1	1012309	WORD_OFF	n/a	n/a	BOY	11	8	[0, 0, 0]	n/a	FR1	2	R1339D
97930.846	1.617	1013409	WORD	n/a	n/a	ZOO	12	8	[0, 0, 0]	n/a	FR1	2	R1339D
97932.463	0.0	1015026	DISTRACT_START	n/a	n/a	n/a	-999	8	[0, 0, 0]	n/a	FR1	2	R1339D
97932.463	0.0	1015026	WORD_OFF	n/a	n/a	ZOO	12	8	[0, 0, 0]	n/a	FR1	2	R1339D
97932.463	0.001	1015026	ENCODING_END	n/a	n/a	n/a	-999	8	[0, 0, 0]	n/a	FR1	2	R1339D
97932.464	0.015	1015027	START	n/a	n/a	n/a	-999	8	[-999, -999, -999]	n/a	FR1	2	R1339D
97932.479	5.467	1015042	PROB	5.467	n/a	n/a	-999	8	[7, 1, 4]	12	FR1	2	R1339D
97937.946	5.168	1020509	PROB	5.168	n/a	n/a	-999	8	[4, 2, 3]	9	FR1	2	R1339D
97943.114	6.202	1025677	PROB	6.202	n/a	n/a	-999	8	[5, 6, 6]	17	FR1	2	R1339D
97949.316	2.283	1031878	PROB	2.283	n/a	n/a	-999	8	[1, 1, 6]	8	FR1	2	R1339D
97951.599	6.999	1034161	PROB	6.999	n/a	n/a	-999	8	[9, 4, 2]	15	FR1	2	R1339D
97958.598	0.02	1041160	STOP	n/a	n/a	n/a	-999	8	[-999, -999, -999]	n/a	FR1	2	R1339D
97958.618	0.677	1041180	DISTRACT_END	n/a	n/a	n/a	-999	8	[0, 0, 0]	n/a	FR1	2	R1339D
97959.295	1.639	1041857	RETRIEVAL_ORIENT_START	n/a	n/a	n/a	-999	8	[0, 0, 0]	n/a	FR1	2	R1339D
97960.934	0.0	1043496	RETRIEVAL_ORIENT_END	n/a	n/a	n/a	-999	8	[0, 0, 0]	n/a	FR1	2	R1339D
97960.934	29.988	1043496	REC_START	n/a	n/a	n/a	-999	8	[0, 0, 0]	n/a	FR1	2	R1339D
97990.922	0.022	1073483	REC_WORD_VV	0.022	n/a	<>	-999	8	[0, 0, 0]	n/a	FR1	2	R1339D
97990.944	0.0	1073505	REC_END	n/a	n/a	n/a	-999	8	[0, 0, 0]	n/a	FR1	2	R1339D
97990.944	0.016	1073505	TRIAL_END	n/a	n/a	n/a	-999	8	[0, 0, 0]	n/a	FR1	2	R1339D
97990.96	0.0	1073521	TRIAL	n/a	n/a	n/a	-999	9	[0, 0, 0]	n/a	FR1	2	R1339D
97990.96	0.0	1073521	TRIAL_START	n/a	n/a	n/a	-999	9	[0, 0, 0]	n/a	FR1	2	R1339D
97990.96	0.0	1073521	WAITING_START	n/a	n/a	n/a	-999	9	[0, 0, 0]	n/a	FR1	2	R1339D
