onset	duration	sample	trial_type	response_time	stim_file	item_name	serialpos	list	test	answer	experiment	session	subject
0.0	0.499	4876	INSTRUCT_START	n/a	n/a	n/a	-999	-999	[0, 0, 0]	n/a	FR1	1	R1396T
0.499	31.249	5379	INSTRUCT_END	n/a	n/a	n/a	-999	-999	[0, 0, 0]	n/a	FR1	1	R1396T
31.748	10.35	36634	COUNTDOWN_START	n/a	n/a	n/a	-999	-999	[0, 0, 0]	n/a	FR1	1	R1396T
42.098	0.001	46973	COUNTDOWN_END	n/a	n/a	n/a	-999	-999	[0, 0, 0]	n/a	FR1	1	R1396T
42.099	2.033	46973	ENCODING_START	n/a	n/a	n/a	-999	-1	[0, 0, 0]	n/a	FR1	1	R1396T
44.132	1.616	49013	WORD	n/a	n/a	JAIL	1	-1	[0, 0, 0]	n/a	FR1	1	R1396T
45.748	0.95	50619	WORD_OFF	n/a	n/a	JAIL	1	-1	[0, 0, 0]	n/a	FR1	1	R1396T
46.698	1.617	51570	WORD	n/a	n/a	WEED	2	-1	[0, 0, 0]	n/a	FR1	1	R1396T
48.315	1.0	53190	WORD_OFF	n/a	n/a	WEED	2	-1	[0, 0, 0]	n/a	FR1	1	R1396T
49.315	1.616	54196	WORD	n/a	n/a	HAZE	3	-1	[0, 0, 0]	n/a	FR1	1	R1396T
50.931	0.95	55803	WORD_OFF	n/a	n/a	HAZE	3	-1	[0, 0, 0]	n/a	FR1	1	R1396T
51.881	1.6	56753	WORD	n/a	n/a	BRIDGE	4	-1	[0, 0, 0]	n/a	FR1	1	R1396T
53.481	0.984	58360	WORD_OFF	n/a	n/a	BRIDGE	4	-1	[0, 0, 0]	n/a	FR1	1	R1396T
54.465	1.616	59338	WORD	n/a	n/a	SKI	5	-1	[0, 0, 0]	n/a	FR1	1	R1396T
56.081	0.867	60959	WORD_OFF	n/a	n/a	SKI	5	-1	[0, 0, 0]	n/a	FR1	1	R1396T
56.948	1.617	61825	WORD	n/a	n/a	FILM	6	-1	[0, 0, 0]	n/a	FR1	1	R1396T
58.565	0.9	63446	WORD_OFF	n/a	n/a	FILM	6	-1	[0, 0, 0]	n/a	FR1	1	R1396T
59.465	1.616	64340	WORD	n/a	n/a	WHEEL	7	-1	[0, 0, 0]	n/a	FR1	1	R1396T
61.081	0.985	65960	WORD_OFF	n/a	n/a	WHEEL	7	-1	[0, 0, 0]	n/a	FR1	1	R1396T
62.066	1.615	66938	WORD	n/a	n/a	CROWN	8	-1	[0, 0, 0]	n/a	FR1	1	R1396T
63.681	0.934	68559	WORD_OFF	n/a	n/a	CROWN	8	-1	[0, 0, 0]	n/a	FR1	1	R1396T
64.615	1.616	69495	WORD	n/a	n/a	TILE	9	-1	[0, 0, 0]	n/a	FR1	1	R1396T
66.231	0.8	71102	WORD_OFF	n/a	n/a	TILE	9	-1	[0, 0, 0]	n/a	FR1	1	R1396T
67.031	1.617	71912	WORD	n/a	n/a	DART	10	-1	[0, 0, 0]	n/a	FR1	1	R1396T
68.648	0.8	73519	WORD_OFF	n/a	n/a	DART	10	-1	[0, 0, 0]	n/a	FR1	1	R1396T
69.448	1.617	74330	WORD	n/a	n/a	BUG	11	-1	[0, 0, 0]	n/a	FR1	1	R1396T
71.065	0.833	75936	WORD_OFF	n/a	n/a	BUG	11	-1	[0, 0, 0]	n/a	FR1	1	R1396T
71.898	1.618	76775	WORD	n/a	n/a	TRENCH	12	-1	[0, 0, 0]	n/a	FR1	1	R1396T
73.516	0.0	78391	START	n/a	n/a	n/a	-999	-1	[-999, -999, -999]	n/a	FR1	1	R1396T
73.516	0.0	78391	PROB	0.0	n/a	n/a	-999	-1	[6, 1, 1]	8	FR1	1	R1396T
73.514	0.002	78395	WORD_OFF	n/a	n/a	TRENCH	12	-1	[0, 0, 0]	n/a	FR1	1	R1396T
73.516	0.0	78395	ENCODING_END	n/a	n/a	n/a	-999	-1	[0, 0, 0]	n/a	FR1	1	R1396T
73.516	3.515	78395	DISTRACT_START	n/a	n/a	n/a	-999	-1	[0, 0, 0]	n/a	FR1	1	R1396T
77.031	6.517	81905	PROB	6.517	n/a	n/a	-999	-1	[8, 3, 8]	19	FR1	1	R1396T
83.548	3.917	88422	PROB	3.917	n/a	n/a	-999	-1	[2, 3, 7]	12	FR1	1	R1396T
87.465	6.532	92339	PROB	6.532	n/a	n/a	-999	-1	[5, 7, 4]	16	FR1	1	R1396T
93.997	0.0	98871	STOP	n/a	n/a	n/a	-999	-1	[-999, -999, -999]	n/a	FR1	1	R1396T
93.997	1.3	98878	DISTRACT_END	n/a	n/a	n/a	-999	-1	[0, 0, 0]	n/a	FR1	1	R1396T
95.297	2.63	100177	REC_START	n/a	n/a	n/a	-999	-1	[0, 0, 0]	n/a	FR1	1	R1396T
97.927	1.089	102800	REC_WORD	1.089	n/a	WHEEL	7	-1	[0, 0, 0]	n/a	FR1	1	R1396T
99.016	2.838	103889	REC_WORD	2.838	n/a	BUS	-999	-1	[0, 0, 0]	n/a	FR1	1	R1396T
101.854	24.668	106727	REC_WORD	24.668	n/a	BUG	11	-1	[0, 0, 0]	n/a	FR1	1	R1396T
126.522	8.926	131390	REC_END	n/a	n/a	n/a	-999	-1	[0, 0, 0]	n/a	FR1	1	R1396T
135.448	10.35	140318	COUNTDOWN_START	n/a	n/a	n/a	-999	1	[0, 0, 0]	n/a	FR1	1	R1396T
145.798	0.001	150672	COUNTDOWN_END	n/a	n/a	n/a	-999	1	[0, 0, 0]	n/a	FR1	1	R1396T
145.799	2.282	150672	ENCODING_START	n/a	n/a	n/a	-999	1	[0, 0, 0]	n/a	FR1	1	R1396T
148.081	1.6	152949	WORD	n/a	wordpools/wordpool_long_EN.txt	CAVE	1	1	[0, 0, 0]	n/a	FR1	1	R1396T
149.681	0.8	154556	WORD_OFF	n/a	n/a	CAVE	1	1	[0, 0, 0]	n/a	FR1	1	R1396T
150.481	1.602	155352	WORD	n/a	wordpools/wordpool_long_EN.txt	PRINCE	2	1	[0, 0, 0]	n/a	FR1	1	R1396T
152.083	0.815	156959	WORD_OFF	n/a	n/a	PRINCE	2	1	[0, 0, 0]	n/a	FR1	1	R1396T
152.898	1.6	157769	WORD	n/a	wordpools/wordpool_long_EN.txt	OAR	3	1	[0, 0, 0]	n/a	FR1	1	R1396T
154.498	0.982	159362	WORD_OFF	n/a	n/a	OAR	3	1	[0, 0, 0]	n/a	FR1	1	R1396T
155.48	1.601	160354	WORD	n/a	wordpools/wordpool_long_EN.txt	GIFT	4	1	[0, 0, 0]	n/a	FR1	1	R1396T
157.081	0.884	161947	WORD_OFF	n/a	n/a	GIFT	4	1	[0, 0, 0]	n/a	FR1	1	R1396T
157.965	1.616	162841	WORD	n/a	wordpools/wordpool_long_EN.txt	TOOL	5	1	[0, 0, 0]	n/a	FR1	1	R1396T
159.581	0.767	164448	WORD_OFF	n/a	n/a	TOOL	5	1	[0, 0, 0]	n/a	FR1	1	R1396T
160.348	1.6	165216	WORD	n/a	wordpools/wordpool_long_EN.txt	SHARK	6	1	[0, 0, 0]	n/a	FR1	1	R1396T
161.948	1.0	166823	WORD_OFF	n/a	n/a	SHARK	6	1	[0, 0, 0]	n/a	FR1	1	R1396T
162.948	1.616	167815	WORD	n/a	wordpools/wordpool_long_EN.txt	CLAM	7	1	[0, 0, 0]	n/a	FR1	1	R1396T
164.564	0.902	169436	WORD_OFF	n/a	n/a	CLAM	7	1	[0, 0, 0]	n/a	FR1	1	R1396T
165.466	1.615	170330	WORD	n/a	wordpools/wordpool_long_EN.txt	CLIFF	8	1	[0, 0, 0]	n/a	FR1	1	R1396T
167.081	0.85	171951	WORD_OFF	n/a	n/a	CLIFF	8	1	[0, 0, 0]	n/a	FR1	1	R1396T
167.931	1.6	172803	WORD	n/a	wordpools/wordpool_long_EN.txt	FARM	9	1	[0, 0, 0]	n/a	FR1	1	R1396T
169.531	0.817	174396	WORD_OFF	n/a	n/a	FARM	9	1	[0, 0, 0]	n/a	FR1	1	R1396T
170.348	1.616	175220	WORD	n/a	wordpools/wordpool_long_EN.txt	CONE	10	1	[0, 0, 0]	n/a	FR1	1	R1396T
171.964	0.984	176827	WORD_OFF	n/a	n/a	CONE	10	1	[0, 0, 0]	n/a	FR1	1	R1396T
172.948	1.616	177819	WORD	n/a	wordpools/wordpool_long_EN.txt	BOWL	11	1	[0, 0, 0]	n/a	FR1	1	R1396T
174.564	0.817	179440	WORD_OFF	n/a	n/a	BOWL	11	1	[0, 0, 0]	n/a	FR1	1	R1396T
175.381	1.601	180250	WORD	n/a	wordpools/wordpool_long_EN.txt	EGG	12	1	[0, 0, 0]	n/a	FR1	1	R1396T
176.982	0.0	181851	START	n/a	n/a	n/a	-999	1	[-999, -999, -999]	n/a	FR1	1	R1396T
176.982	0.0	181851	PROB	0.0	n/a	n/a	-999	1	[1, 2, 2]	5	FR1	1	R1396T
176.981	0.001	181857	WORD_OFF	n/a	n/a	EGG	12	1	[0, 0, 0]	n/a	FR1	1	R1396T
176.982	0.0	181857	ENCODING_END	n/a	n/a	n/a	-999	1	[0, 0, 0]	n/a	FR1	1	R1396T
176.982	4.766	181857	DISTRACT_START	n/a	n/a	n/a	-999	1	[0, 0, 0]	n/a	FR1	1	R1396T
181.748	4.483	186617	PROB	4.483	n/a	n/a	-999	1	[4, 2, 2]	8	FR1	1	R1396T
186.231	7.85	191100	PROB	7.85	n/a	n/a	-999	1	[3, 1, 7]	11	FR1	1	R1396T
194.081	10.55	198949	PROB	10.55	n/a	n/a	-999	1	[6, 8, 6]	18	FR1	1	R1396T
204.631	0.0	209493	DISTRACT_END	n/a	n/a	n/a	-999	1	[0, 0, 0]	n/a	FR1	1	R1396T
204.631	1.134	209499	STOP	n/a	n/a	n/a	-999	1	[-999, -999, -999]	n/a	FR1	1	R1396T
205.765	7.333	210639	REC_START	n/a	n/a	n/a	-999	1	[0, 0, 0]	n/a	FR1	1	R1396T
213.098	1.787	217965	REC_WORD	1.787	n/a	CONE	10	1	[0, 0, 0]	n/a	FR1	1	R1396T
214.885	14.629	219752	REC_WORD	14.629	n/a	CROWN	-999	1	[0, 0, 0]	n/a	FR1	1	R1396T
229.514	7.485	234381	REC_WORD	7.485	n/a	HORSE	-999	1	[0, 0, 0]	n/a	FR1	1	R1396T
236.999	1.582	241866	REC_END	n/a	n/a	n/a	-999	1	[0, 0, 0]	n/a	FR1	1	R1396T
238.581	10.351	243444	COUNTDOWN_START	n/a	n/a	n/a	-999	1	[0, 0, 0]	n/a	FR1	1	R1396T
248.932	0.0	253798	COUNTDOWN_END	n/a	n/a	n/a	-999	1	[0, 0, 0]	n/a	FR1	1	R1396T
248.932	2.332	253798	ENCODING_START	n/a	n/a	n/a	-999	2	[0, 0, 0]	n/a	FR1	1	R1396T
251.264	1.601	256131	WORD	n/a	wordpools/wordpool_long_EN.txt	HOUSE	1	2	[0, 0, 0]	n/a	FR1	1	R1396T
252.865	0.933	257724	WORD_OFF	n/a	n/a	HOUSE	1	2	[0, 0, 0]	n/a	FR1	1	R1396T
253.798	1.616	258660	WORD	n/a	wordpools/wordpool_long_EN.txt	BOX	2	2	[0, 0, 0]	n/a	FR1	1	R1396T
255.414	0.951	260281	WORD_OFF	n/a	n/a	BOX	2	2	[0, 0, 0]	n/a	FR1	1	R1396T
256.365	1.6	261231	WORD	n/a	wordpools/wordpool_long_EN.txt	STRING	3	2	[0, 0, 0]	n/a	FR1	1	R1396T
257.965	0.799	262823	WORD_OFF	n/a	n/a	STRING	3	2	[0, 0, 0]	n/a	FR1	1	R1396T
258.764	1.601	263634	WORD	n/a	wordpools/wordpool_long_EN.txt	TAIL	4	2	[0, 0, 0]	n/a	FR1	1	R1396T
260.365	0.966	265227	WORD_OFF	n/a	n/a	TAIL	4	2	[0, 0, 0]	n/a	FR1	1	R1396T
261.331	1.617	266191	WORD	n/a	wordpools/wordpool_long_EN.txt	MARSH	5	2	[0, 0, 0]	n/a	FR1	1	R1396T
262.948	0.883	267811	WORD_OFF	n/a	n/a	MARSH	5	2	[0, 0, 0]	n/a	FR1	1	R1396T
263.831	1.616	268692	WORD	n/a	wordpools/wordpool_long_EN.txt	TWIG	6	2	[0, 0, 0]	n/a	FR1	1	R1396T
265.447	0.834	270312	WORD_OFF	n/a	n/a	TWIG	6	2	[0, 0, 0]	n/a	FR1	1	R1396T
266.281	1.617	271151	WORD	n/a	wordpools/wordpool_long_EN.txt	STEAK	7	2	[0, 0, 0]	n/a	FR1	1	R1396T
267.898	0.867	272757	WORD_OFF	n/a	n/a	STEAK	7	2	[0, 0, 0]	n/a	FR1	1	R1396T
268.765	1.6	273624	WORD	n/a	wordpools/wordpool_long_EN.txt	GLOBE	8	2	[0, 0, 0]	n/a	FR1	1	R1396T
270.365	0.866	275230	WORD_OFF	n/a	n/a	GLOBE	8	2	[0, 0, 0]	n/a	FR1	1	R1396T
271.231	1.6	276097	WORD	n/a	wordpools/wordpool_long_EN.txt	SHEET	9	2	[0, 0, 0]	n/a	FR1	1	R1396T
272.831	0.849	277689	WORD_OFF	n/a	n/a	SHEET	9	2	[0, 0, 0]	n/a	FR1	1	R1396T
273.68	1.601	278542	WORD	n/a	wordpools/wordpool_long_EN.txt	CART	10	2	[0, 0, 0]	n/a	FR1	1	R1396T
275.281	0.984	280148	WORD_OFF	n/a	n/a	CART	10	2	[0, 0, 0]	n/a	FR1	1	R1396T
276.265	1.6	281126	WORD	n/a	wordpools/wordpool_long_EN.txt	WRIST	11	2	[0, 0, 0]	n/a	FR1	1	R1396T
277.865	0.966	282733	WORD_OFF	n/a	n/a	WRIST	11	2	[0, 0, 0]	n/a	FR1	1	R1396T
278.831	1.6	283697	WORD	n/a	wordpools/wordpool_long_EN.txt	MEAT	12	2	[0, 0, 0]	n/a	FR1	1	R1396T
280.431	0.001	285290	WORD_OFF	n/a	n/a	MEAT	12	2	[0, 0, 0]	n/a	FR1	1	R1396T
280.432	0.001	285296	PROB	0.001	n/a	n/a	-999	2	[4, 1, 3]	8	FR1	1	R1396T
280.433	0.0	285297	START	n/a	n/a	n/a	-999	2	[-999, -999, -999]	n/a	FR1	1	R1396T
280.433	0.0	285304	ENCODING_END	n/a	n/a	n/a	-999	2	[0, 0, 0]	n/a	FR1	1	R1396T
280.433	6.814	285304	DISTRACT_START	n/a	n/a	n/a	-999	2	[0, 0, 0]	n/a	FR1	1	R1396T
287.247	10.701	292111	PROB	10.701	n/a	n/a	-999	2	[4, 1, 7]	12	FR1	1	R1396T
297.948	3.999	302811	PROB	3.999	n/a	n/a	-999	2	[6, 3, 6]	15	FR1	1	R1396T
301.947	0.0	306807	DISTRACT_END	n/a	n/a	n/a	-999	2	[0, 0, 0]	n/a	FR1	1	R1396T
301.947	1.351	306810	STOP	n/a	n/a	n/a	-999	2	[-999, -999, -999]	n/a	FR1	1	R1396T
303.298	9.36	308162	REC_START	n/a	n/a	n/a	-999	2	[0, 0, 0]	n/a	FR1	1	R1396T
312.658	15.081	317520	REC_WORD	15.081	n/a	HOUSE	1	2	[0, 0, 0]	n/a	FR1	1	R1396T
327.739	6.795	332601	REC_WORD	6.795	n/a	ROBOT	-999	2	[0, 0, 0]	n/a	FR1	1	R1396T
334.534	1.447	339389	REC_END	n/a	n/a	n/a	-999	2	[0, 0, 0]	n/a	FR1	1	R1396T
335.981	10.351	340842	COUNTDOWN_START	n/a	n/a	n/a	-999	2	[0, 0, 0]	n/a	FR1	1	R1396T
346.332	0.0	351195	COUNTDOWN_END	n/a	n/a	n/a	-999	2	[0, 0, 0]	n/a	FR1	1	R1396T
346.332	20.85	351195	ENCODING_START	n/a	n/a	n/a	-999	3	[0, 0, 0]	n/a	FR1	1	R1396T
367.182	1.599	372041	WORD	n/a	wordpools/wordpool_long_EN.txt	YOLK	1	3	[0, 0, 0]	n/a	FR1	1	R1396T
368.781	0.933	373634	WORD_OFF	n/a	n/a	YOLK	1	3	[0, 0, 0]	n/a	FR1	1	R1396T
369.714	1.6	374570	WORD	n/a	wordpools/wordpool_long_EN.txt	FUR	2	3	[0, 0, 0]	n/a	FR1	1	R1396T
371.314	0.883	376177	WORD_OFF	n/a	n/a	FUR	2	3	[0, 0, 0]	n/a	FR1	1	R1396T
372.197	1.6	377057	WORD	n/a	wordpools/wordpool_long_EN.txt	HILL	3	3	[0, 0, 0]	n/a	FR1	1	R1396T
373.797	0.767	378650	WORD_OFF	n/a	n/a	HILL	3	3	[0, 0, 0]	n/a	FR1	1	R1396T
374.564	1.617	379418	WORD	n/a	wordpools/wordpool_long_EN.txt	QUAIL	4	3	[0, 0, 0]	n/a	FR1	1	R1396T
376.181	0.883	381039	WORD_OFF	n/a	n/a	QUAIL	4	3	[0, 0, 0]	n/a	FR1	1	R1396T
377.064	1.616	381919	WORD	n/a	wordpools/wordpool_long_EN.txt	LINT	5	3	[0, 0, 0]	n/a	FR1	1	R1396T
378.68	0.9	383540	WORD_OFF	n/a	n/a	LINT	5	3	[0, 0, 0]	n/a	FR1	1	R1396T
379.58	1.602	384434	WORD	n/a	wordpools/wordpool_long_EN.txt	SLUG	6	3	[0, 0, 0]	n/a	FR1	1	R1396T
381.182	0.765	386041	WORD_OFF	n/a	n/a	SLUG	6	3	[0, 0, 0]	n/a	FR1	1	R1396T
381.947	1.601	386809	WORD	n/a	wordpools/wordpool_long_EN.txt	NAIL	7	3	[0, 0, 0]	n/a	FR1	1	R1396T
383.548	0.8	388402	WORD_OFF	n/a	n/a	NAIL	7	3	[0, 0, 0]	n/a	FR1	1	R1396T
384.348	1.6	389212	WORD	n/a	wordpools/wordpool_long_EN.txt	PALM	8	3	[0, 0, 0]	n/a	FR1	1	R1396T
385.948	0.784	390805	WORD_OFF	n/a	n/a	PALM	8	3	[0, 0, 0]	n/a	FR1	1	R1396T
386.732	1.616	391588	WORD	n/a	wordpools/wordpool_long_EN.txt	HOOK	9	3	[0, 0, 0]	n/a	FR1	1	R1396T
388.348	0.884	393208	WORD_OFF	n/a	n/a	HOOK	9	3	[0, 0, 0]	n/a	FR1	1	R1396T
389.232	1.616	394089	WORD	n/a	wordpools/wordpool_long_EN.txt	STICK	10	3	[0, 0, 0]	n/a	FR1	1	R1396T
390.848	0.999	395709	WORD_OFF	n/a	n/a	STICK	10	3	[0, 0, 0]	n/a	FR1	1	R1396T
391.847	1.601	396701	WORD	n/a	wordpools/wordpool_long_EN.txt	SPARK	11	3	[0, 0, 0]	n/a	FR1	1	R1396T
393.448	0.783	398308	WORD_OFF	n/a	n/a	SPARK	11	3	[0, 0, 0]	n/a	FR1	1	R1396T
394.231	1.617	399091	WORD	n/a	wordpools/wordpool_long_EN.txt	GLASS	12	3	[0, 0, 0]	n/a	FR1	1	R1396T
395.848	0.001	400706	PROB	0.001	n/a	n/a	-999	3	[2, 2, 7]	11	FR1	1	R1396T
395.849	0.0	400707	START	n/a	n/a	n/a	-999	3	[-999, -999, -999]	n/a	FR1	1	R1396T
395.848	0.001	400711	WORD_OFF	n/a	n/a	GLASS	12	3	[0, 0, 0]	n/a	FR1	1	R1396T
395.849	0.0	400711	ENCODING_END	n/a	n/a	n/a	-999	3	[0, 0, 0]	n/a	FR1	1	R1396T
395.849	4.266	400711	DISTRACT_START	n/a	n/a	n/a	-999	3	[0, 0, 0]	n/a	FR1	1	R1396T
400.115	7.9	404973	PROB	7.9	n/a	n/a	-999	3	[6, 6, 5]	17	FR1	1	R1396T
408.015	9.366	412872	PROB	9.366	n/a	n/a	-999	3	[8, 7, 3]	18	FR1	1	R1396T
417.381	0.0	422238	STOP	n/a	n/a	n/a	-999	3	[-999, -999, -999]	n/a	FR1	1	R1396T
417.381	1.35	422242	DISTRACT_END	n/a	n/a	n/a	-999	3	[0, 0, 0]	n/a	FR1	1	R1396T
418.731	29.999	423583	REC_START	n/a	n/a	n/a	-999	3	[0, 0, 0]	n/a	FR1	1	R1396T
448.73	1.241	453585	REC_WORD_VV	1.241	n/a	<>	-999	3	[0, 0, 0]	n/a	FR1	1	R1396T
449.971	1.06	454824	REC_END	n/a	n/a	n/a	-999	3	[0, 0, 0]	n/a	FR1	1	R1396T
451.031	10.351	455886	COUNTDOWN_START	n/a	n/a	n/a	-999	3	[0, 0, 0]	n/a	FR1	1	R1396T
461.382	0.0	466239	COUNTDOWN_END	n/a	n/a	n/a	-999	3	[0, 0, 0]	n/a	FR1	1	R1396T
461.382	1.883	466239	ENCODING_START	n/a	n/a	n/a	-999	4	[0, 0, 0]	n/a	FR1	1	R1396T
463.265	1.616	468125	WORD	n/a	wordpools/wordpool_long_EN.txt	BAT	1	4	[0, 0, 0]	n/a	FR1	1	R1396T
464.881	0.95	469732	WORD_OFF	n/a	n/a	BAT	1	4	[0, 0, 0]	n/a	FR1	1	R1396T
465.831	1.6	470682	WORD	n/a	wordpools/wordpool_long_EN.txt	BEAK	2	4	[0, 0, 0]	n/a	FR1	1	R1396T
467.431	0.784	472289	WORD_OFF	n/a	n/a	BEAK	2	4	[0, 0, 0]	n/a	FR1	1	R1396T
468.215	1.615	473071	WORD	n/a	wordpools/wordpool_long_EN.txt	FLAG	3	4	[0, 0, 0]	n/a	FR1	1	R1396T
469.83	0.934	474678	WORD_OFF	n/a	n/a	FLAG	3	4	[0, 0, 0]	n/a	FR1	1	R1396T
470.764	1.6	475614	WORD	n/a	wordpools/wordpool_long_EN.txt	RAT	4	4	[0, 0, 0]	n/a	FR1	1	R1396T
472.364	0.95	477221	WORD_OFF	n/a	n/a	RAT	4	4	[0, 0, 0]	n/a	FR1	1	R1396T
473.314	1.616	478171	WORD	n/a	wordpools/wordpool_long_EN.txt	STOOL	5	4	[0, 0, 0]	n/a	FR1	1	R1396T
474.93	0.934	479778	WORD_OFF	n/a	n/a	STOOL	5	4	[0, 0, 0]	n/a	FR1	1	R1396T
475.864	1.6	480714	WORD	n/a	wordpools/wordpool_long_EN.txt	GRILL	6	4	[0, 0, 0]	n/a	FR1	1	R1396T
477.464	0.817	482321	WORD_OFF	n/a	n/a	GRILL	6	4	[0, 0, 0]	n/a	FR1	1	R1396T
478.281	1.6	483131	WORD	n/a	wordpools/wordpool_long_EN.txt	DOG	7	4	[0, 0, 0]	n/a	FR1	1	R1396T
479.881	0.85	484738	WORD_OFF	n/a	n/a	DOG	7	4	[0, 0, 0]	n/a	FR1	1	R1396T
480.731	1.6	485590	WORD	n/a	wordpools/wordpool_long_EN.txt	SUN	8	4	[0, 0, 0]	n/a	FR1	1	R1396T
482.331	0.767	487183	WORD_OFF	n/a	n/a	SUN	8	4	[0, 0, 0]	n/a	FR1	1	R1396T
483.098	1.6	487951	WORD	n/a	wordpools/wordpool_long_EN.txt	SPONGE	9	4	[0, 0, 0]	n/a	FR1	1	R1396T
484.698	0.917	489558	WORD_OFF	n/a	n/a	SPONGE	9	4	[0, 0, 0]	n/a	FR1	1	R1396T
485.615	1.616	490466	WORD	n/a	wordpools/wordpool_long_EN.txt	TART	10	4	[0, 0, 0]	n/a	FR1	1	R1396T
487.231	0.884	492087	WORD_OFF	n/a	n/a	TART	10	4	[0, 0, 0]	n/a	FR1	1	R1396T
488.115	1.6	492967	WORD	n/a	wordpools/wordpool_long_EN.txt	EEL	11	4	[0, 0, 0]	n/a	FR1	1	R1396T
489.715	0.833	494574	WORD_OFF	n/a	n/a	EEL	11	4	[0, 0, 0]	n/a	FR1	1	R1396T
490.548	1.617	495398	WORD	n/a	wordpools/wordpool_long_EN.txt	ROAD	12	4	[0, 0, 0]	n/a	FR1	1	R1396T
492.165	0.0	497018	PROB	0.0	n/a	n/a	-999	4	[1, 6, 7]	15	FR1	1	R1396T
492.165	0.001	497019	WORD_OFF	n/a	n/a	ROAD	12	4	[0, 0, 0]	n/a	FR1	1	R1396T
492.166	0.0	497019	ENCODING_END	n/a	n/a	n/a	-999	4	[0, 0, 0]	n/a	FR1	1	R1396T
492.166	0.0	497019	DISTRACT_START	n/a	n/a	n/a	-999	4	[0, 0, 0]	n/a	FR1	1	R1396T
492.166	11.449	497019	START	n/a	n/a	n/a	-999	4	[-999, -999, -999]	n/a	FR1	1	R1396T
503.615	11.166	508468	PROB	11.166	n/a	n/a	-999	4	[8, 5, 6]	19	FR1	1	R1396T
514.781	0.0	519633	STOP	n/a	n/a	n/a	-999	4	[-999, -999, -999]	n/a	FR1	1	R1396T
514.781	1.15	519639	DISTRACT_END	n/a	n/a	n/a	-999	4	[0, 0, 0]	n/a	FR1	1	R1396T
515.931	29.999	520785	REC_START	n/a	n/a	n/a	-999	4	[0, 0, 0]	n/a	FR1	1	R1396T
545.93	1.219	550780	REC_WORD_VV	1.219	n/a	<>	-999	4	[0, 0, 0]	n/a	FR1	1	R1396T
547.149	0.949	551998	REC_END	n/a	n/a	n/a	-999	4	[0, 0, 0]	n/a	FR1	1	R1396T
548.098	10.35	552948	COUNTDOWN_START	n/a	n/a	n/a	-999	4	[0, 0, 0]	n/a	FR1	1	R1396T
558.448	0.001	563301	COUNTDOWN_END	n/a	n/a	n/a	-999	4	[0, 0, 0]	n/a	FR1	1	R1396T
558.449	1.998	563301	ENCODING_START	n/a	n/a	n/a	-999	5	[0, 0, 0]	n/a	FR1	1	R1396T
560.447	1.6	565299	WORD	n/a	wordpools/wordpool_long_EN.txt	GEESE	1	5	[0, 0, 0]	n/a	FR1	1	R1396T
562.047	0.833	566892	WORD_OFF	n/a	n/a	GEESE	1	5	[0, 0, 0]	n/a	FR1	1	R1396T
562.88	1.6	567730	WORD	n/a	wordpools/wordpool_long_EN.txt	SCARF	2	5	[0, 0, 0]	n/a	FR1	1	R1396T
564.48	0.984	569337	WORD_OFF	n/a	n/a	SCARF	2	5	[0, 0, 0]	n/a	FR1	1	R1396T
565.464	1.6	570315	WORD	n/a	wordpools/wordpool_long_EN.txt	SPRING	3	5	[0, 0, 0]	n/a	FR1	1	R1396T
567.064	0.917	571908	WORD_OFF	n/a	n/a	SPRING	3	5	[0, 0, 0]	n/a	FR1	1	R1396T
567.981	1.601	572830	WORD	n/a	wordpools/wordpool_long_EN.txt	BOARD	4	5	[0, 0, 0]	n/a	FR1	1	R1396T
569.582	0.949	574437	WORD_OFF	n/a	n/a	BOARD	4	5	[0, 0, 0]	n/a	FR1	1	R1396T
570.531	1.6	575387	WORD	n/a	wordpools/wordpool_long_EN.txt	SPOOL	5	5	[0, 0, 0]	n/a	FR1	1	R1396T
572.131	0.834	576980	WORD_OFF	n/a	n/a	SPOOL	5	5	[0, 0, 0]	n/a	FR1	1	R1396T
572.965	1.6	577818	WORD	n/a	wordpools/wordpool_long_EN.txt	LUNCH	6	5	[0, 0, 0]	n/a	FR1	1	R1396T
574.565	0.833	579411	WORD_OFF	n/a	n/a	LUNCH	6	5	[0, 0, 0]	n/a	FR1	1	R1396T
575.398	1.617	580249	WORD	n/a	wordpools/wordpool_long_EN.txt	CHIEF	7	5	[0, 0, 0]	n/a	FR1	1	R1396T
577.015	0.999	581870	WORD_OFF	n/a	n/a	CHIEF	7	5	[0, 0, 0]	n/a	FR1	1	R1396T
578.014	1.617	582862	WORD	n/a	wordpools/wordpool_long_EN.txt	BOOT	8	5	[0, 0, 0]	n/a	FR1	1	R1396T
579.631	0.934	584483	WORD_OFF	n/a	n/a	BOOT	8	5	[0, 0, 0]	n/a	FR1	1	R1396T
580.565	1.6	585419	WORD	n/a	wordpools/wordpool_long_EN.txt	RAKE	9	5	[0, 0, 0]	n/a	FR1	1	R1396T
582.165	0.999	587012	WORD_OFF	n/a	n/a	RAKE	9	5	[0, 0, 0]	n/a	FR1	1	R1396T
583.164	1.601	588017	WORD	n/a	wordpools/wordpool_long_EN.txt	SEAT	10	5	[0, 0, 0]	n/a	FR1	1	R1396T
584.765	0.95	589610	WORD_OFF	n/a	n/a	SEAT	10	5	[0, 0, 0]	n/a	FR1	1	R1396T
585.715	1.6	590560	WORD	n/a	wordpools/wordpool_long_EN.txt	SPEAR	11	5	[0, 0, 0]	n/a	FR1	1	R1396T
587.315	0.933	592167	WORD_OFF	n/a	n/a	SPEAR	11	5	[0, 0, 0]	n/a	FR1	1	R1396T
588.248	1.6	593103	WORD	n/a	wordpools/wordpool_long_EN.txt	FOX	12	5	[0, 0, 0]	n/a	FR1	1	R1396T
589.848	0.001	594696	WORD_OFF	n/a	n/a	FOX	12	5	[0, 0, 0]	n/a	FR1	1	R1396T
589.849	0.0	594696	ENCODING_END	n/a	n/a	n/a	-999	5	[0, 0, 0]	n/a	FR1	1	R1396T
589.849	0.0	594696	DISTRACT_START	n/a	n/a	n/a	-999	5	[0, 0, 0]	n/a	FR1	1	R1396T
589.848	0.001	594696	PROB	0.001	n/a	n/a	-999	5	[3, 4, 5]	12	FR1	1	R1396T
589.849	6.5	594697	START	n/a	n/a	n/a	-999	5	[-999, -999, -999]	n/a	FR1	1	R1396T
596.349	7.231	601197	PROB	7.231	n/a	n/a	-999	5	[1, 7, 6]	14	FR1	1	R1396T
603.58	3.868	608427	PROB	3.868	n/a	n/a	-999	5	[6, 6, 1]	13	FR1	1	R1396T
607.448	5.0	612295	PROB	5.0	n/a	n/a	-999	5	[2, 2, 7]	11	FR1	1	R1396T
612.448	0.0	617295	STOP	n/a	n/a	n/a	-999	5	[-999, -999, -999]	n/a	FR1	1	R1396T
612.448	1.349	617302	DISTRACT_END	n/a	n/a	n/a	-999	5	[0, 0, 0]	n/a	FR1	1	R1396T
613.797	6.115	618644	REC_START	n/a	n/a	n/a	-999	5	[0, 0, 0]	n/a	FR1	1	R1396T
619.912	1.078	624759	REC_WORD	1.078	n/a	CHIEF	7	5	[0, 0, 0]	n/a	FR1	1	R1396T
620.99	17.444	625837	REC_WORD	17.444	n/a	GEESE	1	5	[0, 0, 0]	n/a	FR1	1	R1396T
638.434	6.586	643280	REC_WORD	6.586	n/a	DOG	-999	5	[0, 0, 0]	n/a	FR1	1	R1396T
645.02	1.678	649871	REC_END	n/a	n/a	n/a	-999	5	[0, 0, 0]	n/a	FR1	1	R1396T
646.698	10.35	651547	COUNTDOWN_START	n/a	n/a	n/a	-999	5	[0, 0, 0]	n/a	FR1	1	R1396T
657.048	0.0	661886	COUNTDOWN_END	n/a	n/a	n/a	-999	5	[0, 0, 0]	n/a	FR1	1	R1396T
657.048	2.383	661900	ENCODING_START	n/a	n/a	n/a	-999	6	[0, 0, 0]	n/a	FR1	1	R1396T
659.431	1.6	664276	WORD	n/a	wordpools/wordpool_long_EN.txt	MAIL	1	6	[0, 0, 0]	n/a	FR1	1	R1396T
661.031	0.9	665882	WORD_OFF	n/a	n/a	MAIL	1	6	[0, 0, 0]	n/a	FR1	1	R1396T
661.931	1.6	666777	WORD	n/a	wordpools/wordpool_long_EN.txt	POLE	2	6	[0, 0, 0]	n/a	FR1	1	R1396T
663.531	0.984	668383	WORD_OFF	n/a	n/a	POLE	2	6	[0, 0, 0]	n/a	FR1	1	R1396T
664.515	1.616	669361	WORD	n/a	wordpools/wordpool_long_EN.txt	NEST	3	6	[0, 0, 0]	n/a	FR1	1	R1396T
666.131	0.917	670982	WORD_OFF	n/a	n/a	NEST	3	6	[0, 0, 0]	n/a	FR1	1	R1396T
667.048	1.6	671890	WORD	n/a	wordpools/wordpool_long_EN.txt	GLOVE	4	6	[0, 0, 0]	n/a	FR1	1	R1396T
668.648	0.899	673497	WORD_OFF	n/a	n/a	GLOVE	4	6	[0, 0, 0]	n/a	FR1	1	R1396T
669.547	1.601	674391	WORD	n/a	wordpools/wordpool_long_EN.txt	CLOCK	5	6	[0, 0, 0]	n/a	FR1	1	R1396T
671.148	0.783	675998	WORD_OFF	n/a	n/a	CLOCK	5	6	[0, 0, 0]	n/a	FR1	1	R1396T
671.931	1.617	676780	WORD	n/a	wordpools/wordpool_long_EN.txt	SWORD	6	6	[0, 0, 0]	n/a	FR1	1	R1396T
673.548	0.933	678387	WORD_OFF	n/a	n/a	SWORD	6	6	[0, 0, 0]	n/a	FR1	1	R1396T
674.481	1.617	679323	WORD	n/a	wordpools/wordpool_long_EN.txt	PEA	7	6	[0, 0, 0]	n/a	FR1	1	R1396T
676.098	0.783	680944	WORD_OFF	n/a	n/a	PEA	7	6	[0, 0, 0]	n/a	FR1	1	R1396T
676.881	1.6	681726	WORD	n/a	wordpools/wordpool_long_EN.txt	LEAF	8	6	[0, 0, 0]	n/a	FR1	1	R1396T
678.481	0.967	683319	WORD_OFF	n/a	n/a	LEAF	8	6	[0, 0, 0]	n/a	FR1	1	R1396T
679.448	1.6	684297	WORD	n/a	wordpools/wordpool_long_EN.txt	PAIL	9	6	[0, 0, 0]	n/a	FR1	1	R1396T
681.048	0.816	685890	WORD_OFF	n/a	n/a	PAIL	9	6	[0, 0, 0]	n/a	FR1	1	R1396T
681.864	1.601	686714	WORD	n/a	wordpools/wordpool_long_EN.txt	CHILD	10	6	[0, 0, 0]	n/a	FR1	1	R1396T
683.465	0.983	688307	WORD_OFF	n/a	n/a	CHILD	10	6	[0, 0, 0]	n/a	FR1	1	R1396T
684.448	1.6	689285	WORD	n/a	wordpools/wordpool_long_EN.txt	CHEEK	11	6	[0, 0, 0]	n/a	FR1	1	R1396T
686.048	0.917	690892	WORD_OFF	n/a	n/a	CHEEK	11	6	[0, 0, 0]	n/a	FR1	1	R1396T
686.965	1.616	691814	WORD	n/a	wordpools/wordpool_long_EN.txt	ZOO	12	6	[0, 0, 0]	n/a	FR1	1	R1396T
688.581	0.002	693421	WORD_OFF	n/a	n/a	ZOO	12	6	[0, 0, 0]	n/a	FR1	1	R1396T
688.583	0.0	693421	ENCODING_END	n/a	n/a	n/a	-999	6	[0, 0, 0]	n/a	FR1	1	R1396T
688.582	0.001	693425	PROB	0.001	n/a	n/a	-999	6	[3, 7, 8]	17	FR1	1	R1396T
688.583	0.0	693426	START	n/a	n/a	n/a	-999	6	[-999, -999, -999]	n/a	FR1	1	R1396T
688.583	14.915	693435	DISTRACT_START	n/a	n/a	n/a	-999	6	[0, 0, 0]	n/a	FR1	1	R1396T
703.498	5.601	708340	PROB	5.601	n/a	n/a	-999	6	[8, 3, 4]	15	FR1	1	R1396T
709.099	0.0	713941	STOP	n/a	n/a	n/a	-999	6	[-999, -999, -999]	n/a	FR1	1	R1396T
709.099	1.166	713945	DISTRACT_END	n/a	n/a	n/a	-999	6	[0, 0, 0]	n/a	FR1	1	R1396T
710.265	5.085	715105	REC_START	n/a	n/a	n/a	-999	6	[0, 0, 0]	n/a	FR1	1	R1396T
715.35	1.765	720192	REC_WORD	1.765	n/a	ZOO	12	6	[0, 0, 0]	n/a	FR1	1	R1396T
717.115	3.776	721957	REC_WORD	3.776	n/a	MAIL	1	6	[0, 0, 0]	n/a	FR1	1	R1396T
720.891	20.609	725732	REC_WORD	20.609	n/a	HOLE	-999	6	[0, 0, 0]	n/a	FR1	1	R1396T
741.5	1.698	746346	REC_END	n/a	n/a	n/a	-999	6	[0, 0, 0]	n/a	FR1	1	R1396T
743.198	10.35	748037	COUNTDOWN_START	n/a	n/a	n/a	-999	6	[0, 0, 0]	n/a	FR1	1	R1396T
753.548	0.0	758390	COUNTDOWN_END	n/a	n/a	n/a	-999	6	[0, 0, 0]	n/a	FR1	1	R1396T
753.548	4.067	758390	ENCODING_START	n/a	n/a	n/a	-999	7	[0, 0, 0]	n/a	FR1	1	R1396T
757.615	1.616	762456	WORD	n/a	wordpools/wordpool_long_EN.txt	LAMP	1	7	[0, 0, 0]	n/a	FR1	1	R1396T
759.231	0.983	764076	WORD_OFF	n/a	n/a	LAMP	1	7	[0, 0, 0]	n/a	FR1	1	R1396T
760.214	1.601	765054	WORD	n/a	wordpools/wordpool_long_EN.txt	TOWN	2	7	[0, 0, 0]	n/a	FR1	1	R1396T
761.815	0.983	766661	WORD_OFF	n/a	n/a	TOWN	2	7	[0, 0, 0]	n/a	FR1	1	R1396T
762.798	1.617	767639	WORD	n/a	wordpools/wordpool_long_EN.txt	STONE	3	7	[0, 0, 0]	n/a	FR1	1	R1396T
764.415	0.85	769260	WORD_OFF	n/a	n/a	STONE	3	7	[0, 0, 0]	n/a	FR1	1	R1396T
765.265	1.616	770098	WORD	n/a	wordpools/wordpool_long_EN.txt	JUDGE	4	7	[0, 0, 0]	n/a	FR1	1	R1396T
766.881	0.9	771719	WORD_OFF	n/a	n/a	JUDGE	4	7	[0, 0, 0]	n/a	FR1	1	R1396T
767.781	1.617	772627	WORD	n/a	wordpools/wordpool_long_EN.txt	SNAKE	5	7	[0, 0, 0]	n/a	FR1	1	R1396T
769.398	0.933	774234	WORD_OFF	n/a	n/a	SNAKE	5	7	[0, 0, 0]	n/a	FR1	1	R1396T
770.331	1.6	775170	WORD	n/a	wordpools/wordpool_long_EN.txt	RAFT	6	7	[0, 0, 0]	n/a	FR1	1	R1396T
771.931	0.933	776777	WORD_OFF	n/a	n/a	RAFT	6	7	[0, 0, 0]	n/a	FR1	1	R1396T
772.864	1.6	777699	WORD	n/a	wordpools/wordpool_long_EN.txt	GRASS	7	7	[0, 0, 0]	n/a	FR1	1	R1396T
774.464	0.884	779306	WORD_OFF	n/a	n/a	GRASS	7	7	[0, 0, 0]	n/a	FR1	1	R1396T
775.348	1.6	780186	WORD	n/a	wordpools/wordpool_long_EN.txt	BANK	8	7	[0, 0, 0]	n/a	FR1	1	R1396T
776.948	0.917	781793	WORD_OFF	n/a	n/a	BANK	8	7	[0, 0, 0]	n/a	FR1	1	R1396T
777.865	1.6	782701	WORD	n/a	wordpools/wordpool_long_EN.txt	GIRL	9	7	[0, 0, 0]	n/a	FR1	1	R1396T
779.465	0.783	784308	WORD_OFF	n/a	n/a	GIRL	9	7	[0, 0, 0]	n/a	FR1	1	R1396T
780.248	1.6	785090	WORD	n/a	wordpools/wordpool_long_EN.txt	ROOT	10	7	[0, 0, 0]	n/a	FR1	1	R1396T
781.848	0.766	786683	WORD_OFF	n/a	n/a	ROOT	10	7	[0, 0, 0]	n/a	FR1	1	R1396T
782.614	1.601	787451	WORD	n/a	wordpools/wordpool_long_EN.txt	THREAD	11	7	[0, 0, 0]	n/a	FR1	1	R1396T
784.215	0.966	789058	WORD_OFF	n/a	n/a	THREAD	11	7	[0, 0, 0]	n/a	FR1	1	R1396T
785.181	1.6	790022	WORD	n/a	wordpools/wordpool_long_EN.txt	MOP	12	7	[0, 0, 0]	n/a	FR1	1	R1396T
786.781	0.002	791615	WORD_OFF	n/a	n/a	MOP	12	7	[0, 0, 0]	n/a	FR1	1	R1396T
786.783	0.0	791615	ENCODING_END	n/a	n/a	n/a	-999	7	[0, 0, 0]	n/a	FR1	1	R1396T
786.782	0.001	791620	PROB	0.001	n/a	n/a	-999	7	[3, 1, 5]	9	FR1	1	R1396T
786.783	0.0	791621	START	n/a	n/a	n/a	-999	7	[-999, -999, -999]	n/a	FR1	1	R1396T
786.783	4.448	791629	DISTRACT_START	n/a	n/a	n/a	-999	7	[0, 0, 0]	n/a	FR1	1	R1396T
791.231	3.234	796069	PROB	3.234	n/a	n/a	-999	7	[5, 1, 2]	8	FR1	1	R1396T
794.465	6.333	799303	PROB	6.333	n/a	n/a	-999	7	[4, 2, 7]	13	FR1	1	R1396T
800.798	3.017	805635	PROB	3.017	n/a	n/a	-999	7	[1, 1, 4]	6	FR1	1	R1396T
803.815	5.333	808652	PROB	5.333	n/a	n/a	-999	7	[4, 6, 4]	14	FR1	1	R1396T
809.148	0.0	813984	DISTRACT_END	n/a	n/a	n/a	-999	7	[0, 0, 0]	n/a	FR1	1	R1396T
809.148	1.366	813985	STOP	n/a	n/a	n/a	-999	7	[-999, -999, -999]	n/a	FR1	1	R1396T
810.514	29.999	815353	REC_START	n/a	n/a	n/a	-999	7	[0, 0, 0]	n/a	FR1	1	R1396T
840.513	1.222	845348	REC_WORD_VV	1.222	n/a	<>	-999	7	[0, 0, 0]	n/a	FR1	1	R1396T
841.735	2.396	846566	REC_END	n/a	n/a	n/a	-999	7	[0, 0, 0]	n/a	FR1	1	R1396T
844.131	10.351	848969	COUNTDOWN_START	n/a	n/a	n/a	-999	7	[0, 0, 0]	n/a	FR1	1	R1396T
854.482	0.0	859322	COUNTDOWN_END	n/a	n/a	n/a	-999	7	[0, 0, 0]	n/a	FR1	1	R1396T
854.482	2.066	859322	ENCODING_START	n/a	n/a	n/a	-999	8	[0, 0, 0]	n/a	FR1	1	R1396T
856.548	1.6	861376	WORD	n/a	wordpools/wordpool_long_EN.txt	RUST	1	8	[0, 0, 0]	n/a	FR1	1	R1396T
858.148	0.983	862983	WORD_OFF	n/a	n/a	RUST	1	8	[0, 0, 0]	n/a	FR1	1	R1396T
859.131	1.6	863961	WORD	n/a	wordpools/wordpool_long_EN.txt	BROOK	2	8	[0, 0, 0]	n/a	FR1	1	R1396T
860.731	1.0	865568	WORD_OFF	n/a	n/a	BROOK	2	8	[0, 0, 0]	n/a	FR1	1	R1396T
861.731	1.6	866560	WORD	n/a	wordpools/wordpool_long_EN.txt	FOOD	3	8	[0, 0, 0]	n/a	FR1	1	R1396T
863.331	0.833	868166	WORD_OFF	n/a	n/a	FOOD	3	8	[0, 0, 0]	n/a	FR1	1	R1396T
864.164	1.601	869005	WORD	n/a	wordpools/wordpool_long_EN.txt	SEAL	4	8	[0, 0, 0]	n/a	FR1	1	R1396T
865.765	0.982	870597	WORD_OFF	n/a	n/a	SEAL	4	8	[0, 0, 0]	n/a	FR1	1	R1396T
866.747	1.601	871576	WORD	n/a	wordpools/wordpool_long_EN.txt	SHIELD	5	8	[0, 0, 0]	n/a	FR1	1	R1396T
868.348	0.9	873182	WORD_OFF	n/a	n/a	SHIELD	5	8	[0, 0, 0]	n/a	FR1	1	R1396T
869.248	1.616	874076	WORD	n/a	wordpools/wordpool_long_EN.txt	DITCH	6	8	[0, 0, 0]	n/a	FR1	1	R1396T
870.864	0.951	875697	WORD_OFF	n/a	n/a	DITCH	6	8	[0, 0, 0]	n/a	FR1	1	R1396T
871.815	1.6	876647	WORD	n/a	wordpools/wordpool_long_EN.txt	WASP	7	8	[0, 0, 0]	n/a	FR1	1	R1396T
873.415	0.85	878254	WORD_OFF	n/a	n/a	WASP	7	8	[0, 0, 0]	n/a	FR1	1	R1396T
874.265	1.616	879092	WORD	n/a	wordpools/wordpool_long_EN.txt	FRAME	8	8	[0, 0, 0]	n/a	FR1	1	R1396T
875.881	1.0	880713	WORD_OFF	n/a	n/a	FRAME	8	8	[0, 0, 0]	n/a	FR1	1	R1396T
876.881	1.618	881719	WORD	n/a	wordpools/wordpool_long_EN.txt	BEAN	9	8	[0, 0, 0]	n/a	FR1	1	R1396T
878.499	0.799	883326	WORD_OFF	n/a	n/a	BEAN	9	8	[0, 0, 0]	n/a	FR1	1	R1396T
879.298	1.6	884136	WORD	n/a	wordpools/wordpool_long_EN.txt	SKUNK	10	8	[0, 0, 0]	n/a	FR1	1	R1396T
880.898	0.767	885729	WORD_OFF	n/a	n/a	SKUNK	10	8	[0, 0, 0]	n/a	FR1	1	R1396T
881.665	1.616	886497	WORD	n/a	wordpools/wordpool_long_EN.txt	FORT	11	8	[0, 0, 0]	n/a	FR1	1	R1396T
883.281	0.934	888118	WORD_OFF	n/a	n/a	FORT	11	8	[0, 0, 0]	n/a	FR1	1	R1396T
884.215	1.6	889054	WORD	n/a	wordpools/wordpool_long_EN.txt	SKY	12	8	[0, 0, 0]	n/a	FR1	1	R1396T
885.815	0.001	890647	WORD_OFF	n/a	n/a	SKY	12	8	[0, 0, 0]	n/a	FR1	1	R1396T
885.816	0.0	890647	ENCODING_END	n/a	n/a	n/a	-999	8	[0, 0, 0]	n/a	FR1	1	R1396T
885.816	0.0	890647	DISTRACT_START	n/a	n/a	n/a	-999	8	[0, 0, 0]	n/a	FR1	1	R1396T
885.816	0.0	890649	PROB	0.0	n/a	n/a	-999	8	[6, 6, 6]	18	FR1	1	R1396T
885.816	5.215	890649	START	n/a	n/a	n/a	-999	8	[-999, -999, -999]	n/a	FR1	1	R1396T
891.031	3.517	895864	PROB	3.517	n/a	n/a	-999	8	[8, 2, 2]	12	FR1	1	R1396T
894.548	4.483	899380	PROB	4.483	n/a	n/a	-999	8	[3, 3, 8]	14	FR1	1	R1396T
899.031	7.15	903863	PROB	7.15	n/a	n/a	-999	8	[2, 3, 3]	8	FR1	1	R1396T
906.181	0.0	911013	STOP	n/a	n/a	n/a	-999	8	[-999, -999, -999]	n/a	FR1	1	R1396T
906.181	1.233	911018	DISTRACT_END	n/a	n/a	n/a	-999	8	[0, 0, 0]	n/a	FR1	1	R1396T
907.414	1.722	912247	REC_START	n/a	n/a	n/a	-999	8	[0, 0, 0]	n/a	FR1	1	R1396T
909.136	8.656	913968	REC_WORD	8.656	n/a	SHIELD	5	8	[0, 0, 0]	n/a	FR1	1	R1396T
917.792	20.844	922623	REC_WORD	20.844	n/a	DUST	-999	8	[0, 0, 0]	n/a	FR1	1	R1396T
938.636	1.662	943461	REC_END	n/a	n/a	n/a	-999	8	[0, 0, 0]	n/a	FR1	1	R1396T
940.298	10.351	945123	COUNTDOWN_START	n/a	n/a	n/a	-999	8	[0, 0, 0]	n/a	FR1	1	R1396T
950.649	0.0	955476	COUNTDOWN_END	n/a	n/a	n/a	-999	8	[0, 0, 0]	n/a	FR1	1	R1396T
950.649	9.166	955476	ENCODING_START	n/a	n/a	n/a	-999	9	[0, 0, 0]	n/a	FR1	1	R1396T
959.815	1.616	964642	WORD	n/a	wordpools/wordpool_long_EN.txt	CHALK	1	9	[0, 0, 0]	n/a	FR1	1	R1396T
961.431	0.884	966262	WORD_OFF	n/a	n/a	CHALK	1	9	[0, 0, 0]	n/a	FR1	1	R1396T
962.315	1.6	967143	WORD	n/a	wordpools/wordpool_long_EN.txt	TANK	2	9	[0, 0, 0]	n/a	FR1	1	R1396T
963.915	0.95	968749	WORD_OFF	n/a	n/a	TANK	2	9	[0, 0, 0]	n/a	FR1	1	R1396T
964.865	1.616	969700	WORD	n/a	wordpools/wordpool_long_EN.txt	KITE	3	9	[0, 0, 0]	n/a	FR1	1	R1396T
966.481	0.767	971306	WORD_OFF	n/a	n/a	KITE	3	9	[0, 0, 0]	n/a	FR1	1	R1396T
967.248	1.616	972075	WORD	n/a	wordpools/wordpool_long_EN.txt	MOOSE	4	9	[0, 0, 0]	n/a	FR1	1	R1396T
968.864	0.884	973696	WORD_OFF	n/a	n/a	MOOSE	4	9	[0, 0, 0]	n/a	FR1	1	R1396T
969.748	1.617	974576	WORD	n/a	wordpools/wordpool_long_EN.txt	TOAD	5	9	[0, 0, 0]	n/a	FR1	1	R1396T
971.365	0.865	976196	WORD_OFF	n/a	n/a	TOAD	5	9	[0, 0, 0]	n/a	FR1	1	R1396T
972.23	1.601	977063	WORD	n/a	wordpools/wordpool_long_EN.txt	PIT	6	9	[0, 0, 0]	n/a	FR1	1	R1396T
973.831	0.867	978656	WORD_OFF	n/a	n/a	PIT	6	9	[0, 0, 0]	n/a	FR1	1	R1396T
974.698	1.6	979522	WORD	n/a	wordpools/wordpool_long_EN.txt	RIB	7	9	[0, 0, 0]	n/a	FR1	1	R1396T
976.298	0.933	981129	WORD_OFF	n/a	n/a	RIB	7	9	[0, 0, 0]	n/a	FR1	1	R1396T
977.231	1.6	982065	WORD	n/a	wordpools/wordpool_long_EN.txt	BLUSH	8	9	[0, 0, 0]	n/a	FR1	1	R1396T
978.831	0.783	983657	WORD_OFF	n/a	n/a	BLUSH	8	9	[0, 0, 0]	n/a	FR1	1	R1396T
979.614	1.601	984440	WORD	n/a	wordpools/wordpool_long_EN.txt	BOY	9	9	[0, 0, 0]	n/a	FR1	1	R1396T
981.215	0.815	986047	WORD_OFF	n/a	n/a	BOY	9	9	[0, 0, 0]	n/a	FR1	1	R1396T
982.03	1.601	986857	WORD	n/a	wordpools/wordpool_long_EN.txt	YARN	10	9	[0, 0, 0]	n/a	FR1	1	R1396T
983.631	0.899	988464	WORD_OFF	n/a	n/a	YARN	10	9	[0, 0, 0]	n/a	FR1	1	R1396T
984.53	1.601	989358	WORD	n/a	wordpools/wordpool_long_EN.txt	INK	11	9	[0, 0, 0]	n/a	FR1	1	R1396T
986.131	0.883	990965	WORD_OFF	n/a	n/a	INK	11	9	[0, 0, 0]	n/a	FR1	1	R1396T
987.014	1.6	991845	WORD	n/a	wordpools/wordpool_long_EN.txt	DRINK	12	9	[0, 0, 0]	n/a	FR1	1	R1396T
988.614	0.002	993438	WORD_OFF	n/a	n/a	DRINK	12	9	[0, 0, 0]	n/a	FR1	1	R1396T
988.616	0.0	993438	ENCODING_END	n/a	n/a	n/a	-999	9	[0, 0, 0]	n/a	FR1	1	R1396T
988.615	0.001	993443	PROB	0.001	n/a	n/a	-999	9	[1, 7, 5]	13	FR1	1	R1396T
988.616	0.0	993444	START	n/a	n/a	n/a	-999	9	[-999, -999, -999]	n/a	FR1	1	R1396T
988.616	7.515	993452	DISTRACT_START	n/a	n/a	n/a	-999	9	[0, 0, 0]	n/a	FR1	1	R1396T
996.131	10.283	1000958	PROB	10.283	n/a	n/a	-999	9	[6, 6, 8]	21	FR1	1	R1396T
1006.414	4.033	1011241	PROB	4.033	n/a	n/a	-999	9	[2, 5, 3]	10	FR1	1	R1396T
1010.447	0.0	1015273	STOP	n/a	n/a	n/a	-999	9	[-999, -999, -999]	n/a	FR1	1	R1396T
1010.447	1.333	1015276	DISTRACT_END	n/a	n/a	n/a	-999	9	[0, 0, 0]	n/a	FR1	1	R1396T
1011.78	4.83	1016603	REC_START	n/a	n/a	n/a	-999	9	[0, 0, 0]	n/a	FR1	1	R1396T
1016.61	2.777	1021436	REC_WORD	2.777	n/a	INK	11	9	[0, 0, 0]	n/a	FR1	1	R1396T
1019.387	10.547	1024213	REC_WORD	10.547	n/a	SCHOOL	-999	9	[0, 0, 0]	n/a	FR1	1	R1396T
1029.934	11.431	1034759	REC_WORD	11.431	n/a	TAB	-999	9	[0, 0, 0]	n/a	FR1	1	R1396T
1041.365	1.619	1046190	REC_WORD	1.619	n/a	SCRUB	-999	9	[0, 0, 0]	n/a	FR1	1	R1396T
1042.984	2.647	1047802	REC_END	n/a	n/a	n/a	-999	9	[0, 0, 0]	n/a	FR1	1	R1396T
1045.631	10.351	1050457	COUNTDOWN_START	n/a	n/a	n/a	-999	9	[0, 0, 0]	n/a	FR1	1	R1396T
1055.982	0.0	1060810	COUNTDOWN_END	n/a	n/a	n/a	-999	9	[0, 0, 0]	n/a	FR1	1	R1396T
1055.982	1.816	1060810	ENCODING_START	n/a	n/a	n/a	-999	10	[0, 0, 0]	n/a	FR1	1	R1396T
1057.798	1.617	1062626	WORD	n/a	wordpools/wordpool_long_EN.txt	PLAID	1	10	[0, 0, 0]	n/a	FR1	1	R1396T
1059.415	0.801	1064233	WORD_OFF	n/a	n/a	PLAID	1	10	[0, 0, 0]	n/a	FR1	1	R1396T
1060.216	1.599	1065043	WORD	n/a	wordpools/wordpool_long_EN.txt	CLAY	2	10	[0, 0, 0]	n/a	FR1	1	R1396T
1061.815	0.8	1066636	WORD_OFF	n/a	n/a	CLAY	2	10	[0, 0, 0]	n/a	FR1	1	R1396T
1062.615	1.616	1067432	WORD	n/a	wordpools/wordpool_long_EN.txt	GREASE	3	10	[0, 0, 0]	n/a	FR1	1	R1396T
1064.231	0.85	1069053	WORD_OFF	n/a	n/a	GREASE	3	10	[0, 0, 0]	n/a	FR1	1	R1396T
1065.081	1.617	1069905	WORD	n/a	wordpools/wordpool_long_EN.txt	CHEST	4	10	[0, 0, 0]	n/a	FR1	1	R1396T
1066.698	0.966	1071526	WORD_OFF	n/a	n/a	CHEST	4	10	[0, 0, 0]	n/a	FR1	1	R1396T
1067.664	1.601	1072490	WORD	n/a	wordpools/wordpool_long_EN.txt	OWL	5	10	[0, 0, 0]	n/a	FR1	1	R1396T
1069.265	0.816	1074083	WORD_OFF	n/a	n/a	OWL	5	10	[0, 0, 0]	n/a	FR1	1	R1396T
1070.081	1.617	1074907	WORD	n/a	wordpools/wordpool_long_EN.txt	MAT	6	10	[0, 0, 0]	n/a	FR1	1	R1396T
1071.698	0.95	1076528	WORD_OFF	n/a	n/a	MAT	6	10	[0, 0, 0]	n/a	FR1	1	R1396T
1072.648	1.6	1077478	WORD	n/a	wordpools/wordpool_long_EN.txt	FLAME	7	10	[0, 0, 0]	n/a	FR1	1	R1396T
1074.248	0.916	1079071	WORD_OFF	n/a	n/a	FLAME	7	10	[0, 0, 0]	n/a	FR1	1	R1396T
1075.164	1.601	1079993	WORD	n/a	wordpools/wordpool_long_EN.txt	STAR	8	10	[0, 0, 0]	n/a	FR1	1	R1396T
1076.765	0.999	1081586	WORD_OFF	n/a	n/a	STAR	8	10	[0, 0, 0]	n/a	FR1	1	R1396T
1077.764	1.6	1082592	WORD	n/a	wordpools/wordpool_long_EN.txt	BRICK	9	10	[0, 0, 0]	n/a	FR1	1	R1396T
1079.364	0.984	1084185	WORD_OFF	n/a	n/a	BRICK	9	10	[0, 0, 0]	n/a	FR1	1	R1396T
1080.348	1.616	1085177	WORD	n/a	wordpools/wordpool_long_EN.txt	TOOTH	10	10	[0, 0, 0]	n/a	FR1	1	R1396T
1081.964	0.867	1086783	WORD_OFF	n/a	n/a	TOOTH	10	10	[0, 0, 0]	n/a	FR1	1	R1396T
1082.831	1.6	1087650	WORD	n/a	wordpools/wordpool_long_EN.txt	FOAM	11	10	[0, 0, 0]	n/a	FR1	1	R1396T
1084.431	0.866	1089256	WORD_OFF	n/a	n/a	FOAM	11	10	[0, 0, 0]	n/a	FR1	1	R1396T
1085.297	1.6	1090123	WORD	n/a	wordpools/wordpool_long_EN.txt	OX	12	10	[0, 0, 0]	n/a	FR1	1	R1396T
1086.897	0.001	1091715	WORD_OFF	n/a	n/a	OX	12	10	[0, 0, 0]	n/a	FR1	1	R1396T
1086.898	0.001	1091721	PROB	0.001	n/a	n/a	-999	10	[3, 5, 1]	9	FR1	1	R1396T
1086.899	0.0	1091722	START	n/a	n/a	n/a	-999	10	[-999, -999, -999]	n/a	FR1	1	R1396T
1086.899	0.0	1091729	ENCODING_END	n/a	n/a	n/a	-999	10	[0, 0, 0]	n/a	FR1	1	R1396T
1086.899	6.282	1091729	DISTRACT_START	n/a	n/a	n/a	-999	10	[0, 0, 0]	n/a	FR1	1	R1396T
1093.181	6.25	1098003	PROB	6.25	n/a	n/a	-999	10	[6, 8, 2]	16	FR1	1	R1396T
1099.431	8.983	1104253	PROB	8.983	n/a	n/a	-999	10	[6, 3, 7]	16	FR1	1	R1396T
1108.414	0.0	1113232	DISTRACT_END	n/a	n/a	n/a	-999	10	[0, 0, 0]	n/a	FR1	1	R1396T
1108.414	1.017	1113235	STOP	n/a	n/a	n/a	-999	10	[-999, -999, -999]	n/a	FR1	1	R1396T
1109.431	4.763	1114252	REC_START	n/a	n/a	n/a	-999	10	[0, 0, 0]	n/a	FR1	1	R1396T
1114.194	3.063	1119015	REC_WORD	3.063	n/a	FISH	-999	10	[0, 0, 0]	n/a	FR1	1	R1396T
1117.257	4.957	1122078	REC_WORD	4.957	n/a	OX	12	10	[0, 0, 0]	n/a	FR1	1	R1396T
1122.214	18.458	1127035	REC_WORD_VV	18.458	n/a	<>	-999	10	[0, 0, 0]	n/a	FR1	1	R1396T
1140.672	1.876	1145493	REC_END	n/a	n/a	n/a	-999	10	[0, 0, 0]	n/a	FR1	1	R1396T
1142.548	10.35	1147365	COUNTDOWN_START	n/a	n/a	n/a	-999	10	[0, 0, 0]	n/a	FR1	1	R1396T
1152.898	0.001	1157718	COUNTDOWN_END	n/a	n/a	n/a	-999	10	[0, 0, 0]	n/a	FR1	1	R1396T
1152.899	2.216	1157718	ENCODING_START	n/a	n/a	n/a	-999	11	[0, 0, 0]	n/a	FR1	1	R1396T
1155.115	1.616	1159940	WORD	n/a	wordpools/wordpool_long_EN.txt	COOK	1	11	[0, 0, 0]	n/a	FR1	1	R1396T
1156.731	0.933	1161547	WORD_OFF	n/a	n/a	COOK	1	11	[0, 0, 0]	n/a	FR1	1	R1396T
1157.664	1.601	1162483	WORD	n/a	wordpools/wordpool_long_EN.txt	MASK	2	11	[0, 0, 0]	n/a	FR1	1	R1396T
1159.265	0.866	1164089	WORD_OFF	n/a	n/a	MASK	2	11	[0, 0, 0]	n/a	FR1	1	R1396T
1160.131	1.6	1164956	WORD	n/a	wordpools/wordpool_long_EN.txt	CAPE	3	11	[0, 0, 0]	n/a	FR1	1	R1396T
1161.731	0.934	1166549	WORD_OFF	n/a	n/a	CAPE	3	11	[0, 0, 0]	n/a	FR1	1	R1396T
1162.665	1.6	1167485	WORD	n/a	wordpools/wordpool_long_EN.txt	SLUSH	4	11	[0, 0, 0]	n/a	FR1	1	R1396T
1164.265	0.949	1169077	WORD_OFF	n/a	n/a	SLUSH	4	11	[0, 0, 0]	n/a	FR1	1	R1396T
1165.214	1.617	1170028	WORD	n/a	wordpools/wordpool_long_EN.txt	BREAD	5	11	[0, 0, 0]	n/a	FR1	1	R1396T
1166.831	0.967	1171648	WORD_OFF	n/a	n/a	BREAD	5	11	[0, 0, 0]	n/a	FR1	1	R1396T
1167.798	1.6	1172612	WORD	n/a	wordpools/wordpool_long_EN.txt	STREET	6	11	[0, 0, 0]	n/a	FR1	1	R1396T
1169.398	0.866	1174219	WORD_OFF	n/a	n/a	STREET	6	11	[0, 0, 0]	n/a	FR1	1	R1396T
1170.264	1.6	1175085	WORD	n/a	wordpools/wordpool_long_EN.txt	VINE	7	11	[0, 0, 0]	n/a	FR1	1	R1396T
1171.864	0.766	1176678	WORD_OFF	n/a	n/a	VINE	7	11	[0, 0, 0]	n/a	FR1	1	R1396T
1172.63	1.601	1177447	WORD	n/a	wordpools/wordpool_long_EN.txt	STORE	8	11	[0, 0, 0]	n/a	FR1	1	R1396T
1174.231	0.933	1179053	WORD_OFF	n/a	n/a	STORE	8	11	[0, 0, 0]	n/a	FR1	1	R1396T
1175.164	1.617	1179989	WORD	n/a	wordpools/wordpool_long_EN.txt	BAND	9	11	[0, 0, 0]	n/a	FR1	1	R1396T
1176.781	0.833	1181596	WORD_OFF	n/a	n/a	BAND	9	11	[0, 0, 0]	n/a	FR1	1	R1396T
1177.614	1.6	1182434	WORD	n/a	wordpools/wordpool_long_EN.txt	YACHT	10	11	[0, 0, 0]	n/a	FR1	1	R1396T
1179.214	0.917	1184027	WORD_OFF	n/a	n/a	YACHT	10	11	[0, 0, 0]	n/a	FR1	1	R1396T
1180.131	1.6	1184949	WORD	n/a	wordpools/wordpool_long_EN.txt	JET	11	11	[0, 0, 0]	n/a	FR1	1	R1396T
1181.731	0.783	1186555	WORD_OFF	n/a	n/a	JET	11	11	[0, 0, 0]	n/a	FR1	1	R1396T
1182.514	1.617	1187339	WORD	n/a	wordpools/wordpool_long_EN.txt	CLOTH	12	11	[0, 0, 0]	n/a	FR1	1	R1396T
1184.131	0.001	1188945	WORD_OFF	n/a	n/a	CLOTH	12	11	[0, 0, 0]	n/a	FR1	1	R1396T
1184.132	0.0	1188945	ENCODING_END	n/a	n/a	n/a	-999	11	[0, 0, 0]	n/a	FR1	1	R1396T
1184.132	0.0	1188950	START	n/a	n/a	n/a	-999	11	[-999, -999, -999]	n/a	FR1	1	R1396T
1184.132	0.0	1188950	PROB	0.0	n/a	n/a	-999	11	[5, 5, 1]	11	FR1	1	R1396T
1184.132	4.116	1188959	DISTRACT_START	n/a	n/a	n/a	-999	11	[0, 0, 0]	n/a	FR1	1	R1396T
1188.248	8.517	1193065	PROB	8.517	n/a	n/a	-999	11	[7, 8, 3]	18	FR1	1	R1396T
1196.765	3.95	1201582	PROB	3.95	n/a	n/a	-999	11	[5, 1, 4]	10	FR1	1	R1396T
1200.715	7.365	1205532	PROB	7.365	n/a	n/a	-999	11	[7, 2, 8]	17	FR1	1	R1396T
1208.08	0.0	1212893	DISTRACT_END	n/a	n/a	n/a	-999	11	[0, 0, 0]	n/a	FR1	1	R1396T
1208.08	1.035	1212896	STOP	n/a	n/a	n/a	-999	11	[-999, -999, -999]	n/a	FR1	1	R1396T
1209.115	3.363	1213927	REC_START	n/a	n/a	n/a	-999	11	[0, 0, 0]	n/a	FR1	1	R1396T
1212.478	2.517	1217294	REC_WORD	2.517	n/a	CLOTH	12	11	[0, 0, 0]	n/a	FR1	1	R1396T
1214.995	5.79	1219811	REC_WORD	5.79	n/a	FOOD	-999	11	[0, 0, 0]	n/a	FR1	1	R1396T
1220.785	19.531	1225601	REC_WORD	19.531	n/a	SLEEP	-999	11	[0, 0, 0]	n/a	FR1	1	R1396T
1240.316	2.349	1245126	REC_END	n/a	n/a	n/a	-999	11	[0, 0, 0]	n/a	FR1	1	R1396T
1242.665	10.35	1247487	COUNTDOWN_START	n/a	n/a	n/a	-999	11	[0, 0, 0]	n/a	FR1	1	R1396T
1253.015	0.0	1257826	COUNTDOWN_END	n/a	n/a	n/a	-999	11	[0, 0, 0]	n/a	FR1	1	R1396T
1253.015	2.216	1257826	ENCODING_START	n/a	n/a	n/a	-999	12	[0, 0, 0]	n/a	FR1	1	R1396T
1255.231	1.6	1260048	WORD	n/a	wordpools/wordpool_long_EN.txt	SNAIL	1	12	[0, 0, 0]	n/a	FR1	1	R1396T
1256.831	0.785	1261641	WORD_OFF	n/a	n/a	SNAIL	1	12	[0, 0, 0]	n/a	FR1	1	R1396T
1257.616	1.599	1262423	WORD	n/a	wordpools/wordpool_long_EN.txt	SPOUSE	2	12	[0, 0, 0]	n/a	FR1	1	R1396T
1259.215	0.783	1264030	WORD_OFF	n/a	n/a	SPOUSE	2	12	[0, 0, 0]	n/a	FR1	1	R1396T
1259.998	1.618	1264812	WORD	n/a	wordpools/wordpool_long_EN.txt	SPACE	3	12	[0, 0, 0]	n/a	FR1	1	R1396T
1261.616	0.932	1266433	WORD_OFF	n/a	n/a	SPACE	3	12	[0, 0, 0]	n/a	FR1	1	R1396T
1262.548	1.6	1267369	WORD	n/a	wordpools/wordpool_long_EN.txt	CUP	4	12	[0, 0, 0]	n/a	FR1	1	R1396T
1264.148	0.95	1268962	WORD_OFF	n/a	n/a	CUP	4	12	[0, 0, 0]	n/a	FR1	1	R1396T
1265.098	1.6	1269912	WORD	n/a	wordpools/wordpool_long_EN.txt	CARD	5	12	[0, 0, 0]	n/a	FR1	1	R1396T
1266.698	0.767	1271505	WORD_OFF	n/a	n/a	CARD	5	12	[0, 0, 0]	n/a	FR1	1	R1396T
1267.465	1.617	1272273	WORD	n/a	wordpools/wordpool_long_EN.txt	HORN	6	12	[0, 0, 0]	n/a	FR1	1	R1396T
1269.082	0.933	1273894	WORD_OFF	n/a	n/a	HORN	6	12	[0, 0, 0]	n/a	FR1	1	R1396T
1270.015	1.615	1274830	WORD	n/a	wordpools/wordpool_long_EN.txt	BOMB	7	12	[0, 0, 0]	n/a	FR1	1	R1396T
1271.63	0.818	1276437	WORD_OFF	n/a	n/a	BOMB	7	12	[0, 0, 0]	n/a	FR1	1	R1396T
1272.448	1.6	1277261	WORD	n/a	wordpools/wordpool_long_EN.txt	CORD	8	12	[0, 0, 0]	n/a	FR1	1	R1396T
1274.048	0.866	1278854	WORD_OFF	n/a	n/a	CORD	8	12	[0, 0, 0]	n/a	FR1	1	R1396T
1274.914	1.601	1279734	WORD	n/a	wordpools/wordpool_long_EN.txt	CLOWN	9	12	[0, 0, 0]	n/a	FR1	1	R1396T
1276.515	0.783	1281327	WORD_OFF	n/a	n/a	CLOWN	9	12	[0, 0, 0]	n/a	FR1	1	R1396T
1277.298	1.6	1282109	WORD	n/a	wordpools/wordpool_long_EN.txt	BENCH	10	12	[0, 0, 0]	n/a	FR1	1	R1396T
1278.898	0.966	1283716	WORD_OFF	n/a	n/a	BENCH	10	12	[0, 0, 0]	n/a	FR1	1	R1396T
1279.864	1.6	1284680	WORD	n/a	wordpools/wordpool_long_EN.txt	MUG	11	12	[0, 0, 0]	n/a	FR1	1	R1396T
1281.464	0.784	1286273	WORD_OFF	n/a	n/a	MUG	11	12	[0, 0, 0]	n/a	FR1	1	R1396T
1282.248	1.6	1287055	WORD	n/a	wordpools/wordpool_long_EN.txt	VEST	12	12	[0, 0, 0]	n/a	FR1	1	R1396T
1283.848	0.001	1288660	PROB	0.001	n/a	n/a	-999	12	[5, 6, 4]	15	FR1	1	R1396T
1283.849	0.0	1288661	START	n/a	n/a	n/a	-999	12	[-999, -999, -999]	n/a	FR1	1	R1396T
1283.848	0.001	1288662	WORD_OFF	n/a	n/a	VEST	12	12	[0, 0, 0]	n/a	FR1	1	R1396T
1283.849	0.0	1288662	ENCODING_END	n/a	n/a	n/a	-999	12	[0, 0, 0]	n/a	FR1	1	R1396T
1283.849	9.848	1288662	DISTRACT_START	n/a	n/a	n/a	-999	12	[0, 0, 0]	n/a	FR1	1	R1396T
1293.697	4.268	1298509	PROB	4.268	n/a	n/a	-999	12	[6, 4, 1]	11	FR1	1	R1396T
1297.965	8.249	1302777	PROB	8.249	n/a	n/a	-999	12	[2, 7, 8]	17	FR1	1	R1396T
1306.214	0.0	1311025	STOP	n/a	n/a	n/a	-999	12	[-999, -999, -999]	n/a	FR1	1	R1396T
1306.214	1.033	1311031	DISTRACT_END	n/a	n/a	n/a	-999	12	[0, 0, 0]	n/a	FR1	1	R1396T
1307.247	2.451	1312065	REC_START	n/a	n/a	n/a	-999	12	[0, 0, 0]	n/a	FR1	1	R1396T
1309.698	8.144	1314509	REC_WORD	8.144	n/a	BADGE	-999	12	[0, 0, 0]	n/a	FR1	1	R1396T
1317.842	6.961	1322653	REC_WORD	6.961	n/a	MUG	11	12	[0, 0, 0]	n/a	FR1	1	R1396T
1324.803	7.433	1329613	REC_WORD	7.433	n/a	FOOD	-999	12	[0, 0, 0]	n/a	FR1	1	R1396T
1332.236	6.235	1337046	REC_WORD	6.235	n/a	SPOUSE	2	12	[0, 0, 0]	n/a	FR1	1	R1396T
1338.471	0.0	1343278	REC_END	n/a	n/a	n/a	-999	12	[0, 0, 0]	n/a	FR1	1	R1396T
