onset	duration	sample	trial_type	response_time	stim_file	item_name	serialpos	list	test	answer	experiment	session	subject
0.0	137.204	254899	SESS_START	n/a	n/a	n/a	-999	-999	[0, 0, 0]	n/a	FR1	0	R1051J
137.204	10.428	529301	COUNTDOWN_START	n/a	n/a	n/a	-999	-999	[0, 0, 0]	n/a	FR1	0	R1051J
147.632	3.491	550157	COUNTDOWN_END	n/a	n/a	n/a	-999	-999	[0, 0, 0]	n/a	FR1	0	R1051J
151.123	2.451	557139	PRACTICE_WORD	n/a	n/a	CAMEL	1	-1	[0, 0, 0]	n/a	FR1	0	R1051J
153.574	2.583	562041	PRACTICE_WORD	n/a	n/a	ATTIC	2	-1	[0, 0, 0]	n/a	FR1	0	R1051J
156.157	2.435	567206	PRACTICE_WORD	n/a	n/a	BEAM	3	-1	[0, 0, 0]	n/a	FR1	0	R1051J
158.592	2.416	572076	PRACTICE_WORD	n/a	n/a	TONGUE	4	-1	[0, 0, 0]	n/a	FR1	0	R1051J
161.008	2.633	576908	PRACTICE_WORD	n/a	n/a	RHINO	5	-1	[0, 0, 0]	n/a	FR1	0	R1051J
163.641	2.534	582174	PRACTICE_WORD	n/a	n/a	RING	6	-1	[0, 0, 0]	n/a	FR1	0	R1051J
166.175	2.385	587242	PRACTICE_WORD	n/a	n/a	CHEST	7	-1	[0, 0, 0]	n/a	FR1	0	R1051J
168.56	2.482	592012	PRACTICE_WORD	n/a	n/a	WAGON	8	-1	[0, 0, 0]	n/a	FR1	0	R1051J
171.042	2.452	596976	PRACTICE_WORD	n/a	n/a	COTTON	9	-1	[0, 0, 0]	n/a	FR1	0	R1051J
173.494	2.633	601880	PRACTICE_WORD	n/a	n/a	FLOOD	10	-1	[0, 0, 0]	n/a	FR1	0	R1051J
176.127	2.567	607146	PRACTICE_WORD	n/a	n/a	IRON	11	-1	[0, 0, 0]	n/a	FR1	0	R1051J
178.694	1.618	612279	PRACTICE_WORD	n/a	n/a	WATCH	12	-1	[0, 0, 0]	n/a	FR1	0	R1051J
180.312	0.0	615515	PRACTICE_DISTRACT_START	n/a	n/a	n/a	-999	-1	[0, 0, 0]	n/a	FR1	0	R1051J
180.312	0.016	615515	START	n/a	n/a	n/a	-999	-1	[-999, -999, -999]	n/a	FR1	0	R1051J
180.328	25.816	615547	PROB	25.816	n/a	n/a	-999	-1	[1, 4, 5]	10	FR1	0	R1051J
206.144	0.02	667178	STOP	n/a	n/a	n/a	-999	-1	[-999, -999, -999]	n/a	FR1	0	R1051J
206.164	0.586	667218	PRACTICE_DISTRACT_END	n/a	n/a	n/a	-999	-1	[0, 0, 0]	n/a	FR1	0	R1051J
206.75	30.514	668390	PRACTICE_REC_START	n/a	n/a	n/a	-999	-1	[0, 0, 0]	n/a	FR1	0	R1051J
237.264	29.243	729417	PRACTICE_REC_END	n/a	n/a	n/a	-999	-1	[0, 0, 0]	n/a	FR1	0	R1051J
266.507	0.001	787902	COUNTDOWN_START	n/a	n/a	n/a	-999	1	[0, 0, 0]	n/a	FR1	0	R1051J
266.508	10.427	787904	TRIAL	n/a	n/a	n/a	-999	1	[0, 0, 0]	n/a	FR1	0	R1051J
276.935	0.006	808757	COUNTDOWN_END	n/a	n/a	n/a	-999	1	[0, 0, 0]	n/a	FR1	0	R1051J
276.941	2.468	808769	ORIENT	n/a	n/a	n/a	-999	1	[0, 0, 0]	n/a	FR1	0	R1051J
279.409	2.5	813705	WORD	n/a	wordpools/wordpool_EN.txt	MUG	1	1	[0, 0, 0]	n/a	FR1	0	R1051J
281.909	2.618	818705	WORD	n/a	wordpools/wordpool_EN.txt	TRUCK	2	1	[0, 0, 0]	n/a	FR1	0	R1051J
284.527	2.566	823941	WORD	n/a	wordpools/wordpool_EN.txt	STOOL	3	1	[0, 0, 0]	n/a	FR1	0	R1051J
287.093	2.583	829073	WORD	n/a	wordpools/wordpool_EN.txt	PURSE	4	1	[0, 0, 0]	n/a	FR1	0	R1051J
289.676	2.451	834239	WORD	n/a	wordpools/wordpool_EN.txt	SHELL	5	1	[0, 0, 0]	n/a	FR1	0	R1051J
292.127	2.583	839141	WORD	n/a	wordpools/wordpool_EN.txt	PEARL	6	1	[0, 0, 0]	n/a	FR1	0	R1051J
294.71	2.501	844307	WORD	n/a	wordpools/wordpool_EN.txt	MAZE	7	1	[0, 0, 0]	n/a	FR1	0	R1051J
297.211	2.517	849309	WORD	n/a	wordpools/wordpool_EN.txt	FLOOR	8	1	[0, 0, 0]	n/a	FR1	0	R1051J
299.728	2.4	854342	WORD	n/a	wordpools/wordpool_EN.txt	VAN	9	1	[0, 0, 0]	n/a	FR1	0	R1051J
302.128	2.452	859142	WORD	n/a	wordpools/wordpool_EN.txt	HOOK	10	1	[0, 0, 0]	n/a	FR1	0	R1051J
304.58	2.616	864046	WORD	n/a	wordpools/wordpool_EN.txt	PEA	11	1	[0, 0, 0]	n/a	FR1	0	R1051J
307.196	1.617	869278	WORD	n/a	wordpools/wordpool_EN.txt	CLOWN	12	1	[0, 0, 0]	n/a	FR1	0	R1051J
308.813	0.0	872512	DISTRACT_START	n/a	n/a	n/a	-999	1	[0, 0, 0]	n/a	FR1	0	R1051J
308.813	0.016	872512	START	n/a	n/a	n/a	-999	1	[-999, -999, -999]	n/a	FR1	0	R1051J
308.829	5.569	872544	PROB	5.569	n/a	n/a	-999	1	[3, 9, 9]	21	FR1	0	R1051J
314.398	5.034	883682	PROB	5.034	n/a	n/a	-999	1	[4, 5, 7]	16	FR1	0	R1051J
319.432	10.142	893750	PROB	10.142	n/a	n/a	-999	1	[6, 9, 8]	23	FR1	0	R1051J
329.574	0.009	914033	STOP	n/a	n/a	n/a	-999	1	[-999, -999, -999]	n/a	FR1	0	R1051J
329.583	1.221	914051	DISTRACT_END	n/a	n/a	n/a	-999	1	[0, 0, 0]	n/a	FR1	0	R1051J
330.804	1.732	916493	REC_START	n/a	n/a	n/a	-999	1	[0, 0, 0]	n/a	FR1	0	R1051J
332.536	1.195	919957	REC_WORD_VV	1.195	n/a	<>	-999	1	[0, 0, 0]	n/a	FR1	0	R1051J
333.731	2.112	922347	REC_WORD	2.112	n/a	TRUCK	-999	1	[0, 0, 0]	n/a	FR1	0	R1051J
335.843	1.005	926571	REC_WORD_VV	1.005	n/a	<>	-999	1	[0, 0, 0]	n/a	FR1	0	R1051J
336.848	2.184	928581	REC_WORD	2.184	n/a	STOOL	-999	1	[0, 0, 0]	n/a	FR1	0	R1051J
339.032	1.763	932949	REC_WORD_VV	1.763	n/a	<>	-999	1	[0, 0, 0]	n/a	FR1	0	R1051J
340.795	0.717	936475	REC_WORD	0.717	n/a	WAGON	-999	1	[0, 0, 0]	n/a	FR1	0	R1051J
341.512	1.0	937909	REC_WORD_VV	1.0	n/a	<>	-999	1	[0, 0, 0]	n/a	FR1	0	R1051J
342.512	1.0	939909	REC_WORD_VV	1.0	n/a	<>	-999	1	[0, 0, 0]	n/a	FR1	0	R1051J
343.512	3.728	941909	REC_WORD_VV	3.728	n/a	<>	-999	1	[0, 0, 0]	n/a	FR1	0	R1051J
347.24	2.35	949364	REC_WORD_VV	2.35	n/a	<>	-999	1	[0, 0, 0]	n/a	FR1	0	R1051J
349.59	3.399	954064	REC_WORD	3.399	n/a	FLOOR	-999	1	[0, 0, 0]	n/a	FR1	0	R1051J
352.989	1.0	960862	REC_WORD_VV	1.0	n/a	<>	-999	1	[0, 0, 0]	n/a	FR1	0	R1051J
353.989	1.0	962862	REC_WORD_VV	1.0	n/a	<>	-999	1	[0, 0, 0]	n/a	FR1	0	R1051J
354.989	1.0	964862	REC_WORD_VV	1.0	n/a	<>	-999	1	[0, 0, 0]	n/a	FR1	0	R1051J
355.989	1.0	966862	REC_WORD_VV	1.0	n/a	<>	-999	1	[0, 0, 0]	n/a	FR1	0	R1051J
356.989	1.968	968862	REC_WORD_VV	1.968	n/a	<>	-999	1	[0, 0, 0]	n/a	FR1	0	R1051J
358.957	1.0	972798	REC_WORD_VV	1.0	n/a	<>	-999	1	[0, 0, 0]	n/a	FR1	0	R1051J
359.957	0.854	974798	REC_WORD_VV	0.854	n/a	<>	-999	1	[0, 0, 0]	n/a	FR1	0	R1051J
360.811	88.322	976506	REC_END	n/a	n/a	n/a	-999	1	[0, 0, 0]	n/a	FR1	0	R1051J
449.133	0.0	1153146	TRIAL	n/a	n/a	n/a	-999	2	[0, 0, 0]	n/a	FR1	0	R1051J
449.133	10.428	1153146	COUNTDOWN_START	n/a	n/a	n/a	-999	2	[0, 0, 0]	n/a	FR1	0	R1051J
459.561	0.008	1174002	COUNTDOWN_END	n/a	n/a	n/a	-999	2	[0, 0, 0]	n/a	FR1	0	R1051J
459.569	2.449	1174018	ORIENT	n/a	n/a	n/a	-999	2	[0, 0, 0]	n/a	FR1	0	R1051J
462.018	2.601	1178916	WORD	n/a	wordpools/wordpool_EN.txt	TRAY	1	2	[0, 0, 0]	n/a	FR1	0	R1051J
464.619	2.416	1184117	WORD	n/a	wordpools/wordpool_EN.txt	SPOON	2	2	[0, 0, 0]	n/a	FR1	0	R1051J
467.035	2.469	1188949	WORD	n/a	wordpools/wordpool_EN.txt	TIE	3	2	[0, 0, 0]	n/a	FR1	0	R1051J
469.504	2.549	1193887	WORD	n/a	wordpools/wordpool_EN.txt	FROG	4	2	[0, 0, 0]	n/a	FR1	0	R1051J
472.053	2.401	1198985	WORD	n/a	wordpools/wordpool_EN.txt	SMILE	5	2	[0, 0, 0]	n/a	FR1	0	R1051J
474.454	2.45	1203787	WORD	n/a	wordpools/wordpool_EN.txt	FORK	6	2	[0, 0, 0]	n/a	FR1	0	R1051J
476.904	2.434	1208687	WORD	n/a	wordpools/wordpool_EN.txt	VEST	7	2	[0, 0, 0]	n/a	FR1	0	R1051J
479.338	2.433	1213555	WORD	n/a	wordpools/wordpool_EN.txt	ARM	8	2	[0, 0, 0]	n/a	FR1	0	R1051J
481.771	2.417	1218421	WORD	n/a	wordpools/wordpool_EN.txt	BREAD	9	2	[0, 0, 0]	n/a	FR1	0	R1051J
484.188	2.385	1223255	WORD	n/a	wordpools/wordpool_EN.txt	GOAT	10	2	[0, 0, 0]	n/a	FR1	0	R1051J
486.573	2.599	1228025	WORD	n/a	wordpools/wordpool_EN.txt	PIE	11	2	[0, 0, 0]	n/a	FR1	0	R1051J
489.172	1.617	1233222	WORD	n/a	wordpools/wordpool_EN.txt	STEAK	12	2	[0, 0, 0]	n/a	FR1	0	R1051J
490.789	0.001	1236456	DISTRACT_START	n/a	n/a	n/a	-999	2	[0, 0, 0]	n/a	FR1	0	R1051J
490.79	0.016	1236458	START	n/a	n/a	n/a	-999	2	[-999, -999, -999]	n/a	FR1	0	R1051J
490.806	4.818	1236490	PROB	4.818	n/a	n/a	-999	2	[2, 6, 6]	10	FR1	0	R1051J
495.624	7.434	1246126	PROB	7.434	n/a	n/a	-999	2	[4, 4, 5]	13	FR1	0	R1051J
503.058	2.7	1260994	PROB	2.7	n/a	n/a	-999	2	[1, 4, 1]	6	FR1	0	R1051J
505.758	4.2	1266394	PROB	4.2	n/a	n/a	-999	2	[7, 9, 1]	17	FR1	0	R1051J
509.958	3.235	1274794	PROB	3.235	n/a	n/a	-999	2	[3, 9, 9]	21	FR1	0	R1051J
513.193	0.016	1281263	STOP	n/a	n/a	n/a	-999	2	[-999, -999, -999]	n/a	FR1	0	R1051J
513.209	1.168	1281295	DISTRACT_END	n/a	n/a	n/a	-999	2	[0, 0, 0]	n/a	FR1	0	R1051J
514.377	0.613	1283631	REC_START	n/a	n/a	n/a	-999	2	[0, 0, 0]	n/a	FR1	0	R1051J
514.99	0.693	1284857	REC_WORD_VV	0.693	n/a	<>	-999	2	[0, 0, 0]	n/a	FR1	0	R1051J
515.683	0.538	1286243	REC_WORD	0.538	n/a	TRAY	-999	2	[0, 0, 0]	n/a	FR1	0	R1051J
516.221	1.127	1287319	REC_WORD	1.127	n/a	SPOON	-999	2	[0, 0, 0]	n/a	FR1	0	R1051J
517.348	1.767	1289573	REC_WORD	1.767	n/a	FORK	-999	2	[0, 0, 0]	n/a	FR1	0	R1051J
519.115	0.803	1293107	REC_WORD_VV	0.803	n/a	<>	-999	2	[0, 0, 0]	n/a	FR1	0	R1051J
519.918	4.953	1294713	REC_WORD	4.953	n/a	STEAK	-999	2	[0, 0, 0]	n/a	FR1	0	R1051J
524.871	0.231	1304619	REC_WORD_VV	0.231	n/a	<>	-999	2	[0, 0, 0]	n/a	FR1	0	R1051J
525.102	0.902	1305081	REC_WORD	0.902	n/a	VEST	-999	2	[0, 0, 0]	n/a	FR1	0	R1051J
526.004	3.085	1306885	REC_WORD	3.085	n/a	TIE	-999	2	[0, 0, 0]	n/a	FR1	0	R1051J
529.089	12.007	1313055	REC_WORD	12.007	n/a	FROG	-999	2	[0, 0, 0]	n/a	FR1	0	R1051J
541.096	3.296	1337068	REC_WORD_VV	3.296	n/a	<>	-999	2	[0, 0, 0]	n/a	FR1	0	R1051J
544.392	9.041	1343660	REC_END	n/a	n/a	n/a	-999	2	[0, 0, 0]	n/a	FR1	0	R1051J
553.433	0.0	1361742	COUNTDOWN_START	n/a	n/a	n/a	-999	3	[0, 0, 0]	n/a	FR1	0	R1051J
553.433	10.428	1361742	TRIAL	n/a	n/a	n/a	-999	3	[0, 0, 0]	n/a	FR1	0	R1051J
563.861	0.005	1382597	COUNTDOWN_END	n/a	n/a	n/a	-999	3	[0, 0, 0]	n/a	FR1	0	R1051J
563.866	2.552	1382607	ORIENT	n/a	n/a	n/a	-999	3	[0, 0, 0]	n/a	FR1	0	R1051J
566.418	2.616	1387711	WORD	n/a	wordpools/wordpool_EN.txt	BADGE	1	3	[0, 0, 0]	n/a	FR1	0	R1051J
569.034	2.534	1392943	WORD	n/a	wordpools/wordpool_EN.txt	JUDGE	2	3	[0, 0, 0]	n/a	FR1	0	R1051J
571.568	2.466	1398011	WORD	n/a	wordpools/wordpool_EN.txt	BOOK	3	3	[0, 0, 0]	n/a	FR1	0	R1051J
574.034	2.568	1402943	WORD	n/a	wordpools/wordpool_EN.txt	PIG	4	3	[0, 0, 0]	n/a	FR1	0	R1051J
576.602	2.616	1408079	WORD	n/a	wordpools/wordpool_EN.txt	PLANE	5	3	[0, 0, 0]	n/a	FR1	0	R1051J
579.218	2.484	1413311	WORD	n/a	wordpools/wordpool_EN.txt	SHEET	6	3	[0, 0, 0]	n/a	FR1	0	R1051J
581.702	2.568	1418279	WORD	n/a	wordpools/wordpool_EN.txt	CAR	7	3	[0, 0, 0]	n/a	FR1	0	R1051J
584.27	2.616	1423414	WORD	n/a	wordpools/wordpool_EN.txt	SMOKE	8	3	[0, 0, 0]	n/a	FR1	0	R1051J
586.886	2.502	1428646	WORD	n/a	wordpools/wordpool_EN.txt	SHEEP	9	3	[0, 0, 0]	n/a	FR1	0	R1051J
589.388	2.566	1433650	WORD	n/a	wordpools/wordpool_EN.txt	WAVE	10	3	[0, 0, 0]	n/a	FR1	0	R1051J
591.954	2.451	1438782	WORD	n/a	wordpools/wordpool_EN.txt	ARK	11	3	[0, 0, 0]	n/a	FR1	0	R1051J
594.405	1.616	1443684	WORD	n/a	wordpools/wordpool_EN.txt	JET	12	3	[0, 0, 0]	n/a	FR1	0	R1051J
596.021	0.001	1446916	DISTRACT_START	n/a	n/a	n/a	-999	3	[0, 0, 0]	n/a	FR1	0	R1051J
596.022	0.016	1446918	START	n/a	n/a	n/a	-999	3	[-999, -999, -999]	n/a	FR1	0	R1051J
596.038	5.485	1446950	PROB	5.485	n/a	n/a	-999	3	[4, 3, 4]	11	FR1	0	R1051J
601.523	3.316	1457920	PROB	3.316	n/a	n/a	-999	3	[2, 6, 3]	11	FR1	0	R1051J
604.839	4.384	1464552	PROB	4.384	n/a	n/a	-999	3	[7, 6, 7]	20	FR1	0	R1051J
609.223	3.517	1473319	PROB	3.517	n/a	n/a	-999	3	[1, 5, 5]	11	FR1	0	R1051J
612.74	3.483	1480353	PROB	3.483	n/a	n/a	-999	3	[3, 8, 1]	12	FR1	0	R1051J
616.223	0.018	1487319	STOP	n/a	n/a	n/a	-999	3	[-999, -999, -999]	n/a	FR1	0	R1051J
616.241	1.084	1487355	DISTRACT_END	n/a	n/a	n/a	-999	3	[0, 0, 0]	n/a	FR1	0	R1051J
617.325	0.683	1489523	REC_START	n/a	n/a	n/a	-999	3	[0, 0, 0]	n/a	FR1	0	R1051J
618.008	0.961	1490889	REC_WORD_VV	0.961	n/a	<>	-999	3	[0, 0, 0]	n/a	FR1	0	R1051J
618.969	1.33	1492811	REC_WORD	1.33	n/a	PLANE	-999	3	[0, 0, 0]	n/a	FR1	0	R1051J
620.299	2.779	1495471	REC_WORD	2.779	n/a	JET	-999	3	[0, 0, 0]	n/a	FR1	0	R1051J
623.078	5.138	1501029	REC_WORD	5.138	n/a	CAR	-999	3	[0, 0, 0]	n/a	FR1	0	R1051J
628.216	1.354	1511305	REC_WORD	1.354	n/a	SHEEP	-999	3	[0, 0, 0]	n/a	FR1	0	R1051J
629.57	3.063	1514013	REC_WORD	3.063	n/a	PIG	-999	3	[0, 0, 0]	n/a	FR1	0	R1051J
632.633	1.0	1520138	REC_WORD_VV	1.0	n/a	<>	-999	3	[0, 0, 0]	n/a	FR1	0	R1051J
633.633	2.296	1522138	REC_WORD_VV	2.296	n/a	<>	-999	3	[0, 0, 0]	n/a	FR1	0	R1051J
635.929	2.168	1526730	REC_WORD_VV	2.168	n/a	<>	-999	3	[0, 0, 0]	n/a	FR1	0	R1051J
638.097	0.886	1531066	REC_WORD	0.886	n/a	PAPER	-999	3	[0, 0, 0]	n/a	FR1	0	R1051J
638.983	1.168	1532838	REC_WORD	1.168	n/a	JUDGE	-999	3	[0, 0, 0]	n/a	FR1	0	R1051J
640.151	4.285	1535174	REC_WORD	4.285	n/a	BADGE	-999	3	[0, 0, 0]	n/a	FR1	0	R1051J
644.436	2.9	1543744	REC_WORD_VV	2.9	n/a	<>	-999	3	[0, 0, 0]	n/a	FR1	0	R1051J
647.336	5.56	1549544	REC_END	n/a	n/a	n/a	-999	3	[0, 0, 0]	n/a	FR1	0	R1051J
652.896	0.0	1560664	COUNTDOWN_START	n/a	n/a	n/a	-999	4	[0, 0, 0]	n/a	FR1	0	R1051J
652.896	10.428	1560664	TRIAL	n/a	n/a	n/a	-999	4	[0, 0, 0]	n/a	FR1	0	R1051J
663.324	0.008	1581519	COUNTDOWN_END	n/a	n/a	n/a	-999	4	[0, 0, 0]	n/a	FR1	0	R1051J
663.332	2.382	1581535	ORIENT	n/a	n/a	n/a	-999	4	[0, 0, 0]	n/a	FR1	0	R1051J
665.714	2.451	1586299	WORD	n/a	wordpools/wordpool_EN.txt	STEAM	1	4	[0, 0, 0]	n/a	FR1	0	R1051J
668.165	2.567	1591201	WORD	n/a	wordpools/wordpool_EN.txt	SIGN	2	4	[0, 0, 0]	n/a	FR1	0	R1051J
670.732	2.484	1596335	WORD	n/a	wordpools/wordpool_EN.txt	WHALE	3	4	[0, 0, 0]	n/a	FR1	0	R1051J
673.216	2.533	1601303	WORD	n/a	wordpools/wordpool_EN.txt	SHIELD	4	4	[0, 0, 0]	n/a	FR1	0	R1051J
675.749	2.434	1606369	WORD	n/a	wordpools/wordpool_EN.txt	ICE	5	4	[0, 0, 0]	n/a	FR1	0	R1051J
678.183	2.385	1611237	WORD	n/a	wordpools/wordpool_EN.txt	CROW	6	4	[0, 0, 0]	n/a	FR1	0	R1051J
680.568	2.533	1616006	WORD	n/a	wordpools/wordpool_EN.txt	AXE	7	4	[0, 0, 0]	n/a	FR1	0	R1051J
683.101	2.517	1621072	WORD	n/a	wordpools/wordpool_EN.txt	JEEP	8	4	[0, 0, 0]	n/a	FR1	0	R1051J
685.618	2.483	1626106	WORD	n/a	wordpools/wordpool_EN.txt	SPRING	9	4	[0, 0, 0]	n/a	FR1	0	R1051J
688.101	2.584	1631072	WORD	n/a	wordpools/wordpool_EN.txt	SLEEVE	10	4	[0, 0, 0]	n/a	FR1	0	R1051J
690.685	2.45	1636240	WORD	n/a	wordpools/wordpool_EN.txt	GEESE	11	4	[0, 0, 0]	n/a	FR1	0	R1051J
693.135	1.617	1641140	WORD	n/a	wordpools/wordpool_EN.txt	GATE	12	4	[0, 0, 0]	n/a	FR1	0	R1051J
694.752	0.001	1644374	DISTRACT_START	n/a	n/a	n/a	-999	4	[0, 0, 0]	n/a	FR1	0	R1051J
694.753	0.016	1644376	START	n/a	n/a	n/a	-999	4	[-999, -999, -999]	n/a	FR1	0	R1051J
694.769	4.95	1644408	PROB	4.95	n/a	n/a	-999	4	[4, 6, 9]	19	FR1	0	R1051J
699.719	3.384	1654308	PROB	3.384	n/a	n/a	-999	4	[8, 2, 8]	18	FR1	0	R1051J
703.103	5.252	1661076	PROB	5.252	n/a	n/a	-999	4	[9, 6, 8]	23	FR1	0	R1051J
708.355	3.483	1671579	PROB	3.483	n/a	n/a	-999	4	[9, 6, 9]	24	FR1	0	R1051J
711.838	6.094	1678545	PROB	6.094	n/a	n/a	-999	4	[6, 6, 7]	19	FR1	0	R1051J
717.932	0.007	1690733	STOP	n/a	n/a	n/a	-999	4	[-999, -999, -999]	n/a	FR1	0	R1051J
717.939	1.218	1690747	DISTRACT_END	n/a	n/a	n/a	-999	4	[0, 0, 0]	n/a	FR1	0	R1051J
719.157	1.076	1693183	REC_START	n/a	n/a	n/a	-999	4	[0, 0, 0]	n/a	FR1	0	R1051J
720.233	3.513	1695335	REC_WORD	3.513	n/a	SHIELD	-999	4	[0, 0, 0]	n/a	FR1	0	R1051J
723.746	2.842	1702361	REC_WORD	2.842	n/a	ANT	-999	4	[0, 0, 0]	n/a	FR1	0	R1051J
726.588	8.482	1708045	REC_WORD_VV	8.482	n/a	<>	-999	4	[0, 0, 0]	n/a	FR1	0	R1051J
735.07	4.641	1725008	REC_WORD	4.641	n/a	GATE	-999	4	[0, 0, 0]	n/a	FR1	0	R1051J
739.711	3.921	1734290	REC_WORD	3.921	n/a	GO	-999	4	[0, 0, 0]	n/a	FR1	0	R1051J
743.632	1.206	1742132	REC_WORD_VV	1.206	n/a	<>	-999	4	[0, 0, 0]	n/a	FR1	0	R1051J
744.838	4.328	1744544	REC_WORD	4.328	n/a	SWORD	-999	4	[0, 0, 0]	n/a	FR1	0	R1051J
749.166	3.928	1753200	REC_END	n/a	n/a	n/a	-999	4	[0, 0, 0]	n/a	FR1	0	R1051J
753.094	0.0	1761055	TRIAL	n/a	n/a	n/a	-999	5	[0, 0, 0]	n/a	FR1	0	R1051J
753.094	10.428	1761055	COUNTDOWN_START	n/a	n/a	n/a	-999	5	[0, 0, 0]	n/a	FR1	0	R1051J
763.522	0.007	1781911	COUNTDOWN_END	n/a	n/a	n/a	-999	5	[0, 0, 0]	n/a	FR1	0	R1051J
763.529	2.583	1781925	ORIENT	n/a	n/a	n/a	-999	5	[0, 0, 0]	n/a	FR1	0	R1051J
766.112	2.584	1787091	WORD	n/a	wordpools/wordpool_EN.txt	RUG	1	5	[0, 0, 0]	n/a	FR1	0	R1051J
768.696	2.483	1792259	WORD	n/a	wordpools/wordpool_EN.txt	YARD	2	5	[0, 0, 0]	n/a	FR1	0	R1051J
771.179	2.418	1797225	WORD	n/a	wordpools/wordpool_EN.txt	STOVE	3	5	[0, 0, 0]	n/a	FR1	0	R1051J
773.597	2.5	1802061	WORD	n/a	wordpools/wordpool_EN.txt	LOCK	4	5	[0, 0, 0]	n/a	FR1	0	R1051J
776.097	2.535	1807060	WORD	n/a	wordpools/wordpool_EN.txt	FACE	5	5	[0, 0, 0]	n/a	FR1	0	R1051J
778.632	2.449	1812130	WORD	n/a	wordpools/wordpool_EN.txt	BOARD	6	5	[0, 0, 0]	n/a	FR1	0	R1051J
781.081	2.634	1817028	WORD	n/a	wordpools/wordpool_EN.txt	CAGE	7	5	[0, 0, 0]	n/a	FR1	0	R1051J
783.715	2.467	1822296	WORD	n/a	wordpools/wordpool_EN.txt	HORN	8	5	[0, 0, 0]	n/a	FR1	0	R1051J
786.182	2.385	1827230	WORD	n/a	wordpools/wordpool_EN.txt	DRESS	9	5	[0, 0, 0]	n/a	FR1	0	R1051J
788.567	2.582	1832000	WORD	n/a	wordpools/wordpool_EN.txt	DOCK	10	5	[0, 0, 0]	n/a	FR1	0	R1051J
791.149	2.567	1837164	WORD	n/a	wordpools/wordpool_EN.txt	WOOD	11	5	[0, 0, 0]	n/a	FR1	0	R1051J
793.716	1.618	1842298	WORD	n/a	wordpools/wordpool_EN.txt	TOY	12	5	[0, 0, 0]	n/a	FR1	0	R1051J
795.334	0.001	1845534	DISTRACT_START	n/a	n/a	n/a	-999	5	[0, 0, 0]	n/a	FR1	0	R1051J
795.335	0.015	1845536	START	n/a	n/a	n/a	-999	5	[-999, -999, -999]	n/a	FR1	0	R1051J
795.35	3.883	1845566	PROB	3.883	n/a	n/a	-999	5	[2, 2, 8]	12	FR1	0	R1051J
799.233	4.369	1853331	PROB	4.369	n/a	n/a	-999	5	[6, 2, 2]	10	FR1	0	R1051J
803.602	4.684	1862069	PROB	4.684	n/a	n/a	-999	5	[8, 5, 1]	13	FR1	0	R1051J
808.286	4.616	1871437	PROB	4.616	n/a	n/a	-999	5	[3, 8, 6]	17	FR1	0	R1051J
812.902	4.075	1880669	PROB	4.075	n/a	n/a	-999	5	[2, 8, 6]	16	FR1	0	R1051J
816.977	0.009	1888819	STOP	n/a	n/a	n/a	-999	5	[-999, -999, -999]	n/a	FR1	0	R1051J
816.986	1.05	1888837	DISTRACT_END	n/a	n/a	n/a	-999	5	[0, 0, 0]	n/a	FR1	0	R1051J
818.036	1.238	1890937	REC_START	n/a	n/a	n/a	-999	5	[0, 0, 0]	n/a	FR1	0	R1051J
819.274	1.105	1893413	REC_WORD_VV	1.105	n/a	<>	-999	5	[0, 0, 0]	n/a	FR1	0	R1051J
820.379	2.445	1895623	REC_WORD	2.445	n/a	YARD	-999	5	[0, 0, 0]	n/a	FR1	0	R1051J
822.824	4.816	1900512	REC_WORD_VV	4.816	n/a	<>	-999	5	[0, 0, 0]	n/a	FR1	0	R1051J
827.64	3.057	1910144	REC_WORD_VV	3.057	n/a	<>	-999	5	[0, 0, 0]	n/a	FR1	0	R1051J
830.697	12.222	1916258	REC_WORD	12.222	n/a	KEY	-999	5	[0, 0, 0]	n/a	FR1	0	R1051J
842.919	3.478	1940702	REC_WORD	3.478	n/a	RUG	-999	5	[0, 0, 0]	n/a	FR1	0	R1051J
846.397	1.0	1947658	REC_WORD	1.0	n/a	KITCHEN	-999	5	[0, 0, 0]	n/a	FR1	0	R1051J
847.397	0.651	1949657	REC_WORD_VV	0.651	n/a	<>	-999	5	[0, 0, 0]	n/a	FR1	0	R1051J
848.048	2.91	1950959	REC_END	n/a	n/a	n/a	-999	5	[0, 0, 0]	n/a	FR1	0	R1051J
850.958	0.0	1956779	TRIAL	n/a	n/a	n/a	-999	6	[0, 0, 0]	n/a	FR1	0	R1051J
850.958	10.428	1956779	COUNTDOWN_START	n/a	n/a	n/a	-999	6	[0, 0, 0]	n/a	FR1	0	R1051J
861.386	0.007	1977635	COUNTDOWN_END	n/a	n/a	n/a	-999	6	[0, 0, 0]	n/a	FR1	0	R1051J
861.393	2.533	1977649	ORIENT	n/a	n/a	n/a	-999	6	[0, 0, 0]	n/a	FR1	0	R1051J
863.926	2.451	1982715	WORD	n/a	wordpools/wordpool_EN.txt	BRICK	1	6	[0, 0, 0]	n/a	FR1	0	R1051J
866.377	2.583	1987617	WORD	n/a	wordpools/wordpool_EN.txt	POLE	2	6	[0, 0, 0]	n/a	FR1	0	R1051J
868.96	2.368	1992783	WORD	n/a	wordpools/wordpool_EN.txt	JAIL	3	6	[0, 0, 0]	n/a	FR1	0	R1051J
871.328	2.533	1997518	WORD	n/a	wordpools/wordpool_EN.txt	MAP	4	6	[0, 0, 0]	n/a	FR1	0	R1051J
873.861	2.534	2002584	WORD	n/a	wordpools/wordpool_EN.txt	MOON	5	6	[0, 0, 0]	n/a	FR1	0	R1051J
876.395	2.5	2007652	WORD	n/a	wordpools/wordpool_EN.txt	CORD	6	6	[0, 0, 0]	n/a	FR1	0	R1051J
878.895	2.551	2012652	WORD	n/a	wordpools/wordpool_EN.txt	BOMB	7	6	[0, 0, 0]	n/a	FR1	0	R1051J
881.446	2.566	2017754	WORD	n/a	wordpools/wordpool_EN.txt	OAR	8	6	[0, 0, 0]	n/a	FR1	0	R1051J
884.012	2.601	2022886	WORD	n/a	wordpools/wordpool_EN.txt	STAR	9	6	[0, 0, 0]	n/a	FR1	0	R1051J
886.613	2.4	2028088	WORD	n/a	wordpools/wordpool_EN.txt	STEM	10	6	[0, 0, 0]	n/a	FR1	0	R1051J
889.013	2.551	2032888	WORD	n/a	wordpools/wordpool_EN.txt	BAT	11	6	[0, 0, 0]	n/a	FR1	0	R1051J
891.564	1.616	2037990	WORD	n/a	wordpools/wordpool_EN.txt	TOOTH	12	6	[0, 0, 0]	n/a	FR1	0	R1051J
893.18	0.001	2041222	DISTRACT_START	n/a	n/a	n/a	-999	6	[0, 0, 0]	n/a	FR1	0	R1051J
893.181	0.016	2041224	START	n/a	n/a	n/a	-999	6	[-999, -999, -999]	n/a	FR1	0	R1051J
893.197	5.202	2041256	PROB	5.202	n/a	n/a	-999	6	[7, 6, 1]	14	FR1	0	R1051J
898.399	3.749	2051659	PROB	3.749	n/a	n/a	-999	6	[2, 5, 3]	10	FR1	0	R1051J
902.148	5.118	2059157	PROB	5.118	n/a	n/a	-999	6	[9, 9, 8]	26	FR1	0	R1051J
907.266	3.085	2069393	PROB	3.085	n/a	n/a	-999	6	[9, 1, 3]	13	FR1	0	R1051J
910.351	3.473	2075563	PROB	3.473	n/a	n/a	-999	6	[1, 2, 8]	11	FR1	0	R1051J
913.824	0.01	2082509	STOP	n/a	n/a	n/a	-999	6	[-999, -999, -999]	n/a	FR1	0	R1051J
913.834	1.033	2082529	DISTRACT_END	n/a	n/a	n/a	-999	6	[0, 0, 0]	n/a	FR1	0	R1051J
914.867	1.028	2084595	REC_START	n/a	n/a	n/a	-999	6	[0, 0, 0]	n/a	FR1	0	R1051J
915.895	1.564	2086651	REC_WORD_VV	1.564	n/a	<>	-999	6	[0, 0, 0]	n/a	FR1	0	R1051J
917.459	2.657	2089779	REC_WORD	2.657	n/a	OAR	-999	6	[0, 0, 0]	n/a	FR1	0	R1051J
920.116	1.787	2095092	REC_WORD	1.787	n/a	JAIL	-999	6	[0, 0, 0]	n/a	FR1	0	R1051J
921.903	4.176	2098666	REC_WORD	4.176	n/a	GUM	-999	6	[0, 0, 0]	n/a	FR1	0	R1051J
926.079	3.959	2107018	REC_WORD	3.959	n/a	BRICK	-999	6	[0, 0, 0]	n/a	FR1	0	R1051J
930.038	2.253	2114936	REC_WORD	2.253	n/a	STICK	-999	6	[0, 0, 0]	n/a	FR1	0	R1051J
932.291	1.514	2119442	REC_WORD_VV	1.514	n/a	<>	-999	6	[0, 0, 0]	n/a	FR1	0	R1051J
933.805	6.39	2122470	REC_WORD	6.39	n/a	STICK	-999	6	[0, 0, 0]	n/a	FR1	0	R1051J
940.195	1.695	2135250	REC_WORD	1.695	n/a	STAR	-999	6	[0, 0, 0]	n/a	FR1	0	R1051J
941.89	1.941	2138640	REC_WORD	1.941	n/a	MOON	-999	6	[0, 0, 0]	n/a	FR1	0	R1051J
943.831	1.052	2142521	REC_WORD	1.052	n/a	STEM	-999	6	[0, 0, 0]	n/a	FR1	0	R1051J
944.883	3.439	2144625	REC_END	n/a	n/a	n/a	-999	6	[0, 0, 0]	n/a	FR1	0	R1051J
948.322	0.0	2151503	TRIAL	n/a	n/a	n/a	-999	7	[0, 0, 0]	n/a	FR1	0	R1051J
948.322	10.428	2151503	COUNTDOWN_START	n/a	n/a	n/a	-999	7	[0, 0, 0]	n/a	FR1	0	R1051J
958.75	0.007	2172359	COUNTDOWN_END	n/a	n/a	n/a	-999	7	[0, 0, 0]	n/a	FR1	0	R1051J
958.757	2.383	2172373	ORIENT	n/a	n/a	n/a	-999	7	[0, 0, 0]	n/a	FR1	0	R1051J
961.14	2.517	2177139	WORD	n/a	wordpools/wordpool_EN.txt	SUN	1	7	[0, 0, 0]	n/a	FR1	0	R1051J
963.657	2.451	2182173	WORD	n/a	wordpools/wordpool_EN.txt	TOAD	2	7	[0, 0, 0]	n/a	FR1	0	R1051J
966.108	2.567	2187074	WORD	n/a	wordpools/wordpool_EN.txt	SEA	3	7	[0, 0, 0]	n/a	FR1	0	R1051J
968.675	2.618	2192208	WORD	n/a	wordpools/wordpool_EN.txt	SNOW	4	7	[0, 0, 0]	n/a	FR1	0	R1051J
971.293	2.515	2197444	WORD	n/a	wordpools/wordpool_EN.txt	WOLF	5	7	[0, 0, 0]	n/a	FR1	0	R1051J
973.808	2.451	2202474	WORD	n/a	wordpools/wordpool_EN.txt	SHIP	6	7	[0, 0, 0]	n/a	FR1	0	R1051J
976.259	2.451	2207376	WORD	n/a	wordpools/wordpool_EN.txt	RIB	7	7	[0, 0, 0]	n/a	FR1	0	R1051J
978.71	2.383	2212278	WORD	n/a	wordpools/wordpool_EN.txt	MOLE	8	7	[0, 0, 0]	n/a	FR1	0	R1051J
981.093	2.617	2217044	WORD	n/a	wordpools/wordpool_EN.txt	MOTH	9	7	[0, 0, 0]	n/a	FR1	0	R1051J
983.71	2.601	2222278	WORD	n/a	wordpools/wordpool_EN.txt	TEETH	10	7	[0, 0, 0]	n/a	FR1	0	R1051J
986.311	2.383	2227480	WORD	n/a	wordpools/wordpool_EN.txt	FOX	11	7	[0, 0, 0]	n/a	FR1	0	R1051J
988.694	1.602	2232246	WORD	n/a	wordpools/wordpool_EN.txt	BEAR	12	7	[0, 0, 0]	n/a	FR1	0	R1051J
990.296	0.0	2235449	DISTRACT_START	n/a	n/a	n/a	-999	7	[0, 0, 0]	n/a	FR1	0	R1051J
990.296	0.016	2235449	START	n/a	n/a	n/a	-999	7	[-999, -999, -999]	n/a	FR1	0	R1051J
990.312	6.234	2235481	PROB	6.234	n/a	n/a	-999	7	[9, 7, 4]	20	FR1	0	R1051J
996.546	3.25	2247949	PROB	3.25	n/a	n/a	-999	7	[7, 3, 7]	17	FR1	0	R1051J
999.796	3.367	2254449	PROB	3.367	n/a	n/a	-999	7	[5, 2, 5]	13	FR1	0	R1051J
1003.163	4.751	2261183	PROB	4.751	n/a	n/a	-999	7	[6, 3, 5]	14	FR1	0	R1051J
1007.914	3.492	2270685	PROB	3.492	n/a	n/a	-999	7	[4, 2, 7]	13	FR1	0	R1051J
1011.406	0.009	2277669	STOP	n/a	n/a	n/a	-999	7	[-999, -999, -999]	n/a	FR1	0	R1051J
1011.415	1.068	2277687	DISTRACT_END	n/a	n/a	n/a	-999	7	[0, 0, 0]	n/a	FR1	0	R1051J
1012.483	1.667	2279823	REC_START	n/a	n/a	n/a	-999	7	[0, 0, 0]	n/a	FR1	0	R1051J
1014.15	0.648	2283156	REC_WORD_VV	0.648	n/a	<>	-999	7	[0, 0, 0]	n/a	FR1	0	R1051J
1014.798	1.362	2284452	REC_WORD	1.362	n/a	SUN	-999	7	[0, 0, 0]	n/a	FR1	0	R1051J
1016.16	1.0	2287176	REC_WORD	1.0	n/a	TOAD	-999	7	[0, 0, 0]	n/a	FR1	0	R1051J
1017.16	2.817	2289176	REC_WORD_VV	2.817	n/a	<>	-999	7	[0, 0, 0]	n/a	FR1	0	R1051J
1019.977	1.149	2294810	REC_WORD_VV	1.149	n/a	<>	-999	7	[0, 0, 0]	n/a	FR1	0	R1051J
1021.126	1.449	2297108	REC_WORD	1.449	n/a	SUN	-999	7	[0, 0, 0]	n/a	FR1	0	R1051J
1022.575	1.882	2300006	REC_WORD	1.882	n/a	FOX	-999	7	[0, 0, 0]	n/a	FR1	0	R1051J
1024.457	18.037	2303770	REC_WORD	18.037	n/a	BEAR	-999	7	[0, 0, 0]	n/a	FR1	0	R1051J
1042.494	4.225	2339843	REC_END	n/a	n/a	n/a	-999	7	[0, 0, 0]	n/a	FR1	0	R1051J
1046.719	0.001	2348293	COUNTDOWN_START	n/a	n/a	n/a	-999	8	[0, 0, 0]	n/a	FR1	0	R1051J
1046.72	10.427	2348295	TRIAL	n/a	n/a	n/a	-999	8	[0, 0, 0]	n/a	FR1	0	R1051J
1057.147	0.007	2369149	COUNTDOWN_END	n/a	n/a	n/a	-999	8	[0, 0, 0]	n/a	FR1	0	R1051J
1057.154	2.418	2369163	ORIENT	n/a	n/a	n/a	-999	8	[0, 0, 0]	n/a	FR1	0	R1051J
1059.572	2.549	2373999	WORD	n/a	wordpools/wordpool_EN.txt	HILL	1	8	[0, 0, 0]	n/a	FR1	0	R1051J
1062.121	2.584	2379096	WORD	n/a	wordpools/wordpool_EN.txt	CLOUD	2	8	[0, 0, 0]	n/a	FR1	0	R1051J
1064.705	2.551	2384264	WORD	n/a	wordpools/wordpool_EN.txt	SHOE	3	8	[0, 0, 0]	n/a	FR1	0	R1051J
1067.256	2.4	2389366	WORD	n/a	wordpools/wordpool_EN.txt	BOX	4	8	[0, 0, 0]	n/a	FR1	0	R1051J
1069.656	2.584	2394166	WORD	n/a	wordpools/wordpool_EN.txt	RICE	5	8	[0, 0, 0]	n/a	FR1	0	R1051J
1072.24	2.617	2399334	WORD	n/a	wordpools/wordpool_EN.txt	TOAST	6	8	[0, 0, 0]	n/a	FR1	0	R1051J
1074.857	2.435	2404568	WORD	n/a	wordpools/wordpool_EN.txt	RAIN	7	8	[0, 0, 0]	n/a	FR1	0	R1051J
1077.292	2.566	2409438	WORD	n/a	wordpools/wordpool_EN.txt	ELF	8	8	[0, 0, 0]	n/a	FR1	0	R1051J
1079.858	2.618	2414570	WORD	n/a	wordpools/wordpool_EN.txt	FILM	9	8	[0, 0, 0]	n/a	FR1	0	R1051J
1082.476	2.382	2419806	WORD	n/a	wordpools/wordpool_EN.txt	CHIN	10	8	[0, 0, 0]	n/a	FR1	0	R1051J
1084.858	2.452	2424570	WORD	n/a	wordpools/wordpool_EN.txt	SWAMP	11	8	[0, 0, 0]	n/a	FR1	0	R1051J
1087.31	1.616	2429473	WORD	n/a	wordpools/wordpool_EN.txt	SALT	12	8	[0, 0, 0]	n/a	FR1	0	R1051J
1088.926	0.001	2432705	DISTRACT_START	n/a	n/a	n/a	-999	8	[0, 0, 0]	n/a	FR1	0	R1051J
1088.927	0.015	2432707	START	n/a	n/a	n/a	-999	8	[-999, -999, -999]	n/a	FR1	0	R1051J
1088.942	5.585	2432737	PROB	5.585	n/a	n/a	-999	8	[1, 7, 3]	11	FR1	0	R1051J
1094.527	2.5	2443907	PROB	2.5	n/a	n/a	-999	8	[4, 6, 1]	11	FR1	0	R1051J
1097.027	3.418	2448907	PROB	3.418	n/a	n/a	-999	8	[7, 4, 1]	12	FR1	0	R1051J
1100.445	3.867	2455743	PROB	3.867	n/a	n/a	-999	8	[5, 5, 8]	18	FR1	0	R1051J
1104.312	4.001	2463477	PROB	4.001	n/a	n/a	-999	8	[8, 1, 7]	16	FR1	0	R1051J
1108.313	9.035	2471479	PROB	9.035	n/a	n/a	-999	8	[7, 9, 7]	23	FR1	0	R1051J
1117.348	0.016	2489548	STOP	n/a	n/a	n/a	-999	8	[-999, -999, -999]	n/a	FR1	0	R1051J
1117.364	1.034	2489580	DISTRACT_END	n/a	n/a	n/a	-999	8	[0, 0, 0]	n/a	FR1	0	R1051J
1118.398	1.198	2491648	REC_START	n/a	n/a	n/a	-999	8	[0, 0, 0]	n/a	FR1	0	R1051J
1119.596	0.931	2494044	REC_WORD_VV	0.931	n/a	<>	-999	8	[0, 0, 0]	n/a	FR1	0	R1051J
1120.527	0.435	2495906	REC_WORD	0.435	n/a	SHOE	-999	8	[0, 0, 0]	n/a	FR1	0	R1051J
1120.962	1.691	2496776	REC_WORD	1.691	n/a	BOX	-999	8	[0, 0, 0]	n/a	FR1	0	R1051J
1122.653	3.494	2500158	REC_WORD	3.494	n/a	HILL	-999	8	[0, 0, 0]	n/a	FR1	0	R1051J
1126.147	2.531	2507146	REC_WORD_VV	2.531	n/a	<>	-999	8	[0, 0, 0]	n/a	FR1	0	R1051J
1128.678	9.736	2512208	REC_WORD	9.736	n/a	SKY	-999	8	[0, 0, 0]	n/a	FR1	0	R1051J
1138.414	1.605	2531679	REC_WORD_VV	1.605	n/a	<>	-999	8	[0, 0, 0]	n/a	FR1	0	R1051J
1140.019	2.555	2534889	REC_WORD_VV	2.555	n/a	<>	-999	8	[0, 0, 0]	n/a	FR1	0	R1051J
1142.574	5.835	2539999	REC_WORD_VV	5.835	n/a	<>	-999	8	[0, 0, 0]	n/a	FR1	0	R1051J
1148.409	4.259	2551669	REC_END	n/a	n/a	n/a	-999	8	[0, 0, 0]	n/a	FR1	0	R1051J
1152.668	0.001	2560187	COUNTDOWN_START	n/a	n/a	n/a	-999	9	[0, 0, 0]	n/a	FR1	0	R1051J
1152.669	10.427	2560189	TRIAL	n/a	n/a	n/a	-999	9	[0, 0, 0]	n/a	FR1	0	R1051J
1163.096	0.023	2581042	COUNTDOWN_END	n/a	n/a	n/a	-999	9	[0, 0, 0]	n/a	FR1	0	R1051J
1163.119	2.502	2581088	ORIENT	n/a	n/a	n/a	-999	9	[0, 0, 0]	n/a	FR1	0	R1051J
1165.621	2.499	2586092	WORD	n/a	wordpools/wordpool_EN.txt	PIPE	1	9	[0, 0, 0]	n/a	FR1	0	R1051J
1168.12	2.517	2591090	WORD	n/a	wordpools/wordpool_EN.txt	STRING	2	9	[0, 0, 0]	n/a	FR1	0	R1051J
1170.637	2.384	2596124	WORD	n/a	wordpools/wordpool_EN.txt	ROOM	3	9	[0, 0, 0]	n/a	FR1	0	R1051J
1173.021	2.401	2600892	WORD	n/a	wordpools/wordpool_EN.txt	DART	4	9	[0, 0, 0]	n/a	FR1	0	R1051J
1175.422	2.516	2605694	WORD	n/a	wordpools/wordpool_EN.txt	BAND	5	9	[0, 0, 0]	n/a	FR1	0	R1051J
1177.938	2.485	2610726	WORD	n/a	wordpools/wordpool_EN.txt	CHEEK	6	9	[0, 0, 0]	n/a	FR1	0	R1051J
1180.423	2.4	2615696	WORD	n/a	wordpools/wordpool_EN.txt	NEST	7	9	[0, 0, 0]	n/a	FR1	0	R1051J
1182.823	2.467	2620495	WORD	n/a	wordpools/wordpool_EN.txt	HAT	8	9	[0, 0, 0]	n/a	FR1	0	R1051J
1185.29	2.6	2625429	WORD	n/a	wordpools/wordpool_EN.txt	DOLL	9	9	[0, 0, 0]	n/a	FR1	0	R1051J
1187.89	2.435	2630629	WORD	n/a	wordpools/wordpool_EN.txt	BIRD	10	9	[0, 0, 0]	n/a	FR1	0	R1051J
1190.325	2.432	2635499	WORD	n/a	wordpools/wordpool_EN.txt	CRANE	11	9	[0, 0, 0]	n/a	FR1	0	R1051J
1192.757	1.601	2640363	WORD	n/a	wordpools/wordpool_EN.txt	TAIL	12	9	[0, 0, 0]	n/a	FR1	0	R1051J
1194.358	0.001	2643565	DISTRACT_START	n/a	n/a	n/a	-999	9	[0, 0, 0]	n/a	FR1	0	R1051J
1194.359	0.016	2643567	START	n/a	n/a	n/a	-999	9	[-999, -999, -999]	n/a	FR1	0	R1051J
1194.375	4.6	2643599	PROB	4.6	n/a	n/a	-999	9	[9, 3, 2]	15	FR1	0	R1051J
1198.975	4.435	2652799	PROB	4.435	n/a	n/a	-999	9	[5, 5, 4]	14	FR1	0	R1051J
1203.41	4.7	2661669	PROB	4.7	n/a	n/a	-999	9	[7, 8, 4]	19	FR1	0	R1051J
1208.11	4.268	2671068	PROB	4.268	n/a	n/a	-999	9	[8, 5, 5]	18	FR1	0	R1051J
1212.378	3.952	2679604	PROB	3.952	n/a	n/a	-999	9	[5, 3, 3]	11	FR1	0	R1051J
1216.33	0.015	2687508	STOP	n/a	n/a	n/a	-999	9	[-999, -999, -999]	n/a	FR1	0	R1051J
1216.345	1.051	2687538	DISTRACT_END	n/a	n/a	n/a	-999	9	[0, 0, 0]	n/a	FR1	0	R1051J
1217.396	1.147	2689640	REC_START	n/a	n/a	n/a	-999	9	[0, 0, 0]	n/a	FR1	0	R1051J
1218.543	2.361	2691934	REC_WORD_VV	2.361	n/a	<>	-999	9	[0, 0, 0]	n/a	FR1	0	R1051J
1220.904	1.055	2696656	REC_WORD	1.055	n/a	BIRD	-999	9	[0, 0, 0]	n/a	FR1	0	R1051J
1221.959	1.929	2698766	REC_WORD	1.929	n/a	NEST	-999	9	[0, 0, 0]	n/a	FR1	0	R1051J
1223.888	1.596	2702624	REC_WORD_VV	1.596	n/a	<>	-999	9	[0, 0, 0]	n/a	FR1	0	R1051J
1225.484	5.322	2705816	REC_WORD	5.322	n/a	KALE	-999	9	[0, 0, 0]	n/a	FR1	0	R1051J
1230.806	0.257	2716459	REC_WORD_VV	0.257	n/a	<>	-999	9	[0, 0, 0]	n/a	FR1	0	R1051J
1231.063	2.717	2716973	REC_WORD	2.717	n/a	TAIL	-999	9	[0, 0, 0]	n/a	FR1	0	R1051J
1233.78	13.627	2722407	REC_WORD	13.627	n/a	HAT	-999	9	[0, 0, 0]	n/a	FR1	0	R1051J
1247.407	12.494	2749661	REC_END	n/a	n/a	n/a	-999	9	[0, 0, 0]	n/a	FR1	0	R1051J
1259.901	0.0	2774648	TRIAL	n/a	n/a	n/a	-999	10	[0, 0, 0]	n/a	FR1	0	R1051J
1259.901	10.428	2774648	COUNTDOWN_START	n/a	n/a	n/a	-999	10	[0, 0, 0]	n/a	FR1	0	R1051J
1270.329	0.007	2795504	COUNTDOWN_END	n/a	n/a	n/a	-999	10	[0, 0, 0]	n/a	FR1	0	R1051J
1270.336	2.583	2795518	ORIENT	n/a	n/a	n/a	-999	10	[0, 0, 0]	n/a	FR1	0	R1051J
1272.919	2.551	2800684	WORD	n/a	wordpools/wordpool_EN.txt	CAT	1	10	[0, 0, 0]	n/a	FR1	0	R1051J
1275.47	2.416	2805786	WORD	n/a	wordpools/wordpool_EN.txt	TANK	2	10	[0, 0, 0]	n/a	FR1	0	R1051J
1277.886	2.368	2810617	WORD	n/a	wordpools/wordpool_EN.txt	BOAT	3	10	[0, 0, 0]	n/a	FR1	0	R1051J
1280.254	2.467	2815353	WORD	n/a	wordpools/wordpool_EN.txt	SPARK	4	10	[0, 0, 0]	n/a	FR1	0	R1051J
1282.721	2.45	2820287	WORD	n/a	wordpools/wordpool_EN.txt	WORM	5	10	[0, 0, 0]	n/a	FR1	0	R1051J
1285.171	2.483	2825187	WORD	n/a	wordpools/wordpool_EN.txt	HOSE	6	10	[0, 0, 0]	n/a	FR1	0	R1051J
1287.654	2.517	2830153	WORD	n/a	wordpools/wordpool_EN.txt	TRASH	7	10	[0, 0, 0]	n/a	FR1	0	R1051J
1290.171	2.484	2835187	WORD	n/a	wordpools/wordpool_EN.txt	KITE	8	10	[0, 0, 0]	n/a	FR1	0	R1051J
1292.655	2.584	2840155	WORD	n/a	wordpools/wordpool_EN.txt	FISH	9	10	[0, 0, 0]	n/a	FR1	0	R1051J
1295.239	2.55	2845323	WORD	n/a	wordpools/wordpool_EN.txt	WHEEL	10	10	[0, 0, 0]	n/a	FR1	0	R1051J
1297.789	2.552	2850423	WORD	n/a	wordpools/wordpool_EN.txt	DOG	11	10	[0, 0, 0]	n/a	FR1	0	R1051J
1300.341	1.616	2855526	WORD	n/a	wordpools/wordpool_EN.txt	LAND	12	10	[0, 0, 0]	n/a	FR1	0	R1051J
1301.957	0.0	2858758	DISTRACT_START	n/a	n/a	n/a	-999	10	[0, 0, 0]	n/a	FR1	0	R1051J
1301.957	0.016	2858758	START	n/a	n/a	n/a	-999	10	[-999, -999, -999]	n/a	FR1	0	R1051J
1301.973	3.552	2858790	PROB	3.552	n/a	n/a	-999	10	[2, 2, 5]	9	FR1	0	R1051J
1305.525	3.616	2865894	PROB	3.616	n/a	n/a	-999	10	[1, 2, 9]	12	FR1	0	R1051J
1309.141	4.268	2873126	PROB	4.268	n/a	n/a	-999	10	[8, 3, 8]	20	FR1	0	R1051J
1313.409	4.25	2881662	PROB	4.25	n/a	n/a	-999	10	[2, 6, 8]	16	FR1	0	R1051J
1317.659	2.685	2890162	PROB	2.685	n/a	n/a	-999	10	[5, 1, 6]	12	FR1	0	R1051J
1320.344	3.0	2895532	PROB	3.0	n/a	n/a	-999	10	[1, 7, 4]	12	FR1	0	R1051J
1323.344	0.017	2901532	STOP	n/a	n/a	n/a	-999	10	[-999, -999, -999]	n/a	FR1	0	R1051J
1323.361	1.067	2901566	DISTRACT_END	n/a	n/a	n/a	-999	10	[0, 0, 0]	n/a	FR1	0	R1051J
1324.428	1.899	2903699	REC_START	n/a	n/a	n/a	-999	10	[0, 0, 0]	n/a	FR1	0	R1051J
1326.327	0.502	2907497	REC_WORD	0.502	n/a	CAT	-999	10	[0, 0, 0]	n/a	FR1	0	R1051J
1326.829	0.655	2908501	REC_WORD	0.655	n/a	FISH	-999	10	[0, 0, 0]	n/a	FR1	0	R1051J
1327.484	0.772	2909811	REC_WORD	0.772	n/a	TANK	-999	10	[0, 0, 0]	n/a	FR1	0	R1051J
1328.256	2.799	2911355	REC_WORD	2.799	n/a	DOG	-999	10	[0, 0, 0]	n/a	FR1	0	R1051J
1331.055	12.901	2916953	REC_WORD_VV	12.901	n/a	<>	-999	10	[0, 0, 0]	n/a	FR1	0	R1051J
1343.956	1.224	2942755	REC_WORD	1.224	n/a	SEA	-999	10	[0, 0, 0]	n/a	FR1	0	R1051J
1345.18	1.0	2945203	REC_WORD_VV	1.0	n/a	<>	-999	10	[0, 0, 0]	n/a	FR1	0	R1051J
1346.18	8.263	2947203	REC_WORD_VV	8.263	n/a	<>	-999	10	[0, 0, 0]	n/a	FR1	0	R1051J
1354.443	5.322	2963728	REC_END	n/a	n/a	n/a	-999	10	[0, 0, 0]	n/a	FR1	0	R1051J
1359.765	0.0	2974372	TRIAL	n/a	n/a	n/a	-999	11	[0, 0, 0]	n/a	FR1	0	R1051J
1359.765	10.428	2974372	COUNTDOWN_START	n/a	n/a	n/a	-999	11	[0, 0, 0]	n/a	FR1	0	R1051J
1370.193	0.007	2995228	COUNTDOWN_END	n/a	n/a	n/a	-999	11	[0, 0, 0]	n/a	FR1	0	R1051J
1370.2	2.584	2995242	ORIENT	n/a	n/a	n/a	-999	11	[0, 0, 0]	n/a	FR1	0	R1051J
1372.784	2.467	3000409	WORD	n/a	wordpools/wordpool_EN.txt	BRUSH	1	11	[0, 0, 0]	n/a	FR1	0	R1051J
1375.251	2.567	3005343	WORD	n/a	wordpools/wordpool_EN.txt	FLAME	2	11	[0, 0, 0]	n/a	FR1	0	R1051J
1377.818	2.485	3010477	WORD	n/a	wordpools/wordpool_EN.txt	STICK	3	11	[0, 0, 0]	n/a	FR1	0	R1051J
1380.303	2.499	3015447	WORD	n/a	wordpools/wordpool_EN.txt	ROSE	4	11	[0, 0, 0]	n/a	FR1	0	R1051J
1382.802	2.417	3020445	WORD	n/a	wordpools/wordpool_EN.txt	POND	5	11	[0, 0, 0]	n/a	FR1	0	R1051J
1385.219	2.417	3025279	WORD	n/a	wordpools/wordpool_EN.txt	PARK	6	11	[0, 0, 0]	n/a	FR1	0	R1051J
1387.636	2.517	3030113	WORD	n/a	wordpools/wordpool_EN.txt	SLIME	7	11	[0, 0, 0]	n/a	FR1	0	R1051J
1390.153	2.451	3035147	WORD	n/a	wordpools/wordpool_EN.txt	DEER	8	11	[0, 0, 0]	n/a	FR1	0	R1051J
1392.604	2.449	3040049	WORD	n/a	wordpools/wordpool_EN.txt	LIP	9	11	[0, 0, 0]	n/a	FR1	0	R1051J
1395.053	2.552	3044947	WORD	n/a	wordpools/wordpool_EN.txt	MAT	10	11	[0, 0, 0]	n/a	FR1	0	R1051J
1397.605	2.499	3050050	WORD	n/a	wordpools/wordpool_EN.txt	CLIFF	11	11	[0, 0, 0]	n/a	FR1	0	R1051J
1400.104	1.617	3055048	WORD	n/a	wordpools/wordpool_EN.txt	JAR	12	11	[0, 0, 0]	n/a	FR1	0	R1051J
1401.721	0.001	3058282	DISTRACT_START	n/a	n/a	n/a	-999	11	[0, 0, 0]	n/a	FR1	0	R1051J
1401.722	0.016	3058284	START	n/a	n/a	n/a	-999	11	[-999, -999, -999]	n/a	FR1	0	R1051J
1401.738	13.803	3058316	PROB	13.803	n/a	n/a	-999	11	[9, 7, 6]	24	FR1	0	R1051J
1415.541	6.05	3085922	PROB	6.05	n/a	n/a	-999	11	[4, 3, 6]	13	FR1	0	R1051J
1421.591	4.085	3098021	PROB	4.085	n/a	n/a	-999	11	[2, 4, 8]	14	FR1	0	R1051J
1425.676	0.015	3106191	STOP	n/a	n/a	n/a	-999	11	[-999, -999, -999]	n/a	FR1	0	R1051J
1425.691	1.168	3106221	DISTRACT_END	n/a	n/a	n/a	-999	11	[0, 0, 0]	n/a	FR1	0	R1051J
1426.859	1.205	3108557	REC_START	n/a	n/a	n/a	-999	11	[0, 0, 0]	n/a	FR1	0	R1051J
1428.064	2.72	3110967	REC_WORD_VV	2.72	n/a	<>	-999	11	[0, 0, 0]	n/a	FR1	0	R1051J
1430.784	1.349	3116407	REC_WORD	1.349	n/a	PARK	-999	11	[0, 0, 0]	n/a	FR1	0	R1051J
1432.133	1.963	3119105	REC_WORD	1.963	n/a	POND	-999	11	[0, 0, 0]	n/a	FR1	0	R1051J
1434.096	11.42	3123031	REC_WORD	11.42	n/a	DEER	-999	11	[0, 0, 0]	n/a	FR1	0	R1051J
1445.516	2.677	3145870	REC_WORD	2.677	n/a	LAKE	-999	11	[0, 0, 0]	n/a	FR1	0	R1051J
1448.193	0.776	3151224	REC_WORD_VV	0.776	n/a	<>	-999	11	[0, 0, 0]	n/a	FR1	0	R1051J
1448.969	7.901	3152776	REC_WORD_VV	7.901	n/a	<>	-999	11	[0, 0, 0]	n/a	FR1	0	R1051J
1456.87	5.577	3168578	REC_END	n/a	n/a	n/a	-999	11	[0, 0, 0]	n/a	FR1	0	R1051J
1462.447	0.0	3179732	TRIAL	n/a	n/a	n/a	-999	12	[0, 0, 0]	n/a	FR1	0	R1051J
1462.447	10.428	3179732	COUNTDOWN_START	n/a	n/a	n/a	-999	12	[0, 0, 0]	n/a	FR1	0	R1051J
1472.875	0.006	3200587	COUNTDOWN_END	n/a	n/a	n/a	-999	12	[0, 0, 0]	n/a	FR1	0	R1051J
1472.881	2.501	3200599	ORIENT	n/a	n/a	n/a	-999	12	[0, 0, 0]	n/a	FR1	0	R1051J
1475.382	2.383	3205601	WORD	n/a	wordpools/wordpool_EN.txt	BLOOM	1	12	[0, 0, 0]	n/a	FR1	0	R1051J
1477.765	2.384	3210367	WORD	n/a	wordpools/wordpool_EN.txt	BROOM	2	12	[0, 0, 0]	n/a	FR1	0	R1051J
1480.149	2.583	3215135	WORD	n/a	wordpools/wordpool_EN.txt	BRANCH	3	12	[0, 0, 0]	n/a	FR1	0	R1051J
1482.732	2.401	3220301	WORD	n/a	wordpools/wordpool_EN.txt	ROAD	4	12	[0, 0, 0]	n/a	FR1	0	R1051J
1485.133	2.418	3225103	WORD	n/a	wordpools/wordpool_EN.txt	OAK	5	12	[0, 0, 0]	n/a	FR1	0	R1051J
1487.551	2.549	3229939	WORD	n/a	wordpools/wordpool_EN.txt	GRASS	6	12	[0, 0, 0]	n/a	FR1	0	R1051J
1490.1	2.385	3235037	WORD	n/a	wordpools/wordpool_EN.txt	VINE	7	12	[0, 0, 0]	n/a	FR1	0	R1051J
1492.485	2.633	3239806	WORD	n/a	wordpools/wordpool_EN.txt	STRAW	8	12	[0, 0, 0]	n/a	FR1	0	R1051J
1495.118	2.6	3245072	WORD	n/a	wordpools/wordpool_EN.txt	ROPE	9	12	[0, 0, 0]	n/a	FR1	0	R1051J
1497.718	2.517	3250272	WORD	n/a	wordpools/wordpool_EN.txt	PANTS	10	12	[0, 0, 0]	n/a	FR1	0	R1051J
1500.235	2.617	3255306	WORD	n/a	wordpools/wordpool_EN.txt	PEACH	11	12	[0, 0, 0]	n/a	FR1	0	R1051J
1502.852	1.601	3260540	WORD	n/a	wordpools/wordpool_EN.txt	WEED	12	12	[0, 0, 0]	n/a	FR1	0	R1051J
1504.453	0.001	3263742	DISTRACT_START	n/a	n/a	n/a	-999	12	[0, 0, 0]	n/a	FR1	0	R1051J
1504.454	0.016	3263744	START	n/a	n/a	n/a	-999	12	[-999, -999, -999]	n/a	FR1	0	R1051J
1504.47	4.167	3263776	PROB	4.167	n/a	n/a	-999	12	[8, 6, 9]	21	FR1	0	R1051J
1508.637	5.584	3272110	PROB	5.584	n/a	n/a	-999	12	[8, 4, 6]	18	FR1	0	R1051J
1514.221	4.168	3283278	PROB	4.168	n/a	n/a	-999	12	[9, 2, 7]	18	FR1	0	R1051J
1518.389	3.649	3291613	PROB	3.649	n/a	n/a	-999	12	[3, 5, 2]	10	FR1	0	R1051J
1522.038	4.012	3298911	PROB	4.012	n/a	n/a	-999	12	[7, 7, 6]	20	FR1	0	R1051J
1526.05	0.005	3306935	STOP	n/a	n/a	n/a	-999	12	[-999, -999, -999]	n/a	FR1	0	R1051J
1526.055	1.185	3306945	DISTRACT_END	n/a	n/a	n/a	-999	12	[0, 0, 0]	n/a	FR1	0	R1051J
1527.24	1.5	3309315	REC_START	n/a	n/a	n/a	-999	12	[0, 0, 0]	n/a	FR1	0	R1051J
1528.74	1.513	3312315	REC_WORD	1.513	n/a	GLOOM	-999	12	[0, 0, 0]	n/a	FR1	0	R1051J
1530.253	1.896	3315341	REC_WORD	1.896	n/a	GROOM	-999	12	[0, 0, 0]	n/a	FR1	0	R1051J
1532.149	2.265	3319133	REC_WORD	2.265	n/a	OAK	-999	12	[0, 0, 0]	n/a	FR1	0	R1051J
1534.414	6.607	3323663	REC_WORD	6.607	n/a	STRAW	-999	12	[0, 0, 0]	n/a	FR1	0	R1051J
1541.021	16.23	3336876	REC_WORD_VV	16.23	n/a	<>	-999	12	[0, 0, 0]	n/a	FR1	0	R1051J
1557.251	3.211	3369336	REC_END	n/a	n/a	n/a	-999	12	[0, 0, 0]	n/a	FR1	0	R1051J
1560.462	0.0	3375758	TRIAL	n/a	n/a	n/a	-999	13	[0, 0, 0]	n/a	FR1	0	R1051J
1560.462	10.428	3375758	COUNTDOWN_START	n/a	n/a	n/a	-999	13	[0, 0, 0]	n/a	FR1	0	R1051J
1570.89	0.005	3396613	COUNTDOWN_END	n/a	n/a	n/a	-999	13	[0, 0, 0]	n/a	FR1	0	R1051J
1570.895	2.618	3396623	ORIENT	n/a	n/a	n/a	-999	13	[0, 0, 0]	n/a	FR1	0	R1051J
1573.513	2.45	3401859	WORD	n/a	wordpools/wordpool_EN.txt	BALL	1	13	[0, 0, 0]	n/a	FR1	0	R1051J
1575.963	2.401	3406759	WORD	n/a	wordpools/wordpool_EN.txt	GLOVE	2	13	[0, 0, 0]	n/a	FR1	0	R1051J
1578.364	2.499	3411561	WORD	n/a	wordpools/wordpool_EN.txt	DRUM	3	13	[0, 0, 0]	n/a	FR1	0	R1051J
1580.863	2.585	3416559	WORD	n/a	wordpools/wordpool_EN.txt	PALM	4	13	[0, 0, 0]	n/a	FR1	0	R1051J
1583.448	2.483	3421729	WORD	n/a	wordpools/wordpool_EN.txt	PLATE	5	13	[0, 0, 0]	n/a	FR1	0	R1051J
1585.931	2.551	3426695	WORD	n/a	wordpools/wordpool_EN.txt	PRINCE	6	13	[0, 0, 0]	n/a	FR1	0	R1051J
1588.482	2.533	3431796	WORD	n/a	wordpools/wordpool_EN.txt	CHAIR	7	13	[0, 0, 0]	n/a	FR1	0	R1051J
1591.015	2.418	3436862	WORD	n/a	wordpools/wordpool_EN.txt	NET	8	13	[0, 0, 0]	n/a	FR1	0	R1051J
1593.433	2.482	3441698	WORD	n/a	wordpools/wordpool_EN.txt	TREE	9	13	[0, 0, 0]	n/a	FR1	0	R1051J
1595.915	2.518	3446662	WORD	n/a	wordpools/wordpool_EN.txt	VASE	10	13	[0, 0, 0]	n/a	FR1	0	R1051J
1598.433	2.417	3451698	WORD	n/a	wordpools/wordpool_EN.txt	SHARK	11	13	[0, 0, 0]	n/a	FR1	0	R1051J
1600.85	1.617	3456532	WORD	n/a	wordpools/wordpool_EN.txt	COIN	12	13	[0, 0, 0]	n/a	FR1	0	R1051J
1602.467	0.001	3459766	DISTRACT_START	n/a	n/a	n/a	-999	13	[0, 0, 0]	n/a	FR1	0	R1051J
1602.468	0.016	3459768	START	n/a	n/a	n/a	-999	13	[-999, -999, -999]	n/a	FR1	0	R1051J
1602.484	4.017	3459800	PROB	4.017	n/a	n/a	-999	13	[4, 6, 9]	19	FR1	0	R1051J
1606.501	4.901	3467834	PROB	4.901	n/a	n/a	-999	13	[8, 3, 2]	13	FR1	0	R1051J
1611.402	3.433	3477635	PROB	3.433	n/a	n/a	-999	13	[6, 4, 7]	17	FR1	0	R1051J
1614.835	3.485	3484501	PROB	3.485	n/a	n/a	-999	13	[1, 7, 3]	11	FR1	0	R1051J
1618.32	3.533	3491471	PROB	3.533	n/a	n/a	-999	13	[8, 1, 4]	13	FR1	0	R1051J
1621.853	4.322	3498537	PROB	4.322	n/a	n/a	-999	13	[7, 7, 6]	20	FR1	0	R1051J
1626.175	0.011	3507181	STOP	n/a	n/a	n/a	-999	13	[-999, -999, -999]	n/a	FR1	0	R1051J
1626.186	1.136	3507203	DISTRACT_END	n/a	n/a	n/a	-999	13	[0, 0, 0]	n/a	FR1	0	R1051J
1627.322	1.263	3509475	REC_START	n/a	n/a	n/a	-999	13	[0, 0, 0]	n/a	FR1	0	R1051J
1628.585	0.982	3512001	REC_WORD_VV	0.982	n/a	<>	-999	13	[0, 0, 0]	n/a	FR1	0	R1051J
1629.567	0.387	3513965	REC_WORD	0.387	n/a	BALL	-999	13	[0, 0, 0]	n/a	FR1	0	R1051J
1629.954	2.303	3514739	REC_WORD	2.303	n/a	GLOVE	-999	13	[0, 0, 0]	n/a	FR1	0	R1051J
1632.257	1.308	3519345	REC_WORD	1.308	n/a	SHARK	-999	13	[0, 0, 0]	n/a	FR1	0	R1051J
1633.565	1.238	3521961	REC_WORD	1.238	n/a	PRINCE	-999	13	[0, 0, 0]	n/a	FR1	0	R1051J
1634.803	1.466	3524436	REC_WORD	1.466	n/a	CHAIR	-999	13	[0, 0, 0]	n/a	FR1	0	R1051J
1636.269	6.756	3527368	REC_WORD	6.756	n/a	VASE	-999	13	[0, 0, 0]	n/a	FR1	0	R1051J
1643.025	14.308	3540880	REC_WORD_VV	14.308	n/a	<>	-999	13	[0, 0, 0]	n/a	FR1	0	R1051J
1657.333	5.592	3569496	REC_END	n/a	n/a	n/a	-999	13	[0, 0, 0]	n/a	FR1	0	R1051J
1662.925	0.0	3580679	COUNTDOWN_START	n/a	n/a	n/a	-999	14	[0, 0, 0]	n/a	FR1	0	R1051J
1662.925	10.428	3580679	TRIAL	n/a	n/a	n/a	-999	14	[0, 0, 0]	n/a	FR1	0	R1051J
1673.353	0.008	3601535	COUNTDOWN_END	n/a	n/a	n/a	-999	14	[0, 0, 0]	n/a	FR1	0	R1051J
1673.361	2.449	3601551	ORIENT	n/a	n/a	n/a	-999	14	[0, 0, 0]	n/a	FR1	0	R1051J
1675.81	2.434	3606449	WORD	n/a	wordpools/wordpool_EN.txt	FOOT	1	14	[0, 0, 0]	n/a	FR1	0	R1051J
1678.244	2.433	3611317	WORD	n/a	wordpools/wordpool_EN.txt	HORSE	2	14	[0, 0, 0]	n/a	FR1	0	R1051J
1680.677	2.451	3616183	WORD	n/a	wordpools/wordpool_EN.txt	CALF	3	14	[0, 0, 0]	n/a	FR1	0	R1051J
1683.128	2.501	3621084	WORD	n/a	wordpools/wordpool_EN.txt	BAG	4	14	[0, 0, 0]	n/a	FR1	0	R1051J
1685.629	2.483	3626086	WORD	n/a	wordpools/wordpool_EN.txt	NOSE	5	14	[0, 0, 0]	n/a	FR1	0	R1051J
1688.112	2.534	3631052	WORD	n/a	wordpools/wordpool_EN.txt	DITCH	6	14	[0, 0, 0]	n/a	FR1	0	R1051J
1690.646	2.517	3636120	WORD	n/a	wordpools/wordpool_EN.txt	WAND	7	14	[0, 0, 0]	n/a	FR1	0	R1051J
1693.163	2.6	3641154	WORD	n/a	wordpools/wordpool_EN.txt	SHIRT	8	14	[0, 0, 0]	n/a	FR1	0	R1051J
1695.763	2.618	3646354	WORD	n/a	wordpools/wordpool_EN.txt	MOUTH	9	14	[0, 0, 0]	n/a	FR1	0	R1051J
1698.381	2.4	3651590	WORD	n/a	wordpools/wordpool_EN.txt	CHALK	10	14	[0, 0, 0]	n/a	FR1	0	R1051J
1700.781	2.4	3656390	WORD	n/a	wordpools/wordpool_EN.txt	SINK	11	14	[0, 0, 0]	n/a	FR1	0	R1051J
1703.181	1.617	3661190	WORD	n/a	wordpools/wordpool_EN.txt	MUD	12	14	[0, 0, 0]	n/a	FR1	0	R1051J
1704.798	0.001	3664424	DISTRACT_START	n/a	n/a	n/a	-999	14	[0, 0, 0]	n/a	FR1	0	R1051J
1704.799	0.015	3664426	START	n/a	n/a	n/a	-999	14	[-999, -999, -999]	n/a	FR1	0	R1051J
1704.814	5.968	3664456	PROB	5.968	n/a	n/a	-999	14	[7, 2, 4]	13	FR1	0	R1051J
1710.782	3.851	3676391	PROB	3.851	n/a	n/a	-999	14	[8, 4, 3]	15	FR1	0	R1051J
1714.633	5.668	3684093	PROB	5.668	n/a	n/a	-999	14	[7, 9, 9]	25	FR1	0	R1051J
1720.301	3.816	3695429	PROB	3.816	n/a	n/a	-999	14	[6, 5, 5]	16	FR1	0	R1051J
1724.117	3.872	3703061	PROB	3.872	n/a	n/a	-999	14	[1, 4, 2]	7	FR1	0	R1051J
1727.989	0.012	3710805	STOP	n/a	n/a	n/a	-999	14	[-999, -999, -999]	n/a	FR1	0	R1051J
1728.001	1.051	3710829	DISTRACT_END	n/a	n/a	n/a	-999	14	[0, 0, 0]	n/a	FR1	0	R1051J
1729.052	1.08	3712931	REC_START	n/a	n/a	n/a	-999	14	[0, 0, 0]	n/a	FR1	0	R1051J
1730.132	0.927	3715090	REC_WORD_VV	0.927	n/a	<>	-999	14	[0, 0, 0]	n/a	FR1	0	R1051J
1731.059	0.355	3716944	REC_WORD	0.355	n/a	FOOT	-999	14	[0, 0, 0]	n/a	FR1	0	R1051J
1731.414	0.584	3717654	REC_WORD	0.584	n/a	MOUTH	-999	14	[0, 0, 0]	n/a	FR1	0	R1051J
1731.998	2.183	3718822	REC_WORD	2.183	n/a	TONGUE	-999	14	[0, 0, 0]	n/a	FR1	0	R1051J
1734.181	24.881	3723188	REC_WORD	24.881	n/a	HORSE	-999	14	[0, 0, 0]	n/a	FR1	0	R1051J
1759.062	3.512	3772949	REC_END	n/a	n/a	n/a	-999	14	[0, 0, 0]	n/a	FR1	0	R1051J
1762.574	0.0	3779973	TRIAL	n/a	n/a	n/a	-999	15	[0, 0, 0]	n/a	FR1	0	R1051J
1762.574	10.428	3779973	COUNTDOWN_START	n/a	n/a	n/a	-999	15	[0, 0, 0]	n/a	FR1	0	R1051J
1773.002	0.006	3800829	COUNTDOWN_END	n/a	n/a	n/a	-999	15	[0, 0, 0]	n/a	FR1	0	R1051J
1773.008	2.484	3800841	ORIENT	n/a	n/a	n/a	-999	15	[0, 0, 0]	n/a	FR1	0	R1051J
1775.492	2.45	3805809	WORD	n/a	wordpools/wordpool_EN.txt	MAIL	1	15	[0, 0, 0]	n/a	FR1	0	R1051J
1777.942	2.501	3810708	WORD	n/a	wordpools/wordpool_EN.txt	BANK	2	15	[0, 0, 0]	n/a	FR1	0	R1051J
1780.443	2.583	3815710	WORD	n/a	wordpools/wordpool_EN.txt	STORE	3	15	[0, 0, 0]	n/a	FR1	0	R1051J
1783.026	2.418	3820876	WORD	n/a	wordpools/wordpool_EN.txt	LAWN	4	15	[0, 0, 0]	n/a	FR1	0	R1051J
1785.444	2.616	3825712	WORD	n/a	wordpools/wordpool_EN.txt	PHONE	5	15	[0, 0, 0]	n/a	FR1	0	R1051J
1788.06	2.451	3830944	WORD	n/a	wordpools/wordpool_EN.txt	KEY	6	15	[0, 0, 0]	n/a	FR1	0	R1051J
1790.511	2.483	3835846	WORD	n/a	wordpools/wordpool_EN.txt	FUDGE	7	15	[0, 0, 0]	n/a	FR1	0	R1051J
1792.994	2.451	3840812	WORD	n/a	wordpools/wordpool_EN.txt	CASH	8	15	[0, 0, 0]	n/a	FR1	0	R1051J
1795.445	2.45	3845714	WORD	n/a	wordpools/wordpool_EN.txt	WALL	9	15	[0, 0, 0]	n/a	FR1	0	R1051J
1797.895	2.534	3850614	WORD	n/a	wordpools/wordpool_EN.txt	MILK	10	15	[0, 0, 0]	n/a	FR1	0	R1051J
1800.429	2.517	3855682	WORD	n/a	wordpools/wordpool_EN.txt	FOG	11	15	[0, 0, 0]	n/a	FR1	0	R1051J
1802.946	1.617	3860715	WORD	n/a	wordpools/wordpool_EN.txt	HEART	12	15	[0, 0, 0]	n/a	FR1	0	R1051J
1804.563	0.001	3863949	DISTRACT_START	n/a	n/a	n/a	-999	15	[0, 0, 0]	n/a	FR1	0	R1051J
1804.564	0.016	3863951	START	n/a	n/a	n/a	-999	15	[-999, -999, -999]	n/a	FR1	0	R1051J
1804.58	3.299	3863983	PROB	3.299	n/a	n/a	-999	15	[4, 1, 2]	7	FR1	0	R1051J
1807.879	4.635	3870581	PROB	4.635	n/a	n/a	-999	15	[5, 7, 1]	13	FR1	0	R1051J
1812.514	2.967	3879851	PROB	2.967	n/a	n/a	-999	15	[2, 2, 4]	8	FR1	0	R1051J
1815.481	3.151	3885785	PROB	3.151	n/a	n/a	-999	15	[7, 1, 4]	12	FR1	0	R1051J
1818.632	3.45	3892087	PROB	3.45	n/a	n/a	-999	15	[6, 2, 1]	9	FR1	0	R1051J
1822.082	4.136	3898987	PROB	4.136	n/a	n/a	-999	15	[9, 4, 8]	21	FR1	0	R1051J
1826.218	0.014	3907258	STOP	n/a	n/a	n/a	-999	15	[-999, -999, -999]	n/a	FR1	0	R1051J
1826.232	1.069	3907286	DISTRACT_END	n/a	n/a	n/a	-999	15	[0, 0, 0]	n/a	FR1	0	R1051J
1827.301	1.009	3909424	REC_START	n/a	n/a	n/a	-999	15	[0, 0, 0]	n/a	FR1	0	R1051J
1828.31	1.328	3911442	REC_WORD_VV	1.328	n/a	<>	-999	15	[0, 0, 0]	n/a	FR1	0	R1051J
1829.638	1.399	3914098	REC_WORD	1.399	n/a	BANK	-999	15	[0, 0, 0]	n/a	FR1	0	R1051J
1831.037	1.332	3916896	REC_WORD	1.332	n/a	CASH	-999	15	[0, 0, 0]	n/a	FR1	0	R1051J
1832.369	1.863	3919560	REC_WORD	1.863	n/a	STORE	-999	15	[0, 0, 0]	n/a	FR1	0	R1051J
1834.232	3.624	3923286	REC_WORD	3.624	n/a	MILK	-999	15	[0, 0, 0]	n/a	FR1	0	R1051J
1837.856	1.28	3930534	REC_WORD_VV	1.28	n/a	<>	-999	15	[0, 0, 0]	n/a	FR1	0	R1051J
1839.136	2.31	3933094	REC_WORD	2.31	n/a	LAWN	-999	15	[0, 0, 0]	n/a	FR1	0	R1051J
1841.446	6.177	3937714	REC_WORD_VV	6.177	n/a	<>	-999	15	[0, 0, 0]	n/a	FR1	0	R1051J
1847.623	1.0	3950068	REC_WORD	1.0	n/a	ICECREAM	-999	15	[0, 0, 0]	n/a	FR1	0	R1051J
1848.623	3.393	3952068	REC_WORD_VV	3.393	n/a	<>	-999	15	[0, 0, 0]	n/a	FR1	0	R1051J
1852.016	0.21	3958853	REC_WORD_VV	0.21	n/a	<>	-999	15	[0, 0, 0]	n/a	FR1	0	R1051J
1852.226	3.375	3959273	REC_WORD	3.375	n/a	POPSICLE	-999	15	[0, 0, 0]	n/a	FR1	0	R1051J
1855.601	1.0	3966023	REC_WORD_VV	1.0	n/a	<>	-999	15	[0, 0, 0]	n/a	FR1	0	R1051J
1856.601	0.71	3968023	REC_WORD_VV	0.71	n/a	<>	-999	15	[0, 0, 0]	n/a	FR1	0	R1051J
1857.311	5.228	3969443	REC_END	n/a	n/a	n/a	-999	15	[0, 0, 0]	n/a	FR1	0	R1051J
1862.539	0.0	3979899	TRIAL	n/a	n/a	n/a	-999	16	[0, 0, 0]	n/a	FR1	0	R1051J
1862.539	10.428	3979899	COUNTDOWN_START	n/a	n/a	n/a	-999	16	[0, 0, 0]	n/a	FR1	0	R1051J
1872.967	0.005	4000754	COUNTDOWN_END	n/a	n/a	n/a	-999	16	[0, 0, 0]	n/a	FR1	0	R1051J
1872.972	2.552	4000764	ORIENT	n/a	n/a	n/a	-999	16	[0, 0, 0]	n/a	FR1	0	R1051J
1875.524	2.499	4005868	WORD	n/a	wordpools/wordpool_EN.txt	DUCK	1	16	[0, 0, 0]	n/a	FR1	0	R1051J
1878.023	2.585	4010866	WORD	n/a	wordpools/wordpool_EN.txt	ZOO	2	16	[0, 0, 0]	n/a	FR1	0	R1051J
1880.608	2.566	4016036	WORD	n/a	wordpools/wordpool_EN.txt	SOUP	3	16	[0, 0, 0]	n/a	FR1	0	R1051J
1883.174	2.567	4021168	WORD	n/a	wordpools/wordpool_EN.txt	CLAY	4	16	[0, 0, 0]	n/a	FR1	0	R1051J
1885.741	2.551	4026302	WORD	n/a	wordpools/wordpool_EN.txt	MOUSE	5	16	[0, 0, 0]	n/a	FR1	0	R1051J
1888.292	2.416	4031404	WORD	n/a	wordpools/wordpool_EN.txt	SKUNK	6	16	[0, 0, 0]	n/a	FR1	0	R1051J
1890.708	2.501	4036236	WORD	n/a	wordpools/wordpool_EN.txt	ANT	7	16	[0, 0, 0]	n/a	FR1	0	R1051J
1893.209	2.466	4041238	WORD	n/a	wordpools/wordpool_EN.txt	MOOSE	8	16	[0, 0, 0]	n/a	FR1	0	R1051J
1895.675	2.534	4046170	WORD	n/a	wordpools/wordpool_EN.txt	ROCK	9	16	[0, 0, 0]	n/a	FR1	0	R1051J
1898.209	2.451	4051237	WORD	n/a	wordpools/wordpool_EN.txt	SPONGE	10	16	[0, 0, 0]	n/a	FR1	0	R1051J
1900.66	2.5	4056139	WORD	n/a	wordpools/wordpool_EN.txt	TENT	11	16	[0, 0, 0]	n/a	FR1	0	R1051J
1903.16	1.617	4061139	WORD	n/a	wordpools/wordpool_EN.txt	SNAKE	12	16	[0, 0, 0]	n/a	FR1	0	R1051J
1904.777	0.001	4064373	DISTRACT_START	n/a	n/a	n/a	-999	16	[0, 0, 0]	n/a	FR1	0	R1051J
1904.778	0.015	4064375	START	n/a	n/a	n/a	-999	16	[-999, -999, -999]	n/a	FR1	0	R1051J
1904.793	6.752	4064405	PROB	6.752	n/a	n/a	-999	16	[9, 5, 6]	20	FR1	0	R1051J
1911.545	7.835	4077909	PROB	7.835	n/a	n/a	-999	16	[4, 9, 1]	14	FR1	0	R1051J
1919.38	2.951	4093579	PROB	2.951	n/a	n/a	-999	16	[7, 7, 7]	21	FR1	0	R1051J
1922.331	9.078	4099480	PROB	9.078	n/a	n/a	-999	16	[5, 9, 5]	19	FR1	0	R1051J
1931.409	0.006	4117636	STOP	n/a	n/a	n/a	-999	16	[-999, -999, -999]	n/a	FR1	0	R1051J
1931.415	1.018	4117648	DISTRACT_END	n/a	n/a	n/a	-999	16	[0, 0, 0]	n/a	FR1	0	R1051J
1932.433	0.873	4119684	REC_START	n/a	n/a	n/a	-999	16	[0, 0, 0]	n/a	FR1	0	R1051J
1933.306	1.285	4121430	REC_WORD	1.285	n/a	DUCK	-999	16	[0, 0, 0]	n/a	FR1	0	R1051J
1934.591	1.187	4124000	REC_WORD	1.187	n/a	ANT	-999	16	[0, 0, 0]	n/a	FR1	0	R1051J
1935.778	1.988	4126374	REC_WORD	1.988	n/a	SKUNK	-999	16	[0, 0, 0]	n/a	FR1	0	R1051J
1937.766	1.45	4130350	REC_WORD	1.45	n/a	MOUSE	-999	16	[0, 0, 0]	n/a	FR1	0	R1051J
1939.216	12.323	4133250	REC_WORD	12.323	n/a	MOOSE	-999	16	[0, 0, 0]	n/a	FR1	0	R1051J
1951.539	10.904	4157895	REC_WORD	10.904	n/a	ZOO	-999	16	[0, 0, 0]	n/a	FR1	0	R1051J
1962.443	4.776	4179703	REC_END	n/a	n/a	n/a	-999	16	[0, 0, 0]	n/a	FR1	0	R1051J
1967.219	0.0	4189255	TRIAL	n/a	n/a	n/a	-999	17	[0, 0, 0]	n/a	FR1	0	R1051J
1967.219	10.428	4189255	COUNTDOWN_START	n/a	n/a	n/a	-999	17	[0, 0, 0]	n/a	FR1	0	R1051J
1977.647	0.007	4210110	COUNTDOWN_END	n/a	n/a	n/a	-999	17	[0, 0, 0]	n/a	FR1	0	R1051J
1977.654	2.467	4210124	ORIENT	n/a	n/a	n/a	-999	17	[0, 0, 0]	n/a	FR1	0	R1051J
1980.121	2.402	4215058	WORD	n/a	wordpools/wordpool_EN.txt	MULE	1	17	[0, 0, 0]	n/a	FR1	0	R1051J
1982.523	2.599	4219862	WORD	n/a	wordpools/wordpool_EN.txt	STORM	2	17	[0, 0, 0]	n/a	FR1	0	R1051J
1985.122	2.634	4225060	WORD	n/a	wordpools/wordpool_EN.txt	HEN	3	17	[0, 0, 0]	n/a	FR1	0	R1051J
1987.756	2.467	4230328	WORD	n/a	wordpools/wordpool_EN.txt	EGG	4	17	[0, 0, 0]	n/a	FR1	0	R1051J
1990.223	2.517	4235262	WORD	n/a	wordpools/wordpool_EN.txt	SKI	5	17	[0, 0, 0]	n/a	FR1	0	R1051J
1992.74	2.601	4240295	WORD	n/a	wordpools/wordpool_EN.txt	PEN	6	17	[0, 0, 0]	n/a	FR1	0	R1051J
1995.341	2.549	4245497	WORD	n/a	wordpools/wordpool_EN.txt	FORT	7	17	[0, 0, 0]	n/a	FR1	0	R1051J
1997.89	2.435	4250595	WORD	n/a	wordpools/wordpool_EN.txt	BEAK	8	17	[0, 0, 0]	n/a	FR1	0	R1051J
2000.325	2.466	4255465	WORD	n/a	wordpools/wordpool_EN.txt	SAIL	9	17	[0, 0, 0]	n/a	FR1	0	R1051J
2002.791	2.585	4260397	WORD	n/a	wordpools/wordpool_EN.txt	FARM	10	17	[0, 0, 0]	n/a	FR1	0	R1051J
2005.376	2.432	4265567	WORD	n/a	wordpools/wordpool_EN.txt	FUR	11	17	[0, 0, 0]	n/a	FR1	0	R1051J
2007.808	1.602	4270431	WORD	n/a	wordpools/wordpool_EN.txt	TRAIN	12	17	[0, 0, 0]	n/a	FR1	0	R1051J
2009.41	0.0	4273635	DISTRACT_START	n/a	n/a	n/a	-999	17	[0, 0, 0]	n/a	FR1	0	R1051J
2009.41	0.017	4273635	START	n/a	n/a	n/a	-999	17	[-999, -999, -999]	n/a	FR1	0	R1051J
2009.427	4.249	4273669	PROB	4.249	n/a	n/a	-999	17	[7, 4, 5]	16	FR1	0	R1051J
2013.676	3.534	4282167	PROB	3.534	n/a	n/a	-999	17	[1, 5, 3]	9	FR1	0	R1051J
2017.21	3.617	4289234	PROB	3.617	n/a	n/a	-999	17	[2, 2, 7]	11	FR1	0	R1051J
2020.827	5.984	4296468	PROB	5.984	n/a	n/a	-999	17	[7, 6, 4]	17	FR1	0	R1051J
2026.811	3.915	4308436	PROB	3.915	n/a	n/a	-999	17	[1, 2, 2]	5	FR1	0	R1051J
2030.726	0.019	4316266	STOP	n/a	n/a	n/a	-999	17	[-999, -999, -999]	n/a	FR1	0	R1051J
2030.745	1.151	4316304	DISTRACT_END	n/a	n/a	n/a	-999	17	[0, 0, 0]	n/a	FR1	0	R1051J
2031.896	2.26	4318606	REC_START	n/a	n/a	n/a	-999	17	[0, 0, 0]	n/a	FR1	0	R1051J
2034.156	2.552	4323126	REC_WORD	2.552	n/a	SKUNK	-999	17	[0, 0, 0]	n/a	FR1	0	R1051J
2036.708	25.199	4328230	REC_WORD	25.199	n/a	FARM	-999	17	[0, 0, 0]	n/a	FR1	0	R1051J
2061.907	4.31	4378627	REC_END	n/a	n/a	n/a	-999	17	[0, 0, 0]	n/a	FR1	0	R1051J
2066.217	0.0	4387246	TRIAL	n/a	n/a	n/a	-999	18	[0, 0, 0]	n/a	FR1	0	R1051J
2066.217	10.428	4387246	COUNTDOWN_START	n/a	n/a	n/a	-999	18	[0, 0, 0]	n/a	FR1	0	R1051J
2076.645	0.007	4408102	COUNTDOWN_END	n/a	n/a	n/a	-999	18	[0, 0, 0]	n/a	FR1	0	R1051J
2076.652	2.55	4408116	ORIENT	n/a	n/a	n/a	-999	18	[0, 0, 0]	n/a	FR1	0	R1051J
2079.202	2.601	4413216	WORD	n/a	wordpools/wordpool_EN.txt	SOAP	1	18	[0, 0, 0]	n/a	FR1	0	R1051J
2081.803	2.534	4418418	WORD	n/a	wordpools/wordpool_EN.txt	GRAPE	2	18	[0, 0, 0]	n/a	FR1	0	R1051J
2084.337	2.45	4423486	WORD	n/a	wordpools/wordpool_EN.txt	FLUTE	3	18	[0, 0, 0]	n/a	FR1	0	R1051J
2086.787	2.467	4428386	WORD	n/a	wordpools/wordpool_EN.txt	BENCH	4	18	[0, 0, 0]	n/a	FR1	0	R1051J
2089.254	2.6	4433319	WORD	n/a	wordpools/wordpool_EN.txt	FAN	5	18	[0, 0, 0]	n/a	FR1	0	R1051J
2091.854	2.435	4438519	WORD	n/a	wordpools/wordpool_EN.txt	JUICE	6	18	[0, 0, 0]	n/a	FR1	0	R1051J
2094.289	2.583	4443389	WORD	n/a	wordpools/wordpool_EN.txt	FRUIT	7	18	[0, 0, 0]	n/a	FR1	0	R1051J
2096.872	2.534	4448555	WORD	n/a	wordpools/wordpool_EN.txt	COUCH	8	18	[0, 0, 0]	n/a	FR1	0	R1051J
2099.406	2.516	4453623	WORD	n/a	wordpools/wordpool_EN.txt	GLASS	9	18	[0, 0, 0]	n/a	FR1	0	R1051J
2101.922	2.585	4458655	WORD	n/a	wordpools/wordpool_EN.txt	BOWL	10	18	[0, 0, 0]	n/a	FR1	0	R1051J
2104.507	2.383	4463825	WORD	n/a	wordpools/wordpool_EN.txt	BOOT	11	18	[0, 0, 0]	n/a	FR1	0	R1051J
2106.89	1.618	4468591	WORD	n/a	wordpools/wordpool_EN.txt	CANE	12	18	[0, 0, 0]	n/a	FR1	0	R1051J
2108.508	0.0	4471827	DISTRACT_START	n/a	n/a	n/a	-999	18	[0, 0, 0]	n/a	FR1	0	R1051J
2108.508	0.016	4471827	START	n/a	n/a	n/a	-999	18	[-999, -999, -999]	n/a	FR1	0	R1051J
2108.524	7.4	4471859	PROB	7.4	n/a	n/a	-999	18	[4, 8, 9]	21	FR1	0	R1051J
2115.924	3.868	4486658	PROB	3.868	n/a	n/a	-999	18	[4, 3, 7]	14	FR1	0	R1051J
2119.792	6.367	4494394	PROB	6.367	n/a	n/a	-999	18	[9, 9, 6]	24	FR1	0	R1051J
2126.159	3.885	4507128	PROB	3.885	n/a	n/a	-999	18	[5, 1, 9]	15	FR1	0	R1051J
2130.044	0.015	4514898	STOP	n/a	n/a	n/a	-999	18	[-999, -999, -999]	n/a	FR1	0	R1051J
2130.059	1.051	4514928	DISTRACT_END	n/a	n/a	n/a	-999	18	[0, 0, 0]	n/a	FR1	0	R1051J
2131.11	1.418	4517030	REC_START	n/a	n/a	n/a	-999	18	[0, 0, 0]	n/a	FR1	0	R1051J
2132.528	3.914	4519866	REC_WORD_VV	3.914	n/a	<>	-999	18	[0, 0, 0]	n/a	FR1	0	R1051J
2136.442	0.817	4527693	REC_WORD	0.817	n/a	GOLD	-999	18	[0, 0, 0]	n/a	FR1	0	R1051J
2137.259	6.716	4529327	REC_WORD	6.716	n/a	CUP	-999	18	[0, 0, 0]	n/a	FR1	0	R1051J
2143.975	17.151	4542759	REC_WORD	17.151	n/a	COUCH	-999	18	[0, 0, 0]	n/a	FR1	0	R1051J
2161.126	5.34	4577060	REC_END	n/a	n/a	n/a	-999	18	[0, 0, 0]	n/a	FR1	0	R1051J
2166.466	0.0	4587740	TRIAL	n/a	n/a	n/a	-999	19	[0, 0, 0]	n/a	FR1	0	R1051J
2166.466	10.428	4587740	COUNTDOWN_START	n/a	n/a	n/a	-999	19	[0, 0, 0]	n/a	FR1	0	R1051J
2176.894	0.006	4608596	COUNTDOWN_END	n/a	n/a	n/a	-999	19	[0, 0, 0]	n/a	FR1	0	R1051J
2176.9	2.401	4608608	ORIENT	n/a	n/a	n/a	-999	19	[0, 0, 0]	n/a	FR1	0	R1051J
2179.301	2.466	4613410	WORD	n/a	wordpools/wordpool_EN.txt	STONE	1	19	[0, 0, 0]	n/a	FR1	0	R1051J
2181.767	2.518	4618342	WORD	n/a	wordpools/wordpool_EN.txt	FOAM	2	19	[0, 0, 0]	n/a	FR1	0	R1051J
2184.285	2.566	4623377	WORD	n/a	wordpools/wordpool_EN.txt	CUBE	3	19	[0, 0, 0]	n/a	FR1	0	R1051J
2186.851	2.585	4628509	WORD	n/a	wordpools/wordpool_EN.txt	BEACH	4	19	[0, 0, 0]	n/a	FR1	0	R1051J
2189.436	2.566	4633679	WORD	n/a	wordpools/wordpool_EN.txt	ROOF	5	19	[0, 0, 0]	n/a	FR1	0	R1051J
2192.002	2.485	4638811	WORD	n/a	wordpools/wordpool_EN.txt	CAVE	6	19	[0, 0, 0]	n/a	FR1	0	R1051J
2194.487	2.599	4643781	WORD	n/a	wordpools/wordpool_EN.txt	WEB	7	19	[0, 0, 0]	n/a	FR1	0	R1051J
2197.086	2.6	4648979	WORD	n/a	wordpools/wordpool_EN.txt	HOLE	8	19	[0, 0, 0]	n/a	FR1	0	R1051J
2199.686	2.551	4654179	WORD	n/a	wordpools/wordpool_EN.txt	BUSH	9	19	[0, 0, 0]	n/a	FR1	0	R1051J
2202.237	2.384	4659281	WORD	n/a	wordpools/wordpool_EN.txt	SNAIL	10	19	[0, 0, 0]	n/a	FR1	0	R1051J
2204.621	2.616	4664049	WORD	n/a	wordpools/wordpool_EN.txt	LAKE	11	19	[0, 0, 0]	n/a	FR1	0	R1051J
2207.237	1.617	4669280	WORD	n/a	wordpools/wordpool_EN.txt	SPEAR	12	19	[0, 0, 0]	n/a	FR1	0	R1051J
2208.854	0.001	4672514	DISTRACT_START	n/a	n/a	n/a	-999	19	[0, 0, 0]	n/a	FR1	0	R1051J
2208.855	0.016	4672516	START	n/a	n/a	n/a	-999	19	[-999, -999, -999]	n/a	FR1	0	R1051J
2208.871	6.084	4672548	PROB	6.084	n/a	n/a	-999	19	[9, 6, 8]	23	FR1	0	R1051J
2214.955	2.535	4684716	PROB	2.535	n/a	n/a	-999	19	[3, 7, 1]	11	FR1	0	R1051J
2217.49	8.018	4689786	PROB	8.018	n/a	n/a	-999	19	[9, 8, 8]	25	FR1	0	R1051J
2225.508	6.895	4705822	PROB	6.895	n/a	n/a	-999	19	[5, 9, 7]	21	FR1	0	R1051J
2232.403	0.006	4719611	STOP	n/a	n/a	n/a	-999	19	[-999, -999, -999]	n/a	FR1	0	R1051J
2232.409	1.233	4719623	DISTRACT_END	n/a	n/a	n/a	-999	19	[0, 0, 0]	n/a	FR1	0	R1051J
2233.642	4.932	4722089	REC_START	n/a	n/a	n/a	-999	19	[0, 0, 0]	n/a	FR1	0	R1051J
2238.574	7.369	4731953	REC_WORD	7.369	n/a	LAKE	-999	19	[0, 0, 0]	n/a	FR1	0	R1051J
2245.943	2.397	4746691	REC_WORD	2.397	n/a	STONE	-999	19	[0, 0, 0]	n/a	FR1	0	R1051J
2248.34	2.082	4751485	REC_WORD	2.082	n/a	ROOF	-999	19	[0, 0, 0]	n/a	FR1	0	R1051J
2250.422	13.231	4755649	REC_WORD	13.231	n/a	CAVE	-999	19	[0, 0, 0]	n/a	FR1	0	R1051J
2263.653	3.293	4782110	REC_END	n/a	n/a	n/a	-999	19	[0, 0, 0]	n/a	FR1	0	R1051J
2266.946	0.0	4788696	TRIAL	n/a	n/a	n/a	-999	20	[0, 0, 0]	n/a	FR1	0	R1051J
2266.946	10.428	4788696	COUNTDOWN_START	n/a	n/a	n/a	-999	20	[0, 0, 0]	n/a	FR1	0	R1051J
2277.374	0.008	4809552	COUNTDOWN_END	n/a	n/a	n/a	-999	20	[0, 0, 0]	n/a	FR1	0	R1051J
2277.382	2.399	4809568	ORIENT	n/a	n/a	n/a	-999	20	[0, 0, 0]	n/a	FR1	0	R1051J
2279.781	2.484	4814365	WORD	n/a	wordpools/wordpool_EN.txt	PASTE	1	20	[0, 0, 0]	n/a	FR1	0	R1051J
2282.265	2.55	4819333	WORD	n/a	wordpools/wordpool_EN.txt	PEAR	2	20	[0, 0, 0]	n/a	FR1	0	R1051J
2284.815	2.535	4824433	WORD	n/a	wordpools/wordpool_EN.txt	LEG	3	20	[0, 0, 0]	n/a	FR1	0	R1051J
2287.35	2.616	4829503	WORD	n/a	wordpools/wordpool_EN.txt	APE	4	20	[0, 0, 0]	n/a	FR1	0	R1051J
2289.966	2.502	4834735	WORD	n/a	wordpools/wordpool_EN.txt	CONE	5	20	[0, 0, 0]	n/a	FR1	0	R1051J
2292.468	2.415	4839739	WORD	n/a	wordpools/wordpool_EN.txt	SEED	6	20	[0, 0, 0]	n/a	FR1	0	R1051J
2294.883	2.402	4844569	WORD	n/a	wordpools/wordpool_EN.txt	CLOTH	7	20	[0, 0, 0]	n/a	FR1	0	R1051J
2297.285	2.466	4849373	WORD	n/a	wordpools/wordpool_EN.txt	LEAF	8	20	[0, 0, 0]	n/a	FR1	0	R1051J
2299.751	2.484	4854305	WORD	n/a	wordpools/wordpool_EN.txt	RAT	9	20	[0, 0, 0]	n/a	FR1	0	R1051J
2302.235	2.45	4859273	WORD	n/a	wordpools/wordpool_EN.txt	WING	10	20	[0, 0, 0]	n/a	FR1	0	R1051J
2304.685	2.417	4864172	WORD	n/a	wordpools/wordpool_EN.txt	CHIEF	11	20	[0, 0, 0]	n/a	FR1	0	R1051J
2307.102	1.617	4869006	WORD	n/a	wordpools/wordpool_EN.txt	PLANT	12	20	[0, 0, 0]	n/a	FR1	0	R1051J
2308.719	0.001	4872240	DISTRACT_START	n/a	n/a	n/a	-999	20	[0, 0, 0]	n/a	FR1	0	R1051J
2308.72	0.016	4872242	START	n/a	n/a	n/a	-999	20	[-999, -999, -999]	n/a	FR1	0	R1051J
2308.736	4.651	4872274	PROB	4.651	n/a	n/a	-999	20	[8, 9, 1]	18	FR1	0	R1051J
2313.387	4.034	4881576	PROB	4.034	n/a	n/a	-999	20	[6, 3, 6]	15	FR1	0	R1051J
2317.421	2.799	4889644	PROB	2.799	n/a	n/a	-999	20	[4, 6, 1]	11	FR1	0	R1051J
2320.22	3.867	4895242	PROB	3.867	n/a	n/a	-999	20	[6, 5, 2]	13	FR1	0	R1051J
2324.087	6.529	4902976	PROB	6.529	n/a	n/a	-999	20	[5, 4, 2]	11	FR1	0	R1051J
2330.616	0.007	4916033	STOP	n/a	n/a	n/a	-999	20	[-999, -999, -999]	n/a	FR1	0	R1051J
2330.623	1.049	4916047	DISTRACT_END	n/a	n/a	n/a	-999	20	[0, 0, 0]	n/a	FR1	0	R1051J
2331.672	1.288	4918145	REC_START	n/a	n/a	n/a	-999	20	[0, 0, 0]	n/a	FR1	0	R1051J
2332.96	1.589	4920721	REC_WORD	1.589	n/a	WING	-999	20	[0, 0, 0]	n/a	FR1	0	R1051J
2334.549	4.521	4923899	REC_WORD	4.521	n/a	CHIEF	-999	20	[0, 0, 0]	n/a	FR1	0	R1051J
2339.07	17.834	4932941	REC_WORD_VV	17.834	n/a	<>	-999	20	[0, 0, 0]	n/a	FR1	0	R1051J
2356.904	4.779	4968608	REC_WORD_VV	4.779	n/a	<>	-999	20	[0, 0, 0]	n/a	FR1	0	R1051J
2361.683	3.828	4978166	REC_END	n/a	n/a	n/a	-999	20	[0, 0, 0]	n/a	FR1	0	R1051J
2365.511	0.0	4985822	TRIAL	n/a	n/a	n/a	-999	21	[0, 0, 0]	n/a	FR1	0	R1051J
2365.511	10.428	4985822	COUNTDOWN_START	n/a	n/a	n/a	-999	21	[0, 0, 0]	n/a	FR1	0	R1051J
2375.939	0.006	5006677	COUNTDOWN_END	n/a	n/a	n/a	-999	21	[0, 0, 0]	n/a	FR1	0	R1051J
2375.945	2.435	5006689	ORIENT	n/a	n/a	n/a	-999	21	[0, 0, 0]	n/a	FR1	0	R1051J
2378.38	2.399	5011559	WORD	n/a	wordpools/wordpool_EN.txt	EAR	1	21	[0, 0, 0]	n/a	FR1	0	R1051J
2380.779	2.417	5016357	WORD	n/a	wordpools/wordpool_EN.txt	HOUSE	2	21	[0, 0, 0]	n/a	FR1	0	R1051J
2383.196	2.467	5021191	WORD	n/a	wordpools/wordpool_EN.txt	DOOR	3	21	[0, 0, 0]	n/a	FR1	0	R1051J
2385.663	2.434	5026125	WORD	n/a	wordpools/wordpool_EN.txt	STREET	4	21	[0, 0, 0]	n/a	FR1	0	R1051J
2388.097	2.616	5030993	WORD	n/a	wordpools/wordpool_EN.txt	DIME	5	21	[0, 0, 0]	n/a	FR1	0	R1051J
2390.713	2.384	5036225	WORD	n/a	wordpools/wordpool_EN.txt	BED	6	21	[0, 0, 0]	n/a	FR1	0	R1051J
2393.097	2.551	5040993	WORD	n/a	wordpools/wordpool_EN.txt	CAKE	7	21	[0, 0, 0]	n/a	FR1	0	R1051J
2395.648	2.433	5046095	WORD	n/a	wordpools/wordpool_EN.txt	CART	8	21	[0, 0, 0]	n/a	FR1	0	R1051J
2398.081	2.552	5050960	WORD	n/a	wordpools/wordpool_EN.txt	FENCE	9	21	[0, 0, 0]	n/a	FR1	0	R1051J
2400.633	2.583	5056064	WORD	n/a	wordpools/wordpool_EN.txt	CUP	10	21	[0, 0, 0]	n/a	FR1	0	R1051J
2403.216	2.466	5061230	WORD	n/a	wordpools/wordpool_EN.txt	SLUSH	11	21	[0, 0, 0]	n/a	FR1	0	R1051J
2405.682	1.601	5066162	WORD	n/a	wordpools/wordpool_EN.txt	STAIR	12	21	[0, 0, 0]	n/a	FR1	0	R1051J
2407.283	0.001	5069364	DISTRACT_START	n/a	n/a	n/a	-999	21	[0, 0, 0]	n/a	FR1	0	R1051J
2407.284	0.016	5069366	START	n/a	n/a	n/a	-999	21	[-999, -999, -999]	n/a	FR1	0	R1051J
2407.3	5.784	5069398	PROB	5.784	n/a	n/a	-999	21	[8, 9, 5]	23	FR1	0	R1051J
2413.084	4.7	5080966	PROB	4.7	n/a	n/a	-999	21	[5, 9, 1]	15	FR1	0	R1051J
2417.784	3.818	5090366	PROB	3.818	n/a	n/a	-999	21	[7, 2, 1]	10	FR1	0	R1051J
2421.602	15.53	5098002	PROB	15.53	n/a	n/a	-999	21	[9, 8, 5]	22	FR1	0	R1051J
2437.132	0.005	5129061	STOP	n/a	n/a	n/a	-999	21	[-999, -999, -999]	n/a	FR1	0	R1051J
2437.137	1.101	5129071	DISTRACT_END	n/a	n/a	n/a	-999	21	[0, 0, 0]	n/a	FR1	0	R1051J
2438.238	1.517	5131273	REC_START	n/a	n/a	n/a	-999	21	[0, 0, 0]	n/a	FR1	0	R1051J
2439.755	0.962	5134307	REC_WORD	0.962	n/a	HOUSE	-999	21	[0, 0, 0]	n/a	FR1	0	R1051J
2440.717	3.661	5136231	REC_WORD	3.661	n/a	STAIR	-999	21	[0, 0, 0]	n/a	FR1	0	R1051J
2444.378	4.608	5143553	REC_WORD	4.608	n/a	STREET	-999	21	[0, 0, 0]	n/a	FR1	0	R1051J
2448.986	1.641	5152768	REC_WORD	1.641	n/a	FENCE	-999	21	[0, 0, 0]	n/a	FR1	0	R1051J
2450.627	17.624	5156050	REC_WORD	17.624	n/a	SLUSH	-999	21	[0, 0, 0]	n/a	FR1	0	R1051J
2468.251	6.109	5191298	REC_END	n/a	n/a	n/a	-999	21	[0, 0, 0]	n/a	FR1	0	R1051J
2474.36	0.0	5203515	TRIAL	n/a	n/a	n/a	-999	22	[0, 0, 0]	n/a	FR1	0	R1051J
2474.36	10.428	5203515	COUNTDOWN_START	n/a	n/a	n/a	-999	22	[0, 0, 0]	n/a	FR1	0	R1051J
2484.788	0.006	5224371	COUNTDOWN_END	n/a	n/a	n/a	-999	22	[0, 0, 0]	n/a	FR1	0	R1051J
2484.794	2.4	5224383	ORIENT	n/a	n/a	n/a	-999	22	[0, 0, 0]	n/a	FR1	0	R1051J
2487.194	2.551	5229183	WORD	n/a	wordpools/wordpool_EN.txt	SEAL	1	22	[0, 0, 0]	n/a	FR1	0	R1051J
2489.745	2.516	5234285	WORD	n/a	wordpools/wordpool_EN.txt	GOLD	2	22	[0, 0, 0]	n/a	FR1	0	R1051J
2492.261	2.568	5239317	WORD	n/a	wordpools/wordpool_EN.txt	GUARD	3	22	[0, 0, 0]	n/a	FR1	0	R1051J
2494.829	2.433	5244452	WORD	n/a	wordpools/wordpool_EN.txt	NAIL	4	22	[0, 0, 0]	n/a	FR1	0	R1051J
2497.262	2.434	5249318	WORD	n/a	wordpools/wordpool_EN.txt	SQUARE	5	22	[0, 0, 0]	n/a	FR1	0	R1051J
2499.696	2.4	5254186	WORD	n/a	wordpools/wordpool_EN.txt	CAPE	6	22	[0, 0, 0]	n/a	FR1	0	R1051J
2502.096	2.617	5258986	WORD	n/a	wordpools/wordpool_EN.txt	TOOL	7	22	[0, 0, 0]	n/a	FR1	0	R1051J
2504.713	2.551	5264220	WORD	n/a	wordpools/wordpool_EN.txt	CROWN	8	22	[0, 0, 0]	n/a	FR1	0	R1051J
2507.264	2.417	5269322	WORD	n/a	wordpools/wordpool_EN.txt	SWORD	9	22	[0, 0, 0]	n/a	FR1	0	R1051J
2509.681	2.417	5274156	WORD	n/a	wordpools/wordpool_EN.txt	HAND	10	22	[0, 0, 0]	n/a	FR1	0	R1051J
2512.098	2.401	5278990	WORD	n/a	wordpools/wordpool_EN.txt	BLUSH	11	22	[0, 0, 0]	n/a	FR1	0	R1051J
2514.499	1.616	5283792	WORD	n/a	wordpools/wordpool_EN.txt	PIT	12	22	[0, 0, 0]	n/a	FR1	0	R1051J
2516.115	0.001	5287024	DISTRACT_START	n/a	n/a	n/a	-999	22	[0, 0, 0]	n/a	FR1	0	R1051J
2516.116	0.016	5287026	START	n/a	n/a	n/a	-999	22	[-999, -999, -999]	n/a	FR1	0	R1051J
2516.132	4.834	5287058	PROB	4.834	n/a	n/a	-999	22	[4, 3, 6]	13	FR1	0	R1051J
2520.966	15.325	5296725	PROB	15.325	n/a	n/a	-999	22	[1, 2, 5]	8	FR1	0	R1051J
2536.291	0.011	5327375	STOP	n/a	n/a	n/a	-999	22	[-999, -999, -999]	n/a	FR1	0	R1051J
2536.302	1.218	5327397	DISTRACT_END	n/a	n/a	n/a	-999	22	[0, 0, 0]	n/a	FR1	0	R1051J
2537.52	1.009	5329833	REC_START	n/a	n/a	n/a	-999	22	[0, 0, 0]	n/a	FR1	0	R1051J
2538.529	1.024	5331851	REC_WORD_VV	1.024	n/a	<>	-999	22	[0, 0, 0]	n/a	FR1	0	R1051J
2539.553	1.57	5333899	REC_WORD	1.57	n/a	BLUSH	-999	22	[0, 0, 0]	n/a	FR1	0	R1051J
2541.123	1.523	5337039	REC_WORD	1.523	n/a	GOLD	-999	22	[0, 0, 0]	n/a	FR1	0	R1051J
2542.646	1.636	5340084	REC_WORD	1.636	n/a	ARMOUR	-999	22	[0, 0, 0]	n/a	FR1	0	R1051J
2544.282	2.093	5343356	REC_WORD	2.093	n/a	CROWN	-999	22	[0, 0, 0]	n/a	FR1	0	R1051J
2546.375	5.007	5347542	REC_WORD	5.007	n/a	SEAL	-999	22	[0, 0, 0]	n/a	FR1	0	R1051J
2551.382	3.012	5357556	REC_WORD	3.012	n/a	YARD	-999	22	[0, 0, 0]	n/a	FR1	0	R1051J
2554.394	0.772	5363580	REC_WORD	0.772	n/a	FOOT	-999	22	[0, 0, 0]	n/a	FR1	0	R1051J
2555.166	0.905	5365124	REC_WORD_VV	0.905	n/a	<>	-999	22	[0, 0, 0]	n/a	FR1	0	R1051J
2556.071	2.391	5366934	REC_WORD	2.391	n/a	YARD	-999	22	[0, 0, 0]	n/a	FR1	0	R1051J
2558.462	1.42	5371716	REC_WORD	1.42	n/a	SQUARE	-999	22	[0, 0, 0]	n/a	FR1	0	R1051J
2559.882	1.363	5374556	REC_WORD	1.363	n/a	SQUARE	-999	22	[0, 0, 0]	n/a	FR1	0	R1051J
2561.245	6.286	5377282	REC_WORD_VV	6.286	n/a	<>	-999	22	[0, 0, 0]	n/a	FR1	0	R1051J
2567.531	3.159	5389853	REC_END	n/a	n/a	n/a	-999	22	[0, 0, 0]	n/a	FR1	0	R1051J
2570.69	0.0	5396171	COUNTDOWN_START	n/a	n/a	n/a	-999	23	[0, 0, 0]	n/a	FR1	0	R1051J
2570.69	10.428	5396171	TRIAL	n/a	n/a	n/a	-999	23	[0, 0, 0]	n/a	FR1	0	R1051J
2581.118	0.007	5417027	COUNTDOWN_END	n/a	n/a	n/a	-999	23	[0, 0, 0]	n/a	FR1	0	R1051J
2581.125	2.617	5417041	ORIENT	n/a	n/a	n/a	-999	23	[0, 0, 0]	n/a	FR1	0	R1051J
2583.742	2.433	5422275	WORD	n/a	wordpools/wordpool_EN.txt	TEA	1	23	[0, 0, 0]	n/a	FR1	0	R1051J
2586.175	2.584	5427141	WORD	n/a	wordpools/wordpool_EN.txt	SHRIMP	2	23	[0, 0, 0]	n/a	FR1	0	R1051J
2588.759	2.535	5432309	WORD	n/a	wordpools/wordpool_EN.txt	LAMP	3	23	[0, 0, 0]	n/a	FR1	0	R1051J
2591.294	2.449	5437378	WORD	n/a	wordpools/wordpool_EN.txt	SUIT	4	23	[0, 0, 0]	n/a	FR1	0	R1051J
2593.743	2.602	5442276	WORD	n/a	wordpools/wordpool_EN.txt	FOOD	5	23	[0, 0, 0]	n/a	FR1	0	R1051J
2596.345	2.382	5447480	WORD	n/a	wordpools/wordpool_EN.txt	TOE	6	23	[0, 0, 0]	n/a	FR1	0	R1051J
2598.727	2.451	5452244	WORD	n/a	wordpools/wordpool_EN.txt	HOOF	7	23	[0, 0, 0]	n/a	FR1	0	R1051J
2601.178	2.517	5457146	WORD	n/a	wordpools/wordpool_EN.txt	ROOT	8	23	[0, 0, 0]	n/a	FR1	0	R1051J
2603.695	2.601	5462180	WORD	n/a	wordpools/wordpool_EN.txt	BEAN	9	23	[0, 0, 0]	n/a	FR1	0	R1051J
2606.296	2.433	5467382	WORD	n/a	wordpools/wordpool_EN.txt	RAKE	10	23	[0, 0, 0]	n/a	FR1	0	R1051J
2608.729	2.618	5472248	WORD	n/a	wordpools/wordpool_EN.txt	SOCK	11	23	[0, 0, 0]	n/a	FR1	0	R1051J
2611.347	1.616	5477484	WORD	n/a	wordpools/wordpool_EN.txt	BATH	12	23	[0, 0, 0]	n/a	FR1	0	R1051J
2612.963	0.0	5480715	DISTRACT_START	n/a	n/a	n/a	-999	23	[0, 0, 0]	n/a	FR1	0	R1051J
2612.963	0.016	5480715	START	n/a	n/a	n/a	-999	23	[-999, -999, -999]	n/a	FR1	0	R1051J
2612.979	5.051	5480747	PROB	5.051	n/a	n/a	-999	23	[6, 6, 7]	19	FR1	0	R1051J
2618.03	4.285	5490849	PROB	4.285	n/a	n/a	-999	23	[9, 7, 5]	21	FR1	0	R1051J
2622.315	3.799	5499419	PROB	3.799	n/a	n/a	-999	23	[4, 3, 4]	11	FR1	0	R1051J
2626.114	4.018	5507017	PROB	4.018	n/a	n/a	-999	23	[1, 1, 6]	8	FR1	0	R1051J
2630.132	4.524	5515053	PROB	4.524	n/a	n/a	-999	23	[6, 7, 8]	21	FR1	0	R1051J
2634.656	0.01	5524101	STOP	n/a	n/a	n/a	-999	23	[-999, -999, -999]	n/a	FR1	0	R1051J
2634.666	1.101	5524121	DISTRACT_END	n/a	n/a	n/a	-999	23	[0, 0, 0]	n/a	FR1	0	R1051J
2635.767	0.895	5526323	REC_START	n/a	n/a	n/a	-999	23	[0, 0, 0]	n/a	FR1	0	R1051J
2636.662	1.19	5528112	REC_WORD_VV	1.19	n/a	<>	-999	23	[0, 0, 0]	n/a	FR1	0	R1051J
2637.852	0.791	5530492	REC_WORD	0.791	n/a	TEA	-999	23	[0, 0, 0]	n/a	FR1	0	R1051J
2638.643	4.049	5532074	REC_WORD	4.049	n/a	SHRIMP	-999	23	[0, 0, 0]	n/a	FR1	0	R1051J
2642.692	1.492	5540172	REC_WORD	1.492	n/a	TOE	-999	23	[0, 0, 0]	n/a	FR1	0	R1051J
2644.184	1.345	5543156	REC_WORD	1.345	n/a	HOOF	-999	23	[0, 0, 0]	n/a	FR1	0	R1051J
2645.529	5.746	5545846	REC_WORD	5.746	n/a	SOCK	-999	23	[0, 0, 0]	n/a	FR1	0	R1051J
2651.275	14.503	5557338	REC_WORD	14.503	n/a	SOUP	-999	23	[0, 0, 0]	n/a	FR1	0	R1051J
2665.778	2.409	5586343	REC_END	n/a	n/a	n/a	-999	23	[0, 0, 0]	n/a	FR1	0	R1051J
2668.187	0.0	5591161	TRIAL	n/a	n/a	n/a	-999	24	[0, 0, 0]	n/a	FR1	0	R1051J
2668.187	10.428	5591161	COUNTDOWN_START	n/a	n/a	n/a	-999	24	[0, 0, 0]	n/a	FR1	0	R1051J
2678.615	0.008	5612017	COUNTDOWN_END	n/a	n/a	n/a	-999	24	[0, 0, 0]	n/a	FR1	0	R1051J
2678.623	2.45	5612033	ORIENT	n/a	n/a	n/a	-999	24	[0, 0, 0]	n/a	FR1	0	R1051J
2681.073	2.617	5616933	WORD	n/a	wordpools/wordpool_EN.txt	SCHOOL	1	24	[0, 0, 0]	n/a	FR1	0	R1051J
2683.69	2.416	5622167	WORD	n/a	wordpools/wordpool_EN.txt	PIN	2	24	[0, 0, 0]	n/a	FR1	0	R1051J
2686.106	2.584	5626998	WORD	n/a	wordpools/wordpool_EN.txt	CLOCK	3	24	[0, 0, 0]	n/a	FR1	0	R1051J
2688.69	2.585	5632166	WORD	n/a	wordpools/wordpool_EN.txt	FLAG	4	24	[0, 0, 0]	n/a	FR1	0	R1051J
2691.275	2.466	5637336	WORD	n/a	wordpools/wordpool_EN.txt	THUMB	5	24	[0, 0, 0]	n/a	FR1	0	R1051J
2693.741	2.384	5642268	WORD	n/a	wordpools/wordpool_EN.txt	BOY	6	24	[0, 0, 0]	n/a	FR1	0	R1051J
2696.125	2.468	5647036	WORD	n/a	wordpools/wordpool_EN.txt	WORLD	7	24	[0, 0, 0]	n/a	FR1	0	R1051J
2698.593	2.516	5651972	WORD	n/a	wordpools/wordpool_EN.txt	DESK	8	24	[0, 0, 0]	n/a	FR1	0	R1051J
2701.109	2.634	5657004	WORD	n/a	wordpools/wordpool_EN.txt	BRIDGE	9	24	[0, 0, 0]	n/a	FR1	0	R1051J
2703.743	2.383	5662272	WORD	n/a	wordpools/wordpool_EN.txt	THREAD	10	24	[0, 0, 0]	n/a	FR1	0	R1051J
2706.126	2.452	5667038	WORD	n/a	wordpools/wordpool_EN.txt	INK	11	24	[0, 0, 0]	n/a	FR1	0	R1051J
2708.578	1.616	5671941	WORD	n/a	wordpools/wordpool_EN.txt	POOL	12	24	[0, 0, 0]	n/a	FR1	0	R1051J
2710.194	0.0	5675173	DISTRACT_START	n/a	n/a	n/a	-999	24	[0, 0, 0]	n/a	FR1	0	R1051J
2710.194	0.016	5675173	START	n/a	n/a	n/a	-999	24	[-999, -999, -999]	n/a	FR1	0	R1051J
2710.21	4.051	5675205	PROB	4.051	n/a	n/a	-999	24	[5, 5, 9]	19	FR1	0	R1051J
2714.261	3.467	5683307	PROB	3.467	n/a	n/a	-999	24	[2, 1, 9]	12	FR1	0	R1051J
2717.728	3.317	5690241	PROB	3.317	n/a	n/a	-999	24	[8, 1, 2]	11	FR1	0	R1051J
2721.045	3.634	5696875	PROB	3.634	n/a	n/a	-999	24	[9, 1, 4]	14	FR1	0	R1051J
2724.679	3.434	5704143	PROB	3.434	n/a	n/a	-999	24	[7, 8, 7]	23	FR1	0	R1051J
2728.113	5.669	5711011	PROB	5.669	n/a	n/a	-999	24	[2, 5, 9]	16	FR1	0	R1051J
2733.782	0.015	5722348	STOP	n/a	n/a	n/a	-999	24	[-999, -999, -999]	n/a	FR1	0	R1051J
2733.797	1.117	5722378	DISTRACT_END	n/a	n/a	n/a	-999	24	[0, 0, 0]	n/a	FR1	0	R1051J
2734.914	0.956	5724612	REC_START	n/a	n/a	n/a	-999	24	[0, 0, 0]	n/a	FR1	0	R1051J
2735.87	1.658	5726524	REC_WORD	1.658	n/a	SCHOOL	-999	24	[0, 0, 0]	n/a	FR1	0	R1051J
2737.528	1.562	5729840	REC_WORD	1.562	n/a	POOL	-999	24	[0, 0, 0]	n/a	FR1	0	R1051J
2739.09	1.308	5732964	REC_WORD	1.308	n/a	BOY	-999	24	[0, 0, 0]	n/a	FR1	0	R1051J
2740.398	3.88	5735580	REC_WORD	3.88	n/a	CLOCK	-999	24	[0, 0, 0]	n/a	FR1	0	R1051J
2744.278	20.647	5743340	REC_WORD	20.647	n/a	WORLD	-999	24	[0, 0, 0]	n/a	FR1	0	R1051J
2764.925	3.26	5784633	REC_END	n/a	n/a	n/a	-999	24	[0, 0, 0]	n/a	FR1	0	R1051J
2768.185	0.0	5791153	TRIAL	n/a	n/a	n/a	-999	25	[0, 0, 0]	n/a	FR1	0	R1051J
2768.185	10.428	5791153	COUNTDOWN_START	n/a	n/a	n/a	-999	25	[0, 0, 0]	n/a	FR1	0	R1051J
2778.613	0.008	5812009	COUNTDOWN_END	n/a	n/a	n/a	-999	25	[0, 0, 0]	n/a	FR1	0	R1051J
2778.621	2.633	5812025	ORIENT	n/a	n/a	n/a	-999	25	[0, 0, 0]	n/a	FR1	0	R1051J
2781.254	2.617	5817290	WORD	n/a	wordpools/wordpool_EN.txt	HAWK	1	25	[0, 0, 0]	n/a	FR1	0	R1051J
2783.871	2.401	5822524	WORD	n/a	wordpools/wordpool_EN.txt	BEE	2	25	[0, 0, 0]	n/a	FR1	0	R1051J
2786.272	2.399	5827326	WORD	n/a	wordpools/wordpool_EN.txt	SEAT	3	25	[0, 0, 0]	n/a	FR1	0	R1051J
2788.671	2.417	5832124	WORD	n/a	wordpools/wordpool_EN.txt	CORN	4	25	[0, 0, 0]	n/a	FR1	0	R1051J
2791.088	2.402	5836958	WORD	n/a	wordpools/wordpool_EN.txt	COW	5	25	[0, 0, 0]	n/a	FR1	0	R1051J
2793.49	2.399	5841762	WORD	n/a	wordpools/wordpool_EN.txt	BARN	6	25	[0, 0, 0]	n/a	FR1	0	R1051J
2795.889	2.585	5846560	WORD	n/a	wordpools/wordpool_EN.txt	OWL	7	25	[0, 0, 0]	n/a	FR1	0	R1051J
2798.474	2.616	5851730	WORD	n/a	wordpools/wordpool_EN.txt	PET	8	25	[0, 0, 0]	n/a	FR1	0	R1051J
2801.09	2.535	5856962	WORD	n/a	wordpools/wordpool_EN.txt	LAMB	9	25	[0, 0, 0]	n/a	FR1	0	R1051J
2803.625	2.416	5862032	WORD	n/a	wordpools/wordpool_EN.txt	SKY	10	25	[0, 0, 0]	n/a	FR1	0	R1051J
2806.041	2.384	5866863	WORD	n/a	wordpools/wordpool_EN.txt	FLEA	11	25	[0, 0, 0]	n/a	FR1	0	R1051J
2808.425	1.616	5871631	WORD	n/a	wordpools/wordpool_EN.txt	EEL	12	25	[0, 0, 0]	n/a	FR1	0	R1051J
2810.041	0.001	5874863	DISTRACT_START	n/a	n/a	n/a	-999	25	[0, 0, 0]	n/a	FR1	0	R1051J
2810.042	0.016	5874865	START	n/a	n/a	n/a	-999	25	[-999, -999, -999]	n/a	FR1	0	R1051J
2810.058	8.785	5874897	PROB	8.785	n/a	n/a	-999	25	[9, 6, 1]	16	FR1	0	R1051J
2818.843	6.1	5892467	PROB	6.1	n/a	n/a	-999	25	[7, 6, 9]	22	FR1	0	R1051J
2824.943	3.801	5904667	PROB	3.801	n/a	n/a	-999	25	[1, 1, 6]	8	FR1	0	R1051J
2828.744	18.195	5912268	PROB	18.195	n/a	n/a	-999	25	[8, 9, 2]	19	FR1	0	R1051J
2846.939	0.008	5948658	STOP	n/a	n/a	n/a	-999	25	[-999, -999, -999]	n/a	FR1	0	R1051J
2846.947	1.184	5948674	DISTRACT_END	n/a	n/a	n/a	-999	25	[0, 0, 0]	n/a	FR1	0	R1051J
2848.131	1.166	5951042	REC_START	n/a	n/a	n/a	-999	25	[0, 0, 0]	n/a	FR1	0	R1051J
2849.297	1.061	5953374	REC_WORD_VV	1.061	n/a	<>	-999	25	[0, 0, 0]	n/a	FR1	0	R1051J
2850.358	1.112	5955496	REC_WORD	1.112	n/a	PET	-999	25	[0, 0, 0]	n/a	FR1	0	R1051J
2851.47	1.737	5957720	REC_WORD	1.737	n/a	EEL	-999	25	[0, 0, 0]	n/a	FR1	0	R1051J
2853.207	9.079	5961193	REC_WORD	9.079	n/a	BEE	-999	25	[0, 0, 0]	n/a	FR1	0	R1051J
2862.286	6.188	5979351	REC_WORD_VV	6.188	n/a	<>	-999	25	[0, 0, 0]	n/a	FR1	0	R1051J
2868.474	9.667	5991727	REC_WORD_VV	9.667	n/a	<>	-999	25	[0, 0, 0]	n/a	FR1	0	R1051J
2878.141	4.528	6011060	REC_END	n/a	n/a	n/a	-999	25	[0, 0, 0]	n/a	FR1	0	R1051J
2882.669	0.0	6020116	SESS_END	n/a	n/a	n/a	-999	25	[0, 0, 0]	n/a	FR1	0	R1051J
