onset	duration	sample	trial_type	response_time	stim_file	item_name	serialpos	list	test	answer	experiment	session	subject
0.0	55.945	158042	SESS_START	n/a	n/a	n/a	-999	-999	[0, 0, 0]	n/a	FR1	2	R1070T
55.945	10.428	213985	COUNTDOWN_START	n/a	n/a	n/a	-999	-999	[0, 0, 0]	n/a	FR1	2	R1070T
66.373	3.842	224412	COUNTDOWN_END	n/a	n/a	n/a	-999	-999	[0, 0, 0]	n/a	FR1	2	R1070T
70.215	2.5	228254	PRACTICE_WORD	n/a	n/a	INUNDACION	1	-1	[0, 0, 0]	n/a	FR1	2	R1070T
72.715	2.4	230754	PRACTICE_WORD	n/a	n/a	ALGODON	2	-1	[0, 0, 0]	n/a	FR1	2	R1070T
75.115	2.451	233154	PRACTICE_WORD	n/a	n/a	HIERRO	3	-1	[0, 0, 0]	n/a	FR1	2	R1070T
77.566	2.434	235605	PRACTICE_WORD	n/a	n/a	HAZ	4	-1	[0, 0, 0]	n/a	FR1	2	R1070T
80.0	2.533	238038	PRACTICE_WORD	n/a	n/a	RELOJ	5	-1	[0, 0, 0]	n/a	FR1	2	R1070T
82.533	2.468	240571	PRACTICE_WORD	n/a	n/a	PECHO	6	-1	[0, 0, 0]	n/a	FR1	2	R1070T
85.001	2.483	243039	PRACTICE_WORD	n/a	n/a	LENGUA	7	-1	[0, 0, 0]	n/a	FR1	2	R1070T
87.484	2.401	245522	PRACTICE_WORD	n/a	n/a	RINOCERONTE	8	-1	[0, 0, 0]	n/a	FR1	2	R1070T
89.885	2.567	247923	PRACTICE_WORD	n/a	n/a	VAGON	9	-1	[0, 0, 0]	n/a	FR1	2	R1070T
92.452	2.384	250490	PRACTICE_WORD	n/a	n/a	CAMELLO	10	-1	[0, 0, 0]	n/a	FR1	2	R1070T
94.836	2.483	252874	PRACTICE_WORD	n/a	n/a	ATICO	11	-1	[0, 0, 0]	n/a	FR1	2	R1070T
97.319	1.617	255357	PRACTICE_WORD	n/a	n/a	ANILLO	12	-1	[0, 0, 0]	n/a	FR1	2	R1070T
98.936	0.001	256973	PRACTICE_DISTRACT_START	n/a	n/a	n/a	-999	-1	[0, 0, 0]	n/a	FR1	2	R1070T
98.937	0.016	256974	START	n/a	n/a	n/a	-999	-1	[-999, -999, -999]	n/a	FR1	2	R1070T
98.953	11.002	256990	PROB	11.002	n/a	n/a	-999	-1	[7, 8, 7]	22	FR1	2	R1070T
109.955	4.117	267992	PROB	4.117	n/a	n/a	-999	-1	[6, 3, 2]	11	FR1	2	R1070T
114.072	6.669	272109	PROB	6.669	n/a	n/a	-999	-1	[2, 6, 7]	15	FR1	2	R1070T
120.741	0.016	278777	STOP	n/a	n/a	n/a	-999	-1	[-999, -999, -999]	n/a	FR1	2	R1070T
120.757	0.602	278793	PRACTICE_DISTRACT_END	n/a	n/a	n/a	-999	-1	[0, 0, 0]	n/a	FR1	2	R1070T
121.359	30.515	279395	PRACTICE_REC_START	n/a	n/a	n/a	-999	-1	[0, 0, 0]	n/a	FR1	2	R1070T
151.874	5.773	309909	PRACTICE_REC_END	n/a	n/a	n/a	-999	-1	[0, 0, 0]	n/a	FR1	2	R1070T
157.647	0.0	315682	TRIAL	n/a	n/a	n/a	-999	1	[0, 0, 0]	n/a	FR1	2	R1070T
157.647	10.428	315682	COUNTDOWN_START	n/a	n/a	n/a	-999	1	[0, 0, 0]	n/a	FR1	2	R1070T
168.075	0.007	326109	COUNTDOWN_END	n/a	n/a	n/a	-999	1	[0, 0, 0]	n/a	FR1	2	R1070T
168.082	2.434	326116	ORIENT	n/a	n/a	n/a	-999	1	[0, 0, 0]	n/a	FR1	2	R1070T
170.516	2.534	328550	WORD	n/a	wordpools/wordpool_SP.txt	COMIDA	1	1	[0, 0, 0]	n/a	FR1	2	R1070T
173.05	2.434	331084	WORD	n/a	wordpools/wordpool_SP.txt	LADRILLO	2	1	[0, 0, 0]	n/a	FR1	2	R1070T
175.484	2.417	333518	WORD	n/a	wordpools/wordpool_SP.txt	PRINCIPE	3	1	[0, 0, 0]	n/a	FR1	2	R1070T
177.901	2.533	335935	WORD	n/a	wordpools/wordpool_SP.txt	PARED	4	1	[0, 0, 0]	n/a	FR1	2	R1070T
180.434	2.584	338467	WORD	n/a	wordpools/wordpool_SP.txt	ESCUDO	5	1	[0, 0, 0]	n/a	FR1	2	R1070T
183.018	2.484	341051	WORD	n/a	wordpools/wordpool_SP.txt	TARTA	6	1	[0, 0, 0]	n/a	FR1	2	R1070T
185.502	2.451	343535	WORD	n/a	wordpools/wordpool_SP.txt	FRUTA	7	1	[0, 0, 0]	n/a	FR1	2	R1070T
187.953	2.516	345986	WORD	n/a	wordpools/wordpool_SP.txt	BARRO	8	1	[0, 0, 0]	n/a	FR1	2	R1070T
190.469	2.434	348502	WORD	n/a	wordpools/wordpool_SP.txt	CONCHA	9	1	[0, 0, 0]	n/a	FR1	2	R1070T
192.903	2.451	350936	WORD	n/a	wordpools/wordpool_SP.txt	LANZA	10	1	[0, 0, 0]	n/a	FR1	2	R1070T
195.354	2.5	353387	WORD	n/a	wordpools/wordpool_SP.txt	TRAPO	11	1	[0, 0, 0]	n/a	FR1	2	R1070T
197.854	1.617	355887	WORD	n/a	wordpools/wordpool_SP.txt	RANA	12	1	[0, 0, 0]	n/a	FR1	2	R1070T
199.471	0.001	357503	DISTRACT_START	n/a	n/a	n/a	-999	1	[0, 0, 0]	n/a	FR1	2	R1070T
199.472	0.016	357504	START	n/a	n/a	n/a	-999	1	[-999, -999, -999]	n/a	FR1	2	R1070T
199.488	9.868	357520	PROB	9.868	n/a	n/a	-999	1	[7, 6, 9]	18	FR1	2	R1070T
209.356	4.768	367388	PROB	4.768	n/a	n/a	-999	1	[2, 1, 3]	6	FR1	2	R1070T
214.124	4.684	372156	PROB	4.684	n/a	n/a	-999	1	[9, 4, 6]	19	FR1	2	R1070T
218.808	5.765	376840	PROB	5.765	n/a	n/a	-999	1	[2, 9, 2]	13	FR1	2	R1070T
224.573	0.02	382604	STOP	n/a	n/a	n/a	-999	1	[-999, -999, -999]	n/a	FR1	2	R1070T
224.593	1.221	382624	DISTRACT_END	n/a	n/a	n/a	-999	1	[0, 0, 0]	n/a	FR1	2	R1070T
225.814	1.392	383845	REC_START	n/a	n/a	n/a	-999	1	[0, 0, 0]	n/a	FR1	2	R1070T
227.206	1.57	385237	REC_WORD	1.57	n/a	LADRILLO	-999	1	[0, 0, 0]	n/a	FR1	2	R1070T
228.776	6.737	386807	REC_WORD	6.737	n/a	COMIDA	-999	1	[0, 0, 0]	n/a	FR1	2	R1070T
235.513	20.307	393544	REC_WORD	20.307	n/a	INTRUSION	-999	1	[0, 0, 0]	n/a	FR1	2	R1070T
255.82	2.912	413850	REC_END	n/a	n/a	n/a	-999	1	[0, 0, 0]	n/a	FR1	2	R1070T
258.732	0.0	416762	TRIAL	n/a	n/a	n/a	-999	2	[0, 0, 0]	n/a	FR1	2	R1070T
258.732	10.428	416762	COUNTDOWN_START	n/a	n/a	n/a	-999	2	[0, 0, 0]	n/a	FR1	2	R1070T
269.16	0.007	427189	COUNTDOWN_END	n/a	n/a	n/a	-999	2	[0, 0, 0]	n/a	FR1	2	R1070T
269.167	2.452	427196	ORIENT	n/a	n/a	n/a	-999	2	[0, 0, 0]	n/a	FR1	2	R1070T
271.619	2.616	429648	WORD	n/a	wordpools/wordpool_SP.txt	NIEVE	1	2	[0, 0, 0]	n/a	FR1	2	R1070T
274.235	2.567	432264	WORD	n/a	wordpools/wordpool_SP.txt	FLORECER	2	2	[0, 0, 0]	n/a	FR1	2	R1070T
276.802	2.4	434831	WORD	n/a	wordpools/wordpool_SP.txt	LLAMA	3	2	[0, 0, 0]	n/a	FR1	2	R1070T
279.202	2.534	437231	WORD	n/a	wordpools/wordpool_SP.txt	NIEBLA	4	2	[0, 0, 0]	n/a	FR1	2	R1070T
281.736	2.617	439764	WORD	n/a	wordpools/wordpool_SP.txt	NUBE	5	2	[0, 0, 0]	n/a	FR1	2	R1070T
284.353	2.601	442381	WORD	n/a	wordpools/wordpool_SP.txt	POZO	6	2	[0, 0, 0]	n/a	FR1	2	R1070T
286.954	2.45	444982	WORD	n/a	wordpools/wordpool_SP.txt	ESTANQUE	7	2	[0, 0, 0]	n/a	FR1	2	R1070T
289.404	2.451	447432	WORD	n/a	wordpools/wordpool_SP.txt	CUERVO	8	2	[0, 0, 0]	n/a	FR1	2	R1070T
291.855	2.517	449883	WORD	n/a	wordpools/wordpool_SP.txt	LAGO	9	2	[0, 0, 0]	n/a	FR1	2	R1070T
294.372	2.517	452400	WORD	n/a	wordpools/wordpool_SP.txt	ESTERA	10	2	[0, 0, 0]	n/a	FR1	2	R1070T
296.889	2.5	454917	WORD	n/a	wordpools/wordpool_SP.txt	CUBO	11	2	[0, 0, 0]	n/a	FR1	2	R1070T
299.389	1.617	457417	WORD	n/a	wordpools/wordpool_SP.txt	JEEP	12	2	[0, 0, 0]	n/a	FR1	2	R1070T
301.006	0.001	459033	DISTRACT_START	n/a	n/a	n/a	-999	2	[0, 0, 0]	n/a	FR1	2	R1070T
301.007	0.016	459034	START	n/a	n/a	n/a	-999	2	[-999, -999, -999]	n/a	FR1	2	R1070T
301.023	5.651	459050	PROB	5.651	n/a	n/a	-999	2	[3, 3, 6]	12	FR1	2	R1070T
306.674	3.317	464701	PROB	3.317	n/a	n/a	-999	2	[5, 2, 5]	12	FR1	2	R1070T
309.991	6.201	468018	PROB	6.201	n/a	n/a	-999	2	[1, 8, 6]	15	FR1	2	R1070T
316.192	7.741	474219	PROB	7.741	n/a	n/a	-999	2	[6, 3, 7]	16	FR1	2	R1070T
323.933	0.011	481959	STOP	n/a	n/a	n/a	-999	2	[-999, -999, -999]	n/a	FR1	2	R1070T
323.944	1.218	481970	DISTRACT_END	n/a	n/a	n/a	-999	2	[0, 0, 0]	n/a	FR1	2	R1070T
325.162	0.412	483188	REC_START	n/a	n/a	n/a	-999	2	[0, 0, 0]	n/a	FR1	2	R1070T
325.574	2.039	483600	REC_WORD	2.039	n/a	NIEVE	-999	2	[0, 0, 0]	n/a	FR1	2	R1070T
327.613	1.824	485639	REC_WORD	1.824	n/a	NIEBLA	-999	2	[0, 0, 0]	n/a	FR1	2	R1070T
329.437	7.168	487463	REC_WORD	7.168	n/a	NUBE	-999	2	[0, 0, 0]	n/a	FR1	2	R1070T
336.605	18.567	494631	REC_WORD	18.567	n/a	CUBO	-999	2	[0, 0, 0]	n/a	FR1	2	R1070T
355.172	1.994	513197	REC_END	n/a	n/a	n/a	-999	2	[0, 0, 0]	n/a	FR1	2	R1070T
357.166	0.001	515191	COUNTDOWN_START	n/a	n/a	n/a	-999	3	[0, 0, 0]	n/a	FR1	2	R1070T
357.167	10.427	515192	TRIAL	n/a	n/a	n/a	-999	3	[0, 0, 0]	n/a	FR1	2	R1070T
367.594	0.009	525618	COUNTDOWN_END	n/a	n/a	n/a	-999	3	[0, 0, 0]	n/a	FR1	2	R1070T
367.603	2.582	525627	ORIENT	n/a	n/a	n/a	-999	3	[0, 0, 0]	n/a	FR1	2	R1070T
370.185	2.501	528209	WORD	n/a	wordpools/wordpool_SP.txt	HUEVO	1	3	[0, 0, 0]	n/a	FR1	2	R1070T
372.686	2.55	530710	WORD	n/a	wordpools/wordpool_SP.txt	TENEDOR	2	3	[0, 0, 0]	n/a	FR1	2	R1070T
375.236	2.584	533260	WORD	n/a	wordpools/wordpool_SP.txt	AGUANIEVE	3	3	[0, 0, 0]	n/a	FR1	2	R1070T
377.82	2.501	535844	WORD	n/a	wordpools/wordpool_SP.txt	ASIENTO	4	3	[0, 0, 0]	n/a	FR1	2	R1070T
380.321	2.533	538345	WORD	n/a	wordpools/wordpool_SP.txt	PARQUE	5	3	[0, 0, 0]	n/a	FR1	2	R1070T
382.854	2.401	540877	WORD	n/a	wordpools/wordpool_SP.txt	AUTO	6	3	[0, 0, 0]	n/a	FR1	2	R1070T
385.255	2.45	543278	WORD	n/a	wordpools/wordpool_SP.txt	ZANJA	7	3	[0, 0, 0]	n/a	FR1	2	R1070T
387.705	2.418	545728	WORD	n/a	wordpools/wordpool_SP.txt	GUANTE	8	3	[0, 0, 0]	n/a	FR1	2	R1070T
390.123	2.45	548146	WORD	n/a	wordpools/wordpool_SP.txt	PANTALONES	9	3	[0, 0, 0]	n/a	FR1	2	R1070T
392.573	2.534	550596	WORD	n/a	wordpools/wordpool_SP.txt	CUADRADO	10	3	[0, 0, 0]	n/a	FR1	2	R1070T
395.107	2.518	553130	WORD	n/a	wordpools/wordpool_SP.txt	PIERNA	11	3	[0, 0, 0]	n/a	FR1	2	R1070T
397.625	1.616	555648	WORD	n/a	wordpools/wordpool_SP.txt	TREN	12	3	[0, 0, 0]	n/a	FR1	2	R1070T
399.241	0.001	557264	DISTRACT_START	n/a	n/a	n/a	-999	3	[0, 0, 0]	n/a	FR1	2	R1070T
399.242	0.016	557265	START	n/a	n/a	n/a	-999	3	[-999, -999, -999]	n/a	FR1	2	R1070T
399.258	4.45	557281	PROB	4.45	n/a	n/a	-999	3	[7, 3, 2]	11	FR1	2	R1070T
403.708	4.601	561730	PROB	4.601	n/a	n/a	-999	3	[1, 8, 5]	14	FR1	2	R1070T
408.309	5.251	566331	PROB	5.251	n/a	n/a	-999	3	[8, 1, 8]	17	FR1	2	R1070T
413.56	3.467	571582	PROB	3.467	n/a	n/a	-999	3	[2, 3, 7]	11	FR1	2	R1070T
417.027	7.099	575049	PROB	7.099	n/a	n/a	-999	3	[7, 3, 5]	15	FR1	2	R1070T
424.126	0.019	582147	STOP	n/a	n/a	n/a	-999	3	[-999, -999, -999]	n/a	FR1	2	R1070T
424.145	1.201	582166	DISTRACT_END	n/a	n/a	n/a	-999	3	[0, 0, 0]	n/a	FR1	2	R1070T
425.346	1.229	583367	REC_START	n/a	n/a	n/a	-999	3	[0, 0, 0]	n/a	FR1	2	R1070T
426.575	2.852	584596	REC_WORD	2.852	n/a	AGUANIEVE	-999	3	[0, 0, 0]	n/a	FR1	2	R1070T
429.427	7.993	587448	REC_WORD	7.993	n/a	HUEVO	-999	3	[0, 0, 0]	n/a	FR1	2	R1070T
437.42	17.94	595441	REC_WORD	17.94	n/a	TENEDOR	-999	3	[0, 0, 0]	n/a	FR1	2	R1070T
455.36	3.392	613380	REC_END	n/a	n/a	n/a	-999	3	[0, 0, 0]	n/a	FR1	2	R1070T
458.752	0.0	616772	TRIAL	n/a	n/a	n/a	-999	4	[0, 0, 0]	n/a	FR1	2	R1070T
458.752	10.428	616772	COUNTDOWN_START	n/a	n/a	n/a	-999	4	[0, 0, 0]	n/a	FR1	2	R1070T
469.18	0.007	627199	COUNTDOWN_END	n/a	n/a	n/a	-999	4	[0, 0, 0]	n/a	FR1	2	R1070T
469.187	2.567	627206	ORIENT	n/a	n/a	n/a	-999	4	[0, 0, 0]	n/a	FR1	2	R1070T
471.754	2.517	629773	WORD	n/a	wordpools/wordpool_SP.txt	ESTRELLA	1	4	[0, 0, 0]	n/a	FR1	2	R1070T
474.271	2.45	632290	WORD	n/a	wordpools/wordpool_SP.txt	ESCUELA	2	4	[0, 0, 0]	n/a	FR1	2	R1070T
476.721	2.451	634740	WORD	n/a	wordpools/wordpool_SP.txt	BANDERA	3	4	[0, 0, 0]	n/a	FR1	2	R1070T
479.172	2.6	637191	WORD	n/a	wordpools/wordpool_SP.txt	CHALECO	4	4	[0, 0, 0]	n/a	FR1	2	R1070T
481.772	2.484	639791	WORD	n/a	wordpools/wordpool_SP.txt	PUENTE	5	4	[0, 0, 0]	n/a	FR1	2	R1070T
484.256	2.567	642274	WORD	n/a	wordpools/wordpool_SP.txt	PRECIPICIO	6	4	[0, 0, 0]	n/a	FR1	2	R1070T
486.823	2.434	644841	WORD	n/a	wordpools/wordpool_SP.txt	CARA	7	4	[0, 0, 0]	n/a	FR1	2	R1070T
489.257	2.417	647275	WORD	n/a	wordpools/wordpool_SP.txt	FUERTE	8	4	[0, 0, 0]	n/a	FR1	2	R1070T
491.674	2.401	649692	WORD	n/a	wordpools/wordpool_SP.txt	TERRENO	9	4	[0, 0, 0]	n/a	FR1	2	R1070T
494.075	2.567	652093	WORD	n/a	wordpools/wordpool_SP.txt	JEFE	10	4	[0, 0, 0]	n/a	FR1	2	R1070T
496.642	2.584	654660	WORD	n/a	wordpools/wordpool_SP.txt	GUISANTE	11	4	[0, 0, 0]	n/a	FR1	2	R1070T
499.226	1.617	657244	WORD	n/a	wordpools/wordpool_SP.txt	CARRETERA	12	4	[0, 0, 0]	n/a	FR1	2	R1070T
500.843	0.0	658861	DISTRACT_START	n/a	n/a	n/a	-999	4	[0, 0, 0]	n/a	FR1	2	R1070T
500.843	0.016	658861	START	n/a	n/a	n/a	-999	4	[-999, -999, -999]	n/a	FR1	2	R1070T
500.859	6.518	658877	PROB	6.518	n/a	n/a	-999	4	[5, 9, 2]	16	FR1	2	R1070T
507.377	7.985	665394	PROB	7.985	n/a	n/a	-999	4	[3, 7, 8]	18	FR1	2	R1070T
515.362	3.967	673379	PROB	3.967	n/a	n/a	-999	4	[1, 8, 1]	10	FR1	2	R1070T
519.329	8.053	677346	PROB	8.053	n/a	n/a	-999	4	[8, 7, 5]	20	FR1	2	R1070T
527.382	0.015	685398	STOP	n/a	n/a	n/a	-999	4	[-999, -999, -999]	n/a	FR1	2	R1070T
527.397	1.101	685413	DISTRACT_END	n/a	n/a	n/a	-999	4	[0, 0, 0]	n/a	FR1	2	R1070T
528.498	1.128	686514	REC_START	n/a	n/a	n/a	-999	4	[0, 0, 0]	n/a	FR1	2	R1070T
529.626	12.356	687642	REC_WORD	12.356	n/a	ESTRELLA	-999	4	[0, 0, 0]	n/a	FR1	2	R1070T
541.982	11.977	699998	REC_WORD	11.977	n/a	MONTE	-999	4	[0, 0, 0]	n/a	FR1	2	R1070T
553.959	3.022	711974	REC_WORD	3.022	n/a	INTRUSION	-999	4	[0, 0, 0]	n/a	FR1	2	R1070T
556.981	1.531	714996	REC_WORD	1.531	n/a	CUCHARA	-999	4	[0, 0, 0]	n/a	FR1	2	R1070T
558.512	3.175	716527	REC_END	n/a	n/a	n/a	-999	4	[0, 0, 0]	n/a	FR1	2	R1070T
561.687	0.0	719702	COUNTDOWN_START	n/a	n/a	n/a	-999	5	[0, 0, 0]	n/a	FR1	2	R1070T
561.687	10.428	719702	TRIAL	n/a	n/a	n/a	-999	5	[0, 0, 0]	n/a	FR1	2	R1070T
572.115	0.007	730129	COUNTDOWN_END	n/a	n/a	n/a	-999	5	[0, 0, 0]	n/a	FR1	2	R1070T
572.122	2.502	730136	ORIENT	n/a	n/a	n/a	-999	5	[0, 0, 0]	n/a	FR1	2	R1070T
574.624	2.566	732638	WORD	n/a	wordpools/wordpool_SP.txt	HACHA	1	5	[0, 0, 0]	n/a	FR1	2	R1070T
577.19	2.384	735204	WORD	n/a	wordpools/wordpool_SP.txt	HIELO	2	5	[0, 0, 0]	n/a	FR1	2	R1070T
579.574	2.583	737588	WORD	n/a	wordpools/wordpool_SP.txt	PLATO	3	5	[0, 0, 0]	n/a	FR1	2	R1070T
582.157	2.452	740171	WORD	n/a	wordpools/wordpool_SP.txt	PAGINA	4	5	[0, 0, 0]	n/a	FR1	2	R1070T
584.609	2.383	742623	WORD	n/a	wordpools/wordpool_SP.txt	CARCEL	5	5	[0, 0, 0]	n/a	FR1	2	R1070T
586.992	2.583	745005	WORD	n/a	wordpools/wordpool_SP.txt	PELICULA	6	5	[0, 0, 0]	n/a	FR1	2	R1070T
589.575	2.451	747588	WORD	n/a	wordpools/wordpool_SP.txt	ALCES	7	5	[0, 0, 0]	n/a	FR1	2	R1070T
592.026	2.417	750039	WORD	n/a	wordpools/wordpool_SP.txt	RAIZ	8	5	[0, 0, 0]	n/a	FR1	2	R1070T
594.443	2.6	752456	WORD	n/a	wordpools/wordpool_SP.txt	CORONA	9	5	[0, 0, 0]	n/a	FR1	2	R1070T
597.043	2.618	755056	WORD	n/a	wordpools/wordpool_SP.txt	UNA	10	5	[0, 0, 0]	n/a	FR1	2	R1070T
599.661	2.617	757674	WORD	n/a	wordpools/wordpool_SP.txt	HERRAMIENTA	11	5	[0, 0, 0]	n/a	FR1	2	R1070T
602.278	1.617	760291	WORD	n/a	wordpools/wordpool_SP.txt	SEMILLA	12	5	[0, 0, 0]	n/a	FR1	2	R1070T
603.895	0.001	761908	DISTRACT_START	n/a	n/a	n/a	-999	5	[0, 0, 0]	n/a	FR1	2	R1070T
603.896	0.015	761909	START	n/a	n/a	n/a	-999	5	[-999, -999, -999]	n/a	FR1	2	R1070T
603.911	5.801	761924	PROB	5.801	n/a	n/a	-999	5	[9, 8, 4]	21	FR1	2	R1070T
609.712	5.051	767724	PROB	5.051	n/a	n/a	-999	5	[8, 2, 7]	17	FR1	2	R1070T
614.763	5.985	772775	PROB	5.985	n/a	n/a	-999	5	[3, 9, 5]	17	FR1	2	R1070T
620.748	5.082	778760	PROB	5.082	n/a	n/a	-999	5	[8, 4, 3]	15	FR1	2	R1070T
625.83	0.019	783841	STOP	n/a	n/a	n/a	-999	5	[-999, -999, -999]	n/a	FR1	2	R1070T
625.849	1.068	783860	DISTRACT_END	n/a	n/a	n/a	-999	5	[0, 0, 0]	n/a	FR1	2	R1070T
626.917	1.71	784928	REC_START	n/a	n/a	n/a	-999	5	[0, 0, 0]	n/a	FR1	2	R1070T
628.627	0.915	786638	REC_WORD	0.915	n/a	PLATO	-999	5	[0, 0, 0]	n/a	FR1	2	R1070T
629.542	2.099	787553	REC_WORD	2.099	n/a	CUCHARA	-999	5	[0, 0, 0]	n/a	FR1	2	R1070T
631.641	7.316	789652	REC_WORD	7.316	n/a	TENEDOR	-999	5	[0, 0, 0]	n/a	FR1	2	R1070T
638.957	2.627	796968	REC_WORD	2.627	n/a	CARCEL	-999	5	[0, 0, 0]	n/a	FR1	2	R1070T
641.584	15.342	799595	REC_WORD	15.342	n/a	INTRUSION	-999	5	[0, 0, 0]	n/a	FR1	2	R1070T
656.926	5.729	814936	REC_END	n/a	n/a	n/a	-999	5	[0, 0, 0]	n/a	FR1	2	R1070T
662.655	0.0	820665	TRIAL	n/a	n/a	n/a	-999	6	[0, 0, 0]	n/a	FR1	2	R1070T
662.655	10.428	820665	COUNTDOWN_START	n/a	n/a	n/a	-999	6	[0, 0, 0]	n/a	FR1	2	R1070T
673.083	0.007	831092	COUNTDOWN_END	n/a	n/a	n/a	-999	6	[0, 0, 0]	n/a	FR1	2	R1070T
673.09	2.434	831099	ORIENT	n/a	n/a	n/a	-999	6	[0, 0, 0]	n/a	FR1	2	R1070T
675.524	2.501	833533	WORD	n/a	wordpools/wordpool_SP.txt	MUELLE	1	6	[0, 0, 0]	n/a	FR1	2	R1070T
678.025	2.517	836034	WORD	n/a	wordpools/wordpool_SP.txt	ESPUMA	2	6	[0, 0, 0]	n/a	FR1	2	R1070T
680.542	2.417	838551	WORD	n/a	wordpools/wordpool_SP.txt	VESTIDO	3	6	[0, 0, 0]	n/a	FR1	2	R1070T
682.959	2.5	840968	WORD	n/a	wordpools/wordpool_SP.txt	HOYO	4	6	[0, 0, 0]	n/a	FR1	2	R1070T
685.459	2.551	843468	WORD	n/a	wordpools/wordpool_SP.txt	SAL	5	6	[0, 0, 0]	n/a	FR1	2	R1070T
688.01	2.433	846018	WORD	n/a	wordpools/wordpool_SP.txt	TARRO	6	6	[0, 0, 0]	n/a	FR1	2	R1070T
690.443	2.418	848451	WORD	n/a	wordpools/wordpool_SP.txt	ROSA	7	6	[0, 0, 0]	n/a	FR1	2	R1070T
692.861	2.383	850869	WORD	n/a	wordpools/wordpool_SP.txt	PICO	8	6	[0, 0, 0]	n/a	FR1	2	R1070T
695.244	2.401	853252	WORD	n/a	wordpools/wordpool_SP.txt	CUCHARA	9	6	[0, 0, 0]	n/a	FR1	2	R1070T
697.645	2.567	855653	WORD	n/a	wordpools/wordpool_SP.txt	FREGADERO	10	6	[0, 0, 0]	n/a	FR1	2	R1070T
700.212	2.601	858220	WORD	n/a	wordpools/wordpool_SP.txt	BANO	11	6	[0, 0, 0]	n/a	FR1	2	R1070T
702.813	1.616	860821	WORD	n/a	wordpools/wordpool_SP.txt	HILO	12	6	[0, 0, 0]	n/a	FR1	2	R1070T
704.429	0.001	862437	DISTRACT_START	n/a	n/a	n/a	-999	6	[0, 0, 0]	n/a	FR1	2	R1070T
704.43	0.016	862438	START	n/a	n/a	n/a	-999	6	[-999, -999, -999]	n/a	FR1	2	R1070T
704.446	7.301	862454	PROB	7.301	n/a	n/a	-999	6	[6, 8, 5]	19	FR1	2	R1070T
711.747	3.701	869754	PROB	3.701	n/a	n/a	-999	6	[1, 4, 2]	7	FR1	2	R1070T
715.448	5.851	873455	PROB	5.851	n/a	n/a	-999	6	[7, 4, 7]	18	FR1	2	R1070T
721.299	7.714	879306	PROB	7.714	n/a	n/a	-999	6	[9, 8, 7]	24	FR1	2	R1070T
729.013	0.004	887019	STOP	n/a	n/a	n/a	-999	6	[-999, -999, -999]	n/a	FR1	2	R1070T
729.017	1.034	887023	DISTRACT_END	n/a	n/a	n/a	-999	6	[0, 0, 0]	n/a	FR1	2	R1070T
730.051	2.405	888057	REC_START	n/a	n/a	n/a	-999	6	[0, 0, 0]	n/a	FR1	2	R1070T
732.456	1.634	890462	REC_WORD	1.634	n/a	INTRUSION	-999	6	[0, 0, 0]	n/a	FR1	2	R1070T
734.09	1.723	892096	REC_WORD	1.723	n/a	INTRUSION	-999	6	[0, 0, 0]	n/a	FR1	2	R1070T
735.813	2.17	893819	REC_WORD	2.17	n/a	INTRUSION	-999	6	[0, 0, 0]	n/a	FR1	2	R1070T
737.983	2.864	895989	REC_WORD	2.864	n/a	BANO	-999	6	[0, 0, 0]	n/a	FR1	2	R1070T
740.847	4.21	898853	REC_WORD	4.21	n/a	CUCHARA	-999	6	[0, 0, 0]	n/a	FR1	2	R1070T
745.057	7.07	903063	REC_WORD	7.07	n/a	RATON	-999	6	[0, 0, 0]	n/a	FR1	2	R1070T
752.127	7.938	910132	REC_WORD	7.938	n/a	FREGADERO	-999	6	[0, 0, 0]	n/a	FR1	2	R1070T
760.065	4.008	918070	REC_END	n/a	n/a	n/a	-999	6	[0, 0, 0]	n/a	FR1	2	R1070T
764.073	0.001	922078	COUNTDOWN_START	n/a	n/a	n/a	-999	7	[0, 0, 0]	n/a	FR1	2	R1070T
764.074	10.427	922079	TRIAL	n/a	n/a	n/a	-999	7	[0, 0, 0]	n/a	FR1	2	R1070T
774.501	0.008	932505	COUNTDOWN_END	n/a	n/a	n/a	-999	7	[0, 0, 0]	n/a	FR1	2	R1070T
774.509	2.417	932513	ORIENT	n/a	n/a	n/a	-999	7	[0, 0, 0]	n/a	FR1	2	R1070T
776.926	2.5	934930	WORD	n/a	wordpools/wordpool_SP.txt	BRAZO	1	7	[0, 0, 0]	n/a	FR1	2	R1070T
779.426	2.551	937430	WORD	n/a	wordpools/wordpool_SP.txt	MEJILLA	2	7	[0, 0, 0]	n/a	FR1	2	R1070T
781.977	2.434	939981	WORD	n/a	wordpools/wordpool_SP.txt	DEDO	3	7	[0, 0, 0]	n/a	FR1	2	R1070T
784.411	2.484	942415	WORD	n/a	wordpools/wordpool_SP.txt	MASCOTA	4	7	[0, 0, 0]	n/a	FR1	2	R1070T
786.895	2.567	944899	WORD	n/a	wordpools/wordpool_SP.txt	CARPA	5	7	[0, 0, 0]	n/a	FR1	2	R1070T
789.462	2.45	947465	WORD	n/a	wordpools/wordpool_SP.txt	BOLSO	6	7	[0, 0, 0]	n/a	FR1	2	R1070T
791.912	2.401	949915	WORD	n/a	wordpools/wordpool_SP.txt	JAULA	7	7	[0, 0, 0]	n/a	FR1	2	R1070T
794.313	2.583	952316	WORD	n/a	wordpools/wordpool_SP.txt	PALMA	8	7	[0, 0, 0]	n/a	FR1	2	R1070T
796.896	2.434	954899	WORD	n/a	wordpools/wordpool_SP.txt	GUARDIA	9	7	[0, 0, 0]	n/a	FR1	2	R1070T
799.33	2.501	957333	WORD	n/a	wordpools/wordpool_SP.txt	CUERNO	10	7	[0, 0, 0]	n/a	FR1	2	R1070T
801.831	2.567	959834	WORD	n/a	wordpools/wordpool_SP.txt	JUGUETE	11	7	[0, 0, 0]	n/a	FR1	2	R1070T
804.398	1.617	962401	WORD	n/a	wordpools/wordpool_SP.txt	COLA	12	7	[0, 0, 0]	n/a	FR1	2	R1070T
806.015	0.001	964018	DISTRACT_START	n/a	n/a	n/a	-999	7	[0, 0, 0]	n/a	FR1	2	R1070T
806.016	0.015	964019	START	n/a	n/a	n/a	-999	7	[-999, -999, -999]	n/a	FR1	2	R1070T
806.031	6.318	964034	PROB	6.318	n/a	n/a	-999	7	[4, 2, 3]	9	FR1	2	R1070T
812.349	4.468	970351	PROB	4.468	n/a	n/a	-999	7	[7, 1, 3]	11	FR1	2	R1070T
816.817	4.467	974819	PROB	4.467	n/a	n/a	-999	7	[4, 6, 3]	13	FR1	2	R1070T
821.284	4.786	979286	PROB	4.786	n/a	n/a	-999	7	[6, 8, 8]	22	FR1	2	R1070T
826.07	0.015	984072	STOP	n/a	n/a	n/a	-999	7	[-999, -999, -999]	n/a	FR1	2	R1070T
826.085	1.218	984087	DISTRACT_END	n/a	n/a	n/a	-999	7	[0, 0, 0]	n/a	FR1	2	R1070T
827.303	1.371	985305	REC_START	n/a	n/a	n/a	-999	7	[0, 0, 0]	n/a	FR1	2	R1070T
828.674	1.291	986675	REC_WORD	1.291	n/a	BRAZO	-999	7	[0, 0, 0]	n/a	FR1	2	R1070T
829.965	13.258	987966	REC_WORD	13.258	n/a	DEDO	-999	7	[0, 0, 0]	n/a	FR1	2	R1070T
843.223	14.09	1001224	REC_WORD	14.09	n/a	BOLSA	-999	7	[0, 0, 0]	n/a	FR1	2	R1070T
857.313	2.678	1015313	REC_END	n/a	n/a	n/a	-999	7	[0, 0, 0]	n/a	FR1	2	R1070T
859.991	0.0	1017991	TRIAL	n/a	n/a	n/a	-999	8	[0, 0, 0]	n/a	FR1	2	R1070T
859.991	10.428	1017991	COUNTDOWN_START	n/a	n/a	n/a	-999	8	[0, 0, 0]	n/a	FR1	2	R1070T
870.419	0.007	1028418	COUNTDOWN_END	n/a	n/a	n/a	-999	8	[0, 0, 0]	n/a	FR1	2	R1070T
870.426	2.401	1028425	ORIENT	n/a	n/a	n/a	-999	8	[0, 0, 0]	n/a	FR1	2	R1070T
872.827	2.384	1030826	WORD	n/a	wordpools/wordpool_SP.txt	UVA	1	8	[0, 0, 0]	n/a	FR1	2	R1070T
875.211	2.418	1033210	WORD	n/a	wordpools/wordpool_SP.txt	JABON	2	8	[0, 0, 0]	n/a	FR1	2	R1070T
877.629	2.599	1035628	WORD	n/a	wordpools/wordpool_SP.txt	PEZ	3	8	[0, 0, 0]	n/a	FR1	2	R1070T
880.228	2.567	1038227	WORD	n/a	wordpools/wordpool_SP.txt	CAMARON	4	8	[0, 0, 0]	n/a	FR1	2	R1070T
882.795	2.517	1040794	WORD	n/a	wordpools/wordpool_SP.txt	FRIJOL	5	8	[0, 0, 0]	n/a	FR1	2	R1070T
885.312	2.434	1043311	WORD	n/a	wordpools/wordpool_SP.txt	PRIMAVERA	6	8	[0, 0, 0]	n/a	FR1	2	R1070T
887.746	2.584	1045745	WORD	n/a	wordpools/wordpool_SP.txt	LABIO	7	8	[0, 0, 0]	n/a	FR1	2	R1070T
890.33	2.567	1048328	WORD	n/a	wordpools/wordpool_SP.txt	COSTILLA	8	8	[0, 0, 0]	n/a	FR1	2	R1070T
892.897	2.45	1050895	WORD	n/a	wordpools/wordpool_SP.txt	ARROZ	9	8	[0, 0, 0]	n/a	FR1	2	R1070T
895.347	2.584	1053345	WORD	n/a	wordpools/wordpool_SP.txt	FICHA	10	8	[0, 0, 0]	n/a	FR1	2	R1070T
897.931	2.418	1055929	WORD	n/a	wordpools/wordpool_SP.txt	TALLO	11	8	[0, 0, 0]	n/a	FR1	2	R1070T
900.349	1.616	1058347	WORD	n/a	wordpools/wordpool_SP.txt	HOJA	12	8	[0, 0, 0]	n/a	FR1	2	R1070T
901.965	0.001	1059963	DISTRACT_START	n/a	n/a	n/a	-999	8	[0, 0, 0]	n/a	FR1	2	R1070T
901.966	0.016	1059964	START	n/a	n/a	n/a	-999	8	[-999, -999, -999]	n/a	FR1	2	R1070T
901.982	7.435	1059980	PROB	7.435	n/a	n/a	-999	8	[6, 9, 4]	19	FR1	2	R1070T
909.417	5.601	1067415	PROB	5.601	n/a	n/a	-999	8	[6, 6, 9]	22	FR1	2	R1070T
915.018	8.276	1073015	PROB	8.276	n/a	n/a	-999	8	[5, 9, 6]	21	FR1	2	R1070T
923.294	0.009	1081291	STOP	n/a	n/a	n/a	-999	8	[-999, -999, -999]	n/a	FR1	2	R1070T
923.303	1.2	1081300	DISTRACT_END	n/a	n/a	n/a	-999	8	[0, 0, 0]	n/a	FR1	2	R1070T
924.503	4.847	1082500	REC_START	n/a	n/a	n/a	-999	8	[0, 0, 0]	n/a	FR1	2	R1070T
929.35	11.354	1087347	REC_WORD	11.354	n/a	JABON	-999	8	[0, 0, 0]	n/a	FR1	2	R1070T
940.704	13.813	1098700	REC_WORD	13.813	n/a	HUEVO	-999	8	[0, 0, 0]	n/a	FR1	2	R1070T
954.517	10.96	1112512	REC_END	n/a	n/a	n/a	-999	8	[0, 0, 0]	n/a	FR1	2	R1070T
965.477	0.0	1123472	TRIAL	n/a	n/a	n/a	-999	9	[0, 0, 0]	n/a	FR1	2	R1070T
965.477	10.428	1123472	COUNTDOWN_START	n/a	n/a	n/a	-999	9	[0, 0, 0]	n/a	FR1	2	R1070T
975.905	0.007	1133899	COUNTDOWN_END	n/a	n/a	n/a	-999	9	[0, 0, 0]	n/a	FR1	2	R1070T
975.912	2.617	1133906	ORIENT	n/a	n/a	n/a	-999	9	[0, 0, 0]	n/a	FR1	2	R1070T
978.529	2.534	1136523	WORD	n/a	wordpools/wordpool_SP.txt	OSO	1	9	[0, 0, 0]	n/a	FR1	2	R1070T
981.063	2.535	1139057	WORD	n/a	wordpools/wordpool_SP.txt	ZOOLOGICO	2	9	[0, 0, 0]	n/a	FR1	2	R1070T
983.598	2.599	1141592	WORD	n/a	wordpools/wordpool_SP.txt	ALFILER	3	9	[0, 0, 0]	n/a	FR1	2	R1070T
986.197	2.567	1144191	WORD	n/a	wordpools/wordpool_SP.txt	GUSANO	4	9	[0, 0, 0]	n/a	FR1	2	R1070T
988.764	2.434	1146758	WORD	n/a	wordpools/wordpool_SP.txt	CAMA	5	9	[0, 0, 0]	n/a	FR1	2	R1070T
991.198	2.484	1149191	WORD	n/a	wordpools/wordpool_SP.txt	AVE	6	9	[0, 0, 0]	n/a	FR1	2	R1070T
993.682	2.534	1151675	WORD	n/a	wordpools/wordpool_SP.txt	LIMO	7	9	[0, 0, 0]	n/a	FR1	2	R1070T
996.216	2.6	1154209	WORD	n/a	wordpools/wordpool_SP.txt	RAMA	8	9	[0, 0, 0]	n/a	FR1	2	R1070T
998.816	2.467	1156809	WORD	n/a	wordpools/wordpool_SP.txt	BOLA	9	9	[0, 0, 0]	n/a	FR1	2	R1070T
1001.283	2.468	1159276	WORD	n/a	wordpools/wordpool_SP.txt	MURCIELAGO	10	9	[0, 0, 0]	n/a	FR1	2	R1070T
1003.751	2.55	1161744	WORD	n/a	wordpools/wordpool_SP.txt	LOBO	11	9	[0, 0, 0]	n/a	FR1	2	R1070T
1006.301	1.617	1164294	WORD	n/a	wordpools/wordpool_SP.txt	PELAJE	12	9	[0, 0, 0]	n/a	FR1	2	R1070T
1007.918	0.001	1165911	DISTRACT_START	n/a	n/a	n/a	-999	9	[0, 0, 0]	n/a	FR1	2	R1070T
1007.919	0.016	1165912	START	n/a	n/a	n/a	-999	9	[-999, -999, -999]	n/a	FR1	2	R1070T
1007.935	6.067	1165928	PROB	6.067	n/a	n/a	-999	9	[4, 6, 7]	17	FR1	2	R1070T
1014.002	4.485	1171994	PROB	4.485	n/a	n/a	-999	9	[2, 8, 2]	12	FR1	2	R1070T
1018.487	4.95	1176479	PROB	4.95	n/a	n/a	-999	9	[2, 3, 4]	9	FR1	2	R1070T
1023.437	6.489	1181429	PROB	6.489	n/a	n/a	-999	9	[6, 2, 4]	12	FR1	2	R1070T
1029.926	0.013	1187918	STOP	n/a	n/a	n/a	-999	9	[-999, -999, -999]	n/a	FR1	2	R1070T
1029.939	1.05	1187931	DISTRACT_END	n/a	n/a	n/a	-999	9	[0, 0, 0]	n/a	FR1	2	R1070T
1030.989	1.347	1188981	REC_START	n/a	n/a	n/a	-999	9	[0, 0, 0]	n/a	FR1	2	R1070T
1032.336	1.524	1190327	REC_WORD	1.524	n/a	OSO	-999	9	[0, 0, 0]	n/a	FR1	2	R1070T
1033.86	27.14	1191851	REC_WORD	27.14	n/a	ANGUILA	-999	9	[0, 0, 0]	n/a	FR1	2	R1070T
1061.0	8.763	1218990	REC_END	n/a	n/a	n/a	-999	9	[0, 0, 0]	n/a	FR1	2	R1070T
1069.763	0.0	1227753	TRIAL	n/a	n/a	n/a	-999	10	[0, 0, 0]	n/a	FR1	2	R1070T
1069.763	10.428	1227753	COUNTDOWN_START	n/a	n/a	n/a	-999	10	[0, 0, 0]	n/a	FR1	2	R1070T
1080.191	0.007	1238180	COUNTDOWN_END	n/a	n/a	n/a	-999	10	[0, 0, 0]	n/a	FR1	2	R1070T
1080.198	2.617	1238187	ORIENT	n/a	n/a	n/a	-999	10	[0, 0, 0]	n/a	FR1	2	R1070T
1082.815	2.417	1240804	WORD	n/a	wordpools/wordpool_SP.txt	TINTA	1	10	[0, 0, 0]	n/a	FR1	2	R1070T
1085.232	2.434	1243221	WORD	n/a	wordpools/wordpool_SP.txt	PAN	2	10	[0, 0, 0]	n/a	FR1	2	R1070T
1087.666	2.384	1245655	WORD	n/a	wordpools/wordpool_SP.txt	DURAZNO	3	10	[0, 0, 0]	n/a	FR1	2	R1070T
1090.05	2.433	1248039	WORD	n/a	wordpools/wordpool_SP.txt	CARRO	4	10	[0, 0, 0]	n/a	FR1	2	R1070T
1092.483	2.601	1250471	WORD	n/a	wordpools/wordpool_SP.txt	SIGNO	5	10	[0, 0, 0]	n/a	FR1	2	R1070T
1095.084	2.584	1253072	WORD	n/a	wordpools/wordpool_SP.txt	CESPED	6	10	[0, 0, 0]	n/a	FR1	2	R1070T
1097.668	2.5	1255656	WORD	n/a	wordpools/wordpool_SP.txt	BALLENA	7	10	[0, 0, 0]	n/a	FR1	2	R1070T
1100.168	2.452	1258156	WORD	n/a	wordpools/wordpool_SP.txt	CALLE	8	10	[0, 0, 0]	n/a	FR1	2	R1070T
1102.62	2.532	1260608	WORD	n/a	wordpools/wordpool_SP.txt	ESTUFA	9	10	[0, 0, 0]	n/a	FR1	2	R1070T
1105.152	2.485	1263140	WORD	n/a	wordpools/wordpool_SP.txt	ORO	10	10	[0, 0, 0]	n/a	FR1	2	R1070T
1107.637	2.616	1265625	WORD	n/a	wordpools/wordpool_SP.txt	PIEDRA	11	10	[0, 0, 0]	n/a	FR1	2	R1070T
1110.253	1.617	1268241	WORD	n/a	wordpools/wordpool_SP.txt	MONEDA	12	10	[0, 0, 0]	n/a	FR1	2	R1070T
1111.87	0.001	1269858	DISTRACT_START	n/a	n/a	n/a	-999	10	[0, 0, 0]	n/a	FR1	2	R1070T
1111.871	0.016	1269859	START	n/a	n/a	n/a	-999	10	[-999, -999, -999]	n/a	FR1	2	R1070T
1111.887	6.851	1269875	PROB	6.851	n/a	n/a	-999	10	[6, 8, 8]	22	FR1	2	R1070T
1118.738	3.467	1276725	PROB	3.467	n/a	n/a	-999	10	[9, 5, 5]	19	FR1	2	R1070T
1122.205	5.635	1280192	PROB	5.635	n/a	n/a	-999	10	[5, 2, 9]	16	FR1	2	R1070T
1127.84	3.934	1285827	PROB	3.934	n/a	n/a	-999	10	[2, 5, 5]	12	FR1	2	R1070T
1131.774	6.048	1289761	PROB	6.048	n/a	n/a	-999	10	[9, 8, 5]	22	FR1	2	R1070T
1137.822	0.02	1295808	STOP	n/a	n/a	n/a	-999	10	[-999, -999, -999]	n/a	FR1	2	R1070T
1137.842	1.034	1295828	DISTRACT_END	n/a	n/a	n/a	-999	10	[0, 0, 0]	n/a	FR1	2	R1070T
1138.876	0.784	1296862	REC_START	n/a	n/a	n/a	-999	10	[0, 0, 0]	n/a	FR1	2	R1070T
1139.66	1.936	1297646	REC_WORD	1.936	n/a	PINTURA	-999	10	[0, 0, 0]	n/a	FR1	2	R1070T
1141.596	2.973	1299582	REC_WORD	2.973	n/a	PARED	-999	10	[0, 0, 0]	n/a	FR1	2	R1070T
1144.569	3.288	1302555	REC_WORD	3.288	n/a	TINTA	-999	10	[0, 0, 0]	n/a	FR1	2	R1070T
1147.857	19.864	1305843	REC_WORD	19.864	n/a	ESTUFA	-999	10	[0, 0, 0]	n/a	FR1	2	R1070T
1167.721	1.165	1325706	REC_WORD	1.165	n/a	LADRILLO	-999	10	[0, 0, 0]	n/a	FR1	2	R1070T
1168.886	4.079	1326871	REC_END	n/a	n/a	n/a	-999	10	[0, 0, 0]	n/a	FR1	2	R1070T
1172.965	0.0	1330950	TRIAL	n/a	n/a	n/a	-999	11	[0, 0, 0]	n/a	FR1	2	R1070T
1172.965	10.428	1330950	COUNTDOWN_START	n/a	n/a	n/a	-999	11	[0, 0, 0]	n/a	FR1	2	R1070T
1183.393	0.007	1341377	COUNTDOWN_END	n/a	n/a	n/a	-999	11	[0, 0, 0]	n/a	FR1	2	R1070T
1183.4	2.534	1341384	ORIENT	n/a	n/a	n/a	-999	11	[0, 0, 0]	n/a	FR1	2	R1070T
1185.934	2.467	1343918	WORD	n/a	wordpools/wordpool_SP.txt	LUNAR	1	11	[0, 0, 0]	n/a	FR1	2	R1070T
1188.401	2.517	1346385	WORD	n/a	wordpools/wordpool_SP.txt	PATO	2	11	[0, 0, 0]	n/a	FR1	2	R1070T
1190.918	2.534	1348902	WORD	n/a	wordpools/wordpool_SP.txt	DIENTE	3	11	[0, 0, 0]	n/a	FR1	2	R1070T
1193.452	2.584	1351435	WORD	n/a	wordpools/wordpool_SP.txt	CAMISA	4	11	[0, 0, 0]	n/a	FR1	2	R1070T
1196.036	2.483	1354019	WORD	n/a	wordpools/wordpool_SP.txt	BOTE	5	11	[0, 0, 0]	n/a	FR1	2	R1070T
1198.519	2.417	1356502	WORD	n/a	wordpools/wordpool_SP.txt	BOTA	6	11	[0, 0, 0]	n/a	FR1	2	R1070T
1200.936	2.468	1358919	WORD	n/a	wordpools/wordpool_SP.txt	MOFETA	7	11	[0, 0, 0]	n/a	FR1	2	R1070T
1203.404	2.617	1361387	WORD	n/a	wordpools/wordpool_SP.txt	DIENTES	8	11	[0, 0, 0]	n/a	FR1	2	R1070T
1206.021	2.383	1364004	WORD	n/a	wordpools/wordpool_SP.txt	CANDADO	9	11	[0, 0, 0]	n/a	FR1	2	R1070T
1208.404	2.384	1366387	WORD	n/a	wordpools/wordpool_SP.txt	SERPIENTE	10	11	[0, 0, 0]	n/a	FR1	2	R1070T
1210.788	2.551	1368771	WORD	n/a	wordpools/wordpool_SP.txt	ARCA	11	11	[0, 0, 0]	n/a	FR1	2	R1070T
1213.339	1.616	1371322	WORD	n/a	wordpools/wordpool_SP.txt	CRIA	12	11	[0, 0, 0]	n/a	FR1	2	R1070T
1214.955	0.001	1372937	DISTRACT_START	n/a	n/a	n/a	-999	11	[0, 0, 0]	n/a	FR1	2	R1070T
1214.956	0.016	1372938	START	n/a	n/a	n/a	-999	11	[-999, -999, -999]	n/a	FR1	2	R1070T
1214.972	6.718	1372954	PROB	6.718	n/a	n/a	-999	11	[4, 8, 5]	17	FR1	2	R1070T
1221.69	7.318	1379672	PROB	7.318	n/a	n/a	-999	11	[9, 3, 2]	14	FR1	2	R1070T
1229.008	5.635	1386990	PROB	5.635	n/a	n/a	-999	11	[9, 5, 9]	23	FR1	2	R1070T
1234.643	6.106	1392624	PROB	6.106	n/a	n/a	-999	11	[9, 2, 7]	18	FR1	2	R1070T
1240.749	0.011	1398730	STOP	n/a	n/a	n/a	-999	11	[-999, -999, -999]	n/a	FR1	2	R1070T
1240.76	1.168	1398741	DISTRACT_END	n/a	n/a	n/a	-999	11	[0, 0, 0]	n/a	FR1	2	R1070T
1241.928	7.815	1399909	REC_START	n/a	n/a	n/a	-999	11	[0, 0, 0]	n/a	FR1	2	R1070T
1249.743	1.65	1407724	REC_WORD	1.65	n/a	BOTA	-999	11	[0, 0, 0]	n/a	FR1	2	R1070T
1251.393	1.279	1409374	REC_WORD	1.279	n/a	PATO	-999	11	[0, 0, 0]	n/a	FR1	2	R1070T
1252.672	7.791	1410653	REC_WORD	7.791	n/a	CAMISA	-999	11	[0, 0, 0]	n/a	FR1	2	R1070T
1260.463	11.475	1418443	REC_WORD	11.475	n/a	BOTE	-999	11	[0, 0, 0]	n/a	FR1	2	R1070T
1271.938	16.464	1429918	REC_END	n/a	n/a	n/a	-999	11	[0, 0, 0]	n/a	FR1	2	R1070T
1288.402	0.001	1446381	COUNTDOWN_START	n/a	n/a	n/a	-999	12	[0, 0, 0]	n/a	FR1	2	R1070T
1288.403	10.427	1446382	TRIAL	n/a	n/a	n/a	-999	12	[0, 0, 0]	n/a	FR1	2	R1070T
1298.83	0.008	1456808	COUNTDOWN_END	n/a	n/a	n/a	-999	12	[0, 0, 0]	n/a	FR1	2	R1070T
1298.838	2.383	1456816	ORIENT	n/a	n/a	n/a	-999	12	[0, 0, 0]	n/a	FR1	2	R1070T
1301.221	2.551	1459199	WORD	n/a	wordpools/wordpool_SP.txt	MANGA	1	12	[0, 0, 0]	n/a	FR1	2	R1070T
1303.772	2.384	1461750	WORD	n/a	wordpools/wordpool_SP.txt	CORBATA	2	12	[0, 0, 0]	n/a	FR1	2	R1070T
1306.156	2.533	1464134	WORD	n/a	wordpools/wordpool_SP.txt	MANGUERA	3	12	[0, 0, 0]	n/a	FR1	2	R1070T
1308.689	2.451	1466667	WORD	n/a	wordpools/wordpool_SP.txt	BASTON	4	12	[0, 0, 0]	n/a	FR1	2	R1070T
1311.14	2.468	1469118	WORD	n/a	wordpools/wordpool_SP.txt	BANDEJA	5	12	[0, 0, 0]	n/a	FR1	2	R1070T
1313.608	2.433	1471586	WORD	n/a	wordpools/wordpool_SP.txt	GRANJA	6	12	[0, 0, 0]	n/a	FR1	2	R1070T
1316.041	2.585	1474018	WORD	n/a	wordpools/wordpool_SP.txt	MALEZA	7	12	[0, 0, 0]	n/a	FR1	2	R1070T
1318.626	2.382	1476603	WORD	n/a	wordpools/wordpool_SP.txt	PASTEL	8	12	[0, 0, 0]	n/a	FR1	2	R1070T
1321.008	2.602	1478985	WORD	n/a	wordpools/wordpool_SP.txt	PALO	9	12	[0, 0, 0]	n/a	FR1	2	R1070T
1323.61	2.533	1481587	WORD	n/a	wordpools/wordpool_SP.txt	SELLO	10	12	[0, 0, 0]	n/a	FR1	2	R1070T
1326.143	2.417	1484120	WORD	n/a	wordpools/wordpool_SP.txt	CORDERO	11	12	[0, 0, 0]	n/a	FR1	2	R1070T
1328.56	1.617	1486537	WORD	n/a	wordpools/wordpool_SP.txt	PISCINA	12	12	[0, 0, 0]	n/a	FR1	2	R1070T
1330.177	0.0	1488154	DISTRACT_START	n/a	n/a	n/a	-999	12	[0, 0, 0]	n/a	FR1	2	R1070T
1330.177	0.016	1488154	START	n/a	n/a	n/a	-999	12	[-999, -999, -999]	n/a	FR1	2	R1070T
1330.193	6.618	1488170	PROB	6.618	n/a	n/a	-999	12	[3, 4, 9]	16	FR1	2	R1070T
1336.811	4.718	1494787	PROB	4.718	n/a	n/a	-999	12	[1, 3, 8]	12	FR1	2	R1070T
1341.529	5.601	1499505	PROB	5.601	n/a	n/a	-999	12	[4, 4, 5]	13	FR1	2	R1070T
1347.13	5.452	1505106	PROB	5.452	n/a	n/a	-999	12	[2, 9, 5]	16	FR1	2	R1070T
1352.582	0.016	1510558	STOP	n/a	n/a	n/a	-999	12	[-999, -999, -999]	n/a	FR1	2	R1070T
1352.598	1.15	1510574	DISTRACT_END	n/a	n/a	n/a	-999	12	[0, 0, 0]	n/a	FR1	2	R1070T
1353.748	3.387	1511724	REC_START	n/a	n/a	n/a	-999	12	[0, 0, 0]	n/a	FR1	2	R1070T
1357.135	1.866	1515110	REC_WORD	1.866	n/a	MALEZA	-999	12	[0, 0, 0]	n/a	FR1	2	R1070T
1359.001	1.822	1516976	REC_WORD	1.822	n/a	MANGA	-999	12	[0, 0, 0]	n/a	FR1	2	R1070T
1360.823	22.939	1518798	REC_WORD	22.939	n/a	CORBATA	-999	12	[0, 0, 0]	n/a	FR1	2	R1070T
1383.762	5.259	1541736	REC_END	n/a	n/a	n/a	-999	12	[0, 0, 0]	n/a	FR1	2	R1070T
1389.021	0.0	1546995	COUNTDOWN_START	n/a	n/a	n/a	-999	13	[0, 0, 0]	n/a	FR1	2	R1070T
1389.021	10.428	1546995	TRIAL	n/a	n/a	n/a	-999	13	[0, 0, 0]	n/a	FR1	2	R1070T
1399.449	0.007	1557422	COUNTDOWN_END	n/a	n/a	n/a	-999	13	[0, 0, 0]	n/a	FR1	2	R1070T
1399.456	2.4	1557429	ORIENT	n/a	n/a	n/a	-999	13	[0, 0, 0]	n/a	FR1	2	R1070T
1401.856	2.517	1559829	WORD	n/a	wordpools/wordpool_SP.txt	RATA	1	13	[0, 0, 0]	n/a	FR1	2	R1070T
1404.373	2.501	1562346	WORD	n/a	wordpools/wordpool_SP.txt	ESCOBA	2	13	[0, 0, 0]	n/a	FR1	2	R1070T
1406.874	2.4	1564847	WORD	n/a	wordpools/wordpool_SP.txt	BUHO	3	13	[0, 0, 0]	n/a	FR1	2	R1070T
1409.274	2.434	1567247	WORD	n/a	wordpools/wordpool_SP.txt	GALLINA	4	13	[0, 0, 0]	n/a	FR1	2	R1070T
1411.708	2.617	1569681	WORD	n/a	wordpools/wordpool_SP.txt	HORMIGA	5	13	[0, 0, 0]	n/a	FR1	2	R1070T
1414.325	2.617	1572298	WORD	n/a	wordpools/wordpool_SP.txt	SOGA	6	13	[0, 0, 0]	n/a	FR1	2	R1070T
1416.942	2.551	1574914	WORD	n/a	wordpools/wordpool_SP.txt	CORDEL	7	13	[0, 0, 0]	n/a	FR1	2	R1070T
1419.493	2.484	1577465	WORD	n/a	wordpools/wordpool_SP.txt	PAPALOTE	8	13	[0, 0, 0]	n/a	FR1	2	R1070T
1421.977	2.5	1579949	WORD	n/a	wordpools/wordpool_SP.txt	ZORRO	9	13	[0, 0, 0]	n/a	FR1	2	R1070T
1424.477	2.617	1582449	WORD	n/a	wordpools/wordpool_SP.txt	MENTON	10	13	[0, 0, 0]	n/a	FR1	2	R1070T
1427.094	2.601	1585066	WORD	n/a	wordpools/wordpool_SP.txt	TECHO	11	13	[0, 0, 0]	n/a	FR1	2	R1070T
1429.695	1.617	1587667	WORD	n/a	wordpools/wordpool_SP.txt	PULGAR	12	13	[0, 0, 0]	n/a	FR1	2	R1070T
1431.312	0.001	1589284	DISTRACT_START	n/a	n/a	n/a	-999	13	[0, 0, 0]	n/a	FR1	2	R1070T
1431.313	0.015	1589285	START	n/a	n/a	n/a	-999	13	[-999, -999, -999]	n/a	FR1	2	R1070T
1431.328	4.201	1589300	PROB	4.201	n/a	n/a	-999	13	[4, 3, 4]	11	FR1	2	R1070T
1435.529	5.534	1593501	PROB	5.534	n/a	n/a	-999	13	[5, 9, 4]	18	FR1	2	R1070T
1441.063	6.085	1599034	PROB	6.085	n/a	n/a	-999	13	[7, 2, 9]	18	FR1	2	R1070T
1447.148	13.602	1605119	PROB	13.602	n/a	n/a	-999	13	[5, 2, 9]	21	FR1	2	R1070T
1460.75	0.017	1618720	STOP	n/a	n/a	n/a	-999	13	[-999, -999, -999]	n/a	FR1	2	R1070T
1460.767	1.151	1618737	DISTRACT_END	n/a	n/a	n/a	-999	13	[0, 0, 0]	n/a	FR1	2	R1070T
1461.918	0.96	1619888	REC_START	n/a	n/a	n/a	-999	13	[0, 0, 0]	n/a	FR1	2	R1070T
1462.878	1.422	1620848	REC_WORD	1.422	n/a	HORMIGA	-999	13	[0, 0, 0]	n/a	FR1	2	R1070T
1464.3	1.382	1622270	REC_WORD	1.382	n/a	RATA	-999	13	[0, 0, 0]	n/a	FR1	2	R1070T
1465.682	4.876	1623652	REC_WORD	4.876	n/a	BUFALO	-999	13	[0, 0, 0]	n/a	FR1	2	R1070T
1470.558	7.887	1628528	REC_WORD	7.887	n/a	TECHO	-999	13	[0, 0, 0]	n/a	FR1	2	R1070T
1478.445	13.483	1636414	REC_WORD	13.483	n/a	HORMIGA	-999	13	[0, 0, 0]	n/a	FR1	2	R1070T
1491.928	2.145	1649897	REC_END	n/a	n/a	n/a	-999	13	[0, 0, 0]	n/a	FR1	2	R1070T
1494.073	0.001	1652042	COUNTDOWN_START	n/a	n/a	n/a	-999	14	[0, 0, 0]	n/a	FR1	2	R1070T
1494.074	10.427	1652043	TRIAL	n/a	n/a	n/a	-999	14	[0, 0, 0]	n/a	FR1	2	R1070T
1504.501	0.007	1662469	COUNTDOWN_END	n/a	n/a	n/a	-999	14	[0, 0, 0]	n/a	FR1	2	R1070T
1504.508	2.618	1662476	ORIENT	n/a	n/a	n/a	-999	14	[0, 0, 0]	n/a	FR1	2	R1070T
1507.126	2.4	1665094	WORD	n/a	wordpools/wordpool_SP.txt	CAPA	1	14	[0, 0, 0]	n/a	FR1	2	R1070T
1509.526	2.6	1667494	WORD	n/a	wordpools/wordpool_SP.txt	PISO	2	14	[0, 0, 0]	n/a	FR1	2	R1070T
1512.126	2.434	1670094	WORD	n/a	wordpools/wordpool_SP.txt	ROCA	3	14	[0, 0, 0]	n/a	FR1	2	R1070T
1514.56	2.567	1672528	WORD	n/a	wordpools/wordpool_SP.txt	ANGUILA	4	14	[0, 0, 0]	n/a	FR1	2	R1070T
1517.127	2.584	1675095	WORD	n/a	wordpools/wordpool_SP.txt	NIDO	5	14	[0, 0, 0]	n/a	FR1	2	R1070T
1519.711	2.617	1677678	WORD	n/a	wordpools/wordpool_SP.txt	POLILLA	6	14	[0, 0, 0]	n/a	FR1	2	R1070T
1522.328	2.417	1680295	WORD	n/a	wordpools/wordpool_SP.txt	ALA	7	14	[0, 0, 0]	n/a	FR1	2	R1070T
1524.745	2.551	1682712	WORD	n/a	wordpools/wordpool_SP.txt	HABITACION	8	14	[0, 0, 0]	n/a	FR1	2	R1070T
1527.296	2.467	1685263	WORD	n/a	wordpools/wordpool_SP.txt	PLAYA	9	14	[0, 0, 0]	n/a	FR1	2	R1070T
1529.763	2.517	1687730	WORD	n/a	wordpools/wordpool_SP.txt	RUEDA	10	14	[0, 0, 0]	n/a	FR1	2	R1070T
1532.28	2.584	1690247	WORD	n/a	wordpools/wordpool_SP.txt	LLUVIA	11	14	[0, 0, 0]	n/a	FR1	2	R1070T
1534.864	1.617	1692831	WORD	n/a	wordpools/wordpool_SP.txt	HIERBA	12	14	[0, 0, 0]	n/a	FR1	2	R1070T
1536.481	0.001	1694448	DISTRACT_START	n/a	n/a	n/a	-999	14	[0, 0, 0]	n/a	FR1	2	R1070T
1536.482	0.015	1694449	START	n/a	n/a	n/a	-999	14	[-999, -999, -999]	n/a	FR1	2	R1070T
1536.497	4.801	1694464	PROB	4.801	n/a	n/a	-999	14	[4, 9, 1]	14	FR1	2	R1070T
1541.298	6.818	1699264	PROB	6.818	n/a	n/a	-999	14	[6, 2, 5]	13	FR1	2	R1070T
1548.116	5.435	1706082	PROB	5.435	n/a	n/a	-999	14	[6, 8, 6]	20	FR1	2	R1070T
1553.551	3.679	1711517	PROB	3.679	n/a	n/a	-999	14	[1, 6, 2]	9	FR1	2	R1070T
1557.23	0.004	1715196	STOP	n/a	n/a	n/a	-999	14	[-999, -999, -999]	n/a	FR1	2	R1070T
1557.234	1.035	1715200	DISTRACT_END	n/a	n/a	n/a	-999	14	[0, 0, 0]	n/a	FR1	2	R1070T
1558.269	1.363	1716235	REC_START	n/a	n/a	n/a	-999	14	[0, 0, 0]	n/a	FR1	2	R1070T
1559.632	0.793	1717597	REC_WORD	0.793	n/a	AGUA	-999	14	[0, 0, 0]	n/a	FR1	2	R1070T
1560.425	3.089	1718390	REC_WORD	3.089	n/a	POLILLA	-999	14	[0, 0, 0]	n/a	FR1	2	R1070T
1563.514	24.765	1721479	REC_WORD	24.765	n/a	LLUVIA	-999	14	[0, 0, 0]	n/a	FR1	2	R1070T
1588.279	1.645	1746243	REC_END	n/a	n/a	n/a	-999	14	[0, 0, 0]	n/a	FR1	2	R1070T
1589.924	0.0	1747888	COUNTDOWN_START	n/a	n/a	n/a	-999	15	[0, 0, 0]	n/a	FR1	2	R1070T
1589.924	10.428	1747888	TRIAL	n/a	n/a	n/a	-999	15	[0, 0, 0]	n/a	FR1	2	R1070T
1600.352	0.007	1758315	COUNTDOWN_END	n/a	n/a	n/a	-999	15	[0, 0, 0]	n/a	FR1	2	R1070T
1600.359	2.501	1758322	ORIENT	n/a	n/a	n/a	-999	15	[0, 0, 0]	n/a	FR1	2	R1070T
1602.86	2.433	1760823	WORD	n/a	wordpools/wordpool_SP.txt	TRAJE	1	15	[0, 0, 0]	n/a	FR1	2	R1070T
1605.293	2.417	1763256	WORD	n/a	wordpools/wordpool_SP.txt	OREJA	2	15	[0, 0, 0]	n/a	FR1	2	R1070T
1607.71	2.401	1765673	WORD	n/a	wordpools/wordpool_SP.txt	ESPADA	3	15	[0, 0, 0]	n/a	FR1	2	R1070T
1610.111	2.534	1768074	WORD	n/a	wordpools/wordpool_SP.txt	RELOJ	4	15	[0, 0, 0]	n/a	FR1	2	R1070T
1612.645	2.417	1770608	WORD	n/a	wordpools/wordpool_SP.txt	TELEFONO	5	15	[0, 0, 0]	n/a	FR1	2	R1070T
1615.062	2.5	1773025	WORD	n/a	wordpools/wordpool_SP.txt	VERJA	6	15	[0, 0, 0]	n/a	FR1	2	R1070T
1617.562	2.501	1775525	WORD	n/a	wordpools/wordpool_SP.txt	LIBRO	7	15	[0, 0, 0]	n/a	FR1	2	R1070T
1620.063	2.6	1778025	WORD	n/a	wordpools/wordpool_SP.txt	BOCA	8	15	[0, 0, 0]	n/a	FR1	2	R1070T
1622.663	2.484	1780625	WORD	n/a	wordpools/wordpool_SP.txt	NINO	9	15	[0, 0, 0]	n/a	FR1	2	R1070T
1625.147	2.451	1783109	WORD	n/a	wordpools/wordpool_SP.txt	CASA	10	15	[0, 0, 0]	n/a	FR1	2	R1070T
1627.598	2.517	1785560	WORD	n/a	wordpools/wordpool_SP.txt	RUBOR	11	15	[0, 0, 0]	n/a	FR1	2	R1070T
1630.115	1.617	1788077	WORD	n/a	wordpools/wordpool_SP.txt	CAMIONETA	12	15	[0, 0, 0]	n/a	FR1	2	R1070T
1631.732	0.0	1789694	DISTRACT_START	n/a	n/a	n/a	-999	15	[0, 0, 0]	n/a	FR1	2	R1070T
1631.732	0.016	1789694	START	n/a	n/a	n/a	-999	15	[-999, -999, -999]	n/a	FR1	2	R1070T
1631.748	9.135	1789710	PROB	9.135	n/a	n/a	-999	15	[9, 7, 9]	25	FR1	2	R1070T
1640.883	4.968	1798844	PROB	4.968	n/a	n/a	-999	15	[3, 7, 4]	14	FR1	2	R1070T
1645.851	3.867	1803812	PROB	3.867	n/a	n/a	-999	15	[2, 1, 1]	4	FR1	2	R1070T
1649.718	8.296	1807679	PROB	8.296	n/a	n/a	-999	15	[3, 4, 9]	18	FR1	2	R1070T
1658.014	0.006	1815975	STOP	n/a	n/a	n/a	-999	15	[-999, -999, -999]	n/a	FR1	2	R1070T
1658.02	1.217	1815981	DISTRACT_END	n/a	n/a	n/a	-999	15	[0, 0, 0]	n/a	FR1	2	R1070T
1659.237	2.896	1817198	REC_START	n/a	n/a	n/a	-999	15	[0, 0, 0]	n/a	FR1	2	R1070T
1662.133	14.186	1820093	REC_WORD	14.186	n/a	TRAJE	-999	15	[0, 0, 0]	n/a	FR1	2	R1070T
1676.319	12.932	1834279	REC_WORD	12.932	n/a	NINO	-999	15	[0, 0, 0]	n/a	FR1	2	R1070T
1689.251	3.075	1847210	REC_END	n/a	n/a	n/a	-999	15	[0, 0, 0]	n/a	FR1	2	R1070T
1692.326	0.0	1850285	TRIAL	n/a	n/a	n/a	-999	16	[0, 0, 0]	n/a	FR1	2	R1070T
1692.326	10.428	1850285	COUNTDOWN_START	n/a	n/a	n/a	-999	16	[0, 0, 0]	n/a	FR1	2	R1070T
1702.754	0.007	1860712	COUNTDOWN_END	n/a	n/a	n/a	-999	16	[0, 0, 0]	n/a	FR1	2	R1070T
1702.761	2.384	1860719	ORIENT	n/a	n/a	n/a	-999	16	[0, 0, 0]	n/a	FR1	2	R1070T
1705.145	2.567	1863103	WORD	n/a	wordpools/wordpool_SP.txt	CUEVA	1	16	[0, 0, 0]	n/a	FR1	2	R1070T
1707.712	2.484	1865670	WORD	n/a	wordpools/wordpool_SP.txt	ESCALERA	2	16	[0, 0, 0]	n/a	FR1	2	R1070T
1710.196	2.484	1868154	WORD	n/a	wordpools/wordpool_SP.txt	PANTANO	3	16	[0, 0, 0]	n/a	FR1	2	R1070T
1712.68	2.517	1870638	WORD	n/a	wordpools/wordpool_SP.txt	MADERA	4	16	[0, 0, 0]	n/a	FR1	2	R1070T
1715.197	2.583	1873155	WORD	n/a	wordpools/wordpool_SP.txt	GRUA	5	16	[0, 0, 0]	n/a	FR1	2	R1070T
1717.78	2.501	1875738	WORD	n/a	wordpools/wordpool_SP.txt	RASTRILLO	6	16	[0, 0, 0]	n/a	FR1	2	R1070T
1720.281	2.417	1878239	WORD	n/a	wordpools/wordpool_SP.txt	HALCON	7	16	[0, 0, 0]	n/a	FR1	2	R1070T
1722.698	2.417	1880655	WORD	n/a	wordpools/wordpool_SP.txt	PIPA	8	16	[0, 0, 0]	n/a	FR1	2	R1070T
1725.115	2.434	1883072	WORD	n/a	wordpools/wordpool_SP.txt	CABALLO	9	16	[0, 0, 0]	n/a	FR1	2	R1070T
1727.549	2.583	1885506	WORD	n/a	wordpools/wordpool_SP.txt	ARBOL	10	16	[0, 0, 0]	n/a	FR1	2	R1070T
1730.132	2.451	1888089	WORD	n/a	wordpools/wordpool_SP.txt	DARDO	11	16	[0, 0, 0]	n/a	FR1	2	R1070T
1732.583	1.617	1890540	WORD	n/a	wordpools/wordpool_SP.txt	CAJA	12	16	[0, 0, 0]	n/a	FR1	2	R1070T
1734.2	0.001	1892157	DISTRACT_START	n/a	n/a	n/a	-999	16	[0, 0, 0]	n/a	FR1	2	R1070T
1734.201	0.016	1892158	START	n/a	n/a	n/a	-999	16	[-999, -999, -999]	n/a	FR1	2	R1070T
1734.217	5.784	1892174	PROB	5.784	n/a	n/a	-999	16	[1, 5, 1]	7	FR1	2	R1070T
1740.001	7.385	1897958	PROB	7.385	n/a	n/a	-999	16	[3, 5, 7]	15	FR1	2	R1070T
1747.386	5.051	1905342	PROB	5.051	n/a	n/a	-999	16	[2, 7, 6]	15	FR1	2	R1070T
1752.437	6.704	1910393	PROB	6.704	n/a	n/a	-999	16	[4, 4, 5]	13	FR1	2	R1070T
1759.141	0.014	1917097	STOP	n/a	n/a	n/a	-999	16	[-999, -999, -999]	n/a	FR1	2	R1070T
1759.155	1.034	1917111	DISTRACT_END	n/a	n/a	n/a	-999	16	[0, 0, 0]	n/a	FR1	2	R1070T
1760.189	1.193	1918145	REC_START	n/a	n/a	n/a	-999	16	[0, 0, 0]	n/a	FR1	2	R1070T
1761.382	0.97	1919338	REC_WORD	0.97	n/a	PIPA	-999	16	[0, 0, 0]	n/a	FR1	2	R1070T
1762.352	5.721	1920307	REC_WORD	5.721	n/a	ESCALERA	-999	16	[0, 0, 0]	n/a	FR1	2	R1070T
1768.073	22.126	1926028	REC_WORD	22.126	n/a	INTRUSION	-999	16	[0, 0, 0]	n/a	FR1	2	R1070T
1790.199	3.912	1948153	REC_END	n/a	n/a	n/a	-999	16	[0, 0, 0]	n/a	FR1	2	R1070T
1794.111	0.0	1952065	TRIAL	n/a	n/a	n/a	-999	17	[0, 0, 0]	n/a	FR1	2	R1070T
1794.111	10.428	1952065	COUNTDOWN_START	n/a	n/a	n/a	-999	17	[0, 0, 0]	n/a	FR1	2	R1070T
1804.539	0.024	1962492	COUNTDOWN_END	n/a	n/a	n/a	-999	17	[0, 0, 0]	n/a	FR1	2	R1070T
1804.563	2.617	1962516	ORIENT	n/a	n/a	n/a	-999	17	[0, 0, 0]	n/a	FR1	2	R1070T
1807.18	2.617	1965133	WORD	n/a	wordpools/wordpool_SP.txt	ABEJA	1	17	[0, 0, 0]	n/a	FR1	2	R1070T
1809.797	2.551	1967750	WORD	n/a	wordpools/wordpool_SP.txt	TIENDA	2	17	[0, 0, 0]	n/a	FR1	2	R1070T
1812.348	2.6	1970301	WORD	n/a	wordpools/wordpool_SP.txt	BASURA	3	17	[0, 0, 0]	n/a	FR1	2	R1070T
1814.948	2.534	1972901	WORD	n/a	wordpools/wordpool_SP.txt	MONO	4	17	[0, 0, 0]	n/a	FR1	2	R1070T
1817.482	2.384	1975435	WORD	n/a	wordpools/wordpool_SP.txt	HUMO	5	17	[0, 0, 0]	n/a	FR1	2	R1070T
1819.866	2.617	1977819	WORD	n/a	wordpools/wordpool_SP.txt	RATON	6	17	[0, 0, 0]	n/a	FR1	2	R1070T
1822.483	2.567	1980435	WORD	n/a	wordpools/wordpool_SP.txt	BANCO	7	17	[0, 0, 0]	n/a	FR1	2	R1070T
1825.05	2.434	1983002	WORD	n/a	wordpools/wordpool_SP.txt	RED	8	17	[0, 0, 0]	n/a	FR1	2	R1070T
1827.484	2.467	1985436	WORD	n/a	wordpools/wordpool_SP.txt	LECHE	9	17	[0, 0, 0]	n/a	FR1	2	R1070T
1829.951	2.467	1987903	WORD	n/a	wordpools/wordpool_SP.txt	GATO	10	17	[0, 0, 0]	n/a	FR1	2	R1070T
1832.418	2.484	1990370	WORD	n/a	wordpools/wordpool_SP.txt	EFECTIVO	11	17	[0, 0, 0]	n/a	FR1	2	R1070T
1834.902	1.617	1992854	WORD	n/a	wordpools/wordpool_SP.txt	CORAZON	12	17	[0, 0, 0]	n/a	FR1	2	R1070T
1836.519	0.0	1994471	DISTRACT_START	n/a	n/a	n/a	-999	17	[0, 0, 0]	n/a	FR1	2	R1070T
1836.519	0.016	1994471	START	n/a	n/a	n/a	-999	17	[-999, -999, -999]	n/a	FR1	2	R1070T
1836.535	4.685	1994487	PROB	4.685	n/a	n/a	-999	17	[6, 1, 6]	13	FR1	2	R1070T
1841.22	4.334	1999172	PROB	4.334	n/a	n/a	-999	17	[7, 1, 6]	14	FR1	2	R1070T
1845.554	5.951	2003505	PROB	5.951	n/a	n/a	-999	17	[6, 6, 4]	16	FR1	2	R1070T
1851.505	17.652	2009456	PROB	17.652	n/a	n/a	-999	17	[5, 5, 9]	19	FR1	2	R1070T
1869.157	0.018	2027107	STOP	n/a	n/a	n/a	-999	17	[-999, -999, -999]	n/a	FR1	2	R1070T
1869.175	1.084	2027125	DISTRACT_END	n/a	n/a	n/a	-999	17	[0, 0, 0]	n/a	FR1	2	R1070T
1870.259	1.209	2028209	REC_START	n/a	n/a	n/a	-999	17	[0, 0, 0]	n/a	FR1	2	R1070T
1871.468	8.845	2029418	REC_WORD	8.845	n/a	ESCALERA	-999	17	[0, 0, 0]	n/a	FR1	2	R1070T
1880.313	19.956	2038263	REC_WORD	19.956	n/a	INTRUSION	-999	17	[0, 0, 0]	n/a	FR1	2	R1070T
1900.269	13.964	2058218	REC_END	n/a	n/a	n/a	-999	17	[0, 0, 0]	n/a	FR1	2	R1070T
1914.233	0.0	2072181	COUNTDOWN_START	n/a	n/a	n/a	-999	18	[0, 0, 0]	n/a	FR1	2	R1070T
1914.233	10.428	2072181	TRIAL	n/a	n/a	n/a	-999	18	[0, 0, 0]	n/a	FR1	2	R1070T
1924.661	0.007	2082608	COUNTDOWN_END	n/a	n/a	n/a	-999	18	[0, 0, 0]	n/a	FR1	2	R1070T
1924.668	2.567	2082615	ORIENT	n/a	n/a	n/a	-999	18	[0, 0, 0]	n/a	FR1	2	R1070T
1927.235	2.517	2085182	WORD	n/a	wordpools/wordpool_SP.txt	TABURETE	1	18	[0, 0, 0]	n/a	FR1	2	R1070T
1929.752	2.534	2087699	WORD	n/a	wordpools/wordpool_SP.txt	TE	2	18	[0, 0, 0]	n/a	FR1	2	R1070T
1932.286	2.534	2090233	WORD	n/a	wordpools/wordpool_SP.txt	GANSOS	3	18	[0, 0, 0]	n/a	FR1	2	R1070T
1934.82	2.6	2092767	WORD	n/a	wordpools/wordpool_SP.txt	MEDIA	4	18	[0, 0, 0]	n/a	FR1	2	R1070T
1937.42	2.434	2095367	WORD	n/a	wordpools/wordpool_SP.txt	PAYASO	5	18	[0, 0, 0]	n/a	FR1	2	R1070T
1939.854	2.417	2097801	WORD	n/a	wordpools/wordpool_SP.txt	CERDO	6	18	[0, 0, 0]	n/a	FR1	2	R1070T
1942.271	2.451	2100218	WORD	n/a	wordpools/wordpool_SP.txt	FLAUTA	7	18	[0, 0, 0]	n/a	FR1	2	R1070T
1944.722	2.467	2102668	WORD	n/a	wordpools/wordpool_SP.txt	GRANERO	8	18	[0, 0, 0]	n/a	FR1	2	R1070T
1947.189	2.5	2105135	WORD	n/a	wordpools/wordpool_SP.txt	CAMION	9	18	[0, 0, 0]	n/a	FR1	2	R1070T
1949.689	2.618	2107635	WORD	n/a	wordpools/wordpool_SP.txt	VENTILADOR	10	18	[0, 0, 0]	n/a	FR1	2	R1070T
1952.307	2.45	2110253	WORD	n/a	wordpools/wordpool_SP.txt	SOMBRERO	11	18	[0, 0, 0]	n/a	FR1	2	R1070T
1954.757	1.617	2112703	WORD	n/a	wordpools/wordpool_SP.txt	TAZA	12	18	[0, 0, 0]	n/a	FR1	2	R1070T
1956.374	0.001	2114320	DISTRACT_START	n/a	n/a	n/a	-999	18	[0, 0, 0]	n/a	FR1	2	R1070T
1956.375	0.016	2114321	START	n/a	n/a	n/a	-999	18	[-999, -999, -999]	n/a	FR1	2	R1070T
1956.391	4.5	2114337	PROB	4.5	n/a	n/a	-999	18	[3, 9, 9]	21	FR1	2	R1070T
1960.891	3.634	2118837	PROB	3.634	n/a	n/a	-999	18	[2, 1, 2]	4	FR1	2	R1070T
1964.525	5.768	2122470	PROB	5.768	n/a	n/a	-999	18	[5, 3, 3]	11	FR1	2	R1070T
1970.293	4.534	2128238	PROB	4.534	n/a	n/a	-999	18	[4, 1, 7]	12	FR1	2	R1070T
1974.827	6.547	2132772	PROB	6.547	n/a	n/a	-999	18	[3, 4, 4]	11	FR1	2	R1070T
1981.374	0.004	2139319	STOP	n/a	n/a	n/a	-999	18	[-999, -999, -999]	n/a	FR1	2	R1070T
1981.378	1.102	2139323	DISTRACT_END	n/a	n/a	n/a	-999	18	[0, 0, 0]	n/a	FR1	2	R1070T
1982.48	0.801	2140425	REC_START	n/a	n/a	n/a	-999	18	[0, 0, 0]	n/a	FR1	2	R1070T
1983.281	1.916	2141226	REC_WORD	1.916	n/a	SOMBRERO	-999	18	[0, 0, 0]	n/a	FR1	2	R1070T
1985.197	5.782	2143141	REC_WORD	5.782	n/a	TRAJE	-999	18	[0, 0, 0]	n/a	FR1	2	R1070T
1990.979	13.798	2148923	REC_WORD	13.798	n/a	PANTALONES	-999	18	[0, 0, 0]	n/a	FR1	2	R1070T
2004.777	1.433	2162721	REC_WORD	1.433	n/a	INTRUSION	-999	18	[0, 0, 0]	n/a	FR1	2	R1070T
2006.21	1.717	2164153	REC_WORD	1.717	n/a	CERDO	-999	18	[0, 0, 0]	n/a	FR1	2	R1070T
2007.927	4.563	2165870	REC_WORD	4.563	n/a	PAYASO	-999	18	[0, 0, 0]	n/a	FR1	2	R1070T
2012.49	2.878	2170433	REC_END	n/a	n/a	n/a	-999	18	[0, 0, 0]	n/a	FR1	2	R1070T
2015.368	0.0	2173311	TRIAL	n/a	n/a	n/a	-999	19	[0, 0, 0]	n/a	FR1	2	R1070T
2015.368	10.428	2173311	COUNTDOWN_START	n/a	n/a	n/a	-999	19	[0, 0, 0]	n/a	FR1	2	R1070T
2025.796	0.007	2183738	COUNTDOWN_END	n/a	n/a	n/a	-999	19	[0, 0, 0]	n/a	FR1	2	R1070T
2025.803	2.551	2183745	ORIENT	n/a	n/a	n/a	-999	19	[0, 0, 0]	n/a	FR1	2	R1070T
2028.354	2.534	2186296	WORD	n/a	wordpools/wordpool_SP.txt	SAPO	1	19	[0, 0, 0]	n/a	FR1	2	R1070T
2030.888	2.517	2188830	WORD	n/a	wordpools/wordpool_SP.txt	LODO	2	19	[0, 0, 0]	n/a	FR1	2	R1070T
2033.405	2.483	2191347	WORD	n/a	wordpools/wordpool_SP.txt	PLANTA	3	19	[0, 0, 0]	n/a	FR1	2	R1070T
2035.888	2.584	2193830	WORD	n/a	wordpools/wordpool_SP.txt	DULCE	4	19	[0, 0, 0]	n/a	FR1	2	R1070T
2038.472	2.401	2196414	WORD	n/a	wordpools/wordpool_SP.txt	TANQUE	5	19	[0, 0, 0]	n/a	FR1	2	R1070T
2040.873	2.4	2198815	WORD	n/a	wordpools/wordpool_SP.txt	TABLERO	6	19	[0, 0, 0]	n/a	FR1	2	R1070T
2043.273	2.401	2201215	WORD	n/a	wordpools/wordpool_SP.txt	VELA	7	19	[0, 0, 0]	n/a	FR1	2	R1070T
2045.674	2.583	2203615	WORD	n/a	wordpools/wordpool_SP.txt	ESPONJA	8	19	[0, 0, 0]	n/a	FR1	2	R1070T
2048.257	2.584	2206198	WORD	n/a	wordpools/wordpool_SP.txt	JET	9	19	[0, 0, 0]	n/a	FR1	2	R1070T
2050.841	2.417	2208782	WORD	n/a	wordpools/wordpool_SP.txt	CHISPA	10	19	[0, 0, 0]	n/a	FR1	2	R1070T
2053.258	2.384	2211199	WORD	n/a	wordpools/wordpool_SP.txt	MAR	11	19	[0, 0, 0]	n/a	FR1	2	R1070T
2055.642	1.617	2213583	WORD	n/a	wordpools/wordpool_SP.txt	VAPOR	12	19	[0, 0, 0]	n/a	FR1	2	R1070T
2057.259	0.001	2215200	DISTRACT_START	n/a	n/a	n/a	-999	19	[0, 0, 0]	n/a	FR1	2	R1070T
2057.26	0.016	2215201	START	n/a	n/a	n/a	-999	19	[-999, -999, -999]	n/a	FR1	2	R1070T
2057.276	7.984	2215217	PROB	7.984	n/a	n/a	-999	19	[6, 7, 5]	18	FR1	2	R1070T
2065.26	4.268	2223201	PROB	4.268	n/a	n/a	-999	19	[4, 5, 9]	18	FR1	2	R1070T
2069.528	3.551	2227468	PROB	3.551	n/a	n/a	-999	19	[2, 1, 6]	9	FR1	2	R1070T
2073.079	3.85	2231019	PROB	3.85	n/a	n/a	-999	19	[1, 8, 8]	17	FR1	2	R1070T
2076.929	4.293	2234869	PROB	4.293	n/a	n/a	-999	19	[3, 9, 1]	13	FR1	2	R1070T
2081.222	0.008	2239162	STOP	n/a	n/a	n/a	-999	19	[-999, -999, -999]	n/a	FR1	2	R1070T
2081.23	1.034	2239170	DISTRACT_END	n/a	n/a	n/a	-999	19	[0, 0, 0]	n/a	FR1	2	R1070T
2082.264	0.722	2240204	REC_START	n/a	n/a	n/a	-999	19	[0, 0, 0]	n/a	FR1	2	R1070T
2082.986	1.049	2240926	REC_WORD	1.049	n/a	PLANTA	-999	19	[0, 0, 0]	n/a	FR1	2	R1070T
2084.035	4.283	2241975	REC_WORD	4.283	n/a	INTRUSION	-999	19	[0, 0, 0]	n/a	FR1	2	R1070T
2088.318	8.41	2246257	REC_WORD	8.41	n/a	MAR	-999	19	[0, 0, 0]	n/a	FR1	2	R1070T
2096.728	15.552	2254667	REC_WORD	15.552	n/a	BOCA	-999	19	[0, 0, 0]	n/a	FR1	2	R1070T
2112.28	5.107	2270218	REC_END	n/a	n/a	n/a	-999	19	[0, 0, 0]	n/a	FR1	2	R1070T
2117.387	0.0	2275325	TRIAL	n/a	n/a	n/a	-999	20	[0, 0, 0]	n/a	FR1	2	R1070T
2117.387	10.428	2275325	COUNTDOWN_START	n/a	n/a	n/a	-999	20	[0, 0, 0]	n/a	FR1	2	R1070T
2127.815	0.007	2285752	COUNTDOWN_END	n/a	n/a	n/a	-999	20	[0, 0, 0]	n/a	FR1	2	R1070T
2127.822	2.4	2285759	ORIENT	n/a	n/a	n/a	-999	20	[0, 0, 0]	n/a	FR1	2	R1070T
2130.222	2.584	2288159	WORD	n/a	wordpools/wordpool_SP.txt	BOLSA	1	20	[0, 0, 0]	n/a	FR1	2	R1070T
2132.806	2.417	2290743	WORD	n/a	wordpools/wordpool_SP.txt	CABRA	2	20	[0, 0, 0]	n/a	FR1	2	R1070T
2135.223	2.417	2293160	WORD	n/a	wordpools/wordpool_SP.txt	PATIO	3	20	[0, 0, 0]	n/a	FR1	2	R1070T
2137.64	2.451	2295577	WORD	n/a	wordpools/wordpool_SP.txt	CARACOL	4	20	[0, 0, 0]	n/a	FR1	2	R1070T
2140.091	2.484	2298028	WORD	n/a	wordpools/wordpool_SP.txt	ZAPATO	5	20	[0, 0, 0]	n/a	FR1	2	R1070T
2142.575	2.383	2300512	WORD	n/a	wordpools/wordpool_SP.txt	PULGA	6	20	[0, 0, 0]	n/a	FR1	2	R1070T
2144.958	2.501	2302895	WORD	n/a	wordpools/wordpool_SP.txt	TAMBOR	7	20	[0, 0, 0]	n/a	FR1	2	R1070T
2147.459	2.567	2305395	WORD	n/a	wordpools/wordpool_SP.txt	VASO	8	20	[0, 0, 0]	n/a	FR1	2	R1070T
2150.026	2.55	2307962	WORD	n/a	wordpools/wordpool_SP.txt	NARIZ	9	20	[0, 0, 0]	n/a	FR1	2	R1070T
2152.576	2.567	2310512	WORD	n/a	wordpools/wordpool_SP.txt	TELARANA	10	20	[0, 0, 0]	n/a	FR1	2	R1070T
2155.143	2.401	2313079	WORD	n/a	wordpools/wordpool_SP.txt	MUNDO	11	20	[0, 0, 0]	n/a	FR1	2	R1070T
2157.544	1.617	2315480	WORD	n/a	wordpools/wordpool_SP.txt	BOLIGRAFO	12	20	[0, 0, 0]	n/a	FR1	2	R1070T
2159.161	0.001	2317097	DISTRACT_START	n/a	n/a	n/a	-999	20	[0, 0, 0]	n/a	FR1	2	R1070T
2159.162	0.015	2317098	START	n/a	n/a	n/a	-999	20	[-999, -999, -999]	n/a	FR1	2	R1070T
2159.177	6.453	2317113	PROB	6.453	n/a	n/a	-999	20	[7, 8, 3]	19	FR1	2	R1070T
2165.63	4.183	2323566	PROB	4.183	n/a	n/a	-999	20	[5, 1, 9]	15	FR1	2	R1070T
2169.813	3.967	2327748	PROB	3.967	n/a	n/a	-999	20	[2, 8, 3]	13	FR1	2	R1070T
2173.78	3.601	2331715	PROB	3.601	n/a	n/a	-999	20	[4, 3, 7]	14	FR1	2	R1070T
2177.381	6.21	2335316	PROB	6.21	n/a	n/a	-999	20	[7, 7, 7]	16	FR1	2	R1070T
2183.591	0.009	2341526	STOP	n/a	n/a	n/a	-999	20	[-999, -999, -999]	n/a	FR1	2	R1070T
2183.6	1.066	2341535	DISTRACT_END	n/a	n/a	n/a	-999	20	[0, 0, 0]	n/a	FR1	2	R1070T
2184.666	3.717	2342601	REC_START	n/a	n/a	n/a	-999	20	[0, 0, 0]	n/a	FR1	2	R1070T
2188.383	3.124	2346317	REC_WORD	3.124	n/a	TELARANA	-999	20	[0, 0, 0]	n/a	FR1	2	R1070T
2191.507	5.463	2349441	REC_WORD	5.463	n/a	PATIO	-999	20	[0, 0, 0]	n/a	FR1	2	R1070T
2196.97	4.816	2354904	REC_WORD	4.816	n/a	CARACOL	-999	20	[0, 0, 0]	n/a	FR1	2	R1070T
2201.786	12.89	2359720	REC_WORD	12.89	n/a	TAZA	-999	20	[0, 0, 0]	n/a	FR1	2	R1070T
2214.676	3.546	2372609	REC_END	n/a	n/a	n/a	-999	20	[0, 0, 0]	n/a	FR1	2	R1070T
2218.222	0.0	2376155	TRIAL	n/a	n/a	n/a	-999	21	[0, 0, 0]	n/a	FR1	2	R1070T
2218.222	10.428	2376155	COUNTDOWN_START	n/a	n/a	n/a	-999	21	[0, 0, 0]	n/a	FR1	2	R1070T
2228.65	0.007	2386582	COUNTDOWN_END	n/a	n/a	n/a	-999	21	[0, 0, 0]	n/a	FR1	2	R1070T
2228.657	2.6	2386589	ORIENT	n/a	n/a	n/a	-999	21	[0, 0, 0]	n/a	FR1	2	R1070T
2231.257	2.467	2389189	WORD	n/a	wordpools/wordpool_SP.txt	ARBUSTO	1	21	[0, 0, 0]	n/a	FR1	2	R1070T
2233.724	2.467	2391656	WORD	n/a	wordpools/wordpool_SP.txt	MANO	2	21	[0, 0, 0]	n/a	FR1	2	R1070T
2236.191	2.551	2394123	WORD	n/a	wordpools/wordpool_SP.txt	TIZA	3	21	[0, 0, 0]	n/a	FR1	2	R1070T
2238.742	2.417	2396674	WORD	n/a	wordpools/wordpool_SP.txt	CERCA	4	21	[0, 0, 0]	n/a	FR1	2	R1070T
2241.159	2.417	2399091	WORD	n/a	wordpools/wordpool_SP.txt	VENADO	5	21	[0, 0, 0]	n/a	FR1	2	R1070T
2243.576	2.417	2401508	WORD	n/a	wordpools/wordpool_SP.txt	ESQUI	6	21	[0, 0, 0]	n/a	FR1	2	R1070T
2245.993	2.4	2403925	WORD	n/a	wordpools/wordpool_SP.txt	MULA	7	21	[0, 0, 0]	n/a	FR1	2	R1070T
2248.393	2.535	2406324	WORD	n/a	wordpools/wordpool_SP.txt	TORMENTA	8	21	[0, 0, 0]	n/a	FR1	2	R1070T
2250.928	2.6	2408859	WORD	n/a	wordpools/wordpool_SP.txt	COLINA	9	21	[0, 0, 0]	n/a	FR1	2	R1070T
2253.528	2.534	2411459	WORD	n/a	wordpools/wordpool_SP.txt	CEPILLO	10	21	[0, 0, 0]	n/a	FR1	2	R1070T
2256.062	2.535	2413993	WORD	n/a	wordpools/wordpool_SP.txt	VARITA	11	21	[0, 0, 0]	n/a	FR1	2	R1070T
2258.597	1.616	2416528	WORD	n/a	wordpools/wordpool_SP.txt	PIE	12	21	[0, 0, 0]	n/a	FR1	2	R1070T
2260.213	0.001	2418144	DISTRACT_START	n/a	n/a	n/a	-999	21	[0, 0, 0]	n/a	FR1	2	R1070T
2260.214	0.015	2418145	START	n/a	n/a	n/a	-999	21	[-999, -999, -999]	n/a	FR1	2	R1070T
2260.229	5.035	2418160	PROB	5.035	n/a	n/a	-999	21	[2, 3, 2]	7	FR1	2	R1070T
2265.264	4.933	2423195	PROB	4.933	n/a	n/a	-999	21	[2, 1, 2]	5	FR1	2	R1070T
2270.197	5.668	2428127	PROB	5.668	n/a	n/a	-999	21	[6, 9, 2]	17	FR1	2	R1070T
2275.865	4.597	2433795	PROB	4.597	n/a	n/a	-999	21	[2, 5, 6]	13	FR1	2	R1070T
2280.462	0.004	2438392	STOP	n/a	n/a	n/a	-999	21	[-999, -999, -999]	n/a	FR1	2	R1070T
2280.466	1.169	2438396	DISTRACT_END	n/a	n/a	n/a	-999	21	[0, 0, 0]	n/a	FR1	2	R1070T
2281.635	0.821	2439565	REC_START	n/a	n/a	n/a	-999	21	[0, 0, 0]	n/a	FR1	2	R1070T
2282.456	1.512	2440386	REC_WORD	1.512	n/a	MANO	-999	21	[0, 0, 0]	n/a	FR1	2	R1070T
2283.968	21.541	2441898	REC_WORD	21.541	n/a	INTRUSION	-999	21	[0, 0, 0]	n/a	FR1	2	R1070T
2305.509	6.135	2463438	REC_WORD	6.135	n/a	MULA	-999	21	[0, 0, 0]	n/a	FR1	2	R1070T
2311.644	2.862	2469572	REC_END	n/a	n/a	n/a	-999	21	[0, 0, 0]	n/a	FR1	2	R1070T
2314.506	0.0	2472434	TRIAL	n/a	n/a	n/a	-999	22	[0, 0, 0]	n/a	FR1	2	R1070T
2314.506	10.428	2472434	COUNTDOWN_START	n/a	n/a	n/a	-999	22	[0, 0, 0]	n/a	FR1	2	R1070T
2324.934	0.007	2482862	COUNTDOWN_END	n/a	n/a	n/a	-999	22	[0, 0, 0]	n/a	FR1	2	R1070T
2324.941	2.401	2482869	ORIENT	n/a	n/a	n/a	-999	22	[0, 0, 0]	n/a	FR1	2	R1070T
2327.342	2.483	2485270	WORD	n/a	wordpools/wordpool_SP.txt	CUERDA	1	22	[0, 0, 0]	n/a	FR1	2	R1070T
2329.825	2.534	2487752	WORD	n/a	wordpools/wordpool_SP.txt	OLA	2	22	[0, 0, 0]	n/a	FR1	2	R1070T
2332.359	2.584	2490286	WORD	n/a	wordpools/wordpool_SP.txt	JUGO	3	22	[0, 0, 0]	n/a	FR1	2	R1070T
2334.943	2.434	2492870	WORD	n/a	wordpools/wordpool_SP.txt	OVEJA	4	22	[0, 0, 0]	n/a	FR1	2	R1070T
2337.377	2.533	2495304	WORD	n/a	wordpools/wordpool_SP.txt	MAPA	5	22	[0, 0, 0]	n/a	FR1	2	R1070T
2339.91	2.484	2497837	WORD	n/a	wordpools/wordpool_SP.txt	AVION	6	22	[0, 0, 0]	n/a	FR1	2	R1070T
2342.394	2.384	2500321	WORD	n/a	wordpools/wordpool_SP.txt	CONO	7	22	[0, 0, 0]	n/a	FR1	2	R1070T
2344.778	2.5	2502705	WORD	n/a	wordpools/wordpool_SP.txt	BARCO	8	22	[0, 0, 0]	n/a	FR1	2	R1070T
2347.278	2.551	2505205	WORD	n/a	wordpools/wordpool_SP.txt	BOMBA	9	22	[0, 0, 0]	n/a	FR1	2	R1070T
2349.829	2.55	2507755	WORD	n/a	wordpools/wordpool_SP.txt	POLO	10	22	[0, 0, 0]	n/a	FR1	2	R1070T
2352.379	2.401	2510305	WORD	n/a	wordpools/wordpool_SP.txt	ELFO	11	22	[0, 0, 0]	n/a	FR1	2	R1070T
2354.78	1.617	2512706	WORD	n/a	wordpools/wordpool_SP.txt	LUNA	12	22	[0, 0, 0]	n/a	FR1	2	R1070T
2356.397	0.001	2514323	DISTRACT_START	n/a	n/a	n/a	-999	22	[0, 0, 0]	n/a	FR1	2	R1070T
2356.398	0.015	2514324	START	n/a	n/a	n/a	-999	22	[-999, -999, -999]	n/a	FR1	2	R1070T
2356.413	4.186	2514339	PROB	4.186	n/a	n/a	-999	22	[3, 1, 1]	5	FR1	2	R1070T
2360.599	3.716	2518525	PROB	3.716	n/a	n/a	-999	22	[5, 2, 2]	9	FR1	2	R1070T
2364.315	5.634	2522241	PROB	5.634	n/a	n/a	-999	22	[5, 2, 6]	13	FR1	2	R1070T
2369.949	4.934	2527875	PROB	4.934	n/a	n/a	-999	22	[9, 2, 9]	20	FR1	2	R1070T
2374.883	4.986	2532808	PROB	4.986	n/a	n/a	-999	22	[1, 4, 8]	13	FR1	2	R1070T
2379.869	0.015	2537794	STOP	n/a	n/a	n/a	-999	22	[-999, -999, -999]	n/a	FR1	2	R1070T
2379.884	1.151	2537809	DISTRACT_END	n/a	n/a	n/a	-999	22	[0, 0, 0]	n/a	FR1	2	R1070T
2381.035	0.99	2538960	REC_START	n/a	n/a	n/a	-999	22	[0, 0, 0]	n/a	FR1	2	R1070T
2382.025	1.332	2539950	REC_WORD	1.332	n/a	BARCO	-999	22	[0, 0, 0]	n/a	FR1	2	R1070T
2383.357	2.132	2541282	REC_WORD	2.132	n/a	AVION	-999	22	[0, 0, 0]	n/a	FR1	2	R1070T
2385.489	1.562	2543414	REC_WORD	1.562	n/a	JUGO	-999	22	[0, 0, 0]	n/a	FR1	2	R1070T
2387.051	7.546	2544976	REC_WORD	7.546	n/a	MANO	-999	22	[0, 0, 0]	n/a	FR1	2	R1070T
2394.597	16.452	2552521	REC_WORD	16.452	n/a	CUERDA	-999	22	[0, 0, 0]	n/a	FR1	2	R1070T
2411.049	3.475	2568972	REC_END	n/a	n/a	n/a	-999	22	[0, 0, 0]	n/a	FR1	2	R1070T
2414.524	0.0	2572447	COUNTDOWN_START	n/a	n/a	n/a	-999	23	[0, 0, 0]	n/a	FR1	2	R1070T
2414.524	10.428	2572447	TRIAL	n/a	n/a	n/a	-999	23	[0, 0, 0]	n/a	FR1	2	R1070T
2424.952	0.007	2582875	COUNTDOWN_END	n/a	n/a	n/a	-999	23	[0, 0, 0]	n/a	FR1	2	R1070T
2424.959	2.567	2582882	ORIENT	n/a	n/a	n/a	-999	23	[0, 0, 0]	n/a	FR1	2	R1070T
2427.526	2.451	2585449	WORD	n/a	wordpools/wordpool_SP.txt	ESCRITORIO	1	23	[0, 0, 0]	n/a	FR1	2	R1070T
2429.977	2.467	2587900	WORD	n/a	wordpools/wordpool_SP.txt	PERLA	2	23	[0, 0, 0]	n/a	FR1	2	R1070T
2432.444	2.567	2590366	WORD	n/a	wordpools/wordpool_SP.txt	PERRO	3	23	[0, 0, 0]	n/a	FR1	2	R1070T
2435.011	2.585	2592933	WORD	n/a	wordpools/wordpool_SP.txt	LLAVE	4	23	[0, 0, 0]	n/a	FR1	2	R1070T
2437.596	2.399	2595518	WORD	n/a	wordpools/wordpool_SP.txt	JUEZ	5	23	[0, 0, 0]	n/a	FR1	2	R1070T
2439.995	2.534	2597917	WORD	n/a	wordpools/wordpool_SP.txt	LABERINTO	6	23	[0, 0, 0]	n/a	FR1	2	R1070T
2442.529	2.551	2600451	WORD	n/a	wordpools/wordpool_SP.txt	TIBURON	7	23	[0, 0, 0]	n/a	FR1	2	R1070T
2445.08	2.6	2603002	WORD	n/a	wordpools/wordpool_SP.txt	TAPETE	8	23	[0, 0, 0]	n/a	FR1	2	R1070T
2447.68	2.517	2605602	WORD	n/a	wordpools/wordpool_SP.txt	CARNET	9	23	[0, 0, 0]	n/a	FR1	2	R1070T
2450.197	2.617	2608119	WORD	n/a	wordpools/wordpool_SP.txt	CATRE	10	23	[0, 0, 0]	n/a	FR1	2	R1070T
2452.814	2.451	2610735	WORD	n/a	wordpools/wordpool_SP.txt	SOL	11	23	[0, 0, 0]	n/a	FR1	2	R1070T
2455.265	1.617	2613186	WORD	n/a	wordpools/wordpool_SP.txt	CORREO	12	23	[0, 0, 0]	n/a	FR1	2	R1070T
2456.882	0.001	2614803	DISTRACT_START	n/a	n/a	n/a	-999	23	[0, 0, 0]	n/a	FR1	2	R1070T
2456.883	0.015	2614804	START	n/a	n/a	n/a	-999	23	[-999, -999, -999]	n/a	FR1	2	R1070T
2456.898	8.602	2614819	PROB	8.602	n/a	n/a	-999	23	[4, 4, 5]	13	FR1	2	R1070T
2465.5	5.135	2623421	PROB	5.135	n/a	n/a	-999	23	[8, 3, 5]	15	FR1	2	R1070T
2470.635	8.21	2628556	PROB	8.21	n/a	n/a	-999	23	[5, 7, 6]	18	FR1	2	R1070T
2478.845	0.007	2636765	STOP	n/a	n/a	n/a	-999	23	[-999, -999, -999]	n/a	FR1	2	R1070T
2478.852	1.201	2636772	DISTRACT_END	n/a	n/a	n/a	-999	23	[0, 0, 0]	n/a	FR1	2	R1070T
2480.053	1.556	2637973	REC_START	n/a	n/a	n/a	-999	23	[0, 0, 0]	n/a	FR1	2	R1070T
2481.609	6.545	2639529	REC_WORD	6.545	n/a	ESCRITORIO	-999	23	[0, 0, 0]	n/a	FR1	2	R1070T
2488.154	21.913	2646074	REC_WORD	21.913	n/a	PISO	-999	23	[0, 0, 0]	n/a	FR1	2	R1070T
2510.067	3.958	2667986	REC_END	n/a	n/a	n/a	-999	23	[0, 0, 0]	n/a	FR1	2	R1070T
2514.025	0.001	2671943	COUNTDOWN_START	n/a	n/a	n/a	-999	24	[0, 0, 0]	n/a	FR1	2	R1070T
2514.026	10.427	2671944	TRIAL	n/a	n/a	n/a	-999	24	[0, 0, 0]	n/a	FR1	2	R1070T
2524.453	0.008	2682371	COUNTDOWN_END	n/a	n/a	n/a	-999	24	[0, 0, 0]	n/a	FR1	2	R1070T
2524.461	2.384	2682379	ORIENT	n/a	n/a	n/a	-999	24	[0, 0, 0]	n/a	FR1	2	R1070T
2526.845	2.6	2684763	WORD	n/a	wordpools/wordpool_SP.txt	MAIZ	1	24	[0, 0, 0]	n/a	FR1	2	R1070T
2529.445	2.584	2687363	WORD	n/a	wordpools/wordpool_SP.txt	SONRISA	2	24	[0, 0, 0]	n/a	FR1	2	R1070T
2532.029	2.5	2689947	WORD	n/a	wordpools/wordpool_SP.txt	CIELO	3	24	[0, 0, 0]	n/a	FR1	2	R1070T
2534.529	2.517	2692446	WORD	n/a	wordpools/wordpool_SP.txt	JARRON	4	24	[0, 0, 0]	n/a	FR1	2	R1070T
2537.046	2.451	2694963	WORD	n/a	wordpools/wordpool_SP.txt	TAZON	5	24	[0, 0, 0]	n/a	FR1	2	R1070T
2539.497	2.6	2697414	WORD	n/a	wordpools/wordpool_SP.txt	BANDA	6	24	[0, 0, 0]	n/a	FR1	2	R1070T
2542.097	2.535	2700014	WORD	n/a	wordpools/wordpool_SP.txt	REMO	7	24	[0, 0, 0]	n/a	FR1	2	R1070T
2544.632	2.4	2702549	WORD	n/a	wordpools/wordpool_SP.txt	SILLA	8	24	[0, 0, 0]	n/a	FR1	2	R1070T
2547.032	2.45	2704949	WORD	n/a	wordpools/wordpool_SP.txt	FILETE	9	24	[0, 0, 0]	n/a	FR1	2	R1070T
2549.482	2.617	2707399	WORD	n/a	wordpools/wordpool_SP.txt	BANCA	10	24	[0, 0, 0]	n/a	FR1	2	R1070T
2552.099	2.417	2710016	WORD	n/a	wordpools/wordpool_SP.txt	LAMPARA	11	24	[0, 0, 0]	n/a	FR1	2	R1070T
2554.516	1.617	2712432	WORD	n/a	wordpools/wordpool_SP.txt	ANZUELO	12	24	[0, 0, 0]	n/a	FR1	2	R1070T
2556.133	0.001	2714049	DISTRACT_START	n/a	n/a	n/a	-999	24	[0, 0, 0]	n/a	FR1	2	R1070T
2556.134	0.016	2714050	START	n/a	n/a	n/a	-999	24	[-999, -999, -999]	n/a	FR1	2	R1070T
2556.15	8.018	2714066	PROB	8.018	n/a	n/a	-999	24	[3, 8, 8]	19	FR1	2	R1070T
2564.168	5.834	2722084	PROB	5.834	n/a	n/a	-999	24	[7, 4, 2]	13	FR1	2	R1070T
2570.002	11.868	2727918	PROB	11.868	n/a	n/a	-999	24	[9, 5, 7]	18	FR1	2	R1070T
2581.87	0.018	2739785	STOP	n/a	n/a	n/a	-999	24	[-999, -999, -999]	n/a	FR1	2	R1070T
2581.888	1.184	2739803	DISTRACT_END	n/a	n/a	n/a	-999	24	[0, 0, 0]	n/a	FR1	2	R1070T
2583.072	2.066	2740987	REC_START	n/a	n/a	n/a	-999	24	[0, 0, 0]	n/a	FR1	2	R1070T
2585.138	11.753	2743053	REC_WORD	11.753	n/a	CIELO	-999	24	[0, 0, 0]	n/a	FR1	2	R1070T
2596.891	12.473	2754805	REC_WORD	12.473	n/a	ESTRELLA	-999	24	[0, 0, 0]	n/a	FR1	2	R1070T
2609.364	3.718	2767278	REC_WORD	3.718	n/a	ASIENTO	-999	24	[0, 0, 0]	n/a	FR1	2	R1070T
2613.082	3.462	2770996	REC_END	n/a	n/a	n/a	-999	24	[0, 0, 0]	n/a	FR1	2	R1070T
2616.544	0.0	2774457	TRIAL	n/a	n/a	n/a	-999	25	[0, 0, 0]	n/a	FR1	2	R1070T
2616.544	10.428	2774457	COUNTDOWN_START	n/a	n/a	n/a	-999	25	[0, 0, 0]	n/a	FR1	2	R1070T
2626.972	0.007	2784885	COUNTDOWN_END	n/a	n/a	n/a	-999	25	[0, 0, 0]	n/a	FR1	2	R1070T
2626.979	2.619	2784892	ORIENT	n/a	n/a	n/a	-999	25	[0, 0, 0]	n/a	FR1	2	R1070T
2629.598	2.382	2787511	WORD	n/a	wordpools/wordpool_SP.txt	VACA	1	25	[0, 0, 0]	n/a	FR1	2	R1070T
2631.98	2.417	2789893	WORD	n/a	wordpools/wordpool_SP.txt	MUNECO	2	25	[0, 0, 0]	n/a	FR1	2	R1070T
2634.397	2.501	2792309	WORD	n/a	wordpools/wordpool_SP.txt	PEZUNA	3	25	[0, 0, 0]	n/a	FR1	2	R1070T
2636.898	2.6	2794810	WORD	n/a	wordpools/wordpool_SP.txt	SOPA	4	25	[0, 0, 0]	n/a	FR1	2	R1070T
2639.498	2.401	2797410	WORD	n/a	wordpools/wordpool_SP.txt	SORBETE	5	25	[0, 0, 0]	n/a	FR1	2	R1070T
2641.899	2.384	2799811	WORD	n/a	wordpools/wordpool_SP.txt	PASTA	6	25	[0, 0, 0]	n/a	FR1	2	R1070T
2644.283	2.45	2802195	WORD	n/a	wordpools/wordpool_SP.txt	ROBLE	7	25	[0, 0, 0]	n/a	FR1	2	R1070T
2646.733	2.617	2804645	WORD	n/a	wordpools/wordpool_SP.txt	COPA	8	25	[0, 0, 0]	n/a	FR1	2	R1070T
2649.35	2.401	2807262	WORD	n/a	wordpools/wordpool_SP.txt	TOSTADA	9	25	[0, 0, 0]	n/a	FR1	2	R1070T
2651.751	2.567	2809663	WORD	n/a	wordpools/wordpool_SP.txt	VID	10	25	[0, 0, 0]	n/a	FR1	2	R1070T
2654.318	2.4	2812229	WORD	n/a	wordpools/wordpool_SP.txt	PUERTA	11	25	[0, 0, 0]	n/a	FR1	2	R1070T
2656.718	1.617	2814629	WORD	n/a	wordpools/wordpool_SP.txt	PERA	12	25	[0, 0, 0]	n/a	FR1	2	R1070T
2658.335	0.001	2816246	DISTRACT_START	n/a	n/a	n/a	-999	25	[0, 0, 0]	n/a	FR1	2	R1070T
2658.336	0.016	2816247	START	n/a	n/a	n/a	-999	25	[-999, -999, -999]	n/a	FR1	2	R1070T
2658.352	6.501	2816263	PROB	6.501	n/a	n/a	-999	25	[5, 6, 2]	13	FR1	2	R1070T
2664.853	3.701	2822764	PROB	3.701	n/a	n/a	-999	25	[1, 9, 6]	16	FR1	2	R1070T
2668.554	3.7	2826465	PROB	3.7	n/a	n/a	-999	25	[5, 9, 1]	15	FR1	2	R1070T
2672.254	4.184	2830165	PROB	4.184	n/a	n/a	-999	25	[5, 2, 1]	8	FR1	2	R1070T
2676.438	4.055	2834348	PROB	4.055	n/a	n/a	-999	25	[5, 8, 2]	15	FR1	2	R1070T
2680.493	0.013	2838403	STOP	n/a	n/a	n/a	-999	25	[-999, -999, -999]	n/a	FR1	2	R1070T
2680.506	1.217	2838416	DISTRACT_END	n/a	n/a	n/a	-999	25	[0, 0, 0]	n/a	FR1	2	R1070T
2681.723	0.765	2839633	REC_START	n/a	n/a	n/a	-999	25	[0, 0, 0]	n/a	FR1	2	R1070T
2682.488	1.316	2840398	REC_WORD	1.316	n/a	BRAZO	-999	25	[0, 0, 0]	n/a	FR1	2	R1070T
2683.804	1.463	2841714	REC_WORD	1.463	n/a	INTRUSION	-999	25	[0, 0, 0]	n/a	FR1	2	R1070T
2685.267	26.467	2843177	REC_WORD	26.467	n/a	BOCA	-999	25	[0, 0, 0]	n/a	FR1	2	R1070T
2711.734	21.165	2869643	REC_END	n/a	n/a	n/a	-999	25	[0, 0, 0]	n/a	FR1	2	R1070T
2732.899	0.0	2890807	SESS_END	n/a	n/a	n/a	-999	25	[0, 0, 0]	n/a	FR1	2	R1070T
