onset	duration	sample	trial_type	response_time	stim_file	item_name	serialpos	list	test	answer	experiment	session	subject
0.0	37.75	634	INSTRUCT_START	n/a	n/a	n/a	-999	-999	[0, 0, 0]	n/a	FR1	1	R1336T
37.75	2.968	38382	INSTRUCT_END	n/a	n/a	n/a	-999	-999	[0, 0, 0]	n/a	FR1	1	R1336T
40.718	9.698	41350	MIC TEST_START	n/a	n/a	n/a	-999	-999	[0, 0, 0]	n/a	FR1	1	R1336T
50.416	0.01	51047	MIC TEST_END	n/a	n/a	n/a	-999	-999	[0, 0, 0]	n/a	FR1	1	R1336T
50.426	0.0	51057	TRIAL_START	n/a	n/a	n/a	-999	-1	[0, 0, 0]	n/a	FR1	1	R1336T
50.426	0.0	51057	TRIAL	n/a	n/a	n/a	-999	-1	[0, 0, 0]	n/a	FR1	1	R1336T
50.426	10.195	51057	WAITING_START	n/a	n/a	n/a	-999	-1	[0, 0, 0]	n/a	FR1	1	R1336T
60.621	0.001	61252	WAITING_END	n/a	n/a	n/a	-999	-1	[0, 0, 0]	n/a	FR1	1	R1336T
60.622	10.428	61253	COUNTDOWN_START	n/a	n/a	n/a	-999	-1	[0, 0, 0]	n/a	FR1	1	R1336T
71.05	0.001	71680	COUNTDOWN_END	n/a	n/a	n/a	-999	-1	[0, 0, 0]	n/a	FR1	1	R1336T
71.051	1.155	71681	ORIENT_START	n/a	n/a	n/a	-999	-1	[0, 0, 0]	n/a	FR1	1	R1336T
72.206	0.001	72836	ORIENT_END	n/a	n/a	n/a	-999	-1	[0, 0, 0]	n/a	FR1	1	R1336T
72.207	0.875	72837	ENCODING_START	n/a	n/a	n/a	-999	-1	[0, 0, 0]	n/a	FR1	1	R1336T
73.082	1.625	73712	WORD	n/a	n/a	BABY	1	-1	[0, 0, 0]	n/a	FR1	1	R1336T
74.707	0.916	75337	WORD_OFF	n/a	n/a	BABY	1	-1	[0, 0, 0]	n/a	FR1	1	R1336T
75.623	1.634	76253	WORD	n/a	n/a	CAMEL	2	-1	[0, 0, 0]	n/a	FR1	1	R1336T
77.257	0.944	77887	WORD_OFF	n/a	n/a	CAMEL	2	-1	[0, 0, 0]	n/a	FR1	1	R1336T
78.201	1.624	78831	WORD	n/a	n/a	WATCH	3	-1	[0, 0, 0]	n/a	FR1	1	R1336T
79.825	0.786	80455	WORD_OFF	n/a	n/a	WATCH	3	-1	[0, 0, 0]	n/a	FR1	1	R1336T
80.611	1.631	81241	WORD	n/a	n/a	WAGON	4	-1	[0, 0, 0]	n/a	FR1	1	R1336T
82.242	1.009	82872	WORD_OFF	n/a	n/a	WAGON	4	-1	[0, 0, 0]	n/a	FR1	1	R1336T
83.251	1.625	83881	WORD	n/a	n/a	BEAM	5	-1	[0, 0, 0]	n/a	FR1	1	R1336T
84.876	0.937	85505	WORD_OFF	n/a	n/a	BEAM	5	-1	[0, 0, 0]	n/a	FR1	1	R1336T
85.813	1.63	86442	WORD	n/a	n/a	TONGUE	6	-1	[0, 0, 0]	n/a	FR1	1	R1336T
87.443	1.017	88072	WORD_OFF	n/a	n/a	TONGUE	6	-1	[0, 0, 0]	n/a	FR1	1	R1336T
88.46	1.633	89089	WORD	n/a	n/a	RING	7	-1	[0, 0, 0]	n/a	FR1	1	R1336T
90.093	0.901	90722	WORD_OFF	n/a	n/a	RING	7	-1	[0, 0, 0]	n/a	FR1	1	R1336T
90.994	1.633	91623	WORD	n/a	n/a	FLOOD	8	-1	[0, 0, 0]	n/a	FR1	1	R1336T
92.627	1.022	93256	WORD_OFF	n/a	n/a	FLOOD	8	-1	[0, 0, 0]	n/a	FR1	1	R1336T
93.649	1.628	94278	WORD	n/a	n/a	CHEST	9	-1	[0, 0, 0]	n/a	FR1	1	R1336T
95.277	0.983	95906	WORD_OFF	n/a	n/a	CHEST	9	-1	[0, 0, 0]	n/a	FR1	1	R1336T
96.26	1.634	96889	WORD	n/a	n/a	IMAGE	10	-1	[0, 0, 0]	n/a	FR1	1	R1336T
97.894	0.771	98523	WORD_OFF	n/a	n/a	IMAGE	10	-1	[0, 0, 0]	n/a	FR1	1	R1336T
98.665	1.63	99294	WORD	n/a	n/a	RHINO	11	-1	[0, 0, 0]	n/a	FR1	1	R1336T
100.295	0.999	100924	WORD_OFF	n/a	n/a	RHINO	11	-1	[0, 0, 0]	n/a	FR1	1	R1336T
101.294	1.635	101923	WORD	n/a	n/a	COTTON	12	-1	[0, 0, 0]	n/a	FR1	1	R1336T
102.929	0.0	103558	WORD_OFF	n/a	n/a	COTTON	12	-1	[0, 0, 0]	n/a	FR1	1	R1336T
102.929	0.0	103558	ENCODING_END	n/a	n/a	n/a	-999	-1	[0, 0, 0]	n/a	FR1	1	R1336T
102.929	0.001	103558	DISTRACT_START	n/a	n/a	n/a	-999	-1	[0, 0, 0]	n/a	FR1	1	R1336T
102.93	0.015	103559	START	n/a	n/a	n/a	-999	-1	[-999, -999, -999]	n/a	FR1	1	R1336T
102.945	7.501	103574	PROB	7.501	n/a	n/a	-999	-1	[8, 9, 4]	21	FR1	1	R1336T
110.446	5.935	111074	PROB	5.935	n/a	n/a	-999	-1	[5, 8, 8]	21	FR1	1	R1336T
116.381	3.601	117009	PROB	3.601	n/a	n/a	-999	-1	[3, 1, 9]	13	FR1	1	R1336T
119.982	2.55	120610	PROB	2.55	n/a	n/a	-999	-1	[2, 2, 1]	5	FR1	1	R1336T
122.532	3.658	123160	PROB	3.658	n/a	n/a	-999	-1	[3, 6, 2]	11	FR1	1	R1336T
126.19	0.009	126818	STOP	n/a	n/a	n/a	-999	-1	[-999, -999, -999]	n/a	FR1	1	R1336T
126.199	0.57	126827	DISTRACT_END	n/a	n/a	n/a	-999	-1	[0, 0, 0]	n/a	FR1	1	R1336T
126.769	1.714	127396	RETRIEVAL_ORIENT_START	n/a	n/a	n/a	-999	-1	[0, 0, 0]	n/a	FR1	1	R1336T
128.483	0.001	129110	RETRIEVAL_ORIENT_END	n/a	n/a	n/a	-999	-1	[0, 0, 0]	n/a	FR1	1	R1336T
128.484	1.5	129111	REC_START	n/a	n/a	n/a	-999	-1	[0, 0, 0]	n/a	FR1	1	R1336T
129.984	0.705	130611	REC_WORD	0.705	n/a	BABY	-999	-1	[0, 0, 0]	n/a	FR1	1	R1336T
130.689	1.906	131316	REC_WORD	1.906	n/a	CAMEL	-999	-1	[0, 0, 0]	n/a	FR1	1	R1336T
132.595	1.936	133222	REC_WORD	1.936	n/a	WATCH	-999	-1	[0, 0, 0]	n/a	FR1	1	R1336T
134.531	0.897	135158	REC_WORD	0.897	n/a	FLOOD	-999	-1	[0, 0, 0]	n/a	FR1	1	R1336T
135.428	21.336	136055	REC_WORD	21.336	n/a	RHINO	-999	-1	[0, 0, 0]	n/a	FR1	1	R1336T
156.764	1.733	157390	REC_WORD_VV	1.733	n/a	<>	-999	-1	[0, 0, 0]	n/a	FR1	1	R1336T
158.497	0.0	159123	REC_END	n/a	n/a	n/a	-999	-1	[0, 0, 0]	n/a	FR1	1	R1336T
158.497	7.944	159123	PRACTICE_POST_INSTRUCT_START	n/a	n/a	n/a	-999	-1	[0, 0, 0]	n/a	FR1	1	R1336T
166.441	0.0	167067	PRACTICE_POST_INSTRUCT_END	n/a	n/a	n/a	-999	-1	[0, 0, 0]	n/a	FR1	1	R1336T
166.441	0.017	167067	TRIAL_END	n/a	n/a	n/a	-999	-1	[0, 0, 0]	n/a	FR1	1	R1336T
166.458	0.0	167084	TRIAL_START	n/a	n/a	n/a	-999	1	[0, 0, 0]	n/a	FR1	1	R1336T
166.458	0.0	167084	TRIAL	n/a	n/a	n/a	-999	1	[0, 0, 0]	n/a	FR1	1	R1336T
166.458	13.235	167084	WAITING_START	n/a	n/a	n/a	-999	1	[0, 0, 0]	n/a	FR1	1	R1336T
179.693	0.0	180318	WAITING_END	n/a	n/a	n/a	-999	1	[0, 0, 0]	n/a	FR1	1	R1336T
179.693	10.43	180318	COUNTDOWN_START	n/a	n/a	n/a	-999	1	[0, 0, 0]	n/a	FR1	1	R1336T
190.123	0.0	190747	ORIENT_START	n/a	n/a	n/a	-999	1	[0, 0, 0]	n/a	FR1	1	R1336T
190.123	1.072	190747	COUNTDOWN_END	n/a	n/a	n/a	-999	1	[0, 0, 0]	n/a	FR1	1	R1336T
191.195	0.0	191819	ORIENT_END	n/a	n/a	n/a	-999	1	[0, 0, 0]	n/a	FR1	1	R1336T
191.195	1.108	191819	ENCODING_START	n/a	n/a	n/a	-999	1	[0, 0, 0]	n/a	FR1	1	R1336T
192.303	1.625	192927	WORD	n/a	wordpools/wordpool_EN.txt	SMOKE	1	1	[0, 0, 0]	n/a	FR1	1	R1336T
193.928	1.083	194552	WORD_OFF	n/a	n/a	SMOKE	1	1	[0, 0, 0]	n/a	FR1	1	R1336T
195.011	1.635	195635	WORD	n/a	wordpools/wordpool_EN.txt	CAGE	2	1	[0, 0, 0]	n/a	FR1	1	R1336T
196.646	1.05	197270	WORD_OFF	n/a	n/a	CAGE	2	1	[0, 0, 0]	n/a	FR1	1	R1336T
197.696	1.633	198320	WORD	n/a	wordpools/wordpool_EN.txt	CORN	3	1	[0, 0, 0]	n/a	FR1	1	R1336T
199.329	1.133	199953	WORD_OFF	n/a	n/a	CORN	3	1	[0, 0, 0]	n/a	FR1	1	R1336T
200.462	1.635	201086	WORD	n/a	wordpools/wordpool_EN.txt	HOOK	4	1	[0, 0, 0]	n/a	FR1	1	R1336T
202.097	1.069	202721	WORD_OFF	n/a	n/a	HOOK	4	1	[0, 0, 0]	n/a	FR1	1	R1336T
203.166	1.631	203790	WORD	n/a	wordpools/wordpool_EN.txt	DOG	5	1	[0, 0, 0]	n/a	FR1	1	R1336T
204.797	0.753	205421	WORD_OFF	n/a	n/a	DOG	5	1	[0, 0, 0]	n/a	FR1	1	R1336T
205.55	1.631	206174	WORD	n/a	wordpools/wordpool_EN.txt	STONE	6	1	[0, 0, 0]	n/a	FR1	1	R1336T
207.181	1.058	207805	WORD_OFF	n/a	n/a	STONE	6	1	[0, 0, 0]	n/a	FR1	1	R1336T
208.239	1.626	208863	WORD	n/a	wordpools/wordpool_EN.txt	BATH	7	1	[0, 0, 0]	n/a	FR1	1	R1336T
209.865	0.763	210489	WORD_OFF	n/a	n/a	BATH	7	1	[0, 0, 0]	n/a	FR1	1	R1336T
210.628	1.637	211252	WORD	n/a	wordpools/wordpool_EN.txt	SWORD	8	1	[0, 0, 0]	n/a	FR1	1	R1336T
212.265	0.977	212888	WORD_OFF	n/a	n/a	SWORD	8	1	[0, 0, 0]	n/a	FR1	1	R1336T
213.242	1.624	213865	WORD	n/a	wordpools/wordpool_EN.txt	TRASH	9	1	[0, 0, 0]	n/a	FR1	1	R1336T
214.866	0.958	215489	WORD_OFF	n/a	n/a	TRASH	9	1	[0, 0, 0]	n/a	FR1	1	R1336T
215.824	1.625	216447	WORD	n/a	wordpools/wordpool_EN.txt	SEAL	10	1	[0, 0, 0]	n/a	FR1	1	R1336T
217.449	0.936	218072	WORD_OFF	n/a	n/a	SEAL	10	1	[0, 0, 0]	n/a	FR1	1	R1336T
218.385	1.632	219008	WORD	n/a	wordpools/wordpool_EN.txt	BIRD	11	1	[0, 0, 0]	n/a	FR1	1	R1336T
220.017	1.046	220640	WORD_OFF	n/a	n/a	BIRD	11	1	[0, 0, 0]	n/a	FR1	1	R1336T
221.063	1.637	221686	WORD	n/a	wordpools/wordpool_EN.txt	MOOSE	12	1	[0, 0, 0]	n/a	FR1	1	R1336T
222.7	0.001	223323	WORD_OFF	n/a	n/a	MOOSE	12	1	[0, 0, 0]	n/a	FR1	1	R1336T
222.701	0.0	223324	ENCODING_END	n/a	n/a	n/a	-999	1	[0, 0, 0]	n/a	FR1	1	R1336T
222.701	0.0	223324	DISTRACT_START	n/a	n/a	n/a	-999	1	[0, 0, 0]	n/a	FR1	1	R1336T
222.701	0.016	223324	START	n/a	n/a	n/a	-999	1	[-999, -999, -999]	n/a	FR1	1	R1336T
222.717	4.017	223340	PROB	4.017	n/a	n/a	-999	1	[1, 9, 5]	15	FR1	1	R1336T
226.734	3.634	227357	PROB	3.634	n/a	n/a	-999	1	[5, 1, 2]	8	FR1	1	R1336T
230.368	5.935	230991	PROB	5.935	n/a	n/a	-999	1	[1, 2, 3]	6	FR1	1	R1336T
236.303	2.917	236925	PROB	2.917	n/a	n/a	-999	1	[1, 5, 6]	12	FR1	1	R1336T
239.22	3.434	239842	PROB	3.434	n/a	n/a	-999	1	[7, 1, 3]	11	FR1	1	R1336T
242.654	3.554	243276	PROB	3.554	n/a	n/a	-999	1	[2, 3, 4]	9	FR1	1	R1336T
246.208	0.013	246830	STOP	n/a	n/a	n/a	-999	1	[-999, -999, -999]	n/a	FR1	1	R1336T
246.221	0.633	246843	DISTRACT_END	n/a	n/a	n/a	-999	1	[0, 0, 0]	n/a	FR1	1	R1336T
246.854	1.701	247476	RETRIEVAL_ORIENT_START	n/a	n/a	n/a	-999	1	[0, 0, 0]	n/a	FR1	1	R1336T
248.555	0.0	249177	RETRIEVAL_ORIENT_END	n/a	n/a	n/a	-999	1	[0, 0, 0]	n/a	FR1	1	R1336T
248.555	3.36	249177	REC_START	n/a	n/a	n/a	-999	1	[0, 0, 0]	n/a	FR1	1	R1336T
251.915	0.973	252537	REC_WORD	0.973	n/a	DOG	5	1	[0, 0, 0]	n/a	FR1	1	R1336T
252.888	3.929	253509	REC_WORD	3.929	n/a	CAGE	2	1	[0, 0, 0]	n/a	FR1	1	R1336T
256.817	4.566	257438	REC_WORD	4.566	n/a	CAMEL	-999	1	[0, 0, 0]	n/a	FR1	1	R1336T
261.383	17.184	262004	REC_WORD	17.184	n/a	SMOKE	1	1	[0, 0, 0]	n/a	FR1	1	R1336T
278.567	0.0	279187	REC_END	n/a	n/a	n/a	-999	1	[0, 0, 0]	n/a	FR1	1	R1336T
278.567	0.017	279187	TRIAL_END	n/a	n/a	n/a	-999	1	[0, 0, 0]	n/a	FR1	1	R1336T
278.584	0.001	279204	TRIAL_START	n/a	n/a	n/a	-999	2	[0, 0, 0]	n/a	FR1	1	R1336T
278.585	0.0	279205	TRIAL	n/a	n/a	n/a	-999	2	[0, 0, 0]	n/a	FR1	1	R1336T
278.585	2.544	279205	WAITING_START	n/a	n/a	n/a	-999	2	[0, 0, 0]	n/a	FR1	1	R1336T
281.129	0.0	281749	WAITING_END	n/a	n/a	n/a	-999	2	[0, 0, 0]	n/a	FR1	1	R1336T
281.129	10.429	281749	COUNTDOWN_START	n/a	n/a	n/a	-999	2	[0, 0, 0]	n/a	FR1	1	R1336T
291.558	0.001	292178	COUNTDOWN_END	n/a	n/a	n/a	-999	2	[0, 0, 0]	n/a	FR1	1	R1336T
291.559	1.054	292179	ORIENT_START	n/a	n/a	n/a	-999	2	[0, 0, 0]	n/a	FR1	1	R1336T
292.613	0.0	293233	ORIENT_END	n/a	n/a	n/a	-999	2	[0, 0, 0]	n/a	FR1	1	R1336T
292.613	0.977	293233	ENCODING_START	n/a	n/a	n/a	-999	2	[0, 0, 0]	n/a	FR1	1	R1336T
293.59	1.624	294210	WORD	n/a	wordpools/wordpool_EN.txt	BOMB	1	2	[0, 0, 0]	n/a	FR1	1	R1336T
295.214	1.134	295833	WORD_OFF	n/a	n/a	BOMB	1	2	[0, 0, 0]	n/a	FR1	1	R1336T
296.348	1.633	296967	WORD	n/a	wordpools/wordpool_EN.txt	ROOM	2	2	[0, 0, 0]	n/a	FR1	1	R1336T
297.981	1.108	298600	WORD_OFF	n/a	n/a	ROOM	2	2	[0, 0, 0]	n/a	FR1	1	R1336T
299.089	1.626	299708	WORD	n/a	wordpools/wordpool_EN.txt	BOOT	3	2	[0, 0, 0]	n/a	FR1	1	R1336T
300.715	1.096	301334	WORD_OFF	n/a	n/a	BOOT	3	2	[0, 0, 0]	n/a	FR1	1	R1336T
301.811	1.621	302430	WORD	n/a	wordpools/wordpool_EN.txt	RAIN	4	2	[0, 0, 0]	n/a	FR1	1	R1336T
303.432	0.89	304051	WORD_OFF	n/a	n/a	RAIN	4	2	[0, 0, 0]	n/a	FR1	1	R1336T
304.322	1.627	304941	WORD	n/a	wordpools/wordpool_EN.txt	BOX	5	2	[0, 0, 0]	n/a	FR1	1	R1336T
305.949	0.848	306568	WORD_OFF	n/a	n/a	BOX	5	2	[0, 0, 0]	n/a	FR1	1	R1336T
306.797	1.636	307416	WORD	n/a	wordpools/wordpool_EN.txt	SNAKE	6	2	[0, 0, 0]	n/a	FR1	1	R1336T
308.433	1.063	309052	WORD_OFF	n/a	n/a	SNAKE	6	2	[0, 0, 0]	n/a	FR1	1	R1336T
309.496	1.638	310115	WORD	n/a	wordpools/wordpool_EN.txt	ROOF	7	2	[0, 0, 0]	n/a	FR1	1	R1336T
311.134	1.131	311753	WORD_OFF	n/a	n/a	ROOF	7	2	[0, 0, 0]	n/a	FR1	1	R1336T
312.265	1.635	312884	WORD	n/a	wordpools/wordpool_EN.txt	POLE	8	2	[0, 0, 0]	n/a	FR1	1	R1336T
313.9	1.004	314519	WORD_OFF	n/a	n/a	POLE	8	2	[0, 0, 0]	n/a	FR1	1	R1336T
314.904	1.63	315523	WORD	n/a	wordpools/wordpool_EN.txt	SLEEVE	9	2	[0, 0, 0]	n/a	FR1	1	R1336T
316.534	1.09	317152	WORD_OFF	n/a	n/a	SLEEVE	9	2	[0, 0, 0]	n/a	FR1	1	R1336T
317.624	1.627	318242	WORD	n/a	wordpools/wordpool_EN.txt	STOOL	10	2	[0, 0, 0]	n/a	FR1	1	R1336T
319.251	1.039	319869	WORD_OFF	n/a	n/a	STOOL	10	2	[0, 0, 0]	n/a	FR1	1	R1336T
320.29	1.628	320908	WORD	n/a	wordpools/wordpool_EN.txt	CORD	11	2	[0, 0, 0]	n/a	FR1	1	R1336T
321.918	0.902	322536	WORD_OFF	n/a	n/a	CORD	11	2	[0, 0, 0]	n/a	FR1	1	R1336T
322.82	1.632	323438	WORD	n/a	wordpools/wordpool_EN.txt	SPOON	12	2	[0, 0, 0]	n/a	FR1	1	R1336T
324.452	0.001	325070	WORD_OFF	n/a	n/a	SPOON	12	2	[0, 0, 0]	n/a	FR1	1	R1336T
324.453	0.0	325071	DISTRACT_START	n/a	n/a	n/a	-999	2	[0, 0, 0]	n/a	FR1	1	R1336T
324.453	0.0	325071	ENCODING_END	n/a	n/a	n/a	-999	2	[0, 0, 0]	n/a	FR1	1	R1336T
324.453	0.016	325071	START	n/a	n/a	n/a	-999	2	[-999, -999, -999]	n/a	FR1	1	R1336T
324.469	5.834	325087	PROB	5.834	n/a	n/a	-999	2	[1, 6, 9]	16	FR1	1	R1336T
330.303	4.784	330921	PROB	4.784	n/a	n/a	-999	2	[3, 4, 8]	15	FR1	1	R1336T
335.087	4.168	335705	PROB	4.168	n/a	n/a	-999	2	[4, 9, 4]	17	FR1	1	R1336T
339.255	2.7	339872	PROB	2.7	n/a	n/a	-999	2	[9, 5, 3]	17	FR1	1	R1336T
341.955	2.565	342572	PROB	2.565	n/a	n/a	-999	2	[5, 6, 2]	15	FR1	1	R1336T
344.52	0.019	345137	STOP	n/a	n/a	n/a	-999	2	[-999, -999, -999]	n/a	FR1	1	R1336T
344.539	0.525	345156	DISTRACT_END	n/a	n/a	n/a	-999	2	[0, 0, 0]	n/a	FR1	1	R1336T
345.064	1.725	345681	RETRIEVAL_ORIENT_START	n/a	n/a	n/a	-999	2	[0, 0, 0]	n/a	FR1	1	R1336T
346.789	0.001	347406	RETRIEVAL_ORIENT_END	n/a	n/a	n/a	-999	2	[0, 0, 0]	n/a	FR1	1	R1336T
346.79	0.927	347407	REC_START	n/a	n/a	n/a	-999	2	[0, 0, 0]	n/a	FR1	1	R1336T
347.717	1.151	348334	REC_WORD	1.151	n/a	BOMB	1	2	[0, 0, 0]	n/a	FR1	1	R1336T
348.868	3.521	349485	REC_WORD	3.521	n/a	BOX	5	2	[0, 0, 0]	n/a	FR1	1	R1336T
352.389	24.413	353006	REC_WORD	24.413	n/a	ROOF	7	2	[0, 0, 0]	n/a	FR1	1	R1336T
376.802	0.0	377418	REC_END	n/a	n/a	n/a	-999	2	[0, 0, 0]	n/a	FR1	1	R1336T
376.802	0.017	377418	TRIAL_END	n/a	n/a	n/a	-999	2	[0, 0, 0]	n/a	FR1	1	R1336T
376.819	0.0	377435	TRIAL_START	n/a	n/a	n/a	-999	3	[0, 0, 0]	n/a	FR1	1	R1336T
376.819	0.0	377435	TRIAL	n/a	n/a	n/a	-999	3	[0, 0, 0]	n/a	FR1	1	R1336T
376.819	2.36	377435	WAITING_START	n/a	n/a	n/a	-999	3	[0, 0, 0]	n/a	FR1	1	R1336T
379.179	0.0	379794	WAITING_END	n/a	n/a	n/a	-999	3	[0, 0, 0]	n/a	FR1	1	R1336T
379.179	10.429	379794	COUNTDOWN_START	n/a	n/a	n/a	-999	3	[0, 0, 0]	n/a	FR1	1	R1336T
389.608	0.001	390223	COUNTDOWN_END	n/a	n/a	n/a	-999	3	[0, 0, 0]	n/a	FR1	1	R1336T
389.609	1.105	390224	ORIENT_START	n/a	n/a	n/a	-999	3	[0, 0, 0]	n/a	FR1	1	R1336T
390.714	0.001	391329	ORIENT_END	n/a	n/a	n/a	-999	3	[0, 0, 0]	n/a	FR1	1	R1336T
390.715	1.026	391330	ENCODING_START	n/a	n/a	n/a	-999	3	[0, 0, 0]	n/a	FR1	1	R1336T
391.741	1.624	392356	WORD	n/a	wordpools/wordpool_EN.txt	WOOD	1	3	[0, 0, 0]	n/a	FR1	1	R1336T
393.365	1.104	393980	WORD_OFF	n/a	n/a	WOOD	1	3	[0, 0, 0]	n/a	FR1	1	R1336T
394.469	1.629	395084	WORD	n/a	wordpools/wordpool_EN.txt	BRICK	2	3	[0, 0, 0]	n/a	FR1	1	R1336T
396.098	1.029	396713	WORD_OFF	n/a	n/a	BRICK	2	3	[0, 0, 0]	n/a	FR1	1	R1336T
397.127	1.622	397742	WORD	n/a	wordpools/wordpool_EN.txt	CANE	3	3	[0, 0, 0]	n/a	FR1	1	R1336T
398.749	0.895	399364	WORD_OFF	n/a	n/a	CANE	3	3	[0, 0, 0]	n/a	FR1	1	R1336T
399.644	1.622	400259	WORD	n/a	wordpools/wordpool_EN.txt	CAVE	4	3	[0, 0, 0]	n/a	FR1	1	R1336T
401.266	1.15	401880	WORD_OFF	n/a	n/a	CAVE	4	3	[0, 0, 0]	n/a	FR1	1	R1336T
402.416	1.634	403030	WORD	n/a	wordpools/wordpool_EN.txt	SEA	5	3	[0, 0, 0]	n/a	FR1	1	R1336T
404.05	0.826	404664	WORD_OFF	n/a	n/a	SEA	5	3	[0, 0, 0]	n/a	FR1	1	R1336T
404.876	1.624	405490	WORD	n/a	wordpools/wordpool_EN.txt	RAKE	6	3	[0, 0, 0]	n/a	FR1	1	R1336T
406.5	1.141	407114	WORD_OFF	n/a	n/a	RAKE	6	3	[0, 0, 0]	n/a	FR1	1	R1336T
407.641	1.626	408255	WORD	n/a	wordpools/wordpool_EN.txt	DRESS	7	3	[0, 0, 0]	n/a	FR1	1	R1336T
409.267	0.852	409881	WORD_OFF	n/a	n/a	DRESS	7	3	[0, 0, 0]	n/a	FR1	1	R1336T
410.119	1.632	410733	WORD	n/a	wordpools/wordpool_EN.txt	SOUP	8	3	[0, 0, 0]	n/a	FR1	1	R1336T
411.751	1.023	412365	WORD_OFF	n/a	n/a	SOUP	8	3	[0, 0, 0]	n/a	FR1	1	R1336T
412.774	1.628	413388	WORD	n/a	wordpools/wordpool_EN.txt	ANT	9	3	[0, 0, 0]	n/a	FR1	1	R1336T
414.402	1.074	415016	WORD_OFF	n/a	n/a	ANT	9	3	[0, 0, 0]	n/a	FR1	1	R1336T
415.476	1.626	416090	WORD	n/a	wordpools/wordpool_EN.txt	ZOO	10	3	[0, 0, 0]	n/a	FR1	1	R1336T
417.102	1.07	417716	WORD_OFF	n/a	n/a	ZOO	10	3	[0, 0, 0]	n/a	FR1	1	R1336T
418.172	1.631	418786	WORD	n/a	wordpools/wordpool_EN.txt	PIN	11	3	[0, 0, 0]	n/a	FR1	1	R1336T
419.803	0.778	420417	WORD_OFF	n/a	n/a	PIN	11	3	[0, 0, 0]	n/a	FR1	1	R1336T
420.581	1.622	421195	WORD	n/a	wordpools/wordpool_EN.txt	PEACH	12	3	[0, 0, 0]	n/a	FR1	1	R1336T
422.203	0.001	422816	WORD_OFF	n/a	n/a	PEACH	12	3	[0, 0, 0]	n/a	FR1	1	R1336T
422.204	0.0	422817	ENCODING_END	n/a	n/a	n/a	-999	3	[0, 0, 0]	n/a	FR1	1	R1336T
422.204	0.0	422817	DISTRACT_START	n/a	n/a	n/a	-999	3	[0, 0, 0]	n/a	FR1	1	R1336T
422.204	0.016	422817	START	n/a	n/a	n/a	-999	3	[-999, -999, -999]	n/a	FR1	1	R1336T
422.22	2.683	422833	PROB	2.683	n/a	n/a	-999	3	[1, 7, 3]	11	FR1	1	R1336T
424.903	6.918	425516	PROB	6.918	n/a	n/a	-999	3	[8, 3, 3]	14	FR1	1	R1336T
431.821	4.268	432434	PROB	4.268	n/a	n/a	-999	3	[2, 1, 9]	12	FR1	1	R1336T
436.089	3.284	436702	PROB	3.284	n/a	n/a	-999	3	[1, 2, 9]	12	FR1	1	R1336T
439.373	3.353	439986	PROB	3.353	n/a	n/a	-999	3	[4, 9, 4]	17	FR1	1	R1336T
442.726	0.014	443338	STOP	n/a	n/a	n/a	-999	3	[-999, -999, -999]	n/a	FR1	1	R1336T
442.74	0.564	443352	DISTRACT_END	n/a	n/a	n/a	-999	3	[0, 0, 0]	n/a	FR1	1	R1336T
443.304	1.67	443916	RETRIEVAL_ORIENT_START	n/a	n/a	n/a	-999	3	[0, 0, 0]	n/a	FR1	1	R1336T
444.974	0.0	445586	RETRIEVAL_ORIENT_END	n/a	n/a	n/a	-999	3	[0, 0, 0]	n/a	FR1	1	R1336T
444.974	3.718	445586	REC_START	n/a	n/a	n/a	-999	3	[0, 0, 0]	n/a	FR1	1	R1336T
448.692	1.048	449304	REC_WORD	1.048	n/a	WOOD	1	3	[0, 0, 0]	n/a	FR1	1	R1336T
449.74	3.419	450352	REC_WORD	3.419	n/a	CANE	3	3	[0, 0, 0]	n/a	FR1	1	R1336T
453.159	2.36	453771	REC_WORD	2.36	n/a	DRESS	7	3	[0, 0, 0]	n/a	FR1	1	R1336T
455.519	1.597	456131	REC_WORD	1.597	n/a	CAVE	4	3	[0, 0, 0]	n/a	FR1	1	R1336T
457.116	3.889	457728	REC_WORD_VV	3.889	n/a	<>	-999	3	[0, 0, 0]	n/a	FR1	1	R1336T
461.005	2.406	461617	REC_WORD_VV	2.406	n/a	<>	-999	3	[0, 0, 0]	n/a	FR1	1	R1336T
463.411	3.047	464022	REC_WORD	3.047	n/a	DRESS	7	3	[0, 0, 0]	n/a	FR1	1	R1336T
466.458	8.528	467069	REC_WORD_VV	8.528	n/a	<>	-999	3	[0, 0, 0]	n/a	FR1	1	R1336T
474.986	0.0	475597	REC_END	n/a	n/a	n/a	-999	3	[0, 0, 0]	n/a	FR1	1	R1336T
474.986	0.016	475597	TRIAL_END	n/a	n/a	n/a	-999	3	[0, 0, 0]	n/a	FR1	1	R1336T
475.002	0.001	475613	TRIAL_START	n/a	n/a	n/a	-999	4	[0, 0, 0]	n/a	FR1	1	R1336T
475.003	0.0	475614	WAITING_START	n/a	n/a	n/a	-999	4	[0, 0, 0]	n/a	FR1	1	R1336T
475.003	2.294	475614	TRIAL	n/a	n/a	n/a	-999	4	[0, 0, 0]	n/a	FR1	1	R1336T
477.297	0.0	477908	WAITING_END	n/a	n/a	n/a	-999	4	[0, 0, 0]	n/a	FR1	1	R1336T
477.297	10.428	477908	COUNTDOWN_START	n/a	n/a	n/a	-999	4	[0, 0, 0]	n/a	FR1	1	R1336T
487.725	0.0	488335	COUNTDOWN_END	n/a	n/a	n/a	-999	4	[0, 0, 0]	n/a	FR1	1	R1336T
487.725	1.14	488335	ORIENT_START	n/a	n/a	n/a	-999	4	[0, 0, 0]	n/a	FR1	1	R1336T
488.865	0.001	489475	ORIENT_END	n/a	n/a	n/a	-999	4	[0, 0, 0]	n/a	FR1	1	R1336T
488.866	0.817	489476	ENCODING_START	n/a	n/a	n/a	-999	4	[0, 0, 0]	n/a	FR1	1	R1336T
489.683	1.633	490293	WORD	n/a	wordpools/wordpool_EN.txt	SUIT	1	4	[0, 0, 0]	n/a	FR1	1	R1336T
491.316	0.846	491926	WORD_OFF	n/a	n/a	SUIT	1	4	[0, 0, 0]	n/a	FR1	1	R1336T
492.162	1.637	492772	WORD	n/a	wordpools/wordpool_EN.txt	WAND	2	4	[0, 0, 0]	n/a	FR1	1	R1336T
493.799	0.879	494409	WORD_OFF	n/a	n/a	WAND	2	4	[0, 0, 0]	n/a	FR1	1	R1336T
494.678	1.622	495288	WORD	n/a	wordpools/wordpool_EN.txt	OAR	3	4	[0, 0, 0]	n/a	FR1	1	R1336T
496.3	0.954	496910	WORD_OFF	n/a	n/a	OAR	3	4	[0, 0, 0]	n/a	FR1	1	R1336T
497.254	1.63	497864	WORD	n/a	wordpools/wordpool_EN.txt	TOAD	4	4	[0, 0, 0]	n/a	FR1	1	R1336T
498.884	1.113	499494	WORD_OFF	n/a	n/a	TOAD	4	4	[0, 0, 0]	n/a	FR1	1	R1336T
499.997	1.637	500607	WORD	n/a	wordpools/wordpool_EN.txt	GOAT	5	4	[0, 0, 0]	n/a	FR1	1	R1336T
501.634	1.062	502244	WORD_OFF	n/a	n/a	GOAT	5	4	[0, 0, 0]	n/a	FR1	1	R1336T
502.696	1.639	503306	WORD	n/a	wordpools/wordpool_EN.txt	SCHOOL	6	4	[0, 0, 0]	n/a	FR1	1	R1336T
504.335	0.798	504945	WORD_OFF	n/a	n/a	SCHOOL	6	4	[0, 0, 0]	n/a	FR1	1	R1336T
505.133	1.636	505742	WORD	n/a	wordpools/wordpool_EN.txt	PLATE	7	4	[0, 0, 0]	n/a	FR1	1	R1336T
506.769	0.905	507378	WORD_OFF	n/a	n/a	PLATE	7	4	[0, 0, 0]	n/a	FR1	1	R1336T
507.674	1.628	508283	WORD	n/a	wordpools/wordpool_EN.txt	CLOUD	8	4	[0, 0, 0]	n/a	FR1	1	R1336T
509.302	1.118	509911	WORD_OFF	n/a	n/a	CLOUD	8	4	[0, 0, 0]	n/a	FR1	1	R1336T
510.42	1.633	511029	WORD	n/a	wordpools/wordpool_EN.txt	CALF	9	4	[0, 0, 0]	n/a	FR1	1	R1336T
512.053	1.046	512662	WORD_OFF	n/a	n/a	CALF	9	4	[0, 0, 0]	n/a	FR1	1	R1336T
513.099	1.638	513708	WORD	n/a	wordpools/wordpool_EN.txt	STORM	10	4	[0, 0, 0]	n/a	FR1	1	R1336T
514.737	1.042	515346	WORD_OFF	n/a	n/a	STORM	10	4	[0, 0, 0]	n/a	FR1	1	R1336T
515.779	1.625	516388	WORD	n/a	wordpools/wordpool_EN.txt	GRAPE	11	4	[0, 0, 0]	n/a	FR1	1	R1336T
517.404	1.075	518013	WORD_OFF	n/a	n/a	GRAPE	11	4	[0, 0, 0]	n/a	FR1	1	R1336T
518.479	1.625	519088	WORD	n/a	wordpools/wordpool_EN.txt	STEAK	12	4	[0, 0, 0]	n/a	FR1	1	R1336T
520.104	0.001	520713	WORD_OFF	n/a	n/a	STEAK	12	4	[0, 0, 0]	n/a	FR1	1	R1336T
520.105	0.0	520714	ENCODING_END	n/a	n/a	n/a	-999	4	[0, 0, 0]	n/a	FR1	1	R1336T
520.105	0.0	520714	DISTRACT_START	n/a	n/a	n/a	-999	4	[0, 0, 0]	n/a	FR1	1	R1336T
520.105	0.017	520714	START	n/a	n/a	n/a	-999	4	[-999, -999, -999]	n/a	FR1	1	R1336T
520.122	4.499	520731	PROB	4.499	n/a	n/a	-999	4	[1, 6, 4]	11	FR1	1	R1336T
524.621	4.135	525230	PROB	4.135	n/a	n/a	-999	4	[4, 8, 5]	17	FR1	1	R1336T
528.756	5.234	529364	PROB	5.234	n/a	n/a	-999	4	[2, 3, 8]	13	FR1	1	R1336T
533.99	2.85	534598	PROB	2.85	n/a	n/a	-999	4	[3, 1, 7]	11	FR1	1	R1336T
536.84	3.931	537448	PROB	3.931	n/a	n/a	-999	4	[7, 2, 3]	12	FR1	1	R1336T
540.771	0.02	541379	STOP	n/a	n/a	n/a	-999	4	[-999, -999, -999]	n/a	FR1	1	R1336T
540.791	0.542	541399	DISTRACT_END	n/a	n/a	n/a	-999	4	[0, 0, 0]	n/a	FR1	1	R1336T
541.333	1.709	541941	RETRIEVAL_ORIENT_START	n/a	n/a	n/a	-999	4	[0, 0, 0]	n/a	FR1	1	R1336T
543.042	0.0	543650	RETRIEVAL_ORIENT_END	n/a	n/a	n/a	-999	4	[0, 0, 0]	n/a	FR1	1	R1336T
543.042	12.526	543650	REC_START	n/a	n/a	n/a	-999	4	[0, 0, 0]	n/a	FR1	1	R1336T
555.568	3.179	556175	REC_WORD	3.179	n/a	ANT	-999	4	[0, 0, 0]	n/a	FR1	1	R1336T
558.747	14.308	559354	REC_WORD_VV	14.308	n/a	<>	-999	4	[0, 0, 0]	n/a	FR1	1	R1336T
573.055	0.0	573661	REC_END	n/a	n/a	n/a	-999	4	[0, 0, 0]	n/a	FR1	1	R1336T
573.055	0.015	573661	TRIAL_END	n/a	n/a	n/a	-999	4	[0, 0, 0]	n/a	FR1	1	R1336T
573.07	0.0	573676	TRIAL_START	n/a	n/a	n/a	-999	5	[0, 0, 0]	n/a	FR1	1	R1336T
573.07	0.0	573676	TRIAL	n/a	n/a	n/a	-999	5	[0, 0, 0]	n/a	FR1	1	R1336T
573.07	2.778	573676	WAITING_START	n/a	n/a	n/a	-999	5	[0, 0, 0]	n/a	FR1	1	R1336T
575.848	0.0	576454	COUNTDOWN_START	n/a	n/a	n/a	-999	5	[0, 0, 0]	n/a	FR1	1	R1336T
575.848	10.428	576454	WAITING_END	n/a	n/a	n/a	-999	5	[0, 0, 0]	n/a	FR1	1	R1336T
586.276	0.0	586882	COUNTDOWN_END	n/a	n/a	n/a	-999	5	[0, 0, 0]	n/a	FR1	1	R1336T
586.276	1.057	586882	ORIENT_START	n/a	n/a	n/a	-999	5	[0, 0, 0]	n/a	FR1	1	R1336T
587.333	0.001	587939	ORIENT_END	n/a	n/a	n/a	-999	5	[0, 0, 0]	n/a	FR1	1	R1336T
587.334	0.994	587940	ENCODING_START	n/a	n/a	n/a	-999	5	[0, 0, 0]	n/a	FR1	1	R1336T
588.328	1.622	588934	WORD	n/a	wordpools/wordpool_EN.txt	WAVE	1	5	[0, 0, 0]	n/a	FR1	1	R1336T
589.95	0.968	590555	WORD_OFF	n/a	n/a	WAVE	1	5	[0, 0, 0]	n/a	FR1	1	R1336T
590.918	1.633	591523	WORD	n/a	wordpools/wordpool_EN.txt	CLOCK	2	5	[0, 0, 0]	n/a	FR1	1	R1336T
592.551	0.901	593156	WORD_OFF	n/a	n/a	CLOCK	2	5	[0, 0, 0]	n/a	FR1	1	R1336T
593.452	1.632	594057	WORD	n/a	wordpools/wordpool_EN.txt	SHARK	3	5	[0, 0, 0]	n/a	FR1	1	R1336T
595.084	0.86	595689	WORD_OFF	n/a	n/a	SHARK	3	5	[0, 0, 0]	n/a	FR1	1	R1336T
595.944	1.624	596549	WORD	n/a	wordpools/wordpool_EN.txt	JAR	4	5	[0, 0, 0]	n/a	FR1	1	R1336T
597.568	0.92	598173	WORD_OFF	n/a	n/a	JAR	4	5	[0, 0, 0]	n/a	FR1	1	R1336T
598.488	1.632	599093	WORD	n/a	wordpools/wordpool_EN.txt	HOOF	5	5	[0, 0, 0]	n/a	FR1	1	R1336T
600.12	0.95	600725	WORD_OFF	n/a	n/a	HOOF	5	5	[0, 0, 0]	n/a	FR1	1	R1336T
601.07	1.633	601675	WORD	n/a	wordpools/wordpool_EN.txt	COUCH	6	5	[0, 0, 0]	n/a	FR1	1	R1336T
602.703	0.852	603308	WORD_OFF	n/a	n/a	COUCH	6	5	[0, 0, 0]	n/a	FR1	1	R1336T
603.555	1.631	604160	WORD	n/a	wordpools/wordpool_EN.txt	NEST	7	5	[0, 0, 0]	n/a	FR1	1	R1336T
605.186	0.959	605791	WORD_OFF	n/a	n/a	NEST	7	5	[0, 0, 0]	n/a	FR1	1	R1336T
606.145	1.625	606750	WORD	n/a	wordpools/wordpool_EN.txt	DESK	8	5	[0, 0, 0]	n/a	FR1	1	R1336T
607.77	0.994	608375	WORD_OFF	n/a	n/a	DESK	8	5	[0, 0, 0]	n/a	FR1	1	R1336T
608.764	1.623	609369	WORD	n/a	wordpools/wordpool_EN.txt	TRUCK	9	5	[0, 0, 0]	n/a	FR1	1	R1336T
610.387	0.819	610991	WORD_OFF	n/a	n/a	TRUCK	9	5	[0, 0, 0]	n/a	FR1	1	R1336T
611.206	1.632	611810	WORD	n/a	wordpools/wordpool_EN.txt	PARK	10	5	[0, 0, 0]	n/a	FR1	1	R1336T
612.838	0.757	613442	WORD_OFF	n/a	n/a	PARK	10	5	[0, 0, 0]	n/a	FR1	1	R1336T
613.595	1.627	614199	WORD	n/a	wordpools/wordpool_EN.txt	FOX	11	5	[0, 0, 0]	n/a	FR1	1	R1336T
615.222	0.835	615826	WORD_OFF	n/a	n/a	FOX	11	5	[0, 0, 0]	n/a	FR1	1	R1336T
616.057	1.632	616661	WORD	n/a	wordpools/wordpool_EN.txt	TRAIN	12	5	[0, 0, 0]	n/a	FR1	1	R1336T
617.689	0.0	618293	ENCODING_END	n/a	n/a	n/a	-999	5	[0, 0, 0]	n/a	FR1	1	R1336T
617.689	0.001	618293	WORD_OFF	n/a	n/a	TRAIN	12	5	[0, 0, 0]	n/a	FR1	1	R1336T
617.69	0.0	618294	DISTRACT_START	n/a	n/a	n/a	-999	5	[0, 0, 0]	n/a	FR1	1	R1336T
617.69	0.015	618294	START	n/a	n/a	n/a	-999	5	[-999, -999, -999]	n/a	FR1	1	R1336T
617.705	7.368	618309	PROB	7.368	n/a	n/a	-999	5	[2, 1, 6]	9	FR1	1	R1336T
625.073	6.785	625677	PROB	6.785	n/a	n/a	-999	5	[4, 3, 8]	17	FR1	1	R1336T
631.858	7.669	632461	PROB	7.669	n/a	n/a	-999	5	[8, 3, 6]	19	FR1	1	R1336T
639.527	0.016	640130	STOP	n/a	n/a	n/a	-999	5	[-999, -999, -999]	n/a	FR1	1	R1336T
639.543	0.516	640146	DISTRACT_END	n/a	n/a	n/a	-999	5	[0, 0, 0]	n/a	FR1	1	R1336T
640.059	1.634	640662	RETRIEVAL_ORIENT_START	n/a	n/a	n/a	-999	5	[0, 0, 0]	n/a	FR1	1	R1336T
641.693	0.0	642296	RETRIEVAL_ORIENT_END	n/a	n/a	n/a	-999	5	[0, 0, 0]	n/a	FR1	1	R1336T
641.693	2.633	642296	REC_START	n/a	n/a	n/a	-999	5	[0, 0, 0]	n/a	FR1	1	R1336T
644.326	1.005	644929	REC_WORD	1.005	n/a	JAR	4	5	[0, 0, 0]	n/a	FR1	1	R1336T
645.331	1.354	645934	REC_WORD	1.354	n/a	SHARK	3	5	[0, 0, 0]	n/a	FR1	1	R1336T
646.685	3.424	647288	REC_WORD	3.424	n/a	WAVE	1	5	[0, 0, 0]	n/a	FR1	1	R1336T
650.109	19.53	650712	REC_WORD	19.53	n/a	HOOF	5	5	[0, 0, 0]	n/a	FR1	1	R1336T
669.639	2.067	670241	REC_WORD	2.067	n/a	SHARK	3	5	[0, 0, 0]	n/a	FR1	1	R1336T
671.706	0.0	672308	REC_END	n/a	n/a	n/a	-999	5	[0, 0, 0]	n/a	FR1	1	R1336T
671.706	0.016	672308	TRIAL_END	n/a	n/a	n/a	-999	5	[0, 0, 0]	n/a	FR1	1	R1336T
671.722	0.001	672324	TRIAL_START	n/a	n/a	n/a	-999	6	[0, 0, 0]	n/a	FR1	1	R1336T
671.723	0.0	672325	WAITING_START	n/a	n/a	n/a	-999	6	[0, 0, 0]	n/a	FR1	1	R1336T
671.723	2.109	672325	TRIAL	n/a	n/a	n/a	-999	6	[0, 0, 0]	n/a	FR1	1	R1336T
673.832	0.0	674433	WAITING_END	n/a	n/a	n/a	-999	6	[0, 0, 0]	n/a	FR1	1	R1336T
673.832	10.43	674433	COUNTDOWN_START	n/a	n/a	n/a	-999	6	[0, 0, 0]	n/a	FR1	1	R1336T
684.262	0.0	684863	COUNTDOWN_END	n/a	n/a	n/a	-999	6	[0, 0, 0]	n/a	FR1	1	R1336T
684.262	1.106	684863	ORIENT_START	n/a	n/a	n/a	-999	6	[0, 0, 0]	n/a	FR1	1	R1336T
685.368	0.0	685969	ORIENT_END	n/a	n/a	n/a	-999	6	[0, 0, 0]	n/a	FR1	1	R1336T
685.368	1.117	685969	ENCODING_START	n/a	n/a	n/a	-999	6	[0, 0, 0]	n/a	FR1	1	R1336T
686.485	1.634	687086	WORD	n/a	wordpools/wordpool_EN.txt	BOOK	1	6	[0, 0, 0]	n/a	FR1	1	R1336T
688.119	1.016	688720	WORD_OFF	n/a	n/a	BOOK	1	6	[0, 0, 0]	n/a	FR1	1	R1336T
689.135	1.634	689736	WORD	n/a	wordpools/wordpool_EN.txt	APE	2	6	[0, 0, 0]	n/a	FR1	1	R1336T
690.769	0.927	691370	WORD_OFF	n/a	n/a	APE	2	6	[0, 0, 0]	n/a	FR1	1	R1336T
691.696	1.623	692297	WORD	n/a	wordpools/wordpool_EN.txt	SPEAR	3	6	[0, 0, 0]	n/a	FR1	1	R1336T
693.319	1.074	693920	WORD_OFF	n/a	n/a	SPEAR	3	6	[0, 0, 0]	n/a	FR1	1	R1336T
694.393	1.626	694993	WORD	n/a	wordpools/wordpool_EN.txt	PIT	4	6	[0, 0, 0]	n/a	FR1	1	R1336T
696.019	0.891	696619	WORD_OFF	n/a	n/a	PIT	4	6	[0, 0, 0]	n/a	FR1	1	R1336T
696.91	1.627	697510	WORD	n/a	wordpools/wordpool_EN.txt	FLOOR	5	6	[0, 0, 0]	n/a	FR1	1	R1336T
698.537	1.133	699137	WORD_OFF	n/a	n/a	FLOOR	5	6	[0, 0, 0]	n/a	FR1	1	R1336T
699.67	1.634	700270	WORD	n/a	wordpools/wordpool_EN.txt	PEARL	6	6	[0, 0, 0]	n/a	FR1	1	R1336T
701.304	0.985	701904	WORD_OFF	n/a	n/a	PEARL	6	6	[0, 0, 0]	n/a	FR1	1	R1336T
702.289	1.632	702889	WORD	n/a	wordpools/wordpool_EN.txt	STORE	7	6	[0, 0, 0]	n/a	FR1	1	R1336T
703.921	0.796	704521	WORD_OFF	n/a	n/a	STORE	7	6	[0, 0, 0]	n/a	FR1	1	R1336T
704.717	1.638	705317	WORD	n/a	wordpools/wordpool_EN.txt	POND	8	6	[0, 0, 0]	n/a	FR1	1	R1336T
706.355	0.784	706955	WORD_OFF	n/a	n/a	POND	8	6	[0, 0, 0]	n/a	FR1	1	R1336T
707.139	1.633	707739	WORD	n/a	wordpools/wordpool_EN.txt	NET	9	6	[0, 0, 0]	n/a	FR1	1	R1336T
708.772	1.047	709372	WORD_OFF	n/a	n/a	NET	9	6	[0, 0, 0]	n/a	FR1	1	R1336T
709.819	1.637	710419	WORD	n/a	wordpools/wordpool_EN.txt	SQUARE	10	6	[0, 0, 0]	n/a	FR1	1	R1336T
711.456	0.75	712056	WORD_OFF	n/a	n/a	SQUARE	10	6	[0, 0, 0]	n/a	FR1	1	R1336T
712.206	1.633	712806	WORD	n/a	wordpools/wordpool_EN.txt	WHEEL	11	6	[0, 0, 0]	n/a	FR1	1	R1336T
713.839	1.096	714439	WORD_OFF	n/a	n/a	WHEEL	11	6	[0, 0, 0]	n/a	FR1	1	R1336T
714.935	1.622	715534	WORD	n/a	wordpools/wordpool_EN.txt	HOUSE	12	6	[0, 0, 0]	n/a	FR1	1	R1336T
716.557	0.0	717156	WORD_OFF	n/a	n/a	HOUSE	12	6	[0, 0, 0]	n/a	FR1	1	R1336T
716.557	0.0	717156	ENCODING_END	n/a	n/a	n/a	-999	6	[0, 0, 0]	n/a	FR1	1	R1336T
716.557	0.001	717156	DISTRACT_START	n/a	n/a	n/a	-999	6	[0, 0, 0]	n/a	FR1	1	R1336T
716.558	0.015	717157	START	n/a	n/a	n/a	-999	6	[-999, -999, -999]	n/a	FR1	1	R1336T
716.573	14.119	717172	PROB	14.119	n/a	n/a	-999	6	[2, 6, 2]	10	FR1	1	R1336T
730.692	3.851	731291	PROB	3.851	n/a	n/a	-999	6	[6, 1, 3]	10	FR1	1	R1336T
734.543	4.604	735142	PROB	4.604	n/a	n/a	-999	6	[7, 6, 4]	17	FR1	1	R1336T
739.147	0.014	739745	STOP	n/a	n/a	n/a	-999	6	[-999, -999, -999]	n/a	FR1	1	R1336T
739.161	0.537	739759	DISTRACT_END	n/a	n/a	n/a	-999	6	[0, 0, 0]	n/a	FR1	1	R1336T
739.698	1.546	740296	RETRIEVAL_ORIENT_START	n/a	n/a	n/a	-999	6	[0, 0, 0]	n/a	FR1	1	R1336T
741.244	0.001	741842	RETRIEVAL_ORIENT_END	n/a	n/a	n/a	-999	6	[0, 0, 0]	n/a	FR1	1	R1336T
741.245	1.527	741843	REC_START	n/a	n/a	n/a	-999	6	[0, 0, 0]	n/a	FR1	1	R1336T
742.772	1.292	743370	REC_WORD	1.292	n/a	PEARL	6	6	[0, 0, 0]	n/a	FR1	1	R1336T
744.064	0.943	744662	REC_WORD	0.943	n/a	POND	8	6	[0, 0, 0]	n/a	FR1	1	R1336T
745.007	3.549	745605	REC_WORD	3.549	n/a	PIT	4	6	[0, 0, 0]	n/a	FR1	1	R1336T
748.556	22.7	749154	REC_WORD	22.7	n/a	HOUSE	12	6	[0, 0, 0]	n/a	FR1	1	R1336T
771.256	0.0	771853	REC_END	n/a	n/a	n/a	-999	6	[0, 0, 0]	n/a	FR1	1	R1336T
771.256	0.015	771853	TRIAL_END	n/a	n/a	n/a	-999	6	[0, 0, 0]	n/a	FR1	1	R1336T
771.271	0.0	771868	TRIAL	n/a	n/a	n/a	-999	7	[0, 0, 0]	n/a	FR1	1	R1336T
771.271	0.0	771868	WAITING_START	n/a	n/a	n/a	-999	7	[0, 0, 0]	n/a	FR1	1	R1336T
771.271	1.962	771868	TRIAL_START	n/a	n/a	n/a	-999	7	[0, 0, 0]	n/a	FR1	1	R1336T
773.233	0.001	773830	WAITING_END	n/a	n/a	n/a	-999	7	[0, 0, 0]	n/a	FR1	1	R1336T
773.234	10.428	773831	COUNTDOWN_START	n/a	n/a	n/a	-999	7	[0, 0, 0]	n/a	FR1	1	R1336T
783.662	0.001	784258	COUNTDOWN_END	n/a	n/a	n/a	-999	7	[0, 0, 0]	n/a	FR1	1	R1336T
783.663	1.089	784259	ORIENT_START	n/a	n/a	n/a	-999	7	[0, 0, 0]	n/a	FR1	1	R1336T
784.752	0.001	785348	ORIENT_END	n/a	n/a	n/a	-999	7	[0, 0, 0]	n/a	FR1	1	R1336T
784.753	0.965	785349	ENCODING_START	n/a	n/a	n/a	-999	7	[0, 0, 0]	n/a	FR1	1	R1336T
785.718	1.635	786314	WORD	n/a	wordpools/wordpool_EN.txt	FUR	1	7	[0, 0, 0]	n/a	FR1	1	R1336T
787.353	0.845	787949	WORD_OFF	n/a	n/a	FUR	1	7	[0, 0, 0]	n/a	FR1	1	R1336T
788.198	1.622	788794	WORD	n/a	wordpools/wordpool_EN.txt	MOUSE	2	7	[0, 0, 0]	n/a	FR1	1	R1336T
789.82	1.01	790416	WORD_OFF	n/a	n/a	MOUSE	2	7	[0, 0, 0]	n/a	FR1	1	R1336T
790.83	1.624	791426	WORD	n/a	wordpools/wordpool_EN.txt	SUN	3	7	[0, 0, 0]	n/a	FR1	1	R1336T
792.454	0.86	793050	WORD_OFF	n/a	n/a	SUN	3	7	[0, 0, 0]	n/a	FR1	1	R1336T
793.314	1.623	793910	WORD	n/a	wordpools/wordpool_EN.txt	BUSH	4	7	[0, 0, 0]	n/a	FR1	1	R1336T
794.937	0.769	795533	WORD_OFF	n/a	n/a	BUSH	4	7	[0, 0, 0]	n/a	FR1	1	R1336T
795.706	1.632	796302	WORD	n/a	wordpools/wordpool_EN.txt	SKI	5	7	[0, 0, 0]	n/a	FR1	1	R1336T
797.338	0.783	797934	WORD_OFF	n/a	n/a	SKI	5	7	[0, 0, 0]	n/a	FR1	1	R1336T
798.121	1.634	798717	WORD	n/a	wordpools/wordpool_EN.txt	STAR	6	7	[0, 0, 0]	n/a	FR1	1	R1336T
799.755	0.801	800350	WORD_OFF	n/a	n/a	STAR	6	7	[0, 0, 0]	n/a	FR1	1	R1336T
800.556	1.633	801151	WORD	n/a	wordpools/wordpool_EN.txt	MULE	7	7	[0, 0, 0]	n/a	FR1	1	R1336T
802.189	0.992	802784	WORD_OFF	n/a	n/a	MULE	7	7	[0, 0, 0]	n/a	FR1	1	R1336T
803.181	1.625	803776	WORD	n/a	wordpools/wordpool_EN.txt	BRIDGE	8	7	[0, 0, 0]	n/a	FR1	1	R1336T
804.806	1.025	805401	WORD_OFF	n/a	n/a	BRIDGE	8	7	[0, 0, 0]	n/a	FR1	1	R1336T
805.831	1.625	806426	WORD	n/a	wordpools/wordpool_EN.txt	SMILE	9	7	[0, 0, 0]	n/a	FR1	1	R1336T
807.456	0.925	808051	WORD_OFF	n/a	n/a	SMILE	9	7	[0, 0, 0]	n/a	FR1	1	R1336T
808.381	1.626	808976	WORD	n/a	wordpools/wordpool_EN.txt	TEETH	10	7	[0, 0, 0]	n/a	FR1	1	R1336T
810.007	0.885	810602	WORD_OFF	n/a	n/a	TEETH	10	7	[0, 0, 0]	n/a	FR1	1	R1336T
810.892	1.632	811487	WORD	n/a	wordpools/wordpool_EN.txt	GATE	11	7	[0, 0, 0]	n/a	FR1	1	R1336T
812.524	1.022	813119	WORD_OFF	n/a	n/a	GATE	11	7	[0, 0, 0]	n/a	FR1	1	R1336T
813.546	1.628	814141	WORD	n/a	wordpools/wordpool_EN.txt	BEACH	12	7	[0, 0, 0]	n/a	FR1	1	R1336T
815.174	0.001	815769	WORD_OFF	n/a	n/a	BEACH	12	7	[0, 0, 0]	n/a	FR1	1	R1336T
815.175	0.0	815770	ENCODING_END	n/a	n/a	n/a	-999	7	[0, 0, 0]	n/a	FR1	1	R1336T
815.175	0.0	815770	DISTRACT_START	n/a	n/a	n/a	-999	7	[0, 0, 0]	n/a	FR1	1	R1336T
815.175	0.016	815770	START	n/a	n/a	n/a	-999	7	[-999, -999, -999]	n/a	FR1	1	R1336T
815.191	3.867	815786	PROB	3.867	n/a	n/a	-999	7	[2, 8, 5]	16	FR1	1	R1336T
819.058	6.268	819653	PROB	6.268	n/a	n/a	-999	7	[5, 3, 2]	10	FR1	1	R1336T
825.326	6.251	825920	PROB	6.251	n/a	n/a	-999	7	[6, 6, 8]	20	FR1	1	R1336T
831.577	2.417	832171	PROB	2.417	n/a	n/a	-999	7	[2, 8, 1]	11	FR1	1	R1336T
833.994	3.397	834588	PROB	3.397	n/a	n/a	-999	7	[5, 3, 6]	14	FR1	1	R1336T
837.391	0.021	837985	STOP	n/a	n/a	n/a	-999	7	[-999, -999, -999]	n/a	FR1	1	R1336T
837.412	0.661	838006	DISTRACT_END	n/a	n/a	n/a	-999	7	[0, 0, 0]	n/a	FR1	1	R1336T
838.073	1.522	838667	RETRIEVAL_ORIENT_START	n/a	n/a	n/a	-999	7	[0, 0, 0]	n/a	FR1	1	R1336T
839.595	0.001	840189	RETRIEVAL_ORIENT_END	n/a	n/a	n/a	-999	7	[0, 0, 0]	n/a	FR1	1	R1336T
839.596	0.697	840190	REC_START	n/a	n/a	n/a	-999	7	[0, 0, 0]	n/a	FR1	1	R1336T
840.293	1.325	840887	REC_WORD	1.325	n/a	FUR	1	7	[0, 0, 0]	n/a	FR1	1	R1336T
841.618	3.605	842211	REC_WORD	3.605	n/a	MOUSE	2	7	[0, 0, 0]	n/a	FR1	1	R1336T
845.223	1.807	845816	REC_WORD	1.807	n/a	FOX	-999	7	[0, 0, 0]	n/a	FR1	1	R1336T
847.03	6.032	847623	REC_WORD	6.032	n/a	PIT	-999	7	[0, 0, 0]	n/a	FR1	1	R1336T
853.062	1.364	853655	REC_WORD	1.364	n/a	SUN	3	7	[0, 0, 0]	n/a	FR1	1	R1336T
854.426	15.182	855019	REC_WORD_VV	15.182	n/a	<>	-999	7	[0, 0, 0]	n/a	FR1	1	R1336T
869.608	0.0	870200	TRIAL_END	n/a	n/a	n/a	-999	7	[0, 0, 0]	n/a	FR1	1	R1336T
869.608	0.018	870200	REC_END	n/a	n/a	n/a	-999	7	[0, 0, 0]	n/a	FR1	1	R1336T
869.626	0.0	870218	TRIAL_START	n/a	n/a	n/a	-999	8	[0, 0, 0]	n/a	FR1	1	R1336T
869.626	0.0	870218	TRIAL	n/a	n/a	n/a	-999	8	[0, 0, 0]	n/a	FR1	1	R1336T
869.626	2.292	870218	WAITING_START	n/a	n/a	n/a	-999	8	[0, 0, 0]	n/a	FR1	1	R1336T
871.918	0.001	872510	WAITING_END	n/a	n/a	n/a	-999	8	[0, 0, 0]	n/a	FR1	1	R1336T
871.919	10.429	872511	COUNTDOWN_START	n/a	n/a	n/a	-999	8	[0, 0, 0]	n/a	FR1	1	R1336T
882.348	0.0	882940	COUNTDOWN_END	n/a	n/a	n/a	-999	8	[0, 0, 0]	n/a	FR1	1	R1336T
882.348	1.155	882940	ORIENT_START	n/a	n/a	n/a	-999	8	[0, 0, 0]	n/a	FR1	1	R1336T
883.503	0.001	884094	ORIENT_END	n/a	n/a	n/a	-999	8	[0, 0, 0]	n/a	FR1	1	R1336T
883.504	0.802	884095	ENCODING_START	n/a	n/a	n/a	-999	8	[0, 0, 0]	n/a	FR1	1	R1336T
884.306	1.631	884897	WORD	n/a	wordpools/wordpool_EN.txt	CASH	1	8	[0, 0, 0]	n/a	FR1	1	R1336T
885.937	1.111	886528	WORD_OFF	n/a	n/a	CASH	1	8	[0, 0, 0]	n/a	FR1	1	R1336T
887.048	1.623	887639	WORD	n/a	wordpools/wordpool_EN.txt	YARD	2	8	[0, 0, 0]	n/a	FR1	1	R1336T
888.671	1.14	889262	WORD_OFF	n/a	n/a	YARD	2	8	[0, 0, 0]	n/a	FR1	1	R1336T
889.811	1.627	890402	WORD	n/a	wordpools/wordpool_EN.txt	SNOW	3	8	[0, 0, 0]	n/a	FR1	1	R1336T
891.438	0.951	892029	WORD_OFF	n/a	n/a	SNOW	3	8	[0, 0, 0]	n/a	FR1	1	R1336T
892.389	1.633	892980	WORD	n/a	wordpools/wordpool_EN.txt	MAZE	4	8	[0, 0, 0]	n/a	FR1	1	R1336T
894.022	0.786	894613	WORD_OFF	n/a	n/a	MAZE	4	8	[0, 0, 0]	n/a	FR1	1	R1336T
894.808	1.631	895399	WORD	n/a	wordpools/wordpool_EN.txt	MOTH	5	8	[0, 0, 0]	n/a	FR1	1	R1336T
896.439	0.964	897030	WORD_OFF	n/a	n/a	MOTH	5	8	[0, 0, 0]	n/a	FR1	1	R1336T
897.403	1.637	897994	WORD	n/a	wordpools/wordpool_EN.txt	CART	6	8	[0, 0, 0]	n/a	FR1	1	R1336T
899.04	1.029	899631	WORD_OFF	n/a	n/a	CART	6	8	[0, 0, 0]	n/a	FR1	1	R1336T
900.069	1.638	900660	WORD	n/a	wordpools/wordpool_EN.txt	FORK	7	8	[0, 0, 0]	n/a	FR1	1	R1336T
901.707	0.903	902298	WORD_OFF	n/a	n/a	FORK	7	8	[0, 0, 0]	n/a	FR1	1	R1336T
902.61	1.631	903201	WORD	n/a	wordpools/wordpool_EN.txt	ROSE	8	8	[0, 0, 0]	n/a	FR1	1	R1336T
904.241	0.816	904831	WORD_OFF	n/a	n/a	ROSE	8	8	[0, 0, 0]	n/a	FR1	1	R1336T
905.057	1.634	905647	WORD	n/a	wordpools/wordpool_EN.txt	POOL	9	8	[0, 0, 0]	n/a	FR1	1	R1336T
906.691	1.128	907281	WORD_OFF	n/a	n/a	POOL	9	8	[0, 0, 0]	n/a	FR1	1	R1336T
907.819	1.623	908409	WORD	n/a	wordpools/wordpool_EN.txt	TOOL	10	8	[0, 0, 0]	n/a	FR1	1	R1336T
909.442	1.093	910032	WORD_OFF	n/a	n/a	TOOL	10	8	[0, 0, 0]	n/a	FR1	1	R1336T
910.535	1.624	911125	WORD	n/a	wordpools/wordpool_EN.txt	CRANE	11	8	[0, 0, 0]	n/a	FR1	1	R1336T
912.159	0.905	912749	WORD_OFF	n/a	n/a	CRANE	11	8	[0, 0, 0]	n/a	FR1	1	R1336T
913.064	1.628	913654	WORD	n/a	wordpools/wordpool_EN.txt	DOOR	12	8	[0, 0, 0]	n/a	FR1	1	R1336T
914.692	0.001	915282	WORD_OFF	n/a	n/a	DOOR	12	8	[0, 0, 0]	n/a	FR1	1	R1336T
914.693	0.0	915283	ENCODING_END	n/a	n/a	n/a	-999	8	[0, 0, 0]	n/a	FR1	1	R1336T
914.693	0.0	915283	DISTRACT_START	n/a	n/a	n/a	-999	8	[0, 0, 0]	n/a	FR1	1	R1336T
914.693	0.016	915283	START	n/a	n/a	n/a	-999	8	[-999, -999, -999]	n/a	FR1	1	R1336T
914.709	6.534	915299	PROB	6.534	n/a	n/a	-999	8	[9, 8, 2]	19	FR1	1	R1336T
921.243	4.618	921833	PROB	4.618	n/a	n/a	-999	8	[9, 7, 4]	20	FR1	1	R1336T
925.861	3.834	926450	PROB	3.834	n/a	n/a	-999	8	[2, 7, 2]	11	FR1	1	R1336T
929.695	6.657	930284	PROB	6.657	n/a	n/a	-999	8	[7, 7, 6]	20	FR1	1	R1336T
936.352	0.011	936941	STOP	n/a	n/a	n/a	-999	8	[-999, -999, -999]	n/a	FR1	1	R1336T
936.363	0.594	936952	DISTRACT_END	n/a	n/a	n/a	-999	8	[0, 0, 0]	n/a	FR1	1	R1336T
936.957	1.706	937546	RETRIEVAL_ORIENT_START	n/a	n/a	n/a	-999	8	[0, 0, 0]	n/a	FR1	1	R1336T
938.663	0.001	939252	RETRIEVAL_ORIENT_END	n/a	n/a	n/a	-999	8	[0, 0, 0]	n/a	FR1	1	R1336T
938.664	7.68	939253	REC_START	n/a	n/a	n/a	-999	8	[0, 0, 0]	n/a	FR1	1	R1336T
946.344	10.42	946932	REC_WORD	10.42	n/a	POOL	9	8	[0, 0, 0]	n/a	FR1	1	R1336T
956.764	3.895	957352	REC_WORD	3.895	n/a	ROSE	8	8	[0, 0, 0]	n/a	FR1	1	R1336T
960.659	0.697	961247	REC_WORD	0.697	n/a	YARD	2	8	[0, 0, 0]	n/a	FR1	1	R1336T
961.356	7.319	961944	REC_WORD	7.319	n/a	SNOW	3	8	[0, 0, 0]	n/a	FR1	1	R1336T
968.675	0.0	969262	TRIAL_END	n/a	n/a	n/a	-999	8	[0, 0, 0]	n/a	FR1	1	R1336T
968.675	0.017	969262	REC_END	n/a	n/a	n/a	-999	8	[0, 0, 0]	n/a	FR1	1	R1336T
968.692	0.0	969279	TRIAL_START	n/a	n/a	n/a	-999	9	[0, 0, 0]	n/a	FR1	1	R1336T
968.692	0.0	969279	TRIAL	n/a	n/a	n/a	-999	9	[0, 0, 0]	n/a	FR1	1	R1336T
968.692	2.161	969279	WAITING_START	n/a	n/a	n/a	-999	9	[0, 0, 0]	n/a	FR1	1	R1336T
970.853	0.0	971440	WAITING_END	n/a	n/a	n/a	-999	9	[0, 0, 0]	n/a	FR1	1	R1336T
970.853	10.429	971440	COUNTDOWN_START	n/a	n/a	n/a	-999	9	[0, 0, 0]	n/a	FR1	1	R1336T
981.282	0.0	981869	COUNTDOWN_END	n/a	n/a	n/a	-999	9	[0, 0, 0]	n/a	FR1	1	R1336T
981.282	1.023	981869	ORIENT_START	n/a	n/a	n/a	-999	9	[0, 0, 0]	n/a	FR1	1	R1336T
982.305	0.0	982892	ORIENT_END	n/a	n/a	n/a	-999	9	[0, 0, 0]	n/a	FR1	1	R1336T
982.305	0.801	982892	ENCODING_START	n/a	n/a	n/a	-999	9	[0, 0, 0]	n/a	FR1	1	R1336T
983.106	1.633	983693	WORD	n/a	wordpools/wordpool_EN.txt	PIE	1	9	[0, 0, 0]	n/a	FR1	1	R1336T
984.739	1.135	985326	WORD_OFF	n/a	n/a	PIE	1	9	[0, 0, 0]	n/a	FR1	1	R1336T
985.874	1.632	986461	WORD	n/a	wordpools/wordpool_EN.txt	GRASS	2	9	[0, 0, 0]	n/a	FR1	1	R1336T
987.506	1.025	988093	WORD_OFF	n/a	n/a	GRASS	2	9	[0, 0, 0]	n/a	FR1	1	R1336T
988.531	1.626	989117	WORD	n/a	wordpools/wordpool_EN.txt	TOOTH	3	9	[0, 0, 0]	n/a	FR1	1	R1336T
990.157	0.765	990743	WORD_OFF	n/a	n/a	TOOTH	3	9	[0, 0, 0]	n/a	FR1	1	R1336T
990.922	1.635	991508	WORD	n/a	wordpools/wordpool_EN.txt	NAIL	4	9	[0, 0, 0]	n/a	FR1	1	R1336T
992.557	1.026	993143	WORD_OFF	n/a	n/a	NAIL	4	9	[0, 0, 0]	n/a	FR1	1	R1336T
993.583	1.624	994169	WORD	n/a	wordpools/wordpool_EN.txt	PRINCE	5	9	[0, 0, 0]	n/a	FR1	1	R1336T
995.207	0.817	995793	WORD_OFF	n/a	n/a	PRINCE	5	9	[0, 0, 0]	n/a	FR1	1	R1336T
996.024	1.633	996610	WORD	n/a	wordpools/wordpool_EN.txt	CLOWN	6	9	[0, 0, 0]	n/a	FR1	1	R1336T
997.657	0.925	998243	WORD_OFF	n/a	n/a	CLOWN	6	9	[0, 0, 0]	n/a	FR1	1	R1336T
998.582	1.626	999168	WORD	n/a	wordpools/wordpool_EN.txt	HORN	7	9	[0, 0, 0]	n/a	FR1	1	R1336T
1000.208	0.881	1000794	WORD_OFF	n/a	n/a	HORN	7	9	[0, 0, 0]	n/a	FR1	1	R1336T
1001.089	1.636	1001675	WORD	n/a	wordpools/wordpool_EN.txt	SAIL	8	9	[0, 0, 0]	n/a	FR1	1	R1336T
1002.725	0.934	1003311	WORD_OFF	n/a	n/a	SAIL	8	9	[0, 0, 0]	n/a	FR1	1	R1336T
1003.659	1.633	1004245	WORD	n/a	wordpools/wordpool_EN.txt	HEART	9	9	[0, 0, 0]	n/a	FR1	1	R1336T
1005.292	0.908	1005878	WORD_OFF	n/a	n/a	HEART	9	9	[0, 0, 0]	n/a	FR1	1	R1336T
1006.2	1.626	1006786	WORD	n/a	wordpools/wordpool_EN.txt	MUD	10	9	[0, 0, 0]	n/a	FR1	1	R1336T
1007.826	0.859	1008412	WORD_OFF	n/a	n/a	MUD	10	9	[0, 0, 0]	n/a	FR1	1	R1336T
1008.685	1.625	1009271	WORD	n/a	wordpools/wordpool_EN.txt	ICE	11	9	[0, 0, 0]	n/a	FR1	1	R1336T
1010.31	1.141	1010895	WORD_OFF	n/a	n/a	ICE	11	9	[0, 0, 0]	n/a	FR1	1	R1336T
1011.451	1.626	1012036	WORD	n/a	wordpools/wordpool_EN.txt	EAR	12	9	[0, 0, 0]	n/a	FR1	1	R1336T
1013.077	0.001	1013662	WORD_OFF	n/a	n/a	EAR	12	9	[0, 0, 0]	n/a	FR1	1	R1336T
1013.078	0.0	1013663	ENCODING_END	n/a	n/a	n/a	-999	9	[0, 0, 0]	n/a	FR1	1	R1336T
1013.078	0.0	1013663	DISTRACT_START	n/a	n/a	n/a	-999	9	[0, 0, 0]	n/a	FR1	1	R1336T
1013.078	0.015	1013663	START	n/a	n/a	n/a	-999	9	[-999, -999, -999]	n/a	FR1	1	R1336T
1013.093	4.068	1013678	PROB	4.068	n/a	n/a	-999	9	[3, 6, 1]	10	FR1	1	R1336T
1017.161	13.602	1017746	PROB	13.602	n/a	n/a	-999	9	[8, 6, 7]	21	FR1	1	R1336T
1030.763	4.302	1031347	PROB	4.302	n/a	n/a	-999	9	[3, 3, 8]	14	FR1	1	R1336T
1035.065	0.016	1035649	STOP	n/a	n/a	n/a	-999	9	[-999, -999, -999]	n/a	FR1	1	R1336T
1035.081	0.518	1035665	DISTRACT_END	n/a	n/a	n/a	-999	9	[0, 0, 0]	n/a	FR1	1	R1336T
1035.599	1.533	1036183	RETRIEVAL_ORIENT_START	n/a	n/a	n/a	-999	9	[0, 0, 0]	n/a	FR1	1	R1336T
1037.132	0.001	1037716	RETRIEVAL_ORIENT_END	n/a	n/a	n/a	-999	9	[0, 0, 0]	n/a	FR1	1	R1336T
1037.133	1.953	1037717	REC_START	n/a	n/a	n/a	-999	9	[0, 0, 0]	n/a	FR1	1	R1336T
1039.086	28.06	1039670	REC_WORD	28.06	n/a	PRINCE	5	9	[0, 0, 0]	n/a	FR1	1	R1336T
1067.146	0.0	1067729	REC_END	n/a	n/a	n/a	-999	9	[0, 0, 0]	n/a	FR1	1	R1336T
1067.146	0.014	1067729	TRIAL_END	n/a	n/a	n/a	-999	9	[0, 0, 0]	n/a	FR1	1	R1336T
1067.16	0.0	1067743	WAITING_START	n/a	n/a	n/a	-999	10	[0, 0, 0]	n/a	FR1	1	R1336T
1067.16	0.0	1067743	TRIAL_START	n/a	n/a	n/a	-999	10	[0, 0, 0]	n/a	FR1	1	R1336T
1067.16	2.127	1067743	TRIAL	n/a	n/a	n/a	-999	10	[0, 0, 0]	n/a	FR1	1	R1336T
1069.287	0.001	1069870	WAITING_END	n/a	n/a	n/a	-999	10	[0, 0, 0]	n/a	FR1	1	R1336T
1069.288	10.429	1069871	COUNTDOWN_START	n/a	n/a	n/a	-999	10	[0, 0, 0]	n/a	FR1	1	R1336T
1079.717	0.0	1080299	COUNTDOWN_END	n/a	n/a	n/a	-999	10	[0, 0, 0]	n/a	FR1	1	R1336T
1079.717	1.156	1080299	ORIENT_START	n/a	n/a	n/a	-999	10	[0, 0, 0]	n/a	FR1	1	R1336T
1080.873	0.0	1081455	ORIENT_END	n/a	n/a	n/a	-999	10	[0, 0, 0]	n/a	FR1	1	R1336T
1080.873	0.756	1081455	ENCODING_START	n/a	n/a	n/a	-999	10	[0, 0, 0]	n/a	FR1	1	R1336T
1081.629	1.628	1082211	WORD	n/a	wordpools/wordpool_EN.txt	CLIFF	1	10	[0, 0, 0]	n/a	FR1	1	R1336T
1083.257	0.89	1083839	WORD_OFF	n/a	n/a	CLIFF	1	10	[0, 0, 0]	n/a	FR1	1	R1336T
1084.147	1.627	1084729	WORD	n/a	wordpools/wordpool_EN.txt	STEM	2	10	[0, 0, 0]	n/a	FR1	1	R1336T
1085.774	0.922	1086356	WORD_OFF	n/a	n/a	STEM	2	10	[0, 0, 0]	n/a	FR1	1	R1336T
1086.696	1.628	1087278	WORD	n/a	wordpools/wordpool_EN.txt	MOLE	3	10	[0, 0, 0]	n/a	FR1	1	R1336T
1088.324	1.127	1088906	WORD_OFF	n/a	n/a	MOLE	3	10	[0, 0, 0]	n/a	FR1	1	R1336T
1089.451	1.624	1090033	WORD	n/a	wordpools/wordpool_EN.txt	FLEA	4	10	[0, 0, 0]	n/a	FR1	1	R1336T
1091.075	1.078	1091657	WORD_OFF	n/a	n/a	FLEA	4	10	[0, 0, 0]	n/a	FR1	1	R1336T
1092.153	1.622	1092735	WORD	n/a	wordpools/wordpool_EN.txt	CHEEK	5	10	[0, 0, 0]	n/a	FR1	1	R1336T
1093.775	0.895	1094356	WORD_OFF	n/a	n/a	CHEEK	5	10	[0, 0, 0]	n/a	FR1	1	R1336T
1094.67	1.639	1095251	WORD	n/a	wordpools/wordpool_EN.txt	WORLD	6	10	[0, 0, 0]	n/a	FR1	1	R1336T
1096.309	0.779	1096890	WORD_OFF	n/a	n/a	WORLD	6	10	[0, 0, 0]	n/a	FR1	1	R1336T
1097.088	1.621	1097669	WORD	n/a	wordpools/wordpool_EN.txt	HILL	7	10	[0, 0, 0]	n/a	FR1	1	R1336T
1098.709	1.13	1099290	WORD_OFF	n/a	n/a	HILL	7	10	[0, 0, 0]	n/a	FR1	1	R1336T
1099.839	1.637	1100420	WORD	n/a	wordpools/wordpool_EN.txt	BAND	8	10	[0, 0, 0]	n/a	FR1	1	R1336T
1101.476	0.851	1102057	WORD_OFF	n/a	n/a	BAND	8	10	[0, 0, 0]	n/a	FR1	1	R1336T
1102.327	1.633	1102908	WORD	n/a	wordpools/wordpool_EN.txt	FISH	9	10	[0, 0, 0]	n/a	FR1	1	R1336T
1103.96	0.913	1104541	WORD_OFF	n/a	n/a	FISH	9	10	[0, 0, 0]	n/a	FR1	1	R1336T
1104.873	1.621	1105454	WORD	n/a	wordpools/wordpool_EN.txt	TENT	10	10	[0, 0, 0]	n/a	FR1	1	R1336T
1106.494	1.118	1107075	WORD_OFF	n/a	n/a	TENT	10	10	[0, 0, 0]	n/a	FR1	1	R1336T
1107.612	1.633	1108193	WORD	n/a	wordpools/wordpool_EN.txt	HAWK	11	10	[0, 0, 0]	n/a	FR1	1	R1336T
1109.245	0.802	1109826	WORD_OFF	n/a	n/a	HAWK	11	10	[0, 0, 0]	n/a	FR1	1	R1336T
1110.047	1.631	1110628	WORD	n/a	wordpools/wordpool_EN.txt	MAT	12	10	[0, 0, 0]	n/a	FR1	1	R1336T
1111.678	0.001	1112259	WORD_OFF	n/a	n/a	MAT	12	10	[0, 0, 0]	n/a	FR1	1	R1336T
1111.679	0.0	1112260	DISTRACT_START	n/a	n/a	n/a	-999	10	[0, 0, 0]	n/a	FR1	1	R1336T
1111.679	0.0	1112260	ENCODING_END	n/a	n/a	n/a	-999	10	[0, 0, 0]	n/a	FR1	1	R1336T
1111.679	0.016	1112260	START	n/a	n/a	n/a	-999	10	[-999, -999, -999]	n/a	FR1	1	R1336T
1111.695	8.118	1112276	PROB	8.118	n/a	n/a	-999	10	[4, 1, 7]	12	FR1	1	R1336T
1119.813	2.417	1120393	PROB	2.417	n/a	n/a	-999	10	[5, 5, 3]	13	FR1	1	R1336T
1122.23	3.284	1122810	PROB	3.284	n/a	n/a	-999	10	[3, 4, 6]	13	FR1	1	R1336T
1125.514	3.75	1126094	PROB	3.75	n/a	n/a	-999	10	[9, 4, 5]	18	FR1	1	R1336T
1129.264	1.834	1129844	PROB	1.834	n/a	n/a	-999	10	[4, 6, 1]	11	FR1	1	R1336T
1131.098	3.956	1131678	PROB	3.956	n/a	n/a	-999	10	[9, 8, 4]	21	FR1	1	R1336T
1135.054	0.012	1135633	STOP	n/a	n/a	n/a	-999	10	[-999, -999, -999]	n/a	FR1	1	R1336T
1135.066	0.636	1135645	DISTRACT_END	n/a	n/a	n/a	-999	10	[0, 0, 0]	n/a	FR1	1	R1336T
1135.702	1.697	1136281	RETRIEVAL_ORIENT_START	n/a	n/a	n/a	-999	10	[0, 0, 0]	n/a	FR1	1	R1336T
1137.399	0.001	1137978	RETRIEVAL_ORIENT_END	n/a	n/a	n/a	-999	10	[0, 0, 0]	n/a	FR1	1	R1336T
1137.4	3.329	1137979	REC_START	n/a	n/a	n/a	-999	10	[0, 0, 0]	n/a	FR1	1	R1336T
1140.729	1.262	1141308	REC_WORD	1.262	n/a	CLIFF	1	10	[0, 0, 0]	n/a	FR1	1	R1336T
1141.991	5.677	1142570	REC_WORD	5.677	n/a	MOLE	3	10	[0, 0, 0]	n/a	FR1	1	R1336T
1147.668	19.745	1148247	REC_WORD	19.745	n/a	ANT	-999	10	[0, 0, 0]	n/a	FR1	1	R1336T
1167.413	0.0	1167991	REC_END	n/a	n/a	n/a	-999	10	[0, 0, 0]	n/a	FR1	1	R1336T
1167.413	0.015	1167991	TRIAL_END	n/a	n/a	n/a	-999	10	[0, 0, 0]	n/a	FR1	1	R1336T
1167.428	0.0	1168006	TRIAL_START	n/a	n/a	n/a	-999	11	[0, 0, 0]	n/a	FR1	1	R1336T
1167.428	0.0	1168006	TRIAL	n/a	n/a	n/a	-999	11	[0, 0, 0]	n/a	FR1	1	R1336T
1167.428	1.927	1168006	WAITING_START	n/a	n/a	n/a	-999	11	[0, 0, 0]	n/a	FR1	1	R1336T
1169.355	0.001	1169933	WAITING_END	n/a	n/a	n/a	-999	11	[0, 0, 0]	n/a	FR1	1	R1336T
1169.356	10.428	1169934	COUNTDOWN_START	n/a	n/a	n/a	-999	11	[0, 0, 0]	n/a	FR1	1	R1336T
1179.784	0.001	1180361	COUNTDOWN_END	n/a	n/a	n/a	-999	11	[0, 0, 0]	n/a	FR1	1	R1336T
1179.785	1.106	1180362	ORIENT_START	n/a	n/a	n/a	-999	11	[0, 0, 0]	n/a	FR1	1	R1336T
1180.891	0.0	1181468	ORIENT_END	n/a	n/a	n/a	-999	11	[0, 0, 0]	n/a	FR1	1	R1336T
1180.891	0.883	1181468	ENCODING_START	n/a	n/a	n/a	-999	11	[0, 0, 0]	n/a	FR1	1	R1336T
1181.774	1.634	1182351	WORD	n/a	wordpools/wordpool_EN.txt	CROW	1	11	[0, 0, 0]	n/a	FR1	1	R1336T
1183.408	1.093	1183985	WORD_OFF	n/a	n/a	CROW	1	11	[0, 0, 0]	n/a	FR1	1	R1336T
1184.501	1.625	1185078	WORD	n/a	wordpools/wordpool_EN.txt	CROWN	2	11	[0, 0, 0]	n/a	FR1	1	R1336T
1186.126	0.97	1186703	WORD_OFF	n/a	n/a	CROWN	2	11	[0, 0, 0]	n/a	FR1	1	R1336T
1187.096	1.63	1187673	WORD	n/a	wordpools/wordpool_EN.txt	INK	3	11	[0, 0, 0]	n/a	FR1	1	R1336T
1188.726	0.957	1189303	WORD_OFF	n/a	n/a	INK	3	11	[0, 0, 0]	n/a	FR1	1	R1336T
1189.683	1.626	1190260	WORD	n/a	wordpools/wordpool_EN.txt	FOOT	4	11	[0, 0, 0]	n/a	FR1	1	R1336T
1191.309	0.889	1191886	WORD_OFF	n/a	n/a	FOOT	4	11	[0, 0, 0]	n/a	FR1	1	R1336T
1192.198	1.629	1192775	WORD	n/a	wordpools/wordpool_EN.txt	STRING	5	11	[0, 0, 0]	n/a	FR1	1	R1336T
1193.827	0.944	1194404	WORD_OFF	n/a	n/a	STRING	5	11	[0, 0, 0]	n/a	FR1	1	R1336T
1194.771	1.623	1195348	WORD	n/a	wordpools/wordpool_EN.txt	THREAD	6	11	[0, 0, 0]	n/a	FR1	1	R1336T
1196.394	0.902	1196971	WORD_OFF	n/a	n/a	THREAD	6	11	[0, 0, 0]	n/a	FR1	1	R1336T
1197.296	1.631	1197873	WORD	n/a	wordpools/wordpool_EN.txt	MAIL	7	11	[0, 0, 0]	n/a	FR1	1	R1336T
1198.927	1.122	1199503	WORD_OFF	n/a	n/a	MAIL	7	11	[0, 0, 0]	n/a	FR1	1	R1336T
1200.049	1.629	1200625	WORD	n/a	wordpools/wordpool_EN.txt	CLAY	8	11	[0, 0, 0]	n/a	FR1	1	R1336T
1201.678	1.148	1202254	WORD_OFF	n/a	n/a	CLAY	8	11	[0, 0, 0]	n/a	FR1	1	R1336T
1202.826	1.636	1203402	WORD	n/a	wordpools/wordpool_EN.txt	MUG	9	11	[0, 0, 0]	n/a	FR1	1	R1336T
1204.462	1.052	1205038	WORD_OFF	n/a	n/a	MUG	9	11	[0, 0, 0]	n/a	FR1	1	R1336T
1205.514	1.616	1206090	WORD	n/a	wordpools/wordpool_EN.txt	SALT	10	11	[0, 0, 0]	n/a	FR1	1	R1336T
1207.13	0.928	1207706	WORD_OFF	n/a	n/a	SALT	10	11	[0, 0, 0]	n/a	FR1	1	R1336T
1208.058	1.621	1208634	WORD	n/a	wordpools/wordpool_EN.txt	DOCK	11	11	[0, 0, 0]	n/a	FR1	1	R1336T
1209.679	1.023	1210255	WORD_OFF	n/a	n/a	DOCK	11	11	[0, 0, 0]	n/a	FR1	1	R1336T
1210.702	1.628	1211278	WORD	n/a	wordpools/wordpool_EN.txt	LEAF	12	11	[0, 0, 0]	n/a	FR1	1	R1336T
1212.33	0.0	1212906	WORD_OFF	n/a	n/a	LEAF	12	11	[0, 0, 0]	n/a	FR1	1	R1336T
1212.33	0.001	1212906	ENCODING_END	n/a	n/a	n/a	-999	11	[0, 0, 0]	n/a	FR1	1	R1336T
1212.331	0.0	1212907	DISTRACT_START	n/a	n/a	n/a	-999	11	[0, 0, 0]	n/a	FR1	1	R1336T
1212.331	0.015	1212907	START	n/a	n/a	n/a	-999	11	[-999, -999, -999]	n/a	FR1	1	R1336T
1212.346	5.701	1212922	PROB	5.701	n/a	n/a	-999	11	[8, 8, 3]	19	FR1	1	R1336T
1218.047	7.168	1218623	PROB	7.168	n/a	n/a	-999	11	[8, 7, 9]	23	FR1	1	R1336T
1225.215	4.919	1225790	PROB	4.919	n/a	n/a	-999	11	[3, 1, 1]	5	FR1	1	R1336T
1230.134	5.5	1230709	PROB	5.5	n/a	n/a	-999	11	[8, 8, 8]	24	FR1	1	R1336T
1235.634	0.017	1236209	STOP	n/a	n/a	n/a	-999	11	[-999, -999, -999]	n/a	FR1	1	R1336T
1235.651	0.65	1236226	DISTRACT_END	n/a	n/a	n/a	-999	11	[0, 0, 0]	n/a	FR1	1	R1336T
1236.301	1.55	1236876	RETRIEVAL_ORIENT_START	n/a	n/a	n/a	-999	11	[0, 0, 0]	n/a	FR1	1	R1336T
1237.851	0.0	1238426	RETRIEVAL_ORIENT_END	n/a	n/a	n/a	-999	11	[0, 0, 0]	n/a	FR1	1	R1336T
1237.851	1.09	1238426	REC_START	n/a	n/a	n/a	-999	11	[0, 0, 0]	n/a	FR1	1	R1336T
1238.941	0.964	1239516	REC_WORD	0.964	n/a	INK	3	11	[0, 0, 0]	n/a	FR1	1	R1336T
1239.905	1.28	1240479	REC_WORD	1.28	n/a	FOOT	4	11	[0, 0, 0]	n/a	FR1	1	R1336T
1241.185	26.678	1241759	REC_WORD	26.678	n/a	MUD	-999	11	[0, 0, 0]	n/a	FR1	1	R1336T
1267.863	0.0	1268436	REC_END	n/a	n/a	n/a	-999	11	[0, 0, 0]	n/a	FR1	1	R1336T
1267.863	0.044	1268436	TRIAL_END	n/a	n/a	n/a	-999	11	[0, 0, 0]	n/a	FR1	1	R1336T
1267.907	0.001	1268480	TRIAL_START	n/a	n/a	n/a	-999	12	[0, 0, 0]	n/a	FR1	1	R1336T
1267.908	0.0	1268481	TRIAL	n/a	n/a	n/a	-999	12	[0, 0, 0]	n/a	FR1	1	R1336T
1267.908	1.882	1268481	WAITING_START	n/a	n/a	n/a	-999	12	[0, 0, 0]	n/a	FR1	1	R1336T
1269.79	0.001	1270363	WAITING_END	n/a	n/a	n/a	-999	12	[0, 0, 0]	n/a	FR1	1	R1336T
1269.791	10.429	1270364	COUNTDOWN_START	n/a	n/a	n/a	-999	12	[0, 0, 0]	n/a	FR1	1	R1336T
1280.22	0.0	1280793	ORIENT_START	n/a	n/a	n/a	-999	12	[0, 0, 0]	n/a	FR1	1	R1336T
1280.22	1.172	1280793	COUNTDOWN_END	n/a	n/a	n/a	-999	12	[0, 0, 0]	n/a	FR1	1	R1336T
1281.392	0.001	1281965	ORIENT_END	n/a	n/a	n/a	-999	12	[0, 0, 0]	n/a	FR1	1	R1336T
1281.393	1.058	1281966	ENCODING_START	n/a	n/a	n/a	-999	12	[0, 0, 0]	n/a	FR1	1	R1336T
1282.451	1.625	1283023	WORD	n/a	wordpools/wordpool_EN.txt	FLUTE	1	12	[0, 0, 0]	n/a	FR1	1	R1336T
1284.076	0.868	1284648	WORD_OFF	n/a	n/a	FLUTE	1	12	[0, 0, 0]	n/a	FR1	1	R1336T
1284.944	1.633	1285516	WORD	n/a	wordpools/wordpool_EN.txt	PEAR	2	12	[0, 0, 0]	n/a	FR1	1	R1336T
1286.577	1.033	1287149	WORD_OFF	n/a	n/a	PEAR	2	12	[0, 0, 0]	n/a	FR1	1	R1336T
1287.61	1.634	1288182	WORD	n/a	wordpools/wordpool_EN.txt	STICK	3	12	[0, 0, 0]	n/a	FR1	1	R1336T
1289.244	1.141	1289816	WORD_OFF	n/a	n/a	STICK	3	12	[0, 0, 0]	n/a	FR1	1	R1336T
1290.385	1.626	1290957	WORD	n/a	wordpools/wordpool_EN.txt	CONE	4	12	[0, 0, 0]	n/a	FR1	1	R1336T
1292.011	0.923	1292583	WORD_OFF	n/a	n/a	CONE	4	12	[0, 0, 0]	n/a	FR1	1	R1336T
1292.934	1.627	1293506	WORD	n/a	wordpools/wordpool_EN.txt	BREAD	5	12	[0, 0, 0]	n/a	FR1	1	R1336T
1294.561	1.07	1295133	WORD_OFF	n/a	n/a	BREAD	5	12	[0, 0, 0]	n/a	FR1	1	R1336T
1295.631	1.631	1296203	WORD	n/a	wordpools/wordpool_EN.txt	SHRIMP	6	12	[0, 0, 0]	n/a	FR1	1	R1336T
1297.262	0.884	1297834	WORD_OFF	n/a	n/a	SHRIMP	6	12	[0, 0, 0]	n/a	FR1	1	R1336T
1298.146	1.633	1298718	WORD	n/a	wordpools/wordpool_EN.txt	TIE	7	12	[0, 0, 0]	n/a	FR1	1	R1336T
1299.779	0.817	1300351	WORD_OFF	n/a	n/a	TIE	7	12	[0, 0, 0]	n/a	FR1	1	R1336T
1300.596	1.633	1301168	WORD	n/a	wordpools/wordpool_EN.txt	BOWL	8	12	[0, 0, 0]	n/a	FR1	1	R1336T
1302.229	0.859	1302801	WORD_OFF	n/a	n/a	BOWL	8	12	[0, 0, 0]	n/a	FR1	1	R1336T
1303.088	1.625	1303659	WORD	n/a	wordpools/wordpool_EN.txt	TANK	9	12	[0, 0, 0]	n/a	FR1	1	R1336T
1304.713	1.041	1305284	WORD_OFF	n/a	n/a	TANK	9	12	[0, 0, 0]	n/a	FR1	1	R1336T
1305.754	1.626	1306325	WORD	n/a	wordpools/wordpool_EN.txt	CHAIR	10	12	[0, 0, 0]	n/a	FR1	1	R1336T
1307.38	0.902	1307951	WORD_OFF	n/a	n/a	CHAIR	10	12	[0, 0, 0]	n/a	FR1	1	R1336T
1308.282	1.632	1308853	WORD	n/a	wordpools/wordpool_EN.txt	BEAN	11	12	[0, 0, 0]	n/a	FR1	1	R1336T
1309.914	1.093	1310485	WORD_OFF	n/a	n/a	BEAN	11	12	[0, 0, 0]	n/a	FR1	1	R1336T
1311.007	1.624	1311578	WORD	n/a	wordpools/wordpool_EN.txt	PET	12	12	[0, 0, 0]	n/a	FR1	1	R1336T
1312.631	0.001	1313202	WORD_OFF	n/a	n/a	PET	12	12	[0, 0, 0]	n/a	FR1	1	R1336T
1312.632	0.0	1313203	ENCODING_END	n/a	n/a	n/a	-999	12	[0, 0, 0]	n/a	FR1	1	R1336T
1312.632	0.0	1313203	DISTRACT_START	n/a	n/a	n/a	-999	12	[0, 0, 0]	n/a	FR1	1	R1336T
1312.632	0.016	1313203	START	n/a	n/a	n/a	-999	12	[-999, -999, -999]	n/a	FR1	1	R1336T
1312.648	6.901	1313219	PROB	6.901	n/a	n/a	-999	12	[1, 5, 8]	15	FR1	1	R1336T
1319.549	7.318	1320120	PROB	7.318	n/a	n/a	-999	12	[2, 6, 5]	13	FR1	1	R1336T
1326.867	5.684	1327437	PROB	5.684	n/a	n/a	-999	12	[3, 6, 7]	15	FR1	1	R1336T
1332.551	7.911	1333121	PROB	7.911	n/a	n/a	-999	12	[9, 3, 7]	19	FR1	1	R1336T
1340.462	0.007	1341032	STOP	n/a	n/a	n/a	-999	12	[-999, -999, -999]	n/a	FR1	1	R1336T
1340.469	0.596	1341039	DISTRACT_END	n/a	n/a	n/a	-999	12	[0, 0, 0]	n/a	FR1	1	R1336T
1341.065	1.655	1341635	RETRIEVAL_ORIENT_START	n/a	n/a	n/a	-999	12	[0, 0, 0]	n/a	FR1	1	R1336T
1342.72	0.001	1343290	RETRIEVAL_ORIENT_END	n/a	n/a	n/a	-999	12	[0, 0, 0]	n/a	FR1	1	R1336T
1342.721	1.208	1343291	REC_START	n/a	n/a	n/a	-999	12	[0, 0, 0]	n/a	FR1	1	R1336T
1343.929	1.435	1344499	REC_WORD	1.435	n/a	SHRIMP	6	12	[0, 0, 0]	n/a	FR1	1	R1336T
1345.364	1.327	1345933	REC_WORD	1.327	n/a	BOWL	8	12	[0, 0, 0]	n/a	FR1	1	R1336T
1346.691	26.04	1347260	REC_WORD	26.04	n/a	PET	12	12	[0, 0, 0]	n/a	FR1	1	R1336T
1372.731	0.0	1373299	REC_END	n/a	n/a	n/a	-999	12	[0, 0, 0]	n/a	FR1	1	R1336T
1372.731	0.016	1373299	TRIAL_END	n/a	n/a	n/a	-999	12	[0, 0, 0]	n/a	FR1	1	R1336T
1372.747	0.0	1373315	TRIAL_START	n/a	n/a	n/a	-999	13	[0, 0, 0]	n/a	FR1	1	R1336T
1372.747	0.001	1373315	TRIAL	n/a	n/a	n/a	-999	13	[0, 0, 0]	n/a	FR1	1	R1336T
1372.748	1.828	1373316	WAITING_START	n/a	n/a	n/a	-999	13	[0, 0, 0]	n/a	FR1	1	R1336T
1374.576	0.0	1375144	WAITING_END	n/a	n/a	n/a	-999	13	[0, 0, 0]	n/a	FR1	1	R1336T
1374.576	10.429	1375144	COUNTDOWN_START	n/a	n/a	n/a	-999	13	[0, 0, 0]	n/a	FR1	1	R1336T
1385.005	0.001	1385573	COUNTDOWN_END	n/a	n/a	n/a	-999	13	[0, 0, 0]	n/a	FR1	1	R1336T
1385.006	1.123	1385574	ORIENT_START	n/a	n/a	n/a	-999	13	[0, 0, 0]	n/a	FR1	1	R1336T
1386.129	0.0	1386697	ENCODING_START	n/a	n/a	n/a	-999	13	[0, 0, 0]	n/a	FR1	1	R1336T
1386.129	0.875	1386697	ORIENT_END	n/a	n/a	n/a	-999	13	[0, 0, 0]	n/a	FR1	1	R1336T
1387.004	1.624	1387571	WORD	n/a	wordpools/wordpool_EN.txt	LAND	1	13	[0, 0, 0]	n/a	FR1	1	R1336T
1388.628	0.802	1389195	WORD_OFF	n/a	n/a	LAND	1	13	[0, 0, 0]	n/a	FR1	1	R1336T
1389.43	1.632	1389997	WORD	n/a	wordpools/wordpool_EN.txt	CAT	2	13	[0, 0, 0]	n/a	FR1	1	R1336T
1391.062	0.86	1391629	WORD_OFF	n/a	n/a	CAT	2	13	[0, 0, 0]	n/a	FR1	1	R1336T
1391.922	1.624	1392489	WORD	n/a	wordpools/wordpool_EN.txt	OAK	3	13	[0, 0, 0]	n/a	FR1	1	R1336T
1393.546	0.981	1394113	WORD_OFF	n/a	n/a	OAK	3	13	[0, 0, 0]	n/a	FR1	1	R1336T
1394.527	1.62	1395094	WORD	n/a	wordpools/wordpool_EN.txt	SINK	4	13	[0, 0, 0]	n/a	FR1	1	R1336T
1396.147	0.857	1396714	WORD_OFF	n/a	n/a	SINK	4	13	[0, 0, 0]	n/a	FR1	1	R1336T
1397.004	1.626	1397571	WORD	n/a	wordpools/wordpool_EN.txt	BRANCH	5	13	[0, 0, 0]	n/a	FR1	1	R1336T
1398.63	0.821	1399197	WORD_OFF	n/a	n/a	BRANCH	5	13	[0, 0, 0]	n/a	FR1	1	R1336T
1399.451	1.63	1400018	WORD	n/a	wordpools/wordpool_EN.txt	RAT	6	13	[0, 0, 0]	n/a	FR1	1	R1336T
1401.081	0.773	1401648	WORD_OFF	n/a	n/a	RAT	6	13	[0, 0, 0]	n/a	FR1	1	R1336T
1401.854	1.627	1402421	WORD	n/a	wordpools/wordpool_EN.txt	PANTS	7	13	[0, 0, 0]	n/a	FR1	1	R1336T
1403.481	1.086	1404048	WORD_OFF	n/a	n/a	PANTS	7	13	[0, 0, 0]	n/a	FR1	1	R1336T
1404.567	1.632	1405134	WORD	n/a	wordpools/wordpool_EN.txt	DUCK	8	13	[0, 0, 0]	n/a	FR1	1	R1336T
1406.199	0.934	1406766	WORD_OFF	n/a	n/a	DUCK	8	13	[0, 0, 0]	n/a	FR1	1	R1336T
1407.133	1.632	1407700	WORD	n/a	wordpools/wordpool_EN.txt	SEAT	9	13	[0, 0, 0]	n/a	FR1	1	R1336T
1408.765	0.813	1409331	WORD_OFF	n/a	n/a	SEAT	9	13	[0, 0, 0]	n/a	FR1	1	R1336T
1409.578	1.638	1410144	WORD	n/a	wordpools/wordpool_EN.txt	FRUIT	10	13	[0, 0, 0]	n/a	FR1	1	R1336T
1411.216	0.828	1411782	WORD_OFF	n/a	n/a	FRUIT	10	13	[0, 0, 0]	n/a	FR1	1	R1336T
1412.044	1.622	1412610	WORD	n/a	wordpools/wordpool_EN.txt	BLOOM	11	13	[0, 0, 0]	n/a	FR1	1	R1336T
1413.666	1.088	1414232	WORD_OFF	n/a	n/a	BLOOM	11	13	[0, 0, 0]	n/a	FR1	1	R1336T
1414.754	1.629	1415320	WORD	n/a	wordpools/wordpool_EN.txt	LAMP	12	13	[0, 0, 0]	n/a	FR1	1	R1336T
1416.383	0.001	1416949	WORD_OFF	n/a	n/a	LAMP	12	13	[0, 0, 0]	n/a	FR1	1	R1336T
1416.384	0.0	1416950	ENCODING_END	n/a	n/a	n/a	-999	13	[0, 0, 0]	n/a	FR1	1	R1336T
1416.384	0.0	1416950	DISTRACT_START	n/a	n/a	n/a	-999	13	[0, 0, 0]	n/a	FR1	1	R1336T
1416.384	0.016	1416950	START	n/a	n/a	n/a	-999	13	[-999, -999, -999]	n/a	FR1	1	R1336T
1416.4	4.017	1416966	PROB	4.017	n/a	n/a	-999	13	[5, 2, 9]	16	FR1	1	R1336T
1420.417	3.151	1420983	PROB	3.151	n/a	n/a	-999	13	[5, 8, 3]	17	FR1	1	R1336T
1423.568	3.067	1424134	PROB	3.067	n/a	n/a	-999	13	[2, 3, 6]	11	FR1	1	R1336T
1426.635	3.251	1427201	PROB	3.251	n/a	n/a	-999	13	[6, 8, 3]	17	FR1	1	R1336T
1429.886	8.019	1430451	PROB	8.019	n/a	n/a	-999	13	[8, 9, 7]	23	FR1	1	R1336T
1437.905	0.016	1438470	STOP	n/a	n/a	n/a	-999	13	[-999, -999, -999]	n/a	FR1	1	R1336T
1437.921	0.562	1438486	DISTRACT_END	n/a	n/a	n/a	-999	13	[0, 0, 0]	n/a	FR1	1	R1336T
1438.483	1.688	1439048	RETRIEVAL_ORIENT_START	n/a	n/a	n/a	-999	13	[0, 0, 0]	n/a	FR1	1	R1336T
1440.171	0.001	1440736	RETRIEVAL_ORIENT_END	n/a	n/a	n/a	-999	13	[0, 0, 0]	n/a	FR1	1	R1336T
1440.172	1.295	1440737	REC_START	n/a	n/a	n/a	-999	13	[0, 0, 0]	n/a	FR1	1	R1336T
1441.467	3.212	1442032	REC_WORD	3.212	n/a	LAND	1	13	[0, 0, 0]	n/a	FR1	1	R1336T
1444.679	3.34	1445244	REC_WORD	3.34	n/a	PLANT	-999	13	[0, 0, 0]	n/a	FR1	1	R1336T
1448.019	1.268	1448584	REC_WORD	1.268	n/a	CROW	-999	13	[0, 0, 0]	n/a	FR1	1	R1336T
1449.287	4.631	1449852	REC_WORD	4.631	n/a	CROWD	-999	13	[0, 0, 0]	n/a	FR1	1	R1336T
1453.918	9.254	1454482	REC_WORD_VV	9.254	n/a	<>	-999	13	[0, 0, 0]	n/a	FR1	1	R1336T
1463.172	1.0	1463736	REC_WORD_VV	1.0	n/a	<>	-999	13	[0, 0, 0]	n/a	FR1	1	R1336T
1464.172	1.0	1464736	REC_WORD_VV	1.0	n/a	<>	-999	13	[0, 0, 0]	n/a	FR1	1	R1336T
1465.172	1.0	1465736	REC_WORD_VV	1.0	n/a	<>	-999	13	[0, 0, 0]	n/a	FR1	1	R1336T
1466.172	1.0	1466736	REC_WORD_VV	1.0	n/a	<>	-999	13	[0, 0, 0]	n/a	FR1	1	R1336T
1467.172	1.0	1467736	REC_WORD_VV	1.0	n/a	<>	-999	13	[0, 0, 0]	n/a	FR1	1	R1336T
1468.172	1.0	1468736	REC_WORD_VV	1.0	n/a	<>	-999	13	[0, 0, 0]	n/a	FR1	1	R1336T
1469.172	1.011	1469736	REC_WORD_VV	1.011	n/a	<>	-999	13	[0, 0, 0]	n/a	FR1	1	R1336T
1470.183	0.0	1470747	TRIAL_END	n/a	n/a	n/a	-999	13	[0, 0, 0]	n/a	FR1	1	R1336T
1470.183	0.017	1470747	REC_END	n/a	n/a	n/a	-999	13	[0, 0, 0]	n/a	FR1	1	R1336T
1470.2	0.0	1470764	TRIAL_START	n/a	n/a	n/a	-999	14	[0, 0, 0]	n/a	FR1	1	R1336T
1470.2	0.0	1470764	TRIAL	n/a	n/a	n/a	-999	14	[0, 0, 0]	n/a	FR1	1	R1336T
1470.2	28.532	1470764	WAITING_START	n/a	n/a	n/a	-999	14	[0, 0, 0]	n/a	FR1	1	R1336T
1498.732	0.0	1499294	WAITING_END	n/a	n/a	n/a	-999	14	[0, 0, 0]	n/a	FR1	1	R1336T
1498.732	10.428	1499294	COUNTDOWN_START	n/a	n/a	n/a	-999	14	[0, 0, 0]	n/a	FR1	1	R1336T
1509.16	0.0	1509722	COUNTDOWN_END	n/a	n/a	n/a	-999	14	[0, 0, 0]	n/a	FR1	1	R1336T
1509.16	1.141	1509722	ORIENT_START	n/a	n/a	n/a	-999	14	[0, 0, 0]	n/a	FR1	1	R1336T
1510.301	0.0	1510863	ORIENT_END	n/a	n/a	n/a	-999	14	[0, 0, 0]	n/a	FR1	1	R1336T
1510.301	1.138	1510863	ENCODING_START	n/a	n/a	n/a	-999	14	[0, 0, 0]	n/a	FR1	1	R1336T
1511.439	1.629	1512001	WORD	n/a	wordpools/wordpool_EN.txt	GUARD	1	14	[0, 0, 0]	n/a	FR1	1	R1336T
1513.068	0.995	1513629	WORD_OFF	n/a	n/a	GUARD	1	14	[0, 0, 0]	n/a	FR1	1	R1336T
1514.063	1.622	1514624	WORD	n/a	wordpools/wordpool_EN.txt	CAR	2	14	[0, 0, 0]	n/a	FR1	1	R1336T
1515.685	1.105	1516246	WORD_OFF	n/a	n/a	CAR	2	14	[0, 0, 0]	n/a	FR1	1	R1336T
1516.79	1.629	1517351	WORD	n/a	wordpools/wordpool_EN.txt	OWL	3	14	[0, 0, 0]	n/a	FR1	1	R1336T
1518.419	0.911	1518980	WORD_OFF	n/a	n/a	OWL	3	14	[0, 0, 0]	n/a	FR1	1	R1336T
1519.33	1.622	1519891	WORD	n/a	wordpools/wordpool_EN.txt	HAT	4	14	[0, 0, 0]	n/a	FR1	1	R1336T
1520.952	1.087	1521513	WORD_OFF	n/a	n/a	HAT	4	14	[0, 0, 0]	n/a	FR1	1	R1336T
1522.039	1.631	1522600	WORD	n/a	wordpools/wordpool_EN.txt	FORT	5	14	[0, 0, 0]	n/a	FR1	1	R1336T
1523.67	0.774	1524231	WORD_OFF	n/a	n/a	FORT	5	14	[0, 0, 0]	n/a	FR1	1	R1336T
1524.444	1.626	1525005	WORD	n/a	wordpools/wordpool_EN.txt	SNAIL	6	14	[0, 0, 0]	n/a	FR1	1	R1336T
1526.07	0.984	1526631	WORD_OFF	n/a	n/a	SNAIL	6	14	[0, 0, 0]	n/a	FR1	1	R1336T
1527.054	1.633	1527615	WORD	n/a	wordpools/wordpool_EN.txt	BOARD	7	14	[0, 0, 0]	n/a	FR1	1	R1336T
1528.687	0.804	1529248	WORD_OFF	n/a	n/a	BOARD	7	14	[0, 0, 0]	n/a	FR1	1	R1336T
1529.491	1.631	1530052	WORD	n/a	wordpools/wordpool_EN.txt	MOUTH	8	14	[0, 0, 0]	n/a	FR1	1	R1336T
1531.122	0.901	1531683	WORD_OFF	n/a	n/a	MOUTH	8	14	[0, 0, 0]	n/a	FR1	1	R1336T
1532.023	1.632	1532584	WORD	n/a	wordpools/wordpool_EN.txt	BED	9	14	[0, 0, 0]	n/a	FR1	1	R1336T
1533.655	0.806	1534216	WORD_OFF	n/a	n/a	BED	9	14	[0, 0, 0]	n/a	FR1	1	R1336T
1534.461	1.628	1535021	WORD	n/a	wordpools/wordpool_EN.txt	BOY	10	14	[0, 0, 0]	n/a	FR1	1	R1336T
1536.089	1.145	1536649	WORD_OFF	n/a	n/a	BOY	10	14	[0, 0, 0]	n/a	FR1	1	R1336T
1537.234	1.622	1537794	WORD	n/a	wordpools/wordpool_EN.txt	RIB	11	14	[0, 0, 0]	n/a	FR1	1	R1336T
1538.856	0.816	1539416	WORD_OFF	n/a	n/a	RIB	11	14	[0, 0, 0]	n/a	FR1	1	R1336T
1539.672	1.634	1540232	WORD	n/a	wordpools/wordpool_EN.txt	FARM	12	14	[0, 0, 0]	n/a	FR1	1	R1336T
1541.306	0.001	1541866	WORD_OFF	n/a	n/a	FARM	12	14	[0, 0, 0]	n/a	FR1	1	R1336T
1541.307	0.0	1541867	ENCODING_END	n/a	n/a	n/a	-999	14	[0, 0, 0]	n/a	FR1	1	R1336T
1541.307	0.0	1541867	DISTRACT_START	n/a	n/a	n/a	-999	14	[0, 0, 0]	n/a	FR1	1	R1336T
1541.307	0.016	1541867	START	n/a	n/a	n/a	-999	14	[-999, -999, -999]	n/a	FR1	1	R1336T
1541.323	4.55	1541883	PROB	4.55	n/a	n/a	-999	14	[6, 1, 9]	16	FR1	1	R1336T
1545.873	3.551	1546433	PROB	3.551	n/a	n/a	-999	14	[3, 8, 9]	20	FR1	1	R1336T
1549.424	7.085	1549984	PROB	7.085	n/a	n/a	-999	14	[7, 6, 3]	16	FR1	1	R1336T
1556.509	2.917	1557068	PROB	2.917	n/a	n/a	-999	14	[6, 2, 5]	15	FR1	1	R1336T
1559.426	4.275	1559985	PROB	4.275	n/a	n/a	-999	14	[4, 4, 2]	10	FR1	1	R1336T
1563.701	0.009	1564260	STOP	n/a	n/a	n/a	-999	14	[-999, -999, -999]	n/a	FR1	1	R1336T
1563.71	0.635	1564269	DISTRACT_END	n/a	n/a	n/a	-999	14	[0, 0, 0]	n/a	FR1	1	R1336T
1564.345	1.632	1564904	RETRIEVAL_ORIENT_START	n/a	n/a	n/a	-999	14	[0, 0, 0]	n/a	FR1	1	R1336T
1565.977	0.001	1566536	RETRIEVAL_ORIENT_END	n/a	n/a	n/a	-999	14	[0, 0, 0]	n/a	FR1	1	R1336T
1565.978	1.066	1566537	REC_START	n/a	n/a	n/a	-999	14	[0, 0, 0]	n/a	FR1	1	R1336T
1567.044	0.871	1567603	REC_WORD	0.871	n/a	OWL	3	14	[0, 0, 0]	n/a	FR1	1	R1336T
1567.915	0.474	1568474	REC_WORD_VV	0.474	n/a	<>	-999	14	[0, 0, 0]	n/a	FR1	1	R1336T
1568.389	1.232	1568948	REC_WORD	1.232	n/a	OWL	3	14	[0, 0, 0]	n/a	FR1	1	R1336T
1569.621	2.689	1570180	REC_WORD	2.689	n/a	HAT	4	14	[0, 0, 0]	n/a	FR1	1	R1336T
1572.31	23.681	1572869	REC_WORD	23.681	n/a	WATER	-999	14	[0, 0, 0]	n/a	FR1	1	R1336T
1595.991	0.0	1596549	TRIAL_END	n/a	n/a	n/a	-999	14	[0, 0, 0]	n/a	FR1	1	R1336T
1595.991	0.017	1596549	REC_END	n/a	n/a	n/a	-999	14	[0, 0, 0]	n/a	FR1	1	R1336T
1596.008	0.0	1596566	TRIAL_START	n/a	n/a	n/a	-999	15	[0, 0, 0]	n/a	FR1	1	R1336T
1596.008	0.0	1596566	TRIAL	n/a	n/a	n/a	-999	15	[0, 0, 0]	n/a	FR1	1	R1336T
1596.008	2.175	1596566	WAITING_START	n/a	n/a	n/a	-999	15	[0, 0, 0]	n/a	FR1	1	R1336T
1598.183	0.001	1598740	WAITING_END	n/a	n/a	n/a	-999	15	[0, 0, 0]	n/a	FR1	1	R1336T
1598.184	10.429	1598741	COUNTDOWN_START	n/a	n/a	n/a	-999	15	[0, 0, 0]	n/a	FR1	1	R1336T
1608.613	0.001	1609170	COUNTDOWN_END	n/a	n/a	n/a	-999	15	[0, 0, 0]	n/a	FR1	1	R1336T
1608.614	1.188	1609171	ORIENT_START	n/a	n/a	n/a	-999	15	[0, 0, 0]	n/a	FR1	1	R1336T
1609.802	0.0	1610359	ORIENT_END	n/a	n/a	n/a	-999	15	[0, 0, 0]	n/a	FR1	1	R1336T
1609.802	1.114	1610359	ENCODING_START	n/a	n/a	n/a	-999	15	[0, 0, 0]	n/a	FR1	1	R1336T
1610.916	1.636	1611473	WORD	n/a	wordpools/wordpool_EN.txt	CLOTH	1	15	[0, 0, 0]	n/a	FR1	1	R1336T
1612.552	0.944	1613109	WORD_OFF	n/a	n/a	CLOTH	1	15	[0, 0, 0]	n/a	FR1	1	R1336T
1613.496	1.625	1614053	WORD	n/a	wordpools/wordpool_EN.txt	SEED	2	15	[0, 0, 0]	n/a	FR1	1	R1336T
1615.121	0.799	1615678	WORD_OFF	n/a	n/a	SEED	2	15	[0, 0, 0]	n/a	FR1	1	R1336T
1615.92	1.633	1616477	WORD	n/a	wordpools/wordpool_EN.txt	PHONE	3	15	[0, 0, 0]	n/a	FR1	1	R1336T
1617.553	1.07	1618110	WORD_OFF	n/a	n/a	PHONE	3	15	[0, 0, 0]	n/a	FR1	1	R1336T
1618.623	1.631	1619179	WORD	n/a	wordpools/wordpool_EN.txt	VASE	4	15	[0, 0, 0]	n/a	FR1	1	R1336T
1620.254	0.971	1620810	WORD_OFF	n/a	n/a	VASE	4	15	[0, 0, 0]	n/a	FR1	1	R1336T
1621.225	1.629	1621781	WORD	n/a	wordpools/wordpool_EN.txt	LAWN	5	15	[0, 0, 0]	n/a	FR1	1	R1336T
1622.854	0.778	1623410	WORD_OFF	n/a	n/a	LAWN	5	15	[0, 0, 0]	n/a	FR1	1	R1336T
1623.632	1.623	1624188	WORD	n/a	wordpools/wordpool_EN.txt	JET	6	15	[0, 0, 0]	n/a	FR1	1	R1336T
1625.255	0.803	1625811	WORD_OFF	n/a	n/a	JET	6	15	[0, 0, 0]	n/a	FR1	1	R1336T
1626.058	1.631	1626614	WORD	n/a	wordpools/wordpool_EN.txt	SPARK	7	15	[0, 0, 0]	n/a	FR1	1	R1336T
1627.689	1.139	1628245	WORD_OFF	n/a	n/a	SPARK	7	15	[0, 0, 0]	n/a	FR1	1	R1336T
1628.828	1.628	1629384	WORD	n/a	wordpools/wordpool_EN.txt	MILK	8	15	[0, 0, 0]	n/a	FR1	1	R1336T
1630.456	0.892	1631012	WORD_OFF	n/a	n/a	MILK	8	15	[0, 0, 0]	n/a	FR1	1	R1336T
1631.348	1.625	1631904	WORD	n/a	wordpools/wordpool_EN.txt	LOCK	9	15	[0, 0, 0]	n/a	FR1	1	R1336T
1632.973	0.886	1633529	WORD_OFF	n/a	n/a	LOCK	9	15	[0, 0, 0]	n/a	FR1	1	R1336T
1633.859	1.631	1634415	WORD	n/a	wordpools/wordpool_EN.txt	HOLE	10	15	[0, 0, 0]	n/a	FR1	1	R1336T
1635.49	1.051	1636046	WORD_OFF	n/a	n/a	HOLE	10	15	[0, 0, 0]	n/a	FR1	1	R1336T
1636.541	1.633	1637097	WORD	n/a	wordpools/wordpool_EN.txt	BENCH	11	15	[0, 0, 0]	n/a	FR1	1	R1336T
1638.174	0.82	1638730	WORD_OFF	n/a	n/a	BENCH	11	15	[0, 0, 0]	n/a	FR1	1	R1336T
1638.994	1.63	1639549	WORD	n/a	wordpools/wordpool_EN.txt	ROCK	12	15	[0, 0, 0]	n/a	FR1	1	R1336T
1640.624	0.001	1641179	WORD_OFF	n/a	n/a	ROCK	12	15	[0, 0, 0]	n/a	FR1	1	R1336T
1640.625	0.0	1641180	ENCODING_END	n/a	n/a	n/a	-999	15	[0, 0, 0]	n/a	FR1	1	R1336T
1640.625	0.0	1641180	DISTRACT_START	n/a	n/a	n/a	-999	15	[0, 0, 0]	n/a	FR1	1	R1336T
1640.625	0.016	1641180	START	n/a	n/a	n/a	-999	15	[-999, -999, -999]	n/a	FR1	1	R1336T
1640.641	4.934	1641196	PROB	4.934	n/a	n/a	-999	15	[2, 8, 3]	13	FR1	1	R1336T
1645.575	2.934	1646130	PROB	2.934	n/a	n/a	-999	15	[4, 4, 3]	11	FR1	1	R1336T
1648.509	3.234	1649064	PROB	3.234	n/a	n/a	-999	15	[1, 5, 1]	7	FR1	1	R1336T
1651.743	2.884	1652298	PROB	2.884	n/a	n/a	-999	15	[7, 5, 5]	17	FR1	1	R1336T
1654.627	4.117	1655182	PROB	4.117	n/a	n/a	-999	15	[3, 6, 7]	17	FR1	1	R1336T
1658.744	13.479	1659299	PROB	13.479	n/a	n/a	-999	15	[6, 7, 9]	22	FR1	1	R1336T
1672.223	0.007	1672777	STOP	n/a	n/a	n/a	-999	15	[-999, -999, -999]	n/a	FR1	1	R1336T
1672.23	0.506	1672784	DISTRACT_END	n/a	n/a	n/a	-999	15	[0, 0, 0]	n/a	FR1	1	R1336T
1672.736	1.694	1673290	RETRIEVAL_ORIENT_START	n/a	n/a	n/a	-999	15	[0, 0, 0]	n/a	FR1	1	R1336T
1674.43	0.001	1674984	RETRIEVAL_ORIENT_END	n/a	n/a	n/a	-999	15	[0, 0, 0]	n/a	FR1	1	R1336T
1674.431	4.046	1674985	REC_START	n/a	n/a	n/a	-999	15	[0, 0, 0]	n/a	FR1	1	R1336T
1678.477	1.844	1679031	REC_WORD	1.844	n/a	SEED	2	15	[0, 0, 0]	n/a	FR1	1	R1336T
1680.321	3.82	1680875	REC_WORD	3.82	n/a	GRASS	-999	15	[0, 0, 0]	n/a	FR1	1	R1336T
1684.141	1.293	1684694	REC_WORD	1.293	n/a	SAIL	-999	15	[0, 0, 0]	n/a	FR1	1	R1336T
1685.434	1.0	1685987	REC_WORD_VV	1.0	n/a	<>	-999	15	[0, 0, 0]	n/a	FR1	1	R1336T
1686.434	1.0	1686987	REC_WORD_VV	1.0	n/a	<>	-999	15	[0, 0, 0]	n/a	FR1	1	R1336T
1687.434	1.0	1687987	REC_WORD_VV	1.0	n/a	<>	-999	15	[0, 0, 0]	n/a	FR1	1	R1336T
1688.434	16.009	1688987	REC_WORD_VV	16.009	n/a	<>	-999	15	[0, 0, 0]	n/a	FR1	1	R1336T
1704.443	0.0	1704995	REC_END	n/a	n/a	n/a	-999	15	[0, 0, 0]	n/a	FR1	1	R1336T
1704.443	0.017	1704995	TRIAL_END	n/a	n/a	n/a	-999	15	[0, 0, 0]	n/a	FR1	1	R1336T
1704.46	0.0	1705012	TRIAL_START	n/a	n/a	n/a	-999	16	[0, 0, 0]	n/a	FR1	1	R1336T
1704.46	0.0	1705012	TRIAL	n/a	n/a	n/a	-999	16	[0, 0, 0]	n/a	FR1	1	R1336T
1704.46	1.926	1705012	WAITING_START	n/a	n/a	n/a	-999	16	[0, 0, 0]	n/a	FR1	1	R1336T
1706.386	0.0	1706938	WAITING_END	n/a	n/a	n/a	-999	16	[0, 0, 0]	n/a	FR1	1	R1336T
1706.386	10.43	1706938	COUNTDOWN_START	n/a	n/a	n/a	-999	16	[0, 0, 0]	n/a	FR1	1	R1336T
1716.816	0.0	1717368	COUNTDOWN_END	n/a	n/a	n/a	-999	16	[0, 0, 0]	n/a	FR1	1	R1336T
1716.816	1.039	1717368	ORIENT_START	n/a	n/a	n/a	-999	16	[0, 0, 0]	n/a	FR1	1	R1336T
1717.855	0.0	1718407	ORIENT_END	n/a	n/a	n/a	-999	16	[0, 0, 0]	n/a	FR1	1	R1336T
1717.855	1.108	1718407	ENCODING_START	n/a	n/a	n/a	-999	16	[0, 0, 0]	n/a	FR1	1	R1336T
1718.963	1.626	1719515	WORD	n/a	wordpools/wordpool_EN.txt	HOSE	1	16	[0, 0, 0]	n/a	FR1	1	R1336T
1720.589	1.064	1721141	WORD_OFF	n/a	n/a	HOSE	1	16	[0, 0, 0]	n/a	FR1	1	R1336T
1721.653	1.636	1722205	WORD	n/a	wordpools/wordpool_EN.txt	GOLD	2	16	[0, 0, 0]	n/a	FR1	1	R1336T
1723.289	0.938	1723840	WORD_OFF	n/a	n/a	GOLD	2	16	[0, 0, 0]	n/a	FR1	1	R1336T
1724.227	1.629	1724778	WORD	n/a	wordpools/wordpool_EN.txt	WHALE	3	16	[0, 0, 0]	n/a	FR1	1	R1336T
1725.856	0.836	1726407	WORD_OFF	n/a	n/a	WHALE	3	16	[0, 0, 0]	n/a	FR1	1	R1336T
1726.692	1.632	1727243	WORD	n/a	wordpools/wordpool_EN.txt	FILM	4	16	[0, 0, 0]	n/a	FR1	1	R1336T
1728.324	0.817	1728875	WORD_OFF	n/a	n/a	FILM	4	16	[0, 0, 0]	n/a	FR1	1	R1336T
1729.141	1.633	1729692	WORD	n/a	wordpools/wordpool_EN.txt	CHALK	5	16	[0, 0, 0]	n/a	FR1	1	R1336T
1730.774	1.03	1731325	WORD_OFF	n/a	n/a	CHALK	5	16	[0, 0, 0]	n/a	FR1	1	R1336T
1731.804	1.637	1732355	WORD	n/a	wordpools/wordpool_EN.txt	PALM	6	16	[0, 0, 0]	n/a	FR1	1	R1336T
1733.441	0.976	1733992	WORD_OFF	n/a	n/a	PALM	6	16	[0, 0, 0]	n/a	FR1	1	R1336T
1734.417	1.625	1734968	WORD	n/a	wordpools/wordpool_EN.txt	BEAR	7	16	[0, 0, 0]	n/a	FR1	1	R1336T
1736.042	0.795	1736593	WORD_OFF	n/a	n/a	BEAR	7	16	[0, 0, 0]	n/a	FR1	1	R1336T
1736.837	1.622	1737388	WORD	n/a	wordpools/wordpool_EN.txt	VAN	8	16	[0, 0, 0]	n/a	FR1	1	R1336T
1738.459	1.137	1739010	WORD_OFF	n/a	n/a	VAN	8	16	[0, 0, 0]	n/a	FR1	1	R1336T
1739.596	1.63	1740147	WORD	n/a	wordpools/wordpool_EN.txt	NOSE	9	16	[0, 0, 0]	n/a	FR1	1	R1336T
1741.226	1.024	1741777	WORD_OFF	n/a	n/a	NOSE	9	16	[0, 0, 0]	n/a	FR1	1	R1336T
1742.25	1.626	1742801	WORD	n/a	wordpools/wordpool_EN.txt	JUICE	10	16	[0, 0, 0]	n/a	FR1	1	R1336T
1743.876	0.994	1744426	WORD_OFF	n/a	n/a	JUICE	10	16	[0, 0, 0]	n/a	FR1	1	R1336T
1744.87	1.624	1745420	WORD	n/a	wordpools/wordpool_EN.txt	TOE	11	16	[0, 0, 0]	n/a	FR1	1	R1336T
1746.494	0.934	1747044	WORD_OFF	n/a	n/a	TOE	11	16	[0, 0, 0]	n/a	FR1	1	R1336T
1747.428	1.633	1747978	WORD	n/a	wordpools/wordpool_EN.txt	PIG	12	16	[0, 0, 0]	n/a	FR1	1	R1336T
1749.061	0.0	1749611	WORD_OFF	n/a	n/a	PIG	12	16	[0, 0, 0]	n/a	FR1	1	R1336T
1749.061	0.0	1749611	ENCODING_END	n/a	n/a	n/a	-999	16	[0, 0, 0]	n/a	FR1	1	R1336T
1749.061	0.001	1749611	DISTRACT_START	n/a	n/a	n/a	-999	16	[0, 0, 0]	n/a	FR1	1	R1336T
1749.062	0.015	1749612	START	n/a	n/a	n/a	-999	16	[-999, -999, -999]	n/a	FR1	1	R1336T
1749.077	4.834	1749627	PROB	4.834	n/a	n/a	-999	16	[3, 3, 2]	8	FR1	1	R1336T
1753.911	3.151	1754461	PROB	3.151	n/a	n/a	-999	16	[8, 6, 1]	14	FR1	1	R1336T
1757.062	5.351	1757612	PROB	5.351	n/a	n/a	-999	16	[1, 7, 2]	10	FR1	1	R1336T
1762.413	3.517	1762963	PROB	3.517	n/a	n/a	-999	16	[5, 5, 9]	19	FR1	1	R1336T
1765.93	4.01	1766479	PROB	4.01	n/a	n/a	-999	16	[6, 7, 4]	17	FR1	1	R1336T
1769.94	0.008	1770489	STOP	n/a	n/a	n/a	-999	16	[-999, -999, -999]	n/a	FR1	1	R1336T
1769.948	0.578	1770497	DISTRACT_END	n/a	n/a	n/a	-999	16	[0, 0, 0]	n/a	FR1	1	R1336T
1770.526	1.572	1771075	RETRIEVAL_ORIENT_START	n/a	n/a	n/a	-999	16	[0, 0, 0]	n/a	FR1	1	R1336T
1772.098	0.0	1772647	RETRIEVAL_ORIENT_END	n/a	n/a	n/a	-999	16	[0, 0, 0]	n/a	FR1	1	R1336T
1772.098	0.945	1772647	REC_START	n/a	n/a	n/a	-999	16	[0, 0, 0]	n/a	FR1	1	R1336T
1773.043	1.272	1773592	REC_WORD_VV	1.272	n/a	<>	-999	16	[0, 0, 0]	n/a	FR1	1	R1336T
1774.315	1.335	1774864	REC_WORD	1.335	n/a	BEAR	7	16	[0, 0, 0]	n/a	FR1	1	R1336T
1775.65	26.461	1776199	REC_WORD	26.461	n/a	TOE	11	16	[0, 0, 0]	n/a	FR1	1	R1336T
1802.111	0.0	1802659	REC_END	n/a	n/a	n/a	-999	16	[0, 0, 0]	n/a	FR1	1	R1336T
1802.111	0.018	1802659	TRIAL_END	n/a	n/a	n/a	-999	16	[0, 0, 0]	n/a	FR1	1	R1336T
1802.129	0.0	1802677	TRIAL_START	n/a	n/a	n/a	-999	17	[0, 0, 0]	n/a	FR1	1	R1336T
1802.129	0.0	1802677	TRIAL	n/a	n/a	n/a	-999	17	[0, 0, 0]	n/a	FR1	1	R1336T
1802.129	2.692	1802677	WAITING_START	n/a	n/a	n/a	-999	17	[0, 0, 0]	n/a	FR1	1	R1336T
1804.821	0.0	1805369	WAITING_END	n/a	n/a	n/a	-999	17	[0, 0, 0]	n/a	FR1	1	R1336T
1804.821	10.43	1805369	COUNTDOWN_START	n/a	n/a	n/a	-999	17	[0, 0, 0]	n/a	FR1	1	R1336T
1815.251	0.0	1815798	COUNTDOWN_END	n/a	n/a	n/a	-999	17	[0, 0, 0]	n/a	FR1	1	R1336T
1815.251	1.055	1815798	ORIENT_START	n/a	n/a	n/a	-999	17	[0, 0, 0]	n/a	FR1	1	R1336T
1816.306	0.0	1816853	ORIENT_END	n/a	n/a	n/a	-999	17	[0, 0, 0]	n/a	FR1	1	R1336T
1816.306	0.96	1816853	ENCODING_START	n/a	n/a	n/a	-999	17	[0, 0, 0]	n/a	FR1	1	R1336T
1817.266	1.624	1817813	WORD	n/a	wordpools/wordpool_EN.txt	PURSE	1	17	[0, 0, 0]	n/a	FR1	1	R1336T
1818.89	0.796	1819437	WORD_OFF	n/a	n/a	PURSE	1	17	[0, 0, 0]	n/a	FR1	1	R1336T
1819.686	1.638	1820233	WORD	n/a	wordpools/wordpool_EN.txt	BAG	2	17	[0, 0, 0]	n/a	FR1	1	R1336T
1821.324	1.15	1821871	WORD_OFF	n/a	n/a	BAG	2	17	[0, 0, 0]	n/a	FR1	1	R1336T
1822.474	1.634	1823021	WORD	n/a	wordpools/wordpool_EN.txt	CHIEF	3	17	[0, 0, 0]	n/a	FR1	1	R1336T
1824.108	1.107	1824655	WORD_OFF	n/a	n/a	CHIEF	3	17	[0, 0, 0]	n/a	FR1	1	R1336T
1825.215	1.626	1825762	WORD	n/a	wordpools/wordpool_EN.txt	SHIELD	4	17	[0, 0, 0]	n/a	FR1	1	R1336T
1826.841	1.1	1827388	WORD_OFF	n/a	n/a	SHIELD	4	17	[0, 0, 0]	n/a	FR1	1	R1336T
1827.941	1.634	1828487	WORD	n/a	wordpools/wordpool_EN.txt	SLUSH	5	17	[0, 0, 0]	n/a	FR1	1	R1336T
1829.575	0.901	1830121	WORD_OFF	n/a	n/a	SLUSH	5	17	[0, 0, 0]	n/a	FR1	1	R1336T
1830.476	1.633	1831022	WORD	n/a	wordpools/wordpool_EN.txt	ELF	6	17	[0, 0, 0]	n/a	FR1	1	R1336T
1832.109	0.988	1832655	WORD_OFF	n/a	n/a	ELF	6	17	[0, 0, 0]	n/a	FR1	1	R1336T
1833.097	1.629	1833643	WORD	n/a	wordpools/wordpool_EN.txt	TOAST	7	17	[0, 0, 0]	n/a	FR1	1	R1336T
1834.726	0.839	1835272	WORD_OFF	n/a	n/a	TOAST	7	17	[0, 0, 0]	n/a	FR1	1	R1336T
1835.565	1.628	1836111	WORD	n/a	wordpools/wordpool_EN.txt	BEAK	8	17	[0, 0, 0]	n/a	FR1	1	R1336T
1837.193	1.093	1837739	WORD_OFF	n/a	n/a	BEAK	8	17	[0, 0, 0]	n/a	FR1	1	R1336T
1838.286	1.624	1838832	WORD	n/a	wordpools/wordpool_EN.txt	DIME	9	17	[0, 0, 0]	n/a	FR1	1	R1336T
1839.91	0.994	1840456	WORD_OFF	n/a	n/a	DIME	9	17	[0, 0, 0]	n/a	FR1	1	R1336T
1840.904	1.624	1841450	WORD	n/a	wordpools/wordpool_EN.txt	HORSE	10	17	[0, 0, 0]	n/a	FR1	1	R1336T
1842.528	1.146	1843074	WORD_OFF	n/a	n/a	HORSE	10	17	[0, 0, 0]	n/a	FR1	1	R1336T
1843.674	1.637	1844220	WORD	n/a	wordpools/wordpool_EN.txt	PLANT	11	17	[0, 0, 0]	n/a	FR1	1	R1336T
1845.311	0.935	1845857	WORD_OFF	n/a	n/a	PLANT	11	17	[0, 0, 0]	n/a	FR1	1	R1336T
1846.246	1.633	1846792	WORD	n/a	wordpools/wordpool_EN.txt	BRUSH	12	17	[0, 0, 0]	n/a	FR1	1	R1336T
1847.879	0.0	1848425	WORD_OFF	n/a	n/a	BRUSH	12	17	[0, 0, 0]	n/a	FR1	1	R1336T
1847.879	0.0	1848425	ENCODING_END	n/a	n/a	n/a	-999	17	[0, 0, 0]	n/a	FR1	1	R1336T
1847.879	0.001	1848425	DISTRACT_START	n/a	n/a	n/a	-999	17	[0, 0, 0]	n/a	FR1	1	R1336T
1847.88	0.015	1848426	START	n/a	n/a	n/a	-999	17	[-999, -999, -999]	n/a	FR1	1	R1336T
1847.895	6.501	1848441	PROB	6.501	n/a	n/a	-999	17	[2, 4, 9]	17	FR1	1	R1336T
1854.396	6.268	1854941	PROB	6.268	n/a	n/a	-999	17	[6, 3, 5]	14	FR1	1	R1336T
1860.664	2.684	1861209	PROB	2.684	n/a	n/a	-999	17	[6, 4, 3]	13	FR1	1	R1336T
1863.348	5.537	1863893	PROB	5.537	n/a	n/a	-999	17	[4, 7, 7]	18	FR1	1	R1336T
1868.885	0.014	1869430	STOP	n/a	n/a	n/a	-999	17	[-999, -999, -999]	n/a	FR1	1	R1336T
1868.899	0.541	1869444	DISTRACT_END	n/a	n/a	n/a	-999	17	[0, 0, 0]	n/a	FR1	1	R1336T
1869.44	1.626	1869985	RETRIEVAL_ORIENT_START	n/a	n/a	n/a	-999	17	[0, 0, 0]	n/a	FR1	1	R1336T
1871.066	0.0	1871610	RETRIEVAL_ORIENT_END	n/a	n/a	n/a	-999	17	[0, 0, 0]	n/a	FR1	1	R1336T
1871.066	1.132	1871610	REC_START	n/a	n/a	n/a	-999	17	[0, 0, 0]	n/a	FR1	1	R1336T
1872.198	1.283	1872742	REC_WORD	1.283	n/a	BAG	2	17	[0, 0, 0]	n/a	FR1	1	R1336T
1873.481	1.063	1874025	REC_WORD	1.063	n/a	PURSE	1	17	[0, 0, 0]	n/a	FR1	1	R1336T
1874.544	6.525	1875088	REC_WORD	6.525	n/a	DIME	9	17	[0, 0, 0]	n/a	FR1	1	R1336T
1881.069	20.008	1881613	REC_WORD	20.008	n/a	BRUSH	12	17	[0, 0, 0]	n/a	FR1	1	R1336T
1901.077	0.001	1901620	REC_END	n/a	n/a	n/a	-999	17	[0, 0, 0]	n/a	FR1	1	R1336T
1901.078	0.014	1901621	TRIAL_END	n/a	n/a	n/a	-999	17	[0, 0, 0]	n/a	FR1	1	R1336T
1901.092	0.001	1901635	TRIAL_START	n/a	n/a	n/a	-999	18	[0, 0, 0]	n/a	FR1	1	R1336T
1901.093	0.0	1901636	TRIAL	n/a	n/a	n/a	-999	18	[0, 0, 0]	n/a	FR1	1	R1336T
1901.093	2.079	1901636	WAITING_START	n/a	n/a	n/a	-999	18	[0, 0, 0]	n/a	FR1	1	R1336T
1903.172	0.0	1903715	WAITING_END	n/a	n/a	n/a	-999	18	[0, 0, 0]	n/a	FR1	1	R1336T
1903.172	10.43	1903715	COUNTDOWN_START	n/a	n/a	n/a	-999	18	[0, 0, 0]	n/a	FR1	1	R1336T
1913.602	0.0	1914144	COUNTDOWN_END	n/a	n/a	n/a	-999	18	[0, 0, 0]	n/a	FR1	1	R1336T
1913.602	1.089	1914144	ORIENT_START	n/a	n/a	n/a	-999	18	[0, 0, 0]	n/a	FR1	1	R1336T
1914.691	0.0	1915233	ORIENT_END	n/a	n/a	n/a	-999	18	[0, 0, 0]	n/a	FR1	1	R1336T
1914.691	0.978	1915233	ENCODING_START	n/a	n/a	n/a	-999	18	[0, 0, 0]	n/a	FR1	1	R1336T
1915.669	1.622	1916211	WORD	n/a	wordpools/wordpool_EN.txt	WORM	1	18	[0, 0, 0]	n/a	FR1	1	R1336T
1917.291	0.968	1917833	WORD_OFF	n/a	n/a	WORM	1	18	[0, 0, 0]	n/a	FR1	1	R1336T
1918.259	1.633	1918801	WORD	n/a	wordpools/wordpool_EN.txt	JAIL	2	18	[0, 0, 0]	n/a	FR1	1	R1336T
1919.892	0.833	1920434	WORD_OFF	n/a	n/a	JAIL	2	18	[0, 0, 0]	n/a	FR1	1	R1336T
1920.725	1.634	1921267	WORD	n/a	wordpools/wordpool_EN.txt	BEE	3	18	[0, 0, 0]	n/a	FR1	1	R1336T
1922.359	1.039	1922901	WORD_OFF	n/a	n/a	BEE	3	18	[0, 0, 0]	n/a	FR1	1	R1336T
1923.398	1.628	1923940	WORD	n/a	wordpools/wordpool_EN.txt	LAKE	4	18	[0, 0, 0]	n/a	FR1	1	R1336T
1925.026	0.88	1925568	WORD_OFF	n/a	n/a	LAKE	4	18	[0, 0, 0]	n/a	FR1	1	R1336T
1925.906	1.637	1926448	WORD	n/a	wordpools/wordpool_EN.txt	BANK	5	18	[0, 0, 0]	n/a	FR1	1	R1336T
1927.543	1.061	1928085	WORD_OFF	n/a	n/a	BANK	5	18	[0, 0, 0]	n/a	FR1	1	R1336T
1928.604	1.623	1929146	WORD	n/a	wordpools/wordpool_EN.txt	PASTE	6	18	[0, 0, 0]	n/a	FR1	1	R1336T
1930.227	1.023	1930769	WORD_OFF	n/a	n/a	PASTE	6	18	[0, 0, 0]	n/a	FR1	1	R1336T
1931.25	1.627	1931792	WORD	n/a	wordpools/wordpool_EN.txt	SHELL	7	18	[0, 0, 0]	n/a	FR1	1	R1336T
1932.877	1.053	1933418	WORD_OFF	n/a	n/a	SHELL	7	18	[0, 0, 0]	n/a	FR1	1	R1336T
1933.93	1.631	1934471	WORD	n/a	wordpools/wordpool_EN.txt	PLANE	8	18	[0, 0, 0]	n/a	FR1	1	R1336T
1935.561	0.931	1936102	WORD_OFF	n/a	n/a	PLANE	8	18	[0, 0, 0]	n/a	FR1	1	R1336T
1936.492	1.637	1937033	WORD	n/a	wordpools/wordpool_EN.txt	DITCH	9	18	[0, 0, 0]	n/a	FR1	1	R1336T
1938.129	0.787	1938670	WORD_OFF	n/a	n/a	DITCH	9	18	[0, 0, 0]	n/a	FR1	1	R1336T
1938.916	1.629	1939457	WORD	n/a	wordpools/wordpool_EN.txt	WALL	10	18	[0, 0, 0]	n/a	FR1	1	R1336T
1940.545	1.071	1941086	WORD_OFF	n/a	n/a	WALL	10	18	[0, 0, 0]	n/a	FR1	1	R1336T
1941.616	1.63	1942157	WORD	n/a	wordpools/wordpool_EN.txt	FOG	11	18	[0, 0, 0]	n/a	FR1	1	R1336T
1943.246	0.759	1943787	WORD_OFF	n/a	n/a	FOG	11	18	[0, 0, 0]	n/a	FR1	1	R1336T
1944.005	1.625	1944546	WORD	n/a	wordpools/wordpool_EN.txt	BARN	12	18	[0, 0, 0]	n/a	FR1	1	R1336T
1945.63	0.0	1946171	WORD_OFF	n/a	n/a	BARN	12	18	[0, 0, 0]	n/a	FR1	1	R1336T
1945.63	0.001	1946171	ENCODING_END	n/a	n/a	n/a	-999	18	[0, 0, 0]	n/a	FR1	1	R1336T
1945.631	0.0	1946172	DISTRACT_START	n/a	n/a	n/a	-999	18	[0, 0, 0]	n/a	FR1	1	R1336T
1945.631	0.015	1946172	START	n/a	n/a	n/a	-999	18	[-999, -999, -999]	n/a	FR1	1	R1336T
1945.646	6.451	1946187	PROB	6.451	n/a	n/a	-999	18	[4, 3, 5]	12	FR1	1	R1336T
1952.097	2.434	1952638	PROB	2.434	n/a	n/a	-999	18	[5, 4, 2]	11	FR1	1	R1336T
1954.531	3.901	1955071	PROB	3.901	n/a	n/a	-999	18	[7, 4, 7]	18	FR1	1	R1336T
1958.432	9.321	1958972	PROB	9.321	n/a	n/a	-999	18	[7, 8, 4]	19	FR1	1	R1336T
1967.753	0.014	1968293	STOP	n/a	n/a	n/a	-999	18	[-999, -999, -999]	n/a	FR1	1	R1336T
1967.767	0.62	1968307	DISTRACT_END	n/a	n/a	n/a	-999	18	[0, 0, 0]	n/a	FR1	1	R1336T
1968.387	1.697	1968927	RETRIEVAL_ORIENT_START	n/a	n/a	n/a	-999	18	[0, 0, 0]	n/a	FR1	1	R1336T
1970.084	0.0	1970624	RETRIEVAL_ORIENT_END	n/a	n/a	n/a	-999	18	[0, 0, 0]	n/a	FR1	1	R1336T
1970.084	0.947	1970624	REC_START	n/a	n/a	n/a	-999	18	[0, 0, 0]	n/a	FR1	1	R1336T
1971.031	1.284	1971571	REC_WORD	1.284	n/a	JAIL	2	18	[0, 0, 0]	n/a	FR1	1	R1336T
1972.315	27.781	1972855	REC_WORD	27.781	n/a	BEE	3	18	[0, 0, 0]	n/a	FR1	1	R1336T
2000.096	0.0	2000634	TRIAL_END	n/a	n/a	n/a	-999	18	[0, 0, 0]	n/a	FR1	1	R1336T
2000.096	0.017	2000634	REC_END	n/a	n/a	n/a	-999	18	[0, 0, 0]	n/a	FR1	1	R1336T
2000.113	0.0	2000651	TRIAL_START	n/a	n/a	n/a	-999	19	[0, 0, 0]	n/a	FR1	1	R1336T
2000.113	0.0	2000651	TRIAL	n/a	n/a	n/a	-999	19	[0, 0, 0]	n/a	FR1	1	R1336T
2000.113	1.994	2000651	WAITING_START	n/a	n/a	n/a	-999	19	[0, 0, 0]	n/a	FR1	1	R1336T
2002.107	0.0	2002645	WAITING_END	n/a	n/a	n/a	-999	19	[0, 0, 0]	n/a	FR1	1	R1336T
2002.107	10.429	2002645	COUNTDOWN_START	n/a	n/a	n/a	-999	19	[0, 0, 0]	n/a	FR1	1	R1336T
2012.536	0.0	2013074	COUNTDOWN_END	n/a	n/a	n/a	-999	19	[0, 0, 0]	n/a	FR1	1	R1336T
2012.536	1.123	2013074	ORIENT_START	n/a	n/a	n/a	-999	19	[0, 0, 0]	n/a	FR1	1	R1336T
2013.659	0.0	2014197	ORIENT_END	n/a	n/a	n/a	-999	19	[0, 0, 0]	n/a	FR1	1	R1336T
2013.659	0.902	2014197	ENCODING_START	n/a	n/a	n/a	-999	19	[0, 0, 0]	n/a	FR1	1	R1336T
2014.561	1.631	2015099	WORD	n/a	wordpools/wordpool_EN.txt	MOON	1	19	[0, 0, 0]	n/a	FR1	1	R1336T
2016.192	1.085	2016730	WORD_OFF	n/a	n/a	MOON	1	19	[0, 0, 0]	n/a	FR1	1	R1336T
2017.277	1.633	2017814	WORD	n/a	wordpools/wordpool_EN.txt	SLIME	2	19	[0, 0, 0]	n/a	FR1	1	R1336T
2018.91	1.019	2019447	WORD_OFF	n/a	n/a	SLIME	2	19	[0, 0, 0]	n/a	FR1	1	R1336T
2019.929	1.631	2020466	WORD	n/a	wordpools/wordpool_EN.txt	PEA	3	19	[0, 0, 0]	n/a	FR1	1	R1336T
2021.56	1.068	2022097	WORD_OFF	n/a	n/a	PEA	3	19	[0, 0, 0]	n/a	FR1	1	R1336T
2022.628	1.633	2023165	WORD	n/a	wordpools/wordpool_EN.txt	BAT	4	19	[0, 0, 0]	n/a	FR1	1	R1336T
2024.261	1.104	2024798	WORD_OFF	n/a	n/a	BAT	4	19	[0, 0, 0]	n/a	FR1	1	R1336T
2025.365	1.629	2025902	WORD	n/a	wordpools/wordpool_EN.txt	EGG	5	19	[0, 0, 0]	n/a	FR1	1	R1336T
2026.994	0.855	2027531	WORD_OFF	n/a	n/a	EGG	5	19	[0, 0, 0]	n/a	FR1	1	R1336T
2027.849	1.629	2028386	WORD	n/a	wordpools/wordpool_EN.txt	GLOVE	6	19	[0, 0, 0]	n/a	FR1	1	R1336T
2029.478	1.014	2030015	WORD_OFF	n/a	n/a	GLOVE	6	19	[0, 0, 0]	n/a	FR1	1	R1336T
2030.492	1.638	2031029	WORD	n/a	wordpools/wordpool_EN.txt	AXE	7	19	[0, 0, 0]	n/a	FR1	1	R1336T
2032.13	0.943	2032667	WORD_OFF	n/a	n/a	AXE	7	19	[0, 0, 0]	n/a	FR1	1	R1336T
2033.073	1.623	2033610	WORD	n/a	wordpools/wordpool_EN.txt	STRAW	8	19	[0, 0, 0]	n/a	FR1	1	R1336T
2034.696	0.76	2035233	WORD_OFF	n/a	n/a	STRAW	8	19	[0, 0, 0]	n/a	FR1	1	R1336T
2035.456	1.624	2035993	WORD	n/a	wordpools/wordpool_EN.txt	SPONGE	9	19	[0, 0, 0]	n/a	FR1	1	R1336T
2037.08	1.126	2037617	WORD_OFF	n/a	n/a	SPONGE	9	19	[0, 0, 0]	n/a	FR1	1	R1336T
2038.206	1.624	2038742	WORD	n/a	wordpools/wordpool_EN.txt	WOLF	10	19	[0, 0, 0]	n/a	FR1	1	R1336T
2039.83	0.91	2040366	WORD_OFF	n/a	n/a	WOLF	10	19	[0, 0, 0]	n/a	FR1	1	R1336T
2040.74	1.624	2041276	WORD	n/a	wordpools/wordpool_EN.txt	JUDGE	11	19	[0, 0, 0]	n/a	FR1	1	R1336T
2042.364	0.938	2042900	WORD_OFF	n/a	n/a	JUDGE	11	19	[0, 0, 0]	n/a	FR1	1	R1336T
2043.302	1.629	2043838	WORD	n/a	wordpools/wordpool_EN.txt	BLUSH	12	19	[0, 0, 0]	n/a	FR1	1	R1336T
2044.931	0.0	2045467	WORD_OFF	n/a	n/a	BLUSH	12	19	[0, 0, 0]	n/a	FR1	1	R1336T
2044.931	0.001	2045467	ENCODING_END	n/a	n/a	n/a	-999	19	[0, 0, 0]	n/a	FR1	1	R1336T
2044.932	0.0	2045468	DISTRACT_START	n/a	n/a	n/a	-999	19	[0, 0, 0]	n/a	FR1	1	R1336T
2044.932	0.015	2045468	START	n/a	n/a	n/a	-999	19	[-999, -999, -999]	n/a	FR1	1	R1336T
2044.947	5.518	2045483	PROB	5.518	n/a	n/a	-999	19	[6, 1, 2]	9	FR1	1	R1336T
2050.465	4.318	2051001	PROB	4.318	n/a	n/a	-999	19	[8, 8, 5]	21	FR1	1	R1336T
2054.783	6.335	2055319	PROB	6.335	n/a	n/a	-999	19	[3, 4, 9]	16	FR1	1	R1336T
2061.118	10.607	2061653	PROB	10.607	n/a	n/a	-999	19	[7, 9, 7]	23	FR1	1	R1336T
2071.725	0.011	2072260	STOP	n/a	n/a	n/a	-999	19	[-999, -999, -999]	n/a	FR1	1	R1336T
2071.736	0.585	2072271	DISTRACT_END	n/a	n/a	n/a	-999	19	[0, 0, 0]	n/a	FR1	1	R1336T
2072.321	1.598	2072856	RETRIEVAL_ORIENT_START	n/a	n/a	n/a	-999	19	[0, 0, 0]	n/a	FR1	1	R1336T
2073.919	0.001	2074454	RETRIEVAL_ORIENT_END	n/a	n/a	n/a	-999	19	[0, 0, 0]	n/a	FR1	1	R1336T
2073.92	29.988	2074455	REC_START	n/a	n/a	n/a	-999	19	[0, 0, 0]	n/a	FR1	1	R1336T
2103.908	0.023	2104441	REC_WORD_VV	0.023	n/a	<>	-999	19	[0, 0, 0]	n/a	FR1	1	R1336T
2103.931	0.001	2104464	REC_END	n/a	n/a	n/a	-999	19	[0, 0, 0]	n/a	FR1	1	R1336T
2103.932	0.016	2104465	TRIAL_END	n/a	n/a	n/a	-999	19	[0, 0, 0]	n/a	FR1	1	R1336T
2103.948	0.0	2104481	WAITING_START	n/a	n/a	n/a	-999	20	[0, 0, 0]	n/a	FR1	1	R1336T
2103.948	0.0	2104481	TRIAL	n/a	n/a	n/a	-999	20	[0, 0, 0]	n/a	FR1	1	R1336T
2103.948	2.994	2104481	TRIAL_START	n/a	n/a	n/a	-999	20	[0, 0, 0]	n/a	FR1	1	R1336T
2106.942	0.001	2107475	WAITING_END	n/a	n/a	n/a	-999	20	[0, 0, 0]	n/a	FR1	1	R1336T
2106.943	10.428	2107476	COUNTDOWN_START	n/a	n/a	n/a	-999	20	[0, 0, 0]	n/a	FR1	1	R1336T
2117.371	0.001	2117904	COUNTDOWN_END	n/a	n/a	n/a	-999	20	[0, 0, 0]	n/a	FR1	1	R1336T
2117.372	1.039	2117905	ORIENT_START	n/a	n/a	n/a	-999	20	[0, 0, 0]	n/a	FR1	1	R1336T
2118.411	0.0	2118944	ORIENT_END	n/a	n/a	n/a	-999	20	[0, 0, 0]	n/a	FR1	1	R1336T
2118.411	0.935	2118944	ENCODING_START	n/a	n/a	n/a	-999	20	[0, 0, 0]	n/a	FR1	1	R1336T
2119.346	1.632	2119879	WORD	n/a	wordpools/wordpool_EN.txt	CUP	1	20	[0, 0, 0]	n/a	FR1	1	R1336T
2120.978	1.017	2121511	WORD_OFF	n/a	n/a	CUP	1	20	[0, 0, 0]	n/a	FR1	1	R1336T
2121.995	1.634	2122527	WORD	n/a	wordpools/wordpool_EN.txt	FLAME	2	20	[0, 0, 0]	n/a	FR1	1	R1336T
2123.629	0.811	2124161	WORD_OFF	n/a	n/a	FLAME	2	20	[0, 0, 0]	n/a	FR1	1	R1336T
2124.44	1.622	2124972	WORD	n/a	wordpools/wordpool_EN.txt	STAIR	3	20	[0, 0, 0]	n/a	FR1	1	R1336T
2126.062	1.002	2126594	WORD_OFF	n/a	n/a	STAIR	3	20	[0, 0, 0]	n/a	FR1	1	R1336T
2127.064	1.632	2127596	WORD	n/a	wordpools/wordpool_EN.txt	BOAT	4	20	[0, 0, 0]	n/a	FR1	1	R1336T
2128.696	1.108	2129228	WORD_OFF	n/a	n/a	BOAT	4	20	[0, 0, 0]	n/a	FR1	1	R1336T
2129.804	1.626	2130336	WORD	n/a	wordpools/wordpool_EN.txt	FACE	5	20	[0, 0, 0]	n/a	FR1	1	R1336T
2131.43	0.848	2131962	WORD_OFF	n/a	n/a	FACE	5	20	[0, 0, 0]	n/a	FR1	1	R1336T
2132.278	1.636	2132810	WORD	n/a	wordpools/wordpool_EN.txt	SWAMP	6	20	[0, 0, 0]	n/a	FR1	1	R1336T
2133.914	1.135	2134446	WORD_OFF	n/a	n/a	SWAMP	6	20	[0, 0, 0]	n/a	FR1	1	R1336T
2135.049	1.632	2135581	WORD	n/a	wordpools/wordpool_EN.txt	DEER	7	20	[0, 0, 0]	n/a	FR1	1	R1336T
2136.681	1.132	2137213	WORD_OFF	n/a	n/a	DEER	7	20	[0, 0, 0]	n/a	FR1	1	R1336T
2137.813	1.635	2138345	WORD	n/a	wordpools/wordpool_EN.txt	SHIP	8	20	[0, 0, 0]	n/a	FR1	1	R1336T
2139.448	0.931	2139980	WORD_OFF	n/a	n/a	SHIP	8	20	[0, 0, 0]	n/a	FR1	1	R1336T
2140.379	1.636	2140911	WORD	n/a	wordpools/wordpool_EN.txt	FLAG	9	20	[0, 0, 0]	n/a	FR1	1	R1336T
2142.015	1.142	2142547	WORD_OFF	n/a	n/a	FLAG	9	20	[0, 0, 0]	n/a	FR1	1	R1336T
2143.157	1.625	2143688	WORD	n/a	wordpools/wordpool_EN.txt	LEG	10	20	[0, 0, 0]	n/a	FR1	1	R1336T
2144.782	0.8	2145313	WORD_OFF	n/a	n/a	LEG	10	20	[0, 0, 0]	n/a	FR1	1	R1336T
2145.582	1.634	2146113	WORD	n/a	wordpools/wordpool_EN.txt	RICE	11	20	[0, 0, 0]	n/a	FR1	1	R1336T
2147.216	0.78	2147747	WORD_OFF	n/a	n/a	RICE	11	20	[0, 0, 0]	n/a	FR1	1	R1336T
2147.996	1.637	2148527	WORD	n/a	wordpools/wordpool_EN.txt	THUMB	12	20	[0, 0, 0]	n/a	FR1	1	R1336T
2149.633	0.001	2150164	WORD_OFF	n/a	n/a	THUMB	12	20	[0, 0, 0]	n/a	FR1	1	R1336T
2149.634	0.0	2150165	ENCODING_END	n/a	n/a	n/a	-999	20	[0, 0, 0]	n/a	FR1	1	R1336T
2149.634	0.0	2150165	DISTRACT_START	n/a	n/a	n/a	-999	20	[0, 0, 0]	n/a	FR1	1	R1336T
2149.634	0.016	2150165	START	n/a	n/a	n/a	-999	20	[-999, -999, -999]	n/a	FR1	1	R1336T
2149.65	5.934	2150181	PROB	5.934	n/a	n/a	-999	20	[4, 9, 1]	14	FR1	1	R1336T
2155.584	10.385	2156115	PROB	10.385	n/a	n/a	-999	20	[7, 9, 9]	25	FR1	1	R1336T
2165.969	10.474	2166499	PROB	10.474	n/a	n/a	-999	20	[6, 6, 5]	17	FR1	1	R1336T
2176.443	0.012	2176973	STOP	n/a	n/a	n/a	-999	20	[-999, -999, -999]	n/a	FR1	1	R1336T
2176.455	0.628	2176985	DISTRACT_END	n/a	n/a	n/a	-999	20	[0, 0, 0]	n/a	FR1	1	R1336T
2177.083	1.722	2177613	RETRIEVAL_ORIENT_START	n/a	n/a	n/a	-999	20	[0, 0, 0]	n/a	FR1	1	R1336T
2178.805	0.0	2179335	RETRIEVAL_ORIENT_END	n/a	n/a	n/a	-999	20	[0, 0, 0]	n/a	FR1	1	R1336T
2178.805	7.643	2179335	REC_START	n/a	n/a	n/a	-999	20	[0, 0, 0]	n/a	FR1	1	R1336T
2186.448	6.3	2186977	REC_WORD_VV	6.3	n/a	<>	-999	20	[0, 0, 0]	n/a	FR1	1	R1336T
2192.748	16.069	2193277	REC_WORD	16.069	n/a	DEER	7	20	[0, 0, 0]	n/a	FR1	1	R1336T
2208.817	0.0	2209345	REC_END	n/a	n/a	n/a	-999	20	[0, 0, 0]	n/a	FR1	1	R1336T
2208.817	0.017	2209345	TRIAL_END	n/a	n/a	n/a	-999	20	[0, 0, 0]	n/a	FR1	1	R1336T
2208.834	0.0	2209362	TRIAL_START	n/a	n/a	n/a	-999	21	[0, 0, 0]	n/a	FR1	1	R1336T
2208.834	0.0	2209362	TRIAL	n/a	n/a	n/a	-999	21	[0, 0, 0]	n/a	FR1	1	R1336T
2208.834	0.0	2209362	WAITING_START	n/a	n/a	n/a	-999	21	[0, 0, 0]	n/a	FR1	1	R1336T
