onset	duration	sample	trial_type	response_time	stim_file	item_name	serialpos	list	test	answer	experiment	session	subject
0.0	32.386	165963	SESS_START	n/a	n/a	n/a	-999	-999	[0, 0, 0]	n/a	FR1	1	R1098D
32.386	10.428	217777	COUNTDOWN_START	n/a	n/a	n/a	-999	-999	[0, 0, 0]	n/a	FR1	1	R1098D
42.814	3.724	234461	COUNTDOWN_END	n/a	n/a	n/a	-999	-999	[0, 0, 0]	n/a	FR1	1	R1098D
46.538	2.501	240419	PRACTICE_WORD	n/a	n/a	TONGUE	1	-1	[0, 0, 0]	n/a	FR1	1	R1098D
49.039	2.567	244420	PRACTICE_WORD	n/a	n/a	RHINO	2	-1	[0, 0, 0]	n/a	FR1	1	R1098D
51.606	2.45	248527	PRACTICE_WORD	n/a	n/a	COTTON	3	-1	[0, 0, 0]	n/a	FR1	1	R1098D
54.056	2.484	252447	PRACTICE_WORD	n/a	n/a	WATCH	4	-1	[0, 0, 0]	n/a	FR1	1	R1098D
56.54	2.567	256421	PRACTICE_WORD	n/a	n/a	ATTIC	5	-1	[0, 0, 0]	n/a	FR1	1	R1098D
59.107	2.566	260528	PRACTICE_WORD	n/a	n/a	CHEST	6	-1	[0, 0, 0]	n/a	FR1	1	R1098D
61.673	2.452	264634	PRACTICE_WORD	n/a	n/a	WAGON	7	-1	[0, 0, 0]	n/a	FR1	1	R1098D
64.125	2.583	268556	PRACTICE_WORD	n/a	n/a	RING	8	-1	[0, 0, 0]	n/a	FR1	1	R1098D
66.708	2.518	272689	PRACTICE_WORD	n/a	n/a	BEAM	9	-1	[0, 0, 0]	n/a	FR1	1	R1098D
69.226	2.482	276718	PRACTICE_WORD	n/a	n/a	IRON	10	-1	[0, 0, 0]	n/a	FR1	1	R1098D
71.708	2.385	280688	PRACTICE_WORD	n/a	n/a	CAMEL	11	-1	[0, 0, 0]	n/a	FR1	1	R1098D
74.093	1.616	284504	PRACTICE_WORD	n/a	n/a	FLOOD	12	-1	[0, 0, 0]	n/a	FR1	1	R1098D
75.709	0.001	287090	PRACTICE_DISTRACT_START	n/a	n/a	n/a	-999	-1	[0, 0, 0]	n/a	FR1	1	R1098D
75.71	0.016	287091	START	n/a	n/a	n/a	-999	-1	[-999, -999, -999]	n/a	FR1	1	R1098D
75.726	3.802	287117	PROB	3.802	n/a	n/a	-999	-1	[1, 5, 1]	7	FR1	1	R1098D
79.528	3.067	293200	PROB	3.067	n/a	n/a	-999	-1	[7, 1, 3]	11	FR1	1	R1098D
82.595	10.769	298107	PROB	10.769	n/a	n/a	-999	-1	[3, 9, 3]	15	FR1	1	R1098D
93.364	4.314	315336	PROB	4.314	n/a	n/a	-999	-1	[8, 3, 4]	15	FR1	1	R1098D
97.678	0.019	322238	STOP	n/a	n/a	n/a	-999	-1	[-999, -999, -999]	n/a	FR1	1	R1098D
97.697	0.62	322268	PRACTICE_DISTRACT_END	n/a	n/a	n/a	-999	-1	[0, 0, 0]	n/a	FR1	1	R1098D
98.317	30.513	323260	PRACTICE_REC_START	n/a	n/a	n/a	-999	-1	[0, 0, 0]	n/a	FR1	1	R1098D
128.83	14.576	372078	PRACTICE_REC_END	n/a	n/a	n/a	-999	-1	[0, 0, 0]	n/a	FR1	1	R1098D
143.406	0.0	395398	TRIAL	n/a	n/a	n/a	-999	1	[0, 0, 0]	n/a	FR1	1	R1098D
143.406	10.428	395398	COUNTDOWN_START	n/a	n/a	n/a	-999	1	[0, 0, 0]	n/a	FR1	1	R1098D
153.834	0.007	412082	COUNTDOWN_END	n/a	n/a	n/a	-999	1	[0, 0, 0]	n/a	FR1	1	R1098D
153.841	2.451	412093	ORIENT	n/a	n/a	n/a	-999	1	[0, 0, 0]	n/a	FR1	1	R1098D
156.292	2.432	416014	WORD	n/a	wordpools/wordpool_EN.txt	RAKE	1	1	[0, 0, 0]	n/a	FR1	1	R1098D
158.724	2.552	419905	WORD	n/a	wordpools/wordpool_EN.txt	SPRING	2	1	[0, 0, 0]	n/a	FR1	1	R1098D
161.276	2.584	423988	WORD	n/a	wordpools/wordpool_EN.txt	WORM	3	1	[0, 0, 0]	n/a	FR1	1	R1098D
163.86	2.583	428122	WORD	n/a	wordpools/wordpool_EN.txt	BLUSH	4	1	[0, 0, 0]	n/a	FR1	1	R1098D
166.443	2.434	432255	WORD	n/a	wordpools/wordpool_EN.txt	MOLE	5	1	[0, 0, 0]	n/a	FR1	1	R1098D
168.877	2.601	436149	WORD	n/a	wordpools/wordpool_EN.txt	ROAD	6	1	[0, 0, 0]	n/a	FR1	1	R1098D
171.478	2.483	440310	WORD	n/a	wordpools/wordpool_EN.txt	LEAF	7	1	[0, 0, 0]	n/a	FR1	1	R1098D
173.961	2.434	444283	WORD	n/a	wordpools/wordpool_EN.txt	WEB	8	1	[0, 0, 0]	n/a	FR1	1	R1098D
176.395	2.617	448177	WORD	n/a	wordpools/wordpool_EN.txt	TAIL	9	1	[0, 0, 0]	n/a	FR1	1	R1098D
179.012	2.534	452364	WORD	n/a	wordpools/wordpool_EN.txt	BUSH	10	1	[0, 0, 0]	n/a	FR1	1	R1098D
181.546	2.551	456418	WORD	n/a	wordpools/wordpool_EN.txt	FLEA	11	1	[0, 0, 0]	n/a	FR1	1	R1098D
184.097	1.615	460499	WORD	n/a	wordpools/wordpool_EN.txt	CAGE	12	1	[0, 0, 0]	n/a	FR1	1	R1098D
185.712	0.001	463083	DISTRACT_START	n/a	n/a	n/a	-999	1	[0, 0, 0]	n/a	FR1	1	R1098D
185.713	0.016	463085	START	n/a	n/a	n/a	-999	1	[-999, -999, -999]	n/a	FR1	1	R1098D
185.729	4.219	463110	PROB	4.219	n/a	n/a	-999	1	[3, 2, 7]	12	FR1	1	R1098D
189.948	3.117	469860	PROB	3.117	n/a	n/a	-999	1	[2, 2, 4]	8	FR1	1	R1098D
193.065	4.733	474847	PROB	4.733	n/a	n/a	-999	1	[8, 4, 7]	19	FR1	1	R1098D
197.798	2.917	482420	PROB	2.917	n/a	n/a	-999	1	[9, 9, 1]	19	FR1	1	R1098D
200.715	3.419	487087	PROB	3.419	n/a	n/a	-999	1	[4, 4, 2]	10	FR1	1	R1098D
204.134	2.584	492557	PROB	2.584	n/a	n/a	-999	1	[8, 9, 1]	18	FR1	1	R1098D
206.718	0.015	496691	STOP	n/a	n/a	n/a	-999	1	[-999, -999, -999]	n/a	FR1	1	R1098D
206.733	1.17	496715	DISTRACT_END	n/a	n/a	n/a	-999	1	[0, 0, 0]	n/a	FR1	1	R1098D
207.903	1.549	498587	REC_START	n/a	n/a	n/a	-999	1	[0, 0, 0]	n/a	FR1	1	R1098D
209.452	1.17	501065	REC_WORD	1.17	n/a	RAKE	-999	1	[0, 0, 0]	n/a	FR1	1	R1098D
210.622	1.829	502937	REC_WORD	1.829	n/a	SPRING	-999	1	[0, 0, 0]	n/a	FR1	1	R1098D
212.451	1.507	505863	REC_WORD	1.507	n/a	WORM	-999	1	[0, 0, 0]	n/a	FR1	1	R1098D
213.958	23.954	508274	REC_WORD	23.954	n/a	LEAF	-999	1	[0, 0, 0]	n/a	FR1	1	R1098D
237.912	2.245	546598	REC_END	n/a	n/a	n/a	-999	1	[0, 0, 0]	n/a	FR1	1	R1098D
240.157	0.0	550190	TRIAL	n/a	n/a	n/a	-999	2	[0, 0, 0]	n/a	FR1	1	R1098D
240.157	10.428	550190	COUNTDOWN_START	n/a	n/a	n/a	-999	2	[0, 0, 0]	n/a	FR1	1	R1098D
250.585	0.007	566873	COUNTDOWN_END	n/a	n/a	n/a	-999	2	[0, 0, 0]	n/a	FR1	1	R1098D
250.592	2.517	566885	ORIENT	n/a	n/a	n/a	-999	2	[0, 0, 0]	n/a	FR1	1	R1098D
253.109	2.566	570912	WORD	n/a	wordpools/wordpool_EN.txt	JUDGE	1	2	[0, 0, 0]	n/a	FR1	1	R1098D
255.675	2.535	575017	WORD	n/a	wordpools/wordpool_EN.txt	KEY	2	2	[0, 0, 0]	n/a	FR1	1	R1098D
258.21	2.417	579073	WORD	n/a	wordpools/wordpool_EN.txt	BOY	3	2	[0, 0, 0]	n/a	FR1	1	R1098D
260.627	2.551	582940	WORD	n/a	wordpools/wordpool_EN.txt	DESK	4	2	[0, 0, 0]	n/a	FR1	1	R1098D
263.178	2.467	587021	WORD	n/a	wordpools/wordpool_EN.txt	CASH	5	2	[0, 0, 0]	n/a	FR1	1	R1098D
265.645	2.45	590968	WORD	n/a	wordpools/wordpool_EN.txt	FLAG	6	2	[0, 0, 0]	n/a	FR1	1	R1098D
268.095	2.551	594888	WORD	n/a	wordpools/wordpool_EN.txt	BADGE	7	2	[0, 0, 0]	n/a	FR1	1	R1098D
270.646	2.467	598969	WORD	n/a	wordpools/wordpool_EN.txt	ROOM	8	2	[0, 0, 0]	n/a	FR1	1	R1098D
273.113	2.517	602916	WORD	n/a	wordpools/wordpool_EN.txt	CAR	9	2	[0, 0, 0]	n/a	FR1	1	R1098D
275.63	2.45	606943	WORD	n/a	wordpools/wordpool_EN.txt	SIGN	10	2	[0, 0, 0]	n/a	FR1	1	R1098D
278.08	2.568	610863	WORD	n/a	wordpools/wordpool_EN.txt	ARK	11	2	[0, 0, 0]	n/a	FR1	1	R1098D
280.648	1.617	614971	WORD	n/a	wordpools/wordpool_EN.txt	PIE	12	2	[0, 0, 0]	n/a	FR1	1	R1098D
282.265	0.0	617558	DISTRACT_START	n/a	n/a	n/a	-999	2	[0, 0, 0]	n/a	FR1	1	R1098D
282.265	0.016	617558	START	n/a	n/a	n/a	-999	2	[-999, -999, -999]	n/a	FR1	1	R1098D
282.281	4.467	617584	PROB	4.467	n/a	n/a	-999	2	[5, 1, 7]	13	FR1	1	R1098D
286.748	3.701	624731	PROB	3.701	n/a	n/a	-999	2	[3, 7, 6]	16	FR1	1	R1098D
290.449	4.434	630652	PROB	4.434	n/a	n/a	-999	2	[3, 6, 6]	15	FR1	1	R1098D
294.883	12.684	637746	PROB	12.684	n/a	n/a	-999	2	[9, 9, 6]	24	FR1	1	R1098D
307.567	0.019	658039	STOP	n/a	n/a	n/a	-999	2	[-999, -999, -999]	n/a	FR1	1	R1098D
307.586	1.067	658069	DISTRACT_END	n/a	n/a	n/a	-999	2	[0, 0, 0]	n/a	FR1	1	R1098D
308.653	1.458	659776	REC_START	n/a	n/a	n/a	-999	2	[0, 0, 0]	n/a	FR1	1	R1098D
310.111	1.123	662109	REC_WORD	1.123	n/a	JUDGE	-999	2	[0, 0, 0]	n/a	FR1	1	R1098D
311.234	1.444	663906	REC_WORD	1.444	n/a	KEY	-999	2	[0, 0, 0]	n/a	FR1	1	R1098D
312.678	4.122	666216	REC_WORD	4.122	n/a	BOY	-999	2	[0, 0, 0]	n/a	FR1	1	R1098D
316.8	2.518	672811	REC_WORD	2.518	n/a	ARK	-999	2	[0, 0, 0]	n/a	FR1	1	R1098D
319.318	19.353	676839	REC_WORD	19.353	n/a	BADGE	-999	2	[0, 0, 0]	n/a	FR1	1	R1098D
338.671	1.971	707802	REC_END	n/a	n/a	n/a	-999	2	[0, 0, 0]	n/a	FR1	1	R1098D
340.642	0.0	710955	TRIAL	n/a	n/a	n/a	-999	3	[0, 0, 0]	n/a	FR1	1	R1098D
340.642	10.428	710955	COUNTDOWN_START	n/a	n/a	n/a	-999	3	[0, 0, 0]	n/a	FR1	1	R1098D
351.07	0.007	727639	COUNTDOWN_END	n/a	n/a	n/a	-999	3	[0, 0, 0]	n/a	FR1	1	R1098D
351.077	2.55	727650	ORIENT	n/a	n/a	n/a	-999	3	[0, 0, 0]	n/a	FR1	1	R1098D
353.627	2.384	731730	WORD	n/a	wordpools/wordpool_EN.txt	TENT	1	3	[0, 0, 0]	n/a	FR1	1	R1098D
356.011	2.484	735544	WORD	n/a	wordpools/wordpool_EN.txt	STOOL	2	3	[0, 0, 0]	n/a	FR1	1	R1098D
358.495	2.467	739518	WORD	n/a	wordpools/wordpool_EN.txt	HORN	3	3	[0, 0, 0]	n/a	FR1	1	R1098D
360.962	2.484	743465	WORD	n/a	wordpools/wordpool_EN.txt	SHIRT	4	3	[0, 0, 0]	n/a	FR1	1	R1098D
363.446	2.517	747440	WORD	n/a	wordpools/wordpool_EN.txt	YARD	5	3	[0, 0, 0]	n/a	FR1	1	R1098D
365.963	2.551	751466	WORD	n/a	wordpools/wordpool_EN.txt	BOWL	6	3	[0, 0, 0]	n/a	FR1	1	R1098D
368.514	2.617	755548	WORD	n/a	wordpools/wordpool_EN.txt	SEAT	7	3	[0, 0, 0]	n/a	FR1	1	R1098D
371.131	2.417	759735	WORD	n/a	wordpools/wordpool_EN.txt	SLUSH	8	3	[0, 0, 0]	n/a	FR1	1	R1098D
373.548	2.433	763602	WORD	n/a	wordpools/wordpool_EN.txt	CHALK	9	3	[0, 0, 0]	n/a	FR1	1	R1098D
375.981	2.468	767494	WORD	n/a	wordpools/wordpool_EN.txt	PLATE	10	3	[0, 0, 0]	n/a	FR1	1	R1098D
378.449	2.533	771443	WORD	n/a	wordpools/wordpool_EN.txt	PANTS	11	3	[0, 0, 0]	n/a	FR1	1	R1098D
380.982	1.617	775495	WORD	n/a	wordpools/wordpool_EN.txt	BAND	12	3	[0, 0, 0]	n/a	FR1	1	R1098D
382.599	0.001	778082	DISTRACT_START	n/a	n/a	n/a	-999	3	[0, 0, 0]	n/a	FR1	1	R1098D
382.6	0.016	778084	START	n/a	n/a	n/a	-999	3	[-999, -999, -999]	n/a	FR1	1	R1098D
382.616	6.935	778110	PROB	6.935	n/a	n/a	-999	3	[8, 1, 5]	14	FR1	1	R1098D
389.551	2.7	789205	PROB	2.7	n/a	n/a	-999	3	[4, 4, 1]	9	FR1	1	R1098D
392.251	3.483	793525	PROB	3.483	n/a	n/a	-999	3	[8, 2, 6]	16	FR1	1	R1098D
395.734	3.202	799097	PROB	3.202	n/a	n/a	-999	3	[9, 5, 1]	15	FR1	1	R1098D
398.936	3.517	804220	PROB	3.517	n/a	n/a	-999	3	[4, 5, 1]	10	FR1	1	R1098D
402.453	3.034	809847	PROB	3.034	n/a	n/a	-999	3	[2, 2, 4]	8	FR1	1	R1098D
405.487	0.017	814701	STOP	n/a	n/a	n/a	-999	3	[-999, -999, -999]	n/a	FR1	1	R1098D
405.504	1.1	814728	DISTRACT_END	n/a	n/a	n/a	-999	3	[0, 0, 0]	n/a	FR1	1	R1098D
406.604	3.46	816488	REC_START	n/a	n/a	n/a	-999	3	[0, 0, 0]	n/a	FR1	1	R1098D
410.064	1.892	822024	REC_WORD	1.892	n/a	TENT	-999	3	[0, 0, 0]	n/a	FR1	1	R1098D
411.956	1.875	825051	REC_WORD	1.875	n/a	JUDGE	-999	3	[0, 0, 0]	n/a	FR1	1	R1098D
413.831	1.694	828050	REC_WORD	1.694	n/a	SHIRT	-999	3	[0, 0, 0]	n/a	FR1	1	R1098D
415.525	21.092	830761	REC_WORD	21.092	n/a	BOWL	-999	3	[0, 0, 0]	n/a	FR1	1	R1098D
436.617	1.893	864506	REC_END	n/a	n/a	n/a	-999	3	[0, 0, 0]	n/a	FR1	1	R1098D
438.51	0.0	867534	TRIAL	n/a	n/a	n/a	-999	4	[0, 0, 0]	n/a	FR1	1	R1098D
438.51	10.428	867534	COUNTDOWN_START	n/a	n/a	n/a	-999	4	[0, 0, 0]	n/a	FR1	1	R1098D
448.938	0.007	884218	COUNTDOWN_END	n/a	n/a	n/a	-999	4	[0, 0, 0]	n/a	FR1	1	R1098D
448.945	2.45	884229	ORIENT	n/a	n/a	n/a	-999	4	[0, 0, 0]	n/a	FR1	1	R1098D
451.395	2.617	888149	WORD	n/a	wordpools/wordpool_EN.txt	GUARD	1	4	[0, 0, 0]	n/a	FR1	1	R1098D
454.012	2.584	892336	WORD	n/a	wordpools/wordpool_EN.txt	SWAMP	2	4	[0, 0, 0]	n/a	FR1	1	R1098D
456.596	2.401	896470	WORD	n/a	wordpools/wordpool_EN.txt	STONE	3	4	[0, 0, 0]	n/a	FR1	1	R1098D
458.997	2.5	900311	WORD	n/a	wordpools/wordpool_EN.txt	DART	4	4	[0, 0, 0]	n/a	FR1	1	R1098D
461.497	2.551	904311	WORD	n/a	wordpools/wordpool_EN.txt	CALF	5	4	[0, 0, 0]	n/a	FR1	1	R1098D
464.048	2.383	908392	WORD	n/a	wordpools/wordpool_EN.txt	CAVE	6	4	[0, 0, 0]	n/a	FR1	1	R1098D
466.431	2.383	912205	WORD	n/a	wordpools/wordpool_EN.txt	CORN	7	4	[0, 0, 0]	n/a	FR1	1	R1098D
468.814	2.468	916018	WORD	n/a	wordpools/wordpool_EN.txt	PIG	8	4	[0, 0, 0]	n/a	FR1	1	R1098D
471.282	2.516	919966	WORD	n/a	wordpools/wordpool_EN.txt	CLAY	9	4	[0, 0, 0]	n/a	FR1	1	R1098D
473.798	2.469	923992	WORD	n/a	wordpools/wordpool_EN.txt	DEER	10	4	[0, 0, 0]	n/a	FR1	1	R1098D
476.267	2.416	927942	WORD	n/a	wordpools/wordpool_EN.txt	DITCH	11	4	[0, 0, 0]	n/a	FR1	1	R1098D
478.683	1.618	931807	WORD	n/a	wordpools/wordpool_EN.txt	SPEAR	12	4	[0, 0, 0]	n/a	FR1	1	R1098D
480.301	0.0	934396	DISTRACT_START	n/a	n/a	n/a	-999	4	[0, 0, 0]	n/a	FR1	1	R1098D
480.301	0.016	934396	START	n/a	n/a	n/a	-999	4	[-999, -999, -999]	n/a	FR1	1	R1098D
480.317	1141.122	934421	PROB	1141.122	n/a	n/a	-999	4	[4, 4, 6]	14	FR1	1	R1098D
1621.439	0.019	2760100	STOP	n/a	n/a	n/a	-999	4	[-999, -999, -999]	n/a	FR1	1	R1098D
1621.458	1.151	2760130	DISTRACT_END	n/a	n/a	n/a	-999	4	[0, 0, 0]	n/a	FR1	1	R1098D
1622.609	30.0	2761972	REC_START	n/a	n/a	n/a	-999	4	[0, 0, 0]	n/a	FR1	1	R1098D
1652.609	0.01	2809969	REC_WORD_VV	0.01	n/a	<>	-999	4	[0, 0, 0]	n/a	FR1	1	R1098D
1652.619	28.317	2809985	REC_END	n/a	n/a	n/a	-999	4	[0, 0, 0]	n/a	FR1	1	R1098D
1680.936	0.0	2855289	TRIAL	n/a	n/a	n/a	-999	5	[0, 0, 0]	n/a	FR1	1	R1098D
1680.936	10.428	2855289	COUNTDOWN_START	n/a	n/a	n/a	-999	5	[0, 0, 0]	n/a	FR1	1	R1098D
1691.364	0.007	2871973	COUNTDOWN_END	n/a	n/a	n/a	-999	5	[0, 0, 0]	n/a	FR1	1	R1098D
1691.371	2.416	2871984	ORIENT	n/a	n/a	n/a	-999	5	[0, 0, 0]	n/a	FR1	1	R1098D
1693.787	2.452	2875850	WORD	n/a	wordpools/wordpool_EN.txt	SUN	1	5	[0, 0, 0]	n/a	FR1	1	R1098D
1696.239	2.466	2879772	WORD	n/a	wordpools/wordpool_EN.txt	CAPE	2	5	[0, 0, 0]	n/a	FR1	1	R1098D
1698.705	2.401	2883718	WORD	n/a	wordpools/wordpool_EN.txt	BATH	3	5	[0, 0, 0]	n/a	FR1	1	R1098D
1701.106	2.384	2887559	WORD	n/a	wordpools/wordpool_EN.txt	SAIL	4	5	[0, 0, 0]	n/a	FR1	1	R1098D
1703.49	2.5	2891373	WORD	n/a	wordpools/wordpool_EN.txt	LEG	5	5	[0, 0, 0]	n/a	FR1	1	R1098D
1705.99	2.384	2895373	WORD	n/a	wordpools/wordpool_EN.txt	ROSE	6	5	[0, 0, 0]	n/a	FR1	1	R1098D
1708.374	2.601	2899187	WORD	n/a	wordpools/wordpool_EN.txt	RUG	7	5	[0, 0, 0]	n/a	FR1	1	R1098D
1710.975	2.517	2903349	WORD	n/a	wordpools/wordpool_EN.txt	MOOSE	8	5	[0, 0, 0]	n/a	FR1	1	R1098D
1713.492	2.617	2907376	WORD	n/a	wordpools/wordpool_EN.txt	BOAT	9	5	[0, 0, 0]	n/a	FR1	1	R1098D
1716.109	2.566	2911562	WORD	n/a	wordpools/wordpool_EN.txt	ICE	10	5	[0, 0, 0]	n/a	FR1	1	R1098D
1718.675	2.601	2915668	WORD	n/a	wordpools/wordpool_EN.txt	CAKE	11	5	[0, 0, 0]	n/a	FR1	1	R1098D
1721.276	1.617	2919829	WORD	n/a	wordpools/wordpool_EN.txt	FENCE	12	5	[0, 0, 0]	n/a	FR1	1	R1098D
1722.893	0.001	2922416	DISTRACT_START	n/a	n/a	n/a	-999	5	[0, 0, 0]	n/a	FR1	1	R1098D
1722.894	0.016	2922418	START	n/a	n/a	n/a	-999	5	[-999, -999, -999]	n/a	FR1	1	R1098D
1722.91	11.152	2922443	PROB	11.152	n/a	n/a	-999	5	[6, 5, 7]	18	FR1	1	R1098D
1734.062	3.633	2940285	PROB	3.633	n/a	n/a	-999	5	[7, 1, 4]	12	FR1	1	R1098D
1737.695	3.569	2946098	PROB	3.569	n/a	n/a	-999	5	[1, 8, 6]	15	FR1	1	R1098D
1741.264	9.175	2951808	PROB	9.175	n/a	n/a	-999	5	[7, 9, 2]	19	FR1	1	R1098D
1750.439	0.01	2966487	STOP	n/a	n/a	n/a	-999	5	[-999, -999, -999]	n/a	FR1	1	R1098D
1750.449	1.117	2966503	DISTRACT_END	n/a	n/a	n/a	-999	5	[0, 0, 0]	n/a	FR1	1	R1098D
1751.566	1.542	2968290	REC_START	n/a	n/a	n/a	-999	5	[0, 0, 0]	n/a	FR1	1	R1098D
1753.108	1.38	2970757	REC_WORD	1.38	n/a	SUN	-999	5	[0, 0, 0]	n/a	FR1	1	R1098D
1754.488	1.349	2972965	REC_WORD	1.349	n/a	SAIL	-999	5	[0, 0, 0]	n/a	FR1	1	R1098D
1755.837	25.739	2975123	REC_WORD	25.739	n/a	ROSE	-999	5	[0, 0, 0]	n/a	FR1	1	R1098D
1781.576	3.045	3016303	REC_END	n/a	n/a	n/a	-999	5	[0, 0, 0]	n/a	FR1	1	R1098D
1784.621	0.001	3021175	COUNTDOWN_START	n/a	n/a	n/a	-999	6	[0, 0, 0]	n/a	FR1	1	R1098D
1784.622	10.427	3021176	TRIAL	n/a	n/a	n/a	-999	6	[0, 0, 0]	n/a	FR1	1	R1098D
1795.049	0.008	3037858	COUNTDOWN_END	n/a	n/a	n/a	-999	6	[0, 0, 0]	n/a	FR1	1	R1098D
1795.057	2.583	3037871	ORIENT	n/a	n/a	n/a	-999	6	[0, 0, 0]	n/a	FR1	1	R1098D
1797.64	2.551	3042004	WORD	n/a	wordpools/wordpool_EN.txt	FLAME	1	6	[0, 0, 0]	n/a	FR1	1	R1098D
1800.191	2.417	3046085	WORD	n/a	wordpools/wordpool_EN.txt	SKI	2	6	[0, 0, 0]	n/a	FR1	1	R1098D
1802.608	2.417	3049952	WORD	n/a	wordpools/wordpool_EN.txt	PIN	3	6	[0, 0, 0]	n/a	FR1	1	R1098D
1805.025	2.501	3053819	WORD	n/a	wordpools/wordpool_EN.txt	APE	4	6	[0, 0, 0]	n/a	FR1	1	R1098D
1807.526	2.583	3057820	WORD	n/a	wordpools/wordpool_EN.txt	WAVE	5	6	[0, 0, 0]	n/a	FR1	1	R1098D
1810.109	2.501	3061953	WORD	n/a	wordpools/wordpool_EN.txt	BROOM	6	6	[0, 0, 0]	n/a	FR1	1	R1098D
1812.61	2.584	3065954	WORD	n/a	wordpools/wordpool_EN.txt	FUR	7	6	[0, 0, 0]	n/a	FR1	1	R1098D
1815.194	2.433	3070088	WORD	n/a	wordpools/wordpool_EN.txt	SNOW	8	6	[0, 0, 0]	n/a	FR1	1	R1098D
1817.627	2.434	3073981	WORD	n/a	wordpools/wordpool_EN.txt	FOG	9	6	[0, 0, 0]	n/a	FR1	1	R1098D
1820.061	2.567	3077875	WORD	n/a	wordpools/wordpool_EN.txt	BEACH	10	6	[0, 0, 0]	n/a	FR1	1	R1098D
1822.628	2.584	3081982	WORD	n/a	wordpools/wordpool_EN.txt	DRUM	11	6	[0, 0, 0]	n/a	FR1	1	R1098D
1825.212	1.616	3086116	WORD	n/a	wordpools/wordpool_EN.txt	LIP	12	6	[0, 0, 0]	n/a	FR1	1	R1098D
1826.828	0.001	3088702	DISTRACT_START	n/a	n/a	n/a	-999	6	[0, 0, 0]	n/a	FR1	1	R1098D
1826.829	0.017	3088703	START	n/a	n/a	n/a	-999	6	[-999, -999, -999]	n/a	FR1	1	R1098D
1826.846	10.418	3088730	PROB	10.418	n/a	n/a	-999	6	[9, 2, 5]	16	FR1	1	R1098D
1837.264	3.118	3105398	PROB	3.118	n/a	n/a	-999	6	[1, 9, 6]	16	FR1	1	R1098D
1840.382	5.251	3110387	PROB	5.251	n/a	n/a	-999	6	[5, 8, 6]	19	FR1	1	R1098D
1845.633	3.262	3118788	PROB	3.262	n/a	n/a	-999	6	[5, 9, 4]	18	FR1	1	R1098D
1848.895	0.004	3124007	STOP	n/a	n/a	n/a	-999	6	[-999, -999, -999]	n/a	FR1	1	R1098D
1848.899	1.035	3124013	DISTRACT_END	n/a	n/a	n/a	-999	6	[0, 0, 0]	n/a	FR1	1	R1098D
1849.934	1.576	3125669	REC_START	n/a	n/a	n/a	-999	6	[0, 0, 0]	n/a	FR1	1	R1098D
1851.51	1.346	3128190	REC_WORD	1.346	n/a	SUN	-999	6	[0, 0, 0]	n/a	FR1	1	R1098D
1852.856	1.054	3130344	REC_WORD	1.054	n/a	SAIL	-999	6	[0, 0, 0]	n/a	FR1	1	R1098D
1853.91	26.034	3132030	REC_WORD	26.034	n/a	SKI	-999	6	[0, 0, 0]	n/a	FR1	1	R1098D
1879.944	2.295	3173682	REC_END	n/a	n/a	n/a	-999	6	[0, 0, 0]	n/a	FR1	1	R1098D
1882.239	0.001	3177354	COUNTDOWN_START	n/a	n/a	n/a	-999	7	[0, 0, 0]	n/a	FR1	1	R1098D
1882.24	10.427	3177355	TRIAL	n/a	n/a	n/a	-999	7	[0, 0, 0]	n/a	FR1	1	R1098D
1892.667	0.006	3194037	COUNTDOWN_END	n/a	n/a	n/a	-999	7	[0, 0, 0]	n/a	FR1	1	R1098D
1892.673	2.452	3194047	ORIENT	n/a	n/a	n/a	-999	7	[0, 0, 0]	n/a	FR1	1	R1098D
1895.125	2.5	3197970	WORD	n/a	wordpools/wordpool_EN.txt	HAWK	1	7	[0, 0, 0]	n/a	FR1	1	R1098D
1897.625	2.384	3201970	WORD	n/a	wordpools/wordpool_EN.txt	MAIL	2	7	[0, 0, 0]	n/a	FR1	1	R1098D
1900.009	2.417	3205784	WORD	n/a	wordpools/wordpool_EN.txt	BOOK	3	7	[0, 0, 0]	n/a	FR1	1	R1098D
1902.426	2.434	3209651	WORD	n/a	wordpools/wordpool_EN.txt	STORE	4	7	[0, 0, 0]	n/a	FR1	1	R1098D
1904.86	2.617	3213545	WORD	n/a	wordpools/wordpool_EN.txt	HORSE	5	7	[0, 0, 0]	n/a	FR1	1	R1098D
1907.477	2.484	3217732	WORD	n/a	wordpools/wordpool_EN.txt	CORD	6	7	[0, 0, 0]	n/a	FR1	1	R1098D
1909.961	2.567	3221706	WORD	n/a	wordpools/wordpool_EN.txt	BAT	7	7	[0, 0, 0]	n/a	FR1	1	R1098D
1912.528	2.384	3225813	WORD	n/a	wordpools/wordpool_EN.txt	PEA	8	7	[0, 0, 0]	n/a	FR1	1	R1098D
1914.912	2.467	3229627	WORD	n/a	wordpools/wordpool_EN.txt	JET	9	7	[0, 0, 0]	n/a	FR1	1	R1098D
1917.379	2.5	3233574	WORD	n/a	wordpools/wordpool_EN.txt	JAIL	10	7	[0, 0, 0]	n/a	FR1	1	R1098D
1919.879	2.517	3237574	WORD	n/a	wordpools/wordpool_EN.txt	TOOL	11	7	[0, 0, 0]	n/a	FR1	1	R1098D
1922.396	1.601	3241601	WORD	n/a	wordpools/wordpool_EN.txt	SHEET	12	7	[0, 0, 0]	n/a	FR1	1	R1098D
1923.997	0.001	3244162	DISTRACT_START	n/a	n/a	n/a	-999	7	[0, 0, 0]	n/a	FR1	1	R1098D
1923.998	0.016	3244164	START	n/a	n/a	n/a	-999	7	[-999, -999, -999]	n/a	FR1	1	R1098D
1924.014	3.65	3244189	PROB	3.65	n/a	n/a	-999	7	[1, 5, 3]	9	FR1	1	R1098D
1927.664	1.984	3250029	PROB	1.984	n/a	n/a	-999	7	[5, 1, 1]	7	FR1	1	R1098D
1929.648	3.033	3253203	PROB	3.033	n/a	n/a	-999	7	[8, 4, 2]	14	FR1	1	R1098D
1932.681	3.351	3258056	PROB	3.351	n/a	n/a	-999	7	[4, 7, 3]	14	FR1	1	R1098D
1936.032	3.334	3263417	PROB	3.334	n/a	n/a	-999	7	[9, 3, 1]	13	FR1	1	R1098D
1939.366	4.084	3268751	PROB	4.084	n/a	n/a	-999	7	[3, 6, 5]	14	FR1	1	R1098D
1943.45	4.005	3275285	PROB	4.005	n/a	n/a	-999	7	[2, 5, 8]	15	FR1	1	R1098D
1947.455	0.013	3281692	STOP	n/a	n/a	n/a	-999	7	[-999, -999, -999]	n/a	FR1	1	R1098D
1947.468	1.167	3281713	DISTRACT_END	n/a	n/a	n/a	-999	7	[0, 0, 0]	n/a	FR1	1	R1098D
1948.635	1.124	3283580	REC_START	n/a	n/a	n/a	-999	7	[0, 0, 0]	n/a	FR1	1	R1098D
1949.759	1.061	3285379	REC_WORD	1.061	n/a	HAWK	-999	7	[0, 0, 0]	n/a	FR1	1	R1098D
1950.82	1.0	3287076	REC_WORD	1.0	n/a	MAIL	-999	7	[0, 0, 0]	n/a	FR1	1	R1098D
1951.82	26.829	3288676	REC_WORD	26.829	n/a	HORSE	-999	7	[0, 0, 0]	n/a	FR1	1	R1098D
1978.649	2.358	3331600	REC_END	n/a	n/a	n/a	-999	7	[0, 0, 0]	n/a	FR1	1	R1098D
1981.007	0.0	3335372	TRIAL	n/a	n/a	n/a	-999	8	[0, 0, 0]	n/a	FR1	1	R1098D
1981.007	10.428	3335372	COUNTDOWN_START	n/a	n/a	n/a	-999	8	[0, 0, 0]	n/a	FR1	1	R1098D
1991.435	0.008	3352056	COUNTDOWN_END	n/a	n/a	n/a	-999	8	[0, 0, 0]	n/a	FR1	1	R1098D
1991.443	2.533	3352069	ORIENT	n/a	n/a	n/a	-999	8	[0, 0, 0]	n/a	FR1	1	R1098D
1993.976	2.501	3356121	WORD	n/a	wordpools/wordpool_EN.txt	DRESS	1	8	[0, 0, 0]	n/a	FR1	1	R1098D
1996.477	2.6	3360123	WORD	n/a	wordpools/wordpool_EN.txt	LAWN	2	8	[0, 0, 0]	n/a	FR1	1	R1098D
1999.077	2.501	3364282	WORD	n/a	wordpools/wordpool_EN.txt	BARN	3	8	[0, 0, 0]	n/a	FR1	1	R1098D
2001.578	2.616	3368284	WORD	n/a	wordpools/wordpool_EN.txt	SCHOOL	4	8	[0, 0, 0]	n/a	FR1	1	R1098D
2004.194	2.385	3372469	WORD	n/a	wordpools/wordpool_EN.txt	VEST	5	8	[0, 0, 0]	n/a	FR1	1	R1098D
2006.579	2.467	3376285	WORD	n/a	wordpools/wordpool_EN.txt	MUD	6	8	[0, 0, 0]	n/a	FR1	1	R1098D
2009.046	2.617	3380232	WORD	n/a	wordpools/wordpool_EN.txt	ROOF	7	8	[0, 0, 0]	n/a	FR1	1	R1098D
2011.663	2.6	3384419	WORD	n/a	wordpools/wordpool_EN.txt	NOSE	8	8	[0, 0, 0]	n/a	FR1	1	R1098D
2014.263	2.584	3388578	WORD	n/a	wordpools/wordpool_EN.txt	FACE	9	8	[0, 0, 0]	n/a	FR1	1	R1098D
2016.847	2.451	3392713	WORD	n/a	wordpools/wordpool_EN.txt	STREET	10	8	[0, 0, 0]	n/a	FR1	1	R1098D
2019.298	2.399	3396634	WORD	n/a	wordpools/wordpool_EN.txt	SHARK	11	8	[0, 0, 0]	n/a	FR1	1	R1098D
2021.697	1.618	3400472	WORD	n/a	wordpools/wordpool_EN.txt	CHEEK	12	8	[0, 0, 0]	n/a	FR1	1	R1098D
2023.315	0.001	3403061	DISTRACT_START	n/a	n/a	n/a	-999	8	[0, 0, 0]	n/a	FR1	1	R1098D
2023.316	0.016	3403062	START	n/a	n/a	n/a	-999	8	[-999, -999, -999]	n/a	FR1	1	R1098D
2023.332	4.034	3403088	PROB	4.034	n/a	n/a	-999	8	[4, 3, 5]	12	FR1	1	R1098D
2027.366	2.784	3409542	PROB	2.784	n/a	n/a	-999	8	[2, 1, 3]	6	FR1	1	R1098D
2030.15	2.717	3413996	PROB	2.717	n/a	n/a	-999	8	[2, 2, 3]	7	FR1	1	R1098D
2032.867	3.284	3418343	PROB	3.284	n/a	n/a	-999	8	[6, 8, 3]	17	FR1	1	R1098D
2036.151	6.451	3423597	PROB	6.451	n/a	n/a	-999	8	[3, 9, 8]	20	FR1	1	R1098D
2042.602	2.373	3433918	PROB	2.373	n/a	n/a	-999	8	[1, 3, 2]	6	FR1	1	R1098D
2044.975	0.011	3437715	STOP	n/a	n/a	n/a	-999	8	[-999, -999, -999]	n/a	FR1	1	R1098D
2044.986	1.05	3437732	DISTRACT_END	n/a	n/a	n/a	-999	8	[0, 0, 0]	n/a	FR1	1	R1098D
2046.036	0.81	3439412	REC_START	n/a	n/a	n/a	-999	8	[0, 0, 0]	n/a	FR1	1	R1098D
2046.846	1.334	3440708	REC_WORD	1.334	n/a	DRESS	-999	8	[0, 0, 0]	n/a	FR1	1	R1098D
2048.18	1.055	3442842	REC_WORD	1.055	n/a	BARN	-999	8	[0, 0, 0]	n/a	FR1	1	R1098D
2049.235	1.325	3444530	REC_WORD	1.325	n/a	FACE	-999	8	[0, 0, 0]	n/a	FR1	1	R1098D
2050.56	25.49	3446650	REC_WORD	25.49	n/a	NOSE	-999	8	[0, 0, 0]	n/a	FR1	1	R1098D
2076.05	2.158	3487431	REC_END	n/a	n/a	n/a	-999	8	[0, 0, 0]	n/a	FR1	1	R1098D
2078.208	0.001	3490884	COUNTDOWN_START	n/a	n/a	n/a	-999	9	[0, 0, 0]	n/a	FR1	1	R1098D
2078.209	10.427	3490886	TRIAL	n/a	n/a	n/a	-999	9	[0, 0, 0]	n/a	FR1	1	R1098D
2088.636	0.008	3507568	COUNTDOWN_END	n/a	n/a	n/a	-999	9	[0, 0, 0]	n/a	FR1	1	R1098D
2088.644	2.5	3507580	ORIENT	n/a	n/a	n/a	-999	9	[0, 0, 0]	n/a	FR1	1	R1098D
2091.144	2.533	3511580	WORD	n/a	wordpools/wordpool_EN.txt	MOUTH	1	9	[0, 0, 0]	n/a	FR1	1	R1098D
2093.677	2.535	3515633	WORD	n/a	wordpools/wordpool_EN.txt	DOLL	2	9	[0, 0, 0]	n/a	FR1	1	R1098D
2096.212	2.515	3519688	WORD	n/a	wordpools/wordpool_EN.txt	SEAL	3	9	[0, 0, 0]	n/a	FR1	1	R1098D
2098.727	2.569	3523712	WORD	n/a	wordpools/wordpool_EN.txt	WEED	4	9	[0, 0, 0]	n/a	FR1	1	R1098D
2101.296	2.533	3527822	WORD	n/a	wordpools/wordpool_EN.txt	CLOWN	5	9	[0, 0, 0]	n/a	FR1	1	R1098D
2103.829	2.534	3531875	WORD	n/a	wordpools/wordpool_EN.txt	TIE	6	9	[0, 0, 0]	n/a	FR1	1	R1098D
2106.363	2.534	3535929	WORD	n/a	wordpools/wordpool_EN.txt	PET	7	9	[0, 0, 0]	n/a	FR1	1	R1098D
2108.897	2.434	3539983	WORD	n/a	wordpools/wordpool_EN.txt	CLOTH	8	9	[0, 0, 0]	n/a	FR1	1	R1098D
2111.331	2.534	3543877	WORD	n/a	wordpools/wordpool_EN.txt	FAN	9	9	[0, 0, 0]	n/a	FR1	1	R1098D
2113.865	2.484	3547931	WORD	n/a	wordpools/wordpool_EN.txt	WOLF	10	9	[0, 0, 0]	n/a	FR1	1	R1098D
2116.349	2.517	3551906	WORD	n/a	wordpools/wordpool_EN.txt	RAT	11	9	[0, 0, 0]	n/a	FR1	1	R1098D
2118.866	1.617	3555933	WORD	n/a	wordpools/wordpool_EN.txt	SOCK	12	9	[0, 0, 0]	n/a	FR1	1	R1098D
2120.483	0.001	3558520	DISTRACT_START	n/a	n/a	n/a	-999	9	[0, 0, 0]	n/a	FR1	1	R1098D
2120.484	0.015	3558521	START	n/a	n/a	n/a	-999	9	[-999, -999, -999]	n/a	FR1	1	R1098D
2120.499	5.018	3558545	PROB	5.018	n/a	n/a	-999	9	[9, 1, 6]	16	FR1	1	R1098D
2125.517	3.216	3566573	PROB	3.216	n/a	n/a	-999	9	[3, 3, 1]	7	FR1	1	R1098D
2128.733	2.835	3571719	PROB	2.835	n/a	n/a	-999	9	[3, 2, 1]	6	FR1	1	R1098D
2131.568	3.084	3576254	PROB	3.084	n/a	n/a	-999	9	[6, 3, 9]	18	FR1	1	R1098D
2134.652	5.634	3581189	PROB	5.634	n/a	n/a	-999	9	[5, 4, 2]	11	FR1	1	R1098D
2140.286	2.536	3590202	PROB	2.536	n/a	n/a	-999	9	[3, 5, 1]	9	FR1	1	R1098D
2142.822	0.015	3594260	STOP	n/a	n/a	n/a	-999	9	[-999, -999, -999]	n/a	FR1	1	R1098D
2142.837	1.034	3594284	DISTRACT_END	n/a	n/a	n/a	-999	9	[0, 0, 0]	n/a	FR1	1	R1098D
2143.871	1.127	3595938	REC_START	n/a	n/a	n/a	-999	9	[0, 0, 0]	n/a	FR1	1	R1098D
2144.998	1.141	3597741	REC_WORD	1.141	n/a	DRESS	-999	9	[0, 0, 0]	n/a	FR1	1	R1098D
2146.139	1.045	3599567	REC_WORD	1.045	n/a	BARN	-999	9	[0, 0, 0]	n/a	FR1	1	R1098D
2147.184	4.188	3601238	REC_WORD	4.188	n/a	MOUTH	-999	9	[0, 0, 0]	n/a	FR1	1	R1098D
2151.372	22.51	3607939	REC_WORD	22.51	n/a	CLOWN	-999	9	[0, 0, 0]	n/a	FR1	1	R1098D
2173.882	2.028	3643953	REC_END	n/a	n/a	n/a	-999	9	[0, 0, 0]	n/a	FR1	1	R1098D
2175.91	0.0	3647197	TRIAL	n/a	n/a	n/a	-999	10	[0, 0, 0]	n/a	FR1	1	R1098D
2175.91	10.428	3647197	COUNTDOWN_START	n/a	n/a	n/a	-999	10	[0, 0, 0]	n/a	FR1	1	R1098D
2186.338	0.007	3663881	COUNTDOWN_END	n/a	n/a	n/a	-999	10	[0, 0, 0]	n/a	FR1	1	R1098D
2186.345	2.449	3663892	ORIENT	n/a	n/a	n/a	-999	10	[0, 0, 0]	n/a	FR1	1	R1098D
2188.794	2.435	3667810	WORD	n/a	wordpools/wordpool_EN.txt	HOLE	1	10	[0, 0, 0]	n/a	FR1	1	R1098D
2191.229	2.516	3671706	WORD	n/a	wordpools/wordpool_EN.txt	BED	2	10	[0, 0, 0]	n/a	FR1	1	R1098D
2193.745	2.451	3675731	WORD	n/a	wordpools/wordpool_EN.txt	TRAIN	3	10	[0, 0, 0]	n/a	FR1	1	R1098D
2196.196	2.434	3679653	WORD	n/a	wordpools/wordpool_EN.txt	CART	4	10	[0, 0, 0]	n/a	FR1	1	R1098D
2198.63	2.601	3683547	WORD	n/a	wordpools/wordpool_EN.txt	MAT	5	10	[0, 0, 0]	n/a	FR1	1	R1098D
2201.231	2.4	3687708	WORD	n/a	wordpools/wordpool_EN.txt	MAZE	6	10	[0, 0, 0]	n/a	FR1	1	R1098D
2203.631	2.401	3691548	WORD	n/a	wordpools/wordpool_EN.txt	HAT	7	10	[0, 0, 0]	n/a	FR1	1	R1098D
2206.032	2.433	3695389	WORD	n/a	wordpools/wordpool_EN.txt	PARK	8	10	[0, 0, 0]	n/a	FR1	1	R1098D
2208.465	2.584	3699282	WORD	n/a	wordpools/wordpool_EN.txt	TRUCK	9	10	[0, 0, 0]	n/a	FR1	1	R1098D
2211.049	2.451	3703416	WORD	n/a	wordpools/wordpool_EN.txt	SQUARE	10	10	[0, 0, 0]	n/a	FR1	1	R1098D
2213.5	2.634	3707337	WORD	n/a	wordpools/wordpool_EN.txt	PRINCE	11	10	[0, 0, 0]	n/a	FR1	1	R1098D
2216.134	1.616	3711551	WORD	n/a	wordpools/wordpool_EN.txt	HOOF	12	10	[0, 0, 0]	n/a	FR1	1	R1098D
2217.75	0.0	3714137	DISTRACT_START	n/a	n/a	n/a	-999	10	[0, 0, 0]	n/a	FR1	1	R1098D
2217.75	0.016	3714137	START	n/a	n/a	n/a	-999	10	[-999, -999, -999]	n/a	FR1	1	R1098D
2217.766	5.336	3714162	PROB	5.336	n/a	n/a	-999	10	[3, 3, 7]	13	FR1	1	R1098D
2223.102	3.1	3722700	PROB	3.1	n/a	n/a	-999	10	[7, 5, 5]	17	FR1	1	R1098D
2226.202	2.817	3727659	PROB	2.817	n/a	n/a	-999	10	[2, 8, 6]	16	FR1	1	R1098D
2229.019	4.834	3732166	PROB	4.834	n/a	n/a	-999	10	[9, 3, 9]	21	FR1	1	R1098D
2233.853	25.37	3739900	PROB	25.37	n/a	n/a	-999	10	[7, 8, 9]	24	FR1	1	R1098D
2259.223	0.018	3780489	STOP	n/a	n/a	n/a	-999	10	[-999, -999, -999]	n/a	FR1	1	R1098D
2259.241	1.051	3780518	DISTRACT_END	n/a	n/a	n/a	-999	10	[0, 0, 0]	n/a	FR1	1	R1098D
2260.292	2.853	3782200	REC_START	n/a	n/a	n/a	-999	10	[0, 0, 0]	n/a	FR1	1	R1098D
2263.145	1.449	3786764	REC_WORD	1.449	n/a	HOLE	-999	10	[0, 0, 0]	n/a	FR1	1	R1098D
2264.594	1.429	3789083	REC_WORD	1.429	n/a	TRAIN	-999	10	[0, 0, 0]	n/a	FR1	1	R1098D
2266.023	24.283	3791369	REC_WORD	24.283	n/a	BED	-999	10	[0, 0, 0]	n/a	FR1	1	R1098D
2290.306	2.192	3830219	REC_END	n/a	n/a	n/a	-999	10	[0, 0, 0]	n/a	FR1	1	R1098D
2292.498	0.0	3833726	TRIAL	n/a	n/a	n/a	-999	11	[0, 0, 0]	n/a	FR1	1	R1098D
2292.498	10.428	3833726	COUNTDOWN_START	n/a	n/a	n/a	-999	11	[0, 0, 0]	n/a	FR1	1	R1098D
2302.926	0.007	3850410	COUNTDOWN_END	n/a	n/a	n/a	-999	11	[0, 0, 0]	n/a	FR1	1	R1098D
2302.933	2.6	3850421	ORIENT	n/a	n/a	n/a	-999	11	[0, 0, 0]	n/a	FR1	1	R1098D
2305.533	2.517	3854581	WORD	n/a	wordpools/wordpool_EN.txt	SOAP	1	11	[0, 0, 0]	n/a	FR1	1	R1098D
2308.05	2.418	3858608	WORD	n/a	wordpools/wordpool_EN.txt	PALM	2	11	[0, 0, 0]	n/a	FR1	1	R1098D
2310.468	2.4	3862476	WORD	n/a	wordpools/wordpool_EN.txt	CANE	3	11	[0, 0, 0]	n/a	FR1	1	R1098D
2312.868	2.6	3866316	WORD	n/a	wordpools/wordpool_EN.txt	JAR	4	11	[0, 0, 0]	n/a	FR1	1	R1098D
2315.468	2.434	3870476	WORD	n/a	wordpools/wordpool_EN.txt	POOL	5	11	[0, 0, 0]	n/a	FR1	1	R1098D
2317.902	2.601	3874370	WORD	n/a	wordpools/wordpool_EN.txt	TOAST	6	11	[0, 0, 0]	n/a	FR1	1	R1098D
2320.503	2.567	3878531	WORD	n/a	wordpools/wordpool_EN.txt	VASE	7	11	[0, 0, 0]	n/a	FR1	1	R1098D
2323.07	2.633	3882638	WORD	n/a	wordpools/wordpool_EN.txt	TRAY	8	11	[0, 0, 0]	n/a	FR1	1	R1098D
2325.703	2.534	3886851	WORD	n/a	wordpools/wordpool_EN.txt	COUCH	9	11	[0, 0, 0]	n/a	FR1	1	R1098D
2328.237	2.433	3890905	WORD	n/a	wordpools/wordpool_EN.txt	HOUSE	10	11	[0, 0, 0]	n/a	FR1	1	R1098D
2330.67	2.418	3894797	WORD	n/a	wordpools/wordpool_EN.txt	CUBE	11	11	[0, 0, 0]	n/a	FR1	1	R1098D
2333.088	1.616	3898666	WORD	n/a	wordpools/wordpool_EN.txt	VAN	12	11	[0, 0, 0]	n/a	FR1	1	R1098D
2334.704	0.001	3901251	DISTRACT_START	n/a	n/a	n/a	-999	11	[0, 0, 0]	n/a	FR1	1	R1098D
2334.705	0.016	3901253	START	n/a	n/a	n/a	-999	11	[-999, -999, -999]	n/a	FR1	1	R1098D
2334.721	4.535	3901279	PROB	4.535	n/a	n/a	-999	11	[1, 8, 6]	15	FR1	1	R1098D
2339.256	2.651	3908534	PROB	2.651	n/a	n/a	-999	11	[1, 5, 2]	8	FR1	1	R1098D
2341.907	3.25	3912775	PROB	3.25	n/a	n/a	-999	11	[2, 2, 3]	7	FR1	1	R1098D
2345.157	7.118	3917975	PROB	7.118	n/a	n/a	-999	11	[9, 5, 8]	22	FR1	1	R1098D
2352.275	2.996	3929363	PROB	2.996	n/a	n/a	-999	11	[3, 8, 9]	20	FR1	1	R1098D
2355.271	0.004	3934156	STOP	n/a	n/a	n/a	-999	11	[-999, -999, -999]	n/a	FR1	1	R1098D
2355.275	1.185	3934163	DISTRACT_END	n/a	n/a	n/a	-999	11	[0, 0, 0]	n/a	FR1	1	R1098D
2356.46	0.552	3936059	REC_START	n/a	n/a	n/a	-999	11	[0, 0, 0]	n/a	FR1	1	R1098D
2357.012	0.836	3936942	REC_WORD	0.836	n/a	SOAP	-999	11	[0, 0, 0]	n/a	FR1	1	R1098D
2357.848	0.927	3938279	REC_WORD	0.927	n/a	PALM	-999	11	[0, 0, 0]	n/a	FR1	1	R1098D
2358.775	27.695	3939763	REC_WORD	27.695	n/a	CANE	-999	11	[0, 0, 0]	n/a	FR1	1	R1098D
2386.47	1.862	3984072	REC_END	n/a	n/a	n/a	-999	11	[0, 0, 0]	n/a	FR1	1	R1098D
2388.332	0.0	3987051	TRIAL	n/a	n/a	n/a	-999	12	[0, 0, 0]	n/a	FR1	1	R1098D
2388.332	10.428	3987051	COUNTDOWN_START	n/a	n/a	n/a	-999	12	[0, 0, 0]	n/a	FR1	1	R1098D
2398.76	0.006	4003734	COUNTDOWN_END	n/a	n/a	n/a	-999	12	[0, 0, 0]	n/a	FR1	1	R1098D
2398.766	2.551	4003744	ORIENT	n/a	n/a	n/a	-999	12	[0, 0, 0]	n/a	FR1	1	R1098D
2401.317	2.433	4007825	WORD	n/a	wordpools/wordpool_EN.txt	DOOR	1	12	[0, 0, 0]	n/a	FR1	1	R1098D
2403.75	2.518	4011718	WORD	n/a	wordpools/wordpool_EN.txt	SMILE	2	12	[0, 0, 0]	n/a	FR1	1	R1098D
2406.268	2.416	4015746	WORD	n/a	wordpools/wordpool_EN.txt	CLOCK	3	12	[0, 0, 0]	n/a	FR1	1	R1098D
2408.684	2.552	4019612	WORD	n/a	wordpools/wordpool_EN.txt	OAR	4	12	[0, 0, 0]	n/a	FR1	1	R1098D
2411.236	2.566	4023695	WORD	n/a	wordpools/wordpool_EN.txt	LAMP	5	12	[0, 0, 0]	n/a	FR1	1	R1098D
2413.802	2.518	4027800	WORD	n/a	wordpools/wordpool_EN.txt	STOVE	6	12	[0, 0, 0]	n/a	FR1	1	R1098D
2416.32	2.4	4031829	WORD	n/a	wordpools/wordpool_EN.txt	FLOOR	7	12	[0, 0, 0]	n/a	FR1	1	R1098D
2418.72	2.418	4035668	WORD	n/a	wordpools/wordpool_EN.txt	PEN	8	12	[0, 0, 0]	n/a	FR1	1	R1098D
2421.138	2.566	4039537	WORD	n/a	wordpools/wordpool_EN.txt	STICK	9	12	[0, 0, 0]	n/a	FR1	1	R1098D
2423.704	2.601	4043642	WORD	n/a	wordpools/wordpool_EN.txt	BOOT	10	12	[0, 0, 0]	n/a	FR1	1	R1098D
2426.305	2.567	4047804	WORD	n/a	wordpools/wordpool_EN.txt	DIME	11	12	[0, 0, 0]	n/a	FR1	1	R1098D
2428.872	1.617	4051911	WORD	n/a	wordpools/wordpool_EN.txt	ARM	12	12	[0, 0, 0]	n/a	FR1	1	R1098D
2430.489	0.001	4054498	DISTRACT_START	n/a	n/a	n/a	-999	12	[0, 0, 0]	n/a	FR1	1	R1098D
2430.49	0.016	4054499	START	n/a	n/a	n/a	-999	12	[-999, -999, -999]	n/a	FR1	1	R1098D
2430.506	4.734	4054525	PROB	4.734	n/a	n/a	-999	12	[3, 9, 9]	21	FR1	1	R1098D
2435.24	3.017	4062099	PROB	3.017	n/a	n/a	-999	12	[5, 2, 5]	12	FR1	1	R1098D
2438.257	3.284	4066926	PROB	3.284	n/a	n/a	-999	12	[4, 3, 5]	12	FR1	1	R1098D
2441.541	12.098	4072180	PROB	12.098	n/a	n/a	-999	12	[9, 6, 6]	21	FR1	1	R1098D
2453.639	0.004	4091535	STOP	n/a	n/a	n/a	-999	12	[-999, -999, -999]	n/a	FR1	1	R1098D
2453.643	1.051	4091542	DISTRACT_END	n/a	n/a	n/a	-999	12	[0, 0, 0]	n/a	FR1	1	R1098D
2454.694	1.236	4093223	REC_START	n/a	n/a	n/a	-999	12	[0, 0, 0]	n/a	FR1	1	R1098D
2455.93	0.933	4095201	REC_WORD	0.933	n/a	DOOR	-999	12	[0, 0, 0]	n/a	FR1	1	R1098D
2456.863	1.064	4096693	REC_WORD	1.064	n/a	SMILE	-999	12	[0, 0, 0]	n/a	FR1	1	R1098D
2457.927	26.777	4098396	REC_WORD	26.777	n/a	STICK	-999	12	[0, 0, 0]	n/a	FR1	1	R1098D
2484.704	2.078	4141236	REC_END	n/a	n/a	n/a	-999	12	[0, 0, 0]	n/a	FR1	1	R1098D
2486.782	0.0	4144561	TRIAL	n/a	n/a	n/a	-999	13	[0, 0, 0]	n/a	FR1	1	R1098D
2486.782	10.428	4144561	COUNTDOWN_START	n/a	n/a	n/a	-999	13	[0, 0, 0]	n/a	FR1	1	R1098D
2497.21	0.008	4161244	COUNTDOWN_END	n/a	n/a	n/a	-999	13	[0, 0, 0]	n/a	FR1	1	R1098D
2497.218	2.55	4161257	ORIENT	n/a	n/a	n/a	-999	13	[0, 0, 0]	n/a	FR1	1	R1098D
2499.768	2.601	4165337	WORD	n/a	wordpools/wordpool_EN.txt	STORM	1	13	[0, 0, 0]	n/a	FR1	1	R1098D
2502.369	2.567	4169498	WORD	n/a	wordpools/wordpool_EN.txt	FOAM	2	13	[0, 0, 0]	n/a	FR1	1	R1098D
2504.936	2.484	4173605	WORD	n/a	wordpools/wordpool_EN.txt	STRAW	3	13	[0, 0, 0]	n/a	FR1	1	R1098D
2507.42	2.567	4177579	WORD	n/a	wordpools/wordpool_EN.txt	TRASH	4	13	[0, 0, 0]	n/a	FR1	1	R1098D
2509.987	2.4	4181686	WORD	n/a	wordpools/wordpool_EN.txt	CLIFF	5	13	[0, 0, 0]	n/a	FR1	1	R1098D
2512.387	2.433	4185526	WORD	n/a	wordpools/wordpool_EN.txt	STAIR	6	13	[0, 0, 0]	n/a	FR1	1	R1098D
2514.82	2.452	4189419	WORD	n/a	wordpools/wordpool_EN.txt	GLASS	7	13	[0, 0, 0]	n/a	FR1	1	R1098D
2517.272	2.399	4193342	WORD	n/a	wordpools/wordpool_EN.txt	WHALE	8	13	[0, 0, 0]	n/a	FR1	1	R1098D
2519.671	2.585	4197180	WORD	n/a	wordpools/wordpool_EN.txt	BRICK	9	13	[0, 0, 0]	n/a	FR1	1	R1098D
2522.256	2.617	4201315	WORD	n/a	wordpools/wordpool_EN.txt	SMOKE	10	13	[0, 0, 0]	n/a	FR1	1	R1098D
2524.873	2.467	4205502	WORD	n/a	wordpools/wordpool_EN.txt	ROPE	11	13	[0, 0, 0]	n/a	FR1	1	R1098D
2527.34	1.617	4209449	WORD	n/a	wordpools/wordpool_EN.txt	ROCK	12	13	[0, 0, 0]	n/a	FR1	1	R1098D
2528.957	0.001	4212036	DISTRACT_START	n/a	n/a	n/a	-999	13	[0, 0, 0]	n/a	FR1	1	R1098D
2528.958	0.016	4212038	START	n/a	n/a	n/a	-999	13	[-999, -999, -999]	n/a	FR1	1	R1098D
2528.974	3.766	4212064	PROB	3.766	n/a	n/a	-999	13	[4, 1, 3]	8	FR1	1	R1098D
2532.74	3.034	4218089	PROB	3.034	n/a	n/a	-999	13	[6, 6, 3]	15	FR1	1	R1098D
2535.774	2.468	4222943	PROB	2.468	n/a	n/a	-999	13	[4, 1, 7]	12	FR1	1	R1098D
2538.242	3.268	4226891	PROB	3.268	n/a	n/a	-999	13	[9, 7, 2]	18	FR1	1	R1098D
2541.51	3.05	4232120	PROB	3.05	n/a	n/a	-999	13	[4, 6, 5]	15	FR1	1	R1098D
2544.56	3.034	4237000	PROB	3.034	n/a	n/a	-999	13	[3, 7, 4]	14	FR1	1	R1098D
2547.594	9.269	4241854	PROB	9.269	n/a	n/a	-999	13	[9, 9, 8]	26	FR1	1	R1098D
2556.863	0.016	4256683	STOP	n/a	n/a	n/a	-999	13	[-999, -999, -999]	n/a	FR1	1	R1098D
2556.879	1.084	4256709	DISTRACT_END	n/a	n/a	n/a	-999	13	[0, 0, 0]	n/a	FR1	1	R1098D
2557.963	3.332	4258443	REC_START	n/a	n/a	n/a	-999	13	[0, 0, 0]	n/a	FR1	1	R1098D
2561.295	1.302	4263774	REC_WORD	1.302	n/a	STORM	-999	13	[0, 0, 0]	n/a	FR1	1	R1098D
2562.597	0.847	4265857	REC_WORD	0.847	n/a	STAIR	-999	13	[0, 0, 0]	n/a	FR1	1	R1098D
2563.444	24.533	4267212	REC_WORD	24.533	n/a	STRAW	-999	13	[0, 0, 0]	n/a	FR1	1	R1098D
2587.977	2.142	4306462	REC_END	n/a	n/a	n/a	-999	13	[0, 0, 0]	n/a	FR1	1	R1098D
2590.119	0.0	4309889	TRIAL	n/a	n/a	n/a	-999	14	[0, 0, 0]	n/a	FR1	1	R1098D
2590.119	10.428	4309889	COUNTDOWN_START	n/a	n/a	n/a	-999	14	[0, 0, 0]	n/a	FR1	1	R1098D
2600.547	0.007	4326573	COUNTDOWN_END	n/a	n/a	n/a	-999	14	[0, 0, 0]	n/a	FR1	1	R1098D
2600.554	2.383	4326584	ORIENT	n/a	n/a	n/a	-999	14	[0, 0, 0]	n/a	FR1	1	R1098D
2602.937	2.584	4330397	WORD	n/a	wordpools/wordpool_EN.txt	FOX	1	14	[0, 0, 0]	n/a	FR1	1	R1098D
2605.521	2.451	4334531	WORD	n/a	wordpools/wordpool_EN.txt	BAG	2	14	[0, 0, 0]	n/a	FR1	1	R1098D
2607.972	2.567	4338452	WORD	n/a	wordpools/wordpool_EN.txt	COW	3	14	[0, 0, 0]	n/a	FR1	1	R1098D
2610.539	2.434	4342559	WORD	n/a	wordpools/wordpool_EN.txt	CRANE	4	14	[0, 0, 0]	n/a	FR1	1	R1098D
2612.973	2.4	4346453	WORD	n/a	wordpools/wordpool_EN.txt	DOCK	5	14	[0, 0, 0]	n/a	FR1	1	R1098D
2615.373	2.55	4350293	WORD	n/a	wordpools/wordpool_EN.txt	AXE	6	14	[0, 0, 0]	n/a	FR1	1	R1098D
2617.923	2.368	4354373	WORD	n/a	wordpools/wordpool_EN.txt	EAR	7	14	[0, 0, 0]	n/a	FR1	1	R1098D
2620.291	2.516	4358161	WORD	n/a	wordpools/wordpool_EN.txt	GRASS	8	14	[0, 0, 0]	n/a	FR1	1	R1098D
2622.807	2.568	4362187	WORD	n/a	wordpools/wordpool_EN.txt	CROW	9	14	[0, 0, 0]	n/a	FR1	1	R1098D
2625.375	2.399	4366295	WORD	n/a	wordpools/wordpool_EN.txt	TOAD	10	14	[0, 0, 0]	n/a	FR1	1	R1098D
2627.774	2.385	4370133	WORD	n/a	wordpools/wordpool_EN.txt	WORLD	11	14	[0, 0, 0]	n/a	FR1	1	R1098D
2630.159	1.616	4373949	WORD	n/a	wordpools/wordpool_EN.txt	SHEEP	12	14	[0, 0, 0]	n/a	FR1	1	R1098D
2631.775	0.001	4376535	DISTRACT_START	n/a	n/a	n/a	-999	14	[0, 0, 0]	n/a	FR1	1	R1098D
2631.776	0.016	4376536	START	n/a	n/a	n/a	-999	14	[-999, -999, -999]	n/a	FR1	1	R1098D
2631.792	5.119	4376562	PROB	5.119	n/a	n/a	-999	14	[8, 4, 8]	20	FR1	1	R1098D
2636.911	2.866	4384752	PROB	2.866	n/a	n/a	-999	14	[9, 3, 8]	20	FR1	1	R1098D
2639.777	2.418	4389337	PROB	2.418	n/a	n/a	-999	14	[6, 4, 2]	12	FR1	1	R1098D
2642.195	8.201	4393206	PROB	8.201	n/a	n/a	-999	14	[9, 8, 2]	19	FR1	1	R1098D
2650.396	3.418	4406326	PROB	3.418	n/a	n/a	-999	14	[5, 2, 8]	15	FR1	1	R1098D
2653.814	0.015	4411795	STOP	n/a	n/a	n/a	-999	14	[-999, -999, -999]	n/a	FR1	1	R1098D
2653.829	1.185	4411819	DISTRACT_END	n/a	n/a	n/a	-999	14	[0, 0, 0]	n/a	FR1	1	R1098D
2655.014	1.152	4413715	REC_START	n/a	n/a	n/a	-999	14	[0, 0, 0]	n/a	FR1	1	R1098D
2656.166	1.09	4415558	REC_WORD	1.09	n/a	COW	-999	14	[0, 0, 0]	n/a	FR1	1	R1098D
2657.256	1.231	4417302	REC_WORD	1.231	n/a	CROWN	-999	14	[0, 0, 0]	n/a	FR1	1	R1098D
2658.487	26.541	4419271	REC_WORD	26.541	n/a	CROW	-999	14	[0, 0, 0]	n/a	FR1	1	R1098D
2685.028	2.558	4461734	REC_END	n/a	n/a	n/a	-999	14	[0, 0, 0]	n/a	FR1	1	R1098D
2687.586	0.001	4465827	COUNTDOWN_START	n/a	n/a	n/a	-999	15	[0, 0, 0]	n/a	FR1	1	R1098D
2687.587	10.427	4465828	TRIAL	n/a	n/a	n/a	-999	15	[0, 0, 0]	n/a	FR1	1	R1098D
2698.014	0.008	4482510	COUNTDOWN_END	n/a	n/a	n/a	-999	15	[0, 0, 0]	n/a	FR1	1	R1098D
2698.022	2.584	4482523	ORIENT	n/a	n/a	n/a	-999	15	[0, 0, 0]	n/a	FR1	1	R1098D
2700.606	2.4	4486657	WORD	n/a	wordpools/wordpool_EN.txt	SEA	1	15	[0, 0, 0]	n/a	FR1	1	R1098D
2703.006	2.5	4490497	WORD	n/a	wordpools/wordpool_EN.txt	STAR	2	15	[0, 0, 0]	n/a	FR1	1	R1098D
2705.506	2.417	4494497	WORD	n/a	wordpools/wordpool_EN.txt	SHIP	3	15	[0, 0, 0]	n/a	FR1	1	R1098D
2707.923	2.468	4498364	WORD	n/a	wordpools/wordpool_EN.txt	STEAM	4	15	[0, 0, 0]	n/a	FR1	1	R1098D
2710.391	2.399	4502312	WORD	n/a	wordpools/wordpool_EN.txt	BOMB	5	15	[0, 0, 0]	n/a	FR1	1	R1098D
2712.79	2.385	4506150	WORD	n/a	wordpools/wordpool_EN.txt	JEEP	6	15	[0, 0, 0]	n/a	FR1	1	R1098D
2715.175	2.45	4509966	WORD	n/a	wordpools/wordpool_EN.txt	PLANE	7	15	[0, 0, 0]	n/a	FR1	1	R1098D
2717.625	2.484	4513886	WORD	n/a	wordpools/wordpool_EN.txt	MOON	8	15	[0, 0, 0]	n/a	FR1	1	R1098D
2720.109	2.434	4517860	WORD	n/a	wordpools/wordpool_EN.txt	FILM	9	15	[0, 0, 0]	n/a	FR1	1	R1098D
2722.543	2.6	4521754	WORD	n/a	wordpools/wordpool_EN.txt	CLOUD	10	15	[0, 0, 0]	n/a	FR1	1	R1098D
2725.143	2.533	4525914	WORD	n/a	wordpools/wordpool_EN.txt	TANK	11	15	[0, 0, 0]	n/a	FR1	1	R1098D
2727.676	1.601	4529967	WORD	n/a	wordpools/wordpool_EN.txt	FLUTE	12	15	[0, 0, 0]	n/a	FR1	1	R1098D
2729.277	0.001	4532528	DISTRACT_START	n/a	n/a	n/a	-999	15	[0, 0, 0]	n/a	FR1	1	R1098D
2729.278	0.016	4532530	START	n/a	n/a	n/a	-999	15	[-999, -999, -999]	n/a	FR1	1	R1098D
2729.294	3.767	4532555	PROB	3.767	n/a	n/a	-999	15	[2, 2, 2]	6	FR1	1	R1098D
2733.061	3.584	4538582	PROB	3.584	n/a	n/a	-999	15	[1, 9, 9]	19	FR1	1	R1098D
2736.645	5.601	4544316	PROB	5.601	n/a	n/a	-999	15	[9, 4, 3]	16	FR1	1	R1098D
2742.246	4.218	4553277	PROB	4.218	n/a	n/a	-999	15	[6, 6, 4]	16	FR1	1	R1098D
2746.464	2.784	4560025	PROB	2.784	n/a	n/a	-999	15	[6, 4, 3]	13	FR1	1	R1098D
2749.248	3.079	4564480	PROB	3.079	n/a	n/a	-999	15	[4, 5, 9]	18	FR1	1	R1098D
2752.327	0.004	4569406	STOP	n/a	n/a	n/a	-999	15	[-999, -999, -999]	n/a	FR1	1	R1098D
2752.331	1.168	4569412	DISTRACT_END	n/a	n/a	n/a	-999	15	[0, 0, 0]	n/a	FR1	1	R1098D
2753.499	0.99	4571281	REC_START	n/a	n/a	n/a	-999	15	[0, 0, 0]	n/a	FR1	1	R1098D
2754.489	0.804	4572865	REC_WORD	0.804	n/a	SEA	-999	15	[0, 0, 0]	n/a	FR1	1	R1098D
2755.293	1.072	4574151	REC_WORD	1.072	n/a	STAR	-999	15	[0, 0, 0]	n/a	FR1	1	R1098D
2756.365	27.143	4575866	REC_WORD	27.143	n/a	TANK	-999	15	[0, 0, 0]	n/a	FR1	1	R1098D
2783.508	74.093	4619292	REC_END	n/a	n/a	n/a	-999	15	[0, 0, 0]	n/a	FR1	1	R1098D
2857.601	0.0	4737833	TRIAL	n/a	n/a	n/a	-999	16	[0, 0, 0]	n/a	FR1	1	R1098D
2857.601	10.428	4737833	COUNTDOWN_START	n/a	n/a	n/a	-999	16	[0, 0, 0]	n/a	FR1	1	R1098D
2868.029	0.007	4754517	COUNTDOWN_END	n/a	n/a	n/a	-999	16	[0, 0, 0]	n/a	FR1	1	R1098D
2868.036	2.484	4754528	ORIENT	n/a	n/a	n/a	-999	16	[0, 0, 0]	n/a	FR1	1	R1098D
2870.52	2.55	4758502	WORD	n/a	wordpools/wordpool_EN.txt	CHIN	1	16	[0, 0, 0]	n/a	FR1	1	R1098D
2873.07	2.467	4762582	WORD	n/a	wordpools/wordpool_EN.txt	SEED	2	16	[0, 0, 0]	n/a	FR1	1	R1098D
2875.537	2.534	4766529	WORD	n/a	wordpools/wordpool_EN.txt	SOUP	3	16	[0, 0, 0]	n/a	FR1	1	R1098D
2878.071	2.584	4770583	WORD	n/a	wordpools/wordpool_EN.txt	VINE	4	16	[0, 0, 0]	n/a	FR1	1	R1098D
2880.655	2.401	4774717	WORD	n/a	wordpools/wordpool_EN.txt	CHAIR	5	16	[0, 0, 0]	n/a	FR1	1	R1098D
2883.056	2.4	4778559	WORD	n/a	wordpools/wordpool_EN.txt	BRANCH	6	16	[0, 0, 0]	n/a	FR1	1	R1098D
2885.456	2.584	4782398	WORD	n/a	wordpools/wordpool_EN.txt	FUDGE	7	16	[0, 0, 0]	n/a	FR1	1	R1098D
2888.04	2.6	4786533	WORD	n/a	wordpools/wordpool_EN.txt	FRUIT	8	16	[0, 0, 0]	n/a	FR1	1	R1098D
2890.64	2.434	4790692	WORD	n/a	wordpools/wordpool_EN.txt	JUICE	9	16	[0, 0, 0]	n/a	FR1	1	R1098D
2893.074	2.434	4794586	WORD	n/a	wordpools/wordpool_EN.txt	TOE	10	16	[0, 0, 0]	n/a	FR1	1	R1098D
2895.508	2.4	4798481	WORD	n/a	wordpools/wordpool_EN.txt	PIT	11	16	[0, 0, 0]	n/a	FR1	1	R1098D
2897.908	1.617	4802320	WORD	n/a	wordpools/wordpool_EN.txt	STEAK	12	16	[0, 0, 0]	n/a	FR1	1	R1098D
2899.525	0.001	4804907	DISTRACT_START	n/a	n/a	n/a	-999	16	[0, 0, 0]	n/a	FR1	1	R1098D
2899.526	0.016	4804909	START	n/a	n/a	n/a	-999	16	[-999, -999, -999]	n/a	FR1	1	R1098D
2899.542	82.401	4804935	PROB	82.401	n/a	n/a	-999	16	[7, 5, 2]	14	FR1	1	R1098D
2981.943	0.014	4936768	STOP	n/a	n/a	n/a	-999	16	[-999, -999, -999]	n/a	FR1	1	R1098D
2981.957	1.152	4936790	DISTRACT_END	n/a	n/a	n/a	-999	16	[0, 0, 0]	n/a	FR1	1	R1098D
2983.109	30.0	4938633	REC_START	n/a	n/a	n/a	-999	16	[0, 0, 0]	n/a	FR1	1	R1098D
3013.109	0.01	4986630	REC_WORD_VV	0.01	n/a	<>	-999	16	[0, 0, 0]	n/a	FR1	1	R1098D
3013.119	4.961	4986646	REC_END	n/a	n/a	n/a	-999	16	[0, 0, 0]	n/a	FR1	1	R1098D
3018.08	0.001	4994583	COUNTDOWN_START	n/a	n/a	n/a	-999	17	[0, 0, 0]	n/a	FR1	1	R1098D
3018.081	10.427	4994585	TRIAL	n/a	n/a	n/a	-999	17	[0, 0, 0]	n/a	FR1	1	R1098D
3028.508	0.007	5011267	COUNTDOWN_END	n/a	n/a	n/a	-999	17	[0, 0, 0]	n/a	FR1	1	R1098D
3028.515	2.567	5011278	ORIENT	n/a	n/a	n/a	-999	17	[0, 0, 0]	n/a	FR1	1	R1098D
3031.082	2.418	5015385	WORD	n/a	wordpools/wordpool_EN.txt	BEAN	1	17	[0, 0, 0]	n/a	FR1	1	R1098D
3033.5	2.6	5019254	WORD	n/a	wordpools/wordpool_EN.txt	BIRD	2	17	[0, 0, 0]	n/a	FR1	1	R1098D
3036.1	2.434	5023413	WORD	n/a	wordpools/wordpool_EN.txt	FOOT	3	17	[0, 0, 0]	n/a	FR1	1	R1098D
3038.534	2.4	5027308	WORD	n/a	wordpools/wordpool_EN.txt	BEAK	4	17	[0, 0, 0]	n/a	FR1	1	R1098D
3040.934	2.484	5031147	WORD	n/a	wordpools/wordpool_EN.txt	PLANT	5	17	[0, 0, 0]	n/a	FR1	1	R1098D
3043.418	2.451	5035122	WORD	n/a	wordpools/wordpool_EN.txt	BLOOM	6	17	[0, 0, 0]	n/a	FR1	1	R1098D
3045.869	2.483	5039043	WORD	n/a	wordpools/wordpool_EN.txt	ANT	7	17	[0, 0, 0]	n/a	FR1	1	R1098D
3048.352	2.517	5043015	WORD	n/a	wordpools/wordpool_EN.txt	BEE	8	17	[0, 0, 0]	n/a	FR1	1	R1098D
3050.869	2.618	5047042	WORD	n/a	wordpools/wordpool_EN.txt	FOOD	9	17	[0, 0, 0]	n/a	FR1	1	R1098D
3053.487	2.383	5051231	WORD	n/a	wordpools/wordpool_EN.txt	BREAD	10	17	[0, 0, 0]	n/a	FR1	1	R1098D
3055.87	2.501	5055043	WORD	n/a	wordpools/wordpool_EN.txt	RICE	11	17	[0, 0, 0]	n/a	FR1	1	R1098D
3058.371	1.617	5059045	WORD	n/a	wordpools/wordpool_EN.txt	TREE	12	17	[0, 0, 0]	n/a	FR1	1	R1098D
3059.988	0.001	5061632	DISTRACT_START	n/a	n/a	n/a	-999	17	[0, 0, 0]	n/a	FR1	1	R1098D
3059.989	0.015	5061633	START	n/a	n/a	n/a	-999	17	[-999, -999, -999]	n/a	FR1	1	R1098D
3060.004	4.018	5061657	PROB	4.018	n/a	n/a	-999	17	[6, 2, 8]	16	FR1	1	R1098D
3064.022	3.0	5068086	PROB	3.0	n/a	n/a	-999	17	[6, 3, 1]	10	FR1	1	R1098D
3067.022	2.65	5072886	PROB	2.65	n/a	n/a	-999	17	[1, 7, 4]	12	FR1	1	R1098D
3069.672	3.368	5077125	PROB	3.368	n/a	n/a	-999	17	[2, 8, 7]	17	FR1	1	R1098D
3073.04	3.451	5082514	PROB	3.451	n/a	n/a	-999	17	[1, 5, 2]	8	FR1	1	R1098D
3076.491	2.333	5088035	PROB	2.333	n/a	n/a	-999	17	[1, 7, 3]	11	FR1	1	R1098D
3078.824	4.998	5091768	PROB	4.998	n/a	n/a	-999	17	[2, 6, 9]	17	FR1	1	R1098D
3083.822	0.02	5099764	STOP	n/a	n/a	n/a	-999	17	[-999, -999, -999]	n/a	FR1	1	R1098D
3083.842	1.101	5099796	DISTRACT_END	n/a	n/a	n/a	-999	17	[0, 0, 0]	n/a	FR1	1	R1098D
3084.943	0.987	5101557	REC_START	n/a	n/a	n/a	-999	17	[0, 0, 0]	n/a	FR1	1	R1098D
3085.93	0.833	5103136	REC_WORD	0.833	n/a	BLOOM	-999	17	[0, 0, 0]	n/a	FR1	1	R1098D
3086.763	1.195	5104469	REC_WORD	1.195	n/a	PLANT	-999	17	[0, 0, 0]	n/a	FR1	1	R1098D
3087.958	26.996	5106381	REC_WORD	26.996	n/a	ANT	-999	17	[0, 0, 0]	n/a	FR1	1	R1098D
3114.954	2.944	5149572	REC_END	n/a	n/a	n/a	-999	17	[0, 0, 0]	n/a	FR1	1	R1098D
3117.898	0.001	5154282	COUNTDOWN_START	n/a	n/a	n/a	-999	18	[0, 0, 0]	n/a	FR1	1	R1098D
3117.899	10.427	5154284	TRIAL	n/a	n/a	n/a	-999	18	[0, 0, 0]	n/a	FR1	1	R1098D
3128.326	0.008	5170966	COUNTDOWN_END	n/a	n/a	n/a	-999	18	[0, 0, 0]	n/a	FR1	1	R1098D
3128.334	2.55	5170978	ORIENT	n/a	n/a	n/a	-999	18	[0, 0, 0]	n/a	FR1	1	R1098D
3130.884	2.584	5175058	WORD	n/a	wordpools/wordpool_EN.txt	LAND	1	18	[0, 0, 0]	n/a	FR1	1	R1098D
3133.468	2.584	5179192	WORD	n/a	wordpools/wordpool_EN.txt	LAKE	2	18	[0, 0, 0]	n/a	FR1	1	R1098D
3136.052	2.517	5183326	WORD	n/a	wordpools/wordpool_EN.txt	FARM	3	18	[0, 0, 0]	n/a	FR1	1	R1098D
3138.569	2.55	5187353	WORD	n/a	wordpools/wordpool_EN.txt	TOY	4	18	[0, 0, 0]	n/a	FR1	1	R1098D
3141.119	2.501	5191433	WORD	n/a	wordpools/wordpool_EN.txt	ZOO	5	18	[0, 0, 0]	n/a	FR1	1	R1098D
3143.62	2.45	5195434	WORD	n/a	wordpools/wordpool_EN.txt	TEA	6	18	[0, 0, 0]	n/a	FR1	1	R1098D
3146.07	2.434	5199354	WORD	n/a	wordpools/wordpool_EN.txt	HEART	7	18	[0, 0, 0]	n/a	FR1	1	R1098D
3148.504	2.417	5203248	WORD	n/a	wordpools/wordpool_EN.txt	CAT	8	18	[0, 0, 0]	n/a	FR1	1	R1098D
3150.921	2.417	5207115	WORD	n/a	wordpools/wordpool_EN.txt	BRIDGE	9	18	[0, 0, 0]	n/a	FR1	1	R1098D
3153.338	2.617	5210982	WORD	n/a	wordpools/wordpool_EN.txt	SHRIMP	10	18	[0, 0, 0]	n/a	FR1	1	R1098D
3155.955	2.551	5215169	WORD	n/a	wordpools/wordpool_EN.txt	FORT	11	18	[0, 0, 0]	n/a	FR1	1	R1098D
3158.506	1.617	5219251	WORD	n/a	wordpools/wordpool_EN.txt	GOLD	12	18	[0, 0, 0]	n/a	FR1	1	R1098D
3160.123	0.001	5221838	DISTRACT_START	n/a	n/a	n/a	-999	18	[0, 0, 0]	n/a	FR1	1	R1098D
3160.124	0.015	5221839	START	n/a	n/a	n/a	-999	18	[-999, -999, -999]	n/a	FR1	1	R1098D
3160.139	4.451	5221863	PROB	4.451	n/a	n/a	-999	18	[1, 1, 4]	6	FR1	1	R1098D
3164.59	2.651	5228984	PROB	2.651	n/a	n/a	-999	18	[1, 5, 5]	11	FR1	1	R1098D
3167.241	4.917	5233226	PROB	4.917	n/a	n/a	-999	18	[8, 3, 8]	19	FR1	1	R1098D
3172.158	2.834	5241092	PROB	2.834	n/a	n/a	-999	18	[5, 3, 9]	17	FR1	1	R1098D
3174.992	3.284	5245626	PROB	3.284	n/a	n/a	-999	18	[6, 8, 2]	16	FR1	1	R1098D
3178.276	3.035	5250881	PROB	3.035	n/a	n/a	-999	18	[4, 6, 9]	19	FR1	1	R1098D
3181.311	0.016	5255736	STOP	n/a	n/a	n/a	-999	18	[-999, -999, -999]	n/a	FR1	1	R1098D
3181.327	1.2	5255762	DISTRACT_END	n/a	n/a	n/a	-999	18	[0, 0, 0]	n/a	FR1	1	R1098D
3182.527	1.129	5257682	REC_START	n/a	n/a	n/a	-999	18	[0, 0, 0]	n/a	FR1	1	R1098D
3183.656	1.068	5259488	REC_WORD	1.068	n/a	LAND	-999	18	[0, 0, 0]	n/a	FR1	1	R1098D
3184.724	1.412	5261197	REC_WORD	1.412	n/a	LAKE	-999	18	[0, 0, 0]	n/a	FR1	1	R1098D
3186.136	26.406	5263456	REC_WORD	26.406	n/a	SHRIMP	-999	18	[0, 0, 0]	n/a	FR1	1	R1098D
3212.542	2.307	5305703	REC_END	n/a	n/a	n/a	-999	18	[0, 0, 0]	n/a	FR1	1	R1098D
3214.849	0.001	5309394	COUNTDOWN_START	n/a	n/a	n/a	-999	19	[0, 0, 0]	n/a	FR1	1	R1098D
3214.85	10.427	5309395	TRIAL	n/a	n/a	n/a	-999	19	[0, 0, 0]	n/a	FR1	1	R1098D
3225.277	0.008	5326077	COUNTDOWN_END	n/a	n/a	n/a	-999	19	[0, 0, 0]	n/a	FR1	1	R1098D
3225.285	2.55	5326090	ORIENT	n/a	n/a	n/a	-999	19	[0, 0, 0]	n/a	FR1	1	R1098D
3227.835	2.567	5330170	WORD	n/a	wordpools/wordpool_EN.txt	MOTH	1	19	[0, 0, 0]	n/a	FR1	1	R1098D
3230.402	2.601	5334277	WORD	n/a	wordpools/wordpool_EN.txt	WING	2	19	[0, 0, 0]	n/a	FR1	1	R1098D
3233.003	2.5	5338438	WORD	n/a	wordpools/wordpool_EN.txt	RIB	3	19	[0, 0, 0]	n/a	FR1	1	R1098D
3235.503	2.584	5342438	WORD	n/a	wordpools/wordpool_EN.txt	THREAD	4	19	[0, 0, 0]	n/a	FR1	1	R1098D
3238.087	2.567	5346572	WORD	n/a	wordpools/wordpool_EN.txt	NET	5	19	[0, 0, 0]	n/a	FR1	1	R1098D
3240.654	2.617	5350679	WORD	n/a	wordpools/wordpool_EN.txt	POND	6	19	[0, 0, 0]	n/a	FR1	1	R1098D
3243.271	2.584	5354866	WORD	n/a	wordpools/wordpool_EN.txt	SNAIL	7	19	[0, 0, 0]	n/a	FR1	1	R1098D
3245.855	2.484	5359000	WORD	n/a	wordpools/wordpool_EN.txt	FISH	8	19	[0, 0, 0]	n/a	FR1	1	R1098D
3248.339	2.383	5362974	WORD	n/a	wordpools/wordpool_EN.txt	STRING	9	19	[0, 0, 0]	n/a	FR1	1	R1098D
3250.722	2.401	5366787	WORD	n/a	wordpools/wordpool_EN.txt	HAND	10	19	[0, 0, 0]	n/a	FR1	1	R1098D
3253.123	2.484	5370628	WORD	n/a	wordpools/wordpool_EN.txt	OWL	11	19	[0, 0, 0]	n/a	FR1	1	R1098D
3255.607	1.617	5374602	WORD	n/a	wordpools/wordpool_EN.txt	SKUNK	12	19	[0, 0, 0]	n/a	FR1	1	R1098D
3257.224	0.001	5377189	DISTRACT_START	n/a	n/a	n/a	-999	19	[0, 0, 0]	n/a	FR1	1	R1098D
3257.225	0.015	5377191	START	n/a	n/a	n/a	-999	19	[-999, -999, -999]	n/a	FR1	1	R1098D
3257.24	6.752	5377215	PROB	6.752	n/a	n/a	-999	19	[3, 9, 2]	14	FR1	1	R1098D
3263.992	2.85	5388017	PROB	2.85	n/a	n/a	-999	19	[5, 1, 4]	10	FR1	1	R1098D
3266.842	3.551	5392577	PROB	3.551	n/a	n/a	-999	19	[1, 6, 2]	9	FR1	1	R1098D
3270.393	3.734	5398258	PROB	3.734	n/a	n/a	-999	19	[8, 2, 6]	16	FR1	1	R1098D
3274.127	1.934	5404232	PROB	1.934	n/a	n/a	-999	19	[1, 1, 1]	3	FR1	1	R1098D
3276.061	4.45	5407327	PROB	4.45	n/a	n/a	-999	19	[4, 3, 4]	11	FR1	1	R1098D
3280.511	0.017	5414446	STOP	n/a	n/a	n/a	-999	19	[-999, -999, -999]	n/a	FR1	1	R1098D
3280.528	1.051	5414473	DISTRACT_END	n/a	n/a	n/a	-999	19	[0, 0, 0]	n/a	FR1	1	R1098D
3281.579	1.183	5416155	REC_START	n/a	n/a	n/a	-999	19	[0, 0, 0]	n/a	FR1	1	R1098D
3282.762	1.242	5418048	REC_WORD	1.242	n/a	THREAD	-999	19	[0, 0, 0]	n/a	FR1	1	R1098D
3284.004	0.975	5420035	REC_WORD	0.975	n/a	NET	-999	19	[0, 0, 0]	n/a	FR1	1	R1098D
3284.979	26.61	5421594	REC_WORD	26.61	n/a	POND	-999	19	[0, 0, 0]	n/a	FR1	1	R1098D
3311.589	2.228	5464168	REC_END	n/a	n/a	n/a	-999	19	[0, 0, 0]	n/a	FR1	1	R1098D
3313.817	0.0	5467732	TRIAL	n/a	n/a	n/a	-999	20	[0, 0, 0]	n/a	FR1	1	R1098D
3313.817	10.428	5467732	COUNTDOWN_START	n/a	n/a	n/a	-999	20	[0, 0, 0]	n/a	FR1	1	R1098D
3324.245	0.008	5484416	COUNTDOWN_END	n/a	n/a	n/a	-999	20	[0, 0, 0]	n/a	FR1	1	R1098D
3324.253	2.499	5484429	ORIENT	n/a	n/a	n/a	-999	20	[0, 0, 0]	n/a	FR1	1	R1098D
3326.752	2.468	5488427	WORD	n/a	wordpools/wordpool_EN.txt	GATE	1	20	[0, 0, 0]	n/a	FR1	1	R1098D
3329.22	2.5	5492376	WORD	n/a	wordpools/wordpool_EN.txt	HILL	2	20	[0, 0, 0]	n/a	FR1	1	R1098D
3331.72	2.485	5496375	WORD	n/a	wordpools/wordpool_EN.txt	MULE	3	20	[0, 0, 0]	n/a	FR1	1	R1098D
3334.205	2.45	5500351	WORD	n/a	wordpools/wordpool_EN.txt	NEST	4	20	[0, 0, 0]	n/a	FR1	1	R1098D
3336.655	2.601	5504271	WORD	n/a	wordpools/wordpool_EN.txt	DOG	5	20	[0, 0, 0]	n/a	FR1	1	R1098D
3339.256	2.432	5508432	WORD	n/a	wordpools/wordpool_EN.txt	GEESE	6	20	[0, 0, 0]	n/a	FR1	1	R1098D
3341.688	2.535	5512323	WORD	n/a	wordpools/wordpool_EN.txt	CHIEF	7	20	[0, 0, 0]	n/a	FR1	1	R1098D
3344.223	2.617	5516379	WORD	n/a	wordpools/wordpool_EN.txt	EEL	8	20	[0, 0, 0]	n/a	FR1	1	R1098D
3346.84	2.534	5520566	WORD	n/a	wordpools/wordpool_EN.txt	GOAT	9	20	[0, 0, 0]	n/a	FR1	1	R1098D
3349.374	2.567	5524620	WORD	n/a	wordpools/wordpool_EN.txt	SKY	10	20	[0, 0, 0]	n/a	FR1	1	R1098D
3351.941	2.617	5528727	WORD	n/a	wordpools/wordpool_EN.txt	DUCK	11	20	[0, 0, 0]	n/a	FR1	1	R1098D
3354.558	1.617	5532914	WORD	n/a	wordpools/wordpool_EN.txt	SWORD	12	20	[0, 0, 0]	n/a	FR1	1	R1098D
3356.175	0.001	5535501	DISTRACT_START	n/a	n/a	n/a	-999	20	[0, 0, 0]	n/a	FR1	1	R1098D
3356.176	0.016	5535502	START	n/a	n/a	n/a	-999	20	[-999, -999, -999]	n/a	FR1	1	R1098D
3356.192	5.251	5535528	PROB	5.251	n/a	n/a	-999	20	[2, 4, 6]	12	FR1	1	R1098D
3361.443	14.748	5543929	PROB	14.748	n/a	n/a	-999	20	[9, 8, 9]	26	FR1	1	R1098D
3376.191	0.004	5567524	STOP	n/a	n/a	n/a	-999	20	[-999, -999, -999]	n/a	FR1	1	R1098D
3376.195	1.135	5567531	DISTRACT_END	n/a	n/a	n/a	-999	20	[0, 0, 0]	n/a	FR1	1	R1098D
3377.33	1.139	5569347	REC_START	n/a	n/a	n/a	-999	20	[0, 0, 0]	n/a	FR1	1	R1098D
3378.469	1.162	5571169	REC_WORD	1.162	n/a	GATE	-999	20	[0, 0, 0]	n/a	FR1	1	R1098D
3379.631	13.249	5573028	REC_WORD	13.249	n/a	HILL	-999	20	[0, 0, 0]	n/a	FR1	1	R1098D
3392.88	14.461	5594225	REC_WORD	14.461	n/a	MULE	-999	20	[0, 0, 0]	n/a	FR1	1	R1098D
3407.341	2.228	5617361	REC_END	n/a	n/a	n/a	-999	20	[0, 0, 0]	n/a	FR1	1	R1098D
3409.569	0.0	5620926	TRIAL	n/a	n/a	n/a	-999	21	[0, 0, 0]	n/a	FR1	1	R1098D
3409.569	10.428	5620926	COUNTDOWN_START	n/a	n/a	n/a	-999	21	[0, 0, 0]	n/a	FR1	1	R1098D
3419.997	0.007	5637610	COUNTDOWN_END	n/a	n/a	n/a	-999	21	[0, 0, 0]	n/a	FR1	1	R1098D
3420.004	2.433	5637621	ORIENT	n/a	n/a	n/a	-999	21	[0, 0, 0]	n/a	FR1	1	R1098D
3422.437	2.417	5641513	WORD	n/a	wordpools/wordpool_EN.txt	MAP	1	21	[0, 0, 0]	n/a	FR1	1	R1098D
3424.854	2.551	5645380	WORD	n/a	wordpools/wordpool_EN.txt	BEAR	2	21	[0, 0, 0]	n/a	FR1	1	R1098D
3427.405	2.467	5649462	WORD	n/a	wordpools/wordpool_EN.txt	STEM	3	21	[0, 0, 0]	n/a	FR1	1	R1098D
3429.872	2.601	5653409	WORD	n/a	wordpools/wordpool_EN.txt	POLE	4	21	[0, 0, 0]	n/a	FR1	1	R1098D
3432.473	2.433	5657570	WORD	n/a	wordpools/wordpool_EN.txt	TOOTH	5	21	[0, 0, 0]	n/a	FR1	1	R1098D
3434.906	2.5	5661462	WORD	n/a	wordpools/wordpool_EN.txt	INK	6	21	[0, 0, 0]	n/a	FR1	1	R1098D
3437.406	2.501	5665462	WORD	n/a	wordpools/wordpool_EN.txt	TEETH	7	21	[0, 0, 0]	n/a	FR1	1	R1098D
3439.907	2.467	5669463	WORD	n/a	wordpools/wordpool_EN.txt	SLIME	8	21	[0, 0, 0]	n/a	FR1	1	R1098D
3442.374	2.4	5673410	WORD	n/a	wordpools/wordpool_EN.txt	SALT	9	21	[0, 0, 0]	n/a	FR1	1	R1098D
3444.774	2.585	5677250	WORD	n/a	wordpools/wordpool_EN.txt	ROOT	10	21	[0, 0, 0]	n/a	FR1	1	R1098D
3447.359	2.432	5681386	WORD	n/a	wordpools/wordpool_EN.txt	WHEEL	11	21	[0, 0, 0]	n/a	FR1	1	R1098D
3449.791	1.601	5685277	WORD	n/a	wordpools/wordpool_EN.txt	BANK	12	21	[0, 0, 0]	n/a	FR1	1	R1098D
3451.392	0.001	5687838	DISTRACT_START	n/a	n/a	n/a	-999	21	[0, 0, 0]	n/a	FR1	1	R1098D
3451.393	0.016	5687840	START	n/a	n/a	n/a	-999	21	[-999, -999, -999]	n/a	FR1	1	R1098D
3451.409	7.218	5687866	PROB	7.218	n/a	n/a	-999	21	[8, 4, 2]	14	FR1	1	R1098D
3458.627	6.184	5699414	PROB	6.184	n/a	n/a	-999	21	[1, 8, 6]	15	FR1	1	R1098D
3464.811	3.151	5709307	PROB	3.151	n/a	n/a	-999	21	[9, 2, 7]	18	FR1	1	R1098D
3467.962	10.141	5714349	PROB	10.141	n/a	n/a	-999	21	[8, 9, 4]	21	FR1	1	R1098D
3478.103	0.011	5730573	STOP	n/a	n/a	n/a	-999	21	[-999, -999, -999]	n/a	FR1	1	R1098D
3478.114	1.118	5730591	DISTRACT_END	n/a	n/a	n/a	-999	21	[0, 0, 0]	n/a	FR1	1	R1098D
3479.232	1.37	5732379	REC_START	n/a	n/a	n/a	-999	21	[0, 0, 0]	n/a	FR1	1	R1098D
3480.602	1.194	5734571	REC_WORD	1.194	n/a	TOOL	-999	21	[0, 0, 0]	n/a	FR1	1	R1098D
3481.796	1.006	5736482	REC_WORD	1.006	n/a	TEETH	-999	21	[0, 0, 0]	n/a	FR1	1	R1098D
3482.802	10.113	5738091	REC_WORD	10.113	n/a	TOOTH	-999	21	[0, 0, 0]	n/a	FR1	1	R1098D
3492.915	16.326	5754271	REC_WORD	16.326	n/a	WHEEL	-999	21	[0, 0, 0]	n/a	FR1	1	R1098D
3509.241	2.863	5780391	REC_END	n/a	n/a	n/a	-999	21	[0, 0, 0]	n/a	FR1	1	R1098D
3512.104	0.0	5784971	TRIAL	n/a	n/a	n/a	-999	22	[0, 0, 0]	n/a	FR1	1	R1098D
3512.104	10.428	5784971	COUNTDOWN_START	n/a	n/a	n/a	-999	22	[0, 0, 0]	n/a	FR1	1	R1098D
3522.532	0.007	5801655	COUNTDOWN_END	n/a	n/a	n/a	-999	22	[0, 0, 0]	n/a	FR1	1	R1098D
3522.539	2.567	5801666	ORIENT	n/a	n/a	n/a	-999	22	[0, 0, 0]	n/a	FR1	1	R1098D
3525.106	2.401	5805773	WORD	n/a	wordpools/wordpool_EN.txt	PHONE	1	22	[0, 0, 0]	n/a	FR1	1	R1098D
3527.507	2.433	5809615	WORD	n/a	wordpools/wordpool_EN.txt	GRAPE	2	22	[0, 0, 0]	n/a	FR1	1	R1098D
3529.94	2.467	5813507	WORD	n/a	wordpools/wordpool_EN.txt	KITE	3	22	[0, 0, 0]	n/a	FR1	1	R1098D
3532.407	2.534	5817454	WORD	n/a	wordpools/wordpool_EN.txt	CONE	4	22	[0, 0, 0]	n/a	FR1	1	R1098D
3534.941	2.501	5821508	WORD	n/a	wordpools/wordpool_EN.txt	LOCK	5	22	[0, 0, 0]	n/a	FR1	1	R1098D
3537.442	2.584	5825510	WORD	n/a	wordpools/wordpool_EN.txt	MILK	6	22	[0, 0, 0]	n/a	FR1	1	R1098D
3540.026	2.433	5829644	WORD	n/a	wordpools/wordpool_EN.txt	MOUSE	7	22	[0, 0, 0]	n/a	FR1	1	R1098D
3542.459	2.551	5833536	WORD	n/a	wordpools/wordpool_EN.txt	CROWN	8	22	[0, 0, 0]	n/a	FR1	1	R1098D
3545.01	2.434	5837618	WORD	n/a	wordpools/wordpool_EN.txt	PEAR	9	22	[0, 0, 0]	n/a	FR1	1	R1098D
3547.444	2.55	5841512	WORD	n/a	wordpools/wordpool_EN.txt	SNAKE	10	22	[0, 0, 0]	n/a	FR1	1	R1098D
3549.994	2.617	5845591	WORD	n/a	wordpools/wordpool_EN.txt	SHOE	11	22	[0, 0, 0]	n/a	FR1	1	R1098D
3552.611	1.617	5849778	WORD	n/a	wordpools/wordpool_EN.txt	PEARL	12	22	[0, 0, 0]	n/a	FR1	1	R1098D
3554.228	0.001	5852365	DISTRACT_START	n/a	n/a	n/a	-999	22	[0, 0, 0]	n/a	FR1	1	R1098D
3554.229	0.016	5852367	START	n/a	n/a	n/a	-999	22	[-999, -999, -999]	n/a	FR1	1	R1098D
3554.245	3.566	5852393	PROB	3.566	n/a	n/a	-999	22	[2, 6, 1]	9	FR1	1	R1098D
3557.811	3.852	5858098	PROB	3.852	n/a	n/a	-999	22	[9, 2, 6]	17	FR1	1	R1098D
3561.663	6.651	5864261	PROB	6.651	n/a	n/a	-999	22	[3, 5, 9]	17	FR1	1	R1098D
3568.314	6.021	5874902	PROB	6.021	n/a	n/a	-999	22	[2, 2, 5]	9	FR1	1	R1098D
3574.335	0.014	5884535	STOP	n/a	n/a	n/a	-999	22	[-999, -999, -999]	n/a	FR1	1	R1098D
3574.349	1.217	5884557	DISTRACT_END	n/a	n/a	n/a	-999	22	[0, 0, 0]	n/a	FR1	1	R1098D
3575.566	2.708	5886504	REC_START	n/a	n/a	n/a	-999	22	[0, 0, 0]	n/a	FR1	1	R1098D
3578.274	0.896	5890837	REC_WORD	0.896	n/a	MILK	-999	22	[0, 0, 0]	n/a	FR1	1	R1098D
3579.17	26.406	5892270	REC_WORD	26.406	n/a	MOUSE	-999	22	[0, 0, 0]	n/a	FR1	1	R1098D
3605.576	2.429	5934517	REC_END	n/a	n/a	n/a	-999	22	[0, 0, 0]	n/a	FR1	1	R1098D
3608.005	0.0	5938403	TRIAL	n/a	n/a	n/a	-999	23	[0, 0, 0]	n/a	FR1	1	R1098D
3608.005	10.428	5938403	COUNTDOWN_START	n/a	n/a	n/a	-999	23	[0, 0, 0]	n/a	FR1	1	R1098D
3618.433	0.007	5955087	COUNTDOWN_END	n/a	n/a	n/a	-999	23	[0, 0, 0]	n/a	FR1	1	R1098D
3618.44	2.567	5955098	ORIENT	n/a	n/a	n/a	-999	23	[0, 0, 0]	n/a	FR1	1	R1098D
3621.007	2.567	5959205	WORD	n/a	wordpools/wordpool_EN.txt	OAK	1	23	[0, 0, 0]	n/a	FR1	1	R1098D
3623.574	2.567	5963312	WORD	n/a	wordpools/wordpool_EN.txt	CUP	2	23	[0, 0, 0]	n/a	FR1	1	R1098D
3626.141	2.6	5967419	WORD	n/a	wordpools/wordpool_EN.txt	MUG	3	23	[0, 0, 0]	n/a	FR1	1	R1098D
3628.741	2.518	5971579	WORD	n/a	wordpools/wordpool_EN.txt	SHELL	4	23	[0, 0, 0]	n/a	FR1	1	R1098D
3631.259	2.499	5975607	WORD	n/a	wordpools/wordpool_EN.txt	PASTE	5	23	[0, 0, 0]	n/a	FR1	1	R1098D
3633.758	2.435	5979605	WORD	n/a	wordpools/wordpool_EN.txt	EGG	6	23	[0, 0, 0]	n/a	FR1	1	R1098D
3636.193	2.55	5983501	WORD	n/a	wordpools/wordpool_EN.txt	WAND	7	23	[0, 0, 0]	n/a	FR1	1	R1098D
3638.743	2.451	5987581	WORD	n/a	wordpools/wordpool_EN.txt	SPOON	8	23	[0, 0, 0]	n/a	FR1	1	R1098D
3641.194	2.633	5991502	WORD	n/a	wordpools/wordpool_EN.txt	HEN	9	23	[0, 0, 0]	n/a	FR1	1	R1098D
3643.827	2.468	5995715	WORD	n/a	wordpools/wordpool_EN.txt	LAMB	10	23	[0, 0, 0]	n/a	FR1	1	R1098D
3646.295	2.483	5999663	WORD	n/a	wordpools/wordpool_EN.txt	WOOD	11	23	[0, 0, 0]	n/a	FR1	1	R1098D
3648.778	1.618	6003636	WORD	n/a	wordpools/wordpool_EN.txt	PEACH	12	23	[0, 0, 0]	n/a	FR1	1	R1098D
3650.396	0.001	6006224	DISTRACT_START	n/a	n/a	n/a	-999	23	[0, 0, 0]	n/a	FR1	1	R1098D
3650.397	0.015	6006226	START	n/a	n/a	n/a	-999	23	[-999, -999, -999]	n/a	FR1	1	R1098D
3650.412	7.852	6006250	PROB	7.852	n/a	n/a	-999	23	[9, 9, 3]	21	FR1	1	R1098D
3658.264	2.433	6018812	PROB	2.433	n/a	n/a	-999	23	[5, 3, 1]	9	FR1	1	R1098D
3660.697	2.535	6022705	PROB	2.535	n/a	n/a	-999	23	[1, 2, 9]	12	FR1	1	R1098D
3663.232	3.367	6026761	PROB	3.367	n/a	n/a	-999	23	[4, 5, 3]	12	FR1	1	R1098D
3666.599	4.856	6032148	PROB	4.856	n/a	n/a	-999	23	[6, 2, 5]	13	FR1	1	R1098D
3671.455	0.011	6039917	STOP	n/a	n/a	n/a	-999	23	[-999, -999, -999]	n/a	FR1	1	R1098D
3671.466	1.201	6039934	DISTRACT_END	n/a	n/a	n/a	-999	23	[0, 0, 0]	n/a	FR1	1	R1098D
3672.667	1.837	6041856	REC_START	n/a	n/a	n/a	-999	23	[0, 0, 0]	n/a	FR1	1	R1098D
3674.504	1.609	6044795	REC_WORD	1.609	n/a	HEN	-999	23	[0, 0, 0]	n/a	FR1	1	R1098D
3676.113	1.48	6047369	REC_WORD	1.48	n/a	LAMB	-999	23	[0, 0, 0]	n/a	FR1	1	R1098D
3677.593	25.088	6049737	REC_WORD	25.088	n/a	WOOD	-999	23	[0, 0, 0]	n/a	FR1	1	R1098D
3702.681	2.358	6089875	REC_END	n/a	n/a	n/a	-999	23	[0, 0, 0]	n/a	FR1	1	R1098D
3705.039	0.001	6093648	COUNTDOWN_START	n/a	n/a	n/a	-999	24	[0, 0, 0]	n/a	FR1	1	R1098D
3705.04	10.427	6093649	TRIAL	n/a	n/a	n/a	-999	24	[0, 0, 0]	n/a	FR1	1	R1098D
3715.467	0.007	6110331	COUNTDOWN_END	n/a	n/a	n/a	-999	24	[0, 0, 0]	n/a	FR1	1	R1098D
3715.474	2.601	6110343	ORIENT	n/a	n/a	n/a	-999	24	[0, 0, 0]	n/a	FR1	1	R1098D
3718.075	2.434	6114504	WORD	n/a	wordpools/wordpool_EN.txt	COIN	1	24	[0, 0, 0]	n/a	FR1	1	R1098D
3720.509	2.533	6118398	WORD	n/a	wordpools/wordpool_EN.txt	WALL	2	24	[0, 0, 0]	n/a	FR1	1	R1098D
3723.042	2.468	6122451	WORD	n/a	wordpools/wordpool_EN.txt	GLOVE	3	24	[0, 0, 0]	n/a	FR1	1	R1098D
3725.51	2.5	6126399	WORD	n/a	wordpools/wordpool_EN.txt	SHIELD	4	24	[0, 0, 0]	n/a	FR1	1	R1098D
3728.01	2.484	6130399	WORD	n/a	wordpools/wordpool_EN.txt	SPARK	5	24	[0, 0, 0]	n/a	FR1	1	R1098D
3730.494	2.484	6134373	WORD	n/a	wordpools/wordpool_EN.txt	RAIN	6	24	[0, 0, 0]	n/a	FR1	1	R1098D
3732.978	2.45	6138347	WORD	n/a	wordpools/wordpool_EN.txt	SPONGE	7	24	[0, 0, 0]	n/a	FR1	1	R1098D
3735.428	2.434	6142267	WORD	n/a	wordpools/wordpool_EN.txt	BOX	8	24	[0, 0, 0]	n/a	FR1	1	R1098D
3737.862	2.5	6146161	WORD	n/a	wordpools/wordpool_EN.txt	HOOK	9	24	[0, 0, 0]	n/a	FR1	1	R1098D
3740.362	2.484	6150161	WORD	n/a	wordpools/wordpool_EN.txt	BALL	10	24	[0, 0, 0]	n/a	FR1	1	R1098D
3742.846	2.617	6154135	WORD	n/a	wordpools/wordpool_EN.txt	ELF	11	24	[0, 0, 0]	n/a	FR1	1	R1098D
3745.463	1.617	6158322	WORD	n/a	wordpools/wordpool_EN.txt	HOSE	12	24	[0, 0, 0]	n/a	FR1	1	R1098D
3747.08	0.001	6160909	DISTRACT_START	n/a	n/a	n/a	-999	24	[0, 0, 0]	n/a	FR1	1	R1098D
3747.081	0.016	6160911	START	n/a	n/a	n/a	-999	24	[-999, -999, -999]	n/a	FR1	1	R1098D
3747.097	4.267	6160936	PROB	4.267	n/a	n/a	-999	24	[1, 2, 1]	4	FR1	1	R1098D
3751.364	2.717	6167763	PROB	2.717	n/a	n/a	-999	24	[8, 2, 9]	19	FR1	1	R1098D
3754.081	4.385	6172110	PROB	4.385	n/a	n/a	-999	24	[2, 7, 6]	15	FR1	1	R1098D
3758.466	3.567	6179125	PROB	3.567	n/a	n/a	-999	24	[9, 9, 4]	22	FR1	1	R1098D
3762.033	2.534	6184832	PROB	2.534	n/a	n/a	-999	24	[2, 1, 1]	4	FR1	1	R1098D
3764.567	5.04	6188886	PROB	5.04	n/a	n/a	-999	24	[5, 5, 7]	17	FR1	1	R1098D
3769.607	0.011	6196950	STOP	n/a	n/a	n/a	-999	24	[-999, -999, -999]	n/a	FR1	1	R1098D
3769.618	1.099	6196967	DISTRACT_END	n/a	n/a	n/a	-999	24	[0, 0, 0]	n/a	FR1	1	R1098D
3770.717	1.081	6198726	REC_START	n/a	n/a	n/a	-999	24	[0, 0, 0]	n/a	FR1	1	R1098D
3771.798	1.039	6200455	REC_WORD	1.039	n/a	SHIELD	-999	24	[0, 0, 0]	n/a	FR1	1	R1098D
3772.837	1.214	6202118	REC_WORD	1.214	n/a	SPARK	-999	24	[0, 0, 0]	n/a	FR1	1	R1098D
3774.051	2.37	6204060	REC_WORD	2.37	n/a	COIN	-999	24	[0, 0, 0]	n/a	FR1	1	R1098D
3776.421	24.309	6207852	REC_WORD	24.309	n/a	ELF	-999	24	[0, 0, 0]	n/a	FR1	1	R1098D
3800.73	4.111	6246744	REC_END	n/a	n/a	n/a	-999	24	[0, 0, 0]	n/a	FR1	1	R1098D
3804.841	0.0	6253321	TRIAL	n/a	n/a	n/a	-999	25	[0, 0, 0]	n/a	FR1	1	R1098D
3804.841	10.428	6253321	COUNTDOWN_START	n/a	n/a	n/a	-999	25	[0, 0, 0]	n/a	FR1	1	R1098D
3815.269	0.007	6270004	COUNTDOWN_END	n/a	n/a	n/a	-999	25	[0, 0, 0]	n/a	FR1	1	R1098D
3815.276	2.483	6270016	ORIENT	n/a	n/a	n/a	-999	25	[0, 0, 0]	n/a	FR1	1	R1098D
3817.759	2.401	6273988	WORD	n/a	wordpools/wordpool_EN.txt	THUMB	1	25	[0, 0, 0]	n/a	FR1	1	R1098D
3820.16	2.633	6277830	WORD	n/a	wordpools/wordpool_EN.txt	SLEEVE	2	25	[0, 0, 0]	n/a	FR1	1	R1098D
3822.793	2.585	6282042	WORD	n/a	wordpools/wordpool_EN.txt	FROG	3	25	[0, 0, 0]	n/a	FR1	1	R1098D
3825.378	2.449	6286178	WORD	n/a	wordpools/wordpool_EN.txt	SUIT	4	25	[0, 0, 0]	n/a	FR1	1	R1098D
3827.827	2.435	6290096	WORD	n/a	wordpools/wordpool_EN.txt	BOARD	5	25	[0, 0, 0]	n/a	FR1	1	R1098D
3830.262	2.449	6293992	WORD	n/a	wordpools/wordpool_EN.txt	BRUSH	6	25	[0, 0, 0]	n/a	FR1	1	R1098D
3832.711	2.552	6297910	WORD	n/a	wordpools/wordpool_EN.txt	PIPE	7	25	[0, 0, 0]	n/a	FR1	1	R1098D
3835.263	2.617	6301993	WORD	n/a	wordpools/wordpool_EN.txt	NAIL	8	25	[0, 0, 0]	n/a	FR1	1	R1098D
3837.88	2.501	6306180	WORD	n/a	wordpools/wordpool_EN.txt	PURSE	9	25	[0, 0, 0]	n/a	FR1	1	R1098D
3840.381	2.5	6310181	WORD	n/a	wordpools/wordpool_EN.txt	FORK	10	25	[0, 0, 0]	n/a	FR1	1	R1098D
3842.881	2.551	6314181	WORD	n/a	wordpools/wordpool_EN.txt	BENCH	11	25	[0, 0, 0]	n/a	FR1	1	R1098D
3845.432	1.616	6318262	WORD	n/a	wordpools/wordpool_EN.txt	SINK	12	25	[0, 0, 0]	n/a	FR1	1	R1098D
3847.048	0.001	6320848	DISTRACT_START	n/a	n/a	n/a	-999	25	[0, 0, 0]	n/a	FR1	1	R1098D
3847.049	0.016	6320849	START	n/a	n/a	n/a	-999	25	[-999, -999, -999]	n/a	FR1	1	R1098D
3847.065	5.568	6320875	PROB	5.568	n/a	n/a	-999	25	[3, 6, 5]	14	FR1	1	R1098D
3852.633	2.667	6329783	PROB	2.667	n/a	n/a	-999	25	[8, 2, 8]	18	FR1	1	R1098D
3855.3	2.767	6334050	PROB	2.767	n/a	n/a	-999	25	[8, 8, 3]	19	FR1	1	R1098D
3858.067	2.251	6338477	PROB	2.251	n/a	n/a	-999	25	[7, 1, 1]	9	FR1	1	R1098D
3860.318	5.317	6342078	PROB	5.317	n/a	n/a	-999	25	[9, 4, 4]	17	FR1	1	R1098D
3865.635	5.139	6350585	PROB	5.139	n/a	n/a	-999	25	[8, 8, 7]	23	FR1	1	R1098D
3870.774	0.011	6358807	STOP	n/a	n/a	n/a	-999	25	[-999, -999, -999]	n/a	FR1	1	R1098D
3870.785	1.102	6358824	DISTRACT_END	n/a	n/a	n/a	-999	25	[0, 0, 0]	n/a	FR1	1	R1098D
3871.887	2.845	6360587	REC_START	n/a	n/a	n/a	-999	25	[0, 0, 0]	n/a	FR1	1	R1098D
3874.732	25.352	6365139	REC_WORD	25.352	n/a	FROG	-999	25	[0, 0, 0]	n/a	FR1	1	R1098D
3900.084	1.816	6405700	REC_WORD	1.816	n/a	BRUSH	-999	25	[0, 0, 0]	n/a	FR1	1	R1098D
3901.9	13.361	6408605	REC_END	n/a	n/a	n/a	-999	25	[0, 0, 0]	n/a	FR1	1	R1098D
3915.261	0.0	6429981	SESS_END	n/a	n/a	n/a	-999	25	[0, 0, 0]	n/a	FR1	1	R1098D
