onset	duration	sample	trial_type	response_time	stim_file	item_name	serialpos	list	test	answer	experiment	session	subject
0.0	217.63	98491	SESS_START	n/a	n/a	n/a	-999	-999	[0, 0, 0]	n/a	FR1	0	R1124J
217.63	10.428	316120	COUNTDOWN_START	n/a	n/a	n/a	-999	-999	[0, 0, 0]	n/a	FR1	0	R1124J
228.058	0.007	326547	COUNTDOWN_END	n/a	n/a	n/a	-999	-999	[0, 0, 0]	n/a	FR1	0	R1124J
228.065	3.783	326554	PRACTICE_ORIENT	n/a	n/a	n/a	-999	-999	[0, 0, 0]	n/a	FR1	0	R1124J
231.848	2.434	330337	PRACTICE_WORD	n/a	n/a	ATTIC	1	-1	[0, 0, 0]	n/a	FR1	0	R1124J
234.282	2.616	332771	PRACTICE_WORD	n/a	n/a	COTTON	2	-1	[0, 0, 0]	n/a	FR1	0	R1124J
236.898	2.551	335387	PRACTICE_WORD	n/a	n/a	RING	3	-1	[0, 0, 0]	n/a	FR1	0	R1124J
239.449	2.433	337938	PRACTICE_WORD	n/a	n/a	CHEST	4	-1	[0, 0, 0]	n/a	FR1	0	R1124J
241.882	2.418	340371	PRACTICE_WORD	n/a	n/a	CAMEL	5	-1	[0, 0, 0]	n/a	FR1	0	R1124J
244.3	2.467	342789	PRACTICE_WORD	n/a	n/a	IRON	6	-1	[0, 0, 0]	n/a	FR1	0	R1124J
246.767	2.417	345256	PRACTICE_WORD	n/a	n/a	TONGUE	7	-1	[0, 0, 0]	n/a	FR1	0	R1124J
249.184	2.4	347673	PRACTICE_WORD	n/a	n/a	WAGON	8	-1	[0, 0, 0]	n/a	FR1	0	R1124J
251.584	2.551	350073	PRACTICE_WORD	n/a	n/a	BEAM	9	-1	[0, 0, 0]	n/a	FR1	0	R1124J
254.135	2.517	352624	PRACTICE_WORD	n/a	n/a	RHINO	10	-1	[0, 0, 0]	n/a	FR1	0	R1124J
256.652	2.517	355141	PRACTICE_WORD	n/a	n/a	WATCH	11	-1	[0, 0, 0]	n/a	FR1	0	R1124J
259.169	1.616	357658	PRACTICE_WORD	n/a	n/a	FLOOD	12	-1	[0, 0, 0]	n/a	FR1	0	R1124J
260.785	0.001	359274	PRACTICE_DISTRACT_START	n/a	n/a	n/a	-999	-1	[0, 0, 0]	n/a	FR1	0	R1124J
260.786	0.016	359275	START	n/a	n/a	n/a	-999	-1	[-999, -999, -999]	n/a	FR1	0	R1124J
260.802	15.519	359291	PROB	15.519	n/a	n/a	-999	-1	[4, 8, 6]	18	FR1	0	R1124J
276.321	10.959	374810	PROB	10.959	n/a	n/a	-999	-1	[7, 6, 5]	18	FR1	0	R1124J
287.28	0.559	385769	STOP	n/a	n/a	n/a	-999	-1	[-999, -999, -999]	n/a	FR1	0	R1124J
287.839	30.516	386328	PRACTICE_REC_START	n/a	n/a	n/a	-999	-1	[0, 0, 0]	n/a	FR1	0	R1124J
318.355	21.407	416844	PRACTICE_REC_END	n/a	n/a	n/a	-999	-1	[0, 0, 0]	n/a	FR1	0	R1124J
339.762	0.0	438251	TRIAL	n/a	n/a	n/a	-999	1	[0, 0, 0]	n/a	FR1	0	R1124J
339.762	10.428	438251	COUNTDOWN_START	n/a	n/a	n/a	-999	1	[0, 0, 0]	n/a	FR1	0	R1124J
350.19	0.007	448679	COUNTDOWN_END	n/a	n/a	n/a	-999	1	[0, 0, 0]	n/a	FR1	0	R1124J
350.197	3.651	448686	ORIENT	n/a	n/a	n/a	-999	1	[0, 0, 0]	n/a	FR1	0	R1124J
353.848	2.6	452337	WORD	n/a	wordpools/wordpool_EN.txt	DART	1	1	[0, 0, 0]	n/a	FR1	0	R1124J
356.448	2.383	454936	WORD	n/a	wordpools/wordpool_EN.txt	ROOT	2	1	[0, 0, 0]	n/a	FR1	0	R1124J
358.831	2.584	457319	WORD	n/a	wordpools/wordpool_EN.txt	STEAK	3	1	[0, 0, 0]	n/a	FR1	0	R1124J
361.415	2.466	459903	WORD	n/a	wordpools/wordpool_EN.txt	BATH	4	1	[0, 0, 0]	n/a	FR1	0	R1124J
363.881	2.485	462369	WORD	n/a	wordpools/wordpool_EN.txt	CLOTH	5	1	[0, 0, 0]	n/a	FR1	0	R1124J
366.366	2.45	464854	WORD	n/a	wordpools/wordpool_EN.txt	GRAPE	6	1	[0, 0, 0]	n/a	FR1	0	R1124J
368.816	2.517	467304	WORD	n/a	wordpools/wordpool_EN.txt	PASTE	7	1	[0, 0, 0]	n/a	FR1	0	R1124J
371.333	2.5	469821	WORD	n/a	wordpools/wordpool_EN.txt	HOLE	8	1	[0, 0, 0]	n/a	FR1	0	R1124J
373.833	2.417	472321	WORD	n/a	wordpools/wordpool_EN.txt	FAN	9	1	[0, 0, 0]	n/a	FR1	0	R1124J
376.25	2.568	474738	WORD	n/a	wordpools/wordpool_EN.txt	FRUIT	10	1	[0, 0, 0]	n/a	FR1	0	R1124J
378.818	2.45	477306	WORD	n/a	wordpools/wordpool_EN.txt	VINE	11	1	[0, 0, 0]	n/a	FR1	0	R1124J
381.268	1.615	479756	WORD	n/a	wordpools/wordpool_EN.txt	VASE	12	1	[0, 0, 0]	n/a	FR1	0	R1124J
382.883	0.001	481371	DISTRACT_START	n/a	n/a	n/a	-999	1	[0, 0, 0]	n/a	FR1	0	R1124J
382.884	0.016	481372	START	n/a	n/a	n/a	-999	1	[-999, -999, -999]	n/a	FR1	0	R1124J
382.9	8.769	481388	PROB	8.769	n/a	n/a	-999	1	[4, 9, 1]	14	FR1	0	R1124J
391.669	11.719	490157	PROB	11.719	n/a	n/a	-999	1	[9, 8, 6]	23	FR1	0	R1124J
403.388	0.016	501876	STOP	n/a	n/a	n/a	-999	1	[-999, -999, -999]	n/a	FR1	0	R1124J
403.404	1.201	501892	DISTRACT_END	n/a	n/a	n/a	-999	1	[0, 0, 0]	n/a	FR1	0	R1124J
404.605	1.94	503093	REC_START	n/a	n/a	n/a	-999	1	[0, 0, 0]	n/a	FR1	0	R1124J
406.545	3.538	505033	REC_WORD	3.538	n/a	DART	-999	1	[0, 0, 0]	n/a	FR1	0	R1124J
410.083	2.707	508571	REC_WORD	2.707	n/a	STEAK	-999	1	[0, 0, 0]	n/a	FR1	0	R1124J
412.79	5.837	511278	REC_WORD	5.837	n/a	VASE	-999	1	[0, 0, 0]	n/a	FR1	0	R1124J
418.627	7.825	517115	REC_WORD	7.825	n/a	ATTIC	-999	1	[0, 0, 0]	n/a	FR1	0	R1124J
426.452	8.163	524940	REC_WORD	8.163	n/a	COTTON	-999	1	[0, 0, 0]	n/a	FR1	0	R1124J
434.615	23.295	533103	REC_END	n/a	n/a	n/a	-999	1	[0, 0, 0]	n/a	FR1	0	R1124J
457.91	0.0	556398	TRIAL	n/a	n/a	n/a	-999	2	[0, 0, 0]	n/a	FR1	0	R1124J
457.91	10.428	556398	COUNTDOWN_START	n/a	n/a	n/a	-999	2	[0, 0, 0]	n/a	FR1	0	R1124J
468.338	0.008	566826	COUNTDOWN_END	n/a	n/a	n/a	-999	2	[0, 0, 0]	n/a	FR1	0	R1124J
468.346	3.75	566834	ORIENT	n/a	n/a	n/a	-999	2	[0, 0, 0]	n/a	FR1	0	R1124J
472.096	2.434	570584	WORD	n/a	wordpools/wordpool_EN.txt	DOLL	1	2	[0, 0, 0]	n/a	FR1	0	R1124J
474.53	2.517	573018	WORD	n/a	wordpools/wordpool_EN.txt	PIT	2	2	[0, 0, 0]	n/a	FR1	0	R1124J
477.047	2.6	575535	WORD	n/a	wordpools/wordpool_EN.txt	MOUTH	3	2	[0, 0, 0]	n/a	FR1	0	R1124J
479.647	2.517	578135	WORD	n/a	wordpools/wordpool_EN.txt	GATE	4	2	[0, 0, 0]	n/a	FR1	0	R1124J
482.164	2.434	580652	WORD	n/a	wordpools/wordpool_EN.txt	TENT	5	2	[0, 0, 0]	n/a	FR1	0	R1124J
484.598	2.5	583086	WORD	n/a	wordpools/wordpool_EN.txt	SWAMP	6	2	[0, 0, 0]	n/a	FR1	0	R1124J
487.098	2.567	585586	WORD	n/a	wordpools/wordpool_EN.txt	MAT	7	2	[0, 0, 0]	n/a	FR1	0	R1124J
489.665	2.584	588152	WORD	n/a	wordpools/wordpool_EN.txt	SINK	8	2	[0, 0, 0]	n/a	FR1	0	R1124J
492.249	2.416	590736	WORD	n/a	wordpools/wordpool_EN.txt	STOVE	9	2	[0, 0, 0]	n/a	FR1	0	R1124J
494.665	2.434	593152	WORD	n/a	wordpools/wordpool_EN.txt	BROOM	10	2	[0, 0, 0]	n/a	FR1	0	R1124J
497.099	2.467	595586	WORD	n/a	wordpools/wordpool_EN.txt	LIP	11	2	[0, 0, 0]	n/a	FR1	0	R1124J
499.566	1.617	598053	WORD	n/a	wordpools/wordpool_EN.txt	ELF	12	2	[0, 0, 0]	n/a	FR1	0	R1124J
501.183	0.001	599670	DISTRACT_START	n/a	n/a	n/a	-999	2	[0, 0, 0]	n/a	FR1	0	R1124J
501.184	0.016	599671	START	n/a	n/a	n/a	-999	2	[-999, -999, -999]	n/a	FR1	0	R1124J
501.2	15.835	599687	PROB	15.835	n/a	n/a	-999	2	[9, 8, 8]	25	FR1	0	R1124J
517.035	10.284	615522	PROB	10.284	n/a	n/a	-999	2	[9, 6, 7]	22	FR1	0	R1124J
527.319	0.018	625806	STOP	n/a	n/a	n/a	-999	2	[-999, -999, -999]	n/a	FR1	0	R1124J
527.337	1.067	625824	DISTRACT_END	n/a	n/a	n/a	-999	2	[0, 0, 0]	n/a	FR1	0	R1124J
528.404	2.497	626891	REC_START	n/a	n/a	n/a	-999	2	[0, 0, 0]	n/a	FR1	0	R1124J
530.901	2.972	629388	REC_WORD	2.972	n/a	DOLL	-999	2	[0, 0, 0]	n/a	FR1	0	R1124J
533.873	11.975	632360	REC_WORD	11.975	n/a	SWAMP	-999	2	[0, 0, 0]	n/a	FR1	0	R1124J
545.848	3.762	644335	REC_WORD	3.762	n/a	PIT	-999	2	[0, 0, 0]	n/a	FR1	0	R1124J
549.61	8.804	648097	REC_WORD	8.804	n/a	STOVE	-999	2	[0, 0, 0]	n/a	FR1	0	R1124J
558.414	16.795	656901	REC_END	n/a	n/a	n/a	-999	2	[0, 0, 0]	n/a	FR1	0	R1124J
575.209	0.0	673696	COUNTDOWN_START	n/a	n/a	n/a	-999	3	[0, 0, 0]	n/a	FR1	0	R1124J
575.209	10.428	673696	TRIAL	n/a	n/a	n/a	-999	3	[0, 0, 0]	n/a	FR1	0	R1124J
585.637	0.007	684124	COUNTDOWN_END	n/a	n/a	n/a	-999	3	[0, 0, 0]	n/a	FR1	0	R1124J
585.644	3.734	684131	ORIENT	n/a	n/a	n/a	-999	3	[0, 0, 0]	n/a	FR1	0	R1124J
589.378	2.549	687865	WORD	n/a	wordpools/wordpool_EN.txt	SLUSH	1	3	[0, 0, 0]	n/a	FR1	0	R1124J
591.927	2.435	690414	WORD	n/a	wordpools/wordpool_EN.txt	GLOVE	2	3	[0, 0, 0]	n/a	FR1	0	R1124J
594.362	2.549	692849	WORD	n/a	wordpools/wordpool_EN.txt	PARK	3	3	[0, 0, 0]	n/a	FR1	0	R1124J
596.911	2.368	695398	WORD	n/a	wordpools/wordpool_EN.txt	PANTS	4	3	[0, 0, 0]	n/a	FR1	0	R1124J
599.279	2.517	697766	WORD	n/a	wordpools/wordpool_EN.txt	RUG	5	3	[0, 0, 0]	n/a	FR1	0	R1124J
601.796	2.517	700283	WORD	n/a	wordpools/wordpool_EN.txt	BOOK	6	3	[0, 0, 0]	n/a	FR1	0	R1124J
604.313	2.566	702800	WORD	n/a	wordpools/wordpool_EN.txt	ROSE	7	3	[0, 0, 0]	n/a	FR1	0	R1124J
606.879	2.535	705366	WORD	n/a	wordpools/wordpool_EN.txt	FOOT	8	3	[0, 0, 0]	n/a	FR1	0	R1124J
609.414	2.532	707901	WORD	n/a	wordpools/wordpool_EN.txt	ARM	9	3	[0, 0, 0]	n/a	FR1	0	R1124J
611.946	2.368	710433	WORD	n/a	wordpools/wordpool_EN.txt	WALL	10	3	[0, 0, 0]	n/a	FR1	0	R1124J
614.314	2.566	712801	WORD	n/a	wordpools/wordpool_EN.txt	SPOON	11	3	[0, 0, 0]	n/a	FR1	0	R1124J
616.88	1.602	715367	WORD	n/a	wordpools/wordpool_EN.txt	MUG	12	3	[0, 0, 0]	n/a	FR1	0	R1124J
618.482	0.0	716969	DISTRACT_START	n/a	n/a	n/a	-999	3	[0, 0, 0]	n/a	FR1	0	R1124J
618.482	0.016	716969	START	n/a	n/a	n/a	-999	3	[-999, -999, -999]	n/a	FR1	0	R1124J
618.498	7.768	716985	PROB	7.768	n/a	n/a	-999	3	[7, 4, 1]	12	FR1	0	R1124J
626.266	5.951	724752	PROB	5.951	n/a	n/a	-999	3	[6, 1, 1]	8	FR1	0	R1124J
632.217	5.434	730703	PROB	5.434	n/a	n/a	-999	3	[1, 1, 9]	11	FR1	0	R1124J
637.651	4.567	736137	PROB	4.567	n/a	n/a	-999	3	[7, 5, 2]	14	FR1	0	R1124J
642.218	0.016	740704	STOP	n/a	n/a	n/a	-999	3	[-999, -999, -999]	n/a	FR1	0	R1124J
642.234	1.118	740720	DISTRACT_END	n/a	n/a	n/a	-999	3	[0, 0, 0]	n/a	FR1	0	R1124J
643.352	2.194	741838	REC_START	n/a	n/a	n/a	-999	3	[0, 0, 0]	n/a	FR1	0	R1124J
645.546	2.481	744032	REC_WORD	2.481	n/a	SLUSH	-999	3	[0, 0, 0]	n/a	FR1	0	R1124J
648.027	7.633	746513	REC_WORD	7.633	n/a	FOOT	-999	3	[0, 0, 0]	n/a	FR1	0	R1124J
655.66	5.593	754146	REC_WORD	5.593	n/a	GLOVE	-999	3	[0, 0, 0]	n/a	FR1	0	R1124J
661.253	7.791	759739	REC_WORD	7.791	n/a	STOVE	-999	3	[0, 0, 0]	n/a	FR1	0	R1124J
669.044	4.318	767530	REC_WORD	4.318	n/a	MOVE	-999	3	[0, 0, 0]	n/a	FR1	0	R1124J
673.362	4.911	771848	REC_END	n/a	n/a	n/a	-999	3	[0, 0, 0]	n/a	FR1	0	R1124J
678.273	0.0	776759	TRIAL	n/a	n/a	n/a	-999	4	[0, 0, 0]	n/a	FR1	0	R1124J
678.273	10.428	776759	COUNTDOWN_START	n/a	n/a	n/a	-999	4	[0, 0, 0]	n/a	FR1	0	R1124J
688.701	0.006	787187	COUNTDOWN_END	n/a	n/a	n/a	-999	4	[0, 0, 0]	n/a	FR1	0	R1124J
688.707	3.767	787193	ORIENT	n/a	n/a	n/a	-999	4	[0, 0, 0]	n/a	FR1	0	R1124J
692.474	2.617	790960	WORD	n/a	wordpools/wordpool_EN.txt	WOLF	1	4	[0, 0, 0]	n/a	FR1	0	R1124J
695.091	2.384	793577	WORD	n/a	wordpools/wordpool_EN.txt	MILK	2	4	[0, 0, 0]	n/a	FR1	0	R1124J
697.475	2.499	795961	WORD	n/a	wordpools/wordpool_EN.txt	BEE	3	4	[0, 0, 0]	n/a	FR1	0	R1124J
699.974	2.518	798460	WORD	n/a	wordpools/wordpool_EN.txt	WEED	4	4	[0, 0, 0]	n/a	FR1	0	R1124J
702.492	2.617	800978	WORD	n/a	wordpools/wordpool_EN.txt	GEESE	5	4	[0, 0, 0]	n/a	FR1	0	R1124J
705.109	2.451	803595	WORD	n/a	wordpools/wordpool_EN.txt	TOAD	6	4	[0, 0, 0]	n/a	FR1	0	R1124J
707.56	2.55	806046	WORD	n/a	wordpools/wordpool_EN.txt	MOUSE	7	4	[0, 0, 0]	n/a	FR1	0	R1124J
710.11	2.55	808596	WORD	n/a	wordpools/wordpool_EN.txt	BIRD	8	4	[0, 0, 0]	n/a	FR1	0	R1124J
712.66	2.551	811146	WORD	n/a	wordpools/wordpool_EN.txt	BOY	9	4	[0, 0, 0]	n/a	FR1	0	R1124J
715.211	2.533	813697	WORD	n/a	wordpools/wordpool_EN.txt	CHIEF	10	4	[0, 0, 0]	n/a	FR1	0	R1124J
717.744	2.6	816230	WORD	n/a	wordpools/wordpool_EN.txt	SNAKE	11	4	[0, 0, 0]	n/a	FR1	0	R1124J
720.344	1.616	818830	WORD	n/a	wordpools/wordpool_EN.txt	SOAP	12	4	[0, 0, 0]	n/a	FR1	0	R1124J
721.96	0.001	820446	DISTRACT_START	n/a	n/a	n/a	-999	4	[0, 0, 0]	n/a	FR1	0	R1124J
721.961	0.016	820447	START	n/a	n/a	n/a	-999	4	[-999, -999, -999]	n/a	FR1	0	R1124J
721.977	6.202	820463	PROB	6.202	n/a	n/a	-999	4	[2, 2, 4]	8	FR1	0	R1124J
728.179	7.134	826665	PROB	7.134	n/a	n/a	-999	4	[4, 9, 3]	16	FR1	0	R1124J
735.313	9.069	833799	PROB	9.069	n/a	n/a	-999	4	[7, 8, 6]	21	FR1	0	R1124J
744.382	0.015	842868	STOP	n/a	n/a	n/a	-999	4	[-999, -999, -999]	n/a	FR1	0	R1124J
744.397	1.018	842883	DISTRACT_END	n/a	n/a	n/a	-999	4	[0, 0, 0]	n/a	FR1	0	R1124J
745.415	2.175	843901	REC_START	n/a	n/a	n/a	-999	4	[0, 0, 0]	n/a	FR1	0	R1124J
747.59	1.994	846076	REC_WORD	1.994	n/a	WOLF	-999	4	[0, 0, 0]	n/a	FR1	0	R1124J
749.584	2.393	848070	REC_WORD	2.393	n/a	WEED	-999	4	[0, 0, 0]	n/a	FR1	0	R1124J
751.977	1.067	850463	REC_WORD	1.067	n/a	BIRD	-999	4	[0, 0, 0]	n/a	FR1	0	R1124J
753.044	2.251	851530	REC_WORD	2.251	n/a	BOY	-999	4	[0, 0, 0]	n/a	FR1	0	R1124J
755.295	20.129	853781	REC_WORD	20.129	n/a	CHIEF	-999	4	[0, 0, 0]	n/a	FR1	0	R1124J
775.424	4.178	873909	REC_END	n/a	n/a	n/a	-999	4	[0, 0, 0]	n/a	FR1	0	R1124J
779.602	0.0	878087	TRIAL	n/a	n/a	n/a	-999	5	[0, 0, 0]	n/a	FR1	0	R1124J
779.602	10.428	878087	COUNTDOWN_START	n/a	n/a	n/a	-999	5	[0, 0, 0]	n/a	FR1	0	R1124J
790.03	0.007	888515	COUNTDOWN_END	n/a	n/a	n/a	-999	5	[0, 0, 0]	n/a	FR1	0	R1124J
790.037	3.767	888522	ORIENT	n/a	n/a	n/a	-999	5	[0, 0, 0]	n/a	FR1	0	R1124J
793.804	2.534	892289	WORD	n/a	wordpools/wordpool_EN.txt	BOAT	1	5	[0, 0, 0]	n/a	FR1	0	R1124J
796.338	2.599	894823	WORD	n/a	wordpools/wordpool_EN.txt	CRANE	2	5	[0, 0, 0]	n/a	FR1	0	R1124J
798.937	2.484	897422	WORD	n/a	wordpools/wordpool_EN.txt	SMOKE	3	5	[0, 0, 0]	n/a	FR1	0	R1124J
801.421	2.567	899906	WORD	n/a	wordpools/wordpool_EN.txt	STEAM	4	5	[0, 0, 0]	n/a	FR1	0	R1124J
803.988	2.618	902473	WORD	n/a	wordpools/wordpool_EN.txt	ROOF	5	5	[0, 0, 0]	n/a	FR1	0	R1124J
806.606	2.567	905091	WORD	n/a	wordpools/wordpool_EN.txt	SPARK	6	5	[0, 0, 0]	n/a	FR1	0	R1124J
809.173	2.433	907658	WORD	n/a	wordpools/wordpool_EN.txt	APE	7	5	[0, 0, 0]	n/a	FR1	0	R1124J
811.606	2.451	910091	WORD	n/a	wordpools/wordpool_EN.txt	LOCK	8	5	[0, 0, 0]	n/a	FR1	0	R1124J
814.057	2.467	912542	WORD	n/a	wordpools/wordpool_EN.txt	BRIDGE	9	5	[0, 0, 0]	n/a	FR1	0	R1124J
816.524	2.499	915009	WORD	n/a	wordpools/wordpool_EN.txt	BRUSH	10	5	[0, 0, 0]	n/a	FR1	0	R1124J
819.023	2.568	917508	WORD	n/a	wordpools/wordpool_EN.txt	DOCK	11	5	[0, 0, 0]	n/a	FR1	0	R1124J
821.591	1.617	920076	WORD	n/a	wordpools/wordpool_EN.txt	LAKE	12	5	[0, 0, 0]	n/a	FR1	0	R1124J
823.208	0.0	921693	DISTRACT_START	n/a	n/a	n/a	-999	5	[0, 0, 0]	n/a	FR1	0	R1124J
823.208	0.016	921693	START	n/a	n/a	n/a	-999	5	[-999, -999, -999]	n/a	FR1	0	R1124J
823.224	11.635	921709	PROB	11.635	n/a	n/a	-999	5	[9, 4, 7]	20	FR1	0	R1124J
834.859	10.967	933344	PROB	10.967	n/a	n/a	-999	5	[1, 9, 3]	13	FR1	0	R1124J
845.826	0.018	944311	STOP	n/a	n/a	n/a	-999	5	[-999, -999, -999]	n/a	FR1	0	R1124J
845.844	1.067	944329	DISTRACT_END	n/a	n/a	n/a	-999	5	[0, 0, 0]	n/a	FR1	0	R1124J
846.911	5.441	945396	REC_START	n/a	n/a	n/a	-999	5	[0, 0, 0]	n/a	FR1	0	R1124J
852.352	3.68	950837	REC_WORD	3.68	n/a	LAKE	-999	5	[0, 0, 0]	n/a	FR1	0	R1124J
856.032	3.882	954517	REC_WORD	3.882	n/a	BUSH	-999	5	[0, 0, 0]	n/a	FR1	0	R1124J
859.914	7.34	958399	REC_WORD	7.34	n/a	SMOKE	-999	5	[0, 0, 0]	n/a	FR1	0	R1124J
867.254	9.666	965739	REC_WORD	9.666	n/a	LOCK	-999	5	[0, 0, 0]	n/a	FR1	0	R1124J
876.92	6.078	975405	REC_END	n/a	n/a	n/a	-999	5	[0, 0, 0]	n/a	FR1	0	R1124J
882.998	0.0	981483	TRIAL	n/a	n/a	n/a	-999	6	[0, 0, 0]	n/a	FR1	0	R1124J
882.998	10.428	981483	COUNTDOWN_START	n/a	n/a	n/a	-999	6	[0, 0, 0]	n/a	FR1	0	R1124J
893.426	0.007	991910	COUNTDOWN_END	n/a	n/a	n/a	-999	6	[0, 0, 0]	n/a	FR1	0	R1124J
893.433	3.817	991917	ORIENT	n/a	n/a	n/a	-999	6	[0, 0, 0]	n/a	FR1	0	R1124J
897.25	2.434	995734	WORD	n/a	wordpools/wordpool_EN.txt	TEA	1	6	[0, 0, 0]	n/a	FR1	0	R1124J
899.684	2.517	998168	WORD	n/a	wordpools/wordpool_EN.txt	DIME	2	6	[0, 0, 0]	n/a	FR1	0	R1124J
902.201	2.484	1000685	WORD	n/a	wordpools/wordpool_EN.txt	TOAST	3	6	[0, 0, 0]	n/a	FR1	0	R1124J
904.685	2.55	1003169	WORD	n/a	wordpools/wordpool_EN.txt	SOCK	4	6	[0, 0, 0]	n/a	FR1	0	R1124J
907.235	2.384	1005719	WORD	n/a	wordpools/wordpool_EN.txt	CANE	5	6	[0, 0, 0]	n/a	FR1	0	R1124J
909.619	2.399	1008103	WORD	n/a	wordpools/wordpool_EN.txt	DESK	6	6	[0, 0, 0]	n/a	FR1	0	R1124J
912.018	2.568	1010502	WORD	n/a	wordpools/wordpool_EN.txt	PEACH	7	6	[0, 0, 0]	n/a	FR1	0	R1124J
914.586	2.451	1013070	WORD	n/a	wordpools/wordpool_EN.txt	SUIT	8	6	[0, 0, 0]	n/a	FR1	0	R1124J
917.037	2.449	1015521	WORD	n/a	wordpools/wordpool_EN.txt	PALM	9	6	[0, 0, 0]	n/a	FR1	0	R1124J
919.486	2.618	1017970	WORD	n/a	wordpools/wordpool_EN.txt	OAK	10	6	[0, 0, 0]	n/a	FR1	0	R1124J
922.104	2.583	1020588	WORD	n/a	wordpools/wordpool_EN.txt	SCHOOL	11	6	[0, 0, 0]	n/a	FR1	0	R1124J
924.687	1.617	1023171	WORD	n/a	wordpools/wordpool_EN.txt	SLIME	12	6	[0, 0, 0]	n/a	FR1	0	R1124J
926.304	0.001	1024788	DISTRACT_START	n/a	n/a	n/a	-999	6	[0, 0, 0]	n/a	FR1	0	R1124J
926.305	0.016	1024789	START	n/a	n/a	n/a	-999	6	[-999, -999, -999]	n/a	FR1	0	R1124J
926.321	9.918	1024805	PROB	9.918	n/a	n/a	-999	6	[7, 8, 2]	17	FR1	0	R1124J
936.239	9.901	1034723	PROB	9.901	n/a	n/a	-999	6	[5, 1, 9]	15	FR1	0	R1124J
946.14	8.697	1044624	PROB	8.697	n/a	n/a	-999	6	[8, 8, 7]	23	FR1	0	R1124J
954.837	0.004	1053321	STOP	n/a	n/a	n/a	-999	6	[-999, -999, -999]	n/a	FR1	0	R1124J
954.841	1.133	1053325	DISTRACT_END	n/a	n/a	n/a	-999	6	[0, 0, 0]	n/a	FR1	0	R1124J
955.974	5.018	1054458	REC_START	n/a	n/a	n/a	-999	6	[0, 0, 0]	n/a	FR1	0	R1124J
960.992	24.996	1059476	REC_WORD	24.996	n/a	PALM	-999	6	[0, 0, 0]	n/a	FR1	0	R1124J
985.988	76.25	1084472	REC_END	n/a	n/a	n/a	-999	6	[0, 0, 0]	n/a	FR1	0	R1124J
1062.238	0.0	1160721	TRIAL	n/a	n/a	n/a	-999	7	[0, 0, 0]	n/a	FR1	0	R1124J
1062.238	10.428	1160721	COUNTDOWN_START	n/a	n/a	n/a	-999	7	[0, 0, 0]	n/a	FR1	0	R1124J
1072.666	0.007	1171149	COUNTDOWN_END	n/a	n/a	n/a	-999	7	[0, 0, 0]	n/a	FR1	0	R1124J
1072.673	3.684	1171156	ORIENT	n/a	n/a	n/a	-999	7	[0, 0, 0]	n/a	FR1	0	R1124J
1076.357	2.483	1174840	WORD	n/a	wordpools/wordpool_EN.txt	DITCH	1	7	[0, 0, 0]	n/a	FR1	0	R1124J
1078.84	2.467	1177323	WORD	n/a	wordpools/wordpool_EN.txt	DOOR	2	7	[0, 0, 0]	n/a	FR1	0	R1124J
1081.307	2.467	1179790	WORD	n/a	wordpools/wordpool_EN.txt	SIGN	3	7	[0, 0, 0]	n/a	FR1	0	R1124J
1083.774	2.518	1182257	WORD	n/a	wordpools/wordpool_EN.txt	SHOE	4	7	[0, 0, 0]	n/a	FR1	0	R1124J
1086.292	2.4	1184775	WORD	n/a	wordpools/wordpool_EN.txt	MULE	5	7	[0, 0, 0]	n/a	FR1	0	R1124J
1088.692	2.45	1187175	WORD	n/a	wordpools/wordpool_EN.txt	SEAT	6	7	[0, 0, 0]	n/a	FR1	0	R1124J
1091.142	2.4	1189625	WORD	n/a	wordpools/wordpool_EN.txt	PIN	7	7	[0, 0, 0]	n/a	FR1	0	R1124J
1093.542	2.383	1192025	WORD	n/a	wordpools/wordpool_EN.txt	BEAK	8	7	[0, 0, 0]	n/a	FR1	0	R1124J
1095.925	2.568	1194408	WORD	n/a	wordpools/wordpool_EN.txt	LAWN	9	7	[0, 0, 0]	n/a	FR1	0	R1124J
1098.493	2.617	1196976	WORD	n/a	wordpools/wordpool_EN.txt	SMILE	10	7	[0, 0, 0]	n/a	FR1	0	R1124J
1101.11	2.467	1199593	WORD	n/a	wordpools/wordpool_EN.txt	STICK	11	7	[0, 0, 0]	n/a	FR1	0	R1124J
1103.577	1.617	1202060	WORD	n/a	wordpools/wordpool_EN.txt	BOX	12	7	[0, 0, 0]	n/a	FR1	0	R1124J
1105.194	0.0	1203677	DISTRACT_START	n/a	n/a	n/a	-999	7	[0, 0, 0]	n/a	FR1	0	R1124J
1105.194	0.017	1203677	START	n/a	n/a	n/a	-999	7	[-999, -999, -999]	n/a	FR1	0	R1124J
1105.211	7.084	1203694	PROB	7.084	n/a	n/a	-999	7	[4, 2, 4]	10	FR1	0	R1124J
1112.295	7.234	1210778	PROB	7.234	n/a	n/a	-999	7	[4, 3, 8]	15	FR1	0	R1124J
1119.529	5.466	1218012	PROB	5.466	n/a	n/a	-999	7	[1, 3, 1]	5	FR1	0	R1124J
1124.995	10.034	1223478	PROB	10.034	n/a	n/a	-999	7	[6, 5, 9]	20	FR1	0	R1124J
1135.029	0.019	1233512	STOP	n/a	n/a	n/a	-999	7	[-999, -999, -999]	n/a	FR1	0	R1124J
1135.048	1.034	1233531	DISTRACT_END	n/a	n/a	n/a	-999	7	[0, 0, 0]	n/a	FR1	0	R1124J
1136.082	1.859	1234565	REC_START	n/a	n/a	n/a	-999	7	[0, 0, 0]	n/a	FR1	0	R1124J
1137.941	2.655	1236424	REC_WORD	2.655	n/a	DITCH	-999	7	[0, 0, 0]	n/a	FR1	0	R1124J
1140.596	4.337	1239079	REC_WORD	4.337	n/a	DOOR	-999	7	[0, 0, 0]	n/a	FR1	0	R1124J
1144.933	1.505	1243416	REC_WORD	1.505	n/a	SHINE	-999	7	[0, 0, 0]	n/a	FR1	0	R1124J
1146.438	2.403	1244921	REC_WORD	2.403	n/a	SHOE	-999	7	[0, 0, 0]	n/a	FR1	0	R1124J
1148.841	3.682	1247324	REC_WORD	3.682	n/a	SMILE	-999	7	[0, 0, 0]	n/a	FR1	0	R1124J
1152.523	13.569	1251006	REC_WORD	13.569	n/a	BAIT	-999	7	[0, 0, 0]	n/a	FR1	0	R1124J
1166.092	3.31	1264574	REC_END	n/a	n/a	n/a	-999	7	[0, 0, 0]	n/a	FR1	0	R1124J
1169.402	0.0	1267884	TRIAL	n/a	n/a	n/a	-999	8	[0, 0, 0]	n/a	FR1	0	R1124J
1169.402	10.428	1267884	COUNTDOWN_START	n/a	n/a	n/a	-999	8	[0, 0, 0]	n/a	FR1	0	R1124J
1179.83	0.007	1278312	COUNTDOWN_END	n/a	n/a	n/a	-999	8	[0, 0, 0]	n/a	FR1	0	R1124J
1179.837	3.55	1278319	ORIENT	n/a	n/a	n/a	-999	8	[0, 0, 0]	n/a	FR1	0	R1124J
1183.387	2.417	1281869	WORD	n/a	wordpools/wordpool_EN.txt	GOAT	1	8	[0, 0, 0]	n/a	FR1	0	R1124J
1185.804	2.567	1284286	WORD	n/a	wordpools/wordpool_EN.txt	BENCH	2	8	[0, 0, 0]	n/a	FR1	0	R1124J
1188.371	2.417	1286853	WORD	n/a	wordpools/wordpool_EN.txt	KITE	3	8	[0, 0, 0]	n/a	FR1	0	R1124J
1190.788	2.4	1289270	WORD	n/a	wordpools/wordpool_EN.txt	JAR	4	8	[0, 0, 0]	n/a	FR1	0	R1124J
1193.188	2.567	1291670	WORD	n/a	wordpools/wordpool_EN.txt	PIG	5	8	[0, 0, 0]	n/a	FR1	0	R1124J
1195.755	2.401	1294237	WORD	n/a	wordpools/wordpool_EN.txt	CALF	6	8	[0, 0, 0]	n/a	FR1	0	R1124J
1198.156	2.533	1296638	WORD	n/a	wordpools/wordpool_EN.txt	JUICE	7	8	[0, 0, 0]	n/a	FR1	0	R1124J
1200.689	2.534	1299171	WORD	n/a	wordpools/wordpool_EN.txt	BREAD	8	8	[0, 0, 0]	n/a	FR1	0	R1124J
1203.223	2.617	1301705	WORD	n/a	wordpools/wordpool_EN.txt	TAIL	9	8	[0, 0, 0]	n/a	FR1	0	R1124J
1205.84	2.434	1304322	WORD	n/a	wordpools/wordpool_EN.txt	BOARD	10	8	[0, 0, 0]	n/a	FR1	0	R1124J
1208.274	2.583	1306756	WORD	n/a	wordpools/wordpool_EN.txt	THUMB	11	8	[0, 0, 0]	n/a	FR1	0	R1124J
1210.857	1.617	1309339	WORD	n/a	wordpools/wordpool_EN.txt	WOOD	12	8	[0, 0, 0]	n/a	FR1	0	R1124J
1212.474	0.001	1310956	DISTRACT_START	n/a	n/a	n/a	-999	8	[0, 0, 0]	n/a	FR1	0	R1124J
1212.475	0.016	1310957	START	n/a	n/a	n/a	-999	8	[-999, -999, -999]	n/a	FR1	0	R1124J
1212.491	11.417	1310973	PROB	11.417	n/a	n/a	-999	8	[5, 3, 7]	15	FR1	0	R1124J
1223.908	7.635	1322390	PROB	7.635	n/a	n/a	-999	8	[5, 7, 3]	15	FR1	0	R1124J
1231.543	4.267	1330025	PROB	4.267	n/a	n/a	-999	8	[2, 2, 2]	6	FR1	0	R1124J
1235.81	0.017	1334292	STOP	n/a	n/a	n/a	-999	8	[-999, -999, -999]	n/a	FR1	0	R1124J
1235.827	1.184	1334309	DISTRACT_END	n/a	n/a	n/a	-999	8	[0, 0, 0]	n/a	FR1	0	R1124J
1237.011	1.802	1335493	REC_START	n/a	n/a	n/a	-999	8	[0, 0, 0]	n/a	FR1	0	R1124J
1238.813	2.837	1337295	REC_WORD	2.837	n/a	GOAT	-999	8	[0, 0, 0]	n/a	FR1	0	R1124J
1241.65	2.516	1340132	REC_WORD	2.516	n/a	JUICE	-999	8	[0, 0, 0]	n/a	FR1	0	R1124J
1244.166	1.76	1342648	REC_WORD	1.76	n/a	PIG	-999	8	[0, 0, 0]	n/a	FR1	0	R1124J
1245.926	2.885	1344408	REC_WORD	2.885	n/a	TAIL	-999	8	[0, 0, 0]	n/a	FR1	0	R1124J
1248.811	18.21	1347293	REC_WORD	18.21	n/a	CALF	-999	8	[0, 0, 0]	n/a	FR1	0	R1124J
1267.021	3.794	1365503	REC_END	n/a	n/a	n/a	-999	8	[0, 0, 0]	n/a	FR1	0	R1124J
1270.815	0.0	1369297	TRIAL	n/a	n/a	n/a	-999	9	[0, 0, 0]	n/a	FR1	0	R1124J
1270.815	10.428	1369297	COUNTDOWN_START	n/a	n/a	n/a	-999	9	[0, 0, 0]	n/a	FR1	0	R1124J
1281.243	0.007	1379725	COUNTDOWN_END	n/a	n/a	n/a	-999	9	[0, 0, 0]	n/a	FR1	0	R1124J
1281.25	3.534	1379732	ORIENT	n/a	n/a	n/a	-999	9	[0, 0, 0]	n/a	FR1	0	R1124J
1284.784	2.533	1383266	WORD	n/a	wordpools/wordpool_EN.txt	LAMP	1	9	[0, 0, 0]	n/a	FR1	0	R1124J
1287.317	2.434	1385799	WORD	n/a	wordpools/wordpool_EN.txt	WHEEL	2	9	[0, 0, 0]	n/a	FR1	0	R1124J
1289.751	2.617	1388233	WORD	n/a	wordpools/wordpool_EN.txt	BAND	3	9	[0, 0, 0]	n/a	FR1	0	R1124J
1292.368	2.417	1390849	WORD	n/a	wordpools/wordpool_EN.txt	CLOWN	4	9	[0, 0, 0]	n/a	FR1	0	R1124J
1294.785	2.534	1393266	WORD	n/a	wordpools/wordpool_EN.txt	CLOCK	5	9	[0, 0, 0]	n/a	FR1	0	R1124J
1297.319	2.565	1395800	WORD	n/a	wordpools/wordpool_EN.txt	ROOM	6	9	[0, 0, 0]	n/a	FR1	0	R1124J
1299.884	2.418	1398365	WORD	n/a	wordpools/wordpool_EN.txt	STREET	7	9	[0, 0, 0]	n/a	FR1	0	R1124J
1302.302	2.401	1400783	WORD	n/a	wordpools/wordpool_EN.txt	BUSH	8	9	[0, 0, 0]	n/a	FR1	0	R1124J
1304.703	2.5	1403184	WORD	n/a	wordpools/wordpool_EN.txt	VAN	9	9	[0, 0, 0]	n/a	FR1	0	R1124J
1307.203	2.4	1405684	WORD	n/a	wordpools/wordpool_EN.txt	YARD	10	9	[0, 0, 0]	n/a	FR1	0	R1124J
1309.603	2.617	1408084	WORD	n/a	wordpools/wordpool_EN.txt	FLUTE	11	9	[0, 0, 0]	n/a	FR1	0	R1124J
1312.22	1.617	1410701	WORD	n/a	wordpools/wordpool_EN.txt	BADGE	12	9	[0, 0, 0]	n/a	FR1	0	R1124J
1313.837	0.001	1412318	DISTRACT_START	n/a	n/a	n/a	-999	9	[0, 0, 0]	n/a	FR1	0	R1124J
1313.838	0.016	1412319	START	n/a	n/a	n/a	-999	9	[-999, -999, -999]	n/a	FR1	0	R1124J
1313.854	7.701	1412335	PROB	7.701	n/a	n/a	-999	9	[5, 1, 5]	11	FR1	0	R1124J
1321.555	9.151	1420036	PROB	9.151	n/a	n/a	-999	9	[4, 6, 9]	19	FR1	0	R1124J
1330.706	5.139	1429187	PROB	5.139	n/a	n/a	-999	9	[3, 5, 4]	12	FR1	0	R1124J
1335.845	0.012	1434326	STOP	n/a	n/a	n/a	-999	9	[-999, -999, -999]	n/a	FR1	0	R1124J
1335.857	1.201	1434338	DISTRACT_END	n/a	n/a	n/a	-999	9	[0, 0, 0]	n/a	FR1	0	R1124J
1337.058	2.668	1435539	REC_START	n/a	n/a	n/a	-999	9	[0, 0, 0]	n/a	FR1	0	R1124J
1339.726	2.153	1438207	REC_WORD	2.153	n/a	CLOWN	-999	9	[0, 0, 0]	n/a	FR1	0	R1124J
1341.879	2.997	1440360	REC_WORD	2.997	n/a	CLOCK	-999	9	[0, 0, 0]	n/a	FR1	0	R1124J
1344.876	11.378	1443357	REC_WORD	11.378	n/a	YARD	-999	9	[0, 0, 0]	n/a	FR1	0	R1124J
1356.254	4.928	1454735	REC_WORD	4.928	n/a	BARN	-999	9	[0, 0, 0]	n/a	FR1	0	R1124J
1361.182	5.883	1459663	REC_WORD	5.883	n/a	LAMP	-999	9	[0, 0, 0]	n/a	FR1	0	R1124J
1367.065	4.596	1465546	REC_END	n/a	n/a	n/a	-999	9	[0, 0, 0]	n/a	FR1	0	R1124J
1371.661	0.0	1470142	TRIAL	n/a	n/a	n/a	-999	10	[0, 0, 0]	n/a	FR1	0	R1124J
1371.661	10.428	1470142	COUNTDOWN_START	n/a	n/a	n/a	-999	10	[0, 0, 0]	n/a	FR1	0	R1124J
1382.089	0.007	1480570	COUNTDOWN_END	n/a	n/a	n/a	-999	10	[0, 0, 0]	n/a	FR1	0	R1124J
1382.096	4.017	1480577	ORIENT	n/a	n/a	n/a	-999	10	[0, 0, 0]	n/a	FR1	0	R1124J
1386.113	2.484	1484594	WORD	n/a	wordpools/wordpool_EN.txt	PEA	1	10	[0, 0, 0]	n/a	FR1	0	R1124J
1388.597	2.55	1487078	WORD	n/a	wordpools/wordpool_EN.txt	BALL	2	10	[0, 0, 0]	n/a	FR1	0	R1124J
1391.147	2.434	1489628	WORD	n/a	wordpools/wordpool_EN.txt	POLE	3	10	[0, 0, 0]	n/a	FR1	0	R1124J
1393.581	2.6	1492062	WORD	n/a	wordpools/wordpool_EN.txt	NAIL	4	10	[0, 0, 0]	n/a	FR1	0	R1124J
1396.181	2.584	1494662	WORD	n/a	wordpools/wordpool_EN.txt	MAP	5	10	[0, 0, 0]	n/a	FR1	0	R1124J
1398.765	2.383	1497246	WORD	n/a	wordpools/wordpool_EN.txt	EAR	6	10	[0, 0, 0]	n/a	FR1	0	R1124J
1401.148	2.584	1499629	WORD	n/a	wordpools/wordpool_EN.txt	BAT	7	10	[0, 0, 0]	n/a	FR1	0	R1124J
1403.732	2.434	1502213	WORD	n/a	wordpools/wordpool_EN.txt	STORM	8	10	[0, 0, 0]	n/a	FR1	0	R1124J
1406.166	2.584	1504647	WORD	n/a	wordpools/wordpool_EN.txt	FUR	9	10	[0, 0, 0]	n/a	FR1	0	R1124J
1408.75	2.55	1507231	WORD	n/a	wordpools/wordpool_EN.txt	KEY	10	10	[0, 0, 0]	n/a	FR1	0	R1124J
1411.3	2.484	1509781	WORD	n/a	wordpools/wordpool_EN.txt	COIN	11	10	[0, 0, 0]	n/a	FR1	0	R1124J
1413.784	1.616	1512265	WORD	n/a	wordpools/wordpool_EN.txt	SAIL	12	10	[0, 0, 0]	n/a	FR1	0	R1124J
1415.4	0.001	1513881	DISTRACT_START	n/a	n/a	n/a	-999	10	[0, 0, 0]	n/a	FR1	0	R1124J
1415.401	0.016	1513882	START	n/a	n/a	n/a	-999	10	[-999, -999, -999]	n/a	FR1	0	R1124J
1415.417	6.234	1513898	PROB	6.234	n/a	n/a	-999	10	[1, 1, 5]	7	FR1	0	R1124J
1421.651	8.518	1520132	PROB	8.518	n/a	n/a	-999	10	[2, 4, 9]	15	FR1	0	R1124J
1430.169	9.12	1528649	PROB	9.12	n/a	n/a	-999	10	[3, 4, 3]	10	FR1	0	R1124J
1439.289	0.015	1537769	STOP	n/a	n/a	n/a	-999	10	[-999, -999, -999]	n/a	FR1	0	R1124J
1439.304	1.067	1537784	DISTRACT_END	n/a	n/a	n/a	-999	10	[0, 0, 0]	n/a	FR1	0	R1124J
1440.371	2.852	1538851	REC_START	n/a	n/a	n/a	-999	10	[0, 0, 0]	n/a	FR1	0	R1124J
1443.223	3.498	1541703	REC_WORD	3.498	n/a	BALL	-999	10	[0, 0, 0]	n/a	FR1	0	R1124J
1446.721	1.614	1545201	REC_WORD	1.614	n/a	BAT	-999	10	[0, 0, 0]	n/a	FR1	0	R1124J
1448.335	3.566	1546815	REC_WORD	3.566	n/a	PEA	-999	10	[0, 0, 0]	n/a	FR1	0	R1124J
1451.901	0.485	1550381	REC_WORD_VV	0.485	n/a	<>	-999	10	[0, 0, 0]	n/a	FR1	0	R1124J
1452.386	2.931	1550866	REC_WORD	2.931	n/a	GALE	-999	10	[0, 0, 0]	n/a	FR1	0	R1124J
1455.317	15.064	1553797	REC_WORD	15.064	n/a	STORM	-999	10	[0, 0, 0]	n/a	FR1	0	R1124J
1470.381	3.827	1568861	REC_END	n/a	n/a	n/a	-999	10	[0, 0, 0]	n/a	FR1	0	R1124J
1474.208	0.0	1572688	COUNTDOWN_START	n/a	n/a	n/a	-999	11	[0, 0, 0]	n/a	FR1	0	R1124J
1474.208	10.428	1572688	TRIAL	n/a	n/a	n/a	-999	11	[0, 0, 0]	n/a	FR1	0	R1124J
1484.636	0.007	1583116	COUNTDOWN_END	n/a	n/a	n/a	-999	11	[0, 0, 0]	n/a	FR1	0	R1124J
1484.643	3.717	1583123	ORIENT	n/a	n/a	n/a	-999	11	[0, 0, 0]	n/a	FR1	0	R1124J
1488.36	2.483	1586840	WORD	n/a	wordpools/wordpool_EN.txt	PLATE	1	11	[0, 0, 0]	n/a	FR1	0	R1124J
1490.843	2.551	1589323	WORD	n/a	wordpools/wordpool_EN.txt	OAR	2	11	[0, 0, 0]	n/a	FR1	0	R1124J
1493.394	2.549	1591874	WORD	n/a	wordpools/wordpool_EN.txt	STRING	3	11	[0, 0, 0]	n/a	FR1	0	R1124J
1495.943	2.535	1594423	WORD	n/a	wordpools/wordpool_EN.txt	TRAY	4	11	[0, 0, 0]	n/a	FR1	0	R1124J
1498.478	2.55	1596958	WORD	n/a	wordpools/wordpool_EN.txt	PURSE	5	11	[0, 0, 0]	n/a	FR1	0	R1124J
1501.028	2.434	1599508	WORD	n/a	wordpools/wordpool_EN.txt	TIE	6	11	[0, 0, 0]	n/a	FR1	0	R1124J
1503.462	2.516	1601942	WORD	n/a	wordpools/wordpool_EN.txt	SHIRT	7	11	[0, 0, 0]	n/a	FR1	0	R1124J
1505.978	2.434	1604458	WORD	n/a	wordpools/wordpool_EN.txt	COUCH	8	11	[0, 0, 0]	n/a	FR1	0	R1124J
1508.412	2.466	1606892	WORD	n/a	wordpools/wordpool_EN.txt	CHIN	9	11	[0, 0, 0]	n/a	FR1	0	R1124J
1510.878	2.402	1609358	WORD	n/a	wordpools/wordpool_EN.txt	LEG	10	11	[0, 0, 0]	n/a	FR1	0	R1124J
1513.28	2.433	1611760	WORD	n/a	wordpools/wordpool_EN.txt	CUP	11	11	[0, 0, 0]	n/a	FR1	0	R1124J
1515.713	1.617	1614193	WORD	n/a	wordpools/wordpool_EN.txt	FORK	12	11	[0, 0, 0]	n/a	FR1	0	R1124J
1517.33	0.001	1615810	DISTRACT_START	n/a	n/a	n/a	-999	11	[0, 0, 0]	n/a	FR1	0	R1124J
1517.331	0.016	1615811	START	n/a	n/a	n/a	-999	11	[-999, -999, -999]	n/a	FR1	0	R1124J
1517.347	24.697	1615827	PROB	24.697	n/a	n/a	-999	11	[9, 7, 8]	25	FR1	0	R1124J
1542.044	0.006	1640524	STOP	n/a	n/a	n/a	-999	11	[-999, -999, -999]	n/a	FR1	0	R1124J
1542.05	1.034	1640530	DISTRACT_END	n/a	n/a	n/a	-999	11	[0, 0, 0]	n/a	FR1	0	R1124J
1543.084	0.252	1641564	REC_START	n/a	n/a	n/a	-999	11	[0, 0, 0]	n/a	FR1	0	R1124J
1543.336	1.805	1641816	REC_WORD_VV	1.805	n/a	<>	-999	11	[0, 0, 0]	n/a	FR1	0	R1124J
1545.141	4.989	1643621	REC_WORD_VV	4.989	n/a	<>	-999	11	[0, 0, 0]	n/a	FR1	0	R1124J
1550.13	2.496	1648610	REC_WORD	2.496	n/a	SHIRT	-999	11	[0, 0, 0]	n/a	FR1	0	R1124J
1552.626	7.505	1651106	REC_WORD_VV	7.505	n/a	<>	-999	11	[0, 0, 0]	n/a	FR1	0	R1124J
1560.131	3.375	1658610	REC_WORD	3.375	n/a	PLATE	-999	11	[0, 0, 0]	n/a	FR1	0	R1124J
1563.506	9.588	1661985	REC_WORD	9.588	n/a	FORK	-999	11	[0, 0, 0]	n/a	FR1	0	R1124J
1573.094	12.462	1671573	REC_END	n/a	n/a	n/a	-999	11	[0, 0, 0]	n/a	FR1	0	R1124J
1585.556	0.0	1684035	TRIAL	n/a	n/a	n/a	-999	12	[0, 0, 0]	n/a	FR1	0	R1124J
1585.556	10.428	1684035	COUNTDOWN_START	n/a	n/a	n/a	-999	12	[0, 0, 0]	n/a	FR1	0	R1124J
1595.984	0.005	1694463	COUNTDOWN_END	n/a	n/a	n/a	-999	12	[0, 0, 0]	n/a	FR1	0	R1124J
1595.989	3.951	1694468	ORIENT	n/a	n/a	n/a	-999	12	[0, 0, 0]	n/a	FR1	0	R1124J
1599.94	2.551	1698419	WORD	n/a	wordpools/wordpool_EN.txt	BOMB	1	12	[0, 0, 0]	n/a	FR1	0	R1124J
1602.491	2.499	1700970	WORD	n/a	wordpools/wordpool_EN.txt	HORSE	2	12	[0, 0, 0]	n/a	FR1	0	R1124J
1604.99	2.485	1703469	WORD	n/a	wordpools/wordpool_EN.txt	STORE	3	12	[0, 0, 0]	n/a	FR1	0	R1124J
1607.475	2.549	1705954	WORD	n/a	wordpools/wordpool_EN.txt	BEAR	4	12	[0, 0, 0]	n/a	FR1	0	R1124J
1610.024	2.518	1708503	WORD	n/a	wordpools/wordpool_EN.txt	STAR	5	12	[0, 0, 0]	n/a	FR1	0	R1124J
1612.542	2.617	1711021	WORD	n/a	wordpools/wordpool_EN.txt	NET	6	12	[0, 0, 0]	n/a	FR1	0	R1124J
1615.159	2.384	1713638	WORD	n/a	wordpools/wordpool_EN.txt	JAIL	7	12	[0, 0, 0]	n/a	FR1	0	R1124J
1617.543	2.466	1716022	WORD	n/a	wordpools/wordpool_EN.txt	CORD	8	12	[0, 0, 0]	n/a	FR1	0	R1124J
1620.009	2.518	1718488	WORD	n/a	wordpools/wordpool_EN.txt	WAVE	9	12	[0, 0, 0]	n/a	FR1	0	R1124J
1622.527	2.499	1721006	WORD	n/a	wordpools/wordpool_EN.txt	SEED	10	12	[0, 0, 0]	n/a	FR1	0	R1124J
1625.026	2.502	1723505	WORD	n/a	wordpools/wordpool_EN.txt	WAND	11	12	[0, 0, 0]	n/a	FR1	0	R1124J
1627.528	1.617	1726007	WORD	n/a	wordpools/wordpool_EN.txt	TRASH	12	12	[0, 0, 0]	n/a	FR1	0	R1124J
1629.145	0.0	1727624	DISTRACT_START	n/a	n/a	n/a	-999	12	[0, 0, 0]	n/a	FR1	0	R1124J
1629.145	0.016	1727624	START	n/a	n/a	n/a	-999	12	[-999, -999, -999]	n/a	FR1	0	R1124J
1629.161	7.868	1727640	PROB	7.868	n/a	n/a	-999	12	[3, 5, 5]	13	FR1	0	R1124J
1637.029	8.668	1735508	PROB	8.668	n/a	n/a	-999	12	[4, 5, 8]	17	FR1	0	R1124J
1645.697	8.088	1744176	PROB	8.088	n/a	n/a	-999	12	[7, 6, 1]	14	FR1	0	R1124J
1653.785	0.012	1752264	STOP	n/a	n/a	n/a	-999	12	[-999, -999, -999]	n/a	FR1	0	R1124J
1653.797	1.068	1752276	DISTRACT_END	n/a	n/a	n/a	-999	12	[0, 0, 0]	n/a	FR1	0	R1124J
1654.865	3.005	1753344	REC_START	n/a	n/a	n/a	-999	12	[0, 0, 0]	n/a	FR1	0	R1124J
1657.87	1.135	1756349	REC_WORD	1.135	n/a	HORSE	-999	12	[0, 0, 0]	n/a	FR1	0	R1124J
1659.005	2.627	1757484	REC_WORD	2.627	n/a	BOMB	-999	12	[0, 0, 0]	n/a	FR1	0	R1124J
1661.632	2.294	1760111	REC_WORD	2.294	n/a	JAIL	-999	12	[0, 0, 0]	n/a	FR1	0	R1124J
1663.926	3.026	1762405	REC_WORD	3.026	n/a	NET	-999	12	[0, 0, 0]	n/a	FR1	0	R1124J
1666.952	17.922	1765431	REC_WORD	17.922	n/a	CORD	-999	12	[0, 0, 0]	n/a	FR1	0	R1124J
1684.874	6.328	1783353	REC_END	n/a	n/a	n/a	-999	12	[0, 0, 0]	n/a	FR1	0	R1124J
1691.202	0.0	1789681	COUNTDOWN_START	n/a	n/a	n/a	-999	13	[0, 0, 0]	n/a	FR1	0	R1124J
1691.202	10.428	1789681	TRIAL	n/a	n/a	n/a	-999	13	[0, 0, 0]	n/a	FR1	0	R1124J
1701.63	0.007	1800108	COUNTDOWN_END	n/a	n/a	n/a	-999	13	[0, 0, 0]	n/a	FR1	0	R1124J
1701.637	3.784	1800115	ORIENT	n/a	n/a	n/a	-999	13	[0, 0, 0]	n/a	FR1	0	R1124J
1705.421	2.634	1803899	WORD	n/a	wordpools/wordpool_EN.txt	GUARD	1	13	[0, 0, 0]	n/a	FR1	0	R1124J
1708.055	2.45	1806533	WORD	n/a	wordpools/wordpool_EN.txt	FENCE	2	13	[0, 0, 0]	n/a	FR1	0	R1124J
1710.505	2.416	1808983	WORD	n/a	wordpools/wordpool_EN.txt	MAZE	3	13	[0, 0, 0]	n/a	FR1	0	R1124J
1712.921	2.551	1811399	WORD	n/a	wordpools/wordpool_EN.txt	RIB	4	13	[0, 0, 0]	n/a	FR1	0	R1124J
1715.472	2.416	1813950	WORD	n/a	wordpools/wordpool_EN.txt	HAT	5	13	[0, 0, 0]	n/a	FR1	0	R1124J
1717.888	2.601	1816366	WORD	n/a	wordpools/wordpool_EN.txt	NOSE	6	13	[0, 0, 0]	n/a	FR1	0	R1124J
1720.489	2.4	1818967	WORD	n/a	wordpools/wordpool_EN.txt	ROAD	7	13	[0, 0, 0]	n/a	FR1	0	R1124J
1722.889	2.451	1821367	WORD	n/a	wordpools/wordpool_EN.txt	HILL	8	13	[0, 0, 0]	n/a	FR1	0	R1124J
1725.34	2.384	1823818	WORD	n/a	wordpools/wordpool_EN.txt	VEST	9	13	[0, 0, 0]	n/a	FR1	0	R1124J
1727.724	2.483	1826202	WORD	n/a	wordpools/wordpool_EN.txt	SWORD	10	13	[0, 0, 0]	n/a	FR1	0	R1124J
1730.207	2.551	1828685	WORD	n/a	wordpools/wordpool_EN.txt	HORN	11	13	[0, 0, 0]	n/a	FR1	0	R1124J
1732.758	1.617	1831236	WORD	n/a	wordpools/wordpool_EN.txt	FLAME	12	13	[0, 0, 0]	n/a	FR1	0	R1124J
1734.375	0.0	1832853	DISTRACT_START	n/a	n/a	n/a	-999	13	[0, 0, 0]	n/a	FR1	0	R1124J
1734.375	0.016	1832853	START	n/a	n/a	n/a	-999	13	[-999, -999, -999]	n/a	FR1	0	R1124J
1734.391	10.402	1832869	PROB	10.402	n/a	n/a	-999	13	[2, 1, 9]	12	FR1	0	R1124J
1744.793	10.819	1843271	PROB	10.819	n/a	n/a	-999	13	[5, 6, 9]	20	FR1	0	R1124J
1755.612	0.015	1854090	STOP	n/a	n/a	n/a	-999	13	[-999, -999, -999]	n/a	FR1	0	R1124J
1755.627	1.101	1854105	DISTRACT_END	n/a	n/a	n/a	-999	13	[0, 0, 0]	n/a	FR1	0	R1124J
1756.728	2.603	1855206	REC_START	n/a	n/a	n/a	-999	13	[0, 0, 0]	n/a	FR1	0	R1124J
1759.331	2.795	1857809	REC_WORD	2.795	n/a	GUARD	-999	13	[0, 0, 0]	n/a	FR1	0	R1124J
1762.126	24.616	1860604	REC_WORD	24.616	n/a	FENCE	-999	13	[0, 0, 0]	n/a	FR1	0	R1124J
1786.742	6.873	1885220	REC_END	n/a	n/a	n/a	-999	13	[0, 0, 0]	n/a	FR1	0	R1124J
1793.615	0.0	1892093	TRIAL	n/a	n/a	n/a	-999	14	[0, 0, 0]	n/a	FR1	0	R1124J
1793.615	10.428	1892093	COUNTDOWN_START	n/a	n/a	n/a	-999	14	[0, 0, 0]	n/a	FR1	0	R1124J
1804.043	0.007	1902521	COUNTDOWN_END	n/a	n/a	n/a	-999	14	[0, 0, 0]	n/a	FR1	0	R1124J
1804.05	3.451	1902528	ORIENT	n/a	n/a	n/a	-999	14	[0, 0, 0]	n/a	FR1	0	R1124J
1807.501	2.583	1905979	WORD	n/a	wordpools/wordpool_EN.txt	SPRING	1	14	[0, 0, 0]	n/a	FR1	0	R1124J
1810.084	2.45	1908562	WORD	n/a	wordpools/wordpool_EN.txt	SLEEVE	2	14	[0, 0, 0]	n/a	FR1	0	R1124J
1812.534	2.433	1911012	WORD	n/a	wordpools/wordpool_EN.txt	PRINCE	3	14	[0, 0, 0]	n/a	FR1	0	R1124J
1814.967	2.501	1913445	WORD	n/a	wordpools/wordpool_EN.txt	SHARK	4	14	[0, 0, 0]	n/a	FR1	0	R1124J
1817.468	2.5	1915946	WORD	n/a	wordpools/wordpool_EN.txt	BOOT	5	14	[0, 0, 0]	n/a	FR1	0	R1124J
1819.968	2.418	1918446	WORD	n/a	wordpools/wordpool_EN.txt	CROWN	6	14	[0, 0, 0]	n/a	FR1	0	R1124J
1822.386	2.533	1920864	WORD	n/a	wordpools/wordpool_EN.txt	BLOOM	7	14	[0, 0, 0]	n/a	FR1	0	R1124J
1824.919	2.567	1923397	WORD	n/a	wordpools/wordpool_EN.txt	TREE	8	14	[0, 0, 0]	n/a	FR1	0	R1124J
1827.486	2.567	1925963	WORD	n/a	wordpools/wordpool_EN.txt	HOSE	9	14	[0, 0, 0]	n/a	FR1	0	R1124J
1830.053	2.384	1928530	WORD	n/a	wordpools/wordpool_EN.txt	RAKE	10	14	[0, 0, 0]	n/a	FR1	0	R1124J
1832.437	2.466	1930914	WORD	n/a	wordpools/wordpool_EN.txt	TOOTH	11	14	[0, 0, 0]	n/a	FR1	0	R1124J
1834.903	1.601	1933380	WORD	n/a	wordpools/wordpool_EN.txt	CROW	12	14	[0, 0, 0]	n/a	FR1	0	R1124J
1836.504	0.001	1934981	DISTRACT_START	n/a	n/a	n/a	-999	14	[0, 0, 0]	n/a	FR1	0	R1124J
1836.505	0.016	1934982	START	n/a	n/a	n/a	-999	14	[-999, -999, -999]	n/a	FR1	0	R1124J
1836.521	9.417	1934998	PROB	9.417	n/a	n/a	-999	14	[2, 7, 5]	14	FR1	0	R1124J
1845.938	9.669	1944415	PROB	9.669	n/a	n/a	-999	14	[6, 4, 5]	15	FR1	0	R1124J
1855.607	9.225	1954084	PROB	9.225	n/a	n/a	-999	14	[3, 4, 6]	13	FR1	0	R1124J
1864.832	0.009	1963309	STOP	n/a	n/a	n/a	-999	14	[-999, -999, -999]	n/a	FR1	0	R1124J
1864.841	1.133	1963318	DISTRACT_END	n/a	n/a	n/a	-999	14	[0, 0, 0]	n/a	FR1	0	R1124J
1865.974	6.63	1964451	REC_START	n/a	n/a	n/a	-999	14	[0, 0, 0]	n/a	FR1	0	R1124J
1872.604	1.732	1971081	REC_WORD	1.732	n/a	ROAD	-999	14	[0, 0, 0]	n/a	FR1	0	R1124J
1874.336	9.055	1972813	REC_WORD	9.055	n/a	HILL	-999	14	[0, 0, 0]	n/a	FR1	0	R1124J
1883.391	1.0	1981868	REC_WORD	1.0	n/a	SLEEVE	-999	14	[0, 0, 0]	n/a	FR1	0	R1124J
1884.391	7.415	1982868	REC_WORD_VV	7.415	n/a	<>	-999	14	[0, 0, 0]	n/a	FR1	0	R1124J
1891.806	4.182	1990283	REC_WORD	4.182	n/a	BOOT	-999	14	[0, 0, 0]	n/a	FR1	0	R1124J
1895.988	162.161	1994465	REC_END	n/a	n/a	n/a	-999	14	[0, 0, 0]	n/a	FR1	0	R1124J
2058.149	0.0	2156625	TRIAL	n/a	n/a	n/a	-999	15	[0, 0, 0]	n/a	FR1	0	R1124J
2058.149	10.428	2156625	COUNTDOWN_START	n/a	n/a	n/a	-999	15	[0, 0, 0]	n/a	FR1	0	R1124J
2068.577	0.007	2167053	COUNTDOWN_END	n/a	n/a	n/a	-999	15	[0, 0, 0]	n/a	FR1	0	R1124J
2068.584	3.634	2167060	ORIENT	n/a	n/a	n/a	-999	15	[0, 0, 0]	n/a	FR1	0	R1124J
2072.218	2.45	2170694	WORD	n/a	wordpools/wordpool_EN.txt	DRUM	1	15	[0, 0, 0]	n/a	FR1	0	R1124J
2074.668	2.451	2173144	WORD	n/a	wordpools/wordpool_EN.txt	FILM	2	15	[0, 0, 0]	n/a	FR1	0	R1124J
2077.119	2.583	2175595	WORD	n/a	wordpools/wordpool_EN.txt	BANK	3	15	[0, 0, 0]	n/a	FR1	0	R1124J
2079.702	2.417	2178178	WORD	n/a	wordpools/wordpool_EN.txt	FLAG	4	15	[0, 0, 0]	n/a	FR1	0	R1124J
2082.119	2.4	2180595	WORD	n/a	wordpools/wordpool_EN.txt	INK	5	15	[0, 0, 0]	n/a	FR1	0	R1124J
2084.519	2.433	2182995	WORD	n/a	wordpools/wordpool_EN.txt	SHEET	6	15	[0, 0, 0]	n/a	FR1	0	R1124J
2086.952	2.418	2185428	WORD	n/a	wordpools/wordpool_EN.txt	JUDGE	7	15	[0, 0, 0]	n/a	FR1	0	R1124J
2089.37	2.384	2187846	WORD	n/a	wordpools/wordpool_EN.txt	CASH	8	15	[0, 0, 0]	n/a	FR1	0	R1124J
2091.754	2.517	2190230	WORD	n/a	wordpools/wordpool_EN.txt	CAR	9	15	[0, 0, 0]	n/a	FR1	0	R1124J
2094.271	2.4	2192746	WORD	n/a	wordpools/wordpool_EN.txt	EEL	10	15	[0, 0, 0]	n/a	FR1	0	R1124J
2096.671	2.584	2195146	WORD	n/a	wordpools/wordpool_EN.txt	BRANCH	11	15	[0, 0, 0]	n/a	FR1	0	R1124J
2099.255	1.616	2197730	WORD	n/a	wordpools/wordpool_EN.txt	FARM	12	15	[0, 0, 0]	n/a	FR1	0	R1124J
2100.871	0.001	2199346	DISTRACT_START	n/a	n/a	n/a	-999	15	[0, 0, 0]	n/a	FR1	0	R1124J
2100.872	0.015	2199347	START	n/a	n/a	n/a	-999	15	[-999, -999, -999]	n/a	FR1	0	R1124J
2100.887	13.32	2199362	PROB	13.32	n/a	n/a	-999	15	[8, 4, 3]	15	FR1	0	R1124J
2114.207	10.646	2212682	PROB	10.646	n/a	n/a	-999	15	[6, 5, 4]	15	FR1	0	R1124J
2124.853	0.005	2223328	STOP	n/a	n/a	n/a	-999	15	[-999, -999, -999]	n/a	FR1	0	R1124J
2124.858	1.149	2223333	DISTRACT_END	n/a	n/a	n/a	-999	15	[0, 0, 0]	n/a	FR1	0	R1124J
2126.007	1.675	2224482	REC_START	n/a	n/a	n/a	-999	15	[0, 0, 0]	n/a	FR1	0	R1124J
2127.682	2.358	2226157	REC_WORD	2.358	n/a	DRUM	-999	15	[0, 0, 0]	n/a	FR1	0	R1124J
2130.04	2.883	2228515	REC_WORD	2.883	n/a	FILM	-999	15	[0, 0, 0]	n/a	FR1	0	R1124J
2132.923	4.005	2231398	REC_WORD	4.005	n/a	FLAG	-999	15	[0, 0, 0]	n/a	FR1	0	R1124J
2136.928	4.484	2235403	REC_WORD	4.484	n/a	CASH	-999	15	[0, 0, 0]	n/a	FR1	0	R1124J
2141.412	14.608	2239887	REC_WORD	14.608	n/a	CAR	-999	15	[0, 0, 0]	n/a	FR1	0	R1124J
2156.02	3.242	2254495	REC_END	n/a	n/a	n/a	-999	15	[0, 0, 0]	n/a	FR1	0	R1124J
2159.262	0.0	2257737	TRIAL	n/a	n/a	n/a	-999	16	[0, 0, 0]	n/a	FR1	0	R1124J
2159.262	10.428	2257737	COUNTDOWN_START	n/a	n/a	n/a	-999	16	[0, 0, 0]	n/a	FR1	0	R1124J
2169.69	0.007	2268165	COUNTDOWN_END	n/a	n/a	n/a	-999	16	[0, 0, 0]	n/a	FR1	0	R1124J
2169.697	3.7	2268172	ORIENT	n/a	n/a	n/a	-999	16	[0, 0, 0]	n/a	FR1	0	R1124J
2173.397	2.5	2271872	WORD	n/a	wordpools/wordpool_EN.txt	HOOK	1	16	[0, 0, 0]	n/a	FR1	0	R1124J
2175.897	2.418	2274372	WORD	n/a	wordpools/wordpool_EN.txt	RAIN	2	16	[0, 0, 0]	n/a	FR1	0	R1124J
2178.315	2.517	2276790	WORD	n/a	wordpools/wordpool_EN.txt	FOAM	3	16	[0, 0, 0]	n/a	FR1	0	R1124J
2180.832	2.383	2279307	WORD	n/a	wordpools/wordpool_EN.txt	AXE	4	16	[0, 0, 0]	n/a	FR1	0	R1124J
2183.215	2.501	2281690	WORD	n/a	wordpools/wordpool_EN.txt	WEB	5	16	[0, 0, 0]	n/a	FR1	0	R1124J
2185.716	2.417	2284191	WORD	n/a	wordpools/wordpool_EN.txt	WING	6	16	[0, 0, 0]	n/a	FR1	0	R1124J
2188.133	2.567	2286608	WORD	n/a	wordpools/wordpool_EN.txt	FOG	7	16	[0, 0, 0]	n/a	FR1	0	R1124J
2190.7	2.567	2289175	WORD	n/a	wordpools/wordpool_EN.txt	SNOW	8	16	[0, 0, 0]	n/a	FR1	0	R1124J
2193.267	2.433	2291742	WORD	n/a	wordpools/wordpool_EN.txt	FUDGE	9	16	[0, 0, 0]	n/a	FR1	0	R1124J
2195.7	2.484	2294175	WORD	n/a	wordpools/wordpool_EN.txt	ICE	10	16	[0, 0, 0]	n/a	FR1	0	R1124J
2198.184	2.567	2296659	WORD	n/a	wordpools/wordpool_EN.txt	CLOUD	11	16	[0, 0, 0]	n/a	FR1	0	R1124J
2200.751	1.617	2299226	WORD	n/a	wordpools/wordpool_EN.txt	SUN	12	16	[0, 0, 0]	n/a	FR1	0	R1124J
2202.368	0.0	2300843	DISTRACT_START	n/a	n/a	n/a	-999	16	[0, 0, 0]	n/a	FR1	0	R1124J
2202.368	0.017	2300843	START	n/a	n/a	n/a	-999	16	[-999, -999, -999]	n/a	FR1	0	R1124J
2202.385	8.951	2300860	PROB	8.951	n/a	n/a	-999	16	[2, 1, 6]	9	FR1	0	R1124J
2211.336	9.851	2309811	PROB	9.851	n/a	n/a	-999	16	[9, 5, 4]	18	FR1	0	R1124J
2221.187	7.325	2319662	PROB	7.325	n/a	n/a	-999	16	[2, 4, 5]	11	FR1	0	R1124J
2228.512	0.009	2326986	STOP	n/a	n/a	n/a	-999	16	[-999, -999, -999]	n/a	FR1	0	R1124J
2228.521	1.034	2326995	DISTRACT_END	n/a	n/a	n/a	-999	16	[0, 0, 0]	n/a	FR1	0	R1124J
2229.555	2.566	2328029	REC_START	n/a	n/a	n/a	-999	16	[0, 0, 0]	n/a	FR1	0	R1124J
2232.121	3.757	2330595	REC_WORD	3.757	n/a	HOOK	-999	16	[0, 0, 0]	n/a	FR1	0	R1124J
2235.878	3.725	2334352	REC_WORD	3.725	n/a	CLOUD	-999	16	[0, 0, 0]	n/a	FR1	0	R1124J
2239.603	5.527	2338077	REC_WORD	5.527	n/a	ICE	-999	16	[0, 0, 0]	n/a	FR1	0	R1124J
2245.13	14.435	2343604	REC_WORD	14.435	n/a	SNOW	-999	16	[0, 0, 0]	n/a	FR1	0	R1124J
2259.565	4.511	2358039	REC_END	n/a	n/a	n/a	-999	16	[0, 0, 0]	n/a	FR1	0	R1124J
2264.076	0.0	2362550	TRIAL	n/a	n/a	n/a	-999	17	[0, 0, 0]	n/a	FR1	0	R1124J
2264.076	10.428	2362550	COUNTDOWN_START	n/a	n/a	n/a	-999	17	[0, 0, 0]	n/a	FR1	0	R1124J
2274.504	0.007	2372978	COUNTDOWN_END	n/a	n/a	n/a	-999	17	[0, 0, 0]	n/a	FR1	0	R1124J
2274.511	3.833	2372985	ORIENT	n/a	n/a	n/a	-999	17	[0, 0, 0]	n/a	FR1	0	R1124J
2278.344	2.484	2376818	WORD	n/a	wordpools/wordpool_EN.txt	COW	1	17	[0, 0, 0]	n/a	FR1	0	R1124J
2280.828	2.617	2379302	WORD	n/a	wordpools/wordpool_EN.txt	WORLD	2	17	[0, 0, 0]	n/a	FR1	0	R1124J
2283.445	2.6	2381919	WORD	n/a	wordpools/wordpool_EN.txt	FOX	3	17	[0, 0, 0]	n/a	FR1	0	R1124J
2286.045	2.584	2384519	WORD	n/a	wordpools/wordpool_EN.txt	MOTH	4	17	[0, 0, 0]	n/a	FR1	0	R1124J
2288.629	2.4	2387103	WORD	n/a	wordpools/wordpool_EN.txt	NEST	5	17	[0, 0, 0]	n/a	FR1	0	R1124J
2291.029	2.384	2389503	WORD	n/a	wordpools/wordpool_EN.txt	SNAIL	6	17	[0, 0, 0]	n/a	FR1	0	R1124J
2293.413	2.45	2391887	WORD	n/a	wordpools/wordpool_EN.txt	ANT	7	17	[0, 0, 0]	n/a	FR1	0	R1124J
2295.863	2.467	2394337	WORD	n/a	wordpools/wordpool_EN.txt	CLIFF	8	17	[0, 0, 0]	n/a	FR1	0	R1124J
2298.33	2.633	2396804	WORD	n/a	wordpools/wordpool_EN.txt	STONE	9	17	[0, 0, 0]	n/a	FR1	0	R1124J
2300.963	2.401	2399437	WORD	n/a	wordpools/wordpool_EN.txt	TOE	10	17	[0, 0, 0]	n/a	FR1	0	R1124J
2303.364	2.401	2401838	WORD	n/a	wordpools/wordpool_EN.txt	MOLE	11	17	[0, 0, 0]	n/a	FR1	0	R1124J
2305.765	1.616	2404239	WORD	n/a	wordpools/wordpool_EN.txt	FACE	12	17	[0, 0, 0]	n/a	FR1	0	R1124J
2307.381	0.001	2405855	DISTRACT_START	n/a	n/a	n/a	-999	17	[0, 0, 0]	n/a	FR1	0	R1124J
2307.382	0.016	2405856	START	n/a	n/a	n/a	-999	17	[-999, -999, -999]	n/a	FR1	0	R1124J
2307.398	8.235	2405872	PROB	8.235	n/a	n/a	-999	17	[1, 9, 6]	16	FR1	0	R1124J
2315.633	10.534	2414107	PROB	10.534	n/a	n/a	-999	17	[5, 7, 7]	19	FR1	0	R1124J
2326.167	7.877	2424641	PROB	7.877	n/a	n/a	-999	17	[7, 3, 1]	11	FR1	0	R1124J
2334.044	0.007	2432518	STOP	n/a	n/a	n/a	-999	17	[-999, -999, -999]	n/a	FR1	0	R1124J
2334.051	1.202	2432525	DISTRACT_END	n/a	n/a	n/a	-999	17	[0, 0, 0]	n/a	FR1	0	R1124J
2335.253	3.269	2433727	REC_START	n/a	n/a	n/a	-999	17	[0, 0, 0]	n/a	FR1	0	R1124J
2338.522	2.856	2436996	REC_WORD	2.856	n/a	COW	-999	17	[0, 0, 0]	n/a	FR1	0	R1124J
2341.378	3.463	2439852	REC_WORD	3.463	n/a	MOTH	-999	17	[0, 0, 0]	n/a	FR1	0	R1124J
2344.841	5.028	2443315	REC_WORD	5.028	n/a	TOE	-999	17	[0, 0, 0]	n/a	FR1	0	R1124J
2349.869	15.393	2448343	REC_WORD	15.393	n/a	CLOUD	-999	17	[0, 0, 0]	n/a	FR1	0	R1124J
2365.262	4.41	2463735	REC_END	n/a	n/a	n/a	-999	17	[0, 0, 0]	n/a	FR1	0	R1124J
2369.672	0.0	2468145	TRIAL	n/a	n/a	n/a	-999	18	[0, 0, 0]	n/a	FR1	0	R1124J
2369.672	10.428	2468145	COUNTDOWN_START	n/a	n/a	n/a	-999	18	[0, 0, 0]	n/a	FR1	0	R1124J
2380.1	0.007	2478573	COUNTDOWN_END	n/a	n/a	n/a	-999	18	[0, 0, 0]	n/a	FR1	0	R1124J
2380.107	3.617	2478580	ORIENT	n/a	n/a	n/a	-999	18	[0, 0, 0]	n/a	FR1	0	R1124J
2383.724	2.551	2482197	WORD	n/a	wordpools/wordpool_EN.txt	JEEP	1	18	[0, 0, 0]	n/a	FR1	0	R1124J
2386.275	2.5	2484748	WORD	n/a	wordpools/wordpool_EN.txt	FORT	2	18	[0, 0, 0]	n/a	FR1	0	R1124J
2388.775	2.617	2487248	WORD	n/a	wordpools/wordpool_EN.txt	SEAL	3	18	[0, 0, 0]	n/a	FR1	0	R1124J
2391.392	2.549	2489865	WORD	n/a	wordpools/wordpool_EN.txt	GOLD	4	18	[0, 0, 0]	n/a	FR1	0	R1124J
2393.941	2.585	2492414	WORD	n/a	wordpools/wordpool_EN.txt	CORN	5	18	[0, 0, 0]	n/a	FR1	0	R1124J
2396.526	2.567	2494999	WORD	n/a	wordpools/wordpool_EN.txt	CLAY	6	18	[0, 0, 0]	n/a	FR1	0	R1124J
2399.093	2.384	2497566	WORD	n/a	wordpools/wordpool_EN.txt	SPEAR	7	18	[0, 0, 0]	n/a	FR1	0	R1124J
2401.477	2.449	2499950	WORD	n/a	wordpools/wordpool_EN.txt	WHALE	8	18	[0, 0, 0]	n/a	FR1	0	R1124J
2403.926	2.435	2502399	WORD	n/a	wordpools/wordpool_EN.txt	SKI	9	18	[0, 0, 0]	n/a	FR1	0	R1124J
2406.361	2.5	2504834	WORD	n/a	wordpools/wordpool_EN.txt	SHIELD	10	18	[0, 0, 0]	n/a	FR1	0	R1124J
2408.861	2.567	2507334	WORD	n/a	wordpools/wordpool_EN.txt	CAVE	11	18	[0, 0, 0]	n/a	FR1	0	R1124J
2411.428	1.617	2509901	WORD	n/a	wordpools/wordpool_EN.txt	LAND	12	18	[0, 0, 0]	n/a	FR1	0	R1124J
2413.045	0.0	2511518	DISTRACT_START	n/a	n/a	n/a	-999	18	[0, 0, 0]	n/a	FR1	0	R1124J
2413.045	0.016	2511518	START	n/a	n/a	n/a	-999	18	[-999, -999, -999]	n/a	FR1	0	R1124J
2413.061	23.443	2511534	PROB	23.443	n/a	n/a	-999	18	[6, 7, 7]	20	FR1	0	R1124J
2436.504	0.011	2534977	STOP	n/a	n/a	n/a	-999	18	[-999, -999, -999]	n/a	FR1	0	R1124J
2436.515	1.034	2534988	DISTRACT_END	n/a	n/a	n/a	-999	18	[0, 0, 0]	n/a	FR1	0	R1124J
2437.549	24.513	2536022	REC_START	n/a	n/a	n/a	-999	18	[0, 0, 0]	n/a	FR1	0	R1124J
2462.062	1.0	2560535	REC_WORD_VV	1.0	n/a	<>	-999	18	[0, 0, 0]	n/a	FR1	0	R1124J
2463.062	1.0	2561535	REC_WORD_VV	1.0	n/a	<>	-999	18	[0, 0, 0]	n/a	FR1	0	R1124J
2464.062	1.0	2562535	REC_WORD_VV	1.0	n/a	<>	-999	18	[0, 0, 0]	n/a	FR1	0	R1124J
2465.062	1.356	2563535	REC_WORD_VV	1.356	n/a	<>	-999	18	[0, 0, 0]	n/a	FR1	0	R1124J
2466.418	1.0	2564891	REC_WORD_VV	1.0	n/a	<>	-999	18	[0, 0, 0]	n/a	FR1	0	R1124J
2467.418	0.141	2565891	REC_WORD_VV	0.141	n/a	<>	-999	18	[0, 0, 0]	n/a	FR1	0	R1124J
2467.559	199.935	2566032	REC_END	n/a	n/a	n/a	-999	18	[0, 0, 0]	n/a	FR1	0	R1124J
2667.494	0.0	2765965	TRIAL	n/a	n/a	n/a	-999	19	[0, 0, 0]	n/a	FR1	0	R1124J
2667.494	10.428	2765965	COUNTDOWN_START	n/a	n/a	n/a	-999	19	[0, 0, 0]	n/a	FR1	0	R1124J
2677.922	0.006	2776393	COUNTDOWN_END	n/a	n/a	n/a	-999	19	[0, 0, 0]	n/a	FR1	0	R1124J
2677.928	3.701	2776399	ORIENT	n/a	n/a	n/a	-999	19	[0, 0, 0]	n/a	FR1	0	R1124J
2681.629	2.584	2780100	WORD	n/a	wordpools/wordpool_EN.txt	SALT	1	19	[0, 0, 0]	n/a	FR1	0	R1124J
2684.213	2.584	2782684	WORD	n/a	wordpools/wordpool_EN.txt	SHIP	2	19	[0, 0, 0]	n/a	FR1	0	R1124J
2686.797	2.583	2785268	WORD	n/a	wordpools/wordpool_EN.txt	TRAIN	3	19	[0, 0, 0]	n/a	FR1	0	R1124J
2689.38	2.6	2787851	WORD	n/a	wordpools/wordpool_EN.txt	BED	4	19	[0, 0, 0]	n/a	FR1	0	R1124J
2691.98	2.584	2790451	WORD	n/a	wordpools/wordpool_EN.txt	MAIL	5	19	[0, 0, 0]	n/a	FR1	0	R1124J
2694.564	2.501	2793035	WORD	n/a	wordpools/wordpool_EN.txt	HOOF	6	19	[0, 0, 0]	n/a	FR1	0	R1124J
2697.065	2.6	2795536	WORD	n/a	wordpools/wordpool_EN.txt	SHELL	7	19	[0, 0, 0]	n/a	FR1	0	R1124J
2699.665	2.567	2798136	WORD	n/a	wordpools/wordpool_EN.txt	PEARL	8	19	[0, 0, 0]	n/a	FR1	0	R1124J
2702.232	2.384	2800703	WORD	n/a	wordpools/wordpool_EN.txt	SEA	9	19	[0, 0, 0]	n/a	FR1	0	R1124J
2704.616	2.483	2803087	WORD	n/a	wordpools/wordpool_EN.txt	EGG	10	19	[0, 0, 0]	n/a	FR1	0	R1124J
2707.099	2.434	2805570	WORD	n/a	wordpools/wordpool_EN.txt	HEART	11	19	[0, 0, 0]	n/a	FR1	0	R1124J
2709.533	1.617	2808004	WORD	n/a	wordpools/wordpool_EN.txt	BEACH	12	19	[0, 0, 0]	n/a	FR1	0	R1124J
2711.15	0.0	2809621	DISTRACT_START	n/a	n/a	n/a	-999	19	[0, 0, 0]	n/a	FR1	0	R1124J
2711.15	0.016	2809621	START	n/a	n/a	n/a	-999	19	[-999, -999, -999]	n/a	FR1	0	R1124J
2711.166	7.068	2809637	PROB	7.068	n/a	n/a	-999	19	[3, 4, 2]	9	FR1	0	R1124J
2718.234	6.584	2816705	PROB	6.584	n/a	n/a	-999	19	[7, 6, 7]	20	FR1	0	R1124J
2724.818	7.506	2823289	PROB	7.506	n/a	n/a	-999	19	[2, 5, 9]	16	FR1	0	R1124J
2732.324	0.012	2830795	STOP	n/a	n/a	n/a	-999	19	[-999, -999, -999]	n/a	FR1	0	R1124J
2732.336	1.134	2830807	DISTRACT_END	n/a	n/a	n/a	-999	19	[0, 0, 0]	n/a	FR1	0	R1124J
2733.47	1.467	2831941	REC_START	n/a	n/a	n/a	-999	19	[0, 0, 0]	n/a	FR1	0	R1124J
2734.937	1.698	2833408	REC_WORD	1.698	n/a	SALT	-999	19	[0, 0, 0]	n/a	FR1	0	R1124J
2736.635	3.047	2835106	REC_WORD	3.047	n/a	SHIP	-999	19	[0, 0, 0]	n/a	FR1	0	R1124J
2739.682	2.768	2838153	REC_WORD	2.768	n/a	TRAIN	-999	19	[0, 0, 0]	n/a	FR1	0	R1124J
2742.45	3.042	2840921	REC_WORD	3.042	n/a	BED	-999	19	[0, 0, 0]	n/a	FR1	0	R1124J
2745.492	3.491	2843963	REC_WORD	3.491	n/a	SEA	-999	19	[0, 0, 0]	n/a	FR1	0	R1124J
2748.983	14.497	2847454	REC_WORD	14.497	n/a	EGG	-999	19	[0, 0, 0]	n/a	FR1	0	R1124J
2763.48	3.794	2861950	REC_END	n/a	n/a	n/a	-999	19	[0, 0, 0]	n/a	FR1	0	R1124J
2767.274	0.0	2865744	TRIAL	n/a	n/a	n/a	-999	20	[0, 0, 0]	n/a	FR1	0	R1124J
2767.274	10.428	2865744	COUNTDOWN_START	n/a	n/a	n/a	-999	20	[0, 0, 0]	n/a	FR1	0	R1124J
2777.702	0.006	2876172	COUNTDOWN_END	n/a	n/a	n/a	-999	20	[0, 0, 0]	n/a	FR1	0	R1124J
2777.708	3.784	2876178	ORIENT	n/a	n/a	n/a	-999	20	[0, 0, 0]	n/a	FR1	0	R1124J
2781.492	2.482	2879962	WORD	n/a	wordpools/wordpool_EN.txt	GLASS	1	20	[0, 0, 0]	n/a	FR1	0	R1124J
2783.974	2.486	2882444	WORD	n/a	wordpools/wordpool_EN.txt	FROG	2	20	[0, 0, 0]	n/a	FR1	0	R1124J
2786.46	2.6	2884930	WORD	n/a	wordpools/wordpool_EN.txt	JET	3	20	[0, 0, 0]	n/a	FR1	0	R1124J
2789.06	2.617	2887530	WORD	n/a	wordpools/wordpool_EN.txt	TANK	4	20	[0, 0, 0]	n/a	FR1	0	R1124J
2791.677	2.417	2890147	WORD	n/a	wordpools/wordpool_EN.txt	SHRIMP	5	20	[0, 0, 0]	n/a	FR1	0	R1124J
2794.094	2.533	2892564	WORD	n/a	wordpools/wordpool_EN.txt	SKY	6	20	[0, 0, 0]	n/a	FR1	0	R1124J
2796.627	2.518	2895097	WORD	n/a	wordpools/wordpool_EN.txt	FISH	7	20	[0, 0, 0]	n/a	FR1	0	R1124J
2799.145	2.45	2897615	WORD	n/a	wordpools/wordpool_EN.txt	DEER	8	20	[0, 0, 0]	n/a	FR1	0	R1124J
2801.595	2.617	2900065	WORD	n/a	wordpools/wordpool_EN.txt	POND	9	20	[0, 0, 0]	n/a	FR1	0	R1124J
2804.212	2.567	2902682	WORD	n/a	wordpools/wordpool_EN.txt	SPONGE	10	20	[0, 0, 0]	n/a	FR1	0	R1124J
2806.779	2.384	2905249	WORD	n/a	wordpools/wordpool_EN.txt	PIPE	11	20	[0, 0, 0]	n/a	FR1	0	R1124J
2809.163	1.616	2907633	WORD	n/a	wordpools/wordpool_EN.txt	MOON	12	20	[0, 0, 0]	n/a	FR1	0	R1124J
2810.779	0.001	2909249	DISTRACT_START	n/a	n/a	n/a	-999	20	[0, 0, 0]	n/a	FR1	0	R1124J
2810.78	0.016	2909250	START	n/a	n/a	n/a	-999	20	[-999, -999, -999]	n/a	FR1	0	R1124J
2810.796	16.419	2909266	PROB	16.419	n/a	n/a	-999	20	[7, 6, 4]	17	FR1	0	R1124J
2827.215	7.936	2925685	PROB	7.936	n/a	n/a	-999	20	[2, 4, 5]	11	FR1	0	R1124J
2835.151	0.015	2933621	STOP	n/a	n/a	n/a	-999	20	[-999, -999, -999]	n/a	FR1	0	R1124J
2835.166	1.117	2933636	DISTRACT_END	n/a	n/a	n/a	-999	20	[0, 0, 0]	n/a	FR1	0	R1124J
2836.283	9.585	2934753	REC_START	n/a	n/a	n/a	-999	20	[0, 0, 0]	n/a	FR1	0	R1124J
2845.868	5.321	2944338	REC_WORD	5.321	n/a	PIPE	-999	20	[0, 0, 0]	n/a	FR1	0	R1124J
2851.189	3.024	2949659	REC_WORD	3.024	n/a	SALT	-999	20	[0, 0, 0]	n/a	FR1	0	R1124J
2854.213	5.645	2952683	REC_WORD	5.645	n/a	SHIP	-999	20	[0, 0, 0]	n/a	FR1	0	R1124J
2859.858	6.439	2958328	REC_WORD	6.439	n/a	SNAIL	-999	20	[0, 0, 0]	n/a	FR1	0	R1124J
2866.297	3.973	2964767	REC_END	n/a	n/a	n/a	-999	20	[0, 0, 0]	n/a	FR1	0	R1124J
2870.27	0.0	2968740	TRIAL	n/a	n/a	n/a	-999	21	[0, 0, 0]	n/a	FR1	0	R1124J
2870.27	10.428	2968740	COUNTDOWN_START	n/a	n/a	n/a	-999	21	[0, 0, 0]	n/a	FR1	0	R1124J
2880.698	0.007	2979168	COUNTDOWN_END	n/a	n/a	n/a	-999	21	[0, 0, 0]	n/a	FR1	0	R1124J
2880.705	3.584	2979175	ORIENT	n/a	n/a	n/a	-999	21	[0, 0, 0]	n/a	FR1	0	R1124J
2884.289	2.433	2982759	WORD	n/a	wordpools/wordpool_EN.txt	ROCK	1	21	[0, 0, 0]	n/a	FR1	0	R1124J
2886.722	2.534	2985192	WORD	n/a	wordpools/wordpool_EN.txt	TOY	2	21	[0, 0, 0]	n/a	FR1	0	R1124J
2889.256	2.567	2987726	WORD	n/a	wordpools/wordpool_EN.txt	CAT	3	21	[0, 0, 0]	n/a	FR1	0	R1124J
2891.823	2.384	2990293	WORD	n/a	wordpools/wordpool_EN.txt	PLANE	4	21	[0, 0, 0]	n/a	FR1	0	R1124J
2894.207	2.483	2992677	WORD	n/a	wordpools/wordpool_EN.txt	SQUARE	5	21	[0, 0, 0]	n/a	FR1	0	R1124J
2896.69	2.617	2995159	WORD	n/a	wordpools/wordpool_EN.txt	WORM	6	21	[0, 0, 0]	n/a	FR1	0	R1124J
2899.307	2.616	2997776	WORD	n/a	wordpools/wordpool_EN.txt	TOOL	7	21	[0, 0, 0]	n/a	FR1	0	R1124J
2901.923	2.518	3000392	WORD	n/a	wordpools/wordpool_EN.txt	TEETH	8	21	[0, 0, 0]	n/a	FR1	0	R1124J
2904.441	2.45	3002910	WORD	n/a	wordpools/wordpool_EN.txt	PEAR	9	21	[0, 0, 0]	n/a	FR1	0	R1124J
2906.891	2.601	3005360	WORD	n/a	wordpools/wordpool_EN.txt	RAT	10	21	[0, 0, 0]	n/a	FR1	0	R1124J
2909.492	2.449	3007961	WORD	n/a	wordpools/wordpool_EN.txt	CONE	11	21	[0, 0, 0]	n/a	FR1	0	R1124J
2911.941	1.618	3010410	WORD	n/a	wordpools/wordpool_EN.txt	CAPE	12	21	[0, 0, 0]	n/a	FR1	0	R1124J
2913.559	0.0	3012028	DISTRACT_START	n/a	n/a	n/a	-999	21	[0, 0, 0]	n/a	FR1	0	R1124J
2913.559	0.017	3012028	START	n/a	n/a	n/a	-999	21	[-999, -999, -999]	n/a	FR1	0	R1124J
2913.576	13.001	3012045	PROB	13.001	n/a	n/a	-999	21	[6, 8, 7]	21	FR1	0	R1124J
2926.577	9.579	3025046	PROB	9.579	n/a	n/a	-999	21	[4, 7, 2]	13	FR1	0	R1124J
2936.156	0.006	3034625	STOP	n/a	n/a	n/a	-999	21	[-999, -999, -999]	n/a	FR1	0	R1124J
2936.162	1.218	3034631	DISTRACT_END	n/a	n/a	n/a	-999	21	[0, 0, 0]	n/a	FR1	0	R1124J
2937.38	10.196	3035849	REC_START	n/a	n/a	n/a	-999	21	[0, 0, 0]	n/a	FR1	0	R1124J
2947.576	2.144	3046045	REC_WORD	2.144	n/a	TEETH	-999	21	[0, 0, 0]	n/a	FR1	0	R1124J
2949.72	17.67	3048189	REC_WORD	17.67	n/a	PEAR	-999	21	[0, 0, 0]	n/a	FR1	0	R1124J
2967.39	24.179	3065859	REC_END	n/a	n/a	n/a	-999	21	[0, 0, 0]	n/a	FR1	0	R1124J
2991.569	0.0	3090038	COUNTDOWN_START	n/a	n/a	n/a	-999	22	[0, 0, 0]	n/a	FR1	0	R1124J
2991.569	10.428	3090038	TRIAL	n/a	n/a	n/a	-999	22	[0, 0, 0]	n/a	FR1	0	R1124J
3001.997	0.006	3100466	COUNTDOWN_END	n/a	n/a	n/a	-999	22	[0, 0, 0]	n/a	FR1	0	R1124J
3002.003	3.818	3100472	ORIENT	n/a	n/a	n/a	-999	22	[0, 0, 0]	n/a	FR1	0	R1124J
3005.821	2.6	3104290	WORD	n/a	wordpools/wordpool_EN.txt	STAIR	1	22	[0, 0, 0]	n/a	FR1	0	R1124J
3008.421	2.549	3106890	WORD	n/a	wordpools/wordpool_EN.txt	TRUCK	2	22	[0, 0, 0]	n/a	FR1	0	R1124J
3010.97	2.552	3109439	WORD	n/a	wordpools/wordpool_EN.txt	BRICK	3	22	[0, 0, 0]	n/a	FR1	0	R1124J
3013.522	2.383	3111991	WORD	n/a	wordpools/wordpool_EN.txt	CART	4	22	[0, 0, 0]	n/a	FR1	0	R1124J
3015.905	2.384	3114374	WORD	n/a	wordpools/wordpool_EN.txt	ROPE	5	22	[0, 0, 0]	n/a	FR1	0	R1124J
3018.289	2.567	3116758	WORD	n/a	wordpools/wordpool_EN.txt	HOUSE	6	22	[0, 0, 0]	n/a	FR1	0	R1124J
3020.856	2.584	3119325	WORD	n/a	wordpools/wordpool_EN.txt	BLUSH	7	22	[0, 0, 0]	n/a	FR1	0	R1124J
3023.44	2.499	3121909	WORD	n/a	wordpools/wordpool_EN.txt	STRAW	8	22	[0, 0, 0]	n/a	FR1	0	R1124J
3025.939	2.402	3124408	WORD	n/a	wordpools/wordpool_EN.txt	FLOOR	9	22	[0, 0, 0]	n/a	FR1	0	R1124J
3028.341	2.4	3126810	WORD	n/a	wordpools/wordpool_EN.txt	BAG	10	22	[0, 0, 0]	n/a	FR1	0	R1124J
3030.741	2.633	3129209	WORD	n/a	wordpools/wordpool_EN.txt	HAND	11	22	[0, 0, 0]	n/a	FR1	0	R1124J
3033.374	1.616	3131842	WORD	n/a	wordpools/wordpool_EN.txt	MUD	12	22	[0, 0, 0]	n/a	FR1	0	R1124J
3034.99	0.001	3133458	DISTRACT_START	n/a	n/a	n/a	-999	22	[0, 0, 0]	n/a	FR1	0	R1124J
3034.991	0.016	3133459	START	n/a	n/a	n/a	-999	22	[-999, -999, -999]	n/a	FR1	0	R1124J
3035.007	12.819	3133475	PROB	12.819	n/a	n/a	-999	22	[9, 3, 1]	13	FR1	0	R1124J
3047.826	11.004	3146294	PROB	11.004	n/a	n/a	-999	22	[1, 9, 4]	14	FR1	0	R1124J
3058.83	0.015	3157298	STOP	n/a	n/a	n/a	-999	22	[-999, -999, -999]	n/a	FR1	0	R1124J
3058.845	1.115	3157313	DISTRACT_END	n/a	n/a	n/a	-999	22	[0, 0, 0]	n/a	FR1	0	R1124J
3059.96	2.403	3158428	REC_START	n/a	n/a	n/a	-999	22	[0, 0, 0]	n/a	FR1	0	R1124J
3062.363	3.484	3160831	REC_WORD	3.484	n/a	STAIR	-999	22	[0, 0, 0]	n/a	FR1	0	R1124J
3065.847	4.777	3164315	REC_WORD	4.777	n/a	TRUCK	-999	22	[0, 0, 0]	n/a	FR1	0	R1124J
3070.624	4.075	3169092	REC_WORD	4.075	n/a	BRICK	-999	22	[0, 0, 0]	n/a	FR1	0	R1124J
3074.699	3.306	3173167	REC_WORD	3.306	n/a	ROPE	-999	22	[0, 0, 0]	n/a	FR1	0	R1124J
3078.005	11.969	3176473	REC_WORD	11.969	n/a	HOUSE	-999	22	[0, 0, 0]	n/a	FR1	0	R1124J
3089.974	16.593	3188442	REC_END	n/a	n/a	n/a	-999	22	[0, 0, 0]	n/a	FR1	0	R1124J
3106.567	0.0	3205035	TRIAL	n/a	n/a	n/a	-999	23	[0, 0, 0]	n/a	FR1	0	R1124J
3106.567	10.428	3205035	COUNTDOWN_START	n/a	n/a	n/a	-999	23	[0, 0, 0]	n/a	FR1	0	R1124J
3116.995	0.006	3215463	COUNTDOWN_END	n/a	n/a	n/a	-999	23	[0, 0, 0]	n/a	FR1	0	R1124J
3117.001	3.651	3215469	ORIENT	n/a	n/a	n/a	-999	23	[0, 0, 0]	n/a	FR1	0	R1124J
3120.652	2.467	3219120	WORD	n/a	wordpools/wordpool_EN.txt	DRESS	1	23	[0, 0, 0]	n/a	FR1	0	R1124J
3123.119	2.484	3221587	WORD	n/a	wordpools/wordpool_EN.txt	CAGE	2	23	[0, 0, 0]	n/a	FR1	0	R1124J
3125.603	2.45	3224071	WORD	n/a	wordpools/wordpool_EN.txt	CHEEK	3	23	[0, 0, 0]	n/a	FR1	0	R1124J
3128.053	2.55	3226521	WORD	n/a	wordpools/wordpool_EN.txt	ARK	4	23	[0, 0, 0]	n/a	FR1	0	R1124J
3130.603	2.518	3229071	WORD	n/a	wordpools/wordpool_EN.txt	BOWL	5	23	[0, 0, 0]	n/a	FR1	0	R1124J
3133.121	2.5	3231589	WORD	n/a	wordpools/wordpool_EN.txt	SKUNK	6	23	[0, 0, 0]	n/a	FR1	0	R1124J
3135.621	2.567	3234089	WORD	n/a	wordpools/wordpool_EN.txt	GRASS	7	23	[0, 0, 0]	n/a	FR1	0	R1124J
3138.188	2.5	3236656	WORD	n/a	wordpools/wordpool_EN.txt	PIE	8	23	[0, 0, 0]	n/a	FR1	0	R1124J
3140.688	2.484	3239156	WORD	n/a	wordpools/wordpool_EN.txt	LAMB	9	23	[0, 0, 0]	n/a	FR1	0	R1124J
3143.172	2.467	3241640	WORD	n/a	wordpools/wordpool_EN.txt	CAKE	10	23	[0, 0, 0]	n/a	FR1	0	R1124J
3145.639	2.517	3244107	WORD	n/a	wordpools/wordpool_EN.txt	BARN	11	23	[0, 0, 0]	n/a	FR1	0	R1124J
3148.156	1.616	3246624	WORD	n/a	wordpools/wordpool_EN.txt	CHAIR	12	23	[0, 0, 0]	n/a	FR1	0	R1124J
3149.772	0.001	3248240	DISTRACT_START	n/a	n/a	n/a	-999	23	[0, 0, 0]	n/a	FR1	0	R1124J
3149.773	0.016	3248241	START	n/a	n/a	n/a	-999	23	[-999, -999, -999]	n/a	FR1	0	R1124J
3149.789	11.852	3248257	PROB	11.852	n/a	n/a	-999	23	[5, 3, 7]	15	FR1	0	R1124J
3161.641	6.401	3260109	PROB	6.401	n/a	n/a	-999	23	[3, 3, 6]	12	FR1	0	R1124J
3168.042	8.352	3266509	PROB	8.352	n/a	n/a	-999	23	[2, 6, 2]	10	FR1	0	R1124J
3176.394	0.015	3274861	STOP	n/a	n/a	n/a	-999	23	[-999, -999, -999]	n/a	FR1	0	R1124J
3176.409	1.201	3274876	DISTRACT_END	n/a	n/a	n/a	-999	23	[0, 0, 0]	n/a	FR1	0	R1124J
3177.61	2.976	3276077	REC_START	n/a	n/a	n/a	-999	23	[0, 0, 0]	n/a	FR1	0	R1124J
3180.586	2.641	3279053	REC_WORD	2.641	n/a	DRESS	-999	23	[0, 0, 0]	n/a	FR1	0	R1124J
3183.227	3.691	3281694	REC_WORD	3.691	n/a	CART	-999	23	[0, 0, 0]	n/a	FR1	0	R1124J
3186.918	4.141	3285385	REC_WORD	4.141	n/a	CHEEK	-999	23	[0, 0, 0]	n/a	FR1	0	R1124J
3191.059	4.686	3289526	REC_WORD	4.686	n/a	ARK	-999	23	[0, 0, 0]	n/a	FR1	0	R1124J
3195.745	4.667	3294212	REC_WORD	4.667	n/a	CHAIR	-999	23	[0, 0, 0]	n/a	FR1	0	R1124J
3200.412	7.211	3298879	REC_WORD	7.211	n/a	LAMB	-999	23	[0, 0, 0]	n/a	FR1	0	R1124J
3207.623	3.791	3306090	REC_END	n/a	n/a	n/a	-999	23	[0, 0, 0]	n/a	FR1	0	R1124J
3211.414	0.0	3309881	TRIAL	n/a	n/a	n/a	-999	24	[0, 0, 0]	n/a	FR1	0	R1124J
3211.414	10.428	3309881	COUNTDOWN_START	n/a	n/a	n/a	-999	24	[0, 0, 0]	n/a	FR1	0	R1124J
3221.842	0.007	3320309	COUNTDOWN_END	n/a	n/a	n/a	-999	24	[0, 0, 0]	n/a	FR1	0	R1124J
3221.849	3.55	3320316	ORIENT	n/a	n/a	n/a	-999	24	[0, 0, 0]	n/a	FR1	0	R1124J
3225.399	2.45	3323866	WORD	n/a	wordpools/wordpool_EN.txt	CHALK	1	24	[0, 0, 0]	n/a	FR1	0	R1124J
3227.849	2.584	3326316	WORD	n/a	wordpools/wordpool_EN.txt	DUCK	2	24	[0, 0, 0]	n/a	FR1	0	R1124J
3230.433	2.566	3328900	WORD	n/a	wordpools/wordpool_EN.txt	DOG	3	24	[0, 0, 0]	n/a	FR1	0	R1124J
3232.999	2.418	3331466	WORD	n/a	wordpools/wordpool_EN.txt	MOOSE	4	24	[0, 0, 0]	n/a	FR1	0	R1124J
3235.417	2.599	3333884	WORD	n/a	wordpools/wordpool_EN.txt	OWL	5	24	[0, 0, 0]	n/a	FR1	0	R1124J
3238.016	2.402	3336483	WORD	n/a	wordpools/wordpool_EN.txt	HEN	6	24	[0, 0, 0]	n/a	FR1	0	R1124J
3240.418	2.466	3338885	WORD	n/a	wordpools/wordpool_EN.txt	PET	7	24	[0, 0, 0]	n/a	FR1	0	R1124J
3242.884	2.401	3341351	WORD	n/a	wordpools/wordpool_EN.txt	HAWK	8	24	[0, 0, 0]	n/a	FR1	0	R1124J
3245.285	2.417	3343752	WORD	n/a	wordpools/wordpool_EN.txt	POOL	9	24	[0, 0, 0]	n/a	FR1	0	R1124J
3247.702	2.467	3346169	WORD	n/a	wordpools/wordpool_EN.txt	ZOO	10	24	[0, 0, 0]	n/a	FR1	0	R1124J
3250.169	2.6	3348636	WORD	n/a	wordpools/wordpool_EN.txt	PEN	11	24	[0, 0, 0]	n/a	FR1	0	R1124J
3252.769	1.617	3351236	WORD	n/a	wordpools/wordpool_EN.txt	FLEA	12	24	[0, 0, 0]	n/a	FR1	0	R1124J
3254.386	0.0	3352853	DISTRACT_START	n/a	n/a	n/a	-999	24	[0, 0, 0]	n/a	FR1	0	R1124J
3254.386	0.017	3352853	START	n/a	n/a	n/a	-999	24	[-999, -999, -999]	n/a	FR1	0	R1124J
3254.403	7.234	3352870	PROB	7.234	n/a	n/a	-999	24	[2, 2, 2]	6	FR1	0	R1124J
3261.637	6.718	3360104	PROB	6.718	n/a	n/a	-999	24	[6, 1, 9]	16	FR1	0	R1124J
3268.355	6.65	3366822	PROB	6.65	n/a	n/a	-999	24	[7, 3, 7]	17	FR1	0	R1124J
3275.005	0.016	3373472	STOP	n/a	n/a	n/a	-999	24	[-999, -999, -999]	n/a	FR1	0	R1124J
3275.021	1.185	3373488	DISTRACT_END	n/a	n/a	n/a	-999	24	[0, 0, 0]	n/a	FR1	0	R1124J
3276.206	3.945	3374673	REC_START	n/a	n/a	n/a	-999	24	[0, 0, 0]	n/a	FR1	0	R1124J
3280.151	3.058	3378618	REC_WORD	3.058	n/a	CHALK	-999	24	[0, 0, 0]	n/a	FR1	0	R1124J
3283.209	4.441	3381676	REC_WORD	4.441	n/a	GEESE	-999	24	[0, 0, 0]	n/a	FR1	0	R1124J
3287.65	3.045	3386117	REC_WORD	3.045	n/a	OWL	-999	24	[0, 0, 0]	n/a	FR1	0	R1124J
3290.695	15.525	3389162	REC_WORD	15.525	n/a	PEN	-999	24	[0, 0, 0]	n/a	FR1	0	R1124J
3306.22	5.772	3404686	REC_END	n/a	n/a	n/a	-999	24	[0, 0, 0]	n/a	FR1	0	R1124J
3311.992	0.0	3410458	TRIAL	n/a	n/a	n/a	-999	25	[0, 0, 0]	n/a	FR1	0	R1124J
3311.992	10.428	3410458	COUNTDOWN_START	n/a	n/a	n/a	-999	25	[0, 0, 0]	n/a	FR1	0	R1124J
3322.42	0.008	3420886	COUNTDOWN_END	n/a	n/a	n/a	-999	25	[0, 0, 0]	n/a	FR1	0	R1124J
3322.428	3.701	3420894	ORIENT	n/a	n/a	n/a	-999	25	[0, 0, 0]	n/a	FR1	0	R1124J
3326.129	2.483	3424595	WORD	n/a	wordpools/wordpool_EN.txt	PHONE	1	25	[0, 0, 0]	n/a	FR1	0	R1124J
3328.612	2.383	3427078	WORD	n/a	wordpools/wordpool_EN.txt	SHEEP	2	25	[0, 0, 0]	n/a	FR1	0	R1124J
3330.995	2.385	3429461	WORD	n/a	wordpools/wordpool_EN.txt	STOOL	3	25	[0, 0, 0]	n/a	FR1	0	R1124J
3333.38	2.4	3431846	WORD	n/a	wordpools/wordpool_EN.txt	CUBE	4	25	[0, 0, 0]	n/a	FR1	0	R1124J
3335.78	2.584	3434246	WORD	n/a	wordpools/wordpool_EN.txt	LEAF	5	25	[0, 0, 0]	n/a	FR1	0	R1124J
3338.364	2.515	3436830	WORD	n/a	wordpools/wordpool_EN.txt	FOOD	6	25	[0, 0, 0]	n/a	FR1	0	R1124J
3340.879	2.602	3439345	WORD	n/a	wordpools/wordpool_EN.txt	PLANT	7	25	[0, 0, 0]	n/a	FR1	0	R1124J
3343.481	2.499	3441947	WORD	n/a	wordpools/wordpool_EN.txt	THREAD	8	25	[0, 0, 0]	n/a	FR1	0	R1124J
3345.98	2.568	3444446	WORD	n/a	wordpools/wordpool_EN.txt	STEM	9	25	[0, 0, 0]	n/a	FR1	0	R1124J
3348.548	2.534	3447014	WORD	n/a	wordpools/wordpool_EN.txt	RICE	10	25	[0, 0, 0]	n/a	FR1	0	R1124J
3351.082	2.584	3449548	WORD	n/a	wordpools/wordpool_EN.txt	BEAN	11	25	[0, 0, 0]	n/a	FR1	0	R1124J
3353.666	1.616	3452132	WORD	n/a	wordpools/wordpool_EN.txt	SOUP	12	25	[0, 0, 0]	n/a	FR1	0	R1124J
3355.282	0.001	3453748	DISTRACT_START	n/a	n/a	n/a	-999	25	[0, 0, 0]	n/a	FR1	0	R1124J
3355.283	0.016	3453749	START	n/a	n/a	n/a	-999	25	[-999, -999, -999]	n/a	FR1	0	R1124J
3355.299	9.667	3453765	PROB	9.667	n/a	n/a	-999	25	[9, 3, 9]	21	FR1	0	R1124J
3364.966	5.251	3463432	PROB	5.251	n/a	n/a	-999	25	[8, 2, 2]	12	FR1	0	R1124J
3370.217	5.448	3468683	PROB	5.448	n/a	n/a	-999	25	[7, 6, 7]	20	FR1	0	R1124J
3375.665	0.003	3474131	STOP	n/a	n/a	n/a	-999	25	[-999, -999, -999]	n/a	FR1	0	R1124J
3375.668	1.118	3474134	DISTRACT_END	n/a	n/a	n/a	-999	25	[0, 0, 0]	n/a	FR1	0	R1124J
3376.786	3.81	3475252	REC_START	n/a	n/a	n/a	-999	25	[0, 0, 0]	n/a	FR1	0	R1124J
3380.596	2.293	3479062	REC_WORD	2.293	n/a	SHEEP	-999	25	[0, 0, 0]	n/a	FR1	0	R1124J
3382.889	2.855	3481355	REC_WORD	2.855	n/a	STOOL	-999	25	[0, 0, 0]	n/a	FR1	0	R1124J
3385.744	2.643	3484210	REC_WORD	2.643	n/a	FOOD	-999	25	[0, 0, 0]	n/a	FR1	0	R1124J
3388.387	2.634	3486853	REC_WORD	2.634	n/a	PLANT	-999	25	[0, 0, 0]	n/a	FR1	0	R1124J
3391.021	15.775	3489487	REC_WORD	15.775	n/a	PHONE	-999	25	[0, 0, 0]	n/a	FR1	0	R1124J
3406.796	18.545	3505262	REC_END	n/a	n/a	n/a	-999	25	[0, 0, 0]	n/a	FR1	0	R1124J
3425.341	0.0	3523807	SESS_END	n/a	n/a	n/a	-999	25	[0, 0, 0]	n/a	FR1	0	R1124J
