onset	duration	sample	trial_type	response_time	stim_file	item_name	serialpos	list	test	answer	experiment	session	subject
0.0	40.119	171874	SESS_START	n/a	n/a	n/a	-999	-999	[0, 0, 0]	n/a	FR1	2	R1112M
40.119	10.428	191933	COUNTDOWN_START	n/a	n/a	n/a	-999	-999	[0, 0, 0]	n/a	FR1	2	R1112M
50.547	3.826	197147	COUNTDOWN_END	n/a	n/a	n/a	-999	-999	[0, 0, 0]	n/a	FR1	2	R1112M
54.373	2.399	199059	PRACTICE_WORD	n/a	n/a	COTTON	1	-1	[0, 0, 0]	n/a	FR1	2	R1112M
56.772	2.468	200259	PRACTICE_WORD	n/a	n/a	RING	2	-1	[0, 0, 0]	n/a	FR1	2	R1112M
59.24	2.4	201493	PRACTICE_WORD	n/a	n/a	TONGUE	3	-1	[0, 0, 0]	n/a	FR1	2	R1112M
61.64	2.45	202693	PRACTICE_WORD	n/a	n/a	WATCH	4	-1	[0, 0, 0]	n/a	FR1	2	R1112M
64.09	2.452	203918	PRACTICE_WORD	n/a	n/a	CAMEL	5	-1	[0, 0, 0]	n/a	FR1	2	R1112M
66.542	2.483	205144	PRACTICE_WORD	n/a	n/a	ATTIC	6	-1	[0, 0, 0]	n/a	FR1	2	R1112M
69.025	2.6	206385	PRACTICE_WORD	n/a	n/a	FLOOD	7	-1	[0, 0, 0]	n/a	FR1	2	R1112M
71.625	2.552	207685	PRACTICE_WORD	n/a	n/a	RHINO	8	-1	[0, 0, 0]	n/a	FR1	2	R1112M
74.177	2.599	208961	PRACTICE_WORD	n/a	n/a	WAGON	9	-1	[0, 0, 0]	n/a	FR1	2	R1112M
76.776	2.568	210260	PRACTICE_WORD	n/a	n/a	CHEST	10	-1	[0, 0, 0]	n/a	FR1	2	R1112M
79.344	2.466	211544	PRACTICE_WORD	n/a	n/a	BEAM	11	-1	[0, 0, 0]	n/a	FR1	2	R1112M
81.81	1.602	212777	PRACTICE_WORD	n/a	n/a	IRON	12	-1	[0, 0, 0]	n/a	FR1	2	R1112M
83.412	0.0	213578	PRACTICE_DISTRACT_START	n/a	n/a	n/a	-999	-1	[0, 0, 0]	n/a	FR1	2	R1112M
83.412	0.016	213578	START	n/a	n/a	n/a	-999	-1	[-999, -999, -999]	n/a	FR1	2	R1112M
83.428	8.218	213586	PROB	8.218	n/a	n/a	-999	-1	[2, 5, 2]	9	FR1	2	R1112M
91.646	7.852	217695	PROB	7.852	n/a	n/a	-999	-1	[2, 6, 8]	16	FR1	2	R1112M
99.498	17.4	221621	PROB	17.4	n/a	n/a	-999	-1	[2, 9, 7]	18	FR1	2	R1112M
116.898	0.019	230320	STOP	n/a	n/a	n/a	-999	-1	[-999, -999, -999]	n/a	FR1	2	R1112M
116.917	0.521	230330	PRACTICE_DISTRACT_END	n/a	n/a	n/a	-999	-1	[0, 0, 0]	n/a	FR1	2	R1112M
117.438	30.513	230590	PRACTICE_REC_START	n/a	n/a	n/a	-999	-1	[0, 0, 0]	n/a	FR1	2	R1112M
147.951	34.096	245846	PRACTICE_REC_END	n/a	n/a	n/a	-999	-1	[0, 0, 0]	n/a	FR1	2	R1112M
182.047	0.0	262893	TRIAL	n/a	n/a	n/a	-999	1	[0, 0, 0]	n/a	FR1	2	R1112M
182.047	10.428	262893	COUNTDOWN_START	n/a	n/a	n/a	-999	1	[0, 0, 0]	n/a	FR1	2	R1112M
192.475	0.008	268107	COUNTDOWN_END	n/a	n/a	n/a	-999	1	[0, 0, 0]	n/a	FR1	2	R1112M
192.483	2.583	268111	ORIENT	n/a	n/a	n/a	-999	1	[0, 0, 0]	n/a	FR1	2	R1112M
195.066	2.418	269402	WORD	n/a	wordpools/wordpool_EN.txt	KEY	1	1	[0, 0, 0]	n/a	FR1	2	R1112M
197.484	2.616	270611	WORD	n/a	wordpools/wordpool_EN.txt	MAP	2	1	[0, 0, 0]	n/a	FR1	2	R1112M
200.1	2.402	271919	WORD	n/a	wordpools/wordpool_EN.txt	CLOWN	3	1	[0, 0, 0]	n/a	FR1	2	R1112M
202.502	2.382	273120	WORD	n/a	wordpools/wordpool_EN.txt	FRUIT	4	1	[0, 0, 0]	n/a	FR1	2	R1112M
204.884	2.569	274311	WORD	n/a	wordpools/wordpool_EN.txt	FISH	5	1	[0, 0, 0]	n/a	FR1	2	R1112M
207.453	2.566	275595	WORD	n/a	wordpools/wordpool_EN.txt	CHIEF	6	1	[0, 0, 0]	n/a	FR1	2	R1112M
210.019	2.567	276878	WORD	n/a	wordpools/wordpool_EN.txt	MILK	7	1	[0, 0, 0]	n/a	FR1	2	R1112M
212.586	2.45	278161	WORD	n/a	wordpools/wordpool_EN.txt	SHARK	8	1	[0, 0, 0]	n/a	FR1	2	R1112M
215.036	2.518	279386	WORD	n/a	wordpools/wordpool_EN.txt	FORT	9	1	[0, 0, 0]	n/a	FR1	2	R1112M
217.554	2.5	280645	WORD	n/a	wordpools/wordpool_EN.txt	SEA	10	1	[0, 0, 0]	n/a	FR1	2	R1112M
220.054	2.567	281895	WORD	n/a	wordpools/wordpool_EN.txt	JUDGE	11	1	[0, 0, 0]	n/a	FR1	2	R1112M
222.621	1.601	283179	WORD	n/a	wordpools/wordpool_EN.txt	PASTE	12	1	[0, 0, 0]	n/a	FR1	2	R1112M
224.222	0.001	283979	DISTRACT_START	n/a	n/a	n/a	-999	1	[0, 0, 0]	n/a	FR1	2	R1112M
224.223	0.016	283980	START	n/a	n/a	n/a	-999	1	[-999, -999, -999]	n/a	FR1	2	R1112M
224.239	12.352	283988	PROB	12.352	n/a	n/a	-999	1	[4, 1, 6]	11	FR1	2	R1112M
236.591	8.772	290163	PROB	8.772	n/a	n/a	-999	1	[1, 3, 1]	5	FR1	2	R1112M
245.363	0.014	294549	STOP	n/a	n/a	n/a	-999	1	[-999, -999, -999]	n/a	FR1	2	R1112M
245.377	1.055	294556	DISTRACT_END	n/a	n/a	n/a	-999	1	[0, 0, 0]	n/a	FR1	2	R1112M
246.432	5.218	295083	REC_START	n/a	n/a	n/a	-999	1	[0, 0, 0]	n/a	FR1	2	R1112M
251.65	6.126	297692	REC_WORD	6.126	n/a	SEA	10	1	[0, 0, 0]	n/a	FR1	2	R1112M
257.776	18.663	300755	REC_WORD	18.663	n/a	SHARK	8	1	[0, 0, 0]	n/a	FR1	2	R1112M
276.439	6.945	310086	REC_END	n/a	n/a	n/a	-999	1	[0, 0, 0]	n/a	FR1	2	R1112M
283.384	0.0	313558	TRIAL	n/a	n/a	n/a	-999	2	[0, 0, 0]	n/a	FR1	2	R1112M
283.384	10.428	313558	COUNTDOWN_START	n/a	n/a	n/a	-999	2	[0, 0, 0]	n/a	FR1	2	R1112M
293.812	0.006	318772	COUNTDOWN_END	n/a	n/a	n/a	-999	2	[0, 0, 0]	n/a	FR1	2	R1112M
293.818	2.502	318775	ORIENT	n/a	n/a	n/a	-999	2	[0, 0, 0]	n/a	FR1	2	R1112M
296.32	2.599	320026	WORD	n/a	wordpools/wordpool_EN.txt	SMILE	1	2	[0, 0, 0]	n/a	FR1	2	R1112M
298.919	2.552	321325	WORD	n/a	wordpools/wordpool_EN.txt	FAN	2	2	[0, 0, 0]	n/a	FR1	2	R1112M
301.471	2.499	322601	WORD	n/a	wordpools/wordpool_EN.txt	CART	3	2	[0, 0, 0]	n/a	FR1	2	R1112M
303.97	2.584	323851	WORD	n/a	wordpools/wordpool_EN.txt	SEAT	4	2	[0, 0, 0]	n/a	FR1	2	R1112M
306.554	2.451	325143	WORD	n/a	wordpools/wordpool_EN.txt	BOX	5	2	[0, 0, 0]	n/a	FR1	2	R1112M
309.005	2.384	326368	WORD	n/a	wordpools/wordpool_EN.txt	GLOVE	6	2	[0, 0, 0]	n/a	FR1	2	R1112M
311.389	2.566	327560	WORD	n/a	wordpools/wordpool_EN.txt	WAND	7	2	[0, 0, 0]	n/a	FR1	2	R1112M
313.955	2.402	328843	WORD	n/a	wordpools/wordpool_EN.txt	ARM	8	2	[0, 0, 0]	n/a	FR1	2	R1112M
316.357	2.433	330044	WORD	n/a	wordpools/wordpool_EN.txt	BAG	9	2	[0, 0, 0]	n/a	FR1	2	R1112M
318.79	2.568	331260	WORD	n/a	wordpools/wordpool_EN.txt	BROOM	10	2	[0, 0, 0]	n/a	FR1	2	R1112M
321.358	2.599	332544	WORD	n/a	wordpools/wordpool_EN.txt	FENCE	11	2	[0, 0, 0]	n/a	FR1	2	R1112M
323.957	1.617	333844	WORD	n/a	wordpools/wordpool_EN.txt	SIGN	12	2	[0, 0, 0]	n/a	FR1	2	R1112M
325.574	0.001	334652	DISTRACT_START	n/a	n/a	n/a	-999	2	[0, 0, 0]	n/a	FR1	2	R1112M
325.575	0.016	334653	START	n/a	n/a	n/a	-999	2	[-999, -999, -999]	n/a	FR1	2	R1112M
325.591	66.115	334661	PROB	66.115	n/a	n/a	-999	2	[4, 8, 9]	16	FR1	2	R1112M
391.706	0.015	367716	STOP	n/a	n/a	n/a	-999	2	[-999, -999, -999]	n/a	FR1	2	R1112M
391.721	1.234	367724	DISTRACT_END	n/a	n/a	n/a	-999	2	[0, 0, 0]	n/a	FR1	2	R1112M
392.955	11.173	368341	REC_START	n/a	n/a	n/a	-999	2	[0, 0, 0]	n/a	FR1	2	R1112M
404.128	18.837	373927	REC_WORD	18.837	n/a	BROOM	10	2	[0, 0, 0]	n/a	FR1	2	R1112M
422.965	6.88	383345	REC_END	n/a	n/a	n/a	-999	2	[0, 0, 0]	n/a	FR1	2	R1112M
429.845	0.0	386785	TRIAL	n/a	n/a	n/a	-999	3	[0, 0, 0]	n/a	FR1	2	R1112M
429.845	10.428	386785	COUNTDOWN_START	n/a	n/a	n/a	-999	3	[0, 0, 0]	n/a	FR1	2	R1112M
440.273	0.008	391998	COUNTDOWN_END	n/a	n/a	n/a	-999	3	[0, 0, 0]	n/a	FR1	2	R1112M
440.281	2.449	392002	ORIENT	n/a	n/a	n/a	-999	3	[0, 0, 0]	n/a	FR1	2	R1112M
442.73	2.401	393227	WORD	n/a	wordpools/wordpool_EN.txt	JET	1	3	[0, 0, 0]	n/a	FR1	2	R1112M
445.131	2.533	394427	WORD	n/a	wordpools/wordpool_EN.txt	FILM	2	3	[0, 0, 0]	n/a	FR1	2	R1112M
447.664	2.536	395694	WORD	n/a	wordpools/wordpool_EN.txt	MOLE	3	3	[0, 0, 0]	n/a	FR1	2	R1112M
450.2	2.399	396962	WORD	n/a	wordpools/wordpool_EN.txt	BOAT	4	3	[0, 0, 0]	n/a	FR1	2	R1112M
452.599	2.5	398161	WORD	n/a	wordpools/wordpool_EN.txt	INK	5	3	[0, 0, 0]	n/a	FR1	2	R1112M
455.099	2.419	399411	WORD	n/a	wordpools/wordpool_EN.txt	BOMB	6	3	[0, 0, 0]	n/a	FR1	2	R1112M
457.518	2.432	400620	WORD	n/a	wordpools/wordpool_EN.txt	KITE	7	3	[0, 0, 0]	n/a	FR1	2	R1112M
459.95	2.569	401836	WORD	n/a	wordpools/wordpool_EN.txt	SOAP	8	3	[0, 0, 0]	n/a	FR1	2	R1112M
462.519	2.582	403121	WORD	n/a	wordpools/wordpool_EN.txt	SPARK	9	3	[0, 0, 0]	n/a	FR1	2	R1112M
465.101	2.518	404412	WORD	n/a	wordpools/wordpool_EN.txt	WHEEL	10	3	[0, 0, 0]	n/a	FR1	2	R1112M
467.619	2.367	405671	WORD	n/a	wordpools/wordpool_EN.txt	POND	11	3	[0, 0, 0]	n/a	FR1	2	R1112M
469.986	1.617	406854	WORD	n/a	wordpools/wordpool_EN.txt	NET	12	3	[0, 0, 0]	n/a	FR1	2	R1112M
471.603	0.001	407663	DISTRACT_START	n/a	n/a	n/a	-999	3	[0, 0, 0]	n/a	FR1	2	R1112M
471.604	0.015	407663	START	n/a	n/a	n/a	-999	3	[-999, -999, -999]	n/a	FR1	2	R1112M
471.619	13.303	407671	PROB	13.303	n/a	n/a	-999	3	[6, 9, 4]	19	FR1	2	R1112M
484.922	16.609	414322	PROB	16.609	n/a	n/a	-999	3	[8, 2, 5]	15	FR1	2	R1112M
501.531	0.011	422626	STOP	n/a	n/a	n/a	-999	3	[-999, -999, -999]	n/a	FR1	2	R1112M
501.542	1.067	422631	DISTRACT_END	n/a	n/a	n/a	-999	3	[0, 0, 0]	n/a	FR1	2	R1112M
502.609	3.539	423165	REC_START	n/a	n/a	n/a	-999	3	[0, 0, 0]	n/a	FR1	2	R1112M
506.148	2.32	424934	REC_WORD	2.32	n/a	JET	1	3	[0, 0, 0]	n/a	FR1	2	R1112M
508.468	24.154	426094	REC_WORD	24.154	n/a	FILM	2	3	[0, 0, 0]	n/a	FR1	2	R1112M
532.622	7.227	438170	REC_END	n/a	n/a	n/a	-999	3	[0, 0, 0]	n/a	FR1	2	R1112M
539.849	0.0	441784	TRIAL	n/a	n/a	n/a	-999	4	[0, 0, 0]	n/a	FR1	2	R1112M
539.849	10.428	441784	COUNTDOWN_START	n/a	n/a	n/a	-999	4	[0, 0, 0]	n/a	FR1	2	R1112M
550.277	0.008	446997	COUNTDOWN_END	n/a	n/a	n/a	-999	4	[0, 0, 0]	n/a	FR1	2	R1112M
550.285	2.617	447001	ORIENT	n/a	n/a	n/a	-999	4	[0, 0, 0]	n/a	FR1	2	R1112M
552.902	2.451	448310	WORD	n/a	wordpools/wordpool_EN.txt	SUIT	1	4	[0, 0, 0]	n/a	FR1	2	R1112M
555.353	2.45	449535	WORD	n/a	wordpools/wordpool_EN.txt	SEED	2	4	[0, 0, 0]	n/a	FR1	2	R1112M
557.803	2.584	450760	WORD	n/a	wordpools/wordpool_EN.txt	MAIL	3	4	[0, 0, 0]	n/a	FR1	2	R1112M
560.387	2.55	452052	WORD	n/a	wordpools/wordpool_EN.txt	FLOOR	4	4	[0, 0, 0]	n/a	FR1	2	R1112M
562.937	2.585	453327	WORD	n/a	wordpools/wordpool_EN.txt	VASE	5	4	[0, 0, 0]	n/a	FR1	2	R1112M
565.522	2.383	454619	WORD	n/a	wordpools/wordpool_EN.txt	DESK	6	4	[0, 0, 0]	n/a	FR1	2	R1112M
567.905	2.384	455811	WORD	n/a	wordpools/wordpool_EN.txt	CONE	7	4	[0, 0, 0]	n/a	FR1	2	R1112M
570.289	2.6	457003	WORD	n/a	wordpools/wordpool_EN.txt	ELF	8	4	[0, 0, 0]	n/a	FR1	2	R1112M
572.889	2.635	458303	WORD	n/a	wordpools/wordpool_EN.txt	SNOW	9	4	[0, 0, 0]	n/a	FR1	2	R1112M
575.524	2.633	459620	WORD	n/a	wordpools/wordpool_EN.txt	POLE	10	4	[0, 0, 0]	n/a	FR1	2	R1112M
578.157	2.45	460937	WORD	n/a	wordpools/wordpool_EN.txt	ICE	11	4	[0, 0, 0]	n/a	FR1	2	R1112M
580.607	1.618	462161	WORD	n/a	wordpools/wordpool_EN.txt	JUICE	12	4	[0, 0, 0]	n/a	FR1	2	R1112M
582.225	0.001	462970	DISTRACT_START	n/a	n/a	n/a	-999	4	[0, 0, 0]	n/a	FR1	2	R1112M
582.226	0.016	462971	START	n/a	n/a	n/a	-999	4	[-999, -999, -999]	n/a	FR1	2	R1112M
582.242	11.401	462979	PROB	11.401	n/a	n/a	-999	4	[3, 6, 2]	11	FR1	2	R1112M
593.643	8.135	468679	PROB	8.135	n/a	n/a	-999	4	[3, 6, 6]	15	FR1	2	R1112M
601.778	6.336	472746	PROB	6.336	n/a	n/a	-999	4	[7, 1, 7]	15	FR1	2	R1112M
608.114	0.015	475914	STOP	n/a	n/a	n/a	-999	4	[-999, -999, -999]	n/a	FR1	2	R1112M
608.129	1.135	475922	DISTRACT_END	n/a	n/a	n/a	-999	4	[0, 0, 0]	n/a	FR1	2	R1112M
609.264	5.156	476489	REC_START	n/a	n/a	n/a	-999	4	[0, 0, 0]	n/a	FR1	2	R1112M
614.42	2.451	479067	REC_WORD	2.451	n/a	SNOW	9	4	[0, 0, 0]	n/a	FR1	2	R1112M
616.871	22.408	480292	REC_WORD	22.408	n/a	POLE	10	4	[0, 0, 0]	n/a	FR1	2	R1112M
639.279	8.574	491496	REC_END	n/a	n/a	n/a	-999	4	[0, 0, 0]	n/a	FR1	2	R1112M
647.853	0.001	495783	COUNTDOWN_START	n/a	n/a	n/a	-999	5	[0, 0, 0]	n/a	FR1	2	R1112M
647.854	10.427	495783	TRIAL	n/a	n/a	n/a	-999	5	[0, 0, 0]	n/a	FR1	2	R1112M
658.281	0.009	500996	COUNTDOWN_END	n/a	n/a	n/a	-999	5	[0, 0, 0]	n/a	FR1	2	R1112M
658.29	2.633	501001	ORIENT	n/a	n/a	n/a	-999	5	[0, 0, 0]	n/a	FR1	2	R1112M
660.923	2.551	502317	WORD	n/a	wordpools/wordpool_EN.txt	DITCH	1	5	[0, 0, 0]	n/a	FR1	2	R1112M
663.474	2.5	503593	WORD	n/a	wordpools/wordpool_EN.txt	CHIN	2	5	[0, 0, 0]	n/a	FR1	2	R1112M
665.974	2.501	504843	WORD	n/a	wordpools/wordpool_EN.txt	BRIDGE	3	5	[0, 0, 0]	n/a	FR1	2	R1112M
668.475	2.433	506093	WORD	n/a	wordpools/wordpool_EN.txt	TRUCK	4	5	[0, 0, 0]	n/a	FR1	2	R1112M
670.908	2.518	507309	WORD	n/a	wordpools/wordpool_EN.txt	SMOKE	5	5	[0, 0, 0]	n/a	FR1	2	R1112M
673.426	2.566	508568	WORD	n/a	wordpools/wordpool_EN.txt	STEAM	6	5	[0, 0, 0]	n/a	FR1	2	R1112M
675.992	2.567	509851	WORD	n/a	wordpools/wordpool_EN.txt	SLIME	7	5	[0, 0, 0]	n/a	FR1	2	R1112M
678.559	2.451	511135	WORD	n/a	wordpools/wordpool_EN.txt	SHOE	8	5	[0, 0, 0]	n/a	FR1	2	R1112M
681.01	2.451	512360	WORD	n/a	wordpools/wordpool_EN.txt	BUSH	9	5	[0, 0, 0]	n/a	FR1	2	R1112M
683.461	2.483	513586	WORD	n/a	wordpools/wordpool_EN.txt	BARN	10	5	[0, 0, 0]	n/a	FR1	2	R1112M
685.944	2.518	514827	WORD	n/a	wordpools/wordpool_EN.txt	ROAD	11	5	[0, 0, 0]	n/a	FR1	2	R1112M
688.462	1.616	516086	WORD	n/a	wordpools/wordpool_EN.txt	FORK	12	5	[0, 0, 0]	n/a	FR1	2	R1112M
690.078	0.001	516894	DISTRACT_START	n/a	n/a	n/a	-999	5	[0, 0, 0]	n/a	FR1	2	R1112M
690.079	0.016	516894	START	n/a	n/a	n/a	-999	5	[-999, -999, -999]	n/a	FR1	2	R1112M
690.095	16.053	516902	PROB	16.053	n/a	n/a	-999	5	[5, 6, 2]	12	FR1	2	R1112M
706.148	31.942	524928	PROB	31.942	n/a	n/a	-999	5	[5, 7, 9]	16	FR1	2	R1112M
738.09	0.014	540899	STOP	n/a	n/a	n/a	-999	5	[-999, -999, -999]	n/a	FR1	2	R1112M
738.104	1.086	540906	DISTRACT_END	n/a	n/a	n/a	-999	5	[0, 0, 0]	n/a	FR1	2	R1112M
739.19	19.468	541448	REC_START	n/a	n/a	n/a	-999	5	[0, 0, 0]	n/a	FR1	2	R1112M
758.658	10.542	551182	REC_WORD	10.542	n/a	SHOE	8	5	[0, 0, 0]	n/a	FR1	2	R1112M
769.2	7.979	556453	REC_END	n/a	n/a	n/a	-999	5	[0, 0, 0]	n/a	FR1	2	R1112M
777.179	0.001	560442	COUNTDOWN_START	n/a	n/a	n/a	-999	6	[0, 0, 0]	n/a	FR1	2	R1112M
777.18	10.427	560442	TRIAL	n/a	n/a	n/a	-999	6	[0, 0, 0]	n/a	FR1	2	R1112M
787.607	0.007	565656	COUNTDOWN_END	n/a	n/a	n/a	-999	6	[0, 0, 0]	n/a	FR1	2	R1112M
787.614	2.484	565659	ORIENT	n/a	n/a	n/a	-999	6	[0, 0, 0]	n/a	FR1	2	R1112M
790.098	2.45	566901	WORD	n/a	wordpools/wordpool_EN.txt	LAMP	1	6	[0, 0, 0]	n/a	FR1	2	R1112M
792.548	2.45	568126	WORD	n/a	wordpools/wordpool_EN.txt	BOOT	2	6	[0, 0, 0]	n/a	FR1	2	R1112M
794.998	2.419	569351	WORD	n/a	wordpools/wordpool_EN.txt	FOG	3	6	[0, 0, 0]	n/a	FR1	2	R1112M
797.417	2.566	570560	WORD	n/a	wordpools/wordpool_EN.txt	FLAG	4	6	[0, 0, 0]	n/a	FR1	2	R1112M
799.983	2.518	571843	WORD	n/a	wordpools/wordpool_EN.txt	NAIL	5	6	[0, 0, 0]	n/a	FR1	2	R1112M
802.501	2.533	573102	WORD	n/a	wordpools/wordpool_EN.txt	PARK	6	6	[0, 0, 0]	n/a	FR1	2	R1112M
805.034	2.501	574369	WORD	n/a	wordpools/wordpool_EN.txt	CLOCK	7	6	[0, 0, 0]	n/a	FR1	2	R1112M
807.535	2.45	575619	WORD	n/a	wordpools/wordpool_EN.txt	BED	8	6	[0, 0, 0]	n/a	FR1	2	R1112M
809.985	2.634	576844	WORD	n/a	wordpools/wordpool_EN.txt	SWORD	9	6	[0, 0, 0]	n/a	FR1	2	R1112M
812.619	2.634	578161	WORD	n/a	wordpools/wordpool_EN.txt	BAT	10	6	[0, 0, 0]	n/a	FR1	2	R1112M
815.253	2.483	579478	WORD	n/a	wordpools/wordpool_EN.txt	SKI	11	6	[0, 0, 0]	n/a	FR1	2	R1112M
817.736	1.601	580719	WORD	n/a	wordpools/wordpool_EN.txt	WHALE	12	6	[0, 0, 0]	n/a	FR1	2	R1112M
819.337	0.001	581520	DISTRACT_START	n/a	n/a	n/a	-999	6	[0, 0, 0]	n/a	FR1	2	R1112M
819.338	0.016	581520	START	n/a	n/a	n/a	-999	6	[-999, -999, -999]	n/a	FR1	2	R1112M
819.354	30.009	581528	PROB	30.009	n/a	n/a	-999	6	[8, 9, 4]	20	FR1	2	R1112M
849.363	0.014	596532	STOP	n/a	n/a	n/a	-999	6	[-999, -999, -999]	n/a	FR1	2	R1112M
849.377	1.151	596539	DISTRACT_END	n/a	n/a	n/a	-999	6	[0, 0, 0]	n/a	FR1	2	R1112M
850.528	4.087	597114	REC_START	n/a	n/a	n/a	-999	6	[0, 0, 0]	n/a	FR1	2	R1112M
854.615	25.923	599158	REC_WORD	25.923	n/a	SWORD	9	6	[0, 0, 0]	n/a	FR1	2	R1112M
880.538	4.611	612118	REC_END	n/a	n/a	n/a	-999	6	[0, 0, 0]	n/a	FR1	2	R1112M
885.149	0.0	614424	TRIAL	n/a	n/a	n/a	-999	7	[0, 0, 0]	n/a	FR1	2	R1112M
885.149	10.428	614424	COUNTDOWN_START	n/a	n/a	n/a	-999	7	[0, 0, 0]	n/a	FR1	2	R1112M
895.577	0.008	619638	COUNTDOWN_END	n/a	n/a	n/a	-999	7	[0, 0, 0]	n/a	FR1	2	R1112M
895.585	2.567	619642	ORIENT	n/a	n/a	n/a	-999	7	[0, 0, 0]	n/a	FR1	2	R1112M
898.152	2.55	620925	WORD	n/a	wordpools/wordpool_EN.txt	NOSE	1	7	[0, 0, 0]	n/a	FR1	2	R1112M
900.702	2.568	622200	WORD	n/a	wordpools/wordpool_EN.txt	RAKE	2	7	[0, 0, 0]	n/a	FR1	2	R1112M
903.27	2.433	623484	WORD	n/a	wordpools/wordpool_EN.txt	FOX	3	7	[0, 0, 0]	n/a	FR1	2	R1112M
905.703	2.417	624700	WORD	n/a	wordpools/wordpool_EN.txt	ZOO	4	7	[0, 0, 0]	n/a	FR1	2	R1112M
908.12	2.434	625909	WORD	n/a	wordpools/wordpool_EN.txt	SNAKE	5	7	[0, 0, 0]	n/a	FR1	2	R1112M
910.554	2.601	627126	WORD	n/a	wordpools/wordpool_EN.txt	FLEA	6	7	[0, 0, 0]	n/a	FR1	2	R1112M
913.155	2.617	628426	WORD	n/a	wordpools/wordpool_EN.txt	HOUSE	7	7	[0, 0, 0]	n/a	FR1	2	R1112M
915.772	2.601	629734	WORD	n/a	wordpools/wordpool_EN.txt	DUCK	8	7	[0, 0, 0]	n/a	FR1	2	R1112M
918.373	2.55	631035	WORD	n/a	wordpools/wordpool_EN.txt	PALM	9	7	[0, 0, 0]	n/a	FR1	2	R1112M
920.923	2.551	632310	WORD	n/a	wordpools/wordpool_EN.txt	CAKE	10	7	[0, 0, 0]	n/a	FR1	2	R1112M
923.474	2.533	633585	WORD	n/a	wordpools/wordpool_EN.txt	BLUSH	11	7	[0, 0, 0]	n/a	FR1	2	R1112M
926.007	1.617	634852	WORD	n/a	wordpools/wordpool_EN.txt	BIRD	12	7	[0, 0, 0]	n/a	FR1	2	R1112M
927.624	0.001	635660	DISTRACT_START	n/a	n/a	n/a	-999	7	[0, 0, 0]	n/a	FR1	2	R1112M
927.625	0.016	635661	START	n/a	n/a	n/a	-999	7	[-999, -999, -999]	n/a	FR1	2	R1112M
927.641	30.049	635669	PROB	30.049	n/a	n/a	-999	7	[3, 7, 1]	12	FR1	2	R1112M
957.69	0.007	650692	STOP	n/a	n/a	n/a	-999	7	[-999, -999, -999]	n/a	FR1	2	R1112M
957.697	1.184	650696	DISTRACT_END	n/a	n/a	n/a	-999	7	[0, 0, 0]	n/a	FR1	2	R1112M
958.881	7.943	651288	REC_START	n/a	n/a	n/a	-999	7	[0, 0, 0]	n/a	FR1	2	R1112M
966.824	22.067	655259	REC_WORD	22.067	n/a	PALM	9	7	[0, 0, 0]	n/a	FR1	2	R1112M
988.891	5.829	666292	REC_END	n/a	n/a	n/a	-999	7	[0, 0, 0]	n/a	FR1	2	R1112M
994.72	0.001	669206	COUNTDOWN_START	n/a	n/a	n/a	-999	8	[0, 0, 0]	n/a	FR1	2	R1112M
994.721	10.427	669207	TRIAL	n/a	n/a	n/a	-999	8	[0, 0, 0]	n/a	FR1	2	R1112M
1005.148	0.008	674420	COUNTDOWN_END	n/a	n/a	n/a	-999	8	[0, 0, 0]	n/a	FR1	2	R1112M
1005.156	2.4	674424	ORIENT	n/a	n/a	n/a	-999	8	[0, 0, 0]	n/a	FR1	2	R1112M
1007.556	2.451	675624	WORD	n/a	wordpools/wordpool_EN.txt	CHEEK	1	8	[0, 0, 0]	n/a	FR1	2	R1112M
1010.007	2.468	676849	WORD	n/a	wordpools/wordpool_EN.txt	RAIN	2	8	[0, 0, 0]	n/a	FR1	2	R1112M
1012.475	2.483	678083	WORD	n/a	wordpools/wordpool_EN.txt	TOAST	3	8	[0, 0, 0]	n/a	FR1	2	R1112M
1014.958	2.6	679325	WORD	n/a	wordpools/wordpool_EN.txt	CAPE	4	8	[0, 0, 0]	n/a	FR1	2	R1112M
1017.558	2.4	680625	WORD	n/a	wordpools/wordpool_EN.txt	LAND	5	8	[0, 0, 0]	n/a	FR1	2	R1112M
1019.958	2.485	681824	WORD	n/a	wordpools/wordpool_EN.txt	RICE	6	8	[0, 0, 0]	n/a	FR1	2	R1112M
1022.443	2.616	683067	WORD	n/a	wordpools/wordpool_EN.txt	DOCK	7	8	[0, 0, 0]	n/a	FR1	2	R1112M
1025.059	2.435	684375	WORD	n/a	wordpools/wordpool_EN.txt	CANE	8	8	[0, 0, 0]	n/a	FR1	2	R1112M
1027.494	2.433	685592	WORD	n/a	wordpools/wordpool_EN.txt	SUN	9	8	[0, 0, 0]	n/a	FR1	2	R1112M
1029.927	2.602	686809	WORD	n/a	wordpools/wordpool_EN.txt	SHIP	10	8	[0, 0, 0]	n/a	FR1	2	R1112M
1032.529	2.566	688110	WORD	n/a	wordpools/wordpool_EN.txt	EEL	11	8	[0, 0, 0]	n/a	FR1	2	R1112M
1035.095	1.617	689393	WORD	n/a	wordpools/wordpool_EN.txt	FOAM	12	8	[0, 0, 0]	n/a	FR1	2	R1112M
1036.712	0.001	690201	DISTRACT_START	n/a	n/a	n/a	-999	8	[0, 0, 0]	n/a	FR1	2	R1112M
1036.713	0.016	690202	START	n/a	n/a	n/a	-999	8	[-999, -999, -999]	n/a	FR1	2	R1112M
1036.729	53.281	690210	PROB	53.281	n/a	n/a	-999	8	[4, 4, 7]	15	FR1	2	R1112M
1090.01	0.012	716849	STOP	n/a	n/a	n/a	-999	8	[-999, -999, -999]	n/a	FR1	2	R1112M
1090.022	1.118	716855	DISTRACT_END	n/a	n/a	n/a	-999	8	[0, 0, 0]	n/a	FR1	2	R1112M
1091.14	29.994	717413	REC_START	n/a	n/a	n/a	-999	8	[0, 0, 0]	n/a	FR1	2	R1112M
1121.134	0.016	732410	REC_WORD_VV	0.016	n/a	<>	-999	8	[0, 0, 0]	n/a	FR1	2	R1112M
1121.15	7.364	732418	REC_END	n/a	n/a	n/a	-999	8	[0, 0, 0]	n/a	FR1	2	R1112M
1128.514	0.0	736099	COUNTDOWN_START	n/a	n/a	n/a	-999	9	[0, 0, 0]	n/a	FR1	2	R1112M
1128.514	10.428	736099	TRIAL	n/a	n/a	n/a	-999	9	[0, 0, 0]	n/a	FR1	2	R1112M
1138.942	0.006	741313	COUNTDOWN_END	n/a	n/a	n/a	-999	9	[0, 0, 0]	n/a	FR1	2	R1112M
1138.948	2.535	741316	ORIENT	n/a	n/a	n/a	-999	9	[0, 0, 0]	n/a	FR1	2	R1112M
1141.483	2.399	742584	WORD	n/a	wordpools/wordpool_EN.txt	SHEET	1	9	[0, 0, 0]	n/a	FR1	2	R1112M
1143.882	2.469	743783	WORD	n/a	wordpools/wordpool_EN.txt	STAR	2	9	[0, 0, 0]	n/a	FR1	2	R1112M
1146.351	2.383	745017	WORD	n/a	wordpools/wordpool_EN.txt	WOLF	3	9	[0, 0, 0]	n/a	FR1	2	R1112M
1148.734	2.501	746209	WORD	n/a	wordpools/wordpool_EN.txt	HORSE	4	9	[0, 0, 0]	n/a	FR1	2	R1112M
1151.235	2.549	747459	WORD	n/a	wordpools/wordpool_EN.txt	TRASH	5	9	[0, 0, 0]	n/a	FR1	2	R1112M
1153.784	2.402	748734	WORD	n/a	wordpools/wordpool_EN.txt	CORD	6	9	[0, 0, 0]	n/a	FR1	2	R1112M
1156.186	2.449	749935	WORD	n/a	wordpools/wordpool_EN.txt	ANT	7	9	[0, 0, 0]	n/a	FR1	2	R1112M
1158.635	2.451	751159	WORD	n/a	wordpools/wordpool_EN.txt	BOOK	8	9	[0, 0, 0]	n/a	FR1	2	R1112M
1161.086	2.467	752384	WORD	n/a	wordpools/wordpool_EN.txt	TOAD	9	9	[0, 0, 0]	n/a	FR1	2	R1112M
1163.553	2.5	753618	WORD	n/a	wordpools/wordpool_EN.txt	CASH	10	9	[0, 0, 0]	n/a	FR1	2	R1112M
1166.053	2.385	754868	WORD	n/a	wordpools/wordpool_EN.txt	RIB	11	9	[0, 0, 0]	n/a	FR1	2	R1112M
1168.438	1.616	756060	WORD	n/a	wordpools/wordpool_EN.txt	EGG	12	9	[0, 0, 0]	n/a	FR1	2	R1112M
1170.054	0.001	756868	DISTRACT_START	n/a	n/a	n/a	-999	9	[0, 0, 0]	n/a	FR1	2	R1112M
1170.055	0.016	756869	START	n/a	n/a	n/a	-999	9	[-999, -999, -999]	n/a	FR1	2	R1112M
1170.071	22.907	756877	PROB	22.907	n/a	n/a	-999	9	[6, 7, 9]	23	FR1	2	R1112M
1192.978	0.014	768330	STOP	n/a	n/a	n/a	-999	9	[-999, -999, -999]	n/a	FR1	2	R1112M
1192.992	1.034	768337	DISTRACT_END	n/a	n/a	n/a	-999	9	[0, 0, 0]	n/a	FR1	2	R1112M
1194.026	4.568	768854	REC_START	n/a	n/a	n/a	-999	9	[0, 0, 0]	n/a	FR1	2	R1112M
1198.594	25.442	771137	REC_WORD	25.442	n/a	WOLF	3	9	[0, 0, 0]	n/a	FR1	2	R1112M
1224.036	127.753	783858	REC_END	n/a	n/a	n/a	-999	9	[0, 0, 0]	n/a	FR1	2	R1112M
1351.789	0.0	847731	COUNTDOWN_START	n/a	n/a	n/a	-999	10	[0, 0, 0]	n/a	FR1	2	R1112M
1351.789	10.428	847731	TRIAL	n/a	n/a	n/a	-999	10	[0, 0, 0]	n/a	FR1	2	R1112M
1362.217	0.009	852944	COUNTDOWN_END	n/a	n/a	n/a	-999	10	[0, 0, 0]	n/a	FR1	2	R1112M
1362.226	2.482	852949	ORIENT	n/a	n/a	n/a	-999	10	[0, 0, 0]	n/a	FR1	2	R1112M
1364.708	2.434	854190	WORD	n/a	wordpools/wordpool_EN.txt	CRANE	1	10	[0, 0, 0]	n/a	FR1	2	R1112M
1367.142	2.484	855407	WORD	n/a	wordpools/wordpool_EN.txt	LOCK	2	10	[0, 0, 0]	n/a	FR1	2	R1112M
1369.626	2.517	856649	WORD	n/a	wordpools/wordpool_EN.txt	CROW	3	10	[0, 0, 0]	n/a	FR1	2	R1112M
1372.143	2.517	857907	WORD	n/a	wordpools/wordpool_EN.txt	OAK	4	10	[0, 0, 0]	n/a	FR1	2	R1112M
1374.66	2.468	859165	WORD	n/a	wordpools/wordpool_EN.txt	HOLE	5	10	[0, 0, 0]	n/a	FR1	2	R1112M
1377.128	2.583	860399	WORD	n/a	wordpools/wordpool_EN.txt	GUARD	6	10	[0, 0, 0]	n/a	FR1	2	R1112M
1379.711	2.535	861691	WORD	n/a	wordpools/wordpool_EN.txt	LIP	7	10	[0, 0, 0]	n/a	FR1	2	R1112M
1382.246	2.566	862958	WORD	n/a	wordpools/wordpool_EN.txt	TOOL	8	10	[0, 0, 0]	n/a	FR1	2	R1112M
1384.812	2.585	864241	WORD	n/a	wordpools/wordpool_EN.txt	COUCH	9	10	[0, 0, 0]	n/a	FR1	2	R1112M
1387.397	2.566	865534	WORD	n/a	wordpools/wordpool_EN.txt	LAWN	10	10	[0, 0, 0]	n/a	FR1	2	R1112M
1389.963	2.519	866816	WORD	n/a	wordpools/wordpool_EN.txt	TENT	11	10	[0, 0, 0]	n/a	FR1	2	R1112M
1392.482	1.616	868076	WORD	n/a	wordpools/wordpool_EN.txt	CUBE	12	10	[0, 0, 0]	n/a	FR1	2	R1112M
1394.098	0.001	868884	DISTRACT_START	n/a	n/a	n/a	-999	10	[0, 0, 0]	n/a	FR1	2	R1112M
1394.099	0.015	868884	START	n/a	n/a	n/a	-999	10	[-999, -999, -999]	n/a	FR1	2	R1112M
1394.114	13.053	868892	PROB	13.053	n/a	n/a	-999	10	[3, 7, 5]	15	FR1	2	R1112M
1407.167	6.169	875418	PROB	6.169	n/a	n/a	-999	10	[4, 4, 2]	10	FR1	2	R1112M
1413.336	23.786	878502	PROB	23.786	n/a	n/a	-999	10	[8, 5, 3]	16	FR1	2	R1112M
1437.122	0.017	890395	STOP	n/a	n/a	n/a	-999	10	[-999, -999, -999]	n/a	FR1	2	R1112M
1437.139	1.169	890403	DISTRACT_END	n/a	n/a	n/a	-999	10	[0, 0, 0]	n/a	FR1	2	R1112M
1438.308	30.0	890988	REC_START	n/a	n/a	n/a	-999	10	[0, 0, 0]	n/a	FR1	2	R1112M
1468.308	0.01	905987	REC_WORD_VV	0.01	n/a	<>	-999	10	[0, 0, 0]	n/a	FR1	2	R1112M
1468.318	11.947	905992	REC_END	n/a	n/a	n/a	-999	10	[0, 0, 0]	n/a	FR1	2	R1112M
1480.265	0.0	911965	TRIAL	n/a	n/a	n/a	-999	11	[0, 0, 0]	n/a	FR1	2	R1112M
1480.265	10.428	911965	COUNTDOWN_START	n/a	n/a	n/a	-999	11	[0, 0, 0]	n/a	FR1	2	R1112M
1490.693	0.006	917179	COUNTDOWN_END	n/a	n/a	n/a	-999	11	[0, 0, 0]	n/a	FR1	2	R1112M
1490.699	2.468	917182	ORIENT	n/a	n/a	n/a	-999	11	[0, 0, 0]	n/a	FR1	2	R1112M
1493.167	2.533	918416	WORD	n/a	wordpools/wordpool_EN.txt	POOL	1	11	[0, 0, 0]	n/a	FR1	2	R1112M
1495.7	2.468	919682	WORD	n/a	wordpools/wordpool_EN.txt	SALT	2	11	[0, 0, 0]	n/a	FR1	2	R1112M
1498.168	2.483	920916	WORD	n/a	wordpools/wordpool_EN.txt	OAR	3	11	[0, 0, 0]	n/a	FR1	2	R1112M
1500.651	2.418	922157	WORD	n/a	wordpools/wordpool_EN.txt	BEAN	4	11	[0, 0, 0]	n/a	FR1	2	R1112M
1503.069	2.5	923366	WORD	n/a	wordpools/wordpool_EN.txt	SHRIMP	5	11	[0, 0, 0]	n/a	FR1	2	R1112M
1505.569	2.467	924616	WORD	n/a	wordpools/wordpool_EN.txt	FLAME	6	11	[0, 0, 0]	n/a	FR1	2	R1112M
1508.036	2.567	925850	WORD	n/a	wordpools/wordpool_EN.txt	GEESE	7	11	[0, 0, 0]	n/a	FR1	2	R1112M
1510.603	2.484	927133	WORD	n/a	wordpools/wordpool_EN.txt	WING	8	11	[0, 0, 0]	n/a	FR1	2	R1112M
1513.087	2.418	928375	WORD	n/a	wordpools/wordpool_EN.txt	STOVE	9	11	[0, 0, 0]	n/a	FR1	2	R1112M
1515.505	2.533	929584	WORD	n/a	wordpools/wordpool_EN.txt	SWAMP	10	11	[0, 0, 0]	n/a	FR1	2	R1112M
1518.038	2.567	930850	WORD	n/a	wordpools/wordpool_EN.txt	DEER	11	11	[0, 0, 0]	n/a	FR1	2	R1112M
1520.605	1.601	932134	WORD	n/a	wordpools/wordpool_EN.txt	PIE	12	11	[0, 0, 0]	n/a	FR1	2	R1112M
1522.206	0.001	932934	DISTRACT_START	n/a	n/a	n/a	-999	11	[0, 0, 0]	n/a	FR1	2	R1112M
1522.207	0.016	932935	START	n/a	n/a	n/a	-999	11	[-999, -999, -999]	n/a	FR1	2	R1112M
1522.223	20.883	932943	PROB	20.883	n/a	n/a	-999	11	[4, 9, 2]	15	FR1	2	R1112M
1543.106	0.003	943384	STOP	n/a	n/a	n/a	-999	11	[-999, -999, -999]	n/a	FR1	2	R1112M
1543.109	1.219	943385	DISTRACT_END	n/a	n/a	n/a	-999	11	[0, 0, 0]	n/a	FR1	2	R1112M
1544.328	30.0	943995	REC_START	n/a	n/a	n/a	-999	11	[0, 0, 0]	n/a	FR1	2	R1112M
1574.328	0.01	958994	REC_WORD_VV	0.01	n/a	<>	-999	11	[0, 0, 0]	n/a	FR1	2	R1112M
1574.338	5.229	958999	REC_END	n/a	n/a	n/a	-999	11	[0, 0, 0]	n/a	FR1	2	R1112M
1579.567	0.0	961613	TRIAL	n/a	n/a	n/a	-999	12	[0, 0, 0]	n/a	FR1	2	R1112M
1579.567	10.428	961613	COUNTDOWN_START	n/a	n/a	n/a	-999	12	[0, 0, 0]	n/a	FR1	2	R1112M
1589.995	0.007	966827	COUNTDOWN_END	n/a	n/a	n/a	-999	12	[0, 0, 0]	n/a	FR1	2	R1112M
1590.002	2.55	966830	ORIENT	n/a	n/a	n/a	-999	12	[0, 0, 0]	n/a	FR1	2	R1112M
1592.552	2.468	968105	WORD	n/a	wordpools/wordpool_EN.txt	CAT	1	12	[0, 0, 0]	n/a	FR1	2	R1112M
1595.02	2.567	969339	WORD	n/a	wordpools/wordpool_EN.txt	TRAIN	2	12	[0, 0, 0]	n/a	FR1	2	R1112M
1597.587	2.601	970623	WORD	n/a	wordpools/wordpool_EN.txt	JEEP	3	12	[0, 0, 0]	n/a	FR1	2	R1112M
1600.188	2.4	971923	WORD	n/a	wordpools/wordpool_EN.txt	MOON	4	12	[0, 0, 0]	n/a	FR1	2	R1112M
1602.588	2.45	973123	WORD	n/a	wordpools/wordpool_EN.txt	PRINCE	5	12	[0, 0, 0]	n/a	FR1	2	R1112M
1605.038	2.551	974348	WORD	n/a	wordpools/wordpool_EN.txt	HEART	6	12	[0, 0, 0]	n/a	FR1	2	R1112M
1607.589	2.601	975623	WORD	n/a	wordpools/wordpool_EN.txt	BEAR	7	12	[0, 0, 0]	n/a	FR1	2	R1112M
1610.19	2.416	976924	WORD	n/a	wordpools/wordpool_EN.txt	GOLD	8	12	[0, 0, 0]	n/a	FR1	2	R1112M
1612.606	2.434	978132	WORD	n/a	wordpools/wordpool_EN.txt	GRAPE	9	12	[0, 0, 0]	n/a	FR1	2	R1112M
1615.04	2.617	979349	WORD	n/a	wordpools/wordpool_EN.txt	BALL	10	12	[0, 0, 0]	n/a	FR1	2	R1112M
1617.657	2.434	980657	WORD	n/a	wordpools/wordpool_EN.txt	FARM	11	12	[0, 0, 0]	n/a	FR1	2	R1112M
1620.091	1.617	981874	WORD	n/a	wordpools/wordpool_EN.txt	APE	12	12	[0, 0, 0]	n/a	FR1	2	R1112M
1621.708	0.001	982682	DISTRACT_START	n/a	n/a	n/a	-999	12	[0, 0, 0]	n/a	FR1	2	R1112M
1621.709	0.016	982683	START	n/a	n/a	n/a	-999	12	[-999, -999, -999]	n/a	FR1	2	R1112M
1621.725	12.819	982691	PROB	12.819	n/a	n/a	-999	12	[9, 1, 2]	13	FR1	2	R1112M
1634.544	22.418	989100	PROB	22.418	n/a	n/a	-999	12	[1, 6, 9]	17	FR1	2	R1112M
1656.962	0.02	1000308	STOP	n/a	n/a	n/a	-999	12	[-999, -999, -999]	n/a	FR1	2	R1112M
1656.982	1.184	1000318	DISTRACT_END	n/a	n/a	n/a	-999	12	[0, 0, 0]	n/a	FR1	2	R1112M
1658.166	29.994	1000910	REC_START	n/a	n/a	n/a	-999	12	[0, 0, 0]	n/a	FR1	2	R1112M
1688.16	0.017	1015907	REC_WORD_VV	0.017	n/a	<>	-999	12	[0, 0, 0]	n/a	FR1	2	R1112M
1688.177	531.996	1015915	REC_END	n/a	n/a	n/a	-999	12	[0, 0, 0]	n/a	FR1	2	R1112M
2220.173	0.001	1281898	COUNTDOWN_START	n/a	n/a	n/a	-999	13	[0, 0, 0]	n/a	FR1	2	R1112M
2220.174	10.427	1281898	TRIAL	n/a	n/a	n/a	-999	13	[0, 0, 0]	n/a	FR1	2	R1112M
2230.601	0.008	1287112	COUNTDOWN_END	n/a	n/a	n/a	-999	13	[0, 0, 0]	n/a	FR1	2	R1112M
2230.609	2.467	1287116	ORIENT	n/a	n/a	n/a	-999	13	[0, 0, 0]	n/a	FR1	2	R1112M
2233.076	2.584	1288349	WORD	n/a	wordpools/wordpool_EN.txt	BENCH	1	13	[0, 0, 0]	n/a	FR1	2	R1112M
2235.66	2.384	1289641	WORD	n/a	wordpools/wordpool_EN.txt	STRAW	2	13	[0, 0, 0]	n/a	FR1	2	R1112M
2238.044	2.401	1290833	WORD	n/a	wordpools/wordpool_EN.txt	YARD	3	13	[0, 0, 0]	n/a	FR1	2	R1112M
2240.445	2.45	1292033	WORD	n/a	wordpools/wordpool_EN.txt	FOOT	4	13	[0, 0, 0]	n/a	FR1	2	R1112M
2242.895	2.518	1293258	WORD	n/a	wordpools/wordpool_EN.txt	SHIRT	5	13	[0, 0, 0]	n/a	FR1	2	R1112M
2245.413	2.583	1294517	WORD	n/a	wordpools/wordpool_EN.txt	BOWL	6	13	[0, 0, 0]	n/a	FR1	2	R1112M
2247.996	2.401	1295809	WORD	n/a	wordpools/wordpool_EN.txt	FROG	7	13	[0, 0, 0]	n/a	FR1	2	R1112M
2250.397	2.566	1297009	WORD	n/a	wordpools/wordpool_EN.txt	ROSE	8	13	[0, 0, 0]	n/a	FR1	2	R1112M
2252.963	2.502	1298292	WORD	n/a	wordpools/wordpool_EN.txt	DOOR	9	13	[0, 0, 0]	n/a	FR1	2	R1112M
2255.465	2.382	1299543	WORD	n/a	wordpools/wordpool_EN.txt	BRUSH	10	13	[0, 0, 0]	n/a	FR1	2	R1112M
2257.847	2.402	1300734	WORD	n/a	wordpools/wordpool_EN.txt	CHAIR	11	13	[0, 0, 0]	n/a	FR1	2	R1112M
2260.249	1.616	1301935	WORD	n/a	wordpools/wordpool_EN.txt	TIE	12	13	[0, 0, 0]	n/a	FR1	2	R1112M
2261.865	0.0	1302743	DISTRACT_START	n/a	n/a	n/a	-999	13	[0, 0, 0]	n/a	FR1	2	R1112M
2261.865	0.016	1302743	START	n/a	n/a	n/a	-999	13	[-999, -999, -999]	n/a	FR1	2	R1112M
2261.881	15.954	1302751	PROB	15.954	n/a	n/a	-999	13	[1, 4, 5]	10	FR1	2	R1112M
2277.835	9.087	1310727	PROB	9.087	n/a	n/a	-999	13	[4, 8, 4]	16	FR1	2	R1112M
2286.922	0.014	1315270	STOP	n/a	n/a	n/a	-999	13	[-999, -999, -999]	n/a	FR1	2	R1112M
2286.936	1.035	1315277	DISTRACT_END	n/a	n/a	n/a	-999	13	[0, 0, 0]	n/a	FR1	2	R1112M
2287.971	30.0	1315795	REC_START	n/a	n/a	n/a	-999	13	[0, 0, 0]	n/a	FR1	2	R1112M
2317.971	0.01	1330794	REC_WORD_VV	0.01	n/a	<>	-999	13	[0, 0, 0]	n/a	FR1	2	R1112M
2317.981	5.313	1330799	REC_END	n/a	n/a	n/a	-999	13	[0, 0, 0]	n/a	FR1	2	R1112M
2323.294	0.0	1333455	TRIAL	n/a	n/a	n/a	-999	14	[0, 0, 0]	n/a	FR1	2	R1112M
2323.294	10.428	1333455	COUNTDOWN_START	n/a	n/a	n/a	-999	14	[0, 0, 0]	n/a	FR1	2	R1112M
2333.722	0.007	1338669	COUNTDOWN_END	n/a	n/a	n/a	-999	14	[0, 0, 0]	n/a	FR1	2	R1112M
2333.729	2.551	1338673	ORIENT	n/a	n/a	n/a	-999	14	[0, 0, 0]	n/a	FR1	2	R1112M
2336.28	2.383	1339948	WORD	n/a	wordpools/wordpool_EN.txt	STEM	1	14	[0, 0, 0]	n/a	FR1	2	R1112M
2338.663	2.518	1341140	WORD	n/a	wordpools/wordpool_EN.txt	WALL	2	14	[0, 0, 0]	n/a	FR1	2	R1112M
2341.181	2.566	1342398	WORD	n/a	wordpools/wordpool_EN.txt	GRASS	3	14	[0, 0, 0]	n/a	FR1	2	R1112M
2343.747	2.585	1343681	WORD	n/a	wordpools/wordpool_EN.txt	WEED	4	14	[0, 0, 0]	n/a	FR1	2	R1112M
2346.332	2.433	1344974	WORD	n/a	wordpools/wordpool_EN.txt	SPONGE	5	14	[0, 0, 0]	n/a	FR1	2	R1112M
2348.765	2.435	1346190	WORD	n/a	wordpools/wordpool_EN.txt	SHELL	6	14	[0, 0, 0]	n/a	FR1	2	R1112M
2351.2	2.566	1347408	WORD	n/a	wordpools/wordpool_EN.txt	COIN	7	14	[0, 0, 0]	n/a	FR1	2	R1112M
2353.766	2.518	1348691	WORD	n/a	wordpools/wordpool_EN.txt	MAT	8	14	[0, 0, 0]	n/a	FR1	2	R1112M
2356.284	2.5	1349950	WORD	n/a	wordpools/wordpool_EN.txt	LEAF	9	14	[0, 0, 0]	n/a	FR1	2	R1112M
2358.784	2.568	1351199	WORD	n/a	wordpools/wordpool_EN.txt	ROOT	10	14	[0, 0, 0]	n/a	FR1	2	R1112M
2361.352	2.599	1352483	WORD	n/a	wordpools/wordpool_EN.txt	SNAIL	11	14	[0, 0, 0]	n/a	FR1	2	R1112M
2363.951	1.617	1353783	WORD	n/a	wordpools/wordpool_EN.txt	WORM	12	14	[0, 0, 0]	n/a	FR1	2	R1112M
2365.568	0.001	1354591	DISTRACT_START	n/a	n/a	n/a	-999	14	[0, 0, 0]	n/a	FR1	2	R1112M
2365.569	0.016	1354592	START	n/a	n/a	n/a	-999	14	[-999, -999, -999]	n/a	FR1	2	R1112M
2365.585	12.102	1354600	PROB	12.102	n/a	n/a	-999	14	[9, 1, 5]	15	FR1	2	R1112M
2377.687	10.724	1360650	PROB	10.724	n/a	n/a	-999	14	[2, 6, 3]	11	FR1	2	R1112M
2388.411	0.013	1366012	STOP	n/a	n/a	n/a	-999	14	[-999, -999, -999]	n/a	FR1	2	R1112M
2388.424	1.166	1366019	DISTRACT_END	n/a	n/a	n/a	-999	14	[0, 0, 0]	n/a	FR1	2	R1112M
2389.59	30.011	1366602	REC_START	n/a	n/a	n/a	-999	14	[0, 0, 0]	n/a	FR1	2	R1112M
2419.601	0.003	1381606	REC_WORD_VV	0.003	n/a	<>	-999	14	[0, 0, 0]	n/a	FR1	2	R1112M
2419.604	6.91	1381608	REC_END	n/a	n/a	n/a	-999	14	[0, 0, 0]	n/a	FR1	2	R1112M
2426.514	0.0	1385063	TRIAL	n/a	n/a	n/a	-999	15	[0, 0, 0]	n/a	FR1	2	R1112M
2426.514	10.428	1385063	COUNTDOWN_START	n/a	n/a	n/a	-999	15	[0, 0, 0]	n/a	FR1	2	R1112M
2436.942	0.007	1390276	COUNTDOWN_END	n/a	n/a	n/a	-999	15	[0, 0, 0]	n/a	FR1	2	R1112M
2436.949	2.518	1390280	ORIENT	n/a	n/a	n/a	-999	15	[0, 0, 0]	n/a	FR1	2	R1112M
2439.467	2.616	1391539	WORD	n/a	wordpools/wordpool_EN.txt	TAIL	1	15	[0, 0, 0]	n/a	FR1	2	R1112M
2442.083	2.467	1392847	WORD	n/a	wordpools/wordpool_EN.txt	MOUSE	2	15	[0, 0, 0]	n/a	FR1	2	R1112M
2444.55	2.551	1394080	WORD	n/a	wordpools/wordpool_EN.txt	ROPE	3	15	[0, 0, 0]	n/a	FR1	2	R1112M
2447.101	2.45	1395355	WORD	n/a	wordpools/wordpool_EN.txt	WEB	4	15	[0, 0, 0]	n/a	FR1	2	R1112M
2449.551	2.45	1396580	WORD	n/a	wordpools/wordpool_EN.txt	MUG	5	15	[0, 0, 0]	n/a	FR1	2	R1112M
2452.001	2.551	1397805	WORD	n/a	wordpools/wordpool_EN.txt	SKUNK	6	15	[0, 0, 0]	n/a	FR1	2	R1112M
2454.552	2.534	1399081	WORD	n/a	wordpools/wordpool_EN.txt	SHEEP	7	15	[0, 0, 0]	n/a	FR1	2	R1112M
2457.086	2.435	1400348	WORD	n/a	wordpools/wordpool_EN.txt	PET	8	15	[0, 0, 0]	n/a	FR1	2	R1112M
2459.521	2.449	1401565	WORD	n/a	wordpools/wordpool_EN.txt	CLOTH	9	15	[0, 0, 0]	n/a	FR1	2	R1112M
2461.97	2.568	1402790	WORD	n/a	wordpools/wordpool_EN.txt	HAWK	10	15	[0, 0, 0]	n/a	FR1	2	R1112M
2464.538	2.6	1404073	WORD	n/a	wordpools/wordpool_EN.txt	FUDGE	11	15	[0, 0, 0]	n/a	FR1	2	R1112M
2467.138	1.617	1405373	WORD	n/a	wordpools/wordpool_EN.txt	CALF	12	15	[0, 0, 0]	n/a	FR1	2	R1112M
2468.755	0.001	1406182	DISTRACT_START	n/a	n/a	n/a	-999	15	[0, 0, 0]	n/a	FR1	2	R1112M
2468.756	0.015	1406182	START	n/a	n/a	n/a	-999	15	[-999, -999, -999]	n/a	FR1	2	R1112M
2468.771	16.671	1406190	PROB	16.671	n/a	n/a	-999	15	[4, 4, 8]	16	FR1	2	R1112M
2485.442	5.881	1414525	PROB	5.881	n/a	n/a	-999	15	[9, 1, 5]	15	FR1	2	R1112M
2491.323	0.003	1417465	STOP	n/a	n/a	n/a	-999	15	[-999, -999, -999]	n/a	FR1	2	R1112M
2491.326	1.171	1417467	DISTRACT_END	n/a	n/a	n/a	-999	15	[0, 0, 0]	n/a	FR1	2	R1112M
2492.497	29.994	1418052	REC_START	n/a	n/a	n/a	-999	15	[0, 0, 0]	n/a	FR1	2	R1112M
2522.491	0.014	1433048	REC_WORD_VV	0.014	n/a	<>	-999	15	[0, 0, 0]	n/a	FR1	2	R1112M
2522.505	27.548	1433055	REC_END	n/a	n/a	n/a	-999	15	[0, 0, 0]	n/a	FR1	2	R1112M
2550.053	0.001	1446829	COUNTDOWN_START	n/a	n/a	n/a	-999	16	[0, 0, 0]	n/a	FR1	2	R1112M
2550.054	10.427	1446829	TRIAL	n/a	n/a	n/a	-999	16	[0, 0, 0]	n/a	FR1	2	R1112M
2560.481	0.009	1452042	COUNTDOWN_END	n/a	n/a	n/a	-999	16	[0, 0, 0]	n/a	FR1	2	R1112M
2560.49	2.516	1452047	ORIENT	n/a	n/a	n/a	-999	16	[0, 0, 0]	n/a	FR1	2	R1112M
2563.006	2.601	1453305	WORD	n/a	wordpools/wordpool_EN.txt	TANK	1	16	[0, 0, 0]	n/a	FR1	2	R1112M
2565.607	2.5	1454605	WORD	n/a	wordpools/wordpool_EN.txt	MAZE	2	16	[0, 0, 0]	n/a	FR1	2	R1112M
2568.107	2.451	1455855	WORD	n/a	wordpools/wordpool_EN.txt	CAR	3	16	[0, 0, 0]	n/a	FR1	2	R1112M
2570.558	2.6	1457080	WORD	n/a	wordpools/wordpool_EN.txt	VAN	4	16	[0, 0, 0]	n/a	FR1	2	R1112M
2573.158	2.434	1458380	WORD	n/a	wordpools/wordpool_EN.txt	SAIL	5	16	[0, 0, 0]	n/a	FR1	2	R1112M
2575.592	2.384	1459597	WORD	n/a	wordpools/wordpool_EN.txt	BOARD	6	16	[0, 0, 0]	n/a	FR1	2	R1112M
2577.976	2.535	1460789	WORD	n/a	wordpools/wordpool_EN.txt	SOUP	7	16	[0, 0, 0]	n/a	FR1	2	R1112M
2580.511	2.499	1462057	WORD	n/a	wordpools/wordpool_EN.txt	TOY	8	16	[0, 0, 0]	n/a	FR1	2	R1112M
2583.01	2.435	1463306	WORD	n/a	wordpools/wordpool_EN.txt	BRICK	9	16	[0, 0, 0]	n/a	FR1	2	R1112M
2585.445	2.582	1464523	WORD	n/a	wordpools/wordpool_EN.txt	JAIL	10	16	[0, 0, 0]	n/a	FR1	2	R1112M
2588.027	2.369	1465814	WORD	n/a	wordpools/wordpool_EN.txt	STORM	11	16	[0, 0, 0]	n/a	FR1	2	R1112M
2590.396	1.616	1466999	WORD	n/a	wordpools/wordpool_EN.txt	BANK	12	16	[0, 0, 0]	n/a	FR1	2	R1112M
2592.012	0.001	1467807	DISTRACT_START	n/a	n/a	n/a	-999	16	[0, 0, 0]	n/a	FR1	2	R1112M
2592.013	0.016	1467807	START	n/a	n/a	n/a	-999	16	[-999, -999, -999]	n/a	FR1	2	R1112M
2592.029	11.568	1467815	PROB	11.568	n/a	n/a	-999	16	[1, 5, 4]	14	FR1	2	R1112M
2603.597	6.518	1473599	PROB	6.518	n/a	n/a	-999	16	[1, 3, 2]	6	FR1	2	R1112M
2610.115	16.871	1476858	PROB	16.871	n/a	n/a	-999	16	[8, 7, 5]	20	FR1	2	R1112M
2626.986	0.016	1485293	STOP	n/a	n/a	n/a	-999	16	[-999, -999, -999]	n/a	FR1	2	R1112M
2627.002	1.084	1485301	DISTRACT_END	n/a	n/a	n/a	-999	16	[0, 0, 0]	n/a	FR1	2	R1112M
2628.086	8.278	1485843	REC_START	n/a	n/a	n/a	-999	16	[0, 0, 0]	n/a	FR1	2	R1112M
2636.364	21.732	1489982	REC_WORD	21.732	n/a	TANK	1	16	[0, 0, 0]	n/a	FR1	2	R1112M
2658.096	104.565	1500847	REC_END	n/a	n/a	n/a	-999	16	[0, 0, 0]	n/a	FR1	2	R1112M
2762.661	0.0	1553126	TRIAL	n/a	n/a	n/a	-999	17	[0, 0, 0]	n/a	FR1	2	R1112M
2762.661	0.0	1553126	COUNTDOWN_START	n/a	n/a	n/a	-999	17	[0, 0, 0]	n/a	FR1	2	R1112M
