onset	duration	sample	trial_type	response_time	stim_file	item_name	serialpos	list	test	answer	experiment	session	subject
0.0	0.714	665089	INSTRUCT_START	n/a	n/a	n/a	-999	-999	[0, 0, 0]	n/a	FR1	1	R1380D
0.714	37.915	665805	INSTRUCT_END	n/a	n/a	n/a	-999	-999	[0, 0, 0]	n/a	FR1	1	R1380D
38.629	10.35	703716	COUNTDOWN_START	n/a	n/a	n/a	-999	-999	[0, 0, 0]	n/a	FR1	1	R1380D
48.979	0.001	714065	COUNTDOWN_END	n/a	n/a	n/a	-999	-999	[0, 0, 0]	n/a	FR1	1	R1380D
48.98	2.115	714065	ENCODING_START	n/a	n/a	n/a	-999	-1	[0, 0, 0]	n/a	FR1	1	R1380D
51.095	1.6	716182	WORD	n/a	n/a	IMAGE	1	-1	[0, 0, 0]	n/a	FR1	1	R1380D
52.695	0.834	717778	WORD_OFF	n/a	n/a	IMAGE	1	-1	[0, 0, 0]	n/a	FR1	1	R1380D
53.529	1.599	718616	WORD	n/a	n/a	RING	2	-1	[0, 0, 0]	n/a	FR1	1	R1380D
55.128	0.85	720212	WORD_OFF	n/a	n/a	RING	2	-1	[0, 0, 0]	n/a	FR1	1	R1380D
55.978	1.617	721060	WORD	n/a	n/a	BEAM	3	-1	[0, 0, 0]	n/a	FR1	1	R1380D
57.595	0.967	722686	WORD_OFF	n/a	n/a	BEAM	3	-1	[0, 0, 0]	n/a	FR1	1	R1380D
58.562	1.6	723648	WORD	n/a	n/a	RHINO	4	-1	[0, 0, 0]	n/a	FR1	1	R1380D
60.162	0.85	725243	WORD_OFF	n/a	n/a	RHINO	4	-1	[0, 0, 0]	n/a	FR1	1	R1380D
61.012	1.6	726102	WORD	n/a	n/a	FLOOD	5	-1	[0, 0, 0]	n/a	FR1	1	R1380D
62.612	0.999	727708	WORD_OFF	n/a	n/a	FLOOD	5	-1	[0, 0, 0]	n/a	FR1	1	R1380D
63.611	1.6	728700	WORD	n/a	n/a	CAMEL	6	-1	[0, 0, 0]	n/a	FR1	1	R1380D
65.211	0.834	730295	WORD_OFF	n/a	n/a	CAMEL	6	-1	[0, 0, 0]	n/a	FR1	1	R1380D
66.045	1.6	731134	WORD	n/a	n/a	BABY	7	-1	[0, 0, 0]	n/a	FR1	1	R1380D
67.645	0.967	732729	WORD_OFF	n/a	n/a	BABY	7	-1	[0, 0, 0]	n/a	FR1	1	R1380D
68.612	1.6	733701	WORD	n/a	n/a	COTTON	8	-1	[0, 0, 0]	n/a	FR1	1	R1380D
70.212	0.833	735296	WORD_OFF	n/a	n/a	COTTON	8	-1	[0, 0, 0]	n/a	FR1	1	R1380D
71.045	1.601	736135	WORD	n/a	n/a	TONGUE	9	-1	[0, 0, 0]	n/a	FR1	1	R1380D
72.646	0.883	737730	WORD_OFF	n/a	n/a	TONGUE	9	-1	[0, 0, 0]	n/a	FR1	1	R1380D
73.529	1.601	738620	WORD	n/a	n/a	WATCH	10	-1	[0, 0, 0]	n/a	FR1	1	R1380D
75.13	0.966	740215	WORD_OFF	n/a	n/a	WATCH	10	-1	[0, 0, 0]	n/a	FR1	1	R1380D
76.096	1.6	741176	WORD	n/a	n/a	CHEST	11	-1	[0, 0, 0]	n/a	FR1	1	R1380D
77.696	0.916	742782	WORD_OFF	n/a	n/a	CHEST	11	-1	[0, 0, 0]	n/a	FR1	1	R1380D
78.612	1.616	743702	WORD	n/a	n/a	WAGON	12	-1	[0, 0, 0]	n/a	FR1	1	R1380D
80.228	0.001	745308	WORD_OFF	n/a	n/a	WAGON	12	-1	[0, 0, 0]	n/a	FR1	1	R1380D
80.229	0.001	745313	START	n/a	n/a	n/a	-999	-1	[-999, -999, -999]	n/a	FR1	1	R1380D
80.23	0.0	745314	PROB	0.0	n/a	n/a	-999	-1	[8, 2, 1]	11	FR1	1	R1380D
80.229	0.0	745318	ENCODING_END	n/a	n/a	n/a	-999	-1	[0, 0, 0]	n/a	FR1	1	R1380D
80.229	6.4	745318	DISTRACT_START	n/a	n/a	n/a	-999	-1	[0, 0, 0]	n/a	FR1	1	R1380D
86.629	8.851	751713	PROB	8.851	n/a	n/a	-999	-1	[2, 8, 1]	11	FR1	1	R1380D
95.48	5.565	760563	PROB	5.565	n/a	n/a	-999	-1	[4, 6, 5]	15	FR1	1	R1380D
101.045	0.0	766128	STOP	n/a	n/a	n/a	-999	-1	[-999, -999, -999]	n/a	FR1	1	R1380D
101.045	1.118	766130	DISTRACT_END	n/a	n/a	n/a	-999	-1	[0, 0, 0]	n/a	FR1	1	R1380D
102.163	3.42	767245	REC_START	n/a	n/a	n/a	-999	-1	[0, 0, 0]	n/a	FR1	1	R1380D
105.583	1.629	770666	REC_WORD	1.629	n/a	WAGON	12	-1	[0, 0, 0]	n/a	FR1	1	R1380D
107.212	1.869	772295	REC_WORD	1.869	n/a	CHEST	11	-1	[0, 0, 0]	n/a	FR1	1	R1380D
109.081	1.187	774164	REC_WORD	1.187	n/a	BABY	7	-1	[0, 0, 0]	n/a	FR1	1	R1380D
110.268	1.644	775351	REC_WORD	1.644	n/a	CAMEL	6	-1	[0, 0, 0]	n/a	FR1	1	R1380D
111.912	1.964	776995	REC_WORD	1.964	n/a	IMAGE	1	-1	[0, 0, 0]	n/a	FR1	1	R1380D
113.876	9.27	778959	REC_WORD	9.27	n/a	COTTON	8	-1	[0, 0, 0]	n/a	FR1	1	R1380D
123.146	9.284	788228	REC_WORD	9.284	n/a	TONGUE	9	-1	[0, 0, 0]	n/a	FR1	1	R1380D
132.43	10.399	797516	REC_END	n/a	n/a	n/a	-999	-1	[0, 0, 0]	n/a	FR1	1	R1380D
142.829	10.351	807916	COUNTDOWN_START	n/a	n/a	n/a	-999	1	[0, 0, 0]	n/a	FR1	1	R1380D
153.18	0.0	818266	COUNTDOWN_END	n/a	n/a	n/a	-999	1	[0, 0, 0]	n/a	FR1	1	R1380D
153.18	1.865	818266	ENCODING_START	n/a	n/a	n/a	-999	1	[0, 0, 0]	n/a	FR1	1	R1380D
155.045	1.601	820127	WORD	n/a	wordpools/wordpool_short_EN.txt	SKY	1	1	[0, 0, 0]	n/a	FR1	1	R1380D
156.646	0.982	821723	WORD_OFF	n/a	n/a	SKY	1	1	[0, 0, 0]	n/a	FR1	1	R1380D
157.628	1.6	822704	WORD	n/a	wordpools/wordpool_short_EN.txt	CASH	2	1	[0, 0, 0]	n/a	FR1	1	R1380D
159.228	0.984	824310	WORD_OFF	n/a	n/a	CASH	2	1	[0, 0, 0]	n/a	FR1	1	R1380D
160.212	1.616	825292	WORD	n/a	wordpools/wordpool_short_EN.txt	SLUSH	3	1	[0, 0, 0]	n/a	FR1	1	R1380D
161.828	1.001	826908	WORD_OFF	n/a	n/a	SLUSH	3	1	[0, 0, 0]	n/a	FR1	1	R1380D
162.829	1.617	827910	WORD	n/a	wordpools/wordpool_short_EN.txt	DRAIN	4	1	[0, 0, 0]	n/a	FR1	1	R1380D
164.446	0.833	829526	WORD_OFF	n/a	n/a	DRAIN	4	1	[0, 0, 0]	n/a	FR1	1	R1380D
165.279	1.617	830364	WORD	n/a	wordpools/wordpool_short_EN.txt	BANK	5	1	[0, 0, 0]	n/a	FR1	1	R1380D
166.896	0.983	831980	WORD_OFF	n/a	n/a	BANK	5	1	[0, 0, 0]	n/a	FR1	1	R1380D
167.879	1.617	832962	WORD	n/a	wordpools/wordpool_short_EN.txt	STICK	6	1	[0, 0, 0]	n/a	FR1	1	R1380D
169.496	0.85	834578	WORD_OFF	n/a	n/a	STICK	6	1	[0, 0, 0]	n/a	FR1	1	R1380D
170.346	1.617	835427	WORD	n/a	wordpools/wordpool_short_EN.txt	POLE	7	1	[0, 0, 0]	n/a	FR1	1	R1380D
171.963	0.865	837042	WORD_OFF	n/a	n/a	POLE	7	1	[0, 0, 0]	n/a	FR1	1	R1380D
172.828	1.601	837912	WORD	n/a	wordpools/wordpool_short_EN.txt	FOOD	8	1	[0, 0, 0]	n/a	FR1	1	R1380D
174.429	0.817	839507	WORD_OFF	n/a	n/a	FOOD	8	1	[0, 0, 0]	n/a	FR1	1	R1380D
175.246	1.6	840325	WORD	n/a	wordpools/wordpool_short_EN.txt	BONE	9	1	[0, 0, 0]	n/a	FR1	1	R1380D
176.846	0.766	841921	WORD_OFF	n/a	n/a	BONE	9	1	[0, 0, 0]	n/a	FR1	1	R1380D
177.612	1.601	842688	WORD	n/a	wordpools/wordpool_short_EN.txt	LIP	10	1	[0, 0, 0]	n/a	FR1	1	R1380D
179.213	0.849	844293	WORD_OFF	n/a	n/a	LIP	10	1	[0, 0, 0]	n/a	FR1	1	R1380D
180.062	1.6	845142	WORD	n/a	wordpools/wordpool_short_EN.txt	SPARK	11	1	[0, 0, 0]	n/a	FR1	1	R1380D
181.662	0.917	846737	WORD_OFF	n/a	n/a	SPARK	11	1	[0, 0, 0]	n/a	FR1	1	R1380D
182.579	1.617	847658	WORD	n/a	wordpools/wordpool_short_EN.txt	SMOKE	12	1	[0, 0, 0]	n/a	FR1	1	R1380D
184.196	0.001	849274	WORD_OFF	n/a	n/a	SMOKE	12	1	[0, 0, 0]	n/a	FR1	1	R1380D
184.197	0.0	849274	ENCODING_END	n/a	n/a	n/a	-999	1	[0, 0, 0]	n/a	FR1	1	R1380D
184.197	0.0	849274	DISTRACT_START	n/a	n/a	n/a	-999	1	[0, 0, 0]	n/a	FR1	1	R1380D
184.197	0.0	849276	START	n/a	n/a	n/a	-999	1	[-999, -999, -999]	n/a	FR1	1	R1380D
184.197	8.432	849276	PROB	8.432	n/a	n/a	-999	1	[7, 1, 6]	14	FR1	1	R1380D
192.629	8.484	857708	PROB	8.484	n/a	n/a	-999	1	[4, 3, 5]	12	FR1	1	R1380D
201.113	7.966	866191	PROB	7.966	n/a	n/a	-999	1	[7, 6, 6]	19	FR1	1	R1380D
209.079	0.0	874155	DISTRACT_END	n/a	n/a	n/a	-999	1	[0, 0, 0]	n/a	FR1	1	R1380D
209.079	1.15	874157	STOP	n/a	n/a	n/a	-999	1	[-999, -999, -999]	n/a	FR1	1	R1380D
210.229	2.072	875311	REC_START	n/a	n/a	n/a	-999	1	[0, 0, 0]	n/a	FR1	1	R1380D
212.301	0.916	877379	REC_WORD	0.916	n/a	POLE	7	1	[0, 0, 0]	n/a	FR1	1	R1380D
213.217	1.652	878295	REC_WORD	1.652	n/a	STICK	6	1	[0, 0, 0]	n/a	FR1	1	R1380D
214.869	1.75	879946	REC_WORD	1.75	n/a	CASH	2	1	[0, 0, 0]	n/a	FR1	1	R1380D
216.619	1.228	881696	REC_WORD	1.228	n/a	BANK	5	1	[0, 0, 0]	n/a	FR1	1	R1380D
217.847	2.01	882924	REC_WORD	2.01	n/a	SKY	1	1	[0, 0, 0]	n/a	FR1	1	R1380D
219.857	1.417	884934	REC_WORD	1.417	n/a	DRAIN	4	1	[0, 0, 0]	n/a	FR1	1	R1380D
221.274	19.195	886351	REC_WORD	19.195	n/a	FLOOD	-999	1	[0, 0, 0]	n/a	FR1	1	R1380D
240.469	2.61	905541	REC_END	n/a	n/a	n/a	-999	1	[0, 0, 0]	n/a	FR1	1	R1380D
243.079	10.351	908160	COUNTDOWN_START	n/a	n/a	n/a	-999	2	[0, 0, 0]	n/a	FR1	1	R1380D
253.43	0.0	918509	COUNTDOWN_END	n/a	n/a	n/a	-999	2	[0, 0, 0]	n/a	FR1	1	R1380D
253.43	2.265	918509	ENCODING_START	n/a	n/a	n/a	-999	2	[0, 0, 0]	n/a	FR1	1	R1380D
255.695	1.601	920769	WORD	n/a	wordpools/wordpool_short_EN.txt	MAT	1	2	[0, 0, 0]	n/a	FR1	1	R1380D
257.296	0.916	922375	WORD_OFF	n/a	n/a	MAT	1	2	[0, 0, 0]	n/a	FR1	1	R1380D
258.212	1.617	923285	WORD	n/a	wordpools/wordpool_short_EN.txt	BEAK	2	2	[0, 0, 0]	n/a	FR1	1	R1380D
259.829	0.933	924901	WORD_OFF	n/a	n/a	BEAK	2	2	[0, 0, 0]	n/a	FR1	1	R1380D
260.762	1.601	925842	WORD	n/a	wordpools/wordpool_short_EN.txt	BLOOD	3	2	[0, 0, 0]	n/a	FR1	1	R1380D
262.363	0.783	927437	WORD_OFF	n/a	n/a	BLOOD	3	2	[0, 0, 0]	n/a	FR1	1	R1380D
263.146	1.6	928225	WORD	n/a	wordpools/wordpool_short_EN.txt	GATE	4	2	[0, 0, 0]	n/a	FR1	1	R1380D
264.746	0.999	929820	WORD_OFF	n/a	n/a	GATE	4	2	[0, 0, 0]	n/a	FR1	1	R1380D
265.745	1.602	930822	WORD	n/a	wordpools/wordpool_short_EN.txt	SACK	5	2	[0, 0, 0]	n/a	FR1	1	R1380D
267.347	0.916	932418	WORD_OFF	n/a	n/a	SACK	5	2	[0, 0, 0]	n/a	FR1	1	R1380D
268.263	1.616	933338	WORD	n/a	wordpools/wordpool_short_EN.txt	HOOK	6	2	[0, 0, 0]	n/a	FR1	1	R1380D
269.879	0.917	934954	WORD_OFF	n/a	n/a	HOOK	6	2	[0, 0, 0]	n/a	FR1	1	R1380D
270.796	1.6	935874	WORD	n/a	wordpools/wordpool_short_EN.txt	LIMB	7	2	[0, 0, 0]	n/a	FR1	1	R1380D
272.396	0.9	937470	WORD_OFF	n/a	n/a	LIMB	7	2	[0, 0, 0]	n/a	FR1	1	R1380D
273.296	1.616	938370	WORD	n/a	wordpools/wordpool_short_EN.txt	STEM	8	2	[0, 0, 0]	n/a	FR1	1	R1380D
274.912	0.983	939985	WORD_OFF	n/a	n/a	STEM	8	2	[0, 0, 0]	n/a	FR1	1	R1380D
275.895	1.617	940967	WORD	n/a	wordpools/wordpool_short_EN.txt	TIN	9	2	[0, 0, 0]	n/a	FR1	1	R1380D
277.512	0.8	942583	WORD_OFF	n/a	n/a	TIN	9	2	[0, 0, 0]	n/a	FR1	1	R1380D
278.312	1.6	943391	WORD	n/a	wordpools/wordpool_short_EN.txt	SNAKE	10	2	[0, 0, 0]	n/a	FR1	1	R1380D
279.912	0.817	944986	WORD_OFF	n/a	n/a	SNAKE	10	2	[0, 0, 0]	n/a	FR1	1	R1380D
280.729	1.6	945804	WORD	n/a	wordpools/wordpool_short_EN.txt	KEY	11	2	[0, 0, 0]	n/a	FR1	1	R1380D
282.329	0.783	947400	WORD_OFF	n/a	n/a	KEY	11	2	[0, 0, 0]	n/a	FR1	1	R1380D
283.112	1.616	948187	WORD	n/a	wordpools/wordpool_short_EN.txt	CAVE	12	2	[0, 0, 0]	n/a	FR1	1	R1380D
284.728	0.001	949803	WORD_OFF	n/a	n/a	CAVE	12	2	[0, 0, 0]	n/a	FR1	1	R1380D
284.729	0.001	949803	ENCODING_END	n/a	n/a	n/a	-999	2	[0, 0, 0]	n/a	FR1	1	R1380D
284.73	0.0	949803	DISTRACT_START	n/a	n/a	n/a	-999	2	[0, 0, 0]	n/a	FR1	1	R1380D
284.729	0.001	949803	PROB	0.001	n/a	n/a	-999	2	[4, 8, 3]	15	FR1	1	R1380D
284.73	3.899	949804	START	n/a	n/a	n/a	-999	2	[-999, -999, -999]	n/a	FR1	1	R1380D
288.629	5.267	953703	PROB	5.267	n/a	n/a	-999	2	[4, 8, 3]	15	FR1	1	R1380D
293.896	4.184	958969	PROB	4.184	n/a	n/a	-999	2	[4, 3, 2]	9	FR1	1	R1380D
298.08	9.516	963153	PROB	9.516	n/a	n/a	-999	2	[3, 6, 3]	12	FR1	1	R1380D
307.596	0.0	972669	STOP	n/a	n/a	n/a	-999	2	[-999, -999, -999]	n/a	FR1	1	R1380D
307.596	1.149	972670	DISTRACT_END	n/a	n/a	n/a	-999	2	[0, 0, 0]	n/a	FR1	1	R1380D
308.745	28.165	973816	REC_START	n/a	n/a	n/a	-999	2	[0, 0, 0]	n/a	FR1	1	R1380D
336.91	2.088	1001981	REC_WORD_VV	2.088	n/a	<>	-999	2	[0, 0, 0]	n/a	FR1	1	R1380D
338.998	16.33	1004066	REC_END	n/a	n/a	n/a	-999	2	[0, 0, 0]	n/a	FR1	1	R1380D
355.328	10.351	1020399	COUNTDOWN_START	n/a	n/a	n/a	-999	3	[0, 0, 0]	n/a	FR1	1	R1380D
365.679	0.0	1030748	COUNTDOWN_END	n/a	n/a	n/a	-999	3	[0, 0, 0]	n/a	FR1	1	R1380D
365.679	1.85	1030748	ENCODING_START	n/a	n/a	n/a	-999	3	[0, 0, 0]	n/a	FR1	1	R1380D
367.529	1.617	1032599	WORD	n/a	wordpools/wordpool_short_EN.txt	ASH	1	3	[0, 0, 0]	n/a	FR1	1	R1380D
369.146	0.85	1034215	WORD_OFF	n/a	n/a	ASH	1	3	[0, 0, 0]	n/a	FR1	1	R1380D
369.996	1.6	1035064	WORD	n/a	wordpools/wordpool_short_EN.txt	STOOL	2	3	[0, 0, 0]	n/a	FR1	1	R1380D
371.596	1.0	1036669	WORD_OFF	n/a	n/a	STOOL	2	3	[0, 0, 0]	n/a	FR1	1	R1380D
372.596	1.6	1037661	WORD	n/a	wordpools/wordpool_short_EN.txt	SHED	3	3	[0, 0, 0]	n/a	FR1	1	R1380D
374.196	0.832	1039267	WORD_OFF	n/a	n/a	SHED	3	3	[0, 0, 0]	n/a	FR1	1	R1380D
375.028	1.601	1040095	WORD	n/a	wordpools/wordpool_short_EN.txt	PLATE	4	3	[0, 0, 0]	n/a	FR1	1	R1380D
376.629	0.983	1041701	WORD_OFF	n/a	n/a	PLATE	4	3	[0, 0, 0]	n/a	FR1	1	R1380D
377.612	1.6	1042683	WORD	n/a	wordpools/wordpool_short_EN.txt	WOOD	5	3	[0, 0, 0]	n/a	FR1	1	R1380D
379.212	0.867	1044278	WORD_OFF	n/a	n/a	WOOD	5	3	[0, 0, 0]	n/a	FR1	1	R1380D
380.079	1.616	1045148	WORD	n/a	wordpools/wordpool_short_EN.txt	SPRING	6	3	[0, 0, 0]	n/a	FR1	1	R1380D
381.695	0.951	1046763	WORD_OFF	n/a	n/a	SPRING	6	3	[0, 0, 0]	n/a	FR1	1	R1380D
382.646	1.615	1047714	WORD	n/a	wordpools/wordpool_short_EN.txt	TOAD	7	3	[0, 0, 0]	n/a	FR1	1	R1380D
384.261	0.867	1049330	WORD_OFF	n/a	n/a	TOAD	7	3	[0, 0, 0]	n/a	FR1	1	R1380D
385.128	1.601	1050200	WORD	n/a	wordpools/wordpool_short_EN.txt	LAMP	8	3	[0, 0, 0]	n/a	FR1	1	R1380D
386.729	0.867	1051795	WORD_OFF	n/a	n/a	LAMP	8	3	[0, 0, 0]	n/a	FR1	1	R1380D
387.596	1.6	1052664	WORD	n/a	wordpools/wordpool_short_EN.txt	BOARD	9	3	[0, 0, 0]	n/a	FR1	1	R1380D
389.196	0.866	1054270	WORD_OFF	n/a	n/a	BOARD	9	3	[0, 0, 0]	n/a	FR1	1	R1380D
390.062	1.616	1055129	WORD	n/a	wordpools/wordpool_short_EN.txt	CAT	10	3	[0, 0, 0]	n/a	FR1	1	R1380D
391.678	1.0	1056745	WORD_OFF	n/a	n/a	CAT	10	3	[0, 0, 0]	n/a	FR1	1	R1380D
392.678	1.618	1057747	WORD	n/a	wordpools/wordpool_short_EN.txt	MAZE	11	3	[0, 0, 0]	n/a	FR1	1	R1380D
394.296	0.95	1059363	WORD_OFF	n/a	n/a	MAZE	11	3	[0, 0, 0]	n/a	FR1	1	R1380D
395.246	1.616	1060314	WORD	n/a	wordpools/wordpool_short_EN.txt	EEL	12	3	[0, 0, 0]	n/a	FR1	1	R1380D
396.862	0.002	1061930	WORD_OFF	n/a	n/a	EEL	12	3	[0, 0, 0]	n/a	FR1	1	R1380D
396.864	0.0	1061930	ENCODING_END	n/a	n/a	n/a	-999	3	[0, 0, 0]	n/a	FR1	1	R1380D
396.864	0.0	1061930	DISTRACT_START	n/a	n/a	n/a	-999	3	[0, 0, 0]	n/a	FR1	1	R1380D
396.863	0.001	1061931	PROB	0.001	n/a	n/a	-999	3	[5, 2, 8]	18	FR1	1	R1380D
396.864	3.882	1061932	START	n/a	n/a	n/a	-999	3	[-999, -999, -999]	n/a	FR1	1	R1380D
400.746	4.167	1065814	PROB	4.167	n/a	n/a	-999	3	[1, 3, 2]	6	FR1	1	R1380D
404.913	5.833	1069981	PROB	5.833	n/a	n/a	-999	3	[4, 8, 7]	19	FR1	1	R1380D
410.746	4.717	1075814	PROB	4.717	n/a	n/a	-999	3	[4, 6, 2]	12	FR1	1	R1380D
415.463	4.315	1080530	PROB	4.315	n/a	n/a	-999	3	[6, 7, 2]	15	FR1	1	R1380D
419.778	0.0	1084845	STOP	n/a	n/a	n/a	-999	3	[-999, -999, -999]	n/a	FR1	1	R1380D
419.778	1.167	1084848	DISTRACT_END	n/a	n/a	n/a	-999	3	[0, 0, 0]	n/a	FR1	1	R1380D
420.945	2.228	1086014	REC_START	n/a	n/a	n/a	-999	3	[0, 0, 0]	n/a	FR1	1	R1380D
423.173	1.754	1088240	REC_WORD	1.754	n/a	ASH	1	3	[0, 0, 0]	n/a	FR1	1	R1380D
424.927	1.645	1089994	REC_WORD	1.645	n/a	BOARD	9	3	[0, 0, 0]	n/a	FR1	1	R1380D
426.572	2.268	1091639	REC_WORD	2.268	n/a	STOOL	2	3	[0, 0, 0]	n/a	FR1	1	R1380D
428.84	1.661	1093907	REC_WORD	1.661	n/a	LAMP	8	3	[0, 0, 0]	n/a	FR1	1	R1380D
430.501	1.583	1095568	REC_WORD	1.583	n/a	CAT	10	3	[0, 0, 0]	n/a	FR1	1	R1380D
432.084	1.625	1097150	REC_WORD	1.625	n/a	MAZE	11	3	[0, 0, 0]	n/a	FR1	1	R1380D
433.709	1.972	1098775	REC_WORD	1.972	n/a	TOAD	7	3	[0, 0, 0]	n/a	FR1	1	R1380D
435.681	6.782	1100747	REC_WORD	6.782	n/a	EEL	12	3	[0, 0, 0]	n/a	FR1	1	R1380D
442.463	2.99	1107529	REC_WORD_VV	2.99	n/a	<>	-999	3	[0, 0, 0]	n/a	FR1	1	R1380D
445.453	5.73	1110519	REC_WORD_VV	5.73	n/a	<>	-999	3	[0, 0, 0]	n/a	FR1	1	R1380D
451.183	2.38	1116254	REC_END	n/a	n/a	n/a	-999	3	[0, 0, 0]	n/a	FR1	1	R1380D
453.563	10.35	1118637	COUNTDOWN_START	n/a	n/a	n/a	-999	4	[0, 0, 0]	n/a	FR1	1	R1380D
463.913	0.0	1128977	COUNTDOWN_END	n/a	n/a	n/a	-999	4	[0, 0, 0]	n/a	FR1	1	R1380D
463.913	2.183	1128977	ENCODING_START	n/a	n/a	n/a	-999	4	[0, 0, 0]	n/a	FR1	1	R1380D
466.096	1.6	1131165	WORD	n/a	wordpools/wordpool_short_EN.txt	SNAIL	1	4	[0, 0, 0]	n/a	FR1	1	R1380D
467.696	0.783	1132760	WORD_OFF	n/a	n/a	SNAIL	1	4	[0, 0, 0]	n/a	FR1	1	R1380D
468.479	1.617	1133548	WORD	n/a	wordpools/wordpool_short_EN.txt	ICE	2	4	[0, 0, 0]	n/a	FR1	1	R1380D
470.096	0.833	1135164	WORD_OFF	n/a	n/a	ICE	2	4	[0, 0, 0]	n/a	FR1	1	R1380D
470.929	1.6	1135992	WORD	n/a	wordpools/wordpool_short_EN.txt	BOWL	3	4	[0, 0, 0]	n/a	FR1	1	R1380D
472.529	0.983	1137598	WORD_OFF	n/a	n/a	BOWL	3	4	[0, 0, 0]	n/a	FR1	1	R1380D
473.512	1.6	1138580	WORD	n/a	wordpools/wordpool_short_EN.txt	MAP	4	4	[0, 0, 0]	n/a	FR1	1	R1380D
475.112	0.866	1140175	WORD_OFF	n/a	n/a	MAP	4	4	[0, 0, 0]	n/a	FR1	1	R1380D
475.978	1.601	1141044	WORD	n/a	wordpools/wordpool_short_EN.txt	BLUSH	5	4	[0, 0, 0]	n/a	FR1	1	R1380D
477.579	0.817	1142640	WORD_OFF	n/a	n/a	BLUSH	5	4	[0, 0, 0]	n/a	FR1	1	R1380D
478.396	1.6	1143458	WORD	n/a	wordpools/wordpool_short_EN.txt	BENCH	6	4	[0, 0, 0]	n/a	FR1	1	R1380D
479.996	0.916	1145063	WORD_OFF	n/a	n/a	BENCH	6	4	[0, 0, 0]	n/a	FR1	1	R1380D
480.912	1.6	1145973	WORD	n/a	wordpools/wordpool_short_EN.txt	DEER	7	4	[0, 0, 0]	n/a	FR1	1	R1380D
482.512	0.85	1147579	WORD_OFF	n/a	n/a	DEER	7	4	[0, 0, 0]	n/a	FR1	1	R1380D
483.362	1.617	1148428	WORD	n/a	wordpools/wordpool_short_EN.txt	RIB	8	4	[0, 0, 0]	n/a	FR1	1	R1380D
484.979	0.816	1150044	WORD_OFF	n/a	n/a	RIB	8	4	[0, 0, 0]	n/a	FR1	1	R1380D
485.795	1.601	1150862	WORD	n/a	wordpools/wordpool_short_EN.txt	PRINCE	9	4	[0, 0, 0]	n/a	FR1	1	R1380D
487.396	0.816	1152457	WORD_OFF	n/a	n/a	PRINCE	9	4	[0, 0, 0]	n/a	FR1	1	R1380D
488.212	1.6	1153275	WORD	n/a	wordpools/wordpool_short_EN.txt	BADGE	10	4	[0, 0, 0]	n/a	FR1	1	R1380D
489.812	0.8	1154881	WORD_OFF	n/a	n/a	BADGE	10	4	[0, 0, 0]	n/a	FR1	1	R1380D
490.612	1.6	1155679	WORD	n/a	wordpools/wordpool_short_EN.txt	CRANE	11	4	[0, 0, 0]	n/a	FR1	1	R1380D
492.212	0.783	1157274	WORD_OFF	n/a	n/a	CRANE	11	4	[0, 0, 0]	n/a	FR1	1	R1380D
492.995	1.6	1158062	WORD	n/a	wordpools/wordpool_short_EN.txt	STORE	12	4	[0, 0, 0]	n/a	FR1	1	R1380D
494.595	0.002	1159657	WORD_OFF	n/a	n/a	STORE	12	4	[0, 0, 0]	n/a	FR1	1	R1380D
494.597	0.0	1159657	ENCODING_END	n/a	n/a	n/a	-999	4	[0, 0, 0]	n/a	FR1	1	R1380D
494.596	0.001	1159659	PROB	0.001	n/a	n/a	-999	4	[6, 8, 6]	20	FR1	1	R1380D
494.597	0.0	1159660	START	n/a	n/a	n/a	-999	4	[-999, -999, -999]	n/a	FR1	1	R1380D
494.597	6.665	1159667	DISTRACT_START	n/a	n/a	n/a	-999	4	[0, 0, 0]	n/a	FR1	1	R1380D
501.262	5.4	1166325	PROB	5.4	n/a	n/a	-999	4	[8, 3, 2]	13	FR1	1	R1380D
506.662	4.983	1171725	PROB	4.983	n/a	n/a	-999	4	[4, 6, 7]	17	FR1	1	R1380D
511.645	5.833	1176707	PROB	5.833	n/a	n/a	-999	4	[8, 8, 2]	18	FR1	1	R1380D
517.478	0.0	1182540	STOP	n/a	n/a	n/a	-999	4	[-999, -999, -999]	n/a	FR1	1	R1380D
517.478	1.101	1182545	DISTRACT_END	n/a	n/a	n/a	-999	4	[0, 0, 0]	n/a	FR1	1	R1380D
518.579	2.359	1183639	REC_START	n/a	n/a	n/a	-999	4	[0, 0, 0]	n/a	FR1	1	R1380D
520.938	1.193	1186000	REC_WORD	1.193	n/a	CRANE	11	4	[0, 0, 0]	n/a	FR1	1	R1380D
522.131	1.91	1187193	REC_WORD	1.91	n/a	PRINCE	9	4	[0, 0, 0]	n/a	FR1	1	R1380D
524.041	1.367	1189103	REC_WORD	1.367	n/a	BADGE	10	4	[0, 0, 0]	n/a	FR1	1	R1380D
525.408	1.761	1190470	REC_WORD	1.761	n/a	DEER	7	4	[0, 0, 0]	n/a	FR1	1	R1380D
527.169	4.205	1192231	REC_WORD	4.205	n/a	RIB	8	4	[0, 0, 0]	n/a	FR1	1	R1380D
531.374	1.906	1196435	REC_WORD	1.906	n/a	BONE	-999	4	[0, 0, 0]	n/a	FR1	1	R1380D
533.28	15.553	1198341	REC_WORD_VV	15.553	n/a	<>	-999	4	[0, 0, 0]	n/a	FR1	1	R1380D
548.833	2.08	1213890	REC_END	n/a	n/a	n/a	-999	4	[0, 0, 0]	n/a	FR1	1	R1380D
550.913	10.35	1215976	COUNTDOWN_START	n/a	n/a	n/a	-999	5	[0, 0, 0]	n/a	FR1	1	R1380D
561.263	0.0	1226325	COUNTDOWN_END	n/a	n/a	n/a	-999	5	[0, 0, 0]	n/a	FR1	1	R1380D
561.263	1.933	1226325	ENCODING_START	n/a	n/a	n/a	-999	5	[0, 0, 0]	n/a	FR1	1	R1380D
563.196	1.616	1228258	WORD	n/a	wordpools/wordpool_short_EN.txt	BEAN	1	5	[0, 0, 0]	n/a	FR1	1	R1380D
564.812	0.8	1229874	WORD_OFF	n/a	n/a	BEAN	1	5	[0, 0, 0]	n/a	FR1	1	R1380D
565.612	1.6	1230672	WORD	n/a	wordpools/wordpool_short_EN.txt	LENS	2	5	[0, 0, 0]	n/a	FR1	1	R1380D
567.212	0.934	1232277	WORD_OFF	n/a	n/a	LENS	2	5	[0, 0, 0]	n/a	FR1	1	R1380D
568.146	1.6	1233208	WORD	n/a	wordpools/wordpool_short_EN.txt	MUG	3	5	[0, 0, 0]	n/a	FR1	1	R1380D
569.746	0.849	1234803	WORD_OFF	n/a	n/a	MUG	3	5	[0, 0, 0]	n/a	FR1	1	R1380D
570.595	1.601	1235652	WORD	n/a	wordpools/wordpool_short_EN.txt	SWAMP	4	5	[0, 0, 0]	n/a	FR1	1	R1380D
572.196	0.95	1237258	WORD_OFF	n/a	n/a	SWAMP	4	5	[0, 0, 0]	n/a	FR1	1	R1380D
573.146	1.6	1238209	WORD	n/a	wordpools/wordpool_short_EN.txt	SOUP	5	5	[0, 0, 0]	n/a	FR1	1	R1380D
574.746	0.766	1239804	WORD_OFF	n/a	n/a	SOUP	5	5	[0, 0, 0]	n/a	FR1	1	R1380D
575.512	1.6	1240571	WORD	n/a	wordpools/wordpool_short_EN.txt	SLIME	6	5	[0, 0, 0]	n/a	FR1	1	R1380D
577.112	0.884	1242167	WORD_OFF	n/a	n/a	SLIME	6	5	[0, 0, 0]	n/a	FR1	1	R1380D
577.996	1.616	1243056	WORD	n/a	wordpools/wordpool_short_EN.txt	WAVE	7	5	[0, 0, 0]	n/a	FR1	1	R1380D
579.612	0.883	1244672	WORD_OFF	n/a	n/a	WAVE	7	5	[0, 0, 0]	n/a	FR1	1	R1380D
580.495	1.6	1245552	WORD	n/a	wordpools/wordpool_short_EN.txt	SOAP	8	5	[0, 0, 0]	n/a	FR1	1	R1380D
582.095	0.917	1247157	WORD_OFF	n/a	n/a	SOAP	8	5	[0, 0, 0]	n/a	FR1	1	R1380D
583.012	1.617	1248068	WORD	n/a	wordpools/wordpool_short_EN.txt	MOUTH	9	5	[0, 0, 0]	n/a	FR1	1	R1380D
584.629	0.866	1249683	WORD_OFF	n/a	n/a	MOUTH	9	5	[0, 0, 0]	n/a	FR1	1	R1380D
585.495	1.617	1250553	WORD	n/a	wordpools/wordpool_short_EN.txt	POT	10	5	[0, 0, 0]	n/a	FR1	1	R1380D
587.112	0.95	1252169	WORD_OFF	n/a	n/a	POT	10	5	[0, 0, 0]	n/a	FR1	1	R1380D
588.062	1.617	1253120	WORD	n/a	wordpools/wordpool_short_EN.txt	CHIEF	11	5	[0, 0, 0]	n/a	FR1	1	R1380D
589.679	0.966	1254736	WORD_OFF	n/a	n/a	CHIEF	11	5	[0, 0, 0]	n/a	FR1	1	R1380D
590.645	1.6	1255707	WORD	n/a	wordpools/wordpool_short_EN.txt	HAT	12	5	[0, 0, 0]	n/a	FR1	1	R1380D
592.245	0.002	1257302	WORD_OFF	n/a	n/a	HAT	12	5	[0, 0, 0]	n/a	FR1	1	R1380D
592.247	0.0	1257302	ENCODING_END	n/a	n/a	n/a	-999	5	[0, 0, 0]	n/a	FR1	1	R1380D
592.246	0.001	1257304	PROB	0.001	n/a	n/a	-999	5	[7, 1, 8]	16	FR1	1	R1380D
592.247	0.0	1257305	START	n/a	n/a	n/a	-999	5	[-999, -999, -999]	n/a	FR1	1	R1380D
592.247	4.782	1257313	DISTRACT_START	n/a	n/a	n/a	-999	5	[0, 0, 0]	n/a	FR1	1	R1380D
597.029	4.066	1262087	PROB	4.066	n/a	n/a	-999	5	[7, 8, 4]	19	FR1	1	R1380D
601.095	3.751	1266153	PROB	3.751	n/a	n/a	-999	5	[4, 1, 5]	10	FR1	1	R1380D
604.846	3.017	1269904	PROB	3.017	n/a	n/a	-999	5	[8, 2, 3]	13	FR1	1	R1380D
607.863	4.266	1272921	PROB	4.266	n/a	n/a	-999	5	[1, 6, 6]	13	FR1	1	R1380D
612.129	3.883	1277186	PROB	3.883	n/a	n/a	-999	5	[2, 6, 4]	12	FR1	1	R1380D
616.012	0.0	1281069	DISTRACT_END	n/a	n/a	n/a	-999	5	[0, 0, 0]	n/a	FR1	1	R1380D
616.012	1.133	1281069	STOP	n/a	n/a	n/a	-999	5	[-999, -999, -999]	n/a	FR1	1	R1380D
617.145	2.24	1282205	REC_START	n/a	n/a	n/a	-999	5	[0, 0, 0]	n/a	FR1	1	R1380D
619.385	1.665	1284442	REC_WORD	1.665	n/a	CHIEF	11	5	[0, 0, 0]	n/a	FR1	1	R1380D
621.05	4.927	1286107	REC_WORD	4.927	n/a	HAT	12	5	[0, 0, 0]	n/a	FR1	1	R1380D
625.977	12.064	1291034	REC_WORD	12.064	n/a	BEAN	1	5	[0, 0, 0]	n/a	FR1	1	R1380D
638.041	9.361	1303097	REC_WORD_VV	9.361	n/a	<>	-999	5	[0, 0, 0]	n/a	FR1	1	R1380D
647.402	1.744	1312456	REC_END	n/a	n/a	n/a	-999	5	[0, 0, 0]	n/a	FR1	1	R1380D
649.146	10.35	1314204	COUNTDOWN_START	n/a	n/a	n/a	-999	6	[0, 0, 0]	n/a	FR1	1	R1380D
659.496	0.001	1324554	COUNTDOWN_END	n/a	n/a	n/a	-999	6	[0, 0, 0]	n/a	FR1	1	R1380D
659.497	2.165	1324554	ENCODING_START	n/a	n/a	n/a	-999	6	[0, 0, 0]	n/a	FR1	1	R1380D
661.662	1.6	1326722	WORD	n/a	wordpools/wordpool_short_EN.txt	DOG	1	6	[0, 0, 0]	n/a	FR1	1	R1380D
663.262	0.966	1328328	WORD_OFF	n/a	n/a	DOG	1	6	[0, 0, 0]	n/a	FR1	1	R1380D
664.228	1.6	1329279	WORD	n/a	wordpools/wordpool_short_EN.txt	TEETH	2	6	[0, 0, 0]	n/a	FR1	1	R1380D
665.828	0.801	1330884	WORD_OFF	n/a	n/a	TEETH	2	6	[0, 0, 0]	n/a	FR1	1	R1380D
666.629	1.617	1331682	WORD	n/a	wordpools/wordpool_short_EN.txt	MINK	3	6	[0, 0, 0]	n/a	FR1	1	R1380D
668.246	0.866	1333298	WORD_OFF	n/a	n/a	MINK	3	6	[0, 0, 0]	n/a	FR1	1	R1380D
669.112	1.6	1334167	WORD	n/a	wordpools/wordpool_short_EN.txt	PET	4	6	[0, 0, 0]	n/a	FR1	1	R1380D
670.712	0.833	1335762	WORD_OFF	n/a	n/a	PET	4	6	[0, 0, 0]	n/a	FR1	1	R1380D
671.545	1.6	1336601	WORD	n/a	wordpools/wordpool_short_EN.txt	RAMP	5	6	[0, 0, 0]	n/a	FR1	1	R1380D
673.145	0.95	1338196	WORD_OFF	n/a	n/a	RAMP	5	6	[0, 0, 0]	n/a	FR1	1	R1380D
674.095	1.6	1339147	WORD	n/a	wordpools/wordpool_short_EN.txt	TANK	6	6	[0, 0, 0]	n/a	FR1	1	R1380D
675.695	0.967	1340753	WORD_OFF	n/a	n/a	TANK	6	6	[0, 0, 0]	n/a	FR1	1	R1380D
676.662	1.6	1341714	WORD	n/a	wordpools/wordpool_short_EN.txt	PLANT	7	6	[0, 0, 0]	n/a	FR1	1	R1380D
678.262	0.767	1343320	WORD_OFF	n/a	n/a	PLANT	7	6	[0, 0, 0]	n/a	FR1	1	R1380D
679.029	1.599	1344087	WORD	n/a	wordpools/wordpool_short_EN.txt	ARK	8	6	[0, 0, 0]	n/a	FR1	1	R1380D
680.628	0.934	1345682	WORD_OFF	n/a	n/a	ARK	8	6	[0, 0, 0]	n/a	FR1	1	R1380D
681.562	1.6	1346613	WORD	n/a	wordpools/wordpool_short_EN.txt	SEED	9	6	[0, 0, 0]	n/a	FR1	1	R1380D
683.162	0.95	1348219	WORD_OFF	n/a	n/a	SEED	9	6	[0, 0, 0]	n/a	FR1	1	R1380D
684.112	1.6	1349170	WORD	n/a	wordpools/wordpool_short_EN.txt	CAPE	10	6	[0, 0, 0]	n/a	FR1	1	R1380D
685.712	0.85	1350765	WORD_OFF	n/a	n/a	CAPE	10	6	[0, 0, 0]	n/a	FR1	1	R1380D
686.562	1.6	1351614	WORD	n/a	wordpools/wordpool_short_EN.txt	OAR	11	6	[0, 0, 0]	n/a	FR1	1	R1380D
688.162	0.883	1353220	WORD_OFF	n/a	n/a	OAR	11	6	[0, 0, 0]	n/a	FR1	1	R1380D
689.045	1.617	1354099	WORD	n/a	wordpools/wordpool_short_EN.txt	VEST	12	6	[0, 0, 0]	n/a	FR1	1	R1380D
690.662	0.001	1355715	WORD_OFF	n/a	n/a	VEST	12	6	[0, 0, 0]	n/a	FR1	1	R1380D
690.663	0.0	1355715	ENCODING_END	n/a	n/a	n/a	-999	6	[0, 0, 0]	n/a	FR1	1	R1380D
690.663	0.0	1355715	DISTRACT_START	n/a	n/a	n/a	-999	6	[0, 0, 0]	n/a	FR1	1	R1380D
690.662	0.001	1355715	PROB	0.001	n/a	n/a	-999	6	[6, 3, 3]	12	FR1	1	R1380D
690.663	4.699	1355716	START	n/a	n/a	n/a	-999	6	[-999, -999, -999]	n/a	FR1	1	R1380D
695.362	6.818	1360415	PROB	6.818	n/a	n/a	-999	6	[2, 7, 5]	14	FR1	1	R1380D
702.18	3.984	1367233	PROB	3.984	n/a	n/a	-999	6	[6, 8, 2]	16	FR1	1	R1380D
706.164	5.117	1371217	PROB	5.117	n/a	n/a	-999	6	[6, 6, 5]	17	FR1	1	R1380D
711.281	0.0	1376332	DISTRACT_END	n/a	n/a	n/a	-999	6	[0, 0, 0]	n/a	FR1	1	R1380D
711.281	1.198	1376333	STOP	n/a	n/a	n/a	-999	6	[-999, -999, -999]	n/a	FR1	1	R1380D
712.479	5.818	1377529	REC_START	n/a	n/a	n/a	-999	6	[0, 0, 0]	n/a	FR1	1	R1380D
718.297	1.466	1383349	REC_WORD	1.466	n/a	DOG	1	6	[0, 0, 0]	n/a	FR1	1	R1380D
719.763	1.232	1384815	REC_WORD	1.232	n/a	PET	4	6	[0, 0, 0]	n/a	FR1	1	R1380D
720.995	1.775	1386047	REC_WORD	1.775	n/a	MINK	3	6	[0, 0, 0]	n/a	FR1	1	R1380D
722.77	11.374	1387822	REC_WORD	11.374	n/a	TEETH	2	6	[0, 0, 0]	n/a	FR1	1	R1380D
734.144	1.174	1399195	REC_WORD	1.174	n/a	CHIEF	-999	6	[0, 0, 0]	n/a	FR1	1	R1380D
735.318	7.413	1400369	REC_WORD	7.413	n/a	CAPE	10	6	[0, 0, 0]	n/a	FR1	1	R1380D
742.731	2.198	1407780	REC_END	n/a	n/a	n/a	-999	6	[0, 0, 0]	n/a	FR1	1	R1380D
744.929	10.351	1409978	COUNTDOWN_START	n/a	n/a	n/a	-999	7	[0, 0, 0]	n/a	FR1	1	R1380D
755.28	0.0	1420328	COUNTDOWN_END	n/a	n/a	n/a	-999	7	[0, 0, 0]	n/a	FR1	1	R1380D
755.28	2.148	1420328	ENCODING_START	n/a	n/a	n/a	-999	7	[0, 0, 0]	n/a	FR1	1	R1380D
757.428	1.6	1422475	WORD	n/a	wordpools/wordpool_short_EN.txt	FROST	1	7	[0, 0, 0]	n/a	FR1	1	R1380D
759.028	0.8	1424081	WORD_OFF	n/a	n/a	FROST	1	7	[0, 0, 0]	n/a	FR1	1	R1380D
759.828	1.6	1424879	WORD	n/a	wordpools/wordpool_short_EN.txt	BUSH	2	7	[0, 0, 0]	n/a	FR1	1	R1380D
761.428	0.851	1426474	WORD_OFF	n/a	n/a	BUSH	2	7	[0, 0, 0]	n/a	FR1	1	R1380D
762.279	1.6	1427333	WORD	n/a	wordpools/wordpool_short_EN.txt	WOLF	3	7	[0, 0, 0]	n/a	FR1	1	R1380D
763.879	0.784	1428929	WORD_OFF	n/a	n/a	WOLF	3	7	[0, 0, 0]	n/a	FR1	1	R1380D
764.663	1.599	1429716	WORD	n/a	wordpools/wordpool_short_EN.txt	RAKE	4	7	[0, 0, 0]	n/a	FR1	1	R1380D
766.262	0.934	1431311	WORD_OFF	n/a	n/a	RAKE	4	7	[0, 0, 0]	n/a	FR1	1	R1380D
767.196	1.6	1432242	WORD	n/a	wordpools/wordpool_short_EN.txt	CLAY	5	7	[0, 0, 0]	n/a	FR1	1	R1380D
768.796	0.816	1433848	WORD_OFF	n/a	n/a	CLAY	5	7	[0, 0, 0]	n/a	FR1	1	R1380D
769.612	1.601	1434666	WORD	n/a	wordpools/wordpool_short_EN.txt	THREAD	6	7	[0, 0, 0]	n/a	FR1	1	R1380D
771.213	0.866	1436261	WORD_OFF	n/a	n/a	THREAD	6	7	[0, 0, 0]	n/a	FR1	1	R1380D
772.079	1.617	1437130	WORD	n/a	wordpools/wordpool_short_EN.txt	SHORE	7	7	[0, 0, 0]	n/a	FR1	1	R1380D
773.696	0.766	1438746	WORD_OFF	n/a	n/a	SHORE	7	7	[0, 0, 0]	n/a	FR1	1	R1380D
774.462	1.616	1439513	WORD	n/a	wordpools/wordpool_short_EN.txt	STEW	8	7	[0, 0, 0]	n/a	FR1	1	R1380D
776.078	0.851	1441129	WORD_OFF	n/a	n/a	STEW	8	7	[0, 0, 0]	n/a	FR1	1	R1380D
776.929	1.6	1441978	WORD	n/a	wordpools/wordpool_short_EN.txt	PHONE	9	7	[0, 0, 0]	n/a	FR1	1	R1380D
778.529	0.9	1443573	WORD_OFF	n/a	n/a	PHONE	9	7	[0, 0, 0]	n/a	FR1	1	R1380D
779.429	1.6	1444483	WORD	n/a	wordpools/wordpool_short_EN.txt	DOCK	10	7	[0, 0, 0]	n/a	FR1	1	R1380D
781.029	0.85	1446079	WORD_OFF	n/a	n/a	DOCK	10	7	[0, 0, 0]	n/a	FR1	1	R1380D
781.879	1.6	1446928	WORD	n/a	wordpools/wordpool_short_EN.txt	BARN	11	7	[0, 0, 0]	n/a	FR1	1	R1380D
783.479	0.782	1448523	WORD_OFF	n/a	n/a	BARN	11	7	[0, 0, 0]	n/a	FR1	1	R1380D
784.261	1.6	1449311	WORD	n/a	wordpools/wordpool_short_EN.txt	MULE	12	7	[0, 0, 0]	n/a	FR1	1	R1380D
785.861	0.001	1450906	WORD_OFF	n/a	n/a	MULE	12	7	[0, 0, 0]	n/a	FR1	1	R1380D
785.862	0.001	1450911	PROB	0.001	n/a	n/a	-999	7	[3, 2, 1]	6	FR1	1	R1380D
785.863	0.0	1450912	START	n/a	n/a	n/a	-999	7	[-999, -999, -999]	n/a	FR1	1	R1380D
785.863	0.0	1450916	ENCODING_END	n/a	n/a	n/a	-999	7	[0, 0, 0]	n/a	FR1	1	R1380D
785.863	4.899	1450916	DISTRACT_START	n/a	n/a	n/a	-999	7	[0, 0, 0]	n/a	FR1	1	R1380D
790.762	8.784	1455810	PROB	8.784	n/a	n/a	-999	7	[3, 8, 6]	17	FR1	1	R1380D
799.546	3.5	1464594	PROB	3.5	n/a	n/a	-999	7	[5, 2, 4]	11	FR1	1	R1380D
803.046	4.416	1468094	PROB	4.416	n/a	n/a	-999	7	[3, 2, 3]	8	FR1	1	R1380D
807.462	0.0	1472505	DISTRACT_END	n/a	n/a	n/a	-999	7	[0, 0, 0]	n/a	FR1	1	R1380D
807.462	1.3	1472510	STOP	n/a	n/a	n/a	-999	7	[-999, -999, -999]	n/a	FR1	1	R1380D
808.762	5.046	1473804	REC_START	n/a	n/a	n/a	-999	7	[0, 0, 0]	n/a	FR1	1	R1380D
813.808	3.261	1478855	REC_WORD	3.261	n/a	WOLF	3	7	[0, 0, 0]	n/a	FR1	1	R1380D
817.069	1.301	1482116	REC_WORD	1.301	n/a	BUSH	2	7	[0, 0, 0]	n/a	FR1	1	R1380D
818.37	1.574	1483417	REC_WORD	1.574	n/a	FROST	1	7	[0, 0, 0]	n/a	FR1	1	R1380D
819.944	1.063	1484991	REC_WORD	1.063	n/a	PLANT	-999	7	[0, 0, 0]	n/a	FR1	1	R1380D
821.007	1.656	1486054	REC_WORD	1.656	n/a	SEED	-999	7	[0, 0, 0]	n/a	FR1	1	R1380D
822.663	16.353	1487710	REC_WORD	16.353	n/a	MULE	12	7	[0, 0, 0]	n/a	FR1	1	R1380D
839.016	3.28	1504065	REC_END	n/a	n/a	n/a	-999	7	[0, 0, 0]	n/a	FR1	1	R1380D
842.296	10.35	1507348	COUNTDOWN_START	n/a	n/a	n/a	-999	8	[0, 0, 0]	n/a	FR1	1	R1380D
852.646	0.001	1517697	COUNTDOWN_END	n/a	n/a	n/a	-999	8	[0, 0, 0]	n/a	FR1	1	R1380D
852.647	2.065	1517697	ENCODING_START	n/a	n/a	n/a	-999	8	[0, 0, 0]	n/a	FR1	1	R1380D
854.712	1.616	1519763	WORD	n/a	wordpools/wordpool_short_EN.txt	TOOL	1	8	[0, 0, 0]	n/a	FR1	1	R1380D
856.328	0.851	1521369	WORD_OFF	n/a	n/a	TOOL	1	8	[0, 0, 0]	n/a	FR1	1	R1380D
857.179	1.616	1522228	WORD	n/a	wordpools/wordpool_short_EN.txt	BOOK	2	8	[0, 0, 0]	n/a	FR1	1	R1380D
858.795	0.901	1523843	WORD_OFF	n/a	n/a	BOOK	2	8	[0, 0, 0]	n/a	FR1	1	R1380D
859.696	1.6	1524743	WORD	n/a	wordpools/wordpool_short_EN.txt	PIN	3	8	[0, 0, 0]	n/a	FR1	1	R1380D
861.296	0.916	1526339	WORD_OFF	n/a	n/a	PIN	3	8	[0, 0, 0]	n/a	FR1	1	R1380D
862.212	1.617	1527259	WORD	n/a	wordpools/wordpool_short_EN.txt	SALT	4	8	[0, 0, 0]	n/a	FR1	1	R1380D
863.829	0.966	1528875	WORD_OFF	n/a	n/a	SALT	4	8	[0, 0, 0]	n/a	FR1	1	R1380D
864.795	1.601	1529836	WORD	n/a	wordpools/wordpool_short_EN.txt	THROAT	5	8	[0, 0, 0]	n/a	FR1	1	R1380D
866.396	0.816	1531442	WORD_OFF	n/a	n/a	THROAT	5	8	[0, 0, 0]	n/a	FR1	1	R1380D
867.212	1.6	1532260	WORD	n/a	wordpools/wordpool_short_EN.txt	COAL	6	8	[0, 0, 0]	n/a	FR1	1	R1380D
868.812	0.8	1533855	WORD_OFF	n/a	n/a	COAL	6	8	[0, 0, 0]	n/a	FR1	1	R1380D
869.612	1.617	1534653	WORD	n/a	wordpools/wordpool_short_EN.txt	FLEA	7	8	[0, 0, 0]	n/a	FR1	1	R1380D
871.229	0.917	1536269	WORD_OFF	n/a	n/a	FLEA	7	8	[0, 0, 0]	n/a	FR1	1	R1380D
872.146	1.616	1537189	WORD	n/a	wordpools/wordpool_short_EN.txt	SEAT	8	8	[0, 0, 0]	n/a	FR1	1	R1380D
873.762	0.85	1538805	WORD_OFF	n/a	n/a	SEAT	8	8	[0, 0, 0]	n/a	FR1	1	R1380D
874.612	1.617	1539654	WORD	n/a	wordpools/wordpool_short_EN.txt	BOLT	9	8	[0, 0, 0]	n/a	FR1	1	R1380D
876.229	0.866	1541270	WORD_OFF	n/a	n/a	BOLT	9	8	[0, 0, 0]	n/a	FR1	1	R1380D
877.095	1.6	1542139	WORD	n/a	wordpools/wordpool_short_EN.txt	TRAY	10	8	[0, 0, 0]	n/a	FR1	1	R1380D
878.695	0.817	1543735	WORD_OFF	n/a	n/a	TRAY	10	8	[0, 0, 0]	n/a	FR1	1	R1380D
879.512	1.6	1544553	WORD	n/a	wordpools/wordpool_short_EN.txt	SLEEVE	11	8	[0, 0, 0]	n/a	FR1	1	R1380D
881.112	0.783	1546158	WORD_OFF	n/a	n/a	SLEEVE	11	8	[0, 0, 0]	n/a	FR1	1	R1380D
881.895	1.601	1546936	WORD	n/a	wordpools/wordpool_short_EN.txt	HOG	12	8	[0, 0, 0]	n/a	FR1	1	R1380D
883.496	0.0	1548540	PROB	0.0	n/a	n/a	-999	8	[8, 8, 1]	17	FR1	1	R1380D
883.496	0.001	1548541	WORD_OFF	n/a	n/a	HOG	12	8	[0, 0, 0]	n/a	FR1	1	R1380D
883.497	0.001	1548541	ENCODING_END	n/a	n/a	n/a	-999	8	[0, 0, 0]	n/a	FR1	1	R1380D
883.498	0.0	1548541	DISTRACT_START	n/a	n/a	n/a	-999	8	[0, 0, 0]	n/a	FR1	1	R1380D
883.498	5.265	1548542	START	n/a	n/a	n/a	-999	8	[-999, -999, -999]	n/a	FR1	1	R1380D
888.763	3.3	1553806	PROB	3.3	n/a	n/a	-999	8	[1, 3, 4]	8	FR1	1	R1380D
892.063	3.9	1557106	PROB	3.9	n/a	n/a	-999	8	[4, 2, 3]	9	FR1	1	R1380D
895.963	3.85	1561006	PROB	3.85	n/a	n/a	-999	8	[3, 3, 8]	14	FR1	1	R1380D
899.813	5.799	1564856	PROB	5.799	n/a	n/a	-999	8	[6, 3, 7]	16	FR1	1	R1380D
905.612	0.0	1570651	DISTRACT_END	n/a	n/a	n/a	-999	8	[0, 0, 0]	n/a	FR1	1	R1380D
905.612	1.234	1570655	STOP	n/a	n/a	n/a	-999	8	[-999, -999, -999]	n/a	FR1	1	R1380D
906.846	1.501	1571889	REC_START	n/a	n/a	n/a	-999	8	[0, 0, 0]	n/a	FR1	1	R1380D
908.347	2.289	1573389	REC_WORD	2.289	n/a	SLEEVE	11	8	[0, 0, 0]	n/a	FR1	1	R1380D
910.636	3.332	1575678	REC_WORD	3.332	n/a	TRAY	10	8	[0, 0, 0]	n/a	FR1	1	R1380D
913.968	6.702	1579010	REC_WORD	6.702	n/a	PIN	3	8	[0, 0, 0]	n/a	FR1	1	R1380D
920.67	16.43	1585712	REC_WORD	16.43	n/a	TOOL	1	8	[0, 0, 0]	n/a	FR1	1	R1380D
937.1	1.963	1602140	REC_END	n/a	n/a	n/a	-999	8	[0, 0, 0]	n/a	FR1	1	R1380D
939.063	10.35	1604103	COUNTDOWN_START	n/a	n/a	n/a	-999	9	[0, 0, 0]	n/a	FR1	1	R1380D
949.413	0.0	1614453	COUNTDOWN_END	n/a	n/a	n/a	-999	9	[0, 0, 0]	n/a	FR1	1	R1380D
949.413	2.049	1614453	ENCODING_START	n/a	n/a	n/a	-999	9	[0, 0, 0]	n/a	FR1	1	R1380D
951.462	1.6	1616498	WORD	n/a	wordpools/wordpool_short_EN.txt	TROUT	1	9	[0, 0, 0]	n/a	FR1	1	R1380D
953.062	0.767	1618104	WORD_OFF	n/a	n/a	TROUT	1	9	[0, 0, 0]	n/a	FR1	1	R1380D
953.829	1.6	1618871	WORD	n/a	wordpools/wordpool_short_EN.txt	GRASS	2	9	[0, 0, 0]	n/a	FR1	1	R1380D
955.429	0.817	1620466	WORD_OFF	n/a	n/a	GRASS	2	9	[0, 0, 0]	n/a	FR1	1	R1380D
956.246	1.6	1621284	WORD	n/a	wordpools/wordpool_short_EN.txt	CUP	3	9	[0, 0, 0]	n/a	FR1	1	R1380D
957.846	0.766	1622890	WORD_OFF	n/a	n/a	CUP	3	9	[0, 0, 0]	n/a	FR1	1	R1380D
958.612	1.617	1623657	WORD	n/a	wordpools/wordpool_short_EN.txt	BEEF	4	9	[0, 0, 0]	n/a	FR1	1	R1380D
960.229	0.933	1625273	WORD_OFF	n/a	n/a	BEEF	4	9	[0, 0, 0]	n/a	FR1	1	R1380D
961.162	1.6	1626203	WORD	n/a	wordpools/wordpool_short_EN.txt	PORK	5	9	[0, 0, 0]	n/a	FR1	1	R1380D
962.762	0.834	1627799	WORD_OFF	n/a	n/a	PORK	5	9	[0, 0, 0]	n/a	FR1	1	R1380D
963.596	1.615	1628637	WORD	n/a	wordpools/wordpool_short_EN.txt	WEED	6	9	[0, 0, 0]	n/a	FR1	1	R1380D
965.211	0.934	1630253	WORD_OFF	n/a	n/a	WEED	6	9	[0, 0, 0]	n/a	FR1	1	R1380D
966.145	1.6	1631184	WORD	n/a	wordpools/wordpool_short_EN.txt	FROG	7	9	[0, 0, 0]	n/a	FR1	1	R1380D
967.745	0.8	1632789	WORD_OFF	n/a	n/a	FROG	7	9	[0, 0, 0]	n/a	FR1	1	R1380D
968.545	1.617	1633587	WORD	n/a	wordpools/wordpool_short_EN.txt	GEESE	8	9	[0, 0, 0]	n/a	FR1	1	R1380D
970.162	0.783	1635203	WORD_OFF	n/a	n/a	GEESE	8	9	[0, 0, 0]	n/a	FR1	1	R1380D
970.945	1.601	1635980	WORD	n/a	wordpools/wordpool_short_EN.txt	PIT	9	9	[0, 0, 0]	n/a	FR1	1	R1380D
972.546	0.983	1637586	WORD_OFF	n/a	n/a	PIT	9	9	[0, 0, 0]	n/a	FR1	1	R1380D
973.529	1.6	1638568	WORD	n/a	wordpools/wordpool_short_EN.txt	CORD	10	9	[0, 0, 0]	n/a	FR1	1	R1380D
975.129	0.799	1640173	WORD_OFF	n/a	n/a	CORD	10	9	[0, 0, 0]	n/a	FR1	1	R1380D
975.928	1.601	1640971	WORD	n/a	wordpools/wordpool_short_EN.txt	MAIL	11	9	[0, 0, 0]	n/a	FR1	1	R1380D
977.529	0.984	1642566	WORD_OFF	n/a	n/a	MAIL	11	9	[0, 0, 0]	n/a	FR1	1	R1380D
978.513	1.6	1643548	WORD	n/a	wordpools/wordpool_short_EN.txt	NECK	12	9	[0, 0, 0]	n/a	FR1	1	R1380D
980.113	0.0	1645152	PROB	0.0	n/a	n/a	-999	9	[7, 7, 3]	17	FR1	1	R1380D
980.113	0.001	1645154	WORD_OFF	n/a	n/a	NECK	12	9	[0, 0, 0]	n/a	FR1	1	R1380D
980.114	0.001	1645154	ENCODING_END	n/a	n/a	n/a	-999	9	[0, 0, 0]	n/a	FR1	1	R1380D
980.115	0.0	1645154	DISTRACT_START	n/a	n/a	n/a	-999	9	[0, 0, 0]	n/a	FR1	1	R1380D
980.115	5.765	1645154	START	n/a	n/a	n/a	-999	9	[-999, -999, -999]	n/a	FR1	1	R1380D
985.88	5.116	1650919	PROB	5.116	n/a	n/a	-999	9	[4, 6, 8]	18	FR1	1	R1380D
990.996	4.417	1656034	PROB	4.417	n/a	n/a	-999	9	[8, 3, 4]	15	FR1	1	R1380D
995.413	4.101	1660451	PROB	4.101	n/a	n/a	-999	9	[2, 7, 8]	17	FR1	1	R1380D
999.514	3.982	1664552	PROB	3.982	n/a	n/a	-999	9	[3, 7, 7]	17	FR1	1	R1380D
1003.496	0.0	1668532	DISTRACT_END	n/a	n/a	n/a	-999	9	[0, 0, 0]	n/a	FR1	1	R1380D
1003.496	1.017	1668534	STOP	n/a	n/a	n/a	-999	9	[-999, -999, -999]	n/a	FR1	1	R1380D
1004.513	2.386	1669555	REC_START	n/a	n/a	n/a	-999	9	[0, 0, 0]	n/a	FR1	1	R1380D
1006.899	1.017	1671937	REC_WORD	1.017	n/a	GEESE	8	9	[0, 0, 0]	n/a	FR1	1	R1380D
1007.916	1.446	1672953	REC_WORD	1.446	n/a	NECK	12	9	[0, 0, 0]	n/a	FR1	1	R1380D
1009.362	1.546	1674399	REC_WORD	1.546	n/a	PORK	5	9	[0, 0, 0]	n/a	FR1	1	R1380D
1010.908	4.085	1675945	REC_WORD	4.085	n/a	BEEF	4	9	[0, 0, 0]	n/a	FR1	1	R1380D
1014.993	19.775	1680030	REC_WORD	19.775	n/a	PIT	9	9	[0, 0, 0]	n/a	FR1	1	R1380D
1034.768	2.178	1699806	REC_END	n/a	n/a	n/a	-999	9	[0, 0, 0]	n/a	FR1	1	R1380D
1036.946	10.35	1701984	COUNTDOWN_START	n/a	n/a	n/a	-999	10	[0, 0, 0]	n/a	FR1	1	R1380D
1047.296	0.001	1712334	COUNTDOWN_END	n/a	n/a	n/a	-999	10	[0, 0, 0]	n/a	FR1	1	R1380D
1047.297	2.216	1712334	ENCODING_START	n/a	n/a	n/a	-999	10	[0, 0, 0]	n/a	FR1	1	R1380D
1049.513	1.599	1714553	WORD	n/a	wordpools/wordpool_short_EN.txt	WORM	1	10	[0, 0, 0]	n/a	FR1	1	R1380D
1051.112	0.984	1716148	WORD_OFF	n/a	n/a	WORM	1	10	[0, 0, 0]	n/a	FR1	1	R1380D
1052.096	1.616	1717130	WORD	n/a	wordpools/wordpool_short_EN.txt	RAT	2	10	[0, 0, 0]	n/a	FR1	1	R1380D
1053.712	0.833	1718746	WORD_OFF	n/a	n/a	RAT	2	10	[0, 0, 0]	n/a	FR1	1	R1380D
1054.545	1.617	1719584	WORD	n/a	wordpools/wordpool_short_EN.txt	EGG	3	10	[0, 0, 0]	n/a	FR1	1	R1380D
1056.162	0.983	1721200	WORD_OFF	n/a	n/a	EGG	3	10	[0, 0, 0]	n/a	FR1	1	R1380D
1057.145	1.6	1722182	WORD	n/a	wordpools/wordpool_short_EN.txt	APE	4	10	[0, 0, 0]	n/a	FR1	1	R1380D
1058.745	0.85	1723777	WORD_OFF	n/a	n/a	APE	4	10	[0, 0, 0]	n/a	FR1	1	R1380D
1059.595	1.6	1724626	WORD	n/a	wordpools/wordpool_short_EN.txt	SHARK	5	10	[0, 0, 0]	n/a	FR1	1	R1380D
1061.195	0.784	1726232	WORD_OFF	n/a	n/a	SHARK	5	10	[0, 0, 0]	n/a	FR1	1	R1380D
1061.979	1.6	1727010	WORD	n/a	wordpools/wordpool_short_EN.txt	SUN	6	10	[0, 0, 0]	n/a	FR1	1	R1380D
1063.579	0.883	1728615	WORD_OFF	n/a	n/a	SUN	6	10	[0, 0, 0]	n/a	FR1	1	R1380D
1064.462	1.617	1729494	WORD	n/a	wordpools/wordpool_short_EN.txt	STEAM	7	10	[0, 0, 0]	n/a	FR1	1	R1380D
1066.079	0.866	1731110	WORD_OFF	n/a	n/a	STEAM	7	10	[0, 0, 0]	n/a	FR1	1	R1380D
1066.945	1.601	1731979	WORD	n/a	wordpools/wordpool_short_EN.txt	BLADE	8	10	[0, 0, 0]	n/a	FR1	1	R1380D
1068.546	0.915	1733585	WORD_OFF	n/a	n/a	BLADE	8	10	[0, 0, 0]	n/a	FR1	1	R1380D
1069.461	1.602	1734495	WORD	n/a	wordpools/wordpool_short_EN.txt	BAY	9	10	[0, 0, 0]	n/a	FR1	1	R1380D
1071.063	0.899	1736101	WORD_OFF	n/a	n/a	BAY	9	10	[0, 0, 0]	n/a	FR1	1	R1380D
1071.962	1.617	1737001	WORD	n/a	wordpools/wordpool_short_EN.txt	SKI	10	10	[0, 0, 0]	n/a	FR1	1	R1380D
1073.579	1.0	1738616	WORD_OFF	n/a	n/a	SKI	10	10	[0, 0, 0]	n/a	FR1	1	R1380D
1074.579	1.617	1739608	WORD	n/a	wordpools/wordpool_short_EN.txt	SCHOOL	11	10	[0, 0, 0]	n/a	FR1	1	R1380D
1076.196	0.899	1741234	WORD_OFF	n/a	n/a	SCHOOL	11	10	[0, 0, 0]	n/a	FR1	1	R1380D
1077.095	1.601	1742124	WORD	n/a	wordpools/wordpool_short_EN.txt	CONE	12	10	[0, 0, 0]	n/a	FR1	1	R1380D
1078.696	0.001	1743730	WORD_OFF	n/a	n/a	CONE	12	10	[0, 0, 0]	n/a	FR1	1	R1380D
1078.697	0.0	1743730	ENCODING_END	n/a	n/a	n/a	-999	10	[0, 0, 0]	n/a	FR1	1	R1380D
1078.697	0.0	1743730	DISTRACT_START	n/a	n/a	n/a	-999	10	[0, 0, 0]	n/a	FR1	1	R1380D
1078.696	0.001	1743730	PROB	0.001	n/a	n/a	-999	10	[3, 1, 1]	5	FR1	1	R1380D
1078.697	5.4	1743731	START	n/a	n/a	n/a	-999	10	[-999, -999, -999]	n/a	FR1	1	R1380D
1084.097	3.916	1749131	PROB	3.916	n/a	n/a	-999	10	[3, 5, 2]	10	FR1	1	R1380D
1088.013	4.0	1753046	PROB	4.0	n/a	n/a	-999	10	[8, 2, 6]	16	FR1	1	R1380D
1092.013	4.549	1757046	PROB	4.549	n/a	n/a	-999	10	[8, 7, 3]	18	FR1	1	R1380D
1096.562	3.334	1761595	PROB	3.334	n/a	n/a	-999	10	[4, 1, 4]	9	FR1	1	R1380D
1099.896	0.0	1764929	STOP	n/a	n/a	n/a	-999	10	[-999, -999, -999]	n/a	FR1	1	R1380D
1099.896	1.3	1764930	DISTRACT_END	n/a	n/a	n/a	-999	10	[0, 0, 0]	n/a	FR1	1	R1380D
1101.196	1.274	1766229	REC_START	n/a	n/a	n/a	-999	10	[0, 0, 0]	n/a	FR1	1	R1380D
1102.47	1.322	1767503	REC_WORD	1.322	n/a	SKI	10	10	[0, 0, 0]	n/a	FR1	1	R1380D
1103.792	2.755	1768825	REC_WORD	2.755	n/a	SCHOOL	11	10	[0, 0, 0]	n/a	FR1	1	R1380D
1106.547	1.841	1771579	REC_WORD	1.841	n/a	SHARK	5	10	[0, 0, 0]	n/a	FR1	1	R1380D
1108.388	2.112	1773420	REC_WORD	2.112	n/a	CONE	12	10	[0, 0, 0]	n/a	FR1	1	R1380D
1110.5	4.177	1775532	REC_WORD	4.177	n/a	BLADE	8	10	[0, 0, 0]	n/a	FR1	1	R1380D
1114.677	1.16	1779709	REC_WORD	1.16	n/a	WORM	1	10	[0, 0, 0]	n/a	FR1	1	R1380D
1115.837	2.312	1780869	REC_WORD	2.312	n/a	RAT	2	10	[0, 0, 0]	n/a	FR1	1	R1380D
1118.149	13.316	1783181	REC_WORD	13.316	n/a	EGG	3	10	[0, 0, 0]	n/a	FR1	1	R1380D
1131.465	2.281	1796500	REC_END	n/a	n/a	n/a	-999	10	[0, 0, 0]	n/a	FR1	1	R1380D
1133.746	10.35	1798781	COUNTDOWN_START	n/a	n/a	n/a	-999	11	[0, 0, 0]	n/a	FR1	1	R1380D
1144.096	0.0	1809130	COUNTDOWN_END	n/a	n/a	n/a	-999	11	[0, 0, 0]	n/a	FR1	1	R1380D
1144.096	2.299	1809130	ENCODING_START	n/a	n/a	n/a	-999	11	[0, 0, 0]	n/a	FR1	1	R1380D
1146.395	1.6	1811421	WORD	n/a	wordpools/wordpool_short_EN.txt	STREET	1	11	[0, 0, 0]	n/a	FR1	1	R1380D
1147.995	0.883	1813027	WORD_OFF	n/a	n/a	STREET	1	11	[0, 0, 0]	n/a	FR1	1	R1380D
1148.878	1.6	1813906	WORD	n/a	wordpools/wordpool_short_EN.txt	SINK	2	11	[0, 0, 0]	n/a	FR1	1	R1380D
1150.478	0.951	1815512	WORD_OFF	n/a	n/a	SINK	2	11	[0, 0, 0]	n/a	FR1	1	R1380D
1151.429	1.617	1816463	WORD	n/a	wordpools/wordpool_short_EN.txt	MEN	3	11	[0, 0, 0]	n/a	FR1	1	R1380D
1153.046	0.932	1818079	WORD_OFF	n/a	n/a	MEN	3	11	[0, 0, 0]	n/a	FR1	1	R1380D
1153.978	1.601	1819009	WORD	n/a	wordpools/wordpool_short_EN.txt	MOOSE	4	11	[0, 0, 0]	n/a	FR1	1	R1380D
1155.579	0.917	1820605	WORD_OFF	n/a	n/a	MOOSE	4	11	[0, 0, 0]	n/a	FR1	1	R1380D
1156.496	1.617	1821525	WORD	n/a	wordpools/wordpool_short_EN.txt	LANE	5	11	[0, 0, 0]	n/a	FR1	1	R1380D
1158.113	0.999	1823141	WORD_OFF	n/a	n/a	LANE	5	11	[0, 0, 0]	n/a	FR1	1	R1380D
1159.112	1.616	1824143	WORD	n/a	wordpools/wordpool_short_EN.txt	ROPE	6	11	[0, 0, 0]	n/a	FR1	1	R1380D
1160.728	0.85	1825759	WORD_OFF	n/a	n/a	ROPE	6	11	[0, 0, 0]	n/a	FR1	1	R1380D
1161.578	1.601	1826608	WORD	n/a	wordpools/wordpool_short_EN.txt	WAND	7	11	[0, 0, 0]	n/a	FR1	1	R1380D
1163.179	0.867	1828213	WORD_OFF	n/a	n/a	WAND	7	11	[0, 0, 0]	n/a	FR1	1	R1380D
1164.046	1.6	1829072	WORD	n/a	wordpools/wordpool_short_EN.txt	SKUNK	8	11	[0, 0, 0]	n/a	FR1	1	R1380D
1165.646	0.833	1830678	WORD_OFF	n/a	n/a	SKUNK	8	11	[0, 0, 0]	n/a	FR1	1	R1380D
1166.479	1.617	1831506	WORD	n/a	wordpools/wordpool_short_EN.txt	SPICE	9	11	[0, 0, 0]	n/a	FR1	1	R1380D
1168.096	0.782	1833122	WORD_OFF	n/a	n/a	SPICE	9	11	[0, 0, 0]	n/a	FR1	1	R1380D
1168.878	1.601	1833910	WORD	n/a	wordpools/wordpool_short_EN.txt	STRAW	10	11	[0, 0, 0]	n/a	FR1	1	R1380D
1170.479	1.0	1835505	WORD_OFF	n/a	n/a	STRAW	10	11	[0, 0, 0]	n/a	FR1	1	R1380D
1171.479	1.6	1836507	WORD	n/a	wordpools/wordpool_short_EN.txt	SPONGE	11	11	[0, 0, 0]	n/a	FR1	1	R1380D
1173.079	0.8	1838103	WORD_OFF	n/a	n/a	SPONGE	11	11	[0, 0, 0]	n/a	FR1	1	R1380D
1173.879	1.6	1838911	WORD	n/a	wordpools/wordpool_short_EN.txt	PAN	12	11	[0, 0, 0]	n/a	FR1	1	R1380D
1175.479	0.001	1840506	WORD_OFF	n/a	n/a	PAN	12	11	[0, 0, 0]	n/a	FR1	1	R1380D
1175.48	0.0	1840506	ENCODING_END	n/a	n/a	n/a	-999	11	[0, 0, 0]	n/a	FR1	1	R1380D
1175.479	0.002	1840508	PROB	0.002	n/a	n/a	-999	11	[8, 4, 8]	20	FR1	1	R1380D
1175.481	0.0	1840510	START	n/a	n/a	n/a	-999	11	[-999, -999, -999]	n/a	FR1	1	R1380D
1175.481	7.665	1840516	DISTRACT_START	n/a	n/a	n/a	-999	11	[0, 0, 0]	n/a	FR1	1	R1380D
1183.146	4.25	1848175	PROB	4.25	n/a	n/a	-999	11	[4, 8, 3]	15	FR1	1	R1380D
1187.396	4.2	1852424	PROB	4.2	n/a	n/a	-999	11	[8, 7, 2]	17	FR1	1	R1380D
1191.596	4.149	1856624	PROB	4.149	n/a	n/a	-999	11	[7, 8, 1]	16	FR1	1	R1380D
1195.745	0.0	1860773	STOP	n/a	n/a	n/a	-999	11	[-999, -999, -999]	n/a	FR1	1	R1380D
1195.745	1.101	1860776	DISTRACT_END	n/a	n/a	n/a	-999	11	[0, 0, 0]	n/a	FR1	1	R1380D
1196.846	1.734	1861870	REC_START	n/a	n/a	n/a	-999	11	[0, 0, 0]	n/a	FR1	1	R1380D
1198.58	1.403	1863608	REC_WORD	1.403	n/a	SKUNK	8	11	[0, 0, 0]	n/a	FR1	1	R1380D
1199.983	1.0	1865011	REC_WORD	1.0	n/a	SPICE	9	11	[0, 0, 0]	n/a	FR1	1	R1380D
1200.983	0.714	1866011	REC_WORD_VV	0.714	n/a	<>	-999	11	[0, 0, 0]	n/a	FR1	1	R1380D
1201.697	1.93	1866725	REC_WORD	1.93	n/a	STRAW	10	11	[0, 0, 0]	n/a	FR1	1	R1380D
1203.627	10.59	1868655	REC_WORD	10.59	n/a	MEN	3	11	[0, 0, 0]	n/a	FR1	1	R1380D
1214.217	5.459	1879244	REC_WORD	5.459	n/a	ROPE	6	11	[0, 0, 0]	n/a	FR1	1	R1380D
1219.676	1.195	1884703	REC_WORD	1.195	n/a	PAN	12	11	[0, 0, 0]	n/a	FR1	1	R1380D
1220.871	2.042	1885898	REC_WORD	2.042	n/a	SPONGE	11	11	[0, 0, 0]	n/a	FR1	1	R1380D
1222.913	4.201	1887940	REC_WORD	4.201	n/a	WAND	7	11	[0, 0, 0]	n/a	FR1	1	R1380D
1227.114	3.765	1892141	REC_END	n/a	n/a	n/a	-999	11	[0, 0, 0]	n/a	FR1	1	R1380D
1230.879	10.351	1895905	COUNTDOWN_START	n/a	n/a	n/a	-999	12	[0, 0, 0]	n/a	FR1	1	R1380D
1241.23	0.0	1906254	COUNTDOWN_END	n/a	n/a	n/a	-999	12	[0, 0, 0]	n/a	FR1	1	R1380D
1241.23	2.116	1906254	ENCODING_START	n/a	n/a	n/a	-999	12	[0, 0, 0]	n/a	FR1	1	R1380D
1243.346	1.616	1908371	WORD	n/a	wordpools/wordpool_short_EN.txt	COKE	1	12	[0, 0, 0]	n/a	FR1	1	R1380D
1244.962	0.8	1909987	WORD_OFF	n/a	n/a	COKE	1	12	[0, 0, 0]	n/a	FR1	1	R1380D
1245.762	1.6	1910785	WORD	n/a	wordpools/wordpool_short_EN.txt	WIG	2	12	[0, 0, 0]	n/a	FR1	1	R1380D
1247.362	0.984	1912390	WORD_OFF	n/a	n/a	WIG	2	12	[0, 0, 0]	n/a	FR1	1	R1380D
1248.346	1.616	1913372	WORD	n/a	wordpools/wordpool_short_EN.txt	AISLE	3	12	[0, 0, 0]	n/a	FR1	1	R1380D
1249.962	0.851	1914988	WORD_OFF	n/a	n/a	AISLE	3	12	[0, 0, 0]	n/a	FR1	1	R1380D
1250.813	1.616	1915837	WORD	n/a	wordpools/wordpool_short_EN.txt	CUBE	4	12	[0, 0, 0]	n/a	FR1	1	R1380D
1252.429	0.817	1917452	WORD_OFF	n/a	n/a	CUBE	4	12	[0, 0, 0]	n/a	FR1	1	R1380D
1253.246	1.6	1918271	WORD	n/a	wordpools/wordpool_short_EN.txt	JAIL	5	12	[0, 0, 0]	n/a	FR1	1	R1380D
1254.846	0.783	1919875	WORD_OFF	n/a	n/a	JAIL	5	12	[0, 0, 0]	n/a	FR1	1	R1380D
1255.629	1.617	1920653	WORD	n/a	wordpools/wordpool_short_EN.txt	OIL	6	12	[0, 0, 0]	n/a	FR1	1	R1380D
1257.246	1.0	1922269	WORD_OFF	n/a	n/a	OIL	6	12	[0, 0, 0]	n/a	FR1	1	R1380D
1258.246	1.616	1923271	WORD	n/a	wordpools/wordpool_short_EN.txt	MOON	7	12	[0, 0, 0]	n/a	FR1	1	R1380D
1259.862	0.934	1924887	WORD_OFF	n/a	n/a	MOON	7	12	[0, 0, 0]	n/a	FR1	1	R1380D
1260.796	1.6	1925818	WORD	n/a	wordpools/wordpool_short_EN.txt	SAUCE	8	12	[0, 0, 0]	n/a	FR1	1	R1380D
1262.396	0.766	1927424	WORD_OFF	n/a	n/a	SAUCE	8	12	[0, 0, 0]	n/a	FR1	1	R1380D
1263.162	1.601	1928191	WORD	n/a	wordpools/wordpool_short_EN.txt	JAR	9	12	[0, 0, 0]	n/a	FR1	1	R1380D
1264.763	0.832	1929786	WORD_OFF	n/a	n/a	JAR	9	12	[0, 0, 0]	n/a	FR1	1	R1380D
1265.595	1.601	1930624	WORD	n/a	wordpools/wordpool_short_EN.txt	SUIT	10	12	[0, 0, 0]	n/a	FR1	1	R1380D
1267.196	0.932	1932220	WORD_OFF	n/a	n/a	SUIT	10	12	[0, 0, 0]	n/a	FR1	1	R1380D
1268.128	1.601	1933151	WORD	n/a	wordpools/wordpool_short_EN.txt	PEA	11	12	[0, 0, 0]	n/a	FR1	1	R1380D
1269.729	0.982	1934756	WORD_OFF	n/a	n/a	PEA	11	12	[0, 0, 0]	n/a	FR1	1	R1380D
1270.711	1.601	1935738	WORD	n/a	wordpools/wordpool_short_EN.txt	HEEL	12	12	[0, 0, 0]	n/a	FR1	1	R1380D
1272.312	0.001	1937333	WORD_OFF	n/a	n/a	HEEL	12	12	[0, 0, 0]	n/a	FR1	1	R1380D
1272.313	0.001	1937337	PROB	0.001	n/a	n/a	-999	12	[4, 1, 4]	9	FR1	1	R1380D
1272.314	0.0	1937338	START	n/a	n/a	n/a	-999	12	[-999, -999, -999]	n/a	FR1	1	R1380D
1272.314	0.0	1937344	ENCODING_END	n/a	n/a	n/a	-999	12	[0, 0, 0]	n/a	FR1	1	R1380D
1272.314	5.632	1937344	DISTRACT_START	n/a	n/a	n/a	-999	12	[0, 0, 0]	n/a	FR1	1	R1380D
1277.946	3.767	1942970	PROB	3.767	n/a	n/a	-999	12	[6, 1, 2]	9	FR1	1	R1380D
1281.713	3.116	1946737	PROB	3.116	n/a	n/a	-999	12	[2, 2, 7]	11	FR1	1	R1380D
1284.829	5.166	1949852	PROB	5.166	n/a	n/a	-999	12	[6, 5, 5]	16	FR1	1	R1380D
1289.995	5.384	1955018	PROB	5.384	n/a	n/a	-999	12	[3, 3, 4]	10	FR1	1	R1380D
1295.379	0.0	1960402	STOP	n/a	n/a	n/a	-999	12	[-999, -999, -999]	n/a	FR1	1	R1380D
1295.379	1.299	1960405	DISTRACT_END	n/a	n/a	n/a	-999	12	[0, 0, 0]	n/a	FR1	1	R1380D
1296.678	1.788	1961704	REC_START	n/a	n/a	n/a	-999	12	[0, 0, 0]	n/a	FR1	1	R1380D
1298.466	1.192	1963489	REC_WORD	1.192	n/a	PEA	11	12	[0, 0, 0]	n/a	FR1	1	R1380D
1299.658	1.251	1964681	REC_WORD	1.251	n/a	HEEL	12	12	[0, 0, 0]	n/a	FR1	1	R1380D
1300.909	1.352	1965932	REC_WORD	1.352	n/a	MOON	7	12	[0, 0, 0]	n/a	FR1	1	R1380D
1302.261	24.675	1967284	REC_WORD	24.675	n/a	SUIT	10	12	[0, 0, 0]	n/a	FR1	1	R1380D
1326.936	0.0	1991955	REC_END	n/a	n/a	n/a	-999	12	[0, 0, 0]	n/a	FR1	1	R1380D
