onset	duration	sample	trial_type	response_time	stim_file	item_name	serialpos	list	test	answer	experiment	session	subject
0.0	147.315	112219	INSTRUCT_START	n/a	n/a	n/a	-999	-999	[0, 0, 0]	n/a	FR1	0	R1467M
147.315	75.749	259518	INSTRUCT_END	n/a	n/a	n/a	-999	-999	[0, 0, 0]	n/a	FR1	0	R1467M
223.064	10.401	335268	COUNTDOWN_START	n/a	n/a	n/a	-999	-999	[0, 0, 0]	n/a	FR1	0	R1467M
233.465	0.0	345670	COUNTDOWN_END	n/a	n/a	n/a	-999	-999	[0, 0, 0]	n/a	FR1	0	R1467M
233.465	2.166	345670	ENCODING_START	n/a	n/a	n/a	-999	-1	[0, 0, 0]	n/a	FR1	0	R1467M
235.631	1.616	347833	WORD	n/a	n/a	PIN	1	-1	[0, 0, 0]	n/a	FR1	0	R1467M
237.247	0.884	349445	WORD_OFF	n/a	n/a	PIN	1	-1	[0, 0, 0]	n/a	FR1	0	R1467M
238.131	1.616	350327	WORD	n/a	n/a	RAKE	2	-1	[0, 0, 0]	n/a	FR1	0	R1467M
239.747	0.834	351953	WORD_OFF	n/a	n/a	RAKE	2	-1	[0, 0, 0]	n/a	FR1	0	R1467M
240.581	1.616	352779	WORD	n/a	n/a	STAKE	3	-1	[0, 0, 0]	n/a	FR1	0	R1467M
242.197	0.8	354391	WORD_OFF	n/a	n/a	STAKE	3	-1	[0, 0, 0]	n/a	FR1	0	R1467M
242.997	1.6	355204	WORD	n/a	n/a	MAZE	4	-1	[0, 0, 0]	n/a	FR1	0	R1467M
244.597	0.817	356802	WORD_OFF	n/a	n/a	MAZE	4	-1	[0, 0, 0]	n/a	FR1	0	R1467M
245.414	1.616	357615	WORD	n/a	n/a	PORK	5	-1	[0, 0, 0]	n/a	FR1	0	R1467M
247.03	0.834	359227	WORD_OFF	n/a	n/a	PORK	5	-1	[0, 0, 0]	n/a	FR1	0	R1467M
247.864	1.616	360068	WORD	n/a	n/a	CROWN	6	-1	[0, 0, 0]	n/a	FR1	0	R1467M
249.48	0.9	361680	WORD_OFF	n/a	n/a	CROWN	6	-1	[0, 0, 0]	n/a	FR1	0	R1467M
250.38	1.617	362575	WORD	n/a	n/a	PARK	7	-1	[0, 0, 0]	n/a	FR1	0	R1467M
251.997	0.883	364201	WORD_OFF	n/a	n/a	PARK	7	-1	[0, 0, 0]	n/a	FR1	0	R1467M
252.88	1.601	365083	WORD	n/a	n/a	CAPE	8	-1	[0, 0, 0]	n/a	FR1	0	R1467M
254.481	0.833	366681	WORD_OFF	n/a	n/a	CAPE	8	-1	[0, 0, 0]	n/a	FR1	0	R1467M
255.314	1.6	367521	WORD	n/a	n/a	ZOO	9	-1	[0, 0, 0]	n/a	FR1	0	R1467M
256.914	0.8	369120	WORD_OFF	n/a	n/a	ZOO	9	-1	[0, 0, 0]	n/a	FR1	0	R1467M
257.714	1.6	369919	WORD	n/a	n/a	FLEET	10	-1	[0, 0, 0]	n/a	FR1	0	R1467M
259.314	0.934	371517	WORD_OFF	n/a	n/a	FLEET	10	-1	[0, 0, 0]	n/a	FR1	0	R1467M
260.248	1.599	372454	WORD	n/a	n/a	DITCH	11	-1	[0, 0, 0]	n/a	FR1	0	R1467M
261.847	0.933	374052	WORD_OFF	n/a	n/a	DITCH	11	-1	[0, 0, 0]	n/a	FR1	0	R1467M
262.78	1.6	374975	WORD	n/a	n/a	BRUSH	12	-1	[0, 0, 0]	n/a	FR1	0	R1467M
264.38	0.002	376573	WORD_OFF	n/a	n/a	BRUSH	12	-1	[0, 0, 0]	n/a	FR1	0	R1467M
264.382	0.0	376585	START	n/a	n/a	n/a	-999	-1	[-999, -999, -999]	n/a	FR1	0	R1467M
264.382	0.0	376585	PROB	0.0	n/a	n/a	-999	-1	[1, 3, 8]	12	FR1	0	R1467M
264.382	0.0	376587	ENCODING_END	n/a	n/a	n/a	-999	-1	[0, 0, 0]	n/a	FR1	0	R1467M
264.382	6.733	376587	DISTRACT_START	n/a	n/a	n/a	-999	-1	[0, 0, 0]	n/a	FR1	0	R1467M
271.115	10.133	383318	PROB	10.133	n/a	n/a	-999	-1	[3, 4, 7]	14	FR1	0	R1467M
281.248	6.799	393450	PROB	6.799	n/a	n/a	-999	-1	[7, 2, 4]	13	FR1	0	R1467M
288.047	0.0	400244	DISTRACT_END	n/a	n/a	n/a	-999	-1	[0, 0, 0]	n/a	FR1	0	R1467M
288.047	2.351	400249	STOP	n/a	n/a	n/a	-999	-1	[-999, -999, -999]	n/a	FR1	0	R1467M
290.398	1.133	402594	REC_START	n/a	n/a	n/a	-999	-1	[0, 0, 0]	n/a	FR1	0	R1467M
291.531	1.152	403733	REC_WORD	1.152	n/a	PORK	5	-1	[0, 0, 0]	n/a	FR1	0	R1467M
292.683	1.043	404885	REC_WORD	1.043	n/a	PIN	1	-1	[0, 0, 0]	n/a	FR1	0	R1467M
293.726	3.95	405928	REC_WORD	3.95	n/a	DITCH	11	-1	[0, 0, 0]	n/a	FR1	0	R1467M
297.676	2.848	409878	REC_WORD	2.848	n/a	STAKE	3	-1	[0, 0, 0]	n/a	FR1	0	R1467M
300.524	9.584	412725	REC_WORD	9.584	n/a	FLEET	10	-1	[0, 0, 0]	n/a	FR1	0	R1467M
310.108	10.539	422309	REC_WORD	10.539	n/a	CAPE	8	-1	[0, 0, 0]	n/a	FR1	0	R1467M
320.647	55.817	432842	REC_END	n/a	n/a	n/a	-999	-1	[0, 0, 0]	n/a	FR1	0	R1467M
376.464	10.35	488656	COUNTDOWN_START	n/a	n/a	n/a	-999	1	[0, 0, 0]	n/a	FR1	0	R1467M
386.814	0.001	499003	COUNTDOWN_END	n/a	n/a	n/a	-999	1	[0, 0, 0]	n/a	FR1	0	R1467M
386.815	1.933	499016	ENCODING_START	n/a	n/a	n/a	-999	1	[0, 0, 0]	n/a	FR1	0	R1467M
388.748	1.6	500945	WORD	n/a	wordpools/wordpool_long_EN.txt	CAT	1	1	[0, 0, 0]	n/a	FR1	0	R1467M
390.348	0.85	502544	WORD_OFF	n/a	n/a	CAT	1	1	[0, 0, 0]	n/a	FR1	0	R1467M
391.198	1.616	503398	WORD	n/a	wordpools/wordpool_long_EN.txt	CLOTH	2	1	[0, 0, 0]	n/a	FR1	0	R1467M
392.814	0.833	505010	WORD_OFF	n/a	n/a	CLOTH	2	1	[0, 0, 0]	n/a	FR1	0	R1467M
393.647	1.601	505836	WORD	n/a	wordpools/wordpool_long_EN.txt	HILL	3	1	[0, 0, 0]	n/a	FR1	0	R1467M
395.248	0.883	507448	WORD_OFF	n/a	n/a	HILL	3	1	[0, 0, 0]	n/a	FR1	0	R1467M
396.131	1.617	508330	WORD	n/a	wordpools/wordpool_long_EN.txt	OAR	4	1	[0, 0, 0]	n/a	FR1	0	R1467M
397.748	0.815	509942	WORD_OFF	n/a	n/a	OAR	4	1	[0, 0, 0]	n/a	FR1	0	R1467M
398.563	1.601	510755	WORD	n/a	wordpools/wordpool_long_EN.txt	CLOWN	5	1	[0, 0, 0]	n/a	FR1	0	R1467M
400.164	0.95	512353	WORD_OFF	n/a	n/a	CLOWN	5	1	[0, 0, 0]	n/a	FR1	0	R1467M
401.114	1.617	513304	WORD	n/a	wordpools/wordpool_long_EN.txt	TOWN	6	1	[0, 0, 0]	n/a	FR1	0	R1467M
402.731	0.766	514930	WORD_OFF	n/a	n/a	TOWN	6	1	[0, 0, 0]	n/a	FR1	0	R1467M
403.497	1.617	515688	WORD	n/a	wordpools/wordpool_long_EN.txt	EGG	7	1	[0, 0, 0]	n/a	FR1	0	R1467M
405.114	0.8	517313	WORD_OFF	n/a	n/a	EGG	7	1	[0, 0, 0]	n/a	FR1	0	R1467M
405.914	1.6	518112	WORD	n/a	wordpools/wordpool_long_EN.txt	MAT	8	1	[0, 0, 0]	n/a	FR1	0	R1467M
407.514	0.933	519711	WORD_OFF	n/a	n/a	MAT	8	1	[0, 0, 0]	n/a	FR1	0	R1467M
408.447	1.6	520648	WORD	n/a	wordpools/wordpool_long_EN.txt	HOSE	9	1	[0, 0, 0]	n/a	FR1	0	R1467M
410.047	0.817	522246	WORD_OFF	n/a	n/a	HOSE	9	1	[0, 0, 0]	n/a	FR1	0	R1467M
410.864	1.616	523059	WORD	n/a	wordpools/wordpool_long_EN.txt	FUR	10	1	[0, 0, 0]	n/a	FR1	0	R1467M
412.48	0.967	524671	WORD_OFF	n/a	n/a	FUR	10	1	[0, 0, 0]	n/a	FR1	0	R1467M
413.447	1.6	525635	WORD	n/a	wordpools/wordpool_long_EN.txt	MEAT	11	1	[0, 0, 0]	n/a	FR1	0	R1467M
415.047	1.0	527247	WORD_OFF	n/a	n/a	MEAT	11	1	[0, 0, 0]	n/a	FR1	0	R1467M
416.047	1.6	528239	WORD	n/a	wordpools/wordpool_long_EN.txt	DEER	12	1	[0, 0, 0]	n/a	FR1	0	R1467M
417.647	0.001	529837	WORD_OFF	n/a	n/a	DEER	12	1	[0, 0, 0]	n/a	FR1	0	R1467M
417.648	0.0	529837	ENCODING_END	n/a	n/a	n/a	-999	1	[0, 0, 0]	n/a	FR1	0	R1467M
417.648	0.0	529844	START	n/a	n/a	n/a	-999	1	[-999, -999, -999]	n/a	FR1	0	R1467M
417.648	0.0	529844	PROB	0.0	n/a	n/a	-999	1	[4, 4, 5]	13	FR1	0	R1467M
417.648	6.233	529851	DISTRACT_START	n/a	n/a	n/a	-999	1	[0, 0, 0]	n/a	FR1	0	R1467M
423.881	3.833	536077	PROB	3.833	n/a	n/a	-999	1	[5, 5, 7]	17	FR1	0	R1467M
427.714	4.333	539910	PROB	4.333	n/a	n/a	-999	1	[8, 2, 5]	15	FR1	0	R1467M
432.047	3.818	544242	PROB	3.818	n/a	n/a	-999	1	[5, 5, 6]	16	FR1	0	R1467M
435.865	4.616	548060	PROB	4.616	n/a	n/a	-999	1	[3, 7, 3]	13	FR1	0	R1467M
440.481	0.0	552667	DISTRACT_END	n/a	n/a	n/a	-999	1	[0, 0, 0]	n/a	FR1	0	R1467M
440.481	2.4	552676	STOP	n/a	n/a	n/a	-999	1	[-999, -999, -999]	n/a	FR1	0	R1467M
442.881	1.937	555072	REC_START	n/a	n/a	n/a	-999	1	[0, 0, 0]	n/a	FR1	0	R1467M
444.818	1.676	557013	REC_WORD	1.676	n/a	HOUSE	-999	1	[0, 0, 0]	n/a	FR1	0	R1467M
446.494	26.658	558689	REC_WORD	26.658	n/a	FUR	10	1	[0, 0, 0]	n/a	FR1	0	R1467M
473.152	4.978	585348	REC_END	n/a	n/a	n/a	-999	1	[0, 0, 0]	n/a	FR1	0	R1467M
478.13	10.351	590322	COUNTDOWN_START	n/a	n/a	n/a	-999	2	[0, 0, 0]	n/a	FR1	0	R1467M
488.481	0.0	600669	COUNTDOWN_END	n/a	n/a	n/a	-999	2	[0, 0, 0]	n/a	FR1	0	R1467M
488.481	1.967	600669	ENCODING_START	n/a	n/a	n/a	-999	2	[0, 0, 0]	n/a	FR1	0	R1467M
490.448	1.616	602639	WORD	n/a	wordpools/wordpool_long_EN.txt	SPOUSE	1	2	[0, 0, 0]	n/a	FR1	0	R1467M
492.064	0.933	604251	WORD_OFF	n/a	n/a	SPOUSE	1	2	[0, 0, 0]	n/a	FR1	0	R1467M
492.997	1.617	605188	WORD	n/a	wordpools/wordpool_long_EN.txt	FILM	2	2	[0, 0, 0]	n/a	FR1	0	R1467M
494.614	0.966	606800	WORD_OFF	n/a	n/a	FILM	2	2	[0, 0, 0]	n/a	FR1	0	R1467M
495.58	1.617	607764	WORD	n/a	wordpools/wordpool_long_EN.txt	FARM	3	2	[0, 0, 0]	n/a	FR1	0	R1467M
497.197	0.767	609390	WORD_OFF	n/a	n/a	FARM	3	2	[0, 0, 0]	n/a	FR1	0	R1467M
497.964	1.616	610148	WORD	n/a	wordpools/wordpool_long_EN.txt	WORM	4	2	[0, 0, 0]	n/a	FR1	0	R1467M
499.58	0.917	611774	WORD_OFF	n/a	n/a	WORM	4	2	[0, 0, 0]	n/a	FR1	0	R1467M
500.497	1.6	612683	WORD	n/a	wordpools/wordpool_long_EN.txt	NAIL	5	2	[0, 0, 0]	n/a	FR1	0	R1467M
502.097	0.783	614281	WORD_OFF	n/a	n/a	NAIL	5	2	[0, 0, 0]	n/a	FR1	0	R1467M
502.88	1.6	615067	WORD	n/a	wordpools/wordpool_long_EN.txt	WEED	6	2	[0, 0, 0]	n/a	FR1	0	R1467M
504.48	0.767	616665	WORD_OFF	n/a	n/a	WEED	6	2	[0, 0, 0]	n/a	FR1	0	R1467M
505.247	1.617	617436	WORD	n/a	wordpools/wordpool_long_EN.txt	SLEEVE	7	2	[0, 0, 0]	n/a	FR1	0	R1467M
506.864	0.766	619048	WORD_OFF	n/a	n/a	SLEEVE	7	2	[0, 0, 0]	n/a	FR1	0	R1467M
507.63	1.6	619820	WORD	n/a	wordpools/wordpool_long_EN.txt	NEST	8	2	[0, 0, 0]	n/a	FR1	0	R1467M
509.23	0.866	621418	WORD_OFF	n/a	n/a	NEST	8	2	[0, 0, 0]	n/a	FR1	0	R1467M
510.096	1.6	622286	WORD	n/a	wordpools/wordpool_long_EN.txt	GIFT	9	2	[0, 0, 0]	n/a	FR1	0	R1467M
511.696	0.767	623884	WORD_OFF	n/a	n/a	GIFT	9	2	[0, 0, 0]	n/a	FR1	0	R1467M
512.463	1.6	624656	WORD	n/a	wordpools/wordpool_long_EN.txt	YARD	10	2	[0, 0, 0]	n/a	FR1	0	R1467M
514.063	0.783	626254	WORD_OFF	n/a	n/a	YARD	10	2	[0, 0, 0]	n/a	FR1	0	R1467M
514.846	1.601	627039	WORD	n/a	wordpools/wordpool_long_EN.txt	GLOBE	11	2	[0, 0, 0]	n/a	FR1	0	R1467M
516.447	0.934	628638	WORD_OFF	n/a	n/a	GLOBE	11	2	[0, 0, 0]	n/a	FR1	0	R1467M
517.381	1.6	629575	WORD	n/a	wordpools/wordpool_long_EN.txt	TEETH	12	2	[0, 0, 0]	n/a	FR1	0	R1467M
518.981	0.002	631173	WORD_OFF	n/a	n/a	TEETH	12	2	[0, 0, 0]	n/a	FR1	0	R1467M
518.983	0.0	631173	ENCODING_END	n/a	n/a	n/a	-999	2	[0, 0, 0]	n/a	FR1	0	R1467M
518.983	0.0	631173	DISTRACT_START	n/a	n/a	n/a	-999	2	[0, 0, 0]	n/a	FR1	0	R1467M
518.982	0.001	631174	PROB	0.001	n/a	n/a	-999	2	[3, 7, 1]	11	FR1	0	R1467M
518.983	6.047	631175	START	n/a	n/a	n/a	-999	2	[-999, -999, -999]	n/a	FR1	0	R1467M
525.03	5.7	637221	PROB	5.7	n/a	n/a	-999	2	[8, 3, 4]	15	FR1	0	R1467M
530.73	5.402	642921	PROB	5.402	n/a	n/a	-999	2	[6, 1, 8]	15	FR1	0	R1467M
536.132	4.882	648323	PROB	4.882	n/a	n/a	-999	2	[5, 4, 1]	10	FR1	0	R1467M
541.014	0.0	653203	DISTRACT_END	n/a	n/a	n/a	-999	2	[0, 0, 0]	n/a	FR1	0	R1467M
541.014	2.233	653205	STOP	n/a	n/a	n/a	-999	2	[-999, -999, -999]	n/a	FR1	0	R1467M
543.247	0.288	655430	REC_START	n/a	n/a	n/a	-999	2	[0, 0, 0]	n/a	FR1	0	R1467M
543.535	2.613	655725	REC_WORD	2.613	n/a	SPOUSE	1	2	[0, 0, 0]	n/a	FR1	0	R1467M
546.148	1.175	658338	REC_WORD	1.175	n/a	NAIL	5	2	[0, 0, 0]	n/a	FR1	0	R1467M
547.323	0.999	659513	REC_WORD	0.999	n/a	WEED	6	2	[0, 0, 0]	n/a	FR1	0	R1467M
548.322	1.828	660512	REC_WORD	1.828	n/a	SLEEVE	7	2	[0, 0, 0]	n/a	FR1	0	R1467M
550.15	3.594	662340	REC_WORD	3.594	n/a	FILM	2	2	[0, 0, 0]	n/a	FR1	0	R1467M
553.744	1.134	665934	REC_WORD	1.134	n/a	TEETH	12	2	[0, 0, 0]	n/a	FR1	0	R1467M
554.878	5.311	667068	REC_WORD	5.311	n/a	FARM	3	2	[0, 0, 0]	n/a	FR1	0	R1467M
560.189	13.364	672379	REC_WORD	13.364	n/a	WORM	4	2	[0, 0, 0]	n/a	FR1	0	R1467M
573.553	4.011	685746	REC_END	n/a	n/a	n/a	-999	2	[0, 0, 0]	n/a	FR1	0	R1467M
577.564	10.351	689756	COUNTDOWN_START	n/a	n/a	n/a	-999	3	[0, 0, 0]	n/a	FR1	0	R1467M
587.915	0.0	700103	COUNTDOWN_END	n/a	n/a	n/a	-999	3	[0, 0, 0]	n/a	FR1	0	R1467M
587.915	1.866	700103	ENCODING_START	n/a	n/a	n/a	-999	3	[0, 0, 0]	n/a	FR1	0	R1467M
589.781	1.616	701963	WORD	n/a	wordpools/wordpool_long_EN.txt	STICK	1	3	[0, 0, 0]	n/a	FR1	0	R1467M
591.397	0.934	703589	WORD_OFF	n/a	n/a	STICK	1	3	[0, 0, 0]	n/a	FR1	0	R1467M
592.331	1.6	704512	WORD	n/a	wordpools/wordpool_long_EN.txt	THUMB	2	3	[0, 0, 0]	n/a	FR1	0	R1467M
593.931	0.983	706110	WORD_OFF	n/a	n/a	THUMB	2	3	[0, 0, 0]	n/a	FR1	0	R1467M
594.914	1.6	707102	WORD	n/a	wordpools/wordpool_long_EN.txt	INK	3	3	[0, 0, 0]	n/a	FR1	0	R1467M
596.514	0.767	708700	WORD_OFF	n/a	n/a	INK	3	3	[0, 0, 0]	n/a	FR1	0	R1467M
597.281	1.616	709472	WORD	n/a	wordpools/wordpool_long_EN.txt	YOLK	4	3	[0, 0, 0]	n/a	FR1	0	R1467M
598.897	0.917	711084	WORD_OFF	n/a	n/a	YOLK	4	3	[0, 0, 0]	n/a	FR1	0	R1467M
599.814	1.6	711993	WORD	n/a	wordpools/wordpool_long_EN.txt	PASTE	5	3	[0, 0, 0]	n/a	FR1	0	R1467M
601.414	0.85	713605	WORD_OFF	n/a	n/a	PASTE	5	3	[0, 0, 0]	n/a	FR1	0	R1467M
602.264	1.599	714446	WORD	n/a	wordpools/wordpool_long_EN.txt	SLUG	6	3	[0, 0, 0]	n/a	FR1	0	R1467M
603.863	0.818	716044	WORD_OFF	n/a	n/a	SLUG	6	3	[0, 0, 0]	n/a	FR1	0	R1467M
604.681	1.617	716870	WORD	n/a	wordpools/wordpool_long_EN.txt	TOOL	7	3	[0, 0, 0]	n/a	FR1	0	R1467M
606.298	0.849	718482	WORD_OFF	n/a	n/a	TOOL	7	3	[0, 0, 0]	n/a	FR1	0	R1467M
607.147	1.617	719337	WORD	n/a	wordpools/wordpool_long_EN.txt	BEAN	8	3	[0, 0, 0]	n/a	FR1	0	R1467M
608.764	0.884	720949	WORD_OFF	n/a	n/a	BEAN	8	3	[0, 0, 0]	n/a	FR1	0	R1467M
609.648	1.6	721830	WORD	n/a	wordpools/wordpool_long_EN.txt	STEM	9	3	[0, 0, 0]	n/a	FR1	0	R1467M
611.248	0.766	723429	WORD_OFF	n/a	n/a	STEM	9	3	[0, 0, 0]	n/a	FR1	0	R1467M
612.014	1.6	724200	WORD	n/a	wordpools/wordpool_long_EN.txt	CAGE	10	3	[0, 0, 0]	n/a	FR1	0	R1467M
613.614	0.767	725798	WORD_OFF	n/a	n/a	CAGE	10	3	[0, 0, 0]	n/a	FR1	0	R1467M
614.381	1.617	726570	WORD	n/a	wordpools/wordpool_long_EN.txt	SPOOL	11	3	[0, 0, 0]	n/a	FR1	0	R1467M
615.998	0.8	728182	WORD_OFF	n/a	n/a	SPOOL	11	3	[0, 0, 0]	n/a	FR1	0	R1467M
616.798	1.616	728981	WORD	n/a	wordpools/wordpool_long_EN.txt	YARN	12	3	[0, 0, 0]	n/a	FR1	0	R1467M
618.414	0.002	730593	WORD_OFF	n/a	n/a	YARN	12	3	[0, 0, 0]	n/a	FR1	0	R1467M
618.416	0.0	730593	ENCODING_END	n/a	n/a	n/a	-999	3	[0, 0, 0]	n/a	FR1	0	R1467M
618.415	0.001	730602	PROB	0.001	n/a	n/a	-999	3	[4, 3, 3]	10	FR1	0	R1467M
618.416	0.0	730603	START	n/a	n/a	n/a	-999	3	[-999, -999, -999]	n/a	FR1	0	R1467M
618.416	6.733	730607	DISTRACT_START	n/a	n/a	n/a	-999	3	[0, 0, 0]	n/a	FR1	0	R1467M
625.149	5.316	737336	PROB	5.316	n/a	n/a	-999	3	[6, 8, 2]	16	FR1	0	R1467M
630.465	5.833	742651	PROB	5.833	n/a	n/a	-999	3	[4, 7, 4]	15	FR1	0	R1467M
636.298	3.583	748484	PROB	3.583	n/a	n/a	-999	3	[4, 4, 2]	10	FR1	0	R1467M
639.881	0.0	752059	DISTRACT_END	n/a	n/a	n/a	-999	3	[0, 0, 0]	n/a	FR1	0	R1467M
639.881	2.334	752067	STOP	n/a	n/a	n/a	-999	3	[-999, -999, -999]	n/a	FR1	0	R1467M
642.215	0.184	754395	REC_START	n/a	n/a	n/a	-999	3	[0, 0, 0]	n/a	FR1	0	R1467M
642.399	0.929	754585	REC_WORD	0.929	n/a	STICK	1	3	[0, 0, 0]	n/a	FR1	0	R1467M
643.328	0.553	755514	REC_WORD_VV	0.553	n/a	<>	-999	3	[0, 0, 0]	n/a	FR1	0	R1467M
643.881	2.027	756067	REC_WORD	2.027	n/a	THUMB	2	3	[0, 0, 0]	n/a	FR1	0	R1467M
645.908	1.102	758094	REC_WORD	1.102	n/a	YARN	12	3	[0, 0, 0]	n/a	FR1	0	R1467M
647.01	9.283	759196	REC_WORD	9.283	n/a	SPOOL	11	3	[0, 0, 0]	n/a	FR1	0	R1467M
656.293	16.206	768478	REC_WORD	16.206	n/a	BEAN	8	3	[0, 0, 0]	n/a	FR1	0	R1467M
672.499	3.582	784685	REC_END	n/a	n/a	n/a	-999	3	[0, 0, 0]	n/a	FR1	0	R1467M
676.081	10.35	788267	COUNTDOWN_START	n/a	n/a	n/a	-999	4	[0, 0, 0]	n/a	FR1	0	R1467M
686.431	0.0	798614	COUNTDOWN_END	n/a	n/a	n/a	-999	4	[0, 0, 0]	n/a	FR1	0	R1467M
686.431	1.966	798614	ENCODING_START	n/a	n/a	n/a	-999	4	[0, 0, 0]	n/a	FR1	0	R1467M
688.397	1.617	800584	WORD	n/a	wordpools/wordpool_long_EN.txt	CUBE	1	4	[0, 0, 0]	n/a	FR1	0	R1467M
690.014	0.849	802196	WORD_OFF	n/a	n/a	CUBE	1	4	[0, 0, 0]	n/a	FR1	0	R1467M
690.863	1.601	803050	WORD	n/a	wordpools/wordpool_long_EN.txt	SKI	2	4	[0, 0, 0]	n/a	FR1	0	R1467M
692.464	0.984	804649	WORD_OFF	n/a	n/a	SKI	2	4	[0, 0, 0]	n/a	FR1	0	R1467M
693.448	1.6	805627	WORD	n/a	wordpools/wordpool_long_EN.txt	SLIDE	3	4	[0, 0, 0]	n/a	FR1	0	R1467M
695.048	0.849	807225	WORD_OFF	n/a	n/a	SLIDE	3	4	[0, 0, 0]	n/a	FR1	0	R1467M
695.897	1.617	808079	WORD	n/a	wordpools/wordpool_long_EN.txt	KITE	4	4	[0, 0, 0]	n/a	FR1	0	R1467M
697.514	0.867	809691	WORD_OFF	n/a	n/a	KITE	4	4	[0, 0, 0]	n/a	FR1	0	R1467M
698.381	1.617	810559	WORD	n/a	wordpools/wordpool_long_EN.txt	SMOKE	5	4	[0, 0, 0]	n/a	FR1	0	R1467M
699.998	0.866	812171	WORD_OFF	n/a	n/a	SMOKE	5	4	[0, 0, 0]	n/a	FR1	0	R1467M
700.864	1.6	813039	WORD	n/a	wordpools/wordpool_long_EN.txt	TRAY	6	4	[0, 0, 0]	n/a	FR1	0	R1467M
702.464	0.95	814651	WORD_OFF	n/a	n/a	TRAY	6	4	[0, 0, 0]	n/a	FR1	0	R1467M
703.414	1.6	815588	WORD	n/a	wordpools/wordpool_long_EN.txt	FRUIT	7	4	[0, 0, 0]	n/a	FR1	0	R1467M
705.014	0.817	817200	WORD_OFF	n/a	n/a	FRUIT	7	4	[0, 0, 0]	n/a	FR1	0	R1467M
705.831	1.6	818013	WORD	n/a	wordpools/wordpool_long_EN.txt	DOG	8	4	[0, 0, 0]	n/a	FR1	0	R1467M
707.431	0.983	819611	WORD_OFF	n/a	n/a	DOG	8	4	[0, 0, 0]	n/a	FR1	0	R1467M
708.414	1.6	820589	WORD	n/a	wordpools/wordpool_long_EN.txt	ARK	9	4	[0, 0, 0]	n/a	FR1	0	R1467M
710.014	0.9	822188	WORD_OFF	n/a	n/a	ARK	9	4	[0, 0, 0]	n/a	FR1	0	R1467M
710.914	1.6	823097	WORD	n/a	wordpools/wordpool_long_EN.txt	OWL	10	4	[0, 0, 0]	n/a	FR1	0	R1467M
712.514	0.917	824695	WORD_OFF	n/a	n/a	OWL	10	4	[0, 0, 0]	n/a	FR1	0	R1467M
713.431	1.617	825605	WORD	n/a	wordpools/wordpool_long_EN.txt	BOX	11	4	[0, 0, 0]	n/a	FR1	0	R1467M
715.048	0.866	827230	WORD_OFF	n/a	n/a	BOX	11	4	[0, 0, 0]	n/a	FR1	0	R1467M
715.914	1.617	828098	WORD	n/a	wordpools/wordpool_long_EN.txt	STRING	12	4	[0, 0, 0]	n/a	FR1	0	R1467M
717.531	0.001	829710	WORD_OFF	n/a	n/a	STRING	12	4	[0, 0, 0]	n/a	FR1	0	R1467M
717.532	0.0	829710	ENCODING_END	n/a	n/a	n/a	-999	4	[0, 0, 0]	n/a	FR1	0	R1467M
717.532	0.0	829710	DISTRACT_START	n/a	n/a	n/a	-999	4	[0, 0, 0]	n/a	FR1	0	R1467M
717.532	0.0	829714	START	n/a	n/a	n/a	-999	4	[-999, -999, -999]	n/a	FR1	0	R1467M
717.532	5.233	829714	PROB	5.233	n/a	n/a	-999	4	[8, 3, 3]	14	FR1	0	R1467M
722.765	8.883	834947	PROB	8.883	n/a	n/a	-999	4	[6, 8, 6]	20	FR1	0	R1467M
731.648	5.1	843830	PROB	5.1	n/a	n/a	-999	4	[4, 4, 7]	15	FR1	0	R1467M
736.748	2.883	848930	PROB	2.883	n/a	n/a	-999	4	[7, 5, 5]	17	FR1	0	R1467M
739.631	0.0	851810	DISTRACT_END	n/a	n/a	n/a	-999	4	[0, 0, 0]	n/a	FR1	0	R1467M
739.631	2.2	851812	STOP	n/a	n/a	n/a	-999	4	[-999, -999, -999]	n/a	FR1	0	R1467M
741.831	0.874	854009	REC_START	n/a	n/a	n/a	-999	4	[0, 0, 0]	n/a	FR1	0	R1467M
742.705	1.319	854886	REC_WORD	1.319	n/a	ARK	9	4	[0, 0, 0]	n/a	FR1	0	R1467M
744.024	1.02	856205	REC_WORD	1.02	n/a	DOG	8	4	[0, 0, 0]	n/a	FR1	0	R1467M
745.044	2.139	857225	REC_WORD	2.139	n/a	OWL	10	4	[0, 0, 0]	n/a	FR1	0	R1467M
747.183	4.19	859364	REC_WORD	4.19	n/a	SKI	2	4	[0, 0, 0]	n/a	FR1	0	R1467M
751.373	6.998	863554	REC_WORD	6.998	n/a	STRING	12	4	[0, 0, 0]	n/a	FR1	0	R1467M
758.371	13.743	870552	REC_WORD	13.743	n/a	ELF	-999	4	[0, 0, 0]	n/a	FR1	0	R1467M
772.114	2.033	884284	REC_END	n/a	n/a	n/a	-999	4	[0, 0, 0]	n/a	FR1	0	R1467M
774.147	10.351	886323	COUNTDOWN_START	n/a	n/a	n/a	-999	5	[0, 0, 0]	n/a	FR1	0	R1467M
784.498	0.0	896670	COUNTDOWN_END	n/a	n/a	n/a	-999	5	[0, 0, 0]	n/a	FR1	0	R1467M
784.498	2.033	896670	ENCODING_START	n/a	n/a	n/a	-999	5	[0, 0, 0]	n/a	FR1	0	R1467M
786.531	1.6	898709	WORD	n/a	wordpools/wordpool_long_EN.txt	FOAM	1	5	[0, 0, 0]	n/a	FR1	0	R1467M
788.131	0.768	900308	WORD_OFF	n/a	n/a	FOAM	1	5	[0, 0, 0]	n/a	FR1	0	R1467M
788.899	1.615	901079	WORD	n/a	wordpools/wordpool_long_EN.txt	TOOTH	2	5	[0, 0, 0]	n/a	FR1	0	R1467M
790.514	0.999	902691	WORD_OFF	n/a	n/a	TOOTH	2	5	[0, 0, 0]	n/a	FR1	0	R1467M
791.513	1.601	903683	WORD	n/a	wordpools/wordpool_long_EN.txt	PAIL	3	5	[0, 0, 0]	n/a	FR1	0	R1467M
793.114	0.85	905295	WORD_OFF	n/a	n/a	PAIL	3	5	[0, 0, 0]	n/a	FR1	0	R1467M
793.964	1.617	906136	WORD	n/a	wordpools/wordpool_long_EN.txt	WHEEL	4	5	[0, 0, 0]	n/a	FR1	0	R1467M
795.581	0.932	907761	WORD_OFF	n/a	n/a	WHEEL	4	5	[0, 0, 0]	n/a	FR1	0	R1467M
796.513	1.601	908684	WORD	n/a	wordpools/wordpool_long_EN.txt	FRAME	5	5	[0, 0, 0]	n/a	FR1	0	R1467M
798.114	0.967	910296	WORD_OFF	n/a	n/a	FRAME	5	5	[0, 0, 0]	n/a	FR1	0	R1467M
799.081	1.6	911261	WORD	n/a	wordpools/wordpool_long_EN.txt	GRASS	6	5	[0, 0, 0]	n/a	FR1	0	R1467M
800.681	0.867	912859	WORD_OFF	n/a	n/a	GRASS	6	5	[0, 0, 0]	n/a	FR1	0	R1467M
801.548	1.616	913727	WORD	n/a	wordpools/wordpool_long_EN.txt	STORE	7	5	[0, 0, 0]	n/a	FR1	0	R1467M
803.164	0.966	915339	WORD_OFF	n/a	n/a	STORE	7	5	[0, 0, 0]	n/a	FR1	0	R1467M
804.13	1.601	916304	WORD	n/a	wordpools/wordpool_long_EN.txt	STONE	8	5	[0, 0, 0]	n/a	FR1	0	R1467M
805.731	0.967	917902	WORD_OFF	n/a	n/a	STONE	8	5	[0, 0, 0]	n/a	FR1	0	R1467M
806.698	1.616	918866	WORD	n/a	wordpools/wordpool_long_EN.txt	DUST	9	5	[0, 0, 0]	n/a	FR1	0	R1467M
808.314	0.967	920492	WORD_OFF	n/a	n/a	DUST	9	5	[0, 0, 0]	n/a	FR1	0	R1467M
809.281	1.617	921456	WORD	n/a	wordpools/wordpool_long_EN.txt	RAFT	10	5	[0, 0, 0]	n/a	FR1	0	R1467M
810.898	0.866	923068	WORD_OFF	n/a	n/a	RAFT	10	5	[0, 0, 0]	n/a	FR1	0	R1467M
811.764	1.617	923936	WORD	n/a	wordpools/wordpool_long_EN.txt	GLOVE	11	5	[0, 0, 0]	n/a	FR1	0	R1467M
813.381	0.8	925562	WORD_OFF	n/a	n/a	GLOVE	11	5	[0, 0, 0]	n/a	FR1	0	R1467M
814.181	1.6	926361	WORD	n/a	wordpools/wordpool_long_EN.txt	JAIL	12	5	[0, 0, 0]	n/a	FR1	0	R1467M
815.781	0.0	927959	PROB	0.0	n/a	n/a	-999	5	[4, 3, 6]	15	FR1	0	R1467M
815.781	0.001	927960	WORD_OFF	n/a	n/a	JAIL	12	5	[0, 0, 0]	n/a	FR1	0	R1467M
815.782	0.0	927960	ENCODING_END	n/a	n/a	n/a	-999	5	[0, 0, 0]	n/a	FR1	0	R1467M
815.782	0.0	927960	DISTRACT_START	n/a	n/a	n/a	-999	5	[0, 0, 0]	n/a	FR1	0	R1467M
815.782	7.349	927960	START	n/a	n/a	n/a	-999	5	[-999, -999, -999]	n/a	FR1	0	R1467M
823.131	6.1	935309	PROB	6.1	n/a	n/a	-999	5	[1, 7, 1]	9	FR1	0	R1467M
829.231	2.6	941408	PROB	2.6	n/a	n/a	-999	5	[4, 4, 1]	9	FR1	0	R1467M
831.831	7.749	944008	PROB	7.749	n/a	n/a	-999	5	[8, 5, 4]	16	FR1	0	R1467M
839.58	0.0	951754	DISTRACT_END	n/a	n/a	n/a	-999	5	[0, 0, 0]	n/a	FR1	0	R1467M
839.58	2.133	951757	STOP	n/a	n/a	n/a	-999	5	[-999, -999, -999]	n/a	FR1	0	R1467M
841.713	1.289	953884	REC_START	n/a	n/a	n/a	-999	5	[0, 0, 0]	n/a	FR1	0	R1467M
843.002	0.92	955179	REC_WORD	0.92	n/a	JAIL	12	5	[0, 0, 0]	n/a	FR1	0	R1467M
843.922	3.882	956099	REC_WORD	3.882	n/a	GLOVE	11	5	[0, 0, 0]	n/a	FR1	0	R1467M
847.804	0.709	959981	REC_WORD_VV	0.709	n/a	<>	-999	5	[0, 0, 0]	n/a	FR1	0	R1467M
848.513	5.002	960690	REC_WORD	5.002	n/a	RAIL	-999	5	[0, 0, 0]	n/a	FR1	0	R1467M
853.515	5.236	965691	REC_WORD	5.236	n/a	WHEEL	4	5	[0, 0, 0]	n/a	FR1	0	R1467M
858.751	0.734	970927	REC_WORD	0.734	n/a	TOOTH	2	5	[0, 0, 0]	n/a	FR1	0	R1467M
859.485	12.514	971661	REC_WORD	12.514	n/a	FOAM	1	5	[0, 0, 0]	n/a	FR1	0	R1467M
871.999	2.482	984173	REC_END	n/a	n/a	n/a	-999	5	[0, 0, 0]	n/a	FR1	0	R1467M
874.481	10.351	986653	COUNTDOWN_START	n/a	n/a	n/a	-999	6	[0, 0, 0]	n/a	FR1	0	R1467M
884.832	0.0	997000	COUNTDOWN_END	n/a	n/a	n/a	-999	6	[0, 0, 0]	n/a	FR1	0	R1467M
884.832	1.882	997000	ENCODING_START	n/a	n/a	n/a	-999	6	[0, 0, 0]	n/a	FR1	0	R1467M
886.714	1.617	998888	WORD	n/a	wordpools/wordpool_long_EN.txt	FROG	1	6	[0, 0, 0]	n/a	FR1	0	R1467M
888.331	0.834	1000500	WORD_OFF	n/a	n/a	FROG	1	6	[0, 0, 0]	n/a	FR1	0	R1467M
889.165	1.616	1001340	WORD	n/a	wordpools/wordpool_long_EN.txt	PEARL	2	6	[0, 0, 0]	n/a	FR1	0	R1467M
890.781	0.833	1002952	WORD_OFF	n/a	n/a	PEARL	2	6	[0, 0, 0]	n/a	FR1	0	R1467M
891.614	1.617	1003792	WORD	n/a	wordpools/wordpool_long_EN.txt	TOY	3	6	[0, 0, 0]	n/a	FR1	0	R1467M
893.231	0.899	1005404	WORD_OFF	n/a	n/a	TOY	3	6	[0, 0, 0]	n/a	FR1	0	R1467M
894.13	1.601	1006300	WORD	n/a	wordpools/wordpool_long_EN.txt	TENT	4	6	[0, 0, 0]	n/a	FR1	0	R1467M
895.731	0.85	1007898	WORD_OFF	n/a	n/a	TENT	4	6	[0, 0, 0]	n/a	FR1	0	R1467M
896.581	1.616	1008752	WORD	n/a	wordpools/wordpool_long_EN.txt	ROOT	5	6	[0, 0, 0]	n/a	FR1	0	R1467M
898.197	0.951	1010364	WORD_OFF	n/a	n/a	ROOT	5	6	[0, 0, 0]	n/a	FR1	0	R1467M
899.148	1.6	1011315	WORD	n/a	wordpools/wordpool_long_EN.txt	CUP	6	6	[0, 0, 0]	n/a	FR1	0	R1467M
900.748	0.899	1012913	WORD_OFF	n/a	n/a	CUP	6	6	[0, 0, 0]	n/a	FR1	0	R1467M
901.647	1.616	1013823	WORD	n/a	wordpools/wordpool_long_EN.txt	QUAIL	7	6	[0, 0, 0]	n/a	FR1	0	R1467M
903.263	0.834	1015435	WORD_OFF	n/a	n/a	QUAIL	7	6	[0, 0, 0]	n/a	FR1	0	R1467M
904.097	1.617	1016275	WORD	n/a	wordpools/wordpool_long_EN.txt	BLUSH	8	6	[0, 0, 0]	n/a	FR1	0	R1467M
905.714	0.85	1017887	WORD_OFF	n/a	n/a	BLUSH	8	6	[0, 0, 0]	n/a	FR1	0	R1467M
906.564	1.617	1018741	WORD	n/a	wordpools/wordpool_long_EN.txt	BAR	9	6	[0, 0, 0]	n/a	FR1	0	R1467M
908.181	0.984	1020353	WORD_OFF	n/a	n/a	BAR	9	6	[0, 0, 0]	n/a	FR1	0	R1467M
909.165	1.599	1021331	WORD	n/a	wordpools/wordpool_long_EN.txt	BAND	10	6	[0, 0, 0]	n/a	FR1	0	R1467M
910.764	0.9	1022930	WORD_OFF	n/a	n/a	BAND	10	6	[0, 0, 0]	n/a	FR1	0	R1467M
911.664	1.616	1023839	WORD	n/a	wordpools/wordpool_long_EN.txt	HEDGE	11	6	[0, 0, 0]	n/a	FR1	0	R1467M
913.28	0.784	1025451	WORD_OFF	n/a	n/a	HEDGE	11	6	[0, 0, 0]	n/a	FR1	0	R1467M
914.064	1.6	1026236	WORD	n/a	wordpools/wordpool_long_EN.txt	SEA	12	6	[0, 0, 0]	n/a	FR1	0	R1467M
915.664	0.001	1027835	WORD_OFF	n/a	n/a	SEA	12	6	[0, 0, 0]	n/a	FR1	0	R1467M
915.665	0.0	1027835	ENCODING_END	n/a	n/a	n/a	-999	6	[0, 0, 0]	n/a	FR1	0	R1467M
915.665	0.0	1027835	DISTRACT_START	n/a	n/a	n/a	-999	6	[0, 0, 0]	n/a	FR1	0	R1467M
915.664	0.001	1027837	PROB	0.001	n/a	n/a	-999	6	[1, 6, 6]	13	FR1	0	R1467M
915.665	3.649	1027838	START	n/a	n/a	n/a	-999	6	[-999, -999, -999]	n/a	FR1	0	R1467M
919.314	2.934	1031487	PROB	2.934	n/a	n/a	-999	6	[1, 6, 7]	14	FR1	0	R1467M
922.248	12.332	1034421	PROB	12.332	n/a	n/a	-999	6	[8, 6, 8]	19	FR1	0	R1467M
934.58	4.718	1046753	PROB	4.718	n/a	n/a	-999	6	[1, 7, 1]	9	FR1	0	R1467M
939.298	0.0	1051463	DISTRACT_END	n/a	n/a	n/a	-999	6	[0, 0, 0]	n/a	FR1	0	R1467M
939.298	2.183	1051470	STOP	n/a	n/a	n/a	-999	6	[-999, -999, -999]	n/a	FR1	0	R1467M
941.481	0.444	1053648	REC_START	n/a	n/a	n/a	-999	6	[0, 0, 0]	n/a	FR1	0	R1467M
941.925	1.706	1054097	REC_WORD	1.706	n/a	FROG	1	6	[0, 0, 0]	n/a	FR1	0	R1467M
943.631	1.948	1055803	REC_WORD	1.948	n/a	PEARL	2	6	[0, 0, 0]	n/a	FR1	0	R1467M
945.579	7.311	1057751	REC_WORD	7.311	n/a	SEA	12	6	[0, 0, 0]	n/a	FR1	0	R1467M
952.89	13.564	1065062	REC_WORD	13.564	n/a	OAR	-999	6	[0, 0, 0]	n/a	FR1	0	R1467M
966.454	5.265	1078625	REC_WORD	5.265	n/a	TENT	4	6	[0, 0, 0]	n/a	FR1	0	R1467M
971.719	2.445	1083883	REC_END	n/a	n/a	n/a	-999	6	[0, 0, 0]	n/a	FR1	0	R1467M
974.164	10.351	1086335	COUNTDOWN_START	n/a	n/a	n/a	-999	7	[0, 0, 0]	n/a	FR1	0	R1467M
984.515	0.008	1096696	COUNTDOWN_END	n/a	n/a	n/a	-999	7	[0, 0, 0]	n/a	FR1	0	R1467M
984.523	1.907	1096696	ENCODING_START	n/a	n/a	n/a	-999	7	[0, 0, 0]	n/a	FR1	0	R1467M
986.43	1.601	1098597	WORD	n/a	wordpools/wordpool_long_EN.txt	SHOE	1	7	[0, 0, 0]	n/a	FR1	0	R1467M
988.031	0.899	1100195	WORD_OFF	n/a	n/a	SHOE	1	7	[0, 0, 0]	n/a	FR1	0	R1467M
988.93	1.601	1101091	WORD	n/a	wordpools/wordpool_long_EN.txt	LAND	2	7	[0, 0, 0]	n/a	FR1	0	R1467M
990.531	0.983	1102703	WORD_OFF	n/a	n/a	LAND	2	7	[0, 0, 0]	n/a	FR1	0	R1467M
991.514	1.6	1103681	WORD	n/a	wordpools/wordpool_long_EN.txt	LEAF	3	7	[0, 0, 0]	n/a	FR1	0	R1467M
993.114	0.867	1105279	WORD_OFF	n/a	n/a	LEAF	3	7	[0, 0, 0]	n/a	FR1	0	R1467M
993.981	1.616	1106147	WORD	n/a	wordpools/wordpool_long_EN.txt	SLUSH	4	7	[0, 0, 0]	n/a	FR1	0	R1467M
995.597	1.0	1107759	WORD_OFF	n/a	n/a	SLUSH	4	7	[0, 0, 0]	n/a	FR1	0	R1467M
996.597	1.617	1108765	WORD	n/a	wordpools/wordpool_long_EN.txt	POLE	5	7	[0, 0, 0]	n/a	FR1	0	R1467M
998.214	0.816	1110377	WORD_OFF	n/a	n/a	POLE	5	7	[0, 0, 0]	n/a	FR1	0	R1467M
999.03	1.601	1111190	WORD	n/a	wordpools/wordpool_long_EN.txt	SQUARE	6	7	[0, 0, 0]	n/a	FR1	0	R1467M
1000.631	0.999	1112802	WORD_OFF	n/a	n/a	SQUARE	6	7	[0, 0, 0]	n/a	FR1	0	R1467M
1001.63	1.6	1113794	WORD	n/a	wordpools/wordpool_long_EN.txt	LOCK	7	7	[0, 0, 0]	n/a	FR1	0	R1467M
1003.23	0.9	1115392	WORD_OFF	n/a	n/a	LOCK	7	7	[0, 0, 0]	n/a	FR1	0	R1467M
1004.13	1.6	1116302	WORD	n/a	wordpools/wordpool_long_EN.txt	WAND	8	7	[0, 0, 0]	n/a	FR1	0	R1467M
1005.73	0.917	1117900	WORD_OFF	n/a	n/a	WAND	8	7	[0, 0, 0]	n/a	FR1	0	R1467M
1006.647	1.617	1118809	WORD	n/a	wordpools/wordpool_long_EN.txt	STREET	9	7	[0, 0, 0]	n/a	FR1	0	R1467M
1008.264	0.783	1120435	WORD_OFF	n/a	n/a	STREET	9	7	[0, 0, 0]	n/a	FR1	0	R1467M
1009.047	1.6	1121220	WORD	n/a	wordpools/wordpool_long_EN.txt	SOUP	10	7	[0, 0, 0]	n/a	FR1	0	R1467M
1010.647	1.0	1122819	WORD_OFF	n/a	n/a	SOUP	10	7	[0, 0, 0]	n/a	FR1	0	R1467M
1011.647	1.6	1123811	WORD	n/a	wordpools/wordpool_long_EN.txt	SLOPE	11	7	[0, 0, 0]	n/a	FR1	0	R1467M
1013.247	0.933	1125409	WORD_OFF	n/a	n/a	SLOPE	11	7	[0, 0, 0]	n/a	FR1	0	R1467M
1014.18	1.616	1126346	WORD	n/a	wordpools/wordpool_long_EN.txt	TAIL	12	7	[0, 0, 0]	n/a	FR1	0	R1467M
1015.796	0.001	1127958	WORD_OFF	n/a	n/a	TAIL	12	7	[0, 0, 0]	n/a	FR1	0	R1467M
1015.797	0.001	1127966	PROB	0.001	n/a	n/a	-999	7	[6, 3, 6]	15	FR1	0	R1467M
1015.798	0.0	1127967	START	n/a	n/a	n/a	-999	7	[-999, -999, -999]	n/a	FR1	0	R1467M
1015.798	0.0	1127971	ENCODING_END	n/a	n/a	n/a	-999	7	[0, 0, 0]	n/a	FR1	0	R1467M
1015.798	4.583	1127971	DISTRACT_START	n/a	n/a	n/a	-999	7	[0, 0, 0]	n/a	FR1	0	R1467M
1020.381	4.801	1132550	PROB	4.801	n/a	n/a	-999	7	[8, 8, 3]	19	FR1	0	R1467M
1025.182	2.382	1137350	PROB	2.382	n/a	n/a	-999	7	[6, 6, 1]	13	FR1	0	R1467M
1027.564	5.734	1139732	PROB	5.734	n/a	n/a	-999	7	[7, 8, 3]	18	FR1	0	R1467M
1033.298	5.85	1145466	PROB	5.85	n/a	n/a	-999	7	[6, 4, 1]	13	FR1	0	R1467M
1039.148	0.0	1151311	DISTRACT_END	n/a	n/a	n/a	-999	7	[0, 0, 0]	n/a	FR1	0	R1467M
1039.148	2.316	1151316	STOP	n/a	n/a	n/a	-999	7	[-999, -999, -999]	n/a	FR1	0	R1467M
1041.464	1.084	1153634	REC_START	n/a	n/a	n/a	-999	7	[0, 0, 0]	n/a	FR1	0	R1467M
1042.548	2.474	1154716	REC_WORD	2.474	n/a	SHOE	1	7	[0, 0, 0]	n/a	FR1	0	R1467M
1045.022	1.922	1157190	REC_WORD	1.922	n/a	LAND	2	7	[0, 0, 0]	n/a	FR1	0	R1467M
1046.944	2.624	1159112	REC_WORD	2.624	n/a	LEAF	3	7	[0, 0, 0]	n/a	FR1	0	R1467M
1049.568	22.171	1161735	REC_WORD	22.171	n/a	SLOPE	11	7	[0, 0, 0]	n/a	FR1	0	R1467M
1071.739	1.925	1183909	REC_END	n/a	n/a	n/a	-999	7	[0, 0, 0]	n/a	FR1	0	R1467M
1073.664	10.35	1185824	COUNTDOWN_START	n/a	n/a	n/a	-999	8	[0, 0, 0]	n/a	FR1	0	R1467M
1084.014	0.0	1196171	COUNTDOWN_END	n/a	n/a	n/a	-999	8	[0, 0, 0]	n/a	FR1	0	R1467M
1084.014	1.8	1196185	ENCODING_START	n/a	n/a	n/a	-999	8	[0, 0, 0]	n/a	FR1	0	R1467M
1085.814	1.616	1197976	WORD	n/a	wordpools/wordpool_long_EN.txt	FLAG	1	8	[0, 0, 0]	n/a	FR1	0	R1467M
1087.43	0.867	1199588	WORD_OFF	n/a	n/a	FLAG	1	8	[0, 0, 0]	n/a	FR1	0	R1467M
1088.297	1.6	1200456	WORD	n/a	wordpools/wordpool_long_EN.txt	PRINCE	2	8	[0, 0, 0]	n/a	FR1	0	R1467M
1089.897	0.85	1202054	WORD_OFF	n/a	n/a	PRINCE	2	8	[0, 0, 0]	n/a	FR1	0	R1467M
1090.747	1.616	1202909	WORD	n/a	wordpools/wordpool_long_EN.txt	SKUNK	3	8	[0, 0, 0]	n/a	FR1	0	R1467M
1092.363	0.884	1204521	WORD_OFF	n/a	n/a	SKUNK	3	8	[0, 0, 0]	n/a	FR1	0	R1467M
1093.247	1.6	1205416	WORD	n/a	wordpools/wordpool_long_EN.txt	PLAID	4	8	[0, 0, 0]	n/a	FR1	0	R1467M
1094.847	0.983	1207014	WORD_OFF	n/a	n/a	PLAID	4	8	[0, 0, 0]	n/a	FR1	0	R1467M
1095.83	1.617	1207993	WORD	n/a	wordpools/wordpool_long_EN.txt	CLOCK	5	8	[0, 0, 0]	n/a	FR1	0	R1467M
1097.447	0.8	1209605	WORD_OFF	n/a	n/a	CLOCK	5	8	[0, 0, 0]	n/a	FR1	0	R1467M
1098.247	1.616	1210404	WORD	n/a	wordpools/wordpool_long_EN.txt	QUEEN	6	8	[0, 0, 0]	n/a	FR1	0	R1467M
1099.863	0.95	1212030	WORD_OFF	n/a	n/a	QUEEN	6	8	[0, 0, 0]	n/a	FR1	0	R1467M
1100.813	1.601	1212980	WORD	n/a	wordpools/wordpool_long_EN.txt	SNAIL	7	8	[0, 0, 0]	n/a	FR1	0	R1467M
1102.414	0.833	1214578	WORD_OFF	n/a	n/a	SNAIL	7	8	[0, 0, 0]	n/a	FR1	0	R1467M
1103.247	1.6	1215405	WORD	n/a	wordpools/wordpool_long_EN.txt	WEB	8	8	[0, 0, 0]	n/a	FR1	0	R1467M
1104.847	0.817	1217003	WORD_OFF	n/a	n/a	WEB	8	8	[0, 0, 0]	n/a	FR1	0	R1467M
1105.664	1.601	1217830	WORD	n/a	wordpools/wordpool_long_EN.txt	WASP	9	8	[0, 0, 0]	n/a	FR1	0	R1467M
1107.265	0.866	1219428	WORD_OFF	n/a	n/a	WASP	9	8	[0, 0, 0]	n/a	FR1	0	R1467M
1108.131	1.601	1220296	WORD	n/a	wordpools/wordpool_long_EN.txt	ICE	10	8	[0, 0, 0]	n/a	FR1	0	R1467M
1109.732	0.933	1221894	WORD_OFF	n/a	n/a	ICE	10	8	[0, 0, 0]	n/a	FR1	0	R1467M
1110.665	1.616	1222831	WORD	n/a	wordpools/wordpool_long_EN.txt	SPRING	11	8	[0, 0, 0]	n/a	FR1	0	R1467M
1112.281	0.85	1224443	WORD_OFF	n/a	n/a	SPRING	11	8	[0, 0, 0]	n/a	FR1	0	R1467M
1113.131	1.6	1225298	WORD	n/a	wordpools/wordpool_long_EN.txt	COOK	12	8	[0, 0, 0]	n/a	FR1	0	R1467M
1114.731	0.001	1226896	WORD_OFF	n/a	n/a	COOK	12	8	[0, 0, 0]	n/a	FR1	0	R1467M
1114.732	0.0	1226896	ENCODING_END	n/a	n/a	n/a	-999	8	[0, 0, 0]	n/a	FR1	0	R1467M
1114.732	0.0	1226896	DISTRACT_START	n/a	n/a	n/a	-999	8	[0, 0, 0]	n/a	FR1	0	R1467M
1114.732	0.0	1226896	START	n/a	n/a	n/a	-999	8	[-999, -999, -999]	n/a	FR1	0	R1467M
1114.732	4.566	1226896	PROB	4.566	n/a	n/a	-999	8	[5, 1, 8]	14	FR1	0	R1467M
1119.298	7.799	1231462	PROB	7.799	n/a	n/a	-999	8	[1, 5, 7]	13	FR1	0	R1467M
1127.097	7.484	1239261	PROB	7.484	n/a	n/a	-999	8	[2, 6, 7]	14	FR1	0	R1467M
1134.581	4.65	1246745	PROB	4.65	n/a	n/a	-999	8	[1, 8, 7]	16	FR1	0	R1467M
1139.231	0.0	1251393	DISTRACT_END	n/a	n/a	n/a	-999	8	[0, 0, 0]	n/a	FR1	0	R1467M
1139.231	2.183	1251394	STOP	n/a	n/a	n/a	-999	8	[-999, -999, -999]	n/a	FR1	0	R1467M
1141.414	1.61	1253578	REC_START	n/a	n/a	n/a	-999	8	[0, 0, 0]	n/a	FR1	0	R1467M
1143.024	1.168	1255187	REC_WORD	1.168	n/a	FLAG	1	8	[0, 0, 0]	n/a	FR1	0	R1467M
1144.192	1.238	1256355	REC_WORD	1.238	n/a	PRINCE	2	8	[0, 0, 0]	n/a	FR1	0	R1467M
1145.43	1.904	1257593	REC_WORD	1.904	n/a	QUEEN	6	8	[0, 0, 0]	n/a	FR1	0	R1467M
1147.334	1.04	1259497	REC_WORD	1.04	n/a	SNAIL	7	8	[0, 0, 0]	n/a	FR1	0	R1467M
1148.374	5.968	1260537	REC_WORD	5.968	n/a	SKUNK	3	8	[0, 0, 0]	n/a	FR1	0	R1467M
1154.342	2.782	1266505	REC_WORD	2.782	n/a	COOK	12	8	[0, 0, 0]	n/a	FR1	0	R1467M
1157.124	1.0	1269287	REC_WORD	1.0	n/a	SLOPE	-999	8	[0, 0, 0]	n/a	FR1	0	R1467M
1158.124	1.562	1270286	REC_WORD_VV	1.562	n/a	<>	-999	8	[0, 0, 0]	n/a	FR1	0	R1467M
1159.686	11.975	1271848	REC_WORD	11.975	n/a	PAIL	-999	8	[0, 0, 0]	n/a	FR1	0	R1467M
1171.661	1.803	1283825	REC_END	n/a	n/a	n/a	-999	8	[0, 0, 0]	n/a	FR1	0	R1467M
1173.464	10.35	1285630	COUNTDOWN_START	n/a	n/a	n/a	-999	9	[0, 0, 0]	n/a	FR1	0	R1467M
1183.814	0.0	1295977	COUNTDOWN_END	n/a	n/a	n/a	-999	9	[0, 0, 0]	n/a	FR1	0	R1467M
1183.814	2.066	1295977	ENCODING_START	n/a	n/a	n/a	-999	9	[0, 0, 0]	n/a	FR1	0	R1467M
1185.88	1.601	1298044	WORD	n/a	wordpools/wordpool_long_EN.txt	LAMP	1	9	[0, 0, 0]	n/a	FR1	0	R1467M
1187.481	0.783	1299642	WORD_OFF	n/a	n/a	LAMP	1	9	[0, 0, 0]	n/a	FR1	0	R1467M
1188.264	1.617	1300428	WORD	n/a	wordpools/wordpool_long_EN.txt	FAN	2	9	[0, 0, 0]	n/a	FR1	0	R1467M
1189.881	0.833	1302040	WORD_OFF	n/a	n/a	FAN	2	9	[0, 0, 0]	n/a	FR1	0	R1467M
1190.714	1.619	1302866	WORD	n/a	wordpools/wordpool_long_EN.txt	DART	3	9	[0, 0, 0]	n/a	FR1	0	R1467M
1192.333	0.982	1304492	WORD_OFF	n/a	n/a	DART	3	9	[0, 0, 0]	n/a	FR1	0	R1467M
1193.315	1.6	1305470	WORD	n/a	wordpools/wordpool_long_EN.txt	BOOT	4	9	[0, 0, 0]	n/a	FR1	0	R1467M
1194.915	0.999	1307069	WORD_OFF	n/a	n/a	BOOT	4	9	[0, 0, 0]	n/a	FR1	0	R1467M
1195.914	1.6	1308074	WORD	n/a	wordpools/wordpool_long_EN.txt	SUIT	5	9	[0, 0, 0]	n/a	FR1	0	R1467M
1197.514	0.817	1309673	WORD_OFF	n/a	n/a	SUIT	5	9	[0, 0, 0]	n/a	FR1	0	R1467M
1198.331	1.599	1310485	WORD	n/a	wordpools/wordpool_long_EN.txt	FENCE	6	9	[0, 0, 0]	n/a	FR1	0	R1467M
1199.93	0.851	1312084	WORD_OFF	n/a	n/a	FENCE	6	9	[0, 0, 0]	n/a	FR1	0	R1467M
1200.781	1.6	1312938	WORD	n/a	wordpools/wordpool_long_EN.txt	SCARF	7	9	[0, 0, 0]	n/a	FR1	0	R1467M
1202.381	0.983	1314536	WORD_OFF	n/a	n/a	SCARF	7	9	[0, 0, 0]	n/a	FR1	0	R1467M
1203.364	1.601	1315528	WORD	n/a	wordpools/wordpool_long_EN.txt	BAG	8	9	[0, 0, 0]	n/a	FR1	0	R1467M
1204.965	0.849	1317126	WORD_OFF	n/a	n/a	BAG	8	9	[0, 0, 0]	n/a	FR1	0	R1467M
1205.814	1.617	1317967	WORD	n/a	wordpools/wordpool_long_EN.txt	TWIG	9	9	[0, 0, 0]	n/a	FR1	0	R1467M
1207.431	0.883	1319593	WORD_OFF	n/a	n/a	TWIG	9	9	[0, 0, 0]	n/a	FR1	0	R1467M
1208.314	1.617	1320474	WORD	n/a	wordpools/wordpool_long_EN.txt	STAIR	10	9	[0, 0, 0]	n/a	FR1	0	R1467M
1209.931	0.833	1322086	WORD_OFF	n/a	n/a	STAIR	10	9	[0, 0, 0]	n/a	FR1	0	R1467M
1210.764	1.6	1322927	WORD	n/a	wordpools/wordpool_long_EN.txt	CAVE	11	9	[0, 0, 0]	n/a	FR1	0	R1467M
1212.364	0.884	1324525	WORD_OFF	n/a	n/a	CAVE	11	9	[0, 0, 0]	n/a	FR1	0	R1467M
1213.248	1.616	1325407	WORD	n/a	wordpools/wordpool_long_EN.txt	BIRD	12	9	[0, 0, 0]	n/a	FR1	0	R1467M
1214.864	0.002	1327019	WORD_OFF	n/a	n/a	BIRD	12	9	[0, 0, 0]	n/a	FR1	0	R1467M
1214.866	0.0	1327019	ENCODING_END	n/a	n/a	n/a	-999	9	[0, 0, 0]	n/a	FR1	0	R1467M
1214.865	0.001	1327025	PROB	0.001	n/a	n/a	-999	9	[1, 3, 8]	12	FR1	0	R1467M
1214.866	0.0	1327026	START	n/a	n/a	n/a	-999	9	[-999, -999, -999]	n/a	FR1	0	R1467M
1214.866	3.949	1327033	DISTRACT_START	n/a	n/a	n/a	-999	9	[0, 0, 0]	n/a	FR1	0	R1467M
1218.815	3.599	1330975	PROB	3.599	n/a	n/a	-999	9	[1, 6, 5]	12	FR1	0	R1467M
1222.414	4.4	1334574	PROB	4.4	n/a	n/a	-999	9	[6, 3, 5]	14	FR1	0	R1467M
1226.814	3.134	1338973	PROB	3.134	n/a	n/a	-999	9	[8, 5, 5]	18	FR1	0	R1467M
1229.948	4.316	1342107	PROB	4.316	n/a	n/a	-999	9	[3, 1, 3]	7	FR1	0	R1467M
1234.264	3.633	1346423	PROB	3.633	n/a	n/a	-999	9	[5, 6, 1]	12	FR1	0	R1467M
1237.897	0.0	1350055	DISTRACT_END	n/a	n/a	n/a	-999	9	[0, 0, 0]	n/a	FR1	0	R1467M
1237.897	2.134	1350056	STOP	n/a	n/a	n/a	-999	9	[-999, -999, -999]	n/a	FR1	0	R1467M
1240.031	4.0	1352185	REC_START	n/a	n/a	n/a	-999	9	[0, 0, 0]	n/a	FR1	0	R1467M
1244.031	0.903	1356190	REC_WORD	0.903	n/a	LAMP	1	9	[0, 0, 0]	n/a	FR1	0	R1467M
1244.934	1.0	1357093	REC_WORD	1.0	n/a	FAN	2	9	[0, 0, 0]	n/a	FR1	0	R1467M
1245.934	4.226	1358092	REC_WORD_VV	4.226	n/a	<>	-999	9	[0, 0, 0]	n/a	FR1	0	R1467M
1250.16	0.855	1362318	REC_WORD	0.855	n/a	TWIG	9	9	[0, 0, 0]	n/a	FR1	0	R1467M
1251.015	19.309	1363173	REC_WORD	19.309	n/a	FENCE	6	9	[0, 0, 0]	n/a	FR1	0	R1467M
1270.324	2.189	1382474	REC_END	n/a	n/a	n/a	-999	9	[0, 0, 0]	n/a	FR1	0	R1467M
1272.513	10.352	1384665	COUNTDOWN_START	n/a	n/a	n/a	-999	10	[0, 0, 0]	n/a	FR1	0	R1467M
1282.865	0.0	1395012	COUNTDOWN_END	n/a	n/a	n/a	-999	10	[0, 0, 0]	n/a	FR1	0	R1467M
1282.865	1.883	1395026	ENCODING_START	n/a	n/a	n/a	-999	10	[0, 0, 0]	n/a	FR1	0	R1467M
1284.748	1.6	1396900	WORD	n/a	wordpools/wordpool_long_EN.txt	FOOD	1	10	[0, 0, 0]	n/a	FR1	0	R1467M
1286.348	0.833	1398498	WORD_OFF	n/a	n/a	FOOD	1	10	[0, 0, 0]	n/a	FR1	0	R1467M
1287.181	1.6	1399338	WORD	n/a	wordpools/wordpool_long_EN.txt	FLAME	2	10	[0, 0, 0]	n/a	FR1	0	R1467M
1288.781	0.85	1400936	WORD_OFF	n/a	n/a	FLAME	2	10	[0, 0, 0]	n/a	FR1	0	R1467M
1289.631	1.617	1401791	WORD	n/a	wordpools/wordpool_long_EN.txt	COIN	3	10	[0, 0, 0]	n/a	FR1	0	R1467M
1291.248	0.849	1403403	WORD_OFF	n/a	n/a	COIN	3	10	[0, 0, 0]	n/a	FR1	0	R1467M
1292.097	1.601	1404243	WORD	n/a	wordpools/wordpool_long_EN.txt	SIGN	4	10	[0, 0, 0]	n/a	FR1	0	R1467M
1293.698	0.866	1405855	WORD_OFF	n/a	n/a	SIGN	4	10	[0, 0, 0]	n/a	FR1	0	R1467M
1294.564	1.6	1406723	WORD	n/a	wordpools/wordpool_long_EN.txt	STRAW	5	10	[0, 0, 0]	n/a	FR1	0	R1467M
1296.164	0.867	1408321	WORD_OFF	n/a	n/a	STRAW	5	10	[0, 0, 0]	n/a	FR1	0	R1467M
1297.031	1.6	1409189	WORD	n/a	wordpools/wordpool_long_EN.txt	WING	6	10	[0, 0, 0]	n/a	FR1	0	R1467M
1298.631	0.783	1410788	WORD_OFF	n/a	n/a	WING	6	10	[0, 0, 0]	n/a	FR1	0	R1467M
1299.414	1.616	1411573	WORD	n/a	wordpools/wordpool_long_EN.txt	CARD	7	10	[0, 0, 0]	n/a	FR1	0	R1467M
1301.03	0.851	1413185	WORD_OFF	n/a	n/a	CARD	7	10	[0, 0, 0]	n/a	FR1	0	R1467M
1301.881	1.6	1414039	WORD	n/a	wordpools/wordpool_long_EN.txt	PEA	8	10	[0, 0, 0]	n/a	FR1	0	R1467M
1303.481	0.867	1415637	WORD_OFF	n/a	n/a	PEA	8	10	[0, 0, 0]	n/a	FR1	0	R1467M
1304.348	1.6	1416505	WORD	n/a	wordpools/wordpool_long_EN.txt	OX	9	10	[0, 0, 0]	n/a	FR1	0	R1467M
1305.948	0.983	1418104	WORD_OFF	n/a	n/a	OX	9	10	[0, 0, 0]	n/a	FR1	0	R1467M
1306.931	1.617	1419082	WORD	n/a	wordpools/wordpool_long_EN.txt	HUT	10	10	[0, 0, 0]	n/a	FR1	0	R1467M
1308.548	0.916	1420694	WORD_OFF	n/a	n/a	HUT	10	10	[0, 0, 0]	n/a	FR1	0	R1467M
1309.464	1.617	1421617	WORD	n/a	wordpools/wordpool_long_EN.txt	STEAM	11	10	[0, 0, 0]	n/a	FR1	0	R1467M
1311.081	0.983	1423229	WORD_OFF	n/a	n/a	STEAM	11	10	[0, 0, 0]	n/a	FR1	0	R1467M
1312.064	1.6	1424221	WORD	n/a	wordpools/wordpool_long_EN.txt	HOUND	12	10	[0, 0, 0]	n/a	FR1	0	R1467M
1313.664	0.001	1425819	WORD_OFF	n/a	n/a	HOUND	12	10	[0, 0, 0]	n/a	FR1	0	R1467M
1313.665	0.001	1425819	ENCODING_END	n/a	n/a	n/a	-999	10	[0, 0, 0]	n/a	FR1	0	R1467M
1313.666	0.0	1425819	DISTRACT_START	n/a	n/a	n/a	-999	10	[0, 0, 0]	n/a	FR1	0	R1467M
1313.665	0.001	1425820	PROB	0.001	n/a	n/a	-999	10	[4, 5, 1]	10	FR1	0	R1467M
1313.666	3.881	1425821	START	n/a	n/a	n/a	-999	10	[-999, -999, -999]	n/a	FR1	0	R1467M
1317.547	4.918	1429702	PROB	4.918	n/a	n/a	-999	10	[2, 8, 3]	13	FR1	0	R1467M
1322.465	5.583	1434620	PROB	5.583	n/a	n/a	-999	10	[6, 8, 3]	17	FR1	0	R1467M
1328.048	3.899	1440203	PROB	3.899	n/a	n/a	-999	10	[2, 4, 4]	10	FR1	0	R1467M
1331.947	3.9	1444102	PROB	3.9	n/a	n/a	-999	10	[4, 8, 1]	13	FR1	0	R1467M
1335.847	0.0	1448001	DISTRACT_END	n/a	n/a	n/a	-999	10	[0, 0, 0]	n/a	FR1	0	R1467M
1335.847	2.117	1448001	STOP	n/a	n/a	n/a	-999	10	[-999, -999, -999]	n/a	FR1	0	R1467M
1337.964	1.353	1450117	REC_START	n/a	n/a	n/a	-999	10	[0, 0, 0]	n/a	FR1	0	R1467M
1339.317	1.825	1451471	REC_WORD	1.825	n/a	HOUND	12	10	[0, 0, 0]	n/a	FR1	0	R1467M
1341.142	1.141	1453296	REC_WORD	1.141	n/a	FOOD	1	10	[0, 0, 0]	n/a	FR1	0	R1467M
1342.283	1.228	1454437	REC_WORD	1.228	n/a	COIN	3	10	[0, 0, 0]	n/a	FR1	0	R1467M
1343.511	1.0	1455665	REC_WORD	1.0	n/a	STRAW	5	10	[0, 0, 0]	n/a	FR1	0	R1467M
1344.511	1.205	1456665	REC_WORD_VV	1.205	n/a	<>	-999	10	[0, 0, 0]	n/a	FR1	0	R1467M
1345.716	2.03	1457870	REC_WORD	2.03	n/a	OX	9	10	[0, 0, 0]	n/a	FR1	0	R1467M
1347.746	20.437	1459900	REC_WORD	20.437	n/a	FLAME	2	10	[0, 0, 0]	n/a	FR1	0	R1467M
1368.183	2.315	1480338	REC_END	n/a	n/a	n/a	-999	10	[0, 0, 0]	n/a	FR1	0	R1467M
1370.498	10.349	1482652	COUNTDOWN_START	n/a	n/a	n/a	-999	11	[0, 0, 0]	n/a	FR1	0	R1467M
1380.847	0.001	1493000	COUNTDOWN_END	n/a	n/a	n/a	-999	11	[0, 0, 0]	n/a	FR1	0	R1467M
1380.848	2.166	1493000	ENCODING_START	n/a	n/a	n/a	-999	11	[0, 0, 0]	n/a	FR1	0	R1467M
1383.014	1.6	1495163	WORD	n/a	wordpools/wordpool_long_EN.txt	PIPE	1	11	[0, 0, 0]	n/a	FR1	0	R1467M
1384.614	0.867	1496761	WORD_OFF	n/a	n/a	PIPE	1	11	[0, 0, 0]	n/a	FR1	0	R1467M
1385.481	1.6	1497629	WORD	n/a	wordpools/wordpool_long_EN.txt	HEART	2	11	[0, 0, 0]	n/a	FR1	0	R1467M
1387.081	0.817	1499227	WORD_OFF	n/a	n/a	HEART	2	11	[0, 0, 0]	n/a	FR1	0	R1467M
1387.898	1.616	1500040	WORD	n/a	wordpools/wordpool_long_EN.txt	FRIEND	3	11	[0, 0, 0]	n/a	FR1	0	R1467M
1389.514	0.899	1501666	WORD_OFF	n/a	n/a	FRIEND	3	11	[0, 0, 0]	n/a	FR1	0	R1467M
1390.413	1.601	1502561	WORD	n/a	wordpools/wordpool_long_EN.txt	LINT	4	11	[0, 0, 0]	n/a	FR1	0	R1467M
1392.014	0.85	1504159	WORD_OFF	n/a	n/a	LINT	4	11	[0, 0, 0]	n/a	FR1	0	R1467M
1392.864	1.6	1505014	WORD	n/a	wordpools/wordpool_long_EN.txt	GIRL	5	11	[0, 0, 0]	n/a	FR1	0	R1467M
1394.464	0.8	1506612	WORD_OFF	n/a	n/a	GIRL	5	11	[0, 0, 0]	n/a	FR1	0	R1467M
1395.264	1.617	1507411	WORD	n/a	wordpools/wordpool_long_EN.txt	HAZE	6	11	[0, 0, 0]	n/a	FR1	0	R1467M
1396.881	0.816	1509023	WORD_OFF	n/a	n/a	HAZE	6	11	[0, 0, 0]	n/a	FR1	0	R1467M
1397.697	1.617	1509850	WORD	n/a	wordpools/wordpool_long_EN.txt	BEAK	7	11	[0, 0, 0]	n/a	FR1	0	R1467M
1399.314	0.784	1511462	WORD_OFF	n/a	n/a	BEAK	7	11	[0, 0, 0]	n/a	FR1	0	R1467M
1400.098	1.616	1512247	WORD	n/a	wordpools/wordpool_long_EN.txt	INN	8	11	[0, 0, 0]	n/a	FR1	0	R1467M
1401.714	0.784	1513859	WORD_OFF	n/a	n/a	INN	8	11	[0, 0, 0]	n/a	FR1	0	R1467M
1402.498	1.6	1514644	WORD	n/a	wordpools/wordpool_long_EN.txt	CART	9	11	[0, 0, 0]	n/a	FR1	0	R1467M
1404.098	0.983	1516243	WORD_OFF	n/a	n/a	CART	9	11	[0, 0, 0]	n/a	FR1	0	R1467M
1405.081	1.616	1517235	WORD	n/a	wordpools/wordpool_long_EN.txt	SKATE	10	11	[0, 0, 0]	n/a	FR1	0	R1467M
1406.697	0.767	1518847	WORD_OFF	n/a	n/a	SKATE	10	11	[0, 0, 0]	n/a	FR1	0	R1467M
1407.464	1.617	1519618	WORD	n/a	wordpools/wordpool_long_EN.txt	GLASS	11	11	[0, 0, 0]	n/a	FR1	0	R1467M
1409.081	1.0	1521230	WORD_OFF	n/a	n/a	GLASS	11	11	[0, 0, 0]	n/a	FR1	0	R1467M
1410.081	1.616	1522222	WORD	n/a	wordpools/wordpool_long_EN.txt	RUG	12	11	[0, 0, 0]	n/a	FR1	0	R1467M
1411.697	0.002	1523848	WORD_OFF	n/a	n/a	RUG	12	11	[0, 0, 0]	n/a	FR1	0	R1467M
1411.699	0.0	1523848	ENCODING_END	n/a	n/a	n/a	-999	11	[0, 0, 0]	n/a	FR1	0	R1467M
1411.699	0.0	1523848	DISTRACT_START	n/a	n/a	n/a	-999	11	[0, 0, 0]	n/a	FR1	0	R1467M
1411.698	0.001	1523849	PROB	0.001	n/a	n/a	-999	11	[3, 1, 6]	10	FR1	0	R1467M
1411.699	4.115	1523850	START	n/a	n/a	n/a	-999	11	[-999, -999, -999]	n/a	FR1	0	R1467M
1415.814	5.301	1527965	PROB	5.301	n/a	n/a	-999	11	[4, 5, 8]	17	FR1	0	R1467M
1421.115	4.265	1533265	PROB	4.265	n/a	n/a	-999	11	[7, 2, 8]	17	FR1	0	R1467M
1425.38	2.817	1537530	PROB	2.817	n/a	n/a	-999	11	[6, 3, 6]	15	FR1	0	R1467M
1428.197	4.316	1540347	PROB	4.316	n/a	n/a	-999	11	[7, 4, 2]	13	FR1	0	R1467M
1432.513	0.0	1544663	STOP	n/a	n/a	n/a	-999	11	[-999, -999, -999]	n/a	FR1	0	R1467M
1432.513	2.384	1544666	DISTRACT_END	n/a	n/a	n/a	-999	11	[0, 0, 0]	n/a	FR1	0	R1467M
1434.897	0.514	1547044	REC_START	n/a	n/a	n/a	-999	11	[0, 0, 0]	n/a	FR1	0	R1467M
1435.411	1.116	1547561	REC_WORD	1.116	n/a	PIPE	1	11	[0, 0, 0]	n/a	FR1	0	R1467M
1436.527	2.24	1548677	REC_WORD	2.24	n/a	HEART	2	11	[0, 0, 0]	n/a	FR1	0	R1467M
1438.767	1.21	1550917	REC_WORD	1.21	n/a	FRIEND	3	11	[0, 0, 0]	n/a	FR1	0	R1467M
1439.977	1.305	1552127	REC_WORD	1.305	n/a	GIRL	5	11	[0, 0, 0]	n/a	FR1	0	R1467M
1441.282	4.081	1553432	REC_WORD	4.081	n/a	HAZE	6	11	[0, 0, 0]	n/a	FR1	0	R1467M
1445.363	1.831	1557512	REC_WORD	1.831	n/a	LINT	4	11	[0, 0, 0]	n/a	FR1	0	R1467M
1447.194	2.731	1559343	REC_WORD	2.731	n/a	GLASS	11	11	[0, 0, 0]	n/a	FR1	0	R1467M
1449.925	0.439	1562074	REC_WORD_VV	0.439	n/a	<>	-999	11	[0, 0, 0]	n/a	FR1	0	R1467M
1450.364	14.737	1562513	REC_WORD	14.737	n/a	RUG	12	11	[0, 0, 0]	n/a	FR1	0	R1467M
1465.101	1.78	1577251	REC_END	n/a	n/a	n/a	-999	11	[0, 0, 0]	n/a	FR1	0	R1467M
1466.881	10.35	1579028	COUNTDOWN_START	n/a	n/a	n/a	-999	12	[0, 0, 0]	n/a	FR1	0	R1467M
1477.231	0.0	1589375	COUNTDOWN_END	n/a	n/a	n/a	-999	12	[0, 0, 0]	n/a	FR1	0	R1467M
1477.231	2.25	1589375	ENCODING_START	n/a	n/a	n/a	-999	12	[0, 0, 0]	n/a	FR1	0	R1467M
1479.481	1.6	1591621	WORD	n/a	wordpools/wordpool_long_EN.txt	CANE	1	12	[0, 0, 0]	n/a	FR1	0	R1467M
1481.081	0.85	1593219	WORD_OFF	n/a	n/a	CANE	1	12	[0, 0, 0]	n/a	FR1	0	R1467M
1481.931	1.601	1594073	WORD	n/a	wordpools/wordpool_long_EN.txt	FLASK	2	12	[0, 0, 0]	n/a	FR1	0	R1467M
1483.532	0.849	1595671	WORD_OFF	n/a	n/a	FLASK	2	12	[0, 0, 0]	n/a	FR1	0	R1467M
1484.381	1.617	1596526	WORD	n/a	wordpools/wordpool_long_EN.txt	SEED	3	12	[0, 0, 0]	n/a	FR1	0	R1467M
1485.998	0.933	1598138	WORD_OFF	n/a	n/a	SEED	3	12	[0, 0, 0]	n/a	FR1	0	R1467M
1486.931	1.617	1599075	WORD	n/a	wordpools/wordpool_long_EN.txt	LOFT	4	12	[0, 0, 0]	n/a	FR1	0	R1467M
1488.548	0.833	1600687	WORD_OFF	n/a	n/a	LOFT	4	12	[0, 0, 0]	n/a	FR1	0	R1467M
1489.381	1.615	1601527	WORD	n/a	wordpools/wordpool_long_EN.txt	BUG	5	12	[0, 0, 0]	n/a	FR1	0	R1467M
1490.996	0.967	1603139	WORD_OFF	n/a	n/a	BUG	5	12	[0, 0, 0]	n/a	FR1	0	R1467M
1491.963	1.6	1604103	WORD	n/a	wordpools/wordpool_long_EN.txt	MUG	6	12	[0, 0, 0]	n/a	FR1	0	R1467M
1493.563	0.85	1605702	WORD_OFF	n/a	n/a	MUG	6	12	[0, 0, 0]	n/a	FR1	0	R1467M
1494.413	1.6	1606556	WORD	n/a	wordpools/wordpool_long_EN.txt	LODGE	7	12	[0, 0, 0]	n/a	FR1	0	R1467M
1496.013	0.768	1608154	WORD_OFF	n/a	n/a	LODGE	7	12	[0, 0, 0]	n/a	FR1	0	R1467M
1496.781	1.616	1608926	WORD	n/a	wordpools/wordpool_long_EN.txt	SUN	8	12	[0, 0, 0]	n/a	FR1	0	R1467M
1498.397	0.8	1610538	WORD_OFF	n/a	n/a	SUN	8	12	[0, 0, 0]	n/a	FR1	0	R1467M
1499.197	1.6	1611337	WORD	n/a	wordpools/wordpool_long_EN.txt	MAP	9	12	[0, 0, 0]	n/a	FR1	0	R1467M
1500.797	1.0	1612935	WORD_OFF	n/a	n/a	MAP	9	12	[0, 0, 0]	n/a	FR1	0	R1467M
1501.797	1.6	1613941	WORD	n/a	wordpools/wordpool_long_EN.txt	SWORD	10	12	[0, 0, 0]	n/a	FR1	0	R1467M
1503.397	0.833	1615539	WORD_OFF	n/a	n/a	SWORD	10	12	[0, 0, 0]	n/a	FR1	0	R1467M
1504.23	1.617	1616379	WORD	n/a	wordpools/wordpool_long_EN.txt	MASK	11	12	[0, 0, 0]	n/a	FR1	0	R1467M
1505.847	0.816	1617991	WORD_OFF	n/a	n/a	MASK	11	12	[0, 0, 0]	n/a	FR1	0	R1467M
1506.663	1.601	1618804	WORD	n/a	wordpools/wordpool_long_EN.txt	CORD	12	12	[0, 0, 0]	n/a	FR1	0	R1467M
1508.264	0.001	1620410	PROB	0.001	n/a	n/a	-999	12	[5, 6, 1]	12	FR1	0	R1467M
1508.265	0.0	1620411	START	n/a	n/a	n/a	-999	12	[-999, -999, -999]	n/a	FR1	0	R1467M
1508.263	0.002	1620416	WORD_OFF	n/a	n/a	CORD	12	12	[0, 0, 0]	n/a	FR1	0	R1467M
1508.265	0.0	1620416	ENCODING_END	n/a	n/a	n/a	-999	12	[0, 0, 0]	n/a	FR1	0	R1467M
1508.265	4.233	1620416	DISTRACT_START	n/a	n/a	n/a	-999	12	[0, 0, 0]	n/a	FR1	0	R1467M
1512.498	4.666	1624644	PROB	4.666	n/a	n/a	-999	12	[7, 2, 1]	10	FR1	0	R1467M
1517.164	6.3	1629310	PROB	6.3	n/a	n/a	-999	12	[8, 3, 3]	14	FR1	0	R1467M
1523.464	4.219	1635610	PROB	4.219	n/a	n/a	-999	12	[7, 2, 7]	16	FR1	0	R1467M
1527.683	5.865	1639829	PROB	5.865	n/a	n/a	-999	12	[4, 5, 6]	15	FR1	0	R1467M
1533.548	0.0	1645685	DISTRACT_END	n/a	n/a	n/a	-999	12	[0, 0, 0]	n/a	FR1	0	R1467M
1533.548	2.215	1645693	STOP	n/a	n/a	n/a	-999	12	[-999, -999, -999]	n/a	FR1	0	R1467M
1535.763	0.179	1647911	REC_START	n/a	n/a	n/a	-999	12	[0, 0, 0]	n/a	FR1	0	R1467M
1535.942	1.185	1648087	REC_WORD	1.185	n/a	SWORD	10	12	[0, 0, 0]	n/a	FR1	0	R1467M
1537.127	1.212	1649272	REC_WORD	1.212	n/a	MASK	11	12	[0, 0, 0]	n/a	FR1	0	R1467M
1538.339	1.144	1650484	REC_WORD	1.144	n/a	CORD	12	12	[0, 0, 0]	n/a	FR1	0	R1467M
1539.483	1.668	1651628	REC_WORD	1.668	n/a	FOG	-999	12	[0, 0, 0]	n/a	FR1	0	R1467M
1541.151	24.82	1653296	REC_WORD	24.82	n/a	MUG	6	12	[0, 0, 0]	n/a	FR1	0	R1467M
1565.971	0.0	1678118	REC_END	n/a	n/a	n/a	-999	12	[0, 0, 0]	n/a	FR1	0	R1467M
