onset	duration	sample	trial_type	response_time	stim_file	item_name	serialpos	list	test	answer	experiment	session	subject
0.0	0.0	8185	INSTRUCT_START	n/a	n/a	n/a	-999	-999	[0, 0, 0]	n/a	FR1	0	R1145J
0.0	10.807	8185	INSTRUCT_END	n/a	n/a	n/a	-999	-999	[0, 0, 0]	n/a	FR1	0	R1145J
10.807	0.0	18992	SESS_START	n/a	n/a	n/a	-999	-999	[0, 0, 0]	n/a	FR1	0	R1145J
10.807	211.776	18992	MIC_TEST	n/a	n/a	n/a	-999	-999	[0, 0, 0]	n/a	FR1	0	R1145J
222.583	6.348	230765	PRACTICE_TRIAL	n/a	n/a	n/a	-999	-1	[0, 0, 0]	n/a	FR1	0	R1145J
228.931	10.428	237112	COUNTDOWN_START	n/a	n/a	n/a	-999	-1	[0, 0, 0]	n/a	FR1	0	R1145J
239.359	0.006	247540	COUNTDOWN_END	n/a	n/a	n/a	-999	-1	[0, 0, 0]	n/a	FR1	0	R1145J
239.365	1.618	247546	PRACTICE_ORIENT	n/a	n/a	n/a	-999	-1	[0, 0, 0]	n/a	FR1	0	R1145J
240.983	1.984	249164	PRACTICE_ORIENT_OFF	n/a	n/a	n/a	-999	-1	[0, 0, 0]	n/a	FR1	0	R1145J
242.967	1.616	251148	PRACTICE_WORD	n/a	n/a	WAGON	1	-1	[0, 0, 0]	n/a	FR1	0	R1145J
244.583	0.767	252764	PRACTICE_WORD_OFF	n/a	n/a	WAGON	-999	-1	[0, 0, 0]	n/a	FR1	0	R1145J
245.35	1.618	253531	PRACTICE_WORD	n/a	n/a	CHEST	2	-1	[0, 0, 0]	n/a	FR1	0	R1145J
246.968	0.883	255149	PRACTICE_WORD_OFF	n/a	n/a	CHEST	-999	-1	[0, 0, 0]	n/a	FR1	0	R1145J
247.851	1.616	256032	PRACTICE_WORD	n/a	n/a	CAMEL	3	-1	[0, 0, 0]	n/a	FR1	0	R1145J
249.467	0.817	257648	PRACTICE_WORD_OFF	n/a	n/a	CAMEL	-999	-1	[0, 0, 0]	n/a	FR1	0	R1145J
250.284	1.618	258465	PRACTICE_WORD	n/a	n/a	WATCH	4	-1	[0, 0, 0]	n/a	FR1	0	R1145J
251.902	0.783	260083	PRACTICE_WORD_OFF	n/a	n/a	WATCH	-999	-1	[0, 0, 0]	n/a	FR1	0	R1145J
252.685	1.616	260866	PRACTICE_WORD	n/a	n/a	TONGUE	5	-1	[0, 0, 0]	n/a	FR1	0	R1145J
254.301	1.0	262482	PRACTICE_WORD_OFF	n/a	n/a	TONGUE	-999	-1	[0, 0, 0]	n/a	FR1	0	R1145J
255.301	1.601	263482	PRACTICE_WORD	n/a	n/a	RHINO	6	-1	[0, 0, 0]	n/a	FR1	0	R1145J
256.902	0.867	265083	PRACTICE_WORD_OFF	n/a	n/a	RHINO	-999	-1	[0, 0, 0]	n/a	FR1	0	R1145J
257.769	1.616	265950	PRACTICE_WORD	n/a	n/a	ATTIC	7	-1	[0, 0, 0]	n/a	FR1	0	R1145J
259.385	0.8	267566	PRACTICE_WORD_OFF	n/a	n/a	ATTIC	-999	-1	[0, 0, 0]	n/a	FR1	0	R1145J
260.185	1.618	268366	PRACTICE_WORD	n/a	n/a	COTTON	8	-1	[0, 0, 0]	n/a	FR1	0	R1145J
261.803	0.867	269984	PRACTICE_WORD_OFF	n/a	n/a	COTTON	-999	-1	[0, 0, 0]	n/a	FR1	0	R1145J
262.67	1.616	270851	PRACTICE_WORD	n/a	n/a	IRON	9	-1	[0, 0, 0]	n/a	FR1	0	R1145J
264.286	0.883	272467	PRACTICE_WORD_OFF	n/a	n/a	IRON	-999	-1	[0, 0, 0]	n/a	FR1	0	R1145J
265.169	1.618	273350	PRACTICE_WORD	n/a	n/a	RING	10	-1	[0, 0, 0]	n/a	FR1	0	R1145J
266.787	0.967	274968	PRACTICE_WORD_OFF	n/a	n/a	RING	-999	-1	[0, 0, 0]	n/a	FR1	0	R1145J
267.754	1.615	275935	PRACTICE_WORD	n/a	n/a	BEAM	11	-1	[0, 0, 0]	n/a	FR1	0	R1145J
269.369	0.984	277550	PRACTICE_WORD_OFF	n/a	n/a	BEAM	-999	-1	[0, 0, 0]	n/a	FR1	0	R1145J
270.353	1.601	278534	PRACTICE_WORD	n/a	n/a	FLOOD	12	-1	[0, 0, 0]	n/a	FR1	0	R1145J
271.954	0.0	280135	DISTRACT_START	n/a	n/a	n/a	-999	-1	[0, 0, 0]	n/a	FR1	0	R1145J
271.954	0.001	280135	PRACTICE_WORD_OFF	n/a	n/a	FLOOD	-999	-1	[0, 0, 0]	n/a	FR1	0	R1145J
271.955	0.016	280136	START	n/a	n/a	n/a	-999	-1	[-999, -999, -999]	n/a	FR1	0	R1145J
271.971	11.434	280152	PROB	11.434	n/a	n/a	-999	-1	[2, 5, 8]	15	FR1	0	R1145J
283.405	24.633	291586	PROB	24.633	n/a	n/a	-999	-1	[4, 8, 4]	16	FR1	0	R1145J
308.038	0.02	316218	STOP	n/a	n/a	n/a	-999	-1	[-999, -999, -999]	n/a	FR1	0	R1145J
308.058	0.535	316238	DISTRACT_END	n/a	n/a	n/a	-999	-1	[0, 0, 0]	n/a	FR1	0	R1145J
308.593	0.52	316773	RETRIEVAL_ORIENT	n/a	n/a	n/a	-999	-1	[0, 0, 0]	n/a	FR1	0	R1145J
309.113	30.006	317293	PRACTICE_REC_START	n/a	n/a	n/a	-999	-1	[0, 0, 0]	n/a	FR1	0	R1145J
339.119	17.597	347299	PRACTICE_REC_END	n/a	n/a	n/a	-999	-1	[0, 0, 0]	n/a	FR1	0	R1145J
356.716	0.5	364896	TRIAL	n/a	n/a	n/a	-999	1	[0, 0, 0]	n/a	FR1	0	R1145J
357.216	10.428	365396	COUNTDOWN_START	n/a	n/a	n/a	-999	1	[0, 0, 0]	n/a	FR1	0	R1145J
367.644	0.007	375823	COUNTDOWN_END	n/a	n/a	n/a	-999	1	[0, 0, 0]	n/a	FR1	0	R1145J
367.651	1.615	375830	ORIENT	n/a	n/a	n/a	-999	1	[0, 0, 0]	n/a	FR1	0	R1145J
369.266	1.817	377445	ORIENT_OFF	n/a	n/a	n/a	-999	1	[0, 0, 0]	n/a	FR1	0	R1145J
371.083	1.618	379262	WORD	n/a	wordpools/wordpool_EN.txt	CORD	1	1	[0, 0, 0]	n/a	FR1	0	R1145J
372.701	0.967	380880	WORD_OFF	n/a	n/a	CORD	1	1	[0, 0, 0]	n/a	FR1	0	R1145J
373.668	1.616	381847	WORD	n/a	wordpools/wordpool_EN.txt	HEART	2	1	[0, 0, 0]	n/a	FR1	0	R1145J
375.284	0.817	383463	WORD_OFF	n/a	n/a	HEART	2	1	[0, 0, 0]	n/a	FR1	0	R1145J
376.101	1.618	384280	WORD	n/a	wordpools/wordpool_EN.txt	STAR	3	1	[0, 0, 0]	n/a	FR1	0	R1145J
377.719	0.933	385898	WORD_OFF	n/a	n/a	STAR	3	1	[0, 0, 0]	n/a	FR1	0	R1145J
378.652	1.616	386831	WORD	n/a	wordpools/wordpool_EN.txt	SNAIL	4	1	[0, 0, 0]	n/a	FR1	0	R1145J
380.268	1.017	388447	WORD_OFF	n/a	n/a	SNAIL	4	1	[0, 0, 0]	n/a	FR1	0	R1145J
381.285	1.618	389464	WORD	n/a	wordpools/wordpool_EN.txt	HOOF	5	1	[0, 0, 0]	n/a	FR1	0	R1145J
382.903	0.867	391082	WORD_OFF	n/a	n/a	HOOF	5	1	[0, 0, 0]	n/a	FR1	0	R1145J
383.77	1.615	391949	WORD	n/a	wordpools/wordpool_EN.txt	TOAD	6	1	[0, 0, 0]	n/a	FR1	0	R1145J
385.385	0.951	393564	WORD_OFF	n/a	n/a	TOAD	6	1	[0, 0, 0]	n/a	FR1	0	R1145J
386.336	1.618	394515	WORD	n/a	wordpools/wordpool_EN.txt	JUICE	7	1	[0, 0, 0]	n/a	FR1	0	R1145J
387.954	0.95	396133	WORD_OFF	n/a	n/a	JUICE	7	1	[0, 0, 0]	n/a	FR1	0	R1145J
388.904	1.615	397083	WORD	n/a	wordpools/wordpool_EN.txt	MOON	8	1	[0, 0, 0]	n/a	FR1	0	R1145J
390.519	1.0	398698	WORD_OFF	n/a	n/a	MOON	8	1	[0, 0, 0]	n/a	FR1	0	R1145J
391.519	1.617	399698	WORD	n/a	wordpools/wordpool_EN.txt	EGG	9	1	[0, 0, 0]	n/a	FR1	0	R1145J
393.136	1.001	401315	WORD_OFF	n/a	n/a	EGG	9	1	[0, 0, 0]	n/a	FR1	0	R1145J
394.137	1.618	402316	WORD	n/a	wordpools/wordpool_EN.txt	BEE	10	1	[0, 0, 0]	n/a	FR1	0	R1145J
395.755	0.916	403934	WORD_OFF	n/a	n/a	BEE	10	1	[0, 0, 0]	n/a	FR1	0	R1145J
396.671	1.616	404850	WORD	n/a	wordpools/wordpool_EN.txt	POLE	11	1	[0, 0, 0]	n/a	FR1	0	R1145J
398.287	0.967	406466	WORD_OFF	n/a	n/a	POLE	11	1	[0, 0, 0]	n/a	FR1	0	R1145J
399.254	1.618	407433	WORD	n/a	wordpools/wordpool_EN.txt	CLOCK	12	1	[0, 0, 0]	n/a	FR1	0	R1145J
400.872	0.0	409051	DISTRACT_START	n/a	n/a	n/a	-999	1	[0, 0, 0]	n/a	FR1	0	R1145J
400.872	0.0	409051	WORD_OFF	n/a	n/a	CLOCK	12	1	[0, 0, 0]	n/a	FR1	0	R1145J
400.872	0.016	409051	START	n/a	n/a	n/a	-999	1	[-999, -999, -999]	n/a	FR1	0	R1145J
400.888	5.751	409067	PROB	5.751	n/a	n/a	-999	1	[2, 2, 2]	6	FR1	0	R1145J
406.639	7.433	414818	PROB	7.433	n/a	n/a	-999	1	[6, 3, 1]	10	FR1	0	R1145J
414.072	5.669	422251	PROB	5.669	n/a	n/a	-999	1	[7, 3, 3]	13	FR1	0	R1145J
419.741	9.268	427920	PROB	9.268	n/a	n/a	-999	1	[4, 5, 9]	18	FR1	0	R1145J
429.009	0.017	437188	STOP	n/a	n/a	n/a	-999	1	[-999, -999, -999]	n/a	FR1	0	R1145J
429.026	0.515	437205	DISTRACT_END	n/a	n/a	n/a	-999	1	[0, 0, 0]	n/a	FR1	0	R1145J
429.541	0.518	437720	RETRIEVAL_ORIENT	n/a	n/a	n/a	-999	1	[0, 0, 0]	n/a	FR1	0	R1145J
430.059	5.645	438238	REC_START	n/a	n/a	n/a	-999	1	[0, 0, 0]	n/a	FR1	0	R1145J
435.704	4.157	443882	REC_WORD	4.157	n/a	TOAD	6	1	[0, 0, 0]	n/a	FR1	0	R1145J
439.861	2.211	448039	REC_WORD	2.211	n/a	CAMEL	-999	1	[0, 0, 0]	n/a	FR1	0	R1145J
442.072	12.843	450250	REC_WORD	12.843	n/a	ROAD	-999	1	[0, 0, 0]	n/a	FR1	0	R1145J
454.915	5.155	463093	REC_WORD_VV	5.155	n/a	<>	-999	1	[0, 0, 0]	n/a	FR1	0	R1145J
460.07	9.127	468248	REC_END	n/a	n/a	n/a	-999	1	[0, 0, 0]	n/a	FR1	0	R1145J
469.197	0.5	477375	TRIAL	n/a	n/a	n/a	-999	2	[0, 0, 0]	n/a	FR1	0	R1145J
469.697	10.428	477875	COUNTDOWN_START	n/a	n/a	n/a	-999	2	[0, 0, 0]	n/a	FR1	0	R1145J
480.125	0.006	488303	COUNTDOWN_END	n/a	n/a	n/a	-999	2	[0, 0, 0]	n/a	FR1	0	R1145J
480.131	1.601	488309	ORIENT	n/a	n/a	n/a	-999	2	[0, 0, 0]	n/a	FR1	0	R1145J
481.732	1.951	489910	ORIENT_OFF	n/a	n/a	n/a	-999	2	[0, 0, 0]	n/a	FR1	0	R1145J
483.683	1.616	491861	WORD	n/a	wordpools/wordpool_EN.txt	MULE	1	2	[0, 0, 0]	n/a	FR1	0	R1145J
485.299	1.017	493477	WORD_OFF	n/a	n/a	MULE	1	2	[0, 0, 0]	n/a	FR1	0	R1145J
486.316	1.617	494494	WORD	n/a	wordpools/wordpool_EN.txt	LAWN	2	2	[0, 0, 0]	n/a	FR1	0	R1145J
487.933	0.784	496111	WORD_OFF	n/a	n/a	LAWN	2	2	[0, 0, 0]	n/a	FR1	0	R1145J
488.717	1.616	496895	WORD	n/a	wordpools/wordpool_EN.txt	SHIP	3	2	[0, 0, 0]	n/a	FR1	0	R1145J
490.333	0.95	498511	WORD_OFF	n/a	n/a	SHIP	3	2	[0, 0, 0]	n/a	FR1	0	R1145J
491.283	1.618	499461	WORD	n/a	wordpools/wordpool_EN.txt	HOUSE	4	2	[0, 0, 0]	n/a	FR1	0	R1145J
492.901	0.8	501079	WORD_OFF	n/a	n/a	HOUSE	4	2	[0, 0, 0]	n/a	FR1	0	R1145J
493.701	1.616	501879	WORD	n/a	wordpools/wordpool_EN.txt	CAPE	5	2	[0, 0, 0]	n/a	FR1	0	R1145J
495.317	0.834	503495	WORD_OFF	n/a	n/a	CAPE	5	2	[0, 0, 0]	n/a	FR1	0	R1145J
496.151	1.618	504329	WORD	n/a	wordpools/wordpool_EN.txt	CLIFF	6	2	[0, 0, 0]	n/a	FR1	0	R1145J
497.769	0.966	505947	WORD_OFF	n/a	n/a	CLIFF	6	2	[0, 0, 0]	n/a	FR1	0	R1145J
498.735	1.616	506913	WORD	n/a	wordpools/wordpool_EN.txt	SHARK	7	2	[0, 0, 0]	n/a	FR1	0	R1145J
500.351	0.983	508529	WORD_OFF	n/a	n/a	SHARK	7	2	[0, 0, 0]	n/a	FR1	0	R1145J
501.334	1.618	509511	WORD	n/a	wordpools/wordpool_EN.txt	STORM	8	2	[0, 0, 0]	n/a	FR1	0	R1145J
502.952	0.85	511129	WORD_OFF	n/a	n/a	STORM	8	2	[0, 0, 0]	n/a	FR1	0	R1145J
503.802	1.616	511979	WORD	n/a	wordpools/wordpool_EN.txt	RAKE	9	2	[0, 0, 0]	n/a	FR1	0	R1145J
505.418	0.884	513595	WORD_OFF	n/a	n/a	RAKE	9	2	[0, 0, 0]	n/a	FR1	0	R1145J
506.302	1.618	514479	WORD	n/a	wordpools/wordpool_EN.txt	CRANE	10	2	[0, 0, 0]	n/a	FR1	0	R1145J
507.92	0.85	516097	WORD_OFF	n/a	n/a	CRANE	10	2	[0, 0, 0]	n/a	FR1	0	R1145J
508.77	1.615	516947	WORD	n/a	wordpools/wordpool_EN.txt	GRASS	11	2	[0, 0, 0]	n/a	FR1	0	R1145J
510.385	0.801	518562	WORD_OFF	n/a	n/a	GRASS	11	2	[0, 0, 0]	n/a	FR1	0	R1145J
511.186	1.618	519363	WORD	n/a	wordpools/wordpool_EN.txt	DITCH	12	2	[0, 0, 0]	n/a	FR1	0	R1145J
512.804	0.0	520981	WORD_OFF	n/a	n/a	DITCH	12	2	[0, 0, 0]	n/a	FR1	0	R1145J
512.804	0.0	520981	DISTRACT_START	n/a	n/a	n/a	-999	2	[0, 0, 0]	n/a	FR1	0	R1145J
512.804	0.016	520981	START	n/a	n/a	n/a	-999	2	[-999, -999, -999]	n/a	FR1	0	R1145J
512.82	14.035	520997	PROB	14.035	n/a	n/a	-999	2	[9, 7, 9]	25	FR1	0	R1145J
526.855	6.567	535032	PROB	6.567	n/a	n/a	-999	2	[7, 6, 8]	21	FR1	0	R1145J
533.422	0.017	541599	STOP	n/a	n/a	n/a	-999	2	[-999, -999, -999]	n/a	FR1	0	R1145J
533.439	0.683	541616	DISTRACT_END	n/a	n/a	n/a	-999	2	[0, 0, 0]	n/a	FR1	0	R1145J
534.122	0.519	542299	RETRIEVAL_ORIENT	n/a	n/a	n/a	-999	2	[0, 0, 0]	n/a	FR1	0	R1145J
534.641	3.931	542818	REC_START	n/a	n/a	n/a	-999	2	[0, 0, 0]	n/a	FR1	0	R1145J
538.572	7.65	546749	REC_WORD_VV	7.65	n/a	<>	-999	2	[0, 0, 0]	n/a	FR1	0	R1145J
546.222	1.0	554399	REC_WORD_VV	1.0	n/a	<>	-999	2	[0, 0, 0]	n/a	FR1	0	R1145J
547.222	6.79	555399	REC_WORD_VV	6.79	n/a	<>	-999	2	[0, 0, 0]	n/a	FR1	0	R1145J
554.012	1.0	562189	REC_WORD_VV	1.0	n/a	<>	-999	2	[0, 0, 0]	n/a	FR1	0	R1145J
555.012	1.649	563189	REC_WORD_VV	1.649	n/a	<>	-999	2	[0, 0, 0]	n/a	FR1	0	R1145J
556.661	5.021	564838	REC_WORD	5.021	n/a	MULE	1	2	[0, 0, 0]	n/a	FR1	0	R1145J
561.682	2.969	569859	REC_WORD	2.969	n/a	CRANE	10	2	[0, 0, 0]	n/a	FR1	0	R1145J
564.651	5.994	572828	REC_END	n/a	n/a	n/a	-999	2	[0, 0, 0]	n/a	FR1	0	R1145J
570.645	0.5	578821	TRIAL	n/a	n/a	n/a	-999	3	[0, 0, 0]	n/a	FR1	0	R1145J
571.145	10.428	579321	COUNTDOWN_START	n/a	n/a	n/a	-999	3	[0, 0, 0]	n/a	FR1	0	R1145J
581.573	0.005	589749	COUNTDOWN_END	n/a	n/a	n/a	-999	3	[0, 0, 0]	n/a	FR1	0	R1145J
581.578	1.617	589754	ORIENT	n/a	n/a	n/a	-999	3	[0, 0, 0]	n/a	FR1	0	R1145J
583.195	1.917	591371	ORIENT_OFF	n/a	n/a	n/a	-999	3	[0, 0, 0]	n/a	FR1	0	R1145J
585.112	1.618	593288	WORD	n/a	wordpools/wordpool_EN.txt	BROOM	1	3	[0, 0, 0]	n/a	FR1	0	R1145J
586.73	0.849	594906	WORD_OFF	n/a	n/a	BROOM	1	3	[0, 0, 0]	n/a	FR1	0	R1145J
587.579	1.617	595755	WORD	n/a	wordpools/wordpool_EN.txt	GUARD	2	3	[0, 0, 0]	n/a	FR1	0	R1145J
589.196	0.867	597372	WORD_OFF	n/a	n/a	GUARD	2	3	[0, 0, 0]	n/a	FR1	0	R1145J
590.063	1.618	598239	WORD	n/a	wordpools/wordpool_EN.txt	CHAIR	3	3	[0, 0, 0]	n/a	FR1	0	R1145J
591.681	0.882	599857	WORD_OFF	n/a	n/a	CHAIR	3	3	[0, 0, 0]	n/a	FR1	0	R1145J
592.563	1.617	600739	WORD	n/a	wordpools/wordpool_EN.txt	HOLE	4	3	[0, 0, 0]	n/a	FR1	0	R1145J
594.18	1.017	602356	WORD_OFF	n/a	n/a	HOLE	4	3	[0, 0, 0]	n/a	FR1	0	R1145J
595.197	1.618	603373	WORD	n/a	wordpools/wordpool_EN.txt	STICK	5	3	[0, 0, 0]	n/a	FR1	0	R1145J
596.815	0.765	604991	WORD_OFF	n/a	n/a	STICK	5	3	[0, 0, 0]	n/a	FR1	0	R1145J
597.58	1.617	605756	WORD	n/a	wordpools/wordpool_EN.txt	BED	6	3	[0, 0, 0]	n/a	FR1	0	R1145J
599.197	0.967	607373	WORD_OFF	n/a	n/a	BED	6	3	[0, 0, 0]	n/a	FR1	0	R1145J
600.164	1.618	608340	WORD	n/a	wordpools/wordpool_EN.txt	BLUSH	7	3	[0, 0, 0]	n/a	FR1	0	R1145J
601.782	0.933	609958	WORD_OFF	n/a	n/a	BLUSH	7	3	[0, 0, 0]	n/a	FR1	0	R1145J
602.715	1.616	610891	WORD	n/a	wordpools/wordpool_EN.txt	HAND	8	3	[0, 0, 0]	n/a	FR1	0	R1145J
604.331	0.817	612507	WORD_OFF	n/a	n/a	HAND	8	3	[0, 0, 0]	n/a	FR1	0	R1145J
605.148	1.601	613324	WORD	n/a	wordpools/wordpool_EN.txt	TRUCK	9	3	[0, 0, 0]	n/a	FR1	0	R1145J
606.749	0.783	614925	WORD_OFF	n/a	n/a	TRUCK	9	3	[0, 0, 0]	n/a	FR1	0	R1145J
607.532	1.617	615708	WORD	n/a	wordpools/wordpool_EN.txt	TENT	10	3	[0, 0, 0]	n/a	FR1	0	R1145J
609.149	1.0	617325	WORD_OFF	n/a	n/a	TENT	10	3	[0, 0, 0]	n/a	FR1	0	R1145J
610.149	1.618	618325	WORD	n/a	wordpools/wordpool_EN.txt	SHOE	11	3	[0, 0, 0]	n/a	FR1	0	R1145J
611.767	0.95	619943	WORD_OFF	n/a	n/a	SHOE	11	3	[0, 0, 0]	n/a	FR1	0	R1145J
612.717	1.616	620893	WORD	n/a	wordpools/wordpool_EN.txt	HILL	12	3	[0, 0, 0]	n/a	FR1	0	R1145J
614.333	0.0	622509	WORD_OFF	n/a	n/a	HILL	12	3	[0, 0, 0]	n/a	FR1	0	R1145J
614.333	0.001	622509	DISTRACT_START	n/a	n/a	n/a	-999	3	[0, 0, 0]	n/a	FR1	0	R1145J
614.334	0.016	622510	START	n/a	n/a	n/a	-999	3	[-999, -999, -999]	n/a	FR1	0	R1145J
614.35	6.318	622526	PROB	6.318	n/a	n/a	-999	3	[7, 5, 3]	15	FR1	0	R1145J
620.668	5.984	628844	PROB	5.984	n/a	n/a	-999	3	[8, 4, 1]	13	FR1	0	R1145J
626.652	7.168	634828	PROB	7.168	n/a	n/a	-999	3	[2, 4, 3]	9	FR1	0	R1145J
633.82	5.166	641996	PROB	5.166	n/a	n/a	-999	3	[1, 3, 2]	8	FR1	0	R1145J
638.986	0.018	647161	STOP	n/a	n/a	n/a	-999	3	[-999, -999, -999]	n/a	FR1	0	R1145J
639.004	0.683	647179	DISTRACT_END	n/a	n/a	n/a	-999	3	[0, 0, 0]	n/a	FR1	0	R1145J
639.687	0.517	647862	RETRIEVAL_ORIENT	n/a	n/a	n/a	-999	3	[0, 0, 0]	n/a	FR1	0	R1145J
640.204	4.134	648379	REC_START	n/a	n/a	n/a	-999	3	[0, 0, 0]	n/a	FR1	0	R1145J
644.338	1.203	652513	REC_WORD	1.203	n/a	BED	6	3	[0, 0, 0]	n/a	FR1	0	R1145J
645.541	2.825	653716	REC_WORD	2.825	n/a	HAND	8	3	[0, 0, 0]	n/a	FR1	0	R1145J
648.366	4.478	656541	REC_WORD	4.478	n/a	BROOM	1	3	[0, 0, 0]	n/a	FR1	0	R1145J
652.844	3.166	661019	REC_WORD	3.166	n/a	STICK	5	3	[0, 0, 0]	n/a	FR1	0	R1145J
656.01	14.205	664185	REC_WORD	14.205	n/a	GUARD	2	3	[0, 0, 0]	n/a	FR1	0	R1145J
670.215	5.694	678390	REC_END	n/a	n/a	n/a	-999	3	[0, 0, 0]	n/a	FR1	0	R1145J
675.909	0.5	684084	TRIAL	n/a	n/a	n/a	-999	4	[0, 0, 0]	n/a	FR1	0	R1145J
676.409	10.428	684584	COUNTDOWN_START	n/a	n/a	n/a	-999	4	[0, 0, 0]	n/a	FR1	0	R1145J
686.837	0.007	695012	COUNTDOWN_END	n/a	n/a	n/a	-999	4	[0, 0, 0]	n/a	FR1	0	R1145J
686.844	1.616	695019	ORIENT	n/a	n/a	n/a	-999	4	[0, 0, 0]	n/a	FR1	0	R1145J
688.46	2.05	696635	ORIENT_OFF	n/a	n/a	n/a	-999	4	[0, 0, 0]	n/a	FR1	0	R1145J
690.51	1.617	698685	WORD	n/a	wordpools/wordpool_EN.txt	STONE	1	4	[0, 0, 0]	n/a	FR1	0	R1145J
692.127	0.768	700302	WORD_OFF	n/a	n/a	STONE	1	4	[0, 0, 0]	n/a	FR1	0	R1145J
692.895	1.615	701070	WORD	n/a	wordpools/wordpool_EN.txt	SALT	2	4	[0, 0, 0]	n/a	FR1	0	R1145J
694.51	0.817	702685	WORD_OFF	n/a	n/a	SALT	2	4	[0, 0, 0]	n/a	FR1	0	R1145J
695.327	1.601	703502	WORD	n/a	wordpools/wordpool_EN.txt	STRAW	3	4	[0, 0, 0]	n/a	FR1	0	R1145J
696.928	0.801	705103	WORD_OFF	n/a	n/a	STRAW	3	4	[0, 0, 0]	n/a	FR1	0	R1145J
697.729	1.615	705904	WORD	n/a	wordpools/wordpool_EN.txt	MOOSE	4	4	[0, 0, 0]	n/a	FR1	0	R1145J
699.344	0.934	707519	WORD_OFF	n/a	n/a	MOOSE	4	4	[0, 0, 0]	n/a	FR1	0	R1145J
700.278	1.618	708453	WORD	n/a	wordpools/wordpool_EN.txt	SOUP	5	4	[0, 0, 0]	n/a	FR1	0	R1145J
701.896	0.883	710071	WORD_OFF	n/a	n/a	SOUP	5	4	[0, 0, 0]	n/a	FR1	0	R1145J
702.779	1.616	710954	WORD	n/a	wordpools/wordpool_EN.txt	CAKE	6	4	[0, 0, 0]	n/a	FR1	0	R1145J
704.395	0.767	712570	WORD_OFF	n/a	n/a	CAKE	6	4	[0, 0, 0]	n/a	FR1	0	R1145J
705.162	1.601	713337	WORD	n/a	wordpools/wordpool_EN.txt	SOAP	7	4	[0, 0, 0]	n/a	FR1	0	R1145J
706.763	0.867	714938	WORD_OFF	n/a	n/a	SOAP	7	4	[0, 0, 0]	n/a	FR1	0	R1145J
707.63	1.616	715804	WORD	n/a	wordpools/wordpool_EN.txt	CLAY	8	4	[0, 0, 0]	n/a	FR1	0	R1145J
709.246	0.767	717420	WORD_OFF	n/a	n/a	CLAY	8	4	[0, 0, 0]	n/a	FR1	0	R1145J
710.013	1.617	718187	WORD	n/a	wordpools/wordpool_EN.txt	PEACH	9	4	[0, 0, 0]	n/a	FR1	0	R1145J
711.63	0.949	719804	WORD_OFF	n/a	n/a	PEACH	9	4	[0, 0, 0]	n/a	FR1	0	R1145J
712.579	1.617	720753	WORD	n/a	wordpools/wordpool_EN.txt	CHIN	10	4	[0, 0, 0]	n/a	FR1	0	R1145J
714.196	0.901	722370	WORD_OFF	n/a	n/a	CHIN	10	4	[0, 0, 0]	n/a	FR1	0	R1145J
715.097	1.617	723271	WORD	n/a	wordpools/wordpool_EN.txt	GOAT	11	4	[0, 0, 0]	n/a	FR1	0	R1145J
716.714	0.85	724888	WORD_OFF	n/a	n/a	GOAT	11	4	[0, 0, 0]	n/a	FR1	0	R1145J
717.564	1.616	725738	WORD	n/a	wordpools/wordpool_EN.txt	CANE	12	4	[0, 0, 0]	n/a	FR1	0	R1145J
719.18	0.0	727354	DISTRACT_START	n/a	n/a	n/a	-999	4	[0, 0, 0]	n/a	FR1	0	R1145J
719.18	0.001	727354	WORD_OFF	n/a	n/a	CANE	12	4	[0, 0, 0]	n/a	FR1	0	R1145J
719.181	0.016	727355	START	n/a	n/a	n/a	-999	4	[-999, -999, -999]	n/a	FR1	0	R1145J
719.197	8.536	727371	PROB	8.536	n/a	n/a	-999	4	[3, 7, 9]	19	FR1	0	R1145J
727.733	9.234	735907	PROB	9.234	n/a	n/a	-999	4	[7, 6, 5]	18	FR1	0	R1145J
736.967	10.479	745141	PROB	10.479	n/a	n/a	-999	4	[6, 9, 7]	22	FR1	0	R1145J
747.446	0.005	755620	STOP	n/a	n/a	n/a	-999	4	[-999, -999, -999]	n/a	FR1	0	R1145J
747.451	0.584	755625	DISTRACT_END	n/a	n/a	n/a	-999	4	[0, 0, 0]	n/a	FR1	0	R1145J
748.035	0.517	756209	RETRIEVAL_ORIENT	n/a	n/a	n/a	-999	4	[0, 0, 0]	n/a	FR1	0	R1145J
748.552	1.688	756726	REC_START	n/a	n/a	n/a	-999	4	[0, 0, 0]	n/a	FR1	0	R1145J
750.24	1.235	758414	REC_WORD	1.235	n/a	STONE	1	4	[0, 0, 0]	n/a	FR1	0	R1145J
751.475	0.941	759649	REC_WORD	0.941	n/a	SALT	2	4	[0, 0, 0]	n/a	FR1	0	R1145J
752.416	2.056	760590	REC_WORD	2.056	n/a	MOOSE	4	4	[0, 0, 0]	n/a	FR1	0	R1145J
754.472	2.825	762646	REC_WORD	2.825	n/a	CAKE	6	4	[0, 0, 0]	n/a	FR1	0	R1145J
757.297	0.563	765471	REC_WORD_VV	0.563	n/a	<>	-999	4	[0, 0, 0]	n/a	FR1	0	R1145J
757.86	0.508	766034	REC_WORD_VV	0.508	n/a	<>	-999	4	[0, 0, 0]	n/a	FR1	0	R1145J
758.368	20.193	766542	REC_WORD	20.193	n/a	HEN	-999	4	[0, 0, 0]	n/a	FR1	0	R1145J
778.561	6.379	786734	REC_END	n/a	n/a	n/a	-999	4	[0, 0, 0]	n/a	FR1	0	R1145J
784.94	0.5	793113	TRIAL	n/a	n/a	n/a	-999	5	[0, 0, 0]	n/a	FR1	0	R1145J
785.44	10.428	793613	COUNTDOWN_START	n/a	n/a	n/a	-999	5	[0, 0, 0]	n/a	FR1	0	R1145J
795.868	0.007	804041	COUNTDOWN_END	n/a	n/a	n/a	-999	5	[0, 0, 0]	n/a	FR1	0	R1145J
795.875	1.616	804048	ORIENT	n/a	n/a	n/a	-999	5	[0, 0, 0]	n/a	FR1	0	R1145J
797.491	2.1	805664	ORIENT_OFF	n/a	n/a	n/a	-999	5	[0, 0, 0]	n/a	FR1	0	R1145J
799.591	1.617	807764	WORD	n/a	wordpools/wordpool_EN.txt	CHIEF	1	5	[0, 0, 0]	n/a	FR1	0	R1145J
801.208	0.884	809381	WORD_OFF	n/a	n/a	CHIEF	1	5	[0, 0, 0]	n/a	FR1	0	R1145J
802.092	1.618	810265	WORD	n/a	wordpools/wordpool_EN.txt	LEAF	2	5	[0, 0, 0]	n/a	FR1	0	R1145J
803.71	0.95	811883	WORD_OFF	n/a	n/a	LEAF	2	5	[0, 0, 0]	n/a	FR1	0	R1145J
804.66	1.616	812833	WORD	n/a	wordpools/wordpool_EN.txt	NEST	3	5	[0, 0, 0]	n/a	FR1	0	R1145J
806.276	0.85	814449	WORD_OFF	n/a	n/a	NEST	3	5	[0, 0, 0]	n/a	FR1	0	R1145J
807.126	1.601	815299	WORD	n/a	wordpools/wordpool_EN.txt	SHEEP	4	5	[0, 0, 0]	n/a	FR1	0	R1145J
808.727	0.9	816900	WORD_OFF	n/a	n/a	SHEEP	4	5	[0, 0, 0]	n/a	FR1	0	R1145J
809.627	1.616	817800	WORD	n/a	wordpools/wordpool_EN.txt	WAND	5	5	[0, 0, 0]	n/a	FR1	0	R1145J
811.243	1.0	819416	WORD_OFF	n/a	n/a	WAND	5	5	[0, 0, 0]	n/a	FR1	0	R1145J
812.243	1.618	820416	WORD	n/a	wordpools/wordpool_EN.txt	BRANCH	6	5	[0, 0, 0]	n/a	FR1	0	R1145J
813.861	0.9	822034	WORD_OFF	n/a	n/a	BRANCH	6	5	[0, 0, 0]	n/a	FR1	0	R1145J
814.761	1.616	822934	WORD	n/a	wordpools/wordpool_EN.txt	COW	7	5	[0, 0, 0]	n/a	FR1	0	R1145J
816.377	0.833	824550	WORD_OFF	n/a	n/a	COW	7	5	[0, 0, 0]	n/a	FR1	0	R1145J
817.21	1.601	825383	WORD	n/a	wordpools/wordpool_EN.txt	POND	8	5	[0, 0, 0]	n/a	FR1	0	R1145J
818.811	0.834	826984	WORD_OFF	n/a	n/a	POND	8	5	[0, 0, 0]	n/a	FR1	0	R1145J
819.645	1.616	827818	WORD	n/a	wordpools/wordpool_EN.txt	ANT	9	5	[0, 0, 0]	n/a	FR1	0	R1145J
821.261	0.85	829434	WORD_OFF	n/a	n/a	ANT	9	5	[0, 0, 0]	n/a	FR1	0	R1145J
822.111	1.618	830284	WORD	n/a	wordpools/wordpool_EN.txt	SPEAR	10	5	[0, 0, 0]	n/a	FR1	0	R1145J
823.729	0.765	831902	WORD_OFF	n/a	n/a	SPEAR	10	5	[0, 0, 0]	n/a	FR1	0	R1145J
824.494	1.618	832667	WORD	n/a	wordpools/wordpool_EN.txt	MILK	11	5	[0, 0, 0]	n/a	FR1	0	R1145J
826.112	0.933	834285	WORD_OFF	n/a	n/a	MILK	11	5	[0, 0, 0]	n/a	FR1	0	R1145J
827.045	1.618	835218	WORD	n/a	wordpools/wordpool_EN.txt	ROOT	12	5	[0, 0, 0]	n/a	FR1	0	R1145J
828.663	0.0	836836	WORD_OFF	n/a	n/a	ROOT	12	5	[0, 0, 0]	n/a	FR1	0	R1145J
828.663	0.001	836836	DISTRACT_START	n/a	n/a	n/a	-999	5	[0, 0, 0]	n/a	FR1	0	R1145J
828.664	0.016	836837	START	n/a	n/a	n/a	-999	5	[-999, -999, -999]	n/a	FR1	0	R1145J
828.68	18.501	836853	PROB	18.501	n/a	n/a	-999	5	[4, 7, 7]	18	FR1	0	R1145J
847.181	6.565	855353	PROB	6.565	n/a	n/a	-999	5	[9, 7, 2]	18	FR1	0	R1145J
853.746	0.02	861918	STOP	n/a	n/a	n/a	-999	5	[-999, -999, -999]	n/a	FR1	0	R1145J
853.766	0.549	861938	DISTRACT_END	n/a	n/a	n/a	-999	5	[0, 0, 0]	n/a	FR1	0	R1145J
854.315	0.519	862487	RETRIEVAL_ORIENT	n/a	n/a	n/a	-999	5	[0, 0, 0]	n/a	FR1	0	R1145J
854.834	1.639	863006	REC_START	n/a	n/a	n/a	-999	5	[0, 0, 0]	n/a	FR1	0	R1145J
856.473	0.992	864645	REC_WORD	0.992	n/a	CHIEF	1	5	[0, 0, 0]	n/a	FR1	0	R1145J
857.465	1.997	865637	REC_WORD	1.997	n/a	LEAF	2	5	[0, 0, 0]	n/a	FR1	0	R1145J
859.462	2.228	867634	REC_WORD	2.228	n/a	NEST	3	5	[0, 0, 0]	n/a	FR1	0	R1145J
861.69	1.809	869862	REC_WORD	1.809	n/a	BRANCH	6	5	[0, 0, 0]	n/a	FR1	0	R1145J
863.499	2.043	871671	REC_WORD	2.043	n/a	MILK	11	5	[0, 0, 0]	n/a	FR1	0	R1145J
865.542	19.304	873714	REC_WORD	19.304	n/a	WOOD	-999	5	[0, 0, 0]	n/a	FR1	0	R1145J
884.846	7.925	893018	REC_END	n/a	n/a	n/a	-999	5	[0, 0, 0]	n/a	FR1	0	R1145J
892.771	0.5	900943	TRIAL	n/a	n/a	n/a	-999	6	[0, 0, 0]	n/a	FR1	0	R1145J
893.271	10.428	901443	COUNTDOWN_START	n/a	n/a	n/a	-999	6	[0, 0, 0]	n/a	FR1	0	R1145J
903.699	0.007	911871	COUNTDOWN_END	n/a	n/a	n/a	-999	6	[0, 0, 0]	n/a	FR1	0	R1145J
903.706	1.616	911878	ORIENT	n/a	n/a	n/a	-999	6	[0, 0, 0]	n/a	FR1	0	R1145J
905.322	2.267	913494	ORIENT_OFF	n/a	n/a	n/a	-999	6	[0, 0, 0]	n/a	FR1	0	R1145J
907.589	1.617	915761	WORD	n/a	wordpools/wordpool_EN.txt	FISH	1	6	[0, 0, 0]	n/a	FR1	0	R1145J
909.206	0.767	917378	WORD_OFF	n/a	n/a	FISH	1	6	[0, 0, 0]	n/a	FR1	0	R1145J
909.973	1.616	918145	WORD	n/a	wordpools/wordpool_EN.txt	BOAT	2	6	[0, 0, 0]	n/a	FR1	0	R1145J
911.589	0.867	919761	WORD_OFF	n/a	n/a	BOAT	2	6	[0, 0, 0]	n/a	FR1	0	R1145J
912.456	1.617	920628	WORD	n/a	wordpools/wordpool_EN.txt	FLAG	3	6	[0, 0, 0]	n/a	FR1	0	R1145J
914.073	0.801	922245	WORD_OFF	n/a	n/a	FLAG	3	6	[0, 0, 0]	n/a	FR1	0	R1145J
914.874	1.616	923045	WORD	n/a	wordpools/wordpool_EN.txt	SKY	4	6	[0, 0, 0]	n/a	FR1	0	R1145J
916.49	0.917	924661	WORD_OFF	n/a	n/a	SKY	4	6	[0, 0, 0]	n/a	FR1	0	R1145J
917.407	1.618	925578	WORD	n/a	wordpools/wordpool_EN.txt	SAIL	5	6	[0, 0, 0]	n/a	FR1	0	R1145J
919.025	0.783	927196	WORD_OFF	n/a	n/a	SAIL	5	6	[0, 0, 0]	n/a	FR1	0	R1145J
919.808	1.616	927979	WORD	n/a	wordpools/wordpool_EN.txt	SUN	6	6	[0, 0, 0]	n/a	FR1	0	R1145J
921.424	0.833	929595	WORD_OFF	n/a	n/a	SUN	6	6	[0, 0, 0]	n/a	FR1	0	R1145J
922.257	1.601	930428	WORD	n/a	wordpools/wordpool_EN.txt	WING	7	6	[0, 0, 0]	n/a	FR1	0	R1145J
923.858	1.001	932029	WORD_OFF	n/a	n/a	WING	7	6	[0, 0, 0]	n/a	FR1	0	R1145J
924.859	1.616	933030	WORD	n/a	wordpools/wordpool_EN.txt	BEACH	8	6	[0, 0, 0]	n/a	FR1	0	R1145J
926.475	0.783	934646	WORD_OFF	n/a	n/a	BEACH	8	6	[0, 0, 0]	n/a	FR1	0	R1145J
927.258	1.602	935429	WORD	n/a	wordpools/wordpool_EN.txt	SHRIMP	9	6	[0, 0, 0]	n/a	FR1	0	R1145J
928.86	0.816	937031	WORD_OFF	n/a	n/a	SHRIMP	9	6	[0, 0, 0]	n/a	FR1	0	R1145J
929.676	1.616	937847	WORD	n/a	wordpools/wordpool_EN.txt	DART	10	6	[0, 0, 0]	n/a	FR1	0	R1145J
931.292	0.933	939463	WORD_OFF	n/a	n/a	DART	10	6	[0, 0, 0]	n/a	FR1	0	R1145J
932.225	1.601	940396	WORD	n/a	wordpools/wordpool_EN.txt	TANK	11	6	[0, 0, 0]	n/a	FR1	0	R1145J
933.826	0.917	941997	WORD_OFF	n/a	n/a	TANK	11	6	[0, 0, 0]	n/a	FR1	0	R1145J
934.743	1.616	942914	WORD	n/a	wordpools/wordpool_EN.txt	FOAM	12	6	[0, 0, 0]	n/a	FR1	0	R1145J
936.359	0.0	944530	WORD_OFF	n/a	n/a	FOAM	12	6	[0, 0, 0]	n/a	FR1	0	R1145J
936.359	0.001	944530	DISTRACT_START	n/a	n/a	n/a	-999	6	[0, 0, 0]	n/a	FR1	0	R1145J
936.36	0.016	944531	START	n/a	n/a	n/a	-999	6	[-999, -999, -999]	n/a	FR1	0	R1145J
936.376	7.101	944547	PROB	7.101	n/a	n/a	-999	6	[4, 7, 7]	18	FR1	0	R1145J
943.477	7.551	951648	PROB	7.551	n/a	n/a	-999	6	[7, 7, 1]	15	FR1	0	R1145J
951.028	7.924	959199	PROB	7.924	n/a	n/a	-999	6	[8, 5, 2]	15	FR1	0	R1145J
958.952	0.011	967123	STOP	n/a	n/a	n/a	-999	6	[-999, -999, -999]	n/a	FR1	0	R1145J
958.963	0.683	967134	DISTRACT_END	n/a	n/a	n/a	-999	6	[0, 0, 0]	n/a	FR1	0	R1145J
959.646	0.517	967817	RETRIEVAL_ORIENT	n/a	n/a	n/a	-999	6	[0, 0, 0]	n/a	FR1	0	R1145J
960.163	2.587	968334	REC_START	n/a	n/a	n/a	-999	6	[0, 0, 0]	n/a	FR1	0	R1145J
962.75	1.915	970921	REC_WORD	1.915	n/a	BEACH	8	6	[0, 0, 0]	n/a	FR1	0	R1145J
964.665	2.256	972836	REC_WORD	2.256	n/a	FLAG	3	6	[0, 0, 0]	n/a	FR1	0	R1145J
966.921	2.36	975092	REC_WORD	2.36	n/a	SAIL	5	6	[0, 0, 0]	n/a	FR1	0	R1145J
969.281	3.134	977452	REC_WORD	3.134	n/a	SKY	4	6	[0, 0, 0]	n/a	FR1	0	R1145J
972.415	17.759	980586	REC_WORD	17.759	n/a	FISH	1	6	[0, 0, 0]	n/a	FR1	0	R1145J
990.174	5.927	998344	REC_END	n/a	n/a	n/a	-999	6	[0, 0, 0]	n/a	FR1	0	R1145J
996.101	0.5	1004271	TRIAL	n/a	n/a	n/a	-999	7	[0, 0, 0]	n/a	FR1	0	R1145J
996.601	10.428	1004771	COUNTDOWN_START	n/a	n/a	n/a	-999	7	[0, 0, 0]	n/a	FR1	0	R1145J
1007.029	0.007	1015199	COUNTDOWN_END	n/a	n/a	n/a	-999	7	[0, 0, 0]	n/a	FR1	0	R1145J
1007.036	1.617	1015206	ORIENT	n/a	n/a	n/a	-999	7	[0, 0, 0]	n/a	FR1	0	R1145J
1008.653	2.134	1016823	ORIENT_OFF	n/a	n/a	n/a	-999	7	[0, 0, 0]	n/a	FR1	0	R1145J
1010.787	1.616	1018957	WORD	n/a	wordpools/wordpool_EN.txt	BOOT	1	7	[0, 0, 0]	n/a	FR1	0	R1145J
1012.403	0.783	1020573	WORD_OFF	n/a	n/a	BOOT	1	7	[0, 0, 0]	n/a	FR1	0	R1145J
1013.186	1.618	1021356	WORD	n/a	wordpools/wordpool_EN.txt	DEER	2	7	[0, 0, 0]	n/a	FR1	0	R1145J
1014.804	0.934	1022974	WORD_OFF	n/a	n/a	DEER	2	7	[0, 0, 0]	n/a	FR1	0	R1145J
1015.738	1.616	1023908	WORD	n/a	wordpools/wordpool_EN.txt	CUBE	3	7	[0, 0, 0]	n/a	FR1	0	R1145J
1017.354	0.916	1025524	WORD_OFF	n/a	n/a	CUBE	3	7	[0, 0, 0]	n/a	FR1	0	R1145J
1018.27	1.618	1026440	WORD	n/a	wordpools/wordpool_EN.txt	SWAMP	4	7	[0, 0, 0]	n/a	FR1	0	R1145J
1019.888	0.833	1028058	WORD_OFF	n/a	n/a	SWAMP	4	7	[0, 0, 0]	n/a	FR1	0	R1145J
1020.721	1.616	1028891	WORD	n/a	wordpools/wordpool_EN.txt	MOTH	5	7	[0, 0, 0]	n/a	FR1	0	R1145J
1022.337	0.784	1030507	WORD_OFF	n/a	n/a	MOTH	5	7	[0, 0, 0]	n/a	FR1	0	R1145J
1023.121	1.618	1031291	WORD	n/a	wordpools/wordpool_EN.txt	FRUIT	6	7	[0, 0, 0]	n/a	FR1	0	R1145J
1024.739	0.782	1032909	WORD_OFF	n/a	n/a	FRUIT	6	7	[0, 0, 0]	n/a	FR1	0	R1145J
1025.521	1.617	1033691	WORD	n/a	wordpools/wordpool_EN.txt	FOG	7	7	[0, 0, 0]	n/a	FR1	0	R1145J
1027.138	0.9	1035308	WORD_OFF	n/a	n/a	FOG	7	7	[0, 0, 0]	n/a	FR1	0	R1145J
1028.038	1.601	1036208	WORD	n/a	wordpools/wordpool_EN.txt	SPRING	8	7	[0, 0, 0]	n/a	FR1	0	R1145J
1029.639	0.984	1037809	WORD_OFF	n/a	n/a	SPRING	8	7	[0, 0, 0]	n/a	FR1	0	R1145J
1030.623	1.616	1038793	WORD	n/a	wordpools/wordpool_EN.txt	BLOOM	9	7	[0, 0, 0]	n/a	FR1	0	R1145J
1032.239	0.884	1040409	WORD_OFF	n/a	n/a	BLOOM	9	7	[0, 0, 0]	n/a	FR1	0	R1145J
1033.123	1.617	1041293	WORD	n/a	wordpools/wordpool_EN.txt	BUSH	10	7	[0, 0, 0]	n/a	FR1	0	R1145J
1034.74	0.816	1042910	WORD_OFF	n/a	n/a	BUSH	10	7	[0, 0, 0]	n/a	FR1	0	R1145J
1035.556	1.617	1043726	WORD	n/a	wordpools/wordpool_EN.txt	SNOW	11	7	[0, 0, 0]	n/a	FR1	0	R1145J
1037.173	0.967	1045343	WORD_OFF	n/a	n/a	SNOW	11	7	[0, 0, 0]	n/a	FR1	0	R1145J
1038.14	1.617	1046310	WORD	n/a	wordpools/wordpool_EN.txt	OAK	12	7	[0, 0, 0]	n/a	FR1	0	R1145J
1039.757	0.0	1047927	WORD_OFF	n/a	n/a	OAK	12	7	[0, 0, 0]	n/a	FR1	0	R1145J
1039.757	0.001	1047927	DISTRACT_START	n/a	n/a	n/a	-999	7	[0, 0, 0]	n/a	FR1	0	R1145J
1039.758	0.016	1047928	START	n/a	n/a	n/a	-999	7	[-999, -999, -999]	n/a	FR1	0	R1145J
1039.774	9.868	1047944	PROB	9.868	n/a	n/a	-999	7	[6, 4, 4]	14	FR1	0	R1145J
1049.642	6.867	1057812	PROB	6.867	n/a	n/a	-999	7	[6, 2, 4]	12	FR1	0	R1145J
1056.509	9.494	1064678	PROB	9.494	n/a	n/a	-999	7	[8, 7, 2]	17	FR1	0	R1145J
1066.003	0.008	1074172	STOP	n/a	n/a	n/a	-999	7	[-999, -999, -999]	n/a	FR1	0	R1145J
1066.011	0.634	1074180	DISTRACT_END	n/a	n/a	n/a	-999	7	[0, 0, 0]	n/a	FR1	0	R1145J
1066.645	0.516	1074814	RETRIEVAL_ORIENT	n/a	n/a	n/a	-999	7	[0, 0, 0]	n/a	FR1	0	R1145J
1067.161	2.497	1075330	REC_START	n/a	n/a	n/a	-999	7	[0, 0, 0]	n/a	FR1	0	R1145J
1069.658	3.752	1077827	REC_WORD	3.752	n/a	BOOT	1	7	[0, 0, 0]	n/a	FR1	0	R1145J
1073.41	2.177	1081579	REC_WORD	2.177	n/a	BUSH	10	7	[0, 0, 0]	n/a	FR1	0	R1145J
1075.587	6.811	1083756	REC_WORD	6.811	n/a	DEER	2	7	[0, 0, 0]	n/a	FR1	0	R1145J
1082.398	1.099	1090567	REC_WORD_VV	1.099	n/a	<>	-999	7	[0, 0, 0]	n/a	FR1	0	R1145J
1083.497	8.239	1091666	REC_WORD_VV	8.239	n/a	<>	-999	7	[0, 0, 0]	n/a	FR1	0	R1145J
1091.736	1.0	1099905	REC_WORD_VV	1.0	n/a	<>	-999	7	[0, 0, 0]	n/a	FR1	0	R1145J
1092.736	4.436	1100905	REC_WORD_VV	4.436	n/a	<>	-999	7	[0, 0, 0]	n/a	FR1	0	R1145J
1097.172	5.96	1105341	REC_END	n/a	n/a	n/a	-999	7	[0, 0, 0]	n/a	FR1	0	R1145J
1103.132	0.5	1111301	TRIAL	n/a	n/a	n/a	-999	8	[0, 0, 0]	n/a	FR1	0	R1145J
1103.632	10.428	1111801	COUNTDOWN_START	n/a	n/a	n/a	-999	8	[0, 0, 0]	n/a	FR1	0	R1145J
1114.06	0.007	1122229	COUNTDOWN_END	n/a	n/a	n/a	-999	8	[0, 0, 0]	n/a	FR1	0	R1145J
1114.067	1.617	1122236	ORIENT	n/a	n/a	n/a	-999	8	[0, 0, 0]	n/a	FR1	0	R1145J
1115.684	1.917	1123853	ORIENT_OFF	n/a	n/a	n/a	-999	8	[0, 0, 0]	n/a	FR1	0	R1145J
1117.601	1.616	1125770	WORD	n/a	wordpools/wordpool_EN.txt	PLANE	1	8	[0, 0, 0]	n/a	FR1	0	R1145J
1119.217	0.934	1127386	WORD_OFF	n/a	n/a	PLANE	1	8	[0, 0, 0]	n/a	FR1	0	R1145J
1120.151	1.618	1128320	WORD	n/a	wordpools/wordpool_EN.txt	SHEET	2	8	[0, 0, 0]	n/a	FR1	0	R1145J
1121.769	0.866	1129937	WORD_OFF	n/a	n/a	SHEET	2	8	[0, 0, 0]	n/a	FR1	0	R1145J
1122.635	1.616	1130803	WORD	n/a	wordpools/wordpool_EN.txt	STRING	3	8	[0, 0, 0]	n/a	FR1	0	R1145J
1124.251	0.95	1132419	WORD_OFF	n/a	n/a	STRING	3	8	[0, 0, 0]	n/a	FR1	0	R1145J
1125.201	1.601	1133369	WORD	n/a	wordpools/wordpool_EN.txt	CROWN	4	8	[0, 0, 0]	n/a	FR1	0	R1145J
1126.802	0.934	1134970	WORD_OFF	n/a	n/a	CROWN	4	8	[0, 0, 0]	n/a	FR1	0	R1145J
1127.736	1.616	1135904	WORD	n/a	wordpools/wordpool_EN.txt	MAZE	5	8	[0, 0, 0]	n/a	FR1	0	R1145J
1129.352	0.883	1137520	WORD_OFF	n/a	n/a	MAZE	5	8	[0, 0, 0]	n/a	FR1	0	R1145J
1130.235	1.601	1138403	WORD	n/a	wordpools/wordpool_EN.txt	FROG	6	8	[0, 0, 0]	n/a	FR1	0	R1145J
1131.836	0.784	1140004	WORD_OFF	n/a	n/a	FROG	6	8	[0, 0, 0]	n/a	FR1	0	R1145J
1132.62	1.616	1140788	WORD	n/a	wordpools/wordpool_EN.txt	TOOL	7	8	[0, 0, 0]	n/a	FR1	0	R1145J
1134.236	0.917	1142404	WORD_OFF	n/a	n/a	TOOL	7	8	[0, 0, 0]	n/a	FR1	0	R1145J
1135.153	1.618	1143321	WORD	n/a	wordpools/wordpool_EN.txt	FLAME	8	8	[0, 0, 0]	n/a	FR1	0	R1145J
1136.771	0.815	1144939	WORD_OFF	n/a	n/a	FLAME	8	8	[0, 0, 0]	n/a	FR1	0	R1145J
1137.586	1.617	1145754	WORD	n/a	wordpools/wordpool_EN.txt	WAVE	9	8	[0, 0, 0]	n/a	FR1	0	R1145J
1139.203	0.934	1147371	WORD_OFF	n/a	n/a	WAVE	9	8	[0, 0, 0]	n/a	FR1	0	R1145J
1140.137	1.617	1148305	WORD	n/a	wordpools/wordpool_EN.txt	TEETH	10	8	[0, 0, 0]	n/a	FR1	0	R1145J
1141.754	0.766	1149922	WORD_OFF	n/a	n/a	TEETH	10	8	[0, 0, 0]	n/a	FR1	0	R1145J
1142.52	1.617	1150688	WORD	n/a	wordpools/wordpool_EN.txt	SWORD	11	8	[0, 0, 0]	n/a	FR1	0	R1145J
1144.137	1.0	1152305	WORD_OFF	n/a	n/a	SWORD	11	8	[0, 0, 0]	n/a	FR1	0	R1145J
1145.137	1.618	1153305	WORD	n/a	wordpools/wordpool_EN.txt	CHEEK	12	8	[0, 0, 0]	n/a	FR1	0	R1145J
1146.755	0.0	1154923	WORD_OFF	n/a	n/a	CHEEK	12	8	[0, 0, 0]	n/a	FR1	0	R1145J
1146.755	0.001	1154923	DISTRACT_START	n/a	n/a	n/a	-999	8	[0, 0, 0]	n/a	FR1	0	R1145J
1146.756	0.016	1154924	START	n/a	n/a	n/a	-999	8	[-999, -999, -999]	n/a	FR1	0	R1145J
1146.772	21.236	1154940	PROB	21.236	n/a	n/a	-999	8	[8, 5, 3]	16	FR1	0	R1145J
1168.008	0.017	1176176	STOP	n/a	n/a	n/a	-999	8	[-999, -999, -999]	n/a	FR1	0	R1145J
1168.025	0.683	1176193	DISTRACT_END	n/a	n/a	n/a	-999	8	[0, 0, 0]	n/a	FR1	0	R1145J
1168.708	0.517	1176876	RETRIEVAL_ORIENT	n/a	n/a	n/a	-999	8	[0, 0, 0]	n/a	FR1	0	R1145J
1169.225	2.716	1177393	REC_START	n/a	n/a	n/a	-999	8	[0, 0, 0]	n/a	FR1	0	R1145J
1171.941	4.136	1180109	REC_WORD	4.136	n/a	PLANE	1	8	[0, 0, 0]	n/a	FR1	0	R1145J
1176.077	23.158	1184245	REC_WORD	23.158	n/a	WAVE	9	8	[0, 0, 0]	n/a	FR1	0	R1145J
1199.235	14.845	1207402	REC_END	n/a	n/a	n/a	-999	8	[0, 0, 0]	n/a	FR1	0	R1145J
1214.08	0.5	1222247	TRIAL	n/a	n/a	n/a	-999	9	[0, 0, 0]	n/a	FR1	0	R1145J
1214.58	10.428	1222747	COUNTDOWN_START	n/a	n/a	n/a	-999	9	[0, 0, 0]	n/a	FR1	0	R1145J
1225.008	0.008	1233175	COUNTDOWN_END	n/a	n/a	n/a	-999	9	[0, 0, 0]	n/a	FR1	0	R1145J
1225.016	1.617	1233183	ORIENT	n/a	n/a	n/a	-999	9	[0, 0, 0]	n/a	FR1	0	R1145J
1226.633	2.05	1234800	ORIENT_OFF	n/a	n/a	n/a	-999	9	[0, 0, 0]	n/a	FR1	0	R1145J
1228.683	1.616	1236850	WORD	n/a	wordpools/wordpool_EN.txt	PURSE	1	9	[0, 0, 0]	n/a	FR1	0	R1145J
1230.299	0.767	1238466	WORD_OFF	n/a	n/a	PURSE	1	9	[0, 0, 0]	n/a	FR1	0	R1145J
1231.066	1.618	1239233	WORD	n/a	wordpools/wordpool_EN.txt	JAR	2	9	[0, 0, 0]	n/a	FR1	0	R1145J
1232.684	0.882	1240851	WORD_OFF	n/a	n/a	JAR	2	9	[0, 0, 0]	n/a	FR1	0	R1145J
1233.566	1.617	1241733	WORD	n/a	wordpools/wordpool_EN.txt	GLASS	3	9	[0, 0, 0]	n/a	FR1	0	R1145J
1235.183	0.784	1243350	WORD_OFF	n/a	n/a	GLASS	3	9	[0, 0, 0]	n/a	FR1	0	R1145J
1235.967	1.616	1244134	WORD	n/a	wordpools/wordpool_EN.txt	SEED	4	9	[0, 0, 0]	n/a	FR1	0	R1145J
1237.583	0.784	1245750	WORD_OFF	n/a	n/a	SEED	4	9	[0, 0, 0]	n/a	FR1	0	R1145J
1238.367	1.617	1246534	WORD	n/a	wordpools/wordpool_EN.txt	STORE	5	9	[0, 0, 0]	n/a	FR1	0	R1145J
1239.984	0.834	1248151	WORD_OFF	n/a	n/a	STORE	5	9	[0, 0, 0]	n/a	FR1	0	R1145J
1240.818	1.616	1248985	WORD	n/a	wordpools/wordpool_EN.txt	STREET	6	9	[0, 0, 0]	n/a	FR1	0	R1145J
1242.434	0.8	1250601	WORD_OFF	n/a	n/a	STREET	6	9	[0, 0, 0]	n/a	FR1	0	R1145J
1243.234	1.618	1251401	WORD	n/a	wordpools/wordpool_EN.txt	SHIRT	7	9	[0, 0, 0]	n/a	FR1	0	R1145J
1244.852	0.783	1253019	WORD_OFF	n/a	n/a	SHIRT	7	9	[0, 0, 0]	n/a	FR1	0	R1145J
1245.635	1.616	1253802	WORD	n/a	wordpools/wordpool_EN.txt	COIN	8	9	[0, 0, 0]	n/a	FR1	0	R1145J
1247.251	0.9	1255418	WORD_OFF	n/a	n/a	COIN	8	9	[0, 0, 0]	n/a	FR1	0	R1145J
1248.151	1.618	1256318	WORD	n/a	wordpools/wordpool_EN.txt	THUMB	9	9	[0, 0, 0]	n/a	FR1	0	R1145J
1249.769	0.967	1257936	WORD_OFF	n/a	n/a	THUMB	9	9	[0, 0, 0]	n/a	FR1	0	R1145J
1250.736	1.616	1258903	WORD	n/a	wordpools/wordpool_EN.txt	FLEA	10	9	[0, 0, 0]	n/a	FR1	0	R1145J
1252.352	0.8	1260519	WORD_OFF	n/a	n/a	FLEA	10	9	[0, 0, 0]	n/a	FR1	0	R1145J
1253.152	1.601	1261319	WORD	n/a	wordpools/wordpool_EN.txt	BEAK	11	9	[0, 0, 0]	n/a	FR1	0	R1145J
1254.753	0.984	1262920	WORD_OFF	n/a	n/a	BEAK	11	9	[0, 0, 0]	n/a	FR1	0	R1145J
1255.737	1.616	1263904	WORD	n/a	wordpools/wordpool_EN.txt	STEM	12	9	[0, 0, 0]	n/a	FR1	0	R1145J
1257.353	0.0	1265520	WORD_OFF	n/a	n/a	STEM	12	9	[0, 0, 0]	n/a	FR1	0	R1145J
1257.353	0.0	1265520	DISTRACT_START	n/a	n/a	n/a	-999	9	[0, 0, 0]	n/a	FR1	0	R1145J
1257.353	0.016	1265520	START	n/a	n/a	n/a	-999	9	[-999, -999, -999]	n/a	FR1	0	R1145J
1257.369	7.385	1265536	PROB	7.385	n/a	n/a	-999	9	[6, 7, 3]	16	FR1	0	R1145J
1264.754	3.901	1272920	PROB	3.901	n/a	n/a	-999	9	[2, 4, 8]	14	FR1	0	R1145J
1268.655	7.634	1276821	PROB	7.634	n/a	n/a	-999	9	[4, 5, 3]	12	FR1	0	R1145J
1276.289	7.515	1284455	PROB	7.515	n/a	n/a	-999	9	[6, 4, 4]	14	FR1	0	R1145J
1283.804	0.02	1291970	STOP	n/a	n/a	n/a	-999	9	[-999, -999, -999]	n/a	FR1	0	R1145J
1283.824	0.532	1291990	DISTRACT_END	n/a	n/a	n/a	-999	9	[0, 0, 0]	n/a	FR1	0	R1145J
1284.356	0.519	1292522	RETRIEVAL_ORIENT	n/a	n/a	n/a	-999	9	[0, 0, 0]	n/a	FR1	0	R1145J
1284.875	1.381	1293041	REC_START	n/a	n/a	n/a	-999	9	[0, 0, 0]	n/a	FR1	0	R1145J
1286.256	1.148	1294422	REC_WORD	1.148	n/a	JAR	2	9	[0, 0, 0]	n/a	FR1	0	R1145J
1287.404	1.926	1295570	REC_WORD	1.926	n/a	GLASS	3	9	[0, 0, 0]	n/a	FR1	0	R1145J
1289.33	2.982	1297496	REC_WORD	2.982	n/a	SEED	4	9	[0, 0, 0]	n/a	FR1	0	R1145J
1292.312	2.164	1300478	REC_WORD	2.164	n/a	STORE	5	9	[0, 0, 0]	n/a	FR1	0	R1145J
1294.476	1.408	1302642	REC_WORD	1.408	n/a	STREET	6	9	[0, 0, 0]	n/a	FR1	0	R1145J
1295.884	6.494	1304050	REC_WORD	6.494	n/a	SHIRT	7	9	[0, 0, 0]	n/a	FR1	0	R1145J
1302.378	1.622	1310544	REC_WORD_VV	1.622	n/a	<>	-999	9	[0, 0, 0]	n/a	FR1	0	R1145J
1304.0	2.689	1312166	REC_WORD	2.689	n/a	JAR	2	9	[0, 0, 0]	n/a	FR1	0	R1145J
1306.689	2.04	1314855	REC_WORD	2.04	n/a	GLASS	3	9	[0, 0, 0]	n/a	FR1	0	R1145J
1308.729	0.901	1316895	REC_WORD	0.901	n/a	SEED	4	9	[0, 0, 0]	n/a	FR1	0	R1145J
1309.63	0.611	1317796	REC_WORD	0.611	n/a	STORE	5	9	[0, 0, 0]	n/a	FR1	0	R1145J
1310.241	0.972	1318407	REC_WORD	0.972	n/a	STREET	6	9	[0, 0, 0]	n/a	FR1	0	R1145J
1311.213	3.672	1319379	REC_WORD	3.672	n/a	SHIRT	7	9	[0, 0, 0]	n/a	FR1	0	R1145J
1314.885	4.044	1323051	REC_END	n/a	n/a	n/a	-999	9	[0, 0, 0]	n/a	FR1	0	R1145J
1318.929	0.5	1327095	TRIAL	n/a	n/a	n/a	-999	10	[0, 0, 0]	n/a	FR1	0	R1145J
1319.429	10.428	1327595	COUNTDOWN_START	n/a	n/a	n/a	-999	10	[0, 0, 0]	n/a	FR1	0	R1145J
1329.857	0.006	1338022	COUNTDOWN_END	n/a	n/a	n/a	-999	10	[0, 0, 0]	n/a	FR1	0	R1145J
1329.863	1.616	1338028	ORIENT	n/a	n/a	n/a	-999	10	[0, 0, 0]	n/a	FR1	0	R1145J
1331.479	1.951	1339644	ORIENT_OFF	n/a	n/a	n/a	-999	10	[0, 0, 0]	n/a	FR1	0	R1145J
1333.43	1.617	1341595	WORD	n/a	wordpools/wordpool_EN.txt	BRIDGE	1	10	[0, 0, 0]	n/a	FR1	0	R1145J
1335.047	0.767	1343212	WORD_OFF	n/a	n/a	BRIDGE	1	10	[0, 0, 0]	n/a	FR1	0	R1145J
1335.814	1.616	1343979	WORD	n/a	wordpools/wordpool_EN.txt	CLOUD	2	10	[0, 0, 0]	n/a	FR1	0	R1145J
1337.43	0.817	1345595	WORD_OFF	n/a	n/a	CLOUD	2	10	[0, 0, 0]	n/a	FR1	0	R1145J
1338.247	1.618	1346412	WORD	n/a	wordpools/wordpool_EN.txt	WORLD	3	10	[0, 0, 0]	n/a	FR1	0	R1145J
1339.865	0.833	1348030	WORD_OFF	n/a	n/a	WORLD	3	10	[0, 0, 0]	n/a	FR1	0	R1145J
1340.698	1.616	1348863	WORD	n/a	wordpools/wordpool_EN.txt	BOMB	4	10	[0, 0, 0]	n/a	FR1	0	R1145J
1342.314	0.934	1350479	WORD_OFF	n/a	n/a	BOMB	4	10	[0, 0, 0]	n/a	FR1	0	R1145J
1343.248	1.618	1351413	WORD	n/a	wordpools/wordpool_EN.txt	WHEEL	5	10	[0, 0, 0]	n/a	FR1	0	R1145J
1344.866	0.766	1353031	WORD_OFF	n/a	n/a	WHEEL	5	10	[0, 0, 0]	n/a	FR1	0	R1145J
1345.632	1.616	1353797	WORD	n/a	wordpools/wordpool_EN.txt	RAIN	6	10	[0, 0, 0]	n/a	FR1	0	R1145J
1347.248	0.984	1355413	WORD_OFF	n/a	n/a	RAIN	6	10	[0, 0, 0]	n/a	FR1	0	R1145J
1348.232	1.617	1356397	WORD	n/a	wordpools/wordpool_EN.txt	SPARK	7	10	[0, 0, 0]	n/a	FR1	0	R1145J
1349.849	0.884	1358014	WORD_OFF	n/a	n/a	SPARK	7	10	[0, 0, 0]	n/a	FR1	0	R1145J
1350.733	1.616	1358898	WORD	n/a	wordpools/wordpool_EN.txt	SMOKE	8	10	[0, 0, 0]	n/a	FR1	0	R1145J
1352.349	0.8	1360514	WORD_OFF	n/a	n/a	SMOKE	8	10	[0, 0, 0]	n/a	FR1	0	R1145J
1353.149	1.618	1361314	WORD	n/a	wordpools/wordpool_EN.txt	CAR	9	10	[0, 0, 0]	n/a	FR1	0	R1145J
1354.767	0.933	1362932	WORD_OFF	n/a	n/a	CAR	9	10	[0, 0, 0]	n/a	FR1	0	R1145J
1355.7	1.616	1363865	WORD	n/a	wordpools/wordpool_EN.txt	ICE	10	10	[0, 0, 0]	n/a	FR1	0	R1145J
1357.316	0.917	1365481	WORD_OFF	n/a	n/a	ICE	10	10	[0, 0, 0]	n/a	FR1	0	R1145J
1358.233	1.618	1366398	WORD	n/a	wordpools/wordpool_EN.txt	STEAM	11	10	[0, 0, 0]	n/a	FR1	0	R1145J
1359.851	0.783	1368016	WORD_OFF	n/a	n/a	STEAM	11	10	[0, 0, 0]	n/a	FR1	0	R1145J
1360.634	1.616	1368799	WORD	n/a	wordpools/wordpool_EN.txt	CONE	12	10	[0, 0, 0]	n/a	FR1	0	R1145J
1362.25	0.0	1370415	WORD_OFF	n/a	n/a	CONE	12	10	[0, 0, 0]	n/a	FR1	0	R1145J
1362.25	0.001	1370415	DISTRACT_START	n/a	n/a	n/a	-999	10	[0, 0, 0]	n/a	FR1	0	R1145J
1362.251	0.016	1370416	START	n/a	n/a	n/a	-999	10	[-999, -999, -999]	n/a	FR1	0	R1145J
1362.267	9.184	1370432	PROB	9.184	n/a	n/a	-999	10	[5, 1, 7]	13	FR1	0	R1145J
1371.451	6.951	1379616	PROB	6.951	n/a	n/a	-999	10	[5, 4, 6]	15	FR1	0	R1145J
1378.402	8.519	1386567	PROB	8.519	n/a	n/a	-999	10	[6, 8, 9]	23	FR1	0	R1145J
1386.921	0.017	1395086	STOP	n/a	n/a	n/a	-999	10	[-999, -999, -999]	n/a	FR1	0	R1145J
1386.938	0.7	1395103	DISTRACT_END	n/a	n/a	n/a	-999	10	[0, 0, 0]	n/a	FR1	0	R1145J
1387.638	0.516	1395803	RETRIEVAL_ORIENT	n/a	n/a	n/a	-999	10	[0, 0, 0]	n/a	FR1	0	R1145J
1388.154	1.842	1396319	REC_START	n/a	n/a	n/a	-999	10	[0, 0, 0]	n/a	FR1	0	R1145J
1389.996	2.076	1398161	REC_WORD	2.076	n/a	BRIDGE	1	10	[0, 0, 0]	n/a	FR1	0	R1145J
1392.072	1.785	1400237	REC_WORD	1.785	n/a	CLOUD	2	10	[0, 0, 0]	n/a	FR1	0	R1145J
1393.857	4.295	1402022	REC_WORD	4.295	n/a	STONE	-999	10	[0, 0, 0]	n/a	FR1	0	R1145J
1398.152	2.61	1406316	REC_WORD	2.61	n/a	WHEEL	5	10	[0, 0, 0]	n/a	FR1	0	R1145J
1400.762	3.855	1408926	REC_WORD	3.855	n/a	CAR	9	10	[0, 0, 0]	n/a	FR1	0	R1145J
1404.617	5.7	1412781	REC_WORD	5.7	n/a	BOMB	4	10	[0, 0, 0]	n/a	FR1	0	R1145J
1410.317	1.636	1418481	REC_WORD	1.636	n/a	WHEEL	5	10	[0, 0, 0]	n/a	FR1	0	R1145J
1411.953	3.422	1420117	REC_WORD_VV	3.422	n/a	<>	-999	10	[0, 0, 0]	n/a	FR1	0	R1145J
1415.375	1.913	1423539	REC_WORD	1.913	n/a	EARTH	-999	10	[0, 0, 0]	n/a	FR1	0	R1145J
1417.288	0.877	1425452	REC_WORD	0.877	n/a	SKY	-999	10	[0, 0, 0]	n/a	FR1	0	R1145J
1418.165	12.027	1426329	REC_END	n/a	n/a	n/a	-999	10	[0, 0, 0]	n/a	FR1	0	R1145J
1430.192	0.5	1438356	TRIAL	n/a	n/a	n/a	-999	11	[0, 0, 0]	n/a	FR1	0	R1145J
1430.692	10.428	1438856	COUNTDOWN_START	n/a	n/a	n/a	-999	11	[0, 0, 0]	n/a	FR1	0	R1145J
1441.12	0.007	1449284	COUNTDOWN_END	n/a	n/a	n/a	-999	11	[0, 0, 0]	n/a	FR1	0	R1145J
1441.127	1.618	1449291	ORIENT	n/a	n/a	n/a	-999	11	[0, 0, 0]	n/a	FR1	0	R1145J
1442.745	2.117	1450909	ORIENT_OFF	n/a	n/a	n/a	-999	11	[0, 0, 0]	n/a	FR1	0	R1145J
1444.862	1.616	1453026	WORD	n/a	wordpools/wordpool_EN.txt	PEARL	1	11	[0, 0, 0]	n/a	FR1	0	R1145J
1446.478	0.917	1454642	WORD_OFF	n/a	n/a	PEARL	1	11	[0, 0, 0]	n/a	FR1	0	R1145J
1447.395	1.618	1455559	WORD	n/a	wordpools/wordpool_EN.txt	KEY	2	11	[0, 0, 0]	n/a	FR1	0	R1145J
1449.013	0.95	1457177	WORD_OFF	n/a	n/a	KEY	2	11	[0, 0, 0]	n/a	FR1	0	R1145J
1449.963	1.616	1458127	WORD	n/a	wordpools/wordpool_EN.txt	CASH	3	11	[0, 0, 0]	n/a	FR1	0	R1145J
1451.579	0.967	1459743	WORD_OFF	n/a	n/a	CASH	3	11	[0, 0, 0]	n/a	FR1	0	R1145J
1452.546	1.617	1460710	WORD	n/a	wordpools/wordpool_EN.txt	SCHOOL	4	11	[0, 0, 0]	n/a	FR1	0	R1145J
1454.163	0.933	1462327	WORD_OFF	n/a	n/a	SCHOOL	4	11	[0, 0, 0]	n/a	FR1	0	R1145J
1455.096	1.618	1463260	WORD	n/a	wordpools/wordpool_EN.txt	MAIL	5	11	[0, 0, 0]	n/a	FR1	0	R1145J
1456.714	1.0	1464878	WORD_OFF	n/a	n/a	MAIL	5	11	[0, 0, 0]	n/a	FR1	0	R1145J
1457.714	1.616	1465878	WORD	n/a	wordpools/wordpool_EN.txt	JUDGE	6	11	[0, 0, 0]	n/a	FR1	0	R1145J
1459.33	0.9	1467494	WORD_OFF	n/a	n/a	JUDGE	6	11	[0, 0, 0]	n/a	FR1	0	R1145J
1460.23	1.618	1468394	WORD	n/a	wordpools/wordpool_EN.txt	BANK	7	11	[0, 0, 0]	n/a	FR1	0	R1145J
1461.848	0.95	1470012	WORD_OFF	n/a	n/a	BANK	7	11	[0, 0, 0]	n/a	FR1	0	R1145J
1462.798	1.616	1470962	WORD	n/a	wordpools/wordpool_EN.txt	BOOK	8	11	[0, 0, 0]	n/a	FR1	0	R1145J
1464.414	0.783	1472578	WORD_OFF	n/a	n/a	BOOK	8	11	[0, 0, 0]	n/a	FR1	0	R1145J
1465.197	1.618	1473361	WORD	n/a	wordpools/wordpool_EN.txt	INK	9	11	[0, 0, 0]	n/a	FR1	0	R1145J
1466.815	0.917	1474978	WORD_OFF	n/a	n/a	INK	9	11	[0, 0, 0]	n/a	FR1	0	R1145J
1467.732	1.616	1475895	WORD	n/a	wordpools/wordpool_EN.txt	WEED	10	11	[0, 0, 0]	n/a	FR1	0	R1145J
1469.348	0.95	1477511	WORD_OFF	n/a	n/a	WEED	10	11	[0, 0, 0]	n/a	FR1	0	R1145J
1470.298	1.618	1478461	WORD	n/a	wordpools/wordpool_EN.txt	PHONE	11	11	[0, 0, 0]	n/a	FR1	0	R1145J
1471.916	0.867	1480079	WORD_OFF	n/a	n/a	PHONE	11	11	[0, 0, 0]	n/a	FR1	0	R1145J
1472.783	1.616	1480946	WORD	n/a	wordpools/wordpool_EN.txt	FILM	12	11	[0, 0, 0]	n/a	FR1	0	R1145J
1474.399	0.0	1482562	DISTRACT_START	n/a	n/a	n/a	-999	11	[0, 0, 0]	n/a	FR1	0	R1145J
1474.399	0.0	1482562	WORD_OFF	n/a	n/a	FILM	12	11	[0, 0, 0]	n/a	FR1	0	R1145J
1474.399	0.016	1482562	START	n/a	n/a	n/a	-999	11	[-999, -999, -999]	n/a	FR1	0	R1145J
1474.415	7.868	1482578	PROB	7.868	n/a	n/a	-999	11	[4, 4, 9]	17	FR1	0	R1145J
1482.283	5.151	1490446	PROB	5.151	n/a	n/a	-999	11	[4, 8, 3]	15	FR1	0	R1145J
1487.434	4.667	1495597	PROB	4.667	n/a	n/a	-999	11	[1, 1, 6]	8	FR1	0	R1145J
1492.101	6.99	1500264	PROB	6.99	n/a	n/a	-999	11	[3, 6, 5]	14	FR1	0	R1145J
1499.091	0.011	1507254	STOP	n/a	n/a	n/a	-999	11	[-999, -999, -999]	n/a	FR1	0	R1145J
1499.102	0.551	1507265	DISTRACT_END	n/a	n/a	n/a	-999	11	[0, 0, 0]	n/a	FR1	0	R1145J
1499.653	0.516	1507816	RETRIEVAL_ORIENT	n/a	n/a	n/a	-999	11	[0, 0, 0]	n/a	FR1	0	R1145J
1500.169	1.844	1508332	REC_START	n/a	n/a	n/a	-999	11	[0, 0, 0]	n/a	FR1	0	R1145J
1502.013	0.95	1510176	REC_WORD	0.95	n/a	PEARL	1	11	[0, 0, 0]	n/a	FR1	0	R1145J
1502.963	1.71	1511126	REC_WORD	1.71	n/a	KEY	2	11	[0, 0, 0]	n/a	FR1	0	R1145J
1504.673	1.988	1512836	REC_WORD	1.988	n/a	CASH	3	11	[0, 0, 0]	n/a	FR1	0	R1145J
1506.661	1.32	1514824	REC_WORD	1.32	n/a	SCHOOL	4	11	[0, 0, 0]	n/a	FR1	0	R1145J
1507.981	1.945	1516144	REC_WORD	1.945	n/a	BANK	7	11	[0, 0, 0]	n/a	FR1	0	R1145J
1509.926	0.065	1518089	REC_WORD_VV	0.065	n/a	<>	-999	11	[0, 0, 0]	n/a	FR1	0	R1145J
1509.991	1.622	1518154	REC_WORD	1.622	n/a	JUDGE	6	11	[0, 0, 0]	n/a	FR1	0	R1145J
1511.613	4.285	1519776	REC_WORD	4.285	n/a	WEED	10	11	[0, 0, 0]	n/a	FR1	0	R1145J
1515.898	1.212	1524061	REC_WORD_VV	1.212	n/a	<>	-999	11	[0, 0, 0]	n/a	FR1	0	R1145J
1517.11	0.468	1525273	REC_WORD	0.468	n/a	PEARL	1	11	[0, 0, 0]	n/a	FR1	0	R1145J
1517.578	1.651	1525741	REC_WORD	1.651	n/a	KEY	2	11	[0, 0, 0]	n/a	FR1	0	R1145J
1519.229	1.276	1527392	REC_WORD	1.276	n/a	JUDGE	6	11	[0, 0, 0]	n/a	FR1	0	R1145J
1520.505	1.0	1528668	REC_WORD_VV	1.0	n/a	<>	-999	11	[0, 0, 0]	n/a	FR1	0	R1145J
1521.505	2.488	1529668	REC_WORD_VV	2.488	n/a	<>	-999	11	[0, 0, 0]	n/a	FR1	0	R1145J
1523.993	6.186	1532156	REC_WORD_VV	6.186	n/a	<>	-999	11	[0, 0, 0]	n/a	FR1	0	R1145J
1530.179	6.278	1538342	REC_END	n/a	n/a	n/a	-999	11	[0, 0, 0]	n/a	FR1	0	R1145J
1536.457	0.5	1544619	TRIAL	n/a	n/a	n/a	-999	12	[0, 0, 0]	n/a	FR1	0	R1145J
1536.957	10.428	1545119	COUNTDOWN_START	n/a	n/a	n/a	-999	12	[0, 0, 0]	n/a	FR1	0	R1145J
1547.385	0.007	1555547	COUNTDOWN_END	n/a	n/a	n/a	-999	12	[0, 0, 0]	n/a	FR1	0	R1145J
1547.392	1.618	1555554	ORIENT	n/a	n/a	n/a	-999	12	[0, 0, 0]	n/a	FR1	0	R1145J
1549.01	2.082	1557172	ORIENT_OFF	n/a	n/a	n/a	-999	12	[0, 0, 0]	n/a	FR1	0	R1145J
1551.092	1.601	1559254	WORD	n/a	wordpools/wordpool_EN.txt	AXE	1	12	[0, 0, 0]	n/a	FR1	0	R1145J
1552.693	0.833	1560855	WORD_OFF	n/a	n/a	AXE	1	12	[0, 0, 0]	n/a	FR1	0	R1145J
1553.526	1.617	1561688	WORD	n/a	wordpools/wordpool_EN.txt	BRICK	2	12	[0, 0, 0]	n/a	FR1	0	R1145J
1555.143	0.933	1563305	WORD_OFF	n/a	n/a	BRICK	2	12	[0, 0, 0]	n/a	FR1	0	R1145J
1556.076	1.618	1564238	WORD	n/a	wordpools/wordpool_EN.txt	PIE	3	12	[0, 0, 0]	n/a	FR1	0	R1145J
1557.694	0.783	1565856	WORD_OFF	n/a	n/a	PIE	3	12	[0, 0, 0]	n/a	FR1	0	R1145J
1558.477	1.616	1566639	WORD	n/a	wordpools/wordpool_EN.txt	ROOM	4	12	[0, 0, 0]	n/a	FR1	0	R1145J
1560.093	0.818	1568255	WORD_OFF	n/a	n/a	ROOM	4	12	[0, 0, 0]	n/a	FR1	0	R1145J
1560.911	1.616	1569073	WORD	n/a	wordpools/wordpool_EN.txt	TRAY	5	12	[0, 0, 0]	n/a	FR1	0	R1145J
1562.527	0.95	1570689	WORD_OFF	n/a	n/a	TRAY	5	12	[0, 0, 0]	n/a	FR1	0	R1145J
1563.477	1.617	1571639	WORD	n/a	wordpools/wordpool_EN.txt	BAG	6	12	[0, 0, 0]	n/a	FR1	0	R1145J
1565.094	0.801	1573256	WORD_OFF	n/a	n/a	BAG	6	12	[0, 0, 0]	n/a	FR1	0	R1145J
1565.895	1.616	1574057	WORD	n/a	wordpools/wordpool_EN.txt	WOOD	7	12	[0, 0, 0]	n/a	FR1	0	R1145J
1567.511	0.9	1575673	WORD_OFF	n/a	n/a	WOOD	7	12	[0, 0, 0]	n/a	FR1	0	R1145J
1568.411	1.617	1576573	WORD	n/a	wordpools/wordpool_EN.txt	FOOT	8	12	[0, 0, 0]	n/a	FR1	0	R1145J
1570.028	0.801	1578190	WORD_OFF	n/a	n/a	FOOT	8	12	[0, 0, 0]	n/a	FR1	0	R1145J
1570.829	1.616	1578991	WORD	n/a	wordpools/wordpool_EN.txt	SPOON	9	12	[0, 0, 0]	n/a	FR1	0	R1145J
1572.445	0.884	1580607	WORD_OFF	n/a	n/a	SPOON	9	12	[0, 0, 0]	n/a	FR1	0	R1145J
1573.329	1.618	1581491	WORD	n/a	wordpools/wordpool_EN.txt	RIB	10	12	[0, 0, 0]	n/a	FR1	0	R1145J
1574.947	0.966	1583109	WORD_OFF	n/a	n/a	RIB	10	12	[0, 0, 0]	n/a	FR1	0	R1145J
1575.913	1.616	1584075	WORD	n/a	wordpools/wordpool_EN.txt	STAIR	11	12	[0, 0, 0]	n/a	FR1	0	R1145J
1577.529	0.901	1585691	WORD_OFF	n/a	n/a	STAIR	11	12	[0, 0, 0]	n/a	FR1	0	R1145J
1578.43	1.616	1586592	WORD	n/a	wordpools/wordpool_EN.txt	MUG	12	12	[0, 0, 0]	n/a	FR1	0	R1145J
1580.046	0.0	1588208	DISTRACT_START	n/a	n/a	n/a	-999	12	[0, 0, 0]	n/a	FR1	0	R1145J
1580.046	0.001	1588208	WORD_OFF	n/a	n/a	MUG	12	12	[0, 0, 0]	n/a	FR1	0	R1145J
1580.047	0.016	1588209	START	n/a	n/a	n/a	-999	12	[-999, -999, -999]	n/a	FR1	0	R1145J
1580.063	35.633	1588225	PROB	35.633	n/a	n/a	-999	12	[8, 9, 5]	22	FR1	0	R1145J
1615.696	0.006	1623857	STOP	n/a	n/a	n/a	-999	12	[-999, -999, -999]	n/a	FR1	0	R1145J
1615.702	0.516	1623863	DISTRACT_END	n/a	n/a	n/a	-999	12	[0, 0, 0]	n/a	FR1	0	R1145J
1616.218	0.518	1624379	RETRIEVAL_ORIENT	n/a	n/a	n/a	-999	12	[0, 0, 0]	n/a	FR1	0	R1145J
1616.736	11.06	1624897	REC_START	n/a	n/a	n/a	-999	12	[0, 0, 0]	n/a	FR1	0	R1145J
1627.796	0.917	1635957	REC_WORD	0.917	n/a	AXE	1	12	[0, 0, 0]	n/a	FR1	0	R1145J
1628.713	1.306	1636874	REC_WORD	1.306	n/a	PIE	3	12	[0, 0, 0]	n/a	FR1	0	R1145J
1630.019	3.034	1638180	REC_WORD	3.034	n/a	BRICK	2	12	[0, 0, 0]	n/a	FR1	0	R1145J
1633.053	7.135	1641214	REC_WORD	7.135	n/a	WOOD	7	12	[0, 0, 0]	n/a	FR1	0	R1145J
1640.188	1.0	1648349	REC_WORD_VV	1.0	n/a	<>	-999	12	[0, 0, 0]	n/a	FR1	0	R1145J
1641.188	5.559	1649349	REC_WORD_VV	5.559	n/a	<>	-999	12	[0, 0, 0]	n/a	FR1	0	R1145J
1646.747	7.06	1654908	REC_END	n/a	n/a	n/a	-999	12	[0, 0, 0]	n/a	FR1	0	R1145J
1653.807	0.5	1661968	TRIAL	n/a	n/a	n/a	-999	13	[0, 0, 0]	n/a	FR1	0	R1145J
1654.307	10.428	1662468	COUNTDOWN_START	n/a	n/a	n/a	-999	13	[0, 0, 0]	n/a	FR1	0	R1145J
1664.735	0.007	1672896	COUNTDOWN_END	n/a	n/a	n/a	-999	13	[0, 0, 0]	n/a	FR1	0	R1145J
1664.742	1.616	1672903	ORIENT	n/a	n/a	n/a	-999	13	[0, 0, 0]	n/a	FR1	0	R1145J
1666.358	2.2	1674519	ORIENT_OFF	n/a	n/a	n/a	-999	13	[0, 0, 0]	n/a	FR1	0	R1145J
1668.558	1.617	1676719	WORD	n/a	wordpools/wordpool_EN.txt	JAIL	1	13	[0, 0, 0]	n/a	FR1	0	R1145J
1670.175	0.983	1678336	WORD_OFF	n/a	n/a	JAIL	1	13	[0, 0, 0]	n/a	FR1	0	R1145J
1671.158	1.618	1679319	WORD	n/a	wordpools/wordpool_EN.txt	TRASH	2	13	[0, 0, 0]	n/a	FR1	0	R1145J
1672.776	0.984	1680936	WORD_OFF	n/a	n/a	TRASH	2	13	[0, 0, 0]	n/a	FR1	0	R1145J
1673.76	1.616	1681920	WORD	n/a	wordpools/wordpool_EN.txt	LAND	3	13	[0, 0, 0]	n/a	FR1	0	R1145J
1675.376	0.966	1683536	WORD_OFF	n/a	n/a	LAND	3	13	[0, 0, 0]	n/a	FR1	0	R1145J
1676.342	1.601	1684502	WORD	n/a	wordpools/wordpool_EN.txt	SKI	4	13	[0, 0, 0]	n/a	FR1	0	R1145J
1677.943	0.818	1686103	WORD_OFF	n/a	n/a	SKI	4	13	[0, 0, 0]	n/a	FR1	0	R1145J
1678.761	1.615	1686921	WORD	n/a	wordpools/wordpool_EN.txt	BREAD	5	13	[0, 0, 0]	n/a	FR1	0	R1145J
1680.376	0.8	1688536	WORD_OFF	n/a	n/a	BREAD	5	13	[0, 0, 0]	n/a	FR1	0	R1145J
1681.176	1.618	1689336	WORD	n/a	wordpools/wordpool_EN.txt	CORN	6	13	[0, 0, 0]	n/a	FR1	0	R1145J
1682.794	0.9	1690954	WORD_OFF	n/a	n/a	CORN	6	13	[0, 0, 0]	n/a	FR1	0	R1145J
1683.694	1.616	1691854	WORD	n/a	wordpools/wordpool_EN.txt	MAP	7	13	[0, 0, 0]	n/a	FR1	0	R1145J
1685.31	0.8	1693470	WORD_OFF	n/a	n/a	MAP	7	13	[0, 0, 0]	n/a	FR1	0	R1145J
1686.11	1.601	1694270	WORD	n/a	wordpools/wordpool_EN.txt	CAT	8	13	[0, 0, 0]	n/a	FR1	0	R1145J
1687.711	0.934	1695871	WORD_OFF	n/a	n/a	CAT	8	13	[0, 0, 0]	n/a	FR1	0	R1145J
1688.645	1.616	1696805	WORD	n/a	wordpools/wordpool_EN.txt	BAND	9	13	[0, 0, 0]	n/a	FR1	0	R1145J
1690.261	1.0	1698421	WORD_OFF	n/a	n/a	BAND	9	13	[0, 0, 0]	n/a	FR1	0	R1145J
1691.261	1.618	1699421	WORD	n/a	wordpools/wordpool_EN.txt	PLANT	10	13	[0, 0, 0]	n/a	FR1	0	R1145J
1692.879	0.8	1701039	WORD_OFF	n/a	n/a	PLANT	10	13	[0, 0, 0]	n/a	FR1	0	R1145J
1693.679	1.616	1701839	WORD	n/a	wordpools/wordpool_EN.txt	SLUSH	11	13	[0, 0, 0]	n/a	FR1	0	R1145J
1695.295	0.834	1703455	WORD_OFF	n/a	n/a	SLUSH	11	13	[0, 0, 0]	n/a	FR1	0	R1145J
1696.129	1.601	1704289	WORD	n/a	wordpools/wordpool_EN.txt	DOG	12	13	[0, 0, 0]	n/a	FR1	0	R1145J
1697.73	0.0	1705890	WORD_OFF	n/a	n/a	DOG	12	13	[0, 0, 0]	n/a	FR1	0	R1145J
1697.73	0.0	1705890	DISTRACT_START	n/a	n/a	n/a	-999	13	[0, 0, 0]	n/a	FR1	0	R1145J
1697.73	0.017	1705890	START	n/a	n/a	n/a	-999	13	[-999, -999, -999]	n/a	FR1	0	R1145J
1697.747	296.407	1705907	PROB	296.407	n/a	n/a	-999	13	[3, 7, 2]	9	FR1	0	R1145J
1994.154	0.014	2002310	STOP	n/a	n/a	n/a	-999	13	[-999, -999, -999]	n/a	FR1	0	R1145J
1994.168	0.534	2002324	DISTRACT_END	n/a	n/a	n/a	-999	13	[0, 0, 0]	n/a	FR1	0	R1145J
1994.702	0.517	2002858	RETRIEVAL_ORIENT	n/a	n/a	n/a	-999	13	[0, 0, 0]	n/a	FR1	0	R1145J
1995.219	30.0	2003375	REC_START	n/a	n/a	n/a	-999	13	[0, 0, 0]	n/a	FR1	0	R1145J
2025.219	0.01	2033374	REC_WORD_VV	0.01	n/a	<>	-999	13	[0, 0, 0]	n/a	FR1	0	R1145J
2025.229	19.229	2033384	REC_END	n/a	n/a	n/a	-999	13	[0, 0, 0]	n/a	FR1	0	R1145J
2044.458	0.5	2052613	TRIAL	n/a	n/a	n/a	-999	14	[0, 0, 0]	n/a	FR1	0	R1145J
2044.958	10.428	2053113	COUNTDOWN_START	n/a	n/a	n/a	-999	14	[0, 0, 0]	n/a	FR1	0	R1145J
2055.386	0.007	2063541	COUNTDOWN_END	n/a	n/a	n/a	-999	14	[0, 0, 0]	n/a	FR1	0	R1145J
2055.393	1.618	2063548	ORIENT	n/a	n/a	n/a	-999	14	[0, 0, 0]	n/a	FR1	0	R1145J
2057.011	2.215	2065166	ORIENT_OFF	n/a	n/a	n/a	-999	14	[0, 0, 0]	n/a	FR1	0	R1145J
2059.226	1.602	2067381	WORD	n/a	wordpools/wordpool_EN.txt	CLOWN	1	14	[0, 0, 0]	n/a	FR1	0	R1145J
2060.828	0.783	2068983	WORD_OFF	n/a	n/a	CLOWN	1	14	[0, 0, 0]	n/a	FR1	0	R1145J
2061.611	1.616	2069766	WORD	n/a	wordpools/wordpool_EN.txt	SMILE	2	14	[0, 0, 0]	n/a	FR1	0	R1145J
2063.227	0.95	2071382	WORD_OFF	n/a	n/a	SMILE	2	14	[0, 0, 0]	n/a	FR1	0	R1145J
2064.177	1.618	2072332	WORD	n/a	wordpools/wordpool_EN.txt	TOY	3	14	[0, 0, 0]	n/a	FR1	0	R1145J
2065.795	0.984	2073950	WORD_OFF	n/a	n/a	TOY	3	14	[0, 0, 0]	n/a	FR1	0	R1145J
2066.779	1.616	2074934	WORD	n/a	wordpools/wordpool_EN.txt	PASTE	4	14	[0, 0, 0]	n/a	FR1	0	R1145J
2068.395	0.933	2076550	WORD_OFF	n/a	n/a	PASTE	4	14	[0, 0, 0]	n/a	FR1	0	R1145J
2069.328	1.618	2077483	WORD	n/a	wordpools/wordpool_EN.txt	TOOTH	5	14	[0, 0, 0]	n/a	FR1	0	R1145J
2070.946	0.983	2079101	WORD_OFF	n/a	n/a	TOOTH	5	14	[0, 0, 0]	n/a	FR1	0	R1145J
2071.929	1.616	2080084	WORD	n/a	wordpools/wordpool_EN.txt	BADGE	6	14	[0, 0, 0]	n/a	FR1	0	R1145J
2073.545	0.8	2081700	WORD_OFF	n/a	n/a	BADGE	6	14	[0, 0, 0]	n/a	FR1	0	R1145J
2074.345	1.618	2082500	WORD	n/a	wordpools/wordpool_EN.txt	DESK	7	14	[0, 0, 0]	n/a	FR1	0	R1145J
2075.963	0.917	2084118	WORD_OFF	n/a	n/a	DESK	7	14	[0, 0, 0]	n/a	FR1	0	R1145J
2076.88	1.616	2085035	WORD	n/a	wordpools/wordpool_EN.txt	HAWK	8	14	[0, 0, 0]	n/a	FR1	0	R1145J
2078.496	0.833	2086651	WORD_OFF	n/a	n/a	HAWK	8	14	[0, 0, 0]	n/a	FR1	0	R1145J
2079.329	1.618	2087484	WORD	n/a	wordpools/wordpool_EN.txt	DOOR	9	14	[0, 0, 0]	n/a	FR1	0	R1145J
2080.947	0.933	2089102	WORD_OFF	n/a	n/a	DOOR	9	14	[0, 0, 0]	n/a	FR1	0	R1145J
2081.88	1.616	2090035	WORD	n/a	wordpools/wordpool_EN.txt	DUCK	10	14	[0, 0, 0]	n/a	FR1	0	R1145J
2083.496	0.784	2091651	WORD_OFF	n/a	n/a	DUCK	10	14	[0, 0, 0]	n/a	FR1	0	R1145J
2084.28	1.618	2092435	WORD	n/a	wordpools/wordpool_EN.txt	ROPE	11	14	[0, 0, 0]	n/a	FR1	0	R1145J
2085.898	0.983	2094053	WORD_OFF	n/a	n/a	ROPE	11	14	[0, 0, 0]	n/a	FR1	0	R1145J
2086.881	1.616	2095035	WORD	n/a	wordpools/wordpool_EN.txt	GLOVE	12	14	[0, 0, 0]	n/a	FR1	0	R1145J
2088.497	0.0	2096651	WORD_OFF	n/a	n/a	GLOVE	12	14	[0, 0, 0]	n/a	FR1	0	R1145J
2088.497	0.001	2096651	DISTRACT_START	n/a	n/a	n/a	-999	14	[0, 0, 0]	n/a	FR1	0	R1145J
2088.498	0.016	2096652	START	n/a	n/a	n/a	-999	14	[-999, -999, -999]	n/a	FR1	0	R1145J
2088.514	16.47	2096668	PROB	16.47	n/a	n/a	-999	14	[4, 9, 5]	18	FR1	0	R1145J
2104.984	8.03	2113138	PROB	8.03	n/a	n/a	-999	14	[6, 5, 6]	17	FR1	0	R1145J
2113.014	0.02	2121168	STOP	n/a	n/a	n/a	-999	14	[-999, -999, -999]	n/a	FR1	0	R1145J
2113.034	0.668	2121188	DISTRACT_END	n/a	n/a	n/a	-999	14	[0, 0, 0]	n/a	FR1	0	R1145J
2113.702	0.516	2121856	RETRIEVAL_ORIENT	n/a	n/a	n/a	-999	14	[0, 0, 0]	n/a	FR1	0	R1145J
2114.218	1.912	2122372	REC_START	n/a	n/a	n/a	-999	14	[0, 0, 0]	n/a	FR1	0	R1145J
2116.13	0.944	2124284	REC_WORD	0.944	n/a	CLOWN	1	14	[0, 0, 0]	n/a	FR1	0	R1145J
2117.074	1.174	2125228	REC_WORD	1.174	n/a	TOY	3	14	[0, 0, 0]	n/a	FR1	0	R1145J
2118.248	1.504	2126402	REC_WORD	1.504	n/a	PASTE	4	14	[0, 0, 0]	n/a	FR1	0	R1145J
2119.752	1.148	2127906	REC_WORD	1.148	n/a	DUCK	10	14	[0, 0, 0]	n/a	FR1	0	R1145J
2120.9	23.327	2129054	REC_WORD	23.327	n/a	SMILE	2	14	[0, 0, 0]	n/a	FR1	0	R1145J
2144.227	5.646	2152381	REC_END	n/a	n/a	n/a	-999	14	[0, 0, 0]	n/a	FR1	0	R1145J
2149.873	0.5	2158027	TRIAL	n/a	n/a	n/a	-999	15	[0, 0, 0]	n/a	FR1	0	R1145J
2150.373	10.428	2158527	COUNTDOWN_START	n/a	n/a	n/a	-999	15	[0, 0, 0]	n/a	FR1	0	R1145J
2160.801	0.007	2168954	COUNTDOWN_END	n/a	n/a	n/a	-999	15	[0, 0, 0]	n/a	FR1	0	R1145J
2160.808	1.615	2168961	ORIENT	n/a	n/a	n/a	-999	15	[0, 0, 0]	n/a	FR1	0	R1145J
2162.423	2.134	2170576	ORIENT_OFF	n/a	n/a	n/a	-999	15	[0, 0, 0]	n/a	FR1	0	R1145J
2164.557	1.617	2172710	WORD	n/a	wordpools/wordpool_EN.txt	OAR	1	15	[0, 0, 0]	n/a	FR1	0	R1145J
2166.174	0.884	2174327	WORD_OFF	n/a	n/a	OAR	1	15	[0, 0, 0]	n/a	FR1	0	R1145J
2167.058	1.618	2175211	WORD	n/a	wordpools/wordpool_EN.txt	CHALK	2	15	[0, 0, 0]	n/a	FR1	0	R1145J
2168.676	0.832	2176829	WORD_OFF	n/a	n/a	CHALK	2	15	[0, 0, 0]	n/a	FR1	0	R1145J
2169.508	1.617	2177661	WORD	n/a	wordpools/wordpool_EN.txt	DRUM	3	15	[0, 0, 0]	n/a	FR1	0	R1145J
2171.125	0.834	2179278	WORD_OFF	n/a	n/a	DRUM	3	15	[0, 0, 0]	n/a	FR1	0	R1145J
2171.959	1.616	2180112	WORD	n/a	wordpools/wordpool_EN.txt	VEST	4	15	[0, 0, 0]	n/a	FR1	0	R1145J
2173.575	0.967	2181728	WORD_OFF	n/a	n/a	VEST	4	15	[0, 0, 0]	n/a	FR1	0	R1145J
2174.542	1.617	2182695	WORD	n/a	wordpools/wordpool_EN.txt	HOSE	5	15	[0, 0, 0]	n/a	FR1	0	R1145J
2176.159	0.934	2184312	WORD_OFF	n/a	n/a	HOSE	5	15	[0, 0, 0]	n/a	FR1	0	R1145J
2177.093	1.618	2185246	WORD	n/a	wordpools/wordpool_EN.txt	SLEEVE	6	15	[0, 0, 0]	n/a	FR1	0	R1145J
2178.711	0.865	2186864	WORD_OFF	n/a	n/a	SLEEVE	6	15	[0, 0, 0]	n/a	FR1	0	R1145J
2179.576	1.617	2187729	WORD	n/a	wordpools/wordpool_EN.txt	TREE	7	15	[0, 0, 0]	n/a	FR1	0	R1145J
2181.193	0.983	2189346	WORD_OFF	n/a	n/a	TREE	7	15	[0, 0, 0]	n/a	FR1	0	R1145J
2182.176	1.618	2190329	WORD	n/a	wordpools/wordpool_EN.txt	NOSE	8	15	[0, 0, 0]	n/a	FR1	0	R1145J
2183.794	0.817	2191947	WORD_OFF	n/a	n/a	NOSE	8	15	[0, 0, 0]	n/a	FR1	0	R1145J
2184.611	1.616	2192764	WORD	n/a	wordpools/wordpool_EN.txt	DOLL	9	15	[0, 0, 0]	n/a	FR1	0	R1145J
2186.227	0.934	2194380	WORD_OFF	n/a	n/a	DOLL	9	15	[0, 0, 0]	n/a	FR1	0	R1145J
2187.161	1.618	2195314	WORD	n/a	wordpools/wordpool_EN.txt	BRUSH	10	15	[0, 0, 0]	n/a	FR1	0	R1145J
2188.779	0.916	2196932	WORD_OFF	n/a	n/a	BRUSH	10	15	[0, 0, 0]	n/a	FR1	0	R1145J
2189.695	1.616	2197848	WORD	n/a	wordpools/wordpool_EN.txt	JEEP	11	15	[0, 0, 0]	n/a	FR1	0	R1145J
2191.311	0.783	2199464	WORD_OFF	n/a	n/a	JEEP	11	15	[0, 0, 0]	n/a	FR1	0	R1145J
2192.094	1.618	2200247	WORD	n/a	wordpools/wordpool_EN.txt	PEN	12	15	[0, 0, 0]	n/a	FR1	0	R1145J
2193.712	0.0	2201865	WORD_OFF	n/a	n/a	PEN	12	15	[0, 0, 0]	n/a	FR1	0	R1145J
2193.712	0.001	2201865	DISTRACT_START	n/a	n/a	n/a	-999	15	[0, 0, 0]	n/a	FR1	0	R1145J
2193.713	0.016	2201866	START	n/a	n/a	n/a	-999	15	[-999, -999, -999]	n/a	FR1	0	R1145J
2193.729	7.583	2201882	PROB	7.583	n/a	n/a	-999	15	[4, 4, 8]	16	FR1	0	R1145J
2201.312	5.985	2209465	PROB	5.985	n/a	n/a	-999	15	[8, 2, 3]	13	FR1	0	R1145J
2207.297	5.233	2215450	PROB	5.233	n/a	n/a	-999	15	[4, 6, 1]	11	FR1	0	R1145J
2212.53	5.081	2220683	PROB	5.081	n/a	n/a	-999	15	[1, 4, 4]	9	FR1	0	R1145J
2217.611	0.021	2225764	STOP	n/a	n/a	n/a	-999	15	[-999, -999, -999]	n/a	FR1	0	R1145J
2217.632	0.583	2225785	DISTRACT_END	n/a	n/a	n/a	-999	15	[0, 0, 0]	n/a	FR1	0	R1145J
2218.215	0.518	2226368	RETRIEVAL_ORIENT	n/a	n/a	n/a	-999	15	[0, 0, 0]	n/a	FR1	0	R1145J
2218.733	1.348	2226886	REC_START	n/a	n/a	n/a	-999	15	[0, 0, 0]	n/a	FR1	0	R1145J
2220.081	1.446	2228234	REC_WORD	1.446	n/a	OAR	1	15	[0, 0, 0]	n/a	FR1	0	R1145J
2221.527	1.532	2229680	REC_WORD	1.532	n/a	CHALK	2	15	[0, 0, 0]	n/a	FR1	0	R1145J
2223.059	2.055	2231212	REC_WORD	2.055	n/a	VEST	4	15	[0, 0, 0]	n/a	FR1	0	R1145J
2225.114	2.431	2233266	REC_WORD	2.431	n/a	SLEEVE	6	15	[0, 0, 0]	n/a	FR1	0	R1145J
2227.545	3.472	2235697	REC_WORD	3.472	n/a	TREE	7	15	[0, 0, 0]	n/a	FR1	0	R1145J
2231.017	5.703	2239169	REC_WORD	5.703	n/a	SLIM	-999	15	[0, 0, 0]	n/a	FR1	0	R1145J
2236.72	1.743	2244872	REC_WORD	1.743	n/a	CHIN	-999	15	[0, 0, 0]	n/a	FR1	0	R1145J
2238.463	1.0	2246615	REC_WORD_VV	1.0	n/a	<>	-999	15	[0, 0, 0]	n/a	FR1	0	R1145J
2239.463	9.28	2247615	REC_WORD_VV	9.28	n/a	<>	-999	15	[0, 0, 0]	n/a	FR1	0	R1145J
2248.743	5.111	2256895	REC_END	n/a	n/a	n/a	-999	15	[0, 0, 0]	n/a	FR1	0	R1145J
2253.854	0.5	2262006	TRIAL	n/a	n/a	n/a	-999	16	[0, 0, 0]	n/a	FR1	0	R1145J
2254.354	10.428	2262506	COUNTDOWN_START	n/a	n/a	n/a	-999	16	[0, 0, 0]	n/a	FR1	0	R1145J
2264.782	0.007	2272934	COUNTDOWN_END	n/a	n/a	n/a	-999	16	[0, 0, 0]	n/a	FR1	0	R1145J
2264.789	1.616	2272941	ORIENT	n/a	n/a	n/a	-999	16	[0, 0, 0]	n/a	FR1	0	R1145J
2266.405	2.368	2274557	ORIENT_OFF	n/a	n/a	n/a	-999	16	[0, 0, 0]	n/a	FR1	0	R1145J
2268.773	1.615	2276925	WORD	n/a	wordpools/wordpool_EN.txt	VASE	1	16	[0, 0, 0]	n/a	FR1	0	R1145J
2270.388	0.967	2278540	WORD_OFF	n/a	n/a	VASE	1	16	[0, 0, 0]	n/a	FR1	0	R1145J
2271.355	1.618	2279507	WORD	n/a	wordpools/wordpool_EN.txt	FLUTE	2	16	[0, 0, 0]	n/a	FR1	0	R1145J
2272.973	0.933	2281125	WORD_OFF	n/a	n/a	FLUTE	2	16	[0, 0, 0]	n/a	FR1	0	R1145J
2273.906	1.616	2282058	WORD	n/a	wordpools/wordpool_EN.txt	SHIELD	3	16	[0, 0, 0]	n/a	FR1	0	R1145J
2275.522	0.834	2283674	WORD_OFF	n/a	n/a	SHIELD	3	16	[0, 0, 0]	n/a	FR1	0	R1145J
2276.356	1.618	2284508	WORD	n/a	wordpools/wordpool_EN.txt	POOL	4	16	[0, 0, 0]	n/a	FR1	0	R1145J
2277.974	0.9	2286126	WORD_OFF	n/a	n/a	POOL	4	16	[0, 0, 0]	n/a	FR1	0	R1145J
2278.874	1.615	2287026	WORD	n/a	wordpools/wordpool_EN.txt	BENCH	5	16	[0, 0, 0]	n/a	FR1	0	R1145J
2280.489	0.951	2288641	WORD_OFF	n/a	n/a	BENCH	5	16	[0, 0, 0]	n/a	FR1	0	R1145J
2281.44	1.617	2289592	WORD	n/a	wordpools/wordpool_EN.txt	CLOTH	6	16	[0, 0, 0]	n/a	FR1	0	R1145J
2283.057	0.917	2291209	WORD_OFF	n/a	n/a	CLOTH	6	16	[0, 0, 0]	n/a	FR1	0	R1145J
2283.974	1.616	2292126	WORD	n/a	wordpools/wordpool_EN.txt	NAIL	7	16	[0, 0, 0]	n/a	FR1	0	R1145J
2285.59	0.95	2293742	WORD_OFF	n/a	n/a	NAIL	7	16	[0, 0, 0]	n/a	FR1	0	R1145J
2286.54	1.617	2294692	WORD	n/a	wordpools/wordpool_EN.txt	YARD	8	16	[0, 0, 0]	n/a	FR1	0	R1145J
2288.157	0.818	2296309	WORD_OFF	n/a	n/a	YARD	8	16	[0, 0, 0]	n/a	FR1	0	R1145J
2288.975	1.616	2297127	WORD	n/a	wordpools/wordpool_EN.txt	THREAD	9	16	[0, 0, 0]	n/a	FR1	0	R1145J
2290.591	1.0	2298743	WORD_OFF	n/a	n/a	THREAD	9	16	[0, 0, 0]	n/a	FR1	0	R1145J
2291.591	1.617	2299743	WORD	n/a	wordpools/wordpool_EN.txt	FAN	10	16	[0, 0, 0]	n/a	FR1	0	R1145J
2293.208	0.801	2301359	WORD_OFF	n/a	n/a	FAN	10	16	[0, 0, 0]	n/a	FR1	0	R1145J
2294.009	1.617	2302160	WORD	n/a	wordpools/wordpool_EN.txt	GATE	11	16	[0, 0, 0]	n/a	FR1	0	R1145J
2295.626	0.799	2303777	WORD_OFF	n/a	n/a	GATE	11	16	[0, 0, 0]	n/a	FR1	0	R1145J
2296.425	1.617	2304576	WORD	n/a	wordpools/wordpool_EN.txt	DRESS	12	16	[0, 0, 0]	n/a	FR1	0	R1145J
2298.042	0.0	2306193	WORD_OFF	n/a	n/a	DRESS	12	16	[0, 0, 0]	n/a	FR1	0	R1145J
2298.042	0.001	2306193	DISTRACT_START	n/a	n/a	n/a	-999	16	[0, 0, 0]	n/a	FR1	0	R1145J
2298.043	0.016	2306194	START	n/a	n/a	n/a	-999	16	[-999, -999, -999]	n/a	FR1	0	R1145J
2298.059	6.935	2306210	PROB	6.935	n/a	n/a	-999	16	[9, 2, 2]	13	FR1	0	R1145J
2304.994	4.466	2313145	PROB	4.466	n/a	n/a	-999	16	[2, 4, 6]	12	FR1	0	R1145J
2309.46	7.952	2317611	PROB	7.952	n/a	n/a	-999	16	[3, 6, 8]	15	FR1	0	R1145J
2317.412	9.019	2325563	PROB	9.019	n/a	n/a	-999	16	[8, 1, 8]	17	FR1	0	R1145J
2326.431	0.015	2334582	STOP	n/a	n/a	n/a	-999	16	[-999, -999, -999]	n/a	FR1	0	R1145J
2326.446	0.616	2334597	DISTRACT_END	n/a	n/a	n/a	-999	16	[0, 0, 0]	n/a	FR1	0	R1145J
2327.062	0.518	2335213	RETRIEVAL_ORIENT	n/a	n/a	n/a	-999	16	[0, 0, 0]	n/a	FR1	0	R1145J
2327.58	1.529	2335731	REC_START	n/a	n/a	n/a	-999	16	[0, 0, 0]	n/a	FR1	0	R1145J
2329.109	0.908	2337260	REC_WORD	0.908	n/a	YARD	8	16	[0, 0, 0]	n/a	FR1	0	R1145J
2330.017	0.769	2338168	REC_WORD	0.769	n/a	BREAD	-999	16	[0, 0, 0]	n/a	FR1	0	R1145J
2330.786	0.159	2338937	REC_WORD_VV	0.159	n/a	<>	-999	16	[0, 0, 0]	n/a	FR1	0	R1145J
2330.945	1.247	2339096	REC_WORD	1.247	n/a	FAN	10	16	[0, 0, 0]	n/a	FR1	0	R1145J
2332.192	25.399	2340343	REC_WORD	25.399	n/a	GATE	11	16	[0, 0, 0]	n/a	FR1	0	R1145J
2357.591	7.411	2365742	REC_END	n/a	n/a	n/a	-999	16	[0, 0, 0]	n/a	FR1	0	R1145J
2365.002	0.5	2373152	TRIAL	n/a	n/a	n/a	-999	17	[0, 0, 0]	n/a	FR1	0	R1145J
2365.502	10.428	2373652	COUNTDOWN_START	n/a	n/a	n/a	-999	17	[0, 0, 0]	n/a	FR1	0	R1145J
2375.93	0.007	2384080	COUNTDOWN_END	n/a	n/a	n/a	-999	17	[0, 0, 0]	n/a	FR1	0	R1145J
2375.937	1.616	2384087	ORIENT	n/a	n/a	n/a	-999	17	[0, 0, 0]	n/a	FR1	0	R1145J
2377.553	1.816	2385703	ORIENT_OFF	n/a	n/a	n/a	-999	17	[0, 0, 0]	n/a	FR1	0	R1145J
2379.369	1.618	2387519	WORD	n/a	wordpools/wordpool_EN.txt	FOOD	1	17	[0, 0, 0]	n/a	FR1	0	R1145J
2380.987	0.85	2389137	WORD_OFF	n/a	n/a	FOOD	1	17	[0, 0, 0]	n/a	FR1	0	R1145J
2381.837	1.617	2389987	WORD	n/a	wordpools/wordpool_EN.txt	MUD	2	17	[0, 0, 0]	n/a	FR1	0	R1145J
2383.454	0.816	2391604	WORD_OFF	n/a	n/a	MUD	2	17	[0, 0, 0]	n/a	FR1	0	R1145J
2384.27	1.618	2392420	WORD	n/a	wordpools/wordpool_EN.txt	WORM	3	17	[0, 0, 0]	n/a	FR1	0	R1145J
2385.888	1.0	2394038	WORD_OFF	n/a	n/a	WORM	3	17	[0, 0, 0]	n/a	FR1	0	R1145J
2386.888	1.616	2395038	WORD	n/a	wordpools/wordpool_EN.txt	FUDGE	4	17	[0, 0, 0]	n/a	FR1	0	R1145J
2388.504	0.867	2396654	WORD_OFF	n/a	n/a	FUDGE	4	17	[0, 0, 0]	n/a	FR1	0	R1145J
2389.371	1.618	2397521	WORD	n/a	wordpools/wordpool_EN.txt	MOLE	5	17	[0, 0, 0]	n/a	FR1	0	R1145J
2390.989	0.933	2399139	WORD_OFF	n/a	n/a	MOLE	5	17	[0, 0, 0]	n/a	FR1	0	R1145J
2391.922	1.616	2400072	WORD	n/a	wordpools/wordpool_EN.txt	WEB	6	17	[0, 0, 0]	n/a	FR1	0	R1145J
2393.538	0.867	2401688	WORD_OFF	n/a	n/a	WEB	6	17	[0, 0, 0]	n/a	FR1	0	R1145J
2394.405	1.618	2402555	WORD	n/a	wordpools/wordpool_EN.txt	SHELL	7	17	[0, 0, 0]	n/a	FR1	0	R1145J
2396.023	0.967	2404173	WORD_OFF	n/a	n/a	SHELL	7	17	[0, 0, 0]	n/a	FR1	0	R1145J
2396.99	1.617	2405140	WORD	n/a	wordpools/wordpool_EN.txt	SPONGE	8	17	[0, 0, 0]	n/a	FR1	0	R1145J
2398.607	0.898	2406757	WORD_OFF	n/a	n/a	SPONGE	8	17	[0, 0, 0]	n/a	FR1	0	R1145J
2399.505	1.617	2407655	WORD	n/a	wordpools/wordpool_EN.txt	ZOO	9	17	[0, 0, 0]	n/a	FR1	0	R1145J
2401.122	0.801	2409272	WORD_OFF	n/a	n/a	ZOO	9	17	[0, 0, 0]	n/a	FR1	0	R1145J
2401.923	1.616	2410073	WORD	n/a	wordpools/wordpool_EN.txt	CAVE	10	17	[0, 0, 0]	n/a	FR1	0	R1145J
2403.539	0.784	2411689	WORD_OFF	n/a	n/a	CAVE	10	17	[0, 0, 0]	n/a	FR1	0	R1145J
2404.323	1.618	2412473	WORD	n/a	wordpools/wordpool_EN.txt	SEAL	11	17	[0, 0, 0]	n/a	FR1	0	R1145J
2405.941	0.85	2414091	WORD_OFF	n/a	n/a	SEAL	11	17	[0, 0, 0]	n/a	FR1	0	R1145J
2406.791	1.616	2414941	WORD	n/a	wordpools/wordpool_EN.txt	SNAKE	12	17	[0, 0, 0]	n/a	FR1	0	R1145J
2408.407	0.0	2416557	WORD_OFF	n/a	n/a	SNAKE	12	17	[0, 0, 0]	n/a	FR1	0	R1145J
2408.407	0.0	2416557	DISTRACT_START	n/a	n/a	n/a	-999	17	[0, 0, 0]	n/a	FR1	0	R1145J
2408.407	0.017	2416557	START	n/a	n/a	n/a	-999	17	[-999, -999, -999]	n/a	FR1	0	R1145J
2408.424	11.385	2416574	PROB	11.385	n/a	n/a	-999	17	[5, 9, 9]	23	FR1	0	R1145J
2419.809	13.513	2427959	PROB	13.513	n/a	n/a	-999	17	[3, 5, 4]	12	FR1	0	R1145J
2433.322	0.022	2441471	STOP	n/a	n/a	n/a	-999	17	[-999, -999, -999]	n/a	FR1	0	R1145J
2433.344	0.651	2441493	DISTRACT_END	n/a	n/a	n/a	-999	17	[0, 0, 0]	n/a	FR1	0	R1145J
2433.995	0.516	2442144	RETRIEVAL_ORIENT	n/a	n/a	n/a	-999	17	[0, 0, 0]	n/a	FR1	0	R1145J
2434.511	3.815	2442660	REC_START	n/a	n/a	n/a	-999	17	[0, 0, 0]	n/a	FR1	0	R1145J
2438.326	1.641	2446475	REC_WORD	1.641	n/a	MUD	2	17	[0, 0, 0]	n/a	FR1	0	R1145J
2439.967	2.785	2448116	REC_WORD	2.785	n/a	WORM	3	17	[0, 0, 0]	n/a	FR1	0	R1145J
2442.752	9.14	2450901	REC_WORD_VV	9.14	n/a	<>	-999	17	[0, 0, 0]	n/a	FR1	0	R1145J
2451.892	2.697	2460041	REC_WORD	2.697	n/a	WEDGE	-999	17	[0, 0, 0]	n/a	FR1	0	R1145J
2454.589	0.692	2462738	REC_WORD_VV	0.692	n/a	<>	-999	17	[0, 0, 0]	n/a	FR1	0	R1145J
2455.281	0.371	2463430	REC_WORD	0.371	n/a	MUD	2	17	[0, 0, 0]	n/a	FR1	0	R1145J
2455.652	0.172	2463801	REC_WORD_VV	0.172	n/a	<>	-999	17	[0, 0, 0]	n/a	FR1	0	R1145J
2455.824	6.055	2463973	REC_WORD	6.055	n/a	WORM	3	17	[0, 0, 0]	n/a	FR1	0	R1145J
2461.879	0.474	2470028	REC_WORD	0.474	n/a	MUD	2	17	[0, 0, 0]	n/a	FR1	0	R1145J
2462.353	0.6	2470502	REC_WORD	0.6	n/a	WORM	3	17	[0, 0, 0]	n/a	FR1	0	R1145J
2462.953	1.569	2471102	REC_WORD	1.569	n/a	WEDGE	-999	17	[0, 0, 0]	n/a	FR1	0	R1145J
2464.522	6.527	2472671	REC_END	n/a	n/a	n/a	-999	17	[0, 0, 0]	n/a	FR1	0	R1145J
2471.049	0.5	2479198	TRIAL	n/a	n/a	n/a	-999	18	[0, 0, 0]	n/a	FR1	0	R1145J
2471.549	10.428	2479698	COUNTDOWN_START	n/a	n/a	n/a	-999	18	[0, 0, 0]	n/a	FR1	0	R1145J
2481.977	0.008	2490126	COUNTDOWN_END	n/a	n/a	n/a	-999	18	[0, 0, 0]	n/a	FR1	0	R1145J
2481.985	1.617	2490134	ORIENT	n/a	n/a	n/a	-999	18	[0, 0, 0]	n/a	FR1	0	R1145J
2483.602	2.0	2491751	ORIENT_OFF	n/a	n/a	n/a	-999	18	[0, 0, 0]	n/a	FR1	0	R1145J
2485.602	1.616	2493751	WORD	n/a	wordpools/wordpool_EN.txt	TIE	1	18	[0, 0, 0]	n/a	FR1	0	R1145J
2487.218	0.883	2495367	WORD_OFF	n/a	n/a	TIE	1	18	[0, 0, 0]	n/a	FR1	0	R1145J
2488.101	1.618	2496250	WORD	n/a	wordpools/wordpool_EN.txt	DIME	2	18	[0, 0, 0]	n/a	FR1	0	R1145J
2489.719	0.95	2497868	WORD_OFF	n/a	n/a	DIME	2	18	[0, 0, 0]	n/a	FR1	0	R1145J
2490.669	1.616	2498818	WORD	n/a	wordpools/wordpool_EN.txt	RICE	3	18	[0, 0, 0]	n/a	FR1	0	R1145J
2492.285	0.9	2500434	WORD_OFF	n/a	n/a	RICE	3	18	[0, 0, 0]	n/a	FR1	0	R1145J
2493.185	1.618	2501334	WORD	n/a	wordpools/wordpool_EN.txt	LAMP	4	18	[0, 0, 0]	n/a	FR1	0	R1145J
2494.803	0.817	2502952	WORD_OFF	n/a	n/a	LAMP	4	18	[0, 0, 0]	n/a	FR1	0	R1145J
2495.62	1.616	2503769	WORD	n/a	wordpools/wordpool_EN.txt	LIP	5	18	[0, 0, 0]	n/a	FR1	0	R1145J
2497.236	0.867	2505385	WORD_OFF	n/a	n/a	LIP	5	18	[0, 0, 0]	n/a	FR1	0	R1145J
2498.103	1.617	2506252	WORD	n/a	wordpools/wordpool_EN.txt	MOUTH	6	18	[0, 0, 0]	n/a	FR1	0	R1145J
2499.72	0.866	2507869	WORD_OFF	n/a	n/a	MOUTH	6	18	[0, 0, 0]	n/a	FR1	0	R1145J
2500.586	1.617	2508734	WORD	n/a	wordpools/wordpool_EN.txt	TOE	7	18	[0, 0, 0]	n/a	FR1	0	R1145J
2502.203	0.9	2510351	WORD_OFF	n/a	n/a	TOE	7	18	[0, 0, 0]	n/a	FR1	0	R1145J
2503.103	1.618	2511251	WORD	n/a	wordpools/wordpool_EN.txt	FLOOR	8	18	[0, 0, 0]	n/a	FR1	0	R1145J
2504.721	0.849	2512869	WORD_OFF	n/a	n/a	FLOOR	8	18	[0, 0, 0]	n/a	FR1	0	R1145J
2505.57	1.617	2513718	WORD	n/a	wordpools/wordpool_EN.txt	COUCH	9	18	[0, 0, 0]	n/a	FR1	0	R1145J
2507.187	0.883	2515335	WORD_OFF	n/a	n/a	COUCH	9	18	[0, 0, 0]	n/a	FR1	0	R1145J
2508.07	1.618	2516218	WORD	n/a	wordpools/wordpool_EN.txt	TEA	10	18	[0, 0, 0]	n/a	FR1	0	R1145J
2509.688	0.866	2517836	WORD_OFF	n/a	n/a	TEA	10	18	[0, 0, 0]	n/a	FR1	0	R1145J
2510.554	1.617	2518702	WORD	n/a	wordpools/wordpool_EN.txt	WALL	11	18	[0, 0, 0]	n/a	FR1	0	R1145J
2512.171	0.818	2520319	WORD_OFF	n/a	n/a	WALL	11	18	[0, 0, 0]	n/a	FR1	0	R1145J
2512.989	1.617	2521137	WORD	n/a	wordpools/wordpool_EN.txt	PEA	12	18	[0, 0, 0]	n/a	FR1	0	R1145J
2514.606	0.0	2522754	WORD_OFF	n/a	n/a	PEA	12	18	[0, 0, 0]	n/a	FR1	0	R1145J
2514.606	0.0	2522754	DISTRACT_START	n/a	n/a	n/a	-999	18	[0, 0, 0]	n/a	FR1	0	R1145J
2514.606	0.016	2522754	START	n/a	n/a	n/a	-999	18	[-999, -999, -999]	n/a	FR1	0	R1145J
2514.622	7.417	2522770	PROB	7.417	n/a	n/a	-999	18	[1, 5, 7]	16	FR1	0	R1145J
2522.039	7.168	2530187	PROB	7.168	n/a	n/a	-999	18	[9, 6, 5]	20	FR1	0	R1145J
2529.207	4.334	2537355	PROB	4.334	n/a	n/a	-999	18	[1, 1, 7]	9	FR1	0	R1145J
2533.541	15.778	2541689	PROB	15.778	n/a	n/a	-999	18	[9, 5, 5]	19	FR1	0	R1145J
2549.319	0.007	2557467	STOP	n/a	n/a	n/a	-999	18	[-999, -999, -999]	n/a	FR1	0	R1145J
2549.326	0.651	2557474	DISTRACT_END	n/a	n/a	n/a	-999	18	[0, 0, 0]	n/a	FR1	0	R1145J
2549.977	0.516	2558125	RETRIEVAL_ORIENT	n/a	n/a	n/a	-999	18	[0, 0, 0]	n/a	FR1	0	R1145J
2550.493	2.799	2558641	REC_START	n/a	n/a	n/a	-999	18	[0, 0, 0]	n/a	FR1	0	R1145J
2553.292	1.072	2561440	REC_WORD	1.072	n/a	RICE	3	18	[0, 0, 0]	n/a	FR1	0	R1145J
2554.364	1.652	2562512	REC_WORD	1.652	n/a	LAMP	4	18	[0, 0, 0]	n/a	FR1	0	R1145J
2556.016	1.313	2564164	REC_WORD	1.313	n/a	FLOOR	8	18	[0, 0, 0]	n/a	FR1	0	R1145J
2557.329	5.277	2565477	REC_WORD	5.277	n/a	COUCH	9	18	[0, 0, 0]	n/a	FR1	0	R1145J
2562.606	0.349	2570754	REC_WORD	0.349	n/a	RICE	3	18	[0, 0, 0]	n/a	FR1	0	R1145J
2562.955	0.485	2571103	REC_WORD	0.485	n/a	LAMP	4	18	[0, 0, 0]	n/a	FR1	0	R1145J
2563.44	0.635	2571588	REC_WORD	0.635	n/a	FLOOR	8	18	[0, 0, 0]	n/a	FR1	0	R1145J
2564.075	5.225	2572223	REC_WORD	5.225	n/a	COUCH	9	18	[0, 0, 0]	n/a	FR1	0	R1145J
2569.3	11.204	2577447	REC_WORD_VV	11.204	n/a	<>	-999	18	[0, 0, 0]	n/a	FR1	0	R1145J
2580.504	17.896	2588651	REC_END	n/a	n/a	n/a	-999	18	[0, 0, 0]	n/a	FR1	0	R1145J
2598.4	0.5	2606547	TRIAL	n/a	n/a	n/a	-999	19	[0, 0, 0]	n/a	FR1	0	R1145J
2598.9	10.428	2607047	COUNTDOWN_START	n/a	n/a	n/a	-999	19	[0, 0, 0]	n/a	FR1	0	R1145J
2609.328	0.006	2617475	COUNTDOWN_END	n/a	n/a	n/a	-999	19	[0, 0, 0]	n/a	FR1	0	R1145J
2609.334	1.618	2617481	ORIENT	n/a	n/a	n/a	-999	19	[0, 0, 0]	n/a	FR1	0	R1145J
2610.952	2.0	2619099	ORIENT_OFF	n/a	n/a	n/a	-999	19	[0, 0, 0]	n/a	FR1	0	R1145J
2612.952	1.616	2621099	WORD	n/a	wordpools/wordpool_EN.txt	FORT	1	19	[0, 0, 0]	n/a	FR1	0	R1145J
2614.568	0.817	2622715	WORD_OFF	n/a	n/a	FORT	1	19	[0, 0, 0]	n/a	FR1	0	R1145J
2615.385	1.618	2623532	WORD	n/a	wordpools/wordpool_EN.txt	CART	2	19	[0, 0, 0]	n/a	FR1	0	R1145J
2617.003	0.95	2625150	WORD_OFF	n/a	n/a	CART	2	19	[0, 0, 0]	n/a	FR1	0	R1145J
2617.953	1.616	2626100	WORD	n/a	wordpools/wordpool_EN.txt	MAT	3	19	[0, 0, 0]	n/a	FR1	0	R1145J
2619.569	0.983	2627716	WORD_OFF	n/a	n/a	MAT	3	19	[0, 0, 0]	n/a	FR1	0	R1145J
2620.552	1.617	2628699	WORD	n/a	wordpools/wordpool_EN.txt	ROAD	4	19	[0, 0, 0]	n/a	FR1	0	R1145J
2622.169	0.934	2630316	WORD_OFF	n/a	n/a	ROAD	4	19	[0, 0, 0]	n/a	FR1	0	R1145J
2623.103	1.617	2631250	WORD	n/a	wordpools/wordpool_EN.txt	GRAPE	5	19	[0, 0, 0]	n/a	FR1	0	R1145J
2624.72	0.85	2632867	WORD_OFF	n/a	n/a	GRAPE	5	19	[0, 0, 0]	n/a	FR1	0	R1145J
2625.57	1.616	2633717	WORD	n/a	wordpools/wordpool_EN.txt	DOCK	6	19	[0, 0, 0]	n/a	FR1	0	R1145J
2627.186	0.818	2635333	WORD_OFF	n/a	n/a	DOCK	6	19	[0, 0, 0]	n/a	FR1	0	R1145J
2628.004	1.617	2636151	WORD	n/a	wordpools/wordpool_EN.txt	SLIME	7	19	[0, 0, 0]	n/a	FR1	0	R1145J
2629.621	0.882	2637768	WORD_OFF	n/a	n/a	SLIME	7	19	[0, 0, 0]	n/a	FR1	0	R1145J
2630.503	1.617	2638650	WORD	n/a	wordpools/wordpool_EN.txt	CAGE	8	19	[0, 0, 0]	n/a	FR1	0	R1145J
2632.12	0.951	2640267	WORD_OFF	n/a	n/a	CAGE	8	19	[0, 0, 0]	n/a	FR1	0	R1145J
2633.071	1.617	2641218	WORD	n/a	wordpools/wordpool_EN.txt	OWL	9	19	[0, 0, 0]	n/a	FR1	0	R1145J
2634.688	0.951	2642835	WORD_OFF	n/a	n/a	OWL	9	19	[0, 0, 0]	n/a	FR1	0	R1145J
2635.639	1.616	2643786	WORD	n/a	wordpools/wordpool_EN.txt	FARM	10	19	[0, 0, 0]	n/a	FR1	0	R1145J
2637.255	0.966	2645402	WORD_OFF	n/a	n/a	FARM	10	19	[0, 0, 0]	n/a	FR1	0	R1145J
2638.221	1.618	2646367	WORD	n/a	wordpools/wordpool_EN.txt	LEG	11	19	[0, 0, 0]	n/a	FR1	0	R1145J
2639.839	0.967	2647985	WORD_OFF	n/a	n/a	LEG	11	19	[0, 0, 0]	n/a	FR1	0	R1145J
2640.806	1.616	2648952	WORD	n/a	wordpools/wordpool_EN.txt	CROW	12	19	[0, 0, 0]	n/a	FR1	0	R1145J
2642.422	0.0	2650568	WORD_OFF	n/a	n/a	CROW	12	19	[0, 0, 0]	n/a	FR1	0	R1145J
2642.422	0.0	2650568	DISTRACT_START	n/a	n/a	n/a	-999	19	[0, 0, 0]	n/a	FR1	0	R1145J
2642.422	0.016	2650568	START	n/a	n/a	n/a	-999	19	[-999, -999, -999]	n/a	FR1	0	R1145J
2642.438	13.57	2650584	PROB	13.57	n/a	n/a	-999	19	[6, 8, 4]	18	FR1	0	R1145J
2656.008	9.018	2664154	PROB	9.018	n/a	n/a	-999	19	[7, 9, 4]	20	FR1	0	R1145J
2665.026	0.015	2673172	STOP	n/a	n/a	n/a	-999	19	[-999, -999, -999]	n/a	FR1	0	R1145J
2665.041	0.517	2673187	DISTRACT_END	n/a	n/a	n/a	-999	19	[0, 0, 0]	n/a	FR1	0	R1145J
2665.558	0.517	2673704	RETRIEVAL_ORIENT	n/a	n/a	n/a	-999	19	[0, 0, 0]	n/a	FR1	0	R1145J
2666.075	2.225	2674221	REC_START	n/a	n/a	n/a	-999	19	[0, 0, 0]	n/a	FR1	0	R1145J
2668.3	0.744	2676446	REC_WORD	0.744	n/a	CART	2	19	[0, 0, 0]	n/a	FR1	0	R1145J
2669.044	1.115	2677190	REC_WORD	1.115	n/a	MAT	3	19	[0, 0, 0]	n/a	FR1	0	R1145J
2670.159	1.125	2678305	REC_WORD	1.125	n/a	FLOOR	-999	19	[0, 0, 0]	n/a	FR1	0	R1145J
2671.284	0.19	2679430	REC_WORD_VV	0.19	n/a	<>	-999	19	[0, 0, 0]	n/a	FR1	0	R1145J
2671.474	0.876	2679620	REC_WORD	0.876	n/a	DODGE	-999	19	[0, 0, 0]	n/a	FR1	0	R1145J
2672.35	0.755	2680496	REC_WORD_VV	0.755	n/a	<>	-999	19	[0, 0, 0]	n/a	FR1	0	R1145J
2673.105	0.592	2681251	REC_WORD	0.592	n/a	CAR	-999	19	[0, 0, 0]	n/a	FR1	0	R1145J
2673.697	0.362	2681843	REC_WORD	0.362	n/a	MAT	3	19	[0, 0, 0]	n/a	FR1	0	R1145J
2674.059	0.519	2682205	REC_WORD	0.519	n/a	FLOOR	-999	19	[0, 0, 0]	n/a	FR1	0	R1145J
2674.578	21.509	2682724	REC_WORD	21.509	n/a	CAGE	8	19	[0, 0, 0]	n/a	FR1	0	R1145J
2696.087	5.475	2704233	REC_END	n/a	n/a	n/a	-999	19	[0, 0, 0]	n/a	FR1	0	R1145J
2701.562	0.5	2709708	TRIAL	n/a	n/a	n/a	-999	20	[0, 0, 0]	n/a	FR1	0	R1145J
2702.062	10.428	2710208	COUNTDOWN_START	n/a	n/a	n/a	-999	20	[0, 0, 0]	n/a	FR1	0	R1145J
2712.49	0.008	2720635	COUNTDOWN_END	n/a	n/a	n/a	-999	20	[0, 0, 0]	n/a	FR1	0	R1145J
2712.498	1.617	2720643	ORIENT	n/a	n/a	n/a	-999	20	[0, 0, 0]	n/a	FR1	0	R1145J
2714.115	1.983	2722260	ORIENT_OFF	n/a	n/a	n/a	-999	20	[0, 0, 0]	n/a	FR1	0	R1145J
2716.098	1.601	2724243	WORD	n/a	wordpools/wordpool_EN.txt	BOX	1	20	[0, 0, 0]	n/a	FR1	0	R1145J
2717.699	0.883	2725844	WORD_OFF	n/a	n/a	BOX	1	20	[0, 0, 0]	n/a	FR1	0	R1145J
2718.582	1.617	2726727	WORD	n/a	wordpools/wordpool_EN.txt	BATH	2	20	[0, 0, 0]	n/a	FR1	0	R1145J
2720.199	0.784	2728344	WORD_OFF	n/a	n/a	BATH	2	20	[0, 0, 0]	n/a	FR1	0	R1145J
2720.983	1.617	2729128	WORD	n/a	wordpools/wordpool_EN.txt	SIGN	3	20	[0, 0, 0]	n/a	FR1	0	R1145J
2722.6	0.849	2730745	WORD_OFF	n/a	n/a	SIGN	3	20	[0, 0, 0]	n/a	FR1	0	R1145J
2723.449	1.617	2731594	WORD	n/a	wordpools/wordpool_EN.txt	PIN	4	20	[0, 0, 0]	n/a	FR1	0	R1145J
2725.066	0.768	2733211	WORD_OFF	n/a	n/a	PIN	4	20	[0, 0, 0]	n/a	FR1	0	R1145J
2725.834	1.616	2733979	WORD	n/a	wordpools/wordpool_EN.txt	VAN	5	20	[0, 0, 0]	n/a	FR1	0	R1145J
2727.45	0.767	2735595	WORD_OFF	n/a	n/a	VAN	5	20	[0, 0, 0]	n/a	FR1	0	R1145J
2728.217	1.617	2736362	WORD	n/a	wordpools/wordpool_EN.txt	APE	6	20	[0, 0, 0]	n/a	FR1	0	R1145J
2729.834	0.884	2737979	WORD_OFF	n/a	n/a	APE	6	20	[0, 0, 0]	n/a	FR1	0	R1145J
2730.718	1.616	2738863	WORD	n/a	wordpools/wordpool_EN.txt	SEAT	7	20	[0, 0, 0]	n/a	FR1	0	R1145J
2732.334	0.783	2740479	WORD_OFF	n/a	n/a	SEAT	7	20	[0, 0, 0]	n/a	FR1	0	R1145J
2733.117	1.618	2741262	WORD	n/a	wordpools/wordpool_EN.txt	STOVE	8	20	[0, 0, 0]	n/a	FR1	0	R1145J
2734.735	0.883	2742880	WORD_OFF	n/a	n/a	STOVE	8	20	[0, 0, 0]	n/a	FR1	0	R1145J
2735.618	1.616	2743763	WORD	n/a	wordpools/wordpool_EN.txt	CUP	9	20	[0, 0, 0]	n/a	FR1	0	R1145J
2737.234	0.967	2745379	WORD_OFF	n/a	n/a	CUP	9	20	[0, 0, 0]	n/a	FR1	0	R1145J
2738.201	1.618	2746346	WORD	n/a	wordpools/wordpool_EN.txt	SQUARE	10	20	[0, 0, 0]	n/a	FR1	0	R1145J
2739.819	1.0	2747964	WORD_OFF	n/a	n/a	SQUARE	10	20	[0, 0, 0]	n/a	FR1	0	R1145J
2740.819	1.616	2748964	WORD	n/a	wordpools/wordpool_EN.txt	PIPE	11	20	[0, 0, 0]	n/a	FR1	0	R1145J
2742.435	0.967	2750580	WORD_OFF	n/a	n/a	PIPE	11	20	[0, 0, 0]	n/a	FR1	0	R1145J
2743.402	1.618	2751547	WORD	n/a	wordpools/wordpool_EN.txt	BALL	12	20	[0, 0, 0]	n/a	FR1	0	R1145J
2745.02	0.0	2753165	WORD_OFF	n/a	n/a	BALL	12	20	[0, 0, 0]	n/a	FR1	0	R1145J
2745.02	0.0	2753165	DISTRACT_START	n/a	n/a	n/a	-999	20	[0, 0, 0]	n/a	FR1	0	R1145J
2745.02	0.015	2753165	START	n/a	n/a	n/a	-999	20	[-999, -999, -999]	n/a	FR1	0	R1145J
2745.035	11.319	2753180	PROB	11.319	n/a	n/a	-999	20	[5, 3, 7]	15	FR1	0	R1145J
2756.354	4.917	2764499	PROB	4.917	n/a	n/a	-999	20	[7, 2, 8]	17	FR1	0	R1145J
2761.271	4.911	2769416	PROB	4.911	n/a	n/a	-999	20	[1, 4, 2]	7	FR1	0	R1145J
2766.182	0.006	2774327	STOP	n/a	n/a	n/a	-999	20	[-999, -999, -999]	n/a	FR1	0	R1145J
2766.188	0.601	2774333	DISTRACT_END	n/a	n/a	n/a	-999	20	[0, 0, 0]	n/a	FR1	0	R1145J
2766.789	0.517	2774934	RETRIEVAL_ORIENT	n/a	n/a	n/a	-999	20	[0, 0, 0]	n/a	FR1	0	R1145J
2767.306	1.55	2775451	REC_START	n/a	n/a	n/a	-999	20	[0, 0, 0]	n/a	FR1	0	R1145J
2768.856	0.585	2777001	REC_WORD	0.585	n/a	BOX	1	20	[0, 0, 0]	n/a	FR1	0	R1145J
2769.441	0.886	2777586	REC_WORD	0.886	n/a	MAT	-999	20	[0, 0, 0]	n/a	FR1	0	R1145J
2770.327	1.232	2778472	REC_WORD	1.232	n/a	APE	6	20	[0, 0, 0]	n/a	FR1	0	R1145J
2771.559	5.402	2779704	REC_WORD	5.402	n/a	PEN	-999	20	[0, 0, 0]	n/a	FR1	0	R1145J
2776.961	10.445	2785105	REC_WORD	10.445	n/a	CAPE	-999	20	[0, 0, 0]	n/a	FR1	0	R1145J
2787.406	0.4	2795550	REC_WORD	0.4	n/a	BOX	1	20	[0, 0, 0]	n/a	FR1	0	R1145J
2787.806	0.708	2795950	REC_WORD	0.708	n/a	MAT	-999	20	[0, 0, 0]	n/a	FR1	0	R1145J
2788.514	8.801	2796658	REC_WORD	8.801	n/a	PIN	4	20	[0, 0, 0]	n/a	FR1	0	R1145J
2797.315	5.396	2805459	REC_END	n/a	n/a	n/a	-999	20	[0, 0, 0]	n/a	FR1	0	R1145J
2802.711	0.5	2810855	TRIAL	n/a	n/a	n/a	-999	21	[0, 0, 0]	n/a	FR1	0	R1145J
2803.211	10.428	2811355	COUNTDOWN_START	n/a	n/a	n/a	-999	21	[0, 0, 0]	n/a	FR1	0	R1145J
2813.639	0.006	2821783	COUNTDOWN_END	n/a	n/a	n/a	-999	21	[0, 0, 0]	n/a	FR1	0	R1145J
2813.645	1.616	2821789	ORIENT	n/a	n/a	n/a	-999	21	[0, 0, 0]	n/a	FR1	0	R1145J
2815.261	1.984	2823405	ORIENT_OFF	n/a	n/a	n/a	-999	21	[0, 0, 0]	n/a	FR1	0	R1145J
2817.245	1.618	2825389	WORD	n/a	wordpools/wordpool_EN.txt	TAIL	1	21	[0, 0, 0]	n/a	FR1	0	R1145J
2818.863	0.85	2827007	WORD_OFF	n/a	n/a	TAIL	1	21	[0, 0, 0]	n/a	FR1	0	R1145J
2819.713	1.616	2827857	WORD	n/a	wordpools/wordpool_EN.txt	BIRD	2	21	[0, 0, 0]	n/a	FR1	0	R1145J
2821.329	0.933	2829473	WORD_OFF	n/a	n/a	BIRD	2	21	[0, 0, 0]	n/a	FR1	0	R1145J
2822.262	1.601	2830406	WORD	n/a	wordpools/wordpool_EN.txt	LAMB	3	21	[0, 0, 0]	n/a	FR1	0	R1145J
2823.863	0.901	2832007	WORD_OFF	n/a	n/a	LAMB	3	21	[0, 0, 0]	n/a	FR1	0	R1145J
2824.764	1.616	2832908	WORD	n/a	wordpools/wordpool_EN.txt	MOUSE	4	21	[0, 0, 0]	n/a	FR1	0	R1145J
2826.38	0.883	2834524	WORD_OFF	n/a	n/a	MOUSE	4	21	[0, 0, 0]	n/a	FR1	0	R1145J
2827.263	1.618	2835407	WORD	n/a	wordpools/wordpool_EN.txt	SKUNK	5	21	[0, 0, 0]	n/a	FR1	0	R1145J
2828.881	1.0	2837025	WORD_OFF	n/a	n/a	SKUNK	5	21	[0, 0, 0]	n/a	FR1	0	R1145J
2829.881	1.616	2838025	WORD	n/a	wordpools/wordpool_EN.txt	FOX	6	21	[0, 0, 0]	n/a	FR1	0	R1145J
2831.497	0.817	2839641	WORD_OFF	n/a	n/a	FOX	6	21	[0, 0, 0]	n/a	FR1	0	R1145J
2832.314	1.618	2840458	WORD	n/a	wordpools/wordpool_EN.txt	KITE	7	21	[0, 0, 0]	n/a	FR1	0	R1145J
2833.932	0.9	2842076	WORD_OFF	n/a	n/a	KITE	7	21	[0, 0, 0]	n/a	FR1	0	R1145J
2834.832	1.616	2842976	WORD	n/a	wordpools/wordpool_EN.txt	WOLF	8	21	[0, 0, 0]	n/a	FR1	0	R1145J
2836.448	0.967	2844592	WORD_OFF	n/a	n/a	WOLF	8	21	[0, 0, 0]	n/a	FR1	0	R1145J
2837.415	1.617	2845559	WORD	n/a	wordpools/wordpool_EN.txt	BEAR	9	21	[0, 0, 0]	n/a	FR1	0	R1145J
2839.032	0.8	2847176	WORD_OFF	n/a	n/a	BEAR	9	21	[0, 0, 0]	n/a	FR1	0	R1145J
2839.832	1.616	2847976	WORD	n/a	wordpools/wordpool_EN.txt	HEN	10	21	[0, 0, 0]	n/a	FR1	0	R1145J
2841.448	0.967	2849592	WORD_OFF	n/a	n/a	HEN	10	21	[0, 0, 0]	n/a	FR1	0	R1145J
2842.415	1.617	2850559	WORD	n/a	wordpools/wordpool_EN.txt	BOY	11	21	[0, 0, 0]	n/a	FR1	0	R1145J
2844.032	0.784	2852176	WORD_OFF	n/a	n/a	BOY	11	21	[0, 0, 0]	n/a	FR1	0	R1145J
2844.816	1.616	2852959	WORD	n/a	wordpools/wordpool_EN.txt	BEAN	12	21	[0, 0, 0]	n/a	FR1	0	R1145J
2846.432	0.0	2854575	WORD_OFF	n/a	n/a	BEAN	12	21	[0, 0, 0]	n/a	FR1	0	R1145J
2846.432	0.001	2854575	DISTRACT_START	n/a	n/a	n/a	-999	21	[0, 0, 0]	n/a	FR1	0	R1145J
2846.433	0.016	2854576	START	n/a	n/a	n/a	-999	21	[-999, -999, -999]	n/a	FR1	0	R1145J
2846.449	7.419	2854592	PROB	7.419	n/a	n/a	-999	21	[7, 1, 4]	12	FR1	0	R1145J
2853.868	13.064	2862011	PROB	13.064	n/a	n/a	-999	21	[5, 4, 7]	16	FR1	0	R1145J
2866.932	0.021	2875075	STOP	n/a	n/a	n/a	-999	21	[-999, -999, -999]	n/a	FR1	0	R1145J
2866.953	0.566	2875096	DISTRACT_END	n/a	n/a	n/a	-999	21	[0, 0, 0]	n/a	FR1	0	R1145J
2867.519	0.517	2875662	RETRIEVAL_ORIENT	n/a	n/a	n/a	-999	21	[0, 0, 0]	n/a	FR1	0	R1145J
2868.036	1.853	2876179	REC_START	n/a	n/a	n/a	-999	21	[0, 0, 0]	n/a	FR1	0	R1145J
2869.889	0.682	2878032	REC_WORD	0.682	n/a	TAIL	1	21	[0, 0, 0]	n/a	FR1	0	R1145J
2870.571	0.677	2878714	REC_WORD	0.677	n/a	LAMB	3	21	[0, 0, 0]	n/a	FR1	0	R1145J
2871.248	0.801	2879391	REC_WORD	0.801	n/a	SKUNK	5	21	[0, 0, 0]	n/a	FR1	0	R1145J
2872.049	0.812	2880192	REC_WORD	0.812	n/a	WOLF	8	21	[0, 0, 0]	n/a	FR1	0	R1145J
2872.861	25.186	2881004	REC_WORD	25.186	n/a	BEAR	9	21	[0, 0, 0]	n/a	FR1	0	R1145J
2898.047	4.944	2906190	REC_END	n/a	n/a	n/a	-999	21	[0, 0, 0]	n/a	FR1	0	R1145J
2902.991	0.5	2911134	TRIAL	n/a	n/a	n/a	-999	22	[0, 0, 0]	n/a	FR1	0	R1145J
2903.491	10.428	2911634	COUNTDOWN_START	n/a	n/a	n/a	-999	22	[0, 0, 0]	n/a	FR1	0	R1145J
2913.919	0.007	2922061	COUNTDOWN_END	n/a	n/a	n/a	-999	22	[0, 0, 0]	n/a	FR1	0	R1145J
2913.926	1.616	2922068	ORIENT	n/a	n/a	n/a	-999	22	[0, 0, 0]	n/a	FR1	0	R1145J
2915.542	2.084	2923684	ORIENT_OFF	n/a	n/a	n/a	-999	22	[0, 0, 0]	n/a	FR1	0	R1145J
2917.626	1.616	2925768	WORD	n/a	wordpools/wordpool_EN.txt	HAT	1	22	[0, 0, 0]	n/a	FR1	0	R1145J
2919.242	0.967	2927384	WORD_OFF	n/a	n/a	HAT	1	22	[0, 0, 0]	n/a	FR1	0	R1145J
2920.209	1.618	2928351	WORD	n/a	wordpools/wordpool_EN.txt	ELF	2	22	[0, 0, 0]	n/a	FR1	0	R1145J
2921.827	0.816	2929969	WORD_OFF	n/a	n/a	ELF	2	22	[0, 0, 0]	n/a	FR1	0	R1145J
2922.643	1.616	2930785	WORD	n/a	wordpools/wordpool_EN.txt	PET	3	22	[0, 0, 0]	n/a	FR1	0	R1145J
2924.259	0.867	2932401	WORD_OFF	n/a	n/a	PET	3	22	[0, 0, 0]	n/a	FR1	0	R1145J
2925.126	1.618	2933268	WORD	n/a	wordpools/wordpool_EN.txt	HORN	4	22	[0, 0, 0]	n/a	FR1	0	R1145J
2926.744	0.934	2934886	WORD_OFF	n/a	n/a	HORN	4	22	[0, 0, 0]	n/a	FR1	0	R1145J
2927.678	1.615	2935820	WORD	n/a	wordpools/wordpool_EN.txt	ROSE	5	22	[0, 0, 0]	n/a	FR1	0	R1145J
2929.293	0.933	2937435	WORD_OFF	n/a	n/a	ROSE	5	22	[0, 0, 0]	n/a	FR1	0	R1145J
2930.226	1.619	2938368	WORD	n/a	wordpools/wordpool_EN.txt	PANTS	6	22	[0, 0, 0]	n/a	FR1	0	R1145J
2931.845	0.95	2939987	WORD_OFF	n/a	n/a	PANTS	6	22	[0, 0, 0]	n/a	FR1	0	R1145J
2932.795	1.616	2940937	WORD	n/a	wordpools/wordpool_EN.txt	STOOL	7	22	[0, 0, 0]	n/a	FR1	0	R1145J
2934.411	0.767	2942553	WORD_OFF	n/a	n/a	STOOL	7	22	[0, 0, 0]	n/a	FR1	0	R1145J
2935.178	1.618	2943320	WORD	n/a	wordpools/wordpool_EN.txt	BARN	8	22	[0, 0, 0]	n/a	FR1	0	R1145J
2936.796	0.866	2944938	WORD_OFF	n/a	n/a	BARN	8	22	[0, 0, 0]	n/a	FR1	0	R1145J
2937.662	1.616	2945804	WORD	n/a	wordpools/wordpool_EN.txt	FUR	9	22	[0, 0, 0]	n/a	FR1	0	R1145J
2939.278	0.85	2947420	WORD_OFF	n/a	n/a	FUR	9	22	[0, 0, 0]	n/a	FR1	0	R1145J
2940.128	1.618	2948270	WORD	n/a	wordpools/wordpool_EN.txt	RAT	10	22	[0, 0, 0]	n/a	FR1	0	R1145J
2941.746	0.983	2949888	WORD_OFF	n/a	n/a	RAT	10	22	[0, 0, 0]	n/a	FR1	0	R1145J
2942.729	1.616	2950871	WORD	n/a	wordpools/wordpool_EN.txt	EAR	11	22	[0, 0, 0]	n/a	FR1	0	R1145J
2944.345	0.884	2952487	WORD_OFF	n/a	n/a	EAR	11	22	[0, 0, 0]	n/a	FR1	0	R1145J
2945.229	1.618	2953371	WORD	n/a	wordpools/wordpool_EN.txt	FENCE	12	22	[0, 0, 0]	n/a	FR1	0	R1145J
2946.847	0.0	2954989	DISTRACT_START	n/a	n/a	n/a	-999	22	[0, 0, 0]	n/a	FR1	0	R1145J
2946.847	0.001	2954989	WORD_OFF	n/a	n/a	FENCE	12	22	[0, 0, 0]	n/a	FR1	0	R1145J
2946.848	0.015	2954990	START	n/a	n/a	n/a	-999	22	[-999, -999, -999]	n/a	FR1	0	R1145J
2946.863	6.802	2955005	PROB	6.802	n/a	n/a	-999	22	[6, 9, 4]	19	FR1	0	R1145J
2953.665	7.649	2961807	PROB	7.649	n/a	n/a	-999	22	[2, 9, 6]	17	FR1	0	R1145J
2961.314	19.422	2969456	PROB	19.422	n/a	n/a	-999	22	[8, 4, 7]	19	FR1	0	R1145J
2980.736	0.015	2988878	STOP	n/a	n/a	n/a	-999	22	[-999, -999, -999]	n/a	FR1	0	R1145J
2980.751	0.649	2988893	DISTRACT_END	n/a	n/a	n/a	-999	22	[0, 0, 0]	n/a	FR1	0	R1145J
2981.4	0.519	2989542	RETRIEVAL_ORIENT	n/a	n/a	n/a	-999	22	[0, 0, 0]	n/a	FR1	0	R1145J
2981.919	3.107	2990061	REC_START	n/a	n/a	n/a	-999	22	[0, 0, 0]	n/a	FR1	0	R1145J
2985.026	0.962	2993167	REC_WORD	0.962	n/a	HAT	1	22	[0, 0, 0]	n/a	FR1	0	R1145J
2985.988	0.882	2994129	REC_WORD	0.882	n/a	ELF	2	22	[0, 0, 0]	n/a	FR1	0	R1145J
2986.87	0.856	2995011	REC_WORD	0.856	n/a	PET	3	22	[0, 0, 0]	n/a	FR1	0	R1145J
2987.726	0.083	2995867	REC_WORD_VV	0.083	n/a	<>	-999	22	[0, 0, 0]	n/a	FR1	0	R1145J
2987.809	2.157	2995950	REC_WORD	2.157	n/a	STOOL	7	22	[0, 0, 0]	n/a	FR1	0	R1145J
2989.966	21.96	2998107	REC_WORD	21.96	n/a	PANTS	6	22	[0, 0, 0]	n/a	FR1	0	R1145J
3011.926	15.314	3020067	REC_END	n/a	n/a	n/a	-999	22	[0, 0, 0]	n/a	FR1	0	R1145J
3027.24	0.5	3035381	TRIAL	n/a	n/a	n/a	-999	23	[0, 0, 0]	n/a	FR1	0	R1145J
3027.74	10.428	3035881	COUNTDOWN_START	n/a	n/a	n/a	-999	23	[0, 0, 0]	n/a	FR1	0	R1145J
3038.168	0.007	3046309	COUNTDOWN_END	n/a	n/a	n/a	-999	23	[0, 0, 0]	n/a	FR1	0	R1145J
3038.175	1.601	3046316	ORIENT	n/a	n/a	n/a	-999	23	[0, 0, 0]	n/a	FR1	0	R1145J
3039.776	2.134	3047917	ORIENT_OFF	n/a	n/a	n/a	-999	23	[0, 0, 0]	n/a	FR1	0	R1145J
3041.91	1.616	3050051	WORD	n/a	wordpools/wordpool_EN.txt	LAKE	1	23	[0, 0, 0]	n/a	FR1	0	R1145J
3043.526	0.883	3051667	WORD_OFF	n/a	n/a	LAKE	1	23	[0, 0, 0]	n/a	FR1	0	R1145J
3044.409	1.601	3052550	WORD	n/a	wordpools/wordpool_EN.txt	GOLD	2	23	[0, 0, 0]	n/a	FR1	0	R1145J
3046.01	0.767	3054151	WORD_OFF	n/a	n/a	GOLD	2	23	[0, 0, 0]	n/a	FR1	0	R1145J
3046.777	1.616	3054918	WORD	n/a	wordpools/wordpool_EN.txt	SEA	3	23	[0, 0, 0]	n/a	FR1	0	R1145J
3048.393	0.966	3056534	WORD_OFF	n/a	n/a	SEA	3	23	[0, 0, 0]	n/a	FR1	0	R1145J
3049.359	1.618	3057500	WORD	n/a	wordpools/wordpool_EN.txt	PRINCE	4	23	[0, 0, 0]	n/a	FR1	0	R1145J
3050.977	1.001	3059118	WORD_OFF	n/a	n/a	PRINCE	4	23	[0, 0, 0]	n/a	FR1	0	R1145J
3051.978	1.616	3060118	WORD	n/a	wordpools/wordpool_EN.txt	GEESE	5	23	[0, 0, 0]	n/a	FR1	0	R1145J
3053.594	1.0	3061734	WORD_OFF	n/a	n/a	GEESE	5	23	[0, 0, 0]	n/a	FR1	0	R1145J
3054.594	1.617	3062734	WORD	n/a	wordpools/wordpool_EN.txt	STEAK	6	23	[0, 0, 0]	n/a	FR1	0	R1145J
3056.211	0.916	3064351	WORD_OFF	n/a	n/a	STEAK	6	23	[0, 0, 0]	n/a	FR1	0	R1145J
3057.127	1.618	3065267	WORD	n/a	wordpools/wordpool_EN.txt	CALF	7	23	[0, 0, 0]	n/a	FR1	0	R1145J
3058.745	0.983	3066885	WORD_OFF	n/a	n/a	CALF	7	23	[0, 0, 0]	n/a	FR1	0	R1145J
3059.728	1.616	3067868	WORD	n/a	wordpools/wordpool_EN.txt	HORSE	8	23	[0, 0, 0]	n/a	FR1	0	R1145J
3061.344	0.884	3069484	WORD_OFF	n/a	n/a	HORSE	8	23	[0, 0, 0]	n/a	FR1	0	R1145J
3062.228	1.601	3070368	WORD	n/a	wordpools/wordpool_EN.txt	ROCK	9	23	[0, 0, 0]	n/a	FR1	0	R1145J
3063.829	0.784	3071969	WORD_OFF	n/a	n/a	ROCK	9	23	[0, 0, 0]	n/a	FR1	0	R1145J
3064.613	1.615	3072753	WORD	n/a	wordpools/wordpool_EN.txt	PARK	10	23	[0, 0, 0]	n/a	FR1	0	R1145J
3066.228	0.934	3074368	WORD_OFF	n/a	n/a	PARK	10	23	[0, 0, 0]	n/a	FR1	0	R1145J
3067.162	1.601	3075302	WORD	n/a	wordpools/wordpool_EN.txt	PIG	11	23	[0, 0, 0]	n/a	FR1	0	R1145J
3068.763	0.95	3076903	WORD_OFF	n/a	n/a	PIG	11	23	[0, 0, 0]	n/a	FR1	0	R1145J
3069.713	1.616	3077853	WORD	n/a	wordpools/wordpool_EN.txt	EEL	12	23	[0, 0, 0]	n/a	FR1	0	R1145J
3071.329	0.0	3079469	WORD_OFF	n/a	n/a	EEL	12	23	[0, 0, 0]	n/a	FR1	0	R1145J
3071.329	0.001	3079469	DISTRACT_START	n/a	n/a	n/a	-999	23	[0, 0, 0]	n/a	FR1	0	R1145J
3071.33	0.016	3079470	START	n/a	n/a	n/a	-999	23	[-999, -999, -999]	n/a	FR1	0	R1145J
3071.346	31.354	3079486	PROB	31.354	n/a	n/a	-999	23	[5, 7, 6]	18	FR1	0	R1145J
3102.7	0.018	3110840	STOP	n/a	n/a	n/a	-999	23	[-999, -999, -999]	n/a	FR1	0	R1145J
3102.718	0.699	3110858	DISTRACT_END	n/a	n/a	n/a	-999	23	[0, 0, 0]	n/a	FR1	0	R1145J
3103.417	0.519	3111557	RETRIEVAL_ORIENT	n/a	n/a	n/a	-999	23	[0, 0, 0]	n/a	FR1	0	R1145J
3103.936	2.147	3112076	REC_START	n/a	n/a	n/a	-999	23	[0, 0, 0]	n/a	FR1	0	R1145J
3106.083	1.001	3114223	REC_WORD	1.001	n/a	LAMP	-999	23	[0, 0, 0]	n/a	FR1	0	R1145J
3107.084	5.432	3115224	REC_WORD_VV	5.432	n/a	<>	-999	23	[0, 0, 0]	n/a	FR1	0	R1145J
3112.516	2.599	3120656	REC_WORD	2.599	n/a	GEESE	5	23	[0, 0, 0]	n/a	FR1	0	R1145J
3115.115	0.872	3123255	REC_WORD_VV	0.872	n/a	<>	-999	23	[0, 0, 0]	n/a	FR1	0	R1145J
3115.987	2.076	3124127	REC_WORD_VV	2.076	n/a	<>	-999	23	[0, 0, 0]	n/a	FR1	0	R1145J
3118.063	0.584	3126203	REC_WORD	0.584	n/a	LAKE	1	23	[0, 0, 0]	n/a	FR1	0	R1145J
3118.647	0.576	3126787	REC_WORD	0.576	n/a	GOLD	2	23	[0, 0, 0]	n/a	FR1	0	R1145J
3119.223	2.095	3127363	REC_WORD	2.095	n/a	GEESE	5	23	[0, 0, 0]	n/a	FR1	0	R1145J
3121.318	6.307	3129457	REC_WORD	6.307	n/a	EEL	12	23	[0, 0, 0]	n/a	FR1	0	R1145J
3127.625	0.39	3135764	REC_WORD	0.39	n/a	LAKE	1	23	[0, 0, 0]	n/a	FR1	0	R1145J
3128.015	0.476	3136154	REC_WORD	0.476	n/a	GOLD	2	23	[0, 0, 0]	n/a	FR1	0	R1145J
3128.491	0.617	3136630	REC_WORD	0.617	n/a	GEESE	5	23	[0, 0, 0]	n/a	FR1	0	R1145J
3129.108	4.837	3137247	REC_WORD	4.837	n/a	EEL	12	23	[0, 0, 0]	n/a	FR1	0	R1145J
3133.945	4.978	3142084	REC_END	n/a	n/a	n/a	-999	23	[0, 0, 0]	n/a	FR1	0	R1145J
3138.923	0.5	3147062	TRIAL	n/a	n/a	n/a	-999	24	[0, 0, 0]	n/a	FR1	0	R1145J
3139.423	10.428	3147562	COUNTDOWN_START	n/a	n/a	n/a	-999	24	[0, 0, 0]	n/a	FR1	0	R1145J
3149.851	0.006	3157990	COUNTDOWN_END	n/a	n/a	n/a	-999	24	[0, 0, 0]	n/a	FR1	0	R1145J
3149.857	1.616	3157996	ORIENT	n/a	n/a	n/a	-999	24	[0, 0, 0]	n/a	FR1	0	R1145J
3151.473	2.352	3159612	ORIENT_OFF	n/a	n/a	n/a	-999	24	[0, 0, 0]	n/a	FR1	0	R1145J
3153.825	1.616	3161964	WORD	n/a	wordpools/wordpool_EN.txt	WHALE	1	24	[0, 0, 0]	n/a	FR1	0	R1145J
3155.441	0.917	3163580	WORD_OFF	n/a	n/a	WHALE	1	24	[0, 0, 0]	n/a	FR1	0	R1145J
3156.358	1.617	3164497	WORD	n/a	wordpools/wordpool_EN.txt	NET	2	24	[0, 0, 0]	n/a	FR1	0	R1145J
3157.975	0.884	3166114	WORD_OFF	n/a	n/a	NET	2	24	[0, 0, 0]	n/a	FR1	0	R1145J
3158.859	1.615	3166998	WORD	n/a	wordpools/wordpool_EN.txt	BOWL	3	24	[0, 0, 0]	n/a	FR1	0	R1145J
3160.474	0.867	3168613	WORD_OFF	n/a	n/a	BOWL	3	24	[0, 0, 0]	n/a	FR1	0	R1145J
3161.341	1.618	3169480	WORD	n/a	wordpools/wordpool_EN.txt	PIT	4	24	[0, 0, 0]	n/a	FR1	0	R1145J
3162.959	0.851	3171098	WORD_OFF	n/a	n/a	PIT	4	24	[0, 0, 0]	n/a	FR1	0	R1145J
3163.81	1.615	3171949	WORD	n/a	wordpools/wordpool_EN.txt	SINK	5	24	[0, 0, 0]	n/a	FR1	0	R1145J
3165.425	0.967	3173564	WORD_OFF	n/a	n/a	SINK	5	24	[0, 0, 0]	n/a	FR1	0	R1145J
3166.392	1.618	3174531	WORD	n/a	wordpools/wordpool_EN.txt	ARM	6	24	[0, 0, 0]	n/a	FR1	0	R1145J
3168.01	0.884	3176149	WORD_OFF	n/a	n/a	ARM	6	24	[0, 0, 0]	n/a	FR1	0	R1145J
3168.894	1.615	3177033	WORD	n/a	wordpools/wordpool_EN.txt	PLATE	7	24	[0, 0, 0]	n/a	FR1	0	R1145J
3170.509	0.967	3178648	WORD_OFF	n/a	n/a	PLATE	7	24	[0, 0, 0]	n/a	FR1	0	R1145J
3171.476	1.617	3179615	WORD	n/a	wordpools/wordpool_EN.txt	BAT	8	24	[0, 0, 0]	n/a	FR1	0	R1145J
3173.093	0.884	3181232	WORD_OFF	n/a	n/a	BAT	8	24	[0, 0, 0]	n/a	FR1	0	R1145J
3173.977	1.617	3182116	WORD	n/a	wordpools/wordpool_EN.txt	VINE	9	24	[0, 0, 0]	n/a	FR1	0	R1145J
3175.594	0.766	3183733	WORD_OFF	n/a	n/a	VINE	9	24	[0, 0, 0]	n/a	FR1	0	R1145J
3176.36	1.618	3184499	WORD	n/a	wordpools/wordpool_EN.txt	PALM	10	24	[0, 0, 0]	n/a	FR1	0	R1145J
3177.978	0.917	3186117	WORD_OFF	n/a	n/a	PALM	10	24	[0, 0, 0]	n/a	FR1	0	R1145J
3178.895	1.615	3187034	WORD	n/a	wordpools/wordpool_EN.txt	FACE	11	24	[0, 0, 0]	n/a	FR1	0	R1145J
3180.51	0.784	3188649	WORD_OFF	n/a	n/a	FACE	11	24	[0, 0, 0]	n/a	FR1	0	R1145J
3181.294	1.618	3189433	WORD	n/a	wordpools/wordpool_EN.txt	ROOF	12	24	[0, 0, 0]	n/a	FR1	0	R1145J
3182.912	0.0	3191051	WORD_OFF	n/a	n/a	ROOF	12	24	[0, 0, 0]	n/a	FR1	0	R1145J
3182.912	0.001	3191051	DISTRACT_START	n/a	n/a	n/a	-999	24	[0, 0, 0]	n/a	FR1	0	R1145J
3182.913	0.016	3191052	START	n/a	n/a	n/a	-999	24	[-999, -999, -999]	n/a	FR1	0	R1145J
3182.929	21.646	3191068	PROB	21.646	n/a	n/a	-999	24	[5, 4, 8]	17	FR1	0	R1145J
3204.575	0.005	3212713	STOP	n/a	n/a	n/a	-999	24	[-999, -999, -999]	n/a	FR1	0	R1145J
3204.58	0.551	3212718	DISTRACT_END	n/a	n/a	n/a	-999	24	[0, 0, 0]	n/a	FR1	0	R1145J
3205.131	0.518	3213269	RETRIEVAL_ORIENT	n/a	n/a	n/a	-999	24	[0, 0, 0]	n/a	FR1	0	R1145J
3205.649	1.798	3213787	REC_START	n/a	n/a	n/a	-999	24	[0, 0, 0]	n/a	FR1	0	R1145J
3207.447	0.532	3215585	REC_WORD	0.532	n/a	WHALE	1	24	[0, 0, 0]	n/a	FR1	0	R1145J
3207.979	0.855	3216117	REC_WORD	0.855	n/a	NET	2	24	[0, 0, 0]	n/a	FR1	0	R1145J
3208.834	5.465	3216972	REC_WORD	5.465	n/a	PIT	4	24	[0, 0, 0]	n/a	FR1	0	R1145J
3214.299	0.564	3222437	REC_WORD	0.564	n/a	WHALE	1	24	[0, 0, 0]	n/a	FR1	0	R1145J
3214.863	0.5	3223001	REC_WORD	0.5	n/a	NET	2	24	[0, 0, 0]	n/a	FR1	0	R1145J
3215.363	0.904	3223501	REC_WORD	0.904	n/a	PIT	4	24	[0, 0, 0]	n/a	FR1	0	R1145J
3216.267	1.0	3224405	REC_WORD_VV	1.0	n/a	<>	-999	24	[0, 0, 0]	n/a	FR1	0	R1145J
3217.267	2.408	3225405	REC_WORD_VV	2.408	n/a	<>	-999	24	[0, 0, 0]	n/a	FR1	0	R1145J
3219.675	15.986	3227813	REC_WORD_VV	15.986	n/a	<>	-999	24	[0, 0, 0]	n/a	FR1	0	R1145J
3235.661	4.374	3243799	REC_END	n/a	n/a	n/a	-999	24	[0, 0, 0]	n/a	FR1	0	R1145J
3240.035	0.5	3248173	TRIAL	n/a	n/a	n/a	-999	25	[0, 0, 0]	n/a	FR1	0	R1145J
3240.535	10.428	3248673	COUNTDOWN_START	n/a	n/a	n/a	-999	25	[0, 0, 0]	n/a	FR1	0	R1145J
3250.963	0.008	3259101	COUNTDOWN_END	n/a	n/a	n/a	-999	25	[0, 0, 0]	n/a	FR1	0	R1145J
3250.971	1.616	3259109	ORIENT	n/a	n/a	n/a	-999	25	[0, 0, 0]	n/a	FR1	0	R1145J
3252.587	2.001	3260725	ORIENT_OFF	n/a	n/a	n/a	-999	25	[0, 0, 0]	n/a	FR1	0	R1145J
3254.588	1.617	3262726	WORD	n/a	wordpools/wordpool_EN.txt	LOCK	1	25	[0, 0, 0]	n/a	FR1	0	R1145J
3256.205	0.916	3264343	WORD_OFF	n/a	n/a	LOCK	1	25	[0, 0, 0]	n/a	FR1	0	R1145J
3257.121	1.601	3265259	WORD	n/a	wordpools/wordpool_EN.txt	FORK	2	25	[0, 0, 0]	n/a	FR1	0	R1145J
3258.722	1.0	3266859	WORD_OFF	n/a	n/a	FORK	2	25	[0, 0, 0]	n/a	FR1	0	R1145J
3259.722	1.616	3267859	WORD	n/a	wordpools/wordpool_EN.txt	PEAR	3	25	[0, 0, 0]	n/a	FR1	0	R1145J
3261.338	0.8	3269475	WORD_OFF	n/a	n/a	PEAR	3	25	[0, 0, 0]	n/a	FR1	0	R1145J
3262.138	1.601	3270275	WORD	n/a	wordpools/wordpool_EN.txt	HOOK	4	25	[0, 0, 0]	n/a	FR1	0	R1145J
3263.739	0.783	3271876	WORD_OFF	n/a	n/a	HOOK	4	25	[0, 0, 0]	n/a	FR1	0	R1145J
3264.522	1.617	3272659	WORD	n/a	wordpools/wordpool_EN.txt	SUIT	5	25	[0, 0, 0]	n/a	FR1	0	R1145J
3266.139	0.934	3274276	WORD_OFF	n/a	n/a	SUIT	5	25	[0, 0, 0]	n/a	FR1	0	R1145J
3267.073	1.618	3275210	WORD	n/a	wordpools/wordpool_EN.txt	TOAST	6	25	[0, 0, 0]	n/a	FR1	0	R1145J
3268.691	0.798	3276828	WORD_OFF	n/a	n/a	TOAST	6	25	[0, 0, 0]	n/a	FR1	0	R1145J
3269.489	1.617	3277626	WORD	n/a	wordpools/wordpool_EN.txt	JET	7	25	[0, 0, 0]	n/a	FR1	0	R1145J
3271.106	0.801	3279243	WORD_OFF	n/a	n/a	JET	7	25	[0, 0, 0]	n/a	FR1	0	R1145J
3271.907	1.616	3280044	WORD	n/a	wordpools/wordpool_EN.txt	BOARD	8	25	[0, 0, 0]	n/a	FR1	0	R1145J
3273.523	0.884	3281660	WORD_OFF	n/a	n/a	BOARD	8	25	[0, 0, 0]	n/a	FR1	0	R1145J
3274.407	1.601	3282544	WORD	n/a	wordpools/wordpool_EN.txt	ARK	9	25	[0, 0, 0]	n/a	FR1	0	R1145J
3276.008	0.8	3284145	WORD_OFF	n/a	n/a	ARK	9	25	[0, 0, 0]	n/a	FR1	0	R1145J
3276.808	1.616	3284945	WORD	n/a	wordpools/wordpool_EN.txt	SOCK	10	25	[0, 0, 0]	n/a	FR1	0	R1145J
3278.424	0.85	3286561	WORD_OFF	n/a	n/a	SOCK	10	25	[0, 0, 0]	n/a	FR1	0	R1145J
3279.274	1.618	3287411	WORD	n/a	wordpools/wordpool_EN.txt	RUG	11	25	[0, 0, 0]	n/a	FR1	0	R1145J
3280.892	0.833	3289029	WORD_OFF	n/a	n/a	RUG	11	25	[0, 0, 0]	n/a	FR1	0	R1145J
3281.725	1.616	3289862	WORD	n/a	wordpools/wordpool_EN.txt	TRAIN	12	25	[0, 0, 0]	n/a	FR1	0	R1145J
3283.341	0.0	3291478	WORD_OFF	n/a	n/a	TRAIN	12	25	[0, 0, 0]	n/a	FR1	0	R1145J
3283.341	0.001	3291478	DISTRACT_START	n/a	n/a	n/a	-999	25	[0, 0, 0]	n/a	FR1	0	R1145J
3283.342	0.016	3291479	START	n/a	n/a	n/a	-999	25	[-999, -999, -999]	n/a	FR1	0	R1145J
3283.358	8.502	3291495	PROB	8.502	n/a	n/a	-999	25	[5, 9, 5]	19	FR1	0	R1145J
3291.86	4.25	3299997	PROB	4.25	n/a	n/a	-999	25	[2, 3, 8]	13	FR1	0	R1145J
3296.11	6.334	3304247	PROB	6.334	n/a	n/a	-999	25	[4, 6, 3]	13	FR1	0	R1145J
3302.444	8.896	3310581	PROB	8.896	n/a	n/a	-999	25	[7, 8, 5]	20	FR1	0	R1145J
3311.34	0.005	3319477	STOP	n/a	n/a	n/a	-999	25	[-999, -999, -999]	n/a	FR1	0	R1145J
3311.345	0.534	3319482	DISTRACT_END	n/a	n/a	n/a	-999	25	[0, 0, 0]	n/a	FR1	0	R1145J
3311.879	0.518	3320016	RETRIEVAL_ORIENT	n/a	n/a	n/a	-999	25	[0, 0, 0]	n/a	FR1	0	R1145J
3312.397	5.751	3320534	REC_START	n/a	n/a	n/a	-999	25	[0, 0, 0]	n/a	FR1	0	R1145J
3318.148	1.795	3326285	REC_WORD_VV	1.795	n/a	<>	-999	25	[0, 0, 0]	n/a	FR1	0	R1145J
3319.943	0.778	3328080	REC_WORD	0.778	n/a	LOCK	1	25	[0, 0, 0]	n/a	FR1	0	R1145J
3320.721	2.002	3328858	REC_WORD	2.002	n/a	HOOK	4	25	[0, 0, 0]	n/a	FR1	0	R1145J
3322.723	2.96	3330860	REC_WORD	2.96	n/a	SUIT	5	25	[0, 0, 0]	n/a	FR1	0	R1145J
3325.683	3.548	3333820	REC_WORD	3.548	n/a	BOARD	8	25	[0, 0, 0]	n/a	FR1	0	R1145J
3329.231	0.58	3337367	REC_WORD	0.58	n/a	LOCK	1	25	[0, 0, 0]	n/a	FR1	0	R1145J
3329.811	0.537	3337947	REC_WORD	0.537	n/a	BOARD	8	25	[0, 0, 0]	n/a	FR1	0	R1145J
3330.348	2.391	3338484	REC_WORD	2.391	n/a	SUIT	5	25	[0, 0, 0]	n/a	FR1	0	R1145J
3332.739	3.929	3340875	REC_WORD	3.929	n/a	BOARD	8	25	[0, 0, 0]	n/a	FR1	0	R1145J
3336.668	0.263	3344804	REC_WORD	0.263	n/a	LOCK	1	25	[0, 0, 0]	n/a	FR1	0	R1145J
3336.931	0.362	3345067	REC_WORD	0.362	n/a	HOOK	4	25	[0, 0, 0]	n/a	FR1	0	R1145J
3337.293	0.92	3345429	REC_WORD	0.92	n/a	SUIT	5	25	[0, 0, 0]	n/a	FR1	0	R1145J
3338.213	1.947	3346349	REC_WORD	1.947	n/a	BOARD	8	25	[0, 0, 0]	n/a	FR1	0	R1145J
3340.16	0.288	3348296	REC_WORD	0.288	n/a	LOCK	1	25	[0, 0, 0]	n/a	FR1	0	R1145J
3340.448	0.316	3348584	REC_WORD	0.316	n/a	HOOK	4	25	[0, 0, 0]	n/a	FR1	0	R1145J
3340.764	0.56	3348900	REC_WORD	0.56	n/a	SUIT	5	25	[0, 0, 0]	n/a	FR1	0	R1145J
3341.324	1.08	3349460	REC_WORD	1.08	n/a	BOARD	8	25	[0, 0, 0]	n/a	FR1	0	R1145J
3342.404	23.499	3350540	REC_END	n/a	n/a	n/a	-999	25	[0, 0, 0]	n/a	FR1	0	R1145J
3365.903	0.0	3374039	SESS_END	n/a	n/a	n/a	-999	25	[0, 0, 0]	n/a	FR1	0	R1145J
