onset	duration	sample	trial_type	response_time	stim_file	item_name	serialpos	list	test	answer	experiment	session	subject
0.0	22.343	299430	SESS_START	n/a	n/a	n/a	-999	-999	[0, 0, 0]	n/a	FR1	0	R1054J
22.343	10.428	321772	COUNTDOWN_START	n/a	n/a	n/a	-999	-999	[0, 0, 0]	n/a	FR1	0	R1054J
32.771	3.748	332200	COUNTDOWN_END	n/a	n/a	n/a	-999	-999	[0, 0, 0]	n/a	FR1	0	R1054J
36.519	2.553	335947	PRACTICE_WORD	n/a	n/a	CAMEL	1	-1	[0, 0, 0]	n/a	FR1	0	R1054J
39.072	2.604	338500	PRACTICE_WORD	n/a	n/a	CHEST	2	-1	[0, 0, 0]	n/a	FR1	0	R1054J
41.676	2.437	341104	PRACTICE_WORD	n/a	n/a	BEAM	3	-1	[0, 0, 0]	n/a	FR1	0	R1054J
44.113	2.455	343541	PRACTICE_WORD	n/a	n/a	ATTIC	4	-1	[0, 0, 0]	n/a	FR1	0	R1054J
46.568	2.454	345996	PRACTICE_WORD	n/a	n/a	TONGUE	5	-1	[0, 0, 0]	n/a	FR1	0	R1054J
49.022	2.504	348450	PRACTICE_WORD	n/a	n/a	IRON	6	-1	[0, 0, 0]	n/a	FR1	0	R1054J
51.526	2.587	350954	PRACTICE_WORD	n/a	n/a	WAGON	7	-1	[0, 0, 0]	n/a	FR1	0	R1054J
54.113	2.522	353541	PRACTICE_WORD	n/a	n/a	COTTON	8	-1	[0, 0, 0]	n/a	FR1	0	R1054J
56.635	2.404	356063	PRACTICE_WORD	n/a	n/a	RING	9	-1	[0, 0, 0]	n/a	FR1	0	R1054J
59.039	2.403	358467	PRACTICE_WORD	n/a	n/a	FLOOD	10	-1	[0, 0, 0]	n/a	FR1	0	R1054J
61.442	2.372	360870	PRACTICE_WORD	n/a	n/a	WATCH	11	-1	[0, 0, 0]	n/a	FR1	0	R1054J
63.814	1.618	363241	PRACTICE_WORD	n/a	n/a	RHINO	12	-1	[0, 0, 0]	n/a	FR1	0	R1054J
65.432	0.001	364859	PRACTICE_DISTRACT_START	n/a	n/a	n/a	-999	-1	[0, 0, 0]	n/a	FR1	0	R1054J
65.433	0.049	364860	START	n/a	n/a	n/a	-999	-1	[-999, -999, -999]	n/a	FR1	0	R1054J
65.482	13.056	364909	PROB	13.056	n/a	n/a	-999	-1	[9, 1, 8]	18	FR1	0	R1054J
78.538	22.279	377965	PROB	22.279	n/a	n/a	-999	-1	[5, 4, 1]	10	FR1	0	R1054J
100.817	0.01	400243	STOP	n/a	n/a	n/a	-999	-1	[-999, -999, -999]	n/a	FR1	0	R1054J
100.827	0.651	400253	PRACTICE_DISTRACT_END	n/a	n/a	n/a	-999	-1	[0, 0, 0]	n/a	FR1	0	R1054J
101.478	30.517	400904	PRACTICE_REC_START	n/a	n/a	n/a	-999	-1	[0, 0, 0]	n/a	FR1	0	R1054J
131.995	31.118	431420	PRACTICE_REC_END	n/a	n/a	n/a	-999	-1	[0, 0, 0]	n/a	FR1	0	R1054J
163.113	0.001	462537	COUNTDOWN_START	n/a	n/a	n/a	-999	1	[0, 0, 0]	n/a	FR1	0	R1054J
163.114	10.427	462538	TRIAL	n/a	n/a	n/a	-999	1	[0, 0, 0]	n/a	FR1	0	R1054J
173.541	0.007	472965	COUNTDOWN_END	n/a	n/a	n/a	-999	1	[0, 0, 0]	n/a	FR1	0	R1054J
173.548	2.62	472972	ORIENT	n/a	n/a	n/a	-999	1	[0, 0, 0]	n/a	FR1	0	R1054J
176.168	2.439	475591	WORD	n/a	wordpools/wordpool_EN.txt	FLEA	1	1	[0, 0, 0]	n/a	FR1	0	R1054J
178.607	2.52	478030	WORD	n/a	wordpools/wordpool_EN.txt	SNAKE	2	1	[0, 0, 0]	n/a	FR1	0	R1054J
181.127	2.622	480550	WORD	n/a	wordpools/wordpool_EN.txt	HAWK	3	1	[0, 0, 0]	n/a	FR1	0	R1054J
183.749	2.537	483172	WORD	n/a	wordpools/wordpool_EN.txt	BEE	4	1	[0, 0, 0]	n/a	FR1	0	R1054J
186.286	2.505	485709	WORD	n/a	wordpools/wordpool_EN.txt	FORK	5	1	[0, 0, 0]	n/a	FR1	0	R1054J
188.791	2.47	488214	WORD	n/a	wordpools/wordpool_EN.txt	BRICK	6	1	[0, 0, 0]	n/a	FR1	0	R1054J
191.261	2.588	490684	WORD	n/a	wordpools/wordpool_EN.txt	SHELL	7	1	[0, 0, 0]	n/a	FR1	0	R1054J
193.849	2.403	493272	WORD	n/a	wordpools/wordpool_EN.txt	SPONGE	8	1	[0, 0, 0]	n/a	FR1	0	R1054J
196.252	2.472	495675	WORD	n/a	wordpools/wordpool_EN.txt	CLAY	9	1	[0, 0, 0]	n/a	FR1	0	R1054J
198.724	2.554	498147	WORD	n/a	wordpools/wordpool_EN.txt	STONE	10	1	[0, 0, 0]	n/a	FR1	0	R1054J
201.278	2.471	500701	WORD	n/a	wordpools/wordpool_EN.txt	CUBE	11	1	[0, 0, 0]	n/a	FR1	0	R1054J
203.749	1.619	503171	WORD	n/a	wordpools/wordpool_EN.txt	PEACH	12	1	[0, 0, 0]	n/a	FR1	0	R1054J
205.368	0.0	504790	DISTRACT_START	n/a	n/a	n/a	-999	1	[0, 0, 0]	n/a	FR1	0	R1054J
205.368	0.016	504790	START	n/a	n/a	n/a	-999	1	[-999, -999, -999]	n/a	FR1	0	R1054J
205.384	4.325	504806	PROB	4.325	n/a	n/a	-999	1	[2, 8, 2]	12	FR1	0	R1054J
209.709	2.939	509131	PROB	2.939	n/a	n/a	-999	1	[2, 6, 4]	12	FR1	0	R1054J
212.648	7.061	512070	PROB	7.061	n/a	n/a	-999	1	[7, 9, 9]	25	FR1	0	R1054J
219.709	4.909	519131	PROB	4.909	n/a	n/a	-999	1	[4, 1, 3]	8	FR1	0	R1054J
224.618	4.263	524040	PROB	4.263	n/a	n/a	-999	1	[1, 9, 8]	18	FR1	0	R1054J
228.881	0.011	528303	STOP	n/a	n/a	n/a	-999	1	[-999, -999, -999]	n/a	FR1	0	R1054J
228.892	1.505	528314	DISTRACT_END	n/a	n/a	n/a	-999	1	[0, 0, 0]	n/a	FR1	0	R1054J
230.397	1.57	529818	REC_START	n/a	n/a	n/a	-999	1	[0, 0, 0]	n/a	FR1	0	R1054J
231.967	1.301	531388	REC_WORD	1.301	n/a	FLEA	-999	1	[0, 0, 0]	n/a	FR1	0	R1054J
233.268	1.028	532689	REC_WORD	1.028	n/a	SNAKE	-999	1	[0, 0, 0]	n/a	FR1	0	R1054J
234.296	1.232	533717	REC_WORD	1.232	n/a	HAWK	-999	1	[0, 0, 0]	n/a	FR1	0	R1054J
235.528	0.832	534949	REC_WORD	0.832	n/a	BEE	-999	1	[0, 0, 0]	n/a	FR1	0	R1054J
236.36	2.817	535781	REC_WORD	2.817	n/a	FORK	-999	1	[0, 0, 0]	n/a	FR1	0	R1054J
239.177	3.0	538598	REC_WORD	3.0	n/a	FLOOD	-999	1	[0, 0, 0]	n/a	FR1	0	R1054J
242.177	5.038	541598	REC_WORD	5.038	n/a	CUBE	-999	1	[0, 0, 0]	n/a	FR1	0	R1054J
247.215	12.857	546636	REC_WORD	12.857	n/a	SPONGE	-999	1	[0, 0, 0]	n/a	FR1	0	R1054J
260.072	446.607	559492	REC_END	n/a	n/a	n/a	-999	1	[0, 0, 0]	n/a	FR1	0	R1054J
706.679	0.0	1006083	TRIAL	n/a	n/a	n/a	-999	2	[0, 0, 0]	n/a	FR1	0	R1054J
706.679	10.428	1006083	COUNTDOWN_START	n/a	n/a	n/a	-999	2	[0, 0, 0]	n/a	FR1	0	R1054J
717.107	0.005	1016511	COUNTDOWN_END	n/a	n/a	n/a	-999	2	[0, 0, 0]	n/a	FR1	0	R1054J
717.112	2.539	1016516	ORIENT	n/a	n/a	n/a	-999	2	[0, 0, 0]	n/a	FR1	0	R1054J
719.651	2.486	1019055	WORD	n/a	wordpools/wordpool_EN.txt	BOWL	1	2	[0, 0, 0]	n/a	FR1	0	R1054J
722.137	2.405	1021541	WORD	n/a	wordpools/wordpool_EN.txt	CART	2	2	[0, 0, 0]	n/a	FR1	0	R1054J
724.542	2.554	1023946	WORD	n/a	wordpools/wordpool_EN.txt	LOCK	3	2	[0, 0, 0]	n/a	FR1	0	R1054J
727.096	2.471	1026500	WORD	n/a	wordpools/wordpool_EN.txt	PEA	4	2	[0, 0, 0]	n/a	FR1	0	R1054J
729.567	2.488	1028971	WORD	n/a	wordpools/wordpool_EN.txt	BROOM	5	2	[0, 0, 0]	n/a	FR1	0	R1054J
732.055	2.454	1031459	WORD	n/a	wordpools/wordpool_EN.txt	FLOOR	6	2	[0, 0, 0]	n/a	FR1	0	R1054J
734.509	2.437	1033912	WORD	n/a	wordpools/wordpool_EN.txt	BENCH	7	2	[0, 0, 0]	n/a	FR1	0	R1054J
736.946	2.52	1036349	WORD	n/a	wordpools/wordpool_EN.txt	CHIN	8	2	[0, 0, 0]	n/a	FR1	0	R1054J
739.466	2.389	1038869	WORD	n/a	wordpools/wordpool_EN.txt	TEA	9	2	[0, 0, 0]	n/a	FR1	0	R1054J
741.855	2.47	1041258	WORD	n/a	wordpools/wordpool_EN.txt	SUIT	10	2	[0, 0, 0]	n/a	FR1	0	R1054J
744.325	2.439	1043728	WORD	n/a	wordpools/wordpool_EN.txt	BED	11	2	[0, 0, 0]	n/a	FR1	0	R1054J
746.764	1.617	1046167	WORD	n/a	wordpools/wordpool_EN.txt	POOL	12	2	[0, 0, 0]	n/a	FR1	0	R1054J
748.381	0.001	1047784	DISTRACT_START	n/a	n/a	n/a	-999	2	[0, 0, 0]	n/a	FR1	0	R1054J
748.382	0.016	1047785	START	n/a	n/a	n/a	-999	2	[-999, -999, -999]	n/a	FR1	0	R1054J
748.398	12.772	1047801	PROB	12.772	n/a	n/a	-999	2	[9, 7, 8]	18	FR1	0	R1054J
761.17	16.351	1060573	PROB	16.351	n/a	n/a	-999	2	[9, 6, 8]	23	FR1	0	R1054J
777.521	0.01	1076923	STOP	n/a	n/a	n/a	-999	2	[-999, -999, -999]	n/a	FR1	0	R1054J
777.531	1.053	1076933	DISTRACT_END	n/a	n/a	n/a	-999	2	[0, 0, 0]	n/a	FR1	0	R1054J
778.584	2.388	1077986	REC_START	n/a	n/a	n/a	-999	2	[0, 0, 0]	n/a	FR1	0	R1054J
780.972	1.262	1080374	REC_WORD	1.262	n/a	BOWL	-999	2	[0, 0, 0]	n/a	FR1	0	R1054J
782.234	0.967	1081636	REC_WORD	0.967	n/a	CART	-999	2	[0, 0, 0]	n/a	FR1	0	R1054J
783.201	1.218	1082603	REC_WORD	1.218	n/a	LOCK	-999	2	[0, 0, 0]	n/a	FR1	0	R1054J
784.419	0.86	1083821	REC_WORD	0.86	n/a	PEA	-999	2	[0, 0, 0]	n/a	FR1	0	R1054J
785.279	1.538	1084681	REC_WORD	1.538	n/a	FLOOR	-999	2	[0, 0, 0]	n/a	FR1	0	R1054J
786.817	1.796	1086219	REC_WORD	1.796	n/a	BROOM	-999	2	[0, 0, 0]	n/a	FR1	0	R1054J
788.613	19.984	1088015	REC_WORD	19.984	n/a	BED	-999	2	[0, 0, 0]	n/a	FR1	0	R1054J
808.597	11.488	1107998	REC_END	n/a	n/a	n/a	-999	2	[0, 0, 0]	n/a	FR1	0	R1054J
820.085	0.001	1119485	COUNTDOWN_START	n/a	n/a	n/a	-999	3	[0, 0, 0]	n/a	FR1	0	R1054J
820.086	10.427	1119486	TRIAL	n/a	n/a	n/a	-999	3	[0, 0, 0]	n/a	FR1	0	R1054J
830.513	0.008	1129913	COUNTDOWN_END	n/a	n/a	n/a	-999	3	[0, 0, 0]	n/a	FR1	0	R1054J
830.521	2.554	1129921	ORIENT	n/a	n/a	n/a	-999	3	[0, 0, 0]	n/a	FR1	0	R1054J
833.075	2.621	1132475	WORD	n/a	wordpools/wordpool_EN.txt	BOOK	1	3	[0, 0, 0]	n/a	FR1	0	R1054J
835.696	2.503	1135096	WORD	n/a	wordpools/wordpool_EN.txt	WHEEL	2	3	[0, 0, 0]	n/a	FR1	0	R1054J
838.199	2.405	1137599	WORD	n/a	wordpools/wordpool_EN.txt	CLOCK	3	3	[0, 0, 0]	n/a	FR1	0	R1054J
840.604	2.438	1140004	WORD	n/a	wordpools/wordpool_EN.txt	TOOL	4	3	[0, 0, 0]	n/a	FR1	0	R1054J
843.042	2.504	1142442	WORD	n/a	wordpools/wordpool_EN.txt	MOLE	5	3	[0, 0, 0]	n/a	FR1	0	R1054J
845.546	2.437	1144946	WORD	n/a	wordpools/wordpool_EN.txt	RAT	6	3	[0, 0, 0]	n/a	FR1	0	R1054J
847.983	2.437	1147382	WORD	n/a	wordpools/wordpool_EN.txt	FUDGE	7	3	[0, 0, 0]	n/a	FR1	0	R1054J
850.42	2.538	1149819	WORD	n/a	wordpools/wordpool_EN.txt	GLASS	8	3	[0, 0, 0]	n/a	FR1	0	R1054J
852.958	2.47	1152357	WORD	n/a	wordpools/wordpool_EN.txt	CLOWN	9	3	[0, 0, 0]	n/a	FR1	0	R1054J
855.428	2.589	1154827	WORD	n/a	wordpools/wordpool_EN.txt	LAMP	10	3	[0, 0, 0]	n/a	FR1	0	R1054J
858.017	2.522	1157416	WORD	n/a	wordpools/wordpool_EN.txt	JEEP	11	3	[0, 0, 0]	n/a	FR1	0	R1054J
860.539	1.617	1159938	WORD	n/a	wordpools/wordpool_EN.txt	TRAY	12	3	[0, 0, 0]	n/a	FR1	0	R1054J
862.156	0.001	1161555	DISTRACT_START	n/a	n/a	n/a	-999	3	[0, 0, 0]	n/a	FR1	0	R1054J
862.157	0.016	1161556	START	n/a	n/a	n/a	-999	3	[-999, -999, -999]	n/a	FR1	0	R1054J
862.173	14.408	1161572	PROB	14.408	n/a	n/a	-999	3	[5, 6, 7]	18	FR1	0	R1054J
876.581	5.619	1175979	PROB	5.619	n/a	n/a	-999	3	[2, 9, 3]	14	FR1	0	R1054J
882.2	0.007	1181598	STOP	n/a	n/a	n/a	-999	3	[-999, -999, -999]	n/a	FR1	0	R1054J
882.207	1.152	1181605	DISTRACT_END	n/a	n/a	n/a	-999	3	[0, 0, 0]	n/a	FR1	0	R1054J
883.359	1.901	1182757	REC_START	n/a	n/a	n/a	-999	3	[0, 0, 0]	n/a	FR1	0	R1054J
885.26	1.775	1184658	REC_WORD	1.775	n/a	BOOK	-999	3	[0, 0, 0]	n/a	FR1	0	R1054J
887.035	1.669	1186433	REC_WORD	1.669	n/a	WHEEL	-999	3	[0, 0, 0]	n/a	FR1	0	R1054J
888.704	4.652	1188102	REC_WORD	4.652	n/a	CLOCK	-999	3	[0, 0, 0]	n/a	FR1	0	R1054J
893.356	20.017	1192754	REC_WORD	20.017	n/a	JEEP	-999	3	[0, 0, 0]	n/a	FR1	0	R1054J
913.373	5.112	1212770	REC_END	n/a	n/a	n/a	-999	3	[0, 0, 0]	n/a	FR1	0	R1054J
918.485	0.0	1217882	TRIAL	n/a	n/a	n/a	-999	4	[0, 0, 0]	n/a	FR1	0	R1054J
918.485	10.428	1217882	COUNTDOWN_START	n/a	n/a	n/a	-999	4	[0, 0, 0]	n/a	FR1	0	R1054J
928.913	0.006	1228310	COUNTDOWN_END	n/a	n/a	n/a	-999	4	[0, 0, 0]	n/a	FR1	0	R1054J
928.919	2.554	1228316	ORIENT	n/a	n/a	n/a	-999	4	[0, 0, 0]	n/a	FR1	0	R1054J
931.473	2.588	1230869	WORD	n/a	wordpools/wordpool_EN.txt	GOLD	1	4	[0, 0, 0]	n/a	FR1	0	R1054J
934.061	2.42	1233457	WORD	n/a	wordpools/wordpool_EN.txt	SHEEP	2	4	[0, 0, 0]	n/a	FR1	0	R1054J
936.481	2.439	1235877	WORD	n/a	wordpools/wordpool_EN.txt	CAPE	3	4	[0, 0, 0]	n/a	FR1	0	R1054J
938.92	2.403	1238316	WORD	n/a	wordpools/wordpool_EN.txt	MOOSE	4	4	[0, 0, 0]	n/a	FR1	0	R1054J
941.323	2.622	1240719	WORD	n/a	wordpools/wordpool_EN.txt	TOOTH	5	4	[0, 0, 0]	n/a	FR1	0	R1054J
943.945	2.621	1243341	WORD	n/a	wordpools/wordpool_EN.txt	TEETH	6	4	[0, 0, 0]	n/a	FR1	0	R1054J
946.566	2.421	1245962	WORD	n/a	wordpools/wordpool_EN.txt	SAIL	7	4	[0, 0, 0]	n/a	FR1	0	R1054J
948.987	2.537	1248383	WORD	n/a	wordpools/wordpool_EN.txt	FOX	8	4	[0, 0, 0]	n/a	FR1	0	R1054J
951.524	2.438	1250920	WORD	n/a	wordpools/wordpool_EN.txt	LEAF	9	4	[0, 0, 0]	n/a	FR1	0	R1054J
953.962	2.486	1253358	WORD	n/a	wordpools/wordpool_EN.txt	ANT	10	4	[0, 0, 0]	n/a	FR1	0	R1054J
956.448	2.422	1255844	WORD	n/a	wordpools/wordpool_EN.txt	STEM	11	4	[0, 0, 0]	n/a	FR1	0	R1054J
958.87	1.619	1258265	WORD	n/a	wordpools/wordpool_EN.txt	MOUSE	12	4	[0, 0, 0]	n/a	FR1	0	R1054J
960.489	0.001	1259884	DISTRACT_START	n/a	n/a	n/a	-999	4	[0, 0, 0]	n/a	FR1	0	R1054J
960.49	0.016	1259885	START	n/a	n/a	n/a	-999	4	[-999, -999, -999]	n/a	FR1	0	R1054J
960.506	3.655	1259901	PROB	3.655	n/a	n/a	-999	4	[3, 6, 4]	13	FR1	0	R1054J
964.161	2.422	1263556	PROB	2.422	n/a	n/a	-999	4	[2, 8, 3]	13	FR1	0	R1054J
966.583	4.54	1265978	PROB	4.54	n/a	n/a	-999	4	[1, 3, 5]	9	FR1	0	R1054J
971.123	3.573	1270518	PROB	3.573	n/a	n/a	-999	4	[5, 2, 8]	15	FR1	0	R1054J
974.696	7.945	1274091	PROB	7.945	n/a	n/a	-999	4	[9, 6, 8]	22	FR1	0	R1054J
982.641	0.019	1282036	STOP	n/a	n/a	n/a	-999	4	[-999, -999, -999]	n/a	FR1	0	R1054J
982.66	1.119	1282055	DISTRACT_END	n/a	n/a	n/a	-999	4	[0, 0, 0]	n/a	FR1	0	R1054J
983.779	1.666	1283174	REC_START	n/a	n/a	n/a	-999	4	[0, 0, 0]	n/a	FR1	0	R1054J
985.445	1.372	1284840	REC_WORD	1.372	n/a	GOLD	-999	4	[0, 0, 0]	n/a	FR1	0	R1054J
986.817	1.611	1286211	REC_WORD	1.611	n/a	SHEEP	-999	4	[0, 0, 0]	n/a	FR1	0	R1054J
988.428	1.141	1287822	REC_WORD	1.141	n/a	CAPE	-999	4	[0, 0, 0]	n/a	FR1	0	R1054J
989.569	1.77	1288963	REC_WORD	1.77	n/a	MOOSE	-999	4	[0, 0, 0]	n/a	FR1	0	R1054J
991.339	1.183	1290733	REC_WORD	1.183	n/a	MOUSE	-999	4	[0, 0, 0]	n/a	FR1	0	R1054J
992.522	5.708	1291916	REC_WORD	5.708	n/a	FOX	-999	4	[0, 0, 0]	n/a	FR1	0	R1054J
998.23	7.22	1297624	REC_WORD	7.22	n/a	ANT	-999	4	[0, 0, 0]	n/a	FR1	0	R1054J
1005.45	8.342	1304844	REC_WORD	8.342	n/a	SAIL	-999	4	[0, 0, 0]	n/a	FR1	0	R1054J
1013.792	5.98	1313186	REC_END	n/a	n/a	n/a	-999	4	[0, 0, 0]	n/a	FR1	0	R1054J
1019.772	0.001	1319165	COUNTDOWN_START	n/a	n/a	n/a	-999	5	[0, 0, 0]	n/a	FR1	0	R1054J
1019.773	10.427	1319166	TRIAL	n/a	n/a	n/a	-999	5	[0, 0, 0]	n/a	FR1	0	R1054J
1030.2	0.006	1329593	COUNTDOWN_END	n/a	n/a	n/a	-999	5	[0, 0, 0]	n/a	FR1	0	R1054J
1030.206	2.388	1329599	ORIENT	n/a	n/a	n/a	-999	5	[0, 0, 0]	n/a	FR1	0	R1054J
1032.594	2.486	1331987	WORD	n/a	wordpools/wordpool_EN.txt	RAKE	1	5	[0, 0, 0]	n/a	FR1	0	R1054J
1035.08	2.572	1334473	WORD	n/a	wordpools/wordpool_EN.txt	EAR	2	5	[0, 0, 0]	n/a	FR1	0	R1054J
1037.652	2.57	1337045	WORD	n/a	wordpools/wordpool_EN.txt	HOLE	3	5	[0, 0, 0]	n/a	FR1	0	R1054J
1040.222	2.422	1339615	WORD	n/a	wordpools/wordpool_EN.txt	LEG	4	5	[0, 0, 0]	n/a	FR1	0	R1054J
1042.644	2.388	1342036	WORD	n/a	wordpools/wordpool_EN.txt	CORD	5	5	[0, 0, 0]	n/a	FR1	0	R1054J
1045.032	2.587	1344424	WORD	n/a	wordpools/wordpool_EN.txt	YARD	6	5	[0, 0, 0]	n/a	FR1	0	R1054J
1047.619	2.521	1347011	WORD	n/a	wordpools/wordpool_EN.txt	COUCH	7	5	[0, 0, 0]	n/a	FR1	0	R1054J
1050.14	2.588	1349532	WORD	n/a	wordpools/wordpool_EN.txt	ROPE	8	5	[0, 0, 0]	n/a	FR1	0	R1054J
1052.728	2.453	1352120	WORD	n/a	wordpools/wordpool_EN.txt	TAIL	9	5	[0, 0, 0]	n/a	FR1	0	R1054J
1055.181	2.455	1354573	WORD	n/a	wordpools/wordpool_EN.txt	LAWN	10	5	[0, 0, 0]	n/a	FR1	0	R1054J
1057.636	2.453	1357028	WORD	n/a	wordpools/wordpool_EN.txt	BAND	11	5	[0, 0, 0]	n/a	FR1	0	R1054J
1060.089	1.604	1359481	WORD	n/a	wordpools/wordpool_EN.txt	DART	12	5	[0, 0, 0]	n/a	FR1	0	R1054J
1061.693	0.001	1361085	DISTRACT_START	n/a	n/a	n/a	-999	5	[0, 0, 0]	n/a	FR1	0	R1054J
1061.694	0.016	1361086	START	n/a	n/a	n/a	-999	5	[-999, -999, -999]	n/a	FR1	0	R1054J
1061.71	3.688	1361102	PROB	3.688	n/a	n/a	-999	5	[9, 1, 8]	18	FR1	0	R1054J
1065.398	5.693	1364790	PROB	5.693	n/a	n/a	-999	5	[1, 6, 8]	15	FR1	0	R1054J
1071.091	3.99	1370482	PROB	3.99	n/a	n/a	-999	5	[4, 4, 6]	14	FR1	0	R1054J
1075.081	2.589	1374472	PROB	2.589	n/a	n/a	-999	5	[3, 6, 4]	13	FR1	0	R1054J
1077.67	5.794	1377061	PROB	5.794	n/a	n/a	-999	5	[9, 2, 5]	16	FR1	0	R1054J
1083.464	0.015	1382855	STOP	n/a	n/a	n/a	-999	5	[-999, -999, -999]	n/a	FR1	0	R1054J
1083.479	1.103	1382870	DISTRACT_END	n/a	n/a	n/a	-999	5	[0, 0, 0]	n/a	FR1	0	R1054J
1084.582	30.0	1383973	REC_START	n/a	n/a	n/a	-999	5	[0, 0, 0]	n/a	FR1	0	R1054J
1114.582	0.013	1413972	REC_WORD_VV	0.013	n/a	<>	-999	5	[0, 0, 0]	n/a	FR1	0	R1054J
1114.595	11.256	1413985	REC_END	n/a	n/a	n/a	-999	5	[0, 0, 0]	n/a	FR1	0	R1054J
1125.851	0.001	1425241	COUNTDOWN_START	n/a	n/a	n/a	-999	6	[0, 0, 0]	n/a	FR1	0	R1054J
1125.852	10.427	1425242	TRIAL	n/a	n/a	n/a	-999	6	[0, 0, 0]	n/a	FR1	0	R1054J
1136.279	0.005	1435668	COUNTDOWN_END	n/a	n/a	n/a	-999	6	[0, 0, 0]	n/a	FR1	0	R1054J
1136.284	2.489	1435673	ORIENT	n/a	n/a	n/a	-999	6	[0, 0, 0]	n/a	FR1	0	R1054J
1138.773	2.469	1438162	WORD	n/a	wordpools/wordpool_EN.txt	VEST	1	6	[0, 0, 0]	n/a	FR1	0	R1054J
1141.242	2.506	1440631	WORD	n/a	wordpools/wordpool_EN.txt	CANE	2	6	[0, 0, 0]	n/a	FR1	0	R1054J
1143.748	2.636	1443137	WORD	n/a	wordpools/wordpool_EN.txt	DRESS	3	6	[0, 0, 0]	n/a	FR1	0	R1054J
1146.384	2.405	1445773	WORD	n/a	wordpools/wordpool_EN.txt	BLUSH	4	6	[0, 0, 0]	n/a	FR1	0	R1054J
1148.789	2.404	1448178	WORD	n/a	wordpools/wordpool_EN.txt	BLOOM	5	6	[0, 0, 0]	n/a	FR1	0	R1054J
1151.193	2.571	1450582	WORD	n/a	wordpools/wordpool_EN.txt	LIP	6	6	[0, 0, 0]	n/a	FR1	0	R1054J
1153.764	2.57	1453153	WORD	n/a	wordpools/wordpool_EN.txt	AXE	7	6	[0, 0, 0]	n/a	FR1	0	R1054J
1156.334	2.422	1455722	WORD	n/a	wordpools/wordpool_EN.txt	TIE	8	6	[0, 0, 0]	n/a	FR1	0	R1054J
1158.756	2.471	1458144	WORD	n/a	wordpools/wordpool_EN.txt	SOCK	9	6	[0, 0, 0]	n/a	FR1	0	R1054J
1161.227	2.604	1460615	WORD	n/a	wordpools/wordpool_EN.txt	POND	10	6	[0, 0, 0]	n/a	FR1	0	R1054J
1163.831	2.471	1463219	WORD	n/a	wordpools/wordpool_EN.txt	HAND	11	6	[0, 0, 0]	n/a	FR1	0	R1054J
1166.302	1.62	1465690	WORD	n/a	wordpools/wordpool_EN.txt	VASE	12	6	[0, 0, 0]	n/a	FR1	0	R1054J
1167.922	0.0	1467310	DISTRACT_START	n/a	n/a	n/a	-999	6	[0, 0, 0]	n/a	FR1	0	R1054J
1167.922	0.016	1467310	START	n/a	n/a	n/a	-999	6	[-999, -999, -999]	n/a	FR1	0	R1054J
1167.938	3.706	1467326	PROB	3.706	n/a	n/a	-999	6	[5, 4, 5]	14	FR1	0	R1054J
1171.644	2.687	1471032	PROB	2.687	n/a	n/a	-999	6	[9, 6, 1]	16	FR1	0	R1054J
1174.331	8.482	1473719	PROB	8.482	n/a	n/a	-999	6	[8, 7, 7]	22	FR1	0	R1054J
1182.813	2.121	1482200	PROB	2.121	n/a	n/a	-999	6	[1, 5, 5]	11	FR1	0	R1054J
1184.934	3.707	1484321	PROB	3.707	n/a	n/a	-999	6	[7, 4, 4]	15	FR1	0	R1054J
1188.641	0.016	1488028	STOP	n/a	n/a	n/a	-999	6	[-999, -999, -999]	n/a	FR1	0	R1054J
1188.657	1.035	1488044	DISTRACT_END	n/a	n/a	n/a	-999	6	[0, 0, 0]	n/a	FR1	0	R1054J
1189.692	0.751	1489079	REC_START	n/a	n/a	n/a	-999	6	[0, 0, 0]	n/a	FR1	0	R1054J
1190.443	1.323	1489830	REC_WORD	1.323	n/a	VEST	-999	6	[0, 0, 0]	n/a	FR1	0	R1054J
1191.766	1.14	1491153	REC_WORD	1.14	n/a	CANE	-999	6	[0, 0, 0]	n/a	FR1	0	R1054J
1192.906	1.516	1492293	REC_WORD	1.516	n/a	LIP	-999	6	[0, 0, 0]	n/a	FR1	0	R1054J
1194.422	4.619	1493809	REC_WORD	4.619	n/a	BLUSH	-999	6	[0, 0, 0]	n/a	FR1	0	R1054J
1199.041	6.851	1498428	REC_WORD	6.851	n/a	BLOOM	-999	6	[0, 0, 0]	n/a	FR1	0	R1054J
1205.892	13.821	1505279	REC_WORD	13.821	n/a	AXE	-999	6	[0, 0, 0]	n/a	FR1	0	R1054J
1219.713	3.835	1519099	REC_END	n/a	n/a	n/a	-999	6	[0, 0, 0]	n/a	FR1	0	R1054J
1223.548	0.001	1522934	COUNTDOWN_START	n/a	n/a	n/a	-999	7	[0, 0, 0]	n/a	FR1	0	R1054J
1223.549	10.427	1522935	TRIAL	n/a	n/a	n/a	-999	7	[0, 0, 0]	n/a	FR1	0	R1054J
1233.976	0.007	1533362	COUNTDOWN_END	n/a	n/a	n/a	-999	7	[0, 0, 0]	n/a	FR1	0	R1054J
1233.983	2.47	1533369	ORIENT	n/a	n/a	n/a	-999	7	[0, 0, 0]	n/a	FR1	0	R1054J
1236.453	2.405	1535839	WORD	n/a	wordpools/wordpool_EN.txt	MULE	1	7	[0, 0, 0]	n/a	FR1	0	R1054J
1238.858	2.386	1538243	WORD	n/a	wordpools/wordpool_EN.txt	HORSE	2	7	[0, 0, 0]	n/a	FR1	0	R1054J
1241.244	2.505	1540629	WORD	n/a	wordpools/wordpool_EN.txt	SLIME	3	7	[0, 0, 0]	n/a	FR1	0	R1054J
1243.749	2.487	1543134	WORD	n/a	wordpools/wordpool_EN.txt	STAIR	4	7	[0, 0, 0]	n/a	FR1	0	R1054J
1246.236	2.405	1545621	WORD	n/a	wordpools/wordpool_EN.txt	MILK	5	7	[0, 0, 0]	n/a	FR1	0	R1054J
1248.641	2.404	1548026	WORD	n/a	wordpools/wordpool_EN.txt	CLOUD	6	7	[0, 0, 0]	n/a	FR1	0	R1054J
1251.045	2.454	1550430	WORD	n/a	wordpools/wordpool_EN.txt	NAIL	7	7	[0, 0, 0]	n/a	FR1	0	R1054J
1253.499	2.554	1552884	WORD	n/a	wordpools/wordpool_EN.txt	RAIN	8	7	[0, 0, 0]	n/a	FR1	0	R1054J
1256.053	2.42	1555438	WORD	n/a	wordpools/wordpool_EN.txt	CUP	9	7	[0, 0, 0]	n/a	FR1	0	R1054J
1258.473	2.439	1557858	WORD	n/a	wordpools/wordpool_EN.txt	RICE	10	7	[0, 0, 0]	n/a	FR1	0	R1054J
1260.912	2.604	1560297	WORD	n/a	wordpools/wordpool_EN.txt	FOOT	11	7	[0, 0, 0]	n/a	FR1	0	R1054J
1263.516	1.618	1562901	WORD	n/a	wordpools/wordpool_EN.txt	SALT	12	7	[0, 0, 0]	n/a	FR1	0	R1054J
1265.134	0.001	1564519	DISTRACT_START	n/a	n/a	n/a	-999	7	[0, 0, 0]	n/a	FR1	0	R1054J
1265.135	0.016	1564520	START	n/a	n/a	n/a	-999	7	[-999, -999, -999]	n/a	FR1	0	R1054J
1265.151	7.53	1564536	PROB	7.53	n/a	n/a	-999	7	[6, 9, 9]	24	FR1	0	R1054J
1272.681	7.762	1572065	PROB	7.762	n/a	n/a	-999	7	[7, 4, 8]	19	FR1	0	R1054J
1280.443	3.056	1579827	PROB	3.056	n/a	n/a	-999	7	[8, 1, 4]	13	FR1	0	R1054J
1283.499	6.43	1582883	PROB	6.43	n/a	n/a	-999	7	[6, 6, 9]	21	FR1	0	R1054J
1289.929	0.015	1589313	STOP	n/a	n/a	n/a	-999	7	[-999, -999, -999]	n/a	FR1	0	R1054J
1289.944	1.218	1589328	DISTRACT_END	n/a	n/a	n/a	-999	7	[0, 0, 0]	n/a	FR1	0	R1054J
1291.162	0.486	1590546	REC_START	n/a	n/a	n/a	-999	7	[0, 0, 0]	n/a	FR1	0	R1054J
1291.648	1.709	1591032	REC_WORD_VV	1.709	n/a	<>	-999	7	[0, 0, 0]	n/a	FR1	0	R1054J
1293.357	1.392	1592741	REC_WORD	1.392	n/a	MULE	-999	7	[0, 0, 0]	n/a	FR1	0	R1054J
1294.749	1.183	1594132	REC_WORD	1.183	n/a	HORSE	-999	7	[0, 0, 0]	n/a	FR1	0	R1054J
1295.932	0.917	1595315	REC_WORD	0.917	n/a	MILK	-999	7	[0, 0, 0]	n/a	FR1	0	R1054J
1296.849	3.269	1596232	REC_WORD	3.269	n/a	SLIME	-999	7	[0, 0, 0]	n/a	FR1	0	R1054J
1300.118	21.057	1599501	REC_WORD_VV	21.057	n/a	<>	-999	7	[0, 0, 0]	n/a	FR1	0	R1054J
1321.175	21.441	1620558	REC_END	n/a	n/a	n/a	-999	7	[0, 0, 0]	n/a	FR1	0	R1054J
1342.616	0.0	1641998	TRIAL	n/a	n/a	n/a	-999	8	[0, 0, 0]	n/a	FR1	0	R1054J
1342.616	10.428	1641998	COUNTDOWN_START	n/a	n/a	n/a	-999	8	[0, 0, 0]	n/a	FR1	0	R1054J
1353.044	0.006	1652425	COUNTDOWN_END	n/a	n/a	n/a	-999	8	[0, 0, 0]	n/a	FR1	0	R1054J
1353.05	2.388	1652431	ORIENT	n/a	n/a	n/a	-999	8	[0, 0, 0]	n/a	FR1	0	R1054J
1355.438	2.42	1654819	WORD	n/a	wordpools/wordpool_EN.txt	SUN	1	8	[0, 0, 0]	n/a	FR1	0	R1054J
1357.858	2.52	1657239	WORD	n/a	wordpools/wordpool_EN.txt	ROOM	2	8	[0, 0, 0]	n/a	FR1	0	R1054J
1360.378	2.605	1659759	WORD	n/a	wordpools/wordpool_EN.txt	BADGE	3	8	[0, 0, 0]	n/a	FR1	0	R1054J
1362.983	2.437	1662364	WORD	n/a	wordpools/wordpool_EN.txt	BOX	4	8	[0, 0, 0]	n/a	FR1	0	R1054J
1365.42	2.522	1664801	WORD	n/a	wordpools/wordpool_EN.txt	SOAP	5	8	[0, 0, 0]	n/a	FR1	0	R1054J
1367.942	2.419	1667323	WORD	n/a	wordpools/wordpool_EN.txt	FOAM	6	8	[0, 0, 0]	n/a	FR1	0	R1054J
1370.361	2.389	1669742	WORD	n/a	wordpools/wordpool_EN.txt	SHIRT	7	8	[0, 0, 0]	n/a	FR1	0	R1054J
1372.75	2.469	1672131	WORD	n/a	wordpools/wordpool_EN.txt	BAG	8	8	[0, 0, 0]	n/a	FR1	0	R1054J
1375.219	2.556	1674600	WORD	n/a	wordpools/wordpool_EN.txt	CROWN	9	8	[0, 0, 0]	n/a	FR1	0	R1054J
1377.775	2.403	1677156	WORD	n/a	wordpools/wordpool_EN.txt	STRING	10	8	[0, 0, 0]	n/a	FR1	0	R1054J
1380.178	2.405	1679558	WORD	n/a	wordpools/wordpool_EN.txt	FAN	11	8	[0, 0, 0]	n/a	FR1	0	R1054J
1382.583	1.618	1681963	WORD	n/a	wordpools/wordpool_EN.txt	WHALE	12	8	[0, 0, 0]	n/a	FR1	0	R1054J
1384.201	0.001	1683581	DISTRACT_START	n/a	n/a	n/a	-999	8	[0, 0, 0]	n/a	FR1	0	R1054J
1384.202	0.016	1683582	START	n/a	n/a	n/a	-999	8	[-999, -999, -999]	n/a	FR1	0	R1054J
1384.218	4.09	1683598	PROB	4.09	n/a	n/a	-999	8	[2, 3, 7]	12	FR1	0	R1054J
1388.308	7.129	1687688	PROB	7.129	n/a	n/a	-999	8	[2, 5, 3]	10	FR1	0	R1054J
1395.437	3.624	1694817	PROB	3.624	n/a	n/a	-999	8	[4, 2, 1]	7	FR1	0	R1054J
1399.061	10.748	1698441	PROB	10.748	n/a	n/a	-999	8	[7, 7, 8]	22	FR1	0	R1054J
1409.809	0.02	1709188	STOP	n/a	n/a	n/a	-999	8	[-999, -999, -999]	n/a	FR1	0	R1054J
1409.829	1.052	1709208	DISTRACT_END	n/a	n/a	n/a	-999	8	[0, 0, 0]	n/a	FR1	0	R1054J
1410.881	0.766	1710260	REC_START	n/a	n/a	n/a	-999	8	[0, 0, 0]	n/a	FR1	0	R1054J
1411.647	1.238	1711026	REC_WORD	1.238	n/a	SUN	-999	8	[0, 0, 0]	n/a	FR1	0	R1054J
1412.885	1.149	1712264	REC_WORD	1.149	n/a	ROOM	-999	8	[0, 0, 0]	n/a	FR1	0	R1054J
1414.034	0.985	1713413	REC_WORD	0.985	n/a	BOX	-999	8	[0, 0, 0]	n/a	FR1	0	R1054J
1415.019	1.44	1714398	REC_WORD	1.44	n/a	SOAP	-999	8	[0, 0, 0]	n/a	FR1	0	R1054J
1416.459	5.105	1715838	REC_WORD	5.105	n/a	FAN	-999	8	[0, 0, 0]	n/a	FR1	0	R1054J
1421.564	14.963	1720943	REC_WORD	14.963	n/a	FOAM	-999	8	[0, 0, 0]	n/a	FR1	0	R1054J
1436.527	4.367	1735905	REC_WORD_VV	4.367	n/a	<>	-999	8	[0, 0, 0]	n/a	FR1	0	R1054J
1440.894	7.382	1740272	REC_END	n/a	n/a	n/a	-999	8	[0, 0, 0]	n/a	FR1	0	R1054J
1448.276	0.0	1747654	COUNTDOWN_START	n/a	n/a	n/a	-999	9	[0, 0, 0]	n/a	FR1	0	R1054J
1448.276	10.428	1747654	TRIAL	n/a	n/a	n/a	-999	9	[0, 0, 0]	n/a	FR1	0	R1054J
1458.704	0.007	1758082	COUNTDOWN_END	n/a	n/a	n/a	-999	9	[0, 0, 0]	n/a	FR1	0	R1054J
1458.711	2.42	1758089	ORIENT	n/a	n/a	n/a	-999	9	[0, 0, 0]	n/a	FR1	0	R1054J
1461.131	2.455	1760509	WORD	n/a	wordpools/wordpool_EN.txt	DUCK	1	9	[0, 0, 0]	n/a	FR1	0	R1054J
1463.586	2.437	1762963	WORD	n/a	wordpools/wordpool_EN.txt	MUG	2	9	[0, 0, 0]	n/a	FR1	0	R1054J
1466.023	2.453	1765400	WORD	n/a	wordpools/wordpool_EN.txt	PIPE	3	9	[0, 0, 0]	n/a	FR1	0	R1054J
1468.476	2.455	1767853	WORD	n/a	wordpools/wordpool_EN.txt	APE	4	9	[0, 0, 0]	n/a	FR1	0	R1054J
1470.931	2.454	1770308	WORD	n/a	wordpools/wordpool_EN.txt	WORM	5	9	[0, 0, 0]	n/a	FR1	0	R1054J
1473.385	2.405	1772762	WORD	n/a	wordpools/wordpool_EN.txt	PLATE	6	9	[0, 0, 0]	n/a	FR1	0	R1054J
1475.79	2.419	1775167	WORD	n/a	wordpools/wordpool_EN.txt	WEB	7	9	[0, 0, 0]	n/a	FR1	0	R1054J
1478.209	2.406	1777586	WORD	n/a	wordpools/wordpool_EN.txt	DEER	8	9	[0, 0, 0]	n/a	FR1	0	R1054J
1480.615	2.569	1779992	WORD	n/a	wordpools/wordpool_EN.txt	BEAN	9	9	[0, 0, 0]	n/a	FR1	0	R1054J
1483.184	2.439	1782561	WORD	n/a	wordpools/wordpool_EN.txt	MOTH	10	9	[0, 0, 0]	n/a	FR1	0	R1054J
1485.623	2.47	1785000	WORD	n/a	wordpools/wordpool_EN.txt	SEED	11	9	[0, 0, 0]	n/a	FR1	0	R1054J
1488.093	1.62	1787470	WORD	n/a	wordpools/wordpool_EN.txt	MAT	12	9	[0, 0, 0]	n/a	FR1	0	R1054J
1489.713	0.001	1789090	DISTRACT_START	n/a	n/a	n/a	-999	9	[0, 0, 0]	n/a	FR1	0	R1054J
1489.714	0.016	1789091	START	n/a	n/a	n/a	-999	9	[-999, -999, -999]	n/a	FR1	0	R1054J
1489.73	3.471	1789107	PROB	3.471	n/a	n/a	-999	9	[1, 8, 2]	11	FR1	0	R1054J
1493.201	3.774	1792577	PROB	3.774	n/a	n/a	-999	9	[4, 2, 2]	8	FR1	0	R1054J
1496.975	4.156	1796351	PROB	4.156	n/a	n/a	-999	9	[2, 9, 3]	14	FR1	0	R1054J
1501.131	5.41	1800507	PROB	5.41	n/a	n/a	-999	9	[3, 1, 6]	10	FR1	0	R1054J
1506.541	2.121	1805917	PROB	2.121	n/a	n/a	-999	9	[7, 2, 3]	12	FR1	0	R1054J
1508.662	3.442	1808038	PROB	3.442	n/a	n/a	-999	9	[5, 3, 2]	10	FR1	0	R1054J
1512.104	0.012	1811480	STOP	n/a	n/a	n/a	-999	9	[-999, -999, -999]	n/a	FR1	0	R1054J
1512.116	1.053	1811492	DISTRACT_END	n/a	n/a	n/a	-999	9	[0, 0, 0]	n/a	FR1	0	R1054J
1513.169	1.577	1812545	REC_START	n/a	n/a	n/a	-999	9	[0, 0, 0]	n/a	FR1	0	R1054J
1514.746	1.885	1814122	REC_WORD	1.885	n/a	DUCK	-999	9	[0, 0, 0]	n/a	FR1	0	R1054J
1516.631	18.977	1816007	REC_WORD	18.977	n/a	MUG	-999	9	[0, 0, 0]	n/a	FR1	0	R1054J
1535.608	0.421	1834983	REC_WORD_VV	0.421	n/a	<>	-999	9	[0, 0, 0]	n/a	FR1	0	R1054J
1536.029	7.153	1835404	REC_WORD_VV	7.153	n/a	<>	-999	9	[0, 0, 0]	n/a	FR1	0	R1054J
1543.182	19.269	1842557	REC_END	n/a	n/a	n/a	-999	9	[0, 0, 0]	n/a	FR1	0	R1054J
1562.451	0.001	1861825	COUNTDOWN_START	n/a	n/a	n/a	-999	10	[0, 0, 0]	n/a	FR1	0	R1054J
1562.452	10.427	1861826	TRIAL	n/a	n/a	n/a	-999	10	[0, 0, 0]	n/a	FR1	0	R1054J
1572.879	0.007	1872253	COUNTDOWN_END	n/a	n/a	n/a	-999	10	[0, 0, 0]	n/a	FR1	0	R1054J
1572.886	2.488	1872260	ORIENT	n/a	n/a	n/a	-999	10	[0, 0, 0]	n/a	FR1	0	R1054J
1575.374	2.604	1874747	WORD	n/a	wordpools/wordpool_EN.txt	TENT	1	10	[0, 0, 0]	n/a	FR1	0	R1054J
1577.978	2.621	1877351	WORD	n/a	wordpools/wordpool_EN.txt	SEA	2	10	[0, 0, 0]	n/a	FR1	0	R1054J
1580.599	2.404	1879972	WORD	n/a	wordpools/wordpool_EN.txt	TOY	3	10	[0, 0, 0]	n/a	FR1	0	R1054J
1583.003	2.605	1882376	WORD	n/a	wordpools/wordpool_EN.txt	HORN	4	10	[0, 0, 0]	n/a	FR1	0	R1054J
1585.608	2.421	1884981	WORD	n/a	wordpools/wordpool_EN.txt	OAK	5	10	[0, 0, 0]	n/a	FR1	0	R1054J
1588.029	2.403	1887402	WORD	n/a	wordpools/wordpool_EN.txt	BEACH	6	10	[0, 0, 0]	n/a	FR1	0	R1054J
1590.432	2.555	1889805	WORD	n/a	wordpools/wordpool_EN.txt	ROOF	7	10	[0, 0, 0]	n/a	FR1	0	R1054J
1592.987	2.386	1892360	WORD	n/a	wordpools/wordpool_EN.txt	WAVE	8	10	[0, 0, 0]	n/a	FR1	0	R1054J
1595.373	2.389	1894746	WORD	n/a	wordpools/wordpool_EN.txt	BOAT	9	10	[0, 0, 0]	n/a	FR1	0	R1054J
1597.762	2.519	1897135	WORD	n/a	wordpools/wordpool_EN.txt	CAVE	10	10	[0, 0, 0]	n/a	FR1	0	R1054J
1600.281	2.506	1899654	WORD	n/a	wordpools/wordpool_EN.txt	SKY	11	10	[0, 0, 0]	n/a	FR1	0	R1054J
1602.787	1.618	1902159	WORD	n/a	wordpools/wordpool_EN.txt	BRUSH	12	10	[0, 0, 0]	n/a	FR1	0	R1054J
1604.405	0.001	1903777	DISTRACT_START	n/a	n/a	n/a	-999	10	[0, 0, 0]	n/a	FR1	0	R1054J
1604.406	0.016	1903778	START	n/a	n/a	n/a	-999	10	[-999, -999, -999]	n/a	FR1	0	R1054J
1604.422	5.876	1903794	PROB	5.876	n/a	n/a	-999	10	[7, 1, 4]	12	FR1	0	R1054J
1610.298	3.758	1909670	PROB	3.758	n/a	n/a	-999	10	[2, 3, 5]	10	FR1	0	R1054J
1614.056	5.374	1913428	PROB	5.374	n/a	n/a	-999	10	[7, 6, 9]	22	FR1	0	R1054J
1619.43	2.872	1918802	PROB	2.872	n/a	n/a	-999	10	[7, 1, 4]	12	FR1	0	R1054J
1622.302	4.403	1921674	PROB	4.403	n/a	n/a	-999	10	[1, 2, 5]	8	FR1	0	R1054J
1626.705	0.022	1926077	STOP	n/a	n/a	n/a	-999	10	[-999, -999, -999]	n/a	FR1	0	R1054J
1626.727	1.169	1926099	DISTRACT_END	n/a	n/a	n/a	-999	10	[0, 0, 0]	n/a	FR1	0	R1054J
1627.896	0.99	1927268	REC_START	n/a	n/a	n/a	-999	10	[0, 0, 0]	n/a	FR1	0	R1054J
1628.886	1.361	1928258	REC_WORD	1.361	n/a	TENT	-999	10	[0, 0, 0]	n/a	FR1	0	R1054J
1630.247	2.905	1929618	REC_WORD	2.905	n/a	SEA	-999	10	[0, 0, 0]	n/a	FR1	0	R1054J
1633.152	3.373	1932523	REC_WORD	3.373	n/a	BOAT	-999	10	[0, 0, 0]	n/a	FR1	0	R1054J
1636.525	11.479	1935896	REC_WORD_VV	11.479	n/a	<>	-999	10	[0, 0, 0]	n/a	FR1	0	R1054J
1648.004	2.976	1947375	REC_WORD_VV	2.976	n/a	<>	-999	10	[0, 0, 0]	n/a	FR1	0	R1054J
1650.98	6.93	1950351	REC_WORD	6.93	n/a	WHALE	-999	10	[0, 0, 0]	n/a	FR1	0	R1054J
1657.91	426.921	1957281	REC_END	n/a	n/a	n/a	-999	10	[0, 0, 0]	n/a	FR1	0	R1054J
2084.831	0.0	2384186	COUNTDOWN_START	n/a	n/a	n/a	-999	11	[0, 0, 0]	n/a	FR1	0	R1054J
2084.831	10.428	2384186	TRIAL	n/a	n/a	n/a	-999	11	[0, 0, 0]	n/a	FR1	0	R1054J
2095.259	0.005	2394614	COUNTDOWN_END	n/a	n/a	n/a	-999	11	[0, 0, 0]	n/a	FR1	0	R1054J
2095.264	2.606	2394619	ORIENT	n/a	n/a	n/a	-999	11	[0, 0, 0]	n/a	FR1	0	R1054J
2097.87	2.621	2397225	WORD	n/a	wordpools/wordpool_EN.txt	SMOKE	1	11	[0, 0, 0]	n/a	FR1	0	R1054J
2100.491	2.388	2399846	WORD	n/a	wordpools/wordpool_EN.txt	SIGN	2	11	[0, 0, 0]	n/a	FR1	0	R1054J
2102.879	2.436	2402234	WORD	n/a	wordpools/wordpool_EN.txt	JAIL	3	11	[0, 0, 0]	n/a	FR1	0	R1054J
2105.315	2.605	2404670	WORD	n/a	wordpools/wordpool_EN.txt	JUDGE	4	11	[0, 0, 0]	n/a	FR1	0	R1054J
2107.92	2.604	2407274	WORD	n/a	wordpools/wordpool_EN.txt	TOAST	5	11	[0, 0, 0]	n/a	FR1	0	R1054J
2110.524	2.438	2409878	WORD	n/a	wordpools/wordpool_EN.txt	SOUP	6	11	[0, 0, 0]	n/a	FR1	0	R1054J
2112.962	2.47	2412316	WORD	n/a	wordpools/wordpool_EN.txt	DESK	7	11	[0, 0, 0]	n/a	FR1	0	R1054J
2115.432	2.405	2414786	WORD	n/a	wordpools/wordpool_EN.txt	SLEEVE	8	11	[0, 0, 0]	n/a	FR1	0	R1054J
2117.837	2.62	2417191	WORD	n/a	wordpools/wordpool_EN.txt	FACE	9	11	[0, 0, 0]	n/a	FR1	0	R1054J
2120.457	2.505	2419811	WORD	n/a	wordpools/wordpool_EN.txt	PIN	10	11	[0, 0, 0]	n/a	FR1	0	R1054J
2122.962	2.571	2422316	WORD	n/a	wordpools/wordpool_EN.txt	SMILE	11	11	[0, 0, 0]	n/a	FR1	0	R1054J
2125.533	1.618	2424887	WORD	n/a	wordpools/wordpool_EN.txt	ARK	12	11	[0, 0, 0]	n/a	FR1	0	R1054J
2127.151	0.001	2426505	DISTRACT_START	n/a	n/a	n/a	-999	11	[0, 0, 0]	n/a	FR1	0	R1054J
2127.152	0.016	2426506	START	n/a	n/a	n/a	-999	11	[-999, -999, -999]	n/a	FR1	0	R1054J
2127.168	3.973	2426522	PROB	3.973	n/a	n/a	-999	11	[1, 4, 3]	8	FR1	0	R1054J
2131.141	4.174	2430495	PROB	4.174	n/a	n/a	-999	11	[9, 7, 7]	23	FR1	0	R1054J
2135.315	2.322	2434668	PROB	2.322	n/a	n/a	-999	11	[4, 5, 2]	11	FR1	0	R1054J
2137.637	4.006	2436990	PROB	4.006	n/a	n/a	-999	11	[5, 4, 5]	14	FR1	0	R1054J
2141.643	3.974	2440996	PROB	3.974	n/a	n/a	-999	11	[2, 6, 5]	13	FR1	0	R1054J
2145.617	3.096	2444970	PROB	3.096	n/a	n/a	-999	11	[4, 5, 3]	12	FR1	0	R1054J
2148.713	0.01	2448066	STOP	n/a	n/a	n/a	-999	11	[-999, -999, -999]	n/a	FR1	0	R1054J
2148.723	1.051	2448076	DISTRACT_END	n/a	n/a	n/a	-999	11	[0, 0, 0]	n/a	FR1	0	R1054J
2149.774	0.793	2449127	REC_START	n/a	n/a	n/a	-999	11	[0, 0, 0]	n/a	FR1	0	R1054J
2150.567	0.734	2449920	REC_WORD	0.734	n/a	SMOKE	-999	11	[0, 0, 0]	n/a	FR1	0	R1054J
2151.301	1.041	2450654	REC_WORD	1.041	n/a	SIGN	-999	11	[0, 0, 0]	n/a	FR1	0	R1054J
2152.342	0.927	2451695	REC_WORD	0.927	n/a	JAIL	-999	11	[0, 0, 0]	n/a	FR1	0	R1054J
2153.269	5.391	2452622	REC_WORD	5.391	n/a	JUDGE	-999	11	[0, 0, 0]	n/a	FR1	0	R1054J
2158.66	8.036	2458013	REC_WORD	8.036	n/a	TOAST	-999	11	[0, 0, 0]	n/a	FR1	0	R1054J
2166.696	13.092	2466048	REC_WORD	13.092	n/a	ARK	-999	11	[0, 0, 0]	n/a	FR1	0	R1054J
2179.788	3.307	2479140	REC_END	n/a	n/a	n/a	-999	11	[0, 0, 0]	n/a	FR1	0	R1054J
2183.095	0.001	2482447	COUNTDOWN_START	n/a	n/a	n/a	-999	12	[0, 0, 0]	n/a	FR1	0	R1054J
2183.096	10.427	2482448	TRIAL	n/a	n/a	n/a	-999	12	[0, 0, 0]	n/a	FR1	0	R1054J
2193.523	0.008	2492874	COUNTDOWN_END	n/a	n/a	n/a	-999	12	[0, 0, 0]	n/a	FR1	0	R1054J
2193.531	2.454	2492882	ORIENT	n/a	n/a	n/a	-999	12	[0, 0, 0]	n/a	FR1	0	R1054J
2195.985	2.621	2495336	WORD	n/a	wordpools/wordpool_EN.txt	HOOK	1	12	[0, 0, 0]	n/a	FR1	0	R1054J
2198.606	2.437	2497957	WORD	n/a	wordpools/wordpool_EN.txt	SEAL	2	12	[0, 0, 0]	n/a	FR1	0	R1054J
2201.043	2.605	2500394	WORD	n/a	wordpools/wordpool_EN.txt	SHRIMP	3	12	[0, 0, 0]	n/a	FR1	0	R1054J
2203.648	2.42	2502999	WORD	n/a	wordpools/wordpool_EN.txt	CHAIR	4	12	[0, 0, 0]	n/a	FR1	0	R1054J
2206.068	2.605	2505419	WORD	n/a	wordpools/wordpool_EN.txt	GLOVE	5	12	[0, 0, 0]	n/a	FR1	0	R1054J
2208.673	2.47	2508024	WORD	n/a	wordpools/wordpool_EN.txt	GATE	6	12	[0, 0, 0]	n/a	FR1	0	R1054J
2211.143	2.388	2510494	WORD	n/a	wordpools/wordpool_EN.txt	PALM	7	12	[0, 0, 0]	n/a	FR1	0	R1054J
2213.531	2.404	2512882	WORD	n/a	wordpools/wordpool_EN.txt	HAT	8	12	[0, 0, 0]	n/a	FR1	0	R1054J
2215.935	2.42	2515286	WORD	n/a	wordpools/wordpool_EN.txt	MOUTH	9	12	[0, 0, 0]	n/a	FR1	0	R1054J
2218.355	2.622	2517705	WORD	n/a	wordpools/wordpool_EN.txt	THUMB	10	12	[0, 0, 0]	n/a	FR1	0	R1054J
2220.977	2.554	2520327	WORD	n/a	wordpools/wordpool_EN.txt	BATH	11	12	[0, 0, 0]	n/a	FR1	0	R1054J
2223.531	1.618	2522881	WORD	n/a	wordpools/wordpool_EN.txt	WORLD	12	12	[0, 0, 0]	n/a	FR1	0	R1054J
2225.149	0.001	2524499	DISTRACT_START	n/a	n/a	n/a	-999	12	[0, 0, 0]	n/a	FR1	0	R1054J
2225.15	0.016	2524500	START	n/a	n/a	n/a	-999	12	[-999, -999, -999]	n/a	FR1	0	R1054J
2225.166	8.399	2524516	PROB	8.399	n/a	n/a	-999	12	[6, 9, 5]	20	FR1	0	R1054J
2233.565	3.872	2532915	PROB	3.872	n/a	n/a	-999	12	[6, 1, 7]	14	FR1	0	R1054J
2237.437	3.173	2536787	PROB	3.173	n/a	n/a	-999	12	[3, 2, 7]	12	FR1	0	R1054J
2240.61	2.77	2539960	PROB	2.77	n/a	n/a	-999	12	[3, 2, 1]	6	FR1	0	R1054J
2243.38	3.557	2542730	PROB	3.557	n/a	n/a	-999	12	[8, 8, 5]	21	FR1	0	R1054J
2246.937	0.017	2546286	STOP	n/a	n/a	n/a	-999	12	[-999, -999, -999]	n/a	FR1	0	R1054J
2246.954	1.218	2546303	DISTRACT_END	n/a	n/a	n/a	-999	12	[0, 0, 0]	n/a	FR1	0	R1054J
2248.172	0.53	2547521	REC_START	n/a	n/a	n/a	-999	12	[0, 0, 0]	n/a	FR1	0	R1054J
2248.702	1.383	2548051	REC_WORD	1.383	n/a	HOOK	-999	12	[0, 0, 0]	n/a	FR1	0	R1054J
2250.085	1.352	2549434	REC_WORD	1.352	n/a	SEAL	-999	12	[0, 0, 0]	n/a	FR1	0	R1054J
2251.437	13.861	2550786	REC_WORD	13.861	n/a	SHRIMP	-999	12	[0, 0, 0]	n/a	FR1	0	R1054J
2265.298	5.251	2564647	REC_WORD	5.251	n/a	BATH	-999	12	[0, 0, 0]	n/a	FR1	0	R1054J
2270.549	7.644	2569898	REC_WORD	7.644	n/a	PALM	-999	12	[0, 0, 0]	n/a	FR1	0	R1054J
2278.193	2.468	2577541	REC_END	n/a	n/a	n/a	-999	12	[0, 0, 0]	n/a	FR1	0	R1054J
2280.661	0.0	2580009	TRIAL	n/a	n/a	n/a	-999	13	[0, 0, 0]	n/a	FR1	0	R1054J
2280.661	10.428	2580009	COUNTDOWN_START	n/a	n/a	n/a	-999	13	[0, 0, 0]	n/a	FR1	0	R1054J
2291.089	0.005	2590437	COUNTDOWN_END	n/a	n/a	n/a	-999	13	[0, 0, 0]	n/a	FR1	0	R1054J
2291.094	2.538	2590442	ORIENT	n/a	n/a	n/a	-999	13	[0, 0, 0]	n/a	FR1	0	R1054J
2293.632	2.488	2592980	WORD	n/a	wordpools/wordpool_EN.txt	CORN	1	13	[0, 0, 0]	n/a	FR1	0	R1054J
2296.12	2.521	2595468	WORD	n/a	wordpools/wordpool_EN.txt	STRAW	2	13	[0, 0, 0]	n/a	FR1	0	R1054J
2298.641	2.404	2597989	WORD	n/a	wordpools/wordpool_EN.txt	STEAK	3	13	[0, 0, 0]	n/a	FR1	0	R1054J
2301.045	2.504	2600393	WORD	n/a	wordpools/wordpool_EN.txt	STOVE	4	13	[0, 0, 0]	n/a	FR1	0	R1054J
2303.549	2.553	2602896	WORD	n/a	wordpools/wordpool_EN.txt	COW	5	13	[0, 0, 0]	n/a	FR1	0	R1054J
2306.102	2.539	2605449	WORD	n/a	wordpools/wordpool_EN.txt	PANTS	6	13	[0, 0, 0]	n/a	FR1	0	R1054J
2308.641	2.503	2607988	WORD	n/a	wordpools/wordpool_EN.txt	BARN	7	13	[0, 0, 0]	n/a	FR1	0	R1054J
2311.144	2.539	2610491	WORD	n/a	wordpools/wordpool_EN.txt	PURSE	8	13	[0, 0, 0]	n/a	FR1	0	R1054J
2313.683	2.503	2613030	WORD	n/a	wordpools/wordpool_EN.txt	SEAT	9	13	[0, 0, 0]	n/a	FR1	0	R1054J
2316.186	2.505	2615533	WORD	n/a	wordpools/wordpool_EN.txt	GUARD	10	13	[0, 0, 0]	n/a	FR1	0	R1054J
2318.691	2.52	2618038	WORD	n/a	wordpools/wordpool_EN.txt	PEN	11	13	[0, 0, 0]	n/a	FR1	0	R1054J
2321.211	1.604	2620558	WORD	n/a	wordpools/wordpool_EN.txt	RIB	12	13	[0, 0, 0]	n/a	FR1	0	R1054J
2322.815	0.001	2622162	DISTRACT_START	n/a	n/a	n/a	-999	13	[0, 0, 0]	n/a	FR1	0	R1054J
2322.816	0.015	2622163	START	n/a	n/a	n/a	-999	13	[-999, -999, -999]	n/a	FR1	0	R1054J
2322.831	3.991	2622178	PROB	3.991	n/a	n/a	-999	13	[1, 5, 2]	8	FR1	0	R1054J
2326.822	3.354	2626169	PROB	3.354	n/a	n/a	-999	13	[4, 4, 1]	9	FR1	0	R1054J
2330.176	4.14	2629522	PROB	4.14	n/a	n/a	-999	13	[7, 3, 8]	18	FR1	0	R1054J
2334.316	4.342	2633662	PROB	4.342	n/a	n/a	-999	13	[6, 2, 2]	10	FR1	0	R1054J
2338.658	3.422	2638004	PROB	3.422	n/a	n/a	-999	13	[5, 5, 5]	15	FR1	0	R1054J
2342.08	4.256	2641426	PROB	4.256	n/a	n/a	-999	13	[2, 2, 6]	10	FR1	0	R1054J
2346.336	0.017	2645682	STOP	n/a	n/a	n/a	-999	13	[-999, -999, -999]	n/a	FR1	0	R1054J
2346.353	1.171	2645699	DISTRACT_END	n/a	n/a	n/a	-999	13	[0, 0, 0]	n/a	FR1	0	R1054J
2347.524	1.375	2646870	REC_START	n/a	n/a	n/a	-999	13	[0, 0, 0]	n/a	FR1	0	R1054J
2348.899	0.881	2648245	REC_WORD	0.881	n/a	CORN	-999	13	[0, 0, 0]	n/a	FR1	0	R1054J
2349.78	1.352	2649126	REC_WORD	1.352	n/a	STRAW	-999	13	[0, 0, 0]	n/a	FR1	0	R1054J
2351.132	1.508	2650478	REC_WORD	1.508	n/a	COW	-999	13	[0, 0, 0]	n/a	FR1	0	R1054J
2352.64	0.934	2651986	REC_WORD	0.934	n/a	RIB	-999	13	[0, 0, 0]	n/a	FR1	0	R1054J
2353.574	1.715	2652920	REC_WORD	1.715	n/a	STEAK	-999	13	[0, 0, 0]	n/a	FR1	0	R1054J
2355.289	22.248	2654635	REC_WORD	22.248	n/a	BARN	-999	13	[0, 0, 0]	n/a	FR1	0	R1054J
2377.537	3.058	2676882	REC_END	n/a	n/a	n/a	-999	13	[0, 0, 0]	n/a	FR1	0	R1054J
2380.595	0.001	2679940	COUNTDOWN_START	n/a	n/a	n/a	-999	14	[0, 0, 0]	n/a	FR1	0	R1054J
2380.596	10.427	2679941	TRIAL	n/a	n/a	n/a	-999	14	[0, 0, 0]	n/a	FR1	0	R1054J
2391.023	0.007	2690367	COUNTDOWN_END	n/a	n/a	n/a	-999	14	[0, 0, 0]	n/a	FR1	0	R1054J
2391.03	2.419	2690374	ORIENT	n/a	n/a	n/a	-999	14	[0, 0, 0]	n/a	FR1	0	R1054J
2393.449	2.522	2692793	WORD	n/a	wordpools/wordpool_EN.txt	POLE	1	14	[0, 0, 0]	n/a	FR1	0	R1054J
2395.971	2.387	2695315	WORD	n/a	wordpools/wordpool_EN.txt	CHEEK	2	14	[0, 0, 0]	n/a	FR1	0	R1054J
2398.358	2.471	2697702	WORD	n/a	wordpools/wordpool_EN.txt	PHONE	3	14	[0, 0, 0]	n/a	FR1	0	R1054J
2400.829	2.487	2700173	WORD	n/a	wordpools/wordpool_EN.txt	DIME	4	14	[0, 0, 0]	n/a	FR1	0	R1054J
2403.316	2.539	2702660	WORD	n/a	wordpools/wordpool_EN.txt	COIN	5	14	[0, 0, 0]	n/a	FR1	0	R1054J
2405.855	2.503	2705199	WORD	n/a	wordpools/wordpool_EN.txt	SPEAR	6	14	[0, 0, 0]	n/a	FR1	0	R1054J
2408.358	2.622	2707702	WORD	n/a	wordpools/wordpool_EN.txt	CONE	7	14	[0, 0, 0]	n/a	FR1	0	R1054J
2410.98	2.386	2710324	WORD	n/a	wordpools/wordpool_EN.txt	ARM	8	14	[0, 0, 0]	n/a	FR1	0	R1054J
2413.366	2.422	2712710	WORD	n/a	wordpools/wordpool_EN.txt	DRUM	9	14	[0, 0, 0]	n/a	FR1	0	R1054J
2415.788	2.52	2715131	WORD	n/a	wordpools/wordpool_EN.txt	GRAPE	10	14	[0, 0, 0]	n/a	FR1	0	R1054J
2418.308	2.472	2717651	WORD	n/a	wordpools/wordpool_EN.txt	HOSE	11	14	[0, 0, 0]	n/a	FR1	0	R1054J
2420.78	1.618	2720123	WORD	n/a	wordpools/wordpool_EN.txt	FROG	12	14	[0, 0, 0]	n/a	FR1	0	R1054J
2422.398	0.001	2721741	DISTRACT_START	n/a	n/a	n/a	-999	14	[0, 0, 0]	n/a	FR1	0	R1054J
2422.399	0.016	2721742	START	n/a	n/a	n/a	-999	14	[-999, -999, -999]	n/a	FR1	0	R1054J
2422.415	4.174	2721758	PROB	4.174	n/a	n/a	-999	14	[9, 2, 8]	19	FR1	0	R1054J
2426.589	3.722	2725932	PROB	3.722	n/a	n/a	-999	14	[1, 8, 2]	11	FR1	0	R1054J
2430.311	4.459	2729654	PROB	4.459	n/a	n/a	-999	14	[4, 7, 3]	14	FR1	0	R1054J
2434.77	5.692	2734113	PROB	5.692	n/a	n/a	-999	14	[6, 8, 6]	20	FR1	0	R1054J
2440.462	4.403	2739805	PROB	4.403	n/a	n/a	-999	14	[5, 9, 1]	15	FR1	0	R1054J
2444.865	0.022	2744207	STOP	n/a	n/a	n/a	-999	14	[-999, -999, -999]	n/a	FR1	0	R1054J
2444.887	1.152	2744229	DISTRACT_END	n/a	n/a	n/a	-999	14	[0, 0, 0]	n/a	FR1	0	R1054J
2446.039	2.721	2745381	REC_START	n/a	n/a	n/a	-999	14	[0, 0, 0]	n/a	FR1	0	R1054J
2448.76	3.064	2748102	REC_WORD	3.064	n/a	FROG	-999	14	[0, 0, 0]	n/a	FR1	0	R1054J
2451.824	1.808	2751166	REC_WORD	1.808	n/a	POLE	-999	14	[0, 0, 0]	n/a	FR1	0	R1054J
2453.632	22.422	2752974	REC_WORD	22.422	n/a	CHEEK	-999	14	[0, 0, 0]	n/a	FR1	0	R1054J
2476.054	2.908	2775395	REC_END	n/a	n/a	n/a	-999	14	[0, 0, 0]	n/a	FR1	0	R1054J
2478.962	0.0	2778303	TRIAL	n/a	n/a	n/a	-999	15	[0, 0, 0]	n/a	FR1	0	R1054J
2478.962	10.428	2778303	COUNTDOWN_START	n/a	n/a	n/a	-999	15	[0, 0, 0]	n/a	FR1	0	R1054J
2489.39	0.004	2788731	COUNTDOWN_END	n/a	n/a	n/a	-999	15	[0, 0, 0]	n/a	FR1	0	R1054J
2489.394	2.589	2788735	ORIENT	n/a	n/a	n/a	-999	15	[0, 0, 0]	n/a	FR1	0	R1054J
2491.983	2.604	2791324	WORD	n/a	wordpools/wordpool_EN.txt	WOLF	1	15	[0, 0, 0]	n/a	FR1	0	R1054J
2494.587	2.438	2793928	WORD	n/a	wordpools/wordpool_EN.txt	SPOON	2	15	[0, 0, 0]	n/a	FR1	0	R1054J
2497.025	2.453	2796366	WORD	n/a	wordpools/wordpool_EN.txt	FOOD	3	15	[0, 0, 0]	n/a	FR1	0	R1054J
2499.478	2.555	2798818	WORD	n/a	wordpools/wordpool_EN.txt	KITE	4	15	[0, 0, 0]	n/a	FR1	0	R1054J
2502.033	2.554	2801373	WORD	n/a	wordpools/wordpool_EN.txt	PIG	5	15	[0, 0, 0]	n/a	FR1	0	R1054J
2504.587	2.455	2803927	WORD	n/a	wordpools/wordpool_EN.txt	WOOD	6	15	[0, 0, 0]	n/a	FR1	0	R1054J
2507.042	2.386	2806382	WORD	n/a	wordpools/wordpool_EN.txt	PET	7	15	[0, 0, 0]	n/a	FR1	0	R1054J
2509.428	2.588	2808768	WORD	n/a	wordpools/wordpool_EN.txt	BRANCH	8	15	[0, 0, 0]	n/a	FR1	0	R1054J
2512.016	2.605	2811356	WORD	n/a	wordpools/wordpool_EN.txt	BEAR	9	15	[0, 0, 0]	n/a	FR1	0	R1054J
2514.621	2.57	2813961	WORD	n/a	wordpools/wordpool_EN.txt	FRUIT	10	15	[0, 0, 0]	n/a	FR1	0	R1054J
2517.191	2.488	2816531	WORD	n/a	wordpools/wordpool_EN.txt	TREE	11	15	[0, 0, 0]	n/a	FR1	0	R1054J
2519.679	1.619	2819019	WORD	n/a	wordpools/wordpool_EN.txt	CHIEF	12	15	[0, 0, 0]	n/a	FR1	0	R1054J
2521.298	0.001	2820638	DISTRACT_START	n/a	n/a	n/a	-999	15	[0, 0, 0]	n/a	FR1	0	R1054J
2521.299	0.016	2820639	START	n/a	n/a	n/a	-999	15	[-999, -999, -999]	n/a	FR1	0	R1054J
2521.315	4.508	2820655	PROB	4.508	n/a	n/a	-999	15	[4, 7, 4]	15	FR1	0	R1054J
2525.823	2.721	2825163	PROB	2.721	n/a	n/a	-999	15	[1, 7, 3]	11	FR1	0	R1054J
2528.544	4.525	2827883	PROB	4.525	n/a	n/a	-999	15	[8, 3, 8]	19	FR1	0	R1054J
2533.069	2.771	2832408	PROB	2.771	n/a	n/a	-999	15	[8, 2, 2]	12	FR1	0	R1054J
2535.84	2.855	2835179	PROB	2.855	n/a	n/a	-999	15	[1, 2, 9]	12	FR1	0	R1054J
2538.695	4.585	2838034	PROB	4.585	n/a	n/a	-999	15	[9, 9, 7]	25	FR1	0	R1054J
2543.28	0.021	2842619	STOP	n/a	n/a	n/a	-999	15	[-999, -999, -999]	n/a	FR1	0	R1054J
2543.301	1.221	2842640	DISTRACT_END	n/a	n/a	n/a	-999	15	[0, 0, 0]	n/a	FR1	0	R1054J
2544.522	1.14	2843861	REC_START	n/a	n/a	n/a	-999	15	[0, 0, 0]	n/a	FR1	0	R1054J
2545.662	2.094	2845001	REC_WORD	2.094	n/a	WOLF	-999	15	[0, 0, 0]	n/a	FR1	0	R1054J
2547.756	1.545	2847095	REC_WORD	1.545	n/a	BEAR	-999	15	[0, 0, 0]	n/a	FR1	0	R1054J
2549.301	1.451	2848640	REC_WORD	1.451	n/a	TREE	-999	15	[0, 0, 0]	n/a	FR1	0	R1054J
2550.752	1.617	2850091	REC_WORD	1.617	n/a	FRUIT	-999	15	[0, 0, 0]	n/a	FR1	0	R1054J
2552.369	1.672	2851708	REC_WORD	1.672	n/a	WOOD	-999	15	[0, 0, 0]	n/a	FR1	0	R1054J
2554.041	20.494	2853380	REC_WORD	20.494	n/a	BRANCH	-999	15	[0, 0, 0]	n/a	FR1	0	R1054J
2574.535	2.19	2873873	REC_END	n/a	n/a	n/a	-999	15	[0, 0, 0]	n/a	FR1	0	R1054J
2576.725	0.001	2876063	COUNTDOWN_START	n/a	n/a	n/a	-999	16	[0, 0, 0]	n/a	FR1	0	R1054J
2576.726	10.427	2876064	TRIAL	n/a	n/a	n/a	-999	16	[0, 0, 0]	n/a	FR1	0	R1054J
2587.153	0.006	2886490	COUNTDOWN_END	n/a	n/a	n/a	-999	16	[0, 0, 0]	n/a	FR1	0	R1054J
2587.159	2.471	2886496	ORIENT	n/a	n/a	n/a	-999	16	[0, 0, 0]	n/a	FR1	0	R1054J
2589.63	2.454	2888967	WORD	n/a	wordpools/wordpool_EN.txt	KEY	1	16	[0, 0, 0]	n/a	FR1	0	R1054J
2592.084	2.438	2891421	WORD	n/a	wordpools/wordpool_EN.txt	SHIELD	2	16	[0, 0, 0]	n/a	FR1	0	R1054J
2594.522	2.587	2893859	WORD	n/a	wordpools/wordpool_EN.txt	HOUSE	3	16	[0, 0, 0]	n/a	FR1	0	R1054J
2597.109	2.488	2896446	WORD	n/a	wordpools/wordpool_EN.txt	CHALK	4	16	[0, 0, 0]	n/a	FR1	0	R1054J
2599.597	2.454	2898934	WORD	n/a	wordpools/wordpool_EN.txt	WING	5	16	[0, 0, 0]	n/a	FR1	0	R1054J
2602.051	2.438	2901388	WORD	n/a	wordpools/wordpool_EN.txt	STREET	6	16	[0, 0, 0]	n/a	FR1	0	R1054J
2604.489	2.571	2903826	WORD	n/a	wordpools/wordpool_EN.txt	FORT	7	16	[0, 0, 0]	n/a	FR1	0	R1054J
2607.06	2.504	2906397	WORD	n/a	wordpools/wordpool_EN.txt	DOLL	8	16	[0, 0, 0]	n/a	FR1	0	R1054J
2609.564	2.504	2908901	WORD	n/a	wordpools/wordpool_EN.txt	DOCK	9	16	[0, 0, 0]	n/a	FR1	0	R1054J
2612.068	2.421	2911404	WORD	n/a	wordpools/wordpool_EN.txt	MAP	10	16	[0, 0, 0]	n/a	FR1	0	R1054J
2614.489	2.404	2913825	WORD	n/a	wordpools/wordpool_EN.txt	ELF	11	16	[0, 0, 0]	n/a	FR1	0	R1054J
2616.893	1.619	2916229	WORD	n/a	wordpools/wordpool_EN.txt	SHOE	12	16	[0, 0, 0]	n/a	FR1	0	R1054J
2618.512	0.001	2917848	DISTRACT_START	n/a	n/a	n/a	-999	16	[0, 0, 0]	n/a	FR1	0	R1054J
2618.513	0.016	2917849	START	n/a	n/a	n/a	-999	16	[-999, -999, -999]	n/a	FR1	0	R1054J
2618.529	4.491	2917865	PROB	4.491	n/a	n/a	-999	16	[2, 9, 9]	20	FR1	0	R1054J
2623.02	6.176	2922356	PROB	6.176	n/a	n/a	-999	16	[5, 8, 5]	18	FR1	0	R1054J
2629.196	5.61	2928532	PROB	5.61	n/a	n/a	-999	16	[8, 5, 6]	18	FR1	0	R1054J
2634.806	6.61	2934142	PROB	6.61	n/a	n/a	-999	16	[5, 1, 7]	13	FR1	0	R1054J
2641.416	0.017	2940751	STOP	n/a	n/a	n/a	-999	16	[-999, -999, -999]	n/a	FR1	0	R1054J
2641.433	1.237	2940768	DISTRACT_END	n/a	n/a	n/a	-999	16	[0, 0, 0]	n/a	FR1	0	R1054J
2642.67	1.008	2942005	REC_START	n/a	n/a	n/a	-999	16	[0, 0, 0]	n/a	FR1	0	R1054J
2643.678	1.683	2943013	REC_WORD	1.683	n/a	KEY	-999	16	[0, 0, 0]	n/a	FR1	0	R1054J
2645.361	6.453	2944696	REC_WORD	6.453	n/a	SHIELD	-999	16	[0, 0, 0]	n/a	FR1	0	R1054J
2651.814	20.877	2951149	REC_WORD	20.877	n/a	HOUSE	-999	16	[0, 0, 0]	n/a	FR1	0	R1054J
2672.691	5.823	2972025	REC_END	n/a	n/a	n/a	-999	16	[0, 0, 0]	n/a	FR1	0	R1054J
2678.514	0.001	2977848	COUNTDOWN_START	n/a	n/a	n/a	-999	17	[0, 0, 0]	n/a	FR1	0	R1054J
2678.515	10.427	2977849	TRIAL	n/a	n/a	n/a	-999	17	[0, 0, 0]	n/a	FR1	0	R1054J
2688.942	0.006	2988276	COUNTDOWN_END	n/a	n/a	n/a	-999	17	[0, 0, 0]	n/a	FR1	0	R1054J
2688.948	2.571	2988282	ORIENT	n/a	n/a	n/a	-999	17	[0, 0, 0]	n/a	FR1	0	R1054J
2691.519	2.42	2990853	WORD	n/a	wordpools/wordpool_EN.txt	FLAME	1	17	[0, 0, 0]	n/a	FR1	0	R1054J
2693.939	2.403	2993273	WORD	n/a	wordpools/wordpool_EN.txt	STORM	2	17	[0, 0, 0]	n/a	FR1	0	R1054J
2696.342	2.456	2995675	WORD	n/a	wordpools/wordpool_EN.txt	SPARK	3	17	[0, 0, 0]	n/a	FR1	0	R1054J
2698.798	2.453	2998131	WORD	n/a	wordpools/wordpool_EN.txt	PASTE	4	17	[0, 0, 0]	n/a	FR1	0	R1054J
2701.251	2.471	3000584	WORD	n/a	wordpools/wordpool_EN.txt	INK	5	17	[0, 0, 0]	n/a	FR1	0	R1054J
2703.722	2.604	3003055	WORD	n/a	wordpools/wordpool_EN.txt	PEAR	6	17	[0, 0, 0]	n/a	FR1	0	R1054J
2706.326	2.455	3005659	WORD	n/a	wordpools/wordpool_EN.txt	BEAK	7	17	[0, 0, 0]	n/a	FR1	0	R1054J
2708.781	2.503	3008114	WORD	n/a	wordpools/wordpool_EN.txt	JUICE	8	17	[0, 0, 0]	n/a	FR1	0	R1054J
2711.284	2.606	3010617	WORD	n/a	wordpools/wordpool_EN.txt	FLAG	9	17	[0, 0, 0]	n/a	FR1	0	R1054J
2713.89	2.453	3013223	WORD	n/a	wordpools/wordpool_EN.txt	CLOTH	10	17	[0, 0, 0]	n/a	FR1	0	R1054J
2716.343	2.605	3015676	WORD	n/a	wordpools/wordpool_EN.txt	TANK	11	17	[0, 0, 0]	n/a	FR1	0	R1054J
2718.948	1.62	3018281	WORD	n/a	wordpools/wordpool_EN.txt	BOARD	12	17	[0, 0, 0]	n/a	FR1	0	R1054J
2720.568	0.0	3019901	DISTRACT_START	n/a	n/a	n/a	-999	17	[0, 0, 0]	n/a	FR1	0	R1054J
2720.568	0.016	3019901	START	n/a	n/a	n/a	-999	17	[-999, -999, -999]	n/a	FR1	0	R1054J
2720.584	3.306	3019917	PROB	3.306	n/a	n/a	-999	17	[2, 2, 2]	6	FR1	0	R1054J
2723.89	5.876	3023222	PROB	5.876	n/a	n/a	-999	17	[8, 8, 7]	23	FR1	0	R1054J
2729.766	4.959	3029098	PROB	4.959	n/a	n/a	-999	17	[4, 3, 5]	12	FR1	0	R1054J
2734.725	7.772	3034057	PROB	7.772	n/a	n/a	-999	17	[7, 9, 2]	18	FR1	0	R1054J
2742.497	0.007	3041829	STOP	n/a	n/a	n/a	-999	17	[-999, -999, -999]	n/a	FR1	0	R1054J
2742.504	1.036	3041836	DISTRACT_END	n/a	n/a	n/a	-999	17	[0, 0, 0]	n/a	FR1	0	R1054J
2743.54	1.594	3042872	REC_START	n/a	n/a	n/a	-999	17	[0, 0, 0]	n/a	FR1	0	R1054J
2745.134	1.496	3044466	REC_WORD	1.496	n/a	FLAME	-999	17	[0, 0, 0]	n/a	FR1	0	R1054J
2746.63	1.964	3045962	REC_WORD	1.964	n/a	STORM	-999	17	[0, 0, 0]	n/a	FR1	0	R1054J
2748.594	24.959	3047926	REC_WORD	24.959	n/a	BEAK	-999	17	[0, 0, 0]	n/a	FR1	0	R1054J
2773.553	11.373	3072884	REC_END	n/a	n/a	n/a	-999	17	[0, 0, 0]	n/a	FR1	0	R1054J
2784.926	0.0	3084256	TRIAL	n/a	n/a	n/a	-999	18	[0, 0, 0]	n/a	FR1	0	R1054J
2784.926	10.428	3084256	COUNTDOWN_START	n/a	n/a	n/a	-999	18	[0, 0, 0]	n/a	FR1	0	R1054J
2795.354	0.005	3094684	COUNTDOWN_END	n/a	n/a	n/a	-999	18	[0, 0, 0]	n/a	FR1	0	R1054J
2795.359	2.488	3094689	ORIENT	n/a	n/a	n/a	-999	18	[0, 0, 0]	n/a	FR1	0	R1054J
2797.847	2.554	3097177	WORD	n/a	wordpools/wordpool_EN.txt	SKI	1	18	[0, 0, 0]	n/a	FR1	0	R1054J
2800.401	2.522	3099731	WORD	n/a	wordpools/wordpool_EN.txt	CRANE	2	18	[0, 0, 0]	n/a	FR1	0	R1054J
2802.923	2.419	3102253	WORD	n/a	wordpools/wordpool_EN.txt	OWL	3	18	[0, 0, 0]	n/a	FR1	0	R1054J
2805.342	2.422	3104672	WORD	n/a	wordpools/wordpool_EN.txt	WALL	4	18	[0, 0, 0]	n/a	FR1	0	R1054J
2807.764	2.553	3107093	WORD	n/a	wordpools/wordpool_EN.txt	BOOT	5	18	[0, 0, 0]	n/a	FR1	0	R1054J
2810.317	2.439	3109646	WORD	n/a	wordpools/wordpool_EN.txt	SNOW	6	18	[0, 0, 0]	n/a	FR1	0	R1054J
2812.756	2.453	3112085	WORD	n/a	wordpools/wordpool_EN.txt	THREAD	7	18	[0, 0, 0]	n/a	FR1	0	R1054J
2815.209	2.539	3114538	WORD	n/a	wordpools/wordpool_EN.txt	HOOF	8	18	[0, 0, 0]	n/a	FR1	0	R1054J
2817.748	2.586	3117077	WORD	n/a	wordpools/wordpool_EN.txt	TOE	9	18	[0, 0, 0]	n/a	FR1	0	R1054J
2820.334	2.539	3119663	WORD	n/a	wordpools/wordpool_EN.txt	DOOR	10	18	[0, 0, 0]	n/a	FR1	0	R1054J
2822.873	2.538	3122202	WORD	n/a	wordpools/wordpool_EN.txt	RUG	11	18	[0, 0, 0]	n/a	FR1	0	R1054J
2825.411	1.619	3124740	WORD	n/a	wordpools/wordpool_EN.txt	SPRING	12	18	[0, 0, 0]	n/a	FR1	0	R1054J
2827.03	0.001	3126359	DISTRACT_START	n/a	n/a	n/a	-999	18	[0, 0, 0]	n/a	FR1	0	R1054J
2827.031	0.016	3126360	START	n/a	n/a	n/a	-999	18	[-999, -999, -999]	n/a	FR1	0	R1054J
2827.047	4.457	3126376	PROB	4.457	n/a	n/a	-999	18	[5, 6, 9]	20	FR1	0	R1054J
2831.504	4.64	3130833	PROB	4.64	n/a	n/a	-999	18	[4, 8, 6]	18	FR1	0	R1054J
2836.144	9.149	3135472	PROB	9.149	n/a	n/a	-999	18	[5, 8, 8]	21	FR1	0	R1054J
2845.293	3.827	3144621	PROB	3.827	n/a	n/a	-999	18	[6, 2, 2]	10	FR1	0	R1054J
2849.12	0.013	3148448	STOP	n/a	n/a	n/a	-999	18	[-999, -999, -999]	n/a	FR1	0	R1054J
2849.133	1.186	3148461	DISTRACT_END	n/a	n/a	n/a	-999	18	[0, 0, 0]	n/a	FR1	0	R1054J
2850.319	0.734	3149647	REC_START	n/a	n/a	n/a	-999	18	[0, 0, 0]	n/a	FR1	0	R1054J
2851.053	2.759	3150381	REC_WORD	2.759	n/a	SKI	-999	18	[0, 0, 0]	n/a	FR1	0	R1054J
2853.812	2.898	3153140	REC_WORD	2.898	n/a	SNOW	-999	18	[0, 0, 0]	n/a	FR1	0	R1054J
2856.71	0.966	3156038	REC_WORD	0.966	n/a	TOE	-999	18	[0, 0, 0]	n/a	FR1	0	R1054J
2857.676	1.136	3157004	REC_WORD	1.136	n/a	BOOT	-999	18	[0, 0, 0]	n/a	FR1	0	R1054J
2858.812	13.596	3158140	REC_WORD	13.596	n/a	RUG	-999	18	[0, 0, 0]	n/a	FR1	0	R1054J
2872.408	4.327	3171735	REC_WORD	4.327	n/a	CRANE	-999	18	[0, 0, 0]	n/a	FR1	0	R1054J
2876.735	3.598	3176062	REC_WORD	3.598	n/a	OWL	-999	18	[0, 0, 0]	n/a	FR1	0	R1054J
2880.333	2.658	3179660	REC_END	n/a	n/a	n/a	-999	18	[0, 0, 0]	n/a	FR1	0	R1054J
2882.991	0.0	3182318	TRIAL	n/a	n/a	n/a	-999	19	[0, 0, 0]	n/a	FR1	0	R1054J
2882.991	10.428	3182318	COUNTDOWN_START	n/a	n/a	n/a	-999	19	[0, 0, 0]	n/a	FR1	0	R1054J
2893.419	0.005	3192745	COUNTDOWN_END	n/a	n/a	n/a	-999	19	[0, 0, 0]	n/a	FR1	0	R1054J
2893.424	2.505	3192750	ORIENT	n/a	n/a	n/a	-999	19	[0, 0, 0]	n/a	FR1	0	R1054J
2895.929	2.621	3195255	WORD	n/a	wordpools/wordpool_EN.txt	FISH	1	19	[0, 0, 0]	n/a	FR1	0	R1054J
2898.55	2.537	3197876	WORD	n/a	wordpools/wordpool_EN.txt	FUR	2	19	[0, 0, 0]	n/a	FR1	0	R1054J
2901.087	2.405	3200413	WORD	n/a	wordpools/wordpool_EN.txt	SINK	3	19	[0, 0, 0]	n/a	FR1	0	R1054J
2903.492	2.587	3202818	WORD	n/a	wordpools/wordpool_EN.txt	MUD	4	19	[0, 0, 0]	n/a	FR1	0	R1054J
2906.079	2.387	3205405	WORD	n/a	wordpools/wordpool_EN.txt	CROW	5	19	[0, 0, 0]	n/a	FR1	0	R1054J
2908.466	2.388	3207792	WORD	n/a	wordpools/wordpool_EN.txt	STICK	6	19	[0, 0, 0]	n/a	FR1	0	R1054J
2910.854	2.554	3210180	WORD	n/a	wordpools/wordpool_EN.txt	WAND	7	19	[0, 0, 0]	n/a	FR1	0	R1054J
2913.408	2.438	3212734	WORD	n/a	wordpools/wordpool_EN.txt	GEESE	8	19	[0, 0, 0]	n/a	FR1	0	R1054J
2915.846	2.403	3215172	WORD	n/a	wordpools/wordpool_EN.txt	SNAIL	9	19	[0, 0, 0]	n/a	FR1	0	R1054J
2918.249	2.522	3217574	WORD	n/a	wordpools/wordpool_EN.txt	CAGE	10	19	[0, 0, 0]	n/a	FR1	0	R1054J
2920.771	2.57	3220096	WORD	n/a	wordpools/wordpool_EN.txt	ZOO	11	19	[0, 0, 0]	n/a	FR1	0	R1054J
2923.341	1.604	3222666	WORD	n/a	wordpools/wordpool_EN.txt	STOOL	12	19	[0, 0, 0]	n/a	FR1	0	R1054J
2924.945	0.001	3224270	DISTRACT_START	n/a	n/a	n/a	-999	19	[0, 0, 0]	n/a	FR1	0	R1054J
2924.946	0.015	3224271	START	n/a	n/a	n/a	-999	19	[-999, -999, -999]	n/a	FR1	0	R1054J
2924.961	3.54	3224286	PROB	3.54	n/a	n/a	-999	19	[3, 3, 7]	13	FR1	0	R1054J
2928.501	4.773	3227826	PROB	4.773	n/a	n/a	-999	19	[1, 9, 6]	16	FR1	0	R1054J
2933.274	3.641	3232599	PROB	3.641	n/a	n/a	-999	19	[8, 2, 2]	12	FR1	0	R1054J
2936.915	4.206	3236240	PROB	4.206	n/a	n/a	-999	19	[9, 9, 5]	23	FR1	0	R1054J
2941.121	4.191	3240446	PROB	4.191	n/a	n/a	-999	19	[3, 9, 8]	20	FR1	0	R1054J
2945.312	0.016	3244637	STOP	n/a	n/a	n/a	-999	19	[-999, -999, -999]	n/a	FR1	0	R1054J
2945.328	1.237	3244653	DISTRACT_END	n/a	n/a	n/a	-999	19	[0, 0, 0]	n/a	FR1	0	R1054J
2946.565	0.935	3245889	REC_START	n/a	n/a	n/a	-999	19	[0, 0, 0]	n/a	FR1	0	R1054J
2947.5	1.114	3246824	REC_WORD	1.114	n/a	ZOO	-999	19	[0, 0, 0]	n/a	FR1	0	R1054J
2948.614	1.843	3247938	REC_WORD	1.843	n/a	FISH	-999	19	[0, 0, 0]	n/a	FR1	0	R1054J
2950.457	12.24	3249781	REC_WORD	12.24	n/a	FUR	-999	19	[0, 0, 0]	n/a	FR1	0	R1054J
2962.697	0.974	3262021	REC_WORD	0.974	n/a	SINK	-999	19	[0, 0, 0]	n/a	FR1	0	R1054J
2963.671	11.23	3262995	REC_WORD	11.23	n/a	MUD	-999	19	[0, 0, 0]	n/a	FR1	0	R1054J
2974.901	1.677	3274224	REC_WORD_VV	1.677	n/a	<>	-999	19	[0, 0, 0]	n/a	FR1	0	R1054J
2976.578	2.874	3275901	REC_END	n/a	n/a	n/a	-999	19	[0, 0, 0]	n/a	FR1	0	R1054J
2979.452	0.001	3278775	COUNTDOWN_START	n/a	n/a	n/a	-999	20	[0, 0, 0]	n/a	FR1	0	R1054J
2979.453	10.427	3278776	TRIAL	n/a	n/a	n/a	-999	20	[0, 0, 0]	n/a	FR1	0	R1054J
2989.88	0.007	3289203	COUNTDOWN_END	n/a	n/a	n/a	-999	20	[0, 0, 0]	n/a	FR1	0	R1054J
2989.887	2.554	3289210	ORIENT	n/a	n/a	n/a	-999	20	[0, 0, 0]	n/a	FR1	0	R1054J
2992.441	2.538	3291764	WORD	n/a	wordpools/wordpool_EN.txt	JET	1	20	[0, 0, 0]	n/a	FR1	0	R1054J
2994.979	2.437	3294302	WORD	n/a	wordpools/wordpool_EN.txt	PLANE	2	20	[0, 0, 0]	n/a	FR1	0	R1054J
2997.416	2.388	3296739	WORD	n/a	wordpools/wordpool_EN.txt	OAR	3	20	[0, 0, 0]	n/a	FR1	0	R1054J
2999.804	2.47	3299127	WORD	n/a	wordpools/wordpool_EN.txt	SHEET	4	20	[0, 0, 0]	n/a	FR1	0	R1054J
3002.274	2.605	3301596	WORD	n/a	wordpools/wordpool_EN.txt	TRAIN	5	20	[0, 0, 0]	n/a	FR1	0	R1054J
3004.879	2.604	3304201	WORD	n/a	wordpools/wordpool_EN.txt	PEARL	6	20	[0, 0, 0]	n/a	FR1	0	R1054J
3007.483	2.572	3306805	WORD	n/a	wordpools/wordpool_EN.txt	BANK	7	20	[0, 0, 0]	n/a	FR1	0	R1054J
3010.055	2.521	3309377	WORD	n/a	wordpools/wordpool_EN.txt	STEAM	8	20	[0, 0, 0]	n/a	FR1	0	R1054J
3012.576	2.603	3311898	WORD	n/a	wordpools/wordpool_EN.txt	STORE	9	20	[0, 0, 0]	n/a	FR1	0	R1054J
3015.179	2.572	3314501	WORD	n/a	wordpools/wordpool_EN.txt	MAIL	10	20	[0, 0, 0]	n/a	FR1	0	R1054J
3017.751	2.62	3317073	WORD	n/a	wordpools/wordpool_EN.txt	CASH	11	20	[0, 0, 0]	n/a	FR1	0	R1054J
3020.371	1.604	3319693	WORD	n/a	wordpools/wordpool_EN.txt	SCHOOL	12	20	[0, 0, 0]	n/a	FR1	0	R1054J
3021.975	0.001	3321297	DISTRACT_START	n/a	n/a	n/a	-999	20	[0, 0, 0]	n/a	FR1	0	R1054J
3021.976	0.015	3321298	START	n/a	n/a	n/a	-999	20	[-999, -999, -999]	n/a	FR1	0	R1054J
3021.991	4.39	3321313	PROB	4.39	n/a	n/a	-999	20	[4, 2, 1]	7	FR1	0	R1054J
3026.381	4.575	3325703	PROB	4.575	n/a	n/a	-999	20	[6, 8, 8]	22	FR1	0	R1054J
3030.956	3.773	3330277	PROB	3.773	n/a	n/a	-999	20	[9, 8, 4]	21	FR1	0	R1054J
3034.729	3.222	3334050	PROB	3.222	n/a	n/a	-999	20	[5, 1, 5]	11	FR1	0	R1054J
3037.951	3.355	3337272	PROB	3.355	n/a	n/a	-999	20	[7, 1, 4]	12	FR1	0	R1054J
3041.306	7.359	3340627	PROB	7.359	n/a	n/a	-999	20	[7, 4, 9]	20	FR1	0	R1054J
3048.665	0.021	3347986	STOP	n/a	n/a	n/a	-999	20	[-999, -999, -999]	n/a	FR1	0	R1054J
3048.686	1.119	3348007	DISTRACT_END	n/a	n/a	n/a	-999	20	[0, 0, 0]	n/a	FR1	0	R1054J
3049.805	0.794	3349126	REC_START	n/a	n/a	n/a	-999	20	[0, 0, 0]	n/a	FR1	0	R1054J
3050.599	1.113	3349920	REC_WORD	1.113	n/a	JET	-999	20	[0, 0, 0]	n/a	FR1	0	R1054J
3051.712	1.073	3351033	REC_WORD	1.073	n/a	PLANE	-999	20	[0, 0, 0]	n/a	FR1	0	R1054J
3052.785	3.7	3352106	REC_WORD	3.7	n/a	CASH	-999	20	[0, 0, 0]	n/a	FR1	0	R1054J
3056.485	8.738	3355806	REC_WORD	8.738	n/a	SCHOOL	-999	20	[0, 0, 0]	n/a	FR1	0	R1054J
3065.223	7.893	3364543	REC_WORD	7.893	n/a	TRAIN	-999	20	[0, 0, 0]	n/a	FR1	0	R1054J
3073.116	6.71	3372436	REC_WORD	6.71	n/a	OAR	-999	20	[0, 0, 0]	n/a	FR1	0	R1054J
3079.826	2.183	3379146	REC_END	n/a	n/a	n/a	-999	20	[0, 0, 0]	n/a	FR1	0	R1054J
3082.009	0.0	3381329	TRIAL	n/a	n/a	n/a	-999	21	[0, 0, 0]	n/a	FR1	0	R1054J
3082.009	10.428	3381329	COUNTDOWN_START	n/a	n/a	n/a	-999	21	[0, 0, 0]	n/a	FR1	0	R1054J
3092.437	0.005	3391756	COUNTDOWN_END	n/a	n/a	n/a	-999	21	[0, 0, 0]	n/a	FR1	0	R1054J
3092.442	2.372	3391761	ORIENT	n/a	n/a	n/a	-999	21	[0, 0, 0]	n/a	FR1	0	R1054J
3094.814	2.403	3394133	WORD	n/a	wordpools/wordpool_EN.txt	NOSE	1	21	[0, 0, 0]	n/a	FR1	0	R1054J
3097.217	2.505	3396536	WORD	n/a	wordpools/wordpool_EN.txt	MAZE	2	21	[0, 0, 0]	n/a	FR1	0	R1054J
3099.722	2.487	3399041	WORD	n/a	wordpools/wordpool_EN.txt	BUSH	3	21	[0, 0, 0]	n/a	FR1	0	R1054J
3102.209	2.588	3401528	WORD	n/a	wordpools/wordpool_EN.txt	WEED	4	21	[0, 0, 0]	n/a	FR1	0	R1054J
3104.797	2.403	3404116	WORD	n/a	wordpools/wordpool_EN.txt	SWORD	5	21	[0, 0, 0]	n/a	FR1	0	R1054J
3107.2	2.406	3406519	WORD	n/a	wordpools/wordpool_EN.txt	SQUARE	6	21	[0, 0, 0]	n/a	FR1	0	R1054J
3109.606	2.454	3408925	WORD	n/a	wordpools/wordpool_EN.txt	LAND	7	21	[0, 0, 0]	n/a	FR1	0	R1054J
3112.06	2.587	3411379	WORD	n/a	wordpools/wordpool_EN.txt	HILL	8	21	[0, 0, 0]	n/a	FR1	0	R1054J
3114.647	2.62	3413965	WORD	n/a	wordpools/wordpool_EN.txt	CLIFF	9	21	[0, 0, 0]	n/a	FR1	0	R1054J
3117.267	2.372	3416585	WORD	n/a	wordpools/wordpool_EN.txt	BOY	10	21	[0, 0, 0]	n/a	FR1	0	R1054J
3119.639	2.387	3418957	WORD	n/a	wordpools/wordpool_EN.txt	LAKE	11	21	[0, 0, 0]	n/a	FR1	0	R1054J
3122.026	1.62	3421344	WORD	n/a	wordpools/wordpool_EN.txt	ROCK	12	21	[0, 0, 0]	n/a	FR1	0	R1054J
3123.646	0.001	3422964	DISTRACT_START	n/a	n/a	n/a	-999	21	[0, 0, 0]	n/a	FR1	0	R1054J
3123.647	0.015	3422965	START	n/a	n/a	n/a	-999	21	[-999, -999, -999]	n/a	FR1	0	R1054J
3123.662	4.324	3422980	PROB	4.324	n/a	n/a	-999	21	[8, 5, 3]	16	FR1	0	R1054J
3127.986	4.758	3427304	PROB	4.758	n/a	n/a	-999	21	[3, 3, 4]	10	FR1	0	R1054J
3132.744	3.572	3432062	PROB	3.572	n/a	n/a	-999	21	[5, 8, 8]	21	FR1	0	R1054J
3136.316	4.525	3435634	PROB	4.525	n/a	n/a	-999	21	[1, 4, 8]	13	FR1	0	R1054J
3140.841	4.768	3440159	PROB	4.768	n/a	n/a	-999	21	[6, 1, 5]	12	FR1	0	R1054J
3145.609	0.007	3444926	STOP	n/a	n/a	n/a	-999	21	[-999, -999, -999]	n/a	FR1	0	R1054J
3145.616	1.136	3444933	DISTRACT_END	n/a	n/a	n/a	-999	21	[0, 0, 0]	n/a	FR1	0	R1054J
3146.752	1.8	3446069	REC_START	n/a	n/a	n/a	-999	21	[0, 0, 0]	n/a	FR1	0	R1054J
3148.552	1.143	3447869	REC_WORD	1.143	n/a	SQUARE	-999	21	[0, 0, 0]	n/a	FR1	0	R1054J
3149.695	0.879	3449012	REC_WORD	0.879	n/a	MAZE	-999	21	[0, 0, 0]	n/a	FR1	0	R1054J
3150.574	0.974	3449891	REC_WORD	0.974	n/a	LAND	-999	21	[0, 0, 0]	n/a	FR1	0	R1054J
3151.548	7.865	3450865	REC_WORD	7.865	n/a	BOY	-999	21	[0, 0, 0]	n/a	FR1	0	R1054J
3159.413	0.288	3458730	REC_WORD_VV	0.288	n/a	<>	-999	21	[0, 0, 0]	n/a	FR1	0	R1054J
3159.701	5.786	3459018	REC_WORD	5.786	n/a	CLIFF	-999	21	[0, 0, 0]	n/a	FR1	0	R1054J
3165.487	11.278	3464804	REC_WORD	11.278	n/a	HILL	-999	21	[0, 0, 0]	n/a	FR1	0	R1054J
3176.765	2.356	3476081	REC_END	n/a	n/a	n/a	-999	21	[0, 0, 0]	n/a	FR1	0	R1054J
3179.121	0.001	3478437	COUNTDOWN_START	n/a	n/a	n/a	-999	22	[0, 0, 0]	n/a	FR1	0	R1054J
3179.122	10.427	3478438	TRIAL	n/a	n/a	n/a	-999	22	[0, 0, 0]	n/a	FR1	0	R1054J
3189.549	0.008	3488865	COUNTDOWN_END	n/a	n/a	n/a	-999	22	[0, 0, 0]	n/a	FR1	0	R1054J
3189.557	2.487	3488873	ORIENT	n/a	n/a	n/a	-999	22	[0, 0, 0]	n/a	FR1	0	R1054J
3192.044	2.572	3491360	WORD	n/a	wordpools/wordpool_EN.txt	CAR	1	22	[0, 0, 0]	n/a	FR1	0	R1054J
3194.616	2.403	3493932	WORD	n/a	wordpools/wordpool_EN.txt	EGG	2	22	[0, 0, 0]	n/a	FR1	0	R1054J
3197.019	2.588	3496335	WORD	n/a	wordpools/wordpool_EN.txt	TOAD	3	22	[0, 0, 0]	n/a	FR1	0	R1054J
3199.607	2.57	3498922	WORD	n/a	wordpools/wordpool_EN.txt	HEART	4	22	[0, 0, 0]	n/a	FR1	0	R1054J
3202.177	2.505	3501492	WORD	n/a	wordpools/wordpool_EN.txt	ICE	5	22	[0, 0, 0]	n/a	FR1	0	R1054J
3204.682	2.453	3503997	WORD	n/a	wordpools/wordpool_EN.txt	PLANT	6	22	[0, 0, 0]	n/a	FR1	0	R1054J
3207.135	2.522	3506450	WORD	n/a	wordpools/wordpool_EN.txt	SHARK	7	22	[0, 0, 0]	n/a	FR1	0	R1054J
3209.657	2.537	3508972	WORD	n/a	wordpools/wordpool_EN.txt	BOMB	8	22	[0, 0, 0]	n/a	FR1	0	R1054J
3212.194	2.472	3511509	WORD	n/a	wordpools/wordpool_EN.txt	ROOT	9	22	[0, 0, 0]	n/a	FR1	0	R1054J
3214.666	2.553	3513981	WORD	n/a	wordpools/wordpool_EN.txt	SHIP	10	22	[0, 0, 0]	n/a	FR1	0	R1054J
3217.219	2.522	3516534	WORD	n/a	wordpools/wordpool_EN.txt	FILM	11	22	[0, 0, 0]	n/a	FR1	0	R1054J
3219.741	1.618	3519056	WORD	n/a	wordpools/wordpool_EN.txt	STAR	12	22	[0, 0, 0]	n/a	FR1	0	R1054J
3221.359	0.001	3520674	DISTRACT_START	n/a	n/a	n/a	-999	22	[0, 0, 0]	n/a	FR1	0	R1054J
3221.36	0.016	3520675	START	n/a	n/a	n/a	-999	22	[-999, -999, -999]	n/a	FR1	0	R1054J
3221.376	3.873	3520691	PROB	3.873	n/a	n/a	-999	22	[9, 4, 1]	14	FR1	0	R1054J
3225.249	4.023	3524564	PROB	4.023	n/a	n/a	-999	22	[4, 9, 1]	14	FR1	0	R1054J
3229.272	5.711	3528586	PROB	5.711	n/a	n/a	-999	22	[5, 4, 8]	17	FR1	0	R1054J
3234.983	3.64	3534297	PROB	3.64	n/a	n/a	-999	22	[3, 5, 3]	11	FR1	0	R1054J
3238.623	4.849	3537937	PROB	4.849	n/a	n/a	-999	22	[3, 5, 6]	14	FR1	0	R1054J
3243.472	0.008	3542786	STOP	n/a	n/a	n/a	-999	22	[-999, -999, -999]	n/a	FR1	0	R1054J
3243.48	1.103	3542794	DISTRACT_END	n/a	n/a	n/a	-999	22	[0, 0, 0]	n/a	FR1	0	R1054J
3244.583	0.859	3543897	REC_START	n/a	n/a	n/a	-999	22	[0, 0, 0]	n/a	FR1	0	R1054J
3245.442	1.305	3544756	REC_WORD	1.305	n/a	CAR	-999	22	[0, 0, 0]	n/a	FR1	0	R1054J
3246.747	0.821	3546061	REC_WORD	0.821	n/a	EGG	-999	22	[0, 0, 0]	n/a	FR1	0	R1054J
3247.568	2.183	3546882	REC_WORD	2.183	n/a	SHIP	-999	22	[0, 0, 0]	n/a	FR1	0	R1054J
3249.751	23.556	3549065	REC_WORD	23.556	n/a	PLANT	-999	22	[0, 0, 0]	n/a	FR1	0	R1054J
3273.307	1.301	3572620	REC_WORD	1.301	n/a	BOMB	-999	22	[0, 0, 0]	n/a	FR1	0	R1054J
3274.608	2.562	3573921	REC_END	n/a	n/a	n/a	-999	22	[0, 0, 0]	n/a	FR1	0	R1054J
3277.17	0.0	3576483	TRIAL	n/a	n/a	n/a	-999	23	[0, 0, 0]	n/a	FR1	0	R1054J
3277.17	10.428	3576483	COUNTDOWN_START	n/a	n/a	n/a	-999	23	[0, 0, 0]	n/a	FR1	0	R1054J
3287.598	0.007	3586910	COUNTDOWN_END	n/a	n/a	n/a	-999	23	[0, 0, 0]	n/a	FR1	0	R1054J
3287.605	2.603	3586917	ORIENT	n/a	n/a	n/a	-999	23	[0, 0, 0]	n/a	FR1	0	R1054J
3290.208	2.405	3589520	WORD	n/a	wordpools/wordpool_EN.txt	GRASS	1	23	[0, 0, 0]	n/a	FR1	0	R1054J
3292.613	2.487	3591925	WORD	n/a	wordpools/wordpool_EN.txt	MOON	2	23	[0, 0, 0]	n/a	FR1	0	R1054J
3295.1	2.572	3594412	WORD	n/a	wordpools/wordpool_EN.txt	SLUSH	3	23	[0, 0, 0]	n/a	FR1	0	R1054J
3297.672	2.553	3596984	WORD	n/a	wordpools/wordpool_EN.txt	NEST	4	23	[0, 0, 0]	n/a	FR1	0	R1054J
3300.225	2.439	3599537	WORD	n/a	wordpools/wordpool_EN.txt	BALL	5	23	[0, 0, 0]	n/a	FR1	0	R1054J
3302.664	2.603	3601976	WORD	n/a	wordpools/wordpool_EN.txt	GOAT	6	23	[0, 0, 0]	n/a	FR1	0	R1054J
3305.267	2.489	3604579	WORD	n/a	wordpools/wordpool_EN.txt	BIRD	7	23	[0, 0, 0]	n/a	FR1	0	R1054J
3307.756	2.603	3607068	WORD	n/a	wordpools/wordpool_EN.txt	VINE	8	23	[0, 0, 0]	n/a	FR1	0	R1054J
3310.359	2.605	3609670	WORD	n/a	wordpools/wordpool_EN.txt	PRINCE	9	23	[0, 0, 0]	n/a	FR1	0	R1054J
3312.964	2.437	3612275	WORD	n/a	wordpools/wordpool_EN.txt	BAT	10	23	[0, 0, 0]	n/a	FR1	0	R1054J
3315.401	2.405	3614712	WORD	n/a	wordpools/wordpool_EN.txt	CAT	11	23	[0, 0, 0]	n/a	FR1	0	R1054J
3317.806	1.618	3617117	WORD	n/a	wordpools/wordpool_EN.txt	NET	12	23	[0, 0, 0]	n/a	FR1	0	R1054J
3319.424	0.001	3618735	DISTRACT_START	n/a	n/a	n/a	-999	23	[0, 0, 0]	n/a	FR1	0	R1054J
3319.425	0.016	3618736	START	n/a	n/a	n/a	-999	23	[-999, -999, -999]	n/a	FR1	0	R1054J
3319.441	5.176	3618752	PROB	5.176	n/a	n/a	-999	23	[8, 4, 3]	15	FR1	0	R1054J
3324.617	4.341	3623928	PROB	4.341	n/a	n/a	-999	23	[9, 1, 7]	17	FR1	0	R1054J
3328.958	4.456	3628269	PROB	4.456	n/a	n/a	-999	23	[4, 8, 5]	17	FR1	0	R1054J
3333.414	4.108	3632725	PROB	4.108	n/a	n/a	-999	23	[8, 8, 6]	22	FR1	0	R1054J
3337.522	9.798	3636833	PROB	9.798	n/a	n/a	-999	23	[5, 9, 7]	21	FR1	0	R1054J
3347.32	0.018	3646630	STOP	n/a	n/a	n/a	-999	23	[-999, -999, -999]	n/a	FR1	0	R1054J
3347.338	1.203	3646648	DISTRACT_END	n/a	n/a	n/a	-999	23	[0, 0, 0]	n/a	FR1	0	R1054J
3348.541	2.29	3647851	REC_START	n/a	n/a	n/a	-999	23	[0, 0, 0]	n/a	FR1	0	R1054J
3350.831	1.888	3650141	REC_WORD	1.888	n/a	FINE	-999	23	[0, 0, 0]	n/a	FR1	0	R1054J
3352.719	1.753	3652029	REC_WORD	1.753	n/a	BAT	-999	23	[0, 0, 0]	n/a	FR1	0	R1054J
3354.472	1.983	3653782	REC_WORD	1.983	n/a	MOON	-999	23	[0, 0, 0]	n/a	FR1	0	R1054J
3356.455	22.107	3655765	REC_WORD	22.107	n/a	GRASS	-999	23	[0, 0, 0]	n/a	FR1	0	R1054J
3378.562	2.317	3677871	REC_END	n/a	n/a	n/a	-999	23	[0, 0, 0]	n/a	FR1	0	R1054J
3380.879	0.0	3680188	TRIAL	n/a	n/a	n/a	-999	24	[0, 0, 0]	n/a	FR1	0	R1054J
3380.879	10.428	3680188	COUNTDOWN_START	n/a	n/a	n/a	-999	24	[0, 0, 0]	n/a	FR1	0	R1054J
3391.307	0.005	3690616	COUNTDOWN_END	n/a	n/a	n/a	-999	24	[0, 0, 0]	n/a	FR1	0	R1054J
3391.312	2.622	3690621	ORIENT	n/a	n/a	n/a	-999	24	[0, 0, 0]	n/a	FR1	0	R1054J
3393.934	2.436	3693243	WORD	n/a	wordpools/wordpool_EN.txt	ROAD	1	24	[0, 0, 0]	n/a	FR1	0	R1054J
3396.37	2.606	3695678	WORD	n/a	wordpools/wordpool_EN.txt	DOG	2	24	[0, 0, 0]	n/a	FR1	0	R1054J
3398.976	2.419	3698284	WORD	n/a	wordpools/wordpool_EN.txt	SKUNK	3	24	[0, 0, 0]	n/a	FR1	0	R1054J
3401.395	2.472	3700703	WORD	n/a	wordpools/wordpool_EN.txt	FOG	4	24	[0, 0, 0]	n/a	FR1	0	R1054J
3403.867	2.587	3703175	WORD	n/a	wordpools/wordpool_EN.txt	HEN	5	24	[0, 0, 0]	n/a	FR1	0	R1054J
3406.454	2.455	3705762	WORD	n/a	wordpools/wordpool_EN.txt	LAMB	6	24	[0, 0, 0]	n/a	FR1	0	R1054J
3408.909	2.437	3708217	WORD	n/a	wordpools/wordpool_EN.txt	FARM	7	24	[0, 0, 0]	n/a	FR1	0	R1054J
3411.346	2.588	3710654	WORD	n/a	wordpools/wordpool_EN.txt	EEL	8	24	[0, 0, 0]	n/a	FR1	0	R1054J
3413.934	2.621	3713242	WORD	n/a	wordpools/wordpool_EN.txt	CALF	9	24	[0, 0, 0]	n/a	FR1	0	R1054J
3416.555	2.404	3715863	WORD	n/a	wordpools/wordpool_EN.txt	TRUCK	10	24	[0, 0, 0]	n/a	FR1	0	R1054J
3418.959	2.571	3718267	WORD	n/a	wordpools/wordpool_EN.txt	VAN	11	24	[0, 0, 0]	n/a	FR1	0	R1054J
3421.53	1.619	3720838	WORD	n/a	wordpools/wordpool_EN.txt	BRIDGE	12	24	[0, 0, 0]	n/a	FR1	0	R1054J
3423.149	0.0	3722456	DISTRACT_START	n/a	n/a	n/a	-999	24	[0, 0, 0]	n/a	FR1	0	R1054J
3423.149	0.016	3722456	START	n/a	n/a	n/a	-999	24	[-999, -999, -999]	n/a	FR1	0	R1054J
3423.165	4.759	3722472	PROB	4.759	n/a	n/a	-999	24	[8, 2, 6]	16	FR1	0	R1054J
3427.924	3.99	3727231	PROB	3.99	n/a	n/a	-999	24	[2, 3, 4]	9	FR1	0	R1054J
3431.914	5.325	3731221	PROB	5.325	n/a	n/a	-999	24	[8, 6, 6]	20	FR1	0	R1054J
3437.239	5.226	3736546	PROB	5.226	n/a	n/a	-999	24	[2, 7, 8]	17	FR1	0	R1054J
3442.465	4.424	3741772	PROB	4.424	n/a	n/a	-999	24	[3, 2, 5]	10	FR1	0	R1054J
3446.889	0.017	3746196	STOP	n/a	n/a	n/a	-999	24	[-999, -999, -999]	n/a	FR1	0	R1054J
3446.906	1.202	3746213	DISTRACT_END	n/a	n/a	n/a	-999	24	[0, 0, 0]	n/a	FR1	0	R1054J
3448.108	1.461	3747415	REC_START	n/a	n/a	n/a	-999	24	[0, 0, 0]	n/a	FR1	0	R1054J
3449.569	0.996	3748876	REC_WORD	0.996	n/a	VAN	-999	24	[0, 0, 0]	n/a	FR1	0	R1054J
3450.565	1.151	3749871	REC_WORD	1.151	n/a	TRUCK	-999	24	[0, 0, 0]	n/a	FR1	0	R1054J
3451.716	0.999	3751022	REC_WORD	0.999	n/a	BRIDGE	-999	24	[0, 0, 0]	n/a	FR1	0	R1054J
3452.715	1.13	3752021	REC_WORD	1.13	n/a	ROAD	-999	24	[0, 0, 0]	n/a	FR1	0	R1054J
3453.845	2.117	3753151	REC_WORD	2.117	n/a	EEL	-999	24	[0, 0, 0]	n/a	FR1	0	R1054J
3455.962	1.134	3755268	REC_WORD	1.134	n/a	HEN	-999	24	[0, 0, 0]	n/a	FR1	0	R1054J
3457.096	3.082	3756402	REC_WORD	3.082	n/a	FARM	-999	24	[0, 0, 0]	n/a	FR1	0	R1054J
3460.178	15.89	3759484	REC_WORD	15.89	n/a	LAMB	-999	24	[0, 0, 0]	n/a	FR1	0	R1054J
3476.068	0.838	3775374	REC_WORD	0.838	n/a	ROAD	-999	24	[0, 0, 0]	n/a	FR1	0	R1054J
3476.906	1.216	3776212	REC_WORD_VV	1.216	n/a	<>	-999	24	[0, 0, 0]	n/a	FR1	0	R1054J
3478.122	3.058	3777427	REC_END	n/a	n/a	n/a	-999	24	[0, 0, 0]	n/a	FR1	0	R1054J
3481.18	0.0	3780485	TRIAL	n/a	n/a	n/a	-999	25	[0, 0, 0]	n/a	FR1	0	R1054J
3481.18	10.428	3780485	COUNTDOWN_START	n/a	n/a	n/a	-999	25	[0, 0, 0]	n/a	FR1	0	R1054J
3491.608	0.007	3790913	COUNTDOWN_END	n/a	n/a	n/a	-999	25	[0, 0, 0]	n/a	FR1	0	R1054J
3491.615	2.387	3790920	ORIENT	n/a	n/a	n/a	-999	25	[0, 0, 0]	n/a	FR1	0	R1054J
3494.002	2.505	3793307	WORD	n/a	wordpools/wordpool_EN.txt	SWAMP	1	25	[0, 0, 0]	n/a	FR1	0	R1054J
3496.507	2.586	3795812	WORD	n/a	wordpools/wordpool_EN.txt	TRASH	2	25	[0, 0, 0]	n/a	FR1	0	R1054J
3499.093	2.556	3798398	WORD	n/a	wordpools/wordpool_EN.txt	JAR	3	25	[0, 0, 0]	n/a	FR1	0	R1054J
3501.649	2.553	3800954	WORD	n/a	wordpools/wordpool_EN.txt	DITCH	4	25	[0, 0, 0]	n/a	FR1	0	R1054J
3504.202	2.472	3803507	WORD	n/a	wordpools/wordpool_EN.txt	ROSE	5	25	[0, 0, 0]	n/a	FR1	0	R1054J
3506.674	2.419	3805978	WORD	n/a	wordpools/wordpool_EN.txt	PIT	6	25	[0, 0, 0]	n/a	FR1	0	R1054J
3509.093	2.539	3808397	WORD	n/a	wordpools/wordpool_EN.txt	PARK	7	25	[0, 0, 0]	n/a	FR1	0	R1054J
3511.632	2.453	3810936	WORD	n/a	wordpools/wordpool_EN.txt	FLUTE	8	25	[0, 0, 0]	n/a	FR1	0	R1054J
3514.085	2.556	3813389	WORD	n/a	wordpools/wordpool_EN.txt	BREAD	9	25	[0, 0, 0]	n/a	FR1	0	R1054J
3516.641	2.469	3815945	WORD	n/a	wordpools/wordpool_EN.txt	PIE	10	25	[0, 0, 0]	n/a	FR1	0	R1054J
3519.11	2.472	3818414	WORD	n/a	wordpools/wordpool_EN.txt	CAKE	11	25	[0, 0, 0]	n/a	FR1	0	R1054J
3521.582	1.618	3820886	WORD	n/a	wordpools/wordpool_EN.txt	FENCE	12	25	[0, 0, 0]	n/a	FR1	0	R1054J
3523.2	0.001	3822504	DISTRACT_START	n/a	n/a	n/a	-999	25	[0, 0, 0]	n/a	FR1	0	R1054J
3523.201	0.016	3822505	START	n/a	n/a	n/a	-999	25	[-999, -999, -999]	n/a	FR1	0	R1054J
3523.217	5.427	3822521	PROB	5.427	n/a	n/a	-999	25	[5, 1, 7]	13	FR1	0	R1054J
3528.644	4.774	3827948	PROB	4.774	n/a	n/a	-999	25	[3, 9, 5]	17	FR1	0	R1054J
3533.418	5.56	3832722	PROB	5.56	n/a	n/a	-999	25	[9, 7, 6]	22	FR1	0	R1054J
3538.978	4.511	3838281	PROB	4.511	n/a	n/a	-999	25	[2, 2, 3]	7	FR1	0	R1054J
3543.489	0.013	3842792	STOP	n/a	n/a	n/a	-999	25	[-999, -999, -999]	n/a	FR1	0	R1054J
3543.502	1.22	3842805	DISTRACT_END	n/a	n/a	n/a	-999	25	[0, 0, 0]	n/a	FR1	0	R1054J
3544.722	1.237	3844025	REC_START	n/a	n/a	n/a	-999	25	[0, 0, 0]	n/a	FR1	0	R1054J
3545.959	1.503	3845262	REC_WORD	1.503	n/a	BREAD	-999	25	[0, 0, 0]	n/a	FR1	0	R1054J
3547.462	3.407	3846765	REC_WORD	3.407	n/a	PIE	-999	25	[0, 0, 0]	n/a	FR1	0	R1054J
3550.869	5.748	3850172	REC_WORD	5.748	n/a	SWAMP	-999	25	[0, 0, 0]	n/a	FR1	0	R1054J
3556.617	1.236	3855920	REC_WORD	1.236	n/a	JAR	-999	25	[0, 0, 0]	n/a	FR1	0	R1054J
3557.853	1.51	3857156	REC_WORD	1.51	n/a	TRASH	-999	25	[0, 0, 0]	n/a	FR1	0	R1054J
3559.363	3.978	3858666	REC_WORD	3.978	n/a	PIT	-999	25	[0, 0, 0]	n/a	FR1	0	R1054J
3563.341	11.394	3862643	REC_WORD	11.394	n/a	ROSE	-999	25	[0, 0, 0]	n/a	FR1	0	R1054J
3574.735	7.432	3874037	REC_END	n/a	n/a	n/a	-999	25	[0, 0, 0]	n/a	FR1	0	R1054J
3582.167	0.0	3881469	SESS_END	n/a	n/a	n/a	-999	25	[0, 0, 0]	n/a	FR1	0	R1054J
