onset	duration	sample	trial_type	response_time	stim_file	item_name	serialpos	list	test	answer	experiment	session	subject
0.0	0.438	-1	Logging	n/a	n/a	n/a	-999	25	[0, 0, 0]	n/a	FR1	0	R1310J
0.438	0.008	-1	INSTRUCT_START	n/a	n/a	n/a	-999	-999	[0, 0, 0]	n/a	FR1	0	R1310J
0.446	949.718	-1	Logging	n/a	n/a	n/a	-999	-999	[0, 0, 0]	n/a	FR1	0	R1310J
950.164	0.0	814088	MIC	n/a	n/a	n/a	-999	-999	[0, 0, 0]	n/a	FR1	0	R1310J
950.164	0.0	814088	WAITING_START	n/a	n/a	n/a	-999	-1	[0, 0, 0]	n/a	FR1	0	R1310J
950.164	0.0	814088	TRIAL	n/a	n/a	n/a	-999	-1	[0, 0, 0]	n/a	FR1	0	R1310J
950.164	0.0	814088	INSTRUCT_END	n/a	n/a	n/a	-999	-999	[0, 0, 0]	n/a	FR1	0	R1310J
950.164	0.0	814088	MIC	n/a	n/a	n/a	-999	-999	[0, 0, 0]	n/a	FR1	0	R1310J
950.164	33.757	814088	TRIAL_START	n/a	n/a	n/a	-999	-1	[0, 0, 0]	n/a	FR1	0	R1310J
983.921	0.0	847844	COUNTDOWN_START	n/a	n/a	n/a	-999	-1	[0, 0, 0]	n/a	FR1	0	R1310J
983.921	0.0	847844	ORIENT_START	n/a	n/a	n/a	-999	-1	[0, 0, 0]	n/a	FR1	0	R1310J
983.921	0.0	847844	WAITING_END	n/a	n/a	n/a	-999	-1	[0, 0, 0]	n/a	FR1	0	R1310J
983.921	11.635	847844	COUNTDOWN_END	n/a	n/a	n/a	-999	-1	[0, 0, 0]	n/a	FR1	0	R1310J
995.556	0.0	859479	ORIENT_END	n/a	n/a	n/a	-999	-1	[0, 0, 0]	n/a	FR1	0	R1310J
995.556	0.935	859479	ENCODING_START	n/a	n/a	n/a	-999	-1	[0, 0, 0]	n/a	FR1	0	R1310J
996.491	1.631	860414	WORD	n/a	n/a	CHEST	1	-1	[0, 0, 0]	n/a	FR1	0	R1310J
998.122	0.966	862045	WORD_OFF	n/a	n/a	CHEST	1	-1	[0, 0, 0]	n/a	FR1	0	R1310J
999.088	1.619	863010	WORD	n/a	n/a	BABY	2	-1	[0, 0, 0]	n/a	FR1	0	R1310J
1000.707	0.836	864629	WORD_OFF	n/a	n/a	BABY	2	-1	[0, 0, 0]	n/a	FR1	0	R1310J
1001.543	1.63	865465	WORD	n/a	n/a	COTTON	3	-1	[0, 0, 0]	n/a	FR1	0	R1310J
1003.173	0.802	867095	WORD_OFF	n/a	n/a	COTTON	3	-1	[0, 0, 0]	n/a	FR1	0	R1310J
1003.975	1.633	867897	WORD	n/a	n/a	BEAM	4	-1	[0, 0, 0]	n/a	FR1	0	R1310J
1005.608	1.11	869530	WORD_OFF	n/a	n/a	BEAM	4	-1	[0, 0, 0]	n/a	FR1	0	R1310J
1006.718	1.624	870640	WORD	n/a	n/a	IMAGE	5	-1	[0, 0, 0]	n/a	FR1	0	R1310J
1008.342	0.765	872264	WORD_OFF	n/a	n/a	IMAGE	5	-1	[0, 0, 0]	n/a	FR1	0	R1310J
1009.107	1.619	873029	WORD	n/a	n/a	RING	6	-1	[0, 0, 0]	n/a	FR1	0	R1310J
1010.726	0.765	874648	WORD_OFF	n/a	n/a	RING	6	-1	[0, 0, 0]	n/a	FR1	0	R1310J
1011.491	1.634	875413	WORD	n/a	n/a	RHINO	7	-1	[0, 0, 0]	n/a	FR1	0	R1310J
1013.125	0.821	877047	WORD_OFF	n/a	n/a	RHINO	7	-1	[0, 0, 0]	n/a	FR1	0	R1310J
1013.946	1.63	877868	WORD	n/a	n/a	TONGUE	8	-1	[0, 0, 0]	n/a	FR1	0	R1310J
1015.576	0.972	879498	WORD_OFF	n/a	n/a	TONGUE	8	-1	[0, 0, 0]	n/a	FR1	0	R1310J
1016.548	1.628	880470	WORD	n/a	n/a	FLOOD	9	-1	[0, 0, 0]	n/a	FR1	0	R1310J
1018.176	0.978	882098	WORD_OFF	n/a	n/a	FLOOD	9	-1	[0, 0, 0]	n/a	FR1	0	R1310J
1019.154	1.623	883076	WORD	n/a	n/a	WATCH	10	-1	[0, 0, 0]	n/a	FR1	0	R1310J
1020.777	0.904	884699	WORD_OFF	n/a	n/a	WATCH	10	-1	[0, 0, 0]	n/a	FR1	0	R1310J
1021.681	1.63	885603	WORD	n/a	n/a	CAMEL	11	-1	[0, 0, 0]	n/a	FR1	0	R1310J
1023.311	1.09	887232	WORD_OFF	n/a	n/a	CAMEL	11	-1	[0, 0, 0]	n/a	FR1	0	R1310J
1024.401	1.626	888322	WORD	n/a	n/a	WAGON	12	-1	[0, 0, 0]	n/a	FR1	0	R1310J
1026.027	0.0	889948	WORD_OFF	n/a	n/a	WAGON	12	-1	[0, 0, 0]	n/a	FR1	0	R1310J
1026.027	0.0	889948	ENCODING_END	n/a	n/a	n/a	-999	-1	[0, 0, 0]	n/a	FR1	0	R1310J
1026.027	0.001	889948	DISTRACT_START	n/a	n/a	n/a	-999	-1	[0, 0, 0]	n/a	FR1	0	R1310J
1026.028	0.016	889949	START	n/a	n/a	n/a	-999	-1	[-999, -999, -999]	n/a	FR1	0	R1310J
1026.044	5.967	889965	PROB	5.967	n/a	n/a	-999	-1	[9, 6, 9]	24	FR1	0	R1310J
1032.011	2.552	895932	PROB	2.552	n/a	n/a	-999	-1	[1, 4, 4]	9	FR1	0	R1310J
1034.563	2.984	898484	PROB	2.984	n/a	n/a	-999	-1	[5, 5, 5]	15	FR1	0	R1310J
1037.547	3.599	901468	PROB	3.599	n/a	n/a	-999	-1	[2, 8, 7]	17	FR1	0	R1310J
1041.146	4.101	905067	PROB	4.101	n/a	n/a	-999	-1	[9, 6, 5]	20	FR1	0	R1310J
1045.247	5.182	909168	PROB	5.182	n/a	n/a	-999	-1	[4, 2, 6]	12	FR1	0	R1310J
1050.429	0.02	914349	STOP	n/a	n/a	n/a	-999	-1	[-999, -999, -999]	n/a	FR1	0	R1310J
1050.449	1.199	914369	DISTRACT_END	n/a	n/a	n/a	-999	-1	[0, 0, 0]	n/a	FR1	0	R1310J
1051.648	1.035	915568	RETRIEVAL_ORIENT_START	n/a	n/a	n/a	-999	-1	[0, 0, 0]	n/a	FR1	0	R1310J
1052.683	0.0	916603	RETRIEVAL_ORIENT_END	n/a	n/a	n/a	-999	-1	[0, 0, 0]	n/a	FR1	0	R1310J
1052.683	0.369	916603	REC_START	n/a	n/a	n/a	-999	-1	[0, 0, 0]	n/a	FR1	0	R1310J
1053.052	0.65	916972	REC_WORD_VV	0.65	n/a	<>	-999	-1	[0, 0, 0]	n/a	FR1	0	R1310J
1053.702	1.477	917622	REC_WORD	1.477	n/a	CHEST	1	-1	[0, 0, 0]	n/a	FR1	0	R1310J
1055.179	1.47	919099	REC_WORD	1.47	n/a	IMAGE	5	-1	[0, 0, 0]	n/a	FR1	0	R1310J
1056.649	1.156	920569	REC_WORD	1.156	n/a	ELBOW	-999	-1	[0, 0, 0]	n/a	FR1	0	R1310J
1057.805	4.129	921725	REC_WORD_VV	4.129	n/a	<>	-999	-1	[0, 0, 0]	n/a	FR1	0	R1310J
1061.934	2.633	925854	REC_WORD	2.633	n/a	RHINO	7	-1	[0, 0, 0]	n/a	FR1	0	R1310J
1064.567	18.627	928487	REC_WORD_VV	18.627	n/a	<>	-999	-1	[0, 0, 0]	n/a	FR1	0	R1310J
1083.194	0.0	947113	PRACTICE_POST_INSTRUCT_START	n/a	n/a	n/a	-999	-1	[0, 0, 0]	n/a	FR1	0	R1310J
1083.194	7.011	947113	REC_END	n/a	n/a	n/a	-999	-1	[0, 0, 0]	n/a	FR1	0	R1310J
1090.205	0.0	954124	PRACTICE_POST_INSTRUCT_END	n/a	n/a	n/a	-999	-1	[0, 0, 0]	n/a	FR1	0	R1310J
1090.205	0.0	954124	TRIAL_END	n/a	n/a	n/a	-999	-1	[0, 0, 0]	n/a	FR1	0	R1310J
1090.205	0.0	954124	TRIAL_START	n/a	n/a	n/a	-999	1	[0, 0, 0]	n/a	FR1	0	R1310J
1090.205	0.0	954124	TRIAL	n/a	n/a	n/a	-999	1	[0, 0, 0]	n/a	FR1	0	R1310J
1090.205	3.685	954124	WAITING_START	n/a	n/a	n/a	-999	1	[0, 0, 0]	n/a	FR1	0	R1310J
1093.89	0.0	957809	WAITING_END	n/a	n/a	n/a	-999	1	[0, 0, 0]	n/a	FR1	0	R1310J
1093.89	0.0	957809	COUNTDOWN_START	n/a	n/a	n/a	-999	1	[0, 0, 0]	n/a	FR1	0	R1310J
1093.89	0.0	957809	COUNTDOWN_END	n/a	n/a	n/a	-999	1	[0, 0, 0]	n/a	FR1	0	R1310J
1093.89	11.702	957809	ORIENT_START	n/a	n/a	n/a	-999	1	[0, 0, 0]	n/a	FR1	0	R1310J
1105.592	0.0	969510	ORIENT_END	n/a	n/a	n/a	-999	1	[0, 0, 0]	n/a	FR1	0	R1310J
1105.592	1.009	969510	ENCODING_START	n/a	n/a	n/a	-999	1	[0, 0, 0]	n/a	FR1	0	R1310J
1106.601	1.623	970519	WORD	n/a	wordpools/wordpool_EN.txt	HAWK	1	1	[0, 0, 0]	n/a	FR1	0	R1310J
1108.224	0.972	972142	WORD_OFF	n/a	n/a	HAWK	1	1	[0, 0, 0]	n/a	FR1	0	R1310J
1109.196	1.63	973114	WORD	n/a	wordpools/wordpool_EN.txt	PHONE	2	1	[0, 0, 0]	n/a	FR1	0	R1310J
1110.826	0.979	974744	WORD_OFF	n/a	n/a	PHONE	2	1	[0, 0, 0]	n/a	FR1	0	R1310J
1111.805	1.638	975723	WORD	n/a	wordpools/wordpool_EN.txt	HORSE	3	1	[0, 0, 0]	n/a	FR1	0	R1310J
1113.443	0.973	977361	WORD_OFF	n/a	n/a	HORSE	3	1	[0, 0, 0]	n/a	FR1	0	R1310J
1114.416	1.626	978334	WORD	n/a	wordpools/wordpool_EN.txt	HAND	4	1	[0, 0, 0]	n/a	FR1	0	R1310J
1116.042	0.905	979960	WORD_OFF	n/a	n/a	HAND	4	1	[0, 0, 0]	n/a	FR1	0	R1310J
1116.947	1.63	980865	WORD	n/a	wordpools/wordpool_EN.txt	LEG	5	1	[0, 0, 0]	n/a	FR1	0	R1310J
1118.577	0.76	982495	WORD_OFF	n/a	n/a	LEG	5	1	[0, 0, 0]	n/a	FR1	0	R1310J
1119.337	1.624	983255	WORD	n/a	wordpools/wordpool_EN.txt	TRUCK	6	1	[0, 0, 0]	n/a	FR1	0	R1310J
1120.961	1.14	984878	WORD_OFF	n/a	n/a	TRUCK	6	1	[0, 0, 0]	n/a	FR1	0	R1310J
1122.101	1.61	986018	WORD	n/a	wordpools/wordpool_EN.txt	SHEEP	7	1	[0, 0, 0]	n/a	FR1	0	R1310J
1123.711	0.875	987628	WORD_OFF	n/a	n/a	SHEEP	7	1	[0, 0, 0]	n/a	FR1	0	R1310J
1124.586	1.625	988503	WORD	n/a	wordpools/wordpool_EN.txt	PANTS	8	1	[0, 0, 0]	n/a	FR1	0	R1310J
1126.211	1.14	990128	WORD_OFF	n/a	n/a	PANTS	8	1	[0, 0, 0]	n/a	FR1	0	R1310J
1127.351	1.628	991268	WORD	n/a	wordpools/wordpool_EN.txt	TOE	9	1	[0, 0, 0]	n/a	FR1	0	R1310J
1128.979	1.072	992896	WORD_OFF	n/a	n/a	TOE	9	1	[0, 0, 0]	n/a	FR1	0	R1310J
1130.051	1.612	993968	WORD	n/a	wordpools/wordpool_EN.txt	BOOK	10	1	[0, 0, 0]	n/a	FR1	0	R1310J
1131.663	1.068	995580	WORD_OFF	n/a	n/a	BOOK	10	1	[0, 0, 0]	n/a	FR1	0	R1310J
1132.731	1.632	996648	WORD	n/a	wordpools/wordpool_EN.txt	MOLE	11	1	[0, 0, 0]	n/a	FR1	0	R1310J
1134.363	1.011	998280	WORD_OFF	n/a	n/a	MOLE	11	1	[0, 0, 0]	n/a	FR1	0	R1310J
1135.374	1.623	999291	WORD	n/a	wordpools/wordpool_EN.txt	HOLE	12	1	[0, 0, 0]	n/a	FR1	0	R1310J
1136.997	0.0	1000914	ENCODING_END	n/a	n/a	n/a	-999	1	[0, 0, 0]	n/a	FR1	0	R1310J
1136.997	0.0	1000914	WORD_OFF	n/a	n/a	HOLE	12	1	[0, 0, 0]	n/a	FR1	0	R1310J
1136.997	0.001	1000914	DISTRACT_START	n/a	n/a	n/a	-999	1	[0, 0, 0]	n/a	FR1	0	R1310J
1136.998	0.015	1000915	START	n/a	n/a	n/a	-999	1	[-999, -999, -999]	n/a	FR1	0	R1310J
1137.013	4.034	1000930	PROB	4.034	n/a	n/a	-999	1	[5, 1, 1]	7	FR1	0	R1310J
1141.047	4.1	1004964	PROB	4.1	n/a	n/a	-999	1	[1, 7, 5]	13	FR1	0	R1310J
1145.147	4.235	1009063	PROB	4.235	n/a	n/a	-999	1	[3, 2, 1]	6	FR1	0	R1310J
1149.382	2.134	1013298	PROB	2.134	n/a	n/a	-999	1	[3, 3, 3]	9	FR1	0	R1310J
1151.516	4.134	1015432	PROB	4.134	n/a	n/a	-999	1	[7, 8, 9]	24	FR1	0	R1310J
1155.65	5.527	1019566	PROB	5.527	n/a	n/a	-999	1	[8, 9, 6]	23	FR1	0	R1310J
1161.177	0.006	1025093	STOP	n/a	n/a	n/a	-999	1	[-999, -999, -999]	n/a	FR1	0	R1310J
1161.183	1.086	1025099	DISTRACT_END	n/a	n/a	n/a	-999	1	[0, 0, 0]	n/a	FR1	0	R1310J
1162.269	1.032	1026185	RETRIEVAL_ORIENT_START	n/a	n/a	n/a	-999	1	[0, 0, 0]	n/a	FR1	0	R1310J
1163.301	0.0	1027217	RETRIEVAL_ORIENT_END	n/a	n/a	n/a	-999	1	[0, 0, 0]	n/a	FR1	0	R1310J
1163.301	0.0	1027217	REC_START	n/a	n/a	n/a	-999	1	[0, 0, 0]	n/a	FR1	0	R1310J
1163.301	1.825	1027217	REC_WORD_VV	1.825	n/a	<>	-999	1	[0, 0, 0]	n/a	FR1	0	R1310J
1165.126	0.889	1029042	REC_WORD_VV	0.889	n/a	<>	-999	1	[0, 0, 0]	n/a	FR1	0	R1310J
1166.015	0.606	1029931	REC_WORD	0.606	n/a	BOOK	10	1	[0, 0, 0]	n/a	FR1	0	R1310J
1166.621	1.045	1030537	REC_WORD_VV	1.045	n/a	<>	-999	1	[0, 0, 0]	n/a	FR1	0	R1310J
1167.666	2.19	1031582	REC_WORD	2.19	n/a	HAWK	1	1	[0, 0, 0]	n/a	FR1	0	R1310J
1169.856	0.449	1033771	REC_WORD_VV	0.449	n/a	<>	-999	1	[0, 0, 0]	n/a	FR1	0	R1310J
1170.305	0.625	1034220	REC_WORD	0.625	n/a	HORSE	3	1	[0, 0, 0]	n/a	FR1	0	R1310J
1170.93	3.225	1034845	REC_WORD	3.225	n/a	MOLE	11	1	[0, 0, 0]	n/a	FR1	0	R1310J
1174.155	15.12	1038070	REC_WORD_VV	15.12	n/a	<>	-999	1	[0, 0, 0]	n/a	FR1	0	R1310J
1189.275	2.595	1053190	REC_WORD	2.595	n/a	TOE	9	1	[0, 0, 0]	n/a	FR1	0	R1310J
1191.87	1.944	1055785	REC_WORD	1.944	n/a	FINGER	-999	1	[0, 0, 0]	n/a	FR1	0	R1310J
1193.814	0.0	1057728	TRIAL_END	n/a	n/a	n/a	-999	1	[0, 0, 0]	n/a	FR1	0	R1310J
1193.814	0.0	1057728	WAITING_START	n/a	n/a	n/a	-999	2	[0, 0, 0]	n/a	FR1	0	R1310J
1193.814	0.0	1057728	REC_END	n/a	n/a	n/a	-999	1	[0, 0, 0]	n/a	FR1	0	R1310J
1193.814	0.0	1057728	TRIAL_START	n/a	n/a	n/a	-999	2	[0, 0, 0]	n/a	FR1	0	R1310J
1193.814	2.225	1057728	TRIAL	n/a	n/a	n/a	-999	2	[0, 0, 0]	n/a	FR1	0	R1310J
1196.039	0.0	1059953	WAITING_END	n/a	n/a	n/a	-999	2	[0, 0, 0]	n/a	FR1	0	R1310J
1196.039	0.0	1059953	COUNTDOWN_START	n/a	n/a	n/a	-999	2	[0, 0, 0]	n/a	FR1	0	R1310J
1196.039	0.0	1059953	COUNTDOWN_END	n/a	n/a	n/a	-999	2	[0, 0, 0]	n/a	FR1	0	R1310J
1196.039	11.486	1059953	ORIENT_START	n/a	n/a	n/a	-999	2	[0, 0, 0]	n/a	FR1	0	R1310J
1207.525	0.0	1071439	ENCODING_START	n/a	n/a	n/a	-999	2	[0, 0, 0]	n/a	FR1	0	R1310J
1207.525	0.93	1071439	ORIENT_END	n/a	n/a	n/a	-999	2	[0, 0, 0]	n/a	FR1	0	R1310J
1208.455	1.637	1072369	WORD	n/a	wordpools/wordpool_EN.txt	SOAP	1	2	[0, 0, 0]	n/a	FR1	0	R1310J
1210.092	1.145	1074006	WORD_OFF	n/a	n/a	SOAP	1	2	[0, 0, 0]	n/a	FR1	0	R1310J
1211.237	1.639	1075151	WORD	n/a	wordpools/wordpool_EN.txt	ZOO	2	2	[0, 0, 0]	n/a	FR1	0	R1310J
1212.876	1.008	1076790	WORD_OFF	n/a	n/a	ZOO	2	2	[0, 0, 0]	n/a	FR1	0	R1310J
1213.884	1.626	1077798	WORD	n/a	wordpools/wordpool_EN.txt	CUBE	3	2	[0, 0, 0]	n/a	FR1	0	R1310J
1215.51	0.833	1079424	WORD_OFF	n/a	n/a	CUBE	3	2	[0, 0, 0]	n/a	FR1	0	R1310J
1216.343	1.634	1080256	WORD	n/a	wordpools/wordpool_EN.txt	STORE	4	2	[0, 0, 0]	n/a	FR1	0	R1310J
1217.977	0.814	1081890	WORD_OFF	n/a	n/a	STORE	4	2	[0, 0, 0]	n/a	FR1	0	R1310J
1218.791	1.637	1082704	WORD	n/a	wordpools/wordpool_EN.txt	BADGE	5	2	[0, 0, 0]	n/a	FR1	0	R1310J
1220.428	0.792	1084341	WORD_OFF	n/a	n/a	BADGE	5	2	[0, 0, 0]	n/a	FR1	0	R1310J
1221.22	1.625	1085133	WORD	n/a	wordpools/wordpool_EN.txt	BEACH	6	2	[0, 0, 0]	n/a	FR1	0	R1310J
1222.845	0.824	1086758	WORD_OFF	n/a	n/a	BEACH	6	2	[0, 0, 0]	n/a	FR1	0	R1310J
1223.669	1.626	1087582	WORD	n/a	wordpools/wordpool_EN.txt	BATH	7	2	[0, 0, 0]	n/a	FR1	0	R1310J
1225.295	1.028	1089208	WORD_OFF	n/a	n/a	BATH	7	2	[0, 0, 0]	n/a	FR1	0	R1310J
1226.323	1.623	1090236	WORD	n/a	wordpools/wordpool_EN.txt	PURSE	8	2	[0, 0, 0]	n/a	FR1	0	R1310J
1227.946	0.883	1091859	WORD_OFF	n/a	n/a	PURSE	8	2	[0, 0, 0]	n/a	FR1	0	R1310J
1228.829	1.634	1092742	WORD	n/a	wordpools/wordpool_EN.txt	STORM	9	2	[0, 0, 0]	n/a	FR1	0	R1310J
1230.463	0.982	1094376	WORD_OFF	n/a	n/a	STORM	9	2	[0, 0, 0]	n/a	FR1	0	R1310J
1231.445	1.634	1095358	WORD	n/a	wordpools/wordpool_EN.txt	CLIFF	10	2	[0, 0, 0]	n/a	FR1	0	R1310J
1233.079	1.073	1096992	WORD_OFF	n/a	n/a	CLIFF	10	2	[0, 0, 0]	n/a	FR1	0	R1310J
1234.152	1.611	1098065	WORD	n/a	wordpools/wordpool_EN.txt	CAVE	11	2	[0, 0, 0]	n/a	FR1	0	R1310J
1235.763	1.018	1099676	WORD_OFF	n/a	n/a	CAVE	11	2	[0, 0, 0]	n/a	FR1	0	R1310J
1236.781	1.633	1100694	WORD	n/a	wordpools/wordpool_EN.txt	SPEAR	12	2	[0, 0, 0]	n/a	FR1	0	R1310J
1238.414	0.0	1102327	DISTRACT_START	n/a	n/a	n/a	-999	2	[0, 0, 0]	n/a	FR1	0	R1310J
1238.414	0.0	1102327	WORD_OFF	n/a	n/a	SPEAR	12	2	[0, 0, 0]	n/a	FR1	0	R1310J
1238.414	0.001	1102327	ENCODING_END	n/a	n/a	n/a	-999	2	[0, 0, 0]	n/a	FR1	0	R1310J
1238.415	0.016	1102328	START	n/a	n/a	n/a	-999	2	[-999, -999, -999]	n/a	FR1	0	R1310J
1238.431	3.649	1102344	PROB	3.649	n/a	n/a	-999	2	[3, 8, 8]	19	FR1	0	R1310J
1242.08	3.902	1105992	PROB	3.902	n/a	n/a	-999	2	[7, 8, 7]	22	FR1	0	R1310J
1245.982	3.033	1109894	PROB	3.033	n/a	n/a	-999	2	[3, 5, 6]	14	FR1	0	R1310J
1249.015	3.301	1112927	PROB	3.301	n/a	n/a	-999	2	[8, 6, 4]	18	FR1	0	R1310J
1252.316	3.051	1116228	PROB	3.051	n/a	n/a	-999	2	[2, 3, 8]	13	FR1	0	R1310J
1255.367	3.689	1119279	PROB	3.689	n/a	n/a	-999	2	[1, 6, 2]	9	FR1	0	R1310J
1259.056	0.01	1122968	STOP	n/a	n/a	n/a	-999	2	[-999, -999, -999]	n/a	FR1	0	R1310J
1259.066	1.193	1122978	DISTRACT_END	n/a	n/a	n/a	-999	2	[0, 0, 0]	n/a	FR1	0	R1310J
1260.259	1.025	1124171	RETRIEVAL_ORIENT_START	n/a	n/a	n/a	-999	2	[0, 0, 0]	n/a	FR1	0	R1310J
1261.284	0.0	1125196	RETRIEVAL_ORIENT_END	n/a	n/a	n/a	-999	2	[0, 0, 0]	n/a	FR1	0	R1310J
1261.284	0.14	1125196	REC_START	n/a	n/a	n/a	-999	2	[0, 0, 0]	n/a	FR1	0	R1310J
1261.424	1.295	1125336	REC_WORD_VV	1.295	n/a	<>	-999	2	[0, 0, 0]	n/a	FR1	0	R1310J
1262.719	1.985	1126631	REC_WORD	1.985	n/a	CAVE	11	2	[0, 0, 0]	n/a	FR1	0	R1310J
1264.704	27.093	1128615	REC_WORD_VV	27.093	n/a	<>	-999	2	[0, 0, 0]	n/a	FR1	0	R1310J
1291.797	0.0	1155707	WAITING_START	n/a	n/a	n/a	-999	3	[0, 0, 0]	n/a	FR1	0	R1310J
1291.797	0.0	1155707	TRIAL	n/a	n/a	n/a	-999	3	[0, 0, 0]	n/a	FR1	0	R1310J
1291.797	0.0	1155707	TRIAL_END	n/a	n/a	n/a	-999	2	[0, 0, 0]	n/a	FR1	0	R1310J
1291.797	0.0	1155707	REC_END	n/a	n/a	n/a	-999	2	[0, 0, 0]	n/a	FR1	0	R1310J
1291.797	4.677	1155707	TRIAL_START	n/a	n/a	n/a	-999	3	[0, 0, 0]	n/a	FR1	0	R1310J
1296.474	0.0	1160384	WAITING_END	n/a	n/a	n/a	-999	3	[0, 0, 0]	n/a	FR1	0	R1310J
1296.474	0.0	1160384	COUNTDOWN_START	n/a	n/a	n/a	-999	3	[0, 0, 0]	n/a	FR1	0	R1310J
1296.474	0.0	1160384	COUNTDOWN_END	n/a	n/a	n/a	-999	3	[0, 0, 0]	n/a	FR1	0	R1310J
1296.474	11.617	1160384	ORIENT_START	n/a	n/a	n/a	-999	3	[0, 0, 0]	n/a	FR1	0	R1310J
1308.091	0.0	1172001	ORIENT_END	n/a	n/a	n/a	-999	3	[0, 0, 0]	n/a	FR1	0	R1310J
1308.091	1.05	1172001	ENCODING_START	n/a	n/a	n/a	-999	3	[0, 0, 0]	n/a	FR1	0	R1310J
1309.141	1.635	1173051	WORD	n/a	wordpools/wordpool_EN.txt	FORK	1	3	[0, 0, 0]	n/a	FR1	0	R1310J
1310.776	0.772	1174686	WORD_OFF	n/a	n/a	FORK	1	3	[0, 0, 0]	n/a	FR1	0	R1310J
1311.548	1.628	1175458	WORD	n/a	wordpools/wordpool_EN.txt	WHALE	2	3	[0, 0, 0]	n/a	FR1	0	R1310J
1313.176	0.775	1177085	WORD_OFF	n/a	n/a	WHALE	2	3	[0, 0, 0]	n/a	FR1	0	R1310J
1313.951	1.626	1177860	WORD	n/a	wordpools/wordpool_EN.txt	GLOVE	3	3	[0, 0, 0]	n/a	FR1	0	R1310J
1315.577	0.958	1179486	WORD_OFF	n/a	n/a	GLOVE	3	3	[0, 0, 0]	n/a	FR1	0	R1310J
1316.535	1.625	1180444	WORD	n/a	wordpools/wordpool_EN.txt	BOY	4	3	[0, 0, 0]	n/a	FR1	0	R1310J
1318.16	1.066	1182069	WORD_OFF	n/a	n/a	BOY	4	3	[0, 0, 0]	n/a	FR1	0	R1310J
1319.226	1.635	1183135	WORD	n/a	wordpools/wordpool_EN.txt	RAKE	5	3	[0, 0, 0]	n/a	FR1	0	R1310J
1320.861	1.018	1184770	WORD_OFF	n/a	n/a	RAKE	5	3	[0, 0, 0]	n/a	FR1	0	R1310J
1321.879	1.633	1185788	WORD	n/a	wordpools/wordpool_EN.txt	TOOTH	6	3	[0, 0, 0]	n/a	FR1	0	R1310J
1323.512	1.018	1187421	WORD_OFF	n/a	n/a	TOOTH	6	3	[0, 0, 0]	n/a	FR1	0	R1310J
1324.53	1.631	1188439	WORD	n/a	wordpools/wordpool_EN.txt	BRUSH	7	3	[0, 0, 0]	n/a	FR1	0	R1310J
1326.161	0.775	1190070	WORD_OFF	n/a	n/a	BRUSH	7	3	[0, 0, 0]	n/a	FR1	0	R1310J
1326.936	1.627	1190845	WORD	n/a	wordpools/wordpool_EN.txt	TOOL	8	3	[0, 0, 0]	n/a	FR1	0	R1310J
1328.563	1.101	1192472	WORD_OFF	n/a	n/a	TOOL	8	3	[0, 0, 0]	n/a	FR1	0	R1310J
1329.664	1.632	1193573	WORD	n/a	wordpools/wordpool_EN.txt	NAIL	9	3	[0, 0, 0]	n/a	FR1	0	R1310J
1331.296	0.972	1195205	WORD_OFF	n/a	n/a	NAIL	9	3	[0, 0, 0]	n/a	FR1	0	R1310J
1332.268	1.629	1196177	WORD	n/a	wordpools/wordpool_EN.txt	FLAME	10	3	[0, 0, 0]	n/a	FR1	0	R1310J
1333.897	0.994	1197806	WORD_OFF	n/a	n/a	FLAME	10	3	[0, 0, 0]	n/a	FR1	0	R1310J
1334.891	1.623	1198800	WORD	n/a	wordpools/wordpool_EN.txt	SOCK	11	3	[0, 0, 0]	n/a	FR1	0	R1310J
1336.514	0.845	1200423	WORD_OFF	n/a	n/a	SOCK	11	3	[0, 0, 0]	n/a	FR1	0	R1310J
1337.359	1.622	1201267	WORD	n/a	wordpools/wordpool_EN.txt	WEB	12	3	[0, 0, 0]	n/a	FR1	0	R1310J
1338.981	0.0	1202889	ENCODING_END	n/a	n/a	n/a	-999	3	[0, 0, 0]	n/a	FR1	0	R1310J
1338.981	0.0	1202889	DISTRACT_START	n/a	n/a	n/a	-999	3	[0, 0, 0]	n/a	FR1	0	R1310J
1338.981	0.001	1202889	WORD_OFF	n/a	n/a	WEB	12	3	[0, 0, 0]	n/a	FR1	0	R1310J
1338.982	0.016	1202890	START	n/a	n/a	n/a	-999	3	[-999, -999, -999]	n/a	FR1	0	R1310J
1338.998	7.451	1202906	PROB	7.451	n/a	n/a	-999	3	[2, 6, 8]	16	FR1	0	R1310J
1346.449	2.367	1210357	PROB	2.367	n/a	n/a	-999	3	[1, 4, 6]	11	FR1	0	R1310J
1348.816	4.617	1212724	PROB	4.617	n/a	n/a	-999	3	[2, 7, 9]	18	FR1	0	R1310J
1353.433	3.401	1217341	PROB	3.401	n/a	n/a	-999	3	[8, 6, 8]	22	FR1	0	R1310J
1356.834	3.688	1220742	PROB	3.688	n/a	n/a	-999	3	[7, 4, 8]	19	FR1	0	R1310J
1360.522	0.013	1224430	STOP	n/a	n/a	n/a	-999	3	[-999, -999, -999]	n/a	FR1	0	R1310J
1360.535	1.192	1224443	DISTRACT_END	n/a	n/a	n/a	-999	3	[0, 0, 0]	n/a	FR1	0	R1310J
1361.727	1.025	1225634	RETRIEVAL_ORIENT_START	n/a	n/a	n/a	-999	3	[0, 0, 0]	n/a	FR1	0	R1310J
1362.752	0.0	1226659	RETRIEVAL_ORIENT_END	n/a	n/a	n/a	-999	3	[0, 0, 0]	n/a	FR1	0	R1310J
1362.752	0.0	1226659	REC_START	n/a	n/a	n/a	-999	3	[0, 0, 0]	n/a	FR1	0	R1310J
1362.752	1.705	1226659	REC_WORD	1.705	n/a	FORK	1	3	[0, 0, 0]	n/a	FR1	0	R1310J
1364.457	0.64	1228364	REC_WORD	0.64	n/a	WHALE	2	3	[0, 0, 0]	n/a	FR1	0	R1310J
1365.097	2.055	1229004	REC_WORD	2.055	n/a	GLOVE	3	3	[0, 0, 0]	n/a	FR1	0	R1310J
1367.152	5.3	1231059	REC_WORD_VV	5.3	n/a	<>	-999	3	[0, 0, 0]	n/a	FR1	0	R1310J
1372.452	3.414	1236359	REC_WORD	3.414	n/a	RAKE	5	3	[0, 0, 0]	n/a	FR1	0	R1310J
1375.866	0.931	1239773	REC_WORD_VV	0.931	n/a	<>	-999	3	[0, 0, 0]	n/a	FR1	0	R1310J
1376.797	3.67	1240704	REC_WORD	3.67	n/a	BULLY	-999	3	[0, 0, 0]	n/a	FR1	0	R1310J
1380.467	12.798	1244374	REC_WORD_VV	12.798	n/a	<>	-999	3	[0, 0, 0]	n/a	FR1	0	R1310J
1393.265	0.0	1257171	WAITING_START	n/a	n/a	n/a	-999	4	[0, 0, 0]	n/a	FR1	0	R1310J
1393.265	0.0	1257171	TRIAL	n/a	n/a	n/a	-999	4	[0, 0, 0]	n/a	FR1	0	R1310J
1393.265	0.0	1257171	TRIAL_END	n/a	n/a	n/a	-999	3	[0, 0, 0]	n/a	FR1	0	R1310J
1393.265	0.0	1257171	TRIAL_START	n/a	n/a	n/a	-999	4	[0, 0, 0]	n/a	FR1	0	R1310J
1393.265	3.841	1257171	REC_END	n/a	n/a	n/a	-999	3	[0, 0, 0]	n/a	FR1	0	R1310J
1397.106	0.0	1261012	ORIENT_START	n/a	n/a	n/a	-999	4	[0, 0, 0]	n/a	FR1	0	R1310J
1397.106	0.0	1261012	WAITING_END	n/a	n/a	n/a	-999	4	[0, 0, 0]	n/a	FR1	0	R1310J
1397.106	0.0	1261012	COUNTDOWN_START	n/a	n/a	n/a	-999	4	[0, 0, 0]	n/a	FR1	0	R1310J
1397.106	11.67	1261012	COUNTDOWN_END	n/a	n/a	n/a	-999	4	[0, 0, 0]	n/a	FR1	0	R1310J
1408.776	0.0	1272682	ORIENT_END	n/a	n/a	n/a	-999	4	[0, 0, 0]	n/a	FR1	0	R1310J
1408.776	0.927	1272682	ENCODING_START	n/a	n/a	n/a	-999	4	[0, 0, 0]	n/a	FR1	0	R1310J
1409.703	1.624	1273609	WORD	n/a	wordpools/wordpool_EN.txt	BIRD	1	4	[0, 0, 0]	n/a	FR1	0	R1310J
1411.327	0.906	1275232	WORD_OFF	n/a	n/a	BIRD	1	4	[0, 0, 0]	n/a	FR1	0	R1310J
1412.233	1.61	1276138	WORD	n/a	wordpools/wordpool_EN.txt	JEEP	2	4	[0, 0, 0]	n/a	FR1	0	R1310J
1413.843	0.898	1277748	WORD_OFF	n/a	n/a	JEEP	2	4	[0, 0, 0]	n/a	FR1	0	R1310J
1414.741	1.636	1278646	WORD	n/a	wordpools/wordpool_EN.txt	SNAIL	3	4	[0, 0, 0]	n/a	FR1	0	R1310J
1416.377	0.944	1280282	WORD_OFF	n/a	n/a	SNAIL	3	4	[0, 0, 0]	n/a	FR1	0	R1310J
1417.321	1.624	1281226	WORD	n/a	wordpools/wordpool_EN.txt	PRINCE	4	4	[0, 0, 0]	n/a	FR1	0	R1310J
1418.945	0.907	1282850	WORD_OFF	n/a	n/a	PRINCE	4	4	[0, 0, 0]	n/a	FR1	0	R1310J
1419.852	1.626	1283757	WORD	n/a	wordpools/wordpool_EN.txt	WAND	5	4	[0, 0, 0]	n/a	FR1	0	R1310J
1421.478	0.783	1285383	WORD_OFF	n/a	n/a	WAND	5	4	[0, 0, 0]	n/a	FR1	0	R1310J
1422.261	1.634	1286166	WORD	n/a	wordpools/wordpool_EN.txt	DART	6	4	[0, 0, 0]	n/a	FR1	0	R1310J
1423.895	1.102	1287800	WORD_OFF	n/a	n/a	DART	6	4	[0, 0, 0]	n/a	FR1	0	R1310J
1424.997	1.615	1288902	WORD	n/a	wordpools/wordpool_EN.txt	GOAT	7	4	[0, 0, 0]	n/a	FR1	0	R1310J
1426.612	1.036	1290517	WORD_OFF	n/a	n/a	GOAT	7	4	[0, 0, 0]	n/a	FR1	0	R1310J
1427.648	1.632	1291553	WORD	n/a	wordpools/wordpool_EN.txt	LEAF	8	4	[0, 0, 0]	n/a	FR1	0	R1310J
1429.28	1.1	1293185	WORD_OFF	n/a	n/a	LEAF	8	4	[0, 0, 0]	n/a	FR1	0	R1310J
1430.38	1.632	1294285	WORD	n/a	wordpools/wordpool_EN.txt	LIP	9	4	[0, 0, 0]	n/a	FR1	0	R1310J
1432.012	0.87	1295917	WORD_OFF	n/a	n/a	LIP	9	4	[0, 0, 0]	n/a	FR1	0	R1310J
1432.882	1.632	1296787	WORD	n/a	wordpools/wordpool_EN.txt	TOY	10	4	[0, 0, 0]	n/a	FR1	0	R1310J
1434.514	0.898	1298418	WORD_OFF	n/a	n/a	TOY	10	4	[0, 0, 0]	n/a	FR1	0	R1310J
1435.412	1.634	1299316	WORD	n/a	wordpools/wordpool_EN.txt	STAIR	11	4	[0, 0, 0]	n/a	FR1	0	R1310J
1437.046	1.114	1300950	WORD_OFF	n/a	n/a	STAIR	11	4	[0, 0, 0]	n/a	FR1	0	R1310J
1438.16	1.621	1302064	WORD	n/a	wordpools/wordpool_EN.txt	RUG	12	4	[0, 0, 0]	n/a	FR1	0	R1310J
1439.781	0.0	1303685	WORD_OFF	n/a	n/a	RUG	12	4	[0, 0, 0]	n/a	FR1	0	R1310J
1439.781	0.0	1303685	ENCODING_END	n/a	n/a	n/a	-999	4	[0, 0, 0]	n/a	FR1	0	R1310J
1439.781	0.002	1303685	DISTRACT_START	n/a	n/a	n/a	-999	4	[0, 0, 0]	n/a	FR1	0	R1310J
1439.783	0.015	1303687	START	n/a	n/a	n/a	-999	4	[-999, -999, -999]	n/a	FR1	0	R1310J
1439.798	3.951	1303702	PROB	3.951	n/a	n/a	-999	4	[3, 7, 5]	15	FR1	0	R1310J
1443.749	13.268	1307653	PROB	13.268	n/a	n/a	-999	4	[9, 3, 5]	17	FR1	0	R1310J
1457.017	3.111	1320921	PROB	3.111	n/a	n/a	-999	4	[2, 4, 5]	11	FR1	0	R1310J
1460.128	0.022	1324031	STOP	n/a	n/a	n/a	-999	4	[-999, -999, -999]	n/a	FR1	0	R1310J
1460.15	1.273	1324053	DISTRACT_END	n/a	n/a	n/a	-999	4	[0, 0, 0]	n/a	FR1	0	R1310J
1461.423	1.029	1325326	RETRIEVAL_ORIENT_START	n/a	n/a	n/a	-999	4	[0, 0, 0]	n/a	FR1	0	R1310J
1462.452	0.0	1326355	REC_START	n/a	n/a	n/a	-999	4	[0, 0, 0]	n/a	FR1	0	R1310J
1462.452	0.1	1326355	RETRIEVAL_ORIENT_END	n/a	n/a	n/a	-999	4	[0, 0, 0]	n/a	FR1	0	R1310J
1462.552	0.469	1326455	REC_WORD_VV	0.469	n/a	<>	-999	4	[0, 0, 0]	n/a	FR1	0	R1310J
1463.021	0.516	1326924	REC_WORD	0.516	n/a	BIRD	1	4	[0, 0, 0]	n/a	FR1	0	R1310J
1463.537	0.535	1327440	REC_WORD	0.535	n/a	JEEP	2	4	[0, 0, 0]	n/a	FR1	0	R1310J
1464.072	1.43	1327975	REC_WORD	1.43	n/a	SNAIL	3	4	[0, 0, 0]	n/a	FR1	0	R1310J
1465.502	0.84	1329405	REC_WORD	0.84	n/a	WAND	5	4	[0, 0, 0]	n/a	FR1	0	R1310J
1466.342	4.196	1330245	REC_WORD	4.196	n/a	PRINCE	4	4	[0, 0, 0]	n/a	FR1	0	R1310J
1470.538	22.425	1334441	REC_WORD_VV	22.425	n/a	<>	-999	4	[0, 0, 0]	n/a	FR1	0	R1310J
1492.963	0.0	1356865	REC_END	n/a	n/a	n/a	-999	4	[0, 0, 0]	n/a	FR1	0	R1310J
1492.963	0.0	1356865	TRIAL_END	n/a	n/a	n/a	-999	4	[0, 0, 0]	n/a	FR1	0	R1310J
1492.963	0.0	1356865	TRIAL_START	n/a	n/a	n/a	-999	5	[0, 0, 0]	n/a	FR1	0	R1310J
1492.963	0.0	1356865	TRIAL	n/a	n/a	n/a	-999	5	[0, 0, 0]	n/a	FR1	0	R1310J
1492.963	2.378	1356865	WAITING_START	n/a	n/a	n/a	-999	5	[0, 0, 0]	n/a	FR1	0	R1310J
1495.341	0.0	1359243	WAITING_END	n/a	n/a	n/a	-999	5	[0, 0, 0]	n/a	FR1	0	R1310J
1495.341	0.0	1359243	COUNTDOWN_START	n/a	n/a	n/a	-999	5	[0, 0, 0]	n/a	FR1	0	R1310J
1495.341	0.0	1359243	COUNTDOWN_END	n/a	n/a	n/a	-999	5	[0, 0, 0]	n/a	FR1	0	R1310J
1495.341	11.602	1359243	ORIENT_START	n/a	n/a	n/a	-999	5	[0, 0, 0]	n/a	FR1	0	R1310J
1506.943	0.0	1370844	ORIENT_END	n/a	n/a	n/a	-999	5	[0, 0, 0]	n/a	FR1	0	R1310J
1506.943	0.911	1370844	ENCODING_START	n/a	n/a	n/a	-999	5	[0, 0, 0]	n/a	FR1	0	R1310J
1507.854	1.622	1371755	WORD	n/a	wordpools/wordpool_EN.txt	STEAM	1	5	[0, 0, 0]	n/a	FR1	0	R1310J
1509.476	1.071	1373377	WORD_OFF	n/a	n/a	STEAM	1	5	[0, 0, 0]	n/a	FR1	0	R1310J
1510.547	1.629	1374448	WORD	n/a	wordpools/wordpool_EN.txt	DRUM	2	5	[0, 0, 0]	n/a	FR1	0	R1310J
1512.176	1.055	1376077	WORD_OFF	n/a	n/a	DRUM	2	5	[0, 0, 0]	n/a	FR1	0	R1310J
1513.231	1.63	1377132	WORD	n/a	wordpools/wordpool_EN.txt	MAT	3	5	[0, 0, 0]	n/a	FR1	0	R1310J
1514.861	1.142	1378762	WORD_OFF	n/a	n/a	MAT	3	5	[0, 0, 0]	n/a	FR1	0	R1310J
1516.003	1.608	1379904	WORD	n/a	wordpools/wordpool_EN.txt	BEE	4	5	[0, 0, 0]	n/a	FR1	0	R1310J
1517.611	0.759	1381512	WORD_OFF	n/a	n/a	BEE	4	5	[0, 0, 0]	n/a	FR1	0	R1310J
1518.37	1.625	1382271	WORD	n/a	wordpools/wordpool_EN.txt	PLATE	5	5	[0, 0, 0]	n/a	FR1	0	R1310J
1519.995	0.818	1383896	WORD_OFF	n/a	n/a	PLATE	5	5	[0, 0, 0]	n/a	FR1	0	R1310J
1520.813	1.632	1384714	WORD	n/a	wordpools/wordpool_EN.txt	BOX	6	5	[0, 0, 0]	n/a	FR1	0	R1310J
1522.445	0.834	1386346	WORD_OFF	n/a	n/a	BOX	6	5	[0, 0, 0]	n/a	FR1	0	R1310J
1523.279	1.633	1387180	WORD	n/a	wordpools/wordpool_EN.txt	DRESS	7	5	[0, 0, 0]	n/a	FR1	0	R1310J
1524.912	1.08	1388813	WORD_OFF	n/a	n/a	DRESS	7	5	[0, 0, 0]	n/a	FR1	0	R1310J
1525.992	1.638	1389893	WORD	n/a	wordpools/wordpool_EN.txt	VINE	8	5	[0, 0, 0]	n/a	FR1	0	R1310J
1527.63	0.779	1391531	WORD_OFF	n/a	n/a	VINE	8	5	[0, 0, 0]	n/a	FR1	0	R1310J
1528.409	1.637	1392310	WORD	n/a	wordpools/wordpool_EN.txt	WOOD	9	5	[0, 0, 0]	n/a	FR1	0	R1310J
1530.046	0.778	1393947	WORD_OFF	n/a	n/a	WOOD	9	5	[0, 0, 0]	n/a	FR1	0	R1310J
1530.824	1.623	1394724	WORD	n/a	wordpools/wordpool_EN.txt	RIB	10	5	[0, 0, 0]	n/a	FR1	0	R1310J
1532.447	0.853	1396347	WORD_OFF	n/a	n/a	RIB	10	5	[0, 0, 0]	n/a	FR1	0	R1310J
1533.3	1.631	1397200	WORD	n/a	wordpools/wordpool_EN.txt	SHIP	11	5	[0, 0, 0]	n/a	FR1	0	R1310J
1534.931	0.981	1398831	WORD_OFF	n/a	n/a	SHIP	11	5	[0, 0, 0]	n/a	FR1	0	R1310J
1535.912	1.636	1399812	WORD	n/a	wordpools/wordpool_EN.txt	SEAT	12	5	[0, 0, 0]	n/a	FR1	0	R1310J
1537.548	0.0	1401448	WORD_OFF	n/a	n/a	SEAT	12	5	[0, 0, 0]	n/a	FR1	0	R1310J
1537.548	0.0	1401448	ENCODING_END	n/a	n/a	n/a	-999	5	[0, 0, 0]	n/a	FR1	0	R1310J
1537.548	0.001	1401448	DISTRACT_START	n/a	n/a	n/a	-999	5	[0, 0, 0]	n/a	FR1	0	R1310J
1537.549	0.015	1401449	START	n/a	n/a	n/a	-999	5	[-999, -999, -999]	n/a	FR1	0	R1310J
1537.564	2.901	1401464	PROB	2.901	n/a	n/a	-999	5	[1, 2, 8]	11	FR1	0	R1310J
1540.465	5.851	1404365	PROB	5.851	n/a	n/a	-999	5	[9, 2, 3]	14	FR1	0	R1310J
1546.316	3.151	1410216	PROB	3.151	n/a	n/a	-999	5	[9, 8, 3]	20	FR1	0	R1310J
1549.467	3.3	1413367	PROB	3.3	n/a	n/a	-999	5	[6, 8, 7]	21	FR1	0	R1310J
1552.767	3.283	1416667	PROB	3.283	n/a	n/a	-999	5	[3, 4, 3]	10	FR1	0	R1310J
1556.05	3.276	1419949	PROB	3.276	n/a	n/a	-999	5	[4, 8, 8]	20	FR1	0	R1310J
1559.326	0.009	1423225	STOP	n/a	n/a	n/a	-999	5	[-999, -999, -999]	n/a	FR1	0	R1310J
1559.335	1.175	1423234	DISTRACT_END	n/a	n/a	n/a	-999	5	[0, 0, 0]	n/a	FR1	0	R1310J
1560.51	1.025	1424409	RETRIEVAL_ORIENT_START	n/a	n/a	n/a	-999	5	[0, 0, 0]	n/a	FR1	0	R1310J
1561.535	0.0	1425434	RETRIEVAL_ORIENT_END	n/a	n/a	n/a	-999	5	[0, 0, 0]	n/a	FR1	0	R1310J
1561.535	0.0	1425434	REC_START	n/a	n/a	n/a	-999	5	[0, 0, 0]	n/a	FR1	0	R1310J
1561.535	2.48	1425434	REC_WORD	2.48	n/a	STEAM	1	5	[0, 0, 0]	n/a	FR1	0	R1310J
1564.015	1.229	1427914	REC_WORD_VV	1.229	n/a	<>	-999	5	[0, 0, 0]	n/a	FR1	0	R1310J
1565.244	0.905	1429143	REC_WORD	0.905	n/a	DRUM	2	5	[0, 0, 0]	n/a	FR1	0	R1310J
1566.149	1.986	1430048	REC_WORD	1.986	n/a	MAT	3	5	[0, 0, 0]	n/a	FR1	0	R1310J
1568.135	2.6	1432034	REC_WORD_VV	2.6	n/a	<>	-999	5	[0, 0, 0]	n/a	FR1	0	R1310J
1570.735	21.312	1434634	REC_WORD	21.312	n/a	SEAT	12	5	[0, 0, 0]	n/a	FR1	0	R1310J
1592.047	0.0	1455945	WAITING_START	n/a	n/a	n/a	-999	6	[0, 0, 0]	n/a	FR1	0	R1310J
1592.047	0.0	1455945	TRIAL	n/a	n/a	n/a	-999	6	[0, 0, 0]	n/a	FR1	0	R1310J
1592.047	0.0	1455945	TRIAL_END	n/a	n/a	n/a	-999	5	[0, 0, 0]	n/a	FR1	0	R1310J
1592.047	0.0	1455945	TRIAL_START	n/a	n/a	n/a	-999	6	[0, 0, 0]	n/a	FR1	0	R1310J
1592.047	1.927	1455945	REC_END	n/a	n/a	n/a	-999	5	[0, 0, 0]	n/a	FR1	0	R1310J
1593.974	0.0	1457872	WAITING_END	n/a	n/a	n/a	-999	6	[0, 0, 0]	n/a	FR1	0	R1310J
1593.974	0.0	1457872	COUNTDOWN_START	n/a	n/a	n/a	-999	6	[0, 0, 0]	n/a	FR1	0	R1310J
1593.974	0.0	1457872	COUNTDOWN_END	n/a	n/a	n/a	-999	6	[0, 0, 0]	n/a	FR1	0	R1310J
1593.974	11.652	1457872	ORIENT_START	n/a	n/a	n/a	-999	6	[0, 0, 0]	n/a	FR1	0	R1310J
1605.626	0.0	1469523	ORIENT_END	n/a	n/a	n/a	-999	6	[0, 0, 0]	n/a	FR1	0	R1310J
1605.626	0.894	1469523	ENCODING_START	n/a	n/a	n/a	-999	6	[0, 0, 0]	n/a	FR1	0	R1310J
1606.52	1.622	1470417	WORD	n/a	wordpools/wordpool_EN.txt	CORN	1	6	[0, 0, 0]	n/a	FR1	0	R1310J
1608.142	0.751	1472039	WORD_OFF	n/a	n/a	CORN	1	6	[0, 0, 0]	n/a	FR1	0	R1310J
1608.893	1.634	1472790	WORD	n/a	wordpools/wordpool_EN.txt	SOUP	2	6	[0, 0, 0]	n/a	FR1	0	R1310J
1610.527	0.819	1474424	WORD_OFF	n/a	n/a	SOUP	2	6	[0, 0, 0]	n/a	FR1	0	R1310J
1611.346	1.631	1475243	WORD	n/a	wordpools/wordpool_EN.txt	FAN	3	6	[0, 0, 0]	n/a	FR1	0	R1310J
1612.977	0.909	1476874	WORD_OFF	n/a	n/a	FAN	3	6	[0, 0, 0]	n/a	FR1	0	R1310J
1613.886	1.625	1477783	WORD	n/a	wordpools/wordpool_EN.txt	BROOM	4	6	[0, 0, 0]	n/a	FR1	0	R1310J
1615.511	1.026	1479408	WORD_OFF	n/a	n/a	BROOM	4	6	[0, 0, 0]	n/a	FR1	0	R1310J
1616.537	1.624	1480434	WORD	n/a	wordpools/wordpool_EN.txt	BOMB	5	6	[0, 0, 0]	n/a	FR1	0	R1310J
1618.161	0.957	1482058	WORD_OFF	n/a	n/a	BOMB	5	6	[0, 0, 0]	n/a	FR1	0	R1310J
1619.118	1.627	1483015	WORD	n/a	wordpools/wordpool_EN.txt	CHALK	6	6	[0, 0, 0]	n/a	FR1	0	R1310J
1620.745	1.078	1484642	WORD_OFF	n/a	n/a	CHALK	6	6	[0, 0, 0]	n/a	FR1	0	R1310J
1621.823	1.623	1485720	WORD	n/a	wordpools/wordpool_EN.txt	MAP	7	6	[0, 0, 0]	n/a	FR1	0	R1310J
1623.446	1.002	1487343	WORD_OFF	n/a	n/a	MAP	7	6	[0, 0, 0]	n/a	FR1	0	R1310J
1624.448	1.63	1488345	WORD	n/a	wordpools/wordpool_EN.txt	MAIL	8	6	[0, 0, 0]	n/a	FR1	0	R1310J
1626.078	0.836	1489975	WORD_OFF	n/a	n/a	MAIL	8	6	[0, 0, 0]	n/a	FR1	0	R1310J
1626.914	1.633	1490811	WORD	n/a	wordpools/wordpool_EN.txt	PARK	9	6	[0, 0, 0]	n/a	FR1	0	R1310J
1628.547	0.789	1492443	WORD_OFF	n/a	n/a	PARK	9	6	[0, 0, 0]	n/a	FR1	0	R1310J
1629.336	1.628	1493232	WORD	n/a	wordpools/wordpool_EN.txt	FOG	10	6	[0, 0, 0]	n/a	FR1	0	R1310J
1630.964	1.053	1494860	WORD_OFF	n/a	n/a	FOG	10	6	[0, 0, 0]	n/a	FR1	0	R1310J
1632.017	1.63	1495913	WORD	n/a	wordpools/wordpool_EN.txt	CLOTH	11	6	[0, 0, 0]	n/a	FR1	0	R1310J
1633.647	0.988	1497543	WORD_OFF	n/a	n/a	CLOTH	11	6	[0, 0, 0]	n/a	FR1	0	R1310J
1634.635	1.63	1498531	WORD	n/a	wordpools/wordpool_EN.txt	MULE	12	6	[0, 0, 0]	n/a	FR1	0	R1310J
1636.265	0.0	1500161	WORD_OFF	n/a	n/a	MULE	12	6	[0, 0, 0]	n/a	FR1	0	R1310J
1636.265	0.0	1500161	ENCODING_END	n/a	n/a	n/a	-999	6	[0, 0, 0]	n/a	FR1	0	R1310J
1636.265	0.001	1500161	DISTRACT_START	n/a	n/a	n/a	-999	6	[0, 0, 0]	n/a	FR1	0	R1310J
1636.266	0.015	1500162	START	n/a	n/a	n/a	-999	6	[-999, -999, -999]	n/a	FR1	0	R1310J
1636.281	2.9	1500177	PROB	2.9	n/a	n/a	-999	6	[5, 2, 2]	9	FR1	0	R1310J
1639.181	4.501	1503077	PROB	4.501	n/a	n/a	-999	6	[7, 2, 8]	17	FR1	0	R1310J
1643.682	4.751	1507578	PROB	4.751	n/a	n/a	-999	6	[9, 9, 7]	25	FR1	0	R1310J
1648.433	4.001	1512329	PROB	4.001	n/a	n/a	-999	6	[2, 4, 4]	10	FR1	0	R1310J
1652.434	3.583	1516329	PROB	3.583	n/a	n/a	-999	6	[4, 1, 4]	9	FR1	0	R1310J
1656.017	3.969	1519912	PROB	3.969	n/a	n/a	-999	6	[2, 7, 9]	18	FR1	0	R1310J
1659.986	0.015	1523881	STOP	n/a	n/a	n/a	-999	6	[-999, -999, -999]	n/a	FR1	0	R1310J
1660.001	1.183	1523896	DISTRACT_END	n/a	n/a	n/a	-999	6	[0, 0, 0]	n/a	FR1	0	R1310J
1661.184	1.034	1525079	RETRIEVAL_ORIENT_START	n/a	n/a	n/a	-999	6	[0, 0, 0]	n/a	FR1	0	R1310J
1662.218	0.0	1526113	RETRIEVAL_ORIENT_END	n/a	n/a	n/a	-999	6	[0, 0, 0]	n/a	FR1	0	R1310J
1662.218	0.425	1526113	REC_START	n/a	n/a	n/a	-999	6	[0, 0, 0]	n/a	FR1	0	R1310J
1662.643	0.72	1526538	REC_WORD_VV	0.72	n/a	<>	-999	6	[0, 0, 0]	n/a	FR1	0	R1310J
1663.363	0.5	1527258	REC_WORD	0.5	n/a	CORN	1	6	[0, 0, 0]	n/a	FR1	0	R1310J
1663.863	1.09	1527758	REC_WORD	1.09	n/a	SOUP	2	6	[0, 0, 0]	n/a	FR1	0	R1310J
1664.953	0.61	1528848	REC_WORD	0.61	n/a	BOMB	5	6	[0, 0, 0]	n/a	FR1	0	R1310J
1665.563	3.085	1529458	REC_WORD	3.085	n/a	MAIL	8	6	[0, 0, 0]	n/a	FR1	0	R1310J
1668.648	1.0	1532543	REC_WORD_VV	1.0	n/a	<>	-999	6	[0, 0, 0]	n/a	FR1	0	R1310J
1669.648	4.145	1533543	REC_WORD_VV	4.145	n/a	<>	-999	6	[0, 0, 0]	n/a	FR1	0	R1310J
1673.793	18.936	1537688	REC_WORD_VV	18.936	n/a	<>	-999	6	[0, 0, 0]	n/a	FR1	0	R1310J
1692.729	0.0	1556623	REC_END	n/a	n/a	n/a	-999	6	[0, 0, 0]	n/a	FR1	0	R1310J
1692.729	0.0	1556623	TRIAL_END	n/a	n/a	n/a	-999	6	[0, 0, 0]	n/a	FR1	0	R1310J
1692.729	0.0	1556623	TRIAL_START	n/a	n/a	n/a	-999	7	[0, 0, 0]	n/a	FR1	0	R1310J
1692.729	0.0	1556623	TRIAL	n/a	n/a	n/a	-999	7	[0, 0, 0]	n/a	FR1	0	R1310J
1692.729	1.595	1556623	WAITING_START	n/a	n/a	n/a	-999	7	[0, 0, 0]	n/a	FR1	0	R1310J
1694.324	0.0	1558218	COUNTDOWN_START	n/a	n/a	n/a	-999	7	[0, 0, 0]	n/a	FR1	0	R1310J
1694.324	0.0	1558218	COUNTDOWN_END	n/a	n/a	n/a	-999	7	[0, 0, 0]	n/a	FR1	0	R1310J
1694.324	0.0	1558218	ORIENT_START	n/a	n/a	n/a	-999	7	[0, 0, 0]	n/a	FR1	0	R1310J
1694.324	11.452	1558218	WAITING_END	n/a	n/a	n/a	-999	7	[0, 0, 0]	n/a	FR1	0	R1310J
1705.776	0.0	1569669	ORIENT_END	n/a	n/a	n/a	-999	7	[0, 0, 0]	n/a	FR1	0	R1310J
1705.776	1.116	1569669	ENCODING_START	n/a	n/a	n/a	-999	7	[0, 0, 0]	n/a	FR1	0	R1310J
1706.892	1.635	1570785	WORD	n/a	wordpools/wordpool_EN.txt	BARN	1	7	[0, 0, 0]	n/a	FR1	0	R1310J
1708.527	1.05	1572420	WORD_OFF	n/a	n/a	BARN	1	7	[0, 0, 0]	n/a	FR1	0	R1310J
1709.577	1.633	1573470	WORD	n/a	wordpools/wordpool_EN.txt	ROOT	2	7	[0, 0, 0]	n/a	FR1	0	R1310J
1711.21	0.819	1575103	WORD_OFF	n/a	n/a	ROOT	2	7	[0, 0, 0]	n/a	FR1	0	R1310J
1712.029	1.615	1575922	WORD	n/a	wordpools/wordpool_EN.txt	JUICE	3	7	[0, 0, 0]	n/a	FR1	0	R1310J
1713.644	0.763	1577537	WORD_OFF	n/a	n/a	JUICE	3	7	[0, 0, 0]	n/a	FR1	0	R1310J
1714.407	1.637	1578300	WORD	n/a	wordpools/wordpool_EN.txt	BENCH	4	7	[0, 0, 0]	n/a	FR1	0	R1310J
1716.044	0.845	1579937	WORD_OFF	n/a	n/a	BENCH	4	7	[0, 0, 0]	n/a	FR1	0	R1310J
1716.889	1.623	1580782	WORD	n/a	wordpools/wordpool_EN.txt	BRICK	5	7	[0, 0, 0]	n/a	FR1	0	R1310J
1718.512	0.891	1582405	WORD_OFF	n/a	n/a	BRICK	5	7	[0, 0, 0]	n/a	FR1	0	R1310J
1719.403	1.625	1583296	WORD	n/a	wordpools/wordpool_EN.txt	ARM	6	7	[0, 0, 0]	n/a	FR1	0	R1310J
1721.028	0.975	1584921	WORD_OFF	n/a	n/a	ARM	6	7	[0, 0, 0]	n/a	FR1	0	R1310J
1722.003	1.61	1585896	WORD	n/a	wordpools/wordpool_EN.txt	THUMB	7	7	[0, 0, 0]	n/a	FR1	0	R1310J
1723.613	0.785	1587506	WORD_OFF	n/a	n/a	THUMB	7	7	[0, 0, 0]	n/a	FR1	0	R1310J
1724.398	1.631	1588291	WORD	n/a	wordpools/wordpool_EN.txt	CHEEK	8	7	[0, 0, 0]	n/a	FR1	0	R1310J
1726.029	1.112	1589921	WORD_OFF	n/a	n/a	CHEEK	8	7	[0, 0, 0]	n/a	FR1	0	R1310J
1727.141	1.622	1591033	WORD	n/a	wordpools/wordpool_EN.txt	PLANT	9	7	[0, 0, 0]	n/a	FR1	0	R1310J
1728.763	1.041	1592655	WORD_OFF	n/a	n/a	PLANT	9	7	[0, 0, 0]	n/a	FR1	0	R1310J
1729.804	1.627	1593696	WORD	n/a	wordpools/wordpool_EN.txt	BOARD	10	7	[0, 0, 0]	n/a	FR1	0	R1310J
1731.431	1.149	1595323	WORD_OFF	n/a	n/a	BOARD	10	7	[0, 0, 0]	n/a	FR1	0	R1310J
1732.58	1.633	1596472	WORD	n/a	wordpools/wordpool_EN.txt	PET	11	7	[0, 0, 0]	n/a	FR1	0	R1310J
1734.213	0.955	1598105	WORD_OFF	n/a	n/a	PET	11	7	[0, 0, 0]	n/a	FR1	0	R1310J
1735.168	1.613	1599060	WORD	n/a	wordpools/wordpool_EN.txt	ICE	12	7	[0, 0, 0]	n/a	FR1	0	R1310J
1736.781	0.0	1600673	ENCODING_END	n/a	n/a	n/a	-999	7	[0, 0, 0]	n/a	FR1	0	R1310J
1736.781	0.0	1600673	WORD_OFF	n/a	n/a	ICE	12	7	[0, 0, 0]	n/a	FR1	0	R1310J
1736.781	0.001	1600673	DISTRACT_START	n/a	n/a	n/a	-999	7	[0, 0, 0]	n/a	FR1	0	R1310J
1736.782	0.016	1600674	START	n/a	n/a	n/a	-999	7	[-999, -999, -999]	n/a	FR1	0	R1310J
1736.798	3.568	1600690	PROB	3.568	n/a	n/a	-999	7	[6, 2, 5]	13	FR1	0	R1310J
1740.366	2.55	1604258	PROB	2.55	n/a	n/a	-999	7	[6, 4, 4]	14	FR1	0	R1310J
1742.916	3.166	1606808	PROB	3.166	n/a	n/a	-999	7	[3, 3, 1]	7	FR1	0	R1310J
1746.082	2.785	1609974	PROB	2.785	n/a	n/a	-999	7	[3, 8, 3]	14	FR1	0	R1310J
1748.867	2.75	1612758	PROB	2.75	n/a	n/a	-999	7	[1, 5, 4]	10	FR1	0	R1310J
1751.617	3.218	1615508	PROB	3.218	n/a	n/a	-999	7	[4, 7, 3]	14	FR1	0	R1310J
1754.835	3.233	1618726	PROB	3.233	n/a	n/a	-999	7	[4, 3, 1]	8	FR1	0	R1310J
1758.068	0.016	1621959	STOP	n/a	n/a	n/a	-999	7	[-999, -999, -999]	n/a	FR1	0	R1310J
1758.084	1.028	1621975	DISTRACT_END	n/a	n/a	n/a	-999	7	[0, 0, 0]	n/a	FR1	0	R1310J
1759.112	1.023	1623003	RETRIEVAL_ORIENT_START	n/a	n/a	n/a	-999	7	[0, 0, 0]	n/a	FR1	0	R1310J
1760.135	0.0	1624026	RETRIEVAL_ORIENT_END	n/a	n/a	n/a	-999	7	[0, 0, 0]	n/a	FR1	0	R1310J
1760.135	0.0	1624026	REC_START	n/a	n/a	n/a	-999	7	[0, 0, 0]	n/a	FR1	0	R1310J
1760.135	2.235	1624026	REC_WORD	2.235	n/a	PROM	-999	7	[0, 0, 0]	n/a	FR1	0	R1310J
1762.37	4.295	1626261	REC_WORD	4.295	n/a	JUICE	3	7	[0, 0, 0]	n/a	FR1	0	R1310J
1766.665	4.03	1630556	REC_WORD_VV	4.03	n/a	<>	-999	7	[0, 0, 0]	n/a	FR1	0	R1310J
1770.695	0.865	1634586	REC_WORD	0.865	n/a	ROOT	2	7	[0, 0, 0]	n/a	FR1	0	R1310J
1771.56	3.775	1635451	REC_WORD	3.775	n/a	PLANT	9	7	[0, 0, 0]	n/a	FR1	0	R1310J
1775.335	0.36	1639225	REC_WORD_VV	0.36	n/a	<>	-999	7	[0, 0, 0]	n/a	FR1	0	R1310J
1775.695	4.81	1639585	REC_WORD	4.81	n/a	ARM	6	7	[0, 0, 0]	n/a	FR1	0	R1310J
1780.505	10.142	1644395	REC_WORD	10.142	n/a	THUMB	7	7	[0, 0, 0]	n/a	FR1	0	R1310J
1790.647	0.0	1654537	TRIAL	n/a	n/a	n/a	-999	8	[0, 0, 0]	n/a	FR1	0	R1310J
1790.647	0.0	1654537	WAITING_START	n/a	n/a	n/a	-999	8	[0, 0, 0]	n/a	FR1	0	R1310J
1790.647	0.0	1654537	TRIAL_START	n/a	n/a	n/a	-999	8	[0, 0, 0]	n/a	FR1	0	R1310J
1790.647	0.0	1654537	REC_END	n/a	n/a	n/a	-999	7	[0, 0, 0]	n/a	FR1	0	R1310J
1790.647	2.41	1654537	TRIAL_END	n/a	n/a	n/a	-999	7	[0, 0, 0]	n/a	FR1	0	R1310J
1793.057	0.0	1656947	COUNTDOWN_START	n/a	n/a	n/a	-999	8	[0, 0, 0]	n/a	FR1	0	R1310J
1793.057	0.0	1656947	ORIENT_START	n/a	n/a	n/a	-999	8	[0, 0, 0]	n/a	FR1	0	R1310J
1793.057	0.0	1656947	WAITING_END	n/a	n/a	n/a	-999	8	[0, 0, 0]	n/a	FR1	0	R1310J
1793.057	11.503	1656947	COUNTDOWN_END	n/a	n/a	n/a	-999	8	[0, 0, 0]	n/a	FR1	0	R1310J
1804.56	0.0	1668449	ORIENT_END	n/a	n/a	n/a	-999	8	[0, 0, 0]	n/a	FR1	0	R1310J
1804.56	1.098	1668449	ENCODING_START	n/a	n/a	n/a	-999	8	[0, 0, 0]	n/a	FR1	0	R1310J
1805.658	1.636	1669547	WORD	n/a	wordpools/wordpool_EN.txt	STOVE	1	8	[0, 0, 0]	n/a	FR1	0	R1310J
1807.294	0.953	1671183	WORD_OFF	n/a	n/a	STOVE	1	8	[0, 0, 0]	n/a	FR1	0	R1310J
1808.247	1.63	1672136	WORD	n/a	wordpools/wordpool_EN.txt	BOAT	2	8	[0, 0, 0]	n/a	FR1	0	R1310J
1809.877	1.105	1673766	WORD_OFF	n/a	n/a	BOAT	2	8	[0, 0, 0]	n/a	FR1	0	R1310J
1810.982	1.629	1674871	WORD	n/a	wordpools/wordpool_EN.txt	ROOM	3	8	[0, 0, 0]	n/a	FR1	0	R1310J
1812.611	1.107	1676500	WORD_OFF	n/a	n/a	ROOM	3	8	[0, 0, 0]	n/a	FR1	0	R1310J
1813.718	1.627	1677607	WORD	n/a	wordpools/wordpool_EN.txt	SUN	4	8	[0, 0, 0]	n/a	FR1	0	R1310J
1815.345	1.131	1679234	WORD_OFF	n/a	n/a	SUN	4	8	[0, 0, 0]	n/a	FR1	0	R1310J
1816.476	1.635	1680365	WORD	n/a	wordpools/wordpool_EN.txt	ANT	5	8	[0, 0, 0]	n/a	FR1	0	R1310J
1818.111	1.016	1682000	WORD_OFF	n/a	n/a	ANT	5	8	[0, 0, 0]	n/a	FR1	0	R1310J
1819.127	1.635	1683016	WORD	n/a	wordpools/wordpool_EN.txt	SWAMP	6	8	[0, 0, 0]	n/a	FR1	0	R1310J
1820.762	0.914	1684651	WORD_OFF	n/a	n/a	SWAMP	6	8	[0, 0, 0]	n/a	FR1	0	R1310J
1821.676	1.637	1685564	WORD	n/a	wordpools/wordpool_EN.txt	CROWN	7	8	[0, 0, 0]	n/a	FR1	0	R1310J
1823.313	0.909	1687201	WORD_OFF	n/a	n/a	CROWN	7	8	[0, 0, 0]	n/a	FR1	0	R1310J
1824.222	1.625	1688110	WORD	n/a	wordpools/wordpool_EN.txt	SLUSH	8	8	[0, 0, 0]	n/a	FR1	0	R1310J
1825.847	0.814	1689735	WORD_OFF	n/a	n/a	SLUSH	8	8	[0, 0, 0]	n/a	FR1	0	R1310J
1826.661	1.636	1690549	WORD	n/a	wordpools/wordpool_EN.txt	TOAST	9	8	[0, 0, 0]	n/a	FR1	0	R1310J
1828.297	0.933	1692185	WORD_OFF	n/a	n/a	TOAST	9	8	[0, 0, 0]	n/a	FR1	0	R1310J
1829.23	1.618	1693118	WORD	n/a	wordpools/wordpool_EN.txt	BAG	10	8	[0, 0, 0]	n/a	FR1	0	R1310J
1830.848	0.806	1694736	WORD_OFF	n/a	n/a	BAG	10	8	[0, 0, 0]	n/a	FR1	0	R1310J
1831.654	1.627	1695542	WORD	n/a	wordpools/wordpool_EN.txt	MOUTH	11	8	[0, 0, 0]	n/a	FR1	0	R1310J
1833.281	1.039	1697169	WORD_OFF	n/a	n/a	MOUTH	11	8	[0, 0, 0]	n/a	FR1	0	R1310J
1834.32	1.628	1698208	WORD	n/a	wordpools/wordpool_EN.txt	MUD	12	8	[0, 0, 0]	n/a	FR1	0	R1310J
1835.948	0.0	1699836	WORD_OFF	n/a	n/a	MUD	12	8	[0, 0, 0]	n/a	FR1	0	R1310J
1835.948	0.0	1699836	ENCODING_END	n/a	n/a	n/a	-999	8	[0, 0, 0]	n/a	FR1	0	R1310J
1835.948	0.002	1699836	DISTRACT_START	n/a	n/a	n/a	-999	8	[0, 0, 0]	n/a	FR1	0	R1310J
1835.95	0.015	1699838	START	n/a	n/a	n/a	-999	8	[-999, -999, -999]	n/a	FR1	0	R1310J
1835.965	3.617	1699853	PROB	3.617	n/a	n/a	-999	8	[6, 5, 6]	17	FR1	0	R1310J
1839.582	4.934	1703470	PROB	4.934	n/a	n/a	-999	8	[9, 9, 5]	23	FR1	0	R1310J
1844.516	3.384	1708404	PROB	3.384	n/a	n/a	-999	8	[7, 4, 5]	16	FR1	0	R1310J
1847.9	4.117	1711787	PROB	4.117	n/a	n/a	-999	8	[2, 6, 7]	15	FR1	0	R1310J
1852.017	4.528	1715904	PROB	4.528	n/a	n/a	-999	8	[6, 3, 2]	11	FR1	0	R1310J
1856.545	0.006	1720432	STOP	n/a	n/a	n/a	-999	8	[-999, -999, -999]	n/a	FR1	0	R1310J
1856.551	1.201	1720438	DISTRACT_END	n/a	n/a	n/a	-999	8	[0, 0, 0]	n/a	FR1	0	R1310J
1857.752	1.033	1721639	RETRIEVAL_ORIENT_START	n/a	n/a	n/a	-999	8	[0, 0, 0]	n/a	FR1	0	R1310J
1858.785	0.0	1722672	REC_WORD_VV	0.0	n/a	<>	-999	8	[0, 0, 0]	n/a	FR1	0	R1310J
1858.785	0.0	1722672	REC_START	n/a	n/a	n/a	-999	8	[0, 0, 0]	n/a	FR1	0	R1310J
1858.785	1.0	1722672	RETRIEVAL_ORIENT_END	n/a	n/a	n/a	-999	8	[0, 0, 0]	n/a	FR1	0	R1310J
1859.785	3.335	1723672	REC_WORD_VV	3.335	n/a	<>	-999	8	[0, 0, 0]	n/a	FR1	0	R1310J
1863.12	6.49	1727007	REC_WORD	6.49	n/a	MUD	12	8	[0, 0, 0]	n/a	FR1	0	R1310J
1869.61	1.0	1733497	REC_WORD	1.0	n/a	STOVE	1	8	[0, 0, 0]	n/a	FR1	0	R1310J
1870.61	4.975	1734496	REC_WORD_VV	4.975	n/a	<>	-999	8	[0, 0, 0]	n/a	FR1	0	R1310J
1875.585	1.33	1739471	REC_WORD	1.33	n/a	ROOM	3	8	[0, 0, 0]	n/a	FR1	0	R1310J
1876.915	4.245	1740801	REC_WORD	4.245	n/a	BOAT	2	8	[0, 0, 0]	n/a	FR1	0	R1310J
1881.16	8.136	1745046	REC_WORD	8.136	n/a	ANT	5	8	[0, 0, 0]	n/a	FR1	0	R1310J
1889.296	0.0	1753182	TRIAL_END	n/a	n/a	n/a	-999	8	[0, 0, 0]	n/a	FR1	0	R1310J
1889.296	0.0	1753182	TRIAL_START	n/a	n/a	n/a	-999	9	[0, 0, 0]	n/a	FR1	0	R1310J
1889.296	0.0	1753182	TRIAL	n/a	n/a	n/a	-999	9	[0, 0, 0]	n/a	FR1	0	R1310J
1889.296	0.0	1753182	WAITING_START	n/a	n/a	n/a	-999	9	[0, 0, 0]	n/a	FR1	0	R1310J
1889.296	2.012	1753182	REC_END	n/a	n/a	n/a	-999	8	[0, 0, 0]	n/a	FR1	0	R1310J
1891.308	0.0	1755194	ORIENT_START	n/a	n/a	n/a	-999	9	[0, 0, 0]	n/a	FR1	0	R1310J
1891.308	0.0	1755194	WAITING_END	n/a	n/a	n/a	-999	9	[0, 0, 0]	n/a	FR1	0	R1310J
1891.308	0.0	1755194	COUNTDOWN_START	n/a	n/a	n/a	-999	9	[0, 0, 0]	n/a	FR1	0	R1310J
1891.308	11.568	1755194	COUNTDOWN_END	n/a	n/a	n/a	-999	9	[0, 0, 0]	n/a	FR1	0	R1310J
1902.876	0.0	1766761	ENCODING_START	n/a	n/a	n/a	-999	9	[0, 0, 0]	n/a	FR1	0	R1310J
1902.876	0.881	1766761	ORIENT_END	n/a	n/a	n/a	-999	9	[0, 0, 0]	n/a	FR1	0	R1310J
1903.757	1.636	1767642	WORD	n/a	wordpools/wordpool_EN.txt	MUG	1	9	[0, 0, 0]	n/a	FR1	0	R1310J
1905.393	1.129	1769278	WORD_OFF	n/a	n/a	MUG	1	9	[0, 0, 0]	n/a	FR1	0	R1310J
1906.522	1.621	1770407	WORD	n/a	wordpools/wordpool_EN.txt	TENT	2	9	[0, 0, 0]	n/a	FR1	0	R1310J
1908.143	0.967	1772028	WORD_OFF	n/a	n/a	TENT	2	9	[0, 0, 0]	n/a	FR1	0	R1310J
1909.11	1.618	1772995	WORD	n/a	wordpools/wordpool_EN.txt	BREAD	3	9	[0, 0, 0]	n/a	FR1	0	R1310J
1910.728	0.756	1774613	WORD_OFF	n/a	n/a	BREAD	3	9	[0, 0, 0]	n/a	FR1	0	R1310J
1911.484	1.626	1775369	WORD	n/a	wordpools/wordpool_EN.txt	SHIRT	4	9	[0, 0, 0]	n/a	FR1	0	R1310J
1913.11	0.917	1776995	WORD_OFF	n/a	n/a	SHIRT	4	9	[0, 0, 0]	n/a	FR1	0	R1310J
1914.027	1.635	1777912	WORD	n/a	wordpools/wordpool_EN.txt	PALM	5	9	[0, 0, 0]	n/a	FR1	0	R1310J
1915.662	0.871	1779547	WORD_OFF	n/a	n/a	PALM	5	9	[0, 0, 0]	n/a	FR1	0	R1310J
1916.533	1.628	1780418	WORD	n/a	wordpools/wordpool_EN.txt	PIN	6	9	[0, 0, 0]	n/a	FR1	0	R1310J
1918.161	0.806	1782045	WORD_OFF	n/a	n/a	PIN	6	9	[0, 0, 0]	n/a	FR1	0	R1310J
1918.967	1.629	1782851	WORD	n/a	wordpools/wordpool_EN.txt	VAN	7	9	[0, 0, 0]	n/a	FR1	0	R1310J
1920.596	0.798	1784480	WORD_OFF	n/a	n/a	VAN	7	9	[0, 0, 0]	n/a	FR1	0	R1310J
1921.394	1.635	1785278	WORD	n/a	wordpools/wordpool_EN.txt	CLOWN	8	9	[0, 0, 0]	n/a	FR1	0	R1310J
1923.029	1.117	1786913	WORD_OFF	n/a	n/a	CLOWN	8	9	[0, 0, 0]	n/a	FR1	0	R1310J
1924.146	1.634	1788030	WORD	n/a	wordpools/wordpool_EN.txt	GRASS	9	9	[0, 0, 0]	n/a	FR1	0	R1310J
1925.78	0.833	1789664	WORD_OFF	n/a	n/a	GRASS	9	9	[0, 0, 0]	n/a	FR1	0	R1310J
1926.613	1.633	1790497	WORD	n/a	wordpools/wordpool_EN.txt	LAND	10	9	[0, 0, 0]	n/a	FR1	0	R1310J
1928.246	0.968	1792130	WORD_OFF	n/a	n/a	LAND	10	9	[0, 0, 0]	n/a	FR1	0	R1310J
1929.214	1.617	1793098	WORD	n/a	wordpools/wordpool_EN.txt	DOG	11	9	[0, 0, 0]	n/a	FR1	0	R1310J
1930.831	1.045	1794715	WORD_OFF	n/a	n/a	DOG	11	9	[0, 0, 0]	n/a	FR1	0	R1310J
1931.876	1.622	1795760	WORD	n/a	wordpools/wordpool_EN.txt	LAMB	12	9	[0, 0, 0]	n/a	FR1	0	R1310J
1933.498	0.0	1797382	ENCODING_END	n/a	n/a	n/a	-999	9	[0, 0, 0]	n/a	FR1	0	R1310J
1933.498	0.0	1797382	DISTRACT_START	n/a	n/a	n/a	-999	9	[0, 0, 0]	n/a	FR1	0	R1310J
1933.498	0.001	1797382	WORD_OFF	n/a	n/a	LAMB	12	9	[0, 0, 0]	n/a	FR1	0	R1310J
1933.499	0.016	1797383	START	n/a	n/a	n/a	-999	9	[-999, -999, -999]	n/a	FR1	0	R1310J
1933.515	4.1	1797399	PROB	4.1	n/a	n/a	-999	9	[2, 6, 8]	16	FR1	0	R1310J
1937.615	4.335	1801499	PROB	4.335	n/a	n/a	-999	9	[6, 5, 7]	18	FR1	0	R1310J
1941.95	3.917	1805834	PROB	3.917	n/a	n/a	-999	9	[3, 3, 7]	13	FR1	0	R1310J
1945.867	3.166	1809750	PROB	3.166	n/a	n/a	-999	9	[7, 6, 8]	21	FR1	0	R1310J
1949.033	3.518	1812916	PROB	3.518	n/a	n/a	-999	9	[1, 7, 2]	10	FR1	0	R1310J
1952.551	4.639	1816434	PROB	4.639	n/a	n/a	-999	9	[2, 7, 9]	18	FR1	0	R1310J
1957.19	0.011	1821073	STOP	n/a	n/a	n/a	-999	9	[-999, -999, -999]	n/a	FR1	0	R1310J
1957.201	1.021	1821084	DISTRACT_END	n/a	n/a	n/a	-999	9	[0, 0, 0]	n/a	FR1	0	R1310J
1958.222	1.03	1822105	RETRIEVAL_ORIENT_START	n/a	n/a	n/a	-999	9	[0, 0, 0]	n/a	FR1	0	R1310J
1959.252	0.0	1823135	RETRIEVAL_ORIENT_END	n/a	n/a	n/a	-999	9	[0, 0, 0]	n/a	FR1	0	R1310J
1959.252	0.0	1823135	REC_START	n/a	n/a	n/a	-999	9	[0, 0, 0]	n/a	FR1	0	R1310J
1959.252	1.0	1823135	REC_WORD_VV	1.0	n/a	<>	-999	9	[0, 0, 0]	n/a	FR1	0	R1310J
1960.252	0.885	1824135	REC_WORD_VV	0.885	n/a	<>	-999	9	[0, 0, 0]	n/a	FR1	0	R1310J
1961.137	1.73	1825020	REC_WORD	1.73	n/a	MUG	1	9	[0, 0, 0]	n/a	FR1	0	R1310J
1962.867	3.375	1826750	REC_WORD	3.375	n/a	DOG	11	9	[0, 0, 0]	n/a	FR1	0	R1310J
1966.242	10.635	1830125	REC_WORD_VV	10.635	n/a	<>	-999	9	[0, 0, 0]	n/a	FR1	0	R1310J
1976.877	12.887	1840759	REC_WORD	12.887	n/a	GRASS	9	9	[0, 0, 0]	n/a	FR1	0	R1310J
1989.764	0.0	1853646	TRIAL	n/a	n/a	n/a	-999	10	[0, 0, 0]	n/a	FR1	0	R1310J
1989.764	0.0	1853646	WAITING_START	n/a	n/a	n/a	-999	10	[0, 0, 0]	n/a	FR1	0	R1310J
1989.764	0.0	1853646	TRIAL_END	n/a	n/a	n/a	-999	9	[0, 0, 0]	n/a	FR1	0	R1310J
1989.764	0.0	1853646	TRIAL_START	n/a	n/a	n/a	-999	10	[0, 0, 0]	n/a	FR1	0	R1310J
1989.764	2.827	1853646	REC_END	n/a	n/a	n/a	-999	9	[0, 0, 0]	n/a	FR1	0	R1310J
1992.591	0.0	1856472	ORIENT_START	n/a	n/a	n/a	-999	10	[0, 0, 0]	n/a	FR1	0	R1310J
1992.591	0.0	1856472	WAITING_END	n/a	n/a	n/a	-999	10	[0, 0, 0]	n/a	FR1	0	R1310J
1992.591	0.0	1856472	COUNTDOWN_START	n/a	n/a	n/a	-999	10	[0, 0, 0]	n/a	FR1	0	R1310J
1992.591	11.585	1856472	COUNTDOWN_END	n/a	n/a	n/a	-999	10	[0, 0, 0]	n/a	FR1	0	R1310J
2004.176	0.0	1868057	ORIENT_END	n/a	n/a	n/a	-999	10	[0, 0, 0]	n/a	FR1	0	R1310J
2004.176	1.043	1868057	ENCODING_START	n/a	n/a	n/a	-999	10	[0, 0, 0]	n/a	FR1	0	R1310J
2005.219	1.625	1869100	WORD	n/a	wordpools/wordpool_EN.txt	CLAY	1	10	[0, 0, 0]	n/a	FR1	0	R1310J
2006.844	0.931	1870725	WORD_OFF	n/a	n/a	CLAY	1	10	[0, 0, 0]	n/a	FR1	0	R1310J
2007.775	1.636	1871656	WORD	n/a	wordpools/wordpool_EN.txt	SKI	2	10	[0, 0, 0]	n/a	FR1	0	R1310J
2009.411	0.977	1873292	WORD_OFF	n/a	n/a	SKI	2	10	[0, 0, 0]	n/a	FR1	0	R1310J
2010.388	1.607	1874269	WORD	n/a	wordpools/wordpool_EN.txt	SMOKE	3	10	[0, 0, 0]	n/a	FR1	0	R1310J
2011.995	0.958	1875876	WORD_OFF	n/a	n/a	SMOKE	3	10	[0, 0, 0]	n/a	FR1	0	R1310J
2012.953	1.625	1876834	WORD	n/a	wordpools/wordpool_EN.txt	SLEEVE	4	10	[0, 0, 0]	n/a	FR1	0	R1310J
2014.578	1.004	1878459	WORD_OFF	n/a	n/a	SLEEVE	4	10	[0, 0, 0]	n/a	FR1	0	R1310J
2015.582	1.629	1879462	WORD	n/a	wordpools/wordpool_EN.txt	FLEA	5	10	[0, 0, 0]	n/a	FR1	0	R1310J
2017.211	0.923	1881091	WORD_OFF	n/a	n/a	FLEA	5	10	[0, 0, 0]	n/a	FR1	0	R1310J
2018.134	1.629	1882014	WORD	n/a	wordpools/wordpool_EN.txt	FORT	6	10	[0, 0, 0]	n/a	FR1	0	R1310J
2019.763	0.813	1883643	WORD_OFF	n/a	n/a	FORT	6	10	[0, 0, 0]	n/a	FR1	0	R1310J
2020.576	1.636	1884456	WORD	n/a	wordpools/wordpool_EN.txt	COUCH	7	10	[0, 0, 0]	n/a	FR1	0	R1310J
2022.212	0.909	1886092	WORD_OFF	n/a	n/a	COUCH	7	10	[0, 0, 0]	n/a	FR1	0	R1310J
2023.121	1.626	1887001	WORD	n/a	wordpools/wordpool_EN.txt	FENCE	8	10	[0, 0, 0]	n/a	FR1	0	R1310J
2024.747	1.062	1888627	WORD_OFF	n/a	n/a	FENCE	8	10	[0, 0, 0]	n/a	FR1	0	R1310J
2025.809	1.638	1889689	WORD	n/a	wordpools/wordpool_EN.txt	BOWL	9	10	[0, 0, 0]	n/a	FR1	0	R1310J
2027.447	1.0	1891327	WORD_OFF	n/a	n/a	BOWL	9	10	[0, 0, 0]	n/a	FR1	0	R1310J
2028.447	1.633	1892327	WORD	n/a	wordpools/wordpool_EN.txt	JUDGE	10	10	[0, 0, 0]	n/a	FR1	0	R1310J
2030.08	0.838	1893960	WORD_OFF	n/a	n/a	JUDGE	10	10	[0, 0, 0]	n/a	FR1	0	R1310J
2030.918	1.63	1894798	WORD	n/a	wordpools/wordpool_EN.txt	ROOF	11	10	[0, 0, 0]	n/a	FR1	0	R1310J
2032.548	1.123	1896428	WORD_OFF	n/a	n/a	ROOF	11	10	[0, 0, 0]	n/a	FR1	0	R1310J
2033.671	1.628	1897551	WORD	n/a	wordpools/wordpool_EN.txt	SCHOOL	12	10	[0, 0, 0]	n/a	FR1	0	R1310J
2035.299	0.0	1899179	ENCODING_END	n/a	n/a	n/a	-999	10	[0, 0, 0]	n/a	FR1	0	R1310J
2035.299	0.0	1899179	DISTRACT_START	n/a	n/a	n/a	-999	10	[0, 0, 0]	n/a	FR1	0	R1310J
2035.299	0.001	1899179	WORD_OFF	n/a	n/a	SCHOOL	12	10	[0, 0, 0]	n/a	FR1	0	R1310J
2035.3	0.015	1899180	START	n/a	n/a	n/a	-999	10	[-999, -999, -999]	n/a	FR1	0	R1310J
2035.315	4.551	1899195	PROB	4.551	n/a	n/a	-999	10	[7, 7, 5]	17	FR1	0	R1310J
2039.866	3.751	1903745	PROB	3.751	n/a	n/a	-999	10	[3, 2, 6]	11	FR1	0	R1310J
2043.617	4.667	1907496	PROB	4.667	n/a	n/a	-999	10	[3, 2, 3]	8	FR1	0	R1310J
2048.284	2.417	1912163	PROB	2.417	n/a	n/a	-999	10	[9, 1, 1]	11	FR1	0	R1310J
2050.701	5.438	1914580	PROB	5.438	n/a	n/a	-999	10	[5, 5, 1]	11	FR1	0	R1310J
2056.139	0.012	1920018	STOP	n/a	n/a	n/a	-999	10	[-999, -999, -999]	n/a	FR1	0	R1310J
2056.151	1.277	1920030	DISTRACT_END	n/a	n/a	n/a	-999	10	[0, 0, 0]	n/a	FR1	0	R1310J
2057.428	1.025	1921307	RETRIEVAL_ORIENT_START	n/a	n/a	n/a	-999	10	[0, 0, 0]	n/a	FR1	0	R1310J
2058.453	0.0	1922332	RETRIEVAL_ORIENT_END	n/a	n/a	n/a	-999	10	[0, 0, 0]	n/a	FR1	0	R1310J
2058.453	0.564	1922332	REC_START	n/a	n/a	n/a	-999	10	[0, 0, 0]	n/a	FR1	0	R1310J
2059.017	0.435	1922896	REC_WORD_VV	0.435	n/a	<>	-999	10	[0, 0, 0]	n/a	FR1	0	R1310J
2059.452	0.825	1923331	REC_WORD	0.825	n/a	JUDGE	10	10	[0, 0, 0]	n/a	FR1	0	R1310J
2060.277	2.19	1924156	REC_WORD	2.19	n/a	ROOF	11	10	[0, 0, 0]	n/a	FR1	0	R1310J
2062.467	0.99	1926346	REC_WORD	0.99	n/a	SLEEVE	4	10	[0, 0, 0]	n/a	FR1	0	R1310J
2063.457	2.645	1927335	REC_WORD	2.645	n/a	SKI	2	10	[0, 0, 0]	n/a	FR1	0	R1310J
2066.102	4.715	1929980	REC_WORD	4.715	n/a	FLEA	5	10	[0, 0, 0]	n/a	FR1	0	R1310J
2070.817	18.149	1934695	REC_WORD_VV	18.149	n/a	<>	-999	10	[0, 0, 0]	n/a	FR1	0	R1310J
2088.966	0.0	1952843	REC_END	n/a	n/a	n/a	-999	10	[0, 0, 0]	n/a	FR1	0	R1310J
2088.966	0.0	1952843	TRIAL_END	n/a	n/a	n/a	-999	10	[0, 0, 0]	n/a	FR1	0	R1310J
2088.966	0.0	1952843	TRIAL_START	n/a	n/a	n/a	-999	11	[0, 0, 0]	n/a	FR1	0	R1310J
2088.966	0.0	1952843	TRIAL	n/a	n/a	n/a	-999	11	[0, 0, 0]	n/a	FR1	0	R1310J
2088.966	1.375	1952843	WAITING_START	n/a	n/a	n/a	-999	11	[0, 0, 0]	n/a	FR1	0	R1310J
2090.341	0.0	1954218	WAITING_END	n/a	n/a	n/a	-999	11	[0, 0, 0]	n/a	FR1	0	R1310J
2090.341	0.0	1954218	COUNTDOWN_START	n/a	n/a	n/a	-999	11	[0, 0, 0]	n/a	FR1	0	R1310J
2090.341	0.0	1954218	COUNTDOWN_END	n/a	n/a	n/a	-999	11	[0, 0, 0]	n/a	FR1	0	R1310J
2090.341	11.602	1954218	ORIENT_START	n/a	n/a	n/a	-999	11	[0, 0, 0]	n/a	FR1	0	R1310J
2101.943	0.0	1965820	ORIENT_END	n/a	n/a	n/a	-999	11	[0, 0, 0]	n/a	FR1	0	R1310J
2101.943	0.999	1965820	ENCODING_START	n/a	n/a	n/a	-999	11	[0, 0, 0]	n/a	FR1	0	R1310J
2102.942	1.635	1966819	WORD	n/a	wordpools/wordpool_EN.txt	STRING	1	11	[0, 0, 0]	n/a	FR1	0	R1310J
2104.577	1.03	1968454	WORD_OFF	n/a	n/a	STRING	1	11	[0, 0, 0]	n/a	FR1	0	R1310J
2105.607	1.636	1969484	WORD	n/a	wordpools/wordpool_EN.txt	GUARD	2	11	[0, 0, 0]	n/a	FR1	0	R1310J
2107.243	0.803	1971120	WORD_OFF	n/a	n/a	GUARD	2	11	[0, 0, 0]	n/a	FR1	0	R1310J
2108.046	1.615	1971923	WORD	n/a	wordpools/wordpool_EN.txt	SPARK	3	11	[0, 0, 0]	n/a	FR1	0	R1310J
2109.661	0.75	1973538	WORD_OFF	n/a	n/a	SPARK	3	11	[0, 0, 0]	n/a	FR1	0	R1310J
2110.411	1.633	1974288	WORD	n/a	wordpools/wordpool_EN.txt	DUCK	4	11	[0, 0, 0]	n/a	FR1	0	R1310J
2112.044	0.871	1975920	WORD_OFF	n/a	n/a	DUCK	4	11	[0, 0, 0]	n/a	FR1	0	R1310J
2112.915	1.63	1976791	WORD	n/a	wordpools/wordpool_EN.txt	SMILE	5	11	[0, 0, 0]	n/a	FR1	0	R1310J
2114.545	0.814	1978421	WORD_OFF	n/a	n/a	SMILE	5	11	[0, 0, 0]	n/a	FR1	0	R1310J
2115.359	1.637	1979235	WORD	n/a	wordpools/wordpool_EN.txt	TOAD	6	11	[0, 0, 0]	n/a	FR1	0	R1310J
2116.996	1.091	1980872	WORD_OFF	n/a	n/a	TOAD	6	11	[0, 0, 0]	n/a	FR1	0	R1310J
2118.087	1.626	1981963	WORD	n/a	wordpools/wordpool_EN.txt	FISH	7	11	[0, 0, 0]	n/a	FR1	0	R1310J
2119.713	0.997	1983589	WORD_OFF	n/a	n/a	FISH	7	11	[0, 0, 0]	n/a	FR1	0	R1310J
2120.71	1.637	1984586	WORD	n/a	wordpools/wordpool_EN.txt	ROPE	8	11	[0, 0, 0]	n/a	FR1	0	R1310J
2122.347	0.841	1986223	WORD_OFF	n/a	n/a	ROPE	8	11	[0, 0, 0]	n/a	FR1	0	R1310J
2123.188	1.626	1987064	WORD	n/a	wordpools/wordpool_EN.txt	SEAL	9	11	[0, 0, 0]	n/a	FR1	0	R1310J
2124.814	0.856	1988690	WORD_OFF	n/a	n/a	SEAL	9	11	[0, 0, 0]	n/a	FR1	0	R1310J
2125.67	1.628	1989546	WORD	n/a	wordpools/wordpool_EN.txt	AXE	10	11	[0, 0, 0]	n/a	FR1	0	R1310J
2127.298	1.081	1991174	WORD_OFF	n/a	n/a	AXE	10	11	[0, 0, 0]	n/a	FR1	0	R1310J
2128.379	1.635	1992255	WORD	n/a	wordpools/wordpool_EN.txt	CONE	11	11	[0, 0, 0]	n/a	FR1	0	R1310J
2130.014	0.987	1993890	WORD_OFF	n/a	n/a	CONE	11	11	[0, 0, 0]	n/a	FR1	0	R1310J
2131.001	1.614	1994877	WORD	n/a	wordpools/wordpool_EN.txt	OAK	12	11	[0, 0, 0]	n/a	FR1	0	R1310J
2132.615	0.0	1996491	WORD_OFF	n/a	n/a	OAK	12	11	[0, 0, 0]	n/a	FR1	0	R1310J
2132.615	0.0	1996491	ENCODING_END	n/a	n/a	n/a	-999	11	[0, 0, 0]	n/a	FR1	0	R1310J
2132.615	0.001	1996491	DISTRACT_START	n/a	n/a	n/a	-999	11	[0, 0, 0]	n/a	FR1	0	R1310J
2132.616	0.016	1996492	START	n/a	n/a	n/a	-999	11	[-999, -999, -999]	n/a	FR1	0	R1310J
2132.632	3.399	1996508	PROB	3.399	n/a	n/a	-999	11	[3, 7, 3]	13	FR1	0	R1310J
2136.031	3.151	1999906	PROB	3.151	n/a	n/a	-999	11	[7, 4, 9]	20	FR1	0	R1310J
2139.182	2.651	2003057	PROB	2.651	n/a	n/a	-999	11	[5, 4, 2]	11	FR1	0	R1310J
2141.833	3.134	2005708	PROB	3.134	n/a	n/a	-999	11	[6, 2, 1]	9	FR1	0	R1310J
2144.967	2.784	2008842	PROB	2.784	n/a	n/a	-999	11	[5, 7, 7]	19	FR1	0	R1310J
2147.751	3.517	2011626	PROB	3.517	n/a	n/a	-999	11	[7, 1, 4]	12	FR1	0	R1310J
2151.268	3.251	2015143	PROB	3.251	n/a	n/a	-999	11	[3, 2, 3]	8	FR1	0	R1310J
2154.519	0.016	2018394	STOP	n/a	n/a	n/a	-999	11	[-999, -999, -999]	n/a	FR1	0	R1310J
2154.535	1.189	2018410	DISTRACT_END	n/a	n/a	n/a	-999	11	[0, 0, 0]	n/a	FR1	0	R1310J
2155.724	1.029	2019599	RETRIEVAL_ORIENT_START	n/a	n/a	n/a	-999	11	[0, 0, 0]	n/a	FR1	0	R1310J
2156.753	0.0	2020628	RETRIEVAL_ORIENT_END	n/a	n/a	n/a	-999	11	[0, 0, 0]	n/a	FR1	0	R1310J
2156.753	0.0	2020628	REC_START	n/a	n/a	n/a	-999	11	[0, 0, 0]	n/a	FR1	0	R1310J
2156.753	1.129	2020628	REC_WORD_VV	1.129	n/a	<>	-999	11	[0, 0, 0]	n/a	FR1	0	R1310J
2157.882	3.701	2021757	REC_WORD	3.701	n/a	DUCK	4	11	[0, 0, 0]	n/a	FR1	0	R1310J
2161.583	2.39	2025457	REC_WORD_VV	2.39	n/a	<>	-999	11	[0, 0, 0]	n/a	FR1	0	R1310J
2163.973	3.98	2027847	REC_WORD	3.98	n/a	FISH	7	11	[0, 0, 0]	n/a	FR1	0	R1310J
2167.953	3.135	2031827	REC_WORD	3.135	n/a	SMILE	5	11	[0, 0, 0]	n/a	FR1	0	R1310J
2171.088	16.176	2034962	REC_WORD_VV	16.176	n/a	<>	-999	11	[0, 0, 0]	n/a	FR1	0	R1310J
2187.264	0.0	2051137	TRIAL	n/a	n/a	n/a	-999	12	[0, 0, 0]	n/a	FR1	0	R1310J
2187.264	0.0	2051137	WAITING_START	n/a	n/a	n/a	-999	12	[0, 0, 0]	n/a	FR1	0	R1310J
2187.264	0.0	2051137	TRIAL_END	n/a	n/a	n/a	-999	11	[0, 0, 0]	n/a	FR1	0	R1310J
2187.264	0.0	2051137	TRIAL_START	n/a	n/a	n/a	-999	12	[0, 0, 0]	n/a	FR1	0	R1310J
2187.264	2.127	2051137	REC_END	n/a	n/a	n/a	-999	11	[0, 0, 0]	n/a	FR1	0	R1310J
2189.391	0.0	2053264	WAITING_END	n/a	n/a	n/a	-999	12	[0, 0, 0]	n/a	FR1	0	R1310J
2189.391	0.0	2053264	COUNTDOWN_START	n/a	n/a	n/a	-999	12	[0, 0, 0]	n/a	FR1	0	R1310J
2189.391	0.0	2053264	COUNTDOWN_END	n/a	n/a	n/a	-999	12	[0, 0, 0]	n/a	FR1	0	R1310J
2189.391	11.635	2053264	ORIENT_START	n/a	n/a	n/a	-999	12	[0, 0, 0]	n/a	FR1	0	R1310J
2201.026	0.0	2064899	ORIENT_END	n/a	n/a	n/a	-999	12	[0, 0, 0]	n/a	FR1	0	R1310J
2201.026	1.14	2064899	ENCODING_START	n/a	n/a	n/a	-999	12	[0, 0, 0]	n/a	FR1	0	R1310J
2202.166	1.628	2066039	WORD	n/a	wordpools/wordpool_EN.txt	PEA	1	12	[0, 0, 0]	n/a	FR1	0	R1310J
2203.794	1.09	2067667	WORD_OFF	n/a	n/a	PEA	1	12	[0, 0, 0]	n/a	FR1	0	R1310J
2204.884	1.627	2068757	WORD	n/a	wordpools/wordpool_EN.txt	FOX	2	12	[0, 0, 0]	n/a	FR1	0	R1310J
2206.511	1.128	2070384	WORD_OFF	n/a	n/a	FOX	2	12	[0, 0, 0]	n/a	FR1	0	R1310J
2207.639	1.622	2071512	WORD	n/a	wordpools/wordpool_EN.txt	CAGE	3	12	[0, 0, 0]	n/a	FR1	0	R1310J
2209.261	1.11	2073133	WORD_OFF	n/a	n/a	CAGE	3	12	[0, 0, 0]	n/a	FR1	0	R1310J
2210.371	1.624	2074243	WORD	n/a	wordpools/wordpool_EN.txt	COW	4	12	[0, 0, 0]	n/a	FR1	0	R1310J
2211.995	1.094	2075867	WORD_OFF	n/a	n/a	COW	4	12	[0, 0, 0]	n/a	FR1	0	R1310J
2213.089	1.623	2076961	WORD	n/a	wordpools/wordpool_EN.txt	STOOL	5	12	[0, 0, 0]	n/a	FR1	0	R1310J
2214.712	0.929	2078584	WORD_OFF	n/a	n/a	STOOL	5	12	[0, 0, 0]	n/a	FR1	0	R1310J
2215.641	1.638	2079513	WORD	n/a	wordpools/wordpool_EN.txt	SQUARE	6	12	[0, 0, 0]	n/a	FR1	0	R1310J
2217.279	0.949	2081151	WORD_OFF	n/a	n/a	SQUARE	6	12	[0, 0, 0]	n/a	FR1	0	R1310J
2218.228	1.618	2082100	WORD	n/a	wordpools/wordpool_EN.txt	CHIEF	7	12	[0, 0, 0]	n/a	FR1	0	R1310J
2219.846	1.002	2083718	WORD_OFF	n/a	n/a	CHIEF	7	12	[0, 0, 0]	n/a	FR1	0	R1310J
2220.848	1.632	2084720	WORD	n/a	wordpools/wordpool_EN.txt	SKUNK	8	12	[0, 0, 0]	n/a	FR1	0	R1310J
2222.48	1.022	2086352	WORD_OFF	n/a	n/a	SKUNK	8	12	[0, 0, 0]	n/a	FR1	0	R1310J
2223.502	1.628	2087374	WORD	n/a	wordpools/wordpool_EN.txt	GATE	9	12	[0, 0, 0]	n/a	FR1	0	R1310J
2225.13	0.845	2089002	WORD_OFF	n/a	n/a	GATE	9	12	[0, 0, 0]	n/a	FR1	0	R1310J
2225.975	1.623	2089847	WORD	n/a	wordpools/wordpool_EN.txt	FROG	10	12	[0, 0, 0]	n/a	FR1	0	R1310J
2227.598	0.885	2091470	WORD_OFF	n/a	n/a	FROG	10	12	[0, 0, 0]	n/a	FR1	0	R1310J
2228.483	1.631	2092355	WORD	n/a	wordpools/wordpool_EN.txt	VEST	11	12	[0, 0, 0]	n/a	FR1	0	R1310J
2230.114	0.951	2093986	WORD_OFF	n/a	n/a	VEST	11	12	[0, 0, 0]	n/a	FR1	0	R1310J
2231.065	1.617	2094937	WORD	n/a	wordpools/wordpool_EN.txt	STEM	12	12	[0, 0, 0]	n/a	FR1	0	R1310J
2232.682	0.0	2096554	ENCODING_END	n/a	n/a	n/a	-999	12	[0, 0, 0]	n/a	FR1	0	R1310J
2232.682	0.0	2096554	DISTRACT_START	n/a	n/a	n/a	-999	12	[0, 0, 0]	n/a	FR1	0	R1310J
2232.682	0.001	2096554	WORD_OFF	n/a	n/a	STEM	12	12	[0, 0, 0]	n/a	FR1	0	R1310J
2232.683	0.016	2096555	START	n/a	n/a	n/a	-999	12	[-999, -999, -999]	n/a	FR1	0	R1310J
2232.699	3.25	2096571	PROB	3.25	n/a	n/a	-999	12	[7, 2, 6]	15	FR1	0	R1310J
2235.949	4.718	2099820	PROB	4.718	n/a	n/a	-999	12	[3, 1, 4]	8	FR1	0	R1310J
2240.667	2.817	2104538	PROB	2.817	n/a	n/a	-999	12	[1, 3, 3]	7	FR1	0	R1310J
2243.484	6.667	2107355	PROB	6.667	n/a	n/a	-999	12	[9, 6, 3]	18	FR1	0	R1310J
2250.151	4.749	2114022	PROB	4.749	n/a	n/a	-999	12	[8, 1, 9]	18	FR1	0	R1310J
2254.9	0.019	2118771	STOP	n/a	n/a	n/a	-999	12	[-999, -999, -999]	n/a	FR1	0	R1310J
2254.919	1.02	2118790	DISTRACT_END	n/a	n/a	n/a	-999	12	[0, 0, 0]	n/a	FR1	0	R1310J
2255.939	1.031	2119810	RETRIEVAL_ORIENT_START	n/a	n/a	n/a	-999	12	[0, 0, 0]	n/a	FR1	0	R1310J
2256.97	0.0	2120841	RETRIEVAL_ORIENT_END	n/a	n/a	n/a	-999	12	[0, 0, 0]	n/a	FR1	0	R1310J
2256.97	0.0	2120841	REC_START	n/a	n/a	n/a	-999	12	[0, 0, 0]	n/a	FR1	0	R1310J
2256.97	1.915	2120841	REC_WORD_VV	1.915	n/a	<>	-999	12	[0, 0, 0]	n/a	FR1	0	R1310J
2258.885	2.09	2122755	REC_WORD	2.09	n/a	FROG	10	12	[0, 0, 0]	n/a	FR1	0	R1310J
2260.975	0.7	2124845	REC_WORD	0.7	n/a	CHIEF	7	12	[0, 0, 0]	n/a	FR1	0	R1310J
2261.675	0.66	2125545	REC_WORD	0.66	n/a	FOX	2	12	[0, 0, 0]	n/a	FR1	0	R1310J
2262.335	5.565	2126205	REC_WORD	5.565	n/a	SKUNK	8	12	[0, 0, 0]	n/a	FR1	0	R1310J
2267.9	19.582	2131770	REC_WORD_VV	19.582	n/a	<>	-999	12	[0, 0, 0]	n/a	FR1	0	R1310J
2287.482	0.0	2151351	TRIAL_END	n/a	n/a	n/a	-999	12	[0, 0, 0]	n/a	FR1	0	R1310J
2287.482	0.0	2151351	WAITING_START	n/a	n/a	n/a	-999	13	[0, 0, 0]	n/a	FR1	0	R1310J
2287.482	0.0	2151351	REC_END	n/a	n/a	n/a	-999	12	[0, 0, 0]	n/a	FR1	0	R1310J
2287.482	0.0	2151351	TRIAL_START	n/a	n/a	n/a	-999	13	[0, 0, 0]	n/a	FR1	0	R1310J
2287.482	2.476	2151351	TRIAL	n/a	n/a	n/a	-999	13	[0, 0, 0]	n/a	FR1	0	R1310J
2289.958	0.0	2153827	COUNTDOWN_START	n/a	n/a	n/a	-999	13	[0, 0, 0]	n/a	FR1	0	R1310J
2289.958	0.0	2153827	ORIENT_START	n/a	n/a	n/a	-999	13	[0, 0, 0]	n/a	FR1	0	R1310J
2289.958	0.0	2153827	WAITING_END	n/a	n/a	n/a	-999	13	[0, 0, 0]	n/a	FR1	0	R1310J
2289.958	11.619	2153827	COUNTDOWN_END	n/a	n/a	n/a	-999	13	[0, 0, 0]	n/a	FR1	0	R1310J
2301.577	0.0	2165446	ORIENT_END	n/a	n/a	n/a	-999	13	[0, 0, 0]	n/a	FR1	0	R1310J
2301.577	0.931	2165446	ENCODING_START	n/a	n/a	n/a	-999	13	[0, 0, 0]	n/a	FR1	0	R1310J
2302.508	1.635	2166377	WORD	n/a	wordpools/wordpool_EN.txt	ROSE	1	13	[0, 0, 0]	n/a	FR1	0	R1310J
2304.143	0.905	2168012	WORD_OFF	n/a	n/a	ROSE	1	13	[0, 0, 0]	n/a	FR1	0	R1310J
2305.048	1.613	2168917	WORD	n/a	wordpools/wordpool_EN.txt	DEER	2	13	[0, 0, 0]	n/a	FR1	0	R1310J
2306.661	0.769	2170529	WORD_OFF	n/a	n/a	DEER	2	13	[0, 0, 0]	n/a	FR1	0	R1310J
2307.43	1.631	2171298	WORD	n/a	wordpools/wordpool_EN.txt	ROCK	3	13	[0, 0, 0]	n/a	FR1	0	R1310J
2309.061	0.859	2172929	WORD_OFF	n/a	n/a	ROCK	3	13	[0, 0, 0]	n/a	FR1	0	R1310J
2309.92	1.625	2173788	WORD	n/a	wordpools/wordpool_EN.txt	DOCK	4	13	[0, 0, 0]	n/a	FR1	0	R1310J
2311.545	0.757	2175413	WORD_OFF	n/a	n/a	DOCK	4	13	[0, 0, 0]	n/a	FR1	0	R1310J
2312.302	1.627	2176170	WORD	n/a	wordpools/wordpool_EN.txt	STREET	5	13	[0, 0, 0]	n/a	FR1	0	R1310J
2313.929	1.025	2177797	WORD_OFF	n/a	n/a	STREET	5	13	[0, 0, 0]	n/a	FR1	0	R1310J
2314.954	1.626	2178822	WORD	n/a	wordpools/wordpool_EN.txt	TEETH	6	13	[0, 0, 0]	n/a	FR1	0	R1310J
2316.58	0.865	2180448	WORD_OFF	n/a	n/a	TEETH	6	13	[0, 0, 0]	n/a	FR1	0	R1310J
2317.445	1.634	2181313	WORD	n/a	wordpools/wordpool_EN.txt	INK	7	13	[0, 0, 0]	n/a	FR1	0	R1310J
2319.079	1.118	2182947	WORD_OFF	n/a	n/a	INK	7	13	[0, 0, 0]	n/a	FR1	0	R1310J
2320.197	1.617	2184065	WORD	n/a	wordpools/wordpool_EN.txt	LAKE	8	13	[0, 0, 0]	n/a	FR1	0	R1310J
2321.814	0.885	2185682	WORD_OFF	n/a	n/a	LAKE	8	13	[0, 0, 0]	n/a	FR1	0	R1310J
2322.699	1.632	2186567	WORD	n/a	wordpools/wordpool_EN.txt	TRAIN	9	13	[0, 0, 0]	n/a	FR1	0	R1310J
2324.331	1.025	2188199	WORD_OFF	n/a	n/a	TRAIN	9	13	[0, 0, 0]	n/a	FR1	0	R1310J
2325.356	1.625	2189224	WORD	n/a	wordpools/wordpool_EN.txt	POOL	10	13	[0, 0, 0]	n/a	FR1	0	R1310J
2326.981	0.887	2190849	WORD_OFF	n/a	n/a	POOL	10	13	[0, 0, 0]	n/a	FR1	0	R1310J
2327.868	1.63	2191736	WORD	n/a	wordpools/wordpool_EN.txt	RICE	11	13	[0, 0, 0]	n/a	FR1	0	R1310J
2329.498	0.776	2193366	WORD_OFF	n/a	n/a	RICE	11	13	[0, 0, 0]	n/a	FR1	0	R1310J
2330.274	1.625	2194141	WORD	n/a	wordpools/wordpool_EN.txt	VASE	12	13	[0, 0, 0]	n/a	FR1	0	R1310J
2331.899	0.0	2195766	WORD_OFF	n/a	n/a	VASE	12	13	[0, 0, 0]	n/a	FR1	0	R1310J
2331.899	0.0	2195766	ENCODING_END	n/a	n/a	n/a	-999	13	[0, 0, 0]	n/a	FR1	0	R1310J
2331.899	0.001	2195766	DISTRACT_START	n/a	n/a	n/a	-999	13	[0, 0, 0]	n/a	FR1	0	R1310J
2331.9	0.015	2195767	START	n/a	n/a	n/a	-999	13	[-999, -999, -999]	n/a	FR1	0	R1310J
2331.915	2.618	2195782	PROB	2.618	n/a	n/a	-999	13	[8, 2, 2]	12	FR1	0	R1310J
2334.533	3.734	2198400	PROB	3.734	n/a	n/a	-999	13	[5, 5, 6]	16	FR1	0	R1310J
2338.267	2.866	2202134	PROB	2.866	n/a	n/a	-999	13	[4, 2, 8]	14	FR1	0	R1310J
2341.133	5.402	2205000	PROB	5.402	n/a	n/a	-999	13	[8, 9, 3]	20	FR1	0	R1310J
2346.535	3.367	2210402	PROB	3.367	n/a	n/a	-999	13	[9, 4, 9]	22	FR1	0	R1310J
2349.902	3.592	2213769	PROB	3.592	n/a	n/a	-999	13	[1, 1, 5]	7	FR1	0	R1310J
2353.494	0.009	2217361	STOP	n/a	n/a	n/a	-999	13	[-999, -999, -999]	n/a	FR1	0	R1310J
2353.503	1.255	2217370	DISTRACT_END	n/a	n/a	n/a	-999	13	[0, 0, 0]	n/a	FR1	0	R1310J
2354.758	1.028	2218624	RETRIEVAL_ORIENT_START	n/a	n/a	n/a	-999	13	[0, 0, 0]	n/a	FR1	0	R1310J
2355.786	0.0	2219652	REC_START	n/a	n/a	n/a	-999	13	[0, 0, 0]	n/a	FR1	0	R1310J
2355.786	0.27	2219652	RETRIEVAL_ORIENT_END	n/a	n/a	n/a	-999	13	[0, 0, 0]	n/a	FR1	0	R1310J
2356.056	0.455	2219922	REC_WORD_VV	0.455	n/a	<>	-999	13	[0, 0, 0]	n/a	FR1	0	R1310J
2356.511	1.3	2220377	REC_WORD	1.3	n/a	ROSE	1	13	[0, 0, 0]	n/a	FR1	0	R1310J
2357.811	0.525	2221677	REC_WORD	0.525	n/a	DEER	2	13	[0, 0, 0]	n/a	FR1	0	R1310J
2358.336	1.0	2222202	REC_WORD	1.0	n/a	VASE	12	13	[0, 0, 0]	n/a	FR1	0	R1310J
2359.336	2.205	2223202	REC_WORD_VV	2.205	n/a	<>	-999	13	[0, 0, 0]	n/a	FR1	0	R1310J
2361.541	4.44	2225407	REC_WORD	4.44	n/a	STREAM	-999	13	[0, 0, 0]	n/a	FR1	0	R1310J
2365.981	20.316	2229847	REC_WORD_VV	20.316	n/a	<>	-999	13	[0, 0, 0]	n/a	FR1	0	R1310J
2386.297	0.0	2250162	REC_END	n/a	n/a	n/a	-999	13	[0, 0, 0]	n/a	FR1	0	R1310J
2386.297	0.0	2250162	TRIAL_END	n/a	n/a	n/a	-999	13	[0, 0, 0]	n/a	FR1	0	R1310J
2386.297	0.0	2250162	TRIAL_START	n/a	n/a	n/a	-999	14	[0, 0, 0]	n/a	FR1	0	R1310J
2386.297	0.0	2250162	WAITING_START	n/a	n/a	n/a	-999	14	[0, 0, 0]	n/a	FR1	0	R1310J
2386.297	1.078	2250162	TRIAL	n/a	n/a	n/a	-999	14	[0, 0, 0]	n/a	FR1	0	R1310J
2387.375	0.0	2251240	WAITING_END	n/a	n/a	n/a	-999	14	[0, 0, 0]	n/a	FR1	0	R1310J
2387.375	0.0	2251240	COUNTDOWN_START	n/a	n/a	n/a	-999	14	[0, 0, 0]	n/a	FR1	0	R1310J
2387.375	0.0	2251240	COUNTDOWN_END	n/a	n/a	n/a	-999	14	[0, 0, 0]	n/a	FR1	0	R1310J
2387.375	11.502	2251240	ORIENT_START	n/a	n/a	n/a	-999	14	[0, 0, 0]	n/a	FR1	0	R1310J
2398.877	0.0	2262742	ENCODING_START	n/a	n/a	n/a	-999	14	[0, 0, 0]	n/a	FR1	0	R1310J
2398.877	1.039	2262742	ORIENT_END	n/a	n/a	n/a	-999	14	[0, 0, 0]	n/a	FR1	0	R1310J
2399.916	1.628	2263781	WORD	n/a	wordpools/wordpool_EN.txt	SUIT	1	14	[0, 0, 0]	n/a	FR1	0	R1310J
2401.544	1.03	2265409	WORD_OFF	n/a	n/a	SUIT	1	14	[0, 0, 0]	n/a	FR1	0	R1310J
2402.574	1.636	2266438	WORD	n/a	wordpools/wordpool_EN.txt	FLOOR	2	14	[0, 0, 0]	n/a	FR1	0	R1310J
2404.21	0.905	2268074	WORD_OFF	n/a	n/a	FLOOR	2	14	[0, 0, 0]	n/a	FR1	0	R1310J
2405.115	1.63	2268979	WORD	n/a	wordpools/wordpool_EN.txt	SINK	3	14	[0, 0, 0]	n/a	FR1	0	R1310J
2406.745	0.985	2270609	WORD_OFF	n/a	n/a	SINK	3	14	[0, 0, 0]	n/a	FR1	0	R1310J
2407.73	1.632	2271594	WORD	n/a	wordpools/wordpool_EN.txt	FUR	4	14	[0, 0, 0]	n/a	FR1	0	R1310J
2409.362	0.871	2273226	WORD_OFF	n/a	n/a	FUR	4	14	[0, 0, 0]	n/a	FR1	0	R1310J
2410.233	1.613	2274097	WORD	n/a	wordpools/wordpool_EN.txt	STAR	5	14	[0, 0, 0]	n/a	FR1	0	R1310J
2411.846	0.977	2275710	WORD_OFF	n/a	n/a	STAR	5	14	[0, 0, 0]	n/a	FR1	0	R1310J
2412.823	1.623	2276687	WORD	n/a	wordpools/wordpool_EN.txt	PIE	6	14	[0, 0, 0]	n/a	FR1	0	R1310J
2414.446	0.824	2278310	WORD_OFF	n/a	n/a	PIE	6	14	[0, 0, 0]	n/a	FR1	0	R1310J
2415.27	1.627	2279134	WORD	n/a	wordpools/wordpool_EN.txt	PIT	7	14	[0, 0, 0]	n/a	FR1	0	R1310J
2416.897	1.085	2280761	WORD_OFF	n/a	n/a	PIT	7	14	[0, 0, 0]	n/a	FR1	0	R1310J
2417.982	1.632	2281846	WORD	n/a	wordpools/wordpool_EN.txt	WING	8	14	[0, 0, 0]	n/a	FR1	0	R1310J
2419.614	0.822	2283478	WORD_OFF	n/a	n/a	WING	8	14	[0, 0, 0]	n/a	FR1	0	R1310J
2420.436	1.627	2284300	WORD	n/a	wordpools/wordpool_EN.txt	STEAK	9	14	[0, 0, 0]	n/a	FR1	0	R1310J
2422.063	1.101	2285927	WORD_OFF	n/a	n/a	STEAK	9	14	[0, 0, 0]	n/a	FR1	0	R1310J
2423.164	1.634	2287028	WORD	n/a	wordpools/wordpool_EN.txt	TANK	10	14	[0, 0, 0]	n/a	FR1	0	R1310J
2424.798	1.089	2288662	WORD_OFF	n/a	n/a	TANK	10	14	[0, 0, 0]	n/a	FR1	0	R1310J
2425.887	1.628	2289751	WORD	n/a	wordpools/wordpool_EN.txt	SWORD	11	14	[0, 0, 0]	n/a	FR1	0	R1310J
2427.515	1.044	2291378	WORD_OFF	n/a	n/a	SWORD	11	14	[0, 0, 0]	n/a	FR1	0	R1310J
2428.559	1.622	2292422	WORD	n/a	wordpools/wordpool_EN.txt	DIME	12	14	[0, 0, 0]	n/a	FR1	0	R1310J
2430.181	0.0	2294044	ENCODING_END	n/a	n/a	n/a	-999	14	[0, 0, 0]	n/a	FR1	0	R1310J
2430.181	0.0	2294044	DISTRACT_START	n/a	n/a	n/a	-999	14	[0, 0, 0]	n/a	FR1	0	R1310J
2430.181	0.001	2294044	WORD_OFF	n/a	n/a	DIME	12	14	[0, 0, 0]	n/a	FR1	0	R1310J
2430.182	0.016	2294045	START	n/a	n/a	n/a	-999	14	[-999, -999, -999]	n/a	FR1	0	R1310J
2430.198	3.485	2294061	PROB	3.485	n/a	n/a	-999	14	[2, 5, 8]	15	FR1	0	R1310J
2433.683	2.3	2297546	PROB	2.3	n/a	n/a	-999	14	[7, 1, 3]	11	FR1	0	R1310J
2435.983	3.834	2299846	PROB	3.834	n/a	n/a	-999	14	[5, 1, 9]	15	FR1	0	R1310J
2439.817	2.951	2303680	PROB	2.951	n/a	n/a	-999	14	[6, 7, 3]	16	FR1	0	R1310J
2442.768	3.05	2306631	PROB	3.05	n/a	n/a	-999	14	[7, 7, 5]	19	FR1	0	R1310J
2445.818	3.684	2309681	PROB	3.684	n/a	n/a	-999	14	[5, 4, 9]	18	FR1	0	R1310J
2449.502	4.99	2313365	PROB	4.99	n/a	n/a	-999	14	[3, 4, 2]	9	FR1	0	R1310J
2454.492	0.011	2318354	STOP	n/a	n/a	n/a	-999	14	[-999, -999, -999]	n/a	FR1	0	R1310J
2454.503	1.176	2318365	DISTRACT_END	n/a	n/a	n/a	-999	14	[0, 0, 0]	n/a	FR1	0	R1310J
2455.679	1.024	2319541	RETRIEVAL_ORIENT_START	n/a	n/a	n/a	-999	14	[0, 0, 0]	n/a	FR1	0	R1310J
2456.703	0.0	2320565	RETRIEVAL_ORIENT_END	n/a	n/a	n/a	-999	14	[0, 0, 0]	n/a	FR1	0	R1310J
2456.703	0.609	2320565	REC_START	n/a	n/a	n/a	-999	14	[0, 0, 0]	n/a	FR1	0	R1310J
2457.312	1.095	2321174	REC_WORD	1.095	n/a	SWORD	11	14	[0, 0, 0]	n/a	FR1	0	R1310J
2458.407	1.621	2322269	REC_WORD	1.621	n/a	TANK	10	14	[0, 0, 0]	n/a	FR1	0	R1310J
2460.028	2.465	2323890	REC_WORD_VV	2.465	n/a	<>	-999	14	[0, 0, 0]	n/a	FR1	0	R1310J
2462.493	3.329	2326355	REC_WORD	3.329	n/a	STINK	-999	14	[0, 0, 0]	n/a	FR1	0	R1310J
2465.822	3.705	2329684	REC_WORD_VV	3.705	n/a	<>	-999	14	[0, 0, 0]	n/a	FR1	0	R1310J
2469.527	17.687	2333389	REC_WORD	17.687	n/a	DIME	12	14	[0, 0, 0]	n/a	FR1	0	R1310J
2487.214	0.0	2351075	TRIAL_START	n/a	n/a	n/a	-999	15	[0, 0, 0]	n/a	FR1	0	R1310J
2487.214	0.0	2351075	WAITING_START	n/a	n/a	n/a	-999	15	[0, 0, 0]	n/a	FR1	0	R1310J
2487.214	0.0	2351075	TRIAL	n/a	n/a	n/a	-999	15	[0, 0, 0]	n/a	FR1	0	R1310J
2487.214	0.0	2351075	REC_END	n/a	n/a	n/a	-999	14	[0, 0, 0]	n/a	FR1	0	R1310J
2487.214	1.561	2351075	TRIAL_END	n/a	n/a	n/a	-999	14	[0, 0, 0]	n/a	FR1	0	R1310J
2488.775	0.0	2352636	WAITING_END	n/a	n/a	n/a	-999	15	[0, 0, 0]	n/a	FR1	0	R1310J
2488.775	0.0	2352636	COUNTDOWN_START	n/a	n/a	n/a	-999	15	[0, 0, 0]	n/a	FR1	0	R1310J
2488.775	0.0	2352636	COUNTDOWN_END	n/a	n/a	n/a	-999	15	[0, 0, 0]	n/a	FR1	0	R1310J
2488.775	11.602	2352636	ORIENT_START	n/a	n/a	n/a	-999	15	[0, 0, 0]	n/a	FR1	0	R1310J
2500.377	0.0	2364237	ORIENT_END	n/a	n/a	n/a	-999	15	[0, 0, 0]	n/a	FR1	0	R1310J
2500.377	1.024	2364237	ENCODING_START	n/a	n/a	n/a	-999	15	[0, 0, 0]	n/a	FR1	0	R1310J
2501.401	1.626	2365261	WORD	n/a	wordpools/wordpool_EN.txt	SNOW	1	15	[0, 0, 0]	n/a	FR1	0	R1310J
2503.027	1.097	2366887	WORD_OFF	n/a	n/a	SNOW	1	15	[0, 0, 0]	n/a	FR1	0	R1310J
2504.124	1.638	2367984	WORD	n/a	wordpools/wordpool_EN.txt	JAIL	2	15	[0, 0, 0]	n/a	FR1	0	R1310J
2505.762	0.927	2369622	WORD_OFF	n/a	n/a	JAIL	2	15	[0, 0, 0]	n/a	FR1	0	R1310J
2506.689	1.623	2370549	WORD	n/a	wordpools/wordpool_EN.txt	POLE	3	15	[0, 0, 0]	n/a	FR1	0	R1310J
2508.312	0.854	2372172	WORD_OFF	n/a	n/a	POLE	3	15	[0, 0, 0]	n/a	FR1	0	R1310J
2509.166	1.63	2373026	WORD	n/a	wordpools/wordpool_EN.txt	SPRING	4	15	[0, 0, 0]	n/a	FR1	0	R1310J
2510.796	0.758	2374656	WORD_OFF	n/a	n/a	SPRING	4	15	[0, 0, 0]	n/a	FR1	0	R1310J
2511.554	1.625	2375414	WORD	n/a	wordpools/wordpool_EN.txt	COIN	5	15	[0, 0, 0]	n/a	FR1	0	R1310J
2513.179	0.766	2377039	WORD_OFF	n/a	n/a	COIN	5	15	[0, 0, 0]	n/a	FR1	0	R1310J
2513.945	1.635	2377805	WORD	n/a	wordpools/wordpool_EN.txt	PIPE	6	15	[0, 0, 0]	n/a	FR1	0	R1310J
2515.58	0.968	2379440	WORD_OFF	n/a	n/a	PIPE	6	15	[0, 0, 0]	n/a	FR1	0	R1310J
2516.548	1.631	2380408	WORD	n/a	wordpools/wordpool_EN.txt	JAR	7	15	[0, 0, 0]	n/a	FR1	0	R1310J
2518.179	0.915	2382039	WORD_OFF	n/a	n/a	JAR	7	15	[0, 0, 0]	n/a	FR1	0	R1310J
2519.094	1.637	2382954	WORD	n/a	wordpools/wordpool_EN.txt	HORN	8	15	[0, 0, 0]	n/a	FR1	0	R1310J
2520.731	1.016	2384591	WORD_OFF	n/a	n/a	HORN	8	15	[0, 0, 0]	n/a	FR1	0	R1310J
2521.747	1.634	2385607	WORD	n/a	wordpools/wordpool_EN.txt	WORM	9	15	[0, 0, 0]	n/a	FR1	0	R1310J
2523.381	1.013	2387240	WORD_OFF	n/a	n/a	WORM	9	15	[0, 0, 0]	n/a	FR1	0	R1310J
2524.394	1.62	2388253	WORD	n/a	wordpools/wordpool_EN.txt	APE	10	15	[0, 0, 0]	n/a	FR1	0	R1310J
2526.014	1.091	2389873	WORD_OFF	n/a	n/a	APE	10	15	[0, 0, 0]	n/a	FR1	0	R1310J
2527.105	1.627	2390964	WORD	n/a	wordpools/wordpool_EN.txt	HEN	11	15	[0, 0, 0]	n/a	FR1	0	R1310J
2528.732	0.969	2392591	WORD_OFF	n/a	n/a	HEN	11	15	[0, 0, 0]	n/a	FR1	0	R1310J
2529.701	1.631	2393560	WORD	n/a	wordpools/wordpool_EN.txt	CHIN	12	15	[0, 0, 0]	n/a	FR1	0	R1310J
2531.332	0.0	2395191	WORD_OFF	n/a	n/a	CHIN	12	15	[0, 0, 0]	n/a	FR1	0	R1310J
2531.332	0.0	2395191	ENCODING_END	n/a	n/a	n/a	-999	15	[0, 0, 0]	n/a	FR1	0	R1310J
2531.332	0.001	2395191	DISTRACT_START	n/a	n/a	n/a	-999	15	[0, 0, 0]	n/a	FR1	0	R1310J
2531.333	0.016	2395192	START	n/a	n/a	n/a	-999	15	[-999, -999, -999]	n/a	FR1	0	R1310J
2531.349	5.884	2395208	PROB	5.884	n/a	n/a	-999	15	[3, 2, 9]	14	FR1	0	R1310J
2537.233	3.301	2401092	PROB	3.301	n/a	n/a	-999	15	[9, 1, 6]	16	FR1	0	R1310J
2540.534	2.65	2404393	PROB	2.65	n/a	n/a	-999	15	[4, 6, 4]	14	FR1	0	R1310J
2543.184	5.435	2407043	PROB	5.435	n/a	n/a	-999	15	[3, 9, 5]	17	FR1	0	R1310J
2548.619	5.949	2412477	PROB	5.949	n/a	n/a	-999	15	[7, 2, 4]	13	FR1	0	R1310J
2554.568	0.018	2418426	STOP	n/a	n/a	n/a	-999	15	[-999, -999, -999]	n/a	FR1	0	R1310J
2554.586	1.256	2418444	DISTRACT_END	n/a	n/a	n/a	-999	15	[0, 0, 0]	n/a	FR1	0	R1310J
2555.842	1.028	2419700	RETRIEVAL_ORIENT_START	n/a	n/a	n/a	-999	15	[0, 0, 0]	n/a	FR1	0	R1310J
2556.87	0.0	2420728	REC_START	n/a	n/a	n/a	-999	15	[0, 0, 0]	n/a	FR1	0	R1310J
2556.87	0.465	2420728	RETRIEVAL_ORIENT_END	n/a	n/a	n/a	-999	15	[0, 0, 0]	n/a	FR1	0	R1310J
2557.335	1.0	2421193	REC_WORD_VV	1.0	n/a	<>	-999	15	[0, 0, 0]	n/a	FR1	0	R1310J
2558.335	1.0	2422193	REC_WORD_VV	1.0	n/a	<>	-999	15	[0, 0, 0]	n/a	FR1	0	R1310J
2559.335	13.539	2423193	REC_WORD_VV	13.539	n/a	<>	-999	15	[0, 0, 0]	n/a	FR1	0	R1310J
2572.874	14.509	2436731	REC_WORD_VV	14.509	n/a	<>	-999	15	[0, 0, 0]	n/a	FR1	0	R1310J
2587.383	0.0	2451240	REC_END	n/a	n/a	n/a	-999	15	[0, 0, 0]	n/a	FR1	0	R1310J
2587.383	0.0	2451240	TRIAL_END	n/a	n/a	n/a	-999	15	[0, 0, 0]	n/a	FR1	0	R1310J
2587.383	0.0	2451240	TRIAL_START	n/a	n/a	n/a	-999	16	[0, 0, 0]	n/a	FR1	0	R1310J
2587.383	0.0	2451240	TRIAL	n/a	n/a	n/a	-999	16	[0, 0, 0]	n/a	FR1	0	R1310J
2587.383	4.877	2451240	WAITING_START	n/a	n/a	n/a	-999	16	[0, 0, 0]	n/a	FR1	0	R1310J
2592.26	0.0	2456117	WAITING_END	n/a	n/a	n/a	-999	16	[0, 0, 0]	n/a	FR1	0	R1310J
2592.26	0.0	2456117	COUNTDOWN_START	n/a	n/a	n/a	-999	16	[0, 0, 0]	n/a	FR1	0	R1310J
2592.26	0.0	2456117	COUNTDOWN_END	n/a	n/a	n/a	-999	16	[0, 0, 0]	n/a	FR1	0	R1310J
2592.26	11.552	2456117	ORIENT_START	n/a	n/a	n/a	-999	16	[0, 0, 0]	n/a	FR1	0	R1310J
2603.812	0.0	2467668	ORIENT_END	n/a	n/a	n/a	-999	16	[0, 0, 0]	n/a	FR1	0	R1310J
2603.812	0.885	2467668	ENCODING_START	n/a	n/a	n/a	-999	16	[0, 0, 0]	n/a	FR1	0	R1310J
2604.697	1.631	2468553	WORD	n/a	wordpools/wordpool_EN.txt	SPONGE	1	16	[0, 0, 0]	n/a	FR1	0	R1310J
2606.328	0.898	2470184	WORD_OFF	n/a	n/a	SPONGE	1	16	[0, 0, 0]	n/a	FR1	0	R1310J
2607.226	1.636	2471082	WORD	n/a	wordpools/wordpool_EN.txt	SHIELD	2	16	[0, 0, 0]	n/a	FR1	0	R1310J
2608.862	1.026	2472718	WORD_OFF	n/a	n/a	SHIELD	2	16	[0, 0, 0]	n/a	FR1	0	R1310J
2609.888	1.625	2473744	WORD	n/a	wordpools/wordpool_EN.txt	FOOT	3	16	[0, 0, 0]	n/a	FR1	0	R1310J
2611.513	1.149	2475369	WORD_OFF	n/a	n/a	FOOT	3	16	[0, 0, 0]	n/a	FR1	0	R1310J
2612.662	1.635	2476518	WORD	n/a	wordpools/wordpool_EN.txt	MOTH	4	16	[0, 0, 0]	n/a	FR1	0	R1310J
2614.297	0.791	2478153	WORD_OFF	n/a	n/a	MOTH	4	16	[0, 0, 0]	n/a	FR1	0	R1310J
2615.088	1.626	2478944	WORD	n/a	wordpools/wordpool_EN.txt	SALT	5	16	[0, 0, 0]	n/a	FR1	0	R1310J
2616.714	0.771	2480570	WORD_OFF	n/a	n/a	SALT	5	16	[0, 0, 0]	n/a	FR1	0	R1310J
2617.485	1.628	2481341	WORD	n/a	wordpools/wordpool_EN.txt	LAMP	6	16	[0, 0, 0]	n/a	FR1	0	R1310J
2619.113	1.011	2482969	WORD_OFF	n/a	n/a	LAMP	6	16	[0, 0, 0]	n/a	FR1	0	R1310J
2620.124	1.624	2483979	WORD	n/a	wordpools/wordpool_EN.txt	CLOUD	7	16	[0, 0, 0]	n/a	FR1	0	R1310J
2621.748	1.075	2485603	WORD_OFF	n/a	n/a	CLOUD	7	16	[0, 0, 0]	n/a	FR1	0	R1310J
2622.823	1.625	2486678	WORD	n/a	wordpools/wordpool_EN.txt	NET	8	16	[0, 0, 0]	n/a	FR1	0	R1310J
2624.448	0.847	2488303	WORD_OFF	n/a	n/a	NET	8	16	[0, 0, 0]	n/a	FR1	0	R1310J
2625.295	1.637	2489150	WORD	n/a	wordpools/wordpool_EN.txt	EEL	9	16	[0, 0, 0]	n/a	FR1	0	R1310J
2626.932	0.954	2490787	WORD_OFF	n/a	n/a	EEL	9	16	[0, 0, 0]	n/a	FR1	0	R1310J
2627.886	1.63	2491741	WORD	n/a	wordpools/wordpool_EN.txt	MOON	10	16	[0, 0, 0]	n/a	FR1	0	R1310J
2629.516	0.774	2493371	WORD_OFF	n/a	n/a	MOON	10	16	[0, 0, 0]	n/a	FR1	0	R1310J
2630.29	1.626	2494145	WORD	n/a	wordpools/wordpool_EN.txt	NEST	11	16	[0, 0, 0]	n/a	FR1	0	R1310J
2631.916	0.955	2495771	WORD_OFF	n/a	n/a	NEST	11	16	[0, 0, 0]	n/a	FR1	0	R1310J
2632.871	1.629	2496726	WORD	n/a	wordpools/wordpool_EN.txt	SLIME	12	16	[0, 0, 0]	n/a	FR1	0	R1310J
2634.5	0.0	2498355	DISTRACT_START	n/a	n/a	n/a	-999	16	[0, 0, 0]	n/a	FR1	0	R1310J
2634.5	0.0	2498355	WORD_OFF	n/a	n/a	SLIME	12	16	[0, 0, 0]	n/a	FR1	0	R1310J
2634.5	0.001	2498355	ENCODING_END	n/a	n/a	n/a	-999	16	[0, 0, 0]	n/a	FR1	0	R1310J
2634.501	0.016	2498356	START	n/a	n/a	n/a	-999	16	[-999, -999, -999]	n/a	FR1	0	R1310J
2634.517	4.516	2498372	PROB	4.516	n/a	n/a	-999	16	[7, 9, 2]	18	FR1	0	R1310J
2639.033	2.618	2502888	PROB	2.618	n/a	n/a	-999	16	[9, 9, 1]	19	FR1	0	R1310J
2641.651	6.218	2505506	PROB	6.218	n/a	n/a	-999	16	[1, 1, 5]	7	FR1	0	R1310J
2647.869	2.684	2511723	PROB	2.684	n/a	n/a	-999	16	[1, 8, 2]	11	FR1	0	R1310J
2650.553	4.052	2514407	PROB	4.052	n/a	n/a	-999	16	[3, 3, 2]	8	FR1	0	R1310J
2654.605	0.015	2518459	STOP	n/a	n/a	n/a	-999	16	[-999, -999, -999]	n/a	FR1	0	R1310J
2654.62	1.096	2518474	DISTRACT_END	n/a	n/a	n/a	-999	16	[0, 0, 0]	n/a	FR1	0	R1310J
2655.716	1.021	2519570	RETRIEVAL_ORIENT_START	n/a	n/a	n/a	-999	16	[0, 0, 0]	n/a	FR1	0	R1310J
2656.737	0.0	2520591	RETRIEVAL_ORIENT_END	n/a	n/a	n/a	-999	16	[0, 0, 0]	n/a	FR1	0	R1310J
2656.737	0.0	2520591	REC_START	n/a	n/a	n/a	-999	16	[0, 0, 0]	n/a	FR1	0	R1310J
2656.737	1.16	2520591	REC_WORD	1.16	n/a	SPONGE	1	16	[0, 0, 0]	n/a	FR1	0	R1310J
2657.897	0.91	2521751	REC_WORD	0.91	n/a	SHIELD	2	16	[0, 0, 0]	n/a	FR1	0	R1310J
2658.807	0.55	2522661	REC_WORD	0.55	n/a	FOOT	3	16	[0, 0, 0]	n/a	FR1	0	R1310J
2659.357	0.85	2523211	REC_WORD	0.85	n/a	MOTH	4	16	[0, 0, 0]	n/a	FR1	0	R1310J
2660.207	2.965	2524061	REC_WORD	2.965	n/a	NEST	11	16	[0, 0, 0]	n/a	FR1	0	R1310J
2663.172	24.076	2527026	REC_WORD	24.076	n/a	MOON	10	16	[0, 0, 0]	n/a	FR1	0	R1310J
2687.248	0.0	2551101	WAITING_START	n/a	n/a	n/a	-999	17	[0, 0, 0]	n/a	FR1	0	R1310J
2687.248	0.0	2551101	REC_END	n/a	n/a	n/a	-999	16	[0, 0, 0]	n/a	FR1	0	R1310J
2687.248	0.0	2551101	TRIAL_END	n/a	n/a	n/a	-999	16	[0, 0, 0]	n/a	FR1	0	R1310J
2687.248	0.0	2551101	TRIAL_START	n/a	n/a	n/a	-999	17	[0, 0, 0]	n/a	FR1	0	R1310J
2687.248	1.511	2551101	TRIAL	n/a	n/a	n/a	-999	17	[0, 0, 0]	n/a	FR1	0	R1310J
2688.759	0.0	2552612	ORIENT_START	n/a	n/a	n/a	-999	17	[0, 0, 0]	n/a	FR1	0	R1310J
2688.759	0.0	2552612	COUNTDOWN_END	n/a	n/a	n/a	-999	17	[0, 0, 0]	n/a	FR1	0	R1310J
2688.759	0.0	2552612	COUNTDOWN_START	n/a	n/a	n/a	-999	17	[0, 0, 0]	n/a	FR1	0	R1310J
2688.759	11.619	2552612	WAITING_END	n/a	n/a	n/a	-999	17	[0, 0, 0]	n/a	FR1	0	R1310J
2700.378	0.0	2564230	ORIENT_END	n/a	n/a	n/a	-999	17	[0, 0, 0]	n/a	FR1	0	R1310J
2700.378	0.983	2564230	ENCODING_START	n/a	n/a	n/a	-999	17	[0, 0, 0]	n/a	FR1	0	R1310J
2701.361	1.634	2565213	WORD	n/a	wordpools/wordpool_EN.txt	PASTE	1	17	[0, 0, 0]	n/a	FR1	0	R1310J
2702.995	0.954	2566847	WORD_OFF	n/a	n/a	PASTE	1	17	[0, 0, 0]	n/a	FR1	0	R1310J
2703.949	1.63	2567801	WORD	n/a	wordpools/wordpool_EN.txt	HAT	2	17	[0, 0, 0]	n/a	FR1	0	R1310J
2705.579	0.785	2569431	WORD_OFF	n/a	n/a	HAT	2	17	[0, 0, 0]	n/a	FR1	0	R1310J
2706.364	1.632	2570216	WORD	n/a	wordpools/wordpool_EN.txt	TRAY	3	17	[0, 0, 0]	n/a	FR1	0	R1310J
2707.996	0.934	2571848	WORD_OFF	n/a	n/a	TRAY	3	17	[0, 0, 0]	n/a	FR1	0	R1310J
2708.93	1.633	2572782	WORD	n/a	wordpools/wordpool_EN.txt	BRIDGE	4	17	[0, 0, 0]	n/a	FR1	0	R1310J
2710.563	0.859	2574415	WORD_OFF	n/a	n/a	BRIDGE	4	17	[0, 0, 0]	n/a	FR1	0	R1310J
2711.422	1.624	2575274	WORD	n/a	wordpools/wordpool_EN.txt	FOAM	5	17	[0, 0, 0]	n/a	FR1	0	R1310J
2713.046	0.908	2576898	WORD_OFF	n/a	n/a	FOAM	5	17	[0, 0, 0]	n/a	FR1	0	R1310J
2713.954	1.626	2577806	WORD	n/a	wordpools/wordpool_EN.txt	FOOD	6	17	[0, 0, 0]	n/a	FR1	0	R1310J
2715.58	1.038	2579432	WORD_OFF	n/a	n/a	FOOD	6	17	[0, 0, 0]	n/a	FR1	0	R1310J
2716.618	1.629	2580470	WORD	n/a	wordpools/wordpool_EN.txt	TREE	7	17	[0, 0, 0]	n/a	FR1	0	R1310J
2718.247	0.909	2582098	WORD_OFF	n/a	n/a	TREE	7	17	[0, 0, 0]	n/a	FR1	0	R1310J
2719.156	1.625	2583007	WORD	n/a	wordpools/wordpool_EN.txt	LOCK	8	17	[0, 0, 0]	n/a	FR1	0	R1310J
2720.781	0.838	2584632	WORD_OFF	n/a	n/a	LOCK	8	17	[0, 0, 0]	n/a	FR1	0	R1310J
2721.619	1.628	2585470	WORD	n/a	wordpools/wordpool_EN.txt	GLASS	9	17	[0, 0, 0]	n/a	FR1	0	R1310J
2723.247	1.058	2587098	WORD_OFF	n/a	n/a	GLASS	9	17	[0, 0, 0]	n/a	FR1	0	R1310J
2724.305	1.627	2588156	WORD	n/a	wordpools/wordpool_EN.txt	GOLD	10	17	[0, 0, 0]	n/a	FR1	0	R1310J
2725.932	1.053	2589783	WORD_OFF	n/a	n/a	GOLD	10	17	[0, 0, 0]	n/a	FR1	0	R1310J
2726.985	1.631	2590836	WORD	n/a	wordpools/wordpool_EN.txt	BLUSH	11	17	[0, 0, 0]	n/a	FR1	0	R1310J
2728.616	1.081	2592467	WORD_OFF	n/a	n/a	BLUSH	11	17	[0, 0, 0]	n/a	FR1	0	R1310J
2729.697	1.636	2593548	WORD	n/a	wordpools/wordpool_EN.txt	SKY	12	17	[0, 0, 0]	n/a	FR1	0	R1310J
2731.333	0.0	2595184	DISTRACT_START	n/a	n/a	n/a	-999	17	[0, 0, 0]	n/a	FR1	0	R1310J
2731.333	0.0	2595184	ENCODING_END	n/a	n/a	n/a	-999	17	[0, 0, 0]	n/a	FR1	0	R1310J
2731.333	0.001	2595184	WORD_OFF	n/a	n/a	SKY	12	17	[0, 0, 0]	n/a	FR1	0	R1310J
2731.334	0.016	2595185	START	n/a	n/a	n/a	-999	17	[-999, -999, -999]	n/a	FR1	0	R1310J
2731.35	3.384	2595201	PROB	3.384	n/a	n/a	-999	17	[5, 5, 9]	19	FR1	0	R1310J
2734.734	2.9	2598585	PROB	2.9	n/a	n/a	-999	17	[2, 7, 2]	11	FR1	0	R1310J
2737.634	2.55	2601485	PROB	2.55	n/a	n/a	-999	17	[9, 9, 1]	19	FR1	0	R1310J
2740.184	3.184	2604035	PROB	3.184	n/a	n/a	-999	17	[9, 8, 2]	19	FR1	0	R1310J
2743.368	3.501	2607218	PROB	3.501	n/a	n/a	-999	17	[4, 8, 7]	19	FR1	0	R1310J
2746.869	3.467	2610719	PROB	3.467	n/a	n/a	-999	17	[5, 8, 8]	21	FR1	0	R1310J
2750.336	4.584	2614186	PROB	4.584	n/a	n/a	-999	17	[7, 5, 4]	16	FR1	0	R1310J
2754.92	0.017	2618770	STOP	n/a	n/a	n/a	-999	17	[-999, -999, -999]	n/a	FR1	0	R1310J
2754.937	1.243	2618787	DISTRACT_END	n/a	n/a	n/a	-999	17	[0, 0, 0]	n/a	FR1	0	R1310J
2756.18	1.023	2620030	RETRIEVAL_ORIENT_START	n/a	n/a	n/a	-999	17	[0, 0, 0]	n/a	FR1	0	R1310J
2757.203	0.0	2621053	RETRIEVAL_ORIENT_END	n/a	n/a	n/a	-999	17	[0, 0, 0]	n/a	FR1	0	R1310J
2757.203	0.49	2621053	REC_START	n/a	n/a	n/a	-999	17	[0, 0, 0]	n/a	FR1	0	R1310J
2757.693	4.77	2621543	REC_WORD_VV	4.77	n/a	<>	-999	17	[0, 0, 0]	n/a	FR1	0	R1310J
2762.463	0.59	2626313	REC_WORD	0.59	n/a	HAT	2	17	[0, 0, 0]	n/a	FR1	0	R1310J
2763.053	0.685	2626903	REC_WORD	0.685	n/a	BRIDGE	4	17	[0, 0, 0]	n/a	FR1	0	R1310J
2763.738	1.625	2627588	REC_WORD	1.625	n/a	TRAY	3	17	[0, 0, 0]	n/a	FR1	0	R1310J
2765.363	17.02	2629212	REC_WORD_VV	17.02	n/a	<>	-999	17	[0, 0, 0]	n/a	FR1	0	R1310J
2782.383	5.332	2646232	REC_WORD	5.332	n/a	PASTE	1	17	[0, 0, 0]	n/a	FR1	0	R1310J
2787.715	0.0	2651564	TRIAL_END	n/a	n/a	n/a	-999	17	[0, 0, 0]	n/a	FR1	0	R1310J
2787.715	0.0	2651564	WAITING_START	n/a	n/a	n/a	-999	18	[0, 0, 0]	n/a	FR1	0	R1310J
2787.715	0.0	2651564	REC_END	n/a	n/a	n/a	-999	17	[0, 0, 0]	n/a	FR1	0	R1310J
2787.715	0.0	2651564	TRIAL_START	n/a	n/a	n/a	-999	18	[0, 0, 0]	n/a	FR1	0	R1310J
2787.715	1.811	2651564	TRIAL	n/a	n/a	n/a	-999	18	[0, 0, 0]	n/a	FR1	0	R1310J
2789.526	0.0	2653374	WAITING_END	n/a	n/a	n/a	-999	18	[0, 0, 0]	n/a	FR1	0	R1310J
2789.526	0.0	2653374	COUNTDOWN_START	n/a	n/a	n/a	-999	18	[0, 0, 0]	n/a	FR1	0	R1310J
2789.526	0.0	2653374	COUNTDOWN_END	n/a	n/a	n/a	-999	18	[0, 0, 0]	n/a	FR1	0	R1310J
2789.526	11.551	2653374	ORIENT_START	n/a	n/a	n/a	-999	18	[0, 0, 0]	n/a	FR1	0	R1310J
2801.077	0.0	2664925	ORIENT_END	n/a	n/a	n/a	-999	18	[0, 0, 0]	n/a	FR1	0	R1310J
2801.077	0.814	2664925	ENCODING_START	n/a	n/a	n/a	-999	18	[0, 0, 0]	n/a	FR1	0	R1310J
2801.891	1.638	2665739	WORD	n/a	wordpools/wordpool_EN.txt	BUSH	1	18	[0, 0, 0]	n/a	FR1	0	R1310J
2803.529	0.789	2667377	WORD_OFF	n/a	n/a	BUSH	1	18	[0, 0, 0]	n/a	FR1	0	R1310J
2804.318	1.628	2668166	WORD	n/a	wordpools/wordpool_EN.txt	FILM	2	18	[0, 0, 0]	n/a	FR1	0	R1310J
2805.946	1.036	2669794	WORD_OFF	n/a	n/a	FILM	2	18	[0, 0, 0]	n/a	FR1	0	R1310J
2806.982	1.631	2670830	WORD	n/a	wordpools/wordpool_EN.txt	CROW	3	18	[0, 0, 0]	n/a	FR1	0	R1310J
2808.613	1.056	2672461	WORD_OFF	n/a	n/a	CROW	3	18	[0, 0, 0]	n/a	FR1	0	R1310J
2809.669	1.628	2673517	WORD	n/a	wordpools/wordpool_EN.txt	CORD	4	18	[0, 0, 0]	n/a	FR1	0	R1310J
2811.297	0.866	2675145	WORD_OFF	n/a	n/a	CORD	4	18	[0, 0, 0]	n/a	FR1	0	R1310J
2812.163	1.634	2676011	WORD	n/a	wordpools/wordpool_EN.txt	FUDGE	5	18	[0, 0, 0]	n/a	FR1	0	R1310J
2813.797	0.815	2677644	WORD_OFF	n/a	n/a	FUDGE	5	18	[0, 0, 0]	n/a	FR1	0	R1310J
2814.612	1.634	2678459	WORD	n/a	wordpools/wordpool_EN.txt	POND	6	18	[0, 0, 0]	n/a	FR1	0	R1310J
2816.246	0.895	2680093	WORD_OFF	n/a	n/a	POND	6	18	[0, 0, 0]	n/a	FR1	0	R1310J
2817.141	1.607	2680988	WORD	n/a	wordpools/wordpool_EN.txt	OWL	7	18	[0, 0, 0]	n/a	FR1	0	R1310J
2818.748	0.972	2682595	WORD_OFF	n/a	n/a	OWL	7	18	[0, 0, 0]	n/a	FR1	0	R1310J
2819.72	1.628	2683567	WORD	n/a	wordpools/wordpool_EN.txt	MAZE	8	18	[0, 0, 0]	n/a	FR1	0	R1310J
2821.348	0.772	2685195	WORD_OFF	n/a	n/a	MAZE	8	18	[0, 0, 0]	n/a	FR1	0	R1310J
2822.12	1.629	2685967	WORD	n/a	wordpools/wordpool_EN.txt	BAND	9	18	[0, 0, 0]	n/a	FR1	0	R1310J
2823.749	0.924	2687596	WORD_OFF	n/a	n/a	BAND	9	18	[0, 0, 0]	n/a	FR1	0	R1310J
2824.673	1.626	2688520	WORD	n/a	wordpools/wordpool_EN.txt	STRAW	10	18	[0, 0, 0]	n/a	FR1	0	R1310J
2826.299	1.038	2690146	WORD_OFF	n/a	n/a	STRAW	10	18	[0, 0, 0]	n/a	FR1	0	R1310J
2827.337	1.629	2691184	WORD	n/a	wordpools/wordpool_EN.txt	ARK	11	18	[0, 0, 0]	n/a	FR1	0	R1310J
2828.966	1.144	2692813	WORD_OFF	n/a	n/a	ARK	11	18	[0, 0, 0]	n/a	FR1	0	R1310J
2830.11	1.623	2693957	WORD	n/a	wordpools/wordpool_EN.txt	HOOF	12	18	[0, 0, 0]	n/a	FR1	0	R1310J
2831.733	0.0	2695580	DISTRACT_START	n/a	n/a	n/a	-999	18	[0, 0, 0]	n/a	FR1	0	R1310J
2831.733	0.0	2695580	ENCODING_END	n/a	n/a	n/a	-999	18	[0, 0, 0]	n/a	FR1	0	R1310J
2831.733	0.001	2695580	WORD_OFF	n/a	n/a	HOOF	12	18	[0, 0, 0]	n/a	FR1	0	R1310J
2831.734	0.016	2695581	START	n/a	n/a	n/a	-999	18	[-999, -999, -999]	n/a	FR1	0	R1310J
2831.75	3.534	2695597	PROB	3.534	n/a	n/a	-999	18	[8, 5, 1]	14	FR1	0	R1310J
2835.284	4.367	2699131	PROB	4.367	n/a	n/a	-999	18	[7, 1, 5]	13	FR1	0	R1310J
2839.651	3.751	2703497	PROB	3.751	n/a	n/a	-999	18	[2, 2, 1]	5	FR1	0	R1310J
2843.402	8.452	2707248	PROB	8.452	n/a	n/a	-999	18	[6, 8, 4]	18	FR1	0	R1310J
2851.854	0.016	2715700	STOP	n/a	n/a	n/a	-999	18	[-999, -999, -999]	n/a	FR1	0	R1310J
2851.87	1.17	2715716	DISTRACT_END	n/a	n/a	n/a	-999	18	[0, 0, 0]	n/a	FR1	0	R1310J
2853.04	1.03	2716886	RETRIEVAL_ORIENT_START	n/a	n/a	n/a	-999	18	[0, 0, 0]	n/a	FR1	0	R1310J
2854.07	0.0	2717916	RETRIEVAL_ORIENT_END	n/a	n/a	n/a	-999	18	[0, 0, 0]	n/a	FR1	0	R1310J
2854.07	0.555	2717916	REC_START	n/a	n/a	n/a	-999	18	[0, 0, 0]	n/a	FR1	0	R1310J
2854.625	0.545	2718471	REC_WORD_VV	0.545	n/a	<>	-999	18	[0, 0, 0]	n/a	FR1	0	R1310J
2855.17	0.47	2719016	REC_WORD	0.47	n/a	BUSH	1	18	[0, 0, 0]	n/a	FR1	0	R1310J
2855.64	0.7	2719486	REC_WORD	0.7	n/a	FILM	2	18	[0, 0, 0]	n/a	FR1	0	R1310J
2856.34	0.965	2720186	REC_WORD	0.965	n/a	CORD	4	18	[0, 0, 0]	n/a	FR1	0	R1310J
2857.305	2.48	2721151	REC_WORD	2.48	n/a	CROW	3	18	[0, 0, 0]	n/a	FR1	0	R1310J
2859.785	1.836	2723631	REC_WORD_VV	1.836	n/a	<>	-999	18	[0, 0, 0]	n/a	FR1	0	R1310J
2861.621	22.959	2725467	REC_WORD	22.959	n/a	MAZE	8	18	[0, 0, 0]	n/a	FR1	0	R1310J
2884.58	0.0	2748425	REC_END	n/a	n/a	n/a	-999	18	[0, 0, 0]	n/a	FR1	0	R1310J
2884.58	0.0	2748425	TRIAL_END	n/a	n/a	n/a	-999	18	[0, 0, 0]	n/a	FR1	0	R1310J
2884.58	0.0	2748425	TRIAL_START	n/a	n/a	n/a	-999	19	[0, 0, 0]	n/a	FR1	0	R1310J
2884.58	0.0	2748425	TRIAL	n/a	n/a	n/a	-999	19	[0, 0, 0]	n/a	FR1	0	R1310J
2884.58	1.412	2748425	WAITING_START	n/a	n/a	n/a	-999	19	[0, 0, 0]	n/a	FR1	0	R1310J
2885.992	0.0	2749837	ORIENT_START	n/a	n/a	n/a	-999	19	[0, 0, 0]	n/a	FR1	0	R1310J
2885.992	0.0	2749837	COUNTDOWN_END	n/a	n/a	n/a	-999	19	[0, 0, 0]	n/a	FR1	0	R1310J
2885.992	0.0	2749837	WAITING_END	n/a	n/a	n/a	-999	19	[0, 0, 0]	n/a	FR1	0	R1310J
2885.992	11.686	2749837	COUNTDOWN_START	n/a	n/a	n/a	-999	19	[0, 0, 0]	n/a	FR1	0	R1310J
2897.678	0.0	2761522	ORIENT_END	n/a	n/a	n/a	-999	19	[0, 0, 0]	n/a	FR1	0	R1310J
2897.678	1.011	2761522	ENCODING_START	n/a	n/a	n/a	-999	19	[0, 0, 0]	n/a	FR1	0	R1310J
2898.689	1.623	2762533	WORD	n/a	wordpools/wordpool_EN.txt	DOLL	1	19	[0, 0, 0]	n/a	FR1	0	R1310J
2900.312	0.919	2764156	WORD_OFF	n/a	n/a	DOLL	1	19	[0, 0, 0]	n/a	FR1	0	R1310J
2901.231	1.615	2765075	WORD	n/a	wordpools/wordpool_EN.txt	RAIN	2	19	[0, 0, 0]	n/a	FR1	0	R1310J
2902.846	0.901	2766690	WORD_OFF	n/a	n/a	RAIN	2	19	[0, 0, 0]	n/a	FR1	0	R1310J
2903.747	1.632	2767591	WORD	n/a	wordpools/wordpool_EN.txt	SHRIMP	3	19	[0, 0, 0]	n/a	FR1	0	R1310J
2905.379	1.113	2769223	WORD_OFF	n/a	n/a	SHRIMP	3	19	[0, 0, 0]	n/a	FR1	0	R1310J
2906.492	1.637	2770336	WORD	n/a	wordpools/wordpool_EN.txt	PEN	4	19	[0, 0, 0]	n/a	FR1	0	R1310J
2908.129	1.131	2771973	WORD_OFF	n/a	n/a	PEN	4	19	[0, 0, 0]	n/a	FR1	0	R1310J
2909.26	1.637	2773104	WORD	n/a	wordpools/wordpool_EN.txt	WEED	5	19	[0, 0, 0]	n/a	FR1	0	R1310J
2910.897	0.819	2774740	WORD_OFF	n/a	n/a	WEED	5	19	[0, 0, 0]	n/a	FR1	0	R1310J
2911.716	1.631	2775559	WORD	n/a	wordpools/wordpool_EN.txt	SHEET	6	19	[0, 0, 0]	n/a	FR1	0	R1310J
2913.347	1.103	2777190	WORD_OFF	n/a	n/a	SHEET	6	19	[0, 0, 0]	n/a	FR1	0	R1310J
2914.45	1.63	2778293	WORD	n/a	wordpools/wordpool_EN.txt	TEA	7	19	[0, 0, 0]	n/a	FR1	0	R1310J
2916.08	0.879	2779923	WORD_OFF	n/a	n/a	TEA	7	19	[0, 0, 0]	n/a	FR1	0	R1310J
2916.959	1.623	2780802	WORD	n/a	wordpools/wordpool_EN.txt	FLAG	8	19	[0, 0, 0]	n/a	FR1	0	R1310J
2918.582	0.902	2782425	WORD_OFF	n/a	n/a	FLAG	8	19	[0, 0, 0]	n/a	FR1	0	R1310J
2919.484	1.63	2783327	WORD	n/a	wordpools/wordpool_EN.txt	CAT	9	19	[0, 0, 0]	n/a	FR1	0	R1310J
2921.114	1.061	2784957	WORD_OFF	n/a	n/a	CAT	9	19	[0, 0, 0]	n/a	FR1	0	R1310J
2922.175	1.624	2786018	WORD	n/a	wordpools/wordpool_EN.txt	PLANE	10	19	[0, 0, 0]	n/a	FR1	0	R1310J
2923.799	1.106	2787642	WORD_OFF	n/a	n/a	PLANE	10	19	[0, 0, 0]	n/a	FR1	0	R1310J
2924.905	1.628	2788748	WORD	n/a	wordpools/wordpool_EN.txt	FLUTE	11	19	[0, 0, 0]	n/a	FR1	0	R1310J
2926.533	1.069	2790376	WORD_OFF	n/a	n/a	FLUTE	11	19	[0, 0, 0]	n/a	FR1	0	R1310J
2927.602	1.63	2791445	WORD	n/a	wordpools/wordpool_EN.txt	WHEEL	12	19	[0, 0, 0]	n/a	FR1	0	R1310J
2929.232	0.0	2793075	DISTRACT_START	n/a	n/a	n/a	-999	19	[0, 0, 0]	n/a	FR1	0	R1310J
2929.232	0.0	2793075	WORD_OFF	n/a	n/a	WHEEL	12	19	[0, 0, 0]	n/a	FR1	0	R1310J
2929.232	0.001	2793075	ENCODING_END	n/a	n/a	n/a	-999	19	[0, 0, 0]	n/a	FR1	0	R1310J
2929.233	0.016	2793076	START	n/a	n/a	n/a	-999	19	[-999, -999, -999]	n/a	FR1	0	R1310J
2929.249	6.569	2793092	PROB	6.569	n/a	n/a	-999	19	[9, 6, 9]	24	FR1	0	R1310J
2935.818	3.249	2799660	PROB	3.249	n/a	n/a	-999	19	[2, 4, 2]	8	FR1	0	R1310J
2939.067	3.934	2802909	PROB	3.934	n/a	n/a	-999	19	[7, 8, 1]	16	FR1	0	R1310J
2943.001	3.969	2806843	PROB	3.969	n/a	n/a	-999	19	[7, 3, 9]	19	FR1	0	R1310J
2946.97	3.319	2810812	PROB	3.319	n/a	n/a	-999	19	[5, 8, 5]	18	FR1	0	R1310J
2950.289	0.014	2814131	STOP	n/a	n/a	n/a	-999	19	[-999, -999, -999]	n/a	FR1	0	R1310J
2950.303	1.217	2814145	DISTRACT_END	n/a	n/a	n/a	-999	19	[0, 0, 0]	n/a	FR1	0	R1310J
2951.52	1.034	2815362	RETRIEVAL_ORIENT_START	n/a	n/a	n/a	-999	19	[0, 0, 0]	n/a	FR1	0	R1310J
2952.554	0.0	2816396	RETRIEVAL_ORIENT_END	n/a	n/a	n/a	-999	19	[0, 0, 0]	n/a	FR1	0	R1310J
2952.554	0.629	2816396	REC_START	n/a	n/a	n/a	-999	19	[0, 0, 0]	n/a	FR1	0	R1310J
2953.183	0.585	2817025	REC_WORD_VV	0.585	n/a	<>	-999	19	[0, 0, 0]	n/a	FR1	0	R1310J
2953.768	0.64	2817610	REC_WORD	0.64	n/a	DOLL	1	19	[0, 0, 0]	n/a	FR1	0	R1310J
2954.408	0.85	2818250	REC_WORD	0.85	n/a	RAIN	2	19	[0, 0, 0]	n/a	FR1	0	R1310J
2955.258	1.07	2819100	REC_WORD	1.07	n/a	SHRIMP	3	19	[0, 0, 0]	n/a	FR1	0	R1310J
2956.328	1.451	2820170	REC_WORD	1.451	n/a	PEN	4	19	[0, 0, 0]	n/a	FR1	0	R1310J
2957.779	2.47	2821621	REC_WORD	2.47	n/a	WEED	5	19	[0, 0, 0]	n/a	FR1	0	R1310J
2960.249	2.22	2824090	REC_WORD_VV	2.22	n/a	<>	-999	19	[0, 0, 0]	n/a	FR1	0	R1310J
2962.469	15.175	2826310	REC_WORD	15.175	n/a	PLANE	10	19	[0, 0, 0]	n/a	FR1	0	R1310J
2977.644	5.423	2841485	REC_WORD	5.423	n/a	MAZE	-999	19	[0, 0, 0]	n/a	FR1	0	R1310J
2983.067	0.0	2846908	WAITING_START	n/a	n/a	n/a	-999	20	[0, 0, 0]	n/a	FR1	0	R1310J
2983.067	0.0	2846908	TRIAL	n/a	n/a	n/a	-999	20	[0, 0, 0]	n/a	FR1	0	R1310J
2983.067	0.0	2846908	TRIAL_END	n/a	n/a	n/a	-999	19	[0, 0, 0]	n/a	FR1	0	R1310J
2983.067	0.0	2846908	REC_END	n/a	n/a	n/a	-999	19	[0, 0, 0]	n/a	FR1	0	R1310J
2983.067	2.175	2846908	TRIAL_START	n/a	n/a	n/a	-999	20	[0, 0, 0]	n/a	FR1	0	R1310J
2985.242	0.0	2849082	WAITING_END	n/a	n/a	n/a	-999	20	[0, 0, 0]	n/a	FR1	0	R1310J
2985.242	0.0	2849082	COUNTDOWN_START	n/a	n/a	n/a	-999	20	[0, 0, 0]	n/a	FR1	0	R1310J
2985.242	0.0	2849082	COUNTDOWN_END	n/a	n/a	n/a	-999	20	[0, 0, 0]	n/a	FR1	0	R1310J
2985.242	11.653	2849082	ORIENT_START	n/a	n/a	n/a	-999	20	[0, 0, 0]	n/a	FR1	0	R1310J
2996.895	0.0	2860735	ORIENT_END	n/a	n/a	n/a	-999	20	[0, 0, 0]	n/a	FR1	0	R1310J
2996.895	1.138	2860735	ENCODING_START	n/a	n/a	n/a	-999	20	[0, 0, 0]	n/a	FR1	0	R1310J
2998.033	1.629	2861873	WORD	n/a	wordpools/wordpool_EN.txt	WALL	1	20	[0, 0, 0]	n/a	FR1	0	R1310J
2999.662	1.119	2863502	WORD_OFF	n/a	n/a	WALL	1	20	[0, 0, 0]	n/a	FR1	0	R1310J
3000.781	1.631	2864621	WORD	n/a	wordpools/wordpool_EN.txt	SPOON	2	20	[0, 0, 0]	n/a	FR1	0	R1310J
3002.412	0.807	2866252	WORD_OFF	n/a	n/a	SPOON	2	20	[0, 0, 0]	n/a	FR1	0	R1310J
3003.219	1.627	2867059	WORD	n/a	wordpools/wordpool_EN.txt	CALF	3	20	[0, 0, 0]	n/a	FR1	0	R1310J
3004.846	1.131	2868686	WORD_OFF	n/a	n/a	CALF	3	20	[0, 0, 0]	n/a	FR1	0	R1310J
3005.977	1.636	2869817	WORD	n/a	wordpools/wordpool_EN.txt	CAPE	4	20	[0, 0, 0]	n/a	FR1	0	R1310J
3007.613	0.753	2871452	WORD_OFF	n/a	n/a	CAPE	4	20	[0, 0, 0]	n/a	FR1	0	R1310J
3008.366	1.631	2872205	WORD	n/a	wordpools/wordpool_EN.txt	THREAD	5	20	[0, 0, 0]	n/a	FR1	0	R1310J
3009.997	0.805	2873836	WORD_OFF	n/a	n/a	THREAD	5	20	[0, 0, 0]	n/a	FR1	0	R1310J
3010.802	1.629	2874641	WORD	n/a	wordpools/wordpool_EN.txt	BRANCH	6	20	[0, 0, 0]	n/a	FR1	0	R1310J
3012.431	1.02	2876270	WORD_OFF	n/a	n/a	BRANCH	6	20	[0, 0, 0]	n/a	FR1	0	R1310J
3013.451	1.629	2877290	WORD	n/a	wordpools/wordpool_EN.txt	ELF	7	20	[0, 0, 0]	n/a	FR1	0	R1310J
3015.08	1.145	2878919	WORD_OFF	n/a	n/a	ELF	7	20	[0, 0, 0]	n/a	FR1	0	R1310J
3016.225	1.623	2880064	WORD	n/a	wordpools/wordpool_EN.txt	CUP	8	20	[0, 0, 0]	n/a	FR1	0	R1310J
3017.848	0.954	2881687	WORD_OFF	n/a	n/a	CUP	8	20	[0, 0, 0]	n/a	FR1	0	R1310J
3018.802	1.63	2882641	WORD	n/a	wordpools/wordpool_EN.txt	HOUSE	9	20	[0, 0, 0]	n/a	FR1	0	R1310J
3020.432	0.927	2884271	WORD_OFF	n/a	n/a	HOUSE	9	20	[0, 0, 0]	n/a	FR1	0	R1310J
3021.359	1.624	2885198	WORD	n/a	wordpools/wordpool_EN.txt	WOLF	10	20	[0, 0, 0]	n/a	FR1	0	R1310J
3022.983	1.081	2886822	WORD_OFF	n/a	n/a	WOLF	10	20	[0, 0, 0]	n/a	FR1	0	R1310J
3024.064	1.636	2887903	WORD	n/a	wordpools/wordpool_EN.txt	CAKE	11	20	[0, 0, 0]	n/a	FR1	0	R1310J
3025.7	0.813	2889539	WORD_OFF	n/a	n/a	CAKE	11	20	[0, 0, 0]	n/a	FR1	0	R1310J
3026.513	1.636	2890352	WORD	n/a	wordpools/wordpool_EN.txt	OAR	12	20	[0, 0, 0]	n/a	FR1	0	R1310J
3028.149	0.0	2891988	WORD_OFF	n/a	n/a	OAR	12	20	[0, 0, 0]	n/a	FR1	0	R1310J
3028.149	0.0	2891988	ENCODING_END	n/a	n/a	n/a	-999	20	[0, 0, 0]	n/a	FR1	0	R1310J
3028.149	0.001	2891988	DISTRACT_START	n/a	n/a	n/a	-999	20	[0, 0, 0]	n/a	FR1	0	R1310J
3028.15	0.015	2891989	START	n/a	n/a	n/a	-999	20	[-999, -999, -999]	n/a	FR1	0	R1310J
3028.165	4.419	2892004	PROB	4.419	n/a	n/a	-999	20	[5, 3, 2]	10	FR1	0	R1310J
3032.584	3.566	2896422	PROB	3.566	n/a	n/a	-999	20	[9, 2, 2]	13	FR1	0	R1310J
3036.15	3.752	2899988	PROB	3.752	n/a	n/a	-999	20	[7, 4, 5]	16	FR1	0	R1310J
3039.902	3.017	2903740	PROB	3.017	n/a	n/a	-999	20	[2, 6, 3]	11	FR1	0	R1310J
3042.919	3.3	2906757	PROB	3.3	n/a	n/a	-999	20	[8, 9, 5]	22	FR1	0	R1310J
3046.219	2.909	2910057	PROB	2.909	n/a	n/a	-999	20	[7, 5, 6]	18	FR1	0	R1310J
3049.128	0.008	2912966	STOP	n/a	n/a	n/a	-999	20	[-999, -999, -999]	n/a	FR1	0	R1310J
3049.136	1.208	2912974	DISTRACT_END	n/a	n/a	n/a	-999	20	[0, 0, 0]	n/a	FR1	0	R1310J
3050.344	1.027	2914182	RETRIEVAL_ORIENT_START	n/a	n/a	n/a	-999	20	[0, 0, 0]	n/a	FR1	0	R1310J
3051.371	0.0	2915209	REC_START	n/a	n/a	n/a	-999	20	[0, 0, 0]	n/a	FR1	0	R1310J
3051.371	0.56	2915209	RETRIEVAL_ORIENT_END	n/a	n/a	n/a	-999	20	[0, 0, 0]	n/a	FR1	0	R1310J
3051.931	0.29	2915769	REC_WORD_VV	0.29	n/a	<>	-999	20	[0, 0, 0]	n/a	FR1	0	R1310J
3052.221	0.52	2916059	REC_WORD	0.52	n/a	WALL	1	20	[0, 0, 0]	n/a	FR1	0	R1310J
3052.741	0.855	2916579	REC_WORD	0.855	n/a	SPOON	2	20	[0, 0, 0]	n/a	FR1	0	R1310J
3053.596	0.69	2917434	REC_WORD	0.69	n/a	CALF	3	20	[0, 0, 0]	n/a	FR1	0	R1310J
3054.286	0.545	2918124	REC_WORD	0.545	n/a	CAPE	4	20	[0, 0, 0]	n/a	FR1	0	R1310J
3054.831	1.841	2918669	REC_WORD	1.841	n/a	THREAD	5	20	[0, 0, 0]	n/a	FR1	0	R1310J
3056.672	1.059	2920509	REC_WORD	1.059	n/a	WOLF	10	20	[0, 0, 0]	n/a	FR1	0	R1310J
3057.731	4.141	2921568	REC_WORD	4.141	n/a	OAR	12	20	[0, 0, 0]	n/a	FR1	0	R1310J
3061.872	20.01	2925709	REC_WORD_VV	20.01	n/a	<>	-999	20	[0, 0, 0]	n/a	FR1	0	R1310J
3081.882	0.0	2945718	REC_END	n/a	n/a	n/a	-999	20	[0, 0, 0]	n/a	FR1	0	R1310J
3081.882	0.0	2945718	TRIAL_END	n/a	n/a	n/a	-999	20	[0, 0, 0]	n/a	FR1	0	R1310J
3081.882	0.0	2945718	TRIAL_START	n/a	n/a	n/a	-999	21	[0, 0, 0]	n/a	FR1	0	R1310J
3081.882	0.0	2945718	TRIAL	n/a	n/a	n/a	-999	21	[0, 0, 0]	n/a	FR1	0	R1310J
3081.882	1.694	2945718	WAITING_START	n/a	n/a	n/a	-999	21	[0, 0, 0]	n/a	FR1	0	R1310J
3083.576	0.0	2947412	ORIENT_START	n/a	n/a	n/a	-999	21	[0, 0, 0]	n/a	FR1	0	R1310J
3083.576	0.0	2947412	COUNTDOWN_END	n/a	n/a	n/a	-999	21	[0, 0, 0]	n/a	FR1	0	R1310J
3083.576	0.0	2947412	WAITING_END	n/a	n/a	n/a	-999	21	[0, 0, 0]	n/a	FR1	0	R1310J
3083.576	11.451	2947412	COUNTDOWN_START	n/a	n/a	n/a	-999	21	[0, 0, 0]	n/a	FR1	0	R1310J
3095.027	0.0	2958863	ENCODING_START	n/a	n/a	n/a	-999	21	[0, 0, 0]	n/a	FR1	0	R1310J
3095.027	0.968	2958863	ORIENT_END	n/a	n/a	n/a	-999	21	[0, 0, 0]	n/a	FR1	0	R1310J
3095.995	1.633	2959831	WORD	n/a	wordpools/wordpool_EN.txt	LAWN	1	21	[0, 0, 0]	n/a	FR1	0	R1310J
3097.628	1.141	2961464	WORD_OFF	n/a	n/a	LAWN	1	21	[0, 0, 0]	n/a	FR1	0	R1310J
3098.769	1.627	2962605	WORD	n/a	wordpools/wordpool_EN.txt	MOOSE	2	21	[0, 0, 0]	n/a	FR1	0	R1310J
3100.396	0.751	2964232	WORD_OFF	n/a	n/a	MOOSE	2	21	[0, 0, 0]	n/a	FR1	0	R1310J
3101.147	1.632	2964983	WORD	n/a	wordpools/wordpool_EN.txt	TAIL	3	21	[0, 0, 0]	n/a	FR1	0	R1310J
3102.779	1.012	2966615	WORD_OFF	n/a	n/a	TAIL	3	21	[0, 0, 0]	n/a	FR1	0	R1310J
3103.791	1.622	2967627	WORD	n/a	wordpools/wordpool_EN.txt	BALL	4	21	[0, 0, 0]	n/a	FR1	0	R1310J
3105.413	1.013	2969248	WORD_OFF	n/a	n/a	BALL	4	21	[0, 0, 0]	n/a	FR1	0	R1310J
3106.426	1.637	2970261	WORD	n/a	wordpools/wordpool_EN.txt	PEACH	5	21	[0, 0, 0]	n/a	FR1	0	R1310J
3108.063	1.112	2971898	WORD_OFF	n/a	n/a	PEACH	5	21	[0, 0, 0]	n/a	FR1	0	R1310J
3109.175	1.622	2973010	WORD	n/a	wordpools/wordpool_EN.txt	MILK	6	21	[0, 0, 0]	n/a	FR1	0	R1310J
3110.797	0.79	2974632	WORD_OFF	n/a	n/a	MILK	6	21	[0, 0, 0]	n/a	FR1	0	R1310J
3111.587	1.626	2975422	WORD	n/a	wordpools/wordpool_EN.txt	BEAN	7	21	[0, 0, 0]	n/a	FR1	0	R1310J
3113.213	0.926	2977048	WORD_OFF	n/a	n/a	BEAN	7	21	[0, 0, 0]	n/a	FR1	0	R1310J
3114.139	1.609	2977974	WORD	n/a	wordpools/wordpool_EN.txt	FARM	8	21	[0, 0, 0]	n/a	FR1	0	R1310J
3115.748	0.759	2979583	WORD_OFF	n/a	n/a	FARM	8	21	[0, 0, 0]	n/a	FR1	0	R1310J
3116.507	1.624	2980342	WORD	n/a	wordpools/wordpool_EN.txt	TRASH	9	21	[0, 0, 0]	n/a	FR1	0	R1310J
3118.131	0.883	2981966	WORD_OFF	n/a	n/a	TRASH	9	21	[0, 0, 0]	n/a	FR1	0	R1310J
3119.014	1.618	2982849	WORD	n/a	wordpools/wordpool_EN.txt	NOSE	10	21	[0, 0, 0]	n/a	FR1	0	R1310J
3120.632	1.007	2984467	WORD_OFF	n/a	n/a	NOSE	10	21	[0, 0, 0]	n/a	FR1	0	R1310J
3121.639	1.627	2985474	WORD	n/a	wordpools/wordpool_EN.txt	SEA	11	21	[0, 0, 0]	n/a	FR1	0	R1310J
3123.266	0.902	2987101	WORD_OFF	n/a	n/a	SEA	11	21	[0, 0, 0]	n/a	FR1	0	R1310J
3124.168	1.632	2988003	WORD	n/a	wordpools/wordpool_EN.txt	HILL	12	21	[0, 0, 0]	n/a	FR1	0	R1310J
3125.8	0.0	2989635	WORD_OFF	n/a	n/a	HILL	12	21	[0, 0, 0]	n/a	FR1	0	R1310J
3125.8	0.0	2989635	ENCODING_END	n/a	n/a	n/a	-999	21	[0, 0, 0]	n/a	FR1	0	R1310J
3125.8	0.001	2989635	DISTRACT_START	n/a	n/a	n/a	-999	21	[0, 0, 0]	n/a	FR1	0	R1310J
3125.801	0.016	2989636	START	n/a	n/a	n/a	-999	21	[-999, -999, -999]	n/a	FR1	0	R1310J
3125.817	3.433	2989652	PROB	3.433	n/a	n/a	-999	21	[4, 9, 4]	17	FR1	0	R1310J
3129.25	4.385	2993084	PROB	4.385	n/a	n/a	-999	21	[2, 9, 6]	17	FR1	0	R1310J
3133.635	3.317	2997469	PROB	3.317	n/a	n/a	-999	21	[3, 7, 6]	16	FR1	0	R1310J
