onset	duration	sample	trial_type	response_time	stim_file	item_name	serialpos	list	test	answer	experiment	session	subject
0.0	0.0	27563	INSTRUCT_START	n/a	n/a	n/a	-999	-999	[0, 0, 0]	n/a	FR1	0	R1234D
0.0	10.965	27563	INSTRUCT_END	n/a	n/a	n/a	-999	-999	[0, 0, 0]	n/a	FR1	0	R1234D
10.965	0.0	38528	SESS_START	n/a	n/a	n/a	-999	-999	[0, 0, 0]	n/a	FR1	0	R1234D
10.965	191.09	38528	MIC_TEST	n/a	n/a	n/a	-999	-999	[0, 0, 0]	n/a	FR1	0	R1234D
202.055	7.985	229607	PRACTICE_TRIAL	n/a	n/a	n/a	-999	-1	[0, 0, 0]	n/a	FR1	0	R1234D
210.04	10.428	237592	COUNTDOWN_START	n/a	n/a	n/a	-999	-1	[0, 0, 0]	n/a	FR1	0	R1234D
220.468	0.007	248019	COUNTDOWN_END	n/a	n/a	n/a	-999	-1	[0, 0, 0]	n/a	FR1	0	R1234D
220.475	1.616	248026	PRACTICE_ORIENT	n/a	n/a	n/a	-999	-1	[0, 0, 0]	n/a	FR1	0	R1234D
222.091	2.033	249642	PRACTICE_ORIENT_OFF	n/a	n/a	n/a	-999	-1	[0, 0, 0]	n/a	FR1	0	R1234D
224.124	1.618	251675	PRACTICE_WORD	n/a	n/a	ATTIC	1	-1	[0, 0, 0]	n/a	FR1	0	R1234D
225.742	1.001	253293	PRACTICE_WORD_OFF	n/a	n/a	ATTIC	-999	-1	[0, 0, 0]	n/a	FR1	0	R1234D
226.743	1.617	254294	PRACTICE_WORD	n/a	n/a	CHEST	2	-1	[0, 0, 0]	n/a	FR1	0	R1234D
228.36	0.799	255911	PRACTICE_WORD_OFF	n/a	n/a	CHEST	-999	-1	[0, 0, 0]	n/a	FR1	0	R1234D
229.159	1.618	256710	PRACTICE_WORD	n/a	n/a	TONGUE	3	-1	[0, 0, 0]	n/a	FR1	0	R1234D
230.777	0.8	258328	PRACTICE_WORD_OFF	n/a	n/a	TONGUE	-999	-1	[0, 0, 0]	n/a	FR1	0	R1234D
231.577	1.616	259128	PRACTICE_WORD	n/a	n/a	IRON	4	-1	[0, 0, 0]	n/a	FR1	0	R1234D
233.193	0.867	260744	PRACTICE_WORD_OFF	n/a	n/a	IRON	-999	-1	[0, 0, 0]	n/a	FR1	0	R1234D
234.06	1.618	261611	PRACTICE_WORD	n/a	n/a	RHINO	5	-1	[0, 0, 0]	n/a	FR1	0	R1234D
235.678	0.933	263228	PRACTICE_WORD_OFF	n/a	n/a	RHINO	-999	-1	[0, 0, 0]	n/a	FR1	0	R1234D
236.611	1.616	264161	PRACTICE_WORD	n/a	n/a	COTTON	6	-1	[0, 0, 0]	n/a	FR1	0	R1234D
238.227	0.817	265777	PRACTICE_WORD_OFF	n/a	n/a	COTTON	-999	-1	[0, 0, 0]	n/a	FR1	0	R1234D
239.044	1.618	266594	PRACTICE_WORD	n/a	n/a	CAMEL	7	-1	[0, 0, 0]	n/a	FR1	0	R1234D
240.662	0.85	268212	PRACTICE_WORD_OFF	n/a	n/a	CAMEL	-999	-1	[0, 0, 0]	n/a	FR1	0	R1234D
241.512	1.616	269062	PRACTICE_WORD	n/a	n/a	WAGON	8	-1	[0, 0, 0]	n/a	FR1	0	R1234D
243.128	0.801	270678	PRACTICE_WORD_OFF	n/a	n/a	WAGON	-999	-1	[0, 0, 0]	n/a	FR1	0	R1234D
243.929	1.617	271479	PRACTICE_WORD	n/a	n/a	RING	9	-1	[0, 0, 0]	n/a	FR1	0	R1234D
245.546	0.766	273096	PRACTICE_WORD_OFF	n/a	n/a	RING	-999	-1	[0, 0, 0]	n/a	FR1	0	R1234D
246.312	1.618	273862	PRACTICE_WORD	n/a	n/a	BEAM	10	-1	[0, 0, 0]	n/a	FR1	0	R1234D
247.93	0.85	275480	PRACTICE_WORD_OFF	n/a	n/a	BEAM	-999	-1	[0, 0, 0]	n/a	FR1	0	R1234D
248.78	1.617	276330	PRACTICE_WORD	n/a	n/a	WATCH	11	-1	[0, 0, 0]	n/a	FR1	0	R1234D
250.397	0.967	277947	PRACTICE_WORD_OFF	n/a	n/a	WATCH	-999	-1	[0, 0, 0]	n/a	FR1	0	R1234D
251.364	1.616	278914	PRACTICE_WORD	n/a	n/a	FLOOD	12	-1	[0, 0, 0]	n/a	FR1	0	R1234D
252.98	0.0	280530	PRACTICE_WORD_OFF	n/a	n/a	FLOOD	-999	-1	[0, 0, 0]	n/a	FR1	0	R1234D
252.98	0.001	280530	DISTRACT_START	n/a	n/a	n/a	-999	-1	[0, 0, 0]	n/a	FR1	0	R1234D
252.981	0.015	280531	START	n/a	n/a	n/a	-999	-1	[-999, -999, -999]	n/a	FR1	0	R1234D
252.996	21.591	280546	PROB	21.591	n/a	n/a	-999	-1	[2, 9, 3]	14	FR1	0	R1234D
274.587	0.014	302135	STOP	n/a	n/a	n/a	-999	-1	[-999, -999, -999]	n/a	FR1	0	R1234D
274.601	0.516	302149	DISTRACT_END	n/a	n/a	n/a	-999	-1	[0, 0, 0]	n/a	FR1	0	R1234D
275.117	0.522	302665	RETRIEVAL_ORIENT	n/a	n/a	n/a	-999	-1	[0, 0, 0]	n/a	FR1	0	R1234D
275.639	30.005	303187	PRACTICE_REC_START	n/a	n/a	n/a	-999	-1	[0, 0, 0]	n/a	FR1	0	R1234D
305.644	23.234	333191	PRACTICE_REC_END	n/a	n/a	n/a	-999	-1	[0, 0, 0]	n/a	FR1	0	R1234D
328.878	0.5	356423	TRIAL	n/a	n/a	n/a	-999	1	[0, 0, 0]	n/a	FR1	0	R1234D
329.378	10.428	356923	COUNTDOWN_START	n/a	n/a	n/a	-999	1	[0, 0, 0]	n/a	FR1	0	R1234D
339.806	0.007	367351	COUNTDOWN_END	n/a	n/a	n/a	-999	1	[0, 0, 0]	n/a	FR1	0	R1234D
339.813	1.617	367358	ORIENT	n/a	n/a	n/a	-999	1	[0, 0, 0]	n/a	FR1	0	R1234D
341.43	1.85	368975	ORIENT_OFF	n/a	n/a	n/a	-999	1	[0, 0, 0]	n/a	FR1	0	R1234D
343.28	1.618	370825	WORD	n/a	wordpools/wordpool_EN.txt	BRUSH	1	1	[0, 0, 0]	n/a	FR1	0	R1234D
344.898	0.933	372443	WORD_OFF	n/a	n/a	BRUSH	1	1	[0, 0, 0]	n/a	FR1	0	R1234D
345.831	1.617	373376	WORD	n/a	wordpools/wordpool_EN.txt	PALM	2	1	[0, 0, 0]	n/a	FR1	0	R1234D
347.448	0.816	374992	WORD_OFF	n/a	n/a	PALM	2	1	[0, 0, 0]	n/a	FR1	0	R1234D
348.264	1.601	375808	WORD	n/a	wordpools/wordpool_EN.txt	PEA	3	1	[0, 0, 0]	n/a	FR1	0	R1234D
349.865	0.8	377409	WORD_OFF	n/a	n/a	PEA	3	1	[0, 0, 0]	n/a	FR1	0	R1234D
350.665	1.616	378209	WORD	n/a	wordpools/wordpool_EN.txt	VINE	4	1	[0, 0, 0]	n/a	FR1	0	R1234D
352.281	0.867	379825	WORD_OFF	n/a	n/a	VINE	4	1	[0, 0, 0]	n/a	FR1	0	R1234D
353.148	1.618	380692	WORD	n/a	wordpools/wordpool_EN.txt	HOOK	5	1	[0, 0, 0]	n/a	FR1	0	R1234D
354.766	0.834	382310	WORD_OFF	n/a	n/a	HOOK	5	1	[0, 0, 0]	n/a	FR1	0	R1234D
355.6	1.616	383144	WORD	n/a	wordpools/wordpool_EN.txt	PIN	6	1	[0, 0, 0]	n/a	FR1	0	R1234D
357.216	0.933	384760	WORD_OFF	n/a	n/a	PIN	6	1	[0, 0, 0]	n/a	FR1	0	R1234D
358.149	1.618	385693	WORD	n/a	wordpools/wordpool_EN.txt	CALF	7	1	[0, 0, 0]	n/a	FR1	0	R1234D
359.767	0.934	387311	WORD_OFF	n/a	n/a	CALF	7	1	[0, 0, 0]	n/a	FR1	0	R1234D
360.701	1.616	388245	WORD	n/a	wordpools/wordpool_EN.txt	HOLE	8	1	[0, 0, 0]	n/a	FR1	0	R1234D
362.317	0.849	389861	WORD_OFF	n/a	n/a	HOLE	8	1	[0, 0, 0]	n/a	FR1	0	R1234D
363.166	1.619	390710	WORD	n/a	wordpools/wordpool_EN.txt	HILL	9	1	[0, 0, 0]	n/a	FR1	0	R1234D
364.785	0.967	392329	WORD_OFF	n/a	n/a	HILL	9	1	[0, 0, 0]	n/a	FR1	0	R1234D
365.752	1.617	393295	WORD	n/a	wordpools/wordpool_EN.txt	FOX	10	1	[0, 0, 0]	n/a	FR1	0	R1234D
367.369	0.865	394912	WORD_OFF	n/a	n/a	FOX	10	1	[0, 0, 0]	n/a	FR1	0	R1234D
368.234	1.601	395777	WORD	n/a	wordpools/wordpool_EN.txt	SUN	11	1	[0, 0, 0]	n/a	FR1	0	R1234D
369.835	0.984	397378	WORD_OFF	n/a	n/a	SUN	11	1	[0, 0, 0]	n/a	FR1	0	R1234D
370.819	1.617	398362	WORD	n/a	wordpools/wordpool_EN.txt	DITCH	12	1	[0, 0, 0]	n/a	FR1	0	R1234D
372.436	0.0	399979	WORD_OFF	n/a	n/a	DITCH	12	1	[0, 0, 0]	n/a	FR1	0	R1234D
372.436	0.001	399979	DISTRACT_START	n/a	n/a	n/a	-999	1	[0, 0, 0]	n/a	FR1	0	R1234D
372.437	0.016	399980	START	n/a	n/a	n/a	-999	1	[-999, -999, -999]	n/a	FR1	0	R1234D
372.453	6.951	399996	PROB	6.951	n/a	n/a	-999	1	[6, 1, 1]	8	FR1	0	R1234D
379.404	10.751	406947	PROB	10.751	n/a	n/a	-999	1	[8, 4, 7]	19	FR1	0	R1234D
390.155	6.192	417697	PROB	6.192	n/a	n/a	-999	1	[4, 3, 2]	9	FR1	0	R1234D
396.347	0.01	423889	STOP	n/a	n/a	n/a	-999	1	[-999, -999, -999]	n/a	FR1	0	R1234D
396.357	0.616	423899	DISTRACT_END	n/a	n/a	n/a	-999	1	[0, 0, 0]	n/a	FR1	0	R1234D
396.973	0.518	424515	RETRIEVAL_ORIENT	n/a	n/a	n/a	-999	1	[0, 0, 0]	n/a	FR1	0	R1234D
397.491	1.71	425033	REC_START	n/a	n/a	n/a	-999	1	[0, 0, 0]	n/a	FR1	0	R1234D
399.201	0.472	426743	REC_WORD_VV	0.472	n/a	<>	-999	1	[0, 0, 0]	n/a	FR1	0	R1234D
399.673	1.724	427215	REC_WORD	1.724	n/a	BRUSH	-999	1	[0, 0, 0]	n/a	FR1	0	R1234D
401.397	1.616	428939	REC_WORD_VV	1.616	n/a	<>	-999	1	[0, 0, 0]	n/a	FR1	0	R1234D
403.013	0.652	430554	REC_WORD	0.652	n/a	HOOK	-999	1	[0, 0, 0]	n/a	FR1	0	R1234D
403.665	2.587	431206	REC_WORD	2.587	n/a	PIN	-999	1	[0, 0, 0]	n/a	FR1	0	R1234D
406.252	4.568	433793	REC_WORD_VV	4.568	n/a	<>	-999	1	[0, 0, 0]	n/a	FR1	0	R1234D
410.82	1.036	438361	REC_WORD	1.036	n/a	HOLE	-999	1	[0, 0, 0]	n/a	FR1	0	R1234D
411.856	12.229	439397	REC_WORD	12.229	n/a	DITCH	-999	1	[0, 0, 0]	n/a	FR1	0	R1234D
424.085	3.416	451625	REC_WORD_VV	3.416	n/a	<>	-999	1	[0, 0, 0]	n/a	FR1	0	R1234D
427.501	9.512	455041	REC_END	n/a	n/a	n/a	-999	1	[0, 0, 0]	n/a	FR1	0	R1234D
437.013	0.5	464553	TRIAL	n/a	n/a	n/a	-999	2	[0, 0, 0]	n/a	FR1	0	R1234D
437.513	10.428	465053	COUNTDOWN_START	n/a	n/a	n/a	-999	2	[0, 0, 0]	n/a	FR1	0	R1234D
447.941	0.009	475480	COUNTDOWN_END	n/a	n/a	n/a	-999	2	[0, 0, 0]	n/a	FR1	0	R1234D
447.95	1.617	475489	ORIENT	n/a	n/a	n/a	-999	2	[0, 0, 0]	n/a	FR1	0	R1234D
449.567	1.933	477106	ORIENT_OFF	n/a	n/a	n/a	-999	2	[0, 0, 0]	n/a	FR1	0	R1234D
451.5	1.616	479039	WORD	n/a	wordpools/wordpool_EN.txt	BEAR	1	2	[0, 0, 0]	n/a	FR1	0	R1234D
453.116	0.917	480655	WORD_OFF	n/a	n/a	BEAR	1	2	[0, 0, 0]	n/a	FR1	0	R1234D
454.033	1.618	481572	WORD	n/a	wordpools/wordpool_EN.txt	SMOKE	2	2	[0, 0, 0]	n/a	FR1	0	R1234D
455.651	0.95	483190	WORD_OFF	n/a	n/a	SMOKE	2	2	[0, 0, 0]	n/a	FR1	0	R1234D
456.601	1.616	484140	WORD	n/a	wordpools/wordpool_EN.txt	BRIDGE	3	2	[0, 0, 0]	n/a	FR1	0	R1234D
458.217	0.984	485755	WORD_OFF	n/a	n/a	BRIDGE	3	2	[0, 0, 0]	n/a	FR1	0	R1234D
459.201	1.618	486739	WORD	n/a	wordpools/wordpool_EN.txt	MAP	4	2	[0, 0, 0]	n/a	FR1	0	R1234D
460.819	0.85	488357	WORD_OFF	n/a	n/a	MAP	4	2	[0, 0, 0]	n/a	FR1	0	R1234D
461.669	1.616	489207	WORD	n/a	wordpools/wordpool_EN.txt	PRINCE	5	2	[0, 0, 0]	n/a	FR1	0	R1234D
463.285	0.933	490823	WORD_OFF	n/a	n/a	PRINCE	5	2	[0, 0, 0]	n/a	FR1	0	R1234D
464.218	1.602	491756	WORD	n/a	wordpools/wordpool_EN.txt	FILM	6	2	[0, 0, 0]	n/a	FR1	0	R1234D
465.82	1.017	493358	WORD_OFF	n/a	n/a	FILM	6	2	[0, 0, 0]	n/a	FR1	0	R1234D
466.837	1.617	494375	WORD	n/a	wordpools/wordpool_EN.txt	CASH	7	2	[0, 0, 0]	n/a	FR1	0	R1234D
468.454	0.782	495992	WORD_OFF	n/a	n/a	CASH	7	2	[0, 0, 0]	n/a	FR1	0	R1234D
469.236	1.618	496774	WORD	n/a	wordpools/wordpool_EN.txt	HEART	8	2	[0, 0, 0]	n/a	FR1	0	R1234D
470.854	0.95	498392	WORD_OFF	n/a	n/a	HEART	8	2	[0, 0, 0]	n/a	FR1	0	R1234D
471.804	1.617	499342	WORD	n/a	wordpools/wordpool_EN.txt	JET	9	2	[0, 0, 0]	n/a	FR1	0	R1234D
473.421	0.816	500959	WORD_OFF	n/a	n/a	JET	9	2	[0, 0, 0]	n/a	FR1	0	R1234D
474.237	1.601	501775	WORD	n/a	wordpools/wordpool_EN.txt	BLUSH	10	2	[0, 0, 0]	n/a	FR1	0	R1234D
475.838	0.967	503376	WORD_OFF	n/a	n/a	BLUSH	10	2	[0, 0, 0]	n/a	FR1	0	R1234D
476.805	1.617	504342	WORD	n/a	wordpools/wordpool_EN.txt	SCHOOL	11	2	[0, 0, 0]	n/a	FR1	0	R1234D
478.422	0.866	505959	WORD_OFF	n/a	n/a	SCHOOL	11	2	[0, 0, 0]	n/a	FR1	0	R1234D
479.288	1.618	506825	WORD	n/a	wordpools/wordpool_EN.txt	PLANE	12	2	[0, 0, 0]	n/a	FR1	0	R1234D
480.906	0.0	508443	WORD_OFF	n/a	n/a	PLANE	12	2	[0, 0, 0]	n/a	FR1	0	R1234D
480.906	0.001	508443	DISTRACT_START	n/a	n/a	n/a	-999	2	[0, 0, 0]	n/a	FR1	0	R1234D
480.907	0.016	508444	START	n/a	n/a	n/a	-999	2	[-999, -999, -999]	n/a	FR1	0	R1234D
480.923	15.936	508460	PROB	15.936	n/a	n/a	-999	2	[8, 9, 1]	19	FR1	0	R1234D
496.859	8.15	524395	PROB	8.15	n/a	n/a	-999	2	[5, 2, 4]	11	FR1	0	R1234D
505.009	0.017	532545	STOP	n/a	n/a	n/a	-999	2	[-999, -999, -999]	n/a	FR1	0	R1234D
505.026	0.568	532562	DISTRACT_END	n/a	n/a	n/a	-999	2	[0, 0, 0]	n/a	FR1	0	R1234D
505.594	0.516	533130	RETRIEVAL_ORIENT	n/a	n/a	n/a	-999	2	[0, 0, 0]	n/a	FR1	0	R1234D
506.11	2.041	533646	REC_START	n/a	n/a	n/a	-999	2	[0, 0, 0]	n/a	FR1	0	R1234D
508.151	0.832	535687	REC_WORD	0.832	n/a	BRUSH	-999	2	[0, 0, 0]	n/a	FR1	0	R1234D
508.983	1.883	536519	REC_WORD	1.883	n/a	BEAR	-999	2	[0, 0, 0]	n/a	FR1	0	R1234D
510.866	2.158	538402	REC_WORD	2.158	n/a	SCHOOL	-999	2	[0, 0, 0]	n/a	FR1	0	R1234D
513.024	11.555	540560	REC_WORD	11.555	n/a	SMOKE	-999	2	[0, 0, 0]	n/a	FR1	0	R1234D
524.579	11.542	552114	REC_WORD_VV	11.542	n/a	<>	-999	2	[0, 0, 0]	n/a	FR1	0	R1234D
536.121	37.335	563655	REC_END	n/a	n/a	n/a	-999	2	[0, 0, 0]	n/a	FR1	0	R1234D
573.456	0.5	600988	TRIAL	n/a	n/a	n/a	-999	3	[0, 0, 0]	n/a	FR1	0	R1234D
573.956	10.428	601488	COUNTDOWN_START	n/a	n/a	n/a	-999	3	[0, 0, 0]	n/a	FR1	0	R1234D
584.384	0.007	611916	COUNTDOWN_END	n/a	n/a	n/a	-999	3	[0, 0, 0]	n/a	FR1	0	R1234D
584.391	1.616	611923	ORIENT	n/a	n/a	n/a	-999	3	[0, 0, 0]	n/a	FR1	0	R1234D
586.007	2.234	613539	ORIENT_OFF	n/a	n/a	n/a	-999	3	[0, 0, 0]	n/a	FR1	0	R1234D
588.241	1.601	615772	WORD	n/a	wordpools/wordpool_EN.txt	ROAD	1	3	[0, 0, 0]	n/a	FR1	0	R1234D
589.842	0.834	617373	WORD_OFF	n/a	n/a	ROAD	1	3	[0, 0, 0]	n/a	FR1	0	R1234D
590.676	1.616	618207	WORD	n/a	wordpools/wordpool_EN.txt	FLEA	2	3	[0, 0, 0]	n/a	FR1	0	R1234D
592.292	0.867	619823	WORD_OFF	n/a	n/a	FLEA	2	3	[0, 0, 0]	n/a	FR1	0	R1234D
593.159	1.618	620690	WORD	n/a	wordpools/wordpool_EN.txt	WHEEL	3	3	[0, 0, 0]	n/a	FR1	0	R1234D
594.777	0.983	622308	WORD_OFF	n/a	n/a	WHEEL	3	3	[0, 0, 0]	n/a	FR1	0	R1234D
595.76	1.617	623291	WORD	n/a	wordpools/wordpool_EN.txt	BOWL	4	3	[0, 0, 0]	n/a	FR1	0	R1234D
597.377	0.984	624908	WORD_OFF	n/a	n/a	BOWL	4	3	[0, 0, 0]	n/a	FR1	0	R1234D
598.361	1.616	625892	WORD	n/a	wordpools/wordpool_EN.txt	CAR	5	3	[0, 0, 0]	n/a	FR1	0	R1234D
599.977	0.983	627508	WORD_OFF	n/a	n/a	CAR	5	3	[0, 0, 0]	n/a	FR1	0	R1234D
600.96	1.601	628491	WORD	n/a	wordpools/wordpool_EN.txt	SQUARE	6	3	[0, 0, 0]	n/a	FR1	0	R1234D
602.561	0.766	630092	WORD_OFF	n/a	n/a	SQUARE	6	3	[0, 0, 0]	n/a	FR1	0	R1234D
603.327	1.601	630858	WORD	n/a	wordpools/wordpool_EN.txt	FOOD	7	3	[0, 0, 0]	n/a	FR1	0	R1234D
604.928	0.951	632459	WORD_OFF	n/a	n/a	FOOD	7	3	[0, 0, 0]	n/a	FR1	0	R1234D
605.879	1.617	633409	WORD	n/a	wordpools/wordpool_EN.txt	KEY	8	3	[0, 0, 0]	n/a	FR1	0	R1234D
607.496	0.933	635026	WORD_OFF	n/a	n/a	KEY	8	3	[0, 0, 0]	n/a	FR1	0	R1234D
608.429	1.616	635959	WORD	n/a	wordpools/wordpool_EN.txt	FUDGE	9	3	[0, 0, 0]	n/a	FR1	0	R1234D
610.045	0.818	637575	WORD_OFF	n/a	n/a	FUDGE	9	3	[0, 0, 0]	n/a	FR1	0	R1234D
610.863	1.617	638393	WORD	n/a	wordpools/wordpool_EN.txt	CLAY	10	3	[0, 0, 0]	n/a	FR1	0	R1234D
612.48	0.782	640010	WORD_OFF	n/a	n/a	CLAY	10	3	[0, 0, 0]	n/a	FR1	0	R1234D
613.262	1.618	640792	WORD	n/a	wordpools/wordpool_EN.txt	PHONE	11	3	[0, 0, 0]	n/a	FR1	0	R1234D
614.88	0.784	642410	WORD_OFF	n/a	n/a	PHONE	11	3	[0, 0, 0]	n/a	FR1	0	R1234D
615.664	1.616	643194	WORD	n/a	wordpools/wordpool_EN.txt	BREAD	12	3	[0, 0, 0]	n/a	FR1	0	R1234D
617.28	0.0	644810	WORD_OFF	n/a	n/a	BREAD	12	3	[0, 0, 0]	n/a	FR1	0	R1234D
617.28	0.0	644810	DISTRACT_START	n/a	n/a	n/a	-999	3	[0, 0, 0]	n/a	FR1	0	R1234D
617.28	0.016	644810	START	n/a	n/a	n/a	-999	3	[-999, -999, -999]	n/a	FR1	0	R1234D
617.296	9.136	644826	PROB	9.136	n/a	n/a	-999	3	[9, 2, 5]	16	FR1	0	R1234D
626.432	11.948	653961	PROB	11.948	n/a	n/a	-999	3	[3, 4, 9]	16	FR1	0	R1234D
638.38	0.021	665909	STOP	n/a	n/a	n/a	-999	3	[-999, -999, -999]	n/a	FR1	0	R1234D
638.401	0.583	665930	DISTRACT_END	n/a	n/a	n/a	-999	3	[0, 0, 0]	n/a	FR1	0	R1234D
638.984	0.518	666513	RETRIEVAL_ORIENT	n/a	n/a	n/a	-999	3	[0, 0, 0]	n/a	FR1	0	R1234D
639.502	1.609	667031	REC_START	n/a	n/a	n/a	-999	3	[0, 0, 0]	n/a	FR1	0	R1234D
641.111	0.392	668640	REC_WORD_VV	0.392	n/a	<>	-999	3	[0, 0, 0]	n/a	FR1	0	R1234D
641.503	0.635	669032	REC_WORD	0.635	n/a	CAR	-999	3	[0, 0, 0]	n/a	FR1	0	R1234D
642.138	1.541	669667	REC_WORD	1.541	n/a	BOWL	-999	3	[0, 0, 0]	n/a	FR1	0	R1234D
643.679	1.138	671207	REC_WORD	1.138	n/a	FOOD	-999	3	[0, 0, 0]	n/a	FR1	0	R1234D
644.817	2.789	672345	REC_WORD	2.789	n/a	FUDGE	-999	3	[0, 0, 0]	n/a	FR1	0	R1234D
647.606	7.647	675134	REC_WORD_VV	7.647	n/a	<>	-999	3	[0, 0, 0]	n/a	FR1	0	R1234D
655.253	3.923	682781	REC_WORD	3.923	n/a	ROAD	-999	3	[0, 0, 0]	n/a	FR1	0	R1234D
659.176	2.464	686704	REC_WORD_VV	2.464	n/a	<>	-999	3	[0, 0, 0]	n/a	FR1	0	R1234D
661.64	2.583	689167	REC_WORD_VV	2.583	n/a	<>	-999	3	[0, 0, 0]	n/a	FR1	0	R1234D
664.223	5.014	691750	REC_WORD_VV	5.014	n/a	<>	-999	3	[0, 0, 0]	n/a	FR1	0	R1234D
669.237	0.276	696764	REC_WORD_VV	0.276	n/a	<>	-999	3	[0, 0, 0]	n/a	FR1	0	R1234D
669.513	7.962	697040	REC_END	n/a	n/a	n/a	-999	3	[0, 0, 0]	n/a	FR1	0	R1234D
677.475	0.5	705002	TRIAL	n/a	n/a	n/a	-999	4	[0, 0, 0]	n/a	FR1	0	R1234D
677.975	10.428	705502	COUNTDOWN_START	n/a	n/a	n/a	-999	4	[0, 0, 0]	n/a	FR1	0	R1234D
688.403	0.007	715929	COUNTDOWN_END	n/a	n/a	n/a	-999	4	[0, 0, 0]	n/a	FR1	0	R1234D
688.41	1.616	715936	ORIENT	n/a	n/a	n/a	-999	4	[0, 0, 0]	n/a	FR1	0	R1234D
690.026	1.852	717552	ORIENT_OFF	n/a	n/a	n/a	-999	4	[0, 0, 0]	n/a	FR1	0	R1234D
691.878	1.617	719404	WORD	n/a	wordpools/wordpool_EN.txt	EEL	1	4	[0, 0, 0]	n/a	FR1	0	R1234D
693.495	0.866	721021	WORD_OFF	n/a	n/a	EEL	1	4	[0, 0, 0]	n/a	FR1	0	R1234D
694.361	1.616	721887	WORD	n/a	wordpools/wordpool_EN.txt	DOCK	2	4	[0, 0, 0]	n/a	FR1	0	R1234D
695.977	0.818	723503	WORD_OFF	n/a	n/a	DOCK	2	4	[0, 0, 0]	n/a	FR1	0	R1234D
696.795	1.617	724321	WORD	n/a	wordpools/wordpool_EN.txt	NET	3	4	[0, 0, 0]	n/a	FR1	0	R1234D
698.412	0.783	725937	WORD_OFF	n/a	n/a	NET	3	4	[0, 0, 0]	n/a	FR1	0	R1234D
699.195	1.618	726720	WORD	n/a	wordpools/wordpool_EN.txt	MAZE	4	4	[0, 0, 0]	n/a	FR1	0	R1234D
700.813	0.95	728338	WORD_OFF	n/a	n/a	MAZE	4	4	[0, 0, 0]	n/a	FR1	0	R1234D
701.763	1.617	729288	WORD	n/a	wordpools/wordpool_EN.txt	RAT	5	4	[0, 0, 0]	n/a	FR1	0	R1234D
703.38	0.916	730905	WORD_OFF	n/a	n/a	RAT	5	4	[0, 0, 0]	n/a	FR1	0	R1234D
704.296	1.618	731821	WORD	n/a	wordpools/wordpool_EN.txt	SWORD	6	4	[0, 0, 0]	n/a	FR1	0	R1234D
705.914	0.766	733439	WORD_OFF	n/a	n/a	SWORD	6	4	[0, 0, 0]	n/a	FR1	0	R1234D
706.68	1.616	734205	WORD	n/a	wordpools/wordpool_EN.txt	MOUSE	7	4	[0, 0, 0]	n/a	FR1	0	R1234D
708.296	0.967	735821	WORD_OFF	n/a	n/a	MOUSE	7	4	[0, 0, 0]	n/a	FR1	0	R1234D
709.263	1.618	736788	WORD	n/a	wordpools/wordpool_EN.txt	PET	8	4	[0, 0, 0]	n/a	FR1	0	R1234D
710.881	0.867	738406	WORD_OFF	n/a	n/a	PET	8	4	[0, 0, 0]	n/a	FR1	0	R1234D
711.748	1.617	739273	WORD	n/a	wordpools/wordpool_EN.txt	SHIP	9	4	[0, 0, 0]	n/a	FR1	0	R1234D
713.365	0.899	740890	WORD_OFF	n/a	n/a	SHIP	9	4	[0, 0, 0]	n/a	FR1	0	R1234D
714.264	1.601	741789	WORD	n/a	wordpools/wordpool_EN.txt	BALL	10	4	[0, 0, 0]	n/a	FR1	0	R1234D
715.865	0.984	743390	WORD_OFF	n/a	n/a	BALL	10	4	[0, 0, 0]	n/a	FR1	0	R1234D
716.849	1.617	744373	WORD	n/a	wordpools/wordpool_EN.txt	WALL	11	4	[0, 0, 0]	n/a	FR1	0	R1234D
718.466	1.017	745990	WORD_OFF	n/a	n/a	WALL	11	4	[0, 0, 0]	n/a	FR1	0	R1234D
719.483	1.616	747007	WORD	n/a	wordpools/wordpool_EN.txt	BAT	12	4	[0, 0, 0]	n/a	FR1	0	R1234D
721.099	0.0	748623	DISTRACT_START	n/a	n/a	n/a	-999	4	[0, 0, 0]	n/a	FR1	0	R1234D
721.099	0.001	748623	WORD_OFF	n/a	n/a	BAT	12	4	[0, 0, 0]	n/a	FR1	0	R1234D
721.1	0.015	748624	START	n/a	n/a	n/a	-999	4	[-999, -999, -999]	n/a	FR1	0	R1234D
721.115	28.793	748639	PROB	28.793	n/a	n/a	-999	4	[7, 8, 8]	26	FR1	0	R1234D
749.908	0.014	777431	STOP	n/a	n/a	n/a	-999	4	[-999, -999, -999]	n/a	FR1	0	R1234D
749.922	0.65	777445	DISTRACT_END	n/a	n/a	n/a	-999	4	[0, 0, 0]	n/a	FR1	0	R1234D
750.572	0.516	778095	RETRIEVAL_ORIENT	n/a	n/a	n/a	-999	4	[0, 0, 0]	n/a	FR1	0	R1234D
751.088	3.088	778611	REC_START	n/a	n/a	n/a	-999	4	[0, 0, 0]	n/a	FR1	0	R1234D
754.176	0.266	781698	REC_WORD_VV	0.266	n/a	<>	-999	4	[0, 0, 0]	n/a	FR1	0	R1234D
754.442	0.68	781964	REC_WORD	0.68	n/a	EEL	-999	4	[0, 0, 0]	n/a	FR1	0	R1234D
755.122	3.093	782644	REC_WORD	3.093	n/a	DOCK	-999	4	[0, 0, 0]	n/a	FR1	0	R1234D
758.215	0.722	785737	REC_WORD	0.722	n/a	WALL	-999	4	[0, 0, 0]	n/a	FR1	0	R1234D
758.937	4.359	786459	REC_WORD	4.359	n/a	BALL	-999	4	[0, 0, 0]	n/a	FR1	0	R1234D
763.296	3.416	790818	REC_WORD	3.416	n/a	BAT	-999	4	[0, 0, 0]	n/a	FR1	0	R1234D
766.712	14.387	794234	REC_WORD_VV	14.387	n/a	<>	-999	4	[0, 0, 0]	n/a	FR1	0	R1234D
781.099	8.862	808620	REC_END	n/a	n/a	n/a	-999	4	[0, 0, 0]	n/a	FR1	0	R1234D
789.961	0.5	817482	TRIAL	n/a	n/a	n/a	-999	5	[0, 0, 0]	n/a	FR1	0	R1234D
790.461	10.428	817981	COUNTDOWN_START	n/a	n/a	n/a	-999	5	[0, 0, 0]	n/a	FR1	0	R1234D
800.889	0.009	828409	COUNTDOWN_END	n/a	n/a	n/a	-999	5	[0, 0, 0]	n/a	FR1	0	R1234D
800.898	1.617	828418	ORIENT	n/a	n/a	n/a	-999	5	[0, 0, 0]	n/a	FR1	0	R1234D
802.515	2.1	830035	ORIENT_OFF	n/a	n/a	n/a	-999	5	[0, 0, 0]	n/a	FR1	0	R1234D
804.615	1.616	832135	WORD	n/a	wordpools/wordpool_EN.txt	TEETH	1	5	[0, 0, 0]	n/a	FR1	0	R1234D
806.231	0.783	833751	WORD_OFF	n/a	n/a	TEETH	1	5	[0, 0, 0]	n/a	FR1	0	R1234D
807.014	1.601	834534	WORD	n/a	wordpools/wordpool_EN.txt	ROOT	2	5	[0, 0, 0]	n/a	FR1	0	R1234D
808.615	0.817	836135	WORD_OFF	n/a	n/a	ROOT	2	5	[0, 0, 0]	n/a	FR1	0	R1234D
809.432	1.616	836951	WORD	n/a	wordpools/wordpool_EN.txt	TOOTH	3	5	[0, 0, 0]	n/a	FR1	0	R1234D
811.048	1.001	838567	WORD_OFF	n/a	n/a	TOOTH	3	5	[0, 0, 0]	n/a	FR1	0	R1234D
812.049	1.618	839568	WORD	n/a	wordpools/wordpool_EN.txt	APE	4	5	[0, 0, 0]	n/a	FR1	0	R1234D
813.667	0.8	841186	WORD_OFF	n/a	n/a	APE	4	5	[0, 0, 0]	n/a	FR1	0	R1234D
814.467	1.616	841986	WORD	n/a	wordpools/wordpool_EN.txt	BRANCH	5	5	[0, 0, 0]	n/a	FR1	0	R1234D
816.083	0.867	843602	WORD_OFF	n/a	n/a	BRANCH	5	5	[0, 0, 0]	n/a	FR1	0	R1234D
816.95	1.618	844469	WORD	n/a	wordpools/wordpool_EN.txt	WING	6	5	[0, 0, 0]	n/a	FR1	0	R1234D
818.568	0.883	846087	WORD_OFF	n/a	n/a	WING	6	5	[0, 0, 0]	n/a	FR1	0	R1234D
819.451	1.616	846970	WORD	n/a	wordpools/wordpool_EN.txt	MOUTH	7	5	[0, 0, 0]	n/a	FR1	0	R1234D
821.067	0.884	848586	WORD_OFF	n/a	n/a	MOUTH	7	5	[0, 0, 0]	n/a	FR1	0	R1234D
821.951	1.617	849470	WORD	n/a	wordpools/wordpool_EN.txt	BLOOM	8	5	[0, 0, 0]	n/a	FR1	0	R1234D
823.568	0.834	851087	WORD_OFF	n/a	n/a	BLOOM	8	5	[0, 0, 0]	n/a	FR1	0	R1234D
824.402	1.616	851921	WORD	n/a	wordpools/wordpool_EN.txt	STEM	9	5	[0, 0, 0]	n/a	FR1	0	R1234D
826.018	0.801	853537	WORD_OFF	n/a	n/a	STEM	9	5	[0, 0, 0]	n/a	FR1	0	R1234D
826.819	1.617	854338	WORD	n/a	wordpools/wordpool_EN.txt	MILK	10	5	[0, 0, 0]	n/a	FR1	0	R1234D
828.436	0.899	855954	WORD_OFF	n/a	n/a	MILK	10	5	[0, 0, 0]	n/a	FR1	0	R1234D
829.335	1.618	856853	WORD	n/a	wordpools/wordpool_EN.txt	TANK	11	5	[0, 0, 0]	n/a	FR1	0	R1234D
830.953	0.9	858471	WORD_OFF	n/a	n/a	TANK	11	5	[0, 0, 0]	n/a	FR1	0	R1234D
831.853	1.617	859371	WORD	n/a	wordpools/wordpool_EN.txt	SEA	12	5	[0, 0, 0]	n/a	FR1	0	R1234D
833.47	0.0	860988	WORD_OFF	n/a	n/a	SEA	12	5	[0, 0, 0]	n/a	FR1	0	R1234D
833.47	0.001	860988	DISTRACT_START	n/a	n/a	n/a	-999	5	[0, 0, 0]	n/a	FR1	0	R1234D
833.471	0.016	860989	START	n/a	n/a	n/a	-999	5	[-999, -999, -999]	n/a	FR1	0	R1234D
833.487	11.919	861005	PROB	11.919	n/a	n/a	-999	5	[3, 4, 3]	10	FR1	0	R1234D
845.406	6.518	872924	PROB	6.518	n/a	n/a	-999	5	[8, 5, 5]	18	FR1	0	R1234D
851.924	8.207	879441	PROB	8.207	n/a	n/a	-999	5	[9, 4, 1]	14	FR1	0	R1234D
860.131	0.01	887648	STOP	n/a	n/a	n/a	-999	5	[-999, -999, -999]	n/a	FR1	0	R1234D
860.141	0.684	887658	DISTRACT_END	n/a	n/a	n/a	-999	5	[0, 0, 0]	n/a	FR1	0	R1234D
860.825	0.517	888342	RETRIEVAL_ORIENT	n/a	n/a	n/a	-999	5	[0, 0, 0]	n/a	FR1	0	R1234D
861.342	1.504	888859	REC_START	n/a	n/a	n/a	-999	5	[0, 0, 0]	n/a	FR1	0	R1234D
862.846	0.963	890363	REC_WORD_VV	0.963	n/a	<>	-999	5	[0, 0, 0]	n/a	FR1	0	R1234D
863.809	1.432	891326	REC_WORD	1.432	n/a	TEETH	-999	5	[0, 0, 0]	n/a	FR1	0	R1234D
865.241	1.11	892757	REC_WORD	1.11	n/a	MILK	-999	5	[0, 0, 0]	n/a	FR1	0	R1234D
866.351	2.609	893867	REC_WORD	2.609	n/a	TANK	-999	5	[0, 0, 0]	n/a	FR1	0	R1234D
868.96	8.695	896476	REC_WORD_VV	8.695	n/a	<>	-999	5	[0, 0, 0]	n/a	FR1	0	R1234D
877.655	13.699	905171	REC_WORD	13.699	n/a	APE	-999	5	[0, 0, 0]	n/a	FR1	0	R1234D
891.354	7.045	918869	REC_END	n/a	n/a	n/a	-999	5	[0, 0, 0]	n/a	FR1	0	R1234D
898.399	0.5	925914	TRIAL	n/a	n/a	n/a	-999	6	[0, 0, 0]	n/a	FR1	0	R1234D
898.899	10.428	926414	COUNTDOWN_START	n/a	n/a	n/a	-999	6	[0, 0, 0]	n/a	FR1	0	R1234D
909.327	0.006	936841	COUNTDOWN_END	n/a	n/a	n/a	-999	6	[0, 0, 0]	n/a	FR1	0	R1234D
909.333	1.618	936847	ORIENT	n/a	n/a	n/a	-999	6	[0, 0, 0]	n/a	FR1	0	R1234D
910.951	2.199	938465	ORIENT_OFF	n/a	n/a	n/a	-999	6	[0, 0, 0]	n/a	FR1	0	R1234D
913.15	1.601	940664	WORD	n/a	wordpools/wordpool_EN.txt	MUG	1	6	[0, 0, 0]	n/a	FR1	0	R1234D
914.751	0.984	942265	WORD_OFF	n/a	n/a	MUG	1	6	[0, 0, 0]	n/a	FR1	0	R1234D
915.735	1.617	943249	WORD	n/a	wordpools/wordpool_EN.txt	DRUM	2	6	[0, 0, 0]	n/a	FR1	0	R1234D
917.352	1.0	944866	WORD_OFF	n/a	n/a	DRUM	2	6	[0, 0, 0]	n/a	FR1	0	R1234D
918.352	1.616	945866	WORD	n/a	wordpools/wordpool_EN.txt	BUSH	3	6	[0, 0, 0]	n/a	FR1	0	R1234D
919.968	0.818	947481	WORD_OFF	n/a	n/a	BUSH	3	6	[0, 0, 0]	n/a	FR1	0	R1234D
920.786	1.617	948299	WORD	n/a	wordpools/wordpool_EN.txt	SMILE	4	6	[0, 0, 0]	n/a	FR1	0	R1234D
922.403	0.866	949916	WORD_OFF	n/a	n/a	SMILE	4	6	[0, 0, 0]	n/a	FR1	0	R1234D
923.269	1.618	950782	WORD	n/a	wordpools/wordpool_EN.txt	HAWK	5	6	[0, 0, 0]	n/a	FR1	0	R1234D
924.887	0.817	952400	WORD_OFF	n/a	n/a	HAWK	5	6	[0, 0, 0]	n/a	FR1	0	R1234D
925.704	1.616	953217	WORD	n/a	wordpools/wordpool_EN.txt	WAND	6	6	[0, 0, 0]	n/a	FR1	0	R1234D
927.32	0.783	954833	WORD_OFF	n/a	n/a	WAND	6	6	[0, 0, 0]	n/a	FR1	0	R1234D
928.103	1.601	955616	WORD	n/a	wordpools/wordpool_EN.txt	TOAD	7	6	[0, 0, 0]	n/a	FR1	0	R1234D
929.704	0.984	957217	WORD_OFF	n/a	n/a	TOAD	7	6	[0, 0, 0]	n/a	FR1	0	R1234D
930.688	1.616	958201	WORD	n/a	wordpools/wordpool_EN.txt	PIG	8	6	[0, 0, 0]	n/a	FR1	0	R1234D
932.304	1.0	959817	WORD_OFF	n/a	n/a	PIG	8	6	[0, 0, 0]	n/a	FR1	0	R1234D
933.304	1.618	960817	WORD	n/a	wordpools/wordpool_EN.txt	MOLE	9	6	[0, 0, 0]	n/a	FR1	0	R1234D
934.922	0.833	962435	WORD_OFF	n/a	n/a	MOLE	9	6	[0, 0, 0]	n/a	FR1	0	R1234D
935.755	1.617	963268	WORD	n/a	wordpools/wordpool_EN.txt	EAR	10	6	[0, 0, 0]	n/a	FR1	0	R1234D
937.372	0.866	964885	WORD_OFF	n/a	n/a	EAR	10	6	[0, 0, 0]	n/a	FR1	0	R1234D
938.238	1.601	965751	WORD	n/a	wordpools/wordpool_EN.txt	HOUSE	11	6	[0, 0, 0]	n/a	FR1	0	R1234D
939.839	1.001	967351	WORD_OFF	n/a	n/a	HOUSE	11	6	[0, 0, 0]	n/a	FR1	0	R1234D
940.84	1.617	968352	WORD	n/a	wordpools/wordpool_EN.txt	STRING	12	6	[0, 0, 0]	n/a	FR1	0	R1234D
942.457	0.0	969969	DISTRACT_START	n/a	n/a	n/a	-999	6	[0, 0, 0]	n/a	FR1	0	R1234D
942.457	0.0	969969	WORD_OFF	n/a	n/a	STRING	12	6	[0, 0, 0]	n/a	FR1	0	R1234D
942.457	0.016	969969	START	n/a	n/a	n/a	-999	6	[-999, -999, -999]	n/a	FR1	0	R1234D
942.473	10.202	969985	PROB	10.202	n/a	n/a	-999	6	[7, 8, 2]	17	FR1	0	R1234D
952.675	4.768	980187	PROB	4.768	n/a	n/a	-999	6	[5, 5, 7]	17	FR1	0	R1234D
957.443	8.152	984954	PROB	8.152	n/a	n/a	-999	6	[3, 6, 4]	12	FR1	0	R1234D
965.595	0.016	993106	STOP	n/a	n/a	n/a	-999	6	[-999, -999, -999]	n/a	FR1	0	R1234D
965.611	0.549	993122	DISTRACT_END	n/a	n/a	n/a	-999	6	[0, 0, 0]	n/a	FR1	0	R1234D
966.16	0.518	993671	RETRIEVAL_ORIENT	n/a	n/a	n/a	-999	6	[0, 0, 0]	n/a	FR1	0	R1234D
966.678	4.219	994189	REC_START	n/a	n/a	n/a	-999	6	[0, 0, 0]	n/a	FR1	0	R1234D
970.897	1.456	998408	REC_WORD	1.456	n/a	MUG	-999	6	[0, 0, 0]	n/a	FR1	0	R1234D
972.353	2.608	999864	REC_WORD	2.608	n/a	DRUM	-999	6	[0, 0, 0]	n/a	FR1	0	R1234D
974.961	0.369	1002472	REC_WORD	0.369	n/a	MUG	-999	6	[0, 0, 0]	n/a	FR1	0	R1234D
975.33	2.916	1002841	REC_WORD	2.916	n/a	DRUM	-999	6	[0, 0, 0]	n/a	FR1	0	R1234D
978.246	0.783	1005756	REC_WORD	0.783	n/a	TOAD	-999	6	[0, 0, 0]	n/a	FR1	0	R1234D
979.029	17.661	1006539	REC_WORD	17.661	n/a	PIG	-999	6	[0, 0, 0]	n/a	FR1	0	R1234D
996.69	8.695	1024199	REC_END	n/a	n/a	n/a	-999	6	[0, 0, 0]	n/a	FR1	0	R1234D
1005.385	0.5	1032894	TRIAL	n/a	n/a	n/a	-999	7	[0, 0, 0]	n/a	FR1	0	R1234D
1005.885	10.428	1033394	COUNTDOWN_START	n/a	n/a	n/a	-999	7	[0, 0, 0]	n/a	FR1	0	R1234D
1016.313	0.006	1043821	COUNTDOWN_END	n/a	n/a	n/a	-999	7	[0, 0, 0]	n/a	FR1	0	R1234D
1016.319	1.618	1043827	ORIENT	n/a	n/a	n/a	-999	7	[0, 0, 0]	n/a	FR1	0	R1234D
1017.937	2.15	1045445	ORIENT_OFF	n/a	n/a	n/a	-999	7	[0, 0, 0]	n/a	FR1	0	R1234D
1020.087	1.618	1047595	WORD	n/a	wordpools/wordpool_EN.txt	TOOL	1	7	[0, 0, 0]	n/a	FR1	0	R1234D
1021.705	0.85	1049213	WORD_OFF	n/a	n/a	TOOL	1	7	[0, 0, 0]	n/a	FR1	0	R1234D
1022.555	1.616	1050063	WORD	n/a	wordpools/wordpool_EN.txt	SEED	2	7	[0, 0, 0]	n/a	FR1	0	R1234D
1024.171	0.967	1051679	WORD_OFF	n/a	n/a	SEED	2	7	[0, 0, 0]	n/a	FR1	0	R1234D
1025.138	1.618	1052646	WORD	n/a	wordpools/wordpool_EN.txt	WORM	3	7	[0, 0, 0]	n/a	FR1	0	R1234D
1026.756	0.95	1054264	WORD_OFF	n/a	n/a	WORM	3	7	[0, 0, 0]	n/a	FR1	0	R1234D
1027.706	1.616	1055214	WORD	n/a	wordpools/wordpool_EN.txt	MOTH	4	7	[0, 0, 0]	n/a	FR1	0	R1234D
1029.322	0.817	1056830	WORD_OFF	n/a	n/a	MOTH	4	7	[0, 0, 0]	n/a	FR1	0	R1234D
1030.139	1.617	1057647	WORD	n/a	wordpools/wordpool_EN.txt	BEE	5	7	[0, 0, 0]	n/a	FR1	0	R1234D
1031.756	0.984	1059263	WORD_OFF	n/a	n/a	BEE	5	7	[0, 0, 0]	n/a	FR1	0	R1234D
1032.74	1.617	1060247	WORD	n/a	wordpools/wordpool_EN.txt	FLUTE	6	7	[0, 0, 0]	n/a	FR1	0	R1234D
1034.357	0.982	1061864	WORD_OFF	n/a	n/a	FLUTE	6	7	[0, 0, 0]	n/a	FR1	0	R1234D
1035.339	1.618	1062846	WORD	n/a	wordpools/wordpool_EN.txt	CORD	7	7	[0, 0, 0]	n/a	FR1	0	R1234D
1036.957	0.984	1064464	WORD_OFF	n/a	n/a	CORD	7	7	[0, 0, 0]	n/a	FR1	0	R1234D
1037.941	1.617	1065448	WORD	n/a	wordpools/wordpool_EN.txt	EGG	8	7	[0, 0, 0]	n/a	FR1	0	R1234D
1039.558	0.933	1067065	WORD_OFF	n/a	n/a	EGG	8	7	[0, 0, 0]	n/a	FR1	0	R1234D
1040.491	1.616	1067998	WORD	n/a	wordpools/wordpool_EN.txt	CAT	9	7	[0, 0, 0]	n/a	FR1	0	R1234D
1042.107	0.867	1069614	WORD_OFF	n/a	n/a	CAT	9	7	[0, 0, 0]	n/a	FR1	0	R1234D
1042.974	1.618	1070481	WORD	n/a	wordpools/wordpool_EN.txt	GLOVE	10	7	[0, 0, 0]	n/a	FR1	0	R1234D
1044.592	0.933	1072099	WORD_OFF	n/a	n/a	GLOVE	10	7	[0, 0, 0]	n/a	FR1	0	R1234D
1045.525	1.617	1073032	WORD	n/a	wordpools/wordpool_EN.txt	WEB	11	7	[0, 0, 0]	n/a	FR1	0	R1234D
1047.142	0.95	1074649	WORD_OFF	n/a	n/a	WEB	11	7	[0, 0, 0]	n/a	FR1	0	R1234D
1048.092	1.618	1075599	WORD	n/a	wordpools/wordpool_EN.txt	TRASH	12	7	[0, 0, 0]	n/a	FR1	0	R1234D
1049.71	0.0	1077216	WORD_OFF	n/a	n/a	TRASH	12	7	[0, 0, 0]	n/a	FR1	0	R1234D
1049.71	0.0	1077216	DISTRACT_START	n/a	n/a	n/a	-999	7	[0, 0, 0]	n/a	FR1	0	R1234D
1049.71	0.016	1077216	START	n/a	n/a	n/a	-999	7	[-999, -999, -999]	n/a	FR1	0	R1234D
1049.726	19.704	1077232	PROB	19.704	n/a	n/a	-999	7	[8, 9, 4]	21	FR1	0	R1234D
1069.43	9.438	1096935	PROB	9.438	n/a	n/a	-999	7	[4, 4, 6]	15	FR1	0	R1234D
1078.868	0.014	1106373	STOP	n/a	n/a	n/a	-999	7	[-999, -999, -999]	n/a	FR1	0	R1234D
1078.882	0.683	1106387	DISTRACT_END	n/a	n/a	n/a	-999	7	[0, 0, 0]	n/a	FR1	0	R1234D
1079.565	0.517	1107070	RETRIEVAL_ORIENT	n/a	n/a	n/a	-999	7	[0, 0, 0]	n/a	FR1	0	R1234D
1080.082	2.187	1107587	REC_START	n/a	n/a	n/a	-999	7	[0, 0, 0]	n/a	FR1	0	R1234D
1082.269	0.681	1109774	REC_WORD	0.681	n/a	TOOL	-999	7	[0, 0, 0]	n/a	FR1	0	R1234D
1082.95	2.126	1110455	REC_WORD	2.126	n/a	SEED	-999	7	[0, 0, 0]	n/a	FR1	0	R1234D
1085.076	7.735	1112581	REC_WORD	7.735	n/a	CAT	-999	7	[0, 0, 0]	n/a	FR1	0	R1234D
1092.811	0.131	1120315	REC_WORD	0.131	n/a	TOOL	-999	7	[0, 0, 0]	n/a	FR1	0	R1234D
1092.942	0.506	1120446	REC_WORD	0.506	n/a	SEED	-999	7	[0, 0, 0]	n/a	FR1	0	R1234D
1093.448	1.013	1120952	REC_WORD	1.013	n/a	MOUSE	-999	7	[0, 0, 0]	n/a	FR1	0	R1234D
1094.461	0.149	1121965	REC_WORD_VV	0.149	n/a	<>	-999	7	[0, 0, 0]	n/a	FR1	0	R1234D
1094.61	15.481	1122114	REC_WORD	15.481	n/a	MOUSE	-999	7	[0, 0, 0]	n/a	FR1	0	R1234D
1110.091	6.814	1137594	REC_END	n/a	n/a	n/a	-999	7	[0, 0, 0]	n/a	FR1	0	R1234D
1116.905	0.5	1144408	TRIAL	n/a	n/a	n/a	-999	8	[0, 0, 0]	n/a	FR1	0	R1234D
1117.405	10.428	1144908	COUNTDOWN_START	n/a	n/a	n/a	-999	8	[0, 0, 0]	n/a	FR1	0	R1234D
1127.833	0.008	1155335	COUNTDOWN_END	n/a	n/a	n/a	-999	8	[0, 0, 0]	n/a	FR1	0	R1234D
1127.841	1.617	1155343	ORIENT	n/a	n/a	n/a	-999	8	[0, 0, 0]	n/a	FR1	0	R1234D
1129.458	1.849	1156960	ORIENT_OFF	n/a	n/a	n/a	-999	8	[0, 0, 0]	n/a	FR1	0	R1234D
1131.307	1.618	1158809	WORD	n/a	wordpools/wordpool_EN.txt	LEAF	1	8	[0, 0, 0]	n/a	FR1	0	R1234D
1132.925	0.917	1160427	WORD_OFF	n/a	n/a	LEAF	1	8	[0, 0, 0]	n/a	FR1	0	R1234D
1133.842	1.617	1161344	WORD	n/a	wordpools/wordpool_EN.txt	BEAN	2	8	[0, 0, 0]	n/a	FR1	0	R1234D
1135.459	0.933	1162961	WORD_OFF	n/a	n/a	BEAN	2	8	[0, 0, 0]	n/a	FR1	0	R1234D
1136.392	1.616	1163894	WORD	n/a	wordpools/wordpool_EN.txt	FRUIT	3	8	[0, 0, 0]	n/a	FR1	0	R1234D
1138.008	0.835	1165510	WORD_OFF	n/a	n/a	FRUIT	3	8	[0, 0, 0]	n/a	FR1	0	R1234D
1138.843	1.617	1166345	WORD	n/a	wordpools/wordpool_EN.txt	SNAKE	4	8	[0, 0, 0]	n/a	FR1	0	R1234D
1140.46	0.933	1167962	WORD_OFF	n/a	n/a	SNAKE	4	8	[0, 0, 0]	n/a	FR1	0	R1234D
1141.393	1.616	1168895	WORD	n/a	wordpools/wordpool_EN.txt	WORLD	5	8	[0, 0, 0]	n/a	FR1	0	R1234D
1143.009	0.884	1170510	WORD_OFF	n/a	n/a	WORLD	5	8	[0, 0, 0]	n/a	FR1	0	R1234D
1143.893	1.617	1171394	WORD	n/a	wordpools/wordpool_EN.txt	TREE	6	8	[0, 0, 0]	n/a	FR1	0	R1234D
1145.51	0.8	1173011	WORD_OFF	n/a	n/a	TREE	6	8	[0, 0, 0]	n/a	FR1	0	R1234D
1146.31	1.618	1173811	WORD	n/a	wordpools/wordpool_EN.txt	BIRD	7	8	[0, 0, 0]	n/a	FR1	0	R1234D
1147.928	0.766	1175429	WORD_OFF	n/a	n/a	BIRD	7	8	[0, 0, 0]	n/a	FR1	0	R1234D
1148.694	1.616	1176195	WORD	n/a	wordpools/wordpool_EN.txt	RICE	8	8	[0, 0, 0]	n/a	FR1	0	R1234D
1150.31	0.917	1177811	WORD_OFF	n/a	n/a	RICE	8	8	[0, 0, 0]	n/a	FR1	0	R1234D
1151.227	1.618	1178728	WORD	n/a	wordpools/wordpool_EN.txt	PIT	9	8	[0, 0, 0]	n/a	FR1	0	R1234D
1152.845	1.0	1180346	WORD_OFF	n/a	n/a	PIT	9	8	[0, 0, 0]	n/a	FR1	0	R1234D
1153.845	1.617	1181346	WORD	n/a	wordpools/wordpool_EN.txt	CANE	10	8	[0, 0, 0]	n/a	FR1	0	R1234D
1155.462	0.967	1182963	WORD_OFF	n/a	n/a	CANE	10	8	[0, 0, 0]	n/a	FR1	0	R1234D
1156.429	1.616	1183930	WORD	n/a	wordpools/wordpool_EN.txt	GRASS	11	8	[0, 0, 0]	n/a	FR1	0	R1234D
1158.045	0.818	1185546	WORD_OFF	n/a	n/a	GRASS	11	8	[0, 0, 0]	n/a	FR1	0	R1234D
1158.863	1.617	1186364	WORD	n/a	wordpools/wordpool_EN.txt	FISH	12	8	[0, 0, 0]	n/a	FR1	0	R1234D
1160.48	0.0	1187980	WORD_OFF	n/a	n/a	FISH	12	8	[0, 0, 0]	n/a	FR1	0	R1234D
1160.48	0.0	1187980	DISTRACT_START	n/a	n/a	n/a	-999	8	[0, 0, 0]	n/a	FR1	0	R1234D
1160.48	0.017	1187980	START	n/a	n/a	n/a	-999	8	[-999, -999, -999]	n/a	FR1	0	R1234D
1160.497	14.568	1187997	PROB	14.568	n/a	n/a	-999	8	[6, 6, 4]	16	FR1	0	R1234D
1175.065	9.482	1202565	PROB	9.482	n/a	n/a	-999	8	[5, 8, 7]	20	FR1	0	R1234D
1184.547	0.021	1212046	STOP	n/a	n/a	n/a	-999	8	[-999, -999, -999]	n/a	FR1	0	R1234D
1184.568	0.649	1212067	DISTRACT_END	n/a	n/a	n/a	-999	8	[0, 0, 0]	n/a	FR1	0	R1234D
1185.217	0.518	1212716	RETRIEVAL_ORIENT	n/a	n/a	n/a	-999	8	[0, 0, 0]	n/a	FR1	0	R1234D
1185.735	2.087	1213234	REC_START	n/a	n/a	n/a	-999	8	[0, 0, 0]	n/a	FR1	0	R1234D
1187.822	2.767	1215321	REC_WORD_VV	2.767	n/a	<>	-999	8	[0, 0, 0]	n/a	FR1	0	R1234D
1190.589	1.169	1218088	REC_WORD	1.169	n/a	LEAF	-999	8	[0, 0, 0]	n/a	FR1	0	R1234D
1191.758	0.485	1219257	REC_WORD	0.485	n/a	TREE	-999	8	[0, 0, 0]	n/a	FR1	0	R1234D
1192.243	1.413	1219742	REC_WORD	1.413	n/a	BIRD	-999	8	[0, 0, 0]	n/a	FR1	0	R1234D
1193.656	2.218	1221155	REC_WORD	2.218	n/a	SNAKE	-999	8	[0, 0, 0]	n/a	FR1	0	R1234D
1195.874	19.871	1223373	REC_WORD	19.871	n/a	GRASS	-999	8	[0, 0, 0]	n/a	FR1	0	R1234D
1215.745	6.279	1243243	REC_END	n/a	n/a	n/a	-999	8	[0, 0, 0]	n/a	FR1	0	R1234D
1222.024	0.5	1249521	TRIAL	n/a	n/a	n/a	-999	9	[0, 0, 0]	n/a	FR1	0	R1234D
1222.524	10.428	1250021	COUNTDOWN_START	n/a	n/a	n/a	-999	9	[0, 0, 0]	n/a	FR1	0	R1234D
1232.952	0.007	1260449	COUNTDOWN_END	n/a	n/a	n/a	-999	9	[0, 0, 0]	n/a	FR1	0	R1234D
1232.959	1.618	1260456	ORIENT	n/a	n/a	n/a	-999	9	[0, 0, 0]	n/a	FR1	0	R1234D
1234.577	2.2	1262073	ORIENT_OFF	n/a	n/a	n/a	-999	9	[0, 0, 0]	n/a	FR1	0	R1234D
1236.777	1.617	1264273	WORD	n/a	wordpools/wordpool_EN.txt	PASTE	1	9	[0, 0, 0]	n/a	FR1	0	R1234D
1238.394	0.949	1265890	WORD_OFF	n/a	n/a	PASTE	1	9	[0, 0, 0]	n/a	FR1	0	R1234D
1239.343	1.617	1266839	WORD	n/a	wordpools/wordpool_EN.txt	STEAK	2	9	[0, 0, 0]	n/a	FR1	0	R1234D
1240.96	0.968	1268456	WORD_OFF	n/a	n/a	STEAK	2	9	[0, 0, 0]	n/a	FR1	0	R1234D
1241.928	1.617	1269424	WORD	n/a	wordpools/wordpool_EN.txt	BOX	3	9	[0, 0, 0]	n/a	FR1	0	R1234D
1243.545	0.834	1271041	WORD_OFF	n/a	n/a	BOX	3	9	[0, 0, 0]	n/a	FR1	0	R1234D
1244.379	1.615	1271875	WORD	n/a	wordpools/wordpool_EN.txt	SKUNK	4	9	[0, 0, 0]	n/a	FR1	0	R1234D
1245.994	0.952	1273490	WORD_OFF	n/a	n/a	SKUNK	4	9	[0, 0, 0]	n/a	FR1	0	R1234D
1246.946	1.617	1274442	WORD	n/a	wordpools/wordpool_EN.txt	HOOF	5	9	[0, 0, 0]	n/a	FR1	0	R1234D
1248.563	0.95	1276059	WORD_OFF	n/a	n/a	HOOF	5	9	[0, 0, 0]	n/a	FR1	0	R1234D
1249.513	1.616	1277009	WORD	n/a	wordpools/wordpool_EN.txt	PLATE	6	9	[0, 0, 0]	n/a	FR1	0	R1234D
1251.129	0.883	1278625	WORD_OFF	n/a	n/a	PLATE	6	9	[0, 0, 0]	n/a	FR1	0	R1234D
1252.012	1.618	1279508	WORD	n/a	wordpools/wordpool_EN.txt	WOOD	7	9	[0, 0, 0]	n/a	FR1	0	R1234D
1253.63	0.817	1281125	WORD_OFF	n/a	n/a	WOOD	7	9	[0, 0, 0]	n/a	FR1	0	R1234D
1254.447	1.616	1281942	WORD	n/a	wordpools/wordpool_EN.txt	MAT	8	9	[0, 0, 0]	n/a	FR1	0	R1234D
1256.063	0.851	1283558	WORD_OFF	n/a	n/a	MAT	8	9	[0, 0, 0]	n/a	FR1	0	R1234D
1256.914	1.617	1284409	WORD	n/a	wordpools/wordpool_EN.txt	PEAR	9	9	[0, 0, 0]	n/a	FR1	0	R1234D
1258.531	0.9	1286026	WORD_OFF	n/a	n/a	PEAR	9	9	[0, 0, 0]	n/a	FR1	0	R1234D
1259.431	1.616	1286926	WORD	n/a	wordpools/wordpool_EN.txt	PEACH	10	9	[0, 0, 0]	n/a	FR1	0	R1234D
1261.047	0.885	1288542	WORD_OFF	n/a	n/a	PEACH	10	9	[0, 0, 0]	n/a	FR1	0	R1234D
1261.932	1.617	1289427	WORD	n/a	wordpools/wordpool_EN.txt	PEN	11	9	[0, 0, 0]	n/a	FR1	0	R1234D
1263.549	0.933	1291044	WORD_OFF	n/a	n/a	PEN	11	9	[0, 0, 0]	n/a	FR1	0	R1234D
1264.482	1.616	1291977	WORD	n/a	wordpools/wordpool_EN.txt	VAN	12	9	[0, 0, 0]	n/a	FR1	0	R1234D
1266.098	0.0	1293593	WORD_OFF	n/a	n/a	VAN	12	9	[0, 0, 0]	n/a	FR1	0	R1234D
1266.098	0.001	1293593	DISTRACT_START	n/a	n/a	n/a	-999	9	[0, 0, 0]	n/a	FR1	0	R1234D
1266.099	0.016	1293594	START	n/a	n/a	n/a	-999	9	[-999, -999, -999]	n/a	FR1	0	R1234D
1266.115	10.135	1293610	PROB	10.135	n/a	n/a	-999	9	[7, 6, 1]	14	FR1	0	R1234D
1276.25	5.984	1303744	PROB	5.984	n/a	n/a	-999	9	[9, 2, 4]	15	FR1	0	R1234D
1282.234	8.217	1309728	PROB	8.217	n/a	n/a	-999	9	[2, 6, 5]	13	FR1	0	R1234D
1290.451	0.019	1317944	STOP	n/a	n/a	n/a	-999	9	[-999, -999, -999]	n/a	FR1	0	R1234D
1290.47	0.516	1317963	DISTRACT_END	n/a	n/a	n/a	-999	9	[0, 0, 0]	n/a	FR1	0	R1234D
1290.986	0.519	1318479	RETRIEVAL_ORIENT	n/a	n/a	n/a	-999	9	[0, 0, 0]	n/a	FR1	0	R1234D
1291.505	1.175	1318998	REC_START	n/a	n/a	n/a	-999	9	[0, 0, 0]	n/a	FR1	0	R1234D
1292.68	0.928	1320173	REC_WORD_VV	0.928	n/a	<>	-999	9	[0, 0, 0]	n/a	FR1	0	R1234D
1293.608	0.369	1321101	REC_WORD	0.369	n/a	PEAR	-999	9	[0, 0, 0]	n/a	FR1	0	R1234D
1293.977	0.554	1321470	REC_WORD	0.554	n/a	PEACH	-999	9	[0, 0, 0]	n/a	FR1	0	R1234D
1294.531	2.995	1322024	REC_WORD	2.995	n/a	VAN	-999	9	[0, 0, 0]	n/a	FR1	0	R1234D
1297.526	7.335	1325019	REC_WORD	7.335	n/a	PASTE	-999	9	[0, 0, 0]	n/a	FR1	0	R1234D
1304.861	5.776	1332354	REC_WORD	5.776	n/a	PATCH	-999	9	[0, 0, 0]	n/a	FR1	0	R1234D
1310.637	10.876	1338129	REC_WORD_VV	10.876	n/a	<>	-999	9	[0, 0, 0]	n/a	FR1	0	R1234D
1321.513	5.981	1349005	REC_END	n/a	n/a	n/a	-999	9	[0, 0, 0]	n/a	FR1	0	R1234D
1327.494	0.5	1354985	TRIAL	n/a	n/a	n/a	-999	10	[0, 0, 0]	n/a	FR1	0	R1234D
1327.994	10.428	1355485	COUNTDOWN_START	n/a	n/a	n/a	-999	10	[0, 0, 0]	n/a	FR1	0	R1234D
1338.422	0.007	1365913	COUNTDOWN_END	n/a	n/a	n/a	-999	10	[0, 0, 0]	n/a	FR1	0	R1234D
1338.429	1.616	1365920	ORIENT	n/a	n/a	n/a	-999	10	[0, 0, 0]	n/a	FR1	0	R1234D
1340.045	2.017	1367536	ORIENT_OFF	n/a	n/a	n/a	-999	10	[0, 0, 0]	n/a	FR1	0	R1234D
1342.062	1.618	1369553	WORD	n/a	wordpools/wordpool_EN.txt	SUIT	1	10	[0, 0, 0]	n/a	FR1	0	R1234D
1343.68	0.917	1371171	WORD_OFF	n/a	n/a	SUIT	1	10	[0, 0, 0]	n/a	FR1	0	R1234D
1344.597	1.616	1372088	WORD	n/a	wordpools/wordpool_EN.txt	TIE	2	10	[0, 0, 0]	n/a	FR1	0	R1234D
1346.213	0.817	1373703	WORD_OFF	n/a	n/a	TIE	2	10	[0, 0, 0]	n/a	FR1	0	R1234D
1347.03	1.618	1374520	WORD	n/a	wordpools/wordpool_EN.txt	LIP	3	10	[0, 0, 0]	n/a	FR1	0	R1234D
1348.648	0.766	1376138	WORD_OFF	n/a	n/a	LIP	3	10	[0, 0, 0]	n/a	FR1	0	R1234D
1349.414	1.616	1376904	WORD	n/a	wordpools/wordpool_EN.txt	ARM	4	10	[0, 0, 0]	n/a	FR1	0	R1234D
1351.03	0.967	1378520	WORD_OFF	n/a	n/a	ARM	4	10	[0, 0, 0]	n/a	FR1	0	R1234D
1351.997	1.618	1379487	WORD	n/a	wordpools/wordpool_EN.txt	TOE	5	10	[0, 0, 0]	n/a	FR1	0	R1234D
1353.615	0.967	1381105	WORD_OFF	n/a	n/a	TOE	5	10	[0, 0, 0]	n/a	FR1	0	R1234D
1354.582	1.616	1382072	WORD	n/a	wordpools/wordpool_EN.txt	FENCE	6	10	[0, 0, 0]	n/a	FR1	0	R1234D
1356.198	0.867	1383688	WORD_OFF	n/a	n/a	FENCE	6	10	[0, 0, 0]	n/a	FR1	0	R1234D
1357.065	1.618	1384555	WORD	n/a	wordpools/wordpool_EN.txt	BAND	7	10	[0, 0, 0]	n/a	FR1	0	R1234D
1358.683	0.917	1386173	WORD_OFF	n/a	n/a	BAND	7	10	[0, 0, 0]	n/a	FR1	0	R1234D
1359.6	1.616	1387090	WORD	n/a	wordpools/wordpool_EN.txt	SLEEVE	8	10	[0, 0, 0]	n/a	FR1	0	R1234D
1361.216	0.966	1388706	WORD_OFF	n/a	n/a	SLEEVE	8	10	[0, 0, 0]	n/a	FR1	0	R1234D
1362.182	1.602	1389672	WORD	n/a	wordpools/wordpool_EN.txt	PURSE	9	10	[0, 0, 0]	n/a	FR1	0	R1234D
1363.784	0.816	1391273	WORD_OFF	n/a	n/a	PURSE	9	10	[0, 0, 0]	n/a	FR1	0	R1234D
1364.6	1.616	1392089	WORD	n/a	wordpools/wordpool_EN.txt	NOSE	10	10	[0, 0, 0]	n/a	FR1	0	R1234D
1366.216	0.967	1393705	WORD_OFF	n/a	n/a	NOSE	10	10	[0, 0, 0]	n/a	FR1	0	R1234D
1367.183	1.618	1394672	WORD	n/a	wordpools/wordpool_EN.txt	FOAM	11	10	[0, 0, 0]	n/a	FR1	0	R1234D
1368.801	0.884	1396290	WORD_OFF	n/a	n/a	FOAM	11	10	[0, 0, 0]	n/a	FR1	0	R1234D
1369.685	1.616	1397174	WORD	n/a	wordpools/wordpool_EN.txt	OAR	12	10	[0, 0, 0]	n/a	FR1	0	R1234D
1371.301	0.0	1398790	WORD_OFF	n/a	n/a	OAR	12	10	[0, 0, 0]	n/a	FR1	0	R1234D
1371.301	0.0	1398790	DISTRACT_START	n/a	n/a	n/a	-999	10	[0, 0, 0]	n/a	FR1	0	R1234D
1371.301	0.016	1398790	START	n/a	n/a	n/a	-999	10	[-999, -999, -999]	n/a	FR1	0	R1234D
1371.317	16.188	1398806	PROB	16.188	n/a	n/a	-999	10	[8, 7, 8]	23	FR1	0	R1234D
1387.505	12.266	1414993	PROB	12.266	n/a	n/a	-999	10	[9, 4, 7]	20	FR1	0	R1234D
1399.771	0.019	1427259	STOP	n/a	n/a	n/a	-999	10	[-999, -999, -999]	n/a	FR1	0	R1234D
1399.79	0.516	1427278	DISTRACT_END	n/a	n/a	n/a	-999	10	[0, 0, 0]	n/a	FR1	0	R1234D
1400.306	0.518	1427794	RETRIEVAL_ORIENT	n/a	n/a	n/a	-999	10	[0, 0, 0]	n/a	FR1	0	R1234D
1400.824	1.544	1428311	REC_START	n/a	n/a	n/a	-999	10	[0, 0, 0]	n/a	FR1	0	R1234D
1402.368	1.293	1429855	REC_WORD	1.293	n/a	SUIT	-999	10	[0, 0, 0]	n/a	FR1	0	R1234D
1403.661	0.831	1431148	REC_WORD	0.831	n/a	TIE	-999	10	[0, 0, 0]	n/a	FR1	0	R1234D
1404.492	2.231	1431979	REC_WORD	2.231	n/a	SLEEVE	-999	10	[0, 0, 0]	n/a	FR1	0	R1234D
1406.723	24.112	1434210	REC_WORD	24.112	n/a	BAND	-999	10	[0, 0, 0]	n/a	FR1	0	R1234D
1430.835	5.895	1458321	REC_END	n/a	n/a	n/a	-999	10	[0, 0, 0]	n/a	FR1	0	R1234D
1436.73	0.5	1464216	TRIAL	n/a	n/a	n/a	-999	11	[0, 0, 0]	n/a	FR1	0	R1234D
1437.23	10.428	1464716	COUNTDOWN_START	n/a	n/a	n/a	-999	11	[0, 0, 0]	n/a	FR1	0	R1234D
1447.658	0.008	1475143	COUNTDOWN_END	n/a	n/a	n/a	-999	11	[0, 0, 0]	n/a	FR1	0	R1234D
1447.666	1.616	1475151	ORIENT	n/a	n/a	n/a	-999	11	[0, 0, 0]	n/a	FR1	0	R1234D
1449.282	2.201	1476767	ORIENT_OFF	n/a	n/a	n/a	-999	11	[0, 0, 0]	n/a	FR1	0	R1234D
1451.483	1.616	1478968	WORD	n/a	wordpools/wordpool_EN.txt	HAT	1	11	[0, 0, 0]	n/a	FR1	0	R1234D
1453.099	0.835	1480584	WORD_OFF	n/a	n/a	HAT	1	11	[0, 0, 0]	n/a	FR1	0	R1234D
1453.934	1.616	1481419	WORD	n/a	wordpools/wordpool_EN.txt	GOLD	2	11	[0, 0, 0]	n/a	FR1	0	R1234D
1455.55	0.834	1483035	WORD_OFF	n/a	n/a	GOLD	2	11	[0, 0, 0]	n/a	FR1	0	R1234D
1456.384	1.616	1483868	WORD	n/a	wordpools/wordpool_EN.txt	SLIME	3	11	[0, 0, 0]	n/a	FR1	0	R1234D
1458.0	0.784	1485484	WORD_OFF	n/a	n/a	SLIME	3	11	[0, 0, 0]	n/a	FR1	0	R1234D
1458.784	1.617	1486268	WORD	n/a	wordpools/wordpool_EN.txt	BENCH	4	11	[0, 0, 0]	n/a	FR1	0	R1234D
1460.401	1.001	1487885	WORD_OFF	n/a	n/a	BENCH	4	11	[0, 0, 0]	n/a	FR1	0	R1234D
1461.402	1.615	1488886	WORD	n/a	wordpools/wordpool_EN.txt	DESK	5	11	[0, 0, 0]	n/a	FR1	0	R1234D
1463.017	1.017	1490501	WORD_OFF	n/a	n/a	DESK	5	11	[0, 0, 0]	n/a	FR1	0	R1234D
1464.034	1.601	1491518	WORD	n/a	wordpools/wordpool_EN.txt	STREET	6	11	[0, 0, 0]	n/a	FR1	0	R1234D
1465.635	0.834	1493119	WORD_OFF	n/a	n/a	STREET	6	11	[0, 0, 0]	n/a	FR1	0	R1234D
1466.469	1.616	1493953	WORD	n/a	wordpools/wordpool_EN.txt	STOOL	7	11	[0, 0, 0]	n/a	FR1	0	R1234D
1468.085	0.818	1495569	WORD_OFF	n/a	n/a	STOOL	7	11	[0, 0, 0]	n/a	FR1	0	R1234D
1468.903	1.617	1496387	WORD	n/a	wordpools/wordpool_EN.txt	SEAT	8	11	[0, 0, 0]	n/a	FR1	0	R1234D
1470.52	0.933	1498004	WORD_OFF	n/a	n/a	SEAT	8	11	[0, 0, 0]	n/a	FR1	0	R1234D
1471.453	1.616	1498937	WORD	n/a	wordpools/wordpool_EN.txt	SHOE	9	11	[0, 0, 0]	n/a	FR1	0	R1234D
1473.069	1.017	1500553	WORD_OFF	n/a	n/a	SHOE	9	11	[0, 0, 0]	n/a	FR1	0	R1234D
1474.086	1.618	1501570	WORD	n/a	wordpools/wordpool_EN.txt	THREAD	10	11	[0, 0, 0]	n/a	FR1	0	R1234D
1475.704	0.867	1503187	WORD_OFF	n/a	n/a	THREAD	10	11	[0, 0, 0]	n/a	FR1	0	R1234D
1476.571	1.616	1504054	WORD	n/a	wordpools/wordpool_EN.txt	GEESE	11	11	[0, 0, 0]	n/a	FR1	0	R1234D
1478.187	0.768	1505670	WORD_OFF	n/a	n/a	GEESE	11	11	[0, 0, 0]	n/a	FR1	0	R1234D
1478.955	1.617	1506438	WORD	n/a	wordpools/wordpool_EN.txt	DOLL	12	11	[0, 0, 0]	n/a	FR1	0	R1234D
1480.572	0.0	1508055	WORD_OFF	n/a	n/a	DOLL	12	11	[0, 0, 0]	n/a	FR1	0	R1234D
1480.572	0.001	1508055	DISTRACT_START	n/a	n/a	n/a	-999	11	[0, 0, 0]	n/a	FR1	0	R1234D
1480.573	0.015	1508056	START	n/a	n/a	n/a	-999	11	[-999, -999, -999]	n/a	FR1	0	R1234D
1480.588	11.102	1508071	PROB	11.102	n/a	n/a	-999	11	[4, 8, 8]	29	FR1	0	R1234D
1491.69	12.874	1519173	PROB	12.874	n/a	n/a	-999	11	[7, 3, 6]	15	FR1	0	R1234D
1504.564	0.012	1532046	STOP	n/a	n/a	n/a	-999	11	[-999, -999, -999]	n/a	FR1	0	R1234D
1504.576	0.616	1532058	DISTRACT_END	n/a	n/a	n/a	-999	11	[0, 0, 0]	n/a	FR1	0	R1234D
1505.192	0.518	1532674	RETRIEVAL_ORIENT	n/a	n/a	n/a	-999	11	[0, 0, 0]	n/a	FR1	0	R1234D
1505.71	2.433	1533192	REC_START	n/a	n/a	n/a	-999	11	[0, 0, 0]	n/a	FR1	0	R1234D
1508.143	0.334	1535625	REC_WORD_VV	0.334	n/a	<>	-999	11	[0, 0, 0]	n/a	FR1	0	R1234D
1508.477	1.725	1535959	REC_WORD	1.725	n/a	GEESE	-999	11	[0, 0, 0]	n/a	FR1	0	R1234D
1510.202	2.922	1537684	REC_WORD	2.922	n/a	SLIME	-999	11	[0, 0, 0]	n/a	FR1	0	R1234D
1513.124	15.712	1540605	REC_WORD_VV	15.712	n/a	<>	-999	11	[0, 0, 0]	n/a	FR1	0	R1234D
1528.836	6.884	1556317	REC_WORD	6.884	n/a	BENCH	-999	11	[0, 0, 0]	n/a	FR1	0	R1234D
1535.72	5.763	1563200	REC_END	n/a	n/a	n/a	-999	11	[0, 0, 0]	n/a	FR1	0	R1234D
1541.483	0.5	1568963	TRIAL	n/a	n/a	n/a	-999	12	[0, 0, 0]	n/a	FR1	0	R1234D
1541.983	10.428	1569463	COUNTDOWN_START	n/a	n/a	n/a	-999	12	[0, 0, 0]	n/a	FR1	0	R1234D
1552.411	0.007	1579890	COUNTDOWN_END	n/a	n/a	n/a	-999	12	[0, 0, 0]	n/a	FR1	0	R1234D
1552.418	1.616	1579897	ORIENT	n/a	n/a	n/a	-999	12	[0, 0, 0]	n/a	FR1	0	R1234D
1554.034	2.134	1581513	ORIENT_OFF	n/a	n/a	n/a	-999	12	[0, 0, 0]	n/a	FR1	0	R1234D
1556.168	1.618	1583647	WORD	n/a	wordpools/wordpool_EN.txt	ROSE	1	12	[0, 0, 0]	n/a	FR1	0	R1234D
1557.786	0.867	1585265	WORD_OFF	n/a	n/a	ROSE	1	12	[0, 0, 0]	n/a	FR1	0	R1234D
1558.653	1.616	1586132	WORD	n/a	wordpools/wordpool_EN.txt	PIPE	2	12	[0, 0, 0]	n/a	FR1	0	R1234D
1560.269	0.783	1587748	WORD_OFF	n/a	n/a	PIPE	2	12	[0, 0, 0]	n/a	FR1	0	R1234D
1561.052	1.618	1588531	WORD	n/a	wordpools/wordpool_EN.txt	POOL	3	12	[0, 0, 0]	n/a	FR1	0	R1234D
1562.67	0.917	1590149	WORD_OFF	n/a	n/a	POOL	3	12	[0, 0, 0]	n/a	FR1	0	R1234D
1563.587	1.616	1591066	WORD	n/a	wordpools/wordpool_EN.txt	LEG	4	12	[0, 0, 0]	n/a	FR1	0	R1234D
1565.203	0.9	1592682	WORD_OFF	n/a	n/a	LEG	4	12	[0, 0, 0]	n/a	FR1	0	R1234D
1566.103	1.618	1593582	WORD	n/a	wordpools/wordpool_EN.txt	TOY	5	12	[0, 0, 0]	n/a	FR1	0	R1234D
1567.721	0.783	1595199	WORD_OFF	n/a	n/a	TOY	5	12	[0, 0, 0]	n/a	FR1	0	R1234D
1568.504	1.616	1595982	WORD	n/a	wordpools/wordpool_EN.txt	STICK	6	12	[0, 0, 0]	n/a	FR1	0	R1234D
1570.12	0.917	1597598	WORD_OFF	n/a	n/a	STICK	6	12	[0, 0, 0]	n/a	FR1	0	R1234D
1571.037	1.618	1598515	WORD	n/a	wordpools/wordpool_EN.txt	CUP	7	12	[0, 0, 0]	n/a	FR1	0	R1234D
1572.655	0.984	1600133	WORD_OFF	n/a	n/a	CUP	7	12	[0, 0, 0]	n/a	FR1	0	R1234D
1573.639	1.616	1601117	WORD	n/a	wordpools/wordpool_EN.txt	GATE	8	12	[0, 0, 0]	n/a	FR1	0	R1234D
1575.255	0.916	1602733	WORD_OFF	n/a	n/a	GATE	8	12	[0, 0, 0]	n/a	FR1	0	R1234D
1576.171	1.618	1603649	WORD	n/a	wordpools/wordpool_EN.txt	DOOR	9	12	[0, 0, 0]	n/a	FR1	0	R1234D
1577.789	0.917	1605267	WORD_OFF	n/a	n/a	DOOR	9	12	[0, 0, 0]	n/a	FR1	0	R1234D
1578.706	1.616	1606184	WORD	n/a	wordpools/wordpool_EN.txt	CHEEK	10	12	[0, 0, 0]	n/a	FR1	0	R1234D
1580.322	1.0	1607800	WORD_OFF	n/a	n/a	CHEEK	10	12	[0, 0, 0]	n/a	FR1	0	R1234D
1581.322	1.602	1608800	WORD	n/a	wordpools/wordpool_EN.txt	YARD	11	12	[0, 0, 0]	n/a	FR1	0	R1234D
1582.924	0.967	1610402	WORD_OFF	n/a	n/a	YARD	11	12	[0, 0, 0]	n/a	FR1	0	R1234D
1583.891	1.616	1611369	WORD	n/a	wordpools/wordpool_EN.txt	TRAY	12	12	[0, 0, 0]	n/a	FR1	0	R1234D
1585.507	0.0	1612985	WORD_OFF	n/a	n/a	TRAY	12	12	[0, 0, 0]	n/a	FR1	0	R1234D
1585.507	0.001	1612985	DISTRACT_START	n/a	n/a	n/a	-999	12	[0, 0, 0]	n/a	FR1	0	R1234D
1585.508	0.016	1612986	START	n/a	n/a	n/a	-999	12	[-999, -999, -999]	n/a	FR1	0	R1234D
1585.524	5.418	1613002	PROB	5.418	n/a	n/a	-999	12	[1, 4, 1]	6	FR1	0	R1234D
1590.942	10.234	1618419	PROB	10.234	n/a	n/a	-999	12	[4, 6, 5]	15	FR1	0	R1234D
1601.176	7.411	1628653	PROB	7.411	n/a	n/a	-999	12	[3, 7, 4]	14	FR1	0	R1234D
1608.587	0.008	1636063	STOP	n/a	n/a	n/a	-999	12	[-999, -999, -999]	n/a	FR1	0	R1234D
1608.595	0.683	1636071	DISTRACT_END	n/a	n/a	n/a	-999	12	[0, 0, 0]	n/a	FR1	0	R1234D
1609.278	0.518	1636754	RETRIEVAL_ORIENT	n/a	n/a	n/a	-999	12	[0, 0, 0]	n/a	FR1	0	R1234D
1609.796	1.127	1637272	REC_START	n/a	n/a	n/a	-999	12	[0, 0, 0]	n/a	FR1	0	R1234D
1610.923	0.17	1638399	REC_WORD_VV	0.17	n/a	<>	-999	12	[0, 0, 0]	n/a	FR1	0	R1234D
1611.093	1.07	1638569	REC_WORD	1.07	n/a	ROSE	-999	12	[0, 0, 0]	n/a	FR1	0	R1234D
1612.163	3.016	1639639	REC_WORD	3.016	n/a	TOY	-999	12	[0, 0, 0]	n/a	FR1	0	R1234D
1615.179	0.634	1642655	REC_WORD_VV	0.634	n/a	<>	-999	12	[0, 0, 0]	n/a	FR1	0	R1234D
1615.813	1.575	1643289	REC_WORD	1.575	n/a	CHEEK	-999	12	[0, 0, 0]	n/a	FR1	0	R1234D
1617.388	3.42	1644864	REC_WORD	3.42	n/a	YARD	-999	12	[0, 0, 0]	n/a	FR1	0	R1234D
1620.808	18.998	1648284	REC_WORD_VV	18.998	n/a	<>	-999	12	[0, 0, 0]	n/a	FR1	0	R1234D
1639.806	6.029	1667281	REC_END	n/a	n/a	n/a	-999	12	[0, 0, 0]	n/a	FR1	0	R1234D
1645.835	0.5	1673309	TRIAL	n/a	n/a	n/a	-999	13	[0, 0, 0]	n/a	FR1	0	R1234D
1646.335	10.428	1673809	COUNTDOWN_START	n/a	n/a	n/a	-999	13	[0, 0, 0]	n/a	FR1	0	R1234D
1656.763	0.008	1684237	COUNTDOWN_END	n/a	n/a	n/a	-999	13	[0, 0, 0]	n/a	FR1	0	R1234D
1656.771	1.616	1684245	ORIENT	n/a	n/a	n/a	-999	13	[0, 0, 0]	n/a	FR1	0	R1234D
1658.387	2.234	1685861	ORIENT_OFF	n/a	n/a	n/a	-999	13	[0, 0, 0]	n/a	FR1	0	R1234D
1660.621	1.616	1688094	WORD	n/a	wordpools/wordpool_EN.txt	SHRIMP	1	13	[0, 0, 0]	n/a	FR1	0	R1234D
1662.237	0.967	1689710	WORD_OFF	n/a	n/a	SHRIMP	1	13	[0, 0, 0]	n/a	FR1	0	R1234D
1663.204	1.601	1690677	WORD	n/a	wordpools/wordpool_EN.txt	SWAMP	2	13	[0, 0, 0]	n/a	FR1	0	R1234D
1664.805	0.867	1692278	WORD_OFF	n/a	n/a	SWAMP	2	13	[0, 0, 0]	n/a	FR1	0	R1234D
1665.672	1.616	1693145	WORD	n/a	wordpools/wordpool_EN.txt	BOMB	3	13	[0, 0, 0]	n/a	FR1	0	R1234D
1667.288	0.834	1694761	WORD_OFF	n/a	n/a	BOMB	3	13	[0, 0, 0]	n/a	FR1	0	R1234D
1668.122	1.618	1695595	WORD	n/a	wordpools/wordpool_EN.txt	STAR	4	13	[0, 0, 0]	n/a	FR1	0	R1234D
1669.74	0.816	1697213	WORD_OFF	n/a	n/a	STAR	4	13	[0, 0, 0]	n/a	FR1	0	R1234D
1670.556	1.616	1698029	WORD	n/a	wordpools/wordpool_EN.txt	LAKE	5	13	[0, 0, 0]	n/a	FR1	0	R1234D
1672.172	0.934	1699645	WORD_OFF	n/a	n/a	LAKE	5	13	[0, 0, 0]	n/a	FR1	0	R1234D
1673.106	1.618	1700579	WORD	n/a	wordpools/wordpool_EN.txt	CLOUD	6	13	[0, 0, 0]	n/a	FR1	0	R1234D
1674.724	0.766	1702197	WORD_OFF	n/a	n/a	CLOUD	6	13	[0, 0, 0]	n/a	FR1	0	R1234D
1675.49	1.617	1702963	WORD	n/a	wordpools/wordpool_EN.txt	SPONGE	7	13	[0, 0, 0]	n/a	FR1	0	R1234D
1677.107	0.801	1704580	WORD_OFF	n/a	n/a	SPONGE	7	13	[0, 0, 0]	n/a	FR1	0	R1234D
1677.908	1.617	1705381	WORD	n/a	wordpools/wordpool_EN.txt	SOUP	8	13	[0, 0, 0]	n/a	FR1	0	R1234D
1679.525	0.917	1706997	WORD_OFF	n/a	n/a	SOUP	8	13	[0, 0, 0]	n/a	FR1	0	R1234D
1680.442	1.615	1707914	WORD	n/a	wordpools/wordpool_EN.txt	PEARL	9	13	[0, 0, 0]	n/a	FR1	0	R1234D
1682.057	0.967	1709529	WORD_OFF	n/a	n/a	PEARL	9	13	[0, 0, 0]	n/a	FR1	0	R1234D
1683.024	1.601	1710496	WORD	n/a	wordpools/wordpool_EN.txt	KITE	10	13	[0, 0, 0]	n/a	FR1	0	R1234D
1684.625	0.834	1712097	WORD_OFF	n/a	n/a	KITE	10	13	[0, 0, 0]	n/a	FR1	0	R1234D
1685.459	1.616	1712931	WORD	n/a	wordpools/wordpool_EN.txt	BOARD	11	13	[0, 0, 0]	n/a	FR1	0	R1234D
1687.075	0.785	1714547	WORD_OFF	n/a	n/a	BOARD	11	13	[0, 0, 0]	n/a	FR1	0	R1234D
1687.86	1.617	1715332	WORD	n/a	wordpools/wordpool_EN.txt	BOAT	12	13	[0, 0, 0]	n/a	FR1	0	R1234D
1689.477	0.0	1716949	WORD_OFF	n/a	n/a	BOAT	12	13	[0, 0, 0]	n/a	FR1	0	R1234D
1689.477	0.0	1716949	DISTRACT_START	n/a	n/a	n/a	-999	13	[0, 0, 0]	n/a	FR1	0	R1234D
1689.477	0.016	1716949	START	n/a	n/a	n/a	-999	13	[-999, -999, -999]	n/a	FR1	0	R1234D
1689.493	7.968	1716965	PROB	7.968	n/a	n/a	-999	13	[3, 7, 4]	14	FR1	0	R1234D
1697.461	10.152	1724932	PROB	10.152	n/a	n/a	-999	13	[4, 6, 8]	18	FR1	0	R1234D
1707.613	8.247	1735084	PROB	8.247	n/a	n/a	-999	13	[8, 3, 5]	16	FR1	0	R1234D
1715.86	0.021	1743330	STOP	n/a	n/a	n/a	-999	13	[-999, -999, -999]	n/a	FR1	0	R1234D
1715.881	0.567	1743351	DISTRACT_END	n/a	n/a	n/a	-999	13	[0, 0, 0]	n/a	FR1	0	R1234D
1716.448	0.516	1743918	RETRIEVAL_ORIENT	n/a	n/a	n/a	-999	13	[0, 0, 0]	n/a	FR1	0	R1234D
1716.964	1.761	1744434	REC_START	n/a	n/a	n/a	-999	13	[0, 0, 0]	n/a	FR1	0	R1234D
1718.725	0.582	1746195	REC_WORD_VV	0.582	n/a	<>	-999	13	[0, 0, 0]	n/a	FR1	0	R1234D
1719.307	5.409	1746777	REC_WORD	5.409	n/a	BOAT	-999	13	[0, 0, 0]	n/a	FR1	0	R1234D
1724.716	0.575	1752186	REC_WORD	0.575	n/a	SHRIMP	-999	13	[0, 0, 0]	n/a	FR1	0	R1234D
1725.291	4.764	1752761	REC_WORD	4.764	n/a	SWAMP	-999	13	[0, 0, 0]	n/a	FR1	0	R1234D
1730.055	7.164	1757525	REC_WORD_VV	7.164	n/a	<>	-999	13	[0, 0, 0]	n/a	FR1	0	R1234D
1737.219	0.569	1764688	REC_WORD	0.569	n/a	LAKE	-999	13	[0, 0, 0]	n/a	FR1	0	R1234D
1737.788	9.187	1765257	REC_WORD	9.187	n/a	CLOUD	-999	13	[0, 0, 0]	n/a	FR1	0	R1234D
1746.975	5.413	1774444	REC_END	n/a	n/a	n/a	-999	13	[0, 0, 0]	n/a	FR1	0	R1234D
1752.388	0.5	1779856	TRIAL	n/a	n/a	n/a	-999	14	[0, 0, 0]	n/a	FR1	0	R1234D
1752.888	10.428	1780356	COUNTDOWN_START	n/a	n/a	n/a	-999	14	[0, 0, 0]	n/a	FR1	0	R1234D
1763.316	0.006	1790784	COUNTDOWN_END	n/a	n/a	n/a	-999	14	[0, 0, 0]	n/a	FR1	0	R1234D
1763.322	1.601	1790790	ORIENT	n/a	n/a	n/a	-999	14	[0, 0, 0]	n/a	FR1	0	R1234D
1764.923	1.834	1792391	ORIENT_OFF	n/a	n/a	n/a	-999	14	[0, 0, 0]	n/a	FR1	0	R1234D
1766.757	1.617	1794225	WORD	n/a	wordpools/wordpool_EN.txt	DOG	1	14	[0, 0, 0]	n/a	FR1	0	R1234D
1768.374	0.899	1795842	WORD_OFF	n/a	n/a	DOG	1	14	[0, 0, 0]	n/a	FR1	0	R1234D
1769.273	1.602	1796741	WORD	n/a	wordpools/wordpool_EN.txt	CAVE	2	14	[0, 0, 0]	n/a	FR1	0	R1234D
1770.875	0.783	1798342	WORD_OFF	n/a	n/a	CAVE	2	14	[0, 0, 0]	n/a	FR1	0	R1234D
1771.658	1.616	1799125	WORD	n/a	wordpools/wordpool_EN.txt	WEED	3	14	[0, 0, 0]	n/a	FR1	0	R1234D
1773.274	1.0	1800741	WORD_OFF	n/a	n/a	WEED	3	14	[0, 0, 0]	n/a	FR1	0	R1234D
1774.274	1.618	1801741	WORD	n/a	wordpools/wordpool_EN.txt	FUR	4	14	[0, 0, 0]	n/a	FR1	0	R1234D
1775.892	1.0	1803359	WORD_OFF	n/a	n/a	FUR	4	14	[0, 0, 0]	n/a	FR1	0	R1234D
1776.892	1.617	1804359	WORD	n/a	wordpools/wordpool_EN.txt	MUD	5	14	[0, 0, 0]	n/a	FR1	0	R1234D
1778.509	0.967	1805976	WORD_OFF	n/a	n/a	MUD	5	14	[0, 0, 0]	n/a	FR1	0	R1234D
1779.476	1.616	1806943	WORD	n/a	wordpools/wordpool_EN.txt	CORN	6	14	[0, 0, 0]	n/a	FR1	0	R1234D
1781.092	0.834	1808559	WORD_OFF	n/a	n/a	CORN	6	14	[0, 0, 0]	n/a	FR1	0	R1234D
1781.926	1.618	1809393	WORD	n/a	wordpools/wordpool_EN.txt	COW	7	14	[0, 0, 0]	n/a	FR1	0	R1234D
1783.544	0.85	1811011	WORD_OFF	n/a	n/a	COW	7	14	[0, 0, 0]	n/a	FR1	0	R1234D
1784.394	1.616	1811861	WORD	n/a	wordpools/wordpool_EN.txt	GOAT	8	14	[0, 0, 0]	n/a	FR1	0	R1234D
1786.01	0.818	1813477	WORD_OFF	n/a	n/a	GOAT	8	14	[0, 0, 0]	n/a	FR1	0	R1234D
1786.828	1.617	1814295	WORD	n/a	wordpools/wordpool_EN.txt	LAMB	9	14	[0, 0, 0]	n/a	FR1	0	R1234D
1788.445	0.865	1815912	WORD_OFF	n/a	n/a	LAMB	9	14	[0, 0, 0]	n/a	FR1	0	R1234D
1789.31	1.601	1816776	WORD	n/a	wordpools/wordpool_EN.txt	STRAW	10	14	[0, 0, 0]	n/a	FR1	0	R1234D
1790.911	0.851	1818377	WORD_OFF	n/a	n/a	STRAW	10	14	[0, 0, 0]	n/a	FR1	0	R1234D
1791.762	1.617	1819228	WORD	n/a	wordpools/wordpool_EN.txt	CLIFF	11	14	[0, 0, 0]	n/a	FR1	0	R1234D
1793.379	0.967	1820845	WORD_OFF	n/a	n/a	CLIFF	11	14	[0, 0, 0]	n/a	FR1	0	R1234D
1794.346	1.616	1821812	WORD	n/a	wordpools/wordpool_EN.txt	TAIL	12	14	[0, 0, 0]	n/a	FR1	0	R1234D
1795.962	0.0	1823428	WORD_OFF	n/a	n/a	TAIL	12	14	[0, 0, 0]	n/a	FR1	0	R1234D
1795.962	0.0	1823428	DISTRACT_START	n/a	n/a	n/a	-999	14	[0, 0, 0]	n/a	FR1	0	R1234D
1795.962	0.016	1823428	START	n/a	n/a	n/a	-999	14	[-999, -999, -999]	n/a	FR1	0	R1234D
1795.978	6.101	1823444	PROB	6.101	n/a	n/a	-999	14	[6, 1, 6]	13	FR1	0	R1234D
1802.079	14.203	1829545	PROB	14.203	n/a	n/a	-999	14	[9, 8, 3]	20	FR1	0	R1234D
1816.282	0.017	1843747	STOP	n/a	n/a	n/a	-999	14	[-999, -999, -999]	n/a	FR1	0	R1234D
1816.299	0.666	1843764	DISTRACT_END	n/a	n/a	n/a	-999	14	[0, 0, 0]	n/a	FR1	0	R1234D
1816.965	0.519	1844430	RETRIEVAL_ORIENT	n/a	n/a	n/a	-999	14	[0, 0, 0]	n/a	FR1	0	R1234D
1817.484	2.182	1844949	REC_START	n/a	n/a	n/a	-999	14	[0, 0, 0]	n/a	FR1	0	R1234D
1819.666	0.61	1847131	REC_WORD	0.61	n/a	DOG	-999	14	[0, 0, 0]	n/a	FR1	0	R1234D
1820.276	2.637	1847741	REC_WORD	2.637	n/a	WEED	-999	14	[0, 0, 0]	n/a	FR1	0	R1234D
1822.913	0.382	1850378	REC_WORD_VV	0.382	n/a	<>	-999	14	[0, 0, 0]	n/a	FR1	0	R1234D
1823.295	3.7	1850760	REC_WORD	3.7	n/a	FUR	-999	14	[0, 0, 0]	n/a	FR1	0	R1234D
1826.995	20.499	1854459	REC_WORD_VV	20.499	n/a	<>	-999	14	[0, 0, 0]	n/a	FR1	0	R1234D
1847.494	6.296	1874957	REC_END	n/a	n/a	n/a	-999	14	[0, 0, 0]	n/a	FR1	0	R1234D
1853.79	0.5	1881253	TRIAL	n/a	n/a	n/a	-999	15	[0, 0, 0]	n/a	FR1	0	R1234D
1854.29	10.428	1881753	COUNTDOWN_START	n/a	n/a	n/a	-999	15	[0, 0, 0]	n/a	FR1	0	R1234D
1864.718	0.007	1892180	COUNTDOWN_END	n/a	n/a	n/a	-999	15	[0, 0, 0]	n/a	FR1	0	R1234D
1864.725	1.616	1892187	ORIENT	n/a	n/a	n/a	-999	15	[0, 0, 0]	n/a	FR1	0	R1234D
1866.341	2.185	1893803	ORIENT_OFF	n/a	n/a	n/a	-999	15	[0, 0, 0]	n/a	FR1	0	R1234D
1868.526	1.616	1895988	WORD	n/a	wordpools/wordpool_EN.txt	MOON	1	15	[0, 0, 0]	n/a	FR1	0	R1234D
1870.142	0.917	1897604	WORD_OFF	n/a	n/a	MOON	1	15	[0, 0, 0]	n/a	FR1	0	R1234D
1871.059	1.618	1898521	WORD	n/a	wordpools/wordpool_EN.txt	CUBE	2	15	[0, 0, 0]	n/a	FR1	0	R1234D
1872.677	0.95	1900139	WORD_OFF	n/a	n/a	CUBE	2	15	[0, 0, 0]	n/a	FR1	0	R1234D
1873.627	1.616	1901089	WORD	n/a	wordpools/wordpool_EN.txt	FLAG	3	15	[0, 0, 0]	n/a	FR1	0	R1234D
1875.243	0.867	1902705	WORD_OFF	n/a	n/a	FLAG	3	15	[0, 0, 0]	n/a	FR1	0	R1234D
1876.11	1.618	1903572	WORD	n/a	wordpools/wordpool_EN.txt	STORM	4	15	[0, 0, 0]	n/a	FR1	0	R1234D
1877.728	0.783	1905190	WORD_OFF	n/a	n/a	STORM	4	15	[0, 0, 0]	n/a	FR1	0	R1234D
1878.511	1.616	1905973	WORD	n/a	wordpools/wordpool_EN.txt	OAK	5	15	[0, 0, 0]	n/a	FR1	0	R1234D
1880.127	0.801	1907589	WORD_OFF	n/a	n/a	OAK	5	15	[0, 0, 0]	n/a	FR1	0	R1234D
1880.928	1.617	1908390	WORD	n/a	wordpools/wordpool_EN.txt	SAIL	6	15	[0, 0, 0]	n/a	FR1	0	R1234D
1882.545	0.917	1910006	WORD_OFF	n/a	n/a	SAIL	6	15	[0, 0, 0]	n/a	FR1	0	R1234D
1883.462	1.616	1910923	WORD	n/a	wordpools/wordpool_EN.txt	POLE	7	15	[0, 0, 0]	n/a	FR1	0	R1234D
1885.078	0.868	1912539	WORD_OFF	n/a	n/a	POLE	7	15	[0, 0, 0]	n/a	FR1	0	R1234D
1885.946	1.617	1913407	WORD	n/a	wordpools/wordpool_EN.txt	SHIELD	8	15	[0, 0, 0]	n/a	FR1	0	R1234D
1887.563	0.983	1915024	WORD_OFF	n/a	n/a	SHIELD	8	15	[0, 0, 0]	n/a	FR1	0	R1234D
1888.546	1.616	1916007	WORD	n/a	wordpools/wordpool_EN.txt	CAPE	9	15	[0, 0, 0]	n/a	FR1	0	R1234D
1890.162	0.8	1917623	WORD_OFF	n/a	n/a	CAPE	9	15	[0, 0, 0]	n/a	FR1	0	R1234D
1890.962	1.618	1918423	WORD	n/a	wordpools/wordpool_EN.txt	CROWN	10	15	[0, 0, 0]	n/a	FR1	0	R1234D
1892.58	0.934	1920041	WORD_OFF	n/a	n/a	CROWN	10	15	[0, 0, 0]	n/a	FR1	0	R1234D
1893.514	1.616	1920975	WORD	n/a	wordpools/wordpool_EN.txt	LAND	11	15	[0, 0, 0]	n/a	FR1	0	R1234D
1895.13	0.784	1922591	WORD_OFF	n/a	n/a	LAND	11	15	[0, 0, 0]	n/a	FR1	0	R1234D
1895.914	1.617	1923375	WORD	n/a	wordpools/wordpool_EN.txt	RAIN	12	15	[0, 0, 0]	n/a	FR1	0	R1234D
1897.531	0.0	1924992	WORD_OFF	n/a	n/a	RAIN	12	15	[0, 0, 0]	n/a	FR1	0	R1234D
1897.531	0.001	1924992	DISTRACT_START	n/a	n/a	n/a	-999	15	[0, 0, 0]	n/a	FR1	0	R1234D
1897.532	0.016	1924993	START	n/a	n/a	n/a	-999	15	[-999, -999, -999]	n/a	FR1	0	R1234D
1897.548	9.318	1925009	PROB	9.318	n/a	n/a	-999	15	[5, 9, 4]	18	FR1	0	R1234D
1906.866	9.769	1934326	PROB	9.769	n/a	n/a	-999	15	[8, 6, 1]	15	FR1	0	R1234D
1916.635	15.824	1944095	PROB	15.824	n/a	n/a	-999	15	[5, 9, 8]	23	FR1	0	R1234D
1932.459	0.012	1959918	STOP	n/a	n/a	n/a	-999	15	[-999, -999, -999]	n/a	FR1	0	R1234D
1932.471	0.632	1959930	DISTRACT_END	n/a	n/a	n/a	-999	15	[0, 0, 0]	n/a	FR1	0	R1234D
1933.103	0.519	1960562	RETRIEVAL_ORIENT	n/a	n/a	n/a	-999	15	[0, 0, 0]	n/a	FR1	0	R1234D
1933.622	2.715	1961081	REC_START	n/a	n/a	n/a	-999	15	[0, 0, 0]	n/a	FR1	0	R1234D
1936.337	1.245	1963796	REC_WORD_VV	1.245	n/a	<>	-999	15	[0, 0, 0]	n/a	FR1	0	R1234D
1937.582	3.013	1965040	REC_WORD	3.013	n/a	SAIL	-999	15	[0, 0, 0]	n/a	FR1	0	R1234D
1940.595	3.463	1968053	REC_WORD	3.463	n/a	POLE	-999	15	[0, 0, 0]	n/a	FR1	0	R1234D
1944.058	8.175	1971516	REC_WORD_VV	8.175	n/a	<>	-999	15	[0, 0, 0]	n/a	FR1	0	R1234D
1952.233	11.399	1979691	REC_WORD	11.399	n/a	STORM	-999	15	[0, 0, 0]	n/a	FR1	0	R1234D
1963.632	6.461	1991089	REC_END	n/a	n/a	n/a	-999	15	[0, 0, 0]	n/a	FR1	0	R1234D
1970.093	0.5	1997550	TRIAL	n/a	n/a	n/a	-999	16	[0, 0, 0]	n/a	FR1	0	R1234D
1970.593	10.428	1998050	COUNTDOWN_START	n/a	n/a	n/a	-999	16	[0, 0, 0]	n/a	FR1	0	R1234D
1981.021	0.008	2008477	COUNTDOWN_END	n/a	n/a	n/a	-999	16	[0, 0, 0]	n/a	FR1	0	R1234D
1981.029	1.618	2008485	ORIENT	n/a	n/a	n/a	-999	16	[0, 0, 0]	n/a	FR1	0	R1234D
1982.647	2.067	2010103	ORIENT_OFF	n/a	n/a	n/a	-999	16	[0, 0, 0]	n/a	FR1	0	R1234D
1984.714	1.616	2012170	WORD	n/a	wordpools/wordpool_EN.txt	DART	1	16	[0, 0, 0]	n/a	FR1	0	R1234D
1986.33	0.883	2013786	WORD_OFF	n/a	n/a	DART	1	16	[0, 0, 0]	n/a	FR1	0	R1234D
1987.213	1.618	2014669	WORD	n/a	wordpools/wordpool_EN.txt	HEN	2	16	[0, 0, 0]	n/a	FR1	0	R1234D
1988.831	0.9	2016287	WORD_OFF	n/a	n/a	HEN	2	16	[0, 0, 0]	n/a	FR1	0	R1234D
1989.731	1.617	2017187	WORD	n/a	wordpools/wordpool_EN.txt	LAWN	3	16	[0, 0, 0]	n/a	FR1	0	R1234D
1991.348	1.017	2018804	WORD_OFF	n/a	n/a	LAWN	3	16	[0, 0, 0]	n/a	FR1	0	R1234D
1992.365	1.616	2019821	WORD	n/a	wordpools/wordpool_EN.txt	BATH	4	16	[0, 0, 0]	n/a	FR1	0	R1234D
1993.981	0.768	2021436	WORD_OFF	n/a	n/a	BATH	4	16	[0, 0, 0]	n/a	FR1	0	R1234D
1994.749	1.617	2022204	WORD	n/a	wordpools/wordpool_EN.txt	CROW	5	16	[0, 0, 0]	n/a	FR1	0	R1234D
1996.366	0.932	2023821	WORD_OFF	n/a	n/a	CROW	5	16	[0, 0, 0]	n/a	FR1	0	R1234D
1997.298	1.601	2024753	WORD	n/a	wordpools/wordpool_EN.txt	CRANE	6	16	[0, 0, 0]	n/a	FR1	0	R1234D
1998.899	0.868	2026354	WORD_OFF	n/a	n/a	CRANE	6	16	[0, 0, 0]	n/a	FR1	0	R1234D
1999.767	1.617	2027222	WORD	n/a	wordpools/wordpool_EN.txt	ROOM	7	16	[0, 0, 0]	n/a	FR1	0	R1234D
2001.384	0.815	2028839	WORD_OFF	n/a	n/a	ROOM	7	16	[0, 0, 0]	n/a	FR1	0	R1234D
2002.199	1.602	2029654	WORD	n/a	wordpools/wordpool_EN.txt	ANT	8	16	[0, 0, 0]	n/a	FR1	0	R1234D
2003.801	1.0	2031256	WORD_OFF	n/a	n/a	ANT	8	16	[0, 0, 0]	n/a	FR1	0	R1234D
2004.801	1.617	2032256	WORD	n/a	wordpools/wordpool_EN.txt	ROOF	9	16	[0, 0, 0]	n/a	FR1	0	R1234D
2006.418	0.816	2033873	WORD_OFF	n/a	n/a	ROOF	9	16	[0, 0, 0]	n/a	FR1	0	R1234D
2007.234	1.601	2034689	WORD	n/a	wordpools/wordpool_EN.txt	TOAST	10	16	[0, 0, 0]	n/a	FR1	0	R1234D
2008.835	1.0	2036290	WORD_OFF	n/a	n/a	TOAST	10	16	[0, 0, 0]	n/a	FR1	0	R1234D
2009.835	1.617	2037290	WORD	n/a	wordpools/wordpool_EN.txt	TEA	11	16	[0, 0, 0]	n/a	FR1	0	R1234D
2011.452	0.866	2038906	WORD_OFF	n/a	n/a	TEA	11	16	[0, 0, 0]	n/a	FR1	0	R1234D
2012.318	1.618	2039772	WORD	n/a	wordpools/wordpool_EN.txt	NEST	12	16	[0, 0, 0]	n/a	FR1	0	R1234D
2013.936	0.0	2041390	WORD_OFF	n/a	n/a	NEST	12	16	[0, 0, 0]	n/a	FR1	0	R1234D
2013.936	0.0	2041390	DISTRACT_START	n/a	n/a	n/a	-999	16	[0, 0, 0]	n/a	FR1	0	R1234D
2013.936	0.016	2041390	START	n/a	n/a	n/a	-999	16	[-999, -999, -999]	n/a	FR1	0	R1234D
2013.952	10.602	2041406	PROB	10.602	n/a	n/a	-999	16	[9, 6, 2]	17	FR1	0	R1234D
2024.554	10.409	2052008	PROB	10.409	n/a	n/a	-999	16	[3, 9, 4]	16	FR1	0	R1234D
2034.963	0.009	2062416	STOP	n/a	n/a	n/a	-999	16	[-999, -999, -999]	n/a	FR1	0	R1234D
2034.972	0.651	2062425	DISTRACT_END	n/a	n/a	n/a	-999	16	[0, 0, 0]	n/a	FR1	0	R1234D
2035.623	0.516	2063076	RETRIEVAL_ORIENT	n/a	n/a	n/a	-999	16	[0, 0, 0]	n/a	FR1	0	R1234D
2036.139	1.945	2063592	REC_START	n/a	n/a	n/a	-999	16	[0, 0, 0]	n/a	FR1	0	R1234D
2038.084	0.458	2065537	REC_WORD	0.458	n/a	DART	-999	16	[0, 0, 0]	n/a	FR1	0	R1234D
2038.542	1.551	2065995	REC_WORD	1.551	n/a	HEN	-999	16	[0, 0, 0]	n/a	FR1	0	R1234D
2040.093	1.717	2067546	REC_WORD	1.717	n/a	LAWN	-999	16	[0, 0, 0]	n/a	FR1	0	R1234D
2041.81	3.19	2069263	REC_WORD	3.19	n/a	CROW	-999	16	[0, 0, 0]	n/a	FR1	0	R1234D
2045.0	21.149	2072453	REC_WORD	21.149	n/a	ROOM	-999	16	[0, 0, 0]	n/a	FR1	0	R1234D
2066.149	5.113	2093601	REC_END	n/a	n/a	n/a	-999	16	[0, 0, 0]	n/a	FR1	0	R1234D
2071.262	0.5	2098713	TRIAL	n/a	n/a	n/a	-999	17	[0, 0, 0]	n/a	FR1	0	R1234D
2071.762	10.428	2099213	COUNTDOWN_START	n/a	n/a	n/a	-999	17	[0, 0, 0]	n/a	FR1	0	R1234D
2082.19	0.007	2109641	COUNTDOWN_END	n/a	n/a	n/a	-999	17	[0, 0, 0]	n/a	FR1	0	R1234D
2082.197	1.601	2109648	ORIENT	n/a	n/a	n/a	-999	17	[0, 0, 0]	n/a	FR1	0	R1234D
2083.798	2.018	2111249	ORIENT_OFF	n/a	n/a	n/a	-999	17	[0, 0, 0]	n/a	FR1	0	R1234D
2085.816	1.617	2113266	WORD	n/a	wordpools/wordpool_EN.txt	DUCK	1	17	[0, 0, 0]	n/a	FR1	0	R1234D
2087.433	0.917	2114883	WORD_OFF	n/a	n/a	DUCK	1	17	[0, 0, 0]	n/a	FR1	0	R1234D
2088.35	1.615	2115800	WORD	n/a	wordpools/wordpool_EN.txt	WOLF	2	17	[0, 0, 0]	n/a	FR1	0	R1234D
2089.965	0.835	2117415	WORD_OFF	n/a	n/a	WOLF	2	17	[0, 0, 0]	n/a	FR1	0	R1234D
2090.8	1.617	2118250	WORD	n/a	wordpools/wordpool_EN.txt	OWL	3	17	[0, 0, 0]	n/a	FR1	0	R1234D
2092.417	0.967	2119867	WORD_OFF	n/a	n/a	OWL	3	17	[0, 0, 0]	n/a	FR1	0	R1234D
2093.384	1.616	2120834	WORD	n/a	wordpools/wordpool_EN.txt	POND	4	17	[0, 0, 0]	n/a	FR1	0	R1234D
2095.0	0.834	2122450	WORD_OFF	n/a	n/a	POND	4	17	[0, 0, 0]	n/a	FR1	0	R1234D
2095.834	1.617	2123284	WORD	n/a	wordpools/wordpool_EN.txt	ZOO	5	17	[0, 0, 0]	n/a	FR1	0	R1234D
2097.451	0.95	2124901	WORD_OFF	n/a	n/a	ZOO	5	17	[0, 0, 0]	n/a	FR1	0	R1234D
2098.401	1.616	2125851	WORD	n/a	wordpools/wordpool_EN.txt	PARK	6	17	[0, 0, 0]	n/a	FR1	0	R1234D
2100.017	0.785	2127467	WORD_OFF	n/a	n/a	PARK	6	17	[0, 0, 0]	n/a	FR1	0	R1234D
2100.802	1.617	2128252	WORD	n/a	wordpools/wordpool_EN.txt	DEER	7	17	[0, 0, 0]	n/a	FR1	0	R1234D
2102.419	0.782	2129869	WORD_OFF	n/a	n/a	DEER	7	17	[0, 0, 0]	n/a	FR1	0	R1234D
2103.201	1.618	2130651	WORD	n/a	wordpools/wordpool_EN.txt	SKI	8	17	[0, 0, 0]	n/a	FR1	0	R1234D
2104.819	0.967	2132268	WORD_OFF	n/a	n/a	SKI	8	17	[0, 0, 0]	n/a	FR1	0	R1234D
2105.786	1.617	2133235	WORD	n/a	wordpools/wordpool_EN.txt	CHALK	9	17	[0, 0, 0]	n/a	FR1	0	R1234D
2107.403	0.983	2134852	WORD_OFF	n/a	n/a	CHALK	9	17	[0, 0, 0]	n/a	FR1	0	R1234D
2108.386	1.616	2135835	WORD	n/a	wordpools/wordpool_EN.txt	BADGE	10	17	[0, 0, 0]	n/a	FR1	0	R1234D
2110.002	0.984	2137451	WORD_OFF	n/a	n/a	BADGE	10	17	[0, 0, 0]	n/a	FR1	0	R1234D
2110.986	1.618	2138435	WORD	n/a	wordpools/wordpool_EN.txt	HORN	11	17	[0, 0, 0]	n/a	FR1	0	R1234D
2112.604	0.967	2140053	WORD_OFF	n/a	n/a	HORN	11	17	[0, 0, 0]	n/a	FR1	0	R1234D
2113.571	1.616	2141020	WORD	n/a	wordpools/wordpool_EN.txt	WHALE	12	17	[0, 0, 0]	n/a	FR1	0	R1234D
2115.187	0.0	2142636	DISTRACT_START	n/a	n/a	n/a	-999	17	[0, 0, 0]	n/a	FR1	0	R1234D
2115.187	0.0	2142636	WORD_OFF	n/a	n/a	WHALE	12	17	[0, 0, 0]	n/a	FR1	0	R1234D
2115.187	0.016	2142636	START	n/a	n/a	n/a	-999	17	[-999, -999, -999]	n/a	FR1	0	R1234D
2115.203	8.72	2142652	PROB	8.72	n/a	n/a	-999	17	[5, 3, 9]	17	FR1	0	R1234D
2123.923	9.701	2151371	PROB	9.701	n/a	n/a	-999	17	[6, 9, 4]	19	FR1	0	R1234D
2133.624	7.459	2161072	PROB	7.459	n/a	n/a	-999	17	[2, 4, 6]	12	FR1	0	R1234D
2141.083	0.008	2168530	STOP	n/a	n/a	n/a	-999	17	[-999, -999, -999]	n/a	FR1	0	R1234D
2141.091	0.518	2168538	DISTRACT_END	n/a	n/a	n/a	-999	17	[0, 0, 0]	n/a	FR1	0	R1234D
2141.609	0.516	2169056	RETRIEVAL_ORIENT	n/a	n/a	n/a	-999	17	[0, 0, 0]	n/a	FR1	0	R1234D
2142.125	2.045	2169572	REC_START	n/a	n/a	n/a	-999	17	[0, 0, 0]	n/a	FR1	0	R1234D
2144.17	3.959	2171617	REC_WORD_VV	3.959	n/a	<>	-999	17	[0, 0, 0]	n/a	FR1	0	R1234D
2148.129	0.04	2175576	REC_WORD_VV	0.04	n/a	<>	-999	17	[0, 0, 0]	n/a	FR1	0	R1234D
2148.169	13.127	2175616	REC_WORD	13.127	n/a	HORN	-999	17	[0, 0, 0]	n/a	FR1	0	R1234D
2161.296	3.722	2188742	REC_WORD	3.722	n/a	HORN	-999	17	[0, 0, 0]	n/a	FR1	0	R1234D
2165.018	2.268	2192464	REC_WORD	2.268	n/a	DUCK	-999	17	[0, 0, 0]	n/a	FR1	0	R1234D
2167.286	4.849	2194732	REC_WORD	4.849	n/a	OWL	-999	17	[0, 0, 0]	n/a	FR1	0	R1234D
2172.135	6.146	2199581	REC_END	n/a	n/a	n/a	-999	17	[0, 0, 0]	n/a	FR1	0	R1234D
2178.281	0.5	2205726	TRIAL	n/a	n/a	n/a	-999	18	[0, 0, 0]	n/a	FR1	0	R1234D
2178.781	10.428	2206226	COUNTDOWN_START	n/a	n/a	n/a	-999	18	[0, 0, 0]	n/a	FR1	0	R1234D
2189.209	0.008	2216654	COUNTDOWN_END	n/a	n/a	n/a	-999	18	[0, 0, 0]	n/a	FR1	0	R1234D
2189.217	1.618	2216662	ORIENT	n/a	n/a	n/a	-999	18	[0, 0, 0]	n/a	FR1	0	R1234D
2190.835	1.95	2218280	ORIENT_OFF	n/a	n/a	n/a	-999	18	[0, 0, 0]	n/a	FR1	0	R1234D
2192.785	1.617	2220230	WORD	n/a	wordpools/wordpool_EN.txt	SHIRT	1	18	[0, 0, 0]	n/a	FR1	0	R1234D
2194.402	0.833	2221847	WORD_OFF	n/a	n/a	SHIRT	1	18	[0, 0, 0]	n/a	FR1	0	R1234D
2195.235	1.618	2222680	WORD	n/a	wordpools/wordpool_EN.txt	SNOW	2	18	[0, 0, 0]	n/a	FR1	0	R1234D
2196.853	0.9	2224297	WORD_OFF	n/a	n/a	SNOW	2	18	[0, 0, 0]	n/a	FR1	0	R1234D
2197.753	1.617	2225197	WORD	n/a	wordpools/wordpool_EN.txt	BARN	3	18	[0, 0, 0]	n/a	FR1	0	R1234D
2199.37	0.983	2226814	WORD_OFF	n/a	n/a	BARN	3	18	[0, 0, 0]	n/a	FR1	0	R1234D
2200.353	1.616	2227797	WORD	n/a	wordpools/wordpool_EN.txt	JEEP	4	18	[0, 0, 0]	n/a	FR1	0	R1234D
2201.969	0.951	2229413	WORD_OFF	n/a	n/a	JEEP	4	18	[0, 0, 0]	n/a	FR1	0	R1234D
2202.92	1.617	2230364	WORD	n/a	wordpools/wordpool_EN.txt	BOOT	5	18	[0, 0, 0]	n/a	FR1	0	R1234D
2204.537	0.967	2231981	WORD_OFF	n/a	n/a	BOOT	5	18	[0, 0, 0]	n/a	FR1	0	R1234D
2205.504	1.616	2232948	WORD	n/a	wordpools/wordpool_EN.txt	BOY	6	18	[0, 0, 0]	n/a	FR1	0	R1234D
2207.12	0.917	2234564	WORD_OFF	n/a	n/a	BOY	6	18	[0, 0, 0]	n/a	FR1	0	R1234D
2208.037	1.618	2235481	WORD	n/a	wordpools/wordpool_EN.txt	CART	7	18	[0, 0, 0]	n/a	FR1	0	R1234D
2209.655	1.0	2237099	WORD_OFF	n/a	n/a	CART	7	18	[0, 0, 0]	n/a	FR1	0	R1234D
2210.655	1.616	2238099	WORD	n/a	wordpools/wordpool_EN.txt	FOG	8	18	[0, 0, 0]	n/a	FR1	0	R1234D
2212.271	0.767	2239715	WORD_OFF	n/a	n/a	FOG	8	18	[0, 0, 0]	n/a	FR1	0	R1234D
2213.038	1.601	2240482	WORD	n/a	wordpools/wordpool_EN.txt	RIB	9	18	[0, 0, 0]	n/a	FR1	0	R1234D
2214.639	0.834	2242082	WORD_OFF	n/a	n/a	RIB	9	18	[0, 0, 0]	n/a	FR1	0	R1234D
2215.473	1.616	2242916	WORD	n/a	wordpools/wordpool_EN.txt	SKY	10	18	[0, 0, 0]	n/a	FR1	0	R1234D
2217.089	0.784	2244532	WORD_OFF	n/a	n/a	SKY	10	18	[0, 0, 0]	n/a	FR1	0	R1234D
2217.873	1.617	2245316	WORD	n/a	wordpools/wordpool_EN.txt	MULE	11	18	[0, 0, 0]	n/a	FR1	0	R1234D
2219.49	0.884	2246933	WORD_OFF	n/a	n/a	MULE	11	18	[0, 0, 0]	n/a	FR1	0	R1234D
2220.374	1.616	2247817	WORD	n/a	wordpools/wordpool_EN.txt	CHIN	12	18	[0, 0, 0]	n/a	FR1	0	R1234D
2221.99	0.0	2249433	WORD_OFF	n/a	n/a	CHIN	12	18	[0, 0, 0]	n/a	FR1	0	R1234D
2221.99	0.0	2249433	DISTRACT_START	n/a	n/a	n/a	-999	18	[0, 0, 0]	n/a	FR1	0	R1234D
2221.99	0.016	2249433	START	n/a	n/a	n/a	-999	18	[-999, -999, -999]	n/a	FR1	0	R1234D
2222.006	17.554	2249449	PROB	17.554	n/a	n/a	-999	18	[8, 9, 4]	21	FR1	0	R1234D
2239.56	18.931	2267002	PROB	18.931	n/a	n/a	-999	18	[6, 6, 6]	19	FR1	0	R1234D
2258.491	0.006	2285932	STOP	n/a	n/a	n/a	-999	18	[-999, -999, -999]	n/a	FR1	0	R1234D
2258.497	0.699	2285938	DISTRACT_END	n/a	n/a	n/a	-999	18	[0, 0, 0]	n/a	FR1	0	R1234D
2259.196	0.519	2286637	RETRIEVAL_ORIENT	n/a	n/a	n/a	-999	18	[0, 0, 0]	n/a	FR1	0	R1234D
2259.715	2.944	2287156	REC_START	n/a	n/a	n/a	-999	18	[0, 0, 0]	n/a	FR1	0	R1234D
2262.659	0.924	2290100	REC_WORD	0.924	n/a	JEEP	-999	18	[0, 0, 0]	n/a	FR1	0	R1234D
2263.583	0.907	2291024	REC_WORD	0.907	n/a	BOY	-999	18	[0, 0, 0]	n/a	FR1	0	R1234D
2264.49	2.827	2291931	REC_WORD	2.827	n/a	CART	-999	18	[0, 0, 0]	n/a	FR1	0	R1234D
2267.317	7.439	2294758	REC_WORD	7.439	n/a	RIB	-999	18	[0, 0, 0]	n/a	FR1	0	R1234D
2274.756	14.969	2302196	REC_WORD	14.969	n/a	SHIRT	-999	18	[0, 0, 0]	n/a	FR1	0	R1234D
2289.725	5.779	2317164	REC_END	n/a	n/a	n/a	-999	18	[0, 0, 0]	n/a	FR1	0	R1234D
2295.504	0.5	2322943	TRIAL	n/a	n/a	n/a	-999	19	[0, 0, 0]	n/a	FR1	0	R1234D
2296.004	10.428	2323443	COUNTDOWN_START	n/a	n/a	n/a	-999	19	[0, 0, 0]	n/a	FR1	0	R1234D
2306.432	0.007	2333871	COUNTDOWN_END	n/a	n/a	n/a	-999	19	[0, 0, 0]	n/a	FR1	0	R1234D
2306.439	1.616	2333878	ORIENT	n/a	n/a	n/a	-999	19	[0, 0, 0]	n/a	FR1	0	R1234D
2308.055	2.385	2335493	ORIENT_OFF	n/a	n/a	n/a	-999	19	[0, 0, 0]	n/a	FR1	0	R1234D
2310.44	1.616	2337878	WORD	n/a	wordpools/wordpool_EN.txt	SALT	1	19	[0, 0, 0]	n/a	FR1	0	R1234D
2312.056	0.801	2339494	WORD_OFF	n/a	n/a	SALT	1	19	[0, 0, 0]	n/a	FR1	0	R1234D
2312.857	1.617	2340295	WORD	n/a	wordpools/wordpool_EN.txt	SHELL	2	19	[0, 0, 0]	n/a	FR1	0	R1234D
2314.474	0.934	2341912	WORD_OFF	n/a	n/a	SHELL	2	19	[0, 0, 0]	n/a	FR1	0	R1234D
2315.408	1.616	2342846	WORD	n/a	wordpools/wordpool_EN.txt	FROG	3	19	[0, 0, 0]	n/a	FR1	0	R1234D
2317.024	0.784	2344462	WORD_OFF	n/a	n/a	FROG	3	19	[0, 0, 0]	n/a	FR1	0	R1234D
2317.808	1.617	2345246	WORD	n/a	wordpools/wordpool_EN.txt	FORT	4	19	[0, 0, 0]	n/a	FR1	0	R1234D
2319.425	1.017	2346863	WORD_OFF	n/a	n/a	FORT	4	19	[0, 0, 0]	n/a	FR1	0	R1234D
2320.442	1.616	2347880	WORD	n/a	wordpools/wordpool_EN.txt	DIME	5	19	[0, 0, 0]	n/a	FR1	0	R1234D
2322.058	0.884	2349496	WORD_OFF	n/a	n/a	DIME	5	19	[0, 0, 0]	n/a	FR1	0	R1234D
2322.942	1.617	2350380	WORD	n/a	wordpools/wordpool_EN.txt	BRICK	6	19	[0, 0, 0]	n/a	FR1	0	R1234D
2324.559	0.817	2351997	WORD_OFF	n/a	n/a	BRICK	6	19	[0, 0, 0]	n/a	FR1	0	R1234D
2325.376	1.616	2352814	WORD	n/a	wordpools/wordpool_EN.txt	CONE	7	19	[0, 0, 0]	n/a	FR1	0	R1234D
2326.992	0.918	2354429	WORD_OFF	n/a	n/a	CONE	7	19	[0, 0, 0]	n/a	FR1	0	R1234D
2327.91	1.617	2355347	WORD	n/a	wordpools/wordpool_EN.txt	SPARK	8	19	[0, 0, 0]	n/a	FR1	0	R1234D
2329.527	0.9	2356964	WORD_OFF	n/a	n/a	SPARK	8	19	[0, 0, 0]	n/a	FR1	0	R1234D
2330.427	1.616	2357864	WORD	n/a	wordpools/wordpool_EN.txt	STONE	9	19	[0, 0, 0]	n/a	FR1	0	R1234D
2332.043	0.934	2359480	WORD_OFF	n/a	n/a	STONE	9	19	[0, 0, 0]	n/a	FR1	0	R1234D
2332.977	1.618	2360414	WORD	n/a	wordpools/wordpool_EN.txt	CHIEF	10	19	[0, 0, 0]	n/a	FR1	0	R1234D
2334.595	0.866	2362032	WORD_OFF	n/a	n/a	CHIEF	10	19	[0, 0, 0]	n/a	FR1	0	R1234D
2335.461	1.616	2362898	WORD	n/a	wordpools/wordpool_EN.txt	STEAM	11	19	[0, 0, 0]	n/a	FR1	0	R1234D
2337.077	0.868	2364514	WORD_OFF	n/a	n/a	STEAM	11	19	[0, 0, 0]	n/a	FR1	0	R1234D
2337.945	1.617	2365382	WORD	n/a	wordpools/wordpool_EN.txt	ICE	12	19	[0, 0, 0]	n/a	FR1	0	R1234D
2339.562	0.0	2366999	WORD_OFF	n/a	n/a	ICE	12	19	[0, 0, 0]	n/a	FR1	0	R1234D
2339.562	0.001	2366999	DISTRACT_START	n/a	n/a	n/a	-999	19	[0, 0, 0]	n/a	FR1	0	R1234D
2339.563	0.016	2367000	START	n/a	n/a	n/a	-999	19	[-999, -999, -999]	n/a	FR1	0	R1234D
2339.579	22.743	2367016	PROB	22.743	n/a	n/a	-999	19	[4, 7, 4]	15	FR1	0	R1234D
2362.322	0.01	2389758	STOP	n/a	n/a	n/a	-999	19	[-999, -999, -999]	n/a	FR1	0	R1234D
2362.332	0.667	2389768	DISTRACT_END	n/a	n/a	n/a	-999	19	[0, 0, 0]	n/a	FR1	0	R1234D
2362.999	0.518	2390434	RETRIEVAL_ORIENT	n/a	n/a	n/a	-999	19	[0, 0, 0]	n/a	FR1	0	R1234D
2363.517	2.319	2390952	REC_START	n/a	n/a	n/a	-999	19	[0, 0, 0]	n/a	FR1	0	R1234D
2365.836	0.821	2393271	REC_WORD_VV	0.821	n/a	<>	-999	19	[0, 0, 0]	n/a	FR1	0	R1234D
2366.657	0.336	2394092	REC_WORD_VV	0.336	n/a	<>	-999	19	[0, 0, 0]	n/a	FR1	0	R1234D
2366.993	2.693	2394428	REC_WORD	2.693	n/a	CHIEF	-999	19	[0, 0, 0]	n/a	FR1	0	R1234D
2369.686	2.188	2397121	REC_WORD_VV	2.188	n/a	<>	-999	19	[0, 0, 0]	n/a	FR1	0	R1234D
2371.874	17.862	2399309	REC_WORD	17.862	n/a	BRICK	-999	19	[0, 0, 0]	n/a	FR1	0	R1234D
2389.736	3.791	2417170	REC_WORD	3.791	n/a	STONE	-999	19	[0, 0, 0]	n/a	FR1	0	R1234D
2393.527	6.013	2420961	REC_END	n/a	n/a	n/a	-999	19	[0, 0, 0]	n/a	FR1	0	R1234D
2399.54	0.5	2426973	TRIAL	n/a	n/a	n/a	-999	20	[0, 0, 0]	n/a	FR1	0	R1234D
2400.04	10.428	2427473	COUNTDOWN_START	n/a	n/a	n/a	-999	20	[0, 0, 0]	n/a	FR1	0	R1234D
2410.468	0.007	2437901	COUNTDOWN_END	n/a	n/a	n/a	-999	20	[0, 0, 0]	n/a	FR1	0	R1234D
2410.475	1.616	2437908	ORIENT	n/a	n/a	n/a	-999	20	[0, 0, 0]	n/a	FR1	0	R1234D
2412.091	1.818	2439524	ORIENT_OFF	n/a	n/a	n/a	-999	20	[0, 0, 0]	n/a	FR1	0	R1234D
2413.909	1.617	2441342	WORD	n/a	wordpools/wordpool_EN.txt	FARM	1	20	[0, 0, 0]	n/a	FR1	0	R1234D
2415.526	0.95	2442959	WORD_OFF	n/a	n/a	FARM	1	20	[0, 0, 0]	n/a	FR1	0	R1234D
2416.476	1.616	2443909	WORD	n/a	wordpools/wordpool_EN.txt	MOOSE	2	20	[0, 0, 0]	n/a	FR1	0	R1234D
2418.092	0.785	2445524	WORD_OFF	n/a	n/a	MOOSE	2	20	[0, 0, 0]	n/a	FR1	0	R1234D
2418.877	1.616	2446309	WORD	n/a	wordpools/wordpool_EN.txt	FOOT	3	20	[0, 0, 0]	n/a	FR1	0	R1234D
2420.493	0.783	2447925	WORD_OFF	n/a	n/a	FOOT	3	20	[0, 0, 0]	n/a	FR1	0	R1234D
2421.276	1.618	2448708	WORD	n/a	wordpools/wordpool_EN.txt	TENT	4	20	[0, 0, 0]	n/a	FR1	0	R1234D
2422.894	0.917	2450326	WORD_OFF	n/a	n/a	TENT	4	20	[0, 0, 0]	n/a	FR1	0	R1234D
2423.811	1.617	2451243	WORD	n/a	wordpools/wordpool_EN.txt	PLANT	5	20	[0, 0, 0]	n/a	FR1	0	R1234D
2425.428	0.799	2452860	WORD_OFF	n/a	n/a	PLANT	5	20	[0, 0, 0]	n/a	FR1	0	R1234D
2426.227	1.601	2453659	WORD	n/a	wordpools/wordpool_EN.txt	SPEAR	6	20	[0, 0, 0]	n/a	FR1	0	R1234D
2427.828	0.85	2455260	WORD_OFF	n/a	n/a	SPEAR	6	20	[0, 0, 0]	n/a	FR1	0	R1234D
2428.678	1.616	2456110	WORD	n/a	wordpools/wordpool_EN.txt	FACE	7	20	[0, 0, 0]	n/a	FR1	0	R1234D
2430.294	0.834	2457726	WORD_OFF	n/a	n/a	FACE	7	20	[0, 0, 0]	n/a	FR1	0	R1234D
2431.128	1.618	2458560	WORD	n/a	wordpools/wordpool_EN.txt	SPRING	8	20	[0, 0, 0]	n/a	FR1	0	R1234D
2432.746	1.0	2460178	WORD_OFF	n/a	n/a	SPRING	8	20	[0, 0, 0]	n/a	FR1	0	R1234D
2433.746	1.617	2461178	WORD	n/a	wordpools/wordpool_EN.txt	TRAIN	9	20	[0, 0, 0]	n/a	FR1	0	R1234D
2435.363	0.849	2462795	WORD_OFF	n/a	n/a	TRAIN	9	20	[0, 0, 0]	n/a	FR1	0	R1234D
2436.212	1.618	2463644	WORD	n/a	wordpools/wordpool_EN.txt	GUARD	10	20	[0, 0, 0]	n/a	FR1	0	R1234D
2437.83	0.884	2465261	WORD_OFF	n/a	n/a	GUARD	10	20	[0, 0, 0]	n/a	FR1	0	R1234D
2438.714	1.615	2466145	WORD	n/a	wordpools/wordpool_EN.txt	TRUCK	11	20	[0, 0, 0]	n/a	FR1	0	R1234D
2440.329	0.851	2467760	WORD_OFF	n/a	n/a	TRUCK	11	20	[0, 0, 0]	n/a	FR1	0	R1234D
2441.18	1.618	2468611	WORD	n/a	wordpools/wordpool_EN.txt	SHEEP	12	20	[0, 0, 0]	n/a	FR1	0	R1234D
2442.798	0.0	2470229	WORD_OFF	n/a	n/a	SHEEP	12	20	[0, 0, 0]	n/a	FR1	0	R1234D
2442.798	0.0	2470229	DISTRACT_START	n/a	n/a	n/a	-999	20	[0, 0, 0]	n/a	FR1	0	R1234D
2442.798	0.016	2470229	START	n/a	n/a	n/a	-999	20	[-999, -999, -999]	n/a	FR1	0	R1234D
2442.814	8.719	2470245	PROB	8.719	n/a	n/a	-999	20	[6, 3, 5]	14	FR1	0	R1234D
2451.533	7.8	2478964	PROB	7.8	n/a	n/a	-999	20	[5, 8, 3]	16	FR1	0	R1234D
2459.333	5.9	2486763	PROB	5.9	n/a	n/a	-999	20	[4, 6, 2]	12	FR1	0	R1234D
2465.233	0.018	2492663	STOP	n/a	n/a	n/a	-999	20	[-999, -999, -999]	n/a	FR1	0	R1234D
2465.251	0.534	2492681	DISTRACT_END	n/a	n/a	n/a	-999	20	[0, 0, 0]	n/a	FR1	0	R1234D
2465.785	0.516	2493215	RETRIEVAL_ORIENT	n/a	n/a	n/a	-999	20	[0, 0, 0]	n/a	FR1	0	R1234D
2466.301	1.949	2493731	REC_START	n/a	n/a	n/a	-999	20	[0, 0, 0]	n/a	FR1	0	R1234D
2468.25	0.162	2495680	REC_WORD_VV	0.162	n/a	<>	-999	20	[0, 0, 0]	n/a	FR1	0	R1234D
2468.412	1.7	2495842	REC_WORD	1.7	n/a	TRUCK	-999	20	[0, 0, 0]	n/a	FR1	0	R1234D
2470.112	1.95	2497542	REC_WORD	1.95	n/a	SPRING	-999	20	[0, 0, 0]	n/a	FR1	0	R1234D
2472.062	24.25	2499492	REC_WORD	24.25	n/a	FOOT	-999	20	[0, 0, 0]	n/a	FR1	0	R1234D
2496.312	5.213	2523740	REC_END	n/a	n/a	n/a	-999	20	[0, 0, 0]	n/a	FR1	0	R1234D
2501.525	0.5	2528953	TRIAL	n/a	n/a	n/a	-999	21	[0, 0, 0]	n/a	FR1	0	R1234D
2502.025	10.428	2529453	COUNTDOWN_START	n/a	n/a	n/a	-999	21	[0, 0, 0]	n/a	FR1	0	R1234D
2512.453	0.007	2539880	COUNTDOWN_END	n/a	n/a	n/a	-999	21	[0, 0, 0]	n/a	FR1	0	R1234D
2512.46	1.616	2539887	ORIENT	n/a	n/a	n/a	-999	21	[0, 0, 0]	n/a	FR1	0	R1234D
2514.076	2.167	2541503	ORIENT_OFF	n/a	n/a	n/a	-999	21	[0, 0, 0]	n/a	FR1	0	R1234D
2516.243	1.618	2543670	WORD	n/a	wordpools/wordpool_EN.txt	CLOCK	1	21	[0, 0, 0]	n/a	FR1	0	R1234D
2517.861	0.95	2545288	WORD_OFF	n/a	n/a	CLOCK	1	21	[0, 0, 0]	n/a	FR1	0	R1234D
2518.811	1.617	2546238	WORD	n/a	wordpools/wordpool_EN.txt	BEACH	2	21	[0, 0, 0]	n/a	FR1	0	R1234D
2520.428	1.001	2547855	WORD_OFF	n/a	n/a	BEACH	2	21	[0, 0, 0]	n/a	FR1	0	R1234D
2521.429	1.616	2548856	WORD	n/a	wordpools/wordpool_EN.txt	SHARK	3	21	[0, 0, 0]	n/a	FR1	0	R1234D
2523.045	0.983	2550472	WORD_OFF	n/a	n/a	SHARK	3	21	[0, 0, 0]	n/a	FR1	0	R1234D
2524.028	1.618	2551455	WORD	n/a	wordpools/wordpool_EN.txt	GLASS	4	21	[0, 0, 0]	n/a	FR1	0	R1234D
2525.646	0.884	2553073	WORD_OFF	n/a	n/a	GLASS	4	21	[0, 0, 0]	n/a	FR1	0	R1234D
2526.53	1.615	2553957	WORD	n/a	wordpools/wordpool_EN.txt	SNAIL	5	21	[0, 0, 0]	n/a	FR1	0	R1234D
2528.145	0.817	2555572	WORD_OFF	n/a	n/a	SNAIL	5	21	[0, 0, 0]	n/a	FR1	0	R1234D
2528.962	1.601	2556388	WORD	n/a	wordpools/wordpool_EN.txt	SEAL	6	21	[0, 0, 0]	n/a	FR1	0	R1234D
2530.563	0.784	2557989	WORD_OFF	n/a	n/a	SEAL	6	21	[0, 0, 0]	n/a	FR1	0	R1234D
2531.347	1.616	2558773	WORD	n/a	wordpools/wordpool_EN.txt	ROCK	7	21	[0, 0, 0]	n/a	FR1	0	R1234D
2532.963	0.901	2560389	WORD_OFF	n/a	n/a	ROCK	7	21	[0, 0, 0]	n/a	FR1	0	R1234D
2533.864	1.617	2561290	WORD	n/a	wordpools/wordpool_EN.txt	SIGN	8	21	[0, 0, 0]	n/a	FR1	0	R1234D
2535.481	1.017	2562907	WORD_OFF	n/a	n/a	SIGN	8	21	[0, 0, 0]	n/a	FR1	0	R1234D
2536.498	1.616	2563924	WORD	n/a	wordpools/wordpool_EN.txt	DRESS	9	21	[0, 0, 0]	n/a	FR1	0	R1234D
2538.114	0.95	2565540	WORD_OFF	n/a	n/a	DRESS	9	21	[0, 0, 0]	n/a	FR1	0	R1234D
2539.064	1.618	2566490	WORD	n/a	wordpools/wordpool_EN.txt	FORK	10	21	[0, 0, 0]	n/a	FR1	0	R1234D
2540.682	1.0	2568108	WORD_OFF	n/a	n/a	FORK	10	21	[0, 0, 0]	n/a	FR1	0	R1234D
2541.682	1.616	2569108	WORD	n/a	wordpools/wordpool_EN.txt	PANTS	11	21	[0, 0, 0]	n/a	FR1	0	R1234D
2543.298	0.967	2570724	WORD_OFF	n/a	n/a	PANTS	11	21	[0, 0, 0]	n/a	FR1	0	R1234D
2544.265	1.601	2571691	WORD	n/a	wordpools/wordpool_EN.txt	WAVE	12	21	[0, 0, 0]	n/a	FR1	0	R1234D
2545.866	0.0	2573292	WORD_OFF	n/a	n/a	WAVE	12	21	[0, 0, 0]	n/a	FR1	0	R1234D
2545.866	0.001	2573292	DISTRACT_START	n/a	n/a	n/a	-999	21	[0, 0, 0]	n/a	FR1	0	R1234D
2545.867	0.016	2573293	START	n/a	n/a	n/a	-999	21	[-999, -999, -999]	n/a	FR1	0	R1234D
2545.883	10.569	2573309	PROB	10.569	n/a	n/a	-999	21	[6, 5, 9]	20	FR1	0	R1234D
2556.452	9.351	2583877	PROB	9.351	n/a	n/a	-999	21	[7, 6, 2]	15	FR1	0	R1234D
2565.803	15.048	2593228	PROB	15.048	n/a	n/a	-999	21	[9, 8, 6]	23	FR1	0	R1234D
2580.851	0.022	2608275	STOP	n/a	n/a	n/a	-999	21	[-999, -999, -999]	n/a	FR1	0	R1234D
2580.873	0.65	2608297	DISTRACT_END	n/a	n/a	n/a	-999	21	[0, 0, 0]	n/a	FR1	0	R1234D
2581.523	0.517	2608947	RETRIEVAL_ORIENT	n/a	n/a	n/a	-999	21	[0, 0, 0]	n/a	FR1	0	R1234D
2582.04	4.807	2609464	REC_START	n/a	n/a	n/a	-999	21	[0, 0, 0]	n/a	FR1	0	R1234D
2586.847	2.576	2614270	REC_WORD	2.576	n/a	PANTS	-999	21	[0, 0, 0]	n/a	FR1	0	R1234D
2589.423	3.154	2616846	REC_WORD	3.154	n/a	SHARK	-999	21	[0, 0, 0]	n/a	FR1	0	R1234D
2592.577	19.474	2620000	REC_WORD_VV	19.474	n/a	<>	-999	21	[0, 0, 0]	n/a	FR1	0	R1234D
2612.051	5.879	2639473	REC_END	n/a	n/a	n/a	-999	21	[0, 0, 0]	n/a	FR1	0	R1234D
2617.93	0.5	2645352	TRIAL	n/a	n/a	n/a	-999	22	[0, 0, 0]	n/a	FR1	0	R1234D
2618.43	10.428	2645852	COUNTDOWN_START	n/a	n/a	n/a	-999	22	[0, 0, 0]	n/a	FR1	0	R1234D
2628.858	0.007	2656279	COUNTDOWN_END	n/a	n/a	n/a	-999	22	[0, 0, 0]	n/a	FR1	0	R1234D
2628.865	1.617	2656286	ORIENT	n/a	n/a	n/a	-999	22	[0, 0, 0]	n/a	FR1	0	R1234D
2630.482	2.2	2657903	ORIENT_OFF	n/a	n/a	n/a	-999	22	[0, 0, 0]	n/a	FR1	0	R1234D
2632.682	1.616	2660103	WORD	n/a	wordpools/wordpool_EN.txt	CAGE	1	22	[0, 0, 0]	n/a	FR1	0	R1234D
2634.298	0.984	2661719	WORD_OFF	n/a	n/a	CAGE	1	22	[0, 0, 0]	n/a	FR1	0	R1234D
2635.282	1.618	2662703	WORD	n/a	wordpools/wordpool_EN.txt	ARK	2	22	[0, 0, 0]	n/a	FR1	0	R1234D
2636.9	0.933	2664321	WORD_OFF	n/a	n/a	ARK	2	22	[0, 0, 0]	n/a	FR1	0	R1234D
2637.833	1.617	2665254	WORD	n/a	wordpools/wordpool_EN.txt	HAND	3	22	[0, 0, 0]	n/a	FR1	0	R1234D
2639.45	0.9	2666871	WORD_OFF	n/a	n/a	HAND	3	22	[0, 0, 0]	n/a	FR1	0	R1234D
2640.35	1.616	2667770	WORD	n/a	wordpools/wordpool_EN.txt	BED	4	22	[0, 0, 0]	n/a	FR1	0	R1234D
2641.966	0.918	2669386	WORD_OFF	n/a	n/a	BED	4	22	[0, 0, 0]	n/a	FR1	0	R1234D
2642.884	1.617	2670304	WORD	n/a	wordpools/wordpool_EN.txt	PIE	5	22	[0, 0, 0]	n/a	FR1	0	R1234D
2644.501	0.95	2671921	WORD_OFF	n/a	n/a	PIE	5	22	[0, 0, 0]	n/a	FR1	0	R1234D
2645.451	1.616	2672871	WORD	n/a	wordpools/wordpool_EN.txt	BROOM	6	22	[0, 0, 0]	n/a	FR1	0	R1234D
2647.067	1.017	2674487	WORD_OFF	n/a	n/a	BROOM	6	22	[0, 0, 0]	n/a	FR1	0	R1234D
2648.084	1.601	2675504	WORD	n/a	wordpools/wordpool_EN.txt	CAKE	7	22	[0, 0, 0]	n/a	FR1	0	R1234D
2649.685	0.817	2677105	WORD_OFF	n/a	n/a	CAKE	7	22	[0, 0, 0]	n/a	FR1	0	R1234D
2650.502	1.616	2677922	WORD	n/a	wordpools/wordpool_EN.txt	FLOOR	8	22	[0, 0, 0]	n/a	FR1	0	R1234D
2652.118	0.801	2679538	WORD_OFF	n/a	n/a	FLOOR	8	22	[0, 0, 0]	n/a	FR1	0	R1234D
2652.919	1.617	2680339	WORD	n/a	wordpools/wordpool_EN.txt	FAN	9	22	[0, 0, 0]	n/a	FR1	0	R1234D
2654.536	0.934	2681956	WORD_OFF	n/a	n/a	FAN	9	22	[0, 0, 0]	n/a	FR1	0	R1234D
2655.47	1.616	2682890	WORD	n/a	wordpools/wordpool_EN.txt	BAG	10	22	[0, 0, 0]	n/a	FR1	0	R1234D
2657.086	0.933	2684506	WORD_OFF	n/a	n/a	BAG	10	22	[0, 0, 0]	n/a	FR1	0	R1234D
2658.019	1.618	2685439	WORD	n/a	wordpools/wordpool_EN.txt	LOCK	11	22	[0, 0, 0]	n/a	FR1	0	R1234D
2659.637	0.984	2687056	WORD_OFF	n/a	n/a	LOCK	11	22	[0, 0, 0]	n/a	FR1	0	R1234D
2660.621	1.616	2688040	WORD	n/a	wordpools/wordpool_EN.txt	COUCH	12	22	[0, 0, 0]	n/a	FR1	0	R1234D
2662.237	0.0	2689656	DISTRACT_START	n/a	n/a	n/a	-999	22	[0, 0, 0]	n/a	FR1	0	R1234D
2662.237	0.0	2689656	WORD_OFF	n/a	n/a	COUCH	12	22	[0, 0, 0]	n/a	FR1	0	R1234D
2662.237	0.016	2689656	START	n/a	n/a	n/a	-999	22	[-999, -999, -999]	n/a	FR1	0	R1234D
2662.253	7.536	2689672	PROB	7.536	n/a	n/a	-999	22	[6, 1, 3]	10	FR1	0	R1234D
2669.789	7.534	2697208	PROB	7.534	n/a	n/a	-999	22	[2, 3, 6]	11	FR1	0	R1234D
2677.323	11.751	2704741	PROB	11.751	n/a	n/a	-999	22	[5, 2, 9]	16	FR1	0	R1234D
2689.074	0.018	2716492	STOP	n/a	n/a	n/a	-999	22	[-999, -999, -999]	n/a	FR1	0	R1234D
2689.092	0.617	2716510	DISTRACT_END	n/a	n/a	n/a	-999	22	[0, 0, 0]	n/a	FR1	0	R1234D
2689.709	0.517	2717127	RETRIEVAL_ORIENT	n/a	n/a	n/a	-999	22	[0, 0, 0]	n/a	FR1	0	R1234D
2690.226	1.754	2717644	REC_START	n/a	n/a	n/a	-999	22	[0, 0, 0]	n/a	FR1	0	R1234D
2691.98	0.266	2719398	REC_WORD_VV	0.266	n/a	<>	-999	22	[0, 0, 0]	n/a	FR1	0	R1234D
2692.246	0.66	2719664	REC_WORD	0.66	n/a	BROOM	-999	22	[0, 0, 0]	n/a	FR1	0	R1234D
2692.906	2.334	2720324	REC_WORD	2.334	n/a	CAKE	-999	22	[0, 0, 0]	n/a	FR1	0	R1234D
2695.24	0.377	2722658	REC_WORD_VV	0.377	n/a	<>	-999	22	[0, 0, 0]	n/a	FR1	0	R1234D
2695.617	1.166	2723034	REC_WORD	1.166	n/a	CAKE	-999	22	[0, 0, 0]	n/a	FR1	0	R1234D
2696.783	23.453	2724200	REC_WORD	23.453	n/a	CAGE	-999	22	[0, 0, 0]	n/a	FR1	0	R1234D
2720.236	5.796	2747652	REC_END	n/a	n/a	n/a	-999	22	[0, 0, 0]	n/a	FR1	0	R1234D
2726.032	0.5	2753448	TRIAL	n/a	n/a	n/a	-999	23	[0, 0, 0]	n/a	FR1	0	R1234D
2726.532	10.428	2753948	COUNTDOWN_START	n/a	n/a	n/a	-999	23	[0, 0, 0]	n/a	FR1	0	R1234D
2736.96	0.007	2764375	COUNTDOWN_END	n/a	n/a	n/a	-999	23	[0, 0, 0]	n/a	FR1	0	R1234D
2736.967	1.618	2764382	ORIENT	n/a	n/a	n/a	-999	23	[0, 0, 0]	n/a	FR1	0	R1234D
2738.585	2.117	2766000	ORIENT_OFF	n/a	n/a	n/a	-999	23	[0, 0, 0]	n/a	FR1	0	R1234D
2740.702	1.616	2768117	WORD	n/a	wordpools/wordpool_EN.txt	INK	1	23	[0, 0, 0]	n/a	FR1	0	R1234D
2742.318	0.967	2769733	WORD_OFF	n/a	n/a	INK	1	23	[0, 0, 0]	n/a	FR1	0	R1234D
2743.285	1.601	2770700	WORD	n/a	wordpools/wordpool_EN.txt	BOOK	2	23	[0, 0, 0]	n/a	FR1	0	R1234D
2744.886	0.967	2772301	WORD_OFF	n/a	n/a	BOOK	2	23	[0, 0, 0]	n/a	FR1	0	R1234D
2745.853	1.617	2773268	WORD	n/a	wordpools/wordpool_EN.txt	COIN	3	23	[0, 0, 0]	n/a	FR1	0	R1234D
2747.47	0.849	2774885	WORD_OFF	n/a	n/a	COIN	3	23	[0, 0, 0]	n/a	FR1	0	R1234D
2748.319	1.601	2775734	WORD	n/a	wordpools/wordpool_EN.txt	JAIL	4	23	[0, 0, 0]	n/a	FR1	0	R1234D
2749.92	0.967	2777335	WORD_OFF	n/a	n/a	JAIL	4	23	[0, 0, 0]	n/a	FR1	0	R1234D
2750.887	1.617	2778301	WORD	n/a	wordpools/wordpool_EN.txt	BANK	5	23	[0, 0, 0]	n/a	FR1	0	R1234D
2752.504	0.917	2779918	WORD_OFF	n/a	n/a	BANK	5	23	[0, 0, 0]	n/a	FR1	0	R1234D
2753.421	1.616	2780835	WORD	n/a	wordpools/wordpool_EN.txt	JUDGE	6	23	[0, 0, 0]	n/a	FR1	0	R1234D
2755.037	0.785	2782451	WORD_OFF	n/a	n/a	JUDGE	6	23	[0, 0, 0]	n/a	FR1	0	R1234D
2755.822	1.616	2783236	WORD	n/a	wordpools/wordpool_EN.txt	RAKE	7	23	[0, 0, 0]	n/a	FR1	0	R1234D
2757.438	0.9	2784852	WORD_OFF	n/a	n/a	RAKE	7	23	[0, 0, 0]	n/a	FR1	0	R1234D
2758.338	1.618	2785752	WORD	n/a	wordpools/wordpool_EN.txt	SHEET	8	23	[0, 0, 0]	n/a	FR1	0	R1234D
2759.956	0.916	2787370	WORD_OFF	n/a	n/a	SHEET	8	23	[0, 0, 0]	n/a	FR1	0	R1234D
2760.872	1.617	2788286	WORD	n/a	wordpools/wordpool_EN.txt	MAIL	9	23	[0, 0, 0]	n/a	FR1	0	R1234D
2762.489	0.85	2789903	WORD_OFF	n/a	n/a	MAIL	9	23	[0, 0, 0]	n/a	FR1	0	R1234D
2763.339	1.617	2790753	WORD	n/a	wordpools/wordpool_EN.txt	STORE	10	23	[0, 0, 0]	n/a	FR1	0	R1234D
2764.956	0.934	2792370	WORD_OFF	n/a	n/a	STORE	10	23	[0, 0, 0]	n/a	FR1	0	R1234D
2765.89	1.617	2793304	WORD	n/a	wordpools/wordpool_EN.txt	ELF	11	23	[0, 0, 0]	n/a	FR1	0	R1234D
2767.507	0.782	2794921	WORD_OFF	n/a	n/a	ELF	11	23	[0, 0, 0]	n/a	FR1	0	R1234D
2768.289	1.602	2795703	WORD	n/a	wordpools/wordpool_EN.txt	HORSE	12	23	[0, 0, 0]	n/a	FR1	0	R1234D
2769.891	0.0	2797304	WORD_OFF	n/a	n/a	HORSE	12	23	[0, 0, 0]	n/a	FR1	0	R1234D
2769.891	0.0	2797304	DISTRACT_START	n/a	n/a	n/a	-999	23	[0, 0, 0]	n/a	FR1	0	R1234D
2769.891	0.016	2797304	START	n/a	n/a	n/a	-999	23	[-999, -999, -999]	n/a	FR1	0	R1234D
2769.907	9.418	2797320	PROB	9.418	n/a	n/a	-999	23	[7, 1, 6]	14	FR1	0	R1234D
2779.325	7.152	2806738	PROB	7.152	n/a	n/a	-999	23	[5, 8, 3]	16	FR1	0	R1234D
2786.477	7.151	2813890	PROB	7.151	n/a	n/a	-999	23	[5, 1, 7]	13	FR1	0	R1234D
2793.628	0.017	2821040	STOP	n/a	n/a	n/a	-999	23	[-999, -999, -999]	n/a	FR1	0	R1234D
2793.645	0.532	2821057	DISTRACT_END	n/a	n/a	n/a	-999	23	[0, 0, 0]	n/a	FR1	0	R1234D
2794.177	0.519	2821589	RETRIEVAL_ORIENT	n/a	n/a	n/a	-999	23	[0, 0, 0]	n/a	FR1	0	R1234D
2794.696	2.052	2822108	REC_START	n/a	n/a	n/a	-999	23	[0, 0, 0]	n/a	FR1	0	R1234D
2796.748	0.448	2824160	REC_WORD_VV	0.448	n/a	<>	-999	23	[0, 0, 0]	n/a	FR1	0	R1234D
2797.196	2.319	2824608	REC_WORD	2.319	n/a	HORSE	-999	23	[0, 0, 0]	n/a	FR1	0	R1234D
2799.515	4.163	2826927	REC_WORD	4.163	n/a	IRON	-999	23	[0, 0, 0]	n/a	FR1	0	R1234D
2803.678	2.828	2831090	REC_WORD_VV	2.828	n/a	<>	-999	23	[0, 0, 0]	n/a	FR1	0	R1234D
2806.506	4.945	2833917	REC_WORD_VV	4.945	n/a	<>	-999	23	[0, 0, 0]	n/a	FR1	0	R1234D
2811.451	13.255	2838862	REC_WORD	13.255	n/a	JAIL	-999	23	[0, 0, 0]	n/a	FR1	0	R1234D
2824.706	5.278	2852117	REC_END	n/a	n/a	n/a	-999	23	[0, 0, 0]	n/a	FR1	0	R1234D
2829.984	0.5	2857394	TRIAL	n/a	n/a	n/a	-999	24	[0, 0, 0]	n/a	FR1	0	R1234D
2830.484	10.428	2857894	COUNTDOWN_START	n/a	n/a	n/a	-999	24	[0, 0, 0]	n/a	FR1	0	R1234D
2840.912	0.008	2868322	COUNTDOWN_END	n/a	n/a	n/a	-999	24	[0, 0, 0]	n/a	FR1	0	R1234D
2840.92	1.617	2868330	ORIENT	n/a	n/a	n/a	-999	24	[0, 0, 0]	n/a	FR1	0	R1234D
2842.537	2.167	2869947	ORIENT_OFF	n/a	n/a	n/a	-999	24	[0, 0, 0]	n/a	FR1	0	R1234D
2844.704	1.616	2872113	WORD	n/a	wordpools/wordpool_EN.txt	NAIL	1	24	[0, 0, 0]	n/a	FR1	0	R1234D
2846.32	0.867	2873729	WORD_OFF	n/a	n/a	NAIL	1	24	[0, 0, 0]	n/a	FR1	0	R1234D
2847.187	1.618	2874596	WORD	n/a	wordpools/wordpool_EN.txt	BEAK	2	24	[0, 0, 0]	n/a	FR1	0	R1234D
2848.805	1.0	2876214	WORD_OFF	n/a	n/a	BEAK	2	24	[0, 0, 0]	n/a	FR1	0	R1234D
2849.805	1.617	2877214	WORD	n/a	wordpools/wordpool_EN.txt	AXE	3	24	[0, 0, 0]	n/a	FR1	0	R1234D
2851.422	0.899	2878831	WORD_OFF	n/a	n/a	AXE	3	24	[0, 0, 0]	n/a	FR1	0	R1234D
2852.321	1.602	2879730	WORD	n/a	wordpools/wordpool_EN.txt	SPOON	4	24	[0, 0, 0]	n/a	FR1	0	R1234D
2853.923	0.817	2881332	WORD_OFF	n/a	n/a	SPOON	4	24	[0, 0, 0]	n/a	FR1	0	R1234D
2854.74	1.617	2882149	WORD	n/a	wordpools/wordpool_EN.txt	SOCK	5	24	[0, 0, 0]	n/a	FR1	0	R1234D
2856.357	0.765	2883766	WORD_OFF	n/a	n/a	SOCK	5	24	[0, 0, 0]	n/a	FR1	0	R1234D
2857.122	1.601	2884531	WORD	n/a	wordpools/wordpool_EN.txt	GRAPE	6	24	[0, 0, 0]	n/a	FR1	0	R1234D
2858.723	0.917	2886132	WORD_OFF	n/a	n/a	GRAPE	6	24	[0, 0, 0]	n/a	FR1	0	R1234D
2859.64	1.616	2887049	WORD	n/a	wordpools/wordpool_EN.txt	JAR	7	24	[0, 0, 0]	n/a	FR1	0	R1234D
2861.256	0.884	2888665	WORD_OFF	n/a	n/a	JAR	7	24	[0, 0, 0]	n/a	FR1	0	R1234D
2862.14	1.618	2889548	WORD	n/a	wordpools/wordpool_EN.txt	VASE	8	24	[0, 0, 0]	n/a	FR1	0	R1234D
2863.758	0.817	2891166	WORD_OFF	n/a	n/a	VASE	8	24	[0, 0, 0]	n/a	FR1	0	R1234D
2864.575	1.616	2891983	WORD	n/a	wordpools/wordpool_EN.txt	THUMB	9	24	[0, 0, 0]	n/a	FR1	0	R1234D
2866.191	0.9	2893599	WORD_OFF	n/a	n/a	THUMB	9	24	[0, 0, 0]	n/a	FR1	0	R1234D
2867.091	1.618	2894499	WORD	n/a	wordpools/wordpool_EN.txt	JUICE	10	24	[0, 0, 0]	n/a	FR1	0	R1234D
2868.709	0.85	2896117	WORD_OFF	n/a	n/a	JUICE	10	24	[0, 0, 0]	n/a	FR1	0	R1234D
2869.559	1.616	2896967	WORD	n/a	wordpools/wordpool_EN.txt	CLOWN	11	24	[0, 0, 0]	n/a	FR1	0	R1234D
2871.175	0.95	2898583	WORD_OFF	n/a	n/a	CLOWN	11	24	[0, 0, 0]	n/a	FR1	0	R1234D
2872.125	1.618	2899533	WORD	n/a	wordpools/wordpool_EN.txt	RUG	12	24	[0, 0, 0]	n/a	FR1	0	R1234D
2873.743	0.0	2901151	DISTRACT_START	n/a	n/a	n/a	-999	24	[0, 0, 0]	n/a	FR1	0	R1234D
2873.743	0.001	2901151	WORD_OFF	n/a	n/a	RUG	12	24	[0, 0, 0]	n/a	FR1	0	R1234D
2873.744	0.016	2901152	START	n/a	n/a	n/a	-999	24	[-999, -999, -999]	n/a	FR1	0	R1234D
2873.76	7.533	2901168	PROB	7.533	n/a	n/a	-999	24	[1, 5, 6]	12	FR1	0	R1234D
2881.293	8.969	2908700	PROB	8.969	n/a	n/a	-999	24	[2, 7, 6]	15	FR1	0	R1234D
2890.262	7.965	2917669	PROB	7.965	n/a	n/a	-999	24	[8, 7, 8]	23	FR1	0	R1234D
2898.227	0.02	2925634	STOP	n/a	n/a	n/a	-999	24	[-999, -999, -999]	n/a	FR1	0	R1234D
2898.247	0.567	2925654	DISTRACT_END	n/a	n/a	n/a	-999	24	[0, 0, 0]	n/a	FR1	0	R1234D
2898.814	0.517	2926220	RETRIEVAL_ORIENT	n/a	n/a	n/a	-999	24	[0, 0, 0]	n/a	FR1	0	R1234D
2899.331	1.427	2926737	REC_START	n/a	n/a	n/a	-999	24	[0, 0, 0]	n/a	FR1	0	R1234D
2900.758	0.433	2928164	REC_WORD_VV	0.433	n/a	<>	-999	24	[0, 0, 0]	n/a	FR1	0	R1234D
2901.191	0.479	2928597	REC_WORD	0.479	n/a	CLOWN	-999	24	[0, 0, 0]	n/a	FR1	0	R1234D
2901.67	0.681	2929076	REC_WORD	0.681	n/a	RUG	-999	24	[0, 0, 0]	n/a	FR1	0	R1234D
2902.351	5.26	2929757	REC_WORD	5.26	n/a	NAIL	-999	24	[0, 0, 0]	n/a	FR1	0	R1234D
2907.611	9.511	2935017	REC_WORD	9.511	n/a	SPOON	-999	24	[0, 0, 0]	n/a	FR1	0	R1234D
2917.122	12.218	2944528	REC_WORD	12.218	n/a	AXE	-999	24	[0, 0, 0]	n/a	FR1	0	R1234D
2929.34	7.265	2956745	REC_END	n/a	n/a	n/a	-999	24	[0, 0, 0]	n/a	FR1	0	R1234D
2936.605	0.5	2964009	TRIAL	n/a	n/a	n/a	-999	25	[0, 0, 0]	n/a	FR1	0	R1234D
2937.105	10.428	2964509	COUNTDOWN_START	n/a	n/a	n/a	-999	25	[0, 0, 0]	n/a	FR1	0	R1234D
2947.533	0.007	2974937	COUNTDOWN_END	n/a	n/a	n/a	-999	25	[0, 0, 0]	n/a	FR1	0	R1234D
2947.54	1.616	2974944	ORIENT	n/a	n/a	n/a	-999	25	[0, 0, 0]	n/a	FR1	0	R1234D
2949.156	1.95	2976560	ORIENT_OFF	n/a	n/a	n/a	-999	25	[0, 0, 0]	n/a	FR1	0	R1234D
2951.106	1.618	2978510	WORD	n/a	wordpools/wordpool_EN.txt	STOVE	1	25	[0, 0, 0]	n/a	FR1	0	R1234D
2952.724	0.934	2980128	WORD_OFF	n/a	n/a	STOVE	1	25	[0, 0, 0]	n/a	FR1	0	R1234D
2953.658	1.616	2981062	WORD	n/a	wordpools/wordpool_EN.txt	FLAME	2	25	[0, 0, 0]	n/a	FR1	0	R1234D
2955.274	0.966	2982677	WORD_OFF	n/a	n/a	FLAME	2	25	[0, 0, 0]	n/a	FR1	0	R1234D
2956.24	1.618	2983643	WORD	n/a	wordpools/wordpool_EN.txt	CHAIR	3	25	[0, 0, 0]	n/a	FR1	0	R1234D
2957.858	0.901	2985261	WORD_OFF	n/a	n/a	CHAIR	3	25	[0, 0, 0]	n/a	FR1	0	R1234D
2958.759	1.617	2986162	WORD	n/a	wordpools/wordpool_EN.txt	SINK	4	25	[0, 0, 0]	n/a	FR1	0	R1234D
2960.376	0.799	2987779	WORD_OFF	n/a	n/a	SINK	4	25	[0, 0, 0]	n/a	FR1	0	R1234D
2961.175	1.618	2988578	WORD	n/a	wordpools/wordpool_EN.txt	SLUSH	5	25	[0, 0, 0]	n/a	FR1	0	R1234D
2962.793	0.917	2990196	WORD_OFF	n/a	n/a	SLUSH	5	25	[0, 0, 0]	n/a	FR1	0	R1234D
2963.71	1.616	2991113	WORD	n/a	wordpools/wordpool_EN.txt	ROPE	6	25	[0, 0, 0]	n/a	FR1	0	R1234D
2965.326	0.883	2992729	WORD_OFF	n/a	n/a	ROPE	6	25	[0, 0, 0]	n/a	FR1	0	R1234D
2966.209	1.618	2993612	WORD	n/a	wordpools/wordpool_EN.txt	STAIR	7	25	[0, 0, 0]	n/a	FR1	0	R1234D
2967.827	0.95	2995230	WORD_OFF	n/a	n/a	STAIR	7	25	[0, 0, 0]	n/a	FR1	0	R1234D
2968.777	1.617	2996180	WORD	n/a	wordpools/wordpool_EN.txt	CLOTH	8	25	[0, 0, 0]	n/a	FR1	0	R1234D
2970.394	0.766	2997797	WORD_OFF	n/a	n/a	CLOTH	8	25	[0, 0, 0]	n/a	FR1	0	R1234D
2971.16	1.618	2998563	WORD	n/a	wordpools/wordpool_EN.txt	HOSE	9	25	[0, 0, 0]	n/a	FR1	0	R1234D
2972.778	0.833	3000180	WORD_OFF	n/a	n/a	HOSE	9	25	[0, 0, 0]	n/a	FR1	0	R1234D
2973.611	1.616	3001013	WORD	n/a	wordpools/wordpool_EN.txt	VEST	10	25	[0, 0, 0]	n/a	FR1	0	R1234D
2975.227	0.95	3002629	WORD_OFF	n/a	n/a	VEST	10	25	[0, 0, 0]	n/a	FR1	0	R1234D
2976.177	1.602	3003579	WORD	n/a	wordpools/wordpool_EN.txt	SOAP	11	25	[0, 0, 0]	n/a	FR1	0	R1234D
2977.779	0.933	3005181	WORD_OFF	n/a	n/a	SOAP	11	25	[0, 0, 0]	n/a	FR1	0	R1234D
2978.712	1.616	3006114	WORD	n/a	wordpools/wordpool_EN.txt	LAMP	12	25	[0, 0, 0]	n/a	FR1	0	R1234D
2980.328	0.0	3007730	WORD_OFF	n/a	n/a	LAMP	12	25	[0, 0, 0]	n/a	FR1	0	R1234D
2980.328	0.001	3007730	DISTRACT_START	n/a	n/a	n/a	-999	25	[0, 0, 0]	n/a	FR1	0	R1234D
2980.329	0.017	3007731	START	n/a	n/a	n/a	-999	25	[-999, -999, -999]	n/a	FR1	0	R1234D
2980.346	13.169	3007748	PROB	13.169	n/a	n/a	-999	25	[8, 6, 3]	18	FR1	0	R1234D
2993.515	9.744	3020916	PROB	9.744	n/a	n/a	-999	25	[3, 5, 7]	15	FR1	0	R1234D
3003.259	0.007	3030660	STOP	n/a	n/a	n/a	-999	25	[-999, -999, -999]	n/a	FR1	0	R1234D
3003.266	0.634	3030667	DISTRACT_END	n/a	n/a	n/a	-999	25	[0, 0, 0]	n/a	FR1	0	R1234D
3003.9	0.518	3031301	RETRIEVAL_ORIENT	n/a	n/a	n/a	-999	25	[0, 0, 0]	n/a	FR1	0	R1234D
3004.418	2.125	3031819	REC_START	n/a	n/a	n/a	-999	25	[0, 0, 0]	n/a	FR1	0	R1234D
3006.543	0.751	3033944	REC_WORD_VV	0.751	n/a	<>	-999	25	[0, 0, 0]	n/a	FR1	0	R1234D
3007.294	1.215	3034695	REC_WORD	1.215	n/a	HOSE	-999	25	[0, 0, 0]	n/a	FR1	0	R1234D
3008.509	1.836	3035910	REC_WORD	1.836	n/a	FLAME	-999	25	[0, 0, 0]	n/a	FR1	0	R1234D
3010.345	24.084	3037745	REC_WORD	24.084	n/a	STOVE	-999	25	[0, 0, 0]	n/a	FR1	0	R1234D
3034.429	17.947	3061828	REC_END	n/a	n/a	n/a	-999	25	[0, 0, 0]	n/a	FR1	0	R1234D
3052.376	0.0	3079774	SESS_END	n/a	n/a	n/a	-999	25	[0, 0, 0]	n/a	FR1	0	R1234D
