onset	duration	sample	trial_type	response_time	stim_file	item_name	serialpos	list	test	answer	experiment	session	subject
0.0	16.187	161935	SESS_START	n/a	n/a	n/a	-999	-999	[0, 0, 0]	n/a	FR1	3	R1066P
16.187	10.428	170028	COUNTDOWN_START	n/a	n/a	n/a	-999	-999	[0, 0, 0]	n/a	FR1	3	R1066P
26.615	3.875	175241	COUNTDOWN_END	n/a	n/a	n/a	-999	-999	[0, 0, 0]	n/a	FR1	3	R1066P
30.49	2.483	177179	PRACTICE_WORD	n/a	n/a	RING	1	-1	[0, 0, 0]	n/a	FR1	3	R1066P
32.973	2.583	178420	PRACTICE_WORD	n/a	n/a	CAMEL	2	-1	[0, 0, 0]	n/a	FR1	3	R1066P
35.556	2.468	179712	PRACTICE_WORD	n/a	n/a	WATCH	3	-1	[0, 0, 0]	n/a	FR1	3	R1066P
38.024	2.6	180945	PRACTICE_WORD	n/a	n/a	IRON	4	-1	[0, 0, 0]	n/a	FR1	3	R1066P
40.624	2.551	182245	PRACTICE_WORD	n/a	n/a	WAGON	5	-1	[0, 0, 0]	n/a	FR1	3	R1066P
43.175	2.566	183521	PRACTICE_WORD	n/a	n/a	BEAM	6	-1	[0, 0, 0]	n/a	FR1	3	R1066P
45.741	2.585	184804	PRACTICE_WORD	n/a	n/a	ATTIC	7	-1	[0, 0, 0]	n/a	FR1	3	R1066P
48.326	2.601	186096	PRACTICE_WORD	n/a	n/a	RHINO	8	-1	[0, 0, 0]	n/a	FR1	3	R1066P
50.927	2.4	187397	PRACTICE_WORD	n/a	n/a	FLOOD	9	-1	[0, 0, 0]	n/a	FR1	3	R1066P
53.327	2.601	188597	PRACTICE_WORD	n/a	n/a	TONGUE	10	-1	[0, 0, 0]	n/a	FR1	3	R1066P
55.928	2.5	189897	PRACTICE_WORD	n/a	n/a	COTTON	11	-1	[0, 0, 0]	n/a	FR1	3	R1066P
58.428	1.617	191147	PRACTICE_WORD	n/a	n/a	CHEST	12	-1	[0, 0, 0]	n/a	FR1	3	R1066P
60.045	0.0	191955	PRACTICE_DISTRACT_START	n/a	n/a	n/a	-999	-1	[0, 0, 0]	n/a	FR1	3	R1066P
60.045	0.017	191955	START	n/a	n/a	n/a	-999	-1	[-999, -999, -999]	n/a	FR1	3	R1066P
60.062	2.083	191964	PROB	2.083	n/a	n/a	-999	-1	[3, 5, 4]	12	FR1	3	R1066P
62.145	1.466	193005	PROB	1.466	n/a	n/a	-999	-1	[8, 2, 1]	11	FR1	3	R1066P
63.611	1.868	193738	PROB	1.868	n/a	n/a	-999	-1	[1, 6, 9]	16	FR1	3	R1066P
65.479	2.15	194672	PROB	2.15	n/a	n/a	-999	-1	[9, 3, 2]	14	FR1	3	R1066P
67.629	2.1	195747	PROB	2.1	n/a	n/a	-999	-1	[7, 6, 7]	20	FR1	3	R1066P
69.729	2.485	196797	PROB	2.485	n/a	n/a	-999	-1	[9, 4, 6]	19	FR1	3	R1066P
72.214	2.651	198040	PROB	2.651	n/a	n/a	-999	-1	[9, 6, 1]	16	FR1	3	R1066P
74.865	2.033	199365	PROB	2.033	n/a	n/a	-999	-1	[2, 6, 1]	9	FR1	3	R1066P
76.898	3.017	200381	PROB	3.017	n/a	n/a	-999	-1	[3, 6, 9]	19	FR1	3	R1066P
79.915	2.435	201890	PROB	2.435	n/a	n/a	-999	-1	[5, 6, 6]	17	FR1	3	R1066P
82.35	0.016	203107	STOP	n/a	n/a	n/a	-999	-1	[-999, -999, -999]	n/a	FR1	3	R1066P
82.366	0.669	203115	PRACTICE_DISTRACT_END	n/a	n/a	n/a	-999	-1	[0, 0, 0]	n/a	FR1	3	R1066P
83.035	30.513	203450	PRACTICE_REC_START	n/a	n/a	n/a	-999	-1	[0, 0, 0]	n/a	FR1	3	R1066P
113.548	2.924	218706	PRACTICE_REC_END	n/a	n/a	n/a	-999	-1	[0, 0, 0]	n/a	FR1	3	R1066P
116.472	0.0	220167	COUNTDOWN_START	n/a	n/a	n/a	-999	1	[0, 0, 0]	n/a	FR1	3	R1066P
116.472	10.428	220167	TRIAL	n/a	n/a	n/a	-999	1	[0, 0, 0]	n/a	FR1	3	R1066P
126.9	0.008	225381	COUNTDOWN_END	n/a	n/a	n/a	-999	1	[0, 0, 0]	n/a	FR1	3	R1066P
126.908	2.584	225385	ORIENT	n/a	n/a	n/a	-999	1	[0, 0, 0]	n/a	FR1	3	R1066P
129.492	2.383	226677	WORD	n/a	wordpools/wordpool_EN.txt	TEA	1	1	[0, 0, 0]	n/a	FR1	3	R1066P
131.875	2.467	227869	WORD	n/a	wordpools/wordpool_EN.txt	FARM	2	1	[0, 0, 0]	n/a	FR1	3	R1066P
134.342	2.601	229102	WORD	n/a	wordpools/wordpool_EN.txt	SEAT	3	1	[0, 0, 0]	n/a	FR1	3	R1066P
136.943	2.584	230402	WORD	n/a	wordpools/wordpool_EN.txt	BRUSH	4	1	[0, 0, 0]	n/a	FR1	3	R1066P
139.527	2.4	231694	WORD	n/a	wordpools/wordpool_EN.txt	AXE	5	1	[0, 0, 0]	n/a	FR1	3	R1066P
141.927	2.384	232894	WORD	n/a	wordpools/wordpool_EN.txt	SLEEVE	6	1	[0, 0, 0]	n/a	FR1	3	R1066P
144.311	2.584	234086	WORD	n/a	wordpools/wordpool_EN.txt	CORN	7	1	[0, 0, 0]	n/a	FR1	3	R1066P
146.895	2.433	235378	WORD	n/a	wordpools/wordpool_EN.txt	HOSE	8	1	[0, 0, 0]	n/a	FR1	3	R1066P
149.328	2.451	236595	WORD	n/a	wordpools/wordpool_EN.txt	SMILE	9	1	[0, 0, 0]	n/a	FR1	3	R1066P
151.779	2.567	237820	WORD	n/a	wordpools/wordpool_EN.txt	POLE	10	1	[0, 0, 0]	n/a	FR1	3	R1066P
154.346	2.517	239103	WORD	n/a	wordpools/wordpool_EN.txt	DART	11	1	[0, 0, 0]	n/a	FR1	3	R1066P
156.863	1.617	240362	WORD	n/a	wordpools/wordpool_EN.txt	HAT	12	1	[0, 0, 0]	n/a	FR1	3	R1066P
158.48	0.001	241170	DISTRACT_START	n/a	n/a	n/a	-999	1	[0, 0, 0]	n/a	FR1	3	R1066P
158.481	0.016	241171	START	n/a	n/a	n/a	-999	1	[-999, -999, -999]	n/a	FR1	3	R1066P
158.497	1.55	241179	PROB	1.55	n/a	n/a	-999	1	[7, 3, 1]	11	FR1	3	R1066P
160.047	2.901	241954	PROB	2.901	n/a	n/a	-999	1	[3, 8, 8]	19	FR1	3	R1066P
162.948	3.367	243404	PROB	3.367	n/a	n/a	-999	1	[8, 6, 5]	19	FR1	3	R1066P
166.315	4.634	245088	PROB	4.634	n/a	n/a	-999	1	[7, 6, 8]	21	FR1	3	R1066P
170.949	2.917	247404	PROB	2.917	n/a	n/a	-999	1	[2, 5, 6]	13	FR1	3	R1066P
173.866	1.884	248863	PROB	1.884	n/a	n/a	-999	1	[4, 2, 5]	11	FR1	3	R1066P
175.75	1.816	249805	PROB	1.816	n/a	n/a	-999	1	[1, 8, 5]	14	FR1	3	R1066P
177.566	2.432	250713	PROB	2.432	n/a	n/a	-999	1	[6, 9, 3]	18	FR1	3	R1066P
179.998	0.02	251929	STOP	n/a	n/a	n/a	-999	1	[-999, -999, -999]	n/a	FR1	3	R1066P
180.018	1.201	251939	DISTRACT_END	n/a	n/a	n/a	-999	1	[0, 0, 0]	n/a	FR1	3	R1066P
181.219	0.707	252539	REC_START	n/a	n/a	n/a	-999	1	[0, 0, 0]	n/a	FR1	3	R1066P
181.926	0.353	252893	REC_WORD_VV	0.353	n/a	<>	-999	1	[0, 0, 0]	n/a	FR1	3	R1066P
182.279	0.911	253069	REC_WORD	0.911	n/a	DRINK	-999	1	[0, 0, 0]	n/a	FR1	3	R1066P
183.19	0.543	253525	REC_WORD	0.543	n/a	TEA	1	1	[0, 0, 0]	n/a	FR1	3	R1066P
183.733	1.326	253796	REC_WORD	1.326	n/a	SLEEVE	6	1	[0, 0, 0]	n/a	FR1	3	R1066P
185.059	2.188	254459	REC_WORD	2.188	n/a	SMILE	9	1	[0, 0, 0]	n/a	FR1	3	R1066P
187.247	4.356	255553	REC_WORD	4.356	n/a	SEAT	3	1	[0, 0, 0]	n/a	FR1	3	R1066P
191.603	19.626	257731	REC_WORD	19.626	n/a	CORN	7	1	[0, 0, 0]	n/a	FR1	3	R1066P
211.229	1.661	267543	REC_END	n/a	n/a	n/a	-999	1	[0, 0, 0]	n/a	FR1	3	R1066P
212.89	0.001	268374	COUNTDOWN_START	n/a	n/a	n/a	-999	2	[0, 0, 0]	n/a	FR1	3	R1066P
212.891	10.427	268374	TRIAL	n/a	n/a	n/a	-999	2	[0, 0, 0]	n/a	FR1	3	R1066P
223.318	0.008	273588	COUNTDOWN_END	n/a	n/a	n/a	-999	2	[0, 0, 0]	n/a	FR1	3	R1066P
223.326	2.467	273592	ORIENT	n/a	n/a	n/a	-999	2	[0, 0, 0]	n/a	FR1	3	R1066P
225.793	2.567	274825	WORD	n/a	wordpools/wordpool_EN.txt	CONE	1	2	[0, 0, 0]	n/a	FR1	3	R1066P
228.36	2.517	276108	WORD	n/a	wordpools/wordpool_EN.txt	TRAY	2	2	[0, 0, 0]	n/a	FR1	3	R1066P
230.877	2.401	277367	WORD	n/a	wordpools/wordpool_EN.txt	SWAMP	3	2	[0, 0, 0]	n/a	FR1	3	R1066P
233.278	2.55	278567	WORD	n/a	wordpools/wordpool_EN.txt	LAND	4	2	[0, 0, 0]	n/a	FR1	3	R1066P
235.828	2.384	279842	WORD	n/a	wordpools/wordpool_EN.txt	LEAF	5	2	[0, 0, 0]	n/a	FR1	3	R1066P
238.212	2.516	281034	WORD	n/a	wordpools/wordpool_EN.txt	FORK	6	2	[0, 0, 0]	n/a	FR1	3	R1066P
240.728	2.585	282292	WORD	n/a	wordpools/wordpool_EN.txt	DRESS	7	2	[0, 0, 0]	n/a	FR1	3	R1066P
243.313	2.617	283585	WORD	n/a	wordpools/wordpool_EN.txt	ARK	8	2	[0, 0, 0]	n/a	FR1	3	R1066P
245.93	2.55	284893	WORD	n/a	wordpools/wordpool_EN.txt	ROOT	9	2	[0, 0, 0]	n/a	FR1	3	R1066P
248.48	2.518	286168	WORD	n/a	wordpools/wordpool_EN.txt	SEED	10	2	[0, 0, 0]	n/a	FR1	3	R1066P
250.998	2.483	287427	WORD	n/a	wordpools/wordpool_EN.txt	LAWN	11	2	[0, 0, 0]	n/a	FR1	3	R1066P
253.481	1.617	288668	WORD	n/a	wordpools/wordpool_EN.txt	TOAST	12	2	[0, 0, 0]	n/a	FR1	3	R1066P
255.098	0.001	289477	DISTRACT_START	n/a	n/a	n/a	-999	2	[0, 0, 0]	n/a	FR1	3	R1066P
255.099	0.016	289477	START	n/a	n/a	n/a	-999	2	[-999, -999, -999]	n/a	FR1	3	R1066P
255.115	4.217	289485	PROB	4.217	n/a	n/a	-999	2	[1, 4, 2]	7	FR1	3	R1066P
259.332	2.151	291594	PROB	2.151	n/a	n/a	-999	2	[8, 1, 4]	13	FR1	3	R1066P
261.483	2.834	292669	PROB	2.834	n/a	n/a	-999	2	[3, 4, 9]	16	FR1	3	R1066P
264.317	1.883	294086	PROB	1.883	n/a	n/a	-999	2	[5, 1, 6]	12	FR1	3	R1066P
266.2	1.617	295027	PROB	1.617	n/a	n/a	-999	2	[5, 6, 1]	12	FR1	3	R1066P
267.817	2.551	295836	PROB	2.551	n/a	n/a	-999	2	[9, 3, 8]	20	FR1	3	R1066P
270.368	3.65	297111	PROB	3.65	n/a	n/a	-999	2	[9, 8, 8]	25	FR1	3	R1066P
274.018	2.284	298936	PROB	2.284	n/a	n/a	-999	2	[6, 7, 7]	20	FR1	3	R1066P
276.302	0.017	300078	STOP	n/a	n/a	n/a	-999	2	[-999, -999, -999]	n/a	FR1	3	R1066P
276.319	1.117	300087	DISTRACT_END	n/a	n/a	n/a	-999	2	[0, 0, 0]	n/a	FR1	3	R1066P
277.436	1.1	300645	REC_START	n/a	n/a	n/a	-999	2	[0, 0, 0]	n/a	FR1	3	R1066P
278.536	1.736	301195	REC_WORD_VV	1.736	n/a	<>	-999	2	[0, 0, 0]	n/a	FR1	3	R1066P
280.272	1.024	302063	REC_WORD	1.024	n/a	CONE	1	2	[0, 0, 0]	n/a	FR1	3	R1066P
281.296	4.12	302575	REC_WORD	4.12	n/a	TRAY	2	2	[0, 0, 0]	n/a	FR1	3	R1066P
285.416	2.302	304635	REC_WORD_VV	2.302	n/a	<>	-999	2	[0, 0, 0]	n/a	FR1	3	R1066P
287.718	1.397	305786	REC_WORD	1.397	n/a	CORN	-999	2	[0, 0, 0]	n/a	FR1	3	R1066P
289.115	8.926	306484	REC_WORD	8.926	n/a	SEED	10	2	[0, 0, 0]	n/a	FR1	3	R1066P
298.041	9.408	310947	REC_WORD_VV	9.408	n/a	<>	-999	2	[0, 0, 0]	n/a	FR1	3	R1066P
307.449	1.843	315651	REC_END	n/a	n/a	n/a	-999	2	[0, 0, 0]	n/a	FR1	3	R1066P
309.292	0.0	316572	COUNTDOWN_START	n/a	n/a	n/a	-999	3	[0, 0, 0]	n/a	FR1	3	R1066P
309.292	10.428	316572	TRIAL	n/a	n/a	n/a	-999	3	[0, 0, 0]	n/a	FR1	3	R1066P
319.72	0.006	321786	COUNTDOWN_END	n/a	n/a	n/a	-999	3	[0, 0, 0]	n/a	FR1	3	R1066P
319.726	2.568	321789	ORIENT	n/a	n/a	n/a	-999	3	[0, 0, 0]	n/a	FR1	3	R1066P
322.294	2.567	323073	WORD	n/a	wordpools/wordpool_EN.txt	CHIEF	1	3	[0, 0, 0]	n/a	FR1	3	R1066P
324.861	2.401	324356	WORD	n/a	wordpools/wordpool_EN.txt	BENCH	2	3	[0, 0, 0]	n/a	FR1	3	R1066P
327.262	2.517	325557	WORD	n/a	wordpools/wordpool_EN.txt	PALM	3	3	[0, 0, 0]	n/a	FR1	3	R1066P
329.779	2.55	326815	WORD	n/a	wordpools/wordpool_EN.txt	SHIELD	4	3	[0, 0, 0]	n/a	FR1	3	R1066P
332.329	2.484	328090	WORD	n/a	wordpools/wordpool_EN.txt	CAKE	5	3	[0, 0, 0]	n/a	FR1	3	R1066P
334.813	2.401	329332	WORD	n/a	wordpools/wordpool_EN.txt	COIN	6	3	[0, 0, 0]	n/a	FR1	3	R1066P
337.214	2.617	330533	WORD	n/a	wordpools/wordpool_EN.txt	ROSE	7	3	[0, 0, 0]	n/a	FR1	3	R1066P
339.831	2.55	331841	WORD	n/a	wordpools/wordpool_EN.txt	RICE	8	3	[0, 0, 0]	n/a	FR1	3	R1066P
342.381	2.517	333116	WORD	n/a	wordpools/wordpool_EN.txt	CHAIR	9	3	[0, 0, 0]	n/a	FR1	3	R1066P
344.898	2.618	334374	WORD	n/a	wordpools/wordpool_EN.txt	CUP	10	3	[0, 0, 0]	n/a	FR1	3	R1066P
347.516	2.4	335683	WORD	n/a	wordpools/wordpool_EN.txt	DRUM	11	3	[0, 0, 0]	n/a	FR1	3	R1066P
349.916	1.617	336883	WORD	n/a	wordpools/wordpool_EN.txt	FROG	12	3	[0, 0, 0]	n/a	FR1	3	R1066P
351.533	0.001	337692	DISTRACT_START	n/a	n/a	n/a	-999	3	[0, 0, 0]	n/a	FR1	3	R1066P
351.534	0.015	337692	START	n/a	n/a	n/a	-999	3	[-999, -999, -999]	n/a	FR1	3	R1066P
351.549	3.218	337700	PROB	3.218	n/a	n/a	-999	3	[6, 3, 7]	16	FR1	3	R1066P
354.767	2.217	339309	PROB	2.217	n/a	n/a	-999	3	[4, 2, 8]	14	FR1	3	R1066P
356.984	2.851	340417	PROB	2.851	n/a	n/a	-999	3	[9, 7, 6]	22	FR1	3	R1066P
359.835	2.283	341843	PROB	2.283	n/a	n/a	-999	3	[7, 7, 8]	22	FR1	3	R1066P
362.118	1.784	342984	PROB	1.784	n/a	n/a	-999	3	[4, 1, 4]	9	FR1	3	R1066P
363.902	2.284	343876	PROB	2.284	n/a	n/a	-999	3	[2, 9, 3]	14	FR1	3	R1066P
366.186	4.284	345018	PROB	4.284	n/a	n/a	-999	3	[7, 5, 6]	18	FR1	3	R1066P
370.47	2.096	347160	PROB	2.096	n/a	n/a	-999	3	[6, 3, 9]	18	FR1	3	R1066P
372.566	0.003	348208	STOP	n/a	n/a	n/a	-999	3	[-999, -999, -999]	n/a	FR1	3	R1066P
372.569	1.202	348209	DISTRACT_END	n/a	n/a	n/a	-999	3	[0, 0, 0]	n/a	FR1	3	R1066P
373.771	0.857	348810	REC_START	n/a	n/a	n/a	-999	3	[0, 0, 0]	n/a	FR1	3	R1066P
374.628	0.997	349239	REC_WORD	0.997	n/a	CHIEF	1	3	[0, 0, 0]	n/a	FR1	3	R1066P
375.625	0.814	349737	REC_WORD	0.814	n/a	CHAIR	9	3	[0, 0, 0]	n/a	FR1	3	R1066P
376.439	2.396	350144	REC_WORD	2.396	n/a	BENCH	2	3	[0, 0, 0]	n/a	FR1	3	R1066P
378.835	24.946	351342	REC_WORD	24.946	n/a	CAKE	5	3	[0, 0, 0]	n/a	FR1	3	R1066P
403.781	1.095	363814	REC_END	n/a	n/a	n/a	-999	3	[0, 0, 0]	n/a	FR1	3	R1066P
404.876	0.001	364362	COUNTDOWN_START	n/a	n/a	n/a	-999	4	[0, 0, 0]	n/a	FR1	3	R1066P
404.877	10.427	364362	TRIAL	n/a	n/a	n/a	-999	4	[0, 0, 0]	n/a	FR1	3	R1066P
415.304	0.008	369576	COUNTDOWN_END	n/a	n/a	n/a	-999	4	[0, 0, 0]	n/a	FR1	3	R1066P
415.312	2.399	369580	ORIENT	n/a	n/a	n/a	-999	4	[0, 0, 0]	n/a	FR1	3	R1066P
417.711	2.602	370779	WORD	n/a	wordpools/wordpool_EN.txt	SALT	1	4	[0, 0, 0]	n/a	FR1	3	R1066P
420.313	2.533	372080	WORD	n/a	wordpools/wordpool_EN.txt	TRASH	2	4	[0, 0, 0]	n/a	FR1	3	R1066P
422.846	2.551	373346	WORD	n/a	wordpools/wordpool_EN.txt	MAP	3	4	[0, 0, 0]	n/a	FR1	3	R1066P
425.397	2.484	374622	WORD	n/a	wordpools/wordpool_EN.txt	ICE	4	4	[0, 0, 0]	n/a	FR1	3	R1066P
427.881	2.6	375864	WORD	n/a	wordpools/wordpool_EN.txt	SNOW	5	4	[0, 0, 0]	n/a	FR1	3	R1066P
430.481	2.467	377164	WORD	n/a	wordpools/wordpool_EN.txt	STEAM	6	4	[0, 0, 0]	n/a	FR1	3	R1066P
432.948	2.467	378397	WORD	n/a	wordpools/wordpool_EN.txt	BOMB	7	4	[0, 0, 0]	n/a	FR1	3	R1066P
435.415	2.601	379631	WORD	n/a	wordpools/wordpool_EN.txt	ROCK	8	4	[0, 0, 0]	n/a	FR1	3	R1066P
438.016	2.616	380931	WORD	n/a	wordpools/wordpool_EN.txt	TANK	9	4	[0, 0, 0]	n/a	FR1	3	R1066P
440.632	2.452	382239	WORD	n/a	wordpools/wordpool_EN.txt	LAKE	10	4	[0, 0, 0]	n/a	FR1	3	R1066P
443.084	2.482	383465	WORD	n/a	wordpools/wordpool_EN.txt	MOOSE	11	4	[0, 0, 0]	n/a	FR1	3	R1066P
445.566	1.601	384706	WORD	n/a	wordpools/wordpool_EN.txt	STONE	12	4	[0, 0, 0]	n/a	FR1	3	R1066P
447.167	0.001	385506	DISTRACT_START	n/a	n/a	n/a	-999	4	[0, 0, 0]	n/a	FR1	3	R1066P
447.168	0.016	385507	START	n/a	n/a	n/a	-999	4	[-999, -999, -999]	n/a	FR1	3	R1066P
447.184	2.867	385515	PROB	2.867	n/a	n/a	-999	4	[9, 9, 7]	25	FR1	3	R1066P
450.051	3.617	386948	PROB	3.617	n/a	n/a	-999	4	[8, 5, 6]	19	FR1	3	R1066P
453.668	2.218	388757	PROB	2.218	n/a	n/a	-999	4	[3, 3, 1]	7	FR1	3	R1066P
455.886	4.917	389865	PROB	4.917	n/a	n/a	-999	4	[8, 3, 6]	17	FR1	3	R1066P
460.803	1.517	392324	PROB	1.517	n/a	n/a	-999	4	[7, 7, 7]	21	FR1	3	R1066P
462.32	2.366	393082	PROB	2.366	n/a	n/a	-999	4	[6, 9, 9]	24	FR1	3	R1066P
464.686	1.884	394265	PROB	1.884	n/a	n/a	-999	4	[6, 1, 7]	14	FR1	3	R1066P
466.57	3.692	395207	PROB	3.692	n/a	n/a	-999	4	[7, 6, 8]	23	FR1	3	R1066P
470.262	0.01	397053	STOP	n/a	n/a	n/a	-999	4	[-999, -999, -999]	n/a	FR1	3	R1066P
470.272	1.201	397058	DISTRACT_END	n/a	n/a	n/a	-999	4	[0, 0, 0]	n/a	FR1	3	R1066P
471.473	0.598	397659	REC_START	n/a	n/a	n/a	-999	4	[0, 0, 0]	n/a	FR1	3	R1066P
472.071	1.117	397958	REC_WORD	1.117	n/a	SALT	1	4	[0, 0, 0]	n/a	FR1	3	R1066P
473.188	1.465	398516	REC_WORD	1.465	n/a	SNOW	5	4	[0, 0, 0]	n/a	FR1	3	R1066P
474.653	3.676	399248	REC_WORD	3.676	n/a	STEAM	6	4	[0, 0, 0]	n/a	FR1	3	R1066P
478.329	0.574	401086	REC_WORD_VV	0.574	n/a	<>	-999	4	[0, 0, 0]	n/a	FR1	3	R1066P
478.903	9.422	401373	REC_WORD	9.422	n/a	ICE	4	4	[0, 0, 0]	n/a	FR1	3	R1066P
488.325	0.372	406084	REC_WORD_VV	0.372	n/a	<>	-999	4	[0, 0, 0]	n/a	FR1	3	R1066P
488.697	0.611	406270	REC_WORD	0.611	n/a	SNOW	5	4	[0, 0, 0]	n/a	FR1	3	R1066P
489.308	0.629	406576	REC_WORD	0.629	n/a	SALT	1	4	[0, 0, 0]	n/a	FR1	3	R1066P
489.937	11.547	406890	REC_WORD	11.547	n/a	STEAM	6	4	[0, 0, 0]	n/a	FR1	3	R1066P
501.484	2.327	412663	REC_END	n/a	n/a	n/a	-999	4	[0, 0, 0]	n/a	FR1	3	R1066P
503.811	0.001	413827	COUNTDOWN_START	n/a	n/a	n/a	-999	5	[0, 0, 0]	n/a	FR1	3	R1066P
503.812	10.427	413827	TRIAL	n/a	n/a	n/a	-999	5	[0, 0, 0]	n/a	FR1	3	R1066P
514.239	0.008	419040	COUNTDOWN_END	n/a	n/a	n/a	-999	5	[0, 0, 0]	n/a	FR1	3	R1066P
514.247	2.6	419044	ORIENT	n/a	n/a	n/a	-999	5	[0, 0, 0]	n/a	FR1	3	R1066P
516.847	2.617	420344	WORD	n/a	wordpools/wordpool_EN.txt	COUCH	1	5	[0, 0, 0]	n/a	FR1	3	R1066P
519.464	2.501	421653	WORD	n/a	wordpools/wordpool_EN.txt	HORN	2	5	[0, 0, 0]	n/a	FR1	3	R1066P
521.965	2.55	422903	WORD	n/a	wordpools/wordpool_EN.txt	JUDGE	3	5	[0, 0, 0]	n/a	FR1	3	R1066P
524.515	2.617	424178	WORD	n/a	wordpools/wordpool_EN.txt	OAK	4	5	[0, 0, 0]	n/a	FR1	3	R1066P
527.132	2.467	425487	WORD	n/a	wordpools/wordpool_EN.txt	MUD	5	5	[0, 0, 0]	n/a	FR1	3	R1066P
529.599	2.584	426720	WORD	n/a	wordpools/wordpool_EN.txt	STRAW	6	5	[0, 0, 0]	n/a	FR1	3	R1066P
532.183	2.433	428012	WORD	n/a	wordpools/wordpool_EN.txt	APE	7	5	[0, 0, 0]	n/a	FR1	3	R1066P
534.616	2.552	429228	WORD	n/a	wordpools/wordpool_EN.txt	ARM	8	5	[0, 0, 0]	n/a	FR1	3	R1066P
537.168	2.532	430504	WORD	n/a	wordpools/wordpool_EN.txt	MOUTH	9	5	[0, 0, 0]	n/a	FR1	3	R1066P
539.7	2.519	431770	WORD	n/a	wordpools/wordpool_EN.txt	JAIL	10	5	[0, 0, 0]	n/a	FR1	3	R1066P
542.219	2.399	433030	WORD	n/a	wordpools/wordpool_EN.txt	SNAKE	11	5	[0, 0, 0]	n/a	FR1	3	R1066P
544.618	1.601	434229	WORD	n/a	wordpools/wordpool_EN.txt	BATH	12	5	[0, 0, 0]	n/a	FR1	3	R1066P
546.219	0.001	435030	DISTRACT_START	n/a	n/a	n/a	-999	5	[0, 0, 0]	n/a	FR1	3	R1066P
546.22	0.016	435030	START	n/a	n/a	n/a	-999	5	[-999, -999, -999]	n/a	FR1	3	R1066P
546.236	2.967	435038	PROB	2.967	n/a	n/a	-999	5	[5, 8, 2]	15	FR1	3	R1066P
549.203	3.533	436522	PROB	3.533	n/a	n/a	-999	5	[7, 9, 7]	24	FR1	3	R1066P
552.736	2.435	438288	PROB	2.435	n/a	n/a	-999	5	[3, 4, 7]	14	FR1	3	R1066P
555.171	2.634	439505	PROB	2.634	n/a	n/a	-999	5	[7, 5, 3]	15	FR1	3	R1066P
557.805	2.384	440822	PROB	2.384	n/a	n/a	-999	5	[6, 7, 6]	19	FR1	3	R1066P
560.189	2.584	442014	PROB	2.584	n/a	n/a	-999	5	[3, 6, 1]	10	FR1	3	R1066P
562.773	2.25	443306	PROB	2.25	n/a	n/a	-999	5	[8, 2, 8]	18	FR1	3	R1066P
565.023	2.311	444431	PROB	2.311	n/a	n/a	-999	5	[8, 9, 9]	26	FR1	3	R1066P
567.334	0.006	445587	STOP	n/a	n/a	n/a	-999	5	[-999, -999, -999]	n/a	FR1	3	R1066P
567.34	1.217	445590	DISTRACT_END	n/a	n/a	n/a	-999	5	[0, 0, 0]	n/a	FR1	3	R1066P
568.557	1.008	446198	REC_START	n/a	n/a	n/a	-999	5	[0, 0, 0]	n/a	FR1	3	R1066P
569.565	1.295	446702	REC_WORD	1.295	n/a	COUCH	1	5	[0, 0, 0]	n/a	FR1	3	R1066P
570.86	3.209	447349	REC_WORD	3.209	n/a	JUDGE	3	5	[0, 0, 0]	n/a	FR1	3	R1066P
574.069	4.968	448954	REC_WORD	4.968	n/a	ARM	8	5	[0, 0, 0]	n/a	FR1	3	R1066P
579.037	1.474	451438	REC_WORD_VV	1.474	n/a	<>	-999	5	[0, 0, 0]	n/a	FR1	3	R1066P
580.511	2.085	452175	REC_WORD	2.085	n/a	APE	7	5	[0, 0, 0]	n/a	FR1	3	R1066P
582.596	5.263	453217	REC_WORD	5.263	n/a	FIST	-999	5	[0, 0, 0]	n/a	FR1	3	R1066P
587.859	5.568	455848	REC_WORD	5.568	n/a	WATCH	-999	5	[0, 0, 0]	n/a	FR1	3	R1066P
593.427	5.141	458632	REC_WORD	5.141	n/a	MUD	5	5	[0, 0, 0]	n/a	FR1	3	R1066P
598.568	1.444	461203	REC_END	n/a	n/a	n/a	-999	5	[0, 0, 0]	n/a	FR1	3	R1066P
600.012	0.001	461925	COUNTDOWN_START	n/a	n/a	n/a	-999	6	[0, 0, 0]	n/a	FR1	3	R1066P
600.013	10.427	461925	TRIAL	n/a	n/a	n/a	-999	6	[0, 0, 0]	n/a	FR1	3	R1066P
610.44	0.008	467138	COUNTDOWN_END	n/a	n/a	n/a	-999	6	[0, 0, 0]	n/a	FR1	3	R1066P
610.448	2.434	467142	ORIENT	n/a	n/a	n/a	-999	6	[0, 0, 0]	n/a	FR1	3	R1066P
612.882	2.534	468359	WORD	n/a	wordpools/wordpool_EN.txt	MOLE	1	6	[0, 0, 0]	n/a	FR1	3	R1066P
615.416	2.6	469626	WORD	n/a	wordpools/wordpool_EN.txt	SNAIL	2	6	[0, 0, 0]	n/a	FR1	3	R1066P
618.016	2.566	470926	WORD	n/a	wordpools/wordpool_EN.txt	CAVE	3	6	[0, 0, 0]	n/a	FR1	3	R1066P
620.582	2.518	472209	WORD	n/a	wordpools/wordpool_EN.txt	BEAR	4	6	[0, 0, 0]	n/a	FR1	3	R1066P
623.1	2.483	473468	WORD	n/a	wordpools/wordpool_EN.txt	JEEP	5	6	[0, 0, 0]	n/a	FR1	3	R1066P
625.583	2.385	474709	WORD	n/a	wordpools/wordpool_EN.txt	SEAL	6	6	[0, 0, 0]	n/a	FR1	3	R1066P
627.968	2.633	475902	WORD	n/a	wordpools/wordpool_EN.txt	WEED	7	6	[0, 0, 0]	n/a	FR1	3	R1066P
630.601	2.518	477218	WORD	n/a	wordpools/wordpool_EN.txt	LOCK	8	6	[0, 0, 0]	n/a	FR1	3	R1066P
633.119	2.516	478477	WORD	n/a	wordpools/wordpool_EN.txt	WHEEL	9	6	[0, 0, 0]	n/a	FR1	3	R1066P
635.635	2.618	479735	WORD	n/a	wordpools/wordpool_EN.txt	FLEA	10	6	[0, 0, 0]	n/a	FR1	3	R1066P
638.253	2.534	481044	WORD	n/a	wordpools/wordpool_EN.txt	GATE	11	6	[0, 0, 0]	n/a	FR1	3	R1066P
640.787	1.617	482311	WORD	n/a	wordpools/wordpool_EN.txt	KEY	12	6	[0, 0, 0]	n/a	FR1	3	R1066P
642.404	0.001	483120	DISTRACT_START	n/a	n/a	n/a	-999	6	[0, 0, 0]	n/a	FR1	3	R1066P
642.405	0.016	483120	START	n/a	n/a	n/a	-999	6	[-999, -999, -999]	n/a	FR1	3	R1066P
642.421	3.283	483128	PROB	3.283	n/a	n/a	-999	6	[6, 8, 3]	17	FR1	3	R1066P
645.704	2.551	484769	PROB	2.551	n/a	n/a	-999	6	[9, 7, 8]	24	FR1	3	R1066P
648.255	2.801	486045	PROB	2.801	n/a	n/a	-999	6	[4, 3, 3]	10	FR1	3	R1066P
651.056	1.733	487445	PROB	1.733	n/a	n/a	-999	6	[1, 5, 2]	8	FR1	3	R1066P
652.789	1.501	488312	PROB	1.501	n/a	n/a	-999	6	[1, 2, 2]	5	FR1	3	R1066P
654.29	2.183	489062	PROB	2.183	n/a	n/a	-999	6	[9, 7, 9]	25	FR1	3	R1066P
656.473	2.2	490154	PROB	2.2	n/a	n/a	-999	6	[6, 5, 7]	18	FR1	3	R1066P
658.673	3.101	491254	PROB	3.101	n/a	n/a	-999	6	[1, 4, 5]	10	FR1	3	R1066P
661.774	2.105	492804	PROB	2.105	n/a	n/a	-999	6	[1, 4, 5]	10	FR1	3	R1066P
663.879	0.012	493856	STOP	n/a	n/a	n/a	-999	6	[-999, -999, -999]	n/a	FR1	3	R1066P
663.891	1.118	493862	DISTRACT_END	n/a	n/a	n/a	-999	6	[0, 0, 0]	n/a	FR1	3	R1066P
665.009	1.199	494421	REC_START	n/a	n/a	n/a	-999	6	[0, 0, 0]	n/a	FR1	3	R1066P
666.208	1.094	495021	REC_WORD	1.094	n/a	MOLE	1	6	[0, 0, 0]	n/a	FR1	3	R1066P
667.302	1.013	495568	REC_WORD	1.013	n/a	CAVE	3	6	[0, 0, 0]	n/a	FR1	3	R1066P
668.315	1.887	496074	REC_WORD	1.887	n/a	BEAR	4	6	[0, 0, 0]	n/a	FR1	3	R1066P
670.202	3.818	497018	REC_WORD	3.818	n/a	LOCK	8	6	[0, 0, 0]	n/a	FR1	3	R1066P
674.02	13.094	498927	REC_WORD_VV	13.094	n/a	<>	-999	6	[0, 0, 0]	n/a	FR1	3	R1066P
687.114	7.905	505473	REC_WORD	7.905	n/a	KEY	12	6	[0, 0, 0]	n/a	FR1	3	R1066P
695.019	4.879	509426	REC_END	n/a	n/a	n/a	-999	6	[0, 0, 0]	n/a	FR1	3	R1066P
699.898	0.0	511865	COUNTDOWN_START	n/a	n/a	n/a	-999	7	[0, 0, 0]	n/a	FR1	3	R1066P
699.898	10.428	511865	TRIAL	n/a	n/a	n/a	-999	7	[0, 0, 0]	n/a	FR1	3	R1066P
710.326	0.007	517079	COUNTDOWN_END	n/a	n/a	n/a	-999	7	[0, 0, 0]	n/a	FR1	3	R1066P
710.333	2.501	517082	ORIENT	n/a	n/a	n/a	-999	7	[0, 0, 0]	n/a	FR1	3	R1066P
712.834	2.467	518333	WORD	n/a	wordpools/wordpool_EN.txt	CORD	1	7	[0, 0, 0]	n/a	FR1	3	R1066P
715.301	2.584	519566	WORD	n/a	wordpools/wordpool_EN.txt	SHEEP	2	7	[0, 0, 0]	n/a	FR1	3	R1066P
717.885	2.617	520858	WORD	n/a	wordpools/wordpool_EN.txt	FILM	3	7	[0, 0, 0]	n/a	FR1	3	R1066P
720.502	2.484	522166	WORD	n/a	wordpools/wordpool_EN.txt	TOOTH	4	7	[0, 0, 0]	n/a	FR1	3	R1066P
722.986	2.467	523408	WORD	n/a	wordpools/wordpool_EN.txt	FORT	5	7	[0, 0, 0]	n/a	FR1	3	R1066P
725.453	2.55	524642	WORD	n/a	wordpools/wordpool_EN.txt	CASH	6	7	[0, 0, 0]	n/a	FR1	3	R1066P
728.003	2.567	525917	WORD	n/a	wordpools/wordpool_EN.txt	BEAN	7	7	[0, 0, 0]	n/a	FR1	3	R1066P
730.57	2.617	527200	WORD	n/a	wordpools/wordpool_EN.txt	SHARK	8	7	[0, 0, 0]	n/a	FR1	3	R1066P
733.187	2.417	528509	WORD	n/a	wordpools/wordpool_EN.txt	TOAD	9	7	[0, 0, 0]	n/a	FR1	3	R1066P
735.604	2.601	529717	WORD	n/a	wordpools/wordpool_EN.txt	BANK	10	7	[0, 0, 0]	n/a	FR1	3	R1066P
738.205	2.5	531018	WORD	n/a	wordpools/wordpool_EN.txt	BOOK	11	7	[0, 0, 0]	n/a	FR1	3	R1066P
740.705	1.618	532267	WORD	n/a	wordpools/wordpool_EN.txt	TEETH	12	7	[0, 0, 0]	n/a	FR1	3	R1066P
742.323	0.001	533076	DISTRACT_START	n/a	n/a	n/a	-999	7	[0, 0, 0]	n/a	FR1	3	R1066P
742.324	0.015	533077	START	n/a	n/a	n/a	-999	7	[-999, -999, -999]	n/a	FR1	3	R1066P
742.339	4.168	533084	PROB	4.168	n/a	n/a	-999	7	[9, 6, 8]	23	FR1	3	R1066P
746.507	2.334	535168	PROB	2.334	n/a	n/a	-999	7	[3, 9, 8]	20	FR1	3	R1066P
748.841	2.6	536335	PROB	2.6	n/a	n/a	-999	7	[3, 5, 3]	8	FR1	3	R1066P
751.441	2.017	537635	PROB	2.017	n/a	n/a	-999	7	[6, 5, 3]	14	FR1	3	R1066P
753.458	5.15	538644	PROB	5.15	n/a	n/a	-999	7	[3, 7, 1]	11	FR1	3	R1066P
758.608	2.318	541218	PROB	2.318	n/a	n/a	-999	7	[9, 5, 5]	19	FR1	3	R1066P
760.926	2.671	542377	PROB	2.671	n/a	n/a	-999	7	[5, 7, 3]	15	FR1	3	R1066P
763.597	0.012	543713	STOP	n/a	n/a	n/a	-999	7	[-999, -999, -999]	n/a	FR1	3	R1066P
763.609	1.169	543719	DISTRACT_END	n/a	n/a	n/a	-999	7	[0, 0, 0]	n/a	FR1	3	R1066P
764.778	0.552	544303	REC_START	n/a	n/a	n/a	-999	7	[0, 0, 0]	n/a	FR1	3	R1066P
765.33	1.119	544579	REC_WORD	1.119	n/a	SHARK	8	7	[0, 0, 0]	n/a	FR1	3	R1066P
766.449	0.969	545139	REC_WORD	0.969	n/a	TOOTH	4	7	[0, 0, 0]	n/a	FR1	3	R1066P
767.418	1.057	545623	REC_WORD	1.057	n/a	TEETH	12	7	[0, 0, 0]	n/a	FR1	3	R1066P
768.475	1.146	546152	REC_WORD	1.146	n/a	TOAD	9	7	[0, 0, 0]	n/a	FR1	3	R1066P
769.621	5.999	546725	REC_WORD	5.999	n/a	STAIR	-999	7	[0, 0, 0]	n/a	FR1	3	R1066P
775.62	0.442	549724	REC_WORD_VV	0.442	n/a	<>	-999	7	[0, 0, 0]	n/a	FR1	3	R1066P
776.062	18.727	549945	REC_WORD	18.727	n/a	TOAD	9	7	[0, 0, 0]	n/a	FR1	3	R1066P
794.789	1.11	559308	REC_END	n/a	n/a	n/a	-999	7	[0, 0, 0]	n/a	FR1	3	R1066P
795.899	0.001	559863	COUNTDOWN_START	n/a	n/a	n/a	-999	8	[0, 0, 0]	n/a	FR1	3	R1066P
795.9	10.427	559863	TRIAL	n/a	n/a	n/a	-999	8	[0, 0, 0]	n/a	FR1	3	R1066P
806.327	0.008	565077	COUNTDOWN_END	n/a	n/a	n/a	-999	8	[0, 0, 0]	n/a	FR1	3	R1066P
806.335	2.55	565081	ORIENT	n/a	n/a	n/a	-999	8	[0, 0, 0]	n/a	FR1	3	R1066P
808.885	2.434	566356	WORD	n/a	wordpools/wordpool_EN.txt	WALL	1	8	[0, 0, 0]	n/a	FR1	3	R1066P
811.319	2.617	567573	WORD	n/a	wordpools/wordpool_EN.txt	VEST	2	8	[0, 0, 0]	n/a	FR1	3	R1066P
813.936	2.601	568881	WORD	n/a	wordpools/wordpool_EN.txt	SLUSH	3	8	[0, 0, 0]	n/a	FR1	3	R1066P
816.537	2.533	570181	WORD	n/a	wordpools/wordpool_EN.txt	BOX	4	8	[0, 0, 0]	n/a	FR1	3	R1066P
819.07	2.401	571448	WORD	n/a	wordpools/wordpool_EN.txt	THREAD	5	8	[0, 0, 0]	n/a	FR1	3	R1066P
821.471	2.617	572648	WORD	n/a	wordpools/wordpool_EN.txt	PASTE	6	8	[0, 0, 0]	n/a	FR1	3	R1066P
824.088	2.384	573957	WORD	n/a	wordpools/wordpool_EN.txt	WOOD	7	8	[0, 0, 0]	n/a	FR1	3	R1066P
826.472	2.584	575149	WORD	n/a	wordpools/wordpool_EN.txt	PIN	8	8	[0, 0, 0]	n/a	FR1	3	R1066P
829.056	2.532	576441	WORD	n/a	wordpools/wordpool_EN.txt	SQUARE	9	8	[0, 0, 0]	n/a	FR1	3	R1066P
831.588	2.519	577707	WORD	n/a	wordpools/wordpool_EN.txt	DOCK	10	8	[0, 0, 0]	n/a	FR1	3	R1066P
834.107	2.499	578966	WORD	n/a	wordpools/wordpool_EN.txt	BOARD	11	8	[0, 0, 0]	n/a	FR1	3	R1066P
836.606	1.601	580215	WORD	n/a	wordpools/wordpool_EN.txt	YARD	12	8	[0, 0, 0]	n/a	FR1	3	R1066P
838.207	0.001	581016	DISTRACT_START	n/a	n/a	n/a	-999	8	[0, 0, 0]	n/a	FR1	3	R1066P
838.208	0.016	581016	START	n/a	n/a	n/a	-999	8	[-999, -999, -999]	n/a	FR1	3	R1066P
838.224	200.389	581024	PROB	200.389	n/a	n/a	-999	8	[7, 3, 4]	14	FR1	3	R1066P
1038.613	0.014	681214	STOP	n/a	n/a	n/a	-999	8	[-999, -999, -999]	n/a	FR1	3	R1066P
1038.627	1.034	681221	DISTRACT_END	n/a	n/a	n/a	-999	8	[0, 0, 0]	n/a	FR1	3	R1066P
1039.661	30.0	681738	REC_START	n/a	n/a	n/a	-999	8	[0, 0, 0]	n/a	FR1	3	R1066P
1069.661	0.013	696737	REC_WORD_VV	0.013	n/a	<>	-999	8	[0, 0, 0]	n/a	FR1	3	R1066P
1069.674	2.794	696743	REC_END	n/a	n/a	n/a	-999	8	[0, 0, 0]	n/a	FR1	3	R1066P
1072.468	0.0	698140	TRIAL	n/a	n/a	n/a	-999	9	[0, 0, 0]	n/a	FR1	3	R1066P
1072.468	10.428	698140	COUNTDOWN_START	n/a	n/a	n/a	-999	9	[0, 0, 0]	n/a	FR1	3	R1066P
1082.896	0.007	703354	COUNTDOWN_END	n/a	n/a	n/a	-999	9	[0, 0, 0]	n/a	FR1	3	R1066P
1082.903	2.534	703357	ORIENT	n/a	n/a	n/a	-999	9	[0, 0, 0]	n/a	FR1	3	R1066P
1085.437	2.617	704624	WORD	n/a	wordpools/wordpool_EN.txt	BRICK	1	9	[0, 0, 0]	n/a	FR1	3	R1066P
1088.054	2.533	705933	WORD	n/a	wordpools/wordpool_EN.txt	ROOM	2	9	[0, 0, 0]	n/a	FR1	3	R1066P
1090.587	2.468	707199	WORD	n/a	wordpools/wordpool_EN.txt	TIE	3	9	[0, 0, 0]	n/a	FR1	3	R1066P
1093.055	2.417	708433	WORD	n/a	wordpools/wordpool_EN.txt	SLIME	4	9	[0, 0, 0]	n/a	FR1	3	R1066P
1095.472	2.401	709642	WORD	n/a	wordpools/wordpool_EN.txt	DESK	5	9	[0, 0, 0]	n/a	FR1	3	R1066P
1097.873	2.617	710842	WORD	n/a	wordpools/wordpool_EN.txt	CHALK	6	9	[0, 0, 0]	n/a	FR1	3	R1066P
1100.49	2.467	712150	WORD	n/a	wordpools/wordpool_EN.txt	MAZE	7	9	[0, 0, 0]	n/a	FR1	3	R1066P
1102.957	2.467	713384	WORD	n/a	wordpools/wordpool_EN.txt	SCHOOL	8	9	[0, 0, 0]	n/a	FR1	3	R1066P
1105.424	2.517	714617	WORD	n/a	wordpools/wordpool_EN.txt	BAND	9	9	[0, 0, 0]	n/a	FR1	3	R1066P
1107.941	2.484	715876	WORD	n/a	wordpools/wordpool_EN.txt	FLAG	10	9	[0, 0, 0]	n/a	FR1	3	R1066P
1110.425	2.55	717118	WORD	n/a	wordpools/wordpool_EN.txt	FLOOR	11	9	[0, 0, 0]	n/a	FR1	3	R1066P
1112.975	1.616	718393	WORD	n/a	wordpools/wordpool_EN.txt	GLOVE	12	9	[0, 0, 0]	n/a	FR1	3	R1066P
1114.591	0.001	719201	DISTRACT_START	n/a	n/a	n/a	-999	9	[0, 0, 0]	n/a	FR1	3	R1066P
1114.592	0.016	719201	START	n/a	n/a	n/a	-999	9	[-999, -999, -999]	n/a	FR1	3	R1066P
1114.608	3.984	719209	PROB	3.984	n/a	n/a	-999	9	[9, 3, 2]	14	FR1	3	R1066P
1118.592	2.702	721201	PROB	2.702	n/a	n/a	-999	9	[6, 9, 3]	18	FR1	3	R1066P
1121.294	3.567	722552	PROB	3.567	n/a	n/a	-999	9	[5, 7, 4]	16	FR1	3	R1066P
1124.861	2.417	724335	PROB	2.417	n/a	n/a	-999	9	[1, 8, 9]	18	FR1	3	R1066P
1127.278	2.383	725544	PROB	2.383	n/a	n/a	-999	9	[7, 1, 3]	11	FR1	3	R1066P
1129.661	3.151	726735	PROB	3.151	n/a	n/a	-999	9	[6, 7, 8]	21	FR1	3	R1066P
1132.812	3.042	728311	PROB	3.042	n/a	n/a	-999	9	[3, 3, 7]	13	FR1	3	R1066P
1135.854	0.009	729832	STOP	n/a	n/a	n/a	-999	9	[-999, -999, -999]	n/a	FR1	3	R1066P
1135.863	1.034	729836	DISTRACT_END	n/a	n/a	n/a	-999	9	[0, 0, 0]	n/a	FR1	3	R1066P
1136.897	0.589	730353	REC_START	n/a	n/a	n/a	-999	9	[0, 0, 0]	n/a	FR1	3	R1066P
1137.486	1.139	730647	REC_WORD	1.139	n/a	SCHOOL	8	9	[0, 0, 0]	n/a	FR1	3	R1066P
1138.625	0.632	731217	REC_WORD	0.632	n/a	BAND	9	9	[0, 0, 0]	n/a	FR1	3	R1066P
1139.257	1.087	731533	REC_WORD	1.087	n/a	FLAG	10	9	[0, 0, 0]	n/a	FR1	3	R1066P
1140.344	0.811	732076	REC_WORD	0.811	n/a	GLOVE	12	9	[0, 0, 0]	n/a	FR1	3	R1066P
1141.155	1.893	732482	REC_WORD	1.893	n/a	FLOOR	11	9	[0, 0, 0]	n/a	FR1	3	R1066P
1143.048	3.614	733428	REC_WORD	3.614	n/a	BRICK	1	9	[0, 0, 0]	n/a	FR1	3	R1066P
1146.662	1.194	735235	REC_WORD	1.194	n/a	AXE	-999	9	[0, 0, 0]	n/a	FR1	3	R1066P
1147.856	19.058	735832	REC_WORD	19.058	n/a	HOUSE	-999	9	[0, 0, 0]	n/a	FR1	3	R1066P
1166.914	1.538	745361	REC_END	n/a	n/a	n/a	-999	9	[0, 0, 0]	n/a	FR1	3	R1066P
1168.452	0.001	746130	COUNTDOWN_START	n/a	n/a	n/a	-999	10	[0, 0, 0]	n/a	FR1	3	R1066P
1168.453	10.427	746130	TRIAL	n/a	n/a	n/a	-999	10	[0, 0, 0]	n/a	FR1	3	R1066P
1178.88	0.008	751343	COUNTDOWN_END	n/a	n/a	n/a	-999	10	[0, 0, 0]	n/a	FR1	3	R1066P
1178.888	2.617	751347	ORIENT	n/a	n/a	n/a	-999	10	[0, 0, 0]	n/a	FR1	3	R1066P
1181.505	2.617	752656	WORD	n/a	wordpools/wordpool_EN.txt	BOOT	1	10	[0, 0, 0]	n/a	FR1	3	R1066P
1184.122	2.466	753964	WORD	n/a	wordpools/wordpool_EN.txt	CROW	2	10	[0, 0, 0]	n/a	FR1	3	R1066P
1186.588	2.552	755197	WORD	n/a	wordpools/wordpool_EN.txt	CANE	3	10	[0, 0, 0]	n/a	FR1	3	R1066P
1189.14	2.499	756473	WORD	n/a	wordpools/wordpool_EN.txt	BOWL	4	10	[0, 0, 0]	n/a	FR1	3	R1066P
1191.639	2.602	757723	WORD	n/a	wordpools/wordpool_EN.txt	SPRING	5	10	[0, 0, 0]	n/a	FR1	3	R1066P
1194.241	2.533	759023	WORD	n/a	wordpools/wordpool_EN.txt	COW	6	10	[0, 0, 0]	n/a	FR1	3	R1066P
1196.774	2.551	760290	WORD	n/a	wordpools/wordpool_EN.txt	GRASS	7	10	[0, 0, 0]	n/a	FR1	3	R1066P
1199.325	2.467	761565	WORD	n/a	wordpools/wordpool_EN.txt	BROOM	8	10	[0, 0, 0]	n/a	FR1	3	R1066P
1201.792	2.584	762799	WORD	n/a	wordpools/wordpool_EN.txt	BUSH	9	10	[0, 0, 0]	n/a	FR1	3	R1066P
1204.376	2.417	764091	WORD	n/a	wordpools/wordpool_EN.txt	STOVE	10	10	[0, 0, 0]	n/a	FR1	3	R1066P
1206.793	2.534	765299	WORD	n/a	wordpools/wordpool_EN.txt	CUBE	11	10	[0, 0, 0]	n/a	FR1	3	R1066P
1209.327	1.617	766566	WORD	n/a	wordpools/wordpool_EN.txt	HEN	12	10	[0, 0, 0]	n/a	FR1	3	R1066P
1210.944	0.001	767375	DISTRACT_START	n/a	n/a	n/a	-999	10	[0, 0, 0]	n/a	FR1	3	R1066P
1210.945	0.015	767375	START	n/a	n/a	n/a	-999	10	[-999, -999, -999]	n/a	FR1	3	R1066P
1210.96	3.868	767383	PROB	3.868	n/a	n/a	-999	10	[8, 5, 4]	17	FR1	3	R1066P
1214.828	2.749	769316	PROB	2.749	n/a	n/a	-999	10	[4, 5, 8]	17	FR1	3	R1066P
1217.577	4.202	770691	PROB	4.202	n/a	n/a	-999	10	[5, 9, 4]	18	FR1	3	R1066P
1221.779	1.849	772792	PROB	1.849	n/a	n/a	-999	10	[9, 1, 5]	15	FR1	3	R1066P
1223.628	1.984	773716	PROB	1.984	n/a	n/a	-999	10	[5, 5, 6]	16	FR1	3	R1066P
1225.612	2.302	774708	PROB	2.302	n/a	n/a	-999	10	[6, 5, 2]	13	FR1	3	R1066P
1227.914	2.732	775859	PROB	2.732	n/a	n/a	-999	10	[5, 3, 3]	11	FR1	3	R1066P
1230.646	1.959	777225	PROB	1.959	n/a	n/a	-999	10	[4, 1, 2]	7	FR1	3	R1066P
1232.605	0.008	778204	STOP	n/a	n/a	n/a	-999	10	[-999, -999, -999]	n/a	FR1	3	R1066P
1232.613	1.051	778208	DISTRACT_END	n/a	n/a	n/a	-999	10	[0, 0, 0]	n/a	FR1	3	R1066P
1233.664	0.85	778734	REC_START	n/a	n/a	n/a	-999	10	[0, 0, 0]	n/a	FR1	3	R1066P
1234.514	0.78	779159	REC_WORD	0.78	n/a	BUSH	9	10	[0, 0, 0]	n/a	FR1	3	R1066P
1235.294	1.363	779549	REC_WORD	1.363	n/a	STOVE	10	10	[0, 0, 0]	n/a	FR1	3	R1066P
1236.657	1.39	780230	REC_WORD	1.39	n/a	CUBE	11	10	[0, 0, 0]	n/a	FR1	3	R1066P
1238.047	25.634	780925	REC_WORD	25.634	n/a	HEN	12	10	[0, 0, 0]	n/a	FR1	3	R1066P
1263.681	0.856	793742	REC_END	n/a	n/a	n/a	-999	10	[0, 0, 0]	n/a	FR1	3	R1066P
1264.537	0.0	794170	TRIAL	n/a	n/a	n/a	-999	11	[0, 0, 0]	n/a	FR1	3	R1066P
1264.537	10.428	794170	COUNTDOWN_START	n/a	n/a	n/a	-999	11	[0, 0, 0]	n/a	FR1	3	R1066P
1274.965	0.007	799383	COUNTDOWN_END	n/a	n/a	n/a	-999	11	[0, 0, 0]	n/a	FR1	3	R1066P
1274.972	2.501	799387	ORIENT	n/a	n/a	n/a	-999	11	[0, 0, 0]	n/a	FR1	3	R1066P
1277.473	2.617	800637	WORD	n/a	wordpools/wordpool_EN.txt	WEB	1	11	[0, 0, 0]	n/a	FR1	3	R1066P
1280.09	2.533	801946	WORD	n/a	wordpools/wordpool_EN.txt	SHOE	2	11	[0, 0, 0]	n/a	FR1	3	R1066P
1282.623	2.551	803212	WORD	n/a	wordpools/wordpool_EN.txt	WHALE	3	11	[0, 0, 0]	n/a	FR1	3	R1066P
1285.174	2.399	804488	WORD	n/a	wordpools/wordpool_EN.txt	TENT	4	11	[0, 0, 0]	n/a	FR1	3	R1066P
1287.573	2.502	805687	WORD	n/a	wordpools/wordpool_EN.txt	FUR	5	11	[0, 0, 0]	n/a	FR1	3	R1066P
1290.075	2.434	806938	WORD	n/a	wordpools/wordpool_EN.txt	STOOL	6	11	[0, 0, 0]	n/a	FR1	3	R1066P
1292.509	2.451	808155	WORD	n/a	wordpools/wordpool_EN.txt	PANTS	7	11	[0, 0, 0]	n/a	FR1	3	R1066P
1294.96	2.417	809380	WORD	n/a	wordpools/wordpool_EN.txt	TOE	8	11	[0, 0, 0]	n/a	FR1	3	R1066P
1297.377	2.45	810589	WORD	n/a	wordpools/wordpool_EN.txt	GOAT	9	11	[0, 0, 0]	n/a	FR1	3	R1066P
1299.827	2.6	811814	WORD	n/a	wordpools/wordpool_EN.txt	ROOF	10	11	[0, 0, 0]	n/a	FR1	3	R1066P
1302.427	2.551	813114	WORD	n/a	wordpools/wordpool_EN.txt	FAN	11	11	[0, 0, 0]	n/a	FR1	3	R1066P
1304.978	1.616	814389	WORD	n/a	wordpools/wordpool_EN.txt	FACE	12	11	[0, 0, 0]	n/a	FR1	3	R1066P
1306.594	0.001	815197	DISTRACT_START	n/a	n/a	n/a	-999	11	[0, 0, 0]	n/a	FR1	3	R1066P
1306.595	0.016	815198	START	n/a	n/a	n/a	-999	11	[-999, -999, -999]	n/a	FR1	3	R1066P
1306.611	2.634	815206	PROB	2.634	n/a	n/a	-999	11	[5, 2, 7]	14	FR1	3	R1066P
1309.245	4.901	816522	PROB	4.901	n/a	n/a	-999	11	[9, 8, 9]	26	FR1	3	R1066P
1314.146	2.051	818973	PROB	2.051	n/a	n/a	-999	11	[9, 3, 8]	20	FR1	3	R1066P
1316.197	2.483	819998	PROB	2.483	n/a	n/a	-999	11	[3, 2, 8]	13	FR1	3	R1066P
1318.68	2.184	821240	PROB	2.184	n/a	n/a	-999	11	[4, 8, 7]	19	FR1	3	R1066P
1320.864	2.151	822332	PROB	2.151	n/a	n/a	-999	11	[2, 5, 9]	16	FR1	3	R1066P
1323.015	1.933	823407	PROB	1.933	n/a	n/a	-999	11	[7, 3, 3]	13	FR1	3	R1066P
1324.948	2.395	824374	PROB	2.395	n/a	n/a	-999	11	[8, 9, 7]	24	FR1	3	R1066P
1327.343	0.006	825571	STOP	n/a	n/a	n/a	-999	11	[-999, -999, -999]	n/a	FR1	3	R1066P
1327.349	1.101	825574	DISTRACT_END	n/a	n/a	n/a	-999	11	[0, 0, 0]	n/a	FR1	3	R1066P
1328.45	0.512	826124	REC_START	n/a	n/a	n/a	-999	11	[0, 0, 0]	n/a	FR1	3	R1066P
1328.962	0.953	826380	REC_WORD	0.953	n/a	PANTS	7	11	[0, 0, 0]	n/a	FR1	3	R1066P
1329.915	1.029	826857	REC_WORD	1.029	n/a	STOVE	-999	11	[0, 0, 0]	n/a	FR1	3	R1066P
1330.944	0.421	827371	REC_WORD	0.421	n/a	GOAT	9	11	[0, 0, 0]	n/a	FR1	3	R1066P
1331.365	2.003	827582	REC_WORD	2.003	n/a	FACE	12	11	[0, 0, 0]	n/a	FR1	3	R1066P
1333.368	19.855	828583	REC_WORD	19.855	n/a	RUG	-999	11	[0, 0, 0]	n/a	FR1	3	R1066P
1353.223	5.239	838510	REC_WORD_VV	5.239	n/a	<>	-999	11	[0, 0, 0]	n/a	FR1	3	R1066P
1358.462	2.743	841130	REC_END	n/a	n/a	n/a	-999	11	[0, 0, 0]	n/a	FR1	3	R1066P
1361.205	0.0	842501	TRIAL	n/a	n/a	n/a	-999	12	[0, 0, 0]	n/a	FR1	3	R1066P
1361.205	10.428	842501	COUNTDOWN_START	n/a	n/a	n/a	-999	12	[0, 0, 0]	n/a	FR1	3	R1066P
1371.633	0.006	847715	COUNTDOWN_END	n/a	n/a	n/a	-999	12	[0, 0, 0]	n/a	FR1	3	R1066P
1371.639	2.519	847718	ORIENT	n/a	n/a	n/a	-999	12	[0, 0, 0]	n/a	FR1	3	R1066P
1374.158	2.516	848977	WORD	n/a	wordpools/wordpool_EN.txt	STICK	1	12	[0, 0, 0]	n/a	FR1	3	R1066P
1376.674	2.435	850235	WORD	n/a	wordpools/wordpool_EN.txt	MUG	2	12	[0, 0, 0]	n/a	FR1	3	R1066P
1379.109	2.549	851453	WORD	n/a	wordpools/wordpool_EN.txt	FOOT	3	12	[0, 0, 0]	n/a	FR1	3	R1066P
1381.658	2.401	852727	WORD	n/a	wordpools/wordpool_EN.txt	CHEEK	4	12	[0, 0, 0]	n/a	FR1	3	R1066P
1384.059	2.451	853927	WORD	n/a	wordpools/wordpool_EN.txt	RUG	5	12	[0, 0, 0]	n/a	FR1	3	R1066P
1386.51	2.434	855153	WORD	n/a	wordpools/wordpool_EN.txt	DOOR	6	12	[0, 0, 0]	n/a	FR1	3	R1066P
1388.944	2.433	856370	WORD	n/a	wordpools/wordpool_EN.txt	THUMB	7	12	[0, 0, 0]	n/a	FR1	3	R1066P
1391.377	2.451	857586	WORD	n/a	wordpools/wordpool_EN.txt	EEL	8	12	[0, 0, 0]	n/a	FR1	3	R1066P
1393.828	2.517	858812	WORD	n/a	wordpools/wordpool_EN.txt	CHIN	9	12	[0, 0, 0]	n/a	FR1	3	R1066P
1396.345	2.484	860070	WORD	n/a	wordpools/wordpool_EN.txt	LIP	10	12	[0, 0, 0]	n/a	FR1	3	R1066P
1398.829	2.534	861312	WORD	n/a	wordpools/wordpool_EN.txt	SIGN	11	12	[0, 0, 0]	n/a	FR1	3	R1066P
1401.363	1.617	862579	WORD	n/a	wordpools/wordpool_EN.txt	BED	12	12	[0, 0, 0]	n/a	FR1	3	R1066P
1402.98	0.0	863387	DISTRACT_START	n/a	n/a	n/a	-999	12	[0, 0, 0]	n/a	FR1	3	R1066P
1402.98	0.016	863387	START	n/a	n/a	n/a	-999	12	[-999, -999, -999]	n/a	FR1	3	R1066P
1402.996	2.818	863395	PROB	2.818	n/a	n/a	-999	12	[7, 3, 8]	18	FR1	3	R1066P
1405.814	3.6	864804	PROB	3.6	n/a	n/a	-999	12	[5, 8, 6]	19	FR1	3	R1066P
1409.414	6.317	866604	PROB	6.317	n/a	n/a	-999	12	[8, 6, 9]	23	FR1	3	R1066P
1415.731	2.202	869763	PROB	2.202	n/a	n/a	-999	12	[7, 1, 5]	14	FR1	3	R1066P
1417.933	2.567	870864	PROB	2.567	n/a	n/a	-999	12	[3, 4, 8]	15	FR1	3	R1066P
1420.5	2.367	872147	PROB	2.367	n/a	n/a	-999	12	[2, 4, 9]	15	FR1	3	R1066P
1422.867	2.1	873330	PROB	2.1	n/a	n/a	-999	12	[9, 8, 2]	19	FR1	3	R1066P
1424.967	0.017	874380	STOP	n/a	n/a	n/a	-999	12	[-999, -999, -999]	n/a	FR1	3	R1066P
1424.984	1.184	874389	DISTRACT_END	n/a	n/a	n/a	-999	12	[0, 0, 0]	n/a	FR1	3	R1066P
1426.168	1.138	874981	REC_START	n/a	n/a	n/a	-999	12	[0, 0, 0]	n/a	FR1	3	R1066P
1427.306	2.186	875550	REC_WORD	2.186	n/a	RUG	5	12	[0, 0, 0]	n/a	FR1	3	R1066P
1429.492	3.049	876643	REC_WORD	3.049	n/a	DOOR	6	12	[0, 0, 0]	n/a	FR1	3	R1066P
1432.541	5.512	878167	REC_WORD_VV	5.512	n/a	<>	-999	12	[0, 0, 0]	n/a	FR1	3	R1066P
1438.053	1.254	880923	REC_WORD_VV	1.254	n/a	<>	-999	12	[0, 0, 0]	n/a	FR1	3	R1066P
1439.307	2.252	881550	REC_WORD_VV	2.252	n/a	<>	-999	12	[0, 0, 0]	n/a	FR1	3	R1066P
1441.559	1.367	882676	REC_WORD_VV	1.367	n/a	<>	-999	12	[0, 0, 0]	n/a	FR1	3	R1066P
1442.926	2.887	883359	REC_WORD_VV	2.887	n/a	<>	-999	12	[0, 0, 0]	n/a	FR1	3	R1066P
1445.813	1.44	884803	REC_WORD_VV	1.44	n/a	<>	-999	12	[0, 0, 0]	n/a	FR1	3	R1066P
1447.253	1.277	885523	REC_WORD_VV	1.277	n/a	<>	-999	12	[0, 0, 0]	n/a	FR1	3	R1066P
1448.53	1.231	886161	REC_WORD_VV	1.231	n/a	<>	-999	12	[0, 0, 0]	n/a	FR1	3	R1066P
1449.761	1.254	886777	REC_WORD_VV	1.254	n/a	<>	-999	12	[0, 0, 0]	n/a	FR1	3	R1066P
1451.015	5.166	887404	REC_WORD_VV	5.166	n/a	<>	-999	12	[0, 0, 0]	n/a	FR1	3	R1066P
1456.181	521.756	889987	REC_END	n/a	n/a	n/a	-999	12	[0, 0, 0]	n/a	FR1	3	R1066P
1977.937	0.0	1150851	TRIAL	n/a	n/a	n/a	-999	13	[0, 0, 0]	n/a	FR1	3	R1066P
1977.937	10.428	1150851	COUNTDOWN_START	n/a	n/a	n/a	-999	13	[0, 0, 0]	n/a	FR1	3	R1066P
1988.365	0.007	1156065	COUNTDOWN_END	n/a	n/a	n/a	-999	13	[0, 0, 0]	n/a	FR1	3	R1066P
1988.372	2.618	1156068	ORIENT	n/a	n/a	n/a	-999	13	[0, 0, 0]	n/a	FR1	3	R1066P
1990.99	2.467	1157377	WORD	n/a	wordpools/wordpool_EN.txt	HOUSE	1	13	[0, 0, 0]	n/a	FR1	3	R1066P
1993.457	2.45	1158610	WORD	n/a	wordpools/wordpool_EN.txt	HAWK	2	13	[0, 0, 0]	n/a	FR1	3	R1066P
1995.907	2.551	1159835	WORD	n/a	wordpools/wordpool_EN.txt	WAND	3	13	[0, 0, 0]	n/a	FR1	3	R1066P
1998.458	2.583	1161111	WORD	n/a	wordpools/wordpool_EN.txt	GEESE	4	13	[0, 0, 0]	n/a	FR1	3	R1066P
2001.041	2.567	1162402	WORD	n/a	wordpools/wordpool_EN.txt	STAR	5	13	[0, 0, 0]	n/a	FR1	3	R1066P
2003.608	2.568	1163686	WORD	n/a	wordpools/wordpool_EN.txt	CLOUD	6	13	[0, 0, 0]	n/a	FR1	3	R1066P
2006.176	2.483	1164970	WORD	n/a	wordpools/wordpool_EN.txt	PEARL	7	13	[0, 0, 0]	n/a	FR1	3	R1066P
2008.659	2.584	1166211	WORD	n/a	wordpools/wordpool_EN.txt	SWORD	8	13	[0, 0, 0]	n/a	FR1	3	R1066P
2011.243	2.601	1167503	WORD	n/a	wordpools/wordpool_EN.txt	STAIR	9	13	[0, 0, 0]	n/a	FR1	3	R1066P
2013.844	2.534	1168803	WORD	n/a	wordpools/wordpool_EN.txt	GOLD	10	13	[0, 0, 0]	n/a	FR1	3	R1066P
2016.378	2.533	1170070	WORD	n/a	wordpools/wordpool_EN.txt	ROAD	11	13	[0, 0, 0]	n/a	FR1	3	R1066P
2018.911	1.617	1171337	WORD	n/a	wordpools/wordpool_EN.txt	BRIDGE	12	13	[0, 0, 0]	n/a	FR1	3	R1066P
2020.528	0.001	1172145	DISTRACT_START	n/a	n/a	n/a	-999	13	[0, 0, 0]	n/a	FR1	3	R1066P
2020.529	0.015	1172146	START	n/a	n/a	n/a	-999	13	[-999, -999, -999]	n/a	FR1	3	R1066P
2020.544	2.685	1172153	PROB	2.685	n/a	n/a	-999	13	[2, 8, 7]	17	FR1	3	R1066P
2023.229	2.567	1173496	PROB	2.567	n/a	n/a	-999	13	[8, 7, 3]	18	FR1	3	R1066P
2025.796	1.933	1174779	PROB	1.933	n/a	n/a	-999	13	[2, 6, 4]	12	FR1	3	R1066P
2027.729	2.184	1175745	PROB	2.184	n/a	n/a	-999	13	[8, 7, 9]	24	FR1	3	R1066P
2029.913	2.733	1176837	PROB	2.733	n/a	n/a	-999	13	[6, 9, 5]	20	FR1	3	R1066P
2032.646	4.302	1178204	PROB	4.302	n/a	n/a	-999	13	[6, 9, 4]	19	FR1	3	R1066P
2036.948	3.251	1180355	PROB	3.251	n/a	n/a	-999	13	[3, 6, 1]	10	FR1	3	R1066P
2040.199	2.463	1181980	PROB	2.463	n/a	n/a	-999	13	[7, 9, 3]	19	FR1	3	R1066P
2042.662	0.02	1183212	STOP	n/a	n/a	n/a	-999	13	[-999, -999, -999]	n/a	FR1	3	R1066P
2042.682	1.168	1183222	DISTRACT_END	n/a	n/a	n/a	-999	13	[0, 0, 0]	n/a	FR1	3	R1066P
2043.85	0.338	1183806	REC_START	n/a	n/a	n/a	-999	13	[0, 0, 0]	n/a	FR1	3	R1066P
2044.188	0.976	1183975	REC_WORD	0.976	n/a	STAR	5	13	[0, 0, 0]	n/a	FR1	3	R1066P
2045.164	1.07	1184463	REC_WORD	1.07	n/a	CLOUD	6	13	[0, 0, 0]	n/a	FR1	3	R1066P
2046.234	0.823	1184997	REC_WORD	0.823	n/a	GEESE	4	13	[0, 0, 0]	n/a	FR1	3	R1066P
2047.057	1.371	1185409	REC_WORD	1.371	n/a	HAWK	2	13	[0, 0, 0]	n/a	FR1	3	R1066P
2048.428	25.435	1186094	REC_WORD	25.435	n/a	SWORD	8	13	[0, 0, 0]	n/a	FR1	3	R1066P
2073.863	2.142	1198811	REC_END	n/a	n/a	n/a	-999	13	[0, 0, 0]	n/a	FR1	3	R1066P
2076.005	0.001	1199882	COUNTDOWN_START	n/a	n/a	n/a	-999	14	[0, 0, 0]	n/a	FR1	3	R1066P
2076.006	10.427	1199883	TRIAL	n/a	n/a	n/a	-999	14	[0, 0, 0]	n/a	FR1	3	R1066P
2086.433	0.008	1205096	COUNTDOWN_END	n/a	n/a	n/a	-999	14	[0, 0, 0]	n/a	FR1	3	R1066P
2086.441	2.55	1205100	ORIENT	n/a	n/a	n/a	-999	14	[0, 0, 0]	n/a	FR1	3	R1066P
2088.991	2.417	1206375	WORD	n/a	wordpools/wordpool_EN.txt	PEAR	1	14	[0, 0, 0]	n/a	FR1	3	R1066P
2091.408	2.534	1207583	WORD	n/a	wordpools/wordpool_EN.txt	POND	2	14	[0, 0, 0]	n/a	FR1	3	R1066P
2093.942	2.417	1208850	WORD	n/a	wordpools/wordpool_EN.txt	GLASS	3	14	[0, 0, 0]	n/a	FR1	3	R1066P
2096.359	2.401	1210059	WORD	n/a	wordpools/wordpool_EN.txt	SOAP	4	14	[0, 0, 0]	n/a	FR1	3	R1066P
2098.76	2.517	1211259	WORD	n/a	wordpools/wordpool_EN.txt	SPOON	5	14	[0, 0, 0]	n/a	FR1	3	R1066P
2101.277	2.534	1212518	WORD	n/a	wordpools/wordpool_EN.txt	SPONGE	6	14	[0, 0, 0]	n/a	FR1	3	R1066P
2103.811	2.4	1213784	WORD	n/a	wordpools/wordpool_EN.txt	GRAPE	7	14	[0, 0, 0]	n/a	FR1	3	R1066P
2106.211	2.416	1214984	WORD	n/a	wordpools/wordpool_EN.txt	SHRIMP	8	14	[0, 0, 0]	n/a	FR1	3	R1066P
2108.627	2.385	1216192	WORD	n/a	wordpools/wordpool_EN.txt	WORM	9	14	[0, 0, 0]	n/a	FR1	3	R1066P
2111.012	2.467	1217385	WORD	n/a	wordpools/wordpool_EN.txt	JAR	10	14	[0, 0, 0]	n/a	FR1	3	R1066P
2113.479	2.484	1218618	WORD	n/a	wordpools/wordpool_EN.txt	WORLD	11	14	[0, 0, 0]	n/a	FR1	3	R1066P
2115.963	1.616	1219860	WORD	n/a	wordpools/wordpool_EN.txt	PEACH	12	14	[0, 0, 0]	n/a	FR1	3	R1066P
2117.579	0.001	1220668	DISTRACT_START	n/a	n/a	n/a	-999	14	[0, 0, 0]	n/a	FR1	3	R1066P
2117.58	0.016	1220669	START	n/a	n/a	n/a	-999	14	[-999, -999, -999]	n/a	FR1	3	R1066P
2117.596	2.718	1220677	PROB	2.718	n/a	n/a	-999	14	[4, 4, 7]	15	FR1	3	R1066P
2120.314	1.967	1222036	PROB	1.967	n/a	n/a	-999	14	[1, 3, 2]	6	FR1	3	R1066P
2122.281	1.667	1223019	PROB	1.667	n/a	n/a	-999	14	[1, 1, 5]	7	FR1	3	R1066P
2123.948	3.0	1223852	PROB	3.0	n/a	n/a	-999	14	[9, 5, 8]	23	FR1	3	R1066P
2126.948	2.251	1225352	PROB	2.251	n/a	n/a	-999	14	[8, 6, 1]	15	FR1	3	R1066P
2129.199	2.884	1226478	PROB	2.884	n/a	n/a	-999	14	[8, 6, 4]	18	FR1	3	R1066P
2132.083	3.734	1227920	PROB	3.734	n/a	n/a	-999	14	[3, 4, 6]	13	FR1	3	R1066P
2135.817	3.334	1229787	PROB	3.334	n/a	n/a	-999	14	[2, 7, 3]	12	FR1	3	R1066P
2139.151	0.016	1231454	STOP	n/a	n/a	n/a	-999	14	[-999, -999, -999]	n/a	FR1	3	R1066P
2139.167	1.068	1231462	DISTRACT_END	n/a	n/a	n/a	-999	14	[0, 0, 0]	n/a	FR1	3	R1066P
2140.235	0.613	1231996	REC_START	n/a	n/a	n/a	-999	14	[0, 0, 0]	n/a	FR1	3	R1066P
2140.848	1.261	1232302	REC_WORD	1.261	n/a	SHRIMP	8	14	[0, 0, 0]	n/a	FR1	3	R1066P
2142.109	0.996	1232932	REC_WORD	0.996	n/a	WORM	9	14	[0, 0, 0]	n/a	FR1	3	R1066P
2143.105	1.254	1233430	REC_WORD	1.254	n/a	JAR	10	14	[0, 0, 0]	n/a	FR1	3	R1066P
2144.359	5.153	1234057	REC_WORD	5.153	n/a	PEACH	12	14	[0, 0, 0]	n/a	FR1	3	R1066P
2149.512	20.736	1236634	REC_WORD	20.736	n/a	ROOM	-999	14	[0, 0, 0]	n/a	FR1	3	R1066P
2170.248	1.058	1247001	REC_END	n/a	n/a	n/a	-999	14	[0, 0, 0]	n/a	FR1	3	R1066P
2171.306	0.001	1247530	COUNTDOWN_START	n/a	n/a	n/a	-999	15	[0, 0, 0]	n/a	FR1	3	R1066P
2171.307	10.427	1247531	TRIAL	n/a	n/a	n/a	-999	15	[0, 0, 0]	n/a	FR1	3	R1066P
2181.734	0.007	1252744	COUNTDOWN_END	n/a	n/a	n/a	-999	15	[0, 0, 0]	n/a	FR1	3	R1066P
2181.741	2.385	1252747	ORIENT	n/a	n/a	n/a	-999	15	[0, 0, 0]	n/a	FR1	3	R1066P
2184.126	2.4	1253940	WORD	n/a	wordpools/wordpool_EN.txt	CLOTH	1	15	[0, 0, 0]	n/a	FR1	3	R1066P
2186.526	2.634	1255140	WORD	n/a	wordpools/wordpool_EN.txt	ZOO	2	15	[0, 0, 0]	n/a	FR1	3	R1066P
2189.16	2.516	1256457	WORD	n/a	wordpools/wordpool_EN.txt	GUARD	3	15	[0, 0, 0]	n/a	FR1	3	R1066P
2191.676	2.568	1257715	WORD	n/a	wordpools/wordpool_EN.txt	DEER	4	15	[0, 0, 0]	n/a	FR1	3	R1066P
2194.244	2.534	1258999	WORD	n/a	wordpools/wordpool_EN.txt	INK	5	15	[0, 0, 0]	n/a	FR1	3	R1066P
2196.778	2.617	1260266	WORD	n/a	wordpools/wordpool_EN.txt	MAIL	6	15	[0, 0, 0]	n/a	FR1	3	R1066P
2199.395	2.384	1261574	WORD	n/a	wordpools/wordpool_EN.txt	FOAM	7	15	[0, 0, 0]	n/a	FR1	3	R1066P
2201.779	2.55	1262766	WORD	n/a	wordpools/wordpool_EN.txt	PIT	8	15	[0, 0, 0]	n/a	FR1	3	R1066P
2204.329	2.4	1264041	WORD	n/a	wordpools/wordpool_EN.txt	BADGE	9	15	[0, 0, 0]	n/a	FR1	3	R1066P
2206.729	2.451	1265241	WORD	n/a	wordpools/wordpool_EN.txt	CAGE	10	15	[0, 0, 0]	n/a	FR1	3	R1066P
2209.18	2.433	1266466	WORD	n/a	wordpools/wordpool_EN.txt	BEAK	11	15	[0, 0, 0]	n/a	FR1	3	R1066P
2211.613	1.601	1267683	WORD	n/a	wordpools/wordpool_EN.txt	SHEET	12	15	[0, 0, 0]	n/a	FR1	3	R1066P
2213.214	0.001	1268483	DISTRACT_START	n/a	n/a	n/a	-999	15	[0, 0, 0]	n/a	FR1	3	R1066P
2213.215	0.016	1268484	START	n/a	n/a	n/a	-999	15	[-999, -999, -999]	n/a	FR1	3	R1066P
2213.231	4.251	1268492	PROB	4.251	n/a	n/a	-999	15	[7, 7, 8]	22	FR1	3	R1066P
2217.482	2.367	1270617	PROB	2.367	n/a	n/a	-999	15	[5, 4, 6]	15	FR1	3	R1066P
2219.849	3.184	1271800	PROB	3.184	n/a	n/a	-999	15	[6, 8, 7]	21	FR1	3	R1066P
2223.033	1.699	1273392	PROB	1.699	n/a	n/a	-999	15	[2, 1, 4]	7	FR1	3	R1066P
2224.732	3.102	1274242	PROB	3.102	n/a	n/a	-999	15	[8, 4, 7]	17	FR1	3	R1066P
2227.834	3.467	1275793	PROB	3.467	n/a	n/a	-999	15	[8, 5, 9]	22	FR1	3	R1066P
2231.301	2.234	1277526	PROB	2.234	n/a	n/a	-999	15	[2, 1, 7]	10	FR1	3	R1066P
2233.535	0.016	1278643	STOP	n/a	n/a	n/a	-999	15	[-999, -999, -999]	n/a	FR1	3	R1066P
2233.551	1.201	1278651	DISTRACT_END	n/a	n/a	n/a	-999	15	[0, 0, 0]	n/a	FR1	3	R1066P
2234.752	0.886	1279252	REC_START	n/a	n/a	n/a	-999	15	[0, 0, 0]	n/a	FR1	3	R1066P
2235.638	0.776	1279694	REC_WORD	0.776	n/a	INK	5	15	[0, 0, 0]	n/a	FR1	3	R1066P
2236.414	0.734	1280082	REC_WORD	0.734	n/a	MAIL	6	15	[0, 0, 0]	n/a	FR1	3	R1066P
2237.148	1.278	1280449	REC_WORD	1.278	n/a	FOAM	7	15	[0, 0, 0]	n/a	FR1	3	R1066P
2238.426	0.977	1281088	REC_WORD	0.977	n/a	PIT	8	15	[0, 0, 0]	n/a	FR1	3	R1066P
2239.403	1.512	1281577	REC_WORD	1.512	n/a	BEAK	11	15	[0, 0, 0]	n/a	FR1	3	R1066P
2240.915	23.855	1282333	REC_WORD	23.855	n/a	ZOO	2	15	[0, 0, 0]	n/a	FR1	3	R1066P
2264.77	5.322	1294260	REC_END	n/a	n/a	n/a	-999	15	[0, 0, 0]	n/a	FR1	3	R1066P
2270.092	0.0	1296921	TRIAL	n/a	n/a	n/a	-999	16	[0, 0, 0]	n/a	FR1	3	R1066P
2270.092	10.428	1296921	COUNTDOWN_START	n/a	n/a	n/a	-999	16	[0, 0, 0]	n/a	FR1	3	R1066P
2280.52	0.007	1302134	COUNTDOWN_END	n/a	n/a	n/a	-999	16	[0, 0, 0]	n/a	FR1	3	R1066P
2280.527	2.567	1302138	ORIENT	n/a	n/a	n/a	-999	16	[0, 0, 0]	n/a	FR1	3	R1066P
2283.094	2.401	1303421	WORD	n/a	wordpools/wordpool_EN.txt	HOOK	1	16	[0, 0, 0]	n/a	FR1	3	R1066P
2285.495	2.6	1304622	WORD	n/a	wordpools/wordpool_EN.txt	POOL	2	16	[0, 0, 0]	n/a	FR1	3	R1066P
2288.095	2.5	1305922	WORD	n/a	wordpools/wordpool_EN.txt	MOUSE	3	16	[0, 0, 0]	n/a	FR1	3	R1066P
2290.595	2.401	1307172	WORD	n/a	wordpools/wordpool_EN.txt	MAT	4	16	[0, 0, 0]	n/a	FR1	3	R1066P
2292.996	2.616	1308372	WORD	n/a	wordpools/wordpool_EN.txt	PET	5	16	[0, 0, 0]	n/a	FR1	3	R1066P
2295.612	2.402	1309680	WORD	n/a	wordpools/wordpool_EN.txt	BALL	6	16	[0, 0, 0]	n/a	FR1	3	R1066P
2298.014	2.5	1310881	WORD	n/a	wordpools/wordpool_EN.txt	TOY	7	16	[0, 0, 0]	n/a	FR1	3	R1066P
2300.514	2.517	1312131	WORD	n/a	wordpools/wordpool_EN.txt	FLAME	8	16	[0, 0, 0]	n/a	FR1	3	R1066P
2303.031	2.501	1313389	WORD	n/a	wordpools/wordpool_EN.txt	DOLL	9	16	[0, 0, 0]	n/a	FR1	3	R1066P
2305.532	2.5	1314640	WORD	n/a	wordpools/wordpool_EN.txt	CAT	10	16	[0, 0, 0]	n/a	FR1	3	R1066P
2308.032	2.484	1315890	WORD	n/a	wordpools/wordpool_EN.txt	NAIL	11	16	[0, 0, 0]	n/a	FR1	3	R1066P
2310.516	1.617	1317132	WORD	n/a	wordpools/wordpool_EN.txt	FISH	12	16	[0, 0, 0]	n/a	FR1	3	R1066P
2312.133	0.001	1317940	DISTRACT_START	n/a	n/a	n/a	-999	16	[0, 0, 0]	n/a	FR1	3	R1066P
2312.134	0.016	1317940	START	n/a	n/a	n/a	-999	16	[-999, -999, -999]	n/a	FR1	3	R1066P
2312.15	2.416	1317948	PROB	2.416	n/a	n/a	-999	16	[7, 5, 2]	14	FR1	3	R1066P
2314.566	1.451	1319156	PROB	1.451	n/a	n/a	-999	16	[1, 1, 5]	7	FR1	3	R1066P
2316.017	2.984	1319882	PROB	2.984	n/a	n/a	-999	16	[7, 7, 3]	17	FR1	3	R1066P
2319.001	2.9	1321374	PROB	2.9	n/a	n/a	-999	16	[5, 9, 4]	18	FR1	3	R1066P
2321.901	3.168	1322824	PROB	3.168	n/a	n/a	-999	16	[4, 1, 3]	8	FR1	3	R1066P
2325.069	2.283	1324408	PROB	2.283	n/a	n/a	-999	16	[6, 1, 9]	16	FR1	3	R1066P
2327.352	2.984	1325549	PROB	2.984	n/a	n/a	-999	16	[6, 7, 3]	16	FR1	3	R1066P
2330.336	2.325	1327041	PROB	2.325	n/a	n/a	-999	16	[5, 4, 2]	11	FR1	3	R1066P
2332.661	0.008	1328203	STOP	n/a	n/a	n/a	-999	16	[-999, -999, -999]	n/a	FR1	3	R1066P
2332.669	1.034	1328207	DISTRACT_END	n/a	n/a	n/a	-999	16	[0, 0, 0]	n/a	FR1	3	R1066P
2333.703	0.762	1328724	REC_START	n/a	n/a	n/a	-999	16	[0, 0, 0]	n/a	FR1	3	R1066P
2334.465	1.179	1329105	REC_WORD	1.179	n/a	TOY	7	16	[0, 0, 0]	n/a	FR1	3	R1066P
2335.644	0.845	1329695	REC_WORD	0.845	n/a	DOLL	9	16	[0, 0, 0]	n/a	FR1	3	R1066P
2336.489	1.015	1330117	REC_WORD	1.015	n/a	HOUSE	-999	16	[0, 0, 0]	n/a	FR1	3	R1066P
2337.504	0.987	1330625	REC_WORD	0.987	n/a	POOL	2	16	[0, 0, 0]	n/a	FR1	3	R1066P
2338.491	1.114	1331118	REC_WORD	1.114	n/a	RAT	-999	16	[0, 0, 0]	n/a	FR1	3	R1066P
2339.605	1.31	1331675	REC_WORD	1.31	n/a	MOUSE	3	16	[0, 0, 0]	n/a	FR1	3	R1066P
2340.915	1.95	1332330	REC_WORD	1.95	n/a	HOOK	1	16	[0, 0, 0]	n/a	FR1	3	R1066P
2342.865	20.851	1333305	REC_WORD	20.851	n/a	CAT	10	16	[0, 0, 0]	n/a	FR1	3	R1066P
2363.716	1.71	1343730	REC_END	n/a	n/a	n/a	-999	16	[0, 0, 0]	n/a	FR1	3	R1066P
2365.426	0.0	1344585	TRIAL	n/a	n/a	n/a	-999	17	[0, 0, 0]	n/a	FR1	3	R1066P
2365.426	10.428	1344585	COUNTDOWN_START	n/a	n/a	n/a	-999	17	[0, 0, 0]	n/a	FR1	3	R1066P
2375.854	0.008	1349799	COUNTDOWN_END	n/a	n/a	n/a	-999	17	[0, 0, 0]	n/a	FR1	3	R1066P
2375.862	2.4	1349803	ORIENT	n/a	n/a	n/a	-999	17	[0, 0, 0]	n/a	FR1	3	R1066P
2378.262	2.617	1351003	WORD	n/a	wordpools/wordpool_EN.txt	STREET	1	17	[0, 0, 0]	n/a	FR1	3	R1066P
2380.879	2.551	1352311	WORD	n/a	wordpools/wordpool_EN.txt	PARK	2	17	[0, 0, 0]	n/a	FR1	3	R1066P
2383.43	2.383	1353587	WORD	n/a	wordpools/wordpool_EN.txt	CLOWN	3	17	[0, 0, 0]	n/a	FR1	3	R1066P
2385.813	2.534	1354778	WORD	n/a	wordpools/wordpool_EN.txt	TREE	4	17	[0, 0, 0]	n/a	FR1	3	R1066P
2388.347	2.534	1356045	WORD	n/a	wordpools/wordpool_EN.txt	BLOOM	5	17	[0, 0, 0]	n/a	FR1	3	R1066P
2390.881	2.5	1357312	WORD	n/a	wordpools/wordpool_EN.txt	VASE	6	17	[0, 0, 0]	n/a	FR1	3	R1066P
2393.381	2.584	1358562	WORD	n/a	wordpools/wordpool_EN.txt	HILL	7	17	[0, 0, 0]	n/a	FR1	3	R1066P
2395.965	2.568	1359854	WORD	n/a	wordpools/wordpool_EN.txt	PIE	8	17	[0, 0, 0]	n/a	FR1	3	R1066P
2398.533	2.433	1361138	WORD	n/a	wordpools/wordpool_EN.txt	BEE	9	17	[0, 0, 0]	n/a	FR1	3	R1066P
2400.966	2.451	1362354	WORD	n/a	wordpools/wordpool_EN.txt	JUICE	10	17	[0, 0, 0]	n/a	FR1	3	R1066P
2403.417	2.617	1363580	WORD	n/a	wordpools/wordpool_EN.txt	ELF	11	17	[0, 0, 0]	n/a	FR1	3	R1066P
2406.034	1.616	1364888	WORD	n/a	wordpools/wordpool_EN.txt	BREAD	12	17	[0, 0, 0]	n/a	FR1	3	R1066P
2407.65	0.0	1365696	DISTRACT_START	n/a	n/a	n/a	-999	17	[0, 0, 0]	n/a	FR1	3	R1066P
2407.65	0.017	1365696	START	n/a	n/a	n/a	-999	17	[-999, -999, -999]	n/a	FR1	3	R1066P
2407.667	3.135	1365704	PROB	3.135	n/a	n/a	-999	17	[3, 1, 4]	8	FR1	3	R1066P
2410.802	3.183	1367272	PROB	3.183	n/a	n/a	-999	17	[3, 8, 5]	16	FR1	3	R1066P
2413.985	1.75	1368863	PROB	1.75	n/a	n/a	-999	17	[3, 2, 1]	6	FR1	3	R1066P
2415.735	2.734	1369738	PROB	2.734	n/a	n/a	-999	17	[3, 6, 1]	10	FR1	3	R1066P
2418.469	2.451	1371105	PROB	2.451	n/a	n/a	-999	17	[3, 5, 1]	9	FR1	3	R1066P
2420.92	1.95	1372331	PROB	1.95	n/a	n/a	-999	17	[1, 6, 8]	15	FR1	3	R1066P
2422.87	3.068	1373306	PROB	3.068	n/a	n/a	-999	17	[4, 5, 4]	13	FR1	3	R1066P
2425.938	2.38	1374839	PROB	2.38	n/a	n/a	-999	17	[6, 2, 4]	12	FR1	3	R1066P
2428.318	0.003	1376029	STOP	n/a	n/a	n/a	-999	17	[-999, -999, -999]	n/a	FR1	3	R1066P
2428.321	1.151	1376031	DISTRACT_END	n/a	n/a	n/a	-999	17	[0, 0, 0]	n/a	FR1	3	R1066P
2429.472	0.822	1376606	REC_START	n/a	n/a	n/a	-999	17	[0, 0, 0]	n/a	FR1	3	R1066P
2430.294	0.558	1377017	REC_WORD_VV	0.558	n/a	<>	-999	17	[0, 0, 0]	n/a	FR1	3	R1066P
2430.852	1.081	1377296	REC_WORD	1.081	n/a	ELF	11	17	[0, 0, 0]	n/a	FR1	3	R1066P
2431.933	1.254	1377837	REC_WORD	1.254	n/a	PARK	2	17	[0, 0, 0]	n/a	FR1	3	R1066P
2433.187	1.671	1378464	REC_WORD	1.671	n/a	CROWN	-999	17	[0, 0, 0]	n/a	FR1	3	R1066P
2434.858	3.818	1379299	REC_WORD	3.818	n/a	STREET	1	17	[0, 0, 0]	n/a	FR1	3	R1066P
2438.676	0.663	1381208	REC_WORD_VV	0.663	n/a	<>	-999	17	[0, 0, 0]	n/a	FR1	3	R1066P
2439.339	10.994	1381540	REC_WORD	10.994	n/a	BLOOM	5	17	[0, 0, 0]	n/a	FR1	3	R1066P
2450.333	5.864	1387036	REC_WORD	5.864	n/a	VASE	6	17	[0, 0, 0]	n/a	FR1	3	R1066P
2456.197	3.293	1389968	REC_WORD	3.293	n/a	PARK	2	17	[0, 0, 0]	n/a	FR1	3	R1066P
2459.49	2.854	1391615	REC_END	n/a	n/a	n/a	-999	17	[0, 0, 0]	n/a	FR1	3	R1066P
2462.344	0.001	1393042	COUNTDOWN_START	n/a	n/a	n/a	-999	18	[0, 0, 0]	n/a	FR1	3	R1066P
2462.345	10.427	1393042	TRIAL	n/a	n/a	n/a	-999	18	[0, 0, 0]	n/a	FR1	3	R1066P
2472.772	0.008	1398255	COUNTDOWN_END	n/a	n/a	n/a	-999	18	[0, 0, 0]	n/a	FR1	3	R1066P
2472.78	2.617	1398259	ORIENT	n/a	n/a	n/a	-999	18	[0, 0, 0]	n/a	FR1	3	R1066P
2475.397	2.534	1399568	WORD	n/a	wordpools/wordpool_EN.txt	BAT	1	18	[0, 0, 0]	n/a	FR1	3	R1066P
2477.931	2.467	1400835	WORD	n/a	wordpools/wordpool_EN.txt	MOTH	2	18	[0, 0, 0]	n/a	FR1	3	R1066P
2480.398	2.534	1402068	WORD	n/a	wordpools/wordpool_EN.txt	STEM	3	18	[0, 0, 0]	n/a	FR1	3	R1066P
2482.932	2.567	1403335	WORD	n/a	wordpools/wordpool_EN.txt	STORE	4	18	[0, 0, 0]	n/a	FR1	3	R1066P
2485.499	2.484	1404618	WORD	n/a	wordpools/wordpool_EN.txt	CAPE	5	18	[0, 0, 0]	n/a	FR1	3	R1066P
2487.983	2.45	1405860	WORD	n/a	wordpools/wordpool_EN.txt	FOG	6	18	[0, 0, 0]	n/a	FR1	3	R1066P
2490.433	2.434	1407085	WORD	n/a	wordpools/wordpool_EN.txt	PLANT	7	18	[0, 0, 0]	n/a	FR1	3	R1066P
2492.867	2.584	1408302	WORD	n/a	wordpools/wordpool_EN.txt	HOOF	8	18	[0, 0, 0]	n/a	FR1	3	R1066P
2495.451	2.6	1409594	WORD	n/a	wordpools/wordpool_EN.txt	MOON	9	18	[0, 0, 0]	n/a	FR1	3	R1066P
2498.051	2.434	1410894	WORD	n/a	wordpools/wordpool_EN.txt	BIRD	10	18	[0, 0, 0]	n/a	FR1	3	R1066P
2500.485	2.534	1412111	WORD	n/a	wordpools/wordpool_EN.txt	WING	11	18	[0, 0, 0]	n/a	FR1	3	R1066P
2503.019	1.616	1413378	WORD	n/a	wordpools/wordpool_EN.txt	ANT	12	18	[0, 0, 0]	n/a	FR1	3	R1066P
2504.635	0.001	1414186	DISTRACT_START	n/a	n/a	n/a	-999	18	[0, 0, 0]	n/a	FR1	3	R1066P
2504.636	0.015	1414186	START	n/a	n/a	n/a	-999	18	[-999, -999, -999]	n/a	FR1	3	R1066P
2504.651	6.386	1414194	PROB	6.386	n/a	n/a	-999	18	[5, 6, 6]	17	FR1	3	R1066P
2511.037	2.1	1417387	PROB	2.1	n/a	n/a	-999	18	[2, 9, 7]	18	FR1	3	R1066P
2513.137	2.251	1418437	PROB	2.251	n/a	n/a	-999	18	[4, 7, 7]	18	FR1	3	R1066P
2515.388	1.983	1419562	PROB	1.983	n/a	n/a	-999	18	[5, 3, 5]	13	FR1	3	R1066P
2517.371	1.901	1420554	PROB	1.901	n/a	n/a	-999	18	[9, 7, 5]	21	FR1	3	R1066P
2519.272	2.117	1421504	PROB	2.117	n/a	n/a	-999	18	[5, 9, 9]	23	FR1	3	R1066P
2521.389	2.1	1422562	PROB	2.1	n/a	n/a	-999	18	[1, 2, 6]	9	FR1	3	R1066P
2523.489	1.934	1423612	PROB	1.934	n/a	n/a	-999	18	[4, 6, 5]	15	FR1	3	R1066P
2525.423	0.017	1424579	STOP	n/a	n/a	n/a	-999	18	[-999, -999, -999]	n/a	FR1	3	R1066P
2525.44	1.166	1424588	DISTRACT_END	n/a	n/a	n/a	-999	18	[0, 0, 0]	n/a	FR1	3	R1066P
2526.606	0.597	1425171	REC_START	n/a	n/a	n/a	-999	18	[0, 0, 0]	n/a	FR1	3	R1066P
2527.203	0.245	1425469	REC_WORD_VV	0.245	n/a	<>	-999	18	[0, 0, 0]	n/a	FR1	3	R1066P
2527.448	0.991	1425592	REC_WORD	0.991	n/a	MOON	9	18	[0, 0, 0]	n/a	FR1	3	R1066P
2528.439	0.759	1426087	REC_WORD	0.759	n/a	BIRD	10	18	[0, 0, 0]	n/a	FR1	3	R1066P
2529.198	2.003	1426467	REC_WORD	2.003	n/a	WING	11	18	[0, 0, 0]	n/a	FR1	3	R1066P
2531.201	0.644	1427468	REC_WORD	0.644	n/a	BAT	1	18	[0, 0, 0]	n/a	FR1	3	R1066P
2531.845	7.617	1427790	REC_WORD	7.617	n/a	MOTH	2	18	[0, 0, 0]	n/a	FR1	3	R1066P
2539.462	3.173	1431598	REC_WORD	3.173	n/a	CAPE	5	18	[0, 0, 0]	n/a	FR1	3	R1066P
2542.635	13.982	1433185	REC_WORD	13.982	n/a	BIRD	10	18	[0, 0, 0]	n/a	FR1	3	R1066P
2556.617	0.912	1440176	REC_END	n/a	n/a	n/a	-999	18	[0, 0, 0]	n/a	FR1	3	R1066P
2557.529	0.0	1440631	TRIAL	n/a	n/a	n/a	-999	19	[0, 0, 0]	n/a	FR1	3	R1066P
2557.529	10.428	1440631	COUNTDOWN_START	n/a	n/a	n/a	-999	19	[0, 0, 0]	n/a	FR1	3	R1066P
2567.957	0.007	1445845	COUNTDOWN_END	n/a	n/a	n/a	-999	19	[0, 0, 0]	n/a	FR1	3	R1066P
2567.964	2.551	1445849	ORIENT	n/a	n/a	n/a	-999	19	[0, 0, 0]	n/a	FR1	3	R1066P
2570.515	2.617	1447124	WORD	n/a	wordpools/wordpool_EN.txt	JET	1	19	[0, 0, 0]	n/a	FR1	3	R1066P
2573.132	2.4	1448433	WORD	n/a	wordpools/wordpool_EN.txt	SAIL	2	19	[0, 0, 0]	n/a	FR1	3	R1066P
2575.532	2.417	1449633	WORD	n/a	wordpools/wordpool_EN.txt	CLOCK	3	19	[0, 0, 0]	n/a	FR1	3	R1066P
2577.949	2.551	1450841	WORD	n/a	wordpools/wordpool_EN.txt	SPARK	4	19	[0, 0, 0]	n/a	FR1	3	R1066P
2580.5	2.434	1452116	WORD	n/a	wordpools/wordpool_EN.txt	EAR	5	19	[0, 0, 0]	n/a	FR1	3	R1066P
2582.934	2.5	1453333	WORD	n/a	wordpools/wordpool_EN.txt	SHIP	6	19	[0, 0, 0]	n/a	FR1	3	R1066P
2585.434	2.417	1454583	WORD	n/a	wordpools/wordpool_EN.txt	BLUSH	7	19	[0, 0, 0]	n/a	FR1	3	R1066P
2587.851	2.534	1455792	WORD	n/a	wordpools/wordpool_EN.txt	PLANE	8	19	[0, 0, 0]	n/a	FR1	3	R1066P
2590.385	2.6	1457059	WORD	n/a	wordpools/wordpool_EN.txt	LAMP	9	19	[0, 0, 0]	n/a	FR1	3	R1066P
2592.985	2.418	1458359	WORD	n/a	wordpools/wordpool_EN.txt	PHONE	10	19	[0, 0, 0]	n/a	FR1	3	R1066P
2595.403	2.5	1459567	WORD	n/a	wordpools/wordpool_EN.txt	CAR	11	19	[0, 0, 0]	n/a	FR1	3	R1066P
2597.903	1.617	1460817	WORD	n/a	wordpools/wordpool_EN.txt	DOG	12	19	[0, 0, 0]	n/a	FR1	3	R1066P
2599.52	0.001	1461626	DISTRACT_START	n/a	n/a	n/a	-999	19	[0, 0, 0]	n/a	FR1	3	R1066P
2599.521	0.016	1461626	START	n/a	n/a	n/a	-999	19	[-999, -999, -999]	n/a	FR1	3	R1066P
2599.537	4.334	1461634	PROB	4.334	n/a	n/a	-999	19	[6, 8, 1]	15	FR1	3	R1066P
2603.871	2.217	1463801	PROB	2.217	n/a	n/a	-999	19	[2, 1, 7]	10	FR1	3	R1066P
2606.088	3.151	1464910	PROB	3.151	n/a	n/a	-999	19	[4, 3, 6]	13	FR1	3	R1066P
2609.239	2.533	1466485	PROB	2.533	n/a	n/a	-999	19	[6, 1, 5]	13	FR1	3	R1066P
2611.772	1.883	1467752	PROB	1.883	n/a	n/a	-999	19	[7, 3, 5]	15	FR1	3	R1066P
2613.655	1.967	1468693	PROB	1.967	n/a	n/a	-999	19	[4, 1, 6]	14	FR1	3	R1066P
2615.622	3.435	1469676	PROB	3.435	n/a	n/a	-999	19	[7, 9, 1]	17	FR1	3	R1066P
2619.057	3.565	1471394	PROB	3.565	n/a	n/a	-999	19	[8, 4, 9]	21	FR1	3	R1066P
2622.622	0.018	1473176	STOP	n/a	n/a	n/a	-999	19	[-999, -999, -999]	n/a	FR1	3	R1066P
2622.64	1.152	1473185	DISTRACT_END	n/a	n/a	n/a	-999	19	[0, 0, 0]	n/a	FR1	3	R1066P
2623.792	1.049	1473761	REC_START	n/a	n/a	n/a	-999	19	[0, 0, 0]	n/a	FR1	3	R1066P
2624.841	0.837	1474286	REC_WORD	0.837	n/a	CAR	11	19	[0, 0, 0]	n/a	FR1	3	R1066P
2625.678	2.309	1474704	REC_WORD	2.309	n/a	PHONE	10	19	[0, 0, 0]	n/a	FR1	3	R1066P
2627.987	25.818	1475859	REC_WORD	25.818	n/a	DOG	12	19	[0, 0, 0]	n/a	FR1	3	R1066P
2653.805	5.326	1488767	REC_END	n/a	n/a	n/a	-999	19	[0, 0, 0]	n/a	FR1	3	R1066P
2659.131	0.0	1491430	COUNTDOWN_START	n/a	n/a	n/a	-999	20	[0, 0, 0]	n/a	FR1	3	R1066P
2659.131	10.428	1491430	TRIAL	n/a	n/a	n/a	-999	20	[0, 0, 0]	n/a	FR1	3	R1066P
2669.559	0.007	1496644	COUNTDOWN_END	n/a	n/a	n/a	-999	20	[0, 0, 0]	n/a	FR1	3	R1066P
2669.566	2.418	1496647	ORIENT	n/a	n/a	n/a	-999	20	[0, 0, 0]	n/a	FR1	3	R1066P
2671.984	2.45	1497856	WORD	n/a	wordpools/wordpool_EN.txt	ROPE	1	20	[0, 0, 0]	n/a	FR1	3	R1066P
2674.434	2.467	1499081	WORD	n/a	wordpools/wordpool_EN.txt	NET	2	20	[0, 0, 0]	n/a	FR1	3	R1066P
2676.901	2.484	1500314	WORD	n/a	wordpools/wordpool_EN.txt	FUDGE	3	20	[0, 0, 0]	n/a	FR1	3	R1066P
2679.385	2.417	1501556	WORD	n/a	wordpools/wordpool_EN.txt	FOX	4	20	[0, 0, 0]	n/a	FR1	3	R1066P
2681.802	2.517	1502765	WORD	n/a	wordpools/wordpool_EN.txt	SUN	5	20	[0, 0, 0]	n/a	FR1	3	R1066P
2684.319	2.551	1504023	WORD	n/a	wordpools/wordpool_EN.txt	SOUP	6	20	[0, 0, 0]	n/a	FR1	3	R1066P
2686.87	2.5	1505299	WORD	n/a	wordpools/wordpool_EN.txt	VINE	7	20	[0, 0, 0]	n/a	FR1	3	R1066P
2689.37	2.501	1506549	WORD	n/a	wordpools/wordpool_EN.txt	SKY	8	20	[0, 0, 0]	n/a	FR1	3	R1066P
2691.871	2.55	1507799	WORD	n/a	wordpools/wordpool_EN.txt	FRUIT	9	20	[0, 0, 0]	n/a	FR1	3	R1066P
2694.421	2.434	1509074	WORD	n/a	wordpools/wordpool_EN.txt	BRANCH	10	20	[0, 0, 0]	n/a	FR1	3	R1066P
2696.855	2.384	1510291	WORD	n/a	wordpools/wordpool_EN.txt	STORM	11	20	[0, 0, 0]	n/a	FR1	3	R1066P
2699.239	1.617	1511483	WORD	n/a	wordpools/wordpool_EN.txt	BOAT	12	20	[0, 0, 0]	n/a	FR1	3	R1066P
2700.856	0.001	1512291	DISTRACT_START	n/a	n/a	n/a	-999	20	[0, 0, 0]	n/a	FR1	3	R1066P
2700.857	0.015	1512292	START	n/a	n/a	n/a	-999	20	[-999, -999, -999]	n/a	FR1	3	R1066P
2700.872	3.7	1512299	PROB	3.7	n/a	n/a	-999	20	[7, 4, 8]	19	FR1	3	R1066P
2704.572	2.452	1514149	PROB	2.452	n/a	n/a	-999	20	[9, 3, 7]	19	FR1	3	R1066P
2707.024	2.067	1515375	PROB	2.067	n/a	n/a	-999	20	[6, 4, 8]	18	FR1	3	R1066P
2709.091	2.45	1516408	PROB	2.45	n/a	n/a	-999	20	[5, 7, 5]	17	FR1	3	R1066P
2711.541	3.934	1517633	PROB	3.934	n/a	n/a	-999	20	[5, 8, 9]	22	FR1	3	R1066P
2715.475	3.133	1519600	PROB	3.133	n/a	n/a	-999	20	[2, 4, 1]	7	FR1	3	R1066P
2718.608	2.687	1521167	PROB	2.687	n/a	n/a	-999	20	[3, 5, 8]	16	FR1	3	R1066P
2721.295	0.015	1522510	STOP	n/a	n/a	n/a	-999	20	[-999, -999, -999]	n/a	FR1	3	R1066P
2721.31	1.201	1522518	DISTRACT_END	n/a	n/a	n/a	-999	20	[0, 0, 0]	n/a	FR1	3	R1066P
2722.511	0.582	1523118	REC_START	n/a	n/a	n/a	-999	20	[0, 0, 0]	n/a	FR1	3	R1066P
2723.093	0.19	1523409	REC_WORD_VV	0.19	n/a	<>	-999	20	[0, 0, 0]	n/a	FR1	3	R1066P
2723.283	1.112	1523504	REC_WORD	1.112	n/a	FOX	4	20	[0, 0, 0]	n/a	FR1	3	R1066P
2724.395	0.643	1524060	REC_WORD	0.643	n/a	ROPE	1	20	[0, 0, 0]	n/a	FR1	3	R1066P
2725.038	4.276	1524382	REC_WORD	4.276	n/a	NET	2	20	[0, 0, 0]	n/a	FR1	3	R1066P
2729.314	8.915	1526519	REC_WORD_VV	8.915	n/a	<>	-999	20	[0, 0, 0]	n/a	FR1	3	R1066P
2738.229	2.552	1530977	REC_WORD_VV	2.552	n/a	<>	-999	20	[0, 0, 0]	n/a	FR1	3	R1066P
2740.781	1.184	1532253	REC_WORD_VV	1.184	n/a	<>	-999	20	[0, 0, 0]	n/a	FR1	3	R1066P
2741.965	1.231	1532845	REC_WORD_VV	1.231	n/a	<>	-999	20	[0, 0, 0]	n/a	FR1	3	R1066P
2743.196	5.114	1533460	REC_WORD_VV	5.114	n/a	<>	-999	20	[0, 0, 0]	n/a	FR1	3	R1066P
2748.31	1.089	1536017	REC_WORD_VV	1.089	n/a	<>	-999	20	[0, 0, 0]	n/a	FR1	3	R1066P
2749.399	1.995	1536561	REC_WORD_VV	1.995	n/a	<>	-999	20	[0, 0, 0]	n/a	FR1	3	R1066P
2751.394	1.129	1537559	REC_WORD_VV	1.129	n/a	<>	-999	20	[0, 0, 0]	n/a	FR1	3	R1066P
2752.523	24.747	1538123	REC_END	n/a	n/a	n/a	-999	20	[0, 0, 0]	n/a	FR1	3	R1066P
2777.27	0.0	1550496	TRIAL	n/a	n/a	n/a	-999	21	[0, 0, 0]	n/a	FR1	3	R1066P
2777.27	10.428	1550496	COUNTDOWN_START	n/a	n/a	n/a	-999	21	[0, 0, 0]	n/a	FR1	3	R1066P
2787.698	0.006	1555710	COUNTDOWN_END	n/a	n/a	n/a	-999	21	[0, 0, 0]	n/a	FR1	3	R1066P
2787.704	2.385	1555713	ORIENT	n/a	n/a	n/a	-999	21	[0, 0, 0]	n/a	FR1	3	R1066P
2790.089	2.583	1556905	WORD	n/a	wordpools/wordpool_EN.txt	STRING	1	21	[0, 0, 0]	n/a	FR1	3	R1066P
2792.672	2.518	1558197	WORD	n/a	wordpools/wordpool_EN.txt	VAN	2	21	[0, 0, 0]	n/a	FR1	3	R1066P
2795.19	2.4	1559456	WORD	n/a	wordpools/wordpool_EN.txt	CART	3	21	[0, 0, 0]	n/a	FR1	3	R1066P
2797.59	2.418	1560656	WORD	n/a	wordpools/wordpool_EN.txt	CLIFF	4	21	[0, 0, 0]	n/a	FR1	3	R1066P
2800.008	2.417	1561865	WORD	n/a	wordpools/wordpool_EN.txt	LEG	5	21	[0, 0, 0]	n/a	FR1	3	R1066P
2802.425	2.617	1563073	WORD	n/a	wordpools/wordpool_EN.txt	TOOL	6	21	[0, 0, 0]	n/a	FR1	3	R1066P
2805.042	2.4	1564381	WORD	n/a	wordpools/wordpool_EN.txt	SKI	7	21	[0, 0, 0]	n/a	FR1	3	R1066P
2807.442	2.568	1565581	WORD	n/a	wordpools/wordpool_EN.txt	SPEAR	8	21	[0, 0, 0]	n/a	FR1	3	R1066P
2810.01	2.616	1566865	WORD	n/a	wordpools/wordpool_EN.txt	CRANE	9	21	[0, 0, 0]	n/a	FR1	3	R1066P
2812.626	2.468	1568173	WORD	n/a	wordpools/wordpool_EN.txt	WAVE	10	21	[0, 0, 0]	n/a	FR1	3	R1066P
2815.094	2.549	1569407	WORD	n/a	wordpools/wordpool_EN.txt	RIB	11	21	[0, 0, 0]	n/a	FR1	3	R1066P
2817.643	1.601	1570682	WORD	n/a	wordpools/wordpool_EN.txt	TRUCK	12	21	[0, 0, 0]	n/a	FR1	3	R1066P
2819.244	0.001	1571482	DISTRACT_START	n/a	n/a	n/a	-999	21	[0, 0, 0]	n/a	FR1	3	R1066P
2819.245	0.016	1571483	START	n/a	n/a	n/a	-999	21	[-999, -999, -999]	n/a	FR1	3	R1066P
2819.261	2.767	1571491	PROB	2.767	n/a	n/a	-999	21	[6, 8, 6]	20	FR1	3	R1066P
2822.028	2.533	1572874	PROB	2.533	n/a	n/a	-999	21	[2, 9, 7]	18	FR1	3	R1066P
2824.561	3.735	1574140	PROB	3.735	n/a	n/a	-999	21	[7, 2, 4]	13	FR1	3	R1066P
2828.296	4.551	1576008	PROB	4.551	n/a	n/a	-999	21	[3, 6, 8]	17	FR1	3	R1066P
2832.847	1.684	1578283	PROB	1.684	n/a	n/a	-999	21	[6, 1, 7]	14	FR1	3	R1066P
2834.531	1.783	1579125	PROB	1.783	n/a	n/a	-999	21	[8, 9, 4]	21	FR1	3	R1066P
2836.314	3.116	1580017	PROB	3.116	n/a	n/a	-999	21	[7, 6, 5]	18	FR1	3	R1066P
2839.43	0.018	1581575	STOP	n/a	n/a	n/a	-999	21	[-999, -999, -999]	n/a	FR1	3	R1066P
2839.448	1.051	1581584	DISTRACT_END	n/a	n/a	n/a	-999	21	[0, 0, 0]	n/a	FR1	3	R1066P
2840.499	0.575	1582109	REC_START	n/a	n/a	n/a	-999	21	[0, 0, 0]	n/a	FR1	3	R1066P
2841.074	0.843	1582397	REC_WORD	0.843	n/a	STRING	1	21	[0, 0, 0]	n/a	FR1	3	R1066P
2841.917	0.831	1582818	REC_WORD	0.831	n/a	VAN	2	21	[0, 0, 0]	n/a	FR1	3	R1066P
2842.748	27.779	1583233	REC_WORD	27.779	n/a	CART	3	21	[0, 0, 0]	n/a	FR1	3	R1066P
2870.527	2.344	1597122	REC_END	n/a	n/a	n/a	-999	21	[0, 0, 0]	n/a	FR1	3	R1066P
2872.871	0.001	1598294	COUNTDOWN_START	n/a	n/a	n/a	-999	22	[0, 0, 0]	n/a	FR1	3	R1066P
2872.872	10.427	1598295	TRIAL	n/a	n/a	n/a	-999	22	[0, 0, 0]	n/a	FR1	3	R1066P
2883.299	0.008	1603508	COUNTDOWN_END	n/a	n/a	n/a	-999	22	[0, 0, 0]	n/a	FR1	3	R1066P
2883.307	2.617	1603512	ORIENT	n/a	n/a	n/a	-999	22	[0, 0, 0]	n/a	FR1	3	R1066P
2885.924	2.633	1604820	WORD	n/a	wordpools/wordpool_EN.txt	MILK	1	22	[0, 0, 0]	n/a	FR1	3	R1066P
2888.557	2.518	1606137	WORD	n/a	wordpools/wordpool_EN.txt	DIME	2	22	[0, 0, 0]	n/a	FR1	3	R1066P
2891.075	2.599	1607396	WORD	n/a	wordpools/wordpool_EN.txt	FOOD	3	22	[0, 0, 0]	n/a	FR1	3	R1066P
2893.674	2.602	1608695	WORD	n/a	wordpools/wordpool_EN.txt	OAR	4	22	[0, 0, 0]	n/a	FR1	3	R1066P
2896.276	2.617	1609996	WORD	n/a	wordpools/wordpool_EN.txt	HEART	5	22	[0, 0, 0]	n/a	FR1	3	R1066P
2898.893	2.467	1611304	WORD	n/a	wordpools/wordpool_EN.txt	CROWN	6	22	[0, 0, 0]	n/a	FR1	3	R1066P
2901.36	2.383	1612538	WORD	n/a	wordpools/wordpool_EN.txt	STEAK	7	22	[0, 0, 0]	n/a	FR1	3	R1066P
2903.743	2.485	1613729	WORD	n/a	wordpools/wordpool_EN.txt	TRAIN	8	22	[0, 0, 0]	n/a	FR1	3	R1066P
2906.228	2.533	1614972	WORD	n/a	wordpools/wordpool_EN.txt	LAMB	9	22	[0, 0, 0]	n/a	FR1	3	R1066P
2908.761	2.434	1616238	WORD	n/a	wordpools/wordpool_EN.txt	SMOKE	10	22	[0, 0, 0]	n/a	FR1	3	R1066P
2911.195	2.383	1617455	WORD	n/a	wordpools/wordpool_EN.txt	EGG	11	22	[0, 0, 0]	n/a	FR1	3	R1066P
2913.578	1.601	1618647	WORD	n/a	wordpools/wordpool_EN.txt	PLATE	12	22	[0, 0, 0]	n/a	FR1	3	R1066P
2915.179	0.001	1619447	DISTRACT_START	n/a	n/a	n/a	-999	22	[0, 0, 0]	n/a	FR1	3	R1066P
2915.18	0.016	1619448	START	n/a	n/a	n/a	-999	22	[-999, -999, -999]	n/a	FR1	3	R1066P
2915.196	2.449	1619456	PROB	2.449	n/a	n/a	-999	22	[9, 9, 8]	25	FR1	3	R1066P
2917.645	3.034	1620680	PROB	3.034	n/a	n/a	-999	22	[1, 4, 8]	13	FR1	3	R1066P
2920.679	2.535	1622197	PROB	2.535	n/a	n/a	-999	22	[8, 3, 6]	16	FR1	3	R1066P
2923.214	3.901	1623464	PROB	3.901	n/a	n/a	-999	22	[9, 7, 5]	21	FR1	3	R1066P
2927.115	1.784	1625415	PROB	1.784	n/a	n/a	-999	22	[3, 7, 5]	15	FR1	3	R1066P
2928.899	1.867	1626307	PROB	1.867	n/a	n/a	-999	22	[4, 1, 8]	13	FR1	3	R1066P
2930.766	1.683	1627240	PROB	1.683	n/a	n/a	-999	22	[3, 7, 2]	12	FR1	3	R1066P
2932.449	2.484	1628082	PROB	2.484	n/a	n/a	-999	22	[5, 2, 8]	15	FR1	3	R1066P
2934.933	3.346	1629324	PROB	3.346	n/a	n/a	-999	22	[4, 3, 3]	10	FR1	3	R1066P
2938.279	0.004	1630996	STOP	n/a	n/a	n/a	-999	22	[-999, -999, -999]	n/a	FR1	3	R1066P
2938.283	1.135	1630998	DISTRACT_END	n/a	n/a	n/a	-999	22	[0, 0, 0]	n/a	FR1	3	R1066P
2939.418	0.659	1631566	REC_START	n/a	n/a	n/a	-999	22	[0, 0, 0]	n/a	FR1	3	R1066P
2940.077	1.242	1631895	REC_WORD	1.242	n/a	STEAK	7	22	[0, 0, 0]	n/a	FR1	3	R1066P
2941.319	0.97	1632516	REC_WORD	0.97	n/a	EGG	11	22	[0, 0, 0]	n/a	FR1	3	R1066P
2942.289	1.458	1633001	REC_WORD	1.458	n/a	CROWN	6	22	[0, 0, 0]	n/a	FR1	3	R1066P
2943.747	10.747	1633730	REC_WORD	10.747	n/a	CRATE	-999	22	[0, 0, 0]	n/a	FR1	3	R1066P
2954.494	14.941	1639104	REC_WORD	14.941	n/a	LAMB	9	22	[0, 0, 0]	n/a	FR1	3	R1066P
2969.435	2.055	1646574	REC_END	n/a	n/a	n/a	-999	22	[0, 0, 0]	n/a	FR1	3	R1066P
2971.49	0.0	1647601	TRIAL	n/a	n/a	n/a	-999	23	[0, 0, 0]	n/a	FR1	3	R1066P
2971.49	10.428	1647601	COUNTDOWN_START	n/a	n/a	n/a	-999	23	[0, 0, 0]	n/a	FR1	3	R1066P
2981.918	0.007	1652815	COUNTDOWN_END	n/a	n/a	n/a	-999	23	[0, 0, 0]	n/a	FR1	3	R1066P
2981.925	2.45	1652818	ORIENT	n/a	n/a	n/a	-999	23	[0, 0, 0]	n/a	FR1	3	R1066P
2984.375	2.451	1654043	WORD	n/a	wordpools/wordpool_EN.txt	CALF	1	23	[0, 0, 0]	n/a	FR1	3	R1066P
2986.826	2.467	1655269	WORD	n/a	wordpools/wordpool_EN.txt	DITCH	2	23	[0, 0, 0]	n/a	FR1	3	R1066P
2989.293	2.4	1656502	WORD	n/a	wordpools/wordpool_EN.txt	BEACH	3	23	[0, 0, 0]	n/a	FR1	3	R1066P
2991.693	2.534	1657702	WORD	n/a	wordpools/wordpool_EN.txt	OWL	4	23	[0, 0, 0]	n/a	FR1	3	R1066P
2994.227	2.467	1658969	WORD	n/a	wordpools/wordpool_EN.txt	SEA	5	23	[0, 0, 0]	n/a	FR1	3	R1066P
2996.694	2.601	1660202	WORD	n/a	wordpools/wordpool_EN.txt	SHELL	6	23	[0, 0, 0]	n/a	FR1	3	R1066P
2999.295	2.432	1661503	WORD	n/a	wordpools/wordpool_EN.txt	PEA	7	23	[0, 0, 0]	n/a	FR1	3	R1066P
3001.727	2.586	1662719	WORD	n/a	wordpools/wordpool_EN.txt	HORSE	8	23	[0, 0, 0]	n/a	FR1	3	R1066P
3004.313	2.5	1664012	WORD	n/a	wordpools/wordpool_EN.txt	SOCK	9	23	[0, 0, 0]	n/a	FR1	3	R1066P
3006.813	2.434	1665262	WORD	n/a	wordpools/wordpool_EN.txt	MULE	10	23	[0, 0, 0]	n/a	FR1	3	R1066P
3009.247	2.584	1666479	WORD	n/a	wordpools/wordpool_EN.txt	SKUNK	11	23	[0, 0, 0]	n/a	FR1	3	R1066P
3011.831	1.617	1667771	WORD	n/a	wordpools/wordpool_EN.txt	CLAY	12	23	[0, 0, 0]	n/a	FR1	3	R1066P
3013.448	0.001	1668579	DISTRACT_START	n/a	n/a	n/a	-999	23	[0, 0, 0]	n/a	FR1	3	R1066P
3013.449	0.015	1668579	START	n/a	n/a	n/a	-999	23	[-999, -999, -999]	n/a	FR1	3	R1066P
3013.464	3.301	1668587	PROB	3.301	n/a	n/a	-999	23	[7, 6, 4]	17	FR1	3	R1066P
3016.765	2.117	1670237	PROB	2.117	n/a	n/a	-999	23	[7, 7, 6]	20	FR1	3	R1066P
3018.882	2.217	1671296	PROB	2.217	n/a	n/a	-999	23	[5, 7, 2]	14	FR1	3	R1066P
3021.099	2.017	1672404	PROB	2.017	n/a	n/a	-999	23	[2, 2, 5]	9	FR1	3	R1066P
3023.116	3.6	1673413	PROB	3.6	n/a	n/a	-999	23	[7, 5, 4]	16	FR1	3	R1066P
3026.716	2.151	1675213	PROB	2.151	n/a	n/a	-999	23	[9, 4, 2]	15	FR1	3	R1066P
3028.867	2.651	1676288	PROB	2.651	n/a	n/a	-999	23	[6, 5, 9]	20	FR1	3	R1066P
3031.518	3.657	1677613	PROB	3.657	n/a	n/a	-999	23	[9, 6, 8]	24	FR1	3	R1066P
3035.175	0.01	1679442	STOP	n/a	n/a	n/a	-999	23	[-999, -999, -999]	n/a	FR1	3	R1066P
3035.185	1.185	1679447	DISTRACT_END	n/a	n/a	n/a	-999	23	[0, 0, 0]	n/a	FR1	3	R1066P
3036.37	0.762	1680039	REC_START	n/a	n/a	n/a	-999	23	[0, 0, 0]	n/a	FR1	3	R1066P
3037.132	1.11	1680420	REC_WORD	1.11	n/a	CALF	1	23	[0, 0, 0]	n/a	FR1	3	R1066P
3038.242	1.778	1680975	REC_WORD	1.778	n/a	DITCH	2	23	[0, 0, 0]	n/a	FR1	3	R1066P
3040.02	1.235	1681864	REC_WORD	1.235	n/a	BEACH	3	23	[0, 0, 0]	n/a	FR1	3	R1066P
3041.255	1.869	1682482	REC_WORD	1.869	n/a	SAND	-999	23	[0, 0, 0]	n/a	FR1	3	R1066P
3043.124	2.936	1683416	REC_WORD	2.936	n/a	SHELL	6	23	[0, 0, 0]	n/a	FR1	3	R1066P
3046.06	20.324	1684884	REC_WORD	20.324	n/a	MULE	10	23	[0, 0, 0]	n/a	FR1	3	R1066P
3066.384	2.041	1695046	REC_END	n/a	n/a	n/a	-999	23	[0, 0, 0]	n/a	FR1	3	R1066P
3068.425	0.0	1696066	TRIAL	n/a	n/a	n/a	-999	24	[0, 0, 0]	n/a	FR1	3	R1066P
3068.425	10.428	1696066	COUNTDOWN_START	n/a	n/a	n/a	-999	24	[0, 0, 0]	n/a	FR1	3	R1066P
3078.853	0.007	1701280	COUNTDOWN_END	n/a	n/a	n/a	-999	24	[0, 0, 0]	n/a	FR1	3	R1066P
3078.86	2.484	1701283	ORIENT	n/a	n/a	n/a	-999	24	[0, 0, 0]	n/a	FR1	3	R1066P
3081.344	2.467	1702525	WORD	n/a	wordpools/wordpool_EN.txt	TAIL	1	24	[0, 0, 0]	n/a	FR1	3	R1066P
3083.811	2.4	1703759	WORD	n/a	wordpools/wordpool_EN.txt	WOLF	2	24	[0, 0, 0]	n/a	FR1	3	R1066P
3086.211	2.433	1704959	WORD	n/a	wordpools/wordpool_EN.txt	NEST	3	24	[0, 0, 0]	n/a	FR1	3	R1066P
3088.644	2.468	1706175	WORD	n/a	wordpools/wordpool_EN.txt	KITE	4	24	[0, 0, 0]	n/a	FR1	3	R1066P
3091.112	2.516	1707409	WORD	n/a	wordpools/wordpool_EN.txt	DUCK	5	24	[0, 0, 0]	n/a	FR1	3	R1066P
3093.628	2.502	1708667	WORD	n/a	wordpools/wordpool_EN.txt	RAT	6	24	[0, 0, 0]	n/a	FR1	3	R1066P
3096.13	2.583	1709918	WORD	n/a	wordpools/wordpool_EN.txt	HOLE	7	24	[0, 0, 0]	n/a	FR1	3	R1066P
3098.713	2.451	1711209	WORD	n/a	wordpools/wordpool_EN.txt	PIG	8	24	[0, 0, 0]	n/a	FR1	3	R1066P
3101.164	2.533	1712435	WORD	n/a	wordpools/wordpool_EN.txt	PRINCE	9	24	[0, 0, 0]	n/a	FR1	3	R1066P
3103.697	2.418	1713701	WORD	n/a	wordpools/wordpool_EN.txt	RAKE	10	24	[0, 0, 0]	n/a	FR1	3	R1066P
3106.115	2.549	1714910	WORD	n/a	wordpools/wordpool_EN.txt	BARN	11	24	[0, 0, 0]	n/a	FR1	3	R1066P
3108.664	1.602	1716184	WORD	n/a	wordpools/wordpool_EN.txt	PEN	12	24	[0, 0, 0]	n/a	FR1	3	R1066P
3110.266	0.001	1716985	DISTRACT_START	n/a	n/a	n/a	-999	24	[0, 0, 0]	n/a	FR1	3	R1066P
3110.267	0.015	1716986	START	n/a	n/a	n/a	-999	24	[-999, -999, -999]	n/a	FR1	3	R1066P
3110.282	2.101	1716993	PROB	2.101	n/a	n/a	-999	24	[5, 1, 1]	7	FR1	3	R1066P
3112.383	1.7	1718044	PROB	1.7	n/a	n/a	-999	24	[6, 4, 1]	11	FR1	3	R1066P
3114.083	2.367	1718894	PROB	2.367	n/a	n/a	-999	24	[9, 2, 9]	20	FR1	3	R1066P
3116.45	2.601	1720077	PROB	2.601	n/a	n/a	-999	24	[5, 4, 1]	10	FR1	3	R1066P
3119.051	2.334	1721378	PROB	2.334	n/a	n/a	-999	24	[8, 4, 6]	18	FR1	3	R1066P
3121.385	2.467	1722545	PROB	2.467	n/a	n/a	-999	24	[6, 3, 2]	11	FR1	3	R1066P
3123.852	2.317	1723778	PROB	2.317	n/a	n/a	-999	24	[5, 2, 8]	15	FR1	3	R1066P
3126.169	3.05	1724936	PROB	3.05	n/a	n/a	-999	24	[9, 8, 6]	23	FR1	3	R1066P
3129.219	2.426	1726461	PROB	2.426	n/a	n/a	-999	24	[4, 6, 5]	15	FR1	3	R1066P
3131.645	0.007	1727674	STOP	n/a	n/a	n/a	-999	24	[-999, -999, -999]	n/a	FR1	3	R1066P
3131.652	1.102	1727678	DISTRACT_END	n/a	n/a	n/a	-999	24	[0, 0, 0]	n/a	FR1	3	R1066P
3132.754	1.261	1728229	REC_START	n/a	n/a	n/a	-999	24	[0, 0, 0]	n/a	FR1	3	R1066P
3134.015	2.511	1728859	REC_WORD_VV	2.511	n/a	<>	-999	24	[0, 0, 0]	n/a	FR1	3	R1066P
3136.526	0.76	1730115	REC_WORD	0.76	n/a	BARN	11	24	[0, 0, 0]	n/a	FR1	3	R1066P
3137.286	1.038	1730495	REC_WORD	1.038	n/a	CAT	-999	24	[0, 0, 0]	n/a	FR1	3	R1066P
3138.324	1.845	1731014	REC_WORD	1.845	n/a	TAIL	1	24	[0, 0, 0]	n/a	FR1	3	R1066P
3140.169	6.069	1731936	REC_WORD	6.069	n/a	WOLF	2	24	[0, 0, 0]	n/a	FR1	3	R1066P
3146.238	0.166	1734970	REC_WORD_VV	0.166	n/a	<>	-999	24	[0, 0, 0]	n/a	FR1	3	R1066P
3146.404	16.362	1735053	REC_WORD	16.362	n/a	MOUSE	-999	24	[0, 0, 0]	n/a	FR1	3	R1066P
3162.766	2.31	1743234	REC_END	n/a	n/a	n/a	-999	24	[0, 0, 0]	n/a	FR1	3	R1066P
3165.076	0.0	1744389	TRIAL	n/a	n/a	n/a	-999	25	[0, 0, 0]	n/a	FR1	3	R1066P
3165.076	10.428	1744389	COUNTDOWN_START	n/a	n/a	n/a	-999	25	[0, 0, 0]	n/a	FR1	3	R1066P
3175.504	0.007	1749603	COUNTDOWN_END	n/a	n/a	n/a	-999	25	[0, 0, 0]	n/a	FR1	3	R1066P
3175.511	2.468	1749606	ORIENT	n/a	n/a	n/a	-999	25	[0, 0, 0]	n/a	FR1	3	R1066P
3177.979	2.45	1750840	WORD	n/a	wordpools/wordpool_EN.txt	SINK	1	25	[0, 0, 0]	n/a	FR1	3	R1066P
3180.429	2.517	1752065	WORD	n/a	wordpools/wordpool_EN.txt	RAIN	2	25	[0, 0, 0]	n/a	FR1	3	R1066P
3182.946	2.6	1753323	WORD	n/a	wordpools/wordpool_EN.txt	PURSE	3	25	[0, 0, 0]	n/a	FR1	3	R1066P
3185.546	2.601	1754623	WORD	n/a	wordpools/wordpool_EN.txt	BAG	4	25	[0, 0, 0]	n/a	FR1	3	R1066P
3188.147	2.583	1755924	WORD	n/a	wordpools/wordpool_EN.txt	NOSE	5	25	[0, 0, 0]	n/a	FR1	3	R1066P
3190.73	2.418	1757215	WORD	n/a	wordpools/wordpool_EN.txt	FENCE	6	25	[0, 0, 0]	n/a	FR1	3	R1066P
3193.148	2.6	1758424	WORD	n/a	wordpools/wordpool_EN.txt	PIPE	7	25	[0, 0, 0]	n/a	FR1	3	R1066P
3195.748	2.384	1759724	WORD	n/a	wordpools/wordpool_EN.txt	HAND	8	25	[0, 0, 0]	n/a	FR1	3	R1066P
3198.132	2.499	1760916	WORD	n/a	wordpools/wordpool_EN.txt	SUIT	9	25	[0, 0, 0]	n/a	FR1	3	R1066P
3200.631	2.586	1762166	WORD	n/a	wordpools/wordpool_EN.txt	BOY	10	25	[0, 0, 0]	n/a	FR1	3	R1066P
3203.217	2.499	1763458	WORD	n/a	wordpools/wordpool_EN.txt	FLUTE	11	25	[0, 0, 0]	n/a	FR1	3	R1066P
3205.716	1.601	1764708	WORD	n/a	wordpools/wordpool_EN.txt	SHIRT	12	25	[0, 0, 0]	n/a	FR1	3	R1066P
3207.317	0.001	1765508	DISTRACT_START	n/a	n/a	n/a	-999	25	[0, 0, 0]	n/a	FR1	3	R1066P
3207.318	0.016	1765509	START	n/a	n/a	n/a	-999	25	[-999, -999, -999]	n/a	FR1	3	R1066P
3207.334	2.45	1765517	PROB	2.45	n/a	n/a	-999	25	[7, 4, 4]	15	FR1	3	R1066P
3209.784	2.051	1766742	PROB	2.051	n/a	n/a	-999	25	[9, 1, 7]	17	FR1	3	R1066P
3211.835	1.899	1767767	PROB	1.899	n/a	n/a	-999	25	[4, 1, 3]	8	FR1	3	R1066P
3213.734	2.102	1768717	PROB	2.102	n/a	n/a	-999	25	[2, 8, 4]	14	FR1	3	R1066P
3215.836	2.45	1769768	PROB	2.45	n/a	n/a	-999	25	[6, 7, 4]	17	FR1	3	R1066P
3218.286	1.667	1770993	PROB	1.667	n/a	n/a	-999	25	[3, 4, 1]	8	FR1	3	R1066P
3219.953	2.584	1771826	PROB	2.584	n/a	n/a	-999	25	[2, 7, 9]	18	FR1	3	R1066P
3222.537	3.234	1773118	PROB	3.234	n/a	n/a	-999	25	[8, 7, 9]	25	FR1	3	R1066P
3225.771	2.683	1774735	PROB	2.683	n/a	n/a	-999	25	[6, 3, 2]	11	FR1	3	R1066P
3228.454	0.017	1776076	STOP	n/a	n/a	n/a	-999	25	[-999, -999, -999]	n/a	FR1	3	R1066P
3228.471	1.2	1776085	DISTRACT_END	n/a	n/a	n/a	-999	25	[0, 0, 0]	n/a	FR1	3	R1066P
3229.671	0.434	1776685	REC_START	n/a	n/a	n/a	-999	25	[0, 0, 0]	n/a	FR1	3	R1066P
3230.105	0.433	1776902	REC_WORD_VV	0.433	n/a	<>	-999	25	[0, 0, 0]	n/a	FR1	3	R1066P
3230.538	0.701	1777118	REC_WORD	0.701	n/a	PURSE	3	25	[0, 0, 0]	n/a	FR1	3	R1066P
3231.239	0.564	1777469	REC_WORD	0.564	n/a	BAG	4	25	[0, 0, 0]	n/a	FR1	3	R1066P
3231.803	0.859	1777751	REC_WORD	0.859	n/a	SHORT	-999	25	[0, 0, 0]	n/a	FR1	3	R1066P
3232.662	1.857	1778180	REC_WORD	1.857	n/a	HAND	8	25	[0, 0, 0]	n/a	FR1	3	R1066P
3234.519	11.325	1779109	REC_WORD	11.325	n/a	BOY	10	25	[0, 0, 0]	n/a	FR1	3	R1066P
3245.844	1.576	1784771	REC_WORD_VV	1.576	n/a	<>	-999	25	[0, 0, 0]	n/a	FR1	3	R1066P
3247.42	3.993	1785559	REC_WORD	3.993	n/a	ARM	-999	25	[0, 0, 0]	n/a	FR1	3	R1066P
3251.413	8.276	1787555	REC_WORD	8.276	n/a	SHIRT	12	25	[0, 0, 0]	n/a	FR1	3	R1066P
3259.689	11.174	1791693	REC_END	n/a	n/a	n/a	-999	25	[0, 0, 0]	n/a	FR1	3	R1066P
3270.863	0.0	1797280	SESS_END	n/a	n/a	n/a	-999	25	[0, 0, 0]	n/a	FR1	3	R1066P
