onset	duration	sample	trial_type	response_time	stim_file	item_name	serialpos	list	test	answer	experiment	session	subject
0.0	17.716	27769	SESS_START	n/a	n/a	n/a	-999	-999	[0, 0, 0]	n/a	FR1	1	R1092J
17.716	10.428	45485	COUNTDOWN_START	n/a	n/a	n/a	-999	-999	[0, 0, 0]	n/a	FR1	1	R1092J
28.144	3.79	55913	COUNTDOWN_END	n/a	n/a	n/a	-999	-999	[0, 0, 0]	n/a	FR1	1	R1092J
31.934	2.534	59702	PRACTICE_WORD	n/a	n/a	WATCH	1	-1	[0, 0, 0]	n/a	FR1	1	R1092J
34.468	2.568	62236	PRACTICE_WORD	n/a	n/a	CHEST	2	-1	[0, 0, 0]	n/a	FR1	1	R1092J
37.036	2.616	64804	PRACTICE_WORD	n/a	n/a	ATTIC	3	-1	[0, 0, 0]	n/a	FR1	1	R1092J
39.652	2.584	67420	PRACTICE_WORD	n/a	n/a	BEAM	4	-1	[0, 0, 0]	n/a	FR1	1	R1092J
42.236	2.55	70004	PRACTICE_WORD	n/a	n/a	FLOOD	5	-1	[0, 0, 0]	n/a	FR1	1	R1092J
44.786	2.617	72554	PRACTICE_WORD	n/a	n/a	RHINO	6	-1	[0, 0, 0]	n/a	FR1	1	R1092J
47.403	2.484	75171	PRACTICE_WORD	n/a	n/a	WAGON	7	-1	[0, 0, 0]	n/a	FR1	1	R1092J
49.887	2.517	77655	PRACTICE_WORD	n/a	n/a	CAMEL	8	-1	[0, 0, 0]	n/a	FR1	1	R1092J
52.404	2.4	80172	PRACTICE_WORD	n/a	n/a	TONGUE	9	-1	[0, 0, 0]	n/a	FR1	1	R1092J
54.804	2.401	82572	PRACTICE_WORD	n/a	n/a	COTTON	10	-1	[0, 0, 0]	n/a	FR1	1	R1092J
57.205	2.55	84973	PRACTICE_WORD	n/a	n/a	IRON	11	-1	[0, 0, 0]	n/a	FR1	1	R1092J
59.755	1.617	87523	PRACTICE_WORD	n/a	n/a	RING	12	-1	[0, 0, 0]	n/a	FR1	1	R1092J
61.372	0.0	89140	PRACTICE_DISTRACT_START	n/a	n/a	n/a	-999	-1	[0, 0, 0]	n/a	FR1	1	R1092J
61.372	0.016	89140	START	n/a	n/a	n/a	-999	-1	[-999, -999, -999]	n/a	FR1	1	R1092J
61.388	4.534	89156	PROB	4.534	n/a	n/a	-999	-1	[8, 2, 5]	15	FR1	1	R1092J
65.922	3.967	93690	PROB	3.967	n/a	n/a	-999	-1	[9, 9, 7]	25	FR1	1	R1092J
69.889	2.034	97657	PROB	2.034	n/a	n/a	-999	-1	[4, 4, 1]	9	FR1	1	R1092J
71.923	4.401	99691	PROB	4.401	n/a	n/a	-999	-1	[8, 9, 8]	25	FR1	1	R1092J
76.324	2.667	104092	PROB	2.667	n/a	n/a	-999	-1	[2, 3, 1]	6	FR1	1	R1092J
78.991	2.986	106759	PROB	2.986	n/a	n/a	-999	-1	[5, 7, 4]	16	FR1	1	R1092J
81.977	0.014	109745	STOP	n/a	n/a	n/a	-999	-1	[-999, -999, -999]	n/a	FR1	1	R1092J
81.991	0.536	109759	PRACTICE_DISTRACT_END	n/a	n/a	n/a	-999	-1	[0, 0, 0]	n/a	FR1	1	R1092J
82.527	30.515	110295	PRACTICE_REC_START	n/a	n/a	n/a	-999	-1	[0, 0, 0]	n/a	FR1	1	R1092J
113.042	8.571	140809	PRACTICE_REC_END	n/a	n/a	n/a	-999	-1	[0, 0, 0]	n/a	FR1	1	R1092J
121.613	0.0	149380	COUNTDOWN_START	n/a	n/a	n/a	-999	1	[0, 0, 0]	n/a	FR1	1	R1092J
121.613	10.428	149380	TRIAL	n/a	n/a	n/a	-999	1	[0, 0, 0]	n/a	FR1	1	R1092J
132.041	0.008	159808	COUNTDOWN_END	n/a	n/a	n/a	-999	1	[0, 0, 0]	n/a	FR1	1	R1092J
132.049	2.382	159816	ORIENT	n/a	n/a	n/a	-999	1	[0, 0, 0]	n/a	FR1	1	R1092J
134.431	2.551	162198	WORD	n/a	wordpools/wordpool_EN.txt	PIG	1	1	[0, 0, 0]	n/a	FR1	1	R1092J
136.982	2.584	164749	WORD	n/a	wordpools/wordpool_EN.txt	BAG	2	1	[0, 0, 0]	n/a	FR1	1	R1092J
139.566	2.551	167333	WORD	n/a	wordpools/wordpool_EN.txt	TOE	3	1	[0, 0, 0]	n/a	FR1	1	R1092J
142.117	2.616	169884	WORD	n/a	wordpools/wordpool_EN.txt	BUSH	4	1	[0, 0, 0]	n/a	FR1	1	R1092J
144.733	2.384	172500	WORD	n/a	wordpools/wordpool_EN.txt	HILL	5	1	[0, 0, 0]	n/a	FR1	1	R1092J
147.117	2.45	174884	WORD	n/a	wordpools/wordpool_EN.txt	GATE	6	1	[0, 0, 0]	n/a	FR1	1	R1092J
149.567	2.618	177334	WORD	n/a	wordpools/wordpool_EN.txt	FROG	7	1	[0, 0, 0]	n/a	FR1	1	R1092J
152.185	2.5	179952	WORD	n/a	wordpools/wordpool_EN.txt	BOOT	8	1	[0, 0, 0]	n/a	FR1	1	R1092J
154.685	2.434	182452	WORD	n/a	wordpools/wordpool_EN.txt	GUARD	9	1	[0, 0, 0]	n/a	FR1	1	R1092J
157.119	2.533	184886	WORD	n/a	wordpools/wordpool_EN.txt	CHIN	10	1	[0, 0, 0]	n/a	FR1	1	R1092J
159.652	2.501	187419	WORD	n/a	wordpools/wordpool_EN.txt	CAGE	11	1	[0, 0, 0]	n/a	FR1	1	R1092J
162.153	1.616	189920	WORD	n/a	wordpools/wordpool_EN.txt	DOCK	12	1	[0, 0, 0]	n/a	FR1	1	R1092J
163.769	0.001	191536	DISTRACT_START	n/a	n/a	n/a	-999	1	[0, 0, 0]	n/a	FR1	1	R1092J
163.77	0.016	191537	START	n/a	n/a	n/a	-999	1	[-999, -999, -999]	n/a	FR1	1	R1092J
163.786	2.816	191553	PROB	2.816	n/a	n/a	-999	1	[3, 1, 4]	8	FR1	1	R1092J
166.602	3.134	194368	PROB	3.134	n/a	n/a	-999	1	[4, 9, 1]	14	FR1	1	R1092J
169.736	2.201	197502	PROB	2.201	n/a	n/a	-999	1	[4, 6, 1]	11	FR1	1	R1092J
171.937	2.45	199703	PROB	2.45	n/a	n/a	-999	1	[7, 6, 3]	16	FR1	1	R1092J
174.387	2.917	202153	PROB	2.917	n/a	n/a	-999	1	[2, 2, 4]	8	FR1	1	R1092J
177.304	2.067	205070	PROB	2.067	n/a	n/a	-999	1	[1, 1, 8]	10	FR1	1	R1092J
179.371	2.785	207137	PROB	2.785	n/a	n/a	-999	1	[1, 2, 4]	7	FR1	1	R1092J
182.156	3.074	209922	PROB	3.074	n/a	n/a	-999	1	[2, 6, 5]	13	FR1	1	R1092J
185.23	0.008	212996	STOP	n/a	n/a	n/a	-999	1	[-999, -999, -999]	n/a	FR1	1	R1092J
185.238	1.184	213004	DISTRACT_END	n/a	n/a	n/a	-999	1	[0, 0, 0]	n/a	FR1	1	R1092J
186.422	2.533	214188	REC_START	n/a	n/a	n/a	-999	1	[0, 0, 0]	n/a	FR1	1	R1092J
188.955	1.392	216721	REC_WORD	1.392	n/a	HILL	5	1	[0, 0, 0]	n/a	FR1	1	R1092J
190.347	4.179	218113	REC_WORD	4.179	n/a	WATCH	-999	1	[0, 0, 0]	n/a	FR1	1	R1092J
194.526	1.364	222292	REC_WORD	1.364	n/a	APPLE	-999	1	[0, 0, 0]	n/a	FR1	1	R1092J
195.89	1.323	223656	REC_WORD	1.323	n/a	BEAM	-999	1	[0, 0, 0]	n/a	FR1	1	R1092J
197.213	12.571	224979	REC_WORD	12.571	n/a	PIG	1	1	[0, 0, 0]	n/a	FR1	1	R1092J
209.784	2.556	237550	REC_WORD	2.556	n/a	GOAT	-999	1	[0, 0, 0]	n/a	FR1	1	R1092J
212.34	4.096	240106	REC_WORD	4.096	n/a	COAT	-999	1	[0, 0, 0]	n/a	FR1	1	R1092J
216.436	4.09	244202	REC_END	n/a	n/a	n/a	-999	1	[0, 0, 0]	n/a	FR1	1	R1092J
220.526	0.001	248292	COUNTDOWN_START	n/a	n/a	n/a	-999	2	[0, 0, 0]	n/a	FR1	1	R1092J
220.527	10.427	248293	TRIAL	n/a	n/a	n/a	-999	2	[0, 0, 0]	n/a	FR1	1	R1092J
230.954	0.007	258720	COUNTDOWN_END	n/a	n/a	n/a	-999	2	[0, 0, 0]	n/a	FR1	1	R1092J
230.961	2.601	258727	ORIENT	n/a	n/a	n/a	-999	2	[0, 0, 0]	n/a	FR1	1	R1092J
233.562	2.4	261327	WORD	n/a	wordpools/wordpool_EN.txt	PLANE	1	2	[0, 0, 0]	n/a	FR1	1	R1092J
235.962	2.45	263727	WORD	n/a	wordpools/wordpool_EN.txt	EAR	2	2	[0, 0, 0]	n/a	FR1	1	R1092J
238.412	2.484	266177	WORD	n/a	wordpools/wordpool_EN.txt	STRING	3	2	[0, 0, 0]	n/a	FR1	1	R1092J
240.896	2.4	268661	WORD	n/a	wordpools/wordpool_EN.txt	LOCK	4	2	[0, 0, 0]	n/a	FR1	1	R1092J
243.296	2.45	271061	WORD	n/a	wordpools/wordpool_EN.txt	PLATE	5	2	[0, 0, 0]	n/a	FR1	1	R1092J
245.746	2.617	273511	WORD	n/a	wordpools/wordpool_EN.txt	TOOL	6	2	[0, 0, 0]	n/a	FR1	1	R1092J
248.363	2.467	276128	WORD	n/a	wordpools/wordpool_EN.txt	NEST	7	2	[0, 0, 0]	n/a	FR1	1	R1092J
250.83	2.484	278595	WORD	n/a	wordpools/wordpool_EN.txt	EEL	8	2	[0, 0, 0]	n/a	FR1	1	R1092J
253.314	2.501	281079	WORD	n/a	wordpools/wordpool_EN.txt	JET	9	2	[0, 0, 0]	n/a	FR1	1	R1092J
255.815	2.45	283580	WORD	n/a	wordpools/wordpool_EN.txt	CONE	10	2	[0, 0, 0]	n/a	FR1	1	R1092J
258.265	2.5	286030	WORD	n/a	wordpools/wordpool_EN.txt	INK	11	2	[0, 0, 0]	n/a	FR1	1	R1092J
260.765	1.617	288530	WORD	n/a	wordpools/wordpool_EN.txt	HAWK	12	2	[0, 0, 0]	n/a	FR1	1	R1092J
262.382	0.001	290147	DISTRACT_START	n/a	n/a	n/a	-999	2	[0, 0, 0]	n/a	FR1	1	R1092J
262.383	0.016	290148	START	n/a	n/a	n/a	-999	2	[-999, -999, -999]	n/a	FR1	1	R1092J
262.399	4.834	290164	PROB	4.834	n/a	n/a	-999	2	[8, 9, 5]	22	FR1	1	R1092J
267.233	3.234	294998	PROB	3.234	n/a	n/a	-999	2	[7, 2, 5]	14	FR1	1	R1092J
270.467	2.5	298232	PROB	2.5	n/a	n/a	-999	2	[2, 5, 6]	13	FR1	1	R1092J
272.967	3.384	300732	PROB	3.384	n/a	n/a	-999	2	[9, 5, 8]	22	FR1	1	R1092J
276.351	3.1	304116	PROB	3.1	n/a	n/a	-999	2	[4, 8, 7]	19	FR1	1	R1092J
279.451	2.284	307216	PROB	2.284	n/a	n/a	-999	2	[8, 4, 2]	14	FR1	1	R1092J
281.735	3.317	309500	PROB	3.317	n/a	n/a	-999	2	[5, 4, 7]	16	FR1	1	R1092J
285.052	0.018	312817	STOP	n/a	n/a	n/a	-999	2	[-999, -999, -999]	n/a	FR1	1	R1092J
285.07	1.133	312835	DISTRACT_END	n/a	n/a	n/a	-999	2	[0, 0, 0]	n/a	FR1	1	R1092J
286.203	3.852	313968	REC_START	n/a	n/a	n/a	-999	2	[0, 0, 0]	n/a	FR1	1	R1092J
290.055	1.332	317820	REC_WORD	1.332	n/a	WHALE	-999	2	[0, 0, 0]	n/a	FR1	1	R1092J
291.387	0.957	319152	REC_WORD	0.957	n/a	HILL	-999	2	[0, 0, 0]	n/a	FR1	1	R1092J
292.344	1.389	320109	REC_WORD	1.389	n/a	WATCH	-999	2	[0, 0, 0]	n/a	FR1	1	R1092J
293.733	1.427	321498	REC_WORD	1.427	n/a	APPLE	-999	2	[0, 0, 0]	n/a	FR1	1	R1092J
295.16	2.229	322925	REC_WORD	2.229	n/a	BEAM	-999	2	[0, 0, 0]	n/a	FR1	1	R1092J
297.389	1.568	325154	REC_WORD	1.568	n/a	JET	9	2	[0, 0, 0]	n/a	FR1	1	R1092J
298.957	11.857	326721	REC_WORD	11.857	n/a	COAT	-999	2	[0, 0, 0]	n/a	FR1	1	R1092J
310.814	5.403	338578	REC_WORD	5.403	n/a	CONE	10	2	[0, 0, 0]	n/a	FR1	1	R1092J
316.217	3.791	343981	REC_END	n/a	n/a	n/a	-999	2	[0, 0, 0]	n/a	FR1	1	R1092J
320.008	0.0	347772	COUNTDOWN_START	n/a	n/a	n/a	-999	3	[0, 0, 0]	n/a	FR1	1	R1092J
320.008	10.428	347772	TRIAL	n/a	n/a	n/a	-999	3	[0, 0, 0]	n/a	FR1	1	R1092J
330.436	0.005	358200	COUNTDOWN_END	n/a	n/a	n/a	-999	3	[0, 0, 0]	n/a	FR1	1	R1092J
330.441	2.585	358205	ORIENT	n/a	n/a	n/a	-999	3	[0, 0, 0]	n/a	FR1	1	R1092J
333.026	2.532	360790	WORD	n/a	wordpools/wordpool_EN.txt	STAIR	1	3	[0, 0, 0]	n/a	FR1	1	R1092J
335.558	2.602	363322	WORD	n/a	wordpools/wordpool_EN.txt	SMOKE	2	3	[0, 0, 0]	n/a	FR1	1	R1092J
338.16	2.516	365924	WORD	n/a	wordpools/wordpool_EN.txt	DART	3	3	[0, 0, 0]	n/a	FR1	1	R1092J
340.676	2.501	368440	WORD	n/a	wordpools/wordpool_EN.txt	PANTS	4	3	[0, 0, 0]	n/a	FR1	1	R1092J
343.177	2.499	370941	WORD	n/a	wordpools/wordpool_EN.txt	BADGE	5	3	[0, 0, 0]	n/a	FR1	1	R1092J
345.676	2.551	373440	WORD	n/a	wordpools/wordpool_EN.txt	CAR	6	3	[0, 0, 0]	n/a	FR1	1	R1092J
348.227	2.5	375991	WORD	n/a	wordpools/wordpool_EN.txt	WING	7	3	[0, 0, 0]	n/a	FR1	1	R1092J
350.727	2.468	378491	WORD	n/a	wordpools/wordpool_EN.txt	BRICK	8	3	[0, 0, 0]	n/a	FR1	1	R1092J
353.195	2.466	380959	WORD	n/a	wordpools/wordpool_EN.txt	FOG	9	3	[0, 0, 0]	n/a	FR1	1	R1092J
355.661	2.567	383425	WORD	n/a	wordpools/wordpool_EN.txt	TRASH	10	3	[0, 0, 0]	n/a	FR1	1	R1092J
358.228	2.601	385992	WORD	n/a	wordpools/wordpool_EN.txt	CANE	11	3	[0, 0, 0]	n/a	FR1	1	R1092J
360.829	1.617	388593	WORD	n/a	wordpools/wordpool_EN.txt	JAIL	12	3	[0, 0, 0]	n/a	FR1	1	R1092J
362.446	0.0	390210	DISTRACT_START	n/a	n/a	n/a	-999	3	[0, 0, 0]	n/a	FR1	1	R1092J
362.446	0.016	390210	START	n/a	n/a	n/a	-999	3	[-999, -999, -999]	n/a	FR1	1	R1092J
362.462	3.051	390226	PROB	3.051	n/a	n/a	-999	3	[2, 4, 6]	12	FR1	1	R1092J
365.513	2.9	393277	PROB	2.9	n/a	n/a	-999	3	[2, 1, 6]	9	FR1	1	R1092J
368.413	2.267	396176	PROB	2.267	n/a	n/a	-999	3	[8, 3, 8]	19	FR1	1	R1092J
370.68	2.351	398443	PROB	2.351	n/a	n/a	-999	3	[8, 4, 3]	15	FR1	1	R1092J
373.031	2.466	400794	PROB	2.466	n/a	n/a	-999	3	[5, 7, 2]	14	FR1	1	R1092J
375.497	3.535	403260	PROB	3.535	n/a	n/a	-999	3	[5, 4, 7]	16	FR1	1	R1092J
379.032	3.4	406795	PROB	3.4	n/a	n/a	-999	3	[4, 2, 9]	15	FR1	1	R1092J
382.432	2.641	410195	PROB	2.641	n/a	n/a	-999	3	[5, 9, 8]	22	FR1	1	R1092J
385.073	0.01	412836	STOP	n/a	n/a	n/a	-999	3	[-999, -999, -999]	n/a	FR1	1	R1092J
385.083	1.166	412846	DISTRACT_END	n/a	n/a	n/a	-999	3	[0, 0, 0]	n/a	FR1	1	R1092J
386.249	2.154	414012	REC_START	n/a	n/a	n/a	-999	3	[0, 0, 0]	n/a	FR1	1	R1092J
388.403	1.345	416166	REC_WORD	1.345	n/a	COACH	-999	3	[0, 0, 0]	n/a	FR1	1	R1092J
389.748	1.988	417511	REC_WORD	1.988	n/a	HILL	-999	3	[0, 0, 0]	n/a	FR1	1	R1092J
391.736	1.782	419499	REC_WORD	1.782	n/a	WAGON	-999	3	[0, 0, 0]	n/a	FR1	1	R1092J
393.518	1.595	421281	REC_WORD	1.595	n/a	BEAM	-999	3	[0, 0, 0]	n/a	FR1	1	R1092J
395.113	6.157	422876	REC_WORD	6.157	n/a	FOG	9	3	[0, 0, 0]	n/a	FR1	1	R1092J
401.27	0.68	429033	REC_WORD	0.68	n/a	COAT	-999	3	[0, 0, 0]	n/a	FR1	1	R1092J
401.95	5.105	429713	REC_WORD	5.105	n/a	STAIR	1	3	[0, 0, 0]	n/a	FR1	1	R1092J
407.055	2.257	434818	REC_WORD	2.257	n/a	CONE	-999	3	[0, 0, 0]	n/a	FR1	1	R1092J
409.312	2.094	437075	REC_WORD	2.094	n/a	BRICK	8	3	[0, 0, 0]	n/a	FR1	1	R1092J
411.406	4.857	439169	REC_WORD	4.857	n/a	FOG	9	3	[0, 0, 0]	n/a	FR1	1	R1092J
416.263	3.974	444026	REC_END	n/a	n/a	n/a	-999	3	[0, 0, 0]	n/a	FR1	1	R1092J
420.237	0.0	448000	TRIAL	n/a	n/a	n/a	-999	4	[0, 0, 0]	n/a	FR1	1	R1092J
420.237	10.428	448000	COUNTDOWN_START	n/a	n/a	n/a	-999	4	[0, 0, 0]	n/a	FR1	1	R1092J
430.665	0.006	458428	COUNTDOWN_END	n/a	n/a	n/a	-999	4	[0, 0, 0]	n/a	FR1	1	R1092J
430.671	2.584	458434	ORIENT	n/a	n/a	n/a	-999	4	[0, 0, 0]	n/a	FR1	1	R1092J
433.255	2.55	461017	WORD	n/a	wordpools/wordpool_EN.txt	HAND	1	4	[0, 0, 0]	n/a	FR1	1	R1092J
435.805	2.584	463567	WORD	n/a	wordpools/wordpool_EN.txt	ROOF	2	4	[0, 0, 0]	n/a	FR1	1	R1092J
438.389	2.467	466151	WORD	n/a	wordpools/wordpool_EN.txt	GLASS	3	4	[0, 0, 0]	n/a	FR1	1	R1092J
440.856	2.484	468618	WORD	n/a	wordpools/wordpool_EN.txt	PIPE	4	4	[0, 0, 0]	n/a	FR1	1	R1092J
443.34	2.4	471102	WORD	n/a	wordpools/wordpool_EN.txt	BROOM	5	4	[0, 0, 0]	n/a	FR1	1	R1092J
445.74	2.6	473502	WORD	n/a	wordpools/wordpool_EN.txt	ROPE	6	4	[0, 0, 0]	n/a	FR1	1	R1092J
448.34	2.484	476102	WORD	n/a	wordpools/wordpool_EN.txt	ELF	7	4	[0, 0, 0]	n/a	FR1	1	R1092J
450.824	2.601	478586	WORD	n/a	wordpools/wordpool_EN.txt	MAT	8	4	[0, 0, 0]	n/a	FR1	1	R1092J
453.425	2.566	481187	WORD	n/a	wordpools/wordpool_EN.txt	TRAY	9	4	[0, 0, 0]	n/a	FR1	1	R1092J
455.991	2.401	483753	WORD	n/a	wordpools/wordpool_EN.txt	ROOM	10	4	[0, 0, 0]	n/a	FR1	1	R1092J
458.392	2.534	486154	WORD	n/a	wordpools/wordpool_EN.txt	STORM	11	4	[0, 0, 0]	n/a	FR1	1	R1092J
460.926	1.616	488688	WORD	n/a	wordpools/wordpool_EN.txt	WALL	12	4	[0, 0, 0]	n/a	FR1	1	R1092J
462.542	0.001	490304	DISTRACT_START	n/a	n/a	n/a	-999	4	[0, 0, 0]	n/a	FR1	1	R1092J
462.543	0.016	490305	START	n/a	n/a	n/a	-999	4	[-999, -999, -999]	n/a	FR1	1	R1092J
462.559	3.134	490321	PROB	3.134	n/a	n/a	-999	4	[1, 4, 5]	10	FR1	1	R1092J
465.693	2.468	493455	PROB	2.468	n/a	n/a	-999	4	[6, 7, 4]	17	FR1	1	R1092J
468.161	2.499	495923	PROB	2.499	n/a	n/a	-999	4	[3, 6, 4]	13	FR1	1	R1092J
470.66	2.301	498422	PROB	2.301	n/a	n/a	-999	4	[1, 3, 5]	9	FR1	1	R1092J
472.961	2.766	500723	PROB	2.766	n/a	n/a	-999	4	[5, 6, 7]	18	FR1	1	R1092J
475.727	2.751	503489	PROB	2.751	n/a	n/a	-999	4	[3, 6, 8]	17	FR1	1	R1092J
478.478	2.283	506240	PROB	2.283	n/a	n/a	-999	4	[1, 4, 2]	7	FR1	1	R1092J
480.761	2.107	508523	PROB	2.107	n/a	n/a	-999	4	[3, 7, 9]	19	FR1	1	R1092J
482.868	0.01	510630	STOP	n/a	n/a	n/a	-999	4	[-999, -999, -999]	n/a	FR1	1	R1092J
482.878	1.202	510640	DISTRACT_END	n/a	n/a	n/a	-999	4	[0, 0, 0]	n/a	FR1	1	R1092J
484.08	2.779	511842	REC_START	n/a	n/a	n/a	-999	4	[0, 0, 0]	n/a	FR1	1	R1092J
486.859	1.576	514621	REC_WORD	1.576	n/a	HAND	1	4	[0, 0, 0]	n/a	FR1	1	R1092J
488.435	2.273	516197	REC_WORD	2.273	n/a	ROPE	6	4	[0, 0, 0]	n/a	FR1	1	R1092J
490.708	2.891	518470	REC_WORD	2.891	n/a	WALL	12	4	[0, 0, 0]	n/a	FR1	1	R1092J
493.599	4.012	521361	REC_WORD	4.012	n/a	BEAM	-999	4	[0, 0, 0]	n/a	FR1	1	R1092J
497.611	7.088	525373	REC_WORD	7.088	n/a	HAND	1	4	[0, 0, 0]	n/a	FR1	1	R1092J
504.699	4.098	532460	REC_WORD	4.098	n/a	TOE	-999	4	[0, 0, 0]	n/a	FR1	1	R1092J
508.797	2.598	536558	REC_WORD	2.598	n/a	PIPE	4	4	[0, 0, 0]	n/a	FR1	1	R1092J
511.395	2.699	539156	REC_WORD	2.699	n/a	WAGON	-999	4	[0, 0, 0]	n/a	FR1	1	R1092J
514.094	4.222	541855	REC_END	n/a	n/a	n/a	-999	4	[0, 0, 0]	n/a	FR1	1	R1092J
518.316	0.001	546077	COUNTDOWN_START	n/a	n/a	n/a	-999	5	[0, 0, 0]	n/a	FR1	1	R1092J
518.317	10.427	546078	TRIAL	n/a	n/a	n/a	-999	5	[0, 0, 0]	n/a	FR1	1	R1092J
528.744	0.007	556505	COUNTDOWN_END	n/a	n/a	n/a	-999	5	[0, 0, 0]	n/a	FR1	1	R1092J
528.751	2.584	556512	ORIENT	n/a	n/a	n/a	-999	5	[0, 0, 0]	n/a	FR1	1	R1092J
531.335	2.434	559096	WORD	n/a	wordpools/wordpool_EN.txt	MOON	1	5	[0, 0, 0]	n/a	FR1	1	R1092J
533.769	2.516	561530	WORD	n/a	wordpools/wordpool_EN.txt	CASH	2	5	[0, 0, 0]	n/a	FR1	1	R1092J
536.285	2.567	564046	WORD	n/a	wordpools/wordpool_EN.txt	MAIL	3	5	[0, 0, 0]	n/a	FR1	1	R1092J
538.852	2.468	566613	WORD	n/a	wordpools/wordpool_EN.txt	BOMB	4	5	[0, 0, 0]	n/a	FR1	1	R1092J
541.32	2.617	569081	WORD	n/a	wordpools/wordpool_EN.txt	ICE	5	5	[0, 0, 0]	n/a	FR1	1	R1092J
543.937	2.466	571698	WORD	n/a	wordpools/wordpool_EN.txt	LEAF	6	5	[0, 0, 0]	n/a	FR1	1	R1092J
546.403	2.401	574164	WORD	n/a	wordpools/wordpool_EN.txt	MAP	7	5	[0, 0, 0]	n/a	FR1	1	R1092J
548.804	2.567	576565	WORD	n/a	wordpools/wordpool_EN.txt	FILM	8	5	[0, 0, 0]	n/a	FR1	1	R1092J
551.371	2.567	579132	WORD	n/a	wordpools/wordpool_EN.txt	FORT	9	5	[0, 0, 0]	n/a	FR1	1	R1092J
553.938	2.384	581699	WORD	n/a	wordpools/wordpool_EN.txt	TRUCK	10	5	[0, 0, 0]	n/a	FR1	1	R1092J
556.322	2.567	584083	WORD	n/a	wordpools/wordpool_EN.txt	CORD	11	5	[0, 0, 0]	n/a	FR1	1	R1092J
558.889	1.617	586650	WORD	n/a	wordpools/wordpool_EN.txt	OAR	12	5	[0, 0, 0]	n/a	FR1	1	R1092J
560.506	0.001	588267	DISTRACT_START	n/a	n/a	n/a	-999	5	[0, 0, 0]	n/a	FR1	1	R1092J
560.507	0.015	588268	START	n/a	n/a	n/a	-999	5	[-999, -999, -999]	n/a	FR1	1	R1092J
560.522	2.934	588283	PROB	2.934	n/a	n/a	-999	5	[8, 2, 5]	15	FR1	1	R1092J
563.456	2.35	591217	PROB	2.35	n/a	n/a	-999	5	[2, 7, 4]	13	FR1	1	R1092J
565.806	2.8	593567	PROB	2.8	n/a	n/a	-999	5	[9, 2, 6]	17	FR1	1	R1092J
568.606	2.851	596366	PROB	2.851	n/a	n/a	-999	5	[3, 8, 5]	16	FR1	1	R1092J
571.457	2.251	599217	PROB	2.251	n/a	n/a	-999	5	[2, 3, 2]	7	FR1	1	R1092J
573.708	2.183	601468	PROB	2.183	n/a	n/a	-999	5	[8, 4, 4]	16	FR1	1	R1092J
575.891	2.084	603651	PROB	2.084	n/a	n/a	-999	5	[4, 6, 3]	13	FR1	1	R1092J
577.975	4.163	605735	PROB	4.163	n/a	n/a	-999	5	[6, 7, 9]	22	FR1	1	R1092J
582.138	0.005	609898	STOP	n/a	n/a	n/a	-999	5	[-999, -999, -999]	n/a	FR1	1	R1092J
582.143	1.183	609903	DISTRACT_END	n/a	n/a	n/a	-999	5	[0, 0, 0]	n/a	FR1	1	R1092J
583.326	3.423	611086	REC_START	n/a	n/a	n/a	-999	5	[0, 0, 0]	n/a	FR1	1	R1092J
586.749	1.273	614509	REC_WORD	1.273	n/a	AIR	-999	5	[0, 0, 0]	n/a	FR1	1	R1092J
588.022	1.724	615782	REC_WORD	1.724	n/a	CASH	2	5	[0, 0, 0]	n/a	FR1	1	R1092J
589.746	2.035	617506	REC_WORD	2.035	n/a	WALL	-999	5	[0, 0, 0]	n/a	FR1	1	R1092J
591.781	3.06	619541	REC_WORD	3.06	n/a	BEAM	-999	5	[0, 0, 0]	n/a	FR1	1	R1092J
594.841	1.958	622601	REC_WORD	1.958	n/a	ROPE	-999	5	[0, 0, 0]	n/a	FR1	1	R1092J
596.799	2.866	624559	REC_WORD	2.866	n/a	ICE	5	5	[0, 0, 0]	n/a	FR1	1	R1092J
599.665	5.781	627425	REC_WORD	5.781	n/a	OAR	12	5	[0, 0, 0]	n/a	FR1	1	R1092J
605.446	2.816	633206	REC_WORD	2.816	n/a	WIND	-999	5	[0, 0, 0]	n/a	FR1	1	R1092J
608.262	5.072	636022	REC_WORD	5.072	n/a	FORT	9	5	[0, 0, 0]	n/a	FR1	1	R1092J
613.334	2.596	641094	REC_END	n/a	n/a	n/a	-999	5	[0, 0, 0]	n/a	FR1	1	R1092J
615.93	0.0	643690	COUNTDOWN_START	n/a	n/a	n/a	-999	6	[0, 0, 0]	n/a	FR1	1	R1092J
615.93	10.428	643690	TRIAL	n/a	n/a	n/a	-999	6	[0, 0, 0]	n/a	FR1	1	R1092J
626.358	0.007	654118	COUNTDOWN_END	n/a	n/a	n/a	-999	6	[0, 0, 0]	n/a	FR1	1	R1092J
626.365	2.617	654125	ORIENT	n/a	n/a	n/a	-999	6	[0, 0, 0]	n/a	FR1	1	R1092J
628.982	2.617	656742	WORD	n/a	wordpools/wordpool_EN.txt	TAIL	1	6	[0, 0, 0]	n/a	FR1	1	R1092J
631.599	2.484	659359	WORD	n/a	wordpools/wordpool_EN.txt	FOOD	2	6	[0, 0, 0]	n/a	FR1	1	R1092J
634.083	2.483	661843	WORD	n/a	wordpools/wordpool_EN.txt	DEER	3	6	[0, 0, 0]	n/a	FR1	1	R1092J
636.566	2.535	664325	WORD	n/a	wordpools/wordpool_EN.txt	ARK	4	6	[0, 0, 0]	n/a	FR1	1	R1092J
639.101	2.482	666860	WORD	n/a	wordpools/wordpool_EN.txt	TREE	5	6	[0, 0, 0]	n/a	FR1	1	R1092J
641.583	2.401	669342	WORD	n/a	wordpools/wordpool_EN.txt	CALF	6	6	[0, 0, 0]	n/a	FR1	1	R1092J
643.984	2.466	671743	WORD	n/a	wordpools/wordpool_EN.txt	WOOD	7	6	[0, 0, 0]	n/a	FR1	1	R1092J
646.45	2.451	674209	WORD	n/a	wordpools/wordpool_EN.txt	TIE	8	6	[0, 0, 0]	n/a	FR1	1	R1092J
648.901	2.534	676660	WORD	n/a	wordpools/wordpool_EN.txt	RAKE	9	6	[0, 0, 0]	n/a	FR1	1	R1092J
651.435	2.467	679194	WORD	n/a	wordpools/wordpool_EN.txt	PEACH	10	6	[0, 0, 0]	n/a	FR1	1	R1092J
653.902	2.416	681661	WORD	n/a	wordpools/wordpool_EN.txt	FENCE	11	6	[0, 0, 0]	n/a	FR1	1	R1092J
656.318	1.617	684077	WORD	n/a	wordpools/wordpool_EN.txt	WEB	12	6	[0, 0, 0]	n/a	FR1	1	R1092J
657.935	0.001	685694	DISTRACT_START	n/a	n/a	n/a	-999	6	[0, 0, 0]	n/a	FR1	1	R1092J
657.936	0.016	685695	START	n/a	n/a	n/a	-999	6	[-999, -999, -999]	n/a	FR1	1	R1092J
657.952	4.451	685711	PROB	4.451	n/a	n/a	-999	6	[2, 2, 7]	11	FR1	1	R1092J
662.403	2.701	690162	PROB	2.701	n/a	n/a	-999	6	[6, 7, 3]	16	FR1	1	R1092J
665.104	5.934	692863	PROB	5.934	n/a	n/a	-999	6	[6, 7, 5]	18	FR1	1	R1092J
671.038	2.483	698797	PROB	2.483	n/a	n/a	-999	6	[9, 4, 9]	22	FR1	1	R1092J
673.521	4.869	701280	PROB	4.869	n/a	n/a	-999	6	[3, 5, 6]	15	FR1	1	R1092J
678.39	0.015	706149	STOP	n/a	n/a	n/a	-999	6	[-999, -999, -999]	n/a	FR1	1	R1092J
678.405	1.151	706164	DISTRACT_END	n/a	n/a	n/a	-999	6	[0, 0, 0]	n/a	FR1	1	R1092J
679.556	5.296	707315	REC_START	n/a	n/a	n/a	-999	6	[0, 0, 0]	n/a	FR1	1	R1092J
684.852	2.138	712611	REC_WORD	2.138	n/a	RAIN	-999	6	[0, 0, 0]	n/a	FR1	1	R1092J
686.99	1.888	714749	REC_WORD	1.888	n/a	OAR	-999	6	[0, 0, 0]	n/a	FR1	1	R1092J
688.878	2.386	716637	REC_WORD	2.386	n/a	PEACH	10	6	[0, 0, 0]	n/a	FR1	1	R1092J
691.264	3.878	719023	REC_WORD	3.878	n/a	ARK	4	6	[0, 0, 0]	n/a	FR1	1	R1092J
695.142	2.07	722901	REC_WORD	2.07	n/a	FOOD	2	6	[0, 0, 0]	n/a	FR1	1	R1092J
697.212	6.238	724971	REC_WORD	6.238	n/a	STAIR	-999	6	[0, 0, 0]	n/a	FR1	1	R1092J
703.45	4.272	731208	REC_WORD	4.272	n/a	ART	-999	6	[0, 0, 0]	n/a	FR1	1	R1092J
707.722	1.842	735480	REC_WORD	1.842	n/a	WEB	12	6	[0, 0, 0]	n/a	FR1	1	R1092J
709.564	3.58	737322	REC_END	n/a	n/a	n/a	-999	6	[0, 0, 0]	n/a	FR1	1	R1092J
713.144	0.0	740902	TRIAL	n/a	n/a	n/a	-999	7	[0, 0, 0]	n/a	FR1	1	R1092J
713.144	10.428	740902	COUNTDOWN_START	n/a	n/a	n/a	-999	7	[0, 0, 0]	n/a	FR1	1	R1092J
723.572	0.006	751330	COUNTDOWN_END	n/a	n/a	n/a	-999	7	[0, 0, 0]	n/a	FR1	1	R1092J
723.578	2.45	751336	ORIENT	n/a	n/a	n/a	-999	7	[0, 0, 0]	n/a	FR1	1	R1092J
726.028	2.4	753786	WORD	n/a	wordpools/wordpool_EN.txt	SWORD	1	7	[0, 0, 0]	n/a	FR1	1	R1092J
728.428	2.367	756186	WORD	n/a	wordpools/wordpool_EN.txt	PARK	2	7	[0, 0, 0]	n/a	FR1	1	R1092J
730.795	2.434	758553	WORD	n/a	wordpools/wordpool_EN.txt	AXE	3	7	[0, 0, 0]	n/a	FR1	1	R1092J
733.229	2.45	760987	WORD	n/a	wordpools/wordpool_EN.txt	COUCH	4	7	[0, 0, 0]	n/a	FR1	1	R1092J
735.679	2.418	763437	WORD	n/a	wordpools/wordpool_EN.txt	POOL	5	7	[0, 0, 0]	n/a	FR1	1	R1092J
738.097	2.483	765855	WORD	n/a	wordpools/wordpool_EN.txt	BANK	6	7	[0, 0, 0]	n/a	FR1	1	R1092J
740.58	2.601	768338	WORD	n/a	wordpools/wordpool_EN.txt	FOAM	7	7	[0, 0, 0]	n/a	FR1	1	R1092J
743.181	2.583	770939	WORD	n/a	wordpools/wordpool_EN.txt	WEED	8	7	[0, 0, 0]	n/a	FR1	1	R1092J
745.764	2.517	773522	WORD	n/a	wordpools/wordpool_EN.txt	BED	9	7	[0, 0, 0]	n/a	FR1	1	R1092J
748.281	2.5	776039	WORD	n/a	wordpools/wordpool_EN.txt	SINK	10	7	[0, 0, 0]	n/a	FR1	1	R1092J
750.781	2.551	778539	WORD	n/a	wordpools/wordpool_EN.txt	HOUSE	11	7	[0, 0, 0]	n/a	FR1	1	R1092J
753.332	1.617	781090	WORD	n/a	wordpools/wordpool_EN.txt	MUG	12	7	[0, 0, 0]	n/a	FR1	1	R1092J
754.949	0.001	782707	DISTRACT_START	n/a	n/a	n/a	-999	7	[0, 0, 0]	n/a	FR1	1	R1092J
754.95	0.015	782708	START	n/a	n/a	n/a	-999	7	[-999, -999, -999]	n/a	FR1	1	R1092J
754.965	3.401	782723	PROB	3.401	n/a	n/a	-999	7	[9, 7, 2]	18	FR1	1	R1092J
758.366	2.2	786124	PROB	2.2	n/a	n/a	-999	7	[7, 3, 4]	14	FR1	1	R1092J
760.566	2.884	788324	PROB	2.884	n/a	n/a	-999	7	[3, 7, 8]	18	FR1	1	R1092J
763.45	4.183	791208	PROB	4.183	n/a	n/a	-999	7	[1, 7, 5]	13	FR1	1	R1092J
767.633	3.968	795391	PROB	3.968	n/a	n/a	-999	7	[9, 8, 9]	26	FR1	1	R1092J
771.601	2.317	799358	PROB	2.317	n/a	n/a	-999	7	[6, 3, 7]	16	FR1	1	R1092J
773.918	1.852	801675	PROB	1.852	n/a	n/a	-999	7	[6, 2, 1]	9	FR1	1	R1092J
775.77	0.014	803527	STOP	n/a	n/a	n/a	-999	7	[-999, -999, -999]	n/a	FR1	1	R1092J
775.784	1.101	803541	DISTRACT_END	n/a	n/a	n/a	-999	7	[0, 0, 0]	n/a	FR1	1	R1092J
776.885	4.046	804642	REC_START	n/a	n/a	n/a	-999	7	[0, 0, 0]	n/a	FR1	1	R1092J
780.931	6.417	808688	REC_WORD	6.417	n/a	PARK	2	7	[0, 0, 0]	n/a	FR1	1	R1092J
787.348	1.353	815105	REC_WORD	1.353	n/a	AIR	-999	7	[0, 0, 0]	n/a	FR1	1	R1092J
788.701	3.297	816458	REC_WORD	3.297	n/a	BED	9	7	[0, 0, 0]	n/a	FR1	1	R1092J
791.998	3.729	819755	REC_WORD	3.729	n/a	WEED	8	7	[0, 0, 0]	n/a	FR1	1	R1092J
795.727	11.172	823484	REC_WORD	11.172	n/a	STAIR	-999	7	[0, 0, 0]	n/a	FR1	1	R1092J
806.899	3.874	834656	REC_END	n/a	n/a	n/a	-999	7	[0, 0, 0]	n/a	FR1	1	R1092J
810.773	0.0	838530	TRIAL	n/a	n/a	n/a	-999	8	[0, 0, 0]	n/a	FR1	1	R1092J
810.773	10.428	838530	COUNTDOWN_START	n/a	n/a	n/a	-999	8	[0, 0, 0]	n/a	FR1	1	R1092J
821.201	0.007	848958	COUNTDOWN_END	n/a	n/a	n/a	-999	8	[0, 0, 0]	n/a	FR1	1	R1092J
821.208	2.467	848965	ORIENT	n/a	n/a	n/a	-999	8	[0, 0, 0]	n/a	FR1	1	R1092J
823.675	2.417	851432	WORD	n/a	wordpools/wordpool_EN.txt	RUG	1	8	[0, 0, 0]	n/a	FR1	1	R1092J
826.092	2.516	853849	WORD	n/a	wordpools/wordpool_EN.txt	BATH	2	8	[0, 0, 0]	n/a	FR1	1	R1092J
828.608	2.518	856365	WORD	n/a	wordpools/wordpool_EN.txt	THUMB	3	8	[0, 0, 0]	n/a	FR1	1	R1092J
831.126	2.55	858883	WORD	n/a	wordpools/wordpool_EN.txt	LAWN	4	8	[0, 0, 0]	n/a	FR1	1	R1092J
833.676	2.567	861433	WORD	n/a	wordpools/wordpool_EN.txt	MUD	5	8	[0, 0, 0]	n/a	FR1	1	R1092J
836.243	2.567	864000	WORD	n/a	wordpools/wordpool_EN.txt	DOOR	6	8	[0, 0, 0]	n/a	FR1	1	R1092J
838.81	2.417	866566	WORD	n/a	wordpools/wordpool_EN.txt	ROAD	7	8	[0, 0, 0]	n/a	FR1	1	R1092J
841.227	2.417	868983	WORD	n/a	wordpools/wordpool_EN.txt	FOOT	8	8	[0, 0, 0]	n/a	FR1	1	R1092J
843.644	2.501	871400	WORD	n/a	wordpools/wordpool_EN.txt	HORN	9	8	[0, 0, 0]	n/a	FR1	1	R1092J
846.145	2.449	873901	WORD	n/a	wordpools/wordpool_EN.txt	SOAP	10	8	[0, 0, 0]	n/a	FR1	1	R1092J
848.594	2.384	876350	WORD	n/a	wordpools/wordpool_EN.txt	CUBE	11	8	[0, 0, 0]	n/a	FR1	1	R1092J
850.978	1.617	878734	WORD	n/a	wordpools/wordpool_EN.txt	SEAT	12	8	[0, 0, 0]	n/a	FR1	1	R1092J
852.595	0.001	880351	DISTRACT_START	n/a	n/a	n/a	-999	8	[0, 0, 0]	n/a	FR1	1	R1092J
852.596	0.016	880352	START	n/a	n/a	n/a	-999	8	[-999, -999, -999]	n/a	FR1	1	R1092J
852.612	5.568	880368	PROB	5.568	n/a	n/a	-999	8	[8, 7, 9]	23	FR1	1	R1092J
858.18	1.934	885936	PROB	1.934	n/a	n/a	-999	8	[1, 6, 6]	13	FR1	1	R1092J
860.114	2.666	887870	PROB	2.666	n/a	n/a	-999	8	[1, 3, 9]	13	FR1	1	R1092J
862.78	2.184	890536	PROB	2.184	n/a	n/a	-999	8	[9, 8, 1]	18	FR1	1	R1092J
864.964	2.433	892720	PROB	2.433	n/a	n/a	-999	8	[4, 8, 1]	13	FR1	1	R1092J
867.397	2.5	895153	PROB	2.5	n/a	n/a	-999	8	[5, 2, 8]	15	FR1	1	R1092J
869.897	2.617	897653	PROB	2.617	n/a	n/a	-999	8	[5, 3, 8]	16	FR1	1	R1092J
872.514	3.605	900270	PROB	3.605	n/a	n/a	-999	8	[8, 7, 7]	22	FR1	1	R1092J
876.119	0.013	903875	STOP	n/a	n/a	n/a	-999	8	[-999, -999, -999]	n/a	FR1	1	R1092J
876.132	1.018	903888	DISTRACT_END	n/a	n/a	n/a	-999	8	[0, 0, 0]	n/a	FR1	1	R1092J
877.15	2.255	904906	REC_START	n/a	n/a	n/a	-999	8	[0, 0, 0]	n/a	FR1	1	R1092J
879.405	0.962	907161	REC_WORD	0.962	n/a	RAKE	-999	8	[0, 0, 0]	n/a	FR1	1	R1092J
880.367	1.406	908123	REC_WORD	1.406	n/a	THUMB	3	8	[0, 0, 0]	n/a	FR1	1	R1092J
881.773	1.307	909529	REC_WORD	1.307	n/a	OAR	-999	8	[0, 0, 0]	n/a	FR1	1	R1092J
883.08	4.818	910836	REC_WORD	4.818	n/a	ROAD	7	8	[0, 0, 0]	n/a	FR1	1	R1092J
887.898	2.456	915654	REC_WORD	2.456	n/a	ROOM	-999	8	[0, 0, 0]	n/a	FR1	1	R1092J
890.354	4.518	918110	REC_WORD	4.518	n/a	STAIR	-999	8	[0, 0, 0]	n/a	FR1	1	R1092J
894.872	5.339	922628	REC_WORD	5.339	n/a	MUD	5	8	[0, 0, 0]	n/a	FR1	1	R1092J
900.211	6.949	927967	REC_WORD	6.949	n/a	ROOM	-999	8	[0, 0, 0]	n/a	FR1	1	R1092J
907.16	4.076	934915	REC_END	n/a	n/a	n/a	-999	8	[0, 0, 0]	n/a	FR1	1	R1092J
911.236	0.0	938991	TRIAL	n/a	n/a	n/a	-999	9	[0, 0, 0]	n/a	FR1	1	R1092J
911.236	10.428	938991	COUNTDOWN_START	n/a	n/a	n/a	-999	9	[0, 0, 0]	n/a	FR1	1	R1092J
921.664	0.007	949419	COUNTDOWN_END	n/a	n/a	n/a	-999	9	[0, 0, 0]	n/a	FR1	1	R1092J
921.671	2.552	949426	ORIENT	n/a	n/a	n/a	-999	9	[0, 0, 0]	n/a	FR1	1	R1092J
924.223	2.482	951978	WORD	n/a	wordpools/wordpool_EN.txt	SPRING	1	9	[0, 0, 0]	n/a	FR1	1	R1092J
926.705	2.468	954460	WORD	n/a	wordpools/wordpool_EN.txt	SNAKE	2	9	[0, 0, 0]	n/a	FR1	1	R1092J
929.173	2.416	956928	WORD	n/a	wordpools/wordpool_EN.txt	KITE	3	9	[0, 0, 0]	n/a	FR1	1	R1092J
931.589	2.367	959344	WORD	n/a	wordpools/wordpool_EN.txt	FRUIT	4	9	[0, 0, 0]	n/a	FR1	1	R1092J
933.956	2.45	961711	WORD	n/a	wordpools/wordpool_EN.txt	FOX	5	9	[0, 0, 0]	n/a	FR1	1	R1092J
936.406	2.618	964161	WORD	n/a	wordpools/wordpool_EN.txt	CAVE	6	9	[0, 0, 0]	n/a	FR1	1	R1092J
939.024	2.5	966779	WORD	n/a	wordpools/wordpool_EN.txt	OWL	7	9	[0, 0, 0]	n/a	FR1	1	R1092J
941.524	2.466	969279	WORD	n/a	wordpools/wordpool_EN.txt	YARD	8	9	[0, 0, 0]	n/a	FR1	1	R1092J
943.99	2.418	971745	WORD	n/a	wordpools/wordpool_EN.txt	DITCH	9	9	[0, 0, 0]	n/a	FR1	1	R1092J
946.408	2.618	974163	WORD	n/a	wordpools/wordpool_EN.txt	TEA	10	9	[0, 0, 0]	n/a	FR1	1	R1092J
949.026	2.449	976781	WORD	n/a	wordpools/wordpool_EN.txt	BREAD	11	9	[0, 0, 0]	n/a	FR1	1	R1092J
951.475	1.618	979230	WORD	n/a	wordpools/wordpool_EN.txt	JUICE	12	9	[0, 0, 0]	n/a	FR1	1	R1092J
953.093	0.001	980848	DISTRACT_START	n/a	n/a	n/a	-999	9	[0, 0, 0]	n/a	FR1	1	R1092J
953.094	0.016	980849	START	n/a	n/a	n/a	-999	9	[-999, -999, -999]	n/a	FR1	1	R1092J
953.11	3.249	980865	PROB	3.249	n/a	n/a	-999	9	[1, 7, 2]	10	FR1	1	R1092J
956.359	1.701	984114	PROB	1.701	n/a	n/a	-999	9	[1, 8, 2]	11	FR1	1	R1092J
958.06	2.783	985815	PROB	2.783	n/a	n/a	-999	9	[5, 8, 4]	17	FR1	1	R1092J
960.843	1.917	988598	PROB	1.917	n/a	n/a	-999	9	[7, 7, 2]	16	FR1	1	R1092J
962.76	2.435	990515	PROB	2.435	n/a	n/a	-999	9	[5, 2, 7]	14	FR1	1	R1092J
965.195	2.749	992950	PROB	2.749	n/a	n/a	-999	9	[3, 3, 4]	10	FR1	1	R1092J
967.944	2.101	995699	PROB	2.101	n/a	n/a	-999	9	[3, 8, 9]	20	FR1	1	R1092J
970.045	2.117	997800	PROB	2.117	n/a	n/a	-999	9	[4, 5, 5]	14	FR1	1	R1092J
972.162	1.962	999916	PROB	1.962	n/a	n/a	-999	9	[4, 2, 8]	14	FR1	1	R1092J
974.124	0.005	1001878	STOP	n/a	n/a	n/a	-999	9	[-999, -999, -999]	n/a	FR1	1	R1092J
974.129	1.166	1001883	DISTRACT_END	n/a	n/a	n/a	-999	9	[0, 0, 0]	n/a	FR1	1	R1092J
975.295	3.811	1003049	REC_START	n/a	n/a	n/a	-999	9	[0, 0, 0]	n/a	FR1	1	R1092J
979.106	0.895	1006860	REC_WORD	0.895	n/a	RAIL	-999	9	[0, 0, 0]	n/a	FR1	1	R1092J
980.001	6.082	1007755	REC_WORD	6.082	n/a	STAIR	-999	9	[0, 0, 0]	n/a	FR1	1	R1092J
986.083	2.127	1013837	REC_WORD	2.127	n/a	OAR	-999	9	[0, 0, 0]	n/a	FR1	1	R1092J
988.21	2.187	1015964	REC_WORD	2.187	n/a	KITE	3	9	[0, 0, 0]	n/a	FR1	1	R1092J
990.397	9.955	1018151	REC_WORD	9.955	n/a	FLOOR	-999	9	[0, 0, 0]	n/a	FR1	1	R1092J
1000.352	4.957	1028106	REC_WORD	4.957	n/a	FOOD	-999	9	[0, 0, 0]	n/a	FR1	1	R1092J
1005.309	4.708	1033063	REC_END	n/a	n/a	n/a	-999	9	[0, 0, 0]	n/a	FR1	1	R1092J
1010.017	0.0	1037771	TRIAL	n/a	n/a	n/a	-999	10	[0, 0, 0]	n/a	FR1	1	R1092J
1010.017	10.428	1037771	COUNTDOWN_START	n/a	n/a	n/a	-999	10	[0, 0, 0]	n/a	FR1	1	R1092J
1020.445	0.006	1048199	COUNTDOWN_END	n/a	n/a	n/a	-999	10	[0, 0, 0]	n/a	FR1	1	R1092J
1020.451	2.618	1048205	ORIENT	n/a	n/a	n/a	-999	10	[0, 0, 0]	n/a	FR1	1	R1092J
1023.069	2.499	1050823	WORD	n/a	wordpools/wordpool_EN.txt	SEED	1	10	[0, 0, 0]	n/a	FR1	1	R1092J
1025.568	2.501	1053322	WORD	n/a	wordpools/wordpool_EN.txt	PLANT	2	10	[0, 0, 0]	n/a	FR1	1	R1092J
1028.069	2.5	1055823	WORD	n/a	wordpools/wordpool_EN.txt	STONE	3	10	[0, 0, 0]	n/a	FR1	1	R1092J
1030.569	2.551	1058323	WORD	n/a	wordpools/wordpool_EN.txt	SLIME	4	10	[0, 0, 0]	n/a	FR1	1	R1092J
1033.12	2.583	1060874	WORD	n/a	wordpools/wordpool_EN.txt	CLOCK	5	10	[0, 0, 0]	n/a	FR1	1	R1092J
1035.703	2.385	1063457	WORD	n/a	wordpools/wordpool_EN.txt	STEM	6	10	[0, 0, 0]	n/a	FR1	1	R1092J
1038.088	2.499	1065842	WORD	n/a	wordpools/wordpool_EN.txt	HEART	7	10	[0, 0, 0]	n/a	FR1	1	R1092J
1040.587	2.585	1068340	WORD	n/a	wordpools/wordpool_EN.txt	CLAY	8	10	[0, 0, 0]	n/a	FR1	1	R1092J
1043.172	2.499	1070925	WORD	n/a	wordpools/wordpool_EN.txt	MOUSE	9	10	[0, 0, 0]	n/a	FR1	1	R1092J
1045.671	2.435	1073424	WORD	n/a	wordpools/wordpool_EN.txt	BOOK	10	10	[0, 0, 0]	n/a	FR1	1	R1092J
1048.106	2.566	1075859	WORD	n/a	wordpools/wordpool_EN.txt	PEARL	11	10	[0, 0, 0]	n/a	FR1	1	R1092J
1050.672	1.617	1078425	WORD	n/a	wordpools/wordpool_EN.txt	JUDGE	12	10	[0, 0, 0]	n/a	FR1	1	R1092J
1052.289	0.0	1080042	DISTRACT_START	n/a	n/a	n/a	-999	10	[0, 0, 0]	n/a	FR1	1	R1092J
1052.289	0.016	1080042	START	n/a	n/a	n/a	-999	10	[-999, -999, -999]	n/a	FR1	1	R1092J
1052.305	3.567	1080058	PROB	3.567	n/a	n/a	-999	10	[6, 8, 5]	19	FR1	1	R1092J
1055.872	1.784	1083625	PROB	1.784	n/a	n/a	-999	10	[7, 1, 3]	11	FR1	1	R1092J
1057.656	2.501	1085409	PROB	2.501	n/a	n/a	-999	10	[6, 5, 8]	19	FR1	1	R1092J
1060.157	2.416	1087910	PROB	2.416	n/a	n/a	-999	10	[3, 4, 8]	15	FR1	1	R1092J
1062.573	1.951	1090326	PROB	1.951	n/a	n/a	-999	10	[3, 2, 1]	6	FR1	1	R1092J
1064.524	1.684	1092277	PROB	1.684	n/a	n/a	-999	10	[7, 1, 1]	9	FR1	1	R1092J
1066.208	5.116	1093961	PROB	5.116	n/a	n/a	-999	10	[5, 8, 6]	18	FR1	1	R1092J
1071.324	2.548	1099077	PROB	2.548	n/a	n/a	-999	10	[9, 5, 9]	23	FR1	1	R1092J
1073.872	0.02	1101625	STOP	n/a	n/a	n/a	-999	10	[-999, -999, -999]	n/a	FR1	1	R1092J
1073.892	1.05	1101645	DISTRACT_END	n/a	n/a	n/a	-999	10	[0, 0, 0]	n/a	FR1	1	R1092J
1074.942	2.876	1102695	REC_START	n/a	n/a	n/a	-999	10	[0, 0, 0]	n/a	FR1	1	R1092J
1077.818	1.404	1105571	REC_WORD	1.404	n/a	SLIME	4	10	[0, 0, 0]	n/a	FR1	1	R1092J
1079.222	4.315	1106975	REC_WORD	4.315	n/a	STAIR	-999	10	[0, 0, 0]	n/a	FR1	1	R1092J
1083.537	17.73	1111290	REC_WORD	17.73	n/a	RAIL	-999	10	[0, 0, 0]	n/a	FR1	1	R1092J
1101.267	3.686	1129020	REC_WORD	3.686	n/a	OAR	-999	10	[0, 0, 0]	n/a	FR1	1	R1092J
1104.953	6.327	1132706	REC_END	n/a	n/a	n/a	-999	10	[0, 0, 0]	n/a	FR1	1	R1092J
1111.28	0.0	1139032	COUNTDOWN_START	n/a	n/a	n/a	-999	11	[0, 0, 0]	n/a	FR1	1	R1092J
1111.28	10.428	1139032	TRIAL	n/a	n/a	n/a	-999	11	[0, 0, 0]	n/a	FR1	1	R1092J
1121.708	0.007	1149460	COUNTDOWN_END	n/a	n/a	n/a	-999	11	[0, 0, 0]	n/a	FR1	1	R1092J
1121.715	2.484	1149467	ORIENT	n/a	n/a	n/a	-999	11	[0, 0, 0]	n/a	FR1	1	R1092J
1124.199	2.583	1151951	WORD	n/a	wordpools/wordpool_EN.txt	LIP	1	11	[0, 0, 0]	n/a	FR1	1	R1092J
1126.782	2.385	1154534	WORD	n/a	wordpools/wordpool_EN.txt	DOG	2	11	[0, 0, 0]	n/a	FR1	1	R1092J
1129.167	2.399	1156919	WORD	n/a	wordpools/wordpool_EN.txt	FUR	3	11	[0, 0, 0]	n/a	FR1	1	R1092J
1131.566	2.501	1159318	WORD	n/a	wordpools/wordpool_EN.txt	PET	4	11	[0, 0, 0]	n/a	FR1	1	R1092J
1134.067	2.399	1161819	WORD	n/a	wordpools/wordpool_EN.txt	GEESE	5	11	[0, 0, 0]	n/a	FR1	1	R1092J
1136.466	2.467	1164218	WORD	n/a	wordpools/wordpool_EN.txt	RAT	6	11	[0, 0, 0]	n/a	FR1	1	R1092J
1138.933	2.434	1166685	WORD	n/a	wordpools/wordpool_EN.txt	MOUTH	7	11	[0, 0, 0]	n/a	FR1	1	R1092J
1141.367	2.551	1169119	WORD	n/a	wordpools/wordpool_EN.txt	CHEEK	8	11	[0, 0, 0]	n/a	FR1	1	R1092J
1143.918	2.45	1171670	WORD	n/a	wordpools/wordpool_EN.txt	GOLD	9	11	[0, 0, 0]	n/a	FR1	1	R1092J
1146.368	2.517	1174120	WORD	n/a	wordpools/wordpool_EN.txt	BENCH	10	11	[0, 0, 0]	n/a	FR1	1	R1092J
1148.885	2.483	1176637	WORD	n/a	wordpools/wordpool_EN.txt	SKUNK	11	11	[0, 0, 0]	n/a	FR1	1	R1092J
1151.368	1.617	1179120	WORD	n/a	wordpools/wordpool_EN.txt	RIB	12	11	[0, 0, 0]	n/a	FR1	1	R1092J
1152.985	0.001	1180737	DISTRACT_START	n/a	n/a	n/a	-999	11	[0, 0, 0]	n/a	FR1	1	R1092J
1152.986	0.017	1180738	START	n/a	n/a	n/a	-999	11	[-999, -999, -999]	n/a	FR1	1	R1092J
1153.003	4.084	1180755	PROB	4.084	n/a	n/a	-999	11	[7, 8, 5]	20	FR1	1	R1092J
1157.087	4.034	1184839	PROB	4.034	n/a	n/a	-999	11	[8, 3, 2]	13	FR1	1	R1092J
1161.121	2.316	1188873	PROB	2.316	n/a	n/a	-999	11	[5, 1, 9]	15	FR1	1	R1092J
1163.437	1.867	1191189	PROB	1.867	n/a	n/a	-999	11	[2, 6, 3]	11	FR1	1	R1092J
1165.304	1.834	1193056	PROB	1.834	n/a	n/a	-999	11	[2, 3, 3]	8	FR1	1	R1092J
1167.138	2.05	1194890	PROB	2.05	n/a	n/a	-999	11	[7, 1, 3]	11	FR1	1	R1092J
1169.188	1.766	1196940	PROB	1.766	n/a	n/a	-999	11	[3, 9, 9]	21	FR1	1	R1092J
1170.954	2.578	1198706	PROB	2.578	n/a	n/a	-999	11	[6, 7, 2]	15	FR1	1	R1092J
1173.532	0.006	1201283	STOP	n/a	n/a	n/a	-999	11	[-999, -999, -999]	n/a	FR1	1	R1092J
1173.538	1.084	1201289	DISTRACT_END	n/a	n/a	n/a	-999	11	[0, 0, 0]	n/a	FR1	1	R1092J
1174.622	3.837	1202373	REC_START	n/a	n/a	n/a	-999	11	[0, 0, 0]	n/a	FR1	1	R1092J
1178.459	1.584	1206210	REC_WORD	1.584	n/a	FUR	3	11	[0, 0, 0]	n/a	FR1	1	R1092J
1180.043	1.61	1207794	REC_WORD	1.61	n/a	LIP	1	11	[0, 0, 0]	n/a	FR1	1	R1092J
1181.653	1.583	1209404	REC_WORD	1.583	n/a	DOG	2	11	[0, 0, 0]	n/a	FR1	1	R1092J
1183.236	1.507	1210987	REC_WORD	1.507	n/a	GEESE	5	11	[0, 0, 0]	n/a	FR1	1	R1092J
1184.743	2.07	1212494	REC_WORD	2.07	n/a	SKUNK	11	11	[0, 0, 0]	n/a	FR1	1	R1092J
1186.813	3.743	1214564	REC_WORD	3.743	n/a	RAT	6	11	[0, 0, 0]	n/a	FR1	1	R1092J
1190.556	0.941	1218307	REC_WORD	0.941	n/a	LIP	1	11	[0, 0, 0]	n/a	FR1	1	R1092J
1191.497	8.775	1219248	REC_WORD	8.775	n/a	FUR	3	11	[0, 0, 0]	n/a	FR1	1	R1092J
1200.272	4.364	1228023	REC_WORD	4.364	n/a	GEESE	5	11	[0, 0, 0]	n/a	FR1	1	R1092J
1204.636	5.29	1232387	REC_END	n/a	n/a	n/a	-999	11	[0, 0, 0]	n/a	FR1	1	R1092J
1209.926	0.0	1237677	TRIAL	n/a	n/a	n/a	-999	12	[0, 0, 0]	n/a	FR1	1	R1092J
1209.926	10.428	1237677	COUNTDOWN_START	n/a	n/a	n/a	-999	12	[0, 0, 0]	n/a	FR1	1	R1092J
1220.354	0.007	1248105	COUNTDOWN_END	n/a	n/a	n/a	-999	12	[0, 0, 0]	n/a	FR1	1	R1092J
1220.361	2.584	1248112	ORIENT	n/a	n/a	n/a	-999	12	[0, 0, 0]	n/a	FR1	1	R1092J
1222.945	2.483	1250696	WORD	n/a	wordpools/wordpool_EN.txt	NET	1	12	[0, 0, 0]	n/a	FR1	1	R1092J
1225.428	2.602	1253179	WORD	n/a	wordpools/wordpool_EN.txt	MOLE	2	12	[0, 0, 0]	n/a	FR1	1	R1092J
1228.03	2.499	1255781	WORD	n/a	wordpools/wordpool_EN.txt	THREAD	3	12	[0, 0, 0]	n/a	FR1	1	R1092J
1230.529	2.485	1258280	WORD	n/a	wordpools/wordpool_EN.txt	STAR	4	12	[0, 0, 0]	n/a	FR1	1	R1092J
1233.014	2.416	1260765	WORD	n/a	wordpools/wordpool_EN.txt	SHELL	5	12	[0, 0, 0]	n/a	FR1	1	R1092J
1235.43	2.45	1263181	WORD	n/a	wordpools/wordpool_EN.txt	SNOW	6	12	[0, 0, 0]	n/a	FR1	1	R1092J
1237.88	2.517	1265631	WORD	n/a	wordpools/wordpool_EN.txt	SHEET	7	12	[0, 0, 0]	n/a	FR1	1	R1092J
1240.397	2.45	1268147	WORD	n/a	wordpools/wordpool_EN.txt	BALL	8	12	[0, 0, 0]	n/a	FR1	1	R1092J
1242.847	2.434	1270597	WORD	n/a	wordpools/wordpool_EN.txt	CLOTH	9	12	[0, 0, 0]	n/a	FR1	1	R1092J
1245.281	2.55	1273031	WORD	n/a	wordpools/wordpool_EN.txt	CLOUD	10	12	[0, 0, 0]	n/a	FR1	1	R1092J
1247.831	2.501	1275581	WORD	n/a	wordpools/wordpool_EN.txt	WHEEL	11	12	[0, 0, 0]	n/a	FR1	1	R1092J
1250.332	1.616	1278082	WORD	n/a	wordpools/wordpool_EN.txt	SHARK	12	12	[0, 0, 0]	n/a	FR1	1	R1092J
1251.948	0.001	1279698	DISTRACT_START	n/a	n/a	n/a	-999	12	[0, 0, 0]	n/a	FR1	1	R1092J
1251.949	0.016	1279699	START	n/a	n/a	n/a	-999	12	[-999, -999, -999]	n/a	FR1	1	R1092J
1251.965	2.967	1279715	PROB	2.967	n/a	n/a	-999	12	[3, 8, 8]	19	FR1	1	R1092J
1254.932	3.101	1282682	PROB	3.101	n/a	n/a	-999	12	[8, 1, 5]	14	FR1	1	R1092J
1258.033	2.167	1285783	PROB	2.167	n/a	n/a	-999	12	[6, 7, 3]	16	FR1	1	R1092J
1260.2	1.901	1287950	PROB	1.901	n/a	n/a	-999	12	[8, 8, 5]	21	FR1	1	R1092J
1262.101	2.1	1289851	PROB	2.1	n/a	n/a	-999	12	[1, 9, 2]	12	FR1	1	R1092J
1264.201	1.9	1291951	PROB	1.9	n/a	n/a	-999	12	[7, 3, 7]	17	FR1	1	R1092J
1266.101	2.183	1293851	PROB	2.183	n/a	n/a	-999	12	[5, 8, 3]	16	FR1	1	R1092J
1268.284	2.65	1296034	PROB	2.65	n/a	n/a	-999	12	[7, 6, 4]	17	FR1	1	R1092J
1270.934	6.042	1298684	PROB	6.042	n/a	n/a	-999	12	[9, 7, 4]	20	FR1	1	R1092J
1276.976	0.009	1304726	STOP	n/a	n/a	n/a	-999	12	[-999, -999, -999]	n/a	FR1	1	R1092J
1276.985	1.185	1304735	DISTRACT_END	n/a	n/a	n/a	-999	12	[0, 0, 0]	n/a	FR1	1	R1092J
1278.17	8.017	1305920	REC_START	n/a	n/a	n/a	-999	12	[0, 0, 0]	n/a	FR1	1	R1092J
1286.187	2.089	1313937	REC_WORD	2.089	n/a	RAIL	-999	12	[0, 0, 0]	n/a	FR1	1	R1092J
1288.276	1.178	1316026	REC_WORD_VV	1.178	n/a	<>	-999	12	[0, 0, 0]	n/a	FR1	1	R1092J
1289.454	5.932	1317204	REC_WORD	5.932	n/a	STAIR	-999	12	[0, 0, 0]	n/a	FR1	1	R1092J
1295.386	2.953	1323136	REC_WORD	2.953	n/a	AIR	-999	12	[0, 0, 0]	n/a	FR1	1	R1092J
1298.339	8.899	1326089	REC_WORD	8.899	n/a	SHEET	7	12	[0, 0, 0]	n/a	FR1	1	R1092J
1307.238	0.946	1334987	REC_WORD	0.946	n/a	WHEEL	11	12	[0, 0, 0]	n/a	FR1	1	R1092J
1308.184	7.539	1335933	REC_END	n/a	n/a	n/a	-999	12	[0, 0, 0]	n/a	FR1	1	R1092J
1315.723	0.001	1343472	COUNTDOWN_START	n/a	n/a	n/a	-999	13	[0, 0, 0]	n/a	FR1	1	R1092J
1315.724	10.427	1343473	TRIAL	n/a	n/a	n/a	-999	13	[0, 0, 0]	n/a	FR1	1	R1092J
1326.151	0.008	1353900	COUNTDOWN_END	n/a	n/a	n/a	-999	13	[0, 0, 0]	n/a	FR1	1	R1092J
1326.159	2.583	1353908	ORIENT	n/a	n/a	n/a	-999	13	[0, 0, 0]	n/a	FR1	1	R1092J
1328.742	2.55	1356491	WORD	n/a	wordpools/wordpool_EN.txt	BOWL	1	13	[0, 0, 0]	n/a	FR1	1	R1092J
1331.292	2.401	1359041	WORD	n/a	wordpools/wordpool_EN.txt	STEAK	2	13	[0, 0, 0]	n/a	FR1	1	R1092J
1333.693	2.501	1361442	WORD	n/a	wordpools/wordpool_EN.txt	CLOWN	3	13	[0, 0, 0]	n/a	FR1	1	R1092J
1336.194	2.466	1363943	WORD	n/a	wordpools/wordpool_EN.txt	EGG	4	13	[0, 0, 0]	n/a	FR1	1	R1092J
1338.66	2.535	1366409	WORD	n/a	wordpools/wordpool_EN.txt	BEAR	5	13	[0, 0, 0]	n/a	FR1	1	R1092J
1341.195	2.383	1368944	WORD	n/a	wordpools/wordpool_EN.txt	SLEEVE	6	13	[0, 0, 0]	n/a	FR1	1	R1092J
1343.578	2.467	1371327	WORD	n/a	wordpools/wordpool_EN.txt	CAKE	7	13	[0, 0, 0]	n/a	FR1	1	R1092J
1346.045	2.467	1373794	WORD	n/a	wordpools/wordpool_EN.txt	LEG	8	13	[0, 0, 0]	n/a	FR1	1	R1092J
1348.512	2.501	1376261	WORD	n/a	wordpools/wordpool_EN.txt	DOLL	9	13	[0, 0, 0]	n/a	FR1	1	R1092J
1351.013	2.449	1378762	WORD	n/a	wordpools/wordpool_EN.txt	ZOO	10	13	[0, 0, 0]	n/a	FR1	1	R1092J
1353.462	2.417	1381211	WORD	n/a	wordpools/wordpool_EN.txt	WHALE	11	13	[0, 0, 0]	n/a	FR1	1	R1092J
1355.879	1.617	1383628	WORD	n/a	wordpools/wordpool_EN.txt	PIT	12	13	[0, 0, 0]	n/a	FR1	1	R1092J
1357.496	0.001	1385245	DISTRACT_START	n/a	n/a	n/a	-999	13	[0, 0, 0]	n/a	FR1	1	R1092J
1357.497	0.016	1385246	START	n/a	n/a	n/a	-999	13	[-999, -999, -999]	n/a	FR1	1	R1092J
1357.513	2.933	1385262	PROB	2.933	n/a	n/a	-999	13	[5, 5, 4]	14	FR1	1	R1092J
1360.446	5.268	1388195	PROB	5.268	n/a	n/a	-999	13	[7, 9, 7]	23	FR1	1	R1092J
1365.714	3.485	1393463	PROB	3.485	n/a	n/a	-999	13	[2, 6, 5]	14	FR1	1	R1092J
1369.199	2.299	1396948	PROB	2.299	n/a	n/a	-999	13	[4, 5, 7]	16	FR1	1	R1092J
1371.498	5.367	1399247	PROB	5.367	n/a	n/a	-999	13	[9, 7, 8]	24	FR1	1	R1092J
1376.865	2.253	1404613	PROB	2.253	n/a	n/a	-999	13	[4, 6, 9]	19	FR1	1	R1092J
1379.118	0.015	1406866	STOP	n/a	n/a	n/a	-999	13	[-999, -999, -999]	n/a	FR1	1	R1092J
1379.133	1.183	1406881	DISTRACT_END	n/a	n/a	n/a	-999	13	[0, 0, 0]	n/a	FR1	1	R1092J
1380.316	2.768	1408064	REC_START	n/a	n/a	n/a	-999	13	[0, 0, 0]	n/a	FR1	1	R1092J
1383.084	1.907	1410832	REC_WORD	1.907	n/a	STEAK	2	13	[0, 0, 0]	n/a	FR1	1	R1092J
1384.991	2.726	1412739	REC_WORD	2.726	n/a	WHALE	11	13	[0, 0, 0]	n/a	FR1	1	R1092J
1387.717	2.02	1415465	REC_WORD	2.02	n/a	PIT	12	13	[0, 0, 0]	n/a	FR1	1	R1092J
1389.737	3.059	1417485	REC_WORD	3.059	n/a	BOWL	1	13	[0, 0, 0]	n/a	FR1	1	R1092J
1392.796	7.556	1420544	REC_WORD	7.556	n/a	CLOUD	-999	13	[0, 0, 0]	n/a	FR1	1	R1092J
1400.352	4.17	1428100	REC_WORD	4.17	n/a	FOX	-999	13	[0, 0, 0]	n/a	FR1	1	R1092J
1404.522	5.809	1432270	REC_WORD	5.809	n/a	TRAIL	-999	13	[0, 0, 0]	n/a	FR1	1	R1092J
1410.331	3.989	1438079	REC_END	n/a	n/a	n/a	-999	13	[0, 0, 0]	n/a	FR1	1	R1092J
1414.32	0.001	1442068	COUNTDOWN_START	n/a	n/a	n/a	-999	14	[0, 0, 0]	n/a	FR1	1	R1092J
1414.321	10.427	1442069	TRIAL	n/a	n/a	n/a	-999	14	[0, 0, 0]	n/a	FR1	1	R1092J
1424.748	0.007	1452496	COUNTDOWN_END	n/a	n/a	n/a	-999	14	[0, 0, 0]	n/a	FR1	1	R1092J
1424.755	2.5	1452503	ORIENT	n/a	n/a	n/a	-999	14	[0, 0, 0]	n/a	FR1	1	R1092J
1427.255	2.567	1455003	WORD	n/a	wordpools/wordpool_EN.txt	FLAME	1	14	[0, 0, 0]	n/a	FR1	1	R1092J
1429.822	2.534	1457570	WORD	n/a	wordpools/wordpool_EN.txt	SHEEP	2	14	[0, 0, 0]	n/a	FR1	1	R1092J
1432.356	2.484	1460104	WORD	n/a	wordpools/wordpool_EN.txt	WAND	3	14	[0, 0, 0]	n/a	FR1	1	R1092J
1434.84	2.466	1462588	WORD	n/a	wordpools/wordpool_EN.txt	SWAMP	4	14	[0, 0, 0]	n/a	FR1	1	R1092J
1437.306	2.501	1465054	WORD	n/a	wordpools/wordpool_EN.txt	CORN	5	14	[0, 0, 0]	n/a	FR1	1	R1092J
1439.807	2.467	1467555	WORD	n/a	wordpools/wordpool_EN.txt	BRUSH	6	14	[0, 0, 0]	n/a	FR1	1	R1092J
1442.274	2.434	1470021	WORD	n/a	wordpools/wordpool_EN.txt	SKY	7	14	[0, 0, 0]	n/a	FR1	1	R1092J
1444.708	2.6	1472455	WORD	n/a	wordpools/wordpool_EN.txt	TENT	8	14	[0, 0, 0]	n/a	FR1	1	R1092J
1447.308	2.417	1475055	WORD	n/a	wordpools/wordpool_EN.txt	OAK	9	14	[0, 0, 0]	n/a	FR1	1	R1092J
1449.725	2.501	1477472	WORD	n/a	wordpools/wordpool_EN.txt	JEEP	10	14	[0, 0, 0]	n/a	FR1	1	R1092J
1452.226	2.533	1479973	WORD	n/a	wordpools/wordpool_EN.txt	CROW	11	14	[0, 0, 0]	n/a	FR1	1	R1092J
1454.759	1.617	1482506	WORD	n/a	wordpools/wordpool_EN.txt	LAKE	12	14	[0, 0, 0]	n/a	FR1	1	R1092J
1456.376	0.001	1484123	DISTRACT_START	n/a	n/a	n/a	-999	14	[0, 0, 0]	n/a	FR1	1	R1092J
1456.377	0.016	1484124	START	n/a	n/a	n/a	-999	14	[-999, -999, -999]	n/a	FR1	1	R1092J
1456.393	3.334	1484140	PROB	3.334	n/a	n/a	-999	14	[2, 4, 3]	9	FR1	1	R1092J
1459.727	2.233	1487474	PROB	2.233	n/a	n/a	-999	14	[1, 5, 7]	13	FR1	1	R1092J
1461.96	2.484	1489707	PROB	2.484	n/a	n/a	-999	14	[8, 3, 6]	17	FR1	1	R1092J
1464.444	1.817	1492191	PROB	1.817	n/a	n/a	-999	14	[8, 8, 3]	19	FR1	1	R1092J
1466.261	2.167	1494008	PROB	2.167	n/a	n/a	-999	14	[2, 4, 4]	10	FR1	1	R1092J
1468.428	2.467	1496175	PROB	2.467	n/a	n/a	-999	14	[6, 6, 2]	14	FR1	1	R1092J
1470.895	3.334	1498642	PROB	3.334	n/a	n/a	-999	14	[3, 2, 2]	7	FR1	1	R1092J
1474.229	1.75	1501976	PROB	1.75	n/a	n/a	-999	14	[2, 2, 1]	5	FR1	1	R1092J
1475.979	2.048	1503726	PROB	2.048	n/a	n/a	-999	14	[4, 8, 3]	15	FR1	1	R1092J
1478.027	0.019	1505774	STOP	n/a	n/a	n/a	-999	14	[-999, -999, -999]	n/a	FR1	1	R1092J
1478.046	1.118	1505793	DISTRACT_END	n/a	n/a	n/a	-999	14	[0, 0, 0]	n/a	FR1	1	R1092J
1479.164	9.629	1506911	REC_START	n/a	n/a	n/a	-999	14	[0, 0, 0]	n/a	FR1	1	R1092J
1488.793	1.171	1516540	REC_WORD	1.171	n/a	RAIL	-999	14	[0, 0, 0]	n/a	FR1	1	R1092J
1489.964	2.35	1517711	REC_WORD	2.35	n/a	CLOWN	-999	14	[0, 0, 0]	n/a	FR1	1	R1092J
1492.314	6.804	1520061	REC_WORD	6.804	n/a	STAIR	-999	14	[0, 0, 0]	n/a	FR1	1	R1092J
1499.118	3.585	1526865	REC_WORD	3.585	n/a	SLOW	-999	14	[0, 0, 0]	n/a	FR1	1	R1092J
1502.703	6.191	1530450	REC_WORD	6.191	n/a	OAK	9	14	[0, 0, 0]	n/a	FR1	1	R1092J
1508.894	0.28	1536640	REC_WORD_VV	0.28	n/a	<>	-999	14	[0, 0, 0]	n/a	FR1	1	R1092J
1509.174	5.51	1536920	REC_END	n/a	n/a	n/a	-999	14	[0, 0, 0]	n/a	FR1	1	R1092J
1514.684	0.0	1542430	COUNTDOWN_START	n/a	n/a	n/a	-999	15	[0, 0, 0]	n/a	FR1	1	R1092J
1514.684	10.428	1542430	TRIAL	n/a	n/a	n/a	-999	15	[0, 0, 0]	n/a	FR1	1	R1092J
1525.112	0.008	1552858	COUNTDOWN_END	n/a	n/a	n/a	-999	15	[0, 0, 0]	n/a	FR1	1	R1092J
1525.12	2.599	1552866	ORIENT	n/a	n/a	n/a	-999	15	[0, 0, 0]	n/a	FR1	1	R1092J
1527.719	2.485	1555465	WORD	n/a	wordpools/wordpool_EN.txt	SUIT	1	15	[0, 0, 0]	n/a	FR1	1	R1092J
1530.204	2.399	1557950	WORD	n/a	wordpools/wordpool_EN.txt	WOLF	2	15	[0, 0, 0]	n/a	FR1	1	R1092J
1532.603	2.552	1560349	WORD	n/a	wordpools/wordpool_EN.txt	MAZE	3	15	[0, 0, 0]	n/a	FR1	1	R1092J
1535.155	2.615	1562901	WORD	n/a	wordpools/wordpool_EN.txt	BOX	4	15	[0, 0, 0]	n/a	FR1	1	R1092J
1537.77	2.551	1565516	WORD	n/a	wordpools/wordpool_EN.txt	CAPE	5	15	[0, 0, 0]	n/a	FR1	1	R1092J
1540.321	2.5	1568067	WORD	n/a	wordpools/wordpool_EN.txt	BEACH	6	15	[0, 0, 0]	n/a	FR1	1	R1092J
1542.821	2.551	1570567	WORD	n/a	wordpools/wordpool_EN.txt	SHIP	7	15	[0, 0, 0]	n/a	FR1	1	R1092J
1545.372	2.566	1573118	WORD	n/a	wordpools/wordpool_EN.txt	SEA	8	15	[0, 0, 0]	n/a	FR1	1	R1092J
1547.938	2.467	1575684	WORD	n/a	wordpools/wordpool_EN.txt	SEAL	9	15	[0, 0, 0]	n/a	FR1	1	R1092J
1550.405	2.517	1578151	WORD	n/a	wordpools/wordpool_EN.txt	SNAIL	10	15	[0, 0, 0]	n/a	FR1	1	R1092J
1552.922	2.401	1580668	WORD	n/a	wordpools/wordpool_EN.txt	SALT	11	15	[0, 0, 0]	n/a	FR1	1	R1092J
1555.323	1.616	1583069	WORD	n/a	wordpools/wordpool_EN.txt	SLUSH	12	15	[0, 0, 0]	n/a	FR1	1	R1092J
1556.939	0.001	1584685	DISTRACT_START	n/a	n/a	n/a	-999	15	[0, 0, 0]	n/a	FR1	1	R1092J
1556.94	0.016	1584686	START	n/a	n/a	n/a	-999	15	[-999, -999, -999]	n/a	FR1	1	R1092J
1556.956	3.734	1584702	PROB	3.734	n/a	n/a	-999	15	[8, 6, 7]	21	FR1	1	R1092J
1560.69	2.284	1588436	PROB	2.284	n/a	n/a	-999	15	[8, 7, 4]	19	FR1	1	R1092J
1562.974	2.267	1590720	PROB	2.267	n/a	n/a	-999	15	[3, 4, 4]	11	FR1	1	R1092J
1565.241	1.733	1592987	PROB	1.733	n/a	n/a	-999	15	[8, 5, 5]	18	FR1	1	R1092J
1566.974	1.884	1594720	PROB	1.884	n/a	n/a	-999	15	[6, 4, 8]	18	FR1	1	R1092J
1568.858	2.284	1596604	PROB	2.284	n/a	n/a	-999	15	[4, 3, 6]	13	FR1	1	R1092J
1571.142	1.867	1598888	PROB	1.867	n/a	n/a	-999	15	[1, 3, 4]	8	FR1	1	R1092J
1573.009	2.117	1600755	PROB	2.117	n/a	n/a	-999	15	[4, 7, 1]	12	FR1	1	R1092J
1575.126	2.152	1602872	PROB	2.152	n/a	n/a	-999	15	[9, 3, 9]	21	FR1	1	R1092J
1577.278	0.014	1605023	STOP	n/a	n/a	n/a	-999	15	[-999, -999, -999]	n/a	FR1	1	R1092J
1577.292	1.118	1605037	DISTRACT_END	n/a	n/a	n/a	-999	15	[0, 0, 0]	n/a	FR1	1	R1092J
1578.41	2.413	1606155	REC_START	n/a	n/a	n/a	-999	15	[0, 0, 0]	n/a	FR1	1	R1092J
1580.823	1.2	1608568	REC_WORD	1.2	n/a	BEACH	6	15	[0, 0, 0]	n/a	FR1	1	R1092J
1582.023	13.889	1609768	REC_WORD	13.889	n/a	SNAIL	10	15	[0, 0, 0]	n/a	FR1	1	R1092J
1595.912	0.79	1623657	REC_WORD	0.79	n/a	PIT	-999	15	[0, 0, 0]	n/a	FR1	1	R1092J
1596.702	2.552	1624447	REC_WORD	2.552	n/a	WHALE	-999	15	[0, 0, 0]	n/a	FR1	1	R1092J
1599.254	2.053	1626999	REC_WORD	2.053	n/a	BEACH	6	15	[0, 0, 0]	n/a	FR1	1	R1092J
1601.307	2.342	1629052	REC_WORD	2.342	n/a	CAPE	5	15	[0, 0, 0]	n/a	FR1	1	R1092J
1603.649	4.771	1631394	REC_WORD	4.771	n/a	SHIP	7	15	[0, 0, 0]	n/a	FR1	1	R1092J
1608.42	5.127	1636165	REC_END	n/a	n/a	n/a	-999	15	[0, 0, 0]	n/a	FR1	1	R1092J
1613.547	0.0	1641292	TRIAL	n/a	n/a	n/a	-999	16	[0, 0, 0]	n/a	FR1	1	R1092J
1613.547	10.428	1641292	COUNTDOWN_START	n/a	n/a	n/a	-999	16	[0, 0, 0]	n/a	FR1	1	R1092J
1623.975	0.007	1651720	COUNTDOWN_END	n/a	n/a	n/a	-999	16	[0, 0, 0]	n/a	FR1	1	R1092J
1623.982	2.583	1651727	ORIENT	n/a	n/a	n/a	-999	16	[0, 0, 0]	n/a	FR1	1	R1092J
1626.565	2.502	1654310	WORD	n/a	wordpools/wordpool_EN.txt	BAND	1	16	[0, 0, 0]	n/a	FR1	1	R1092J
1629.067	2.382	1656812	WORD	n/a	wordpools/wordpool_EN.txt	TRAIN	2	16	[0, 0, 0]	n/a	FR1	1	R1092J
1631.449	2.501	1659194	WORD	n/a	wordpools/wordpool_EN.txt	VAN	3	16	[0, 0, 0]	n/a	FR1	1	R1092J
1633.95	2.517	1661695	WORD	n/a	wordpools/wordpool_EN.txt	FLUTE	4	16	[0, 0, 0]	n/a	FR1	1	R1092J
1636.467	2.601	1664212	WORD	n/a	wordpools/wordpool_EN.txt	HAT	5	16	[0, 0, 0]	n/a	FR1	1	R1092J
1639.068	2.583	1666813	WORD	n/a	wordpools/wordpool_EN.txt	DRUM	6	16	[0, 0, 0]	n/a	FR1	1	R1092J
1641.651	2.518	1669396	WORD	n/a	wordpools/wordpool_EN.txt	CART	7	16	[0, 0, 0]	n/a	FR1	1	R1092J
1644.169	2.533	1671913	WORD	n/a	wordpools/wordpool_EN.txt	STICK	8	16	[0, 0, 0]	n/a	FR1	1	R1092J
1646.702	2.401	1674446	WORD	n/a	wordpools/wordpool_EN.txt	SOCK	9	16	[0, 0, 0]	n/a	FR1	1	R1092J
1649.103	2.449	1676847	WORD	n/a	wordpools/wordpool_EN.txt	DIME	10	16	[0, 0, 0]	n/a	FR1	1	R1092J
1651.552	2.485	1679296	WORD	n/a	wordpools/wordpool_EN.txt	FACE	11	16	[0, 0, 0]	n/a	FR1	1	R1092J
1654.037	1.616	1681781	WORD	n/a	wordpools/wordpool_EN.txt	SKI	12	16	[0, 0, 0]	n/a	FR1	1	R1092J
1655.653	0.001	1683397	DISTRACT_START	n/a	n/a	n/a	-999	16	[0, 0, 0]	n/a	FR1	1	R1092J
1655.654	0.015	1683398	START	n/a	n/a	n/a	-999	16	[-999, -999, -999]	n/a	FR1	1	R1092J
1655.669	4.284	1683413	PROB	4.284	n/a	n/a	-999	16	[4, 9, 7]	20	FR1	1	R1092J
1659.953	1.951	1687697	PROB	1.951	n/a	n/a	-999	16	[8, 6, 2]	16	FR1	1	R1092J
1661.904	2.268	1689648	PROB	2.268	n/a	n/a	-999	16	[2, 2, 5]	9	FR1	1	R1092J
1664.172	2.9	1691916	PROB	2.9	n/a	n/a	-999	16	[5, 8, 1]	14	FR1	1	R1092J
1667.072	1.766	1694816	PROB	1.766	n/a	n/a	-999	16	[8, 2, 9]	19	FR1	1	R1092J
1668.838	2.617	1696582	PROB	2.617	n/a	n/a	-999	16	[5, 6, 1]	12	FR1	1	R1092J
1671.455	3.184	1699199	PROB	3.184	n/a	n/a	-999	16	[6, 7, 5]	18	FR1	1	R1092J
1674.639	3.691	1702383	PROB	3.691	n/a	n/a	-999	16	[9, 3, 5]	17	FR1	1	R1092J
1678.33	0.009	1706074	STOP	n/a	n/a	n/a	-999	16	[-999, -999, -999]	n/a	FR1	1	R1092J
1678.339	1.051	1706083	DISTRACT_END	n/a	n/a	n/a	-999	16	[0, 0, 0]	n/a	FR1	1	R1092J
1679.39	9.553	1707134	REC_START	n/a	n/a	n/a	-999	16	[0, 0, 0]	n/a	FR1	1	R1092J
1688.943	0.712	1716687	REC_WORD	0.712	n/a	WHALE	-999	16	[0, 0, 0]	n/a	FR1	1	R1092J
1689.655	4.942	1717399	REC_WORD	4.942	n/a	SNAIL	-999	16	[0, 0, 0]	n/a	FR1	1	R1092J
1694.597	3.409	1722341	REC_WORD	3.409	n/a	COAT	-999	16	[0, 0, 0]	n/a	FR1	1	R1092J
1698.006	6.93	1725750	REC_WORD	6.93	n/a	BEAM	-999	16	[0, 0, 0]	n/a	FR1	1	R1092J
1704.936	2.557	1732680	REC_WORD	2.557	n/a	BOX	-999	16	[0, 0, 0]	n/a	FR1	1	R1092J
1707.493	1.907	1735237	REC_WORD	1.907	n/a	HAT	5	16	[0, 0, 0]	n/a	FR1	1	R1092J
1709.4	3.628	1737144	REC_END	n/a	n/a	n/a	-999	16	[0, 0, 0]	n/a	FR1	1	R1092J
1713.028	0.001	1740771	COUNTDOWN_START	n/a	n/a	n/a	-999	17	[0, 0, 0]	n/a	FR1	1	R1092J
1713.029	10.427	1740772	TRIAL	n/a	n/a	n/a	-999	17	[0, 0, 0]	n/a	FR1	1	R1092J
1723.456	0.006	1751199	COUNTDOWN_END	n/a	n/a	n/a	-999	17	[0, 0, 0]	n/a	FR1	1	R1092J
1723.462	2.601	1751205	ORIENT	n/a	n/a	n/a	-999	17	[0, 0, 0]	n/a	FR1	1	R1092J
1726.063	2.6	1753806	WORD	n/a	wordpools/wordpool_EN.txt	MULE	1	17	[0, 0, 0]	n/a	FR1	1	R1092J
1728.663	2.534	1756406	WORD	n/a	wordpools/wordpool_EN.txt	SPEAR	2	17	[0, 0, 0]	n/a	FR1	1	R1092J
1731.197	2.45	1758940	WORD	n/a	wordpools/wordpool_EN.txt	LAMB	3	17	[0, 0, 0]	n/a	FR1	1	R1092J
1733.647	2.417	1761390	WORD	n/a	wordpools/wordpool_EN.txt	MOOSE	4	17	[0, 0, 0]	n/a	FR1	1	R1092J
1736.064	2.45	1763807	WORD	n/a	wordpools/wordpool_EN.txt	FLEA	5	17	[0, 0, 0]	n/a	FR1	1	R1092J
1738.514	2.417	1766257	WORD	n/a	wordpools/wordpool_EN.txt	GRASS	6	17	[0, 0, 0]	n/a	FR1	1	R1092J
1740.931	2.634	1768674	WORD	n/a	wordpools/wordpool_EN.txt	HORSE	7	17	[0, 0, 0]	n/a	FR1	1	R1092J
1743.565	2.601	1771308	WORD	n/a	wordpools/wordpool_EN.txt	SOUP	8	17	[0, 0, 0]	n/a	FR1	1	R1092J
1746.166	2.416	1773909	WORD	n/a	wordpools/wordpool_EN.txt	STEAM	9	17	[0, 0, 0]	n/a	FR1	1	R1092J
1748.582	2.418	1776325	WORD	n/a	wordpools/wordpool_EN.txt	VINE	10	17	[0, 0, 0]	n/a	FR1	1	R1092J
1751.0	2.449	1778743	WORD	n/a	wordpools/wordpool_EN.txt	PRINCE	11	17	[0, 0, 0]	n/a	FR1	1	R1092J
1753.449	1.601	1781192	WORD	n/a	wordpools/wordpool_EN.txt	SPARK	12	17	[0, 0, 0]	n/a	FR1	1	R1092J
1755.05	0.001	1782793	DISTRACT_START	n/a	n/a	n/a	-999	17	[0, 0, 0]	n/a	FR1	1	R1092J
1755.051	0.016	1782794	START	n/a	n/a	n/a	-999	17	[-999, -999, -999]	n/a	FR1	1	R1092J
1755.067	2.783	1782810	PROB	2.783	n/a	n/a	-999	17	[5, 8, 5]	18	FR1	1	R1092J
1757.85	3.252	1785593	PROB	3.252	n/a	n/a	-999	17	[2, 4, 7]	13	FR1	1	R1092J
1761.102	2.1	1788845	PROB	2.1	n/a	n/a	-999	17	[5, 6, 6]	17	FR1	1	R1092J
1763.202	2.216	1790945	PROB	2.216	n/a	n/a	-999	17	[3, 7, 4]	14	FR1	1	R1092J
1765.418	3.033	1793161	PROB	3.033	n/a	n/a	-999	17	[7, 5, 3]	15	FR1	1	R1092J
1768.451	2.067	1796194	PROB	2.067	n/a	n/a	-999	17	[6, 9, 1]	16	FR1	1	R1092J
1770.518	2.552	1798261	PROB	2.552	n/a	n/a	-999	17	[8, 3, 3]	14	FR1	1	R1092J
1773.07	2.994	1800813	PROB	2.994	n/a	n/a	-999	17	[8, 3, 9]	20	FR1	1	R1092J
1776.064	0.006	1803807	STOP	n/a	n/a	n/a	-999	17	[-999, -999, -999]	n/a	FR1	1	R1092J
1776.07	1.134	1803813	DISTRACT_END	n/a	n/a	n/a	-999	17	[0, 0, 0]	n/a	FR1	1	R1092J
1777.204	3.985	1804947	REC_START	n/a	n/a	n/a	-999	17	[0, 0, 0]	n/a	FR1	1	R1092J
1781.189	13.138	1808931	REC_WORD	13.138	n/a	LAMB	3	17	[0, 0, 0]	n/a	FR1	1	R1092J
1794.327	3.995	1822069	REC_WORD	3.995	n/a	MULE	1	17	[0, 0, 0]	n/a	FR1	1	R1092J
1798.322	2.807	1826064	REC_WORD	2.807	n/a	AIR	-999	17	[0, 0, 0]	n/a	FR1	1	R1092J
1801.129	6.085	1828871	REC_WORD	6.085	n/a	MOOSE	4	17	[0, 0, 0]	n/a	FR1	1	R1092J
1807.214	4.143	1834956	REC_END	n/a	n/a	n/a	-999	17	[0, 0, 0]	n/a	FR1	1	R1092J
1811.357	0.0	1839099	COUNTDOWN_START	n/a	n/a	n/a	-999	18	[0, 0, 0]	n/a	FR1	1	R1092J
1811.357	10.428	1839099	TRIAL	n/a	n/a	n/a	-999	18	[0, 0, 0]	n/a	FR1	1	R1092J
1821.785	0.007	1849527	COUNTDOWN_END	n/a	n/a	n/a	-999	18	[0, 0, 0]	n/a	FR1	1	R1092J
1821.792	2.451	1849534	ORIENT	n/a	n/a	n/a	-999	18	[0, 0, 0]	n/a	FR1	1	R1092J
1824.243	2.533	1851985	WORD	n/a	wordpools/wordpool_EN.txt	MOTH	1	18	[0, 0, 0]	n/a	FR1	1	R1092J
1826.776	2.385	1854518	WORD	n/a	wordpools/wordpool_EN.txt	SHIELD	2	18	[0, 0, 0]	n/a	FR1	1	R1092J
1829.161	2.582	1856903	WORD	n/a	wordpools/wordpool_EN.txt	FUDGE	3	18	[0, 0, 0]	n/a	FR1	1	R1092J
1831.743	2.402	1859485	WORD	n/a	wordpools/wordpool_EN.txt	POND	4	18	[0, 0, 0]	n/a	FR1	1	R1092J
1834.145	2.616	1861887	WORD	n/a	wordpools/wordpool_EN.txt	SAIL	5	18	[0, 0, 0]	n/a	FR1	1	R1092J
1836.761	2.517	1864503	WORD	n/a	wordpools/wordpool_EN.txt	BEE	6	18	[0, 0, 0]	n/a	FR1	1	R1092J
1839.278	2.533	1867020	WORD	n/a	wordpools/wordpool_EN.txt	ROOT	7	18	[0, 0, 0]	n/a	FR1	1	R1092J
1841.811	2.517	1869553	WORD	n/a	wordpools/wordpool_EN.txt	BOAT	8	18	[0, 0, 0]	n/a	FR1	1	R1092J
1844.328	2.467	1872070	WORD	n/a	wordpools/wordpool_EN.txt	ANT	9	18	[0, 0, 0]	n/a	FR1	1	R1092J
1846.795	2.501	1874536	WORD	n/a	wordpools/wordpool_EN.txt	WAVE	10	18	[0, 0, 0]	n/a	FR1	1	R1092J
1849.296	2.617	1877037	WORD	n/a	wordpools/wordpool_EN.txt	SPONGE	11	18	[0, 0, 0]	n/a	FR1	1	R1092J
1851.913	1.617	1879654	WORD	n/a	wordpools/wordpool_EN.txt	BRANCH	12	18	[0, 0, 0]	n/a	FR1	1	R1092J
1853.53	0.001	1881271	DISTRACT_START	n/a	n/a	n/a	-999	18	[0, 0, 0]	n/a	FR1	1	R1092J
1853.531	0.015	1881272	START	n/a	n/a	n/a	-999	18	[-999, -999, -999]	n/a	FR1	1	R1092J
1853.546	3.084	1881287	PROB	3.084	n/a	n/a	-999	18	[1, 4, 2]	7	FR1	1	R1092J
1856.63	3.084	1884371	PROB	3.084	n/a	n/a	-999	18	[7, 4, 2]	13	FR1	1	R1092J
1859.714	2.083	1887455	PROB	2.083	n/a	n/a	-999	18	[3, 3, 6]	12	FR1	1	R1092J
1861.797	3.867	1889538	PROB	3.867	n/a	n/a	-999	18	[5, 2, 9]	16	FR1	1	R1092J
1865.664	2.535	1893405	PROB	2.535	n/a	n/a	-999	18	[9, 7, 2]	18	FR1	1	R1092J
1868.199	2.683	1895940	PROB	2.683	n/a	n/a	-999	18	[2, 2, 8]	12	FR1	1	R1092J
1870.882	3.402	1898623	PROB	3.402	n/a	n/a	-999	18	[3, 6, 1]	10	FR1	1	R1092J
1874.284	0.015	1902025	STOP	n/a	n/a	n/a	-999	18	[-999, -999, -999]	n/a	FR1	1	R1092J
1874.299	1.084	1902040	DISTRACT_END	n/a	n/a	n/a	-999	18	[0, 0, 0]	n/a	FR1	1	R1092J
1875.383	7.587	1903124	REC_START	n/a	n/a	n/a	-999	18	[0, 0, 0]	n/a	FR1	1	R1092J
1882.97	3.952	1910711	REC_WORD	3.952	n/a	SNAIL	-999	18	[0, 0, 0]	n/a	FR1	1	R1092J
1886.922	1.753	1914663	REC_WORD	1.753	n/a	WHALE	-999	18	[0, 0, 0]	n/a	FR1	1	R1092J
1888.675	9.671	1916416	REC_WORD	9.671	n/a	BEACH	-999	18	[0, 0, 0]	n/a	FR1	1	R1092J
1898.346	3.042	1926087	REC_WORD	3.042	n/a	FUDGE	3	18	[0, 0, 0]	n/a	FR1	1	R1092J
1901.388	2.548	1929129	REC_WORD	2.548	n/a	BOAT	8	18	[0, 0, 0]	n/a	FR1	1	R1092J
1903.936	1.454	1931677	REC_WORD	1.454	n/a	WAVE	10	18	[0, 0, 0]	n/a	FR1	1	R1092J
1905.39	2.864	1933131	REC_END	n/a	n/a	n/a	-999	18	[0, 0, 0]	n/a	FR1	1	R1092J
1908.254	0.0	1935995	TRIAL	n/a	n/a	n/a	-999	19	[0, 0, 0]	n/a	FR1	1	R1092J
1908.254	10.428	1935995	COUNTDOWN_START	n/a	n/a	n/a	-999	19	[0, 0, 0]	n/a	FR1	1	R1092J
1918.682	0.006	1946422	COUNTDOWN_END	n/a	n/a	n/a	-999	19	[0, 0, 0]	n/a	FR1	1	R1092J
1918.688	2.518	1946428	ORIENT	n/a	n/a	n/a	-999	19	[0, 0, 0]	n/a	FR1	1	R1092J
1921.206	2.483	1948946	WORD	n/a	wordpools/wordpool_EN.txt	FAN	1	19	[0, 0, 0]	n/a	FR1	1	R1092J
1923.689	2.567	1951429	WORD	n/a	wordpools/wordpool_EN.txt	SIGN	2	19	[0, 0, 0]	n/a	FR1	1	R1092J
1926.256	2.55	1953996	WORD	n/a	wordpools/wordpool_EN.txt	FLAG	3	19	[0, 0, 0]	n/a	FR1	1	R1092J
1928.806	2.617	1956546	WORD	n/a	wordpools/wordpool_EN.txt	CROWN	4	19	[0, 0, 0]	n/a	FR1	1	R1092J
1931.423	2.417	1959163	WORD	n/a	wordpools/wordpool_EN.txt	POLE	5	19	[0, 0, 0]	n/a	FR1	1	R1092J
1933.84	2.501	1961580	WORD	n/a	wordpools/wordpool_EN.txt	NAIL	6	19	[0, 0, 0]	n/a	FR1	1	R1092J
1936.341	2.6	1964081	WORD	n/a	wordpools/wordpool_EN.txt	VEST	7	19	[0, 0, 0]	n/a	FR1	1	R1092J
1938.941	2.567	1966681	WORD	n/a	wordpools/wordpool_EN.txt	PURSE	8	19	[0, 0, 0]	n/a	FR1	1	R1092J
1941.508	2.552	1969248	WORD	n/a	wordpools/wordpool_EN.txt	PIN	9	19	[0, 0, 0]	n/a	FR1	1	R1092J
1944.06	2.515	1971800	WORD	n/a	wordpools/wordpool_EN.txt	ROSE	10	19	[0, 0, 0]	n/a	FR1	1	R1092J
1946.575	2.418	1974315	WORD	n/a	wordpools/wordpool_EN.txt	TANK	11	19	[0, 0, 0]	n/a	FR1	1	R1092J
1948.993	1.616	1976733	WORD	n/a	wordpools/wordpool_EN.txt	PEA	12	19	[0, 0, 0]	n/a	FR1	1	R1092J
1950.609	0.002	1978349	DISTRACT_START	n/a	n/a	n/a	-999	19	[0, 0, 0]	n/a	FR1	1	R1092J
1950.611	0.015	1978351	START	n/a	n/a	n/a	-999	19	[-999, -999, -999]	n/a	FR1	1	R1092J
1950.626	3.468	1978366	PROB	3.468	n/a	n/a	-999	19	[7, 8, 7]	22	FR1	1	R1092J
1954.094	2.984	1981834	PROB	2.984	n/a	n/a	-999	19	[9, 3, 8]	20	FR1	1	R1092J
1957.078	2.283	1984818	PROB	2.283	n/a	n/a	-999	19	[2, 7, 5]	14	FR1	1	R1092J
1959.361	2.583	1987101	PROB	2.583	n/a	n/a	-999	19	[4, 5, 7]	16	FR1	1	R1092J
1961.944	3.135	1989684	PROB	3.135	n/a	n/a	-999	19	[2, 3, 9]	14	FR1	1	R1092J
1965.079	1.849	1992819	PROB	1.849	n/a	n/a	-999	19	[7, 3, 3]	13	FR1	1	R1092J
1966.928	2.951	1994668	PROB	2.951	n/a	n/a	-999	19	[8, 7, 8]	23	FR1	1	R1092J
1969.879	1.706	1997619	PROB	1.706	n/a	n/a	-999	19	[1, 1, 3]	5	FR1	1	R1092J
1971.585	0.011	1999325	STOP	n/a	n/a	n/a	-999	19	[-999, -999, -999]	n/a	FR1	1	R1092J
1971.596	1.217	1999336	DISTRACT_END	n/a	n/a	n/a	-999	19	[0, 0, 0]	n/a	FR1	1	R1092J
1972.813	5.731	2000553	REC_START	n/a	n/a	n/a	-999	19	[0, 0, 0]	n/a	FR1	1	R1092J
1978.544	3.456	2006284	REC_WORD	3.456	n/a	CROWN	4	19	[0, 0, 0]	n/a	FR1	1	R1092J
1982.0	1.378	2009739	REC_WORD	1.378	n/a	SNAIL	-999	19	[0, 0, 0]	n/a	FR1	1	R1092J
1983.378	4.401	2011117	REC_WORD	4.401	n/a	WAVE	-999	19	[0, 0, 0]	n/a	FR1	1	R1092J
1987.779	5.378	2015518	REC_WORD	5.378	n/a	FOX	-999	19	[0, 0, 0]	n/a	FR1	1	R1092J
1993.157	7.184	2020896	REC_WORD	7.184	n/a	TRUMPET	-999	19	[0, 0, 0]	n/a	FR1	1	R1092J
2000.341	2.482	2028080	REC_WORD	2.482	n/a	BEACH	-999	19	[0, 0, 0]	n/a	FR1	1	R1092J
2002.823	4.395	2030562	REC_END	n/a	n/a	n/a	-999	19	[0, 0, 0]	n/a	FR1	1	R1092J
2007.218	0.0	2034957	TRIAL	n/a	n/a	n/a	-999	20	[0, 0, 0]	n/a	FR1	1	R1092J
2007.218	10.428	2034957	COUNTDOWN_START	n/a	n/a	n/a	-999	20	[0, 0, 0]	n/a	FR1	1	R1092J
2017.646	0.006	2045385	COUNTDOWN_END	n/a	n/a	n/a	-999	20	[0, 0, 0]	n/a	FR1	1	R1092J
2017.652	2.434	2045391	ORIENT	n/a	n/a	n/a	-999	20	[0, 0, 0]	n/a	FR1	1	R1092J
2020.086	2.55	2047825	WORD	n/a	wordpools/wordpool_EN.txt	BEAN	1	20	[0, 0, 0]	n/a	FR1	1	R1092J
2022.636	2.501	2050375	WORD	n/a	wordpools/wordpool_EN.txt	CRANE	2	20	[0, 0, 0]	n/a	FR1	1	R1092J
2025.137	2.583	2052876	WORD	n/a	wordpools/wordpool_EN.txt	GOAT	3	20	[0, 0, 0]	n/a	FR1	1	R1092J
2027.72	2.401	2055459	WORD	n/a	wordpools/wordpool_EN.txt	TOY	4	20	[0, 0, 0]	n/a	FR1	1	R1092J
2030.121	2.516	2057860	WORD	n/a	wordpools/wordpool_EN.txt	TOAD	5	20	[0, 0, 0]	n/a	FR1	1	R1092J
2032.637	2.601	2060376	WORD	n/a	wordpools/wordpool_EN.txt	TOAST	6	20	[0, 0, 0]	n/a	FR1	1	R1092J
2035.238	2.433	2062977	WORD	n/a	wordpools/wordpool_EN.txt	JAR	7	20	[0, 0, 0]	n/a	FR1	1	R1092J
2037.671	2.584	2065410	WORD	n/a	wordpools/wordpool_EN.txt	BRIDGE	8	20	[0, 0, 0]	n/a	FR1	1	R1092J
2040.255	2.567	2067994	WORD	n/a	wordpools/wordpool_EN.txt	BIRD	9	20	[0, 0, 0]	n/a	FR1	1	R1092J
2042.822	2.567	2070561	WORD	n/a	wordpools/wordpool_EN.txt	DUCK	10	20	[0, 0, 0]	n/a	FR1	1	R1092J
2045.389	2.5	2073128	WORD	n/a	wordpools/wordpool_EN.txt	COW	11	20	[0, 0, 0]	n/a	FR1	1	R1092J
2047.889	1.617	2075627	WORD	n/a	wordpools/wordpool_EN.txt	WORM	12	20	[0, 0, 0]	n/a	FR1	1	R1092J
2049.506	0.001	2077244	DISTRACT_START	n/a	n/a	n/a	-999	20	[0, 0, 0]	n/a	FR1	1	R1092J
2049.507	0.016	2077245	START	n/a	n/a	n/a	-999	20	[-999, -999, -999]	n/a	FR1	1	R1092J
2049.523	3.233	2077261	PROB	3.233	n/a	n/a	-999	20	[7, 5, 5]	17	FR1	1	R1092J
2052.756	3.651	2080494	PROB	3.651	n/a	n/a	-999	20	[5, 6, 2]	13	FR1	1	R1092J
2056.407	2.184	2084145	PROB	2.184	n/a	n/a	-999	20	[1, 2, 4]	7	FR1	1	R1092J
2058.591	4.2	2086329	PROB	4.2	n/a	n/a	-999	20	[1, 5, 8]	14	FR1	1	R1092J
2062.791	1.701	2090529	PROB	1.701	n/a	n/a	-999	20	[6, 5, 5]	16	FR1	1	R1092J
2064.492	3.517	2092230	PROB	3.517	n/a	n/a	-999	20	[9, 2, 9]	20	FR1	1	R1092J
2068.009	2.596	2095747	PROB	2.596	n/a	n/a	-999	20	[7, 8, 8]	23	FR1	1	R1092J
2070.605	0.021	2098343	STOP	n/a	n/a	n/a	-999	20	[-999, -999, -999]	n/a	FR1	1	R1092J
2070.626	1.134	2098364	DISTRACT_END	n/a	n/a	n/a	-999	20	[0, 0, 0]	n/a	FR1	1	R1092J
2071.76	3.003	2099498	REC_START	n/a	n/a	n/a	-999	20	[0, 0, 0]	n/a	FR1	1	R1092J
2074.763	3.717	2102501	REC_WORD	3.717	n/a	CROWN	-999	20	[0, 0, 0]	n/a	FR1	1	R1092J
2078.48	3.588	2106218	REC_WORD	3.588	n/a	SNAIL	-999	20	[0, 0, 0]	n/a	FR1	1	R1092J
2082.068	2.037	2109806	REC_WORD	2.037	n/a	COAT	-999	20	[0, 0, 0]	n/a	FR1	1	R1092J
2084.105	7.444	2111843	REC_WORD	7.444	n/a	BEAN	1	20	[0, 0, 0]	n/a	FR1	1	R1092J
2091.549	5.329	2119287	REC_WORD	5.329	n/a	FLAME	-999	20	[0, 0, 0]	n/a	FR1	1	R1092J
2096.878	4.892	2124616	REC_WORD	4.892	n/a	OAR	-999	20	[0, 0, 0]	n/a	FR1	1	R1092J
2101.77	6.027	2129508	REC_END	n/a	n/a	n/a	-999	20	[0, 0, 0]	n/a	FR1	1	R1092J
2107.797	0.0	2135535	TRIAL	n/a	n/a	n/a	-999	21	[0, 0, 0]	n/a	FR1	1	R1092J
2107.797	10.428	2135535	COUNTDOWN_START	n/a	n/a	n/a	-999	21	[0, 0, 0]	n/a	FR1	1	R1092J
2118.225	0.007	2145962	COUNTDOWN_END	n/a	n/a	n/a	-999	21	[0, 0, 0]	n/a	FR1	1	R1092J
2118.232	2.384	2145969	ORIENT	n/a	n/a	n/a	-999	21	[0, 0, 0]	n/a	FR1	1	R1092J
2120.616	2.634	2148353	WORD	n/a	wordpools/wordpool_EN.txt	GLOVE	1	21	[0, 0, 0]	n/a	FR1	1	R1092J
2123.25	2.583	2150987	WORD	n/a	wordpools/wordpool_EN.txt	CHAIR	2	21	[0, 0, 0]	n/a	FR1	1	R1092J
2125.833	2.6	2153570	WORD	n/a	wordpools/wordpool_EN.txt	ARM	3	21	[0, 0, 0]	n/a	FR1	1	R1092J
2128.433	2.451	2156170	WORD	n/a	wordpools/wordpool_EN.txt	BOARD	4	21	[0, 0, 0]	n/a	FR1	1	R1092J
2130.884	2.433	2158621	WORD	n/a	wordpools/wordpool_EN.txt	FISH	5	21	[0, 0, 0]	n/a	FR1	1	R1092J
2133.317	2.55	2161054	WORD	n/a	wordpools/wordpool_EN.txt	SHIRT	6	21	[0, 0, 0]	n/a	FR1	1	R1092J
2135.867	2.551	2163604	WORD	n/a	wordpools/wordpool_EN.txt	TEETH	7	21	[0, 0, 0]	n/a	FR1	1	R1092J
2138.418	2.434	2166155	WORD	n/a	wordpools/wordpool_EN.txt	BARN	8	21	[0, 0, 0]	n/a	FR1	1	R1092J
2140.852	2.4	2168589	WORD	n/a	wordpools/wordpool_EN.txt	SHRIMP	9	21	[0, 0, 0]	n/a	FR1	1	R1092J
2143.252	2.55	2170989	WORD	n/a	wordpools/wordpool_EN.txt	CHALK	10	21	[0, 0, 0]	n/a	FR1	1	R1092J
2145.802	2.534	2173539	WORD	n/a	wordpools/wordpool_EN.txt	CLIFF	11	21	[0, 0, 0]	n/a	FR1	1	R1092J
2148.336	1.617	2176073	WORD	n/a	wordpools/wordpool_EN.txt	WORLD	12	21	[0, 0, 0]	n/a	FR1	1	R1092J
2149.953	0.001	2177690	DISTRACT_START	n/a	n/a	n/a	-999	21	[0, 0, 0]	n/a	FR1	1	R1092J
2149.954	0.015	2177691	START	n/a	n/a	n/a	-999	21	[-999, -999, -999]	n/a	FR1	1	R1092J
2149.969	2.984	2177706	PROB	2.984	n/a	n/a	-999	21	[6, 3, 5]	14	FR1	1	R1092J
2152.953	2.867	2180690	PROB	2.867	n/a	n/a	-999	21	[6, 5, 7]	18	FR1	1	R1092J
2155.82	3.352	2183557	PROB	3.352	n/a	n/a	-999	21	[9, 5, 2]	16	FR1	1	R1092J
2159.172	3.116	2186909	PROB	3.116	n/a	n/a	-999	21	[7, 7, 8]	22	FR1	1	R1092J
2162.288	4.067	2190025	PROB	4.067	n/a	n/a	-999	21	[7, 9, 3]	19	FR1	1	R1092J
2166.355	1.834	2194092	PROB	1.834	n/a	n/a	-999	21	[3, 4, 2]	9	FR1	1	R1092J
2168.189	2.181	2195926	PROB	2.181	n/a	n/a	-999	21	[4, 2, 4]	10	FR1	1	R1092J
2170.37	0.019	2198107	STOP	n/a	n/a	n/a	-999	21	[-999, -999, -999]	n/a	FR1	1	R1092J
2170.389	1.067	2198126	DISTRACT_END	n/a	n/a	n/a	-999	21	[0, 0, 0]	n/a	FR1	1	R1092J
2171.456	1.814	2199193	REC_START	n/a	n/a	n/a	-999	21	[0, 0, 0]	n/a	FR1	1	R1092J
2173.27	0.814	2201007	REC_WORD	0.814	n/a	ARM	3	21	[0, 0, 0]	n/a	FR1	1	R1092J
2174.084	1.244	2201821	REC_WORD	1.244	n/a	CHAIR	2	21	[0, 0, 0]	n/a	FR1	1	R1092J
2175.328	3.061	2203065	REC_WORD	3.061	n/a	SNAIL	-999	21	[0, 0, 0]	n/a	FR1	1	R1092J
2178.389	13.237	2206126	REC_WORD	13.237	n/a	CROWN	-999	21	[0, 0, 0]	n/a	FR1	1	R1092J
2191.626	7.204	2219362	REC_WORD	7.204	n/a	BEE	-999	21	[0, 0, 0]	n/a	FR1	1	R1092J
2198.83	0.904	2226566	REC_WORD	0.904	n/a	WAVE	-999	21	[0, 0, 0]	n/a	FR1	1	R1092J
2199.734	1.737	2227470	REC_WORD	1.737	n/a	FLAG	-999	21	[0, 0, 0]	n/a	FR1	1	R1092J
2201.471	3.239	2229207	REC_END	n/a	n/a	n/a	-999	21	[0, 0, 0]	n/a	FR1	1	R1092J
2204.71	0.001	2232446	COUNTDOWN_START	n/a	n/a	n/a	-999	22	[0, 0, 0]	n/a	FR1	1	R1092J
2204.711	10.427	2232447	TRIAL	n/a	n/a	n/a	-999	22	[0, 0, 0]	n/a	FR1	1	R1092J
2215.138	0.008	2242874	COUNTDOWN_END	n/a	n/a	n/a	-999	22	[0, 0, 0]	n/a	FR1	1	R1092J
2215.146	2.616	2242882	ORIENT	n/a	n/a	n/a	-999	22	[0, 0, 0]	n/a	FR1	1	R1092J
2217.762	2.451	2245498	WORD	n/a	wordpools/wordpool_EN.txt	DRESS	1	22	[0, 0, 0]	n/a	FR1	1	R1092J
2220.213	2.5	2247949	WORD	n/a	wordpools/wordpool_EN.txt	TOOTH	2	22	[0, 0, 0]	n/a	FR1	1	R1092J
2222.713	2.501	2250449	WORD	n/a	wordpools/wordpool_EN.txt	HOLE	3	22	[0, 0, 0]	n/a	FR1	1	R1092J
2225.214	2.432	2252950	WORD	n/a	wordpools/wordpool_EN.txt	PASTE	4	22	[0, 0, 0]	n/a	FR1	1	R1092J
2227.646	2.385	2255382	WORD	n/a	wordpools/wordpool_EN.txt	DESK	5	22	[0, 0, 0]	n/a	FR1	1	R1092J
2230.031	2.549	2257767	WORD	n/a	wordpools/wordpool_EN.txt	PEAR	6	22	[0, 0, 0]	n/a	FR1	1	R1092J
2232.58	2.569	2260316	WORD	n/a	wordpools/wordpool_EN.txt	SMILE	7	22	[0, 0, 0]	n/a	FR1	1	R1092J
2235.149	2.415	2262885	WORD	n/a	wordpools/wordpool_EN.txt	BEAK	8	22	[0, 0, 0]	n/a	FR1	1	R1092J
2237.564	2.469	2265300	WORD	n/a	wordpools/wordpool_EN.txt	SHOE	9	22	[0, 0, 0]	n/a	FR1	1	R1092J
2240.033	2.549	2267769	WORD	n/a	wordpools/wordpool_EN.txt	PEN	10	22	[0, 0, 0]	n/a	FR1	1	R1092J
2242.582	2.501	2270318	WORD	n/a	wordpools/wordpool_EN.txt	PALM	11	22	[0, 0, 0]	n/a	FR1	1	R1092J
2245.083	1.616	2272819	WORD	n/a	wordpools/wordpool_EN.txt	FORK	12	22	[0, 0, 0]	n/a	FR1	1	R1092J
2246.699	0.001	2274435	DISTRACT_START	n/a	n/a	n/a	-999	22	[0, 0, 0]	n/a	FR1	1	R1092J
2246.7	0.015	2274436	START	n/a	n/a	n/a	-999	22	[-999, -999, -999]	n/a	FR1	1	R1092J
2246.715	5.251	2274451	PROB	5.251	n/a	n/a	-999	22	[9, 5, 8]	22	FR1	1	R1092J
2251.966	3.468	2279701	PROB	3.468	n/a	n/a	-999	22	[9, 5, 1]	15	FR1	1	R1092J
2255.434	2.634	2283169	PROB	2.634	n/a	n/a	-999	22	[9, 2, 3]	14	FR1	1	R1092J
2258.068	2.216	2285803	PROB	2.216	n/a	n/a	-999	22	[9, 9, 1]	19	FR1	1	R1092J
2260.284	2.634	2288019	PROB	2.634	n/a	n/a	-999	22	[7, 8, 8]	23	FR1	1	R1092J
2262.918	2.9	2290653	PROB	2.9	n/a	n/a	-999	22	[6, 5, 3]	14	FR1	1	R1092J
2265.818	1.876	2293553	PROB	1.876	n/a	n/a	-999	22	[4, 2, 2]	8	FR1	1	R1092J
2267.694	0.008	2295429	STOP	n/a	n/a	n/a	-999	22	[-999, -999, -999]	n/a	FR1	1	R1092J
2267.702	1.051	2295437	DISTRACT_END	n/a	n/a	n/a	-999	22	[0, 0, 0]	n/a	FR1	1	R1092J
2268.753	3.472	2296488	REC_START	n/a	n/a	n/a	-999	22	[0, 0, 0]	n/a	FR1	1	R1092J
2272.225	1.788	2299960	REC_WORD	1.788	n/a	DRESS	1	22	[0, 0, 0]	n/a	FR1	1	R1092J
2274.013	1.814	2301748	REC_WORD	1.814	n/a	ARM	-999	22	[0, 0, 0]	n/a	FR1	1	R1092J
2275.827	2.03	2303562	REC_WORD	2.03	n/a	HAND	-999	22	[0, 0, 0]	n/a	FR1	1	R1092J
2277.857	3.695	2305592	REC_WORD	3.695	n/a	GLOVE	-999	22	[0, 0, 0]	n/a	FR1	1	R1092J
2281.552	2.229	2309287	REC_WORD	2.229	n/a	PALM	11	22	[0, 0, 0]	n/a	FR1	1	R1092J
2283.781	4.448	2311516	REC_WORD	4.448	n/a	LEAF	-999	22	[0, 0, 0]	n/a	FR1	1	R1092J
2288.229	2.979	2315964	REC_WORD	2.979	n/a	SHOE	9	22	[0, 0, 0]	n/a	FR1	1	R1092J
2291.208	3.219	2318943	REC_WORD	3.219	n/a	HAND	-999	22	[0, 0, 0]	n/a	FR1	1	R1092J
2294.427	4.338	2322162	REC_WORD	4.338	n/a	FOG	-999	22	[0, 0, 0]	n/a	FR1	1	R1092J
2298.765	3.475	2326500	REC_END	n/a	n/a	n/a	-999	22	[0, 0, 0]	n/a	FR1	1	R1092J
2302.24	0.0	2329975	TRIAL	n/a	n/a	n/a	-999	23	[0, 0, 0]	n/a	FR1	1	R1092J
2302.24	10.428	2329975	COUNTDOWN_START	n/a	n/a	n/a	-999	23	[0, 0, 0]	n/a	FR1	1	R1092J
2312.668	0.007	2340403	COUNTDOWN_END	n/a	n/a	n/a	-999	23	[0, 0, 0]	n/a	FR1	1	R1092J
2312.675	2.484	2340410	ORIENT	n/a	n/a	n/a	-999	23	[0, 0, 0]	n/a	FR1	1	R1092J
2315.159	2.416	2342894	WORD	n/a	wordpools/wordpool_EN.txt	HEN	1	23	[0, 0, 0]	n/a	FR1	1	R1092J
2317.575	2.535	2345309	WORD	n/a	wordpools/wordpool_EN.txt	RICE	2	23	[0, 0, 0]	n/a	FR1	1	R1092J
2320.11	2.616	2347844	WORD	n/a	wordpools/wordpool_EN.txt	BLUSH	3	23	[0, 0, 0]	n/a	FR1	1	R1092J
2322.726	2.6	2350460	WORD	n/a	wordpools/wordpool_EN.txt	SUN	4	23	[0, 0, 0]	n/a	FR1	1	R1092J
2325.326	2.584	2353060	WORD	n/a	wordpools/wordpool_EN.txt	STREET	5	23	[0, 0, 0]	n/a	FR1	1	R1092J
2327.91	2.6	2355644	WORD	n/a	wordpools/wordpool_EN.txt	HOOK	6	23	[0, 0, 0]	n/a	FR1	1	R1092J
2330.51	2.417	2358244	WORD	n/a	wordpools/wordpool_EN.txt	HOSE	7	23	[0, 0, 0]	n/a	FR1	1	R1092J
2332.927	2.484	2360661	WORD	n/a	wordpools/wordpool_EN.txt	STORE	8	23	[0, 0, 0]	n/a	FR1	1	R1092J
2335.411	2.517	2363145	WORD	n/a	wordpools/wordpool_EN.txt	CAT	9	23	[0, 0, 0]	n/a	FR1	1	R1092J
2337.928	2.4	2365662	WORD	n/a	wordpools/wordpool_EN.txt	LAMP	10	23	[0, 0, 0]	n/a	FR1	1	R1092J
2340.328	2.45	2368062	WORD	n/a	wordpools/wordpool_EN.txt	STOVE	11	23	[0, 0, 0]	n/a	FR1	1	R1092J
2342.778	1.617	2370512	WORD	n/a	wordpools/wordpool_EN.txt	MILK	12	23	[0, 0, 0]	n/a	FR1	1	R1092J
2344.395	0.001	2372129	DISTRACT_START	n/a	n/a	n/a	-999	23	[0, 0, 0]	n/a	FR1	1	R1092J
2344.396	0.016	2372130	START	n/a	n/a	n/a	-999	23	[-999, -999, -999]	n/a	FR1	1	R1092J
2344.412	3.934	2372146	PROB	3.934	n/a	n/a	-999	23	[7, 8, 8]	23	FR1	1	R1092J
2348.346	3.5	2376080	PROB	3.5	n/a	n/a	-999	23	[3, 5, 5]	13	FR1	1	R1092J
2351.846	3.202	2379580	PROB	3.202	n/a	n/a	-999	23	[5, 8, 7]	20	FR1	1	R1092J
2355.048	2.283	2382782	PROB	2.283	n/a	n/a	-999	23	[3, 7, 8]	18	FR1	1	R1092J
2357.331	4.751	2385065	PROB	4.751	n/a	n/a	-999	23	[4, 9, 8]	21	FR1	1	R1092J
2362.082	2.297	2389816	PROB	2.297	n/a	n/a	-999	23	[6, 3, 7]	16	FR1	1	R1092J
2364.379	0.019	2392113	STOP	n/a	n/a	n/a	-999	23	[-999, -999, -999]	n/a	FR1	1	R1092J
2364.398	1.051	2392132	DISTRACT_END	n/a	n/a	n/a	-999	23	[0, 0, 0]	n/a	FR1	1	R1092J
2365.449	6.629	2393183	REC_START	n/a	n/a	n/a	-999	23	[0, 0, 0]	n/a	FR1	1	R1092J
2372.078	0.335	2399812	REC_WORD_VV	0.335	n/a	<>	-999	23	[0, 0, 0]	n/a	FR1	1	R1092J
2372.413	5.259	2400147	REC_WORD	5.259	n/a	STAIR	-999	23	[0, 0, 0]	n/a	FR1	1	R1092J
2377.672	4.489	2405406	REC_WORD	4.489	n/a	LEAF	-999	23	[0, 0, 0]	n/a	FR1	1	R1092J
2382.161	2.391	2409895	REC_WORD	2.391	n/a	BROOM	-999	23	[0, 0, 0]	n/a	FR1	1	R1092J
2384.552	2.747	2412285	REC_WORD	2.747	n/a	COAT	-999	23	[0, 0, 0]	n/a	FR1	1	R1092J
2387.299	8.162	2415032	REC_WORD	8.162	n/a	HAIR	-999	23	[0, 0, 0]	n/a	FR1	1	R1092J
2395.461	3.041	2423194	REC_END	n/a	n/a	n/a	-999	23	[0, 0, 0]	n/a	FR1	1	R1092J
2398.502	0.001	2426235	COUNTDOWN_START	n/a	n/a	n/a	-999	24	[0, 0, 0]	n/a	FR1	1	R1092J
2398.503	10.427	2426236	TRIAL	n/a	n/a	n/a	-999	24	[0, 0, 0]	n/a	FR1	1	R1092J
2408.93	0.007	2436663	COUNTDOWN_END	n/a	n/a	n/a	-999	24	[0, 0, 0]	n/a	FR1	1	R1092J
2408.937	2.517	2436670	ORIENT	n/a	n/a	n/a	-999	24	[0, 0, 0]	n/a	FR1	1	R1092J
2411.454	2.451	2439187	WORD	n/a	wordpools/wordpool_EN.txt	LAND	1	24	[0, 0, 0]	n/a	FR1	1	R1092J
2413.905	2.567	2441638	WORD	n/a	wordpools/wordpool_EN.txt	SQUARE	2	24	[0, 0, 0]	n/a	FR1	1	R1092J
2416.472	2.5	2444205	WORD	n/a	wordpools/wordpool_EN.txt	SPOON	3	24	[0, 0, 0]	n/a	FR1	1	R1092J
2418.972	2.384	2446705	WORD	n/a	wordpools/wordpool_EN.txt	GRAPE	4	24	[0, 0, 0]	n/a	FR1	1	R1092J
2421.356	2.584	2449089	WORD	n/a	wordpools/wordpool_EN.txt	FARM	5	24	[0, 0, 0]	n/a	FR1	1	R1092J
2423.94	2.416	2451673	WORD	n/a	wordpools/wordpool_EN.txt	STOOL	6	24	[0, 0, 0]	n/a	FR1	1	R1092J
2426.356	2.551	2454089	WORD	n/a	wordpools/wordpool_EN.txt	BLOOM	7	24	[0, 0, 0]	n/a	FR1	1	R1092J
2428.907	2.617	2456640	WORD	n/a	wordpools/wordpool_EN.txt	APE	8	24	[0, 0, 0]	n/a	FR1	1	R1092J
2431.524	2.467	2459257	WORD	n/a	wordpools/wordpool_EN.txt	FLOOR	9	24	[0, 0, 0]	n/a	FR1	1	R1092J
2433.991	2.417	2461724	WORD	n/a	wordpools/wordpool_EN.txt	RAIN	10	24	[0, 0, 0]	n/a	FR1	1	R1092J
2436.408	2.467	2464141	WORD	n/a	wordpools/wordpool_EN.txt	CUP	11	24	[0, 0, 0]	n/a	FR1	1	R1092J
2438.875	1.617	2466608	WORD	n/a	wordpools/wordpool_EN.txt	ROCK	12	24	[0, 0, 0]	n/a	FR1	1	R1092J
2440.492	0.001	2468225	DISTRACT_START	n/a	n/a	n/a	-999	24	[0, 0, 0]	n/a	FR1	1	R1092J
2440.493	0.015	2468226	START	n/a	n/a	n/a	-999	24	[-999, -999, -999]	n/a	FR1	1	R1092J
2440.508	4.384	2468241	PROB	4.384	n/a	n/a	-999	24	[3, 8, 5]	16	FR1	1	R1092J
2444.892	2.834	2472625	PROB	2.834	n/a	n/a	-999	24	[6, 5, 9]	20	FR1	1	R1092J
2447.726	2.134	2475459	PROB	2.134	n/a	n/a	-999	24	[1, 5, 4]	10	FR1	1	R1092J
2449.86	1.967	2477592	PROB	1.967	n/a	n/a	-999	24	[9, 4, 6]	19	FR1	1	R1092J
2451.827	1.783	2479559	PROB	1.783	n/a	n/a	-999	24	[3, 6, 9]	18	FR1	1	R1092J
2453.61	2.35	2481342	PROB	2.35	n/a	n/a	-999	24	[2, 2, 7]	11	FR1	1	R1092J
2455.96	1.934	2483692	PROB	1.934	n/a	n/a	-999	24	[7, 8, 2]	17	FR1	1	R1092J
2457.894	2.55	2485626	PROB	2.55	n/a	n/a	-999	24	[8, 5, 7]	20	FR1	1	R1092J
2460.444	2.123	2488176	PROB	2.123	n/a	n/a	-999	24	[3, 9, 1]	13	FR1	1	R1092J
2462.567	0.011	2490299	STOP	n/a	n/a	n/a	-999	24	[-999, -999, -999]	n/a	FR1	1	R1092J
2462.578	1.151	2490310	DISTRACT_END	n/a	n/a	n/a	-999	24	[0, 0, 0]	n/a	FR1	1	R1092J
2463.729	2.751	2491461	REC_START	n/a	n/a	n/a	-999	24	[0, 0, 0]	n/a	FR1	1	R1092J
2466.48	1.199	2494212	REC_WORD	1.199	n/a	LAND	1	24	[0, 0, 0]	n/a	FR1	1	R1092J
2467.679	1.669	2495411	REC_WORD	1.669	n/a	STAIR	-999	24	[0, 0, 0]	n/a	FR1	1	R1092J
2469.348	2.567	2497080	REC_WORD	2.567	n/a	RAIL	-999	24	[0, 0, 0]	n/a	FR1	1	R1092J
2471.915	3.204	2499647	REC_WORD	3.204	n/a	APE	8	24	[0, 0, 0]	n/a	FR1	1	R1092J
2475.119	4.914	2502851	REC_WORD	4.914	n/a	LEAF	-999	24	[0, 0, 0]	n/a	FR1	1	R1092J
2480.033	4.971	2507765	REC_WORD	4.971	n/a	CROWN	-999	24	[0, 0, 0]	n/a	FR1	1	R1092J
2485.004	0.567	2512736	REC_WORD	0.567	n/a	AIR	-999	24	[0, 0, 0]	n/a	FR1	1	R1092J
2485.571	1.184	2513303	REC_WORD	1.184	n/a	STAIR	-999	24	[0, 0, 0]	n/a	FR1	1	R1092J
2486.755	1.01	2514487	REC_WORD	1.01	n/a	LAND	1	24	[0, 0, 0]	n/a	FR1	1	R1092J
2487.765	4.341	2515497	REC_WORD	4.341	n/a	LEAF	-999	24	[0, 0, 0]	n/a	FR1	1	R1092J
2492.106	1.635	2519838	REC_WORD	1.635	n/a	SQUARE	2	24	[0, 0, 0]	n/a	FR1	1	R1092J
2493.741	2.808	2521473	REC_END	n/a	n/a	n/a	-999	24	[0, 0, 0]	n/a	FR1	1	R1092J
2496.549	0.0	2524281	TRIAL	n/a	n/a	n/a	-999	25	[0, 0, 0]	n/a	FR1	1	R1092J
2496.549	10.428	2524281	COUNTDOWN_START	n/a	n/a	n/a	-999	25	[0, 0, 0]	n/a	FR1	1	R1092J
2506.977	0.007	2534709	COUNTDOWN_END	n/a	n/a	n/a	-999	25	[0, 0, 0]	n/a	FR1	1	R1092J
2506.984	2.5	2534716	ORIENT	n/a	n/a	n/a	-999	25	[0, 0, 0]	n/a	FR1	1	R1092J
2509.484	2.535	2537216	WORD	n/a	wordpools/wordpool_EN.txt	KEY	1	25	[0, 0, 0]	n/a	FR1	1	R1092J
2512.019	2.516	2539751	WORD	n/a	wordpools/wordpool_EN.txt	SCHOOL	2	25	[0, 0, 0]	n/a	FR1	1	R1092J
2514.535	2.518	2542267	WORD	n/a	wordpools/wordpool_EN.txt	PIE	3	25	[0, 0, 0]	n/a	FR1	1	R1092J
2517.053	2.549	2544784	WORD	n/a	wordpools/wordpool_EN.txt	VASE	4	25	[0, 0, 0]	n/a	FR1	1	R1092J
2519.602	2.518	2547333	WORD	n/a	wordpools/wordpool_EN.txt	STRAW	5	25	[0, 0, 0]	n/a	FR1	1	R1092J
2522.12	2.466	2549851	WORD	n/a	wordpools/wordpool_EN.txt	CHIEF	6	25	[0, 0, 0]	n/a	FR1	1	R1092J
2524.586	2.435	2552317	WORD	n/a	wordpools/wordpool_EN.txt	BOY	7	25	[0, 0, 0]	n/a	FR1	1	R1092J
2527.021	2.449	2554752	WORD	n/a	wordpools/wordpool_EN.txt	BAT	8	25	[0, 0, 0]	n/a	FR1	1	R1092J
2529.47	2.484	2557201	WORD	n/a	wordpools/wordpool_EN.txt	PHONE	9	25	[0, 0, 0]	n/a	FR1	1	R1092J
2531.954	2.584	2559685	WORD	n/a	wordpools/wordpool_EN.txt	NOSE	10	25	[0, 0, 0]	n/a	FR1	1	R1092J
2534.538	2.484	2562269	WORD	n/a	wordpools/wordpool_EN.txt	HOOF	11	25	[0, 0, 0]	n/a	FR1	1	R1092J
2537.022	1.616	2564753	WORD	n/a	wordpools/wordpool_EN.txt	COIN	12	25	[0, 0, 0]	n/a	FR1	1	R1092J
2538.638	0.001	2566369	DISTRACT_START	n/a	n/a	n/a	-999	25	[0, 0, 0]	n/a	FR1	1	R1092J
2538.639	0.016	2566370	START	n/a	n/a	n/a	-999	25	[-999, -999, -999]	n/a	FR1	1	R1092J
2538.655	2.684	2566386	PROB	2.684	n/a	n/a	-999	25	[2, 3, 5]	10	FR1	1	R1092J
2541.339	2.1	2569070	PROB	2.1	n/a	n/a	-999	25	[2, 6, 6]	14	FR1	1	R1092J
2543.439	2.484	2571170	PROB	2.484	n/a	n/a	-999	25	[6, 3, 7]	16	FR1	1	R1092J
2545.923	3.617	2573654	PROB	3.617	n/a	n/a	-999	25	[5, 3, 5]	13	FR1	1	R1092J
2549.54	2.033	2577271	PROB	2.033	n/a	n/a	-999	25	[4, 1, 3]	8	FR1	1	R1092J
2551.573	4.301	2579304	PROB	4.301	n/a	n/a	-999	25	[9, 8, 7]	23	FR1	1	R1092J
2555.874	4.458	2583605	PROB	4.458	n/a	n/a	-999	25	[9, 8, 6]	23	FR1	1	R1092J
2560.332	0.009	2588063	STOP	n/a	n/a	n/a	-999	25	[-999, -999, -999]	n/a	FR1	1	R1092J
2560.341	1.151	2588072	DISTRACT_END	n/a	n/a	n/a	-999	25	[0, 0, 0]	n/a	FR1	1	R1092J
2561.492	4.201	2589223	REC_START	n/a	n/a	n/a	-999	25	[0, 0, 0]	n/a	FR1	1	R1092J
2565.693	2.738	2593424	REC_WORD	2.738	n/a	PIE	3	25	[0, 0, 0]	n/a	FR1	1	R1092J
2568.431	2.036	2596162	REC_WORD	2.036	n/a	APE	-999	25	[0, 0, 0]	n/a	FR1	1	R1092J
2570.467	2.158	2598198	REC_WORD	2.158	n/a	LEAF	-999	25	[0, 0, 0]	n/a	FR1	1	R1092J
2572.625	3.914	2600356	REC_WORD	3.914	n/a	STAIR	-999	25	[0, 0, 0]	n/a	FR1	1	R1092J
2576.539	9.449	2604270	REC_WORD	9.449	n/a	AIR	-999	25	[0, 0, 0]	n/a	FR1	1	R1092J
2585.988	5.516	2613718	REC_WORD	5.516	n/a	COIN	12	25	[0, 0, 0]	n/a	FR1	1	R1092J
2591.504	15.077	2619234	REC_END	n/a	n/a	n/a	-999	25	[0, 0, 0]	n/a	FR1	1	R1092J
2606.581	0.0	2634311	SESS_END	n/a	n/a	n/a	-999	25	[0, 0, 0]	n/a	FR1	1	R1092J
