onset	duration	sample	trial_type	response_time	stim_file	item_name	serialpos	list	test	answer	experiment	session	subject
0.0	0.0	316640	INSTRUCT_START	n/a	n/a	n/a	-999	-999	[0, 0, 0]	n/a	FR1	2	R1154D
0.0	10.808	316640	INSTRUCT_END	n/a	n/a	n/a	-999	-999	[0, 0, 0]	n/a	FR1	2	R1154D
10.808	0.0	327448	SESS_START	n/a	n/a	n/a	-999	-999	[0, 0, 0]	n/a	FR1	2	R1154D
10.808	12.001	327448	MIC_TEST	n/a	n/a	n/a	-999	-999	[0, 0, 0]	n/a	FR1	2	R1154D
22.809	1.296	339448	PRACTICE_TRIAL	n/a	n/a	n/a	-999	-1	[0, 0, 0]	n/a	FR1	2	R1154D
24.105	10.428	340744	COUNTDOWN_START	n/a	n/a	n/a	-999	-1	[0, 0, 0]	n/a	FR1	2	R1154D
34.533	0.008	351172	COUNTDOWN_END	n/a	n/a	n/a	-999	-1	[0, 0, 0]	n/a	FR1	2	R1154D
34.541	1.616	351180	PRACTICE_ORIENT	n/a	n/a	n/a	-999	-1	[0, 0, 0]	n/a	FR1	2	R1154D
36.157	1.983	352795	PRACTICE_ORIENT_OFF	n/a	n/a	n/a	-999	-1	[0, 0, 0]	n/a	FR1	2	R1154D
38.14	1.601	354778	PRACTICE_WORD	n/a	n/a	BEAM	1	-1	[0, 0, 0]	n/a	FR1	2	R1154D
39.741	0.834	356379	PRACTICE_WORD_OFF	n/a	n/a	BEAM	-999	-1	[0, 0, 0]	n/a	FR1	2	R1154D
40.575	1.616	357213	PRACTICE_WORD	n/a	n/a	CHEST	2	-1	[0, 0, 0]	n/a	FR1	2	R1154D
42.191	0.967	358829	PRACTICE_WORD_OFF	n/a	n/a	CHEST	-999	-1	[0, 0, 0]	n/a	FR1	2	R1154D
43.158	1.618	359796	PRACTICE_WORD	n/a	n/a	ATTIC	3	-1	[0, 0, 0]	n/a	FR1	2	R1154D
44.776	0.933	361414	PRACTICE_WORD_OFF	n/a	n/a	ATTIC	-999	-1	[0, 0, 0]	n/a	FR1	2	R1154D
45.709	1.616	362347	PRACTICE_WORD	n/a	n/a	IRON	4	-1	[0, 0, 0]	n/a	FR1	2	R1154D
47.325	0.884	363963	PRACTICE_WORD_OFF	n/a	n/a	IRON	-999	-1	[0, 0, 0]	n/a	FR1	2	R1154D
48.209	1.617	364847	PRACTICE_WORD	n/a	n/a	FLOOD	5	-1	[0, 0, 0]	n/a	FR1	2	R1154D
49.826	0.834	366464	PRACTICE_WORD_OFF	n/a	n/a	FLOOD	-999	-1	[0, 0, 0]	n/a	FR1	2	R1154D
50.66	1.616	367298	PRACTICE_WORD	n/a	n/a	RING	6	-1	[0, 0, 0]	n/a	FR1	2	R1154D
52.276	0.867	368914	PRACTICE_WORD_OFF	n/a	n/a	RING	-999	-1	[0, 0, 0]	n/a	FR1	2	R1154D
53.143	1.618	369781	PRACTICE_WORD	n/a	n/a	CAMEL	7	-1	[0, 0, 0]	n/a	FR1	2	R1154D
54.761	0.95	371398	PRACTICE_WORD_OFF	n/a	n/a	CAMEL	-999	-1	[0, 0, 0]	n/a	FR1	2	R1154D
55.711	1.616	372348	PRACTICE_WORD	n/a	n/a	COTTON	8	-1	[0, 0, 0]	n/a	FR1	2	R1154D
57.327	0.784	373964	PRACTICE_WORD_OFF	n/a	n/a	COTTON	-999	-1	[0, 0, 0]	n/a	FR1	2	R1154D
58.111	1.617	374748	PRACTICE_WORD	n/a	n/a	RHINO	9	-1	[0, 0, 0]	n/a	FR1	2	R1154D
59.728	0.984	376365	PRACTICE_WORD_OFF	n/a	n/a	RHINO	-999	-1	[0, 0, 0]	n/a	FR1	2	R1154D
60.712	1.616	377349	PRACTICE_WORD	n/a	n/a	WATCH	10	-1	[0, 0, 0]	n/a	FR1	2	R1154D
62.328	0.9	378965	PRACTICE_WORD_OFF	n/a	n/a	WATCH	-999	-1	[0, 0, 0]	n/a	FR1	2	R1154D
63.228	1.617	379865	PRACTICE_WORD	n/a	n/a	TONGUE	11	-1	[0, 0, 0]	n/a	FR1	2	R1154D
64.845	0.851	381482	PRACTICE_WORD_OFF	n/a	n/a	TONGUE	-999	-1	[0, 0, 0]	n/a	FR1	2	R1154D
65.696	1.616	382333	PRACTICE_WORD	n/a	n/a	WAGON	12	-1	[0, 0, 0]	n/a	FR1	2	R1154D
67.312	0.0	383949	PRACTICE_WORD_OFF	n/a	n/a	WAGON	-999	-1	[0, 0, 0]	n/a	FR1	2	R1154D
67.312	0.001	383949	DISTRACT_START	n/a	n/a	n/a	-999	-1	[0, 0, 0]	n/a	FR1	2	R1154D
67.313	0.016	383950	START	n/a	n/a	n/a	-999	-1	[-999, -999, -999]	n/a	FR1	2	R1154D
67.329	2.451	383966	PROB	2.451	n/a	n/a	-999	-1	[2, 2, 3]	7	FR1	2	R1154D
69.78	2.283	386417	PROB	2.283	n/a	n/a	-999	-1	[3, 8, 2]	13	FR1	2	R1154D
72.063	2.451	388700	PROB	2.451	n/a	n/a	-999	-1	[6, 6, 9]	21	FR1	2	R1154D
74.514	2.867	391150	PROB	2.867	n/a	n/a	-999	-1	[6, 4, 3]	13	FR1	2	R1154D
77.381	3.0	394017	PROB	3.0	n/a	n/a	-999	-1	[9, 5, 7]	24	FR1	2	R1154D
80.381	2.052	397017	PROB	2.052	n/a	n/a	-999	-1	[8, 9, 1]	18	FR1	2	R1154D
82.433	3.599	399069	PROB	3.599	n/a	n/a	-999	-1	[5, 7, 6]	18	FR1	2	R1154D
86.032	2.927	402668	PROB	2.927	n/a	n/a	-999	-1	[7, 5, 5]	17	FR1	2	R1154D
88.959	0.007	405595	STOP	n/a	n/a	n/a	-999	-1	[-999, -999, -999]	n/a	FR1	2	R1154D
88.966	0.601	405602	DISTRACT_END	n/a	n/a	n/a	-999	-1	[0, 0, 0]	n/a	FR1	2	R1154D
89.567	0.52	406203	RETRIEVAL_ORIENT	n/a	n/a	n/a	-999	-1	[0, 0, 0]	n/a	FR1	2	R1154D
90.087	30.009	406723	PRACTICE_REC_START	n/a	n/a	n/a	-999	-1	[0, 0, 0]	n/a	FR1	2	R1154D
120.096	8.044	436730	PRACTICE_REC_END	n/a	n/a	n/a	-999	-1	[0, 0, 0]	n/a	FR1	2	R1154D
128.14	0.5	444774	TRIAL	n/a	n/a	n/a	-999	1	[0, 0, 0]	n/a	FR1	2	R1154D
128.64	10.428	445274	COUNTDOWN_START	n/a	n/a	n/a	-999	1	[0, 0, 0]	n/a	FR1	2	R1154D
139.068	0.007	455701	COUNTDOWN_END	n/a	n/a	n/a	-999	1	[0, 0, 0]	n/a	FR1	2	R1154D
139.075	1.618	455708	ORIENT	n/a	n/a	n/a	-999	1	[0, 0, 0]	n/a	FR1	2	R1154D
140.693	2.35	457326	ORIENT_OFF	n/a	n/a	n/a	-999	1	[0, 0, 0]	n/a	FR1	2	R1154D
143.043	1.618	459676	WORD	n/a	wordpools/wordpool_EN.txt	DESK	1	1	[0, 0, 0]	n/a	FR1	2	R1154D
144.661	1.0	461294	WORD_OFF	n/a	n/a	DESK	1	1	[0, 0, 0]	n/a	FR1	2	R1154D
145.661	1.616	462294	WORD	n/a	wordpools/wordpool_EN.txt	GUARD	2	1	[0, 0, 0]	n/a	FR1	2	R1154D
147.277	0.967	463910	WORD_OFF	n/a	n/a	GUARD	2	1	[0, 0, 0]	n/a	FR1	2	R1154D
148.244	1.616	464876	WORD	n/a	wordpools/wordpool_EN.txt	PEA	3	1	[0, 0, 0]	n/a	FR1	2	R1154D
149.86	0.852	466492	WORD_OFF	n/a	n/a	PEA	3	1	[0, 0, 0]	n/a	FR1	2	R1154D
150.712	1.616	467344	WORD	n/a	wordpools/wordpool_EN.txt	BOY	4	1	[0, 0, 0]	n/a	FR1	2	R1154D
152.328	1.0	468960	WORD_OFF	n/a	n/a	BOY	4	1	[0, 0, 0]	n/a	FR1	2	R1154D
153.328	1.617	469960	WORD	n/a	wordpools/wordpool_EN.txt	SEAT	5	1	[0, 0, 0]	n/a	FR1	2	R1154D
154.945	0.85	471577	WORD_OFF	n/a	n/a	SEAT	5	1	[0, 0, 0]	n/a	FR1	2	R1154D
155.795	1.617	472427	WORD	n/a	wordpools/wordpool_EN.txt	MULE	6	1	[0, 0, 0]	n/a	FR1	2	R1154D
157.412	0.817	474044	WORD_OFF	n/a	n/a	MULE	6	1	[0, 0, 0]	n/a	FR1	2	R1154D
158.229	1.617	474861	WORD	n/a	wordpools/wordpool_EN.txt	PEN	7	1	[0, 0, 0]	n/a	FR1	2	R1154D
159.846	0.768	476478	WORD_OFF	n/a	n/a	PEN	7	1	[0, 0, 0]	n/a	FR1	2	R1154D
160.614	1.615	477246	WORD	n/a	wordpools/wordpool_EN.txt	TRAIN	8	1	[0, 0, 0]	n/a	FR1	2	R1154D
162.229	0.784	478861	WORD_OFF	n/a	n/a	TRAIN	8	1	[0, 0, 0]	n/a	FR1	2	R1154D
163.013	1.618	479645	WORD	n/a	wordpools/wordpool_EN.txt	WALL	9	1	[0, 0, 0]	n/a	FR1	2	R1154D
164.631	0.817	481263	WORD_OFF	n/a	n/a	WALL	9	1	[0, 0, 0]	n/a	FR1	2	R1154D
165.448	1.616	482080	WORD	n/a	wordpools/wordpool_EN.txt	SCHOOL	10	1	[0, 0, 0]	n/a	FR1	2	R1154D
167.064	0.9	483695	WORD_OFF	n/a	n/a	SCHOOL	10	1	[0, 0, 0]	n/a	FR1	2	R1154D
167.964	1.618	484595	WORD	n/a	wordpools/wordpool_EN.txt	WING	11	1	[0, 0, 0]	n/a	FR1	2	R1154D
169.582	0.799	486213	WORD_OFF	n/a	n/a	WING	11	1	[0, 0, 0]	n/a	FR1	2	R1154D
170.381	1.617	487012	WORD	n/a	wordpools/wordpool_EN.txt	CHAIR	12	1	[0, 0, 0]	n/a	FR1	2	R1154D
171.998	0.0	488629	WORD_OFF	n/a	n/a	CHAIR	12	1	[0, 0, 0]	n/a	FR1	2	R1154D
171.998	0.0	488629	DISTRACT_START	n/a	n/a	n/a	-999	1	[0, 0, 0]	n/a	FR1	2	R1154D
171.998	0.017	488629	START	n/a	n/a	n/a	-999	1	[-999, -999, -999]	n/a	FR1	2	R1154D
172.015	2.783	488646	PROB	2.783	n/a	n/a	-999	1	[9, 2, 5]	16	FR1	2	R1154D
174.798	2.151	491429	PROB	2.151	n/a	n/a	-999	1	[9, 7, 5]	21	FR1	2	R1154D
176.949	1.718	493580	PROB	1.718	n/a	n/a	-999	1	[3, 2, 1]	6	FR1	2	R1154D
178.667	1.833	495298	PROB	1.833	n/a	n/a	-999	1	[2, 7, 1]	10	FR1	2	R1154D
180.5	1.65	497131	PROB	1.65	n/a	n/a	-999	1	[7, 7, 7]	21	FR1	2	R1154D
182.15	2.034	498781	PROB	2.034	n/a	n/a	-999	1	[1, 6, 7]	14	FR1	2	R1154D
184.184	2.1	500815	PROB	2.1	n/a	n/a	-999	1	[2, 3, 3]	8	FR1	2	R1154D
186.284	2.168	502914	PROB	2.168	n/a	n/a	-999	1	[4, 6, 6]	16	FR1	2	R1154D
188.452	1.816	505082	PROB	1.816	n/a	n/a	-999	1	[4, 3, 7]	14	FR1	2	R1154D
190.268	2.412	506898	PROB	2.412	n/a	n/a	-999	1	[2, 6, 9]	17	FR1	2	R1154D
192.68	0.006	509310	STOP	n/a	n/a	n/a	-999	1	[-999, -999, -999]	n/a	FR1	2	R1154D
192.686	0.683	509316	DISTRACT_END	n/a	n/a	n/a	-999	1	[0, 0, 0]	n/a	FR1	2	R1154D
193.369	0.518	509999	RETRIEVAL_ORIENT	n/a	n/a	n/a	-999	1	[0, 0, 0]	n/a	FR1	2	R1154D
193.887	1.297	510517	REC_START	n/a	n/a	n/a	-999	1	[0, 0, 0]	n/a	FR1	2	R1154D
195.184	0.729	511814	REC_WORD	0.729	n/a	BOY	-999	1	[0, 0, 0]	n/a	FR1	2	R1154D
195.913	6.899	512543	REC_WORD	6.899	n/a	DESK	-999	1	[0, 0, 0]	n/a	FR1	2	R1154D
202.812	16.108	519442	REC_WORD	16.108	n/a	CHAIR	-999	1	[0, 0, 0]	n/a	FR1	2	R1154D
218.92	4.007	535549	REC_WORD	4.007	n/a	PEA	-999	1	[0, 0, 0]	n/a	FR1	2	R1154D
222.927	0.97	539555	REC_WORD_VV	0.97	n/a	<>	-999	1	[0, 0, 0]	n/a	FR1	2	R1154D
223.897	4.111	540525	REC_END	n/a	n/a	n/a	-999	1	[0, 0, 0]	n/a	FR1	2	R1154D
228.008	0.5	544636	TRIAL	n/a	n/a	n/a	-999	2	[0, 0, 0]	n/a	FR1	2	R1154D
228.508	10.428	545136	COUNTDOWN_START	n/a	n/a	n/a	-999	2	[0, 0, 0]	n/a	FR1	2	R1154D
238.936	0.007	555564	COUNTDOWN_END	n/a	n/a	n/a	-999	2	[0, 0, 0]	n/a	FR1	2	R1154D
238.943	1.618	555571	ORIENT	n/a	n/a	n/a	-999	2	[0, 0, 0]	n/a	FR1	2	R1154D
240.561	2.168	557189	ORIENT_OFF	n/a	n/a	n/a	-999	2	[0, 0, 0]	n/a	FR1	2	R1154D
242.729	1.616	559356	WORD	n/a	wordpools/wordpool_EN.txt	FOX	1	2	[0, 0, 0]	n/a	FR1	2	R1154D
244.345	0.966	560972	WORD_OFF	n/a	n/a	FOX	1	2	[0, 0, 0]	n/a	FR1	2	R1154D
245.311	1.617	561938	WORD	n/a	wordpools/wordpool_EN.txt	CORN	2	2	[0, 0, 0]	n/a	FR1	2	R1154D
246.928	0.917	563555	WORD_OFF	n/a	n/a	CORN	2	2	[0, 0, 0]	n/a	FR1	2	R1154D
247.845	1.618	564472	WORD	n/a	wordpools/wordpool_EN.txt	TOY	3	2	[0, 0, 0]	n/a	FR1	2	R1154D
249.463	0.866	566090	WORD_OFF	n/a	n/a	TOY	3	2	[0, 0, 0]	n/a	FR1	2	R1154D
250.329	1.617	566956	WORD	n/a	wordpools/wordpool_EN.txt	CALF	4	2	[0, 0, 0]	n/a	FR1	2	R1154D
251.946	0.768	568573	WORD_OFF	n/a	n/a	CALF	4	2	[0, 0, 0]	n/a	FR1	2	R1154D
252.714	1.616	569341	WORD	n/a	wordpools/wordpool_EN.txt	CROW	5	2	[0, 0, 0]	n/a	FR1	2	R1154D
254.33	0.816	570957	WORD_OFF	n/a	n/a	CROW	5	2	[0, 0, 0]	n/a	FR1	2	R1154D
255.146	1.618	571773	WORD	n/a	wordpools/wordpool_EN.txt	FARM	6	2	[0, 0, 0]	n/a	FR1	2	R1154D
256.764	0.867	573391	WORD_OFF	n/a	n/a	FARM	6	2	[0, 0, 0]	n/a	FR1	2	R1154D
257.631	1.616	574258	WORD	n/a	wordpools/wordpool_EN.txt	SKUNK	7	2	[0, 0, 0]	n/a	FR1	2	R1154D
259.247	0.95	575874	WORD_OFF	n/a	n/a	SKUNK	7	2	[0, 0, 0]	n/a	FR1	2	R1154D
260.197	1.617	576823	WORD	n/a	wordpools/wordpool_EN.txt	HAWK	8	2	[0, 0, 0]	n/a	FR1	2	R1154D
261.814	1.001	578440	WORD_OFF	n/a	n/a	HAWK	8	2	[0, 0, 0]	n/a	FR1	2	R1154D
262.815	1.617	579441	WORD	n/a	wordpools/wordpool_EN.txt	ROPE	9	2	[0, 0, 0]	n/a	FR1	2	R1154D
264.432	0.9	581058	WORD_OFF	n/a	n/a	ROPE	9	2	[0, 0, 0]	n/a	FR1	2	R1154D
265.332	1.617	581958	WORD	n/a	wordpools/wordpool_EN.txt	PIE	10	2	[0, 0, 0]	n/a	FR1	2	R1154D
266.949	0.817	583575	WORD_OFF	n/a	n/a	PIE	10	2	[0, 0, 0]	n/a	FR1	2	R1154D
267.766	1.616	584392	WORD	n/a	wordpools/wordpool_EN.txt	BRUSH	11	2	[0, 0, 0]	n/a	FR1	2	R1154D
269.382	0.817	586008	WORD_OFF	n/a	n/a	BRUSH	11	2	[0, 0, 0]	n/a	FR1	2	R1154D
270.199	1.617	586825	WORD	n/a	wordpools/wordpool_EN.txt	RICE	12	2	[0, 0, 0]	n/a	FR1	2	R1154D
271.816	0.0	588442	WORD_OFF	n/a	n/a	RICE	12	2	[0, 0, 0]	n/a	FR1	2	R1154D
271.816	0.001	588442	DISTRACT_START	n/a	n/a	n/a	-999	2	[0, 0, 0]	n/a	FR1	2	R1154D
271.817	0.016	588443	START	n/a	n/a	n/a	-999	2	[-999, -999, -999]	n/a	FR1	2	R1154D
271.833	2.267	588459	PROB	2.267	n/a	n/a	-999	2	[4, 6, 4]	14	FR1	2	R1154D
274.1	1.635	590726	PROB	1.635	n/a	n/a	-999	2	[4, 2, 2]	8	FR1	2	R1154D
275.735	2.216	592361	PROB	2.216	n/a	n/a	-999	2	[6, 5, 3]	14	FR1	2	R1154D
277.951	2.933	594577	PROB	2.933	n/a	n/a	-999	2	[9, 7, 5]	21	FR1	2	R1154D
280.884	3.334	597509	PROB	3.334	n/a	n/a	-999	2	[5, 6, 5]	16	FR1	2	R1154D
284.218	2.884	600843	PROB	2.884	n/a	n/a	-999	2	[5, 7, 1]	13	FR1	2	R1154D
287.102	1.817	603727	PROB	1.817	n/a	n/a	-999	2	[4, 5, 4]	13	FR1	2	R1154D
288.919	1.818	605544	PROB	1.818	n/a	n/a	-999	2	[4, 7, 2]	13	FR1	2	R1154D
290.737	1.807	607362	PROB	1.807	n/a	n/a	-999	2	[5, 3, 7]	15	FR1	2	R1154D
292.544	0.01	609169	STOP	n/a	n/a	n/a	-999	2	[-999, -999, -999]	n/a	FR1	2	R1154D
292.554	0.582	609179	DISTRACT_END	n/a	n/a	n/a	-999	2	[0, 0, 0]	n/a	FR1	2	R1154D
293.136	0.519	609761	RETRIEVAL_ORIENT	n/a	n/a	n/a	-999	2	[0, 0, 0]	n/a	FR1	2	R1154D
293.655	0.599	610280	REC_START	n/a	n/a	n/a	-999	2	[0, 0, 0]	n/a	FR1	2	R1154D
294.254	0.61	610879	REC_WORD	0.61	n/a	HAWK	-999	2	[0, 0, 0]	n/a	FR1	2	R1154D
294.864	0.622	611489	REC_WORD	0.622	n/a	FARM	-999	2	[0, 0, 0]	n/a	FR1	2	R1154D
295.486	2.098	612111	REC_WORD	2.098	n/a	CROW	-999	2	[0, 0, 0]	n/a	FR1	2	R1154D
297.584	26.083	614208	REC_WORD	26.083	n/a	FOX	-999	2	[0, 0, 0]	n/a	FR1	2	R1154D
323.667	4.576	640290	REC_END	n/a	n/a	n/a	-999	2	[0, 0, 0]	n/a	FR1	2	R1154D
328.243	0.5	644866	TRIAL	n/a	n/a	n/a	-999	3	[0, 0, 0]	n/a	FR1	2	R1154D
328.743	10.428	645366	COUNTDOWN_START	n/a	n/a	n/a	-999	3	[0, 0, 0]	n/a	FR1	2	R1154D
339.171	0.007	655793	COUNTDOWN_END	n/a	n/a	n/a	-999	3	[0, 0, 0]	n/a	FR1	2	R1154D
339.178	1.617	655800	ORIENT	n/a	n/a	n/a	-999	3	[0, 0, 0]	n/a	FR1	2	R1154D
340.795	2.184	657417	ORIENT_OFF	n/a	n/a	n/a	-999	3	[0, 0, 0]	n/a	FR1	2	R1154D
342.979	1.618	659601	WORD	n/a	wordpools/wordpool_EN.txt	TRASH	1	3	[0, 0, 0]	n/a	FR1	2	R1154D
344.597	0.799	661219	WORD_OFF	n/a	n/a	TRASH	1	3	[0, 0, 0]	n/a	FR1	2	R1154D
345.396	1.617	662018	WORD	n/a	wordpools/wordpool_EN.txt	ANT	2	3	[0, 0, 0]	n/a	FR1	2	R1154D
347.013	0.917	663635	WORD_OFF	n/a	n/a	ANT	2	3	[0, 0, 0]	n/a	FR1	2	R1154D
347.93	1.601	664552	WORD	n/a	wordpools/wordpool_EN.txt	NEST	3	3	[0, 0, 0]	n/a	FR1	2	R1154D
349.531	0.816	666153	WORD_OFF	n/a	n/a	NEST	3	3	[0, 0, 0]	n/a	FR1	2	R1154D
350.347	1.617	666969	WORD	n/a	wordpools/wordpool_EN.txt	BRANCH	4	3	[0, 0, 0]	n/a	FR1	2	R1154D
351.964	0.95	668586	WORD_OFF	n/a	n/a	BRANCH	4	3	[0, 0, 0]	n/a	FR1	2	R1154D
352.914	1.618	669536	WORD	n/a	wordpools/wordpool_EN.txt	TRUCK	5	3	[0, 0, 0]	n/a	FR1	2	R1154D
354.532	0.984	671153	WORD_OFF	n/a	n/a	TRUCK	5	3	[0, 0, 0]	n/a	FR1	2	R1154D
355.516	1.616	672137	WORD	n/a	wordpools/wordpool_EN.txt	WOOD	6	3	[0, 0, 0]	n/a	FR1	2	R1154D
357.132	0.9	673753	WORD_OFF	n/a	n/a	WOOD	6	3	[0, 0, 0]	n/a	FR1	2	R1154D
358.032	1.618	674653	WORD	n/a	wordpools/wordpool_EN.txt	LAKE	7	3	[0, 0, 0]	n/a	FR1	2	R1154D
359.65	0.9	676271	WORD_OFF	n/a	n/a	LAKE	7	3	[0, 0, 0]	n/a	FR1	2	R1154D
360.55	1.616	677171	WORD	n/a	wordpools/wordpool_EN.txt	HOUSE	8	3	[0, 0, 0]	n/a	FR1	2	R1154D
362.166	0.783	678787	WORD_OFF	n/a	n/a	HOUSE	8	3	[0, 0, 0]	n/a	FR1	2	R1154D
362.949	1.618	679570	WORD	n/a	wordpools/wordpool_EN.txt	TREE	9	3	[0, 0, 0]	n/a	FR1	2	R1154D
364.567	0.849	681188	WORD_OFF	n/a	n/a	TREE	9	3	[0, 0, 0]	n/a	FR1	2	R1154D
365.416	1.618	682037	WORD	n/a	wordpools/wordpool_EN.txt	CHALK	10	3	[0, 0, 0]	n/a	FR1	2	R1154D
367.034	0.983	683655	WORD_OFF	n/a	n/a	CHALK	10	3	[0, 0, 0]	n/a	FR1	2	R1154D
368.017	1.601	684638	WORD	n/a	wordpools/wordpool_EN.txt	MOOSE	11	3	[0, 0, 0]	n/a	FR1	2	R1154D
369.618	0.917	686239	WORD_OFF	n/a	n/a	MOOSE	11	3	[0, 0, 0]	n/a	FR1	2	R1154D
370.535	1.616	687156	WORD	n/a	wordpools/wordpool_EN.txt	WEB	12	3	[0, 0, 0]	n/a	FR1	2	R1154D
372.151	0.0	688772	WORD_OFF	n/a	n/a	WEB	12	3	[0, 0, 0]	n/a	FR1	2	R1154D
372.151	0.001	688772	DISTRACT_START	n/a	n/a	n/a	-999	3	[0, 0, 0]	n/a	FR1	2	R1154D
372.152	0.016	688773	START	n/a	n/a	n/a	-999	3	[-999, -999, -999]	n/a	FR1	2	R1154D
372.168	2.451	688789	PROB	2.451	n/a	n/a	-999	3	[3, 1, 5]	9	FR1	2	R1154D
374.619	1.633	691239	PROB	1.633	n/a	n/a	-999	3	[1, 5, 8]	14	FR1	2	R1154D
376.252	1.534	692872	PROB	1.534	n/a	n/a	-999	3	[1, 5, 5]	11	FR1	2	R1154D
377.786	2.483	694406	PROB	2.483	n/a	n/a	-999	3	[5, 2, 7]	14	FR1	2	R1154D
380.269	1.934	696889	PROB	1.934	n/a	n/a	-999	3	[9, 2, 1]	12	FR1	2	R1154D
382.203	3.667	698823	PROB	3.667	n/a	n/a	-999	3	[1, 3, 6]	10	FR1	2	R1154D
385.87	1.868	702490	PROB	1.868	n/a	n/a	-999	3	[5, 1, 1]	7	FR1	2	R1154D
387.738	2.216	704358	PROB	2.216	n/a	n/a	-999	3	[9, 2, 8]	19	FR1	2	R1154D
389.954	1.934	706574	PROB	1.934	n/a	n/a	-999	3	[2, 3, 5]	10	FR1	2	R1154D
391.888	2.047	708507	PROB	2.047	n/a	n/a	-999	3	[8, 1, 7]	16	FR1	2	R1154D
393.935	0.02	710554	STOP	n/a	n/a	n/a	-999	3	[-999, -999, -999]	n/a	FR1	2	R1154D
393.955	0.618	710574	DISTRACT_END	n/a	n/a	n/a	-999	3	[0, 0, 0]	n/a	FR1	2	R1154D
394.573	0.516	711192	RETRIEVAL_ORIENT	n/a	n/a	n/a	-999	3	[0, 0, 0]	n/a	FR1	2	R1154D
395.089	1.461	711708	REC_START	n/a	n/a	n/a	-999	3	[0, 0, 0]	n/a	FR1	2	R1154D
396.55	4.302	713169	REC_WORD	4.302	n/a	MOOSE	-999	3	[0, 0, 0]	n/a	FR1	2	R1154D
400.852	1.514	717471	REC_WORD	1.514	n/a	NEST	-999	3	[0, 0, 0]	n/a	FR1	2	R1154D
402.366	0.79	718985	REC_WORD	0.79	n/a	ANT	-999	3	[0, 0, 0]	n/a	FR1	2	R1154D
403.156	5.684	719775	REC_WORD	5.684	n/a	TRASH	-999	3	[0, 0, 0]	n/a	FR1	2	R1154D
408.84	16.259	725459	REC_WORD	16.259	n/a	WEB	-999	3	[0, 0, 0]	n/a	FR1	2	R1154D
425.099	4.43	741717	REC_END	n/a	n/a	n/a	-999	3	[0, 0, 0]	n/a	FR1	2	R1154D
429.529	0.5	746146	TRIAL	n/a	n/a	n/a	-999	4	[0, 0, 0]	n/a	FR1	2	R1154D
430.029	10.428	746646	COUNTDOWN_START	n/a	n/a	n/a	-999	4	[0, 0, 0]	n/a	FR1	2	R1154D
440.457	0.008	757074	COUNTDOWN_END	n/a	n/a	n/a	-999	4	[0, 0, 0]	n/a	FR1	2	R1154D
440.465	1.616	757082	ORIENT	n/a	n/a	n/a	-999	4	[0, 0, 0]	n/a	FR1	2	R1154D
442.081	2.033	758698	ORIENT_OFF	n/a	n/a	n/a	-999	4	[0, 0, 0]	n/a	FR1	2	R1154D
444.114	1.601	760731	WORD	n/a	wordpools/wordpool_EN.txt	POOL	1	4	[0, 0, 0]	n/a	FR1	2	R1154D
445.715	0.884	762332	WORD_OFF	n/a	n/a	POOL	1	4	[0, 0, 0]	n/a	FR1	2	R1154D
446.599	1.616	763216	WORD	n/a	wordpools/wordpool_EN.txt	FLOOR	2	4	[0, 0, 0]	n/a	FR1	2	R1154D
448.215	0.85	764831	WORD_OFF	n/a	n/a	FLOOR	2	4	[0, 0, 0]	n/a	FR1	2	R1154D
449.065	1.618	765681	WORD	n/a	wordpools/wordpool_EN.txt	PEACH	3	4	[0, 0, 0]	n/a	FR1	2	R1154D
450.683	0.85	767299	WORD_OFF	n/a	n/a	PEACH	3	4	[0, 0, 0]	n/a	FR1	2	R1154D
451.533	1.616	768149	WORD	n/a	wordpools/wordpool_EN.txt	OAK	4	4	[0, 0, 0]	n/a	FR1	2	R1154D
453.149	0.8	769765	WORD_OFF	n/a	n/a	OAK	4	4	[0, 0, 0]	n/a	FR1	2	R1154D
453.949	1.602	770565	WORD	n/a	wordpools/wordpool_EN.txt	GATE	5	4	[0, 0, 0]	n/a	FR1	2	R1154D
455.551	0.95	772167	WORD_OFF	n/a	n/a	GATE	5	4	[0, 0, 0]	n/a	FR1	2	R1154D
456.501	1.616	773117	WORD	n/a	wordpools/wordpool_EN.txt	PALM	6	4	[0, 0, 0]	n/a	FR1	2	R1154D
458.117	0.967	774733	WORD_OFF	n/a	n/a	PALM	6	4	[0, 0, 0]	n/a	FR1	2	R1154D
459.084	1.618	775700	WORD	n/a	wordpools/wordpool_EN.txt	LAMB	7	4	[0, 0, 0]	n/a	FR1	2	R1154D
460.702	0.9	777318	WORD_OFF	n/a	n/a	LAMB	7	4	[0, 0, 0]	n/a	FR1	2	R1154D
461.602	1.616	778218	WORD	n/a	wordpools/wordpool_EN.txt	GEESE	8	4	[0, 0, 0]	n/a	FR1	2	R1154D
463.218	0.817	779834	WORD_OFF	n/a	n/a	GEESE	8	4	[0, 0, 0]	n/a	FR1	2	R1154D
464.035	1.617	780651	WORD	n/a	wordpools/wordpool_EN.txt	DART	9	4	[0, 0, 0]	n/a	FR1	2	R1154D
465.652	0.834	782268	WORD_OFF	n/a	n/a	DART	9	4	[0, 0, 0]	n/a	FR1	2	R1154D
466.486	1.616	783101	WORD	n/a	wordpools/wordpool_EN.txt	HAND	10	4	[0, 0, 0]	n/a	FR1	2	R1154D
468.102	0.983	784717	WORD_OFF	n/a	n/a	HAND	10	4	[0, 0, 0]	n/a	FR1	2	R1154D
469.085	1.602	785700	WORD	n/a	wordpools/wordpool_EN.txt	STOOL	11	4	[0, 0, 0]	n/a	FR1	2	R1154D
470.687	0.817	787302	WORD_OFF	n/a	n/a	STOOL	11	4	[0, 0, 0]	n/a	FR1	2	R1154D
471.504	1.616	788119	WORD	n/a	wordpools/wordpool_EN.txt	CUP	12	4	[0, 0, 0]	n/a	FR1	2	R1154D
473.12	0.0	789735	WORD_OFF	n/a	n/a	CUP	12	4	[0, 0, 0]	n/a	FR1	2	R1154D
473.12	0.0	789735	DISTRACT_START	n/a	n/a	n/a	-999	4	[0, 0, 0]	n/a	FR1	2	R1154D
473.12	0.016	789735	START	n/a	n/a	n/a	-999	4	[-999, -999, -999]	n/a	FR1	2	R1154D
473.136	3.868	789751	PROB	3.868	n/a	n/a	-999	4	[9, 8, 3]	20	FR1	2	R1154D
477.004	2.501	793619	PROB	2.501	n/a	n/a	-999	4	[8, 6, 6]	20	FR1	2	R1154D
479.505	1.816	796120	PROB	1.816	n/a	n/a	-999	4	[1, 3, 6]	10	FR1	2	R1154D
481.321	2.484	797936	PROB	2.484	n/a	n/a	-999	4	[7, 6, 9]	24	FR1	2	R1154D
483.805	2.45	800420	PROB	2.45	n/a	n/a	-999	4	[6, 8, 1]	15	FR1	2	R1154D
486.255	1.817	802869	PROB	1.817	n/a	n/a	-999	4	[2, 6, 1]	9	FR1	2	R1154D
488.072	4.485	804686	PROB	4.485	n/a	n/a	-999	4	[9, 5, 9]	23	FR1	2	R1154D
492.557	2.473	809171	PROB	2.473	n/a	n/a	-999	4	[9, 1, 7]	17	FR1	2	R1154D
495.03	0.01	811644	STOP	n/a	n/a	n/a	-999	4	[-999, -999, -999]	n/a	FR1	2	R1154D
495.04	0.635	811654	DISTRACT_END	n/a	n/a	n/a	-999	4	[0, 0, 0]	n/a	FR1	2	R1154D
495.675	0.516	812289	RETRIEVAL_ORIENT	n/a	n/a	n/a	-999	4	[0, 0, 0]	n/a	FR1	2	R1154D
496.191	1.167	812805	REC_START	n/a	n/a	n/a	-999	4	[0, 0, 0]	n/a	FR1	2	R1154D
497.358	0.834	813972	REC_WORD	0.834	n/a	POOL	-999	4	[0, 0, 0]	n/a	FR1	2	R1154D
498.192	0.671	814806	REC_WORD	0.671	n/a	FLOOR	-999	4	[0, 0, 0]	n/a	FR1	2	R1154D
498.863	6.887	815477	REC_WORD	6.887	n/a	GATE	-999	4	[0, 0, 0]	n/a	FR1	2	R1154D
505.75	7.436	822363	REC_WORD	7.436	n/a	PEACH	-999	4	[0, 0, 0]	n/a	FR1	2	R1154D
513.186	5.576	829799	REC_WORD	5.576	n/a	PEACH	-999	4	[0, 0, 0]	n/a	FR1	2	R1154D
518.762	7.44	835375	REC_WORD	7.44	n/a	CUP	-999	4	[0, 0, 0]	n/a	FR1	2	R1154D
526.202	4.611	842814	REC_END	n/a	n/a	n/a	-999	4	[0, 0, 0]	n/a	FR1	2	R1154D
530.813	0.5	847425	TRIAL	n/a	n/a	n/a	-999	5	[0, 0, 0]	n/a	FR1	2	R1154D
531.313	10.428	847925	COUNTDOWN_START	n/a	n/a	n/a	-999	5	[0, 0, 0]	n/a	FR1	2	R1154D
541.741	0.009	858352	COUNTDOWN_END	n/a	n/a	n/a	-999	5	[0, 0, 0]	n/a	FR1	2	R1154D
541.75	1.616	858361	ORIENT	n/a	n/a	n/a	-999	5	[0, 0, 0]	n/a	FR1	2	R1154D
543.366	1.917	859977	ORIENT_OFF	n/a	n/a	n/a	-999	5	[0, 0, 0]	n/a	FR1	2	R1154D
545.283	1.617	861894	WORD	n/a	wordpools/wordpool_EN.txt	STEAM	1	5	[0, 0, 0]	n/a	FR1	2	R1154D
546.9	0.917	863511	WORD_OFF	n/a	n/a	STEAM	1	5	[0, 0, 0]	n/a	FR1	2	R1154D
547.817	1.618	864428	WORD	n/a	wordpools/wordpool_EN.txt	ZOO	2	5	[0, 0, 0]	n/a	FR1	2	R1154D
549.435	0.765	866046	WORD_OFF	n/a	n/a	ZOO	2	5	[0, 0, 0]	n/a	FR1	2	R1154D
550.2	1.617	866811	WORD	n/a	wordpools/wordpool_EN.txt	TOOTH	3	5	[0, 0, 0]	n/a	FR1	2	R1154D
551.817	0.818	868428	WORD_OFF	n/a	n/a	TOOTH	3	5	[0, 0, 0]	n/a	FR1	2	R1154D
552.635	1.616	869246	WORD	n/a	wordpools/wordpool_EN.txt	CORD	4	5	[0, 0, 0]	n/a	FR1	2	R1154D
554.251	0.9	870862	WORD_OFF	n/a	n/a	CORD	4	5	[0, 0, 0]	n/a	FR1	2	R1154D
555.151	1.601	871762	WORD	n/a	wordpools/wordpool_EN.txt	FILM	5	5	[0, 0, 0]	n/a	FR1	2	R1154D
556.752	0.934	873363	WORD_OFF	n/a	n/a	FILM	5	5	[0, 0, 0]	n/a	FR1	2	R1154D
557.686	1.616	874297	WORD	n/a	wordpools/wordpool_EN.txt	WHEEL	6	5	[0, 0, 0]	n/a	FR1	2	R1154D
559.302	0.833	875913	WORD_OFF	n/a	n/a	WHEEL	6	5	[0, 0, 0]	n/a	FR1	2	R1154D
560.135	1.618	876745	WORD	n/a	wordpools/wordpool_EN.txt	BOMB	7	5	[0, 0, 0]	n/a	FR1	2	R1154D
561.753	0.884	878363	WORD_OFF	n/a	n/a	BOMB	7	5	[0, 0, 0]	n/a	FR1	2	R1154D
562.637	1.616	879247	WORD	n/a	wordpools/wordpool_EN.txt	BRIDGE	8	5	[0, 0, 0]	n/a	FR1	2	R1154D
564.253	0.917	880863	WORD_OFF	n/a	n/a	BRIDGE	8	5	[0, 0, 0]	n/a	FR1	2	R1154D
565.17	1.618	881780	WORD	n/a	wordpools/wordpool_EN.txt	MOLE	9	5	[0, 0, 0]	n/a	FR1	2	R1154D
566.788	0.816	883398	WORD_OFF	n/a	n/a	MOLE	9	5	[0, 0, 0]	n/a	FR1	2	R1154D
567.604	1.616	884214	WORD	n/a	wordpools/wordpool_EN.txt	BALL	10	5	[0, 0, 0]	n/a	FR1	2	R1154D
569.22	1.001	885830	WORD_OFF	n/a	n/a	BALL	10	5	[0, 0, 0]	n/a	FR1	2	R1154D
570.221	1.617	886831	WORD	n/a	wordpools/wordpool_EN.txt	TEETH	11	5	[0, 0, 0]	n/a	FR1	2	R1154D
571.838	0.834	888448	WORD_OFF	n/a	n/a	TEETH	11	5	[0, 0, 0]	n/a	FR1	2	R1154D
572.672	1.616	889282	WORD	n/a	wordpools/wordpool_EN.txt	ARK	12	5	[0, 0, 0]	n/a	FR1	2	R1154D
574.288	0.0	890898	WORD_OFF	n/a	n/a	ARK	12	5	[0, 0, 0]	n/a	FR1	2	R1154D
574.288	0.001	890898	DISTRACT_START	n/a	n/a	n/a	-999	5	[0, 0, 0]	n/a	FR1	2	R1154D
574.289	0.016	890899	START	n/a	n/a	n/a	-999	5	[-999, -999, -999]	n/a	FR1	2	R1154D
574.305	3.75	890915	PROB	3.75	n/a	n/a	-999	5	[6, 8, 2]	16	FR1	2	R1154D
578.055	2.134	894664	PROB	2.134	n/a	n/a	-999	5	[6, 8, 3]	17	FR1	2	R1154D
580.189	2.017	896798	PROB	2.017	n/a	n/a	-999	5	[4, 4, 9]	17	FR1	2	R1154D
582.206	2.801	898815	PROB	2.801	n/a	n/a	-999	5	[8, 9, 5]	23	FR1	2	R1154D
585.007	1.983	901616	PROB	1.983	n/a	n/a	-999	5	[9, 1, 6]	16	FR1	2	R1154D
586.99	2.401	903599	PROB	2.401	n/a	n/a	-999	5	[8, 5, 3]	16	FR1	2	R1154D
589.391	3.201	906000	PROB	3.201	n/a	n/a	-999	5	[4, 8, 7]	19	FR1	2	R1154D
592.592	1.734	909201	PROB	1.734	n/a	n/a	-999	5	[5, 1, 1]	7	FR1	2	R1154D
594.326	0.016	910935	STOP	n/a	n/a	n/a	-999	5	[-999, -999, -999]	n/a	FR1	2	R1154D
594.342	0.566	910951	DISTRACT_END	n/a	n/a	n/a	-999	5	[0, 0, 0]	n/a	FR1	2	R1154D
594.908	0.519	911517	RETRIEVAL_ORIENT	n/a	n/a	n/a	-999	5	[0, 0, 0]	n/a	FR1	2	R1154D
595.427	3.339	912036	REC_START	n/a	n/a	n/a	-999	5	[0, 0, 0]	n/a	FR1	2	R1154D
598.766	7.668	915374	REC_WORD	7.668	n/a	TEETH	-999	5	[0, 0, 0]	n/a	FR1	2	R1154D
606.434	0.675	923042	REC_WORD	0.675	n/a	BRIDGE	-999	5	[0, 0, 0]	n/a	FR1	2	R1154D
607.109	18.329	923717	REC_WORD	18.329	n/a	BOMB	-999	5	[0, 0, 0]	n/a	FR1	2	R1154D
625.438	4.477	942045	REC_END	n/a	n/a	n/a	-999	5	[0, 0, 0]	n/a	FR1	2	R1154D
629.915	0.5	946522	TRIAL	n/a	n/a	n/a	-999	6	[0, 0, 0]	n/a	FR1	2	R1154D
630.415	10.428	947022	COUNTDOWN_START	n/a	n/a	n/a	-999	6	[0, 0, 0]	n/a	FR1	2	R1154D
640.843	0.007	957449	COUNTDOWN_END	n/a	n/a	n/a	-999	6	[0, 0, 0]	n/a	FR1	2	R1154D
640.85	1.618	957456	ORIENT	n/a	n/a	n/a	-999	6	[0, 0, 0]	n/a	FR1	2	R1154D
642.468	1.95	959074	ORIENT_OFF	n/a	n/a	n/a	-999	6	[0, 0, 0]	n/a	FR1	2	R1154D
644.418	1.616	961024	WORD	n/a	wordpools/wordpool_EN.txt	WOLF	1	6	[0, 0, 0]	n/a	FR1	2	R1154D
646.034	0.951	962640	WORD_OFF	n/a	n/a	WOLF	1	6	[0, 0, 0]	n/a	FR1	2	R1154D
646.985	1.601	963591	WORD	n/a	wordpools/wordpool_EN.txt	PET	2	6	[0, 0, 0]	n/a	FR1	2	R1154D
648.586	0.766	965192	WORD_OFF	n/a	n/a	PET	2	6	[0, 0, 0]	n/a	FR1	2	R1154D
649.352	1.617	965958	WORD	n/a	wordpools/wordpool_EN.txt	FLEA	3	6	[0, 0, 0]	n/a	FR1	2	R1154D
650.969	0.983	967575	WORD_OFF	n/a	n/a	FLEA	3	6	[0, 0, 0]	n/a	FR1	2	R1154D
651.952	1.601	968558	WORD	n/a	wordpools/wordpool_EN.txt	RAT	4	6	[0, 0, 0]	n/a	FR1	2	R1154D
653.553	0.816	970158	WORD_OFF	n/a	n/a	RAT	4	6	[0, 0, 0]	n/a	FR1	2	R1154D
654.369	1.617	970974	WORD	n/a	wordpools/wordpool_EN.txt	PIT	5	6	[0, 0, 0]	n/a	FR1	2	R1154D
655.986	0.867	972591	WORD_OFF	n/a	n/a	PIT	5	6	[0, 0, 0]	n/a	FR1	2	R1154D
656.853	1.618	973458	WORD	n/a	wordpools/wordpool_EN.txt	HOOF	6	6	[0, 0, 0]	n/a	FR1	2	R1154D
658.471	0.783	975076	WORD_OFF	n/a	n/a	HOOF	6	6	[0, 0, 0]	n/a	FR1	2	R1154D
659.254	1.617	975859	WORD	n/a	wordpools/wordpool_EN.txt	BOWL	7	6	[0, 0, 0]	n/a	FR1	2	R1154D
660.871	0.817	977476	WORD_OFF	n/a	n/a	BOWL	7	6	[0, 0, 0]	n/a	FR1	2	R1154D
661.688	1.616	978293	WORD	n/a	wordpools/wordpool_EN.txt	DOG	8	6	[0, 0, 0]	n/a	FR1	2	R1154D
663.304	1.001	979909	WORD_OFF	n/a	n/a	DOG	8	6	[0, 0, 0]	n/a	FR1	2	R1154D
664.305	1.616	980910	WORD	n/a	wordpools/wordpool_EN.txt	FACE	9	6	[0, 0, 0]	n/a	FR1	2	R1154D
665.921	0.768	982526	WORD_OFF	n/a	n/a	FACE	9	6	[0, 0, 0]	n/a	FR1	2	R1154D
666.689	1.616	983294	WORD	n/a	wordpools/wordpool_EN.txt	FUR	10	6	[0, 0, 0]	n/a	FR1	2	R1154D
668.305	0.85	984910	WORD_OFF	n/a	n/a	FUR	10	6	[0, 0, 0]	n/a	FR1	2	R1154D
669.155	1.618	985760	WORD	n/a	wordpools/wordpool_EN.txt	BUSH	11	6	[0, 0, 0]	n/a	FR1	2	R1154D
670.773	1.017	987378	WORD_OFF	n/a	n/a	BUSH	11	6	[0, 0, 0]	n/a	FR1	2	R1154D
671.79	1.616	988394	WORD	n/a	wordpools/wordpool_EN.txt	BROOM	12	6	[0, 0, 0]	n/a	FR1	2	R1154D
673.406	0.0	990010	DISTRACT_START	n/a	n/a	n/a	-999	6	[0, 0, 0]	n/a	FR1	2	R1154D
673.406	0.001	990010	WORD_OFF	n/a	n/a	BROOM	12	6	[0, 0, 0]	n/a	FR1	2	R1154D
673.407	0.016	990011	START	n/a	n/a	n/a	-999	6	[-999, -999, -999]	n/a	FR1	2	R1154D
673.423	3.884	990027	PROB	3.884	n/a	n/a	-999	6	[7, 9, 6]	24	FR1	2	R1154D
677.307	1.418	993911	PROB	1.418	n/a	n/a	-999	6	[4, 8, 2]	14	FR1	2	R1154D
678.725	2.416	995329	PROB	2.416	n/a	n/a	-999	6	[9, 6, 4]	19	FR1	2	R1154D
681.141	2.667	997745	PROB	2.667	n/a	n/a	-999	6	[7, 8, 5]	21	FR1	2	R1154D
683.808	1.801	1000412	PROB	1.801	n/a	n/a	-999	6	[1, 1, 7]	9	FR1	2	R1154D
685.609	1.516	1002213	PROB	1.516	n/a	n/a	-999	6	[3, 3, 7]	13	FR1	2	R1154D
687.125	1.652	1003729	PROB	1.652	n/a	n/a	-999	6	[3, 9, 1]	13	FR1	2	R1154D
688.777	2.249	1005381	PROB	2.249	n/a	n/a	-999	6	[3, 4, 7]	14	FR1	2	R1154D
691.026	2.05	1007629	PROB	2.05	n/a	n/a	-999	6	[9, 3, 3]	15	FR1	2	R1154D
693.076	2.041	1009679	PROB	2.041	n/a	n/a	-999	6	[6, 4, 8]	18	FR1	2	R1154D
695.117	0.01	1011720	STOP	n/a	n/a	n/a	-999	6	[-999, -999, -999]	n/a	FR1	2	R1154D
695.127	0.651	1011730	DISTRACT_END	n/a	n/a	n/a	-999	6	[0, 0, 0]	n/a	FR1	2	R1154D
695.778	0.516	1012381	RETRIEVAL_ORIENT	n/a	n/a	n/a	-999	6	[0, 0, 0]	n/a	FR1	2	R1154D
696.294	0.601	1012897	REC_START	n/a	n/a	n/a	-999	6	[0, 0, 0]	n/a	FR1	2	R1154D
696.895	0.669	1013498	REC_WORD	0.669	n/a	PET	-999	6	[0, 0, 0]	n/a	FR1	2	R1154D
697.564	0.484	1014167	REC_WORD	0.484	n/a	DOG	-999	6	[0, 0, 0]	n/a	FR1	2	R1154D
698.048	2.857	1014651	REC_WORD	2.857	n/a	FLEA	-999	6	[0, 0, 0]	n/a	FR1	2	R1154D
700.905	5.037	1017508	REC_WORD	5.037	n/a	RAT	-999	6	[0, 0, 0]	n/a	FR1	2	R1154D
705.942	7.222	1022545	REC_WORD	7.222	n/a	BUSH	-999	6	[0, 0, 0]	n/a	FR1	2	R1154D
713.164	13.141	1029766	REC_WORD	13.141	n/a	FACE	-999	6	[0, 0, 0]	n/a	FR1	2	R1154D
726.305	4.279	1042907	REC_END	n/a	n/a	n/a	-999	6	[0, 0, 0]	n/a	FR1	2	R1154D
730.584	0.5	1047185	TRIAL	n/a	n/a	n/a	-999	7	[0, 0, 0]	n/a	FR1	2	R1154D
731.084	10.428	1047685	COUNTDOWN_START	n/a	n/a	n/a	-999	7	[0, 0, 0]	n/a	FR1	2	R1154D
741.512	0.008	1058113	COUNTDOWN_END	n/a	n/a	n/a	-999	7	[0, 0, 0]	n/a	FR1	2	R1154D
741.52	1.616	1058121	ORIENT	n/a	n/a	n/a	-999	7	[0, 0, 0]	n/a	FR1	2	R1154D
743.136	2.283	1059737	ORIENT_OFF	n/a	n/a	n/a	-999	7	[0, 0, 0]	n/a	FR1	2	R1154D
745.419	1.617	1062020	WORD	n/a	wordpools/wordpool_EN.txt	SOUP	1	7	[0, 0, 0]	n/a	FR1	2	R1154D
747.036	0.784	1063636	WORD_OFF	n/a	n/a	SOUP	1	7	[0, 0, 0]	n/a	FR1	2	R1154D
747.82	1.618	1064420	WORD	n/a	wordpools/wordpool_EN.txt	MOUTH	2	7	[0, 0, 0]	n/a	FR1	2	R1154D
749.438	0.899	1066038	WORD_OFF	n/a	n/a	MOUTH	2	7	[0, 0, 0]	n/a	FR1	2	R1154D
750.337	1.617	1066937	WORD	n/a	wordpools/wordpool_EN.txt	LAWN	3	7	[0, 0, 0]	n/a	FR1	2	R1154D
751.954	0.933	1068554	WORD_OFF	n/a	n/a	LAWN	3	7	[0, 0, 0]	n/a	FR1	2	R1154D
752.887	1.618	1069487	WORD	n/a	wordpools/wordpool_EN.txt	COW	4	7	[0, 0, 0]	n/a	FR1	2	R1154D
754.505	0.916	1071105	WORD_OFF	n/a	n/a	COW	4	7	[0, 0, 0]	n/a	FR1	2	R1154D
755.421	1.617	1072021	WORD	n/a	wordpools/wordpool_EN.txt	SMILE	5	7	[0, 0, 0]	n/a	FR1	2	R1154D
757.038	0.833	1073638	WORD_OFF	n/a	n/a	SMILE	5	7	[0, 0, 0]	n/a	FR1	2	R1154D
757.871	1.602	1074471	WORD	n/a	wordpools/wordpool_EN.txt	SNAKE	6	7	[0, 0, 0]	n/a	FR1	2	R1154D
759.473	0.932	1076073	WORD_OFF	n/a	n/a	SNAKE	6	7	[0, 0, 0]	n/a	FR1	2	R1154D
760.405	1.617	1077005	WORD	n/a	wordpools/wordpool_EN.txt	BEAK	7	7	[0, 0, 0]	n/a	FR1	2	R1154D
762.022	0.867	1078622	WORD_OFF	n/a	n/a	BEAK	7	7	[0, 0, 0]	n/a	FR1	2	R1154D
762.889	1.618	1079489	WORD	n/a	wordpools/wordpool_EN.txt	HORN	8	7	[0, 0, 0]	n/a	FR1	2	R1154D
764.507	0.799	1081107	WORD_OFF	n/a	n/a	HORN	8	7	[0, 0, 0]	n/a	FR1	2	R1154D
765.306	1.617	1081905	WORD	n/a	wordpools/wordpool_EN.txt	SEAL	9	7	[0, 0, 0]	n/a	FR1	2	R1154D
766.923	0.835	1083522	WORD_OFF	n/a	n/a	SEAL	9	7	[0, 0, 0]	n/a	FR1	2	R1154D
767.758	1.616	1084357	WORD	n/a	wordpools/wordpool_EN.txt	STEAK	10	7	[0, 0, 0]	n/a	FR1	2	R1154D
769.374	0.95	1085973	WORD_OFF	n/a	n/a	STEAK	10	7	[0, 0, 0]	n/a	FR1	2	R1154D
770.324	1.617	1086923	WORD	n/a	wordpools/wordpool_EN.txt	OWL	11	7	[0, 0, 0]	n/a	FR1	2	R1154D
771.941	0.916	1088540	WORD_OFF	n/a	n/a	OWL	11	7	[0, 0, 0]	n/a	FR1	2	R1154D
772.857	1.602	1089456	WORD	n/a	wordpools/wordpool_EN.txt	SNAIL	12	7	[0, 0, 0]	n/a	FR1	2	R1154D
774.459	0.0	1091058	WORD_OFF	n/a	n/a	SNAIL	12	7	[0, 0, 0]	n/a	FR1	2	R1154D
774.459	0.0	1091058	DISTRACT_START	n/a	n/a	n/a	-999	7	[0, 0, 0]	n/a	FR1	2	R1154D
774.459	0.017	1091058	START	n/a	n/a	n/a	-999	7	[-999, -999, -999]	n/a	FR1	2	R1154D
774.476	3.649	1091075	PROB	3.649	n/a	n/a	-999	7	[9, 6, 3]	18	FR1	2	R1154D
778.125	2.518	1094724	PROB	2.518	n/a	n/a	-999	7	[2, 3, 4]	9	FR1	2	R1154D
780.643	8.451	1097242	PROB	8.451	n/a	n/a	-999	7	[5, 7, 8]	20	FR1	2	R1154D
789.094	1.518	1105692	PROB	1.518	n/a	n/a	-999	7	[8, 1, 4]	13	FR1	2	R1154D
790.612	3.733	1107210	PROB	3.733	n/a	n/a	-999	7	[7, 9, 9]	27	FR1	2	R1154D
794.345	3.125	1110943	PROB	3.125	n/a	n/a	-999	7	[1, 5, 7]	13	FR1	2	R1154D
797.47	0.01	1114068	STOP	n/a	n/a	n/a	-999	7	[-999, -999, -999]	n/a	FR1	2	R1154D
797.48	0.616	1114078	DISTRACT_END	n/a	n/a	n/a	-999	7	[0, 0, 0]	n/a	FR1	2	R1154D
798.096	0.518	1114694	RETRIEVAL_ORIENT	n/a	n/a	n/a	-999	7	[0, 0, 0]	n/a	FR1	2	R1154D
798.614	0.921	1115212	REC_START	n/a	n/a	n/a	-999	7	[0, 0, 0]	n/a	FR1	2	R1154D
799.535	1.173	1116133	REC_WORD	1.173	n/a	SEAL	-999	7	[0, 0, 0]	n/a	FR1	2	R1154D
800.708	5.448	1117306	REC_WORD	5.448	n/a	SNAKE	-999	7	[0, 0, 0]	n/a	FR1	2	R1154D
806.156	5.97	1122753	REC_WORD	5.97	n/a	SOUP	-999	7	[0, 0, 0]	n/a	FR1	2	R1154D
812.126	7.577	1128723	REC_WORD	7.577	n/a	HORN	-999	7	[0, 0, 0]	n/a	FR1	2	R1154D
819.703	8.922	1136300	REC_WORD	8.922	n/a	STEAK	-999	7	[0, 0, 0]	n/a	FR1	2	R1154D
828.625	4.694	1145221	REC_END	n/a	n/a	n/a	-999	7	[0, 0, 0]	n/a	FR1	2	R1154D
833.319	0.5	1149915	TRIAL	n/a	n/a	n/a	-999	8	[0, 0, 0]	n/a	FR1	2	R1154D
833.819	10.428	1150415	COUNTDOWN_START	n/a	n/a	n/a	-999	8	[0, 0, 0]	n/a	FR1	2	R1154D
844.247	0.007	1160842	COUNTDOWN_END	n/a	n/a	n/a	-999	8	[0, 0, 0]	n/a	FR1	2	R1154D
844.254	1.617	1160849	ORIENT	n/a	n/a	n/a	-999	8	[0, 0, 0]	n/a	FR1	2	R1154D
845.871	1.934	1162466	ORIENT_OFF	n/a	n/a	n/a	-999	8	[0, 0, 0]	n/a	FR1	2	R1154D
847.805	1.617	1164400	WORD	n/a	wordpools/wordpool_EN.txt	YARD	1	8	[0, 0, 0]	n/a	FR1	2	R1154D
849.422	1.0	1166017	WORD_OFF	n/a	n/a	YARD	1	8	[0, 0, 0]	n/a	FR1	2	R1154D
850.422	1.617	1167017	WORD	n/a	wordpools/wordpool_EN.txt	GLASS	2	8	[0, 0, 0]	n/a	FR1	2	R1154D
852.039	0.917	1168634	WORD_OFF	n/a	n/a	GLASS	2	8	[0, 0, 0]	n/a	FR1	2	R1154D
852.956	1.618	1169551	WORD	n/a	wordpools/wordpool_EN.txt	CAKE	3	8	[0, 0, 0]	n/a	FR1	2	R1154D
854.574	0.782	1171169	WORD_OFF	n/a	n/a	CAKE	3	8	[0, 0, 0]	n/a	FR1	2	R1154D
855.356	1.617	1171951	WORD	n/a	wordpools/wordpool_EN.txt	BREAD	4	8	[0, 0, 0]	n/a	FR1	2	R1154D
856.973	0.818	1173568	WORD_OFF	n/a	n/a	BREAD	4	8	[0, 0, 0]	n/a	FR1	2	R1154D
857.791	1.616	1174386	WORD	n/a	wordpools/wordpool_EN.txt	STRAW	5	8	[0, 0, 0]	n/a	FR1	2	R1154D
859.407	0.983	1176001	WORD_OFF	n/a	n/a	STRAW	5	8	[0, 0, 0]	n/a	FR1	2	R1154D
860.39	1.617	1176984	WORD	n/a	wordpools/wordpool_EN.txt	FOOD	6	8	[0, 0, 0]	n/a	FR1	2	R1154D
862.007	1.0	1178601	WORD_OFF	n/a	n/a	FOOD	6	8	[0, 0, 0]	n/a	FR1	2	R1154D
863.007	1.602	1179601	WORD	n/a	wordpools/wordpool_EN.txt	JUICE	7	8	[0, 0, 0]	n/a	FR1	2	R1154D
864.609	0.95	1181203	WORD_OFF	n/a	n/a	JUICE	7	8	[0, 0, 0]	n/a	FR1	2	R1154D
865.559	1.616	1182153	WORD	n/a	wordpools/wordpool_EN.txt	BAG	8	8	[0, 0, 0]	n/a	FR1	2	R1154D
867.175	0.967	1183769	WORD_OFF	n/a	n/a	BAG	8	8	[0, 0, 0]	n/a	FR1	2	R1154D
868.142	1.601	1184736	WORD	n/a	wordpools/wordpool_EN.txt	SINK	9	8	[0, 0, 0]	n/a	FR1	2	R1154D
869.743	0.867	1186337	WORD_OFF	n/a	n/a	SINK	9	8	[0, 0, 0]	n/a	FR1	2	R1154D
870.61	1.616	1187204	WORD	n/a	wordpools/wordpool_EN.txt	BOX	10	8	[0, 0, 0]	n/a	FR1	2	R1154D
872.226	0.95	1188820	WORD_OFF	n/a	n/a	BOX	10	8	[0, 0, 0]	n/a	FR1	2	R1154D
873.176	1.617	1189770	WORD	n/a	wordpools/wordpool_EN.txt	SLUSH	11	8	[0, 0, 0]	n/a	FR1	2	R1154D
874.793	0.834	1191387	WORD_OFF	n/a	n/a	SLUSH	11	8	[0, 0, 0]	n/a	FR1	2	R1154D
875.627	1.616	1192221	WORD	n/a	wordpools/wordpool_EN.txt	LAMP	12	8	[0, 0, 0]	n/a	FR1	2	R1154D
877.243	0.0	1193836	WORD_OFF	n/a	n/a	LAMP	12	8	[0, 0, 0]	n/a	FR1	2	R1154D
877.243	0.001	1193836	DISTRACT_START	n/a	n/a	n/a	-999	8	[0, 0, 0]	n/a	FR1	2	R1154D
877.244	0.016	1193837	START	n/a	n/a	n/a	-999	8	[-999, -999, -999]	n/a	FR1	2	R1154D
877.26	2.352	1193853	PROB	2.352	n/a	n/a	-999	8	[2, 2, 6]	10	FR1	2	R1154D
879.612	5.134	1196205	PROB	5.134	n/a	n/a	-999	8	[6, 7, 6]	19	FR1	2	R1154D
884.746	3.349	1201339	PROB	3.349	n/a	n/a	-999	8	[8, 4, 7]	19	FR1	2	R1154D
888.095	2.385	1204688	PROB	2.385	n/a	n/a	-999	8	[3, 6, 6]	15	FR1	2	R1154D
890.48	2.483	1207073	PROB	2.483	n/a	n/a	-999	8	[9, 4, 4]	17	FR1	2	R1154D
892.963	1.9	1209556	PROB	1.9	n/a	n/a	-999	8	[1, 5, 1]	7	FR1	2	R1154D
894.863	2.251	1211456	PROB	2.251	n/a	n/a	-999	8	[2, 8, 9]	19	FR1	2	R1154D
897.114	3.708	1213706	PROB	3.708	n/a	n/a	-999	8	[8, 9, 2]	19	FR1	2	R1154D
900.822	0.009	1217414	STOP	n/a	n/a	n/a	-999	8	[-999, -999, -999]	n/a	FR1	2	R1154D
900.831	0.685	1217423	DISTRACT_END	n/a	n/a	n/a	-999	8	[0, 0, 0]	n/a	FR1	2	R1154D
901.516	0.516	1218108	RETRIEVAL_ORIENT	n/a	n/a	n/a	-999	8	[0, 0, 0]	n/a	FR1	2	R1154D
902.032	1.133	1218624	REC_START	n/a	n/a	n/a	-999	8	[0, 0, 0]	n/a	FR1	2	R1154D
903.165	1.648	1219757	REC_WORD_VV	1.648	n/a	<>	-999	8	[0, 0, 0]	n/a	FR1	2	R1154D
904.813	0.536	1221405	REC_WORD	0.536	n/a	CAKE	-999	8	[0, 0, 0]	n/a	FR1	2	R1154D
905.349	5.624	1221941	REC_WORD	5.624	n/a	FOOD	-999	8	[0, 0, 0]	n/a	FR1	2	R1154D
910.973	20.749	1227565	REC_WORD	20.749	n/a	SOUP	-999	8	[0, 0, 0]	n/a	FR1	2	R1154D
931.722	0.32	1248313	REC_WORD_VV	0.32	n/a	<>	-999	8	[0, 0, 0]	n/a	FR1	2	R1154D
932.042	5.146	1248633	REC_END	n/a	n/a	n/a	-999	8	[0, 0, 0]	n/a	FR1	2	R1154D
937.188	0.5	1253778	TRIAL	n/a	n/a	n/a	-999	9	[0, 0, 0]	n/a	FR1	2	R1154D
937.688	10.428	1254278	COUNTDOWN_START	n/a	n/a	n/a	-999	9	[0, 0, 0]	n/a	FR1	2	R1154D
948.116	0.007	1264706	COUNTDOWN_END	n/a	n/a	n/a	-999	9	[0, 0, 0]	n/a	FR1	2	R1154D
948.123	1.618	1264713	ORIENT	n/a	n/a	n/a	-999	9	[0, 0, 0]	n/a	FR1	2	R1154D
949.741	2.116	1266331	ORIENT_OFF	n/a	n/a	n/a	-999	9	[0, 0, 0]	n/a	FR1	2	R1154D
951.857	1.618	1268447	WORD	n/a	wordpools/wordpool_EN.txt	DUCK	1	9	[0, 0, 0]	n/a	FR1	2	R1154D
953.475	0.782	1270064	WORD_OFF	n/a	n/a	DUCK	1	9	[0, 0, 0]	n/a	FR1	2	R1154D
954.257	1.617	1270846	WORD	n/a	wordpools/wordpool_EN.txt	FOOT	2	9	[0, 0, 0]	n/a	FR1	2	R1154D
955.874	0.852	1272463	WORD_OFF	n/a	n/a	FOOT	2	9	[0, 0, 0]	n/a	FR1	2	R1154D
956.726	1.616	1273315	WORD	n/a	wordpools/wordpool_EN.txt	VINE	3	9	[0, 0, 0]	n/a	FR1	2	R1154D
958.342	0.95	1274931	WORD_OFF	n/a	n/a	VINE	3	9	[0, 0, 0]	n/a	FR1	2	R1154D
959.292	1.617	1275881	WORD	n/a	wordpools/wordpool_EN.txt	TAIL	4	9	[0, 0, 0]	n/a	FR1	2	R1154D
960.909	1.0	1277498	WORD_OFF	n/a	n/a	TAIL	4	9	[0, 0, 0]	n/a	FR1	2	R1154D
961.909	1.618	1278498	WORD	n/a	wordpools/wordpool_EN.txt	SPRING	5	9	[0, 0, 0]	n/a	FR1	2	R1154D
963.527	0.882	1280116	WORD_OFF	n/a	n/a	SPRING	5	9	[0, 0, 0]	n/a	FR1	2	R1154D
964.409	1.617	1280998	WORD	n/a	wordpools/wordpool_EN.txt	POND	6	9	[0, 0, 0]	n/a	FR1	2	R1154D
966.026	0.967	1282615	WORD_OFF	n/a	n/a	POND	6	9	[0, 0, 0]	n/a	FR1	2	R1154D
966.993	1.618	1283582	WORD	n/a	wordpools/wordpool_EN.txt	KITE	7	9	[0, 0, 0]	n/a	FR1	2	R1154D
968.611	0.834	1285200	WORD_OFF	n/a	n/a	KITE	7	9	[0, 0, 0]	n/a	FR1	2	R1154D
969.445	1.616	1286034	WORD	n/a	wordpools/wordpool_EN.txt	HILL	8	9	[0, 0, 0]	n/a	FR1	2	R1154D
971.061	0.916	1287649	WORD_OFF	n/a	n/a	HILL	8	9	[0, 0, 0]	n/a	FR1	2	R1154D
971.977	1.602	1288565	WORD	n/a	wordpools/wordpool_EN.txt	GRASS	9	9	[0, 0, 0]	n/a	FR1	2	R1154D
973.579	0.983	1290167	WORD_OFF	n/a	n/a	GRASS	9	9	[0, 0, 0]	n/a	FR1	2	R1154D
974.562	1.616	1291150	WORD	n/a	wordpools/wordpool_EN.txt	SPEAR	10	9	[0, 0, 0]	n/a	FR1	2	R1154D
976.178	0.967	1292766	WORD_OFF	n/a	n/a	SPEAR	10	9	[0, 0, 0]	n/a	FR1	2	R1154D
977.145	1.618	1293733	WORD	n/a	wordpools/wordpool_EN.txt	DEER	11	9	[0, 0, 0]	n/a	FR1	2	R1154D
978.763	0.817	1295351	WORD_OFF	n/a	n/a	DEER	11	9	[0, 0, 0]	n/a	FR1	2	R1154D
979.58	1.616	1296168	WORD	n/a	wordpools/wordpool_EN.txt	SWAMP	12	9	[0, 0, 0]	n/a	FR1	2	R1154D
981.196	0.0	1297784	WORD_OFF	n/a	n/a	SWAMP	12	9	[0, 0, 0]	n/a	FR1	2	R1154D
981.196	0.0	1297784	DISTRACT_START	n/a	n/a	n/a	-999	9	[0, 0, 0]	n/a	FR1	2	R1154D
981.196	0.016	1297784	START	n/a	n/a	n/a	-999	9	[-999, -999, -999]	n/a	FR1	2	R1154D
981.212	3.901	1297800	PROB	3.901	n/a	n/a	-999	9	[8, 7, 1]	16	FR1	2	R1154D
985.113	2.284	1301701	PROB	2.284	n/a	n/a	-999	9	[7, 7, 5]	19	FR1	2	R1154D
987.397	2.784	1303985	PROB	2.784	n/a	n/a	-999	9	[8, 1, 6]	13	FR1	2	R1154D
990.181	2.384	1306768	PROB	2.384	n/a	n/a	-999	9	[3, 7, 7]	17	FR1	2	R1154D
992.565	2.25	1309152	PROB	2.25	n/a	n/a	-999	9	[4, 8, 4]	16	FR1	2	R1154D
994.815	1.6	1311402	PROB	1.6	n/a	n/a	-999	9	[2, 3, 8]	13	FR1	2	R1154D
996.415	5.6	1313002	PROB	5.6	n/a	n/a	-999	9	[8, 7, 8]	23	FR1	2	R1154D
1002.015	0.018	1318602	STOP	n/a	n/a	n/a	-999	9	[-999, -999, -999]	n/a	FR1	2	R1154D
1002.033	0.618	1318620	DISTRACT_END	n/a	n/a	n/a	-999	9	[0, 0, 0]	n/a	FR1	2	R1154D
1002.651	0.516	1319238	RETRIEVAL_ORIENT	n/a	n/a	n/a	-999	9	[0, 0, 0]	n/a	FR1	2	R1154D
1003.167	0.809	1319754	REC_START	n/a	n/a	n/a	-999	9	[0, 0, 0]	n/a	FR1	2	R1154D
1003.976	0.496	1320563	REC_WORD	0.496	n/a	DUCK	-999	9	[0, 0, 0]	n/a	FR1	2	R1154D
1004.472	1.543	1321059	REC_WORD	1.543	n/a	POND	-999	9	[0, 0, 0]	n/a	FR1	2	R1154D
1006.015	0.891	1322602	REC_WORD	0.891	n/a	SWAMP	-999	9	[0, 0, 0]	n/a	FR1	2	R1154D
1006.906	26.273	1323493	REC_WORD	26.273	n/a	FOOT	-999	9	[0, 0, 0]	n/a	FR1	2	R1154D
1033.179	4.378	1349764	REC_END	n/a	n/a	n/a	-999	9	[0, 0, 0]	n/a	FR1	2	R1154D
1037.557	0.5	1354142	TRIAL	n/a	n/a	n/a	-999	10	[0, 0, 0]	n/a	FR1	2	R1154D
1038.057	10.428	1354642	COUNTDOWN_START	n/a	n/a	n/a	-999	10	[0, 0, 0]	n/a	FR1	2	R1154D
1048.485	0.007	1365069	COUNTDOWN_END	n/a	n/a	n/a	-999	10	[0, 0, 0]	n/a	FR1	2	R1154D
1048.492	1.616	1365076	ORIENT	n/a	n/a	n/a	-999	10	[0, 0, 0]	n/a	FR1	2	R1154D
1050.108	2.134	1366692	ORIENT_OFF	n/a	n/a	n/a	-999	10	[0, 0, 0]	n/a	FR1	2	R1154D
1052.242	1.617	1368826	WORD	n/a	wordpools/wordpool_EN.txt	CHIEF	1	10	[0, 0, 0]	n/a	FR1	2	R1154D
1053.859	0.934	1370443	WORD_OFF	n/a	n/a	CHIEF	1	10	[0, 0, 0]	n/a	FR1	2	R1154D
1054.793	1.616	1371377	WORD	n/a	wordpools/wordpool_EN.txt	CLOWN	2	10	[0, 0, 0]	n/a	FR1	2	R1154D
1056.409	0.934	1372993	WORD_OFF	n/a	n/a	CLOWN	2	10	[0, 0, 0]	n/a	FR1	2	R1154D
1057.343	1.617	1373927	WORD	n/a	wordpools/wordpool_EN.txt	BOOK	3	10	[0, 0, 0]	n/a	FR1	2	R1154D
1058.96	0.85	1375544	WORD_OFF	n/a	n/a	BOOK	3	10	[0, 0, 0]	n/a	FR1	2	R1154D
1059.81	1.618	1376394	WORD	n/a	wordpools/wordpool_EN.txt	JAIL	4	10	[0, 0, 0]	n/a	FR1	2	R1154D
1061.428	1.0	1378012	WORD_OFF	n/a	n/a	JAIL	4	10	[0, 0, 0]	n/a	FR1	2	R1154D
1062.428	1.616	1379012	WORD	n/a	wordpools/wordpool_EN.txt	PURSE	5	10	[0, 0, 0]	n/a	FR1	2	R1154D
1064.044	0.784	1380628	WORD_OFF	n/a	n/a	PURSE	5	10	[0, 0, 0]	n/a	FR1	2	R1154D
1064.828	1.618	1381411	WORD	n/a	wordpools/wordpool_EN.txt	WEED	6	10	[0, 0, 0]	n/a	FR1	2	R1154D
1066.446	1.0	1383029	WORD_OFF	n/a	n/a	WEED	6	10	[0, 0, 0]	n/a	FR1	2	R1154D
1067.446	1.616	1384029	WORD	n/a	wordpools/wordpool_EN.txt	JUDGE	7	10	[0, 0, 0]	n/a	FR1	2	R1154D
1069.062	0.95	1385645	WORD_OFF	n/a	n/a	JUDGE	7	10	[0, 0, 0]	n/a	FR1	2	R1154D
1070.012	1.618	1386595	WORD	n/a	wordpools/wordpool_EN.txt	PIG	8	10	[0, 0, 0]	n/a	FR1	2	R1154D
1071.63	0.983	1388213	WORD_OFF	n/a	n/a	PIG	8	10	[0, 0, 0]	n/a	FR1	2	R1154D
1072.613	1.616	1389196	WORD	n/a	wordpools/wordpool_EN.txt	BADGE	9	10	[0, 0, 0]	n/a	FR1	2	R1154D
1074.229	0.817	1390812	WORD_OFF	n/a	n/a	BADGE	9	10	[0, 0, 0]	n/a	FR1	2	R1154D
1075.046	1.618	1391629	WORD	n/a	wordpools/wordpool_EN.txt	MUG	10	10	[0, 0, 0]	n/a	FR1	2	R1154D
1076.664	0.967	1393247	WORD_OFF	n/a	n/a	MUG	10	10	[0, 0, 0]	n/a	FR1	2	R1154D
1077.631	1.616	1394214	WORD	n/a	wordpools/wordpool_EN.txt	HORSE	11	10	[0, 0, 0]	n/a	FR1	2	R1154D
1079.247	0.85	1395830	WORD_OFF	n/a	n/a	HORSE	11	10	[0, 0, 0]	n/a	FR1	2	R1154D
1080.097	1.601	1396680	WORD	n/a	wordpools/wordpool_EN.txt	EAR	12	10	[0, 0, 0]	n/a	FR1	2	R1154D
1081.698	0.0	1398281	WORD_OFF	n/a	n/a	EAR	12	10	[0, 0, 0]	n/a	FR1	2	R1154D
1081.698	0.001	1398281	DISTRACT_START	n/a	n/a	n/a	-999	10	[0, 0, 0]	n/a	FR1	2	R1154D
1081.699	0.016	1398282	START	n/a	n/a	n/a	-999	10	[-999, -999, -999]	n/a	FR1	2	R1154D
1081.715	3.051	1398298	PROB	3.051	n/a	n/a	-999	10	[3, 7, 2]	12	FR1	2	R1154D
1084.766	4.333	1401348	PROB	4.333	n/a	n/a	-999	10	[6, 7, 8]	21	FR1	2	R1154D
1089.099	2.917	1405681	PROB	2.917	n/a	n/a	-999	10	[9, 9, 7]	26	FR1	2	R1154D
1092.016	3.001	1408598	PROB	3.001	n/a	n/a	-999	10	[1, 6, 2]	9	FR1	2	R1154D
1095.017	1.817	1411599	PROB	1.817	n/a	n/a	-999	10	[7, 7, 5]	19	FR1	2	R1154D
1096.834	2.383	1413416	PROB	2.383	n/a	n/a	-999	10	[9, 7, 6]	22	FR1	2	R1154D
1099.217	1.402	1415799	PROB	1.402	n/a	n/a	-999	10	[1, 7, 3]	11	FR1	2	R1154D
1100.619	2.563	1417201	PROB	2.563	n/a	n/a	-999	10	[6, 5, 6]	17	FR1	2	R1154D
1103.182	0.019	1419763	STOP	n/a	n/a	n/a	-999	10	[-999, -999, -999]	n/a	FR1	2	R1154D
1103.201	0.585	1419782	DISTRACT_END	n/a	n/a	n/a	-999	10	[0, 0, 0]	n/a	FR1	2	R1154D
1103.786	0.516	1420367	RETRIEVAL_ORIENT	n/a	n/a	n/a	-999	10	[0, 0, 0]	n/a	FR1	2	R1154D
1104.302	4.01	1420883	REC_START	n/a	n/a	n/a	-999	10	[0, 0, 0]	n/a	FR1	2	R1154D
1108.312	3.59	1424893	REC_WORD_VV	3.59	n/a	<>	-999	10	[0, 0, 0]	n/a	FR1	2	R1154D
1111.902	0.995	1428483	REC_WORD_VV	0.995	n/a	<>	-999	10	[0, 0, 0]	n/a	FR1	2	R1154D
1112.897	10.035	1429478	REC_WORD_VV	10.035	n/a	<>	-999	10	[0, 0, 0]	n/a	FR1	2	R1154D
1122.932	0.99	1439512	REC_WORD_VV	0.99	n/a	<>	-999	10	[0, 0, 0]	n/a	FR1	2	R1154D
1123.922	10.391	1440502	REC_WORD_VV	10.391	n/a	<>	-999	10	[0, 0, 0]	n/a	FR1	2	R1154D
1134.313	4.229	1450893	REC_END	n/a	n/a	n/a	-999	10	[0, 0, 0]	n/a	FR1	2	R1154D
1138.542	0.5	1455122	TRIAL	n/a	n/a	n/a	-999	11	[0, 0, 0]	n/a	FR1	2	R1154D
1139.042	10.428	1455621	COUNTDOWN_START	n/a	n/a	n/a	-999	11	[0, 0, 0]	n/a	FR1	2	R1154D
1149.47	0.008	1466049	COUNTDOWN_END	n/a	n/a	n/a	-999	11	[0, 0, 0]	n/a	FR1	2	R1154D
1149.478	1.615	1466057	ORIENT	n/a	n/a	n/a	-999	11	[0, 0, 0]	n/a	FR1	2	R1154D
1151.093	1.968	1467672	ORIENT_OFF	n/a	n/a	n/a	-999	11	[0, 0, 0]	n/a	FR1	2	R1154D
1153.061	1.617	1469640	WORD	n/a	wordpools/wordpool_EN.txt	AXE	1	11	[0, 0, 0]	n/a	FR1	2	R1154D
1154.678	0.867	1471257	WORD_OFF	n/a	n/a	AXE	1	11	[0, 0, 0]	n/a	FR1	2	R1154D
1155.545	1.616	1472124	WORD	n/a	wordpools/wordpool_EN.txt	BEAR	2	11	[0, 0, 0]	n/a	FR1	2	R1154D
1157.161	0.85	1473740	WORD_OFF	n/a	n/a	BEAR	2	11	[0, 0, 0]	n/a	FR1	2	R1154D
1158.011	1.618	1474589	WORD	n/a	wordpools/wordpool_EN.txt	BLUSH	3	11	[0, 0, 0]	n/a	FR1	2	R1154D
1159.629	0.867	1476207	WORD_OFF	n/a	n/a	BLUSH	3	11	[0, 0, 0]	n/a	FR1	2	R1154D
1160.496	1.616	1477074	WORD	n/a	wordpools/wordpool_EN.txt	FLAME	4	11	[0, 0, 0]	n/a	FR1	2	R1154D
1162.112	0.784	1478690	WORD_OFF	n/a	n/a	FLAME	4	11	[0, 0, 0]	n/a	FR1	2	R1154D
1162.896	1.618	1479474	WORD	n/a	wordpools/wordpool_EN.txt	WORM	5	11	[0, 0, 0]	n/a	FR1	2	R1154D
1164.514	0.849	1481092	WORD_OFF	n/a	n/a	WORM	5	11	[0, 0, 0]	n/a	FR1	2	R1154D
1165.363	1.617	1481941	WORD	n/a	wordpools/wordpool_EN.txt	MILK	6	11	[0, 0, 0]	n/a	FR1	2	R1154D
1166.98	0.817	1483558	WORD_OFF	n/a	n/a	MILK	6	11	[0, 0, 0]	n/a	FR1	2	R1154D
1167.797	1.616	1484375	WORD	n/a	wordpools/wordpool_EN.txt	HOLE	7	11	[0, 0, 0]	n/a	FR1	2	R1154D
1169.413	0.817	1485991	WORD_OFF	n/a	n/a	HOLE	7	11	[0, 0, 0]	n/a	FR1	2	R1154D
1170.23	1.617	1486808	WORD	n/a	wordpools/wordpool_EN.txt	SPOON	8	11	[0, 0, 0]	n/a	FR1	2	R1154D
1171.847	0.801	1488425	WORD_OFF	n/a	n/a	SPOON	8	11	[0, 0, 0]	n/a	FR1	2	R1154D
1172.648	1.616	1489226	WORD	n/a	wordpools/wordpool_EN.txt	FENCE	9	11	[0, 0, 0]	n/a	FR1	2	R1154D
1174.264	0.817	1490842	WORD_OFF	n/a	n/a	FENCE	9	11	[0, 0, 0]	n/a	FR1	2	R1154D
1175.081	1.618	1491659	WORD	n/a	wordpools/wordpool_EN.txt	FORK	10	11	[0, 0, 0]	n/a	FR1	2	R1154D
1176.699	1.0	1493276	WORD_OFF	n/a	n/a	FORK	10	11	[0, 0, 0]	n/a	FR1	2	R1154D
1177.699	1.616	1494276	WORD	n/a	wordpools/wordpool_EN.txt	DRUM	11	11	[0, 0, 0]	n/a	FR1	2	R1154D
1179.315	0.967	1495892	WORD_OFF	n/a	n/a	DRUM	11	11	[0, 0, 0]	n/a	FR1	2	R1154D
1180.282	1.617	1496859	WORD	n/a	wordpools/wordpool_EN.txt	DOLL	12	11	[0, 0, 0]	n/a	FR1	2	R1154D
1181.899	0.0	1498476	DISTRACT_START	n/a	n/a	n/a	-999	11	[0, 0, 0]	n/a	FR1	2	R1154D
1181.899	0.001	1498476	WORD_OFF	n/a	n/a	DOLL	12	11	[0, 0, 0]	n/a	FR1	2	R1154D
1181.9	0.016	1498477	START	n/a	n/a	n/a	-999	11	[-999, -999, -999]	n/a	FR1	2	R1154D
1181.916	2.467	1498493	PROB	2.467	n/a	n/a	-999	11	[8, 1, 9]	18	FR1	2	R1154D
1184.383	2.517	1500960	PROB	2.517	n/a	n/a	-999	11	[9, 9, 6]	25	FR1	2	R1154D
1186.9	3.517	1503477	PROB	3.517	n/a	n/a	-999	11	[4, 5, 3]	12	FR1	2	R1154D
1190.417	1.767	1506994	PROB	1.767	n/a	n/a	-999	11	[8, 2, 2]	12	FR1	2	R1154D
1192.184	3.851	1508761	PROB	3.851	n/a	n/a	-999	11	[4, 2, 1]	7	FR1	2	R1154D
1196.035	1.585	1512611	PROB	1.585	n/a	n/a	-999	11	[1, 3, 3]	7	FR1	2	R1154D
1197.62	3.199	1514196	PROB	3.199	n/a	n/a	-999	11	[2, 9, 5]	16	FR1	2	R1154D
1200.819	1.291	1517395	PROB	1.291	n/a	n/a	-999	11	[7, 3, 2]	12	FR1	2	R1154D
1202.11	0.009	1518686	STOP	n/a	n/a	n/a	-999	11	[-999, -999, -999]	n/a	FR1	2	R1154D
1202.119	0.535	1518695	DISTRACT_END	n/a	n/a	n/a	-999	11	[0, 0, 0]	n/a	FR1	2	R1154D
1202.654	0.516	1519230	RETRIEVAL_ORIENT	n/a	n/a	n/a	-999	11	[0, 0, 0]	n/a	FR1	2	R1154D
1203.17	0.566	1519746	REC_START	n/a	n/a	n/a	-999	11	[0, 0, 0]	n/a	FR1	2	R1154D
1203.736	1.064	1520312	REC_WORD	1.064	n/a	FLAME	-999	11	[0, 0, 0]	n/a	FR1	2	R1154D
1204.8	6.06	1521376	REC_WORD	6.06	n/a	AXE	-999	11	[0, 0, 0]	n/a	FR1	2	R1154D
1210.86	1.087	1527436	REC_WORD	1.087	n/a	FOOT	-999	11	[0, 0, 0]	n/a	FR1	2	R1154D
1211.947	5.227	1528523	REC_WORD_VV	5.227	n/a	<>	-999	11	[0, 0, 0]	n/a	FR1	2	R1154D
1217.174	0.99	1533749	REC_WORD_VV	0.99	n/a	<>	-999	11	[0, 0, 0]	n/a	FR1	2	R1154D
1218.164	14.152	1534739	REC_WORD_VV	14.152	n/a	<>	-999	11	[0, 0, 0]	n/a	FR1	2	R1154D
1232.316	0.865	1548891	REC_WORD_VV	0.865	n/a	<>	-999	11	[0, 0, 0]	n/a	FR1	2	R1154D
1233.181	5.479	1549755	REC_END	n/a	n/a	n/a	-999	11	[0, 0, 0]	n/a	FR1	2	R1154D
1238.66	0.5	1555234	TRIAL	n/a	n/a	n/a	-999	12	[0, 0, 0]	n/a	FR1	2	R1154D
1239.16	10.428	1555734	COUNTDOWN_START	n/a	n/a	n/a	-999	12	[0, 0, 0]	n/a	FR1	2	R1154D
1249.588	0.008	1566162	COUNTDOWN_END	n/a	n/a	n/a	-999	12	[0, 0, 0]	n/a	FR1	2	R1154D
1249.596	1.616	1566170	ORIENT	n/a	n/a	n/a	-999	12	[0, 0, 0]	n/a	FR1	2	R1154D
1251.212	2.067	1567785	ORIENT_OFF	n/a	n/a	n/a	-999	12	[0, 0, 0]	n/a	FR1	2	R1154D
1253.279	1.617	1569852	WORD	n/a	wordpools/wordpool_EN.txt	PLATE	1	12	[0, 0, 0]	n/a	FR1	2	R1154D
1254.896	0.768	1571469	WORD_OFF	n/a	n/a	PLATE	1	12	[0, 0, 0]	n/a	FR1	2	R1154D
1255.664	1.616	1572237	WORD	n/a	wordpools/wordpool_EN.txt	BOOT	2	12	[0, 0, 0]	n/a	FR1	2	R1154D
1257.28	0.8	1573853	WORD_OFF	n/a	n/a	BOOT	2	12	[0, 0, 0]	n/a	FR1	2	R1154D
1258.08	1.618	1574653	WORD	n/a	wordpools/wordpool_EN.txt	TOE	3	12	[0, 0, 0]	n/a	FR1	2	R1154D
1259.698	0.817	1576271	WORD_OFF	n/a	n/a	TOE	3	12	[0, 0, 0]	n/a	FR1	2	R1154D
1260.515	1.615	1577088	WORD	n/a	wordpools/wordpool_EN.txt	NAIL	4	12	[0, 0, 0]	n/a	FR1	2	R1154D
1262.13	0.934	1578703	WORD_OFF	n/a	n/a	NAIL	4	12	[0, 0, 0]	n/a	FR1	2	R1154D
1263.064	1.618	1579637	WORD	n/a	wordpools/wordpool_EN.txt	EEL	5	12	[0, 0, 0]	n/a	FR1	2	R1154D
1264.682	1.0	1581255	WORD_OFF	n/a	n/a	EEL	5	12	[0, 0, 0]	n/a	FR1	2	R1154D
1265.682	1.616	1582255	WORD	n/a	wordpools/wordpool_EN.txt	ROOT	6	12	[0, 0, 0]	n/a	FR1	2	R1154D
1267.298	0.917	1583871	WORD_OFF	n/a	n/a	ROOT	6	12	[0, 0, 0]	n/a	FR1	2	R1154D
1268.215	1.617	1584788	WORD	n/a	wordpools/wordpool_EN.txt	HOSE	7	12	[0, 0, 0]	n/a	FR1	2	R1154D
1269.832	0.801	1586404	WORD_OFF	n/a	n/a	HOSE	7	12	[0, 0, 0]	n/a	FR1	2	R1154D
1270.633	1.616	1587205	WORD	n/a	wordpools/wordpool_EN.txt	PIN	8	12	[0, 0, 0]	n/a	FR1	2	R1154D
1272.249	0.85	1588821	WORD_OFF	n/a	n/a	PIN	8	12	[0, 0, 0]	n/a	FR1	2	R1154D
1273.099	1.618	1589671	WORD	n/a	wordpools/wordpool_EN.txt	SPONGE	9	12	[0, 0, 0]	n/a	FR1	2	R1154D
1274.717	0.934	1591289	WORD_OFF	n/a	n/a	SPONGE	9	12	[0, 0, 0]	n/a	FR1	2	R1154D
1275.651	1.616	1592223	WORD	n/a	wordpools/wordpool_EN.txt	PASTE	10	12	[0, 0, 0]	n/a	FR1	2	R1154D
1277.267	0.8	1593839	WORD_OFF	n/a	n/a	PASTE	10	12	[0, 0, 0]	n/a	FR1	2	R1154D
1278.067	1.618	1594639	WORD	n/a	wordpools/wordpool_EN.txt	ARM	11	12	[0, 0, 0]	n/a	FR1	2	R1154D
1279.685	0.8	1596257	WORD_OFF	n/a	n/a	ARM	11	12	[0, 0, 0]	n/a	FR1	2	R1154D
1280.485	1.616	1597057	WORD	n/a	wordpools/wordpool_EN.txt	LIP	12	12	[0, 0, 0]	n/a	FR1	2	R1154D
1282.101	0.0	1598673	WORD_OFF	n/a	n/a	LIP	12	12	[0, 0, 0]	n/a	FR1	2	R1154D
1282.101	0.0	1598673	DISTRACT_START	n/a	n/a	n/a	-999	12	[0, 0, 0]	n/a	FR1	2	R1154D
1282.101	0.016	1598673	START	n/a	n/a	n/a	-999	12	[-999, -999, -999]	n/a	FR1	2	R1154D
1282.117	2.701	1598689	PROB	2.701	n/a	n/a	-999	12	[3, 6, 2]	11	FR1	2	R1154D
1284.818	1.534	1601390	PROB	1.534	n/a	n/a	-999	12	[7, 3, 9]	19	FR1	2	R1154D
1286.352	1.583	1602924	PROB	1.583	n/a	n/a	-999	12	[6, 1, 1]	8	FR1	2	R1154D
1287.935	1.851	1604507	PROB	1.851	n/a	n/a	-999	12	[1, 5, 2]	8	FR1	2	R1154D
1289.786	2.651	1606357	PROB	2.651	n/a	n/a	-999	12	[8, 9, 1]	18	FR1	2	R1154D
1292.437	3.117	1609008	PROB	3.117	n/a	n/a	-999	12	[4, 9, 4]	16	FR1	2	R1154D
1295.554	3.533	1612125	PROB	3.533	n/a	n/a	-999	12	[4, 4, 9]	17	FR1	2	R1154D
1299.087	1.934	1615658	PROB	1.934	n/a	n/a	-999	12	[4, 3, 1]	8	FR1	2	R1154D
1301.021	2.082	1617592	PROB	2.082	n/a	n/a	-999	12	[8, 4, 3]	15	FR1	2	R1154D
1303.103	0.018	1619674	STOP	n/a	n/a	n/a	-999	12	[-999, -999, -999]	n/a	FR1	2	R1154D
1303.121	0.585	1619692	DISTRACT_END	n/a	n/a	n/a	-999	12	[0, 0, 0]	n/a	FR1	2	R1154D
1303.706	0.516	1620277	RETRIEVAL_ORIENT	n/a	n/a	n/a	-999	12	[0, 0, 0]	n/a	FR1	2	R1154D
1304.222	0.632	1620793	REC_START	n/a	n/a	n/a	-999	12	[0, 0, 0]	n/a	FR1	2	R1154D
1304.854	0.657	1621425	REC_WORD	0.657	n/a	PLATE	-999	12	[0, 0, 0]	n/a	FR1	2	R1154D
1305.511	0.566	1622082	REC_WORD	0.566	n/a	BOOT	-999	12	[0, 0, 0]	n/a	FR1	2	R1154D
1306.077	1.509	1622648	REC_WORD	1.509	n/a	NAIL	-999	12	[0, 0, 0]	n/a	FR1	2	R1154D
1307.586	2.668	1624156	REC_WORD	2.668	n/a	TOE	-999	12	[0, 0, 0]	n/a	FR1	2	R1154D
1310.254	1.792	1626824	REC_WORD	1.792	n/a	ARM	-999	12	[0, 0, 0]	n/a	FR1	2	R1154D
1312.046	1.03	1628616	REC_WORD_VV	1.03	n/a	<>	-999	12	[0, 0, 0]	n/a	FR1	2	R1154D
1313.076	1.392	1629646	REC_WORD	1.392	n/a	ROOT	-999	12	[0, 0, 0]	n/a	FR1	2	R1154D
1314.468	19.763	1631038	REC_WORD	19.763	n/a	BOOT	-999	12	[0, 0, 0]	n/a	FR1	2	R1154D
1334.231	4.398	1650800	REC_END	n/a	n/a	n/a	-999	12	[0, 0, 0]	n/a	FR1	2	R1154D
1338.629	0.5	1655198	TRIAL	n/a	n/a	n/a	-999	13	[0, 0, 0]	n/a	FR1	2	R1154D
1339.129	10.428	1655698	COUNTDOWN_START	n/a	n/a	n/a	-999	13	[0, 0, 0]	n/a	FR1	2	R1154D
1349.557	0.007	1666125	COUNTDOWN_END	n/a	n/a	n/a	-999	13	[0, 0, 0]	n/a	FR1	2	R1154D
1349.564	1.616	1666132	ORIENT	n/a	n/a	n/a	-999	13	[0, 0, 0]	n/a	FR1	2	R1154D
1351.18	2.217	1667748	ORIENT_OFF	n/a	n/a	n/a	-999	13	[0, 0, 0]	n/a	FR1	2	R1154D
1353.397	1.617	1669965	WORD	n/a	wordpools/wordpool_EN.txt	MOTH	1	13	[0, 0, 0]	n/a	FR1	2	R1154D
1355.014	0.85	1671582	WORD_OFF	n/a	n/a	MOTH	1	13	[0, 0, 0]	n/a	FR1	2	R1154D
1355.864	1.618	1672432	WORD	n/a	wordpools/wordpool_EN.txt	HEN	2	13	[0, 0, 0]	n/a	FR1	2	R1154D
1357.482	0.916	1674050	WORD_OFF	n/a	n/a	HEN	2	13	[0, 0, 0]	n/a	FR1	2	R1154D
1358.398	1.617	1674966	WORD	n/a	wordpools/wordpool_EN.txt	TANK	3	13	[0, 0, 0]	n/a	FR1	2	R1154D
1360.015	0.817	1676583	WORD_OFF	n/a	n/a	TANK	3	13	[0, 0, 0]	n/a	FR1	2	R1154D
1360.832	1.618	1677400	WORD	n/a	wordpools/wordpool_EN.txt	SALT	4	13	[0, 0, 0]	n/a	FR1	2	R1154D
1362.45	0.866	1679018	WORD_OFF	n/a	n/a	SALT	4	13	[0, 0, 0]	n/a	FR1	2	R1154D
1363.316	1.617	1679883	WORD	n/a	wordpools/wordpool_EN.txt	SOAP	5	13	[0, 0, 0]	n/a	FR1	2	R1154D
1364.933	0.767	1681500	WORD_OFF	n/a	n/a	SOAP	5	13	[0, 0, 0]	n/a	FR1	2	R1154D
1365.7	1.616	1682267	WORD	n/a	wordpools/wordpool_EN.txt	STEM	6	13	[0, 0, 0]	n/a	FR1	2	R1154D
1367.316	0.901	1683883	WORD_OFF	n/a	n/a	STEM	6	13	[0, 0, 0]	n/a	FR1	2	R1154D
1368.217	1.617	1684784	WORD	n/a	wordpools/wordpool_EN.txt	FISH	7	13	[0, 0, 0]	n/a	FR1	2	R1154D
1369.834	0.966	1686401	WORD_OFF	n/a	n/a	FISH	7	13	[0, 0, 0]	n/a	FR1	2	R1154D
1370.8	1.617	1687367	WORD	n/a	wordpools/wordpool_EN.txt	WHALE	8	13	[0, 0, 0]	n/a	FR1	2	R1154D
1372.417	0.901	1688984	WORD_OFF	n/a	n/a	WHALE	8	13	[0, 0, 0]	n/a	FR1	2	R1154D
1373.318	1.616	1689885	WORD	n/a	wordpools/wordpool_EN.txt	EGG	9	13	[0, 0, 0]	n/a	FR1	2	R1154D
1374.934	0.852	1691501	WORD_OFF	n/a	n/a	EGG	9	13	[0, 0, 0]	n/a	FR1	2	R1154D
1375.786	1.616	1692353	WORD	n/a	wordpools/wordpool_EN.txt	BIRD	10	13	[0, 0, 0]	n/a	FR1	2	R1154D
1377.402	0.866	1693969	WORD_OFF	n/a	n/a	BIRD	10	13	[0, 0, 0]	n/a	FR1	2	R1154D
1378.268	1.617	1694835	WORD	n/a	wordpools/wordpool_EN.txt	PLANT	11	13	[0, 0, 0]	n/a	FR1	2	R1154D
1379.885	0.852	1696452	WORD_OFF	n/a	n/a	PLANT	11	13	[0, 0, 0]	n/a	FR1	2	R1154D
1380.737	1.615	1697304	WORD	n/a	wordpools/wordpool_EN.txt	RAKE	12	13	[0, 0, 0]	n/a	FR1	2	R1154D
1382.352	0.0	1698918	DISTRACT_START	n/a	n/a	n/a	-999	13	[0, 0, 0]	n/a	FR1	2	R1154D
1382.352	0.001	1698918	WORD_OFF	n/a	n/a	RAKE	12	13	[0, 0, 0]	n/a	FR1	2	R1154D
1382.353	0.016	1698919	START	n/a	n/a	n/a	-999	13	[-999, -999, -999]	n/a	FR1	2	R1154D
1382.369	3.801	1698935	PROB	3.801	n/a	n/a	-999	13	[8, 9, 7]	24	FR1	2	R1154D
1386.17	1.8	1702736	PROB	1.8	n/a	n/a	-999	13	[2, 1, 3]	6	FR1	2	R1154D
1387.97	1.635	1704536	PROB	1.635	n/a	n/a	-999	13	[2, 9, 2]	13	FR1	2	R1154D
1389.605	1.549	1706171	PROB	1.549	n/a	n/a	-999	13	[3, 3, 2]	8	FR1	2	R1154D
1391.154	1.85	1707720	PROB	1.85	n/a	n/a	-999	13	[5, 8, 2]	15	FR1	2	R1154D
1393.004	1.901	1709570	PROB	1.901	n/a	n/a	-999	13	[6, 2, 8]	16	FR1	2	R1154D
1394.905	2.067	1711471	PROB	2.067	n/a	n/a	-999	13	[8, 5, 3]	16	FR1	2	R1154D
1396.972	1.934	1713538	PROB	1.934	n/a	n/a	-999	13	[6, 4, 4]	14	FR1	2	R1154D
1398.906	2.551	1715472	PROB	2.551	n/a	n/a	-999	13	[8, 2, 7]	17	FR1	2	R1154D
1401.457	2.199	1718022	PROB	2.199	n/a	n/a	-999	13	[2, 7, 4]	13	FR1	2	R1154D
1403.656	0.018	1720221	STOP	n/a	n/a	n/a	-999	13	[-999, -999, -999]	n/a	FR1	2	R1154D
1403.674	0.566	1720239	DISTRACT_END	n/a	n/a	n/a	-999	13	[0, 0, 0]	n/a	FR1	2	R1154D
1404.24	0.518	1720805	RETRIEVAL_ORIENT	n/a	n/a	n/a	-999	13	[0, 0, 0]	n/a	FR1	2	R1154D
1404.758	0.912	1721323	REC_START	n/a	n/a	n/a	-999	13	[0, 0, 0]	n/a	FR1	2	R1154D
1405.67	2.758	1722235	REC_WORD	2.758	n/a	WHALE	-999	13	[0, 0, 0]	n/a	FR1	2	R1154D
1408.428	1.344	1724993	REC_WORD	1.344	n/a	SALT	-999	13	[0, 0, 0]	n/a	FR1	2	R1154D
1409.772	20.658	1726337	REC_WORD	20.658	n/a	FISH	-999	13	[0, 0, 0]	n/a	FR1	2	R1154D
1430.43	1.0	1746994	REC_WORD_VV	1.0	n/a	<>	-999	13	[0, 0, 0]	n/a	FR1	2	R1154D
1431.43	1.0	1747994	REC_WORD_VV	1.0	n/a	<>	-999	13	[0, 0, 0]	n/a	FR1	2	R1154D
1432.43	1.0	1748994	REC_WORD_VV	1.0	n/a	<>	-999	13	[0, 0, 0]	n/a	FR1	2	R1154D
1433.43	1.339	1749994	REC_WORD_VV	1.339	n/a	<>	-999	13	[0, 0, 0]	n/a	FR1	2	R1154D
1434.769	4.594	1751333	REC_END	n/a	n/a	n/a	-999	13	[0, 0, 0]	n/a	FR1	2	R1154D
1439.363	0.5	1755926	TRIAL	n/a	n/a	n/a	-999	14	[0, 0, 0]	n/a	FR1	2	R1154D
1439.863	10.428	1756426	COUNTDOWN_START	n/a	n/a	n/a	-999	14	[0, 0, 0]	n/a	FR1	2	R1154D
1450.291	0.007	1766854	COUNTDOWN_END	n/a	n/a	n/a	-999	14	[0, 0, 0]	n/a	FR1	2	R1154D
1450.298	1.617	1766861	ORIENT	n/a	n/a	n/a	-999	14	[0, 0, 0]	n/a	FR1	2	R1154D
1451.915	2.134	1768478	ORIENT_OFF	n/a	n/a	n/a	-999	14	[0, 0, 0]	n/a	FR1	2	R1154D
1454.049	1.618	1770612	WORD	n/a	wordpools/wordpool_EN.txt	SEED	1	14	[0, 0, 0]	n/a	FR1	2	R1154D
1455.667	0.883	1772230	WORD_OFF	n/a	n/a	SEED	1	14	[0, 0, 0]	n/a	FR1	2	R1154D
1456.55	1.616	1773113	WORD	n/a	wordpools/wordpool_EN.txt	MUD	2	14	[0, 0, 0]	n/a	FR1	2	R1154D
1458.166	0.851	1774728	WORD_OFF	n/a	n/a	MUD	2	14	[0, 0, 0]	n/a	FR1	2	R1154D
1459.017	1.617	1775579	WORD	n/a	wordpools/wordpool_EN.txt	SHRIMP	3	14	[0, 0, 0]	n/a	FR1	2	R1154D
1460.634	0.801	1777196	WORD_OFF	n/a	n/a	SHRIMP	3	14	[0, 0, 0]	n/a	FR1	2	R1154D
1461.435	1.616	1777997	WORD	n/a	wordpools/wordpool_EN.txt	FRUIT	4	14	[0, 0, 0]	n/a	FR1	2	R1154D
1463.051	0.833	1779613	WORD_OFF	n/a	n/a	FRUIT	4	14	[0, 0, 0]	n/a	FR1	2	R1154D
1463.884	1.618	1780446	WORD	n/a	wordpools/wordpool_EN.txt	SHELL	5	14	[0, 0, 0]	n/a	FR1	2	R1154D
1465.502	0.95	1782064	WORD_OFF	n/a	n/a	SHELL	5	14	[0, 0, 0]	n/a	FR1	2	R1154D
1466.452	1.616	1783014	WORD	n/a	wordpools/wordpool_EN.txt	HOOK	6	14	[0, 0, 0]	n/a	FR1	2	R1154D
1468.068	1.017	1784630	WORD_OFF	n/a	n/a	HOOK	6	14	[0, 0, 0]	n/a	FR1	2	R1154D
1469.085	1.618	1785647	WORD	n/a	wordpools/wordpool_EN.txt	JAR	7	14	[0, 0, 0]	n/a	FR1	2	R1154D
1470.703	0.933	1787265	WORD_OFF	n/a	n/a	JAR	7	14	[0, 0, 0]	n/a	FR1	2	R1154D
1471.636	1.616	1788198	WORD	n/a	wordpools/wordpool_EN.txt	BEE	8	14	[0, 0, 0]	n/a	FR1	2	R1154D
1473.252	1.001	1789814	WORD_OFF	n/a	n/a	BEE	8	14	[0, 0, 0]	n/a	FR1	2	R1154D
1474.253	1.617	1790815	WORD	n/a	wordpools/wordpool_EN.txt	GRAPE	9	14	[0, 0, 0]	n/a	FR1	2	R1154D
1475.87	0.867	1792431	WORD_OFF	n/a	n/a	GRAPE	9	14	[0, 0, 0]	n/a	FR1	2	R1154D
1476.737	1.616	1793298	WORD	n/a	wordpools/wordpool_EN.txt	TRAY	10	14	[0, 0, 0]	n/a	FR1	2	R1154D
1478.353	1.001	1794914	WORD_OFF	n/a	n/a	TRAY	10	14	[0, 0, 0]	n/a	FR1	2	R1154D
1479.354	1.617	1795915	WORD	n/a	wordpools/wordpool_EN.txt	TEA	11	14	[0, 0, 0]	n/a	FR1	2	R1154D
1480.971	0.966	1797532	WORD_OFF	n/a	n/a	TEA	11	14	[0, 0, 0]	n/a	FR1	2	R1154D
1481.937	1.601	1798498	WORD	n/a	wordpools/wordpool_EN.txt	SHARK	12	14	[0, 0, 0]	n/a	FR1	2	R1154D
1483.538	0.0	1800099	WORD_OFF	n/a	n/a	SHARK	12	14	[0, 0, 0]	n/a	FR1	2	R1154D
1483.538	0.001	1800099	DISTRACT_START	n/a	n/a	n/a	-999	14	[0, 0, 0]	n/a	FR1	2	R1154D
1483.539	0.016	1800100	START	n/a	n/a	n/a	-999	14	[-999, -999, -999]	n/a	FR1	2	R1154D
1483.555	2.201	1800116	PROB	2.201	n/a	n/a	-999	14	[1, 3, 8]	12	FR1	2	R1154D
1485.756	3.684	1802317	PROB	3.684	n/a	n/a	-999	14	[9, 6, 2]	17	FR1	2	R1154D
1489.44	1.632	1806001	PROB	1.632	n/a	n/a	-999	14	[1, 2, 5]	8	FR1	2	R1154D
1491.072	4.686	1807633	PROB	4.686	n/a	n/a	-999	14	[9, 9, 7]	25	FR1	2	R1154D
1495.758	4.75	1812318	PROB	4.75	n/a	n/a	-999	14	[8, 5, 7]	20	FR1	2	R1154D
1500.508	1.383	1817068	PROB	1.383	n/a	n/a	-999	14	[6, 4, 1]	11	FR1	2	R1154D
1501.891	3.188	1818451	PROB	3.188	n/a	n/a	-999	14	[8, 9, 4]	21	FR1	2	R1154D
1505.079	0.013	1821639	STOP	n/a	n/a	n/a	-999	14	[-999, -999, -999]	n/a	FR1	2	R1154D
1505.092	0.517	1821652	DISTRACT_END	n/a	n/a	n/a	-999	14	[0, 0, 0]	n/a	FR1	2	R1154D
1505.609	0.517	1822169	RETRIEVAL_ORIENT	n/a	n/a	n/a	-999	14	[0, 0, 0]	n/a	FR1	2	R1154D
1506.126	0.808	1822686	REC_START	n/a	n/a	n/a	-999	14	[0, 0, 0]	n/a	FR1	2	R1154D
1506.934	0.91	1823494	REC_WORD	0.91	n/a	SHARK	-999	14	[0, 0, 0]	n/a	FR1	2	R1154D
1507.844	5.295	1824404	REC_WORD	5.295	n/a	SHRIMP	-999	14	[0, 0, 0]	n/a	FR1	2	R1154D
1513.139	22.997	1829698	REC_WORD_VV	22.997	n/a	<>	-999	14	[0, 0, 0]	n/a	FR1	2	R1154D
1536.136	5.262	1852694	REC_END	n/a	n/a	n/a	-999	14	[0, 0, 0]	n/a	FR1	2	R1154D
1541.398	0.5	1857956	TRIAL	n/a	n/a	n/a	-999	15	[0, 0, 0]	n/a	FR1	2	R1154D
1541.898	10.428	1858456	COUNTDOWN_START	n/a	n/a	n/a	-999	15	[0, 0, 0]	n/a	FR1	2	R1154D
1552.326	0.008	1868883	COUNTDOWN_END	n/a	n/a	n/a	-999	15	[0, 0, 0]	n/a	FR1	2	R1154D
1552.334	1.617	1868891	ORIENT	n/a	n/a	n/a	-999	15	[0, 0, 0]	n/a	FR1	2	R1154D
1553.951	2.133	1870508	ORIENT_OFF	n/a	n/a	n/a	-999	15	[0, 0, 0]	n/a	FR1	2	R1154D
1556.084	1.601	1872641	WORD	n/a	wordpools/wordpool_EN.txt	CLOTH	1	15	[0, 0, 0]	n/a	FR1	2	R1154D
1557.685	1.001	1874242	WORD_OFF	n/a	n/a	CLOTH	1	15	[0, 0, 0]	n/a	FR1	2	R1154D
1558.686	1.616	1875243	WORD	n/a	wordpools/wordpool_EN.txt	RUG	2	15	[0, 0, 0]	n/a	FR1	2	R1154D
1560.302	0.983	1876859	WORD_OFF	n/a	n/a	RUG	2	15	[0, 0, 0]	n/a	FR1	2	R1154D
1561.285	1.617	1877842	WORD	n/a	wordpools/wordpool_EN.txt	HAT	3	15	[0, 0, 0]	n/a	FR1	2	R1154D
1562.902	0.967	1879459	WORD_OFF	n/a	n/a	HAT	3	15	[0, 0, 0]	n/a	FR1	2	R1154D
1563.869	1.618	1880426	WORD	n/a	wordpools/wordpool_EN.txt	STRING	4	15	[0, 0, 0]	n/a	FR1	2	R1154D
1565.487	0.866	1882044	WORD_OFF	n/a	n/a	STRING	4	15	[0, 0, 0]	n/a	FR1	2	R1154D
1566.353	1.617	1882910	WORD	n/a	wordpools/wordpool_EN.txt	LOCK	5	15	[0, 0, 0]	n/a	FR1	2	R1154D
1567.97	0.95	1884527	WORD_OFF	n/a	n/a	LOCK	5	15	[0, 0, 0]	n/a	FR1	2	R1154D
1568.92	1.618	1885476	WORD	n/a	wordpools/wordpool_EN.txt	CLAY	6	15	[0, 0, 0]	n/a	FR1	2	R1154D
1570.538	0.95	1887094	WORD_OFF	n/a	n/a	CLAY	6	15	[0, 0, 0]	n/a	FR1	2	R1154D
1571.488	1.616	1888044	WORD	n/a	wordpools/wordpool_EN.txt	FOAM	7	15	[0, 0, 0]	n/a	FR1	2	R1154D
1573.104	0.95	1889660	WORD_OFF	n/a	n/a	FOAM	7	15	[0, 0, 0]	n/a	FR1	2	R1154D
1574.054	1.601	1890610	WORD	n/a	wordpools/wordpool_EN.txt	GLOVE	8	15	[0, 0, 0]	n/a	FR1	2	R1154D
1575.655	0.766	1892211	WORD_OFF	n/a	n/a	GLOVE	8	15	[0, 0, 0]	n/a	FR1	2	R1154D
1576.421	1.617	1892977	WORD	n/a	wordpools/wordpool_EN.txt	BOAT	9	15	[0, 0, 0]	n/a	FR1	2	R1154D
1578.038	0.884	1894594	WORD_OFF	n/a	n/a	BOAT	9	15	[0, 0, 0]	n/a	FR1	2	R1154D
1578.922	1.618	1895478	WORD	n/a	wordpools/wordpool_EN.txt	SHOE	10	15	[0, 0, 0]	n/a	FR1	2	R1154D
1580.54	1.0	1897096	WORD_OFF	n/a	n/a	SHOE	10	15	[0, 0, 0]	n/a	FR1	2	R1154D
1581.54	1.616	1898096	WORD	n/a	wordpools/wordpool_EN.txt	SQUARE	11	15	[0, 0, 0]	n/a	FR1	2	R1154D
1583.156	0.867	1899712	WORD_OFF	n/a	n/a	SQUARE	11	15	[0, 0, 0]	n/a	FR1	2	R1154D
1584.023	1.618	1900579	WORD	n/a	wordpools/wordpool_EN.txt	OAR	12	15	[0, 0, 0]	n/a	FR1	2	R1154D
1585.641	0.0	1902197	WORD_OFF	n/a	n/a	OAR	12	15	[0, 0, 0]	n/a	FR1	2	R1154D
1585.641	0.0	1902197	DISTRACT_START	n/a	n/a	n/a	-999	15	[0, 0, 0]	n/a	FR1	2	R1154D
1585.641	0.016	1902197	START	n/a	n/a	n/a	-999	15	[-999, -999, -999]	n/a	FR1	2	R1154D
1585.657	3.217	1902213	PROB	3.217	n/a	n/a	-999	15	[3, 4, 8]	15	FR1	2	R1154D
1588.874	2.117	1905429	PROB	2.117	n/a	n/a	-999	15	[6, 3, 4]	13	FR1	2	R1154D
1590.991	1.551	1907546	PROB	1.551	n/a	n/a	-999	15	[9, 3, 2]	14	FR1	2	R1154D
1592.542	2.733	1909097	PROB	2.733	n/a	n/a	-999	15	[7, 8, 4]	19	FR1	2	R1154D
1595.275	2.501	1911830	PROB	2.501	n/a	n/a	-999	15	[2, 6, 6]	14	FR1	2	R1154D
1597.776	2.466	1914331	PROB	2.466	n/a	n/a	-999	15	[3, 7, 3]	13	FR1	2	R1154D
1600.242	1.867	1916797	PROB	1.867	n/a	n/a	-999	15	[2, 1, 4]	7	FR1	2	R1154D
1602.109	1.318	1918664	PROB	1.318	n/a	n/a	-999	15	[6, 4, 2]	12	FR1	2	R1154D
1603.427	1.5	1919982	PROB	1.5	n/a	n/a	-999	15	[2, 8, 1]	11	FR1	2	R1154D
1604.927	2.857	1921482	PROB	2.857	n/a	n/a	-999	15	[7, 9, 5]	21	FR1	2	R1154D
1607.784	0.01	1924338	STOP	n/a	n/a	n/a	-999	15	[-999, -999, -999]	n/a	FR1	2	R1154D
1607.794	0.684	1924348	DISTRACT_END	n/a	n/a	n/a	-999	15	[0, 0, 0]	n/a	FR1	2	R1154D
1608.478	0.517	1925032	RETRIEVAL_ORIENT	n/a	n/a	n/a	-999	15	[0, 0, 0]	n/a	FR1	2	R1154D
1608.995	1.052	1925549	REC_START	n/a	n/a	n/a	-999	15	[0, 0, 0]	n/a	FR1	2	R1154D
1610.047	0.956	1926601	REC_WORD	0.956	n/a	CLAY	-999	15	[0, 0, 0]	n/a	FR1	2	R1154D
1611.003	0.708	1927557	REC_WORD	0.708	n/a	BOAT	-999	15	[0, 0, 0]	n/a	FR1	2	R1154D
1611.711	1.854	1928265	REC_WORD	1.854	n/a	OAR	-999	15	[0, 0, 0]	n/a	FR1	2	R1154D
1613.565	1.564	1930119	REC_WORD	1.564	n/a	STRING	-999	15	[0, 0, 0]	n/a	FR1	2	R1154D
1615.129	3.537	1931683	REC_WORD	3.537	n/a	SHOE	-999	15	[0, 0, 0]	n/a	FR1	2	R1154D
1618.666	16.305	1935220	REC_WORD	16.305	n/a	FOAM	-999	15	[0, 0, 0]	n/a	FR1	2	R1154D
1634.971	1.188	1951524	REC_WORD	1.188	n/a	SHARK	-999	15	[0, 0, 0]	n/a	FR1	2	R1154D
1636.159	2.847	1952712	REC_WORD_VV	2.847	n/a	<>	-999	15	[0, 0, 0]	n/a	FR1	2	R1154D
1639.006	4.094	1955559	REC_END	n/a	n/a	n/a	-999	15	[0, 0, 0]	n/a	FR1	2	R1154D
1643.1	0.5	1959653	TRIAL	n/a	n/a	n/a	-999	16	[0, 0, 0]	n/a	FR1	2	R1154D
1643.6	10.428	1960153	COUNTDOWN_START	n/a	n/a	n/a	-999	16	[0, 0, 0]	n/a	FR1	2	R1154D
1654.028	0.008	1970580	COUNTDOWN_END	n/a	n/a	n/a	-999	16	[0, 0, 0]	n/a	FR1	2	R1154D
1654.036	1.618	1970588	ORIENT	n/a	n/a	n/a	-999	16	[0, 0, 0]	n/a	FR1	2	R1154D
1655.654	2.033	1972206	ORIENT_OFF	n/a	n/a	n/a	-999	16	[0, 0, 0]	n/a	FR1	2	R1154D
1657.687	1.616	1974239	WORD	n/a	wordpools/wordpool_EN.txt	PARK	1	16	[0, 0, 0]	n/a	FR1	2	R1154D
1659.303	0.867	1975855	WORD_OFF	n/a	n/a	PARK	1	16	[0, 0, 0]	n/a	FR1	2	R1154D
1660.17	1.618	1976722	WORD	n/a	wordpools/wordpool_EN.txt	COUCH	2	16	[0, 0, 0]	n/a	FR1	2	R1154D
1661.788	0.85	1978340	WORD_OFF	n/a	n/a	COUCH	2	16	[0, 0, 0]	n/a	FR1	2	R1154D
1662.638	1.616	1979189	WORD	n/a	wordpools/wordpool_EN.txt	CAGE	3	16	[0, 0, 0]	n/a	FR1	2	R1154D
1664.254	0.9	1980805	WORD_OFF	n/a	n/a	CAGE	3	16	[0, 0, 0]	n/a	FR1	2	R1154D
1665.154	1.618	1981705	WORD	n/a	wordpools/wordpool_EN.txt	ROOM	4	16	[0, 0, 0]	n/a	FR1	2	R1154D
1666.772	1.0	1983323	WORD_OFF	n/a	n/a	ROOM	4	16	[0, 0, 0]	n/a	FR1	2	R1154D
1667.772	1.616	1984323	WORD	n/a	wordpools/wordpool_EN.txt	TOAST	5	16	[0, 0, 0]	n/a	FR1	2	R1154D
1669.388	0.867	1985939	WORD_OFF	n/a	n/a	TOAST	5	16	[0, 0, 0]	n/a	FR1	2	R1154D
1670.255	1.617	1986806	WORD	n/a	wordpools/wordpool_EN.txt	SPARK	6	16	[0, 0, 0]	n/a	FR1	2	R1154D
1671.872	0.95	1988423	WORD_OFF	n/a	n/a	SPARK	6	16	[0, 0, 0]	n/a	FR1	2	R1154D
1672.822	1.618	1989373	WORD	n/a	wordpools/wordpool_EN.txt	BATH	7	16	[0, 0, 0]	n/a	FR1	2	R1154D
1674.44	0.966	1990991	WORD_OFF	n/a	n/a	BATH	7	16	[0, 0, 0]	n/a	FR1	2	R1154D
1675.406	1.617	1991957	WORD	n/a	wordpools/wordpool_EN.txt	ELF	8	16	[0, 0, 0]	n/a	FR1	2	R1154D
1677.023	0.9	1993574	WORD_OFF	n/a	n/a	ELF	8	16	[0, 0, 0]	n/a	FR1	2	R1154D
1677.923	1.618	1994474	WORD	n/a	wordpools/wordpool_EN.txt	FAN	9	16	[0, 0, 0]	n/a	FR1	2	R1154D
1679.541	0.833	1996092	WORD_OFF	n/a	n/a	FAN	9	16	[0, 0, 0]	n/a	FR1	2	R1154D
1680.374	1.617	1996925	WORD	n/a	wordpools/wordpool_EN.txt	STOVE	10	16	[0, 0, 0]	n/a	FR1	2	R1154D
1681.991	0.866	1998541	WORD_OFF	n/a	n/a	STOVE	10	16	[0, 0, 0]	n/a	FR1	2	R1154D
1682.857	1.618	1999407	WORD	n/a	wordpools/wordpool_EN.txt	VASE	11	16	[0, 0, 0]	n/a	FR1	2	R1154D
1684.475	0.816	2001025	WORD_OFF	n/a	n/a	VASE	11	16	[0, 0, 0]	n/a	FR1	2	R1154D
1685.291	1.617	2001841	WORD	n/a	wordpools/wordpool_EN.txt	CLOCK	12	16	[0, 0, 0]	n/a	FR1	2	R1154D
1686.908	0.0	2003458	WORD_OFF	n/a	n/a	CLOCK	12	16	[0, 0, 0]	n/a	FR1	2	R1154D
1686.908	0.001	2003458	DISTRACT_START	n/a	n/a	n/a	-999	16	[0, 0, 0]	n/a	FR1	2	R1154D
1686.909	0.016	2003459	START	n/a	n/a	n/a	-999	16	[-999, -999, -999]	n/a	FR1	2	R1154D
1686.925	4.034	2003475	PROB	4.034	n/a	n/a	-999	16	[1, 1, 4]	6	FR1	2	R1154D
1690.959	1.984	2007509	PROB	1.984	n/a	n/a	-999	16	[6, 4, 2]	12	FR1	2	R1154D
1692.943	2.05	2009493	PROB	2.05	n/a	n/a	-999	16	[2, 5, 6]	13	FR1	2	R1154D
1694.993	1.9	2011543	PROB	1.9	n/a	n/a	-999	16	[3, 7, 6]	16	FR1	2	R1154D
1696.893	1.718	2013443	PROB	1.718	n/a	n/a	-999	16	[7, 5, 1]	13	FR1	2	R1154D
1698.611	2.25	2015161	PROB	2.25	n/a	n/a	-999	16	[2, 7, 4]	13	FR1	2	R1154D
1700.861	2.083	2017410	PROB	2.083	n/a	n/a	-999	16	[4, 6, 5]	15	FR1	2	R1154D
1702.944	2.918	2019493	PROB	2.918	n/a	n/a	-999	16	[7, 7, 8]	22	FR1	2	R1154D
1705.862	2.319	2022411	PROB	2.319	n/a	n/a	-999	16	[8, 4, 4]	16	FR1	2	R1154D
1708.181	0.014	2024730	STOP	n/a	n/a	n/a	-999	16	[-999, -999, -999]	n/a	FR1	2	R1154D
1708.195	0.6	2024744	DISTRACT_END	n/a	n/a	n/a	-999	16	[0, 0, 0]	n/a	FR1	2	R1154D
1708.795	0.518	2025344	RETRIEVAL_ORIENT	n/a	n/a	n/a	-999	16	[0, 0, 0]	n/a	FR1	2	R1154D
1709.313	0.935	2025862	REC_START	n/a	n/a	n/a	-999	16	[0, 0, 0]	n/a	FR1	2	R1154D
1710.248	0.663	2026797	REC_WORD	0.663	n/a	ROOM	-999	16	[0, 0, 0]	n/a	FR1	2	R1154D
1710.911	5.613	2027460	REC_WORD	5.613	n/a	BATH	-999	16	[0, 0, 0]	n/a	FR1	2	R1154D
1716.524	22.799	2033073	REC_WORD_VV	22.799	n/a	<>	-999	16	[0, 0, 0]	n/a	FR1	2	R1154D
1739.323	19.466	2055870	REC_END	n/a	n/a	n/a	-999	16	[0, 0, 0]	n/a	FR1	2	R1154D
1758.789	0.5	2075335	TRIAL	n/a	n/a	n/a	-999	17	[0, 0, 0]	n/a	FR1	2	R1154D
1759.289	10.428	2075835	COUNTDOWN_START	n/a	n/a	n/a	-999	17	[0, 0, 0]	n/a	FR1	2	R1154D
1769.717	0.007	2086263	COUNTDOWN_END	n/a	n/a	n/a	-999	17	[0, 0, 0]	n/a	FR1	2	R1154D
1769.724	1.616	2086270	ORIENT	n/a	n/a	n/a	-999	17	[0, 0, 0]	n/a	FR1	2	R1154D
1771.34	2.102	2087886	ORIENT_OFF	n/a	n/a	n/a	-999	17	[0, 0, 0]	n/a	FR1	2	R1154D
1773.442	1.616	2089988	WORD	n/a	wordpools/wordpool_EN.txt	LEG	1	17	[0, 0, 0]	n/a	FR1	2	R1154D
1775.058	0.817	2091603	WORD_OFF	n/a	n/a	LEG	1	17	[0, 0, 0]	n/a	FR1	2	R1154D
1775.875	1.617	2092420	WORD	n/a	wordpools/wordpool_EN.txt	SHIRT	2	17	[0, 0, 0]	n/a	FR1	2	R1154D
1777.492	0.766	2094037	WORD_OFF	n/a	n/a	SHIRT	2	17	[0, 0, 0]	n/a	FR1	2	R1154D
1778.258	1.617	2094803	WORD	n/a	wordpools/wordpool_EN.txt	VEST	3	17	[0, 0, 0]	n/a	FR1	2	R1154D
1779.875	0.785	2096420	WORD_OFF	n/a	n/a	VEST	3	17	[0, 0, 0]	n/a	FR1	2	R1154D
1780.66	1.616	2097205	WORD	n/a	wordpools/wordpool_EN.txt	BED	4	17	[0, 0, 0]	n/a	FR1	2	R1154D
1782.276	0.85	2098821	WORD_OFF	n/a	n/a	BED	4	17	[0, 0, 0]	n/a	FR1	2	R1154D
1783.126	1.618	2099671	WORD	n/a	wordpools/wordpool_EN.txt	SLEEVE	5	17	[0, 0, 0]	n/a	FR1	2	R1154D
1784.744	0.95	2101289	WORD_OFF	n/a	n/a	SLEEVE	5	17	[0, 0, 0]	n/a	FR1	2	R1154D
1785.694	1.616	2102239	WORD	n/a	wordpools/wordpool_EN.txt	CHIN	6	17	[0, 0, 0]	n/a	FR1	2	R1154D
1787.31	0.817	2103855	WORD_OFF	n/a	n/a	CHIN	6	17	[0, 0, 0]	n/a	FR1	2	R1154D
1788.127	1.618	2104672	WORD	n/a	wordpools/wordpool_EN.txt	THUMB	7	17	[0, 0, 0]	n/a	FR1	2	R1154D
1789.745	0.917	2106290	WORD_OFF	n/a	n/a	THUMB	7	17	[0, 0, 0]	n/a	FR1	2	R1154D
1790.662	1.615	2107207	WORD	n/a	wordpools/wordpool_EN.txt	FLUTE	8	17	[0, 0, 0]	n/a	FR1	2	R1154D
1792.277	0.917	2108822	WORD_OFF	n/a	n/a	FLUTE	8	17	[0, 0, 0]	n/a	FR1	2	R1154D
1793.194	1.617	2109739	WORD	n/a	wordpools/wordpool_EN.txt	CANE	9	17	[0, 0, 0]	n/a	FR1	2	R1154D
1794.811	0.868	2111355	WORD_OFF	n/a	n/a	CANE	9	17	[0, 0, 0]	n/a	FR1	2	R1154D
1795.679	1.616	2112223	WORD	n/a	wordpools/wordpool_EN.txt	BENCH	10	17	[0, 0, 0]	n/a	FR1	2	R1154D
1797.295	0.884	2113839	WORD_OFF	n/a	n/a	BENCH	10	17	[0, 0, 0]	n/a	FR1	2	R1154D
1798.179	1.617	2114723	WORD	n/a	wordpools/wordpool_EN.txt	ROSE	11	17	[0, 0, 0]	n/a	FR1	2	R1154D
1799.796	0.784	2116340	WORD_OFF	n/a	n/a	ROSE	11	17	[0, 0, 0]	n/a	FR1	2	R1154D
1800.58	1.616	2117124	WORD	n/a	wordpools/wordpool_EN.txt	STICK	12	17	[0, 0, 0]	n/a	FR1	2	R1154D
1802.196	0.0	2118740	WORD_OFF	n/a	n/a	STICK	12	17	[0, 0, 0]	n/a	FR1	2	R1154D
1802.196	0.001	2118740	DISTRACT_START	n/a	n/a	n/a	-999	17	[0, 0, 0]	n/a	FR1	2	R1154D
1802.197	0.016	2118741	START	n/a	n/a	n/a	-999	17	[-999, -999, -999]	n/a	FR1	2	R1154D
1802.213	2.733	2118757	PROB	2.733	n/a	n/a	-999	17	[9, 3, 3]	15	FR1	2	R1154D
1804.946	2.434	2121490	PROB	2.434	n/a	n/a	-999	17	[4, 3, 3]	10	FR1	2	R1154D
1807.38	1.467	2123924	PROB	1.467	n/a	n/a	-999	17	[7, 1, 1]	9	FR1	2	R1154D
1808.847	2.918	2125391	PROB	2.918	n/a	n/a	-999	17	[4, 7, 6]	17	FR1	2	R1154D
1811.765	1.55	2128309	PROB	1.55	n/a	n/a	-999	17	[6, 6, 2]	14	FR1	2	R1154D
1813.315	1.8	2129858	PROB	1.8	n/a	n/a	-999	17	[3, 3, 9]	1	FR1	2	R1154D
1815.115	2.301	2131658	PROB	2.301	n/a	n/a	-999	17	[3, 1, 8]	12	FR1	2	R1154D
1817.416	2.334	2133959	PROB	2.334	n/a	n/a	-999	17	[3, 3, 8]	14	FR1	2	R1154D
1819.75	1.8	2136293	PROB	1.8	n/a	n/a	-999	17	[1, 7, 4]	12	FR1	2	R1154D
1821.55	2.954	2138093	PROB	2.954	n/a	n/a	-999	17	[5, 9, 3]	17	FR1	2	R1154D
1824.504	0.014	2141047	STOP	n/a	n/a	n/a	-999	17	[-999, -999, -999]	n/a	FR1	2	R1154D
1824.518	0.666	2141061	DISTRACT_END	n/a	n/a	n/a	-999	17	[0, 0, 0]	n/a	FR1	2	R1154D
1825.184	0.518	2141727	RETRIEVAL_ORIENT	n/a	n/a	n/a	-999	17	[0, 0, 0]	n/a	FR1	2	R1154D
1825.702	0.851	2142245	REC_START	n/a	n/a	n/a	-999	17	[0, 0, 0]	n/a	FR1	2	R1154D
1826.553	0.452	2143096	REC_WORD	0.452	n/a	LEG	-999	17	[0, 0, 0]	n/a	FR1	2	R1154D
1827.005	0.61	2143548	REC_WORD	0.61	n/a	SHIRT	-999	17	[0, 0, 0]	n/a	FR1	2	R1154D
1827.615	0.689	2144158	REC_WORD	0.689	n/a	SLEEVE	-999	17	[0, 0, 0]	n/a	FR1	2	R1154D
1828.304	3.745	2144847	REC_WORD	3.745	n/a	CANE	-999	17	[0, 0, 0]	n/a	FR1	2	R1154D
1832.049	0.469	2148591	REC_WORD_VV	0.469	n/a	<>	-999	17	[0, 0, 0]	n/a	FR1	2	R1154D
1832.518	1.151	2149060	REC_WORD	1.151	n/a	BED	-999	17	[0, 0, 0]	n/a	FR1	2	R1154D
1833.669	5.15	2150211	REC_WORD_VV	5.15	n/a	<>	-999	17	[0, 0, 0]	n/a	FR1	2	R1154D
1838.819	1.035	2155361	REC_WORD	1.035	n/a	CANE	-999	17	[0, 0, 0]	n/a	FR1	2	R1154D
1839.854	15.858	2156396	REC_WORD	15.858	n/a	SHIRT	-999	17	[0, 0, 0]	n/a	FR1	2	R1154D
1855.712	5.062	2172253	REC_END	n/a	n/a	n/a	-999	17	[0, 0, 0]	n/a	FR1	2	R1154D
1860.774	0.5	2177315	TRIAL	n/a	n/a	n/a	-999	18	[0, 0, 0]	n/a	FR1	2	R1154D
1861.274	10.428	2177815	COUNTDOWN_START	n/a	n/a	n/a	-999	18	[0, 0, 0]	n/a	FR1	2	R1154D
1871.702	0.008	2188242	COUNTDOWN_END	n/a	n/a	n/a	-999	18	[0, 0, 0]	n/a	FR1	2	R1154D
1871.71	1.616	2188250	ORIENT	n/a	n/a	n/a	-999	18	[0, 0, 0]	n/a	FR1	2	R1154D
1873.326	2.151	2189866	ORIENT_OFF	n/a	n/a	n/a	-999	18	[0, 0, 0]	n/a	FR1	2	R1154D
1875.477	1.616	2192017	WORD	n/a	wordpools/wordpool_EN.txt	LAND	1	18	[0, 0, 0]	n/a	FR1	2	R1154D
1877.093	0.85	2193633	WORD_OFF	n/a	n/a	LAND	1	18	[0, 0, 0]	n/a	FR1	2	R1154D
1877.943	1.618	2194483	WORD	n/a	wordpools/wordpool_EN.txt	KEY	2	18	[0, 0, 0]	n/a	FR1	2	R1154D
1879.561	0.967	2196101	WORD_OFF	n/a	n/a	KEY	2	18	[0, 0, 0]	n/a	FR1	2	R1154D
1880.528	1.616	2197068	WORD	n/a	wordpools/wordpool_EN.txt	STORM	3	18	[0, 0, 0]	n/a	FR1	2	R1154D
1882.144	0.8	2198684	WORD_OFF	n/a	n/a	STORM	3	18	[0, 0, 0]	n/a	FR1	2	R1154D
1882.944	1.618	2199484	WORD	n/a	wordpools/wordpool_EN.txt	FLAG	4	18	[0, 0, 0]	n/a	FR1	2	R1154D
1884.562	0.867	2201102	WORD_OFF	n/a	n/a	FLAG	4	18	[0, 0, 0]	n/a	FR1	2	R1154D
1885.429	1.616	2201969	WORD	n/a	wordpools/wordpool_EN.txt	BEACH	5	18	[0, 0, 0]	n/a	FR1	2	R1154D
1887.045	0.933	2203584	WORD_OFF	n/a	n/a	BEACH	5	18	[0, 0, 0]	n/a	FR1	2	R1154D
1887.978	1.618	2204517	WORD	n/a	wordpools/wordpool_EN.txt	SHIELD	6	18	[0, 0, 0]	n/a	FR1	2	R1154D
1889.596	0.967	2206135	WORD_OFF	n/a	n/a	SHIELD	6	18	[0, 0, 0]	n/a	FR1	2	R1154D
1890.563	1.616	2207102	WORD	n/a	wordpools/wordpool_EN.txt	BLOOM	7	18	[0, 0, 0]	n/a	FR1	2	R1154D
1892.179	0.9	2208718	WORD_OFF	n/a	n/a	BLOOM	7	18	[0, 0, 0]	n/a	FR1	2	R1154D
1893.079	1.601	2209618	WORD	n/a	wordpools/wordpool_EN.txt	SHEEP	8	18	[0, 0, 0]	n/a	FR1	2	R1154D
1894.68	0.901	2211219	WORD_OFF	n/a	n/a	SHEEP	8	18	[0, 0, 0]	n/a	FR1	2	R1154D
1895.581	1.616	2212120	WORD	n/a	wordpools/wordpool_EN.txt	FUDGE	9	18	[0, 0, 0]	n/a	FR1	2	R1154D
1897.197	0.8	2213736	WORD_OFF	n/a	n/a	FUDGE	9	18	[0, 0, 0]	n/a	FR1	2	R1154D
1897.997	1.618	2214536	WORD	n/a	wordpools/wordpool_EN.txt	RAIN	10	18	[0, 0, 0]	n/a	FR1	2	R1154D
1899.615	0.85	2216154	WORD_OFF	n/a	n/a	RAIN	10	18	[0, 0, 0]	n/a	FR1	2	R1154D
1900.465	1.616	2217004	WORD	n/a	wordpools/wordpool_EN.txt	SEA	11	18	[0, 0, 0]	n/a	FR1	2	R1154D
1902.081	0.867	2218620	WORD_OFF	n/a	n/a	SEA	11	18	[0, 0, 0]	n/a	FR1	2	R1154D
1902.948	1.618	2219487	WORD	n/a	wordpools/wordpool_EN.txt	MAP	12	18	[0, 0, 0]	n/a	FR1	2	R1154D
1904.566	0.0	2221105	WORD_OFF	n/a	n/a	MAP	12	18	[0, 0, 0]	n/a	FR1	2	R1154D
1904.566	0.0	2221105	DISTRACT_START	n/a	n/a	n/a	-999	18	[0, 0, 0]	n/a	FR1	2	R1154D
1904.566	0.016	2221105	START	n/a	n/a	n/a	-999	18	[-999, -999, -999]	n/a	FR1	2	R1154D
1904.582	4.434	2221121	PROB	4.434	n/a	n/a	-999	18	[4, 5, 4]	13	FR1	2	R1154D
1909.016	3.15	2225554	PROB	3.15	n/a	n/a	-999	18	[9, 8, 3]	20	FR1	2	R1154D
1912.166	1.684	2228704	PROB	1.684	n/a	n/a	-999	18	[6, 5, 1]	12	FR1	2	R1154D
1913.85	1.868	2230388	PROB	1.868	n/a	n/a	-999	18	[6, 1, 8]	15	FR1	2	R1154D
1915.718	2.166	2232256	PROB	2.166	n/a	n/a	-999	18	[8, 6, 8]	22	FR1	2	R1154D
1917.884	1.5	2234422	PROB	1.5	n/a	n/a	-999	18	[7, 6, 1]	14	FR1	2	R1154D
1919.384	2.052	2235922	PROB	2.052	n/a	n/a	-999	18	[3, 2, 5]	10	FR1	2	R1154D
1921.436	1.882	2237974	PROB	1.882	n/a	n/a	-999	18	[7, 3, 4]	14	FR1	2	R1154D
1923.318	2.409	2239856	PROB	2.409	n/a	n/a	-999	18	[2, 2, 1]	5	FR1	2	R1154D
1925.727	0.009	2242264	STOP	n/a	n/a	n/a	-999	18	[-999, -999, -999]	n/a	FR1	2	R1154D
1925.736	0.599	2242273	DISTRACT_END	n/a	n/a	n/a	-999	18	[0, 0, 0]	n/a	FR1	2	R1154D
1926.335	0.518	2242872	RETRIEVAL_ORIENT	n/a	n/a	n/a	-999	18	[0, 0, 0]	n/a	FR1	2	R1154D
1926.853	0.731	2243390	REC_START	n/a	n/a	n/a	-999	18	[0, 0, 0]	n/a	FR1	2	R1154D
1927.584	0.566	2244121	REC_WORD	0.566	n/a	BEACH	-999	18	[0, 0, 0]	n/a	FR1	2	R1154D
1928.15	0.55	2244687	REC_WORD	0.55	n/a	LAND	-999	18	[0, 0, 0]	n/a	FR1	2	R1154D
1928.7	0.821	2245237	REC_WORD	0.821	n/a	STORM	-999	18	[0, 0, 0]	n/a	FR1	2	R1154D
1929.521	3.191	2246058	REC_WORD	3.191	n/a	OCEAN	-999	18	[0, 0, 0]	n/a	FR1	2	R1154D
1932.712	0.974	2249249	REC_WORD	0.974	n/a	STORM	-999	18	[0, 0, 0]	n/a	FR1	2	R1154D
1933.686	1.896	2250223	REC_WORD	1.896	n/a	OCEAN	-999	18	[0, 0, 0]	n/a	FR1	2	R1154D
1935.582	0.522	2252119	REC_WORD	0.522	n/a	BADGE	-999	18	[0, 0, 0]	n/a	FR1	2	R1154D
1936.104	10.201	2252641	REC_WORD	10.201	n/a	SHIELD	-999	18	[0, 0, 0]	n/a	FR1	2	R1154D
1946.305	3.846	2262841	REC_WORD_VV	3.846	n/a	<>	-999	18	[0, 0, 0]	n/a	FR1	2	R1154D
1950.151	1.0	2266687	REC_WORD_VV	1.0	n/a	<>	-999	18	[0, 0, 0]	n/a	FR1	2	R1154D
1951.151	1.0	2267687	REC_WORD_VV	1.0	n/a	<>	-999	18	[0, 0, 0]	n/a	FR1	2	R1154D
1952.151	0.99	2268687	REC_WORD_VV	0.99	n/a	<>	-999	18	[0, 0, 0]	n/a	FR1	2	R1154D
1953.141	0.995	2269677	REC_WORD_VV	0.995	n/a	<>	-999	18	[0, 0, 0]	n/a	FR1	2	R1154D
1954.136	2.728	2270672	REC_WORD_VV	2.728	n/a	<>	-999	18	[0, 0, 0]	n/a	FR1	2	R1154D
1956.864	12.83	2273400	REC_END	n/a	n/a	n/a	-999	18	[0, 0, 0]	n/a	FR1	2	R1154D
1969.694	0.5	2286229	TRIAL	n/a	n/a	n/a	-999	19	[0, 0, 0]	n/a	FR1	2	R1154D
1970.194	10.428	2286729	COUNTDOWN_START	n/a	n/a	n/a	-999	19	[0, 0, 0]	n/a	FR1	2	R1154D
1980.622	0.008	2297156	COUNTDOWN_END	n/a	n/a	n/a	-999	19	[0, 0, 0]	n/a	FR1	2	R1154D
1980.63	1.616	2297164	ORIENT	n/a	n/a	n/a	-999	19	[0, 0, 0]	n/a	FR1	2	R1154D
1982.246	2.133	2298780	ORIENT_OFF	n/a	n/a	n/a	-999	19	[0, 0, 0]	n/a	FR1	2	R1154D
1984.379	1.617	2300913	WORD	n/a	wordpools/wordpool_EN.txt	FOG	1	19	[0, 0, 0]	n/a	FR1	2	R1154D
1985.996	0.785	2302530	WORD_OFF	n/a	n/a	FOG	1	19	[0, 0, 0]	n/a	FR1	2	R1154D
1986.781	1.616	2303315	WORD	n/a	wordpools/wordpool_EN.txt	THREAD	2	19	[0, 0, 0]	n/a	FR1	2	R1154D
1988.397	0.95	2304931	WORD_OFF	n/a	n/a	THREAD	2	19	[0, 0, 0]	n/a	FR1	2	R1154D
1989.347	1.617	2305881	WORD	n/a	wordpools/wordpool_EN.txt	NOSE	3	19	[0, 0, 0]	n/a	FR1	2	R1154D
1990.964	0.801	2307498	WORD_OFF	n/a	n/a	NOSE	3	19	[0, 0, 0]	n/a	FR1	2	R1154D
1991.765	1.616	2308299	WORD	n/a	wordpools/wordpool_EN.txt	RIB	4	19	[0, 0, 0]	n/a	FR1	2	R1154D
1993.381	0.917	2309915	WORD_OFF	n/a	n/a	RIB	4	19	[0, 0, 0]	n/a	FR1	2	R1154D
1994.298	1.617	2310832	WORD	n/a	wordpools/wordpool_EN.txt	SMOKE	5	19	[0, 0, 0]	n/a	FR1	2	R1154D
1995.915	1.0	2312449	WORD_OFF	n/a	n/a	SMOKE	5	19	[0, 0, 0]	n/a	FR1	2	R1154D
1996.915	1.618	2313449	WORD	n/a	wordpools/wordpool_EN.txt	LEAF	6	19	[0, 0, 0]	n/a	FR1	2	R1154D
1998.533	0.849	2315067	WORD_OFF	n/a	n/a	LEAF	6	19	[0, 0, 0]	n/a	FR1	2	R1154D
1999.382	1.617	2315915	WORD	n/a	wordpools/wordpool_EN.txt	BAT	7	19	[0, 0, 0]	n/a	FR1	2	R1154D
2000.999	1.017	2317532	WORD_OFF	n/a	n/a	BAT	7	19	[0, 0, 0]	n/a	FR1	2	R1154D
2002.016	1.618	2318549	WORD	n/a	wordpools/wordpool_EN.txt	HEART	8	19	[0, 0, 0]	n/a	FR1	2	R1154D
2003.634	0.983	2320167	WORD_OFF	n/a	n/a	HEART	8	19	[0, 0, 0]	n/a	FR1	2	R1154D
2004.617	1.616	2321150	WORD	n/a	wordpools/wordpool_EN.txt	CAT	9	19	[0, 0, 0]	n/a	FR1	2	R1154D
2006.233	0.917	2322766	WORD_OFF	n/a	n/a	CAT	9	19	[0, 0, 0]	n/a	FR1	2	R1154D
2007.15	1.618	2323683	WORD	n/a	wordpools/wordpool_EN.txt	MAZE	10	19	[0, 0, 0]	n/a	FR1	2	R1154D
2008.768	0.917	2325301	WORD_OFF	n/a	n/a	MAZE	10	19	[0, 0, 0]	n/a	FR1	2	R1154D
2009.685	1.616	2326218	WORD	n/a	wordpools/wordpool_EN.txt	PEAR	11	19	[0, 0, 0]	n/a	FR1	2	R1154D
2011.301	0.867	2327834	WORD_OFF	n/a	n/a	PEAR	11	19	[0, 0, 0]	n/a	FR1	2	R1154D
2012.168	1.618	2328701	WORD	n/a	wordpools/wordpool_EN.txt	JET	12	19	[0, 0, 0]	n/a	FR1	2	R1154D
2013.786	0.0	2330319	WORD_OFF	n/a	n/a	JET	12	19	[0, 0, 0]	n/a	FR1	2	R1154D
2013.786	0.0	2330319	DISTRACT_START	n/a	n/a	n/a	-999	19	[0, 0, 0]	n/a	FR1	2	R1154D
2013.786	0.015	2330319	START	n/a	n/a	n/a	-999	19	[-999, -999, -999]	n/a	FR1	2	R1154D
2013.801	2.234	2330334	PROB	2.234	n/a	n/a	-999	19	[2, 4, 7]	13	FR1	2	R1154D
2016.035	2.201	2332568	PROB	2.201	n/a	n/a	-999	19	[9, 7, 1]	17	FR1	2	R1154D
2018.236	2.418	2334768	PROB	2.418	n/a	n/a	-999	19	[2, 8, 7]	17	FR1	2	R1154D
2020.654	1.732	2337186	PROB	1.732	n/a	n/a	-999	19	[1, 4, 9]	14	FR1	2	R1154D
2022.386	1.934	2338918	PROB	1.934	n/a	n/a	-999	19	[5, 8, 3]	16	FR1	2	R1154D
2024.32	1.584	2340852	PROB	1.584	n/a	n/a	-999	19	[4, 2, 2]	8	FR1	2	R1154D
2025.904	3.651	2342436	PROB	3.651	n/a	n/a	-999	19	[5, 4, 9]	18	FR1	2	R1154D
2029.555	2.067	2346087	PROB	2.067	n/a	n/a	-999	19	[5, 7, 3]	15	FR1	2	R1154D
2031.622	1.683	2348154	PROB	1.683	n/a	n/a	-999	19	[8, 2, 3]	13	FR1	2	R1154D
2033.305	2.861	2349837	PROB	2.861	n/a	n/a	-999	19	[3, 8, 8]	19	FR1	2	R1154D
2036.166	0.006	2352698	STOP	n/a	n/a	n/a	-999	19	[-999, -999, -999]	n/a	FR1	2	R1154D
2036.172	0.65	2352704	DISTRACT_END	n/a	n/a	n/a	-999	19	[0, 0, 0]	n/a	FR1	2	R1154D
2036.822	0.517	2353353	RETRIEVAL_ORIENT	n/a	n/a	n/a	-999	19	[0, 0, 0]	n/a	FR1	2	R1154D
2037.339	0.459	2353870	REC_START	n/a	n/a	n/a	-999	19	[0, 0, 0]	n/a	FR1	2	R1154D
2037.798	0.588	2354329	REC_WORD	0.588	n/a	CAT	-999	19	[0, 0, 0]	n/a	FR1	2	R1154D
2038.386	0.386	2354917	REC_WORD	0.386	n/a	BAT	-999	19	[0, 0, 0]	n/a	FR1	2	R1154D
2038.772	4.544	2355303	REC_WORD	4.544	n/a	SMOKE	-999	19	[0, 0, 0]	n/a	FR1	2	R1154D
2043.316	24.034	2359847	REC_WORD	24.034	n/a	MAZE	-999	19	[0, 0, 0]	n/a	FR1	2	R1154D
2067.35	15.298	2383880	REC_END	n/a	n/a	n/a	-999	19	[0, 0, 0]	n/a	FR1	2	R1154D
2082.648	0.5	2399177	TRIAL	n/a	n/a	n/a	-999	20	[0, 0, 0]	n/a	FR1	2	R1154D
2083.148	10.428	2399677	COUNTDOWN_START	n/a	n/a	n/a	-999	20	[0, 0, 0]	n/a	FR1	2	R1154D
2093.576	0.008	2410104	COUNTDOWN_END	n/a	n/a	n/a	-999	20	[0, 0, 0]	n/a	FR1	2	R1154D
2093.584	1.616	2410112	ORIENT	n/a	n/a	n/a	-999	20	[0, 0, 0]	n/a	FR1	2	R1154D
2095.2	2.217	2411728	ORIENT_OFF	n/a	n/a	n/a	-999	20	[0, 0, 0]	n/a	FR1	2	R1154D
2097.417	1.617	2413945	WORD	n/a	wordpools/wordpool_EN.txt	ROCK	1	20	[0, 0, 0]	n/a	FR1	2	R1154D
2099.034	0.883	2415562	WORD_OFF	n/a	n/a	ROCK	1	20	[0, 0, 0]	n/a	FR1	2	R1154D
2099.917	1.618	2416445	WORD	n/a	wordpools/wordpool_EN.txt	MOON	2	20	[0, 0, 0]	n/a	FR1	2	R1154D
2101.535	0.9	2418063	WORD_OFF	n/a	n/a	MOON	2	20	[0, 0, 0]	n/a	FR1	2	R1154D
2102.435	1.616	2418963	WORD	n/a	wordpools/wordpool_EN.txt	SIGN	3	20	[0, 0, 0]	n/a	FR1	2	R1154D
2104.051	1.0	2420579	WORD_OFF	n/a	n/a	SIGN	3	20	[0, 0, 0]	n/a	FR1	2	R1154D
2105.051	1.602	2421579	WORD	n/a	wordpools/wordpool_EN.txt	SKY	4	20	[0, 0, 0]	n/a	FR1	2	R1154D
2106.653	0.867	2423181	WORD_OFF	n/a	n/a	SKY	4	20	[0, 0, 0]	n/a	FR1	2	R1154D
2107.52	1.616	2424048	WORD	n/a	wordpools/wordpool_EN.txt	CLIFF	5	20	[0, 0, 0]	n/a	FR1	2	R1154D
2109.136	0.866	2425664	WORD_OFF	n/a	n/a	CLIFF	5	20	[0, 0, 0]	n/a	FR1	2	R1154D
2110.002	1.618	2426530	WORD	n/a	wordpools/wordpool_EN.txt	APE	6	20	[0, 0, 0]	n/a	FR1	2	R1154D
2111.62	0.967	2428147	WORD_OFF	n/a	n/a	APE	6	20	[0, 0, 0]	n/a	FR1	2	R1154D
2112.587	1.616	2429114	WORD	n/a	wordpools/wordpool_EN.txt	SNOW	7	20	[0, 0, 0]	n/a	FR1	2	R1154D
2114.203	0.834	2430730	WORD_OFF	n/a	n/a	SNOW	7	20	[0, 0, 0]	n/a	FR1	2	R1154D
2115.037	1.618	2431564	WORD	n/a	wordpools/wordpool_EN.txt	ROAD	8	20	[0, 0, 0]	n/a	FR1	2	R1154D
2116.655	0.816	2433182	WORD_OFF	n/a	n/a	ROAD	8	20	[0, 0, 0]	n/a	FR1	2	R1154D
2117.471	1.616	2433998	WORD	n/a	wordpools/wordpool_EN.txt	CLOUD	9	20	[0, 0, 0]	n/a	FR1	2	R1154D
2119.087	0.951	2435614	WORD_OFF	n/a	n/a	CLOUD	9	20	[0, 0, 0]	n/a	FR1	2	R1154D
2120.038	1.617	2436565	WORD	n/a	wordpools/wordpool_EN.txt	TENT	10	20	[0, 0, 0]	n/a	FR1	2	R1154D
2121.655	0.784	2438182	WORD_OFF	n/a	n/a	TENT	10	20	[0, 0, 0]	n/a	FR1	2	R1154D
2122.439	1.616	2438966	WORD	n/a	wordpools/wordpool_EN.txt	CHEEK	11	20	[0, 0, 0]	n/a	FR1	2	R1154D
2124.055	0.783	2440582	WORD_OFF	n/a	n/a	CHEEK	11	20	[0, 0, 0]	n/a	FR1	2	R1154D
2124.838	1.618	2441365	WORD	n/a	wordpools/wordpool_EN.txt	JEEP	12	20	[0, 0, 0]	n/a	FR1	2	R1154D
2126.456	0.0	2442983	WORD_OFF	n/a	n/a	JEEP	12	20	[0, 0, 0]	n/a	FR1	2	R1154D
2126.456	0.001	2442983	DISTRACT_START	n/a	n/a	n/a	-999	20	[0, 0, 0]	n/a	FR1	2	R1154D
2126.457	0.016	2442984	START	n/a	n/a	n/a	-999	20	[-999, -999, -999]	n/a	FR1	2	R1154D
2126.473	2.267	2443000	PROB	2.267	n/a	n/a	-999	20	[2, 9, 1]	12	FR1	2	R1154D
2128.74	1.683	2445267	PROB	1.683	n/a	n/a	-999	20	[9, 4, 1]	14	FR1	2	R1154D
2130.423	2.967	2446949	PROB	2.967	n/a	n/a	-999	20	[9, 5, 4]	18	FR1	2	R1154D
2133.39	1.285	2449916	PROB	1.285	n/a	n/a	-999	20	[9, 1, 1]	11	FR1	2	R1154D
2134.675	2.349	2451201	PROB	2.349	n/a	n/a	-999	20	[3, 8, 8]	19	FR1	2	R1154D
2137.024	1.8	2453550	PROB	1.8	n/a	n/a	-999	20	[1, 8, 7]	16	FR1	2	R1154D
2138.824	2.017	2455350	PROB	2.017	n/a	n/a	-999	20	[1, 9, 6]	16	FR1	2	R1154D
2140.841	3.368	2457367	PROB	3.368	n/a	n/a	-999	20	[1, 8, 7]	16	FR1	2	R1154D
2144.209	2.167	2460735	PROB	2.167	n/a	n/a	-999	20	[1, 2, 2]	5	FR1	2	R1154D
2146.376	2.751	2462902	PROB	2.751	n/a	n/a	-999	20	[7, 9, 3]	19	FR1	2	R1154D
2149.127	0.016	2465652	STOP	n/a	n/a	n/a	-999	20	[-999, -999, -999]	n/a	FR1	2	R1154D
2149.143	0.618	2465668	DISTRACT_END	n/a	n/a	n/a	-999	20	[0, 0, 0]	n/a	FR1	2	R1154D
2149.761	0.516	2466286	RETRIEVAL_ORIENT	n/a	n/a	n/a	-999	20	[0, 0, 0]	n/a	FR1	2	R1154D
2150.277	0.516	2466802	REC_START	n/a	n/a	n/a	-999	20	[0, 0, 0]	n/a	FR1	2	R1154D
2150.793	0.521	2467318	REC_WORD	0.521	n/a	ROCK	-999	20	[0, 0, 0]	n/a	FR1	2	R1154D
2151.314	0.969	2467839	REC_WORD	0.969	n/a	MOON	-999	20	[0, 0, 0]	n/a	FR1	2	R1154D
2152.283	0.622	2468808	REC_WORD	0.622	n/a	CLOUD	-999	20	[0, 0, 0]	n/a	FR1	2	R1154D
2152.905	10.035	2469430	REC_WORD	10.035	n/a	SKY	-999	20	[0, 0, 0]	n/a	FR1	2	R1154D
2162.94	6.52	2479465	REC_WORD	6.52	n/a	JEEP	-999	20	[0, 0, 0]	n/a	FR1	2	R1154D
2169.46	0.995	2485984	REC_WORD_VV	0.995	n/a	<>	-999	20	[0, 0, 0]	n/a	FR1	2	R1154D
2170.455	9.832	2486979	REC_WORD_VV	9.832	n/a	<>	-999	20	[0, 0, 0]	n/a	FR1	2	R1154D
2180.287	182.578	2496811	REC_END	n/a	n/a	n/a	-999	20	[0, 0, 0]	n/a	FR1	2	R1154D
2362.865	0.5	2679379	TRIAL	n/a	n/a	n/a	-999	21	[0, 0, 0]	n/a	FR1	2	R1154D
2363.365	10.428	2679879	COUNTDOWN_START	n/a	n/a	n/a	-999	21	[0, 0, 0]	n/a	FR1	2	R1154D
2373.793	0.008	2690306	COUNTDOWN_END	n/a	n/a	n/a	-999	21	[0, 0, 0]	n/a	FR1	2	R1154D
2373.801	1.617	2690314	ORIENT	n/a	n/a	n/a	-999	21	[0, 0, 0]	n/a	FR1	2	R1154D
2375.418	2.0	2691931	ORIENT_OFF	n/a	n/a	n/a	-999	21	[0, 0, 0]	n/a	FR1	2	R1154D
2377.418	1.617	2693931	WORD	n/a	wordpools/wordpool_EN.txt	GOLD	1	21	[0, 0, 0]	n/a	FR1	2	R1154D
2379.035	0.817	2695548	WORD_OFF	n/a	n/a	GOLD	1	21	[0, 0, 0]	n/a	FR1	2	R1154D
2379.852	1.618	2696365	WORD	n/a	wordpools/wordpool_EN.txt	PIPE	2	21	[0, 0, 0]	n/a	FR1	2	R1154D
2381.47	0.932	2697983	WORD_OFF	n/a	n/a	PIPE	2	21	[0, 0, 0]	n/a	FR1	2	R1154D
2382.402	1.617	2698915	WORD	n/a	wordpools/wordpool_EN.txt	SWORD	3	21	[0, 0, 0]	n/a	FR1	2	R1154D
2384.019	0.967	2700532	WORD_OFF	n/a	n/a	SWORD	3	21	[0, 0, 0]	n/a	FR1	2	R1154D
2384.986	1.618	2701499	WORD	n/a	wordpools/wordpool_EN.txt	WAND	4	21	[0, 0, 0]	n/a	FR1	2	R1154D
2386.604	0.95	2703117	WORD_OFF	n/a	n/a	WAND	4	21	[0, 0, 0]	n/a	FR1	2	R1154D
2387.554	1.616	2704067	WORD	n/a	wordpools/wordpool_EN.txt	BEAN	5	21	[0, 0, 0]	n/a	FR1	2	R1154D
2389.17	0.95	2705683	WORD_OFF	n/a	n/a	BEAN	5	21	[0, 0, 0]	n/a	FR1	2	R1154D
2390.12	1.618	2706633	WORD	n/a	wordpools/wordpool_EN.txt	DOOR	6	21	[0, 0, 0]	n/a	FR1	2	R1154D
2391.738	0.85	2708250	WORD_OFF	n/a	n/a	DOOR	6	21	[0, 0, 0]	n/a	FR1	2	R1154D
2392.588	1.616	2709100	WORD	n/a	wordpools/wordpool_EN.txt	CROWN	7	21	[0, 0, 0]	n/a	FR1	2	R1154D
2394.204	0.934	2710716	WORD_OFF	n/a	n/a	CROWN	7	21	[0, 0, 0]	n/a	FR1	2	R1154D
2395.138	1.618	2711650	WORD	n/a	wordpools/wordpool_EN.txt	PRINCE	8	21	[0, 0, 0]	n/a	FR1	2	R1154D
2396.756	0.95	2713268	WORD_OFF	n/a	n/a	PRINCE	8	21	[0, 0, 0]	n/a	FR1	2	R1154D
2397.706	1.616	2714218	WORD	n/a	wordpools/wordpool_EN.txt	STONE	9	21	[0, 0, 0]	n/a	FR1	2	R1154D
2399.322	0.934	2715834	WORD_OFF	n/a	n/a	STONE	9	21	[0, 0, 0]	n/a	FR1	2	R1154D
2400.256	1.616	2716768	WORD	n/a	wordpools/wordpool_EN.txt	STAIR	10	21	[0, 0, 0]	n/a	FR1	2	R1154D
2401.872	0.984	2718384	WORD_OFF	n/a	n/a	STAIR	10	21	[0, 0, 0]	n/a	FR1	2	R1154D
2402.856	1.618	2719368	WORD	n/a	wordpools/wordpool_EN.txt	PEARL	11	21	[0, 0, 0]	n/a	FR1	2	R1154D
2404.474	0.983	2720986	WORD_OFF	n/a	n/a	PEARL	11	21	[0, 0, 0]	n/a	FR1	2	R1154D
2405.457	1.616	2721969	WORD	n/a	wordpools/wordpool_EN.txt	TOOL	12	21	[0, 0, 0]	n/a	FR1	2	R1154D
2407.073	0.0	2723585	DISTRACT_START	n/a	n/a	n/a	-999	21	[0, 0, 0]	n/a	FR1	2	R1154D
2407.073	0.001	2723585	WORD_OFF	n/a	n/a	TOOL	12	21	[0, 0, 0]	n/a	FR1	2	R1154D
2407.074	0.016	2723586	START	n/a	n/a	n/a	-999	21	[-999, -999, -999]	n/a	FR1	2	R1154D
2407.09	2.917	2723602	PROB	2.917	n/a	n/a	-999	21	[8, 1, 7]	16	FR1	2	R1154D
2410.007	2.535	2726519	PROB	2.535	n/a	n/a	-999	21	[6, 9, 6]	21	FR1	2	R1154D
2412.542	2.35	2729053	PROB	2.35	n/a	n/a	-999	21	[8, 3, 8]	19	FR1	2	R1154D
2414.892	1.5	2731403	PROB	1.5	n/a	n/a	-999	21	[5, 5, 1]	11	FR1	2	R1154D
2416.392	1.75	2732903	PROB	1.75	n/a	n/a	-999	21	[1, 3, 6]	10	FR1	2	R1154D
2418.142	2.234	2734653	PROB	2.234	n/a	n/a	-999	21	[8, 5, 9]	22	FR1	2	R1154D
2420.376	1.8	2736887	PROB	1.8	n/a	n/a	-999	21	[1, 1, 7]	9	FR1	2	R1154D
2422.176	3.234	2738687	PROB	3.234	n/a	n/a	-999	21	[5, 9, 4]	18	FR1	2	R1154D
2425.41	1.957	2741921	PROB	1.957	n/a	n/a	-999	21	[9, 9, 9]	27	FR1	2	R1154D
2427.367	0.01	2743878	STOP	n/a	n/a	n/a	-999	21	[-999, -999, -999]	n/a	FR1	2	R1154D
2427.377	0.533	2743888	DISTRACT_END	n/a	n/a	n/a	-999	21	[0, 0, 0]	n/a	FR1	2	R1154D
2427.91	0.519	2744421	RETRIEVAL_ORIENT	n/a	n/a	n/a	-999	21	[0, 0, 0]	n/a	FR1	2	R1154D
2428.429	0.879	2744940	REC_START	n/a	n/a	n/a	-999	21	[0, 0, 0]	n/a	FR1	2	R1154D
2429.308	0.694	2745818	REC_WORD	0.694	n/a	PRINCE	-999	21	[0, 0, 0]	n/a	FR1	2	R1154D
2430.002	0.86	2746512	REC_WORD	0.86	n/a	CROWN	-999	21	[0, 0, 0]	n/a	FR1	2	R1154D
2430.862	0.565	2747372	REC_WORD	0.565	n/a	BEAN	-999	21	[0, 0, 0]	n/a	FR1	2	R1154D
2431.427	3.857	2747937	REC_WORD	3.857	n/a	STONE	-999	21	[0, 0, 0]	n/a	FR1	2	R1154D
2435.284	5.998	2751794	REC_WORD	5.998	n/a	STONE	-999	21	[0, 0, 0]	n/a	FR1	2	R1154D
2441.282	12.763	2757792	REC_WORD	12.763	n/a	STONE	-999	21	[0, 0, 0]	n/a	FR1	2	R1154D
2454.045	1.0	2770554	REC_WORD_VV	1.0	n/a	<>	-999	21	[0, 0, 0]	n/a	FR1	2	R1154D
2455.045	0.995	2771554	REC_WORD_VV	0.995	n/a	<>	-999	21	[0, 0, 0]	n/a	FR1	2	R1154D
2456.04	1.0	2772549	REC_WORD_VV	1.0	n/a	<>	-999	21	[0, 0, 0]	n/a	FR1	2	R1154D
2457.04	1.398	2773549	REC_WORD_VV	1.398	n/a	<>	-999	21	[0, 0, 0]	n/a	FR1	2	R1154D
2458.438	8.997	2774947	REC_END	n/a	n/a	n/a	-999	21	[0, 0, 0]	n/a	FR1	2	R1154D
2467.435	0.5	2783943	TRIAL	n/a	n/a	n/a	-999	22	[0, 0, 0]	n/a	FR1	2	R1154D
2467.935	10.428	2784443	COUNTDOWN_START	n/a	n/a	n/a	-999	22	[0, 0, 0]	n/a	FR1	2	R1154D
2478.363	0.007	2794871	COUNTDOWN_END	n/a	n/a	n/a	-999	22	[0, 0, 0]	n/a	FR1	2	R1154D
2478.37	1.617	2794878	ORIENT	n/a	n/a	n/a	-999	22	[0, 0, 0]	n/a	FR1	2	R1154D
2479.987	2.35	2796495	ORIENT_OFF	n/a	n/a	n/a	-999	22	[0, 0, 0]	n/a	FR1	2	R1154D
2482.337	1.617	2798845	WORD	n/a	wordpools/wordpool_EN.txt	TIE	1	22	[0, 0, 0]	n/a	FR1	2	R1154D
2483.954	0.984	2800462	WORD_OFF	n/a	n/a	TIE	1	22	[0, 0, 0]	n/a	FR1	2	R1154D
2484.938	1.618	2801446	WORD	n/a	wordpools/wordpool_EN.txt	BRICK	2	22	[0, 0, 0]	n/a	FR1	2	R1154D
2486.556	0.916	2803063	WORD_OFF	n/a	n/a	BRICK	2	22	[0, 0, 0]	n/a	FR1	2	R1154D
2487.472	1.616	2803979	WORD	n/a	wordpools/wordpool_EN.txt	MOUSE	3	22	[0, 0, 0]	n/a	FR1	2	R1154D
2489.088	0.817	2805595	WORD_OFF	n/a	n/a	MOUSE	3	22	[0, 0, 0]	n/a	FR1	2	R1154D
2489.905	1.618	2806412	WORD	n/a	wordpools/wordpool_EN.txt	DOCK	4	22	[0, 0, 0]	n/a	FR1	2	R1154D
2491.523	0.866	2808030	WORD_OFF	n/a	n/a	DOCK	4	22	[0, 0, 0]	n/a	FR1	2	R1154D
2492.389	1.617	2808896	WORD	n/a	wordpools/wordpool_EN.txt	SLIME	5	22	[0, 0, 0]	n/a	FR1	2	R1154D
2494.006	0.833	2810513	WORD_OFF	n/a	n/a	SLIME	5	22	[0, 0, 0]	n/a	FR1	2	R1154D
2494.839	1.601	2811346	WORD	n/a	wordpools/wordpool_EN.txt	CRANE	6	22	[0, 0, 0]	n/a	FR1	2	R1154D
2496.44	0.883	2812947	WORD_OFF	n/a	n/a	CRANE	6	22	[0, 0, 0]	n/a	FR1	2	R1154D
2497.323	1.617	2813830	WORD	n/a	wordpools/wordpool_EN.txt	ROOF	7	22	[0, 0, 0]	n/a	FR1	2	R1154D
2498.94	0.917	2815447	WORD_OFF	n/a	n/a	ROOF	7	22	[0, 0, 0]	n/a	FR1	2	R1154D
2499.857	1.618	2816364	WORD	n/a	wordpools/wordpool_EN.txt	CART	8	22	[0, 0, 0]	n/a	FR1	2	R1154D
2501.475	0.967	2817982	WORD_OFF	n/a	n/a	CART	8	22	[0, 0, 0]	n/a	FR1	2	R1154D
2502.442	1.616	2818949	WORD	n/a	wordpools/wordpool_EN.txt	TOAD	9	22	[0, 0, 0]	n/a	FR1	2	R1154D
2504.058	0.867	2820564	WORD_OFF	n/a	n/a	TOAD	9	22	[0, 0, 0]	n/a	FR1	2	R1154D
2504.925	1.618	2821431	WORD	n/a	wordpools/wordpool_EN.txt	BARN	10	22	[0, 0, 0]	n/a	FR1	2	R1154D
2506.543	0.815	2823049	WORD_OFF	n/a	n/a	BARN	10	22	[0, 0, 0]	n/a	FR1	2	R1154D
2507.358	1.617	2823864	WORD	n/a	wordpools/wordpool_EN.txt	CAVE	11	22	[0, 0, 0]	n/a	FR1	2	R1154D
2508.975	0.967	2825481	WORD_OFF	n/a	n/a	CAVE	11	22	[0, 0, 0]	n/a	FR1	2	R1154D
2509.942	1.618	2826448	WORD	n/a	wordpools/wordpool_EN.txt	SKI	12	22	[0, 0, 0]	n/a	FR1	2	R1154D
2511.56	0.0	2828066	WORD_OFF	n/a	n/a	SKI	12	22	[0, 0, 0]	n/a	FR1	2	R1154D
2511.56	0.001	2828066	DISTRACT_START	n/a	n/a	n/a	-999	22	[0, 0, 0]	n/a	FR1	2	R1154D
2511.561	0.016	2828067	START	n/a	n/a	n/a	-999	22	[-999, -999, -999]	n/a	FR1	2	R1154D
2511.577	2.967	2828083	PROB	2.967	n/a	n/a	-999	22	[6, 3, 4]	13	FR1	2	R1154D
2514.544	1.984	2831050	PROB	1.984	n/a	n/a	-999	22	[2, 4, 5]	11	FR1	2	R1154D
2516.528	1.967	2833034	PROB	1.967	n/a	n/a	-999	22	[8, 4, 8]	20	FR1	2	R1154D
2518.495	1.766	2835001	PROB	1.766	n/a	n/a	-999	22	[7, 3, 2]	12	FR1	2	R1154D
2520.261	1.667	2836767	PROB	1.667	n/a	n/a	-999	22	[5, 8, 1]	14	FR1	2	R1154D
2521.928	1.784	2838434	PROB	1.784	n/a	n/a	-999	22	[3, 6, 5]	14	FR1	2	R1154D
2523.712	2.4	2840217	PROB	2.4	n/a	n/a	-999	22	[6, 9, 2]	17	FR1	2	R1154D
2526.112	2.901	2842617	PROB	2.901	n/a	n/a	-999	22	[7, 8, 3]	18	FR1	2	R1154D
2529.013	1.667	2845518	PROB	1.667	n/a	n/a	-999	22	[7, 5, 5]	17	FR1	2	R1154D
2530.68	1.582	2847185	PROB	1.582	n/a	n/a	-999	22	[4, 3, 6]	13	FR1	2	R1154D
2532.262	0.018	2848767	STOP	n/a	n/a	n/a	-999	22	[-999, -999, -999]	n/a	FR1	2	R1154D
2532.28	0.55	2848785	DISTRACT_END	n/a	n/a	n/a	-999	22	[0, 0, 0]	n/a	FR1	2	R1154D
2532.83	0.52	2849335	RETRIEVAL_ORIENT	n/a	n/a	n/a	-999	22	[0, 0, 0]	n/a	FR1	2	R1154D
2533.35	1.286	2849855	REC_START	n/a	n/a	n/a	-999	22	[0, 0, 0]	n/a	FR1	2	R1154D
2534.636	0.843	2851141	REC_WORD	0.843	n/a	DOCK	-999	22	[0, 0, 0]	n/a	FR1	2	R1154D
2535.479	0.651	2851984	REC_WORD	0.651	n/a	ROOF	-999	22	[0, 0, 0]	n/a	FR1	2	R1154D
2536.13	27.23	2852635	REC_WORD	27.23	n/a	SLIME	-999	22	[0, 0, 0]	n/a	FR1	2	R1154D
2563.36	5.06	2879863	REC_END	n/a	n/a	n/a	-999	22	[0, 0, 0]	n/a	FR1	2	R1154D
2568.42	0.5	2884923	TRIAL	n/a	n/a	n/a	-999	23	[0, 0, 0]	n/a	FR1	2	R1154D
2568.92	10.428	2885423	COUNTDOWN_START	n/a	n/a	n/a	-999	23	[0, 0, 0]	n/a	FR1	2	R1154D
2579.348	0.007	2895850	COUNTDOWN_END	n/a	n/a	n/a	-999	23	[0, 0, 0]	n/a	FR1	2	R1154D
2579.355	1.617	2895857	ORIENT	n/a	n/a	n/a	-999	23	[0, 0, 0]	n/a	FR1	2	R1154D
2580.972	2.017	2897474	ORIENT_OFF	n/a	n/a	n/a	-999	23	[0, 0, 0]	n/a	FR1	2	R1154D
2582.989	1.601	2899491	WORD	n/a	wordpools/wordpool_EN.txt	SHIP	1	23	[0, 0, 0]	n/a	FR1	2	R1154D
2584.59	0.884	2901092	WORD_OFF	n/a	n/a	SHIP	1	23	[0, 0, 0]	n/a	FR1	2	R1154D
2585.474	1.616	2901976	WORD	n/a	wordpools/wordpool_EN.txt	FORT	2	23	[0, 0, 0]	n/a	FR1	2	R1154D
2587.09	0.983	2903592	WORD_OFF	n/a	n/a	FORT	2	23	[0, 0, 0]	n/a	FR1	2	R1154D
2588.073	1.601	2904575	WORD	n/a	wordpools/wordpool_EN.txt	PLANE	3	23	[0, 0, 0]	n/a	FR1	2	R1154D
2589.674	0.851	2906176	WORD_OFF	n/a	n/a	PLANE	3	23	[0, 0, 0]	n/a	FR1	2	R1154D
2590.525	1.616	2907027	WORD	n/a	wordpools/wordpool_EN.txt	WAVE	4	23	[0, 0, 0]	n/a	FR1	2	R1154D
2592.141	0.8	2908643	WORD_OFF	n/a	n/a	WAVE	4	23	[0, 0, 0]	n/a	FR1	2	R1154D
2592.941	1.618	2909443	WORD	n/a	wordpools/wordpool_EN.txt	CAPE	5	23	[0, 0, 0]	n/a	FR1	2	R1154D
2594.559	0.782	2911061	WORD_OFF	n/a	n/a	CAPE	5	23	[0, 0, 0]	n/a	FR1	2	R1154D
2595.341	1.617	2911843	WORD	n/a	wordpools/wordpool_EN.txt	SUN	6	23	[0, 0, 0]	n/a	FR1	2	R1154D
2596.958	1.0	2913460	WORD_OFF	n/a	n/a	SUN	6	23	[0, 0, 0]	n/a	FR1	2	R1154D
2597.958	1.601	2914459	WORD	n/a	wordpools/wordpool_EN.txt	FROG	7	23	[0, 0, 0]	n/a	FR1	2	R1154D
2599.559	0.816	2916060	WORD_OFF	n/a	n/a	FROG	7	23	[0, 0, 0]	n/a	FR1	2	R1154D
2600.375	1.617	2916876	WORD	n/a	wordpools/wordpool_EN.txt	BOARD	8	23	[0, 0, 0]	n/a	FR1	2	R1154D
2601.992	0.785	2918493	WORD_OFF	n/a	n/a	BOARD	8	23	[0, 0, 0]	n/a	FR1	2	R1154D
2602.777	1.616	2919278	WORD	n/a	wordpools/wordpool_EN.txt	BAND	9	23	[0, 0, 0]	n/a	FR1	2	R1154D
2604.393	0.833	2920894	WORD_OFF	n/a	n/a	BAND	9	23	[0, 0, 0]	n/a	FR1	2	R1154D
2605.226	1.617	2921727	WORD	n/a	wordpools/wordpool_EN.txt	POLE	10	23	[0, 0, 0]	n/a	FR1	2	R1154D
2606.843	0.935	2923344	WORD_OFF	n/a	n/a	POLE	10	23	[0, 0, 0]	n/a	FR1	2	R1154D
2607.778	1.616	2924279	WORD	n/a	wordpools/wordpool_EN.txt	SAIL	11	23	[0, 0, 0]	n/a	FR1	2	R1154D
2609.394	1.0	2925895	WORD_OFF	n/a	n/a	SAIL	11	23	[0, 0, 0]	n/a	FR1	2	R1154D
2610.394	1.617	2926895	WORD	n/a	wordpools/wordpool_EN.txt	STAR	12	23	[0, 0, 0]	n/a	FR1	2	R1154D
2612.011	0.0	2928512	DISTRACT_START	n/a	n/a	n/a	-999	23	[0, 0, 0]	n/a	FR1	2	R1154D
2612.011	0.001	2928512	WORD_OFF	n/a	n/a	STAR	12	23	[0, 0, 0]	n/a	FR1	2	R1154D
2612.012	0.016	2928513	START	n/a	n/a	n/a	-999	23	[-999, -999, -999]	n/a	FR1	2	R1154D
2612.028	2.401	2928529	PROB	2.401	n/a	n/a	-999	23	[2, 6, 1]	9	FR1	2	R1154D
2614.429	2.084	2930930	PROB	2.084	n/a	n/a	-999	23	[4, 7, 1]	12	FR1	2	R1154D
2616.513	1.599	2933013	PROB	1.599	n/a	n/a	-999	23	[2, 3, 9]	14	FR1	2	R1154D
2618.112	2.284	2934612	PROB	2.284	n/a	n/a	-999	23	[2, 8, 9]	19	FR1	2	R1154D
2620.396	1.917	2936896	PROB	1.917	n/a	n/a	-999	23	[1, 3, 5]	9	FR1	2	R1154D
2622.313	1.984	2938813	PROB	1.984	n/a	n/a	-999	23	[1, 4, 9]	9	FR1	2	R1154D
2624.297	3.75	2940797	PROB	3.75	n/a	n/a	-999	23	[9, 6, 9]	25	FR1	2	R1154D
2628.047	1.751	2944547	PROB	1.751	n/a	n/a	-999	23	[4, 2, 8]	14	FR1	2	R1154D
2629.798	1.517	2946298	PROB	1.517	n/a	n/a	-999	23	[2, 6, 4]	12	FR1	2	R1154D
2631.315	3.515	2947815	PROB	3.515	n/a	n/a	-999	23	[9, 7, 6]	22	FR1	2	R1154D
2634.83	0.018	2951329	STOP	n/a	n/a	n/a	-999	23	[-999, -999, -999]	n/a	FR1	2	R1154D
2634.848	0.702	2951347	DISTRACT_END	n/a	n/a	n/a	-999	23	[0, 0, 0]	n/a	FR1	2	R1154D
2635.55	0.516	2952049	RETRIEVAL_ORIENT	n/a	n/a	n/a	-999	23	[0, 0, 0]	n/a	FR1	2	R1154D
2636.066	0.998	2952565	REC_START	n/a	n/a	n/a	-999	23	[0, 0, 0]	n/a	FR1	2	R1154D
2637.064	5.903	2953563	REC_WORD	5.903	n/a	PLANE	-999	23	[0, 0, 0]	n/a	FR1	2	R1154D
2642.967	0.597	2959466	REC_WORD_VV	0.597	n/a	<>	-999	23	[0, 0, 0]	n/a	FR1	2	R1154D
2643.564	3.238	2960063	REC_WORD	3.238	n/a	PLANE	-999	23	[0, 0, 0]	n/a	FR1	2	R1154D
2646.802	2.72	2963301	REC_WORD	2.72	n/a	SUN	-999	23	[0, 0, 0]	n/a	FR1	2	R1154D
2649.522	0.77	2966021	REC_WORD	0.77	n/a	FORT	-999	23	[0, 0, 0]	n/a	FR1	2	R1154D
2650.292	0.207	2966791	REC_WORD	0.207	n/a	PLANE	-999	23	[0, 0, 0]	n/a	FR1	2	R1154D
2650.499	0.412	2966998	REC_WORD	0.412	n/a	SUN	-999	23	[0, 0, 0]	n/a	FR1	2	R1154D
2650.911	15.165	2967410	REC_WORD	15.165	n/a	FORT	-999	23	[0, 0, 0]	n/a	FR1	2	R1154D
2666.076	5.096	2982574	REC_END	n/a	n/a	n/a	-999	23	[0, 0, 0]	n/a	FR1	2	R1154D
2671.172	0.5	2987670	TRIAL	n/a	n/a	n/a	-999	24	[0, 0, 0]	n/a	FR1	2	R1154D
2671.672	10.428	2988170	COUNTDOWN_START	n/a	n/a	n/a	-999	24	[0, 0, 0]	n/a	FR1	2	R1154D
