onset	duration	sample	trial_type	response_time	stim_file	item_name	serialpos	list	test	answer	experiment	session	subject
0.0	0.0	9557	INSTRUCT_START	n/a	n/a	n/a	-999	-999	[0, 0, 0]	n/a	FR1	0	R1166D
0.0	11.073	9557	INSTRUCT_END	n/a	n/a	n/a	-999	-999	[0, 0, 0]	n/a	FR1	0	R1166D
11.073	0.0	20629	SESS_START	n/a	n/a	n/a	-999	-999	[0, 0, 0]	n/a	FR1	0	R1166D
11.073	201.023	20629	MIC_TEST	n/a	n/a	n/a	-999	-999	[0, 0, 0]	n/a	FR1	0	R1166D
212.096	5.878	221641	PRACTICE_TRIAL	n/a	n/a	n/a	-999	-1	[0, 0, 0]	n/a	FR1	0	R1166D
217.974	10.428	227519	COUNTDOWN_START	n/a	n/a	n/a	-999	-1	[0, 0, 0]	n/a	FR1	0	R1166D
228.402	0.007	237947	COUNTDOWN_END	n/a	n/a	n/a	-999	-1	[0, 0, 0]	n/a	FR1	0	R1166D
228.409	1.617	237954	PRACTICE_ORIENT	n/a	n/a	n/a	-999	-1	[0, 0, 0]	n/a	FR1	0	R1166D
230.026	1.934	239570	PRACTICE_ORIENT_OFF	n/a	n/a	n/a	-999	-1	[0, 0, 0]	n/a	FR1	0	R1166D
231.96	1.617	241504	PRACTICE_WORD	n/a	n/a	IRON	1	-1	[0, 0, 0]	n/a	FR1	0	R1166D
233.577	0.933	243121	PRACTICE_WORD_OFF	n/a	n/a	IRON	-999	-1	[0, 0, 0]	n/a	FR1	0	R1166D
234.51	1.617	244054	PRACTICE_WORD	n/a	n/a	BEAM	2	-1	[0, 0, 0]	n/a	FR1	0	R1166D
236.127	0.884	245671	PRACTICE_WORD_OFF	n/a	n/a	BEAM	-999	-1	[0, 0, 0]	n/a	FR1	0	R1166D
237.011	1.617	246555	PRACTICE_WORD	n/a	n/a	WAGON	3	-1	[0, 0, 0]	n/a	FR1	0	R1166D
238.628	0.85	248172	PRACTICE_WORD_OFF	n/a	n/a	WAGON	-999	-1	[0, 0, 0]	n/a	FR1	0	R1166D
239.478	1.617	249022	PRACTICE_WORD	n/a	n/a	RHINO	4	-1	[0, 0, 0]	n/a	FR1	0	R1166D
241.095	0.867	250639	PRACTICE_WORD_OFF	n/a	n/a	RHINO	-999	-1	[0, 0, 0]	n/a	FR1	0	R1166D
241.962	1.617	251506	PRACTICE_WORD	n/a	n/a	ATTIC	5	-1	[0, 0, 0]	n/a	FR1	0	R1166D
243.579	0.866	253123	PRACTICE_WORD_OFF	n/a	n/a	ATTIC	-999	-1	[0, 0, 0]	n/a	FR1	0	R1166D
244.445	1.617	253989	PRACTICE_WORD	n/a	n/a	CHEST	6	-1	[0, 0, 0]	n/a	FR1	0	R1166D
246.062	0.967	255606	PRACTICE_WORD_OFF	n/a	n/a	CHEST	-999	-1	[0, 0, 0]	n/a	FR1	0	R1166D
247.029	1.617	256573	PRACTICE_WORD	n/a	n/a	FLOOD	7	-1	[0, 0, 0]	n/a	FR1	0	R1166D
248.646	0.967	258189	PRACTICE_WORD_OFF	n/a	n/a	FLOOD	-999	-1	[0, 0, 0]	n/a	FR1	0	R1166D
249.613	1.617	259156	PRACTICE_WORD	n/a	n/a	CAMEL	8	-1	[0, 0, 0]	n/a	FR1	0	R1166D
251.23	0.783	260773	PRACTICE_WORD_OFF	n/a	n/a	CAMEL	-999	-1	[0, 0, 0]	n/a	FR1	0	R1166D
252.013	1.617	261556	PRACTICE_WORD	n/a	n/a	WATCH	9	-1	[0, 0, 0]	n/a	FR1	0	R1166D
253.63	0.951	263173	PRACTICE_WORD_OFF	n/a	n/a	WATCH	-999	-1	[0, 0, 0]	n/a	FR1	0	R1166D
254.581	1.617	264124	PRACTICE_WORD	n/a	n/a	TONGUE	10	-1	[0, 0, 0]	n/a	FR1	0	R1166D
256.198	0.783	265741	PRACTICE_WORD_OFF	n/a	n/a	TONGUE	-999	-1	[0, 0, 0]	n/a	FR1	0	R1166D
256.981	1.617	266524	PRACTICE_WORD	n/a	n/a	COTTON	11	-1	[0, 0, 0]	n/a	FR1	0	R1166D
258.598	0.984	268141	PRACTICE_WORD_OFF	n/a	n/a	COTTON	-999	-1	[0, 0, 0]	n/a	FR1	0	R1166D
259.582	1.616	269125	PRACTICE_WORD	n/a	n/a	RING	12	-1	[0, 0, 0]	n/a	FR1	0	R1166D
261.198	0.0	270741	PRACTICE_WORD_OFF	n/a	n/a	RING	-999	-1	[0, 0, 0]	n/a	FR1	0	R1166D
261.198	0.001	270741	DISTRACT_START	n/a	n/a	n/a	-999	-1	[0, 0, 0]	n/a	FR1	0	R1166D
261.199	0.016	270742	START	n/a	n/a	n/a	-999	-1	[-999, -999, -999]	n/a	FR1	0	R1166D
261.215	11.436	270758	PROB	11.436	n/a	n/a	-999	-1	[6, 5, 9]	20	FR1	0	R1166D
272.651	6.817	282193	PROB	6.817	n/a	n/a	-999	-1	[9, 1, 5]	15	FR1	0	R1166D
279.468	7.527	289010	PROB	7.527	n/a	n/a	-999	-1	[7, 9, 4]	21	FR1	0	R1166D
286.995	0.008	296536	STOP	n/a	n/a	n/a	-999	-1	[-999, -999, -999]	n/a	FR1	0	R1166D
287.003	0.667	296544	DISTRACT_END	n/a	n/a	n/a	-999	-1	[0, 0, 0]	n/a	FR1	0	R1166D
287.67	0.517	297211	RETRIEVAL_ORIENT	n/a	n/a	n/a	-999	-1	[0, 0, 0]	n/a	FR1	0	R1166D
288.187	30.014	297728	PRACTICE_REC_START	n/a	n/a	n/a	-999	-1	[0, 0, 0]	n/a	FR1	0	R1166D
318.201	46.817	327741	PRACTICE_REC_END	n/a	n/a	n/a	-999	-1	[0, 0, 0]	n/a	FR1	0	R1166D
365.018	0.5	374555	TRIAL	n/a	n/a	n/a	-999	1	[0, 0, 0]	n/a	FR1	0	R1166D
365.518	10.428	375055	COUNTDOWN_START	n/a	n/a	n/a	-999	1	[0, 0, 0]	n/a	FR1	0	R1166D
375.946	0.007	385483	COUNTDOWN_END	n/a	n/a	n/a	-999	1	[0, 0, 0]	n/a	FR1	0	R1166D
375.953	1.617	385490	ORIENT	n/a	n/a	n/a	-999	1	[0, 0, 0]	n/a	FR1	0	R1166D
377.57	2.0	387106	ORIENT_OFF	n/a	n/a	n/a	-999	1	[0, 0, 0]	n/a	FR1	0	R1166D
379.57	1.617	389106	WORD	n/a	wordpools/wordpool_EN.txt	MULE	1	1	[0, 0, 0]	n/a	FR1	0	R1166D
381.187	0.983	390723	WORD_OFF	n/a	n/a	MULE	1	1	[0, 0, 0]	n/a	FR1	0	R1166D
382.17	1.618	391706	WORD	n/a	wordpools/wordpool_EN.txt	BOOT	2	1	[0, 0, 0]	n/a	FR1	0	R1166D
383.788	0.833	393324	WORD_OFF	n/a	n/a	BOOT	2	1	[0, 0, 0]	n/a	FR1	0	R1166D
384.621	1.617	394157	WORD	n/a	wordpools/wordpool_EN.txt	BEACH	3	1	[0, 0, 0]	n/a	FR1	0	R1166D
386.238	1.0	395774	WORD_OFF	n/a	n/a	BEACH	3	1	[0, 0, 0]	n/a	FR1	0	R1166D
387.238	1.617	396774	WORD	n/a	wordpools/wordpool_EN.txt	FAN	4	1	[0, 0, 0]	n/a	FR1	0	R1166D
388.855	0.917	398391	WORD_OFF	n/a	n/a	FAN	4	1	[0, 0, 0]	n/a	FR1	0	R1166D
389.772	1.617	399308	WORD	n/a	wordpools/wordpool_EN.txt	BREAD	5	1	[0, 0, 0]	n/a	FR1	0	R1166D
391.389	0.867	400925	WORD_OFF	n/a	n/a	BREAD	5	1	[0, 0, 0]	n/a	FR1	0	R1166D
392.256	1.617	401792	WORD	n/a	wordpools/wordpool_EN.txt	SEA	6	1	[0, 0, 0]	n/a	FR1	0	R1166D
393.873	0.916	403409	WORD_OFF	n/a	n/a	SEA	6	1	[0, 0, 0]	n/a	FR1	0	R1166D
394.789	1.618	404325	WORD	n/a	wordpools/wordpool_EN.txt	MAZE	7	1	[0, 0, 0]	n/a	FR1	0	R1166D
396.407	0.85	405942	WORD_OFF	n/a	n/a	MAZE	7	1	[0, 0, 0]	n/a	FR1	0	R1166D
397.257	1.617	406792	WORD	n/a	wordpools/wordpool_EN.txt	BOWL	8	1	[0, 0, 0]	n/a	FR1	0	R1166D
398.874	0.85	408409	WORD_OFF	n/a	n/a	BOWL	8	1	[0, 0, 0]	n/a	FR1	0	R1166D
399.724	1.617	409259	WORD	n/a	wordpools/wordpool_EN.txt	POOL	9	1	[0, 0, 0]	n/a	FR1	0	R1166D
401.341	0.933	410876	WORD_OFF	n/a	n/a	POOL	9	1	[0, 0, 0]	n/a	FR1	0	R1166D
402.274	1.617	411809	WORD	n/a	wordpools/wordpool_EN.txt	FROG	10	1	[0, 0, 0]	n/a	FR1	0	R1166D
403.891	0.868	413426	WORD_OFF	n/a	n/a	FROG	10	1	[0, 0, 0]	n/a	FR1	0	R1166D
404.759	1.616	414294	WORD	n/a	wordpools/wordpool_EN.txt	SMILE	11	1	[0, 0, 0]	n/a	FR1	0	R1166D
406.375	0.967	415910	WORD_OFF	n/a	n/a	SMILE	11	1	[0, 0, 0]	n/a	FR1	0	R1166D
407.342	1.617	416877	WORD	n/a	wordpools/wordpool_EN.txt	PANTS	12	1	[0, 0, 0]	n/a	FR1	0	R1166D
408.959	0.0	418494	WORD_OFF	n/a	n/a	PANTS	12	1	[0, 0, 0]	n/a	FR1	0	R1166D
408.959	0.0	418494	DISTRACT_START	n/a	n/a	n/a	-999	1	[0, 0, 0]	n/a	FR1	0	R1166D
408.959	0.017	418494	START	n/a	n/a	n/a	-999	1	[-999, -999, -999]	n/a	FR1	0	R1166D
408.976	4.85	418511	PROB	4.85	n/a	n/a	-999	1	[5, 4, 4]	13	FR1	0	R1166D
413.826	11.219	423360	PROB	11.219	n/a	n/a	-999	1	[7, 4, 5]	16	FR1	0	R1166D
425.045	3.317	434579	PROB	3.317	n/a	n/a	-999	1	[2, 1, 9]	12	FR1	0	R1166D
428.362	25.866	437896	PROB	25.866	n/a	n/a	-999	1	[7, 6, 9]	23	FR1	0	R1166D
454.228	0.006	463760	STOP	n/a	n/a	n/a	-999	1	[-999, -999, -999]	n/a	FR1	0	R1166D
454.234	0.617	463766	DISTRACT_END	n/a	n/a	n/a	-999	1	[0, 0, 0]	n/a	FR1	0	R1166D
454.851	0.517	464383	RETRIEVAL_ORIENT	n/a	n/a	n/a	-999	1	[0, 0, 0]	n/a	FR1	0	R1166D
455.368	2.089	464900	REC_START	n/a	n/a	n/a	-999	1	[0, 0, 0]	n/a	FR1	0	R1166D
457.457	5.69	466989	REC_WORD	5.69	n/a	MULE	1	1	[0, 0, 0]	n/a	FR1	0	R1166D
463.147	12.057	472679	REC_WORD	12.057	n/a	SEA	6	1	[0, 0, 0]	n/a	FR1	0	R1166D
475.204	10.176	484735	REC_WORD	10.176	n/a	SMILE	11	1	[0, 0, 0]	n/a	FR1	0	R1166D
485.38	6.611	494911	REC_END	n/a	n/a	n/a	-999	1	[0, 0, 0]	n/a	FR1	0	R1166D
491.991	0.5	501521	TRIAL	n/a	n/a	n/a	-999	2	[0, 0, 0]	n/a	FR1	0	R1166D
492.491	10.428	502021	COUNTDOWN_START	n/a	n/a	n/a	-999	2	[0, 0, 0]	n/a	FR1	0	R1166D
502.919	0.007	512449	COUNTDOWN_END	n/a	n/a	n/a	-999	2	[0, 0, 0]	n/a	FR1	0	R1166D
502.926	1.617	512456	ORIENT	n/a	n/a	n/a	-999	2	[0, 0, 0]	n/a	FR1	0	R1166D
504.543	2.033	514073	ORIENT_OFF	n/a	n/a	n/a	-999	2	[0, 0, 0]	n/a	FR1	0	R1166D
506.576	1.618	516105	WORD	n/a	wordpools/wordpool_EN.txt	WHALE	1	2	[0, 0, 0]	n/a	FR1	0	R1166D
508.194	0.883	517723	WORD_OFF	n/a	n/a	WHALE	1	2	[0, 0, 0]	n/a	FR1	0	R1166D
509.077	1.617	518606	WORD	n/a	wordpools/wordpool_EN.txt	SNAKE	2	2	[0, 0, 0]	n/a	FR1	0	R1166D
510.694	0.8	520223	WORD_OFF	n/a	n/a	SNAKE	2	2	[0, 0, 0]	n/a	FR1	0	R1166D
511.494	1.617	521023	WORD	n/a	wordpools/wordpool_EN.txt	SEAT	3	2	[0, 0, 0]	n/a	FR1	0	R1166D
513.111	0.9	522640	WORD_OFF	n/a	n/a	SEAT	3	2	[0, 0, 0]	n/a	FR1	0	R1166D
514.011	1.617	523540	WORD	n/a	wordpools/wordpool_EN.txt	BOAT	4	2	[0, 0, 0]	n/a	FR1	0	R1166D
515.628	0.8	525157	WORD_OFF	n/a	n/a	BOAT	4	2	[0, 0, 0]	n/a	FR1	0	R1166D
516.428	1.617	525957	WORD	n/a	wordpools/wordpool_EN.txt	BOARD	5	2	[0, 0, 0]	n/a	FR1	0	R1166D
518.045	0.984	527574	WORD_OFF	n/a	n/a	BOARD	5	2	[0, 0, 0]	n/a	FR1	0	R1166D
519.029	1.617	528558	WORD	n/a	wordpools/wordpool_EN.txt	STAIR	6	2	[0, 0, 0]	n/a	FR1	0	R1166D
520.646	0.883	530175	WORD_OFF	n/a	n/a	STAIR	6	2	[0, 0, 0]	n/a	FR1	0	R1166D
521.529	1.617	531058	WORD	n/a	wordpools/wordpool_EN.txt	ROCK	7	2	[0, 0, 0]	n/a	FR1	0	R1166D
523.146	0.95	532675	WORD_OFF	n/a	n/a	ROCK	7	2	[0, 0, 0]	n/a	FR1	0	R1166D
524.096	1.617	533625	WORD	n/a	wordpools/wordpool_EN.txt	CRANE	8	2	[0, 0, 0]	n/a	FR1	0	R1166D
525.713	0.817	535241	WORD_OFF	n/a	n/a	CRANE	8	2	[0, 0, 0]	n/a	FR1	0	R1166D
526.53	1.617	536058	WORD	n/a	wordpools/wordpool_EN.txt	AXE	9	2	[0, 0, 0]	n/a	FR1	0	R1166D
528.147	0.767	537675	WORD_OFF	n/a	n/a	AXE	9	2	[0, 0, 0]	n/a	FR1	0	R1166D
528.914	1.617	538442	WORD	n/a	wordpools/wordpool_EN.txt	SAIL	10	2	[0, 0, 0]	n/a	FR1	0	R1166D
530.531	0.884	540059	WORD_OFF	n/a	n/a	SAIL	10	2	[0, 0, 0]	n/a	FR1	0	R1166D
531.415	1.617	540943	WORD	n/a	wordpools/wordpool_EN.txt	HAWK	11	2	[0, 0, 0]	n/a	FR1	0	R1166D
533.032	0.816	542560	WORD_OFF	n/a	n/a	HAWK	11	2	[0, 0, 0]	n/a	FR1	0	R1166D
533.848	1.617	543376	WORD	n/a	wordpools/wordpool_EN.txt	CLIFF	12	2	[0, 0, 0]	n/a	FR1	0	R1166D
535.465	0.0	544993	WORD_OFF	n/a	n/a	CLIFF	12	2	[0, 0, 0]	n/a	FR1	0	R1166D
535.465	0.001	544993	DISTRACT_START	n/a	n/a	n/a	-999	2	[0, 0, 0]	n/a	FR1	0	R1166D
535.466	0.016	544994	START	n/a	n/a	n/a	-999	2	[-999, -999, -999]	n/a	FR1	0	R1166D
535.482	4.968	545010	PROB	4.968	n/a	n/a	-999	2	[8, 5, 1]	14	FR1	0	R1166D
540.45	4.884	549978	PROB	4.884	n/a	n/a	-999	2	[7, 4, 4]	15	FR1	0	R1166D
545.334	4.534	554861	PROB	4.534	n/a	n/a	-999	2	[3, 7, 2]	12	FR1	0	R1166D
549.868	3.0	559395	PROB	3.0	n/a	n/a	-999	2	[2, 1, 2]	5	FR1	0	R1166D
552.868	4.416	562395	PROB	4.416	n/a	n/a	-999	2	[6, 3, 7]	16	FR1	0	R1166D
557.284	0.019	566811	STOP	n/a	n/a	n/a	-999	2	[-999, -999, -999]	n/a	FR1	0	R1166D
557.303	0.6	566830	DISTRACT_END	n/a	n/a	n/a	-999	2	[0, 0, 0]	n/a	FR1	0	R1166D
557.903	0.517	567430	RETRIEVAL_ORIENT	n/a	n/a	n/a	-999	2	[0, 0, 0]	n/a	FR1	0	R1166D
558.42	7.425	567947	REC_START	n/a	n/a	n/a	-999	2	[0, 0, 0]	n/a	FR1	0	R1166D
565.845	22.588	575371	REC_WORD	22.588	n/a	WHALE	1	2	[0, 0, 0]	n/a	FR1	0	R1166D
588.433	11.961	597958	REC_END	n/a	n/a	n/a	-999	2	[0, 0, 0]	n/a	FR1	0	R1166D
600.394	0.5	609918	TRIAL	n/a	n/a	n/a	-999	3	[0, 0, 0]	n/a	FR1	0	R1166D
600.894	10.428	610418	COUNTDOWN_START	n/a	n/a	n/a	-999	3	[0, 0, 0]	n/a	FR1	0	R1166D
611.322	0.007	620846	COUNTDOWN_END	n/a	n/a	n/a	-999	3	[0, 0, 0]	n/a	FR1	0	R1166D
611.329	1.617	620853	ORIENT	n/a	n/a	n/a	-999	3	[0, 0, 0]	n/a	FR1	0	R1166D
612.946	2.101	622470	ORIENT_OFF	n/a	n/a	n/a	-999	3	[0, 0, 0]	n/a	FR1	0	R1166D
615.047	1.616	624571	WORD	n/a	wordpools/wordpool_EN.txt	FLUTE	1	3	[0, 0, 0]	n/a	FR1	0	R1166D
616.663	0.784	626186	WORD_OFF	n/a	n/a	FLUTE	1	3	[0, 0, 0]	n/a	FR1	0	R1166D
617.447	1.617	626970	WORD	n/a	wordpools/wordpool_EN.txt	INK	2	3	[0, 0, 0]	n/a	FR1	0	R1166D
619.064	1.017	628587	WORD_OFF	n/a	n/a	INK	2	3	[0, 0, 0]	n/a	FR1	0	R1166D
620.081	1.617	629604	WORD	n/a	wordpools/wordpool_EN.txt	PHONE	3	3	[0, 0, 0]	n/a	FR1	0	R1166D
621.698	0.783	631221	WORD_OFF	n/a	n/a	PHONE	3	3	[0, 0, 0]	n/a	FR1	0	R1166D
622.481	1.617	632004	WORD	n/a	wordpools/wordpool_EN.txt	CLOCK	4	3	[0, 0, 0]	n/a	FR1	0	R1166D
624.098	0.867	633621	WORD_OFF	n/a	n/a	CLOCK	4	3	[0, 0, 0]	n/a	FR1	0	R1166D
624.965	1.617	634488	WORD	n/a	wordpools/wordpool_EN.txt	MOLE	5	3	[0, 0, 0]	n/a	FR1	0	R1166D
626.582	0.783	636105	WORD_OFF	n/a	n/a	MOLE	5	3	[0, 0, 0]	n/a	FR1	0	R1166D
627.365	1.617	636888	WORD	n/a	wordpools/wordpool_EN.txt	SNOW	6	3	[0, 0, 0]	n/a	FR1	0	R1166D
628.982	1.017	638505	WORD_OFF	n/a	n/a	SNOW	6	3	[0, 0, 0]	n/a	FR1	0	R1166D
629.999	1.617	639522	WORD	n/a	wordpools/wordpool_EN.txt	COIN	7	3	[0, 0, 0]	n/a	FR1	0	R1166D
631.616	0.9	641139	WORD_OFF	n/a	n/a	COIN	7	3	[0, 0, 0]	n/a	FR1	0	R1166D
632.516	1.617	642039	WORD	n/a	wordpools/wordpool_EN.txt	MOTH	8	3	[0, 0, 0]	n/a	FR1	0	R1166D
634.133	0.901	643656	WORD_OFF	n/a	n/a	MOTH	8	3	[0, 0, 0]	n/a	FR1	0	R1166D
635.034	1.616	644556	WORD	n/a	wordpools/wordpool_EN.txt	STORE	9	3	[0, 0, 0]	n/a	FR1	0	R1166D
636.65	0.867	646172	WORD_OFF	n/a	n/a	STORE	9	3	[0, 0, 0]	n/a	FR1	0	R1166D
637.517	1.617	647039	WORD	n/a	wordpools/wordpool_EN.txt	PEARL	10	3	[0, 0, 0]	n/a	FR1	0	R1166D
639.134	0.95	648656	WORD_OFF	n/a	n/a	PEARL	10	3	[0, 0, 0]	n/a	FR1	0	R1166D
640.084	1.617	649606	WORD	n/a	wordpools/wordpool_EN.txt	TOAD	11	3	[0, 0, 0]	n/a	FR1	0	R1166D
641.701	0.917	651223	WORD_OFF	n/a	n/a	TOAD	11	3	[0, 0, 0]	n/a	FR1	0	R1166D
642.618	1.617	652140	WORD	n/a	wordpools/wordpool_EN.txt	BOOK	12	3	[0, 0, 0]	n/a	FR1	0	R1166D
644.235	0.0	653757	WORD_OFF	n/a	n/a	BOOK	12	3	[0, 0, 0]	n/a	FR1	0	R1166D
644.235	0.001	653757	DISTRACT_START	n/a	n/a	n/a	-999	3	[0, 0, 0]	n/a	FR1	0	R1166D
644.236	0.016	653758	START	n/a	n/a	n/a	-999	3	[-999, -999, -999]	n/a	FR1	0	R1166D
644.252	6.351	653774	PROB	6.351	n/a	n/a	-999	3	[7, 3, 8]	18	FR1	0	R1166D
650.603	6.385	660125	PROB	6.385	n/a	n/a	-999	3	[3, 2, 3]	8	FR1	0	R1166D
656.988	12.801	666509	PROB	12.801	n/a	n/a	-999	3	[8, 8, 2]	18	FR1	0	R1166D
669.789	0.018	679310	STOP	n/a	n/a	n/a	-999	3	[-999, -999, -999]	n/a	FR1	0	R1166D
669.807	0.666	679328	DISTRACT_END	n/a	n/a	n/a	-999	3	[0, 0, 0]	n/a	FR1	0	R1166D
670.473	0.518	679994	RETRIEVAL_ORIENT	n/a	n/a	n/a	-999	3	[0, 0, 0]	n/a	FR1	0	R1166D
670.991	5.687	680512	REC_START	n/a	n/a	n/a	-999	3	[0, 0, 0]	n/a	FR1	0	R1166D
676.678	24.325	686198	REC_WORD	24.325	n/a	MOTH	8	3	[0, 0, 0]	n/a	FR1	0	R1166D
701.003	5.244	710522	REC_END	n/a	n/a	n/a	-999	3	[0, 0, 0]	n/a	FR1	0	R1166D
706.247	0.5	715766	TRIAL	n/a	n/a	n/a	-999	4	[0, 0, 0]	n/a	FR1	0	R1166D
706.747	10.428	716266	COUNTDOWN_START	n/a	n/a	n/a	-999	4	[0, 0, 0]	n/a	FR1	0	R1166D
717.175	0.007	726693	COUNTDOWN_END	n/a	n/a	n/a	-999	4	[0, 0, 0]	n/a	FR1	0	R1166D
717.182	1.617	726700	ORIENT	n/a	n/a	n/a	-999	4	[0, 0, 0]	n/a	FR1	0	R1166D
718.799	1.984	728317	ORIENT_OFF	n/a	n/a	n/a	-999	4	[0, 0, 0]	n/a	FR1	0	R1166D
720.783	1.616	730301	WORD	n/a	wordpools/wordpool_EN.txt	HAND	1	4	[0, 0, 0]	n/a	FR1	0	R1166D
722.399	0.767	731917	WORD_OFF	n/a	n/a	HAND	1	4	[0, 0, 0]	n/a	FR1	0	R1166D
723.166	1.617	732684	WORD	n/a	wordpools/wordpool_EN.txt	BALL	2	4	[0, 0, 0]	n/a	FR1	0	R1166D
724.783	0.951	734301	WORD_OFF	n/a	n/a	BALL	2	4	[0, 0, 0]	n/a	FR1	0	R1166D
725.734	1.616	735252	WORD	n/a	wordpools/wordpool_EN.txt	VASE	3	4	[0, 0, 0]	n/a	FR1	0	R1166D
727.35	0.784	736867	WORD_OFF	n/a	n/a	VASE	3	4	[0, 0, 0]	n/a	FR1	0	R1166D
728.134	1.618	737651	WORD	n/a	wordpools/wordpool_EN.txt	DIME	4	4	[0, 0, 0]	n/a	FR1	0	R1166D
729.752	0.983	739269	WORD_OFF	n/a	n/a	DIME	4	4	[0, 0, 0]	n/a	FR1	0	R1166D
730.735	1.616	740252	WORD	n/a	wordpools/wordpool_EN.txt	WEED	5	4	[0, 0, 0]	n/a	FR1	0	R1166D
732.351	0.867	741868	WORD_OFF	n/a	n/a	WEED	5	4	[0, 0, 0]	n/a	FR1	0	R1166D
733.218	1.617	742735	WORD	n/a	wordpools/wordpool_EN.txt	FACE	6	4	[0, 0, 0]	n/a	FR1	0	R1166D
734.835	0.934	744352	WORD_OFF	n/a	n/a	FACE	6	4	[0, 0, 0]	n/a	FR1	0	R1166D
735.769	1.617	745286	WORD	n/a	wordpools/wordpool_EN.txt	BENCH	7	4	[0, 0, 0]	n/a	FR1	0	R1166D
737.386	0.85	746903	WORD_OFF	n/a	n/a	BENCH	7	4	[0, 0, 0]	n/a	FR1	0	R1166D
738.236	1.617	747753	WORD	n/a	wordpools/wordpool_EN.txt	PURSE	8	4	[0, 0, 0]	n/a	FR1	0	R1166D
739.853	0.85	749370	WORD_OFF	n/a	n/a	PURSE	8	4	[0, 0, 0]	n/a	FR1	0	R1166D
740.703	1.617	750220	WORD	n/a	wordpools/wordpool_EN.txt	DOOR	9	4	[0, 0, 0]	n/a	FR1	0	R1166D
742.32	0.867	751837	WORD_OFF	n/a	n/a	DOOR	9	4	[0, 0, 0]	n/a	FR1	0	R1166D
743.187	1.617	752704	WORD	n/a	wordpools/wordpool_EN.txt	RUG	10	4	[0, 0, 0]	n/a	FR1	0	R1166D
744.804	0.833	754321	WORD_OFF	n/a	n/a	RUG	10	4	[0, 0, 0]	n/a	FR1	0	R1166D
745.637	1.617	755153	WORD	n/a	wordpools/wordpool_EN.txt	LAWN	11	4	[0, 0, 0]	n/a	FR1	0	R1166D
747.254	0.817	756770	WORD_OFF	n/a	n/a	LAWN	11	4	[0, 0, 0]	n/a	FR1	0	R1166D
748.071	1.617	757587	WORD	n/a	wordpools/wordpool_EN.txt	COUCH	12	4	[0, 0, 0]	n/a	FR1	0	R1166D
749.688	0.0	759204	DISTRACT_START	n/a	n/a	n/a	-999	4	[0, 0, 0]	n/a	FR1	0	R1166D
749.688	0.0	759204	WORD_OFF	n/a	n/a	COUCH	12	4	[0, 0, 0]	n/a	FR1	0	R1166D
749.688	0.016	759204	START	n/a	n/a	n/a	-999	4	[-999, -999, -999]	n/a	FR1	0	R1166D
749.704	19.604	759220	PROB	19.604	n/a	n/a	-999	4	[5, 9, 9]	25	FR1	0	R1166D
769.308	20.111	778823	PROB	20.111	n/a	n/a	-999	4	[6, 9, 2]	17	FR1	0	R1166D
789.419	0.009	798933	STOP	n/a	n/a	n/a	-999	4	[-999, -999, -999]	n/a	FR1	0	R1166D
789.428	0.534	798942	DISTRACT_END	n/a	n/a	n/a	-999	4	[0, 0, 0]	n/a	FR1	0	R1166D
789.962	0.518	799476	RETRIEVAL_ORIENT	n/a	n/a	n/a	-999	4	[0, 0, 0]	n/a	FR1	0	R1166D
790.48	30.0	799994	REC_START	n/a	n/a	n/a	-999	4	[0, 0, 0]	n/a	FR1	0	R1166D
820.48	0.011	829992	REC_WORD_VV	0.011	n/a	<>	-999	4	[0, 0, 0]	n/a	FR1	0	R1166D
820.491	5.644	830003	REC_END	n/a	n/a	n/a	-999	4	[0, 0, 0]	n/a	FR1	0	R1166D
826.135	0.5	835647	TRIAL	n/a	n/a	n/a	-999	5	[0, 0, 0]	n/a	FR1	0	R1166D
826.635	10.428	836147	COUNTDOWN_START	n/a	n/a	n/a	-999	5	[0, 0, 0]	n/a	FR1	0	R1166D
837.063	0.007	846575	COUNTDOWN_END	n/a	n/a	n/a	-999	5	[0, 0, 0]	n/a	FR1	0	R1166D
837.07	1.617	846582	ORIENT	n/a	n/a	n/a	-999	5	[0, 0, 0]	n/a	FR1	0	R1166D
838.687	1.884	848198	ORIENT_OFF	n/a	n/a	n/a	-999	5	[0, 0, 0]	n/a	FR1	0	R1166D
840.571	1.617	850082	WORD	n/a	wordpools/wordpool_EN.txt	TRAY	1	5	[0, 0, 0]	n/a	FR1	0	R1166D
842.188	0.867	851699	WORD_OFF	n/a	n/a	TRAY	1	5	[0, 0, 0]	n/a	FR1	0	R1166D
843.055	1.617	852566	WORD	n/a	wordpools/wordpool_EN.txt	NOSE	2	5	[0, 0, 0]	n/a	FR1	0	R1166D
844.672	0.783	854183	WORD_OFF	n/a	n/a	NOSE	2	5	[0, 0, 0]	n/a	FR1	0	R1166D
845.455	1.617	854966	WORD	n/a	wordpools/wordpool_EN.txt	MOUTH	3	5	[0, 0, 0]	n/a	FR1	0	R1166D
847.072	0.834	856583	WORD_OFF	n/a	n/a	MOUTH	3	5	[0, 0, 0]	n/a	FR1	0	R1166D
847.906	1.617	857417	WORD	n/a	wordpools/wordpool_EN.txt	SOAP	4	5	[0, 0, 0]	n/a	FR1	0	R1166D
849.523	1.0	859034	WORD_OFF	n/a	n/a	SOAP	4	5	[0, 0, 0]	n/a	FR1	0	R1166D
850.523	1.617	860034	WORD	n/a	wordpools/wordpool_EN.txt	TOAST	5	5	[0, 0, 0]	n/a	FR1	0	R1166D
852.14	0.85	861651	WORD_OFF	n/a	n/a	TOAST	5	5	[0, 0, 0]	n/a	FR1	0	R1166D
852.99	1.617	862501	WORD	n/a	wordpools/wordpool_EN.txt	SOUP	6	5	[0, 0, 0]	n/a	FR1	0	R1166D
854.607	0.85	864118	WORD_OFF	n/a	n/a	SOUP	6	5	[0, 0, 0]	n/a	FR1	0	R1166D
855.457	1.617	864968	WORD	n/a	wordpools/wordpool_EN.txt	MUD	7	5	[0, 0, 0]	n/a	FR1	0	R1166D
857.074	0.8	866584	WORD_OFF	n/a	n/a	MUD	7	5	[0, 0, 0]	n/a	FR1	0	R1166D
857.874	1.617	867384	WORD	n/a	wordpools/wordpool_EN.txt	WAND	8	5	[0, 0, 0]	n/a	FR1	0	R1166D
859.491	0.95	869001	WORD_OFF	n/a	n/a	WAND	8	5	[0, 0, 0]	n/a	FR1	0	R1166D
860.441	1.617	869951	WORD	n/a	wordpools/wordpool_EN.txt	DESK	9	5	[0, 0, 0]	n/a	FR1	0	R1166D
862.058	0.767	871568	WORD_OFF	n/a	n/a	DESK	9	5	[0, 0, 0]	n/a	FR1	0	R1166D
862.825	1.617	872335	WORD	n/a	wordpools/wordpool_EN.txt	SINK	10	5	[0, 0, 0]	n/a	FR1	0	R1166D
864.442	1.0	873952	WORD_OFF	n/a	n/a	SINK	10	5	[0, 0, 0]	n/a	FR1	0	R1166D
865.442	1.617	874952	WORD	n/a	wordpools/wordpool_EN.txt	SEAL	11	5	[0, 0, 0]	n/a	FR1	0	R1166D
867.059	0.9	876569	WORD_OFF	n/a	n/a	SEAL	11	5	[0, 0, 0]	n/a	FR1	0	R1166D
867.959	1.617	877469	WORD	n/a	wordpools/wordpool_EN.txt	CHALK	12	5	[0, 0, 0]	n/a	FR1	0	R1166D
869.576	0.0	879086	WORD_OFF	n/a	n/a	CHALK	12	5	[0, 0, 0]	n/a	FR1	0	R1166D
869.576	0.001	879086	DISTRACT_START	n/a	n/a	n/a	-999	5	[0, 0, 0]	n/a	FR1	0	R1166D
869.577	0.016	879087	START	n/a	n/a	n/a	-999	5	[-999, -999, -999]	n/a	FR1	0	R1166D
869.593	4.734	879103	PROB	4.734	n/a	n/a	-999	5	[1, 4, 7]	12	FR1	0	R1166D
874.327	2.534	883837	PROB	2.534	n/a	n/a	-999	5	[1, 2, 2]	5	FR1	0	R1166D
876.861	9.018	886370	PROB	9.018	n/a	n/a	-999	5	[6, 7, 7]	20	FR1	0	R1166D
885.879	8.292	895388	PROB	8.292	n/a	n/a	-999	5	[5, 9, 4]	18	FR1	0	R1166D
894.171	0.01	903679	STOP	n/a	n/a	n/a	-999	5	[-999, -999, -999]	n/a	FR1	0	R1166D
894.181	0.551	903689	DISTRACT_END	n/a	n/a	n/a	-999	5	[0, 0, 0]	n/a	FR1	0	R1166D
894.732	0.516	904240	RETRIEVAL_ORIENT	n/a	n/a	n/a	-999	5	[0, 0, 0]	n/a	FR1	0	R1166D
895.248	5.359	904756	REC_START	n/a	n/a	n/a	-999	5	[0, 0, 0]	n/a	FR1	0	R1166D
900.607	9.94	910115	REC_WORD	9.94	n/a	NOSE	2	5	[0, 0, 0]	n/a	FR1	0	R1166D
910.547	14.712	920055	REC_WORD	14.712	n/a	TREE	-999	5	[0, 0, 0]	n/a	FR1	0	R1166D
925.259	4.428	934766	REC_END	n/a	n/a	n/a	-999	5	[0, 0, 0]	n/a	FR1	0	R1166D
929.687	0.5	939194	TRIAL	n/a	n/a	n/a	-999	6	[0, 0, 0]	n/a	FR1	0	R1166D
930.187	10.428	939693	COUNTDOWN_START	n/a	n/a	n/a	-999	6	[0, 0, 0]	n/a	FR1	0	R1166D
940.615	0.008	950121	COUNTDOWN_END	n/a	n/a	n/a	-999	6	[0, 0, 0]	n/a	FR1	0	R1166D
940.623	1.617	950129	ORIENT	n/a	n/a	n/a	-999	6	[0, 0, 0]	n/a	FR1	0	R1166D
942.24	2.167	951746	ORIENT_OFF	n/a	n/a	n/a	-999	6	[0, 0, 0]	n/a	FR1	0	R1166D
944.407	1.617	953913	WORD	n/a	wordpools/wordpool_EN.txt	GEESE	1	6	[0, 0, 0]	n/a	FR1	0	R1166D
946.024	0.816	955530	WORD_OFF	n/a	n/a	GEESE	1	6	[0, 0, 0]	n/a	FR1	0	R1166D
946.84	1.617	956346	WORD	n/a	wordpools/wordpool_EN.txt	TOY	2	6	[0, 0, 0]	n/a	FR1	0	R1166D
948.457	0.767	957962	WORD_OFF	n/a	n/a	TOY	2	6	[0, 0, 0]	n/a	FR1	0	R1166D
949.224	1.617	958729	WORD	n/a	wordpools/wordpool_EN.txt	ROPE	3	6	[0, 0, 0]	n/a	FR1	0	R1166D
950.841	0.867	960346	WORD_OFF	n/a	n/a	ROPE	3	6	[0, 0, 0]	n/a	FR1	0	R1166D
951.708	1.617	961213	WORD	n/a	wordpools/wordpool_EN.txt	STOVE	4	6	[0, 0, 0]	n/a	FR1	0	R1166D
953.325	0.95	962830	WORD_OFF	n/a	n/a	STOVE	4	6	[0, 0, 0]	n/a	FR1	0	R1166D
954.275	1.617	963780	WORD	n/a	wordpools/wordpool_EN.txt	SUN	5	6	[0, 0, 0]	n/a	FR1	0	R1166D
955.892	1.017	965397	WORD_OFF	n/a	n/a	SUN	5	6	[0, 0, 0]	n/a	FR1	0	R1166D
956.909	1.617	966414	WORD	n/a	wordpools/wordpool_EN.txt	ICE	6	6	[0, 0, 0]	n/a	FR1	0	R1166D
958.526	0.933	968031	WORD_OFF	n/a	n/a	ICE	6	6	[0, 0, 0]	n/a	FR1	0	R1166D
959.459	1.617	968964	WORD	n/a	wordpools/wordpool_EN.txt	PIG	7	6	[0, 0, 0]	n/a	FR1	0	R1166D
961.076	0.967	970581	WORD_OFF	n/a	n/a	PIG	7	6	[0, 0, 0]	n/a	FR1	0	R1166D
962.043	1.617	971548	WORD	n/a	wordpools/wordpool_EN.txt	POND	8	6	[0, 0, 0]	n/a	FR1	0	R1166D
963.66	0.85	973165	WORD_OFF	n/a	n/a	POND	8	6	[0, 0, 0]	n/a	FR1	0	R1166D
964.51	1.617	974015	WORD	n/a	wordpools/wordpool_EN.txt	CAKE	9	6	[0, 0, 0]	n/a	FR1	0	R1166D
966.127	0.834	975632	WORD_OFF	n/a	n/a	CAKE	9	6	[0, 0, 0]	n/a	FR1	0	R1166D
966.961	1.617	976465	WORD	n/a	wordpools/wordpool_EN.txt	WORM	10	6	[0, 0, 0]	n/a	FR1	0	R1166D
968.578	0.867	978082	WORD_OFF	n/a	n/a	WORM	10	6	[0, 0, 0]	n/a	FR1	0	R1166D
969.445	1.616	978949	WORD	n/a	wordpools/wordpool_EN.txt	CART	11	6	[0, 0, 0]	n/a	FR1	0	R1166D
971.061	0.967	980565	WORD_OFF	n/a	n/a	CART	11	6	[0, 0, 0]	n/a	FR1	0	R1166D
972.028	1.617	981532	WORD	n/a	wordpools/wordpool_EN.txt	LIP	12	6	[0, 0, 0]	n/a	FR1	0	R1166D
973.645	0.0	983149	DISTRACT_START	n/a	n/a	n/a	-999	6	[0, 0, 0]	n/a	FR1	0	R1166D
973.645	0.001	983149	WORD_OFF	n/a	n/a	LIP	12	6	[0, 0, 0]	n/a	FR1	0	R1166D
973.646	0.016	983150	START	n/a	n/a	n/a	-999	6	[-999, -999, -999]	n/a	FR1	0	R1166D
973.662	4.968	983166	PROB	4.968	n/a	n/a	-999	6	[2, 1, 2]	5	FR1	0	R1166D
978.63	5.484	988134	PROB	5.484	n/a	n/a	-999	6	[6, 8, 4]	18	FR1	0	R1166D
984.114	4.801	993618	PROB	4.801	n/a	n/a	-999	6	[8, 1, 6]	15	FR1	0	R1166D
988.915	10.953	998418	PROB	10.953	n/a	n/a	-999	6	[8, 9, 5]	21	FR1	0	R1166D
999.868	0.015	1009371	STOP	n/a	n/a	n/a	-999	6	[-999, -999, -999]	n/a	FR1	0	R1166D
999.883	0.684	1009386	DISTRACT_END	n/a	n/a	n/a	-999	6	[0, 0, 0]	n/a	FR1	0	R1166D
1000.567	0.517	1010070	RETRIEVAL_ORIENT	n/a	n/a	n/a	-999	6	[0, 0, 0]	n/a	FR1	0	R1166D
1001.084	15.363	1010587	REC_START	n/a	n/a	n/a	-999	6	[0, 0, 0]	n/a	FR1	0	R1166D
1016.447	14.65	1025949	REC_WORD	14.65	n/a	GEESE	1	6	[0, 0, 0]	n/a	FR1	0	R1166D
1031.097	5.793	1040598	REC_END	n/a	n/a	n/a	-999	6	[0, 0, 0]	n/a	FR1	0	R1166D
1036.89	0.5	1046391	TRIAL	n/a	n/a	n/a	-999	7	[0, 0, 0]	n/a	FR1	0	R1166D
1037.39	10.428	1046891	COUNTDOWN_START	n/a	n/a	n/a	-999	7	[0, 0, 0]	n/a	FR1	0	R1166D
1047.818	0.008	1057318	COUNTDOWN_END	n/a	n/a	n/a	-999	7	[0, 0, 0]	n/a	FR1	0	R1166D
1047.826	1.617	1057326	ORIENT	n/a	n/a	n/a	-999	7	[0, 0, 0]	n/a	FR1	0	R1166D
1049.443	2.35	1058943	ORIENT_OFF	n/a	n/a	n/a	-999	7	[0, 0, 0]	n/a	FR1	0	R1166D
1051.793	1.617	1061293	WORD	n/a	wordpools/wordpool_EN.txt	EEL	1	7	[0, 0, 0]	n/a	FR1	0	R1166D
1053.41	0.9	1062910	WORD_OFF	n/a	n/a	EEL	1	7	[0, 0, 0]	n/a	FR1	0	R1166D
1054.31	1.617	1063810	WORD	n/a	wordpools/wordpool_EN.txt	GLOVE	2	7	[0, 0, 0]	n/a	FR1	0	R1166D
1055.927	0.95	1065427	WORD_OFF	n/a	n/a	GLOVE	2	7	[0, 0, 0]	n/a	FR1	0	R1166D
1056.877	1.617	1066377	WORD	n/a	wordpools/wordpool_EN.txt	LEG	3	7	[0, 0, 0]	n/a	FR1	0	R1166D
1058.494	0.917	1067994	WORD_OFF	n/a	n/a	LEG	3	7	[0, 0, 0]	n/a	FR1	0	R1166D
1059.411	1.617	1068910	WORD	n/a	wordpools/wordpool_EN.txt	BEE	4	7	[0, 0, 0]	n/a	FR1	0	R1166D
1061.028	0.767	1070527	WORD_OFF	n/a	n/a	BEE	4	7	[0, 0, 0]	n/a	FR1	0	R1166D
1061.795	1.617	1071294	WORD	n/a	wordpools/wordpool_EN.txt	THREAD	5	7	[0, 0, 0]	n/a	FR1	0	R1166D
1063.412	0.883	1072911	WORD_OFF	n/a	n/a	THREAD	5	7	[0, 0, 0]	n/a	FR1	0	R1166D
1064.295	1.617	1073794	WORD	n/a	wordpools/wordpool_EN.txt	SHIRT	6	7	[0, 0, 0]	n/a	FR1	0	R1166D
1065.912	0.884	1075411	WORD_OFF	n/a	n/a	SHIRT	6	7	[0, 0, 0]	n/a	FR1	0	R1166D
1066.796	1.617	1076295	WORD	n/a	wordpools/wordpool_EN.txt	JAR	7	7	[0, 0, 0]	n/a	FR1	0	R1166D
1068.413	0.966	1077912	WORD_OFF	n/a	n/a	JAR	7	7	[0, 0, 0]	n/a	FR1	0	R1166D
1069.379	1.617	1078878	WORD	n/a	wordpools/wordpool_EN.txt	SKUNK	8	7	[0, 0, 0]	n/a	FR1	0	R1166D
1070.996	0.967	1080495	WORD_OFF	n/a	n/a	SKUNK	8	7	[0, 0, 0]	n/a	FR1	0	R1166D
1071.963	1.617	1081462	WORD	n/a	wordpools/wordpool_EN.txt	FOAM	9	7	[0, 0, 0]	n/a	FR1	0	R1166D
1073.58	0.934	1083079	WORD_OFF	n/a	n/a	FOAM	9	7	[0, 0, 0]	n/a	FR1	0	R1166D
1074.514	1.617	1084013	WORD	n/a	wordpools/wordpool_EN.txt	WEB	10	7	[0, 0, 0]	n/a	FR1	0	R1166D
1076.131	0.766	1085630	WORD_OFF	n/a	n/a	WEB	10	7	[0, 0, 0]	n/a	FR1	0	R1166D
1076.897	1.617	1086396	WORD	n/a	wordpools/wordpool_EN.txt	DITCH	11	7	[0, 0, 0]	n/a	FR1	0	R1166D
1078.514	0.834	1088012	WORD_OFF	n/a	n/a	DITCH	11	7	[0, 0, 0]	n/a	FR1	0	R1166D
1079.348	1.617	1088846	WORD	n/a	wordpools/wordpool_EN.txt	LAMP	12	7	[0, 0, 0]	n/a	FR1	0	R1166D
1080.965	0.0	1090463	WORD_OFF	n/a	n/a	LAMP	12	7	[0, 0, 0]	n/a	FR1	0	R1166D
1080.965	0.0	1090463	DISTRACT_START	n/a	n/a	n/a	-999	7	[0, 0, 0]	n/a	FR1	0	R1166D
1080.965	0.017	1090463	START	n/a	n/a	n/a	-999	7	[-999, -999, -999]	n/a	FR1	0	R1166D
1080.982	4.434	1090480	PROB	4.434	n/a	n/a	-999	7	[1, 3, 5]	9	FR1	0	R1166D
1085.416	4.784	1094914	PROB	4.784	n/a	n/a	-999	7	[5, 5, 8]	18	FR1	0	R1166D
1090.2	4.601	1099698	PROB	4.601	n/a	n/a	-999	7	[8, 6, 2]	16	FR1	0	R1166D
1094.801	2.484	1104299	PROB	2.484	n/a	n/a	-999	7	[1, 1, 4]	6	FR1	0	R1166D
1097.285	3.6	1106782	PROB	3.6	n/a	n/a	-999	7	[9, 3, 1]	13	FR1	0	R1166D
1100.885	16.814	1110382	PROB	16.814	n/a	n/a	-999	7	[6, 7, 8]	21	FR1	0	R1166D
1117.699	0.006	1127195	STOP	n/a	n/a	n/a	-999	7	[-999, -999, -999]	n/a	FR1	0	R1166D
1117.705	0.65	1127201	DISTRACT_END	n/a	n/a	n/a	-999	7	[0, 0, 0]	n/a	FR1	0	R1166D
1118.355	0.517	1127851	RETRIEVAL_ORIENT	n/a	n/a	n/a	-999	7	[0, 0, 0]	n/a	FR1	0	R1166D
1118.872	30.0	1128368	REC_START	n/a	n/a	n/a	-999	7	[0, 0, 0]	n/a	FR1	0	R1166D
1148.872	0.014	1158367	REC_WORD_VV	0.014	n/a	<>	-999	7	[0, 0, 0]	n/a	FR1	0	R1166D
1148.886	9.843	1158381	REC_END	n/a	n/a	n/a	-999	7	[0, 0, 0]	n/a	FR1	0	R1166D
1158.729	0.5	1168223	TRIAL	n/a	n/a	n/a	-999	8	[0, 0, 0]	n/a	FR1	0	R1166D
1159.229	10.428	1168723	COUNTDOWN_START	n/a	n/a	n/a	-999	8	[0, 0, 0]	n/a	FR1	0	R1166D
1169.657	0.007	1179150	COUNTDOWN_END	n/a	n/a	n/a	-999	8	[0, 0, 0]	n/a	FR1	0	R1166D
1169.664	1.617	1179157	ORIENT	n/a	n/a	n/a	-999	8	[0, 0, 0]	n/a	FR1	0	R1166D
1171.281	2.134	1180774	ORIENT_OFF	n/a	n/a	n/a	-999	8	[0, 0, 0]	n/a	FR1	0	R1166D
1173.415	1.617	1182908	WORD	n/a	wordpools/wordpool_EN.txt	STREET	1	8	[0, 0, 0]	n/a	FR1	0	R1166D
1175.032	0.917	1184525	WORD_OFF	n/a	n/a	STREET	1	8	[0, 0, 0]	n/a	FR1	0	R1166D
1175.949	1.617	1185442	WORD	n/a	wordpools/wordpool_EN.txt	TENT	2	8	[0, 0, 0]	n/a	FR1	0	R1166D
1177.566	0.8	1187059	WORD_OFF	n/a	n/a	TENT	2	8	[0, 0, 0]	n/a	FR1	0	R1166D
1178.366	1.617	1187859	WORD	n/a	wordpools/wordpool_EN.txt	FUR	3	8	[0, 0, 0]	n/a	FR1	0	R1166D
1179.983	0.833	1189476	WORD_OFF	n/a	n/a	FUR	3	8	[0, 0, 0]	n/a	FR1	0	R1166D
1180.816	1.617	1190309	WORD	n/a	wordpools/wordpool_EN.txt	CALF	4	8	[0, 0, 0]	n/a	FR1	0	R1166D
1182.433	0.817	1191926	WORD_OFF	n/a	n/a	CALF	4	8	[0, 0, 0]	n/a	FR1	0	R1166D
1183.25	1.617	1192743	WORD	n/a	wordpools/wordpool_EN.txt	HEN	5	8	[0, 0, 0]	n/a	FR1	0	R1166D
1184.867	0.834	1194360	WORD_OFF	n/a	n/a	HEN	5	8	[0, 0, 0]	n/a	FR1	0	R1166D
1185.701	1.617	1195194	WORD	n/a	wordpools/wordpool_EN.txt	BED	6	8	[0, 0, 0]	n/a	FR1	0	R1166D
1187.318	0.766	1196811	WORD_OFF	n/a	n/a	BED	6	8	[0, 0, 0]	n/a	FR1	0	R1166D
1188.084	1.617	1197576	WORD	n/a	wordpools/wordpool_EN.txt	KITE	7	8	[0, 0, 0]	n/a	FR1	0	R1166D
1189.701	1.001	1199193	WORD_OFF	n/a	n/a	KITE	7	8	[0, 0, 0]	n/a	FR1	0	R1166D
1190.702	1.617	1200194	WORD	n/a	wordpools/wordpool_EN.txt	BEAR	8	8	[0, 0, 0]	n/a	FR1	0	R1166D
1192.319	0.966	1201811	WORD_OFF	n/a	n/a	BEAR	8	8	[0, 0, 0]	n/a	FR1	0	R1166D
1193.285	1.617	1202777	WORD	n/a	wordpools/wordpool_EN.txt	SHEEP	9	8	[0, 0, 0]	n/a	FR1	0	R1166D
1194.902	1.001	1204394	WORD_OFF	n/a	n/a	SHEEP	9	8	[0, 0, 0]	n/a	FR1	0	R1166D
1195.903	1.617	1205395	WORD	n/a	wordpools/wordpool_EN.txt	ZOO	10	8	[0, 0, 0]	n/a	FR1	0	R1166D
1197.52	1.016	1207012	WORD_OFF	n/a	n/a	ZOO	10	8	[0, 0, 0]	n/a	FR1	0	R1166D
1198.536	1.617	1208028	WORD	n/a	wordpools/wordpool_EN.txt	CLOWN	11	8	[0, 0, 0]	n/a	FR1	0	R1166D
1200.153	0.867	1209645	WORD_OFF	n/a	n/a	CLOWN	11	8	[0, 0, 0]	n/a	FR1	0	R1166D
1201.02	1.617	1210512	WORD	n/a	wordpools/wordpool_EN.txt	BOY	12	8	[0, 0, 0]	n/a	FR1	0	R1166D
1202.637	0.0	1212129	WORD_OFF	n/a	n/a	BOY	12	8	[0, 0, 0]	n/a	FR1	0	R1166D
1202.637	0.001	1212129	DISTRACT_START	n/a	n/a	n/a	-999	8	[0, 0, 0]	n/a	FR1	0	R1166D
1202.638	0.016	1212130	START	n/a	n/a	n/a	-999	8	[-999, -999, -999]	n/a	FR1	0	R1166D
1202.654	6.351	1212146	PROB	6.351	n/a	n/a	-999	8	[9, 5, 2]	16	FR1	0	R1166D
1209.005	14.784	1218496	PROB	14.784	n/a	n/a	-999	8	[8, 1, 1]	10	FR1	0	R1166D
1223.789	0.019	1233280	STOP	n/a	n/a	n/a	-999	8	[-999, -999, -999]	n/a	FR1	0	R1166D
1223.808	0.583	1233299	DISTRACT_END	n/a	n/a	n/a	-999	8	[0, 0, 0]	n/a	FR1	0	R1166D
1224.391	0.518	1233882	RETRIEVAL_ORIENT	n/a	n/a	n/a	-999	8	[0, 0, 0]	n/a	FR1	0	R1166D
1224.909	1.876	1234399	REC_START	n/a	n/a	n/a	-999	8	[0, 0, 0]	n/a	FR1	0	R1166D
1226.785	13.485	1236275	REC_WORD	13.485	n/a	STREET	1	8	[0, 0, 0]	n/a	FR1	0	R1166D
1240.27	8.01	1249760	REC_WORD	8.01	n/a	BEAR	8	8	[0, 0, 0]	n/a	FR1	0	R1166D
1248.28	6.641	1257769	REC_WORD	6.641	n/a	FUR	3	8	[0, 0, 0]	n/a	FR1	0	R1166D
1254.921	154.47	1264410	REC_END	n/a	n/a	n/a	-999	8	[0, 0, 0]	n/a	FR1	0	R1166D
1409.391	0.5	1418871	TRIAL	n/a	n/a	n/a	-999	9	[0, 0, 0]	n/a	FR1	0	R1166D
1409.891	10.428	1419371	COUNTDOWN_START	n/a	n/a	n/a	-999	9	[0, 0, 0]	n/a	FR1	0	R1166D
1420.319	0.008	1429799	COUNTDOWN_END	n/a	n/a	n/a	-999	9	[0, 0, 0]	n/a	FR1	0	R1166D
1420.327	1.617	1429807	ORIENT	n/a	n/a	n/a	-999	9	[0, 0, 0]	n/a	FR1	0	R1166D
1421.944	1.883	1431424	ORIENT_OFF	n/a	n/a	n/a	-999	9	[0, 0, 0]	n/a	FR1	0	R1166D
1423.827	1.617	1433307	WORD	n/a	wordpools/wordpool_EN.txt	OWL	1	9	[0, 0, 0]	n/a	FR1	0	R1166D
1425.444	0.867	1434924	WORD_OFF	n/a	n/a	OWL	1	9	[0, 0, 0]	n/a	FR1	0	R1166D
1426.311	1.617	1435791	WORD	n/a	wordpools/wordpool_EN.txt	MOUSE	2	9	[0, 0, 0]	n/a	FR1	0	R1166D
1427.928	0.884	1437407	WORD_OFF	n/a	n/a	MOUSE	2	9	[0, 0, 0]	n/a	FR1	0	R1166D
1428.812	1.617	1438291	WORD	n/a	wordpools/wordpool_EN.txt	ANT	3	9	[0, 0, 0]	n/a	FR1	0	R1166D
1430.429	0.95	1439908	WORD_OFF	n/a	n/a	ANT	3	9	[0, 0, 0]	n/a	FR1	0	R1166D
1431.379	1.617	1440858	WORD	n/a	wordpools/wordpool_EN.txt	NEST	4	9	[0, 0, 0]	n/a	FR1	0	R1166D
1432.996	0.883	1442475	WORD_OFF	n/a	n/a	NEST	4	9	[0, 0, 0]	n/a	FR1	0	R1166D
1433.879	1.617	1443358	WORD	n/a	wordpools/wordpool_EN.txt	BEAN	5	9	[0, 0, 0]	n/a	FR1	0	R1166D
1435.496	0.817	1444975	WORD_OFF	n/a	n/a	BEAN	5	9	[0, 0, 0]	n/a	FR1	0	R1166D
1436.313	1.617	1445792	WORD	n/a	wordpools/wordpool_EN.txt	WOLF	6	9	[0, 0, 0]	n/a	FR1	0	R1166D
1437.93	0.917	1447409	WORD_OFF	n/a	n/a	WOLF	6	9	[0, 0, 0]	n/a	FR1	0	R1166D
1438.847	1.617	1448326	WORD	n/a	wordpools/wordpool_EN.txt	FLEA	7	9	[0, 0, 0]	n/a	FR1	0	R1166D
1440.464	0.967	1449943	WORD_OFF	n/a	n/a	FLEA	7	9	[0, 0, 0]	n/a	FR1	0	R1166D
1441.431	1.617	1450910	WORD	n/a	wordpools/wordpool_EN.txt	LAMB	8	9	[0, 0, 0]	n/a	FR1	0	R1166D
1443.048	0.933	1452527	WORD_OFF	n/a	n/a	LAMB	8	9	[0, 0, 0]	n/a	FR1	0	R1166D
1443.981	1.617	1453460	WORD	n/a	wordpools/wordpool_EN.txt	DOG	9	9	[0, 0, 0]	n/a	FR1	0	R1166D
1445.598	0.85	1455077	WORD_OFF	n/a	n/a	DOG	9	9	[0, 0, 0]	n/a	FR1	0	R1166D
1446.448	1.617	1455926	WORD	n/a	wordpools/wordpool_EN.txt	SNAIL	10	9	[0, 0, 0]	n/a	FR1	0	R1166D
1448.065	0.95	1457543	WORD_OFF	n/a	n/a	SNAIL	10	9	[0, 0, 0]	n/a	FR1	0	R1166D
1449.015	1.617	1458493	WORD	n/a	wordpools/wordpool_EN.txt	FOX	11	9	[0, 0, 0]	n/a	FR1	0	R1166D
1450.632	0.934	1460110	WORD_OFF	n/a	n/a	FOX	11	9	[0, 0, 0]	n/a	FR1	0	R1166D
1451.566	1.617	1461044	WORD	n/a	wordpools/wordpool_EN.txt	ARK	12	9	[0, 0, 0]	n/a	FR1	0	R1166D
1453.183	0.0	1462661	WORD_OFF	n/a	n/a	ARK	12	9	[0, 0, 0]	n/a	FR1	0	R1166D
1453.183	0.0	1462661	DISTRACT_START	n/a	n/a	n/a	-999	9	[0, 0, 0]	n/a	FR1	0	R1166D
1453.183	0.017	1462661	START	n/a	n/a	n/a	-999	9	[-999, -999, -999]	n/a	FR1	0	R1166D
1453.2	8.851	1462678	PROB	8.851	n/a	n/a	-999	9	[6, 1, 8]	15	FR1	0	R1166D
1462.051	45.84	1471529	PROB	45.84	n/a	n/a	-999	9	[4, 8, 9]	23	FR1	0	R1166D
1507.891	0.018	1517366	STOP	n/a	n/a	n/a	-999	9	[-999, -999, -999]	n/a	FR1	0	R1166D
1507.909	0.717	1517384	DISTRACT_END	n/a	n/a	n/a	-999	9	[0, 0, 0]	n/a	FR1	0	R1166D
1508.626	0.518	1518101	RETRIEVAL_ORIENT	n/a	n/a	n/a	-999	9	[0, 0, 0]	n/a	FR1	0	R1166D
1509.144	5.218	1518619	REC_START	n/a	n/a	n/a	-999	9	[0, 0, 0]	n/a	FR1	0	R1166D
1514.362	3.286	1523837	REC_WORD	3.286	n/a	DOG	9	9	[0, 0, 0]	n/a	FR1	0	R1166D
1517.648	8.36	1527123	REC_WORD	8.36	n/a	SNAIL	10	9	[0, 0, 0]	n/a	FR1	0	R1166D
1526.008	13.111	1535482	REC_WORD	13.111	n/a	OWL	1	9	[0, 0, 0]	n/a	FR1	0	R1166D
1539.119	0.037	1548592	REC_WORD	0.037	n/a	FOX	11	9	[0, 0, 0]	n/a	FR1	0	R1166D
1539.156	5.944	1548629	REC_END	n/a	n/a	n/a	-999	9	[0, 0, 0]	n/a	FR1	0	R1166D
1545.1	0.5	1554573	TRIAL	n/a	n/a	n/a	-999	10	[0, 0, 0]	n/a	FR1	0	R1166D
1545.6	10.428	1555073	COUNTDOWN_START	n/a	n/a	n/a	-999	10	[0, 0, 0]	n/a	FR1	0	R1166D
1556.028	0.007	1565501	COUNTDOWN_END	n/a	n/a	n/a	-999	10	[0, 0, 0]	n/a	FR1	0	R1166D
1556.035	1.617	1565508	ORIENT	n/a	n/a	n/a	-999	10	[0, 0, 0]	n/a	FR1	0	R1166D
1557.652	2.117	1567124	ORIENT_OFF	n/a	n/a	n/a	-999	10	[0, 0, 0]	n/a	FR1	0	R1166D
1559.769	1.617	1569241	WORD	n/a	wordpools/wordpool_EN.txt	BATH	1	10	[0, 0, 0]	n/a	FR1	0	R1166D
1561.386	0.817	1570858	WORD_OFF	n/a	n/a	BATH	1	10	[0, 0, 0]	n/a	FR1	0	R1166D
1562.203	1.617	1571675	WORD	n/a	wordpools/wordpool_EN.txt	HOUSE	2	10	[0, 0, 0]	n/a	FR1	0	R1166D
1563.82	0.783	1573292	WORD_OFF	n/a	n/a	HOUSE	2	10	[0, 0, 0]	n/a	FR1	0	R1166D
1564.603	1.617	1574075	WORD	n/a	wordpools/wordpool_EN.txt	YARD	3	10	[0, 0, 0]	n/a	FR1	0	R1166D
1566.22	0.934	1575692	WORD_OFF	n/a	n/a	YARD	3	10	[0, 0, 0]	n/a	FR1	0	R1166D
1567.154	1.617	1576626	WORD	n/a	wordpools/wordpool_EN.txt	STICK	4	10	[0, 0, 0]	n/a	FR1	0	R1166D
1568.771	0.933	1578243	WORD_OFF	n/a	n/a	STICK	4	10	[0, 0, 0]	n/a	FR1	0	R1166D
1569.704	1.617	1579176	WORD	n/a	wordpools/wordpool_EN.txt	DRESS	5	10	[0, 0, 0]	n/a	FR1	0	R1166D
1571.321	0.85	1580793	WORD_OFF	n/a	n/a	DRESS	5	10	[0, 0, 0]	n/a	FR1	0	R1166D
1572.171	1.617	1581643	WORD	n/a	wordpools/wordpool_EN.txt	ROOM	6	10	[0, 0, 0]	n/a	FR1	0	R1166D
1573.788	0.784	1583260	WORD_OFF	n/a	n/a	ROOM	6	10	[0, 0, 0]	n/a	FR1	0	R1166D
1574.572	1.617	1584044	WORD	n/a	wordpools/wordpool_EN.txt	SOCK	7	10	[0, 0, 0]	n/a	FR1	0	R1166D
1576.189	0.933	1585660	WORD_OFF	n/a	n/a	SOCK	7	10	[0, 0, 0]	n/a	FR1	0	R1166D
1577.122	1.618	1586593	WORD	n/a	wordpools/wordpool_EN.txt	SUIT	8	10	[0, 0, 0]	n/a	FR1	0	R1166D
1578.74	0.783	1588211	WORD_OFF	n/a	n/a	SUIT	8	10	[0, 0, 0]	n/a	FR1	0	R1166D
1579.523	1.616	1588994	WORD	n/a	wordpools/wordpool_EN.txt	ARM	9	10	[0, 0, 0]	n/a	FR1	0	R1166D
1581.139	0.901	1590610	WORD_OFF	n/a	n/a	ARM	9	10	[0, 0, 0]	n/a	FR1	0	R1166D
1582.04	1.617	1591511	WORD	n/a	wordpools/wordpool_EN.txt	APE	10	10	[0, 0, 0]	n/a	FR1	0	R1166D
1583.657	0.816	1593128	WORD_OFF	n/a	n/a	APE	10	10	[0, 0, 0]	n/a	FR1	0	R1166D
1584.473	1.617	1593944	WORD	n/a	wordpools/wordpool_EN.txt	MAT	11	10	[0, 0, 0]	n/a	FR1	0	R1166D
1586.09	0.917	1595561	WORD_OFF	n/a	n/a	MAT	11	10	[0, 0, 0]	n/a	FR1	0	R1166D
1587.007	1.617	1596478	WORD	n/a	wordpools/wordpool_EN.txt	BAG	12	10	[0, 0, 0]	n/a	FR1	0	R1166D
1588.624	0.0	1598095	DISTRACT_START	n/a	n/a	n/a	-999	10	[0, 0, 0]	n/a	FR1	0	R1166D
1588.624	0.001	1598095	WORD_OFF	n/a	n/a	BAG	12	10	[0, 0, 0]	n/a	FR1	0	R1166D
1588.625	0.016	1598096	START	n/a	n/a	n/a	-999	10	[-999, -999, -999]	n/a	FR1	0	R1166D
1588.641	6.868	1598112	PROB	6.868	n/a	n/a	-999	10	[4, 2, 5]	11	FR1	0	R1166D
1595.509	5.668	1604979	PROB	5.668	n/a	n/a	-999	10	[5, 1, 4]	10	FR1	0	R1166D
1601.177	3.984	1610647	PROB	3.984	n/a	n/a	-999	10	[5, 2, 6]	13	FR1	0	R1166D
1605.161	5.027	1614631	PROB	5.027	n/a	n/a	-999	10	[8, 6, 4]	18	FR1	0	R1166D
1610.188	0.007	1619658	STOP	n/a	n/a	n/a	-999	10	[-999, -999, -999]	n/a	FR1	0	R1166D
1610.195	0.6	1619665	DISTRACT_END	n/a	n/a	n/a	-999	10	[0, 0, 0]	n/a	FR1	0	R1166D
1610.795	0.517	1620265	RETRIEVAL_ORIENT	n/a	n/a	n/a	-999	10	[0, 0, 0]	n/a	FR1	0	R1166D
1611.312	30.0	1620782	REC_START	n/a	n/a	n/a	-999	10	[0, 0, 0]	n/a	FR1	0	R1166D
1641.312	0.015	1650780	REC_WORD_VV	0.015	n/a	<>	-999	10	[0, 0, 0]	n/a	FR1	0	R1166D
1641.327	5.758	1650795	REC_END	n/a	n/a	n/a	-999	10	[0, 0, 0]	n/a	FR1	0	R1166D
1647.085	0.5	1656553	TRIAL	n/a	n/a	n/a	-999	11	[0, 0, 0]	n/a	FR1	0	R1166D
1647.585	10.428	1657053	COUNTDOWN_START	n/a	n/a	n/a	-999	11	[0, 0, 0]	n/a	FR1	0	R1166D
1658.013	0.007	1667480	COUNTDOWN_END	n/a	n/a	n/a	-999	11	[0, 0, 0]	n/a	FR1	0	R1166D
1658.02	1.617	1667487	ORIENT	n/a	n/a	n/a	-999	11	[0, 0, 0]	n/a	FR1	0	R1166D
1659.637	1.867	1669104	ORIENT_OFF	n/a	n/a	n/a	-999	11	[0, 0, 0]	n/a	FR1	0	R1166D
1661.504	1.617	1670971	WORD	n/a	wordpools/wordpool_EN.txt	FUDGE	1	11	[0, 0, 0]	n/a	FR1	0	R1166D
1663.121	0.984	1672588	WORD_OFF	n/a	n/a	FUDGE	1	11	[0, 0, 0]	n/a	FR1	0	R1166D
1664.105	1.617	1673572	WORD	n/a	wordpools/wordpool_EN.txt	TOE	2	11	[0, 0, 0]	n/a	FR1	0	R1166D
1665.722	0.9	1675189	WORD_OFF	n/a	n/a	TOE	2	11	[0, 0, 0]	n/a	FR1	0	R1166D
1666.622	1.617	1676089	WORD	n/a	wordpools/wordpool_EN.txt	SKY	3	11	[0, 0, 0]	n/a	FR1	0	R1166D
1668.239	0.783	1677705	WORD_OFF	n/a	n/a	SKY	3	11	[0, 0, 0]	n/a	FR1	0	R1166D
1669.022	1.617	1678488	WORD	n/a	wordpools/wordpool_EN.txt	PEACH	4	11	[0, 0, 0]	n/a	FR1	0	R1166D
1670.639	0.934	1680105	WORD_OFF	n/a	n/a	PEACH	4	11	[0, 0, 0]	n/a	FR1	0	R1166D
1671.573	1.617	1681039	WORD	n/a	wordpools/wordpool_EN.txt	CHEEK	5	11	[0, 0, 0]	n/a	FR1	0	R1166D
1673.19	0.95	1682656	WORD_OFF	n/a	n/a	CHEEK	5	11	[0, 0, 0]	n/a	FR1	0	R1166D
1674.14	1.618	1683606	WORD	n/a	wordpools/wordpool_EN.txt	BROOM	6	11	[0, 0, 0]	n/a	FR1	0	R1166D
1675.758	0.799	1685224	WORD_OFF	n/a	n/a	BROOM	6	11	[0, 0, 0]	n/a	FR1	0	R1166D
1676.557	1.617	1686023	WORD	n/a	wordpools/wordpool_EN.txt	PIN	7	11	[0, 0, 0]	n/a	FR1	0	R1166D
1678.174	0.967	1687640	WORD_OFF	n/a	n/a	PIN	7	11	[0, 0, 0]	n/a	FR1	0	R1166D
1679.141	1.618	1688607	WORD	n/a	wordpools/wordpool_EN.txt	GRASS	8	11	[0, 0, 0]	n/a	FR1	0	R1166D
1680.759	0.832	1690225	WORD_OFF	n/a	n/a	GRASS	8	11	[0, 0, 0]	n/a	FR1	0	R1166D
1681.591	1.617	1691057	WORD	n/a	wordpools/wordpool_EN.txt	FLOOR	9	11	[0, 0, 0]	n/a	FR1	0	R1166D
1683.208	0.917	1692674	WORD_OFF	n/a	n/a	FLOOR	9	11	[0, 0, 0]	n/a	FR1	0	R1166D
1684.125	1.618	1693591	WORD	n/a	wordpools/wordpool_EN.txt	DOLL	10	11	[0, 0, 0]	n/a	FR1	0	R1166D
1685.743	0.832	1695208	WORD_OFF	n/a	n/a	DOLL	10	11	[0, 0, 0]	n/a	FR1	0	R1166D
1686.575	1.617	1696040	WORD	n/a	wordpools/wordpool_EN.txt	CAGE	11	11	[0, 0, 0]	n/a	FR1	0	R1166D
1688.192	0.951	1697657	WORD_OFF	n/a	n/a	CAGE	11	11	[0, 0, 0]	n/a	FR1	0	R1166D
1689.143	1.618	1698608	WORD	n/a	wordpools/wordpool_EN.txt	SHOE	12	11	[0, 0, 0]	n/a	FR1	0	R1166D
1690.761	0.0	1700226	WORD_OFF	n/a	n/a	SHOE	12	11	[0, 0, 0]	n/a	FR1	0	R1166D
1690.761	0.0	1700226	DISTRACT_START	n/a	n/a	n/a	-999	11	[0, 0, 0]	n/a	FR1	0	R1166D
1690.761	0.015	1700226	START	n/a	n/a	n/a	-999	11	[-999, -999, -999]	n/a	FR1	0	R1166D
1690.776	6.351	1700241	PROB	6.351	n/a	n/a	-999	11	[4, 4, 7]	18	FR1	0	R1166D
1697.127	12.169	1706592	PROB	12.169	n/a	n/a	-999	11	[8, 5, 9]	22	FR1	0	R1166D
1709.296	4.828	1718760	PROB	4.828	n/a	n/a	-999	11	[2, 3, 5]	10	FR1	0	R1166D
1714.124	0.006	1723588	STOP	n/a	n/a	n/a	-999	11	[-999, -999, -999]	n/a	FR1	0	R1166D
1714.13	0.618	1723594	DISTRACT_END	n/a	n/a	n/a	-999	11	[0, 0, 0]	n/a	FR1	0	R1166D
1714.748	0.517	1724212	RETRIEVAL_ORIENT	n/a	n/a	n/a	-999	11	[0, 0, 0]	n/a	FR1	0	R1166D
1715.265	4.097	1724729	REC_START	n/a	n/a	n/a	-999	11	[0, 0, 0]	n/a	FR1	0	R1166D
1719.362	25.915	1728826	REC_WORD	25.915	n/a	SKY	3	11	[0, 0, 0]	n/a	FR1	0	R1166D
1745.277	14.545	1754739	REC_END	n/a	n/a	n/a	-999	11	[0, 0, 0]	n/a	FR1	0	R1166D
1759.822	0.5	1769283	TRIAL	n/a	n/a	n/a	-999	12	[0, 0, 0]	n/a	FR1	0	R1166D
1760.322	10.428	1769783	COUNTDOWN_START	n/a	n/a	n/a	-999	12	[0, 0, 0]	n/a	FR1	0	R1166D
1770.75	0.008	1780211	COUNTDOWN_END	n/a	n/a	n/a	-999	12	[0, 0, 0]	n/a	FR1	0	R1166D
1770.758	1.617	1780219	ORIENT	n/a	n/a	n/a	-999	12	[0, 0, 0]	n/a	FR1	0	R1166D
1772.375	2.117	1781836	ORIENT_OFF	n/a	n/a	n/a	-999	12	[0, 0, 0]	n/a	FR1	0	R1166D
1774.492	1.616	1783953	WORD	n/a	wordpools/wordpool_EN.txt	STAR	1	12	[0, 0, 0]	n/a	FR1	0	R1166D
1776.108	0.901	1785569	WORD_OFF	n/a	n/a	STAR	1	12	[0, 0, 0]	n/a	FR1	0	R1166D
1777.009	1.617	1786470	WORD	n/a	wordpools/wordpool_EN.txt	BLUSH	2	12	[0, 0, 0]	n/a	FR1	0	R1166D
1778.626	0.866	1788086	WORD_OFF	n/a	n/a	BLUSH	2	12	[0, 0, 0]	n/a	FR1	0	R1166D
1779.492	1.617	1788952	WORD	n/a	wordpools/wordpool_EN.txt	CASH	3	12	[0, 0, 0]	n/a	FR1	0	R1166D
1781.109	0.817	1790569	WORD_OFF	n/a	n/a	CASH	3	12	[0, 0, 0]	n/a	FR1	0	R1166D
1781.926	1.617	1791386	WORD	n/a	wordpools/wordpool_EN.txt	BRICK	4	12	[0, 0, 0]	n/a	FR1	0	R1166D
1783.543	0.834	1793003	WORD_OFF	n/a	n/a	BRICK	4	12	[0, 0, 0]	n/a	FR1	0	R1166D
1784.377	1.617	1793837	WORD	n/a	wordpools/wordpool_EN.txt	SHEET	5	12	[0, 0, 0]	n/a	FR1	0	R1166D
1785.994	0.9	1795454	WORD_OFF	n/a	n/a	SHEET	5	12	[0, 0, 0]	n/a	FR1	0	R1166D
1786.894	1.617	1796354	WORD	n/a	wordpools/wordpool_EN.txt	MAP	6	12	[0, 0, 0]	n/a	FR1	0	R1166D
1788.511	0.783	1797971	WORD_OFF	n/a	n/a	MAP	6	12	[0, 0, 0]	n/a	FR1	0	R1166D
1789.294	1.617	1798754	WORD	n/a	wordpools/wordpool_EN.txt	NET	7	12	[0, 0, 0]	n/a	FR1	0	R1166D
1790.911	0.8	1800371	WORD_OFF	n/a	n/a	NET	7	12	[0, 0, 0]	n/a	FR1	0	R1166D
1791.711	1.617	1801171	WORD	n/a	wordpools/wordpool_EN.txt	BAT	8	12	[0, 0, 0]	n/a	FR1	0	R1166D
1793.328	0.817	1802788	WORD_OFF	n/a	n/a	BAT	8	12	[0, 0, 0]	n/a	FR1	0	R1166D
1794.145	1.601	1803605	WORD	n/a	wordpools/wordpool_EN.txt	JUDGE	9	12	[0, 0, 0]	n/a	FR1	0	R1166D
1795.746	0.799	1805206	WORD_OFF	n/a	n/a	JUDGE	9	12	[0, 0, 0]	n/a	FR1	0	R1166D
1796.545	1.617	1806004	WORD	n/a	wordpools/wordpool_EN.txt	ROAD	10	12	[0, 0, 0]	n/a	FR1	0	R1166D
1798.162	0.817	1807621	WORD_OFF	n/a	n/a	ROAD	10	12	[0, 0, 0]	n/a	FR1	0	R1166D
1798.979	1.617	1808438	WORD	n/a	wordpools/wordpool_EN.txt	BANK	11	12	[0, 0, 0]	n/a	FR1	0	R1166D
1800.596	0.884	1810055	WORD_OFF	n/a	n/a	BANK	11	12	[0, 0, 0]	n/a	FR1	0	R1166D
1801.48	1.617	1810939	WORD	n/a	wordpools/wordpool_EN.txt	FILM	12	12	[0, 0, 0]	n/a	FR1	0	R1166D
1803.097	0.0	1812556	WORD_OFF	n/a	n/a	FILM	12	12	[0, 0, 0]	n/a	FR1	0	R1166D
1803.097	0.0	1812556	DISTRACT_START	n/a	n/a	n/a	-999	12	[0, 0, 0]	n/a	FR1	0	R1166D
1803.097	0.016	1812556	START	n/a	n/a	n/a	-999	12	[-999, -999, -999]	n/a	FR1	0	R1166D
1803.113	4.918	1812572	PROB	4.918	n/a	n/a	-999	12	[4, 2, 6]	12	FR1	0	R1166D
1808.031	20.34	1817490	PROB	20.34	n/a	n/a	-999	12	[7, 4, 8]	19	FR1	0	R1166D
1828.371	0.014	1837829	STOP	n/a	n/a	n/a	-999	12	[-999, -999, -999]	n/a	FR1	0	R1166D
1828.385	0.65	1837843	DISTRACT_END	n/a	n/a	n/a	-999	12	[0, 0, 0]	n/a	FR1	0	R1166D
1829.035	0.517	1838493	RETRIEVAL_ORIENT	n/a	n/a	n/a	-999	12	[0, 0, 0]	n/a	FR1	0	R1166D
1829.552	2.376	1839010	REC_START	n/a	n/a	n/a	-999	12	[0, 0, 0]	n/a	FR1	0	R1166D
1831.928	27.638	1841386	REC_WORD	27.638	n/a	VET	-999	12	[0, 0, 0]	n/a	FR1	0	R1166D
1859.566	5.692	1869022	REC_END	n/a	n/a	n/a	-999	12	[0, 0, 0]	n/a	FR1	0	R1166D
1865.258	0.5	1874714	TRIAL	n/a	n/a	n/a	-999	13	[0, 0, 0]	n/a	FR1	0	R1166D
1865.758	10.428	1875214	COUNTDOWN_START	n/a	n/a	n/a	-999	13	[0, 0, 0]	n/a	FR1	0	R1166D
1876.186	0.007	1885641	COUNTDOWN_END	n/a	n/a	n/a	-999	13	[0, 0, 0]	n/a	FR1	0	R1166D
1876.193	1.617	1885648	ORIENT	n/a	n/a	n/a	-999	13	[0, 0, 0]	n/a	FR1	0	R1166D
1877.81	2.151	1887265	ORIENT_OFF	n/a	n/a	n/a	-999	13	[0, 0, 0]	n/a	FR1	0	R1166D
1879.961	1.617	1889416	WORD	n/a	wordpools/wordpool_EN.txt	TOOL	1	13	[0, 0, 0]	n/a	FR1	0	R1166D
1881.578	0.9	1891033	WORD_OFF	n/a	n/a	TOOL	1	13	[0, 0, 0]	n/a	FR1	0	R1166D
1882.478	1.617	1891933	WORD	n/a	wordpools/wordpool_EN.txt	TRAIN	2	13	[0, 0, 0]	n/a	FR1	0	R1166D
1884.095	0.933	1893550	WORD_OFF	n/a	n/a	TRAIN	2	13	[0, 0, 0]	n/a	FR1	0	R1166D
1885.028	1.617	1894483	WORD	n/a	wordpools/wordpool_EN.txt	JET	3	13	[0, 0, 0]	n/a	FR1	0	R1166D
1886.645	0.801	1896100	WORD_OFF	n/a	n/a	JET	3	13	[0, 0, 0]	n/a	FR1	0	R1166D
1887.446	1.616	1896901	WORD	n/a	wordpools/wordpool_EN.txt	PLANE	4	13	[0, 0, 0]	n/a	FR1	0	R1166D
1889.062	0.767	1898516	WORD_OFF	n/a	n/a	PLANE	4	13	[0, 0, 0]	n/a	FR1	0	R1166D
1889.829	1.617	1899283	WORD	n/a	wordpools/wordpool_EN.txt	SALT	5	13	[0, 0, 0]	n/a	FR1	0	R1166D
1891.446	0.933	1900900	WORD_OFF	n/a	n/a	SALT	5	13	[0, 0, 0]	n/a	FR1	0	R1166D
1892.379	1.618	1901833	WORD	n/a	wordpools/wordpool_EN.txt	MAIL	6	13	[0, 0, 0]	n/a	FR1	0	R1166D
1893.997	0.983	1903451	WORD_OFF	n/a	n/a	MAIL	6	13	[0, 0, 0]	n/a	FR1	0	R1166D
1894.98	1.617	1904434	WORD	n/a	wordpools/wordpool_EN.txt	SQUARE	7	13	[0, 0, 0]	n/a	FR1	0	R1166D
1896.597	0.95	1906051	WORD_OFF	n/a	n/a	SQUARE	7	13	[0, 0, 0]	n/a	FR1	0	R1166D
1897.547	1.617	1907001	WORD	n/a	wordpools/wordpool_EN.txt	BEAK	8	13	[0, 0, 0]	n/a	FR1	0	R1166D
1899.164	0.917	1908618	WORD_OFF	n/a	n/a	BEAK	8	13	[0, 0, 0]	n/a	FR1	0	R1166D
1900.081	1.617	1909535	WORD	n/a	wordpools/wordpool_EN.txt	EGG	9	13	[0, 0, 0]	n/a	FR1	0	R1166D
1901.698	1.0	1911152	WORD_OFF	n/a	n/a	EGG	9	13	[0, 0, 0]	n/a	FR1	0	R1166D
1902.698	1.617	1912152	WORD	n/a	wordpools/wordpool_EN.txt	SHELL	10	13	[0, 0, 0]	n/a	FR1	0	R1166D
1904.315	0.784	1913769	WORD_OFF	n/a	n/a	SHELL	10	13	[0, 0, 0]	n/a	FR1	0	R1166D
1905.099	1.617	1914553	WORD	n/a	wordpools/wordpool_EN.txt	GOLD	11	13	[0, 0, 0]	n/a	FR1	0	R1166D
1906.716	0.783	1916170	WORD_OFF	n/a	n/a	GOLD	11	13	[0, 0, 0]	n/a	FR1	0	R1166D
1907.499	1.617	1916952	WORD	n/a	wordpools/wordpool_EN.txt	VAN	12	13	[0, 0, 0]	n/a	FR1	0	R1166D
1909.116	0.0	1918569	WORD_OFF	n/a	n/a	VAN	12	13	[0, 0, 0]	n/a	FR1	0	R1166D
1909.116	0.001	1918569	DISTRACT_START	n/a	n/a	n/a	-999	13	[0, 0, 0]	n/a	FR1	0	R1166D
1909.117	0.016	1918570	START	n/a	n/a	n/a	-999	13	[-999, -999, -999]	n/a	FR1	0	R1166D
1909.133	5.851	1918586	PROB	5.851	n/a	n/a	-999	13	[7, 1, 5]	13	FR1	0	R1166D
1914.984	3.451	1924437	PROB	3.451	n/a	n/a	-999	13	[7, 1, 4]	12	FR1	0	R1166D
1918.435	4.567	1927888	PROB	4.567	n/a	n/a	-999	13	[7, 7, 3]	17	FR1	0	R1166D
1923.002	2.617	1932455	PROB	2.617	n/a	n/a	-999	13	[2, 6, 1]	9	FR1	0	R1166D
1925.619	3.584	1935071	PROB	3.584	n/a	n/a	-999	13	[1, 6, 5]	12	FR1	0	R1166D
1929.203	0.017	1938655	STOP	n/a	n/a	n/a	-999	13	[-999, -999, -999]	n/a	FR1	0	R1166D
1929.22	0.518	1938672	DISTRACT_END	n/a	n/a	n/a	-999	13	[0, 0, 0]	n/a	FR1	0	R1166D
1929.738	0.516	1939190	RETRIEVAL_ORIENT	n/a	n/a	n/a	-999	13	[0, 0, 0]	n/a	FR1	0	R1166D
1930.254	30.0	1939706	REC_START	n/a	n/a	n/a	-999	13	[0, 0, 0]	n/a	FR1	0	R1166D
1960.254	0.011	1969705	REC_WORD_VV	0.011	n/a	<>	-999	13	[0, 0, 0]	n/a	FR1	0	R1166D
1960.265	5.496	1969716	REC_END	n/a	n/a	n/a	-999	13	[0, 0, 0]	n/a	FR1	0	R1166D
1965.761	0.5	1975211	TRIAL	n/a	n/a	n/a	-999	14	[0, 0, 0]	n/a	FR1	0	R1166D
1966.261	10.428	1975711	COUNTDOWN_START	n/a	n/a	n/a	-999	14	[0, 0, 0]	n/a	FR1	0	R1166D
1976.689	0.006	1986139	COUNTDOWN_END	n/a	n/a	n/a	-999	14	[0, 0, 0]	n/a	FR1	0	R1166D
1976.695	1.617	1986145	ORIENT	n/a	n/a	n/a	-999	14	[0, 0, 0]	n/a	FR1	0	R1166D
1978.312	2.151	1987762	ORIENT_OFF	n/a	n/a	n/a	-999	14	[0, 0, 0]	n/a	FR1	0	R1166D
1980.463	1.616	1989913	WORD	n/a	wordpools/wordpool_EN.txt	WALL	1	14	[0, 0, 0]	n/a	FR1	0	R1166D
1982.079	0.817	1991528	WORD_OFF	n/a	n/a	WALL	1	14	[0, 0, 0]	n/a	FR1	0	R1166D
1982.896	1.617	1992345	WORD	n/a	wordpools/wordpool_EN.txt	WOOD	2	14	[0, 0, 0]	n/a	FR1	0	R1166D
1984.513	0.95	1993962	WORD_OFF	n/a	n/a	WOOD	2	14	[0, 0, 0]	n/a	FR1	0	R1166D
1985.463	1.617	1994912	WORD	n/a	wordpools/wordpool_EN.txt	STRING	3	14	[0, 0, 0]	n/a	FR1	0	R1166D
1987.08	0.767	1996529	WORD_OFF	n/a	n/a	STRING	3	14	[0, 0, 0]	n/a	FR1	0	R1166D
1987.847	1.617	1997296	WORD	n/a	wordpools/wordpool_EN.txt	PIPE	4	14	[0, 0, 0]	n/a	FR1	0	R1166D
1989.464	0.784	1998913	WORD_OFF	n/a	n/a	PIPE	4	14	[0, 0, 0]	n/a	FR1	0	R1166D
1990.248	1.617	1999697	WORD	n/a	wordpools/wordpool_EN.txt	GUARD	5	14	[0, 0, 0]	n/a	FR1	0	R1166D
1991.865	0.95	2001314	WORD_OFF	n/a	n/a	GUARD	5	14	[0, 0, 0]	n/a	FR1	0	R1166D
1992.815	1.617	2002264	WORD	n/a	wordpools/wordpool_EN.txt	PEAR	6	14	[0, 0, 0]	n/a	FR1	0	R1166D
1994.432	0.983	2003881	WORD_OFF	n/a	n/a	PEAR	6	14	[0, 0, 0]	n/a	FR1	0	R1166D
1995.415	1.617	2004864	WORD	n/a	wordpools/wordpool_EN.txt	FENCE	7	14	[0, 0, 0]	n/a	FR1	0	R1166D
1997.032	0.95	2006481	WORD_OFF	n/a	n/a	FENCE	7	14	[0, 0, 0]	n/a	FR1	0	R1166D
1997.982	1.617	2007431	WORD	n/a	wordpools/wordpool_EN.txt	PEN	8	14	[0, 0, 0]	n/a	FR1	0	R1166D
1999.599	0.851	2009047	WORD_OFF	n/a	n/a	PEN	8	14	[0, 0, 0]	n/a	FR1	0	R1166D
2000.45	1.616	2009898	WORD	n/a	wordpools/wordpool_EN.txt	ROOF	9	14	[0, 0, 0]	n/a	FR1	0	R1166D
2002.066	0.934	2011514	WORD_OFF	n/a	n/a	ROOF	9	14	[0, 0, 0]	n/a	FR1	0	R1166D
2003.0	1.617	2012448	WORD	n/a	wordpools/wordpool_EN.txt	SLUSH	10	14	[0, 0, 0]	n/a	FR1	0	R1166D
2004.617	0.933	2014065	WORD_OFF	n/a	n/a	SLUSH	10	14	[0, 0, 0]	n/a	FR1	0	R1166D
2005.55	1.617	2014998	WORD	n/a	wordpools/wordpool_EN.txt	DRUM	11	14	[0, 0, 0]	n/a	FR1	0	R1166D
2007.167	0.85	2016615	WORD_OFF	n/a	n/a	DRUM	11	14	[0, 0, 0]	n/a	FR1	0	R1166D
2008.017	1.617	2017465	WORD	n/a	wordpools/wordpool_EN.txt	PASTE	12	14	[0, 0, 0]	n/a	FR1	0	R1166D
2009.634	0.0	2019082	WORD_OFF	n/a	n/a	PASTE	12	14	[0, 0, 0]	n/a	FR1	0	R1166D
2009.634	0.001	2019082	DISTRACT_START	n/a	n/a	n/a	-999	14	[0, 0, 0]	n/a	FR1	0	R1166D
2009.635	0.016	2019083	START	n/a	n/a	n/a	-999	14	[-999, -999, -999]	n/a	FR1	0	R1166D
2009.651	5.451	2019099	PROB	5.451	n/a	n/a	-999	14	[1, 3, 5]	9	FR1	0	R1166D
2015.102	3.617	2024550	PROB	3.617	n/a	n/a	-999	14	[3, 1, 9]	13	FR1	0	R1166D
2018.719	7.685	2028166	PROB	7.685	n/a	n/a	-999	14	[6, 9, 5]	21	FR1	0	R1166D
2026.404	6.071	2035851	PROB	6.071	n/a	n/a	-999	14	[6, 5, 2]	13	FR1	0	R1166D
2032.475	0.014	2041922	STOP	n/a	n/a	n/a	-999	14	[-999, -999, -999]	n/a	FR1	0	R1166D
2032.489	0.533	2041936	DISTRACT_END	n/a	n/a	n/a	-999	14	[0, 0, 0]	n/a	FR1	0	R1166D
2033.022	0.517	2042469	RETRIEVAL_ORIENT	n/a	n/a	n/a	-999	14	[0, 0, 0]	n/a	FR1	0	R1166D
2033.539	24.775	2042986	REC_START	n/a	n/a	n/a	-999	14	[0, 0, 0]	n/a	FR1	0	R1166D
2058.314	5.238	2067759	REC_WORD	5.238	n/a	SLUSH	10	14	[0, 0, 0]	n/a	FR1	0	R1166D
2063.552	5.46	2072997	REC_END	n/a	n/a	n/a	-999	14	[0, 0, 0]	n/a	FR1	0	R1166D
2069.012	0.5	2078457	TRIAL	n/a	n/a	n/a	-999	15	[0, 0, 0]	n/a	FR1	0	R1166D
2069.512	10.428	2078957	COUNTDOWN_START	n/a	n/a	n/a	-999	15	[0, 0, 0]	n/a	FR1	0	R1166D
2079.94	0.007	2089384	COUNTDOWN_END	n/a	n/a	n/a	-999	15	[0, 0, 0]	n/a	FR1	0	R1166D
2079.947	1.617	2089391	ORIENT	n/a	n/a	n/a	-999	15	[0, 0, 0]	n/a	FR1	0	R1166D
2081.564	1.851	2091008	ORIENT_OFF	n/a	n/a	n/a	-999	15	[0, 0, 0]	n/a	FR1	0	R1166D
2083.415	1.617	2092859	WORD	n/a	wordpools/wordpool_EN.txt	SHIP	1	15	[0, 0, 0]	n/a	FR1	0	R1166D
2085.032	0.866	2094476	WORD_OFF	n/a	n/a	SHIP	1	15	[0, 0, 0]	n/a	FR1	0	R1166D
2085.898	1.617	2095342	WORD	n/a	wordpools/wordpool_EN.txt	SWORD	2	15	[0, 0, 0]	n/a	FR1	0	R1166D
2087.515	0.901	2096959	WORD_OFF	n/a	n/a	SWORD	2	15	[0, 0, 0]	n/a	FR1	0	R1166D
2088.416	1.616	2097860	WORD	n/a	wordpools/wordpool_EN.txt	BRIDGE	3	15	[0, 0, 0]	n/a	FR1	0	R1166D
2090.032	0.767	2099476	WORD_OFF	n/a	n/a	BRIDGE	3	15	[0, 0, 0]	n/a	FR1	0	R1166D
2090.799	1.617	2100243	WORD	n/a	wordpools/wordpool_EN.txt	CAPE	4	15	[0, 0, 0]	n/a	FR1	0	R1166D
2092.416	0.784	2101859	WORD_OFF	n/a	n/a	CAPE	4	15	[0, 0, 0]	n/a	FR1	0	R1166D
2093.2	1.617	2102643	WORD	n/a	wordpools/wordpool_EN.txt	FOG	5	15	[0, 0, 0]	n/a	FR1	0	R1166D
2094.817	0.867	2104260	WORD_OFF	n/a	n/a	FOG	5	15	[0, 0, 0]	n/a	FR1	0	R1166D
2095.684	1.616	2105127	WORD	n/a	wordpools/wordpool_EN.txt	STEAM	6	15	[0, 0, 0]	n/a	FR1	0	R1166D
2097.3	0.767	2106743	WORD_OFF	n/a	n/a	STEAM	6	15	[0, 0, 0]	n/a	FR1	0	R1166D
2098.067	1.617	2107510	WORD	n/a	wordpools/wordpool_EN.txt	DOCK	7	15	[0, 0, 0]	n/a	FR1	0	R1166D
2099.684	1.0	2109127	WORD_OFF	n/a	n/a	DOCK	7	15	[0, 0, 0]	n/a	FR1	0	R1166D
2100.684	1.617	2110127	WORD	n/a	wordpools/wordpool_EN.txt	HOOK	8	15	[0, 0, 0]	n/a	FR1	0	R1166D
2102.301	0.967	2111744	WORD_OFF	n/a	n/a	HOOK	8	15	[0, 0, 0]	n/a	FR1	0	R1166D
2103.268	1.617	2112711	WORD	n/a	wordpools/wordpool_EN.txt	NAIL	9	15	[0, 0, 0]	n/a	FR1	0	R1166D
2104.885	0.984	2114328	WORD_OFF	n/a	n/a	NAIL	9	15	[0, 0, 0]	n/a	FR1	0	R1166D
2105.869	1.617	2115312	WORD	n/a	wordpools/wordpool_EN.txt	POLE	10	15	[0, 0, 0]	n/a	FR1	0	R1166D
2107.486	0.9	2116929	WORD_OFF	n/a	n/a	POLE	10	15	[0, 0, 0]	n/a	FR1	0	R1166D
2108.386	1.617	2117829	WORD	n/a	wordpools/wordpool_EN.txt	BRUSH	11	15	[0, 0, 0]	n/a	FR1	0	R1166D
2110.003	0.767	2119445	WORD_OFF	n/a	n/a	BRUSH	11	15	[0, 0, 0]	n/a	FR1	0	R1166D
2110.77	1.617	2120212	WORD	n/a	wordpools/wordpool_EN.txt	WORLD	12	15	[0, 0, 0]	n/a	FR1	0	R1166D
2112.387	0.0	2121829	DISTRACT_START	n/a	n/a	n/a	-999	15	[0, 0, 0]	n/a	FR1	0	R1166D
2112.387	0.0	2121829	WORD_OFF	n/a	n/a	WORLD	12	15	[0, 0, 0]	n/a	FR1	0	R1166D
2112.387	0.016	2121829	START	n/a	n/a	n/a	-999	15	[-999, -999, -999]	n/a	FR1	0	R1166D
2112.403	6.918	2121845	PROB	6.918	n/a	n/a	-999	15	[4, 2, 5]	11	FR1	0	R1166D
2119.321	2.901	2128763	PROB	2.901	n/a	n/a	-999	15	[1, 1, 1]	3	FR1	0	R1166D
2122.222	3.484	2131664	PROB	3.484	n/a	n/a	-999	15	[2, 1, 5]	8	FR1	0	R1166D
2125.706	2.633	2135148	PROB	2.633	n/a	n/a	-999	15	[5, 2, 1]	8	FR1	0	R1166D
2128.339	3.118	2137780	PROB	3.118	n/a	n/a	-999	15	[6, 7, 1]	14	FR1	0	R1166D
2131.457	13.578	2140898	PROB	13.578	n/a	n/a	-999	15	[8, 9, 5]	21	FR1	0	R1166D
2145.035	0.008	2154476	STOP	n/a	n/a	n/a	-999	15	[-999, -999, -999]	n/a	FR1	0	R1166D
2145.043	0.583	2154484	DISTRACT_END	n/a	n/a	n/a	-999	15	[0, 0, 0]	n/a	FR1	0	R1166D
2145.626	0.517	2155067	RETRIEVAL_ORIENT	n/a	n/a	n/a	-999	15	[0, 0, 0]	n/a	FR1	0	R1166D
2146.143	7.026	2155584	REC_START	n/a	n/a	n/a	-999	15	[0, 0, 0]	n/a	FR1	0	R1166D
2153.169	1.949	2162609	REC_WORD	1.949	n/a	BRUSH	11	15	[0, 0, 0]	n/a	FR1	0	R1166D
2155.118	16.884	2164558	REC_WORD	16.884	n/a	WORLD	12	15	[0, 0, 0]	n/a	FR1	0	R1166D
2172.002	4.153	2181441	REC_WORD	4.153	n/a	POLE	10	15	[0, 0, 0]	n/a	FR1	0	R1166D
2176.155	6.044	2185594	REC_END	n/a	n/a	n/a	-999	15	[0, 0, 0]	n/a	FR1	0	R1166D
2182.199	0.5	2191638	TRIAL	n/a	n/a	n/a	-999	16	[0, 0, 0]	n/a	FR1	0	R1166D
2182.699	10.428	2192138	COUNTDOWN_START	n/a	n/a	n/a	-999	16	[0, 0, 0]	n/a	FR1	0	R1166D
2193.127	0.008	2202565	COUNTDOWN_END	n/a	n/a	n/a	-999	16	[0, 0, 0]	n/a	FR1	0	R1166D
2193.135	1.618	2202573	ORIENT	n/a	n/a	n/a	-999	16	[0, 0, 0]	n/a	FR1	0	R1166D
2194.753	1.966	2204191	ORIENT_OFF	n/a	n/a	n/a	-999	16	[0, 0, 0]	n/a	FR1	0	R1166D
2196.719	1.617	2206157	WORD	n/a	wordpools/wordpool_EN.txt	HAT	1	16	[0, 0, 0]	n/a	FR1	0	R1166D
2198.336	0.816	2207774	WORD_OFF	n/a	n/a	HAT	1	16	[0, 0, 0]	n/a	FR1	0	R1166D
2199.152	1.601	2208590	WORD	n/a	wordpools/wordpool_EN.txt	GOAT	2	16	[0, 0, 0]	n/a	FR1	0	R1166D
2200.753	0.783	2210191	WORD_OFF	n/a	n/a	GOAT	2	16	[0, 0, 0]	n/a	FR1	0	R1166D
2201.536	1.617	2210974	WORD	n/a	wordpools/wordpool_EN.txt	HILL	3	16	[0, 0, 0]	n/a	FR1	0	R1166D
2203.153	0.933	2212590	WORD_OFF	n/a	n/a	HILL	3	16	[0, 0, 0]	n/a	FR1	0	R1166D
2204.086	1.618	2213523	WORD	n/a	wordpools/wordpool_EN.txt	SHARK	4	16	[0, 0, 0]	n/a	FR1	0	R1166D
2205.704	0.95	2215141	WORD_OFF	n/a	n/a	SHARK	4	16	[0, 0, 0]	n/a	FR1	0	R1166D
2206.654	1.617	2216091	WORD	n/a	wordpools/wordpool_EN.txt	STEAK	5	16	[0, 0, 0]	n/a	FR1	0	R1166D
2208.271	0.816	2217708	WORD_OFF	n/a	n/a	STEAK	5	16	[0, 0, 0]	n/a	FR1	0	R1166D
2209.087	1.618	2218524	WORD	n/a	wordpools/wordpool_EN.txt	HORN	6	16	[0, 0, 0]	n/a	FR1	0	R1166D
2210.705	0.85	2220142	WORD_OFF	n/a	n/a	HORN	6	16	[0, 0, 0]	n/a	FR1	0	R1166D
2211.555	1.617	2220992	WORD	n/a	wordpools/wordpool_EN.txt	CHAIR	7	16	[0, 0, 0]	n/a	FR1	0	R1166D
2213.172	0.883	2222609	WORD_OFF	n/a	n/a	CHAIR	7	16	[0, 0, 0]	n/a	FR1	0	R1166D
2214.055	1.617	2223492	WORD	n/a	wordpools/wordpool_EN.txt	SIGN	8	16	[0, 0, 0]	n/a	FR1	0	R1166D
2215.672	0.967	2225109	WORD_OFF	n/a	n/a	SIGN	8	16	[0, 0, 0]	n/a	FR1	0	R1166D
2216.639	1.617	2226076	WORD	n/a	wordpools/wordpool_EN.txt	FOOT	9	16	[0, 0, 0]	n/a	FR1	0	R1166D
2218.256	0.917	2227693	WORD_OFF	n/a	n/a	FOOT	9	16	[0, 0, 0]	n/a	FR1	0	R1166D
2219.173	1.617	2228610	WORD	n/a	wordpools/wordpool_EN.txt	TEA	10	16	[0, 0, 0]	n/a	FR1	0	R1166D
2220.79	0.883	2230226	WORD_OFF	n/a	n/a	TEA	10	16	[0, 0, 0]	n/a	FR1	0	R1166D
2221.673	1.617	2231109	WORD	n/a	wordpools/wordpool_EN.txt	TRUCK	11	16	[0, 0, 0]	n/a	FR1	0	R1166D
2223.29	0.784	2232726	WORD_OFF	n/a	n/a	TRUCK	11	16	[0, 0, 0]	n/a	FR1	0	R1166D
2224.074	1.617	2233510	WORD	n/a	wordpools/wordpool_EN.txt	FORK	12	16	[0, 0, 0]	n/a	FR1	0	R1166D
2225.691	0.0	2235127	WORD_OFF	n/a	n/a	FORK	12	16	[0, 0, 0]	n/a	FR1	0	R1166D
2225.691	0.0	2235127	DISTRACT_START	n/a	n/a	n/a	-999	16	[0, 0, 0]	n/a	FR1	0	R1166D
2225.691	0.016	2235127	START	n/a	n/a	n/a	-999	16	[-999, -999, -999]	n/a	FR1	0	R1166D
2225.707	5.451	2235143	PROB	5.451	n/a	n/a	-999	16	[1, 7, 9]	17	FR1	0	R1166D
2231.158	8.252	2240594	PROB	8.252	n/a	n/a	-999	16	[4, 9, 7]	20	FR1	0	R1166D
2239.41	2.934	2248845	PROB	2.934	n/a	n/a	-999	16	[7, 1, 6]	14	FR1	0	R1166D
2242.344	5.724	2251779	PROB	5.724	n/a	n/a	-999	16	[6, 9, 3]	18	FR1	0	R1166D
2248.068	0.01	2257503	STOP	n/a	n/a	n/a	-999	16	[-999, -999, -999]	n/a	FR1	0	R1166D
2248.078	0.7	2257513	DISTRACT_END	n/a	n/a	n/a	-999	16	[0, 0, 0]	n/a	FR1	0	R1166D
2248.778	0.518	2258213	RETRIEVAL_ORIENT	n/a	n/a	n/a	-999	16	[0, 0, 0]	n/a	FR1	0	R1166D
2249.296	30.0	2258731	REC_START	n/a	n/a	n/a	-999	16	[0, 0, 0]	n/a	FR1	0	R1166D
2279.296	0.011	2288729	REC_WORD_VV	0.011	n/a	<>	-999	16	[0, 0, 0]	n/a	FR1	0	R1166D
2279.307	5.911	2288740	REC_END	n/a	n/a	n/a	-999	16	[0, 0, 0]	n/a	FR1	0	R1166D
2285.218	0.5	2294651	TRIAL	n/a	n/a	n/a	-999	17	[0, 0, 0]	n/a	FR1	0	R1166D
2285.718	10.428	2295151	COUNTDOWN_START	n/a	n/a	n/a	-999	17	[0, 0, 0]	n/a	FR1	0	R1166D
2296.146	0.007	2305578	COUNTDOWN_END	n/a	n/a	n/a	-999	17	[0, 0, 0]	n/a	FR1	0	R1166D
2296.153	1.618	2305585	ORIENT	n/a	n/a	n/a	-999	17	[0, 0, 0]	n/a	FR1	0	R1166D
2297.771	1.783	2307203	ORIENT_OFF	n/a	n/a	n/a	-999	17	[0, 0, 0]	n/a	FR1	0	R1166D
2299.554	1.617	2308986	WORD	n/a	wordpools/wordpool_EN.txt	CONE	1	17	[0, 0, 0]	n/a	FR1	0	R1166D
2301.171	0.984	2310603	WORD_OFF	n/a	n/a	CONE	1	17	[0, 0, 0]	n/a	FR1	0	R1166D
2302.155	1.617	2311587	WORD	n/a	wordpools/wordpool_EN.txt	HOSE	2	17	[0, 0, 0]	n/a	FR1	0	R1166D
2303.772	0.967	2313204	WORD_OFF	n/a	n/a	HOSE	2	17	[0, 0, 0]	n/a	FR1	0	R1166D
2304.739	1.616	2314171	WORD	n/a	wordpools/wordpool_EN.txt	BOX	3	17	[0, 0, 0]	n/a	FR1	0	R1166D
2306.355	1.0	2315787	WORD_OFF	n/a	n/a	BOX	3	17	[0, 0, 0]	n/a	FR1	0	R1166D
2307.355	1.618	2316787	WORD	n/a	wordpools/wordpool_EN.txt	JUICE	4	17	[0, 0, 0]	n/a	FR1	0	R1166D
2308.973	0.85	2318405	WORD_OFF	n/a	n/a	JUICE	4	17	[0, 0, 0]	n/a	FR1	0	R1166D
2309.823	1.617	2319255	WORD	n/a	wordpools/wordpool_EN.txt	TANK	5	17	[0, 0, 0]	n/a	FR1	0	R1166D
2311.44	0.95	2320872	WORD_OFF	n/a	n/a	TANK	5	17	[0, 0, 0]	n/a	FR1	0	R1166D
2312.39	1.617	2321822	WORD	n/a	wordpools/wordpool_EN.txt	SPOON	6	17	[0, 0, 0]	n/a	FR1	0	R1166D
2314.007	0.983	2323438	WORD_OFF	n/a	n/a	SPOON	6	17	[0, 0, 0]	n/a	FR1	0	R1166D
2314.99	1.617	2324421	WORD	n/a	wordpools/wordpool_EN.txt	SPONGE	7	17	[0, 0, 0]	n/a	FR1	0	R1166D
2316.607	0.95	2326038	WORD_OFF	n/a	n/a	SPONGE	7	17	[0, 0, 0]	n/a	FR1	0	R1166D
2317.557	1.617	2326988	WORD	n/a	wordpools/wordpool_EN.txt	RIB	8	17	[0, 0, 0]	n/a	FR1	0	R1166D
2319.174	0.834	2328605	WORD_OFF	n/a	n/a	RIB	8	17	[0, 0, 0]	n/a	FR1	0	R1166D
2320.008	1.617	2329439	WORD	n/a	wordpools/wordpool_EN.txt	THUMB	9	17	[0, 0, 0]	n/a	FR1	0	R1166D
2321.625	0.967	2331056	WORD_OFF	n/a	n/a	THUMB	9	17	[0, 0, 0]	n/a	FR1	0	R1166D
2322.592	1.617	2332023	WORD	n/a	wordpools/wordpool_EN.txt	PIE	10	17	[0, 0, 0]	n/a	FR1	0	R1166D
2324.209	0.8	2333640	WORD_OFF	n/a	n/a	PIE	10	17	[0, 0, 0]	n/a	FR1	0	R1166D
2325.009	1.617	2334440	WORD	n/a	wordpools/wordpool_EN.txt	SHRIMP	11	17	[0, 0, 0]	n/a	FR1	0	R1166D
2326.626	0.9	2336057	WORD_OFF	n/a	n/a	SHRIMP	11	17	[0, 0, 0]	n/a	FR1	0	R1166D
2327.526	1.617	2336957	WORD	n/a	wordpools/wordpool_EN.txt	PLATE	12	17	[0, 0, 0]	n/a	FR1	0	R1166D
2329.143	0.0	2338574	WORD_OFF	n/a	n/a	PLATE	12	17	[0, 0, 0]	n/a	FR1	0	R1166D
2329.143	0.0	2338574	DISTRACT_START	n/a	n/a	n/a	-999	17	[0, 0, 0]	n/a	FR1	0	R1166D
2329.143	0.016	2338574	START	n/a	n/a	n/a	-999	17	[-999, -999, -999]	n/a	FR1	0	R1166D
2329.159	3.918	2338590	PROB	3.918	n/a	n/a	-999	17	[1, 6, 5]	12	FR1	0	R1166D
2333.077	3.617	2342507	PROB	3.617	n/a	n/a	-999	17	[9, 1, 3]	13	FR1	0	R1166D
2336.694	3.784	2346124	PROB	3.784	n/a	n/a	-999	17	[7, 8, 1]	16	FR1	0	R1166D
2340.478	3.584	2349908	PROB	3.584	n/a	n/a	-999	17	[4, 4, 5]	13	FR1	0	R1166D
2344.062	5.958	2353492	PROB	5.958	n/a	n/a	-999	17	[4, 3, 3]	10	FR1	0	R1166D
2350.02	0.01	2359449	STOP	n/a	n/a	n/a	-999	17	[-999, -999, -999]	n/a	FR1	0	R1166D
2350.03	0.583	2359459	DISTRACT_END	n/a	n/a	n/a	-999	17	[0, 0, 0]	n/a	FR1	0	R1166D
2350.613	0.518	2360042	RETRIEVAL_ORIENT	n/a	n/a	n/a	-999	17	[0, 0, 0]	n/a	FR1	0	R1166D
2351.131	11.732	2360560	REC_START	n/a	n/a	n/a	-999	17	[0, 0, 0]	n/a	FR1	0	R1166D
2362.863	10.648	2372292	REC_WORD	10.648	n/a	BOX	3	17	[0, 0, 0]	n/a	FR1	0	R1166D
2373.511	7.632	2382939	REC_WORD	7.632	n/a	JUICE	4	17	[0, 0, 0]	n/a	FR1	0	R1166D
2381.143	5.46	2390571	REC_END	n/a	n/a	n/a	-999	17	[0, 0, 0]	n/a	FR1	0	R1166D
2386.603	0.5	2396030	TRIAL	n/a	n/a	n/a	-999	18	[0, 0, 0]	n/a	FR1	0	R1166D
2387.103	10.428	2396530	COUNTDOWN_START	n/a	n/a	n/a	-999	18	[0, 0, 0]	n/a	FR1	0	R1166D
2397.531	0.008	2406958	COUNTDOWN_END	n/a	n/a	n/a	-999	18	[0, 0, 0]	n/a	FR1	0	R1166D
2397.539	1.617	2406966	ORIENT	n/a	n/a	n/a	-999	18	[0, 0, 0]	n/a	FR1	0	R1166D
2399.156	1.983	2408583	ORIENT_OFF	n/a	n/a	n/a	-999	18	[0, 0, 0]	n/a	FR1	0	R1166D
2401.139	1.618	2410566	WORD	n/a	wordpools/wordpool_EN.txt	SEED	1	18	[0, 0, 0]	n/a	FR1	0	R1166D
2402.757	0.849	2412184	WORD_OFF	n/a	n/a	SEED	1	18	[0, 0, 0]	n/a	FR1	0	R1166D
2403.606	1.617	2413033	WORD	n/a	wordpools/wordpool_EN.txt	FLAME	2	18	[0, 0, 0]	n/a	FR1	0	R1166D
2405.223	1.001	2414649	WORD_OFF	n/a	n/a	FLAME	2	18	[0, 0, 0]	n/a	FR1	0	R1166D
2406.224	1.617	2415650	WORD	n/a	wordpools/wordpool_EN.txt	BLOOM	3	18	[0, 0, 0]	n/a	FR1	0	R1166D
2407.841	0.966	2417267	WORD_OFF	n/a	n/a	BLOOM	3	18	[0, 0, 0]	n/a	FR1	0	R1166D
2408.807	1.617	2418233	WORD	n/a	wordpools/wordpool_EN.txt	RAIN	4	18	[0, 0, 0]	n/a	FR1	0	R1166D
2410.424	0.817	2419850	WORD_OFF	n/a	n/a	RAIN	4	18	[0, 0, 0]	n/a	FR1	0	R1166D
2411.241	1.617	2420667	WORD	n/a	wordpools/wordpool_EN.txt	CUBE	5	18	[0, 0, 0]	n/a	FR1	0	R1166D
2412.858	0.767	2422284	WORD_OFF	n/a	n/a	CUBE	5	18	[0, 0, 0]	n/a	FR1	0	R1166D
2413.625	1.617	2423051	WORD	n/a	wordpools/wordpool_EN.txt	SMOKE	6	18	[0, 0, 0]	n/a	FR1	0	R1166D
2415.242	0.916	2424668	WORD_OFF	n/a	n/a	SMOKE	6	18	[0, 0, 0]	n/a	FR1	0	R1166D
2416.158	1.602	2425584	WORD	n/a	wordpools/wordpool_EN.txt	FOOD	7	18	[0, 0, 0]	n/a	FR1	0	R1166D
2417.76	0.899	2427186	WORD_OFF	n/a	n/a	FOOD	7	18	[0, 0, 0]	n/a	FR1	0	R1166D
2418.659	1.617	2428085	WORD	n/a	wordpools/wordpool_EN.txt	STORM	8	18	[0, 0, 0]	n/a	FR1	0	R1166D
2420.276	0.817	2429702	WORD_OFF	n/a	n/a	STORM	8	18	[0, 0, 0]	n/a	FR1	0	R1166D
2421.093	1.617	2430519	WORD	n/a	wordpools/wordpool_EN.txt	CORN	9	18	[0, 0, 0]	n/a	FR1	0	R1166D
2422.71	0.817	2432136	WORD_OFF	n/a	n/a	CORN	9	18	[0, 0, 0]	n/a	FR1	0	R1166D
2423.527	1.617	2432952	WORD	n/a	wordpools/wordpool_EN.txt	CLOUD	10	18	[0, 0, 0]	n/a	FR1	0	R1166D
2425.144	0.967	2434569	WORD_OFF	n/a	n/a	CLOUD	10	18	[0, 0, 0]	n/a	FR1	0	R1166D
2426.111	1.616	2435536	WORD	n/a	wordpools/wordpool_EN.txt	LAND	11	18	[0, 0, 0]	n/a	FR1	0	R1166D
2427.727	0.917	2437152	WORD_OFF	n/a	n/a	LAND	11	18	[0, 0, 0]	n/a	FR1	0	R1166D
2428.644	1.617	2438069	WORD	n/a	wordpools/wordpool_EN.txt	SPARK	12	18	[0, 0, 0]	n/a	FR1	0	R1166D
2430.261	0.0	2439686	WORD_OFF	n/a	n/a	SPARK	12	18	[0, 0, 0]	n/a	FR1	0	R1166D
2430.261	0.001	2439686	DISTRACT_START	n/a	n/a	n/a	-999	18	[0, 0, 0]	n/a	FR1	0	R1166D
2430.262	0.016	2439687	START	n/a	n/a	n/a	-999	18	[-999, -999, -999]	n/a	FR1	0	R1166D
2430.278	6.118	2439703	PROB	6.118	n/a	n/a	-999	18	[6, 4, 9]	19	FR1	0	R1166D
2436.396	5.734	2445821	PROB	5.734	n/a	n/a	-999	18	[9, 3, 2]	15	FR1	0	R1166D
2442.13	6.335	2451554	PROB	6.335	n/a	n/a	-999	18	[4, 4, 2]	10	FR1	0	R1166D
2448.465	5.619	2457889	PROB	5.619	n/a	n/a	-999	18	[4, 5, 3]	12	FR1	0	R1166D
2454.084	0.015	2463508	STOP	n/a	n/a	n/a	-999	18	[-999, -999, -999]	n/a	FR1	0	R1166D
2454.099	0.617	2463523	DISTRACT_END	n/a	n/a	n/a	-999	18	[0, 0, 0]	n/a	FR1	0	R1166D
2454.716	0.517	2464140	RETRIEVAL_ORIENT	n/a	n/a	n/a	-999	18	[0, 0, 0]	n/a	FR1	0	R1166D
2455.233	30.0	2464657	REC_START	n/a	n/a	n/a	-999	18	[0, 0, 0]	n/a	FR1	0	R1166D
2485.233	0.013	2494655	REC_WORD_VV	0.013	n/a	<>	-999	18	[0, 0, 0]	n/a	FR1	0	R1166D
2485.246	5.576	2494668	REC_END	n/a	n/a	n/a	-999	18	[0, 0, 0]	n/a	FR1	0	R1166D
2490.822	0.5	2500244	TRIAL	n/a	n/a	n/a	-999	19	[0, 0, 0]	n/a	FR1	0	R1166D
2491.322	10.428	2500744	COUNTDOWN_START	n/a	n/a	n/a	-999	19	[0, 0, 0]	n/a	FR1	0	R1166D
2501.75	0.009	2511171	COUNTDOWN_END	n/a	n/a	n/a	-999	19	[0, 0, 0]	n/a	FR1	0	R1166D
2501.759	1.616	2511180	ORIENT	n/a	n/a	n/a	-999	19	[0, 0, 0]	n/a	FR1	0	R1166D
2503.375	2.067	2512796	ORIENT_OFF	n/a	n/a	n/a	-999	19	[0, 0, 0]	n/a	FR1	0	R1166D
2505.442	1.617	2514863	WORD	n/a	wordpools/wordpool_EN.txt	MOOSE	1	19	[0, 0, 0]	n/a	FR1	0	R1166D
2507.059	0.933	2516480	WORD_OFF	n/a	n/a	MOOSE	1	19	[0, 0, 0]	n/a	FR1	0	R1166D
2507.992	1.617	2517413	WORD	n/a	wordpools/wordpool_EN.txt	PRINCE	2	19	[0, 0, 0]	n/a	FR1	0	R1166D
2509.609	0.8	2519030	WORD_OFF	n/a	n/a	PRINCE	2	19	[0, 0, 0]	n/a	FR1	0	R1166D
2510.409	1.617	2519830	WORD	n/a	wordpools/wordpool_EN.txt	CROW	3	19	[0, 0, 0]	n/a	FR1	0	R1166D
2512.026	0.9	2521447	WORD_OFF	n/a	n/a	CROW	3	19	[0, 0, 0]	n/a	FR1	0	R1166D
2512.926	1.617	2522347	WORD	n/a	wordpools/wordpool_EN.txt	WING	4	19	[0, 0, 0]	n/a	FR1	0	R1166D
2514.543	0.984	2523964	WORD_OFF	n/a	n/a	WING	4	19	[0, 0, 0]	n/a	FR1	0	R1166D
2515.527	1.617	2524947	WORD	n/a	wordpools/wordpool_EN.txt	CROWN	5	19	[0, 0, 0]	n/a	FR1	0	R1166D
2517.144	0.95	2526564	WORD_OFF	n/a	n/a	CROWN	5	19	[0, 0, 0]	n/a	FR1	0	R1166D
2518.094	1.617	2527514	WORD	n/a	wordpools/wordpool_EN.txt	MOON	6	19	[0, 0, 0]	n/a	FR1	0	R1166D
2519.711	0.95	2529131	WORD_OFF	n/a	n/a	MOON	6	19	[0, 0, 0]	n/a	FR1	0	R1166D
2520.661	1.617	2530081	WORD	n/a	wordpools/wordpool_EN.txt	CHIEF	7	19	[0, 0, 0]	n/a	FR1	0	R1166D
2522.278	0.934	2531698	WORD_OFF	n/a	n/a	CHIEF	7	19	[0, 0, 0]	n/a	FR1	0	R1166D
2523.212	1.617	2532632	WORD	n/a	wordpools/wordpool_EN.txt	BOMB	8	19	[0, 0, 0]	n/a	FR1	0	R1166D
2524.829	0.934	2534249	WORD_OFF	n/a	n/a	BOMB	8	19	[0, 0, 0]	n/a	FR1	0	R1166D
2525.763	1.616	2535183	WORD	n/a	wordpools/wordpool_EN.txt	EAR	9	19	[0, 0, 0]	n/a	FR1	0	R1166D
2527.379	0.917	2536799	WORD_OFF	n/a	n/a	EAR	9	19	[0, 0, 0]	n/a	FR1	0	R1166D
2528.296	1.617	2537716	WORD	n/a	wordpools/wordpool_EN.txt	BAND	10	19	[0, 0, 0]	n/a	FR1	0	R1166D
2529.913	0.851	2539333	WORD_OFF	n/a	n/a	BAND	10	19	[0, 0, 0]	n/a	FR1	0	R1166D
2530.764	1.616	2540184	WORD	n/a	wordpools/wordpool_EN.txt	CLOTH	11	19	[0, 0, 0]	n/a	FR1	0	R1166D
2532.38	0.8	2541800	WORD_OFF	n/a	n/a	CLOTH	11	19	[0, 0, 0]	n/a	FR1	0	R1166D
2533.18	1.617	2542600	WORD	n/a	wordpools/wordpool_EN.txt	CANE	12	19	[0, 0, 0]	n/a	FR1	0	R1166D
2534.797	0.0	2544216	WORD_OFF	n/a	n/a	CANE	12	19	[0, 0, 0]	n/a	FR1	0	R1166D
2534.797	0.001	2544216	DISTRACT_START	n/a	n/a	n/a	-999	19	[0, 0, 0]	n/a	FR1	0	R1166D
2534.798	0.016	2544217	START	n/a	n/a	n/a	-999	19	[-999, -999, -999]	n/a	FR1	0	R1166D
2534.814	5.417	2544233	PROB	5.417	n/a	n/a	-999	19	[7, 7, 7]	21	FR1	0	R1166D
2540.231	7.252	2549650	PROB	7.252	n/a	n/a	-999	19	[9, 8, 1]	18	FR1	0	R1166D
2547.483	3.4	2556902	PROB	3.4	n/a	n/a	-999	19	[2, 8, 2]	12	FR1	0	R1166D
2550.883	6.785	2560302	PROB	6.785	n/a	n/a	-999	19	[8, 2, 9]	19	FR1	0	R1166D
2557.668	0.017	2567086	STOP	n/a	n/a	n/a	-999	19	[-999, -999, -999]	n/a	FR1	0	R1166D
2557.685	0.7	2567103	DISTRACT_END	n/a	n/a	n/a	-999	19	[0, 0, 0]	n/a	FR1	0	R1166D
2558.385	0.517	2567803	RETRIEVAL_ORIENT	n/a	n/a	n/a	-999	19	[0, 0, 0]	n/a	FR1	0	R1166D
2558.902	4.208	2568320	REC_START	n/a	n/a	n/a	-999	19	[0, 0, 0]	n/a	FR1	0	R1166D
2563.11	9.218	2572528	REC_WORD	9.218	n/a	MOOSE	1	19	[0, 0, 0]	n/a	FR1	0	R1166D
2572.328	6.079	2581745	REC_WORD	6.079	n/a	CROW	3	19	[0, 0, 0]	n/a	FR1	0	R1166D
2578.407	10.507	2587824	REC_WORD	10.507	n/a	CHIEF	7	19	[0, 0, 0]	n/a	FR1	0	R1166D
2588.914	5.894	2598331	REC_END	n/a	n/a	n/a	-999	19	[0, 0, 0]	n/a	FR1	0	R1166D
2594.808	0.5	2604224	TRIAL	n/a	n/a	n/a	-999	20	[0, 0, 0]	n/a	FR1	0	R1166D
2595.308	10.428	2604724	COUNTDOWN_START	n/a	n/a	n/a	-999	20	[0, 0, 0]	n/a	FR1	0	R1166D
2605.736	0.008	2615152	COUNTDOWN_END	n/a	n/a	n/a	-999	20	[0, 0, 0]	n/a	FR1	0	R1166D
2605.744	1.616	2615160	ORIENT	n/a	n/a	n/a	-999	20	[0, 0, 0]	n/a	FR1	0	R1166D
2607.36	2.084	2616776	ORIENT_OFF	n/a	n/a	n/a	-999	20	[0, 0, 0]	n/a	FR1	0	R1166D
2609.444	1.617	2618859	WORD	n/a	wordpools/wordpool_EN.txt	RAKE	1	20	[0, 0, 0]	n/a	FR1	0	R1166D
2611.061	0.967	2620476	WORD_OFF	n/a	n/a	RAKE	1	20	[0, 0, 0]	n/a	FR1	0	R1166D
2612.028	1.617	2621443	WORD	n/a	wordpools/wordpool_EN.txt	ROOT	2	20	[0, 0, 0]	n/a	FR1	0	R1166D
2613.645	0.817	2623060	WORD_OFF	n/a	n/a	ROOT	2	20	[0, 0, 0]	n/a	FR1	0	R1166D
2614.462	1.617	2623877	WORD	n/a	wordpools/wordpool_EN.txt	TIE	3	20	[0, 0, 0]	n/a	FR1	0	R1166D
2616.079	0.833	2625494	WORD_OFF	n/a	n/a	TIE	3	20	[0, 0, 0]	n/a	FR1	0	R1166D
2616.912	1.617	2626327	WORD	n/a	wordpools/wordpool_EN.txt	CAR	4	20	[0, 0, 0]	n/a	FR1	0	R1166D
2618.529	0.884	2627944	WORD_OFF	n/a	n/a	CAR	4	20	[0, 0, 0]	n/a	FR1	0	R1166D
2619.413	1.617	2628828	WORD	n/a	wordpools/wordpool_EN.txt	BADGE	5	20	[0, 0, 0]	n/a	FR1	0	R1166D
2621.03	0.966	2630445	WORD_OFF	n/a	n/a	BADGE	5	20	[0, 0, 0]	n/a	FR1	0	R1166D
2621.996	1.617	2631411	WORD	n/a	wordpools/wordpool_EN.txt	LOCK	6	20	[0, 0, 0]	n/a	FR1	0	R1166D
2623.613	0.934	2633028	WORD_OFF	n/a	n/a	LOCK	6	20	[0, 0, 0]	n/a	FR1	0	R1166D
2624.547	1.617	2633962	WORD	n/a	wordpools/wordpool_EN.txt	STEM	7	20	[0, 0, 0]	n/a	FR1	0	R1166D
2626.164	0.817	2635578	WORD_OFF	n/a	n/a	STEM	7	20	[0, 0, 0]	n/a	FR1	0	R1166D
2626.981	1.617	2636395	WORD	n/a	wordpools/wordpool_EN.txt	KEY	8	20	[0, 0, 0]	n/a	FR1	0	R1166D
2628.598	0.983	2638012	WORD_OFF	n/a	n/a	KEY	8	20	[0, 0, 0]	n/a	FR1	0	R1166D
2629.581	1.617	2638995	WORD	n/a	wordpools/wordpool_EN.txt	PARK	9	20	[0, 0, 0]	n/a	FR1	0	R1166D
2631.198	0.834	2640612	WORD_OFF	n/a	n/a	PARK	9	20	[0, 0, 0]	n/a	FR1	0	R1166D
2632.032	1.617	2641446	WORD	n/a	wordpools/wordpool_EN.txt	ELF	10	20	[0, 0, 0]	n/a	FR1	0	R1166D
2633.649	0.933	2643063	WORD_OFF	n/a	n/a	ELF	10	20	[0, 0, 0]	n/a	FR1	0	R1166D
2634.582	1.617	2643996	WORD	n/a	wordpools/wordpool_EN.txt	JAIL	11	20	[0, 0, 0]	n/a	FR1	0	R1166D
2636.199	1.0	2645613	WORD_OFF	n/a	n/a	JAIL	11	20	[0, 0, 0]	n/a	FR1	0	R1166D
2637.199	1.617	2646613	WORD	n/a	wordpools/wordpool_EN.txt	LEAF	12	20	[0, 0, 0]	n/a	FR1	0	R1166D
2638.816	0.0	2648230	WORD_OFF	n/a	n/a	LEAF	12	20	[0, 0, 0]	n/a	FR1	0	R1166D
2638.816	0.001	2648230	DISTRACT_START	n/a	n/a	n/a	-999	20	[0, 0, 0]	n/a	FR1	0	R1166D
2638.817	0.016	2648231	START	n/a	n/a	n/a	-999	20	[-999, -999, -999]	n/a	FR1	0	R1166D
2638.833	9.168	2648247	PROB	9.168	n/a	n/a	-999	20	[8, 4, 5]	17	FR1	0	R1166D
2648.001	3.684	2657414	PROB	3.684	n/a	n/a	-999	20	[2, 7, 6]	15	FR1	0	R1166D
2651.685	3.401	2661098	PROB	3.401	n/a	n/a	-999	20	[1, 3, 9]	13	FR1	0	R1166D
2655.086	4.638	2664499	PROB	4.638	n/a	n/a	-999	20	[2, 3, 6]	10	FR1	0	R1166D
2659.724	0.014	2669137	STOP	n/a	n/a	n/a	-999	20	[-999, -999, -999]	n/a	FR1	0	R1166D
2659.738	0.565	2669151	DISTRACT_END	n/a	n/a	n/a	-999	20	[0, 0, 0]	n/a	FR1	0	R1166D
2660.303	0.518	2669716	RETRIEVAL_ORIENT	n/a	n/a	n/a	-999	20	[0, 0, 0]	n/a	FR1	0	R1166D
2660.821	2.37	2670234	REC_START	n/a	n/a	n/a	-999	20	[0, 0, 0]	n/a	FR1	0	R1166D
2663.191	27.643	2672603	REC_WORD_VV	27.643	n/a	<>	-999	20	[0, 0, 0]	n/a	FR1	0	R1166D
2690.834	5.976	2700245	REC_END	n/a	n/a	n/a	-999	20	[0, 0, 0]	n/a	FR1	0	R1166D
2696.81	0.5	2706221	TRIAL	n/a	n/a	n/a	-999	21	[0, 0, 0]	n/a	FR1	0	R1166D
2697.31	10.428	2706721	COUNTDOWN_START	n/a	n/a	n/a	-999	21	[0, 0, 0]	n/a	FR1	0	R1166D
2707.738	0.008	2717148	COUNTDOWN_END	n/a	n/a	n/a	-999	21	[0, 0, 0]	n/a	FR1	0	R1166D
2707.746	1.616	2717156	ORIENT	n/a	n/a	n/a	-999	21	[0, 0, 0]	n/a	FR1	0	R1166D
2709.362	2.034	2718772	ORIENT_OFF	n/a	n/a	n/a	-999	21	[0, 0, 0]	n/a	FR1	0	R1166D
2711.396	1.617	2720806	WORD	n/a	wordpools/wordpool_EN.txt	PEA	1	21	[0, 0, 0]	n/a	FR1	0	R1166D
2713.013	0.917	2722423	WORD_OFF	n/a	n/a	PEA	1	21	[0, 0, 0]	n/a	FR1	0	R1166D
2713.93	1.617	2723340	WORD	n/a	wordpools/wordpool_EN.txt	FARM	2	21	[0, 0, 0]	n/a	FR1	0	R1166D
2715.547	0.983	2724957	WORD_OFF	n/a	n/a	FARM	2	21	[0, 0, 0]	n/a	FR1	0	R1166D
2716.53	1.617	2725940	WORD	n/a	wordpools/wordpool_EN.txt	TOOTH	3	21	[0, 0, 0]	n/a	FR1	0	R1166D
2718.147	0.951	2727556	WORD_OFF	n/a	n/a	TOOTH	3	21	[0, 0, 0]	n/a	FR1	0	R1166D
2719.098	1.616	2728507	WORD	n/a	wordpools/wordpool_EN.txt	WAVE	4	21	[0, 0, 0]	n/a	FR1	0	R1166D
2720.714	0.901	2730123	WORD_OFF	n/a	n/a	WAVE	4	21	[0, 0, 0]	n/a	FR1	0	R1166D
2721.615	1.617	2731024	WORD	n/a	wordpools/wordpool_EN.txt	JEEP	5	21	[0, 0, 0]	n/a	FR1	0	R1166D
2723.232	0.8	2732641	WORD_OFF	n/a	n/a	JEEP	5	21	[0, 0, 0]	n/a	FR1	0	R1166D
2724.032	1.617	2733441	WORD	n/a	wordpools/wordpool_EN.txt	SCHOOL	6	21	[0, 0, 0]	n/a	FR1	0	R1166D
2725.649	0.883	2735058	WORD_OFF	n/a	n/a	SCHOOL	6	21	[0, 0, 0]	n/a	FR1	0	R1166D
2726.532	1.617	2735941	WORD	n/a	wordpools/wordpool_EN.txt	WHEEL	7	21	[0, 0, 0]	n/a	FR1	0	R1166D
2728.149	0.884	2737558	WORD_OFF	n/a	n/a	WHEEL	7	21	[0, 0, 0]	n/a	FR1	0	R1166D
2729.033	1.617	2738442	WORD	n/a	wordpools/wordpool_EN.txt	TEETH	8	21	[0, 0, 0]	n/a	FR1	0	R1166D
2730.65	0.85	2740059	WORD_OFF	n/a	n/a	TEETH	8	21	[0, 0, 0]	n/a	FR1	0	R1166D
2731.5	1.617	2740909	WORD	n/a	wordpools/wordpool_EN.txt	SKI	9	21	[0, 0, 0]	n/a	FR1	0	R1166D
2733.117	0.95	2742526	WORD_OFF	n/a	n/a	SKI	9	21	[0, 0, 0]	n/a	FR1	0	R1166D
2734.067	1.617	2743476	WORD	n/a	wordpools/wordpool_EN.txt	HORSE	10	21	[0, 0, 0]	n/a	FR1	0	R1166D
2735.684	0.983	2745093	WORD_OFF	n/a	n/a	HORSE	10	21	[0, 0, 0]	n/a	FR1	0	R1166D
2736.667	1.617	2746075	WORD	n/a	wordpools/wordpool_EN.txt	COW	11	21	[0, 0, 0]	n/a	FR1	0	R1166D
2738.284	0.834	2747692	WORD_OFF	n/a	n/a	COW	11	21	[0, 0, 0]	n/a	FR1	0	R1166D
2739.118	1.618	2748526	WORD	n/a	wordpools/wordpool_EN.txt	FLAG	12	21	[0, 0, 0]	n/a	FR1	0	R1166D
2740.736	0.0	2750144	WORD_OFF	n/a	n/a	FLAG	12	21	[0, 0, 0]	n/a	FR1	0	R1166D
2740.736	0.0	2750144	DISTRACT_START	n/a	n/a	n/a	-999	21	[0, 0, 0]	n/a	FR1	0	R1166D
2740.736	0.016	2750144	START	n/a	n/a	n/a	-999	21	[-999, -999, -999]	n/a	FR1	0	R1166D
2740.752	4.15	2750160	PROB	4.15	n/a	n/a	-999	21	[4, 6, 1]	11	FR1	0	R1166D
2744.902	6.785	2754310	PROB	6.785	n/a	n/a	-999	21	[8, 5, 7]	20	FR1	0	R1166D
2751.687	5.301	2761095	PROB	5.301	n/a	n/a	-999	21	[3, 9, 9]	21	FR1	0	R1166D
2756.988	13.28	2766395	PROB	13.28	n/a	n/a	-999	21	[6, 3, 6]	15	FR1	0	R1166D
2770.268	0.005	2779675	STOP	n/a	n/a	n/a	-999	21	[-999, -999, -999]	n/a	FR1	0	R1166D
2770.273	0.617	2779680	DISTRACT_END	n/a	n/a	n/a	-999	21	[0, 0, 0]	n/a	FR1	0	R1166D
2770.89	0.518	2780297	RETRIEVAL_ORIENT	n/a	n/a	n/a	-999	21	[0, 0, 0]	n/a	FR1	0	R1166D
2771.408	5.42	2780815	REC_START	n/a	n/a	n/a	-999	21	[0, 0, 0]	n/a	FR1	0	R1166D
2776.828	11.12	2786234	REC_WORD	11.12	n/a	SKI	9	21	[0, 0, 0]	n/a	FR1	0	R1166D
2787.948	13.469	2797354	REC_WORD	13.469	n/a	GLAIVE	-999	21	[0, 0, 0]	n/a	FR1	0	R1166D
2801.417	6.663	2810822	REC_END	n/a	n/a	n/a	-999	21	[0, 0, 0]	n/a	FR1	0	R1166D
2808.08	0.5	2817485	TRIAL	n/a	n/a	n/a	-999	22	[0, 0, 0]	n/a	FR1	0	R1166D
2808.58	10.428	2817985	COUNTDOWN_START	n/a	n/a	n/a	-999	22	[0, 0, 0]	n/a	FR1	0	R1166D
2819.008	0.008	2828412	COUNTDOWN_END	n/a	n/a	n/a	-999	22	[0, 0, 0]	n/a	FR1	0	R1166D
2819.016	1.617	2828420	ORIENT	n/a	n/a	n/a	-999	22	[0, 0, 0]	n/a	FR1	0	R1166D
2820.633	2.183	2830037	ORIENT_OFF	n/a	n/a	n/a	-999	22	[0, 0, 0]	n/a	FR1	0	R1166D
2822.816	1.617	2832220	WORD	n/a	wordpools/wordpool_EN.txt	CUP	1	22	[0, 0, 0]	n/a	FR1	0	R1166D
2824.433	0.867	2833837	WORD_OFF	n/a	n/a	CUP	1	22	[0, 0, 0]	n/a	FR1	0	R1166D
2825.3	1.617	2834704	WORD	n/a	wordpools/wordpool_EN.txt	VEST	2	22	[0, 0, 0]	n/a	FR1	0	R1166D
2826.917	0.818	2836321	WORD_OFF	n/a	n/a	VEST	2	22	[0, 0, 0]	n/a	FR1	0	R1166D
2827.735	1.616	2837139	WORD	n/a	wordpools/wordpool_EN.txt	CORD	3	22	[0, 0, 0]	n/a	FR1	0	R1166D
2829.351	0.867	2838754	WORD_OFF	n/a	n/a	CORD	3	22	[0, 0, 0]	n/a	FR1	0	R1166D
2830.218	1.617	2839621	WORD	n/a	wordpools/wordpool_EN.txt	GLASS	4	22	[0, 0, 0]	n/a	FR1	0	R1166D
2831.835	0.967	2841238	WORD_OFF	n/a	n/a	GLASS	4	22	[0, 0, 0]	n/a	FR1	0	R1166D
2832.802	1.617	2842205	WORD	n/a	wordpools/wordpool_EN.txt	MILK	5	22	[0, 0, 0]	n/a	FR1	0	R1166D
2834.419	0.933	2843822	WORD_OFF	n/a	n/a	MILK	5	22	[0, 0, 0]	n/a	FR1	0	R1166D
2835.352	1.617	2844755	WORD	n/a	wordpools/wordpool_EN.txt	FISH	6	22	[0, 0, 0]	n/a	FR1	0	R1166D
2836.969	0.768	2846372	WORD_OFF	n/a	n/a	FISH	6	22	[0, 0, 0]	n/a	FR1	0	R1166D
2837.737	1.616	2847140	WORD	n/a	wordpools/wordpool_EN.txt	GRAPE	7	22	[0, 0, 0]	n/a	FR1	0	R1166D
2839.353	0.933	2848756	WORD_OFF	n/a	n/a	GRAPE	7	22	[0, 0, 0]	n/a	FR1	0	R1166D
2840.286	1.617	2849689	WORD	n/a	wordpools/wordpool_EN.txt	HEART	8	22	[0, 0, 0]	n/a	FR1	0	R1166D
2841.903	0.9	2851306	WORD_OFF	n/a	n/a	HEART	8	22	[0, 0, 0]	n/a	FR1	0	R1166D
2842.803	1.617	2852206	WORD	n/a	wordpools/wordpool_EN.txt	TRASH	9	22	[0, 0, 0]	n/a	FR1	0	R1166D
2844.42	0.834	2853823	WORD_OFF	n/a	n/a	TRASH	9	22	[0, 0, 0]	n/a	FR1	0	R1166D
2845.254	1.617	2854657	WORD	n/a	wordpools/wordpool_EN.txt	HOOF	10	22	[0, 0, 0]	n/a	FR1	0	R1166D
2846.871	0.983	2856274	WORD_OFF	n/a	n/a	HOOF	10	22	[0, 0, 0]	n/a	FR1	0	R1166D
2847.854	1.617	2857256	WORD	n/a	wordpools/wordpool_EN.txt	PET	11	22	[0, 0, 0]	n/a	FR1	0	R1166D
2849.471	0.817	2858873	WORD_OFF	n/a	n/a	PET	11	22	[0, 0, 0]	n/a	FR1	0	R1166D
2850.288	1.617	2859690	WORD	n/a	wordpools/wordpool_EN.txt	CLAY	12	22	[0, 0, 0]	n/a	FR1	0	R1166D
2851.905	0.0	2861307	WORD_OFF	n/a	n/a	CLAY	12	22	[0, 0, 0]	n/a	FR1	0	R1166D
2851.905	0.001	2861307	DISTRACT_START	n/a	n/a	n/a	-999	22	[0, 0, 0]	n/a	FR1	0	R1166D
2851.906	0.016	2861308	START	n/a	n/a	n/a	-999	22	[-999, -999, -999]	n/a	FR1	0	R1166D
2851.922	8.285	2861324	PROB	8.285	n/a	n/a	-999	22	[4, 4, 9]	17	FR1	0	R1166D
2860.207	5.067	2869609	PROB	5.067	n/a	n/a	-999	22	[5, 6, 8]	19	FR1	0	R1166D
2865.274	4.768	2874676	PROB	4.768	n/a	n/a	-999	22	[5, 3, 4]	12	FR1	0	R1166D
2870.042	5.018	2879443	PROB	5.018	n/a	n/a	-999	22	[9, 2, 4]	15	FR1	0	R1166D
2875.06	0.016	2884461	STOP	n/a	n/a	n/a	-999	22	[-999, -999, -999]	n/a	FR1	0	R1166D
2875.076	0.617	2884477	DISTRACT_END	n/a	n/a	n/a	-999	22	[0, 0, 0]	n/a	FR1	0	R1166D
2875.693	0.517	2885094	RETRIEVAL_ORIENT	n/a	n/a	n/a	-999	22	[0, 0, 0]	n/a	FR1	0	R1166D
2876.21	3.172	2885611	REC_START	n/a	n/a	n/a	-999	22	[0, 0, 0]	n/a	FR1	0	R1166D
2879.382	26.841	2888783	REC_WORD	26.841	n/a	CLAY	12	22	[0, 0, 0]	n/a	FR1	0	R1166D
2906.223	5.36	2915622	REC_END	n/a	n/a	n/a	-999	22	[0, 0, 0]	n/a	FR1	0	R1166D
2911.583	0.5	2920982	TRIAL	n/a	n/a	n/a	-999	23	[0, 0, 0]	n/a	FR1	0	R1166D
2912.083	10.428	2921482	COUNTDOWN_START	n/a	n/a	n/a	-999	23	[0, 0, 0]	n/a	FR1	0	R1166D
2922.511	0.007	2931909	COUNTDOWN_END	n/a	n/a	n/a	-999	23	[0, 0, 0]	n/a	FR1	0	R1166D
2922.518	1.617	2931916	ORIENT	n/a	n/a	n/a	-999	23	[0, 0, 0]	n/a	FR1	0	R1166D
2924.135	2.0	2933533	ORIENT_OFF	n/a	n/a	n/a	-999	23	[0, 0, 0]	n/a	FR1	0	R1166D
2926.135	1.601	2935533	WORD	n/a	wordpools/wordpool_EN.txt	GATE	1	23	[0, 0, 0]	n/a	FR1	0	R1166D
2927.736	0.9	2937134	WORD_OFF	n/a	n/a	GATE	1	23	[0, 0, 0]	n/a	FR1	0	R1166D
2928.636	1.617	2938034	WORD	n/a	wordpools/wordpool_EN.txt	TAIL	2	23	[0, 0, 0]	n/a	FR1	0	R1166D
2930.253	0.833	2939651	WORD_OFF	n/a	n/a	TAIL	2	23	[0, 0, 0]	n/a	FR1	0	R1166D
2931.086	1.617	2940484	WORD	n/a	wordpools/wordpool_EN.txt	TREE	3	23	[0, 0, 0]	n/a	FR1	0	R1166D
2932.703	0.85	2942101	WORD_OFF	n/a	n/a	TREE	3	23	[0, 0, 0]	n/a	FR1	0	R1166D
2933.553	1.617	2942951	WORD	n/a	wordpools/wordpool_EN.txt	BIRD	4	23	[0, 0, 0]	n/a	FR1	0	R1166D
2935.17	0.884	2944568	WORD_OFF	n/a	n/a	BIRD	4	23	[0, 0, 0]	n/a	FR1	0	R1166D
2936.054	1.617	2945452	WORD	n/a	wordpools/wordpool_EN.txt	SWAMP	5	23	[0, 0, 0]	n/a	FR1	0	R1166D
2937.671	0.817	2947069	WORD_OFF	n/a	n/a	SWAMP	5	23	[0, 0, 0]	n/a	FR1	0	R1166D
2938.488	1.617	2947886	WORD	n/a	wordpools/wordpool_EN.txt	LAKE	6	23	[0, 0, 0]	n/a	FR1	0	R1166D
2940.105	0.966	2949502	WORD_OFF	n/a	n/a	LAKE	6	23	[0, 0, 0]	n/a	FR1	0	R1166D
2941.071	1.617	2950468	WORD	n/a	wordpools/wordpool_EN.txt	DART	7	23	[0, 0, 0]	n/a	FR1	0	R1166D
2942.688	0.934	2952085	WORD_OFF	n/a	n/a	DART	7	23	[0, 0, 0]	n/a	FR1	0	R1166D
2943.622	1.617	2953019	WORD	n/a	wordpools/wordpool_EN.txt	DEER	8	23	[0, 0, 0]	n/a	FR1	0	R1166D
2945.239	0.933	2954636	WORD_OFF	n/a	n/a	DEER	8	23	[0, 0, 0]	n/a	FR1	0	R1166D
2946.172	1.617	2955569	WORD	n/a	wordpools/wordpool_EN.txt	VINE	9	23	[0, 0, 0]	n/a	FR1	0	R1166D
2947.789	0.85	2957186	WORD_OFF	n/a	n/a	VINE	9	23	[0, 0, 0]	n/a	FR1	0	R1166D
2948.639	1.617	2958036	WORD	n/a	wordpools/wordpool_EN.txt	BRANCH	10	23	[0, 0, 0]	n/a	FR1	0	R1166D
2950.256	0.801	2959653	WORD_OFF	n/a	n/a	BRANCH	10	23	[0, 0, 0]	n/a	FR1	0	R1166D
2951.057	1.616	2960454	WORD	n/a	wordpools/wordpool_EN.txt	FORT	11	23	[0, 0, 0]	n/a	FR1	0	R1166D
2952.673	0.967	2962070	WORD_OFF	n/a	n/a	FORT	11	23	[0, 0, 0]	n/a	FR1	0	R1166D
2953.64	1.617	2963037	WORD	n/a	wordpools/wordpool_EN.txt	BUSH	12	23	[0, 0, 0]	n/a	FR1	0	R1166D
2955.257	0.0	2964654	WORD_OFF	n/a	n/a	BUSH	12	23	[0, 0, 0]	n/a	FR1	0	R1166D
2955.257	0.001	2964654	DISTRACT_START	n/a	n/a	n/a	-999	23	[0, 0, 0]	n/a	FR1	0	R1166D
2955.258	0.016	2964655	START	n/a	n/a	n/a	-999	23	[-999, -999, -999]	n/a	FR1	0	R1166D
2955.274	7.585	2964671	PROB	7.585	n/a	n/a	-999	23	[6, 6, 8]	20	FR1	0	R1166D
2962.859	9.868	2972255	PROB	9.868	n/a	n/a	-999	23	[7, 9, 8]	24	FR1	0	R1166D
2972.727	3.388	2982123	PROB	3.388	n/a	n/a	-999	23	[2, 5, 2]	9	FR1	0	R1166D
2976.115	0.013	2985510	STOP	n/a	n/a	n/a	-999	23	[-999, -999, -999]	n/a	FR1	0	R1166D
2976.128	0.618	2985523	DISTRACT_END	n/a	n/a	n/a	-999	23	[0, 0, 0]	n/a	FR1	0	R1166D
2976.746	0.516	2986141	RETRIEVAL_ORIENT	n/a	n/a	n/a	-999	23	[0, 0, 0]	n/a	FR1	0	R1166D
2977.262	18.138	2986657	REC_START	n/a	n/a	n/a	-999	23	[0, 0, 0]	n/a	FR1	0	R1166D
2995.4	8.203	3004794	REC_WORD	8.203	n/a	FORT	11	23	[0, 0, 0]	n/a	FR1	0	R1166D
3003.603	3.672	3012997	REC_WORD	3.672	n/a	BUSH	12	23	[0, 0, 0]	n/a	FR1	0	R1166D
3007.275	5.676	3016669	REC_END	n/a	n/a	n/a	-999	23	[0, 0, 0]	n/a	FR1	0	R1166D
3012.951	0.5	3022345	TRIAL	n/a	n/a	n/a	-999	24	[0, 0, 0]	n/a	FR1	0	R1166D
3013.451	10.428	3022844	COUNTDOWN_START	n/a	n/a	n/a	-999	24	[0, 0, 0]	n/a	FR1	0	R1166D
3023.879	0.008	3033272	COUNTDOWN_END	n/a	n/a	n/a	-999	24	[0, 0, 0]	n/a	FR1	0	R1166D
3023.887	1.616	3033280	ORIENT	n/a	n/a	n/a	-999	24	[0, 0, 0]	n/a	FR1	0	R1166D
3025.503	1.868	3034896	ORIENT_OFF	n/a	n/a	n/a	-999	24	[0, 0, 0]	n/a	FR1	0	R1166D
3027.371	1.617	3036764	WORD	n/a	wordpools/wordpool_EN.txt	PLANT	1	24	[0, 0, 0]	n/a	FR1	0	R1166D
3028.988	0.933	3038381	WORD_OFF	n/a	n/a	PLANT	1	24	[0, 0, 0]	n/a	FR1	0	R1166D
3029.921	1.617	3039314	WORD	n/a	wordpools/wordpool_EN.txt	MUG	2	24	[0, 0, 0]	n/a	FR1	0	R1166D
3031.538	0.95	3040930	WORD_OFF	n/a	n/a	MUG	2	24	[0, 0, 0]	n/a	FR1	0	R1166D
3032.488	1.617	3041880	WORD	n/a	wordpools/wordpool_EN.txt	STRAW	3	24	[0, 0, 0]	n/a	FR1	0	R1166D
3034.105	0.967	3043497	WORD_OFF	n/a	n/a	STRAW	3	24	[0, 0, 0]	n/a	FR1	0	R1166D
3035.072	1.617	3044464	WORD	n/a	wordpools/wordpool_EN.txt	CAVE	4	24	[0, 0, 0]	n/a	FR1	0	R1166D
3036.689	1.0	3046081	WORD_OFF	n/a	n/a	CAVE	4	24	[0, 0, 0]	n/a	FR1	0	R1166D
3037.689	1.617	3047081	WORD	n/a	wordpools/wordpool_EN.txt	RICE	5	24	[0, 0, 0]	n/a	FR1	0	R1166D
3039.306	0.867	3048698	WORD_OFF	n/a	n/a	RICE	5	24	[0, 0, 0]	n/a	FR1	0	R1166D
3040.173	1.617	3049565	WORD	n/a	wordpools/wordpool_EN.txt	CAT	6	24	[0, 0, 0]	n/a	FR1	0	R1166D
3041.79	0.817	3051182	WORD_OFF	n/a	n/a	CAT	6	24	[0, 0, 0]	n/a	FR1	0	R1166D
3042.607	1.617	3051999	WORD	n/a	wordpools/wordpool_EN.txt	OAR	7	24	[0, 0, 0]	n/a	FR1	0	R1166D
3044.224	0.916	3053616	WORD_OFF	n/a	n/a	OAR	7	24	[0, 0, 0]	n/a	FR1	0	R1166D
3045.14	1.618	3054532	WORD	n/a	wordpools/wordpool_EN.txt	DUCK	8	24	[0, 0, 0]	n/a	FR1	0	R1166D
3046.758	0.833	3056150	WORD_OFF	n/a	n/a	DUCK	8	24	[0, 0, 0]	n/a	FR1	0	R1166D
3047.591	1.617	3056983	WORD	n/a	wordpools/wordpool_EN.txt	RAT	9	24	[0, 0, 0]	n/a	FR1	0	R1166D
3049.208	0.833	3058600	WORD_OFF	n/a	n/a	RAT	9	24	[0, 0, 0]	n/a	FR1	0	R1166D
3050.041	1.617	3059432	WORD	n/a	wordpools/wordpool_EN.txt	STONE	10	24	[0, 0, 0]	n/a	FR1	0	R1166D
3051.658	0.917	3061049	WORD_OFF	n/a	n/a	STONE	10	24	[0, 0, 0]	n/a	FR1	0	R1166D
3052.575	1.617	3061966	WORD	n/a	wordpools/wordpool_EN.txt	BARN	11	24	[0, 0, 0]	n/a	FR1	0	R1166D
3054.192	0.934	3063583	WORD_OFF	n/a	n/a	BARN	11	24	[0, 0, 0]	n/a	FR1	0	R1166D
3055.126	1.618	3064517	WORD	n/a	wordpools/wordpool_EN.txt	FRUIT	12	24	[0, 0, 0]	n/a	FR1	0	R1166D
3056.744	0.0	3066135	WORD_OFF	n/a	n/a	FRUIT	12	24	[0, 0, 0]	n/a	FR1	0	R1166D
3056.744	0.0	3066135	DISTRACT_START	n/a	n/a	n/a	-999	24	[0, 0, 0]	n/a	FR1	0	R1166D
3056.744	0.016	3066135	START	n/a	n/a	n/a	-999	24	[-999, -999, -999]	n/a	FR1	0	R1166D
3056.76	4.25	3066151	PROB	4.25	n/a	n/a	-999	24	[6, 1, 6]	13	FR1	0	R1166D
3061.01	3.984	3070401	PROB	3.984	n/a	n/a	-999	24	[5, 3, 3]	11	FR1	0	R1166D
3064.994	4.151	3074385	PROB	4.151	n/a	n/a	-999	24	[7, 1, 1]	9	FR1	0	R1166D
3069.145	4.584	3078535	PROB	4.584	n/a	n/a	-999	24	[6, 2, 5]	13	FR1	0	R1166D
3073.729	9.971	3083119	PROB	9.971	n/a	n/a	-999	24	[3, 3, 9]	15	FR1	0	R1166D
3083.7	0.014	3093090	STOP	n/a	n/a	n/a	-999	24	[-999, -999, -999]	n/a	FR1	0	R1166D
3083.714	0.634	3093104	DISTRACT_END	n/a	n/a	n/a	-999	24	[0, 0, 0]	n/a	FR1	0	R1166D
3084.348	0.517	3093738	RETRIEVAL_ORIENT	n/a	n/a	n/a	-999	24	[0, 0, 0]	n/a	FR1	0	R1166D
3084.865	30.0	3094255	REC_START	n/a	n/a	n/a	-999	24	[0, 0, 0]	n/a	FR1	0	R1166D
3114.865	0.012	3124253	REC_WORD_VV	0.012	n/a	<>	-999	24	[0, 0, 0]	n/a	FR1	0	R1166D
3114.877	5.944	3124265	REC_END	n/a	n/a	n/a	-999	24	[0, 0, 0]	n/a	FR1	0	R1166D
3120.821	0.5	3130209	TRIAL	n/a	n/a	n/a	-999	25	[0, 0, 0]	n/a	FR1	0	R1166D
3121.321	10.428	3130709	COUNTDOWN_START	n/a	n/a	n/a	-999	25	[0, 0, 0]	n/a	FR1	0	R1166D
3131.749	0.008	3141136	COUNTDOWN_END	n/a	n/a	n/a	-999	25	[0, 0, 0]	n/a	FR1	0	R1166D
3131.757	1.616	3141144	ORIENT	n/a	n/a	n/a	-999	25	[0, 0, 0]	n/a	FR1	0	R1166D
3133.373	2.351	3142760	ORIENT_OFF	n/a	n/a	n/a	-999	25	[0, 0, 0]	n/a	FR1	0	R1166D
3135.724	1.617	3145111	WORD	n/a	wordpools/wordpool_EN.txt	PALM	1	25	[0, 0, 0]	n/a	FR1	0	R1166D
3137.341	0.95	3146728	WORD_OFF	n/a	n/a	PALM	1	25	[0, 0, 0]	n/a	FR1	0	R1166D
3138.291	1.617	3147678	WORD	n/a	wordpools/wordpool_EN.txt	CHIN	2	25	[0, 0, 0]	n/a	FR1	0	R1166D
3139.908	0.834	3149295	WORD_OFF	n/a	n/a	CHIN	2	25	[0, 0, 0]	n/a	FR1	0	R1166D
3140.742	1.616	3150129	WORD	n/a	wordpools/wordpool_EN.txt	SHIELD	3	25	[0, 0, 0]	n/a	FR1	0	R1166D
3142.358	0.95	3151744	WORD_OFF	n/a	n/a	SHIELD	3	25	[0, 0, 0]	n/a	FR1	0	R1166D
3143.308	1.617	3152694	WORD	n/a	wordpools/wordpool_EN.txt	STOOL	4	25	[0, 0, 0]	n/a	FR1	0	R1166D
3144.925	1.0	3154311	WORD_OFF	n/a	n/a	STOOL	4	25	[0, 0, 0]	n/a	FR1	0	R1166D
3145.925	1.617	3155311	WORD	n/a	wordpools/wordpool_EN.txt	ROSE	5	25	[0, 0, 0]	n/a	FR1	0	R1166D
3147.542	0.834	3156928	WORD_OFF	n/a	n/a	ROSE	5	25	[0, 0, 0]	n/a	FR1	0	R1166D
3148.376	1.617	3157762	WORD	n/a	wordpools/wordpool_EN.txt	SPRING	6	25	[0, 0, 0]	n/a	FR1	0	R1166D
3149.993	0.95	3159379	WORD_OFF	n/a	n/a	SPRING	6	25	[0, 0, 0]	n/a	FR1	0	R1166D
3150.943	1.617	3160329	WORD	n/a	wordpools/wordpool_EN.txt	OAK	7	25	[0, 0, 0]	n/a	FR1	0	R1166D
3152.56	0.884	3161946	WORD_OFF	n/a	n/a	OAK	7	25	[0, 0, 0]	n/a	FR1	0	R1166D
3153.444	1.617	3162830	WORD	n/a	wordpools/wordpool_EN.txt	SLEEVE	8	25	[0, 0, 0]	n/a	FR1	0	R1166D
3155.061	0.883	3164447	WORD_OFF	n/a	n/a	SLEEVE	8	25	[0, 0, 0]	n/a	FR1	0	R1166D
3155.944	1.617	3165330	WORD	n/a	wordpools/wordpool_EN.txt	HOLE	9	25	[0, 0, 0]	n/a	FR1	0	R1166D
3157.561	0.95	3166947	WORD_OFF	n/a	n/a	HOLE	9	25	[0, 0, 0]	n/a	FR1	0	R1166D
3158.511	1.617	3167897	WORD	n/a	wordpools/wordpool_EN.txt	SLIME	10	25	[0, 0, 0]	n/a	FR1	0	R1166D
3160.128	0.867	3169514	WORD_OFF	n/a	n/a	SLIME	10	25	[0, 0, 0]	n/a	FR1	0	R1166D
3160.995	1.617	3170380	WORD	n/a	wordpools/wordpool_EN.txt	PIT	11	25	[0, 0, 0]	n/a	FR1	0	R1166D
3162.612	0.85	3171997	WORD_OFF	n/a	n/a	PIT	11	25	[0, 0, 0]	n/a	FR1	0	R1166D
3163.462	1.617	3172847	WORD	n/a	wordpools/wordpool_EN.txt	SPEAR	12	25	[0, 0, 0]	n/a	FR1	0	R1166D
3165.079	0.0	3174464	WORD_OFF	n/a	n/a	SPEAR	12	25	[0, 0, 0]	n/a	FR1	0	R1166D
3165.079	0.001	3174464	DISTRACT_START	n/a	n/a	n/a	-999	25	[0, 0, 0]	n/a	FR1	0	R1166D
3165.08	0.016	3174465	START	n/a	n/a	n/a	-999	25	[-999, -999, -999]	n/a	FR1	0	R1166D
3165.096	10.718	3174481	PROB	10.718	n/a	n/a	-999	25	[7, 2, 8]	17	FR1	0	R1166D
3175.814	8.985	3185199	PROB	8.985	n/a	n/a	-999	25	[4, 4, 3]	11	FR1	0	R1166D
3184.799	3.149	3194183	PROB	3.149	n/a	n/a	-999	25	[4, 8, 1]	13	FR1	0	R1166D
3187.948	0.019	3197332	STOP	n/a	n/a	n/a	-999	25	[-999, -999, -999]	n/a	FR1	0	R1166D
3187.967	0.65	3197351	DISTRACT_END	n/a	n/a	n/a	-999	25	[0, 0, 0]	n/a	FR1	0	R1166D
3188.617	0.517	3198001	RETRIEVAL_ORIENT	n/a	n/a	n/a	-999	25	[0, 0, 0]	n/a	FR1	0	R1166D
3189.134	5.453	3198518	REC_START	n/a	n/a	n/a	-999	25	[0, 0, 0]	n/a	FR1	0	R1166D
3194.587	17.177	3203971	REC_WORD	17.177	n/a	SLIME	10	25	[0, 0, 0]	n/a	FR1	0	R1166D
3211.764	7.383	3221147	REC_WORD	7.383	n/a	STOOL	4	25	[0, 0, 0]	n/a	FR1	0	R1166D
3219.147	16.828	3228529	REC_END	n/a	n/a	n/a	-999	25	[0, 0, 0]	n/a	FR1	0	R1166D
3235.975	0.0	3245356	SESS_END	n/a	n/a	n/a	-999	25	[0, 0, 0]	n/a	FR1	0	R1166D
