onset	duration	sample	trial_type	response_time	stim_file	item_name	serialpos	list	test	answer	experiment	session	subject
0.0	617.65	671	INSTRUCT_START	n/a	n/a	n/a	-999	-999	[0, 0, 0]	n/a	FR1	1	R1315T
617.65	11.019	618295	INSTRUCT_END	n/a	n/a	n/a	-999	-999	[0, 0, 0]	n/a	FR1	1	R1315T
628.669	6.725	629313	MIC TEST_START	n/a	n/a	n/a	-999	-999	[0, 0, 0]	n/a	FR1	1	R1315T
635.394	0.01	636038	MIC TEST_END	n/a	n/a	n/a	-999	-999	[0, 0, 0]	n/a	FR1	1	R1315T
635.404	0.0	636048	TRIAL_START	n/a	n/a	n/a	-999	-1	[0, 0, 0]	n/a	FR1	1	R1315T
635.404	0.0	636048	TRIAL	n/a	n/a	n/a	-999	-1	[0, 0, 0]	n/a	FR1	1	R1315T
635.404	24.653	636048	WAITING_START	n/a	n/a	n/a	-999	-1	[0, 0, 0]	n/a	FR1	1	R1315T
660.057	0.0	660700	WAITING_END	n/a	n/a	n/a	-999	-1	[0, 0, 0]	n/a	FR1	1	R1315T
660.057	10.43	660700	COUNTDOWN_START	n/a	n/a	n/a	-999	-1	[0, 0, 0]	n/a	FR1	1	R1315T
670.487	0.0	671130	COUNTDOWN_END	n/a	n/a	n/a	-999	-1	[0, 0, 0]	n/a	FR1	1	R1315T
670.487	1.239	671130	ORIENT_START	n/a	n/a	n/a	-999	-1	[0, 0, 0]	n/a	FR1	1	R1315T
671.726	0.001	672369	ORIENT_END	n/a	n/a	n/a	-999	-1	[0, 0, 0]	n/a	FR1	1	R1315T
671.727	0.788	672370	ENCODING_START	n/a	n/a	n/a	-999	-1	[0, 0, 0]	n/a	FR1	1	R1315T
672.515	1.627	673158	WORD	n/a	n/a	CAMEL	1	-1	[0, 0, 0]	n/a	FR1	1	R1315T
674.142	0.964	674784	WORD_OFF	n/a	n/a	CAMEL	1	-1	[0, 0, 0]	n/a	FR1	1	R1315T
675.106	1.638	675748	WORD	n/a	n/a	FLOOD	2	-1	[0, 0, 0]	n/a	FR1	1	R1315T
676.744	1.09	677386	WORD_OFF	n/a	n/a	FLOOD	2	-1	[0, 0, 0]	n/a	FR1	1	R1315T
677.834	1.611	678476	WORD	n/a	n/a	RHINO	3	-1	[0, 0, 0]	n/a	FR1	1	R1315T
679.445	1.068	680087	WORD_OFF	n/a	n/a	RHINO	3	-1	[0, 0, 0]	n/a	FR1	1	R1315T
680.513	1.631	681155	WORD	n/a	n/a	BEAM	4	-1	[0, 0, 0]	n/a	FR1	1	R1315T
682.144	0.805	682786	WORD_OFF	n/a	n/a	BEAM	4	-1	[0, 0, 0]	n/a	FR1	1	R1315T
682.949	1.613	683591	WORD	n/a	n/a	BABY	5	-1	[0, 0, 0]	n/a	FR1	1	R1315T
684.562	0.885	685204	WORD_OFF	n/a	n/a	BABY	5	-1	[0, 0, 0]	n/a	FR1	1	R1315T
685.447	1.631	686089	WORD	n/a	n/a	WAGON	6	-1	[0, 0, 0]	n/a	FR1	1	R1315T
687.078	0.761	687720	WORD_OFF	n/a	n/a	WAGON	6	-1	[0, 0, 0]	n/a	FR1	1	R1315T
687.839	1.624	688481	WORD	n/a	n/a	RING	7	-1	[0, 0, 0]	n/a	FR1	1	R1315T
689.463	0.807	690105	WORD_OFF	n/a	n/a	RING	7	-1	[0, 0, 0]	n/a	FR1	1	R1315T
690.27	1.626	690912	WORD	n/a	n/a	TONGUE	8	-1	[0, 0, 0]	n/a	FR1	1	R1315T
691.896	0.908	692538	WORD_OFF	n/a	n/a	TONGUE	8	-1	[0, 0, 0]	n/a	FR1	1	R1315T
692.804	1.627	693446	WORD	n/a	n/a	IMAGE	9	-1	[0, 0, 0]	n/a	FR1	1	R1315T
694.431	0.848	695073	WORD_OFF	n/a	n/a	IMAGE	9	-1	[0, 0, 0]	n/a	FR1	1	R1315T
695.279	1.634	695921	WORD	n/a	n/a	WATCH	10	-1	[0, 0, 0]	n/a	FR1	1	R1315T
696.913	1.003	697555	WORD_OFF	n/a	n/a	WATCH	10	-1	[0, 0, 0]	n/a	FR1	1	R1315T
697.916	1.632	698557	WORD	n/a	n/a	CHEST	11	-1	[0, 0, 0]	n/a	FR1	1	R1315T
699.548	0.961	700189	WORD_OFF	n/a	n/a	CHEST	11	-1	[0, 0, 0]	n/a	FR1	1	R1315T
700.509	1.622	701150	WORD	n/a	n/a	COTTON	12	-1	[0, 0, 0]	n/a	FR1	1	R1315T
702.131	0.0	702772	WORD_OFF	n/a	n/a	COTTON	12	-1	[0, 0, 0]	n/a	FR1	1	R1315T
702.131	0.001	702772	ENCODING_END	n/a	n/a	n/a	-999	-1	[0, 0, 0]	n/a	FR1	1	R1315T
702.132	0.0	702773	DISTRACT_START	n/a	n/a	n/a	-999	-1	[0, 0, 0]	n/a	FR1	1	R1315T
702.132	0.015	702773	START	n/a	n/a	n/a	-999	-1	[-999, -999, -999]	n/a	FR1	1	R1315T
702.147	3.884	702788	PROB	3.884	n/a	n/a	-999	-1	[8, 7, 1]	16	FR1	1	R1315T
706.031	6.286	706672	PROB	6.286	n/a	n/a	-999	-1	[6, 4, 9]	19	FR1	1	R1315T
712.317	4.267	712958	PROB	4.267	n/a	n/a	-999	-1	[2, 8, 6]	16	FR1	1	R1315T
716.584	3.751	717225	PROB	3.751	n/a	n/a	-999	-1	[1, 6, 7]	14	FR1	1	R1315T
720.335	7.434	720976	PROB	7.434	n/a	n/a	-999	-1	[8, 9, 9]	26	FR1	1	R1315T
727.769	0.017	728409	STOP	n/a	n/a	n/a	-999	-1	[-999, -999, -999]	n/a	FR1	1	R1315T
727.786	0.654	728426	DISTRACT_END	n/a	n/a	n/a	-999	-1	[0, 0, 0]	n/a	FR1	1	R1315T
728.44	1.696	729080	RETRIEVAL_ORIENT_START	n/a	n/a	n/a	-999	-1	[0, 0, 0]	n/a	FR1	1	R1315T
730.136	0.0	730776	RETRIEVAL_ORIENT_END	n/a	n/a	n/a	-999	-1	[0, 0, 0]	n/a	FR1	1	R1315T
730.136	1.534	730776	REC_START	n/a	n/a	n/a	-999	-1	[0, 0, 0]	n/a	FR1	1	R1315T
731.67	1.322	732310	REC_WORD	1.322	n/a	FLOOD	-999	-1	[0, 0, 0]	n/a	FR1	1	R1315T
732.992	27.156	733632	REC_WORD	27.156	n/a	CAMEL	-999	-1	[0, 0, 0]	n/a	FR1	1	R1315T
760.148	0.001	760787	REC_END	n/a	n/a	n/a	-999	-1	[0, 0, 0]	n/a	FR1	1	R1315T
760.149	3.445	760788	PRACTICE_POST_INSTRUCT_START	n/a	n/a	n/a	-999	-1	[0, 0, 0]	n/a	FR1	1	R1315T
763.594	0.0	764233	PRACTICE_POST_INSTRUCT_END	n/a	n/a	n/a	-999	-1	[0, 0, 0]	n/a	FR1	1	R1315T
763.594	0.018	764233	TRIAL_END	n/a	n/a	n/a	-999	-1	[0, 0, 0]	n/a	FR1	1	R1315T
763.612	0.001	764251	TRIAL_START	n/a	n/a	n/a	-999	1	[0, 0, 0]	n/a	FR1	1	R1315T
763.613	0.0	764252	WAITING_START	n/a	n/a	n/a	-999	1	[0, 0, 0]	n/a	FR1	1	R1315T
763.613	1.313	764252	TRIAL	n/a	n/a	n/a	-999	1	[0, 0, 0]	n/a	FR1	1	R1315T
764.926	0.0	765565	WAITING_END	n/a	n/a	n/a	-999	1	[0, 0, 0]	n/a	FR1	1	R1315T
764.926	10.429	765565	COUNTDOWN_START	n/a	n/a	n/a	-999	1	[0, 0, 0]	n/a	FR1	1	R1315T
775.355	0.001	775993	COUNTDOWN_END	n/a	n/a	n/a	-999	1	[0, 0, 0]	n/a	FR1	1	R1315T
775.356	1.089	775994	ORIENT_START	n/a	n/a	n/a	-999	1	[0, 0, 0]	n/a	FR1	1	R1315T
776.445	0.001	777083	ORIENT_END	n/a	n/a	n/a	-999	1	[0, 0, 0]	n/a	FR1	1	R1315T
776.446	1.007	777084	ENCODING_START	n/a	n/a	n/a	-999	1	[0, 0, 0]	n/a	FR1	1	R1315T
777.453	1.625	778091	WORD	n/a	wordpools/wordpool_EN.txt	PLANE	1	1	[0, 0, 0]	n/a	FR1	1	R1315T
779.078	0.844	779716	WORD_OFF	n/a	n/a	PLANE	1	1	[0, 0, 0]	n/a	FR1	1	R1315T
779.922	1.607	780560	WORD	n/a	wordpools/wordpool_EN.txt	VAN	2	1	[0, 0, 0]	n/a	FR1	1	R1315T
781.529	1.117	782167	WORD_OFF	n/a	n/a	VAN	2	1	[0, 0, 0]	n/a	FR1	1	R1315T
782.646	1.634	783284	WORD	n/a	wordpools/wordpool_EN.txt	SPRING	3	1	[0, 0, 0]	n/a	FR1	1	R1315T
784.28	0.989	784918	WORD_OFF	n/a	n/a	SPRING	3	1	[0, 0, 0]	n/a	FR1	1	R1315T
785.269	1.627	785907	WORD	n/a	wordpools/wordpool_EN.txt	PET	4	1	[0, 0, 0]	n/a	FR1	1	R1315T
786.896	0.836	787534	WORD_OFF	n/a	n/a	PET	4	1	[0, 0, 0]	n/a	FR1	1	R1315T
787.732	1.632	788370	WORD	n/a	wordpools/wordpool_EN.txt	WORLD	5	1	[0, 0, 0]	n/a	FR1	1	R1315T
789.364	0.823	790002	WORD_OFF	n/a	n/a	WORLD	5	1	[0, 0, 0]	n/a	FR1	1	R1315T
790.187	1.627	790825	WORD	n/a	wordpools/wordpool_EN.txt	JAIL	6	1	[0, 0, 0]	n/a	FR1	1	R1315T
791.814	1.028	792452	WORD_OFF	n/a	n/a	JAIL	6	1	[0, 0, 0]	n/a	FR1	1	R1315T
792.842	1.623	793479	WORD	n/a	wordpools/wordpool_EN.txt	HILL	7	1	[0, 0, 0]	n/a	FR1	1	R1315T
794.465	0.871	795102	WORD_OFF	n/a	n/a	HILL	7	1	[0, 0, 0]	n/a	FR1	1	R1315T
795.336	1.629	795973	WORD	n/a	wordpools/wordpool_EN.txt	FLUTE	8	1	[0, 0, 0]	n/a	FR1	1	R1315T
796.965	0.958	797602	WORD_OFF	n/a	n/a	FLUTE	8	1	[0, 0, 0]	n/a	FR1	1	R1315T
797.923	1.61	798560	WORD	n/a	wordpools/wordpool_EN.txt	WORM	9	1	[0, 0, 0]	n/a	FR1	1	R1315T
799.533	1.08	800170	WORD_OFF	n/a	n/a	WORM	9	1	[0, 0, 0]	n/a	FR1	1	R1315T
800.613	1.62	801250	WORD	n/a	wordpools/wordpool_EN.txt	YARD	10	1	[0, 0, 0]	n/a	FR1	1	R1315T
802.233	0.825	802870	WORD_OFF	n/a	n/a	YARD	10	1	[0, 0, 0]	n/a	FR1	1	R1315T
803.058	1.609	803695	WORD	n/a	wordpools/wordpool_EN.txt	OAK	11	1	[0, 0, 0]	n/a	FR1	1	R1315T
804.667	0.943	805304	WORD_OFF	n/a	n/a	OAK	11	1	[0, 0, 0]	n/a	FR1	1	R1315T
805.61	1.624	806247	WORD	n/a	wordpools/wordpool_EN.txt	BATH	12	1	[0, 0, 0]	n/a	FR1	1	R1315T
807.234	0.001	807871	WORD_OFF	n/a	n/a	BATH	12	1	[0, 0, 0]	n/a	FR1	1	R1315T
807.235	0.0	807872	ENCODING_END	n/a	n/a	n/a	-999	1	[0, 0, 0]	n/a	FR1	1	R1315T
807.235	0.0	807872	DISTRACT_START	n/a	n/a	n/a	-999	1	[0, 0, 0]	n/a	FR1	1	R1315T
807.235	0.016	807872	START	n/a	n/a	n/a	-999	1	[-999, -999, -999]	n/a	FR1	1	R1315T
807.251	4.067	807888	PROB	4.067	n/a	n/a	-999	1	[5, 3, 8]	16	FR1	1	R1315T
811.318	4.134	811955	PROB	4.134	n/a	n/a	-999	1	[4, 2, 3]	9	FR1	1	R1315T
815.452	3.533	816089	PROB	3.533	n/a	n/a	-999	1	[2, 1, 7]	10	FR1	1	R1315T
818.985	7.802	819621	PROB	7.802	n/a	n/a	-999	1	[3, 4, 5]	12	FR1	1	R1315T
826.787	7.895	827423	PROB	7.895	n/a	n/a	-999	1	[9, 8, 5]	22	FR1	1	R1315T
834.682	0.007	835318	STOP	n/a	n/a	n/a	-999	1	[-999, -999, -999]	n/a	FR1	1	R1315T
834.689	0.507	835325	DISTRACT_END	n/a	n/a	n/a	-999	1	[0, 0, 0]	n/a	FR1	1	R1315T
835.196	1.643	835832	RETRIEVAL_ORIENT_START	n/a	n/a	n/a	-999	1	[0, 0, 0]	n/a	FR1	1	R1315T
836.839	0.0	837475	REC_START	n/a	n/a	n/a	-999	1	[0, 0, 0]	n/a	FR1	1	R1315T
836.839	1.338	837475	RETRIEVAL_ORIENT_END	n/a	n/a	n/a	-999	1	[0, 0, 0]	n/a	FR1	1	R1315T
838.177	7.057	838813	REC_WORD	7.057	n/a	WORLD	5	1	[0, 0, 0]	n/a	FR1	1	R1315T
845.234	7.152	845869	REC_WORD	7.152	n/a	VAN	2	1	[0, 0, 0]	n/a	FR1	1	R1315T
852.386	14.465	853021	REC_WORD	14.465	n/a	PET	4	1	[0, 0, 0]	n/a	FR1	1	R1315T
866.851	0.0	867485	REC_END	n/a	n/a	n/a	-999	1	[0, 0, 0]	n/a	FR1	1	R1315T
866.851	0.014	867485	TRIAL_END	n/a	n/a	n/a	-999	1	[0, 0, 0]	n/a	FR1	1	R1315T
866.865	0.0	867499	TRIAL_START	n/a	n/a	n/a	-999	2	[0, 0, 0]	n/a	FR1	1	R1315T
866.865	0.0	867499	TRIAL	n/a	n/a	n/a	-999	2	[0, 0, 0]	n/a	FR1	1	R1315T
866.865	2.03	867499	WAITING_START	n/a	n/a	n/a	-999	2	[0, 0, 0]	n/a	FR1	1	R1315T
868.895	0.0	869529	WAITING_END	n/a	n/a	n/a	-999	2	[0, 0, 0]	n/a	FR1	1	R1315T
868.895	10.428	869529	COUNTDOWN_START	n/a	n/a	n/a	-999	2	[0, 0, 0]	n/a	FR1	1	R1315T
879.323	0.0	879957	COUNTDOWN_END	n/a	n/a	n/a	-999	2	[0, 0, 0]	n/a	FR1	1	R1315T
879.323	1.241	879957	ORIENT_START	n/a	n/a	n/a	-999	2	[0, 0, 0]	n/a	FR1	1	R1315T
880.564	0.001	881198	ORIENT_END	n/a	n/a	n/a	-999	2	[0, 0, 0]	n/a	FR1	1	R1315T
880.565	0.804	881199	ENCODING_START	n/a	n/a	n/a	-999	2	[0, 0, 0]	n/a	FR1	1	R1315T
881.369	1.628	882003	WORD	n/a	wordpools/wordpool_EN.txt	LAWN	1	2	[0, 0, 0]	n/a	FR1	1	R1315T
882.997	0.975	883631	WORD_OFF	n/a	n/a	LAWN	1	2	[0, 0, 0]	n/a	FR1	1	R1315T
883.972	1.61	884606	WORD	n/a	wordpools/wordpool_EN.txt	MAIL	2	2	[0, 0, 0]	n/a	FR1	1	R1315T
885.582	1.002	886216	WORD_OFF	n/a	n/a	MAIL	2	2	[0, 0, 0]	n/a	FR1	1	R1315T
886.584	1.632	887217	WORD	n/a	wordpools/wordpool_EN.txt	CLAY	3	2	[0, 0, 0]	n/a	FR1	1	R1315T
888.216	0.805	888849	WORD_OFF	n/a	n/a	CLAY	3	2	[0, 0, 0]	n/a	FR1	1	R1315T
889.021	1.612	889654	WORD	n/a	wordpools/wordpool_EN.txt	SOAP	4	2	[0, 0, 0]	n/a	FR1	1	R1315T
890.633	1.066	891266	WORD_OFF	n/a	n/a	SOAP	4	2	[0, 0, 0]	n/a	FR1	1	R1315T
891.699	1.634	892332	WORD	n/a	wordpools/wordpool_EN.txt	HOUSE	5	2	[0, 0, 0]	n/a	FR1	1	R1315T
893.333	1.149	893966	WORD_OFF	n/a	n/a	HOUSE	5	2	[0, 0, 0]	n/a	FR1	1	R1315T
894.482	1.634	895115	WORD	n/a	wordpools/wordpool_EN.txt	GLOVE	6	2	[0, 0, 0]	n/a	FR1	1	R1315T
896.116	0.787	896749	WORD_OFF	n/a	n/a	GLOVE	6	2	[0, 0, 0]	n/a	FR1	1	R1315T
896.903	1.631	897536	WORD	n/a	wordpools/wordpool_EN.txt	SLIME	7	2	[0, 0, 0]	n/a	FR1	1	R1315T
898.534	1.019	899167	WORD_OFF	n/a	n/a	SLIME	7	2	[0, 0, 0]	n/a	FR1	1	R1315T
899.553	1.631	900186	WORD	n/a	wordpools/wordpool_EN.txt	SMOKE	8	2	[0, 0, 0]	n/a	FR1	1	R1315T
901.184	0.973	901817	WORD_OFF	n/a	n/a	SMOKE	8	2	[0, 0, 0]	n/a	FR1	1	R1315T
902.157	1.627	902790	WORD	n/a	wordpools/wordpool_EN.txt	GRAPE	9	2	[0, 0, 0]	n/a	FR1	1	R1315T
903.784	0.812	904417	WORD_OFF	n/a	n/a	GRAPE	9	2	[0, 0, 0]	n/a	FR1	1	R1315T
904.596	1.623	905229	WORD	n/a	wordpools/wordpool_EN.txt	STEAK	10	2	[0, 0, 0]	n/a	FR1	1	R1315T
906.219	0.783	906852	WORD_OFF	n/a	n/a	STEAK	10	2	[0, 0, 0]	n/a	FR1	1	R1315T
907.002	1.634	907635	WORD	n/a	wordpools/wordpool_EN.txt	LAMB	11	2	[0, 0, 0]	n/a	FR1	1	R1315T
908.636	0.958	909269	WORD_OFF	n/a	n/a	LAMB	11	2	[0, 0, 0]	n/a	FR1	1	R1315T
909.594	1.626	910227	WORD	n/a	wordpools/wordpool_EN.txt	PIN	12	2	[0, 0, 0]	n/a	FR1	1	R1315T
911.22	0.0	911852	WORD_OFF	n/a	n/a	PIN	12	2	[0, 0, 0]	n/a	FR1	1	R1315T
911.22	0.001	911852	ENCODING_END	n/a	n/a	n/a	-999	2	[0, 0, 0]	n/a	FR1	1	R1315T
911.221	0.0	911853	DISTRACT_START	n/a	n/a	n/a	-999	2	[0, 0, 0]	n/a	FR1	1	R1315T
911.221	0.015	911853	START	n/a	n/a	n/a	-999	2	[-999, -999, -999]	n/a	FR1	1	R1315T
911.236	4.251	911868	PROB	4.251	n/a	n/a	-999	2	[7, 5, 2]	14	FR1	1	R1315T
915.487	3.834	916119	PROB	3.834	n/a	n/a	-999	2	[4, 5, 3]	12	FR1	1	R1315T
919.321	2.466	919953	PROB	2.466	n/a	n/a	-999	2	[1, 3, 7]	10	FR1	1	R1315T
921.787	6.686	922419	PROB	6.686	n/a	n/a	-999	2	[9, 6, 4]	19	FR1	1	R1315T
928.473	4.526	929105	PROB	4.526	n/a	n/a	-999	2	[6, 2, 3]	11	FR1	1	R1315T
932.999	0.007	933631	STOP	n/a	n/a	n/a	-999	2	[-999, -999, -999]	n/a	FR1	1	R1315T
933.006	0.641	933638	DISTRACT_END	n/a	n/a	n/a	-999	2	[0, 0, 0]	n/a	FR1	1	R1315T
933.647	1.594	934278	RETRIEVAL_ORIENT_START	n/a	n/a	n/a	-999	2	[0, 0, 0]	n/a	FR1	1	R1315T
935.241	0.0	935872	REC_START	n/a	n/a	n/a	-999	2	[0, 0, 0]	n/a	FR1	1	R1315T
935.241	1.232	935872	RETRIEVAL_ORIENT_END	n/a	n/a	n/a	-999	2	[0, 0, 0]	n/a	FR1	1	R1315T
936.473	4.168	937104	REC_WORD	4.168	n/a	LAWN	1	2	[0, 0, 0]	n/a	FR1	1	R1315T
940.641	5.827	941272	REC_WORD	5.827	n/a	SMILE	-999	2	[0, 0, 0]	n/a	FR1	1	R1315T
946.468	18.787	947099	REC_WORD	18.787	n/a	HOUSE	5	2	[0, 0, 0]	n/a	FR1	1	R1315T
965.255	0.0	965885	REC_END	n/a	n/a	n/a	-999	2	[0, 0, 0]	n/a	FR1	1	R1315T
965.255	0.017	965885	TRIAL_END	n/a	n/a	n/a	-999	2	[0, 0, 0]	n/a	FR1	1	R1315T
965.272	0.0	965902	TRIAL	n/a	n/a	n/a	-999	3	[0, 0, 0]	n/a	FR1	1	R1315T
965.272	0.0	965902	TRIAL_START	n/a	n/a	n/a	-999	3	[0, 0, 0]	n/a	FR1	1	R1315T
965.272	2.208	965902	WAITING_START	n/a	n/a	n/a	-999	3	[0, 0, 0]	n/a	FR1	1	R1315T
967.48	0.001	968110	WAITING_END	n/a	n/a	n/a	-999	3	[0, 0, 0]	n/a	FR1	1	R1315T
967.481	10.428	968111	COUNTDOWN_START	n/a	n/a	n/a	-999	3	[0, 0, 0]	n/a	FR1	1	R1315T
977.909	0.0	978539	COUNTDOWN_END	n/a	n/a	n/a	-999	3	[0, 0, 0]	n/a	FR1	1	R1315T
977.909	1.122	978539	ORIENT_START	n/a	n/a	n/a	-999	3	[0, 0, 0]	n/a	FR1	1	R1315T
979.031	0.0	979661	ORIENT_END	n/a	n/a	n/a	-999	3	[0, 0, 0]	n/a	FR1	1	R1315T
979.031	0.92	979661	ENCODING_START	n/a	n/a	n/a	-999	3	[0, 0, 0]	n/a	FR1	1	R1315T
979.951	1.632	980581	WORD	n/a	wordpools/wordpool_EN.txt	LOCK	1	3	[0, 0, 0]	n/a	FR1	1	R1315T
981.583	0.942	982212	WORD_OFF	n/a	n/a	LOCK	1	3	[0, 0, 0]	n/a	FR1	1	R1315T
982.525	1.624	983154	WORD	n/a	wordpools/wordpool_EN.txt	MOOSE	2	3	[0, 0, 0]	n/a	FR1	1	R1315T
984.149	1.144	984778	WORD_OFF	n/a	n/a	MOOSE	2	3	[0, 0, 0]	n/a	FR1	1	R1315T
985.293	1.623	985922	WORD	n/a	wordpools/wordpool_EN.txt	CUP	3	3	[0, 0, 0]	n/a	FR1	1	R1315T
986.916	0.884	987545	WORD_OFF	n/a	n/a	CUP	3	3	[0, 0, 0]	n/a	FR1	1	R1315T
987.8	1.634	988429	WORD	n/a	wordpools/wordpool_EN.txt	DOLL	4	3	[0, 0, 0]	n/a	FR1	1	R1315T
989.434	0.882	990063	WORD_OFF	n/a	n/a	DOLL	4	3	[0, 0, 0]	n/a	FR1	1	R1315T
990.316	1.634	990945	WORD	n/a	wordpools/wordpool_EN.txt	SPEAR	5	3	[0, 0, 0]	n/a	FR1	1	R1315T
991.95	0.802	992579	WORD_OFF	n/a	n/a	SPEAR	5	3	[0, 0, 0]	n/a	FR1	1	R1315T
992.752	1.633	993381	WORD	n/a	wordpools/wordpool_EN.txt	VEST	6	3	[0, 0, 0]	n/a	FR1	1	R1315T
994.385	0.971	995014	WORD_OFF	n/a	n/a	VEST	6	3	[0, 0, 0]	n/a	FR1	1	R1315T
995.356	1.628	995985	WORD	n/a	wordpools/wordpool_EN.txt	CASH	7	3	[0, 0, 0]	n/a	FR1	1	R1315T
996.984	1.008	997613	WORD_OFF	n/a	n/a	CASH	7	3	[0, 0, 0]	n/a	FR1	1	R1315T
997.992	1.627	998621	WORD	n/a	wordpools/wordpool_EN.txt	STRING	8	3	[0, 0, 0]	n/a	FR1	1	R1315T
999.619	0.776	1000248	WORD_OFF	n/a	n/a	STRING	8	3	[0, 0, 0]	n/a	FR1	1	R1315T
1000.395	1.624	1001024	WORD	n/a	wordpools/wordpool_EN.txt	DEER	9	3	[0, 0, 0]	n/a	FR1	1	R1315T
1002.019	0.906	1002648	WORD_OFF	n/a	n/a	DEER	9	3	[0, 0, 0]	n/a	FR1	1	R1315T
1002.925	1.612	1003554	WORD	n/a	wordpools/wordpool_EN.txt	BREAD	10	3	[0, 0, 0]	n/a	FR1	1	R1315T
1004.537	0.931	1005165	WORD_OFF	n/a	n/a	BREAD	10	3	[0, 0, 0]	n/a	FR1	1	R1315T
1005.468	1.635	1006096	WORD	n/a	wordpools/wordpool_EN.txt	COUCH	11	3	[0, 0, 0]	n/a	FR1	1	R1315T
1007.103	0.776	1007731	WORD_OFF	n/a	n/a	COUCH	11	3	[0, 0, 0]	n/a	FR1	1	R1315T
1007.879	1.609	1008507	WORD	n/a	wordpools/wordpool_EN.txt	SPOON	12	3	[0, 0, 0]	n/a	FR1	1	R1315T
1009.488	0.0	1010116	WORD_OFF	n/a	n/a	SPOON	12	3	[0, 0, 0]	n/a	FR1	1	R1315T
1009.488	0.0	1010116	ENCODING_END	n/a	n/a	n/a	-999	3	[0, 0, 0]	n/a	FR1	1	R1315T
1009.488	0.001	1010116	DISTRACT_START	n/a	n/a	n/a	-999	3	[0, 0, 0]	n/a	FR1	1	R1315T
1009.489	0.015	1010117	START	n/a	n/a	n/a	-999	3	[-999, -999, -999]	n/a	FR1	1	R1315T
1009.504	8.202	1010132	PROB	8.202	n/a	n/a	-999	3	[6, 9, 9]	24	FR1	1	R1315T
1017.706	7.484	1018334	PROB	7.484	n/a	n/a	-999	3	[6, 8, 6]	20	FR1	1	R1315T
1025.19	4.506	1025818	PROB	4.506	n/a	n/a	-999	3	[4, 8, 3]	15	FR1	1	R1315T
1029.696	0.012	1030323	STOP	n/a	n/a	n/a	-999	3	[-999, -999, -999]	n/a	FR1	1	R1315T
1029.708	0.555	1030335	DISTRACT_END	n/a	n/a	n/a	-999	3	[0, 0, 0]	n/a	FR1	1	R1315T
1030.263	1.594	1030890	RETRIEVAL_ORIENT_START	n/a	n/a	n/a	-999	3	[0, 0, 0]	n/a	FR1	1	R1315T
1031.857	0.001	1032484	RETRIEVAL_ORIENT_END	n/a	n/a	n/a	-999	3	[0, 0, 0]	n/a	FR1	1	R1315T
1031.858	0.822	1032485	REC_START	n/a	n/a	n/a	-999	3	[0, 0, 0]	n/a	FR1	1	R1315T
1032.68	16.383	1033307	REC_WORD_VV	16.383	n/a	<>	-999	3	[0, 0, 0]	n/a	FR1	1	R1315T
1049.063	12.808	1049690	REC_WORD	12.808	n/a	DEER	9	3	[0, 0, 0]	n/a	FR1	1	R1315T
1061.871	0.0	1062497	REC_END	n/a	n/a	n/a	-999	3	[0, 0, 0]	n/a	FR1	1	R1315T
1061.871	0.015	1062497	TRIAL_END	n/a	n/a	n/a	-999	3	[0, 0, 0]	n/a	FR1	1	R1315T
1061.886	0.001	1062512	TRIAL_START	n/a	n/a	n/a	-999	4	[0, 0, 0]	n/a	FR1	1	R1315T
1061.887	0.0	1062513	TRIAL	n/a	n/a	n/a	-999	4	[0, 0, 0]	n/a	FR1	1	R1315T
1061.887	1.494	1062513	WAITING_START	n/a	n/a	n/a	-999	4	[0, 0, 0]	n/a	FR1	1	R1315T
1063.381	0.0	1064007	WAITING_END	n/a	n/a	n/a	-999	4	[0, 0, 0]	n/a	FR1	1	R1315T
1063.381	10.428	1064007	COUNTDOWN_START	n/a	n/a	n/a	-999	4	[0, 0, 0]	n/a	FR1	1	R1315T
1073.809	0.001	1074435	COUNTDOWN_END	n/a	n/a	n/a	-999	4	[0, 0, 0]	n/a	FR1	1	R1315T
1073.81	1.089	1074436	ORIENT_START	n/a	n/a	n/a	-999	4	[0, 0, 0]	n/a	FR1	1	R1315T
1074.899	0.0	1075525	ORIENT_END	n/a	n/a	n/a	-999	4	[0, 0, 0]	n/a	FR1	1	R1315T
1074.899	0.81	1075525	ENCODING_START	n/a	n/a	n/a	-999	4	[0, 0, 0]	n/a	FR1	1	R1315T
1075.709	1.624	1076334	WORD	n/a	wordpools/wordpool_EN.txt	BOWL	1	4	[0, 0, 0]	n/a	FR1	1	R1315T
1077.333	0.868	1077958	WORD_OFF	n/a	n/a	BOWL	1	4	[0, 0, 0]	n/a	FR1	1	R1315T
1078.201	1.632	1078826	WORD	n/a	wordpools/wordpool_EN.txt	POLE	2	4	[0, 0, 0]	n/a	FR1	1	R1315T
1079.833	0.895	1080458	WORD_OFF	n/a	n/a	POLE	2	4	[0, 0, 0]	n/a	FR1	1	R1315T
1080.728	1.623	1081353	WORD	n/a	wordpools/wordpool_EN.txt	HORSE	3	4	[0, 0, 0]	n/a	FR1	1	R1315T
1082.351	0.844	1082976	WORD_OFF	n/a	n/a	HORSE	3	4	[0, 0, 0]	n/a	FR1	1	R1315T
1083.195	1.622	1083820	WORD	n/a	wordpools/wordpool_EN.txt	LEAF	4	4	[0, 0, 0]	n/a	FR1	1	R1315T
1084.817	0.938	1085442	WORD_OFF	n/a	n/a	LEAF	4	4	[0, 0, 0]	n/a	FR1	1	R1315T
1085.755	1.63	1086380	WORD	n/a	wordpools/wordpool_EN.txt	SINK	5	4	[0, 0, 0]	n/a	FR1	1	R1315T
1087.385	0.8	1088010	WORD_OFF	n/a	n/a	SINK	5	4	[0, 0, 0]	n/a	FR1	1	R1315T
1088.185	1.633	1088810	WORD	n/a	wordpools/wordpool_EN.txt	BLOOM	6	4	[0, 0, 0]	n/a	FR1	1	R1315T
1089.818	0.947	1090443	WORD_OFF	n/a	n/a	BLOOM	6	4	[0, 0, 0]	n/a	FR1	1	R1315T
1090.765	1.621	1091390	WORD	n/a	wordpools/wordpool_EN.txt	EAR	7	4	[0, 0, 0]	n/a	FR1	1	R1315T
1092.386	1.025	1093011	WORD_OFF	n/a	n/a	EAR	7	4	[0, 0, 0]	n/a	FR1	1	R1315T
1093.411	1.625	1094036	WORD	n/a	wordpools/wordpool_EN.txt	CLOUD	8	4	[0, 0, 0]	n/a	FR1	1	R1315T
1095.036	0.861	1095661	WORD_OFF	n/a	n/a	CLOUD	8	4	[0, 0, 0]	n/a	FR1	1	R1315T
1095.897	1.623	1096522	WORD	n/a	wordpools/wordpool_EN.txt	BAND	9	4	[0, 0, 0]	n/a	FR1	1	R1315T
1097.52	0.958	1098145	WORD_OFF	n/a	n/a	BAND	9	4	[0, 0, 0]	n/a	FR1	1	R1315T
1098.478	1.625	1099103	WORD	n/a	wordpools/wordpool_EN.txt	POND	10	4	[0, 0, 0]	n/a	FR1	1	R1315T
1100.103	0.76	1100727	WORD_OFF	n/a	n/a	POND	10	4	[0, 0, 0]	n/a	FR1	1	R1315T
1100.863	1.625	1101487	WORD	n/a	wordpools/wordpool_EN.txt	CROWN	11	4	[0, 0, 0]	n/a	FR1	1	R1315T
1102.488	1.05	1103112	WORD_OFF	n/a	n/a	CROWN	11	4	[0, 0, 0]	n/a	FR1	1	R1315T
1103.538	1.633	1104162	WORD	n/a	wordpools/wordpool_EN.txt	MAP	12	4	[0, 0, 0]	n/a	FR1	1	R1315T
1105.171	0.0	1105795	WORD_OFF	n/a	n/a	MAP	12	4	[0, 0, 0]	n/a	FR1	1	R1315T
1105.171	0.001	1105795	ENCODING_END	n/a	n/a	n/a	-999	4	[0, 0, 0]	n/a	FR1	1	R1315T
1105.172	0.0	1105796	DISTRACT_START	n/a	n/a	n/a	-999	4	[0, 0, 0]	n/a	FR1	1	R1315T
1105.172	0.016	1105796	START	n/a	n/a	n/a	-999	4	[-999, -999, -999]	n/a	FR1	1	R1315T
1105.188	7.6	1105812	PROB	7.6	n/a	n/a	-999	4	[6, 9, 8]	23	FR1	1	R1315T
1112.788	4.752	1113412	PROB	4.752	n/a	n/a	-999	4	[8, 4, 8]	20	FR1	1	R1315T
1117.54	1.951	1118164	PROB	1.951	n/a	n/a	-999	4	[2, 2, 1]	5	FR1	1	R1315T
1119.491	2.984	1120115	PROB	2.984	n/a	n/a	-999	4	[6, 3, 7]	16	FR1	1	R1315T
1122.475	6.945	1123098	PROB	6.945	n/a	n/a	-999	4	[4, 2, 4]	10	FR1	1	R1315T
1129.42	0.006	1130043	STOP	n/a	n/a	n/a	-999	4	[-999, -999, -999]	n/a	FR1	1	R1315T
1129.426	0.542	1130049	DISTRACT_END	n/a	n/a	n/a	-999	4	[0, 0, 0]	n/a	FR1	1	R1315T
1129.968	1.725	1130591	RETRIEVAL_ORIENT_START	n/a	n/a	n/a	-999	4	[0, 0, 0]	n/a	FR1	1	R1315T
1131.693	0.0	1132316	RETRIEVAL_ORIENT_END	n/a	n/a	n/a	-999	4	[0, 0, 0]	n/a	FR1	1	R1315T
1131.693	10.496	1132316	REC_START	n/a	n/a	n/a	-999	4	[0, 0, 0]	n/a	FR1	1	R1315T
1142.189	0.843	1142812	REC_WORD	0.843	n/a	BOWL	1	4	[0, 0, 0]	n/a	FR1	1	R1315T
1143.032	18.675	1143655	REC_WORD	18.675	n/a	POLE	2	4	[0, 0, 0]	n/a	FR1	1	R1315T
1161.707	0.0	1162329	REC_END	n/a	n/a	n/a	-999	4	[0, 0, 0]	n/a	FR1	1	R1315T
1161.707	0.015	1162329	TRIAL_END	n/a	n/a	n/a	-999	4	[0, 0, 0]	n/a	FR1	1	R1315T
1161.722	0.001	1162344	TRIAL_START	n/a	n/a	n/a	-999	5	[0, 0, 0]	n/a	FR1	1	R1315T
1161.723	0.0	1162345	TRIAL	n/a	n/a	n/a	-999	5	[0, 0, 0]	n/a	FR1	1	R1315T
1161.723	1.809	1162345	WAITING_START	n/a	n/a	n/a	-999	5	[0, 0, 0]	n/a	FR1	1	R1315T
1163.532	0.001	1164154	WAITING_END	n/a	n/a	n/a	-999	5	[0, 0, 0]	n/a	FR1	1	R1315T
1163.533	10.429	1164155	COUNTDOWN_START	n/a	n/a	n/a	-999	5	[0, 0, 0]	n/a	FR1	1	R1315T
1173.962	0.001	1174583	COUNTDOWN_END	n/a	n/a	n/a	-999	5	[0, 0, 0]	n/a	FR1	1	R1315T
1173.963	1.154	1174584	ORIENT_START	n/a	n/a	n/a	-999	5	[0, 0, 0]	n/a	FR1	1	R1315T
1175.117	0.0	1175738	ORIENT_END	n/a	n/a	n/a	-999	5	[0, 0, 0]	n/a	FR1	1	R1315T
1175.117	1.129	1175738	ENCODING_START	n/a	n/a	n/a	-999	5	[0, 0, 0]	n/a	FR1	1	R1315T
1176.246	1.621	1176867	WORD	n/a	wordpools/wordpool_EN.txt	LIP	1	5	[0, 0, 0]	n/a	FR1	1	R1315T
1177.867	0.806	1178488	WORD_OFF	n/a	n/a	LIP	1	5	[0, 0, 0]	n/a	FR1	1	R1315T
1178.673	1.629	1179294	WORD	n/a	wordpools/wordpool_EN.txt	CRANE	2	5	[0, 0, 0]	n/a	FR1	1	R1315T
1180.302	0.882	1180923	WORD_OFF	n/a	n/a	CRANE	2	5	[0, 0, 0]	n/a	FR1	1	R1315T
1181.184	1.634	1181805	WORD	n/a	wordpools/wordpool_EN.txt	FOOT	3	5	[0, 0, 0]	n/a	FR1	1	R1315T
1182.818	0.801	1183439	WORD_OFF	n/a	n/a	FOOT	3	5	[0, 0, 0]	n/a	FR1	1	R1315T
1183.619	1.634	1184240	WORD	n/a	wordpools/wordpool_EN.txt	BRANCH	4	5	[0, 0, 0]	n/a	FR1	1	R1315T
1185.253	0.848	1185874	WORD_OFF	n/a	n/a	BRANCH	4	5	[0, 0, 0]	n/a	FR1	1	R1315T
1186.101	1.619	1186722	WORD	n/a	wordpools/wordpool_EN.txt	BOOK	5	5	[0, 0, 0]	n/a	FR1	1	R1315T
1187.72	1.112	1188341	WORD_OFF	n/a	n/a	BOOK	5	5	[0, 0, 0]	n/a	FR1	1	R1315T
1188.832	1.639	1189453	WORD	n/a	wordpools/wordpool_EN.txt	CHEEK	6	5	[0, 0, 0]	n/a	FR1	1	R1315T
1190.471	1.06	1191092	WORD_OFF	n/a	n/a	CHEEK	6	5	[0, 0, 0]	n/a	FR1	1	R1315T
1191.531	1.622	1192152	WORD	n/a	wordpools/wordpool_EN.txt	TEETH	7	5	[0, 0, 0]	n/a	FR1	1	R1315T
1193.153	0.815	1193774	WORD_OFF	n/a	n/a	TEETH	7	5	[0, 0, 0]	n/a	FR1	1	R1315T
1193.968	1.637	1194588	WORD	n/a	wordpools/wordpool_EN.txt	FACE	8	5	[0, 0, 0]	n/a	FR1	1	R1315T
1195.605	0.859	1196225	WORD_OFF	n/a	n/a	FACE	8	5	[0, 0, 0]	n/a	FR1	1	R1315T
1196.464	1.624	1197084	WORD	n/a	wordpools/wordpool_EN.txt	MOUTH	9	5	[0, 0, 0]	n/a	FR1	1	R1315T
1198.088	1.091	1198708	WORD_OFF	n/a	n/a	MOUTH	9	5	[0, 0, 0]	n/a	FR1	1	R1315T
1199.179	1.626	1199799	WORD	n/a	wordpools/wordpool_EN.txt	BROOM	10	5	[0, 0, 0]	n/a	FR1	1	R1315T
1200.805	1.144	1201425	WORD_OFF	n/a	n/a	BROOM	10	5	[0, 0, 0]	n/a	FR1	1	R1315T
1201.949	1.624	1202569	WORD	n/a	wordpools/wordpool_EN.txt	PLANT	11	5	[0, 0, 0]	n/a	FR1	1	R1315T
1203.573	0.875	1204193	WORD_OFF	n/a	n/a	PLANT	11	5	[0, 0, 0]	n/a	FR1	1	R1315T
1204.448	1.624	1205068	WORD	n/a	wordpools/wordpool_EN.txt	JUDGE	12	5	[0, 0, 0]	n/a	FR1	1	R1315T
1206.072	0.001	1206692	WORD_OFF	n/a	n/a	JUDGE	12	5	[0, 0, 0]	n/a	FR1	1	R1315T
1206.073	0.0	1206693	ENCODING_END	n/a	n/a	n/a	-999	5	[0, 0, 0]	n/a	FR1	1	R1315T
1206.073	0.001	1206693	DISTRACT_START	n/a	n/a	n/a	-999	5	[0, 0, 0]	n/a	FR1	1	R1315T
1206.074	0.015	1206694	START	n/a	n/a	n/a	-999	5	[-999, -999, -999]	n/a	FR1	1	R1315T
1206.089	3.218	1206709	PROB	3.218	n/a	n/a	-999	5	[1, 8, 7]	16	FR1	1	R1315T
1209.307	3.666	1209927	PROB	3.666	n/a	n/a	-999	5	[6, 4, 2]	12	FR1	1	R1315T
1212.973	2.801	1213593	PROB	2.801	n/a	n/a	-999	5	[1, 9, 8]	18	FR1	1	R1315T
1215.774	8.636	1216394	PROB	8.636	n/a	n/a	-999	5	[9, 7, 9]	24	FR1	1	R1315T
1224.41	3.245	1225029	PROB	3.245	n/a	n/a	-999	5	[1, 9, 2]	12	FR1	1	R1315T
1227.655	0.022	1228274	STOP	n/a	n/a	n/a	-999	5	[-999, -999, -999]	n/a	FR1	1	R1315T
1227.677	0.501	1228296	DISTRACT_END	n/a	n/a	n/a	-999	5	[0, 0, 0]	n/a	FR1	1	R1315T
1228.178	1.649	1228797	RETRIEVAL_ORIENT_START	n/a	n/a	n/a	-999	5	[0, 0, 0]	n/a	FR1	1	R1315T
1229.827	0.0	1230446	RETRIEVAL_ORIENT_END	n/a	n/a	n/a	-999	5	[0, 0, 0]	n/a	FR1	1	R1315T
1229.827	2.211	1230446	REC_START	n/a	n/a	n/a	-999	5	[0, 0, 0]	n/a	FR1	1	R1315T
1232.038	1.093	1232657	REC_WORD	1.093	n/a	LIP	1	5	[0, 0, 0]	n/a	FR1	1	R1315T
1233.131	1.018	1233750	REC_WORD	1.018	n/a	CHEEK	6	5	[0, 0, 0]	n/a	FR1	1	R1315T
1234.149	0.971	1234768	REC_WORD	0.971	n/a	FACE	8	5	[0, 0, 0]	n/a	FR1	1	R1315T
1235.12	24.719	1235739	REC_WORD	24.719	n/a	TOOTH	-999	5	[0, 0, 0]	n/a	FR1	1	R1315T
1259.839	0.0	1260457	REC_END	n/a	n/a	n/a	-999	5	[0, 0, 0]	n/a	FR1	1	R1315T
1259.839	0.016	1260457	TRIAL_END	n/a	n/a	n/a	-999	5	[0, 0, 0]	n/a	FR1	1	R1315T
1259.855	0.001	1260473	TRIAL_START	n/a	n/a	n/a	-999	6	[0, 0, 0]	n/a	FR1	1	R1315T
1259.856	0.0	1260474	TRIAL	n/a	n/a	n/a	-999	6	[0, 0, 0]	n/a	FR1	1	R1315T
1259.856	2.076	1260474	WAITING_START	n/a	n/a	n/a	-999	6	[0, 0, 0]	n/a	FR1	1	R1315T
1261.932	0.001	1262550	WAITING_END	n/a	n/a	n/a	-999	6	[0, 0, 0]	n/a	FR1	1	R1315T
1261.933	10.429	1262551	COUNTDOWN_START	n/a	n/a	n/a	-999	6	[0, 0, 0]	n/a	FR1	1	R1315T
1272.362	0.0	1272979	COUNTDOWN_END	n/a	n/a	n/a	-999	6	[0, 0, 0]	n/a	FR1	1	R1315T
1272.362	1.09	1272979	ORIENT_START	n/a	n/a	n/a	-999	6	[0, 0, 0]	n/a	FR1	1	R1315T
1273.452	0.001	1274069	ORIENT_END	n/a	n/a	n/a	-999	6	[0, 0, 0]	n/a	FR1	1	R1315T
1273.453	1.025	1274070	ENCODING_START	n/a	n/a	n/a	-999	6	[0, 0, 0]	n/a	FR1	1	R1315T
1274.478	1.624	1275095	WORD	n/a	wordpools/wordpool_EN.txt	MOTH	1	6	[0, 0, 0]	n/a	FR1	1	R1315T
1276.102	1.113	1276719	WORD_OFF	n/a	n/a	MOTH	1	6	[0, 0, 0]	n/a	FR1	1	R1315T
1277.215	1.621	1277832	WORD	n/a	wordpools/wordpool_EN.txt	BUSH	2	6	[0, 0, 0]	n/a	FR1	1	R1315T
1278.836	0.885	1279453	WORD_OFF	n/a	n/a	BUSH	2	6	[0, 0, 0]	n/a	FR1	1	R1315T
1279.721	1.632	1280338	WORD	n/a	wordpools/wordpool_EN.txt	THUMB	3	6	[0, 0, 0]	n/a	FR1	1	R1315T
1281.353	0.948	1281970	WORD_OFF	n/a	n/a	THUMB	3	6	[0, 0, 0]	n/a	FR1	1	R1315T
1282.301	1.635	1282918	WORD	n/a	wordpools/wordpool_EN.txt	BOX	4	6	[0, 0, 0]	n/a	FR1	1	R1315T
1283.936	0.944	1284553	WORD_OFF	n/a	n/a	BOX	4	6	[0, 0, 0]	n/a	FR1	1	R1315T
1284.88	1.608	1285497	WORD	n/a	wordpools/wordpool_EN.txt	FAN	5	6	[0, 0, 0]	n/a	FR1	1	R1315T
1286.488	0.984	1287105	WORD_OFF	n/a	n/a	FAN	5	6	[0, 0, 0]	n/a	FR1	1	R1315T
1287.472	1.632	1288089	WORD	n/a	wordpools/wordpool_EN.txt	DOOR	6	6	[0, 0, 0]	n/a	FR1	1	R1315T
1289.104	0.915	1289720	WORD_OFF	n/a	n/a	DOOR	6	6	[0, 0, 0]	n/a	FR1	1	R1315T
1290.019	1.62	1290635	WORD	n/a	wordpools/wordpool_EN.txt	SNOW	7	6	[0, 0, 0]	n/a	FR1	1	R1315T
1291.639	0.939	1292255	WORD_OFF	n/a	n/a	SNOW	7	6	[0, 0, 0]	n/a	FR1	1	R1315T
1292.578	1.628	1293194	WORD	n/a	wordpools/wordpool_EN.txt	STORE	8	6	[0, 0, 0]	n/a	FR1	1	R1315T
1294.206	0.988	1294822	WORD_OFF	n/a	n/a	STORE	8	6	[0, 0, 0]	n/a	FR1	1	R1315T
1295.194	1.628	1295810	WORD	n/a	wordpools/wordpool_EN.txt	PASTE	9	6	[0, 0, 0]	n/a	FR1	1	R1315T
1296.822	1.028	1297438	WORD_OFF	n/a	n/a	PASTE	9	6	[0, 0, 0]	n/a	FR1	1	R1315T
1297.85	1.607	1298466	WORD	n/a	wordpools/wordpool_EN.txt	ROOF	10	6	[0, 0, 0]	n/a	FR1	1	R1315T
1299.457	0.872	1300073	WORD_OFF	n/a	n/a	ROOF	10	6	[0, 0, 0]	n/a	FR1	1	R1315T
1300.329	1.627	1300945	WORD	n/a	wordpools/wordpool_EN.txt	HORN	11	6	[0, 0, 0]	n/a	FR1	1	R1315T
1301.956	0.783	1302572	WORD_OFF	n/a	n/a	HORN	11	6	[0, 0, 0]	n/a	FR1	1	R1315T
1302.739	1.635	1303355	WORD	n/a	wordpools/wordpool_EN.txt	RAKE	12	6	[0, 0, 0]	n/a	FR1	1	R1315T
1304.374	0.001	1304990	WORD_OFF	n/a	n/a	RAKE	12	6	[0, 0, 0]	n/a	FR1	1	R1315T
1304.375	0.0	1304991	ENCODING_END	n/a	n/a	n/a	-999	6	[0, 0, 0]	n/a	FR1	1	R1315T
1304.375	0.0	1304991	DISTRACT_START	n/a	n/a	n/a	-999	6	[0, 0, 0]	n/a	FR1	1	R1315T
1304.375	0.016	1304991	START	n/a	n/a	n/a	-999	6	[-999, -999, -999]	n/a	FR1	1	R1315T
1304.391	6.75	1305007	PROB	6.75	n/a	n/a	-999	6	[4, 8, 1]	13	FR1	1	R1315T
1311.141	3.017	1311757	PROB	3.017	n/a	n/a	-999	6	[5, 4, 5]	14	FR1	1	R1315T
1314.158	2.219	1314773	PROB	2.219	n/a	n/a	-999	6	[1, 9, 3]	13	FR1	1	R1315T
1316.377	3.133	1316992	PROB	3.133	n/a	n/a	-999	6	[3, 2, 2]	7	FR1	1	R1315T
1319.51	2.467	1320125	PROB	2.467	n/a	n/a	-999	6	[6, 4, 5]	15	FR1	1	R1315T
1321.977	2.532	1322592	PROB	2.532	n/a	n/a	-999	6	[5, 5, 4]	14	FR1	1	R1315T
1324.509	0.019	1325124	STOP	n/a	n/a	n/a	-999	6	[-999, -999, -999]	n/a	FR1	1	R1315T
1324.528	0.62	1325143	DISTRACT_END	n/a	n/a	n/a	-999	6	[0, 0, 0]	n/a	FR1	1	R1315T
1325.148	1.564	1325763	RETRIEVAL_ORIENT_START	n/a	n/a	n/a	-999	6	[0, 0, 0]	n/a	FR1	1	R1315T
1326.712	0.0	1327327	RETRIEVAL_ORIENT_END	n/a	n/a	n/a	-999	6	[0, 0, 0]	n/a	FR1	1	R1315T
1326.712	10.172	1327327	REC_START	n/a	n/a	n/a	-999	6	[0, 0, 0]	n/a	FR1	1	R1315T
1336.884	19.841	1337498	REC_WORD_VV	19.841	n/a	<>	-999	6	[0, 0, 0]	n/a	FR1	1	R1315T
1356.725	0.0	1357339	REC_END	n/a	n/a	n/a	-999	6	[0, 0, 0]	n/a	FR1	1	R1315T
1356.725	0.014	1357339	TRIAL_END	n/a	n/a	n/a	-999	6	[0, 0, 0]	n/a	FR1	1	R1315T
1356.739	0.001	1357353	TRIAL_START	n/a	n/a	n/a	-999	7	[0, 0, 0]	n/a	FR1	1	R1315T
1356.74	0.0	1357354	TRIAL	n/a	n/a	n/a	-999	7	[0, 0, 0]	n/a	FR1	1	R1315T
1356.74	1.578	1357354	WAITING_START	n/a	n/a	n/a	-999	7	[0, 0, 0]	n/a	FR1	1	R1315T
1358.318	0.0	1358932	WAITING_END	n/a	n/a	n/a	-999	7	[0, 0, 0]	n/a	FR1	1	R1315T
1358.318	10.428	1358932	COUNTDOWN_START	n/a	n/a	n/a	-999	7	[0, 0, 0]	n/a	FR1	1	R1315T
1368.746	0.001	1369359	COUNTDOWN_END	n/a	n/a	n/a	-999	7	[0, 0, 0]	n/a	FR1	1	R1315T
1368.747	1.255	1369360	ORIENT_START	n/a	n/a	n/a	-999	7	[0, 0, 0]	n/a	FR1	1	R1315T
1370.002	0.001	1370615	ORIENT_END	n/a	n/a	n/a	-999	7	[0, 0, 0]	n/a	FR1	1	R1315T
1370.003	1.131	1370616	ENCODING_START	n/a	n/a	n/a	-999	7	[0, 0, 0]	n/a	FR1	1	R1315T
1371.134	1.619	1371747	WORD	n/a	wordpools/wordpool_EN.txt	PEN	1	7	[0, 0, 0]	n/a	FR1	1	R1315T
1372.753	0.875	1373366	WORD_OFF	n/a	n/a	PEN	1	7	[0, 0, 0]	n/a	FR1	1	R1315T
1373.628	1.626	1374241	WORD	n/a	wordpools/wordpool_EN.txt	FOG	2	7	[0, 0, 0]	n/a	FR1	1	R1315T
1375.254	0.86	1375867	WORD_OFF	n/a	n/a	FOG	2	7	[0, 0, 0]	n/a	FR1	1	R1315T
1376.114	1.624	1376727	WORD	n/a	wordpools/wordpool_EN.txt	DITCH	3	7	[0, 0, 0]	n/a	FR1	1	R1315T
1377.738	0.901	1378351	WORD_OFF	n/a	n/a	DITCH	3	7	[0, 0, 0]	n/a	FR1	1	R1315T
1378.639	1.633	1379252	WORD	n/a	wordpools/wordpool_EN.txt	TRASH	4	7	[0, 0, 0]	n/a	FR1	1	R1315T
1380.272	0.805	1380885	WORD_OFF	n/a	n/a	TRASH	4	7	[0, 0, 0]	n/a	FR1	1	R1315T
1381.077	1.628	1381690	WORD	n/a	wordpools/wordpool_EN.txt	BRICK	5	7	[0, 0, 0]	n/a	FR1	1	R1315T
1382.705	0.968	1383317	WORD_OFF	n/a	n/a	BRICK	5	7	[0, 0, 0]	n/a	FR1	1	R1315T
1383.673	1.633	1384285	WORD	n/a	wordpools/wordpool_EN.txt	FOX	6	7	[0, 0, 0]	n/a	FR1	1	R1315T
1385.306	0.976	1385918	WORD_OFF	n/a	n/a	FOX	6	7	[0, 0, 0]	n/a	FR1	1	R1315T
1386.282	1.623	1386894	WORD	n/a	wordpools/wordpool_EN.txt	SLEEVE	7	7	[0, 0, 0]	n/a	FR1	1	R1315T
1387.905	0.776	1388517	WORD_OFF	n/a	n/a	SLEEVE	7	7	[0, 0, 0]	n/a	FR1	1	R1315T
1388.681	1.626	1389293	WORD	n/a	wordpools/wordpool_EN.txt	WING	8	7	[0, 0, 0]	n/a	FR1	1	R1315T
1390.307	1.008	1390919	WORD_OFF	n/a	n/a	WING	8	7	[0, 0, 0]	n/a	FR1	1	R1315T
1391.315	1.625	1391927	WORD	n/a	wordpools/wordpool_EN.txt	TRUCK	9	7	[0, 0, 0]	n/a	FR1	1	R1315T
1392.94	0.865	1393552	WORD_OFF	n/a	n/a	TRUCK	9	7	[0, 0, 0]	n/a	FR1	1	R1315T
1393.805	1.619	1394417	WORD	n/a	wordpools/wordpool_EN.txt	DESK	10	7	[0, 0, 0]	n/a	FR1	1	R1315T
1395.424	0.984	1396036	WORD_OFF	n/a	n/a	DESK	10	7	[0, 0, 0]	n/a	FR1	1	R1315T
1396.408	1.633	1397020	WORD	n/a	wordpools/wordpool_EN.txt	BEAK	11	7	[0, 0, 0]	n/a	FR1	1	R1315T
1398.041	0.801	1398653	WORD_OFF	n/a	n/a	BEAK	11	7	[0, 0, 0]	n/a	FR1	1	R1315T
1398.842	1.617	1399454	WORD	n/a	wordpools/wordpool_EN.txt	GRASS	12	7	[0, 0, 0]	n/a	FR1	1	R1315T
1400.459	0.0	1401071	DISTRACT_START	n/a	n/a	n/a	-999	7	[0, 0, 0]	n/a	FR1	1	R1315T
1400.459	0.0	1401071	WORD_OFF	n/a	n/a	GRASS	12	7	[0, 0, 0]	n/a	FR1	1	R1315T
1400.459	0.001	1401071	ENCODING_END	n/a	n/a	n/a	-999	7	[0, 0, 0]	n/a	FR1	1	R1315T
1400.46	0.015	1401072	START	n/a	n/a	n/a	-999	7	[-999, -999, -999]	n/a	FR1	1	R1315T
1400.475	4.6	1401087	PROB	4.6	n/a	n/a	-999	7	[8, 1, 2]	11	FR1	1	R1315T
1405.075	5.017	1405687	PROB	5.017	n/a	n/a	-999	7	[9, 9, 3]	21	FR1	1	R1315T
1410.092	3.569	1410703	PROB	3.569	n/a	n/a	-999	7	[7, 2, 2]	11	FR1	1	R1315T
1413.661	1.984	1414272	PROB	1.984	n/a	n/a	-999	7	[3, 3, 7]	13	FR1	1	R1315T
1415.645	2.867	1416256	PROB	2.867	n/a	n/a	-999	7	[9, 1, 7]	17	FR1	1	R1315T
1418.512	6.012	1419123	PROB	6.012	n/a	n/a	-999	7	[7, 6, 9]	22	FR1	1	R1315T
1424.524	0.006	1425135	STOP	n/a	n/a	n/a	-999	7	[-999, -999, -999]	n/a	FR1	1	R1315T
1424.53	0.609	1425141	DISTRACT_END	n/a	n/a	n/a	-999	7	[0, 0, 0]	n/a	FR1	1	R1315T
1425.139	1.541	1425750	RETRIEVAL_ORIENT_START	n/a	n/a	n/a	-999	7	[0, 0, 0]	n/a	FR1	1	R1315T
1426.68	0.001	1427291	RETRIEVAL_ORIENT_END	n/a	n/a	n/a	-999	7	[0, 0, 0]	n/a	FR1	1	R1315T
1426.681	4.237	1427292	REC_START	n/a	n/a	n/a	-999	7	[0, 0, 0]	n/a	FR1	1	R1315T
1430.918	0.966	1431528	REC_WORD	0.966	n/a	TRASH	4	7	[0, 0, 0]	n/a	FR1	1	R1315T
1431.884	8.714	1432494	REC_WORD	8.714	n/a	BRICK	5	7	[0, 0, 0]	n/a	FR1	1	R1315T
1440.598	16.096	1441208	REC_WORD	16.096	n/a	PEN	1	7	[0, 0, 0]	n/a	FR1	1	R1315T
1456.694	0.0	1457303	REC_END	n/a	n/a	n/a	-999	7	[0, 0, 0]	n/a	FR1	1	R1315T
1456.694	0.018	1457303	TRIAL_END	n/a	n/a	n/a	-999	7	[0, 0, 0]	n/a	FR1	1	R1315T
1456.712	0.0	1457321	TRIAL_START	n/a	n/a	n/a	-999	8	[0, 0, 0]	n/a	FR1	1	R1315T
1456.712	0.0	1457321	TRIAL	n/a	n/a	n/a	-999	8	[0, 0, 0]	n/a	FR1	1	R1315T
1456.712	1.84	1457321	WAITING_START	n/a	n/a	n/a	-999	8	[0, 0, 0]	n/a	FR1	1	R1315T
1458.552	0.001	1459161	WAITING_END	n/a	n/a	n/a	-999	8	[0, 0, 0]	n/a	FR1	1	R1315T
1458.553	10.429	1459162	COUNTDOWN_START	n/a	n/a	n/a	-999	8	[0, 0, 0]	n/a	FR1	1	R1315T
1468.982	0.0	1469591	ORIENT_START	n/a	n/a	n/a	-999	8	[0, 0, 0]	n/a	FR1	1	R1315T
1468.982	1.223	1469591	COUNTDOWN_END	n/a	n/a	n/a	-999	8	[0, 0, 0]	n/a	FR1	1	R1315T
1470.205	0.0	1470814	ORIENT_END	n/a	n/a	n/a	-999	8	[0, 0, 0]	n/a	FR1	1	R1315T
1470.205	0.763	1470814	ENCODING_START	n/a	n/a	n/a	-999	8	[0, 0, 0]	n/a	FR1	1	R1315T
1470.968	1.637	1471577	WORD	n/a	wordpools/wordpool_EN.txt	WEED	1	8	[0, 0, 0]	n/a	FR1	1	R1315T
1472.605	0.957	1473214	WORD_OFF	n/a	n/a	WEED	1	8	[0, 0, 0]	n/a	FR1	1	R1315T
1473.562	1.627	1474171	WORD	n/a	wordpools/wordpool_EN.txt	STREET	2	8	[0, 0, 0]	n/a	FR1	1	R1315T
1475.189	0.8	1475798	WORD_OFF	n/a	n/a	STREET	2	8	[0, 0, 0]	n/a	FR1	1	R1315T
1475.989	1.634	1476598	WORD	n/a	wordpools/wordpool_EN.txt	MAT	3	8	[0, 0, 0]	n/a	FR1	1	R1315T
1477.623	0.88	1478231	WORD_OFF	n/a	n/a	MAT	3	8	[0, 0, 0]	n/a	FR1	1	R1315T
1478.503	1.636	1479111	WORD	n/a	wordpools/wordpool_EN.txt	CORN	4	8	[0, 0, 0]	n/a	FR1	1	R1315T
1480.139	0.892	1480747	WORD_OFF	n/a	n/a	CORN	4	8	[0, 0, 0]	n/a	FR1	1	R1315T
1481.031	1.609	1481639	WORD	n/a	wordpools/wordpool_EN.txt	PIE	5	8	[0, 0, 0]	n/a	FR1	1	R1315T
1482.64	1.071	1483248	WORD_OFF	n/a	n/a	PIE	5	8	[0, 0, 0]	n/a	FR1	1	R1315T
1483.711	1.63	1484319	WORD	n/a	wordpools/wordpool_EN.txt	VASE	6	8	[0, 0, 0]	n/a	FR1	1	R1315T
1485.341	1.106	1485949	WORD_OFF	n/a	n/a	VASE	6	8	[0, 0, 0]	n/a	FR1	1	R1315T
1486.447	1.627	1487055	WORD	n/a	wordpools/wordpool_EN.txt	LAKE	7	8	[0, 0, 0]	n/a	FR1	1	R1315T
1488.074	0.814	1488682	WORD_OFF	n/a	n/a	LAKE	7	8	[0, 0, 0]	n/a	FR1	1	R1315T
1488.888	1.637	1489496	WORD	n/a	wordpools/wordpool_EN.txt	ROPE	8	8	[0, 0, 0]	n/a	FR1	1	R1315T
1490.525	1.147	1491133	WORD_OFF	n/a	n/a	ROPE	8	8	[0, 0, 0]	n/a	FR1	1	R1315T
1491.672	1.637	1492280	WORD	n/a	wordpools/wordpool_EN.txt	TOY	9	8	[0, 0, 0]	n/a	FR1	1	R1315T
1493.309	0.849	1493917	WORD_OFF	n/a	n/a	TOY	9	8	[0, 0, 0]	n/a	FR1	1	R1315T
1494.158	1.634	1494766	WORD	n/a	wordpools/wordpool_EN.txt	SKY	10	8	[0, 0, 0]	n/a	FR1	1	R1315T
1495.792	1.05	1496400	WORD_OFF	n/a	n/a	SKY	10	8	[0, 0, 0]	n/a	FR1	1	R1315T
1496.842	1.617	1497450	WORD	n/a	wordpools/wordpool_EN.txt	PARK	11	8	[0, 0, 0]	n/a	FR1	1	R1315T
1498.459	0.803	1499067	WORD_OFF	n/a	n/a	PARK	11	8	[0, 0, 0]	n/a	FR1	1	R1315T
1499.262	1.631	1499870	WORD	n/a	wordpools/wordpool_EN.txt	CHAIR	12	8	[0, 0, 0]	n/a	FR1	1	R1315T
1500.893	0.0	1501500	DISTRACT_START	n/a	n/a	n/a	-999	8	[0, 0, 0]	n/a	FR1	1	R1315T
1500.893	0.0	1501500	WORD_OFF	n/a	n/a	CHAIR	12	8	[0, 0, 0]	n/a	FR1	1	R1315T
1500.893	0.001	1501500	ENCODING_END	n/a	n/a	n/a	-999	8	[0, 0, 0]	n/a	FR1	1	R1315T
1500.894	0.015	1501501	START	n/a	n/a	n/a	-999	8	[-999, -999, -999]	n/a	FR1	1	R1315T
1500.909	4.785	1501516	PROB	4.785	n/a	n/a	-999	8	[2, 3, 3]	8	FR1	1	R1315T
1505.694	5.384	1506301	PROB	5.384	n/a	n/a	-999	8	[8, 5, 6]	19	FR1	1	R1315T
1511.078	3.518	1511685	PROB	3.518	n/a	n/a	-999	8	[9, 7, 3]	19	FR1	1	R1315T
1514.596	5.583	1515203	PROB	5.583	n/a	n/a	-999	8	[7, 6, 1]	14	FR1	1	R1315T
1520.179	5.937	1520786	PROB	5.937	n/a	n/a	-999	8	[6, 7, 6]	19	FR1	1	R1315T
1526.116	0.015	1526722	STOP	n/a	n/a	n/a	-999	8	[-999, -999, -999]	n/a	FR1	1	R1315T
1526.131	0.629	1526737	DISTRACT_END	n/a	n/a	n/a	-999	8	[0, 0, 0]	n/a	FR1	1	R1315T
1526.76	1.572	1527366	RETRIEVAL_ORIENT_START	n/a	n/a	n/a	-999	8	[0, 0, 0]	n/a	FR1	1	R1315T
1528.332	0.0	1528938	RETRIEVAL_ORIENT_END	n/a	n/a	n/a	-999	8	[0, 0, 0]	n/a	FR1	1	R1315T
1528.332	5.09	1528938	REC_START	n/a	n/a	n/a	-999	8	[0, 0, 0]	n/a	FR1	1	R1315T
1533.422	24.923	1534028	REC_WORD	24.923	n/a	WEED	1	8	[0, 0, 0]	n/a	FR1	1	R1315T
1558.345	0.0	1558950	REC_END	n/a	n/a	n/a	-999	8	[0, 0, 0]	n/a	FR1	1	R1315T
1558.345	0.015	1558950	TRIAL_END	n/a	n/a	n/a	-999	8	[0, 0, 0]	n/a	FR1	1	R1315T
1558.36	0.0	1558965	TRIAL_START	n/a	n/a	n/a	-999	9	[0, 0, 0]	n/a	FR1	1	R1315T
1558.36	0.0	1558965	TRIAL	n/a	n/a	n/a	-999	9	[0, 0, 0]	n/a	FR1	1	R1315T
1558.36	1.794	1558965	WAITING_START	n/a	n/a	n/a	-999	9	[0, 0, 0]	n/a	FR1	1	R1315T
1560.154	0.0	1560759	WAITING_END	n/a	n/a	n/a	-999	9	[0, 0, 0]	n/a	FR1	1	R1315T
1560.154	10.429	1560759	COUNTDOWN_START	n/a	n/a	n/a	-999	9	[0, 0, 0]	n/a	FR1	1	R1315T
1570.583	0.0	1571188	COUNTDOWN_END	n/a	n/a	n/a	-999	9	[0, 0, 0]	n/a	FR1	1	R1315T
1570.583	1.256	1571188	ORIENT_START	n/a	n/a	n/a	-999	9	[0, 0, 0]	n/a	FR1	1	R1315T
1571.839	0.0	1572443	ENCODING_START	n/a	n/a	n/a	-999	9	[0, 0, 0]	n/a	FR1	1	R1315T
1571.839	1.025	1572443	ORIENT_END	n/a	n/a	n/a	-999	9	[0, 0, 0]	n/a	FR1	1	R1315T
1572.864	1.609	1573468	WORD	n/a	wordpools/wordpool_EN.txt	PEAR	1	9	[0, 0, 0]	n/a	FR1	1	R1315T
1574.473	1.127	1575077	WORD_OFF	n/a	n/a	PEAR	1	9	[0, 0, 0]	n/a	FR1	1	R1315T
1575.6	1.624	1576204	WORD	n/a	wordpools/wordpool_EN.txt	DIME	2	9	[0, 0, 0]	n/a	FR1	1	R1315T
1577.224	0.839	1577828	WORD_OFF	n/a	n/a	DIME	2	9	[0, 0, 0]	n/a	FR1	1	R1315T
1578.063	1.611	1578667	WORD	n/a	wordpools/wordpool_EN.txt	BOARD	3	9	[0, 0, 0]	n/a	FR1	1	R1315T
1579.674	0.819	1580278	WORD_OFF	n/a	n/a	BOARD	3	9	[0, 0, 0]	n/a	FR1	1	R1315T
1580.493	1.631	1581097	WORD	n/a	wordpools/wordpool_EN.txt	OAR	4	9	[0, 0, 0]	n/a	FR1	1	R1315T
1582.124	0.768	1582728	WORD_OFF	n/a	n/a	OAR	4	9	[0, 0, 0]	n/a	FR1	1	R1315T
1582.892	1.633	1583496	WORD	n/a	wordpools/wordpool_EN.txt	ROOM	5	9	[0, 0, 0]	n/a	FR1	1	R1315T
1584.525	0.919	1585129	WORD_OFF	n/a	n/a	ROOM	5	9	[0, 0, 0]	n/a	FR1	1	R1315T
1585.444	1.631	1586048	WORD	n/a	wordpools/wordpool_EN.txt	CLIFF	6	9	[0, 0, 0]	n/a	FR1	1	R1315T
1587.075	0.956	1587679	WORD_OFF	n/a	n/a	CLIFF	6	9	[0, 0, 0]	n/a	FR1	1	R1315T
1588.031	1.629	1588635	WORD	n/a	wordpools/wordpool_EN.txt	CHIN	7	9	[0, 0, 0]	n/a	FR1	1	R1315T
1589.66	0.825	1590264	WORD_OFF	n/a	n/a	CHIN	7	9	[0, 0, 0]	n/a	FR1	1	R1315T
1590.485	1.624	1591089	WORD	n/a	wordpools/wordpool_EN.txt	RUG	8	9	[0, 0, 0]	n/a	FR1	1	R1315T
1592.109	1.135	1592713	WORD_OFF	n/a	n/a	RUG	8	9	[0, 0, 0]	n/a	FR1	1	R1315T
1593.244	1.632	1593848	WORD	n/a	wordpools/wordpool_EN.txt	PURSE	9	9	[0, 0, 0]	n/a	FR1	1	R1315T
1594.876	0.779	1595479	WORD_OFF	n/a	n/a	PURSE	9	9	[0, 0, 0]	n/a	FR1	1	R1315T
1595.655	1.623	1596258	WORD	n/a	wordpools/wordpool_EN.txt	BADGE	10	9	[0, 0, 0]	n/a	FR1	1	R1315T
1597.278	0.981	1597881	WORD_OFF	n/a	n/a	BADGE	10	9	[0, 0, 0]	n/a	FR1	1	R1315T
1598.259	1.635	1598862	WORD	n/a	wordpools/wordpool_EN.txt	CHALK	11	9	[0, 0, 0]	n/a	FR1	1	R1315T
1599.894	0.83	1600497	WORD_OFF	n/a	n/a	CHALK	11	9	[0, 0, 0]	n/a	FR1	1	R1315T
1600.724	1.622	1601327	WORD	n/a	wordpools/wordpool_EN.txt	TAIL	12	9	[0, 0, 0]	n/a	FR1	1	R1315T
1602.346	0.0	1602949	WORD_OFF	n/a	n/a	TAIL	12	9	[0, 0, 0]	n/a	FR1	1	R1315T
1602.346	0.0	1602949	ENCODING_END	n/a	n/a	n/a	-999	9	[0, 0, 0]	n/a	FR1	1	R1315T
1602.346	0.001	1602949	DISTRACT_START	n/a	n/a	n/a	-999	9	[0, 0, 0]	n/a	FR1	1	R1315T
1602.347	0.015	1602950	START	n/a	n/a	n/a	-999	9	[-999, -999, -999]	n/a	FR1	1	R1315T
1602.362	6.617	1602965	PROB	6.617	n/a	n/a	-999	9	[4, 4, 9]	17	FR1	1	R1315T
1608.979	3.967	1609582	PROB	3.967	n/a	n/a	-999	9	[3, 1, 9]	13	FR1	1	R1315T
1612.946	4.101	1613549	PROB	4.101	n/a	n/a	-999	9	[3, 4, 2]	9	FR1	1	R1315T
1617.047	2.817	1617650	PROB	2.817	n/a	n/a	-999	9	[5, 2, 2]	7	FR1	1	R1315T
1619.864	5.417	1620466	PROB	5.417	n/a	n/a	-999	9	[2, 4, 6]	12	FR1	1	R1315T
1625.281	0.018	1625883	STOP	n/a	n/a	n/a	-999	9	[-999, -999, -999]	n/a	FR1	1	R1315T
1625.299	0.508	1625901	DISTRACT_END	n/a	n/a	n/a	-999	9	[0, 0, 0]	n/a	FR1	1	R1315T
1625.807	1.543	1626409	RETRIEVAL_ORIENT_START	n/a	n/a	n/a	-999	9	[0, 0, 0]	n/a	FR1	1	R1315T
1627.35	0.0	1627952	RETRIEVAL_ORIENT_END	n/a	n/a	n/a	-999	9	[0, 0, 0]	n/a	FR1	1	R1315T
1627.35	1.376	1627952	REC_START	n/a	n/a	n/a	-999	9	[0, 0, 0]	n/a	FR1	1	R1315T
1628.726	1.134	1629328	REC_WORD	1.134	n/a	CLIFF	6	9	[0, 0, 0]	n/a	FR1	1	R1315T
1629.86	27.503	1630462	REC_WORD	27.503	n/a	CHIN	7	9	[0, 0, 0]	n/a	FR1	1	R1315T
1657.363	0.001	1657964	REC_END	n/a	n/a	n/a	-999	9	[0, 0, 0]	n/a	FR1	1	R1315T
1657.364	0.014	1657965	TRIAL_END	n/a	n/a	n/a	-999	9	[0, 0, 0]	n/a	FR1	1	R1315T
1657.378	0.0	1657979	WAITING_START	n/a	n/a	n/a	-999	10	[0, 0, 0]	n/a	FR1	1	R1315T
1657.378	0.0	1657979	TRIAL_START	n/a	n/a	n/a	-999	10	[0, 0, 0]	n/a	FR1	1	R1315T
1657.378	1.41	1657979	TRIAL	n/a	n/a	n/a	-999	10	[0, 0, 0]	n/a	FR1	1	R1315T
1658.788	0.0	1659389	WAITING_END	n/a	n/a	n/a	-999	10	[0, 0, 0]	n/a	FR1	1	R1315T
1658.788	10.428	1659389	COUNTDOWN_START	n/a	n/a	n/a	-999	10	[0, 0, 0]	n/a	FR1	1	R1315T
1669.216	0.001	1669816	COUNTDOWN_END	n/a	n/a	n/a	-999	10	[0, 0, 0]	n/a	FR1	1	R1315T
1669.217	1.057	1669817	ORIENT_START	n/a	n/a	n/a	-999	10	[0, 0, 0]	n/a	FR1	1	R1315T
1670.274	0.001	1670874	ORIENT_END	n/a	n/a	n/a	-999	10	[0, 0, 0]	n/a	FR1	1	R1315T
1670.275	0.963	1670875	ENCODING_START	n/a	n/a	n/a	-999	10	[0, 0, 0]	n/a	FR1	1	R1315T
1671.238	1.636	1671838	WORD	n/a	wordpools/wordpool_EN.txt	TOOL	1	10	[0, 0, 0]	n/a	FR1	1	R1315T
1672.874	0.784	1673474	WORD_OFF	n/a	n/a	TOOL	1	10	[0, 0, 0]	n/a	FR1	1	R1315T
1673.658	1.634	1674258	WORD	n/a	wordpools/wordpool_EN.txt	LAND	2	10	[0, 0, 0]	n/a	FR1	1	R1315T
1675.292	0.979	1675892	WORD_OFF	n/a	n/a	LAND	2	10	[0, 0, 0]	n/a	FR1	1	R1315T
1676.271	1.637	1676871	WORD	n/a	wordpools/wordpool_EN.txt	PRINCE	3	10	[0, 0, 0]	n/a	FR1	1	R1315T
1677.908	0.978	1678508	WORD_OFF	n/a	n/a	PRINCE	3	10	[0, 0, 0]	n/a	FR1	1	R1315T
1678.886	1.607	1679486	WORD	n/a	wordpools/wordpool_EN.txt	TANK	4	10	[0, 0, 0]	n/a	FR1	1	R1315T
1680.493	0.887	1681093	WORD_OFF	n/a	n/a	TANK	4	10	[0, 0, 0]	n/a	FR1	1	R1315T
1681.38	1.629	1681980	WORD	n/a	wordpools/wordpool_EN.txt	SKI	5	10	[0, 0, 0]	n/a	FR1	1	R1315T
1683.009	0.905	1683609	WORD_OFF	n/a	n/a	SKI	5	10	[0, 0, 0]	n/a	FR1	1	R1315T
1683.914	1.63	1684514	WORD	n/a	wordpools/wordpool_EN.txt	STOVE	6	10	[0, 0, 0]	n/a	FR1	1	R1315T
1685.544	0.93	1686144	WORD_OFF	n/a	n/a	STOVE	6	10	[0, 0, 0]	n/a	FR1	1	R1315T
1686.474	1.619	1687074	WORD	n/a	wordpools/wordpool_EN.txt	CAT	7	10	[0, 0, 0]	n/a	FR1	1	R1315T
1688.093	0.91	1688693	WORD_OFF	n/a	n/a	CAT	7	10	[0, 0, 0]	n/a	FR1	1	R1315T
1689.003	1.625	1689602	WORD	n/a	wordpools/wordpool_EN.txt	SEAT	8	10	[0, 0, 0]	n/a	FR1	1	R1315T
1690.628	0.827	1691227	WORD_OFF	n/a	n/a	SEAT	8	10	[0, 0, 0]	n/a	FR1	1	R1315T
1691.455	1.622	1692054	WORD	n/a	wordpools/wordpool_EN.txt	SHIRT	9	10	[0, 0, 0]	n/a	FR1	1	R1315T
1693.077	0.948	1693676	WORD_OFF	n/a	n/a	SHIRT	9	10	[0, 0, 0]	n/a	FR1	1	R1315T
1694.025	1.62	1694624	WORD	n/a	wordpools/wordpool_EN.txt	WOLF	10	10	[0, 0, 0]	n/a	FR1	1	R1315T
1695.645	0.851	1696244	WORD_OFF	n/a	n/a	WOLF	10	10	[0, 0, 0]	n/a	FR1	1	R1315T
1696.496	1.633	1697095	WORD	n/a	wordpools/wordpool_EN.txt	STAR	11	10	[0, 0, 0]	n/a	FR1	1	R1315T
1698.129	0.974	1698728	WORD_OFF	n/a	n/a	STAR	11	10	[0, 0, 0]	n/a	FR1	1	R1315T
1699.103	1.627	1699702	WORD	n/a	wordpools/wordpool_EN.txt	DART	12	10	[0, 0, 0]	n/a	FR1	1	R1315T
1700.73	0.0	1701329	WORD_OFF	n/a	n/a	DART	12	10	[0, 0, 0]	n/a	FR1	1	R1315T
1700.73	0.001	1701329	ENCODING_END	n/a	n/a	n/a	-999	10	[0, 0, 0]	n/a	FR1	1	R1315T
1700.731	0.0	1701330	DISTRACT_START	n/a	n/a	n/a	-999	10	[0, 0, 0]	n/a	FR1	1	R1315T
1700.731	0.015	1701330	START	n/a	n/a	n/a	-999	10	[-999, -999, -999]	n/a	FR1	1	R1315T
1700.746	2.834	1701345	PROB	2.834	n/a	n/a	-999	10	[7, 7, 1]	15	FR1	1	R1315T
1703.58	3.333	1704179	PROB	3.333	n/a	n/a	-999	10	[5, 8, 3]	16	FR1	1	R1315T
1706.913	3.752	1707512	PROB	3.752	n/a	n/a	-999	10	[3, 9, 5]	17	FR1	1	R1315T
1710.665	8.45	1711264	PROB	8.45	n/a	n/a	-999	10	[4, 7, 9]	20	FR1	1	R1315T
1719.115	2.803	1719713	PROB	2.803	n/a	n/a	-999	10	[5, 4, 3]	11	FR1	1	R1315T
1721.918	0.015	1722516	STOP	n/a	n/a	n/a	-999	10	[-999, -999, -999]	n/a	FR1	1	R1315T
1721.933	0.568	1722531	DISTRACT_END	n/a	n/a	n/a	-999	10	[0, 0, 0]	n/a	FR1	1	R1315T
1722.501	1.599	1723099	RETRIEVAL_ORIENT_START	n/a	n/a	n/a	-999	10	[0, 0, 0]	n/a	FR1	1	R1315T
1724.1	0.0	1724698	RETRIEVAL_ORIENT_END	n/a	n/a	n/a	-999	10	[0, 0, 0]	n/a	FR1	1	R1315T
1724.1	1.197	1724698	REC_START	n/a	n/a	n/a	-999	10	[0, 0, 0]	n/a	FR1	1	R1315T
1725.297	5.933	1725895	REC_WORD	5.933	n/a	CAT	7	10	[0, 0, 0]	n/a	FR1	1	R1315T
1731.23	22.883	1731828	REC_WORD	22.883	n/a	WOLF	10	10	[0, 0, 0]	n/a	FR1	1	R1315T
1754.113	0.0	1754710	REC_END	n/a	n/a	n/a	-999	10	[0, 0, 0]	n/a	FR1	1	R1315T
1754.113	0.014	1754710	TRIAL_END	n/a	n/a	n/a	-999	10	[0, 0, 0]	n/a	FR1	1	R1315T
1754.127	0.001	1754724	TRIAL_START	n/a	n/a	n/a	-999	11	[0, 0, 0]	n/a	FR1	1	R1315T
1754.128	0.0	1754725	WAITING_START	n/a	n/a	n/a	-999	11	[0, 0, 0]	n/a	FR1	1	R1315T
1754.128	1.529	1754725	TRIAL	n/a	n/a	n/a	-999	11	[0, 0, 0]	n/a	FR1	1	R1315T
1755.657	0.0	1756254	WAITING_END	n/a	n/a	n/a	-999	11	[0, 0, 0]	n/a	FR1	1	R1315T
1755.657	10.428	1756254	COUNTDOWN_START	n/a	n/a	n/a	-999	11	[0, 0, 0]	n/a	FR1	1	R1315T
1766.085	0.001	1766681	COUNTDOWN_END	n/a	n/a	n/a	-999	11	[0, 0, 0]	n/a	FR1	1	R1315T
1766.086	1.038	1766682	ORIENT_START	n/a	n/a	n/a	-999	11	[0, 0, 0]	n/a	FR1	1	R1315T
1767.124	0.001	1767720	ORIENT_END	n/a	n/a	n/a	-999	11	[0, 0, 0]	n/a	FR1	1	R1315T
1767.125	0.954	1767721	ENCODING_START	n/a	n/a	n/a	-999	11	[0, 0, 0]	n/a	FR1	1	R1315T
1768.079	1.613	1768675	WORD	n/a	wordpools/wordpool_EN.txt	CAKE	1	11	[0, 0, 0]	n/a	FR1	1	R1315T
1769.692	1.038	1770288	WORD_OFF	n/a	n/a	CAKE	1	11	[0, 0, 0]	n/a	FR1	1	R1315T
1770.73	1.63	1771326	WORD	n/a	wordpools/wordpool_EN.txt	PEACH	2	11	[0, 0, 0]	n/a	FR1	1	R1315T
1772.36	1.048	1772956	WORD_OFF	n/a	n/a	PEACH	2	11	[0, 0, 0]	n/a	FR1	1	R1315T
1773.408	1.634	1774004	WORD	n/a	wordpools/wordpool_EN.txt	RICE	3	11	[0, 0, 0]	n/a	FR1	1	R1315T
1775.042	0.944	1775638	WORD_OFF	n/a	n/a	RICE	3	11	[0, 0, 0]	n/a	FR1	1	R1315T
1775.986	1.608	1776582	WORD	n/a	wordpools/wordpool_EN.txt	SHARK	4	11	[0, 0, 0]	n/a	FR1	1	R1315T
1777.594	1.091	1778190	WORD_OFF	n/a	n/a	SHARK	4	11	[0, 0, 0]	n/a	FR1	1	R1315T
1778.685	1.626	1779281	WORD	n/a	wordpools/wordpool_EN.txt	STRAW	5	11	[0, 0, 0]	n/a	FR1	1	R1315T
1780.311	0.796	1780907	WORD_OFF	n/a	n/a	STRAW	5	11	[0, 0, 0]	n/a	FR1	1	R1315T
1781.107	1.638	1781703	WORD	n/a	wordpools/wordpool_EN.txt	GUARD	6	11	[0, 0, 0]	n/a	FR1	1	R1315T
1782.745	0.924	1783341	WORD_OFF	n/a	n/a	GUARD	6	11	[0, 0, 0]	n/a	FR1	1	R1315T
1783.669	1.626	1784264	WORD	n/a	wordpools/wordpool_EN.txt	RAIN	7	11	[0, 0, 0]	n/a	FR1	1	R1315T
1785.295	0.84	1785890	WORD_OFF	n/a	n/a	RAIN	7	11	[0, 0, 0]	n/a	FR1	1	R1315T
1786.135	1.61	1786730	WORD	n/a	wordpools/wordpool_EN.txt	SEAL	8	11	[0, 0, 0]	n/a	FR1	1	R1315T
1787.745	1.107	1788340	WORD_OFF	n/a	n/a	SEAL	8	11	[0, 0, 0]	n/a	FR1	1	R1315T
1788.852	1.61	1789447	WORD	n/a	wordpools/wordpool_EN.txt	TOAD	9	11	[0, 0, 0]	n/a	FR1	1	R1315T
1790.462	0.945	1791057	WORD_OFF	n/a	n/a	TOAD	9	11	[0, 0, 0]	n/a	FR1	1	R1315T
1791.407	1.622	1792002	WORD	n/a	wordpools/wordpool_EN.txt	BAG	10	11	[0, 0, 0]	n/a	FR1	1	R1315T
1793.029	1.075	1793624	WORD_OFF	n/a	n/a	BAG	10	11	[0, 0, 0]	n/a	FR1	1	R1315T
1794.104	1.626	1794699	WORD	n/a	wordpools/wordpool_EN.txt	EGG	11	11	[0, 0, 0]	n/a	FR1	1	R1315T
1795.73	0.95	1796325	WORD_OFF	n/a	n/a	EGG	11	11	[0, 0, 0]	n/a	FR1	1	R1315T
1796.68	1.634	1797275	WORD	n/a	wordpools/wordpool_EN.txt	OWL	12	11	[0, 0, 0]	n/a	FR1	1	R1315T
1798.314	0.001	1798909	WORD_OFF	n/a	n/a	OWL	12	11	[0, 0, 0]	n/a	FR1	1	R1315T
1798.315	0.0	1798910	ENCODING_END	n/a	n/a	n/a	-999	11	[0, 0, 0]	n/a	FR1	1	R1315T
1798.315	0.0	1798910	DISTRACT_START	n/a	n/a	n/a	-999	11	[0, 0, 0]	n/a	FR1	1	R1315T
1798.315	0.016	1798910	START	n/a	n/a	n/a	-999	11	[-999, -999, -999]	n/a	FR1	1	R1315T
1798.331	5.317	1798926	PROB	5.317	n/a	n/a	-999	11	[5, 3, 5]	13	FR1	1	R1315T
1803.648	5.085	1804243	PROB	5.085	n/a	n/a	-999	11	[8, 1, 5]	17	FR1	1	R1315T
1808.733	6.667	1809327	PROB	6.667	n/a	n/a	-999	11	[5, 8, 6]	19	FR1	1	R1315T
1815.4	2.034	1815994	PROB	2.034	n/a	n/a	-999	11	[7, 7, 1]	15	FR1	1	R1315T
1817.434	6.314	1818028	PROB	6.314	n/a	n/a	-999	11	[4, 1, 8]	13	FR1	1	R1315T
1823.748	0.02	1824342	STOP	n/a	n/a	n/a	-999	11	[-999, -999, -999]	n/a	FR1	1	R1315T
1823.768	0.578	1824362	DISTRACT_END	n/a	n/a	n/a	-999	11	[0, 0, 0]	n/a	FR1	1	R1315T
1824.346	1.639	1824940	RETRIEVAL_ORIENT_START	n/a	n/a	n/a	-999	11	[0, 0, 0]	n/a	FR1	1	R1315T
1825.985	0.0	1826579	RETRIEVAL_ORIENT_END	n/a	n/a	n/a	-999	11	[0, 0, 0]	n/a	FR1	1	R1315T
1825.985	1.322	1826579	REC_START	n/a	n/a	n/a	-999	11	[0, 0, 0]	n/a	FR1	1	R1315T
1827.307	0.88	1827901	REC_WORD	0.88	n/a	CAKE	1	11	[0, 0, 0]	n/a	FR1	1	R1315T
1828.187	0.904	1828781	REC_WORD	0.904	n/a	RICE	3	11	[0, 0, 0]	n/a	FR1	1	R1315T
1829.091	26.908	1829685	REC_WORD	26.908	n/a	EGG	11	11	[0, 0, 0]	n/a	FR1	1	R1315T
1855.999	0.0	1856591	REC_END	n/a	n/a	n/a	-999	11	[0, 0, 0]	n/a	FR1	1	R1315T
1855.999	0.042	1856591	TRIAL_END	n/a	n/a	n/a	-999	11	[0, 0, 0]	n/a	FR1	1	R1315T
1856.041	0.0	1856633	WAITING_START	n/a	n/a	n/a	-999	12	[0, 0, 0]	n/a	FR1	1	R1315T
1856.041	0.0	1856633	TRIAL	n/a	n/a	n/a	-999	12	[0, 0, 0]	n/a	FR1	1	R1315T
1856.041	1.534	1856633	TRIAL_START	n/a	n/a	n/a	-999	12	[0, 0, 0]	n/a	FR1	1	R1315T
1857.575	0.0	1858167	WAITING_END	n/a	n/a	n/a	-999	12	[0, 0, 0]	n/a	FR1	1	R1315T
1857.575	10.43	1858167	COUNTDOWN_START	n/a	n/a	n/a	-999	12	[0, 0, 0]	n/a	FR1	1	R1315T
1868.005	0.001	1868597	COUNTDOWN_END	n/a	n/a	n/a	-999	12	[0, 0, 0]	n/a	FR1	1	R1315T
1868.006	1.137	1868598	ORIENT_START	n/a	n/a	n/a	-999	12	[0, 0, 0]	n/a	FR1	1	R1315T
1869.143	0.0	1869735	ORIENT_END	n/a	n/a	n/a	-999	12	[0, 0, 0]	n/a	FR1	1	R1315T
1869.143	0.817	1869735	ENCODING_START	n/a	n/a	n/a	-999	12	[0, 0, 0]	n/a	FR1	1	R1315T
1869.96	1.617	1870552	WORD	n/a	wordpools/wordpool_EN.txt	JUICE	1	12	[0, 0, 0]	n/a	FR1	1	R1315T
1871.577	0.9	1872169	WORD_OFF	n/a	n/a	JUICE	1	12	[0, 0, 0]	n/a	FR1	1	R1315T
1872.477	1.633	1873069	WORD	n/a	wordpools/wordpool_EN.txt	PIPE	2	12	[0, 0, 0]	n/a	FR1	1	R1315T
1874.11	1.088	1874702	WORD_OFF	n/a	n/a	PIPE	2	12	[0, 0, 0]	n/a	FR1	1	R1315T
1875.198	1.63	1875790	WORD	n/a	wordpools/wordpool_EN.txt	ICE	3	12	[0, 0, 0]	n/a	FR1	1	R1315T
1876.828	0.855	1877420	WORD_OFF	n/a	n/a	ICE	3	12	[0, 0, 0]	n/a	FR1	1	R1315T
1877.683	1.629	1878274	WORD	n/a	wordpools/wordpool_EN.txt	GOLD	4	12	[0, 0, 0]	n/a	FR1	1	R1315T
1879.312	0.771	1879903	WORD_OFF	n/a	n/a	GOLD	4	12	[0, 0, 0]	n/a	FR1	1	R1315T
1880.083	1.63	1880674	WORD	n/a	wordpools/wordpool_EN.txt	HAND	5	12	[0, 0, 0]	n/a	FR1	1	R1315T
1881.713	0.806	1882304	WORD_OFF	n/a	n/a	HAND	5	12	[0, 0, 0]	n/a	FR1	1	R1315T
1882.519	1.626	1883110	WORD	n/a	wordpools/wordpool_EN.txt	CLOWN	6	12	[0, 0, 0]	n/a	FR1	1	R1315T
1884.145	0.987	1884736	WORD_OFF	n/a	n/a	CLOWN	6	12	[0, 0, 0]	n/a	FR1	1	R1315T
1885.132	1.615	1885723	WORD	n/a	wordpools/wordpool_EN.txt	CANE	7	12	[0, 0, 0]	n/a	FR1	1	R1315T
1886.747	1.045	1887338	WORD_OFF	n/a	n/a	CANE	7	12	[0, 0, 0]	n/a	FR1	1	R1315T
1887.792	1.605	1888383	WORD	n/a	wordpools/wordpool_EN.txt	CAR	8	12	[0, 0, 0]	n/a	FR1	1	R1315T
1889.397	0.829	1889988	WORD_OFF	n/a	n/a	CAR	8	12	[0, 0, 0]	n/a	FR1	1	R1315T
1890.226	1.621	1890817	WORD	n/a	wordpools/wordpool_EN.txt	SOUP	9	12	[0, 0, 0]	n/a	FR1	1	R1315T
1891.847	0.781	1892438	WORD_OFF	n/a	n/a	SOUP	9	12	[0, 0, 0]	n/a	FR1	1	R1315T
1892.628	1.637	1893219	WORD	n/a	wordpools/wordpool_EN.txt	SCHOOL	10	12	[0, 0, 0]	n/a	FR1	1	R1315T
1894.265	0.974	1894856	WORD_OFF	n/a	n/a	SCHOOL	10	12	[0, 0, 0]	n/a	FR1	1	R1315T
1895.239	1.625	1895830	WORD	n/a	wordpools/wordpool_EN.txt	HAT	11	12	[0, 0, 0]	n/a	FR1	1	R1315T
1896.864	0.932	1897455	WORD_OFF	n/a	n/a	HAT	11	12	[0, 0, 0]	n/a	FR1	1	R1315T
1897.796	1.62	1898387	WORD	n/a	wordpools/wordpool_EN.txt	SHIP	12	12	[0, 0, 0]	n/a	FR1	1	R1315T
1899.416	0.0	1900007	WORD_OFF	n/a	n/a	SHIP	12	12	[0, 0, 0]	n/a	FR1	1	R1315T
1899.416	0.0	1900007	ENCODING_END	n/a	n/a	n/a	-999	12	[0, 0, 0]	n/a	FR1	1	R1315T
1899.416	0.0	1900007	DISTRACT_START	n/a	n/a	n/a	-999	12	[0, 0, 0]	n/a	FR1	1	R1315T
1899.416	0.016	1900007	START	n/a	n/a	n/a	-999	12	[-999, -999, -999]	n/a	FR1	1	R1315T
1899.432	4.851	1900023	PROB	4.851	n/a	n/a	-999	12	[3, 8, 8]	19	FR1	1	R1315T
1904.283	5.218	1904873	PROB	5.218	n/a	n/a	-999	12	[4, 4, 4]	12	FR1	1	R1315T
1909.501	3.134	1910091	PROB	3.134	n/a	n/a	-999	12	[4, 4, 2]	10	FR1	1	R1315T
1912.635	2.817	1913225	PROB	2.817	n/a	n/a	-999	12	[8, 2, 9]	19	FR1	1	R1315T
1915.452	2.917	1916042	PROB	2.917	n/a	n/a	-999	12	[9, 2, 1]	12	FR1	1	R1315T
1918.369	6.419	1918959	PROB	6.419	n/a	n/a	-999	12	[4, 2, 3]	9	FR1	1	R1315T
1924.788	0.015	1925377	STOP	n/a	n/a	n/a	-999	12	[-999, -999, -999]	n/a	FR1	1	R1315T
1924.803	0.696	1925392	DISTRACT_END	n/a	n/a	n/a	-999	12	[0, 0, 0]	n/a	FR1	1	R1315T
1925.499	1.705	1926088	RETRIEVAL_ORIENT_START	n/a	n/a	n/a	-999	12	[0, 0, 0]	n/a	FR1	1	R1315T
1927.204	0.001	1927793	RETRIEVAL_ORIENT_END	n/a	n/a	n/a	-999	12	[0, 0, 0]	n/a	FR1	1	R1315T
1927.205	11.095	1927794	REC_START	n/a	n/a	n/a	-999	12	[0, 0, 0]	n/a	FR1	1	R1315T
1938.3	18.915	1938889	REC_WORD	18.915	n/a	CLOWN	6	12	[0, 0, 0]	n/a	FR1	1	R1315T
1957.215	0.001	1957803	REC_END	n/a	n/a	n/a	-999	12	[0, 0, 0]	n/a	FR1	1	R1315T
1957.216	0.014	1957804	TRIAL_END	n/a	n/a	n/a	-999	12	[0, 0, 0]	n/a	FR1	1	R1315T
1957.23	0.0	1957818	TRIAL_START	n/a	n/a	n/a	-999	13	[0, 0, 0]	n/a	FR1	1	R1315T
1957.23	0.0	1957818	TRIAL	n/a	n/a	n/a	-999	13	[0, 0, 0]	n/a	FR1	1	R1315T
1957.23	1.53	1957818	WAITING_START	n/a	n/a	n/a	-999	13	[0, 0, 0]	n/a	FR1	1	R1315T
1958.76	0.0	1959348	WAITING_END	n/a	n/a	n/a	-999	13	[0, 0, 0]	n/a	FR1	1	R1315T
1958.76	10.429	1959348	COUNTDOWN_START	n/a	n/a	n/a	-999	13	[0, 0, 0]	n/a	FR1	1	R1315T
1969.189	0.001	1969777	COUNTDOWN_END	n/a	n/a	n/a	-999	13	[0, 0, 0]	n/a	FR1	1	R1315T
1969.19	1.139	1969778	ORIENT_START	n/a	n/a	n/a	-999	13	[0, 0, 0]	n/a	FR1	1	R1315T
1970.329	0.0	1970917	ORIENT_END	n/a	n/a	n/a	-999	13	[0, 0, 0]	n/a	FR1	1	R1315T
1970.329	1.027	1970917	ENCODING_START	n/a	n/a	n/a	-999	13	[0, 0, 0]	n/a	FR1	1	R1315T
1971.356	1.622	1971944	WORD	n/a	wordpools/wordpool_EN.txt	SPARK	1	13	[0, 0, 0]	n/a	FR1	1	R1315T
1972.978	0.771	1973565	WORD_OFF	n/a	n/a	SPARK	1	13	[0, 0, 0]	n/a	FR1	1	R1315T
1973.749	1.631	1974336	WORD	n/a	wordpools/wordpool_EN.txt	PALM	2	13	[0, 0, 0]	n/a	FR1	1	R1315T
1975.38	0.871	1975967	WORD_OFF	n/a	n/a	PALM	2	13	[0, 0, 0]	n/a	FR1	1	R1315T
1976.251	1.628	1976838	WORD	n/a	wordpools/wordpool_EN.txt	ROOT	3	13	[0, 0, 0]	n/a	FR1	1	R1315T
1977.879	0.863	1978466	WORD_OFF	n/a	n/a	ROOT	3	13	[0, 0, 0]	n/a	FR1	1	R1315T
1978.742	1.622	1979329	WORD	n/a	wordpools/wordpool_EN.txt	STICK	4	13	[0, 0, 0]	n/a	FR1	1	R1315T
1980.364	0.858	1980951	WORD_OFF	n/a	n/a	STICK	4	13	[0, 0, 0]	n/a	FR1	1	R1315T
1981.222	1.625	1981809	WORD	n/a	wordpools/wordpool_EN.txt	FROG	5	13	[0, 0, 0]	n/a	FR1	1	R1315T
1982.847	0.989	1983434	WORD_OFF	n/a	n/a	FROG	5	13	[0, 0, 0]	n/a	FR1	1	R1315T
1983.836	1.629	1984423	WORD	n/a	wordpools/wordpool_EN.txt	SHEET	6	13	[0, 0, 0]	n/a	FR1	1	R1315T
1985.465	0.968	1986052	WORD_OFF	n/a	n/a	SHEET	6	13	[0, 0, 0]	n/a	FR1	1	R1315T
1986.433	1.631	1987020	WORD	n/a	wordpools/wordpool_EN.txt	NAIL	7	13	[0, 0, 0]	n/a	FR1	1	R1315T
1988.064	1.076	1988651	WORD_OFF	n/a	n/a	NAIL	7	13	[0, 0, 0]	n/a	FR1	1	R1315T
1989.14	1.625	1989727	WORD	n/a	wordpools/wordpool_EN.txt	STONE	8	13	[0, 0, 0]	n/a	FR1	1	R1315T
1990.765	0.784	1991352	WORD_OFF	n/a	n/a	STONE	8	13	[0, 0, 0]	n/a	FR1	1	R1315T
1991.549	1.633	1992136	WORD	n/a	wordpools/wordpool_EN.txt	TOAST	9	13	[0, 0, 0]	n/a	FR1	1	R1315T
1993.182	1.142	1993769	WORD_OFF	n/a	n/a	TOAST	9	13	[0, 0, 0]	n/a	FR1	1	R1315T
1994.324	1.625	1994911	WORD	n/a	wordpools/wordpool_EN.txt	GLASS	10	13	[0, 0, 0]	n/a	FR1	1	R1315T
1995.949	1.002	1996535	WORD_OFF	n/a	n/a	GLASS	10	13	[0, 0, 0]	n/a	FR1	1	R1315T
1996.951	1.616	1997537	WORD	n/a	wordpools/wordpool_EN.txt	FILM	11	13	[0, 0, 0]	n/a	FR1	1	R1315T
1998.567	1.077	1999153	WORD_OFF	n/a	n/a	FILM	11	13	[0, 0, 0]	n/a	FR1	1	R1315T
1999.644	1.624	2000230	WORD	n/a	wordpools/wordpool_EN.txt	BOMB	12	13	[0, 0, 0]	n/a	FR1	1	R1315T
2001.268	0.0	2001854	WORD_OFF	n/a	n/a	BOMB	12	13	[0, 0, 0]	n/a	FR1	1	R1315T
2001.268	0.001	2001854	ENCODING_END	n/a	n/a	n/a	-999	13	[0, 0, 0]	n/a	FR1	1	R1315T
2001.269	0.0	2001855	DISTRACT_START	n/a	n/a	n/a	-999	13	[0, 0, 0]	n/a	FR1	1	R1315T
2001.269	0.015	2001855	START	n/a	n/a	n/a	-999	13	[-999, -999, -999]	n/a	FR1	1	R1315T
2001.284	3.167	2001870	PROB	3.167	n/a	n/a	-999	13	[6, 7, 1]	14	FR1	1	R1315T
2004.451	6.285	2005037	PROB	6.285	n/a	n/a	-999	13	[5, 1, 7]	13	FR1	1	R1315T
2010.736	3.149	2011322	PROB	3.149	n/a	n/a	-999	13	[9, 6, 1]	16	FR1	1	R1315T
2013.885	3.168	2014471	PROB	3.168	n/a	n/a	-999	13	[8, 3, 1]	14	FR1	1	R1315T
2017.053	5.286	2017639	PROB	5.286	n/a	n/a	-999	13	[4, 1, 1]	6	FR1	1	R1315T
2022.339	0.016	2022924	STOP	n/a	n/a	n/a	-999	13	[-999, -999, -999]	n/a	FR1	1	R1315T
2022.355	0.566	2022940	DISTRACT_END	n/a	n/a	n/a	-999	13	[0, 0, 0]	n/a	FR1	1	R1315T
2022.921	1.651	2023506	RETRIEVAL_ORIENT_START	n/a	n/a	n/a	-999	13	[0, 0, 0]	n/a	FR1	1	R1315T
2024.572	0.0	2025157	RETRIEVAL_ORIENT_END	n/a	n/a	n/a	-999	13	[0, 0, 0]	n/a	FR1	1	R1315T
2024.572	10.848	2025157	REC_START	n/a	n/a	n/a	-999	13	[0, 0, 0]	n/a	FR1	1	R1315T
2035.42	19.165	2036005	REC_WORD_VV	19.165	n/a	<>	-999	13	[0, 0, 0]	n/a	FR1	1	R1315T
2054.585	0.0	2055169	REC_END	n/a	n/a	n/a	-999	13	[0, 0, 0]	n/a	FR1	1	R1315T
2054.585	0.016	2055169	TRIAL_END	n/a	n/a	n/a	-999	13	[0, 0, 0]	n/a	FR1	1	R1315T
2054.601	0.0	2055185	TRIAL_START	n/a	n/a	n/a	-999	14	[0, 0, 0]	n/a	FR1	1	R1315T
2054.601	0.001	2055185	TRIAL	n/a	n/a	n/a	-999	14	[0, 0, 0]	n/a	FR1	1	R1315T
2054.602	1.358	2055186	WAITING_START	n/a	n/a	n/a	-999	14	[0, 0, 0]	n/a	FR1	1	R1315T
2055.96	0.0	2056544	WAITING_END	n/a	n/a	n/a	-999	14	[0, 0, 0]	n/a	FR1	1	R1315T
2055.96	10.429	2056544	COUNTDOWN_START	n/a	n/a	n/a	-999	14	[0, 0, 0]	n/a	FR1	1	R1315T
2066.389	0.0	2066972	ORIENT_START	n/a	n/a	n/a	-999	14	[0, 0, 0]	n/a	FR1	1	R1315T
2066.389	1.257	2066972	COUNTDOWN_END	n/a	n/a	n/a	-999	14	[0, 0, 0]	n/a	FR1	1	R1315T
2067.646	0.001	2068229	ORIENT_END	n/a	n/a	n/a	-999	14	[0, 0, 0]	n/a	FR1	1	R1315T
2067.647	1.125	2068230	ENCODING_START	n/a	n/a	n/a	-999	14	[0, 0, 0]	n/a	FR1	1	R1315T
2068.772	1.625	2069355	WORD	n/a	wordpools/wordpool_EN.txt	MOUSE	1	14	[0, 0, 0]	n/a	FR1	1	R1315T
2070.397	0.834	2070980	WORD_OFF	n/a	n/a	MOUSE	1	14	[0, 0, 0]	n/a	FR1	1	R1315T
2071.231	1.632	2071814	WORD	n/a	wordpools/wordpool_EN.txt	FISH	2	14	[0, 0, 0]	n/a	FR1	1	R1315T
2072.863	1.102	2073446	WORD_OFF	n/a	n/a	FISH	2	14	[0, 0, 0]	n/a	FR1	1	R1315T
2073.965	1.616	2074548	WORD	n/a	wordpools/wordpool_EN.txt	CART	3	14	[0, 0, 0]	n/a	FR1	1	R1315T
2075.581	0.94	2076164	WORD_OFF	n/a	n/a	CART	3	14	[0, 0, 0]	n/a	FR1	1	R1315T
2076.521	1.626	2077104	WORD	n/a	wordpools/wordpool_EN.txt	BOAT	4	14	[0, 0, 0]	n/a	FR1	1	R1315T
2078.147	0.916	2078730	WORD_OFF	n/a	n/a	BOAT	4	14	[0, 0, 0]	n/a	FR1	1	R1315T
2079.063	1.619	2079646	WORD	n/a	wordpools/wordpool_EN.txt	ROSE	5	14	[0, 0, 0]	n/a	FR1	1	R1315T
2080.682	1.15	2081265	WORD_OFF	n/a	n/a	ROSE	5	14	[0, 0, 0]	n/a	FR1	1	R1315T
2081.832	1.634	2082415	WORD	n/a	wordpools/wordpool_EN.txt	SWORD	6	14	[0, 0, 0]	n/a	FR1	1	R1315T
2083.466	0.905	2084049	WORD_OFF	n/a	n/a	SWORD	6	14	[0, 0, 0]	n/a	FR1	1	R1315T
2084.371	1.628	2084954	WORD	n/a	wordpools/wordpool_EN.txt	STEM	7	14	[0, 0, 0]	n/a	FR1	1	R1315T
2085.999	0.894	2086582	WORD_OFF	n/a	n/a	STEM	7	14	[0, 0, 0]	n/a	FR1	1	R1315T
2086.893	1.624	2087476	WORD	n/a	wordpools/wordpool_EN.txt	FUDGE	8	14	[0, 0, 0]	n/a	FR1	1	R1315T
2088.517	0.974	2089100	WORD_OFF	n/a	n/a	FUDGE	8	14	[0, 0, 0]	n/a	FR1	1	R1315T
2089.491	1.625	2090074	WORD	n/a	wordpools/wordpool_EN.txt	ARK	9	14	[0, 0, 0]	n/a	FR1	1	R1315T
2091.116	1.072	2091698	WORD_OFF	n/a	n/a	ARK	9	14	[0, 0, 0]	n/a	FR1	1	R1315T
2092.188	1.629	2092770	WORD	n/a	wordpools/wordpool_EN.txt	EEL	10	14	[0, 0, 0]	n/a	FR1	1	R1315T
2093.817	0.872	2094399	WORD_OFF	n/a	n/a	EEL	10	14	[0, 0, 0]	n/a	FR1	1	R1315T
2094.689	1.629	2095271	WORD	n/a	wordpools/wordpool_EN.txt	SAIL	11	14	[0, 0, 0]	n/a	FR1	1	R1315T
2096.318	1.123	2096900	WORD_OFF	n/a	n/a	SAIL	11	14	[0, 0, 0]	n/a	FR1	1	R1315T
2097.441	1.627	2098023	WORD	n/a	wordpools/wordpool_EN.txt	BED	12	14	[0, 0, 0]	n/a	FR1	1	R1315T
2099.068	0.0	2099650	WORD_OFF	n/a	n/a	BED	12	14	[0, 0, 0]	n/a	FR1	1	R1315T
2099.068	0.0	2099650	ENCODING_END	n/a	n/a	n/a	-999	14	[0, 0, 0]	n/a	FR1	1	R1315T
2099.068	0.0	2099650	DISTRACT_START	n/a	n/a	n/a	-999	14	[0, 0, 0]	n/a	FR1	1	R1315T
2099.068	0.016	2099650	START	n/a	n/a	n/a	-999	14	[-999, -999, -999]	n/a	FR1	1	R1315T
2099.084	3.152	2099666	PROB	3.152	n/a	n/a	-999	14	[8, 2, 7]	17	FR1	1	R1315T
2102.236	2.682	2102818	PROB	2.682	n/a	n/a	-999	14	[3, 5, 5]	13	FR1	1	R1315T
2104.918	4.369	2105500	PROB	4.369	n/a	n/a	-999	14	[1, 5, 2]	8	FR1	1	R1315T
2109.287	4.883	2109869	PROB	4.883	n/a	n/a	-999	14	[7, 9, 9]	23	FR1	1	R1315T
2114.17	5.205	2114751	PROB	5.205	n/a	n/a	-999	14	[8, 5, 1]	17	FR1	1	R1315T
2119.375	0.014	2119956	STOP	n/a	n/a	n/a	-999	14	[-999, -999, -999]	n/a	FR1	1	R1315T
2119.389	0.541	2119970	DISTRACT_END	n/a	n/a	n/a	-999	14	[0, 0, 0]	n/a	FR1	1	R1315T
2119.93	1.559	2120511	RETRIEVAL_ORIENT_START	n/a	n/a	n/a	-999	14	[0, 0, 0]	n/a	FR1	1	R1315T
2121.489	0.001	2122070	RETRIEVAL_ORIENT_END	n/a	n/a	n/a	-999	14	[0, 0, 0]	n/a	FR1	1	R1315T
2121.49	1.404	2122071	REC_START	n/a	n/a	n/a	-999	14	[0, 0, 0]	n/a	FR1	1	R1315T
2122.894	0.791	2123475	REC_WORD	0.791	n/a	ARK	9	14	[0, 0, 0]	n/a	FR1	1	R1315T
2123.685	3.377	2124266	REC_WORD	3.377	n/a	STEM	7	14	[0, 0, 0]	n/a	FR1	1	R1315T
2127.062	24.44	2127643	REC_WORD	24.44	n/a	SWORD	6	14	[0, 0, 0]	n/a	FR1	1	R1315T
2151.502	0.0	2152082	REC_END	n/a	n/a	n/a	-999	14	[0, 0, 0]	n/a	FR1	1	R1315T
2151.502	0.014	2152082	TRIAL_END	n/a	n/a	n/a	-999	14	[0, 0, 0]	n/a	FR1	1	R1315T
2151.516	0.0	2152096	TRIAL_START	n/a	n/a	n/a	-999	15	[0, 0, 0]	n/a	FR1	1	R1315T
2151.516	0.001	2152096	TRIAL	n/a	n/a	n/a	-999	15	[0, 0, 0]	n/a	FR1	1	R1315T
2151.517	1.627	2152097	WAITING_START	n/a	n/a	n/a	-999	15	[0, 0, 0]	n/a	FR1	1	R1315T
2153.144	0.001	2153724	WAITING_END	n/a	n/a	n/a	-999	15	[0, 0, 0]	n/a	FR1	1	R1315T
2153.145	10.428	2153725	COUNTDOWN_START	n/a	n/a	n/a	-999	15	[0, 0, 0]	n/a	FR1	1	R1315T
2163.573	0.001	2164152	COUNTDOWN_END	n/a	n/a	n/a	-999	15	[0, 0, 0]	n/a	FR1	1	R1315T
2163.574	1.173	2164153	ORIENT_START	n/a	n/a	n/a	-999	15	[0, 0, 0]	n/a	FR1	1	R1315T
2164.747	0.001	2165326	ORIENT_END	n/a	n/a	n/a	-999	15	[0, 0, 0]	n/a	FR1	1	R1315T
2164.748	0.999	2165327	ENCODING_START	n/a	n/a	n/a	-999	15	[0, 0, 0]	n/a	FR1	1	R1315T
2165.747	1.634	2166326	WORD	n/a	wordpools/wordpool_EN.txt	DRUM	1	15	[0, 0, 0]	n/a	FR1	1	R1315T
2167.381	1.136	2167960	WORD_OFF	n/a	n/a	DRUM	1	15	[0, 0, 0]	n/a	FR1	1	R1315T
2168.517	1.63	2169096	WORD	n/a	wordpools/wordpool_EN.txt	POOL	2	15	[0, 0, 0]	n/a	FR1	1	R1315T
2170.147	0.857	2170726	WORD_OFF	n/a	n/a	POOL	2	15	[0, 0, 0]	n/a	FR1	1	R1315T
2171.004	1.611	2171583	WORD	n/a	wordpools/wordpool_EN.txt	BANK	3	15	[0, 0, 0]	n/a	FR1	1	R1315T
2172.615	1.025	2173194	WORD_OFF	n/a	n/a	BANK	3	15	[0, 0, 0]	n/a	FR1	1	R1315T
2173.64	1.626	2174219	WORD	n/a	wordpools/wordpool_EN.txt	STORM	4	15	[0, 0, 0]	n/a	FR1	1	R1315T
2175.266	1.078	2175845	WORD_OFF	n/a	n/a	STORM	4	15	[0, 0, 0]	n/a	FR1	1	R1315T
2176.344	1.638	2176923	WORD	n/a	wordpools/wordpool_EN.txt	SPONGE	5	15	[0, 0, 0]	n/a	FR1	1	R1315T
2177.982	1.126	2178561	WORD_OFF	n/a	n/a	SPONGE	5	15	[0, 0, 0]	n/a	FR1	1	R1315T
2179.108	1.609	2179687	WORD	n/a	wordpools/wordpool_EN.txt	SOCK	6	15	[0, 0, 0]	n/a	FR1	1	R1315T
2180.717	0.792	2181296	WORD_OFF	n/a	n/a	SOCK	6	15	[0, 0, 0]	n/a	FR1	1	R1315T
2181.509	1.624	2182088	WORD	n/a	wordpools/wordpool_EN.txt	BARN	7	15	[0, 0, 0]	n/a	FR1	1	R1315T
2183.133	0.824	2183712	WORD_OFF	n/a	n/a	BARN	7	15	[0, 0, 0]	n/a	FR1	1	R1315T
2183.957	1.611	2184536	WORD	n/a	wordpools/wordpool_EN.txt	PEA	8	15	[0, 0, 0]	n/a	FR1	1	R1315T
2185.568	0.806	2186146	WORD_OFF	n/a	n/a	PEA	8	15	[0, 0, 0]	n/a	FR1	1	R1315T
2186.374	1.626	2186952	WORD	n/a	wordpools/wordpool_EN.txt	SHELL	9	15	[0, 0, 0]	n/a	FR1	1	R1315T
2188.0	0.916	2188578	WORD_OFF	n/a	n/a	SHELL	9	15	[0, 0, 0]	n/a	FR1	1	R1315T
2188.916	1.619	2189494	WORD	n/a	wordpools/wordpool_EN.txt	TRAIN	10	15	[0, 0, 0]	n/a	FR1	1	R1315T
2190.535	0.943	2191113	WORD_OFF	n/a	n/a	TRAIN	10	15	[0, 0, 0]	n/a	FR1	1	R1315T
2191.478	1.623	2192056	WORD	n/a	wordpools/wordpool_EN.txt	ANT	11	15	[0, 0, 0]	n/a	FR1	1	R1315T
2193.101	0.991	2193679	WORD_OFF	n/a	n/a	ANT	11	15	[0, 0, 0]	n/a	FR1	1	R1315T
2194.092	1.628	2194670	WORD	n/a	wordpools/wordpool_EN.txt	BIRD	12	15	[0, 0, 0]	n/a	FR1	1	R1315T
2195.72	0.0	2196298	DISTRACT_START	n/a	n/a	n/a	-999	15	[0, 0, 0]	n/a	FR1	1	R1315T
2195.72	0.0	2196298	WORD_OFF	n/a	n/a	BIRD	12	15	[0, 0, 0]	n/a	FR1	1	R1315T
2195.72	0.0	2196298	ENCODING_END	n/a	n/a	n/a	-999	15	[0, 0, 0]	n/a	FR1	1	R1315T
2195.72	0.016	2196298	START	n/a	n/a	n/a	-999	15	[-999, -999, -999]	n/a	FR1	1	R1315T
2195.736	5.15	2196314	PROB	5.15	n/a	n/a	-999	15	[7, 3, 9]	19	FR1	1	R1315T
2200.886	3.234	2201464	PROB	3.234	n/a	n/a	-999	15	[2, 2, 9]	13	FR1	1	R1315T
2204.12	6.369	2204698	PROB	6.369	n/a	n/a	-999	15	[4, 4, 1]	9	FR1	1	R1315T
2210.489	5.51	2211066	PROB	5.51	n/a	n/a	-999	15	[4, 3, 4]	11	FR1	1	R1315T
2215.999	0.007	2216576	STOP	n/a	n/a	n/a	-999	15	[-999, -999, -999]	n/a	FR1	1	R1315T
2216.006	0.628	2216583	DISTRACT_END	n/a	n/a	n/a	-999	15	[0, 0, 0]	n/a	FR1	1	R1315T
2216.634	1.573	2217211	RETRIEVAL_ORIENT_START	n/a	n/a	n/a	-999	15	[0, 0, 0]	n/a	FR1	1	R1315T
2218.207	0.0	2218784	RETRIEVAL_ORIENT_END	n/a	n/a	n/a	-999	15	[0, 0, 0]	n/a	FR1	1	R1315T
2218.207	15.922	2218784	REC_START	n/a	n/a	n/a	-999	15	[0, 0, 0]	n/a	FR1	1	R1315T
2234.129	14.091	2234705	REC_WORD	14.091	n/a	STORM	4	15	[0, 0, 0]	n/a	FR1	1	R1315T
2248.22	0.0	2248796	REC_END	n/a	n/a	n/a	-999	15	[0, 0, 0]	n/a	FR1	1	R1315T
2248.22	0.016	2248796	TRIAL_END	n/a	n/a	n/a	-999	15	[0, 0, 0]	n/a	FR1	1	R1315T
2248.236	0.0	2248812	TRIAL_START	n/a	n/a	n/a	-999	16	[0, 0, 0]	n/a	FR1	1	R1315T
2248.236	0.0	2248812	TRIAL	n/a	n/a	n/a	-999	16	[0, 0, 0]	n/a	FR1	1	R1315T
2248.236	1.576	2248812	WAITING_START	n/a	n/a	n/a	-999	16	[0, 0, 0]	n/a	FR1	1	R1315T
2249.812	0.0	2250388	WAITING_END	n/a	n/a	n/a	-999	16	[0, 0, 0]	n/a	FR1	1	R1315T
2249.812	10.429	2250388	COUNTDOWN_START	n/a	n/a	n/a	-999	16	[0, 0, 0]	n/a	FR1	1	R1315T
2260.241	0.001	2260816	COUNTDOWN_END	n/a	n/a	n/a	-999	16	[0, 0, 0]	n/a	FR1	1	R1315T
2260.242	1.239	2260817	ORIENT_START	n/a	n/a	n/a	-999	16	[0, 0, 0]	n/a	FR1	1	R1315T
2261.481	0.001	2262056	ORIENT_END	n/a	n/a	n/a	-999	16	[0, 0, 0]	n/a	FR1	1	R1315T
2261.482	0.854	2262057	ENCODING_START	n/a	n/a	n/a	-999	16	[0, 0, 0]	n/a	FR1	1	R1315T
2262.336	1.628	2262911	WORD	n/a	wordpools/wordpool_EN.txt	DOCK	1	16	[0, 0, 0]	n/a	FR1	1	R1315T
2263.964	0.923	2264539	WORD_OFF	n/a	n/a	DOCK	1	16	[0, 0, 0]	n/a	FR1	1	R1315T
2264.887	1.612	2265462	WORD	n/a	wordpools/wordpool_EN.txt	SUN	2	16	[0, 0, 0]	n/a	FR1	1	R1315T
2266.499	0.803	2267074	WORD_OFF	n/a	n/a	SUN	2	16	[0, 0, 0]	n/a	FR1	1	R1315T
2267.302	1.63	2267877	WORD	n/a	wordpools/wordpool_EN.txt	FORK	3	16	[0, 0, 0]	n/a	FR1	1	R1315T
2268.932	1.114	2269507	WORD_OFF	n/a	n/a	FORK	3	16	[0, 0, 0]	n/a	FR1	1	R1315T
2270.046	1.637	2270621	WORD	n/a	wordpools/wordpool_EN.txt	FRUIT	4	16	[0, 0, 0]	n/a	FR1	1	R1315T
2271.683	1.039	2272258	WORD_OFF	n/a	n/a	FRUIT	4	16	[0, 0, 0]	n/a	FR1	1	R1315T
2272.722	1.628	2273297	WORD	n/a	wordpools/wordpool_EN.txt	SALT	5	16	[0, 0, 0]	n/a	FR1	1	R1315T
2274.35	0.953	2274925	WORD_OFF	n/a	n/a	SALT	5	16	[0, 0, 0]	n/a	FR1	1	R1315T
2275.303	1.63	2275878	WORD	n/a	wordpools/wordpool_EN.txt	LEG	6	16	[0, 0, 0]	n/a	FR1	1	R1315T
2276.933	0.783	2277508	WORD_OFF	n/a	n/a	LEG	6	16	[0, 0, 0]	n/a	FR1	1	R1315T
2277.716	1.635	2278291	WORD	n/a	wordpools/wordpool_EN.txt	SIGN	7	16	[0, 0, 0]	n/a	FR1	1	R1315T
2279.351	0.998	2279925	WORD_OFF	n/a	n/a	SIGN	7	16	[0, 0, 0]	n/a	FR1	1	R1315T
2280.349	1.635	2280923	WORD	n/a	wordpools/wordpool_EN.txt	VINE	8	16	[0, 0, 0]	n/a	FR1	1	R1315T
2281.984	0.852	2282558	WORD_OFF	n/a	n/a	VINE	8	16	[0, 0, 0]	n/a	FR1	1	R1315T
2282.836	1.633	2283410	WORD	n/a	wordpools/wordpool_EN.txt	HOOK	9	16	[0, 0, 0]	n/a	FR1	1	R1315T
2284.469	1.069	2285043	WORD_OFF	n/a	n/a	HOOK	9	16	[0, 0, 0]	n/a	FR1	1	R1315T
2285.538	1.631	2286112	WORD	n/a	wordpools/wordpool_EN.txt	BLUSH	10	16	[0, 0, 0]	n/a	FR1	1	R1315T
2287.169	0.925	2287743	WORD_OFF	n/a	n/a	BLUSH	10	16	[0, 0, 0]	n/a	FR1	1	R1315T
2288.094	1.626	2288668	WORD	n/a	wordpools/wordpool_EN.txt	SHEEP	11	16	[0, 0, 0]	n/a	FR1	1	R1315T
2289.72	0.853	2290294	WORD_OFF	n/a	n/a	SHEEP	11	16	[0, 0, 0]	n/a	FR1	1	R1315T
2290.573	1.631	2291147	WORD	n/a	wordpools/wordpool_EN.txt	HOLE	12	16	[0, 0, 0]	n/a	FR1	1	R1315T
2292.204	0.0	2292778	WORD_OFF	n/a	n/a	HOLE	12	16	[0, 0, 0]	n/a	FR1	1	R1315T
2292.204	0.0	2292778	ENCODING_END	n/a	n/a	n/a	-999	16	[0, 0, 0]	n/a	FR1	1	R1315T
2292.204	0.0	2292778	DISTRACT_START	n/a	n/a	n/a	-999	16	[0, 0, 0]	n/a	FR1	1	R1315T
2292.204	0.016	2292778	START	n/a	n/a	n/a	-999	16	[-999, -999, -999]	n/a	FR1	1	R1315T
2292.22	3.534	2292794	PROB	3.534	n/a	n/a	-999	16	[2, 9, 1]	12	FR1	1	R1315T
2295.754	7.951	2296328	PROB	7.951	n/a	n/a	-999	16	[4, 6, 3]	16	FR1	1	R1315T
2303.705	4.751	2304278	PROB	4.751	n/a	n/a	-999	16	[9, 2, 8]	19	FR1	1	R1315T
2308.456	4.57	2309029	PROB	4.57	n/a	n/a	-999	16	[2, 6, 3]	11	FR1	1	R1315T
2313.026	0.014	2313599	STOP	n/a	n/a	n/a	-999	16	[-999, -999, -999]	n/a	FR1	1	R1315T
2313.04	0.682	2313613	DISTRACT_END	n/a	n/a	n/a	-999	16	[0, 0, 0]	n/a	FR1	1	R1315T
2313.722	1.619	2314295	RETRIEVAL_ORIENT_START	n/a	n/a	n/a	-999	16	[0, 0, 0]	n/a	FR1	1	R1315T
2315.341	0.001	2315914	RETRIEVAL_ORIENT_END	n/a	n/a	n/a	-999	16	[0, 0, 0]	n/a	FR1	1	R1315T
2315.342	2.337	2315915	REC_START	n/a	n/a	n/a	-999	16	[0, 0, 0]	n/a	FR1	1	R1315T
2317.679	13.864	2318252	REC_WORD	13.864	n/a	LEG	6	16	[0, 0, 0]	n/a	FR1	1	R1315T
2331.543	13.81	2332115	REC_WORD	13.81	n/a	SUN	2	16	[0, 0, 0]	n/a	FR1	1	R1315T
2345.353	0.001	2345925	REC_END	n/a	n/a	n/a	-999	16	[0, 0, 0]	n/a	FR1	1	R1315T
2345.354	0.015	2345926	TRIAL_END	n/a	n/a	n/a	-999	16	[0, 0, 0]	n/a	FR1	1	R1315T
2345.369	0.0	2345941	WAITING_START	n/a	n/a	n/a	-999	17	[0, 0, 0]	n/a	FR1	1	R1315T
2345.369	0.0	2345941	TRIAL_START	n/a	n/a	n/a	-999	17	[0, 0, 0]	n/a	FR1	1	R1315T
2345.369	1.945	2345941	TRIAL	n/a	n/a	n/a	-999	17	[0, 0, 0]	n/a	FR1	1	R1315T
2347.314	0.0	2347886	WAITING_END	n/a	n/a	n/a	-999	17	[0, 0, 0]	n/a	FR1	1	R1315T
2347.314	10.428	2347886	COUNTDOWN_START	n/a	n/a	n/a	-999	17	[0, 0, 0]	n/a	FR1	1	R1315T
2357.742	0.001	2358313	COUNTDOWN_END	n/a	n/a	n/a	-999	17	[0, 0, 0]	n/a	FR1	1	R1315T
2357.743	1.155	2358314	ORIENT_START	n/a	n/a	n/a	-999	17	[0, 0, 0]	n/a	FR1	1	R1315T
2358.898	0.001	2359469	ORIENT_END	n/a	n/a	n/a	-999	17	[0, 0, 0]	n/a	FR1	1	R1315T
2358.899	1.013	2359470	ENCODING_START	n/a	n/a	n/a	-999	17	[0, 0, 0]	n/a	FR1	1	R1315T
2359.912	1.638	2360483	WORD	n/a	wordpools/wordpool_EN.txt	BEE	1	17	[0, 0, 0]	n/a	FR1	1	R1315T
2361.55	1.026	2362121	WORD_OFF	n/a	n/a	BEE	1	17	[0, 0, 0]	n/a	FR1	1	R1315T
2362.576	1.624	2363147	WORD	n/a	wordpools/wordpool_EN.txt	HEN	2	17	[0, 0, 0]	n/a	FR1	1	R1315T
2364.2	0.884	2364771	WORD_OFF	n/a	n/a	HEN	2	17	[0, 0, 0]	n/a	FR1	1	R1315T
2365.084	1.633	2365655	WORD	n/a	wordpools/wordpool_EN.txt	RIB	3	17	[0, 0, 0]	n/a	FR1	1	R1315T
2366.717	0.838	2367288	WORD_OFF	n/a	n/a	RIB	3	17	[0, 0, 0]	n/a	FR1	1	R1315T
2367.555	1.628	2368126	WORD	n/a	wordpools/wordpool_EN.txt	BEAN	4	17	[0, 0, 0]	n/a	FR1	1	R1315T
2369.183	0.91	2369754	WORD_OFF	n/a	n/a	BEAN	4	17	[0, 0, 0]	n/a	FR1	1	R1315T
2370.093	1.625	2370664	WORD	n/a	wordpools/wordpool_EN.txt	SWAMP	5	17	[0, 0, 0]	n/a	FR1	1	R1315T
2371.718	0.792	2372289	WORD_OFF	n/a	n/a	SWAMP	5	17	[0, 0, 0]	n/a	FR1	1	R1315T
2372.51	1.624	2373081	WORD	n/a	wordpools/wordpool_EN.txt	FORT	6	17	[0, 0, 0]	n/a	FR1	1	R1315T
2374.134	1.116	2374704	WORD_OFF	n/a	n/a	FORT	6	17	[0, 0, 0]	n/a	FR1	1	R1315T
2375.25	1.635	2375820	WORD	n/a	wordpools/wordpool_EN.txt	ROAD	7	17	[0, 0, 0]	n/a	FR1	1	R1315T
2376.885	1.055	2377455	WORD_OFF	n/a	n/a	ROAD	7	17	[0, 0, 0]	n/a	FR1	1	R1315T
2377.94	1.629	2378510	WORD	n/a	wordpools/wordpool_EN.txt	SKUNK	8	17	[0, 0, 0]	n/a	FR1	1	R1315T
2379.569	1.095	2380139	WORD_OFF	n/a	n/a	SKUNK	8	17	[0, 0, 0]	n/a	FR1	1	R1315T
2380.664	1.623	2381234	WORD	n/a	wordpools/wordpool_EN.txt	MAZE	9	17	[0, 0, 0]	n/a	FR1	1	R1315T
2382.287	1.094	2382857	WORD_OFF	n/a	n/a	MAZE	9	17	[0, 0, 0]	n/a	FR1	1	R1315T
2383.381	1.622	2383951	WORD	n/a	wordpools/wordpool_EN.txt	SHOE	10	17	[0, 0, 0]	n/a	FR1	1	R1315T
2385.003	1.04	2385573	WORD_OFF	n/a	n/a	SHOE	10	17	[0, 0, 0]	n/a	FR1	1	R1315T
2386.043	1.628	2386613	WORD	n/a	wordpools/wordpool_EN.txt	SLUSH	11	17	[0, 0, 0]	n/a	FR1	1	R1315T
2387.671	0.825	2388241	WORD_OFF	n/a	n/a	SLUSH	11	17	[0, 0, 0]	n/a	FR1	1	R1315T
2388.496	1.625	2389066	WORD	n/a	wordpools/wordpool_EN.txt	CLOCK	12	17	[0, 0, 0]	n/a	FR1	1	R1315T
2390.121	0.0	2390691	ENCODING_END	n/a	n/a	n/a	-999	17	[0, 0, 0]	n/a	FR1	1	R1315T
2390.121	0.0	2390691	WORD_OFF	n/a	n/a	CLOCK	12	17	[0, 0, 0]	n/a	FR1	1	R1315T
2390.121	0.001	2390691	DISTRACT_START	n/a	n/a	n/a	-999	17	[0, 0, 0]	n/a	FR1	1	R1315T
2390.122	0.015	2390692	START	n/a	n/a	n/a	-999	17	[-999, -999, -999]	n/a	FR1	1	R1315T
2390.137	5.818	2390707	PROB	5.818	n/a	n/a	-999	17	[1, 3, 2]	6	FR1	1	R1315T
2395.955	3.468	2396525	PROB	3.468	n/a	n/a	-999	17	[5, 8, 4]	17	FR1	1	R1315T
2399.423	2.967	2399992	PROB	2.967	n/a	n/a	-999	17	[9, 8, 1]	18	FR1	1	R1315T
2402.39	2.817	2402959	PROB	2.817	n/a	n/a	-999	17	[4, 2, 8]	14	FR1	1	R1315T
2405.207	4.8	2405776	PROB	4.8	n/a	n/a	-999	17	[3, 2, 4]	9	FR1	1	R1315T
2410.007	4.414	2410576	PROB	4.414	n/a	n/a	-999	17	[9, 6, 4]	19	FR1	1	R1315T
2414.421	0.021	2414990	STOP	n/a	n/a	n/a	-999	17	[-999, -999, -999]	n/a	FR1	1	R1315T
2414.442	0.564	2415011	DISTRACT_END	n/a	n/a	n/a	-999	17	[0, 0, 0]	n/a	FR1	1	R1315T
2415.006	1.67	2415575	RETRIEVAL_ORIENT_START	n/a	n/a	n/a	-999	17	[0, 0, 0]	n/a	FR1	1	R1315T
2416.676	0.001	2417245	RETRIEVAL_ORIENT_END	n/a	n/a	n/a	-999	17	[0, 0, 0]	n/a	FR1	1	R1315T
2416.677	1.131	2417246	REC_START	n/a	n/a	n/a	-999	17	[0, 0, 0]	n/a	FR1	1	R1315T
2417.808	0.829	2418377	REC_WORD	0.829	n/a	BEE	1	17	[0, 0, 0]	n/a	FR1	1	R1315T
2418.637	2.037	2419206	REC_WORD	2.037	n/a	SHOE	10	17	[0, 0, 0]	n/a	FR1	1	R1315T
2420.674	26.015	2421242	REC_WORD	26.015	n/a	HEN	2	17	[0, 0, 0]	n/a	FR1	1	R1315T
2446.689	0.0	2447256	REC_END	n/a	n/a	n/a	-999	17	[0, 0, 0]	n/a	FR1	1	R1315T
2446.689	0.014	2447256	TRIAL_END	n/a	n/a	n/a	-999	17	[0, 0, 0]	n/a	FR1	1	R1315T
2446.703	0.001	2447270	TRIAL_START	n/a	n/a	n/a	-999	18	[0, 0, 0]	n/a	FR1	1	R1315T
2446.704	0.0	2447271	TRIAL	n/a	n/a	n/a	-999	18	[0, 0, 0]	n/a	FR1	1	R1315T
2446.704	1.811	2447271	WAITING_START	n/a	n/a	n/a	-999	18	[0, 0, 0]	n/a	FR1	1	R1315T
2448.515	0.001	2449082	WAITING_END	n/a	n/a	n/a	-999	18	[0, 0, 0]	n/a	FR1	1	R1315T
2448.516	10.429	2449083	COUNTDOWN_START	n/a	n/a	n/a	-999	18	[0, 0, 0]	n/a	FR1	1	R1315T
2458.945	0.0	2459512	COUNTDOWN_END	n/a	n/a	n/a	-999	18	[0, 0, 0]	n/a	FR1	1	R1315T
2458.945	1.256	2459512	ORIENT_START	n/a	n/a	n/a	-999	18	[0, 0, 0]	n/a	FR1	1	R1315T
2460.201	0.0	2460768	ENCODING_START	n/a	n/a	n/a	-999	18	[0, 0, 0]	n/a	FR1	1	R1315T
2460.201	1.073	2460768	ORIENT_END	n/a	n/a	n/a	-999	18	[0, 0, 0]	n/a	FR1	1	R1315T
2461.274	1.626	2461841	WORD	n/a	wordpools/wordpool_EN.txt	BOOT	1	18	[0, 0, 0]	n/a	FR1	1	R1315T
2462.9	1.011	2463467	WORD_OFF	n/a	n/a	BOOT	1	18	[0, 0, 0]	n/a	FR1	1	R1315T
2463.911	1.624	2464478	WORD	n/a	wordpools/wordpool_EN.txt	SNAIL	2	18	[0, 0, 0]	n/a	FR1	1	R1315T
2465.535	1.092	2466102	WORD_OFF	n/a	n/a	SNAIL	2	18	[0, 0, 0]	n/a	FR1	1	R1315T
2466.627	1.625	2467194	WORD	n/a	wordpools/wordpool_EN.txt	FLAG	3	18	[0, 0, 0]	n/a	FR1	1	R1315T
2468.252	0.881	2468818	WORD_OFF	n/a	n/a	FLAG	3	18	[0, 0, 0]	n/a	FR1	1	R1315T
2469.133	1.635	2469699	WORD	n/a	wordpools/wordpool_EN.txt	SEED	4	18	[0, 0, 0]	n/a	FR1	1	R1315T
2470.768	1.013	2471334	WORD_OFF	n/a	n/a	SEED	4	18	[0, 0, 0]	n/a	FR1	1	R1315T
2471.781	1.605	2472347	WORD	n/a	wordpools/wordpool_EN.txt	INK	5	18	[0, 0, 0]	n/a	FR1	1	R1315T
2473.386	0.804	2473952	WORD_OFF	n/a	n/a	INK	5	18	[0, 0, 0]	n/a	FR1	1	R1315T
2474.19	1.629	2474756	WORD	n/a	wordpools/wordpool_EN.txt	SHRIMP	6	18	[0, 0, 0]	n/a	FR1	1	R1315T
2475.819	0.945	2476385	WORD_OFF	n/a	n/a	SHRIMP	6	18	[0, 0, 0]	n/a	FR1	1	R1315T
2476.764	1.623	2477330	WORD	n/a	wordpools/wordpool_EN.txt	FOOD	7	18	[0, 0, 0]	n/a	FR1	1	R1315T
2478.387	1.01	2478953	WORD_OFF	n/a	n/a	FOOD	7	18	[0, 0, 0]	n/a	FR1	1	R1315T
2479.397	1.623	2479963	WORD	n/a	wordpools/wordpool_EN.txt	BAT	8	18	[0, 0, 0]	n/a	FR1	1	R1315T
2481.02	1.023	2481586	WORD_OFF	n/a	n/a	BAT	8	18	[0, 0, 0]	n/a	FR1	1	R1315T
2482.043	1.612	2482609	WORD	n/a	wordpools/wordpool_EN.txt	FLOOR	9	18	[0, 0, 0]	n/a	FR1	1	R1315T
2483.655	0.796	2484221	WORD_OFF	n/a	n/a	FLOOR	9	18	[0, 0, 0]	n/a	FR1	1	R1315T
2484.451	1.62	2485017	WORD	n/a	wordpools/wordpool_EN.txt	JAR	10	18	[0, 0, 0]	n/a	FR1	1	R1315T
2486.071	1.027	2486637	WORD_OFF	n/a	n/a	JAR	10	18	[0, 0, 0]	n/a	FR1	1	R1315T
2487.098	1.608	2487664	WORD	n/a	wordpools/wordpool_EN.txt	HOOF	11	18	[0, 0, 0]	n/a	FR1	1	R1315T
2488.706	0.936	2489272	WORD_OFF	n/a	n/a	HOOF	11	18	[0, 0, 0]	n/a	FR1	1	R1315T
2489.642	1.631	2490208	WORD	n/a	wordpools/wordpool_EN.txt	CHIEF	12	18	[0, 0, 0]	n/a	FR1	1	R1315T
2491.273	0.001	2491838	WORD_OFF	n/a	n/a	CHIEF	12	18	[0, 0, 0]	n/a	FR1	1	R1315T
2491.274	0.0	2491839	ENCODING_END	n/a	n/a	n/a	-999	18	[0, 0, 0]	n/a	FR1	1	R1315T
2491.274	0.0	2491839	DISTRACT_START	n/a	n/a	n/a	-999	18	[0, 0, 0]	n/a	FR1	1	R1315T
2491.274	0.015	2491839	START	n/a	n/a	n/a	-999	18	[-999, -999, -999]	n/a	FR1	1	R1315T
2491.289	3.218	2491854	PROB	3.218	n/a	n/a	-999	18	[1, 1, 9]	11	FR1	1	R1315T
2494.507	6.851	2495072	PROB	6.851	n/a	n/a	-999	18	[9, 9, 4]	23	FR1	1	R1315T
2501.358	7.268	2501923	PROB	7.268	n/a	n/a	-999	18	[5, 4, 3]	12	FR1	1	R1315T
2508.626	7.38	2509191	PROB	7.38	n/a	n/a	-999	18	[4, 9, 3]	16	FR1	1	R1315T
2516.006	0.021	2516570	STOP	n/a	n/a	n/a	-999	18	[-999, -999, -999]	n/a	FR1	1	R1315T
2516.027	0.654	2516591	DISTRACT_END	n/a	n/a	n/a	-999	18	[0, 0, 0]	n/a	FR1	1	R1315T
2516.681	1.597	2517245	RETRIEVAL_ORIENT_START	n/a	n/a	n/a	-999	18	[0, 0, 0]	n/a	FR1	1	R1315T
2518.278	0.0	2518842	RETRIEVAL_ORIENT_END	n/a	n/a	n/a	-999	18	[0, 0, 0]	n/a	FR1	1	R1315T
2518.278	0.995	2518842	REC_START	n/a	n/a	n/a	-999	18	[0, 0, 0]	n/a	FR1	1	R1315T
2519.273	29.017	2519837	REC_WORD	29.017	n/a	BOOT	1	18	[0, 0, 0]	n/a	FR1	1	R1315T
2548.29	0.0	2548853	REC_END	n/a	n/a	n/a	-999	18	[0, 0, 0]	n/a	FR1	1	R1315T
2548.29	0.015	2548853	TRIAL_END	n/a	n/a	n/a	-999	18	[0, 0, 0]	n/a	FR1	1	R1315T
2548.305	0.0	2548868	TRIAL_START	n/a	n/a	n/a	-999	19	[0, 0, 0]	n/a	FR1	1	R1315T
2548.305	0.001	2548868	TRIAL	n/a	n/a	n/a	-999	19	[0, 0, 0]	n/a	FR1	1	R1315T
2548.306	1.428	2548869	WAITING_START	n/a	n/a	n/a	-999	19	[0, 0, 0]	n/a	FR1	1	R1315T
2549.734	0.0	2550297	WAITING_END	n/a	n/a	n/a	-999	19	[0, 0, 0]	n/a	FR1	1	R1315T
2549.734	10.429	2550297	COUNTDOWN_START	n/a	n/a	n/a	-999	19	[0, 0, 0]	n/a	FR1	1	R1315T
2560.163	0.001	2560726	COUNTDOWN_END	n/a	n/a	n/a	-999	19	[0, 0, 0]	n/a	FR1	1	R1315T
2560.164	1.021	2560727	ORIENT_START	n/a	n/a	n/a	-999	19	[0, 0, 0]	n/a	FR1	1	R1315T
2561.185	0.0	2561748	ORIENT_END	n/a	n/a	n/a	-999	19	[0, 0, 0]	n/a	FR1	1	R1315T
2561.185	0.863	2561748	ENCODING_START	n/a	n/a	n/a	-999	19	[0, 0, 0]	n/a	FR1	1	R1315T
2562.048	1.638	2562610	WORD	n/a	wordpools/wordpool_EN.txt	SEA	1	19	[0, 0, 0]	n/a	FR1	1	R1315T
2563.686	0.752	2564248	WORD_OFF	n/a	n/a	SEA	1	19	[0, 0, 0]	n/a	FR1	1	R1315T
2564.438	1.631	2565000	WORD	n/a	wordpools/wordpool_EN.txt	STAIR	2	19	[0, 0, 0]	n/a	FR1	1	R1315T
2566.069	0.807	2566631	WORD_OFF	n/a	n/a	STAIR	2	19	[0, 0, 0]	n/a	FR1	1	R1315T
2566.876	1.611	2567438	WORD	n/a	wordpools/wordpool_EN.txt	JET	3	19	[0, 0, 0]	n/a	FR1	1	R1315T
2568.487	1.034	2569049	WORD_OFF	n/a	n/a	JET	3	19	[0, 0, 0]	n/a	FR1	1	R1315T
2569.521	1.632	2570083	WORD	n/a	wordpools/wordpool_EN.txt	HEART	4	19	[0, 0, 0]	n/a	FR1	1	R1315T
2571.153	1.033	2571715	WORD_OFF	n/a	n/a	HEART	4	19	[0, 0, 0]	n/a	FR1	1	R1315T
2572.186	1.634	2572748	WORD	n/a	wordpools/wordpool_EN.txt	KEY	5	19	[0, 0, 0]	n/a	FR1	1	R1315T
2573.82	0.766	2574382	WORD_OFF	n/a	n/a	KEY	5	19	[0, 0, 0]	n/a	FR1	1	R1315T
2574.586	1.636	2575148	WORD	n/a	wordpools/wordpool_EN.txt	CUBE	6	19	[0, 0, 0]	n/a	FR1	1	R1315T
2576.222	0.826	2576784	WORD_OFF	n/a	n/a	CUBE	6	19	[0, 0, 0]	n/a	FR1	1	R1315T
2577.048	1.624	2577610	WORD	n/a	wordpools/wordpool_EN.txt	BEACH	7	19	[0, 0, 0]	n/a	FR1	1	R1315T
2578.672	0.782	2579234	WORD_OFF	n/a	n/a	BEACH	7	19	[0, 0, 0]	n/a	FR1	1	R1315T
2579.454	1.634	2580016	WORD	n/a	wordpools/wordpool_EN.txt	TIE	8	19	[0, 0, 0]	n/a	FR1	1	R1315T
2581.088	1.036	2581650	WORD_OFF	n/a	n/a	TIE	8	19	[0, 0, 0]	n/a	FR1	1	R1315T
2582.124	1.616	2582686	WORD	n/a	wordpools/wordpool_EN.txt	ROCK	9	19	[0, 0, 0]	n/a	FR1	1	R1315T
2583.74	0.9	2584302	WORD_OFF	n/a	n/a	ROCK	9	19	[0, 0, 0]	n/a	FR1	1	R1315T
2584.64	1.634	2585202	WORD	n/a	wordpools/wordpool_EN.txt	GEESE	10	19	[0, 0, 0]	n/a	FR1	1	R1315T
2586.274	0.85	2586835	WORD_OFF	n/a	n/a	GEESE	10	19	[0, 0, 0]	n/a	FR1	1	R1315T
2587.124	1.617	2587685	WORD	n/a	wordpools/wordpool_EN.txt	PANTS	11	19	[0, 0, 0]	n/a	FR1	1	R1315T
2588.741	0.988	2589302	WORD_OFF	n/a	n/a	PANTS	11	19	[0, 0, 0]	n/a	FR1	1	R1315T
2589.729	1.629	2590290	WORD	n/a	wordpools/wordpool_EN.txt	RAT	12	19	[0, 0, 0]	n/a	FR1	1	R1315T
2591.358	0.0	2591919	WORD_OFF	n/a	n/a	RAT	12	19	[0, 0, 0]	n/a	FR1	1	R1315T
2591.358	0.001	2591919	ENCODING_END	n/a	n/a	n/a	-999	19	[0, 0, 0]	n/a	FR1	1	R1315T
2591.359	0.0	2591920	DISTRACT_START	n/a	n/a	n/a	-999	19	[0, 0, 0]	n/a	FR1	1	R1315T
2591.359	0.015	2591920	START	n/a	n/a	n/a	-999	19	[-999, -999, -999]	n/a	FR1	1	R1315T
2591.374	12.518	2591935	PROB	12.518	n/a	n/a	-999	19	[8, 8, 9]	26	FR1	1	R1315T
2603.892	2.852	2604453	PROB	2.852	n/a	n/a	-999	19	[8, 2, 3]	13	FR1	1	R1315T
2606.744	2.484	2607305	PROB	2.484	n/a	n/a	-999	19	[4, 6, 8]	18	FR1	1	R1315T
2609.228	5.332	2609788	PROB	5.332	n/a	n/a	-999	19	[3, 8, 3]	14	FR1	1	R1315T
2614.56	0.019	2615120	STOP	n/a	n/a	n/a	-999	19	[-999, -999, -999]	n/a	FR1	1	R1315T
2614.579	0.533	2615139	DISTRACT_END	n/a	n/a	n/a	-999	19	[0, 0, 0]	n/a	FR1	1	R1315T
2615.112	1.6	2615672	RETRIEVAL_ORIENT_START	n/a	n/a	n/a	-999	19	[0, 0, 0]	n/a	FR1	1	R1315T
2616.712	0.001	2617272	RETRIEVAL_ORIENT_END	n/a	n/a	n/a	-999	19	[0, 0, 0]	n/a	FR1	1	R1315T
2616.713	1.419	2617273	REC_START	n/a	n/a	n/a	-999	19	[0, 0, 0]	n/a	FR1	1	R1315T
2618.132	1.1	2618692	REC_WORD	1.1	n/a	PANTS	11	19	[0, 0, 0]	n/a	FR1	1	R1315T
2619.232	11.493	2619792	REC_WORD	11.493	n/a	SEA	1	19	[0, 0, 0]	n/a	FR1	1	R1315T
2630.725	15.999	2631285	REC_WORD	15.999	n/a	BOOT	-999	19	[0, 0, 0]	n/a	FR1	1	R1315T
2646.724	0.0	2647283	REC_END	n/a	n/a	n/a	-999	19	[0, 0, 0]	n/a	FR1	1	R1315T
2646.724	0.015	2647283	TRIAL_END	n/a	n/a	n/a	-999	19	[0, 0, 0]	n/a	FR1	1	R1315T
2646.739	0.0	2647298	TRIAL	n/a	n/a	n/a	-999	20	[0, 0, 0]	n/a	FR1	1	R1315T
2646.739	0.0	2647298	WAITING_START	n/a	n/a	n/a	-999	20	[0, 0, 0]	n/a	FR1	1	R1315T
2646.739	2.345	2647298	TRIAL_START	n/a	n/a	n/a	-999	20	[0, 0, 0]	n/a	FR1	1	R1315T
2649.084	0.0	2649643	WAITING_END	n/a	n/a	n/a	-999	20	[0, 0, 0]	n/a	FR1	1	R1315T
2649.084	10.43	2649643	COUNTDOWN_START	n/a	n/a	n/a	-999	20	[0, 0, 0]	n/a	FR1	1	R1315T
2659.514	0.0	2660072	COUNTDOWN_END	n/a	n/a	n/a	-999	20	[0, 0, 0]	n/a	FR1	1	R1315T
2659.514	1.14	2660072	ORIENT_START	n/a	n/a	n/a	-999	20	[0, 0, 0]	n/a	FR1	1	R1315T
2660.654	0.0	2661212	ORIENT_END	n/a	n/a	n/a	-999	20	[0, 0, 0]	n/a	FR1	1	R1315T
2660.654	0.915	2661212	ENCODING_START	n/a	n/a	n/a	-999	20	[0, 0, 0]	n/a	FR1	1	R1315T
2661.569	1.635	2662127	WORD	n/a	wordpools/wordpool_EN.txt	APE	1	20	[0, 0, 0]	n/a	FR1	1	R1315T
2663.204	0.932	2663762	WORD_OFF	n/a	n/a	APE	1	20	[0, 0, 0]	n/a	FR1	1	R1315T
2664.136	1.618	2664694	WORD	n/a	wordpools/wordpool_EN.txt	TREE	2	20	[0, 0, 0]	n/a	FR1	1	R1315T
2665.754	1.033	2666312	WORD_OFF	n/a	n/a	TREE	2	20	[0, 0, 0]	n/a	FR1	1	R1315T
2666.787	1.618	2667345	WORD	n/a	wordpools/wordpool_EN.txt	KITE	3	20	[0, 0, 0]	n/a	FR1	1	R1315T
2668.405	1.027	2668963	WORD_OFF	n/a	n/a	KITE	3	20	[0, 0, 0]	n/a	FR1	1	R1315T
2669.432	1.623	2669990	WORD	n/a	wordpools/wordpool_EN.txt	STOOL	4	20	[0, 0, 0]	n/a	FR1	1	R1315T
2671.055	0.973	2671613	WORD_OFF	n/a	n/a	STOOL	4	20	[0, 0, 0]	n/a	FR1	1	R1315T
2672.028	1.628	2672586	WORD	n/a	wordpools/wordpool_EN.txt	LAMP	5	20	[0, 0, 0]	n/a	FR1	1	R1315T
2673.656	0.854	2674214	WORD_OFF	n/a	n/a	LAMP	5	20	[0, 0, 0]	n/a	FR1	1	R1315T
2674.51	1.629	2675068	WORD	n/a	wordpools/wordpool_EN.txt	WAND	6	20	[0, 0, 0]	n/a	FR1	1	R1315T
2676.139	0.771	2676697	WORD_OFF	n/a	n/a	WAND	6	20	[0, 0, 0]	n/a	FR1	1	R1315T
2676.91	1.63	2677468	WORD	n/a	wordpools/wordpool_EN.txt	FARM	7	20	[0, 0, 0]	n/a	FR1	1	R1315T
2678.54	0.88	2679098	WORD_OFF	n/a	n/a	FARM	7	20	[0, 0, 0]	n/a	FR1	1	R1315T
2679.42	1.62	2679978	WORD	n/a	wordpools/wordpool_EN.txt	NOSE	8	20	[0, 0, 0]	n/a	FR1	1	R1315T
2681.04	0.827	2681597	WORD_OFF	n/a	n/a	NOSE	8	20	[0, 0, 0]	n/a	FR1	1	R1315T
2681.867	1.624	2682424	WORD	n/a	wordpools/wordpool_EN.txt	WOOD	9	20	[0, 0, 0]	n/a	FR1	1	R1315T
2683.491	0.926	2684048	WORD_OFF	n/a	n/a	WOOD	9	20	[0, 0, 0]	n/a	FR1	1	R1315T
2684.417	1.624	2684974	WORD	n/a	wordpools/wordpool_EN.txt	BALL	10	20	[0, 0, 0]	n/a	FR1	1	R1315T
2686.041	0.855	2686598	WORD_OFF	n/a	n/a	BALL	10	20	[0, 0, 0]	n/a	FR1	1	R1315T
2686.896	1.629	2687453	WORD	n/a	wordpools/wordpool_EN.txt	COW	11	20	[0, 0, 0]	n/a	FR1	1	R1315T
2688.525	0.757	2689082	WORD_OFF	n/a	n/a	COW	11	20	[0, 0, 0]	n/a	FR1	1	R1315T
2689.282	1.626	2689839	WORD	n/a	wordpools/wordpool_EN.txt	PIG	12	20	[0, 0, 0]	n/a	FR1	1	R1315T
2690.908	0.001	2691465	WORD_OFF	n/a	n/a	PIG	12	20	[0, 0, 0]	n/a	FR1	1	R1315T
2690.909	0.0	2691466	ENCODING_END	n/a	n/a	n/a	-999	20	[0, 0, 0]	n/a	FR1	1	R1315T
2690.909	0.0	2691466	DISTRACT_START	n/a	n/a	n/a	-999	20	[0, 0, 0]	n/a	FR1	1	R1315T
2690.909	0.016	2691466	START	n/a	n/a	n/a	-999	20	[-999, -999, -999]	n/a	FR1	1	R1315T
2690.925	6.619	2691482	PROB	6.619	n/a	n/a	-999	20	[3, 9, 5]	17	FR1	1	R1315T
2697.544	8.5	2698101	PROB	8.5	n/a	n/a	-999	20	[4, 7, 8]	18	FR1	1	R1315T
2706.044	3.901	2706600	PROB	3.901	n/a	n/a	-999	20	[6, 6, 6]	20	FR1	1	R1315T
2709.945	8.949	2710501	PROB	8.949	n/a	n/a	-999	20	[7, 1, 4]	12	FR1	1	R1315T
2718.894	0.019	2719450	STOP	n/a	n/a	n/a	-999	20	[-999, -999, -999]	n/a	FR1	1	R1315T
2718.913	0.632	2719469	DISTRACT_END	n/a	n/a	n/a	-999	20	[0, 0, 0]	n/a	FR1	1	R1315T
2719.545	1.569	2720101	RETRIEVAL_ORIENT_START	n/a	n/a	n/a	-999	20	[0, 0, 0]	n/a	FR1	1	R1315T
2721.114	0.0	2721670	REC_START	n/a	n/a	n/a	-999	20	[0, 0, 0]	n/a	FR1	1	R1315T
2721.114	18.389	2721670	RETRIEVAL_ORIENT_END	n/a	n/a	n/a	-999	20	[0, 0, 0]	n/a	FR1	1	R1315T
2739.503	11.624	2740058	REC_WORD_VV	11.624	n/a	<>	-999	20	[0, 0, 0]	n/a	FR1	1	R1315T
2751.127	0.0	2751681	REC_END	n/a	n/a	n/a	-999	20	[0, 0, 0]	n/a	FR1	1	R1315T
2751.127	0.015	2751681	TRIAL_END	n/a	n/a	n/a	-999	20	[0, 0, 0]	n/a	FR1	1	R1315T
2751.142	0.0	2751696	TRIAL_START	n/a	n/a	n/a	-999	21	[0, 0, 0]	n/a	FR1	1	R1315T
2751.142	0.0	2751696	TRIAL	n/a	n/a	n/a	-999	21	[0, 0, 0]	n/a	FR1	1	R1315T
2751.142	2.694	2751696	WAITING_START	n/a	n/a	n/a	-999	21	[0, 0, 0]	n/a	FR1	1	R1315T
2753.836	0.001	2754390	WAITING_END	n/a	n/a	n/a	-999	21	[0, 0, 0]	n/a	FR1	1	R1315T
2753.837	10.428	2754391	COUNTDOWN_START	n/a	n/a	n/a	-999	21	[0, 0, 0]	n/a	FR1	1	R1315T
2764.265	0.001	2764819	COUNTDOWN_END	n/a	n/a	n/a	-999	21	[0, 0, 0]	n/a	FR1	1	R1315T
2764.266	1.173	2764820	ORIENT_START	n/a	n/a	n/a	-999	21	[0, 0, 0]	n/a	FR1	1	R1315T
2765.439	0.001	2765993	ORIENT_END	n/a	n/a	n/a	-999	21	[0, 0, 0]	n/a	FR1	1	R1315T
2765.44	0.798	2765994	ENCODING_START	n/a	n/a	n/a	-999	21	[0, 0, 0]	n/a	FR1	1	R1315T
2766.238	1.634	2766792	WORD	n/a	wordpools/wordpool_EN.txt	MULE	1	21	[0, 0, 0]	n/a	FR1	1	R1315T
2767.872	0.909	2768426	WORD_OFF	n/a	n/a	MULE	1	21	[0, 0, 0]	n/a	FR1	1	R1315T
2768.781	1.626	2769335	WORD	n/a	wordpools/wordpool_EN.txt	FENCE	2	21	[0, 0, 0]	n/a	FR1	1	R1315T
2770.407	1.014	2770961	WORD_OFF	n/a	n/a	FENCE	2	21	[0, 0, 0]	n/a	FR1	1	R1315T
2771.421	1.635	2771975	WORD	n/a	wordpools/wordpool_EN.txt	SMILE	3	21	[0, 0, 0]	n/a	FR1	1	R1315T
2773.056	0.829	2773610	WORD_OFF	n/a	n/a	SMILE	3	21	[0, 0, 0]	n/a	FR1	1	R1315T
2773.885	1.606	2774439	WORD	n/a	wordpools/wordpool_EN.txt	ZOO	4	21	[0, 0, 0]	n/a	FR1	1	R1315T
2775.491	0.978	2776044	WORD_OFF	n/a	n/a	ZOO	4	21	[0, 0, 0]	n/a	FR1	1	R1315T
2776.469	1.622	2777022	WORD	n/a	wordpools/wordpool_EN.txt	PLATE	5	21	[0, 0, 0]	n/a	FR1	1	R1315T
2778.091	0.862	2778644	WORD_OFF	n/a	n/a	PLATE	5	21	[0, 0, 0]	n/a	FR1	1	R1315T
2778.953	1.606	2779506	WORD	n/a	wordpools/wordpool_EN.txt	FUR	6	21	[0, 0, 0]	n/a	FR1	1	R1315T
2780.559	0.98	2781112	WORD_OFF	n/a	n/a	FUR	6	21	[0, 0, 0]	n/a	FR1	1	R1315T
2781.539	1.636	2782092	WORD	n/a	wordpools/wordpool_EN.txt	TRAY	7	21	[0, 0, 0]	n/a	FR1	1	R1315T
2783.175	0.77	2783728	WORD_OFF	n/a	n/a	TRAY	7	21	[0, 0, 0]	n/a	FR1	1	R1315T
2783.945	1.614	2784498	WORD	n/a	wordpools/wordpool_EN.txt	PEARL	8	21	[0, 0, 0]	n/a	FR1	1	R1315T
2785.559	1.037	2786112	WORD_OFF	n/a	n/a	PEARL	8	21	[0, 0, 0]	n/a	FR1	1	R1315T
2786.596	1.631	2787149	WORD	n/a	wordpools/wordpool_EN.txt	DOG	9	21	[0, 0, 0]	n/a	FR1	1	R1315T
2788.227	0.868	2788780	WORD_OFF	n/a	n/a	DOG	9	21	[0, 0, 0]	n/a	FR1	1	R1315T
2789.095	1.616	2789648	WORD	n/a	wordpools/wordpool_EN.txt	FLAME	10	21	[0, 0, 0]	n/a	FR1	1	R1315T
2790.711	0.874	2791264	WORD_OFF	n/a	n/a	FLAME	10	21	[0, 0, 0]	n/a	FR1	1	R1315T
2791.585	1.626	2792138	WORD	n/a	wordpools/wordpool_EN.txt	SUIT	11	21	[0, 0, 0]	n/a	FR1	1	R1315T
2793.211	0.906	2793764	WORD_OFF	n/a	n/a	SUIT	11	21	[0, 0, 0]	n/a	FR1	1	R1315T
2794.117	1.628	2794670	WORD	n/a	wordpools/wordpool_EN.txt	BOY	12	21	[0, 0, 0]	n/a	FR1	1	R1315T
2795.745	0.0	2796298	WORD_OFF	n/a	n/a	BOY	12	21	[0, 0, 0]	n/a	FR1	1	R1315T
2795.745	0.001	2796298	ENCODING_END	n/a	n/a	n/a	-999	21	[0, 0, 0]	n/a	FR1	1	R1315T
2795.746	0.0	2796299	DISTRACT_START	n/a	n/a	n/a	-999	21	[0, 0, 0]	n/a	FR1	1	R1315T
2795.746	0.015	2796299	START	n/a	n/a	n/a	-999	21	[-999, -999, -999]	n/a	FR1	1	R1315T
2795.761	6.017	2796314	PROB	6.017	n/a	n/a	-999	21	[3, 9, 2]	15	FR1	1	R1315T
2801.778	8.035	2802330	PROB	8.035	n/a	n/a	-999	21	[7, 9, 8]	24	FR1	1	R1315T
2809.813	7.481	2810365	PROB	7.481	n/a	n/a	-999	21	[9, 2, 2]	13	FR1	1	R1315T
2817.294	0.021	2817846	STOP	n/a	n/a	n/a	-999	21	[-999, -999, -999]	n/a	FR1	1	R1315T
2817.315	0.585	2817867	DISTRACT_END	n/a	n/a	n/a	-999	21	[0, 0, 0]	n/a	FR1	1	R1315T
2817.9	1.716	2818452	RETRIEVAL_ORIENT_START	n/a	n/a	n/a	-999	21	[0, 0, 0]	n/a	FR1	1	R1315T
2819.616	0.0	2820168	RETRIEVAL_ORIENT_END	n/a	n/a	n/a	-999	21	[0, 0, 0]	n/a	FR1	1	R1315T
2819.616	0.825	2820168	REC_START	n/a	n/a	n/a	-999	21	[0, 0, 0]	n/a	FR1	1	R1315T
2820.441	1.232	2820993	REC_WORD	1.232	n/a	SMILE	3	21	[0, 0, 0]	n/a	FR1	1	R1315T
2821.673	1.535	2822224	REC_WORD	1.535	n/a	ZOO	4	21	[0, 0, 0]	n/a	FR1	1	R1315T
2823.208	4.204	2823759	REC_WORD_VV	4.204	n/a	<>	-999	21	[0, 0, 0]	n/a	FR1	1	R1315T
2827.412	22.216	2827963	REC_WORD	22.216	n/a	DOG	9	21	[0, 0, 0]	n/a	FR1	1	R1315T
2849.628	0.0	2850178	REC_END	n/a	n/a	n/a	-999	21	[0, 0, 0]	n/a	FR1	1	R1315T
2849.628	0.014	2850178	TRIAL_END	n/a	n/a	n/a	-999	21	[0, 0, 0]	n/a	FR1	1	R1315T
2849.642	0.001	2850192	TRIAL_START	n/a	n/a	n/a	-999	22	[0, 0, 0]	n/a	FR1	1	R1315T
2849.643	0.0	2850193	TRIAL	n/a	n/a	n/a	-999	22	[0, 0, 0]	n/a	FR1	1	R1315T
2849.643	1.929	2850193	WAITING_START	n/a	n/a	n/a	-999	22	[0, 0, 0]	n/a	FR1	1	R1315T
2851.572	0.0	2852122	COUNTDOWN_START	n/a	n/a	n/a	-999	22	[0, 0, 0]	n/a	FR1	1	R1315T
2851.572	10.429	2852122	WAITING_END	n/a	n/a	n/a	-999	22	[0, 0, 0]	n/a	FR1	1	R1315T
2862.001	0.0	2862551	COUNTDOWN_END	n/a	n/a	n/a	-999	22	[0, 0, 0]	n/a	FR1	1	R1315T
2862.001	1.189	2862551	ORIENT_START	n/a	n/a	n/a	-999	22	[0, 0, 0]	n/a	FR1	1	R1315T
2863.19	0.001	2863740	ORIENT_END	n/a	n/a	n/a	-999	22	[0, 0, 0]	n/a	FR1	1	R1315T
2863.191	1.062	2863741	ENCODING_START	n/a	n/a	n/a	-999	22	[0, 0, 0]	n/a	FR1	1	R1315T
2864.253	1.637	2864803	WORD	n/a	wordpools/wordpool_EN.txt	WALL	1	22	[0, 0, 0]	n/a	FR1	1	R1315T
2865.89	1.058	2866440	WORD_OFF	n/a	n/a	WALL	1	22	[0, 0, 0]	n/a	FR1	1	R1315T
2866.948	1.61	2867498	WORD	n/a	wordpools/wordpool_EN.txt	ELF	2	22	[0, 0, 0]	n/a	FR1	1	R1315T
2868.558	0.935	2869107	WORD_OFF	n/a	n/a	ELF	2	22	[0, 0, 0]	n/a	FR1	1	R1315T
2869.493	1.631	2870042	WORD	n/a	wordpools/wordpool_EN.txt	ARM	3	22	[0, 0, 0]	n/a	FR1	1	R1315T
2871.124	1.089	2871673	WORD_OFF	n/a	n/a	ARM	3	22	[0, 0, 0]	n/a	FR1	1	R1315T
2872.213	1.628	2872762	WORD	n/a	wordpools/wordpool_EN.txt	BENCH	4	22	[0, 0, 0]	n/a	FR1	1	R1315T
2873.841	1.142	2874390	WORD_OFF	n/a	n/a	BENCH	4	22	[0, 0, 0]	n/a	FR1	1	R1315T
2874.983	1.61	2875532	WORD	n/a	wordpools/wordpool_EN.txt	WHALE	5	22	[0, 0, 0]	n/a	FR1	1	R1315T
2876.593	0.874	2877142	WORD_OFF	n/a	n/a	WHALE	5	22	[0, 0, 0]	n/a	FR1	1	R1315T
2877.467	1.625	2878016	WORD	n/a	wordpools/wordpool_EN.txt	CALF	6	22	[0, 0, 0]	n/a	FR1	1	R1315T
2879.092	0.94	2879641	WORD_OFF	n/a	n/a	CALF	6	22	[0, 0, 0]	n/a	FR1	1	R1315T
2880.032	1.628	2880581	WORD	n/a	wordpools/wordpool_EN.txt	BRIDGE	7	22	[0, 0, 0]	n/a	FR1	1	R1315T
2881.66	1.047	2882209	WORD_OFF	n/a	n/a	BRIDGE	7	22	[0, 0, 0]	n/a	FR1	1	R1315T
2882.707	1.637	2883256	WORD	n/a	wordpools/wordpool_EN.txt	SHIELD	8	22	[0, 0, 0]	n/a	FR1	1	R1315T
2884.344	0.966	2884893	WORD_OFF	n/a	n/a	SHIELD	8	22	[0, 0, 0]	n/a	FR1	1	R1315T
2885.31	1.634	2885859	WORD	n/a	wordpools/wordpool_EN.txt	CONE	9	22	[0, 0, 0]	n/a	FR1	1	R1315T
2886.944	1.062	2887493	WORD_OFF	n/a	n/a	CONE	9	22	[0, 0, 0]	n/a	FR1	1	R1315T
2888.006	1.606	2888555	WORD	n/a	wordpools/wordpool_EN.txt	MUD	10	22	[0, 0, 0]	n/a	FR1	1	R1315T
2889.612	1.013	2890161	WORD_OFF	n/a	n/a	MUD	10	22	[0, 0, 0]	n/a	FR1	1	R1315T
2890.625	1.621	2891174	WORD	n/a	wordpools/wordpool_EN.txt	FLEA	11	22	[0, 0, 0]	n/a	FR1	1	R1315T
2892.246	0.966	2892794	WORD_OFF	n/a	n/a	FLEA	11	22	[0, 0, 0]	n/a	FR1	1	R1315T
2893.212	1.633	2893760	WORD	n/a	wordpools/wordpool_EN.txt	CORD	12	22	[0, 0, 0]	n/a	FR1	1	R1315T
2894.845	0.001	2895393	WORD_OFF	n/a	n/a	CORD	12	22	[0, 0, 0]	n/a	FR1	1	R1315T
2894.846	0.0	2895394	ENCODING_END	n/a	n/a	n/a	-999	22	[0, 0, 0]	n/a	FR1	1	R1315T
2894.846	0.0	2895394	DISTRACT_START	n/a	n/a	n/a	-999	22	[0, 0, 0]	n/a	FR1	1	R1315T
2894.846	0.016	2895394	START	n/a	n/a	n/a	-999	22	[-999, -999, -999]	n/a	FR1	1	R1315T
2894.862	7.101	2895410	PROB	7.101	n/a	n/a	-999	22	[2, 5, 4]	12	FR1	1	R1315T
2901.963	11.353	2902511	PROB	11.353	n/a	n/a	-999	22	[7, 8, 4]	19	FR1	1	R1315T
2913.316	5.793	2913864	PROB	5.793	n/a	n/a	-999	22	[4, 9, 8]	21	FR1	1	R1315T
2919.109	0.007	2919656	STOP	n/a	n/a	n/a	-999	22	[-999, -999, -999]	n/a	FR1	1	R1315T
2919.116	0.679	2919663	DISTRACT_END	n/a	n/a	n/a	-999	22	[0, 0, 0]	n/a	FR1	1	R1315T
2919.795	1.589	2920342	RETRIEVAL_ORIENT_START	n/a	n/a	n/a	-999	22	[0, 0, 0]	n/a	FR1	1	R1315T
2921.384	0.001	2921931	RETRIEVAL_ORIENT_END	n/a	n/a	n/a	-999	22	[0, 0, 0]	n/a	FR1	1	R1315T
2921.385	0.0	2921932	REC_START	n/a	n/a	n/a	-999	22	[0, 0, 0]	n/a	FR1	1	R1315T
2921.385	30.011	2921932	REC_WORD_VV	30.011	n/a	<>	-999	22	[0, 0, 0]	n/a	FR1	1	R1315T
2951.396	0.0	2951942	REC_END	n/a	n/a	n/a	-999	22	[0, 0, 0]	n/a	FR1	1	R1315T
2951.396	0.016	2951942	TRIAL_END	n/a	n/a	n/a	-999	22	[0, 0, 0]	n/a	FR1	1	R1315T
2951.412	0.0	2951958	TRIAL_START	n/a	n/a	n/a	-999	23	[0, 0, 0]	n/a	FR1	1	R1315T
2951.412	0.0	2951958	TRIAL	n/a	n/a	n/a	-999	23	[0, 0, 0]	n/a	FR1	1	R1315T
2951.412	1.261	2951958	WAITING_START	n/a	n/a	n/a	-999	23	[0, 0, 0]	n/a	FR1	1	R1315T
2952.673	0.001	2953219	WAITING_END	n/a	n/a	n/a	-999	23	[0, 0, 0]	n/a	FR1	1	R1315T
2952.674	10.429	2953220	COUNTDOWN_START	n/a	n/a	n/a	-999	23	[0, 0, 0]	n/a	FR1	1	R1315T
2963.103	0.001	2963648	COUNTDOWN_END	n/a	n/a	n/a	-999	23	[0, 0, 0]	n/a	FR1	1	R1315T
2963.104	1.07	2963649	ORIENT_START	n/a	n/a	n/a	-999	23	[0, 0, 0]	n/a	FR1	1	R1315T
2964.174	0.001	2964719	ORIENT_END	n/a	n/a	n/a	-999	23	[0, 0, 0]	n/a	FR1	1	R1315T
2964.175	0.781	2964720	ENCODING_START	n/a	n/a	n/a	-999	23	[0, 0, 0]	n/a	FR1	1	R1315T
2964.956	1.62	2965501	WORD	n/a	wordpools/wordpool_EN.txt	HAWK	1	23	[0, 0, 0]	n/a	FR1	1	R1315T
2966.576	0.951	2967121	WORD_OFF	n/a	n/a	HAWK	1	23	[0, 0, 0]	n/a	FR1	1	R1315T
2967.527	1.632	2968072	WORD	n/a	wordpools/wordpool_EN.txt	HOSE	2	23	[0, 0, 0]	n/a	FR1	1	R1315T
2969.159	1.081	2969704	WORD_OFF	n/a	n/a	HOSE	2	23	[0, 0, 0]	n/a	FR1	1	R1315T
2970.24	1.636	2970785	WORD	n/a	wordpools/wordpool_EN.txt	WEB	3	23	[0, 0, 0]	n/a	FR1	1	R1315T
2971.876	0.815	2972421	WORD_OFF	n/a	n/a	WEB	3	23	[0, 0, 0]	n/a	FR1	1	R1315T
2972.691	1.636	2973236	WORD	n/a	wordpools/wordpool_EN.txt	MUG	4	23	[0, 0, 0]	n/a	FR1	1	R1315T
2974.327	0.953	2974872	WORD_OFF	n/a	n/a	MUG	4	23	[0, 0, 0]	n/a	FR1	1	R1315T
2975.28	1.63	2975825	WORD	n/a	wordpools/wordpool_EN.txt	TOE	5	23	[0, 0, 0]	n/a	FR1	1	R1315T
2976.91	1.132	2977455	WORD_OFF	n/a	n/a	TOE	5	23	[0, 0, 0]	n/a	FR1	1	R1315T
2978.042	1.636	2978587	WORD	n/a	wordpools/wordpool_EN.txt	DUCK	6	23	[0, 0, 0]	n/a	FR1	1	R1315T
2979.678	0.934	2980223	WORD_OFF	n/a	n/a	DUCK	6	23	[0, 0, 0]	n/a	FR1	1	R1315T
2980.612	1.633	2981157	WORD	n/a	wordpools/wordpool_EN.txt	THREAD	7	23	[0, 0, 0]	n/a	FR1	1	R1315T
2982.245	1.125	2982790	WORD_OFF	n/a	n/a	THREAD	7	23	[0, 0, 0]	n/a	FR1	1	R1315T
2983.37	1.625	2983915	WORD	n/a	wordpools/wordpool_EN.txt	DRESS	8	23	[0, 0, 0]	n/a	FR1	1	R1315T
2984.995	1.094	2985540	WORD_OFF	n/a	n/a	DRESS	8	23	[0, 0, 0]	n/a	FR1	1	R1315T
2986.089	1.624	2986634	WORD	n/a	wordpools/wordpool_EN.txt	GOAT	9	23	[0, 0, 0]	n/a	FR1	1	R1315T
2987.713	0.819	2988257	WORD_OFF	n/a	n/a	GOAT	9	23	[0, 0, 0]	n/a	FR1	1	R1315T
2988.532	1.63	2989076	WORD	n/a	wordpools/wordpool_EN.txt	JEEP	10	23	[0, 0, 0]	n/a	FR1	1	R1315T
2990.162	0.777	2990706	WORD_OFF	n/a	n/a	JEEP	10	23	[0, 0, 0]	n/a	FR1	1	R1315T
2990.939	1.625	2991483	WORD	n/a	wordpools/wordpool_EN.txt	NET	11	23	[0, 0, 0]	n/a	FR1	1	R1315T
2992.564	0.857	2993108	WORD_OFF	n/a	n/a	NET	11	23	[0, 0, 0]	n/a	FR1	1	R1315T
2993.421	1.626	2993965	WORD	n/a	wordpools/wordpool_EN.txt	SQUARE	12	23	[0, 0, 0]	n/a	FR1	1	R1315T
2995.047	0.0	2995591	DISTRACT_START	n/a	n/a	n/a	-999	23	[0, 0, 0]	n/a	FR1	1	R1315T
2995.047	0.0	2995591	WORD_OFF	n/a	n/a	SQUARE	12	23	[0, 0, 0]	n/a	FR1	1	R1315T
2995.047	0.0	2995591	ENCODING_END	n/a	n/a	n/a	-999	23	[0, 0, 0]	n/a	FR1	1	R1315T
2995.047	0.016	2995591	START	n/a	n/a	n/a	-999	23	[-999, -999, -999]	n/a	FR1	1	R1315T
2995.063	3.867	2995607	PROB	3.867	n/a	n/a	-999	23	[3, 2, 3]	7	FR1	1	R1315T
2998.93	9.069	2999474	PROB	9.069	n/a	n/a	-999	23	[4, 5, 3]	12	FR1	1	R1315T
3007.999	4.535	3008543	PROB	4.535	n/a	n/a	-999	23	[1, 2, 9]	12	FR1	1	R1315T
3012.534	2.822	3013077	PROB	2.822	n/a	n/a	-999	23	[5, 7, 5]	17	FR1	1	R1315T
3015.356	0.012	3015899	STOP	n/a	n/a	n/a	-999	23	[-999, -999, -999]	n/a	FR1	1	R1315T
3015.368	0.656	3015911	DISTRACT_END	n/a	n/a	n/a	-999	23	[0, 0, 0]	n/a	FR1	1	R1315T
3016.024	1.661	3016567	RETRIEVAL_ORIENT_START	n/a	n/a	n/a	-999	23	[0, 0, 0]	n/a	FR1	1	R1315T
3017.685	0.0	3018228	RETRIEVAL_ORIENT_END	n/a	n/a	n/a	-999	23	[0, 0, 0]	n/a	FR1	1	R1315T
3017.685	0.962	3018228	REC_START	n/a	n/a	n/a	-999	23	[0, 0, 0]	n/a	FR1	1	R1315T
3018.647	29.049	3019190	REC_WORD	29.049	n/a	MUD	-999	23	[0, 0, 0]	n/a	FR1	1	R1315T
3047.696	0.001	3048238	REC_END	n/a	n/a	n/a	-999	23	[0, 0, 0]	n/a	FR1	1	R1315T
3047.697	0.014	3048239	TRIAL_END	n/a	n/a	n/a	-999	23	[0, 0, 0]	n/a	FR1	1	R1315T
3047.711	0.0	3048253	TRIAL_START	n/a	n/a	n/a	-999	24	[0, 0, 0]	n/a	FR1	1	R1315T
3047.711	0.0	3048253	TRIAL	n/a	n/a	n/a	-999	24	[0, 0, 0]	n/a	FR1	1	R1315T
3047.711	1.53	3048253	WAITING_START	n/a	n/a	n/a	-999	24	[0, 0, 0]	n/a	FR1	1	R1315T
3049.241	0.0	3049783	WAITING_END	n/a	n/a	n/a	-999	24	[0, 0, 0]	n/a	FR1	1	R1315T
3049.241	10.429	3049783	COUNTDOWN_START	n/a	n/a	n/a	-999	24	[0, 0, 0]	n/a	FR1	1	R1315T
3059.67	0.0	3060211	COUNTDOWN_END	n/a	n/a	n/a	-999	24	[0, 0, 0]	n/a	FR1	1	R1315T
