onset	duration	sample	trial_type	response_time	stim_file	item_name	serialpos	list	test	answer	experiment	session	subject
0.0	75.029	289304	INSTRUCT_START	n/a	n/a	n/a	-999	-999	[0, 0, 0]	n/a	FR1	0	R1448T
75.029	28.493	364347	INSTRUCT_END	n/a	n/a	n/a	-999	-999	[0, 0, 0]	n/a	FR1	0	R1448T
103.522	10.346	392842	COUNTDOWN_START	n/a	n/a	n/a	-999	-999	[0, 0, 0]	n/a	FR1	0	R1448T
113.868	0.0	403198	COUNTDOWN_END	n/a	n/a	n/a	-999	-999	[0, 0, 0]	n/a	FR1	0	R1448T
113.868	1.951	403198	ENCODING_START	n/a	n/a	n/a	-999	-1	[0, 0, 0]	n/a	FR1	0	R1448T
115.819	1.616	405149	WORD	n/a	n/a	TOOTH	1	-1	[0, 0, 0]	n/a	FR1	0	R1448T
117.435	0.85	406763	WORD_OFF	n/a	n/a	TOOTH	1	-1	[0, 0, 0]	n/a	FR1	0	R1448T
118.285	1.6	407613	WORD	n/a	n/a	HOOK	2	-1	[0, 0, 0]	n/a	FR1	0	R1448T
119.885	0.799	409216	WORD_OFF	n/a	n/a	HOOK	2	-1	[0, 0, 0]	n/a	FR1	0	R1448T
120.684	1.617	410011	WORD	n/a	n/a	DITCH	3	-1	[0, 0, 0]	n/a	FR1	0	R1448T
122.301	0.95	411625	WORD_OFF	n/a	n/a	DITCH	3	-1	[0, 0, 0]	n/a	FR1	0	R1448T
123.251	1.616	412573	WORD	n/a	n/a	BEAK	4	-1	[0, 0, 0]	n/a	FR1	0	R1448T
124.867	0.817	414197	WORD_OFF	n/a	n/a	BEAK	4	-1	[0, 0, 0]	n/a	FR1	0	R1448T
125.684	1.614	415015	WORD	n/a	n/a	CRIB	5	-1	[0, 0, 0]	n/a	FR1	0	R1448T
127.298	0.934	416628	WORD_OFF	n/a	n/a	CRIB	5	-1	[0, 0, 0]	n/a	FR1	0	R1448T
128.232	1.617	417566	WORD	n/a	n/a	BAG	6	-1	[0, 0, 0]	n/a	FR1	0	R1448T
129.849	0.999	419179	WORD_OFF	n/a	n/a	BAG	6	-1	[0, 0, 0]	n/a	FR1	0	R1448T
130.848	1.617	420182	WORD	n/a	n/a	PAIL	7	-1	[0, 0, 0]	n/a	FR1	0	R1448T
132.465	0.833	421795	WORD_OFF	n/a	n/a	PAIL	7	-1	[0, 0, 0]	n/a	FR1	0	R1448T
133.298	1.616	422624	WORD	n/a	n/a	OX	8	-1	[0, 0, 0]	n/a	FR1	0	R1448T
134.914	0.934	424248	WORD_OFF	n/a	n/a	OX	8	-1	[0, 0, 0]	n/a	FR1	0	R1448T
135.848	1.616	425175	WORD	n/a	n/a	FOAM	9	-1	[0, 0, 0]	n/a	FR1	0	R1448T
137.464	0.799	426799	WORD_OFF	n/a	n/a	FOAM	9	-1	[0, 0, 0]	n/a	FR1	0	R1448T
138.263	1.6	427595	WORD	n/a	n/a	YARD	10	-1	[0, 0, 0]	n/a	FR1	0	R1448T
139.863	0.766	429197	WORD_OFF	n/a	n/a	YARD	10	-1	[0, 0, 0]	n/a	FR1	0	R1448T
140.629	1.6	429960	WORD	n/a	n/a	STEM	11	-1	[0, 0, 0]	n/a	FR1	0	R1448T
142.229	1.0	431563	WORD_OFF	n/a	n/a	STEM	11	-1	[0, 0, 0]	n/a	FR1	0	R1448T
143.229	1.617	432555	WORD	n/a	n/a	WOOD	12	-1	[0, 0, 0]	n/a	FR1	0	R1448T
144.846	0.0	434178	START	n/a	n/a	n/a	-999	-1	[-999, -999, -999]	n/a	FR1	0	R1448T
144.846	0.0	434178	PROB	0.0	n/a	n/a	-999	-1	[1, 6, 4]	11	FR1	0	R1448T
144.845	0.001	434179	WORD_OFF	n/a	n/a	WOOD	12	-1	[0, 0, 0]	n/a	FR1	0	R1448T
144.846	0.0	434179	ENCODING_END	n/a	n/a	n/a	-999	-1	[0, 0, 0]	n/a	FR1	0	R1448T
144.846	3.998	434179	DISTRACT_START	n/a	n/a	n/a	-999	-1	[0, 0, 0]	n/a	FR1	0	R1448T
148.844	4.149	438177	PROB	4.149	n/a	n/a	-999	-1	[3, 7, 7]	17	FR1	0	R1448T
152.993	2.967	442327	PROB	2.967	n/a	n/a	-999	-1	[4, 1, 2]	7	FR1	0	R1448T
155.96	3.149	445295	PROB	3.149	n/a	n/a	-999	-1	[2, 3, 6]	11	FR1	0	R1448T
159.109	2.683	448444	PROB	2.683	n/a	n/a	-999	-1	[1, 8, 2]	11	FR1	0	R1448T
161.792	2.615	451128	PROB	2.615	n/a	n/a	-999	-1	[3, 3, 7]	13	FR1	0	R1448T
164.407	4.298	453743	PROB	4.298	n/a	n/a	-999	-1	[7, 4, 3]	14	FR1	0	R1448T
168.705	0.0	458042	DISTRACT_END	n/a	n/a	n/a	-999	-1	[0, 0, 0]	n/a	FR1	0	R1448T
168.705	1.317	458042	STOP	n/a	n/a	n/a	-999	-1	[-999, -999, -999]	n/a	FR1	0	R1448T
170.022	2.499	459361	REC_START	n/a	n/a	n/a	-999	-1	[0, 0, 0]	n/a	FR1	0	R1448T
172.521	0.617	461859	REC_WORD	0.617	n/a	DITCH	3	-1	[0, 0, 0]	n/a	FR1	0	R1448T
173.138	1.488	462476	REC_WORD	1.488	n/a	OX	8	-1	[0, 0, 0]	n/a	FR1	0	R1448T
174.626	26.586	463964	REC_WORD	26.586	n/a	TOOTH	1	-1	[0, 0, 0]	n/a	FR1	0	R1448T
201.212	7.434	490560	REC_END	n/a	n/a	n/a	-999	-1	[0, 0, 0]	n/a	FR1	0	R1448T
208.646	10.347	497994	COUNTDOWN_START	n/a	n/a	n/a	-999	1	[0, 0, 0]	n/a	FR1	0	R1448T
218.993	0.0	508339	COUNTDOWN_END	n/a	n/a	n/a	-999	1	[0, 0, 0]	n/a	FR1	0	R1448T
218.993	1.982	508339	ENCODING_START	n/a	n/a	n/a	-999	1	[0, 0, 0]	n/a	FR1	0	R1448T
220.975	1.601	510323	WORD	n/a	wordpools/wordpool_long_EN.txt	SNACK	1	1	[0, 0, 0]	n/a	FR1	0	R1448T
222.576	1.0	511926	WORD_OFF	n/a	n/a	SNACK	1	1	[0, 0, 0]	n/a	FR1	0	R1448T
223.576	1.6	512918	WORD	n/a	wordpools/wordpool_long_EN.txt	FOOD	2	1	[0, 0, 0]	n/a	FR1	0	R1448T
225.176	0.833	514520	WORD_OFF	n/a	n/a	FOOD	2	1	[0, 0, 0]	n/a	FR1	0	R1448T
226.009	1.616	515360	WORD	n/a	wordpools/wordpool_long_EN.txt	VAULT	3	1	[0, 0, 0]	n/a	FR1	0	R1448T
227.625	0.849	516973	WORD_OFF	n/a	n/a	VAULT	3	1	[0, 0, 0]	n/a	FR1	0	R1448T
228.474	1.601	517823	WORD	n/a	wordpools/wordpool_long_EN.txt	PALM	4	1	[0, 0, 0]	n/a	FR1	0	R1448T
230.075	0.848	519426	WORD_OFF	n/a	n/a	PALM	4	1	[0, 0, 0]	n/a	FR1	0	R1448T
230.923	1.601	520276	WORD	n/a	wordpools/wordpool_long_EN.txt	FACE	5	1	[0, 0, 0]	n/a	FR1	0	R1448T
232.524	0.8	521867	WORD_OFF	n/a	n/a	FACE	5	1	[0, 0, 0]	n/a	FR1	0	R1448T
233.324	1.616	522674	WORD	n/a	wordpools/wordpool_long_EN.txt	MOUSE	6	1	[0, 0, 0]	n/a	FR1	0	R1448T
234.94	0.916	524288	WORD_OFF	n/a	n/a	MOUSE	6	1	[0, 0, 0]	n/a	FR1	0	R1448T
235.856	1.616	525203	WORD	n/a	wordpools/wordpool_long_EN.txt	HUT	7	1	[0, 0, 0]	n/a	FR1	0	R1448T
237.472	0.9	526827	WORD_OFF	n/a	n/a	HUT	7	1	[0, 0, 0]	n/a	FR1	0	R1448T
238.372	1.616	527721	WORD	n/a	wordpools/wordpool_long_EN.txt	OWL	8	1	[0, 0, 0]	n/a	FR1	0	R1448T
239.988	1.001	529335	WORD_OFF	n/a	n/a	OWL	8	1	[0, 0, 0]	n/a	FR1	0	R1448T
240.989	1.616	530338	WORD	n/a	wordpools/wordpool_long_EN.txt	BOY	9	1	[0, 0, 0]	n/a	FR1	0	R1448T
242.605	0.915	531951	WORD_OFF	n/a	n/a	BOY	9	1	[0, 0, 0]	n/a	FR1	0	R1448T
243.52	1.601	532867	WORD	n/a	wordpools/wordpool_long_EN.txt	CONE	10	1	[0, 0, 0]	n/a	FR1	0	R1448T
245.121	0.916	534469	WORD_OFF	n/a	n/a	CONE	10	1	[0, 0, 0]	n/a	FR1	0	R1448T
246.037	1.617	535385	WORD	n/a	wordpools/wordpool_long_EN.txt	TOAD	11	1	[0, 0, 0]	n/a	FR1	0	R1448T
247.654	0.866	537009	WORD_OFF	n/a	n/a	TOAD	11	1	[0, 0, 0]	n/a	FR1	0	R1448T
248.52	1.616	537870	WORD	n/a	wordpools/wordpool_long_EN.txt	STRING	12	1	[0, 0, 0]	n/a	FR1	0	R1448T
250.136	0.001	539484	WORD_OFF	n/a	n/a	STRING	12	1	[0, 0, 0]	n/a	FR1	0	R1448T
250.137	0.0	539490	PROB	0.0	n/a	n/a	-999	1	[1, 2, 8]	11	FR1	0	R1448T
250.137	0.0	539490	START	n/a	n/a	n/a	-999	1	[-999, -999, -999]	n/a	FR1	0	R1448T
250.137	0.0	539495	ENCODING_END	n/a	n/a	n/a	-999	1	[0, 0, 0]	n/a	FR1	0	R1448T
250.137	3.681	539495	DISTRACT_START	n/a	n/a	n/a	-999	1	[0, 0, 0]	n/a	FR1	0	R1448T
253.818	4.133	543171	PROB	4.133	n/a	n/a	-999	1	[6, 3, 4]	13	FR1	0	R1448T
257.951	7.083	547305	PROB	7.083	n/a	n/a	-999	1	[6, 7, 5]	18	FR1	0	R1448T
265.034	3.164	554389	PROB	3.164	n/a	n/a	-999	1	[4, 6, 3]	13	FR1	0	R1448T
268.198	4.816	557554	PROB	4.816	n/a	n/a	-999	1	[4, 6, 6]	16	FR1	0	R1448T
273.014	0.0	562365	DISTRACT_END	n/a	n/a	n/a	-999	1	[0, 0, 0]	n/a	FR1	0	R1448T
273.014	1.133	562371	STOP	n/a	n/a	n/a	-999	1	[-999, -999, -999]	n/a	FR1	0	R1448T
274.147	1.879	563499	REC_START	n/a	n/a	n/a	-999	1	[0, 0, 0]	n/a	FR1	0	R1448T
276.026	0.887	565384	REC_WORD	0.887	n/a	SNACK	1	1	[0, 0, 0]	n/a	FR1	0	R1448T
276.913	28.427	566271	REC_WORD	28.427	n/a	FOOD	2	1	[0, 0, 0]	n/a	FR1	0	R1448T
305.34	2.299	594698	REC_END	n/a	n/a	n/a	-999	1	[0, 0, 0]	n/a	FR1	0	R1448T
307.639	10.348	596998	COUNTDOWN_START	n/a	n/a	n/a	-999	1	[0, 0, 0]	n/a	FR1	0	R1448T
317.987	0.0	607354	COUNTDOWN_END	n/a	n/a	n/a	-999	1	[0, 0, 0]	n/a	FR1	0	R1448T
317.987	2.015	607354	ENCODING_START	n/a	n/a	n/a	-999	2	[0, 0, 0]	n/a	FR1	0	R1448T
320.002	1.617	609370	WORD	n/a	wordpools/wordpool_long_EN.txt	SOUP	1	2	[0, 0, 0]	n/a	FR1	0	R1448T
321.619	0.783	610984	WORD_OFF	n/a	n/a	SOUP	1	2	[0, 0, 0]	n/a	FR1	0	R1448T
322.402	1.616	611769	WORD	n/a	wordpools/wordpool_long_EN.txt	PERCH	2	2	[0, 0, 0]	n/a	FR1	0	R1448T
324.018	0.817	613382	WORD_OFF	n/a	n/a	PERCH	2	2	[0, 0, 0]	n/a	FR1	0	R1448T
324.835	1.616	614200	WORD	n/a	wordpools/wordpool_long_EN.txt	STORM	3	2	[0, 0, 0]	n/a	FR1	0	R1448T
326.451	0.966	615813	WORD_OFF	n/a	n/a	STORM	3	2	[0, 0, 0]	n/a	FR1	0	R1448T
327.417	1.6	616783	WORD	n/a	wordpools/wordpool_long_EN.txt	WRIST	4	2	[0, 0, 0]	n/a	FR1	0	R1448T
329.017	0.933	618386	WORD_OFF	n/a	n/a	WRIST	4	2	[0, 0, 0]	n/a	FR1	0	R1448T
329.95	1.616	619312	WORD	n/a	wordpools/wordpool_long_EN.txt	FRAME	5	2	[0, 0, 0]	n/a	FR1	0	R1448T
331.566	0.949	620937	WORD_OFF	n/a	n/a	FRAME	5	2	[0, 0, 0]	n/a	FR1	0	R1448T
332.515	1.617	621885	WORD	n/a	wordpools/wordpool_long_EN.txt	TRAY	6	2	[0, 0, 0]	n/a	FR1	0	R1448T
334.132	0.901	623498	WORD_OFF	n/a	n/a	TRAY	6	2	[0, 0, 0]	n/a	FR1	0	R1448T
335.033	1.615	624403	WORD	n/a	wordpools/wordpool_long_EN.txt	SLUG	7	2	[0, 0, 0]	n/a	FR1	0	R1448T
336.648	0.849	626016	WORD_OFF	n/a	n/a	SLUG	7	2	[0, 0, 0]	n/a	FR1	0	R1448T
337.497	1.6	626867	WORD	n/a	wordpools/wordpool_long_EN.txt	HOSE	8	2	[0, 0, 0]	n/a	FR1	0	R1448T
339.097	0.851	628469	WORD_OFF	n/a	n/a	HOSE	8	2	[0, 0, 0]	n/a	FR1	0	R1448T
339.948	1.6	629320	WORD	n/a	wordpools/wordpool_long_EN.txt	PEA	9	2	[0, 0, 0]	n/a	FR1	0	R1448T
341.548	0.782	630922	WORD_OFF	n/a	n/a	PEA	9	2	[0, 0, 0]	n/a	FR1	0	R1448T
342.33	1.617	631696	WORD	n/a	wordpools/wordpool_long_EN.txt	BRICK	10	2	[0, 0, 0]	n/a	FR1	0	R1448T
343.947	0.8	633320	WORD_OFF	n/a	n/a	BRICK	10	2	[0, 0, 0]	n/a	FR1	0	R1448T
344.747	1.616	634116	WORD	n/a	wordpools/wordpool_long_EN.txt	STONE	11	2	[0, 0, 0]	n/a	FR1	0	R1448T
346.363	0.866	635729	WORD_OFF	n/a	n/a	STONE	11	2	[0, 0, 0]	n/a	FR1	0	R1448T
347.229	1.617	636601	WORD	n/a	wordpools/wordpool_long_EN.txt	YOLK	12	2	[0, 0, 0]	n/a	FR1	0	R1448T
348.846	0.001	638215	WORD_OFF	n/a	n/a	YOLK	12	2	[0, 0, 0]	n/a	FR1	0	R1448T
348.847	0.0	638215	ENCODING_END	n/a	n/a	n/a	-999	2	[0, 0, 0]	n/a	FR1	0	R1448T
348.846	0.001	638218	PROB	0.001	n/a	n/a	-999	2	[1, 4, 2]	7	FR1	0	R1448T
348.847	0.0	638219	START	n/a	n/a	n/a	-999	2	[-999, -999, -999]	n/a	FR1	0	R1448T
348.847	4.182	638226	DISTRACT_START	n/a	n/a	n/a	-999	2	[0, 0, 0]	n/a	FR1	0	R1448T
353.029	3.965	642401	PROB	3.965	n/a	n/a	-999	2	[8, 3, 3]	14	FR1	0	R1448T
356.994	3.399	646367	PROB	3.399	n/a	n/a	-999	2	[2, 6, 6]	14	FR1	0	R1448T
360.393	4.365	649767	PROB	4.365	n/a	n/a	-999	2	[3, 6, 7]	16	FR1	0	R1448T
364.758	3.266	654133	PROB	3.266	n/a	n/a	-999	2	[7, 2, 8]	17	FR1	0	R1448T
368.024	3.366	657399	PROB	3.366	n/a	n/a	-999	2	[1, 1, 5]	7	FR1	0	R1448T
371.39	0.0	660766	STOP	n/a	n/a	n/a	-999	2	[-999, -999, -999]	n/a	FR1	0	R1448T
371.39	1.066	660769	DISTRACT_END	n/a	n/a	n/a	-999	2	[0, 0, 0]	n/a	FR1	0	R1448T
372.456	2.908	661837	REC_START	n/a	n/a	n/a	-999	2	[0, 0, 0]	n/a	FR1	0	R1448T
375.364	28.344	664741	REC_WORD	28.344	n/a	WRIST	4	2	[0, 0, 0]	n/a	FR1	0	R1448T
403.708	1.607	693091	REC_END	n/a	n/a	n/a	-999	2	[0, 0, 0]	n/a	FR1	0	R1448T
405.315	10.348	694693	COUNTDOWN_START	n/a	n/a	n/a	-999	2	[0, 0, 0]	n/a	FR1	0	R1448T
415.663	0.0	705049	COUNTDOWN_END	n/a	n/a	n/a	-999	2	[0, 0, 0]	n/a	FR1	0	R1448T
415.663	1.883	705049	ENCODING_START	n/a	n/a	n/a	-999	3	[0, 0, 0]	n/a	FR1	0	R1448T
417.546	1.616	706924	WORD	n/a	wordpools/wordpool_long_EN.txt	HOUSE	1	3	[0, 0, 0]	n/a	FR1	0	R1448T
419.162	0.966	708549	WORD_OFF	n/a	n/a	HOUSE	1	3	[0, 0, 0]	n/a	FR1	0	R1448T
420.128	1.616	709508	WORD	n/a	wordpools/wordpool_long_EN.txt	MULE	2	3	[0, 0, 0]	n/a	FR1	0	R1448T
421.744	0.817	711132	WORD_OFF	n/a	n/a	MULE	2	3	[0, 0, 0]	n/a	FR1	0	R1448T
422.561	1.616	711950	WORD	n/a	wordpools/wordpool_long_EN.txt	STAIR	3	3	[0, 0, 0]	n/a	FR1	0	R1448T
424.177	0.85	713563	WORD_OFF	n/a	n/a	STAIR	3	3	[0, 0, 0]	n/a	FR1	0	R1448T
425.027	1.616	714413	WORD	n/a	wordpools/wordpool_long_EN.txt	FLEET	4	3	[0, 0, 0]	n/a	FR1	0	R1448T
426.643	0.932	716027	WORD_OFF	n/a	n/a	FLEET	4	3	[0, 0, 0]	n/a	FR1	0	R1448T
427.575	1.601	716964	WORD	n/a	wordpools/wordpool_long_EN.txt	BANK	5	3	[0, 0, 0]	n/a	FR1	0	R1448T
429.176	0.767	718567	WORD_OFF	n/a	n/a	BANK	5	3	[0, 0, 0]	n/a	FR1	0	R1448T
429.943	1.616	719330	WORD	n/a	wordpools/wordpool_long_EN.txt	HEART	6	3	[0, 0, 0]	n/a	FR1	0	R1448T
431.559	0.799	720943	WORD_OFF	n/a	n/a	HEART	6	3	[0, 0, 0]	n/a	FR1	0	R1448T
432.358	1.617	721750	WORD	n/a	wordpools/wordpool_long_EN.txt	HORN	7	3	[0, 0, 0]	n/a	FR1	0	R1448T
433.975	0.899	723363	WORD_OFF	n/a	n/a	HORN	7	3	[0, 0, 0]	n/a	FR1	0	R1448T
434.874	1.617	724257	WORD	n/a	wordpools/wordpool_long_EN.txt	NAIL	8	3	[0, 0, 0]	n/a	FR1	0	R1448T
436.491	0.833	725881	WORD_OFF	n/a	n/a	NAIL	8	3	[0, 0, 0]	n/a	FR1	0	R1448T
437.324	1.616	726710	WORD	n/a	wordpools/wordpool_long_EN.txt	LACE	9	3	[0, 0, 0]	n/a	FR1	0	R1448T
438.94	0.967	728323	WORD_OFF	n/a	n/a	LACE	9	3	[0, 0, 0]	n/a	FR1	0	R1448T
439.907	1.616	729293	WORD	n/a	wordpools/wordpool_long_EN.txt	BREAD	10	3	[0, 0, 0]	n/a	FR1	0	R1448T
441.523	0.832	730907	WORD_OFF	n/a	n/a	BREAD	10	3	[0, 0, 0]	n/a	FR1	0	R1448T
442.355	1.601	731746	WORD	n/a	wordpools/wordpool_long_EN.txt	CLOCK	11	3	[0, 0, 0]	n/a	FR1	0	R1448T
443.956	0.883	733349	WORD_OFF	n/a	n/a	CLOCK	11	3	[0, 0, 0]	n/a	FR1	0	R1448T
444.839	1.616	734232	WORD	n/a	wordpools/wordpool_long_EN.txt	THUMB	12	3	[0, 0, 0]	n/a	FR1	0	R1448T
446.455	0.001	735845	WORD_OFF	n/a	n/a	THUMB	12	3	[0, 0, 0]	n/a	FR1	0	R1448T
446.456	0.0	735845	ENCODING_END	n/a	n/a	n/a	-999	3	[0, 0, 0]	n/a	FR1	0	R1448T
446.456	0.0	735845	DISTRACT_START	n/a	n/a	n/a	-999	3	[0, 0, 0]	n/a	FR1	0	R1448T
446.456	0.0	735846	START	n/a	n/a	n/a	-999	3	[-999, -999, -999]	n/a	FR1	0	R1448T
446.456	7.298	735846	PROB	7.298	n/a	n/a	-999	3	[2, 7, 1]	10	FR1	0	R1448T
453.754	4.448	743146	PROB	4.448	n/a	n/a	-999	3	[6, 3, 5]	14	FR1	0	R1448T
458.202	4.134	747595	PROB	4.134	n/a	n/a	-999	3	[3, 7, 7]	17	FR1	0	R1448T
462.336	3.465	751729	PROB	3.465	n/a	n/a	-999	3	[4, 7, 3]	14	FR1	0	R1448T
465.801	3.813	755195	PROB	3.813	n/a	n/a	-999	3	[3, 7, 7]	17	FR1	0	R1448T
469.614	0.0	759009	STOP	n/a	n/a	n/a	-999	3	[-999, -999, -999]	n/a	FR1	0	R1448T
469.614	1.235	759010	DISTRACT_END	n/a	n/a	n/a	-999	3	[0, 0, 0]	n/a	FR1	0	R1448T
470.849	0.239	760242	REC_START	n/a	n/a	n/a	-999	3	[0, 0, 0]	n/a	FR1	0	R1448T
471.088	0.958	760483	REC_WORD	0.958	n/a	STAIR	3	3	[0, 0, 0]	n/a	FR1	0	R1448T
472.046	0.742	761441	REC_WORD	0.742	n/a	HEART	6	3	[0, 0, 0]	n/a	FR1	0	R1448T
472.788	6.725	762183	REC_WORD	6.725	n/a	BANK	5	3	[0, 0, 0]	n/a	FR1	0	R1448T
479.513	22.584	768910	REC_WORD	22.584	n/a	RIB	-999	3	[0, 0, 0]	n/a	FR1	0	R1448T
502.097	1.612	791495	REC_END	n/a	n/a	n/a	-999	3	[0, 0, 0]	n/a	FR1	0	R1448T
503.709	10.346	793108	COUNTDOWN_START	n/a	n/a	n/a	-999	3	[0, 0, 0]	n/a	FR1	0	R1448T
514.055	0.0	803454	COUNTDOWN_END	n/a	n/a	n/a	-999	3	[0, 0, 0]	n/a	FR1	0	R1448T
514.055	2.15	803454	ENCODING_START	n/a	n/a	n/a	-999	4	[0, 0, 0]	n/a	FR1	0	R1448T
516.205	1.599	805612	WORD	n/a	wordpools/wordpool_long_EN.txt	SMOKE	1	4	[0, 0, 0]	n/a	FR1	0	R1448T
517.804	0.766	807204	WORD_OFF	n/a	n/a	SMOKE	1	4	[0, 0, 0]	n/a	FR1	0	R1448T
518.57	1.6	807977	WORD	n/a	wordpools/wordpool_long_EN.txt	PIT	2	4	[0, 0, 0]	n/a	FR1	0	R1448T
520.17	0.934	809580	WORD_OFF	n/a	n/a	PIT	2	4	[0, 0, 0]	n/a	FR1	0	R1448T
521.104	1.616	810507	WORD	n/a	wordpools/wordpool_long_EN.txt	POOL	3	4	[0, 0, 0]	n/a	FR1	0	R1448T
522.72	0.766	812120	WORD_OFF	n/a	n/a	POOL	3	4	[0, 0, 0]	n/a	FR1	0	R1448T
523.486	1.617	812894	WORD	n/a	wordpools/wordpool_long_EN.txt	SMOG	4	4	[0, 0, 0]	n/a	FR1	0	R1448T
525.103	0.932	814507	WORD_OFF	n/a	n/a	SMOG	4	4	[0, 0, 0]	n/a	FR1	0	R1448T
526.035	1.6	815434	WORD	n/a	wordpools/wordpool_long_EN.txt	ICE	5	4	[0, 0, 0]	n/a	FR1	0	R1448T
527.635	0.916	817036	WORD_OFF	n/a	n/a	ICE	5	4	[0, 0, 0]	n/a	FR1	0	R1448T
528.551	1.6	817952	WORD	n/a	wordpools/wordpool_long_EN.txt	BUSH	6	4	[0, 0, 0]	n/a	FR1	0	R1448T
530.151	0.766	819554	WORD_OFF	n/a	n/a	BUSH	6	4	[0, 0, 0]	n/a	FR1	0	R1448T
530.917	1.601	820318	WORD	n/a	wordpools/wordpool_long_EN.txt	CHIN	7	4	[0, 0, 0]	n/a	FR1	0	R1448T
532.518	0.948	821920	WORD_OFF	n/a	n/a	CHIN	7	4	[0, 0, 0]	n/a	FR1	0	R1448T
533.466	1.601	822868	WORD	n/a	wordpools/wordpool_long_EN.txt	VEST	8	4	[0, 0, 0]	n/a	FR1	0	R1448T
535.067	0.933	824471	WORD_OFF	n/a	n/a	VEST	8	4	[0, 0, 0]	n/a	FR1	0	R1448T
536.0	1.616	825408	WORD	n/a	wordpools/wordpool_long_EN.txt	SALT	9	4	[0, 0, 0]	n/a	FR1	0	R1448T
537.616	0.784	827022	WORD_OFF	n/a	n/a	SALT	9	4	[0, 0, 0]	n/a	FR1	0	R1448T
538.4	1.615	827807	WORD	n/a	wordpools/wordpool_long_EN.txt	ROOT	10	4	[0, 0, 0]	n/a	FR1	0	R1448T
540.015	0.833	829420	WORD_OFF	n/a	n/a	ROOT	10	4	[0, 0, 0]	n/a	FR1	0	R1448T
540.848	1.617	830259	WORD	n/a	wordpools/wordpool_long_EN.txt	GOLD	11	4	[0, 0, 0]	n/a	FR1	0	R1448T
542.465	0.849	831873	WORD_OFF	n/a	n/a	GOLD	11	4	[0, 0, 0]	n/a	FR1	0	R1448T
543.314	1.601	832723	WORD	n/a	wordpools/wordpool_long_EN.txt	JAIL	12	4	[0, 0, 0]	n/a	FR1	0	R1448T
544.915	0.0	834324	PROB	0.0	n/a	n/a	-999	4	[8, 6, 8]	22	FR1	0	R1448T
544.915	0.001	834325	WORD_OFF	n/a	n/a	JAIL	12	4	[0, 0, 0]	n/a	FR1	0	R1448T
544.916	0.0	834325	ENCODING_END	n/a	n/a	n/a	-999	4	[0, 0, 0]	n/a	FR1	0	R1448T
544.916	0.0	834325	DISTRACT_START	n/a	n/a	n/a	-999	4	[0, 0, 0]	n/a	FR1	0	R1448T
544.916	6.98	834325	START	n/a	n/a	n/a	-999	4	[-999, -999, -999]	n/a	FR1	0	R1448T
551.896	4.416	841307	PROB	4.416	n/a	n/a	-999	4	[3, 5, 8]	16	FR1	0	R1448T
556.312	4.415	845723	PROB	4.415	n/a	n/a	-999	4	[1, 8, 7]	16	FR1	0	R1448T
560.727	3.649	850139	PROB	3.649	n/a	n/a	-999	4	[1, 3, 6]	10	FR1	0	R1448T
564.376	3.499	853789	PROB	3.499	n/a	n/a	-999	4	[5, 5, 8]	18	FR1	0	R1448T
567.875	0.0	857283	DISTRACT_END	n/a	n/a	n/a	-999	4	[0, 0, 0]	n/a	FR1	0	R1448T
567.875	1.151	857289	STOP	n/a	n/a	n/a	-999	4	[-999, -999, -999]	n/a	FR1	0	R1448T
569.026	2.472	858439	REC_START	n/a	n/a	n/a	-999	4	[0, 0, 0]	n/a	FR1	0	R1448T
571.498	0.854	860912	REC_WORD	0.854	n/a	SMOKE	1	4	[0, 0, 0]	n/a	FR1	0	R1448T
572.352	18.697	861766	REC_WORD	18.697	n/a	PIT	2	4	[0, 0, 0]	n/a	FR1	0	R1448T
591.049	9.221	880467	REC_WORD	9.221	n/a	JAIL	12	4	[0, 0, 0]	n/a	FR1	0	R1448T
600.27	1.379	889692	REC_END	n/a	n/a	n/a	-999	4	[0, 0, 0]	n/a	FR1	0	R1448T
601.649	10.348	891066	COUNTDOWN_START	n/a	n/a	n/a	-999	4	[0, 0, 0]	n/a	FR1	0	R1448T
611.997	0.001	901422	COUNTDOWN_END	n/a	n/a	n/a	-999	4	[0, 0, 0]	n/a	FR1	0	R1448T
611.998	1.966	901422	ENCODING_START	n/a	n/a	n/a	-999	5	[0, 0, 0]	n/a	FR1	0	R1448T
613.964	1.616	903384	WORD	n/a	wordpools/wordpool_long_EN.txt	SHIELD	1	5	[0, 0, 0]	n/a	FR1	0	R1448T
615.58	0.967	904997	WORD_OFF	n/a	n/a	SHIELD	1	5	[0, 0, 0]	n/a	FR1	0	R1448T
616.547	1.6	905967	WORD	n/a	wordpools/wordpool_long_EN.txt	TRASH	2	5	[0, 0, 0]	n/a	FR1	0	R1448T
618.147	0.933	907570	WORD_OFF	n/a	n/a	TRASH	2	5	[0, 0, 0]	n/a	FR1	0	R1448T
619.08	1.616	908507	WORD	n/a	wordpools/wordpool_long_EN.txt	SUIT	3	5	[0, 0, 0]	n/a	FR1	0	R1448T
620.696	0.916	910121	WORD_OFF	n/a	n/a	SUIT	3	5	[0, 0, 0]	n/a	FR1	0	R1448T
621.612	1.616	911036	WORD	n/a	wordpools/wordpool_long_EN.txt	GOAL	4	5	[0, 0, 0]	n/a	FR1	0	R1448T
623.228	0.967	912650	WORD_OFF	n/a	n/a	GOAL	4	5	[0, 0, 0]	n/a	FR1	0	R1448T
624.195	1.616	913620	WORD	n/a	wordpools/wordpool_long_EN.txt	CHEEK	5	5	[0, 0, 0]	n/a	FR1	0	R1448T
625.811	0.983	915233	WORD_OFF	n/a	n/a	CHEEK	5	5	[0, 0, 0]	n/a	FR1	0	R1448T
626.794	1.616	916214	WORD	n/a	wordpools/wordpool_long_EN.txt	SCHOOL	6	5	[0, 0, 0]	n/a	FR1	0	R1448T
628.41	0.834	917839	WORD_OFF	n/a	n/a	SCHOOL	6	5	[0, 0, 0]	n/a	FR1	0	R1448T
629.244	1.617	918667	WORD	n/a	wordpools/wordpool_long_EN.txt	WAVE	7	5	[0, 0, 0]	n/a	FR1	0	R1448T
630.861	0.866	920281	WORD_OFF	n/a	n/a	WAVE	7	5	[0, 0, 0]	n/a	FR1	0	R1448T
631.727	1.615	921153	WORD	n/a	wordpools/wordpool_long_EN.txt	TIE	8	5	[0, 0, 0]	n/a	FR1	0	R1448T
633.342	0.817	922766	WORD_OFF	n/a	n/a	TIE	8	5	[0, 0, 0]	n/a	FR1	0	R1448T
634.159	1.617	923584	WORD	n/a	wordpools/wordpool_long_EN.txt	FENCE	9	5	[0, 0, 0]	n/a	FR1	0	R1448T
635.776	0.866	925197	WORD_OFF	n/a	n/a	FENCE	9	5	[0, 0, 0]	n/a	FR1	0	R1448T
636.642	1.614	926069	WORD	n/a	wordpools/wordpool_long_EN.txt	DIME	10	5	[0, 0, 0]	n/a	FR1	0	R1448T
638.256	0.786	927682	WORD_OFF	n/a	n/a	DIME	10	5	[0, 0, 0]	n/a	FR1	0	R1448T
639.042	1.616	928467	WORD	n/a	wordpools/wordpool_long_EN.txt	CAPE	11	5	[0, 0, 0]	n/a	FR1	0	R1448T
640.658	0.933	930081	WORD_OFF	n/a	n/a	CAPE	11	5	[0, 0, 0]	n/a	FR1	0	R1448T
641.591	1.616	931018	WORD	n/a	wordpools/wordpool_long_EN.txt	COOK	12	5	[0, 0, 0]	n/a	FR1	0	R1448T
643.207	0.001	932631	WORD_OFF	n/a	n/a	COOK	12	5	[0, 0, 0]	n/a	FR1	0	R1448T
643.208	0.0	932631	ENCODING_END	n/a	n/a	n/a	-999	5	[0, 0, 0]	n/a	FR1	0	R1448T
643.208	0.0	932636	START	n/a	n/a	n/a	-999	5	[-999, -999, -999]	n/a	FR1	0	R1448T
643.208	0.0	932636	PROB	0.0	n/a	n/a	-999	5	[6, 2, 1]	9	FR1	0	R1448T
643.208	4.299	932642	DISTRACT_START	n/a	n/a	n/a	-999	5	[0, 0, 0]	n/a	FR1	0	R1448T
647.507	4.415	936936	PROB	4.415	n/a	n/a	-999	5	[5, 4, 1]	10	FR1	0	R1448T
651.922	3.299	941352	PROB	3.299	n/a	n/a	-999	5	[2, 4, 2]	8	FR1	0	R1448T
655.221	2.75	944651	PROB	2.75	n/a	n/a	-999	5	[1, 4, 3]	8	FR1	0	R1448T
657.971	3.432	947402	PROB	3.432	n/a	n/a	-999	5	[5, 1, 2]	8	FR1	0	R1448T
661.403	4.316	950835	PROB	4.316	n/a	n/a	-999	5	[2, 1, 6]	9	FR1	0	R1448T
665.719	0.0	955151	STOP	n/a	n/a	n/a	-999	5	[-999, -999, -999]	n/a	FR1	0	R1448T
665.719	1.166	955153	DISTRACT_END	n/a	n/a	n/a	-999	5	[0, 0, 0]	n/a	FR1	0	R1448T
666.885	0.639	956320	REC_START	n/a	n/a	n/a	-999	5	[0, 0, 0]	n/a	FR1	0	R1448T
667.524	0.937	956957	REC_WORD	0.937	n/a	SUIT	3	5	[0, 0, 0]	n/a	FR1	0	R1448T
668.461	1.082	957894	REC_WORD	1.082	n/a	SCHOOL	6	5	[0, 0, 0]	n/a	FR1	0	R1448T
669.543	28.572	958976	REC_WORD	28.572	n/a	FENCE	9	5	[0, 0, 0]	n/a	FR1	0	R1448T
698.115	1.361	987551	REC_END	n/a	n/a	n/a	-999	5	[0, 0, 0]	n/a	FR1	0	R1448T
699.476	10.348	988914	COUNTDOWN_START	n/a	n/a	n/a	-999	5	[0, 0, 0]	n/a	FR1	0	R1448T
709.824	0.0	999259	COUNTDOWN_END	n/a	n/a	n/a	-999	5	[0, 0, 0]	n/a	FR1	0	R1448T
709.824	2.049	999270	ENCODING_START	n/a	n/a	n/a	-999	6	[0, 0, 0]	n/a	FR1	0	R1448T
711.873	1.6	1001319	WORD	n/a	wordpools/wordpool_long_EN.txt	BENCH	1	6	[0, 0, 0]	n/a	FR1	0	R1448T
713.473	0.833	1002911	WORD_OFF	n/a	n/a	BENCH	1	6	[0, 0, 0]	n/a	FR1	0	R1448T
714.306	1.617	1003750	WORD	n/a	wordpools/wordpool_long_EN.txt	TOAST	2	6	[0, 0, 0]	n/a	FR1	0	R1448T
715.923	0.799	1005364	WORD_OFF	n/a	n/a	TOAST	2	6	[0, 0, 0]	n/a	FR1	0	R1448T
716.722	1.617	1006159	WORD	n/a	wordpools/wordpool_long_EN.txt	TART	3	6	[0, 0, 0]	n/a	FR1	0	R1448T
718.339	0.883	1007784	WORD_OFF	n/a	n/a	TART	3	6	[0, 0, 0]	n/a	FR1	0	R1448T
719.222	1.617	1008667	WORD	n/a	wordpools/wordpool_long_EN.txt	SNAKE	4	6	[0, 0, 0]	n/a	FR1	0	R1448T
720.839	0.766	1010280	WORD_OFF	n/a	n/a	SNAKE	4	6	[0, 0, 0]	n/a	FR1	0	R1448T
721.605	1.616	1011043	WORD	n/a	wordpools/wordpool_long_EN.txt	CLOTH	5	6	[0, 0, 0]	n/a	FR1	0	R1448T
723.221	1.0	1012667	WORD_OFF	n/a	n/a	CLOTH	5	6	[0, 0, 0]	n/a	FR1	0	R1448T
724.221	1.616	1013659	WORD	n/a	wordpools/wordpool_long_EN.txt	WEB	6	6	[0, 0, 0]	n/a	FR1	0	R1448T
725.837	0.767	1015284	WORD_OFF	n/a	n/a	WEB	6	6	[0, 0, 0]	n/a	FR1	0	R1448T
726.604	1.616	1016047	WORD	n/a	wordpools/wordpool_long_EN.txt	FLEA	7	6	[0, 0, 0]	n/a	FR1	0	R1448T
728.22	0.983	1017660	WORD_OFF	n/a	n/a	FLEA	7	6	[0, 0, 0]	n/a	FR1	0	R1448T
729.203	1.616	1018652	WORD	n/a	wordpools/wordpool_long_EN.txt	ARCH	8	6	[0, 0, 0]	n/a	FR1	0	R1448T
730.819	0.967	1020265	WORD_OFF	n/a	n/a	ARCH	8	6	[0, 0, 0]	n/a	FR1	0	R1448T
731.786	1.616	1021236	WORD	n/a	wordpools/wordpool_long_EN.txt	BEEF	9	6	[0, 0, 0]	n/a	FR1	0	R1448T
733.402	0.783	1022849	WORD_OFF	n/a	n/a	BEEF	9	6	[0, 0, 0]	n/a	FR1	0	R1448T
734.185	1.616	1023634	WORD	n/a	wordpools/wordpool_long_EN.txt	EGG	10	6	[0, 0, 0]	n/a	FR1	0	R1448T
735.801	0.85	1025247	WORD_OFF	n/a	n/a	EGG	10	6	[0, 0, 0]	n/a	FR1	0	R1448T
736.651	1.616	1026097	WORD	n/a	wordpools/wordpool_long_EN.txt	WIFE	11	6	[0, 0, 0]	n/a	FR1	0	R1448T
738.267	0.766	1027711	WORD_OFF	n/a	n/a	WIFE	11	6	[0, 0, 0]	n/a	FR1	0	R1448T
739.033	1.601	1028474	WORD	n/a	wordpools/wordpool_long_EN.txt	VASE	12	6	[0, 0, 0]	n/a	FR1	0	R1448T
740.634	0.001	1030076	WORD_OFF	n/a	n/a	VASE	12	6	[0, 0, 0]	n/a	FR1	0	R1448T
740.635	0.0	1030076	ENCODING_END	n/a	n/a	n/a	-999	6	[0, 0, 0]	n/a	FR1	0	R1448T
740.633	0.002	1030080	PROB	0.002	n/a	n/a	-999	6	[7, 2, 3]	12	FR1	0	R1448T
740.635	0.0	1030082	START	n/a	n/a	n/a	-999	6	[-999, -999, -999]	n/a	FR1	0	R1448T
740.635	4.264	1030087	DISTRACT_START	n/a	n/a	n/a	-999	6	[0, 0, 0]	n/a	FR1	0	R1448T
744.899	3.899	1034347	PROB	3.899	n/a	n/a	-999	6	[5, 5, 3]	13	FR1	0	R1448T
748.798	3.9	1038246	PROB	3.9	n/a	n/a	-999	6	[5, 8, 2]	15	FR1	0	R1448T
752.698	3.316	1042147	PROB	3.316	n/a	n/a	-999	6	[8, 2, 3]	13	FR1	0	R1448T
756.014	3.799	1045464	PROB	3.799	n/a	n/a	-999	6	[3, 4, 4]	11	FR1	0	R1448T
759.813	3.531	1049263	PROB	3.531	n/a	n/a	-999	6	[6, 2, 2]	10	FR1	0	R1448T
763.344	0.0	1052794	DISTRACT_END	n/a	n/a	n/a	-999	6	[0, 0, 0]	n/a	FR1	0	R1448T
763.344	1.151	1052795	STOP	n/a	n/a	n/a	-999	6	[-999, -999, -999]	n/a	FR1	0	R1448T
764.495	0.444	1053950	REC_START	n/a	n/a	n/a	-999	6	[0, 0, 0]	n/a	FR1	0	R1448T
764.939	0.646	1054390	REC_WORD	0.646	n/a	BENCH	1	6	[0, 0, 0]	n/a	FR1	0	R1448T
765.585	6.539	1055037	REC_WORD	6.539	n/a	TART	3	6	[0, 0, 0]	n/a	FR1	0	R1448T
772.124	23.617	1061577	REC_WORD	23.617	n/a	LACE	-999	6	[0, 0, 0]	n/a	FR1	0	R1448T
795.741	6.161	1085203	REC_END	n/a	n/a	n/a	-999	6	[0, 0, 0]	n/a	FR1	0	R1448T
801.902	10.346	1091362	COUNTDOWN_START	n/a	n/a	n/a	-999	6	[0, 0, 0]	n/a	FR1	0	R1448T
812.248	0.0	1101707	COUNTDOWN_END	n/a	n/a	n/a	-999	6	[0, 0, 0]	n/a	FR1	0	R1448T
812.248	1.934	1101707	ENCODING_START	n/a	n/a	n/a	-999	7	[0, 0, 0]	n/a	FR1	0	R1448T
814.182	1.617	1103637	WORD	n/a	wordpools/wordpool_long_EN.txt	SEAL	1	7	[0, 0, 0]	n/a	FR1	0	R1448T
815.799	0.766	1105261	WORD_OFF	n/a	n/a	SEAL	1	7	[0, 0, 0]	n/a	FR1	0	R1448T
816.565	1.616	1106024	WORD	n/a	wordpools/wordpool_long_EN.txt	MUG	2	7	[0, 0, 0]	n/a	FR1	0	R1448T
818.181	0.934	1107638	WORD_OFF	n/a	n/a	MUG	2	7	[0, 0, 0]	n/a	FR1	0	R1448T
819.115	1.613	1108575	WORD	n/a	wordpools/wordpool_long_EN.txt	MOOSE	3	7	[0, 0, 0]	n/a	FR1	0	R1448T
820.728	0.936	1110188	WORD_OFF	n/a	n/a	MOOSE	3	7	[0, 0, 0]	n/a	FR1	0	R1448T
821.664	1.616	1111126	WORD	n/a	wordpools/wordpool_long_EN.txt	CLAM	4	7	[0, 0, 0]	n/a	FR1	0	R1448T
823.28	0.899	1112739	WORD_OFF	n/a	n/a	CLAM	4	7	[0, 0, 0]	n/a	FR1	0	R1448T
824.179	1.601	1113644	WORD	n/a	wordpools/wordpool_long_EN.txt	PLAID	5	7	[0, 0, 0]	n/a	FR1	0	R1448T
825.78	0.849	1115247	WORD_OFF	n/a	n/a	PLAID	5	7	[0, 0, 0]	n/a	FR1	0	R1448T
826.629	1.6	1116097	WORD	n/a	wordpools/wordpool_long_EN.txt	CHIEF	6	7	[0, 0, 0]	n/a	FR1	0	R1448T
828.229	0.766	1117688	WORD_OFF	n/a	n/a	CHIEF	6	7	[0, 0, 0]	n/a	FR1	0	R1448T
828.995	1.6	1118462	WORD	n/a	wordpools/wordpool_long_EN.txt	SLEEVE	7	7	[0, 0, 0]	n/a	FR1	0	R1448T
830.595	0.866	1120054	WORD_OFF	n/a	n/a	SLEEVE	7	7	[0, 0, 0]	n/a	FR1	0	R1448T
831.461	1.615	1120926	WORD	n/a	wordpools/wordpool_long_EN.txt	YARN	8	7	[0, 0, 0]	n/a	FR1	0	R1448T
833.076	0.951	1122539	WORD_OFF	n/a	n/a	YARN	8	7	[0, 0, 0]	n/a	FR1	0	R1448T
834.027	1.6	1123488	WORD	n/a	wordpools/wordpool_long_EN.txt	MEAT	9	7	[0, 0, 0]	n/a	FR1	0	R1448T
835.627	0.95	1125090	WORD_OFF	n/a	n/a	MEAT	9	7	[0, 0, 0]	n/a	FR1	0	R1448T
836.577	1.616	1126039	WORD	n/a	wordpools/wordpool_long_EN.txt	GRASS	10	7	[0, 0, 0]	n/a	FR1	0	R1448T
838.193	0.899	1127663	WORD_OFF	n/a	n/a	GRASS	10	7	[0, 0, 0]	n/a	FR1	0	R1448T
839.092	1.601	1128557	WORD	n/a	wordpools/wordpool_long_EN.txt	DOG	11	7	[0, 0, 0]	n/a	FR1	0	R1448T
840.693	0.766	1130159	WORD_OFF	n/a	n/a	DOG	11	7	[0, 0, 0]	n/a	FR1	0	R1448T
841.459	1.617	1130922	WORD	n/a	wordpools/wordpool_long_EN.txt	PET	12	7	[0, 0, 0]	n/a	FR1	0	R1448T
843.076	0.0	1132542	START	n/a	n/a	n/a	-999	7	[-999, -999, -999]	n/a	FR1	0	R1448T
843.076	0.0	1132542	PROB	0.0	n/a	n/a	-999	7	[2, 1, 6]	9	FR1	0	R1448T
843.075	0.001	1132547	WORD_OFF	n/a	n/a	PET	12	7	[0, 0, 0]	n/a	FR1	0	R1448T
843.076	0.0	1132547	ENCODING_END	n/a	n/a	n/a	-999	7	[0, 0, 0]	n/a	FR1	0	R1448T
843.076	3.416	1132547	DISTRACT_START	n/a	n/a	n/a	-999	7	[0, 0, 0]	n/a	FR1	0	R1448T
846.492	5.048	1135959	PROB	5.048	n/a	n/a	-999	7	[3, 8, 5]	16	FR1	0	R1448T
851.54	4.016	1141008	PROB	4.016	n/a	n/a	-999	7	[1, 7, 2]	10	FR1	0	R1448T
855.556	4.532	1145025	PROB	4.532	n/a	n/a	-999	7	[7, 5, 1]	13	FR1	0	R1448T
860.088	2.748	1149558	PROB	2.748	n/a	n/a	-999	7	[3, 2, 3]	8	FR1	0	R1448T
862.836	2.967	1152306	PROB	2.967	n/a	n/a	-999	7	[4, 4, 4]	12	FR1	0	R1448T
865.803	0.0	1155274	STOP	n/a	n/a	n/a	-999	7	[-999, -999, -999]	n/a	FR1	0	R1448T
865.803	1.133	1155275	DISTRACT_END	n/a	n/a	n/a	-999	7	[0, 0, 0]	n/a	FR1	0	R1448T
866.936	0.292	1156409	REC_START	n/a	n/a	n/a	-999	7	[0, 0, 0]	n/a	FR1	0	R1448T
867.228	1.067	1156699	REC_WORD	1.067	n/a	CLAM	4	7	[0, 0, 0]	n/a	FR1	0	R1448T
868.295	0.91	1157766	REC_WORD	0.91	n/a	PLAID	5	7	[0, 0, 0]	n/a	FR1	0	R1448T
869.205	28.98	1158676	REC_WORD	28.98	n/a	CHIEF	6	7	[0, 0, 0]	n/a	FR1	0	R1448T
898.185	0.81	1187662	REC_END	n/a	n/a	n/a	-999	7	[0, 0, 0]	n/a	FR1	0	R1448T
898.995	10.347	1188469	COUNTDOWN_START	n/a	n/a	n/a	-999	7	[0, 0, 0]	n/a	FR1	0	R1448T
909.342	0.0	1198825	COUNTDOWN_END	n/a	n/a	n/a	-999	7	[0, 0, 0]	n/a	FR1	0	R1448T
909.342	2.0	1198825	ENCODING_START	n/a	n/a	n/a	-999	8	[0, 0, 0]	n/a	FR1	0	R1448T
911.342	1.616	1200820	WORD	n/a	wordpools/wordpool_long_EN.txt	SLIDE	1	8	[0, 0, 0]	n/a	FR1	0	R1448T
912.958	0.817	1202433	WORD_OFF	n/a	n/a	SLIDE	1	8	[0, 0, 0]	n/a	FR1	0	R1448T
913.775	1.616	1203251	WORD	n/a	wordpools/wordpool_long_EN.txt	BADGE	2	8	[0, 0, 0]	n/a	FR1	0	R1448T
915.391	0.95	1204875	WORD_OFF	n/a	n/a	BADGE	2	8	[0, 0, 0]	n/a	FR1	0	R1448T
916.341	1.616	1205824	WORD	n/a	wordpools/wordpool_long_EN.txt	CLAY	3	8	[0, 0, 0]	n/a	FR1	0	R1448T
917.957	0.9	1207437	WORD_OFF	n/a	n/a	CLAY	3	8	[0, 0, 0]	n/a	FR1	0	R1448T
918.857	1.617	1208331	WORD	n/a	wordpools/wordpool_long_EN.txt	SPHINX	4	8	[0, 0, 0]	n/a	FR1	0	R1448T
920.474	0.898	1209955	WORD_OFF	n/a	n/a	SPHINX	4	8	[0, 0, 0]	n/a	FR1	0	R1448T
921.372	1.601	1210849	WORD	n/a	wordpools/wordpool_long_EN.txt	CLOWN	5	8	[0, 0, 0]	n/a	FR1	0	R1448T
922.973	0.815	1212452	WORD_OFF	n/a	n/a	CLOWN	5	8	[0, 0, 0]	n/a	FR1	0	R1448T
923.788	1.617	1213269	WORD	n/a	wordpools/wordpool_long_EN.txt	GROUND	6	8	[0, 0, 0]	n/a	FR1	0	R1448T
925.405	0.933	1214882	WORD_OFF	n/a	n/a	GROUND	6	8	[0, 0, 0]	n/a	FR1	0	R1448T
926.338	1.616	1215820	WORD	n/a	wordpools/wordpool_long_EN.txt	CHILD	7	8	[0, 0, 0]	n/a	FR1	0	R1448T
927.954	0.983	1217433	WORD_OFF	n/a	n/a	CHILD	7	8	[0, 0, 0]	n/a	FR1	0	R1448T
928.937	1.617	1218414	WORD	n/a	wordpools/wordpool_long_EN.txt	OAR	8	8	[0, 0, 0]	n/a	FR1	0	R1448T
930.554	0.783	1220039	WORD_OFF	n/a	n/a	OAR	8	8	[0, 0, 0]	n/a	FR1	0	R1448T
931.337	1.617	1220824	WORD	n/a	wordpools/wordpool_long_EN.txt	FARM	9	8	[0, 0, 0]	n/a	FR1	0	R1448T
932.954	0.982	1222437	WORD_OFF	n/a	n/a	FARM	9	8	[0, 0, 0]	n/a	FR1	0	R1448T
933.936	1.616	1223418	WORD	n/a	wordpools/wordpool_long_EN.txt	BAR	10	8	[0, 0, 0]	n/a	FR1	0	R1448T
935.552	0.867	1225031	WORD_OFF	n/a	n/a	BAR	10	8	[0, 0, 0]	n/a	FR1	0	R1448T
936.419	1.616	1225904	WORD	n/a	wordpools/wordpool_long_EN.txt	MOP	11	8	[0, 0, 0]	n/a	FR1	0	R1448T
938.035	0.834	1227517	WORD_OFF	n/a	n/a	MOP	11	8	[0, 0, 0]	n/a	FR1	0	R1448T
938.869	1.616	1228356	WORD	n/a	wordpools/wordpool_long_EN.txt	ELF	12	8	[0, 0, 0]	n/a	FR1	0	R1448T
940.485	0.001	1229970	WORD_OFF	n/a	n/a	ELF	12	8	[0, 0, 0]	n/a	FR1	0	R1448T
940.486	0.0	1229970	ENCODING_END	n/a	n/a	n/a	-999	8	[0, 0, 0]	n/a	FR1	0	R1448T
940.486	0.0	1229970	DISTRACT_START	n/a	n/a	n/a	-999	8	[0, 0, 0]	n/a	FR1	0	R1448T
940.486	0.0	1229971	START	n/a	n/a	n/a	-999	8	[-999, -999, -999]	n/a	FR1	0	R1448T
940.486	3.731	1229971	PROB	3.731	n/a	n/a	-999	8	[2, 8, 1]	11	FR1	0	R1448T
944.217	3.517	1233703	PROB	3.517	n/a	n/a	-999	8	[4, 1, 3]	8	FR1	0	R1448T
947.734	9.747	1237221	PROB	9.747	n/a	n/a	-999	8	[5, 7, 1]	13	FR1	0	R1448T
957.481	4.632	1246969	PROB	4.632	n/a	n/a	-999	8	[4, 6, 6]	16	FR1	0	R1448T
962.113	0.0	1251597	DISTRACT_END	n/a	n/a	n/a	-999	8	[0, 0, 0]	n/a	FR1	0	R1448T
962.113	1.081	1251602	STOP	n/a	n/a	n/a	-999	8	[-999, -999, -999]	n/a	FR1	0	R1448T
963.194	1.438	1252688	REC_START	n/a	n/a	n/a	-999	8	[0, 0, 0]	n/a	FR1	0	R1448T
964.632	0.862	1254122	REC_WORD	0.862	n/a	CLAY	3	8	[0, 0, 0]	n/a	FR1	0	R1448T
965.494	1.153	1254984	REC_WORD	1.153	n/a	SPHINX	4	8	[0, 0, 0]	n/a	FR1	0	R1448T
966.647	27.776	1256137	REC_WORD	27.776	n/a	GROUND	6	8	[0, 0, 0]	n/a	FR1	0	R1448T
994.423	1.482	1283919	REC_END	n/a	n/a	n/a	-999	8	[0, 0, 0]	n/a	FR1	0	R1448T
995.905	10.347	1285402	COUNTDOWN_START	n/a	n/a	n/a	-999	8	[0, 0, 0]	n/a	FR1	0	R1448T
1006.252	0.0	1295747	COUNTDOWN_END	n/a	n/a	n/a	-999	8	[0, 0, 0]	n/a	FR1	0	R1448T
1006.252	1.866	1295747	ENCODING_START	n/a	n/a	n/a	-999	9	[0, 0, 0]	n/a	FR1	0	R1448T
1008.118	1.617	1297611	WORD	n/a	wordpools/wordpool_long_EN.txt	MAP	1	9	[0, 0, 0]	n/a	FR1	0	R1448T
1009.735	0.833	1299235	WORD_OFF	n/a	n/a	MAP	1	9	[0, 0, 0]	n/a	FR1	0	R1448T
1010.568	1.616	1300064	WORD	n/a	wordpools/wordpool_long_EN.txt	BATH	2	9	[0, 0, 0]	n/a	FR1	0	R1448T
1012.184	0.95	1301677	WORD_OFF	n/a	n/a	BATH	2	9	[0, 0, 0]	n/a	FR1	0	R1448T
1013.134	1.616	1302636	WORD	n/a	wordpools/wordpool_long_EN.txt	SEAT	3	9	[0, 0, 0]	n/a	FR1	0	R1448T
1014.75	0.982	1304250	WORD_OFF	n/a	n/a	SEAT	3	9	[0, 0, 0]	n/a	FR1	0	R1448T
1015.732	1.6	1305231	WORD	n/a	wordpools/wordpool_long_EN.txt	EEL	4	9	[0, 0, 0]	n/a	FR1	0	R1448T
1017.332	0.817	1306833	WORD_OFF	n/a	n/a	EEL	4	9	[0, 0, 0]	n/a	FR1	0	R1448T
1018.149	1.615	1307651	WORD	n/a	wordpools/wordpool_long_EN.txt	FLAG	5	9	[0, 0, 0]	n/a	FR1	0	R1448T
1019.764	0.951	1309264	WORD_OFF	n/a	n/a	FLAG	5	9	[0, 0, 0]	n/a	FR1	0	R1448T
1020.715	1.6	1310213	WORD	n/a	wordpools/wordpool_long_EN.txt	BRIDGE	6	9	[0, 0, 0]	n/a	FR1	0	R1448T
1022.315	0.816	1311815	WORD_OFF	n/a	n/a	BRIDGE	6	9	[0, 0, 0]	n/a	FR1	0	R1448T
1023.131	1.6	1312633	WORD	n/a	wordpools/wordpool_long_EN.txt	BROOK	7	9	[0, 0, 0]	n/a	FR1	0	R1448T
1024.731	0.75	1314235	WORD_OFF	n/a	n/a	BROOK	7	9	[0, 0, 0]	n/a	FR1	0	R1448T
1025.481	1.616	1314987	WORD	n/a	wordpools/wordpool_long_EN.txt	LIP	8	9	[0, 0, 0]	n/a	FR1	0	R1448T
1027.097	0.95	1316601	WORD_OFF	n/a	n/a	LIP	8	9	[0, 0, 0]	n/a	FR1	0	R1448T
1028.047	1.616	1317549	WORD	n/a	wordpools/wordpool_long_EN.txt	DOCK	9	9	[0, 0, 0]	n/a	FR1	0	R1448T
1029.663	0.966	1319162	WORD_OFF	n/a	n/a	DOCK	9	9	[0, 0, 0]	n/a	FR1	0	R1448T
1030.629	1.617	1320133	WORD	n/a	wordpools/wordpool_long_EN.txt	SINK	10	9	[0, 0, 0]	n/a	FR1	0	R1448T
1032.246	0.983	1321746	WORD_OFF	n/a	n/a	SINK	10	9	[0, 0, 0]	n/a	FR1	0	R1448T
1033.229	1.6	1322727	WORD	n/a	wordpools/wordpool_long_EN.txt	DART	11	9	[0, 0, 0]	n/a	FR1	0	R1448T
1034.829	0.766	1324329	WORD_OFF	n/a	n/a	DART	11	9	[0, 0, 0]	n/a	FR1	0	R1448T
1035.595	1.617	1325103	WORD	n/a	wordpools/wordpool_long_EN.txt	NET	12	9	[0, 0, 0]	n/a	FR1	0	R1448T
1037.212	0.0	1326716	PROB	0.0	n/a	n/a	-999	9	[2, 1, 5]	8	FR1	0	R1448T
1037.211	0.002	1326717	WORD_OFF	n/a	n/a	NET	12	9	[0, 0, 0]	n/a	FR1	0	R1448T
1037.213	0.0	1326717	ENCODING_END	n/a	n/a	n/a	-999	9	[0, 0, 0]	n/a	FR1	0	R1448T
1037.213	0.0	1326717	DISTRACT_START	n/a	n/a	n/a	-999	9	[0, 0, 0]	n/a	FR1	0	R1448T
1037.213	3.881	1326717	START	n/a	n/a	n/a	-999	9	[-999, -999, -999]	n/a	FR1	0	R1448T
1041.094	5.416	1330598	PROB	5.416	n/a	n/a	-999	9	[6, 8, 4]	18	FR1	0	R1448T
1046.51	5.031	1336015	PROB	5.031	n/a	n/a	-999	9	[8, 3, 4]	15	FR1	0	R1448T
1051.541	4.616	1341047	PROB	4.616	n/a	n/a	-999	9	[4, 5, 6]	15	FR1	0	R1448T
1056.157	4.381	1345664	PROB	4.381	n/a	n/a	-999	9	[2, 3, 1]	6	FR1	0	R1448T
1060.538	0.0	1350045	DISTRACT_END	n/a	n/a	n/a	-999	9	[0, 0, 0]	n/a	FR1	0	R1448T
1060.538	1.4	1350046	STOP	n/a	n/a	n/a	-999	9	[-999, -999, -999]	n/a	FR1	0	R1448T
1061.938	1.84	1351440	REC_START	n/a	n/a	n/a	-999	9	[0, 0, 0]	n/a	FR1	0	R1448T
1063.778	0.785	1353287	REC_WORD	0.785	n/a	MAP	1	9	[0, 0, 0]	n/a	FR1	0	R1448T
1064.563	1.213	1354072	REC_WORD	1.213	n/a	DOCK	9	9	[0, 0, 0]	n/a	FR1	0	R1448T
1065.776	27.407	1355285	REC_WORD	27.407	n/a	SINK	10	9	[0, 0, 0]	n/a	FR1	0	R1448T
1093.183	1.182	1382694	REC_END	n/a	n/a	n/a	-999	9	[0, 0, 0]	n/a	FR1	0	R1448T
1094.365	10.346	1383882	COUNTDOWN_START	n/a	n/a	n/a	-999	9	[0, 0, 0]	n/a	FR1	0	R1448T
1104.711	0.0	1394227	COUNTDOWN_END	n/a	n/a	n/a	-999	9	[0, 0, 0]	n/a	FR1	0	R1448T
1104.711	2.066	1394227	ENCODING_START	n/a	n/a	n/a	-999	10	[0, 0, 0]	n/a	FR1	0	R1448T
1106.777	1.6	1396298	WORD	n/a	wordpools/wordpool_long_EN.txt	ROD	1	10	[0, 0, 0]	n/a	FR1	0	R1448T
1108.377	0.9	1397890	WORD_OFF	n/a	n/a	ROD	1	10	[0, 0, 0]	n/a	FR1	0	R1448T
1109.277	1.616	1398795	WORD	n/a	wordpools/wordpool_long_EN.txt	TILE	2	10	[0, 0, 0]	n/a	FR1	0	R1448T
1110.893	0.916	1400408	WORD_OFF	n/a	n/a	TILE	2	10	[0, 0, 0]	n/a	FR1	0	R1448T
1111.809	1.617	1401324	WORD	n/a	wordpools/wordpool_long_EN.txt	WASP	3	10	[0, 0, 0]	n/a	FR1	0	R1448T
1113.426	0.866	1402948	WORD_OFF	n/a	n/a	WASP	3	10	[0, 0, 0]	n/a	FR1	0	R1448T
1114.292	1.617	1403809	WORD	n/a	wordpools/wordpool_long_EN.txt	HOLE	4	10	[0, 0, 0]	n/a	FR1	0	R1448T
1115.909	0.767	1405423	WORD_OFF	n/a	n/a	HOLE	4	10	[0, 0, 0]	n/a	FR1	0	R1448T
1116.676	1.616	1406197	WORD	n/a	wordpools/wordpool_long_EN.txt	PLATE	5	10	[0, 0, 0]	n/a	FR1	0	R1448T
1118.292	0.916	1407810	WORD_OFF	n/a	n/a	PLATE	5	10	[0, 0, 0]	n/a	FR1	0	R1448T
1119.208	1.615	1408726	WORD	n/a	wordpools/wordpool_long_EN.txt	TEETH	6	10	[0, 0, 0]	n/a	FR1	0	R1448T
1120.823	0.784	1410339	WORD_OFF	n/a	n/a	TEETH	6	10	[0, 0, 0]	n/a	FR1	0	R1448T
1121.607	1.6	1411124	WORD	n/a	wordpools/wordpool_long_EN.txt	GIFT	7	10	[0, 0, 0]	n/a	FR1	0	R1448T
1123.207	1.0	1412726	WORD_OFF	n/a	n/a	GIFT	7	10	[0, 0, 0]	n/a	FR1	0	R1448T
1124.207	1.616	1413729	WORD	n/a	wordpools/wordpool_long_EN.txt	FLAME	8	10	[0, 0, 0]	n/a	FR1	0	R1448T
1125.823	1.0	1415343	WORD_OFF	n/a	n/a	FLAME	8	10	[0, 0, 0]	n/a	FR1	0	R1448T
1126.823	1.617	1416346	WORD	n/a	wordpools/wordpool_long_EN.txt	PIN	9	10	[0, 0, 0]	n/a	FR1	0	R1448T
1128.44	0.882	1417959	WORD_OFF	n/a	n/a	PIN	9	10	[0, 0, 0]	n/a	FR1	0	R1448T
1129.322	1.616	1418842	WORD	n/a	wordpools/wordpool_long_EN.txt	THRONE	10	10	[0, 0, 0]	n/a	FR1	0	R1448T
1130.938	0.784	1420455	WORD_OFF	n/a	n/a	THRONE	10	10	[0, 0, 0]	n/a	FR1	0	R1448T
1131.722	1.615	1421240	WORD	n/a	wordpools/wordpool_long_EN.txt	GEESE	11	10	[0, 0, 0]	n/a	FR1	0	R1448T
1133.337	0.768	1422854	WORD_OFF	n/a	n/a	GEESE	11	10	[0, 0, 0]	n/a	FR1	0	R1448T
1134.105	1.615	1423628	WORD	n/a	wordpools/wordpool_long_EN.txt	ARK	12	10	[0, 0, 0]	n/a	FR1	0	R1448T
1135.72	0.004	1425241	WORD_OFF	n/a	n/a	ARK	12	10	[0, 0, 0]	n/a	FR1	0	R1448T
1135.724	0.0	1425241	ENCODING_END	n/a	n/a	n/a	-999	10	[0, 0, 0]	n/a	FR1	0	R1448T
1135.724	0.0	1425241	DISTRACT_START	n/a	n/a	n/a	-999	10	[0, 0, 0]	n/a	FR1	0	R1448T
1135.72	0.004	1425243	PROB	0.004	n/a	n/a	-999	10	[6, 5, 7]	18	FR1	0	R1448T
1135.724	8.396	1425247	START	n/a	n/a	n/a	-999	10	[-999, -999, -999]	n/a	FR1	0	R1448T
1144.12	5.514	1433644	PROB	5.514	n/a	n/a	-999	10	[6, 4, 6]	16	FR1	0	R1448T
1149.634	4.832	1439159	PROB	4.832	n/a	n/a	-999	10	[7, 3, 6]	16	FR1	0	R1448T
1154.466	3.865	1443992	PROB	3.865	n/a	n/a	-999	10	[8, 2, 6]	16	FR1	0	R1448T
1158.331	0.0	1447858	STOP	n/a	n/a	n/a	-999	10	[-999, -999, -999]	n/a	FR1	0	R1448T
1158.331	1.2	1447861	DISTRACT_END	n/a	n/a	n/a	-999	10	[0, 0, 0]	n/a	FR1	0	R1448T
1159.531	0.394	1449060	REC_START	n/a	n/a	n/a	-999	10	[0, 0, 0]	n/a	FR1	0	R1448T
1159.925	0.68	1449452	REC_WORD	0.68	n/a	ROD	1	10	[0, 0, 0]	n/a	FR1	0	R1448T
1160.605	0.59	1450132	REC_WORD	0.59	n/a	HOLE	4	10	[0, 0, 0]	n/a	FR1	0	R1448T
1161.195	0.668	1450723	REC_WORD	0.668	n/a	WASPS	-999	10	[0, 0, 0]	n/a	FR1	0	R1448T
1161.863	0.4	1451391	REC_WORD_VV	0.4	n/a	<>	-999	10	[0, 0, 0]	n/a	FR1	0	R1448T
1162.263	0.55	1451791	REC_WORD	0.55	n/a	WASP	3	10	[0, 0, 0]	n/a	FR1	0	R1448T
1162.813	1.753	1452341	REC_WORD	1.753	n/a	SINK	-999	10	[0, 0, 0]	n/a	FR1	0	R1448T
1164.566	26.2	1454094	REC_WORD_VV	26.2	n/a	<>	-999	10	[0, 0, 0]	n/a	FR1	0	R1448T
1190.766	2.207	1480302	REC_END	n/a	n/a	n/a	-999	10	[0, 0, 0]	n/a	FR1	0	R1448T
1192.973	10.348	1482504	COUNTDOWN_START	n/a	n/a	n/a	-999	10	[0, 0, 0]	n/a	FR1	0	R1448T
1203.321	0.0	1492860	COUNTDOWN_END	n/a	n/a	n/a	-999	10	[0, 0, 0]	n/a	FR1	0	R1448T
1203.321	2.233	1492860	ENCODING_START	n/a	n/a	n/a	-999	11	[0, 0, 0]	n/a	FR1	0	R1448T
1205.554	1.616	1495084	WORD	n/a	wordpools/wordpool_long_EN.txt	RAT	1	11	[0, 0, 0]	n/a	FR1	0	R1448T
1207.17	0.85	1496708	WORD_OFF	n/a	n/a	RAT	1	11	[0, 0, 0]	n/a	FR1	0	R1448T
1208.02	1.616	1497559	WORD	n/a	wordpools/wordpool_long_EN.txt	BOMB	2	11	[0, 0, 0]	n/a	FR1	0	R1448T
1209.636	0.8	1499172	WORD_OFF	n/a	n/a	BOMB	2	11	[0, 0, 0]	n/a	FR1	0	R1448T
1210.436	1.617	1499968	WORD	n/a	wordpools/wordpool_long_EN.txt	TRENCH	3	11	[0, 0, 0]	n/a	FR1	0	R1448T
1212.053	0.848	1501592	WORD_OFF	n/a	n/a	TRENCH	3	11	[0, 0, 0]	n/a	FR1	0	R1448T
1212.901	1.618	1502442	WORD	n/a	wordpools/wordpool_long_EN.txt	FILM	4	11	[0, 0, 0]	n/a	FR1	0	R1448T
1214.519	0.816	1504056	WORD_OFF	n/a	n/a	FILM	4	11	[0, 0, 0]	n/a	FR1	0	R1448T
1215.335	1.616	1504873	WORD	n/a	wordpools/wordpool_long_EN.txt	SLUSH	5	11	[0, 0, 0]	n/a	FR1	0	R1448T
1216.951	0.816	1506487	WORD_OFF	n/a	n/a	SLUSH	5	11	[0, 0, 0]	n/a	FR1	0	R1448T
1217.767	1.616	1507304	WORD	n/a	wordpools/wordpool_long_EN.txt	HOOF	6	11	[0, 0, 0]	n/a	FR1	0	R1448T
1219.383	0.817	1508918	WORD_OFF	n/a	n/a	HOOF	6	11	[0, 0, 0]	n/a	FR1	0	R1448T
1220.2	1.617	1509735	WORD	n/a	wordpools/wordpool_long_EN.txt	FOX	7	11	[0, 0, 0]	n/a	FR1	0	R1448T
1221.817	0.816	1511359	WORD_OFF	n/a	n/a	FOX	7	11	[0, 0, 0]	n/a	FR1	0	R1448T
1222.633	1.617	1512167	WORD	n/a	wordpools/wordpool_long_EN.txt	WING	8	11	[0, 0, 0]	n/a	FR1	0	R1448T
1224.25	0.982	1513790	WORD_OFF	n/a	n/a	WING	8	11	[0, 0, 0]	n/a	FR1	0	R1448T
1225.232	1.6	1514772	WORD	n/a	wordpools/wordpool_long_EN.txt	RUST	9	11	[0, 0, 0]	n/a	FR1	0	R1448T
1226.832	0.866	1516374	WORD_OFF	n/a	n/a	RUST	9	11	[0, 0, 0]	n/a	FR1	0	R1448T
1227.698	1.617	1517235	WORD	n/a	wordpools/wordpool_long_EN.txt	BRANCH	10	11	[0, 0, 0]	n/a	FR1	0	R1448T
1229.315	0.949	1518859	WORD_OFF	n/a	n/a	BRANCH	10	11	[0, 0, 0]	n/a	FR1	0	R1448T
1230.264	1.6	1519808	WORD	n/a	wordpools/wordpool_long_EN.txt	LEAF	11	11	[0, 0, 0]	n/a	FR1	0	R1448T
1231.864	0.799	1521399	WORD_OFF	n/a	n/a	LEAF	11	11	[0, 0, 0]	n/a	FR1	0	R1448T
1232.663	1.616	1522206	WORD	n/a	wordpools/wordpool_long_EN.txt	CANE	12	11	[0, 0, 0]	n/a	FR1	0	R1448T
1234.279	0.001	1523819	WORD_OFF	n/a	n/a	CANE	12	11	[0, 0, 0]	n/a	FR1	0	R1448T
1234.28	0.0	1523819	ENCODING_END	n/a	n/a	n/a	-999	11	[0, 0, 0]	n/a	FR1	0	R1448T
1234.28	0.0	1523819	DISTRACT_START	n/a	n/a	n/a	-999	11	[0, 0, 0]	n/a	FR1	0	R1448T
1234.28	0.0	1523822	PROB	0.0	n/a	n/a	-999	11	[1, 8, 1]	10	FR1	0	R1448T
1234.28	5.133	1523822	START	n/a	n/a	n/a	-999	11	[-999, -999, -999]	n/a	FR1	0	R1448T
1239.413	4.465	1528956	PROB	4.465	n/a	n/a	-999	11	[3, 1, 8]	12	FR1	0	R1448T
1243.878	5.233	1533421	PROB	5.233	n/a	n/a	-999	11	[7, 6, 8]	21	FR1	0	R1448T
1249.111	3.832	1538655	PROB	3.832	n/a	n/a	-999	11	[2, 8, 1]	11	FR1	0	R1448T
1252.943	3.831	1542488	PROB	3.831	n/a	n/a	-999	11	[4, 5, 7]	16	FR1	0	R1448T
1256.774	0.0	1546319	DISTRACT_END	n/a	n/a	n/a	-999	11	[0, 0, 0]	n/a	FR1	0	R1448T
1256.774	1.284	1546320	STOP	n/a	n/a	n/a	-999	11	[-999, -999, -999]	n/a	FR1	0	R1448T
1258.058	3.812	1547606	REC_START	n/a	n/a	n/a	-999	11	[0, 0, 0]	n/a	FR1	0	R1448T
1261.87	6.671	1551417	REC_WORD	6.671	n/a	RAT	1	11	[0, 0, 0]	n/a	FR1	0	R1448T
1268.541	20.762	1558089	REC_WORD	20.762	n/a	DITCH	-999	11	[0, 0, 0]	n/a	FR1	0	R1448T
1289.303	2.996	1578859	REC_END	n/a	n/a	n/a	-999	11	[0, 0, 0]	n/a	FR1	0	R1448T
1292.299	10.346	1581857	COUNTDOWN_START	n/a	n/a	n/a	-999	11	[0, 0, 0]	n/a	FR1	0	R1448T
1302.645	0.0	1592202	COUNTDOWN_END	n/a	n/a	n/a	-999	11	[0, 0, 0]	n/a	FR1	0	R1448T
1302.645	2.352	1592202	ENCODING_START	n/a	n/a	n/a	-999	12	[0, 0, 0]	n/a	FR1	0	R1448T
1304.997	1.616	1594546	WORD	n/a	wordpools/wordpool_long_EN.txt	BAT	1	12	[0, 0, 0]	n/a	FR1	0	R1448T
1306.613	0.916	1596170	WORD_OFF	n/a	n/a	BAT	1	12	[0, 0, 0]	n/a	FR1	0	R1448T
1307.529	1.6	1597086	WORD	n/a	wordpools/wordpool_long_EN.txt	SPOOL	2	12	[0, 0, 0]	n/a	FR1	0	R1448T
1309.129	0.966	1598688	WORD_OFF	n/a	n/a	SPOOL	2	12	[0, 0, 0]	n/a	FR1	0	R1448T
1310.095	1.616	1599647	WORD	n/a	wordpools/wordpool_long_EN.txt	BOOT	3	12	[0, 0, 0]	n/a	FR1	0	R1448T
1311.711	0.817	1601272	WORD_OFF	n/a	n/a	BOOT	3	12	[0, 0, 0]	n/a	FR1	0	R1448T
1312.528	1.616	1602081	WORD	n/a	wordpools/wordpool_long_EN.txt	COD	4	12	[0, 0, 0]	n/a	FR1	0	R1448T
1314.144	0.933	1603703	WORD_OFF	n/a	n/a	COD	4	12	[0, 0, 0]	n/a	FR1	0	R1448T
1315.077	1.617	1604629	WORD	n/a	wordpools/wordpool_long_EN.txt	BEAST	5	12	[0, 0, 0]	n/a	FR1	0	R1448T
1316.694	0.799	1606253	WORD_OFF	n/a	n/a	BEAST	5	12	[0, 0, 0]	n/a	FR1	0	R1448T
1317.493	1.617	1607049	WORD	n/a	wordpools/wordpool_long_EN.txt	STICK	6	12	[0, 0, 0]	n/a	FR1	0	R1448T
1319.11	0.932	1608663	WORD_OFF	n/a	n/a	STICK	6	12	[0, 0, 0]	n/a	FR1	0	R1448T
1320.042	1.6	1609600	WORD	n/a	wordpools/wordpool_long_EN.txt	BOARD	7	12	[0, 0, 0]	n/a	FR1	0	R1448T
1321.642	0.933	1611203	WORD_OFF	n/a	n/a	BOARD	7	12	[0, 0, 0]	n/a	FR1	0	R1448T
1322.575	1.617	1612129	WORD	n/a	wordpools/wordpool_long_EN.txt	ROAD	8	12	[0, 0, 0]	n/a	FR1	0	R1448T
1324.192	0.816	1613753	WORD_OFF	n/a	n/a	ROAD	8	12	[0, 0, 0]	n/a	FR1	0	R1448T
1325.008	1.616	1614571	WORD	n/a	wordpools/wordpool_long_EN.txt	BAND	9	12	[0, 0, 0]	n/a	FR1	0	R1448T
1326.624	0.767	1616184	WORD_OFF	n/a	n/a	BAND	9	12	[0, 0, 0]	n/a	FR1	0	R1448T
1327.391	1.616	1616947	WORD	n/a	wordpools/wordpool_long_EN.txt	SAIL	10	12	[0, 0, 0]	n/a	FR1	0	R1448T
1329.007	0.933	1618561	WORD_OFF	n/a	n/a	SAIL	10	12	[0, 0, 0]	n/a	FR1	0	R1448T
1329.94	1.6	1619498	WORD	n/a	wordpools/wordpool_long_EN.txt	WOLF	11	12	[0, 0, 0]	n/a	FR1	0	R1448T
1331.54	0.933	1621101	WORD_OFF	n/a	n/a	WOLF	11	12	[0, 0, 0]	n/a	FR1	0	R1448T
1332.473	1.617	1622038	WORD	n/a	wordpools/wordpool_long_EN.txt	CROWN	12	12	[0, 0, 0]	n/a	FR1	0	R1448T
1334.09	0.0	1623651	PROB	0.0	n/a	n/a	-999	12	[7, 1, 3]	11	FR1	0	R1448T
1334.089	0.003	1623652	WORD_OFF	n/a	n/a	CROWN	12	12	[0, 0, 0]	n/a	FR1	0	R1448T
1334.092	0.0	1623652	ENCODING_END	n/a	n/a	n/a	-999	12	[0, 0, 0]	n/a	FR1	0	R1448T
1334.092	0.0	1623652	DISTRACT_START	n/a	n/a	n/a	-999	12	[0, 0, 0]	n/a	FR1	0	R1448T
1334.092	5.679	1623653	START	n/a	n/a	n/a	-999	12	[-999, -999, -999]	n/a	FR1	0	R1448T
1339.771	4.182	1629333	PROB	4.182	n/a	n/a	-999	12	[6, 4, 3]	13	FR1	0	R1448T
1343.953	5.216	1633516	PROB	5.216	n/a	n/a	-999	12	[5, 7, 6]	18	FR1	0	R1448T
1349.169	2.95	1638733	PROB	2.95	n/a	n/a	-999	12	[1, 5, 2]	8	FR1	0	R1448T
1352.119	3.048	1641683	PROB	3.048	n/a	n/a	-999	12	[4, 5, 5]	14	FR1	0	R1448T
1355.167	0.0	1644732	STOP	n/a	n/a	n/a	-999	12	[-999, -999, -999]	n/a	FR1	0	R1448T
1355.167	1.217	1644734	DISTRACT_END	n/a	n/a	n/a	-999	12	[0, 0, 0]	n/a	FR1	0	R1448T
1356.384	0.56	1645944	REC_START	n/a	n/a	n/a	-999	12	[0, 0, 0]	n/a	FR1	0	R1448T
1356.944	0.636	1646509	REC_WORD	0.636	n/a	BATS	-999	12	[0, 0, 0]	n/a	FR1	0	R1448T
1357.58	0.441	1647145	REC_WORD	0.441	n/a	WOOL	-999	12	[0, 0, 0]	n/a	FR1	0	R1448T
1358.021	0.898	1647586	REC_WORD	0.898	n/a	COD	4	12	[0, 0, 0]	n/a	FR1	0	R1448T
1358.919	28.709	1648484	REC_WORD	28.709	n/a	BEAST	5	12	[0, 0, 0]	n/a	FR1	0	R1448T
1387.628	0.0	1677198	REC_END	n/a	n/a	n/a	-999	12	[0, 0, 0]	n/a	FR1	0	R1448T
