onset	duration	sample	trial_type	response_time	stim_file	item_name	serialpos	list	test	answer	experiment	session	subject
0.0	18.056	399499	SESS_START	n/a	n/a	n/a	-999	-999	[0, 0, 0]	n/a	FR1	1	R1311T
18.056	10.428	417554	COUNTDOWN_START	n/a	n/a	n/a	-999	-999	[0, 0, 0]	n/a	FR1	1	R1311T
28.484	3.758	427981	COUNTDOWN_END	n/a	n/a	n/a	-999	-999	[0, 0, 0]	n/a	FR1	1	R1311T
32.242	2.567	431739	PRACTICE_WORD	n/a	n/a	WAGON	1	-1	[0, 0, 0]	n/a	FR1	1	R1311T
34.809	2.534	434306	PRACTICE_WORD	n/a	n/a	ATTIC	2	-1	[0, 0, 0]	n/a	FR1	1	R1311T
37.343	2.567	436840	PRACTICE_WORD	n/a	n/a	COTTON	3	-1	[0, 0, 0]	n/a	FR1	1	R1311T
39.91	2.551	439407	PRACTICE_WORD	n/a	n/a	RING	4	-1	[0, 0, 0]	n/a	FR1	1	R1311T
42.461	2.55	441958	PRACTICE_WORD	n/a	n/a	WATCH	5	-1	[0, 0, 0]	n/a	FR1	1	R1311T
45.011	2.4	444507	PRACTICE_WORD	n/a	n/a	FLOOD	6	-1	[0, 0, 0]	n/a	FR1	1	R1311T
47.411	2.618	446907	PRACTICE_WORD	n/a	n/a	CAMEL	7	-1	[0, 0, 0]	n/a	FR1	1	R1311T
50.029	2.45	449525	PRACTICE_WORD	n/a	n/a	CHEST	8	-1	[0, 0, 0]	n/a	FR1	1	R1311T
52.479	2.484	451975	PRACTICE_WORD	n/a	n/a	BEAM	9	-1	[0, 0, 0]	n/a	FR1	1	R1311T
54.963	2.384	454459	PRACTICE_WORD	n/a	n/a	RHINO	10	-1	[0, 0, 0]	n/a	FR1	1	R1311T
57.347	2.383	456843	PRACTICE_WORD	n/a	n/a	IRON	11	-1	[0, 0, 0]	n/a	FR1	1	R1311T
59.73	1.617	459226	PRACTICE_WORD	n/a	n/a	TONGUE	12	-1	[0, 0, 0]	n/a	FR1	1	R1311T
61.347	0.001	460842	PRACTICE_DISTRACT_START	n/a	n/a	n/a	-999	-1	[0, 0, 0]	n/a	FR1	1	R1311T
61.348	0.016	460843	START	n/a	n/a	n/a	-999	-1	[-999, -999, -999]	n/a	FR1	1	R1311T
61.364	19.92	460859	PROB	19.92	n/a	n/a	-999	-1	[4, 7, 7]	18	FR1	1	R1311T
81.284	13.233	480778	PROB	13.233	n/a	n/a	-999	-1	[7, 6, 5]	18	FR1	1	R1311T
94.517	0.02	494011	STOP	n/a	n/a	n/a	-999	-1	[-999, -999, -999]	n/a	FR1	1	R1311T
94.537	0.602	494031	PRACTICE_DISTRACT_END	n/a	n/a	n/a	-999	-1	[0, 0, 0]	n/a	FR1	1	R1311T
95.139	30.515	494633	PRACTICE_REC_START	n/a	n/a	n/a	-999	-1	[0, 0, 0]	n/a	FR1	1	R1311T
125.654	11.624	525146	PRACTICE_REC_END	n/a	n/a	n/a	-999	-1	[0, 0, 0]	n/a	FR1	1	R1311T
137.278	0.0	536769	TRIAL	n/a	n/a	n/a	-999	1	[0, 0, 0]	n/a	FR1	1	R1311T
137.278	10.428	536769	COUNTDOWN_START	n/a	n/a	n/a	-999	1	[0, 0, 0]	n/a	FR1	1	R1311T
147.706	0.007	547197	COUNTDOWN_END	n/a	n/a	n/a	-999	1	[0, 0, 0]	n/a	FR1	1	R1311T
147.713	2.567	547204	ORIENT	n/a	n/a	n/a	-999	1	[0, 0, 0]	n/a	FR1	1	R1311T
150.28	2.401	549770	WORD	n/a	wordpools/wordpool_EN.txt	SEAT	1	1	[0, 0, 0]	n/a	FR1	1	R1311T
152.681	2.567	552171	WORD	n/a	wordpools/wordpool_EN.txt	DOOR	2	1	[0, 0, 0]	n/a	FR1	1	R1311T
155.248	2.517	554738	WORD	n/a	wordpools/wordpool_EN.txt	THUMB	3	1	[0, 0, 0]	n/a	FR1	1	R1311T
157.765	2.5	557255	WORD	n/a	wordpools/wordpool_EN.txt	BROOM	4	1	[0, 0, 0]	n/a	FR1	1	R1311T
160.265	2.501	559755	WORD	n/a	wordpools/wordpool_EN.txt	HAND	5	1	[0, 0, 0]	n/a	FR1	1	R1311T
162.766	2.484	562256	WORD	n/a	wordpools/wordpool_EN.txt	CRANE	6	1	[0, 0, 0]	n/a	FR1	1	R1311T
165.25	2.534	564740	WORD	n/a	wordpools/wordpool_EN.txt	TOOL	7	1	[0, 0, 0]	n/a	FR1	1	R1311T
167.784	2.5	567273	WORD	n/a	wordpools/wordpool_EN.txt	HOUSE	8	1	[0, 0, 0]	n/a	FR1	1	R1311T
170.284	2.45	569773	WORD	n/a	wordpools/wordpool_EN.txt	SHOE	9	1	[0, 0, 0]	n/a	FR1	1	R1311T
172.734	2.384	572223	WORD	n/a	wordpools/wordpool_EN.txt	HORN	10	1	[0, 0, 0]	n/a	FR1	1	R1311T
175.118	2.417	574607	WORD	n/a	wordpools/wordpool_EN.txt	LOCK	11	1	[0, 0, 0]	n/a	FR1	1	R1311T
177.535	1.618	577024	WORD	n/a	wordpools/wordpool_EN.txt	FROG	12	1	[0, 0, 0]	n/a	FR1	1	R1311T
179.153	0.001	578642	DISTRACT_START	n/a	n/a	n/a	-999	1	[0, 0, 0]	n/a	FR1	1	R1311T
179.154	0.015	578643	START	n/a	n/a	n/a	-999	1	[-999, -999, -999]	n/a	FR1	1	R1311T
179.169	20.596	578658	PROB	20.596	n/a	n/a	-999	1	[3, 5, 3]	11	FR1	1	R1311T
199.765	0.008	599253	STOP	n/a	n/a	n/a	-999	1	[-999, -999, -999]	n/a	FR1	1	R1311T
199.773	1.085	599261	DISTRACT_END	n/a	n/a	n/a	-999	1	[0, 0, 0]	n/a	FR1	1	R1311T
200.858	1.334	600346	REC_START	n/a	n/a	n/a	-999	1	[0, 0, 0]	n/a	FR1	1	R1311T
202.192	1.055	601679	REC_WORD_VV	1.055	n/a	<>	-999	1	[0, 0, 0]	n/a	FR1	1	R1311T
203.247	1.329	602734	REC_WORD	1.329	n/a	SEAT	1	1	[0, 0, 0]	n/a	FR1	1	R1311T
204.576	1.457	604063	REC_WORD	1.457	n/a	DOOR	2	1	[0, 0, 0]	n/a	FR1	1	R1311T
206.033	24.836	605520	REC_WORD_VV	24.836	n/a	<>	-999	1	[0, 0, 0]	n/a	FR1	1	R1311T
230.869	2.843	630355	REC_END	n/a	n/a	n/a	-999	1	[0, 0, 0]	n/a	FR1	1	R1311T
233.712	0.0	633198	TRIAL	n/a	n/a	n/a	-999	2	[0, 0, 0]	n/a	FR1	1	R1311T
233.712	10.428	633198	COUNTDOWN_START	n/a	n/a	n/a	-999	2	[0, 0, 0]	n/a	FR1	1	R1311T
244.14	0.007	643625	COUNTDOWN_END	n/a	n/a	n/a	-999	2	[0, 0, 0]	n/a	FR1	1	R1311T
244.147	2.501	643632	ORIENT	n/a	n/a	n/a	-999	2	[0, 0, 0]	n/a	FR1	1	R1311T
246.648	2.483	646133	WORD	n/a	wordpools/wordpool_EN.txt	ROAD	1	2	[0, 0, 0]	n/a	FR1	1	R1311T
249.131	2.601	648616	WORD	n/a	wordpools/wordpool_EN.txt	ROOF	2	2	[0, 0, 0]	n/a	FR1	1	R1311T
251.732	2.551	651217	WORD	n/a	wordpools/wordpool_EN.txt	PARK	3	2	[0, 0, 0]	n/a	FR1	1	R1311T
254.283	2.533	653767	WORD	n/a	wordpools/wordpool_EN.txt	KITE	4	2	[0, 0, 0]	n/a	FR1	1	R1311T
256.816	2.617	656300	WORD	n/a	wordpools/wordpool_EN.txt	BOX	5	2	[0, 0, 0]	n/a	FR1	1	R1311T
259.433	2.451	658917	WORD	n/a	wordpools/wordpool_EN.txt	FOG	6	2	[0, 0, 0]	n/a	FR1	1	R1311T
261.884	2.5	661368	WORD	n/a	wordpools/wordpool_EN.txt	SMILE	7	2	[0, 0, 0]	n/a	FR1	1	R1311T
264.384	2.601	663868	WORD	n/a	wordpools/wordpool_EN.txt	VAN	8	2	[0, 0, 0]	n/a	FR1	1	R1311T
266.985	2.617	666469	WORD	n/a	wordpools/wordpool_EN.txt	CAR	9	2	[0, 0, 0]	n/a	FR1	1	R1311T
269.602	2.467	669086	WORD	n/a	wordpools/wordpool_EN.txt	RUG	10	2	[0, 0, 0]	n/a	FR1	1	R1311T
272.069	2.567	671552	WORD	n/a	wordpools/wordpool_EN.txt	CLOWN	11	2	[0, 0, 0]	n/a	FR1	1	R1311T
274.636	1.617	674119	WORD	n/a	wordpools/wordpool_EN.txt	LAMP	12	2	[0, 0, 0]	n/a	FR1	1	R1311T
276.253	0.001	675736	DISTRACT_START	n/a	n/a	n/a	-999	2	[0, 0, 0]	n/a	FR1	1	R1311T
276.254	0.016	675737	START	n/a	n/a	n/a	-999	2	[-999, -999, -999]	n/a	FR1	1	R1311T
276.27	41.735	675753	PROB	41.735	n/a	n/a	-999	2	[9, 7, 4]	20	FR1	1	R1311T
318.005	0.006	717486	STOP	n/a	n/a	n/a	-999	2	[-999, -999, -999]	n/a	FR1	1	R1311T
318.011	1.117	717492	DISTRACT_END	n/a	n/a	n/a	-999	2	[0, 0, 0]	n/a	FR1	1	R1311T
319.128	3.747	718609	REC_START	n/a	n/a	n/a	-999	2	[0, 0, 0]	n/a	FR1	1	R1311T
322.875	1.272	722356	REC_WORD	1.272	n/a	ROOF	2	2	[0, 0, 0]	n/a	FR1	1	R1311T
324.147	15.795	723628	REC_WORD	15.795	n/a	ROAD	1	2	[0, 0, 0]	n/a	FR1	1	R1311T
339.942	1.186	739422	REC_WORD_VV	1.186	n/a	<>	-999	2	[0, 0, 0]	n/a	FR1	1	R1311T
341.128	1.0	740608	REC_WORD_VV	1.0	n/a	<>	-999	2	[0, 0, 0]	n/a	FR1	1	R1311T
342.128	1.004	741607	REC_WORD_VV	1.004	n/a	<>	-999	2	[0, 0, 0]	n/a	FR1	1	R1311T
343.132	4.352	742611	REC_WORD_VV	4.352	n/a	<>	-999	2	[0, 0, 0]	n/a	FR1	1	R1311T
347.484	0.21	746963	REC_WORD_VV	0.21	n/a	<>	-999	2	[0, 0, 0]	n/a	FR1	1	R1311T
347.694	1.501	747173	REC_WORD	1.501	n/a	DOOR	-999	2	[0, 0, 0]	n/a	FR1	1	R1311T
349.195	22.792	748674	REC_END	n/a	n/a	n/a	-999	2	[0, 0, 0]	n/a	FR1	1	R1311T
371.987	0.0	771465	TRIAL	n/a	n/a	n/a	-999	3	[0, 0, 0]	n/a	FR1	1	R1311T
371.987	10.428	771465	COUNTDOWN_START	n/a	n/a	n/a	-999	3	[0, 0, 0]	n/a	FR1	1	R1311T
382.415	0.007	781892	COUNTDOWN_END	n/a	n/a	n/a	-999	3	[0, 0, 0]	n/a	FR1	1	R1311T
382.422	2.501	781899	ORIENT	n/a	n/a	n/a	-999	3	[0, 0, 0]	n/a	FR1	1	R1311T
384.923	2.517	784400	WORD	n/a	wordpools/wordpool_EN.txt	JAR	1	3	[0, 0, 0]	n/a	FR1	1	R1311T
387.44	2.584	786917	WORD	n/a	wordpools/wordpool_EN.txt	STRAW	2	3	[0, 0, 0]	n/a	FR1	1	R1311T
390.024	2.5	789501	WORD	n/a	wordpools/wordpool_EN.txt	CHIN	3	3	[0, 0, 0]	n/a	FR1	1	R1311T
392.524	2.567	792001	WORD	n/a	wordpools/wordpool_EN.txt	BEAK	4	3	[0, 0, 0]	n/a	FR1	1	R1311T
395.091	2.417	794567	WORD	n/a	wordpools/wordpool_EN.txt	FACE	5	3	[0, 0, 0]	n/a	FR1	1	R1311T
397.508	2.568	796984	WORD	n/a	wordpools/wordpool_EN.txt	DOLL	6	3	[0, 0, 0]	n/a	FR1	1	R1311T
400.076	2.433	799552	WORD	n/a	wordpools/wordpool_EN.txt	YARD	7	3	[0, 0, 0]	n/a	FR1	1	R1311T
402.509	2.534	801985	WORD	n/a	wordpools/wordpool_EN.txt	CHEEK	8	3	[0, 0, 0]	n/a	FR1	1	R1311T
405.043	2.484	804519	WORD	n/a	wordpools/wordpool_EN.txt	TEA	9	3	[0, 0, 0]	n/a	FR1	1	R1311T
407.527	2.567	807003	WORD	n/a	wordpools/wordpool_EN.txt	SINK	10	3	[0, 0, 0]	n/a	FR1	1	R1311T
410.094	2.601	809570	WORD	n/a	wordpools/wordpool_EN.txt	CHAIR	11	3	[0, 0, 0]	n/a	FR1	1	R1311T
412.695	1.616	812170	WORD	n/a	wordpools/wordpool_EN.txt	BAG	12	3	[0, 0, 0]	n/a	FR1	1	R1311T
414.311	0.001	813786	DISTRACT_START	n/a	n/a	n/a	-999	3	[0, 0, 0]	n/a	FR1	1	R1311T
414.312	0.016	813787	START	n/a	n/a	n/a	-999	3	[-999, -999, -999]	n/a	FR1	1	R1311T
414.328	7.302	813803	PROB	7.302	n/a	n/a	-999	3	[8, 3, 2]	13	FR1	1	R1311T
421.63	10.985	821105	PROB	10.985	n/a	n/a	-999	3	[7, 3, 1]	11	FR1	1	R1311T
432.615	6.278	832089	PROB	6.278	n/a	n/a	-999	3	[4, 2, 1]	7	FR1	1	R1311T
438.893	0.006	838367	STOP	n/a	n/a	n/a	-999	3	[-999, -999, -999]	n/a	FR1	1	R1311T
438.899	1.035	838373	DISTRACT_END	n/a	n/a	n/a	-999	3	[0, 0, 0]	n/a	FR1	1	R1311T
439.934	9.154	839408	REC_START	n/a	n/a	n/a	-999	3	[0, 0, 0]	n/a	FR1	1	R1311T
449.088	2.743	848561	REC_WORD	2.743	n/a	CHAIR	11	3	[0, 0, 0]	n/a	FR1	1	R1311T
451.831	2.953	851304	REC_WORD	2.953	n/a	STRAW	2	3	[0, 0, 0]	n/a	FR1	1	R1311T
454.784	4.84	854257	REC_WORD	4.84	n/a	CHIN	3	3	[0, 0, 0]	n/a	FR1	1	R1311T
459.624	1.646	859097	REC_WORD_VV	1.646	n/a	<>	-999	3	[0, 0, 0]	n/a	FR1	1	R1311T
461.27	4.632	860743	REC_WORD_VV	4.632	n/a	<>	-999	3	[0, 0, 0]	n/a	FR1	1	R1311T
465.902	4.042	865374	REC_WORD_VV	4.042	n/a	<>	-999	3	[0, 0, 0]	n/a	FR1	1	R1311T
469.944	4.178	869416	REC_END	n/a	n/a	n/a	-999	3	[0, 0, 0]	n/a	FR1	1	R1311T
474.122	0.001	873594	COUNTDOWN_START	n/a	n/a	n/a	-999	4	[0, 0, 0]	n/a	FR1	1	R1311T
474.123	10.427	873595	TRIAL	n/a	n/a	n/a	-999	4	[0, 0, 0]	n/a	FR1	1	R1311T
484.55	0.008	884021	COUNTDOWN_END	n/a	n/a	n/a	-999	4	[0, 0, 0]	n/a	FR1	1	R1311T
484.558	2.601	884029	ORIENT	n/a	n/a	n/a	-999	4	[0, 0, 0]	n/a	FR1	1	R1311T
487.159	2.6	886630	WORD	n/a	wordpools/wordpool_EN.txt	SHELL	1	4	[0, 0, 0]	n/a	FR1	1	R1311T
489.759	2.567	889230	WORD	n/a	wordpools/wordpool_EN.txt	GLASS	2	4	[0, 0, 0]	n/a	FR1	1	R1311T
492.326	2.584	891797	WORD	n/a	wordpools/wordpool_EN.txt	HOOF	3	4	[0, 0, 0]	n/a	FR1	1	R1311T
494.91	2.617	894381	WORD	n/a	wordpools/wordpool_EN.txt	ZOO	4	4	[0, 0, 0]	n/a	FR1	1	R1311T
497.527	2.383	896998	WORD	n/a	wordpools/wordpool_EN.txt	FLEA	5	4	[0, 0, 0]	n/a	FR1	1	R1311T
499.91	2.568	899381	WORD	n/a	wordpools/wordpool_EN.txt	SEA	6	4	[0, 0, 0]	n/a	FR1	1	R1311T
502.478	2.517	901948	WORD	n/a	wordpools/wordpool_EN.txt	CONE	7	4	[0, 0, 0]	n/a	FR1	1	R1311T
504.995	2.433	904465	WORD	n/a	wordpools/wordpool_EN.txt	BEACH	8	4	[0, 0, 0]	n/a	FR1	1	R1311T
507.428	2.584	906898	WORD	n/a	wordpools/wordpool_EN.txt	SNAIL	9	4	[0, 0, 0]	n/a	FR1	1	R1311T
510.012	2.518	909482	WORD	n/a	wordpools/wordpool_EN.txt	CLAY	10	4	[0, 0, 0]	n/a	FR1	1	R1311T
512.53	2.467	912000	WORD	n/a	wordpools/wordpool_EN.txt	SPONGE	11	4	[0, 0, 0]	n/a	FR1	1	R1311T
514.997	1.616	914467	WORD	n/a	wordpools/wordpool_EN.txt	WAVE	12	4	[0, 0, 0]	n/a	FR1	1	R1311T
516.613	0.001	916083	DISTRACT_START	n/a	n/a	n/a	-999	4	[0, 0, 0]	n/a	FR1	1	R1311T
516.614	0.016	916084	START	n/a	n/a	n/a	-999	4	[-999, -999, -999]	n/a	FR1	1	R1311T
516.63	14.853	916100	PROB	14.853	n/a	n/a	-999	4	[2, 6, 7]	15	FR1	1	R1311T
531.483	12.938	930952	PROB	12.938	n/a	n/a	-999	4	[1, 3, 5]	9	FR1	1	R1311T
544.421	0.014	943889	STOP	n/a	n/a	n/a	-999	4	[-999, -999, -999]	n/a	FR1	1	R1311T
544.435	1.068	943903	DISTRACT_END	n/a	n/a	n/a	-999	4	[0, 0, 0]	n/a	FR1	1	R1311T
545.503	1.758	944971	REC_START	n/a	n/a	n/a	-999	4	[0, 0, 0]	n/a	FR1	1	R1311T
547.261	0.905	946729	REC_WORD_VV	0.905	n/a	<>	-999	4	[0, 0, 0]	n/a	FR1	1	R1311T
548.166	2.361	947634	REC_WORD	2.361	n/a	SEA	6	4	[0, 0, 0]	n/a	FR1	1	R1311T
550.527	1.668	949995	REC_WORD	1.668	n/a	CONE	7	4	[0, 0, 0]	n/a	FR1	1	R1311T
552.195	3.953	951663	REC_WORD	3.953	n/a	SNAIL	9	4	[0, 0, 0]	n/a	FR1	1	R1311T
556.148	19.366	955615	REC_WORD	19.366	n/a	FLEA	5	4	[0, 0, 0]	n/a	FR1	1	R1311T
575.514	6.411	974980	REC_END	n/a	n/a	n/a	-999	4	[0, 0, 0]	n/a	FR1	1	R1311T
581.925	0.001	981391	COUNTDOWN_START	n/a	n/a	n/a	-999	5	[0, 0, 0]	n/a	FR1	1	R1311T
581.926	10.427	981392	TRIAL	n/a	n/a	n/a	-999	5	[0, 0, 0]	n/a	FR1	1	R1311T
592.353	0.008	991818	COUNTDOWN_END	n/a	n/a	n/a	-999	5	[0, 0, 0]	n/a	FR1	1	R1311T
592.361	2.45	991826	ORIENT	n/a	n/a	n/a	-999	5	[0, 0, 0]	n/a	FR1	1	R1311T
594.811	2.617	994276	WORD	n/a	wordpools/wordpool_EN.txt	AXE	1	5	[0, 0, 0]	n/a	FR1	1	R1311T
597.428	2.417	996893	WORD	n/a	wordpools/wordpool_EN.txt	CLOTH	2	5	[0, 0, 0]	n/a	FR1	1	R1311T
599.845	2.584	999310	WORD	n/a	wordpools/wordpool_EN.txt	SPRING	3	5	[0, 0, 0]	n/a	FR1	1	R1311T
602.429	2.401	1001894	WORD	n/a	wordpools/wordpool_EN.txt	CROWN	4	5	[0, 0, 0]	n/a	FR1	1	R1311T
604.83	2.45	1004295	WORD	n/a	wordpools/wordpool_EN.txt	BED	5	5	[0, 0, 0]	n/a	FR1	1	R1311T
607.28	2.384	1006744	WORD	n/a	wordpools/wordpool_EN.txt	HEART	6	5	[0, 0, 0]	n/a	FR1	1	R1311T
609.664	2.567	1009128	WORD	n/a	wordpools/wordpool_EN.txt	BOARD	7	5	[0, 0, 0]	n/a	FR1	1	R1311T
612.231	2.584	1011695	WORD	n/a	wordpools/wordpool_EN.txt	TOOTH	8	5	[0, 0, 0]	n/a	FR1	1	R1311T
614.815	2.583	1014279	WORD	n/a	wordpools/wordpool_EN.txt	CUP	9	5	[0, 0, 0]	n/a	FR1	1	R1311T
617.398	2.618	1016862	WORD	n/a	wordpools/wordpool_EN.txt	MUD	10	5	[0, 0, 0]	n/a	FR1	1	R1311T
620.016	2.567	1019480	WORD	n/a	wordpools/wordpool_EN.txt	OAR	11	5	[0, 0, 0]	n/a	FR1	1	R1311T
622.583	1.617	1022047	WORD	n/a	wordpools/wordpool_EN.txt	LAMB	12	5	[0, 0, 0]	n/a	FR1	1	R1311T
624.2	0.0	1023663	DISTRACT_START	n/a	n/a	n/a	-999	5	[0, 0, 0]	n/a	FR1	1	R1311T
624.2	0.016	1023663	START	n/a	n/a	n/a	-999	5	[-999, -999, -999]	n/a	FR1	1	R1311T
624.216	7.168	1023679	PROB	7.168	n/a	n/a	-999	5	[7, 4, 1]	12	FR1	1	R1311T
631.384	15.813	1030847	PROB	15.813	n/a	n/a	-999	5	[1, 4, 8]	17	FR1	1	R1311T
647.197	0.007	1046659	STOP	n/a	n/a	n/a	-999	5	[-999, -999, -999]	n/a	FR1	1	R1311T
647.204	1.117	1046666	DISTRACT_END	n/a	n/a	n/a	-999	5	[0, 0, 0]	n/a	FR1	1	R1311T
648.321	2.228	1047783	REC_START	n/a	n/a	n/a	-999	5	[0, 0, 0]	n/a	FR1	1	R1311T
650.549	1.298	1050011	REC_WORD	1.298	n/a	AXE	1	5	[0, 0, 0]	n/a	FR1	1	R1311T
651.847	26.489	1051309	REC_WORD	26.489	n/a	CLOTH	2	5	[0, 0, 0]	n/a	FR1	1	R1311T
678.336	2.657	1077796	REC_END	n/a	n/a	n/a	-999	5	[0, 0, 0]	n/a	FR1	1	R1311T
680.993	0.001	1080453	COUNTDOWN_START	n/a	n/a	n/a	-999	6	[0, 0, 0]	n/a	FR1	1	R1311T
680.994	10.427	1080454	TRIAL	n/a	n/a	n/a	-999	6	[0, 0, 0]	n/a	FR1	1	R1311T
691.421	0.008	1090881	COUNTDOWN_END	n/a	n/a	n/a	-999	6	[0, 0, 0]	n/a	FR1	1	R1311T
691.429	2.483	1090889	ORIENT	n/a	n/a	n/a	-999	6	[0, 0, 0]	n/a	FR1	1	R1311T
693.912	2.568	1093371	WORD	n/a	wordpools/wordpool_EN.txt	PIT	1	6	[0, 0, 0]	n/a	FR1	1	R1311T
696.48	2.517	1095939	WORD	n/a	wordpools/wordpool_EN.txt	PEACH	2	6	[0, 0, 0]	n/a	FR1	1	R1311T
698.997	2.584	1098456	WORD	n/a	wordpools/wordpool_EN.txt	FLUTE	3	6	[0, 0, 0]	n/a	FR1	1	R1311T
701.581	2.583	1101040	WORD	n/a	wordpools/wordpool_EN.txt	CORN	4	6	[0, 0, 0]	n/a	FR1	1	R1311T
704.164	2.384	1103623	WORD	n/a	wordpools/wordpool_EN.txt	JUDGE	5	6	[0, 0, 0]	n/a	FR1	1	R1311T
706.548	2.434	1106007	WORD	n/a	wordpools/wordpool_EN.txt	CART	6	6	[0, 0, 0]	n/a	FR1	1	R1311T
708.982	2.467	1108441	WORD	n/a	wordpools/wordpool_EN.txt	TREE	7	6	[0, 0, 0]	n/a	FR1	1	R1311T
711.449	2.567	1110907	WORD	n/a	wordpools/wordpool_EN.txt	ROOM	8	6	[0, 0, 0]	n/a	FR1	1	R1311T
714.016	2.484	1113474	WORD	n/a	wordpools/wordpool_EN.txt	STREET	9	6	[0, 0, 0]	n/a	FR1	1	R1311T
716.5	2.434	1115958	WORD	n/a	wordpools/wordpool_EN.txt	BENCH	10	6	[0, 0, 0]	n/a	FR1	1	R1311T
718.934	2.383	1118392	WORD	n/a	wordpools/wordpool_EN.txt	BOWL	11	6	[0, 0, 0]	n/a	FR1	1	R1311T
721.317	1.617	1120775	WORD	n/a	wordpools/wordpool_EN.txt	FRUIT	12	6	[0, 0, 0]	n/a	FR1	1	R1311T
722.934	0.001	1122392	DISTRACT_START	n/a	n/a	n/a	-999	6	[0, 0, 0]	n/a	FR1	1	R1311T
722.935	0.016	1122393	START	n/a	n/a	n/a	-999	6	[-999, -999, -999]	n/a	FR1	1	R1311T
722.951	4.234	1122409	PROB	4.234	n/a	n/a	-999	6	[1, 9, 1]	11	FR1	1	R1311T
727.185	37.916	1126643	PROB	37.916	n/a	n/a	-999	6	[7, 9, 7]	23	FR1	1	R1311T
765.101	0.008	1164556	STOP	n/a	n/a	n/a	-999	6	[-999, -999, -999]	n/a	FR1	1	R1311T
765.109	1.134	1164564	DISTRACT_END	n/a	n/a	n/a	-999	6	[0, 0, 0]	n/a	FR1	1	R1311T
766.243	9.391	1165698	REC_START	n/a	n/a	n/a	-999	6	[0, 0, 0]	n/a	FR1	1	R1311T
775.634	0.335	1175089	REC_WORD_VV	0.335	n/a	<>	-999	6	[0, 0, 0]	n/a	FR1	1	R1311T
775.969	1.24	1175424	REC_WORD	1.24	n/a	CUP	-999	6	[0, 0, 0]	n/a	FR1	1	R1311T
777.209	19.044	1176664	REC_WORD	19.044	n/a	BOWL	11	6	[0, 0, 0]	n/a	FR1	1	R1311T
796.253	4.229	1195707	REC_END	n/a	n/a	n/a	-999	6	[0, 0, 0]	n/a	FR1	1	R1311T
800.482	0.0	1199935	TRIAL	n/a	n/a	n/a	-999	7	[0, 0, 0]	n/a	FR1	1	R1311T
800.482	10.428	1199935	COUNTDOWN_START	n/a	n/a	n/a	-999	7	[0, 0, 0]	n/a	FR1	1	R1311T
810.91	0.007	1210363	COUNTDOWN_END	n/a	n/a	n/a	-999	7	[0, 0, 0]	n/a	FR1	1	R1311T
810.917	2.601	1210370	ORIENT	n/a	n/a	n/a	-999	7	[0, 0, 0]	n/a	FR1	1	R1311T
813.518	2.583	1212971	WORD	n/a	wordpools/wordpool_EN.txt	SQUARE	1	7	[0, 0, 0]	n/a	FR1	1	R1311T
816.101	2.484	1215553	WORD	n/a	wordpools/wordpool_EN.txt	BRICK	2	7	[0, 0, 0]	n/a	FR1	1	R1311T
818.585	2.584	1218037	WORD	n/a	wordpools/wordpool_EN.txt	SMOKE	3	7	[0, 0, 0]	n/a	FR1	1	R1311T
821.169	2.567	1220621	WORD	n/a	wordpools/wordpool_EN.txt	NAIL	4	7	[0, 0, 0]	n/a	FR1	1	R1311T
823.736	2.45	1223188	WORD	n/a	wordpools/wordpool_EN.txt	PIN	5	7	[0, 0, 0]	n/a	FR1	1	R1311T
826.186	2.634	1225638	WORD	n/a	wordpools/wordpool_EN.txt	VEST	6	7	[0, 0, 0]	n/a	FR1	1	R1311T
828.82	2.584	1228272	WORD	n/a	wordpools/wordpool_EN.txt	WHALE	7	7	[0, 0, 0]	n/a	FR1	1	R1311T
831.404	2.55	1230856	WORD	n/a	wordpools/wordpool_EN.txt	SNOW	8	7	[0, 0, 0]	n/a	FR1	1	R1311T
833.954	2.568	1233405	WORD	n/a	wordpools/wordpool_EN.txt	FLAME	9	7	[0, 0, 0]	n/a	FR1	1	R1311T
836.522	2.6	1235973	WORD	n/a	wordpools/wordpool_EN.txt	DOCK	10	7	[0, 0, 0]	n/a	FR1	1	R1311T
839.122	2.451	1238573	WORD	n/a	wordpools/wordpool_EN.txt	STORM	11	7	[0, 0, 0]	n/a	FR1	1	R1311T
841.573	1.617	1241024	WORD	n/a	wordpools/wordpool_EN.txt	LAKE	12	7	[0, 0, 0]	n/a	FR1	1	R1311T
843.19	0.0	1242641	DISTRACT_START	n/a	n/a	n/a	-999	7	[0, 0, 0]	n/a	FR1	1	R1311T
843.19	0.016	1242641	START	n/a	n/a	n/a	-999	7	[-999, -999, -999]	n/a	FR1	1	R1311T
843.206	11.452	1242657	PROB	11.452	n/a	n/a	-999	7	[2, 6, 1]	9	FR1	1	R1311T
854.658	19.275	1254108	PROB	19.275	n/a	n/a	-999	7	[8, 2, 4]	14	FR1	1	R1311T
873.933	0.012	1273382	STOP	n/a	n/a	n/a	-999	7	[-999, -999, -999]	n/a	FR1	1	R1311T
873.945	1.101	1273394	DISTRACT_END	n/a	n/a	n/a	-999	7	[0, 0, 0]	n/a	FR1	1	R1311T
875.046	29.994	1274495	REC_START	n/a	n/a	n/a	-999	7	[0, 0, 0]	n/a	FR1	1	R1311T
905.04	0.017	1304487	REC_WORD_VV	0.017	n/a	<>	-999	7	[0, 0, 0]	n/a	FR1	1	R1311T
905.057	2.378	1304504	REC_END	n/a	n/a	n/a	-999	7	[0, 0, 0]	n/a	FR1	1	R1311T
907.435	0.0	1306882	COUNTDOWN_START	n/a	n/a	n/a	-999	8	[0, 0, 0]	n/a	FR1	1	R1311T
907.435	10.428	1306882	TRIAL	n/a	n/a	n/a	-999	8	[0, 0, 0]	n/a	FR1	1	R1311T
917.863	0.007	1317310	COUNTDOWN_END	n/a	n/a	n/a	-999	8	[0, 0, 0]	n/a	FR1	1	R1311T
917.87	2.634	1317317	ORIENT	n/a	n/a	n/a	-999	8	[0, 0, 0]	n/a	FR1	1	R1311T
920.504	2.567	1319951	WORD	n/a	wordpools/wordpool_EN.txt	CROW	1	8	[0, 0, 0]	n/a	FR1	1	R1311T
923.071	2.617	1322517	WORD	n/a	wordpools/wordpool_EN.txt	ROOT	2	8	[0, 0, 0]	n/a	FR1	1	R1311T
925.688	2.517	1325134	WORD	n/a	wordpools/wordpool_EN.txt	PLANT	3	8	[0, 0, 0]	n/a	FR1	1	R1311T
928.205	2.467	1327651	WORD	n/a	wordpools/wordpool_EN.txt	CHIEF	4	8	[0, 0, 0]	n/a	FR1	1	R1311T
930.672	2.551	1330118	WORD	n/a	wordpools/wordpool_EN.txt	TEETH	5	8	[0, 0, 0]	n/a	FR1	1	R1311T
933.223	2.45	1332669	WORD	n/a	wordpools/wordpool_EN.txt	SHIELD	6	8	[0, 0, 0]	n/a	FR1	1	R1311T
935.673	2.384	1335119	WORD	n/a	wordpools/wordpool_EN.txt	CAVE	7	8	[0, 0, 0]	n/a	FR1	1	R1311T
938.057	2.55	1337503	WORD	n/a	wordpools/wordpool_EN.txt	WEED	8	8	[0, 0, 0]	n/a	FR1	1	R1311T
940.607	2.601	1340052	WORD	n/a	wordpools/wordpool_EN.txt	BRUSH	9	8	[0, 0, 0]	n/a	FR1	1	R1311T
943.208	2.567	1342653	WORD	n/a	wordpools/wordpool_EN.txt	PASTE	10	8	[0, 0, 0]	n/a	FR1	1	R1311T
945.775	2.4	1345220	WORD	n/a	wordpools/wordpool_EN.txt	SEAL	11	8	[0, 0, 0]	n/a	FR1	1	R1311T
948.175	1.617	1347620	WORD	n/a	wordpools/wordpool_EN.txt	FOAM	12	8	[0, 0, 0]	n/a	FR1	1	R1311T
949.792	0.001	1349237	DISTRACT_START	n/a	n/a	n/a	-999	8	[0, 0, 0]	n/a	FR1	1	R1311T
949.793	0.016	1349238	START	n/a	n/a	n/a	-999	8	[-999, -999, -999]	n/a	FR1	1	R1311T
949.809	4.717	1349254	PROB	4.717	n/a	n/a	-999	8	[1, 9, 3]	13	FR1	1	R1311T
954.526	18.207	1353971	PROB	18.207	n/a	n/a	-999	8	[9, 3, 3]	15	FR1	1	R1311T
972.733	0.013	1372177	STOP	n/a	n/a	n/a	-999	8	[-999, -999, -999]	n/a	FR1	1	R1311T
972.746	1.101	1372190	DISTRACT_END	n/a	n/a	n/a	-999	8	[0, 0, 0]	n/a	FR1	1	R1311T
973.847	3.738	1373290	REC_START	n/a	n/a	n/a	-999	8	[0, 0, 0]	n/a	FR1	1	R1311T
977.585	26.278	1377028	REC_WORD	26.278	n/a	PASTE	10	8	[0, 0, 0]	n/a	FR1	1	R1311T
1003.863	7.907	1403305	REC_END	n/a	n/a	n/a	-999	8	[0, 0, 0]	n/a	FR1	1	R1311T
1011.77	0.0	1411211	TRIAL	n/a	n/a	n/a	-999	9	[0, 0, 0]	n/a	FR1	1	R1311T
1011.77	10.428	1411211	COUNTDOWN_START	n/a	n/a	n/a	-999	9	[0, 0, 0]	n/a	FR1	1	R1311T
1022.198	0.007	1421639	COUNTDOWN_END	n/a	n/a	n/a	-999	9	[0, 0, 0]	n/a	FR1	1	R1311T
1022.205	2.551	1421646	ORIENT	n/a	n/a	n/a	-999	9	[0, 0, 0]	n/a	FR1	1	R1311T
1024.756	2.567	1424197	WORD	n/a	wordpools/wordpool_EN.txt	INK	1	9	[0, 0, 0]	n/a	FR1	1	R1311T
1027.323	2.584	1426763	WORD	n/a	wordpools/wordpool_EN.txt	FENCE	2	9	[0, 0, 0]	n/a	FR1	1	R1311T
1029.907	2.55	1429347	WORD	n/a	wordpools/wordpool_EN.txt	TRAY	3	9	[0, 0, 0]	n/a	FR1	1	R1311T
1032.457	2.467	1431897	WORD	n/a	wordpools/wordpool_EN.txt	STICK	4	9	[0, 0, 0]	n/a	FR1	1	R1311T
1034.924	2.401	1434364	WORD	n/a	wordpools/wordpool_EN.txt	STAIR	5	9	[0, 0, 0]	n/a	FR1	1	R1311T
1037.325	2.517	1436765	WORD	n/a	wordpools/wordpool_EN.txt	SHEEP	6	9	[0, 0, 0]	n/a	FR1	1	R1311T
1039.842	2.6	1439282	WORD	n/a	wordpools/wordpool_EN.txt	MUG	7	9	[0, 0, 0]	n/a	FR1	1	R1311T
1042.442	2.401	1441882	WORD	n/a	wordpools/wordpool_EN.txt	SHARK	8	9	[0, 0, 0]	n/a	FR1	1	R1311T
1044.843	2.517	1444282	WORD	n/a	wordpools/wordpool_EN.txt	ROSE	9	9	[0, 0, 0]	n/a	FR1	1	R1311T
1047.36	2.617	1446799	WORD	n/a	wordpools/wordpool_EN.txt	CANE	10	9	[0, 0, 0]	n/a	FR1	1	R1311T
1049.977	2.401	1449416	WORD	n/a	wordpools/wordpool_EN.txt	BARN	11	9	[0, 0, 0]	n/a	FR1	1	R1311T
1052.378	1.617	1451817	WORD	n/a	wordpools/wordpool_EN.txt	PEN	12	9	[0, 0, 0]	n/a	FR1	1	R1311T
1053.995	0.0	1453434	DISTRACT_START	n/a	n/a	n/a	-999	9	[0, 0, 0]	n/a	FR1	1	R1311T
1053.995	0.016	1453434	START	n/a	n/a	n/a	-999	9	[-999, -999, -999]	n/a	FR1	1	R1311T
1054.011	26.45	1453450	PROB	26.45	n/a	n/a	-999	9	[5, 3, 8]	17	FR1	1	R1311T
1080.461	0.005	1479898	STOP	n/a	n/a	n/a	-999	9	[-999, -999, -999]	n/a	FR1	1	R1311T
1080.466	1.134	1479903	DISTRACT_END	n/a	n/a	n/a	-999	9	[0, 0, 0]	n/a	FR1	1	R1311T
1081.6	2.485	1481037	REC_START	n/a	n/a	n/a	-999	9	[0, 0, 0]	n/a	FR1	1	R1311T
1084.085	1.397	1483522	REC_WORD	1.397	n/a	INK	1	9	[0, 0, 0]	n/a	FR1	1	R1311T
1085.482	1.116	1484919	REC_WORD	1.116	n/a	FENCE	2	9	[0, 0, 0]	n/a	FR1	1	R1311T
1086.598	1.137	1486035	REC_WORD	1.137	n/a	TRAY	3	9	[0, 0, 0]	n/a	FR1	1	R1311T
1087.735	23.876	1487172	REC_WORD	23.876	n/a	STICK	4	9	[0, 0, 0]	n/a	FR1	1	R1311T
1111.611	8.912	1511047	REC_END	n/a	n/a	n/a	-999	9	[0, 0, 0]	n/a	FR1	1	R1311T
1120.523	0.0	1519958	TRIAL	n/a	n/a	n/a	-999	10	[0, 0, 0]	n/a	FR1	1	R1311T
1120.523	10.428	1519958	COUNTDOWN_START	n/a	n/a	n/a	-999	10	[0, 0, 0]	n/a	FR1	1	R1311T
1130.951	0.008	1530386	COUNTDOWN_END	n/a	n/a	n/a	-999	10	[0, 0, 0]	n/a	FR1	1	R1311T
1130.959	2.45	1530394	ORIENT	n/a	n/a	n/a	-999	10	[0, 0, 0]	n/a	FR1	1	R1311T
1133.409	2.6	1532843	WORD	n/a	wordpools/wordpool_EN.txt	JEEP	1	10	[0, 0, 0]	n/a	FR1	1	R1311T
1136.009	2.551	1535443	WORD	n/a	wordpools/wordpool_EN.txt	MOUTH	2	10	[0, 0, 0]	n/a	FR1	1	R1311T
1138.56	2.4	1537994	WORD	n/a	wordpools/wordpool_EN.txt	OAK	3	10	[0, 0, 0]	n/a	FR1	1	R1311T
1140.96	2.417	1540394	WORD	n/a	wordpools/wordpool_EN.txt	CUBE	4	10	[0, 0, 0]	n/a	FR1	1	R1311T
1143.377	2.401	1542811	WORD	n/a	wordpools/wordpool_EN.txt	RAKE	5	10	[0, 0, 0]	n/a	FR1	1	R1311T
1145.778	2.5	1545212	WORD	n/a	wordpools/wordpool_EN.txt	TENT	6	10	[0, 0, 0]	n/a	FR1	1	R1311T
1148.278	2.467	1547712	WORD	n/a	wordpools/wordpool_EN.txt	PET	7	10	[0, 0, 0]	n/a	FR1	1	R1311T
1150.745	2.467	1550178	WORD	n/a	wordpools/wordpool_EN.txt	TRAIN	8	10	[0, 0, 0]	n/a	FR1	1	R1311T
1153.212	2.518	1552645	WORD	n/a	wordpools/wordpool_EN.txt	HAT	9	10	[0, 0, 0]	n/a	FR1	1	R1311T
1155.73	2.6	1555163	WORD	n/a	wordpools/wordpool_EN.txt	CAPE	10	10	[0, 0, 0]	n/a	FR1	1	R1311T
1158.33	2.567	1557763	WORD	n/a	wordpools/wordpool_EN.txt	CAT	11	10	[0, 0, 0]	n/a	FR1	1	R1311T
1160.897	1.617	1560330	WORD	n/a	wordpools/wordpool_EN.txt	COW	12	10	[0, 0, 0]	n/a	FR1	1	R1311T
1162.514	0.001	1561947	DISTRACT_START	n/a	n/a	n/a	-999	10	[0, 0, 0]	n/a	FR1	1	R1311T
1162.515	0.016	1561948	START	n/a	n/a	n/a	-999	10	[-999, -999, -999]	n/a	FR1	1	R1311T
1162.531	6.718	1561964	PROB	6.718	n/a	n/a	-999	10	[7, 1, 1]	9	FR1	1	R1311T
1169.249	10.868	1568681	PROB	10.868	n/a	n/a	-999	10	[3, 1, 2]	6	FR1	1	R1311T
1180.117	16.704	1579549	PROB	16.704	n/a	n/a	-999	10	[9, 7, 6]	22	FR1	1	R1311T
1196.821	0.016	1596252	STOP	n/a	n/a	n/a	-999	10	[-999, -999, -999]	n/a	FR1	1	R1311T
1196.837	1.069	1596268	DISTRACT_END	n/a	n/a	n/a	-999	10	[0, 0, 0]	n/a	FR1	1	R1311T
1197.906	2.939	1597337	REC_START	n/a	n/a	n/a	-999	10	[0, 0, 0]	n/a	FR1	1	R1311T
1200.845	1.001	1600276	REC_WORD	1.001	n/a	CAPE	10	10	[0, 0, 0]	n/a	FR1	1	R1311T
1201.846	1.143	1601276	REC_WORD	1.143	n/a	CAT	11	10	[0, 0, 0]	n/a	FR1	1	R1311T
1202.989	24.927	1602419	REC_WORD	24.927	n/a	COW	12	10	[0, 0, 0]	n/a	FR1	1	R1311T
1227.916	50.719	1627345	REC_END	n/a	n/a	n/a	-999	10	[0, 0, 0]	n/a	FR1	1	R1311T
1278.635	0.001	1678061	COUNTDOWN_START	n/a	n/a	n/a	-999	11	[0, 0, 0]	n/a	FR1	1	R1311T
1278.636	10.427	1678062	TRIAL	n/a	n/a	n/a	-999	11	[0, 0, 0]	n/a	FR1	1	R1311T
1289.063	0.008	1688489	COUNTDOWN_END	n/a	n/a	n/a	-999	11	[0, 0, 0]	n/a	FR1	1	R1311T
1289.071	2.5	1688497	ORIENT	n/a	n/a	n/a	-999	11	[0, 0, 0]	n/a	FR1	1	R1311T
1291.571	2.551	1690996	WORD	n/a	wordpools/wordpool_EN.txt	FORK	1	11	[0, 0, 0]	n/a	FR1	1	R1311T
1294.122	2.6	1693547	WORD	n/a	wordpools/wordpool_EN.txt	BANK	2	11	[0, 0, 0]	n/a	FR1	1	R1311T
1296.722	2.6	1696147	WORD	n/a	wordpools/wordpool_EN.txt	SLEEVE	3	11	[0, 0, 0]	n/a	FR1	1	R1311T
1299.322	2.501	1698747	WORD	n/a	wordpools/wordpool_EN.txt	WAND	4	11	[0, 0, 0]	n/a	FR1	1	R1311T
1301.823	2.584	1701248	WORD	n/a	wordpools/wordpool_EN.txt	TOE	5	11	[0, 0, 0]	n/a	FR1	1	R1311T
1304.407	2.4	1703832	WORD	n/a	wordpools/wordpool_EN.txt	COUCH	6	11	[0, 0, 0]	n/a	FR1	1	R1311T
1306.807	2.517	1706232	WORD	n/a	wordpools/wordpool_EN.txt	GATE	7	11	[0, 0, 0]	n/a	FR1	1	R1311T
1309.324	2.534	1708748	WORD	n/a	wordpools/wordpool_EN.txt	STRING	8	11	[0, 0, 0]	n/a	FR1	1	R1311T
1311.858	2.517	1711282	WORD	n/a	wordpools/wordpool_EN.txt	VINE	9	11	[0, 0, 0]	n/a	FR1	1	R1311T
1314.375	2.467	1713799	WORD	n/a	wordpools/wordpool_EN.txt	SPEAR	10	11	[0, 0, 0]	n/a	FR1	1	R1311T
1316.842	2.551	1716266	WORD	n/a	wordpools/wordpool_EN.txt	TIE	11	11	[0, 0, 0]	n/a	FR1	1	R1311T
1319.393	1.617	1718817	WORD	n/a	wordpools/wordpool_EN.txt	PALM	12	11	[0, 0, 0]	n/a	FR1	1	R1311T
1321.01	0.001	1720434	DISTRACT_START	n/a	n/a	n/a	-999	11	[0, 0, 0]	n/a	FR1	1	R1311T
1321.011	0.015	1720435	START	n/a	n/a	n/a	-999	11	[-999, -999, -999]	n/a	FR1	1	R1311T
1321.026	26.243	1720450	PROB	26.243	n/a	n/a	-999	11	[2, 5, 8]	16	FR1	1	R1311T
1347.269	0.012	1746691	STOP	n/a	n/a	n/a	-999	11	[-999, -999, -999]	n/a	FR1	1	R1311T
1347.281	1.119	1746703	DISTRACT_END	n/a	n/a	n/a	-999	11	[0, 0, 0]	n/a	FR1	1	R1311T
1348.4	1.945	1747822	REC_START	n/a	n/a	n/a	-999	11	[0, 0, 0]	n/a	FR1	1	R1311T
1350.345	1.183	1749767	REC_WORD	1.183	n/a	SPEAR	10	11	[0, 0, 0]	n/a	FR1	1	R1311T
1351.528	1.044	1750950	REC_WORD	1.044	n/a	PALM	12	11	[0, 0, 0]	n/a	FR1	1	R1311T
1352.572	25.838	1751994	REC_WORD	25.838	n/a	TIE	11	11	[0, 0, 0]	n/a	FR1	1	R1311T
1378.41	12.379	1777830	REC_END	n/a	n/a	n/a	-999	11	[0, 0, 0]	n/a	FR1	1	R1311T
1390.789	0.0	1790209	TRIAL	n/a	n/a	n/a	-999	12	[0, 0, 0]	n/a	FR1	1	R1311T
1390.789	10.428	1790209	COUNTDOWN_START	n/a	n/a	n/a	-999	12	[0, 0, 0]	n/a	FR1	1	R1311T
1401.217	0.007	1800636	COUNTDOWN_END	n/a	n/a	n/a	-999	12	[0, 0, 0]	n/a	FR1	1	R1311T
1401.224	2.417	1800643	ORIENT	n/a	n/a	n/a	-999	12	[0, 0, 0]	n/a	FR1	1	R1311T
1403.641	2.484	1803060	WORD	n/a	wordpools/wordpool_EN.txt	JUICE	1	12	[0, 0, 0]	n/a	FR1	1	R1311T
1406.125	2.551	1805544	WORD	n/a	wordpools/wordpool_EN.txt	DIME	2	12	[0, 0, 0]	n/a	FR1	1	R1311T
1408.676	2.467	1808095	WORD	n/a	wordpools/wordpool_EN.txt	BLUSH	3	12	[0, 0, 0]	n/a	FR1	1	R1311T
1411.143	2.534	1810562	WORD	n/a	wordpools/wordpool_EN.txt	DITCH	4	12	[0, 0, 0]	n/a	FR1	1	R1311T
1413.677	2.55	1813095	WORD	n/a	wordpools/wordpool_EN.txt	HOLE	5	12	[0, 0, 0]	n/a	FR1	1	R1311T
1416.227	2.551	1815645	WORD	n/a	wordpools/wordpool_EN.txt	STOVE	6	12	[0, 0, 0]	n/a	FR1	1	R1311T
1418.778	2.45	1818196	WORD	n/a	wordpools/wordpool_EN.txt	CAKE	7	12	[0, 0, 0]	n/a	FR1	1	R1311T
1421.228	2.417	1820646	WORD	n/a	wordpools/wordpool_EN.txt	BATH	8	12	[0, 0, 0]	n/a	FR1	1	R1311T
1423.645	2.634	1823063	WORD	n/a	wordpools/wordpool_EN.txt	GLOVE	9	12	[0, 0, 0]	n/a	FR1	1	R1311T
1426.279	2.617	1825697	WORD	n/a	wordpools/wordpool_EN.txt	SOAP	10	12	[0, 0, 0]	n/a	FR1	1	R1311T
1428.896	2.434	1828314	WORD	n/a	wordpools/wordpool_EN.txt	SOCK	11	12	[0, 0, 0]	n/a	FR1	1	R1311T
1431.33	1.617	1830747	WORD	n/a	wordpools/wordpool_EN.txt	CHALK	12	12	[0, 0, 0]	n/a	FR1	1	R1311T
1432.947	0.0	1832364	DISTRACT_START	n/a	n/a	n/a	-999	12	[0, 0, 0]	n/a	FR1	1	R1311T
1432.947	0.016	1832364	START	n/a	n/a	n/a	-999	12	[-999, -999, -999]	n/a	FR1	1	R1311T
1432.963	13.72	1832380	PROB	13.72	n/a	n/a	-999	12	[4, 2, 3]	9	FR1	1	R1311T
1446.683	20.154	1846100	PROB	20.154	n/a	n/a	-999	12	[3, 4, 3]	10	FR1	1	R1311T
1466.837	0.016	1866252	STOP	n/a	n/a	n/a	-999	12	[-999, -999, -999]	n/a	FR1	1	R1311T
1466.853	1.117	1866268	DISTRACT_END	n/a	n/a	n/a	-999	12	[0, 0, 0]	n/a	FR1	1	R1311T
1467.97	5.991	1867385	REC_START	n/a	n/a	n/a	-999	12	[0, 0, 0]	n/a	FR1	1	R1311T
1473.961	0.453	1873376	REC_WORD_VV	0.453	n/a	<>	-999	12	[0, 0, 0]	n/a	FR1	1	R1311T
1474.414	2.678	1873829	REC_WORD	2.678	n/a	JUICE	1	12	[0, 0, 0]	n/a	FR1	1	R1311T
1477.092	1.111	1876507	REC_WORD	1.111	n/a	BLUSH	3	12	[0, 0, 0]	n/a	FR1	1	R1311T
1478.203	1.628	1877618	REC_WORD	1.628	n/a	DIME	2	12	[0, 0, 0]	n/a	FR1	1	R1311T
1479.831	18.155	1879246	REC_WORD	18.155	n/a	DITCH	4	12	[0, 0, 0]	n/a	FR1	1	R1311T
1497.986	3.356	1897400	REC_END	n/a	n/a	n/a	-999	12	[0, 0, 0]	n/a	FR1	1	R1311T
1501.342	0.001	1900755	COUNTDOWN_START	n/a	n/a	n/a	-999	13	[0, 0, 0]	n/a	FR1	1	R1311T
1501.343	10.427	1900756	TRIAL	n/a	n/a	n/a	-999	13	[0, 0, 0]	n/a	FR1	1	R1311T
1511.77	0.008	1911183	COUNTDOWN_END	n/a	n/a	n/a	-999	13	[0, 0, 0]	n/a	FR1	1	R1311T
1511.778	2.533	1911191	ORIENT	n/a	n/a	n/a	-999	13	[0, 0, 0]	n/a	FR1	1	R1311T
1514.311	2.534	1913724	WORD	n/a	wordpools/wordpool_EN.txt	DOG	1	13	[0, 0, 0]	n/a	FR1	1	R1311T
1516.845	2.601	1916258	WORD	n/a	wordpools/wordpool_EN.txt	PEAR	2	13	[0, 0, 0]	n/a	FR1	1	R1311T
1519.446	2.567	1918858	WORD	n/a	wordpools/wordpool_EN.txt	BREAD	3	13	[0, 0, 0]	n/a	FR1	1	R1311T
1522.013	2.484	1921425	WORD	n/a	wordpools/wordpool_EN.txt	TAIL	4	13	[0, 0, 0]	n/a	FR1	1	R1311T
1524.497	2.517	1923909	WORD	n/a	wordpools/wordpool_EN.txt	BRANCH	5	13	[0, 0, 0]	n/a	FR1	1	R1311T
1527.014	2.484	1926426	WORD	n/a	wordpools/wordpool_EN.txt	BEAN	6	13	[0, 0, 0]	n/a	FR1	1	R1311T
1529.498	2.417	1928910	WORD	n/a	wordpools/wordpool_EN.txt	BLOOM	7	13	[0, 0, 0]	n/a	FR1	1	R1311T
1531.915	2.517	1931327	WORD	n/a	wordpools/wordpool_EN.txt	FOOD	8	13	[0, 0, 0]	n/a	FR1	1	R1311T
1534.432	2.383	1933844	WORD	n/a	wordpools/wordpool_EN.txt	LAWN	9	13	[0, 0, 0]	n/a	FR1	1	R1311T
1536.815	2.401	1936226	WORD	n/a	wordpools/wordpool_EN.txt	RICE	10	13	[0, 0, 0]	n/a	FR1	1	R1311T
1539.216	2.55	1938627	WORD	n/a	wordpools/wordpool_EN.txt	EEL	11	13	[0, 0, 0]	n/a	FR1	1	R1311T
1541.766	1.617	1941177	WORD	n/a	wordpools/wordpool_EN.txt	MOTH	12	13	[0, 0, 0]	n/a	FR1	1	R1311T
1543.383	0.001	1942794	DISTRACT_START	n/a	n/a	n/a	-999	13	[0, 0, 0]	n/a	FR1	1	R1311T
1543.384	0.016	1942795	START	n/a	n/a	n/a	-999	13	[-999, -999, -999]	n/a	FR1	1	R1311T
1543.4	14.436	1942811	PROB	14.436	n/a	n/a	-999	13	[9, 8, 2]	19	FR1	1	R1311T
1557.836	13.594	1957246	PROB	13.594	n/a	n/a	-999	13	[2, 1, 2]	5	FR1	1	R1311T
1571.43	0.008	1970839	STOP	n/a	n/a	n/a	-999	13	[-999, -999, -999]	n/a	FR1	1	R1311T
1571.438	1.068	1970847	DISTRACT_END	n/a	n/a	n/a	-999	13	[0, 0, 0]	n/a	FR1	1	R1311T
1572.506	1.98	1971915	REC_START	n/a	n/a	n/a	-999	13	[0, 0, 0]	n/a	FR1	1	R1311T
1574.486	13.828	1973895	REC_WORD_VV	13.828	n/a	<>	-999	13	[0, 0, 0]	n/a	FR1	1	R1311T
1588.314	3.939	1987722	REC_WORD	3.939	n/a	BLOOM	7	13	[0, 0, 0]	n/a	FR1	1	R1311T
1592.253	2.169	1991661	REC_WORD	2.169	n/a	RICE	10	13	[0, 0, 0]	n/a	FR1	1	R1311T
1594.422	2.159	1993830	REC_WORD	2.159	n/a	EEL	11	13	[0, 0, 0]	n/a	FR1	1	R1311T
1596.581	5.935	1995989	REC_WORD	5.935	n/a	LAWN	9	13	[0, 0, 0]	n/a	FR1	1	R1311T
1602.516	303.583	2001924	REC_END	n/a	n/a	n/a	-999	13	[0, 0, 0]	n/a	FR1	1	R1311T
1906.099	0.0	2305489	COUNTDOWN_START	n/a	n/a	n/a	-999	14	[0, 0, 0]	n/a	FR1	1	R1311T
1906.099	10.428	2305489	TRIAL	n/a	n/a	n/a	-999	14	[0, 0, 0]	n/a	FR1	1	R1311T
1916.527	0.007	2315917	COUNTDOWN_END	n/a	n/a	n/a	-999	14	[0, 0, 0]	n/a	FR1	1	R1311T
1916.534	2.401	2315924	ORIENT	n/a	n/a	n/a	-999	14	[0, 0, 0]	n/a	FR1	1	R1311T
1918.935	2.584	2318325	WORD	n/a	wordpools/wordpool_EN.txt	STEM	1	14	[0, 0, 0]	n/a	FR1	1	R1311T
1921.519	2.417	2320908	WORD	n/a	wordpools/wordpool_EN.txt	MOON	2	14	[0, 0, 0]	n/a	FR1	1	R1311T
1923.936	2.617	2323325	WORD	n/a	wordpools/wordpool_EN.txt	EGG	3	14	[0, 0, 0]	n/a	FR1	1	R1311T
1926.553	2.467	2325942	WORD	n/a	wordpools/wordpool_EN.txt	TOAD	4	14	[0, 0, 0]	n/a	FR1	1	R1311T
1929.02	2.534	2328409	WORD	n/a	wordpools/wordpool_EN.txt	LEAF	5	14	[0, 0, 0]	n/a	FR1	1	R1311T
1931.554	2.534	2330943	WORD	n/a	wordpools/wordpool_EN.txt	HORSE	6	14	[0, 0, 0]	n/a	FR1	1	R1311T
1934.088	2.584	2333477	WORD	n/a	wordpools/wordpool_EN.txt	CASH	7	14	[0, 0, 0]	n/a	FR1	1	R1311T
1936.672	2.5	2336061	WORD	n/a	wordpools/wordpool_EN.txt	POLE	8	14	[0, 0, 0]	n/a	FR1	1	R1311T
1939.172	2.467	2338560	WORD	n/a	wordpools/wordpool_EN.txt	CORD	9	14	[0, 0, 0]	n/a	FR1	1	R1311T
1941.639	2.601	2341027	WORD	n/a	wordpools/wordpool_EN.txt	BOOK	10	14	[0, 0, 0]	n/a	FR1	1	R1311T
1944.24	2.433	2343628	WORD	n/a	wordpools/wordpool_EN.txt	FUDGE	11	14	[0, 0, 0]	n/a	FR1	1	R1311T
1946.673	1.617	2346061	WORD	n/a	wordpools/wordpool_EN.txt	SEED	12	14	[0, 0, 0]	n/a	FR1	1	R1311T
1948.29	0.001	2347678	DISTRACT_START	n/a	n/a	n/a	-999	14	[0, 0, 0]	n/a	FR1	1	R1311T
1948.291	0.016	2347679	START	n/a	n/a	n/a	-999	14	[-999, -999, -999]	n/a	FR1	1	R1311T
1948.307	11.352	2347695	PROB	11.352	n/a	n/a	-999	14	[5, 3, 6]	14	FR1	1	R1311T
1959.659	27.658	2359046	PROB	27.658	n/a	n/a	-999	14	[7, 6, 8]	21	FR1	1	R1311T
1987.317	0.014	2386703	STOP	n/a	n/a	n/a	-999	14	[-999, -999, -999]	n/a	FR1	1	R1311T
1987.331	1.101	2386717	DISTRACT_END	n/a	n/a	n/a	-999	14	[0, 0, 0]	n/a	FR1	1	R1311T
1988.432	4.38	2387818	REC_START	n/a	n/a	n/a	-999	14	[0, 0, 0]	n/a	FR1	1	R1311T
1992.812	1.52	2392197	REC_WORD	1.52	n/a	STEM	1	14	[0, 0, 0]	n/a	FR1	1	R1311T
1994.332	2.213	2393717	REC_WORD	2.213	n/a	MOON	2	14	[0, 0, 0]	n/a	FR1	1	R1311T
1996.545	21.896	2395930	REC_WORD	21.896	n/a	TOAD	4	14	[0, 0, 0]	n/a	FR1	1	R1311T
2018.441	6.18	2417825	REC_END	n/a	n/a	n/a	-999	14	[0, 0, 0]	n/a	FR1	1	R1311T
2024.621	0.0	2424005	COUNTDOWN_START	n/a	n/a	n/a	-999	15	[0, 0, 0]	n/a	FR1	1	R1311T
2024.621	10.428	2424005	TRIAL	n/a	n/a	n/a	-999	15	[0, 0, 0]	n/a	FR1	1	R1311T
2035.049	0.007	2434432	COUNTDOWN_END	n/a	n/a	n/a	-999	15	[0, 0, 0]	n/a	FR1	1	R1311T
2035.056	2.4	2434439	ORIENT	n/a	n/a	n/a	-999	15	[0, 0, 0]	n/a	FR1	1	R1311T
2037.456	2.418	2436839	WORD	n/a	wordpools/wordpool_EN.txt	STAR	1	15	[0, 0, 0]	n/a	FR1	1	R1311T
2039.874	2.5	2439257	WORD	n/a	wordpools/wordpool_EN.txt	PIPE	2	15	[0, 0, 0]	n/a	FR1	1	R1311T
2042.374	2.4	2441757	WORD	n/a	wordpools/wordpool_EN.txt	OWL	3	15	[0, 0, 0]	n/a	FR1	1	R1311T
2044.774	2.518	2444156	WORD	n/a	wordpools/wordpool_EN.txt	WOOD	4	15	[0, 0, 0]	n/a	FR1	1	R1311T
2047.292	2.533	2446674	WORD	n/a	wordpools/wordpool_EN.txt	DUCK	5	15	[0, 0, 0]	n/a	FR1	1	R1311T
2049.825	2.568	2449207	WORD	n/a	wordpools/wordpool_EN.txt	POND	6	15	[0, 0, 0]	n/a	FR1	1	R1311T
2052.393	2.4	2451775	WORD	n/a	wordpools/wordpool_EN.txt	CLOUD	7	15	[0, 0, 0]	n/a	FR1	1	R1311T
2054.793	2.45	2454175	WORD	n/a	wordpools/wordpool_EN.txt	FLOOR	8	15	[0, 0, 0]	n/a	FR1	1	R1311T
2057.243	2.568	2456625	WORD	n/a	wordpools/wordpool_EN.txt	DEER	9	15	[0, 0, 0]	n/a	FR1	1	R1311T
2059.811	2.433	2459193	WORD	n/a	wordpools/wordpool_EN.txt	SKI	10	15	[0, 0, 0]	n/a	FR1	1	R1311T
2062.244	2.434	2461625	WORD	n/a	wordpools/wordpool_EN.txt	TOY	11	15	[0, 0, 0]	n/a	FR1	1	R1311T
2064.678	1.617	2464059	WORD	n/a	wordpools/wordpool_EN.txt	WOLF	12	15	[0, 0, 0]	n/a	FR1	1	R1311T
2066.295	0.001	2465676	DISTRACT_START	n/a	n/a	n/a	-999	15	[0, 0, 0]	n/a	FR1	1	R1311T
2066.296	0.016	2465677	START	n/a	n/a	n/a	-999	15	[-999, -999, -999]	n/a	FR1	1	R1311T
2066.312	14.286	2465693	PROB	14.286	n/a	n/a	-999	15	[8, 4, 4]	16	FR1	1	R1311T
2080.598	9.175	2479978	PROB	9.175	n/a	n/a	-999	15	[3, 8, 4]	15	FR1	1	R1311T
2089.773	0.01	2489153	STOP	n/a	n/a	n/a	-999	15	[-999, -999, -999]	n/a	FR1	1	R1311T
2089.783	1.1	2489163	DISTRACT_END	n/a	n/a	n/a	-999	15	[0, 0, 0]	n/a	FR1	1	R1311T
2090.883	1.392	2490263	REC_START	n/a	n/a	n/a	-999	15	[0, 0, 0]	n/a	FR1	1	R1311T
2092.275	0.183	2491655	REC_WORD_VV	0.183	n/a	<>	-999	15	[0, 0, 0]	n/a	FR1	1	R1311T
2092.458	1.23	2491838	REC_WORD	1.23	n/a	STAR	1	15	[0, 0, 0]	n/a	FR1	1	R1311T
2093.688	0.993	2493068	REC_WORD	0.993	n/a	PIPE	2	15	[0, 0, 0]	n/a	FR1	1	R1311T
2094.681	1.54	2494061	REC_WORD	1.54	n/a	OWL	3	15	[0, 0, 0]	n/a	FR1	1	R1311T
2096.221	24.676	2495601	REC_WORD	24.676	n/a	WOOD	4	15	[0, 0, 0]	n/a	FR1	1	R1311T
2120.897	29.93	2520275	REC_END	n/a	n/a	n/a	-999	15	[0, 0, 0]	n/a	FR1	1	R1311T
2150.827	0.0	2550203	TRIAL	n/a	n/a	n/a	-999	16	[0, 0, 0]	n/a	FR1	1	R1311T
2150.827	0.0	2550203	COUNTDOWN_START	n/a	n/a	n/a	-999	16	[0, 0, 0]	n/a	FR1	1	R1311T
