onset	duration	sample	trial_type	response_time	stim_file	item_name	serialpos	list	test	answer	experiment	session	subject
0.0	0.0	11978	INSTRUCT_START	n/a	n/a	n/a	-999	-999	[0, 0, 0]	n/a	FR1	3	R1145J
0.0	10.813	11978	INSTRUCT_END	n/a	n/a	n/a	-999	-999	[0, 0, 0]	n/a	FR1	3	R1145J
10.813	0.0	22791	SESS_START	n/a	n/a	n/a	-999	-999	[0, 0, 0]	n/a	FR1	3	R1145J
10.813	273.255	22791	MIC_TEST	n/a	n/a	n/a	-999	-999	[0, 0, 0]	n/a	FR1	3	R1145J
284.068	2.718	296044	PRACTICE_TRIAL	n/a	n/a	n/a	-999	-1	[0, 0, 0]	n/a	FR1	3	R1145J
286.786	10.428	298762	COUNTDOWN_START	n/a	n/a	n/a	-999	-1	[0, 0, 0]	n/a	FR1	3	R1145J
297.214	0.007	309190	COUNTDOWN_END	n/a	n/a	n/a	-999	-1	[0, 0, 0]	n/a	FR1	3	R1145J
297.221	1.616	309197	PRACTICE_ORIENT	n/a	n/a	n/a	-999	-1	[0, 0, 0]	n/a	FR1	3	R1145J
298.837	2.1	310813	PRACTICE_ORIENT_OFF	n/a	n/a	n/a	-999	-1	[0, 0, 0]	n/a	FR1	3	R1145J
300.937	1.617	312913	PRACTICE_WORD	n/a	n/a	ATTIC	1	-1	[0, 0, 0]	n/a	FR1	3	R1145J
302.554	0.901	314530	PRACTICE_WORD_OFF	n/a	n/a	ATTIC	-999	-1	[0, 0, 0]	n/a	FR1	3	R1145J
303.455	1.617	315431	PRACTICE_WORD	n/a	n/a	RHINO	2	-1	[0, 0, 0]	n/a	FR1	3	R1145J
305.072	0.816	317048	PRACTICE_WORD_OFF	n/a	n/a	RHINO	-999	-1	[0, 0, 0]	n/a	FR1	3	R1145J
305.888	1.618	317864	PRACTICE_WORD	n/a	n/a	RING	3	-1	[0, 0, 0]	n/a	FR1	3	R1145J
307.506	0.95	319482	PRACTICE_WORD_OFF	n/a	n/a	RING	-999	-1	[0, 0, 0]	n/a	FR1	3	R1145J
308.456	1.617	320432	PRACTICE_WORD	n/a	n/a	FLOOD	4	-1	[0, 0, 0]	n/a	FR1	3	R1145J
310.073	0.832	322048	PRACTICE_WORD_OFF	n/a	n/a	FLOOD	-999	-1	[0, 0, 0]	n/a	FR1	3	R1145J
310.905	1.618	322880	PRACTICE_WORD	n/a	n/a	COTTON	5	-1	[0, 0, 0]	n/a	FR1	3	R1145J
312.523	0.9	324498	PRACTICE_WORD_OFF	n/a	n/a	COTTON	-999	-1	[0, 0, 0]	n/a	FR1	3	R1145J
313.423	1.617	325398	PRACTICE_WORD	n/a	n/a	TONGUE	6	-1	[0, 0, 0]	n/a	FR1	3	R1145J
315.04	0.832	327015	PRACTICE_WORD_OFF	n/a	n/a	TONGUE	-999	-1	[0, 0, 0]	n/a	FR1	3	R1145J
315.872	1.618	327847	PRACTICE_WORD	n/a	n/a	WATCH	7	-1	[0, 0, 0]	n/a	FR1	3	R1145J
317.49	0.95	329465	PRACTICE_WORD_OFF	n/a	n/a	WATCH	-999	-1	[0, 0, 0]	n/a	FR1	3	R1145J
318.44	1.617	330415	PRACTICE_WORD	n/a	n/a	CAMEL	8	-1	[0, 0, 0]	n/a	FR1	3	R1145J
320.057	0.85	332032	PRACTICE_WORD_OFF	n/a	n/a	CAMEL	-999	-1	[0, 0, 0]	n/a	FR1	3	R1145J
320.907	1.618	332882	PRACTICE_WORD	n/a	n/a	WAGON	9	-1	[0, 0, 0]	n/a	FR1	3	R1145J
322.525	0.9	334500	PRACTICE_WORD_OFF	n/a	n/a	WAGON	-999	-1	[0, 0, 0]	n/a	FR1	3	R1145J
323.425	1.616	335400	PRACTICE_WORD	n/a	n/a	BEAM	10	-1	[0, 0, 0]	n/a	FR1	3	R1145J
325.041	0.949	337016	PRACTICE_WORD_OFF	n/a	n/a	BEAM	-999	-1	[0, 0, 0]	n/a	FR1	3	R1145J
325.99	1.617	337965	PRACTICE_WORD	n/a	n/a	CHEST	11	-1	[0, 0, 0]	n/a	FR1	3	R1145J
327.607	1.0	339582	PRACTICE_WORD_OFF	n/a	n/a	CHEST	-999	-1	[0, 0, 0]	n/a	FR1	3	R1145J
328.607	1.601	340582	PRACTICE_WORD	n/a	n/a	IRON	12	-1	[0, 0, 0]	n/a	FR1	3	R1145J
330.208	0.0	342183	DISTRACT_START	n/a	n/a	n/a	-999	-1	[0, 0, 0]	n/a	FR1	3	R1145J
330.208	0.001	342183	PRACTICE_WORD_OFF	n/a	n/a	IRON	-999	-1	[0, 0, 0]	n/a	FR1	3	R1145J
330.209	0.016	342184	START	n/a	n/a	n/a	-999	-1	[-999, -999, -999]	n/a	FR1	3	R1145J
330.225	5.984	342200	PROB	5.984	n/a	n/a	-999	-1	[8, 6, 7]	21	FR1	3	R1145J
336.209	5.201	348184	PROB	5.201	n/a	n/a	-999	-1	[3, 2, 6]	11	FR1	3	R1145J
341.41	5.651	353385	PROB	5.651	n/a	n/a	-999	-1	[8, 2, 5]	15	FR1	3	R1145J
347.061	5.177	359036	PROB	5.177	n/a	n/a	-999	-1	[9, 3, 7]	19	FR1	3	R1145J
352.238	0.007	364213	STOP	n/a	n/a	n/a	-999	-1	[-999, -999, -999]	n/a	FR1	3	R1145J
352.245	0.582	364220	DISTRACT_END	n/a	n/a	n/a	-999	-1	[0, 0, 0]	n/a	FR1	3	R1145J
352.827	0.519	364802	RETRIEVAL_ORIENT	n/a	n/a	n/a	-999	-1	[0, 0, 0]	n/a	FR1	3	R1145J
353.346	30.012	365321	PRACTICE_REC_START	n/a	n/a	n/a	-999	-1	[0, 0, 0]	n/a	FR1	3	R1145J
383.358	8.659	395333	PRACTICE_REC_END	n/a	n/a	n/a	-999	-1	[0, 0, 0]	n/a	FR1	3	R1145J
392.017	0.5	403992	TRIAL	n/a	n/a	n/a	-999	1	[0, 0, 0]	n/a	FR1	3	R1145J
392.517	10.428	404492	COUNTDOWN_START	n/a	n/a	n/a	-999	1	[0, 0, 0]	n/a	FR1	3	R1145J
402.945	0.005	414920	COUNTDOWN_END	n/a	n/a	n/a	-999	1	[0, 0, 0]	n/a	FR1	3	R1145J
402.95	1.617	414925	ORIENT	n/a	n/a	n/a	-999	1	[0, 0, 0]	n/a	FR1	3	R1145J
404.567	2.117	416542	ORIENT_OFF	n/a	n/a	n/a	-999	1	[0, 0, 0]	n/a	FR1	3	R1145J
406.684	1.618	418659	WORD	n/a	wordpools/wordpool_EN.txt	MAZE	1	1	[0, 0, 0]	n/a	FR1	3	R1145J
408.302	0.884	420277	WORD_OFF	n/a	n/a	MAZE	1	1	[0, 0, 0]	n/a	FR1	3	R1145J
409.186	1.615	421161	WORD	n/a	wordpools/wordpool_EN.txt	SPEAR	2	1	[0, 0, 0]	n/a	FR1	3	R1145J
410.801	0.951	422776	WORD_OFF	n/a	n/a	SPEAR	2	1	[0, 0, 0]	n/a	FR1	3	R1145J
411.752	1.618	423727	WORD	n/a	wordpools/wordpool_EN.txt	BREAD	3	1	[0, 0, 0]	n/a	FR1	3	R1145J
413.37	0.983	425345	WORD_OFF	n/a	n/a	BREAD	3	1	[0, 0, 0]	n/a	FR1	3	R1145J
414.353	1.616	426328	WORD	n/a	wordpools/wordpool_EN.txt	CHEEK	4	1	[0, 0, 0]	n/a	FR1	3	R1145J
415.969	1.016	427944	WORD_OFF	n/a	n/a	CHEEK	4	1	[0, 0, 0]	n/a	FR1	3	R1145J
416.985	1.617	428960	WORD	n/a	wordpools/wordpool_EN.txt	STEAK	5	1	[0, 0, 0]	n/a	FR1	3	R1145J
418.602	0.885	430577	WORD_OFF	n/a	n/a	STEAK	5	1	[0, 0, 0]	n/a	FR1	3	R1145J
419.487	1.617	431462	WORD	n/a	wordpools/wordpool_EN.txt	SWAMP	6	1	[0, 0, 0]	n/a	FR1	3	R1145J
421.104	0.967	433079	WORD_OFF	n/a	n/a	SWAMP	6	1	[0, 0, 0]	n/a	FR1	3	R1145J
422.071	1.615	434046	WORD	n/a	wordpools/wordpool_EN.txt	HAND	7	1	[0, 0, 0]	n/a	FR1	3	R1145J
423.686	0.934	435661	WORD_OFF	n/a	n/a	HAND	7	1	[0, 0, 0]	n/a	FR1	3	R1145J
424.62	1.618	436595	WORD	n/a	wordpools/wordpool_EN.txt	TENT	8	1	[0, 0, 0]	n/a	FR1	3	R1145J
426.238	0.8	438213	WORD_OFF	n/a	n/a	TENT	8	1	[0, 0, 0]	n/a	FR1	3	R1145J
427.038	1.616	439013	WORD	n/a	wordpools/wordpool_EN.txt	PEAR	9	1	[0, 0, 0]	n/a	FR1	3	R1145J
428.654	1.0	440629	WORD_OFF	n/a	n/a	PEAR	9	1	[0, 0, 0]	n/a	FR1	3	R1145J
429.654	1.618	441629	WORD	n/a	wordpools/wordpool_EN.txt	MOUTH	10	1	[0, 0, 0]	n/a	FR1	3	R1145J
431.272	0.85	443247	WORD_OFF	n/a	n/a	MOUTH	10	1	[0, 0, 0]	n/a	FR1	3	R1145J
432.122	1.615	444097	WORD	n/a	wordpools/wordpool_EN.txt	FUDGE	11	1	[0, 0, 0]	n/a	FR1	3	R1145J
433.737	0.884	445712	WORD_OFF	n/a	n/a	FUDGE	11	1	[0, 0, 0]	n/a	FR1	3	R1145J
434.621	1.618	446596	WORD	n/a	wordpools/wordpool_EN.txt	PURSE	12	1	[0, 0, 0]	n/a	FR1	3	R1145J
436.239	0.0	448214	WORD_OFF	n/a	n/a	PURSE	12	1	[0, 0, 0]	n/a	FR1	3	R1145J
436.239	0.001	448214	DISTRACT_START	n/a	n/a	n/a	-999	1	[0, 0, 0]	n/a	FR1	3	R1145J
436.24	0.016	448215	START	n/a	n/a	n/a	-999	1	[-999, -999, -999]	n/a	FR1	3	R1145J
436.256	5.349	448231	PROB	5.349	n/a	n/a	-999	1	[5, 2, 2]	9	FR1	3	R1145J
441.605	5.835	453580	PROB	5.835	n/a	n/a	-999	1	[8, 9, 1]	18	FR1	3	R1145J
447.44	4.433	459414	PROB	4.433	n/a	n/a	-999	1	[5, 5, 4]	14	FR1	3	R1145J
451.873	8.217	463847	PROB	8.217	n/a	n/a	-999	1	[8, 8, 5]	21	FR1	3	R1145J
460.09	0.019	472064	STOP	n/a	n/a	n/a	-999	1	[-999, -999, -999]	n/a	FR1	3	R1145J
460.109	0.665	472083	DISTRACT_END	n/a	n/a	n/a	-999	1	[0, 0, 0]	n/a	FR1	3	R1145J
460.774	0.519	472748	RETRIEVAL_ORIENT	n/a	n/a	n/a	-999	1	[0, 0, 0]	n/a	FR1	3	R1145J
461.293	5.265	473267	REC_START	n/a	n/a	n/a	-999	1	[0, 0, 0]	n/a	FR1	3	R1145J
466.558	4.196	478532	REC_WORD	4.196	n/a	STEAK	5	1	[0, 0, 0]	n/a	FR1	3	R1145J
470.754	0.425	482728	REC_WORD_VV	0.425	n/a	<>	-999	1	[0, 0, 0]	n/a	FR1	3	R1145J
471.179	1.201	483153	REC_WORD_VV	1.201	n/a	<>	-999	1	[0, 0, 0]	n/a	FR1	3	R1145J
472.38	0.419	484354	REC_WORD	0.419	n/a	TENT	8	1	[0, 0, 0]	n/a	FR1	3	R1145J
472.799	0.805	484773	REC_WORD	0.805	n/a	STEAK	5	1	[0, 0, 0]	n/a	FR1	3	R1145J
473.604	1.508	485578	REC_WORD	1.508	n/a	TENT	8	1	[0, 0, 0]	n/a	FR1	3	R1145J
475.112	6.283	487086	REC_WORD	6.283	n/a	SWAMP	6	1	[0, 0, 0]	n/a	FR1	3	R1145J
481.395	1.335	493369	REC_WORD	1.335	n/a	STEAK	5	1	[0, 0, 0]	n/a	FR1	3	R1145J
482.73	0.387	494704	REC_WORD	0.387	n/a	TENT	8	1	[0, 0, 0]	n/a	FR1	3	R1145J
483.117	3.122	495091	REC_WORD	3.122	n/a	SWAMP	6	1	[0, 0, 0]	n/a	FR1	3	R1145J
486.239	3.36	498213	REC_WORD	3.36	n/a	ATTIC	-999	1	[0, 0, 0]	n/a	FR1	3	R1145J
489.599	0.789	501573	REC_WORD_VV	0.789	n/a	<>	-999	1	[0, 0, 0]	n/a	FR1	3	R1145J
490.388	0.919	502362	REC_WORD_VV	0.919	n/a	<>	-999	1	[0, 0, 0]	n/a	FR1	3	R1145J
491.307	4.706	503281	REC_END	n/a	n/a	n/a	-999	1	[0, 0, 0]	n/a	FR1	3	R1145J
496.013	0.5	507987	TRIAL	n/a	n/a	n/a	-999	2	[0, 0, 0]	n/a	FR1	3	R1145J
496.513	10.428	508487	COUNTDOWN_START	n/a	n/a	n/a	-999	2	[0, 0, 0]	n/a	FR1	3	R1145J
506.941	0.006	518915	COUNTDOWN_END	n/a	n/a	n/a	-999	2	[0, 0, 0]	n/a	FR1	3	R1145J
506.947	1.617	518921	ORIENT	n/a	n/a	n/a	-999	2	[0, 0, 0]	n/a	FR1	3	R1145J
508.564	2.25	520538	ORIENT_OFF	n/a	n/a	n/a	-999	2	[0, 0, 0]	n/a	FR1	3	R1145J
510.814	1.618	522788	WORD	n/a	wordpools/wordpool_EN.txt	POLE	1	2	[0, 0, 0]	n/a	FR1	3	R1145J
512.432	0.867	524406	WORD_OFF	n/a	n/a	POLE	1	2	[0, 0, 0]	n/a	FR1	3	R1145J
513.299	1.616	525273	WORD	n/a	wordpools/wordpool_EN.txt	BALL	2	2	[0, 0, 0]	n/a	FR1	3	R1145J
514.915	0.766	526889	WORD_OFF	n/a	n/a	BALL	2	2	[0, 0, 0]	n/a	FR1	3	R1145J
515.681	1.618	527655	WORD	n/a	wordpools/wordpool_EN.txt	HOOF	3	2	[0, 0, 0]	n/a	FR1	3	R1145J
517.299	0.867	529273	WORD_OFF	n/a	n/a	HOOF	3	2	[0, 0, 0]	n/a	FR1	3	R1145J
518.166	1.616	530140	WORD	n/a	wordpools/wordpool_EN.txt	ROOT	4	2	[0, 0, 0]	n/a	FR1	3	R1145J
519.782	0.933	531756	WORD_OFF	n/a	n/a	ROOT	4	2	[0, 0, 0]	n/a	FR1	3	R1145J
520.715	1.618	532689	WORD	n/a	wordpools/wordpool_EN.txt	BANK	5	2	[0, 0, 0]	n/a	FR1	3	R1145J
522.333	0.967	534307	WORD_OFF	n/a	n/a	BANK	5	2	[0, 0, 0]	n/a	FR1	3	R1145J
523.3	1.616	535274	WORD	n/a	wordpools/wordpool_EN.txt	MAP	6	2	[0, 0, 0]	n/a	FR1	3	R1145J
524.916	1.0	536890	WORD_OFF	n/a	n/a	MAP	6	2	[0, 0, 0]	n/a	FR1	3	R1145J
525.916	1.618	537890	WORD	n/a	wordpools/wordpool_EN.txt	STAR	7	2	[0, 0, 0]	n/a	FR1	3	R1145J
527.534	0.883	539508	WORD_OFF	n/a	n/a	STAR	7	2	[0, 0, 0]	n/a	FR1	3	R1145J
528.417	1.617	540391	WORD	n/a	wordpools/wordpool_EN.txt	CORD	8	2	[0, 0, 0]	n/a	FR1	3	R1145J
530.034	0.916	542008	WORD_OFF	n/a	n/a	CORD	8	2	[0, 0, 0]	n/a	FR1	3	R1145J
530.95	1.617	542924	WORD	n/a	wordpools/wordpool_EN.txt	MAIL	9	2	[0, 0, 0]	n/a	FR1	3	R1145J
532.567	0.951	544541	WORD_OFF	n/a	n/a	MAIL	9	2	[0, 0, 0]	n/a	FR1	3	R1145J
533.518	1.617	545492	WORD	n/a	wordpools/wordpool_EN.txt	FILM	10	2	[0, 0, 0]	n/a	FR1	3	R1145J
535.135	0.799	547109	WORD_OFF	n/a	n/a	FILM	10	2	[0, 0, 0]	n/a	FR1	3	R1145J
535.934	1.617	547908	WORD	n/a	wordpools/wordpool_EN.txt	CASH	11	2	[0, 0, 0]	n/a	FR1	3	R1145J
537.551	0.901	549525	WORD_OFF	n/a	n/a	CASH	11	2	[0, 0, 0]	n/a	FR1	3	R1145J
538.452	1.617	550426	WORD	n/a	wordpools/wordpool_EN.txt	MOON	12	2	[0, 0, 0]	n/a	FR1	3	R1145J
540.069	0.0	552043	WORD_OFF	n/a	n/a	MOON	12	2	[0, 0, 0]	n/a	FR1	3	R1145J
540.069	0.001	552043	DISTRACT_START	n/a	n/a	n/a	-999	2	[0, 0, 0]	n/a	FR1	3	R1145J
540.07	0.016	552044	START	n/a	n/a	n/a	-999	2	[-999, -999, -999]	n/a	FR1	3	R1145J
540.086	7.334	552060	PROB	7.334	n/a	n/a	-999	2	[2, 6, 8]	16	FR1	3	R1145J
547.42	3.984	559394	PROB	3.984	n/a	n/a	-999	2	[2, 6, 1]	9	FR1	3	R1145J
551.404	7.901	563378	PROB	7.901	n/a	n/a	-999	2	[5, 7, 6]	18	FR1	3	R1145J
559.305	12.771	571279	PROB	12.771	n/a	n/a	-999	2	[8, 1, 3]	12	FR1	3	R1145J
572.076	0.014	584050	STOP	n/a	n/a	n/a	-999	2	[-999, -999, -999]	n/a	FR1	3	R1145J
572.09	0.582	584064	DISTRACT_END	n/a	n/a	n/a	-999	2	[0, 0, 0]	n/a	FR1	3	R1145J
572.672	0.519	584646	RETRIEVAL_ORIENT	n/a	n/a	n/a	-999	2	[0, 0, 0]	n/a	FR1	3	R1145J
573.191	3.211	585165	REC_START	n/a	n/a	n/a	-999	2	[0, 0, 0]	n/a	FR1	3	R1145J
576.402	0.795	588375	REC_WORD	0.795	n/a	CASH	11	2	[0, 0, 0]	n/a	FR1	3	R1145J
577.197	3.37	589170	REC_WORD	3.37	n/a	MOON	12	2	[0, 0, 0]	n/a	FR1	3	R1145J
580.567	4.81	592540	REC_WORD_VV	4.81	n/a	<>	-999	2	[0, 0, 0]	n/a	FR1	3	R1145J
585.377	3.55	597350	REC_WORD_VV	3.55	n/a	<>	-999	2	[0, 0, 0]	n/a	FR1	3	R1145J
588.927	0.49	600900	REC_WORD_VV	0.49	n/a	<>	-999	2	[0, 0, 0]	n/a	FR1	3	R1145J
589.417	5.956	601390	REC_WORD_VV	5.956	n/a	<>	-999	2	[0, 0, 0]	n/a	FR1	3	R1145J
595.373	0.289	607346	REC_WORD_VV	0.289	n/a	<>	-999	2	[0, 0, 0]	n/a	FR1	3	R1145J
595.662	0.828	607635	REC_WORD	0.828	n/a	POLE	1	2	[0, 0, 0]	n/a	FR1	3	R1145J
596.49	6.713	608463	REC_WORD	6.713	n/a	SWAG	-999	2	[0, 0, 0]	n/a	FR1	3	R1145J
603.203	5.374	615176	REC_END	n/a	n/a	n/a	-999	2	[0, 0, 0]	n/a	FR1	3	R1145J
608.577	0.5	620550	TRIAL	n/a	n/a	n/a	-999	3	[0, 0, 0]	n/a	FR1	3	R1145J
609.077	10.428	621050	COUNTDOWN_START	n/a	n/a	n/a	-999	3	[0, 0, 0]	n/a	FR1	3	R1145J
619.505	0.007	631478	COUNTDOWN_END	n/a	n/a	n/a	-999	3	[0, 0, 0]	n/a	FR1	3	R1145J
619.512	1.617	631485	ORIENT	n/a	n/a	n/a	-999	3	[0, 0, 0]	n/a	FR1	3	R1145J
621.129	1.967	633102	ORIENT_OFF	n/a	n/a	n/a	-999	3	[0, 0, 0]	n/a	FR1	3	R1145J
623.096	1.616	635069	WORD	n/a	wordpools/wordpool_EN.txt	RAIN	1	3	[0, 0, 0]	n/a	FR1	3	R1145J
624.712	0.9	636685	WORD_OFF	n/a	n/a	RAIN	1	3	[0, 0, 0]	n/a	FR1	3	R1145J
625.612	1.618	637585	WORD	n/a	wordpools/wordpool_EN.txt	FOG	2	3	[0, 0, 0]	n/a	FR1	3	R1145J
627.23	0.85	639203	WORD_OFF	n/a	n/a	FOG	2	3	[0, 0, 0]	n/a	FR1	3	R1145J
628.08	1.616	640053	WORD	n/a	wordpools/wordpool_EN.txt	DOG	3	3	[0, 0, 0]	n/a	FR1	3	R1145J
629.696	0.933	641669	WORD_OFF	n/a	n/a	DOG	3	3	[0, 0, 0]	n/a	FR1	3	R1145J
630.629	1.602	642602	WORD	n/a	wordpools/wordpool_EN.txt	LAKE	4	3	[0, 0, 0]	n/a	FR1	3	R1145J
632.231	0.933	644204	WORD_OFF	n/a	n/a	LAKE	4	3	[0, 0, 0]	n/a	FR1	3	R1145J
633.164	1.616	645137	WORD	n/a	wordpools/wordpool_EN.txt	MOOSE	5	3	[0, 0, 0]	n/a	FR1	3	R1145J
634.78	0.817	646753	WORD_OFF	n/a	n/a	MOOSE	5	3	[0, 0, 0]	n/a	FR1	3	R1145J
635.597	1.618	647570	WORD	n/a	wordpools/wordpool_EN.txt	HILL	6	3	[0, 0, 0]	n/a	FR1	3	R1145J
637.215	0.983	649188	WORD_OFF	n/a	n/a	HILL	6	3	[0, 0, 0]	n/a	FR1	3	R1145J
638.198	1.616	650171	WORD	n/a	wordpools/wordpool_EN.txt	TRAIN	7	3	[0, 0, 0]	n/a	FR1	3	R1145J
639.814	1.017	651787	WORD_OFF	n/a	n/a	TRAIN	7	3	[0, 0, 0]	n/a	FR1	3	R1145J
640.831	1.617	652804	WORD	n/a	wordpools/wordpool_EN.txt	SNOW	8	3	[0, 0, 0]	n/a	FR1	3	R1145J
642.448	1.017	654421	WORD_OFF	n/a	n/a	SNOW	8	3	[0, 0, 0]	n/a	FR1	3	R1145J
643.465	1.617	655438	WORD	n/a	wordpools/wordpool_EN.txt	JET	9	3	[0, 0, 0]	n/a	FR1	3	R1145J
645.082	0.883	657055	WORD_OFF	n/a	n/a	JET	9	3	[0, 0, 0]	n/a	FR1	3	R1145J
645.965	1.616	657938	WORD	n/a	wordpools/wordpool_EN.txt	HEN	10	3	[0, 0, 0]	n/a	FR1	3	R1145J
647.581	0.984	659554	WORD_OFF	n/a	n/a	HEN	10	3	[0, 0, 0]	n/a	FR1	3	R1145J
648.565	1.618	660538	WORD	n/a	wordpools/wordpool_EN.txt	SMOKE	11	3	[0, 0, 0]	n/a	FR1	3	R1145J
650.183	0.867	662156	WORD_OFF	n/a	n/a	SMOKE	11	3	[0, 0, 0]	n/a	FR1	3	R1145J
651.05	1.616	663023	WORD	n/a	wordpools/wordpool_EN.txt	BOAT	12	3	[0, 0, 0]	n/a	FR1	3	R1145J
652.666	0.0	664639	WORD_OFF	n/a	n/a	BOAT	12	3	[0, 0, 0]	n/a	FR1	3	R1145J
652.666	0.0	664639	DISTRACT_START	n/a	n/a	n/a	-999	3	[0, 0, 0]	n/a	FR1	3	R1145J
652.666	0.016	664639	START	n/a	n/a	n/a	-999	3	[-999, -999, -999]	n/a	FR1	3	R1145J
652.682	11.736	664655	PROB	11.736	n/a	n/a	-999	3	[9, 5, 8]	22	FR1	3	R1145J
664.418	6.034	676391	PROB	6.034	n/a	n/a	-999	3	[3, 1, 3]	7	FR1	3	R1145J
670.452	4.346	682425	PROB	4.346	n/a	n/a	-999	3	[9, 5, 5]	19	FR1	3	R1145J
674.798	0.02	686771	STOP	n/a	n/a	n/a	-999	3	[-999, -999, -999]	n/a	FR1	3	R1145J
674.818	0.701	686791	DISTRACT_END	n/a	n/a	n/a	-999	3	[0, 0, 0]	n/a	FR1	3	R1145J
675.519	0.518	687492	RETRIEVAL_ORIENT	n/a	n/a	n/a	-999	3	[0, 0, 0]	n/a	FR1	3	R1145J
676.037	3.043	688010	REC_START	n/a	n/a	n/a	-999	3	[0, 0, 0]	n/a	FR1	3	R1145J
679.08	8.695	691053	REC_WORD_VV	8.695	n/a	<>	-999	3	[0, 0, 0]	n/a	FR1	3	R1145J
687.775	2.758	699748	REC_WORD	2.758	n/a	MEAL	-999	3	[0, 0, 0]	n/a	FR1	3	R1145J
690.533	2.423	702506	REC_WORD_VV	2.423	n/a	<>	-999	3	[0, 0, 0]	n/a	FR1	3	R1145J
692.956	0.951	704929	REC_WORD_VV	0.951	n/a	<>	-999	3	[0, 0, 0]	n/a	FR1	3	R1145J
693.907	12.143	705880	REC_WORD_VV	12.143	n/a	<>	-999	3	[0, 0, 0]	n/a	FR1	3	R1145J
706.05	7.091	718023	REC_END	n/a	n/a	n/a	-999	3	[0, 0, 0]	n/a	FR1	3	R1145J
713.141	0.5	725113	TRIAL	n/a	n/a	n/a	-999	4	[0, 0, 0]	n/a	FR1	3	R1145J
713.641	10.428	725613	COUNTDOWN_START	n/a	n/a	n/a	-999	4	[0, 0, 0]	n/a	FR1	3	R1145J
724.069	0.006	736041	COUNTDOWN_END	n/a	n/a	n/a	-999	4	[0, 0, 0]	n/a	FR1	3	R1145J
724.075	1.616	736047	ORIENT	n/a	n/a	n/a	-999	4	[0, 0, 0]	n/a	FR1	3	R1145J
725.691	2.117	737663	ORIENT_OFF	n/a	n/a	n/a	-999	4	[0, 0, 0]	n/a	FR1	3	R1145J
727.808	1.601	739780	WORD	n/a	wordpools/wordpool_EN.txt	FAN	1	4	[0, 0, 0]	n/a	FR1	3	R1145J
729.409	0.834	741381	WORD_OFF	n/a	n/a	FAN	1	4	[0, 0, 0]	n/a	FR1	3	R1145J
730.243	1.616	742215	WORD	n/a	wordpools/wordpool_EN.txt	CAPE	2	4	[0, 0, 0]	n/a	FR1	3	R1145J
731.859	0.933	743831	WORD_OFF	n/a	n/a	CAPE	2	4	[0, 0, 0]	n/a	FR1	3	R1145J
732.792	1.601	744764	WORD	n/a	wordpools/wordpool_EN.txt	PLANE	3	4	[0, 0, 0]	n/a	FR1	3	R1145J
734.393	0.834	746365	WORD_OFF	n/a	n/a	PLANE	3	4	[0, 0, 0]	n/a	FR1	3	R1145J
735.227	1.616	747199	WORD	n/a	wordpools/wordpool_EN.txt	VAN	4	4	[0, 0, 0]	n/a	FR1	3	R1145J
736.843	0.85	748815	WORD_OFF	n/a	n/a	VAN	4	4	[0, 0, 0]	n/a	FR1	3	R1145J
737.693	1.618	749665	WORD	n/a	wordpools/wordpool_EN.txt	PALM	5	4	[0, 0, 0]	n/a	FR1	3	R1145J
739.311	0.85	751283	WORD_OFF	n/a	n/a	PALM	5	4	[0, 0, 0]	n/a	FR1	3	R1145J
740.161	1.616	752133	WORD	n/a	wordpools/wordpool_EN.txt	CAGE	6	4	[0, 0, 0]	n/a	FR1	3	R1145J
741.777	1.0	753749	WORD_OFF	n/a	n/a	CAGE	6	4	[0, 0, 0]	n/a	FR1	3	R1145J
742.777	1.618	754749	WORD	n/a	wordpools/wordpool_EN.txt	NOSE	7	4	[0, 0, 0]	n/a	FR1	3	R1145J
744.395	0.933	756367	WORD_OFF	n/a	n/a	NOSE	7	4	[0, 0, 0]	n/a	FR1	3	R1145J
745.328	1.616	757300	WORD	n/a	wordpools/wordpool_EN.txt	SQUARE	8	4	[0, 0, 0]	n/a	FR1	3	R1145J
746.944	1.0	758916	WORD_OFF	n/a	n/a	SQUARE	8	4	[0, 0, 0]	n/a	FR1	3	R1145J
747.944	1.617	759916	WORD	n/a	wordpools/wordpool_EN.txt	COUCH	9	4	[0, 0, 0]	n/a	FR1	3	R1145J
749.561	0.901	761533	WORD_OFF	n/a	n/a	COUCH	9	4	[0, 0, 0]	n/a	FR1	3	R1145J
750.462	1.617	762434	WORD	n/a	wordpools/wordpool_EN.txt	VASE	10	4	[0, 0, 0]	n/a	FR1	3	R1145J
752.079	0.866	764051	WORD_OFF	n/a	n/a	VASE	10	4	[0, 0, 0]	n/a	FR1	3	R1145J
752.945	1.617	764917	WORD	n/a	wordpools/wordpool_EN.txt	WAND	11	4	[0, 0, 0]	n/a	FR1	3	R1145J
754.562	0.983	766534	WORD_OFF	n/a	n/a	WAND	11	4	[0, 0, 0]	n/a	FR1	3	R1145J
755.545	1.618	767517	WORD	n/a	wordpools/wordpool_EN.txt	SLEEVE	12	4	[0, 0, 0]	n/a	FR1	3	R1145J
757.163	0.0	769135	WORD_OFF	n/a	n/a	SLEEVE	12	4	[0, 0, 0]	n/a	FR1	3	R1145J
757.163	0.001	769135	DISTRACT_START	n/a	n/a	n/a	-999	4	[0, 0, 0]	n/a	FR1	3	R1145J
757.164	0.016	769136	START	n/a	n/a	n/a	-999	4	[-999, -999, -999]	n/a	FR1	3	R1145J
757.18	9.234	769152	PROB	9.234	n/a	n/a	-999	4	[6, 3, 6]	15	FR1	3	R1145J
766.414	6.25	778386	PROB	6.25	n/a	n/a	-999	4	[4, 4, 6]	14	FR1	3	R1145J
772.664	5.274	784636	PROB	5.274	n/a	n/a	-999	4	[5, 5, 5]	15	FR1	3	R1145J
777.938	0.01	789910	STOP	n/a	n/a	n/a	-999	4	[-999, -999, -999]	n/a	FR1	3	R1145J
777.948	0.585	789920	DISTRACT_END	n/a	n/a	n/a	-999	4	[0, 0, 0]	n/a	FR1	3	R1145J
778.533	0.521	790505	RETRIEVAL_ORIENT	n/a	n/a	n/a	-999	4	[0, 0, 0]	n/a	FR1	3	R1145J
779.054	1.33	791026	REC_START	n/a	n/a	n/a	-999	4	[0, 0, 0]	n/a	FR1	3	R1145J
780.384	1.462	792356	REC_WORD_VV	1.462	n/a	<>	-999	4	[0, 0, 0]	n/a	FR1	3	R1145J
781.846	1.004	793818	REC_WORD	1.004	n/a	VAN	4	4	[0, 0, 0]	n/a	FR1	3	R1145J
782.85	3.9	794822	REC_WORD	3.9	n/a	VASE	10	4	[0, 0, 0]	n/a	FR1	3	R1145J
786.75	0.661	798722	REC_WORD	0.661	n/a	VASE	10	4	[0, 0, 0]	n/a	FR1	3	R1145J
787.411	1.916	799383	REC_WORD	1.916	n/a	COUGH	-999	4	[0, 0, 0]	n/a	FR1	3	R1145J
789.327	2.337	801299	REC_WORD_VV	2.337	n/a	<>	-999	4	[0, 0, 0]	n/a	FR1	3	R1145J
791.664	0.534	803636	REC_WORD	0.534	n/a	COUGH	-999	4	[0, 0, 0]	n/a	FR1	3	R1145J
792.198	3.011	804170	REC_WORD_VV	3.011	n/a	<>	-999	4	[0, 0, 0]	n/a	FR1	3	R1145J
795.209	0.512	807181	REC_WORD_VV	0.512	n/a	<>	-999	4	[0, 0, 0]	n/a	FR1	3	R1145J
795.721	0.476	807693	REC_WORD_VV	0.476	n/a	<>	-999	4	[0, 0, 0]	n/a	FR1	3	R1145J
796.197	8.26	808169	REC_WORD_VV	8.26	n/a	<>	-999	4	[0, 0, 0]	n/a	FR1	3	R1145J
804.457	0.552	816429	REC_WORD_VV	0.552	n/a	<>	-999	4	[0, 0, 0]	n/a	FR1	3	R1145J
805.009	4.054	816981	REC_WORD_VV	4.054	n/a	<>	-999	4	[0, 0, 0]	n/a	FR1	3	R1145J
809.063	5.441	821035	REC_END	n/a	n/a	n/a	-999	4	[0, 0, 0]	n/a	FR1	3	R1145J
814.504	0.5	826476	TRIAL	n/a	n/a	n/a	-999	5	[0, 0, 0]	n/a	FR1	3	R1145J
815.004	10.428	826976	COUNTDOWN_START	n/a	n/a	n/a	-999	5	[0, 0, 0]	n/a	FR1	3	R1145J
825.432	0.006	837404	COUNTDOWN_END	n/a	n/a	n/a	-999	5	[0, 0, 0]	n/a	FR1	3	R1145J
825.438	1.617	837410	ORIENT	n/a	n/a	n/a	-999	5	[0, 0, 0]	n/a	FR1	3	R1145J
827.055	2.001	839027	ORIENT_OFF	n/a	n/a	n/a	-999	5	[0, 0, 0]	n/a	FR1	3	R1145J
829.056	1.616	841028	WORD	n/a	wordpools/wordpool_EN.txt	KITE	1	5	[0, 0, 0]	n/a	FR1	3	R1145J
830.672	0.784	842644	WORD_OFF	n/a	n/a	KITE	1	5	[0, 0, 0]	n/a	FR1	3	R1145J
831.456	1.617	843428	WORD	n/a	wordpools/wordpool_EN.txt	ROOF	2	5	[0, 0, 0]	n/a	FR1	3	R1145J
833.073	1.0	845045	WORD_OFF	n/a	n/a	ROOF	2	5	[0, 0, 0]	n/a	FR1	3	R1145J
834.073	1.616	846045	WORD	n/a	wordpools/wordpool_EN.txt	BRANCH	3	5	[0, 0, 0]	n/a	FR1	3	R1145J
835.689	0.801	847661	WORD_OFF	n/a	n/a	BRANCH	3	5	[0, 0, 0]	n/a	FR1	3	R1145J
836.49	1.617	848462	WORD	n/a	wordpools/wordpool_EN.txt	TREE	4	5	[0, 0, 0]	n/a	FR1	3	R1145J
838.107	0.983	850079	WORD_OFF	n/a	n/a	TREE	4	5	[0, 0, 0]	n/a	FR1	3	R1145J
839.09	1.616	851062	WORD	n/a	wordpools/wordpool_EN.txt	HOLE	5	5	[0, 0, 0]	n/a	FR1	3	R1145J
840.706	0.85	852677	WORD_OFF	n/a	n/a	HOLE	5	5	[0, 0, 0]	n/a	FR1	3	R1145J
841.556	1.618	853527	WORD	n/a	wordpools/wordpool_EN.txt	GOAT	6	5	[0, 0, 0]	n/a	FR1	3	R1145J
843.174	0.933	855145	WORD_OFF	n/a	n/a	GOAT	6	5	[0, 0, 0]	n/a	FR1	3	R1145J
844.107	1.616	856078	WORD	n/a	wordpools/wordpool_EN.txt	SEAL	7	5	[0, 0, 0]	n/a	FR1	3	R1145J
845.723	0.984	857694	WORD_OFF	n/a	n/a	SEAL	7	5	[0, 0, 0]	n/a	FR1	3	R1145J
846.707	1.601	858678	WORD	n/a	wordpools/wordpool_EN.txt	HOOK	8	5	[0, 0, 0]	n/a	FR1	3	R1145J
848.308	0.917	860279	WORD_OFF	n/a	n/a	HOOK	8	5	[0, 0, 0]	n/a	FR1	3	R1145J
849.225	1.616	861196	WORD	n/a	wordpools/wordpool_EN.txt	PIN	9	5	[0, 0, 0]	n/a	FR1	3	R1145J
850.841	0.883	862812	WORD_OFF	n/a	n/a	PIN	9	5	[0, 0, 0]	n/a	FR1	3	R1145J
851.724	1.618	863695	WORD	n/a	wordpools/wordpool_EN.txt	VINE	10	5	[0, 0, 0]	n/a	FR1	3	R1145J
853.342	0.8	865313	WORD_OFF	n/a	n/a	VINE	10	5	[0, 0, 0]	n/a	FR1	3	R1145J
854.142	1.616	866113	WORD	n/a	wordpools/wordpool_EN.txt	BARN	11	5	[0, 0, 0]	n/a	FR1	3	R1145J
855.758	0.768	867729	WORD_OFF	n/a	n/a	BARN	11	5	[0, 0, 0]	n/a	FR1	3	R1145J
856.526	1.617	868497	WORD	n/a	wordpools/wordpool_EN.txt	BUSH	12	5	[0, 0, 0]	n/a	FR1	3	R1145J
858.143	0.0	870114	DISTRACT_START	n/a	n/a	n/a	-999	5	[0, 0, 0]	n/a	FR1	3	R1145J
858.143	0.001	870114	WORD_OFF	n/a	n/a	BUSH	12	5	[0, 0, 0]	n/a	FR1	3	R1145J
858.144	0.015	870115	START	n/a	n/a	n/a	-999	5	[-999, -999, -999]	n/a	FR1	3	R1145J
858.159	4.201	870130	PROB	4.201	n/a	n/a	-999	5	[3, 9, 7]	19	FR1	3	R1145J
862.36	5.034	874331	PROB	5.034	n/a	n/a	-999	5	[3, 2, 6]	11	FR1	3	R1145J
867.394	4.15	879365	PROB	4.15	n/a	n/a	-999	5	[8, 8, 1]	17	FR1	3	R1145J
871.544	7.135	883515	PROB	7.135	n/a	n/a	-999	5	[6, 8, 5]	19	FR1	3	R1145J
878.679	0.015	890650	STOP	n/a	n/a	n/a	-999	5	[-999, -999, -999]	n/a	FR1	3	R1145J
878.694	0.601	890665	DISTRACT_END	n/a	n/a	n/a	-999	5	[0, 0, 0]	n/a	FR1	3	R1145J
879.295	0.517	891266	RETRIEVAL_ORIENT	n/a	n/a	n/a	-999	5	[0, 0, 0]	n/a	FR1	3	R1145J
879.812	2.028	891783	REC_START	n/a	n/a	n/a	-999	5	[0, 0, 0]	n/a	FR1	3	R1145J
881.84	0.471	893811	REC_WORD	0.471	n/a	KITE	1	5	[0, 0, 0]	n/a	FR1	3	R1145J
882.311	3.212	894282	REC_WORD	3.212	n/a	HOLE	5	5	[0, 0, 0]	n/a	FR1	3	R1145J
885.523	1.188	897494	REC_WORD	1.188	n/a	BRANCH	3	5	[0, 0, 0]	n/a	FR1	3	R1145J
886.711	2.361	898682	REC_WORD	2.361	n/a	TREE	4	5	[0, 0, 0]	n/a	FR1	3	R1145J
889.072	0.643	901043	REC_WORD	0.643	n/a	PLANT	-999	5	[0, 0, 0]	n/a	FR1	3	R1145J
889.715	1.541	901686	REC_WORD	1.541	n/a	PIN	9	5	[0, 0, 0]	n/a	FR1	3	R1145J
891.256	1.878	903227	REC_WORD	1.878	n/a	VINE	10	5	[0, 0, 0]	n/a	FR1	3	R1145J
893.134	5.484	905105	REC_WORD	5.484	n/a	BUSH	12	5	[0, 0, 0]	n/a	FR1	3	R1145J
898.618	3.909	910589	REC_WORD	3.909	n/a	SEAL	7	5	[0, 0, 0]	n/a	FR1	3	R1145J
902.527	4.458	914498	REC_WORD	4.458	n/a	TREE	4	5	[0, 0, 0]	n/a	FR1	3	R1145J
906.985	1.998	918956	REC_WORD	1.998	n/a	VINE	10	5	[0, 0, 0]	n/a	FR1	3	R1145J
908.983	0.744	920954	REC_WORD	0.744	n/a	PIN	9	5	[0, 0, 0]	n/a	FR1	3	R1145J
909.727	0.097	921698	REC_WORD_VV	0.097	n/a	<>	-999	5	[0, 0, 0]	n/a	FR1	3	R1145J
909.824	4.108	921795	REC_END	n/a	n/a	n/a	-999	5	[0, 0, 0]	n/a	FR1	3	R1145J
913.932	0.5	925903	TRIAL	n/a	n/a	n/a	-999	6	[0, 0, 0]	n/a	FR1	3	R1145J
914.432	10.428	926403	COUNTDOWN_START	n/a	n/a	n/a	-999	6	[0, 0, 0]	n/a	FR1	3	R1145J
924.86	0.007	936831	COUNTDOWN_END	n/a	n/a	n/a	-999	6	[0, 0, 0]	n/a	FR1	3	R1145J
924.867	1.618	936838	ORIENT	n/a	n/a	n/a	-999	6	[0, 0, 0]	n/a	FR1	3	R1145J
926.485	2.132	938456	ORIENT_OFF	n/a	n/a	n/a	-999	6	[0, 0, 0]	n/a	FR1	3	R1145J
928.617	1.618	940588	WORD	n/a	wordpools/wordpool_EN.txt	FOOD	1	6	[0, 0, 0]	n/a	FR1	3	R1145J
930.235	0.967	942206	WORD_OFF	n/a	n/a	FOOD	1	6	[0, 0, 0]	n/a	FR1	3	R1145J
931.202	1.616	943173	WORD	n/a	wordpools/wordpool_EN.txt	RICE	2	6	[0, 0, 0]	n/a	FR1	3	R1145J
932.818	1.0	944789	WORD_OFF	n/a	n/a	RICE	2	6	[0, 0, 0]	n/a	FR1	3	R1145J
933.818	1.618	945789	WORD	n/a	wordpools/wordpool_EN.txt	SWORD	3	6	[0, 0, 0]	n/a	FR1	3	R1145J
935.436	0.933	947407	WORD_OFF	n/a	n/a	SWORD	3	6	[0, 0, 0]	n/a	FR1	3	R1145J
936.369	1.616	948340	WORD	n/a	wordpools/wordpool_EN.txt	CROW	4	6	[0, 0, 0]	n/a	FR1	3	R1145J
937.985	0.967	949956	WORD_OFF	n/a	n/a	CROW	4	6	[0, 0, 0]	n/a	FR1	3	R1145J
938.952	1.617	950923	WORD	n/a	wordpools/wordpool_EN.txt	CHIEF	5	6	[0, 0, 0]	n/a	FR1	3	R1145J
940.569	0.918	952540	WORD_OFF	n/a	n/a	CHIEF	5	6	[0, 0, 0]	n/a	FR1	3	R1145J
941.487	1.617	953458	WORD	n/a	wordpools/wordpool_EN.txt	DRESS	6	6	[0, 0, 0]	n/a	FR1	3	R1145J
943.104	0.899	955075	WORD_OFF	n/a	n/a	DRESS	6	6	[0, 0, 0]	n/a	FR1	3	R1145J
944.003	1.616	955974	WORD	n/a	wordpools/wordpool_EN.txt	FROG	7	6	[0, 0, 0]	n/a	FR1	3	R1145J
945.619	0.868	957590	WORD_OFF	n/a	n/a	FROG	7	6	[0, 0, 0]	n/a	FR1	3	R1145J
946.487	1.617	958458	WORD	n/a	wordpools/wordpool_EN.txt	TEA	8	6	[0, 0, 0]	n/a	FR1	3	R1145J
948.104	0.766	960075	WORD_OFF	n/a	n/a	TEA	8	6	[0, 0, 0]	n/a	FR1	3	R1145J
948.87	1.618	960841	WORD	n/a	wordpools/wordpool_EN.txt	LAMB	9	6	[0, 0, 0]	n/a	FR1	3	R1145J
950.488	0.95	962459	WORD_OFF	n/a	n/a	LAMB	9	6	[0, 0, 0]	n/a	FR1	3	R1145J
951.438	1.617	963409	WORD	n/a	wordpools/wordpool_EN.txt	LAMP	10	6	[0, 0, 0]	n/a	FR1	3	R1145J
953.055	1.0	965026	WORD_OFF	n/a	n/a	LAMP	10	6	[0, 0, 0]	n/a	FR1	3	R1145J
954.055	1.616	966026	WORD	n/a	wordpools/wordpool_EN.txt	PEARL	11	6	[0, 0, 0]	n/a	FR1	3	R1145J
955.671	1.0	967642	WORD_OFF	n/a	n/a	PEARL	11	6	[0, 0, 0]	n/a	FR1	3	R1145J
956.671	1.618	968642	WORD	n/a	wordpools/wordpool_EN.txt	LAND	12	6	[0, 0, 0]	n/a	FR1	3	R1145J
958.289	0.0	970260	WORD_OFF	n/a	n/a	LAND	12	6	[0, 0, 0]	n/a	FR1	3	R1145J
958.289	0.0	970260	DISTRACT_START	n/a	n/a	n/a	-999	6	[0, 0, 0]	n/a	FR1	3	R1145J
958.289	0.016	970260	START	n/a	n/a	n/a	-999	6	[-999, -999, -999]	n/a	FR1	3	R1145J
958.305	5.718	970276	PROB	5.718	n/a	n/a	-999	6	[8, 4, 5]	17	FR1	3	R1145J
964.023	6.367	975994	PROB	6.367	n/a	n/a	-999	6	[6, 5, 2]	13	FR1	3	R1145J
970.39	11.781	982361	PROB	11.781	n/a	n/a	-999	6	[6, 9, 8]	23	FR1	3	R1145J
982.171	0.021	994141	STOP	n/a	n/a	n/a	-999	6	[-999, -999, -999]	n/a	FR1	3	R1145J
982.192	0.649	994162	DISTRACT_END	n/a	n/a	n/a	-999	6	[0, 0, 0]	n/a	FR1	3	R1145J
982.841	0.519	994811	RETRIEVAL_ORIENT	n/a	n/a	n/a	-999	6	[0, 0, 0]	n/a	FR1	3	R1145J
983.36	2.422	995330	REC_START	n/a	n/a	n/a	-999	6	[0, 0, 0]	n/a	FR1	3	R1145J
985.782	0.866	997752	REC_WORD	0.866	n/a	LAND	12	6	[0, 0, 0]	n/a	FR1	3	R1145J
986.648	1.453	998618	REC_WORD	1.453	n/a	LAMP	10	6	[0, 0, 0]	n/a	FR1	3	R1145J
988.101	3.599	1000071	REC_WORD	3.599	n/a	TEA	8	6	[0, 0, 0]	n/a	FR1	3	R1145J
991.7	1.609	1003670	REC_WORD_VV	1.609	n/a	<>	-999	6	[0, 0, 0]	n/a	FR1	3	R1145J
993.309	0.683	1005279	REC_WORD	0.683	n/a	BOOK	-999	6	[0, 0, 0]	n/a	FR1	3	R1145J
993.992	4.007	1005962	REC_WORD	4.007	n/a	BROOK	-999	6	[0, 0, 0]	n/a	FR1	3	R1145J
997.999	6.915	1009969	REC_WORD_VV	6.915	n/a	<>	-999	6	[0, 0, 0]	n/a	FR1	3	R1145J
1004.914	0.513	1016884	REC_WORD	0.513	n/a	LAND	12	6	[0, 0, 0]	n/a	FR1	3	R1145J
1005.427	7.946	1017397	REC_WORD	7.946	n/a	LAMP	10	6	[0, 0, 0]	n/a	FR1	3	R1145J
1013.373	9.008	1025343	REC_END	n/a	n/a	n/a	-999	6	[0, 0, 0]	n/a	FR1	3	R1145J
1022.381	0.5	1034351	TRIAL	n/a	n/a	n/a	-999	7	[0, 0, 0]	n/a	FR1	3	R1145J
1022.881	10.428	1034851	COUNTDOWN_START	n/a	n/a	n/a	-999	7	[0, 0, 0]	n/a	FR1	3	R1145J
1033.309	0.006	1045279	COUNTDOWN_END	n/a	n/a	n/a	-999	7	[0, 0, 0]	n/a	FR1	3	R1145J
1033.315	1.616	1045285	ORIENT	n/a	n/a	n/a	-999	7	[0, 0, 0]	n/a	FR1	3	R1145J
1034.931	2.034	1046901	ORIENT_OFF	n/a	n/a	n/a	-999	7	[0, 0, 0]	n/a	FR1	3	R1145J
1036.965	1.617	1048935	WORD	n/a	wordpools/wordpool_EN.txt	TANK	1	7	[0, 0, 0]	n/a	FR1	3	R1145J
1038.582	0.934	1050552	WORD_OFF	n/a	n/a	TANK	1	7	[0, 0, 0]	n/a	FR1	3	R1145J
1039.516	1.617	1051486	WORD	n/a	wordpools/wordpool_EN.txt	SPARK	2	7	[0, 0, 0]	n/a	FR1	3	R1145J
1041.133	0.766	1053103	WORD_OFF	n/a	n/a	SPARK	2	7	[0, 0, 0]	n/a	FR1	3	R1145J
1041.899	1.617	1053869	WORD	n/a	wordpools/wordpool_EN.txt	INK	3	7	[0, 0, 0]	n/a	FR1	3	R1145J
1043.516	0.8	1055486	WORD_OFF	n/a	n/a	INK	3	7	[0, 0, 0]	n/a	FR1	3	R1145J
1044.316	1.616	1056286	WORD	n/a	wordpools/wordpool_EN.txt	HOSE	4	7	[0, 0, 0]	n/a	FR1	3	R1145J
1045.932	0.884	1057902	WORD_OFF	n/a	n/a	HOSE	4	7	[0, 0, 0]	n/a	FR1	3	R1145J
1046.816	1.618	1058786	WORD	n/a	wordpools/wordpool_EN.txt	FLUTE	5	7	[0, 0, 0]	n/a	FR1	3	R1145J
1048.434	0.983	1060404	WORD_OFF	n/a	n/a	FLUTE	5	7	[0, 0, 0]	n/a	FR1	3	R1145J
1049.417	1.617	1061387	WORD	n/a	wordpools/wordpool_EN.txt	BOX	6	7	[0, 0, 0]	n/a	FR1	3	R1145J
1051.034	0.816	1063004	WORD_OFF	n/a	n/a	BOX	6	7	[0, 0, 0]	n/a	FR1	3	R1145J
1051.85	1.618	1063820	WORD	n/a	wordpools/wordpool_EN.txt	WOOD	7	7	[0, 0, 0]	n/a	FR1	3	R1145J
1053.468	0.883	1065438	WORD_OFF	n/a	n/a	WOOD	7	7	[0, 0, 0]	n/a	FR1	3	R1145J
1054.351	1.616	1066321	WORD	n/a	wordpools/wordpool_EN.txt	SOAP	8	7	[0, 0, 0]	n/a	FR1	3	R1145J
1055.967	0.966	1067937	WORD_OFF	n/a	n/a	SOAP	8	7	[0, 0, 0]	n/a	FR1	3	R1145J
1056.933	1.602	1068903	WORD	n/a	wordpools/wordpool_EN.txt	COIN	9	7	[0, 0, 0]	n/a	FR1	3	R1145J
1058.535	0.85	1070505	WORD_OFF	n/a	n/a	COIN	9	7	[0, 0, 0]	n/a	FR1	3	R1145J
1059.385	1.617	1071355	WORD	n/a	wordpools/wordpool_EN.txt	CLOTH	10	7	[0, 0, 0]	n/a	FR1	3	R1145J
1061.002	0.933	1072972	WORD_OFF	n/a	n/a	CLOTH	10	7	[0, 0, 0]	n/a	FR1	3	R1145J
1061.935	1.616	1073905	WORD	n/a	wordpools/wordpool_EN.txt	DIME	11	7	[0, 0, 0]	n/a	FR1	3	R1145J
1063.551	0.885	1075521	WORD_OFF	n/a	n/a	DIME	11	7	[0, 0, 0]	n/a	FR1	3	R1145J
1064.436	1.616	1076406	WORD	n/a	wordpools/wordpool_EN.txt	SCHOOL	12	7	[0, 0, 0]	n/a	FR1	3	R1145J
1066.052	0.0	1078022	WORD_OFF	n/a	n/a	SCHOOL	12	7	[0, 0, 0]	n/a	FR1	3	R1145J
1066.052	0.001	1078022	DISTRACT_START	n/a	n/a	n/a	-999	7	[0, 0, 0]	n/a	FR1	3	R1145J
1066.053	0.016	1078023	START	n/a	n/a	n/a	-999	7	[-999, -999, -999]	n/a	FR1	3	R1145J
1066.069	4.951	1078039	PROB	4.951	n/a	n/a	-999	7	[3, 3, 1]	7	FR1	3	R1145J
1071.02	5.017	1082990	PROB	5.017	n/a	n/a	-999	7	[6, 1, 3]	10	FR1	3	R1145J
1076.037	6.101	1088007	PROB	6.101	n/a	n/a	-999	7	[8, 8, 5]	21	FR1	3	R1145J
1082.138	5.556	1094108	PROB	5.556	n/a	n/a	-999	7	[4, 6, 5]	15	FR1	3	R1145J
1087.694	0.01	1099664	STOP	n/a	n/a	n/a	-999	7	[-999, -999, -999]	n/a	FR1	3	R1145J
1087.704	0.651	1099674	DISTRACT_END	n/a	n/a	n/a	-999	7	[0, 0, 0]	n/a	FR1	3	R1145J
1088.355	0.517	1100325	RETRIEVAL_ORIENT	n/a	n/a	n/a	-999	7	[0, 0, 0]	n/a	FR1	3	R1145J
1088.872	1.853	1100842	REC_START	n/a	n/a	n/a	-999	7	[0, 0, 0]	n/a	FR1	3	R1145J
1090.725	1.278	1102695	REC_WORD	1.278	n/a	SPARK	2	7	[0, 0, 0]	n/a	FR1	3	R1145J
1092.003	1.871	1103973	REC_WORD	1.871	n/a	DIME	11	7	[0, 0, 0]	n/a	FR1	3	R1145J
1093.874	2.545	1105844	REC_WORD	2.545	n/a	INK	3	7	[0, 0, 0]	n/a	FR1	3	R1145J
1096.419	20.623	1108389	REC_WORD_VV	20.623	n/a	<>	-999	7	[0, 0, 0]	n/a	FR1	3	R1145J
1117.042	1.167	1129011	REC_WORD_VV	1.167	n/a	<>	-999	7	[0, 0, 0]	n/a	FR1	3	R1145J
1118.209	0.674	1130178	REC_WORD_VV	0.674	n/a	<>	-999	7	[0, 0, 0]	n/a	FR1	3	R1145J
1118.883	5.092	1130852	REC_END	n/a	n/a	n/a	-999	7	[0, 0, 0]	n/a	FR1	3	R1145J
1123.975	0.5	1135944	TRIAL	n/a	n/a	n/a	-999	8	[0, 0, 0]	n/a	FR1	3	R1145J
1124.475	10.428	1136444	COUNTDOWN_START	n/a	n/a	n/a	-999	8	[0, 0, 0]	n/a	FR1	3	R1145J
1134.903	0.007	1146872	COUNTDOWN_END	n/a	n/a	n/a	-999	8	[0, 0, 0]	n/a	FR1	3	R1145J
1134.91	1.601	1146879	ORIENT	n/a	n/a	n/a	-999	8	[0, 0, 0]	n/a	FR1	3	R1145J
1136.511	1.917	1148480	ORIENT_OFF	n/a	n/a	n/a	-999	8	[0, 0, 0]	n/a	FR1	3	R1145J
1138.428	1.617	1150397	WORD	n/a	wordpools/wordpool_EN.txt	SHIELD	1	8	[0, 0, 0]	n/a	FR1	3	R1145J
1140.045	0.967	1152014	WORD_OFF	n/a	n/a	SHIELD	1	8	[0, 0, 0]	n/a	FR1	3	R1145J
1141.012	1.616	1152981	WORD	n/a	wordpools/wordpool_EN.txt	BRICK	2	8	[0, 0, 0]	n/a	FR1	3	R1145J
1142.628	0.768	1154597	WORD_OFF	n/a	n/a	BRICK	2	8	[0, 0, 0]	n/a	FR1	3	R1145J
1143.396	1.616	1155365	WORD	n/a	wordpools/wordpool_EN.txt	SNAIL	3	8	[0, 0, 0]	n/a	FR1	3	R1145J
1145.012	0.8	1156981	WORD_OFF	n/a	n/a	SNAIL	3	8	[0, 0, 0]	n/a	FR1	3	R1145J
1145.812	1.618	1157781	WORD	n/a	wordpools/wordpool_EN.txt	APE	4	8	[0, 0, 0]	n/a	FR1	3	R1145J
1147.43	0.816	1159399	WORD_OFF	n/a	n/a	APE	4	8	[0, 0, 0]	n/a	FR1	3	R1145J
1148.246	1.616	1160215	WORD	n/a	wordpools/wordpool_EN.txt	SEA	5	8	[0, 0, 0]	n/a	FR1	3	R1145J
1149.862	0.95	1161831	WORD_OFF	n/a	n/a	SEA	5	8	[0, 0, 0]	n/a	FR1	3	R1145J
1150.812	1.618	1162781	WORD	n/a	wordpools/wordpool_EN.txt	BEACH	6	8	[0, 0, 0]	n/a	FR1	3	R1145J
1152.43	0.801	1164399	WORD_OFF	n/a	n/a	BEACH	6	8	[0, 0, 0]	n/a	FR1	3	R1145J
1153.231	1.615	1165200	WORD	n/a	wordpools/wordpool_EN.txt	ROPE	7	8	[0, 0, 0]	n/a	FR1	3	R1145J
1154.846	0.85	1166815	WORD_OFF	n/a	n/a	ROPE	7	8	[0, 0, 0]	n/a	FR1	3	R1145J
1155.696	1.601	1167665	WORD	n/a	wordpools/wordpool_EN.txt	SUN	8	8	[0, 0, 0]	n/a	FR1	3	R1145J
1157.297	0.901	1169266	WORD_OFF	n/a	n/a	SUN	8	8	[0, 0, 0]	n/a	FR1	3	R1145J
1158.198	1.616	1170167	WORD	n/a	wordpools/wordpool_EN.txt	BRIDGE	9	8	[0, 0, 0]	n/a	FR1	3	R1145J
1159.814	0.8	1171783	WORD_OFF	n/a	n/a	BRIDGE	9	8	[0, 0, 0]	n/a	FR1	3	R1145J
1160.614	1.617	1172583	WORD	n/a	wordpools/wordpool_EN.txt	STONE	10	8	[0, 0, 0]	n/a	FR1	3	R1145J
1162.231	0.967	1174200	WORD_OFF	n/a	n/a	STONE	10	8	[0, 0, 0]	n/a	FR1	3	R1145J
1163.198	1.616	1175167	WORD	n/a	wordpools/wordpool_EN.txt	ROCK	11	8	[0, 0, 0]	n/a	FR1	3	R1145J
1164.814	0.984	1176783	WORD_OFF	n/a	n/a	ROCK	11	8	[0, 0, 0]	n/a	FR1	3	R1145J
1165.798	1.617	1177767	WORD	n/a	wordpools/wordpool_EN.txt	SHELL	12	8	[0, 0, 0]	n/a	FR1	3	R1145J
1167.415	0.0	1179384	DISTRACT_START	n/a	n/a	n/a	-999	8	[0, 0, 0]	n/a	FR1	3	R1145J
1167.415	0.001	1179384	WORD_OFF	n/a	n/a	SHELL	12	8	[0, 0, 0]	n/a	FR1	3	R1145J
1167.416	0.016	1179385	START	n/a	n/a	n/a	-999	8	[-999, -999, -999]	n/a	FR1	3	R1145J
1167.432	6.2	1179401	PROB	6.2	n/a	n/a	-999	8	[1, 9, 7]	17	FR1	3	R1145J
1173.632	7.084	1185601	PROB	7.084	n/a	n/a	-999	8	[1, 3, 9]	13	FR1	3	R1145J
1180.716	7.253	1192685	PROB	7.253	n/a	n/a	-999	8	[4, 7, 7]	18	FR1	3	R1145J
1187.969	0.015	1199938	STOP	n/a	n/a	n/a	-999	8	[-999, -999, -999]	n/a	FR1	3	R1145J
1187.984	0.534	1199953	DISTRACT_END	n/a	n/a	n/a	-999	8	[0, 0, 0]	n/a	FR1	3	R1145J
1188.518	0.518	1200487	RETRIEVAL_ORIENT	n/a	n/a	n/a	-999	8	[0, 0, 0]	n/a	FR1	3	R1145J
1189.036	1.391	1201005	REC_START	n/a	n/a	n/a	-999	8	[0, 0, 0]	n/a	FR1	3	R1145J
1190.427	1.567	1202396	REC_WORD	1.567	n/a	SUN	8	8	[0, 0, 0]	n/a	FR1	3	R1145J
1191.994	1.638	1203963	REC_WORD	1.638	n/a	BRIDGE	9	8	[0, 0, 0]	n/a	FR1	3	R1145J
1193.632	2.682	1205601	REC_WORD	2.682	n/a	STONE	10	8	[0, 0, 0]	n/a	FR1	3	R1145J
1196.314	0.973	1208283	REC_WORD	0.973	n/a	APE	4	8	[0, 0, 0]	n/a	FR1	3	R1145J
1197.287	5.108	1209256	REC_WORD	5.108	n/a	SEA	5	8	[0, 0, 0]	n/a	FR1	3	R1145J
1202.395	2.611	1214364	REC_WORD_VV	2.611	n/a	<>	-999	8	[0, 0, 0]	n/a	FR1	3	R1145J
1205.006	2.142	1216975	REC_WORD_VV	2.142	n/a	<>	-999	8	[0, 0, 0]	n/a	FR1	3	R1145J
1207.148	1.747	1219117	REC_WORD_VV	1.747	n/a	<>	-999	8	[0, 0, 0]	n/a	FR1	3	R1145J
1208.895	3.779	1220864	REC_WORD_VV	3.779	n/a	<>	-999	8	[0, 0, 0]	n/a	FR1	3	R1145J
1212.674	0.434	1224643	REC_WORD	0.434	n/a	APE	4	8	[0, 0, 0]	n/a	FR1	3	R1145J
1213.108	0.329	1225077	REC_WORD	0.329	n/a	BRIDGE	9	8	[0, 0, 0]	n/a	FR1	3	R1145J
1213.437	5.612	1225406	REC_WORD	5.612	n/a	STONE	10	8	[0, 0, 0]	n/a	FR1	3	R1145J
1219.049	4.523	1231018	REC_END	n/a	n/a	n/a	-999	8	[0, 0, 0]	n/a	FR1	3	R1145J
1223.572	0.5	1235541	TRIAL	n/a	n/a	n/a	-999	9	[0, 0, 0]	n/a	FR1	3	R1145J
1224.072	10.428	1236041	COUNTDOWN_START	n/a	n/a	n/a	-999	9	[0, 0, 0]	n/a	FR1	3	R1145J
1234.5	0.007	1246469	COUNTDOWN_END	n/a	n/a	n/a	-999	9	[0, 0, 0]	n/a	FR1	3	R1145J
1234.507	1.617	1246476	ORIENT	n/a	n/a	n/a	-999	9	[0, 0, 0]	n/a	FR1	3	R1145J
1236.124	2.251	1248093	ORIENT_OFF	n/a	n/a	n/a	-999	9	[0, 0, 0]	n/a	FR1	3	R1145J
1238.375	1.616	1250344	WORD	n/a	wordpools/wordpool_EN.txt	CHIN	1	9	[0, 0, 0]	n/a	FR1	3	R1145J
1239.991	0.966	1251959	WORD_OFF	n/a	n/a	CHIN	1	9	[0, 0, 0]	n/a	FR1	3	R1145J
1240.957	1.617	1252925	WORD	n/a	wordpools/wordpool_EN.txt	MAT	2	9	[0, 0, 0]	n/a	FR1	3	R1145J
1242.574	0.851	1254542	WORD_OFF	n/a	n/a	MAT	2	9	[0, 0, 0]	n/a	FR1	3	R1145J
1243.425	1.617	1255393	WORD	n/a	wordpools/wordpool_EN.txt	EAR	3	9	[0, 0, 0]	n/a	FR1	3	R1145J
1245.042	0.766	1257010	WORD_OFF	n/a	n/a	EAR	3	9	[0, 0, 0]	n/a	FR1	3	R1145J
1245.808	1.618	1257776	WORD	n/a	wordpools/wordpool_EN.txt	SMILE	4	9	[0, 0, 0]	n/a	FR1	3	R1145J
1247.426	0.95	1259394	WORD_OFF	n/a	n/a	SMILE	4	9	[0, 0, 0]	n/a	FR1	3	R1145J
1248.376	1.616	1260344	WORD	n/a	wordpools/wordpool_EN.txt	SHARK	5	9	[0, 0, 0]	n/a	FR1	3	R1145J
1249.992	0.833	1261960	WORD_OFF	n/a	n/a	SHARK	5	9	[0, 0, 0]	n/a	FR1	3	R1145J
1250.825	1.601	1262793	WORD	n/a	wordpools/wordpool_EN.txt	CAVE	6	9	[0, 0, 0]	n/a	FR1	3	R1145J
1252.426	0.951	1264394	WORD_OFF	n/a	n/a	CAVE	6	9	[0, 0, 0]	n/a	FR1	3	R1145J
1253.377	1.615	1265345	WORD	n/a	wordpools/wordpool_EN.txt	MUD	7	9	[0, 0, 0]	n/a	FR1	3	R1145J
1254.992	0.917	1266960	WORD_OFF	n/a	n/a	MUD	7	9	[0, 0, 0]	n/a	FR1	3	R1145J
1255.909	1.618	1267877	WORD	n/a	wordpools/wordpool_EN.txt	FORK	8	9	[0, 0, 0]	n/a	FR1	3	R1145J
1257.527	0.983	1269495	WORD_OFF	n/a	n/a	FORK	8	9	[0, 0, 0]	n/a	FR1	3	R1145J
1258.51	1.617	1270478	WORD	n/a	wordpools/wordpool_EN.txt	CUP	9	9	[0, 0, 0]	n/a	FR1	3	R1145J
1260.127	1.001	1272095	WORD_OFF	n/a	n/a	CUP	9	9	[0, 0, 0]	n/a	FR1	3	R1145J
1261.128	1.616	1273096	WORD	n/a	wordpools/wordpool_EN.txt	SHIRT	10	9	[0, 0, 0]	n/a	FR1	3	R1145J
1262.744	0.966	1274712	WORD_OFF	n/a	n/a	SHIRT	10	9	[0, 0, 0]	n/a	FR1	3	R1145J
1263.71	1.601	1275678	WORD	n/a	wordpools/wordpool_EN.txt	GRAPE	11	9	[0, 0, 0]	n/a	FR1	3	R1145J
1265.311	0.784	1277279	WORD_OFF	n/a	n/a	GRAPE	11	9	[0, 0, 0]	n/a	FR1	3	R1145J
1266.095	1.616	1278063	WORD	n/a	wordpools/wordpool_EN.txt	PIT	12	9	[0, 0, 0]	n/a	FR1	3	R1145J
1267.711	0.0	1279679	WORD_OFF	n/a	n/a	PIT	12	9	[0, 0, 0]	n/a	FR1	3	R1145J
1267.711	0.0	1279679	DISTRACT_START	n/a	n/a	n/a	-999	9	[0, 0, 0]	n/a	FR1	3	R1145J
1267.711	0.016	1279679	START	n/a	n/a	n/a	-999	9	[-999, -999, -999]	n/a	FR1	3	R1145J
1267.727	4.519	1279695	PROB	4.519	n/a	n/a	-999	9	[6, 1, 1]	8	FR1	3	R1145J
1272.246	5.9	1284214	PROB	5.9	n/a	n/a	-999	9	[6, 4, 5]	15	FR1	3	R1145J
1278.146	10.093	1290114	PROB	10.093	n/a	n/a	-999	9	[3, 8, 7]	18	FR1	3	R1145J
1288.239	0.009	1300207	STOP	n/a	n/a	n/a	-999	9	[-999, -999, -999]	n/a	FR1	3	R1145J
1288.248	0.632	1300216	DISTRACT_END	n/a	n/a	n/a	-999	9	[0, 0, 0]	n/a	FR1	3	R1145J
1288.88	0.501	1300848	RETRIEVAL_ORIENT	n/a	n/a	n/a	-999	9	[0, 0, 0]	n/a	FR1	3	R1145J
1289.381	0.969	1301349	REC_START	n/a	n/a	n/a	-999	9	[0, 0, 0]	n/a	FR1	3	R1145J
1290.35	1.118	1302318	REC_WORD_VV	1.118	n/a	<>	-999	9	[0, 0, 0]	n/a	FR1	3	R1145J
1291.468	1.001	1303436	REC_WORD_VV	1.001	n/a	<>	-999	9	[0, 0, 0]	n/a	FR1	3	R1145J
1292.469	7.648	1304437	REC_WORD_VV	7.648	n/a	<>	-999	9	[0, 0, 0]	n/a	FR1	3	R1145J
1300.117	2.939	1312085	REC_WORD	2.939	n/a	MUD	7	9	[0, 0, 0]	n/a	FR1	3	R1145J
1303.056	0.696	1315024	REC_WORD_VV	0.696	n/a	<>	-999	9	[0, 0, 0]	n/a	FR1	3	R1145J
1303.752	0.86	1315720	REC_WORD_VV	0.86	n/a	<>	-999	9	[0, 0, 0]	n/a	FR1	3	R1145J
1304.612	5.689	1316580	REC_WORD_VV	5.689	n/a	<>	-999	9	[0, 0, 0]	n/a	FR1	3	R1145J
1310.301	3.421	1322269	REC_WORD_VV	3.421	n/a	<>	-999	9	[0, 0, 0]	n/a	FR1	3	R1145J
1313.722	2.898	1325690	REC_WORD	2.898	n/a	MUD	7	9	[0, 0, 0]	n/a	FR1	3	R1145J
1316.62	2.775	1328588	REC_WORD_VV	2.775	n/a	<>	-999	9	[0, 0, 0]	n/a	FR1	3	R1145J
1319.395	10.157	1331363	REC_END	n/a	n/a	n/a	-999	9	[0, 0, 0]	n/a	FR1	3	R1145J
1329.552	0.5	1341520	TRIAL	n/a	n/a	n/a	-999	10	[0, 0, 0]	n/a	FR1	3	R1145J
1330.052	10.428	1342020	COUNTDOWN_START	n/a	n/a	n/a	-999	10	[0, 0, 0]	n/a	FR1	3	R1145J
1340.48	0.008	1352448	COUNTDOWN_END	n/a	n/a	n/a	-999	10	[0, 0, 0]	n/a	FR1	3	R1145J
1340.488	1.617	1352456	ORIENT	n/a	n/a	n/a	-999	10	[0, 0, 0]	n/a	FR1	3	R1145J
1342.105	2.05	1354073	ORIENT_OFF	n/a	n/a	n/a	-999	10	[0, 0, 0]	n/a	FR1	3	R1145J
1344.155	1.615	1356123	WORD	n/a	wordpools/wordpool_EN.txt	DEER	1	10	[0, 0, 0]	n/a	FR1	3	R1145J
1345.77	0.801	1357738	WORD_OFF	n/a	n/a	DEER	1	10	[0, 0, 0]	n/a	FR1	3	R1145J
1346.571	1.618	1358539	WORD	n/a	wordpools/wordpool_EN.txt	FLEA	2	10	[0, 0, 0]	n/a	FR1	3	R1145J
1348.189	1.016	1360157	WORD_OFF	n/a	n/a	FLEA	2	10	[0, 0, 0]	n/a	FR1	3	R1145J
1349.205	1.616	1361173	WORD	n/a	wordpools/wordpool_EN.txt	PET	3	10	[0, 0, 0]	n/a	FR1	3	R1145J
1350.821	0.917	1362789	WORD_OFF	n/a	n/a	PET	3	10	[0, 0, 0]	n/a	FR1	3	R1145J
1351.738	1.618	1363706	WORD	n/a	wordpools/wordpool_EN.txt	STORM	4	10	[0, 0, 0]	n/a	FR1	3	R1145J
1353.356	0.883	1365324	WORD_OFF	n/a	n/a	STORM	4	10	[0, 0, 0]	n/a	FR1	3	R1145J
1354.239	1.616	1366207	WORD	n/a	wordpools/wordpool_EN.txt	LAWN	5	10	[0, 0, 0]	n/a	FR1	3	R1145J
1355.855	0.767	1367823	WORD_OFF	n/a	n/a	LAWN	5	10	[0, 0, 0]	n/a	FR1	3	R1145J
1356.622	1.618	1368590	WORD	n/a	wordpools/wordpool_EN.txt	OAR	6	10	[0, 0, 0]	n/a	FR1	3	R1145J
1358.24	0.8	1370208	WORD_OFF	n/a	n/a	OAR	6	10	[0, 0, 0]	n/a	FR1	3	R1145J
1359.04	1.616	1371008	WORD	n/a	wordpools/wordpool_EN.txt	FENCE	7	10	[0, 0, 0]	n/a	FR1	3	R1145J
1360.656	0.95	1372624	WORD_OFF	n/a	n/a	FENCE	7	10	[0, 0, 0]	n/a	FR1	3	R1145J
1361.606	1.618	1373574	WORD	n/a	wordpools/wordpool_EN.txt	OWL	8	10	[0, 0, 0]	n/a	FR1	3	R1145J
1363.224	0.983	1375192	WORD_OFF	n/a	n/a	OWL	8	10	[0, 0, 0]	n/a	FR1	3	R1145J
1364.207	1.616	1376175	WORD	n/a	wordpools/wordpool_EN.txt	SKY	9	10	[0, 0, 0]	n/a	FR1	3	R1145J
1365.823	0.984	1377791	WORD_OFF	n/a	n/a	SKY	9	10	[0, 0, 0]	n/a	FR1	3	R1145J
1366.807	1.617	1378775	WORD	n/a	wordpools/wordpool_EN.txt	OAK	10	10	[0, 0, 0]	n/a	FR1	3	R1145J
1368.424	0.767	1380392	WORD_OFF	n/a	n/a	OAK	10	10	[0, 0, 0]	n/a	FR1	3	R1145J
1369.191	1.616	1381159	WORD	n/a	wordpools/wordpool_EN.txt	PARK	11	10	[0, 0, 0]	n/a	FR1	3	R1145J
1370.807	0.85	1382775	WORD_OFF	n/a	n/a	PARK	11	10	[0, 0, 0]	n/a	FR1	3	R1145J
1371.657	1.618	1383624	WORD	n/a	wordpools/wordpool_EN.txt	PIG	12	10	[0, 0, 0]	n/a	FR1	3	R1145J
1373.275	0.0	1385242	WORD_OFF	n/a	n/a	PIG	12	10	[0, 0, 0]	n/a	FR1	3	R1145J
1373.275	0.001	1385242	DISTRACT_START	n/a	n/a	n/a	-999	10	[0, 0, 0]	n/a	FR1	3	R1145J
1373.276	0.016	1385243	START	n/a	n/a	n/a	-999	10	[-999, -999, -999]	n/a	FR1	3	R1145J
1373.292	11.718	1385259	PROB	11.718	n/a	n/a	-999	10	[8, 1, 9]	18	FR1	3	R1145J
1385.01	4.017	1396977	PROB	4.017	n/a	n/a	-999	10	[3, 7, 8]	18	FR1	3	R1145J
1389.027	7.239	1400994	PROB	7.239	n/a	n/a	-999	10	[7, 6, 2]	15	FR1	3	R1145J
1396.266	0.012	1408233	STOP	n/a	n/a	n/a	-999	10	[-999, -999, -999]	n/a	FR1	3	R1145J
1396.278	0.516	1408245	DISTRACT_END	n/a	n/a	n/a	-999	10	[0, 0, 0]	n/a	FR1	3	R1145J
1396.794	0.518	1408761	RETRIEVAL_ORIENT	n/a	n/a	n/a	-999	10	[0, 0, 0]	n/a	FR1	3	R1145J
1397.312	2.529	1409279	REC_START	n/a	n/a	n/a	-999	10	[0, 0, 0]	n/a	FR1	3	R1145J
1399.841	1.135	1411808	REC_WORD	1.135	n/a	OAR	6	10	[0, 0, 0]	n/a	FR1	3	R1145J
1400.976	1.302	1412943	REC_WORD	1.302	n/a	OAK	10	10	[0, 0, 0]	n/a	FR1	3	R1145J
1402.278	1.819	1414245	REC_WORD	1.819	n/a	PIG	12	10	[0, 0, 0]	n/a	FR1	3	R1145J
1404.097	1.787	1416064	REC_WORD	1.787	n/a	DEER	1	10	[0, 0, 0]	n/a	FR1	3	R1145J
1405.884	2.224	1417851	REC_WORD	2.224	n/a	FLEA	2	10	[0, 0, 0]	n/a	FR1	3	R1145J
1408.108	4.217	1420075	REC_WORD	4.217	n/a	PET	3	10	[0, 0, 0]	n/a	FR1	3	R1145J
1412.325	6.769	1424292	REC_WORD	6.769	n/a	PARK	11	10	[0, 0, 0]	n/a	FR1	3	R1145J
1419.094	1.513	1431061	REC_WORD	1.513	n/a	DEER	1	10	[0, 0, 0]	n/a	FR1	3	R1145J
1420.607	4.877	1432574	REC_WORD_VV	4.877	n/a	<>	-999	10	[0, 0, 0]	n/a	FR1	3	R1145J
1425.484	1.839	1437451	REC_WORD	1.839	n/a	SKY	9	10	[0, 0, 0]	n/a	FR1	3	R1145J
1427.323	5.542	1439290	REC_END	n/a	n/a	n/a	-999	10	[0, 0, 0]	n/a	FR1	3	R1145J
1432.865	0.5	1444832	TRIAL	n/a	n/a	n/a	-999	11	[0, 0, 0]	n/a	FR1	3	R1145J
1433.365	10.428	1445332	COUNTDOWN_START	n/a	n/a	n/a	-999	11	[0, 0, 0]	n/a	FR1	3	R1145J
1443.793	0.007	1455760	COUNTDOWN_END	n/a	n/a	n/a	-999	11	[0, 0, 0]	n/a	FR1	3	R1145J
1443.8	1.618	1455767	ORIENT	n/a	n/a	n/a	-999	11	[0, 0, 0]	n/a	FR1	3	R1145J
1445.418	2.216	1457385	ORIENT_OFF	n/a	n/a	n/a	-999	11	[0, 0, 0]	n/a	FR1	3	R1145J
1447.634	1.617	1459601	WORD	n/a	wordpools/wordpool_EN.txt	STOVE	1	11	[0, 0, 0]	n/a	FR1	3	R1145J
1449.251	0.951	1461218	WORD_OFF	n/a	n/a	STOVE	1	11	[0, 0, 0]	n/a	FR1	3	R1145J
1450.202	1.616	1462169	WORD	n/a	wordpools/wordpool_EN.txt	FOAM	2	11	[0, 0, 0]	n/a	FR1	3	R1145J
1451.818	0.833	1463785	WORD_OFF	n/a	n/a	FOAM	2	11	[0, 0, 0]	n/a	FR1	3	R1145J
1452.651	1.618	1464618	WORD	n/a	wordpools/wordpool_EN.txt	ARK	3	11	[0, 0, 0]	n/a	FR1	3	R1145J
1454.269	0.983	1466236	WORD_OFF	n/a	n/a	ARK	3	11	[0, 0, 0]	n/a	FR1	3	R1145J
1455.252	1.616	1467219	WORD	n/a	wordpools/wordpool_EN.txt	BEE	4	11	[0, 0, 0]	n/a	FR1	3	R1145J
1456.868	0.967	1468835	WORD_OFF	n/a	n/a	BEE	4	11	[0, 0, 0]	n/a	FR1	3	R1145J
1457.835	1.618	1469802	WORD	n/a	wordpools/wordpool_EN.txt	JAR	5	11	[0, 0, 0]	n/a	FR1	3	R1145J
1459.453	0.866	1471420	WORD_OFF	n/a	n/a	JAR	5	11	[0, 0, 0]	n/a	FR1	3	R1145J
1460.319	1.617	1472286	WORD	n/a	wordpools/wordpool_EN.txt	FLAME	6	11	[0, 0, 0]	n/a	FR1	3	R1145J
1461.936	0.966	1473903	WORD_OFF	n/a	n/a	FLAME	6	11	[0, 0, 0]	n/a	FR1	3	R1145J
1462.902	1.618	1474869	WORD	n/a	wordpools/wordpool_EN.txt	CAKE	7	11	[0, 0, 0]	n/a	FR1	3	R1145J
1464.52	0.767	1476487	WORD_OFF	n/a	n/a	CAKE	7	11	[0, 0, 0]	n/a	FR1	3	R1145J
1465.287	1.616	1477254	WORD	n/a	wordpools/wordpool_EN.txt	SHRIMP	8	11	[0, 0, 0]	n/a	FR1	3	R1145J
1466.903	0.816	1478870	WORD_OFF	n/a	n/a	SHRIMP	8	11	[0, 0, 0]	n/a	FR1	3	R1145J
1467.719	1.601	1479686	WORD	n/a	wordpools/wordpool_EN.txt	POND	9	11	[0, 0, 0]	n/a	FR1	3	R1145J
1469.32	0.801	1481287	WORD_OFF	n/a	n/a	POND	9	11	[0, 0, 0]	n/a	FR1	3	R1145J
1470.121	1.616	1482088	WORD	n/a	wordpools/wordpool_EN.txt	CHALK	10	11	[0, 0, 0]	n/a	FR1	3	R1145J
1471.737	0.768	1483704	WORD_OFF	n/a	n/a	CHALK	10	11	[0, 0, 0]	n/a	FR1	3	R1145J
1472.505	1.616	1484472	WORD	n/a	wordpools/wordpool_EN.txt	SPOON	11	11	[0, 0, 0]	n/a	FR1	3	R1145J
1474.121	0.833	1486088	WORD_OFF	n/a	n/a	SPOON	11	11	[0, 0, 0]	n/a	FR1	3	R1145J
1474.954	1.617	1486921	WORD	n/a	wordpools/wordpool_EN.txt	GLASS	12	11	[0, 0, 0]	n/a	FR1	3	R1145J
1476.571	0.0	1488538	WORD_OFF	n/a	n/a	GLASS	12	11	[0, 0, 0]	n/a	FR1	3	R1145J
1476.571	0.0	1488538	DISTRACT_START	n/a	n/a	n/a	-999	11	[0, 0, 0]	n/a	FR1	3	R1145J
1476.571	0.016	1488538	START	n/a	n/a	n/a	-999	11	[-999, -999, -999]	n/a	FR1	3	R1145J
1476.587	6.168	1488554	PROB	6.168	n/a	n/a	-999	11	[3, 4, 5]	12	FR1	3	R1145J
1482.755	18.739	1494722	PROB	18.739	n/a	n/a	-999	11	[9, 9, 8]	26	FR1	3	R1145J
1501.494	0.014	1513461	STOP	n/a	n/a	n/a	-999	11	[-999, -999, -999]	n/a	FR1	3	R1145J
1501.508	0.617	1513475	DISTRACT_END	n/a	n/a	n/a	-999	11	[0, 0, 0]	n/a	FR1	3	R1145J
1502.125	0.517	1514092	RETRIEVAL_ORIENT	n/a	n/a	n/a	-999	11	[0, 0, 0]	n/a	FR1	3	R1145J
1502.642	2.167	1514609	REC_START	n/a	n/a	n/a	-999	11	[0, 0, 0]	n/a	FR1	3	R1145J
1504.809	1.038	1516775	REC_WORD	1.038	n/a	CHALK	10	11	[0, 0, 0]	n/a	FR1	3	R1145J
1505.847	3.894	1517813	REC_WORD	3.894	n/a	POND	9	11	[0, 0, 0]	n/a	FR1	3	R1145J
1509.741	1.568	1521707	REC_WORD_VV	1.568	n/a	<>	-999	11	[0, 0, 0]	n/a	FR1	3	R1145J
1511.309	4.946	1523275	REC_WORD	4.946	n/a	CHALK	10	11	[0, 0, 0]	n/a	FR1	3	R1145J
1516.255	13.414	1528221	REC_WORD	13.414	n/a	CHALK	10	11	[0, 0, 0]	n/a	FR1	3	R1145J
1529.669	2.986	1541635	REC_WORD_VV	2.986	n/a	<>	-999	11	[0, 0, 0]	n/a	FR1	3	R1145J
1532.655	5.89	1544621	REC_END	n/a	n/a	n/a	-999	11	[0, 0, 0]	n/a	FR1	3	R1145J
1538.545	0.5	1550511	TRIAL	n/a	n/a	n/a	-999	12	[0, 0, 0]	n/a	FR1	3	R1145J
1539.045	10.428	1551011	COUNTDOWN_START	n/a	n/a	n/a	-999	12	[0, 0, 0]	n/a	FR1	3	R1145J
1549.473	0.008	1561439	COUNTDOWN_END	n/a	n/a	n/a	-999	12	[0, 0, 0]	n/a	FR1	3	R1145J
1549.481	1.617	1561447	ORIENT	n/a	n/a	n/a	-999	12	[0, 0, 0]	n/a	FR1	3	R1145J
1551.098	2.334	1563064	ORIENT_OFF	n/a	n/a	n/a	-999	12	[0, 0, 0]	n/a	FR1	3	R1145J
1553.432	1.616	1565398	WORD	n/a	wordpools/wordpool_EN.txt	TEETH	1	12	[0, 0, 0]	n/a	FR1	3	R1145J
1555.048	0.949	1567014	WORD_OFF	n/a	n/a	TEETH	1	12	[0, 0, 0]	n/a	FR1	3	R1145J
1555.997	1.617	1567963	WORD	n/a	wordpools/wordpool_EN.txt	BOOT	2	12	[0, 0, 0]	n/a	FR1	3	R1145J
1557.614	0.918	1569580	WORD_OFF	n/a	n/a	BOOT	2	12	[0, 0, 0]	n/a	FR1	3	R1145J
1558.532	1.617	1570498	WORD	n/a	wordpools/wordpool_EN.txt	TOY	3	12	[0, 0, 0]	n/a	FR1	3	R1145J
1560.149	0.799	1572115	WORD_OFF	n/a	n/a	TOY	3	12	[0, 0, 0]	n/a	FR1	3	R1145J
1560.948	1.617	1572914	WORD	n/a	wordpools/wordpool_EN.txt	SHOE	4	12	[0, 0, 0]	n/a	FR1	3	R1145J
1562.565	1.0	1574531	WORD_OFF	n/a	n/a	SHOE	4	12	[0, 0, 0]	n/a	FR1	3	R1145J
1563.565	1.618	1575531	WORD	n/a	wordpools/wordpool_EN.txt	AXE	5	12	[0, 0, 0]	n/a	FR1	3	R1145J
1565.183	0.983	1577149	WORD_OFF	n/a	n/a	AXE	5	12	[0, 0, 0]	n/a	FR1	3	R1145J
1566.166	1.616	1578132	WORD	n/a	wordpools/wordpool_EN.txt	YARD	6	12	[0, 0, 0]	n/a	FR1	3	R1145J
1567.782	0.834	1579748	WORD_OFF	n/a	n/a	YARD	6	12	[0, 0, 0]	n/a	FR1	3	R1145J
1568.616	1.618	1580582	WORD	n/a	wordpools/wordpool_EN.txt	STOOL	7	12	[0, 0, 0]	n/a	FR1	3	R1145J
1570.234	0.866	1582200	WORD_OFF	n/a	n/a	STOOL	7	12	[0, 0, 0]	n/a	FR1	3	R1145J
1571.1	1.616	1583066	WORD	n/a	wordpools/wordpool_EN.txt	FOOT	8	12	[0, 0, 0]	n/a	FR1	3	R1145J
1572.716	0.801	1584682	WORD_OFF	n/a	n/a	FOOT	8	12	[0, 0, 0]	n/a	FR1	3	R1145J
1573.517	1.617	1585483	WORD	n/a	wordpools/wordpool_EN.txt	BED	9	12	[0, 0, 0]	n/a	FR1	3	R1145J
1575.134	0.967	1587100	WORD_OFF	n/a	n/a	BED	9	12	[0, 0, 0]	n/a	FR1	3	R1145J
1576.101	1.616	1588067	WORD	n/a	wordpools/wordpool_EN.txt	STRAW	10	12	[0, 0, 0]	n/a	FR1	3	R1145J
1577.717	0.784	1589683	WORD_OFF	n/a	n/a	STRAW	10	12	[0, 0, 0]	n/a	FR1	3	R1145J
1578.501	1.617	1590467	WORD	n/a	wordpools/wordpool_EN.txt	BENCH	11	12	[0, 0, 0]	n/a	FR1	3	R1145J
1580.118	0.984	1592084	WORD_OFF	n/a	n/a	BENCH	11	12	[0, 0, 0]	n/a	FR1	3	R1145J
1581.102	1.615	1593068	WORD	n/a	wordpools/wordpool_EN.txt	LOCK	12	12	[0, 0, 0]	n/a	FR1	3	R1145J
1582.717	0.0	1594683	WORD_OFF	n/a	n/a	LOCK	12	12	[0, 0, 0]	n/a	FR1	3	R1145J
1582.717	0.001	1594683	DISTRACT_START	n/a	n/a	n/a	-999	12	[0, 0, 0]	n/a	FR1	3	R1145J
1582.718	0.016	1594684	START	n/a	n/a	n/a	-999	12	[-999, -999, -999]	n/a	FR1	3	R1145J
1582.734	5.702	1594700	PROB	5.702	n/a	n/a	-999	12	[4, 1, 2]	7	FR1	3	R1145J
1588.436	8.067	1600402	PROB	8.067	n/a	n/a	-999	12	[4, 2, 1]	7	FR1	3	R1145J
1596.503	8.979	1608469	PROB	8.979	n/a	n/a	-999	12	[8, 2, 6]	16	FR1	3	R1145J
1605.482	0.023	1617448	STOP	n/a	n/a	n/a	-999	12	[-999, -999, -999]	n/a	FR1	3	R1145J
1605.505	0.633	1617471	DISTRACT_END	n/a	n/a	n/a	-999	12	[0, 0, 0]	n/a	FR1	3	R1145J
1606.138	0.517	1618104	RETRIEVAL_ORIENT	n/a	n/a	n/a	-999	12	[0, 0, 0]	n/a	FR1	3	R1145J
1606.655	2.994	1618621	REC_START	n/a	n/a	n/a	-999	12	[0, 0, 0]	n/a	FR1	3	R1145J
1609.649	1.117	1621615	REC_WORD	1.117	n/a	TEETH	1	12	[0, 0, 0]	n/a	FR1	3	R1145J
1610.766	2.433	1622732	REC_WORD	2.433	n/a	LOCK	12	12	[0, 0, 0]	n/a	FR1	3	R1145J
1613.199	4.873	1625165	REC_WORD	4.873	n/a	AXE	5	12	[0, 0, 0]	n/a	FR1	3	R1145J
1618.072	1.035	1630038	REC_WORD_VV	1.035	n/a	<>	-999	12	[0, 0, 0]	n/a	FR1	3	R1145J
1619.107	2.591	1631073	REC_WORD_VV	2.591	n/a	<>	-999	12	[0, 0, 0]	n/a	FR1	3	R1145J
1621.698	8.798	1633664	REC_WORD_VV	8.798	n/a	<>	-999	12	[0, 0, 0]	n/a	FR1	3	R1145J
1630.496	6.17	1642462	REC_WORD_VV	6.17	n/a	<>	-999	12	[0, 0, 0]	n/a	FR1	3	R1145J
1636.666	4.877	1648632	REC_END	n/a	n/a	n/a	-999	12	[0, 0, 0]	n/a	FR1	3	R1145J
1641.543	0.5	1653508	TRIAL	n/a	n/a	n/a	-999	13	[0, 0, 0]	n/a	FR1	3	R1145J
1642.043	10.428	1654008	COUNTDOWN_START	n/a	n/a	n/a	-999	13	[0, 0, 0]	n/a	FR1	3	R1145J
1652.471	0.007	1664436	COUNTDOWN_END	n/a	n/a	n/a	-999	13	[0, 0, 0]	n/a	FR1	3	R1145J
1652.478	1.616	1664443	ORIENT	n/a	n/a	n/a	-999	13	[0, 0, 0]	n/a	FR1	3	R1145J
1654.094	2.1	1666059	ORIENT_OFF	n/a	n/a	n/a	-999	13	[0, 0, 0]	n/a	FR1	3	R1145J
1656.194	1.616	1668159	WORD	n/a	wordpools/wordpool_EN.txt	BADGE	1	13	[0, 0, 0]	n/a	FR1	3	R1145J
1657.81	1.001	1669775	WORD_OFF	n/a	n/a	BADGE	1	13	[0, 0, 0]	n/a	FR1	3	R1145J
1658.811	1.618	1670776	WORD	n/a	wordpools/wordpool_EN.txt	FACE	2	13	[0, 0, 0]	n/a	FR1	3	R1145J
1660.429	0.983	1672394	WORD_OFF	n/a	n/a	FACE	2	13	[0, 0, 0]	n/a	FR1	3	R1145J
1661.412	1.617	1673377	WORD	n/a	wordpools/wordpool_EN.txt	CRANE	3	13	[0, 0, 0]	n/a	FR1	3	R1145J
1663.029	0.932	1674994	WORD_OFF	n/a	n/a	CRANE	3	13	[0, 0, 0]	n/a	FR1	3	R1145J
1663.961	1.617	1675926	WORD	n/a	wordpools/wordpool_EN.txt	SIGN	4	13	[0, 0, 0]	n/a	FR1	3	R1145J
1665.578	0.868	1677543	WORD_OFF	n/a	n/a	SIGN	4	13	[0, 0, 0]	n/a	FR1	3	R1145J
1666.446	1.617	1678411	WORD	n/a	wordpools/wordpool_EN.txt	FLAG	5	13	[0, 0, 0]	n/a	FR1	3	R1145J
1668.063	1.0	1680028	WORD_OFF	n/a	n/a	FLAG	5	13	[0, 0, 0]	n/a	FR1	3	R1145J
1669.063	1.616	1681028	WORD	n/a	wordpools/wordpool_EN.txt	JUDGE	6	13	[0, 0, 0]	n/a	FR1	3	R1145J
1670.679	0.95	1682644	WORD_OFF	n/a	n/a	JUDGE	6	13	[0, 0, 0]	n/a	FR1	3	R1145J
1671.629	1.601	1683594	WORD	n/a	wordpools/wordpool_EN.txt	STREET	7	13	[0, 0, 0]	n/a	FR1	3	R1145J
1673.23	0.8	1685195	WORD_OFF	n/a	n/a	STREET	7	13	[0, 0, 0]	n/a	FR1	3	R1145J
1674.03	1.616	1685995	WORD	n/a	wordpools/wordpool_EN.txt	BAND	8	13	[0, 0, 0]	n/a	FR1	3	R1145J
1675.646	0.917	1687611	WORD_OFF	n/a	n/a	BAND	8	13	[0, 0, 0]	n/a	FR1	3	R1145J
1676.563	1.618	1688528	WORD	n/a	wordpools/wordpool_EN.txt	JAIL	9	13	[0, 0, 0]	n/a	FR1	3	R1145J
1678.181	0.95	1690146	WORD_OFF	n/a	n/a	JAIL	9	13	[0, 0, 0]	n/a	FR1	3	R1145J
1679.131	1.616	1691096	WORD	n/a	wordpools/wordpool_EN.txt	POOL	10	13	[0, 0, 0]	n/a	FR1	3	R1145J
1680.747	0.933	1692712	WORD_OFF	n/a	n/a	POOL	10	13	[0, 0, 0]	n/a	FR1	3	R1145J
1681.68	1.601	1693645	WORD	n/a	wordpools/wordpool_EN.txt	SLUSH	11	13	[0, 0, 0]	n/a	FR1	3	R1145J
1683.281	0.967	1695246	WORD_OFF	n/a	n/a	SLUSH	11	13	[0, 0, 0]	n/a	FR1	3	R1145J
1684.248	1.616	1696213	WORD	n/a	wordpools/wordpool_EN.txt	HAT	12	13	[0, 0, 0]	n/a	FR1	3	R1145J
1685.864	0.0	1697829	WORD_OFF	n/a	n/a	HAT	12	13	[0, 0, 0]	n/a	FR1	3	R1145J
1685.864	0.001	1697829	DISTRACT_START	n/a	n/a	n/a	-999	13	[0, 0, 0]	n/a	FR1	3	R1145J
1685.865	0.016	1697830	START	n/a	n/a	n/a	-999	13	[-999, -999, -999]	n/a	FR1	3	R1145J
1685.881	4.551	1697846	PROB	4.551	n/a	n/a	-999	13	[1, 6, 7]	14	FR1	3	R1145J
1690.432	6.901	1702397	PROB	6.901	n/a	n/a	-999	13	[5, 1, 4]	10	FR1	3	R1145J
1697.333	5.617	1709298	PROB	5.617	n/a	n/a	-999	13	[5, 1, 8]	14	FR1	3	R1145J
1702.95	5.112	1714915	PROB	5.112	n/a	n/a	-999	13	[2, 5, 1]	8	FR1	3	R1145J
1708.062	0.022	1720027	STOP	n/a	n/a	n/a	-999	13	[-999, -999, -999]	n/a	FR1	3	R1145J
1708.084	0.65	1720049	DISTRACT_END	n/a	n/a	n/a	-999	13	[0, 0, 0]	n/a	FR1	3	R1145J
1708.734	0.518	1720699	RETRIEVAL_ORIENT	n/a	n/a	n/a	-999	13	[0, 0, 0]	n/a	FR1	3	R1145J
1709.252	2.377	1721217	REC_START	n/a	n/a	n/a	-999	13	[0, 0, 0]	n/a	FR1	3	R1145J
1711.629	1.078	1723594	REC_WORD	1.078	n/a	TEETH	-999	13	[0, 0, 0]	n/a	FR1	3	R1145J
1712.707	1.094	1724672	REC_WORD	1.094	n/a	BADGE	1	13	[0, 0, 0]	n/a	FR1	3	R1145J
1713.801	5.097	1725766	REC_WORD	5.097	n/a	JUDGE	6	13	[0, 0, 0]	n/a	FR1	3	R1145J
1718.898	0.313	1730863	REC_WORD_VV	0.313	n/a	<>	-999	13	[0, 0, 0]	n/a	FR1	3	R1145J
1719.211	6.236	1731176	REC_WORD	6.236	n/a	STREET	7	13	[0, 0, 0]	n/a	FR1	3	R1145J
1725.447	1.185	1737412	REC_WORD_VV	1.185	n/a	<>	-999	13	[0, 0, 0]	n/a	FR1	3	R1145J
1726.632	4.778	1738597	REC_WORD_VV	4.778	n/a	<>	-999	13	[0, 0, 0]	n/a	FR1	3	R1145J
1731.41	7.855	1743375	REC_WORD	7.855	n/a	SEAL	-999	13	[0, 0, 0]	n/a	FR1	3	R1145J
1739.265	4.957	1751230	REC_END	n/a	n/a	n/a	-999	13	[0, 0, 0]	n/a	FR1	3	R1145J
1744.222	0.5	1756187	TRIAL	n/a	n/a	n/a	-999	14	[0, 0, 0]	n/a	FR1	3	R1145J
1744.722	10.428	1756687	COUNTDOWN_START	n/a	n/a	n/a	-999	14	[0, 0, 0]	n/a	FR1	3	R1145J
1755.15	0.007	1767115	COUNTDOWN_END	n/a	n/a	n/a	-999	14	[0, 0, 0]	n/a	FR1	3	R1145J
1755.157	1.616	1767122	ORIENT	n/a	n/a	n/a	-999	14	[0, 0, 0]	n/a	FR1	3	R1145J
1756.773	2.15	1768738	ORIENT_OFF	n/a	n/a	n/a	-999	14	[0, 0, 0]	n/a	FR1	3	R1145J
1758.923	1.601	1770888	WORD	n/a	wordpools/wordpool_EN.txt	PEA	1	14	[0, 0, 0]	n/a	FR1	3	R1145J
1760.524	0.784	1772489	WORD_OFF	n/a	n/a	PEA	1	14	[0, 0, 0]	n/a	FR1	3	R1145J
1761.308	1.616	1773273	WORD	n/a	wordpools/wordpool_EN.txt	BOOK	2	14	[0, 0, 0]	n/a	FR1	3	R1145J
1762.924	0.85	1774889	WORD_OFF	n/a	n/a	BOOK	2	14	[0, 0, 0]	n/a	FR1	3	R1145J
1763.774	1.618	1775739	WORD	n/a	wordpools/wordpool_EN.txt	DRUM	3	14	[0, 0, 0]	n/a	FR1	3	R1145J
1765.392	0.85	1777357	WORD_OFF	n/a	n/a	DRUM	3	14	[0, 0, 0]	n/a	FR1	3	R1145J
1766.242	1.616	1778207	WORD	n/a	wordpools/wordpool_EN.txt	PHONE	4	14	[0, 0, 0]	n/a	FR1	3	R1145J
1767.858	0.9	1779823	WORD_OFF	n/a	n/a	PHONE	4	14	[0, 0, 0]	n/a	FR1	3	R1145J
1768.758	1.601	1780723	WORD	n/a	wordpools/wordpool_EN.txt	KEY	5	14	[0, 0, 0]	n/a	FR1	3	R1145J
1770.359	0.767	1782323	WORD_OFF	n/a	n/a	KEY	5	14	[0, 0, 0]	n/a	FR1	3	R1145J
1771.126	1.616	1783090	WORD	n/a	wordpools/wordpool_EN.txt	WING	6	14	[0, 0, 0]	n/a	FR1	3	R1145J
1772.742	0.866	1784706	WORD_OFF	n/a	n/a	WING	6	14	[0, 0, 0]	n/a	FR1	3	R1145J
1773.608	1.618	1785572	WORD	n/a	wordpools/wordpool_EN.txt	HEART	7	14	[0, 0, 0]	n/a	FR1	3	R1145J
1775.226	1.0	1787190	WORD_OFF	n/a	n/a	HEART	7	14	[0, 0, 0]	n/a	FR1	3	R1145J
1776.226	1.616	1788190	WORD	n/a	wordpools/wordpool_EN.txt	SHEET	8	14	[0, 0, 0]	n/a	FR1	3	R1145J
1777.842	0.967	1789806	WORD_OFF	n/a	n/a	SHEET	8	14	[0, 0, 0]	n/a	FR1	3	R1145J
1778.809	1.618	1790773	WORD	n/a	wordpools/wordpool_EN.txt	WAVE	9	14	[0, 0, 0]	n/a	FR1	3	R1145J
1780.427	0.934	1792391	WORD_OFF	n/a	n/a	WAVE	9	14	[0, 0, 0]	n/a	FR1	3	R1145J
1781.361	1.616	1793325	WORD	n/a	wordpools/wordpool_EN.txt	WHEEL	10	14	[0, 0, 0]	n/a	FR1	3	R1145J
1782.977	0.816	1794941	WORD_OFF	n/a	n/a	WHEEL	10	14	[0, 0, 0]	n/a	FR1	3	R1145J
1783.793	1.618	1795757	WORD	n/a	wordpools/wordpool_EN.txt	STEAM	11	14	[0, 0, 0]	n/a	FR1	3	R1145J
1785.411	0.983	1797375	WORD_OFF	n/a	n/a	STEAM	11	14	[0, 0, 0]	n/a	FR1	3	R1145J
1786.394	1.617	1798358	WORD	n/a	wordpools/wordpool_EN.txt	BOMB	12	14	[0, 0, 0]	n/a	FR1	3	R1145J
1788.011	0.0	1799975	WORD_OFF	n/a	n/a	BOMB	12	14	[0, 0, 0]	n/a	FR1	3	R1145J
1788.011	0.001	1799975	DISTRACT_START	n/a	n/a	n/a	-999	14	[0, 0, 0]	n/a	FR1	3	R1145J
1788.012	0.016	1799976	START	n/a	n/a	n/a	-999	14	[-999, -999, -999]	n/a	FR1	3	R1145J
1788.028	4.7	1799992	PROB	4.7	n/a	n/a	-999	14	[6, 1, 1]	8	FR1	3	R1145J
1792.728	4.518	1804692	PROB	4.518	n/a	n/a	-999	14	[2, 9, 7]	18	FR1	3	R1145J
1797.246	4.767	1809210	PROB	4.767	n/a	n/a	-999	14	[7, 2, 9]	18	FR1	3	R1145J
1802.013	5.201	1813977	PROB	5.201	n/a	n/a	-999	14	[2, 8, 3]	13	FR1	3	R1145J
1807.214	7.665	1819178	PROB	7.665	n/a	n/a	-999	14	[3, 4, 2]	9	FR1	3	R1145J
1814.879	0.018	1826843	STOP	n/a	n/a	n/a	-999	14	[-999, -999, -999]	n/a	FR1	3	R1145J
1814.897	0.667	1826861	DISTRACT_END	n/a	n/a	n/a	-999	14	[0, 0, 0]	n/a	FR1	3	R1145J
1815.564	0.518	1827528	RETRIEVAL_ORIENT	n/a	n/a	n/a	-999	14	[0, 0, 0]	n/a	FR1	3	R1145J
1816.082	1.564	1828046	REC_START	n/a	n/a	n/a	-999	14	[0, 0, 0]	n/a	FR1	3	R1145J
1817.646	0.76	1829610	REC_WORD	0.76	n/a	WING	6	14	[0, 0, 0]	n/a	FR1	3	R1145J
1818.406	1.274	1830370	REC_WORD	1.274	n/a	HEART	7	14	[0, 0, 0]	n/a	FR1	3	R1145J
1819.68	1.886	1831644	REC_WORD	1.886	n/a	WAVE	9	14	[0, 0, 0]	n/a	FR1	3	R1145J
1821.566	6.899	1833530	REC_WORD	6.899	n/a	SHEET	8	14	[0, 0, 0]	n/a	FR1	3	R1145J
1828.465	0.446	1840429	REC_WORD	0.446	n/a	WING	6	14	[0, 0, 0]	n/a	FR1	3	R1145J
1828.911	0.395	1840875	REC_WORD	0.395	n/a	HEART	7	14	[0, 0, 0]	n/a	FR1	3	R1145J
1829.306	0.933	1841270	REC_WORD	0.933	n/a	WAVE	9	14	[0, 0, 0]	n/a	FR1	3	R1145J
1830.239	3.527	1842203	REC_WORD	3.527	n/a	SHEET	8	14	[0, 0, 0]	n/a	FR1	3	R1145J
1833.766	12.327	1845730	REC_WORD_VV	12.327	n/a	<>	-999	14	[0, 0, 0]	n/a	FR1	3	R1145J
1846.093	6.377	1858057	REC_END	n/a	n/a	n/a	-999	14	[0, 0, 0]	n/a	FR1	3	R1145J
1852.47	0.5	1864434	TRIAL	n/a	n/a	n/a	-999	15	[0, 0, 0]	n/a	FR1	3	R1145J
1852.97	10.428	1864934	COUNTDOWN_START	n/a	n/a	n/a	-999	15	[0, 0, 0]	n/a	FR1	3	R1145J
1863.398	0.006	1875362	COUNTDOWN_END	n/a	n/a	n/a	-999	15	[0, 0, 0]	n/a	FR1	3	R1145J
1863.404	1.617	1875368	ORIENT	n/a	n/a	n/a	-999	15	[0, 0, 0]	n/a	FR1	3	R1145J
1865.021	1.966	1876985	ORIENT_OFF	n/a	n/a	n/a	-999	15	[0, 0, 0]	n/a	FR1	3	R1145J
1866.987	1.617	1878951	WORD	n/a	wordpools/wordpool_EN.txt	CAT	1	15	[0, 0, 0]	n/a	FR1	3	R1145J
1868.604	0.784	1880568	WORD_OFF	n/a	n/a	CAT	1	15	[0, 0, 0]	n/a	FR1	3	R1145J
1869.388	1.617	1881352	WORD	n/a	wordpools/wordpool_EN.txt	SNAKE	2	15	[0, 0, 0]	n/a	FR1	3	R1145J
1871.005	0.916	1882969	WORD_OFF	n/a	n/a	SNAKE	2	15	[0, 0, 0]	n/a	FR1	3	R1145J
1871.921	1.618	1883885	WORD	n/a	wordpools/wordpool_EN.txt	GRASS	3	15	[0, 0, 0]	n/a	FR1	3	R1145J
1873.539	0.883	1885503	WORD_OFF	n/a	n/a	GRASS	3	15	[0, 0, 0]	n/a	FR1	3	R1145J
1874.422	1.617	1886386	WORD	n/a	wordpools/wordpool_EN.txt	BIRD	4	15	[0, 0, 0]	n/a	FR1	3	R1145J
1876.039	0.883	1888003	WORD_OFF	n/a	n/a	BIRD	4	15	[0, 0, 0]	n/a	FR1	3	R1145J
1876.922	1.617	1888886	WORD	n/a	wordpools/wordpool_EN.txt	CLOUD	5	15	[0, 0, 0]	n/a	FR1	3	R1145J
1878.539	0.917	1890503	WORD_OFF	n/a	n/a	CLOUD	5	15	[0, 0, 0]	n/a	FR1	3	R1145J
1879.456	1.617	1891420	WORD	n/a	wordpools/wordpool_EN.txt	SKUNK	6	15	[0, 0, 0]	n/a	FR1	3	R1145J
1881.073	0.765	1893037	WORD_OFF	n/a	n/a	SKUNK	6	15	[0, 0, 0]	n/a	FR1	3	R1145J
1881.838	1.602	1893802	WORD	n/a	wordpools/wordpool_EN.txt	RIB	7	15	[0, 0, 0]	n/a	FR1	3	R1145J
1883.44	0.933	1895404	WORD_OFF	n/a	n/a	RIB	7	15	[0, 0, 0]	n/a	FR1	3	R1145J
1884.373	1.617	1896337	WORD	n/a	wordpools/wordpool_EN.txt	NEST	8	15	[0, 0, 0]	n/a	FR1	3	R1145J
1885.99	0.883	1897954	WORD_OFF	n/a	n/a	NEST	8	15	[0, 0, 0]	n/a	FR1	3	R1145J
1886.873	1.618	1898837	WORD	n/a	wordpools/wordpool_EN.txt	HAWK	9	15	[0, 0, 0]	n/a	FR1	3	R1145J
1888.491	0.9	1900455	WORD_OFF	n/a	n/a	HAWK	9	15	[0, 0, 0]	n/a	FR1	3	R1145J
1889.391	1.617	1901355	WORD	n/a	wordpools/wordpool_EN.txt	HORSE	10	15	[0, 0, 0]	n/a	FR1	3	R1145J
1891.008	0.949	1902972	WORD_OFF	n/a	n/a	HORSE	10	15	[0, 0, 0]	n/a	FR1	3	R1145J
1891.957	1.617	1903921	WORD	n/a	wordpools/wordpool_EN.txt	MOUSE	11	15	[0, 0, 0]	n/a	FR1	3	R1145J
1893.574	0.784	1905538	WORD_OFF	n/a	n/a	MOUSE	11	15	[0, 0, 0]	n/a	FR1	3	R1145J
1894.358	1.616	1906322	WORD	n/a	wordpools/wordpool_EN.txt	ZOO	12	15	[0, 0, 0]	n/a	FR1	3	R1145J
1895.974	0.0	1907938	WORD_OFF	n/a	n/a	ZOO	12	15	[0, 0, 0]	n/a	FR1	3	R1145J
1895.974	0.001	1907938	DISTRACT_START	n/a	n/a	n/a	-999	15	[0, 0, 0]	n/a	FR1	3	R1145J
1895.975	0.016	1907939	START	n/a	n/a	n/a	-999	15	[-999, -999, -999]	n/a	FR1	3	R1145J
1895.991	15.536	1907955	PROB	15.536	n/a	n/a	-999	15	[9, 5, 8]	22	FR1	3	R1145J
1911.527	11.581	1923490	PROB	11.581	n/a	n/a	-999	15	[6, 7, 5]	18	FR1	3	R1145J
1923.108	0.021	1935071	STOP	n/a	n/a	n/a	-999	15	[-999, -999, -999]	n/a	FR1	3	R1145J
1923.129	0.682	1935092	DISTRACT_END	n/a	n/a	n/a	-999	15	[0, 0, 0]	n/a	FR1	3	R1145J
1923.811	0.518	1935774	RETRIEVAL_ORIENT	n/a	n/a	n/a	-999	15	[0, 0, 0]	n/a	FR1	3	R1145J
1924.329	0.834	1936292	REC_START	n/a	n/a	n/a	-999	15	[0, 0, 0]	n/a	FR1	3	R1145J
1925.163	2.309	1937126	REC_WORD_VV	2.309	n/a	<>	-999	15	[0, 0, 0]	n/a	FR1	3	R1145J
1927.472	0.634	1939435	REC_WORD	0.634	n/a	BIRD	4	15	[0, 0, 0]	n/a	FR1	3	R1145J
1928.106	1.874	1940069	REC_WORD	1.874	n/a	HOUSE	-999	15	[0, 0, 0]	n/a	FR1	3	R1145J
1929.98	1.823	1941943	REC_WORD	1.823	n/a	NEST	8	15	[0, 0, 0]	n/a	FR1	3	R1145J
1931.803	3.621	1943766	REC_WORD	3.621	n/a	ZOO	12	15	[0, 0, 0]	n/a	FR1	3	R1145J
1935.424	1.635	1947387	REC_WORD	1.635	n/a	SKUNK	6	15	[0, 0, 0]	n/a	FR1	3	R1145J
1937.059	0.473	1949022	REC_WORD_VV	0.473	n/a	<>	-999	15	[0, 0, 0]	n/a	FR1	3	R1145J
1937.532	5.872	1949495	REC_WORD	5.872	n/a	SKUNK	6	15	[0, 0, 0]	n/a	FR1	3	R1145J
1943.404	1.286	1955367	REC_WORD_VV	1.286	n/a	<>	-999	15	[0, 0, 0]	n/a	FR1	3	R1145J
1944.69	0.325	1956653	REC_WORD	0.325	n/a	BIRD	4	15	[0, 0, 0]	n/a	FR1	3	R1145J
1945.015	0.379	1956978	REC_WORD	0.379	n/a	HOUSE	-999	15	[0, 0, 0]	n/a	FR1	3	R1145J
1945.394	0.324	1957357	REC_WORD	0.324	n/a	NEST	8	15	[0, 0, 0]	n/a	FR1	3	R1145J
1945.718	8.623	1957681	REC_WORD	8.623	n/a	ZOO	12	15	[0, 0, 0]	n/a	FR1	3	R1145J
1954.341	4.909	1966304	REC_END	n/a	n/a	n/a	-999	15	[0, 0, 0]	n/a	FR1	3	R1145J
1959.25	0.5	1971213	TRIAL	n/a	n/a	n/a	-999	16	[0, 0, 0]	n/a	FR1	3	R1145J
1959.75	10.428	1971713	COUNTDOWN_START	n/a	n/a	n/a	-999	16	[0, 0, 0]	n/a	FR1	3	R1145J
1970.178	0.007	1982141	COUNTDOWN_END	n/a	n/a	n/a	-999	16	[0, 0, 0]	n/a	FR1	3	R1145J
1970.185	1.616	1982148	ORIENT	n/a	n/a	n/a	-999	16	[0, 0, 0]	n/a	FR1	3	R1145J
1971.801	2.384	1983764	ORIENT_OFF	n/a	n/a	n/a	-999	16	[0, 0, 0]	n/a	FR1	3	R1145J
1974.185	1.616	1986148	WORD	n/a	wordpools/wordpool_EN.txt	PASTE	1	16	[0, 0, 0]	n/a	FR1	3	R1145J
1975.801	0.983	1987764	WORD_OFF	n/a	n/a	PASTE	1	16	[0, 0, 0]	n/a	FR1	3	R1145J
1976.784	1.601	1988747	WORD	n/a	wordpools/wordpool_EN.txt	TOE	2	16	[0, 0, 0]	n/a	FR1	3	R1145J
1978.385	0.767	1990348	WORD_OFF	n/a	n/a	TOE	2	16	[0, 0, 0]	n/a	FR1	3	R1145J
1979.152	1.616	1991115	WORD	n/a	wordpools/wordpool_EN.txt	THUMB	3	16	[0, 0, 0]	n/a	FR1	3	R1145J
1980.768	0.768	1992731	WORD_OFF	n/a	n/a	THUMB	3	16	[0, 0, 0]	n/a	FR1	3	R1145J
1981.536	1.617	1993499	WORD	n/a	wordpools/wordpool_EN.txt	STEM	4	16	[0, 0, 0]	n/a	FR1	3	R1145J
1983.153	0.983	1995116	WORD_OFF	n/a	n/a	STEM	4	16	[0, 0, 0]	n/a	FR1	3	R1145J
1984.136	1.616	1996099	WORD	n/a	wordpools/wordpool_EN.txt	CONE	5	16	[0, 0, 0]	n/a	FR1	3	R1145J
1985.752	0.967	1997715	WORD_OFF	n/a	n/a	CONE	5	16	[0, 0, 0]	n/a	FR1	3	R1145J
1986.719	1.601	1998682	WORD	n/a	wordpools/wordpool_EN.txt	WEED	6	16	[0, 0, 0]	n/a	FR1	3	R1145J
1988.32	0.95	2000283	WORD_OFF	n/a	n/a	WEED	6	16	[0, 0, 0]	n/a	FR1	3	R1145J
1989.27	1.616	2001233	WORD	n/a	wordpools/wordpool_EN.txt	LEAF	7	16	[0, 0, 0]	n/a	FR1	3	R1145J
1990.886	0.834	2002849	WORD_OFF	n/a	n/a	LEAF	7	16	[0, 0, 0]	n/a	FR1	3	R1145J
1991.72	1.618	2003683	WORD	n/a	wordpools/wordpool_EN.txt	ARM	8	16	[0, 0, 0]	n/a	FR1	3	R1145J
1993.338	0.883	2005301	WORD_OFF	n/a	n/a	ARM	8	16	[0, 0, 0]	n/a	FR1	3	R1145J
1994.221	1.616	2006184	WORD	n/a	wordpools/wordpool_EN.txt	TOAST	9	16	[0, 0, 0]	n/a	FR1	3	R1145J
1995.837	0.9	2007800	WORD_OFF	n/a	n/a	TOAST	9	16	[0, 0, 0]	n/a	FR1	3	R1145J
1996.737	1.601	2008700	WORD	n/a	wordpools/wordpool_EN.txt	BLOOM	10	16	[0, 0, 0]	n/a	FR1	3	R1145J
1998.338	0.8	2010301	WORD_OFF	n/a	n/a	BLOOM	10	16	[0, 0, 0]	n/a	FR1	3	R1145J
1999.138	1.616	2011101	WORD	n/a	wordpools/wordpool_EN.txt	FRUIT	11	16	[0, 0, 0]	n/a	FR1	3	R1145J
2000.754	0.867	2012717	WORD_OFF	n/a	n/a	FRUIT	11	16	[0, 0, 0]	n/a	FR1	3	R1145J
2001.621	1.618	2013584	WORD	n/a	wordpools/wordpool_EN.txt	MOTH	12	16	[0, 0, 0]	n/a	FR1	3	R1145J
2003.239	0.0	2015202	WORD_OFF	n/a	n/a	MOTH	12	16	[0, 0, 0]	n/a	FR1	3	R1145J
2003.239	0.001	2015202	DISTRACT_START	n/a	n/a	n/a	-999	16	[0, 0, 0]	n/a	FR1	3	R1145J
2003.24	0.016	2015203	START	n/a	n/a	n/a	-999	16	[-999, -999, -999]	n/a	FR1	3	R1145J
2003.256	5.416	2015219	PROB	5.416	n/a	n/a	-999	16	[6, 8, 4]	18	FR1	3	R1145J
2008.672	4.468	2020635	PROB	4.468	n/a	n/a	-999	16	[1, 8, 5]	14	FR1	3	R1145J
2013.14	4.967	2025103	PROB	4.967	n/a	n/a	-999	16	[5, 2, 7]	14	FR1	3	R1145J
2018.107	14.997	2030070	PROB	14.997	n/a	n/a	-999	16	[8, 3, 5]	16	FR1	3	R1145J
2033.104	0.022	2045067	STOP	n/a	n/a	n/a	-999	16	[-999, -999, -999]	n/a	FR1	3	R1145J
2033.126	0.616	2045089	DISTRACT_END	n/a	n/a	n/a	-999	16	[0, 0, 0]	n/a	FR1	3	R1145J
2033.742	0.518	2045705	RETRIEVAL_ORIENT	n/a	n/a	n/a	-999	16	[0, 0, 0]	n/a	FR1	3	R1145J
2034.26	1.85	2046223	REC_START	n/a	n/a	n/a	-999	16	[0, 0, 0]	n/a	FR1	3	R1145J
2036.11	1.034	2048072	REC_WORD	1.034	n/a	STEM	4	16	[0, 0, 0]	n/a	FR1	3	R1145J
2037.144	7.633	2049106	REC_WORD	7.633	n/a	ARM	8	16	[0, 0, 0]	n/a	FR1	3	R1145J
2044.777	3.375	2056739	REC_WORD	3.375	n/a	BLOOM	10	16	[0, 0, 0]	n/a	FR1	3	R1145J
2048.152	3.815	2060114	REC_WORD	3.815	n/a	WEEDS	-999	16	[0, 0, 0]	n/a	FR1	3	R1145J
2051.967	0.398	2063929	REC_WORD	0.398	n/a	STEM	4	16	[0, 0, 0]	n/a	FR1	3	R1145J
2052.365	0.772	2064327	REC_WORD	0.772	n/a	ARM	8	16	[0, 0, 0]	n/a	FR1	3	R1145J
2053.137	0.507	2065099	REC_WORD	0.507	n/a	BLOOM	10	16	[0, 0, 0]	n/a	FR1	3	R1145J
2053.644	0.815	2065606	REC_WORD	0.815	n/a	WEED	6	16	[0, 0, 0]	n/a	FR1	3	R1145J
2054.459	9.812	2066421	REC_WORD	9.812	n/a	FRUIT	11	16	[0, 0, 0]	n/a	FR1	3	R1145J
2064.271	4.625	2076233	REC_END	n/a	n/a	n/a	-999	16	[0, 0, 0]	n/a	FR1	3	R1145J
2068.896	0.5	2080858	TRIAL	n/a	n/a	n/a	-999	17	[0, 0, 0]	n/a	FR1	3	R1145J
2069.396	10.428	2081358	COUNTDOWN_START	n/a	n/a	n/a	-999	17	[0, 0, 0]	n/a	FR1	3	R1145J
2079.824	0.007	2091786	COUNTDOWN_END	n/a	n/a	n/a	-999	17	[0, 0, 0]	n/a	FR1	3	R1145J
2079.831	1.601	2091793	ORIENT	n/a	n/a	n/a	-999	17	[0, 0, 0]	n/a	FR1	3	R1145J
2081.432	2.084	2093394	ORIENT_OFF	n/a	n/a	n/a	-999	17	[0, 0, 0]	n/a	FR1	3	R1145J
2083.516	1.617	2095478	WORD	n/a	wordpools/wordpool_EN.txt	EEL	1	17	[0, 0, 0]	n/a	FR1	3	R1145J
2085.133	0.883	2097095	WORD_OFF	n/a	n/a	EEL	1	17	[0, 0, 0]	n/a	FR1	3	R1145J
2086.016	1.616	2097978	WORD	n/a	wordpools/wordpool_EN.txt	NET	2	17	[0, 0, 0]	n/a	FR1	3	R1145J
2087.632	0.967	2099594	WORD_OFF	n/a	n/a	NET	2	17	[0, 0, 0]	n/a	FR1	3	R1145J
2088.599	1.618	2100561	WORD	n/a	wordpools/wordpool_EN.txt	SALT	3	17	[0, 0, 0]	n/a	FR1	3	R1145J
2090.217	1.0	2102179	WORD_OFF	n/a	n/a	SALT	3	17	[0, 0, 0]	n/a	FR1	3	R1145J
2091.217	1.616	2103179	WORD	n/a	wordpools/wordpool_EN.txt	MOLE	4	17	[0, 0, 0]	n/a	FR1	3	R1145J
2092.833	0.9	2104795	WORD_OFF	n/a	n/a	MOLE	4	17	[0, 0, 0]	n/a	FR1	3	R1145J
2093.733	1.617	2105695	WORD	n/a	wordpools/wordpool_EN.txt	FISH	5	17	[0, 0, 0]	n/a	FR1	3	R1145J
2095.35	0.851	2107312	WORD_OFF	n/a	n/a	FISH	5	17	[0, 0, 0]	n/a	FR1	3	R1145J
2096.201	1.616	2108163	WORD	n/a	wordpools/wordpool_EN.txt	SPONGE	6	17	[0, 0, 0]	n/a	FR1	3	R1145J
2097.817	0.966	2109779	WORD_OFF	n/a	n/a	SPONGE	6	17	[0, 0, 0]	n/a	FR1	3	R1145J
2098.783	1.601	2110745	WORD	n/a	wordpools/wordpool_EN.txt	ANT	7	17	[0, 0, 0]	n/a	FR1	3	R1145J
2100.384	1.001	2112346	WORD_OFF	n/a	n/a	ANT	7	17	[0, 0, 0]	n/a	FR1	3	R1145J
2101.385	1.617	2113347	WORD	n/a	wordpools/wordpool_EN.txt	PLANT	8	17	[0, 0, 0]	n/a	FR1	3	R1145J
2103.002	0.799	2114964	WORD_OFF	n/a	n/a	PLANT	8	17	[0, 0, 0]	n/a	FR1	3	R1145J
2103.801	1.618	2115763	WORD	n/a	wordpools/wordpool_EN.txt	EGG	9	17	[0, 0, 0]	n/a	FR1	3	R1145J
2105.419	0.916	2117381	WORD_OFF	n/a	n/a	EGG	9	17	[0, 0, 0]	n/a	FR1	3	R1145J
2106.335	1.616	2118297	WORD	n/a	wordpools/wordpool_EN.txt	STORE	10	17	[0, 0, 0]	n/a	FR1	3	R1145J
2107.951	0.784	2119913	WORD_OFF	n/a	n/a	STORE	10	17	[0, 0, 0]	n/a	FR1	3	R1145J
2108.735	1.618	2120697	WORD	n/a	wordpools/wordpool_EN.txt	SEED	11	17	[0, 0, 0]	n/a	FR1	3	R1145J
2110.353	1.0	2122315	WORD_OFF	n/a	n/a	SEED	11	17	[0, 0, 0]	n/a	FR1	3	R1145J
2111.353	1.616	2123315	WORD	n/a	wordpools/wordpool_EN.txt	ICE	12	17	[0, 0, 0]	n/a	FR1	3	R1145J
2112.969	0.0	2124931	WORD_OFF	n/a	n/a	ICE	12	17	[0, 0, 0]	n/a	FR1	3	R1145J
2112.969	0.0	2124931	DISTRACT_START	n/a	n/a	n/a	-999	17	[0, 0, 0]	n/a	FR1	3	R1145J
2112.969	0.016	2124931	START	n/a	n/a	n/a	-999	17	[-999, -999, -999]	n/a	FR1	3	R1145J
2112.985	7.785	2124947	PROB	7.785	n/a	n/a	-999	17	[5, 8, 6]	19	FR1	3	R1145J
2120.77	3.551	2132732	PROB	3.551	n/a	n/a	-999	17	[1, 3, 3]	7	FR1	3	R1145J
2124.321	7.901	2136283	PROB	7.901	n/a	n/a	-999	17	[7, 3, 2]	12	FR1	3	R1145J
2132.222	4.726	2144184	PROB	4.726	n/a	n/a	-999	17	[9, 1, 2]	12	FR1	3	R1145J
2136.948	0.007	2148910	STOP	n/a	n/a	n/a	-999	17	[-999, -999, -999]	n/a	FR1	3	R1145J
2136.955	0.717	2148917	DISTRACT_END	n/a	n/a	n/a	-999	17	[0, 0, 0]	n/a	FR1	3	R1145J
2137.672	0.518	2149634	RETRIEVAL_ORIENT	n/a	n/a	n/a	-999	17	[0, 0, 0]	n/a	FR1	3	R1145J
2138.19	2.732	2150152	REC_START	n/a	n/a	n/a	-999	17	[0, 0, 0]	n/a	FR1	3	R1145J
2140.922	1.041	2152884	REC_WORD	1.041	n/a	WEED	-999	17	[0, 0, 0]	n/a	FR1	3	R1145J
2141.963	1.638	2153925	REC_WORD	1.638	n/a	SEED	11	17	[0, 0, 0]	n/a	FR1	3	R1145J
2143.601	6.021	2155563	REC_WORD_VV	6.021	n/a	<>	-999	17	[0, 0, 0]	n/a	FR1	3	R1145J
2149.622	3.831	2161584	REC_WORD	3.831	n/a	SPONGE	6	17	[0, 0, 0]	n/a	FR1	3	R1145J
2153.453	5.91	2165415	REC_WORD	5.91	n/a	FISH	5	17	[0, 0, 0]	n/a	FR1	3	R1145J
2159.363	2.315	2171325	REC_WORD_VV	2.315	n/a	<>	-999	17	[0, 0, 0]	n/a	FR1	3	R1145J
2161.678	1.208	2173640	REC_WORD_VV	1.208	n/a	<>	-999	17	[0, 0, 0]	n/a	FR1	3	R1145J
2162.886	3.51	2174848	REC_WORD_VV	3.51	n/a	<>	-999	17	[0, 0, 0]	n/a	FR1	3	R1145J
2166.396	0.774	2178358	REC_WORD_VV	0.774	n/a	<>	-999	17	[0, 0, 0]	n/a	FR1	3	R1145J
2167.17	1.033	2179132	REC_WORD_VV	1.033	n/a	<>	-999	17	[0, 0, 0]	n/a	FR1	3	R1145J
2168.203	4.573	2180164	REC_END	n/a	n/a	n/a	-999	17	[0, 0, 0]	n/a	FR1	3	R1145J
2172.776	0.5	2184737	TRIAL	n/a	n/a	n/a	-999	18	[0, 0, 0]	n/a	FR1	3	R1145J
2173.276	10.428	2185237	COUNTDOWN_START	n/a	n/a	n/a	-999	18	[0, 0, 0]	n/a	FR1	3	R1145J
2183.704	0.007	2195665	COUNTDOWN_END	n/a	n/a	n/a	-999	18	[0, 0, 0]	n/a	FR1	3	R1145J
2183.711	1.618	2195672	ORIENT	n/a	n/a	n/a	-999	18	[0, 0, 0]	n/a	FR1	3	R1145J
2185.329	1.817	2197290	ORIENT_OFF	n/a	n/a	n/a	-999	18	[0, 0, 0]	n/a	FR1	3	R1145J
2187.146	1.616	2199107	WORD	n/a	wordpools/wordpool_EN.txt	SPRING	1	18	[0, 0, 0]	n/a	FR1	3	R1145J
2188.762	0.767	2200723	WORD_OFF	n/a	n/a	SPRING	1	18	[0, 0, 0]	n/a	FR1	3	R1145J
2189.529	1.617	2201490	WORD	n/a	wordpools/wordpool_EN.txt	BOARD	2	18	[0, 0, 0]	n/a	FR1	3	R1145J
2191.146	0.9	2203107	WORD_OFF	n/a	n/a	BOARD	2	18	[0, 0, 0]	n/a	FR1	3	R1145J
2192.046	1.616	2204007	WORD	n/a	wordpools/wordpool_EN.txt	CART	3	18	[0, 0, 0]	n/a	FR1	3	R1145J
2193.662	1.0	2205623	WORD_OFF	n/a	n/a	CART	3	18	[0, 0, 0]	n/a	FR1	3	R1145J
2194.662	1.601	2206623	WORD	n/a	wordpools/wordpool_EN.txt	MILK	4	18	[0, 0, 0]	n/a	FR1	3	R1145J
2196.263	0.801	2208224	WORD_OFF	n/a	n/a	MILK	4	18	[0, 0, 0]	n/a	FR1	3	R1145J
2197.064	1.616	2209025	WORD	n/a	wordpools/wordpool_EN.txt	HORN	5	18	[0, 0, 0]	n/a	FR1	3	R1145J
2198.68	0.983	2210641	WORD_OFF	n/a	n/a	HORN	5	18	[0, 0, 0]	n/a	FR1	3	R1145J
2199.663	1.618	2211624	WORD	n/a	wordpools/wordpool_EN.txt	CALF	6	18	[0, 0, 0]	n/a	FR1	3	R1145J
2201.281	0.784	2213242	WORD_OFF	n/a	n/a	CALF	6	18	[0, 0, 0]	n/a	FR1	3	R1145J
2202.065	1.615	2214026	WORD	n/a	wordpools/wordpool_EN.txt	BLUSH	7	18	[0, 0, 0]	n/a	FR1	3	R1145J
2203.68	0.801	2215641	WORD_OFF	n/a	n/a	BLUSH	7	18	[0, 0, 0]	n/a	FR1	3	R1145J
2204.481	1.617	2216442	WORD	n/a	wordpools/wordpool_EN.txt	JEEP	8	18	[0, 0, 0]	n/a	FR1	3	R1145J
2206.098	0.967	2218059	WORD_OFF	n/a	n/a	JEEP	8	18	[0, 0, 0]	n/a	FR1	3	R1145J
2207.065	1.616	2219026	WORD	n/a	wordpools/wordpool_EN.txt	BOWL	9	18	[0, 0, 0]	n/a	FR1	3	R1145J
2208.681	0.917	2220642	WORD_OFF	n/a	n/a	BOWL	9	18	[0, 0, 0]	n/a	FR1	3	R1145J
2209.598	1.618	2221559	WORD	n/a	wordpools/wordpool_EN.txt	CORN	10	18	[0, 0, 0]	n/a	FR1	3	R1145J
2211.216	0.816	2223177	WORD_OFF	n/a	n/a	CORN	10	18	[0, 0, 0]	n/a	FR1	3	R1145J
2212.032	1.616	2223993	WORD	n/a	wordpools/wordpool_EN.txt	FARM	11	18	[0, 0, 0]	n/a	FR1	3	R1145J
2213.648	1.017	2225609	WORD_OFF	n/a	n/a	FARM	11	18	[0, 0, 0]	n/a	FR1	3	R1145J
2214.665	1.618	2226626	WORD	n/a	wordpools/wordpool_EN.txt	BAG	12	18	[0, 0, 0]	n/a	FR1	3	R1145J
2216.283	0.0	2228244	WORD_OFF	n/a	n/a	BAG	12	18	[0, 0, 0]	n/a	FR1	3	R1145J
2216.283	0.0	2228244	DISTRACT_START	n/a	n/a	n/a	-999	18	[0, 0, 0]	n/a	FR1	3	R1145J
2216.283	0.016	2228244	START	n/a	n/a	n/a	-999	18	[-999, -999, -999]	n/a	FR1	3	R1145J
2216.299	17.786	2228260	PROB	17.786	n/a	n/a	-999	18	[9, 7, 9]	25	FR1	3	R1145J
2234.085	35.744	2246046	PROB	35.744	n/a	n/a	-999	18	[9, 3, 2]	14	FR1	3	R1145J
2269.829	0.01	2281790	STOP	n/a	n/a	n/a	-999	18	[-999, -999, -999]	n/a	FR1	3	R1145J
2269.839	0.701	2281800	DISTRACT_END	n/a	n/a	n/a	-999	18	[0, 0, 0]	n/a	FR1	3	R1145J
2270.54	0.517	2282501	RETRIEVAL_ORIENT	n/a	n/a	n/a	-999	18	[0, 0, 0]	n/a	FR1	3	R1145J
2271.057	0.518	2283018	REC_START	n/a	n/a	n/a	-999	18	[0, 0, 0]	n/a	FR1	3	R1145J
2271.575	3.343	2283536	REC_WORD_VV	3.343	n/a	<>	-999	18	[0, 0, 0]	n/a	FR1	3	R1145J
2274.918	4.224	2286879	REC_WORD	4.224	n/a	FOGHORN	-999	18	[0, 0, 0]	n/a	FR1	3	R1145J
2279.142	4.909	2291103	REC_WORD_VV	4.909	n/a	<>	-999	18	[0, 0, 0]	n/a	FR1	3	R1145J
2284.051	8.045	2296012	REC_WORD_VV	8.045	n/a	<>	-999	18	[0, 0, 0]	n/a	FR1	3	R1145J
2292.096	1.045	2304057	REC_WORD_VV	1.045	n/a	<>	-999	18	[0, 0, 0]	n/a	FR1	3	R1145J
2293.141	5.267	2305102	REC_WORD_VV	5.267	n/a	<>	-999	18	[0, 0, 0]	n/a	FR1	3	R1145J
2298.408	2.66	2310369	REC_WORD_VV	2.66	n/a	<>	-999	18	[0, 0, 0]	n/a	FR1	3	R1145J
2301.068	4.575	2313028	REC_END	n/a	n/a	n/a	-999	18	[0, 0, 0]	n/a	FR1	3	R1145J
2305.643	0.5	2317603	TRIAL	n/a	n/a	n/a	-999	19	[0, 0, 0]	n/a	FR1	3	R1145J
2306.143	10.428	2318103	COUNTDOWN_START	n/a	n/a	n/a	-999	19	[0, 0, 0]	n/a	FR1	3	R1145J
2316.571	0.007	2328531	COUNTDOWN_END	n/a	n/a	n/a	-999	19	[0, 0, 0]	n/a	FR1	3	R1145J
2316.578	1.601	2328538	ORIENT	n/a	n/a	n/a	-999	19	[0, 0, 0]	n/a	FR1	3	R1145J
2318.179	1.884	2330139	ORIENT_OFF	n/a	n/a	n/a	-999	19	[0, 0, 0]	n/a	FR1	3	R1145J
2320.063	1.616	2332023	WORD	n/a	wordpools/wordpool_EN.txt	WORM	1	19	[0, 0, 0]	n/a	FR1	3	R1145J
2321.679	0.866	2333639	WORD_OFF	n/a	n/a	WORM	1	19	[0, 0, 0]	n/a	FR1	3	R1145J
2322.545	1.618	2334505	WORD	n/a	wordpools/wordpool_EN.txt	GLOVE	2	19	[0, 0, 0]	n/a	FR1	3	R1145J
2324.163	1.0	2336123	WORD_OFF	n/a	n/a	GLOVE	2	19	[0, 0, 0]	n/a	FR1	3	R1145J
2325.163	1.616	2337123	WORD	n/a	wordpools/wordpool_EN.txt	GUARD	3	19	[0, 0, 0]	n/a	FR1	3	R1145J
2326.779	0.984	2338739	WORD_OFF	n/a	n/a	GUARD	3	19	[0, 0, 0]	n/a	FR1	3	R1145J
2327.763	1.618	2339723	WORD	n/a	wordpools/wordpool_EN.txt	THREAD	4	19	[0, 0, 0]	n/a	FR1	3	R1145J
2329.381	0.966	2341341	WORD_OFF	n/a	n/a	THREAD	4	19	[0, 0, 0]	n/a	FR1	3	R1145J
2330.347	1.616	2342307	WORD	n/a	wordpools/wordpool_EN.txt	LEG	5	19	[0, 0, 0]	n/a	FR1	3	R1145J
2331.963	1.001	2343923	WORD_OFF	n/a	n/a	LEG	5	19	[0, 0, 0]	n/a	FR1	3	R1145J
2332.964	1.616	2344924	WORD	n/a	wordpools/wordpool_EN.txt	DITCH	6	19	[0, 0, 0]	n/a	FR1	3	R1145J
2334.58	0.918	2346540	WORD_OFF	n/a	n/a	DITCH	6	19	[0, 0, 0]	n/a	FR1	3	R1145J
2335.498	1.617	2347458	WORD	n/a	wordpools/wordpool_EN.txt	STRING	7	19	[0, 0, 0]	n/a	FR1	3	R1145J
2337.115	0.816	2349075	WORD_OFF	n/a	n/a	STRING	7	19	[0, 0, 0]	n/a	FR1	3	R1145J
2337.931	1.617	2349891	WORD	n/a	wordpools/wordpool_EN.txt	CLIFF	8	19	[0, 0, 0]	n/a	FR1	3	R1145J
2339.548	0.851	2351508	WORD_OFF	n/a	n/a	CLIFF	8	19	[0, 0, 0]	n/a	FR1	3	R1145J
2340.399	1.617	2352359	WORD	n/a	wordpools/wordpool_EN.txt	BAT	9	19	[0, 0, 0]	n/a	FR1	3	R1145J
2342.016	0.865	2353976	WORD_OFF	n/a	n/a	BAT	9	19	[0, 0, 0]	n/a	FR1	3	R1145J
2342.881	1.618	2354841	WORD	n/a	wordpools/wordpool_EN.txt	BRUSH	10	19	[0, 0, 0]	n/a	FR1	3	R1145J
2344.499	0.9	2356459	WORD_OFF	n/a	n/a	BRUSH	10	19	[0, 0, 0]	n/a	FR1	3	R1145J
2345.399	1.617	2357359	WORD	n/a	wordpools/wordpool_EN.txt	TOOL	11	19	[0, 0, 0]	n/a	FR1	3	R1145J
2347.016	1.0	2358976	WORD_OFF	n/a	n/a	TOOL	11	19	[0, 0, 0]	n/a	FR1	3	R1145J
2348.016	1.616	2359976	WORD	n/a	wordpools/wordpool_EN.txt	SLIME	12	19	[0, 0, 0]	n/a	FR1	3	R1145J
2349.632	0.0	2361592	WORD_OFF	n/a	n/a	SLIME	12	19	[0, 0, 0]	n/a	FR1	3	R1145J
2349.632	0.001	2361592	DISTRACT_START	n/a	n/a	n/a	-999	19	[0, 0, 0]	n/a	FR1	3	R1145J
2349.633	0.016	2361593	START	n/a	n/a	n/a	-999	19	[-999, -999, -999]	n/a	FR1	3	R1145J
2349.649	5.635	2361609	PROB	5.635	n/a	n/a	-999	19	[8, 8, 7]	23	FR1	3	R1145J
2355.284	7.367	2367244	PROB	7.367	n/a	n/a	-999	19	[4, 9, 3]	16	FR1	3	R1145J
2362.651	4.9	2374611	PROB	4.9	n/a	n/a	-999	19	[3, 6, 3]	12	FR1	3	R1145J
2367.551	4.9	2379511	PROB	4.9	n/a	n/a	-999	19	[4, 6, 6]	16	FR1	3	R1145J
2372.451	0.019	2384411	STOP	n/a	n/a	n/a	-999	19	[-999, -999, -999]	n/a	FR1	3	R1145J
2372.47	0.7	2384430	DISTRACT_END	n/a	n/a	n/a	-999	19	[0, 0, 0]	n/a	FR1	3	R1145J
2373.17	0.516	2385130	RETRIEVAL_ORIENT	n/a	n/a	n/a	-999	19	[0, 0, 0]	n/a	FR1	3	R1145J
2373.686	2.326	2385646	REC_START	n/a	n/a	n/a	-999	19	[0, 0, 0]	n/a	FR1	3	R1145J
2376.012	1.34	2387972	REC_WORD	1.34	n/a	SLIME	12	19	[0, 0, 0]	n/a	FR1	3	R1145J
2377.352	5.907	2389312	REC_WORD	5.907	n/a	BAT	9	19	[0, 0, 0]	n/a	FR1	3	R1145J
2383.259	1.793	2395219	REC_WORD	1.793	n/a	GLOVE	2	19	[0, 0, 0]	n/a	FR1	3	R1145J
2385.052	1.969	2397012	REC_WORD_VV	1.969	n/a	<>	-999	19	[0, 0, 0]	n/a	FR1	3	R1145J
2387.021	4.432	2398981	REC_WORD_VV	4.432	n/a	<>	-999	19	[0, 0, 0]	n/a	FR1	3	R1145J
2391.453	12.245	2403413	REC_WORD_VV	12.245	n/a	<>	-999	19	[0, 0, 0]	n/a	FR1	3	R1145J
2403.698	7.092	2415658	REC_END	n/a	n/a	n/a	-999	19	[0, 0, 0]	n/a	FR1	3	R1145J
2410.79	0.5	2422750	TRIAL	n/a	n/a	n/a	-999	20	[0, 0, 0]	n/a	FR1	3	R1145J
2411.29	10.428	2423250	COUNTDOWN_START	n/a	n/a	n/a	-999	20	[0, 0, 0]	n/a	FR1	3	R1145J
2421.718	0.007	2433678	COUNTDOWN_END	n/a	n/a	n/a	-999	20	[0, 0, 0]	n/a	FR1	3	R1145J
2421.725	1.618	2433685	ORIENT	n/a	n/a	n/a	-999	20	[0, 0, 0]	n/a	FR1	3	R1145J
2423.343	1.8	2435303	ORIENT_OFF	n/a	n/a	n/a	-999	20	[0, 0, 0]	n/a	FR1	3	R1145J
2425.143	1.616	2437103	WORD	n/a	wordpools/wordpool_EN.txt	HOUSE	1	20	[0, 0, 0]	n/a	FR1	3	R1145J
2426.759	0.833	2438719	WORD_OFF	n/a	n/a	HOUSE	1	20	[0, 0, 0]	n/a	FR1	3	R1145J
2427.592	1.618	2439552	WORD	n/a	wordpools/wordpool_EN.txt	CLOCK	2	20	[0, 0, 0]	n/a	FR1	3	R1145J
2429.21	0.967	2441170	WORD_OFF	n/a	n/a	CLOCK	2	20	[0, 0, 0]	n/a	FR1	3	R1145J
2430.177	1.616	2442137	WORD	n/a	wordpools/wordpool_EN.txt	BATH	3	20	[0, 0, 0]	n/a	FR1	3	R1145J
2431.793	0.867	2443753	WORD_OFF	n/a	n/a	BATH	3	20	[0, 0, 0]	n/a	FR1	3	R1145J
2432.66	1.617	2444620	WORD	n/a	wordpools/wordpool_EN.txt	MULE	4	20	[0, 0, 0]	n/a	FR1	3	R1145J
2434.277	0.884	2446236	WORD_OFF	n/a	n/a	MULE	4	20	[0, 0, 0]	n/a	FR1	3	R1145J
2435.161	1.616	2447120	WORD	n/a	wordpools/wordpool_EN.txt	CAR	5	20	[0, 0, 0]	n/a	FR1	3	R1145J
2436.777	0.85	2448736	WORD_OFF	n/a	n/a	CAR	5	20	[0, 0, 0]	n/a	FR1	3	R1145J
2437.627	1.618	2449586	WORD	n/a	wordpools/wordpool_EN.txt	BOY	6	20	[0, 0, 0]	n/a	FR1	3	R1145J
2439.245	0.983	2451204	WORD_OFF	n/a	n/a	BOY	6	20	[0, 0, 0]	n/a	FR1	3	R1145J
2440.228	1.616	2452187	WORD	n/a	wordpools/wordpool_EN.txt	FOX	7	20	[0, 0, 0]	n/a	FR1	3	R1145J
2441.844	0.934	2453803	WORD_OFF	n/a	n/a	FOX	7	20	[0, 0, 0]	n/a	FR1	3	R1145J
2442.778	1.617	2454737	WORD	n/a	wordpools/wordpool_EN.txt	PEN	8	20	[0, 0, 0]	n/a	FR1	3	R1145J
2444.395	0.884	2456354	WORD_OFF	n/a	n/a	PEN	8	20	[0, 0, 0]	n/a	FR1	3	R1145J
2445.279	1.615	2457238	WORD	n/a	wordpools/wordpool_EN.txt	ROAD	9	20	[0, 0, 0]	n/a	FR1	3	R1145J
2446.894	0.784	2458853	WORD_OFF	n/a	n/a	ROAD	9	20	[0, 0, 0]	n/a	FR1	3	R1145J
2447.678	1.618	2459637	WORD	n/a	wordpools/wordpool_EN.txt	PIPE	10	20	[0, 0, 0]	n/a	FR1	3	R1145J
2449.296	0.767	2461255	WORD_OFF	n/a	n/a	PIPE	10	20	[0, 0, 0]	n/a	FR1	3	R1145J
2450.063	1.616	2462022	WORD	n/a	wordpools/wordpool_EN.txt	ROSE	11	20	[0, 0, 0]	n/a	FR1	3	R1145J
2451.679	0.9	2463638	WORD_OFF	n/a	n/a	ROSE	11	20	[0, 0, 0]	n/a	FR1	3	R1145J
2452.579	1.617	2464538	WORD	n/a	wordpools/wordpool_EN.txt	BEAK	12	20	[0, 0, 0]	n/a	FR1	3	R1145J
2454.196	0.0	2466155	DISTRACT_START	n/a	n/a	n/a	-999	20	[0, 0, 0]	n/a	FR1	3	R1145J
2454.196	0.001	2466155	WORD_OFF	n/a	n/a	BEAK	12	20	[0, 0, 0]	n/a	FR1	3	R1145J
2454.197	0.016	2466156	START	n/a	n/a	n/a	-999	20	[-999, -999, -999]	n/a	FR1	3	R1145J
2454.213	3.383	2466172	PROB	3.383	n/a	n/a	-999	20	[1, 1, 1]	3	FR1	3	R1145J
2457.596	8.068	2469555	PROB	8.068	n/a	n/a	-999	20	[3, 6, 6]	15	FR1	3	R1145J
2465.664	7.669	2477623	PROB	7.669	n/a	n/a	-999	20	[5, 7, 8]	20	FR1	3	R1145J
2473.333	4.655	2485292	PROB	4.655	n/a	n/a	-999	20	[5, 1, 4]	10	FR1	3	R1145J
2477.988	0.012	2489947	STOP	n/a	n/a	n/a	-999	20	[-999, -999, -999]	n/a	FR1	3	R1145J
2478.0	0.665	2489959	DISTRACT_END	n/a	n/a	n/a	-999	20	[0, 0, 0]	n/a	FR1	3	R1145J
2478.665	0.519	2490624	RETRIEVAL_ORIENT	n/a	n/a	n/a	-999	20	[0, 0, 0]	n/a	FR1	3	R1145J
2479.184	3.282	2491143	REC_START	n/a	n/a	n/a	-999	20	[0, 0, 0]	n/a	FR1	3	R1145J
2482.466	3.494	2494425	REC_WORD	3.494	n/a	BEAK	12	20	[0, 0, 0]	n/a	FR1	3	R1145J
2485.96	5.529	2497919	REC_WORD	5.529	n/a	ROAD	9	20	[0, 0, 0]	n/a	FR1	3	R1145J
2491.489	1.3	2503448	REC_WORD_VV	1.3	n/a	<>	-999	20	[0, 0, 0]	n/a	FR1	3	R1145J
2492.789	2.889	2504748	REC_WORD	2.889	n/a	PIPE	10	20	[0, 0, 0]	n/a	FR1	3	R1145J
2495.678	1.101	2507637	REC_WORD_VV	1.101	n/a	<>	-999	20	[0, 0, 0]	n/a	FR1	3	R1145J
2496.779	2.681	2508738	REC_WORD_VV	2.681	n/a	<>	-999	20	[0, 0, 0]	n/a	FR1	3	R1145J
2499.46	5.816	2511419	REC_WORD_VV	5.816	n/a	<>	-999	20	[0, 0, 0]	n/a	FR1	3	R1145J
2505.276	0.65	2517235	REC_WORD_VV	0.65	n/a	<>	-999	20	[0, 0, 0]	n/a	FR1	3	R1145J
2505.926	3.27	2517885	REC_WORD_VV	3.27	n/a	<>	-999	20	[0, 0, 0]	n/a	FR1	3	R1145J
2509.196	4.54	2521155	REC_END	n/a	n/a	n/a	-999	20	[0, 0, 0]	n/a	FR1	3	R1145J
2513.736	0.5	2525695	TRIAL	n/a	n/a	n/a	-999	21	[0, 0, 0]	n/a	FR1	3	R1145J
2514.236	10.428	2526195	COUNTDOWN_START	n/a	n/a	n/a	-999	21	[0, 0, 0]	n/a	FR1	3	R1145J
2524.664	0.007	2536623	COUNTDOWN_END	n/a	n/a	n/a	-999	21	[0, 0, 0]	n/a	FR1	3	R1145J
2524.671	1.618	2536630	ORIENT	n/a	n/a	n/a	-999	21	[0, 0, 0]	n/a	FR1	3	R1145J
2526.289	1.95	2538248	ORIENT_OFF	n/a	n/a	n/a	-999	21	[0, 0, 0]	n/a	FR1	3	R1145J
2528.239	1.616	2540198	WORD	n/a	wordpools/wordpool_EN.txt	TOOTH	1	21	[0, 0, 0]	n/a	FR1	3	R1145J
2529.855	0.8	2541814	WORD_OFF	n/a	n/a	TOOTH	1	21	[0, 0, 0]	n/a	FR1	3	R1145J
2530.655	1.601	2542614	WORD	n/a	wordpools/wordpool_EN.txt	WORLD	2	21	[0, 0, 0]	n/a	FR1	3	R1145J
2532.256	0.884	2544215	WORD_OFF	n/a	n/a	WORLD	2	21	[0, 0, 0]	n/a	FR1	3	R1145J
2533.14	1.616	2545099	WORD	n/a	wordpools/wordpool_EN.txt	PRINCE	3	21	[0, 0, 0]	n/a	FR1	3	R1145J
2534.756	0.983	2546715	WORD_OFF	n/a	n/a	PRINCE	3	21	[0, 0, 0]	n/a	FR1	3	R1145J
2535.739	1.618	2547698	WORD	n/a	wordpools/wordpool_EN.txt	FORT	4	21	[0, 0, 0]	n/a	FR1	3	R1145J
2537.357	0.95	2549316	WORD_OFF	n/a	n/a	FORT	4	21	[0, 0, 0]	n/a	FR1	3	R1145J
2538.307	1.616	2550266	WORD	n/a	wordpools/wordpool_EN.txt	WALL	5	21	[0, 0, 0]	n/a	FR1	3	R1145J
2539.923	1.017	2551882	WORD_OFF	n/a	n/a	WALL	5	21	[0, 0, 0]	n/a	FR1	3	R1145J
2540.94	1.617	2552899	WORD	n/a	wordpools/wordpool_EN.txt	NAIL	6	21	[0, 0, 0]	n/a	FR1	3	R1145J
2542.557	0.834	2554516	WORD_OFF	n/a	n/a	NAIL	6	21	[0, 0, 0]	n/a	FR1	3	R1145J
2543.391	1.617	2555350	WORD	n/a	wordpools/wordpool_EN.txt	TRASH	7	21	[0, 0, 0]	n/a	FR1	3	R1145J
2545.008	0.816	2556967	WORD_OFF	n/a	n/a	TRASH	7	21	[0, 0, 0]	n/a	FR1	3	R1145J
2545.824	1.618	2557783	WORD	n/a	wordpools/wordpool_EN.txt	SHIP	8	21	[0, 0, 0]	n/a	FR1	3	R1145J
2547.442	0.816	2559401	WORD_OFF	n/a	n/a	SHIP	8	21	[0, 0, 0]	n/a	FR1	3	R1145J
2548.258	1.616	2560217	WORD	n/a	wordpools/wordpool_EN.txt	CROWN	9	21	[0, 0, 0]	n/a	FR1	3	R1145J
2549.874	0.9	2561833	WORD_OFF	n/a	n/a	CROWN	9	21	[0, 0, 0]	n/a	FR1	3	R1145J
2550.774	1.619	2562733	WORD	n/a	wordpools/wordpool_EN.txt	GOLD	10	21	[0, 0, 0]	n/a	FR1	3	R1145J
2552.393	0.816	2564352	WORD_OFF	n/a	n/a	GOLD	10	21	[0, 0, 0]	n/a	FR1	3	R1145J
2553.209	1.616	2565168	WORD	n/a	wordpools/wordpool_EN.txt	SHEEP	11	21	[0, 0, 0]	n/a	FR1	3	R1145J
2554.825	0.866	2566784	WORD_OFF	n/a	n/a	SHEEP	11	21	[0, 0, 0]	n/a	FR1	3	R1145J
2555.691	1.619	2567650	WORD	n/a	wordpools/wordpool_EN.txt	COW	12	21	[0, 0, 0]	n/a	FR1	3	R1145J
2557.31	0.0	2569269	WORD_OFF	n/a	n/a	COW	12	21	[0, 0, 0]	n/a	FR1	3	R1145J
2557.31	0.0	2569269	DISTRACT_START	n/a	n/a	n/a	-999	21	[0, 0, 0]	n/a	FR1	3	R1145J
2557.31	0.016	2569269	START	n/a	n/a	n/a	-999	21	[-999, -999, -999]	n/a	FR1	3	R1145J
2557.326	8.185	2569285	PROB	8.185	n/a	n/a	-999	21	[4, 5, 3]	12	FR1	3	R1145J
2565.511	4.483	2577470	PROB	4.483	n/a	n/a	-999	21	[5, 8, 2]	15	FR1	3	R1145J
2569.994	6.684	2581952	PROB	6.684	n/a	n/a	-999	21	[5, 1, 6]	12	FR1	3	R1145J
2576.678	5.979	2588636	PROB	5.979	n/a	n/a	-999	21	[8, 4, 8]	20	FR1	3	R1145J
2582.657	0.022	2594615	STOP	n/a	n/a	n/a	-999	21	[-999, -999, -999]	n/a	FR1	3	R1145J
2582.679	0.618	2594637	DISTRACT_END	n/a	n/a	n/a	-999	21	[0, 0, 0]	n/a	FR1	3	R1145J
2583.297	0.516	2595255	RETRIEVAL_ORIENT	n/a	n/a	n/a	-999	21	[0, 0, 0]	n/a	FR1	3	R1145J
2583.813	2.223	2595771	REC_START	n/a	n/a	n/a	-999	21	[0, 0, 0]	n/a	FR1	3	R1145J
2586.036	4.029	2597994	REC_WORD_VV	4.029	n/a	<>	-999	21	[0, 0, 0]	n/a	FR1	3	R1145J
2590.065	0.501	2602023	REC_WORD_VV	0.501	n/a	<>	-999	21	[0, 0, 0]	n/a	FR1	3	R1145J
2590.566	1.086	2602524	REC_WORD_VV	1.086	n/a	<>	-999	21	[0, 0, 0]	n/a	FR1	3	R1145J
2591.652	5.122	2603610	REC_WORD_VV	5.122	n/a	<>	-999	21	[0, 0, 0]	n/a	FR1	3	R1145J
2596.774	16.1	2608732	REC_WORD	16.1	n/a	TOOTH	1	21	[0, 0, 0]	n/a	FR1	3	R1145J
2612.874	0.949	2624832	REC_WORD	0.949	n/a	WORLD	2	21	[0, 0, 0]	n/a	FR1	3	R1145J
2613.823	9.794	2625781	REC_END	n/a	n/a	n/a	-999	21	[0, 0, 0]	n/a	FR1	3	R1145J
2623.617	0.5	2635575	TRIAL	n/a	n/a	n/a	-999	22	[0, 0, 0]	n/a	FR1	3	R1145J
2624.117	10.428	2636075	COUNTDOWN_START	n/a	n/a	n/a	-999	22	[0, 0, 0]	n/a	FR1	3	R1145J
2634.545	0.006	2646503	COUNTDOWN_END	n/a	n/a	n/a	-999	22	[0, 0, 0]	n/a	FR1	3	R1145J
2634.551	1.602	2646509	ORIENT	n/a	n/a	n/a	-999	22	[0, 0, 0]	n/a	FR1	3	R1145J
2636.153	2.217	2648111	ORIENT_OFF	n/a	n/a	n/a	-999	22	[0, 0, 0]	n/a	FR1	3	R1145J
2638.37	1.616	2650328	WORD	n/a	wordpools/wordpool_EN.txt	GEESE	1	22	[0, 0, 0]	n/a	FR1	3	R1145J
2639.986	0.8	2651944	WORD_OFF	n/a	n/a	GEESE	1	22	[0, 0, 0]	n/a	FR1	3	R1145J
2640.786	1.601	2652744	WORD	n/a	wordpools/wordpool_EN.txt	DOOR	2	22	[0, 0, 0]	n/a	FR1	3	R1145J
2642.387	0.801	2654345	WORD_OFF	n/a	n/a	DOOR	2	22	[0, 0, 0]	n/a	FR1	3	R1145J
2643.188	1.615	2655146	WORD	n/a	wordpools/wordpool_EN.txt	BEAR	3	22	[0, 0, 0]	n/a	FR1	3	R1145J
2644.803	0.784	2656761	WORD_OFF	n/a	n/a	BEAR	3	22	[0, 0, 0]	n/a	FR1	3	R1145J
2645.587	1.617	2657545	WORD	n/a	wordpools/wordpool_EN.txt	DOCK	4	22	[0, 0, 0]	n/a	FR1	3	R1145J
2647.204	0.884	2659162	WORD_OFF	n/a	n/a	DOCK	4	22	[0, 0, 0]	n/a	FR1	3	R1145J
2648.088	1.616	2660046	WORD	n/a	wordpools/wordpool_EN.txt	FUR	5	22	[0, 0, 0]	n/a	FR1	3	R1145J
2649.704	0.784	2661662	WORD_OFF	n/a	n/a	FUR	5	22	[0, 0, 0]	n/a	FR1	3	R1145J
2650.488	1.617	2662446	WORD	n/a	wordpools/wordpool_EN.txt	RUG	6	22	[0, 0, 0]	n/a	FR1	3	R1145J
2652.105	0.917	2664063	WORD_OFF	n/a	n/a	RUG	6	22	[0, 0, 0]	n/a	FR1	3	R1145J
2653.022	1.616	2664980	WORD	n/a	wordpools/wordpool_EN.txt	SAIL	7	22	[0, 0, 0]	n/a	FR1	3	R1145J
2654.638	0.983	2666596	WORD_OFF	n/a	n/a	SAIL	7	22	[0, 0, 0]	n/a	FR1	3	R1145J
2655.621	1.601	2667579	WORD	n/a	wordpools/wordpool_EN.txt	WOLF	8	22	[0, 0, 0]	n/a	FR1	3	R1145J
2657.222	0.951	2669180	WORD_OFF	n/a	n/a	WOLF	8	22	[0, 0, 0]	n/a	FR1	3	R1145J
2658.173	1.615	2670131	WORD	n/a	wordpools/wordpool_EN.txt	SKI	9	22	[0, 0, 0]	n/a	FR1	3	R1145J
2659.788	0.867	2671746	WORD_OFF	n/a	n/a	SKI	9	22	[0, 0, 0]	n/a	FR1	3	R1145J
2660.655	1.601	2672613	WORD	n/a	wordpools/wordpool_EN.txt	PANTS	10	22	[0, 0, 0]	n/a	FR1	3	R1145J
2662.256	0.951	2674214	WORD_OFF	n/a	n/a	PANTS	10	22	[0, 0, 0]	n/a	FR1	3	R1145J
2663.207	1.615	2675165	WORD	n/a	wordpools/wordpool_EN.txt	WHALE	11	22	[0, 0, 0]	n/a	FR1	3	R1145J
2664.822	0.884	2676780	WORD_OFF	n/a	n/a	WHALE	11	22	[0, 0, 0]	n/a	FR1	3	R1145J
2665.706	1.618	2677664	WORD	n/a	wordpools/wordpool_EN.txt	CLOWN	12	22	[0, 0, 0]	n/a	FR1	3	R1145J
2667.324	0.0	2679282	WORD_OFF	n/a	n/a	CLOWN	12	22	[0, 0, 0]	n/a	FR1	3	R1145J
2667.324	0.0	2679282	DISTRACT_START	n/a	n/a	n/a	-999	22	[0, 0, 0]	n/a	FR1	3	R1145J
2667.324	0.016	2679282	START	n/a	n/a	n/a	-999	22	[-999, -999, -999]	n/a	FR1	3	R1145J
2667.34	5.6	2679298	PROB	5.6	n/a	n/a	-999	22	[1, 5, 7]	13	FR1	3	R1145J
2672.94	7.034	2684898	PROB	7.034	n/a	n/a	-999	22	[5, 1, 7]	13	FR1	3	R1145J
2679.974	5.369	2691932	PROB	5.369	n/a	n/a	-999	22	[8, 4, 6]	18	FR1	3	R1145J
2685.343	24.365	2697301	PROB	24.365	n/a	n/a	-999	22	[8, 9, 9]	26	FR1	3	R1145J
2709.708	0.02	2721665	STOP	n/a	n/a	n/a	-999	22	[-999, -999, -999]	n/a	FR1	3	R1145J
2709.728	0.635	2721685	DISTRACT_END	n/a	n/a	n/a	-999	22	[0, 0, 0]	n/a	FR1	3	R1145J
2710.363	0.517	2722320	RETRIEVAL_ORIENT	n/a	n/a	n/a	-999	22	[0, 0, 0]	n/a	FR1	3	R1145J
2710.88	1.563	2722837	REC_START	n/a	n/a	n/a	-999	22	[0, 0, 0]	n/a	FR1	3	R1145J
2712.443	0.734	2724400	REC_WORD	0.734	n/a	WHALE	11	22	[0, 0, 0]	n/a	FR1	3	R1145J
2713.177	1.203	2725134	REC_WORD_VV	1.203	n/a	<>	-999	22	[0, 0, 0]	n/a	FR1	3	R1145J
2714.38	1.451	2726337	REC_WORD	1.451	n/a	WHALE	11	22	[0, 0, 0]	n/a	FR1	3	R1145J
2715.831	4.058	2727788	REC_WORD	4.058	n/a	WOLF	8	22	[0, 0, 0]	n/a	FR1	3	R1145J
2719.889	0.976	2731846	REC_WORD_VV	0.976	n/a	<>	-999	22	[0, 0, 0]	n/a	FR1	3	R1145J
2720.865	0.922	2732822	REC_WORD_VV	0.922	n/a	<>	-999	22	[0, 0, 0]	n/a	FR1	3	R1145J
2721.787	19.104	2733744	REC_WORD_VV	19.104	n/a	<>	-999	22	[0, 0, 0]	n/a	FR1	3	R1145J
2740.891	7.692	2752848	REC_END	n/a	n/a	n/a	-999	22	[0, 0, 0]	n/a	FR1	3	R1145J
2748.583	0.5	2760540	TRIAL	n/a	n/a	n/a	-999	23	[0, 0, 0]	n/a	FR1	3	R1145J
2749.083	10.428	2761040	COUNTDOWN_START	n/a	n/a	n/a	-999	23	[0, 0, 0]	n/a	FR1	3	R1145J
2759.511	0.008	2771468	COUNTDOWN_END	n/a	n/a	n/a	-999	23	[0, 0, 0]	n/a	FR1	3	R1145J
2759.519	1.617	2771476	ORIENT	n/a	n/a	n/a	-999	23	[0, 0, 0]	n/a	FR1	3	R1145J
2761.136	2.067	2773093	ORIENT_OFF	n/a	n/a	n/a	-999	23	[0, 0, 0]	n/a	FR1	3	R1145J
2763.203	1.615	2775160	WORD	n/a	wordpools/wordpool_EN.txt	FLOOR	1	23	[0, 0, 0]	n/a	FR1	3	R1145J
2764.818	0.934	2776775	WORD_OFF	n/a	n/a	FLOOR	1	23	[0, 0, 0]	n/a	FR1	3	R1145J
2765.752	1.618	2777709	WORD	n/a	wordpools/wordpool_EN.txt	SOCK	2	23	[0, 0, 0]	n/a	FR1	3	R1145J
2767.37	0.883	2779327	WORD_OFF	n/a	n/a	SOCK	2	23	[0, 0, 0]	n/a	FR1	3	R1145J
2768.253	1.616	2780210	WORD	n/a	wordpools/wordpool_EN.txt	PEACH	3	23	[0, 0, 0]	n/a	FR1	3	R1145J
2769.869	0.867	2781826	WORD_OFF	n/a	n/a	PEACH	3	23	[0, 0, 0]	n/a	FR1	3	R1145J
2770.736	1.618	2782693	WORD	n/a	wordpools/wordpool_EN.txt	CANE	4	23	[0, 0, 0]	n/a	FR1	3	R1145J
2772.354	1.0	2784311	WORD_OFF	n/a	n/a	CANE	4	23	[0, 0, 0]	n/a	FR1	3	R1145J
2773.354	1.616	2785311	WORD	n/a	wordpools/wordpool_EN.txt	SUIT	5	23	[0, 0, 0]	n/a	FR1	3	R1145J
2774.97	0.816	2786927	WORD_OFF	n/a	n/a	SUIT	5	23	[0, 0, 0]	n/a	FR1	3	R1145J
2775.786	1.602	2787743	WORD	n/a	wordpools/wordpool_EN.txt	PIE	6	23	[0, 0, 0]	n/a	FR1	3	R1145J
2777.388	0.95	2789345	WORD_OFF	n/a	n/a	PIE	6	23	[0, 0, 0]	n/a	FR1	3	R1145J
2778.338	1.616	2790295	WORD	n/a	wordpools/wordpool_EN.txt	MUG	7	23	[0, 0, 0]	n/a	FR1	3	R1145J
2779.954	0.833	2791911	WORD_OFF	n/a	n/a	MUG	7	23	[0, 0, 0]	n/a	FR1	3	R1145J
2780.787	1.601	2792744	WORD	n/a	wordpools/wordpool_EN.txt	DART	8	23	[0, 0, 0]	n/a	FR1	3	R1145J
2782.388	0.967	2794345	WORD_OFF	n/a	n/a	DART	8	23	[0, 0, 0]	n/a	FR1	3	R1145J
2783.355	1.616	2795312	WORD	n/a	wordpools/wordpool_EN.txt	DOLL	9	23	[0, 0, 0]	n/a	FR1	3	R1145J
2784.971	0.883	2796928	WORD_OFF	n/a	n/a	DOLL	9	23	[0, 0, 0]	n/a	FR1	3	R1145J
2785.854	1.618	2797811	WORD	n/a	wordpools/wordpool_EN.txt	TRAY	10	23	[0, 0, 0]	n/a	FR1	3	R1145J
2787.472	0.767	2799429	WORD_OFF	n/a	n/a	TRAY	10	23	[0, 0, 0]	n/a	FR1	3	R1145J
2788.239	1.616	2800196	WORD	n/a	wordpools/wordpool_EN.txt	CHAIR	11	23	[0, 0, 0]	n/a	FR1	3	R1145J
2789.855	0.784	2801812	WORD_OFF	n/a	n/a	CHAIR	11	23	[0, 0, 0]	n/a	FR1	3	R1145J
2790.639	1.617	2802596	WORD	n/a	wordpools/wordpool_EN.txt	PLATE	12	23	[0, 0, 0]	n/a	FR1	3	R1145J
2792.256	0.0	2804213	DISTRACT_START	n/a	n/a	n/a	-999	23	[0, 0, 0]	n/a	FR1	3	R1145J
2792.256	0.001	2804213	WORD_OFF	n/a	n/a	PLATE	12	23	[0, 0, 0]	n/a	FR1	3	R1145J
2792.257	0.016	2804214	START	n/a	n/a	n/a	-999	23	[-999, -999, -999]	n/a	FR1	3	R1145J
2792.273	4.333	2804230	PROB	4.333	n/a	n/a	-999	23	[4, 2, 9]	15	FR1	3	R1145J
2796.606	9.268	2808563	PROB	9.268	n/a	n/a	-999	23	[6, 1, 2]	9	FR1	3	R1145J
2805.874	8.805	2817831	PROB	8.805	n/a	n/a	-999	23	[3, 4, 2]	9	FR1	3	R1145J
2814.679	0.012	2826636	STOP	n/a	n/a	n/a	-999	23	[-999, -999, -999]	n/a	FR1	3	R1145J
2814.691	0.585	2826648	DISTRACT_END	n/a	n/a	n/a	-999	23	[0, 0, 0]	n/a	FR1	3	R1145J
2815.276	0.517	2827233	RETRIEVAL_ORIENT	n/a	n/a	n/a	-999	23	[0, 0, 0]	n/a	FR1	3	R1145J
2815.793	2.579	2827750	REC_START	n/a	n/a	n/a	-999	23	[0, 0, 0]	n/a	FR1	3	R1145J
2818.372	3.329	2830329	REC_WORD	3.329	n/a	PLATE	12	23	[0, 0, 0]	n/a	FR1	3	R1145J
2821.701	0.945	2833658	REC_WORD_VV	0.945	n/a	<>	-999	23	[0, 0, 0]	n/a	FR1	3	R1145J
2822.646	2.044	2834603	REC_WORD	2.044	n/a	RUG	-999	23	[0, 0, 0]	n/a	FR1	3	R1145J
2824.69	0.65	2836647	REC_WORD_VV	0.65	n/a	<>	-999	23	[0, 0, 0]	n/a	FR1	3	R1145J
2825.34	0.888	2837297	REC_WORD_VV	0.888	n/a	<>	-999	23	[0, 0, 0]	n/a	FR1	3	R1145J
2826.228	0.946	2838185	REC_WORD_VV	0.946	n/a	<>	-999	23	[0, 0, 0]	n/a	FR1	3	R1145J
2827.174	18.632	2839131	REC_WORD_VV	18.632	n/a	<>	-999	23	[0, 0, 0]	n/a	FR1	3	R1145J
2845.806	5.525	2857762	REC_END	n/a	n/a	n/a	-999	23	[0, 0, 0]	n/a	FR1	3	R1145J
2851.331	0.5	2863287	TRIAL	n/a	n/a	n/a	-999	24	[0, 0, 0]	n/a	FR1	3	R1145J
2851.831	10.428	2863787	COUNTDOWN_START	n/a	n/a	n/a	-999	24	[0, 0, 0]	n/a	FR1	3	R1145J
2862.259	0.007	2874215	COUNTDOWN_END	n/a	n/a	n/a	-999	24	[0, 0, 0]	n/a	FR1	3	R1145J
2862.266	1.615	2874222	ORIENT	n/a	n/a	n/a	-999	24	[0, 0, 0]	n/a	FR1	3	R1145J
2863.881	2.067	2875837	ORIENT_OFF	n/a	n/a	n/a	-999	24	[0, 0, 0]	n/a	FR1	3	R1145J
2865.948	1.617	2877904	WORD	n/a	wordpools/wordpool_EN.txt	TRUCK	1	24	[0, 0, 0]	n/a	FR1	3	R1145J
2867.565	0.918	2879521	WORD_OFF	n/a	n/a	TRUCK	1	24	[0, 0, 0]	n/a	FR1	3	R1145J
2868.483	1.617	2880439	WORD	n/a	wordpools/wordpool_EN.txt	ELF	2	24	[0, 0, 0]	n/a	FR1	3	R1145J
2870.1	0.866	2882056	WORD_OFF	n/a	n/a	ELF	2	24	[0, 0, 0]	n/a	FR1	3	R1145J
2870.966	1.616	2882922	WORD	n/a	wordpools/wordpool_EN.txt	STICK	3	24	[0, 0, 0]	n/a	FR1	3	R1145J
2872.582	0.885	2884538	WORD_OFF	n/a	n/a	STICK	3	24	[0, 0, 0]	n/a	FR1	3	R1145J
2873.467	1.617	2885423	WORD	n/a	wordpools/wordpool_EN.txt	GATE	4	24	[0, 0, 0]	n/a	FR1	3	R1145J
2875.084	1.0	2887040	WORD_OFF	n/a	n/a	GATE	4	24	[0, 0, 0]	n/a	FR1	3	R1145J
2876.084	1.616	2888040	WORD	n/a	wordpools/wordpool_EN.txt	SEAT	5	24	[0, 0, 0]	n/a	FR1	3	R1145J
2877.7	0.933	2889656	WORD_OFF	n/a	n/a	SEAT	5	24	[0, 0, 0]	n/a	FR1	3	R1145J
2878.633	1.618	2890589	WORD	n/a	wordpools/wordpool_EN.txt	BROOM	6	24	[0, 0, 0]	n/a	FR1	3	R1145J
2880.251	0.933	2892207	WORD_OFF	n/a	n/a	BROOM	6	24	[0, 0, 0]	n/a	FR1	3	R1145J
2881.184	1.616	2893140	WORD	n/a	wordpools/wordpool_EN.txt	VEST	7	24	[0, 0, 0]	n/a	FR1	3	R1145J
2882.8	0.867	2894756	WORD_OFF	n/a	n/a	VEST	7	24	[0, 0, 0]	n/a	FR1	3	R1145J
2883.667	1.618	2895623	WORD	n/a	wordpools/wordpool_EN.txt	STAIR	8	24	[0, 0, 0]	n/a	FR1	3	R1145J
2885.285	0.8	2897241	WORD_OFF	n/a	n/a	STAIR	8	24	[0, 0, 0]	n/a	FR1	3	R1145J
2886.085	1.616	2898041	WORD	n/a	wordpools/wordpool_EN.txt	DESK	9	24	[0, 0, 0]	n/a	FR1	3	R1145J
2887.701	0.818	2899657	WORD_OFF	n/a	n/a	DESK	9	24	[0, 0, 0]	n/a	FR1	3	R1145J
2888.519	1.617	2900475	WORD	n/a	wordpools/wordpool_EN.txt	LIP	10	24	[0, 0, 0]	n/a	FR1	3	R1145J
2890.136	0.765	2902092	WORD_OFF	n/a	n/a	LIP	10	24	[0, 0, 0]	n/a	FR1	3	R1145J
2890.901	1.618	2902857	WORD	n/a	wordpools/wordpool_EN.txt	ROOM	11	24	[0, 0, 0]	n/a	FR1	3	R1145J
2892.519	0.851	2904475	WORD_OFF	n/a	n/a	ROOM	11	24	[0, 0, 0]	n/a	FR1	3	R1145J
2893.37	1.615	2905326	WORD	n/a	wordpools/wordpool_EN.txt	TIE	12	24	[0, 0, 0]	n/a	FR1	3	R1145J
2894.985	0.0	2906941	WORD_OFF	n/a	n/a	TIE	12	24	[0, 0, 0]	n/a	FR1	3	R1145J
2894.985	0.001	2906941	DISTRACT_START	n/a	n/a	n/a	-999	24	[0, 0, 0]	n/a	FR1	3	R1145J
2894.986	0.017	2906942	START	n/a	n/a	n/a	-999	24	[-999, -999, -999]	n/a	FR1	3	R1145J
2895.003	4.117	2906959	PROB	4.117	n/a	n/a	-999	24	[3, 1, 4]	8	FR1	3	R1145J
2899.12	5.616	2911076	PROB	5.616	n/a	n/a	-999	24	[9, 1, 8]	18	FR1	3	R1145J
2904.736	11.651	2916692	PROB	11.651	n/a	n/a	-999	24	[7, 9, 6]	22	FR1	3	R1145J
2916.387	0.018	2928343	STOP	n/a	n/a	n/a	-999	24	[-999, -999, -999]	n/a	FR1	3	R1145J
2916.405	0.701	2928361	DISTRACT_END	n/a	n/a	n/a	-999	24	[0, 0, 0]	n/a	FR1	3	R1145J
2917.106	0.517	2929062	RETRIEVAL_ORIENT	n/a	n/a	n/a	-999	24	[0, 0, 0]	n/a	FR1	3	R1145J
2917.623	2.68	2929579	REC_START	n/a	n/a	n/a	-999	24	[0, 0, 0]	n/a	FR1	3	R1145J
2920.303	2.917	2932259	REC_WORD	2.917	n/a	PLATE	-999	24	[0, 0, 0]	n/a	FR1	3	R1145J
2923.22	1.465	2935176	REC_WORD	1.465	n/a	LIP	10	24	[0, 0, 0]	n/a	FR1	3	R1145J
2924.685	2.42	2936641	REC_WORD	2.42	n/a	SEAT	5	24	[0, 0, 0]	n/a	FR1	3	R1145J
2927.105	8.815	2939061	REC_WORD	8.815	n/a	ELF	2	24	[0, 0, 0]	n/a	FR1	3	R1145J
2935.92	9.241	2947876	REC_WORD_VV	9.241	n/a	<>	-999	24	[0, 0, 0]	n/a	FR1	3	R1145J
2945.161	1.918	2957117	REC_WORD	1.918	n/a	ROOM	11	24	[0, 0, 0]	n/a	FR1	3	R1145J
2947.079	0.555	2959035	REC_WORD_VV	0.555	n/a	<>	-999	24	[0, 0, 0]	n/a	FR1	3	R1145J
2947.634	4.292	2959590	REC_END	n/a	n/a	n/a	-999	24	[0, 0, 0]	n/a	FR1	3	R1145J
2951.926	0.5	2963882	TRIAL	n/a	n/a	n/a	-999	25	[0, 0, 0]	n/a	FR1	3	R1145J
2952.426	10.428	2964382	COUNTDOWN_START	n/a	n/a	n/a	-999	25	[0, 0, 0]	n/a	FR1	3	R1145J
2962.854	0.007	2974810	COUNTDOWN_END	n/a	n/a	n/a	-999	25	[0, 0, 0]	n/a	FR1	3	R1145J
2962.861	1.617	2974817	ORIENT	n/a	n/a	n/a	-999	25	[0, 0, 0]	n/a	FR1	3	R1145J
2964.478	2.266	2976433	ORIENT_OFF	n/a	n/a	n/a	-999	25	[0, 0, 0]	n/a	FR1	3	R1145J
2966.744	1.618	2978699	WORD	n/a	wordpools/wordpool_EN.txt	JUICE	1	25	[0, 0, 0]	n/a	FR1	3	R1145J
2968.362	0.884	2980317	WORD_OFF	n/a	n/a	JUICE	1	25	[0, 0, 0]	n/a	FR1	3	R1145J
2969.246	1.616	2981201	WORD	n/a	wordpools/wordpool_EN.txt	CLAY	2	25	[0, 0, 0]	n/a	FR1	3	R1145J
2970.862	0.95	2982817	WORD_OFF	n/a	n/a	CLAY	2	25	[0, 0, 0]	n/a	FR1	3	R1145J
