onset	duration	sample	trial_type	response_time	stim_file	item_name	serialpos	list	test	answer	experiment	session	subject
0.0	62.712	1826	INSTRUCT_START	n/a	n/a	n/a	-999	-999	[0, 0, 0]	n/a	FR1	2	R1308T
62.712	2.934	64535	INSTRUCT_END	n/a	n/a	n/a	-999	-999	[0, 0, 0]	n/a	FR1	2	R1308T
65.646	29.741	67469	MIC TEST_START	n/a	n/a	n/a	-999	-999	[0, 0, 0]	n/a	FR1	2	R1308T
95.387	0.01	97208	MIC TEST_END	n/a	n/a	n/a	-999	-999	[0, 0, 0]	n/a	FR1	2	R1308T
95.397	0.0	97218	TRIAL_START	n/a	n/a	n/a	-999	-1	[0, 0, 0]	n/a	FR1	2	R1308T
95.397	0.0	97218	TRIAL	n/a	n/a	n/a	-999	-1	[0, 0, 0]	n/a	FR1	2	R1308T
95.397	6.305	97218	WAITING_START	n/a	n/a	n/a	-999	-1	[0, 0, 0]	n/a	FR1	2	R1308T
101.702	0.001	103523	WAITING_END	n/a	n/a	n/a	-999	-1	[0, 0, 0]	n/a	FR1	2	R1308T
101.703	10.428	103524	COUNTDOWN_START	n/a	n/a	n/a	-999	-1	[0, 0, 0]	n/a	FR1	2	R1308T
112.131	0.001	113952	COUNTDOWN_END	n/a	n/a	n/a	-999	-1	[0, 0, 0]	n/a	FR1	2	R1308T
112.132	1.172	113953	ORIENT_START	n/a	n/a	n/a	-999	-1	[0, 0, 0]	n/a	FR1	2	R1308T
113.304	0.001	115125	ORIENT_END	n/a	n/a	n/a	-999	-1	[0, 0, 0]	n/a	FR1	2	R1308T
113.305	0.906	115126	ENCODING_START	n/a	n/a	n/a	-999	-1	[0, 0, 0]	n/a	FR1	2	R1308T
114.211	1.627	116031	WORD	n/a	n/a	BABY	1	-1	[0, 0, 0]	n/a	FR1	2	R1308T
115.838	1.11	117658	WORD_OFF	n/a	n/a	BABY	1	-1	[0, 0, 0]	n/a	FR1	2	R1308T
116.948	1.624	118768	WORD	n/a	n/a	CHEST	2	-1	[0, 0, 0]	n/a	FR1	2	R1308T
118.572	0.996	120392	WORD_OFF	n/a	n/a	CHEST	2	-1	[0, 0, 0]	n/a	FR1	2	R1308T
119.568	1.622	121388	WORD	n/a	n/a	CAMEL	3	-1	[0, 0, 0]	n/a	FR1	2	R1308T
121.19	0.928	123010	WORD_OFF	n/a	n/a	CAMEL	3	-1	[0, 0, 0]	n/a	FR1	2	R1308T
122.118	1.621	123938	WORD	n/a	n/a	WATCH	4	-1	[0, 0, 0]	n/a	FR1	2	R1308T
123.739	0.788	125559	WORD_OFF	n/a	n/a	WATCH	4	-1	[0, 0, 0]	n/a	FR1	2	R1308T
124.527	1.614	126347	WORD	n/a	n/a	BEAM	5	-1	[0, 0, 0]	n/a	FR1	2	R1308T
126.141	0.938	127961	WORD_OFF	n/a	n/a	BEAM	5	-1	[0, 0, 0]	n/a	FR1	2	R1308T
127.079	1.628	128899	WORD	n/a	n/a	TONGUE	6	-1	[0, 0, 0]	n/a	FR1	2	R1308T
128.707	0.995	130527	WORD_OFF	n/a	n/a	TONGUE	6	-1	[0, 0, 0]	n/a	FR1	2	R1308T
129.702	1.622	131522	WORD	n/a	n/a	WAGON	7	-1	[0, 0, 0]	n/a	FR1	2	R1308T
131.324	1.1	133144	WORD_OFF	n/a	n/a	WAGON	7	-1	[0, 0, 0]	n/a	FR1	2	R1308T
132.424	1.635	134244	WORD	n/a	n/a	IMAGE	8	-1	[0, 0, 0]	n/a	FR1	2	R1308T
134.059	1.068	135879	WORD_OFF	n/a	n/a	IMAGE	8	-1	[0, 0, 0]	n/a	FR1	2	R1308T
135.127	1.632	136947	WORD	n/a	n/a	COTTON	9	-1	[0, 0, 0]	n/a	FR1	2	R1308T
136.759	0.974	138578	WORD_OFF	n/a	n/a	COTTON	9	-1	[0, 0, 0]	n/a	FR1	2	R1308T
137.733	1.626	139552	WORD	n/a	n/a	RHINO	10	-1	[0, 0, 0]	n/a	FR1	2	R1308T
139.359	1.115	141178	WORD_OFF	n/a	n/a	RHINO	10	-1	[0, 0, 0]	n/a	FR1	2	R1308T
140.474	1.636	142293	WORD	n/a	n/a	RING	11	-1	[0, 0, 0]	n/a	FR1	2	R1308T
142.11	0.86	143929	WORD_OFF	n/a	n/a	RING	11	-1	[0, 0, 0]	n/a	FR1	2	R1308T
142.97	1.623	144789	WORD	n/a	n/a	FLOOD	12	-1	[0, 0, 0]	n/a	FR1	2	R1308T
144.593	0.0	146412	WORD_OFF	n/a	n/a	FLOOD	12	-1	[0, 0, 0]	n/a	FR1	2	R1308T
144.593	0.001	146412	ENCODING_END	n/a	n/a	n/a	-999	-1	[0, 0, 0]	n/a	FR1	2	R1308T
144.594	0.0	146413	DISTRACT_START	n/a	n/a	n/a	-999	-1	[0, 0, 0]	n/a	FR1	2	R1308T
144.594	0.016	146413	START	n/a	n/a	n/a	-999	-1	[-999, -999, -999]	n/a	FR1	2	R1308T
144.61	3.917	146429	PROB	3.917	n/a	n/a	-999	-1	[2, 8, 1]	11	FR1	2	R1308T
148.527	4.335	150346	PROB	4.335	n/a	n/a	-999	-1	[5, 5, 9]	19	FR1	2	R1308T
152.862	4.417	154681	PROB	4.417	n/a	n/a	-999	-1	[1, 2, 6]	9	FR1	2	R1308T
157.279	6.835	159098	PROB	6.835	n/a	n/a	-999	-1	[6, 6, 5]	18	FR1	2	R1308T
164.114	10.529	165932	PROB	10.529	n/a	n/a	-999	-1	[1, 8, 6]	15	FR1	2	R1308T
174.643	0.022	176461	STOP	n/a	n/a	n/a	-999	-1	[-999, -999, -999]	n/a	FR1	2	R1308T
174.665	0.593	176483	DISTRACT_END	n/a	n/a	n/a	-999	-1	[0, 0, 0]	n/a	FR1	2	R1308T
175.258	1.574	177076	RETRIEVAL_ORIENT_START	n/a	n/a	n/a	-999	-1	[0, 0, 0]	n/a	FR1	2	R1308T
176.832	0.001	178650	RETRIEVAL_ORIENT_END	n/a	n/a	n/a	-999	-1	[0, 0, 0]	n/a	FR1	2	R1308T
176.833	0.979	178651	REC_START	n/a	n/a	n/a	-999	-1	[0, 0, 0]	n/a	FR1	2	R1308T
177.812	1.13	179630	REC_WORD	1.13	n/a	RHINO	10	-1	[0, 0, 0]	n/a	FR1	2	R1308T
178.942	1.284	180760	REC_WORD	1.284	n/a	COTTON	9	-1	[0, 0, 0]	n/a	FR1	2	R1308T
180.226	1.197	182044	REC_WORD	1.197	n/a	BABY	1	-1	[0, 0, 0]	n/a	FR1	2	R1308T
181.423	1.332	183240	REC_WORD	1.332	n/a	CHEST	2	-1	[0, 0, 0]	n/a	FR1	2	R1308T
182.755	1.42	184572	REC_WORD	1.42	n/a	RING	11	-1	[0, 0, 0]	n/a	FR1	2	R1308T
184.175	1.612	185992	REC_WORD	1.612	n/a	IMAGE	8	-1	[0, 0, 0]	n/a	FR1	2	R1308T
185.787	21.06	187604	REC_WORD	21.06	n/a	BEAM	5	-1	[0, 0, 0]	n/a	FR1	2	R1308T
206.847	0.001	208663	REC_END	n/a	n/a	n/a	-999	-1	[0, 0, 0]	n/a	FR1	2	R1308T
206.848	32.496	208664	PRACTICE_POST_INSTRUCT_START	n/a	n/a	n/a	-999	-1	[0, 0, 0]	n/a	FR1	2	R1308T
239.344	0.0	241159	PRACTICE_POST_INSTRUCT_END	n/a	n/a	n/a	-999	-1	[0, 0, 0]	n/a	FR1	2	R1308T
239.344	0.017	241159	TRIAL_END	n/a	n/a	n/a	-999	-1	[0, 0, 0]	n/a	FR1	2	R1308T
239.361	0.0	241176	TRIAL_START	n/a	n/a	n/a	-999	1	[0, 0, 0]	n/a	FR1	2	R1308T
239.361	0.0	241176	TRIAL	n/a	n/a	n/a	-999	1	[0, 0, 0]	n/a	FR1	2	R1308T
239.361	1.584	241176	WAITING_START	n/a	n/a	n/a	-999	1	[0, 0, 0]	n/a	FR1	2	R1308T
240.945	0.0	242760	WAITING_END	n/a	n/a	n/a	-999	1	[0, 0, 0]	n/a	FR1	2	R1308T
240.945	10.43	242760	COUNTDOWN_START	n/a	n/a	n/a	-999	1	[0, 0, 0]	n/a	FR1	2	R1308T
251.375	0.0	253189	COUNTDOWN_END	n/a	n/a	n/a	-999	1	[0, 0, 0]	n/a	FR1	2	R1308T
251.375	1.104	253189	ORIENT_START	n/a	n/a	n/a	-999	1	[0, 0, 0]	n/a	FR1	2	R1308T
252.479	0.001	254293	ORIENT_END	n/a	n/a	n/a	-999	1	[0, 0, 0]	n/a	FR1	2	R1308T
252.48	0.834	254294	ENCODING_START	n/a	n/a	n/a	-999	1	[0, 0, 0]	n/a	FR1	2	R1308T
253.314	1.617	255128	WORD	n/a	n/a	SWAMP	1	1	[0, 0, 0]	n/a	FR1	2	R1308T
254.931	0.978	256745	WORD_OFF	n/a	n/a	SWAMP	1	1	[0, 0, 0]	n/a	FR1	2	R1308T
255.909	1.621	257723	WORD	n/a	n/a	MOLE	2	1	[0, 0, 0]	n/a	FR1	2	R1308T
257.53	1.051	259344	WORD_OFF	n/a	n/a	MOLE	2	1	[0, 0, 0]	n/a	FR1	2	R1308T
258.581	1.617	260395	WORD	n/a	n/a	SQUARE	3	1	[0, 0, 0]	n/a	FR1	2	R1308T
260.198	1.118	262012	WORD_OFF	n/a	n/a	SQUARE	3	1	[0, 0, 0]	n/a	FR1	2	R1308T
261.316	1.633	263130	WORD	n/a	n/a	CLOUD	4	1	[0, 0, 0]	n/a	FR1	2	R1308T
262.949	0.857	264763	WORD_OFF	n/a	n/a	CLOUD	4	1	[0, 0, 0]	n/a	FR1	2	R1308T
263.806	1.626	265620	WORD	n/a	n/a	BANK	5	1	[0, 0, 0]	n/a	FR1	2	R1308T
265.432	0.757	267246	WORD_OFF	n/a	n/a	BANK	5	1	[0, 0, 0]	n/a	FR1	2	R1308T
266.189	1.626	268003	WORD	n/a	n/a	GRAPE	6	1	[0, 0, 0]	n/a	FR1	2	R1308T
267.815	1.073	269629	WORD_OFF	n/a	n/a	GRAPE	6	1	[0, 0, 0]	n/a	FR1	2	R1308T
268.888	1.628	270702	WORD	n/a	n/a	WOOD	7	1	[0, 0, 0]	n/a	FR1	2	R1308T
270.516	1.089	272329	WORD_OFF	n/a	n/a	WOOD	7	1	[0, 0, 0]	n/a	FR1	2	R1308T
271.605	1.629	273418	WORD	n/a	n/a	RIB	8	1	[0, 0, 0]	n/a	FR1	2	R1308T
273.234	0.797	275047	WORD_OFF	n/a	n/a	RIB	8	1	[0, 0, 0]	n/a	FR1	2	R1308T
274.031	1.636	275844	WORD	n/a	n/a	MAIL	9	1	[0, 0, 0]	n/a	FR1	2	R1308T
275.667	1.046	277480	WORD_OFF	n/a	n/a	MAIL	9	1	[0, 0, 0]	n/a	FR1	2	R1308T
276.713	1.621	278526	WORD	n/a	n/a	BAG	10	1	[0, 0, 0]	n/a	FR1	2	R1308T
278.334	0.765	280147	WORD_OFF	n/a	n/a	BAG	10	1	[0, 0, 0]	n/a	FR1	2	R1308T
279.099	1.635	280912	WORD	n/a	n/a	FUDGE	11	1	[0, 0, 0]	n/a	FR1	2	R1308T
280.734	1.116	282547	WORD_OFF	n/a	n/a	FUDGE	11	1	[0, 0, 0]	n/a	FR1	2	R1308T
281.85	1.635	283663	WORD	n/a	n/a	SEA	12	1	[0, 0, 0]	n/a	FR1	2	R1308T
283.485	0.0	285298	WORD_OFF	n/a	n/a	SEA	12	1	[0, 0, 0]	n/a	FR1	2	R1308T
283.485	0.001	285298	ENCODING_END	n/a	n/a	n/a	-999	1	[0, 0, 0]	n/a	FR1	2	R1308T
283.486	0.0	285299	DISTRACT_START	n/a	n/a	n/a	-999	1	[0, 0, 0]	n/a	FR1	2	R1308T
283.486	0.015	285299	START	n/a	n/a	n/a	-999	1	[-999, -999, -999]	n/a	FR1	2	R1308T
283.501	5.068	285314	PROB	5.068	n/a	n/a	-999	1	[4, 1, 9]	14	FR1	2	R1308T
288.569	5.635	290382	PROB	5.635	n/a	n/a	-999	1	[8, 3, 2]	13	FR1	2	R1308T
294.204	8.601	296016	PROB	8.601	n/a	n/a	-999	1	[7, 6, 6]	19	FR1	2	R1308T
302.805	4.632	304617	PROB	4.632	n/a	n/a	-999	1	[6, 6, 3]	15	FR1	2	R1308T
307.437	0.019	309249	STOP	n/a	n/a	n/a	-999	1	[-999, -999, -999]	n/a	FR1	2	R1308T
307.456	0.507	309268	DISTRACT_END	n/a	n/a	n/a	-999	1	[0, 0, 0]	n/a	FR1	2	R1308T
307.963	1.643	309775	RETRIEVAL_ORIENT_START	n/a	n/a	n/a	-999	1	[0, 0, 0]	n/a	FR1	2	R1308T
309.606	0.001	311418	RETRIEVAL_ORIENT_END	n/a	n/a	n/a	-999	1	[0, 0, 0]	n/a	FR1	2	R1308T
309.607	0.777	311419	REC_START	n/a	n/a	n/a	-999	1	[0, 0, 0]	n/a	FR1	2	R1308T
310.384	1.547	312196	REC_WORD	1.547	n/a	SWAMP	1	1	[0, 0, 0]	n/a	FR1	2	R1308T
311.931	1.185	313743	REC_WORD	1.185	n/a	MOLE	2	1	[0, 0, 0]	n/a	FR1	2	R1308T
313.116	4.267	314928	REC_WORD	4.267	n/a	SQUARE	3	1	[0, 0, 0]	n/a	FR1	2	R1308T
317.383	1.856	319194	REC_WORD	1.856	n/a	GRAPE	6	1	[0, 0, 0]	n/a	FR1	2	R1308T
319.239	20.381	321050	REC_WORD	20.381	n/a	BAG	10	1	[0, 0, 0]	n/a	FR1	2	R1308T
339.62	0.0	341430	REC_END	n/a	n/a	n/a	-999	1	[0, 0, 0]	n/a	FR1	2	R1308T
339.62	0.015	341430	TRIAL_END	n/a	n/a	n/a	-999	1	[0, 0, 0]	n/a	FR1	2	R1308T
339.635	0.0	341445	TRIAL_START	n/a	n/a	n/a	-999	2	[0, 0, 0]	n/a	FR1	2	R1308T
339.635	0.0	341445	TRIAL	n/a	n/a	n/a	-999	2	[0, 0, 0]	n/a	FR1	2	R1308T
339.635	73.508	341445	WAITING_START	n/a	n/a	n/a	-999	2	[0, 0, 0]	n/a	FR1	2	R1308T
413.143	0.0	414950	COUNTDOWN_START	n/a	n/a	n/a	-999	2	[0, 0, 0]	n/a	FR1	2	R1308T
413.143	10.428	414950	WAITING_END	n/a	n/a	n/a	-999	2	[0, 0, 0]	n/a	FR1	2	R1308T
423.571	0.001	425378	COUNTDOWN_END	n/a	n/a	n/a	-999	2	[0, 0, 0]	n/a	FR1	2	R1308T
423.572	1.255	425379	ORIENT_START	n/a	n/a	n/a	-999	2	[0, 0, 0]	n/a	FR1	2	R1308T
424.827	0.001	426634	ORIENT_END	n/a	n/a	n/a	-999	2	[0, 0, 0]	n/a	FR1	2	R1308T
424.828	0.965	426635	ENCODING_START	n/a	n/a	n/a	-999	2	[0, 0, 0]	n/a	FR1	2	R1308T
425.793	1.635	427600	WORD	n/a	n/a	AXE	1	2	[0, 0, 0]	n/a	FR1	2	R1308T
427.428	1.149	429234	WORD_OFF	n/a	n/a	AXE	1	2	[0, 0, 0]	n/a	FR1	2	R1308T
428.577	1.619	430383	WORD	n/a	n/a	TANK	2	2	[0, 0, 0]	n/a	FR1	2	R1308T
430.196	1.104	432002	WORD_OFF	n/a	n/a	TANK	2	2	[0, 0, 0]	n/a	FR1	2	R1308T
431.3	1.613	433106	WORD	n/a	n/a	DRESS	3	2	[0, 0, 0]	n/a	FR1	2	R1308T
432.913	0.818	434719	WORD_OFF	n/a	n/a	DRESS	3	2	[0, 0, 0]	n/a	FR1	2	R1308T
433.731	1.631	435537	WORD	n/a	n/a	BLUSH	4	2	[0, 0, 0]	n/a	FR1	2	R1308T
435.362	0.753	437168	WORD_OFF	n/a	n/a	BLUSH	4	2	[0, 0, 0]	n/a	FR1	2	R1308T
436.115	1.631	437921	WORD	n/a	n/a	WOLF	5	2	[0, 0, 0]	n/a	FR1	2	R1308T
437.746	1.105	439552	WORD_OFF	n/a	n/a	WOLF	5	2	[0, 0, 0]	n/a	FR1	2	R1308T
438.851	1.629	440657	WORD	n/a	n/a	SUIT	6	2	[0, 0, 0]	n/a	FR1	2	R1308T
440.48	0.976	442286	WORD_OFF	n/a	n/a	SUIT	6	2	[0, 0, 0]	n/a	FR1	2	R1308T
441.456	1.609	443262	WORD	n/a	n/a	SPARK	7	2	[0, 0, 0]	n/a	FR1	2	R1308T
443.065	0.752	444871	WORD_OFF	n/a	n/a	SPARK	7	2	[0, 0, 0]	n/a	FR1	2	R1308T
443.817	1.631	445623	WORD	n/a	n/a	PLANE	8	2	[0, 0, 0]	n/a	FR1	2	R1308T
445.448	1.057	447254	WORD_OFF	n/a	n/a	PLANE	8	2	[0, 0, 0]	n/a	FR1	2	R1308T
446.505	1.627	448311	WORD	n/a	n/a	HEN	9	2	[0, 0, 0]	n/a	FR1	2	R1308T
448.132	1.1	449938	WORD_OFF	n/a	n/a	HEN	9	2	[0, 0, 0]	n/a	FR1	2	R1308T
449.232	1.634	451037	WORD	n/a	n/a	COIN	10	2	[0, 0, 0]	n/a	FR1	2	R1308T
450.866	0.769	452671	WORD_OFF	n/a	n/a	COIN	10	2	[0, 0, 0]	n/a	FR1	2	R1308T
451.635	1.614	453440	WORD	n/a	n/a	DEER	11	2	[0, 0, 0]	n/a	FR1	2	R1308T
453.249	0.99	455054	WORD_OFF	n/a	n/a	DEER	11	2	[0, 0, 0]	n/a	FR1	2	R1308T
454.239	1.628	456044	WORD	n/a	n/a	BOMB	12	2	[0, 0, 0]	n/a	FR1	2	R1308T
455.867	0.001	457672	WORD_OFF	n/a	n/a	BOMB	12	2	[0, 0, 0]	n/a	FR1	2	R1308T
455.868	0.0	457673	ENCODING_END	n/a	n/a	n/a	-999	2	[0, 0, 0]	n/a	FR1	2	R1308T
455.868	0.0	457673	DISTRACT_START	n/a	n/a	n/a	-999	2	[0, 0, 0]	n/a	FR1	2	R1308T
455.868	0.016	457673	START	n/a	n/a	n/a	-999	2	[-999, -999, -999]	n/a	FR1	2	R1308T
455.884	7.118	457689	PROB	7.118	n/a	n/a	-999	2	[8, 9, 2]	19	FR1	2	R1308T
463.002	8.985	464807	PROB	8.985	n/a	n/a	-999	2	[9, 8, 4]	21	FR1	2	R1308T
471.987	9.452	473791	PROB	9.452	n/a	n/a	-999	2	[4, 9, 7]	20	FR1	2	R1308T
481.439	0.015	483243	STOP	n/a	n/a	n/a	-999	2	[-999, -999, -999]	n/a	FR1	2	R1308T
481.454	0.542	483258	DISTRACT_END	n/a	n/a	n/a	-999	2	[0, 0, 0]	n/a	FR1	2	R1308T
481.996	1.592	483800	RETRIEVAL_ORIENT_START	n/a	n/a	n/a	-999	2	[0, 0, 0]	n/a	FR1	2	R1308T
483.588	0.0	485392	RETRIEVAL_ORIENT_END	n/a	n/a	n/a	-999	2	[0, 0, 0]	n/a	FR1	2	R1308T
483.588	1.091	485392	REC_START	n/a	n/a	n/a	-999	2	[0, 0, 0]	n/a	FR1	2	R1308T
484.679	1.358	486483	REC_WORD	1.358	n/a	AXE	1	2	[0, 0, 0]	n/a	FR1	2	R1308T
486.037	1.815	487841	REC_WORD	1.815	n/a	TANK	2	2	[0, 0, 0]	n/a	FR1	2	R1308T
487.852	6.147	489656	REC_WORD	6.147	n/a	DEER	11	2	[0, 0, 0]	n/a	FR1	2	R1308T
493.999	1.892	495802	REC_WORD	1.892	n/a	COIN	10	2	[0, 0, 0]	n/a	FR1	2	R1308T
495.891	17.71	497694	REC_WORD	17.71	n/a	HEN	9	2	[0, 0, 0]	n/a	FR1	2	R1308T
513.601	0.001	515404	REC_END	n/a	n/a	n/a	-999	2	[0, 0, 0]	n/a	FR1	2	R1308T
513.602	0.016	515405	TRIAL_END	n/a	n/a	n/a	-999	2	[0, 0, 0]	n/a	FR1	2	R1308T
513.618	0.001	515421	TRIAL_START	n/a	n/a	n/a	-999	3	[0, 0, 0]	n/a	FR1	2	R1308T
513.619	0.0	515422	TRIAL	n/a	n/a	n/a	-999	3	[0, 0, 0]	n/a	FR1	2	R1308T
513.619	28.796	515422	WAITING_START	n/a	n/a	n/a	-999	3	[0, 0, 0]	n/a	FR1	2	R1308T
542.415	0.0	544216	WAITING_END	n/a	n/a	n/a	-999	3	[0, 0, 0]	n/a	FR1	2	R1308T
542.415	10.429	544216	COUNTDOWN_START	n/a	n/a	n/a	-999	3	[0, 0, 0]	n/a	FR1	2	R1308T
552.844	0.0	554645	COUNTDOWN_END	n/a	n/a	n/a	-999	3	[0, 0, 0]	n/a	FR1	2	R1308T
552.844	1.258	554645	ORIENT_START	n/a	n/a	n/a	-999	3	[0, 0, 0]	n/a	FR1	2	R1308T
554.102	0.0	555903	ORIENT_END	n/a	n/a	n/a	-999	3	[0, 0, 0]	n/a	FR1	2	R1308T
554.102	0.942	555903	ENCODING_START	n/a	n/a	n/a	-999	3	[0, 0, 0]	n/a	FR1	2	R1308T
555.044	1.624	556845	WORD	n/a	n/a	BOY	1	3	[0, 0, 0]	n/a	FR1	2	R1308T
556.668	1.12	558469	WORD_OFF	n/a	n/a	BOY	1	3	[0, 0, 0]	n/a	FR1	2	R1308T
557.788	1.63	559589	WORD	n/a	n/a	RUG	2	3	[0, 0, 0]	n/a	FR1	2	R1308T
559.418	0.862	561219	WORD_OFF	n/a	n/a	RUG	2	3	[0, 0, 0]	n/a	FR1	2	R1308T
560.28	1.623	562081	WORD	n/a	n/a	CHALK	3	3	[0, 0, 0]	n/a	FR1	2	R1308T
561.903	0.902	563703	WORD_OFF	n/a	n/a	CHALK	3	3	[0, 0, 0]	n/a	FR1	2	R1308T
562.805	1.631	564605	WORD	n/a	n/a	BRUSH	4	3	[0, 0, 0]	n/a	FR1	2	R1308T
564.436	1.06	566236	WORD_OFF	n/a	n/a	BRUSH	4	3	[0, 0, 0]	n/a	FR1	2	R1308T
565.496	1.608	567296	WORD	n/a	n/a	EGG	5	3	[0, 0, 0]	n/a	FR1	2	R1308T
567.104	0.859	568904	WORD_OFF	n/a	n/a	EGG	5	3	[0, 0, 0]	n/a	FR1	2	R1308T
567.963	1.624	569763	WORD	n/a	n/a	SWORD	6	3	[0, 0, 0]	n/a	FR1	2	R1308T
569.587	0.99	571387	WORD_OFF	n/a	n/a	SWORD	6	3	[0, 0, 0]	n/a	FR1	2	R1308T
570.577	1.628	572377	WORD	n/a	n/a	PHONE	7	3	[0, 0, 0]	n/a	FR1	2	R1308T
572.205	1.107	574005	WORD_OFF	n/a	n/a	PHONE	7	3	[0, 0, 0]	n/a	FR1	2	R1308T
573.312	1.61	575112	WORD	n/a	n/a	KITE	8	3	[0, 0, 0]	n/a	FR1	2	R1308T
574.922	0.972	576722	WORD_OFF	n/a	n/a	KITE	8	3	[0, 0, 0]	n/a	FR1	2	R1308T
575.894	1.627	577694	WORD	n/a	n/a	STAR	9	3	[0, 0, 0]	n/a	FR1	2	R1308T
577.521	0.833	579321	WORD_OFF	n/a	n/a	STAR	9	3	[0, 0, 0]	n/a	FR1	2	R1308T
578.354	1.619	580154	WORD	n/a	n/a	CROWN	10	3	[0, 0, 0]	n/a	FR1	2	R1308T
579.973	1.146	581773	WORD_OFF	n/a	n/a	CROWN	10	3	[0, 0, 0]	n/a	FR1	2	R1308T
581.119	1.637	582919	WORD	n/a	n/a	ROSE	11	3	[0, 0, 0]	n/a	FR1	2	R1308T
582.756	0.833	584555	WORD_OFF	n/a	n/a	ROSE	11	3	[0, 0, 0]	n/a	FR1	2	R1308T
583.589	1.635	585388	WORD	n/a	n/a	BADGE	12	3	[0, 0, 0]	n/a	FR1	2	R1308T
585.224	0.0	587023	WORD_OFF	n/a	n/a	BADGE	12	3	[0, 0, 0]	n/a	FR1	2	R1308T
585.224	0.0	587023	ENCODING_END	n/a	n/a	n/a	-999	3	[0, 0, 0]	n/a	FR1	2	R1308T
585.224	0.001	587023	DISTRACT_START	n/a	n/a	n/a	-999	3	[0, 0, 0]	n/a	FR1	2	R1308T
585.225	0.015	587024	START	n/a	n/a	n/a	-999	3	[-999, -999, -999]	n/a	FR1	2	R1308T
585.24	9.852	587039	PROB	9.852	n/a	n/a	-999	3	[4, 8, 7]	19	FR1	2	R1308T
595.092	5.75	596891	PROB	5.75	n/a	n/a	-999	3	[4, 2, 5]	11	FR1	2	R1308T
600.842	5.475	602641	PROB	5.475	n/a	n/a	-999	3	[1, 9, 2]	12	FR1	2	R1308T
606.317	0.01	608115	STOP	n/a	n/a	n/a	-999	3	[-999, -999, -999]	n/a	FR1	2	R1308T
606.327	0.57	608125	DISTRACT_END	n/a	n/a	n/a	-999	3	[0, 0, 0]	n/a	FR1	2	R1308T
606.897	1.713	608695	RETRIEVAL_ORIENT_START	n/a	n/a	n/a	-999	3	[0, 0, 0]	n/a	FR1	2	R1308T
608.61	0.001	610408	RETRIEVAL_ORIENT_END	n/a	n/a	n/a	-999	3	[0, 0, 0]	n/a	FR1	2	R1308T
608.611	1.297	610409	REC_START	n/a	n/a	n/a	-999	3	[0, 0, 0]	n/a	FR1	2	R1308T
609.908	1.126	611706	REC_WORD	1.126	n/a	BOY	1	3	[0, 0, 0]	n/a	FR1	2	R1308T
611.034	1.146	612832	REC_WORD	1.146	n/a	RUG	2	3	[0, 0, 0]	n/a	FR1	2	R1308T
612.18	1.508	613978	REC_WORD	1.508	n/a	CROWN	10	3	[0, 0, 0]	n/a	FR1	2	R1308T
613.688	2.306	615486	REC_WORD	2.306	n/a	ROSE	11	3	[0, 0, 0]	n/a	FR1	2	R1308T
615.994	2.127	617792	REC_WORD	2.127	n/a	BADGE	12	3	[0, 0, 0]	n/a	FR1	2	R1308T
618.121	5.049	619919	REC_WORD	5.049	n/a	STAR	9	3	[0, 0, 0]	n/a	FR1	2	R1308T
623.17	15.454	624968	REC_WORD	15.454	n/a	EGG	5	3	[0, 0, 0]	n/a	FR1	2	R1308T
638.624	0.0	640421	REC_END	n/a	n/a	n/a	-999	3	[0, 0, 0]	n/a	FR1	2	R1308T
638.624	0.017	640421	TRIAL_END	n/a	n/a	n/a	-999	3	[0, 0, 0]	n/a	FR1	2	R1308T
638.641	0.0	640438	TRIAL	n/a	n/a	n/a	-999	4	[0, 0, 0]	n/a	FR1	2	R1308T
638.641	0.001	640438	TRIAL_START	n/a	n/a	n/a	-999	4	[0, 0, 0]	n/a	FR1	2	R1308T
638.642	2.509	640439	WAITING_START	n/a	n/a	n/a	-999	4	[0, 0, 0]	n/a	FR1	2	R1308T
641.151	0.0	642948	WAITING_END	n/a	n/a	n/a	-999	4	[0, 0, 0]	n/a	FR1	2	R1308T
641.151	10.428	642948	COUNTDOWN_START	n/a	n/a	n/a	-999	4	[0, 0, 0]	n/a	FR1	2	R1308T
651.579	0.001	653375	COUNTDOWN_END	n/a	n/a	n/a	-999	4	[0, 0, 0]	n/a	FR1	2	R1308T
651.58	1.105	653376	ORIENT_START	n/a	n/a	n/a	-999	4	[0, 0, 0]	n/a	FR1	2	R1308T
652.685	0.0	654481	ORIENT_END	n/a	n/a	n/a	-999	4	[0, 0, 0]	n/a	FR1	2	R1308T
652.685	1.142	654481	ENCODING_START	n/a	n/a	n/a	-999	4	[0, 0, 0]	n/a	FR1	2	R1308T
653.827	1.625	655623	WORD	n/a	n/a	BRICK	1	4	[0, 0, 0]	n/a	FR1	2	R1308T
655.452	0.757	657248	WORD_OFF	n/a	n/a	BRICK	1	4	[0, 0, 0]	n/a	FR1	2	R1308T
656.209	1.627	658005	WORD	n/a	n/a	CLOCK	2	4	[0, 0, 0]	n/a	FR1	2	R1308T
657.836	0.774	659632	WORD_OFF	n/a	n/a	CLOCK	2	4	[0, 0, 0]	n/a	FR1	2	R1308T
658.61	1.611	660406	WORD	n/a	n/a	STEAM	3	4	[0, 0, 0]	n/a	FR1	2	R1308T
660.221	0.816	662017	WORD_OFF	n/a	n/a	STEAM	3	4	[0, 0, 0]	n/a	FR1	2	R1308T
661.037	1.633	662833	WORD	n/a	n/a	BEAN	4	4	[0, 0, 0]	n/a	FR1	2	R1308T
662.67	0.853	664466	WORD_OFF	n/a	n/a	BEAN	4	4	[0, 0, 0]	n/a	FR1	2	R1308T
663.523	1.632	665319	WORD	n/a	n/a	DESK	5	4	[0, 0, 0]	n/a	FR1	2	R1308T
665.155	1.116	666951	WORD_OFF	n/a	n/a	DESK	5	4	[0, 0, 0]	n/a	FR1	2	R1308T
666.271	1.635	668067	WORD	n/a	n/a	GLASS	6	4	[0, 0, 0]	n/a	FR1	2	R1308T
667.906	0.81	669702	WORD_OFF	n/a	n/a	GLASS	6	4	[0, 0, 0]	n/a	FR1	2	R1308T
668.716	1.622	670512	WORD	n/a	n/a	STRAW	7	4	[0, 0, 0]	n/a	FR1	2	R1308T
670.338	1.127	672134	WORD_OFF	n/a	n/a	STRAW	7	4	[0, 0, 0]	n/a	FR1	2	R1308T
671.465	1.608	673261	WORD	n/a	n/a	SALT	8	4	[0, 0, 0]	n/a	FR1	2	R1308T
673.073	1.048	674868	WORD_OFF	n/a	n/a	SALT	8	4	[0, 0, 0]	n/a	FR1	2	R1308T
674.121	1.635	675916	WORD	n/a	n/a	FORT	9	4	[0, 0, 0]	n/a	FR1	2	R1308T
675.756	0.963	677551	WORD_OFF	n/a	n/a	FORT	9	4	[0, 0, 0]	n/a	FR1	2	R1308T
676.719	1.621	678514	WORD	n/a	n/a	BALL	10	4	[0, 0, 0]	n/a	FR1	2	R1308T
678.34	0.787	680135	WORD_OFF	n/a	n/a	BALL	10	4	[0, 0, 0]	n/a	FR1	2	R1308T
679.127	1.63	680922	WORD	n/a	n/a	BEAR	11	4	[0, 0, 0]	n/a	FR1	2	R1308T
680.757	0.782	682552	WORD_OFF	n/a	n/a	BEAR	11	4	[0, 0, 0]	n/a	FR1	2	R1308T
681.539	1.636	683334	WORD	n/a	n/a	CLAY	12	4	[0, 0, 0]	n/a	FR1	2	R1308T
683.175	0.0	684970	WORD_OFF	n/a	n/a	CLAY	12	4	[0, 0, 0]	n/a	FR1	2	R1308T
683.175	0.001	684970	ENCODING_END	n/a	n/a	n/a	-999	4	[0, 0, 0]	n/a	FR1	2	R1308T
683.176	0.0	684971	DISTRACT_START	n/a	n/a	n/a	-999	4	[0, 0, 0]	n/a	FR1	2	R1308T
683.176	0.015	684971	START	n/a	n/a	n/a	-999	4	[-999, -999, -999]	n/a	FR1	2	R1308T
683.191	7.267	684986	PROB	7.267	n/a	n/a	-999	4	[5, 9, 4]	18	FR1	2	R1308T
690.458	6.786	692253	PROB	6.786	n/a	n/a	-999	4	[2, 5, 3]	10	FR1	2	R1308T
697.244	6.104	699038	PROB	6.104	n/a	n/a	-999	4	[1, 4, 8]	13	FR1	2	R1308T
703.348	0.013	705142	STOP	n/a	n/a	n/a	-999	4	[-999, -999, -999]	n/a	FR1	2	R1308T
703.361	0.545	705155	DISTRACT_END	n/a	n/a	n/a	-999	4	[0, 0, 0]	n/a	FR1	2	R1308T
703.906	1.705	705700	RETRIEVAL_ORIENT_START	n/a	n/a	n/a	-999	4	[0, 0, 0]	n/a	FR1	2	R1308T
705.611	0.001	707405	RETRIEVAL_ORIENT_END	n/a	n/a	n/a	-999	4	[0, 0, 0]	n/a	FR1	2	R1308T
705.612	0.989	707406	REC_START	n/a	n/a	n/a	-999	4	[0, 0, 0]	n/a	FR1	2	R1308T
706.601	1.597	708395	REC_WORD	1.597	n/a	BRICK	1	4	[0, 0, 0]	n/a	FR1	2	R1308T
708.198	1.396	709992	REC_WORD	1.396	n/a	CLAY	12	4	[0, 0, 0]	n/a	FR1	2	R1308T
709.594	1.603	711388	REC_WORD	1.603	n/a	STRAW	7	4	[0, 0, 0]	n/a	FR1	2	R1308T
711.197	3.636	712991	REC_WORD	3.636	n/a	STREAM	-999	4	[0, 0, 0]	n/a	FR1	2	R1308T
714.833	20.792	716627	REC_WORD	20.792	n/a	FORT	9	4	[0, 0, 0]	n/a	FR1	2	R1308T
735.625	0.0	737418	REC_END	n/a	n/a	n/a	-999	4	[0, 0, 0]	n/a	FR1	2	R1308T
735.625	0.016	737418	TRIAL_END	n/a	n/a	n/a	-999	4	[0, 0, 0]	n/a	FR1	2	R1308T
735.641	0.0	737434	TRIAL_START	n/a	n/a	n/a	-999	5	[0, 0, 0]	n/a	FR1	2	R1308T
735.641	0.0	737434	TRIAL	n/a	n/a	n/a	-999	5	[0, 0, 0]	n/a	FR1	2	R1308T
735.641	42.684	737434	WAITING_START	n/a	n/a	n/a	-999	5	[0, 0, 0]	n/a	FR1	2	R1308T
778.325	0.0	780116	WAITING_END	n/a	n/a	n/a	-999	5	[0, 0, 0]	n/a	FR1	2	R1308T
778.325	10.428	780116	COUNTDOWN_START	n/a	n/a	n/a	-999	5	[0, 0, 0]	n/a	FR1	2	R1308T
788.753	0.001	790543	COUNTDOWN_END	n/a	n/a	n/a	-999	5	[0, 0, 0]	n/a	FR1	2	R1308T
788.754	1.157	790544	ORIENT_START	n/a	n/a	n/a	-999	5	[0, 0, 0]	n/a	FR1	2	R1308T
789.911	0.0	791701	ORIENT_END	n/a	n/a	n/a	-999	5	[0, 0, 0]	n/a	FR1	2	R1308T
789.911	0.817	791701	ENCODING_START	n/a	n/a	n/a	-999	5	[0, 0, 0]	n/a	FR1	2	R1308T
790.728	1.633	792518	WORD	n/a	n/a	STONE	1	5	[0, 0, 0]	n/a	FR1	2	R1308T
792.361	1.051	794151	WORD_OFF	n/a	n/a	STONE	1	5	[0, 0, 0]	n/a	FR1	2	R1308T
793.412	1.633	795202	WORD	n/a	n/a	SINK	2	5	[0, 0, 0]	n/a	FR1	2	R1308T
795.045	0.95	796835	WORD_OFF	n/a	n/a	SINK	2	5	[0, 0, 0]	n/a	FR1	2	R1308T
795.995	1.633	797785	WORD	n/a	n/a	BAT	3	5	[0, 0, 0]	n/a	FR1	2	R1308T
797.628	1.14	799418	WORD_OFF	n/a	n/a	BAT	3	5	[0, 0, 0]	n/a	FR1	2	R1308T
798.768	1.627	800558	WORD	n/a	n/a	CHIEF	4	5	[0, 0, 0]	n/a	FR1	2	R1308T
800.395	1.019	802185	WORD_OFF	n/a	n/a	CHIEF	4	5	[0, 0, 0]	n/a	FR1	2	R1308T
801.414	1.633	803204	WORD	n/a	n/a	CHIN	5	5	[0, 0, 0]	n/a	FR1	2	R1308T
803.047	0.778	804837	WORD_OFF	n/a	n/a	CHIN	5	5	[0, 0, 0]	n/a	FR1	2	R1308T
803.825	1.638	805615	WORD	n/a	n/a	BOWL	6	5	[0, 0, 0]	n/a	FR1	2	R1308T
805.463	0.944	807253	WORD_OFF	n/a	n/a	BOWL	6	5	[0, 0, 0]	n/a	FR1	2	R1308T
806.407	1.607	808196	WORD	n/a	n/a	VAN	7	5	[0, 0, 0]	n/a	FR1	2	R1308T
808.014	0.874	809803	WORD_OFF	n/a	n/a	VAN	7	5	[0, 0, 0]	n/a	FR1	2	R1308T
808.888	1.626	810677	WORD	n/a	n/a	TENT	8	5	[0, 0, 0]	n/a	FR1	2	R1308T
810.514	0.757	812303	WORD_OFF	n/a	n/a	TENT	8	5	[0, 0, 0]	n/a	FR1	2	R1308T
811.271	1.611	813060	WORD	n/a	n/a	FLEA	9	5	[0, 0, 0]	n/a	FR1	2	R1308T
812.882	1.041	814671	WORD_OFF	n/a	n/a	FLEA	9	5	[0, 0, 0]	n/a	FR1	2	R1308T
813.923	1.625	815712	WORD	n/a	n/a	POOL	10	5	[0, 0, 0]	n/a	FR1	2	R1308T
815.548	1.089	817337	WORD_OFF	n/a	n/a	POOL	10	5	[0, 0, 0]	n/a	FR1	2	R1308T
816.637	1.612	818426	WORD	n/a	n/a	NEST	11	5	[0, 0, 0]	n/a	FR1	2	R1308T
818.249	0.799	820038	WORD_OFF	n/a	n/a	NEST	11	5	[0, 0, 0]	n/a	FR1	2	R1308T
819.048	1.634	820837	WORD	n/a	n/a	MAP	12	5	[0, 0, 0]	n/a	FR1	2	R1308T
820.682	0.001	822471	WORD_OFF	n/a	n/a	MAP	12	5	[0, 0, 0]	n/a	FR1	2	R1308T
820.683	0.0	822472	ENCODING_END	n/a	n/a	n/a	-999	5	[0, 0, 0]	n/a	FR1	2	R1308T
820.683	0.0	822472	DISTRACT_START	n/a	n/a	n/a	-999	5	[0, 0, 0]	n/a	FR1	2	R1308T
820.683	0.016	822472	START	n/a	n/a	n/a	-999	5	[-999, -999, -999]	n/a	FR1	2	R1308T
820.699	8.868	822488	PROB	8.868	n/a	n/a	-999	5	[7, 8, 4]	19	FR1	2	R1308T
829.567	5.834	831355	PROB	5.834	n/a	n/a	-999	5	[1, 3, 1]	5	FR1	2	R1308T
835.401	8.237	837189	PROB	8.237	n/a	n/a	-999	5	[6, 7, 7]	20	FR1	2	R1308T
843.638	0.015	845426	STOP	n/a	n/a	n/a	-999	5	[-999, -999, -999]	n/a	FR1	2	R1308T
843.653	0.511	845441	DISTRACT_END	n/a	n/a	n/a	-999	5	[0, 0, 0]	n/a	FR1	2	R1308T
844.164	1.623	845952	RETRIEVAL_ORIENT_START	n/a	n/a	n/a	-999	5	[0, 0, 0]	n/a	FR1	2	R1308T
845.787	0.0	847575	RETRIEVAL_ORIENT_END	n/a	n/a	n/a	-999	5	[0, 0, 0]	n/a	FR1	2	R1308T
845.787	1.123	847575	REC_START	n/a	n/a	n/a	-999	5	[0, 0, 0]	n/a	FR1	2	R1308T
846.91	1.339	848698	REC_WORD	1.339	n/a	STONE	1	5	[0, 0, 0]	n/a	FR1	2	R1308T
848.249	1.505	850037	REC_WORD	1.505	n/a	CHEF	-999	5	[0, 0, 0]	n/a	FR1	2	R1308T
849.754	4.494	851542	REC_WORD	4.494	n/a	MAP	12	5	[0, 0, 0]	n/a	FR1	2	R1308T
854.248	1.55	856035	REC_WORD	1.55	n/a	BAT	3	5	[0, 0, 0]	n/a	FR1	2	R1308T
855.798	7.141	857585	REC_WORD	7.141	n/a	BOWL	6	5	[0, 0, 0]	n/a	FR1	2	R1308T
862.939	12.863	864726	REC_WORD	12.863	n/a	SINK	2	5	[0, 0, 0]	n/a	FR1	2	R1308T
875.802	0.0	877588	REC_END	n/a	n/a	n/a	-999	5	[0, 0, 0]	n/a	FR1	2	R1308T
875.802	0.016	877588	TRIAL_END	n/a	n/a	n/a	-999	5	[0, 0, 0]	n/a	FR1	2	R1308T
875.818	0.0	877604	WAITING_START	n/a	n/a	n/a	-999	6	[0, 0, 0]	n/a	FR1	2	R1308T
875.818	0.0	877604	TRIAL	n/a	n/a	n/a	-999	6	[0, 0, 0]	n/a	FR1	2	R1308T
875.818	5.459	877604	TRIAL_START	n/a	n/a	n/a	-999	6	[0, 0, 0]	n/a	FR1	2	R1308T
881.277	0.0	883063	WAITING_END	n/a	n/a	n/a	-999	6	[0, 0, 0]	n/a	FR1	2	R1308T
881.277	10.429	883063	COUNTDOWN_START	n/a	n/a	n/a	-999	6	[0, 0, 0]	n/a	FR1	2	R1308T
891.706	0.0	893492	COUNTDOWN_END	n/a	n/a	n/a	-999	6	[0, 0, 0]	n/a	FR1	2	R1308T
891.706	1.022	893492	ORIENT_START	n/a	n/a	n/a	-999	6	[0, 0, 0]	n/a	FR1	2	R1308T
892.728	0.001	894514	ORIENT_END	n/a	n/a	n/a	-999	6	[0, 0, 0]	n/a	FR1	2	R1308T
892.729	0.902	894515	ENCODING_START	n/a	n/a	n/a	-999	6	[0, 0, 0]	n/a	FR1	2	R1308T
893.631	1.616	895417	WORD	n/a	n/a	DOOR	1	6	[0, 0, 0]	n/a	FR1	2	R1308T
895.247	0.905	897032	WORD_OFF	n/a	n/a	DOOR	1	6	[0, 0, 0]	n/a	FR1	2	R1308T
896.152	1.628	897937	WORD	n/a	n/a	BIRD	2	6	[0, 0, 0]	n/a	FR1	2	R1308T
897.78	0.822	899565	WORD_OFF	n/a	n/a	BIRD	2	6	[0, 0, 0]	n/a	FR1	2	R1308T
898.602	1.629	900387	WORD	n/a	n/a	OWL	3	6	[0, 0, 0]	n/a	FR1	2	R1308T
900.231	0.867	902016	WORD_OFF	n/a	n/a	OWL	3	6	[0, 0, 0]	n/a	FR1	2	R1308T
901.098	1.632	902883	WORD	n/a	n/a	BLOOM	4	6	[0, 0, 0]	n/a	FR1	2	R1308T
902.73	0.916	904515	WORD_OFF	n/a	n/a	BLOOM	4	6	[0, 0, 0]	n/a	FR1	2	R1308T
903.646	1.635	905431	WORD	n/a	n/a	SPONGE	5	6	[0, 0, 0]	n/a	FR1	2	R1308T
905.281	0.925	907066	WORD_OFF	n/a	n/a	SPONGE	5	6	[0, 0, 0]	n/a	FR1	2	R1308T
906.206	1.625	907991	WORD	n/a	n/a	STEM	6	6	[0, 0, 0]	n/a	FR1	2	R1308T
907.831	1.142	909616	WORD_OFF	n/a	n/a	STEM	6	6	[0, 0, 0]	n/a	FR1	2	R1308T
908.973	1.626	910758	WORD	n/a	n/a	STORE	7	6	[0, 0, 0]	n/a	FR1	2	R1308T
910.599	0.841	912384	WORD_OFF	n/a	n/a	STORE	7	6	[0, 0, 0]	n/a	FR1	2	R1308T
911.44	1.61	913225	WORD	n/a	n/a	TRAIN	8	6	[0, 0, 0]	n/a	FR1	2	R1308T
913.05	0.852	914835	WORD_OFF	n/a	n/a	TRAIN	8	6	[0, 0, 0]	n/a	FR1	2	R1308T
913.902	1.631	915687	WORD	n/a	n/a	BRANCH	9	6	[0, 0, 0]	n/a	FR1	2	R1308T
915.533	1.117	917318	WORD_OFF	n/a	n/a	BRANCH	9	6	[0, 0, 0]	n/a	FR1	2	R1308T
916.65	1.633	918435	WORD	n/a	n/a	PLATE	10	6	[0, 0, 0]	n/a	FR1	2	R1308T
918.283	1.116	920067	WORD_OFF	n/a	n/a	PLATE	10	6	[0, 0, 0]	n/a	FR1	2	R1308T
919.399	1.636	921183	WORD	n/a	n/a	SMOKE	11	6	[0, 0, 0]	n/a	FR1	2	R1308T
921.035	0.767	922819	WORD_OFF	n/a	n/a	SMOKE	11	6	[0, 0, 0]	n/a	FR1	2	R1308T
921.802	1.632	923586	WORD	n/a	n/a	STOVE	12	6	[0, 0, 0]	n/a	FR1	2	R1308T
923.434	0.001	925218	WORD_OFF	n/a	n/a	STOVE	12	6	[0, 0, 0]	n/a	FR1	2	R1308T
923.435	0.0	925219	ENCODING_END	n/a	n/a	n/a	-999	6	[0, 0, 0]	n/a	FR1	2	R1308T
923.435	0.0	925219	DISTRACT_START	n/a	n/a	n/a	-999	6	[0, 0, 0]	n/a	FR1	2	R1308T
923.435	0.016	925219	START	n/a	n/a	n/a	-999	6	[-999, -999, -999]	n/a	FR1	2	R1308T
923.451	10.051	925235	PROB	10.051	n/a	n/a	-999	6	[8, 7, 3]	18	FR1	2	R1308T
933.502	6.185	935286	PROB	6.185	n/a	n/a	-999	6	[3, 6, 1]	10	FR1	2	R1308T
939.687	6.779	941470	PROB	6.779	n/a	n/a	-999	6	[5, 1, 9]	15	FR1	2	R1308T
946.466	0.022	948249	STOP	n/a	n/a	n/a	-999	6	[-999, -999, -999]	n/a	FR1	2	R1308T
946.488	0.582	948271	DISTRACT_END	n/a	n/a	n/a	-999	6	[0, 0, 0]	n/a	FR1	2	R1308T
947.07	1.602	948853	RETRIEVAL_ORIENT_START	n/a	n/a	n/a	-999	6	[0, 0, 0]	n/a	FR1	2	R1308T
948.672	0.0	950455	RETRIEVAL_ORIENT_END	n/a	n/a	n/a	-999	6	[0, 0, 0]	n/a	FR1	2	R1308T
948.672	3.773	950455	REC_START	n/a	n/a	n/a	-999	6	[0, 0, 0]	n/a	FR1	2	R1308T
952.445	1.175	954228	REC_WORD	1.175	n/a	BLOOM	4	6	[0, 0, 0]	n/a	FR1	2	R1308T
953.62	11.986	955403	REC_WORD	11.986	n/a	BRANCH	9	6	[0, 0, 0]	n/a	FR1	2	R1308T
965.606	1.538	967388	REC_WORD	1.538	n/a	STEM	6	6	[0, 0, 0]	n/a	FR1	2	R1308T
967.144	4.031	968926	REC_WORD	4.031	n/a	TRAIN	8	6	[0, 0, 0]	n/a	FR1	2	R1308T
971.175	7.51	972957	REC_WORD	7.51	n/a	STEAM	-999	6	[0, 0, 0]	n/a	FR1	2	R1308T
978.685	0.0	980467	REC_END	n/a	n/a	n/a	-999	6	[0, 0, 0]	n/a	FR1	2	R1308T
978.685	0.018	980467	TRIAL_END	n/a	n/a	n/a	-999	6	[0, 0, 0]	n/a	FR1	2	R1308T
978.703	0.0	980485	TRIAL_START	n/a	n/a	n/a	-999	7	[0, 0, 0]	n/a	FR1	2	R1308T
978.703	0.0	980485	TRIAL	n/a	n/a	n/a	-999	7	[0, 0, 0]	n/a	FR1	2	R1308T
978.703	21.346	980485	WAITING_START	n/a	n/a	n/a	-999	7	[0, 0, 0]	n/a	FR1	2	R1308T
1000.049	0.001	1001830	WAITING_END	n/a	n/a	n/a	-999	7	[0, 0, 0]	n/a	FR1	2	R1308T
1000.05	10.428	1001831	COUNTDOWN_START	n/a	n/a	n/a	-999	7	[0, 0, 0]	n/a	FR1	2	R1308T
1010.478	0.0	1012258	COUNTDOWN_END	n/a	n/a	n/a	-999	7	[0, 0, 0]	n/a	FR1	2	R1308T
1010.478	1.256	1012258	ORIENT_START	n/a	n/a	n/a	-999	7	[0, 0, 0]	n/a	FR1	2	R1308T
1011.734	0.0	1013514	ENCODING_START	n/a	n/a	n/a	-999	7	[0, 0, 0]	n/a	FR1	2	R1308T
1011.734	0.886	1013514	ORIENT_END	n/a	n/a	n/a	-999	7	[0, 0, 0]	n/a	FR1	2	R1308T
1012.62	1.631	1014400	WORD	n/a	n/a	SUN	1	7	[0, 0, 0]	n/a	FR1	2	R1308T
1014.251	0.824	1016031	WORD_OFF	n/a	n/a	SUN	1	7	[0, 0, 0]	n/a	FR1	2	R1308T
1015.075	1.626	1016855	WORD	n/a	n/a	TRASH	2	7	[0, 0, 0]	n/a	FR1	2	R1308T
1016.701	0.958	1018481	WORD_OFF	n/a	n/a	TRASH	2	7	[0, 0, 0]	n/a	FR1	2	R1308T
1017.659	1.626	1019439	WORD	n/a	n/a	FARM	3	7	[0, 0, 0]	n/a	FR1	2	R1308T
1019.285	0.955	1021065	WORD_OFF	n/a	n/a	FARM	3	7	[0, 0, 0]	n/a	FR1	2	R1308T
1020.24	1.63	1022020	WORD	n/a	n/a	FLAME	4	7	[0, 0, 0]	n/a	FR1	2	R1308T
1021.87	1.068	1023650	WORD_OFF	n/a	n/a	FLAME	4	7	[0, 0, 0]	n/a	FR1	2	R1308T
1022.938	1.631	1024718	WORD	n/a	n/a	HOUSE	5	7	[0, 0, 0]	n/a	FR1	2	R1308T
1024.569	0.853	1026349	WORD_OFF	n/a	n/a	HOUSE	5	7	[0, 0, 0]	n/a	FR1	2	R1308T
1025.422	1.632	1027202	WORD	n/a	n/a	MAT	6	7	[0, 0, 0]	n/a	FR1	2	R1308T
1027.054	0.866	1028834	WORD_OFF	n/a	n/a	MAT	6	7	[0, 0, 0]	n/a	FR1	2	R1308T
1027.92	1.633	1029700	WORD	n/a	n/a	GEESE	7	7	[0, 0, 0]	n/a	FR1	2	R1308T
1029.553	0.973	1031332	WORD_OFF	n/a	n/a	GEESE	7	7	[0, 0, 0]	n/a	FR1	2	R1308T
1030.526	1.629	1032305	WORD	n/a	n/a	FISH	8	7	[0, 0, 0]	n/a	FR1	2	R1308T
1032.155	1.051	1033934	WORD_OFF	n/a	n/a	FISH	8	7	[0, 0, 0]	n/a	FR1	2	R1308T
1033.206	1.632	1034985	WORD	n/a	n/a	GOLD	9	7	[0, 0, 0]	n/a	FR1	2	R1308T
1034.838	0.963	1036617	WORD_OFF	n/a	n/a	GOLD	9	7	[0, 0, 0]	n/a	FR1	2	R1308T
1035.801	1.637	1037580	WORD	n/a	n/a	CUP	10	7	[0, 0, 0]	n/a	FR1	2	R1308T
1037.438	0.839	1039217	WORD_OFF	n/a	n/a	CUP	10	7	[0, 0, 0]	n/a	FR1	2	R1308T
1038.277	1.613	1040056	WORD	n/a	n/a	SLEEVE	11	7	[0, 0, 0]	n/a	FR1	2	R1308T
1039.89	0.752	1041669	WORD_OFF	n/a	n/a	SLEEVE	11	7	[0, 0, 0]	n/a	FR1	2	R1308T
1040.642	1.631	1042421	WORD	n/a	n/a	SNAKE	12	7	[0, 0, 0]	n/a	FR1	2	R1308T
1042.273	0.0	1044052	ENCODING_END	n/a	n/a	n/a	-999	7	[0, 0, 0]	n/a	FR1	2	R1308T
1042.273	0.0	1044052	WORD_OFF	n/a	n/a	SNAKE	12	7	[0, 0, 0]	n/a	FR1	2	R1308T
1042.273	0.001	1044052	DISTRACT_START	n/a	n/a	n/a	-999	7	[0, 0, 0]	n/a	FR1	2	R1308T
1042.274	0.015	1044053	START	n/a	n/a	n/a	-999	7	[-999, -999, -999]	n/a	FR1	2	R1308T
1042.289	5.835	1044068	PROB	5.835	n/a	n/a	-999	7	[8, 8, 1]	17	FR1	2	R1308T
1048.124	6.4	1049903	PROB	6.4	n/a	n/a	-999	7	[2, 2, 4]	8	FR1	2	R1308T
1054.524	5.536	1056302	PROB	5.536	n/a	n/a	-999	7	[1, 9, 4]	14	FR1	2	R1308T
1060.06	9.884	1061838	PROB	9.884	n/a	n/a	-999	7	[9, 7, 5]	21	FR1	2	R1308T
1069.944	0.018	1071722	STOP	n/a	n/a	n/a	-999	7	[-999, -999, -999]	n/a	FR1	2	R1308T
1069.962	0.669	1071740	DISTRACT_END	n/a	n/a	n/a	-999	7	[0, 0, 0]	n/a	FR1	2	R1308T
1070.631	1.68	1072409	RETRIEVAL_ORIENT_START	n/a	n/a	n/a	-999	7	[0, 0, 0]	n/a	FR1	2	R1308T
1072.311	0.0	1074089	RETRIEVAL_ORIENT_END	n/a	n/a	n/a	-999	7	[0, 0, 0]	n/a	FR1	2	R1308T
1072.311	1.213	1074089	REC_START	n/a	n/a	n/a	-999	7	[0, 0, 0]	n/a	FR1	2	R1308T
1073.524	1.381	1075302	REC_WORD	1.381	n/a	SUN	1	7	[0, 0, 0]	n/a	FR1	2	R1308T
1074.905	1.24	1076682	REC_WORD	1.24	n/a	FARM	3	7	[0, 0, 0]	n/a	FR1	2	R1308T
1076.145	1.41	1077922	REC_WORD	1.41	n/a	HOUSE	5	7	[0, 0, 0]	n/a	FR1	2	R1308T
1077.555	1.195	1079332	REC_WORD	1.195	n/a	GEESE	7	7	[0, 0, 0]	n/a	FR1	2	R1308T
1078.75	1.284	1080527	REC_WORD	1.284	n/a	MAT	6	7	[0, 0, 0]	n/a	FR1	2	R1308T
1080.034	2.877	1081811	REC_WORD	2.877	n/a	SNAKE	12	7	[0, 0, 0]	n/a	FR1	2	R1308T
1082.911	19.412	1084688	REC_WORD	19.412	n/a	SLEEVE	11	7	[0, 0, 0]	n/a	FR1	2	R1308T
1102.323	0.0	1104099	REC_END	n/a	n/a	n/a	-999	7	[0, 0, 0]	n/a	FR1	2	R1308T
1102.323	0.017	1104099	TRIAL_END	n/a	n/a	n/a	-999	7	[0, 0, 0]	n/a	FR1	2	R1308T
1102.34	0.0	1104116	WAITING_START	n/a	n/a	n/a	-999	8	[0, 0, 0]	n/a	FR1	2	R1308T
1102.34	0.0	1104116	TRIAL_START	n/a	n/a	n/a	-999	8	[0, 0, 0]	n/a	FR1	2	R1308T
1102.34	2.862	1104116	TRIAL	n/a	n/a	n/a	-999	8	[0, 0, 0]	n/a	FR1	2	R1308T
1105.202	0.0	1106978	WAITING_END	n/a	n/a	n/a	-999	8	[0, 0, 0]	n/a	FR1	2	R1308T
1105.202	10.429	1106978	COUNTDOWN_START	n/a	n/a	n/a	-999	8	[0, 0, 0]	n/a	FR1	2	R1308T
1115.631	0.0	1117407	COUNTDOWN_END	n/a	n/a	n/a	-999	8	[0, 0, 0]	n/a	FR1	2	R1308T
1115.631	1.239	1117407	ORIENT_START	n/a	n/a	n/a	-999	8	[0, 0, 0]	n/a	FR1	2	R1308T
1116.87	0.001	1118646	ORIENT_END	n/a	n/a	n/a	-999	8	[0, 0, 0]	n/a	FR1	2	R1308T
1116.871	0.78	1118647	ENCODING_START	n/a	n/a	n/a	-999	8	[0, 0, 0]	n/a	FR1	2	R1308T
1117.651	1.635	1119427	WORD	n/a	n/a	VINE	1	8	[0, 0, 0]	n/a	FR1	2	R1308T
1119.286	1.007	1121061	WORD_OFF	n/a	n/a	VINE	1	8	[0, 0, 0]	n/a	FR1	2	R1308T
1120.293	1.628	1122068	WORD	n/a	n/a	PIE	2	8	[0, 0, 0]	n/a	FR1	2	R1308T
1121.921	0.796	1123696	WORD_OFF	n/a	n/a	PIE	2	8	[0, 0, 0]	n/a	FR1	2	R1308T
1122.717	1.637	1124492	WORD	n/a	n/a	MOON	3	8	[0, 0, 0]	n/a	FR1	2	R1308T
1124.354	0.965	1126129	WORD_OFF	n/a	n/a	MOON	3	8	[0, 0, 0]	n/a	FR1	2	R1308T
1125.319	1.637	1127094	WORD	n/a	n/a	SEED	4	8	[0, 0, 0]	n/a	FR1	2	R1308T
1126.956	0.807	1128731	WORD_OFF	n/a	n/a	SEED	4	8	[0, 0, 0]	n/a	FR1	2	R1308T
1127.763	1.625	1129538	WORD	n/a	n/a	BOARD	5	8	[0, 0, 0]	n/a	FR1	2	R1308T
1129.388	1.105	1131163	WORD_OFF	n/a	n/a	BOARD	5	8	[0, 0, 0]	n/a	FR1	2	R1308T
1130.493	1.63	1132268	WORD	n/a	n/a	SMILE	6	8	[0, 0, 0]	n/a	FR1	2	R1308T
1132.123	1.148	1133898	WORD_OFF	n/a	n/a	SMILE	6	8	[0, 0, 0]	n/a	FR1	2	R1308T
1133.271	1.636	1135046	WORD	n/a	n/a	SEAL	7	8	[0, 0, 0]	n/a	FR1	2	R1308T
1134.907	0.918	1136682	WORD_OFF	n/a	n/a	SEAL	7	8	[0, 0, 0]	n/a	FR1	2	R1308T
1135.825	1.631	1137600	WORD	n/a	n/a	PIPE	8	8	[0, 0, 0]	n/a	FR1	2	R1308T
1137.456	1.094	1139231	WORD_OFF	n/a	n/a	PIPE	8	8	[0, 0, 0]	n/a	FR1	2	R1308T
1138.55	1.608	1140325	WORD	n/a	n/a	FLAG	9	8	[0, 0, 0]	n/a	FR1	2	R1308T
1140.158	1.01	1141933	WORD_OFF	n/a	n/a	FLAG	9	8	[0, 0, 0]	n/a	FR1	2	R1308T
1141.168	1.623	1142942	WORD	n/a	n/a	MAZE	10	8	[0, 0, 0]	n/a	FR1	2	R1308T
1142.791	0.758	1144565	WORD_OFF	n/a	n/a	MAZE	10	8	[0, 0, 0]	n/a	FR1	2	R1308T
1143.549	1.626	1145323	WORD	n/a	n/a	GLOVE	11	8	[0, 0, 0]	n/a	FR1	2	R1308T
1145.175	0.9	1146949	WORD_OFF	n/a	n/a	GLOVE	11	8	[0, 0, 0]	n/a	FR1	2	R1308T
1146.075	1.633	1147849	WORD	n/a	n/a	CALF	12	8	[0, 0, 0]	n/a	FR1	2	R1308T
1147.708	0.001	1149482	WORD_OFF	n/a	n/a	CALF	12	8	[0, 0, 0]	n/a	FR1	2	R1308T
1147.709	0.0	1149483	ENCODING_END	n/a	n/a	n/a	-999	8	[0, 0, 0]	n/a	FR1	2	R1308T
1147.709	0.0	1149483	DISTRACT_START	n/a	n/a	n/a	-999	8	[0, 0, 0]	n/a	FR1	2	R1308T
1147.709	0.016	1149483	START	n/a	n/a	n/a	-999	8	[-999, -999, -999]	n/a	FR1	2	R1308T
1147.725	8.202	1149499	PROB	8.202	n/a	n/a	-999	8	[7, 7, 6]	20	FR1	2	R1308T
1155.927	5.333	1157701	PROB	5.333	n/a	n/a	-999	8	[3, 6, 2]	11	FR1	2	R1308T
1161.26	6.61	1163034	PROB	6.61	n/a	n/a	-999	8	[2, 1, 3]	6	FR1	2	R1308T
1167.87	0.01	1169643	STOP	n/a	n/a	n/a	-999	8	[-999, -999, -999]	n/a	FR1	2	R1308T
1167.88	0.572	1169653	DISTRACT_END	n/a	n/a	n/a	-999	8	[0, 0, 0]	n/a	FR1	2	R1308T
1168.452	1.695	1170225	RETRIEVAL_ORIENT_START	n/a	n/a	n/a	-999	8	[0, 0, 0]	n/a	FR1	2	R1308T
1170.147	0.0	1171920	RETRIEVAL_ORIENT_END	n/a	n/a	n/a	-999	8	[0, 0, 0]	n/a	FR1	2	R1308T
1170.147	2.004	1171920	REC_START	n/a	n/a	n/a	-999	8	[0, 0, 0]	n/a	FR1	2	R1308T
1172.151	28.009	1173924	REC_WORD	28.009	n/a	VINE	1	8	[0, 0, 0]	n/a	FR1	2	R1308T
1200.16	0.0	1201932	TRIAL_END	n/a	n/a	n/a	-999	8	[0, 0, 0]	n/a	FR1	2	R1308T
1200.16	0.016	1201932	REC_END	n/a	n/a	n/a	-999	8	[0, 0, 0]	n/a	FR1	2	R1308T
1200.176	0.0	1201948	TRIAL_START	n/a	n/a	n/a	-999	9	[0, 0, 0]	n/a	FR1	2	R1308T
1200.176	0.0	1201948	TRIAL	n/a	n/a	n/a	-999	9	[0, 0, 0]	n/a	FR1	2	R1308T
1200.176	324.935	1201948	WAITING_START	n/a	n/a	n/a	-999	9	[0, 0, 0]	n/a	FR1	2	R1308T
1525.111	0.001	1526868	WAITING_END	n/a	n/a	n/a	-999	9	[0, 0, 0]	n/a	FR1	2	R1308T
1525.112	10.428	1526869	COUNTDOWN_START	n/a	n/a	n/a	-999	9	[0, 0, 0]	n/a	FR1	2	R1308T
1535.54	0.001	1537297	COUNTDOWN_END	n/a	n/a	n/a	-999	9	[0, 0, 0]	n/a	FR1	2	R1308T
1535.541	1.054	1537298	ORIENT_START	n/a	n/a	n/a	-999	9	[0, 0, 0]	n/a	FR1	2	R1308T
1536.595	0.001	1538352	ORIENT_END	n/a	n/a	n/a	-999	9	[0, 0, 0]	n/a	FR1	2	R1308T
1536.596	1.057	1538353	ENCODING_START	n/a	n/a	n/a	-999	9	[0, 0, 0]	n/a	FR1	2	R1308T
1537.653	1.626	1539410	WORD	n/a	n/a	GUARD	1	9	[0, 0, 0]	n/a	FR1	2	R1308T
1539.279	0.972	1541036	WORD_OFF	n/a	n/a	GUARD	1	9	[0, 0, 0]	n/a	FR1	2	R1308T
1540.251	1.63	1542008	WORD	n/a	n/a	LAMB	2	9	[0, 0, 0]	n/a	FR1	2	R1308T
1541.881	1.148	1543638	WORD_OFF	n/a	n/a	LAMB	2	9	[0, 0, 0]	n/a	FR1	2	R1308T
1543.029	1.635	1544785	WORD	n/a	n/a	CASH	3	9	[0, 0, 0]	n/a	FR1	2	R1308T
1544.664	0.763	1546420	WORD_OFF	n/a	n/a	CASH	3	9	[0, 0, 0]	n/a	FR1	2	R1308T
1545.427	1.638	1547183	WORD	n/a	n/a	TREE	4	9	[0, 0, 0]	n/a	FR1	2	R1308T
1547.065	1.113	1548821	WORD_OFF	n/a	n/a	TREE	4	9	[0, 0, 0]	n/a	FR1	2	R1308T
1548.178	1.636	1549934	WORD	n/a	n/a	ROOM	5	9	[0, 0, 0]	n/a	FR1	2	R1308T
1549.814	0.917	1551570	WORD_OFF	n/a	n/a	ROOM	5	9	[0, 0, 0]	n/a	FR1	2	R1308T
1550.731	1.634	1552487	WORD	n/a	n/a	ROPE	6	9	[0, 0, 0]	n/a	FR1	2	R1308T
1552.365	1.039	1554121	WORD_OFF	n/a	n/a	ROPE	6	9	[0, 0, 0]	n/a	FR1	2	R1308T
1553.404	1.629	1555160	WORD	n/a	n/a	KEY	7	9	[0, 0, 0]	n/a	FR1	2	R1308T
1555.033	0.929	1556789	WORD_OFF	n/a	n/a	KEY	7	9	[0, 0, 0]	n/a	FR1	2	R1308T
1555.962	1.62	1557718	WORD	n/a	n/a	PASTE	8	9	[0, 0, 0]	n/a	FR1	2	R1308T
1557.582	0.796	1559338	WORD_OFF	n/a	n/a	PASTE	8	9	[0, 0, 0]	n/a	FR1	2	R1308T
1558.378	1.606	1560134	WORD	n/a	n/a	SLUSH	9	9	[0, 0, 0]	n/a	FR1	2	R1308T
1559.984	1.094	1561740	WORD_OFF	n/a	n/a	SLUSH	9	9	[0, 0, 0]	n/a	FR1	2	R1308T
1561.078	1.622	1562834	WORD	n/a	n/a	RICE	10	9	[0, 0, 0]	n/a	FR1	2	R1308T
1562.7	0.819	1564456	WORD_OFF	n/a	n/a	RICE	10	9	[0, 0, 0]	n/a	FR1	2	R1308T
1563.519	1.616	1565275	WORD	n/a	n/a	WHEEL	11	9	[0, 0, 0]	n/a	FR1	2	R1308T
1565.135	0.987	1566890	WORD_OFF	n/a	n/a	WHEEL	11	9	[0, 0, 0]	n/a	FR1	2	R1308T
1566.122	1.629	1567877	WORD	n/a	n/a	SHIELD	12	9	[0, 0, 0]	n/a	FR1	2	R1308T
1567.751	0.001	1569506	WORD_OFF	n/a	n/a	SHIELD	12	9	[0, 0, 0]	n/a	FR1	2	R1308T
1567.752	0.0	1569507	ENCODING_END	n/a	n/a	n/a	-999	9	[0, 0, 0]	n/a	FR1	2	R1308T
1567.752	0.0	1569507	DISTRACT_START	n/a	n/a	n/a	-999	9	[0, 0, 0]	n/a	FR1	2	R1308T
1567.752	0.016	1569507	START	n/a	n/a	n/a	-999	9	[-999, -999, -999]	n/a	FR1	2	R1308T
1567.768	8.352	1569523	PROB	8.352	n/a	n/a	-999	9	[5, 8, 3]	16	FR1	2	R1308T
1576.12	10.119	1577875	PROB	10.119	n/a	n/a	-999	9	[4, 9, 6]	19	FR1	2	R1308T
1586.239	5.193	1587994	PROB	5.193	n/a	n/a	-999	9	[3, 2, 2]	7	FR1	2	R1308T
1591.432	0.006	1593186	STOP	n/a	n/a	n/a	-999	9	[-999, -999, -999]	n/a	FR1	2	R1308T
1591.438	0.659	1593192	DISTRACT_END	n/a	n/a	n/a	-999	9	[0, 0, 0]	n/a	FR1	2	R1308T
1592.097	1.559	1593851	RETRIEVAL_ORIENT_START	n/a	n/a	n/a	-999	9	[0, 0, 0]	n/a	FR1	2	R1308T
1593.656	0.0	1595410	REC_START	n/a	n/a	n/a	-999	9	[0, 0, 0]	n/a	FR1	2	R1308T
1593.656	1.532	1595410	RETRIEVAL_ORIENT_END	n/a	n/a	n/a	-999	9	[0, 0, 0]	n/a	FR1	2	R1308T
1595.188	1.729	1596942	REC_WORD	1.729	n/a	LAMB	2	9	[0, 0, 0]	n/a	FR1	2	R1308T
1596.917	2.977	1598671	REC_WORD	2.977	n/a	RICE	10	9	[0, 0, 0]	n/a	FR1	2	R1308T
1599.894	17.765	1601648	REC_WORD	17.765	n/a	WHEEL	11	9	[0, 0, 0]	n/a	FR1	2	R1308T
1617.659	1.83	1619412	REC_WORD	1.83	n/a	ROOF	-999	9	[0, 0, 0]	n/a	FR1	2	R1308T
1619.489	4.18	1621242	REC_WORD	4.18	n/a	ROME	-999	9	[0, 0, 0]	n/a	FR1	2	R1308T
1623.669	0.001	1625422	REC_END	n/a	n/a	n/a	-999	9	[0, 0, 0]	n/a	FR1	2	R1308T
1623.67	0.014	1625423	TRIAL_END	n/a	n/a	n/a	-999	9	[0, 0, 0]	n/a	FR1	2	R1308T
1623.684	0.0	1625437	TRIAL_START	n/a	n/a	n/a	-999	10	[0, 0, 0]	n/a	FR1	2	R1308T
1623.684	0.0	1625437	TRIAL	n/a	n/a	n/a	-999	10	[0, 0, 0]	n/a	FR1	2	R1308T
1623.684	3.728	1625437	WAITING_START	n/a	n/a	n/a	-999	10	[0, 0, 0]	n/a	FR1	2	R1308T
1627.412	0.0	1629165	COUNTDOWN_START	n/a	n/a	n/a	-999	10	[0, 0, 0]	n/a	FR1	2	R1308T
1627.412	10.429	1629165	WAITING_END	n/a	n/a	n/a	-999	10	[0, 0, 0]	n/a	FR1	2	R1308T
1637.841	0.0	1639593	ORIENT_START	n/a	n/a	n/a	-999	10	[0, 0, 0]	n/a	FR1	2	R1308T
1637.841	1.124	1639593	COUNTDOWN_END	n/a	n/a	n/a	-999	10	[0, 0, 0]	n/a	FR1	2	R1308T
1638.965	0.0	1640717	ORIENT_END	n/a	n/a	n/a	-999	10	[0, 0, 0]	n/a	FR1	2	R1308T
1638.965	0.934	1640717	ENCODING_START	n/a	n/a	n/a	-999	10	[0, 0, 0]	n/a	FR1	2	R1308T
1639.899	1.632	1641651	WORD	n/a	n/a	MUG	1	10	[0, 0, 0]	n/a	FR1	2	R1308T
1641.531	1.098	1643283	WORD_OFF	n/a	n/a	MUG	1	10	[0, 0, 0]	n/a	FR1	2	R1308T
1642.629	1.62	1644381	WORD	n/a	n/a	WAVE	2	10	[0, 0, 0]	n/a	FR1	2	R1308T
1644.249	1.1	1646001	WORD_OFF	n/a	n/a	WAVE	2	10	[0, 0, 0]	n/a	FR1	2	R1308T
1645.349	1.617	1647101	WORD	n/a	n/a	HORSE	3	10	[0, 0, 0]	n/a	FR1	2	R1308T
1646.966	0.963	1648718	WORD_OFF	n/a	n/a	HORSE	3	10	[0, 0, 0]	n/a	FR1	2	R1308T
1647.929	1.637	1649681	WORD	n/a	n/a	CAKE	4	10	[0, 0, 0]	n/a	FR1	2	R1308T
1649.566	0.901	1651318	WORD_OFF	n/a	n/a	CAKE	4	10	[0, 0, 0]	n/a	FR1	2	R1308T
1650.467	1.617	1652219	WORD	n/a	n/a	ROCK	5	10	[0, 0, 0]	n/a	FR1	2	R1308T
1652.084	0.874	1653836	WORD_OFF	n/a	n/a	ROCK	5	10	[0, 0, 0]	n/a	FR1	2	R1308T
1652.958	1.625	1654710	WORD	n/a	n/a	CONE	6	10	[0, 0, 0]	n/a	FR1	2	R1308T
1654.583	1.075	1656334	WORD_OFF	n/a	n/a	CONE	6	10	[0, 0, 0]	n/a	FR1	2	R1308T
1655.658	1.626	1657409	WORD	n/a	n/a	DITCH	7	10	[0, 0, 0]	n/a	FR1	2	R1308T
1657.284	0.832	1659035	WORD_OFF	n/a	n/a	DITCH	7	10	[0, 0, 0]	n/a	FR1	2	R1308T
1658.116	1.635	1659867	WORD	n/a	n/a	COW	8	10	[0, 0, 0]	n/a	FR1	2	R1308T
1659.751	0.858	1661502	WORD_OFF	n/a	n/a	COW	8	10	[0, 0, 0]	n/a	FR1	2	R1308T
1660.609	1.627	1662360	WORD	n/a	n/a	ARK	9	10	[0, 0, 0]	n/a	FR1	2	R1308T
1662.236	0.913	1663987	WORD_OFF	n/a	n/a	ARK	9	10	[0, 0, 0]	n/a	FR1	2	R1308T
1663.149	1.636	1664900	WORD	n/a	n/a	JUDGE	10	10	[0, 0, 0]	n/a	FR1	2	R1308T
1664.785	0.836	1666536	WORD_OFF	n/a	n/a	JUDGE	10	10	[0, 0, 0]	n/a	FR1	2	R1308T
1665.621	1.615	1667372	WORD	n/a	n/a	STOOL	11	10	[0, 0, 0]	n/a	FR1	2	R1308T
1667.236	0.893	1668987	WORD_OFF	n/a	n/a	STOOL	11	10	[0, 0, 0]	n/a	FR1	2	R1308T
1668.129	1.624	1669880	WORD	n/a	n/a	ROAD	12	10	[0, 0, 0]	n/a	FR1	2	R1308T
1669.753	0.0	1671504	DISTRACT_START	n/a	n/a	n/a	-999	10	[0, 0, 0]	n/a	FR1	2	R1308T
1669.753	0.0	1671504	WORD_OFF	n/a	n/a	ROAD	12	10	[0, 0, 0]	n/a	FR1	2	R1308T
1669.753	0.001	1671504	ENCODING_END	n/a	n/a	n/a	-999	10	[0, 0, 0]	n/a	FR1	2	R1308T
1669.754	0.015	1671505	START	n/a	n/a	n/a	-999	10	[-999, -999, -999]	n/a	FR1	2	R1308T
1669.769	5.269	1671520	PROB	5.269	n/a	n/a	-999	10	[2, 2, 7]	11	FR1	2	R1308T
1675.038	7.035	1676789	PROB	7.035	n/a	n/a	-999	10	[1, 4, 7]	12	FR1	2	R1308T
1682.073	6.7	1683823	PROB	6.7	n/a	n/a	-999	10	[6, 5, 1]	12	FR1	2	R1308T
1688.773	4.791	1690523	PROB	4.791	n/a	n/a	-999	10	[6, 1, 1]	8	FR1	2	R1308T
1693.564	0.01	1695314	STOP	n/a	n/a	n/a	-999	10	[-999, -999, -999]	n/a	FR1	2	R1308T
1693.574	0.509	1695324	DISTRACT_END	n/a	n/a	n/a	-999	10	[0, 0, 0]	n/a	FR1	2	R1308T
1694.083	1.591	1695833	RETRIEVAL_ORIENT_START	n/a	n/a	n/a	-999	10	[0, 0, 0]	n/a	FR1	2	R1308T
1695.674	0.001	1697424	RETRIEVAL_ORIENT_END	n/a	n/a	n/a	-999	10	[0, 0, 0]	n/a	FR1	2	R1308T
1695.675	1.404	1697425	REC_START	n/a	n/a	n/a	-999	10	[0, 0, 0]	n/a	FR1	2	R1308T
1697.079	1.271	1698829	REC_WORD	1.271	n/a	HORSE	3	10	[0, 0, 0]	n/a	FR1	2	R1308T
1698.35	1.495	1700100	REC_WORD	1.495	n/a	COW	8	10	[0, 0, 0]	n/a	FR1	2	R1308T
1699.845	1.318	1701594	REC_WORD	1.318	n/a	ARK	9	10	[0, 0, 0]	n/a	FR1	2	R1308T
1701.163	1.819	1702912	REC_WORD	1.819	n/a	STOOL	11	10	[0, 0, 0]	n/a	FR1	2	R1308T
1702.982	5.735	1704731	REC_WORD	5.735	n/a	ROAD	12	10	[0, 0, 0]	n/a	FR1	2	R1308T
1708.717	1.532	1710466	REC_WORD	1.532	n/a	MUG	1	10	[0, 0, 0]	n/a	FR1	2	R1308T
1710.249	1.308	1711998	REC_WORD	1.308	n/a	CAKE	4	10	[0, 0, 0]	n/a	FR1	2	R1308T
1711.557	14.129	1713306	REC_WORD	14.129	n/a	ROCK	5	10	[0, 0, 0]	n/a	FR1	2	R1308T
1725.686	0.001	1727434	REC_END	n/a	n/a	n/a	-999	10	[0, 0, 0]	n/a	FR1	2	R1308T
1725.687	0.014	1727435	TRIAL_END	n/a	n/a	n/a	-999	10	[0, 0, 0]	n/a	FR1	2	R1308T
1725.701	0.0	1727449	TRIAL_START	n/a	n/a	n/a	-999	11	[0, 0, 0]	n/a	FR1	2	R1308T
1725.701	0.0	1727449	TRIAL	n/a	n/a	n/a	-999	11	[0, 0, 0]	n/a	FR1	2	R1308T
1725.701	2.43	1727449	WAITING_START	n/a	n/a	n/a	-999	11	[0, 0, 0]	n/a	FR1	2	R1308T
1728.131	0.001	1729879	WAITING_END	n/a	n/a	n/a	-999	11	[0, 0, 0]	n/a	FR1	2	R1308T
1728.132	10.429	1729880	COUNTDOWN_START	n/a	n/a	n/a	-999	11	[0, 0, 0]	n/a	FR1	2	R1308T
1738.561	0.0	1740309	COUNTDOWN_END	n/a	n/a	n/a	-999	11	[0, 0, 0]	n/a	FR1	2	R1308T
1738.561	1.038	1740309	ORIENT_START	n/a	n/a	n/a	-999	11	[0, 0, 0]	n/a	FR1	2	R1308T
1739.599	0.0	1741347	ORIENT_END	n/a	n/a	n/a	-999	11	[0, 0, 0]	n/a	FR1	2	R1308T
1739.599	0.775	1741347	ENCODING_START	n/a	n/a	n/a	-999	11	[0, 0, 0]	n/a	FR1	2	R1308T
1740.374	1.626	1742122	WORD	n/a	n/a	SOUP	1	11	[0, 0, 0]	n/a	FR1	2	R1308T
1742.0	1.086	1743748	WORD_OFF	n/a	n/a	SOUP	1	11	[0, 0, 0]	n/a	FR1	2	R1308T
1743.086	1.631	1744833	WORD	n/a	n/a	LIP	2	11	[0, 0, 0]	n/a	FR1	2	R1308T
1744.717	0.915	1746464	WORD_OFF	n/a	n/a	LIP	2	11	[0, 0, 0]	n/a	FR1	2	R1308T
1745.632	1.635	1747379	WORD	n/a	n/a	FUR	3	11	[0, 0, 0]	n/a	FR1	2	R1308T
1747.267	0.766	1749014	WORD_OFF	n/a	n/a	FUR	3	11	[0, 0, 0]	n/a	FR1	2	R1308T
1748.033	1.634	1749780	WORD	n/a	n/a	WALL	4	11	[0, 0, 0]	n/a	FR1	2	R1308T
1749.667	0.947	1751414	WORD_OFF	n/a	n/a	WALL	4	11	[0, 0, 0]	n/a	FR1	2	R1308T
1750.614	1.622	1752361	WORD	n/a	n/a	JAIL	5	11	[0, 0, 0]	n/a	FR1	2	R1308T
1752.236	0.837	1753983	WORD_OFF	n/a	n/a	JAIL	5	11	[0, 0, 0]	n/a	FR1	2	R1308T
1753.073	1.629	1754820	WORD	n/a	n/a	PET	6	11	[0, 0, 0]	n/a	FR1	2	R1308T
1754.702	0.836	1756449	WORD_OFF	n/a	n/a	PET	6	11	[0, 0, 0]	n/a	FR1	2	R1308T
1755.538	1.632	1757285	WORD	n/a	n/a	TOAST	7	11	[0, 0, 0]	n/a	FR1	2	R1308T
1757.17	0.894	1758917	WORD_OFF	n/a	n/a	TOAST	7	11	[0, 0, 0]	n/a	FR1	2	R1308T
1758.064	1.622	1759811	WORD	n/a	n/a	BRIDGE	8	11	[0, 0, 0]	n/a	FR1	2	R1308T
1759.686	1.11	1761433	WORD_OFF	n/a	n/a	BRIDGE	8	11	[0, 0, 0]	n/a	FR1	2	R1308T
1760.796	1.624	1762543	WORD	n/a	n/a	MOTH	9	11	[0, 0, 0]	n/a	FR1	2	R1308T
1762.42	0.776	1764167	WORD_OFF	n/a	n/a	MOTH	9	11	[0, 0, 0]	n/a	FR1	2	R1308T
1763.196	1.624	1764943	WORD	n/a	n/a	MILK	10	11	[0, 0, 0]	n/a	FR1	2	R1308T
1764.82	1.137	1766567	WORD_OFF	n/a	n/a	MILK	10	11	[0, 0, 0]	n/a	FR1	2	R1308T
1765.957	1.63	1767703	WORD	n/a	n/a	BEACH	11	11	[0, 0, 0]	n/a	FR1	2	R1308T
1767.587	0.77	1769333	WORD_OFF	n/a	n/a	BEACH	11	11	[0, 0, 0]	n/a	FR1	2	R1308T
1768.357	1.632	1770103	WORD	n/a	n/a	BEAK	12	11	[0, 0, 0]	n/a	FR1	2	R1308T
1769.989	0.0	1771735	WORD_OFF	n/a	n/a	BEAK	12	11	[0, 0, 0]	n/a	FR1	2	R1308T
1769.989	0.0	1771735	ENCODING_END	n/a	n/a	n/a	-999	11	[0, 0, 0]	n/a	FR1	2	R1308T
1769.989	0.001	1771735	DISTRACT_START	n/a	n/a	n/a	-999	11	[0, 0, 0]	n/a	FR1	2	R1308T
1769.99	0.015	1771736	START	n/a	n/a	n/a	-999	11	[-999, -999, -999]	n/a	FR1	2	R1308T
1770.005	11.886	1771751	PROB	11.886	n/a	n/a	-999	11	[7, 9, 7]	23	FR1	2	R1308T
1781.891	8.085	1783637	PROB	8.085	n/a	n/a	-999	11	[5, 1, 8]	14	FR1	2	R1308T
1789.976	0.016	1791721	STOP	n/a	n/a	n/a	-999	11	[-999, -999, -999]	n/a	FR1	2	R1308T
1789.992	0.589	1791737	DISTRACT_END	n/a	n/a	n/a	-999	11	[0, 0, 0]	n/a	FR1	2	R1308T
1790.581	1.595	1792326	RETRIEVAL_ORIENT_START	n/a	n/a	n/a	-999	11	[0, 0, 0]	n/a	FR1	2	R1308T
1792.176	0.0	1793921	RETRIEVAL_ORIENT_END	n/a	n/a	n/a	-999	11	[0, 0, 0]	n/a	FR1	2	R1308T
1792.176	1.177	1793921	REC_START	n/a	n/a	n/a	-999	11	[0, 0, 0]	n/a	FR1	2	R1308T
1793.353	1.628	1795098	REC_WORD	1.628	n/a	SOUP	1	11	[0, 0, 0]	n/a	FR1	2	R1308T
1794.981	1.397	1796726	REC_WORD	1.397	n/a	LIP	2	11	[0, 0, 0]	n/a	FR1	2	R1308T
1796.378	3.319	1798123	REC_WORD	3.319	n/a	FUR	3	11	[0, 0, 0]	n/a	FR1	2	R1308T
1799.697	1.776	1801442	REC_WORD	1.776	n/a	BEACH	11	11	[0, 0, 0]	n/a	FR1	2	R1308T
1801.473	20.715	1803218	REC_WORD	20.715	n/a	MILK	10	11	[0, 0, 0]	n/a	FR1	2	R1308T
1822.188	0.0	1823932	REC_END	n/a	n/a	n/a	-999	11	[0, 0, 0]	n/a	FR1	2	R1308T
1822.188	0.016	1823932	TRIAL_END	n/a	n/a	n/a	-999	11	[0, 0, 0]	n/a	FR1	2	R1308T
1822.204	0.0	1823948	TRIAL	n/a	n/a	n/a	-999	12	[0, 0, 0]	n/a	FR1	2	R1308T
1822.204	0.0	1823948	WAITING_START	n/a	n/a	n/a	-999	12	[0, 0, 0]	n/a	FR1	2	R1308T
1822.204	40.668	1823948	TRIAL_START	n/a	n/a	n/a	-999	12	[0, 0, 0]	n/a	FR1	2	R1308T
1862.872	0.001	1864614	WAITING_END	n/a	n/a	n/a	-999	12	[0, 0, 0]	n/a	FR1	2	R1308T
1862.873	10.428	1864615	COUNTDOWN_START	n/a	n/a	n/a	-999	12	[0, 0, 0]	n/a	FR1	2	R1308T
1873.301	0.001	1875043	COUNTDOWN_END	n/a	n/a	n/a	-999	12	[0, 0, 0]	n/a	FR1	2	R1308T
1873.302	1.055	1875044	ORIENT_START	n/a	n/a	n/a	-999	12	[0, 0, 0]	n/a	FR1	2	R1308T
1874.357	0.0	1876099	ORIENT_END	n/a	n/a	n/a	-999	12	[0, 0, 0]	n/a	FR1	2	R1308T
1874.357	0.785	1876099	ENCODING_START	n/a	n/a	n/a	-999	12	[0, 0, 0]	n/a	FR1	2	R1308T
1875.142	1.632	1876884	WORD	n/a	n/a	PIN	1	12	[0, 0, 0]	n/a	FR1	2	R1308T
1876.774	0.888	1878516	WORD_OFF	n/a	n/a	PIN	1	12	[0, 0, 0]	n/a	FR1	2	R1308T
1877.662	1.629	1879403	WORD	n/a	n/a	PEARL	2	12	[0, 0, 0]	n/a	FR1	2	R1308T
1879.291	0.887	1881032	WORD_OFF	n/a	n/a	PEARL	2	12	[0, 0, 0]	n/a	FR1	2	R1308T
1880.178	1.63	1881919	WORD	n/a	n/a	LEG	3	12	[0, 0, 0]	n/a	FR1	2	R1308T
1881.808	1.001	1883549	WORD_OFF	n/a	n/a	LEG	3	12	[0, 0, 0]	n/a	FR1	2	R1308T
1882.809	1.633	1884550	WORD	n/a	n/a	HAWK	4	12	[0, 0, 0]	n/a	FR1	2	R1308T
1884.442	1.099	1886183	WORD_OFF	n/a	n/a	HAWK	4	12	[0, 0, 0]	n/a	FR1	2	R1308T
1885.541	1.635	1887282	WORD	n/a	n/a	TOOL	5	12	[0, 0, 0]	n/a	FR1	2	R1308T
1887.176	1.017	1888917	WORD_OFF	n/a	n/a	TOOL	5	12	[0, 0, 0]	n/a	FR1	2	R1308T
1888.193	1.633	1889934	WORD	n/a	n/a	SEAT	6	12	[0, 0, 0]	n/a	FR1	2	R1308T
1889.826	1.033	1891567	WORD_OFF	n/a	n/a	SEAT	6	12	[0, 0, 0]	n/a	FR1	2	R1308T
1890.859	1.634	1892600	WORD	n/a	n/a	BOOT	7	12	[0, 0, 0]	n/a	FR1	2	R1308T
1892.493	1.064	1894234	WORD_OFF	n/a	n/a	BOOT	7	12	[0, 0, 0]	n/a	FR1	2	R1308T
1893.557	1.638	1895298	WORD	n/a	n/a	EAR	8	12	[0, 0, 0]	n/a	FR1	2	R1308T
1895.195	0.879	1896936	WORD_OFF	n/a	n/a	EAR	8	12	[0, 0, 0]	n/a	FR1	2	R1308T
1896.074	1.62	1897815	WORD	n/a	n/a	NOSE	9	12	[0, 0, 0]	n/a	FR1	2	R1308T
1897.694	1.043	1899435	WORD_OFF	n/a	n/a	NOSE	9	12	[0, 0, 0]	n/a	FR1	2	R1308T
1898.737	1.624	1900478	WORD	n/a	n/a	FOOT	10	12	[0, 0, 0]	n/a	FR1	2	R1308T
1900.361	1.057	1902101	WORD_OFF	n/a	n/a	FOOT	10	12	[0, 0, 0]	n/a	FR1	2	R1308T
1901.418	1.628	1903158	WORD	n/a	n/a	CAR	11	12	[0, 0, 0]	n/a	FR1	2	R1308T
1903.046	0.838	1904786	WORD_OFF	n/a	n/a	CAR	11	12	[0, 0, 0]	n/a	FR1	2	R1308T
1903.884	1.628	1905624	WORD	n/a	n/a	DIME	12	12	[0, 0, 0]	n/a	FR1	2	R1308T
1905.512	0.001	1907252	WORD_OFF	n/a	n/a	DIME	12	12	[0, 0, 0]	n/a	FR1	2	R1308T
1905.513	0.0	1907253	ENCODING_END	n/a	n/a	n/a	-999	12	[0, 0, 0]	n/a	FR1	2	R1308T
1905.513	0.0	1907253	DISTRACT_START	n/a	n/a	n/a	-999	12	[0, 0, 0]	n/a	FR1	2	R1308T
1905.513	0.016	1907253	START	n/a	n/a	n/a	-999	12	[-999, -999, -999]	n/a	FR1	2	R1308T
1905.529	5.201	1907269	PROB	5.201	n/a	n/a	-999	12	[1, 9, 6]	16	FR1	2	R1308T
1910.73	8.768	1912470	PROB	8.768	n/a	n/a	-999	12	[9, 3, 7]	19	FR1	2	R1308T
1919.498	8.772	1921238	PROB	8.772	n/a	n/a	-999	12	[1, 8, 6]	15	FR1	2	R1308T
1928.27	0.013	1930009	STOP	n/a	n/a	n/a	-999	12	[-999, -999, -999]	n/a	FR1	2	R1308T
1928.283	0.535	1930022	DISTRACT_END	n/a	n/a	n/a	-999	12	[0, 0, 0]	n/a	FR1	2	R1308T
1928.818	1.666	1930557	RETRIEVAL_ORIENT_START	n/a	n/a	n/a	-999	12	[0, 0, 0]	n/a	FR1	2	R1308T
1930.484	0.0	1932223	RETRIEVAL_ORIENT_END	n/a	n/a	n/a	-999	12	[0, 0, 0]	n/a	FR1	2	R1308T
1930.484	1.594	1932223	REC_START	n/a	n/a	n/a	-999	12	[0, 0, 0]	n/a	FR1	2	R1308T
1932.078	1.31	1933817	REC_WORD	1.31	n/a	PIN	1	12	[0, 0, 0]	n/a	FR1	2	R1308T
1933.388	1.38	1935127	REC_WORD	1.38	n/a	PEARL	2	12	[0, 0, 0]	n/a	FR1	2	R1308T
1934.768	23.023	1936507	REC_WORD	23.023	n/a	LEG	3	12	[0, 0, 0]	n/a	FR1	2	R1308T
1957.791	1.0	1959529	REC_WORD_VV	1.0	n/a	<>	-999	12	[0, 0, 0]	n/a	FR1	2	R1308T
1958.791	1.704	1960529	REC_WORD_VV	1.704	n/a	<>	-999	12	[0, 0, 0]	n/a	FR1	2	R1308T
1960.495	0.001	1962233	REC_END	n/a	n/a	n/a	-999	12	[0, 0, 0]	n/a	FR1	2	R1308T
1960.496	0.017	1962234	TRIAL_END	n/a	n/a	n/a	-999	12	[0, 0, 0]	n/a	FR1	2	R1308T
1960.513	0.0	1962251	TRIAL_START	n/a	n/a	n/a	-999	13	[0, 0, 0]	n/a	FR1	2	R1308T
1960.513	0.0	1962251	TRIAL	n/a	n/a	n/a	-999	13	[0, 0, 0]	n/a	FR1	2	R1308T
1960.513	45.184	1962251	WAITING_START	n/a	n/a	n/a	-999	13	[0, 0, 0]	n/a	FR1	2	R1308T
2005.697	0.001	2007433	WAITING_END	n/a	n/a	n/a	-999	13	[0, 0, 0]	n/a	FR1	2	R1308T
2005.698	10.429	2007434	COUNTDOWN_START	n/a	n/a	n/a	-999	13	[0, 0, 0]	n/a	FR1	2	R1308T
2016.127	0.0	2017862	COUNTDOWN_END	n/a	n/a	n/a	-999	13	[0, 0, 0]	n/a	FR1	2	R1308T
2016.127	1.04	2017862	ORIENT_START	n/a	n/a	n/a	-999	13	[0, 0, 0]	n/a	FR1	2	R1308T
2017.167	0.0	2018902	ORIENT_END	n/a	n/a	n/a	-999	13	[0, 0, 0]	n/a	FR1	2	R1308T
2017.167	0.888	2018902	ENCODING_START	n/a	n/a	n/a	-999	13	[0, 0, 0]	n/a	FR1	2	R1308T
2018.055	1.628	2019790	WORD	n/a	n/a	VASE	1	13	[0, 0, 0]	n/a	FR1	2	R1308T
2019.683	1.133	2021418	WORD_OFF	n/a	n/a	VASE	1	13	[0, 0, 0]	n/a	FR1	2	R1308T
2020.816	1.634	2022551	WORD	n/a	n/a	SNOW	2	13	[0, 0, 0]	n/a	FR1	2	R1308T
2022.45	0.799	2024185	WORD_OFF	n/a	n/a	SNOW	2	13	[0, 0, 0]	n/a	FR1	2	R1308T
2023.249	1.636	2024984	WORD	n/a	n/a	HEART	3	13	[0, 0, 0]	n/a	FR1	2	R1308T
2024.885	0.801	2026620	WORD_OFF	n/a	n/a	HEART	3	13	[0, 0, 0]	n/a	FR1	2	R1308T
2025.686	1.632	2027421	WORD	n/a	n/a	SAIL	4	13	[0, 0, 0]	n/a	FR1	2	R1308T
2027.318	0.751	2029053	WORD_OFF	n/a	n/a	SAIL	4	13	[0, 0, 0]	n/a	FR1	2	R1308T
2028.069	1.633	2029804	WORD	n/a	n/a	SLIME	5	13	[0, 0, 0]	n/a	FR1	2	R1308T
2029.702	1.074	2031437	WORD_OFF	n/a	n/a	SLIME	5	13	[0, 0, 0]	n/a	FR1	2	R1308T
2030.776	1.626	2032511	WORD	n/a	n/a	FOAM	6	13	[0, 0, 0]	n/a	FR1	2	R1308T
2032.402	1.05	2034137	WORD_OFF	n/a	n/a	FOAM	6	13	[0, 0, 0]	n/a	FR1	2	R1308T
2033.452	1.635	2035186	WORD	n/a	n/a	LAMP	7	13	[0, 0, 0]	n/a	FR1	2	R1308T
2035.087	0.997	2036821	WORD_OFF	n/a	n/a	LAMP	7	13	[0, 0, 0]	n/a	FR1	2	R1308T
2036.084	1.636	2037818	WORD	n/a	n/a	FRUIT	8	13	[0, 0, 0]	n/a	FR1	2	R1308T
2037.72	0.843	2039454	WORD_OFF	n/a	n/a	FRUIT	8	13	[0, 0, 0]	n/a	FR1	2	R1308T
2038.563	1.625	2040297	WORD	n/a	n/a	CAT	9	13	[0, 0, 0]	n/a	FR1	2	R1308T
2040.188	0.84	2041922	WORD_OFF	n/a	n/a	CAT	9	13	[0, 0, 0]	n/a	FR1	2	R1308T
2041.028	1.626	2042762	WORD	n/a	n/a	HOSE	10	13	[0, 0, 0]	n/a	FR1	2	R1308T
2042.654	0.793	2044388	WORD_OFF	n/a	n/a	HOSE	10	13	[0, 0, 0]	n/a	FR1	2	R1308T
2043.447	1.608	2045181	WORD	n/a	n/a	MOUTH	11	13	[0, 0, 0]	n/a	FR1	2	R1308T
2045.055	0.905	2046789	WORD_OFF	n/a	n/a	MOUTH	11	13	[0, 0, 0]	n/a	FR1	2	R1308T
2045.96	1.628	2047694	WORD	n/a	n/a	FILM	12	13	[0, 0, 0]	n/a	FR1	2	R1308T
2047.588	0.001	2049322	WORD_OFF	n/a	n/a	FILM	12	13	[0, 0, 0]	n/a	FR1	2	R1308T
2047.589	0.0	2049323	ENCODING_END	n/a	n/a	n/a	-999	13	[0, 0, 0]	n/a	FR1	2	R1308T
2047.589	0.0	2049323	DISTRACT_START	n/a	n/a	n/a	-999	13	[0, 0, 0]	n/a	FR1	2	R1308T
2047.589	0.016	2049323	START	n/a	n/a	n/a	-999	13	[-999, -999, -999]	n/a	FR1	2	R1308T
2047.605	7.285	2049339	PROB	7.285	n/a	n/a	-999	13	[1, 4, 8]	13	FR1	2	R1308T
2054.89	6.118	2056624	PROB	6.118	n/a	n/a	-999	13	[9, 1, 4]	14	FR1	2	R1308T
2061.008	9.702	2062741	PROB	9.702	n/a	n/a	-999	13	[6, 8, 1]	15	FR1	2	R1308T
2070.71	0.016	2072443	STOP	n/a	n/a	n/a	-999	13	[-999, -999, -999]	n/a	FR1	2	R1308T
2070.726	0.597	2072459	DISTRACT_END	n/a	n/a	n/a	-999	13	[0, 0, 0]	n/a	FR1	2	R1308T
2071.323	1.637	2073056	RETRIEVAL_ORIENT_START	n/a	n/a	n/a	-999	13	[0, 0, 0]	n/a	FR1	2	R1308T
2072.96	0.001	2074693	RETRIEVAL_ORIENT_END	n/a	n/a	n/a	-999	13	[0, 0, 0]	n/a	FR1	2	R1308T
2072.961	0.075	2074694	REC_START	n/a	n/a	n/a	-999	13	[0, 0, 0]	n/a	FR1	2	R1308T
2073.036	1.602	2074769	REC_WORD_VV	1.602	n/a	<>	-999	13	[0, 0, 0]	n/a	FR1	2	R1308T
2074.638	2.079	2076371	REC_WORD	2.079	n/a	SNOW	2	13	[0, 0, 0]	n/a	FR1	2	R1308T
2076.717	1.809	2078450	REC_WORD	1.809	n/a	FRUIT	8	13	[0, 0, 0]	n/a	FR1	2	R1308T
2078.526	1.722	2080258	REC_WORD	1.722	n/a	SLIME	5	13	[0, 0, 0]	n/a	FR1	2	R1308T
2080.248	1.583	2081980	REC_WORD	1.583	n/a	MOUTH	11	13	[0, 0, 0]	n/a	FR1	2	R1308T
2081.831	1.749	2083563	REC_WORD	1.749	n/a	CAT	9	13	[0, 0, 0]	n/a	FR1	2	R1308T
2083.58	19.393	2085312	REC_WORD	19.393	n/a	HOSE	10	13	[0, 0, 0]	n/a	FR1	2	R1308T
2102.973	0.0	2104704	REC_END	n/a	n/a	n/a	-999	13	[0, 0, 0]	n/a	FR1	2	R1308T
2102.973	0.016	2104704	TRIAL_END	n/a	n/a	n/a	-999	13	[0, 0, 0]	n/a	FR1	2	R1308T
2102.989	0.0	2104720	WAITING_START	n/a	n/a	n/a	-999	14	[0, 0, 0]	n/a	FR1	2	R1308T
2102.989	0.0	2104720	TRIAL	n/a	n/a	n/a	-999	14	[0, 0, 0]	n/a	FR1	2	R1308T
2102.989	5.277	2104720	TRIAL_START	n/a	n/a	n/a	-999	14	[0, 0, 0]	n/a	FR1	2	R1308T
2108.266	0.0	2109997	WAITING_END	n/a	n/a	n/a	-999	14	[0, 0, 0]	n/a	FR1	2	R1308T
2108.266	10.428	2109997	COUNTDOWN_START	n/a	n/a	n/a	-999	14	[0, 0, 0]	n/a	FR1	2	R1308T
2118.694	0.0	2120425	COUNTDOWN_END	n/a	n/a	n/a	-999	14	[0, 0, 0]	n/a	FR1	2	R1308T
2118.694	1.107	2120425	ORIENT_START	n/a	n/a	n/a	-999	14	[0, 0, 0]	n/a	FR1	2	R1308T
2119.801	0.001	2121532	ORIENT_END	n/a	n/a	n/a	-999	14	[0, 0, 0]	n/a	FR1	2	R1308T
2119.802	0.824	2121533	ENCODING_START	n/a	n/a	n/a	-999	14	[0, 0, 0]	n/a	FR1	2	R1308T
2120.626	1.626	2122357	WORD	n/a	n/a	SIGN	1	14	[0, 0, 0]	n/a	FR1	2	R1308T
2122.252	0.958	2123983	WORD_OFF	n/a	n/a	SIGN	1	14	[0, 0, 0]	n/a	FR1	2	R1308T
2123.21	1.626	2124940	WORD	n/a	n/a	SHIP	2	14	[0, 0, 0]	n/a	FR1	2	R1308T
2124.836	1.034	2126566	WORD_OFF	n/a	n/a	SHIP	2	14	[0, 0, 0]	n/a	FR1	2	R1308T
2125.87	1.633	2127600	WORD	n/a	n/a	BREAD	3	14	[0, 0, 0]	n/a	FR1	2	R1308T
2127.503	0.816	2129233	WORD_OFF	n/a	n/a	BREAD	3	14	[0, 0, 0]	n/a	FR1	2	R1308T
2128.319	1.635	2130049	WORD	n/a	n/a	THUMB	4	14	[0, 0, 0]	n/a	FR1	2	R1308T
2129.954	0.922	2131684	WORD_OFF	n/a	n/a	THUMB	4	14	[0, 0, 0]	n/a	FR1	2	R1308T
2130.876	1.628	2132606	WORD	n/a	n/a	WAND	5	14	[0, 0, 0]	n/a	FR1	2	R1308T
2132.504	1.123	2134234	WORD_OFF	n/a	n/a	WAND	5	14	[0, 0, 0]	n/a	FR1	2	R1308T
2133.627	1.627	2135357	WORD	n/a	n/a	TOY	6	14	[0, 0, 0]	n/a	FR1	2	R1308T
2135.254	0.867	2136984	WORD_OFF	n/a	n/a	TOY	6	14	[0, 0, 0]	n/a	FR1	2	R1308T
2136.121	1.634	2137851	WORD	n/a	n/a	PLANT	7	14	[0, 0, 0]	n/a	FR1	2	R1308T
2137.755	1.08	2139485	WORD_OFF	n/a	n/a	PLANT	7	14	[0, 0, 0]	n/a	FR1	2	R1308T
2138.835	1.637	2140565	WORD	n/a	n/a	FENCE	8	14	[0, 0, 0]	n/a	FR1	2	R1308T
2140.472	0.984	2142202	WORD_OFF	n/a	n/a	FENCE	8	14	[0, 0, 0]	n/a	FR1	2	R1308T
2141.456	1.634	2143186	WORD	n/a	n/a	JAR	9	14	[0, 0, 0]	n/a	FR1	2	R1308T
2143.09	0.783	2144820	WORD_OFF	n/a	n/a	JAR	9	14	[0, 0, 0]	n/a	FR1	2	R1308T
2143.873	1.633	2145603	WORD	n/a	n/a	CLOTH	10	14	[0, 0, 0]	n/a	FR1	2	R1308T
2145.506	0.972	2147235	WORD_OFF	n/a	n/a	CLOTH	10	14	[0, 0, 0]	n/a	FR1	2	R1308T
2146.478	1.63	2148207	WORD	n/a	n/a	RAT	11	14	[0, 0, 0]	n/a	FR1	2	R1308T
2148.108	0.84	2149837	WORD_OFF	n/a	n/a	RAT	11	14	[0, 0, 0]	n/a	FR1	2	R1308T
2148.948	1.626	2150677	WORD	n/a	n/a	POND	12	14	[0, 0, 0]	n/a	FR1	2	R1308T
2150.574	0.0	2152303	WORD_OFF	n/a	n/a	POND	12	14	[0, 0, 0]	n/a	FR1	2	R1308T
2150.574	0.0	2152303	ENCODING_END	n/a	n/a	n/a	-999	14	[0, 0, 0]	n/a	FR1	2	R1308T
2150.574	0.001	2152303	DISTRACT_START	n/a	n/a	n/a	-999	14	[0, 0, 0]	n/a	FR1	2	R1308T
2150.575	0.015	2152304	START	n/a	n/a	n/a	-999	14	[-999, -999, -999]	n/a	FR1	2	R1308T
2150.59	8.802	2152319	PROB	8.802	n/a	n/a	-999	14	[2, 7, 9]	18	FR1	2	R1308T
2159.392	6.735	2161121	PROB	6.735	n/a	n/a	-999	14	[5, 6, 1]	12	FR1	2	R1308T
2166.127	6.199	2167856	PROB	6.199	n/a	n/a	-999	14	[9, 9, 1]	19	FR1	2	R1308T
2172.326	0.018	2174054	STOP	n/a	n/a	n/a	-999	14	[-999, -999, -999]	n/a	FR1	2	R1308T
2172.344	0.627	2174072	DISTRACT_END	n/a	n/a	n/a	-999	14	[0, 0, 0]	n/a	FR1	2	R1308T
2172.971	1.624	2174699	RETRIEVAL_ORIENT_START	n/a	n/a	n/a	-999	14	[0, 0, 0]	n/a	FR1	2	R1308T
2174.595	0.0	2176323	RETRIEVAL_ORIENT_END	n/a	n/a	n/a	-999	14	[0, 0, 0]	n/a	FR1	2	R1308T
2174.595	1.34	2176323	REC_START	n/a	n/a	n/a	-999	14	[0, 0, 0]	n/a	FR1	2	R1308T
2175.935	1.683	2177663	REC_WORD	1.683	n/a	TOY	6	14	[0, 0, 0]	n/a	FR1	2	R1308T
2177.618	2.665	2179346	REC_WORD	2.665	n/a	CLOTH	10	14	[0, 0, 0]	n/a	FR1	2	R1308T
2180.283	4.53	2182011	REC_WORD	4.53	n/a	RAT	11	14	[0, 0, 0]	n/a	FR1	2	R1308T
2184.813	19.793	2186541	REC_WORD	19.793	n/a	VASE	-999	14	[0, 0, 0]	n/a	FR1	2	R1308T
2204.606	0.0	2206333	REC_END	n/a	n/a	n/a	-999	14	[0, 0, 0]	n/a	FR1	2	R1308T
2204.606	0.017	2206333	TRIAL_END	n/a	n/a	n/a	-999	14	[0, 0, 0]	n/a	FR1	2	R1308T
2204.623	0.0	2206350	TRIAL_START	n/a	n/a	n/a	-999	15	[0, 0, 0]	n/a	FR1	2	R1308T
2204.623	0.0	2206350	TRIAL	n/a	n/a	n/a	-999	15	[0, 0, 0]	n/a	FR1	2	R1308T
2204.623	4.928	2206350	WAITING_START	n/a	n/a	n/a	-999	15	[0, 0, 0]	n/a	FR1	2	R1308T
2209.551	0.0	2211278	WAITING_END	n/a	n/a	n/a	-999	15	[0, 0, 0]	n/a	FR1	2	R1308T
2209.551	10.43	2211278	COUNTDOWN_START	n/a	n/a	n/a	-999	15	[0, 0, 0]	n/a	FR1	2	R1308T
2219.981	0.0	2221707	COUNTDOWN_END	n/a	n/a	n/a	-999	15	[0, 0, 0]	n/a	FR1	2	R1308T
2219.981	1.206	2221707	ORIENT_START	n/a	n/a	n/a	-999	15	[0, 0, 0]	n/a	FR1	2	R1308T
2221.187	0.001	2222913	ORIENT_END	n/a	n/a	n/a	-999	15	[0, 0, 0]	n/a	FR1	2	R1308T
2221.188	0.822	2222914	ENCODING_START	n/a	n/a	n/a	-999	15	[0, 0, 0]	n/a	FR1	2	R1308T
2222.01	1.627	2223736	WORD	n/a	n/a	TRUCK	1	15	[0, 0, 0]	n/a	FR1	2	R1308T
2223.637	1.128	2225363	WORD_OFF	n/a	n/a	TRUCK	1	15	[0, 0, 0]	n/a	FR1	2	R1308T
2224.765	1.622	2226491	WORD	n/a	n/a	PANTS	2	15	[0, 0, 0]	n/a	FR1	2	R1308T
2226.387	0.779	2228113	WORD_OFF	n/a	n/a	PANTS	2	15	[0, 0, 0]	n/a	FR1	2	R1308T
2227.166	1.622	2228892	WORD	n/a	n/a	JEEP	3	15	[0, 0, 0]	n/a	FR1	2	R1308T
2228.788	0.886	2230514	WORD_OFF	n/a	n/a	JEEP	3	15	[0, 0, 0]	n/a	FR1	2	R1308T
2229.674	1.631	2231400	WORD	n/a	n/a	OAK	4	15	[0, 0, 0]	n/a	FR1	2	R1308T
2231.305	0.848	2233031	WORD_OFF	n/a	n/a	OAK	4	15	[0, 0, 0]	n/a	FR1	2	R1308T
2232.153	1.636	2233879	WORD	n/a	n/a	EEL	5	15	[0, 0, 0]	n/a	FR1	2	R1308T
2233.789	1.137	2235515	WORD_OFF	n/a	n/a	EEL	5	15	[0, 0, 0]	n/a	FR1	2	R1308T
2234.926	1.63	2236651	WORD	n/a	n/a	PIT	6	15	[0, 0, 0]	n/a	FR1	2	R1308T
2236.556	1.102	2238281	WORD_OFF	n/a	n/a	PIT	6	15	[0, 0, 0]	n/a	FR1	2	R1308T
2237.658	1.632	2239383	WORD	n/a	n/a	BENCH	7	15	[0, 0, 0]	n/a	FR1	2	R1308T
2239.29	0.795	2241015	WORD_OFF	n/a	n/a	BENCH	7	15	[0, 0, 0]	n/a	FR1	2	R1308T
2240.085	1.622	2241810	WORD	n/a	n/a	BED	8	15	[0, 0, 0]	n/a	FR1	2	R1308T
2241.707	1.035	2243432	WORD_OFF	n/a	n/a	BED	8	15	[0, 0, 0]	n/a	FR1	2	R1308T
2242.742	1.632	2244467	WORD	n/a	n/a	BATH	9	15	[0, 0, 0]	n/a	FR1	2	R1308T
2244.374	0.932	2246099	WORD_OFF	n/a	n/a	BATH	9	15	[0, 0, 0]	n/a	FR1	2	R1308T
2245.306	1.636	2247031	WORD	n/a	n/a	GOAT	10	15	[0, 0, 0]	n/a	FR1	2	R1308T
2246.942	0.944	2248667	WORD_OFF	n/a	n/a	GOAT	10	15	[0, 0, 0]	n/a	FR1	2	R1308T
2247.886	1.622	2249611	WORD	n/a	n/a	TAIL	11	15	[0, 0, 0]	n/a	FR1	2	R1308T
2249.508	0.872	2251233	WORD_OFF	n/a	n/a	TAIL	11	15	[0, 0, 0]	n/a	FR1	2	R1308T
2250.38	1.63	2252105	WORD	n/a	n/a	FLUTE	12	15	[0, 0, 0]	n/a	FR1	2	R1308T
2252.01	0.0	2253735	WORD_OFF	n/a	n/a	FLUTE	12	15	[0, 0, 0]	n/a	FR1	2	R1308T
2252.01	0.0	2253735	ENCODING_END	n/a	n/a	n/a	-999	15	[0, 0, 0]	n/a	FR1	2	R1308T
2252.01	0.0	2253735	DISTRACT_START	n/a	n/a	n/a	-999	15	[0, 0, 0]	n/a	FR1	2	R1308T
2252.01	0.016	2253735	START	n/a	n/a	n/a	-999	15	[-999, -999, -999]	n/a	FR1	2	R1308T
2252.026	6.8	2253751	PROB	6.8	n/a	n/a	-999	15	[2, 8, 5]	15	FR1	2	R1308T
2258.826	12.569	2260550	PROB	12.569	n/a	n/a	-999	15	[7, 4, 6]	16	FR1	2	R1308T
2271.395	7.93	2273119	PROB	7.93	n/a	n/a	-999	15	[5, 4, 1]	10	FR1	2	R1308T
2279.325	0.022	2281048	STOP	n/a	n/a	n/a	-999	15	[-999, -999, -999]	n/a	FR1	2	R1308T
2279.347	0.638	2281070	DISTRACT_END	n/a	n/a	n/a	-999	15	[0, 0, 0]	n/a	FR1	2	R1308T
2279.985	1.712	2281708	RETRIEVAL_ORIENT_START	n/a	n/a	n/a	-999	15	[0, 0, 0]	n/a	FR1	2	R1308T
2281.697	0.001	2283420	RETRIEVAL_ORIENT_END	n/a	n/a	n/a	-999	15	[0, 0, 0]	n/a	FR1	2	R1308T
2281.698	1.308	2283421	REC_START	n/a	n/a	n/a	-999	15	[0, 0, 0]	n/a	FR1	2	R1308T
2283.006	1.429	2284729	REC_WORD	1.429	n/a	TRUCK	1	15	[0, 0, 0]	n/a	FR1	2	R1308T
2284.435	1.532	2286158	REC_WORD	1.532	n/a	PANTS	2	15	[0, 0, 0]	n/a	FR1	2	R1308T
2285.967	3.746	2287690	REC_WORD	3.746	n/a	JEEP	3	15	[0, 0, 0]	n/a	FR1	2	R1308T
2289.713	1.724	2291436	REC_WORD	1.724	n/a	EEL	5	15	[0, 0, 0]	n/a	FR1	2	R1308T
2291.437	1.604	2293160	REC_WORD	1.604	n/a	GOAT	10	15	[0, 0, 0]	n/a	FR1	2	R1308T
2293.041	18.668	2294764	REC_WORD	18.668	n/a	TAIL	11	15	[0, 0, 0]	n/a	FR1	2	R1308T
2311.709	0.0	2313431	REC_END	n/a	n/a	n/a	-999	15	[0, 0, 0]	n/a	FR1	2	R1308T
2311.709	0.015	2313431	TRIAL_END	n/a	n/a	n/a	-999	15	[0, 0, 0]	n/a	FR1	2	R1308T
2311.724	0.0	2313446	WAITING_START	n/a	n/a	n/a	-999	16	[0, 0, 0]	n/a	FR1	2	R1308T
2311.724	0.0	2313446	TRIAL	n/a	n/a	n/a	-999	16	[0, 0, 0]	n/a	FR1	2	R1308T
2311.724	2.946	2313446	TRIAL_START	n/a	n/a	n/a	-999	16	[0, 0, 0]	n/a	FR1	2	R1308T
2314.67	0.0	2316392	WAITING_END	n/a	n/a	n/a	-999	16	[0, 0, 0]	n/a	FR1	2	R1308T
2314.67	10.43	2316392	COUNTDOWN_START	n/a	n/a	n/a	-999	16	[0, 0, 0]	n/a	FR1	2	R1308T
2325.1	0.001	2326821	COUNTDOWN_END	n/a	n/a	n/a	-999	16	[0, 0, 0]	n/a	FR1	2	R1308T
2325.101	1.139	2326822	ORIENT_START	n/a	n/a	n/a	-999	16	[0, 0, 0]	n/a	FR1	2	R1308T
2326.24	0.0	2327961	ORIENT_END	n/a	n/a	n/a	-999	16	[0, 0, 0]	n/a	FR1	2	R1308T
2326.24	0.86	2327961	ENCODING_START	n/a	n/a	n/a	-999	16	[0, 0, 0]	n/a	FR1	2	R1308T
2327.1	1.623	2328821	WORD	n/a	n/a	MOUSE	1	16	[0, 0, 0]	n/a	FR1	2	R1308T
2328.723	0.88	2330444	WORD_OFF	n/a	n/a	MOUSE	1	16	[0, 0, 0]	n/a	FR1	2	R1308T
2329.603	1.621	2331324	WORD	n/a	n/a	CANE	2	16	[0, 0, 0]	n/a	FR1	2	R1308T
2331.224	0.762	2332945	WORD_OFF	n/a	n/a	CANE	2	16	[0, 0, 0]	n/a	FR1	2	R1308T
2331.986	1.621	2333707	WORD	n/a	n/a	INK	3	16	[0, 0, 0]	n/a	FR1	2	R1308T
2333.607	1.033	2335328	WORD_OFF	n/a	n/a	INK	3	16	[0, 0, 0]	n/a	FR1	2	R1308T
2334.64	1.634	2336361	WORD	n/a	n/a	FACE	4	16	[0, 0, 0]	n/a	FR1	2	R1308T
2336.274	0.795	2337995	WORD_OFF	n/a	n/a	FACE	4	16	[0, 0, 0]	n/a	FR1	2	R1308T
2337.069	1.622	2338790	WORD	n/a	n/a	CLOWN	5	16	[0, 0, 0]	n/a	FR1	2	R1308T
2338.691	1.055	2340412	WORD_OFF	n/a	n/a	CLOWN	5	16	[0, 0, 0]	n/a	FR1	2	R1308T
2339.746	1.629	2341467	WORD	n/a	n/a	TRAY	6	16	[0, 0, 0]	n/a	FR1	2	R1308T
2341.375	0.909	2343096	WORD_OFF	n/a	n/a	TRAY	6	16	[0, 0, 0]	n/a	FR1	2	R1308T
2342.284	1.626	2344005	WORD	n/a	n/a	LOCK	7	16	[0, 0, 0]	n/a	FR1	2	R1308T
2343.91	0.758	2345631	WORD_OFF	n/a	n/a	LOCK	7	16	[0, 0, 0]	n/a	FR1	2	R1308T
2344.668	1.624	2346389	WORD	n/a	n/a	FAN	8	16	[0, 0, 0]	n/a	FR1	2	R1308T
2346.292	0.845	2348012	WORD_OFF	n/a	n/a	FAN	8	16	[0, 0, 0]	n/a	FR1	2	R1308T
2347.137	1.623	2348857	WORD	n/a	n/a	CHAIR	9	16	[0, 0, 0]	n/a	FR1	2	R1308T
2348.76	0.752	2350480	WORD_OFF	n/a	n/a	CHAIR	9	16	[0, 0, 0]	n/a	FR1	2	R1308T
2349.512	1.615	2351232	WORD	n/a	n/a	LEAF	10	16	[0, 0, 0]	n/a	FR1	2	R1308T
2351.127	1.059	2352847	WORD_OFF	n/a	n/a	LEAF	10	16	[0, 0, 0]	n/a	FR1	2	R1308T
2352.186	1.624	2353906	WORD	n/a	n/a	BAND	11	16	[0, 0, 0]	n/a	FR1	2	R1308T
2353.81	0.931	2355530	WORD_OFF	n/a	n/a	BAND	11	16	[0, 0, 0]	n/a	FR1	2	R1308T
2354.741	1.637	2356461	WORD	n/a	n/a	MUD	12	16	[0, 0, 0]	n/a	FR1	2	R1308T
2356.378	0.0	2358098	WORD_OFF	n/a	n/a	MUD	12	16	[0, 0, 0]	n/a	FR1	2	R1308T
2356.378	0.0	2358098	ENCODING_END	n/a	n/a	n/a	-999	16	[0, 0, 0]	n/a	FR1	2	R1308T
2356.378	0.0	2358098	DISTRACT_START	n/a	n/a	n/a	-999	16	[0, 0, 0]	n/a	FR1	2	R1308T
2356.378	0.016	2358098	START	n/a	n/a	n/a	-999	16	[-999, -999, -999]	n/a	FR1	2	R1308T
2356.394	10.352	2358114	PROB	10.352	n/a	n/a	-999	16	[8, 4, 6]	17	FR1	2	R1308T
2366.746	5.601	2368466	PROB	5.601	n/a	n/a	-999	16	[1, 6, 6]	13	FR1	2	R1308T
2372.347	4.647	2374066	PROB	4.647	n/a	n/a	-999	16	[8, 1, 9]	18	FR1	2	R1308T
2376.994	0.022	2378713	STOP	n/a	n/a	n/a	-999	16	[-999, -999, -999]	n/a	FR1	2	R1308T
2377.016	0.664	2378735	DISTRACT_END	n/a	n/a	n/a	-999	16	[0, 0, 0]	n/a	FR1	2	R1308T
2377.68	1.569	2379399	RETRIEVAL_ORIENT_START	n/a	n/a	n/a	-999	16	[0, 0, 0]	n/a	FR1	2	R1308T
2379.249	0.0	2380968	RETRIEVAL_ORIENT_END	n/a	n/a	n/a	-999	16	[0, 0, 0]	n/a	FR1	2	R1308T
2379.249	1.777	2380968	REC_START	n/a	n/a	n/a	-999	16	[0, 0, 0]	n/a	FR1	2	R1308T
2381.026	4.435	2382745	REC_WORD	4.435	n/a	MOUSE	1	16	[0, 0, 0]	n/a	FR1	2	R1308T
2385.461	3.924	2387180	REC_WORD	3.924	n/a	POND	-999	16	[0, 0, 0]	n/a	FR1	2	R1308T
2389.385	2.516	2391104	REC_WORD	2.516	n/a	LEAF	10	16	[0, 0, 0]	n/a	FR1	2	R1308T
2391.901	17.006	2393619	REC_WORD	17.006	n/a	LAKE	-999	16	[0, 0, 0]	n/a	FR1	2	R1308T
2408.907	0.353	2410625	REC_WORD	0.353	n/a	CHAIR	9	16	[0, 0, 0]	n/a	FR1	2	R1308T
2409.26	0.001	2410978	REC_END	n/a	n/a	n/a	-999	16	[0, 0, 0]	n/a	FR1	2	R1308T
2409.261	0.017	2410979	TRIAL_END	n/a	n/a	n/a	-999	16	[0, 0, 0]	n/a	FR1	2	R1308T
2409.278	0.0	2410996	TRIAL_START	n/a	n/a	n/a	-999	17	[0, 0, 0]	n/a	FR1	2	R1308T
2409.278	0.0	2410996	TRIAL	n/a	n/a	n/a	-999	17	[0, 0, 0]	n/a	FR1	2	R1308T
2409.278	29.148	2410996	WAITING_START	n/a	n/a	n/a	-999	17	[0, 0, 0]	n/a	FR1	2	R1308T
2438.426	0.0	2440142	WAITING_END	n/a	n/a	n/a	-999	17	[0, 0, 0]	n/a	FR1	2	R1308T
2438.426	10.429	2440142	COUNTDOWN_START	n/a	n/a	n/a	-999	17	[0, 0, 0]	n/a	FR1	2	R1308T
2448.855	0.0	2450571	COUNTDOWN_END	n/a	n/a	n/a	-999	17	[0, 0, 0]	n/a	FR1	2	R1308T
2448.855	1.257	2450571	ORIENT_START	n/a	n/a	n/a	-999	17	[0, 0, 0]	n/a	FR1	2	R1308T
2450.112	0.001	2451828	ORIENT_END	n/a	n/a	n/a	-999	17	[0, 0, 0]	n/a	FR1	2	R1308T
2450.113	1.07	2451829	ENCODING_START	n/a	n/a	n/a	-999	17	[0, 0, 0]	n/a	FR1	2	R1308T
2451.183	1.629	2452899	WORD	n/a	n/a	SPOON	1	17	[0, 0, 0]	n/a	FR1	2	R1308T
2452.812	0.862	2454528	WORD_OFF	n/a	n/a	SPOON	1	17	[0, 0, 0]	n/a	FR1	2	R1308T
2453.674	1.638	2455390	WORD	n/a	n/a	SHEEP	2	17	[0, 0, 0]	n/a	FR1	2	R1308T
2455.312	1.068	2457028	WORD_OFF	n/a	n/a	SHEEP	2	17	[0, 0, 0]	n/a	FR1	2	R1308T
2456.38	1.634	2458096	WORD	n/a	n/a	BROOM	3	17	[0, 0, 0]	n/a	FR1	2	R1308T
2458.014	0.951	2459729	WORD_OFF	n/a	n/a	BROOM	3	17	[0, 0, 0]	n/a	FR1	2	R1308T
2458.965	1.632	2460680	WORD	n/a	n/a	PARK	4	17	[0, 0, 0]	n/a	FR1	2	R1308T
2460.597	0.924	2462312	WORD_OFF	n/a	n/a	PARK	4	17	[0, 0, 0]	n/a	FR1	2	R1308T
2461.521	1.627	2463236	WORD	n/a	n/a	TOE	5	17	[0, 0, 0]	n/a	FR1	2	R1308T
2463.148	0.925	2464863	WORD_OFF	n/a	n/a	TOE	5	17	[0, 0, 0]	n/a	FR1	2	R1308T
2464.073	1.624	2465788	WORD	n/a	n/a	ELF	6	17	[0, 0, 0]	n/a	FR1	2	R1308T
2465.697	1.058	2467412	WORD_OFF	n/a	n/a	ELF	6	17	[0, 0, 0]	n/a	FR1	2	R1308T
2466.755	1.626	2468470	WORD	n/a	n/a	HOLE	7	17	[0, 0, 0]	n/a	FR1	2	R1308T
2468.381	0.969	2470096	WORD_OFF	n/a	n/a	HOLE	7	17	[0, 0, 0]	n/a	FR1	2	R1308T
2469.35	1.633	2471065	WORD	n/a	n/a	LAKE	8	17	[0, 0, 0]	n/a	FR1	2	R1308T
2470.983	0.85	2472698	WORD_OFF	n/a	n/a	LAKE	8	17	[0, 0, 0]	n/a	FR1	2	R1308T
2471.833	1.632	2473548	WORD	n/a	n/a	CAVE	9	17	[0, 0, 0]	n/a	FR1	2	R1308T
2473.465	1.128	2475180	WORD_OFF	n/a	n/a	CAVE	9	17	[0, 0, 0]	n/a	FR1	2	R1308T
2474.593	1.624	2476308	WORD	n/a	n/a	ROOF	10	17	[0, 0, 0]	n/a	FR1	2	R1308T
2476.217	1.091	2477932	WORD_OFF	n/a	n/a	ROOF	10	17	[0, 0, 0]	n/a	FR1	2	R1308T
2477.308	1.626	2479023	WORD	n/a	n/a	DOLL	11	17	[0, 0, 0]	n/a	FR1	2	R1308T
2478.934	0.754	2480649	WORD_OFF	n/a	n/a	DOLL	11	17	[0, 0, 0]	n/a	FR1	2	R1308T
2479.688	1.629	2481402	WORD	n/a	n/a	YARD	12	17	[0, 0, 0]	n/a	FR1	2	R1308T
2481.317	0.0	2483031	ENCODING_END	n/a	n/a	n/a	-999	17	[0, 0, 0]	n/a	FR1	2	R1308T
2481.317	0.0	2483031	DISTRACT_START	n/a	n/a	n/a	-999	17	[0, 0, 0]	n/a	FR1	2	R1308T
2481.317	0.001	2483031	WORD_OFF	n/a	n/a	YARD	12	17	[0, 0, 0]	n/a	FR1	2	R1308T
2481.318	0.015	2483032	START	n/a	n/a	n/a	-999	17	[-999, -999, -999]	n/a	FR1	2	R1308T
2481.333	13.503	2483047	PROB	13.503	n/a	n/a	-999	17	[6, 3, 7]	16	FR1	2	R1308T
2494.836	5.252	2496550	PROB	5.252	n/a	n/a	-999	17	[1, 9, 9]	19	FR1	2	R1308T
2500.088	4.574	2501802	PROB	4.574	n/a	n/a	-999	17	[5, 5, 8]	18	FR1	2	R1308T
2504.662	0.009	2506375	STOP	n/a	n/a	n/a	-999	17	[-999, -999, -999]	n/a	FR1	2	R1308T
2504.671	0.584	2506384	DISTRACT_END	n/a	n/a	n/a	-999	17	[0, 0, 0]	n/a	FR1	2	R1308T
2505.255	1.6	2506968	RETRIEVAL_ORIENT_START	n/a	n/a	n/a	-999	17	[0, 0, 0]	n/a	FR1	2	R1308T
2506.855	0.0	2508568	RETRIEVAL_ORIENT_END	n/a	n/a	n/a	-999	17	[0, 0, 0]	n/a	FR1	2	R1308T
2506.855	1.3	2508568	REC_START	n/a	n/a	n/a	-999	17	[0, 0, 0]	n/a	FR1	2	R1308T
2508.155	11.068	2509868	REC_WORD	11.068	n/a	SPOON	1	17	[0, 0, 0]	n/a	FR1	2	R1308T
2519.223	4.553	2520936	REC_WORD_VV	4.553	n/a	<>	-999	17	[0, 0, 0]	n/a	FR1	2	R1308T
2523.776	1.0	2525489	REC_WORD_VV	1.0	n/a	<>	-999	17	[0, 0, 0]	n/a	FR1	2	R1308T
2524.776	12.093	2526488	REC_WORD_VV	12.093	n/a	<>	-999	17	[0, 0, 0]	n/a	FR1	2	R1308T
2536.869	0.001	2538581	REC_END	n/a	n/a	n/a	-999	17	[0, 0, 0]	n/a	FR1	2	R1308T
2536.87	0.017	2538582	TRIAL_END	n/a	n/a	n/a	-999	17	[0, 0, 0]	n/a	FR1	2	R1308T
2536.887	0.0	2538599	TRIAL	n/a	n/a	n/a	-999	18	[0, 0, 0]	n/a	FR1	2	R1308T
2536.887	0.0	2538599	TRIAL_START	n/a	n/a	n/a	-999	18	[0, 0, 0]	n/a	FR1	2	R1308T
2536.887	238.567	2538599	WAITING_START	n/a	n/a	n/a	-999	18	[0, 0, 0]	n/a	FR1	2	R1308T
2775.454	0.0	2777155	WAITING_END	n/a	n/a	n/a	-999	18	[0, 0, 0]	n/a	FR1	2	R1308T
2775.454	0.0	2777155	COUNTDOWN_START	n/a	n/a	n/a	-999	18	[0, 0, 0]	n/a	FR1	2	R1308T
