onset	duration	sample	trial_type	response_time	stim_file	item_name	serialpos	list	test	answer	experiment	session	subject
0.0	128.471	155302	SESS_START	n/a	n/a	n/a	-999	-999	[0, 0, 0]	n/a	FR1	2	R1098D
128.471	10.428	360833	COUNTDOWN_START	n/a	n/a	n/a	-999	-999	[0, 0, 0]	n/a	FR1	2	R1098D
138.899	3.84	377516	COUNTDOWN_END	n/a	n/a	n/a	-999	-999	[0, 0, 0]	n/a	FR1	2	R1098D
142.739	2.435	383660	PRACTICE_WORD	n/a	n/a	IRON	1	-1	[0, 0, 0]	n/a	FR1	2	R1098D
145.174	2.516	387555	PRACTICE_WORD	n/a	n/a	TONGUE	2	-1	[0, 0, 0]	n/a	FR1	2	R1098D
147.69	2.385	391580	PRACTICE_WORD	n/a	n/a	RING	3	-1	[0, 0, 0]	n/a	FR1	2	R1098D
150.075	2.467	395396	PRACTICE_WORD	n/a	n/a	RHINO	4	-1	[0, 0, 0]	n/a	FR1	2	R1098D
152.542	2.382	399343	PRACTICE_WORD	n/a	n/a	WATCH	5	-1	[0, 0, 0]	n/a	FR1	2	R1098D
154.924	2.435	403153	PRACTICE_WORD	n/a	n/a	COTTON	6	-1	[0, 0, 0]	n/a	FR1	2	R1098D
157.359	2.6	407049	PRACTICE_WORD	n/a	n/a	FLOOD	7	-1	[0, 0, 0]	n/a	FR1	2	R1098D
159.959	2.601	411209	PRACTICE_WORD	n/a	n/a	WAGON	8	-1	[0, 0, 0]	n/a	FR1	2	R1098D
162.56	2.601	415370	PRACTICE_WORD	n/a	n/a	CAMEL	9	-1	[0, 0, 0]	n/a	FR1	2	R1098D
165.161	2.466	419531	PRACTICE_WORD	n/a	n/a	CHEST	10	-1	[0, 0, 0]	n/a	FR1	2	R1098D
167.627	2.518	423476	PRACTICE_WORD	n/a	n/a	BEAM	11	-1	[0, 0, 0]	n/a	FR1	2	R1098D
170.145	1.616	427504	PRACTICE_WORD	n/a	n/a	ATTIC	12	-1	[0, 0, 0]	n/a	FR1	2	R1098D
171.761	0.0	430090	PRACTICE_DISTRACT_START	n/a	n/a	n/a	-999	-1	[0, 0, 0]	n/a	FR1	2	R1098D
171.761	0.017	430090	START	n/a	n/a	n/a	-999	-1	[-999, -999, -999]	n/a	FR1	2	R1098D
171.778	9.602	430117	PROB	9.602	n/a	n/a	-999	-1	[7, 5, 9]	21	FR1	2	R1098D
181.38	4.084	445479	PROB	4.084	n/a	n/a	-999	-1	[4, 9, 7]	20	FR1	2	R1098D
185.464	3.834	452012	PROB	3.834	n/a	n/a	-999	-1	[2, 3, 3]	8	FR1	2	R1098D
189.298	4.169	458146	PROB	4.169	n/a	n/a	-999	-1	[6, 6, 6]	18	FR1	2	R1098D
193.467	0.015	464816	STOP	n/a	n/a	n/a	-999	-1	[-999, -999, -999]	n/a	FR1	2	R1098D
193.482	0.553	464840	PRACTICE_DISTRACT_END	n/a	n/a	n/a	-999	-1	[0, 0, 0]	n/a	FR1	2	R1098D
194.035	30.514	465724	PRACTICE_REC_START	n/a	n/a	n/a	-999	-1	[0, 0, 0]	n/a	FR1	2	R1098D
224.549	4.707	514542	PRACTICE_REC_END	n/a	n/a	n/a	-999	-1	[0, 0, 0]	n/a	FR1	2	R1098D
229.256	0.0	522072	TRIAL	n/a	n/a	n/a	-999	1	[0, 0, 0]	n/a	FR1	2	R1098D
229.256	10.428	522072	COUNTDOWN_START	n/a	n/a	n/a	-999	1	[0, 0, 0]	n/a	FR1	2	R1098D
239.684	0.006	538755	COUNTDOWN_END	n/a	n/a	n/a	-999	1	[0, 0, 0]	n/a	FR1	2	R1098D
239.69	2.618	538765	ORIENT	n/a	n/a	n/a	-999	1	[0, 0, 0]	n/a	FR1	2	R1098D
242.308	2.416	542953	WORD	n/a	wordpools/wordpool_EN.txt	ARM	1	1	[0, 0, 0]	n/a	FR1	2	R1098D
244.724	2.502	546818	WORD	n/a	wordpools/wordpool_EN.txt	SPONGE	2	1	[0, 0, 0]	n/a	FR1	2	R1098D
247.226	2.466	550821	WORD	n/a	wordpools/wordpool_EN.txt	PIT	3	1	[0, 0, 0]	n/a	FR1	2	R1098D
249.692	2.518	554766	WORD	n/a	wordpools/wordpool_EN.txt	GRASS	4	1	[0, 0, 0]	n/a	FR1	2	R1098D
252.21	2.516	558794	WORD	n/a	wordpools/wordpool_EN.txt	CHEEK	5	1	[0, 0, 0]	n/a	FR1	2	R1098D
254.726	2.435	562820	WORD	n/a	wordpools/wordpool_EN.txt	STEAK	6	1	[0, 0, 0]	n/a	FR1	2	R1098D
257.161	2.583	566715	WORD	n/a	wordpools/wordpool_EN.txt	FISH	7	1	[0, 0, 0]	n/a	FR1	2	R1098D
259.744	2.468	570848	WORD	n/a	wordpools/wordpool_EN.txt	BOWL	8	1	[0, 0, 0]	n/a	FR1	2	R1098D
262.212	2.449	574796	WORD	n/a	wordpools/wordpool_EN.txt	SEA	9	1	[0, 0, 0]	n/a	FR1	2	R1098D
264.661	2.485	578714	WORD	n/a	wordpools/wordpool_EN.txt	CALF	10	1	[0, 0, 0]	n/a	FR1	2	R1098D
267.146	2.566	582689	WORD	n/a	wordpools/wordpool_EN.txt	MILK	11	1	[0, 0, 0]	n/a	FR1	2	R1098D
269.712	1.618	586795	WORD	n/a	wordpools/wordpool_EN.txt	WEED	12	1	[0, 0, 0]	n/a	FR1	2	R1098D
271.33	0.001	589383	DISTRACT_START	n/a	n/a	n/a	-999	1	[0, 0, 0]	n/a	FR1	2	R1098D
271.331	0.016	589385	START	n/a	n/a	n/a	-999	1	[-999, -999, -999]	n/a	FR1	2	R1098D
271.347	2.95	589410	PROB	2.95	n/a	n/a	-999	1	[5, 1, 1]	7	FR1	2	R1098D
274.297	4.034	594130	PROB	4.034	n/a	n/a	-999	1	[8, 7, 1]	16	FR1	2	R1098D
278.331	3.467	600584	PROB	3.467	n/a	n/a	-999	1	[4, 4, 3]	11	FR1	2	R1098D
281.798	6.101	606130	PROB	6.101	n/a	n/a	-999	1	[6, 2, 7]	15	FR1	2	R1098D
287.899	4.767	615891	PROB	4.767	n/a	n/a	-999	1	[4, 7, 7]	18	FR1	2	R1098D
292.666	0.017	623517	STOP	n/a	n/a	n/a	-999	1	[-999, -999, -999]	n/a	FR1	2	R1098D
292.683	1.034	623544	DISTRACT_END	n/a	n/a	n/a	-999	1	[0, 0, 0]	n/a	FR1	2	R1098D
293.717	1.527	625199	REC_START	n/a	n/a	n/a	-999	1	[0, 0, 0]	n/a	FR1	2	R1098D
295.244	1.346	627641	REC_WORD	1.346	n/a	IRON	-999	1	[0, 0, 0]	n/a	FR1	2	R1098D
296.59	1.092	629795	REC_WORD	1.092	n/a	GRASS	-999	1	[0, 0, 0]	n/a	FR1	2	R1098D
297.682	26.045	631542	REC_WORD	26.045	n/a	STEAK	-999	1	[0, 0, 0]	n/a	FR1	2	R1098D
323.727	2.596	673209	REC_END	n/a	n/a	n/a	-999	1	[0, 0, 0]	n/a	FR1	2	R1098D
326.323	0.001	677363	COUNTDOWN_START	n/a	n/a	n/a	-999	2	[0, 0, 0]	n/a	FR1	2	R1098D
326.324	10.427	677364	TRIAL	n/a	n/a	n/a	-999	2	[0, 0, 0]	n/a	FR1	2	R1098D
336.751	0.007	694046	COUNTDOWN_END	n/a	n/a	n/a	-999	2	[0, 0, 0]	n/a	FR1	2	R1098D
336.758	2.501	694057	ORIENT	n/a	n/a	n/a	-999	2	[0, 0, 0]	n/a	FR1	2	R1098D
339.259	2.582	698058	WORD	n/a	wordpools/wordpool_EN.txt	CLOWN	1	2	[0, 0, 0]	n/a	FR1	2	R1098D
341.841	2.569	702189	WORD	n/a	wordpools/wordpool_EN.txt	PLATE	2	2	[0, 0, 0]	n/a	FR1	2	R1098D
344.41	2.416	706299	WORD	n/a	wordpools/wordpool_EN.txt	GOLD	3	2	[0, 0, 0]	n/a	FR1	2	R1098D
346.826	2.401	710164	WORD	n/a	wordpools/wordpool_EN.txt	PANTS	4	2	[0, 0, 0]	n/a	FR1	2	R1098D
349.227	2.5	714005	WORD	n/a	wordpools/wordpool_EN.txt	SIGN	5	2	[0, 0, 0]	n/a	FR1	2	R1098D
351.727	2.418	718005	WORD	n/a	wordpools/wordpool_EN.txt	SCHOOL	6	2	[0, 0, 0]	n/a	FR1	2	R1098D
354.145	2.516	721873	WORD	n/a	wordpools/wordpool_EN.txt	PIG	7	2	[0, 0, 0]	n/a	FR1	2	R1098D
356.661	2.435	725898	WORD	n/a	wordpools/wordpool_EN.txt	WHALE	8	2	[0, 0, 0]	n/a	FR1	2	R1098D
359.096	2.566	729794	WORD	n/a	wordpools/wordpool_EN.txt	CAVE	9	2	[0, 0, 0]	n/a	FR1	2	R1098D
361.662	2.518	733899	WORD	n/a	wordpools/wordpool_EN.txt	CROWN	10	2	[0, 0, 0]	n/a	FR1	2	R1098D
364.18	2.533	737927	WORD	n/a	wordpools/wordpool_EN.txt	GLOVE	11	2	[0, 0, 0]	n/a	FR1	2	R1098D
366.713	1.618	741980	WORD	n/a	wordpools/wordpool_EN.txt	BEAR	12	2	[0, 0, 0]	n/a	FR1	2	R1098D
368.331	0.001	744568	DISTRACT_START	n/a	n/a	n/a	-999	2	[0, 0, 0]	n/a	FR1	2	R1098D
368.332	0.016	744570	START	n/a	n/a	n/a	-999	2	[-999, -999, -999]	n/a	FR1	2	R1098D
368.348	2.85	744595	PROB	2.85	n/a	n/a	-999	2	[2, 1, 5]	8	FR1	2	R1098D
371.198	3.384	749155	PROB	3.384	n/a	n/a	-999	2	[2, 1, 8]	11	FR1	2	R1098D
374.582	2.867	754569	PROB	2.867	n/a	n/a	-999	2	[5, 9, 1]	15	FR1	2	R1098D
377.449	4.25	759155	PROB	4.25	n/a	n/a	-999	2	[8, 2, 6]	16	FR1	2	R1098D
381.699	3.267	765955	PROB	3.267	n/a	n/a	-999	2	[5, 3, 9]	17	FR1	2	R1098D
384.966	5.173	771181	PROB	5.173	n/a	n/a	-999	2	[8, 4, 7]	19	FR1	2	R1098D
390.139	0.013	779457	STOP	n/a	n/a	n/a	-999	2	[-999, -999, -999]	n/a	FR1	2	R1098D
390.152	1.15	779478	DISTRACT_END	n/a	n/a	n/a	-999	2	[0, 0, 0]	n/a	FR1	2	R1098D
391.302	3.312	781318	REC_START	n/a	n/a	n/a	-999	2	[0, 0, 0]	n/a	FR1	2	R1098D
394.614	1.438	786616	REC_WORD	1.438	n/a	WHALE	-999	2	[0, 0, 0]	n/a	FR1	2	R1098D
396.052	0.936	788917	REC_WORD	0.936	n/a	PIG	-999	2	[0, 0, 0]	n/a	FR1	2	R1098D
396.988	24.329	790414	REC_WORD	24.329	n/a	CROWN	-999	2	[0, 0, 0]	n/a	FR1	2	R1098D
421.317	2.506	829337	REC_END	n/a	n/a	n/a	-999	2	[0, 0, 0]	n/a	FR1	2	R1098D
423.823	0.001	833346	COUNTDOWN_START	n/a	n/a	n/a	-999	3	[0, 0, 0]	n/a	FR1	2	R1098D
423.824	10.427	833347	TRIAL	n/a	n/a	n/a	-999	3	[0, 0, 0]	n/a	FR1	2	R1098D
434.251	0.008	850029	COUNTDOWN_END	n/a	n/a	n/a	-999	3	[0, 0, 0]	n/a	FR1	2	R1098D
434.259	2.567	850042	ORIENT	n/a	n/a	n/a	-999	3	[0, 0, 0]	n/a	FR1	2	R1098D
436.826	2.568	854148	WORD	n/a	wordpools/wordpool_EN.txt	BRIDGE	1	3	[0, 0, 0]	n/a	FR1	2	R1098D
439.394	2.617	858257	WORD	n/a	wordpools/wordpool_EN.txt	CAKE	2	3	[0, 0, 0]	n/a	FR1	2	R1098D
442.011	2.599	862444	WORD	n/a	wordpools/wordpool_EN.txt	TRAIN	3	3	[0, 0, 0]	n/a	FR1	2	R1098D
444.61	2.602	866601	WORD	n/a	wordpools/wordpool_EN.txt	ICE	4	3	[0, 0, 0]	n/a	FR1	2	R1098D
447.212	2.549	870764	WORD	n/a	wordpools/wordpool_EN.txt	JAIL	5	3	[0, 0, 0]	n/a	FR1	2	R1098D
449.761	2.385	874842	WORD	n/a	wordpools/wordpool_EN.txt	CHAIR	6	3	[0, 0, 0]	n/a	FR1	2	R1098D
452.146	2.4	878658	WORD	n/a	wordpools/wordpool_EN.txt	DART	7	3	[0, 0, 0]	n/a	FR1	2	R1098D
454.546	2.601	882497	WORD	n/a	wordpools/wordpool_EN.txt	BADGE	8	3	[0, 0, 0]	n/a	FR1	2	R1098D
457.147	2.434	886659	WORD	n/a	wordpools/wordpool_EN.txt	CLOCK	9	3	[0, 0, 0]	n/a	FR1	2	R1098D
459.581	2.5	890553	WORD	n/a	wordpools/wordpool_EN.txt	STREET	10	3	[0, 0, 0]	n/a	FR1	2	R1098D
462.081	2.434	894552	WORD	n/a	wordpools/wordpool_EN.txt	MULE	11	3	[0, 0, 0]	n/a	FR1	2	R1098D
464.515	1.617	898446	WORD	n/a	wordpools/wordpool_EN.txt	BENCH	12	3	[0, 0, 0]	n/a	FR1	2	R1098D
466.132	0.001	901033	DISTRACT_START	n/a	n/a	n/a	-999	3	[0, 0, 0]	n/a	FR1	2	R1098D
466.133	0.016	901035	START	n/a	n/a	n/a	-999	3	[-999, -999, -999]	n/a	FR1	2	R1098D
466.149	8.484	901060	PROB	8.484	n/a	n/a	-999	3	[2, 7, 1]	10	FR1	2	R1098D
474.633	2.951	914633	PROB	2.951	n/a	n/a	-999	3	[6, 5, 5]	16	FR1	2	R1098D
477.584	2.684	919354	PROB	2.684	n/a	n/a	-999	3	[5, 5, 9]	19	FR1	2	R1098D
480.268	3.067	923648	PROB	3.067	n/a	n/a	-999	3	[5, 1, 2]	8	FR1	2	R1098D
483.335	2.6	928555	PROB	2.6	n/a	n/a	-999	3	[1, 1, 4]	6	FR1	2	R1098D
485.935	2.907	932714	PROB	2.907	n/a	n/a	-999	3	[6, 8, 5]	19	FR1	2	R1098D
488.842	0.01	937365	STOP	n/a	n/a	n/a	-999	3	[-999, -999, -999]	n/a	FR1	2	R1098D
488.852	1.084	937381	DISTRACT_END	n/a	n/a	n/a	-999	3	[0, 0, 0]	n/a	FR1	2	R1098D
489.936	2.112	939115	REC_START	n/a	n/a	n/a	-999	3	[0, 0, 0]	n/a	FR1	2	R1098D
492.048	1.288	942494	REC_WORD	1.288	n/a	DARK	-999	3	[0, 0, 0]	n/a	FR1	2	R1098D
493.336	0.863	944555	REC_WORD	0.863	n/a	BADGE	-999	3	[0, 0, 0]	n/a	FR1	2	R1098D
494.199	25.747	945935	REC_WORD	25.747	n/a	CLOCK	-999	3	[0, 0, 0]	n/a	FR1	2	R1098D
519.946	2.413	987126	REC_END	n/a	n/a	n/a	-999	3	[0, 0, 0]	n/a	FR1	2	R1098D
522.359	0.0	990987	TRIAL	n/a	n/a	n/a	-999	4	[0, 0, 0]	n/a	FR1	2	R1098D
522.359	10.428	990987	COUNTDOWN_START	n/a	n/a	n/a	-999	4	[0, 0, 0]	n/a	FR1	2	R1098D
532.787	0.006	1007670	COUNTDOWN_END	n/a	n/a	n/a	-999	4	[0, 0, 0]	n/a	FR1	2	R1098D
532.793	2.402	1007679	ORIENT	n/a	n/a	n/a	-999	4	[0, 0, 0]	n/a	FR1	2	R1098D
535.195	2.516	1011522	WORD	n/a	wordpools/wordpool_EN.txt	ROCK	1	4	[0, 0, 0]	n/a	FR1	2	R1098D
537.711	2.434	1015547	WORD	n/a	wordpools/wordpool_EN.txt	BLOOM	2	4	[0, 0, 0]	n/a	FR1	2	R1098D
540.145	2.6	1019441	WORD	n/a	wordpools/wordpool_EN.txt	STONE	3	4	[0, 0, 0]	n/a	FR1	2	R1098D
542.745	2.501	1023601	WORD	n/a	wordpools/wordpool_EN.txt	FUDGE	4	4	[0, 0, 0]	n/a	FR1	2	R1098D
545.246	2.55	1027602	WORD	n/a	wordpools/wordpool_EN.txt	FLAG	5	4	[0, 0, 0]	n/a	FR1	2	R1098D
547.796	2.601	1031681	WORD	n/a	wordpools/wordpool_EN.txt	MAZE	6	4	[0, 0, 0]	n/a	FR1	2	R1098D
550.397	2.45	1035843	WORD	n/a	wordpools/wordpool_EN.txt	FOG	7	4	[0, 0, 0]	n/a	FR1	2	R1098D
552.847	2.551	1039762	WORD	n/a	wordpools/wordpool_EN.txt	SMOKE	8	4	[0, 0, 0]	n/a	FR1	2	R1098D
555.398	2.433	1043843	WORD	n/a	wordpools/wordpool_EN.txt	DOCK	9	4	[0, 0, 0]	n/a	FR1	2	R1098D
557.831	2.435	1047736	WORD	n/a	wordpools/wordpool_EN.txt	CONE	10	4	[0, 0, 0]	n/a	FR1	2	R1098D
560.266	2.583	1051631	WORD	n/a	wordpools/wordpool_EN.txt	BOY	11	4	[0, 0, 0]	n/a	FR1	2	R1098D
562.849	1.618	1055764	WORD	n/a	wordpools/wordpool_EN.txt	FORT	12	4	[0, 0, 0]	n/a	FR1	2	R1098D
564.467	0.001	1058352	DISTRACT_START	n/a	n/a	n/a	-999	4	[0, 0, 0]	n/a	FR1	2	R1098D
564.468	0.015	1058354	START	n/a	n/a	n/a	-999	4	[-999, -999, -999]	n/a	FR1	2	R1098D
564.483	4.417	1058378	PROB	4.417	n/a	n/a	-999	4	[6, 8, 3]	17	FR1	2	R1098D
568.9	3.635	1065444	PROB	3.635	n/a	n/a	-999	4	[2, 4, 3]	9	FR1	2	R1098D
572.535	2.584	1071260	PROB	2.584	n/a	n/a	-999	4	[8, 8, 2]	18	FR1	2	R1098D
575.119	4.067	1075394	PROB	4.067	n/a	n/a	-999	4	[4, 9, 8]	21	FR1	2	R1098D
579.186	2.516	1081900	PROB	2.516	n/a	n/a	-999	4	[6, 4, 9]	19	FR1	2	R1098D
581.702	3.108	1085925	PROB	3.108	n/a	n/a	-999	4	[7, 7, 4]	18	FR1	2	R1098D
584.81	0.009	1090897	STOP	n/a	n/a	n/a	-999	4	[-999, -999, -999]	n/a	FR1	2	R1098D
584.819	1.118	1090912	DISTRACT_END	n/a	n/a	n/a	-999	4	[0, 0, 0]	n/a	FR1	2	R1098D
585.937	0.551	1092700	REC_START	n/a	n/a	n/a	-999	4	[0, 0, 0]	n/a	FR1	2	R1098D
586.488	0.736	1093582	REC_WORD	0.736	n/a	ROCK	-999	4	[0, 0, 0]	n/a	FR1	2	R1098D
587.224	1.445	1094759	REC_WORD	1.445	n/a	STONE	-999	4	[0, 0, 0]	n/a	FR1	2	R1098D
588.669	1.133	1097071	REC_WORD	1.133	n/a	BLOOM	-999	4	[0, 0, 0]	n/a	FR1	2	R1098D
589.802	26.145	1098884	REC_WORD	26.145	n/a	MAZE	-999	4	[0, 0, 0]	n/a	FR1	2	R1098D
615.947	2.329	1140711	REC_END	n/a	n/a	n/a	-999	4	[0, 0, 0]	n/a	FR1	2	R1098D
618.276	0.001	1144437	COUNTDOWN_START	n/a	n/a	n/a	-999	5	[0, 0, 0]	n/a	FR1	2	R1098D
618.277	10.427	1144439	TRIAL	n/a	n/a	n/a	-999	5	[0, 0, 0]	n/a	FR1	2	R1098D
628.704	0.007	1161120	COUNTDOWN_END	n/a	n/a	n/a	-999	5	[0, 0, 0]	n/a	FR1	2	R1098D
628.711	2.634	1161132	ORIENT	n/a	n/a	n/a	-999	5	[0, 0, 0]	n/a	FR1	2	R1098D
631.345	2.616	1165346	WORD	n/a	wordpools/wordpool_EN.txt	CAR	1	5	[0, 0, 0]	n/a	FR1	2	R1098D
633.961	2.402	1169531	WORD	n/a	wordpools/wordpool_EN.txt	CLAY	2	5	[0, 0, 0]	n/a	FR1	2	R1098D
636.363	2.566	1173373	WORD	n/a	wordpools/wordpool_EN.txt	PASTE	3	5	[0, 0, 0]	n/a	FR1	2	R1098D
638.929	2.402	1177479	WORD	n/a	wordpools/wordpool_EN.txt	LEAF	4	5	[0, 0, 0]	n/a	FR1	2	R1098D
641.331	2.416	1181321	WORD	n/a	wordpools/wordpool_EN.txt	ROOT	5	5	[0, 0, 0]	n/a	FR1	2	R1098D
643.747	2.401	1185187	WORD	n/a	wordpools/wordpool_EN.txt	NEST	6	5	[0, 0, 0]	n/a	FR1	2	R1098D
646.148	2.533	1189028	WORD	n/a	wordpools/wordpool_EN.txt	CRANE	7	5	[0, 0, 0]	n/a	FR1	2	R1098D
648.681	2.585	1193080	WORD	n/a	wordpools/wordpool_EN.txt	SKUNK	8	5	[0, 0, 0]	n/a	FR1	2	R1098D
651.266	2.566	1197216	WORD	n/a	wordpools/wordpool_EN.txt	SOAP	9	5	[0, 0, 0]	n/a	FR1	2	R1098D
653.832	2.485	1201321	WORD	n/a	wordpools/wordpool_EN.txt	TRUCK	10	5	[0, 0, 0]	n/a	FR1	2	R1098D
656.317	2.432	1205296	WORD	n/a	wordpools/wordpool_EN.txt	HOOF	11	5	[0, 0, 0]	n/a	FR1	2	R1098D
658.749	1.602	1209187	WORD	n/a	wordpools/wordpool_EN.txt	TREE	12	5	[0, 0, 0]	n/a	FR1	2	R1098D
660.351	0.0	1211750	DISTRACT_START	n/a	n/a	n/a	-999	5	[0, 0, 0]	n/a	FR1	2	R1098D
660.351	0.016	1211750	START	n/a	n/a	n/a	-999	5	[-999, -999, -999]	n/a	FR1	2	R1098D
660.367	4.651	1211776	PROB	4.651	n/a	n/a	-999	5	[4, 2, 5]	11	FR1	2	R1098D
665.018	2.65	1219217	PROB	2.65	n/a	n/a	-999	5	[6, 4, 2]	12	FR1	2	R1098D
667.668	3.701	1223456	PROB	3.701	n/a	n/a	-999	5	[5, 3, 8]	16	FR1	2	R1098D
671.369	2.918	1229377	PROB	2.918	n/a	n/a	-999	5	[3, 1, 1]	5	FR1	2	R1098D
674.287	4.449	1234045	PROB	4.449	n/a	n/a	-999	5	[2, 3, 6]	11	FR1	2	R1098D
678.736	2.611	1241163	PROB	2.611	n/a	n/a	-999	5	[3, 3, 1]	7	FR1	2	R1098D
681.347	0.008	1245340	STOP	n/a	n/a	n/a	-999	5	[-999, -999, -999]	n/a	FR1	2	R1098D
681.355	1.2	1245353	DISTRACT_END	n/a	n/a	n/a	-999	5	[0, 0, 0]	n/a	FR1	2	R1098D
682.555	2.515	1247273	REC_START	n/a	n/a	n/a	-999	5	[0, 0, 0]	n/a	FR1	2	R1098D
685.07	5.223	1251296	REC_WORD	5.223	n/a	CLAY	-999	5	[0, 0, 0]	n/a	FR1	2	R1098D
690.293	2.406	1259652	REC_WORD	2.406	n/a	CRANE	-999	5	[0, 0, 0]	n/a	FR1	2	R1098D
692.699	19.868	1263501	REC_WORD	19.868	n/a	TRUCK	-999	5	[0, 0, 0]	n/a	FR1	2	R1098D
712.567	921.41	1295287	REC_END	n/a	n/a	n/a	-999	5	[0, 0, 0]	n/a	FR1	2	R1098D
1633.977	0.0	2769385	TRIAL	n/a	n/a	n/a	-999	6	[0, 0, 0]	n/a	FR1	2	R1098D
1633.977	10.428	2769385	COUNTDOWN_START	n/a	n/a	n/a	-999	6	[0, 0, 0]	n/a	FR1	2	R1098D
1644.405	0.008	2786068	COUNTDOWN_END	n/a	n/a	n/a	-999	6	[0, 0, 0]	n/a	FR1	2	R1098D
1644.413	2.601	2786081	ORIENT	n/a	n/a	n/a	-999	6	[0, 0, 0]	n/a	FR1	2	R1098D
1647.014	2.533	2790242	WORD	n/a	wordpools/wordpool_EN.txt	COIN	1	6	[0, 0, 0]	n/a	FR1	2	R1098D
1649.547	2.484	2794294	WORD	n/a	wordpools/wordpool_EN.txt	TOOL	2	6	[0, 0, 0]	n/a	FR1	2	R1098D
1652.031	2.616	2798268	WORD	n/a	wordpools/wordpool_EN.txt	MAIL	3	6	[0, 0, 0]	n/a	FR1	2	R1098D
1654.647	2.368	2802454	WORD	n/a	wordpools/wordpool_EN.txt	RAIN	4	6	[0, 0, 0]	n/a	FR1	2	R1098D
1657.015	2.384	2806242	WORD	n/a	wordpools/wordpool_EN.txt	BANK	5	6	[0, 0, 0]	n/a	FR1	2	R1098D
1659.399	2.466	2810056	WORD	n/a	wordpools/wordpool_EN.txt	KEY	6	6	[0, 0, 0]	n/a	FR1	2	R1098D
1661.865	2.502	2814001	WORD	n/a	wordpools/wordpool_EN.txt	ARK	7	6	[0, 0, 0]	n/a	FR1	2	R1098D
1664.367	2.383	2818004	WORD	n/a	wordpools/wordpool_EN.txt	SHEET	8	6	[0, 0, 0]	n/a	FR1	2	R1098D
1666.75	2.418	2821816	WORD	n/a	wordpools/wordpool_EN.txt	PHONE	9	6	[0, 0, 0]	n/a	FR1	2	R1098D
1669.168	2.499	2825685	WORD	n/a	wordpools/wordpool_EN.txt	CLOTH	10	6	[0, 0, 0]	n/a	FR1	2	R1098D
1671.667	2.485	2829683	WORD	n/a	wordpools/wordpool_EN.txt	BOOK	11	6	[0, 0, 0]	n/a	FR1	2	R1098D
1674.152	1.616	2833658	WORD	n/a	wordpools/wordpool_EN.txt	RAKE	12	6	[0, 0, 0]	n/a	FR1	2	R1098D
1675.768	0.001	2836244	DISTRACT_START	n/a	n/a	n/a	-999	6	[0, 0, 0]	n/a	FR1	2	R1098D
1675.769	0.015	2836245	START	n/a	n/a	n/a	-999	6	[-999, -999, -999]	n/a	FR1	2	R1098D
1675.784	5.519	2836269	PROB	5.519	n/a	n/a	-999	6	[3, 6, 6]	15	FR1	2	R1098D
1681.303	3.084	2845099	PROB	3.084	n/a	n/a	-999	6	[9, 3, 8]	20	FR1	2	R1098D
1684.387	5.918	2850032	PROB	5.918	n/a	n/a	-999	6	[7, 5, 4]	16	FR1	2	R1098D
1690.305	4.051	2859500	PROB	4.051	n/a	n/a	-999	6	[1, 6, 6]	13	FR1	2	R1098D
1694.356	3.19	2865981	PROB	3.19	n/a	n/a	-999	6	[6, 2, 2]	10	FR1	2	R1098D
1697.546	0.01	2871085	STOP	n/a	n/a	n/a	-999	6	[-999, -999, -999]	n/a	FR1	2	R1098D
1697.556	1.051	2871101	DISTRACT_END	n/a	n/a	n/a	-999	6	[0, 0, 0]	n/a	FR1	2	R1098D
1698.607	0.591	2872782	REC_START	n/a	n/a	n/a	-999	6	[0, 0, 0]	n/a	FR1	2	R1098D
1699.198	0.961	2873727	REC_WORD	0.961	n/a	COIN	-999	6	[0, 0, 0]	n/a	FR1	2	R1098D
1700.159	0.813	2875265	REC_WORD	0.813	n/a	TOOL	-999	6	[0, 0, 0]	n/a	FR1	2	R1098D
1700.972	27.644	2876566	REC_WORD	27.644	n/a	MAIL	-999	6	[0, 0, 0]	n/a	FR1	2	R1098D
1728.616	3.98	2920791	REC_END	n/a	n/a	n/a	-999	6	[0, 0, 0]	n/a	FR1	2	R1098D
1732.596	0.0	2927159	TRIAL	n/a	n/a	n/a	-999	7	[0, 0, 0]	n/a	FR1	2	R1098D
1732.596	10.428	2927159	COUNTDOWN_START	n/a	n/a	n/a	-999	7	[0, 0, 0]	n/a	FR1	2	R1098D
1743.024	0.007	2943842	COUNTDOWN_END	n/a	n/a	n/a	-999	7	[0, 0, 0]	n/a	FR1	2	R1098D
1743.031	2.417	2943853	ORIENT	n/a	n/a	n/a	-999	7	[0, 0, 0]	n/a	FR1	2	R1098D
1745.448	2.5	2947720	WORD	n/a	wordpools/wordpool_EN.txt	HORSE	1	7	[0, 0, 0]	n/a	FR1	2	R1098D
1747.948	2.535	2951719	WORD	n/a	wordpools/wordpool_EN.txt	BRICK	2	7	[0, 0, 0]	n/a	FR1	2	R1098D
1750.483	2.466	2955775	WORD	n/a	wordpools/wordpool_EN.txt	TEETH	3	7	[0, 0, 0]	n/a	FR1	2	R1098D
1752.949	2.434	2959720	WORD	n/a	wordpools/wordpool_EN.txt	SHRIMP	4	7	[0, 0, 0]	n/a	FR1	2	R1098D
1755.383	2.45	2963614	WORD	n/a	wordpools/wordpool_EN.txt	ZOO	5	7	[0, 0, 0]	n/a	FR1	2	R1098D
1757.833	2.434	2967533	WORD	n/a	wordpools/wordpool_EN.txt	SKI	6	7	[0, 0, 0]	n/a	FR1	2	R1098D
1760.267	2.567	2971427	WORD	n/a	wordpools/wordpool_EN.txt	GRAPE	7	7	[0, 0, 0]	n/a	FR1	2	R1098D
1762.834	2.501	2975534	WORD	n/a	wordpools/wordpool_EN.txt	BLUSH	8	7	[0, 0, 0]	n/a	FR1	2	R1098D
1765.335	2.533	2979535	WORD	n/a	wordpools/wordpool_EN.txt	MOON	9	7	[0, 0, 0]	n/a	FR1	2	R1098D
1767.868	2.518	2983588	WORD	n/a	wordpools/wordpool_EN.txt	SHIP	10	7	[0, 0, 0]	n/a	FR1	2	R1098D
1770.386	2.516	2987616	WORD	n/a	wordpools/wordpool_EN.txt	TRASH	11	7	[0, 0, 0]	n/a	FR1	2	R1098D
1772.902	1.601	2991641	WORD	n/a	wordpools/wordpool_EN.txt	BOMB	12	7	[0, 0, 0]	n/a	FR1	2	R1098D
1774.503	0.001	2994203	DISTRACT_START	n/a	n/a	n/a	-999	7	[0, 0, 0]	n/a	FR1	2	R1098D
1774.504	0.016	2994204	START	n/a	n/a	n/a	-999	7	[-999, -999, -999]	n/a	FR1	2	R1098D
1774.52	4.133	2994230	PROB	4.133	n/a	n/a	-999	7	[6, 2, 4]	12	FR1	2	R1098D
1778.653	3.719	3000842	PROB	3.719	n/a	n/a	-999	7	[7, 8, 5]	20	FR1	2	R1098D
1782.372	4.917	3006792	PROB	4.917	n/a	n/a	-999	7	[6, 6, 7]	19	FR1	2	R1098D
1787.289	2.35	3014658	PROB	2.35	n/a	n/a	-999	7	[7, 7, 1]	15	FR1	2	R1098D
1789.639	4.385	3018418	PROB	4.385	n/a	n/a	-999	7	[9, 5, 1]	15	FR1	2	R1098D
1794.024	3.866	3025433	PROB	3.866	n/a	n/a	-999	7	[6, 3, 3]	12	FR1	2	R1098D
1797.89	0.017	3031618	STOP	n/a	n/a	n/a	-999	7	[-999, -999, -999]	n/a	FR1	2	R1098D
1797.907	1.085	3031645	DISTRACT_END	n/a	n/a	n/a	-999	7	[0, 0, 0]	n/a	FR1	2	R1098D
1798.992	0.384	3033381	REC_START	n/a	n/a	n/a	-999	7	[0, 0, 0]	n/a	FR1	2	R1098D
1799.376	0.99	3033995	REC_WORD	0.99	n/a	HORSE	-999	7	[0, 0, 0]	n/a	FR1	2	R1098D
1800.366	0.834	3035579	REC_WORD	0.834	n/a	BRICK	-999	7	[0, 0, 0]	n/a	FR1	2	R1098D
1801.2	27.802	3036913	REC_WORD	27.802	n/a	TEETH	-999	7	[0, 0, 0]	n/a	FR1	2	R1098D
1829.002	2.195	3081392	REC_END	n/a	n/a	n/a	-999	7	[0, 0, 0]	n/a	FR1	2	R1098D
1831.197	0.001	3084903	COUNTDOWN_START	n/a	n/a	n/a	-999	8	[0, 0, 0]	n/a	FR1	2	R1098D
1831.198	10.427	3084905	TRIAL	n/a	n/a	n/a	-999	8	[0, 0, 0]	n/a	FR1	2	R1098D
1841.625	0.007	3101586	COUNTDOWN_END	n/a	n/a	n/a	-999	8	[0, 0, 0]	n/a	FR1	2	R1098D
1841.632	2.568	3101598	ORIENT	n/a	n/a	n/a	-999	8	[0, 0, 0]	n/a	FR1	2	R1098D
1844.2	2.549	3105706	WORD	n/a	wordpools/wordpool_EN.txt	STICK	1	8	[0, 0, 0]	n/a	FR1	2	R1098D
1846.749	2.551	3109784	WORD	n/a	wordpools/wordpool_EN.txt	LAKE	2	8	[0, 0, 0]	n/a	FR1	2	R1098D
1849.3	2.617	3113865	WORD	n/a	wordpools/wordpool_EN.txt	CUBE	3	8	[0, 0, 0]	n/a	FR1	2	R1098D
1851.917	2.501	3118052	WORD	n/a	wordpools/wordpool_EN.txt	CHALK	4	8	[0, 0, 0]	n/a	FR1	2	R1098D
1854.418	2.533	3122053	WORD	n/a	wordpools/wordpool_EN.txt	GUARD	5	8	[0, 0, 0]	n/a	FR1	2	R1098D
1856.951	2.501	3126105	WORD	n/a	wordpools/wordpool_EN.txt	JAR	6	8	[0, 0, 0]	n/a	FR1	2	R1098D
1859.452	2.568	3130106	WORD	n/a	wordpools/wordpool_EN.txt	PALM	7	8	[0, 0, 0]	n/a	FR1	2	R1098D
1862.02	2.616	3134215	WORD	n/a	wordpools/wordpool_EN.txt	TENT	8	8	[0, 0, 0]	n/a	FR1	2	R1098D
1864.636	2.601	3138400	WORD	n/a	wordpools/wordpool_EN.txt	SNAKE	9	8	[0, 0, 0]	n/a	FR1	2	R1098D
1867.237	2.45	3142561	WORD	n/a	wordpools/wordpool_EN.txt	CLIFF	10	8	[0, 0, 0]	n/a	FR1	2	R1098D
1869.687	2.468	3146481	WORD	n/a	wordpools/wordpool_EN.txt	CUP	11	8	[0, 0, 0]	n/a	FR1	2	R1098D
1872.155	1.616	3150429	WORD	n/a	wordpools/wordpool_EN.txt	SINK	12	8	[0, 0, 0]	n/a	FR1	2	R1098D
1873.771	0.001	3153014	DISTRACT_START	n/a	n/a	n/a	-999	8	[0, 0, 0]	n/a	FR1	2	R1098D
1873.772	0.015	3153016	START	n/a	n/a	n/a	-999	8	[-999, -999, -999]	n/a	FR1	2	R1098D
1873.787	5.051	3153040	PROB	5.051	n/a	n/a	-999	8	[8, 1, 1]	10	FR1	2	R1098D
1878.838	7.951	3161121	PROB	7.951	n/a	n/a	-999	8	[9, 4, 2]	15	FR1	2	R1098D
1886.789	3.851	3173841	PROB	3.851	n/a	n/a	-999	8	[1, 4, 8]	13	FR1	2	R1098D
1890.64	2.719	3180002	PROB	2.719	n/a	n/a	-999	8	[5, 8, 1]	14	FR1	2	R1098D
1893.359	3.563	3184352	PROB	3.563	n/a	n/a	-999	8	[2, 7, 8]	17	FR1	2	R1098D
1896.922	0.02	3190052	STOP	n/a	n/a	n/a	-999	8	[-999, -999, -999]	n/a	FR1	2	R1098D
1896.942	1.068	3190084	DISTRACT_END	n/a	n/a	n/a	-999	8	[0, 0, 0]	n/a	FR1	2	R1098D
1898.01	0.617	3191793	REC_START	n/a	n/a	n/a	-999	8	[0, 0, 0]	n/a	FR1	2	R1098D
1898.627	1.272	3192780	REC_WORD	1.272	n/a	STICK	-999	8	[0, 0, 0]	n/a	FR1	2	R1098D
1899.899	1.007	3194815	REC_WORD	1.007	n/a	LAKE	-999	8	[0, 0, 0]	n/a	FR1	2	R1098D
1900.906	27.114	3196426	REC_WORD	27.114	n/a	CUBE	-999	8	[0, 0, 0]	n/a	FR1	2	R1098D
1928.02	2.345	3239804	REC_END	n/a	n/a	n/a	-999	8	[0, 0, 0]	n/a	FR1	2	R1098D
1930.365	0.0	3243555	COUNTDOWN_START	n/a	n/a	n/a	-999	9	[0, 0, 0]	n/a	FR1	2	R1098D
1930.365	10.428	3243555	TRIAL	n/a	n/a	n/a	-999	9	[0, 0, 0]	n/a	FR1	2	R1098D
1940.793	0.007	3260238	COUNTDOWN_END	n/a	n/a	n/a	-999	9	[0, 0, 0]	n/a	FR1	2	R1098D
1940.8	2.518	3260249	ORIENT	n/a	n/a	n/a	-999	9	[0, 0, 0]	n/a	FR1	2	R1098D
1943.318	2.499	3264278	WORD	n/a	wordpools/wordpool_EN.txt	FLAME	1	9	[0, 0, 0]	n/a	FR1	2	R1098D
1945.817	2.435	3268276	WORD	n/a	wordpools/wordpool_EN.txt	JET	2	9	[0, 0, 0]	n/a	FR1	2	R1098D
1948.252	2.516	3272171	WORD	n/a	wordpools/wordpool_EN.txt	FUR	3	9	[0, 0, 0]	n/a	FR1	2	R1098D
1950.768	2.451	3276196	WORD	n/a	wordpools/wordpool_EN.txt	SNOW	4	9	[0, 0, 0]	n/a	FR1	2	R1098D
1953.219	2.45	3280118	WORD	n/a	wordpools/wordpool_EN.txt	PLANE	5	9	[0, 0, 0]	n/a	FR1	2	R1098D
1955.669	2.485	3284037	WORD	n/a	wordpools/wordpool_EN.txt	CAPE	6	9	[0, 0, 0]	n/a	FR1	2	R1098D
1958.154	2.483	3288013	WORD	n/a	wordpools/wordpool_EN.txt	DUCK	7	9	[0, 0, 0]	n/a	FR1	2	R1098D
1960.637	2.551	3291985	WORD	n/a	wordpools/wordpool_EN.txt	SHARK	8	9	[0, 0, 0]	n/a	FR1	2	R1098D
1963.188	2.6	3296066	WORD	n/a	wordpools/wordpool_EN.txt	STORM	9	9	[0, 0, 0]	n/a	FR1	2	R1098D
1965.788	2.401	3300226	WORD	n/a	wordpools/wordpool_EN.txt	SPRING	10	9	[0, 0, 0]	n/a	FR1	2	R1098D
1968.189	2.483	3304067	WORD	n/a	wordpools/wordpool_EN.txt	HAWK	11	9	[0, 0, 0]	n/a	FR1	2	R1098D
1970.672	1.618	3308039	WORD	n/a	wordpools/wordpool_EN.txt	WOLF	12	9	[0, 0, 0]	n/a	FR1	2	R1098D
1972.29	0.0	3310628	DISTRACT_START	n/a	n/a	n/a	-999	9	[0, 0, 0]	n/a	FR1	2	R1098D
1972.29	0.016	3310628	START	n/a	n/a	n/a	-999	9	[-999, -999, -999]	n/a	FR1	2	R1098D
1972.306	8.102	3310654	PROB	8.102	n/a	n/a	-999	9	[7, 3, 8]	18	FR1	2	R1098D
1980.408	3.85	3323615	PROB	3.85	n/a	n/a	-999	9	[2, 7, 9]	18	FR1	2	R1098D
1984.258	2.483	3329775	PROB	2.483	n/a	n/a	-999	9	[8, 1, 1]	10	FR1	2	R1098D
1986.741	3.984	3333747	PROB	3.984	n/a	n/a	-999	9	[4, 3, 4]	11	FR1	2	R1098D
1990.725	3.973	3340121	PROB	3.973	n/a	n/a	-999	9	[7, 8, 1]	16	FR1	2	R1098D
1994.698	0.011	3346477	STOP	n/a	n/a	n/a	-999	9	[-999, -999, -999]	n/a	FR1	2	R1098D
1994.709	1.118	3346495	DISTRACT_END	n/a	n/a	n/a	-999	9	[0, 0, 0]	n/a	FR1	2	R1098D
1995.827	2.951	3348283	REC_START	n/a	n/a	n/a	-999	9	[0, 0, 0]	n/a	FR1	2	R1098D
1998.778	1.185	3353004	REC_WORD	1.185	n/a	STICK	-999	9	[0, 0, 0]	n/a	FR1	2	R1098D
1999.963	1.674	3354900	REC_WORD	1.674	n/a	FLAME	-999	9	[0, 0, 0]	n/a	FR1	2	R1098D
2001.637	24.199	3357578	REC_WORD	24.199	n/a	SHARK	-999	9	[0, 0, 0]	n/a	FR1	2	R1098D
2025.836	2.347	3396292	REC_END	n/a	n/a	n/a	-999	9	[0, 0, 0]	n/a	FR1	2	R1098D
2028.183	0.0	3400047	TRIAL	n/a	n/a	n/a	-999	10	[0, 0, 0]	n/a	FR1	2	R1098D
2028.183	10.428	3400047	COUNTDOWN_START	n/a	n/a	n/a	-999	10	[0, 0, 0]	n/a	FR1	2	R1098D
2038.611	0.006	3416730	COUNTDOWN_END	n/a	n/a	n/a	-999	10	[0, 0, 0]	n/a	FR1	2	R1098D
2038.617	2.469	3416740	ORIENT	n/a	n/a	n/a	-999	10	[0, 0, 0]	n/a	FR1	2	R1098D
2041.086	2.599	3420690	WORD	n/a	wordpools/wordpool_EN.txt	BAT	1	10	[0, 0, 0]	n/a	FR1	2	R1098D
2043.685	2.551	3424848	WORD	n/a	wordpools/wordpool_EN.txt	FAN	2	10	[0, 0, 0]	n/a	FR1	2	R1098D
2046.236	2.517	3428929	WORD	n/a	wordpools/wordpool_EN.txt	STRING	3	10	[0, 0, 0]	n/a	FR1	2	R1098D
2048.753	2.534	3432956	WORD	n/a	wordpools/wordpool_EN.txt	SHOE	4	10	[0, 0, 0]	n/a	FR1	2	R1098D
2051.287	2.383	3437010	WORD	n/a	wordpools/wordpool_EN.txt	FOAM	5	10	[0, 0, 0]	n/a	FR1	2	R1098D
2053.67	2.402	3440822	WORD	n/a	wordpools/wordpool_EN.txt	MOUTH	6	10	[0, 0, 0]	n/a	FR1	2	R1098D
2056.072	2.517	3444665	WORD	n/a	wordpools/wordpool_EN.txt	GEESE	7	10	[0, 0, 0]	n/a	FR1	2	R1098D
2058.589	2.617	3448692	WORD	n/a	wordpools/wordpool_EN.txt	BEAK	8	10	[0, 0, 0]	n/a	FR1	2	R1098D
2061.206	2.449	3452878	WORD	n/a	wordpools/wordpool_EN.txt	EAR	9	10	[0, 0, 0]	n/a	FR1	2	R1098D
2063.655	2.418	3456796	WORD	n/a	wordpools/wordpool_EN.txt	WING	10	10	[0, 0, 0]	n/a	FR1	2	R1098D
2066.073	2.6	3460665	WORD	n/a	wordpools/wordpool_EN.txt	STRAW	11	10	[0, 0, 0]	n/a	FR1	2	R1098D
2068.673	1.618	3464824	WORD	n/a	wordpools/wordpool_EN.txt	WAVE	12	10	[0, 0, 0]	n/a	FR1	2	R1098D
2070.291	0.001	3467413	DISTRACT_START	n/a	n/a	n/a	-999	10	[0, 0, 0]	n/a	FR1	2	R1098D
2070.292	0.016	3467414	START	n/a	n/a	n/a	-999	10	[-999, -999, -999]	n/a	FR1	2	R1098D
2070.308	6.301	3467440	PROB	6.301	n/a	n/a	-999	10	[8, 8, 3]	19	FR1	2	R1098D
2076.609	2.349	3477520	PROB	2.349	n/a	n/a	-999	10	[5, 2, 5]	12	FR1	2	R1098D
2078.958	4.402	3481278	PROB	4.402	n/a	n/a	-999	10	[3, 8, 6]	17	FR1	2	R1098D
2083.36	2.934	3488321	PROB	2.934	n/a	n/a	-999	10	[3, 7, 2]	12	FR1	2	R1098D
2086.294	3.466	3493015	PROB	3.466	n/a	n/a	-999	10	[3, 8, 2]	13	FR1	2	R1098D
2089.76	4.683	3498560	PROB	4.683	n/a	n/a	-999	10	[4, 7, 8]	19	FR1	2	R1098D
2094.443	0.019	3506052	STOP	n/a	n/a	n/a	-999	10	[-999, -999, -999]	n/a	FR1	2	R1098D
2094.462	1.068	3506082	DISTRACT_END	n/a	n/a	n/a	-999	10	[0, 0, 0]	n/a	FR1	2	R1098D
2095.53	1.348	3507791	REC_START	n/a	n/a	n/a	-999	10	[0, 0, 0]	n/a	FR1	2	R1098D
2096.878	2.464	3509947	REC_WORD	2.464	n/a	STICK	-999	10	[0, 0, 0]	n/a	FR1	2	R1098D
2099.342	4.505	3513889	REC_WORD	4.505	n/a	FLAME	-999	10	[0, 0, 0]	n/a	FR1	2	R1098D
2103.847	21.693	3521097	REC_WORD	21.693	n/a	BAT	-999	10	[0, 0, 0]	n/a	FR1	2	R1098D
2125.54	3.261	3555802	REC_END	n/a	n/a	n/a	-999	10	[0, 0, 0]	n/a	FR1	2	R1098D
2128.801	0.0	3561019	COUNTDOWN_START	n/a	n/a	n/a	-999	11	[0, 0, 0]	n/a	FR1	2	R1098D
2128.801	10.428	3561019	TRIAL	n/a	n/a	n/a	-999	11	[0, 0, 0]	n/a	FR1	2	R1098D
2139.229	0.008	3577702	COUNTDOWN_END	n/a	n/a	n/a	-999	11	[0, 0, 0]	n/a	FR1	2	R1098D
2139.237	2.383	3577715	ORIENT	n/a	n/a	n/a	-999	11	[0, 0, 0]	n/a	FR1	2	R1098D
2141.62	2.384	3581527	WORD	n/a	wordpools/wordpool_EN.txt	MOUSE	1	11	[0, 0, 0]	n/a	FR1	2	R1098D
2144.004	2.551	3585341	WORD	n/a	wordpools/wordpool_EN.txt	SHELL	2	11	[0, 0, 0]	n/a	FR1	2	R1098D
2146.555	2.584	3589422	WORD	n/a	wordpools/wordpool_EN.txt	HORN	3	11	[0, 0, 0]	n/a	FR1	2	R1098D
2149.139	2.616	3593556	WORD	n/a	wordpools/wordpool_EN.txt	WALL	4	11	[0, 0, 0]	n/a	FR1	2	R1098D
2151.755	2.518	3597741	WORD	n/a	wordpools/wordpool_EN.txt	BEAN	5	11	[0, 0, 0]	n/a	FR1	2	R1098D
2154.273	2.499	3601770	WORD	n/a	wordpools/wordpool_EN.txt	SUIT	6	11	[0, 0, 0]	n/a	FR1	2	R1098D
2156.772	2.402	3605768	WORD	n/a	wordpools/wordpool_EN.txt	PEAR	7	11	[0, 0, 0]	n/a	FR1	2	R1098D
2159.174	2.599	3609610	WORD	n/a	wordpools/wordpool_EN.txt	MOOSE	8	11	[0, 0, 0]	n/a	FR1	2	R1098D
2161.773	2.485	3613768	WORD	n/a	wordpools/wordpool_EN.txt	RAT	9	11	[0, 0, 0]	n/a	FR1	2	R1098D
2164.258	2.399	3617744	WORD	n/a	wordpools/wordpool_EN.txt	EGG	10	11	[0, 0, 0]	n/a	FR1	2	R1098D
2166.657	2.468	3621582	WORD	n/a	wordpools/wordpool_EN.txt	RUG	11	11	[0, 0, 0]	n/a	FR1	2	R1098D
2169.125	1.617	3625530	WORD	n/a	wordpools/wordpool_EN.txt	SHIELD	12	11	[0, 0, 0]	n/a	FR1	2	R1098D
2170.742	0.0	3628117	DISTRACT_START	n/a	n/a	n/a	-999	11	[0, 0, 0]	n/a	FR1	2	R1098D
2170.742	0.016	3628117	START	n/a	n/a	n/a	-999	11	[-999, -999, -999]	n/a	FR1	2	R1098D
2170.758	6.769	3628143	PROB	6.769	n/a	n/a	-999	11	[1, 2, 4]	7	FR1	2	R1098D
2177.527	2.851	3638972	PROB	2.851	n/a	n/a	-999	11	[1, 8, 7]	16	FR1	2	R1098D
2180.378	5.283	3643533	PROB	5.283	n/a	n/a	-999	11	[9, 5, 7]	21	FR1	2	R1098D
2185.661	4.067	3651985	PROB	4.067	n/a	n/a	-999	11	[9, 2, 8]	19	FR1	2	R1098D
2189.728	2.507	3658492	PROB	2.507	n/a	n/a	-999	11	[5, 2, 2]	9	FR1	2	R1098D
2192.235	0.012	3662502	STOP	n/a	n/a	n/a	-999	11	[-999, -999, -999]	n/a	FR1	2	R1098D
2192.247	1.201	3662521	DISTRACT_END	n/a	n/a	n/a	-999	11	[0, 0, 0]	n/a	FR1	2	R1098D
2193.448	0.625	3664443	REC_START	n/a	n/a	n/a	-999	11	[0, 0, 0]	n/a	FR1	2	R1098D
2194.073	1.022	3665443	REC_WORD	1.022	n/a	MOUSE	-999	11	[0, 0, 0]	n/a	FR1	2	R1098D
2195.095	1.311	3667078	REC_WORD	1.311	n/a	SHELL	-999	11	[0, 0, 0]	n/a	FR1	2	R1098D
2196.406	27.053	3669175	REC_WORD	27.053	n/a	CORN	-999	11	[0, 0, 0]	n/a	FR1	2	R1098D
2223.459	1.56	3712455	REC_END	n/a	n/a	n/a	-999	11	[0, 0, 0]	n/a	FR1	2	R1098D
2225.019	0.0	3714951	TRIAL	n/a	n/a	n/a	-999	12	[0, 0, 0]	n/a	FR1	2	R1098D
2225.019	10.428	3714951	COUNTDOWN_START	n/a	n/a	n/a	-999	12	[0, 0, 0]	n/a	FR1	2	R1098D
2235.447	0.007	3731634	COUNTDOWN_END	n/a	n/a	n/a	-999	12	[0, 0, 0]	n/a	FR1	2	R1098D
2235.454	2.416	3731645	ORIENT	n/a	n/a	n/a	-999	12	[0, 0, 0]	n/a	FR1	2	R1098D
2237.87	2.519	3735510	WORD	n/a	wordpools/wordpool_EN.txt	STORE	1	12	[0, 0, 0]	n/a	FR1	2	R1098D
2240.389	2.6	3739540	WORD	n/a	wordpools/wordpool_EN.txt	VASE	2	12	[0, 0, 0]	n/a	FR1	2	R1098D
2242.989	2.484	3743700	WORD	n/a	wordpools/wordpool_EN.txt	FRUIT	3	12	[0, 0, 0]	n/a	FR1	2	R1098D
2245.473	2.567	3747674	WORD	n/a	wordpools/wordpool_EN.txt	PURSE	4	12	[0, 0, 0]	n/a	FR1	2	R1098D
2248.04	2.567	3751781	WORD	n/a	wordpools/wordpool_EN.txt	DESK	5	12	[0, 0, 0]	n/a	FR1	2	R1098D
2250.607	2.467	3755888	WORD	n/a	wordpools/wordpool_EN.txt	TEA	6	12	[0, 0, 0]	n/a	FR1	2	R1098D
2253.074	2.434	3759834	WORD	n/a	wordpools/wordpool_EN.txt	LIP	7	12	[0, 0, 0]	n/a	FR1	2	R1098D
2255.508	2.416	3763728	WORD	n/a	wordpools/wordpool_EN.txt	LAMB	8	12	[0, 0, 0]	n/a	FR1	2	R1098D
2257.924	2.435	3767593	WORD	n/a	wordpools/wordpool_EN.txt	PLANT	9	12	[0, 0, 0]	n/a	FR1	2	R1098D
2260.359	2.399	3771489	WORD	n/a	wordpools/wordpool_EN.txt	PEACH	10	12	[0, 0, 0]	n/a	FR1	2	R1098D
2262.758	2.468	3775327	WORD	n/a	wordpools/wordpool_EN.txt	APE	11	12	[0, 0, 0]	n/a	FR1	2	R1098D
2265.226	1.616	3779275	WORD	n/a	wordpools/wordpool_EN.txt	FOOD	12	12	[0, 0, 0]	n/a	FR1	2	R1098D
2266.842	0.001	3781861	DISTRACT_START	n/a	n/a	n/a	-999	12	[0, 0, 0]	n/a	FR1	2	R1098D
2266.843	0.016	3781862	START	n/a	n/a	n/a	-999	12	[-999, -999, -999]	n/a	FR1	2	R1098D
2266.859	2.767	3781888	PROB	2.767	n/a	n/a	-999	12	[5, 2, 1]	8	FR1	2	R1098D
2269.626	4.318	3786315	PROB	4.318	n/a	n/a	-999	12	[4, 4, 7]	15	FR1	2	R1098D
2273.944	3.834	3793223	PROB	3.834	n/a	n/a	-999	12	[5, 7, 6]	18	FR1	2	R1098D
2277.778	2.385	3799356	PROB	2.385	n/a	n/a	-999	12	[7, 1, 7]	15	FR1	2	R1098D
2280.163	3.649	3803172	PROB	3.649	n/a	n/a	-999	12	[2, 8, 7]	17	FR1	2	R1098D
2283.812	4.463	3809010	PROB	4.463	n/a	n/a	-999	12	[5, 9, 7]	21	FR1	2	R1098D
2288.275	0.006	3816150	STOP	n/a	n/a	n/a	-999	12	[-999, -999, -999]	n/a	FR1	2	R1098D
2288.281	1.067	3816159	DISTRACT_END	n/a	n/a	n/a	-999	12	[0, 0, 0]	n/a	FR1	2	R1098D
2289.348	0.342	3817866	REC_START	n/a	n/a	n/a	-999	12	[0, 0, 0]	n/a	FR1	2	R1098D
2289.69	1.092	3818414	REC_WORD	1.092	n/a	STORE	-999	12	[0, 0, 0]	n/a	FR1	2	R1098D
2290.782	1.208	3820161	REC_WORD	1.208	n/a	FRUIT	-999	12	[0, 0, 0]	n/a	FR1	2	R1098D
2291.99	27.37	3822093	REC_WORD	27.37	n/a	VASE	-999	12	[0, 0, 0]	n/a	FR1	2	R1098D
2319.36	2.392	3865881	REC_END	n/a	n/a	n/a	-999	12	[0, 0, 0]	n/a	FR1	2	R1098D
2321.752	0.001	3869707	COUNTDOWN_START	n/a	n/a	n/a	-999	13	[0, 0, 0]	n/a	FR1	2	R1098D
2321.753	10.427	3869709	TRIAL	n/a	n/a	n/a	-999	13	[0, 0, 0]	n/a	FR1	2	R1098D
2332.18	0.009	3886390	COUNTDOWN_END	n/a	n/a	n/a	-999	13	[0, 0, 0]	n/a	FR1	2	R1098D
2332.189	2.383	3886405	ORIENT	n/a	n/a	n/a	-999	13	[0, 0, 0]	n/a	FR1	2	R1098D
2334.572	2.617	3890217	WORD	n/a	wordpools/wordpool_EN.txt	SWAMP	1	13	[0, 0, 0]	n/a	FR1	2	R1098D
2337.189	2.533	3894404	WORD	n/a	wordpools/wordpool_EN.txt	HEN	2	13	[0, 0, 0]	n/a	FR1	2	R1098D
2339.722	2.552	3898456	WORD	n/a	wordpools/wordpool_EN.txt	HOLE	3	13	[0, 0, 0]	n/a	FR1	2	R1098D
2342.274	2.549	3902539	WORD	n/a	wordpools/wordpool_EN.txt	OWL	4	13	[0, 0, 0]	n/a	FR1	2	R1098D
2344.823	2.535	3906617	WORD	n/a	wordpools/wordpool_EN.txt	BROOM	5	13	[0, 0, 0]	n/a	FR1	2	R1098D
2347.358	2.383	3910673	WORD	n/a	wordpools/wordpool_EN.txt	TAIL	6	13	[0, 0, 0]	n/a	FR1	2	R1098D
2349.741	2.435	3914485	WORD	n/a	wordpools/wordpool_EN.txt	EEL	7	13	[0, 0, 0]	n/a	FR1	2	R1098D
2352.176	2.549	3918381	WORD	n/a	wordpools/wordpool_EN.txt	YARD	8	13	[0, 0, 0]	n/a	FR1	2	R1098D
2354.725	2.435	3922458	WORD	n/a	wordpools/wordpool_EN.txt	BREAD	9	13	[0, 0, 0]	n/a	FR1	2	R1098D
2357.16	2.616	3926354	WORD	n/a	wordpools/wordpool_EN.txt	TOAST	10	13	[0, 0, 0]	n/a	FR1	2	R1098D
2359.776	2.435	3930539	WORD	n/a	wordpools/wordpool_EN.txt	PIE	11	13	[0, 0, 0]	n/a	FR1	2	R1098D
2362.211	1.616	3934435	WORD	n/a	wordpools/wordpool_EN.txt	PEN	12	13	[0, 0, 0]	n/a	FR1	2	R1098D
2363.827	0.001	3937020	DISTRACT_START	n/a	n/a	n/a	-999	13	[0, 0, 0]	n/a	FR1	2	R1098D
2363.828	0.016	3937022	START	n/a	n/a	n/a	-999	13	[-999, -999, -999]	n/a	FR1	2	R1098D
2363.844	4.9	3937047	PROB	4.9	n/a	n/a	-999	13	[4, 6, 8]	18	FR1	2	R1098D
2368.744	2.984	3944886	PROB	2.984	n/a	n/a	-999	13	[3, 6, 1]	10	FR1	2	R1098D
2371.728	2.652	3949660	PROB	2.652	n/a	n/a	-999	13	[5, 4, 5]	14	FR1	2	R1098D
2374.38	2.817	3953903	PROB	2.817	n/a	n/a	-999	13	[4, 5, 5]	14	FR1	2	R1098D
2377.197	3.55	3958410	PROB	3.55	n/a	n/a	-999	13	[1, 3, 4]	8	FR1	2	R1098D
2380.747	6.311	3964089	PROB	6.311	n/a	n/a	-999	13	[9, 9, 8]	26	FR1	2	R1098D
2387.058	0.008	3974186	STOP	n/a	n/a	n/a	-999	13	[-999, -999, -999]	n/a	FR1	2	R1098D
2387.066	1.084	3974199	DISTRACT_END	n/a	n/a	n/a	-999	13	[0, 0, 0]	n/a	FR1	2	R1098D
2388.15	0.431	3975933	REC_START	n/a	n/a	n/a	-999	13	[0, 0, 0]	n/a	FR1	2	R1098D
2388.581	1.133	3976622	REC_WORD	1.133	n/a	HEN	-999	13	[0, 0, 0]	n/a	FR1	2	R1098D
2389.714	0.957	3978435	REC_WORD	0.957	n/a	HOLE	-999	13	[0, 0, 0]	n/a	FR1	2	R1098D
2390.671	27.49	3979966	REC_WORD	27.49	n/a	OWL	-999	13	[0, 0, 0]	n/a	FR1	2	R1098D
2418.161	1.559	4023945	REC_END	n/a	n/a	n/a	-999	13	[0, 0, 0]	n/a	FR1	2	R1098D
2419.72	0.001	4026439	COUNTDOWN_START	n/a	n/a	n/a	-999	14	[0, 0, 0]	n/a	FR1	2	R1098D
2419.721	10.427	4026441	TRIAL	n/a	n/a	n/a	-999	14	[0, 0, 0]	n/a	FR1	2	R1098D
2430.148	0.009	4043122	COUNTDOWN_END	n/a	n/a	n/a	-999	14	[0, 0, 0]	n/a	FR1	2	R1098D
2430.157	2.566	4043137	ORIENT	n/a	n/a	n/a	-999	14	[0, 0, 0]	n/a	FR1	2	R1098D
2432.723	2.535	4047242	WORD	n/a	wordpools/wordpool_EN.txt	DRESS	1	14	[0, 0, 0]	n/a	FR1	2	R1098D
2435.258	2.466	4051297	WORD	n/a	wordpools/wordpool_EN.txt	DITCH	2	14	[0, 0, 0]	n/a	FR1	2	R1098D
2437.724	2.418	4055243	WORD	n/a	wordpools/wordpool_EN.txt	KITE	3	14	[0, 0, 0]	n/a	FR1	2	R1098D
2440.142	2.566	4059111	WORD	n/a	wordpools/wordpool_EN.txt	ROAD	4	14	[0, 0, 0]	n/a	FR1	2	R1098D
2442.708	2.385	4063216	WORD	n/a	wordpools/wordpool_EN.txt	GATE	5	14	[0, 0, 0]	n/a	FR1	2	R1098D
2445.093	2.4	4067032	WORD	n/a	wordpools/wordpool_EN.txt	TIE	6	14	[0, 0, 0]	n/a	FR1	2	R1098D
2447.493	2.433	4070871	WORD	n/a	wordpools/wordpool_EN.txt	AXE	7	14	[0, 0, 0]	n/a	FR1	2	R1098D
2449.926	2.484	4074764	WORD	n/a	wordpools/wordpool_EN.txt	STOOL	8	14	[0, 0, 0]	n/a	FR1	2	R1098D
2452.41	2.567	4078738	WORD	n/a	wordpools/wordpool_EN.txt	NOSE	9	14	[0, 0, 0]	n/a	FR1	2	R1098D
2454.977	2.601	4082845	WORD	n/a	wordpools/wordpool_EN.txt	SWORD	10	14	[0, 0, 0]	n/a	FR1	2	R1098D
2457.578	2.4	4087006	WORD	n/a	wordpools/wordpool_EN.txt	SLEEVE	11	14	[0, 0, 0]	n/a	FR1	2	R1098D
2459.978	1.618	4090845	WORD	n/a	wordpools/wordpool_EN.txt	COUCH	12	14	[0, 0, 0]	n/a	FR1	2	R1098D
2461.596	0.001	4093434	DISTRACT_START	n/a	n/a	n/a	-999	14	[0, 0, 0]	n/a	FR1	2	R1098D
2461.597	0.014	4093435	START	n/a	n/a	n/a	-999	14	[-999, -999, -999]	n/a	FR1	2	R1098D
2461.611	4.486	4093458	PROB	4.486	n/a	n/a	-999	14	[6, 3, 5]	14	FR1	2	R1098D
2466.097	4.984	4100635	PROB	4.984	n/a	n/a	-999	14	[4, 8, 1]	13	FR1	2	R1098D
2471.081	2.267	4108608	PROB	2.267	n/a	n/a	-999	14	[1, 8, 1]	10	FR1	2	R1098D
2473.348	3.851	4112235	PROB	3.851	n/a	n/a	-999	14	[5, 6, 8]	19	FR1	2	R1098D
2477.199	5.611	4118396	PROB	5.611	n/a	n/a	-999	14	[2, 4, 1]	7	FR1	2	R1098D
2482.81	0.005	4127373	STOP	n/a	n/a	n/a	-999	14	[-999, -999, -999]	n/a	FR1	2	R1098D
2482.815	1.169	4127381	DISTRACT_END	n/a	n/a	n/a	-999	14	[0, 0, 0]	n/a	FR1	2	R1098D
2483.984	0.444	4129251	REC_START	n/a	n/a	n/a	-999	14	[0, 0, 0]	n/a	FR1	2	R1098D
2484.428	0.985	4129961	REC_WORD	0.985	n/a	DRESS	-999	14	[0, 0, 0]	n/a	FR1	2	R1098D
2485.413	0.882	4131537	REC_WORD	0.882	n/a	DITCH	-999	14	[0, 0, 0]	n/a	FR1	2	R1098D
2486.295	27.699	4132948	REC_WORD	27.699	n/a	KITE	-999	14	[0, 0, 0]	n/a	FR1	2	R1098D
2513.994	3.627	4177262	REC_END	n/a	n/a	n/a	-999	14	[0, 0, 0]	n/a	FR1	2	R1098D
2517.621	0.001	4183064	COUNTDOWN_START	n/a	n/a	n/a	-999	15	[0, 0, 0]	n/a	FR1	2	R1098D
2517.622	10.427	4183066	TRIAL	n/a	n/a	n/a	-999	15	[0, 0, 0]	n/a	FR1	2	R1098D
2528.049	0.009	4199747	COUNTDOWN_END	n/a	n/a	n/a	-999	15	[0, 0, 0]	n/a	FR1	2	R1098D
2528.058	2.55	4199762	ORIENT	n/a	n/a	n/a	-999	15	[0, 0, 0]	n/a	FR1	2	R1098D
2530.608	2.384	4203841	WORD	n/a	wordpools/wordpool_EN.txt	TRAY	1	15	[0, 0, 0]	n/a	FR1	2	R1098D
2532.992	2.551	4207655	WORD	n/a	wordpools/wordpool_EN.txt	ROSE	2	15	[0, 0, 0]	n/a	FR1	2	R1098D
2535.543	2.45	4211736	WORD	n/a	wordpools/wordpool_EN.txt	BEACH	3	15	[0, 0, 0]	n/a	FR1	2	R1098D
2537.993	2.534	4215656	WORD	n/a	wordpools/wordpool_EN.txt	BOAT	4	15	[0, 0, 0]	n/a	FR1	2	R1098D
2540.527	2.534	4219710	WORD	n/a	wordpools/wordpool_EN.txt	LEG	5	15	[0, 0, 0]	n/a	FR1	2	R1098D
2543.061	2.383	4223764	WORD	n/a	wordpools/wordpool_EN.txt	SUN	6	15	[0, 0, 0]	n/a	FR1	2	R1098D
2545.444	2.533	4227576	WORD	n/a	wordpools/wordpool_EN.txt	FLOOR	7	15	[0, 0, 0]	n/a	FR1	2	R1098D
2547.977	2.502	4231629	WORD	n/a	wordpools/wordpool_EN.txt	RICE	8	15	[0, 0, 0]	n/a	FR1	2	R1098D
2550.479	2.567	4235631	WORD	n/a	wordpools/wordpool_EN.txt	DRUM	9	15	[0, 0, 0]	n/a	FR1	2	R1098D
2553.046	2.566	4239738	WORD	n/a	wordpools/wordpool_EN.txt	STAIR	10	15	[0, 0, 0]	n/a	FR1	2	R1098D
2555.612	2.585	4243843	WORD	n/a	wordpools/wordpool_EN.txt	VEST	11	15	[0, 0, 0]	n/a	FR1	2	R1098D
2558.197	1.616	4247979	WORD	n/a	wordpools/wordpool_EN.txt	TOY	12	15	[0, 0, 0]	n/a	FR1	2	R1098D
2559.813	0.001	4250564	DISTRACT_START	n/a	n/a	n/a	-999	15	[0, 0, 0]	n/a	FR1	2	R1098D
2559.814	0.015	4250566	START	n/a	n/a	n/a	-999	15	[-999, -999, -999]	n/a	FR1	2	R1098D
2559.829	6.219	4250590	PROB	6.219	n/a	n/a	-999	15	[9, 6, 2]	17	FR1	2	R1098D
2566.048	6.251	4260539	PROB	6.251	n/a	n/a	-999	15	[4, 3, 6]	13	FR1	2	R1098D
2572.299	3.65	4270540	PROB	3.65	n/a	n/a	-999	15	[6, 5, 5]	16	FR1	2	R1098D
2575.949	4.046	4276379	PROB	4.046	n/a	n/a	-999	15	[7, 5, 2]	14	FR1	2	R1098D
2579.995	0.006	4282852	STOP	n/a	n/a	n/a	-999	15	[-999, -999, -999]	n/a	FR1	2	R1098D
2580.001	1.217	4282862	DISTRACT_END	n/a	n/a	n/a	-999	15	[0, 0, 0]	n/a	FR1	2	R1098D
2581.218	1.434	4284809	REC_START	n/a	n/a	n/a	-999	15	[0, 0, 0]	n/a	FR1	2	R1098D
2582.652	1.878	4287103	REC_WORD	1.878	n/a	VEST	-999	15	[0, 0, 0]	n/a	FR1	2	R1098D
2584.53	1.291	4290107	REC_WORD	1.291	n/a	BEACH	-999	15	[0, 0, 0]	n/a	FR1	2	R1098D
2585.821	25.411	4292173	REC_WORD	25.411	n/a	BOAT	-999	15	[0, 0, 0]	n/a	FR1	2	R1098D
2611.232	2.674	4332826	REC_END	n/a	n/a	n/a	-999	15	[0, 0, 0]	n/a	FR1	2	R1098D
2613.906	0.0	4337104	TRIAL	n/a	n/a	n/a	-999	16	[0, 0, 0]	n/a	FR1	2	R1098D
2613.906	10.428	4337104	COUNTDOWN_START	n/a	n/a	n/a	-999	16	[0, 0, 0]	n/a	FR1	2	R1098D
2624.334	0.008	4353787	COUNTDOWN_END	n/a	n/a	n/a	-999	16	[0, 0, 0]	n/a	FR1	2	R1098D
2624.342	2.483	4353800	ORIENT	n/a	n/a	n/a	-999	16	[0, 0, 0]	n/a	FR1	2	R1098D
2626.825	2.585	4357772	WORD	n/a	wordpools/wordpool_EN.txt	CHIN	1	16	[0, 0, 0]	n/a	FR1	2	R1098D
2629.41	2.566	4361907	WORD	n/a	wordpools/wordpool_EN.txt	FORK	2	16	[0, 0, 0]	n/a	FR1	2	R1098D
2631.976	2.535	4366013	WORD	n/a	wordpools/wordpool_EN.txt	OAR	3	16	[0, 0, 0]	n/a	FR1	2	R1098D
2634.511	2.399	4370068	WORD	n/a	wordpools/wordpool_EN.txt	DOLL	4	16	[0, 0, 0]	n/a	FR1	2	R1098D
2636.91	2.502	4373906	WORD	n/a	wordpools/wordpool_EN.txt	DEER	5	16	[0, 0, 0]	n/a	FR1	2	R1098D
2639.412	2.549	4377909	WORD	n/a	wordpools/wordpool_EN.txt	SEAL	6	16	[0, 0, 0]	n/a	FR1	2	R1098D
2641.961	2.418	4381987	WORD	n/a	wordpools/wordpool_EN.txt	PET	7	16	[0, 0, 0]	n/a	FR1	2	R1098D
2644.379	2.5	4385855	WORD	n/a	wordpools/wordpool_EN.txt	BRUSH	8	16	[0, 0, 0]	n/a	FR1	2	R1098D
2646.879	2.568	4389855	WORD	n/a	wordpools/wordpool_EN.txt	GOAT	9	16	[0, 0, 0]	n/a	FR1	2	R1098D
2649.447	2.516	4393963	WORD	n/a	wordpools/wordpool_EN.txt	DOG	10	16	[0, 0, 0]	n/a	FR1	2	R1098D
2651.963	2.585	4397988	WORD	n/a	wordpools/wordpool_EN.txt	CAT	11	16	[0, 0, 0]	n/a	FR1	2	R1098D
2654.548	1.617	4402124	WORD	n/a	wordpools/wordpool_EN.txt	SOUP	12	16	[0, 0, 0]	n/a	FR1	2	R1098D
2656.165	0.001	4404711	DISTRACT_START	n/a	n/a	n/a	-999	16	[0, 0, 0]	n/a	FR1	2	R1098D
2656.166	0.015	4404712	START	n/a	n/a	n/a	-999	16	[-999, -999, -999]	n/a	FR1	2	R1098D
2656.181	4.617	4404736	PROB	4.617	n/a	n/a	-999	16	[4, 5, 3]	12	FR1	2	R1098D
2660.798	3.167	4412123	PROB	3.167	n/a	n/a	-999	16	[1, 2, 7]	10	FR1	2	R1098D
2663.965	4.102	4417190	PROB	4.102	n/a	n/a	-999	16	[6, 6, 1]	13	FR1	2	R1098D
2668.067	2.267	4423752	PROB	2.267	n/a	n/a	-999	16	[8, 1, 1]	10	FR1	2	R1098D
2670.334	2.399	4427379	PROB	2.399	n/a	n/a	-999	16	[7, 2, 2]	11	FR1	2	R1098D
2672.733	5.357	4431217	PROB	5.357	n/a	n/a	-999	16	[9, 6, 1]	16	FR1	2	R1098D
2678.09	0.012	4439787	STOP	n/a	n/a	n/a	-999	16	[-999, -999, -999]	n/a	FR1	2	R1098D
2678.102	1.084	4439806	DISTRACT_END	n/a	n/a	n/a	-999	16	[0, 0, 0]	n/a	FR1	2	R1098D
2679.186	0.712	4441541	REC_START	n/a	n/a	n/a	-999	16	[0, 0, 0]	n/a	FR1	2	R1098D
2679.898	1.175	4442680	REC_WORD	1.175	n/a	GOAT	-999	16	[0, 0, 0]	n/a	FR1	2	R1098D
2681.073	0.935	4444559	REC_WORD	0.935	n/a	DOG	-999	16	[0, 0, 0]	n/a	FR1	2	R1098D
2682.008	27.192	4446055	REC_WORD	27.192	n/a	CAT	-999	16	[0, 0, 0]	n/a	FR1	2	R1098D
2709.2	1.44	4489558	REC_END	n/a	n/a	n/a	-999	16	[0, 0, 0]	n/a	FR1	2	R1098D
2710.64	0.001	4491862	COUNTDOWN_START	n/a	n/a	n/a	-999	17	[0, 0, 0]	n/a	FR1	2	R1098D
2710.641	10.427	4491863	TRIAL	n/a	n/a	n/a	-999	17	[0, 0, 0]	n/a	FR1	2	R1098D
2721.068	0.008	4508545	COUNTDOWN_END	n/a	n/a	n/a	-999	17	[0, 0, 0]	n/a	FR1	2	R1098D
2721.076	2.468	4508557	ORIENT	n/a	n/a	n/a	-999	17	[0, 0, 0]	n/a	FR1	2	R1098D
2723.544	2.533	4512506	WORD	n/a	wordpools/wordpool_EN.txt	HOOK	1	17	[0, 0, 0]	n/a	FR1	2	R1098D
2726.077	2.451	4516558	WORD	n/a	wordpools/wordpool_EN.txt	CORD	2	17	[0, 0, 0]	n/a	FR1	2	R1098D
2728.528	2.617	4520479	WORD	n/a	wordpools/wordpool_EN.txt	LAMP	3	17	[0, 0, 0]	n/a	FR1	2	R1098D
2731.145	2.45	4524666	WORD	n/a	wordpools/wordpool_EN.txt	SLUSH	4	17	[0, 0, 0]	n/a	FR1	2	R1098D
2733.595	2.568	4528586	WORD	n/a	wordpools/wordpool_EN.txt	SOCK	5	17	[0, 0, 0]	n/a	FR1	2	R1098D
2736.163	2.599	4532694	WORD	n/a	wordpools/wordpool_EN.txt	CAGE	6	17	[0, 0, 0]	n/a	FR1	2	R1098D
2738.762	2.602	4536852	WORD	n/a	wordpools/wordpool_EN.txt	HAND	7	17	[0, 0, 0]	n/a	FR1	2	R1098D
2741.364	2.432	4541015	WORD	n/a	wordpools/wordpool_EN.txt	VAN	8	17	[0, 0, 0]	n/a	FR1	2	R1098D
2743.796	2.368	4544905	WORD	n/a	wordpools/wordpool_EN.txt	MAT	9	17	[0, 0, 0]	n/a	FR1	2	R1098D
2746.164	2.434	4548694	WORD	n/a	wordpools/wordpool_EN.txt	CASH	10	17	[0, 0, 0]	n/a	FR1	2	R1098D
2748.598	2.401	4552588	WORD	n/a	wordpools/wordpool_EN.txt	BOARD	11	17	[0, 0, 0]	n/a	FR1	2	R1098D
2750.999	1.616	4556429	WORD	n/a	wordpools/wordpool_EN.txt	NAIL	12	17	[0, 0, 0]	n/a	FR1	2	R1098D
2752.615	0.001	4559014	DISTRACT_START	n/a	n/a	n/a	-999	17	[0, 0, 0]	n/a	FR1	2	R1098D
2752.616	0.015	4559016	START	n/a	n/a	n/a	-999	17	[-999, -999, -999]	n/a	FR1	2	R1098D
2752.631	6.636	4559040	PROB	6.636	n/a	n/a	-999	17	[3, 7, 9]	19	FR1	2	R1098D
2759.267	4.583	4569656	PROB	4.583	n/a	n/a	-999	17	[2, 3, 3]	8	FR1	2	R1098D
2763.85	3.034	4576988	PROB	3.034	n/a	n/a	-999	17	[8, 5, 7]	20	FR1	2	R1098D
2766.884	2.734	4581842	PROB	2.734	n/a	n/a	-999	17	[7, 3, 2]	12	FR1	2	R1098D
2769.618	3.961	4586216	PROB	3.961	n/a	n/a	-999	17	[2, 2, 6]	10	FR1	2	R1098D
2773.579	0.007	4592553	STOP	n/a	n/a	n/a	-999	17	[-999, -999, -999]	n/a	FR1	2	R1098D
2773.586	1.067	4592564	DISTRACT_END	n/a	n/a	n/a	-999	17	[0, 0, 0]	n/a	FR1	2	R1098D
2774.653	0.512	4594271	REC_START	n/a	n/a	n/a	-999	17	[0, 0, 0]	n/a	FR1	2	R1098D
2775.165	0.899	4595090	REC_WORD	0.899	n/a	HOOK	-999	17	[0, 0, 0]	n/a	FR1	2	R1098D
2776.064	0.824	4596529	REC_WORD	0.824	n/a	CORD	-999	17	[0, 0, 0]	n/a	FR1	2	R1098D
2776.888	27.775	4597847	REC_WORD	27.775	n/a	LAMP	-999	17	[0, 0, 0]	n/a	FR1	2	R1098D
2804.663	2.128	4642282	REC_END	n/a	n/a	n/a	-999	17	[0, 0, 0]	n/a	FR1	2	R1098D
2806.791	0.0	4645687	TRIAL	n/a	n/a	n/a	-999	18	[0, 0, 0]	n/a	FR1	2	R1098D
2806.791	10.428	4645687	COUNTDOWN_START	n/a	n/a	n/a	-999	18	[0, 0, 0]	n/a	FR1	2	R1098D
2817.219	0.008	4662370	COUNTDOWN_END	n/a	n/a	n/a	-999	18	[0, 0, 0]	n/a	FR1	2	R1098D
2817.227	2.45	4662382	ORIENT	n/a	n/a	n/a	-999	18	[0, 0, 0]	n/a	FR1	2	R1098D
2819.677	2.418	4666302	WORD	n/a	wordpools/wordpool_EN.txt	ROOM	1	18	[0, 0, 0]	n/a	FR1	2	R1098D
2822.095	2.616	4670170	WORD	n/a	wordpools/wordpool_EN.txt	FOOT	2	18	[0, 0, 0]	n/a	FR1	2	R1098D
2824.711	2.618	4674356	WORD	n/a	wordpools/wordpool_EN.txt	JEEP	3	18	[0, 0, 0]	n/a	FR1	2	R1098D
2827.329	2.583	4678544	WORD	n/a	wordpools/wordpool_EN.txt	HOSE	4	18	[0, 0, 0]	n/a	FR1	2	R1098D
2829.912	2.452	4682676	WORD	n/a	wordpools/wordpool_EN.txt	SPEAR	5	18	[0, 0, 0]	n/a	FR1	2	R1098D
2832.364	2.449	4686599	WORD	n/a	wordpools/wordpool_EN.txt	FACE	6	18	[0, 0, 0]	n/a	FR1	2	R1098D
2834.813	2.551	4690517	WORD	n/a	wordpools/wordpool_EN.txt	HILL	7	18	[0, 0, 0]	n/a	FR1	2	R1098D
2837.364	2.5	4694598	WORD	n/a	wordpools/wordpool_EN.txt	SEAT	8	18	[0, 0, 0]	n/a	FR1	2	R1098D
2839.864	2.451	4698598	WORD	n/a	wordpools/wordpool_EN.txt	PARK	9	18	[0, 0, 0]	n/a	FR1	2	R1098D
2842.315	2.517	4702519	WORD	n/a	wordpools/wordpool_EN.txt	OAK	10	18	[0, 0, 0]	n/a	FR1	2	R1098D
2844.832	2.401	4706546	WORD	n/a	wordpools/wordpool_EN.txt	TANK	11	18	[0, 0, 0]	n/a	FR1	2	R1098D
2847.233	1.616	4710387	WORD	n/a	wordpools/wordpool_EN.txt	PEA	12	18	[0, 0, 0]	n/a	FR1	2	R1098D
2848.849	0.001	4712972	DISTRACT_START	n/a	n/a	n/a	-999	18	[0, 0, 0]	n/a	FR1	2	R1098D
2848.85	0.016	4712974	START	n/a	n/a	n/a	-999	18	[-999, -999, -999]	n/a	FR1	2	R1098D
2848.866	3.867	4712999	PROB	3.867	n/a	n/a	-999	18	[8, 2, 2]	12	FR1	2	R1098D
2852.733	2.234	4719186	PROB	2.234	n/a	n/a	-999	18	[8, 1, 1]	10	FR1	2	R1098D
2854.967	2.518	4722760	PROB	2.518	n/a	n/a	-999	18	[7, 2, 7]	16	FR1	2	R1098D
2857.485	3.717	4726788	PROB	3.717	n/a	n/a	-999	18	[5, 9, 1]	15	FR1	2	R1098D
2861.202	2.851	4732735	PROB	2.851	n/a	n/a	-999	18	[2, 8, 7]	17	FR1	2	R1098D
2864.053	2.649	4737296	PROB	2.649	n/a	n/a	-999	18	[9, 1, 8]	18	FR1	2	R1098D
2866.702	3.701	4741534	PROB	3.701	n/a	n/a	-999	18	[8, 8, 5]	21	FR1	2	R1098D
2870.403	0.018	4747455	STOP	n/a	n/a	n/a	-999	18	[-999, -999, -999]	n/a	FR1	2	R1098D
2870.421	1.117	4747484	DISTRACT_END	n/a	n/a	n/a	-999	18	[0, 0, 0]	n/a	FR1	2	R1098D
2871.538	1.643	4749271	REC_START	n/a	n/a	n/a	-999	18	[0, 0, 0]	n/a	FR1	2	R1098D
2873.181	0.878	4751899	REC_WORD	0.878	n/a	BASE	-999	18	[0, 0, 0]	n/a	FR1	2	R1098D
2874.059	6.638	4753304	REC_WORD	6.638	n/a	SPEAR	-999	18	[0, 0, 0]	n/a	FR1	2	R1098D
2880.697	4.32	4763924	REC_WORD	4.32	n/a	TANK	-999	18	[0, 0, 0]	n/a	FR1	2	R1098D
2885.017	16.531	4770835	REC_WORD	16.531	n/a	PEA	-999	18	[0, 0, 0]	n/a	FR1	2	R1098D
2901.548	1.595	4797282	REC_END	n/a	n/a	n/a	-999	18	[0, 0, 0]	n/a	FR1	2	R1098D
2903.143	0.0	4799833	TRIAL	n/a	n/a	n/a	-999	19	[0, 0, 0]	n/a	FR1	2	R1098D
2903.143	10.428	4799833	COUNTDOWN_START	n/a	n/a	n/a	-999	19	[0, 0, 0]	n/a	FR1	2	R1098D
2913.571	0.007	4816516	COUNTDOWN_END	n/a	n/a	n/a	-999	19	[0, 0, 0]	n/a	FR1	2	R1098D
2913.578	2.467	4816528	ORIENT	n/a	n/a	n/a	-999	19	[0, 0, 0]	n/a	FR1	2	R1098D
2916.045	2.451	4820474	WORD	n/a	wordpools/wordpool_EN.txt	JUICE	1	19	[0, 0, 0]	n/a	FR1	2	R1098D
2918.496	2.634	4824396	WORD	n/a	wordpools/wordpool_EN.txt	PEARL	2	19	[0, 0, 0]	n/a	FR1	2	R1098D
2921.13	2.499	4828610	WORD	n/a	wordpools/wordpool_EN.txt	SMILE	3	19	[0, 0, 0]	n/a	FR1	2	R1098D
2923.629	2.502	4832607	WORD	n/a	wordpools/wordpool_EN.txt	RIB	4	19	[0, 0, 0]	n/a	FR1	2	R1098D
2926.131	2.533	4836610	WORD	n/a	wordpools/wordpool_EN.txt	WORM	5	19	[0, 0, 0]	n/a	FR1	2	R1098D
2928.664	2.618	4840663	WORD	n/a	wordpools/wordpool_EN.txt	SNAIL	6	19	[0, 0, 0]	n/a	FR1	2	R1098D
2931.282	2.599	4844851	WORD	n/a	wordpools/wordpool_EN.txt	MOLE	7	19	[0, 0, 0]	n/a	FR1	2	R1098D
2933.881	2.402	4849009	WORD	n/a	wordpools/wordpool_EN.txt	BEE	8	19	[0, 0, 0]	n/a	FR1	2	R1098D
2936.283	2.499	4852852	WORD	n/a	wordpools/wordpool_EN.txt	FLEA	9	19	[0, 0, 0]	n/a	FR1	2	R1098D
2938.782	2.501	4856850	WORD	n/a	wordpools/wordpool_EN.txt	TOAD	10	19	[0, 0, 0]	n/a	FR1	2	R1098D
2941.283	2.533	4860851	WORD	n/a	wordpools/wordpool_EN.txt	TOOTH	11	19	[0, 0, 0]	n/a	FR1	2	R1098D
2943.816	1.602	4864903	WORD	n/a	wordpools/wordpool_EN.txt	ANT	12	19	[0, 0, 0]	n/a	FR1	2	R1098D
2945.418	0.0	4867466	DISTRACT_START	n/a	n/a	n/a	-999	19	[0, 0, 0]	n/a	FR1	2	R1098D
2945.418	0.016	4867466	START	n/a	n/a	n/a	-999	19	[-999, -999, -999]	n/a	FR1	2	R1098D
2945.434	3.667	4867492	PROB	3.667	n/a	n/a	-999	19	[1, 9, 7]	17	FR1	2	R1098D
2949.101	3.567	4873358	PROB	3.567	n/a	n/a	-999	19	[5, 7, 1]	13	FR1	2	R1098D
2952.668	11.553	4879065	PROB	11.553	n/a	n/a	-999	19	[6, 7, 6]	19	FR1	2	R1098D
2964.221	2.62	4897548	PROB	2.62	n/a	n/a	-999	19	[4, 1, 1]	6	FR1	2	R1098D
2966.841	0.013	4901739	STOP	n/a	n/a	n/a	-999	19	[-999, -999, -999]	n/a	FR1	2	R1098D
2966.854	1.202	4901760	DISTRACT_END	n/a	n/a	n/a	-999	19	[0, 0, 0]	n/a	FR1	2	R1098D
2968.056	0.203	4903683	REC_START	n/a	n/a	n/a	-999	19	[0, 0, 0]	n/a	FR1	2	R1098D
2968.259	0.805	4904008	REC_WORD	0.805	n/a	TOAD	-999	19	[0, 0, 0]	n/a	FR1	2	R1098D
2969.064	0.866	4905296	REC_WORD	0.866	n/a	TOOTH	-999	19	[0, 0, 0]	n/a	FR1	2	R1098D
2969.93	28.136	4906681	REC_WORD	28.136	n/a	ANT	-999	19	[0, 0, 0]	n/a	FR1	2	R1098D
2998.066	2.445	4951694	REC_END	n/a	n/a	n/a	-999	19	[0, 0, 0]	n/a	FR1	2	R1098D
3000.511	0.0	4955606	TRIAL	n/a	n/a	n/a	-999	20	[0, 0, 0]	n/a	FR1	2	R1098D
3000.511	10.428	4955606	COUNTDOWN_START	n/a	n/a	n/a	-999	20	[0, 0, 0]	n/a	FR1	2	R1098D
3010.939	0.006	4972289	COUNTDOWN_END	n/a	n/a	n/a	-999	20	[0, 0, 0]	n/a	FR1	2	R1098D
3010.945	2.552	4972298	ORIENT	n/a	n/a	n/a	-999	20	[0, 0, 0]	n/a	FR1	2	R1098D
3013.497	2.482	4976381	WORD	n/a	wordpools/wordpool_EN.txt	WHEEL	1	20	[0, 0, 0]	n/a	FR1	2	R1098D
3015.979	2.368	4980352	WORD	n/a	wordpools/wordpool_EN.txt	PIN	2	20	[0, 0, 0]	n/a	FR1	2	R1098D
3018.347	2.533	4984140	WORD	n/a	wordpools/wordpool_EN.txt	BAND	3	20	[0, 0, 0]	n/a	FR1	2	R1098D
3020.88	2.602	4988192	WORD	n/a	wordpools/wordpool_EN.txt	WAND	4	20	[0, 0, 0]	n/a	FR1	2	R1098D
3023.482	2.534	4992355	WORD	n/a	wordpools/wordpool_EN.txt	SKY	5	20	[0, 0, 0]	n/a	FR1	2	R1098D
3026.016	2.583	4996409	WORD	n/a	wordpools/wordpool_EN.txt	POLE	6	20	[0, 0, 0]	n/a	FR1	2	R1098D
3028.599	2.568	5000542	WORD	n/a	wordpools/wordpool_EN.txt	GLASS	7	20	[0, 0, 0]	n/a	FR1	2	R1098D
3031.167	2.549	5004650	WORD	n/a	wordpools/wordpool_EN.txt	LAWN	8	20	[0, 0, 0]	n/a	FR1	2	R1098D
3033.716	2.568	5008728	WORD	n/a	wordpools/wordpool_EN.txt	HOUSE	9	20	[0, 0, 0]	n/a	FR1	2	R1098D
3036.284	2.433	5012836	WORD	n/a	wordpools/wordpool_EN.txt	LOCK	10	20	[0, 0, 0]	n/a	FR1	2	R1098D
3038.717	2.385	5016729	WORD	n/a	wordpools/wordpool_EN.txt	CART	11	20	[0, 0, 0]	n/a	FR1	2	R1098D
3041.102	1.616	5020544	WORD	n/a	wordpools/wordpool_EN.txt	BED	12	20	[0, 0, 0]	n/a	FR1	2	R1098D
3042.718	0.001	5023129	DISTRACT_START	n/a	n/a	n/a	-999	20	[0, 0, 0]	n/a	FR1	2	R1098D
3042.719	0.015	5023131	START	n/a	n/a	n/a	-999	20	[-999, -999, -999]	n/a	FR1	2	R1098D
3042.734	5.686	5023155	PROB	5.686	n/a	n/a	-999	20	[6, 3, 1]	10	FR1	2	R1098D
3048.42	2.449	5032252	PROB	2.449	n/a	n/a	-999	20	[1, 2, 7]	10	FR1	2	R1098D
3050.869	3.518	5036170	PROB	3.518	n/a	n/a	-999	20	[5, 9, 3]	17	FR1	2	R1098D
3054.387	2.968	5041798	PROB	2.968	n/a	n/a	-999	20	[8, 6, 1]	15	FR1	2	R1098D
3057.355	5.399	5046546	PROB	5.399	n/a	n/a	-999	20	[7, 4, 5]	16	FR1	2	R1098D
3062.754	0.017	5055184	STOP	n/a	n/a	n/a	-999	20	[-999, -999, -999]	n/a	FR1	2	R1098D
3062.771	1.201	5055211	DISTRACT_END	n/a	n/a	n/a	-999	20	[0, 0, 0]	n/a	FR1	2	R1098D
3063.972	0.635	5057132	REC_START	n/a	n/a	n/a	-999	20	[0, 0, 0]	n/a	FR1	2	R1098D
3064.607	1.116	5058148	REC_WORD	1.116	n/a	GLASS	-999	20	[0, 0, 0]	n/a	FR1	2	R1098D
3065.723	0.966	5059934	REC_WORD	0.966	n/a	HOUSE	-999	20	[0, 0, 0]	n/a	FR1	2	R1098D
3066.689	27.298	5061479	REC_WORD	27.298	n/a	LAWN	-999	20	[0, 0, 0]	n/a	FR1	2	R1098D
3093.987	1.84	5105151	REC_END	n/a	n/a	n/a	-999	20	[0, 0, 0]	n/a	FR1	2	R1098D
3095.827	0.001	5108095	COUNTDOWN_START	n/a	n/a	n/a	-999	21	[0, 0, 0]	n/a	FR1	2	R1098D
3095.828	10.427	5108096	TRIAL	n/a	n/a	n/a	-999	21	[0, 0, 0]	n/a	FR1	2	R1098D
3106.255	0.009	5124778	COUNTDOWN_END	n/a	n/a	n/a	-999	21	[0, 0, 0]	n/a	FR1	2	R1098D
3106.264	2.549	5124792	ORIENT	n/a	n/a	n/a	-999	21	[0, 0, 0]	n/a	FR1	2	R1098D
3108.813	2.601	5128870	WORD	n/a	wordpools/wordpool_EN.txt	FOX	1	21	[0, 0, 0]	n/a	FR1	2	R1098D
3111.414	2.467	5133031	WORD	n/a	wordpools/wordpool_EN.txt	FARM	2	21	[0, 0, 0]	n/a	FR1	2	R1098D
3113.881	2.484	5136978	WORD	n/a	wordpools/wordpool_EN.txt	CROW	3	21	[0, 0, 0]	n/a	FR1	2	R1098D
3116.365	2.417	5140952	WORD	n/a	wordpools/wordpool_EN.txt	MUD	4	21	[0, 0, 0]	n/a	FR1	2	R1098D
3118.782	2.468	5144819	WORD	n/a	wordpools/wordpool_EN.txt	BAG	5	21	[0, 0, 0]	n/a	FR1	2	R1098D
3121.25	2.599	5148767	WORD	n/a	wordpools/wordpool_EN.txt	BRANCH	6	21	[0, 0, 0]	n/a	FR1	2	R1098D
3123.849	2.518	5152925	WORD	n/a	wordpools/wordpool_EN.txt	ELF	7	21	[0, 0, 0]	n/a	FR1	2	R1098D
3126.367	2.533	5156954	WORD	n/a	wordpools/wordpool_EN.txt	TOE	8	21	[0, 0, 0]	n/a	FR1	2	R1098D
3128.9	2.602	5161006	WORD	n/a	wordpools/wordpool_EN.txt	WEB	9	21	[0, 0, 0]	n/a	FR1	2	R1098D
3131.502	2.533	5165169	WORD	n/a	wordpools/wordpool_EN.txt	COW	10	21	[0, 0, 0]	n/a	FR1	2	R1098D
3134.035	2.451	5169221	WORD	n/a	wordpools/wordpool_EN.txt	CANE	11	21	[0, 0, 0]	n/a	FR1	2	R1098D
3136.486	1.617	5173142	WORD	n/a	wordpools/wordpool_EN.txt	VINE	12	21	[0, 0, 0]	n/a	FR1	2	R1098D
3138.103	0.001	5175729	DISTRACT_START	n/a	n/a	n/a	-999	21	[0, 0, 0]	n/a	FR1	2	R1098D
3138.104	0.015	5175731	START	n/a	n/a	n/a	-999	21	[-999, -999, -999]	n/a	FR1	2	R1098D
3138.119	4.784	5175755	PROB	4.784	n/a	n/a	-999	21	[1, 2, 8]	11	FR1	2	R1098D
3142.903	4.635	5183408	PROB	4.635	n/a	n/a	-999	21	[4, 8, 9]	21	FR1	2	R1098D
3147.538	5.668	5190824	PROB	5.668	n/a	n/a	-999	21	[4, 2, 7]	13	FR1	2	R1098D
3153.206	3.934	5199891	PROB	3.934	n/a	n/a	-999	21	[6, 3, 6]	15	FR1	2	R1098D
3157.14	4.71	5206185	PROB	4.71	n/a	n/a	-999	21	[7, 1, 3]	10	FR1	2	R1098D
3161.85	0.006	5213720	STOP	n/a	n/a	n/a	-999	21	[-999, -999, -999]	n/a	FR1	2	R1098D
3161.856	1.118	5213730	DISTRACT_END	n/a	n/a	n/a	-999	21	[0, 0, 0]	n/a	FR1	2	R1098D
3162.974	1.591	5215519	REC_START	n/a	n/a	n/a	-999	21	[0, 0, 0]	n/a	FR1	2	R1098D
3164.565	1.108	5218064	REC_WORD	1.108	n/a	BENCH	-999	21	[0, 0, 0]	n/a	FR1	2	R1098D
3165.673	1.17	5219836	REC_WORD	1.17	n/a	TOE	-999	21	[0, 0, 0]	n/a	FR1	2	R1098D
3166.843	26.142	5221708	REC_WORD	26.142	n/a	ELF	-999	21	[0, 0, 0]	n/a	FR1	2	R1098D
3192.985	1.611	5263531	REC_END	n/a	n/a	n/a	-999	21	[0, 0, 0]	n/a	FR1	2	R1098D
3194.596	0.001	5266108	COUNTDOWN_START	n/a	n/a	n/a	-999	22	[0, 0, 0]	n/a	FR1	2	R1098D
3194.597	10.427	5266110	TRIAL	n/a	n/a	n/a	-999	22	[0, 0, 0]	n/a	FR1	2	R1098D
3205.024	0.008	5282791	COUNTDOWN_END	n/a	n/a	n/a	-999	22	[0, 0, 0]	n/a	FR1	2	R1098D
3205.032	2.483	5282804	ORIENT	n/a	n/a	n/a	-999	22	[0, 0, 0]	n/a	FR1	2	R1098D
3207.515	2.484	5286776	WORD	n/a	wordpools/wordpool_EN.txt	LAND	1	22	[0, 0, 0]	n/a	FR1	2	R1098D
3209.999	2.484	5290750	WORD	n/a	wordpools/wordpool_EN.txt	MAP	2	22	[0, 0, 0]	n/a	FR1	2	R1098D
3212.483	2.567	5294724	WORD	n/a	wordpools/wordpool_EN.txt	SPARK	3	22	[0, 0, 0]	n/a	FR1	2	R1098D
3215.05	2.451	5298831	WORD	n/a	wordpools/wordpool_EN.txt	WORLD	4	22	[0, 0, 0]	n/a	FR1	2	R1098D
3217.501	2.5	5302752	WORD	n/a	wordpools/wordpool_EN.txt	MOTH	5	22	[0, 0, 0]	n/a	FR1	2	R1098D
3220.001	2.517	5306752	WORD	n/a	wordpools/wordpool_EN.txt	SHEEP	6	22	[0, 0, 0]	n/a	FR1	2	R1098D
3222.518	2.4	5310779	WORD	n/a	wordpools/wordpool_EN.txt	CHIEF	7	22	[0, 0, 0]	n/a	FR1	2	R1098D
3224.918	2.501	5314618	WORD	n/a	wordpools/wordpool_EN.txt	POND	8	22	[0, 0, 0]	n/a	FR1	2	R1098D
3227.419	2.55	5318619	WORD	n/a	wordpools/wordpool_EN.txt	STEM	9	22	[0, 0, 0]	n/a	FR1	2	R1098D
3229.969	2.434	5322699	WORD	n/a	wordpools/wordpool_EN.txt	CORN	10	22	[0, 0, 0]	n/a	FR1	2	R1098D
3232.403	2.566	5326593	WORD	n/a	wordpools/wordpool_EN.txt	THREAD	11	22	[0, 0, 0]	n/a	FR1	2	R1098D
3234.969	1.602	5330698	WORD	n/a	wordpools/wordpool_EN.txt	SEED	12	22	[0, 0, 0]	n/a	FR1	2	R1098D
3236.571	0.001	5333261	DISTRACT_START	n/a	n/a	n/a	-999	22	[0, 0, 0]	n/a	FR1	2	R1098D
3236.572	0.015	5333263	START	n/a	n/a	n/a	-999	22	[-999, -999, -999]	n/a	FR1	2	R1098D
3236.587	5.117	5333287	PROB	5.117	n/a	n/a	-999	22	[8, 5, 9]	22	FR1	2	R1098D
3241.704	5.602	5341473	PROB	5.602	n/a	n/a	-999	22	[4, 8, 4]	16	FR1	2	R1098D
3247.306	1.867	5350435	PROB	1.867	n/a	n/a	-999	22	[5, 5, 1]	11	FR1	2	R1098D
3249.173	2.483	5353422	PROB	2.483	n/a	n/a	-999	22	[1, 1, 5]	7	FR1	2	R1098D
3251.656	2.418	5357395	PROB	2.418	n/a	n/a	-999	22	[5, 5, 9]	19	FR1	2	R1098D
3254.074	2.512	5361263	PROB	2.512	n/a	n/a	-999	22	[1, 2, 1]	4	FR1	2	R1098D
3256.586	0.005	5365282	STOP	n/a	n/a	n/a	-999	22	[-999, -999, -999]	n/a	FR1	2	R1098D
3256.591	1.117	5365290	DISTRACT_END	n/a	n/a	n/a	-999	22	[0, 0, 0]	n/a	FR1	2	R1098D
3257.708	0.397	5367077	REC_START	n/a	n/a	n/a	-999	22	[0, 0, 0]	n/a	FR1	2	R1098D
3258.105	1.083	5367712	REC_WORD	1.083	n/a	LAND	-999	22	[0, 0, 0]	n/a	FR1	2	R1098D
3259.188	0.856	5369444	REC_WORD	0.856	n/a	MAP	-999	22	[0, 0, 0]	n/a	FR1	2	R1098D
3260.044	27.674	5370814	REC_WORD	27.674	n/a	SPARK	-999	22	[0, 0, 0]	n/a	FR1	2	R1098D
3287.718	1.813	5415088	REC_END	n/a	n/a	n/a	-999	22	[0, 0, 0]	n/a	FR1	2	R1098D
3289.531	0.0	5417988	TRIAL	n/a	n/a	n/a	-999	23	[0, 0, 0]	n/a	FR1	2	R1098D
3289.531	10.428	5417988	COUNTDOWN_START	n/a	n/a	n/a	-999	23	[0, 0, 0]	n/a	FR1	2	R1098D
3299.959	0.006	5434671	COUNTDOWN_END	n/a	n/a	n/a	-999	23	[0, 0, 0]	n/a	FR1	2	R1098D
3299.965	2.385	5434681	ORIENT	n/a	n/a	n/a	-999	23	[0, 0, 0]	n/a	FR1	2	R1098D
3302.35	2.616	5438496	WORD	n/a	wordpools/wordpool_EN.txt	SAIL	1	23	[0, 0, 0]	n/a	FR1	2	R1098D
3304.966	2.434	5442681	WORD	n/a	wordpools/wordpool_EN.txt	STAR	2	23	[0, 0, 0]	n/a	FR1	2	R1098D
3307.4	2.433	5446575	WORD	n/a	wordpools/wordpool_EN.txt	FILM	3	23	[0, 0, 0]	n/a	FR1	2	R1098D
3309.833	2.552	5450468	WORD	n/a	wordpools/wordpool_EN.txt	PRINCE	4	23	[0, 0, 0]	n/a	FR1	2	R1098D
3312.385	2.566	5454551	WORD	n/a	wordpools/wordpool_EN.txt	JUDGE	5	23	[0, 0, 0]	n/a	FR1	2	R1098D
3314.951	2.468	5458656	WORD	n/a	wordpools/wordpool_EN.txt	BALL	6	23	[0, 0, 0]	n/a	FR1	2	R1098D
3317.419	2.516	5462604	WORD	n/a	wordpools/wordpool_EN.txt	BIRD	7	23	[0, 0, 0]	n/a	FR1	2	R1098D
3319.935	2.585	5466629	WORD	n/a	wordpools/wordpool_EN.txt	NET	8	23	[0, 0, 0]	n/a	FR1	2	R1098D
3322.52	2.55	5470765	WORD	n/a	wordpools/wordpool_EN.txt	CLOUD	9	23	[0, 0, 0]	n/a	FR1	2	R1098D
3325.07	2.501	5474844	WORD	n/a	wordpools/wordpool_EN.txt	INK	10	23	[0, 0, 0]	n/a	FR1	2	R1098D
3327.571	2.567	5478846	WORD	n/a	wordpools/wordpool_EN.txt	HEART	11	23	[0, 0, 0]	n/a	FR1	2	R1098D
3330.138	1.616	5482952	WORD	n/a	wordpools/wordpool_EN.txt	FLUTE	12	23	[0, 0, 0]	n/a	FR1	2	R1098D
3331.754	0.001	5485538	DISTRACT_START	n/a	n/a	n/a	-999	23	[0, 0, 0]	n/a	FR1	2	R1098D
3331.755	0.016	5485539	START	n/a	n/a	n/a	-999	23	[-999, -999, -999]	n/a	FR1	2	R1098D
3331.771	4.335	5485565	PROB	4.335	n/a	n/a	-999	23	[4, 9, 9]	22	FR1	2	R1098D
3336.106	4.367	5492500	PROB	4.367	n/a	n/a	-999	23	[4, 7, 7]	18	FR1	2	R1098D
3340.473	4.018	5499487	PROB	4.018	n/a	n/a	-999	23	[4, 8, 8]	20	FR1	2	R1098D
3344.491	3.349	5505915	PROB	3.349	n/a	n/a	-999	23	[6, 4, 8]	18	FR1	2	R1098D
3347.84	4.315	5511272	PROB	4.315	n/a	n/a	-999	23	[7, 5, 1]	13	FR1	2	R1098D
3352.155	0.003	5518176	STOP	n/a	n/a	n/a	-999	23	[-999, -999, -999]	n/a	FR1	2	R1098D
3352.158	1.118	5518181	DISTRACT_END	n/a	n/a	n/a	-999	23	[0, 0, 0]	n/a	FR1	2	R1098D
3353.276	0.945	5519969	REC_START	n/a	n/a	n/a	-999	23	[0, 0, 0]	n/a	FR1	2	R1098D
3354.221	1.145	5521481	REC_WORD	1.145	n/a	BIRD	-999	23	[0, 0, 0]	n/a	FR1	2	R1098D
3355.366	1.013	5523313	REC_WORD	1.013	n/a	BALL	-999	23	[0, 0, 0]	n/a	FR1	2	R1098D
3356.379	26.907	5524933	REC_WORD	26.907	n/a	NET	-999	23	[0, 0, 0]	n/a	FR1	2	R1098D
3383.286	11.014	5567980	REC_END	n/a	n/a	n/a	-999	23	[0, 0, 0]	n/a	FR1	2	R1098D
3394.3	0.0	5585601	COUNTDOWN_START	n/a	n/a	n/a	-999	24	[0, 0, 0]	n/a	FR1	2	R1098D
3394.3	10.428	5585601	TRIAL	n/a	n/a	n/a	-999	24	[0, 0, 0]	n/a	FR1	2	R1098D
3404.728	0.006	5602284	COUNTDOWN_END	n/a	n/a	n/a	-999	24	[0, 0, 0]	n/a	FR1	2	R1098D
3404.734	2.618	5602293	ORIENT	n/a	n/a	n/a	-999	24	[0, 0, 0]	n/a	FR1	2	R1098D
3407.352	2.449	5606481	WORD	n/a	wordpools/wordpool_EN.txt	STEAM	1	24	[0, 0, 0]	n/a	FR1	2	R1098D
3409.801	2.552	5610399	WORD	n/a	wordpools/wordpool_EN.txt	POOL	2	24	[0, 0, 0]	n/a	FR1	2	R1098D
3412.353	2.516	5614482	WORD	n/a	wordpools/wordpool_EN.txt	BATH	3	24	[0, 0, 0]	n/a	FR1	2	R1098D
3414.869	2.585	5618507	WORD	n/a	wordpools/wordpool_EN.txt	DOOR	4	24	[0, 0, 0]	n/a	FR1	2	R1098D
3417.454	2.483	5622643	WORD	n/a	wordpools/wordpool_EN.txt	BUSH	5	24	[0, 0, 0]	n/a	FR1	2	R1098D
3419.937	2.468	5626615	WORD	n/a	wordpools/wordpool_EN.txt	ROOF	6	24	[0, 0, 0]	n/a	FR1	2	R1098D
3422.405	2.634	5630564	WORD	n/a	wordpools/wordpool_EN.txt	FENCE	7	24	[0, 0, 0]	n/a	FR1	2	R1098D
3425.039	2.433	5634778	WORD	n/a	wordpools/wordpool_EN.txt	ROPE	8	24	[0, 0, 0]	n/a	FR1	2	R1098D
3427.472	2.534	5638670	WORD	n/a	wordpools/wordpool_EN.txt	SALT	9	24	[0, 0, 0]	n/a	FR1	2	R1098D
3430.006	2.401	5642724	WORD	n/a	wordpools/wordpool_EN.txt	SPOON	10	24	[0, 0, 0]	n/a	FR1	2	R1098D
3432.407	2.466	5646565	WORD	n/a	wordpools/wordpool_EN.txt	PIPE	11	24	[0, 0, 0]	n/a	FR1	2	R1098D
3434.873	1.618	5650510	WORD	n/a	wordpools/wordpool_EN.txt	FROG	12	24	[0, 0, 0]	n/a	FR1	2	R1098D
3436.491	0.001	5653099	DISTRACT_START	n/a	n/a	n/a	-999	24	[0, 0, 0]	n/a	FR1	2	R1098D
3436.492	0.015	5653100	START	n/a	n/a	n/a	-999	24	[-999, -999, -999]	n/a	FR1	2	R1098D
3436.507	3.684	5653124	PROB	3.684	n/a	n/a	-999	24	[1, 9, 9]	19	FR1	2	R1098D
3440.191	4.75	5659018	PROB	4.75	n/a	n/a	-999	24	[2, 4, 9]	15	FR1	2	R1098D
3444.941	3.302	5666617	PROB	3.302	n/a	n/a	-999	24	[1, 2, 8]	11	FR1	2	R1098D
3448.243	4.733	5671900	PROB	4.733	n/a	n/a	-999	24	[9, 2, 6]	17	FR1	2	R1098D
3452.976	12.001	5679472	PROB	12.001	n/a	n/a	-999	24	[4, 7, 5]	18	FR1	2	R1098D
3464.977	0.019	5698672	STOP	n/a	n/a	n/a	-999	24	[-999, -999, -999]	n/a	FR1	2	R1098D
3464.996	1.201	5698702	DISTRACT_END	n/a	n/a	n/a	-999	24	[0, 0, 0]	n/a	FR1	2	R1098D
3466.197	1.633	5700623	REC_START	n/a	n/a	n/a	-999	24	[0, 0, 0]	n/a	FR1	2	R1098D
3467.83	0.814	5703236	REC_WORD	0.814	n/a	BATH	-999	24	[0, 0, 0]	n/a	FR1	2	R1098D
3468.644	0.973	5704538	REC_WORD	0.973	n/a	BALL	-999	24	[0, 0, 0]	n/a	FR1	2	R1098D
3469.617	2.043	5706095	REC_WORD	2.043	n/a	DOOR	-999	24	[0, 0, 0]	n/a	FR1	2	R1098D
3471.66	24.548	5709363	REC_WORD	24.548	n/a	NET	-999	24	[0, 0, 0]	n/a	FR1	2	R1098D
3496.208	2.344	5748636	REC_END	n/a	n/a	n/a	-999	24	[0, 0, 0]	n/a	FR1	2	R1098D
3498.552	0.0	5752386	TRIAL	n/a	n/a	n/a	-999	25	[0, 0, 0]	n/a	FR1	2	R1098D
3498.552	10.428	5752386	COUNTDOWN_START	n/a	n/a	n/a	-999	25	[0, 0, 0]	n/a	FR1	2	R1098D
3508.98	0.007	5769069	COUNTDOWN_END	n/a	n/a	n/a	-999	25	[0, 0, 0]	n/a	FR1	2	R1098D
3508.987	2.517	5769080	ORIENT	n/a	n/a	n/a	-999	25	[0, 0, 0]	n/a	FR1	2	R1098D
3511.504	2.484	5773107	WORD	n/a	wordpools/wordpool_EN.txt	WOOD	1	25	[0, 0, 0]	n/a	FR1	2	R1098D
3513.988	2.517	5777081	WORD	n/a	wordpools/wordpool_EN.txt	STOVE	2	25	[0, 0, 0]	n/a	FR1	2	R1098D
3516.505	2.601	5781108	WORD	n/a	wordpools/wordpool_EN.txt	BOX	3	25	[0, 0, 0]	n/a	FR1	2	R1098D
3519.106	2.583	5785269	WORD	n/a	wordpools/wordpool_EN.txt	HAT	4	25	[0, 0, 0]	n/a	FR1	2	R1098D
3521.689	2.618	5789401	WORD	n/a	wordpools/wordpool_EN.txt	DIME	5	25	[0, 0, 0]	n/a	FR1	2	R1098D
3524.307	2.416	5793589	WORD	n/a	wordpools/wordpool_EN.txt	BARN	6	25	[0, 0, 0]	n/a	FR1	2	R1098D
3526.723	2.518	5797455	WORD	n/a	wordpools/wordpool_EN.txt	BOOT	7	25	[0, 0, 0]	n/a	FR1	2	R1098D
3529.241	2.533	5801483	WORD	n/a	wordpools/wordpool_EN.txt	MUG	8	25	[0, 0, 0]	n/a	FR1	2	R1098D
3531.774	2.451	5805535	WORD	n/a	wordpools/wordpool_EN.txt	THUMB	9	25	[0, 0, 0]	n/a	FR1	2	R1098D
3534.225	2.533	5809457	WORD	n/a	wordpools/wordpool_EN.txt	SHIRT	10	25	[0, 0, 0]	n/a	FR1	2	R1098D
3536.758	2.485	5813509	WORD	n/a	wordpools/wordpool_EN.txt	SQUARE	11	25	[0, 0, 0]	n/a	FR1	2	R1098D
3539.243	1.616	5817484	WORD	n/a	wordpools/wordpool_EN.txt	SLIME	12	25	[0, 0, 0]	n/a	FR1	2	R1098D
3540.859	0.001	5820070	DISTRACT_START	n/a	n/a	n/a	-999	25	[0, 0, 0]	n/a	FR1	2	R1098D
3540.86	0.016	5820071	START	n/a	n/a	n/a	-999	25	[-999, -999, -999]	n/a	FR1	2	R1098D
3540.876	5.335	5820097	PROB	5.335	n/a	n/a	-999	25	[1, 8, 6]	15	FR1	2	R1098D
3546.211	2.666	5828632	PROB	2.666	n/a	n/a	-999	25	[7, 1, 7]	15	FR1	2	R1098D
3548.877	3.285	5832897	PROB	3.285	n/a	n/a	-999	25	[7, 9, 3]	19	FR1	2	R1098D
3552.162	22.712	5838153	PROB	22.712	n/a	n/a	-999	25	[7, 7, 9]	21	FR1	2	R1098D
3574.874	0.008	5874488	STOP	n/a	n/a	n/a	-999	25	[-999, -999, -999]	n/a	FR1	2	R1098D
3574.882	1.218	5874501	DISTRACT_END	n/a	n/a	n/a	-999	25	[0, 0, 0]	n/a	FR1	2	R1098D
3576.1	3.074	5876449	REC_START	n/a	n/a	n/a	-999	25	[0, 0, 0]	n/a	FR1	2	R1098D
3579.174	1.743	5881367	REC_WORD	1.743	n/a	BOX	-999	25	[0, 0, 0]	n/a	FR1	2	R1098D
3580.917	1.1	5884156	REC_WORD	1.1	n/a	WOOD	-999	25	[0, 0, 0]	n/a	FR1	2	R1098D
3582.017	24.097	5885916	REC_WORD	24.097	n/a	STOVE	-999	25	[0, 0, 0]	n/a	FR1	2	R1098D
3606.114	8.31	5924467	REC_END	n/a	n/a	n/a	-999	25	[0, 0, 0]	n/a	FR1	2	R1098D
3614.424	0.0	5937761	SESS_END	n/a	n/a	n/a	-999	25	[0, 0, 0]	n/a	FR1	2	R1098D
