onset	duration	sample	trial_type	response_time	stim_file	item_name	serialpos	list	test	answer	experiment	session	subject
0.0	152.957	246	INSTRUCT_START	n/a	n/a	n/a	-999	-999	[0, 0, 0]	n/a	FR1	3	R1292E
152.957	5.651	153198	INSTRUCT_END	n/a	n/a	n/a	-999	-999	[0, 0, 0]	n/a	FR1	3	R1292E
158.608	18.741	158849	MIC TEST_START	n/a	n/a	n/a	-999	-999	[0, 0, 0]	n/a	FR1	3	R1292E
177.349	0.019	177589	MIC TEST_END	n/a	n/a	n/a	-999	-999	[0, 0, 0]	n/a	FR1	3	R1292E
177.368	0.0	177608	TRIAL_START	n/a	n/a	n/a	-999	-1	[0, 0, 0]	n/a	FR1	3	R1292E
177.368	0.0	177608	TRIAL	n/a	n/a	n/a	-999	-1	[0, 0, 0]	n/a	FR1	3	R1292E
177.368	2.86	177608	WAITING_START	n/a	n/a	n/a	-999	-1	[0, 0, 0]	n/a	FR1	3	R1292E
180.228	0.001	180468	WAITING_END	n/a	n/a	n/a	-999	-1	[0, 0, 0]	n/a	FR1	3	R1292E
180.229	10.428	180469	COUNTDOWN_START	n/a	n/a	n/a	-999	-1	[0, 0, 0]	n/a	FR1	3	R1292E
190.657	0.001	190897	COUNTDOWN_END	n/a	n/a	n/a	-999	-1	[0, 0, 0]	n/a	FR1	3	R1292E
190.658	1.056	190898	ORIENT_START	n/a	n/a	n/a	-999	-1	[0, 0, 0]	n/a	FR1	3	R1292E
191.714	0.0	191954	ORIENT_END	n/a	n/a	n/a	-999	-1	[0, 0, 0]	n/a	FR1	3	R1292E
191.714	0.905	191954	ENCODING_START	n/a	n/a	n/a	-999	-1	[0, 0, 0]	n/a	FR1	3	R1292E
192.619	1.628	192859	WORD	n/a	n/a	ATTIC	1	-1	[0, 0, 0]	n/a	FR1	3	R1292E
194.247	0.93	194487	WORD_OFF	n/a	n/a	ATTIC	1	-1	[0, 0, 0]	n/a	FR1	3	R1292E
195.177	1.638	195417	WORD	n/a	n/a	BEAM	2	-1	[0, 0, 0]	n/a	FR1	3	R1292E
196.815	0.806	197055	WORD_OFF	n/a	n/a	BEAM	2	-1	[0, 0, 0]	n/a	FR1	3	R1292E
197.621	1.627	197860	WORD	n/a	n/a	CAMEL	3	-1	[0, 0, 0]	n/a	FR1	3	R1292E
199.248	0.818	199487	WORD_OFF	n/a	n/a	CAMEL	3	-1	[0, 0, 0]	n/a	FR1	3	R1292E
200.066	1.633	200305	WORD	n/a	n/a	CHEST	4	-1	[0, 0, 0]	n/a	FR1	3	R1292E
201.699	0.995	201938	WORD_OFF	n/a	n/a	CHEST	4	-1	[0, 0, 0]	n/a	FR1	3	R1292E
202.694	1.622	202933	WORD	n/a	n/a	COTTON	5	-1	[0, 0, 0]	n/a	FR1	3	R1292E
204.316	0.752	204555	WORD_OFF	n/a	n/a	COTTON	5	-1	[0, 0, 0]	n/a	FR1	3	R1292E
205.068	1.632	205307	WORD	n/a	n/a	FLOOD	6	-1	[0, 0, 0]	n/a	FR1	3	R1292E
206.7	0.879	206939	WORD_OFF	n/a	n/a	FLOOD	6	-1	[0, 0, 0]	n/a	FR1	3	R1292E
207.579	1.621	207818	WORD	n/a	n/a	IRON	7	-1	[0, 0, 0]	n/a	FR1	3	R1292E
209.2	0.906	209439	WORD_OFF	n/a	n/a	IRON	7	-1	[0, 0, 0]	n/a	FR1	3	R1292E
210.106	1.628	210345	WORD	n/a	n/a	RHINO	8	-1	[0, 0, 0]	n/a	FR1	3	R1292E
211.734	0.771	211973	WORD_OFF	n/a	n/a	RHINO	8	-1	[0, 0, 0]	n/a	FR1	3	R1292E
212.505	1.629	212744	WORD	n/a	n/a	RING	9	-1	[0, 0, 0]	n/a	FR1	3	R1292E
214.134	0.853	214373	WORD_OFF	n/a	n/a	RING	9	-1	[0, 0, 0]	n/a	FR1	3	R1292E
214.987	1.631	215226	WORD	n/a	n/a	TONGUE	10	-1	[0, 0, 0]	n/a	FR1	3	R1292E
216.618	0.88	216857	WORD_OFF	n/a	n/a	TONGUE	10	-1	[0, 0, 0]	n/a	FR1	3	R1292E
217.498	1.62	217737	WORD	n/a	n/a	WAGON	11	-1	[0, 0, 0]	n/a	FR1	3	R1292E
219.118	1.116	219357	WORD_OFF	n/a	n/a	WAGON	11	-1	[0, 0, 0]	n/a	FR1	3	R1292E
220.234	1.635	220473	WORD	n/a	n/a	WATCH	12	-1	[0, 0, 0]	n/a	FR1	3	R1292E
221.869	0.0	222108	DISTRACT_START	n/a	n/a	n/a	-999	-1	[0, 0, 0]	n/a	FR1	3	R1292E
221.869	0.0	222108	WORD_OFF	n/a	n/a	WATCH	12	-1	[0, 0, 0]	n/a	FR1	3	R1292E
221.869	0.001	222108	ENCODING_END	n/a	n/a	n/a	-999	-1	[0, 0, 0]	n/a	FR1	3	R1292E
221.87	0.015	222109	START	n/a	n/a	n/a	-999	-1	[-999, -999, -999]	n/a	FR1	3	R1292E
221.885	7.502	222124	PROB	7.502	n/a	n/a	-999	-1	[7, 9, 3]	19	FR1	3	R1292E
229.387	16.785	229625	PROB	16.785	n/a	n/a	-999	-1	[9, 6, 8]	20	FR1	3	R1292E
246.172	0.018	246410	STOP	n/a	n/a	n/a	-999	-1	[-999, -999, -999]	n/a	FR1	3	R1292E
246.19	0.695	246428	DISTRACT_END	n/a	n/a	n/a	-999	-1	[0, 0, 0]	n/a	FR1	3	R1292E
246.885	1.54	247123	RETRIEVAL_ORIENT_START	n/a	n/a	n/a	-999	-1	[0, 0, 0]	n/a	FR1	3	R1292E
248.425	0.0	248663	RETRIEVAL_ORIENT_END	n/a	n/a	n/a	-999	-1	[0, 0, 0]	n/a	FR1	3	R1292E
248.425	1.963	248663	REC_START	n/a	n/a	n/a	-999	-1	[0, 0, 0]	n/a	FR1	3	R1292E
250.388	1.743	250626	REC_WORD	1.743	n/a	TONGUE	-999	-1	[0, 0, 0]	n/a	FR1	3	R1292E
252.131	2.162	252369	REC_WORD	2.162	n/a	WING	-999	-1	[0, 0, 0]	n/a	FR1	3	R1292E
254.293	1.99	254530	REC_WORD	1.99	n/a	ATTIC	-999	-1	[0, 0, 0]	n/a	FR1	3	R1292E
256.283	2.035	256520	REC_WORD	2.035	n/a	BEAM	-999	-1	[0, 0, 0]	n/a	FR1	3	R1292E
258.318	1.651	258555	REC_WORD	1.651	n/a	IRON	-999	-1	[0, 0, 0]	n/a	FR1	3	R1292E
259.969	5.978	260206	REC_WORD	5.978	n/a	RHINO	-999	-1	[0, 0, 0]	n/a	FR1	3	R1292E
265.947	12.489	266184	REC_WORD	12.489	n/a	COTTON	-999	-1	[0, 0, 0]	n/a	FR1	3	R1292E
278.436	0.001	278673	REC_END	n/a	n/a	n/a	-999	-1	[0, 0, 0]	n/a	FR1	3	R1292E
278.437	169.006	278674	PRACTICE_POST_INSTRUCT_START	n/a	n/a	n/a	-999	-1	[0, 0, 0]	n/a	FR1	3	R1292E
447.443	0.0	447674	PRACTICE_POST_INSTRUCT_END	n/a	n/a	n/a	-999	-1	[0, 0, 0]	n/a	FR1	3	R1292E
447.443	0.02	447674	TRIAL_END	n/a	n/a	n/a	-999	-1	[0, 0, 0]	n/a	FR1	3	R1292E
447.463	0.0	447694	TRIAL	n/a	n/a	n/a	-999	1	[0, 0, 0]	n/a	FR1	3	R1292E
447.463	0.001	447694	TRIAL_START	n/a	n/a	n/a	-999	1	[0, 0, 0]	n/a	FR1	3	R1292E
447.464	8.362	447695	WAITING_START	n/a	n/a	n/a	-999	1	[0, 0, 0]	n/a	FR1	3	R1292E
455.826	0.001	456056	WAITING_END	n/a	n/a	n/a	-999	1	[0, 0, 0]	n/a	FR1	3	R1292E
455.827	10.43	456057	COUNTDOWN_START	n/a	n/a	n/a	-999	1	[0, 0, 0]	n/a	FR1	3	R1292E
466.257	0.001	466487	COUNTDOWN_END	n/a	n/a	n/a	-999	1	[0, 0, 0]	n/a	FR1	3	R1292E
466.258	1.054	466488	ORIENT_START	n/a	n/a	n/a	-999	1	[0, 0, 0]	n/a	FR1	3	R1292E
467.312	0.0	467542	ORIENT_END	n/a	n/a	n/a	-999	1	[0, 0, 0]	n/a	FR1	3	R1292E
467.312	0.771	467542	ENCODING_START	n/a	n/a	n/a	-999	1	[0, 0, 0]	n/a	FR1	3	R1292E
468.083	1.629	468313	WORD	n/a	n/a	HAND	1	1	[0, 0, 0]	n/a	FR1	3	R1292E
469.712	0.95	469942	WORD_OFF	n/a	n/a	HAND	1	1	[0, 0, 0]	n/a	FR1	3	R1292E
470.662	1.634	470892	WORD	n/a	n/a	FAN	2	1	[0, 0, 0]	n/a	FR1	3	R1292E
472.296	0.819	472526	WORD_OFF	n/a	n/a	FAN	2	1	[0, 0, 0]	n/a	FR1	3	R1292E
473.115	1.631	473345	WORD	n/a	n/a	CAGE	3	1	[0, 0, 0]	n/a	FR1	3	R1292E
474.746	1.079	474976	WORD_OFF	n/a	n/a	CAGE	3	1	[0, 0, 0]	n/a	FR1	3	R1292E
475.825	1.623	476055	WORD	n/a	n/a	SWAMP	4	1	[0, 0, 0]	n/a	FR1	3	R1292E
477.448	1.071	477678	WORD_OFF	n/a	n/a	SWAMP	4	1	[0, 0, 0]	n/a	FR1	3	R1292E
478.519	1.628	478749	WORD	n/a	n/a	SHEEP	5	1	[0, 0, 0]	n/a	FR1	3	R1292E
480.147	0.859	480377	WORD_OFF	n/a	n/a	SHEEP	5	1	[0, 0, 0]	n/a	FR1	3	R1292E
481.006	1.625	481236	WORD	n/a	n/a	PIG	6	1	[0, 0, 0]	n/a	FR1	3	R1292E
482.631	0.907	482860	WORD_OFF	n/a	n/a	PIG	6	1	[0, 0, 0]	n/a	FR1	3	R1292E
483.538	1.627	483767	WORD	n/a	n/a	LEG	7	1	[0, 0, 0]	n/a	FR1	3	R1292E
485.165	1.035	485394	WORD_OFF	n/a	n/a	LEG	7	1	[0, 0, 0]	n/a	FR1	3	R1292E
486.2	1.632	486429	WORD	n/a	n/a	HOSE	8	1	[0, 0, 0]	n/a	FR1	3	R1292E
487.832	1.122	488061	WORD_OFF	n/a	n/a	HOSE	8	1	[0, 0, 0]	n/a	FR1	3	R1292E
488.954	1.612	489183	WORD	n/a	n/a	NEST	9	1	[0, 0, 0]	n/a	FR1	3	R1292E
490.566	1.066	490795	WORD_OFF	n/a	n/a	NEST	9	1	[0, 0, 0]	n/a	FR1	3	R1292E
491.632	1.634	491861	WORD	n/a	n/a	JET	10	1	[0, 0, 0]	n/a	FR1	3	R1292E
493.266	1.085	493495	WORD_OFF	n/a	n/a	JET	10	1	[0, 0, 0]	n/a	FR1	3	R1292E
494.351	1.632	494580	WORD	n/a	n/a	SHIELD	11	1	[0, 0, 0]	n/a	FR1	3	R1292E
495.983	0.982	496212	WORD_OFF	n/a	n/a	SHIELD	11	1	[0, 0, 0]	n/a	FR1	3	R1292E
496.965	1.635	497194	WORD	n/a	n/a	FACE	12	1	[0, 0, 0]	n/a	FR1	3	R1292E
498.6	0.001	498829	WORD_OFF	n/a	n/a	FACE	12	1	[0, 0, 0]	n/a	FR1	3	R1292E
498.601	0.0	498830	ENCODING_END	n/a	n/a	n/a	-999	1	[0, 0, 0]	n/a	FR1	3	R1292E
498.601	0.0	498830	DISTRACT_START	n/a	n/a	n/a	-999	1	[0, 0, 0]	n/a	FR1	3	R1292E
498.601	0.016	498830	START	n/a	n/a	n/a	-999	1	[-999, -999, -999]	n/a	FR1	3	R1292E
498.617	8.768	498846	PROB	8.768	n/a	n/a	-999	1	[5, 4, 2]	11	FR1	3	R1292E
507.385	3.967	507614	PROB	3.967	n/a	n/a	-999	1	[4, 9, 9]	22	FR1	3	R1292E
511.352	6.918	511580	PROB	6.918	n/a	n/a	-999	1	[1, 7, 8]	16	FR1	3	R1292E
518.27	4.397	518498	PROB	4.397	n/a	n/a	-999	1	[3, 4, 7]	14	FR1	3	R1292E
522.667	0.021	522895	STOP	n/a	n/a	n/a	-999	1	[-999, -999, -999]	n/a	FR1	3	R1292E
522.688	0.566	522916	DISTRACT_END	n/a	n/a	n/a	-999	1	[0, 0, 0]	n/a	FR1	3	R1292E
523.254	1.651	523482	RETRIEVAL_ORIENT_START	n/a	n/a	n/a	-999	1	[0, 0, 0]	n/a	FR1	3	R1292E
524.905	0.0	525133	RETRIEVAL_ORIENT_END	n/a	n/a	n/a	-999	1	[0, 0, 0]	n/a	FR1	3	R1292E
524.905	0.824	525133	REC_START	n/a	n/a	n/a	-999	1	[0, 0, 0]	n/a	FR1	3	R1292E
525.729	1.623	525957	REC_WORD	1.623	n/a	HAND	1	1	[0, 0, 0]	n/a	FR1	3	R1292E
527.352	1.87	527580	REC_WORD	1.87	n/a	ARM	-999	1	[0, 0, 0]	n/a	FR1	3	R1292E
529.222	1.963	529450	REC_WORD	1.963	n/a	LEG	7	1	[0, 0, 0]	n/a	FR1	3	R1292E
531.185	1.87	531413	REC_WORD	1.87	n/a	FACE	12	1	[0, 0, 0]	n/a	FR1	3	R1292E
533.055	1.989	533283	REC_WORD	1.989	n/a	SHIELD	11	1	[0, 0, 0]	n/a	FR1	3	R1292E
535.044	1.975	535272	REC_WORD	1.975	n/a	SHEEP	5	1	[0, 0, 0]	n/a	FR1	3	R1292E
537.019	17.898	537247	REC_WORD	17.898	n/a	CAGE	3	1	[0, 0, 0]	n/a	FR1	3	R1292E
554.917	0.001	555144	REC_END	n/a	n/a	n/a	-999	1	[0, 0, 0]	n/a	FR1	3	R1292E
554.918	0.018	555145	TRIAL_END	n/a	n/a	n/a	-999	1	[0, 0, 0]	n/a	FR1	3	R1292E
554.936	0.0	555163	WAITING_START	n/a	n/a	n/a	-999	2	[0, 0, 0]	n/a	FR1	3	R1292E
554.936	0.0	555163	TRIAL_START	n/a	n/a	n/a	-999	2	[0, 0, 0]	n/a	FR1	3	R1292E
554.936	10.193	555163	TRIAL	n/a	n/a	n/a	-999	2	[0, 0, 0]	n/a	FR1	3	R1292E
565.129	0.0	565356	WAITING_END	n/a	n/a	n/a	-999	2	[0, 0, 0]	n/a	FR1	3	R1292E
565.129	10.429	565356	COUNTDOWN_START	n/a	n/a	n/a	-999	2	[0, 0, 0]	n/a	FR1	3	R1292E
575.558	0.0	575784	COUNTDOWN_END	n/a	n/a	n/a	-999	2	[0, 0, 0]	n/a	FR1	3	R1292E
575.558	1.04	575784	ORIENT_START	n/a	n/a	n/a	-999	2	[0, 0, 0]	n/a	FR1	3	R1292E
576.598	0.001	576824	ORIENT_END	n/a	n/a	n/a	-999	2	[0, 0, 0]	n/a	FR1	3	R1292E
576.599	1.062	576825	ENCODING_START	n/a	n/a	n/a	-999	2	[0, 0, 0]	n/a	FR1	3	R1292E
577.661	1.637	577887	WORD	n/a	n/a	SEED	1	2	[0, 0, 0]	n/a	FR1	3	R1292E
579.298	0.846	579524	WORD_OFF	n/a	n/a	SEED	1	2	[0, 0, 0]	n/a	FR1	3	R1292E
580.144	1.637	580370	WORD	n/a	n/a	BOARD	2	2	[0, 0, 0]	n/a	FR1	3	R1292E
581.781	0.968	582007	WORD_OFF	n/a	n/a	BOARD	2	2	[0, 0, 0]	n/a	FR1	3	R1292E
582.749	1.633	582975	WORD	n/a	n/a	SPEAR	3	2	[0, 0, 0]	n/a	FR1	3	R1292E
584.382	0.831	584608	WORD_OFF	n/a	n/a	SPEAR	3	2	[0, 0, 0]	n/a	FR1	3	R1292E
585.213	1.636	585439	WORD	n/a	n/a	WAND	4	2	[0, 0, 0]	n/a	FR1	3	R1292E
586.849	1.016	587075	WORD_OFF	n/a	n/a	WAND	4	2	[0, 0, 0]	n/a	FR1	3	R1292E
587.865	1.635	588091	WORD	n/a	n/a	WHEEL	5	2	[0, 0, 0]	n/a	FR1	3	R1292E
589.5	1.088	589726	WORD_OFF	n/a	n/a	WHEEL	5	2	[0, 0, 0]	n/a	FR1	3	R1292E
590.588	1.629	590814	WORD	n/a	n/a	DOCK	6	2	[0, 0, 0]	n/a	FR1	3	R1292E
592.217	0.99	592443	WORD_OFF	n/a	n/a	DOCK	6	2	[0, 0, 0]	n/a	FR1	3	R1292E
593.207	1.627	593433	WORD	n/a	n/a	ROPE	7	2	[0, 0, 0]	n/a	FR1	3	R1292E
594.834	0.96	595060	WORD_OFF	n/a	n/a	ROPE	7	2	[0, 0, 0]	n/a	FR1	3	R1292E
595.794	1.625	596020	WORD	n/a	n/a	FENCE	8	2	[0, 0, 0]	n/a	FR1	3	R1292E
597.419	0.988	597644	WORD_OFF	n/a	n/a	FENCE	8	2	[0, 0, 0]	n/a	FR1	3	R1292E
598.407	1.628	598632	WORD	n/a	n/a	GUARD	9	2	[0, 0, 0]	n/a	FR1	3	R1292E
600.035	0.995	600260	WORD_OFF	n/a	n/a	GUARD	9	2	[0, 0, 0]	n/a	FR1	3	R1292E
601.03	1.622	601255	WORD	n/a	n/a	SUIT	10	2	[0, 0, 0]	n/a	FR1	3	R1292E
602.652	0.91	602877	WORD_OFF	n/a	n/a	SUIT	10	2	[0, 0, 0]	n/a	FR1	3	R1292E
603.562	1.624	603787	WORD	n/a	n/a	BADGE	11	2	[0, 0, 0]	n/a	FR1	3	R1292E
605.186	0.823	605411	WORD_OFF	n/a	n/a	BADGE	11	2	[0, 0, 0]	n/a	FR1	3	R1292E
606.009	1.627	606234	WORD	n/a	n/a	DOG	12	2	[0, 0, 0]	n/a	FR1	3	R1292E
607.636	0.0	607861	WORD_OFF	n/a	n/a	DOG	12	2	[0, 0, 0]	n/a	FR1	3	R1292E
607.636	0.001	607861	ENCODING_END	n/a	n/a	n/a	-999	2	[0, 0, 0]	n/a	FR1	3	R1292E
607.637	0.0	607862	DISTRACT_START	n/a	n/a	n/a	-999	2	[0, 0, 0]	n/a	FR1	3	R1292E
607.637	0.015	607862	START	n/a	n/a	n/a	-999	2	[-999, -999, -999]	n/a	FR1	3	R1292E
607.652	7.969	607877	PROB	7.969	n/a	n/a	-999	2	[4, 3, 5]	12	FR1	3	R1292E
615.621	12.47	615846	PROB	12.47	n/a	n/a	-999	2	[8, 7, 6]	21	FR1	3	R1292E
628.091	0.015	628315	STOP	n/a	n/a	n/a	-999	2	[-999, -999, -999]	n/a	FR1	3	R1292E
628.106	0.501	628330	DISTRACT_END	n/a	n/a	n/a	-999	2	[0, 0, 0]	n/a	FR1	3	R1292E
628.607	1.583	628831	RETRIEVAL_ORIENT_START	n/a	n/a	n/a	-999	2	[0, 0, 0]	n/a	FR1	3	R1292E
630.19	0.0	630414	REC_START	n/a	n/a	n/a	-999	2	[0, 0, 0]	n/a	FR1	3	R1292E
630.19	1.239	630414	RETRIEVAL_ORIENT_END	n/a	n/a	n/a	-999	2	[0, 0, 0]	n/a	FR1	3	R1292E
631.429	1.47	631653	REC_WORD	1.47	n/a	SEED	1	2	[0, 0, 0]	n/a	FR1	3	R1292E
632.899	1.415	633123	REC_WORD	1.415	n/a	DOG	12	2	[0, 0, 0]	n/a	FR1	3	R1292E
634.314	1.545	634538	REC_WORD	1.545	n/a	WAND	4	2	[0, 0, 0]	n/a	FR1	3	R1292E
635.859	1.215	636083	REC_WORD	1.215	n/a	BADGE	11	2	[0, 0, 0]	n/a	FR1	3	R1292E
637.074	9.168	637298	REC_WORD	9.168	n/a	SUIT	10	2	[0, 0, 0]	n/a	FR1	3	R1292E
646.242	13.961	646466	REC_WORD	13.961	n/a	GUARD	9	2	[0, 0, 0]	n/a	FR1	3	R1292E
660.203	0.0	660426	TRIAL_END	n/a	n/a	n/a	-999	2	[0, 0, 0]	n/a	FR1	3	R1292E
660.203	0.019	660426	REC_END	n/a	n/a	n/a	-999	2	[0, 0, 0]	n/a	FR1	3	R1292E
660.222	0.0	660445	WAITING_START	n/a	n/a	n/a	-999	3	[0, 0, 0]	n/a	FR1	3	R1292E
660.222	0.0	660445	TRIAL_START	n/a	n/a	n/a	-999	3	[0, 0, 0]	n/a	FR1	3	R1292E
660.222	7.675	660445	TRIAL	n/a	n/a	n/a	-999	3	[0, 0, 0]	n/a	FR1	3	R1292E
667.897	0.0	668120	WAITING_END	n/a	n/a	n/a	-999	3	[0, 0, 0]	n/a	FR1	3	R1292E
667.897	10.429	668120	COUNTDOWN_START	n/a	n/a	n/a	-999	3	[0, 0, 0]	n/a	FR1	3	R1292E
678.326	0.0	678549	COUNTDOWN_END	n/a	n/a	n/a	-999	3	[0, 0, 0]	n/a	FR1	3	R1292E
678.326	1.157	678549	ORIENT_START	n/a	n/a	n/a	-999	3	[0, 0, 0]	n/a	FR1	3	R1292E
679.483	0.0	679706	ORIENT_END	n/a	n/a	n/a	-999	3	[0, 0, 0]	n/a	FR1	3	R1292E
679.483	0.872	679706	ENCODING_START	n/a	n/a	n/a	-999	3	[0, 0, 0]	n/a	FR1	3	R1292E
680.355	1.627	680578	WORD	n/a	n/a	HOOK	1	3	[0, 0, 0]	n/a	FR1	3	R1292E
681.982	1.065	682204	WORD_OFF	n/a	n/a	HOOK	1	3	[0, 0, 0]	n/a	FR1	3	R1292E
683.047	1.636	683269	WORD	n/a	n/a	SALT	2	3	[0, 0, 0]	n/a	FR1	3	R1292E
684.683	0.992	684905	WORD_OFF	n/a	n/a	SALT	2	3	[0, 0, 0]	n/a	FR1	3	R1292E
685.675	1.625	685897	WORD	n/a	n/a	COW	3	3	[0, 0, 0]	n/a	FR1	3	R1292E
687.3	0.81	687522	WORD_OFF	n/a	n/a	COW	3	3	[0, 0, 0]	n/a	FR1	3	R1292E
688.11	1.624	688332	WORD	n/a	n/a	LAKE	4	3	[0, 0, 0]	n/a	FR1	3	R1292E
689.734	0.771	689956	WORD_OFF	n/a	n/a	LAKE	4	3	[0, 0, 0]	n/a	FR1	3	R1292E
690.505	1.629	690727	WORD	n/a	n/a	CUBE	5	3	[0, 0, 0]	n/a	FR1	3	R1292E
692.134	0.755	692356	WORD_OFF	n/a	n/a	CUBE	5	3	[0, 0, 0]	n/a	FR1	3	R1292E
692.889	1.63	693111	WORD	n/a	n/a	YARD	6	3	[0, 0, 0]	n/a	FR1	3	R1292E
694.519	1.036	694741	WORD_OFF	n/a	n/a	YARD	6	3	[0, 0, 0]	n/a	FR1	3	R1292E
695.555	1.63	695777	WORD	n/a	n/a	SPONGE	7	3	[0, 0, 0]	n/a	FR1	3	R1292E
697.185	1.147	697407	WORD_OFF	n/a	n/a	SPONGE	7	3	[0, 0, 0]	n/a	FR1	3	R1292E
698.332	1.637	698554	WORD	n/a	n/a	BEAR	8	3	[0, 0, 0]	n/a	FR1	3	R1292E
699.969	1.081	700191	WORD_OFF	n/a	n/a	BEAR	8	3	[0, 0, 0]	n/a	FR1	3	R1292E
701.05	1.636	701272	WORD	n/a	n/a	MOLE	9	3	[0, 0, 0]	n/a	FR1	3	R1292E
702.686	0.963	702908	WORD_OFF	n/a	n/a	MOLE	9	3	[0, 0, 0]	n/a	FR1	3	R1292E
703.649	1.62	703871	WORD	n/a	n/a	VAN	10	3	[0, 0, 0]	n/a	FR1	3	R1292E
705.269	0.851	705491	WORD_OFF	n/a	n/a	VAN	10	3	[0, 0, 0]	n/a	FR1	3	R1292E
706.12	1.633	706342	WORD	n/a	n/a	FOOD	11	3	[0, 0, 0]	n/a	FR1	3	R1292E
707.753	0.777	707975	WORD_OFF	n/a	n/a	FOOD	11	3	[0, 0, 0]	n/a	FR1	3	R1292E
708.53	1.624	708752	WORD	n/a	n/a	CLOCK	12	3	[0, 0, 0]	n/a	FR1	3	R1292E
710.154	0.0	710375	WORD_OFF	n/a	n/a	CLOCK	12	3	[0, 0, 0]	n/a	FR1	3	R1292E
710.154	0.0	710375	ENCODING_END	n/a	n/a	n/a	-999	3	[0, 0, 0]	n/a	FR1	3	R1292E
710.154	0.001	710375	DISTRACT_START	n/a	n/a	n/a	-999	3	[0, 0, 0]	n/a	FR1	3	R1292E
710.155	0.015	710376	START	n/a	n/a	n/a	-999	3	[-999, -999, -999]	n/a	FR1	3	R1292E
710.17	4.302	710391	PROB	4.302	n/a	n/a	-999	3	[4, 9, 1]	14	FR1	3	R1292E
714.472	4.968	714693	PROB	4.968	n/a	n/a	-999	3	[2, 2, 6]	10	FR1	3	R1292E
719.44	13.873	719661	PROB	13.873	n/a	n/a	-999	3	[4, 7, 5]	16	FR1	3	R1292E
733.313	0.011	733534	STOP	n/a	n/a	n/a	-999	3	[-999, -999, -999]	n/a	FR1	3	R1292E
733.324	0.609	733545	DISTRACT_END	n/a	n/a	n/a	-999	3	[0, 0, 0]	n/a	FR1	3	R1292E
733.933	1.692	734154	RETRIEVAL_ORIENT_START	n/a	n/a	n/a	-999	3	[0, 0, 0]	n/a	FR1	3	R1292E
735.625	0.0	735846	REC_START	n/a	n/a	n/a	-999	3	[0, 0, 0]	n/a	FR1	3	R1292E
735.625	0.69	735846	RETRIEVAL_ORIENT_END	n/a	n/a	n/a	-999	3	[0, 0, 0]	n/a	FR1	3	R1292E
736.315	2.119	736536	REC_WORD	2.119	n/a	HOOK	1	3	[0, 0, 0]	n/a	FR1	3	R1292E
738.434	5.261	738654	REC_WORD	5.261	n/a	COW	3	3	[0, 0, 0]	n/a	FR1	3	R1292E
743.695	21.942	743915	REC_WORD	21.942	n/a	YARD	6	3	[0, 0, 0]	n/a	FR1	3	R1292E
765.637	0.001	765857	REC_END	n/a	n/a	n/a	-999	3	[0, 0, 0]	n/a	FR1	3	R1292E
765.638	0.018	765858	TRIAL_END	n/a	n/a	n/a	-999	3	[0, 0, 0]	n/a	FR1	3	R1292E
765.656	0.0	765876	TRIAL	n/a	n/a	n/a	-999	4	[0, 0, 0]	n/a	FR1	3	R1292E
765.656	0.0	765876	WAITING_START	n/a	n/a	n/a	-999	4	[0, 0, 0]	n/a	FR1	3	R1292E
765.656	113.744	765876	TRIAL_START	n/a	n/a	n/a	-999	4	[0, 0, 0]	n/a	FR1	3	R1292E
879.4	0.0	879616	WAITING_END	n/a	n/a	n/a	-999	4	[0, 0, 0]	n/a	FR1	3	R1292E
879.4	10.43	879616	COUNTDOWN_START	n/a	n/a	n/a	-999	4	[0, 0, 0]	n/a	FR1	3	R1292E
889.83	0.0	890045	COUNTDOWN_END	n/a	n/a	n/a	-999	4	[0, 0, 0]	n/a	FR1	3	R1292E
889.83	1.022	890045	ORIENT_START	n/a	n/a	n/a	-999	4	[0, 0, 0]	n/a	FR1	3	R1292E
890.852	0.0	891067	ORIENT_END	n/a	n/a	n/a	-999	4	[0, 0, 0]	n/a	FR1	3	R1292E
890.852	0.817	891067	ENCODING_START	n/a	n/a	n/a	-999	4	[0, 0, 0]	n/a	FR1	3	R1292E
891.669	1.633	891884	WORD	n/a	n/a	PEACH	1	4	[0, 0, 0]	n/a	FR1	3	R1292E
893.302	1.047	893517	WORD_OFF	n/a	n/a	PEACH	1	4	[0, 0, 0]	n/a	FR1	3	R1292E
894.349	1.637	894564	WORD	n/a	n/a	NOSE	2	4	[0, 0, 0]	n/a	FR1	3	R1292E
895.986	0.771	896201	WORD_OFF	n/a	n/a	NOSE	2	4	[0, 0, 0]	n/a	FR1	3	R1292E
896.757	1.63	896972	WORD	n/a	n/a	ANT	3	4	[0, 0, 0]	n/a	FR1	3	R1292E
898.387	0.915	898602	WORD_OFF	n/a	n/a	ANT	3	4	[0, 0, 0]	n/a	FR1	3	R1292E
899.302	1.635	899517	WORD	n/a	n/a	SOUP	4	4	[0, 0, 0]	n/a	FR1	3	R1292E
900.937	0.842	901152	WORD_OFF	n/a	n/a	SOUP	4	4	[0, 0, 0]	n/a	FR1	3	R1292E
901.779	1.625	901994	WORD	n/a	n/a	AXE	5	4	[0, 0, 0]	n/a	FR1	3	R1292E
903.404	1.092	903619	WORD_OFF	n/a	n/a	AXE	5	4	[0, 0, 0]	n/a	FR1	3	R1292E
904.496	1.625	904711	WORD	n/a	n/a	CLOUD	6	4	[0, 0, 0]	n/a	FR1	3	R1292E
906.121	0.798	906336	WORD_OFF	n/a	n/a	CLOUD	6	4	[0, 0, 0]	n/a	FR1	3	R1292E
906.919	1.621	907134	WORD	n/a	n/a	FUDGE	7	4	[0, 0, 0]	n/a	FR1	3	R1292E
908.54	0.855	908755	WORD_OFF	n/a	n/a	FUDGE	7	4	[0, 0, 0]	n/a	FR1	3	R1292E
909.395	1.627	909609	WORD	n/a	n/a	CAVE	8	4	[0, 0, 0]	n/a	FR1	3	R1292E
911.022	1.105	911236	WORD_OFF	n/a	n/a	CAVE	8	4	[0, 0, 0]	n/a	FR1	3	R1292E
912.127	1.629	912341	WORD	n/a	n/a	BEAN	9	4	[0, 0, 0]	n/a	FR1	3	R1292E
913.756	0.796	913970	WORD_OFF	n/a	n/a	BEAN	9	4	[0, 0, 0]	n/a	FR1	3	R1292E
914.552	1.621	914766	WORD	n/a	n/a	SMILE	10	4	[0, 0, 0]	n/a	FR1	3	R1292E
916.173	1.046	916387	WORD_OFF	n/a	n/a	SMILE	10	4	[0, 0, 0]	n/a	FR1	3	R1292E
917.219	1.621	917433	WORD	n/a	n/a	STRAW	11	4	[0, 0, 0]	n/a	FR1	3	R1292E
918.84	0.854	919054	WORD_OFF	n/a	n/a	STRAW	11	4	[0, 0, 0]	n/a	FR1	3	R1292E
919.694	1.63	919908	WORD	n/a	n/a	ROOM	12	4	[0, 0, 0]	n/a	FR1	3	R1292E
921.324	0.0	921538	WORD_OFF	n/a	n/a	ROOM	12	4	[0, 0, 0]	n/a	FR1	3	R1292E
921.324	0.001	921538	ENCODING_END	n/a	n/a	n/a	-999	4	[0, 0, 0]	n/a	FR1	3	R1292E
921.325	0.0	921539	DISTRACT_START	n/a	n/a	n/a	-999	4	[0, 0, 0]	n/a	FR1	3	R1292E
921.325	0.015	921539	START	n/a	n/a	n/a	-999	4	[-999, -999, -999]	n/a	FR1	3	R1292E
921.34	5.301	921554	PROB	5.301	n/a	n/a	-999	4	[7, 3, 1]	11	FR1	3	R1292E
926.641	3.668	926855	PROB	3.668	n/a	n/a	-999	4	[2, 1, 8]	11	FR1	3	R1292E
930.309	3.201	930523	PROB	3.201	n/a	n/a	-999	4	[9, 6, 1]	16	FR1	3	R1292E
933.51	5.5	933724	PROB	5.5	n/a	n/a	-999	4	[2, 5, 6]	13	FR1	3	R1292E
939.01	7.211	939223	PROB	7.211	n/a	n/a	-999	4	[5, 7, 6]	18	FR1	3	R1292E
946.221	0.007	946434	STOP	n/a	n/a	n/a	-999	4	[-999, -999, -999]	n/a	FR1	3	R1292E
946.228	0.526	946441	DISTRACT_END	n/a	n/a	n/a	-999	4	[0, 0, 0]	n/a	FR1	3	R1292E
946.754	1.726	946967	RETRIEVAL_ORIENT_START	n/a	n/a	n/a	-999	4	[0, 0, 0]	n/a	FR1	3	R1292E
948.48	0.0	948693	RETRIEVAL_ORIENT_END	n/a	n/a	n/a	-999	4	[0, 0, 0]	n/a	FR1	3	R1292E
948.48	1.155	948693	REC_START	n/a	n/a	n/a	-999	4	[0, 0, 0]	n/a	FR1	3	R1292E
949.635	1.455	949848	REC_WORD	1.455	n/a	PEACH	1	4	[0, 0, 0]	n/a	FR1	3	R1292E
951.09	2.397	951303	REC_WORD	2.397	n/a	SMILE	10	4	[0, 0, 0]	n/a	FR1	3	R1292E
953.487	2.107	953700	REC_WORD	2.107	n/a	ROOM	12	4	[0, 0, 0]	n/a	FR1	3	R1292E
955.594	3.872	955807	REC_WORD	3.872	n/a	ANT	3	4	[0, 0, 0]	n/a	FR1	3	R1292E
959.466	19.025	959679	REC_WORD	19.025	n/a	CLOUD	6	4	[0, 0, 0]	n/a	FR1	3	R1292E
978.491	0.0	978703	REC_END	n/a	n/a	n/a	-999	4	[0, 0, 0]	n/a	FR1	3	R1292E
978.491	0.018	978703	TRIAL_END	n/a	n/a	n/a	-999	4	[0, 0, 0]	n/a	FR1	3	R1292E
978.509	0.0	978721	TRIAL_START	n/a	n/a	n/a	-999	5	[0, 0, 0]	n/a	FR1	3	R1292E
978.509	0.0	978721	TRIAL	n/a	n/a	n/a	-999	5	[0, 0, 0]	n/a	FR1	3	R1292E
978.509	3.626	978721	WAITING_START	n/a	n/a	n/a	-999	5	[0, 0, 0]	n/a	FR1	3	R1292E
982.135	0.0	982347	COUNTDOWN_START	n/a	n/a	n/a	-999	5	[0, 0, 0]	n/a	FR1	3	R1292E
982.135	10.429	982347	WAITING_END	n/a	n/a	n/a	-999	5	[0, 0, 0]	n/a	FR1	3	R1292E
992.564	0.0	992776	COUNTDOWN_END	n/a	n/a	n/a	-999	5	[0, 0, 0]	n/a	FR1	3	R1292E
992.564	1.106	992776	ORIENT_START	n/a	n/a	n/a	-999	5	[0, 0, 0]	n/a	FR1	3	R1292E
993.67	0.0	993882	ORIENT_END	n/a	n/a	n/a	-999	5	[0, 0, 0]	n/a	FR1	3	R1292E
993.67	0.81	993882	ENCODING_START	n/a	n/a	n/a	-999	5	[0, 0, 0]	n/a	FR1	3	R1292E
994.48	1.624	994692	WORD	n/a	n/a	DUCK	1	5	[0, 0, 0]	n/a	FR1	3	R1292E
996.104	0.982	996315	WORD_OFF	n/a	n/a	DUCK	1	5	[0, 0, 0]	n/a	FR1	3	R1292E
997.086	1.635	997297	WORD	n/a	n/a	TRAY	2	5	[0, 0, 0]	n/a	FR1	3	R1292E
998.721	1.15	998932	WORD_OFF	n/a	n/a	TRAY	2	5	[0, 0, 0]	n/a	FR1	3	R1292E
999.871	1.635	1000082	WORD	n/a	n/a	MOON	3	5	[0, 0, 0]	n/a	FR1	3	R1292E
1001.506	0.857	1001717	WORD_OFF	n/a	n/a	MOON	3	5	[0, 0, 0]	n/a	FR1	3	R1292E
1002.363	1.625	1002574	WORD	n/a	n/a	BEAK	4	5	[0, 0, 0]	n/a	FR1	3	R1292E
1003.988	0.941	1004199	WORD_OFF	n/a	n/a	BEAK	4	5	[0, 0, 0]	n/a	FR1	3	R1292E
1004.929	1.611	1005140	WORD	n/a	n/a	DOOR	5	5	[0, 0, 0]	n/a	FR1	3	R1292E
1006.54	0.862	1006751	WORD_OFF	n/a	n/a	DOOR	5	5	[0, 0, 0]	n/a	FR1	3	R1292E
1007.402	1.604	1007613	WORD	n/a	n/a	STORM	6	5	[0, 0, 0]	n/a	FR1	3	R1292E
1009.006	0.929	1009217	WORD_OFF	n/a	n/a	STORM	6	5	[0, 0, 0]	n/a	FR1	3	R1292E
1009.935	1.622	1010146	WORD	n/a	n/a	MOOSE	7	5	[0, 0, 0]	n/a	FR1	3	R1292E
1011.557	0.945	1011768	WORD_OFF	n/a	n/a	MOOSE	7	5	[0, 0, 0]	n/a	FR1	3	R1292E
1012.502	1.621	1012713	WORD	n/a	n/a	MAIL	8	5	[0, 0, 0]	n/a	FR1	3	R1292E
1014.123	1.122	1014334	WORD_OFF	n/a	n/a	MAIL	8	5	[0, 0, 0]	n/a	FR1	3	R1292E
1015.245	1.629	1015456	WORD	n/a	n/a	HILL	9	5	[0, 0, 0]	n/a	FR1	3	R1292E
1016.874	0.959	1017085	WORD_OFF	n/a	n/a	HILL	9	5	[0, 0, 0]	n/a	FR1	3	R1292E
1017.833	1.626	1018044	WORD	n/a	n/a	FOG	10	5	[0, 0, 0]	n/a	FR1	3	R1292E
1019.459	0.984	1019670	WORD_OFF	n/a	n/a	FOG	10	5	[0, 0, 0]	n/a	FR1	3	R1292E
1020.443	1.632	1020654	WORD	n/a	n/a	APE	11	5	[0, 0, 0]	n/a	FR1	3	R1292E
1022.075	1.053	1022286	WORD_OFF	n/a	n/a	APE	11	5	[0, 0, 0]	n/a	FR1	3	R1292E
1023.128	1.631	1023339	WORD	n/a	n/a	PRINCE	12	5	[0, 0, 0]	n/a	FR1	3	R1292E
1024.759	0.0	1024969	WORD_OFF	n/a	n/a	PRINCE	12	5	[0, 0, 0]	n/a	FR1	3	R1292E
1024.759	0.0	1024969	ENCODING_END	n/a	n/a	n/a	-999	5	[0, 0, 0]	n/a	FR1	3	R1292E
1024.759	0.001	1024969	DISTRACT_START	n/a	n/a	n/a	-999	5	[0, 0, 0]	n/a	FR1	3	R1292E
1024.76	0.015	1024970	START	n/a	n/a	n/a	-999	5	[-999, -999, -999]	n/a	FR1	3	R1292E
1024.775	11.535	1024985	PROB	11.535	n/a	n/a	-999	5	[4, 7, 9]	20	FR1	3	R1292E
1036.31	3.051	1036520	PROB	3.051	n/a	n/a	-999	5	[2, 2, 2]	6	FR1	3	R1292E
1039.361	5.169	1039571	PROB	5.169	n/a	n/a	-999	5	[8, 4, 8]	20	FR1	3	R1292E
1044.53	3.435	1044740	PROB	3.435	n/a	n/a	-999	5	[5, 7, 5]	17	FR1	3	R1292E
1047.965	0.014	1048175	STOP	n/a	n/a	n/a	-999	5	[-999, -999, -999]	n/a	FR1	3	R1292E
1047.979	0.554	1048189	DISTRACT_END	n/a	n/a	n/a	-999	5	[0, 0, 0]	n/a	FR1	3	R1292E
1048.533	1.563	1048743	RETRIEVAL_ORIENT_START	n/a	n/a	n/a	-999	5	[0, 0, 0]	n/a	FR1	3	R1292E
1050.096	0.001	1050306	RETRIEVAL_ORIENT_END	n/a	n/a	n/a	-999	5	[0, 0, 0]	n/a	FR1	3	R1292E
1050.097	1.089	1050307	REC_START	n/a	n/a	n/a	-999	5	[0, 0, 0]	n/a	FR1	3	R1292E
1051.186	1.265	1051396	REC_WORD	1.265	n/a	MOON	3	5	[0, 0, 0]	n/a	FR1	3	R1292E
1052.451	1.503	1052660	REC_WORD	1.503	n/a	MAIL	8	5	[0, 0, 0]	n/a	FR1	3	R1292E
1053.954	1.526	1054163	REC_WORD	1.526	n/a	DUCK	1	5	[0, 0, 0]	n/a	FR1	3	R1292E
1055.48	5.51	1055689	REC_WORD	5.51	n/a	BEAK	4	5	[0, 0, 0]	n/a	FR1	3	R1292E
1060.99	2.437	1061199	REC_WORD	2.437	n/a	MOOSE	7	5	[0, 0, 0]	n/a	FR1	3	R1292E
1063.427	16.681	1063636	REC_WORD	16.681	n/a	FOG	10	5	[0, 0, 0]	n/a	FR1	3	R1292E
1080.108	0.0	1080317	REC_END	n/a	n/a	n/a	-999	5	[0, 0, 0]	n/a	FR1	3	R1292E
1080.108	0.018	1080317	TRIAL_END	n/a	n/a	n/a	-999	5	[0, 0, 0]	n/a	FR1	3	R1292E
1080.126	0.001	1080335	TRIAL_START	n/a	n/a	n/a	-999	6	[0, 0, 0]	n/a	FR1	3	R1292E
1080.127	0.0	1080336	WAITING_START	n/a	n/a	n/a	-999	6	[0, 0, 0]	n/a	FR1	3	R1292E
1080.127	11.993	1080336	TRIAL	n/a	n/a	n/a	-999	6	[0, 0, 0]	n/a	FR1	3	R1292E
1092.12	0.001	1092328	WAITING_END	n/a	n/a	n/a	-999	6	[0, 0, 0]	n/a	FR1	3	R1292E
1092.121	10.429	1092329	COUNTDOWN_START	n/a	n/a	n/a	-999	6	[0, 0, 0]	n/a	FR1	3	R1292E
1102.55	0.0	1102758	COUNTDOWN_END	n/a	n/a	n/a	-999	6	[0, 0, 0]	n/a	FR1	3	R1292E
1102.55	1.189	1102758	ORIENT_START	n/a	n/a	n/a	-999	6	[0, 0, 0]	n/a	FR1	3	R1292E
1103.739	0.001	1103947	ORIENT_END	n/a	n/a	n/a	-999	6	[0, 0, 0]	n/a	FR1	3	R1292E
1103.74	0.789	1103948	ENCODING_START	n/a	n/a	n/a	-999	6	[0, 0, 0]	n/a	FR1	3	R1292E
1104.529	1.627	1104737	WORD	n/a	n/a	OWL	1	6	[0, 0, 0]	n/a	FR1	3	R1292E
1106.156	1.045	1106364	WORD_OFF	n/a	n/a	OWL	1	6	[0, 0, 0]	n/a	FR1	3	R1292E
1107.201	1.622	1107409	WORD	n/a	n/a	BANK	2	6	[0, 0, 0]	n/a	FR1	3	R1292E
1108.823	1.044	1109030	WORD_OFF	n/a	n/a	BANK	2	6	[0, 0, 0]	n/a	FR1	3	R1292E
1109.867	1.608	1110074	WORD	n/a	n/a	GRASS	3	6	[0, 0, 0]	n/a	FR1	3	R1292E
1111.475	0.997	1111682	WORD_OFF	n/a	n/a	GRASS	3	6	[0, 0, 0]	n/a	FR1	3	R1292E
1112.472	1.636	1112679	WORD	n/a	n/a	BIRD	4	6	[0, 0, 0]	n/a	FR1	3	R1292E
1114.108	0.906	1114315	WORD_OFF	n/a	n/a	BIRD	4	6	[0, 0, 0]	n/a	FR1	3	R1292E
1115.014	1.627	1115221	WORD	n/a	n/a	PURSE	5	6	[0, 0, 0]	n/a	FR1	3	R1292E
1116.641	0.84	1116848	WORD_OFF	n/a	n/a	PURSE	5	6	[0, 0, 0]	n/a	FR1	3	R1292E
1117.481	1.628	1117688	WORD	n/a	n/a	WEED	6	6	[0, 0, 0]	n/a	FR1	3	R1292E
1119.109	0.758	1119316	WORD_OFF	n/a	n/a	WEED	6	6	[0, 0, 0]	n/a	FR1	3	R1292E
1119.867	1.626	1120074	WORD	n/a	n/a	FOX	7	6	[0, 0, 0]	n/a	FR1	3	R1292E
1121.493	1.1	1121700	WORD_OFF	n/a	n/a	FOX	7	6	[0, 0, 0]	n/a	FR1	3	R1292E
1122.593	1.633	1122800	WORD	n/a	n/a	VINE	8	6	[0, 0, 0]	n/a	FR1	3	R1292E
1124.226	1.067	1124433	WORD_OFF	n/a	n/a	VINE	8	6	[0, 0, 0]	n/a	FR1	3	R1292E
1125.293	1.634	1125500	WORD	n/a	n/a	CHALK	9	6	[0, 0, 0]	n/a	FR1	3	R1292E
1126.927	0.781	1127134	WORD_OFF	n/a	n/a	CHALK	9	6	[0, 0, 0]	n/a	FR1	3	R1292E
1127.708	1.636	1127915	WORD	n/a	n/a	TOY	10	6	[0, 0, 0]	n/a	FR1	3	R1292E
1129.344	0.847	1129551	WORD_OFF	n/a	n/a	TOY	10	6	[0, 0, 0]	n/a	FR1	3	R1292E
1130.191	1.636	1130398	WORD	n/a	n/a	HEART	11	6	[0, 0, 0]	n/a	FR1	3	R1292E
1131.827	0.991	1132034	WORD_OFF	n/a	n/a	HEART	11	6	[0, 0, 0]	n/a	FR1	3	R1292E
1132.818	1.611	1133025	WORD	n/a	n/a	DIME	12	6	[0, 0, 0]	n/a	FR1	3	R1292E
1134.429	0.0	1134636	WORD_OFF	n/a	n/a	DIME	12	6	[0, 0, 0]	n/a	FR1	3	R1292E
1134.429	0.001	1134636	ENCODING_END	n/a	n/a	n/a	-999	6	[0, 0, 0]	n/a	FR1	3	R1292E
1134.43	0.0	1134637	DISTRACT_START	n/a	n/a	n/a	-999	6	[0, 0, 0]	n/a	FR1	3	R1292E
1134.43	0.015	1134637	START	n/a	n/a	n/a	-999	6	[-999, -999, -999]	n/a	FR1	3	R1292E
1134.445	13.053	1134652	PROB	13.053	n/a	n/a	-999	6	[4, 9, 5]	18	FR1	3	R1292E
1147.498	4.666	1147704	PROB	4.666	n/a	n/a	-999	6	[3, 1, 5]	9	FR1	3	R1292E
1152.164	4.143	1152370	PROB	4.143	n/a	n/a	-999	6	[6, 6, 3]	15	FR1	3	R1292E
1156.307	0.008	1156513	STOP	n/a	n/a	n/a	-999	6	[-999, -999, -999]	n/a	FR1	3	R1292E
1156.315	0.536	1156521	DISTRACT_END	n/a	n/a	n/a	-999	6	[0, 0, 0]	n/a	FR1	3	R1292E
1156.851	1.531	1157057	RETRIEVAL_ORIENT_START	n/a	n/a	n/a	-999	6	[0, 0, 0]	n/a	FR1	3	R1292E
1158.382	0.0	1158588	RETRIEVAL_ORIENT_END	n/a	n/a	n/a	-999	6	[0, 0, 0]	n/a	FR1	3	R1292E
1158.382	1.059	1158588	REC_START	n/a	n/a	n/a	-999	6	[0, 0, 0]	n/a	FR1	3	R1292E
1159.441	2.36	1159647	REC_WORD	2.36	n/a	OWL	1	6	[0, 0, 0]	n/a	FR1	3	R1292E
1161.801	1.165	1162007	REC_WORD	1.165	n/a	BIRD	4	6	[0, 0, 0]	n/a	FR1	3	R1292E
1162.966	2.287	1163172	REC_WORD	2.287	n/a	GRASS	3	6	[0, 0, 0]	n/a	FR1	3	R1292E
1165.253	1.22	1165459	REC_WORD	1.22	n/a	TOY	10	6	[0, 0, 0]	n/a	FR1	3	R1292E
1166.473	21.922	1166678	REC_WORD	21.922	n/a	HEART	11	6	[0, 0, 0]	n/a	FR1	3	R1292E
1188.395	0.0	1188600	REC_END	n/a	n/a	n/a	-999	6	[0, 0, 0]	n/a	FR1	3	R1292E
1188.395	0.019	1188600	TRIAL_END	n/a	n/a	n/a	-999	6	[0, 0, 0]	n/a	FR1	3	R1292E
1188.414	0.001	1188619	TRIAL_START	n/a	n/a	n/a	-999	7	[0, 0, 0]	n/a	FR1	3	R1292E
1188.415	0.0	1188620	TRIAL	n/a	n/a	n/a	-999	7	[0, 0, 0]	n/a	FR1	3	R1292E
1188.415	9.058	1188620	WAITING_START	n/a	n/a	n/a	-999	7	[0, 0, 0]	n/a	FR1	3	R1292E
1197.473	0.001	1197677	WAITING_END	n/a	n/a	n/a	-999	7	[0, 0, 0]	n/a	FR1	3	R1292E
1197.474	10.428	1197678	COUNTDOWN_START	n/a	n/a	n/a	-999	7	[0, 0, 0]	n/a	FR1	3	R1292E
1207.902	0.001	1208106	COUNTDOWN_END	n/a	n/a	n/a	-999	7	[0, 0, 0]	n/a	FR1	3	R1292E
1207.903	1.138	1208107	ORIENT_START	n/a	n/a	n/a	-999	7	[0, 0, 0]	n/a	FR1	3	R1292E
1209.041	0.0	1209245	ORIENT_END	n/a	n/a	n/a	-999	7	[0, 0, 0]	n/a	FR1	3	R1292E
1209.041	0.801	1209245	ENCODING_START	n/a	n/a	n/a	-999	7	[0, 0, 0]	n/a	FR1	3	R1292E
1209.842	1.634	1210046	WORD	n/a	n/a	SPRING	1	7	[0, 0, 0]	n/a	FR1	3	R1292E
1211.476	0.814	1211680	WORD_OFF	n/a	n/a	SPRING	1	7	[0, 0, 0]	n/a	FR1	3	R1292E
1212.29	1.635	1212494	WORD	n/a	n/a	WHALE	2	7	[0, 0, 0]	n/a	FR1	3	R1292E
1213.925	1.046	1214129	WORD_OFF	n/a	n/a	WHALE	2	7	[0, 0, 0]	n/a	FR1	3	R1292E
1214.971	1.605	1215175	WORD	n/a	n/a	LEAF	3	7	[0, 0, 0]	n/a	FR1	3	R1292E
1216.576	0.768	1216780	WORD_OFF	n/a	n/a	LEAF	3	7	[0, 0, 0]	n/a	FR1	3	R1292E
1217.344	1.632	1217548	WORD	n/a	n/a	HORSE	4	7	[0, 0, 0]	n/a	FR1	3	R1292E
1218.976	1.083	1219180	WORD_OFF	n/a	n/a	HORSE	4	7	[0, 0, 0]	n/a	FR1	3	R1292E
1220.059	1.634	1220263	WORD	n/a	n/a	FARM	5	7	[0, 0, 0]	n/a	FR1	3	R1292E
1221.693	0.999	1221897	WORD_OFF	n/a	n/a	FARM	5	7	[0, 0, 0]	n/a	FR1	3	R1292E
1222.692	1.635	1222896	WORD	n/a	n/a	CAT	6	7	[0, 0, 0]	n/a	FR1	3	R1292E
1224.327	1.083	1224530	WORD_OFF	n/a	n/a	CAT	6	7	[0, 0, 0]	n/a	FR1	3	R1292E
1225.41	1.634	1225613	WORD	n/a	n/a	STRING	7	7	[0, 0, 0]	n/a	FR1	3	R1292E
1227.044	1.074	1227247	WORD_OFF	n/a	n/a	STRING	7	7	[0, 0, 0]	n/a	FR1	3	R1292E
1228.118	1.627	1228321	WORD	n/a	n/a	MUG	8	7	[0, 0, 0]	n/a	FR1	3	R1292E
1229.745	0.993	1229948	WORD_OFF	n/a	n/a	MUG	8	7	[0, 0, 0]	n/a	FR1	3	R1292E
1230.738	1.624	1230941	WORD	n/a	n/a	SHEET	9	7	[0, 0, 0]	n/a	FR1	3	R1292E
1232.362	1.124	1232565	WORD_OFF	n/a	n/a	SHEET	9	7	[0, 0, 0]	n/a	FR1	3	R1292E
1233.486	1.626	1233689	WORD	n/a	n/a	HOOF	10	7	[0, 0, 0]	n/a	FR1	3	R1292E
1235.112	1.061	1235315	WORD_OFF	n/a	n/a	HOOF	10	7	[0, 0, 0]	n/a	FR1	3	R1292E
1236.173	1.623	1236376	WORD	n/a	n/a	CROW	11	7	[0, 0, 0]	n/a	FR1	3	R1292E
1237.796	0.971	1237999	WORD_OFF	n/a	n/a	CROW	11	7	[0, 0, 0]	n/a	FR1	3	R1292E
1238.767	1.629	1238970	WORD	n/a	n/a	BRICK	12	7	[0, 0, 0]	n/a	FR1	3	R1292E
1240.396	0.001	1240599	WORD_OFF	n/a	n/a	BRICK	12	7	[0, 0, 0]	n/a	FR1	3	R1292E
1240.397	0.0	1240600	ENCODING_END	n/a	n/a	n/a	-999	7	[0, 0, 0]	n/a	FR1	3	R1292E
1240.397	0.0	1240600	DISTRACT_START	n/a	n/a	n/a	-999	7	[0, 0, 0]	n/a	FR1	3	R1292E
1240.397	0.016	1240600	START	n/a	n/a	n/a	-999	7	[-999, -999, -999]	n/a	FR1	3	R1292E
1240.413	8.668	1240616	PROB	8.668	n/a	n/a	-999	7	[3, 6, 9]	18	FR1	3	R1292E
1249.081	3.901	1249284	PROB	3.901	n/a	n/a	-999	7	[2, 5, 8]	15	FR1	3	R1292E
1252.982	6.851	1253184	PROB	6.851	n/a	n/a	-999	7	[7, 4, 8]	19	FR1	3	R1292E
1259.833	3.61	1260035	PROB	3.61	n/a	n/a	-999	7	[5, 5, 9]	19	FR1	3	R1292E
1263.443	0.008	1263645	STOP	n/a	n/a	n/a	-999	7	[-999, -999, -999]	n/a	FR1	3	R1292E
1263.451	0.699	1263653	DISTRACT_END	n/a	n/a	n/a	-999	7	[0, 0, 0]	n/a	FR1	3	R1292E
1264.15	1.634	1264352	RETRIEVAL_ORIENT_START	n/a	n/a	n/a	-999	7	[0, 0, 0]	n/a	FR1	3	R1292E
1265.784	0.0	1265986	RETRIEVAL_ORIENT_END	n/a	n/a	n/a	-999	7	[0, 0, 0]	n/a	FR1	3	R1292E
1265.784	0.659	1265986	REC_START	n/a	n/a	n/a	-999	7	[0, 0, 0]	n/a	FR1	3	R1292E
1266.443	1.0	1266645	REC_WORD	1.0	n/a	SPRING	1	7	[0, 0, 0]	n/a	FR1	3	R1292E
1267.443	1.057	1267645	REC_WORD_VV	1.057	n/a	<>	-999	7	[0, 0, 0]	n/a	FR1	3	R1292E
1268.5	8.348	1268702	REC_WORD	8.348	n/a	STRING	7	7	[0, 0, 0]	n/a	FR1	3	R1292E
1276.848	6.32	1277050	REC_WORD_VV	6.32	n/a	<>	-999	7	[0, 0, 0]	n/a	FR1	3	R1292E
1283.168	3.315	1283369	REC_WORD	3.315	n/a	WHALE	2	7	[0, 0, 0]	n/a	FR1	3	R1292E
1286.483	9.313	1286684	REC_WORD	9.313	n/a	COW	-999	7	[0, 0, 0]	n/a	FR1	3	R1292E
1295.796	0.0	1295997	REC_END	n/a	n/a	n/a	-999	7	[0, 0, 0]	n/a	FR1	3	R1292E
1295.796	0.018	1295997	TRIAL_END	n/a	n/a	n/a	-999	7	[0, 0, 0]	n/a	FR1	3	R1292E
1295.814	0.0	1296015	TRIAL_START	n/a	n/a	n/a	-999	8	[0, 0, 0]	n/a	FR1	3	R1292E
1295.814	0.001	1296015	TRIAL	n/a	n/a	n/a	-999	8	[0, 0, 0]	n/a	FR1	3	R1292E
1295.815	179.139	1296016	WAITING_START	n/a	n/a	n/a	-999	8	[0, 0, 0]	n/a	FR1	3	R1292E
1474.954	0.001	1475149	WAITING_END	n/a	n/a	n/a	-999	8	[0, 0, 0]	n/a	FR1	3	R1292E
1474.955	10.428	1475150	COUNTDOWN_START	n/a	n/a	n/a	-999	8	[0, 0, 0]	n/a	FR1	3	R1292E
1485.383	0.0	1485577	COUNTDOWN_END	n/a	n/a	n/a	-999	8	[0, 0, 0]	n/a	FR1	3	R1292E
1485.383	1.124	1485577	ORIENT_START	n/a	n/a	n/a	-999	8	[0, 0, 0]	n/a	FR1	3	R1292E
1486.507	0.0	1486701	ORIENT_END	n/a	n/a	n/a	-999	8	[0, 0, 0]	n/a	FR1	3	R1292E
1486.507	0.969	1486701	ENCODING_START	n/a	n/a	n/a	-999	8	[0, 0, 0]	n/a	FR1	3	R1292E
1487.476	1.63	1487670	WORD	n/a	n/a	ROOF	1	8	[0, 0, 0]	n/a	FR1	3	R1292E
1489.106	1.054	1489300	WORD_OFF	n/a	n/a	ROOF	1	8	[0, 0, 0]	n/a	FR1	3	R1292E
1490.16	1.63	1490354	WORD	n/a	n/a	KEY	2	8	[0, 0, 0]	n/a	FR1	3	R1292E
1491.79	1.112	1491984	WORD_OFF	n/a	n/a	KEY	2	8	[0, 0, 0]	n/a	FR1	3	R1292E
1492.902	1.623	1493096	WORD	n/a	n/a	BARN	3	8	[0, 0, 0]	n/a	FR1	3	R1292E
1494.525	0.958	1494719	WORD_OFF	n/a	n/a	BARN	3	8	[0, 0, 0]	n/a	FR1	3	R1292E
1495.483	1.625	1495677	WORD	n/a	n/a	ICE	4	8	[0, 0, 0]	n/a	FR1	3	R1292E
1497.108	1.039	1497302	WORD_OFF	n/a	n/a	ICE	4	8	[0, 0, 0]	n/a	FR1	3	R1292E
1498.147	1.628	1498341	WORD	n/a	n/a	BAND	5	8	[0, 0, 0]	n/a	FR1	3	R1292E
1499.775	0.789	1499969	WORD_OFF	n/a	n/a	BAND	5	8	[0, 0, 0]	n/a	FR1	3	R1292E
1500.564	1.628	1500758	WORD	n/a	n/a	CHEEK	6	8	[0, 0, 0]	n/a	FR1	3	R1292E
1502.192	0.823	1502386	WORD_OFF	n/a	n/a	CHEEK	6	8	[0, 0, 0]	n/a	FR1	3	R1292E
1503.015	1.628	1503209	WORD	n/a	n/a	HORN	7	8	[0, 0, 0]	n/a	FR1	3	R1292E
1504.643	1.028	1504837	WORD_OFF	n/a	n/a	HORN	7	8	[0, 0, 0]	n/a	FR1	3	R1292E
1505.671	1.622	1505865	WORD	n/a	n/a	HAT	8	8	[0, 0, 0]	n/a	FR1	3	R1292E
1507.293	0.998	1507487	WORD_OFF	n/a	n/a	HAT	8	8	[0, 0, 0]	n/a	FR1	3	R1292E
1508.291	1.636	1508484	WORD	n/a	n/a	BRUSH	9	8	[0, 0, 0]	n/a	FR1	3	R1292E
1509.927	1.116	1510120	WORD_OFF	n/a	n/a	BRUSH	9	8	[0, 0, 0]	n/a	FR1	3	R1292E
1511.043	1.634	1511236	WORD	n/a	n/a	BATH	10	8	[0, 0, 0]	n/a	FR1	3	R1292E
1512.677	0.818	1512870	WORD_OFF	n/a	n/a	BATH	10	8	[0, 0, 0]	n/a	FR1	3	R1292E
1513.495	1.633	1513688	WORD	n/a	n/a	HOUSE	11	8	[0, 0, 0]	n/a	FR1	3	R1292E
1515.128	1.06	1515321	WORD_OFF	n/a	n/a	HOUSE	11	8	[0, 0, 0]	n/a	FR1	3	R1292E
1516.188	1.624	1516381	WORD	n/a	n/a	SKY	12	8	[0, 0, 0]	n/a	FR1	3	R1292E
1517.812	0.0	1518005	DISTRACT_START	n/a	n/a	n/a	-999	8	[0, 0, 0]	n/a	FR1	3	R1292E
1517.812	0.0	1518005	WORD_OFF	n/a	n/a	SKY	12	8	[0, 0, 0]	n/a	FR1	3	R1292E
1517.812	0.0	1518005	ENCODING_END	n/a	n/a	n/a	-999	8	[0, 0, 0]	n/a	FR1	3	R1292E
1517.812	0.016	1518005	START	n/a	n/a	n/a	-999	8	[-999, -999, -999]	n/a	FR1	3	R1292E
1517.828	14.152	1518021	PROB	14.152	n/a	n/a	-999	8	[9, 2, 5]	16	FR1	3	R1292E
1531.98	11.506	1532173	PROB	11.506	n/a	n/a	-999	8	[3, 6, 5]	14	FR1	3	R1292E
1543.486	0.014	1543678	STOP	n/a	n/a	n/a	-999	8	[-999, -999, -999]	n/a	FR1	3	R1292E
1543.5	0.565	1543692	DISTRACT_END	n/a	n/a	n/a	-999	8	[0, 0, 0]	n/a	FR1	3	R1292E
1544.065	1.568	1544257	RETRIEVAL_ORIENT_START	n/a	n/a	n/a	-999	8	[0, 0, 0]	n/a	FR1	3	R1292E
1545.633	0.0	1545825	RETRIEVAL_ORIENT_END	n/a	n/a	n/a	-999	8	[0, 0, 0]	n/a	FR1	3	R1292E
1545.633	1.199	1545825	REC_START	n/a	n/a	n/a	-999	8	[0, 0, 0]	n/a	FR1	3	R1292E
1546.832	1.39	1547024	REC_WORD	1.39	n/a	ROOF	1	8	[0, 0, 0]	n/a	FR1	3	R1292E
1548.222	1.18	1548414	REC_WORD	1.18	n/a	KEY	2	8	[0, 0, 0]	n/a	FR1	3	R1292E
1549.402	1.379	1549594	REC_WORD	1.379	n/a	CHEEK	6	8	[0, 0, 0]	n/a	FR1	3	R1292E
1550.781	1.357	1550973	REC_WORD	1.357	n/a	BARN	3	8	[0, 0, 0]	n/a	FR1	3	R1292E
1552.138	1.001	1552330	REC_WORD	1.001	n/a	BATH	10	8	[0, 0, 0]	n/a	FR1	3	R1292E
1553.139	1.041	1553331	REC_WORD	1.041	n/a	HOUSE	11	8	[0, 0, 0]	n/a	FR1	3	R1292E
1554.18	1.0	1554372	REC_WORD	1.0	n/a	SKY	12	8	[0, 0, 0]	n/a	FR1	3	R1292E
1555.18	20.464	1555372	REC_WORD_VV	20.464	n/a	<>	-999	8	[0, 0, 0]	n/a	FR1	3	R1292E
1575.644	0.001	1575835	REC_END	n/a	n/a	n/a	-999	8	[0, 0, 0]	n/a	FR1	3	R1292E
1575.645	0.017	1575836	TRIAL_END	n/a	n/a	n/a	-999	8	[0, 0, 0]	n/a	FR1	3	R1292E
1575.662	0.0	1575853	TRIAL_START	n/a	n/a	n/a	-999	9	[0, 0, 0]	n/a	FR1	3	R1292E
1575.662	0.001	1575853	TRIAL	n/a	n/a	n/a	-999	9	[0, 0, 0]	n/a	FR1	3	R1292E
1575.663	62.37	1575854	WAITING_START	n/a	n/a	n/a	-999	9	[0, 0, 0]	n/a	FR1	3	R1292E
1638.033	0.0	1638222	WAITING_END	n/a	n/a	n/a	-999	9	[0, 0, 0]	n/a	FR1	3	R1292E
1638.033	10.428	1638222	COUNTDOWN_START	n/a	n/a	n/a	-999	9	[0, 0, 0]	n/a	FR1	3	R1292E
1648.461	0.001	1648650	COUNTDOWN_END	n/a	n/a	n/a	-999	9	[0, 0, 0]	n/a	FR1	3	R1292E
1648.462	1.256	1648651	ORIENT_START	n/a	n/a	n/a	-999	9	[0, 0, 0]	n/a	FR1	3	R1292E
1649.718	0.0	1649907	ORIENT_END	n/a	n/a	n/a	-999	9	[0, 0, 0]	n/a	FR1	3	R1292E
1649.718	0.982	1649907	ENCODING_START	n/a	n/a	n/a	-999	9	[0, 0, 0]	n/a	FR1	3	R1292E
1650.7	1.635	1650888	WORD	n/a	n/a	PIT	1	9	[0, 0, 0]	n/a	FR1	3	R1292E
1652.335	1.11	1652523	WORD_OFF	n/a	n/a	PIT	1	9	[0, 0, 0]	n/a	FR1	3	R1292E
1653.445	1.624	1653633	WORD	n/a	n/a	LAND	2	9	[0, 0, 0]	n/a	FR1	3	R1292E
1655.069	1.013	1655257	WORD_OFF	n/a	n/a	LAND	2	9	[0, 0, 0]	n/a	FR1	3	R1292E
1656.082	1.637	1656270	WORD	n/a	n/a	FROG	3	9	[0, 0, 0]	n/a	FR1	3	R1292E
1657.719	1.089	1657907	WORD_OFF	n/a	n/a	FROG	3	9	[0, 0, 0]	n/a	FR1	3	R1292E
1658.808	1.613	1658996	WORD	n/a	n/a	CRANE	4	9	[0, 0, 0]	n/a	FR1	3	R1292E
1660.421	1.002	1660609	WORD_OFF	n/a	n/a	CRANE	4	9	[0, 0, 0]	n/a	FR1	3	R1292E
1661.423	1.631	1661611	WORD	n/a	n/a	CORD	5	9	[0, 0, 0]	n/a	FR1	3	R1292E
1663.054	1.014	1663242	WORD_OFF	n/a	n/a	CORD	5	9	[0, 0, 0]	n/a	FR1	3	R1292E
1664.068	1.636	1664256	WORD	n/a	n/a	ARM	6	9	[0, 0, 0]	n/a	FR1	3	R1292E
1665.704	0.954	1665892	WORD_OFF	n/a	n/a	ARM	6	9	[0, 0, 0]	n/a	FR1	3	R1292E
1666.658	1.63	1666846	WORD	n/a	n/a	CHAIR	7	9	[0, 0, 0]	n/a	FR1	3	R1292E
1668.288	0.76	1668476	WORD_OFF	n/a	n/a	CHAIR	7	9	[0, 0, 0]	n/a	FR1	3	R1292E
1669.048	1.624	1669236	WORD	n/a	n/a	RAKE	8	9	[0, 0, 0]	n/a	FR1	3	R1292E
1670.672	1.105	1670860	WORD_OFF	n/a	n/a	RAKE	8	9	[0, 0, 0]	n/a	FR1	3	R1292E
1671.777	1.628	1671965	WORD	n/a	n/a	LOCK	9	9	[0, 0, 0]	n/a	FR1	3	R1292E
1673.405	0.763	1673593	WORD_OFF	n/a	n/a	LOCK	9	9	[0, 0, 0]	n/a	FR1	3	R1292E
1674.168	1.621	1674356	WORD	n/a	n/a	JUICE	10	9	[0, 0, 0]	n/a	FR1	3	R1292E
1675.789	0.847	1675977	WORD_OFF	n/a	n/a	JUICE	10	9	[0, 0, 0]	n/a	FR1	3	R1292E
1676.636	1.62	1676824	WORD	n/a	n/a	LIP	11	9	[0, 0, 0]	n/a	FR1	3	R1292E
1678.256	0.811	1678444	WORD_OFF	n/a	n/a	LIP	11	9	[0, 0, 0]	n/a	FR1	3	R1292E
1679.067	1.623	1679254	WORD	n/a	n/a	RIB	12	9	[0, 0, 0]	n/a	FR1	3	R1292E
1680.69	0.0	1680877	WORD_OFF	n/a	n/a	RIB	12	9	[0, 0, 0]	n/a	FR1	3	R1292E
1680.69	0.001	1680877	ENCODING_END	n/a	n/a	n/a	-999	9	[0, 0, 0]	n/a	FR1	3	R1292E
1680.691	0.0	1680878	DISTRACT_START	n/a	n/a	n/a	-999	9	[0, 0, 0]	n/a	FR1	3	R1292E
1680.691	0.015	1680878	START	n/a	n/a	n/a	-999	9	[-999, -999, -999]	n/a	FR1	3	R1292E
1680.706	5.068	1680893	PROB	5.068	n/a	n/a	-999	9	[2, 5, 4]	11	FR1	3	R1292E
1685.774	13.969	1685961	PROB	13.969	n/a	n/a	-999	9	[8, 8, 8]	24	FR1	3	R1292E
1699.743	12.34	1699930	PROB	12.34	n/a	n/a	-999	9	[6, 4, 9]	19	FR1	3	R1292E
1712.083	0.012	1712269	STOP	n/a	n/a	n/a	-999	9	[-999, -999, -999]	n/a	FR1	3	R1292E
1712.095	0.664	1712281	DISTRACT_END	n/a	n/a	n/a	-999	9	[0, 0, 0]	n/a	FR1	3	R1292E
1712.759	1.721	1712945	RETRIEVAL_ORIENT_START	n/a	n/a	n/a	-999	9	[0, 0, 0]	n/a	FR1	3	R1292E
1714.48	0.001	1714666	RETRIEVAL_ORIENT_END	n/a	n/a	n/a	-999	9	[0, 0, 0]	n/a	FR1	3	R1292E
1714.481	0.699	1714667	REC_START	n/a	n/a	n/a	-999	9	[0, 0, 0]	n/a	FR1	3	R1292E
1715.18	1.295	1715366	REC_WORD	1.295	n/a	LIP	11	9	[0, 0, 0]	n/a	FR1	3	R1292E
1716.475	1.248	1716661	REC_WORD	1.248	n/a	RAKE	8	9	[0, 0, 0]	n/a	FR1	3	R1292E
1717.723	1.054	1717909	REC_WORD	1.054	n/a	JUICE	10	9	[0, 0, 0]	n/a	FR1	3	R1292E
1718.777	3.547	1718963	REC_WORD	3.547	n/a	PIT	1	9	[0, 0, 0]	n/a	FR1	3	R1292E
1722.324	1.39	1722510	REC_WORD	1.39	n/a	ARM	6	9	[0, 0, 0]	n/a	FR1	3	R1292E
1723.714	6.499	1723900	REC_WORD	6.499	n/a	CHAIR	7	9	[0, 0, 0]	n/a	FR1	3	R1292E
1730.213	14.28	1730399	REC_WORD	14.28	n/a	FROG	3	9	[0, 0, 0]	n/a	FR1	3	R1292E
1744.493	0.001	1744678	REC_END	n/a	n/a	n/a	-999	9	[0, 0, 0]	n/a	FR1	3	R1292E
1744.494	0.017	1744679	TRIAL_END	n/a	n/a	n/a	-999	9	[0, 0, 0]	n/a	FR1	3	R1292E
1744.511	0.001	1744696	TRIAL_START	n/a	n/a	n/a	-999	10	[0, 0, 0]	n/a	FR1	3	R1292E
1744.512	0.0	1744697	TRIAL	n/a	n/a	n/a	-999	10	[0, 0, 0]	n/a	FR1	3	R1292E
1744.512	5.474	1744697	WAITING_START	n/a	n/a	n/a	-999	10	[0, 0, 0]	n/a	FR1	3	R1292E
1749.986	0.0	1750171	WAITING_END	n/a	n/a	n/a	-999	10	[0, 0, 0]	n/a	FR1	3	R1292E
1749.986	10.429	1750171	COUNTDOWN_START	n/a	n/a	n/a	-999	10	[0, 0, 0]	n/a	FR1	3	R1292E
1760.415	0.001	1760600	COUNTDOWN_END	n/a	n/a	n/a	-999	10	[0, 0, 0]	n/a	FR1	3	R1292E
1760.416	1.039	1760601	ORIENT_START	n/a	n/a	n/a	-999	10	[0, 0, 0]	n/a	FR1	3	R1292E
1761.455	0.0	1761640	ORIENT_END	n/a	n/a	n/a	-999	10	[0, 0, 0]	n/a	FR1	3	R1292E
1761.455	0.953	1761640	ENCODING_START	n/a	n/a	n/a	-999	10	[0, 0, 0]	n/a	FR1	3	R1292E
1762.408	1.63	1762593	WORD	n/a	n/a	TENT	1	10	[0, 0, 0]	n/a	FR1	3	R1292E
1764.038	0.902	1764222	WORD_OFF	n/a	n/a	TENT	1	10	[0, 0, 0]	n/a	FR1	3	R1292E
1764.94	1.616	1765124	WORD	n/a	n/a	WALL	2	10	[0, 0, 0]	n/a	FR1	3	R1292E
1766.556	0.863	1766740	WORD_OFF	n/a	n/a	WALL	2	10	[0, 0, 0]	n/a	FR1	3	R1292E
1767.419	1.636	1767603	WORD	n/a	n/a	STONE	3	10	[0, 0, 0]	n/a	FR1	3	R1292E
1769.055	0.797	1769239	WORD_OFF	n/a	n/a	STONE	3	10	[0, 0, 0]	n/a	FR1	3	R1292E
1769.852	1.604	1770036	WORD	n/a	n/a	SIGN	4	10	[0, 0, 0]	n/a	FR1	3	R1292E
1771.456	0.773	1771640	WORD_OFF	n/a	n/a	SIGN	4	10	[0, 0, 0]	n/a	FR1	3	R1292E
1772.229	1.627	1772413	WORD	n/a	n/a	FUR	5	10	[0, 0, 0]	n/a	FR1	3	R1292E
1773.856	1.027	1774040	WORD_OFF	n/a	n/a	FUR	5	10	[0, 0, 0]	n/a	FR1	3	R1292E
1774.883	1.625	1775067	WORD	n/a	n/a	PEARL	6	10	[0, 0, 0]	n/a	FR1	3	R1292E
1776.508	0.753	1776692	WORD_OFF	n/a	n/a	PEARL	6	10	[0, 0, 0]	n/a	FR1	3	R1292E
1777.261	1.63	1777445	WORD	n/a	n/a	SEAT	7	10	[0, 0, 0]	n/a	FR1	3	R1292E
1778.891	1.016	1779075	WORD_OFF	n/a	n/a	SEAT	7	10	[0, 0, 0]	n/a	FR1	3	R1292E
1779.907	1.635	1780091	WORD	n/a	n/a	NAIL	8	10	[0, 0, 0]	n/a	FR1	3	R1292E
1781.542	0.781	1781726	WORD_OFF	n/a	n/a	NAIL	8	10	[0, 0, 0]	n/a	FR1	3	R1292E
1782.323	1.635	1782507	WORD	n/a	n/a	FORK	9	10	[0, 0, 0]	n/a	FR1	3	R1292E
1783.958	1.084	1784142	WORD_OFF	n/a	n/a	FORK	9	10	[0, 0, 0]	n/a	FR1	3	R1292E
1785.042	1.633	1785226	WORD	n/a	n/a	WEB	10	10	[0, 0, 0]	n/a	FR1	3	R1292E
1786.675	0.841	1786859	WORD_OFF	n/a	n/a	WEB	10	10	[0, 0, 0]	n/a	FR1	3	R1292E
1787.516	1.626	1787700	WORD	n/a	n/a	DEER	11	10	[0, 0, 0]	n/a	FR1	3	R1292E
1789.142	1.038	1789326	WORD_OFF	n/a	n/a	DEER	11	10	[0, 0, 0]	n/a	FR1	3	R1292E
1790.18	1.629	1790364	WORD	n/a	n/a	VEST	12	10	[0, 0, 0]	n/a	FR1	3	R1292E
1791.809	0.001	1791993	WORD_OFF	n/a	n/a	VEST	12	10	[0, 0, 0]	n/a	FR1	3	R1292E
1791.81	0.0	1791994	ENCODING_END	n/a	n/a	n/a	-999	10	[0, 0, 0]	n/a	FR1	3	R1292E
1791.81	0.0	1791994	DISTRACT_START	n/a	n/a	n/a	-999	10	[0, 0, 0]	n/a	FR1	3	R1292E
1791.81	0.016	1791994	START	n/a	n/a	n/a	-999	10	[-999, -999, -999]	n/a	FR1	3	R1292E
1791.826	7.018	1792010	PROB	7.018	n/a	n/a	-999	10	[2, 7, 5]	14	FR1	3	R1292E
1798.844	3.917	1799027	PROB	3.917	n/a	n/a	-999	10	[3, 5, 8]	16	FR1	3	R1292E
1802.761	11.35	1802944	PROB	11.35	n/a	n/a	-999	10	[7, 9, 4]	20	FR1	3	R1292E
1814.111	0.019	1814294	STOP	n/a	n/a	n/a	-999	10	[-999, -999, -999]	n/a	FR1	3	R1292E
1814.13	0.568	1814313	DISTRACT_END	n/a	n/a	n/a	-999	10	[0, 0, 0]	n/a	FR1	3	R1292E
1814.698	1.532	1814881	RETRIEVAL_ORIENT_START	n/a	n/a	n/a	-999	10	[0, 0, 0]	n/a	FR1	3	R1292E
1816.23	0.001	1816413	RETRIEVAL_ORIENT_END	n/a	n/a	n/a	-999	10	[0, 0, 0]	n/a	FR1	3	R1292E
1816.231	0.514	1816414	REC_START	n/a	n/a	n/a	-999	10	[0, 0, 0]	n/a	FR1	3	R1292E
1816.745	0.832	1816928	REC_WORD	0.832	n/a	VEST	12	10	[0, 0, 0]	n/a	FR1	3	R1292E
1817.577	0.909	1817760	REC_WORD	0.909	n/a	FUR	5	10	[0, 0, 0]	n/a	FR1	3	R1292E
1818.486	27.756	1818669	REC_WORD	27.756	n/a	TENT	1	10	[0, 0, 0]	n/a	FR1	3	R1292E
1846.242	0.0	1846424	REC_END	n/a	n/a	n/a	-999	10	[0, 0, 0]	n/a	FR1	3	R1292E
1846.242	0.018	1846424	TRIAL_END	n/a	n/a	n/a	-999	10	[0, 0, 0]	n/a	FR1	3	R1292E
1846.26	0.0	1846442	TRIAL_START	n/a	n/a	n/a	-999	11	[0, 0, 0]	n/a	FR1	3	R1292E
1846.26	0.001	1846442	TRIAL	n/a	n/a	n/a	-999	11	[0, 0, 0]	n/a	FR1	3	R1292E
1846.261	7.743	1846443	WAITING_START	n/a	n/a	n/a	-999	11	[0, 0, 0]	n/a	FR1	3	R1292E
1854.004	0.0	1854185	COUNTDOWN_START	n/a	n/a	n/a	-999	11	[0, 0, 0]	n/a	FR1	3	R1292E
1854.004	10.428	1854185	WAITING_END	n/a	n/a	n/a	-999	11	[0, 0, 0]	n/a	FR1	3	R1292E
1864.432	0.0	1864613	COUNTDOWN_END	n/a	n/a	n/a	-999	11	[0, 0, 0]	n/a	FR1	3	R1292E
1864.432	1.207	1864613	ORIENT_START	n/a	n/a	n/a	-999	11	[0, 0, 0]	n/a	FR1	3	R1292E
1865.639	0.0	1865820	ORIENT_END	n/a	n/a	n/a	-999	11	[0, 0, 0]	n/a	FR1	3	R1292E
1865.639	0.842	1865820	ENCODING_START	n/a	n/a	n/a	-999	11	[0, 0, 0]	n/a	FR1	3	R1292E
1866.481	1.625	1866662	WORD	n/a	n/a	TEA	1	11	[0, 0, 0]	n/a	FR1	3	R1292E
1868.106	0.834	1868287	WORD_OFF	n/a	n/a	TEA	1	11	[0, 0, 0]	n/a	FR1	3	R1292E
1868.94	1.634	1869121	WORD	n/a	n/a	MUD	2	11	[0, 0, 0]	n/a	FR1	3	R1292E
1870.574	0.859	1870755	WORD_OFF	n/a	n/a	MUD	2	11	[0, 0, 0]	n/a	FR1	3	R1292E
1871.433	1.624	1871614	WORD	n/a	n/a	GATE	3	11	[0, 0, 0]	n/a	FR1	3	R1292E
1873.057	0.827	1873238	WORD_OFF	n/a	n/a	GATE	3	11	[0, 0, 0]	n/a	FR1	3	R1292E
1873.884	1.607	1874065	WORD	n/a	n/a	TOE	4	11	[0, 0, 0]	n/a	FR1	3	R1292E
1875.491	0.859	1875672	WORD_OFF	n/a	n/a	TOE	4	11	[0, 0, 0]	n/a	FR1	3	R1292E
1876.35	1.625	1876531	WORD	n/a	n/a	CUP	5	11	[0, 0, 0]	n/a	FR1	3	R1292E
1877.975	0.811	1878155	WORD_OFF	n/a	n/a	CUP	5	11	[0, 0, 0]	n/a	FR1	3	R1292E
1878.786	1.622	1878966	WORD	n/a	n/a	JAIL	6	11	[0, 0, 0]	n/a	FR1	3	R1292E
1880.408	0.897	1880588	WORD_OFF	n/a	n/a	JAIL	6	11	[0, 0, 0]	n/a	FR1	3	R1292E
1881.305	1.62	1881485	WORD	n/a	n/a	PEAR	7	11	[0, 0, 0]	n/a	FR1	3	R1292E
1882.925	0.977	1883105	WORD_OFF	n/a	n/a	PEAR	7	11	[0, 0, 0]	n/a	FR1	3	R1292E
1883.902	1.625	1884082	WORD	n/a	n/a	MAT	8	11	[0, 0, 0]	n/a	FR1	3	R1292E
1885.527	0.961	1885707	WORD_OFF	n/a	n/a	MAT	8	11	[0, 0, 0]	n/a	FR1	3	R1292E
1886.488	1.622	1886668	WORD	n/a	n/a	TOAST	9	11	[0, 0, 0]	n/a	FR1	3	R1292E
1888.11	1.056	1888290	WORD_OFF	n/a	n/a	TOAST	9	11	[0, 0, 0]	n/a	FR1	3	R1292E
1889.166	1.627	1889346	WORD	n/a	n/a	ROSE	10	11	[0, 0, 0]	n/a	FR1	3	R1292E
1890.793	0.835	1890973	WORD_OFF	n/a	n/a	ROSE	10	11	[0, 0, 0]	n/a	FR1	3	R1292E
1891.628	1.633	1891808	WORD	n/a	n/a	CLIFF	11	11	[0, 0, 0]	n/a	FR1	3	R1292E
1893.261	0.882	1893441	WORD_OFF	n/a	n/a	CLIFF	11	11	[0, 0, 0]	n/a	FR1	3	R1292E
1894.143	1.635	1894323	WORD	n/a	n/a	ROCK	12	11	[0, 0, 0]	n/a	FR1	3	R1292E
1895.778	0.0	1895958	WORD_OFF	n/a	n/a	ROCK	12	11	[0, 0, 0]	n/a	FR1	3	R1292E
1895.778	0.0	1895958	ENCODING_END	n/a	n/a	n/a	-999	11	[0, 0, 0]	n/a	FR1	3	R1292E
1895.778	0.0	1895958	DISTRACT_START	n/a	n/a	n/a	-999	11	[0, 0, 0]	n/a	FR1	3	R1292E
1895.778	0.016	1895958	START	n/a	n/a	n/a	-999	11	[-999, -999, -999]	n/a	FR1	3	R1292E
1895.794	7.251	1895974	PROB	7.251	n/a	n/a	-999	11	[1, 7, 4]	15	FR1	3	R1292E
1903.045	7.152	1903225	PROB	7.152	n/a	n/a	-999	11	[7, 8, 5]	20	FR1	3	R1292E
1910.197	5.637	1910376	PROB	5.637	n/a	n/a	-999	11	[4, 8, 7]	18	FR1	3	R1292E
1915.834	0.014	1916013	STOP	n/a	n/a	n/a	-999	11	[-999, -999, -999]	n/a	FR1	3	R1292E
1915.848	0.599	1916027	DISTRACT_END	n/a	n/a	n/a	-999	11	[0, 0, 0]	n/a	FR1	3	R1292E
1916.447	1.668	1916626	RETRIEVAL_ORIENT_START	n/a	n/a	n/a	-999	11	[0, 0, 0]	n/a	FR1	3	R1292E
1918.115	0.0	1918294	RETRIEVAL_ORIENT_END	n/a	n/a	n/a	-999	11	[0, 0, 0]	n/a	FR1	3	R1292E
1918.115	4.374	1918294	REC_START	n/a	n/a	n/a	-999	11	[0, 0, 0]	n/a	FR1	3	R1292E
1922.489	0.84	1922668	REC_WORD	0.84	n/a	TEA	1	11	[0, 0, 0]	n/a	FR1	3	R1292E
1923.329	1.02	1923508	REC_WORD	1.02	n/a	TOAST	9	11	[0, 0, 0]	n/a	FR1	3	R1292E
1924.349	3.766	1924528	REC_WORD	3.766	n/a	JAIL	6	11	[0, 0, 0]	n/a	FR1	3	R1292E
1928.115	20.011	1928294	REC_WORD	20.011	n/a	PEAR	7	11	[0, 0, 0]	n/a	FR1	3	R1292E
1948.126	0.001	1948304	REC_END	n/a	n/a	n/a	-999	11	[0, 0, 0]	n/a	FR1	3	R1292E
1948.127	0.02	1948305	TRIAL_END	n/a	n/a	n/a	-999	11	[0, 0, 0]	n/a	FR1	3	R1292E
1948.147	0.0	1948325	TRIAL_START	n/a	n/a	n/a	-999	12	[0, 0, 0]	n/a	FR1	3	R1292E
1948.147	0.0	1948325	TRIAL	n/a	n/a	n/a	-999	12	[0, 0, 0]	n/a	FR1	3	R1292E
1948.147	1.19	1948325	WAITING_START	n/a	n/a	n/a	-999	12	[0, 0, 0]	n/a	FR1	3	R1292E
1949.337	0.0	1949515	WAITING_END	n/a	n/a	n/a	-999	12	[0, 0, 0]	n/a	FR1	3	R1292E
1949.337	10.43	1949515	COUNTDOWN_START	n/a	n/a	n/a	-999	12	[0, 0, 0]	n/a	FR1	3	R1292E
1959.767	0.0	1959945	ORIENT_START	n/a	n/a	n/a	-999	12	[0, 0, 0]	n/a	FR1	3	R1292E
1959.767	1.072	1959945	COUNTDOWN_END	n/a	n/a	n/a	-999	12	[0, 0, 0]	n/a	FR1	3	R1292E
1960.839	0.0	1961017	ORIENT_END	n/a	n/a	n/a	-999	12	[0, 0, 0]	n/a	FR1	3	R1292E
1960.839	0.915	1961017	ENCODING_START	n/a	n/a	n/a	-999	12	[0, 0, 0]	n/a	FR1	3	R1292E
1961.754	1.636	1961932	WORD	n/a	n/a	FISH	1	12	[0, 0, 0]	n/a	FR1	3	R1292E
1963.39	0.979	1963567	WORD_OFF	n/a	n/a	FISH	1	12	[0, 0, 0]	n/a	FR1	3	R1292E
1964.369	1.621	1964546	WORD	n/a	n/a	CLAY	2	12	[0, 0, 0]	n/a	FR1	3	R1292E
1965.99	1.099	1966167	WORD_OFF	n/a	n/a	CLAY	2	12	[0, 0, 0]	n/a	FR1	3	R1292E
1967.089	1.635	1967266	WORD	n/a	n/a	SHELL	3	12	[0, 0, 0]	n/a	FR1	3	R1292E
1968.724	0.979	1968901	WORD_OFF	n/a	n/a	SHELL	3	12	[0, 0, 0]	n/a	FR1	3	R1292E
1969.703	1.621	1969880	WORD	n/a	n/a	SAIL	4	12	[0, 0, 0]	n/a	FR1	3	R1292E
1971.324	0.856	1971501	WORD_OFF	n/a	n/a	SAIL	4	12	[0, 0, 0]	n/a	FR1	3	R1292E
1972.18	1.628	1972357	WORD	n/a	n/a	TIE	5	12	[0, 0, 0]	n/a	FR1	3	R1292E
1973.808	0.916	1973985	WORD_OFF	n/a	n/a	TIE	5	12	[0, 0, 0]	n/a	FR1	3	R1292E
1974.724	1.634	1974901	WORD	n/a	n/a	MAZE	6	12	[0, 0, 0]	n/a	FR1	3	R1292E
1976.358	0.996	1976535	WORD_OFF	n/a	n/a	MAZE	6	12	[0, 0, 0]	n/a	FR1	3	R1292E
1977.354	1.622	1977531	WORD	n/a	n/a	CLOWN	7	12	[0, 0, 0]	n/a	FR1	3	R1292E
1978.976	1.06	1979153	WORD_OFF	n/a	n/a	CLOWN	7	12	[0, 0, 0]	n/a	FR1	3	R1292E
1980.036	1.623	1980213	WORD	n/a	n/a	STOVE	8	12	[0, 0, 0]	n/a	FR1	3	R1292E
1981.659	0.934	1981836	WORD_OFF	n/a	n/a	STOVE	8	12	[0, 0, 0]	n/a	FR1	3	R1292E
1982.593	1.633	1982770	WORD	n/a	n/a	BROOM	9	12	[0, 0, 0]	n/a	FR1	3	R1292E
1984.226	0.989	1984403	WORD_OFF	n/a	n/a	BROOM	9	12	[0, 0, 0]	n/a	FR1	3	R1292E
1985.215	1.629	1985392	WORD	n/a	n/a	SHRIMP	10	12	[0, 0, 0]	n/a	FR1	3	R1292E
1986.844	0.907	1987021	WORD_OFF	n/a	n/a	SHRIMP	10	12	[0, 0, 0]	n/a	FR1	3	R1292E
1987.751	1.626	1987928	WORD	n/a	n/a	TAIL	11	12	[0, 0, 0]	n/a	FR1	3	R1292E
1989.377	1.013	1989554	WORD_OFF	n/a	n/a	TAIL	11	12	[0, 0, 0]	n/a	FR1	3	R1292E
1990.39	1.621	1990567	WORD	n/a	n/a	OAK	12	12	[0, 0, 0]	n/a	FR1	3	R1292E
1992.011	0.001	1992187	WORD_OFF	n/a	n/a	OAK	12	12	[0, 0, 0]	n/a	FR1	3	R1292E
1992.012	0.0	1992188	DISTRACT_START	n/a	n/a	n/a	-999	12	[0, 0, 0]	n/a	FR1	3	R1292E
1992.012	0.0	1992188	ENCODING_END	n/a	n/a	n/a	-999	12	[0, 0, 0]	n/a	FR1	3	R1292E
1992.012	0.016	1992188	START	n/a	n/a	n/a	-999	12	[-999, -999, -999]	n/a	FR1	3	R1292E
1992.028	4.134	1992204	PROB	4.134	n/a	n/a	-999	12	[3, 6, 4]	13	FR1	3	R1292E
1996.162	13.152	1996338	PROB	13.152	n/a	n/a	-999	12	[7, 9, 6]	21	FR1	3	R1292E
2009.314	5.767	2009490	PROB	5.767	n/a	n/a	-999	12	[8, 9, 5]	22	FR1	3	R1292E
2015.081	0.018	2015257	STOP	n/a	n/a	n/a	-999	12	[-999, -999, -999]	n/a	FR1	3	R1292E
2015.099	0.518	2015275	DISTRACT_END	n/a	n/a	n/a	-999	12	[0, 0, 0]	n/a	FR1	3	R1292E
2015.617	1.715	2015793	RETRIEVAL_ORIENT_START	n/a	n/a	n/a	-999	12	[0, 0, 0]	n/a	FR1	3	R1292E
2017.332	0.001	2017508	RETRIEVAL_ORIENT_END	n/a	n/a	n/a	-999	12	[0, 0, 0]	n/a	FR1	3	R1292E
2017.333	0.924	2017509	REC_START	n/a	n/a	n/a	-999	12	[0, 0, 0]	n/a	FR1	3	R1292E
2018.257	1.335	2018433	REC_WORD	1.335	n/a	CLOWN	7	12	[0, 0, 0]	n/a	FR1	3	R1292E
2019.592	1.82	2019768	REC_WORD	1.82	n/a	TIE	5	12	[0, 0, 0]	n/a	FR1	3	R1292E
2021.412	1.155	2021587	REC_WORD	1.155	n/a	MAZE	6	12	[0, 0, 0]	n/a	FR1	3	R1292E
2022.567	12.904	2022742	REC_WORD	12.904	n/a	SAIL	4	12	[0, 0, 0]	n/a	FR1	3	R1292E
2035.471	11.873	2035646	REC_WORD	11.873	n/a	SHIP	-999	12	[0, 0, 0]	n/a	FR1	3	R1292E
2047.344	0.0	2047519	REC_END	n/a	n/a	n/a	-999	12	[0, 0, 0]	n/a	FR1	3	R1292E
2047.344	0.018	2047519	TRIAL_END	n/a	n/a	n/a	-999	12	[0, 0, 0]	n/a	FR1	3	R1292E
2047.362	0.0	2047537	TRIAL_START	n/a	n/a	n/a	-999	13	[0, 0, 0]	n/a	FR1	3	R1292E
2047.362	0.0	2047537	TRIAL	n/a	n/a	n/a	-999	13	[0, 0, 0]	n/a	FR1	3	R1292E
2047.362	2.376	2047537	WAITING_START	n/a	n/a	n/a	-999	13	[0, 0, 0]	n/a	FR1	3	R1292E
2049.738	0.0	2049912	WAITING_END	n/a	n/a	n/a	-999	13	[0, 0, 0]	n/a	FR1	3	R1292E
2049.738	10.43	2049912	COUNTDOWN_START	n/a	n/a	n/a	-999	13	[0, 0, 0]	n/a	FR1	3	R1292E
2060.168	0.0	2060342	ORIENT_START	n/a	n/a	n/a	-999	13	[0, 0, 0]	n/a	FR1	3	R1292E
2060.168	1.039	2060342	COUNTDOWN_END	n/a	n/a	n/a	-999	13	[0, 0, 0]	n/a	FR1	3	R1292E
2061.207	0.0	2061381	ORIENT_END	n/a	n/a	n/a	-999	13	[0, 0, 0]	n/a	FR1	3	R1292E
2061.207	0.776	2061381	ENCODING_START	n/a	n/a	n/a	-999	13	[0, 0, 0]	n/a	FR1	3	R1292E
2061.983	1.608	2062157	WORD	n/a	n/a	PALM	1	13	[0, 0, 0]	n/a	FR1	3	R1292E
2063.591	1.109	2063765	WORD_OFF	n/a	n/a	PALM	1	13	[0, 0, 0]	n/a	FR1	3	R1292E
2064.7	1.624	2064874	WORD	n/a	n/a	CAR	2	13	[0, 0, 0]	n/a	FR1	3	R1292E
2066.324	1.136	2066498	WORD_OFF	n/a	n/a	CAR	2	13	[0, 0, 0]	n/a	FR1	3	R1292E
2067.46	1.631	2067634	WORD	n/a	n/a	MOTH	3	13	[0, 0, 0]	n/a	FR1	3	R1292E
2069.091	1.124	2069265	WORD_OFF	n/a	n/a	MOTH	3	13	[0, 0, 0]	n/a	FR1	3	R1292E
2070.215	1.627	2070389	WORD	n/a	n/a	FLAG	4	13	[0, 0, 0]	n/a	FR1	3	R1292E
2071.842	1.01	2072016	WORD_OFF	n/a	n/a	FLAG	4	13	[0, 0, 0]	n/a	FR1	3	R1292E
2072.852	1.608	2073026	WORD	n/a	n/a	SNAKE	5	13	[0, 0, 0]	n/a	FR1	3	R1292E
2074.46	1.06	2074634	WORD_OFF	n/a	n/a	SNAKE	5	13	[0, 0, 0]	n/a	FR1	3	R1292E
2075.52	1.623	2075694	WORD	n/a	n/a	BOX	6	13	[0, 0, 0]	n/a	FR1	3	R1292E
2077.143	0.876	2077317	WORD_OFF	n/a	n/a	BOX	6	13	[0, 0, 0]	n/a	FR1	3	R1292E
2078.019	1.624	2078192	WORD	n/a	n/a	TEETH	7	13	[0, 0, 0]	n/a	FR1	3	R1292E
2079.643	1.029	2079816	WORD_OFF	n/a	n/a	TEETH	7	13	[0, 0, 0]	n/a	FR1	3	R1292E
2080.672	1.622	2080845	WORD	n/a	n/a	POND	8	13	[0, 0, 0]	n/a	FR1	3	R1292E
2082.294	0.884	2082467	WORD_OFF	n/a	n/a	POND	8	13	[0, 0, 0]	n/a	FR1	3	R1292E
2083.178	1.633	2083351	WORD	n/a	n/a	BOOT	9	13	[0, 0, 0]	n/a	FR1	3	R1292E
2084.811	0.753	2084984	WORD_OFF	n/a	n/a	BOOT	9	13	[0, 0, 0]	n/a	FR1	3	R1292E
2085.564	1.631	2085737	WORD	n/a	n/a	WAVE	10	13	[0, 0, 0]	n/a	FR1	3	R1292E
2087.195	0.919	2087368	WORD_OFF	n/a	n/a	WAVE	10	13	[0, 0, 0]	n/a	FR1	3	R1292E
2088.114	1.631	2088287	WORD	n/a	n/a	RICE	11	13	[0, 0, 0]	n/a	FR1	3	R1292E
2089.745	1.151	2089918	WORD_OFF	n/a	n/a	RICE	11	13	[0, 0, 0]	n/a	FR1	3	R1292E
2090.896	1.634	2091069	WORD	n/a	n/a	CLOTH	12	13	[0, 0, 0]	n/a	FR1	3	R1292E
2092.53	0.0	2092703	ENCODING_END	n/a	n/a	n/a	-999	13	[0, 0, 0]	n/a	FR1	3	R1292E
2092.53	0.0	2092703	DISTRACT_START	n/a	n/a	n/a	-999	13	[0, 0, 0]	n/a	FR1	3	R1292E
2092.53	0.001	2092703	WORD_OFF	n/a	n/a	CLOTH	12	13	[0, 0, 0]	n/a	FR1	3	R1292E
2092.531	0.015	2092704	START	n/a	n/a	n/a	-999	13	[-999, -999, -999]	n/a	FR1	3	R1292E
2092.546	16.202	2092719	PROB	16.202	n/a	n/a	-999	13	[7, 8, 4]	19	FR1	3	R1292E
2108.748	10.527	2108920	PROB	10.527	n/a	n/a	-999	13	[7, 7, 6]	20	FR1	3	R1292E
2119.275	0.008	2119447	STOP	n/a	n/a	n/a	-999	13	[-999, -999, -999]	n/a	FR1	3	R1292E
2119.283	0.622	2119455	DISTRACT_END	n/a	n/a	n/a	-999	13	[0, 0, 0]	n/a	FR1	3	R1292E
2119.905	1.563	2120077	RETRIEVAL_ORIENT_START	n/a	n/a	n/a	-999	13	[0, 0, 0]	n/a	FR1	3	R1292E
2121.468	0.0	2121640	RETRIEVAL_ORIENT_END	n/a	n/a	n/a	-999	13	[0, 0, 0]	n/a	FR1	3	R1292E
2121.468	0.239	2121640	REC_START	n/a	n/a	n/a	-999	13	[0, 0, 0]	n/a	FR1	3	R1292E
2121.707	3.635	2121879	REC_WORD	3.635	n/a	SNAKE	5	13	[0, 0, 0]	n/a	FR1	3	R1292E
2125.342	1.155	2125514	REC_WORD	1.155	n/a	POND	8	13	[0, 0, 0]	n/a	FR1	3	R1292E
2126.497	2.182	2126669	REC_WORD	2.182	n/a	BOX	6	13	[0, 0, 0]	n/a	FR1	3	R1292E
2128.679	22.8	2128851	REC_WORD	22.8	n/a	CLOTH	12	13	[0, 0, 0]	n/a	FR1	3	R1292E
2151.479	0.001	2151650	REC_END	n/a	n/a	n/a	-999	13	[0, 0, 0]	n/a	FR1	3	R1292E
2151.48	0.018	2151651	TRIAL_END	n/a	n/a	n/a	-999	13	[0, 0, 0]	n/a	FR1	3	R1292E
2151.498	0.0	2151669	TRIAL_START	n/a	n/a	n/a	-999	14	[0, 0, 0]	n/a	FR1	3	R1292E
2151.498	0.0	2151669	TRIAL	n/a	n/a	n/a	-999	14	[0, 0, 0]	n/a	FR1	3	R1292E
2151.498	1.325	2151669	WAITING_START	n/a	n/a	n/a	-999	14	[0, 0, 0]	n/a	FR1	3	R1292E
2152.823	0.0	2152994	WAITING_END	n/a	n/a	n/a	-999	14	[0, 0, 0]	n/a	FR1	3	R1292E
2152.823	10.429	2152994	COUNTDOWN_START	n/a	n/a	n/a	-999	14	[0, 0, 0]	n/a	FR1	3	R1292E
2163.252	0.0	2163422	COUNTDOWN_END	n/a	n/a	n/a	-999	14	[0, 0, 0]	n/a	FR1	3	R1292E
2163.252	1.139	2163422	ORIENT_START	n/a	n/a	n/a	-999	14	[0, 0, 0]	n/a	FR1	3	R1292E
2164.391	0.001	2164561	ORIENT_END	n/a	n/a	n/a	-999	14	[0, 0, 0]	n/a	FR1	3	R1292E
2164.392	0.854	2164562	ENCODING_START	n/a	n/a	n/a	-999	14	[0, 0, 0]	n/a	FR1	3	R1292E
2165.246	1.629	2165416	WORD	n/a	n/a	BAT	1	14	[0, 0, 0]	n/a	FR1	3	R1292E
2166.875	1.102	2167045	WORD_OFF	n/a	n/a	BAT	1	14	[0, 0, 0]	n/a	FR1	3	R1292E
2167.977	1.632	2168147	WORD	n/a	n/a	POLE	2	14	[0, 0, 0]	n/a	FR1	3	R1292E
2169.609	0.908	2169779	WORD_OFF	n/a	n/a	POLE	2	14	[0, 0, 0]	n/a	FR1	3	R1292E
2170.517	1.626	2170687	WORD	n/a	n/a	PLANE	3	14	[0, 0, 0]	n/a	FR1	3	R1292E
2172.143	1.008	2172313	WORD_OFF	n/a	n/a	PLANE	3	14	[0, 0, 0]	n/a	FR1	3	R1292E
2173.151	1.626	2173321	WORD	n/a	n/a	SMOKE	4	14	[0, 0, 0]	n/a	FR1	3	R1292E
2174.777	1.136	2174947	WORD_OFF	n/a	n/a	SMOKE	4	14	[0, 0, 0]	n/a	FR1	3	R1292E
2175.913	1.632	2176083	WORD	n/a	n/a	JAR	5	14	[0, 0, 0]	n/a	FR1	3	R1292E
2177.545	1.076	2177715	WORD_OFF	n/a	n/a	JAR	5	14	[0, 0, 0]	n/a	FR1	3	R1292E
2178.621	1.623	2178791	WORD	n/a	n/a	BOMB	6	14	[0, 0, 0]	n/a	FR1	3	R1292E
2180.244	0.87	2180414	WORD_OFF	n/a	n/a	BOMB	6	14	[0, 0, 0]	n/a	FR1	3	R1292E
2181.114	1.631	2181284	WORD	n/a	n/a	WORM	7	14	[0, 0, 0]	n/a	FR1	3	R1292E
2182.745	1.116	2182915	WORD_OFF	n/a	n/a	WORM	7	14	[0, 0, 0]	n/a	FR1	3	R1292E
2183.861	1.618	2184031	WORD	n/a	n/a	GEESE	8	14	[0, 0, 0]	n/a	FR1	3	R1292E
2185.479	0.921	2185649	WORD_OFF	n/a	n/a	GEESE	8	14	[0, 0, 0]	n/a	FR1	3	R1292E
2186.4	1.629	2186570	WORD	n/a	n/a	PIE	9	14	[0, 0, 0]	n/a	FR1	3	R1292E
2188.029	1.035	2188199	WORD_OFF	n/a	n/a	PIE	9	14	[0, 0, 0]	n/a	FR1	3	R1292E
2189.064	1.632	2189234	WORD	n/a	n/a	LAMB	10	14	[0, 0, 0]	n/a	FR1	3	R1292E
2190.696	1.096	2190866	WORD_OFF	n/a	n/a	LAMB	10	14	[0, 0, 0]	n/a	FR1	3	R1292E
2191.792	1.621	2191961	WORD	n/a	n/a	THUMB	11	14	[0, 0, 0]	n/a	FR1	3	R1292E
2193.413	1.071	2193582	WORD_OFF	n/a	n/a	THUMB	11	14	[0, 0, 0]	n/a	FR1	3	R1292E
2194.484	1.63	2194653	WORD	n/a	n/a	BEACH	12	14	[0, 0, 0]	n/a	FR1	3	R1292E
2196.114	0.0	2196283	WORD_OFF	n/a	n/a	BEACH	12	14	[0, 0, 0]	n/a	FR1	3	R1292E
2196.114	0.0	2196283	ENCODING_END	n/a	n/a	n/a	-999	14	[0, 0, 0]	n/a	FR1	3	R1292E
2196.114	0.0	2196283	DISTRACT_START	n/a	n/a	n/a	-999	14	[0, 0, 0]	n/a	FR1	3	R1292E
2196.114	0.016	2196283	START	n/a	n/a	n/a	-999	14	[-999, -999, -999]	n/a	FR1	3	R1292E
2196.13	6.251	2196299	PROB	6.251	n/a	n/a	-999	14	[6, 3, 9]	18	FR1	3	R1292E
2202.381	4.818	2202550	PROB	4.818	n/a	n/a	-999	14	[4, 6, 8]	18	FR1	3	R1292E
2207.199	2.517	2207368	PROB	2.517	n/a	n/a	-999	14	[9, 2, 1]	12	FR1	3	R1292E
2209.716	8.594	2209885	PROB	8.594	n/a	n/a	-999	14	[9, 2, 1]	12	FR1	3	R1292E
2218.31	0.007	2218479	STOP	n/a	n/a	n/a	-999	14	[-999, -999, -999]	n/a	FR1	3	R1292E
2218.317	0.587	2218486	DISTRACT_END	n/a	n/a	n/a	-999	14	[0, 0, 0]	n/a	FR1	3	R1292E
2218.904	1.631	2219073	RETRIEVAL_ORIENT_START	n/a	n/a	n/a	-999	14	[0, 0, 0]	n/a	FR1	3	R1292E
2220.535	0.001	2220703	RETRIEVAL_ORIENT_END	n/a	n/a	n/a	-999	14	[0, 0, 0]	n/a	FR1	3	R1292E
2220.536	1.144	2220704	REC_START	n/a	n/a	n/a	-999	14	[0, 0, 0]	n/a	FR1	3	R1292E
2221.68	0.72	2221848	REC_WORD	0.72	n/a	BAT	1	14	[0, 0, 0]	n/a	FR1	3	R1292E
2222.4	1.035	2222568	REC_WORD	1.035	n/a	THUMB	11	14	[0, 0, 0]	n/a	FR1	3	R1292E
2223.435	19.898	2223603	REC_WORD	19.898	n/a	WORM	7	14	[0, 0, 0]	n/a	FR1	3	R1292E
2243.333	2.28	2243501	REC_WORD	2.28	n/a	GEESE	8	14	[0, 0, 0]	n/a	FR1	3	R1292E
2245.613	4.934	2245781	REC_WORD	4.934	n/a	PIE	9	14	[0, 0, 0]	n/a	FR1	3	R1292E
2250.547	0.0	2250714	TRIAL_END	n/a	n/a	n/a	-999	14	[0, 0, 0]	n/a	FR1	3	R1292E
2250.547	0.018	2250714	REC_END	n/a	n/a	n/a	-999	14	[0, 0, 0]	n/a	FR1	3	R1292E
2250.565	0.001	2250732	TRIAL_START	n/a	n/a	n/a	-999	15	[0, 0, 0]	n/a	FR1	3	R1292E
2250.566	0.0	2250733	TRIAL	n/a	n/a	n/a	-999	15	[0, 0, 0]	n/a	FR1	3	R1292E
2250.566	10.126	2250733	WAITING_START	n/a	n/a	n/a	-999	15	[0, 0, 0]	n/a	FR1	3	R1292E
2260.692	0.0	2260859	WAITING_END	n/a	n/a	n/a	-999	15	[0, 0, 0]	n/a	FR1	3	R1292E
2260.692	10.428	2260859	COUNTDOWN_START	n/a	n/a	n/a	-999	15	[0, 0, 0]	n/a	FR1	3	R1292E
2271.12	0.001	2271287	COUNTDOWN_END	n/a	n/a	n/a	-999	15	[0, 0, 0]	n/a	FR1	3	R1292E
2271.121	1.023	2271288	ORIENT_START	n/a	n/a	n/a	-999	15	[0, 0, 0]	n/a	FR1	3	R1292E
2272.144	0.0	2272311	ENCODING_START	n/a	n/a	n/a	-999	15	[0, 0, 0]	n/a	FR1	3	R1292E
2272.144	0.938	2272311	ORIENT_END	n/a	n/a	n/a	-999	15	[0, 0, 0]	n/a	FR1	3	R1292E
2273.082	1.629	2273249	WORD	n/a	n/a	FLUTE	1	15	[0, 0, 0]	n/a	FR1	3	R1292E
2274.711	0.914	2274878	WORD_OFF	n/a	n/a	FLUTE	1	15	[0, 0, 0]	n/a	FR1	3	R1292E
2275.625	1.636	2275792	WORD	n/a	n/a	RAIN	2	15	[0, 0, 0]	n/a	FR1	3	R1292E
2277.261	1.066	2277427	WORD_OFF	n/a	n/a	RAIN	2	15	[0, 0, 0]	n/a	FR1	3	R1292E
2278.327	1.635	2278493	WORD	n/a	n/a	FORT	3	15	[0, 0, 0]	n/a	FR1	3	R1292E
2279.962	0.977	2280128	WORD_OFF	n/a	n/a	FORT	3	15	[0, 0, 0]	n/a	FR1	3	R1292E
2280.939	1.624	2281105	WORD	n/a	n/a	MAP	4	15	[0, 0, 0]	n/a	FR1	3	R1292E
2282.563	1.122	2282729	WORD_OFF	n/a	n/a	MAP	4	15	[0, 0, 0]	n/a	FR1	3	R1292E
2283.685	1.628	2283851	WORD	n/a	n/a	THREAD	5	15	[0, 0, 0]	n/a	FR1	3	R1292E
2285.313	0.844	2285479	WORD_OFF	n/a	n/a	THREAD	5	15	[0, 0, 0]	n/a	FR1	3	R1292E
2286.157	1.623	2286323	WORD	n/a	n/a	STEM	6	15	[0, 0, 0]	n/a	FR1	3	R1292E
2287.78	0.78	2287946	WORD_OFF	n/a	n/a	STEM	6	15	[0, 0, 0]	n/a	FR1	3	R1292E
2288.56	1.62	2288726	WORD	n/a	n/a	TREE	7	15	[0, 0, 0]	n/a	FR1	3	R1292E
2290.18	0.814	2290346	WORD_OFF	n/a	n/a	TREE	7	15	[0, 0, 0]	n/a	FR1	3	R1292E
2290.994	1.636	2291160	WORD	n/a	n/a	CROWN	8	15	[0, 0, 0]	n/a	FR1	3	R1292E
2292.63	1.131	2292796	WORD_OFF	n/a	n/a	CROWN	8	15	[0, 0, 0]	n/a	FR1	3	R1292E
2293.761	1.637	2293927	WORD	n/a	n/a	COIN	9	15	[0, 0, 0]	n/a	FR1	3	R1292E
2295.398	1.122	2295564	WORD_OFF	n/a	n/a	COIN	9	15	[0, 0, 0]	n/a	FR1	3	R1292E
2296.52	1.628	2296686	WORD	n/a	n/a	WORLD	10	15	[0, 0, 0]	n/a	FR1	3	R1292E
2298.148	0.903	2298314	WORD_OFF	n/a	n/a	WORLD	10	15	[0, 0, 0]	n/a	FR1	3	R1292E
2299.051	1.631	2299217	WORD	n/a	n/a	ROAD	11	15	[0, 0, 0]	n/a	FR1	3	R1292E
2300.682	1.086	2300848	WORD_OFF	n/a	n/a	ROAD	11	15	[0, 0, 0]	n/a	FR1	3	R1292E
2301.768	1.631	2301934	WORD	n/a	n/a	BOY	12	15	[0, 0, 0]	n/a	FR1	3	R1292E
2303.399	0.0	2303565	WORD_OFF	n/a	n/a	BOY	12	15	[0, 0, 0]	n/a	FR1	3	R1292E
2303.399	0.001	2303565	ENCODING_END	n/a	n/a	n/a	-999	15	[0, 0, 0]	n/a	FR1	3	R1292E
2303.4	0.0	2303566	DISTRACT_START	n/a	n/a	n/a	-999	15	[0, 0, 0]	n/a	FR1	3	R1292E
2303.4	0.017	2303566	START	n/a	n/a	n/a	-999	15	[-999, -999, -999]	n/a	FR1	3	R1292E
2303.417	4.017	2303583	PROB	4.017	n/a	n/a	-999	15	[3, 1, 4]	8	FR1	3	R1292E
2307.434	6.95	2307599	PROB	6.95	n/a	n/a	-999	15	[8, 4, 6]	18	FR1	3	R1292E
2314.384	3.317	2314549	PROB	3.317	n/a	n/a	-999	15	[3, 7, 1]	11	FR1	3	R1292E
2317.701	3.084	2317866	PROB	3.084	n/a	n/a	-999	15	[9, 4, 1]	14	FR1	3	R1292E
2320.785	7.263	2320950	PROB	7.263	n/a	n/a	-999	15	[9, 9, 5]	23	FR1	3	R1292E
2328.048	0.022	2328213	STOP	n/a	n/a	n/a	-999	15	[-999, -999, -999]	n/a	FR1	3	R1292E
2328.07	0.506	2328235	DISTRACT_END	n/a	n/a	n/a	-999	15	[0, 0, 0]	n/a	FR1	3	R1292E
2328.576	1.594	2328741	RETRIEVAL_ORIENT_START	n/a	n/a	n/a	-999	15	[0, 0, 0]	n/a	FR1	3	R1292E
2330.17	0.001	2330335	RETRIEVAL_ORIENT_END	n/a	n/a	n/a	-999	15	[0, 0, 0]	n/a	FR1	3	R1292E
2330.171	0.829	2330336	REC_START	n/a	n/a	n/a	-999	15	[0, 0, 0]	n/a	FR1	3	R1292E
2331.0	1.38	2331165	REC_WORD	1.38	n/a	TREE	7	15	[0, 0, 0]	n/a	FR1	3	R1292E
2332.38	1.78	2332545	REC_WORD	1.78	n/a	STEM	6	15	[0, 0, 0]	n/a	FR1	3	R1292E
2334.16	1.182	2334324	REC_WORD	1.182	n/a	RAIN	2	15	[0, 0, 0]	n/a	FR1	3	R1292E
2335.342	1.488	2335506	REC_WORD	1.488	n/a	ROAD	11	15	[0, 0, 0]	n/a	FR1	3	R1292E
2336.83	0.999	2336994	REC_WORD	0.999	n/a	WORLD	10	15	[0, 0, 0]	n/a	FR1	3	R1292E
2337.829	22.353	2337993	REC_WORD	22.353	n/a	FORT	3	15	[0, 0, 0]	n/a	FR1	3	R1292E
2360.182	0.001	2360346	REC_END	n/a	n/a	n/a	-999	15	[0, 0, 0]	n/a	FR1	3	R1292E
2360.183	0.017	2360347	TRIAL_END	n/a	n/a	n/a	-999	15	[0, 0, 0]	n/a	FR1	3	R1292E
2360.2	0.001	2360364	TRIAL_START	n/a	n/a	n/a	-999	16	[0, 0, 0]	n/a	FR1	3	R1292E
2360.201	0.0	2360365	TRIAL	n/a	n/a	n/a	-999	16	[0, 0, 0]	n/a	FR1	3	R1292E
2360.201	39.948	2360365	WAITING_START	n/a	n/a	n/a	-999	16	[0, 0, 0]	n/a	FR1	3	R1292E
2400.149	0.001	2400311	WAITING_END	n/a	n/a	n/a	-999	16	[0, 0, 0]	n/a	FR1	3	R1292E
2400.15	10.429	2400312	COUNTDOWN_START	n/a	n/a	n/a	-999	16	[0, 0, 0]	n/a	FR1	3	R1292E
2410.579	0.0	2410741	COUNTDOWN_END	n/a	n/a	n/a	-999	16	[0, 0, 0]	n/a	FR1	3	R1292E
2410.579	1.039	2410741	ORIENT_START	n/a	n/a	n/a	-999	16	[0, 0, 0]	n/a	FR1	3	R1292E
2411.618	0.0	2411780	ENCODING_START	n/a	n/a	n/a	-999	16	[0, 0, 0]	n/a	FR1	3	R1292E
2411.618	1.037	2411780	ORIENT_END	n/a	n/a	n/a	-999	16	[0, 0, 0]	n/a	FR1	3	R1292E
2412.655	1.63	2412817	WORD	n/a	n/a	SEA	1	16	[0, 0, 0]	n/a	FR1	3	R1292E
2414.285	0.756	2414447	WORD_OFF	n/a	n/a	SEA	1	16	[0, 0, 0]	n/a	FR1	3	R1292E
2415.041	1.628	2415203	WORD	n/a	n/a	STEAK	2	16	[0, 0, 0]	n/a	FR1	3	R1292E
2416.669	1.081	2416831	WORD_OFF	n/a	n/a	STEAK	2	16	[0, 0, 0]	n/a	FR1	3	R1292E
2417.75	1.636	2417912	WORD	n/a	n/a	HAWK	3	16	[0, 0, 0]	n/a	FR1	3	R1292E
2419.386	0.769	2419547	WORD_OFF	n/a	n/a	HAWK	3	16	[0, 0, 0]	n/a	FR1	3	R1292E
2420.155	1.631	2420316	WORD	n/a	n/a	GOLD	4	16	[0, 0, 0]	n/a	FR1	3	R1292E
2421.786	0.833	2421947	WORD_OFF	n/a	n/a	GOLD	4	16	[0, 0, 0]	n/a	FR1	3	R1292E
2422.619	1.635	2422780	WORD	n/a	n/a	CHIEF	5	16	[0, 0, 0]	n/a	FR1	3	R1292E
2424.254	0.779	2424415	WORD_OFF	n/a	n/a	CHIEF	5	16	[0, 0, 0]	n/a	FR1	3	R1292E
2425.033	1.638	2425194	WORD	n/a	n/a	WOOD	6	16	[0, 0, 0]	n/a	FR1	3	R1292E
2426.671	1.049	2426832	WORD_OFF	n/a	n/a	WOOD	6	16	[0, 0, 0]	n/a	FR1	3	R1292E
2427.72	1.634	2427881	WORD	n/a	n/a	LAWN	7	16	[0, 0, 0]	n/a	FR1	3	R1292E
2429.354	0.917	2429515	WORD_OFF	n/a	n/a	LAWN	7	16	[0, 0, 0]	n/a	FR1	3	R1292E
2430.271	1.634	2430432	WORD	n/a	n/a	BOAT	8	16	[0, 0, 0]	n/a	FR1	3	R1292E
2431.905	0.877	2432066	WORD_OFF	n/a	n/a	BOAT	8	16	[0, 0, 0]	n/a	FR1	3	R1292E
2432.782	1.623	2432943	WORD	n/a	n/a	FOOT	9	16	[0, 0, 0]	n/a	FR1	3	R1292E
2434.405	1.113	2434566	WORD_OFF	n/a	n/a	FOOT	9	16	[0, 0, 0]	n/a	FR1	3	R1292E
2435.518	1.621	2435679	WORD	n/a	n/a	DOLL	10	16	[0, 0, 0]	n/a	FR1	3	R1292E
2437.139	0.806	2437300	WORD_OFF	n/a	n/a	DOLL	10	16	[0, 0, 0]	n/a	FR1	3	R1292E
2437.945	1.629	2438106	WORD	n/a	n/a	TRASH	11	16	[0, 0, 0]	n/a	FR1	3	R1292E
2439.574	0.832	2439735	WORD_OFF	n/a	n/a	TRASH	11	16	[0, 0, 0]	n/a	FR1	3	R1292E
2440.406	1.634	2440567	WORD	n/a	n/a	INK	12	16	[0, 0, 0]	n/a	FR1	3	R1292E
2442.04	0.0	2442201	WORD_OFF	n/a	n/a	INK	12	16	[0, 0, 0]	n/a	FR1	3	R1292E
2442.04	0.001	2442201	ENCODING_END	n/a	n/a	n/a	-999	16	[0, 0, 0]	n/a	FR1	3	R1292E
2442.041	0.0	2442202	DISTRACT_START	n/a	n/a	n/a	-999	16	[0, 0, 0]	n/a	FR1	3	R1292E
2442.041	0.015	2442202	START	n/a	n/a	n/a	-999	16	[-999, -999, -999]	n/a	FR1	3	R1292E
2442.056	10.636	2442217	PROB	10.636	n/a	n/a	-999	16	[9, 2, 6]	17	FR1	3	R1292E
2452.692	14.332	2452852	PROB	14.332	n/a	n/a	-999	16	[8, 9, 8]	25	FR1	3	R1292E
2467.024	0.02	2467184	STOP	n/a	n/a	n/a	-999	16	[-999, -999, -999]	n/a	FR1	3	R1292E
2467.044	0.538	2467204	DISTRACT_END	n/a	n/a	n/a	-999	16	[0, 0, 0]	n/a	FR1	3	R1292E
2467.582	1.646	2467742	RETRIEVAL_ORIENT_START	n/a	n/a	n/a	-999	16	[0, 0, 0]	n/a	FR1	3	R1292E
2469.228	0.0	2469388	REC_START	n/a	n/a	n/a	-999	16	[0, 0, 0]	n/a	FR1	3	R1292E
2469.228	29.994	2469388	RETRIEVAL_ORIENT_END	n/a	n/a	n/a	-999	16	[0, 0, 0]	n/a	FR1	3	R1292E
2499.222	0.017	2499381	REC_WORD_VV	0.017	n/a	<>	-999	16	[0, 0, 0]	n/a	FR1	3	R1292E
2499.239	0.001	2499398	REC_END	n/a	n/a	n/a	-999	16	[0, 0, 0]	n/a	FR1	3	R1292E
2499.24	0.018	2499399	TRIAL_END	n/a	n/a	n/a	-999	16	[0, 0, 0]	n/a	FR1	3	R1292E
2499.258	0.0	2499417	TRIAL_START	n/a	n/a	n/a	-999	17	[0, 0, 0]	n/a	FR1	3	R1292E
2499.258	0.0	2499417	TRIAL	n/a	n/a	n/a	-999	17	[0, 0, 0]	n/a	FR1	3	R1292E
2499.258	20.129	2499417	WAITING_START	n/a	n/a	n/a	-999	17	[0, 0, 0]	n/a	FR1	3	R1292E
2519.387	0.0	2519545	WAITING_END	n/a	n/a	n/a	-999	17	[0, 0, 0]	n/a	FR1	3	R1292E
2519.387	10.429	2519545	COUNTDOWN_START	n/a	n/a	n/a	-999	17	[0, 0, 0]	n/a	FR1	3	R1292E
2529.816	0.0	2529974	ORIENT_START	n/a	n/a	n/a	-999	17	[0, 0, 0]	n/a	FR1	3	R1292E
2529.816	1.256	2529974	COUNTDOWN_END	n/a	n/a	n/a	-999	17	[0, 0, 0]	n/a	FR1	3	R1292E
2531.072	0.001	2531230	ORIENT_END	n/a	n/a	n/a	-999	17	[0, 0, 0]	n/a	FR1	3	R1292E
2531.073	0.903	2531231	ENCODING_START	n/a	n/a	n/a	-999	17	[0, 0, 0]	n/a	FR1	3	R1292E
2531.976	1.614	2532134	WORD	n/a	n/a	SOAP	1	17	[0, 0, 0]	n/a	FR1	3	R1292E
2533.59	0.982	2533747	WORD_OFF	n/a	n/a	SOAP	1	17	[0, 0, 0]	n/a	FR1	3	R1292E
2534.572	1.634	2534729	WORD	n/a	n/a	BED	2	17	[0, 0, 0]	n/a	FR1	3	R1292E
2536.206	0.875	2536363	WORD_OFF	n/a	n/a	BED	2	17	[0, 0, 0]	n/a	FR1	3	R1292E
2537.081	1.626	2537238	WORD	n/a	n/a	SKI	3	17	[0, 0, 0]	n/a	FR1	3	R1292E
2538.707	0.935	2538864	WORD_OFF	n/a	n/a	SKI	3	17	[0, 0, 0]	n/a	FR1	3	R1292E
2539.642	1.632	2539799	WORD	n/a	n/a	DESK	4	17	[0, 0, 0]	n/a	FR1	3	R1292E
2541.274	0.959	2541431	WORD_OFF	n/a	n/a	DESK	4	17	[0, 0, 0]	n/a	FR1	3	R1292E
2542.233	1.625	2542390	WORD	n/a	n/a	SINK	5	17	[0, 0, 0]	n/a	FR1	3	R1292E
2543.858	0.848	2544015	WORD_OFF	n/a	n/a	SINK	5	17	[0, 0, 0]	n/a	FR1	3	R1292E
2544.706	1.635	2544863	WORD	n/a	n/a	PIN	6	17	[0, 0, 0]	n/a	FR1	3	R1292E
2546.341	1.02	2546498	WORD_OFF	n/a	n/a	PIN	6	17	[0, 0, 0]	n/a	FR1	3	R1292E
2547.361	1.631	2547518	WORD	n/a	n/a	BREAD	7	17	[0, 0, 0]	n/a	FR1	3	R1292E
2548.992	0.757	2549149	WORD_OFF	n/a	n/a	BREAD	7	17	[0, 0, 0]	n/a	FR1	3	R1292E
2549.749	1.627	2549906	WORD	n/a	n/a	CALF	8	17	[0, 0, 0]	n/a	FR1	3	R1292E
2551.376	0.914	2551533	WORD_OFF	n/a	n/a	CALF	8	17	[0, 0, 0]	n/a	FR1	3	R1292E
2552.29	1.636	2552447	WORD	n/a	n/a	GRAPE	9	17	[0, 0, 0]	n/a	FR1	3	R1292E
2553.926	0.932	2554083	WORD_OFF	n/a	n/a	GRAPE	9	17	[0, 0, 0]	n/a	FR1	3	R1292E
2554.858	1.62	2555015	WORD	n/a	n/a	TOOTH	10	17	[0, 0, 0]	n/a	FR1	3	R1292E
2556.478	1.14	2556635	WORD_OFF	n/a	n/a	TOOTH	10	17	[0, 0, 0]	n/a	FR1	3	R1292E
2557.618	1.626	2557775	WORD	n/a	n/a	ELF	11	17	[0, 0, 0]	n/a	FR1	3	R1292E
2559.244	1.102	2559401	WORD_OFF	n/a	n/a	ELF	11	17	[0, 0, 0]	n/a	FR1	3	R1292E
2560.346	1.632	2560503	WORD	n/a	n/a	CHIN	12	17	[0, 0, 0]	n/a	FR1	3	R1292E
2561.978	0.0	2562134	DISTRACT_START	n/a	n/a	n/a	-999	17	[0, 0, 0]	n/a	FR1	3	R1292E
2561.978	0.0	2562134	WORD_OFF	n/a	n/a	CHIN	12	17	[0, 0, 0]	n/a	FR1	3	R1292E
2561.978	0.0	2562134	ENCODING_END	n/a	n/a	n/a	-999	17	[0, 0, 0]	n/a	FR1	3	R1292E
2561.978	0.016	2562134	START	n/a	n/a	n/a	-999	17	[-999, -999, -999]	n/a	FR1	3	R1292E
2561.994	6.001	2562150	PROB	6.001	n/a	n/a	-999	17	[8, 5, 8]	21	FR1	3	R1292E
2567.995	5.118	2568151	PROB	5.118	n/a	n/a	-999	17	[4, 2, 9]	15	FR1	3	R1292E
2573.113	4.267	2573269	PROB	4.267	n/a	n/a	-999	17	[4, 1, 1]	6	FR1	3	R1292E
2577.38	8.008	2577536	PROB	8.008	n/a	n/a	-999	17	[7, 4, 5]	16	FR1	3	R1292E
2585.388	0.01	2585544	STOP	n/a	n/a	n/a	-999	17	[-999, -999, -999]	n/a	FR1	3	R1292E
2585.398	0.604	2585554	DISTRACT_END	n/a	n/a	n/a	-999	17	[0, 0, 0]	n/a	FR1	3	R1292E
2586.002	1.713	2586158	RETRIEVAL_ORIENT_START	n/a	n/a	n/a	-999	17	[0, 0, 0]	n/a	FR1	3	R1292E
2587.715	0.001	2587871	RETRIEVAL_ORIENT_END	n/a	n/a	n/a	-999	17	[0, 0, 0]	n/a	FR1	3	R1292E
2587.716	0.909	2587872	REC_START	n/a	n/a	n/a	-999	17	[0, 0, 0]	n/a	FR1	3	R1292E
2588.625	1.335	2588781	REC_WORD	1.335	n/a	ELF	11	17	[0, 0, 0]	n/a	FR1	3	R1292E
2589.96	2.863	2590116	REC_WORD	2.863	n/a	CHIN	12	17	[0, 0, 0]	n/a	FR1	3	R1292E
2592.823	24.904	2592978	REC_WORD	24.904	n/a	SKI	3	17	[0, 0, 0]	n/a	FR1	3	R1292E
2617.727	0.001	2617882	REC_END	n/a	n/a	n/a	-999	17	[0, 0, 0]	n/a	FR1	3	R1292E
2617.728	0.017	2617883	TRIAL_END	n/a	n/a	n/a	-999	17	[0, 0, 0]	n/a	FR1	3	R1292E
2617.745	0.001	2617900	TRIAL_START	n/a	n/a	n/a	-999	18	[0, 0, 0]	n/a	FR1	3	R1292E
2617.746	0.0	2617901	TRIAL	n/a	n/a	n/a	-999	18	[0, 0, 0]	n/a	FR1	3	R1292E
2617.746	10.11	2617901	WAITING_START	n/a	n/a	n/a	-999	18	[0, 0, 0]	n/a	FR1	3	R1292E
2627.856	0.0	2628010	WAITING_END	n/a	n/a	n/a	-999	18	[0, 0, 0]	n/a	FR1	3	R1292E
2627.856	10.429	2628010	COUNTDOWN_START	n/a	n/a	n/a	-999	18	[0, 0, 0]	n/a	FR1	3	R1292E
2638.285	0.001	2638439	COUNTDOWN_END	n/a	n/a	n/a	-999	18	[0, 0, 0]	n/a	FR1	3	R1292E
2638.286	1.19	2638440	ORIENT_START	n/a	n/a	n/a	-999	18	[0, 0, 0]	n/a	FR1	3	R1292E
2639.476	0.0	2639630	ENCODING_START	n/a	n/a	n/a	-999	18	[0, 0, 0]	n/a	FR1	3	R1292E
2639.476	0.828	2639630	ORIENT_END	n/a	n/a	n/a	-999	18	[0, 0, 0]	n/a	FR1	3	R1292E
2640.304	1.621	2640458	WORD	n/a	n/a	TRUCK	1	18	[0, 0, 0]	n/a	FR1	3	R1292E
2641.925	0.931	2642079	WORD_OFF	n/a	n/a	TRUCK	1	18	[0, 0, 0]	n/a	FR1	3	R1292E
2642.856	1.637	2643010	WORD	n/a	n/a	DART	2	18	[0, 0, 0]	n/a	FR1	3	R1292E
2644.493	1.12	2644647	WORD_OFF	n/a	n/a	DART	2	18	[0, 0, 0]	n/a	FR1	3	R1292E
2645.613	1.63	2645767	WORD	n/a	n/a	SHIRT	3	18	[0, 0, 0]	n/a	FR1	3	R1292E
2647.243	1.038	2647396	WORD_OFF	n/a	n/a	SHIRT	3	18	[0, 0, 0]	n/a	FR1	3	R1292E
2648.281	1.629	2648434	WORD	n/a	n/a	SHOE	4	18	[0, 0, 0]	n/a	FR1	3	R1292E
2649.91	1.002	2650063	WORD_OFF	n/a	n/a	SHOE	4	18	[0, 0, 0]	n/a	FR1	3	R1292E
2650.912	1.633	2651065	WORD	n/a	n/a	SPARK	5	18	[0, 0, 0]	n/a	FR1	3	R1292E
2652.545	1.053	2652698	WORD_OFF	n/a	n/a	SPARK	5	18	[0, 0, 0]	n/a	FR1	3	R1292E
2653.598	1.629	2653751	WORD	n/a	n/a	BEE	6	18	[0, 0, 0]	n/a	FR1	3	R1292E
2655.227	0.965	2655380	WORD_OFF	n/a	n/a	BEE	6	18	[0, 0, 0]	n/a	FR1	3	R1292E
2656.192	1.636	2656345	WORD	n/a	n/a	SKUNK	7	18	[0, 0, 0]	n/a	FR1	3	R1292E
2657.828	0.791	2657981	WORD_OFF	n/a	n/a	SKUNK	7	18	[0, 0, 0]	n/a	FR1	3	R1292E
2658.619	1.626	2658772	WORD	n/a	n/a	FLEA	8	18	[0, 0, 0]	n/a	FR1	3	R1292E
2660.245	1.137	2660398	WORD_OFF	n/a	n/a	FLEA	8	18	[0, 0, 0]	n/a	FR1	3	R1292E
2661.382	1.63	2661535	WORD	n/a	n/a	SEAL	9	18	[0, 0, 0]	n/a	FR1	3	R1292E
2663.012	0.898	2663165	WORD_OFF	n/a	n/a	SEAL	9	18	[0, 0, 0]	n/a	FR1	3	R1292E
2663.91	1.637	2664063	WORD	n/a	n/a	MILK	10	18	[0, 0, 0]	n/a	FR1	3	R1292E
2665.547	0.873	2665700	WORD_OFF	n/a	n/a	MILK	10	18	[0, 0, 0]	n/a	FR1	3	R1292E
2666.42	1.626	2666573	WORD	n/a	n/a	SNOW	11	18	[0, 0, 0]	n/a	FR1	3	R1292E
2668.046	0.769	2668199	WORD_OFF	n/a	n/a	SNOW	11	18	[0, 0, 0]	n/a	FR1	3	R1292E
2668.815	1.616	2668968	WORD	n/a	n/a	DRUM	12	18	[0, 0, 0]	n/a	FR1	3	R1292E
2670.431	0.0	2670584	WORD_OFF	n/a	n/a	DRUM	12	18	[0, 0, 0]	n/a	FR1	3	R1292E
2670.431	0.0	2670584	ENCODING_END	n/a	n/a	n/a	-999	18	[0, 0, 0]	n/a	FR1	3	R1292E
2670.431	0.0	2670584	DISTRACT_START	n/a	n/a	n/a	-999	18	[0, 0, 0]	n/a	FR1	3	R1292E
2670.431	0.016	2670584	START	n/a	n/a	n/a	-999	18	[-999, -999, -999]	n/a	FR1	3	R1292E
2670.447	14.185	2670600	PROB	14.185	n/a	n/a	-999	18	[9, 7, 5]	21	FR1	3	R1292E
2684.632	5.218	2684784	PROB	5.218	n/a	n/a	-999	18	[9, 7, 3]	18	FR1	3	R1292E
2689.85	3.112	2690002	PROB	3.112	n/a	n/a	-999	18	[1, 5, 9]	15	FR1	3	R1292E
2692.962	0.005	2693114	STOP	n/a	n/a	n/a	-999	18	[-999, -999, -999]	n/a	FR1	3	R1292E
2692.967	0.682	2693119	DISTRACT_END	n/a	n/a	n/a	-999	18	[0, 0, 0]	n/a	FR1	3	R1292E
2693.649	1.569	2693801	RETRIEVAL_ORIENT_START	n/a	n/a	n/a	-999	18	[0, 0, 0]	n/a	FR1	3	R1292E
2695.218	0.0	2695370	RETRIEVAL_ORIENT_END	n/a	n/a	n/a	-999	18	[0, 0, 0]	n/a	FR1	3	R1292E
2695.218	0.439	2695370	REC_START	n/a	n/a	n/a	-999	18	[0, 0, 0]	n/a	FR1	3	R1292E
2695.657	1.88	2695809	REC_WORD	1.88	n/a	SKUNK	7	18	[0, 0, 0]	n/a	FR1	3	R1292E
2697.537	4.57	2697689	REC_WORD	4.57	n/a	BEE	6	18	[0, 0, 0]	n/a	FR1	3	R1292E
2702.107	4.735	2702259	REC_WORD_VV	4.735	n/a	<>	-999	18	[0, 0, 0]	n/a	FR1	3	R1292E
2706.842	18.388	2706993	REC_WORD	18.388	n/a	FLEA	8	18	[0, 0, 0]	n/a	FR1	3	R1292E
2725.23	0.0	2725381	TRIAL_END	n/a	n/a	n/a	-999	18	[0, 0, 0]	n/a	FR1	3	R1292E
2725.23	0.018	2725381	REC_END	n/a	n/a	n/a	-999	18	[0, 0, 0]	n/a	FR1	3	R1292E
2725.248	0.0	2725399	TRIAL_START	n/a	n/a	n/a	-999	19	[0, 0, 0]	n/a	FR1	3	R1292E
2725.248	0.001	2725399	TRIAL	n/a	n/a	n/a	-999	19	[0, 0, 0]	n/a	FR1	3	R1292E
2725.249	125.063	2725400	WAITING_START	n/a	n/a	n/a	-999	19	[0, 0, 0]	n/a	FR1	3	R1292E
2850.312	0.0	2850458	WAITING_END	n/a	n/a	n/a	-999	19	[0, 0, 0]	n/a	FR1	3	R1292E
2850.312	10.428	2850458	COUNTDOWN_START	n/a	n/a	n/a	-999	19	[0, 0, 0]	n/a	FR1	3	R1292E
2860.74	0.001	2860886	COUNTDOWN_END	n/a	n/a	n/a	-999	19	[0, 0, 0]	n/a	FR1	3	R1292E
2860.741	1.189	2860887	ORIENT_START	n/a	n/a	n/a	-999	19	[0, 0, 0]	n/a	FR1	3	R1292E
2861.93	0.001	2862076	ORIENT_END	n/a	n/a	n/a	-999	19	[0, 0, 0]	n/a	FR1	3	R1292E
2861.931	0.85	2862077	ENCODING_START	n/a	n/a	n/a	-999	19	[0, 0, 0]	n/a	FR1	3	R1292E
2862.781	1.634	2862927	WORD	n/a	n/a	BENCH	1	19	[0, 0, 0]	n/a	FR1	3	R1292E
2864.415	0.818	2864561	WORD_OFF	n/a	n/a	BENCH	1	19	[0, 0, 0]	n/a	FR1	3	R1292E
2865.233	1.631	2865379	WORD	n/a	n/a	EAR	2	19	[0, 0, 0]	n/a	FR1	3	R1292E
2866.864	1.026	2867010	WORD_OFF	n/a	n/a	EAR	2	19	[0, 0, 0]	n/a	FR1	3	R1292E
2867.89	1.609	2868036	WORD	n/a	n/a	JUDGE	3	19	[0, 0, 0]	n/a	FR1	3	R1292E
2869.499	0.922	2869645	WORD_OFF	n/a	n/a	JUDGE	3	19	[0, 0, 0]	n/a	FR1	3	R1292E
2870.421	1.628	2870567	WORD	n/a	n/a	SUN	4	19	[0, 0, 0]	n/a	FR1	3	R1292E
2872.049	0.801	2872195	WORD_OFF	n/a	n/a	SUN	4	19	[0, 0, 0]	n/a	FR1	3	R1292E
2872.85	1.617	2872996	WORD	n/a	n/a	CORN	5	19	[0, 0, 0]	n/a	FR1	3	R1292E
2874.467	1.137	2874613	WORD_OFF	n/a	n/a	CORN	5	19	[0, 0, 0]	n/a	FR1	3	R1292E
2875.604	1.629	2875749	WORD	n/a	n/a	BUSH	6	19	[0, 0, 0]	n/a	FR1	3	R1292E
2877.233	0.897	2877378	WORD_OFF	n/a	n/a	BUSH	6	19	[0, 0, 0]	n/a	FR1	3	R1292E
2878.13	1.637	2878275	WORD	n/a	n/a	SOCK	7	19	[0, 0, 0]	n/a	FR1	3	R1292E
2879.767	1.06	2879912	WORD_OFF	n/a	n/a	SOCK	7	19	[0, 0, 0]	n/a	FR1	3	R1292E
2880.827	1.625	2880972	WORD	n/a	n/a	PHONE	8	19	[0, 0, 0]	n/a	FR1	3	R1292E
2882.452	0.874	2882597	WORD_OFF	n/a	n/a	PHONE	8	19	[0, 0, 0]	n/a	FR1	3	R1292E
2883.326	1.625	2883471	WORD	n/a	n/a	BLOOM	9	19	[0, 0, 0]	n/a	FR1	3	R1292E
2884.951	1.113	2885096	WORD_OFF	n/a	n/a	BLOOM	9	19	[0, 0, 0]	n/a	FR1	3	R1292E
2886.064	1.637	2886209	WORD	n/a	n/a	STEAM	10	19	[0, 0, 0]	n/a	FR1	3	R1292E
2887.701	1.082	2887846	WORD_OFF	n/a	n/a	STEAM	10	19	[0, 0, 0]	n/a	FR1	3	R1292E
2888.783	1.637	2888928	WORD	n/a	n/a	FILM	11	19	[0, 0, 0]	n/a	FR1	3	R1292E
2890.42	0.857	2890565	WORD_OFF	n/a	n/a	FILM	11	19	[0, 0, 0]	n/a	FR1	3	R1292E
2891.277	1.625	2891422	WORD	n/a	n/a	CART	12	19	[0, 0, 0]	n/a	FR1	3	R1292E
2892.902	0.001	2893047	WORD_OFF	n/a	n/a	CART	12	19	[0, 0, 0]	n/a	FR1	3	R1292E
2892.903	0.0	2893048	ENCODING_END	n/a	n/a	n/a	-999	19	[0, 0, 0]	n/a	FR1	3	R1292E
2892.903	0.0	2893048	DISTRACT_START	n/a	n/a	n/a	-999	19	[0, 0, 0]	n/a	FR1	3	R1292E
2892.903	0.016	2893048	START	n/a	n/a	n/a	-999	19	[-999, -999, -999]	n/a	FR1	3	R1292E
2892.919	7.218	2893064	PROB	7.218	n/a	n/a	-999	19	[3, 2, 3]	8	FR1	3	R1292E
2900.137	6.568	2900282	PROB	6.568	n/a	n/a	-999	19	[6, 5, 8]	19	FR1	3	R1292E
2906.705	7.432	2906849	PROB	7.432	n/a	n/a	-999	19	[5, 1, 2]	8	FR1	3	R1292E
2914.137	0.019	2914281	STOP	n/a	n/a	n/a	-999	19	[-999, -999, -999]	n/a	FR1	3	R1292E
2914.156	0.567	2914300	DISTRACT_END	n/a	n/a	n/a	-999	19	[0, 0, 0]	n/a	FR1	3	R1292E
2914.723	1.683	2914867	RETRIEVAL_ORIENT_START	n/a	n/a	n/a	-999	19	[0, 0, 0]	n/a	FR1	3	R1292E
2916.406	0.001	2916550	RETRIEVAL_ORIENT_END	n/a	n/a	n/a	-999	19	[0, 0, 0]	n/a	FR1	3	R1292E
2916.407	0.874	2916551	REC_START	n/a	n/a	n/a	-999	19	[0, 0, 0]	n/a	FR1	3	R1292E
2917.281	0.82	2917425	REC_WORD	0.82	n/a	BENCH	1	19	[0, 0, 0]	n/a	FR1	3	R1292E
2918.101	1.36	2918245	REC_WORD	1.36	n/a	JUDGE	3	19	[0, 0, 0]	n/a	FR1	3	R1292E
2919.461	1.155	2919605	REC_WORD	1.155	n/a	EAR	2	19	[0, 0, 0]	n/a	FR1	3	R1292E
2920.616	1.32	2920760	REC_WORD	1.32	n/a	CORN	5	19	[0, 0, 0]	n/a	FR1	3	R1292E
2921.936	1.27	2922080	REC_WORD	1.27	n/a	SOCK	7	19	[0, 0, 0]	n/a	FR1	3	R1292E
2923.206	23.213	2923350	REC_WORD	23.213	n/a	BLOOM	9	19	[0, 0, 0]	n/a	FR1	3	R1292E
2946.419	0.0	2946562	TRIAL_END	n/a	n/a	n/a	-999	19	[0, 0, 0]	n/a	FR1	3	R1292E
2946.419	0.018	2946562	REC_END	n/a	n/a	n/a	-999	19	[0, 0, 0]	n/a	FR1	3	R1292E
2946.437	0.001	2946580	TRIAL_START	n/a	n/a	n/a	-999	20	[0, 0, 0]	n/a	FR1	3	R1292E
2946.438	0.0	2946581	TRIAL	n/a	n/a	n/a	-999	20	[0, 0, 0]	n/a	FR1	3	R1292E
2946.438	9.442	2946581	WAITING_START	n/a	n/a	n/a	-999	20	[0, 0, 0]	n/a	FR1	3	R1292E
2955.88	0.0	2956023	WAITING_END	n/a	n/a	n/a	-999	20	[0, 0, 0]	n/a	FR1	3	R1292E
2955.88	10.429	2956023	COUNTDOWN_START	n/a	n/a	n/a	-999	20	[0, 0, 0]	n/a	FR1	3	R1292E
2966.309	0.001	2966451	COUNTDOWN_END	n/a	n/a	n/a	-999	20	[0, 0, 0]	n/a	FR1	3	R1292E
2966.31	1.206	2966452	ORIENT_START	n/a	n/a	n/a	-999	20	[0, 0, 0]	n/a	FR1	3	R1292E
2967.516	0.001	2967658	ORIENT_END	n/a	n/a	n/a	-999	20	[0, 0, 0]	n/a	FR1	3	R1292E
2967.517	0.853	2967659	ENCODING_START	n/a	n/a	n/a	-999	20	[0, 0, 0]	n/a	FR1	3	R1292E
2968.37	1.629	2968512	WORD	n/a	n/a	TOOL	1	20	[0, 0, 0]	n/a	FR1	3	R1292E
2969.999	0.804	2970141	WORD_OFF	n/a	n/a	TOOL	1	20	[0, 0, 0]	n/a	FR1	3	R1292E
2970.803	1.631	2970945	WORD	n/a	n/a	VASE	2	20	[0, 0, 0]	n/a	FR1	3	R1292E
2972.434	0.847	2972576	WORD_OFF	n/a	n/a	VASE	2	20	[0, 0, 0]	n/a	FR1	3	R1292E
2973.281	1.636	2973423	WORD	n/a	n/a	WING	3	20	[0, 0, 0]	n/a	FR1	3	R1292E
2974.917	0.89	2975059	WORD_OFF	n/a	n/a	WING	3	20	[0, 0, 0]	n/a	FR1	3	R1292E
2975.807	1.628	2975949	WORD	n/a	n/a	BAG	4	20	[0, 0, 0]	n/a	FR1	3	R1292E
2977.435	1.013	2977577	WORD_OFF	n/a	n/a	BAG	4	20	[0, 0, 0]	n/a	FR1	3	R1292E
2978.448	1.62	2978590	WORD	n/a	n/a	JEEP	5	20	[0, 0, 0]	n/a	FR1	3	R1292E
2980.068	0.907	2980210	WORD_OFF	n/a	n/a	JEEP	5	20	[0, 0, 0]	n/a	FR1	3	R1292E
2980.975	1.626	2981117	WORD	n/a	n/a	GLOVE	6	20	[0, 0, 0]	n/a	FR1	3	R1292E
2982.601	1.141	2982743	WORD_OFF	n/a	n/a	GLOVE	6	20	[0, 0, 0]	n/a	FR1	3	R1292E
2983.742	1.626	2983884	WORD	n/a	n/a	GOAT	7	20	[0, 0, 0]	n/a	FR1	3	R1292E
2985.368	0.83	2985510	WORD_OFF	n/a	n/a	GOAT	7	20	[0, 0, 0]	n/a	FR1	3	R1292E
2986.198	1.621	2986340	WORD	n/a	n/a	FLAME	8	20	[0, 0, 0]	n/a	FR1	3	R1292E
2987.819	0.983	2987961	WORD_OFF	n/a	n/a	FLAME	8	20	[0, 0, 0]	n/a	FR1	3	R1292E
2988.802	1.635	2988944	WORD	n/a	n/a	KITE	9	20	[0, 0, 0]	n/a	FR1	3	R1292E
2990.437	1.047	2990578	WORD_OFF	n/a	n/a	KITE	9	20	[0, 0, 0]	n/a	FR1	3	R1292E
2991.484	1.636	2991625	WORD	n/a	n/a	STICK	10	20	[0, 0, 0]	n/a	FR1	3	R1292E
2993.12	1.04	2993261	WORD_OFF	n/a	n/a	STICK	10	20	[0, 0, 0]	n/a	FR1	3	R1292E
2994.16	1.627	2994301	WORD	n/a	n/a	ZOO	11	20	[0, 0, 0]	n/a	FR1	3	R1292E
2995.787	1.06	2995928	WORD_OFF	n/a	n/a	ZOO	11	20	[0, 0, 0]	n/a	FR1	3	R1292E
2996.847	1.625	2996988	WORD	n/a	n/a	TANK	12	20	[0, 0, 0]	n/a	FR1	3	R1292E
2998.472	0.0	2998613	WORD_OFF	n/a	n/a	TANK	12	20	[0, 0, 0]	n/a	FR1	3	R1292E
2998.472	0.0	2998613	ENCODING_END	n/a	n/a	n/a	-999	20	[0, 0, 0]	n/a	FR1	3	R1292E
2998.472	0.001	2998613	DISTRACT_START	n/a	n/a	n/a	-999	20	[0, 0, 0]	n/a	FR1	3	R1292E
2998.473	0.015	2998614	START	n/a	n/a	n/a	-999	20	[-999, -999, -999]	n/a	FR1	3	R1292E
2998.488	13.768	2998629	PROB	13.768	n/a	n/a	-999	20	[7, 4, 2]	13	FR1	3	R1292E
3012.256	6.398	3012397	PROB	6.398	n/a	n/a	-999	20	[8, 2, 8]	18	FR1	3	R1292E
3018.654	0.02	3018794	STOP	n/a	n/a	n/a	-999	20	[-999, -999, -999]	n/a	FR1	3	R1292E
3018.674	0.526	3018814	DISTRACT_END	n/a	n/a	n/a	-999	20	[0, 0, 0]	n/a	FR1	3	R1292E
3019.2	1.591	3019340	RETRIEVAL_ORIENT_START	n/a	n/a	n/a	-999	20	[0, 0, 0]	n/a	FR1	3	R1292E
3020.791	0.001	3020931	RETRIEVAL_ORIENT_END	n/a	n/a	n/a	-999	20	[0, 0, 0]	n/a	FR1	3	R1292E
3020.792	0.485	3020932	REC_START	n/a	n/a	n/a	-999	20	[0, 0, 0]	n/a	FR1	3	R1292E
3021.277	1.069	3021417	REC_WORD	1.069	n/a	WING	3	20	[0, 0, 0]	n/a	FR1	3	R1292E
3022.346	4.06	3022486	REC_WORD	4.06	n/a	JEEP	5	20	[0, 0, 0]	n/a	FR1	3	R1292E
3026.406	24.397	3026546	REC_WORD_VV	24.397	n/a	<>	-999	20	[0, 0, 0]	n/a	FR1	3	R1292E
3050.803	0.001	3050942	REC_END	n/a	n/a	n/a	-999	20	[0, 0, 0]	n/a	FR1	3	R1292E
3050.804	0.018	3050943	TRIAL_END	n/a	n/a	n/a	-999	20	[0, 0, 0]	n/a	FR1	3	R1292E
3050.822	0.0	3050961	TRIAL_START	n/a	n/a	n/a	-999	21	[0, 0, 0]	n/a	FR1	3	R1292E
3050.822	0.001	3050961	TRIAL	n/a	n/a	n/a	-999	21	[0, 0, 0]	n/a	FR1	3	R1292E
3050.823	2.274	3050962	WAITING_START	n/a	n/a	n/a	-999	21	[0, 0, 0]	n/a	FR1	3	R1292E
3053.097	0.0	3053236	WAITING_END	n/a	n/a	n/a	-999	21	[0, 0, 0]	n/a	FR1	3	R1292E
3053.097	10.429	3053236	COUNTDOWN_START	n/a	n/a	n/a	-999	21	[0, 0, 0]	n/a	FR1	3	R1292E
3063.526	0.001	3063665	COUNTDOWN_END	n/a	n/a	n/a	-999	21	[0, 0, 0]	n/a	FR1	3	R1292E
3063.527	1.255	3063666	ORIENT_START	n/a	n/a	n/a	-999	21	[0, 0, 0]	n/a	FR1	3	R1292E
3064.782	0.001	3064921	ORIENT_END	n/a	n/a	n/a	-999	21	[0, 0, 0]	n/a	FR1	3	R1292E
3064.783	1.005	3064922	ENCODING_START	n/a	n/a	n/a	-999	21	[0, 0, 0]	n/a	FR1	3	R1292E
3065.788	1.629	3065927	WORD	n/a	n/a	PET	1	21	[0, 0, 0]	n/a	FR1	3	R1292E
3067.417	0.787	3067556	WORD_OFF	n/a	n/a	PET	1	21	[0, 0, 0]	n/a	FR1	3	R1292E
3068.204	1.629	3068343	WORD	n/a	n/a	CONE	2	21	[0, 0, 0]	n/a	FR1	3	R1292E
3069.833	0.889	3069972	WORD_OFF	n/a	n/a	CONE	2	21	[0, 0, 0]	n/a	FR1	3	R1292E
3070.722	1.628	3070861	WORD	n/a	n/a	GLASS	3	21	[0, 0, 0]	n/a	FR1	3	R1292E
3072.35	1.151	3072489	WORD_OFF	n/a	n/a	GLASS	3	21	[0, 0, 0]	n/a	FR1	3	R1292E
3073.501	1.633	3073640	WORD	n/a	n/a	TOAD	4	21	[0, 0, 0]	n/a	FR1	3	R1292E
3075.134	0.792	3075272	WORD_OFF	n/a	n/a	TOAD	4	21	[0, 0, 0]	n/a	FR1	3	R1292E
3075.926	1.626	3076064	WORD	n/a	n/a	RAT	5	21	[0, 0, 0]	n/a	FR1	3	R1292E
3077.552	0.803	3077690	WORD_OFF	n/a	n/a	RAT	5	21	[0, 0, 0]	n/a	FR1	3	R1292E
3078.355	1.63	3078493	WORD	n/a	n/a	CAPE	6	21	[0, 0, 0]	n/a	FR1	3	R1292E
3079.985	1.135	3080123	WORD_OFF	n/a	n/a	CAPE	6	21	[0, 0, 0]	n/a	FR1	3	R1292E
3081.12	1.632	3081258	WORD	n/a	n/a	CAKE	7	21	[0, 0, 0]	n/a	FR1	3	R1292E
3082.752	1.111	3082890	WORD_OFF	n/a	n/a	CAKE	7	21	[0, 0, 0]	n/a	FR1	3	R1292E
3083.863	1.624	3084001	WORD	n/a	n/a	BOWL	8	21	[0, 0, 0]	n/a	FR1	3	R1292E
3085.487	1.064	3085625	WORD_OFF	n/a	n/a	BOWL	8	21	[0, 0, 0]	n/a	FR1	3	R1292E
3086.551	1.635	3086689	WORD	n/a	n/a	SLIME	9	21	[0, 0, 0]	n/a	FR1	3	R1292E
3088.186	0.934	3088324	WORD_OFF	n/a	n/a	SLIME	9	21	[0, 0, 0]	n/a	FR1	3	R1292E
3089.12	1.634	3089258	WORD	n/a	n/a	BALL	10	21	[0, 0, 0]	n/a	FR1	3	R1292E
3090.754	1.07	3090892	WORD_OFF	n/a	n/a	BALL	10	21	[0, 0, 0]	n/a	FR1	3	R1292E
3091.824	1.631	3091962	WORD	n/a	n/a	SQUARE	11	21	[0, 0, 0]	n/a	FR1	3	R1292E
3093.455	0.796	3093593	WORD_OFF	n/a	n/a	SQUARE	11	21	[0, 0, 0]	n/a	FR1	3	R1292E
3094.251	1.637	3094389	WORD	n/a	n/a	BLUSH	12	21	[0, 0, 0]	n/a	FR1	3	R1292E
3095.888	0.0	3096026	WORD_OFF	n/a	n/a	BLUSH	12	21	[0, 0, 0]	n/a	FR1	3	R1292E
3095.888	0.0	3096026	ENCODING_END	n/a	n/a	n/a	-999	21	[0, 0, 0]	n/a	FR1	3	R1292E
3095.888	0.001	3096026	DISTRACT_START	n/a	n/a	n/a	-999	21	[0, 0, 0]	n/a	FR1	3	R1292E
3095.889	0.015	3096027	START	n/a	n/a	n/a	-999	21	[-999, -999, -999]	n/a	FR1	3	R1292E
3095.904	3.602	3096042	PROB	3.602	n/a	n/a	-999	21	[8, 1, 2]	11	FR1	3	R1292E
3099.506	4.867	3099644	PROB	4.867	n/a	n/a	-999	21	[8, 6, 1]	15	FR1	3	R1292E
3104.373	11.235	3104510	PROB	11.235	n/a	n/a	-999	21	[9, 8, 9]	26	FR1	3	R1292E
3115.608	3.466	3115745	PROB	3.466	n/a	n/a	-999	21	[2, 5, 2]	9	FR1	3	R1292E
3119.074	0.018	3119211	STOP	n/a	n/a	n/a	-999	21	[-999, -999, -999]	n/a	FR1	3	R1292E
3119.092	0.608	3119229	DISTRACT_END	n/a	n/a	n/a	-999	21	[0, 0, 0]	n/a	FR1	3	R1292E
3119.7	1.559	3119837	RETRIEVAL_ORIENT_START	n/a	n/a	n/a	-999	21	[0, 0, 0]	n/a	FR1	3	R1292E
3121.259	0.0	3121396	RETRIEVAL_ORIENT_END	n/a	n/a	n/a	-999	21	[0, 0, 0]	n/a	FR1	3	R1292E
3121.259	0.449	3121396	REC_START	n/a	n/a	n/a	-999	21	[0, 0, 0]	n/a	FR1	3	R1292E
3121.708	1.849	3121845	REC_WORD	1.849	n/a	PET	1	21	[0, 0, 0]	n/a	FR1	3	R1292E
3123.557	1.225	3123694	REC_WORD	1.225	n/a	RAT	5	21	[0, 0, 0]	n/a	FR1	3	R1292E
3124.782	1.49	3124919	REC_WORD	1.49	n/a	BALL	10	21	[0, 0, 0]	n/a	FR1	3	R1292E
3126.272	24.999	3126409	REC_WORD	24.999	n/a	SLIME	9	21	[0, 0, 0]	n/a	FR1	3	R1292E
3151.271	0.0	3151407	REC_END	n/a	n/a	n/a	-999	21	[0, 0, 0]	n/a	FR1	3	R1292E
3151.271	0.018	3151407	TRIAL_END	n/a	n/a	n/a	-999	21	[0, 0, 0]	n/a	FR1	3	R1292E
3151.289	0.001	3151425	TRIAL_START	n/a	n/a	n/a	-999	22	[0, 0, 0]	n/a	FR1	3	R1292E
3151.29	0.0	3151426	TRIAL	n/a	n/a	n/a	-999	22	[0, 0, 0]	n/a	FR1	3	R1292E
3151.29	2.209	3151426	WAITING_START	n/a	n/a	n/a	-999	22	[0, 0, 0]	n/a	FR1	3	R1292E
3153.499	0.0	3153635	COUNTDOWN_START	n/a	n/a	n/a	-999	22	[0, 0, 0]	n/a	FR1	3	R1292E
3153.499	10.429	3153635	WAITING_END	n/a	n/a	n/a	-999	22	[0, 0, 0]	n/a	FR1	3	R1292E
3163.928	0.001	3164063	COUNTDOWN_END	n/a	n/a	n/a	-999	22	[0, 0, 0]	n/a	FR1	3	R1292E
3163.929	1.071	3164064	ORIENT_START	n/a	n/a	n/a	-999	22	[0, 0, 0]	n/a	FR1	3	R1292E
3165.0	0.0	3165135	ORIENT_END	n/a	n/a	n/a	-999	22	[0, 0, 0]	n/a	FR1	3	R1292E
3165.0	0.862	3165135	ENCODING_START	n/a	n/a	n/a	-999	22	[0, 0, 0]	n/a	FR1	3	R1292E
3165.862	1.623	3165997	WORD	n/a	n/a	MULE	1	22	[0, 0, 0]	n/a	FR1	3	R1292E
3167.485	0.852	3167620	WORD_OFF	n/a	n/a	MULE	1	22	[0, 0, 0]	n/a	FR1	3	R1292E
3168.337	1.63	3168472	WORD	n/a	n/a	WOLF	2	22	[0, 0, 0]	n/a	FR1	3	R1292E
3169.967	0.981	3170102	WORD_OFF	n/a	n/a	WOLF	2	22	[0, 0, 0]	n/a	FR1	3	R1292E
3170.948	1.621	3171083	WORD	n/a	n/a	ROOT	3	22	[0, 0, 0]	n/a	FR1	3	R1292E
3172.569	1.081	3172704	WORD_OFF	n/a	n/a	ROOT	3	22	[0, 0, 0]	n/a	FR1	3	R1292E
3173.65	1.635	3173785	WORD	n/a	n/a	ARK	4	22	[0, 0, 0]	n/a	FR1	3	R1292E
3175.285	0.772	3175420	WORD_OFF	n/a	n/a	ARK	4	22	[0, 0, 0]	n/a	FR1	3	R1292E
3176.057	1.629	3176192	WORD	n/a	n/a	SHIP	5	22	[0, 0, 0]	n/a	FR1	3	R1292E
3177.686	0.99	3177821	WORD_OFF	n/a	n/a	SHIP	5	22	[0, 0, 0]	n/a	FR1	3	R1292E
3178.676	1.627	3178811	WORD	n/a	n/a	FLOOR	6	22	[0, 0, 0]	n/a	FR1	3	R1292E
3180.303	0.753	3180438	WORD_OFF	n/a	n/a	FLOOR	6	22	[0, 0, 0]	n/a	FR1	3	R1292E
3181.056	1.63	3181191	WORD	n/a	n/a	SCHOOL	7	22	[0, 0, 0]	n/a	FR1	3	R1292E
3182.686	0.773	3182821	WORD_OFF	n/a	n/a	SCHOOL	7	22	[0, 0, 0]	n/a	FR1	3	R1292E
3183.459	1.628	3183594	WORD	n/a	n/a	FRUIT	8	22	[0, 0, 0]	n/a	FR1	3	R1292E
3185.087	0.971	3185222	WORD_OFF	n/a	n/a	FRUIT	8	22	[0, 0, 0]	n/a	FR1	3	R1292E
3186.058	1.629	3186193	WORD	n/a	n/a	HOLE	9	22	[0, 0, 0]	n/a	FR1	3	R1292E
3187.687	0.758	3187822	WORD_OFF	n/a	n/a	HOLE	9	22	[0, 0, 0]	n/a	FR1	3	R1292E
3188.445	1.626	3188579	WORD	n/a	n/a	MOUTH	10	22	[0, 0, 0]	n/a	FR1	3	R1292E
3190.071	0.979	3190205	WORD_OFF	n/a	n/a	MOUTH	10	22	[0, 0, 0]	n/a	FR1	3	R1292E
3191.05	1.622	3191184	WORD	n/a	n/a	RUG	11	22	[0, 0, 0]	n/a	FR1	3	R1292E
3192.672	0.957	3192806	WORD_OFF	n/a	n/a	RUG	11	22	[0, 0, 0]	n/a	FR1	3	R1292E
3193.629	1.626	3193763	WORD	n/a	n/a	SLUSH	12	22	[0, 0, 0]	n/a	FR1	3	R1292E
3195.255	0.001	3195389	WORD_OFF	n/a	n/a	SLUSH	12	22	[0, 0, 0]	n/a	FR1	3	R1292E
3195.256	0.0	3195390	ENCODING_END	n/a	n/a	n/a	-999	22	[0, 0, 0]	n/a	FR1	3	R1292E
3195.256	0.0	3195390	DISTRACT_START	n/a	n/a	n/a	-999	22	[0, 0, 0]	n/a	FR1	3	R1292E
3195.256	0.016	3195390	START	n/a	n/a	n/a	-999	22	[-999, -999, -999]	n/a	FR1	3	R1292E
3195.272	3.45	3195406	PROB	3.45	n/a	n/a	-999	22	[5, 5, 1]	11	FR1	3	R1292E
3198.722	4.284	3198856	PROB	4.284	n/a	n/a	-999	22	[3, 5, 5]	13	FR1	3	R1292E
3203.006	8.619	3203140	PROB	8.619	n/a	n/a	-999	22	[5, 6, 1]	13	FR1	3	R1292E
3211.625	4.11	3211759	PROB	4.11	n/a	n/a	-999	22	[6, 2, 8]	16	FR1	3	R1292E
3215.735	0.007	3215869	STOP	n/a	n/a	n/a	-999	22	[-999, -999, -999]	n/a	FR1	3	R1292E
3215.742	0.617	3215876	DISTRACT_END	n/a	n/a	n/a	-999	22	[0, 0, 0]	n/a	FR1	3	R1292E
3216.359	1.684	3216493	RETRIEVAL_ORIENT_START	n/a	n/a	n/a	-999	22	[0, 0, 0]	n/a	FR1	3	R1292E
3218.043	0.0	3218176	RETRIEVAL_ORIENT_END	n/a	n/a	n/a	-999	22	[0, 0, 0]	n/a	FR1	3	R1292E
3218.043	0.069	3218176	REC_START	n/a	n/a	n/a	-999	22	[0, 0, 0]	n/a	FR1	3	R1292E
3218.112	1.395	3218245	REC_WORD	1.395	n/a	SCHOOL	7	22	[0, 0, 0]	n/a	FR1	3	R1292E
3219.507	1.255	3219640	REC_WORD	1.255	n/a	FLOOR	6	22	[0, 0, 0]	n/a	FR1	3	R1292E
3220.762	3.515	3220895	REC_WORD	3.515	n/a	ARK	4	22	[0, 0, 0]	n/a	FR1	3	R1292E
3224.277	23.776	3224410	REC_WORD	23.776	n/a	MULE	1	22	[0, 0, 0]	n/a	FR1	3	R1292E
3248.053	0.001	3248185	REC_END	n/a	n/a	n/a	-999	22	[0, 0, 0]	n/a	FR1	3	R1292E
3248.054	0.018	3248186	TRIAL_END	n/a	n/a	n/a	-999	22	[0, 0, 0]	n/a	FR1	3	R1292E
3248.072	0.001	3248204	TRIAL_START	n/a	n/a	n/a	-999	23	[0, 0, 0]	n/a	FR1	3	R1292E
3248.073	0.0	3248205	TRIAL	n/a	n/a	n/a	-999	23	[0, 0, 0]	n/a	FR1	3	R1292E
3248.073	17.011	3248205	WAITING_START	n/a	n/a	n/a	-999	23	[0, 0, 0]	n/a	FR1	3	R1292E
3265.084	0.001	3265216	WAITING_END	n/a	n/a	n/a	-999	23	[0, 0, 0]	n/a	FR1	3	R1292E
3265.085	10.429	3265217	COUNTDOWN_START	n/a	n/a	n/a	-999	23	[0, 0, 0]	n/a	FR1	3	R1292E
3275.514	0.0	3275645	ORIENT_START	n/a	n/a	n/a	-999	23	[0, 0, 0]	n/a	FR1	3	R1292E
3275.514	1.256	3275645	COUNTDOWN_END	n/a	n/a	n/a	-999	23	[0, 0, 0]	n/a	FR1	3	R1292E
3276.77	0.0	3276901	ORIENT_END	n/a	n/a	n/a	-999	23	[0, 0, 0]	n/a	FR1	3	R1292E
3276.77	0.961	3276901	ENCODING_START	n/a	n/a	n/a	-999	23	[0, 0, 0]	n/a	FR1	3	R1292E
3277.731	1.622	3277862	WORD	n/a	n/a	PANTS	1	23	[0, 0, 0]	n/a	FR1	3	R1292E
3279.353	0.867	3279484	WORD_OFF	n/a	n/a	PANTS	1	23	[0, 0, 0]	n/a	FR1	3	R1292E
3280.22	1.634	3280351	WORD	n/a	n/a	PEA	2	23	[0, 0, 0]	n/a	FR1	3	R1292E
3281.854	0.935	3281985	WORD_OFF	n/a	n/a	PEA	2	23	[0, 0, 0]	n/a	FR1	3	R1292E
3282.789	1.633	3282920	WORD	n/a	n/a	COUCH	3	23	[0, 0, 0]	n/a	FR1	3	R1292E
3284.422	0.889	3284553	WORD_OFF	n/a	n/a	COUCH	3	23	[0, 0, 0]	n/a	FR1	3	R1292E
3285.311	1.627	3285442	WORD	n/a	n/a	PARK	4	23	[0, 0, 0]	n/a	FR1	3	R1292E
3286.938	0.806	3287069	WORD_OFF	n/a	n/a	PARK	4	23	[0, 0, 0]	n/a	FR1	3	R1292E
3287.744	1.628	3287875	WORD	n/a	n/a	TRAIN	5	23	[0, 0, 0]	n/a	FR1	3	R1292E
3289.372	1.077	3289503	WORD_OFF	n/a	n/a	TRAIN	5	23	[0, 0, 0]	n/a	FR1	3	R1292E
3290.449	1.623	3290580	WORD	n/a	n/a	OAR	6	23	[0, 0, 0]	n/a	FR1	3	R1292E
3292.072	0.817	3292203	WORD_OFF	n/a	n/a	OAR	6	23	[0, 0, 0]	n/a	FR1	3	R1292E
3292.889	1.635	3293020	WORD	n/a	n/a	SWORD	7	23	[0, 0, 0]	n/a	FR1	3	R1292E
3294.524	0.754	3294655	WORD_OFF	n/a	n/a	SWORD	7	23	[0, 0, 0]	n/a	FR1	3	R1292E
3295.278	1.629	3295409	WORD	n/a	n/a	SLEEVE	8	23	[0, 0, 0]	n/a	FR1	3	R1292E
3296.907	1.109	3297038	WORD_OFF	n/a	n/a	SLEEVE	8	23	[0, 0, 0]	n/a	FR1	3	R1292E
3298.016	1.624	3298147	WORD	n/a	n/a	BRIDGE	9	23	[0, 0, 0]	n/a	FR1	3	R1292E
3299.64	1.13	3299771	WORD_OFF	n/a	n/a	BRIDGE	9	23	[0, 0, 0]	n/a	FR1	3	R1292E
3300.77	1.621	3300901	WORD	n/a	n/a	SNAIL	10	23	[0, 0, 0]	n/a	FR1	3	R1292E
3302.391	0.828	3302521	WORD_OFF	n/a	n/a	SNAIL	10	23	[0, 0, 0]	n/a	FR1	3	R1292E
3303.219	1.622	3303349	WORD	n/a	n/a	STAIR	11	23	[0, 0, 0]	n/a	FR1	3	R1292E
3304.841	0.964	3304971	WORD_OFF	n/a	n/a	STAIR	11	23	[0, 0, 0]	n/a	FR1	3	R1292E
3305.805	1.638	3305935	WORD	n/a	n/a	PLATE	12	23	[0, 0, 0]	n/a	FR1	3	R1292E
3307.443	0.0	3307573	DISTRACT_START	n/a	n/a	n/a	-999	23	[0, 0, 0]	n/a	FR1	3	R1292E
3307.443	0.0	3307573	ENCODING_END	n/a	n/a	n/a	-999	23	[0, 0, 0]	n/a	FR1	3	R1292E
3307.443	0.0	3307573	WORD_OFF	n/a	n/a	PLATE	12	23	[0, 0, 0]	n/a	FR1	3	R1292E
3307.443	0.016	3307573	START	n/a	n/a	n/a	-999	23	[-999, -999, -999]	n/a	FR1	3	R1292E
3307.459	8.484	3307589	PROB	8.484	n/a	n/a	-999	23	[4, 4, 5]	13	FR1	3	R1292E
3315.943	5.051	3316073	PROB	5.051	n/a	n/a	-999	23	[5, 8, 3]	16	FR1	3	R1292E
3320.994	3.585	3321124	PROB	3.585	n/a	n/a	-999	23	[2, 5, 4]	11	FR1	3	R1292E
3324.579	7.52	3324709	PROB	7.52	n/a	n/a	-999	23	[9, 1, 1]	11	FR1	3	R1292E
3332.099	0.014	3332228	STOP	n/a	n/a	n/a	-999	23	[-999, -999, -999]	n/a	FR1	3	R1292E
3332.113	0.588	3332242	DISTRACT_END	n/a	n/a	n/a	-999	23	[0, 0, 0]	n/a	FR1	3	R1292E
3332.701	1.73	3332830	RETRIEVAL_ORIENT_START	n/a	n/a	n/a	-999	23	[0, 0, 0]	n/a	FR1	3	R1292E
3334.431	0.0	3334560	RETRIEVAL_ORIENT_END	n/a	n/a	n/a	-999	23	[0, 0, 0]	n/a	FR1	3	R1292E
3334.431	0.324	3334560	REC_START	n/a	n/a	n/a	-999	23	[0, 0, 0]	n/a	FR1	3	R1292E
3334.755	1.425	3334884	REC_WORD	1.425	n/a	PEA	2	23	[0, 0, 0]	n/a	FR1	3	R1292E
3336.18	2.34	3336309	REC_WORD	2.34	n/a	PANTS	1	23	[0, 0, 0]	n/a	FR1	3	R1292E
3338.52	25.923	3338649	REC_WORD	25.923	n/a	COUCH	3	23	[0, 0, 0]	n/a	FR1	3	R1292E
3364.443	0.0	3364571	TRIAL_END	n/a	n/a	n/a	-999	23	[0, 0, 0]	n/a	FR1	3	R1292E
3364.443	0.02	3364571	REC_END	n/a	n/a	n/a	-999	23	[0, 0, 0]	n/a	FR1	3	R1292E
3364.463	0.0	3364591	TRIAL_START	n/a	n/a	n/a	-999	24	[0, 0, 0]	n/a	FR1	3	R1292E
3364.463	0.0	3364591	TRIAL	n/a	n/a	n/a	-999	24	[0, 0, 0]	n/a	FR1	3	R1292E
3364.463	63.034	3364591	WAITING_START	n/a	n/a	n/a	-999	24	[0, 0, 0]	n/a	FR1	3	R1292E
3427.497	0.0	3427623	WAITING_END	n/a	n/a	n/a	-999	24	[0, 0, 0]	n/a	FR1	3	R1292E
3427.497	10.429	3427623	COUNTDOWN_START	n/a	n/a	n/a	-999	24	[0, 0, 0]	n/a	FR1	3	R1292E
3437.926	0.001	3438052	COUNTDOWN_END	n/a	n/a	n/a	-999	24	[0, 0, 0]	n/a	FR1	3	R1292E
3437.927	1.038	3438053	ORIENT_START	n/a	n/a	n/a	-999	24	[0, 0, 0]	n/a	FR1	3	R1292E
3438.965	0.0	3439091	ENCODING_START	n/a	n/a	n/a	-999	24	[0, 0, 0]	n/a	FR1	3	R1292E
3438.965	0.887	3439091	ORIENT_END	n/a	n/a	n/a	-999	24	[0, 0, 0]	n/a	FR1	3	R1292E
3439.852	1.631	3439978	WORD	n/a	n/a	EEL	1	24	[0, 0, 0]	n/a	FR1	3	R1292E
3441.483	0.857	3441609	WORD_OFF	n/a	n/a	EEL	1	24	[0, 0, 0]	n/a	FR1	3	R1292E
3442.34	1.626	3442466	WORD	n/a	n/a	PLANT	2	24	[0, 0, 0]	n/a	FR1	3	R1292E
3443.966	1.014	3444092	WORD_OFF	n/a	n/a	PLANT	2	24	[0, 0, 0]	n/a	FR1	3	R1292E
3444.98	1.62	3445105	WORD	n/a	n/a	DRESS	3	24	[0, 0, 0]	n/a	FR1	3	R1292E
3446.6	1.052	3446725	WORD_OFF	n/a	n/a	DRESS	3	24	[0, 0, 0]	n/a	FR1	3	R1292E
3447.652	1.631	3447777	WORD	n/a	n/a	PASTE	4	24	[0, 0, 0]	n/a	FR1	3	R1292E
3449.283	0.781	3449408	WORD_OFF	n/a	n/a	PASTE	4	24	[0, 0, 0]	n/a	FR1	3	R1292E
3450.064	1.636	3450189	WORD	n/a	n/a	CASH	5	24	[0, 0, 0]	n/a	FR1	3	R1292E
3451.7	0.93	3451825	WORD_OFF	n/a	n/a	CASH	5	24	[0, 0, 0]	n/a	FR1	3	R1292E
3452.63	1.621	3452755	WORD	n/a	n/a	BRANCH	6	24	[0, 0, 0]	n/a	FR1	3	R1292E
3454.251	1.151	3454376	WORD_OFF	n/a	n/a	BRANCH	6	24	[0, 0, 0]	n/a	FR1	3	R1292E
3455.402	1.633	3455527	WORD	n/a	n/a	SPOON	7	24	[0, 0, 0]	n/a	FR1	3	R1292E
3457.035	1.064	3457160	WORD_OFF	n/a	n/a	SPOON	7	24	[0, 0, 0]	n/a	FR1	3	R1292E
3458.099	1.636	3458224	WORD	n/a	n/a	MOUSE	8	24	[0, 0, 0]	n/a	FR1	3	R1292E
3459.735	0.894	3459860	WORD_OFF	n/a	n/a	MOUSE	8	24	[0, 0, 0]	n/a	FR1	3	R1292E
3460.629	1.623	3460754	WORD	n/a	n/a	STAR	9	24	[0, 0, 0]	n/a	FR1	3	R1292E
3462.252	0.88	3462377	WORD_OFF	n/a	n/a	STAR	9	24	[0, 0, 0]	n/a	FR1	3	R1292E
3463.132	1.621	3463257	WORD	n/a	n/a	NET	10	24	[0, 0, 0]	n/a	FR1	3	R1292E
3464.753	1.058	3464878	WORD_OFF	n/a	n/a	NET	10	24	[0, 0, 0]	n/a	FR1	3	R1292E
3465.811	1.609	3465936	WORD	n/a	n/a	DITCH	11	24	[0, 0, 0]	n/a	FR1	3	R1292E
3467.42	1.062	3467545	WORD_OFF	n/a	n/a	DITCH	11	24	[0, 0, 0]	n/a	FR1	3	R1292E
3468.482	1.622	3468607	WORD	n/a	n/a	HEN	12	24	[0, 0, 0]	n/a	FR1	3	R1292E
3470.104	0.0	3470229	WORD_OFF	n/a	n/a	HEN	12	24	[0, 0, 0]	n/a	FR1	3	R1292E
3470.104	0.0	3470229	ENCODING_END	n/a	n/a	n/a	-999	24	[0, 0, 0]	n/a	FR1	3	R1292E
3470.104	0.0	3470229	DISTRACT_START	n/a	n/a	n/a	-999	24	[0, 0, 0]	n/a	FR1	3	R1292E
3470.104	0.016	3470229	START	n/a	n/a	n/a	-999	24	[-999, -999, -999]	n/a	FR1	3	R1292E
3470.12	10.502	3470245	PROB	10.502	n/a	n/a	-999	24	[4, 3, 9]	16	FR1	3	R1292E
3480.622	3.45	3480746	PROB	3.45	n/a	n/a	-999	24	[1, 5, 3]	9	FR1	3	R1292E
3484.072	12.23	3484196	PROB	12.23	n/a	n/a	-999	24	[5, 7, 8]	20	FR1	3	R1292E
3496.302	0.023	3496426	STOP	n/a	n/a	n/a	-999	24	[-999, -999, -999]	n/a	FR1	3	R1292E
3496.325	0.65	3496449	DISTRACT_END	n/a	n/a	n/a	-999	24	[0, 0, 0]	n/a	FR1	3	R1292E
3496.975	1.684	3497099	RETRIEVAL_ORIENT_START	n/a	n/a	n/a	-999	24	[0, 0, 0]	n/a	FR1	3	R1292E
3498.659	0.0	3498783	RETRIEVAL_ORIENT_END	n/a	n/a	n/a	-999	24	[0, 0, 0]	n/a	FR1	3	R1292E
3498.659	0.729	3498783	REC_START	n/a	n/a	n/a	-999	24	[0, 0, 0]	n/a	FR1	3	R1292E
3499.388	1.685	3499512	REC_WORD	1.685	n/a	MOUSE	8	24	[0, 0, 0]	n/a	FR1	3	R1292E
3501.073	1.84	3501197	REC_WORD	1.84	n/a	HEN	12	24	[0, 0, 0]	n/a	FR1	3	R1292E
3502.913	7.114	3503036	REC_WORD	7.114	n/a	EEL	1	24	[0, 0, 0]	n/a	FR1	3	R1292E
3510.027	3.08	3510150	REC_WORD	3.08	n/a	DRESS	3	24	[0, 0, 0]	n/a	FR1	3	R1292E
3513.107	15.563	3513230	REC_WORD	15.563	n/a	CASH	5	24	[0, 0, 0]	n/a	FR1	3	R1292E
3528.67	0.001	3528793	REC_END	n/a	n/a	n/a	-999	24	[0, 0, 0]	n/a	FR1	3	R1292E
3528.671	0.017	3528794	TRIAL_END	n/a	n/a	n/a	-999	24	[0, 0, 0]	n/a	FR1	3	R1292E
3528.688	0.001	3528811	TRIAL_START	n/a	n/a	n/a	-999	25	[0, 0, 0]	n/a	FR1	3	R1292E
3528.689	0.0	3528812	TRIAL	n/a	n/a	n/a	-999	25	[0, 0, 0]	n/a	FR1	3	R1292E
3528.689	14.527	3528812	WAITING_START	n/a	n/a	n/a	-999	25	[0, 0, 0]	n/a	FR1	3	R1292E
