onset	duration	sample	trial_type	response_time	stim_file	item_name	serialpos	list	test	answer	experiment	session	subject
0.0	147.316	27917	INSTRUCT_START	n/a	n/a	n/a	-999	-999	[0, 0, 0]	n/a	FR1	0	R1449T
147.316	45.965	175229	INSTRUCT_END	n/a	n/a	n/a	-999	-999	[0, 0, 0]	n/a	FR1	0	R1449T
193.281	10.351	221187	COUNTDOWN_START	n/a	n/a	n/a	-999	-999	[0, 0, 0]	n/a	FR1	0	R1449T
203.632	0.0	231532	COUNTDOWN_END	n/a	n/a	n/a	-999	-999	[0, 0, 0]	n/a	FR1	0	R1449T
203.632	1.983	231532	ENCODING_START	n/a	n/a	n/a	-999	-1	[0, 0, 0]	n/a	FR1	0	R1449T
205.615	1.6	233516	WORD	n/a	n/a	TOY	1	-1	[0, 0, 0]	n/a	FR1	0	R1449T
207.215	0.95	235118	WORD_OFF	n/a	n/a	TOY	1	-1	[0, 0, 0]	n/a	FR1	0	R1449T
208.165	1.6	236067	WORD	n/a	n/a	SQUARE	2	-1	[0, 0, 0]	n/a	FR1	0	R1449T
209.765	0.899	237668	WORD_OFF	n/a	n/a	SQUARE	2	-1	[0, 0, 0]	n/a	FR1	0	R1449T
210.664	1.601	238575	WORD	n/a	n/a	GATE	3	-1	[0, 0, 0]	n/a	FR1	0	R1449T
212.265	0.9	240163	WORD_OFF	n/a	n/a	GATE	3	-1	[0, 0, 0]	n/a	FR1	0	R1449T
213.165	1.6	241069	WORD	n/a	n/a	WIFE	4	-1	[0, 0, 0]	n/a	FR1	0	R1449T
214.765	0.917	242671	WORD_OFF	n/a	n/a	WIFE	4	-1	[0, 0, 0]	n/a	FR1	0	R1449T
215.682	1.616	243592	WORD	n/a	n/a	PERCH	5	-1	[0, 0, 0]	n/a	FR1	0	R1449T
217.298	0.784	245208	WORD_OFF	n/a	n/a	PERCH	5	-1	[0, 0, 0]	n/a	FR1	0	R1449T
218.082	1.6	245987	WORD	n/a	n/a	DUST	6	-1	[0, 0, 0]	n/a	FR1	0	R1449T
219.682	0.8	247588	WORD_OFF	n/a	n/a	DUST	6	-1	[0, 0, 0]	n/a	FR1	0	R1449T
220.482	1.617	248382	WORD	n/a	n/a	SCOTCH	7	-1	[0, 0, 0]	n/a	FR1	0	R1449T
222.099	0.799	249997	WORD_OFF	n/a	n/a	SCOTCH	7	-1	[0, 0, 0]	n/a	FR1	0	R1449T
222.898	1.6	250805	WORD	n/a	n/a	HOOD	8	-1	[0, 0, 0]	n/a	FR1	0	R1449T
224.498	0.834	252407	WORD_OFF	n/a	n/a	HOOD	8	-1	[0, 0, 0]	n/a	FR1	0	R1449T
225.332	1.616	253229	WORD	n/a	n/a	LAMP	9	-1	[0, 0, 0]	n/a	FR1	0	R1449T
226.948	0.933	254858	WORD_OFF	n/a	n/a	LAMP	9	-1	[0, 0, 0]	n/a	FR1	0	R1449T
227.881	1.617	255779	WORD	n/a	n/a	VAULT	10	-1	[0, 0, 0]	n/a	FR1	0	R1449T
229.498	0.983	257395	WORD_OFF	n/a	n/a	VAULT	10	-1	[0, 0, 0]	n/a	FR1	0	R1449T
230.481	1.617	258387	WORD	n/a	n/a	POOL	11	-1	[0, 0, 0]	n/a	FR1	0	R1449T
232.098	0.8	260002	WORD_OFF	n/a	n/a	POOL	11	-1	[0, 0, 0]	n/a	FR1	0	R1449T
232.898	1.6	260796	WORD	n/a	n/a	DEER	12	-1	[0, 0, 0]	n/a	FR1	0	R1449T
234.498	0.002	262397	WORD_OFF	n/a	n/a	DEER	12	-1	[0, 0, 0]	n/a	FR1	0	R1449T
234.5	0.0	262397	ENCODING_END	n/a	n/a	n/a	-999	-1	[0, 0, 0]	n/a	FR1	0	R1449T
234.5	0.0	262398	DISTRACT_START	n/a	n/a	n/a	-999	-1	[0, 0, 0]	n/a	FR1	0	R1449T
234.5	0.0	262407	START	n/a	n/a	n/a	-999	-1	[-999, -999, -999]	n/a	FR1	0	R1449T
234.5	5.6	262407	PROB	5.6	n/a	n/a	-999	-1	[2, 1, 8]	11	FR1	0	R1449T
240.1	3.483	268006	PROB	3.483	n/a	n/a	-999	-1	[4, 4, 2]	10	FR1	0	R1449T
243.583	3.666	271489	PROB	3.666	n/a	n/a	-999	-1	[2, 6, 3]	11	FR1	0	R1449T
247.249	3.983	275155	PROB	3.983	n/a	n/a	-999	-1	[4, 4, 5]	13	FR1	0	R1449T
251.232	3.566	279138	PROB	3.566	n/a	n/a	-999	-1	[1, 2, 5]	8	FR1	0	R1449T
254.798	0.0	282704	STOP	n/a	n/a	n/a	-999	-1	[-999, -999, -999]	n/a	FR1	0	R1449T
254.798	2.249	282705	DISTRACT_END	n/a	n/a	n/a	-999	-1	[0, 0, 0]	n/a	FR1	0	R1449T
257.047	0.794	284952	REC_START	n/a	n/a	n/a	-999	-1	[0, 0, 0]	n/a	FR1	0	R1449T
257.841	1.293	285746	REC_WORD	1.293	n/a	TOY	1	-1	[0, 0, 0]	n/a	FR1	0	R1449T
259.134	1.561	287039	REC_WORD	1.561	n/a	SQUARE	2	-1	[0, 0, 0]	n/a	FR1	0	R1449T
260.695	1.552	288600	REC_WORD	1.552	n/a	GATE	3	-1	[0, 0, 0]	n/a	FR1	0	R1449T
262.247	1.588	290152	REC_WORD	1.588	n/a	DUST	6	-1	[0, 0, 0]	n/a	FR1	0	R1449T
263.835	6.062	291740	REC_WORD	6.062	n/a	WIFE	4	-1	[0, 0, 0]	n/a	FR1	0	R1449T
269.897	17.361	297802	REC_WORD	17.361	n/a	POOL	11	-1	[0, 0, 0]	n/a	FR1	0	R1449T
287.258	29.116	315158	REC_END	n/a	n/a	n/a	-999	-1	[0, 0, 0]	n/a	FR1	0	R1449T
316.374	10.341	344280	COUNTDOWN_START	n/a	n/a	n/a	-999	1	[0, 0, 0]	n/a	FR1	0	R1449T
326.715	0.0	354611	COUNTDOWN_END	n/a	n/a	n/a	-999	1	[0, 0, 0]	n/a	FR1	0	R1449T
326.715	2.083	354611	ENCODING_START	n/a	n/a	n/a	-999	1	[0, 0, 0]	n/a	FR1	0	R1449T
328.798	1.616	356694	WORD	n/a	wordpools/wordpool_long_EN.txt	PAIL	1	1	[0, 0, 0]	n/a	FR1	0	R1449T
330.414	1.0	358310	WORD_OFF	n/a	n/a	PAIL	1	1	[0, 0, 0]	n/a	FR1	0	R1449T
331.414	1.601	359316	WORD	n/a	wordpools/wordpool_long_EN.txt	SOAP	2	1	[0, 0, 0]	n/a	FR1	0	R1449T
333.015	0.85	360917	WORD_OFF	n/a	n/a	SOAP	2	1	[0, 0, 0]	n/a	FR1	0	R1449T
333.865	1.6	361767	WORD	n/a	wordpools/wordpool_long_EN.txt	GLASS	3	1	[0, 0, 0]	n/a	FR1	0	R1449T
335.465	0.983	363369	WORD_OFF	n/a	n/a	GLASS	3	1	[0, 0, 0]	n/a	FR1	0	R1449T
336.448	1.601	364347	WORD	n/a	wordpools/wordpool_long_EN.txt	WOOD	4	1	[0, 0, 0]	n/a	FR1	0	R1449T
338.049	0.916	365948	WORD_OFF	n/a	n/a	WOOD	4	1	[0, 0, 0]	n/a	FR1	0	R1449T
338.965	1.616	366869	WORD	n/a	wordpools/wordpool_long_EN.txt	CLAY	5	1	[0, 0, 0]	n/a	FR1	0	R1449T
340.581	0.817	368485	WORD_OFF	n/a	n/a	CLAY	5	1	[0, 0, 0]	n/a	FR1	0	R1449T
341.398	1.617	369292	WORD	n/a	wordpools/wordpool_long_EN.txt	SALT	6	1	[0, 0, 0]	n/a	FR1	0	R1449T
343.015	0.849	370908	WORD_OFF	n/a	n/a	SALT	6	1	[0, 0, 0]	n/a	FR1	0	R1449T
343.864	1.601	371758	WORD	n/a	wordpools/wordpool_long_EN.txt	GRILL	7	1	[0, 0, 0]	n/a	FR1	0	R1449T
345.465	0.9	373360	WORD_OFF	n/a	n/a	GRILL	7	1	[0, 0, 0]	n/a	FR1	0	R1449T
346.365	1.616	374267	WORD	n/a	wordpools/wordpool_long_EN.txt	HORN	8	1	[0, 0, 0]	n/a	FR1	0	R1449T
347.981	0.801	375882	WORD_OFF	n/a	n/a	HORN	8	1	[0, 0, 0]	n/a	FR1	0	R1449T
348.782	1.615	376676	WORD	n/a	wordpools/wordpool_long_EN.txt	PLAID	9	1	[0, 0, 0]	n/a	FR1	0	R1449T
350.397	0.768	378291	WORD_OFF	n/a	n/a	PLAID	9	1	[0, 0, 0]	n/a	FR1	0	R1449T
351.165	1.617	379057	WORD	n/a	wordpools/wordpool_long_EN.txt	COIN	10	1	[0, 0, 0]	n/a	FR1	0	R1449T
352.782	0.783	380672	WORD_OFF	n/a	n/a	COIN	10	1	[0, 0, 0]	n/a	FR1	0	R1449T
353.565	1.6	381466	WORD	n/a	wordpools/wordpool_long_EN.txt	BEAST	11	1	[0, 0, 0]	n/a	FR1	0	R1449T
355.165	0.917	383067	WORD_OFF	n/a	n/a	BEAST	11	1	[0, 0, 0]	n/a	FR1	0	R1449T
356.082	1.616	383974	WORD	n/a	wordpools/wordpool_long_EN.txt	BLADE	12	1	[0, 0, 0]	n/a	FR1	0	R1449T
357.698	0.001	385590	WORD_OFF	n/a	n/a	BLADE	12	1	[0, 0, 0]	n/a	FR1	0	R1449T
357.699	0.001	385599	PROB	0.001	n/a	n/a	-999	1	[1, 1, 3]	5	FR1	0	R1449T
357.7	0.0	385600	START	n/a	n/a	n/a	-999	1	[-999, -999, -999]	n/a	FR1	0	R1449T
357.7	0.0	385604	ENCODING_END	n/a	n/a	n/a	-999	1	[0, 0, 0]	n/a	FR1	0	R1449T
357.7	3.464	385604	DISTRACT_START	n/a	n/a	n/a	-999	1	[0, 0, 0]	n/a	FR1	0	R1449T
361.164	4.418	389064	PROB	4.418	n/a	n/a	-999	1	[4, 3, 7]	14	FR1	0	R1449T
365.582	4.549	393482	PROB	4.549	n/a	n/a	-999	1	[7, 4, 3]	14	FR1	0	R1449T
370.131	3.501	398031	PROB	3.501	n/a	n/a	-999	1	[4, 7, 7]	18	FR1	0	R1449T
373.632	3.099	401531	PROB	3.099	n/a	n/a	-999	1	[2, 3, 1]	6	FR1	0	R1449T
376.731	4.617	404630	PROB	4.617	n/a	n/a	-999	1	[8, 5, 1]	14	FR1	0	R1449T
381.348	0.0	409242	DISTRACT_END	n/a	n/a	n/a	-999	1	[0, 0, 0]	n/a	FR1	0	R1449T
381.348	2.366	409247	STOP	n/a	n/a	n/a	-999	1	[-999, -999, -999]	n/a	FR1	0	R1449T
383.714	0.787	411616	REC_START	n/a	n/a	n/a	-999	1	[0, 0, 0]	n/a	FR1	0	R1449T
384.501	2.462	412400	REC_WORD	2.462	n/a	PAIL	1	1	[0, 0, 0]	n/a	FR1	0	R1449T
386.963	1.677	414862	REC_WORD	1.677	n/a	GLASS	3	1	[0, 0, 0]	n/a	FR1	0	R1449T
388.64	2.136	416539	REC_WORD	2.136	n/a	WOOD	4	1	[0, 0, 0]	n/a	FR1	0	R1449T
390.776	7.627	418675	REC_WORD	7.627	n/a	SQUARE	-999	1	[0, 0, 0]	n/a	FR1	0	R1449T
398.403	11.414	426301	REC_WORD	11.414	n/a	SNOW	-999	1	[0, 0, 0]	n/a	FR1	0	R1449T
409.817	4.091	437715	REC_WORD	4.091	n/a	TREE	-999	1	[0, 0, 0]	n/a	FR1	0	R1449T
413.908	1.823	441808	REC_END	n/a	n/a	n/a	-999	1	[0, 0, 0]	n/a	FR1	0	R1449T
415.731	10.35	443622	COUNTDOWN_START	n/a	n/a	n/a	-999	2	[0, 0, 0]	n/a	FR1	0	R1449T
426.081	0.0	453981	COUNTDOWN_END	n/a	n/a	n/a	-999	2	[0, 0, 0]	n/a	FR1	0	R1449T
426.081	2.101	453981	ENCODING_START	n/a	n/a	n/a	-999	2	[0, 0, 0]	n/a	FR1	0	R1449T
428.182	1.6	456078	WORD	n/a	wordpools/wordpool_long_EN.txt	ROAD	1	2	[0, 0, 0]	n/a	FR1	0	R1449T
429.782	0.783	457680	WORD_OFF	n/a	n/a	ROAD	1	2	[0, 0, 0]	n/a	FR1	0	R1449T
430.565	1.6	458459	WORD	n/a	wordpools/wordpool_long_EN.txt	CAPE	2	2	[0, 0, 0]	n/a	FR1	0	R1449T
432.165	0.8	460060	WORD_OFF	n/a	n/a	CAPE	2	2	[0, 0, 0]	n/a	FR1	0	R1449T
432.965	1.617	460854	WORD	n/a	wordpools/wordpool_long_EN.txt	SLEEVE	3	2	[0, 0, 0]	n/a	FR1	0	R1449T
434.582	0.8	462470	WORD_OFF	n/a	n/a	SLEEVE	3	2	[0, 0, 0]	n/a	FR1	0	R1449T
435.382	1.6	463277	WORD	n/a	wordpools/wordpool_long_EN.txt	THIEF	4	2	[0, 0, 0]	n/a	FR1	0	R1449T
436.982	0.783	464879	WORD_OFF	n/a	n/a	THIEF	4	2	[0, 0, 0]	n/a	FR1	0	R1449T
437.765	1.6	465658	WORD	n/a	wordpools/wordpool_long_EN.txt	MAIL	5	2	[0, 0, 0]	n/a	FR1	0	R1449T
439.365	0.833	467259	WORD_OFF	n/a	n/a	MAIL	5	2	[0, 0, 0]	n/a	FR1	0	R1449T
440.198	1.617	468096	WORD	n/a	wordpools/wordpool_long_EN.txt	STRAW	6	2	[0, 0, 0]	n/a	FR1	0	R1449T
441.815	0.833	469711	WORD_OFF	n/a	n/a	STRAW	6	2	[0, 0, 0]	n/a	FR1	0	R1449T
442.648	1.617	470547	WORD	n/a	wordpools/wordpool_long_EN.txt	SEAT	7	2	[0, 0, 0]	n/a	FR1	0	R1449T
444.265	1.0	472163	WORD_OFF	n/a	n/a	SEAT	7	2	[0, 0, 0]	n/a	FR1	0	R1449T
445.265	1.6	473155	WORD	n/a	wordpools/wordpool_long_EN.txt	GOAL	8	2	[0, 0, 0]	n/a	FR1	0	R1449T
446.865	0.983	474756	WORD_OFF	n/a	n/a	GOAL	8	2	[0, 0, 0]	n/a	FR1	0	R1449T
447.848	1.617	475734	WORD	n/a	wordpools/wordpool_long_EN.txt	WHEEL	9	2	[0, 0, 0]	n/a	FR1	0	R1449T
449.465	0.933	477364	WORD_OFF	n/a	n/a	WHEEL	9	2	[0, 0, 0]	n/a	FR1	0	R1449T
450.398	1.617	478285	WORD	n/a	wordpools/wordpool_long_EN.txt	DITCH	10	2	[0, 0, 0]	n/a	FR1	0	R1449T
452.015	1.0	479900	WORD_OFF	n/a	n/a	DITCH	10	2	[0, 0, 0]	n/a	FR1	0	R1449T
453.015	1.616	480907	WORD	n/a	wordpools/wordpool_long_EN.txt	ROCK	11	2	[0, 0, 0]	n/a	FR1	0	R1449T
454.631	0.9	482522	WORD_OFF	n/a	n/a	ROCK	11	2	[0, 0, 0]	n/a	FR1	0	R1449T
455.531	1.601	483429	WORD	n/a	wordpools/wordpool_long_EN.txt	BOWL	12	2	[0, 0, 0]	n/a	FR1	0	R1449T
457.132	0.001	485027	PROB	0.001	n/a	n/a	-999	2	[8, 5, 2]	15	FR1	0	R1449T
457.133	0.0	485028	START	n/a	n/a	n/a	-999	2	[-999, -999, -999]	n/a	FR1	0	R1449T
457.132	0.001	485030	WORD_OFF	n/a	n/a	BOWL	12	2	[0, 0, 0]	n/a	FR1	0	R1449T
457.133	0.0	485030	ENCODING_END	n/a	n/a	n/a	-999	2	[0, 0, 0]	n/a	FR1	0	R1449T
457.133	6.399	485030	DISTRACT_START	n/a	n/a	n/a	-999	2	[0, 0, 0]	n/a	FR1	0	R1449T
463.532	3.266	491427	PROB	3.266	n/a	n/a	-999	2	[3, 3, 6]	12	FR1	0	R1449T
466.798	3.451	494693	PROB	3.451	n/a	n/a	-999	2	[7, 4, 6]	17	FR1	0	R1449T
470.249	3.05	498143	PROB	3.05	n/a	n/a	-999	2	[3, 1, 7]	11	FR1	0	R1449T
473.299	3.533	501193	PROB	3.533	n/a	n/a	-999	2	[1, 6, 5]	12	FR1	0	R1449T
476.832	4.449	504726	PROB	4.449	n/a	n/a	-999	2	[8, 7, 3]	18	FR1	0	R1449T
481.281	0.0	509164	DISTRACT_END	n/a	n/a	n/a	-999	2	[0, 0, 0]	n/a	FR1	0	R1449T
481.281	2.351	509175	STOP	n/a	n/a	n/a	-999	2	[-999, -999, -999]	n/a	FR1	0	R1449T
483.632	1.014	511525	REC_START	n/a	n/a	n/a	-999	2	[0, 0, 0]	n/a	FR1	0	R1449T
484.646	1.228	512540	REC_WORD	1.228	n/a	DISH	-999	2	[0, 0, 0]	n/a	FR1	0	R1449T
485.874	1.329	513768	REC_WORD	1.329	n/a	ROCK	11	2	[0, 0, 0]	n/a	FR1	0	R1449T
487.203	1.547	515097	REC_WORD	1.547	n/a	BOWL	12	2	[0, 0, 0]	n/a	FR1	0	R1449T
488.75	1.504	516644	REC_WORD	1.504	n/a	MAIL	5	2	[0, 0, 0]	n/a	FR1	0	R1449T
490.254	6.475	518148	REC_WORD	6.475	n/a	SLEEVE	3	2	[0, 0, 0]	n/a	FR1	0	R1449T
496.729	17.119	524622	REC_WORD	17.119	n/a	THIEF	4	2	[0, 0, 0]	n/a	FR1	0	R1449T
513.848	1.833	541730	REC_END	n/a	n/a	n/a	-999	2	[0, 0, 0]	n/a	FR1	0	R1449T
515.681	10.35	543572	COUNTDOWN_START	n/a	n/a	n/a	-999	3	[0, 0, 0]	n/a	FR1	0	R1449T
526.031	0.0	553918	COUNTDOWN_END	n/a	n/a	n/a	-999	3	[0, 0, 0]	n/a	FR1	0	R1449T
526.031	1.967	553918	ENCODING_START	n/a	n/a	n/a	-999	3	[0, 0, 0]	n/a	FR1	0	R1449T
527.998	1.616	555887	WORD	n/a	wordpools/wordpool_long_EN.txt	SMOG	1	3	[0, 0, 0]	n/a	FR1	0	R1449T
529.614	0.817	557503	WORD_OFF	n/a	n/a	SMOG	1	3	[0, 0, 0]	n/a	FR1	0	R1449T
530.431	1.601	558325	WORD	n/a	wordpools/wordpool_long_EN.txt	BARN	2	3	[0, 0, 0]	n/a	FR1	0	R1449T
532.032	0.933	559926	WORD_OFF	n/a	n/a	BARN	2	3	[0, 0, 0]	n/a	FR1	0	R1449T
532.965	1.6	560847	WORD	n/a	wordpools/wordpool_long_EN.txt	FENCE	3	3	[0, 0, 0]	n/a	FR1	0	R1449T
534.565	0.767	562449	WORD_OFF	n/a	n/a	FENCE	3	3	[0, 0, 0]	n/a	FR1	0	R1449T
535.332	1.616	563214	WORD	n/a	wordpools/wordpool_long_EN.txt	DIME	4	3	[0, 0, 0]	n/a	FR1	0	R1449T
536.948	0.767	564830	WORD_OFF	n/a	n/a	DIME	4	3	[0, 0, 0]	n/a	FR1	0	R1449T
537.715	1.616	565609	WORD	n/a	wordpools/wordpool_long_EN.txt	YOLK	5	3	[0, 0, 0]	n/a	FR1	0	R1449T
539.331	0.917	567225	WORD_OFF	n/a	n/a	YOLK	5	3	[0, 0, 0]	n/a	FR1	0	R1449T
540.248	1.6	568132	WORD	n/a	wordpools/wordpool_long_EN.txt	CORD	6	3	[0, 0, 0]	n/a	FR1	0	R1449T
541.848	0.817	569733	WORD_OFF	n/a	n/a	CORD	6	3	[0, 0, 0]	n/a	FR1	0	R1449T
542.665	1.6	570555	WORD	n/a	wordpools/wordpool_long_EN.txt	HOOF	7	3	[0, 0, 0]	n/a	FR1	0	R1449T
544.265	0.9	572156	WORD_OFF	n/a	n/a	HOOF	7	3	[0, 0, 0]	n/a	FR1	0	R1449T
545.165	1.6	573049	WORD	n/a	wordpools/wordpool_long_EN.txt	WAND	8	3	[0, 0, 0]	n/a	FR1	0	R1449T
546.765	0.767	574650	WORD_OFF	n/a	n/a	WAND	8	3	[0, 0, 0]	n/a	FR1	0	R1449T
547.532	1.616	575416	WORD	n/a	wordpools/wordpool_long_EN.txt	JAR	9	3	[0, 0, 0]	n/a	FR1	0	R1449T
549.148	0.984	577031	WORD_OFF	n/a	n/a	JAR	9	3	[0, 0, 0]	n/a	FR1	0	R1449T
550.132	1.616	578023	WORD	n/a	wordpools/wordpool_long_EN.txt	CHURCH	10	3	[0, 0, 0]	n/a	FR1	0	R1449T
551.748	0.767	579639	WORD_OFF	n/a	n/a	CHURCH	10	3	[0, 0, 0]	n/a	FR1	0	R1449T
552.515	1.6	580404	WORD	n/a	wordpools/wordpool_long_EN.txt	STREET	11	3	[0, 0, 0]	n/a	FR1	0	R1449T
554.115	0.85	582005	WORD_OFF	n/a	n/a	STREET	11	3	[0, 0, 0]	n/a	FR1	0	R1449T
554.965	1.616	582856	WORD	n/a	wordpools/wordpool_long_EN.txt	STEAM	12	3	[0, 0, 0]	n/a	FR1	0	R1449T
556.581	0.001	584471	WORD_OFF	n/a	n/a	STEAM	12	3	[0, 0, 0]	n/a	FR1	0	R1449T
556.582	0.0	584471	ENCODING_END	n/a	n/a	n/a	-999	3	[0, 0, 0]	n/a	FR1	0	R1449T
556.582	0.0	584471	DISTRACT_START	n/a	n/a	n/a	-999	3	[0, 0, 0]	n/a	FR1	0	R1449T
556.581	0.001	584471	PROB	0.001	n/a	n/a	-999	3	[7, 1, 2]	10	FR1	0	R1449T
556.582	5.699	584472	START	n/a	n/a	n/a	-999	3	[-999, -999, -999]	n/a	FR1	0	R1449T
562.281	6.934	590171	PROB	6.934	n/a	n/a	-999	3	[7, 5, 3]	15	FR1	0	R1449T
569.215	3.267	597104	PROB	3.267	n/a	n/a	-999	3	[5, 3, 7]	15	FR1	0	R1449T
572.482	4.516	600371	PROB	4.516	n/a	n/a	-999	3	[3, 5, 6]	14	FR1	0	R1449T
576.998	0.0	604878	DISTRACT_END	n/a	n/a	n/a	-999	3	[0, 0, 0]	n/a	FR1	0	R1449T
576.998	2.217	604887	STOP	n/a	n/a	n/a	-999	3	[-999, -999, -999]	n/a	FR1	0	R1449T
579.215	0.841	607097	REC_START	n/a	n/a	n/a	-999	3	[0, 0, 0]	n/a	FR1	0	R1449T
580.056	1.166	607945	REC_WORD	1.166	n/a	JOY	-999	3	[0, 0, 0]	n/a	FR1	0	R1449T
581.222	1.475	609111	REC_WORD	1.475	n/a	CHURCH	10	3	[0, 0, 0]	n/a	FR1	0	R1449T
582.697	1.749	610586	REC_WORD	1.749	n/a	STEAM	12	3	[0, 0, 0]	n/a	FR1	0	R1449T
584.446	11.839	612335	REC_WORD	11.839	n/a	CORD	6	3	[0, 0, 0]	n/a	FR1	0	R1449T
596.285	13.149	624173	REC_WORD	13.149	n/a	SMOG	1	3	[0, 0, 0]	n/a	FR1	0	R1449T
609.434	1.731	637316	REC_END	n/a	n/a	n/a	-999	3	[0, 0, 0]	n/a	FR1	0	R1449T
611.165	10.35	639045	COUNTDOWN_START	n/a	n/a	n/a	-999	4	[0, 0, 0]	n/a	FR1	0	R1449T
621.515	0.0	649405	COUNTDOWN_END	n/a	n/a	n/a	-999	4	[0, 0, 0]	n/a	FR1	0	R1449T
621.515	2.0	649405	ENCODING_START	n/a	n/a	n/a	-999	4	[0, 0, 0]	n/a	FR1	0	R1449T
623.515	1.616	651403	WORD	n/a	wordpools/wordpool_long_EN.txt	GUARD	1	4	[0, 0, 0]	n/a	FR1	0	R1449T
625.131	0.917	653018	WORD_OFF	n/a	n/a	GUARD	1	4	[0, 0, 0]	n/a	FR1	0	R1449T
626.048	1.617	653925	WORD	n/a	wordpools/wordpool_long_EN.txt	SHARK	2	4	[0, 0, 0]	n/a	FR1	0	R1449T
627.665	0.866	655546	WORD_OFF	n/a	n/a	SHARK	2	4	[0, 0, 0]	n/a	FR1	0	R1449T
628.531	1.601	656420	WORD	n/a	wordpools/wordpool_long_EN.txt	RIB	3	4	[0, 0, 0]	n/a	FR1	0	R1449T
630.132	0.999	658021	WORD_OFF	n/a	n/a	RIB	3	4	[0, 0, 0]	n/a	FR1	0	R1449T
631.131	1.601	659013	WORD	n/a	wordpools/wordpool_long_EN.txt	SINK	4	4	[0, 0, 0]	n/a	FR1	0	R1449T
632.732	0.816	660614	WORD_OFF	n/a	n/a	SINK	4	4	[0, 0, 0]	n/a	FR1	0	R1449T
633.548	1.617	661436	WORD	n/a	wordpools/wordpool_long_EN.txt	INN	5	4	[0, 0, 0]	n/a	FR1	0	R1449T
635.165	0.916	663052	WORD_OFF	n/a	n/a	INN	5	4	[0, 0, 0]	n/a	FR1	0	R1449T
636.081	1.6	663959	WORD	n/a	wordpools/wordpool_long_EN.txt	FOX	6	4	[0, 0, 0]	n/a	FR1	0	R1449T
637.681	0.934	665560	WORD_OFF	n/a	n/a	FOX	6	4	[0, 0, 0]	n/a	FR1	0	R1449T
638.615	1.617	666495	WORD	n/a	wordpools/wordpool_long_EN.txt	MOOSE	7	4	[0, 0, 0]	n/a	FR1	0	R1449T
640.232	0.882	668111	WORD_OFF	n/a	n/a	MOOSE	7	4	[0, 0, 0]	n/a	FR1	0	R1449T
641.114	1.601	668995	WORD	n/a	wordpools/wordpool_long_EN.txt	LAND	8	4	[0, 0, 0]	n/a	FR1	0	R1449T
642.715	0.832	670591	WORD_OFF	n/a	n/a	LAND	8	4	[0, 0, 0]	n/a	FR1	0	R1449T
643.547	1.6	671427	WORD	n/a	wordpools/wordpool_long_EN.txt	FACE	9	4	[0, 0, 0]	n/a	FR1	0	R1449T
645.147	0.785	673028	WORD_OFF	n/a	n/a	FACE	9	4	[0, 0, 0]	n/a	FR1	0	R1449T
645.932	1.617	673808	WORD	n/a	wordpools/wordpool_long_EN.txt	OAR	10	4	[0, 0, 0]	n/a	FR1	0	R1449T
647.549	0.899	675438	WORD_OFF	n/a	n/a	OAR	10	4	[0, 0, 0]	n/a	FR1	0	R1449T
648.448	1.6	676330	WORD	n/a	wordpools/wordpool_long_EN.txt	WASP	11	4	[0, 0, 0]	n/a	FR1	0	R1449T
650.048	0.85	677932	WORD_OFF	n/a	n/a	WASP	11	4	[0, 0, 0]	n/a	FR1	0	R1449T
650.898	1.6	678782	WORD	n/a	wordpools/wordpool_long_EN.txt	BREAD	12	4	[0, 0, 0]	n/a	FR1	0	R1449T
652.498	0.001	680383	WORD_OFF	n/a	n/a	BREAD	12	4	[0, 0, 0]	n/a	FR1	0	R1449T
652.499	0.0	680383	ENCODING_END	n/a	n/a	n/a	-999	4	[0, 0, 0]	n/a	FR1	0	R1449T
652.499	0.0	680383	DISTRACT_START	n/a	n/a	n/a	-999	4	[0, 0, 0]	n/a	FR1	0	R1449T
652.498	0.001	680383	PROB	0.001	n/a	n/a	-999	4	[1, 2, 6]	9	FR1	0	R1449T
652.499	4.466	680384	START	n/a	n/a	n/a	-999	4	[-999, -999, -999]	n/a	FR1	0	R1449T
656.965	4.217	684850	PROB	4.217	n/a	n/a	-999	4	[2, 7, 2]	11	FR1	0	R1449T
661.182	3.933	689067	PROB	3.933	n/a	n/a	-999	4	[2, 2, 3]	7	FR1	0	R1449T
665.115	3.316	692999	PROB	3.316	n/a	n/a	-999	4	[5, 2, 4]	11	FR1	0	R1449T
668.431	3.701	696315	PROB	3.701	n/a	n/a	-999	4	[2, 6, 2]	10	FR1	0	R1449T
672.132	2.933	700016	PROB	2.933	n/a	n/a	-999	4	[3, 4, 7]	14	FR1	0	R1449T
675.065	0.0	702944	DISTRACT_END	n/a	n/a	n/a	-999	4	[0, 0, 0]	n/a	FR1	0	R1449T
675.065	2.032	702949	STOP	n/a	n/a	n/a	-999	4	[-999, -999, -999]	n/a	FR1	0	R1449T
677.097	1.294	704979	REC_START	n/a	n/a	n/a	-999	4	[0, 0, 0]	n/a	FR1	0	R1449T
678.391	1.659	706275	REC_WORD	1.659	n/a	DEER	-999	4	[0, 0, 0]	n/a	FR1	0	R1449T
680.05	2.234	707934	REC_WORD	2.234	n/a	FOX	6	4	[0, 0, 0]	n/a	FR1	0	R1449T
682.284	1.925	710168	REC_WORD	1.925	n/a	RIB	3	4	[0, 0, 0]	n/a	FR1	0	R1449T
684.209	1.652	712093	REC_WORD	1.652	n/a	OAR	10	4	[0, 0, 0]	n/a	FR1	0	R1449T
685.861	21.451	713744	REC_WORD	21.451	n/a	INN	5	4	[0, 0, 0]	n/a	FR1	0	R1449T
707.312	3.87	735184	REC_END	n/a	n/a	n/a	-999	4	[0, 0, 0]	n/a	FR1	0	R1449T
711.182	10.349	739067	COUNTDOWN_START	n/a	n/a	n/a	-999	5	[0, 0, 0]	n/a	FR1	0	R1449T
721.531	0.0	749412	COUNTDOWN_END	n/a	n/a	n/a	-999	5	[0, 0, 0]	n/a	FR1	0	R1449T
721.531	2.067	749412	ENCODING_START	n/a	n/a	n/a	-999	5	[0, 0, 0]	n/a	FR1	0	R1449T
723.598	1.6	751481	WORD	n/a	wordpools/wordpool_long_EN.txt	SUN	1	5	[0, 0, 0]	n/a	FR1	0	R1449T
725.198	0.866	753083	WORD_OFF	n/a	n/a	SUN	1	5	[0, 0, 0]	n/a	FR1	0	R1449T
726.064	1.6	753947	WORD	n/a	wordpools/wordpool_long_EN.txt	JET	2	5	[0, 0, 0]	n/a	FR1	0	R1449T
727.664	0.985	755534	WORD_OFF	n/a	n/a	JET	2	5	[0, 0, 0]	n/a	FR1	0	R1449T
728.649	1.599	756526	WORD	n/a	wordpools/wordpool_long_EN.txt	SWORD	3	5	[0, 0, 0]	n/a	FR1	0	R1449T
730.248	0.917	758128	WORD_OFF	n/a	n/a	SWORD	3	5	[0, 0, 0]	n/a	FR1	0	R1449T
731.165	1.617	759049	WORD	n/a	wordpools/wordpool_long_EN.txt	GLOVE	4	5	[0, 0, 0]	n/a	FR1	0	R1449T
732.782	0.883	760664	WORD_OFF	n/a	n/a	GLOVE	4	5	[0, 0, 0]	n/a	FR1	0	R1449T
733.665	1.617	761543	WORD	n/a	wordpools/wordpool_long_EN.txt	HOUND	5	5	[0, 0, 0]	n/a	FR1	0	R1449T
735.282	0.899	763159	WORD_OFF	n/a	n/a	HOUND	5	5	[0, 0, 0]	n/a	FR1	0	R1449T
736.181	1.6	764051	WORD	n/a	wordpools/wordpool_long_EN.txt	BOX	6	5	[0, 0, 0]	n/a	FR1	0	R1449T
737.781	0.784	765653	WORD_OFF	n/a	n/a	BOX	6	5	[0, 0, 0]	n/a	FR1	0	R1449T
738.565	1.6	766446	WORD	n/a	wordpools/wordpool_long_EN.txt	FARM	7	5	[0, 0, 0]	n/a	FR1	0	R1449T
740.165	0.883	768048	WORD_OFF	n/a	n/a	FARM	7	5	[0, 0, 0]	n/a	FR1	0	R1449T
741.048	1.601	768926	WORD	n/a	wordpools/wordpool_long_EN.txt	HOSE	8	5	[0, 0, 0]	n/a	FR1	0	R1449T
742.649	0.815	770528	WORD_OFF	n/a	n/a	HOSE	8	5	[0, 0, 0]	n/a	FR1	0	R1449T
743.464	1.6	771336	WORD	n/a	wordpools/wordpool_long_EN.txt	CLAM	9	5	[0, 0, 0]	n/a	FR1	0	R1449T
745.064	0.867	772937	WORD_OFF	n/a	n/a	CLAM	9	5	[0, 0, 0]	n/a	FR1	0	R1449T
745.931	1.601	773816	WORD	n/a	wordpools/wordpool_long_EN.txt	SKATE	10	5	[0, 0, 0]	n/a	FR1	0	R1449T
747.532	0.917	775403	WORD_OFF	n/a	n/a	SKATE	10	5	[0, 0, 0]	n/a	FR1	0	R1449T
748.449	1.6	776324	WORD	n/a	wordpools/wordpool_long_EN.txt	WEED	11	5	[0, 0, 0]	n/a	FR1	0	R1449T
750.049	0.932	777925	WORD_OFF	n/a	n/a	WEED	11	5	[0, 0, 0]	n/a	FR1	0	R1449T
750.981	1.601	778861	WORD	n/a	wordpools/wordpool_long_EN.txt	CLOTH	12	5	[0, 0, 0]	n/a	FR1	0	R1449T
752.582	0.001	780462	WORD_OFF	n/a	n/a	CLOTH	12	5	[0, 0, 0]	n/a	FR1	0	R1449T
752.583	0.0	780462	ENCODING_END	n/a	n/a	n/a	-999	5	[0, 0, 0]	n/a	FR1	0	R1449T
752.583	0.0	780462	DISTRACT_START	n/a	n/a	n/a	-999	5	[0, 0, 0]	n/a	FR1	0	R1449T
752.582	0.001	780462	PROB	0.001	n/a	n/a	-999	5	[8, 1, 8]	17	FR1	0	R1449T
752.583	8.049	780463	START	n/a	n/a	n/a	-999	5	[-999, -999, -999]	n/a	FR1	0	R1449T
760.632	3.782	788512	PROB	3.782	n/a	n/a	-999	5	[4, 4, 8]	16	FR1	0	R1449T
764.414	2.785	792293	PROB	2.785	n/a	n/a	-999	5	[8, 5, 1]	14	FR1	0	R1449T
767.199	2.683	795078	PROB	2.683	n/a	n/a	-999	5	[1, 2, 7]	10	FR1	0	R1449T
769.882	4.333	797761	PROB	4.333	n/a	n/a	-999	5	[7, 3, 3]	13	FR1	0	R1449T
774.215	0.0	802087	DISTRACT_END	n/a	n/a	n/a	-999	5	[0, 0, 0]	n/a	FR1	0	R1449T
774.215	2.349	802094	STOP	n/a	n/a	n/a	-999	5	[-999, -999, -999]	n/a	FR1	0	R1449T
776.564	0.631	804434	REC_START	n/a	n/a	n/a	-999	5	[0, 0, 0]	n/a	FR1	0	R1449T
777.195	1.606	805074	REC_WORD	1.606	n/a	SUN	1	5	[0, 0, 0]	n/a	FR1	0	R1449T
778.801	8.283	806680	REC_WORD	8.283	n/a	JET	2	5	[0, 0, 0]	n/a	FR1	0	R1449T
787.084	19.667	814962	REC_WORD	19.667	n/a	FARM	7	5	[0, 0, 0]	n/a	FR1	0	R1449T
806.751	1.746	834625	REC_END	n/a	n/a	n/a	-999	5	[0, 0, 0]	n/a	FR1	0	R1449T
808.497	10.351	836368	COUNTDOWN_START	n/a	n/a	n/a	-999	6	[0, 0, 0]	n/a	FR1	0	R1449T
818.848	0.001	846727	COUNTDOWN_END	n/a	n/a	n/a	-999	6	[0, 0, 0]	n/a	FR1	0	R1449T
818.849	1.916	846727	ENCODING_START	n/a	n/a	n/a	-999	6	[0, 0, 0]	n/a	FR1	0	R1449T
820.765	1.6	848641	WORD	n/a	wordpools/wordpool_long_EN.txt	SPHINX	1	6	[0, 0, 0]	n/a	FR1	0	R1449T
822.365	0.867	850242	WORD_OFF	n/a	n/a	SPHINX	1	6	[0, 0, 0]	n/a	FR1	0	R1449T
823.232	1.6	851106	WORD	n/a	wordpools/wordpool_long_EN.txt	TAIL	2	6	[0, 0, 0]	n/a	FR1	0	R1449T
824.832	0.932	852708	WORD_OFF	n/a	n/a	TAIL	2	6	[0, 0, 0]	n/a	FR1	0	R1449T
825.764	1.601	853643	WORD	n/a	wordpools/wordpool_long_EN.txt	QUEEN	3	6	[0, 0, 0]	n/a	FR1	0	R1449T
827.365	0.85	855244	WORD_OFF	n/a	n/a	QUEEN	3	6	[0, 0, 0]	n/a	FR1	0	R1449T
828.215	1.616	856081	WORD	n/a	wordpools/wordpool_long_EN.txt	HUT	4	6	[0, 0, 0]	n/a	FR1	0	R1449T
829.831	0.817	857710	WORD_OFF	n/a	n/a	HUT	4	6	[0, 0, 0]	n/a	FR1	0	R1449T
830.648	1.617	858518	WORD	n/a	wordpools/wordpool_long_EN.txt	LOCK	5	6	[0, 0, 0]	n/a	FR1	0	R1449T
832.265	0.883	860134	WORD_OFF	n/a	n/a	LOCK	5	6	[0, 0, 0]	n/a	FR1	0	R1449T
833.148	1.6	861026	WORD	n/a	wordpools/wordpool_long_EN.txt	CARD	6	6	[0, 0, 0]	n/a	FR1	0	R1449T
834.748	0.784	862614	WORD_OFF	n/a	n/a	CARD	6	6	[0, 0, 0]	n/a	FR1	0	R1449T
835.532	1.6	863407	WORD	n/a	wordpools/wordpool_long_EN.txt	TRAY	7	6	[0, 0, 0]	n/a	FR1	0	R1449T
837.132	0.883	865009	WORD_OFF	n/a	n/a	TRAY	7	6	[0, 0, 0]	n/a	FR1	0	R1449T
838.015	1.6	865887	WORD	n/a	wordpools/wordpool_long_EN.txt	POLE	8	6	[0, 0, 0]	n/a	FR1	0	R1449T
839.615	0.933	867489	WORD_OFF	n/a	n/a	POLE	8	6	[0, 0, 0]	n/a	FR1	0	R1449T
840.548	1.6	868424	WORD	n/a	wordpools/wordpool_long_EN.txt	EGG	9	6	[0, 0, 0]	n/a	FR1	0	R1449T
842.148	0.884	870025	WORD_OFF	n/a	n/a	EGG	9	6	[0, 0, 0]	n/a	FR1	0	R1449T
843.032	1.617	870904	WORD	n/a	wordpools/wordpool_long_EN.txt	SAIL	10	6	[0, 0, 0]	n/a	FR1	0	R1449T
844.649	0.883	872519	WORD_OFF	n/a	n/a	SAIL	10	6	[0, 0, 0]	n/a	FR1	0	R1449T
845.532	1.616	873412	WORD	n/a	wordpools/wordpool_long_EN.txt	HEART	11	6	[0, 0, 0]	n/a	FR1	0	R1449T
847.148	0.784	875014	WORD_OFF	n/a	n/a	HEART	11	6	[0, 0, 0]	n/a	FR1	0	R1449T
847.932	1.6	875807	WORD	n/a	wordpools/wordpool_long_EN.txt	CLOCK	12	6	[0, 0, 0]	n/a	FR1	0	R1449T
849.532	0.001	877407	PROB	0.001	n/a	n/a	-999	6	[2, 4, 3]	9	FR1	0	R1449T
849.533	0.0	877408	START	n/a	n/a	n/a	-999	6	[-999, -999, -999]	n/a	FR1	0	R1449T
849.532	0.001	877409	WORD_OFF	n/a	n/a	CLOCK	12	6	[0, 0, 0]	n/a	FR1	0	R1449T
849.533	0.0	877409	ENCODING_END	n/a	n/a	n/a	-999	6	[0, 0, 0]	n/a	FR1	0	R1449T
849.533	3.25	877409	DISTRACT_START	n/a	n/a	n/a	-999	6	[0, 0, 0]	n/a	FR1	0	R1449T
852.783	4.566	880658	PROB	4.566	n/a	n/a	-999	6	[6, 6, 4]	16	FR1	0	R1449T
857.349	3.8	885224	PROB	3.8	n/a	n/a	-999	6	[8, 6, 1]	15	FR1	0	R1449T
861.149	3.933	889023	PROB	3.933	n/a	n/a	-999	6	[1, 2, 8]	11	FR1	0	R1449T
865.082	3.95	892956	PROB	3.95	n/a	n/a	-999	6	[2, 4, 1]	7	FR1	0	R1449T
869.032	3.683	896906	PROB	3.683	n/a	n/a	-999	6	[3, 8, 6]	17	FR1	0	R1449T
872.715	0.0	900579	DISTRACT_END	n/a	n/a	n/a	-999	6	[0, 0, 0]	n/a	FR1	0	R1449T
872.715	2.35	900589	STOP	n/a	n/a	n/a	-999	6	[-999, -999, -999]	n/a	FR1	0	R1449T
875.065	0.757	902939	REC_START	n/a	n/a	n/a	-999	6	[0, 0, 0]	n/a	FR1	0	R1449T
875.822	1.357	903696	REC_WORD	1.357	n/a	TAIL	2	6	[0, 0, 0]	n/a	FR1	0	R1449T
877.179	2.16	905053	REC_WORD	2.16	n/a	QUEEN	3	6	[0, 0, 0]	n/a	FR1	0	R1449T
879.339	9.196	907213	REC_WORD	9.196	n/a	LOCK	5	6	[0, 0, 0]	n/a	FR1	0	R1449T
888.535	5.309	916408	REC_WORD	5.309	n/a	HEART	11	6	[0, 0, 0]	n/a	FR1	0	R1449T
893.844	8.737	921717	REC_WORD	8.737	n/a	SPHINX	1	6	[0, 0, 0]	n/a	FR1	0	R1449T
902.581	2.694	930453	REC_WORD	2.694	n/a	POOL	-999	6	[0, 0, 0]	n/a	FR1	0	R1449T
905.275	2.356	933145	REC_END	n/a	n/a	n/a	-999	6	[0, 0, 0]	n/a	FR1	0	R1449T
907.631	10.35	935497	COUNTDOWN_START	n/a	n/a	n/a	-999	7	[0, 0, 0]	n/a	FR1	0	R1449T
917.981	0.0	945842	COUNTDOWN_END	n/a	n/a	n/a	-999	7	[0, 0, 0]	n/a	FR1	0	R1449T
917.981	2.099	945856	ENCODING_START	n/a	n/a	n/a	-999	7	[0, 0, 0]	n/a	FR1	0	R1449T
920.08	1.601	947954	WORD	n/a	wordpools/wordpool_long_EN.txt	BAG	1	7	[0, 0, 0]	n/a	FR1	0	R1449T
921.681	0.767	949555	WORD_OFF	n/a	n/a	BAG	1	7	[0, 0, 0]	n/a	FR1	0	R1449T
922.448	1.616	950320	WORD	n/a	wordpools/wordpool_long_EN.txt	TRASH	2	7	[0, 0, 0]	n/a	FR1	0	R1449T
924.064	0.834	951936	WORD_OFF	n/a	n/a	TRASH	2	7	[0, 0, 0]	n/a	FR1	0	R1449T
924.898	1.6	952772	WORD	n/a	wordpools/wordpool_long_EN.txt	BEAK	3	7	[0, 0, 0]	n/a	FR1	0	R1449T
926.498	0.9	954359	WORD_OFF	n/a	n/a	BEAK	3	7	[0, 0, 0]	n/a	FR1	0	R1449T
927.398	1.601	955266	WORD	n/a	wordpools/wordpool_long_EN.txt	GIFT	4	7	[0, 0, 0]	n/a	FR1	0	R1449T
928.999	0.949	956868	WORD_OFF	n/a	n/a	GIFT	4	7	[0, 0, 0]	n/a	FR1	0	R1449T
929.948	1.617	957817	WORD	n/a	wordpools/wordpool_long_EN.txt	SLIDE	5	7	[0, 0, 0]	n/a	FR1	0	R1449T
931.565	0.9	959433	WORD_OFF	n/a	n/a	SLIDE	5	7	[0, 0, 0]	n/a	FR1	0	R1449T
932.465	1.617	960340	WORD	n/a	wordpools/wordpool_long_EN.txt	CHEEK	6	7	[0, 0, 0]	n/a	FR1	0	R1449T
934.082	0.95	961955	WORD_OFF	n/a	n/a	CHEEK	6	7	[0, 0, 0]	n/a	FR1	0	R1449T
935.032	1.6	962905	WORD	n/a	wordpools/wordpool_long_EN.txt	BLOOM	7	7	[0, 0, 0]	n/a	FR1	0	R1449T
936.632	0.766	964506	WORD_OFF	n/a	n/a	BLOOM	7	7	[0, 0, 0]	n/a	FR1	0	R1449T
937.398	1.6	965271	WORD	n/a	wordpools/wordpool_long_EN.txt	STONE	8	7	[0, 0, 0]	n/a	FR1	0	R1449T
938.998	0.866	966858	WORD_OFF	n/a	n/a	STONE	8	7	[0, 0, 0]	n/a	FR1	0	R1449T
939.864	1.616	967737	WORD	n/a	wordpools/wordpool_long_EN.txt	HILL	9	7	[0, 0, 0]	n/a	FR1	0	R1449T
941.48	1.001	969353	WORD_OFF	n/a	n/a	HILL	9	7	[0, 0, 0]	n/a	FR1	0	R1449T
942.481	1.601	970345	WORD	n/a	wordpools/wordpool_long_EN.txt	TANK	10	7	[0, 0, 0]	n/a	FR1	0	R1449T
944.082	0.883	971946	WORD_OFF	n/a	n/a	TANK	10	7	[0, 0, 0]	n/a	FR1	0	R1449T
944.965	1.6	972825	WORD	n/a	wordpools/wordpool_long_EN.txt	PLANT	11	7	[0, 0, 0]	n/a	FR1	0	R1449T
946.565	0.883	974426	WORD_OFF	n/a	n/a	PLANT	11	7	[0, 0, 0]	n/a	FR1	0	R1449T
947.448	1.617	975319	WORD	n/a	wordpools/wordpool_long_EN.txt	WORLD	12	7	[0, 0, 0]	n/a	FR1	0	R1449T
949.065	0.001	976934	WORD_OFF	n/a	n/a	WORLD	12	7	[0, 0, 0]	n/a	FR1	0	R1449T
949.066	0.001	976934	ENCODING_END	n/a	n/a	n/a	-999	7	[0, 0, 0]	n/a	FR1	0	R1449T
949.067	0.0	976934	DISTRACT_START	n/a	n/a	n/a	-999	7	[0, 0, 0]	n/a	FR1	0	R1449T
949.065	0.002	976935	PROB	0.002	n/a	n/a	-999	7	[1, 8, 6]	15	FR1	0	R1449T
949.067	4.599	976937	START	n/a	n/a	n/a	-999	7	[-999, -999, -999]	n/a	FR1	0	R1449T
953.666	3.499	981536	PROB	3.499	n/a	n/a	-999	7	[5, 4, 1]	10	FR1	0	R1449T
957.165	4.283	985034	PROB	4.283	n/a	n/a	-999	7	[7, 3, 3]	13	FR1	0	R1449T
961.448	5.084	989317	PROB	5.084	n/a	n/a	-999	7	[5, 8, 3]	16	FR1	0	R1449T
966.532	4.116	994401	PROB	4.116	n/a	n/a	-999	7	[5, 4, 2]	11	FR1	0	R1449T
970.648	0.0	998517	DISTRACT_END	n/a	n/a	n/a	-999	7	[0, 0, 0]	n/a	FR1	0	R1449T
970.648	2.1	998517	STOP	n/a	n/a	n/a	-999	7	[-999, -999, -999]	n/a	FR1	0	R1449T
972.748	0.309	1000609	REC_START	n/a	n/a	n/a	-999	7	[0, 0, 0]	n/a	FR1	0	R1449T
973.057	1.031	1000926	REC_WORD	1.031	n/a	BAG	1	7	[0, 0, 0]	n/a	FR1	0	R1449T
974.088	1.278	1001957	REC_WORD	1.278	n/a	TRASH	2	7	[0, 0, 0]	n/a	FR1	0	R1449T
975.366	1.937	1003235	REC_WORD	1.937	n/a	BEAK	3	7	[0, 0, 0]	n/a	FR1	0	R1449T
977.303	2.687	1005171	REC_WORD	2.687	n/a	CHEEK	6	7	[0, 0, 0]	n/a	FR1	0	R1449T
979.99	22.948	1007858	REC_WORD	22.948	n/a	WORLD	12	7	[0, 0, 0]	n/a	FR1	0	R1449T
1002.938	1.86	1030800	REC_END	n/a	n/a	n/a	-999	7	[0, 0, 0]	n/a	FR1	0	R1449T
1004.798	10.35	1032656	COUNTDOWN_START	n/a	n/a	n/a	-999	8	[0, 0, 0]	n/a	FR1	0	R1449T
1015.148	0.003	1043016	COUNTDOWN_END	n/a	n/a	n/a	-999	8	[0, 0, 0]	n/a	FR1	0	R1449T
1015.151	1.93	1043016	ENCODING_START	n/a	n/a	n/a	-999	8	[0, 0, 0]	n/a	FR1	0	R1449T
1017.081	1.617	1044943	WORD	n/a	wordpools/wordpool_long_EN.txt	GROUND	1	8	[0, 0, 0]	n/a	FR1	0	R1449T
1018.698	0.833	1046559	WORD_OFF	n/a	n/a	GROUND	1	8	[0, 0, 0]	n/a	FR1	0	R1449T
1019.531	1.601	1047395	WORD	n/a	wordpools/wordpool_long_EN.txt	BAR	2	8	[0, 0, 0]	n/a	FR1	0	R1449T
1021.132	0.916	1048996	WORD_OFF	n/a	n/a	BAR	2	8	[0, 0, 0]	n/a	FR1	0	R1449T
1022.048	1.6	1049917	WORD	n/a	wordpools/wordpool_long_EN.txt	SNAKE	3	8	[0, 0, 0]	n/a	FR1	0	R1449T
1023.648	0.917	1051504	WORD_OFF	n/a	n/a	SNAKE	3	8	[0, 0, 0]	n/a	FR1	0	R1449T
1024.565	1.616	1052426	WORD	n/a	wordpools/wordpool_long_EN.txt	CUBE	4	8	[0, 0, 0]	n/a	FR1	0	R1449T
1026.181	0.984	1054041	WORD_OFF	n/a	n/a	CUBE	4	8	[0, 0, 0]	n/a	FR1	0	R1449T
1027.165	1.6	1055033	WORD	n/a	wordpools/wordpool_long_EN.txt	TOAD	5	8	[0, 0, 0]	n/a	FR1	0	R1449T
1028.765	0.933	1056634	WORD_OFF	n/a	n/a	TOAD	5	8	[0, 0, 0]	n/a	FR1	0	R1449T
1029.698	1.601	1057556	WORD	n/a	wordpools/wordpool_long_EN.txt	MUG	6	8	[0, 0, 0]	n/a	FR1	0	R1449T
1031.299	0.933	1059157	WORD_OFF	n/a	n/a	MUG	6	8	[0, 0, 0]	n/a	FR1	0	R1449T
1032.232	1.6	1060092	WORD	n/a	wordpools/wordpool_long_EN.txt	MARSH	7	8	[0, 0, 0]	n/a	FR1	0	R1449T
1033.832	0.966	1061694	WORD_OFF	n/a	n/a	MARSH	7	8	[0, 0, 0]	n/a	FR1	0	R1449T
1034.798	1.617	1062657	WORD	n/a	wordpools/wordpool_long_EN.txt	TENT	8	8	[0, 0, 0]	n/a	FR1	0	R1449T
1036.415	0.883	1064273	WORD_OFF	n/a	n/a	TENT	8	8	[0, 0, 0]	n/a	FR1	0	R1449T
1037.298	1.6	1065166	WORD	n/a	wordpools/wordpool_long_EN.txt	MOUSE	9	8	[0, 0, 0]	n/a	FR1	0	R1449T
1038.898	0.934	1066767	WORD_OFF	n/a	n/a	MOUSE	9	8	[0, 0, 0]	n/a	FR1	0	R1449T
1039.832	1.615	1067688	WORD	n/a	wordpools/wordpool_long_EN.txt	EEL	10	8	[0, 0, 0]	n/a	FR1	0	R1449T
1041.447	0.835	1069304	WORD_OFF	n/a	n/a	EEL	10	8	[0, 0, 0]	n/a	FR1	0	R1449T
1042.282	1.616	1070140	WORD	n/a	wordpools/wordpool_long_EN.txt	LAWN	11	8	[0, 0, 0]	n/a	FR1	0	R1449T
1043.898	0.767	1071755	WORD_OFF	n/a	n/a	LAWN	11	8	[0, 0, 0]	n/a	FR1	0	R1449T
1044.665	1.616	1072521	WORD	n/a	wordpools/wordpool_long_EN.txt	SPARK	12	8	[0, 0, 0]	n/a	FR1	0	R1449T
1046.281	0.0	1074136	WORD_OFF	n/a	n/a	SPARK	12	8	[0, 0, 0]	n/a	FR1	0	R1449T
1046.281	0.001	1074146	PROB	0.001	n/a	n/a	-999	8	[6, 6, 6]	18	FR1	0	R1449T
1046.282	0.0	1074147	START	n/a	n/a	n/a	-999	8	[-999, -999, -999]	n/a	FR1	0	R1449T
1046.282	0.0	1074150	ENCODING_END	n/a	n/a	n/a	-999	8	[0, 0, 0]	n/a	FR1	0	R1449T
1046.282	3.783	1074150	DISTRACT_START	n/a	n/a	n/a	-999	8	[0, 0, 0]	n/a	FR1	0	R1449T
1050.065	3.75	1077930	PROB	3.75	n/a	n/a	-999	8	[6, 3, 4]	13	FR1	0	R1449T
1053.815	3.817	1081680	PROB	3.817	n/a	n/a	-999	8	[8, 6, 6]	20	FR1	0	R1449T
1057.632	3.15	1085496	PROB	3.15	n/a	n/a	-999	8	[4, 5, 2]	11	FR1	0	R1449T
1060.782	4.6	1088646	PROB	4.6	n/a	n/a	-999	8	[7, 5, 7]	19	FR1	0	R1449T
1065.382	2.999	1093246	PROB	2.999	n/a	n/a	-999	8	[5, 1, 1]	7	FR1	0	R1449T
1068.381	0.0	1096244	DISTRACT_END	n/a	n/a	n/a	-999	8	[0, 0, 0]	n/a	FR1	0	R1449T
1068.381	2.166	1096245	STOP	n/a	n/a	n/a	-999	8	[-999, -999, -999]	n/a	FR1	0	R1449T
1070.547	1.724	1098406	REC_START	n/a	n/a	n/a	-999	8	[0, 0, 0]	n/a	FR1	0	R1449T
1072.271	2.004	1100135	REC_WORD	2.004	n/a	SPARK	12	8	[0, 0, 0]	n/a	FR1	0	R1449T
1074.275	1.972	1102139	REC_WORD	1.972	n/a	MOUSE	9	8	[0, 0, 0]	n/a	FR1	0	R1449T
1076.247	6.393	1104110	REC_WORD	6.393	n/a	BAR	2	8	[0, 0, 0]	n/a	FR1	0	R1449T
1082.64	18.131	1110503	REC_WORD	18.131	n/a	GROUND	1	8	[0, 0, 0]	n/a	FR1	0	R1449T
1100.771	1.326	1128625	REC_END	n/a	n/a	n/a	-999	8	[0, 0, 0]	n/a	FR1	0	R1449T
1102.097	10.352	1129957	COUNTDOWN_START	n/a	n/a	n/a	-999	9	[0, 0, 0]	n/a	FR1	0	R1449T
1112.449	0.0	1140302	COUNTDOWN_END	n/a	n/a	n/a	-999	9	[0, 0, 0]	n/a	FR1	0	R1449T
1112.449	2.365	1140302	ENCODING_START	n/a	n/a	n/a	-999	9	[0, 0, 0]	n/a	FR1	0	R1449T
1114.814	1.6	1142669	WORD	n/a	wordpools/wordpool_long_EN.txt	CRANE	1	9	[0, 0, 0]	n/a	FR1	0	R1449T
1116.414	0.885	1144270	WORD_OFF	n/a	n/a	CRANE	1	9	[0, 0, 0]	n/a	FR1	0	R1449T
1117.299	1.615	1145163	WORD	n/a	wordpools/wordpool_long_EN.txt	TWIG	2	9	[0, 0, 0]	n/a	FR1	0	R1449T
1118.914	0.951	1146765	WORD_OFF	n/a	n/a	TWIG	2	9	[0, 0, 0]	n/a	FR1	0	R1449T
1119.865	1.6	1147728	WORD	n/a	wordpools/wordpool_long_EN.txt	GOLD	3	9	[0, 0, 0]	n/a	FR1	0	R1449T
1121.465	0.783	1149330	WORD_OFF	n/a	n/a	GOLD	3	9	[0, 0, 0]	n/a	FR1	0	R1449T
1122.248	1.617	1150109	WORD	n/a	wordpools/wordpool_long_EN.txt	PLATE	4	9	[0, 0, 0]	n/a	FR1	0	R1449T
1123.865	1.0	1151725	WORD_OFF	n/a	n/a	PLATE	4	9	[0, 0, 0]	n/a	FR1	0	R1449T
1124.865	1.6	1152717	WORD	n/a	wordpools/wordpool_long_EN.txt	SPEAR	5	9	[0, 0, 0]	n/a	FR1	0	R1449T
1126.465	0.833	1154318	WORD_OFF	n/a	n/a	SPEAR	5	9	[0, 0, 0]	n/a	FR1	0	R1449T
1127.298	1.617	1155154	WORD	n/a	wordpools/wordpool_long_EN.txt	STAIR	6	9	[0, 0, 0]	n/a	FR1	0	R1449T
1128.915	0.867	1156770	WORD_OFF	n/a	n/a	STAIR	6	9	[0, 0, 0]	n/a	FR1	0	R1449T
1129.782	1.599	1157634	WORD	n/a	wordpools/wordpool_long_EN.txt	WAVE	7	9	[0, 0, 0]	n/a	FR1	0	R1449T
1131.381	0.9	1159235	WORD_OFF	n/a	n/a	WAVE	7	9	[0, 0, 0]	n/a	FR1	0	R1449T
1132.281	1.601	1160142	WORD	n/a	wordpools/wordpool_long_EN.txt	SPACE	8	9	[0, 0, 0]	n/a	FR1	0	R1449T
1133.882	0.816	1161744	WORD_OFF	n/a	n/a	SPACE	8	9	[0, 0, 0]	n/a	FR1	0	R1449T
1134.698	1.6	1162552	WORD	n/a	wordpools/wordpool_long_EN.txt	SKY	9	9	[0, 0, 0]	n/a	FR1	0	R1449T
1136.298	0.784	1164153	WORD_OFF	n/a	n/a	SKY	9	9	[0, 0, 0]	n/a	FR1	0	R1449T
1137.082	1.616	1164932	WORD	n/a	wordpools/wordpool_long_EN.txt	BUG	10	9	[0, 0, 0]	n/a	FR1	0	R1449T
1138.698	0.884	1166548	WORD_OFF	n/a	n/a	BUG	10	9	[0, 0, 0]	n/a	FR1	0	R1449T
1139.582	1.616	1167441	WORD	n/a	wordpools/wordpool_long_EN.txt	SEED	11	9	[0, 0, 0]	n/a	FR1	0	R1449T
1141.198	0.917	1169056	WORD_OFF	n/a	n/a	SEED	11	9	[0, 0, 0]	n/a	FR1	0	R1449T
1142.115	1.6	1169977	WORD	n/a	wordpools/wordpool_long_EN.txt	YARD	12	9	[0, 0, 0]	n/a	FR1	0	R1449T
1143.715	0.0	1171565	WORD_OFF	n/a	n/a	YARD	12	9	[0, 0, 0]	n/a	FR1	0	R1449T
1143.715	0.001	1171575	PROB	0.001	n/a	n/a	-999	9	[6, 3, 7]	16	FR1	0	R1449T
1143.716	0.0	1171576	START	n/a	n/a	n/a	-999	9	[-999, -999, -999]	n/a	FR1	0	R1449T
1143.716	0.0	1171579	ENCODING_END	n/a	n/a	n/a	-999	9	[0, 0, 0]	n/a	FR1	0	R1449T
1143.716	3.95	1171579	DISTRACT_START	n/a	n/a	n/a	-999	9	[0, 0, 0]	n/a	FR1	0	R1449T
1147.666	5.283	1175526	PROB	5.283	n/a	n/a	-999	9	[8, 5, 3]	16	FR1	0	R1449T
1152.949	2.933	1180808	PROB	2.933	n/a	n/a	-999	9	[5, 1, 6]	12	FR1	0	R1449T
1155.882	4.1	1183741	PROB	4.1	n/a	n/a	-999	9	[8, 8, 1]	17	FR1	0	R1449T
1159.982	2.566	1187841	PROB	2.566	n/a	n/a	-999	9	[1, 3, 8]	12	FR1	0	R1449T
1162.548	3.135	1190407	PROB	3.135	n/a	n/a	-999	9	[8, 2, 8]	18	FR1	0	R1449T
1165.683	0.0	1193542	STOP	n/a	n/a	n/a	-999	9	[-999, -999, -999]	n/a	FR1	0	R1449T
1165.683	2.198	1193544	DISTRACT_END	n/a	n/a	n/a	-999	9	[0, 0, 0]	n/a	FR1	0	R1449T
1167.881	4.907	1195735	REC_START	n/a	n/a	n/a	-999	9	[0, 0, 0]	n/a	FR1	0	R1449T
1172.788	0.999	1200646	REC_WORD_VV	0.999	n/a	<>	-999	9	[0, 0, 0]	n/a	FR1	0	R1449T
1173.787	3.151	1201645	REC_WORD_VV	3.151	n/a	<>	-999	9	[0, 0, 0]	n/a	FR1	0	R1449T
1176.938	1.68	1204796	REC_WORD_VV	1.68	n/a	<>	-999	9	[0, 0, 0]	n/a	FR1	0	R1449T
1178.618	19.484	1206476	REC_WORD	19.484	n/a	BARN	-999	9	[0, 0, 0]	n/a	FR1	0	R1449T
1198.102	5.346	1225954	REC_END	n/a	n/a	n/a	-999	9	[0, 0, 0]	n/a	FR1	0	R1449T
1203.448	10.35	1231297	COUNTDOWN_START	n/a	n/a	n/a	-999	10	[0, 0, 0]	n/a	FR1	0	R1449T
1213.798	0.0	1241656	COUNTDOWN_END	n/a	n/a	n/a	-999	10	[0, 0, 0]	n/a	FR1	0	R1449T
1213.798	1.967	1241656	ENCODING_START	n/a	n/a	n/a	-999	10	[0, 0, 0]	n/a	FR1	0	R1449T
1215.765	1.6	1243612	WORD	n/a	wordpools/wordpool_long_EN.txt	SLIME	1	10	[0, 0, 0]	n/a	FR1	0	R1449T
1217.365	0.917	1245213	WORD_OFF	n/a	n/a	SLIME	1	10	[0, 0, 0]	n/a	FR1	0	R1449T
1218.282	1.616	1246135	WORD	n/a	wordpools/wordpool_long_EN.txt	FLEET	2	10	[0, 0, 0]	n/a	FR1	0	R1449T
1219.898	0.934	1247750	WORD_OFF	n/a	n/a	FLEET	2	10	[0, 0, 0]	n/a	FR1	0	R1449T
1220.832	1.616	1248685	WORD	n/a	wordpools/wordpool_long_EN.txt	GIRL	3	10	[0, 0, 0]	n/a	FR1	0	R1449T
1222.448	0.967	1250301	WORD_OFF	n/a	n/a	GIRL	3	10	[0, 0, 0]	n/a	FR1	0	R1449T
1223.415	1.6	1251265	WORD	n/a	wordpools/wordpool_long_EN.txt	CONE	4	10	[0, 0, 0]	n/a	FR1	0	R1449T
1225.015	1.0	1252866	WORD_OFF	n/a	n/a	CONE	4	10	[0, 0, 0]	n/a	FR1	0	R1449T
1226.015	1.6	1253872	WORD	n/a	wordpools/wordpool_long_EN.txt	FILM	5	10	[0, 0, 0]	n/a	FR1	0	R1449T
1227.615	0.799	1255474	WORD_OFF	n/a	n/a	FILM	5	10	[0, 0, 0]	n/a	FR1	0	R1449T
1228.414	1.601	1256267	WORD	n/a	wordpools/wordpool_long_EN.txt	BANK	6	10	[0, 0, 0]	n/a	FR1	0	R1449T
1230.015	0.85	1257869	WORD_OFF	n/a	n/a	BANK	6	10	[0, 0, 0]	n/a	FR1	0	R1449T
1230.865	1.6	1258719	WORD	n/a	wordpools/wordpool_long_EN.txt	HOOK	7	10	[0, 0, 0]	n/a	FR1	0	R1449T
1232.465	0.917	1260320	WORD_OFF	n/a	n/a	HOOK	7	10	[0, 0, 0]	n/a	FR1	0	R1449T
1233.382	1.617	1261241	WORD	n/a	wordpools/wordpool_long_EN.txt	QUAIL	8	10	[0, 0, 0]	n/a	FR1	0	R1449T
1234.999	0.933	1262857	WORD_OFF	n/a	n/a	QUAIL	8	10	[0, 0, 0]	n/a	FR1	0	R1449T
1235.932	1.6	1263778	WORD	n/a	wordpools/wordpool_long_EN.txt	SHELL	9	10	[0, 0, 0]	n/a	FR1	0	R1449T
1237.532	0.999	1265379	WORD_OFF	n/a	n/a	SHELL	9	10	[0, 0, 0]	n/a	FR1	0	R1449T
1238.531	1.601	1266386	WORD	n/a	wordpools/wordpool_long_EN.txt	DOCK	10	10	[0, 0, 0]	n/a	FR1	0	R1449T
1240.132	0.95	1267987	WORD_OFF	n/a	n/a	DOCK	10	10	[0, 0, 0]	n/a	FR1	0	R1449T
1241.082	1.6	1268936	WORD	n/a	wordpools/wordpool_long_EN.txt	PALM	11	10	[0, 0, 0]	n/a	FR1	0	R1449T
1242.682	0.866	1270538	WORD_OFF	n/a	n/a	PALM	11	10	[0, 0, 0]	n/a	FR1	0	R1449T
1243.548	1.617	1271402	WORD	n/a	wordpools/wordpool_long_EN.txt	BOMB	12	10	[0, 0, 0]	n/a	FR1	0	R1449T
1245.165	0.001	1273018	WORD_OFF	n/a	n/a	BOMB	12	10	[0, 0, 0]	n/a	FR1	0	R1449T
1245.166	0.0	1273018	ENCODING_END	n/a	n/a	n/a	-999	10	[0, 0, 0]	n/a	FR1	0	R1449T
1245.166	0.0	1273018	DISTRACT_START	n/a	n/a	n/a	-999	10	[0, 0, 0]	n/a	FR1	0	R1449T
1245.166	0.0	1273021	START	n/a	n/a	n/a	-999	10	[-999, -999, -999]	n/a	FR1	0	R1449T
1245.166	4.883	1273021	PROB	4.883	n/a	n/a	-999	10	[6, 5, 4]	15	FR1	0	R1449T
1250.049	3.6	1277903	PROB	3.6	n/a	n/a	-999	10	[5, 8, 3]	16	FR1	0	R1449T
1253.649	2.233	1281503	PROB	2.233	n/a	n/a	-999	10	[5, 3, 2]	12	FR1	0	R1449T
1255.882	5.833	1283736	PROB	5.833	n/a	n/a	-999	10	[3, 8, 7]	18	FR1	0	R1449T
1261.715	3.699	1289569	PROB	3.699	n/a	n/a	-999	10	[1, 2, 3]	6	FR1	0	R1449T
1265.414	0.0	1293268	STOP	n/a	n/a	n/a	-999	10	[-999, -999, -999]	n/a	FR1	0	R1449T
1265.414	2.218	1293269	DISTRACT_END	n/a	n/a	n/a	-999	10	[0, 0, 0]	n/a	FR1	0	R1449T
1267.632	0.782	1295487	REC_START	n/a	n/a	n/a	-999	10	[0, 0, 0]	n/a	FR1	0	R1449T
1268.414	1.94	1296268	REC_WORD	1.94	n/a	SLIME	1	10	[0, 0, 0]	n/a	FR1	0	R1449T
1270.354	1.635	1298207	REC_WORD	1.635	n/a	FLEET	2	10	[0, 0, 0]	n/a	FR1	0	R1449T
1271.989	1.721	1299842	REC_WORD	1.721	n/a	GIRL	3	10	[0, 0, 0]	n/a	FR1	0	R1449T
1273.71	2.659	1301563	REC_WORD	2.659	n/a	BANK	6	10	[0, 0, 0]	n/a	FR1	0	R1449T
1276.369	21.472	1304222	REC_WORD	21.472	n/a	GOLD	-999	10	[0, 0, 0]	n/a	FR1	0	R1449T
1297.841	1.841	1325693	REC_END	n/a	n/a	n/a	-999	10	[0, 0, 0]	n/a	FR1	0	R1449T
1299.682	10.35	1327535	COUNTDOWN_START	n/a	n/a	n/a	-999	11	[0, 0, 0]	n/a	FR1	0	R1449T
1310.032	0.0	1337880	COUNTDOWN_END	n/a	n/a	n/a	-999	11	[0, 0, 0]	n/a	FR1	0	R1449T
1310.032	2.15	1337880	ENCODING_START	n/a	n/a	n/a	-999	11	[0, 0, 0]	n/a	FR1	0	R1449T
1312.182	1.6	1340034	WORD	n/a	wordpools/wordpool_long_EN.txt	BLUSH	1	11	[0, 0, 0]	n/a	FR1	0	R1449T
1313.782	0.9	1341636	WORD_OFF	n/a	n/a	BLUSH	1	11	[0, 0, 0]	n/a	FR1	0	R1449T
1314.682	1.6	1342529	WORD	n/a	wordpools/wordpool_long_EN.txt	CLOWN	2	11	[0, 0, 0]	n/a	FR1	0	R1449T
1316.282	0.833	1344130	WORD_OFF	n/a	n/a	CLOWN	2	11	[0, 0, 0]	n/a	FR1	0	R1449T
1317.115	1.6	1344966	WORD	n/a	wordpools/wordpool_long_EN.txt	HAZE	3	11	[0, 0, 0]	n/a	FR1	0	R1449T
1318.715	0.783	1346567	WORD_OFF	n/a	n/a	HAZE	3	11	[0, 0, 0]	n/a	FR1	0	R1449T
1319.498	1.6	1347347	WORD	n/a	wordpools/wordpool_long_EN.txt	DOG	4	11	[0, 0, 0]	n/a	FR1	0	R1449T
1321.098	0.784	1348948	WORD_OFF	n/a	n/a	DOG	4	11	[0, 0, 0]	n/a	FR1	0	R1449T
1321.882	1.617	1349728	WORD	n/a	wordpools/wordpool_long_EN.txt	ARCH	5	11	[0, 0, 0]	n/a	FR1	0	R1449T
1323.499	0.782	1351343	WORD_OFF	n/a	n/a	ARCH	5	11	[0, 0, 0]	n/a	FR1	0	R1449T
1324.281	1.601	1352123	WORD	n/a	wordpools/wordpool_long_EN.txt	ARK	6	11	[0, 0, 0]	n/a	FR1	0	R1449T
1325.882	0.933	1353724	WORD_OFF	n/a	n/a	ARK	6	11	[0, 0, 0]	n/a	FR1	0	R1449T
1326.815	1.616	1354659	WORD	n/a	wordpools/wordpool_long_EN.txt	SHIP	7	11	[0, 0, 0]	n/a	FR1	0	R1449T
1328.431	0.884	1356275	WORD_OFF	n/a	n/a	SHIP	7	11	[0, 0, 0]	n/a	FR1	0	R1449T
1329.315	1.617	1357168	WORD	n/a	wordpools/wordpool_long_EN.txt	WORM	8	11	[0, 0, 0]	n/a	FR1	0	R1449T
1330.932	0.916	1358783	WORD_OFF	n/a	n/a	WORM	8	11	[0, 0, 0]	n/a	FR1	0	R1449T
1331.848	1.6	1359690	WORD	n/a	wordpools/wordpool_long_EN.txt	SPOOL	9	11	[0, 0, 0]	n/a	FR1	0	R1449T
1333.448	0.951	1361292	WORD_OFF	n/a	n/a	SPOOL	9	11	[0, 0, 0]	n/a	FR1	0	R1449T
1334.399	1.599	1362241	WORD	n/a	wordpools/wordpool_long_EN.txt	APE	10	11	[0, 0, 0]	n/a	FR1	0	R1449T
1335.998	0.834	1363842	WORD_OFF	n/a	n/a	APE	10	11	[0, 0, 0]	n/a	FR1	0	R1449T
1336.832	1.616	1364678	WORD	n/a	wordpools/wordpool_long_EN.txt	STORM	11	11	[0, 0, 0]	n/a	FR1	0	R1449T
1338.448	1.0	1366294	WORD_OFF	n/a	n/a	STORM	11	11	[0, 0, 0]	n/a	FR1	0	R1449T
1339.448	1.6	1367300	WORD	n/a	wordpools/wordpool_long_EN.txt	HOUSE	12	11	[0, 0, 0]	n/a	FR1	0	R1449T
1341.048	0.0	1368887	WORD_OFF	n/a	n/a	HOUSE	12	11	[0, 0, 0]	n/a	FR1	0	R1449T
1341.048	0.001	1368898	PROB	0.001	n/a	n/a	-999	11	[7, 6, 8]	21	FR1	0	R1449T
1341.049	0.0	1368899	START	n/a	n/a	n/a	-999	11	[-999, -999, -999]	n/a	FR1	0	R1449T
1341.049	0.0	1368902	ENCODING_END	n/a	n/a	n/a	-999	11	[0, 0, 0]	n/a	FR1	0	R1449T
1341.049	7.5	1368902	DISTRACT_START	n/a	n/a	n/a	-999	11	[0, 0, 0]	n/a	FR1	0	R1449T
1348.549	2.085	1376398	PROB	2.085	n/a	n/a	-999	11	[7, 3, 1]	11	FR1	0	R1449T
1350.634	2.281	1378483	PROB	2.281	n/a	n/a	-999	11	[4, 3, 6]	13	FR1	0	R1449T
1352.915	3.884	1380764	PROB	3.884	n/a	n/a	-999	11	[7, 6, 3]	16	FR1	0	R1449T
1356.799	2.15	1384648	PROB	2.15	n/a	n/a	-999	11	[1, 1, 4]	6	FR1	0	R1449T
1358.949	2.932	1386798	PROB	2.932	n/a	n/a	-999	11	[8, 7, 6]	21	FR1	0	R1449T
1361.881	0.0	1389730	STOP	n/a	n/a	n/a	-999	11	[-999, -999, -999]	n/a	FR1	0	R1449T
1361.881	2.167	1389734	DISTRACT_END	n/a	n/a	n/a	-999	11	[0, 0, 0]	n/a	FR1	0	R1449T
1364.048	0.828	1391896	REC_START	n/a	n/a	n/a	-999	11	[0, 0, 0]	n/a	FR1	0	R1449T
1364.876	1.035	1392725	REC_WORD	1.035	n/a	APE	10	11	[0, 0, 0]	n/a	FR1	0	R1449T
1365.911	1.593	1393760	REC_WORD	1.593	n/a	STORM	11	11	[0, 0, 0]	n/a	FR1	0	R1449T
1367.504	1.418	1395352	REC_WORD	1.418	n/a	HOUSE	12	11	[0, 0, 0]	n/a	FR1	0	R1449T
1368.922	1.679	1396770	REC_WORD	1.679	n/a	DOG	4	11	[0, 0, 0]	n/a	FR1	0	R1449T
1370.601	1.31	1398449	REC_WORD	1.31	n/a	ARC	-999	11	[0, 0, 0]	n/a	FR1	0	R1449T
1371.911	22.352	1399759	REC_WORD	22.352	n/a	SPOOL	9	11	[0, 0, 0]	n/a	FR1	0	R1449T
1394.263	1.868	1422115	REC_END	n/a	n/a	n/a	-999	11	[0, 0, 0]	n/a	FR1	0	R1449T
1396.131	10.35	1423972	COUNTDOWN_START	n/a	n/a	n/a	-999	12	[0, 0, 0]	n/a	FR1	0	R1449T
1406.481	0.0	1434331	COUNTDOWN_END	n/a	n/a	n/a	-999	12	[0, 0, 0]	n/a	FR1	0	R1449T
1406.481	2.001	1434331	ENCODING_START	n/a	n/a	n/a	-999	12	[0, 0, 0]	n/a	FR1	0	R1449T
1408.482	1.6	1436329	WORD	n/a	wordpools/wordpool_long_EN.txt	BROOK	1	12	[0, 0, 0]	n/a	FR1	0	R1449T
1410.082	1.0	1437931	WORD_OFF	n/a	n/a	BROOK	1	12	[0, 0, 0]	n/a	FR1	0	R1449T
1411.082	1.616	1438923	WORD	n/a	wordpools/wordpool_long_EN.txt	VASE	2	12	[0, 0, 0]	n/a	FR1	0	R1449T
1412.698	0.816	1440538	WORD_OFF	n/a	n/a	VASE	2	12	[0, 0, 0]	n/a	FR1	0	R1449T
1413.514	1.601	1441360	WORD	n/a	wordpools/wordpool_long_EN.txt	RAT	3	12	[0, 0, 0]	n/a	FR1	0	R1449T
1415.115	0.866	1442961	WORD_OFF	n/a	n/a	RAT	3	12	[0, 0, 0]	n/a	FR1	0	R1449T
1415.981	1.601	1443826	WORD	n/a	wordpools/wordpool_long_EN.txt	INK	4	12	[0, 0, 0]	n/a	FR1	0	R1449T
1417.582	0.883	1445427	WORD_OFF	n/a	n/a	INK	4	12	[0, 0, 0]	n/a	FR1	0	R1449T
1418.465	1.616	1446306	WORD	n/a	wordpools/wordpool_long_EN.txt	TRIBE	5	12	[0, 0, 0]	n/a	FR1	0	R1449T
1420.081	0.851	1447921	WORD_OFF	n/a	n/a	TRIBE	5	12	[0, 0, 0]	n/a	FR1	0	R1449T
1420.932	1.6	1448772	WORD	n/a	wordpools/wordpool_long_EN.txt	SPOUSE	6	12	[0, 0, 0]	n/a	FR1	0	R1449T
1422.532	0.966	1450373	WORD_OFF	n/a	n/a	SPOUSE	6	12	[0, 0, 0]	n/a	FR1	0	R1449T
1423.498	1.6	1451337	WORD	n/a	wordpools/wordpool_long_EN.txt	NAIL	7	12	[0, 0, 0]	n/a	FR1	0	R1449T
1425.098	0.767	1452938	WORD_OFF	n/a	n/a	NAIL	7	12	[0, 0, 0]	n/a	FR1	0	R1449T
1425.865	1.6	1453703	WORD	n/a	wordpools/wordpool_long_EN.txt	STAR	8	12	[0, 0, 0]	n/a	FR1	0	R1449T
1427.465	0.966	1455305	WORD_OFF	n/a	n/a	STAR	8	12	[0, 0, 0]	n/a	FR1	0	R1449T
1428.431	1.601	1456268	WORD	n/a	wordpools/wordpool_long_EN.txt	STAKE	9	12	[0, 0, 0]	n/a	FR1	0	R1449T
1430.032	0.883	1457870	WORD_OFF	n/a	n/a	STAKE	9	12	[0, 0, 0]	n/a	FR1	0	R1449T
1430.915	1.616	1458762	WORD	n/a	wordpools/wordpool_long_EN.txt	ELF	10	12	[0, 0, 0]	n/a	FR1	0	R1449T
1432.531	0.817	1460378	WORD_OFF	n/a	n/a	ELF	10	12	[0, 0, 0]	n/a	FR1	0	R1449T
1433.348	1.616	1461186	WORD	n/a	wordpools/wordpool_long_EN.txt	TART	11	12	[0, 0, 0]	n/a	FR1	0	R1449T
1434.964	0.951	1462801	WORD_OFF	n/a	n/a	TART	11	12	[0, 0, 0]	n/a	FR1	0	R1449T
1435.915	1.617	1463751	WORD	n/a	wordpools/wordpool_long_EN.txt	ROPE	12	12	[0, 0, 0]	n/a	FR1	0	R1449T
1437.532	0.0	1465366	WORD_OFF	n/a	n/a	ROPE	12	12	[0, 0, 0]	n/a	FR1	0	R1449T
1437.532	0.001	1465377	PROB	0.001	n/a	n/a	-999	12	[8, 1, 2]	11	FR1	0	R1449T
1437.533	0.0	1465378	START	n/a	n/a	n/a	-999	12	[-999, -999, -999]	n/a	FR1	0	R1449T
1437.533	0.0	1465381	ENCODING_END	n/a	n/a	n/a	-999	12	[0, 0, 0]	n/a	FR1	0	R1449T
1437.533	3.848	1465381	DISTRACT_START	n/a	n/a	n/a	-999	12	[0, 0, 0]	n/a	FR1	0	R1449T
1441.381	3.401	1469226	PROB	3.401	n/a	n/a	-999	12	[7, 8, 6]	21	FR1	0	R1449T
1444.782	4.7	1472626	PROB	4.7	n/a	n/a	-999	12	[3, 8, 6]	17	FR1	0	R1449T
1449.482	3.367	1477326	PROB	3.367	n/a	n/a	-999	12	[1, 3, 3]	7	FR1	0	R1449T
1452.849	4.916	1480693	PROB	4.916	n/a	n/a	-999	12	[7, 7, 6]	20	FR1	0	R1449T
1457.765	0.0	1485603	DISTRACT_END	n/a	n/a	n/a	-999	12	[0, 0, 0]	n/a	FR1	0	R1449T
1457.765	2.117	1485609	STOP	n/a	n/a	n/a	-999	12	[-999, -999, -999]	n/a	FR1	0	R1449T
1459.882	0.591	1487723	REC_START	n/a	n/a	n/a	-999	12	[0, 0, 0]	n/a	FR1	0	R1449T
1460.473	2.073	1488317	REC_WORD	2.073	n/a	SPOUSE	6	12	[0, 0, 0]	n/a	FR1	0	R1449T
1462.546	1.96	1490390	REC_WORD	1.96	n/a	VASE	2	12	[0, 0, 0]	n/a	FR1	0	R1449T
1464.506	2.601	1492349	REC_WORD	2.601	n/a	RAT	3	12	[0, 0, 0]	n/a	FR1	0	R1449T
1467.107	14.948	1494950	REC_WORD	14.948	n/a	TART	11	12	[0, 0, 0]	n/a	FR1	0	R1449T
1482.055	8.054	1509898	REC_WORD	8.054	n/a	BROOK	1	12	[0, 0, 0]	n/a	FR1	0	R1449T
1490.109	0.0	1517942	REC_END	n/a	n/a	n/a	-999	12	[0, 0, 0]	n/a	FR1	0	R1449T
