onset	duration	sample	trial_type	response_time	stim_file	item_name	serialpos	list	test	answer	experiment	session	subject
0.0	3.569	451	INSTRUCT_START	n/a	n/a	n/a	-999	-999	[0, 0, 0]	n/a	FR1	1	R1332M
3.569	9.235	4020	INSTRUCT_END	n/a	n/a	n/a	-999	-999	[0, 0, 0]	n/a	FR1	1	R1332M
12.804	11.08	13255	MIC TEST_START	n/a	n/a	n/a	-999	-999	[0, 0, 0]	n/a	FR1	1	R1332M
23.884	0.018	24334	MIC TEST_END	n/a	n/a	n/a	-999	-999	[0, 0, 0]	n/a	FR1	1	R1332M
23.902	0.0	24352	TRIAL_START	n/a	n/a	n/a	-999	-1	[0, 0, 0]	n/a	FR1	1	R1332M
23.902	0.0	24352	TRIAL	n/a	n/a	n/a	-999	-1	[0, 0, 0]	n/a	FR1	1	R1332M
23.902	45.73	24352	WAITING_START	n/a	n/a	n/a	-999	-1	[0, 0, 0]	n/a	FR1	1	R1332M
69.632	0.0	70080	COUNTDOWN_START	n/a	n/a	n/a	-999	-1	[0, 0, 0]	n/a	FR1	1	R1332M
69.632	10.429	70080	WAITING_END	n/a	n/a	n/a	-999	-1	[0, 0, 0]	n/a	FR1	1	R1332M
80.061	0.0	80508	COUNTDOWN_END	n/a	n/a	n/a	-999	-1	[0, 0, 0]	n/a	FR1	1	R1332M
80.061	1.038	80508	ORIENT_START	n/a	n/a	n/a	-999	-1	[0, 0, 0]	n/a	FR1	1	R1332M
81.099	0.001	81546	ORIENT_END	n/a	n/a	n/a	-999	-1	[0, 0, 0]	n/a	FR1	1	R1332M
81.1	1.077	81547	ENCODING_START	n/a	n/a	n/a	-999	-1	[0, 0, 0]	n/a	FR1	1	R1332M
82.177	1.624	82624	WORD	n/a	n/a	CHEST	1	-1	[0, 0, 0]	n/a	FR1	1	R1332M
83.801	1.127	84248	WORD_OFF	n/a	n/a	CHEST	1	-1	[0, 0, 0]	n/a	FR1	1	R1332M
84.928	1.624	85375	WORD	n/a	n/a	BABY	2	-1	[0, 0, 0]	n/a	FR1	1	R1332M
86.552	0.946	86999	WORD_OFF	n/a	n/a	BABY	2	-1	[0, 0, 0]	n/a	FR1	1	R1332M
87.498	1.636	87945	WORD	n/a	n/a	IMAGE	3	-1	[0, 0, 0]	n/a	FR1	1	R1332M
89.134	0.764	89581	WORD_OFF	n/a	n/a	IMAGE	3	-1	[0, 0, 0]	n/a	FR1	1	R1332M
89.898	1.621	90345	WORD	n/a	n/a	RING	4	-1	[0, 0, 0]	n/a	FR1	1	R1332M
91.519	0.924	91966	WORD_OFF	n/a	n/a	RING	4	-1	[0, 0, 0]	n/a	FR1	1	R1332M
92.443	1.626	92889	WORD	n/a	n/a	FLOOD	5	-1	[0, 0, 0]	n/a	FR1	1	R1332M
94.069	1.057	94515	WORD_OFF	n/a	n/a	FLOOD	5	-1	[0, 0, 0]	n/a	FR1	1	R1332M
95.126	1.627	95572	WORD	n/a	n/a	TONGUE	6	-1	[0, 0, 0]	n/a	FR1	1	R1332M
96.753	0.798	97199	WORD_OFF	n/a	n/a	TONGUE	6	-1	[0, 0, 0]	n/a	FR1	1	R1332M
97.551	1.635	97997	WORD	n/a	n/a	WAGON	7	-1	[0, 0, 0]	n/a	FR1	1	R1332M
99.186	1.076	99632	WORD_OFF	n/a	n/a	WAGON	7	-1	[0, 0, 0]	n/a	FR1	1	R1332M
100.262	1.626	100708	WORD	n/a	n/a	CAMEL	8	-1	[0, 0, 0]	n/a	FR1	1	R1332M
101.888	0.795	102334	WORD_OFF	n/a	n/a	CAMEL	8	-1	[0, 0, 0]	n/a	FR1	1	R1332M
102.683	1.622	103129	WORD	n/a	n/a	COTTON	9	-1	[0, 0, 0]	n/a	FR1	1	R1332M
104.305	0.886	104751	WORD_OFF	n/a	n/a	COTTON	9	-1	[0, 0, 0]	n/a	FR1	1	R1332M
105.191	1.615	105637	WORD	n/a	n/a	BEAM	10	-1	[0, 0, 0]	n/a	FR1	1	R1332M
106.806	1.014	107252	WORD_OFF	n/a	n/a	BEAM	10	-1	[0, 0, 0]	n/a	FR1	1	R1332M
107.82	1.636	108266	WORD	n/a	n/a	WATCH	11	-1	[0, 0, 0]	n/a	FR1	1	R1332M
109.456	0.994	109902	WORD_OFF	n/a	n/a	WATCH	11	-1	[0, 0, 0]	n/a	FR1	1	R1332M
110.45	1.622	110896	WORD	n/a	n/a	RHINO	12	-1	[0, 0, 0]	n/a	FR1	1	R1332M
112.072	0.001	112517	WORD_OFF	n/a	n/a	RHINO	12	-1	[0, 0, 0]	n/a	FR1	1	R1332M
112.073	0.0	112518	DISTRACT_START	n/a	n/a	n/a	-999	-1	[0, 0, 0]	n/a	FR1	1	R1332M
112.073	0.0	112518	ENCODING_END	n/a	n/a	n/a	-999	-1	[0, 0, 0]	n/a	FR1	1	R1332M
112.073	0.016	112518	START	n/a	n/a	n/a	-999	-1	[-999, -999, -999]	n/a	FR1	1	R1332M
112.089	4.785	112534	PROB	4.785	n/a	n/a	-999	-1	[3, 7, 1]	11	FR1	1	R1332M
116.874	2.383	117319	PROB	2.383	n/a	n/a	-999	-1	[3, 3, 5]	11	FR1	1	R1332M
119.257	2.984	119702	PROB	2.984	n/a	n/a	-999	-1	[2, 7, 6]	15	FR1	1	R1332M
122.241	1.9	122686	PROB	1.9	n/a	n/a	-999	-1	[7, 6, 1]	14	FR1	1	R1332M
124.141	3.352	124586	PROB	3.352	n/a	n/a	-999	-1	[2, 1, 5]	8	FR1	1	R1332M
127.493	1.582	127938	PROB	1.582	n/a	n/a	-999	-1	[4, 2, 6]	12	FR1	1	R1332M
129.075	2.402	129520	PROB	2.402	n/a	n/a	-999	-1	[1, 8, 1]	10	FR1	1	R1332M
131.477	2.385	131921	PROB	2.385	n/a	n/a	-999	-1	[7, 7, 9]	23	FR1	1	R1332M
133.862	0.015	134306	STOP	n/a	n/a	n/a	-999	-1	[-999, -999, -999]	n/a	FR1	1	R1332M
133.877	0.683	134321	DISTRACT_END	n/a	n/a	n/a	-999	-1	[0, 0, 0]	n/a	FR1	1	R1332M
134.56	1.718	135004	RETRIEVAL_ORIENT_START	n/a	n/a	n/a	-999	-1	[0, 0, 0]	n/a	FR1	1	R1332M
136.278	0.0	136722	RETRIEVAL_ORIENT_END	n/a	n/a	n/a	-999	-1	[0, 0, 0]	n/a	FR1	1	R1332M
136.278	0.381	136722	REC_START	n/a	n/a	n/a	-999	-1	[0, 0, 0]	n/a	FR1	1	R1332M
136.659	0.783	137103	REC_WORD_VV	0.783	n/a	<>	-999	-1	[0, 0, 0]	n/a	FR1	1	R1332M
137.442	1.758	137886	REC_WORD	1.758	n/a	CHEST	-999	-1	[0, 0, 0]	n/a	FR1	1	R1332M
139.2	0.656	139644	REC_WORD	0.656	n/a	BABY	-999	-1	[0, 0, 0]	n/a	FR1	1	R1332M
139.856	1.562	140300	REC_WORD	1.562	n/a	RING	-999	-1	[0, 0, 0]	n/a	FR1	1	R1332M
141.418	6.287	141862	REC_WORD	6.287	n/a	DOLL	-999	-1	[0, 0, 0]	n/a	FR1	1	R1332M
147.705	1.0	148149	REC_WORD_VV	1.0	n/a	<>	-999	-1	[0, 0, 0]	n/a	FR1	1	R1332M
148.705	17.584	149149	REC_WORD_VV	17.584	n/a	<>	-999	-1	[0, 0, 0]	n/a	FR1	1	R1332M
166.289	0.0	166732	REC_END	n/a	n/a	n/a	-999	-1	[0, 0, 0]	n/a	FR1	1	R1332M
166.289	9.247	166732	PRACTICE_POST_INSTRUCT_START	n/a	n/a	n/a	-999	-1	[0, 0, 0]	n/a	FR1	1	R1332M
175.536	0.0	175978	PRACTICE_POST_INSTRUCT_END	n/a	n/a	n/a	-999	-1	[0, 0, 0]	n/a	FR1	1	R1332M
175.536	0.017	175978	TRIAL_END	n/a	n/a	n/a	-999	-1	[0, 0, 0]	n/a	FR1	1	R1332M
175.553	0.001	175995	TRIAL_START	n/a	n/a	n/a	-999	1	[0, 0, 0]	n/a	FR1	1	R1332M
175.554	0.0	175996	TRIAL	n/a	n/a	n/a	-999	1	[0, 0, 0]	n/a	FR1	1	R1332M
175.554	1.815	175996	WAITING_START	n/a	n/a	n/a	-999	1	[0, 0, 0]	n/a	FR1	1	R1332M
177.369	0.001	177811	WAITING_END	n/a	n/a	n/a	-999	1	[0, 0, 0]	n/a	FR1	1	R1332M
177.37	10.429	177812	COUNTDOWN_START	n/a	n/a	n/a	-999	1	[0, 0, 0]	n/a	FR1	1	R1332M
187.799	0.0	188241	COUNTDOWN_END	n/a	n/a	n/a	-999	1	[0, 0, 0]	n/a	FR1	1	R1332M
187.799	1.122	188241	ORIENT_START	n/a	n/a	n/a	-999	1	[0, 0, 0]	n/a	FR1	1	R1332M
188.921	0.001	189363	ORIENT_END	n/a	n/a	n/a	-999	1	[0, 0, 0]	n/a	FR1	1	R1332M
188.922	0.896	189364	ENCODING_START	n/a	n/a	n/a	-999	1	[0, 0, 0]	n/a	FR1	1	R1332M
189.818	1.637	190259	WORD	n/a	n/a	STREET	1	1	[0, 0, 0]	n/a	FR1	1	R1332M
191.455	0.783	191896	WORD_OFF	n/a	n/a	STREET	1	1	[0, 0, 0]	n/a	FR1	1	R1332M
192.238	1.634	192679	WORD	n/a	n/a	SOCK	2	1	[0, 0, 0]	n/a	FR1	1	R1332M
193.872	0.95	194313	WORD_OFF	n/a	n/a	SOCK	2	1	[0, 0, 0]	n/a	FR1	1	R1332M
194.822	1.634	195263	WORD	n/a	n/a	BOMB	3	1	[0, 0, 0]	n/a	FR1	1	R1332M
196.456	0.883	196897	WORD_OFF	n/a	n/a	BOMB	3	1	[0, 0, 0]	n/a	FR1	1	R1332M
197.339	1.634	197780	WORD	n/a	n/a	SPONGE	4	1	[0, 0, 0]	n/a	FR1	1	R1332M
198.973	1.144	199414	WORD_OFF	n/a	n/a	SPONGE	4	1	[0, 0, 0]	n/a	FR1	1	R1332M
200.117	1.607	200558	WORD	n/a	n/a	STEM	5	1	[0, 0, 0]	n/a	FR1	1	R1332M
201.724	1.112	202165	WORD_OFF	n/a	n/a	STEM	5	1	[0, 0, 0]	n/a	FR1	1	R1332M
202.836	1.622	203277	WORD	n/a	n/a	PURSE	6	1	[0, 0, 0]	n/a	FR1	1	R1332M
204.458	0.992	204899	WORD_OFF	n/a	n/a	PURSE	6	1	[0, 0, 0]	n/a	FR1	1	R1332M
205.45	1.624	205891	WORD	n/a	n/a	WEB	7	1	[0, 0, 0]	n/a	FR1	1	R1332M
207.074	0.979	207515	WORD_OFF	n/a	n/a	WEB	7	1	[0, 0, 0]	n/a	FR1	1	R1332M
208.053	1.606	208494	WORD	n/a	n/a	PEA	8	1	[0, 0, 0]	n/a	FR1	1	R1332M
209.659	0.763	210099	WORD_OFF	n/a	n/a	PEA	8	1	[0, 0, 0]	n/a	FR1	1	R1332M
210.422	1.636	210862	WORD	n/a	n/a	HORSE	9	1	[0, 0, 0]	n/a	FR1	1	R1332M
212.058	1.11	212498	WORD_OFF	n/a	n/a	HORSE	9	1	[0, 0, 0]	n/a	FR1	1	R1332M
213.168	1.625	213608	WORD	n/a	n/a	FRUIT	10	1	[0, 0, 0]	n/a	FR1	1	R1332M
214.793	1.009	215233	WORD_OFF	n/a	n/a	FRUIT	10	1	[0, 0, 0]	n/a	FR1	1	R1332M
215.802	1.625	216242	WORD	n/a	n/a	CAKE	11	1	[0, 0, 0]	n/a	FR1	1	R1332M
217.427	0.97	217867	WORD_OFF	n/a	n/a	CAKE	11	1	[0, 0, 0]	n/a	FR1	1	R1332M
218.397	1.631	218837	WORD	n/a	n/a	STAR	12	1	[0, 0, 0]	n/a	FR1	1	R1332M
220.028	0.0	220468	WORD_OFF	n/a	n/a	STAR	12	1	[0, 0, 0]	n/a	FR1	1	R1332M
220.028	0.0	220468	ENCODING_END	n/a	n/a	n/a	-999	1	[0, 0, 0]	n/a	FR1	1	R1332M
220.028	0.0	220468	DISTRACT_START	n/a	n/a	n/a	-999	1	[0, 0, 0]	n/a	FR1	1	R1332M
220.028	0.016	220468	START	n/a	n/a	n/a	-999	1	[-999, -999, -999]	n/a	FR1	1	R1332M
220.044	2.9	220484	PROB	2.9	n/a	n/a	-999	1	[1, 6, 8]	15	FR1	1	R1332M
222.944	3.183	223384	PROB	3.183	n/a	n/a	-999	1	[8, 4, 9]	21	FR1	1	R1332M
226.127	2.285	226567	PROB	2.285	n/a	n/a	-999	1	[5, 1, 3]	9	FR1	1	R1332M
228.412	2.467	228851	PROB	2.467	n/a	n/a	-999	1	[7, 6, 4]	17	FR1	1	R1332M
230.879	1.767	231318	PROB	1.767	n/a	n/a	-999	1	[3, 7, 8]	18	FR1	1	R1332M
232.646	1.5	233085	PROB	1.5	n/a	n/a	-999	1	[1, 8, 3]	12	FR1	1	R1332M
234.146	3.418	234585	PROB	3.418	n/a	n/a	-999	1	[4, 3, 9]	16	FR1	1	R1332M
237.564	2.647	238003	PROB	2.647	n/a	n/a	-999	1	[7, 8, 8]	23	FR1	1	R1332M
240.211	0.019	240650	STOP	n/a	n/a	n/a	-999	1	[-999, -999, -999]	n/a	FR1	1	R1332M
240.23	0.574	240669	DISTRACT_END	n/a	n/a	n/a	-999	1	[0, 0, 0]	n/a	FR1	1	R1332M
240.804	1.711	241243	RETRIEVAL_ORIENT_START	n/a	n/a	n/a	-999	1	[0, 0, 0]	n/a	FR1	1	R1332M
242.515	0.0	242954	RETRIEVAL_ORIENT_END	n/a	n/a	n/a	-999	1	[0, 0, 0]	n/a	FR1	1	R1332M
242.515	1.021	242954	REC_START	n/a	n/a	n/a	-999	1	[0, 0, 0]	n/a	FR1	1	R1332M
243.536	0.51	243975	REC_WORD	0.51	n/a	STREET	1	1	[0, 0, 0]	n/a	FR1	1	R1332M
244.046	0.778	244485	REC_WORD	0.778	n/a	SOCK	2	1	[0, 0, 0]	n/a	FR1	1	R1332M
244.824	1.485	245263	REC_WORD	1.485	n/a	BOMB	3	1	[0, 0, 0]	n/a	FR1	1	R1332M
246.309	1.093	246748	REC_WORD	1.093	n/a	STAR	12	1	[0, 0, 0]	n/a	FR1	1	R1332M
247.402	0.747	247840	REC_WORD	0.747	n/a	FRUIT	10	1	[0, 0, 0]	n/a	FR1	1	R1332M
248.149	10.241	248587	REC_WORD	10.241	n/a	CAKE	11	1	[0, 0, 0]	n/a	FR1	1	R1332M
258.39	14.134	258828	REC_WORD	14.134	n/a	HOUSE	-999	1	[0, 0, 0]	n/a	FR1	1	R1332M
272.524	0.0	272961	REC_END	n/a	n/a	n/a	-999	1	[0, 0, 0]	n/a	FR1	1	R1332M
272.524	0.015	272961	TRIAL_END	n/a	n/a	n/a	-999	1	[0, 0, 0]	n/a	FR1	1	R1332M
272.539	0.0	272976	TRIAL_START	n/a	n/a	n/a	-999	2	[0, 0, 0]	n/a	FR1	1	R1332M
272.539	0.001	272976	TRIAL	n/a	n/a	n/a	-999	2	[0, 0, 0]	n/a	FR1	1	R1332M
272.54	4.332	272977	WAITING_START	n/a	n/a	n/a	-999	2	[0, 0, 0]	n/a	FR1	1	R1332M
276.872	0.0	277309	COUNTDOWN_START	n/a	n/a	n/a	-999	2	[0, 0, 0]	n/a	FR1	1	R1332M
276.872	10.429	277309	WAITING_END	n/a	n/a	n/a	-999	2	[0, 0, 0]	n/a	FR1	1	R1332M
287.301	0.001	287737	COUNTDOWN_END	n/a	n/a	n/a	-999	2	[0, 0, 0]	n/a	FR1	1	R1332M
287.302	1.022	287738	ORIENT_START	n/a	n/a	n/a	-999	2	[0, 0, 0]	n/a	FR1	1	R1332M
288.324	0.0	288760	ORIENT_END	n/a	n/a	n/a	-999	2	[0, 0, 0]	n/a	FR1	1	R1332M
288.324	0.829	288760	ENCODING_START	n/a	n/a	n/a	-999	2	[0, 0, 0]	n/a	FR1	1	R1332M
289.153	1.638	289589	WORD	n/a	n/a	STAIR	1	2	[0, 0, 0]	n/a	FR1	1	R1332M
290.791	1.005	291227	WORD_OFF	n/a	n/a	STAIR	1	2	[0, 0, 0]	n/a	FR1	1	R1332M
291.796	1.629	292232	WORD	n/a	n/a	JAR	2	2	[0, 0, 0]	n/a	FR1	1	R1332M
293.425	0.859	293861	WORD_OFF	n/a	n/a	JAR	2	2	[0, 0, 0]	n/a	FR1	1	R1332M
294.284	1.625	294720	WORD	n/a	n/a	SHIRT	3	2	[0, 0, 0]	n/a	FR1	1	R1332M
295.909	0.987	296345	WORD_OFF	n/a	n/a	SHIRT	3	2	[0, 0, 0]	n/a	FR1	1	R1332M
296.896	1.63	297332	WORD	n/a	n/a	WAND	4	2	[0, 0, 0]	n/a	FR1	1	R1332M
298.526	0.768	298962	WORD_OFF	n/a	n/a	WAND	4	2	[0, 0, 0]	n/a	FR1	1	R1332M
299.294	1.632	299730	WORD	n/a	n/a	YARD	5	2	[0, 0, 0]	n/a	FR1	1	R1332M
300.926	0.906	301362	WORD_OFF	n/a	n/a	YARD	5	2	[0, 0, 0]	n/a	FR1	1	R1332M
301.832	1.628	302268	WORD	n/a	n/a	STEAK	6	2	[0, 0, 0]	n/a	FR1	1	R1332M
303.46	0.787	303896	WORD_OFF	n/a	n/a	STEAK	6	2	[0, 0, 0]	n/a	FR1	1	R1332M
304.247	1.63	304683	WORD	n/a	n/a	FISH	7	2	[0, 0, 0]	n/a	FR1	1	R1332M
305.877	0.768	306312	WORD_OFF	n/a	n/a	FISH	7	2	[0, 0, 0]	n/a	FR1	1	R1332M
306.645	1.633	307080	WORD	n/a	n/a	FOG	8	2	[0, 0, 0]	n/a	FR1	1	R1332M
308.278	0.982	308713	WORD_OFF	n/a	n/a	FOG	8	2	[0, 0, 0]	n/a	FR1	1	R1332M
309.26	1.635	309695	WORD	n/a	n/a	TANK	9	2	[0, 0, 0]	n/a	FR1	1	R1332M
310.895	0.778	311330	WORD_OFF	n/a	n/a	TANK	9	2	[0, 0, 0]	n/a	FR1	1	R1332M
311.673	1.622	312108	WORD	n/a	n/a	FLAG	10	2	[0, 0, 0]	n/a	FR1	1	R1332M
313.295	1.123	313730	WORD_OFF	n/a	n/a	FLAG	10	2	[0, 0, 0]	n/a	FR1	1	R1332M
314.418	1.628	314853	WORD	n/a	n/a	POLE	11	2	[0, 0, 0]	n/a	FR1	1	R1332M
316.046	1.127	316481	WORD_OFF	n/a	n/a	POLE	11	2	[0, 0, 0]	n/a	FR1	1	R1332M
317.173	1.606	317608	WORD	n/a	n/a	TEA	12	2	[0, 0, 0]	n/a	FR1	1	R1332M
318.779	0.001	319214	WORD_OFF	n/a	n/a	TEA	12	2	[0, 0, 0]	n/a	FR1	1	R1332M
318.78	0.0	319215	ENCODING_END	n/a	n/a	n/a	-999	2	[0, 0, 0]	n/a	FR1	1	R1332M
318.78	0.0	319215	DISTRACT_START	n/a	n/a	n/a	-999	2	[0, 0, 0]	n/a	FR1	1	R1332M
318.78	0.016	319215	START	n/a	n/a	n/a	-999	2	[-999, -999, -999]	n/a	FR1	1	R1332M
318.796	3.651	319231	PROB	3.651	n/a	n/a	-999	2	[8, 9, 9]	26	FR1	1	R1332M
322.447	1.417	322882	PROB	1.417	n/a	n/a	-999	2	[1, 8, 3]	12	FR1	1	R1332M
323.864	1.617	324299	PROB	1.617	n/a	n/a	-999	2	[4, 7, 1]	1	FR1	1	R1332M
325.481	2.666	325915	PROB	2.666	n/a	n/a	-999	2	[3, 7, 9]	19	FR1	1	R1332M
328.147	1.685	328581	PROB	1.685	n/a	n/a	-999	2	[9, 1, 2]	12	FR1	1	R1332M
329.832	2.917	330266	PROB	2.917	n/a	n/a	-999	2	[6, 8, 5]	19	FR1	1	R1332M
332.749	2.416	333183	PROB	2.416	n/a	n/a	-999	2	[7, 4, 8]	19	FR1	1	R1332M
335.165	2.752	335599	PROB	2.752	n/a	n/a	-999	2	[7, 2, 6]	15	FR1	1	R1332M
337.917	1.906	338351	PROB	1.906	n/a	n/a	-999	2	[1, 6, 8]	15	FR1	1	R1332M
339.823	0.011	340257	STOP	n/a	n/a	n/a	-999	2	[-999, -999, -999]	n/a	FR1	1	R1332M
339.834	0.576	340268	DISTRACT_END	n/a	n/a	n/a	-999	2	[0, 0, 0]	n/a	FR1	1	R1332M
340.41	1.723	340844	RETRIEVAL_ORIENT_START	n/a	n/a	n/a	-999	2	[0, 0, 0]	n/a	FR1	1	R1332M
342.133	0.001	342567	RETRIEVAL_ORIENT_END	n/a	n/a	n/a	-999	2	[0, 0, 0]	n/a	FR1	1	R1332M
342.134	1.674	342568	REC_START	n/a	n/a	n/a	-999	2	[0, 0, 0]	n/a	FR1	1	R1332M
343.808	2.598	344242	REC_WORD_VV	2.598	n/a	<>	-999	2	[0, 0, 0]	n/a	FR1	1	R1332M
346.406	2.949	346839	REC_WORD	2.949	n/a	FLAG	10	2	[0, 0, 0]	n/a	FR1	1	R1332M
349.355	3.576	349788	REC_WORD	3.576	n/a	FOG	8	2	[0, 0, 0]	n/a	FR1	1	R1332M
352.931	3.904	353364	REC_WORD	3.904	n/a	POLE	11	2	[0, 0, 0]	n/a	FR1	1	R1332M
356.835	12.317	357268	REC_WORD	12.317	n/a	NEST	-999	2	[0, 0, 0]	n/a	FR1	1	R1332M
369.152	2.992	369584	REC_WORD	2.992	n/a	PEAR	-999	2	[0, 0, 0]	n/a	FR1	1	R1332M
372.144	0.0	372576	REC_END	n/a	n/a	n/a	-999	2	[0, 0, 0]	n/a	FR1	1	R1332M
372.144	0.016	372576	TRIAL_END	n/a	n/a	n/a	-999	2	[0, 0, 0]	n/a	FR1	1	R1332M
372.16	0.0	372592	TRIAL_START	n/a	n/a	n/a	-999	3	[0, 0, 0]	n/a	FR1	1	R1332M
372.16	0.001	372592	TRIAL	n/a	n/a	n/a	-999	3	[0, 0, 0]	n/a	FR1	1	R1332M
372.161	12.365	372593	WAITING_START	n/a	n/a	n/a	-999	3	[0, 0, 0]	n/a	FR1	1	R1332M
384.526	0.0	384957	WAITING_END	n/a	n/a	n/a	-999	3	[0, 0, 0]	n/a	FR1	1	R1332M
384.526	10.429	384957	COUNTDOWN_START	n/a	n/a	n/a	-999	3	[0, 0, 0]	n/a	FR1	1	R1332M
394.955	0.001	395386	COUNTDOWN_END	n/a	n/a	n/a	-999	3	[0, 0, 0]	n/a	FR1	1	R1332M
394.956	1.072	395387	ORIENT_START	n/a	n/a	n/a	-999	3	[0, 0, 0]	n/a	FR1	1	R1332M
396.028	0.0	396459	ORIENT_END	n/a	n/a	n/a	-999	3	[0, 0, 0]	n/a	FR1	1	R1332M
396.028	1.042	396459	ENCODING_START	n/a	n/a	n/a	-999	3	[0, 0, 0]	n/a	FR1	1	R1332M
397.07	1.625	397501	WORD	n/a	n/a	TRAY	1	3	[0, 0, 0]	n/a	FR1	1	R1332M
398.695	0.893	399126	WORD_OFF	n/a	n/a	TRAY	1	3	[0, 0, 0]	n/a	FR1	1	R1332M
399.588	1.623	400019	WORD	n/a	n/a	TOY	2	3	[0, 0, 0]	n/a	FR1	1	R1332M
401.211	0.832	401642	WORD_OFF	n/a	n/a	TOY	2	3	[0, 0, 0]	n/a	FR1	1	R1332M
402.043	1.637	402474	WORD	n/a	n/a	PEACH	3	3	[0, 0, 0]	n/a	FR1	1	R1332M
403.68	1.041	404110	WORD_OFF	n/a	n/a	PEACH	3	3	[0, 0, 0]	n/a	FR1	1	R1332M
404.721	1.626	405151	WORD	n/a	n/a	MOUSE	4	3	[0, 0, 0]	n/a	FR1	1	R1332M
406.347	0.925	406777	WORD_OFF	n/a	n/a	MOUSE	4	3	[0, 0, 0]	n/a	FR1	1	R1332M
407.272	1.625	407702	WORD	n/a	n/a	RAT	5	3	[0, 0, 0]	n/a	FR1	1	R1332M
408.897	1.029	409327	WORD_OFF	n/a	n/a	RAT	5	3	[0, 0, 0]	n/a	FR1	1	R1332M
409.926	1.622	410356	WORD	n/a	n/a	HOSE	6	3	[0, 0, 0]	n/a	FR1	1	R1332M
411.548	1.004	411978	WORD_OFF	n/a	n/a	HOSE	6	3	[0, 0, 0]	n/a	FR1	1	R1332M
412.552	1.629	412982	WORD	n/a	n/a	SHIELD	7	3	[0, 0, 0]	n/a	FR1	1	R1332M
414.181	1.084	414611	WORD_OFF	n/a	n/a	SHIELD	7	3	[0, 0, 0]	n/a	FR1	1	R1332M
415.265	1.634	415695	WORD	n/a	n/a	BRICK	8	3	[0, 0, 0]	n/a	FR1	1	R1332M
416.899	0.855	417329	WORD_OFF	n/a	n/a	BRICK	8	3	[0, 0, 0]	n/a	FR1	1	R1332M
417.754	1.629	418184	WORD	n/a	n/a	ROSE	9	3	[0, 0, 0]	n/a	FR1	1	R1332M
419.383	1.148	419813	WORD_OFF	n/a	n/a	ROSE	9	3	[0, 0, 0]	n/a	FR1	1	R1332M
420.531	1.635	420961	WORD	n/a	n/a	PARK	10	3	[0, 0, 0]	n/a	FR1	1	R1332M
422.166	0.845	422595	WORD_OFF	n/a	n/a	PARK	10	3	[0, 0, 0]	n/a	FR1	1	R1332M
423.011	1.623	423440	WORD	n/a	n/a	STRING	11	3	[0, 0, 0]	n/a	FR1	1	R1332M
424.634	1.15	425063	WORD_OFF	n/a	n/a	STRING	11	3	[0, 0, 0]	n/a	FR1	1	R1332M
425.784	1.633	426213	WORD	n/a	n/a	BOOK	12	3	[0, 0, 0]	n/a	FR1	1	R1332M
427.417	0.001	427846	WORD_OFF	n/a	n/a	BOOK	12	3	[0, 0, 0]	n/a	FR1	1	R1332M
427.418	0.0	427847	DISTRACT_START	n/a	n/a	n/a	-999	3	[0, 0, 0]	n/a	FR1	1	R1332M
427.418	0.0	427847	ENCODING_END	n/a	n/a	n/a	-999	3	[0, 0, 0]	n/a	FR1	1	R1332M
427.418	0.016	427847	START	n/a	n/a	n/a	-999	3	[-999, -999, -999]	n/a	FR1	1	R1332M
427.434	2.034	427863	PROB	2.034	n/a	n/a	-999	3	[1, 2, 9]	12	FR1	1	R1332M
429.468	1.983	429897	PROB	1.983	n/a	n/a	-999	3	[7, 1, 1]	9	FR1	1	R1332M
431.451	2.884	431880	PROB	2.884	n/a	n/a	-999	3	[7, 1, 9]	17	FR1	1	R1332M
434.335	2.717	434764	PROB	2.717	n/a	n/a	-999	3	[2, 1, 3]	6	FR1	1	R1332M
437.052	2.318	437481	PROB	2.318	n/a	n/a	-999	3	[4, 7, 5]	16	FR1	1	R1332M
439.37	2.3	439799	PROB	2.3	n/a	n/a	-999	3	[1, 3, 5]	9	FR1	1	R1332M
441.67	1.834	442098	PROB	1.834	n/a	n/a	-999	3	[8, 2, 6]	16	FR1	1	R1332M
443.504	2.917	443932	PROB	2.917	n/a	n/a	-999	3	[4, 5, 2]	11	FR1	1	R1332M
446.421	1.573	446849	PROB	1.573	n/a	n/a	-999	3	[3, 1, 7]	11	FR1	1	R1332M
447.994	0.011	448422	STOP	n/a	n/a	n/a	-999	3	[-999, -999, -999]	n/a	FR1	1	R1332M
448.005	0.677	448433	DISTRACT_END	n/a	n/a	n/a	-999	3	[0, 0, 0]	n/a	FR1	1	R1332M
448.682	1.59	449110	RETRIEVAL_ORIENT_START	n/a	n/a	n/a	-999	3	[0, 0, 0]	n/a	FR1	1	R1332M
450.272	0.0	450700	RETRIEVAL_ORIENT_END	n/a	n/a	n/a	-999	3	[0, 0, 0]	n/a	FR1	1	R1332M
450.272	1.045	450700	REC_START	n/a	n/a	n/a	-999	3	[0, 0, 0]	n/a	FR1	1	R1332M
451.317	2.181	451745	REC_WORD	2.181	n/a	TRAY	1	3	[0, 0, 0]	n/a	FR1	1	R1332M
453.498	2.001	453926	REC_WORD	2.001	n/a	PARK	10	3	[0, 0, 0]	n/a	FR1	1	R1332M
455.499	2.513	455927	REC_WORD	2.513	n/a	HOSE	6	3	[0, 0, 0]	n/a	FR1	1	R1332M
458.012	2.229	458440	REC_WORD	2.229	n/a	SHIELD	7	3	[0, 0, 0]	n/a	FR1	1	R1332M
460.241	7.242	460669	REC_WORD	7.242	n/a	BRICK	8	3	[0, 0, 0]	n/a	FR1	1	R1332M
467.483	10.707	467910	REC_WORD	10.707	n/a	ROSE	9	3	[0, 0, 0]	n/a	FR1	1	R1332M
478.19	2.092	478617	REC_WORD	2.092	n/a	SOCK	-999	3	[0, 0, 0]	n/a	FR1	1	R1332M
480.282	0.001	480708	REC_END	n/a	n/a	n/a	-999	3	[0, 0, 0]	n/a	FR1	1	R1332M
480.283	0.014	480709	TRIAL_END	n/a	n/a	n/a	-999	3	[0, 0, 0]	n/a	FR1	1	R1332M
480.297	0.0	480723	TRIAL_START	n/a	n/a	n/a	-999	4	[0, 0, 0]	n/a	FR1	1	R1332M
480.297	0.0	480723	TRIAL	n/a	n/a	n/a	-999	4	[0, 0, 0]	n/a	FR1	1	R1332M
480.297	4.415	480723	WAITING_START	n/a	n/a	n/a	-999	4	[0, 0, 0]	n/a	FR1	1	R1332M
484.712	0.0	485138	COUNTDOWN_START	n/a	n/a	n/a	-999	4	[0, 0, 0]	n/a	FR1	1	R1332M
484.712	10.429	485138	WAITING_END	n/a	n/a	n/a	-999	4	[0, 0, 0]	n/a	FR1	1	R1332M
495.141	0.0	495567	COUNTDOWN_END	n/a	n/a	n/a	-999	4	[0, 0, 0]	n/a	FR1	1	R1332M
495.141	1.156	495567	ORIENT_START	n/a	n/a	n/a	-999	4	[0, 0, 0]	n/a	FR1	1	R1332M
496.297	0.001	496723	ORIENT_END	n/a	n/a	n/a	-999	4	[0, 0, 0]	n/a	FR1	1	R1332M
496.298	0.78	496724	ENCODING_START	n/a	n/a	n/a	-999	4	[0, 0, 0]	n/a	FR1	1	R1332M
497.078	1.62	497504	WORD	n/a	n/a	SHARK	1	4	[0, 0, 0]	n/a	FR1	1	R1332M
498.698	0.972	499124	WORD_OFF	n/a	n/a	SHARK	1	4	[0, 0, 0]	n/a	FR1	1	R1332M
499.67	1.628	500095	WORD	n/a	n/a	PRINCE	2	4	[0, 0, 0]	n/a	FR1	1	R1332M
501.298	0.784	501723	WORD_OFF	n/a	n/a	PRINCE	2	4	[0, 0, 0]	n/a	FR1	1	R1332M
502.082	1.634	502507	WORD	n/a	n/a	MILK	3	4	[0, 0, 0]	n/a	FR1	1	R1332M
503.716	1.074	504141	WORD_OFF	n/a	n/a	MILK	3	4	[0, 0, 0]	n/a	FR1	1	R1332M
504.79	1.626	505215	WORD	n/a	n/a	SOUP	4	4	[0, 0, 0]	n/a	FR1	1	R1332M
506.416	0.893	506841	WORD_OFF	n/a	n/a	SOUP	4	4	[0, 0, 0]	n/a	FR1	1	R1332M
507.309	1.624	507734	WORD	n/a	n/a	NET	5	4	[0, 0, 0]	n/a	FR1	1	R1332M
508.933	0.813	509358	WORD_OFF	n/a	n/a	NET	5	4	[0, 0, 0]	n/a	FR1	1	R1332M
509.746	1.621	510171	WORD	n/a	n/a	MOLE	6	4	[0, 0, 0]	n/a	FR1	1	R1332M
511.367	0.782	511792	WORD_OFF	n/a	n/a	MOLE	6	4	[0, 0, 0]	n/a	FR1	1	R1332M
512.149	1.618	512574	WORD	n/a	n/a	MUD	7	4	[0, 0, 0]	n/a	FR1	1	R1332M
513.767	1.085	514192	WORD_OFF	n/a	n/a	MUD	7	4	[0, 0, 0]	n/a	FR1	1	R1332M
514.852	1.632	515277	WORD	n/a	n/a	BEAR	8	4	[0, 0, 0]	n/a	FR1	1	R1332M
516.484	1.05	516909	WORD_OFF	n/a	n/a	BEAR	8	4	[0, 0, 0]	n/a	FR1	1	R1332M
517.534	1.633	517959	WORD	n/a	n/a	PLATE	9	4	[0, 0, 0]	n/a	FR1	1	R1332M
519.167	1.128	519591	WORD_OFF	n/a	n/a	PLATE	9	4	[0, 0, 0]	n/a	FR1	1	R1332M
520.295	1.624	520719	WORD	n/a	n/a	BED	10	4	[0, 0, 0]	n/a	FR1	1	R1332M
521.919	0.914	522343	WORD_OFF	n/a	n/a	BED	10	4	[0, 0, 0]	n/a	FR1	1	R1332M
522.833	1.637	523257	WORD	n/a	n/a	BLUSH	11	4	[0, 0, 0]	n/a	FR1	1	R1332M
524.47	1.105	524894	WORD_OFF	n/a	n/a	BLUSH	11	4	[0, 0, 0]	n/a	FR1	1	R1332M
525.575	1.627	525999	WORD	n/a	n/a	STORM	12	4	[0, 0, 0]	n/a	FR1	1	R1332M
527.202	0.001	527626	WORD_OFF	n/a	n/a	STORM	12	4	[0, 0, 0]	n/a	FR1	1	R1332M
527.203	0.0	527627	DISTRACT_START	n/a	n/a	n/a	-999	4	[0, 0, 0]	n/a	FR1	1	R1332M
527.203	0.0	527627	ENCODING_END	n/a	n/a	n/a	-999	4	[0, 0, 0]	n/a	FR1	1	R1332M
527.203	0.016	527627	START	n/a	n/a	n/a	-999	4	[-999, -999, -999]	n/a	FR1	1	R1332M
527.219	2.385	527643	PROB	2.385	n/a	n/a	-999	4	[9, 3, 1]	14	FR1	1	R1332M
529.604	2.482	530028	PROB	2.482	n/a	n/a	-999	4	[6, 6, 9]	21	FR1	1	R1332M
532.086	2.984	532510	PROB	2.984	n/a	n/a	-999	4	[2, 6, 4]	12	FR1	1	R1332M
535.07	2.184	535494	PROB	2.184	n/a	n/a	-999	4	[2, 2, 1]	5	FR1	1	R1332M
537.254	2.202	537678	PROB	2.202	n/a	n/a	-999	4	[8, 9, 2]	19	FR1	1	R1332M
539.456	3.284	539879	PROB	3.284	n/a	n/a	-999	4	[3, 4, 4]	11	FR1	1	R1332M
542.74	2.883	543163	PROB	2.883	n/a	n/a	-999	4	[1, 5, 8]	14	FR1	1	R1332M
545.623	2.955	546046	PROB	2.955	n/a	n/a	-999	4	[5, 9, 5]	19	FR1	1	R1332M
548.578	0.013	549001	STOP	n/a	n/a	n/a	-999	4	[-999, -999, -999]	n/a	FR1	1	R1332M
548.591	0.548	549014	DISTRACT_END	n/a	n/a	n/a	-999	4	[0, 0, 0]	n/a	FR1	1	R1332M
549.139	1.652	549562	RETRIEVAL_ORIENT_START	n/a	n/a	n/a	-999	4	[0, 0, 0]	n/a	FR1	1	R1332M
550.791	0.001	551214	RETRIEVAL_ORIENT_END	n/a	n/a	n/a	-999	4	[0, 0, 0]	n/a	FR1	1	R1332M
550.792	1.543	551215	REC_START	n/a	n/a	n/a	-999	4	[0, 0, 0]	n/a	FR1	1	R1332M
552.335	2.311	552758	REC_WORD	2.311	n/a	SHARK	1	4	[0, 0, 0]	n/a	FR1	1	R1332M
554.646	1.434	555069	REC_WORD	1.434	n/a	NET	5	4	[0, 0, 0]	n/a	FR1	1	R1332M
556.08	2.888	556503	REC_WORD	2.888	n/a	BLUSH	11	4	[0, 0, 0]	n/a	FR1	1	R1332M
558.968	6.87	559390	REC_WORD	6.87	n/a	STORM	12	4	[0, 0, 0]	n/a	FR1	1	R1332M
565.838	7.034	566260	REC_WORD	7.034	n/a	PLATE	9	4	[0, 0, 0]	n/a	FR1	1	R1332M
572.872	7.929	573294	REC_WORD_VV	7.929	n/a	<>	-999	4	[0, 0, 0]	n/a	FR1	1	R1332M
580.801	0.001	581222	REC_END	n/a	n/a	n/a	-999	4	[0, 0, 0]	n/a	FR1	1	R1332M
580.802	0.015	581223	TRIAL_END	n/a	n/a	n/a	-999	4	[0, 0, 0]	n/a	FR1	1	R1332M
580.817	0.0	581238	TRIAL_START	n/a	n/a	n/a	-999	5	[0, 0, 0]	n/a	FR1	1	R1332M
580.817	0.001	581238	TRIAL	n/a	n/a	n/a	-999	5	[0, 0, 0]	n/a	FR1	1	R1332M
580.818	17.415	581239	WAITING_START	n/a	n/a	n/a	-999	5	[0, 0, 0]	n/a	FR1	1	R1332M
598.233	0.0	598653	WAITING_END	n/a	n/a	n/a	-999	5	[0, 0, 0]	n/a	FR1	1	R1332M
598.233	10.429	598653	COUNTDOWN_START	n/a	n/a	n/a	-999	5	[0, 0, 0]	n/a	FR1	1	R1332M
608.662	0.0	609082	ORIENT_START	n/a	n/a	n/a	-999	5	[0, 0, 0]	n/a	FR1	1	R1332M
608.662	1.091	609082	COUNTDOWN_END	n/a	n/a	n/a	-999	5	[0, 0, 0]	n/a	FR1	1	R1332M
609.753	0.0	610173	ORIENT_END	n/a	n/a	n/a	-999	5	[0, 0, 0]	n/a	FR1	1	R1332M
609.753	0.901	610173	ENCODING_START	n/a	n/a	n/a	-999	5	[0, 0, 0]	n/a	FR1	1	R1332M
610.654	1.633	611074	WORD	n/a	n/a	CHALK	1	5	[0, 0, 0]	n/a	FR1	1	R1332M
612.287	1.132	612707	WORD_OFF	n/a	n/a	CHALK	1	5	[0, 0, 0]	n/a	FR1	1	R1332M
613.419	1.635	613839	WORD	n/a	n/a	VASE	2	5	[0, 0, 0]	n/a	FR1	1	R1332M
615.054	0.887	615474	WORD_OFF	n/a	n/a	VASE	2	5	[0, 0, 0]	n/a	FR1	1	R1332M
615.941	1.63	616360	WORD	n/a	n/a	PEN	3	5	[0, 0, 0]	n/a	FR1	1	R1332M
617.571	1.042	617990	WORD_OFF	n/a	n/a	PEN	3	5	[0, 0, 0]	n/a	FR1	1	R1332M
618.613	1.624	619032	WORD	n/a	n/a	FACE	4	5	[0, 0, 0]	n/a	FR1	1	R1332M
620.237	0.793	620656	WORD_OFF	n/a	n/a	FACE	4	5	[0, 0, 0]	n/a	FR1	1	R1332M
621.03	1.625	621449	WORD	n/a	n/a	SEED	5	5	[0, 0, 0]	n/a	FR1	1	R1332M
622.655	0.995	623074	WORD_OFF	n/a	n/a	SEED	5	5	[0, 0, 0]	n/a	FR1	1	R1332M
623.65	1.622	624069	WORD	n/a	n/a	FOX	6	5	[0, 0, 0]	n/a	FR1	1	R1332M
625.272	0.84	625691	WORD_OFF	n/a	n/a	FOX	6	5	[0, 0, 0]	n/a	FR1	1	R1332M
626.112	1.627	626531	WORD	n/a	n/a	MOOSE	7	5	[0, 0, 0]	n/a	FR1	1	R1332M
627.739	1.137	628158	WORD_OFF	n/a	n/a	MOOSE	7	5	[0, 0, 0]	n/a	FR1	1	R1332M
628.876	1.631	629295	WORD	n/a	n/a	STOOL	8	5	[0, 0, 0]	n/a	FR1	1	R1332M
630.507	1.07	630926	WORD_OFF	n/a	n/a	STOOL	8	5	[0, 0, 0]	n/a	FR1	1	R1332M
631.577	1.629	631996	WORD	n/a	n/a	SKI	9	5	[0, 0, 0]	n/a	FR1	1	R1332M
633.206	1.123	633625	WORD_OFF	n/a	n/a	SKI	9	5	[0, 0, 0]	n/a	FR1	1	R1332M
634.329	1.629	634748	WORD	n/a	n/a	SNAIL	10	5	[0, 0, 0]	n/a	FR1	1	R1332M
635.958	0.864	636376	WORD_OFF	n/a	n/a	SNAIL	10	5	[0, 0, 0]	n/a	FR1	1	R1332M
636.822	1.636	637240	WORD	n/a	n/a	VEST	11	5	[0, 0, 0]	n/a	FR1	1	R1332M
638.458	0.935	638876	WORD_OFF	n/a	n/a	VEST	11	5	[0, 0, 0]	n/a	FR1	1	R1332M
639.393	1.632	639811	WORD	n/a	n/a	BOARD	12	5	[0, 0, 0]	n/a	FR1	1	R1332M
641.025	0.001	641443	WORD_OFF	n/a	n/a	BOARD	12	5	[0, 0, 0]	n/a	FR1	1	R1332M
641.026	0.0	641444	DISTRACT_START	n/a	n/a	n/a	-999	5	[0, 0, 0]	n/a	FR1	1	R1332M
641.026	0.0	641444	ENCODING_END	n/a	n/a	n/a	-999	5	[0, 0, 0]	n/a	FR1	1	R1332M
641.026	0.016	641444	START	n/a	n/a	n/a	-999	5	[-999, -999, -999]	n/a	FR1	1	R1332M
641.042	2.75	641460	PROB	2.75	n/a	n/a	-999	5	[2, 8, 7]	17	FR1	1	R1332M
643.792	2.034	644210	PROB	2.034	n/a	n/a	-999	5	[2, 9, 7]	18	FR1	1	R1332M
645.826	2.634	646244	PROB	2.634	n/a	n/a	-999	5	[2, 4, 4]	10	FR1	1	R1332M
648.46	2.167	648878	PROB	2.167	n/a	n/a	-999	5	[5, 7, 9]	21	FR1	1	R1332M
650.627	3.701	651045	PROB	3.701	n/a	n/a	-999	5	[6, 3, 9]	18	FR1	1	R1332M
654.328	1.967	654746	PROB	1.967	n/a	n/a	-999	5	[5, 5, 7]	17	FR1	1	R1332M
656.295	1.634	656712	PROB	1.634	n/a	n/a	-999	5	[6, 6, 2]	14	FR1	1	R1332M
657.929	2.266	658346	PROB	2.266	n/a	n/a	-999	5	[2, 7, 9]	18	FR1	1	R1332M
660.195	2.199	660612	PROB	2.199	n/a	n/a	-999	5	[8, 8, 2]	16	FR1	1	R1332M
662.394	0.019	662811	STOP	n/a	n/a	n/a	-999	5	[-999, -999, -999]	n/a	FR1	1	R1332M
662.413	0.629	662830	DISTRACT_END	n/a	n/a	n/a	-999	5	[0, 0, 0]	n/a	FR1	1	R1332M
663.042	1.588	663459	RETRIEVAL_ORIENT_START	n/a	n/a	n/a	-999	5	[0, 0, 0]	n/a	FR1	1	R1332M
664.63	0.0	665047	RETRIEVAL_ORIENT_END	n/a	n/a	n/a	-999	5	[0, 0, 0]	n/a	FR1	1	R1332M
664.63	1.081	665047	REC_START	n/a	n/a	n/a	-999	5	[0, 0, 0]	n/a	FR1	1	R1332M
665.711	1.823	666128	REC_WORD	1.823	n/a	FOX	6	5	[0, 0, 0]	n/a	FR1	1	R1332M
667.534	4.302	667951	REC_WORD	4.302	n/a	FACE	4	5	[0, 0, 0]	n/a	FR1	1	R1332M
671.836	4.133	672253	REC_WORD	4.133	n/a	BEAR	-999	5	[0, 0, 0]	n/a	FR1	1	R1332M
675.969	1.239	676385	REC_WORD	1.239	n/a	STOOL	8	5	[0, 0, 0]	n/a	FR1	1	R1332M
677.208	6.709	677624	REC_WORD	6.709	n/a	SKI	9	5	[0, 0, 0]	n/a	FR1	1	R1332M
683.917	1.013	684333	REC_WORD	1.013	n/a	PEN	3	5	[0, 0, 0]	n/a	FR1	1	R1332M
684.93	9.71	685346	REC_WORD	9.71	n/a	CHALK	1	5	[0, 0, 0]	n/a	FR1	1	R1332M
694.64	0.0	695055	REC_END	n/a	n/a	n/a	-999	5	[0, 0, 0]	n/a	FR1	1	R1332M
694.64	0.017	695055	TRIAL_END	n/a	n/a	n/a	-999	5	[0, 0, 0]	n/a	FR1	1	R1332M
694.657	0.0	695072	TRIAL_START	n/a	n/a	n/a	-999	6	[0, 0, 0]	n/a	FR1	1	R1332M
694.657	0.0	695072	TRIAL	n/a	n/a	n/a	-999	6	[0, 0, 0]	n/a	FR1	1	R1332M
694.657	4.83	695072	WAITING_START	n/a	n/a	n/a	-999	6	[0, 0, 0]	n/a	FR1	1	R1332M
699.487	0.0	699902	WAITING_END	n/a	n/a	n/a	-999	6	[0, 0, 0]	n/a	FR1	1	R1332M
699.487	10.428	699902	COUNTDOWN_START	n/a	n/a	n/a	-999	6	[0, 0, 0]	n/a	FR1	1	R1332M
709.915	0.001	710330	COUNTDOWN_END	n/a	n/a	n/a	-999	6	[0, 0, 0]	n/a	FR1	1	R1332M
709.916	1.172	710331	ORIENT_START	n/a	n/a	n/a	-999	6	[0, 0, 0]	n/a	FR1	1	R1332M
711.088	0.0	711503	ORIENT_END	n/a	n/a	n/a	-999	6	[0, 0, 0]	n/a	FR1	1	R1332M
711.088	0.984	711503	ENCODING_START	n/a	n/a	n/a	-999	6	[0, 0, 0]	n/a	FR1	1	R1332M
712.072	1.634	712487	WORD	n/a	n/a	HAND	1	6	[0, 0, 0]	n/a	FR1	1	R1332M
713.706	1.078	714120	WORD_OFF	n/a	n/a	HAND	1	6	[0, 0, 0]	n/a	FR1	1	R1332M
714.784	1.623	715198	WORD	n/a	n/a	SEAT	2	6	[0, 0, 0]	n/a	FR1	1	R1332M
716.407	0.893	716821	WORD_OFF	n/a	n/a	SEAT	2	6	[0, 0, 0]	n/a	FR1	1	R1332M
717.3	1.624	717714	WORD	n/a	n/a	HOLE	3	6	[0, 0, 0]	n/a	FR1	1	R1332M
718.924	1.102	719338	WORD_OFF	n/a	n/a	HOLE	3	6	[0, 0, 0]	n/a	FR1	1	R1332M
720.026	1.632	720440	WORD	n/a	n/a	JUICE	4	6	[0, 0, 0]	n/a	FR1	1	R1332M
721.658	1.022	722072	WORD_OFF	n/a	n/a	JUICE	4	6	[0, 0, 0]	n/a	FR1	1	R1332M
722.68	1.628	723094	WORD	n/a	n/a	RUG	5	6	[0, 0, 0]	n/a	FR1	1	R1332M
724.308	1.085	724722	WORD_OFF	n/a	n/a	RUG	5	6	[0, 0, 0]	n/a	FR1	1	R1332M
725.393	1.632	725807	WORD	n/a	n/a	COUCH	6	6	[0, 0, 0]	n/a	FR1	1	R1332M
727.025	1.007	727439	WORD_OFF	n/a	n/a	COUCH	6	6	[0, 0, 0]	n/a	FR1	1	R1332M
728.032	1.627	728446	WORD	n/a	n/a	THUMB	7	6	[0, 0, 0]	n/a	FR1	1	R1332M
729.659	1.092	730073	WORD_OFF	n/a	n/a	THUMB	7	6	[0, 0, 0]	n/a	FR1	1	R1332M
730.751	1.626	731165	WORD	n/a	n/a	ROPE	8	6	[0, 0, 0]	n/a	FR1	1	R1332M
732.377	1.005	732790	WORD_OFF	n/a	n/a	ROPE	8	6	[0, 0, 0]	n/a	FR1	1	R1332M
733.382	1.628	733795	WORD	n/a	n/a	SNOW	9	6	[0, 0, 0]	n/a	FR1	1	R1332M
735.01	0.775	735423	WORD_OFF	n/a	n/a	SNOW	9	6	[0, 0, 0]	n/a	FR1	1	R1332M
735.785	1.626	736198	WORD	n/a	n/a	WING	10	6	[0, 0, 0]	n/a	FR1	1	R1332M
737.411	1.04	737824	WORD_OFF	n/a	n/a	WING	10	6	[0, 0, 0]	n/a	FR1	1	R1332M
738.451	1.626	738864	WORD	n/a	n/a	BEACH	11	6	[0, 0, 0]	n/a	FR1	1	R1332M
740.077	1.14	740490	WORD_OFF	n/a	n/a	BEACH	11	6	[0, 0, 0]	n/a	FR1	1	R1332M
741.217	1.628	741630	WORD	n/a	n/a	ELF	12	6	[0, 0, 0]	n/a	FR1	1	R1332M
742.845	0.001	743258	WORD_OFF	n/a	n/a	ELF	12	6	[0, 0, 0]	n/a	FR1	1	R1332M
742.846	0.0	743259	ENCODING_END	n/a	n/a	n/a	-999	6	[0, 0, 0]	n/a	FR1	1	R1332M
742.846	0.0	743259	DISTRACT_START	n/a	n/a	n/a	-999	6	[0, 0, 0]	n/a	FR1	1	R1332M
742.846	0.016	743259	START	n/a	n/a	n/a	-999	6	[-999, -999, -999]	n/a	FR1	1	R1332M
742.862	2.282	743275	PROB	2.282	n/a	n/a	-999	6	[5, 5, 4]	14	FR1	1	R1332M
745.144	2.001	745557	PROB	2.001	n/a	n/a	-999	6	[9, 9, 3]	21	FR1	1	R1332M
747.145	1.984	747558	PROB	1.984	n/a	n/a	-999	6	[7, 3, 8]	18	FR1	1	R1332M
749.129	2.868	749542	PROB	2.868	n/a	n/a	-999	6	[9, 7, 1]	17	FR1	1	R1332M
751.997	2.249	752409	PROB	2.249	n/a	n/a	-999	6	[5, 2, 6]	13	FR1	1	R1332M
754.246	1.901	754658	PROB	1.901	n/a	n/a	-999	6	[9, 4, 8]	21	FR1	1	R1332M
756.147	2.401	756559	PROB	2.401	n/a	n/a	-999	6	[5, 8, 6]	19	FR1	1	R1332M
758.548	3.117	758960	PROB	3.117	n/a	n/a	-999	6	[9, 7, 4]	20	FR1	1	R1332M
761.665	2.477	762077	PROB	2.477	n/a	n/a	-999	6	[6, 4, 8]	18	FR1	1	R1332M
764.142	0.006	764554	STOP	n/a	n/a	n/a	-999	6	[-999, -999, -999]	n/a	FR1	1	R1332M
764.148	0.643	764560	DISTRACT_END	n/a	n/a	n/a	-999	6	[0, 0, 0]	n/a	FR1	1	R1332M
764.791	1.692	765203	RETRIEVAL_ORIENT_START	n/a	n/a	n/a	-999	6	[0, 0, 0]	n/a	FR1	1	R1332M
766.483	0.0	766895	REC_START	n/a	n/a	n/a	-999	6	[0, 0, 0]	n/a	FR1	1	R1332M
766.483	0.428	766895	RETRIEVAL_ORIENT_END	n/a	n/a	n/a	-999	6	[0, 0, 0]	n/a	FR1	1	R1332M
766.911	1.617	767323	REC_WORD	1.617	n/a	HAND	1	6	[0, 0, 0]	n/a	FR1	1	R1332M
768.528	1.38	768940	REC_WORD	1.38	n/a	THUMB	7	6	[0, 0, 0]	n/a	FR1	1	R1332M
769.908	1.128	770320	REC_WORD	1.128	n/a	HOLE	3	6	[0, 0, 0]	n/a	FR1	1	R1332M
771.036	2.622	771447	REC_WORD	2.622	n/a	SEAT	2	6	[0, 0, 0]	n/a	FR1	1	R1332M
773.658	1.445	774069	REC_WORD	1.445	n/a	STOOL	-999	6	[0, 0, 0]	n/a	FR1	1	R1332M
775.103	2.545	775514	REC_WORD_VV	2.545	n/a	<>	-999	6	[0, 0, 0]	n/a	FR1	1	R1332M
777.648	4.347	778059	REC_WORD	4.347	n/a	BEACH	11	6	[0, 0, 0]	n/a	FR1	1	R1332M
781.995	14.498	782406	REC_WORD	14.498	n/a	SNOW	9	6	[0, 0, 0]	n/a	FR1	1	R1332M
796.493	0.0	796903	TRIAL_END	n/a	n/a	n/a	-999	6	[0, 0, 0]	n/a	FR1	1	R1332M
796.493	0.015	796903	REC_END	n/a	n/a	n/a	-999	6	[0, 0, 0]	n/a	FR1	1	R1332M
796.508	0.0	796918	TRIAL_START	n/a	n/a	n/a	-999	7	[0, 0, 0]	n/a	FR1	1	R1332M
796.508	0.0	796918	TRIAL	n/a	n/a	n/a	-999	7	[0, 0, 0]	n/a	FR1	1	R1332M
796.508	2.58	796918	WAITING_START	n/a	n/a	n/a	-999	7	[0, 0, 0]	n/a	FR1	1	R1332M
799.088	0.001	799498	WAITING_END	n/a	n/a	n/a	-999	7	[0, 0, 0]	n/a	FR1	1	R1332M
799.089	10.43	799499	COUNTDOWN_START	n/a	n/a	n/a	-999	7	[0, 0, 0]	n/a	FR1	1	R1332M
809.519	0.0	809929	COUNTDOWN_END	n/a	n/a	n/a	-999	7	[0, 0, 0]	n/a	FR1	1	R1332M
809.519	1.056	809929	ORIENT_START	n/a	n/a	n/a	-999	7	[0, 0, 0]	n/a	FR1	1	R1332M
810.575	0.0	810984	ENCODING_START	n/a	n/a	n/a	-999	7	[0, 0, 0]	n/a	FR1	1	R1332M
810.575	0.959	810984	ORIENT_END	n/a	n/a	n/a	-999	7	[0, 0, 0]	n/a	FR1	1	R1332M
811.534	1.624	811943	WORD	n/a	n/a	BRIDGE	1	7	[0, 0, 0]	n/a	FR1	1	R1332M
813.158	1.083	813567	WORD_OFF	n/a	n/a	BRIDGE	1	7	[0, 0, 0]	n/a	FR1	1	R1332M
814.241	1.635	814650	WORD	n/a	n/a	HAWK	2	7	[0, 0, 0]	n/a	FR1	1	R1332M
815.876	0.866	816285	WORD_OFF	n/a	n/a	HAWK	2	7	[0, 0, 0]	n/a	FR1	1	R1332M
816.742	1.634	817151	WORD	n/a	n/a	STORE	3	7	[0, 0, 0]	n/a	FR1	1	R1332M
818.376	1.06	818785	WORD_OFF	n/a	n/a	STORE	3	7	[0, 0, 0]	n/a	FR1	1	R1332M
819.436	1.623	819845	WORD	n/a	n/a	SPOON	4	7	[0, 0, 0]	n/a	FR1	1	R1332M
821.059	0.927	821468	WORD_OFF	n/a	n/a	SPOON	4	7	[0, 0, 0]	n/a	FR1	1	R1332M
821.986	1.625	822395	WORD	n/a	n/a	GATE	5	7	[0, 0, 0]	n/a	FR1	1	R1332M
823.611	1.041	824020	WORD_OFF	n/a	n/a	GATE	5	7	[0, 0, 0]	n/a	FR1	1	R1332M
824.652	1.626	825061	WORD	n/a	n/a	LOCK	6	7	[0, 0, 0]	n/a	FR1	1	R1332M
826.278	1.088	826687	WORD_OFF	n/a	n/a	LOCK	6	7	[0, 0, 0]	n/a	FR1	1	R1332M
827.366	1.629	827775	WORD	n/a	n/a	ROCK	7	7	[0, 0, 0]	n/a	FR1	1	R1332M
828.995	1.061	829404	WORD_OFF	n/a	n/a	ROCK	7	7	[0, 0, 0]	n/a	FR1	1	R1332M
830.056	1.606	830464	WORD	n/a	n/a	SNAKE	8	7	[0, 0, 0]	n/a	FR1	1	R1332M
831.662	1.006	832070	WORD_OFF	n/a	n/a	SNAKE	8	7	[0, 0, 0]	n/a	FR1	1	R1332M
832.668	1.628	833076	WORD	n/a	n/a	HILL	9	7	[0, 0, 0]	n/a	FR1	1	R1332M
834.296	0.754	834704	WORD_OFF	n/a	n/a	HILL	9	7	[0, 0, 0]	n/a	FR1	1	R1332M
835.05	1.63	835458	WORD	n/a	n/a	DOG	10	7	[0, 0, 0]	n/a	FR1	1	R1332M
836.68	0.773	837088	WORD_OFF	n/a	n/a	DOG	10	7	[0, 0, 0]	n/a	FR1	1	R1332M
837.453	1.626	837861	WORD	n/a	n/a	BALL	11	7	[0, 0, 0]	n/a	FR1	1	R1332M
839.079	0.872	839487	WORD_OFF	n/a	n/a	BALL	11	7	[0, 0, 0]	n/a	FR1	1	R1332M
839.951	1.63	840359	WORD	n/a	n/a	BREAD	12	7	[0, 0, 0]	n/a	FR1	1	R1332M
841.581	0.0	841989	WORD_OFF	n/a	n/a	BREAD	12	7	[0, 0, 0]	n/a	FR1	1	R1332M
841.581	0.0	841989	ENCODING_END	n/a	n/a	n/a	-999	7	[0, 0, 0]	n/a	FR1	1	R1332M
841.581	0.001	841989	DISTRACT_START	n/a	n/a	n/a	-999	7	[0, 0, 0]	n/a	FR1	1	R1332M
841.582	0.015	841990	START	n/a	n/a	n/a	-999	7	[-999, -999, -999]	n/a	FR1	1	R1332M
841.597	4.135	842005	PROB	4.135	n/a	n/a	-999	7	[8, 4, 7]	20	FR1	1	R1332M
845.732	2.217	846140	PROB	2.217	n/a	n/a	-999	7	[1, 6, 5]	12	FR1	1	R1332M
847.949	2.067	848357	PROB	2.067	n/a	n/a	-999	7	[4, 1, 5]	10	FR1	1	R1332M
850.016	2.3	850423	PROB	2.3	n/a	n/a	-999	7	[9, 6, 9]	24	FR1	1	R1332M
852.316	2.167	852723	PROB	2.167	n/a	n/a	-999	7	[1, 7, 5]	13	FR1	1	R1332M
854.483	2.034	854890	PROB	2.034	n/a	n/a	-999	7	[9, 2, 4]	15	FR1	1	R1332M
856.517	1.699	856924	PROB	1.699	n/a	n/a	-999	7	[5, 6, 4]	15	FR1	1	R1332M
858.216	2.219	858623	PROB	2.219	n/a	n/a	-999	7	[9, 8, 2]	19	FR1	1	R1332M
860.435	1.856	860842	PROB	1.856	n/a	n/a	-999	7	[1, 2, 6]	9	FR1	1	R1332M
862.291	0.011	862698	STOP	n/a	n/a	n/a	-999	7	[-999, -999, -999]	n/a	FR1	1	R1332M
862.302	0.536	862709	DISTRACT_END	n/a	n/a	n/a	-999	7	[0, 0, 0]	n/a	FR1	1	R1332M
862.838	1.647	863245	RETRIEVAL_ORIENT_START	n/a	n/a	n/a	-999	7	[0, 0, 0]	n/a	FR1	1	R1332M
864.485	0.001	864892	RETRIEVAL_ORIENT_END	n/a	n/a	n/a	-999	7	[0, 0, 0]	n/a	FR1	1	R1332M
864.486	1.567	864893	REC_START	n/a	n/a	n/a	-999	7	[0, 0, 0]	n/a	FR1	1	R1332M
866.053	2.927	866460	REC_WORD	2.927	n/a	GATE	5	7	[0, 0, 0]	n/a	FR1	1	R1332M
868.98	1.005	869386	REC_WORD	1.005	n/a	LOCK	6	7	[0, 0, 0]	n/a	FR1	1	R1332M
869.985	2.172	870391	REC_WORD	2.172	n/a	ROCK	7	7	[0, 0, 0]	n/a	FR1	1	R1332M
872.157	2.449	872563	REC_WORD	2.449	n/a	SNAKE	8	7	[0, 0, 0]	n/a	FR1	1	R1332M
874.606	3.237	875012	REC_WORD	3.237	n/a	HAWK	2	7	[0, 0, 0]	n/a	FR1	1	R1332M
877.843	16.653	878249	REC_WORD	16.653	n/a	BRIDGE	1	7	[0, 0, 0]	n/a	FR1	1	R1332M
894.496	0.0	894901	TRIAL_END	n/a	n/a	n/a	-999	7	[0, 0, 0]	n/a	FR1	1	R1332M
894.496	0.016	894901	REC_END	n/a	n/a	n/a	-999	7	[0, 0, 0]	n/a	FR1	1	R1332M
894.512	0.0	894917	TRIAL_START	n/a	n/a	n/a	-999	8	[0, 0, 0]	n/a	FR1	1	R1332M
894.512	0.0	894917	TRIAL	n/a	n/a	n/a	-999	8	[0, 0, 0]	n/a	FR1	1	R1332M
894.512	4.08	894917	WAITING_START	n/a	n/a	n/a	-999	8	[0, 0, 0]	n/a	FR1	1	R1332M
898.592	0.0	898997	WAITING_END	n/a	n/a	n/a	-999	8	[0, 0, 0]	n/a	FR1	1	R1332M
898.592	10.429	898997	COUNTDOWN_START	n/a	n/a	n/a	-999	8	[0, 0, 0]	n/a	FR1	1	R1332M
909.021	0.0	909425	COUNTDOWN_END	n/a	n/a	n/a	-999	8	[0, 0, 0]	n/a	FR1	1	R1332M
909.021	1.206	909425	ORIENT_START	n/a	n/a	n/a	-999	8	[0, 0, 0]	n/a	FR1	1	R1332M
910.227	0.0	910631	ENCODING_START	n/a	n/a	n/a	-999	8	[0, 0, 0]	n/a	FR1	1	R1332M
910.227	0.768	910631	ORIENT_END	n/a	n/a	n/a	-999	8	[0, 0, 0]	n/a	FR1	1	R1332M
910.995	1.633	911399	WORD	n/a	n/a	TEETH	1	8	[0, 0, 0]	n/a	FR1	1	R1332M
912.628	0.884	913032	WORD_OFF	n/a	n/a	TEETH	1	8	[0, 0, 0]	n/a	FR1	1	R1332M
913.512	1.632	913916	WORD	n/a	n/a	PET	2	8	[0, 0, 0]	n/a	FR1	1	R1332M
915.144	0.84	915548	WORD_OFF	n/a	n/a	PET	2	8	[0, 0, 0]	n/a	FR1	1	R1332M
915.984	1.629	916388	WORD	n/a	n/a	CHEEK	3	8	[0, 0, 0]	n/a	FR1	1	R1332M
917.613	0.795	918017	WORD_OFF	n/a	n/a	CHEEK	3	8	[0, 0, 0]	n/a	FR1	1	R1332M
918.408	1.621	918812	WORD	n/a	n/a	FROG	4	8	[0, 0, 0]	n/a	FR1	1	R1332M
920.029	1.076	920433	WORD_OFF	n/a	n/a	FROG	4	8	[0, 0, 0]	n/a	FR1	1	R1332M
921.105	1.625	921509	WORD	n/a	n/a	PIN	5	8	[0, 0, 0]	n/a	FR1	1	R1332M
922.73	1.01	923134	WORD_OFF	n/a	n/a	PIN	5	8	[0, 0, 0]	n/a	FR1	1	R1332M
923.74	1.624	924144	WORD	n/a	n/a	AXE	6	8	[0, 0, 0]	n/a	FR1	1	R1332M
925.364	0.949	925768	WORD_OFF	n/a	n/a	AXE	6	8	[0, 0, 0]	n/a	FR1	1	R1332M
926.313	1.635	926716	WORD	n/a	n/a	SKUNK	7	8	[0, 0, 0]	n/a	FR1	1	R1332M
927.948	1.006	928351	WORD_OFF	n/a	n/a	SKUNK	7	8	[0, 0, 0]	n/a	FR1	1	R1332M
928.954	1.628	929357	WORD	n/a	n/a	TOAD	8	8	[0, 0, 0]	n/a	FR1	1	R1332M
930.582	0.864	930985	WORD_OFF	n/a	n/a	TOAD	8	8	[0, 0, 0]	n/a	FR1	1	R1332M
931.446	1.635	931849	WORD	n/a	n/a	RIB	9	8	[0, 0, 0]	n/a	FR1	1	R1332M
933.081	1.007	933484	WORD_OFF	n/a	n/a	RIB	9	8	[0, 0, 0]	n/a	FR1	1	R1332M
934.088	1.628	934491	WORD	n/a	n/a	TIE	10	8	[0, 0, 0]	n/a	FR1	1	R1332M
935.716	0.829	936119	WORD_OFF	n/a	n/a	TIE	10	8	[0, 0, 0]	n/a	FR1	1	R1332M
936.545	1.637	936948	WORD	n/a	n/a	STONE	11	8	[0, 0, 0]	n/a	FR1	1	R1332M
938.182	1.138	938585	WORD_OFF	n/a	n/a	STONE	11	8	[0, 0, 0]	n/a	FR1	1	R1332M
939.32	1.63	939723	WORD	n/a	n/a	CORD	12	8	[0, 0, 0]	n/a	FR1	1	R1332M
940.95	0.001	941353	WORD_OFF	n/a	n/a	CORD	12	8	[0, 0, 0]	n/a	FR1	1	R1332M
940.951	0.0	941354	ENCODING_END	n/a	n/a	n/a	-999	8	[0, 0, 0]	n/a	FR1	1	R1332M
940.951	0.0	941354	DISTRACT_START	n/a	n/a	n/a	-999	8	[0, 0, 0]	n/a	FR1	1	R1332M
940.951	0.016	941354	START	n/a	n/a	n/a	-999	8	[-999, -999, -999]	n/a	FR1	1	R1332M
940.967	3.467	941370	PROB	3.467	n/a	n/a	-999	8	[3, 1, 6]	10	FR1	1	R1332M
944.434	1.666	944837	PROB	1.666	n/a	n/a	-999	8	[5, 5, 9]	19	FR1	1	R1332M
946.1	1.835	946502	PROB	1.835	n/a	n/a	-999	8	[3, 8, 7]	18	FR1	1	R1332M
947.935	2.484	948337	PROB	2.484	n/a	n/a	-999	8	[4, 1, 2]	7	FR1	1	R1332M
950.419	1.266	950821	PROB	1.266	n/a	n/a	-999	8	[3, 7, 1]	11	FR1	1	R1332M
951.685	2.483	952087	PROB	2.483	n/a	n/a	-999	8	[3, 5, 8]	16	FR1	1	R1332M
954.168	3.385	954570	PROB	3.385	n/a	n/a	-999	8	[3, 2, 9]	14	FR1	1	R1332M
957.553	3.43	957955	PROB	3.43	n/a	n/a	-999	8	[3, 2, 5]	10	FR1	1	R1332M
960.983	0.021	961385	STOP	n/a	n/a	n/a	-999	8	[-999, -999, -999]	n/a	FR1	1	R1332M
961.004	0.526	961406	DISTRACT_END	n/a	n/a	n/a	-999	8	[0, 0, 0]	n/a	FR1	1	R1332M
961.53	1.657	961932	RETRIEVAL_ORIENT_START	n/a	n/a	n/a	-999	8	[0, 0, 0]	n/a	FR1	1	R1332M
963.187	0.0	963589	REC_START	n/a	n/a	n/a	-999	8	[0, 0, 0]	n/a	FR1	1	R1332M
963.187	0.935	963589	RETRIEVAL_ORIENT_END	n/a	n/a	n/a	-999	8	[0, 0, 0]	n/a	FR1	1	R1332M
964.122	2.457	964524	REC_WORD	2.457	n/a	TEETH	1	8	[0, 0, 0]	n/a	FR1	1	R1332M
966.579	1.078	966980	REC_WORD	1.078	n/a	CHEEK	3	8	[0, 0, 0]	n/a	FR1	1	R1332M
967.657	0.79	968058	REC_WORD	0.79	n/a	RIB	9	8	[0, 0, 0]	n/a	FR1	1	R1332M
968.447	4.073	968848	REC_WORD	4.073	n/a	TIE	10	8	[0, 0, 0]	n/a	FR1	1	R1332M
972.52	7.154	972921	REC_WORD	7.154	n/a	BLOCK	-999	8	[0, 0, 0]	n/a	FR1	1	R1332M
979.674	1.57	980075	REC_WORD	1.57	n/a	FROG	4	8	[0, 0, 0]	n/a	FR1	1	R1332M
981.244	11.954	981645	REC_WORD	11.954	n/a	TOAD	8	8	[0, 0, 0]	n/a	FR1	1	R1332M
993.198	0.001	993598	REC_END	n/a	n/a	n/a	-999	8	[0, 0, 0]	n/a	FR1	1	R1332M
993.199	0.015	993599	TRIAL_END	n/a	n/a	n/a	-999	8	[0, 0, 0]	n/a	FR1	1	R1332M
993.214	0.0	993614	TRIAL_START	n/a	n/a	n/a	-999	9	[0, 0, 0]	n/a	FR1	1	R1332M
993.214	0.001	993614	TRIAL	n/a	n/a	n/a	-999	9	[0, 0, 0]	n/a	FR1	1	R1332M
993.215	5.012	993615	WAITING_START	n/a	n/a	n/a	-999	9	[0, 0, 0]	n/a	FR1	1	R1332M
998.227	0.001	998627	WAITING_END	n/a	n/a	n/a	-999	9	[0, 0, 0]	n/a	FR1	1	R1332M
998.228	10.429	998628	COUNTDOWN_START	n/a	n/a	n/a	-999	9	[0, 0, 0]	n/a	FR1	1	R1332M
1008.657	0.001	1009056	COUNTDOWN_END	n/a	n/a	n/a	-999	9	[0, 0, 0]	n/a	FR1	1	R1332M
1008.658	1.089	1009057	ORIENT_START	n/a	n/a	n/a	-999	9	[0, 0, 0]	n/a	FR1	1	R1332M
1009.747	0.0	1010146	ORIENT_END	n/a	n/a	n/a	-999	9	[0, 0, 0]	n/a	FR1	1	R1332M
1009.747	0.775	1010146	ENCODING_START	n/a	n/a	n/a	-999	9	[0, 0, 0]	n/a	FR1	1	R1332M
1010.522	1.624	1010921	WORD	n/a	n/a	SHOE	1	9	[0, 0, 0]	n/a	FR1	1	R1332M
1012.146	0.786	1012545	WORD_OFF	n/a	n/a	SHOE	1	9	[0, 0, 0]	n/a	FR1	1	R1332M
1012.932	1.632	1013331	WORD	n/a	n/a	MAP	2	9	[0, 0, 0]	n/a	FR1	1	R1332M
1014.564	0.862	1014963	WORD_OFF	n/a	n/a	MAP	2	9	[0, 0, 0]	n/a	FR1	1	R1332M
1015.426	1.622	1015825	WORD	n/a	n/a	DEER	3	9	[0, 0, 0]	n/a	FR1	1	R1332M
1017.048	0.898	1017447	WORD_OFF	n/a	n/a	DEER	3	9	[0, 0, 0]	n/a	FR1	1	R1332M
1017.946	1.636	1018345	WORD	n/a	n/a	PIG	4	9	[0, 0, 0]	n/a	FR1	1	R1332M
1019.582	0.906	1019981	WORD_OFF	n/a	n/a	PIG	4	9	[0, 0, 0]	n/a	FR1	1	R1332M
1020.488	1.627	1020887	WORD	n/a	n/a	LAND	5	9	[0, 0, 0]	n/a	FR1	1	R1332M
1022.115	0.922	1022514	WORD_OFF	n/a	n/a	LAND	5	9	[0, 0, 0]	n/a	FR1	1	R1332M
1023.037	1.63	1023436	WORD	n/a	n/a	TENT	6	9	[0, 0, 0]	n/a	FR1	1	R1332M
1024.667	0.751	1025065	WORD_OFF	n/a	n/a	TENT	6	9	[0, 0, 0]	n/a	FR1	1	R1332M
1025.418	1.632	1025816	WORD	n/a	n/a	FORK	7	9	[0, 0, 0]	n/a	FR1	1	R1332M
1027.05	0.941	1027448	WORD_OFF	n/a	n/a	FORK	7	9	[0, 0, 0]	n/a	FR1	1	R1332M
1027.991	1.626	1028389	WORD	n/a	n/a	DESK	8	9	[0, 0, 0]	n/a	FR1	1	R1332M
1029.617	1.084	1030015	WORD_OFF	n/a	n/a	DESK	8	9	[0, 0, 0]	n/a	FR1	1	R1332M
1030.701	1.634	1031099	WORD	n/a	n/a	OAK	9	9	[0, 0, 0]	n/a	FR1	1	R1332M
1032.335	1.085	1032733	WORD_OFF	n/a	n/a	OAK	9	9	[0, 0, 0]	n/a	FR1	1	R1332M
1033.42	1.632	1033818	WORD	n/a	n/a	ROOF	10	9	[0, 0, 0]	n/a	FR1	1	R1332M
1035.052	1.118	1035450	WORD_OFF	n/a	n/a	ROOF	10	9	[0, 0, 0]	n/a	FR1	1	R1332M
1036.17	1.616	1036568	WORD	n/a	n/a	BRUSH	11	9	[0, 0, 0]	n/a	FR1	1	R1332M
1037.786	0.914	1038184	WORD_OFF	n/a	n/a	BRUSH	11	9	[0, 0, 0]	n/a	FR1	1	R1332M
1038.7	1.636	1039098	WORD	n/a	n/a	ANT	12	9	[0, 0, 0]	n/a	FR1	1	R1332M
1040.336	0.001	1040734	WORD_OFF	n/a	n/a	ANT	12	9	[0, 0, 0]	n/a	FR1	1	R1332M
1040.337	0.0	1040735	ENCODING_END	n/a	n/a	n/a	-999	9	[0, 0, 0]	n/a	FR1	1	R1332M
1040.337	0.0	1040735	DISTRACT_START	n/a	n/a	n/a	-999	9	[0, 0, 0]	n/a	FR1	1	R1332M
1040.337	0.016	1040735	START	n/a	n/a	n/a	-999	9	[-999, -999, -999]	n/a	FR1	1	R1332M
1040.353	5.567	1040751	PROB	5.567	n/a	n/a	-999	9	[6, 9, 6]	21	FR1	1	R1332M
1045.92	2.316	1046317	PROB	2.316	n/a	n/a	-999	9	[9, 4, 6]	19	FR1	1	R1332M
1048.236	2.235	1048633	PROB	2.235	n/a	n/a	-999	9	[9, 6, 5]	20	FR1	1	R1332M
1050.471	2.017	1050868	PROB	2.017	n/a	n/a	-999	9	[8, 5, 8]	21	FR1	1	R1332M
1052.488	1.7	1052885	PROB	1.7	n/a	n/a	-999	9	[2, 1, 9]	12	FR1	1	R1332M
1054.188	2.718	1054585	PROB	2.718	n/a	n/a	-999	9	[6, 9, 5]	20	FR1	1	R1332M
1056.906	3.183	1057303	PROB	3.183	n/a	n/a	-999	9	[8, 9, 7]	24	FR1	1	R1332M
1060.089	1.672	1060486	PROB	1.672	n/a	n/a	-999	9	[2, 3, 5]	10	FR1	1	R1332M
1061.761	0.013	1062158	STOP	n/a	n/a	n/a	-999	9	[-999, -999, -999]	n/a	FR1	1	R1332M
1061.774	0.545	1062171	DISTRACT_END	n/a	n/a	n/a	-999	9	[0, 0, 0]	n/a	FR1	1	R1332M
1062.319	1.538	1062715	RETRIEVAL_ORIENT_START	n/a	n/a	n/a	-999	9	[0, 0, 0]	n/a	FR1	1	R1332M
1063.857	0.001	1064253	RETRIEVAL_ORIENT_END	n/a	n/a	n/a	-999	9	[0, 0, 0]	n/a	FR1	1	R1332M
1063.858	1.84	1064254	REC_START	n/a	n/a	n/a	-999	9	[0, 0, 0]	n/a	FR1	1	R1332M
1065.698	2.202	1066094	REC_WORD	2.202	n/a	LAND	5	9	[0, 0, 0]	n/a	FR1	1	R1332M
1067.9	1.086	1068296	REC_WORD	1.086	n/a	BRUSH	11	9	[0, 0, 0]	n/a	FR1	1	R1332M
1068.986	1.364	1069382	REC_WORD	1.364	n/a	DEER	3	9	[0, 0, 0]	n/a	FR1	1	R1332M
1070.35	3.081	1070746	REC_WORD	3.081	n/a	PIG	4	9	[0, 0, 0]	n/a	FR1	1	R1332M
1073.431	5.664	1073827	REC_WORD	5.664	n/a	FORK	7	9	[0, 0, 0]	n/a	FR1	1	R1332M
1079.095	14.773	1079491	REC_WORD	14.773	n/a	ANT	12	9	[0, 0, 0]	n/a	FR1	1	R1332M
1093.868	0.0	1094263	REC_END	n/a	n/a	n/a	-999	9	[0, 0, 0]	n/a	FR1	1	R1332M
1093.868	0.015	1094263	TRIAL_END	n/a	n/a	n/a	-999	9	[0, 0, 0]	n/a	FR1	1	R1332M
1093.883	0.0	1094278	WAITING_START	n/a	n/a	n/a	-999	10	[0, 0, 0]	n/a	FR1	1	R1332M
1093.883	0.0	1094278	TRIAL_START	n/a	n/a	n/a	-999	10	[0, 0, 0]	n/a	FR1	1	R1332M
1093.883	2.581	1094278	TRIAL	n/a	n/a	n/a	-999	10	[0, 0, 0]	n/a	FR1	1	R1332M
1096.464	0.0	1096859	WAITING_END	n/a	n/a	n/a	-999	10	[0, 0, 0]	n/a	FR1	1	R1332M
1096.464	10.428	1096859	COUNTDOWN_START	n/a	n/a	n/a	-999	10	[0, 0, 0]	n/a	FR1	1	R1332M
1106.892	0.001	1107286	COUNTDOWN_END	n/a	n/a	n/a	-999	10	[0, 0, 0]	n/a	FR1	1	R1332M
1106.893	1.123	1107287	ORIENT_START	n/a	n/a	n/a	-999	10	[0, 0, 0]	n/a	FR1	1	R1332M
1108.016	0.0	1108410	ORIENT_END	n/a	n/a	n/a	-999	10	[0, 0, 0]	n/a	FR1	1	R1332M
1108.016	0.883	1108410	ENCODING_START	n/a	n/a	n/a	-999	10	[0, 0, 0]	n/a	FR1	1	R1332M
1108.899	1.634	1109293	WORD	n/a	n/a	CHIN	1	10	[0, 0, 0]	n/a	FR1	1	R1332M
1110.533	1.054	1110927	WORD_OFF	n/a	n/a	CHIN	1	10	[0, 0, 0]	n/a	FR1	1	R1332M
1111.587	1.629	1111981	WORD	n/a	n/a	BROOM	2	10	[0, 0, 0]	n/a	FR1	1	R1332M
1113.216	0.814	1113610	WORD_OFF	n/a	n/a	BROOM	2	10	[0, 0, 0]	n/a	FR1	1	R1332M
1114.03	1.62	1114424	WORD	n/a	n/a	COW	3	10	[0, 0, 0]	n/a	FR1	1	R1332M
1115.65	1.13	1116044	WORD_OFF	n/a	n/a	COW	3	10	[0, 0, 0]	n/a	FR1	1	R1332M
1116.78	1.621	1117174	WORD	n/a	n/a	SLEEVE	4	10	[0, 0, 0]	n/a	FR1	1	R1332M
1118.401	0.851	1118795	WORD_OFF	n/a	n/a	SLEEVE	4	10	[0, 0, 0]	n/a	FR1	1	R1332M
1119.252	1.633	1119646	WORD	n/a	n/a	ROAD	5	10	[0, 0, 0]	n/a	FR1	1	R1332M
1120.885	0.876	1121278	WORD_OFF	n/a	n/a	ROAD	5	10	[0, 0, 0]	n/a	FR1	1	R1332M
1121.761	1.625	1122154	WORD	n/a	n/a	CAGE	6	10	[0, 0, 0]	n/a	FR1	1	R1332M
1123.386	0.964	1123779	WORD_OFF	n/a	n/a	CAGE	6	10	[0, 0, 0]	n/a	FR1	1	R1332M
1124.35	1.636	1124743	WORD	n/a	n/a	WOLF	7	10	[0, 0, 0]	n/a	FR1	1	R1332M
1125.986	1.053	1126379	WORD_OFF	n/a	n/a	WOLF	7	10	[0, 0, 0]	n/a	FR1	1	R1332M
1127.039	1.631	1127432	WORD	n/a	n/a	SOAP	8	10	[0, 0, 0]	n/a	FR1	1	R1332M
1128.67	1.044	1129063	WORD_OFF	n/a	n/a	SOAP	8	10	[0, 0, 0]	n/a	FR1	1	R1332M
1129.714	1.623	1130107	WORD	n/a	n/a	FORT	9	10	[0, 0, 0]	n/a	FR1	1	R1332M
1131.337	1.048	1131730	WORD_OFF	n/a	n/a	FORT	9	10	[0, 0, 0]	n/a	FR1	1	R1332M
1132.385	1.636	1132778	WORD	n/a	n/a	MOON	10	10	[0, 0, 0]	n/a	FR1	1	R1332M
1134.021	1.061	1134414	WORD_OFF	n/a	n/a	MOON	10	10	[0, 0, 0]	n/a	FR1	1	R1332M
1135.082	1.623	1135475	WORD	n/a	n/a	CART	11	10	[0, 0, 0]	n/a	FR1	1	R1332M
1136.705	1.052	1137098	WORD_OFF	n/a	n/a	CART	11	10	[0, 0, 0]	n/a	FR1	1	R1332M
1137.757	1.632	1138150	WORD	n/a	n/a	CHAIR	12	10	[0, 0, 0]	n/a	FR1	1	R1332M
1139.389	0.0	1139782	WORD_OFF	n/a	n/a	CHAIR	12	10	[0, 0, 0]	n/a	FR1	1	R1332M
1139.389	0.0	1139782	ENCODING_END	n/a	n/a	n/a	-999	10	[0, 0, 0]	n/a	FR1	1	R1332M
1139.389	0.0	1139782	DISTRACT_START	n/a	n/a	n/a	-999	10	[0, 0, 0]	n/a	FR1	1	R1332M
1139.389	0.016	1139782	START	n/a	n/a	n/a	-999	10	[-999, -999, -999]	n/a	FR1	1	R1332M
1139.405	3.618	1139798	PROB	3.618	n/a	n/a	-999	10	[5, 5, 1]	11	FR1	1	R1332M
1143.023	2.833	1143415	PROB	2.833	n/a	n/a	-999	10	[7, 4, 7]	18	FR1	1	R1332M
1145.856	2.618	1146248	PROB	2.618	n/a	n/a	-999	10	[7, 6, 5]	18	FR1	1	R1332M
1148.474	3.383	1148866	PROB	3.383	n/a	n/a	-999	10	[3, 1, 6]	10	FR1	1	R1332M
1151.857	1.834	1152249	PROB	1.834	n/a	n/a	-999	10	[2, 2, 2]	6	FR1	1	R1332M
1153.691	2.117	1154083	PROB	2.117	n/a	n/a	-999	10	[4, 3, 4]	11	FR1	1	R1332M
1155.808	3.367	1156200	PROB	3.367	n/a	n/a	-999	10	[7, 2, 7]	16	FR1	1	R1332M
1159.175	3.055	1159566	PROB	3.055	n/a	n/a	-999	10	[9, 5, 4]	18	FR1	1	R1332M
1162.23	0.012	1162621	STOP	n/a	n/a	n/a	-999	10	[-999, -999, -999]	n/a	FR1	1	R1332M
1162.242	0.539	1162633	DISTRACT_END	n/a	n/a	n/a	-999	10	[0, 0, 0]	n/a	FR1	1	R1332M
1162.781	1.696	1163172	RETRIEVAL_ORIENT_START	n/a	n/a	n/a	-999	10	[0, 0, 0]	n/a	FR1	1	R1332M
1164.477	0.0	1164868	RETRIEVAL_ORIENT_END	n/a	n/a	n/a	-999	10	[0, 0, 0]	n/a	FR1	1	R1332M
1164.477	0.848	1164868	REC_START	n/a	n/a	n/a	-999	10	[0, 0, 0]	n/a	FR1	1	R1332M
1165.325	1.986	1165716	REC_WORD	1.986	n/a	CHIN	1	10	[0, 0, 0]	n/a	FR1	1	R1332M
1167.311	2.503	1167702	REC_WORD	2.503	n/a	SLEEVE	4	10	[0, 0, 0]	n/a	FR1	1	R1332M
1169.814	7.893	1170205	REC_WORD	7.893	n/a	FORT	9	10	[0, 0, 0]	n/a	FR1	1	R1332M
1177.707	16.78	1178098	REC_WORD	16.78	n/a	CHAIR	12	10	[0, 0, 0]	n/a	FR1	1	R1332M
1194.487	0.0	1194877	REC_END	n/a	n/a	n/a	-999	10	[0, 0, 0]	n/a	FR1	1	R1332M
1194.487	0.015	1194877	TRIAL_END	n/a	n/a	n/a	-999	10	[0, 0, 0]	n/a	FR1	1	R1332M
1194.502	0.0	1194892	TRIAL_START	n/a	n/a	n/a	-999	11	[0, 0, 0]	n/a	FR1	1	R1332M
1194.502	0.001	1194892	TRIAL	n/a	n/a	n/a	-999	11	[0, 0, 0]	n/a	FR1	1	R1332M
1194.503	3.663	1194893	WAITING_START	n/a	n/a	n/a	-999	11	[0, 0, 0]	n/a	FR1	1	R1332M
1198.166	0.0	1198555	COUNTDOWN_START	n/a	n/a	n/a	-999	11	[0, 0, 0]	n/a	FR1	1	R1332M
1198.166	10.429	1198555	WAITING_END	n/a	n/a	n/a	-999	11	[0, 0, 0]	n/a	FR1	1	R1332M
1208.595	0.0	1208984	COUNTDOWN_END	n/a	n/a	n/a	-999	11	[0, 0, 0]	n/a	FR1	1	R1332M
1208.595	1.057	1208984	ORIENT_START	n/a	n/a	n/a	-999	11	[0, 0, 0]	n/a	FR1	1	R1332M
1209.652	0.001	1210041	ORIENT_END	n/a	n/a	n/a	-999	11	[0, 0, 0]	n/a	FR1	1	R1332M
1209.653	1.104	1210042	ENCODING_START	n/a	n/a	n/a	-999	11	[0, 0, 0]	n/a	FR1	1	R1332M
1210.757	1.629	1211146	WORD	n/a	n/a	SHELL	1	11	[0, 0, 0]	n/a	FR1	1	R1332M
1212.386	1.012	1212775	WORD_OFF	n/a	n/a	SHELL	1	11	[0, 0, 0]	n/a	FR1	1	R1332M
1213.398	1.622	1213787	WORD	n/a	n/a	SUIT	2	11	[0, 0, 0]	n/a	FR1	1	R1332M
1215.02	1.084	1215409	WORD_OFF	n/a	n/a	SUIT	2	11	[0, 0, 0]	n/a	FR1	1	R1332M
1216.104	1.633	1216493	WORD	n/a	n/a	MAZE	3	11	[0, 0, 0]	n/a	FR1	1	R1332M
1217.737	1.082	1218125	WORD_OFF	n/a	n/a	MAZE	3	11	[0, 0, 0]	n/a	FR1	1	R1332M
1218.819	1.635	1219207	WORD	n/a	n/a	DART	4	11	[0, 0, 0]	n/a	FR1	1	R1332M
1220.454	0.784	1220842	WORD_OFF	n/a	n/a	DART	4	11	[0, 0, 0]	n/a	FR1	1	R1332M
1221.238	1.633	1221626	WORD	n/a	n/a	STOVE	5	11	[0, 0, 0]	n/a	FR1	1	R1332M
1222.871	1.052	1223259	WORD_OFF	n/a	n/a	STOVE	5	11	[0, 0, 0]	n/a	FR1	1	R1332M
1223.923	1.632	1224311	WORD	n/a	n/a	HOUSE	6	11	[0, 0, 0]	n/a	FR1	1	R1332M
1225.555	0.964	1225943	WORD_OFF	n/a	n/a	HOUSE	6	11	[0, 0, 0]	n/a	FR1	1	R1332M
1226.519	1.636	1226907	WORD	n/a	n/a	BADGE	7	11	[0, 0, 0]	n/a	FR1	1	R1332M
1228.155	0.972	1228543	WORD_OFF	n/a	n/a	BADGE	7	11	[0, 0, 0]	n/a	FR1	1	R1332M
1229.127	1.613	1229515	WORD	n/a	n/a	BOY	8	11	[0, 0, 0]	n/a	FR1	1	R1332M
1230.74	1.023	1231128	WORD_OFF	n/a	n/a	BOY	8	11	[0, 0, 0]	n/a	FR1	1	R1332M
1231.763	1.627	1232151	WORD	n/a	n/a	HAT	9	11	[0, 0, 0]	n/a	FR1	1	R1332M
1233.39	1.099	1233778	WORD_OFF	n/a	n/a	HAT	9	11	[0, 0, 0]	n/a	FR1	1	R1332M
1234.489	1.634	1234877	WORD	n/a	n/a	APE	10	11	[0, 0, 0]	n/a	FR1	1	R1332M
1236.123	0.976	1236511	WORD_OFF	n/a	n/a	APE	10	11	[0, 0, 0]	n/a	FR1	1	R1332M
1237.099	1.609	1237486	WORD	n/a	n/a	ZOO	11	11	[0, 0, 0]	n/a	FR1	1	R1332M
1238.708	1.079	1239095	WORD_OFF	n/a	n/a	ZOO	11	11	[0, 0, 0]	n/a	FR1	1	R1332M
1239.787	1.621	1240174	WORD	n/a	n/a	SWAMP	12	11	[0, 0, 0]	n/a	FR1	1	R1332M
1241.408	0.001	1241795	WORD_OFF	n/a	n/a	SWAMP	12	11	[0, 0, 0]	n/a	FR1	1	R1332M
1241.409	0.0	1241796	DISTRACT_START	n/a	n/a	n/a	-999	11	[0, 0, 0]	n/a	FR1	1	R1332M
1241.409	0.0	1241796	ENCODING_END	n/a	n/a	n/a	-999	11	[0, 0, 0]	n/a	FR1	1	R1332M
1241.409	0.016	1241796	START	n/a	n/a	n/a	-999	11	[-999, -999, -999]	n/a	FR1	1	R1332M
1241.425	3.617	1241812	PROB	3.617	n/a	n/a	-999	11	[2, 8, 6]	16	FR1	1	R1332M
1245.042	2.133	1245429	PROB	2.133	n/a	n/a	-999	11	[9, 1, 9]	19	FR1	1	R1332M
1247.175	2.452	1247562	PROB	2.452	n/a	n/a	-999	11	[6, 7, 6]	19	FR1	1	R1332M
1249.627	2.167	1250014	PROB	2.167	n/a	n/a	-999	11	[8, 9, 4]	21	FR1	1	R1332M
1251.794	2.25	1252181	PROB	2.25	n/a	n/a	-999	11	[8, 9, 2]	19	FR1	1	R1332M
1254.044	3.817	1254431	PROB	3.817	n/a	n/a	-999	11	[9, 8, 6]	23	FR1	1	R1332M
1257.861	2.267	1258247	PROB	2.267	n/a	n/a	-999	11	[6, 6, 8]	20	FR1	1	R1332M
1260.128	2.128	1260514	PROB	2.128	n/a	n/a	-999	11	[8, 9, 2]	19	FR1	1	R1332M
1262.256	0.006	1262642	STOP	n/a	n/a	n/a	-999	11	[-999, -999, -999]	n/a	FR1	1	R1332M
1262.262	0.58	1262648	DISTRACT_END	n/a	n/a	n/a	-999	11	[0, 0, 0]	n/a	FR1	1	R1332M
1262.842	1.538	1263228	RETRIEVAL_ORIENT_START	n/a	n/a	n/a	-999	11	[0, 0, 0]	n/a	FR1	1	R1332M
1264.38	0.0	1264766	RETRIEVAL_ORIENT_END	n/a	n/a	n/a	-999	11	[0, 0, 0]	n/a	FR1	1	R1332M
1264.38	1.293	1264766	REC_START	n/a	n/a	n/a	-999	11	[0, 0, 0]	n/a	FR1	1	R1332M
1265.673	0.943	1266059	REC_WORD_VV	0.943	n/a	<>	-999	11	[0, 0, 0]	n/a	FR1	1	R1332M
1266.616	4.693	1267002	REC_WORD	4.693	n/a	SUIT	2	11	[0, 0, 0]	n/a	FR1	1	R1332M
1271.309	2.426	1271695	REC_WORD	2.426	n/a	SWAMP	12	11	[0, 0, 0]	n/a	FR1	1	R1332M
1273.735	2.978	1274121	REC_WORD	2.978	n/a	ZOO	11	11	[0, 0, 0]	n/a	FR1	1	R1332M
1276.713	5.398	1277098	REC_WORD	5.398	n/a	APE	10	11	[0, 0, 0]	n/a	FR1	1	R1332M
1282.111	2.384	1282496	REC_WORD	2.384	n/a	STOVE	5	11	[0, 0, 0]	n/a	FR1	1	R1332M
1284.495	9.894	1284880	REC_WORD	9.894	n/a	KITCHEN	-999	11	[0, 0, 0]	n/a	FR1	1	R1332M
1294.389	0.0	1294774	REC_END	n/a	n/a	n/a	-999	11	[0, 0, 0]	n/a	FR1	1	R1332M
1294.389	0.017	1294774	TRIAL_END	n/a	n/a	n/a	-999	11	[0, 0, 0]	n/a	FR1	1	R1332M
1294.406	0.0	1294791	TRIAL_START	n/a	n/a	n/a	-999	12	[0, 0, 0]	n/a	FR1	1	R1332M
1294.406	0.0	1294791	TRIAL	n/a	n/a	n/a	-999	12	[0, 0, 0]	n/a	FR1	1	R1332M
1294.406	3.863	1294791	WAITING_START	n/a	n/a	n/a	-999	12	[0, 0, 0]	n/a	FR1	1	R1332M
1298.269	0.001	1298653	WAITING_END	n/a	n/a	n/a	-999	12	[0, 0, 0]	n/a	FR1	1	R1332M
1298.27	10.428	1298654	COUNTDOWN_START	n/a	n/a	n/a	-999	12	[0, 0, 0]	n/a	FR1	1	R1332M
1308.698	0.001	1309082	COUNTDOWN_END	n/a	n/a	n/a	-999	12	[0, 0, 0]	n/a	FR1	1	R1332M
1308.699	1.039	1309083	ORIENT_START	n/a	n/a	n/a	-999	12	[0, 0, 0]	n/a	FR1	1	R1332M
1309.738	0.001	1310122	ORIENT_END	n/a	n/a	n/a	-999	12	[0, 0, 0]	n/a	FR1	1	R1332M
1309.739	0.811	1310123	ENCODING_START	n/a	n/a	n/a	-999	12	[0, 0, 0]	n/a	FR1	1	R1332M
1310.55	1.621	1310934	WORD	n/a	n/a	SINK	1	12	[0, 0, 0]	n/a	FR1	1	R1332M
1312.171	1.101	1312555	WORD_OFF	n/a	n/a	SINK	1	12	[0, 0, 0]	n/a	FR1	1	R1332M
1313.272	1.634	1313656	WORD	n/a	n/a	CROW	2	12	[0, 0, 0]	n/a	FR1	1	R1332M
1314.906	0.933	1315289	WORD_OFF	n/a	n/a	CROW	2	12	[0, 0, 0]	n/a	FR1	1	R1332M
1315.839	1.634	1316222	WORD	n/a	n/a	SEAL	3	12	[0, 0, 0]	n/a	FR1	1	R1332M
1317.473	1.127	1317856	WORD_OFF	n/a	n/a	SEAL	3	12	[0, 0, 0]	n/a	FR1	1	R1332M
1318.6	1.623	1318983	WORD	n/a	n/a	DITCH	4	12	[0, 0, 0]	n/a	FR1	1	R1332M
1320.223	0.991	1320606	WORD_OFF	n/a	n/a	DITCH	4	12	[0, 0, 0]	n/a	FR1	1	R1332M
1321.214	1.627	1321597	WORD	n/a	n/a	SMOKE	5	12	[0, 0, 0]	n/a	FR1	1	R1332M
1322.841	1.094	1323224	WORD_OFF	n/a	n/a	SMOKE	5	12	[0, 0, 0]	n/a	FR1	1	R1332M
1323.935	1.623	1324318	WORD	n/a	n/a	FLAME	6	12	[0, 0, 0]	n/a	FR1	1	R1332M
1325.558	0.951	1325941	WORD_OFF	n/a	n/a	FLAME	6	12	[0, 0, 0]	n/a	FR1	1	R1332M
1326.509	1.632	1326892	WORD	n/a	n/a	TOAST	7	12	[0, 0, 0]	n/a	FR1	1	R1332M
1328.141	0.808	1328524	WORD_OFF	n/a	n/a	TOAST	7	12	[0, 0, 0]	n/a	FR1	1	R1332M
1328.949	1.627	1329332	WORD	n/a	n/a	BOWL	8	12	[0, 0, 0]	n/a	FR1	1	R1332M
1330.576	1.098	1330959	WORD_OFF	n/a	n/a	BOWL	8	12	[0, 0, 0]	n/a	FR1	1	R1332M
1331.674	1.636	1332057	WORD	n/a	n/a	FENCE	9	12	[0, 0, 0]	n/a	FR1	1	R1332M
1333.31	1.013	1333693	WORD_OFF	n/a	n/a	FENCE	9	12	[0, 0, 0]	n/a	FR1	1	R1332M
1334.323	1.62	1334705	WORD	n/a	n/a	SALT	10	12	[0, 0, 0]	n/a	FR1	1	R1332M
1335.943	0.774	1336325	WORD_OFF	n/a	n/a	SALT	10	12	[0, 0, 0]	n/a	FR1	1	R1332M
1336.717	1.627	1337099	WORD	n/a	n/a	OWL	11	12	[0, 0, 0]	n/a	FR1	1	R1332M
1338.344	0.777	1338726	WORD_OFF	n/a	n/a	OWL	11	12	[0, 0, 0]	n/a	FR1	1	R1332M
1339.121	1.624	1339503	WORD	n/a	n/a	PASTE	12	12	[0, 0, 0]	n/a	FR1	1	R1332M
1340.745	0.0	1341127	ENCODING_END	n/a	n/a	n/a	-999	12	[0, 0, 0]	n/a	FR1	1	R1332M
1340.745	0.0	1341127	DISTRACT_START	n/a	n/a	n/a	-999	12	[0, 0, 0]	n/a	FR1	1	R1332M
1340.745	0.0	1341127	WORD_OFF	n/a	n/a	PASTE	12	12	[0, 0, 0]	n/a	FR1	1	R1332M
1340.745	0.016	1341127	START	n/a	n/a	n/a	-999	12	[-999, -999, -999]	n/a	FR1	1	R1332M
1340.761	5.4	1341143	PROB	5.4	n/a	n/a	-999	12	[8, 6, 9]	23	FR1	1	R1332M
1346.161	2.135	1346543	PROB	2.135	n/a	n/a	-999	12	[5, 2, 6]	13	FR1	1	R1332M
1348.296	2.267	1348678	PROB	2.267	n/a	n/a	-999	12	[6, 5, 2]	13	FR1	1	R1332M
1350.563	2.15	1350945	PROB	2.15	n/a	n/a	-999	12	[4, 5, 8]	17	FR1	1	R1332M
1352.713	2.167	1353095	PROB	2.167	n/a	n/a	-999	12	[9, 7, 7]	23	FR1	1	R1332M
1354.88	3.034	1355261	PROB	3.034	n/a	n/a	-999	12	[3, 3, 8]	14	FR1	1	R1332M
1357.914	1.517	1358295	PROB	1.517	n/a	n/a	-999	12	[8, 2, 1]	11	FR1	1	R1332M
1359.431	4.127	1359812	PROB	4.127	n/a	n/a	-999	12	[4, 8, 5]	17	FR1	1	R1332M
1363.558	0.007	1363939	STOP	n/a	n/a	n/a	-999	12	[-999, -999, -999]	n/a	FR1	1	R1332M
1363.565	0.563	1363946	DISTRACT_END	n/a	n/a	n/a	-999	12	[0, 0, 0]	n/a	FR1	1	R1332M
1364.128	1.621	1364509	RETRIEVAL_ORIENT_START	n/a	n/a	n/a	-999	12	[0, 0, 0]	n/a	FR1	1	R1332M
1365.749	0.001	1366130	RETRIEVAL_ORIENT_END	n/a	n/a	n/a	-999	12	[0, 0, 0]	n/a	FR1	1	R1332M
1365.75	1.176	1366131	REC_START	n/a	n/a	n/a	-999	12	[0, 0, 0]	n/a	FR1	1	R1332M
1366.926	0.306	1367307	REC_WORD_VV	0.306	n/a	<>	-999	12	[0, 0, 0]	n/a	FR1	1	R1332M
1367.232	3.273	1367613	REC_WORD	3.273	n/a	SINK	1	12	[0, 0, 0]	n/a	FR1	1	R1332M
1370.505	3.508	1370886	REC_WORD	3.508	n/a	CROW	2	12	[0, 0, 0]	n/a	FR1	1	R1332M
1374.013	1.597	1374393	REC_WORD	1.597	n/a	SMOKE	5	12	[0, 0, 0]	n/a	FR1	1	R1332M
1375.61	20.149	1375990	REC_WORD	20.149	n/a	FLAME	6	12	[0, 0, 0]	n/a	FR1	1	R1332M
1395.759	0.0	1396138	TRIAL_END	n/a	n/a	n/a	-999	12	[0, 0, 0]	n/a	FR1	1	R1332M
1395.759	0.016	1396138	REC_END	n/a	n/a	n/a	-999	12	[0, 0, 0]	n/a	FR1	1	R1332M
1395.775	0.0	1396154	TRIAL_START	n/a	n/a	n/a	-999	13	[0, 0, 0]	n/a	FR1	1	R1332M
1395.775	0.001	1396154	TRIAL	n/a	n/a	n/a	-999	13	[0, 0, 0]	n/a	FR1	1	R1332M
1395.776	8.547	1396155	WAITING_START	n/a	n/a	n/a	-999	13	[0, 0, 0]	n/a	FR1	1	R1332M
1404.323	0.001	1404702	WAITING_END	n/a	n/a	n/a	-999	13	[0, 0, 0]	n/a	FR1	1	R1332M
1404.324	10.429	1404703	COUNTDOWN_START	n/a	n/a	n/a	-999	13	[0, 0, 0]	n/a	FR1	1	R1332M
1414.753	0.0	1415131	COUNTDOWN_END	n/a	n/a	n/a	-999	13	[0, 0, 0]	n/a	FR1	1	R1332M
1414.753	1.256	1415131	ORIENT_START	n/a	n/a	n/a	-999	13	[0, 0, 0]	n/a	FR1	1	R1332M
1416.009	0.0	1416387	ENCODING_START	n/a	n/a	n/a	-999	13	[0, 0, 0]	n/a	FR1	1	R1332M
1416.009	0.881	1416387	ORIENT_END	n/a	n/a	n/a	-999	13	[0, 0, 0]	n/a	FR1	1	R1332M
1416.89	1.636	1417268	WORD	n/a	n/a	EGG	1	13	[0, 0, 0]	n/a	FR1	1	R1332M
1418.526	0.837	1418904	WORD_OFF	n/a	n/a	EGG	1	13	[0, 0, 0]	n/a	FR1	1	R1332M
1419.363	1.63	1419741	WORD	n/a	n/a	GEESE	2	13	[0, 0, 0]	n/a	FR1	1	R1332M
1420.993	1.133	1421371	WORD_OFF	n/a	n/a	GEESE	2	13	[0, 0, 0]	n/a	FR1	1	R1332M
1422.126	1.618	1422504	WORD	n/a	n/a	LEG	3	13	[0, 0, 0]	n/a	FR1	1	R1332M
1423.744	0.83	1424122	WORD_OFF	n/a	n/a	LEG	3	13	[0, 0, 0]	n/a	FR1	1	R1332M
1424.574	1.636	1424952	WORD	n/a	n/a	LAKE	4	13	[0, 0, 0]	n/a	FR1	1	R1332M
1426.21	0.945	1426588	WORD_OFF	n/a	n/a	LAKE	4	13	[0, 0, 0]	n/a	FR1	1	R1332M
1427.155	1.606	1427533	WORD	n/a	n/a	CAVE	5	13	[0, 0, 0]	n/a	FR1	1	R1332M
1428.761	1.065	1429139	WORD_OFF	n/a	n/a	CAVE	5	13	[0, 0, 0]	n/a	FR1	1	R1332M
1429.826	1.636	1430204	WORD	n/a	n/a	ICE	6	13	[0, 0, 0]	n/a	FR1	1	R1332M
1431.462	0.955	1431839	WORD_OFF	n/a	n/a	ICE	6	13	[0, 0, 0]	n/a	FR1	1	R1332M
1432.417	1.629	1432794	WORD	n/a	n/a	GRAPE	7	13	[0, 0, 0]	n/a	FR1	1	R1332M
1434.046	0.91	1434423	WORD_OFF	n/a	n/a	GRAPE	7	13	[0, 0, 0]	n/a	FR1	1	R1332M
1434.956	1.624	1435333	WORD	n/a	n/a	CLOTH	8	13	[0, 0, 0]	n/a	FR1	1	R1332M
1436.58	0.948	1436957	WORD_OFF	n/a	n/a	CLOTH	8	13	[0, 0, 0]	n/a	FR1	1	R1332M
1437.528	1.634	1437905	WORD	n/a	n/a	ROOT	9	13	[0, 0, 0]	n/a	FR1	1	R1332M
1439.162	0.902	1439539	WORD_OFF	n/a	n/a	ROOT	9	13	[0, 0, 0]	n/a	FR1	1	R1332M
1440.064	1.616	1440441	WORD	n/a	n/a	CLOUD	10	13	[0, 0, 0]	n/a	FR1	1	R1332M
1441.68	0.877	1442057	WORD_OFF	n/a	n/a	CLOUD	10	13	[0, 0, 0]	n/a	FR1	1	R1332M
1442.557	1.623	1442934	WORD	n/a	n/a	FUR	11	13	[0, 0, 0]	n/a	FR1	1	R1332M
1444.18	0.808	1444557	WORD_OFF	n/a	n/a	FUR	11	13	[0, 0, 0]	n/a	FR1	1	R1332M
1444.988	1.627	1445365	WORD	n/a	n/a	PIE	12	13	[0, 0, 0]	n/a	FR1	1	R1332M
1446.615	0.0	1446992	WORD_OFF	n/a	n/a	PIE	12	13	[0, 0, 0]	n/a	FR1	1	R1332M
1446.615	0.001	1446992	ENCODING_END	n/a	n/a	n/a	-999	13	[0, 0, 0]	n/a	FR1	1	R1332M
1446.616	0.0	1446993	DISTRACT_START	n/a	n/a	n/a	-999	13	[0, 0, 0]	n/a	FR1	1	R1332M
1446.616	0.015	1446993	START	n/a	n/a	n/a	-999	13	[-999, -999, -999]	n/a	FR1	1	R1332M
1446.631	4.6	1447008	PROB	4.6	n/a	n/a	-999	13	[3, 5, 6]	13	FR1	1	R1332M
1451.231	2.335	1451607	PROB	2.335	n/a	n/a	-999	13	[6, 7, 6]	19	FR1	1	R1332M
1453.566	1.666	1453942	PROB	1.666	n/a	n/a	-999	13	[4, 8, 2]	14	FR1	1	R1332M
1455.232	1.967	1455608	PROB	1.967	n/a	n/a	-999	13	[1, 8, 3]	12	FR1	1	R1332M
1457.199	2.017	1457575	PROB	2.017	n/a	n/a	-999	13	[7, 8, 3]	18	FR1	1	R1332M
1459.216	2.118	1459592	PROB	2.118	n/a	n/a	-999	13	[2, 2, 8]	12	FR1	1	R1332M
1461.334	2.651	1461710	PROB	2.651	n/a	n/a	-999	13	[5, 3, 4]	12	FR1	1	R1332M
1463.985	1.967	1464361	PROB	1.967	n/a	n/a	-999	13	[6, 1, 3]	10	FR1	1	R1332M
1465.952	1.966	1466328	PROB	1.966	n/a	n/a	-999	13	[5, 6, 1]	12	FR1	1	R1332M
1467.918	0.018	1468294	STOP	n/a	n/a	n/a	-999	13	[-999, -999, -999]	n/a	FR1	1	R1332M
1467.936	0.51	1468312	DISTRACT_END	n/a	n/a	n/a	-999	13	[0, 0, 0]	n/a	FR1	1	R1332M
1468.446	1.59	1468822	RETRIEVAL_ORIENT_START	n/a	n/a	n/a	-999	13	[0, 0, 0]	n/a	FR1	1	R1332M
1470.036	0.0	1470411	REC_START	n/a	n/a	n/a	-999	13	[0, 0, 0]	n/a	FR1	1	R1332M
1470.036	1.488	1470411	RETRIEVAL_ORIENT_END	n/a	n/a	n/a	-999	13	[0, 0, 0]	n/a	FR1	1	R1332M
1471.524	1.501	1471899	REC_WORD	1.501	n/a	EGG	1	13	[0, 0, 0]	n/a	FR1	1	R1332M
1473.025	1.742	1473400	REC_WORD	1.742	n/a	GREESE	-999	13	[0, 0, 0]	n/a	FR1	1	R1332M
1474.767	0.517	1475142	REC_WORD	0.517	n/a	GEESE	2	13	[0, 0, 0]	n/a	FR1	1	R1332M
1475.284	3.0	1475659	REC_WORD_VV	3.0	n/a	<>	-999	13	[0, 0, 0]	n/a	FR1	1	R1332M
1478.284	3.149	1478659	REC_WORD	3.149	n/a	FUR	11	13	[0, 0, 0]	n/a	FR1	1	R1332M
1481.433	2.045	1481808	REC_WORD	2.045	n/a	CAVE	5	13	[0, 0, 0]	n/a	FR1	1	R1332M
1483.478	5.101	1483853	REC_WORD	5.101	n/a	ICE	6	13	[0, 0, 0]	n/a	FR1	1	R1332M
1488.579	6.449	1488953	REC_WORD	6.449	n/a	PIE	12	13	[0, 0, 0]	n/a	FR1	1	R1332M
1495.028	5.018	1495402	REC_WORD	5.018	n/a	GRAPE	7	13	[0, 0, 0]	n/a	FR1	1	R1332M
1500.046	0.0	1500420	TRIAL_END	n/a	n/a	n/a	-999	13	[0, 0, 0]	n/a	FR1	1	R1332M
1500.046	0.014	1500420	REC_END	n/a	n/a	n/a	-999	13	[0, 0, 0]	n/a	FR1	1	R1332M
1500.06	0.0	1500434	TRIAL_START	n/a	n/a	n/a	-999	14	[0, 0, 0]	n/a	FR1	1	R1332M
1500.06	0.0	1500434	TRIAL	n/a	n/a	n/a	-999	14	[0, 0, 0]	n/a	FR1	1	R1332M
1500.06	7.817	1500434	WAITING_START	n/a	n/a	n/a	-999	14	[0, 0, 0]	n/a	FR1	1	R1332M
1507.877	0.0	1508251	WAITING_END	n/a	n/a	n/a	-999	14	[0, 0, 0]	n/a	FR1	1	R1332M
1507.877	10.429	1508251	COUNTDOWN_START	n/a	n/a	n/a	-999	14	[0, 0, 0]	n/a	FR1	1	R1332M
1518.306	0.001	1518679	COUNTDOWN_END	n/a	n/a	n/a	-999	14	[0, 0, 0]	n/a	FR1	1	R1332M
1518.307	1.105	1518680	ORIENT_START	n/a	n/a	n/a	-999	14	[0, 0, 0]	n/a	FR1	1	R1332M
1519.412	0.0	1519785	ENCODING_START	n/a	n/a	n/a	-999	14	[0, 0, 0]	n/a	FR1	1	R1332M
1519.412	0.958	1519785	ORIENT_END	n/a	n/a	n/a	-999	14	[0, 0, 0]	n/a	FR1	1	R1332M
1520.37	1.626	1520743	WORD	n/a	n/a	MULE	1	14	[0, 0, 0]	n/a	FR1	1	R1332M
1521.996	0.877	1522369	WORD_OFF	n/a	n/a	MULE	1	14	[0, 0, 0]	n/a	FR1	1	R1332M
1522.873	1.624	1523246	WORD	n/a	n/a	BOOT	2	14	[0, 0, 0]	n/a	FR1	1	R1332M
1524.497	0.757	1524870	WORD_OFF	n/a	n/a	BOOT	2	14	[0, 0, 0]	n/a	FR1	1	R1332M
1525.254	1.627	1525627	WORD	n/a	n/a	PLANE	3	14	[0, 0, 0]	n/a	FR1	1	R1332M
1526.881	0.963	1527254	WORD_OFF	n/a	n/a	PLANE	3	14	[0, 0, 0]	n/a	FR1	1	R1332M
1527.844	1.637	1528216	WORD	n/a	n/a	SPRING	4	14	[0, 0, 0]	n/a	FR1	1	R1332M
1529.481	0.762	1529853	WORD_OFF	n/a	n/a	SPRING	4	14	[0, 0, 0]	n/a	FR1	1	R1332M
1530.243	1.638	1530615	WORD	n/a	n/a	BENCH	5	14	[0, 0, 0]	n/a	FR1	1	R1332M
1531.881	1.143	1532253	WORD_OFF	n/a	n/a	BENCH	5	14	[0, 0, 0]	n/a	FR1	1	R1332M
1533.024	1.625	1533396	WORD	n/a	n/a	DOCK	6	14	[0, 0, 0]	n/a	FR1	1	R1332M
1534.649	1.007	1535021	WORD_OFF	n/a	n/a	DOCK	6	14	[0, 0, 0]	n/a	FR1	1	R1332M
1535.656	1.627	1536028	WORD	n/a	n/a	SHIP	7	14	[0, 0, 0]	n/a	FR1	1	R1332M
1537.283	1.142	1537655	WORD_OFF	n/a	n/a	SHIP	7	14	[0, 0, 0]	n/a	FR1	1	R1332M
1538.425	1.625	1538797	WORD	n/a	n/a	TRUCK	8	14	[0, 0, 0]	n/a	FR1	1	R1332M
1540.05	1.077	1540422	WORD_OFF	n/a	n/a	TRUCK	8	14	[0, 0, 0]	n/a	FR1	1	R1332M
1541.127	1.606	1541499	WORD	n/a	n/a	RAKE	9	14	[0, 0, 0]	n/a	FR1	1	R1332M
1542.733	0.952	1543105	WORD_OFF	n/a	n/a	RAKE	9	14	[0, 0, 0]	n/a	FR1	1	R1332M
1543.685	1.632	1544057	WORD	n/a	n/a	DUCK	10	14	[0, 0, 0]	n/a	FR1	1	R1332M
1545.317	0.789	1545689	WORD_OFF	n/a	n/a	DUCK	10	14	[0, 0, 0]	n/a	FR1	1	R1332M
1546.106	1.628	1546478	WORD	n/a	n/a	CLOCK	11	14	[0, 0, 0]	n/a	FR1	1	R1332M
1547.734	0.751	1548105	WORD_OFF	n/a	n/a	CLOCK	11	14	[0, 0, 0]	n/a	FR1	1	R1332M
1548.485	1.632	1548856	WORD	n/a	n/a	POND	12	14	[0, 0, 0]	n/a	FR1	1	R1332M
1550.117	0.001	1550488	WORD_OFF	n/a	n/a	POND	12	14	[0, 0, 0]	n/a	FR1	1	R1332M
1550.118	0.0	1550489	ENCODING_END	n/a	n/a	n/a	-999	14	[0, 0, 0]	n/a	FR1	1	R1332M
1550.118	0.0	1550489	DISTRACT_START	n/a	n/a	n/a	-999	14	[0, 0, 0]	n/a	FR1	1	R1332M
1550.118	0.016	1550489	START	n/a	n/a	n/a	-999	14	[-999, -999, -999]	n/a	FR1	1	R1332M
1550.134	4.518	1550505	PROB	4.518	n/a	n/a	-999	14	[9, 2, 1]	12	FR1	1	R1332M
1554.652	1.767	1555023	PROB	1.767	n/a	n/a	-999	14	[7, 3, 5]	15	FR1	1	R1332M
1556.419	2.75	1556790	PROB	2.75	n/a	n/a	-999	14	[9, 3, 5]	17	FR1	1	R1332M
1559.169	2.05	1559540	PROB	2.05	n/a	n/a	-999	14	[2, 5, 1]	8	FR1	1	R1332M
1561.219	1.802	1561590	PROB	1.802	n/a	n/a	-999	14	[3, 3, 3]	9	FR1	1	R1332M
1563.021	2.9	1563392	PROB	2.9	n/a	n/a	-999	14	[3, 3, 4]	10	FR1	1	R1332M
1565.921	2.017	1566292	PROB	2.017	n/a	n/a	-999	14	[2, 6, 6]	14	FR1	1	R1332M
1567.938	3.276	1568308	PROB	3.276	n/a	n/a	-999	14	[9, 3, 1]	13	FR1	1	R1332M
1571.214	0.007	1571584	STOP	n/a	n/a	n/a	-999	14	[-999, -999, -999]	n/a	FR1	1	R1332M
1571.221	0.539	1571591	DISTRACT_END	n/a	n/a	n/a	-999	14	[0, 0, 0]	n/a	FR1	1	R1332M
1571.76	1.529	1572130	RETRIEVAL_ORIENT_START	n/a	n/a	n/a	-999	14	[0, 0, 0]	n/a	FR1	1	R1332M
1573.289	0.001	1573659	RETRIEVAL_ORIENT_END	n/a	n/a	n/a	-999	14	[0, 0, 0]	n/a	FR1	1	R1332M
1573.29	4.487	1573660	REC_START	n/a	n/a	n/a	-999	14	[0, 0, 0]	n/a	FR1	1	R1332M
1577.777	2.506	1578147	REC_WORD	2.506	n/a	SHIP	7	14	[0, 0, 0]	n/a	FR1	1	R1332M
1580.283	3.292	1580653	REC_WORD	3.292	n/a	LAKE	-999	14	[0, 0, 0]	n/a	FR1	1	R1332M
1583.575	3.225	1583945	REC_WORD	3.225	n/a	POND	12	14	[0, 0, 0]	n/a	FR1	1	R1332M
1586.8	12.48	1587169	REC_WORD	12.48	n/a	DUCK	10	14	[0, 0, 0]	n/a	FR1	1	R1332M
1599.28	4.02	1599649	REC_WORD	4.02	n/a	BOOT	2	14	[0, 0, 0]	n/a	FR1	1	R1332M
1603.3	0.0	1603669	TRIAL_END	n/a	n/a	n/a	-999	14	[0, 0, 0]	n/a	FR1	1	R1332M
1603.3	0.014	1603669	REC_END	n/a	n/a	n/a	-999	14	[0, 0, 0]	n/a	FR1	1	R1332M
1603.314	0.0	1603683	TRIAL_START	n/a	n/a	n/a	-999	15	[0, 0, 0]	n/a	FR1	1	R1332M
1603.314	0.001	1603683	TRIAL	n/a	n/a	n/a	-999	15	[0, 0, 0]	n/a	FR1	1	R1332M
1603.315	4.965	1603684	WAITING_START	n/a	n/a	n/a	-999	15	[0, 0, 0]	n/a	FR1	1	R1332M
1608.28	0.0	1608648	WAITING_END	n/a	n/a	n/a	-999	15	[0, 0, 0]	n/a	FR1	1	R1332M
1608.28	10.428	1608648	COUNTDOWN_START	n/a	n/a	n/a	-999	15	[0, 0, 0]	n/a	FR1	1	R1332M
1618.708	0.001	1619076	COUNTDOWN_END	n/a	n/a	n/a	-999	15	[0, 0, 0]	n/a	FR1	1	R1332M
1618.709	1.106	1619077	ORIENT_START	n/a	n/a	n/a	-999	15	[0, 0, 0]	n/a	FR1	1	R1332M
1619.815	0.0	1620183	ENCODING_START	n/a	n/a	n/a	-999	15	[0, 0, 0]	n/a	FR1	1	R1332M
1619.815	1.039	1620183	ORIENT_END	n/a	n/a	n/a	-999	15	[0, 0, 0]	n/a	FR1	1	R1332M
1620.854	1.628	1621222	WORD	n/a	n/a	LIP	1	15	[0, 0, 0]	n/a	FR1	1	R1332M
1622.482	0.96	1622850	WORD_OFF	n/a	n/a	LIP	1	15	[0, 0, 0]	n/a	FR1	1	R1332M
1623.442	1.623	1623810	WORD	n/a	n/a	GOAT	2	15	[0, 0, 0]	n/a	FR1	1	R1332M
1625.065	1.07	1625432	WORD_OFF	n/a	n/a	GOAT	2	15	[0, 0, 0]	n/a	FR1	1	R1332M
1626.135	1.632	1626502	WORD	n/a	n/a	CLIFF	3	15	[0, 0, 0]	n/a	FR1	1	R1332M
1627.767	0.758	1628134	WORD_OFF	n/a	n/a	CLIFF	3	15	[0, 0, 0]	n/a	FR1	1	R1332M
1628.525	1.624	1628892	WORD	n/a	n/a	BUSH	4	15	[0, 0, 0]	n/a	FR1	1	R1332M
1630.149	0.775	1630516	WORD_OFF	n/a	n/a	BUSH	4	15	[0, 0, 0]	n/a	FR1	1	R1332M
1630.924	1.627	1631291	WORD	n/a	n/a	SPARK	5	15	[0, 0, 0]	n/a	FR1	1	R1332M
1632.551	1.119	1632918	WORD_OFF	n/a	n/a	SPARK	5	15	[0, 0, 0]	n/a	FR1	1	R1332M
1633.67	1.631	1634037	WORD	n/a	n/a	BATH	6	15	[0, 0, 0]	n/a	FR1	1	R1332M
1635.301	0.904	1635668	WORD_OFF	n/a	n/a	BATH	6	15	[0, 0, 0]	n/a	FR1	1	R1332M
1636.205	1.614	1636572	WORD	n/a	n/a	BIRD	7	15	[0, 0, 0]	n/a	FR1	1	R1332M
1637.819	0.896	1638186	WORD_OFF	n/a	n/a	BIRD	7	15	[0, 0, 0]	n/a	FR1	1	R1332M
1638.715	1.621	1639082	WORD	n/a	n/a	DRESS	8	15	[0, 0, 0]	n/a	FR1	1	R1332M
1640.336	0.823	1640703	WORD_OFF	n/a	n/a	DRESS	8	15	[0, 0, 0]	n/a	FR1	1	R1332M
1641.159	1.61	1641526	WORD	n/a	n/a	TREE	9	15	[0, 0, 0]	n/a	FR1	1	R1332M
1642.769	1.073	1643136	WORD_OFF	n/a	n/a	TREE	9	15	[0, 0, 0]	n/a	FR1	1	R1332M
1643.842	1.628	1644208	WORD	n/a	n/a	CHIEF	10	15	[0, 0, 0]	n/a	FR1	1	R1332M
1645.47	0.929	1645836	WORD_OFF	n/a	n/a	CHIEF	10	15	[0, 0, 0]	n/a	FR1	1	R1332M
1646.399	1.622	1646765	WORD	n/a	n/a	DOOR	11	15	[0, 0, 0]	n/a	FR1	1	R1332M
1648.021	1.02	1648387	WORD_OFF	n/a	n/a	DOOR	11	15	[0, 0, 0]	n/a	FR1	1	R1332M
1649.041	1.63	1649407	WORD	n/a	n/a	WALL	12	15	[0, 0, 0]	n/a	FR1	1	R1332M
1650.671	0.0	1651037	WORD_OFF	n/a	n/a	WALL	12	15	[0, 0, 0]	n/a	FR1	1	R1332M
1650.671	0.001	1651037	ENCODING_END	n/a	n/a	n/a	-999	15	[0, 0, 0]	n/a	FR1	1	R1332M
1650.672	0.0	1651038	DISTRACT_START	n/a	n/a	n/a	-999	15	[0, 0, 0]	n/a	FR1	1	R1332M
1650.672	0.016	1651038	START	n/a	n/a	n/a	-999	15	[-999, -999, -999]	n/a	FR1	1	R1332M
1650.688	3.917	1651054	PROB	3.917	n/a	n/a	-999	15	[9, 2, 7]	18	FR1	1	R1332M
1654.605	3.367	1654971	PROB	3.367	n/a	n/a	-999	15	[7, 2, 1]	10	FR1	1	R1332M
1657.972	2.334	1658338	PROB	2.334	n/a	n/a	-999	15	[1, 4, 4]	9	FR1	1	R1332M
1660.306	2.1	1660672	PROB	2.1	n/a	n/a	-999	15	[3, 8, 4]	15	FR1	1	R1332M
1662.406	2.051	1662772	PROB	2.051	n/a	n/a	-999	15	[2, 9, 6]	17	FR1	1	R1332M
1664.457	1.766	1664822	PROB	1.766	n/a	n/a	-999	15	[8, 9, 4]	21	FR1	1	R1332M
1666.223	2.701	1666588	PROB	2.701	n/a	n/a	-999	15	[2, 4, 2]	8	FR1	1	R1332M
1668.924	2.09	1669289	PROB	2.09	n/a	n/a	-999	15	[9, 5, 5]	19	FR1	1	R1332M
1671.014	0.011	1671379	STOP	n/a	n/a	n/a	-999	15	[-999, -999, -999]	n/a	FR1	1	R1332M
1671.025	0.537	1671390	DISTRACT_END	n/a	n/a	n/a	-999	15	[0, 0, 0]	n/a	FR1	1	R1332M
1671.562	1.596	1671927	RETRIEVAL_ORIENT_START	n/a	n/a	n/a	-999	15	[0, 0, 0]	n/a	FR1	1	R1332M
1673.158	0.0	1673523	REC_START	n/a	n/a	n/a	-999	15	[0, 0, 0]	n/a	FR1	1	R1332M
1673.158	0.281	1673523	RETRIEVAL_ORIENT_END	n/a	n/a	n/a	-999	15	[0, 0, 0]	n/a	FR1	1	R1332M
1673.439	2.639	1673804	REC_WORD	2.639	n/a	LIP	1	15	[0, 0, 0]	n/a	FR1	1	R1332M
1676.078	4.917	1676443	REC_WORD	4.917	n/a	GOAT	2	15	[0, 0, 0]	n/a	FR1	1	R1332M
1680.995	2.812	1681360	REC_WORD	2.812	n/a	HILL	-999	15	[0, 0, 0]	n/a	FR1	1	R1332M
1683.807	4.761	1684171	REC_WORD	4.761	n/a	BUSH	4	15	[0, 0, 0]	n/a	FR1	1	R1332M
1688.568	14.6	1688932	REC_WORD	14.6	n/a	MOUNTAIN	-999	15	[0, 0, 0]	n/a	FR1	1	R1332M
1703.168	0.0	1703531	REC_END	n/a	n/a	n/a	-999	15	[0, 0, 0]	n/a	FR1	1	R1332M
1703.168	0.015	1703531	TRIAL_END	n/a	n/a	n/a	-999	15	[0, 0, 0]	n/a	FR1	1	R1332M
1703.183	0.0	1703546	TRIAL	n/a	n/a	n/a	-999	16	[0, 0, 0]	n/a	FR1	1	R1332M
1703.183	0.0	1703546	WAITING_START	n/a	n/a	n/a	-999	16	[0, 0, 0]	n/a	FR1	1	R1332M
1703.183	7.15	1703546	TRIAL_START	n/a	n/a	n/a	-999	16	[0, 0, 0]	n/a	FR1	1	R1332M
1710.333	0.0	1710696	WAITING_END	n/a	n/a	n/a	-999	16	[0, 0, 0]	n/a	FR1	1	R1332M
1710.333	10.429	1710696	COUNTDOWN_START	n/a	n/a	n/a	-999	16	[0, 0, 0]	n/a	FR1	1	R1332M
1720.762	0.001	1721125	COUNTDOWN_END	n/a	n/a	n/a	-999	16	[0, 0, 0]	n/a	FR1	1	R1332M
1720.763	1.089	1721126	ORIENT_START	n/a	n/a	n/a	-999	16	[0, 0, 0]	n/a	FR1	1	R1332M
1721.852	0.0	1722214	ORIENT_END	n/a	n/a	n/a	-999	16	[0, 0, 0]	n/a	FR1	1	R1332M
1721.852	0.991	1722214	ENCODING_START	n/a	n/a	n/a	-999	16	[0, 0, 0]	n/a	FR1	1	R1332M
1722.843	1.626	1723205	WORD	n/a	n/a	MUG	1	16	[0, 0, 0]	n/a	FR1	1	R1332M
1724.469	1.061	1724831	WORD_OFF	n/a	n/a	MUG	1	16	[0, 0, 0]	n/a	FR1	1	R1332M
1725.53	1.622	1725892	WORD	n/a	n/a	MOTH	2	16	[0, 0, 0]	n/a	FR1	1	R1332M
1727.152	0.823	1727514	WORD_OFF	n/a	n/a	MOTH	2	16	[0, 0, 0]	n/a	FR1	1	R1332M
1727.975	1.628	1728337	WORD	n/a	n/a	ARK	3	16	[0, 0, 0]	n/a	FR1	1	R1332M
1729.603	1.083	1729965	WORD_OFF	n/a	n/a	ARK	3	16	[0, 0, 0]	n/a	FR1	1	R1332M
1730.686	1.634	1731048	WORD	n/a	n/a	CLAY	4	16	[0, 0, 0]	n/a	FR1	1	R1332M
1732.32	1.071	1732682	WORD_OFF	n/a	n/a	CLAY	4	16	[0, 0, 0]	n/a	FR1	1	R1332M
1733.391	1.63	1733753	WORD	n/a	n/a	DOLL	5	16	[0, 0, 0]	n/a	FR1	1	R1332M
1735.021	0.901	1735383	WORD_OFF	n/a	n/a	DOLL	5	16	[0, 0, 0]	n/a	FR1	1	R1332M
1735.922	1.633	1736284	WORD	n/a	n/a	FOAM	6	16	[0, 0, 0]	n/a	FR1	1	R1332M
1737.555	0.885	1737917	WORD_OFF	n/a	n/a	FOAM	6	16	[0, 0, 0]	n/a	FR1	1	R1332M
1738.44	1.631	1738802	WORD	n/a	n/a	BAT	7	16	[0, 0, 0]	n/a	FR1	1	R1332M
1740.071	0.969	1740433	WORD_OFF	n/a	n/a	BAT	7	16	[0, 0, 0]	n/a	FR1	1	R1332M
1741.04	1.632	1741401	WORD	n/a	n/a	CONE	8	16	[0, 0, 0]	n/a	FR1	1	R1332M
1742.672	0.85	1743033	WORD_OFF	n/a	n/a	CONE	8	16	[0, 0, 0]	n/a	FR1	1	R1332M
1743.522	1.633	1743883	WORD	n/a	n/a	STRAW	9	16	[0, 0, 0]	n/a	FR1	1	R1332M
1745.155	0.976	1745516	WORD_OFF	n/a	n/a	STRAW	9	16	[0, 0, 0]	n/a	FR1	1	R1332M
1746.131	1.609	1746492	WORD	n/a	n/a	PALM	10	16	[0, 0, 0]	n/a	FR1	1	R1332M
1747.74	0.818	1748101	WORD_OFF	n/a	n/a	PALM	10	16	[0, 0, 0]	n/a	FR1	1	R1332M
1748.558	1.631	1748919	WORD	n/a	n/a	TRASH	11	16	[0, 0, 0]	n/a	FR1	1	R1332M
1750.189	0.956	1750550	WORD_OFF	n/a	n/a	TRASH	11	16	[0, 0, 0]	n/a	FR1	1	R1332M
1751.145	1.612	1751506	WORD	n/a	n/a	JUDGE	12	16	[0, 0, 0]	n/a	FR1	1	R1332M
1752.757	0.001	1753118	WORD_OFF	n/a	n/a	JUDGE	12	16	[0, 0, 0]	n/a	FR1	1	R1332M
1752.758	0.0	1753119	ENCODING_END	n/a	n/a	n/a	-999	16	[0, 0, 0]	n/a	FR1	1	R1332M
1752.758	0.0	1753119	DISTRACT_START	n/a	n/a	n/a	-999	16	[0, 0, 0]	n/a	FR1	1	R1332M
1752.758	0.016	1753119	START	n/a	n/a	n/a	-999	16	[-999, -999, -999]	n/a	FR1	1	R1332M
1752.774	3.734	1753135	PROB	3.734	n/a	n/a	-999	16	[9, 5, 1]	15	FR1	1	R1332M
1756.508	1.784	1756869	PROB	1.784	n/a	n/a	-999	16	[2, 3, 6]	11	FR1	1	R1332M
1758.292	3.816	1758653	PROB	3.816	n/a	n/a	-999	16	[1, 6, 9]	16	FR1	1	R1332M
1762.108	2.168	1762468	PROB	2.168	n/a	n/a	-999	16	[3, 5, 8]	16	FR1	1	R1332M
1764.276	3.933	1764636	PROB	3.933	n/a	n/a	-999	16	[7, 2, 8]	17	FR1	1	R1332M
1768.209	2.068	1768569	PROB	2.068	n/a	n/a	-999	16	[2, 3, 2]	7	FR1	1	R1332M
1770.277	1.367	1770637	PROB	1.367	n/a	n/a	-999	16	[2, 2, 1]	5	FR1	1	R1332M
1771.644	2.898	1772004	PROB	2.898	n/a	n/a	-999	16	[6, 6, 7]	19	FR1	1	R1332M
1774.542	0.02	1774902	STOP	n/a	n/a	n/a	-999	16	[-999, -999, -999]	n/a	FR1	1	R1332M
1774.562	0.686	1774922	DISTRACT_END	n/a	n/a	n/a	-999	16	[0, 0, 0]	n/a	FR1	1	R1332M
1775.248	1.614	1775608	RETRIEVAL_ORIENT_START	n/a	n/a	n/a	-999	16	[0, 0, 0]	n/a	FR1	1	R1332M
1776.862	0.0	1777222	RETRIEVAL_ORIENT_END	n/a	n/a	n/a	-999	16	[0, 0, 0]	n/a	FR1	1	R1332M
1776.862	1.165	1777222	REC_START	n/a	n/a	n/a	-999	16	[0, 0, 0]	n/a	FR1	1	R1332M
1778.027	1.029	1778387	REC_WORD	1.029	n/a	MUG	1	16	[0, 0, 0]	n/a	FR1	1	R1332M
1779.056	1.937	1779416	REC_WORD	1.937	n/a	MOTH	2	16	[0, 0, 0]	n/a	FR1	1	R1332M
1780.993	2.827	1781352	REC_WORD	2.827	n/a	ARK	3	16	[0, 0, 0]	n/a	FR1	1	R1332M
1783.82	2.588	1784179	REC_WORD	2.588	n/a	CLAY	4	16	[0, 0, 0]	n/a	FR1	1	R1332M
1786.408	1.096	1786767	REC_WORD	1.096	n/a	FOAM	6	16	[0, 0, 0]	n/a	FR1	1	R1332M
1787.504	5.752	1787863	REC_WORD	5.752	n/a	BAT	7	16	[0, 0, 0]	n/a	FR1	1	R1332M
1793.256	1.762	1793615	REC_WORD	1.762	n/a	BAT	7	16	[0, 0, 0]	n/a	FR1	1	R1332M
1795.018	1.0	1795377	REC_WORD_VV	1.0	n/a	<>	-999	16	[0, 0, 0]	n/a	FR1	1	R1332M
1796.018	7.645	1796377	REC_WORD_VV	7.645	n/a	<>	-999	16	[0, 0, 0]	n/a	FR1	1	R1332M
1803.663	3.21	1804021	REC_WORD	3.21	n/a	PIE	-999	16	[0, 0, 0]	n/a	FR1	1	R1332M
1806.873	0.0	1807231	REC_END	n/a	n/a	n/a	-999	16	[0, 0, 0]	n/a	FR1	1	R1332M
1806.873	0.015	1807231	TRIAL_END	n/a	n/a	n/a	-999	16	[0, 0, 0]	n/a	FR1	1	R1332M
1806.888	0.0	1807246	WAITING_START	n/a	n/a	n/a	-999	17	[0, 0, 0]	n/a	FR1	1	R1332M
1806.888	0.0	1807246	TRIAL_START	n/a	n/a	n/a	-999	17	[0, 0, 0]	n/a	FR1	1	R1332M
1806.888	5.247	1807246	TRIAL	n/a	n/a	n/a	-999	17	[0, 0, 0]	n/a	FR1	1	R1332M
1812.135	0.0	1812493	WAITING_END	n/a	n/a	n/a	-999	17	[0, 0, 0]	n/a	FR1	1	R1332M
1812.135	10.429	1812493	COUNTDOWN_START	n/a	n/a	n/a	-999	17	[0, 0, 0]	n/a	FR1	1	R1332M
1822.564	0.001	1822921	COUNTDOWN_END	n/a	n/a	n/a	-999	17	[0, 0, 0]	n/a	FR1	1	R1332M
1822.565	1.04	1822922	ORIENT_START	n/a	n/a	n/a	-999	17	[0, 0, 0]	n/a	FR1	1	R1332M
1823.605	0.0	1823962	ORIENT_END	n/a	n/a	n/a	-999	17	[0, 0, 0]	n/a	FR1	1	R1332M
1823.605	0.855	1823962	ENCODING_START	n/a	n/a	n/a	-999	17	[0, 0, 0]	n/a	FR1	1	R1332M
1824.46	1.628	1824817	WORD	n/a	n/a	COIN	1	17	[0, 0, 0]	n/a	FR1	1	R1332M
1826.088	0.804	1826445	WORD_OFF	n/a	n/a	COIN	1	17	[0, 0, 0]	n/a	FR1	1	R1332M
1826.892	1.63	1827249	WORD	n/a	n/a	SHEEP	2	17	[0, 0, 0]	n/a	FR1	1	R1332M
1828.522	1.053	1828879	WORD_OFF	n/a	n/a	SHEEP	2	17	[0, 0, 0]	n/a	FR1	1	R1332M
1829.575	1.63	1829932	WORD	n/a	n/a	SWORD	3	17	[0, 0, 0]	n/a	FR1	1	R1332M
1831.205	0.985	1831562	WORD_OFF	n/a	n/a	SWORD	3	17	[0, 0, 0]	n/a	FR1	1	R1332M
1832.19	1.617	1832547	WORD	n/a	n/a	FILM	4	17	[0, 0, 0]	n/a	FR1	1	R1332M
1833.807	0.935	1834164	WORD_OFF	n/a	n/a	FILM	4	17	[0, 0, 0]	n/a	FR1	1	R1332M
1834.742	1.632	1835099	WORD	n/a	n/a	HEART	5	17	[0, 0, 0]	n/a	FR1	1	R1332M
1836.374	0.856	1836731	WORD_OFF	n/a	n/a	HEART	5	17	[0, 0, 0]	n/a	FR1	1	R1332M
1837.23	1.611	1837587	WORD	n/a	n/a	CUP	6	17	[0, 0, 0]	n/a	FR1	1	R1332M
1838.841	1.05	1839197	WORD_OFF	n/a	n/a	CUP	6	17	[0, 0, 0]	n/a	FR1	1	R1332M
1839.891	1.634	1840247	WORD	n/a	n/a	BANK	7	17	[0, 0, 0]	n/a	FR1	1	R1332M
1841.525	0.94	1841881	WORD_OFF	n/a	n/a	BANK	7	17	[0, 0, 0]	n/a	FR1	1	R1332M
1842.465	1.626	1842821	WORD	n/a	n/a	SKY	8	17	[0, 0, 0]	n/a	FR1	1	R1332M
1844.091	1.09	1844447	WORD_OFF	n/a	n/a	SKY	8	17	[0, 0, 0]	n/a	FR1	1	R1332M
1845.181	1.611	1845537	WORD	n/a	n/a	JET	9	17	[0, 0, 0]	n/a	FR1	1	R1332M
1846.792	0.796	1847148	WORD_OFF	n/a	n/a	JET	9	17	[0, 0, 0]	n/a	FR1	1	R1332M
1847.588	1.621	1847944	WORD	n/a	n/a	NAIL	10	17	[0, 0, 0]	n/a	FR1	1	R1332M
1849.209	1.019	1849565	WORD_OFF	n/a	n/a	NAIL	10	17	[0, 0, 0]	n/a	FR1	1	R1332M
1850.228	1.632	1850584	WORD	n/a	n/a	STEAM	11	17	[0, 0, 0]	n/a	FR1	1	R1332M
1851.86	0.881	1852216	WORD_OFF	n/a	n/a	STEAM	11	17	[0, 0, 0]	n/a	FR1	1	R1332M
1852.741	1.636	1853097	WORD	n/a	n/a	POOL	12	17	[0, 0, 0]	n/a	FR1	1	R1332M
1854.377	0.001	1854733	WORD_OFF	n/a	n/a	POOL	12	17	[0, 0, 0]	n/a	FR1	1	R1332M
1854.378	0.0	1854734	ENCODING_END	n/a	n/a	n/a	-999	17	[0, 0, 0]	n/a	FR1	1	R1332M
1854.378	0.0	1854734	DISTRACT_START	n/a	n/a	n/a	-999	17	[0, 0, 0]	n/a	FR1	1	R1332M
1854.378	0.016	1854734	START	n/a	n/a	n/a	-999	17	[-999, -999, -999]	n/a	FR1	1	R1332M
1854.394	4.783	1854750	PROB	4.783	n/a	n/a	-999	17	[5, 7, 9]	21	FR1	1	R1332M
1859.177	1.9	1859532	PROB	1.9	n/a	n/a	-999	17	[6, 6, 1]	13	FR1	1	R1332M
1861.077	2.151	1861432	PROB	2.151	n/a	n/a	-999	17	[5, 1, 8]	14	FR1	1	R1332M
1863.228	1.551	1863583	PROB	1.551	n/a	n/a	-999	17	[4, 5, 3]	12	FR1	1	R1332M
1864.779	2.333	1865134	PROB	2.333	n/a	n/a	-999	17	[5, 3, 2]	10	FR1	1	R1332M
1867.112	3.435	1867467	PROB	3.435	n/a	n/a	-999	17	[3, 3, 4]	10	FR1	1	R1332M
1870.547	4.626	1870902	PROB	4.626	n/a	n/a	-999	17	[9, 9, 6]	24	FR1	1	R1332M
1875.173	0.007	1875528	STOP	n/a	n/a	n/a	-999	17	[-999, -999, -999]	n/a	FR1	1	R1332M
1875.18	0.605	1875535	DISTRACT_END	n/a	n/a	n/a	-999	17	[0, 0, 0]	n/a	FR1	1	R1332M
1875.785	1.53	1876140	RETRIEVAL_ORIENT_START	n/a	n/a	n/a	-999	17	[0, 0, 0]	n/a	FR1	1	R1332M
1877.315	0.0	1877669	RETRIEVAL_ORIENT_END	n/a	n/a	n/a	-999	17	[0, 0, 0]	n/a	FR1	1	R1332M
1877.315	1.281	1877669	REC_START	n/a	n/a	n/a	-999	17	[0, 0, 0]	n/a	FR1	1	R1332M
1878.596	1.666	1878950	REC_WORD	1.666	n/a	COIN	1	17	[0, 0, 0]	n/a	FR1	1	R1332M
1880.262	1.794	1880616	REC_WORD	1.794	n/a	SHEEP	2	17	[0, 0, 0]	n/a	FR1	1	R1332M
1882.056	1.94	1882410	REC_WORD	1.94	n/a	SWORD	3	17	[0, 0, 0]	n/a	FR1	1	R1332M
1883.996	2.644	1884350	REC_WORD	2.644	n/a	FILM	4	17	[0, 0, 0]	n/a	FR1	1	R1332M
1886.64	2.978	1886994	REC_WORD	2.978	n/a	ART	-999	17	[0, 0, 0]	n/a	FR1	1	R1332M
1889.618	3.511	1889972	REC_WORD	3.511	n/a	MAP	-999	17	[0, 0, 0]	n/a	FR1	1	R1332M
1893.129	3.089	1893483	REC_WORD	3.089	n/a	BANK	7	17	[0, 0, 0]	n/a	FR1	1	R1332M
1896.218	11.107	1896571	REC_WORD	11.107	n/a	ART	-999	17	[0, 0, 0]	n/a	FR1	1	R1332M
1907.325	0.0	1907678	TRIAL_END	n/a	n/a	n/a	-999	17	[0, 0, 0]	n/a	FR1	1	R1332M
1907.325	0.015	1907678	REC_END	n/a	n/a	n/a	-999	17	[0, 0, 0]	n/a	FR1	1	R1332M
1907.34	0.0	1907693	TRIAL_START	n/a	n/a	n/a	-999	18	[0, 0, 0]	n/a	FR1	1	R1332M
1907.34	0.0	1907693	TRIAL	n/a	n/a	n/a	-999	18	[0, 0, 0]	n/a	FR1	1	R1332M
1907.34	24.502	1907693	WAITING_START	n/a	n/a	n/a	-999	18	[0, 0, 0]	n/a	FR1	1	R1332M
1931.842	0.001	1932194	WAITING_END	n/a	n/a	n/a	-999	18	[0, 0, 0]	n/a	FR1	1	R1332M
1931.843	10.429	1932195	COUNTDOWN_START	n/a	n/a	n/a	-999	18	[0, 0, 0]	n/a	FR1	1	R1332M
1942.272	0.0	1942623	COUNTDOWN_END	n/a	n/a	n/a	-999	18	[0, 0, 0]	n/a	FR1	1	R1332M
1942.272	1.206	1942623	ORIENT_START	n/a	n/a	n/a	-999	18	[0, 0, 0]	n/a	FR1	1	R1332M
1943.478	0.0	1943829	ORIENT_END	n/a	n/a	n/a	-999	18	[0, 0, 0]	n/a	FR1	1	R1332M
1943.478	0.94	1943829	ENCODING_START	n/a	n/a	n/a	-999	18	[0, 0, 0]	n/a	FR1	1	R1332M
1944.418	1.627	1944769	WORD	n/a	n/a	CANE	1	18	[0, 0, 0]	n/a	FR1	1	R1332M
1946.045	0.997	1946396	WORD_OFF	n/a	n/a	CANE	1	18	[0, 0, 0]	n/a	FR1	1	R1332M
1947.042	1.62	1947393	WORD	n/a	n/a	KEY	2	18	[0, 0, 0]	n/a	FR1	1	R1332M
1948.662	0.78	1949013	WORD_OFF	n/a	n/a	KEY	2	18	[0, 0, 0]	n/a	FR1	1	R1332M
1949.442	1.62	1949793	WORD	n/a	n/a	CALF	3	18	[0, 0, 0]	n/a	FR1	1	R1332M
1951.062	0.892	1951413	WORD_OFF	n/a	n/a	CALF	3	18	[0, 0, 0]	n/a	FR1	1	R1332M
1951.954	1.626	1952305	WORD	n/a	n/a	CORN	4	18	[0, 0, 0]	n/a	FR1	1	R1332M
1953.58	0.839	1953931	WORD_OFF	n/a	n/a	CORN	4	18	[0, 0, 0]	n/a	FR1	1	R1332M
1954.419	1.628	1954769	WORD	n/a	n/a	SLIME	5	18	[0, 0, 0]	n/a	FR1	1	R1332M
1956.047	0.873	1956397	WORD_OFF	n/a	n/a	SLIME	5	18	[0, 0, 0]	n/a	FR1	1	R1332M
1956.92	1.627	1957270	WORD	n/a	n/a	BAND	6	18	[0, 0, 0]	n/a	FR1	1	R1332M
1958.547	1.125	1958897	WORD_OFF	n/a	n/a	BAND	6	18	[0, 0, 0]	n/a	FR1	1	R1332M
1959.672	1.626	1960022	WORD	n/a	n/a	VINE	7	18	[0, 0, 0]	n/a	FR1	1	R1332M
1961.298	1.09	1961648	WORD_OFF	n/a	n/a	VINE	7	18	[0, 0, 0]	n/a	FR1	1	R1332M
1962.388	1.627	1962738	WORD	n/a	n/a	FUDGE	8	18	[0, 0, 0]	n/a	FR1	1	R1332M
1964.015	0.855	1964365	WORD_OFF	n/a	n/a	FUDGE	8	18	[0, 0, 0]	n/a	FR1	1	R1332M
1964.87	1.629	1965220	WORD	n/a	n/a	WHEEL	9	18	[0, 0, 0]	n/a	FR1	1	R1332M
1966.499	0.979	1966849	WORD_OFF	n/a	n/a	WHEEL	9	18	[0, 0, 0]	n/a	FR1	1	R1332M
1967.478	1.621	1967828	WORD	n/a	n/a	DIME	10	18	[0, 0, 0]	n/a	FR1	1	R1332M
1969.099	1.096	1969449	WORD_OFF	n/a	n/a	DIME	10	18	[0, 0, 0]	n/a	FR1	1	R1332M
1970.195	1.638	1970545	WORD	n/a	n/a	CROWN	11	18	[0, 0, 0]	n/a	FR1	1	R1332M
1971.833	0.982	1972183	WORD_OFF	n/a	n/a	CROWN	11	18	[0, 0, 0]	n/a	FR1	1	R1332M
1972.815	1.636	1973165	WORD	n/a	n/a	WEED	12	18	[0, 0, 0]	n/a	FR1	1	R1332M
1974.451	0.0	1974800	WORD_OFF	n/a	n/a	WEED	12	18	[0, 0, 0]	n/a	FR1	1	R1332M
1974.451	0.0	1974800	ENCODING_END	n/a	n/a	n/a	-999	18	[0, 0, 0]	n/a	FR1	1	R1332M
1974.451	0.0	1974800	DISTRACT_START	n/a	n/a	n/a	-999	18	[0, 0, 0]	n/a	FR1	1	R1332M
1974.451	0.016	1974800	START	n/a	n/a	n/a	-999	18	[-999, -999, -999]	n/a	FR1	1	R1332M
1974.467	4.368	1974816	PROB	4.368	n/a	n/a	-999	18	[3, 4, 5]	12	FR1	1	R1332M
1978.835	3.316	1979184	PROB	3.316	n/a	n/a	-999	18	[4, 4, 9]	17	FR1	1	R1332M
1982.151	2.135	1982500	PROB	2.135	n/a	n/a	-999	18	[8, 8, 3]	19	FR1	1	R1332M
1984.286	3.3	1984635	PROB	3.3	n/a	n/a	-999	18	[7, 5, 8]	20	FR1	1	R1332M
1987.586	2.217	1987935	PROB	2.217	n/a	n/a	-999	18	[2, 9, 5]	16	FR1	1	R1332M
1989.803	2.768	1990152	PROB	2.768	n/a	n/a	-999	18	[8, 4, 5]	17	FR1	1	R1332M
1992.571	1.767	1992920	PROB	1.767	n/a	n/a	-999	18	[2, 6, 6]	14	FR1	1	R1332M
1994.338	2.013	1994686	PROB	2.013	n/a	n/a	-999	18	[5, 2, 9]	16	FR1	1	R1332M
1996.351	0.02	1996699	STOP	n/a	n/a	n/a	-999	18	[-999, -999, -999]	n/a	FR1	1	R1332M
1996.371	0.699	1996719	DISTRACT_END	n/a	n/a	n/a	-999	18	[0, 0, 0]	n/a	FR1	1	R1332M
1997.07	1.619	1997418	RETRIEVAL_ORIENT_START	n/a	n/a	n/a	-999	18	[0, 0, 0]	n/a	FR1	1	R1332M
1998.689	0.0	1999037	RETRIEVAL_ORIENT_END	n/a	n/a	n/a	-999	18	[0, 0, 0]	n/a	FR1	1	R1332M
1998.689	0.446	1999037	REC_START	n/a	n/a	n/a	-999	18	[0, 0, 0]	n/a	FR1	1	R1332M
1999.135	1.507	1999483	REC_WORD	1.507	n/a	CANE	1	18	[0, 0, 0]	n/a	FR1	1	R1332M
2000.642	3.95	2000990	REC_WORD	3.95	n/a	KEY	2	18	[0, 0, 0]	n/a	FR1	1	R1332M
2004.592	3.59	2004940	REC_WORD	3.59	n/a	CROWN	11	18	[0, 0, 0]	n/a	FR1	1	R1332M
2008.182	4.146	2008530	REC_WORD	4.146	n/a	SWORD	-999	18	[0, 0, 0]	n/a	FR1	1	R1332M
2012.328	2.054	2012675	REC_WORD	2.054	n/a	SLIME	5	18	[0, 0, 0]	n/a	FR1	1	R1332M
2014.382	14.316	2014729	REC_WORD	14.316	n/a	DIME	10	18	[0, 0, 0]	n/a	FR1	1	R1332M
2028.698	0.0	2029045	REC_END	n/a	n/a	n/a	-999	18	[0, 0, 0]	n/a	FR1	1	R1332M
2028.698	0.015	2029045	TRIAL_END	n/a	n/a	n/a	-999	18	[0, 0, 0]	n/a	FR1	1	R1332M
2028.713	0.001	2029060	TRIAL_START	n/a	n/a	n/a	-999	19	[0, 0, 0]	n/a	FR1	1	R1332M
2028.714	0.0	2029061	WAITING_START	n/a	n/a	n/a	-999	19	[0, 0, 0]	n/a	FR1	1	R1332M
2028.714	6.982	2029061	TRIAL	n/a	n/a	n/a	-999	19	[0, 0, 0]	n/a	FR1	1	R1332M
2035.696	0.0	2036042	WAITING_END	n/a	n/a	n/a	-999	19	[0, 0, 0]	n/a	FR1	1	R1332M
2035.696	10.429	2036042	COUNTDOWN_START	n/a	n/a	n/a	-999	19	[0, 0, 0]	n/a	FR1	1	R1332M
2046.125	0.001	2046471	COUNTDOWN_END	n/a	n/a	n/a	-999	19	[0, 0, 0]	n/a	FR1	1	R1332M
2046.126	1.139	2046472	ORIENT_START	n/a	n/a	n/a	-999	19	[0, 0, 0]	n/a	FR1	1	R1332M
2047.265	0.0	2047611	ORIENT_END	n/a	n/a	n/a	-999	19	[0, 0, 0]	n/a	FR1	1	R1332M
2047.265	1.004	2047611	ENCODING_START	n/a	n/a	n/a	-999	19	[0, 0, 0]	n/a	FR1	1	R1332M
2048.269	1.63	2048615	WORD	n/a	n/a	PANTS	1	19	[0, 0, 0]	n/a	FR1	1	R1332M
2049.899	1.043	2050245	WORD_OFF	n/a	n/a	PANTS	1	19	[0, 0, 0]	n/a	FR1	1	R1332M
2050.942	1.624	2051288	WORD	n/a	n/a	PEARL	2	19	[0, 0, 0]	n/a	FR1	1	R1332M
2052.566	0.846	2052911	WORD_OFF	n/a	n/a	PEARL	2	19	[0, 0, 0]	n/a	FR1	1	R1332M
2053.412	1.621	2053757	WORD	n/a	n/a	CASH	3	19	[0, 0, 0]	n/a	FR1	1	R1332M
2055.033	1.038	2055378	WORD_OFF	n/a	n/a	CASH	3	19	[0, 0, 0]	n/a	FR1	1	R1332M
2056.071	1.629	2056416	WORD	n/a	n/a	BAG	4	19	[0, 0, 0]	n/a	FR1	1	R1332M
2057.7	1.109	2058045	WORD_OFF	n/a	n/a	BAG	4	19	[0, 0, 0]	n/a	FR1	1	R1332M
2058.809	1.625	2059154	WORD	n/a	n/a	TAIL	5	19	[0, 0, 0]	n/a	FR1	1	R1332M
2060.434	0.906	2060779	WORD_OFF	n/a	n/a	TAIL	5	19	[0, 0, 0]	n/a	FR1	1	R1332M
2061.34	1.628	2061685	WORD	n/a	n/a	BEAN	6	19	[0, 0, 0]	n/a	FR1	1	R1332M
2062.968	0.896	2063313	WORD_OFF	n/a	n/a	BEAN	6	19	[0, 0, 0]	n/a	FR1	1	R1332M
2063.864	1.638	2064209	WORD	n/a	n/a	WORLD	7	19	[0, 0, 0]	n/a	FR1	1	R1332M
2065.502	0.796	2065847	WORD_OFF	n/a	n/a	WORLD	7	19	[0, 0, 0]	n/a	FR1	1	R1332M
2066.298	1.637	2066643	WORD	n/a	n/a	SMILE	8	19	[0, 0, 0]	n/a	FR1	1	R1332M
2067.935	0.972	2068280	WORD_OFF	n/a	n/a	SMILE	8	19	[0, 0, 0]	n/a	FR1	1	R1332M
2068.907	1.629	2069252	WORD	n/a	n/a	HEN	9	19	[0, 0, 0]	n/a	FR1	1	R1332M
2070.536	0.757	2070880	WORD_OFF	n/a	n/a	HEN	9	19	[0, 0, 0]	n/a	FR1	1	R1332M
2071.293	1.627	2071637	WORD	n/a	n/a	PHONE	10	19	[0, 0, 0]	n/a	FR1	1	R1332M
2072.92	0.839	2073264	WORD_OFF	n/a	n/a	PHONE	10	19	[0, 0, 0]	n/a	FR1	1	R1332M
2073.759	1.628	2074103	WORD	n/a	n/a	HOOK	11	19	[0, 0, 0]	n/a	FR1	1	R1332M
2075.387	1.112	2075731	WORD_OFF	n/a	n/a	HOOK	11	19	[0, 0, 0]	n/a	FR1	1	R1332M
2076.499	1.621	2076843	WORD	n/a	n/a	CAT	12	19	[0, 0, 0]	n/a	FR1	1	R1332M
2078.12	0.0	2078464	WORD_OFF	n/a	n/a	CAT	12	19	[0, 0, 0]	n/a	FR1	1	R1332M
2078.12	0.0	2078464	ENCODING_END	n/a	n/a	n/a	-999	19	[0, 0, 0]	n/a	FR1	1	R1332M
2078.12	0.001	2078464	DISTRACT_START	n/a	n/a	n/a	-999	19	[0, 0, 0]	n/a	FR1	1	R1332M
2078.121	0.015	2078465	START	n/a	n/a	n/a	-999	19	[-999, -999, -999]	n/a	FR1	1	R1332M
2078.136	3.219	2078480	PROB	3.219	n/a	n/a	-999	19	[2, 6, 6]	14	FR1	1	R1332M
2081.355	3.716	2081699	PROB	3.716	n/a	n/a	-999	19	[8, 8, 2]	18	FR1	1	R1332M
2085.071	2.835	2085415	PROB	2.835	n/a	n/a	-999	19	[3, 3, 4]	10	FR1	1	R1332M
2087.906	1.9	2088250	PROB	1.9	n/a	n/a	-999	19	[6, 3, 5]	14	FR1	1	R1332M
2089.806	2.784	2090149	PROB	2.784	n/a	n/a	-999	19	[9, 5, 2]	16	FR1	1	R1332M
2092.59	1.817	2092933	PROB	1.817	n/a	n/a	-999	19	[2, 3, 8]	13	FR1	1	R1332M
2094.407	2.0	2094750	PROB	2.0	n/a	n/a	-999	19	[3, 4, 4]	11	FR1	1	R1332M
2096.407	5.267	2096750	PROB	5.267	n/a	n/a	-999	19	[7, 9, 9]	25	FR1	1	R1332M
2101.674	0.018	2102017	STOP	n/a	n/a	n/a	-999	19	[-999, -999, -999]	n/a	FR1	1	R1332M
2101.692	0.561	2102035	DISTRACT_END	n/a	n/a	n/a	-999	19	[0, 0, 0]	n/a	FR1	1	R1332M
2102.253	1.589	2102596	RETRIEVAL_ORIENT_START	n/a	n/a	n/a	-999	19	[0, 0, 0]	n/a	FR1	1	R1332M
2103.842	0.001	2104185	RETRIEVAL_ORIENT_END	n/a	n/a	n/a	-999	19	[0, 0, 0]	n/a	FR1	1	R1332M
2103.843	2.63	2104186	REC_START	n/a	n/a	n/a	-999	19	[0, 0, 0]	n/a	FR1	1	R1332M
2106.473	2.087	2106816	REC_WORD	2.087	n/a	CASH	3	19	[0, 0, 0]	n/a	FR1	1	R1332M
2108.56	3.906	2108903	REC_WORD	3.906	n/a	PEARL	2	19	[0, 0, 0]	n/a	FR1	1	R1332M
2112.466	4.087	2112808	REC_WORD	4.087	n/a	PANTS	1	19	[0, 0, 0]	n/a	FR1	1	R1332M
2116.553	5.932	2116895	REC_WORD	5.932	n/a	SMILE	8	19	[0, 0, 0]	n/a	FR1	1	R1332M
2122.485	11.367	2122827	REC_WORD	11.367	n/a	HEN	9	19	[0, 0, 0]	n/a	FR1	1	R1332M
2133.852	0.001	2134193	REC_END	n/a	n/a	n/a	-999	19	[0, 0, 0]	n/a	FR1	1	R1332M
2133.853	0.015	2134194	TRIAL_END	n/a	n/a	n/a	-999	19	[0, 0, 0]	n/a	FR1	1	R1332M
2133.868	0.0	2134209	TRIAL_START	n/a	n/a	n/a	-999	20	[0, 0, 0]	n/a	FR1	1	R1332M
2133.868	0.0	2134209	TRIAL	n/a	n/a	n/a	-999	20	[0, 0, 0]	n/a	FR1	1	R1332M
2133.868	7.482	2134209	WAITING_START	n/a	n/a	n/a	-999	20	[0, 0, 0]	n/a	FR1	1	R1332M
2141.35	0.0	2141691	COUNTDOWN_START	n/a	n/a	n/a	-999	20	[0, 0, 0]	n/a	FR1	1	R1332M
2141.35	10.429	2141691	WAITING_END	n/a	n/a	n/a	-999	20	[0, 0, 0]	n/a	FR1	1	R1332M
2151.779	0.0	2152119	COUNTDOWN_END	n/a	n/a	n/a	-999	20	[0, 0, 0]	n/a	FR1	1	R1332M
2151.779	1.156	2152119	ORIENT_START	n/a	n/a	n/a	-999	20	[0, 0, 0]	n/a	FR1	1	R1332M
2152.935	0.001	2153275	ORIENT_END	n/a	n/a	n/a	-999	20	[0, 0, 0]	n/a	FR1	1	R1332M
2152.936	0.893	2153276	ENCODING_START	n/a	n/a	n/a	-999	20	[0, 0, 0]	n/a	FR1	1	R1332M
2153.829	1.623	2154169	WORD	n/a	n/a	TRAIN	1	20	[0, 0, 0]	n/a	FR1	1	R1332M
2155.452	1.075	2155792	WORD_OFF	n/a	n/a	TRAIN	1	20	[0, 0, 0]	n/a	FR1	1	R1332M
2156.527	1.625	2156867	WORD	n/a	n/a	LAMB	2	20	[0, 0, 0]	n/a	FR1	1	R1332M
2158.152	0.758	2158492	WORD_OFF	n/a	n/a	LAMB	2	20	[0, 0, 0]	n/a	FR1	1	R1332M
2158.91	1.61	2159250	WORD	n/a	n/a	FOOD	3	20	[0, 0, 0]	n/a	FR1	1	R1332M
2160.52	1.114	2160860	WORD_OFF	n/a	n/a	FOOD	3	20	[0, 0, 0]	n/a	FR1	1	R1332M
2161.634	1.637	2161974	WORD	n/a	n/a	CLOWN	4	20	[0, 0, 0]	n/a	FR1	1	R1332M
2163.271	0.835	2163611	WORD_OFF	n/a	n/a	CLOWN	4	20	[0, 0, 0]	n/a	FR1	1	R1332M
2164.106	1.632	2164446	WORD	n/a	n/a	BEAK	5	20	[0, 0, 0]	n/a	FR1	1	R1332M
2165.738	1.005	2166078	WORD_OFF	n/a	n/a	BEAK	5	20	[0, 0, 0]	n/a	FR1	1	R1332M
2166.743	1.629	2167083	WORD	n/a	n/a	KITE	6	20	[0, 0, 0]	n/a	FR1	1	R1332M
2168.372	1.15	2168711	WORD_OFF	n/a	n/a	KITE	6	20	[0, 0, 0]	n/a	FR1	1	R1332M
2169.522	1.632	2169861	WORD	n/a	n/a	WORM	7	20	[0, 0, 0]	n/a	FR1	1	R1332M
2171.154	1.137	2171493	WORD_OFF	n/a	n/a	WORM	7	20	[0, 0, 0]	n/a	FR1	1	R1332M
2172.291	1.632	2172630	WORD	n/a	n/a	EAR	8	20	[0, 0, 0]	n/a	FR1	1	R1332M
2173.923	1.003	2174262	WORD_OFF	n/a	n/a	EAR	8	20	[0, 0, 0]	n/a	FR1	1	R1332M
2174.926	1.631	2175265	WORD	n/a	n/a	FOOT	9	20	[0, 0, 0]	n/a	FR1	1	R1332M
2176.557	0.953	2176896	WORD_OFF	n/a	n/a	FOOT	9	20	[0, 0, 0]	n/a	FR1	1	R1332M
2177.51	1.629	2177849	WORD	n/a	n/a	GOLD	10	20	[0, 0, 0]	n/a	FR1	1	R1332M
2179.139	0.992	2179478	WORD_OFF	n/a	n/a	GOLD	10	20	[0, 0, 0]	n/a	FR1	1	R1332M
2180.131	1.61	2180470	WORD	n/a	n/a	CAPE	11	20	[0, 0, 0]	n/a	FR1	1	R1332M
2181.741	0.763	2182080	WORD_OFF	n/a	n/a	CAPE	11	20	[0, 0, 0]	n/a	FR1	1	R1332M
2182.504	1.636	2182843	WORD	n/a	n/a	THREAD	12	20	[0, 0, 0]	n/a	FR1	1	R1332M
2184.14	0.001	2184479	WORD_OFF	n/a	n/a	THREAD	12	20	[0, 0, 0]	n/a	FR1	1	R1332M
2184.141	0.0	2184480	ENCODING_END	n/a	n/a	n/a	-999	20	[0, 0, 0]	n/a	FR1	1	R1332M
2184.141	0.0	2184480	DISTRACT_START	n/a	n/a	n/a	-999	20	[0, 0, 0]	n/a	FR1	1	R1332M
2184.141	0.016	2184480	START	n/a	n/a	n/a	-999	20	[-999, -999, -999]	n/a	FR1	1	R1332M
2184.157	4.318	2184496	PROB	4.318	n/a	n/a	-999	20	[7, 2, 1]	10	FR1	1	R1332M
2188.475	1.901	2188813	PROB	1.901	n/a	n/a	-999	20	[5, 5, 7]	17	FR1	1	R1332M
2190.376	1.815	2190714	PROB	1.815	n/a	n/a	-999	20	[4, 4, 2]	10	FR1	1	R1332M
2192.191	2.219	2192529	PROB	2.219	n/a	n/a	-999	20	[4, 2, 4]	10	FR1	1	R1332M
2194.41	3.084	2194748	PROB	3.084	n/a	n/a	-999	20	[6, 4, 8]	18	FR1	1	R1332M
2197.494	3.599	2197832	PROB	3.599	n/a	n/a	-999	20	[9, 9, 6]	24	FR1	1	R1332M
2201.093	2.319	2201431	PROB	2.319	n/a	n/a	-999	20	[7, 8, 8]	2	FR1	1	R1332M
2203.412	2.653	2203750	PROB	2.653	n/a	n/a	-999	20	[8, 4, 8]	20	FR1	1	R1332M
2206.065	0.013	2206403	STOP	n/a	n/a	n/a	-999	20	[-999, -999, -999]	n/a	FR1	1	R1332M
2206.078	0.523	2206416	DISTRACT_END	n/a	n/a	n/a	-999	20	[0, 0, 0]	n/a	FR1	1	R1332M
2206.601	1.662	2206938	RETRIEVAL_ORIENT_START	n/a	n/a	n/a	-999	20	[0, 0, 0]	n/a	FR1	1	R1332M
2208.263	0.0	2208600	RETRIEVAL_ORIENT_END	n/a	n/a	n/a	-999	20	[0, 0, 0]	n/a	FR1	1	R1332M
2208.263	1.468	2208600	REC_START	n/a	n/a	n/a	-999	20	[0, 0, 0]	n/a	FR1	1	R1332M
2209.731	2.856	2210068	REC_WORD	2.856	n/a	BEAK	5	20	[0, 0, 0]	n/a	FR1	1	R1332M
2212.587	4.504	2212924	REC_WORD	4.504	n/a	GOLD	10	20	[0, 0, 0]	n/a	FR1	1	R1332M
2217.091	13.487	2217428	REC_WORD	13.487	n/a	HEN	-999	20	[0, 0, 0]	n/a	FR1	1	R1332M
2230.578	7.694	2230914	REC_WORD	7.694	n/a	THREAD	12	20	[0, 0, 0]	n/a	FR1	1	R1332M
2238.272	0.0	2238608	REC_END	n/a	n/a	n/a	-999	20	[0, 0, 0]	n/a	FR1	1	R1332M
2238.272	0.016	2238608	TRIAL_END	n/a	n/a	n/a	-999	20	[0, 0, 0]	n/a	FR1	1	R1332M
2238.288	0.0	2238624	TRIAL_START	n/a	n/a	n/a	-999	21	[0, 0, 0]	n/a	FR1	1	R1332M
2238.288	0.0	2238624	TRIAL	n/a	n/a	n/a	-999	21	[0, 0, 0]	n/a	FR1	1	R1332M
2238.288	4.715	2238624	WAITING_START	n/a	n/a	n/a	-999	21	[0, 0, 0]	n/a	FR1	1	R1332M
2243.003	0.0	2243339	WAITING_END	n/a	n/a	n/a	-999	21	[0, 0, 0]	n/a	FR1	1	R1332M
2243.003	10.428	2243339	COUNTDOWN_START	n/a	n/a	n/a	-999	21	[0, 0, 0]	n/a	FR1	1	R1332M
2253.431	0.001	2253766	COUNTDOWN_END	n/a	n/a	n/a	-999	21	[0, 0, 0]	n/a	FR1	1	R1332M
2253.432	1.24	2253767	ORIENT_START	n/a	n/a	n/a	-999	21	[0, 0, 0]	n/a	FR1	1	R1332M
2254.672	0.0	2255007	ENCODING_START	n/a	n/a	n/a	-999	21	[0, 0, 0]	n/a	FR1	1	R1332M
2254.672	0.987	2255007	ORIENT_END	n/a	n/a	n/a	-999	21	[0, 0, 0]	n/a	FR1	1	R1332M
2255.659	1.63	2255994	WORD	n/a	n/a	STICK	1	21	[0, 0, 0]	n/a	FR1	1	R1332M
2257.289	0.799	2257624	WORD_OFF	n/a	n/a	STICK	1	21	[0, 0, 0]	n/a	FR1	1	R1332M
2258.088	1.618	2258423	WORD	n/a	n/a	BOX	2	21	[0, 0, 0]	n/a	FR1	1	R1332M
2259.706	1.135	2260041	WORD_OFF	n/a	n/a	BOX	2	21	[0, 0, 0]	n/a	FR1	1	R1332M
2260.841	1.632	2261176	WORD	n/a	n/a	WHALE	3	21	[0, 0, 0]	n/a	FR1	1	R1332M
2262.473	0.93	2262808	WORD_OFF	n/a	n/a	WHALE	3	21	[0, 0, 0]	n/a	FR1	1	R1332M
2263.403	1.621	2263738	WORD	n/a	n/a	SEA	4	21	[0, 0, 0]	n/a	FR1	1	R1332M
2265.024	0.768	2265358	WORD_OFF	n/a	n/a	SEA	4	21	[0, 0, 0]	n/a	FR1	1	R1332M
2265.792	1.632	2266126	WORD	n/a	n/a	FLUTE	5	21	[0, 0, 0]	n/a	FR1	1	R1332M
2267.424	1.091	2267758	WORD_OFF	n/a	n/a	FLUTE	5	21	[0, 0, 0]	n/a	FR1	1	R1332M
2268.515	1.625	2268849	WORD	n/a	n/a	BEE	6	21	[0, 0, 0]	n/a	FR1	1	R1332M
2270.14	0.888	2270474	WORD_OFF	n/a	n/a	BEE	6	21	[0, 0, 0]	n/a	FR1	1	R1332M
2271.028	1.63	2271362	WORD	n/a	n/a	FLOOR	7	21	[0, 0, 0]	n/a	FR1	1	R1332M
2272.658	1.03	2272992	WORD_OFF	n/a	n/a	FLOOR	7	21	[0, 0, 0]	n/a	FR1	1	R1332M
2273.688	1.621	2274022	WORD	n/a	n/a	FLEA	8	21	[0, 0, 0]	n/a	FR1	1	R1332M
2275.309	0.774	2275643	WORD_OFF	n/a	n/a	FLEA	8	21	[0, 0, 0]	n/a	FR1	1	R1332M
2276.083	1.61	2276417	WORD	n/a	n/a	BRANCH	9	21	[0, 0, 0]	n/a	FR1	1	R1332M
2277.693	0.85	2278027	WORD_OFF	n/a	n/a	BRANCH	9	21	[0, 0, 0]	n/a	FR1	1	R1332M
2278.543	1.633	2278877	WORD	n/a	n/a	SIGN	10	21	[0, 0, 0]	n/a	FR1	1	R1332M
2280.176	0.782	2280510	WORD_OFF	n/a	n/a	SIGN	10	21	[0, 0, 0]	n/a	FR1	1	R1332M
2280.958	1.636	2281292	WORD	n/a	n/a	TOOTH	11	21	[0, 0, 0]	n/a	FR1	1	R1332M
2282.594	0.762	2282928	WORD_OFF	n/a	n/a	TOOTH	11	21	[0, 0, 0]	n/a	FR1	1	R1332M
2283.356	1.622	2283690	WORD	n/a	n/a	PIT	12	21	[0, 0, 0]	n/a	FR1	1	R1332M
2284.978	0.0	2285311	WORD_OFF	n/a	n/a	PIT	12	21	[0, 0, 0]	n/a	FR1	1	R1332M
2284.978	0.0	2285311	ENCODING_END	n/a	n/a	n/a	-999	21	[0, 0, 0]	n/a	FR1	1	R1332M
2284.978	0.0	2285311	DISTRACT_START	n/a	n/a	n/a	-999	21	[0, 0, 0]	n/a	FR1	1	R1332M
2284.978	0.016	2285311	START	n/a	n/a	n/a	-999	21	[-999, -999, -999]	n/a	FR1	1	R1332M
2284.994	2.884	2285327	PROB	2.884	n/a	n/a	-999	21	[8, 9, 5]	22	FR1	1	R1332M
2287.878	2.299	2288211	PROB	2.299	n/a	n/a	-999	21	[1, 8, 7]	16	FR1	1	R1332M
2290.177	2.235	2290510	PROB	2.235	n/a	n/a	-999	21	[6, 5, 4]	15	FR1	1	R1332M
2292.412	1.934	2292745	PROB	1.934	n/a	n/a	-999	21	[1, 3, 3]	7	FR1	1	R1332M
2294.346	1.534	2294679	PROB	1.534	n/a	n/a	-999	21	[6, 4, 3]	13	FR1	1	R1332M
2295.88	2.833	2296213	PROB	2.833	n/a	n/a	-999	21	[4, 6, 5]	16	FR1	1	R1332M
2298.713	3.101	2299046	PROB	3.101	n/a	n/a	-999	21	[6, 3, 3]	12	FR1	1	R1332M
2301.814	2.0	2302147	PROB	2.0	n/a	n/a	-999	21	[1, 4, 7]	12	FR1	1	R1332M
2303.814	1.914	2304146	PROB	1.914	n/a	n/a	-999	21	[8, 3, 2]	13	FR1	1	R1332M
2305.728	0.02	2306060	STOP	n/a	n/a	n/a	-999	21	[-999, -999, -999]	n/a	FR1	1	R1332M
2305.748	0.645	2306080	DISTRACT_END	n/a	n/a	n/a	-999	21	[0, 0, 0]	n/a	FR1	1	R1332M
2306.393	1.656	2306725	RETRIEVAL_ORIENT_START	n/a	n/a	n/a	-999	21	[0, 0, 0]	n/a	FR1	1	R1332M
2308.049	0.0	2308381	RETRIEVAL_ORIENT_END	n/a	n/a	n/a	-999	21	[0, 0, 0]	n/a	FR1	1	R1332M
2308.049	0.728	2308381	REC_START	n/a	n/a	n/a	-999	21	[0, 0, 0]	n/a	FR1	1	R1332M
2308.777	1.746	2309109	REC_WORD	1.746	n/a	STICK	1	21	[0, 0, 0]	n/a	FR1	1	R1332M
2310.523	2.291	2310855	REC_WORD	2.291	n/a	BOX	2	21	[0, 0, 0]	n/a	FR1	1	R1332M
2312.814	1.406	2313146	REC_WORD	1.406	n/a	WHALE	3	21	[0, 0, 0]	n/a	FR1	1	R1332M
2314.22	2.021	2314552	REC_WORD	2.021	n/a	SEA	4	21	[0, 0, 0]	n/a	FR1	1	R1332M
2316.241	2.32	2316573	REC_WORD	2.32	n/a	FLOOR	7	21	[0, 0, 0]	n/a	FR1	1	R1332M
2318.561	13.344	2318893	REC_WORD	13.344	n/a	BRANCH	9	21	[0, 0, 0]	n/a	FR1	1	R1332M
2331.905	6.153	2332236	REC_WORD	6.153	n/a	TOOTH	11	21	[0, 0, 0]	n/a	FR1	1	R1332M
2338.058	0.001	2338389	REC_END	n/a	n/a	n/a	-999	21	[0, 0, 0]	n/a	FR1	1	R1332M
2338.059	0.014	2338390	TRIAL_END	n/a	n/a	n/a	-999	21	[0, 0, 0]	n/a	FR1	1	R1332M
2338.073	0.0	2338404	TRIAL_START	n/a	n/a	n/a	-999	22	[0, 0, 0]	n/a	FR1	1	R1332M
2338.073	0.0	2338404	TRIAL	n/a	n/a	n/a	-999	22	[0, 0, 0]	n/a	FR1	1	R1332M
2338.073	2.048	2338404	WAITING_START	n/a	n/a	n/a	-999	22	[0, 0, 0]	n/a	FR1	1	R1332M
2340.121	0.0	2340452	WAITING_END	n/a	n/a	n/a	-999	22	[0, 0, 0]	n/a	FR1	1	R1332M
2340.121	10.429	2340452	COUNTDOWN_START	n/a	n/a	n/a	-999	22	[0, 0, 0]	n/a	FR1	1	R1332M
2350.55	0.0	2350880	COUNTDOWN_END	n/a	n/a	n/a	-999	22	[0, 0, 0]	n/a	FR1	1	R1332M
2350.55	1.257	2350880	ORIENT_START	n/a	n/a	n/a	-999	22	[0, 0, 0]	n/a	FR1	1	R1332M
2351.807	0.001	2352137	ORIENT_END	n/a	n/a	n/a	-999	22	[0, 0, 0]	n/a	FR1	1	R1332M
2351.808	1.127	2352138	ENCODING_START	n/a	n/a	n/a	-999	22	[0, 0, 0]	n/a	FR1	1	R1332M
2352.935	1.623	2353265	WORD	n/a	n/a	NOSE	1	22	[0, 0, 0]	n/a	FR1	1	R1332M
2354.558	1.092	2354888	WORD_OFF	n/a	n/a	NOSE	1	22	[0, 0, 0]	n/a	FR1	1	R1332M
2355.65	1.625	2355980	WORD	n/a	n/a	HOOF	2	22	[0, 0, 0]	n/a	FR1	1	R1332M
2357.275	1.129	2357605	WORD_OFF	n/a	n/a	HOOF	2	22	[0, 0, 0]	n/a	FR1	1	R1332M
2358.404	1.621	2358734	WORD	n/a	n/a	MAIL	3	22	[0, 0, 0]	n/a	FR1	1	R1332M
2360.025	0.818	2360355	WORD_OFF	n/a	n/a	MAIL	3	22	[0, 0, 0]	n/a	FR1	1	R1332M
2360.843	1.633	2361173	WORD	n/a	n/a	TOE	4	22	[0, 0, 0]	n/a	FR1	1	R1332M
2362.476	0.852	2362805	WORD_OFF	n/a	n/a	TOE	4	22	[0, 0, 0]	n/a	FR1	1	R1332M
2363.328	1.632	2363657	WORD	n/a	n/a	SAIL	5	22	[0, 0, 0]	n/a	FR1	1	R1332M
2364.96	0.922	2365289	WORD_OFF	n/a	n/a	SAIL	5	22	[0, 0, 0]	n/a	FR1	1	R1332M
2365.882	1.628	2366211	WORD	n/a	n/a	JEEP	6	22	[0, 0, 0]	n/a	FR1	1	R1332M
2367.51	1.14	2367839	WORD_OFF	n/a	n/a	JEEP	6	22	[0, 0, 0]	n/a	FR1	1	R1332M
