onset	duration	sample	trial_type	response_time	stim_file	item_name	serialpos	list	test	answer	experiment	session	subject
0.0	0.0	21696	INSTRUCT_START	n/a	n/a	n/a	-999	-999	[0, 0, 0]	n/a	FR1	0	R1195E
0.0	10.93	21696	INSTRUCT_END	n/a	n/a	n/a	-999	-999	[0, 0, 0]	n/a	FR1	0	R1195E
10.93	0.0	32626	SESS_START	n/a	n/a	n/a	-999	-999	[0, 0, 0]	n/a	FR1	0	R1195E
10.93	184.129	32626	MIC_TEST	n/a	n/a	n/a	-999	-999	[0, 0, 0]	n/a	FR1	0	R1195E
195.059	26.447	216748	PRACTICE_TRIAL	n/a	n/a	n/a	-999	-1	[0, 0, 0]	n/a	FR1	0	R1195E
221.506	10.428	243194	COUNTDOWN_START	n/a	n/a	n/a	-999	-1	[0, 0, 0]	n/a	FR1	0	R1195E
231.934	0.007	253621	COUNTDOWN_END	n/a	n/a	n/a	-999	-1	[0, 0, 0]	n/a	FR1	0	R1195E
231.941	1.618	253628	PRACTICE_ORIENT	n/a	n/a	n/a	-999	-1	[0, 0, 0]	n/a	FR1	0	R1195E
233.559	2.216	255246	PRACTICE_ORIENT_OFF	n/a	n/a	n/a	-999	-1	[0, 0, 0]	n/a	FR1	0	R1195E
235.775	1.618	257462	PRACTICE_WORD	n/a	n/a	WAGON	1	-1	[0, 0, 0]	n/a	FR1	0	R1195E
237.393	0.867	259080	PRACTICE_WORD_OFF	n/a	n/a	WAGON	-999	-1	[0, 0, 0]	n/a	FR1	0	R1195E
238.26	1.616	259947	PRACTICE_WORD	n/a	n/a	COTTON	2	-1	[0, 0, 0]	n/a	FR1	0	R1195E
239.876	0.933	261563	PRACTICE_WORD_OFF	n/a	n/a	COTTON	-999	-1	[0, 0, 0]	n/a	FR1	0	R1195E
240.809	1.601	262496	PRACTICE_WORD	n/a	n/a	TONGUE	3	-1	[0, 0, 0]	n/a	FR1	0	R1195E
242.41	0.867	264097	PRACTICE_WORD_OFF	n/a	n/a	TONGUE	-999	-1	[0, 0, 0]	n/a	FR1	0	R1195E
243.277	1.616	264964	PRACTICE_WORD	n/a	n/a	CHEST	4	-1	[0, 0, 0]	n/a	FR1	0	R1195E
244.893	0.9	266580	PRACTICE_WORD_OFF	n/a	n/a	CHEST	-999	-1	[0, 0, 0]	n/a	FR1	0	R1195E
245.793	1.618	267480	PRACTICE_WORD	n/a	n/a	ATTIC	5	-1	[0, 0, 0]	n/a	FR1	0	R1195E
247.411	1.001	269098	PRACTICE_WORD_OFF	n/a	n/a	ATTIC	-999	-1	[0, 0, 0]	n/a	FR1	0	R1195E
248.412	1.616	270099	PRACTICE_WORD	n/a	n/a	RING	6	-1	[0, 0, 0]	n/a	FR1	0	R1195E
250.028	0.916	271715	PRACTICE_WORD_OFF	n/a	n/a	RING	-999	-1	[0, 0, 0]	n/a	FR1	0	R1195E
250.944	1.618	272631	PRACTICE_WORD	n/a	n/a	CAMEL	7	-1	[0, 0, 0]	n/a	FR1	0	R1195E
252.562	0.884	274249	PRACTICE_WORD_OFF	n/a	n/a	CAMEL	-999	-1	[0, 0, 0]	n/a	FR1	0	R1195E
253.446	1.616	275133	PRACTICE_WORD	n/a	n/a	FLOOD	8	-1	[0, 0, 0]	n/a	FR1	0	R1195E
255.062	0.933	276748	PRACTICE_WORD_OFF	n/a	n/a	FLOOD	-999	-1	[0, 0, 0]	n/a	FR1	0	R1195E
255.995	1.618	277681	PRACTICE_WORD	n/a	n/a	BEAM	9	-1	[0, 0, 0]	n/a	FR1	0	R1195E
257.613	0.817	279299	PRACTICE_WORD_OFF	n/a	n/a	BEAM	-999	-1	[0, 0, 0]	n/a	FR1	0	R1195E
258.43	1.616	280116	PRACTICE_WORD	n/a	n/a	WATCH	10	-1	[0, 0, 0]	n/a	FR1	0	R1195E
260.046	0.967	281732	PRACTICE_WORD_OFF	n/a	n/a	WATCH	-999	-1	[0, 0, 0]	n/a	FR1	0	R1195E
261.013	1.618	282699	PRACTICE_WORD	n/a	n/a	IRON	11	-1	[0, 0, 0]	n/a	FR1	0	R1195E
262.631	0.817	284317	PRACTICE_WORD_OFF	n/a	n/a	IRON	-999	-1	[0, 0, 0]	n/a	FR1	0	R1195E
263.448	1.615	285134	PRACTICE_WORD	n/a	n/a	RHINO	12	-1	[0, 0, 0]	n/a	FR1	0	R1195E
265.063	0.0	286749	PRACTICE_WORD_OFF	n/a	n/a	RHINO	-999	-1	[0, 0, 0]	n/a	FR1	0	R1195E
265.063	0.001	286749	DISTRACT_START	n/a	n/a	n/a	-999	-1	[0, 0, 0]	n/a	FR1	0	R1195E
265.064	0.016	286750	START	n/a	n/a	n/a	-999	-1	[-999, -999, -999]	n/a	FR1	0	R1195E
265.08	8.503	286766	PROB	8.503	n/a	n/a	-999	-1	[6, 1, 5]	12	FR1	0	R1195E
273.583	11.434	295269	PROB	11.434	n/a	n/a	-999	-1	[9, 7, 8]	22	FR1	0	R1195E
285.017	15.188	306702	PROB	15.188	n/a	n/a	-999	-1	[7, 9, 9]	25	FR1	0	R1195E
300.205	0.016	321890	STOP	n/a	n/a	n/a	-999	-1	[-999, -999, -999]	n/a	FR1	0	R1195E
300.221	0.632	321906	DISTRACT_END	n/a	n/a	n/a	-999	-1	[0, 0, 0]	n/a	FR1	0	R1195E
300.853	0.523	322538	RETRIEVAL_ORIENT	n/a	n/a	n/a	-999	-1	[0, 0, 0]	n/a	FR1	0	R1195E
301.376	30.006	323061	PRACTICE_REC_START	n/a	n/a	n/a	-999	-1	[0, 0, 0]	n/a	FR1	0	R1195E
331.382	18.396	353066	PRACTICE_REC_END	n/a	n/a	n/a	-999	-1	[0, 0, 0]	n/a	FR1	0	R1195E
349.778	0.5	371461	TRIAL	n/a	n/a	n/a	-999	1	[0, 0, 0]	n/a	FR1	0	R1195E
350.278	10.428	371961	COUNTDOWN_START	n/a	n/a	n/a	-999	1	[0, 0, 0]	n/a	FR1	0	R1195E
360.706	0.009	382389	COUNTDOWN_END	n/a	n/a	n/a	-999	1	[0, 0, 0]	n/a	FR1	0	R1195E
360.715	1.617	382398	ORIENT	n/a	n/a	n/a	-999	1	[0, 0, 0]	n/a	FR1	0	R1195E
362.332	2.267	384014	ORIENT_OFF	n/a	n/a	n/a	-999	1	[0, 0, 0]	n/a	FR1	0	R1195E
364.599	1.617	386281	WORD	n/a	wordpools/wordpool_EN.txt	PALM	1	1	[0, 0, 0]	n/a	FR1	0	R1195E
366.216	0.916	387898	WORD_OFF	n/a	n/a	PALM	1	1	[0, 0, 0]	n/a	FR1	0	R1195E
367.132	1.616	388814	WORD	n/a	wordpools/wordpool_EN.txt	SKI	2	1	[0, 0, 0]	n/a	FR1	0	R1195E
368.748	0.785	390430	WORD_OFF	n/a	n/a	SKI	2	1	[0, 0, 0]	n/a	FR1	0	R1195E
369.533	1.617	391215	WORD	n/a	wordpools/wordpool_EN.txt	HEN	3	1	[0, 0, 0]	n/a	FR1	0	R1195E
371.15	0.782	392832	WORD_OFF	n/a	n/a	HEN	3	1	[0, 0, 0]	n/a	FR1	0	R1195E
371.932	1.618	393614	WORD	n/a	wordpools/wordpool_EN.txt	SUN	4	1	[0, 0, 0]	n/a	FR1	0	R1195E
373.55	0.9	395232	WORD_OFF	n/a	n/a	SUN	4	1	[0, 0, 0]	n/a	FR1	0	R1195E
374.45	1.616	396132	WORD	n/a	wordpools/wordpool_EN.txt	FENCE	5	1	[0, 0, 0]	n/a	FR1	0	R1195E
376.066	0.951	397748	WORD_OFF	n/a	n/a	FENCE	5	1	[0, 0, 0]	n/a	FR1	0	R1195E
377.017	1.618	398699	WORD	n/a	wordpools/wordpool_EN.txt	BARN	6	1	[0, 0, 0]	n/a	FR1	0	R1195E
378.635	0.766	400317	WORD_OFF	n/a	n/a	BARN	6	1	[0, 0, 0]	n/a	FR1	0	R1195E
379.401	1.616	401083	WORD	n/a	wordpools/wordpool_EN.txt	FORT	7	1	[0, 0, 0]	n/a	FR1	0	R1195E
381.017	0.834	402699	WORD_OFF	n/a	n/a	FORT	7	1	[0, 0, 0]	n/a	FR1	0	R1195E
381.851	1.618	403533	WORD	n/a	wordpools/wordpool_EN.txt	HOUSE	8	1	[0, 0, 0]	n/a	FR1	0	R1195E
383.469	0.766	405151	WORD_OFF	n/a	n/a	HOUSE	8	1	[0, 0, 0]	n/a	FR1	0	R1195E
384.235	1.616	405917	WORD	n/a	wordpools/wordpool_EN.txt	STRING	9	1	[0, 0, 0]	n/a	FR1	0	R1195E
385.851	0.852	407533	WORD_OFF	n/a	n/a	STRING	9	1	[0, 0, 0]	n/a	FR1	0	R1195E
386.703	1.617	408385	WORD	n/a	wordpools/wordpool_EN.txt	CAT	10	1	[0, 0, 0]	n/a	FR1	0	R1195E
388.32	0.766	410002	WORD_OFF	n/a	n/a	CAT	10	1	[0, 0, 0]	n/a	FR1	0	R1195E
389.086	1.617	410767	WORD	n/a	wordpools/wordpool_EN.txt	CLAY	11	1	[0, 0, 0]	n/a	FR1	0	R1195E
390.703	0.784	412384	WORD_OFF	n/a	n/a	CLAY	11	1	[0, 0, 0]	n/a	FR1	0	R1195E
391.487	1.617	413168	WORD	n/a	wordpools/wordpool_EN.txt	ELF	12	1	[0, 0, 0]	n/a	FR1	0	R1195E
393.104	0.0	414785	WORD_OFF	n/a	n/a	ELF	12	1	[0, 0, 0]	n/a	FR1	0	R1195E
393.104	0.0	414785	DISTRACT_START	n/a	n/a	n/a	-999	1	[0, 0, 0]	n/a	FR1	0	R1195E
393.104	0.016	414785	START	n/a	n/a	n/a	-999	1	[-999, -999, -999]	n/a	FR1	0	R1195E
393.12	4.518	414801	PROB	4.518	n/a	n/a	-999	1	[4, 6, 3]	13	FR1	0	R1195E
397.638	5.517	419319	PROB	5.517	n/a	n/a	-999	1	[4, 8, 2]	14	FR1	0	R1195E
403.155	4.684	424836	PROB	4.684	n/a	n/a	-999	1	[1, 8, 2]	11	FR1	0	R1195E
407.839	6.19	429520	PROB	6.19	n/a	n/a	-999	1	[4, 4, 5]	13	FR1	0	R1195E
414.029	0.011	435710	STOP	n/a	n/a	n/a	-999	1	[-999, -999, -999]	n/a	FR1	0	R1195E
414.04	0.668	435721	DISTRACT_END	n/a	n/a	n/a	-999	1	[0, 0, 0]	n/a	FR1	0	R1195E
414.708	0.517	436389	RETRIEVAL_ORIENT	n/a	n/a	n/a	-999	1	[0, 0, 0]	n/a	FR1	0	R1195E
415.225	2.087	436905	REC_START	n/a	n/a	n/a	-999	1	[0, 0, 0]	n/a	FR1	0	R1195E
417.312	6.194	438992	REC_WORD	6.194	n/a	SKI	2	1	[0, 0, 0]	n/a	FR1	0	R1195E
423.506	1.153	445186	REC_WORD	1.153	n/a	FLOOD	-999	1	[0, 0, 0]	n/a	FR1	0	R1195E
424.659	5.768	446339	REC_WORD	5.768	n/a	HEN	3	1	[0, 0, 0]	n/a	FR1	0	R1195E
430.427	7.127	452107	REC_WORD	7.127	n/a	HOUSE	8	1	[0, 0, 0]	n/a	FR1	0	R1195E
437.554	7.683	459234	REC_WORD	7.683	n/a	PALM	1	1	[0, 0, 0]	n/a	FR1	0	R1195E
445.237	7.027	466916	REC_END	n/a	n/a	n/a	-999	1	[0, 0, 0]	n/a	FR1	0	R1195E
452.264	0.5	473943	TRIAL	n/a	n/a	n/a	-999	2	[0, 0, 0]	n/a	FR1	0	R1195E
452.764	10.428	474443	COUNTDOWN_START	n/a	n/a	n/a	-999	2	[0, 0, 0]	n/a	FR1	0	R1195E
463.192	0.007	484871	COUNTDOWN_END	n/a	n/a	n/a	-999	2	[0, 0, 0]	n/a	FR1	0	R1195E
463.199	1.616	484878	ORIENT	n/a	n/a	n/a	-999	2	[0, 0, 0]	n/a	FR1	0	R1195E
464.815	1.885	486494	ORIENT_OFF	n/a	n/a	n/a	-999	2	[0, 0, 0]	n/a	FR1	0	R1195E
466.7	1.617	488379	WORD	n/a	wordpools/wordpool_EN.txt	LAMP	1	2	[0, 0, 0]	n/a	FR1	0	R1195E
468.317	1.0	489996	WORD_OFF	n/a	n/a	LAMP	1	2	[0, 0, 0]	n/a	FR1	0	R1195E
469.317	1.616	490995	WORD	n/a	wordpools/wordpool_EN.txt	GLOVE	2	2	[0, 0, 0]	n/a	FR1	0	R1195E
470.933	0.917	492611	WORD_OFF	n/a	n/a	GLOVE	2	2	[0, 0, 0]	n/a	FR1	0	R1195E
471.85	1.601	493528	WORD	n/a	wordpools/wordpool_EN.txt	FOG	3	2	[0, 0, 0]	n/a	FR1	0	R1195E
473.451	0.784	495129	WORD_OFF	n/a	n/a	FOG	3	2	[0, 0, 0]	n/a	FR1	0	R1195E
474.235	1.616	495913	WORD	n/a	wordpools/wordpool_EN.txt	SPOON	4	2	[0, 0, 0]	n/a	FR1	0	R1195E
475.851	0.866	497529	WORD_OFF	n/a	n/a	SPOON	4	2	[0, 0, 0]	n/a	FR1	0	R1195E
476.717	1.618	498395	WORD	n/a	wordpools/wordpool_EN.txt	SHIP	5	2	[0, 0, 0]	n/a	FR1	0	R1195E
478.335	0.867	500013	WORD_OFF	n/a	n/a	SHIP	5	2	[0, 0, 0]	n/a	FR1	0	R1195E
479.202	1.616	500880	WORD	n/a	wordpools/wordpool_EN.txt	JET	6	2	[0, 0, 0]	n/a	FR1	0	R1195E
480.818	0.917	502496	WORD_OFF	n/a	n/a	JET	6	2	[0, 0, 0]	n/a	FR1	0	R1195E
481.735	1.618	503413	WORD	n/a	wordpools/wordpool_EN.txt	LOCK	7	2	[0, 0, 0]	n/a	FR1	0	R1195E
483.353	0.817	505031	WORD_OFF	n/a	n/a	LOCK	7	2	[0, 0, 0]	n/a	FR1	0	R1195E
484.17	1.616	505848	WORD	n/a	wordpools/wordpool_EN.txt	DEER	8	2	[0, 0, 0]	n/a	FR1	0	R1195E
485.786	0.884	507464	WORD_OFF	n/a	n/a	DEER	8	2	[0, 0, 0]	n/a	FR1	0	R1195E
486.67	1.617	508348	WORD	n/a	wordpools/wordpool_EN.txt	WAND	9	2	[0, 0, 0]	n/a	FR1	0	R1195E
488.287	1.0	509965	WORD_OFF	n/a	n/a	WAND	9	2	[0, 0, 0]	n/a	FR1	0	R1195E
489.287	1.616	510965	WORD	n/a	wordpools/wordpool_EN.txt	STREET	10	2	[0, 0, 0]	n/a	FR1	0	R1195E
490.903	0.95	512581	WORD_OFF	n/a	n/a	STREET	10	2	[0, 0, 0]	n/a	FR1	0	R1195E
491.853	1.601	513531	WORD	n/a	wordpools/wordpool_EN.txt	FOOD	11	2	[0, 0, 0]	n/a	FR1	0	R1195E
493.454	0.784	515132	WORD_OFF	n/a	n/a	FOOD	11	2	[0, 0, 0]	n/a	FR1	0	R1195E
494.238	1.616	515916	WORD	n/a	wordpools/wordpool_EN.txt	BATH	12	2	[0, 0, 0]	n/a	FR1	0	R1195E
495.854	0.0	517531	WORD_OFF	n/a	n/a	BATH	12	2	[0, 0, 0]	n/a	FR1	0	R1195E
495.854	0.001	517531	DISTRACT_START	n/a	n/a	n/a	-999	2	[0, 0, 0]	n/a	FR1	0	R1195E
495.855	0.016	517532	START	n/a	n/a	n/a	-999	2	[-999, -999, -999]	n/a	FR1	0	R1195E
495.871	9.101	517548	PROB	9.101	n/a	n/a	-999	2	[6, 7, 5]	18	FR1	0	R1195E
504.972	3.834	526649	PROB	3.834	n/a	n/a	-999	2	[3, 2, 5]	10	FR1	0	R1195E
508.806	3.984	530483	PROB	3.984	n/a	n/a	-999	2	[7, 2, 8]	17	FR1	0	R1195E
512.79	4.868	534467	PROB	4.868	n/a	n/a	-999	2	[6, 8, 6]	20	FR1	0	R1195E
517.658	0.018	539335	STOP	n/a	n/a	n/a	-999	2	[-999, -999, -999]	n/a	FR1	0	R1195E
517.676	0.566	539353	DISTRACT_END	n/a	n/a	n/a	-999	2	[0, 0, 0]	n/a	FR1	0	R1195E
518.242	0.517	539919	RETRIEVAL_ORIENT	n/a	n/a	n/a	-999	2	[0, 0, 0]	n/a	FR1	0	R1195E
518.759	2.543	540436	REC_START	n/a	n/a	n/a	-999	2	[0, 0, 0]	n/a	FR1	0	R1195E
521.302	2.348	542979	REC_WORD	2.348	n/a	FOOD	11	2	[0, 0, 0]	n/a	FR1	0	R1195E
523.65	1.757	545326	REC_WORD	1.757	n/a	FLOOD	-999	2	[0, 0, 0]	n/a	FR1	0	R1195E
525.407	4.817	547083	REC_WORD	4.817	n/a	LAMP	1	2	[0, 0, 0]	n/a	FR1	0	R1195E
530.224	8.884	551900	REC_WORD	8.884	n/a	HEN	-999	2	[0, 0, 0]	n/a	FR1	0	R1195E
539.108	9.662	560784	REC_WORD	9.662	n/a	FLOOD	-999	2	[0, 0, 0]	n/a	FR1	0	R1195E
548.77	5.729	570445	REC_END	n/a	n/a	n/a	-999	2	[0, 0, 0]	n/a	FR1	0	R1195E
554.499	0.5	576174	TRIAL	n/a	n/a	n/a	-999	3	[0, 0, 0]	n/a	FR1	0	R1195E
554.999	10.428	576674	COUNTDOWN_START	n/a	n/a	n/a	-999	3	[0, 0, 0]	n/a	FR1	0	R1195E
565.427	0.007	587102	COUNTDOWN_END	n/a	n/a	n/a	-999	3	[0, 0, 0]	n/a	FR1	0	R1195E
565.434	1.616	587109	ORIENT	n/a	n/a	n/a	-999	3	[0, 0, 0]	n/a	FR1	0	R1195E
567.05	2.085	588725	ORIENT_OFF	n/a	n/a	n/a	-999	3	[0, 0, 0]	n/a	FR1	0	R1195E
569.135	1.616	590810	WORD	n/a	wordpools/wordpool_EN.txt	TOOL	1	3	[0, 0, 0]	n/a	FR1	0	R1195E
570.751	0.901	592426	WORD_OFF	n/a	n/a	TOOL	1	3	[0, 0, 0]	n/a	FR1	0	R1195E
571.652	1.617	593327	WORD	n/a	wordpools/wordpool_EN.txt	INK	2	3	[0, 0, 0]	n/a	FR1	0	R1195E
573.269	0.799	594944	WORD_OFF	n/a	n/a	INK	2	3	[0, 0, 0]	n/a	FR1	0	R1195E
574.068	1.618	595743	WORD	n/a	wordpools/wordpool_EN.txt	BOY	3	3	[0, 0, 0]	n/a	FR1	0	R1195E
575.686	1.017	597360	WORD_OFF	n/a	n/a	BOY	3	3	[0, 0, 0]	n/a	FR1	0	R1195E
576.703	1.617	598377	WORD	n/a	wordpools/wordpool_EN.txt	FLUTE	4	3	[0, 0, 0]	n/a	FR1	0	R1195E
578.32	0.95	599994	WORD_OFF	n/a	n/a	FLUTE	4	3	[0, 0, 0]	n/a	FR1	0	R1195E
579.27	1.616	600944	WORD	n/a	wordpools/wordpool_EN.txt	PEAR	5	3	[0, 0, 0]	n/a	FR1	0	R1195E
580.886	0.883	602560	WORD_OFF	n/a	n/a	PEAR	5	3	[0, 0, 0]	n/a	FR1	0	R1195E
581.769	1.618	603443	WORD	n/a	wordpools/wordpool_EN.txt	BRUSH	6	3	[0, 0, 0]	n/a	FR1	0	R1195E
583.387	0.833	605061	WORD_OFF	n/a	n/a	BRUSH	6	3	[0, 0, 0]	n/a	FR1	0	R1195E
584.22	1.617	605894	WORD	n/a	wordpools/wordpool_EN.txt	FOAM	7	3	[0, 0, 0]	n/a	FR1	0	R1195E
585.837	0.883	607511	WORD_OFF	n/a	n/a	FOAM	7	3	[0, 0, 0]	n/a	FR1	0	R1195E
586.72	1.618	608394	WORD	n/a	wordpools/wordpool_EN.txt	CLOCK	8	3	[0, 0, 0]	n/a	FR1	0	R1195E
588.338	1.0	610012	WORD_OFF	n/a	n/a	CLOCK	8	3	[0, 0, 0]	n/a	FR1	0	R1195E
589.338	1.616	611012	WORD	n/a	wordpools/wordpool_EN.txt	RAIN	9	3	[0, 0, 0]	n/a	FR1	0	R1195E
590.954	0.817	612628	WORD_OFF	n/a	n/a	RAIN	9	3	[0, 0, 0]	n/a	FR1	0	R1195E
591.771	1.618	613445	WORD	n/a	wordpools/wordpool_EN.txt	GRAPE	10	3	[0, 0, 0]	n/a	FR1	0	R1195E
593.389	0.9	615063	WORD_OFF	n/a	n/a	GRAPE	10	3	[0, 0, 0]	n/a	FR1	0	R1195E
594.289	1.616	615963	WORD	n/a	wordpools/wordpool_EN.txt	SNAKE	11	3	[0, 0, 0]	n/a	FR1	0	R1195E
595.905	0.867	617579	WORD_OFF	n/a	n/a	SNAKE	11	3	[0, 0, 0]	n/a	FR1	0	R1195E
596.772	1.601	618446	WORD	n/a	wordpools/wordpool_EN.txt	BED	12	3	[0, 0, 0]	n/a	FR1	0	R1195E
598.373	0.0	620047	WORD_OFF	n/a	n/a	BED	12	3	[0, 0, 0]	n/a	FR1	0	R1195E
598.373	0.001	620047	DISTRACT_START	n/a	n/a	n/a	-999	3	[0, 0, 0]	n/a	FR1	0	R1195E
598.374	0.016	620048	START	n/a	n/a	n/a	-999	3	[-999, -999, -999]	n/a	FR1	0	R1195E
598.39	5.067	620064	PROB	5.067	n/a	n/a	-999	3	[5, 9, 5]	19	FR1	0	R1195E
603.457	4.584	625130	PROB	4.584	n/a	n/a	-999	3	[8, 2, 7]	17	FR1	0	R1195E
608.041	3.017	629714	PROB	3.017	n/a	n/a	-999	3	[5, 5, 2]	12	FR1	0	R1195E
611.058	4.285	632731	PROB	4.285	n/a	n/a	-999	3	[7, 3, 9]	19	FR1	0	R1195E
615.343	9.24	637016	PROB	9.24	n/a	n/a	-999	3	[9, 3, 7]	19	FR1	0	R1195E
624.583	0.011	646256	STOP	n/a	n/a	n/a	-999	3	[-999, -999, -999]	n/a	FR1	0	R1195E
624.594	0.634	646267	DISTRACT_END	n/a	n/a	n/a	-999	3	[0, 0, 0]	n/a	FR1	0	R1195E
625.228	0.516	646901	RETRIEVAL_ORIENT	n/a	n/a	n/a	-999	3	[0, 0, 0]	n/a	FR1	0	R1195E
625.744	2.873	647417	REC_START	n/a	n/a	n/a	-999	3	[0, 0, 0]	n/a	FR1	0	R1195E
628.617	1.982	650290	REC_WORD	1.982	n/a	INK	2	3	[0, 0, 0]	n/a	FR1	0	R1195E
630.599	8.435	652271	REC_WORD	8.435	n/a	BOY	3	3	[0, 0, 0]	n/a	FR1	0	R1195E
639.034	9.537	660706	REC_WORD_VV	9.537	n/a	<>	-999	3	[0, 0, 0]	n/a	FR1	0	R1195E
648.571	7.185	670243	REC_WORD	7.185	n/a	LAMP	-999	3	[0, 0, 0]	n/a	FR1	0	R1195E
655.756	18.029	677427	REC_END	n/a	n/a	n/a	-999	3	[0, 0, 0]	n/a	FR1	0	R1195E
673.785	0.5	695456	TRIAL	n/a	n/a	n/a	-999	4	[0, 0, 0]	n/a	FR1	0	R1195E
674.285	10.428	695956	COUNTDOWN_START	n/a	n/a	n/a	-999	4	[0, 0, 0]	n/a	FR1	0	R1195E
684.713	0.008	706383	COUNTDOWN_END	n/a	n/a	n/a	-999	4	[0, 0, 0]	n/a	FR1	0	R1195E
684.721	1.618	706391	ORIENT	n/a	n/a	n/a	-999	4	[0, 0, 0]	n/a	FR1	0	R1195E
686.339	1.933	708009	ORIENT_OFF	n/a	n/a	n/a	-999	4	[0, 0, 0]	n/a	FR1	0	R1195E
688.272	1.616	709942	WORD	n/a	wordpools/wordpool_EN.txt	BOMB	1	4	[0, 0, 0]	n/a	FR1	0	R1195E
689.888	0.768	711558	WORD_OFF	n/a	n/a	BOMB	1	4	[0, 0, 0]	n/a	FR1	0	R1195E
690.656	1.617	712326	WORD	n/a	wordpools/wordpool_EN.txt	COIN	2	4	[0, 0, 0]	n/a	FR1	0	R1195E
692.273	0.95	713943	WORD_OFF	n/a	n/a	COIN	2	4	[0, 0, 0]	n/a	FR1	0	R1195E
693.223	1.616	714893	WORD	n/a	wordpools/wordpool_EN.txt	WEED	3	4	[0, 0, 0]	n/a	FR1	0	R1195E
694.839	0.917	716509	WORD_OFF	n/a	n/a	WEED	3	4	[0, 0, 0]	n/a	FR1	0	R1195E
695.756	1.601	717426	WORD	n/a	wordpools/wordpool_EN.txt	PIPE	4	4	[0, 0, 0]	n/a	FR1	0	R1195E
697.357	0.784	719027	WORD_OFF	n/a	n/a	PIPE	4	4	[0, 0, 0]	n/a	FR1	0	R1195E
698.141	1.616	719811	WORD	n/a	wordpools/wordpool_EN.txt	VAN	5	4	[0, 0, 0]	n/a	FR1	0	R1195E
699.757	0.768	721427	WORD_OFF	n/a	n/a	VAN	5	4	[0, 0, 0]	n/a	FR1	0	R1195E
700.525	1.617	722195	WORD	n/a	wordpools/wordpool_EN.txt	MILK	6	4	[0, 0, 0]	n/a	FR1	0	R1195E
702.142	0.95	723812	WORD_OFF	n/a	n/a	MILK	6	4	[0, 0, 0]	n/a	FR1	0	R1195E
703.092	1.617	724762	WORD	n/a	wordpools/wordpool_EN.txt	SNOW	7	4	[0, 0, 0]	n/a	FR1	0	R1195E
704.709	0.8	726379	WORD_OFF	n/a	n/a	SNOW	7	4	[0, 0, 0]	n/a	FR1	0	R1195E
705.509	1.617	727179	WORD	n/a	wordpools/wordpool_EN.txt	SMOKE	8	4	[0, 0, 0]	n/a	FR1	0	R1195E
707.126	1.0	728796	WORD_OFF	n/a	n/a	SMOKE	8	4	[0, 0, 0]	n/a	FR1	0	R1195E
708.126	1.616	729796	WORD	n/a	wordpools/wordpool_EN.txt	JAIL	9	4	[0, 0, 0]	n/a	FR1	0	R1195E
709.742	0.818	731411	WORD_OFF	n/a	n/a	JAIL	9	4	[0, 0, 0]	n/a	FR1	0	R1195E
710.56	1.617	732229	WORD	n/a	wordpools/wordpool_EN.txt	CLOWN	10	4	[0, 0, 0]	n/a	FR1	0	R1195E
712.177	0.916	733846	WORD_OFF	n/a	n/a	CLOWN	10	4	[0, 0, 0]	n/a	FR1	0	R1195E
713.093	1.617	734762	WORD	n/a	wordpools/wordpool_EN.txt	FARM	11	4	[0, 0, 0]	n/a	FR1	0	R1195E
714.71	0.934	736379	WORD_OFF	n/a	n/a	FARM	11	4	[0, 0, 0]	n/a	FR1	0	R1195E
715.644	1.617	737313	WORD	n/a	wordpools/wordpool_EN.txt	SOAP	12	4	[0, 0, 0]	n/a	FR1	0	R1195E
717.261	0.0	738930	WORD_OFF	n/a	n/a	SOAP	12	4	[0, 0, 0]	n/a	FR1	0	R1195E
717.261	0.0	738930	DISTRACT_START	n/a	n/a	n/a	-999	4	[0, 0, 0]	n/a	FR1	0	R1195E
717.261	0.016	738930	START	n/a	n/a	n/a	-999	4	[-999, -999, -999]	n/a	FR1	0	R1195E
717.277	6.252	738946	PROB	6.252	n/a	n/a	-999	4	[8, 7, 5]	20	FR1	0	R1195E
723.529	4.15	745198	PROB	4.15	n/a	n/a	-999	4	[3, 2, 5]	10	FR1	0	R1195E
727.679	5.001	749348	PROB	5.001	n/a	n/a	-999	4	[1, 8, 4]	13	FR1	0	R1195E
732.68	4.71	754349	PROB	4.71	n/a	n/a	-999	4	[8, 4, 4]	16	FR1	0	R1195E
737.39	0.008	759058	STOP	n/a	n/a	n/a	-999	4	[-999, -999, -999]	n/a	FR1	0	R1195E
737.398	0.7	759066	DISTRACT_END	n/a	n/a	n/a	-999	4	[0, 0, 0]	n/a	FR1	0	R1195E
738.098	0.517	759766	RETRIEVAL_ORIENT	n/a	n/a	n/a	-999	4	[0, 0, 0]	n/a	FR1	0	R1195E
738.615	2.733	760283	REC_START	n/a	n/a	n/a	-999	4	[0, 0, 0]	n/a	FR1	0	R1195E
741.348	1.455	763016	REC_WORD	1.455	n/a	FARM	11	4	[0, 0, 0]	n/a	FR1	0	R1195E
742.803	1.596	764471	REC_WORD	1.596	n/a	WEED	3	4	[0, 0, 0]	n/a	FR1	0	R1195E
744.399	2.883	766067	REC_WORD	2.883	n/a	SMOKE	8	4	[0, 0, 0]	n/a	FR1	0	R1195E
747.282	5.609	768950	REC_WORD_VV	5.609	n/a	<>	-999	4	[0, 0, 0]	n/a	FR1	0	R1195E
752.891	4.156	774559	REC_WORD	4.156	n/a	CLOWN	10	4	[0, 0, 0]	n/a	FR1	0	R1195E
757.047	7.838	778715	REC_WORD_VV	7.838	n/a	<>	-999	4	[0, 0, 0]	n/a	FR1	0	R1195E
764.885	3.742	786552	REC_WORD_VV	3.742	n/a	<>	-999	4	[0, 0, 0]	n/a	FR1	0	R1195E
768.627	5.761	790294	REC_END	n/a	n/a	n/a	-999	4	[0, 0, 0]	n/a	FR1	0	R1195E
774.388	0.5	796055	TRIAL	n/a	n/a	n/a	-999	5	[0, 0, 0]	n/a	FR1	0	R1195E
774.888	10.428	796555	COUNTDOWN_START	n/a	n/a	n/a	-999	5	[0, 0, 0]	n/a	FR1	0	R1195E
785.316	0.007	806983	COUNTDOWN_END	n/a	n/a	n/a	-999	5	[0, 0, 0]	n/a	FR1	0	R1195E
785.323	1.616	806990	ORIENT	n/a	n/a	n/a	-999	5	[0, 0, 0]	n/a	FR1	0	R1195E
786.939	1.984	808606	ORIENT_OFF	n/a	n/a	n/a	-999	5	[0, 0, 0]	n/a	FR1	0	R1195E
788.923	1.617	810589	WORD	n/a	wordpools/wordpool_EN.txt	PET	1	5	[0, 0, 0]	n/a	FR1	0	R1195E
790.54	0.884	812206	WORD_OFF	n/a	n/a	PET	1	5	[0, 0, 0]	n/a	FR1	0	R1195E
791.424	1.616	813090	WORD	n/a	wordpools/wordpool_EN.txt	CART	2	5	[0, 0, 0]	n/a	FR1	0	R1195E
793.04	0.883	814706	WORD_OFF	n/a	n/a	CART	2	5	[0, 0, 0]	n/a	FR1	0	R1195E
793.923	1.618	815589	WORD	n/a	wordpools/wordpool_EN.txt	WORLD	3	5	[0, 0, 0]	n/a	FR1	0	R1195E
795.541	0.95	817207	WORD_OFF	n/a	n/a	WORLD	3	5	[0, 0, 0]	n/a	FR1	0	R1195E
796.491	1.617	818157	WORD	n/a	wordpools/wordpool_EN.txt	TOAD	4	5	[0, 0, 0]	n/a	FR1	0	R1195E
798.108	0.984	819774	WORD_OFF	n/a	n/a	TOAD	4	5	[0, 0, 0]	n/a	FR1	0	R1195E
799.092	1.617	820758	WORD	n/a	wordpools/wordpool_EN.txt	PEACH	5	5	[0, 0, 0]	n/a	FR1	0	R1195E
800.709	0.95	822375	WORD_OFF	n/a	n/a	PEACH	5	5	[0, 0, 0]	n/a	FR1	0	R1195E
801.659	1.617	823325	WORD	n/a	wordpools/wordpool_EN.txt	WORM	6	5	[0, 0, 0]	n/a	FR1	0	R1195E
803.276	0.95	824942	WORD_OFF	n/a	n/a	WORM	6	5	[0, 0, 0]	n/a	FR1	0	R1195E
804.226	1.616	825892	WORD	n/a	wordpools/wordpool_EN.txt	GATE	7	5	[0, 0, 0]	n/a	FR1	0	R1195E
805.842	0.801	827508	WORD_OFF	n/a	n/a	GATE	7	5	[0, 0, 0]	n/a	FR1	0	R1195E
806.643	1.617	828309	WORD	n/a	wordpools/wordpool_EN.txt	BAG	8	5	[0, 0, 0]	n/a	FR1	0	R1195E
808.26	0.766	829926	WORD_OFF	n/a	n/a	BAG	8	5	[0, 0, 0]	n/a	FR1	0	R1195E
809.026	1.618	830692	WORD	n/a	wordpools/wordpool_EN.txt	WALL	9	5	[0, 0, 0]	n/a	FR1	0	R1195E
810.644	0.95	832310	WORD_OFF	n/a	n/a	WALL	9	5	[0, 0, 0]	n/a	FR1	0	R1195E
811.594	1.617	833260	WORD	n/a	wordpools/wordpool_EN.txt	HILL	10	5	[0, 0, 0]	n/a	FR1	0	R1195E
813.211	0.766	834877	WORD_OFF	n/a	n/a	HILL	10	5	[0, 0, 0]	n/a	FR1	0	R1195E
813.977	1.618	835643	WORD	n/a	wordpools/wordpool_EN.txt	VEST	11	5	[0, 0, 0]	n/a	FR1	0	R1195E
815.595	0.983	837261	WORD_OFF	n/a	n/a	VEST	11	5	[0, 0, 0]	n/a	FR1	0	R1195E
816.578	1.617	838243	WORD	n/a	wordpools/wordpool_EN.txt	HAT	12	5	[0, 0, 0]	n/a	FR1	0	R1195E
818.195	0.0	839860	WORD_OFF	n/a	n/a	HAT	12	5	[0, 0, 0]	n/a	FR1	0	R1195E
818.195	0.001	839860	DISTRACT_START	n/a	n/a	n/a	-999	5	[0, 0, 0]	n/a	FR1	0	R1195E
818.196	0.016	839861	START	n/a	n/a	n/a	-999	5	[-999, -999, -999]	n/a	FR1	0	R1195E
818.212	4.951	839877	PROB	4.951	n/a	n/a	-999	5	[6, 5, 4]	15	FR1	0	R1195E
823.163	5.968	844828	PROB	5.968	n/a	n/a	-999	5	[9, 3, 6]	18	FR1	0	R1195E
829.131	3.783	850796	PROB	3.783	n/a	n/a	-999	5	[2, 3, 6]	11	FR1	0	R1195E
832.914	5.1	854579	PROB	5.1	n/a	n/a	-999	5	[3, 1, 2]	6	FR1	0	R1195E
838.014	3.24	859679	PROB	3.24	n/a	n/a	-999	5	[2, 6, 4]	12	FR1	0	R1195E
841.254	0.012	862919	STOP	n/a	n/a	n/a	-999	5	[-999, -999, -999]	n/a	FR1	0	R1195E
841.266	0.516	862931	DISTRACT_END	n/a	n/a	n/a	-999	5	[0, 0, 0]	n/a	FR1	0	R1195E
841.782	0.518	863447	RETRIEVAL_ORIENT	n/a	n/a	n/a	-999	5	[0, 0, 0]	n/a	FR1	0	R1195E
842.3	2.813	863964	REC_START	n/a	n/a	n/a	-999	5	[0, 0, 0]	n/a	FR1	0	R1195E
845.113	1.911	866777	REC_WORD	1.911	n/a	HAT	12	5	[0, 0, 0]	n/a	FR1	0	R1195E
847.024	1.954	868688	REC_WORD	1.954	n/a	GATE	7	5	[0, 0, 0]	n/a	FR1	0	R1195E
848.978	7.512	870642	REC_WORD	7.512	n/a	WALL	9	5	[0, 0, 0]	n/a	FR1	0	R1195E
856.49	3.966	878154	REC_WORD	3.966	n/a	WORLD	3	5	[0, 0, 0]	n/a	FR1	0	R1195E
860.456	9.17	882120	REC_WORD	9.17	n/a	HILL	10	5	[0, 0, 0]	n/a	FR1	0	R1195E
869.626	2.384	891289	REC_WORD_VV	2.384	n/a	<>	-999	5	[0, 0, 0]	n/a	FR1	0	R1195E
872.01	0.301	893673	REC_WORD	0.301	n/a	TOAD	4	5	[0, 0, 0]	n/a	FR1	0	R1195E
872.311	6.362	893974	REC_END	n/a	n/a	n/a	-999	5	[0, 0, 0]	n/a	FR1	0	R1195E
878.673	0.5	900336	TRIAL	n/a	n/a	n/a	-999	6	[0, 0, 0]	n/a	FR1	0	R1195E
879.173	10.428	900836	COUNTDOWN_START	n/a	n/a	n/a	-999	6	[0, 0, 0]	n/a	FR1	0	R1195E
889.601	0.007	911264	COUNTDOWN_END	n/a	n/a	n/a	-999	6	[0, 0, 0]	n/a	FR1	0	R1195E
889.608	1.617	911271	ORIENT	n/a	n/a	n/a	-999	6	[0, 0, 0]	n/a	FR1	0	R1195E
891.225	2.083	912888	ORIENT_OFF	n/a	n/a	n/a	-999	6	[0, 0, 0]	n/a	FR1	0	R1195E
893.308	1.616	914971	WORD	n/a	wordpools/wordpool_EN.txt	OAK	1	6	[0, 0, 0]	n/a	FR1	0	R1195E
894.924	0.934	916587	WORD_OFF	n/a	n/a	OAK	1	6	[0, 0, 0]	n/a	FR1	0	R1195E
895.858	1.618	917520	WORD	n/a	wordpools/wordpool_EN.txt	KITE	2	6	[0, 0, 0]	n/a	FR1	0	R1195E
897.476	0.833	919138	WORD_OFF	n/a	n/a	KITE	2	6	[0, 0, 0]	n/a	FR1	0	R1195E
898.309	1.616	919971	WORD	n/a	wordpools/wordpool_EN.txt	SPRING	3	6	[0, 0, 0]	n/a	FR1	0	R1195E
899.925	0.85	921587	WORD_OFF	n/a	n/a	SPRING	3	6	[0, 0, 0]	n/a	FR1	0	R1195E
900.775	1.602	922437	WORD	n/a	wordpools/wordpool_EN.txt	WHEEL	4	6	[0, 0, 0]	n/a	FR1	0	R1195E
902.377	0.783	924039	WORD_OFF	n/a	n/a	WHEEL	4	6	[0, 0, 0]	n/a	FR1	0	R1195E
903.16	1.616	924822	WORD	n/a	wordpools/wordpool_EN.txt	OWL	5	6	[0, 0, 0]	n/a	FR1	0	R1195E
904.776	1.0	926438	WORD_OFF	n/a	n/a	OWL	5	6	[0, 0, 0]	n/a	FR1	0	R1195E
905.776	1.601	927438	WORD	n/a	wordpools/wordpool_EN.txt	HORN	6	6	[0, 0, 0]	n/a	FR1	0	R1195E
907.377	0.951	929039	WORD_OFF	n/a	n/a	HORN	6	6	[0, 0, 0]	n/a	FR1	0	R1195E
908.328	1.616	929990	WORD	n/a	wordpools/wordpool_EN.txt	DOG	7	6	[0, 0, 0]	n/a	FR1	0	R1195E
909.944	0.9	931606	WORD_OFF	n/a	n/a	DOG	7	6	[0, 0, 0]	n/a	FR1	0	R1195E
910.844	1.618	932506	WORD	n/a	wordpools/wordpool_EN.txt	BOWL	8	6	[0, 0, 0]	n/a	FR1	0	R1195E
912.462	0.917	934124	WORD_OFF	n/a	n/a	BOWL	8	6	[0, 0, 0]	n/a	FR1	0	R1195E
913.379	1.616	935041	WORD	n/a	wordpools/wordpool_EN.txt	SHRIMP	9	6	[0, 0, 0]	n/a	FR1	0	R1195E
914.995	0.967	936657	WORD_OFF	n/a	n/a	SHRIMP	9	6	[0, 0, 0]	n/a	FR1	0	R1195E
915.962	1.618	937624	WORD	n/a	wordpools/wordpool_EN.txt	TRUCK	10	6	[0, 0, 0]	n/a	FR1	0	R1195E
917.58	0.816	939242	WORD_OFF	n/a	n/a	TRUCK	10	6	[0, 0, 0]	n/a	FR1	0	R1195E
918.396	1.616	940058	WORD	n/a	wordpools/wordpool_EN.txt	BOX	11	6	[0, 0, 0]	n/a	FR1	0	R1195E
920.012	0.967	941674	WORD_OFF	n/a	n/a	BOX	11	6	[0, 0, 0]	n/a	FR1	0	R1195E
920.979	1.601	942641	WORD	n/a	wordpools/wordpool_EN.txt	CHIN	12	6	[0, 0, 0]	n/a	FR1	0	R1195E
922.58	0.0	944241	WORD_OFF	n/a	n/a	CHIN	12	6	[0, 0, 0]	n/a	FR1	0	R1195E
922.58	0.001	944241	DISTRACT_START	n/a	n/a	n/a	-999	6	[0, 0, 0]	n/a	FR1	0	R1195E
922.581	0.016	944242	START	n/a	n/a	n/a	-999	6	[-999, -999, -999]	n/a	FR1	0	R1195E
922.597	5.551	944258	PROB	5.551	n/a	n/a	-999	6	[3, 6, 9]	18	FR1	0	R1195E
928.148	8.767	949809	PROB	8.767	n/a	n/a	-999	6	[7, 9, 5]	23	FR1	0	R1195E
936.915	9.939	958576	PROB	9.939	n/a	n/a	-999	6	[5, 9, 7]	21	FR1	0	R1195E
946.854	0.013	968515	STOP	n/a	n/a	n/a	-999	6	[-999, -999, -999]	n/a	FR1	0	R1195E
946.867	0.518	968528	DISTRACT_END	n/a	n/a	n/a	-999	6	[0, 0, 0]	n/a	FR1	0	R1195E
947.385	0.516	969046	RETRIEVAL_ORIENT	n/a	n/a	n/a	-999	6	[0, 0, 0]	n/a	FR1	0	R1195E
947.901	1.942	969562	REC_START	n/a	n/a	n/a	-999	6	[0, 0, 0]	n/a	FR1	0	R1195E
949.843	4.075	971503	REC_WORD	4.075	n/a	WHEEL	4	6	[0, 0, 0]	n/a	FR1	0	R1195E
953.918	2.948	975578	REC_WORD	2.948	n/a	OAK	1	6	[0, 0, 0]	n/a	FR1	0	R1195E
956.866	2.095	978526	REC_WORD	2.095	n/a	RIDGE	-999	6	[0, 0, 0]	n/a	FR1	0	R1195E
958.961	1.96	980621	REC_WORD	1.96	n/a	BOWL	8	6	[0, 0, 0]	n/a	FR1	0	R1195E
960.921	5.659	982581	REC_WORD	5.659	n/a	SHRIMP	9	6	[0, 0, 0]	n/a	FR1	0	R1195E
966.58	8.982	988240	REC_WORD	8.982	n/a	DOG	7	6	[0, 0, 0]	n/a	FR1	0	R1195E
975.562	2.351	997222	REC_WORD_VV	2.351	n/a	<>	-999	6	[0, 0, 0]	n/a	FR1	0	R1195E
977.913	6.91	999572	REC_END	n/a	n/a	n/a	-999	6	[0, 0, 0]	n/a	FR1	0	R1195E
984.823	0.5	1006482	TRIAL	n/a	n/a	n/a	-999	7	[0, 0, 0]	n/a	FR1	0	R1195E
985.323	10.428	1006982	COUNTDOWN_START	n/a	n/a	n/a	-999	7	[0, 0, 0]	n/a	FR1	0	R1195E
995.751	0.008	1017410	COUNTDOWN_END	n/a	n/a	n/a	-999	7	[0, 0, 0]	n/a	FR1	0	R1195E
995.759	1.618	1017418	ORIENT	n/a	n/a	n/a	-999	7	[0, 0, 0]	n/a	FR1	0	R1195E
997.377	2.25	1019036	ORIENT_OFF	n/a	n/a	n/a	-999	7	[0, 0, 0]	n/a	FR1	0	R1195E
999.627	1.617	1021286	WORD	n/a	wordpools/wordpool_EN.txt	FLAG	1	7	[0, 0, 0]	n/a	FR1	0	R1195E
1001.244	0.967	1022903	WORD_OFF	n/a	n/a	FLAG	1	7	[0, 0, 0]	n/a	FR1	0	R1195E
1002.211	1.616	1023870	WORD	n/a	wordpools/wordpool_EN.txt	HOOK	2	7	[0, 0, 0]	n/a	FR1	0	R1195E
1003.827	0.933	1025485	WORD_OFF	n/a	n/a	HOOK	2	7	[0, 0, 0]	n/a	FR1	0	R1195E
1004.76	1.618	1026418	WORD	n/a	wordpools/wordpool_EN.txt	ROOM	3	7	[0, 0, 0]	n/a	FR1	0	R1195E
1006.378	0.817	1028036	WORD_OFF	n/a	n/a	ROOM	3	7	[0, 0, 0]	n/a	FR1	0	R1195E
1007.195	1.616	1028853	WORD	n/a	wordpools/wordpool_EN.txt	STORM	4	7	[0, 0, 0]	n/a	FR1	0	R1195E
1008.811	0.785	1030469	WORD_OFF	n/a	n/a	STORM	4	7	[0, 0, 0]	n/a	FR1	0	R1195E
1009.596	1.617	1031254	WORD	n/a	wordpools/wordpool_EN.txt	BEE	5	7	[0, 0, 0]	n/a	FR1	0	R1195E
1011.213	0.933	1032871	WORD_OFF	n/a	n/a	BEE	5	7	[0, 0, 0]	n/a	FR1	0	R1195E
1012.146	1.616	1033804	WORD	n/a	wordpools/wordpool_EN.txt	DART	6	7	[0, 0, 0]	n/a	FR1	0	R1195E
1013.762	0.768	1035420	WORD_OFF	n/a	n/a	DART	6	7	[0, 0, 0]	n/a	FR1	0	R1195E
1014.53	1.617	1036188	WORD	n/a	wordpools/wordpool_EN.txt	MOUSE	7	7	[0, 0, 0]	n/a	FR1	0	R1195E
1016.147	0.983	1037805	WORD_OFF	n/a	n/a	MOUSE	7	7	[0, 0, 0]	n/a	FR1	0	R1195E
1017.13	1.616	1038788	WORD	n/a	wordpools/wordpool_EN.txt	SPARK	8	7	[0, 0, 0]	n/a	FR1	0	R1195E
1018.746	0.951	1040404	WORD_OFF	n/a	n/a	SPARK	8	7	[0, 0, 0]	n/a	FR1	0	R1195E
1019.697	1.617	1041355	WORD	n/a	wordpools/wordpool_EN.txt	BRIDGE	9	7	[0, 0, 0]	n/a	FR1	0	R1195E
1021.314	1.001	1042972	WORD_OFF	n/a	n/a	BRIDGE	9	7	[0, 0, 0]	n/a	FR1	0	R1195E
1022.315	1.616	1043973	WORD	n/a	wordpools/wordpool_EN.txt	BOARD	10	7	[0, 0, 0]	n/a	FR1	0	R1195E
1023.931	0.983	1045589	WORD_OFF	n/a	n/a	BOARD	10	7	[0, 0, 0]	n/a	FR1	0	R1195E
1024.914	1.618	1046572	WORD	n/a	wordpools/wordpool_EN.txt	BAND	11	7	[0, 0, 0]	n/a	FR1	0	R1195E
1026.532	0.9	1048190	WORD_OFF	n/a	n/a	BAND	11	7	[0, 0, 0]	n/a	FR1	0	R1195E
1027.432	1.616	1049090	WORD	n/a	wordpools/wordpool_EN.txt	BEACH	12	7	[0, 0, 0]	n/a	FR1	0	R1195E
1029.048	0.0	1050706	WORD_OFF	n/a	n/a	BEACH	12	7	[0, 0, 0]	n/a	FR1	0	R1195E
1029.048	0.0	1050706	DISTRACT_START	n/a	n/a	n/a	-999	7	[0, 0, 0]	n/a	FR1	0	R1195E
1029.048	0.016	1050706	START	n/a	n/a	n/a	-999	7	[-999, -999, -999]	n/a	FR1	0	R1195E
1029.064	5.868	1050722	PROB	5.868	n/a	n/a	-999	7	[1, 7, 2]	10	FR1	0	R1195E
1034.932	3.369	1056589	PROB	3.369	n/a	n/a	-999	7	[7, 3, 5]	15	FR1	0	R1195E
1038.301	3.917	1059958	PROB	3.917	n/a	n/a	-999	7	[8, 3, 1]	12	FR1	0	R1195E
1042.218	6.5	1063875	PROB	6.5	n/a	n/a	-999	7	[7, 5, 7]	19	FR1	0	R1195E
1048.718	6.821	1070375	PROB	6.821	n/a	n/a	-999	7	[9, 5, 2]	16	FR1	0	R1195E
1055.539	0.015	1077196	STOP	n/a	n/a	n/a	-999	7	[-999, -999, -999]	n/a	FR1	0	R1195E
1055.554	0.516	1077211	DISTRACT_END	n/a	n/a	n/a	-999	7	[0, 0, 0]	n/a	FR1	0	R1195E
1056.07	0.518	1077726	RETRIEVAL_ORIENT	n/a	n/a	n/a	-999	7	[0, 0, 0]	n/a	FR1	0	R1195E
1056.588	3.873	1078244	REC_START	n/a	n/a	n/a	-999	7	[0, 0, 0]	n/a	FR1	0	R1195E
1060.461	6.725	1082117	REC_WORD_VV	6.725	n/a	<>	-999	7	[0, 0, 0]	n/a	FR1	0	R1195E
1067.186	10.098	1088842	REC_WORD	10.098	n/a	FLAG	1	7	[0, 0, 0]	n/a	FR1	0	R1195E
1077.284	5.626	1098940	REC_WORD	5.626	n/a	ROOM	3	7	[0, 0, 0]	n/a	FR1	0	R1195E
1082.91	1.139	1104565	REC_WORD	1.139	n/a	BOARD	10	7	[0, 0, 0]	n/a	FR1	0	R1195E
1084.049	1.313	1105704	REC_WORD	1.313	n/a	BRIDGE	9	7	[0, 0, 0]	n/a	FR1	0	R1195E
1085.362	1.236	1107017	REC_WORD	1.236	n/a	BEACH	12	7	[0, 0, 0]	n/a	FR1	0	R1195E
1086.598	27.499	1108253	REC_END	n/a	n/a	n/a	-999	7	[0, 0, 0]	n/a	FR1	0	R1195E
1114.097	0.5	1135751	TRIAL	n/a	n/a	n/a	-999	8	[0, 0, 0]	n/a	FR1	0	R1195E
1114.597	10.428	1136251	COUNTDOWN_START	n/a	n/a	n/a	-999	8	[0, 0, 0]	n/a	FR1	0	R1195E
1125.025	0.007	1146679	COUNTDOWN_END	n/a	n/a	n/a	-999	8	[0, 0, 0]	n/a	FR1	0	R1195E
1125.032	1.618	1146686	ORIENT	n/a	n/a	n/a	-999	8	[0, 0, 0]	n/a	FR1	0	R1195E
1126.65	1.95	1148304	ORIENT_OFF	n/a	n/a	n/a	-999	8	[0, 0, 0]	n/a	FR1	0	R1195E
1128.6	1.617	1150254	WORD	n/a	wordpools/wordpool_EN.txt	SWORD	1	8	[0, 0, 0]	n/a	FR1	0	R1195E
1130.217	0.966	1151871	WORD_OFF	n/a	n/a	SWORD	1	8	[0, 0, 0]	n/a	FR1	0	R1195E
1131.183	1.617	1152837	WORD	n/a	wordpools/wordpool_EN.txt	WING	2	8	[0, 0, 0]	n/a	FR1	0	R1195E
1132.8	0.834	1154454	WORD_OFF	n/a	n/a	WING	2	8	[0, 0, 0]	n/a	FR1	0	R1195E
1133.634	1.617	1155288	WORD	n/a	wordpools/wordpool_EN.txt	SPEAR	3	8	[0, 0, 0]	n/a	FR1	0	R1195E
1135.251	0.967	1156905	WORD_OFF	n/a	n/a	SPEAR	3	8	[0, 0, 0]	n/a	FR1	0	R1195E
1136.218	1.616	1157871	WORD	n/a	wordpools/wordpool_EN.txt	HAND	4	8	[0, 0, 0]	n/a	FR1	0	R1195E
1137.834	0.917	1159487	WORD_OFF	n/a	n/a	HAND	4	8	[0, 0, 0]	n/a	FR1	0	R1195E
1138.751	1.618	1160404	WORD	n/a	wordpools/wordpool_EN.txt	STONE	5	8	[0, 0, 0]	n/a	FR1	0	R1195E
1140.369	0.766	1162022	WORD_OFF	n/a	n/a	STONE	5	8	[0, 0, 0]	n/a	FR1	0	R1195E
1141.135	1.616	1162788	WORD	n/a	wordpools/wordpool_EN.txt	BLOOM	6	8	[0, 0, 0]	n/a	FR1	0	R1195E
1142.751	0.902	1164404	WORD_OFF	n/a	n/a	BLOOM	6	8	[0, 0, 0]	n/a	FR1	0	R1195E
1143.653	1.617	1165306	WORD	n/a	wordpools/wordpool_EN.txt	PRINCE	7	8	[0, 0, 0]	n/a	FR1	0	R1195E
1145.27	0.799	1166923	WORD_OFF	n/a	n/a	PRINCE	7	8	[0, 0, 0]	n/a	FR1	0	R1195E
1146.069	1.618	1167722	WORD	n/a	wordpools/wordpool_EN.txt	FACE	8	8	[0, 0, 0]	n/a	FR1	0	R1195E
1147.687	0.816	1169340	WORD_OFF	n/a	n/a	FACE	8	8	[0, 0, 0]	n/a	FR1	0	R1195E
1148.503	1.617	1170156	WORD	n/a	wordpools/wordpool_EN.txt	CROWN	9	8	[0, 0, 0]	n/a	FR1	0	R1195E
1150.12	0.95	1171773	WORD_OFF	n/a	n/a	CROWN	9	8	[0, 0, 0]	n/a	FR1	0	R1195E
1151.07	1.618	1172723	WORD	n/a	wordpools/wordpool_EN.txt	PIN	10	8	[0, 0, 0]	n/a	FR1	0	R1195E
1152.688	0.8	1174341	WORD_OFF	n/a	n/a	PIN	10	8	[0, 0, 0]	n/a	FR1	0	R1195E
1153.488	1.617	1175141	WORD	n/a	wordpools/wordpool_EN.txt	LAWN	11	8	[0, 0, 0]	n/a	FR1	0	R1195E
1155.105	0.899	1176758	WORD_OFF	n/a	n/a	LAWN	11	8	[0, 0, 0]	n/a	FR1	0	R1195E
1156.004	1.601	1177657	WORD	n/a	wordpools/wordpool_EN.txt	BLUSH	12	8	[0, 0, 0]	n/a	FR1	0	R1195E
1157.605	0.0	1179258	WORD_OFF	n/a	n/a	BLUSH	12	8	[0, 0, 0]	n/a	FR1	0	R1195E
1157.605	0.001	1179258	DISTRACT_START	n/a	n/a	n/a	-999	8	[0, 0, 0]	n/a	FR1	0	R1195E
1157.606	0.016	1179259	START	n/a	n/a	n/a	-999	8	[-999, -999, -999]	n/a	FR1	0	R1195E
1157.622	4.967	1179275	PROB	4.967	n/a	n/a	-999	8	[1, 6, 7]	14	FR1	0	R1195E
1162.589	4.685	1184242	PROB	4.685	n/a	n/a	-999	8	[5, 9, 5]	19	FR1	0	R1195E
1167.274	4.533	1188926	PROB	4.533	n/a	n/a	-999	8	[8, 8, 5]	21	FR1	0	R1195E
1171.807	7.417	1193459	PROB	7.417	n/a	n/a	-999	8	[7, 7, 9]	23	FR1	0	R1195E
1179.224	0.018	1200876	STOP	n/a	n/a	n/a	-999	8	[-999, -999, -999]	n/a	FR1	0	R1195E
1179.242	0.533	1200894	DISTRACT_END	n/a	n/a	n/a	-999	8	[0, 0, 0]	n/a	FR1	0	R1195E
1179.775	0.518	1201427	RETRIEVAL_ORIENT	n/a	n/a	n/a	-999	8	[0, 0, 0]	n/a	FR1	0	R1195E
1180.293	1.87	1201945	REC_START	n/a	n/a	n/a	-999	8	[0, 0, 0]	n/a	FR1	0	R1195E
1182.163	5.943	1203815	REC_WORD	5.943	n/a	PRINCE	7	8	[0, 0, 0]	n/a	FR1	0	R1195E
1188.106	1.942	1209758	REC_WORD	1.942	n/a	SPEAR	3	8	[0, 0, 0]	n/a	FR1	0	R1195E
1190.048	6.475	1211699	REC_WORD	6.475	n/a	SWORD	1	8	[0, 0, 0]	n/a	FR1	0	R1195E
1196.523	0.714	1218174	REC_WORD	0.714	n/a	WING	2	8	[0, 0, 0]	n/a	FR1	0	R1195E
1197.237	13.068	1218888	REC_WORD	13.068	n/a	LAWN	11	8	[0, 0, 0]	n/a	FR1	0	R1195E
1210.305	6.676	1231956	REC_END	n/a	n/a	n/a	-999	8	[0, 0, 0]	n/a	FR1	0	R1195E
1216.981	0.5	1238631	TRIAL	n/a	n/a	n/a	-999	9	[0, 0, 0]	n/a	FR1	0	R1195E
1217.481	10.428	1239131	COUNTDOWN_START	n/a	n/a	n/a	-999	9	[0, 0, 0]	n/a	FR1	0	R1195E
1227.909	0.007	1249559	COUNTDOWN_END	n/a	n/a	n/a	-999	9	[0, 0, 0]	n/a	FR1	0	R1195E
1227.916	1.601	1249566	ORIENT	n/a	n/a	n/a	-999	9	[0, 0, 0]	n/a	FR1	0	R1195E
1229.517	1.951	1251167	ORIENT_OFF	n/a	n/a	n/a	-999	9	[0, 0, 0]	n/a	FR1	0	R1195E
1231.468	1.616	1253118	WORD	n/a	wordpools/wordpool_EN.txt	TRASH	1	9	[0, 0, 0]	n/a	FR1	0	R1195E
1233.084	0.85	1254734	WORD_OFF	n/a	n/a	TRASH	1	9	[0, 0, 0]	n/a	FR1	0	R1195E
1233.934	1.618	1255584	WORD	n/a	wordpools/wordpool_EN.txt	TREE	2	9	[0, 0, 0]	n/a	FR1	0	R1195E
1235.552	0.817	1257202	WORD_OFF	n/a	n/a	TREE	2	9	[0, 0, 0]	n/a	FR1	0	R1195E
1236.369	1.616	1258019	WORD	n/a	wordpools/wordpool_EN.txt	CHALK	3	9	[0, 0, 0]	n/a	FR1	0	R1195E
1237.985	0.95	1259635	WORD_OFF	n/a	n/a	CHALK	3	9	[0, 0, 0]	n/a	FR1	0	R1195E
1238.935	1.618	1260585	WORD	n/a	wordpools/wordpool_EN.txt	MAZE	4	9	[0, 0, 0]	n/a	FR1	0	R1195E
1240.553	0.817	1262203	WORD_OFF	n/a	n/a	MAZE	4	9	[0, 0, 0]	n/a	FR1	0	R1195E
1241.37	1.616	1263020	WORD	n/a	wordpools/wordpool_EN.txt	CLOTH	5	9	[0, 0, 0]	n/a	FR1	0	R1195E
1242.986	0.983	1264635	WORD_OFF	n/a	n/a	CLOTH	5	9	[0, 0, 0]	n/a	FR1	0	R1195E
1243.969	1.618	1265618	WORD	n/a	wordpools/wordpool_EN.txt	SHIRT	6	9	[0, 0, 0]	n/a	FR1	0	R1195E
1245.587	0.983	1267236	WORD_OFF	n/a	n/a	SHIRT	6	9	[0, 0, 0]	n/a	FR1	0	R1195E
1246.57	1.601	1268219	WORD	n/a	wordpools/wordpool_EN.txt	ROPE	7	9	[0, 0, 0]	n/a	FR1	0	R1195E
1248.171	0.833	1269820	WORD_OFF	n/a	n/a	ROPE	7	9	[0, 0, 0]	n/a	FR1	0	R1195E
1249.004	1.618	1270653	WORD	n/a	wordpools/wordpool_EN.txt	CAGE	8	9	[0, 0, 0]	n/a	FR1	0	R1195E
1250.622	0.883	1272271	WORD_OFF	n/a	n/a	CAGE	8	9	[0, 0, 0]	n/a	FR1	0	R1195E
1251.505	1.617	1273154	WORD	n/a	wordpools/wordpool_EN.txt	SNAIL	9	9	[0, 0, 0]	n/a	FR1	0	R1195E
1253.122	0.816	1274771	WORD_OFF	n/a	n/a	SNAIL	9	9	[0, 0, 0]	n/a	FR1	0	R1195E
1253.938	1.618	1275587	WORD	n/a	wordpools/wordpool_EN.txt	LAMB	10	9	[0, 0, 0]	n/a	FR1	0	R1195E
1255.556	0.85	1277205	WORD_OFF	n/a	n/a	LAMB	10	9	[0, 0, 0]	n/a	FR1	0	R1195E
1256.406	1.616	1278055	WORD	n/a	wordpools/wordpool_EN.txt	COW	11	9	[0, 0, 0]	n/a	FR1	0	R1195E
1258.022	1.0	1279671	WORD_OFF	n/a	n/a	COW	11	9	[0, 0, 0]	n/a	FR1	0	R1195E
1259.022	1.618	1280671	WORD	n/a	wordpools/wordpool_EN.txt	ARK	12	9	[0, 0, 0]	n/a	FR1	0	R1195E
1260.64	0.0	1282289	WORD_OFF	n/a	n/a	ARK	12	9	[0, 0, 0]	n/a	FR1	0	R1195E
1260.64	0.001	1282289	DISTRACT_START	n/a	n/a	n/a	-999	9	[0, 0, 0]	n/a	FR1	0	R1195E
1260.641	0.016	1282290	START	n/a	n/a	n/a	-999	9	[-999, -999, -999]	n/a	FR1	0	R1195E
1260.657	10.718	1282306	PROB	10.718	n/a	n/a	-999	9	[7, 9, 9]	25	FR1	0	R1195E
1271.375	5.684	1293023	PROB	5.684	n/a	n/a	-999	9	[7, 5, 6]	18	FR1	0	R1195E
1277.059	3.925	1298707	PROB	3.925	n/a	n/a	-999	9	[4, 6, 8]	18	FR1	0	R1195E
1280.984	0.009	1302632	STOP	n/a	n/a	n/a	-999	9	[-999, -999, -999]	n/a	FR1	0	R1195E
1280.993	0.634	1302641	DISTRACT_END	n/a	n/a	n/a	-999	9	[0, 0, 0]	n/a	FR1	0	R1195E
1281.627	0.517	1303275	RETRIEVAL_ORIENT	n/a	n/a	n/a	-999	9	[0, 0, 0]	n/a	FR1	0	R1195E
1282.144	2.159	1303792	REC_START	n/a	n/a	n/a	-999	9	[0, 0, 0]	n/a	FR1	0	R1195E
1284.303	3.029	1305951	REC_WORD	3.029	n/a	ARK	12	9	[0, 0, 0]	n/a	FR1	0	R1195E
1287.332	0.929	1308980	REC_WORD	0.929	n/a	TREE	2	9	[0, 0, 0]	n/a	FR1	0	R1195E
1288.261	0.84	1309909	REC_WORD	0.84	n/a	CHALK	3	9	[0, 0, 0]	n/a	FR1	0	R1195E
1289.101	3.563	1310749	REC_WORD	3.563	n/a	MAZE	4	9	[0, 0, 0]	n/a	FR1	0	R1195E
1292.664	6.077	1314312	REC_WORD_VV	6.077	n/a	<>	-999	9	[0, 0, 0]	n/a	FR1	0	R1195E
1298.741	13.415	1320388	REC_WORD	13.415	n/a	FENCE	-999	9	[0, 0, 0]	n/a	FR1	0	R1195E
1312.156	6.693	1333803	REC_END	n/a	n/a	n/a	-999	9	[0, 0, 0]	n/a	FR1	0	R1195E
1318.849	0.5	1340496	TRIAL	n/a	n/a	n/a	-999	10	[0, 0, 0]	n/a	FR1	0	R1195E
1319.349	10.428	1340996	COUNTDOWN_START	n/a	n/a	n/a	-999	10	[0, 0, 0]	n/a	FR1	0	R1195E
1329.777	0.007	1351423	COUNTDOWN_END	n/a	n/a	n/a	-999	10	[0, 0, 0]	n/a	FR1	0	R1195E
1329.784	1.602	1351430	ORIENT	n/a	n/a	n/a	-999	10	[0, 0, 0]	n/a	FR1	0	R1195E
1331.386	2.15	1353032	ORIENT_OFF	n/a	n/a	n/a	-999	10	[0, 0, 0]	n/a	FR1	0	R1195E
1333.536	1.617	1355182	WORD	n/a	wordpools/wordpool_EN.txt	CANE	1	10	[0, 0, 0]	n/a	FR1	0	R1195E
1335.153	0.833	1356799	WORD_OFF	n/a	n/a	CANE	1	10	[0, 0, 0]	n/a	FR1	0	R1195E
1335.986	1.617	1357632	WORD	n/a	wordpools/wordpool_EN.txt	HOSE	2	10	[0, 0, 0]	n/a	FR1	0	R1195E
1337.603	0.967	1359249	WORD_OFF	n/a	n/a	HOSE	2	10	[0, 0, 0]	n/a	FR1	0	R1195E
1338.57	1.617	1360216	WORD	n/a	wordpools/wordpool_EN.txt	SUIT	3	10	[0, 0, 0]	n/a	FR1	0	R1195E
1340.187	0.917	1361833	WORD_OFF	n/a	n/a	SUIT	3	10	[0, 0, 0]	n/a	FR1	0	R1195E
1341.104	1.616	1362750	WORD	n/a	wordpools/wordpool_EN.txt	PIE	4	10	[0, 0, 0]	n/a	FR1	0	R1195E
1342.72	0.835	1364366	WORD_OFF	n/a	n/a	PIE	4	10	[0, 0, 0]	n/a	FR1	0	R1195E
1343.555	1.617	1365201	WORD	n/a	wordpools/wordpool_EN.txt	SEAT	5	10	[0, 0, 0]	n/a	FR1	0	R1195E
1345.172	1.016	1366818	WORD_OFF	n/a	n/a	SEAT	5	10	[0, 0, 0]	n/a	FR1	0	R1195E
1346.188	1.616	1367834	WORD	n/a	wordpools/wordpool_EN.txt	PURSE	6	10	[0, 0, 0]	n/a	FR1	0	R1195E
1347.804	1.001	1369450	WORD_OFF	n/a	n/a	PURSE	6	10	[0, 0, 0]	n/a	FR1	0	R1195E
1348.805	1.617	1370451	WORD	n/a	wordpools/wordpool_EN.txt	DIME	7	10	[0, 0, 0]	n/a	FR1	0	R1195E
1350.422	0.984	1372067	WORD_OFF	n/a	n/a	DIME	7	10	[0, 0, 0]	n/a	FR1	0	R1195E
1351.406	1.616	1373051	WORD	n/a	wordpools/wordpool_EN.txt	DITCH	8	10	[0, 0, 0]	n/a	FR1	0	R1195E
1353.022	1.0	1374667	WORD_OFF	n/a	n/a	DITCH	8	10	[0, 0, 0]	n/a	FR1	0	R1195E
1354.022	1.601	1375667	WORD	n/a	wordpools/wordpool_EN.txt	DRESS	9	10	[0, 0, 0]	n/a	FR1	0	R1195E
1355.623	0.801	1377268	WORD_OFF	n/a	n/a	DRESS	9	10	[0, 0, 0]	n/a	FR1	0	R1195E
1356.424	1.615	1378069	WORD	n/a	wordpools/wordpool_EN.txt	SMILE	10	10	[0, 0, 0]	n/a	FR1	0	R1195E
1358.039	0.984	1379684	WORD_OFF	n/a	n/a	SMILE	10	10	[0, 0, 0]	n/a	FR1	0	R1195E
1359.023	1.618	1380668	WORD	n/a	wordpools/wordpool_EN.txt	SHARK	11	10	[0, 0, 0]	n/a	FR1	0	R1195E
1360.641	1.0	1382286	WORD_OFF	n/a	n/a	SHARK	11	10	[0, 0, 0]	n/a	FR1	0	R1195E
1361.641	1.617	1383286	WORD	n/a	wordpools/wordpool_EN.txt	CRANE	12	10	[0, 0, 0]	n/a	FR1	0	R1195E
1363.258	0.0	1384903	WORD_OFF	n/a	n/a	CRANE	12	10	[0, 0, 0]	n/a	FR1	0	R1195E
1363.258	0.001	1384903	DISTRACT_START	n/a	n/a	n/a	-999	10	[0, 0, 0]	n/a	FR1	0	R1195E
1363.259	0.016	1384904	START	n/a	n/a	n/a	-999	10	[-999, -999, -999]	n/a	FR1	0	R1195E
1363.275	5.084	1384920	PROB	5.084	n/a	n/a	-999	10	[6, 1, 7]	14	FR1	0	R1195E
1368.359	12.936	1390004	PROB	12.936	n/a	n/a	-999	10	[3, 8, 6]	17	FR1	0	R1195E
1381.295	10.508	1402939	PROB	10.508	n/a	n/a	-999	10	[5, 8, 4]	17	FR1	0	R1195E
1391.803	0.009	1413447	STOP	n/a	n/a	n/a	-999	10	[-999, -999, -999]	n/a	FR1	0	R1195E
1391.812	0.568	1413456	DISTRACT_END	n/a	n/a	n/a	-999	10	[0, 0, 0]	n/a	FR1	0	R1195E
1392.38	0.516	1414024	RETRIEVAL_ORIENT	n/a	n/a	n/a	-999	10	[0, 0, 0]	n/a	FR1	0	R1195E
1392.896	2.3	1414540	REC_START	n/a	n/a	n/a	-999	10	[0, 0, 0]	n/a	FR1	0	R1195E
1395.196	5.906	1416840	REC_WORD	5.906	n/a	CRANE	12	10	[0, 0, 0]	n/a	FR1	0	R1195E
1401.102	21.806	1422746	REC_WORD	21.806	n/a	CLOTH	-999	10	[0, 0, 0]	n/a	FR1	0	R1195E
1422.908	22.381	1444551	REC_END	n/a	n/a	n/a	-999	10	[0, 0, 0]	n/a	FR1	0	R1195E
1445.289	0.5	1466931	TRIAL	n/a	n/a	n/a	-999	11	[0, 0, 0]	n/a	FR1	0	R1195E
1445.789	10.428	1467431	COUNTDOWN_START	n/a	n/a	n/a	-999	11	[0, 0, 0]	n/a	FR1	0	R1195E
1456.217	0.007	1477859	COUNTDOWN_END	n/a	n/a	n/a	-999	11	[0, 0, 0]	n/a	FR1	0	R1195E
1456.224	1.616	1477866	ORIENT	n/a	n/a	n/a	-999	11	[0, 0, 0]	n/a	FR1	0	R1195E
1457.84	2.034	1479481	ORIENT_OFF	n/a	n/a	n/a	-999	11	[0, 0, 0]	n/a	FR1	0	R1195E
1459.874	1.618	1481515	WORD	n/a	wordpools/wordpool_EN.txt	STOOL	1	11	[0, 0, 0]	n/a	FR1	0	R1195E
1461.492	0.834	1483133	WORD_OFF	n/a	n/a	STOOL	1	11	[0, 0, 0]	n/a	FR1	0	R1195E
1462.326	1.615	1483967	WORD	n/a	wordpools/wordpool_EN.txt	DOCK	2	11	[0, 0, 0]	n/a	FR1	0	R1195E
1463.941	0.984	1485582	WORD_OFF	n/a	n/a	DOCK	2	11	[0, 0, 0]	n/a	FR1	0	R1195E
1464.925	1.618	1486566	WORD	n/a	wordpools/wordpool_EN.txt	JUICE	3	11	[0, 0, 0]	n/a	FR1	0	R1195E
1466.543	0.867	1488184	WORD_OFF	n/a	n/a	JUICE	3	11	[0, 0, 0]	n/a	FR1	0	R1195E
1467.41	1.616	1489051	WORD	n/a	wordpools/wordpool_EN.txt	ROSE	4	11	[0, 0, 0]	n/a	FR1	0	R1195E
1469.026	0.817	1490667	WORD_OFF	n/a	n/a	ROSE	4	11	[0, 0, 0]	n/a	FR1	0	R1195E
1469.843	1.618	1491484	WORD	n/a	wordpools/wordpool_EN.txt	EAR	5	11	[0, 0, 0]	n/a	FR1	0	R1195E
1471.461	0.849	1493102	WORD_OFF	n/a	n/a	EAR	5	11	[0, 0, 0]	n/a	FR1	0	R1195E
1472.31	1.617	1493951	WORD	n/a	wordpools/wordpool_EN.txt	BIRD	6	11	[0, 0, 0]	n/a	FR1	0	R1195E
1473.927	0.784	1495568	WORD_OFF	n/a	n/a	BIRD	6	11	[0, 0, 0]	n/a	FR1	0	R1195E
1474.711	1.617	1496352	WORD	n/a	wordpools/wordpool_EN.txt	MAIL	7	11	[0, 0, 0]	n/a	FR1	0	R1195E
1476.328	0.8	1497969	WORD_OFF	n/a	n/a	MAIL	7	11	[0, 0, 0]	n/a	FR1	0	R1195E
1477.128	1.616	1498769	WORD	n/a	wordpools/wordpool_EN.txt	EEL	8	11	[0, 0, 0]	n/a	FR1	0	R1195E
1478.744	0.768	1500385	WORD_OFF	n/a	n/a	EEL	8	11	[0, 0, 0]	n/a	FR1	0	R1195E
1479.512	1.617	1501153	WORD	n/a	wordpools/wordpool_EN.txt	FISH	9	11	[0, 0, 0]	n/a	FR1	0	R1195E
1481.129	0.932	1502770	WORD_OFF	n/a	n/a	FISH	9	11	[0, 0, 0]	n/a	FR1	0	R1195E
1482.061	1.618	1503702	WORD	n/a	wordpools/wordpool_EN.txt	CALF	10	11	[0, 0, 0]	n/a	FR1	0	R1195E
1483.679	0.784	1505319	WORD_OFF	n/a	n/a	CALF	10	11	[0, 0, 0]	n/a	FR1	0	R1195E
1484.463	1.616	1506103	WORD	n/a	wordpools/wordpool_EN.txt	PLANE	11	11	[0, 0, 0]	n/a	FR1	0	R1195E
1486.079	0.883	1507719	WORD_OFF	n/a	n/a	PLANE	11	11	[0, 0, 0]	n/a	FR1	0	R1195E
1486.962	1.618	1508602	WORD	n/a	wordpools/wordpool_EN.txt	TAIL	12	11	[0, 0, 0]	n/a	FR1	0	R1195E
1488.58	0.0	1510220	DISTRACT_START	n/a	n/a	n/a	-999	11	[0, 0, 0]	n/a	FR1	0	R1195E
1488.58	0.001	1510220	WORD_OFF	n/a	n/a	TAIL	12	11	[0, 0, 0]	n/a	FR1	0	R1195E
1488.581	0.016	1510221	START	n/a	n/a	n/a	-999	11	[-999, -999, -999]	n/a	FR1	0	R1195E
1488.597	11.585	1510237	PROB	11.585	n/a	n/a	-999	11	[6, 5, 6]	17	FR1	0	R1195E
1500.182	6.435	1521822	PROB	6.435	n/a	n/a	-999	11	[4, 2, 3]	9	FR1	0	R1195E
1506.617	4.675	1528257	PROB	4.675	n/a	n/a	-999	11	[2, 3, 5]	10	FR1	0	R1195E
1511.292	0.009	1532931	STOP	n/a	n/a	n/a	-999	11	[-999, -999, -999]	n/a	FR1	0	R1195E
1511.301	0.649	1532940	DISTRACT_END	n/a	n/a	n/a	-999	11	[0, 0, 0]	n/a	FR1	0	R1195E
1511.95	0.502	1533589	RETRIEVAL_ORIENT	n/a	n/a	n/a	-999	11	[0, 0, 0]	n/a	FR1	0	R1195E
1512.452	1.785	1534091	REC_START	n/a	n/a	n/a	-999	11	[0, 0, 0]	n/a	FR1	0	R1195E
1514.237	1.017	1535876	REC_WORD	1.017	n/a	EEL	8	11	[0, 0, 0]	n/a	FR1	0	R1195E
1515.254	9.243	1536893	REC_WORD	9.243	n/a	CALF	10	11	[0, 0, 0]	n/a	FR1	0	R1195E
1524.497	1.004	1546136	REC_WORD_VV	1.004	n/a	<>	-999	11	[0, 0, 0]	n/a	FR1	0	R1195E
1525.501	7.688	1547140	REC_WORD_VV	7.688	n/a	<>	-999	11	[0, 0, 0]	n/a	FR1	0	R1195E
1533.189	6.171	1554828	REC_WORD_VV	6.171	n/a	<>	-999	11	[0, 0, 0]	n/a	FR1	0	R1195E
1539.36	3.102	1560998	REC_WORD	3.102	n/a	TREE	-999	11	[0, 0, 0]	n/a	FR1	0	R1195E
1542.462	5.962	1564100	REC_END	n/a	n/a	n/a	-999	11	[0, 0, 0]	n/a	FR1	0	R1195E
1548.424	0.5	1570062	TRIAL	n/a	n/a	n/a	-999	12	[0, 0, 0]	n/a	FR1	0	R1195E
1548.924	10.428	1570562	COUNTDOWN_START	n/a	n/a	n/a	-999	12	[0, 0, 0]	n/a	FR1	0	R1195E
1559.352	0.007	1580990	COUNTDOWN_END	n/a	n/a	n/a	-999	12	[0, 0, 0]	n/a	FR1	0	R1195E
1559.359	1.616	1580997	ORIENT	n/a	n/a	n/a	-999	12	[0, 0, 0]	n/a	FR1	0	R1195E
1560.975	2.135	1582613	ORIENT_OFF	n/a	n/a	n/a	-999	12	[0, 0, 0]	n/a	FR1	0	R1195E
1563.11	1.616	1584747	WORD	n/a	wordpools/wordpool_EN.txt	COUCH	1	12	[0, 0, 0]	n/a	FR1	0	R1195E
1564.726	0.767	1586363	WORD_OFF	n/a	n/a	COUCH	1	12	[0, 0, 0]	n/a	FR1	0	R1195E
1565.493	1.618	1587130	WORD	n/a	wordpools/wordpool_EN.txt	BEAK	2	12	[0, 0, 0]	n/a	FR1	0	R1195E
1567.111	0.832	1588748	WORD_OFF	n/a	n/a	BEAK	2	12	[0, 0, 0]	n/a	FR1	0	R1195E
1567.943	1.618	1589580	WORD	n/a	wordpools/wordpool_EN.txt	TENT	3	12	[0, 0, 0]	n/a	FR1	0	R1195E
1569.561	0.884	1591198	WORD_OFF	n/a	n/a	TENT	3	12	[0, 0, 0]	n/a	FR1	0	R1195E
1570.445	1.616	1592082	WORD	n/a	wordpools/wordpool_EN.txt	SHIELD	4	12	[0, 0, 0]	n/a	FR1	0	R1195E
1572.061	0.85	1593698	WORD_OFF	n/a	n/a	SHIELD	4	12	[0, 0, 0]	n/a	FR1	0	R1195E
1572.911	1.618	1594548	WORD	n/a	wordpools/wordpool_EN.txt	CAVE	5	12	[0, 0, 0]	n/a	FR1	0	R1195E
1574.529	0.95	1596166	WORD_OFF	n/a	n/a	CAVE	5	12	[0, 0, 0]	n/a	FR1	0	R1195E
1575.479	1.617	1597116	WORD	n/a	wordpools/wordpool_EN.txt	BRANCH	6	12	[0, 0, 0]	n/a	FR1	0	R1195E
1577.096	1.0	1598733	WORD_OFF	n/a	n/a	BRANCH	6	12	[0, 0, 0]	n/a	FR1	0	R1195E
1578.096	1.617	1599733	WORD	n/a	wordpools/wordpool_EN.txt	NOSE	7	12	[0, 0, 0]	n/a	FR1	0	R1195E
1579.713	0.8	1601350	WORD_OFF	n/a	n/a	NOSE	7	12	[0, 0, 0]	n/a	FR1	0	R1195E
1580.513	1.617	1602150	WORD	n/a	wordpools/wordpool_EN.txt	TOAST	8	12	[0, 0, 0]	n/a	FR1	0	R1195E
1582.13	0.799	1603767	WORD_OFF	n/a	n/a	TOAST	8	12	[0, 0, 0]	n/a	FR1	0	R1195E
1582.929	1.618	1604566	WORD	n/a	wordpools/wordpool_EN.txt	BREAD	9	12	[0, 0, 0]	n/a	FR1	0	R1195E
1584.547	0.917	1606184	WORD_OFF	n/a	n/a	BREAD	9	12	[0, 0, 0]	n/a	FR1	0	R1195E
1585.464	1.616	1607101	WORD	n/a	wordpools/wordpool_EN.txt	MUD	10	12	[0, 0, 0]	n/a	FR1	0	R1195E
1587.08	1.0	1608717	WORD_OFF	n/a	n/a	MUD	10	12	[0, 0, 0]	n/a	FR1	0	R1195E
1588.08	1.618	1609717	WORD	n/a	wordpools/wordpool_EN.txt	FLOOR	11	12	[0, 0, 0]	n/a	FR1	0	R1195E
1589.698	0.766	1611335	WORD_OFF	n/a	n/a	FLOOR	11	12	[0, 0, 0]	n/a	FR1	0	R1195E
1590.464	1.617	1612100	WORD	n/a	wordpools/wordpool_EN.txt	LEG	12	12	[0, 0, 0]	n/a	FR1	0	R1195E
1592.081	0.0	1613717	WORD_OFF	n/a	n/a	LEG	12	12	[0, 0, 0]	n/a	FR1	0	R1195E
1592.081	0.0	1613717	DISTRACT_START	n/a	n/a	n/a	-999	12	[0, 0, 0]	n/a	FR1	0	R1195E
1592.081	0.017	1613717	START	n/a	n/a	n/a	-999	12	[-999, -999, -999]	n/a	FR1	0	R1195E
1592.098	6.485	1613734	PROB	6.485	n/a	n/a	-999	12	[9, 6, 1]	16	FR1	0	R1195E
1598.583	3.6	1620219	PROB	3.6	n/a	n/a	-999	12	[8, 1, 1]	10	FR1	0	R1195E
1602.183	4.634	1623819	PROB	4.634	n/a	n/a	-999	12	[6, 5, 2]	13	FR1	0	R1195E
1606.817	4.501	1628453	PROB	4.501	n/a	n/a	-999	12	[3, 4, 8]	15	FR1	0	R1195E
1611.318	4.055	1632954	PROB	4.055	n/a	n/a	-999	12	[6, 8, 1]	15	FR1	0	R1195E
1615.373	0.013	1637009	STOP	n/a	n/a	n/a	-999	12	[-999, -999, -999]	n/a	FR1	0	R1195E
1615.386	0.7	1637022	DISTRACT_END	n/a	n/a	n/a	-999	12	[0, 0, 0]	n/a	FR1	0	R1195E
1616.086	0.517	1637722	RETRIEVAL_ORIENT	n/a	n/a	n/a	-999	12	[0, 0, 0]	n/a	FR1	0	R1195E
1616.603	1.155	1638238	REC_START	n/a	n/a	n/a	-999	12	[0, 0, 0]	n/a	FR1	0	R1195E
1617.758	1.236	1639393	REC_WORD	1.236	n/a	MUD	10	12	[0, 0, 0]	n/a	FR1	0	R1195E
1618.994	1.954	1640629	REC_WORD	1.954	n/a	FLOOR	11	12	[0, 0, 0]	n/a	FR1	0	R1195E
1620.948	1.821	1642583	REC_WORD	1.821	n/a	BRANCH	6	12	[0, 0, 0]	n/a	FR1	0	R1195E
1622.769	23.846	1644404	REC_WORD	23.846	n/a	SHIELD	4	12	[0, 0, 0]	n/a	FR1	0	R1195E
1646.615	5.243	1668249	REC_END	n/a	n/a	n/a	-999	12	[0, 0, 0]	n/a	FR1	0	R1195E
1651.858	0.5	1673492	TRIAL	n/a	n/a	n/a	-999	13	[0, 0, 0]	n/a	FR1	0	R1195E
1652.358	10.428	1673992	COUNTDOWN_START	n/a	n/a	n/a	-999	13	[0, 0, 0]	n/a	FR1	0	R1195E
1662.786	0.007	1684420	COUNTDOWN_END	n/a	n/a	n/a	-999	13	[0, 0, 0]	n/a	FR1	0	R1195E
1662.793	1.618	1684427	ORIENT	n/a	n/a	n/a	-999	13	[0, 0, 0]	n/a	FR1	0	R1195E
1664.411	2.217	1686045	ORIENT_OFF	n/a	n/a	n/a	-999	13	[0, 0, 0]	n/a	FR1	0	R1195E
1666.628	1.617	1688262	WORD	n/a	wordpools/wordpool_EN.txt	TEA	1	13	[0, 0, 0]	n/a	FR1	0	R1195E
1668.245	0.95	1689879	WORD_OFF	n/a	n/a	TEA	1	13	[0, 0, 0]	n/a	FR1	0	R1195E
1669.195	1.616	1690829	WORD	n/a	wordpools/wordpool_EN.txt	CAKE	2	13	[0, 0, 0]	n/a	FR1	0	R1195E
1670.811	1.001	1692444	WORD_OFF	n/a	n/a	CAKE	2	13	[0, 0, 0]	n/a	FR1	0	R1195E
1671.812	1.617	1693445	WORD	n/a	wordpools/wordpool_EN.txt	ARM	3	13	[0, 0, 0]	n/a	FR1	0	R1195E
1673.429	0.884	1695062	WORD_OFF	n/a	n/a	ARM	3	13	[0, 0, 0]	n/a	FR1	0	R1195E
1674.313	1.616	1695946	WORD	n/a	wordpools/wordpool_EN.txt	FOX	4	13	[0, 0, 0]	n/a	FR1	0	R1195E
1675.929	0.95	1697562	WORD_OFF	n/a	n/a	FOX	4	13	[0, 0, 0]	n/a	FR1	0	R1195E
1676.879	1.618	1698512	WORD	n/a	wordpools/wordpool_EN.txt	DOOR	5	13	[0, 0, 0]	n/a	FR1	0	R1195E
1678.497	0.783	1700130	WORD_OFF	n/a	n/a	DOOR	5	13	[0, 0, 0]	n/a	FR1	0	R1195E
1679.28	1.616	1700913	WORD	n/a	wordpools/wordpool_EN.txt	MOON	6	13	[0, 0, 0]	n/a	FR1	0	R1195E
1680.896	0.884	1702529	WORD_OFF	n/a	n/a	MOON	6	13	[0, 0, 0]	n/a	FR1	0	R1195E
1681.78	1.618	1703413	WORD	n/a	wordpools/wordpool_EN.txt	GRASS	7	13	[0, 0, 0]	n/a	FR1	0	R1195E
1683.398	0.833	1705031	WORD_OFF	n/a	n/a	GRASS	7	13	[0, 0, 0]	n/a	FR1	0	R1195E
1684.231	1.616	1705864	WORD	n/a	wordpools/wordpool_EN.txt	DOLL	8	13	[0, 0, 0]	n/a	FR1	0	R1195E
1685.847	0.917	1707480	WORD_OFF	n/a	n/a	DOLL	8	13	[0, 0, 0]	n/a	FR1	0	R1195E
1686.764	1.618	1708397	WORD	n/a	wordpools/wordpool_EN.txt	MOOSE	9	13	[0, 0, 0]	n/a	FR1	0	R1195E
1688.382	0.883	1710015	WORD_OFF	n/a	n/a	MOOSE	9	13	[0, 0, 0]	n/a	FR1	0	R1195E
1689.265	1.616	1710898	WORD	n/a	wordpools/wordpool_EN.txt	PIT	10	13	[0, 0, 0]	n/a	FR1	0	R1195E
1690.881	0.934	1712514	WORD_OFF	n/a	n/a	PIT	10	13	[0, 0, 0]	n/a	FR1	0	R1195E
1691.815	1.618	1713448	WORD	n/a	wordpools/wordpool_EN.txt	MOLE	11	13	[0, 0, 0]	n/a	FR1	0	R1195E
1693.433	0.967	1715066	WORD_OFF	n/a	n/a	MOLE	11	13	[0, 0, 0]	n/a	FR1	0	R1195E
1694.4	1.616	1716033	WORD	n/a	wordpools/wordpool_EN.txt	KEY	12	13	[0, 0, 0]	n/a	FR1	0	R1195E
1696.016	0.0	1717649	WORD_OFF	n/a	n/a	KEY	12	13	[0, 0, 0]	n/a	FR1	0	R1195E
1696.016	0.0	1717649	DISTRACT_START	n/a	n/a	n/a	-999	13	[0, 0, 0]	n/a	FR1	0	R1195E
1696.016	0.016	1717649	START	n/a	n/a	n/a	-999	13	[-999, -999, -999]	n/a	FR1	0	R1195E
1696.032	10.553	1717665	PROB	10.553	n/a	n/a	-999	13	[8, 9, 5]	22	FR1	0	R1195E
1706.585	10.9	1728217	PROB	10.9	n/a	n/a	-999	13	[5, 6, 8]	19	FR1	0	R1195E
1717.485	0.019	1739117	STOP	n/a	n/a	n/a	-999	13	[-999, -999, -999]	n/a	FR1	0	R1195E
1717.504	0.667	1739136	DISTRACT_END	n/a	n/a	n/a	-999	13	[0, 0, 0]	n/a	FR1	0	R1195E
1718.171	0.517	1739803	RETRIEVAL_ORIENT	n/a	n/a	n/a	-999	13	[0, 0, 0]	n/a	FR1	0	R1195E
1718.688	5.236	1740320	REC_START	n/a	n/a	n/a	-999	13	[0, 0, 0]	n/a	FR1	0	R1195E
1723.924	1.961	1745555	REC_WORD	1.961	n/a	TEA	1	13	[0, 0, 0]	n/a	FR1	0	R1195E
1725.885	1.615	1747516	REC_WORD	1.615	n/a	CAKE	2	13	[0, 0, 0]	n/a	FR1	0	R1195E
1727.5	2.553	1749131	REC_WORD	2.553	n/a	MOLE	11	13	[0, 0, 0]	n/a	FR1	0	R1195E
1730.053	8.938	1751684	REC_WORD	8.938	n/a	MOOSE	9	13	[0, 0, 0]	n/a	FR1	0	R1195E
1738.991	9.708	1760622	REC_WORD	9.708	n/a	FLOOR	-999	13	[0, 0, 0]	n/a	FR1	0	R1195E
1748.699	7.094	1770330	REC_END	n/a	n/a	n/a	-999	13	[0, 0, 0]	n/a	FR1	0	R1195E
1755.793	0.5	1777423	TRIAL	n/a	n/a	n/a	-999	14	[0, 0, 0]	n/a	FR1	0	R1195E
1756.293	10.428	1777923	COUNTDOWN_START	n/a	n/a	n/a	-999	14	[0, 0, 0]	n/a	FR1	0	R1195E
1766.721	0.007	1788351	COUNTDOWN_END	n/a	n/a	n/a	-999	14	[0, 0, 0]	n/a	FR1	0	R1195E
1766.728	1.618	1788358	ORIENT	n/a	n/a	n/a	-999	14	[0, 0, 0]	n/a	FR1	0	R1195E
1768.346	2.184	1789976	ORIENT_OFF	n/a	n/a	n/a	-999	14	[0, 0, 0]	n/a	FR1	0	R1195E
1770.53	1.617	1792160	WORD	n/a	wordpools/wordpool_EN.txt	SOCK	1	14	[0, 0, 0]	n/a	FR1	0	R1195E
1772.147	0.967	1793777	WORD_OFF	n/a	n/a	SOCK	1	14	[0, 0, 0]	n/a	FR1	0	R1195E
1773.114	1.616	1794744	WORD	n/a	wordpools/wordpool_EN.txt	CROW	2	14	[0, 0, 0]	n/a	FR1	0	R1195E
1774.73	0.917	1796360	WORD_OFF	n/a	n/a	CROW	2	14	[0, 0, 0]	n/a	FR1	0	R1195E
1775.647	1.617	1797277	WORD	n/a	wordpools/wordpool_EN.txt	BOOT	3	14	[0, 0, 0]	n/a	FR1	0	R1195E
1777.264	0.967	1798893	WORD_OFF	n/a	n/a	BOOT	3	14	[0, 0, 0]	n/a	FR1	0	R1195E
1778.231	1.616	1799860	WORD	n/a	wordpools/wordpool_EN.txt	SHOE	4	14	[0, 0, 0]	n/a	FR1	0	R1195E
1779.847	0.967	1801476	WORD_OFF	n/a	n/a	SHOE	4	14	[0, 0, 0]	n/a	FR1	0	R1195E
1780.814	1.618	1802443	WORD	n/a	wordpools/wordpool_EN.txt	MAT	5	14	[0, 0, 0]	n/a	FR1	0	R1195E
1782.432	0.767	1804061	WORD_OFF	n/a	n/a	MAT	5	14	[0, 0, 0]	n/a	FR1	0	R1195E
1783.199	1.616	1804828	WORD	n/a	wordpools/wordpool_EN.txt	RIB	6	14	[0, 0, 0]	n/a	FR1	0	R1195E
1784.815	0.867	1806444	WORD_OFF	n/a	n/a	RIB	6	14	[0, 0, 0]	n/a	FR1	0	R1195E
1785.682	1.618	1807311	WORD	n/a	wordpools/wordpool_EN.txt	SEAL	7	14	[0, 0, 0]	n/a	FR1	0	R1195E
1787.3	0.833	1808929	WORD_OFF	n/a	n/a	SEAL	7	14	[0, 0, 0]	n/a	FR1	0	R1195E
1788.133	1.616	1809762	WORD	n/a	wordpools/wordpool_EN.txt	STEAM	8	14	[0, 0, 0]	n/a	FR1	0	R1195E
1789.749	0.901	1811378	WORD_OFF	n/a	n/a	STEAM	8	14	[0, 0, 0]	n/a	FR1	0	R1195E
1790.65	1.617	1812279	WORD	n/a	wordpools/wordpool_EN.txt	CAR	9	14	[0, 0, 0]	n/a	FR1	0	R1195E
1792.267	0.917	1813896	WORD_OFF	n/a	n/a	CAR	9	14	[0, 0, 0]	n/a	FR1	0	R1195E
1793.184	1.616	1814813	WORD	n/a	wordpools/wordpool_EN.txt	LIP	10	14	[0, 0, 0]	n/a	FR1	0	R1195E
1794.8	0.784	1816429	WORD_OFF	n/a	n/a	LIP	10	14	[0, 0, 0]	n/a	FR1	0	R1195E
1795.584	1.617	1817213	WORD	n/a	wordpools/wordpool_EN.txt	STAIR	11	14	[0, 0, 0]	n/a	FR1	0	R1195E
1797.201	0.816	1818830	WORD_OFF	n/a	n/a	STAIR	11	14	[0, 0, 0]	n/a	FR1	0	R1195E
1798.017	1.618	1819646	WORD	n/a	wordpools/wordpool_EN.txt	TIE	12	14	[0, 0, 0]	n/a	FR1	0	R1195E
1799.635	0.0	1821264	WORD_OFF	n/a	n/a	TIE	12	14	[0, 0, 0]	n/a	FR1	0	R1195E
1799.635	0.001	1821264	DISTRACT_START	n/a	n/a	n/a	-999	14	[0, 0, 0]	n/a	FR1	0	R1195E
1799.636	0.016	1821265	START	n/a	n/a	n/a	-999	14	[-999, -999, -999]	n/a	FR1	0	R1195E
1799.652	7.133	1821281	PROB	7.133	n/a	n/a	-999	14	[8, 6, 6]	20	FR1	0	R1195E
1806.785	4.168	1828413	PROB	4.168	n/a	n/a	-999	14	[6, 7, 1]	14	FR1	0	R1195E
1810.953	9.044	1832581	PROB	9.044	n/a	n/a	-999	14	[8, 6, 3]	17	FR1	0	R1195E
1819.997	0.007	1841625	STOP	n/a	n/a	n/a	-999	14	[-999, -999, -999]	n/a	FR1	0	R1195E
1820.004	0.585	1841632	DISTRACT_END	n/a	n/a	n/a	-999	14	[0, 0, 0]	n/a	FR1	0	R1195E
1820.589	0.517	1842217	RETRIEVAL_ORIENT	n/a	n/a	n/a	-999	14	[0, 0, 0]	n/a	FR1	0	R1195E
1821.106	3.602	1842734	REC_START	n/a	n/a	n/a	-999	14	[0, 0, 0]	n/a	FR1	0	R1195E
1824.708	1.991	1846336	REC_WORD	1.991	n/a	SOCK	1	14	[0, 0, 0]	n/a	FR1	0	R1195E
1826.699	1.62	1848327	REC_WORD	1.62	n/a	BOOT	3	14	[0, 0, 0]	n/a	FR1	0	R1195E
1828.319	2.105	1849947	REC_WORD	2.105	n/a	SHOE	4	14	[0, 0, 0]	n/a	FR1	0	R1195E
1830.424	2.137	1852051	REC_WORD	2.137	n/a	SEAL	7	14	[0, 0, 0]	n/a	FR1	0	R1195E
1832.561	18.556	1854188	REC_WORD	18.556	n/a	MAT	5	14	[0, 0, 0]	n/a	FR1	0	R1195E
1851.117	4.595	1872744	REC_END	n/a	n/a	n/a	-999	14	[0, 0, 0]	n/a	FR1	0	R1195E
1855.712	0.5	1877339	TRIAL	n/a	n/a	n/a	-999	15	[0, 0, 0]	n/a	FR1	0	R1195E
1856.212	10.428	1877839	COUNTDOWN_START	n/a	n/a	n/a	-999	15	[0, 0, 0]	n/a	FR1	0	R1195E
1866.64	0.007	1888266	COUNTDOWN_END	n/a	n/a	n/a	-999	15	[0, 0, 0]	n/a	FR1	0	R1195E
1866.647	1.617	1888273	ORIENT	n/a	n/a	n/a	-999	15	[0, 0, 0]	n/a	FR1	0	R1195E
1868.264	2.133	1889890	ORIENT_OFF	n/a	n/a	n/a	-999	15	[0, 0, 0]	n/a	FR1	0	R1195E
1870.397	1.617	1892023	WORD	n/a	wordpools/wordpool_EN.txt	JEEP	1	15	[0, 0, 0]	n/a	FR1	0	R1195E
1872.014	0.833	1893640	WORD_OFF	n/a	n/a	JEEP	1	15	[0, 0, 0]	n/a	FR1	0	R1195E
1872.847	1.618	1894473	WORD	n/a	wordpools/wordpool_EN.txt	MOTH	2	15	[0, 0, 0]	n/a	FR1	0	R1195E
1874.465	0.933	1896091	WORD_OFF	n/a	n/a	MOTH	2	15	[0, 0, 0]	n/a	FR1	0	R1195E
1875.398	1.616	1897024	WORD	n/a	wordpools/wordpool_EN.txt	STRAW	3	15	[0, 0, 0]	n/a	FR1	0	R1195E
1877.014	0.8	1898640	WORD_OFF	n/a	n/a	STRAW	3	15	[0, 0, 0]	n/a	FR1	0	R1195E
1877.814	1.601	1899440	WORD	n/a	wordpools/wordpool_EN.txt	SLIME	4	15	[0, 0, 0]	n/a	FR1	0	R1195E
1879.415	0.968	1901041	WORD_OFF	n/a	n/a	SLIME	4	15	[0, 0, 0]	n/a	FR1	0	R1195E
1880.383	1.616	1902009	WORD	n/a	wordpools/wordpool_EN.txt	DESK	5	15	[0, 0, 0]	n/a	FR1	0	R1195E
1881.999	0.8	1903625	WORD_OFF	n/a	n/a	DESK	5	15	[0, 0, 0]	n/a	FR1	0	R1195E
1882.799	1.618	1904425	WORD	n/a	wordpools/wordpool_EN.txt	BRICK	6	15	[0, 0, 0]	n/a	FR1	0	R1195E
1884.417	0.933	1906042	WORD_OFF	n/a	n/a	BRICK	6	15	[0, 0, 0]	n/a	FR1	0	R1195E
1885.35	1.616	1906975	WORD	n/a	wordpools/wordpool_EN.txt	SWAMP	7	15	[0, 0, 0]	n/a	FR1	0	R1195E
1886.966	0.917	1908591	WORD_OFF	n/a	n/a	SWAMP	7	15	[0, 0, 0]	n/a	FR1	0	R1195E
1887.883	1.618	1909508	WORD	n/a	wordpools/wordpool_EN.txt	FLAME	8	15	[0, 0, 0]	n/a	FR1	0	R1195E
1889.501	0.9	1911126	WORD_OFF	n/a	n/a	FLAME	8	15	[0, 0, 0]	n/a	FR1	0	R1195E
1890.401	1.616	1912026	WORD	n/a	wordpools/wordpool_EN.txt	SQUARE	9	15	[0, 0, 0]	n/a	FR1	0	R1195E
1892.017	0.867	1913642	WORD_OFF	n/a	n/a	SQUARE	9	15	[0, 0, 0]	n/a	FR1	0	R1195E
1892.884	1.618	1914509	WORD	n/a	wordpools/wordpool_EN.txt	BOAT	10	15	[0, 0, 0]	n/a	FR1	0	R1195E
1894.502	0.833	1916127	WORD_OFF	n/a	n/a	BOAT	10	15	[0, 0, 0]	n/a	FR1	0	R1195E
1895.335	1.616	1916960	WORD	n/a	wordpools/wordpool_EN.txt	DUCK	11	15	[0, 0, 0]	n/a	FR1	0	R1195E
1896.951	0.967	1918576	WORD_OFF	n/a	n/a	DUCK	11	15	[0, 0, 0]	n/a	FR1	0	R1195E
1897.918	1.618	1919543	WORD	n/a	wordpools/wordpool_EN.txt	SLEEVE	12	15	[0, 0, 0]	n/a	FR1	0	R1195E
1899.536	0.0	1921161	WORD_OFF	n/a	n/a	SLEEVE	12	15	[0, 0, 0]	n/a	FR1	0	R1195E
1899.536	0.001	1921161	DISTRACT_START	n/a	n/a	n/a	-999	15	[0, 0, 0]	n/a	FR1	0	R1195E
1899.537	0.016	1921162	START	n/a	n/a	n/a	-999	15	[-999, -999, -999]	n/a	FR1	0	R1195E
1899.553	4.466	1921178	PROB	4.466	n/a	n/a	-999	15	[8, 8, 1]	17	FR1	0	R1195E
1904.019	6.586	1925644	PROB	6.586	n/a	n/a	-999	15	[2, 7, 7]	16	FR1	0	R1195E
1910.605	3.884	1932229	PROB	3.884	n/a	n/a	-999	15	[5, 9, 5]	19	FR1	0	R1195E
1914.489	8.762	1936113	PROB	8.762	n/a	n/a	-999	15	[3, 8, 6]	17	FR1	0	R1195E
1923.251	0.006	1944875	STOP	n/a	n/a	n/a	-999	15	[-999, -999, -999]	n/a	FR1	0	R1195E
1923.257	0.666	1944881	DISTRACT_END	n/a	n/a	n/a	-999	15	[0, 0, 0]	n/a	FR1	0	R1195E
1923.923	0.518	1945547	RETRIEVAL_ORIENT	n/a	n/a	n/a	-999	15	[0, 0, 0]	n/a	FR1	0	R1195E
1924.441	1.545	1946065	REC_START	n/a	n/a	n/a	-999	15	[0, 0, 0]	n/a	FR1	0	R1195E
1925.986	5.34	1947610	REC_WORD	5.34	n/a	SLEEVE	12	15	[0, 0, 0]	n/a	FR1	0	R1195E
1931.326	6.477	1952950	REC_WORD_VV	6.477	n/a	<>	-999	15	[0, 0, 0]	n/a	FR1	0	R1195E
1937.803	6.82	1959426	REC_WORD_VV	6.82	n/a	<>	-999	15	[0, 0, 0]	n/a	FR1	0	R1195E
1944.623	4.228	1966246	REC_WORD_VV	4.228	n/a	<>	-999	15	[0, 0, 0]	n/a	FR1	0	R1195E
1948.851	5.6	1970474	REC_WORD_VV	5.6	n/a	<>	-999	15	[0, 0, 0]	n/a	FR1	0	R1195E
1954.451	42.736	1976074	REC_END	n/a	n/a	n/a	-999	15	[0, 0, 0]	n/a	FR1	0	R1195E
1997.187	0.5	2018808	TRIAL	n/a	n/a	n/a	-999	16	[0, 0, 0]	n/a	FR1	0	R1195E
1997.687	10.428	2019308	COUNTDOWN_START	n/a	n/a	n/a	-999	16	[0, 0, 0]	n/a	FR1	0	R1195E
2008.115	0.007	2029736	COUNTDOWN_END	n/a	n/a	n/a	-999	16	[0, 0, 0]	n/a	FR1	0	R1195E
2008.122	1.616	2029743	ORIENT	n/a	n/a	n/a	-999	16	[0, 0, 0]	n/a	FR1	0	R1195E
2009.738	2.217	2031359	ORIENT_OFF	n/a	n/a	n/a	-999	16	[0, 0, 0]	n/a	FR1	0	R1195E
2011.955	1.618	2033576	WORD	n/a	wordpools/wordpool_EN.txt	NAIL	1	16	[0, 0, 0]	n/a	FR1	0	R1195E
2013.573	0.9	2035194	WORD_OFF	n/a	n/a	NAIL	1	16	[0, 0, 0]	n/a	FR1	0	R1195E
2014.473	1.617	2036094	WORD	n/a	wordpools/wordpool_EN.txt	GLASS	2	16	[0, 0, 0]	n/a	FR1	0	R1195E
2016.09	0.799	2037711	WORD_OFF	n/a	n/a	GLASS	2	16	[0, 0, 0]	n/a	FR1	0	R1195E
2016.889	1.618	2038510	WORD	n/a	wordpools/wordpool_EN.txt	FORK	3	16	[0, 0, 0]	n/a	FR1	0	R1195E
2018.507	0.783	2040127	WORD_OFF	n/a	n/a	FORK	3	16	[0, 0, 0]	n/a	FR1	0	R1195E
2019.29	1.616	2040910	WORD	n/a	wordpools/wordpool_EN.txt	STICK	4	16	[0, 0, 0]	n/a	FR1	0	R1195E
2020.906	0.967	2042526	WORD_OFF	n/a	n/a	STICK	4	16	[0, 0, 0]	n/a	FR1	0	R1195E
2021.873	1.618	2043493	WORD	n/a	wordpools/wordpool_EN.txt	TOOTH	5	16	[0, 0, 0]	n/a	FR1	0	R1195E
2023.491	0.917	2045111	WORD_OFF	n/a	n/a	TOOTH	5	16	[0, 0, 0]	n/a	FR1	0	R1195E
2024.408	1.616	2046028	WORD	n/a	wordpools/wordpool_EN.txt	RAKE	6	16	[0, 0, 0]	n/a	FR1	0	R1195E
2026.024	0.916	2047644	WORD_OFF	n/a	n/a	RAKE	6	16	[0, 0, 0]	n/a	FR1	0	R1195E
2026.94	1.602	2048560	WORD	n/a	wordpools/wordpool_EN.txt	SIGN	7	16	[0, 0, 0]	n/a	FR1	0	R1195E
2028.542	0.784	2050162	WORD_OFF	n/a	n/a	SIGN	7	16	[0, 0, 0]	n/a	FR1	0	R1195E
2029.326	1.616	2050946	WORD	n/a	wordpools/wordpool_EN.txt	STEAK	8	16	[0, 0, 0]	n/a	FR1	0	R1195E
2030.942	0.8	2052562	WORD_OFF	n/a	n/a	STEAK	8	16	[0, 0, 0]	n/a	FR1	0	R1195E
2031.742	1.618	2053362	WORD	n/a	wordpools/wordpool_EN.txt	GUARD	9	16	[0, 0, 0]	n/a	FR1	0	R1195E
2033.36	0.866	2054980	WORD_OFF	n/a	n/a	GUARD	9	16	[0, 0, 0]	n/a	FR1	0	R1195E
2034.226	1.616	2055846	WORD	n/a	wordpools/wordpool_EN.txt	GOLD	10	16	[0, 0, 0]	n/a	FR1	0	R1195E
2035.842	0.768	2057462	WORD_OFF	n/a	n/a	GOLD	10	16	[0, 0, 0]	n/a	FR1	0	R1195E
2036.61	1.617	2058230	WORD	n/a	wordpools/wordpool_EN.txt	CUBE	11	16	[0, 0, 0]	n/a	FR1	0	R1195E
2038.227	0.967	2059847	WORD_OFF	n/a	n/a	CUBE	11	16	[0, 0, 0]	n/a	FR1	0	R1195E
2039.194	1.616	2060814	WORD	n/a	wordpools/wordpool_EN.txt	BROOM	12	16	[0, 0, 0]	n/a	FR1	0	R1195E
2040.81	0.0	2062430	WORD_OFF	n/a	n/a	BROOM	12	16	[0, 0, 0]	n/a	FR1	0	R1195E
2040.81	0.001	2062430	DISTRACT_START	n/a	n/a	n/a	-999	16	[0, 0, 0]	n/a	FR1	0	R1195E
2040.811	0.016	2062431	START	n/a	n/a	n/a	-999	16	[-999, -999, -999]	n/a	FR1	0	R1195E
2040.827	4.1	2062447	PROB	4.1	n/a	n/a	-999	16	[8, 2, 5]	15	FR1	0	R1195E
2044.927	4.352	2066546	PROB	4.352	n/a	n/a	-999	16	[3, 9, 3]	15	FR1	0	R1195E
2049.279	6.435	2070898	PROB	6.435	n/a	n/a	-999	16	[4, 8, 3]	17	FR1	0	R1195E
2055.714	5.049	2077333	PROB	5.049	n/a	n/a	-999	16	[3, 4, 6]	13	FR1	0	R1195E
2060.763	6.11	2082382	PROB	6.11	n/a	n/a	-999	16	[9, 4, 2]	15	FR1	0	R1195E
2066.873	0.008	2088492	STOP	n/a	n/a	n/a	-999	16	[-999, -999, -999]	n/a	FR1	0	R1195E
2066.881	0.601	2088500	DISTRACT_END	n/a	n/a	n/a	-999	16	[0, 0, 0]	n/a	FR1	0	R1195E
2067.482	0.517	2089101	RETRIEVAL_ORIENT	n/a	n/a	n/a	-999	16	[0, 0, 0]	n/a	FR1	0	R1195E
2067.999	1.304	2089618	REC_START	n/a	n/a	n/a	-999	16	[0, 0, 0]	n/a	FR1	0	R1195E
2069.303	1.522	2090922	REC_WORD_VV	1.522	n/a	<>	-999	16	[0, 0, 0]	n/a	FR1	0	R1195E
2070.825	1.65	2092443	REC_WORD	1.65	n/a	CUBE	11	16	[0, 0, 0]	n/a	FR1	0	R1195E
2072.475	1.85	2094093	REC_WORD	1.85	n/a	STEAK	8	16	[0, 0, 0]	n/a	FR1	0	R1195E
2074.325	2.467	2095943	REC_WORD	2.467	n/a	GLASS	2	16	[0, 0, 0]	n/a	FR1	0	R1195E
2076.792	4.127	2098410	REC_WORD	4.127	n/a	TOOTH	5	16	[0, 0, 0]	n/a	FR1	0	R1195E
2080.919	13.359	2102537	REC_WORD	13.359	n/a	NAIL	1	16	[0, 0, 0]	n/a	FR1	0	R1195E
2094.278	1.0	2115896	REC_WORD_VV	1.0	n/a	<>	-999	16	[0, 0, 0]	n/a	FR1	0	R1195E
2095.278	1.0	2116896	REC_WORD_VV	1.0	n/a	<>	-999	16	[0, 0, 0]	n/a	FR1	0	R1195E
2096.278	1.733	2117896	REC_WORD_VV	1.733	n/a	<>	-999	16	[0, 0, 0]	n/a	FR1	0	R1195E
2098.011	6.144	2119628	REC_END	n/a	n/a	n/a	-999	16	[0, 0, 0]	n/a	FR1	0	R1195E
2104.155	0.5	2125772	TRIAL	n/a	n/a	n/a	-999	17	[0, 0, 0]	n/a	FR1	0	R1195E
2104.655	10.428	2126272	COUNTDOWN_START	n/a	n/a	n/a	-999	17	[0, 0, 0]	n/a	FR1	0	R1195E
2115.083	0.008	2136700	COUNTDOWN_END	n/a	n/a	n/a	-999	17	[0, 0, 0]	n/a	FR1	0	R1195E
2115.091	1.617	2136708	ORIENT	n/a	n/a	n/a	-999	17	[0, 0, 0]	n/a	FR1	0	R1195E
2116.708	2.249	2138325	ORIENT_OFF	n/a	n/a	n/a	-999	17	[0, 0, 0]	n/a	FR1	0	R1195E
2118.957	1.601	2140574	WORD	n/a	wordpools/wordpool_EN.txt	LEAF	1	17	[0, 0, 0]	n/a	FR1	0	R1195E
2120.558	0.884	2142175	WORD_OFF	n/a	n/a	LEAF	1	17	[0, 0, 0]	n/a	FR1	0	R1195E
2121.442	1.616	2143059	WORD	n/a	wordpools/wordpool_EN.txt	ROOF	2	17	[0, 0, 0]	n/a	FR1	0	R1195E
2123.058	0.967	2144675	WORD_OFF	n/a	n/a	ROOF	2	17	[0, 0, 0]	n/a	FR1	0	R1195E
2124.025	1.618	2145641	WORD	n/a	wordpools/wordpool_EN.txt	TOE	3	17	[0, 0, 0]	n/a	FR1	0	R1195E
2125.643	0.916	2147259	WORD_OFF	n/a	n/a	TOE	3	17	[0, 0, 0]	n/a	FR1	0	R1195E
2126.559	1.617	2148175	WORD	n/a	wordpools/wordpool_EN.txt	CLIFF	4	17	[0, 0, 0]	n/a	FR1	0	R1195E
2128.176	0.899	2149792	WORD_OFF	n/a	n/a	CLIFF	4	17	[0, 0, 0]	n/a	FR1	0	R1195E
2129.075	1.618	2150691	WORD	n/a	wordpools/wordpool_EN.txt	ANT	5	17	[0, 0, 0]	n/a	FR1	0	R1195E
2130.693	1.001	2152309	WORD_OFF	n/a	n/a	ANT	5	17	[0, 0, 0]	n/a	FR1	0	R1195E
2131.694	1.617	2153310	WORD	n/a	wordpools/wordpool_EN.txt	CHEEK	6	17	[0, 0, 0]	n/a	FR1	0	R1195E
2133.311	0.916	2154927	WORD_OFF	n/a	n/a	CHEEK	6	17	[0, 0, 0]	n/a	FR1	0	R1195E
2134.227	1.616	2155843	WORD	n/a	wordpools/wordpool_EN.txt	NEST	7	17	[0, 0, 0]	n/a	FR1	0	R1195E
2135.843	1.001	2157459	WORD_OFF	n/a	n/a	NEST	7	17	[0, 0, 0]	n/a	FR1	0	R1195E
2136.844	1.618	2158460	WORD	n/a	wordpools/wordpool_EN.txt	NET	8	17	[0, 0, 0]	n/a	FR1	0	R1195E
2138.462	0.9	2160078	WORD_OFF	n/a	n/a	NET	8	17	[0, 0, 0]	n/a	FR1	0	R1195E
2139.362	1.616	2160978	WORD	n/a	wordpools/wordpool_EN.txt	CHAIR	9	17	[0, 0, 0]	n/a	FR1	0	R1195E
2140.978	0.9	2162594	WORD_OFF	n/a	n/a	CHAIR	9	17	[0, 0, 0]	n/a	FR1	0	R1195E
2141.878	1.618	2163494	WORD	n/a	wordpools/wordpool_EN.txt	MULE	10	17	[0, 0, 0]	n/a	FR1	0	R1195E
2143.496	0.883	2165112	WORD_OFF	n/a	n/a	MULE	10	17	[0, 0, 0]	n/a	FR1	0	R1195E
2144.379	1.616	2165995	WORD	n/a	wordpools/wordpool_EN.txt	PEA	11	17	[0, 0, 0]	n/a	FR1	0	R1195E
2145.995	0.984	2167611	WORD_OFF	n/a	n/a	PEA	11	17	[0, 0, 0]	n/a	FR1	0	R1195E
2146.979	1.618	2168595	WORD	n/a	wordpools/wordpool_EN.txt	HAWK	12	17	[0, 0, 0]	n/a	FR1	0	R1195E
2148.597	0.0	2170213	WORD_OFF	n/a	n/a	HAWK	12	17	[0, 0, 0]	n/a	FR1	0	R1195E
2148.597	0.0	2170213	DISTRACT_START	n/a	n/a	n/a	-999	17	[0, 0, 0]	n/a	FR1	0	R1195E
2148.597	0.016	2170213	START	n/a	n/a	n/a	-999	17	[-999, -999, -999]	n/a	FR1	0	R1195E
2148.613	4.233	2170229	PROB	4.233	n/a	n/a	-999	17	[9, 1, 1]	12	FR1	0	R1195E
2152.846	8.235	2174461	PROB	8.235	n/a	n/a	-999	17	[3, 6, 2]	8	FR1	0	R1195E
2161.081	5.001	2182696	PROB	5.001	n/a	n/a	-999	17	[7, 3, 3]	13	FR1	0	R1195E
2166.082	6.98	2187697	PROB	6.98	n/a	n/a	-999	17	[4, 9, 3]	16	FR1	0	R1195E
2173.062	0.021	2194677	STOP	n/a	n/a	n/a	-999	17	[-999, -999, -999]	n/a	FR1	0	R1195E
2173.083	0.65	2194698	DISTRACT_END	n/a	n/a	n/a	-999	17	[0, 0, 0]	n/a	FR1	0	R1195E
2173.733	0.519	2195348	RETRIEVAL_ORIENT	n/a	n/a	n/a	-999	17	[0, 0, 0]	n/a	FR1	0	R1195E
2174.252	1.801	2195867	REC_START	n/a	n/a	n/a	-999	17	[0, 0, 0]	n/a	FR1	0	R1195E
2176.053	4.974	2197668	REC_WORD	4.974	n/a	MULE	10	17	[0, 0, 0]	n/a	FR1	0	R1195E
2181.027	5.782	2202641	REC_WORD_VV	5.782	n/a	<>	-999	17	[0, 0, 0]	n/a	FR1	0	R1195E
2186.809	8.32	2208423	REC_WORD	8.32	n/a	MULE	10	17	[0, 0, 0]	n/a	FR1	0	R1195E
2195.129	3.343	2216743	REC_WORD	3.343	n/a	MOOSE	-999	17	[0, 0, 0]	n/a	FR1	0	R1195E
2198.472	5.79	2220086	REC_WORD	5.79	n/a	SLEEVE	-999	17	[0, 0, 0]	n/a	FR1	0	R1195E
2204.262	9.263	2225875	REC_END	n/a	n/a	n/a	-999	17	[0, 0, 0]	n/a	FR1	0	R1195E
2213.525	0.5	2235138	TRIAL	n/a	n/a	n/a	-999	18	[0, 0, 0]	n/a	FR1	0	R1195E
2214.025	10.428	2235638	COUNTDOWN_START	n/a	n/a	n/a	-999	18	[0, 0, 0]	n/a	FR1	0	R1195E
2224.453	0.007	2246066	COUNTDOWN_END	n/a	n/a	n/a	-999	18	[0, 0, 0]	n/a	FR1	0	R1195E
2224.46	1.616	2246073	ORIENT	n/a	n/a	n/a	-999	18	[0, 0, 0]	n/a	FR1	0	R1195E
2226.076	2.185	2247689	ORIENT_OFF	n/a	n/a	n/a	-999	18	[0, 0, 0]	n/a	FR1	0	R1195E
2228.261	1.616	2249874	WORD	n/a	wordpools/wordpool_EN.txt	GOAT	1	18	[0, 0, 0]	n/a	FR1	0	R1195E
2229.877	0.817	2251490	WORD_OFF	n/a	n/a	GOAT	1	18	[0, 0, 0]	n/a	FR1	0	R1195E
2230.694	1.617	2252306	WORD	n/a	wordpools/wordpool_EN.txt	CONE	2	18	[0, 0, 0]	n/a	FR1	0	R1195E
2232.311	0.867	2253923	WORD_OFF	n/a	n/a	CONE	2	18	[0, 0, 0]	n/a	FR1	0	R1195E
2233.178	1.616	2254790	WORD	n/a	wordpools/wordpool_EN.txt	CLOUD	3	18	[0, 0, 0]	n/a	FR1	0	R1195E
2234.794	0.868	2256406	WORD_OFF	n/a	n/a	CLOUD	3	18	[0, 0, 0]	n/a	FR1	0	R1195E
2235.662	1.617	2257274	WORD	n/a	wordpools/wordpool_EN.txt	TEETH	4	18	[0, 0, 0]	n/a	FR1	0	R1195E
2237.279	0.833	2258891	WORD_OFF	n/a	n/a	TEETH	4	18	[0, 0, 0]	n/a	FR1	0	R1195E
2238.112	1.616	2259724	WORD	n/a	wordpools/wordpool_EN.txt	STORE	5	18	[0, 0, 0]	n/a	FR1	0	R1195E
2239.728	0.852	2261340	WORD_OFF	n/a	n/a	STORE	5	18	[0, 0, 0]	n/a	FR1	0	R1195E
2240.58	1.617	2262192	WORD	n/a	wordpools/wordpool_EN.txt	BENCH	6	18	[0, 0, 0]	n/a	FR1	0	R1195E
2242.197	0.832	2263809	WORD_OFF	n/a	n/a	BENCH	6	18	[0, 0, 0]	n/a	FR1	0	R1195E
2243.029	1.601	2264641	WORD	n/a	wordpools/wordpool_EN.txt	ROCK	7	18	[0, 0, 0]	n/a	FR1	0	R1195E
2244.63	0.984	2266242	WORD_OFF	n/a	n/a	ROCK	7	18	[0, 0, 0]	n/a	FR1	0	R1195E
2245.614	1.617	2267226	WORD	n/a	wordpools/wordpool_EN.txt	CASH	8	18	[0, 0, 0]	n/a	FR1	0	R1195E
2247.231	0.95	2268843	WORD_OFF	n/a	n/a	CASH	8	18	[0, 0, 0]	n/a	FR1	0	R1195E
2248.181	1.616	2269793	WORD	n/a	wordpools/wordpool_EN.txt	VASE	9	18	[0, 0, 0]	n/a	FR1	0	R1195E
2249.797	0.884	2271409	WORD_OFF	n/a	n/a	VASE	9	18	[0, 0, 0]	n/a	FR1	0	R1195E
2250.681	1.617	2272293	WORD	n/a	wordpools/wordpool_EN.txt	YARD	10	18	[0, 0, 0]	n/a	FR1	0	R1195E
2252.298	0.8	2273910	WORD_OFF	n/a	n/a	YARD	10	18	[0, 0, 0]	n/a	FR1	0	R1195E
2253.098	1.617	2274710	WORD	n/a	wordpools/wordpool_EN.txt	APE	11	18	[0, 0, 0]	n/a	FR1	0	R1195E
2254.715	0.784	2276327	WORD_OFF	n/a	n/a	APE	11	18	[0, 0, 0]	n/a	FR1	0	R1195E
2255.499	1.617	2277111	WORD	n/a	wordpools/wordpool_EN.txt	PANTS	12	18	[0, 0, 0]	n/a	FR1	0	R1195E
2257.116	0.0	2278728	WORD_OFF	n/a	n/a	PANTS	12	18	[0, 0, 0]	n/a	FR1	0	R1195E
2257.116	0.0	2278728	DISTRACT_START	n/a	n/a	n/a	-999	18	[0, 0, 0]	n/a	FR1	0	R1195E
2257.116	0.016	2278728	START	n/a	n/a	n/a	-999	18	[-999, -999, -999]	n/a	FR1	0	R1195E
2257.132	5.767	2278744	PROB	5.767	n/a	n/a	-999	18	[2, 4, 8]	14	FR1	0	R1195E
2262.899	4.051	2284510	PROB	4.051	n/a	n/a	-999	18	[9, 8, 1]	18	FR1	0	R1195E
2266.95	7.419	2288561	PROB	7.419	n/a	n/a	-999	18	[1, 8, 6]	15	FR1	0	R1195E
2274.369	2.979	2295980	PROB	2.979	n/a	n/a	-999	18	[3, 7, 8]	18	FR1	0	R1195E
2277.348	0.021	2298959	STOP	n/a	n/a	n/a	-999	18	[-999, -999, -999]	n/a	FR1	0	R1195E
2277.369	0.683	2298980	DISTRACT_END	n/a	n/a	n/a	-999	18	[0, 0, 0]	n/a	FR1	0	R1195E
2278.052	0.518	2299663	RETRIEVAL_ORIENT	n/a	n/a	n/a	-999	18	[0, 0, 0]	n/a	FR1	0	R1195E
2278.57	4.4	2300181	REC_START	n/a	n/a	n/a	-999	18	[0, 0, 0]	n/a	FR1	0	R1195E
2282.97	2.756	2304581	REC_WORD	2.756	n/a	APE	11	18	[0, 0, 0]	n/a	FR1	0	R1195E
2285.726	9.192	2307336	REC_WORD_VV	9.192	n/a	<>	-999	18	[0, 0, 0]	n/a	FR1	0	R1195E
2294.918	13.664	2316528	REC_WORD	13.664	n/a	YARD	10	18	[0, 0, 0]	n/a	FR1	0	R1195E
2308.582	56.285	2330192	REC_END	n/a	n/a	n/a	-999	18	[0, 0, 0]	n/a	FR1	0	R1195E
2364.867	0.5	2386474	TRIAL	n/a	n/a	n/a	-999	19	[0, 0, 0]	n/a	FR1	0	R1195E
2365.367	10.428	2386974	COUNTDOWN_START	n/a	n/a	n/a	-999	19	[0, 0, 0]	n/a	FR1	0	R1195E
2375.795	0.007	2397402	COUNTDOWN_END	n/a	n/a	n/a	-999	19	[0, 0, 0]	n/a	FR1	0	R1195E
2375.802	1.601	2397409	ORIENT	n/a	n/a	n/a	-999	19	[0, 0, 0]	n/a	FR1	0	R1195E
2377.403	2.018	2399010	ORIENT_OFF	n/a	n/a	n/a	-999	19	[0, 0, 0]	n/a	FR1	0	R1195E
2379.421	1.616	2401028	WORD	n/a	wordpools/wordpool_EN.txt	ZOO	1	19	[0, 0, 0]	n/a	FR1	0	R1195E
2381.037	1.0	2402644	WORD_OFF	n/a	n/a	ZOO	1	19	[0, 0, 0]	n/a	FR1	0	R1195E
2382.037	1.618	2403644	WORD	n/a	wordpools/wordpool_EN.txt	TRAIN	2	19	[0, 0, 0]	n/a	FR1	0	R1195E
2383.655	0.817	2405262	WORD_OFF	n/a	n/a	TRAIN	2	19	[0, 0, 0]	n/a	FR1	0	R1195E
2384.472	1.617	2406079	WORD	n/a	wordpools/wordpool_EN.txt	POLE	3	19	[0, 0, 0]	n/a	FR1	0	R1195E
2386.089	0.799	2407696	WORD_OFF	n/a	n/a	POLE	3	19	[0, 0, 0]	n/a	FR1	0	R1195E
2386.888	1.618	2408495	WORD	n/a	wordpools/wordpool_EN.txt	FLEA	4	19	[0, 0, 0]	n/a	FR1	0	R1195E
2388.506	0.783	2410113	WORD_OFF	n/a	n/a	FLEA	4	19	[0, 0, 0]	n/a	FR1	0	R1195E
2389.289	1.616	2410896	WORD	n/a	wordpools/wordpool_EN.txt	OAR	5	19	[0, 0, 0]	n/a	FR1	0	R1195E
2390.905	0.817	2412511	WORD_OFF	n/a	n/a	OAR	5	19	[0, 0, 0]	n/a	FR1	0	R1195E
2391.722	1.618	2413328	WORD	n/a	wordpools/wordpool_EN.txt	THUMB	6	19	[0, 0, 0]	n/a	FR1	0	R1195E
2393.34	0.95	2414946	WORD_OFF	n/a	n/a	THUMB	6	19	[0, 0, 0]	n/a	FR1	0	R1195E
2394.29	1.616	2415896	WORD	n/a	wordpools/wordpool_EN.txt	POOL	7	19	[0, 0, 0]	n/a	FR1	0	R1195E
2395.906	0.917	2417512	WORD_OFF	n/a	n/a	POOL	7	19	[0, 0, 0]	n/a	FR1	0	R1195E
2396.823	1.601	2418429	WORD	n/a	wordpools/wordpool_EN.txt	CUP	8	19	[0, 0, 0]	n/a	FR1	0	R1195E
2398.424	0.95	2420030	WORD_OFF	n/a	n/a	CUP	8	19	[0, 0, 0]	n/a	FR1	0	R1195E
2399.374	1.616	2420980	WORD	n/a	wordpools/wordpool_EN.txt	STOVE	9	19	[0, 0, 0]	n/a	FR1	0	R1195E
2400.99	0.834	2422596	WORD_OFF	n/a	n/a	STOVE	9	19	[0, 0, 0]	n/a	FR1	0	R1195E
2401.824	1.618	2423430	WORD	n/a	wordpools/wordpool_EN.txt	CORN	10	19	[0, 0, 0]	n/a	FR1	0	R1195E
2403.442	0.766	2425048	WORD_OFF	n/a	n/a	CORN	10	19	[0, 0, 0]	n/a	FR1	0	R1195E
2404.208	1.616	2425814	WORD	n/a	wordpools/wordpool_EN.txt	SKUNK	11	19	[0, 0, 0]	n/a	FR1	0	R1195E
2405.824	0.785	2427430	WORD_OFF	n/a	n/a	SKUNK	11	19	[0, 0, 0]	n/a	FR1	0	R1195E
2406.609	1.617	2428215	WORD	n/a	wordpools/wordpool_EN.txt	MOUTH	12	19	[0, 0, 0]	n/a	FR1	0	R1195E
2408.226	0.0	2429832	WORD_OFF	n/a	n/a	MOUTH	12	19	[0, 0, 0]	n/a	FR1	0	R1195E
2408.226	0.0	2429832	DISTRACT_START	n/a	n/a	n/a	-999	19	[0, 0, 0]	n/a	FR1	0	R1195E
2408.226	0.017	2429832	START	n/a	n/a	n/a	-999	19	[-999, -999, -999]	n/a	FR1	0	R1195E
2408.243	5.317	2429849	PROB	5.317	n/a	n/a	-999	19	[7, 3, 8]	18	FR1	0	R1195E
2413.56	5.568	2435166	PROB	5.568	n/a	n/a	-999	19	[5, 7, 7]	19	FR1	0	R1195E
2419.128	11.764	2440733	PROB	11.764	n/a	n/a	-999	19	[8, 6, 9]	23	FR1	0	R1195E
2430.892	0.02	2452497	STOP	n/a	n/a	n/a	-999	19	[-999, -999, -999]	n/a	FR1	0	R1195E
2430.912	0.618	2452517	DISTRACT_END	n/a	n/a	n/a	-999	19	[0, 0, 0]	n/a	FR1	0	R1195E
2431.53	0.516	2453135	RETRIEVAL_ORIENT	n/a	n/a	n/a	-999	19	[0, 0, 0]	n/a	FR1	0	R1195E
2432.046	2.329	2453651	REC_START	n/a	n/a	n/a	-999	19	[0, 0, 0]	n/a	FR1	0	R1195E
2434.375	1.87	2455980	REC_WORD	1.87	n/a	ZOO	1	19	[0, 0, 0]	n/a	FR1	0	R1195E
2436.245	2.524	2457850	REC_WORD	2.524	n/a	TRAIN	2	19	[0, 0, 0]	n/a	FR1	0	R1195E
2438.769	2.116	2460374	REC_WORD	2.116	n/a	SKUNK	11	19	[0, 0, 0]	n/a	FR1	0	R1195E
2440.885	5.859	2462490	REC_WORD	5.859	n/a	MOUTH	12	19	[0, 0, 0]	n/a	FR1	0	R1195E
2446.744	0.997	2468348	REC_WORD_VV	0.997	n/a	<>	-999	19	[0, 0, 0]	n/a	FR1	0	R1195E
2447.741	12.069	2469345	REC_WORD_VV	12.069	n/a	<>	-999	19	[0, 0, 0]	n/a	FR1	0	R1195E
2459.81	2.247	2481414	REC_WORD	2.247	n/a	FLEA	4	19	[0, 0, 0]	n/a	FR1	0	R1195E
2462.057	6.113	2483661	REC_END	n/a	n/a	n/a	-999	19	[0, 0, 0]	n/a	FR1	0	R1195E
2468.17	0.5	2489774	TRIAL	n/a	n/a	n/a	-999	20	[0, 0, 0]	n/a	FR1	0	R1195E
2468.67	10.428	2490274	COUNTDOWN_START	n/a	n/a	n/a	-999	20	[0, 0, 0]	n/a	FR1	0	R1195E
2479.098	0.007	2500701	COUNTDOWN_END	n/a	n/a	n/a	-999	20	[0, 0, 0]	n/a	FR1	0	R1195E
2479.105	1.616	2500708	ORIENT	n/a	n/a	n/a	-999	20	[0, 0, 0]	n/a	FR1	0	R1195E
2480.721	2.267	2502324	ORIENT_OFF	n/a	n/a	n/a	-999	20	[0, 0, 0]	n/a	FR1	0	R1195E
2482.988	1.618	2504591	WORD	n/a	wordpools/wordpool_EN.txt	RAT	1	20	[0, 0, 0]	n/a	FR1	0	R1195E
2484.606	0.9	2506209	WORD_OFF	n/a	n/a	RAT	1	20	[0, 0, 0]	n/a	FR1	0	R1195E
2485.506	1.617	2507109	WORD	n/a	wordpools/wordpool_EN.txt	PEN	2	20	[0, 0, 0]	n/a	FR1	0	R1195E
2487.123	0.833	2508726	WORD_OFF	n/a	n/a	PEN	2	20	[0, 0, 0]	n/a	FR1	0	R1195E
2487.956	1.618	2509559	WORD	n/a	wordpools/wordpool_EN.txt	SINK	3	20	[0, 0, 0]	n/a	FR1	0	R1195E
2489.574	0.866	2511177	WORD_OFF	n/a	n/a	SINK	3	20	[0, 0, 0]	n/a	FR1	0	R1195E
2490.44	1.616	2512043	WORD	n/a	wordpools/wordpool_EN.txt	TRAY	4	20	[0, 0, 0]	n/a	FR1	0	R1195E
2492.056	0.784	2513659	WORD_OFF	n/a	n/a	TRAY	4	20	[0, 0, 0]	n/a	FR1	0	R1195E
2492.84	1.618	2514443	WORD	n/a	wordpools/wordpool_EN.txt	PLATE	5	20	[0, 0, 0]	n/a	FR1	0	R1195E
2494.458	0.867	2516061	WORD_OFF	n/a	n/a	PLATE	5	20	[0, 0, 0]	n/a	FR1	0	R1195E
2495.325	1.615	2516928	WORD	n/a	wordpools/wordpool_EN.txt	WHALE	6	20	[0, 0, 0]	n/a	FR1	0	R1195E
2496.94	0.867	2518543	WORD_OFF	n/a	n/a	WHALE	6	20	[0, 0, 0]	n/a	FR1	0	R1195E
2497.807	1.618	2519409	WORD	n/a	wordpools/wordpool_EN.txt	CORD	7	20	[0, 0, 0]	n/a	FR1	0	R1195E
2499.425	0.767	2521027	WORD_OFF	n/a	n/a	CORD	7	20	[0, 0, 0]	n/a	FR1	0	R1195E
2500.192	1.616	2521794	WORD	n/a	wordpools/wordpool_EN.txt	LAND	8	20	[0, 0, 0]	n/a	FR1	0	R1195E
2501.808	0.801	2523410	WORD_OFF	n/a	n/a	LAND	8	20	[0, 0, 0]	n/a	FR1	0	R1195E
2502.609	1.617	2524211	WORD	n/a	wordpools/wordpool_EN.txt	WOOD	9	20	[0, 0, 0]	n/a	FR1	0	R1195E
2504.226	0.984	2525828	WORD_OFF	n/a	n/a	WOOD	9	20	[0, 0, 0]	n/a	FR1	0	R1195E
2505.21	1.616	2526812	WORD	n/a	wordpools/wordpool_EN.txt	ROAD	10	20	[0, 0, 0]	n/a	FR1	0	R1195E
2506.826	0.9	2528428	WORD_OFF	n/a	n/a	ROAD	10	20	[0, 0, 0]	n/a	FR1	0	R1195E
2507.726	1.618	2529328	WORD	n/a	wordpools/wordpool_EN.txt	SCHOOL	11	20	[0, 0, 0]	n/a	FR1	0	R1195E
2509.344	0.783	2530946	WORD_OFF	n/a	n/a	SCHOOL	11	20	[0, 0, 0]	n/a	FR1	0	R1195E
2510.127	1.616	2531729	WORD	n/a	wordpools/wordpool_EN.txt	SAIL	12	20	[0, 0, 0]	n/a	FR1	0	R1195E
2511.743	0.0	2533345	WORD_OFF	n/a	n/a	SAIL	12	20	[0, 0, 0]	n/a	FR1	0	R1195E
2511.743	0.001	2533345	DISTRACT_START	n/a	n/a	n/a	-999	20	[0, 0, 0]	n/a	FR1	0	R1195E
2511.744	0.016	2533346	START	n/a	n/a	n/a	-999	20	[-999, -999, -999]	n/a	FR1	0	R1195E
2511.76	7.669	2533362	PROB	7.669	n/a	n/a	-999	20	[3, 9, 7]	19	FR1	0	R1195E
2519.429	5.617	2541031	PROB	5.617	n/a	n/a	-999	20	[2, 4, 9]	5	FR1	0	R1195E
2525.046	6.001	2546647	PROB	6.001	n/a	n/a	-999	20	[2, 8, 5]	15	FR1	0	R1195E
2531.047	4.796	2552648	PROB	4.796	n/a	n/a	-999	20	[1, 2, 5]	8	FR1	0	R1195E
2535.843	0.021	2557444	STOP	n/a	n/a	n/a	-999	20	[-999, -999, -999]	n/a	FR1	0	R1195E
2535.864	0.635	2557465	DISTRACT_END	n/a	n/a	n/a	-999	20	[0, 0, 0]	n/a	FR1	0	R1195E
2536.499	0.516	2558100	RETRIEVAL_ORIENT	n/a	n/a	n/a	-999	20	[0, 0, 0]	n/a	FR1	0	R1195E
2537.015	4.108	2558616	REC_START	n/a	n/a	n/a	-999	20	[0, 0, 0]	n/a	FR1	0	R1195E
2541.123	2.036	2562724	REC_WORD	2.036	n/a	SCHOOL	11	20	[0, 0, 0]	n/a	FR1	0	R1195E
2543.159	1.076	2564760	REC_WORD	1.076	n/a	ROAD	10	20	[0, 0, 0]	n/a	FR1	0	R1195E
2544.235	2.879	2565836	REC_WORD	2.879	n/a	WOOD	9	20	[0, 0, 0]	n/a	FR1	0	R1195E
2547.114	2.173	2568715	REC_WORD_VV	2.173	n/a	<>	-999	20	[0, 0, 0]	n/a	FR1	0	R1195E
2549.287	17.738	2570888	REC_WORD	17.738	n/a	PLATE	5	20	[0, 0, 0]	n/a	FR1	0	R1195E
2567.025	5.779	2588625	REC_END	n/a	n/a	n/a	-999	20	[0, 0, 0]	n/a	FR1	0	R1195E
2572.804	0.5	2594404	TRIAL	n/a	n/a	n/a	-999	21	[0, 0, 0]	n/a	FR1	0	R1195E
2573.304	10.428	2594904	COUNTDOWN_START	n/a	n/a	n/a	-999	21	[0, 0, 0]	n/a	FR1	0	R1195E
2583.732	0.007	2605331	COUNTDOWN_END	n/a	n/a	n/a	-999	21	[0, 0, 0]	n/a	FR1	0	R1195E
2583.739	1.601	2605338	ORIENT	n/a	n/a	n/a	-999	21	[0, 0, 0]	n/a	FR1	0	R1195E
2585.34	1.968	2606939	ORIENT_OFF	n/a	n/a	n/a	-999	21	[0, 0, 0]	n/a	FR1	0	R1195E
2587.308	1.615	2608907	WORD	n/a	wordpools/wordpool_EN.txt	FUR	1	21	[0, 0, 0]	n/a	FR1	0	R1195E
2588.923	0.917	2610522	WORD_OFF	n/a	n/a	FUR	1	21	[0, 0, 0]	n/a	FR1	0	R1195E
2589.84	1.602	2611439	WORD	n/a	wordpools/wordpool_EN.txt	AXE	2	21	[0, 0, 0]	n/a	FR1	0	R1195E
2591.442	0.866	2613041	WORD_OFF	n/a	n/a	AXE	2	21	[0, 0, 0]	n/a	FR1	0	R1195E
2592.308	1.616	2613907	WORD	n/a	wordpools/wordpool_EN.txt	SEED	3	21	[0, 0, 0]	n/a	FR1	0	R1195E
2593.924	1.017	2615523	WORD_OFF	n/a	n/a	SEED	3	21	[0, 0, 0]	n/a	FR1	0	R1195E
2594.941	1.618	2616540	WORD	n/a	wordpools/wordpool_EN.txt	SALT	4	21	[0, 0, 0]	n/a	FR1	0	R1195E
2596.559	0.85	2618158	WORD_OFF	n/a	n/a	SALT	4	21	[0, 0, 0]	n/a	FR1	0	R1195E
2597.409	1.616	2619008	WORD	n/a	wordpools/wordpool_EN.txt	FOOT	5	21	[0, 0, 0]	n/a	FR1	0	R1195E
2599.025	0.884	2620624	WORD_OFF	n/a	n/a	FOOT	5	21	[0, 0, 0]	n/a	FR1	0	R1195E
2599.909	1.618	2621508	WORD	n/a	wordpools/wordpool_EN.txt	GEESE	6	21	[0, 0, 0]	n/a	FR1	0	R1195E
2601.527	0.983	2623126	WORD_OFF	n/a	n/a	GEESE	6	21	[0, 0, 0]	n/a	FR1	0	R1195E
2602.51	1.617	2624109	WORD	n/a	wordpools/wordpool_EN.txt	SHEEP	7	21	[0, 0, 0]	n/a	FR1	0	R1195E
2604.127	0.933	2625726	WORD_OFF	n/a	n/a	SHEEP	7	21	[0, 0, 0]	n/a	FR1	0	R1195E
2605.06	1.618	2626658	WORD	n/a	wordpools/wordpool_EN.txt	TOY	8	21	[0, 0, 0]	n/a	FR1	0	R1195E
2606.678	0.916	2628276	WORD_OFF	n/a	n/a	TOY	8	21	[0, 0, 0]	n/a	FR1	0	R1195E
2607.594	1.617	2629192	WORD	n/a	wordpools/wordpool_EN.txt	RICE	9	21	[0, 0, 0]	n/a	FR1	0	R1195E
2609.211	0.934	2630809	WORD_OFF	n/a	n/a	RICE	9	21	[0, 0, 0]	n/a	FR1	0	R1195E
2610.145	1.616	2631743	WORD	n/a	wordpools/wordpool_EN.txt	WEB	10	21	[0, 0, 0]	n/a	FR1	0	R1195E
2611.761	0.868	2633359	WORD_OFF	n/a	n/a	WEB	10	21	[0, 0, 0]	n/a	FR1	0	R1195E
2612.629	1.617	2634227	WORD	n/a	wordpools/wordpool_EN.txt	BANK	11	21	[0, 0, 0]	n/a	FR1	0	R1195E
2614.246	0.933	2635844	WORD_OFF	n/a	n/a	BANK	11	21	[0, 0, 0]	n/a	FR1	0	R1195E
2615.179	1.616	2636777	WORD	n/a	wordpools/wordpool_EN.txt	HORSE	12	21	[0, 0, 0]	n/a	FR1	0	R1195E
2616.795	0.0	2638393	WORD_OFF	n/a	n/a	HORSE	12	21	[0, 0, 0]	n/a	FR1	0	R1195E
2616.795	0.001	2638393	DISTRACT_START	n/a	n/a	n/a	-999	21	[0, 0, 0]	n/a	FR1	0	R1195E
2616.796	0.016	2638394	START	n/a	n/a	n/a	-999	21	[-999, -999, -999]	n/a	FR1	0	R1195E
2616.812	5.184	2638410	PROB	5.184	n/a	n/a	-999	21	[4, 6, 2]	12	FR1	0	R1195E
2621.996	6.652	2643594	PROB	6.652	n/a	n/a	-999	21	[8, 5, 7]	20	FR1	0	R1195E
2628.648	6.635	2650246	PROB	6.635	n/a	n/a	-999	21	[4, 1, 5]	10	FR1	0	R1195E
2635.283	7.0	2656880	PROB	7.0	n/a	n/a	-999	21	[8, 4, 4]	16	FR1	0	R1195E
2642.283	0.018	2663880	STOP	n/a	n/a	n/a	-999	21	[-999, -999, -999]	n/a	FR1	0	R1195E
2642.301	0.565	2663898	DISTRACT_END	n/a	n/a	n/a	-999	21	[0, 0, 0]	n/a	FR1	0	R1195E
2642.866	0.519	2664463	RETRIEVAL_ORIENT	n/a	n/a	n/a	-999	21	[0, 0, 0]	n/a	FR1	0	R1195E
2643.385	2.574	2664982	REC_START	n/a	n/a	n/a	-999	21	[0, 0, 0]	n/a	FR1	0	R1195E
2645.959	1.656	2667556	REC_WORD	1.656	n/a	FUR	1	21	[0, 0, 0]	n/a	FR1	0	R1195E
2647.615	2.21	2669212	REC_WORD	2.21	n/a	AXE	2	21	[0, 0, 0]	n/a	FR1	0	R1195E
2649.825	2.794	2671422	REC_WORD	2.794	n/a	SEED	3	21	[0, 0, 0]	n/a	FR1	0	R1195E
2652.619	19.04	2674216	REC_WORD_VV	19.04	n/a	<>	-999	21	[0, 0, 0]	n/a	FR1	0	R1195E
2671.659	1.737	2693255	REC_WORD_VV	1.737	n/a	<>	-999	21	[0, 0, 0]	n/a	FR1	0	R1195E
2673.396	6.761	2694992	REC_END	n/a	n/a	n/a	-999	21	[0, 0, 0]	n/a	FR1	0	R1195E
2680.157	0.5	2701753	TRIAL	n/a	n/a	n/a	-999	22	[0, 0, 0]	n/a	FR1	0	R1195E
2680.657	10.428	2702253	COUNTDOWN_START	n/a	n/a	n/a	-999	22	[0, 0, 0]	n/a	FR1	0	R1195E
2691.085	0.008	2712680	COUNTDOWN_END	n/a	n/a	n/a	-999	22	[0, 0, 0]	n/a	FR1	0	R1195E
2691.093	1.616	2712688	ORIENT	n/a	n/a	n/a	-999	22	[0, 0, 0]	n/a	FR1	0	R1195E
2692.709	2.25	2714304	ORIENT_OFF	n/a	n/a	n/a	-999	22	[0, 0, 0]	n/a	FR1	0	R1195E
2694.959	1.618	2716554	WORD	n/a	wordpools/wordpool_EN.txt	WOLF	1	22	[0, 0, 0]	n/a	FR1	0	R1195E
2696.577	0.883	2718172	WORD_OFF	n/a	n/a	WOLF	1	22	[0, 0, 0]	n/a	FR1	0	R1195E
2697.46	1.616	2719055	WORD	n/a	wordpools/wordpool_EN.txt	VINE	2	22	[0, 0, 0]	n/a	FR1	0	R1195E
2699.076	1.0	2720671	WORD_OFF	n/a	n/a	VINE	2	22	[0, 0, 0]	n/a	FR1	0	R1195E
2700.076	1.618	2721671	WORD	n/a	wordpools/wordpool_EN.txt	PARK	3	22	[0, 0, 0]	n/a	FR1	0	R1195E
2701.694	0.85	2723289	WORD_OFF	n/a	n/a	PARK	3	22	[0, 0, 0]	n/a	FR1	0	R1195E
2702.544	1.617	2724139	WORD	n/a	wordpools/wordpool_EN.txt	FAN	4	22	[0, 0, 0]	n/a	FR1	0	R1195E
2704.161	0.951	2725756	WORD_OFF	n/a	n/a	FAN	4	22	[0, 0, 0]	n/a	FR1	0	R1195E
2705.112	1.616	2726707	WORD	n/a	wordpools/wordpool_EN.txt	SLUSH	5	22	[0, 0, 0]	n/a	FR1	0	R1195E
2706.728	0.801	2728323	WORD_OFF	n/a	n/a	SLUSH	5	22	[0, 0, 0]	n/a	FR1	0	R1195E
2707.529	1.617	2729124	WORD	n/a	wordpools/wordpool_EN.txt	BUSH	6	22	[0, 0, 0]	n/a	FR1	0	R1195E
2709.146	0.915	2730741	WORD_OFF	n/a	n/a	BUSH	6	22	[0, 0, 0]	n/a	FR1	0	R1195E
2710.061	1.602	2731656	WORD	n/a	wordpools/wordpool_EN.txt	CHIEF	7	22	[0, 0, 0]	n/a	FR1	0	R1195E
2711.663	0.967	2733257	WORD_OFF	n/a	n/a	CHIEF	7	22	[0, 0, 0]	n/a	FR1	0	R1195E
2712.63	1.617	2734224	WORD	n/a	wordpools/wordpool_EN.txt	BAT	8	22	[0, 0, 0]	n/a	FR1	0	R1195E
2714.247	0.966	2735841	WORD_OFF	n/a	n/a	BAT	8	22	[0, 0, 0]	n/a	FR1	0	R1195E
2715.213	1.616	2736807	WORD	n/a	wordpools/wordpool_EN.txt	PASTE	9	22	[0, 0, 0]	n/a	FR1	0	R1195E
2716.829	0.917	2738423	WORD_OFF	n/a	n/a	PASTE	9	22	[0, 0, 0]	n/a	FR1	0	R1195E
2717.746	1.618	2739340	WORD	n/a	wordpools/wordpool_EN.txt	PLANT	10	22	[0, 0, 0]	n/a	FR1	0	R1195E
2719.364	0.984	2740958	WORD_OFF	n/a	n/a	PLANT	10	22	[0, 0, 0]	n/a	FR1	0	R1195E
2720.348	1.616	2741942	WORD	n/a	wordpools/wordpool_EN.txt	SOUP	11	22	[0, 0, 0]	n/a	FR1	0	R1195E
2721.964	0.95	2743558	WORD_OFF	n/a	n/a	SOUP	11	22	[0, 0, 0]	n/a	FR1	0	R1195E
2722.914	1.618	2744508	WORD	n/a	wordpools/wordpool_EN.txt	JAR	12	22	[0, 0, 0]	n/a	FR1	0	R1195E
2724.532	0.0	2746126	WORD_OFF	n/a	n/a	JAR	12	22	[0, 0, 0]	n/a	FR1	0	R1195E
2724.532	0.0	2746126	DISTRACT_START	n/a	n/a	n/a	-999	22	[0, 0, 0]	n/a	FR1	0	R1195E
2724.532	0.016	2746126	START	n/a	n/a	n/a	-999	22	[-999, -999, -999]	n/a	FR1	0	R1195E
2724.548	6.618	2746142	PROB	6.618	n/a	n/a	-999	22	[4, 8, 2]	14	FR1	0	R1195E
2731.166	7.401	2752760	PROB	7.401	n/a	n/a	-999	22	[4, 8, 8]	20	FR1	0	R1195E
2738.567	5.885	2760160	PROB	5.885	n/a	n/a	-999	22	[4, 3, 6]	13	FR1	0	R1195E
2744.452	4.264	2766045	PROB	4.264	n/a	n/a	-999	22	[8, 5, 2]	15	FR1	0	R1195E
2748.716	0.019	2770309	STOP	n/a	n/a	n/a	-999	22	[-999, -999, -999]	n/a	FR1	0	R1195E
2748.735	0.651	2770328	DISTRACT_END	n/a	n/a	n/a	-999	22	[0, 0, 0]	n/a	FR1	0	R1195E
2749.386	0.516	2770979	RETRIEVAL_ORIENT	n/a	n/a	n/a	-999	22	[0, 0, 0]	n/a	FR1	0	R1195E
2749.902	3.235	2771495	REC_START	n/a	n/a	n/a	-999	22	[0, 0, 0]	n/a	FR1	0	R1195E
2753.137	1.932	2774730	REC_WORD_VV	1.932	n/a	<>	-999	22	[0, 0, 0]	n/a	FR1	0	R1195E
2755.069	2.208	2776662	REC_WORD	2.208	n/a	CHIEF	7	22	[0, 0, 0]	n/a	FR1	0	R1195E
2757.277	1.074	2778870	REC_WORD	1.074	n/a	JAR	12	22	[0, 0, 0]	n/a	FR1	0	R1195E
2758.351	17.914	2779944	REC_WORD	17.914	n/a	SOUP	11	22	[0, 0, 0]	n/a	FR1	0	R1195E
2776.265	1.001	2797857	REC_WORD_VV	1.001	n/a	<>	-999	22	[0, 0, 0]	n/a	FR1	0	R1195E
2777.266	2.647	2798858	REC_WORD_VV	2.647	n/a	<>	-999	22	[0, 0, 0]	n/a	FR1	0	R1195E
2779.913	5.446	2801505	REC_END	n/a	n/a	n/a	-999	22	[0, 0, 0]	n/a	FR1	0	R1195E
2785.359	0.5	2806951	TRIAL	n/a	n/a	n/a	-999	23	[0, 0, 0]	n/a	FR1	0	R1195E
2785.859	10.428	2807451	COUNTDOWN_START	n/a	n/a	n/a	-999	23	[0, 0, 0]	n/a	FR1	0	R1195E
2796.287	0.007	2817878	COUNTDOWN_END	n/a	n/a	n/a	-999	23	[0, 0, 0]	n/a	FR1	0	R1195E
2796.294	1.616	2817885	ORIENT	n/a	n/a	n/a	-999	23	[0, 0, 0]	n/a	FR1	0	R1195E
2797.91	1.967	2819501	ORIENT_OFF	n/a	n/a	n/a	-999	23	[0, 0, 0]	n/a	FR1	0	R1195E
2799.877	1.601	2821468	WORD	n/a	wordpools/wordpool_EN.txt	PHONE	1	23	[0, 0, 0]	n/a	FR1	0	R1195E
2801.478	0.834	2823069	WORD_OFF	n/a	n/a	PHONE	1	23	[0, 0, 0]	n/a	FR1	0	R1195E
2802.312	1.616	2823903	WORD	n/a	wordpools/wordpool_EN.txt	POND	2	23	[0, 0, 0]	n/a	FR1	0	R1195E
2803.928	0.917	2825519	WORD_OFF	n/a	n/a	POND	2	23	[0, 0, 0]	n/a	FR1	0	R1195E
2804.845	1.601	2826436	WORD	n/a	wordpools/wordpool_EN.txt	LAKE	3	23	[0, 0, 0]	n/a	FR1	0	R1195E
2806.446	0.95	2828037	WORD_OFF	n/a	n/a	LAKE	3	23	[0, 0, 0]	n/a	FR1	0	R1195E
2807.396	1.616	2828987	WORD	n/a	wordpools/wordpool_EN.txt	FRUIT	4	23	[0, 0, 0]	n/a	FR1	0	R1195E
2809.012	0.934	2830603	WORD_OFF	n/a	n/a	FRUIT	4	23	[0, 0, 0]	n/a	FR1	0	R1195E
2809.946	1.601	2831537	WORD	n/a	wordpools/wordpool_EN.txt	SHELL	5	23	[0, 0, 0]	n/a	FR1	0	R1195E
2811.547	0.95	2833138	WORD_OFF	n/a	n/a	SHELL	5	23	[0, 0, 0]	n/a	FR1	0	R1195E
2812.497	1.617	2834088	WORD	n/a	wordpools/wordpool_EN.txt	FILM	6	23	[0, 0, 0]	n/a	FR1	0	R1195E
2814.114	0.966	2835705	WORD_OFF	n/a	n/a	FILM	6	23	[0, 0, 0]	n/a	FR1	0	R1195E
2815.08	1.618	2836671	WORD	n/a	wordpools/wordpool_EN.txt	MAP	7	23	[0, 0, 0]	n/a	FR1	0	R1195E
2816.698	0.784	2838289	WORD_OFF	n/a	n/a	MAP	7	23	[0, 0, 0]	n/a	FR1	0	R1195E
2817.482	1.617	2839073	WORD	n/a	wordpools/wordpool_EN.txt	SHEET	8	23	[0, 0, 0]	n/a	FR1	0	R1195E
2819.099	0.799	2840689	WORD_OFF	n/a	n/a	SHEET	8	23	[0, 0, 0]	n/a	FR1	0	R1195E
2819.898	1.618	2841488	WORD	n/a	wordpools/wordpool_EN.txt	SEA	9	23	[0, 0, 0]	n/a	FR1	0	R1195E
2821.516	0.916	2843106	WORD_OFF	n/a	n/a	SEA	9	23	[0, 0, 0]	n/a	FR1	0	R1195E
2822.432	1.616	2844022	WORD	n/a	wordpools/wordpool_EN.txt	HOOF	10	23	[0, 0, 0]	n/a	FR1	0	R1195E
2824.048	0.917	2845638	WORD_OFF	n/a	n/a	HOOF	10	23	[0, 0, 0]	n/a	FR1	0	R1195E
2824.965	1.601	2846555	WORD	n/a	wordpools/wordpool_EN.txt	JUDGE	11	23	[0, 0, 0]	n/a	FR1	0	R1195E
2826.566	1.0	2848156	WORD_OFF	n/a	n/a	JUDGE	11	23	[0, 0, 0]	n/a	FR1	0	R1195E
2827.566	1.601	2849156	WORD	n/a	wordpools/wordpool_EN.txt	PEARL	12	23	[0, 0, 0]	n/a	FR1	0	R1195E
2829.167	0.0	2850757	WORD_OFF	n/a	n/a	PEARL	12	23	[0, 0, 0]	n/a	FR1	0	R1195E
2829.167	0.0	2850757	DISTRACT_START	n/a	n/a	n/a	-999	23	[0, 0, 0]	n/a	FR1	0	R1195E
2829.167	0.016	2850757	START	n/a	n/a	n/a	-999	23	[-999, -999, -999]	n/a	FR1	0	R1195E
2829.183	7.469	2850773	PROB	7.469	n/a	n/a	-999	23	[6, 7, 3]	16	FR1	0	R1195E
2836.652	10.15	2858242	PROB	10.15	n/a	n/a	-999	23	[4, 5, 8]	17	FR1	0	R1195E
2846.802	3.887	2868391	PROB	3.887	n/a	n/a	-999	23	[5, 1, 3]	9	FR1	0	R1195E
2850.689	0.015	2872278	STOP	n/a	n/a	n/a	-999	23	[-999, -999, -999]	n/a	FR1	0	R1195E
2850.704	0.533	2872293	DISTRACT_END	n/a	n/a	n/a	-999	23	[0, 0, 0]	n/a	FR1	0	R1195E
2851.237	0.517	2872826	RETRIEVAL_ORIENT	n/a	n/a	n/a	-999	23	[0, 0, 0]	n/a	FR1	0	R1195E
2851.754	1.312	2873343	REC_START	n/a	n/a	n/a	-999	23	[0, 0, 0]	n/a	FR1	0	R1195E
2853.066	1.798	2874655	REC_WORD_VV	1.798	n/a	<>	-999	23	[0, 0, 0]	n/a	FR1	0	R1195E
2854.864	3.364	2876453	REC_WORD	3.364	n/a	PHONE	1	23	[0, 0, 0]	n/a	FR1	0	R1195E
2858.228	3.535	2879817	REC_WORD	3.535	n/a	POND	2	23	[0, 0, 0]	n/a	FR1	0	R1195E
2861.763	1.954	2883352	REC_WORD	1.954	n/a	MAP	7	23	[0, 0, 0]	n/a	FR1	0	R1195E
2863.717	6.115	2885306	REC_WORD	6.115	n/a	SHEET	8	23	[0, 0, 0]	n/a	FR1	0	R1195E
2869.832	11.934	2891421	REC_WORD_VV	11.934	n/a	<>	-999	23	[0, 0, 0]	n/a	FR1	0	R1195E
2881.766	5.661	2903354	REC_END	n/a	n/a	n/a	-999	23	[0, 0, 0]	n/a	FR1	0	R1195E
2887.427	0.5	2909015	TRIAL	n/a	n/a	n/a	-999	24	[0, 0, 0]	n/a	FR1	0	R1195E
2887.927	10.428	2909515	COUNTDOWN_START	n/a	n/a	n/a	-999	24	[0, 0, 0]	n/a	FR1	0	R1195E
2898.355	0.007	2919942	COUNTDOWN_END	n/a	n/a	n/a	-999	24	[0, 0, 0]	n/a	FR1	0	R1195E
2898.362	1.616	2919949	ORIENT	n/a	n/a	n/a	-999	24	[0, 0, 0]	n/a	FR1	0	R1195E
2899.978	2.201	2921565	ORIENT_OFF	n/a	n/a	n/a	-999	24	[0, 0, 0]	n/a	FR1	0	R1195E
2902.179	1.617	2923766	WORD	n/a	wordpools/wordpool_EN.txt	BEAR	1	24	[0, 0, 0]	n/a	FR1	0	R1195E
2903.796	0.767	2925383	WORD_OFF	n/a	n/a	BEAR	1	24	[0, 0, 0]	n/a	FR1	0	R1195E
2904.563	1.617	2926150	WORD	n/a	wordpools/wordpool_EN.txt	BALL	2	24	[0, 0, 0]	n/a	FR1	0	R1195E
2906.18	0.8	2927767	WORD_OFF	n/a	n/a	BALL	2	24	[0, 0, 0]	n/a	FR1	0	R1195E
2906.98	1.618	2928567	WORD	n/a	wordpools/wordpool_EN.txt	TANK	3	24	[0, 0, 0]	n/a	FR1	0	R1195E
2908.598	0.833	2930185	WORD_OFF	n/a	n/a	TANK	3	24	[0, 0, 0]	n/a	FR1	0	R1195E
2909.431	1.616	2931018	WORD	n/a	wordpools/wordpool_EN.txt	PIG	4	24	[0, 0, 0]	n/a	FR1	0	R1195E
2911.047	0.883	2932634	WORD_OFF	n/a	n/a	PIG	4	24	[0, 0, 0]	n/a	FR1	0	R1195E
2911.93	1.619	2933517	WORD	n/a	wordpools/wordpool_EN.txt	FUDGE	5	24	[0, 0, 0]	n/a	FR1	0	R1195E
2913.549	0.95	2935136	WORD_OFF	n/a	n/a	FUDGE	5	24	[0, 0, 0]	n/a	FR1	0	R1195E
2914.499	1.617	2936086	WORD	n/a	wordpools/wordpool_EN.txt	STEM	6	24	[0, 0, 0]	n/a	FR1	0	R1195E
2916.116	0.949	2937703	WORD_OFF	n/a	n/a	STEM	6	24	[0, 0, 0]	n/a	FR1	0	R1195E
2917.065	1.618	2938652	WORD	n/a	wordpools/wordpool_EN.txt	WAVE	7	24	[0, 0, 0]	n/a	FR1	0	R1195E
2918.683	0.766	2940270	WORD_OFF	n/a	n/a	WAVE	7	24	[0, 0, 0]	n/a	FR1	0	R1195E
2919.449	1.617	2941036	WORD	n/a	wordpools/wordpool_EN.txt	ICE	8	24	[0, 0, 0]	n/a	FR1	0	R1195E
2921.066	0.85	2942653	WORD_OFF	n/a	n/a	ICE	8	24	[0, 0, 0]	n/a	FR1	0	R1195E
2921.916	1.618	2943503	WORD	n/a	wordpools/wordpool_EN.txt	MUG	9	24	[0, 0, 0]	n/a	FR1	0	R1195E
2923.534	0.766	2945121	WORD_OFF	n/a	n/a	MUG	9	24	[0, 0, 0]	n/a	FR1	0	R1195E
2924.3	1.616	2945887	WORD	n/a	wordpools/wordpool_EN.txt	BADGE	10	24	[0, 0, 0]	n/a	FR1	0	R1195E
2925.916	1.0	2947502	WORD_OFF	n/a	n/a	BADGE	10	24	[0, 0, 0]	n/a	FR1	0	R1195E
2926.916	1.618	2948502	WORD	n/a	wordpools/wordpool_EN.txt	THREAD	11	24	[0, 0, 0]	n/a	FR1	0	R1195E
2928.534	0.817	2950120	WORD_OFF	n/a	n/a	THREAD	11	24	[0, 0, 0]	n/a	FR1	0	R1195E
2929.351	1.616	2950937	WORD	n/a	wordpools/wordpool_EN.txt	BOOK	12	24	[0, 0, 0]	n/a	FR1	0	R1195E
2930.967	0.0	2952553	WORD_OFF	n/a	n/a	BOOK	12	24	[0, 0, 0]	n/a	FR1	0	R1195E
2930.967	0.001	2952553	DISTRACT_START	n/a	n/a	n/a	-999	24	[0, 0, 0]	n/a	FR1	0	R1195E
2930.968	0.016	2952554	START	n/a	n/a	n/a	-999	24	[-999, -999, -999]	n/a	FR1	0	R1195E
2930.984	4.867	2952570	PROB	4.867	n/a	n/a	-999	24	[4, 5, 1]	10	FR1	0	R1195E
2935.851	7.486	2957437	PROB	7.486	n/a	n/a	-999	24	[2, 9, 7]	18	FR1	0	R1195E
2943.337	7.218	2964923	PROB	7.218	n/a	n/a	-999	24	[5, 2, 9]	16	FR1	0	R1195E
2950.555	6.3	2972141	PROB	6.3	n/a	n/a	-999	24	[2, 5, 9]	16	FR1	0	R1195E
2956.855	0.017	2978440	STOP	n/a	n/a	n/a	-999	24	[-999, -999, -999]	n/a	FR1	0	R1195E
2956.872	0.634	2978457	DISTRACT_END	n/a	n/a	n/a	-999	24	[0, 0, 0]	n/a	FR1	0	R1195E
2957.506	0.517	2979091	RETRIEVAL_ORIENT	n/a	n/a	n/a	-999	24	[0, 0, 0]	n/a	FR1	0	R1195E
2958.023	2.678	2979608	REC_START	n/a	n/a	n/a	-999	24	[0, 0, 0]	n/a	FR1	0	R1195E
2960.701	2.761	2982286	REC_WORD	2.761	n/a	THREAD	11	24	[0, 0, 0]	n/a	FR1	0	R1195E
2963.462	24.572	2985047	REC_WORD_VV	24.572	n/a	<>	-999	24	[0, 0, 0]	n/a	FR1	0	R1195E
2988.034	79.974	3009618	REC_END	n/a	n/a	n/a	-999	24	[0, 0, 0]	n/a	FR1	0	R1195E
3068.008	0.5	3089589	TRIAL	n/a	n/a	n/a	-999	25	[0, 0, 0]	n/a	FR1	0	R1195E
3068.508	10.428	3090089	COUNTDOWN_START	n/a	n/a	n/a	-999	25	[0, 0, 0]	n/a	FR1	0	R1195E
3078.936	0.007	3100517	COUNTDOWN_END	n/a	n/a	n/a	-999	25	[0, 0, 0]	n/a	FR1	0	R1195E
3078.943	1.601	3100524	ORIENT	n/a	n/a	n/a	-999	25	[0, 0, 0]	n/a	FR1	0	R1195E
3080.544	2.217	3102125	ORIENT_OFF	n/a	n/a	n/a	-999	25	[0, 0, 0]	n/a	FR1	0	R1195E
3082.761	1.618	3104342	WORD	n/a	wordpools/wordpool_EN.txt	SKY	1	25	[0, 0, 0]	n/a	FR1	0	R1195E
3084.379	0.883	3105960	WORD_OFF	n/a	n/a	SKY	1	25	[0, 0, 0]	n/a	FR1	0	R1195E
3085.262	1.616	3106842	WORD	n/a	wordpools/wordpool_EN.txt	HEART	2	25	[0, 0, 0]	n/a	FR1	0	R1195E
3086.878	0.801	3108458	WORD_OFF	n/a	n/a	HEART	2	25	[0, 0, 0]	n/a	FR1	0	R1195E
3087.679	1.617	3109259	WORD	n/a	wordpools/wordpool_EN.txt	EGG	3	25	[0, 0, 0]	n/a	FR1	0	R1195E
3089.296	0.917	3110876	WORD_OFF	n/a	n/a	EGG	3	25	[0, 0, 0]	n/a	FR1	0	R1195E
3090.213	1.616	3111793	WORD	n/a	wordpools/wordpool_EN.txt	BEAN	4	25	[0, 0, 0]	n/a	FR1	0	R1195E
3091.829	0.834	3113409	WORD_OFF	n/a	n/a	BEAN	4	25	[0, 0, 0]	n/a	FR1	0	R1195E
3092.663	1.617	3114243	WORD	n/a	wordpools/wordpool_EN.txt	ROOT	5	25	[0, 0, 0]	n/a	FR1	0	R1195E
3094.28	0.884	3115860	WORD_OFF	n/a	n/a	ROOT	5	25	[0, 0, 0]	n/a	FR1	0	R1195E
3095.164	1.616	3116744	WORD	n/a	wordpools/wordpool_EN.txt	HOLE	6	25	[0, 0, 0]	n/a	FR1	0	R1195E
3096.78	0.818	3118360	WORD_OFF	n/a	n/a	HOLE	6	25	[0, 0, 0]	n/a	FR1	0	R1195E
3097.598	1.617	3119178	WORD	n/a	wordpools/wordpool_EN.txt	SPONGE	7	25	[0, 0, 0]	n/a	FR1	0	R1195E
3099.215	0.883	3120795	WORD_OFF	n/a	n/a	SPONGE	7	25	[0, 0, 0]	n/a	FR1	0	R1195E
3100.098	1.617	3121678	WORD	n/a	wordpools/wordpool_EN.txt	FROG	8	25	[0, 0, 0]	n/a	FR1	0	R1195E
3101.715	0.95	3123295	WORD_OFF	n/a	n/a	FROG	8	25	[0, 0, 0]	n/a	FR1	0	R1195E
3102.665	1.617	3124245	WORD	n/a	wordpools/wordpool_EN.txt	STAR	9	25	[0, 0, 0]	n/a	FR1	0	R1195E
3104.282	0.867	3125862	WORD_OFF	n/a	n/a	STAR	9	25	[0, 0, 0]	n/a	FR1	0	R1195E
3105.149	1.616	3126729	WORD	n/a	wordpools/wordpool_EN.txt	RUG	10	25	[0, 0, 0]	n/a	FR1	0	R1195E
3106.765	0.901	3128345	WORD_OFF	n/a	n/a	RUG	10	25	[0, 0, 0]	n/a	FR1	0	R1195E
3107.666	1.617	3129246	WORD	n/a	wordpools/wordpool_EN.txt	CAPE	11	25	[0, 0, 0]	n/a	FR1	0	R1195E
3109.283	0.884	3130863	WORD_OFF	n/a	n/a	CAPE	11	25	[0, 0, 0]	n/a	FR1	0	R1195E
3110.167	1.615	3131747	WORD	n/a	wordpools/wordpool_EN.txt	DRUM	12	25	[0, 0, 0]	n/a	FR1	0	R1195E
3111.782	0.0	3133361	WORD_OFF	n/a	n/a	DRUM	12	25	[0, 0, 0]	n/a	FR1	0	R1195E
3111.782	0.001	3133361	DISTRACT_START	n/a	n/a	n/a	-999	25	[0, 0, 0]	n/a	FR1	0	R1195E
3111.783	0.016	3133362	START	n/a	n/a	n/a	-999	25	[-999, -999, -999]	n/a	FR1	0	R1195E
3111.799	10.67	3133378	PROB	10.67	n/a	n/a	-999	25	[5, 9, 9]	23	FR1	0	R1195E
3122.469	3.684	3144048	PROB	3.684	n/a	n/a	-999	25	[6, 6, 1]	13	FR1	0	R1195E
3126.153	4.05	3147732	PROB	4.05	n/a	n/a	-999	25	[3, 7, 6]	16	FR1	0	R1195E
3130.203	9.465	3151782	PROB	9.465	n/a	n/a	-999	25	[7, 7, 5]	21	FR1	0	R1195E
3139.668	0.02	3161246	STOP	n/a	n/a	n/a	-999	25	[-999, -999, -999]	n/a	FR1	0	R1195E
3139.688	0.701	3161266	DISTRACT_END	n/a	n/a	n/a	-999	25	[0, 0, 0]	n/a	FR1	0	R1195E
3140.389	0.516	3161967	RETRIEVAL_ORIENT	n/a	n/a	n/a	-999	25	[0, 0, 0]	n/a	FR1	0	R1195E
3140.905	1.998	3162483	REC_START	n/a	n/a	n/a	-999	25	[0, 0, 0]	n/a	FR1	0	R1195E
3142.903	6.018	3164481	REC_WORD_VV	6.018	n/a	<>	-999	25	[0, 0, 0]	n/a	FR1	0	R1195E
3148.921	10.012	3170499	REC_WORD	10.012	n/a	HOLE	6	25	[0, 0, 0]	n/a	FR1	0	R1195E
3158.933	11.982	3180511	REC_WORD	11.982	n/a	SPONGE	7	25	[0, 0, 0]	n/a	FR1	0	R1195E
3170.915	6.129	3192492	REC_END	n/a	n/a	n/a	-999	25	[0, 0, 0]	n/a	FR1	0	R1195E
3177.044	0.0	3198621	SESS_END	n/a	n/a	n/a	-999	25	[0, 0, 0]	n/a	FR1	0	R1195E
