onset	duration	sample	trial_type	response_time	stim_file	item_name	serialpos	list	test	answer	experiment	session	subject
0.0	0.0	159082	INSTRUCT_START	n/a	n/a	n/a	-999	-999	[0, 0, 0]	n/a	FR1	0	R1172E
0.0	11.032	159082	INSTRUCT_END	n/a	n/a	n/a	-999	-999	[0, 0, 0]	n/a	FR1	0	R1172E
11.032	0.0	170113	SESS_START	n/a	n/a	n/a	-999	-999	[0, 0, 0]	n/a	FR1	0	R1172E
11.032	313.311	170113	MIC_TEST	n/a	n/a	n/a	-999	-999	[0, 0, 0]	n/a	FR1	0	R1172E
324.343	82.611	483411	PRACTICE_TRIAL	n/a	n/a	n/a	-999	-1	[0, 0, 0]	n/a	FR1	0	R1172E
406.954	10.428	566019	COUNTDOWN_START	n/a	n/a	n/a	-999	-1	[0, 0, 0]	n/a	FR1	0	R1172E
417.382	0.008	576446	COUNTDOWN_END	n/a	n/a	n/a	-999	-1	[0, 0, 0]	n/a	FR1	0	R1172E
417.39	1.617	576454	PRACTICE_ORIENT	n/a	n/a	n/a	-999	-1	[0, 0, 0]	n/a	FR1	0	R1172E
419.007	2.217	578071	PRACTICE_ORIENT_OFF	n/a	n/a	n/a	-999	-1	[0, 0, 0]	n/a	FR1	0	R1172E
421.224	1.618	580288	PRACTICE_WORD	n/a	n/a	ATTIC	1	-1	[0, 0, 0]	n/a	FR1	0	R1172E
422.842	0.966	581906	PRACTICE_WORD_OFF	n/a	n/a	ATTIC	-999	-1	[0, 0, 0]	n/a	FR1	0	R1172E
423.808	1.617	582872	PRACTICE_WORD	n/a	n/a	TONGUE	2	-1	[0, 0, 0]	n/a	FR1	0	R1172E
425.425	0.867	584489	PRACTICE_WORD_OFF	n/a	n/a	TONGUE	-999	-1	[0, 0, 0]	n/a	FR1	0	R1172E
426.292	1.618	585356	PRACTICE_WORD	n/a	n/a	IRON	3	-1	[0, 0, 0]	n/a	FR1	0	R1172E
427.91	0.966	586974	PRACTICE_WORD_OFF	n/a	n/a	IRON	-999	-1	[0, 0, 0]	n/a	FR1	0	R1172E
428.876	1.616	587940	PRACTICE_WORD	n/a	n/a	RHINO	4	-1	[0, 0, 0]	n/a	FR1	0	R1172E
430.492	0.984	589556	PRACTICE_WORD_OFF	n/a	n/a	RHINO	-999	-1	[0, 0, 0]	n/a	FR1	0	R1172E
431.476	1.617	590540	PRACTICE_WORD	n/a	n/a	WATCH	5	-1	[0, 0, 0]	n/a	FR1	0	R1172E
433.093	0.967	592157	PRACTICE_WORD_OFF	n/a	n/a	WATCH	-999	-1	[0, 0, 0]	n/a	FR1	0	R1172E
434.06	1.617	593124	PRACTICE_WORD	n/a	n/a	COTTON	6	-1	[0, 0, 0]	n/a	FR1	0	R1172E
435.677	0.8	594741	PRACTICE_WORD_OFF	n/a	n/a	COTTON	-999	-1	[0, 0, 0]	n/a	FR1	0	R1172E
436.477	1.617	595541	PRACTICE_WORD	n/a	n/a	CHEST	7	-1	[0, 0, 0]	n/a	FR1	0	R1172E
438.094	0.916	597158	PRACTICE_WORD_OFF	n/a	n/a	CHEST	-999	-1	[0, 0, 0]	n/a	FR1	0	R1172E
439.01	1.617	598074	PRACTICE_WORD	n/a	n/a	RING	8	-1	[0, 0, 0]	n/a	FR1	0	R1172E
440.627	0.884	599690	PRACTICE_WORD_OFF	n/a	n/a	RING	-999	-1	[0, 0, 0]	n/a	FR1	0	R1172E
441.511	1.617	600574	PRACTICE_WORD	n/a	n/a	BEAM	9	-1	[0, 0, 0]	n/a	FR1	0	R1172E
443.128	0.8	602191	PRACTICE_WORD_OFF	n/a	n/a	BEAM	-999	-1	[0, 0, 0]	n/a	FR1	0	R1172E
443.928	1.617	602991	PRACTICE_WORD	n/a	n/a	FLOOD	10	-1	[0, 0, 0]	n/a	FR1	0	R1172E
445.545	0.967	604608	PRACTICE_WORD_OFF	n/a	n/a	FLOOD	-999	-1	[0, 0, 0]	n/a	FR1	0	R1172E
446.512	1.617	605575	PRACTICE_WORD	n/a	n/a	WAGON	11	-1	[0, 0, 0]	n/a	FR1	0	R1172E
448.129	0.833	607192	PRACTICE_WORD_OFF	n/a	n/a	WAGON	-999	-1	[0, 0, 0]	n/a	FR1	0	R1172E
448.962	1.617	608025	PRACTICE_WORD	n/a	n/a	CAMEL	12	-1	[0, 0, 0]	n/a	FR1	0	R1172E
450.579	0.0	609642	PRACTICE_WORD_OFF	n/a	n/a	CAMEL	-999	-1	[0, 0, 0]	n/a	FR1	0	R1172E
450.579	0.001	609642	DISTRACT_START	n/a	n/a	n/a	-999	-1	[0, 0, 0]	n/a	FR1	0	R1172E
450.58	0.016	609643	START	n/a	n/a	n/a	-999	-1	[-999, -999, -999]	n/a	FR1	0	R1172E
450.596	17.17	609659	PROB	17.17	n/a	n/a	-999	-1	[1, 4, 8]	13	FR1	0	R1172E
467.766	16.034	626828	PROB	16.034	n/a	n/a	-999	-1	[8, 4, 5]	17	FR1	0	R1172E
483.8	0.019	642862	STOP	n/a	n/a	n/a	-999	-1	[-999, -999, -999]	n/a	FR1	0	R1172E
483.819	0.716	642881	DISTRACT_END	n/a	n/a	n/a	-999	-1	[0, 0, 0]	n/a	FR1	0	R1172E
484.535	0.522	643597	RETRIEVAL_ORIENT	n/a	n/a	n/a	-999	-1	[0, 0, 0]	n/a	FR1	0	R1172E
485.057	30.007	644119	PRACTICE_REC_START	n/a	n/a	n/a	-999	-1	[0, 0, 0]	n/a	FR1	0	R1172E
515.064	65.622	674124	PRACTICE_REC_END	n/a	n/a	n/a	-999	-1	[0, 0, 0]	n/a	FR1	0	R1172E
580.686	0.5	739744	TRIAL	n/a	n/a	n/a	-999	1	[0, 0, 0]	n/a	FR1	0	R1172E
581.186	10.428	740244	COUNTDOWN_START	n/a	n/a	n/a	-999	1	[0, 0, 0]	n/a	FR1	0	R1172E
591.614	0.006	750671	COUNTDOWN_END	n/a	n/a	n/a	-999	1	[0, 0, 0]	n/a	FR1	0	R1172E
591.62	1.617	750677	ORIENT	n/a	n/a	n/a	-999	1	[0, 0, 0]	n/a	FR1	0	R1172E
593.237	2.267	752294	ORIENT_OFF	n/a	n/a	n/a	-999	1	[0, 0, 0]	n/a	FR1	0	R1172E
595.504	1.617	754561	WORD	n/a	wordpools/wordpool_EN.txt	PARK	1	1	[0, 0, 0]	n/a	FR1	0	R1172E
597.121	0.884	756178	WORD_OFF	n/a	n/a	PARK	1	1	[0, 0, 0]	n/a	FR1	0	R1172E
598.005	1.617	757062	WORD	n/a	wordpools/wordpool_EN.txt	LAWN	2	1	[0, 0, 0]	n/a	FR1	0	R1172E
599.622	0.867	758679	WORD_OFF	n/a	n/a	LAWN	2	1	[0, 0, 0]	n/a	FR1	0	R1172E
600.489	1.617	759546	WORD	n/a	wordpools/wordpool_EN.txt	LOCK	3	1	[0, 0, 0]	n/a	FR1	0	R1172E
602.106	0.983	761163	WORD_OFF	n/a	n/a	LOCK	3	1	[0, 0, 0]	n/a	FR1	0	R1172E
603.089	1.618	762146	WORD	n/a	wordpools/wordpool_EN.txt	PEAR	4	1	[0, 0, 0]	n/a	FR1	0	R1172E
604.707	0.849	763764	WORD_OFF	n/a	n/a	PEAR	4	1	[0, 0, 0]	n/a	FR1	0	R1172E
605.556	1.617	764613	WORD	n/a	wordpools/wordpool_EN.txt	KEY	5	1	[0, 0, 0]	n/a	FR1	0	R1172E
607.173	0.8	766229	WORD_OFF	n/a	n/a	KEY	5	1	[0, 0, 0]	n/a	FR1	0	R1172E
607.973	1.617	767029	WORD	n/a	wordpools/wordpool_EN.txt	BRANCH	6	1	[0, 0, 0]	n/a	FR1	0	R1172E
609.59	0.934	768646	WORD_OFF	n/a	n/a	BRANCH	6	1	[0, 0, 0]	n/a	FR1	0	R1172E
610.524	1.617	769580	WORD	n/a	wordpools/wordpool_EN.txt	TOE	7	1	[0, 0, 0]	n/a	FR1	0	R1172E
612.141	0.817	771197	WORD_OFF	n/a	n/a	TOE	7	1	[0, 0, 0]	n/a	FR1	0	R1172E
612.958	1.616	772014	WORD	n/a	wordpools/wordpool_EN.txt	LIP	8	1	[0, 0, 0]	n/a	FR1	0	R1172E
614.574	0.967	773630	WORD_OFF	n/a	n/a	LIP	8	1	[0, 0, 0]	n/a	FR1	0	R1172E
615.541	1.617	774597	WORD	n/a	wordpools/wordpool_EN.txt	JUDGE	9	1	[0, 0, 0]	n/a	FR1	0	R1172E
617.158	0.884	776214	WORD_OFF	n/a	n/a	JUDGE	9	1	[0, 0, 0]	n/a	FR1	0	R1172E
618.042	1.618	777098	WORD	n/a	wordpools/wordpool_EN.txt	AXE	10	1	[0, 0, 0]	n/a	FR1	0	R1172E
619.66	0.832	778716	WORD_OFF	n/a	n/a	AXE	10	1	[0, 0, 0]	n/a	FR1	0	R1172E
620.492	1.617	779548	WORD	n/a	wordpools/wordpool_EN.txt	WHALE	11	1	[0, 0, 0]	n/a	FR1	0	R1172E
622.109	0.768	781165	WORD_OFF	n/a	n/a	WHALE	11	1	[0, 0, 0]	n/a	FR1	0	R1172E
622.877	1.616	781933	WORD	n/a	wordpools/wordpool_EN.txt	HORN	12	1	[0, 0, 0]	n/a	FR1	0	R1172E
624.493	0.0	783549	WORD_OFF	n/a	n/a	HORN	12	1	[0, 0, 0]	n/a	FR1	0	R1172E
624.493	0.0	783549	DISTRACT_START	n/a	n/a	n/a	-999	1	[0, 0, 0]	n/a	FR1	0	R1172E
624.493	0.017	783549	START	n/a	n/a	n/a	-999	1	[-999, -999, -999]	n/a	FR1	0	R1172E
624.51	8.501	783566	PROB	8.501	n/a	n/a	-999	1	[6, 4, 2]	12	FR1	0	R1172E
633.011	6.451	792066	PROB	6.451	n/a	n/a	-999	1	[2, 7, 7]	16	FR1	0	R1172E
639.462	6.97	798517	PROB	6.97	n/a	n/a	-999	1	[4, 4, 5]	13	FR1	0	R1172E
646.432	0.015	805487	STOP	n/a	n/a	n/a	-999	1	[-999, -999, -999]	n/a	FR1	0	R1172E
646.447	0.616	805502	DISTRACT_END	n/a	n/a	n/a	-999	1	[0, 0, 0]	n/a	FR1	0	R1172E
647.063	0.518	806118	RETRIEVAL_ORIENT	n/a	n/a	n/a	-999	1	[0, 0, 0]	n/a	FR1	0	R1172E
647.581	12.832	806636	REC_START	n/a	n/a	n/a	-999	1	[0, 0, 0]	n/a	FR1	0	R1172E
660.413	2.438	819467	REC_WORD	2.438	n/a	AXE	-999	1	[0, 0, 0]	n/a	FR1	0	R1172E
662.851	2.134	821905	REC_WORD	2.134	n/a	CORN	-999	1	[0, 0, 0]	n/a	FR1	0	R1172E
664.985	1.823	824039	REC_WORD	1.823	n/a	TOE	-999	1	[0, 0, 0]	n/a	FR1	0	R1172E
666.808	3.453	825862	REC_WORD	3.453	n/a	LIP	-999	1	[0, 0, 0]	n/a	FR1	0	R1172E
670.261	4.799	829315	REC_WORD	4.799	n/a	WHALE	-999	1	[0, 0, 0]	n/a	FR1	0	R1172E
675.06	2.532	834114	REC_WORD	2.532	n/a	RHINO	-999	1	[0, 0, 0]	n/a	FR1	0	R1172E
677.592	24.215	836646	REC_END	n/a	n/a	n/a	-999	1	[0, 0, 0]	n/a	FR1	0	R1172E
701.807	0.5	860860	TRIAL	n/a	n/a	n/a	-999	2	[0, 0, 0]	n/a	FR1	0	R1172E
702.307	10.428	861360	COUNTDOWN_START	n/a	n/a	n/a	-999	2	[0, 0, 0]	n/a	FR1	0	R1172E
712.735	0.008	871787	COUNTDOWN_END	n/a	n/a	n/a	-999	2	[0, 0, 0]	n/a	FR1	0	R1172E
712.743	1.616	871795	ORIENT	n/a	n/a	n/a	-999	2	[0, 0, 0]	n/a	FR1	0	R1172E
714.359	2.1	873411	ORIENT_OFF	n/a	n/a	n/a	-999	2	[0, 0, 0]	n/a	FR1	0	R1172E
716.459	1.617	875511	WORD	n/a	wordpools/wordpool_EN.txt	BADGE	1	2	[0, 0, 0]	n/a	FR1	0	R1172E
718.076	0.818	877128	WORD_OFF	n/a	n/a	BADGE	1	2	[0, 0, 0]	n/a	FR1	0	R1172E
718.894	1.616	877946	WORD	n/a	wordpools/wordpool_EN.txt	SHIRT	2	2	[0, 0, 0]	n/a	FR1	0	R1172E
720.51	0.783	879562	WORD_OFF	n/a	n/a	SHIRT	2	2	[0, 0, 0]	n/a	FR1	0	R1172E
721.293	1.601	880345	WORD	n/a	wordpools/wordpool_EN.txt	PEARL	3	2	[0, 0, 0]	n/a	FR1	0	R1172E
722.894	0.867	881946	WORD_OFF	n/a	n/a	PEARL	3	2	[0, 0, 0]	n/a	FR1	0	R1172E
723.761	1.616	882813	WORD	n/a	wordpools/wordpool_EN.txt	CHEEK	4	2	[0, 0, 0]	n/a	FR1	0	R1172E
725.377	0.984	884429	WORD_OFF	n/a	n/a	CHEEK	4	2	[0, 0, 0]	n/a	FR1	0	R1172E
726.361	1.617	885413	WORD	n/a	wordpools/wordpool_EN.txt	CART	5	2	[0, 0, 0]	n/a	FR1	0	R1172E
727.978	0.834	887029	WORD_OFF	n/a	n/a	CART	5	2	[0, 0, 0]	n/a	FR1	0	R1172E
728.812	1.616	887863	WORD	n/a	wordpools/wordpool_EN.txt	BLUSH	6	2	[0, 0, 0]	n/a	FR1	0	R1172E
730.428	0.967	889479	WORD_OFF	n/a	n/a	BLUSH	6	2	[0, 0, 0]	n/a	FR1	0	R1172E
731.395	1.617	890446	WORD	n/a	wordpools/wordpool_EN.txt	SHIELD	7	2	[0, 0, 0]	n/a	FR1	0	R1172E
733.012	0.983	892063	WORD_OFF	n/a	n/a	SHIELD	7	2	[0, 0, 0]	n/a	FR1	0	R1172E
733.995	1.617	893046	WORD	n/a	wordpools/wordpool_EN.txt	BATH	8	2	[0, 0, 0]	n/a	FR1	0	R1172E
735.612	0.884	894663	WORD_OFF	n/a	n/a	BATH	8	2	[0, 0, 0]	n/a	FR1	0	R1172E
736.496	1.617	895547	WORD	n/a	wordpools/wordpool_EN.txt	VEST	9	2	[0, 0, 0]	n/a	FR1	0	R1172E
738.113	0.967	897164	WORD_OFF	n/a	n/a	VEST	9	2	[0, 0, 0]	n/a	FR1	0	R1172E
739.08	1.618	898131	WORD	n/a	wordpools/wordpool_EN.txt	CROWN	10	2	[0, 0, 0]	n/a	FR1	0	R1172E
740.698	0.849	899749	WORD_OFF	n/a	n/a	CROWN	10	2	[0, 0, 0]	n/a	FR1	0	R1172E
741.547	1.617	900598	WORD	n/a	wordpools/wordpool_EN.txt	HAND	11	2	[0, 0, 0]	n/a	FR1	0	R1172E
743.164	0.9	902215	WORD_OFF	n/a	n/a	HAND	11	2	[0, 0, 0]	n/a	FR1	0	R1172E
744.064	1.618	903115	WORD	n/a	wordpools/wordpool_EN.txt	LAMP	12	2	[0, 0, 0]	n/a	FR1	0	R1172E
745.682	0.0	904733	WORD_OFF	n/a	n/a	LAMP	12	2	[0, 0, 0]	n/a	FR1	0	R1172E
745.682	0.0	904733	DISTRACT_START	n/a	n/a	n/a	-999	2	[0, 0, 0]	n/a	FR1	0	R1172E
745.682	0.016	904733	START	n/a	n/a	n/a	-999	2	[-999, -999, -999]	n/a	FR1	0	R1172E
745.698	5.985	904749	PROB	5.985	n/a	n/a	-999	2	[5, 3, 3]	11	FR1	0	R1172E
751.683	7.817	910733	PROB	7.817	n/a	n/a	-999	2	[9, 7, 7]	23	FR1	0	R1172E
759.5	7.493	918550	PROB	7.493	n/a	n/a	-999	2	[3, 6, 7]	16	FR1	0	R1172E
766.993	0.008	926043	STOP	n/a	n/a	n/a	-999	2	[-999, -999, -999]	n/a	FR1	0	R1172E
767.001	0.517	926051	DISTRACT_END	n/a	n/a	n/a	-999	2	[0, 0, 0]	n/a	FR1	0	R1172E
767.518	0.517	926568	RETRIEVAL_ORIENT	n/a	n/a	n/a	-999	2	[0, 0, 0]	n/a	FR1	0	R1172E
768.035	3.423	927085	REC_START	n/a	n/a	n/a	-999	2	[0, 0, 0]	n/a	FR1	0	R1172E
771.458	2.091	930508	REC_WORD	2.091	n/a	BADGE	-999	2	[0, 0, 0]	n/a	FR1	0	R1172E
773.549	2.328	932599	REC_WORD	2.328	n/a	CHEEK	-999	2	[0, 0, 0]	n/a	FR1	0	R1172E
775.877	13.381	934926	REC_WORD	13.381	n/a	CART	-999	2	[0, 0, 0]	n/a	FR1	0	R1172E
789.258	8.789	948307	REC_WORD	8.789	n/a	TOE	-999	2	[0, 0, 0]	n/a	FR1	0	R1172E
798.047	9.044	957096	REC_END	n/a	n/a	n/a	-999	2	[0, 0, 0]	n/a	FR1	0	R1172E
807.091	0.5	966139	TRIAL	n/a	n/a	n/a	-999	3	[0, 0, 0]	n/a	FR1	0	R1172E
807.591	10.428	966639	COUNTDOWN_START	n/a	n/a	n/a	-999	3	[0, 0, 0]	n/a	FR1	0	R1172E
818.019	0.008	977067	COUNTDOWN_END	n/a	n/a	n/a	-999	3	[0, 0, 0]	n/a	FR1	0	R1172E
818.027	1.618	977075	ORIENT	n/a	n/a	n/a	-999	3	[0, 0, 0]	n/a	FR1	0	R1172E
819.645	2.033	978693	ORIENT_OFF	n/a	n/a	n/a	-999	3	[0, 0, 0]	n/a	FR1	0	R1172E
821.678	1.616	980726	WORD	n/a	wordpools/wordpool_EN.txt	CAGE	1	3	[0, 0, 0]	n/a	FR1	0	R1172E
823.294	0.884	982341	WORD_OFF	n/a	n/a	CAGE	1	3	[0, 0, 0]	n/a	FR1	0	R1172E
824.178	1.618	983225	WORD	n/a	wordpools/wordpool_EN.txt	TENT	2	3	[0, 0, 0]	n/a	FR1	0	R1172E
825.796	0.967	984843	WORD_OFF	n/a	n/a	TENT	2	3	[0, 0, 0]	n/a	FR1	0	R1172E
826.763	1.616	985810	WORD	n/a	wordpools/wordpool_EN.txt	PANTS	3	3	[0, 0, 0]	n/a	FR1	0	R1172E
828.379	0.883	987426	WORD_OFF	n/a	n/a	PANTS	3	3	[0, 0, 0]	n/a	FR1	0	R1172E
829.262	1.618	988309	WORD	n/a	wordpools/wordpool_EN.txt	TOOTH	4	3	[0, 0, 0]	n/a	FR1	0	R1172E
830.88	0.867	989927	WORD_OFF	n/a	n/a	TOOTH	4	3	[0, 0, 0]	n/a	FR1	0	R1172E
831.747	1.616	990794	WORD	n/a	wordpools/wordpool_EN.txt	TOAD	5	3	[0, 0, 0]	n/a	FR1	0	R1172E
833.363	0.867	992410	WORD_OFF	n/a	n/a	TOAD	5	3	[0, 0, 0]	n/a	FR1	0	R1172E
834.23	1.618	993277	WORD	n/a	wordpools/wordpool_EN.txt	TRUCK	6	3	[0, 0, 0]	n/a	FR1	0	R1172E
835.848	0.833	994895	WORD_OFF	n/a	n/a	TRUCK	6	3	[0, 0, 0]	n/a	FR1	0	R1172E
836.681	1.616	995728	WORD	n/a	wordpools/wordpool_EN.txt	TOY	7	3	[0, 0, 0]	n/a	FR1	0	R1172E
838.297	0.95	997344	WORD_OFF	n/a	n/a	TOY	7	3	[0, 0, 0]	n/a	FR1	0	R1172E
839.247	1.618	998294	WORD	n/a	wordpools/wordpool_EN.txt	SNAKE	8	3	[0, 0, 0]	n/a	FR1	0	R1172E
840.865	0.867	999912	WORD_OFF	n/a	n/a	SNAKE	8	3	[0, 0, 0]	n/a	FR1	0	R1172E
841.732	1.616	1000779	WORD	n/a	wordpools/wordpool_EN.txt	TEETH	9	3	[0, 0, 0]	n/a	FR1	0	R1172E
843.348	0.967	1002395	WORD_OFF	n/a	n/a	TEETH	9	3	[0, 0, 0]	n/a	FR1	0	R1172E
844.315	1.617	1003362	WORD	n/a	wordpools/wordpool_EN.txt	DUCK	10	3	[0, 0, 0]	n/a	FR1	0	R1172E
845.932	0.934	1004978	WORD_OFF	n/a	n/a	DUCK	10	3	[0, 0, 0]	n/a	FR1	0	R1172E
846.866	1.616	1005912	WORD	n/a	wordpools/wordpool_EN.txt	BRUSH	11	3	[0, 0, 0]	n/a	FR1	0	R1172E
848.482	0.884	1007528	WORD_OFF	n/a	n/a	BRUSH	11	3	[0, 0, 0]	n/a	FR1	0	R1172E
849.366	1.617	1008412	WORD	n/a	wordpools/wordpool_EN.txt	PIG	12	3	[0, 0, 0]	n/a	FR1	0	R1172E
850.983	0.0	1010029	WORD_OFF	n/a	n/a	PIG	12	3	[0, 0, 0]	n/a	FR1	0	R1172E
850.983	0.0	1010029	DISTRACT_START	n/a	n/a	n/a	-999	3	[0, 0, 0]	n/a	FR1	0	R1172E
850.983	0.016	1010029	START	n/a	n/a	n/a	-999	3	[-999, -999, -999]	n/a	FR1	0	R1172E
850.999	7.001	1010045	PROB	7.001	n/a	n/a	-999	3	[5, 2, 5]	12	FR1	0	R1172E
858.0	9.635	1017046	PROB	9.635	n/a	n/a	-999	3	[8, 8, 7]	23	FR1	0	R1172E
867.635	5.901	1026681	PROB	5.901	n/a	n/a	-999	3	[1, 3, 6]	10	FR1	0	R1172E
873.536	0.017	1032581	STOP	n/a	n/a	n/a	-999	3	[-999, -999, -999]	n/a	FR1	0	R1172E
873.553	0.534	1032598	DISTRACT_END	n/a	n/a	n/a	-999	3	[0, 0, 0]	n/a	FR1	0	R1172E
874.087	0.517	1033132	RETRIEVAL_ORIENT	n/a	n/a	n/a	-999	3	[0, 0, 0]	n/a	FR1	0	R1172E
874.604	2.609	1033649	REC_START	n/a	n/a	n/a	-999	3	[0, 0, 0]	n/a	FR1	0	R1172E
877.213	1.405	1036258	REC_WORD	1.405	n/a	TOAD	-999	3	[0, 0, 0]	n/a	FR1	0	R1172E
878.618	2.525	1037663	REC_WORD	2.525	n/a	TRUCK	-999	3	[0, 0, 0]	n/a	FR1	0	R1172E
881.143	1.98	1040188	REC_WORD	1.98	n/a	BATH	-999	3	[0, 0, 0]	n/a	FR1	0	R1172E
883.123	8.957	1042168	REC_WORD	8.957	n/a	TEETH	-999	3	[0, 0, 0]	n/a	FR1	0	R1172E
892.08	7.411	1051125	REC_WORD	7.411	n/a	PIG	-999	3	[0, 0, 0]	n/a	FR1	0	R1172E
899.491	5.123	1058535	REC_WORD	5.123	n/a	BADGE	-999	3	[0, 0, 0]	n/a	FR1	0	R1172E
904.614	15.048	1063658	REC_END	n/a	n/a	n/a	-999	3	[0, 0, 0]	n/a	FR1	0	R1172E
919.662	0.5	1078705	TRIAL	n/a	n/a	n/a	-999	4	[0, 0, 0]	n/a	FR1	0	R1172E
920.162	10.428	1079205	COUNTDOWN_START	n/a	n/a	n/a	-999	4	[0, 0, 0]	n/a	FR1	0	R1172E
930.59	0.006	1089633	COUNTDOWN_END	n/a	n/a	n/a	-999	4	[0, 0, 0]	n/a	FR1	0	R1172E
930.596	1.617	1089639	ORIENT	n/a	n/a	n/a	-999	4	[0, 0, 0]	n/a	FR1	0	R1172E
932.213	2.051	1091256	ORIENT_OFF	n/a	n/a	n/a	-999	4	[0, 0, 0]	n/a	FR1	0	R1172E
934.264	1.618	1093307	WORD	n/a	wordpools/wordpool_EN.txt	LEAF	1	4	[0, 0, 0]	n/a	FR1	0	R1172E
935.882	0.9	1094925	WORD_OFF	n/a	n/a	LEAF	1	4	[0, 0, 0]	n/a	FR1	0	R1172E
936.782	1.616	1095825	WORD	n/a	wordpools/wordpool_EN.txt	ROOM	2	4	[0, 0, 0]	n/a	FR1	0	R1172E
938.398	0.867	1097441	WORD_OFF	n/a	n/a	ROOM	2	4	[0, 0, 0]	n/a	FR1	0	R1172E
939.265	1.618	1098308	WORD	n/a	wordpools/wordpool_EN.txt	SLUSH	3	4	[0, 0, 0]	n/a	FR1	0	R1172E
940.883	0.8	1099926	WORD_OFF	n/a	n/a	SLUSH	3	4	[0, 0, 0]	n/a	FR1	0	R1172E
941.683	1.616	1100725	WORD	n/a	wordpools/wordpool_EN.txt	FLOOR	4	4	[0, 0, 0]	n/a	FR1	0	R1172E
943.299	0.85	1102341	WORD_OFF	n/a	n/a	FLOOR	4	4	[0, 0, 0]	n/a	FR1	0	R1172E
944.149	1.618	1103191	WORD	n/a	wordpools/wordpool_EN.txt	ANT	5	4	[0, 0, 0]	n/a	FR1	0	R1172E
945.767	0.782	1104809	WORD_OFF	n/a	n/a	ANT	5	4	[0, 0, 0]	n/a	FR1	0	R1172E
946.549	1.617	1105591	WORD	n/a	wordpools/wordpool_EN.txt	HAWK	6	4	[0, 0, 0]	n/a	FR1	0	R1172E
948.166	0.834	1107208	WORD_OFF	n/a	n/a	HAWK	6	4	[0, 0, 0]	n/a	FR1	0	R1172E
949.0	1.617	1108042	WORD	n/a	wordpools/wordpool_EN.txt	STEM	7	4	[0, 0, 0]	n/a	FR1	0	R1172E
950.617	0.85	1109659	WORD_OFF	n/a	n/a	STEM	7	4	[0, 0, 0]	n/a	FR1	0	R1172E
951.467	1.617	1110509	WORD	n/a	wordpools/wordpool_EN.txt	CLIFF	8	4	[0, 0, 0]	n/a	FR1	0	R1172E
953.084	0.95	1112126	WORD_OFF	n/a	n/a	CLIFF	8	4	[0, 0, 0]	n/a	FR1	0	R1172E
954.034	1.618	1113076	WORD	n/a	wordpools/wordpool_EN.txt	OAK	9	4	[0, 0, 0]	n/a	FR1	0	R1172E
955.652	0.982	1114694	WORD_OFF	n/a	n/a	OAK	9	4	[0, 0, 0]	n/a	FR1	0	R1172E
956.634	1.617	1115676	WORD	n/a	wordpools/wordpool_EN.txt	BED	10	4	[0, 0, 0]	n/a	FR1	0	R1172E
958.251	0.984	1117293	WORD_OFF	n/a	n/a	BED	10	4	[0, 0, 0]	n/a	FR1	0	R1172E
959.235	1.618	1118277	WORD	n/a	wordpools/wordpool_EN.txt	ROOT	11	4	[0, 0, 0]	n/a	FR1	0	R1172E
960.853	0.833	1119895	WORD_OFF	n/a	n/a	ROOT	11	4	[0, 0, 0]	n/a	FR1	0	R1172E
961.686	1.616	1120728	WORD	n/a	wordpools/wordpool_EN.txt	WING	12	4	[0, 0, 0]	n/a	FR1	0	R1172E
963.302	0.0	1122344	WORD_OFF	n/a	n/a	WING	12	4	[0, 0, 0]	n/a	FR1	0	R1172E
963.302	0.001	1122344	DISTRACT_START	n/a	n/a	n/a	-999	4	[0, 0, 0]	n/a	FR1	0	R1172E
963.303	0.016	1122345	START	n/a	n/a	n/a	-999	4	[-999, -999, -999]	n/a	FR1	0	R1172E
963.319	5.435	1122361	PROB	5.435	n/a	n/a	-999	4	[7, 7, 4]	18	FR1	0	R1172E
968.754	3.901	1127795	PROB	3.901	n/a	n/a	-999	4	[2, 1, 3]	6	FR1	0	R1172E
972.655	6.367	1131696	PROB	6.367	n/a	n/a	-999	4	[1, 7, 8]	16	FR1	0	R1172E
979.022	9.395	1138063	PROB	9.395	n/a	n/a	-999	4	[9, 9, 4]	22	FR1	0	R1172E
988.417	0.006	1147458	STOP	n/a	n/a	n/a	-999	4	[-999, -999, -999]	n/a	FR1	0	R1172E
988.423	0.617	1147464	DISTRACT_END	n/a	n/a	n/a	-999	4	[0, 0, 0]	n/a	FR1	0	R1172E
989.04	0.517	1148081	RETRIEVAL_ORIENT	n/a	n/a	n/a	-999	4	[0, 0, 0]	n/a	FR1	0	R1172E
989.557	3.001	1148597	REC_START	n/a	n/a	n/a	-999	4	[0, 0, 0]	n/a	FR1	0	R1172E
992.558	1.778	1151598	REC_WORD	1.778	n/a	FLOOR	-999	4	[0, 0, 0]	n/a	FR1	0	R1172E
994.336	10.002	1153376	REC_WORD	10.002	n/a	ROOM	-999	4	[0, 0, 0]	n/a	FR1	0	R1172E
1004.338	2.785	1163378	REC_WORD	2.785	n/a	TOAD	-999	4	[0, 0, 0]	n/a	FR1	0	R1172E
1007.123	12.446	1166163	REC_WORD_VV	12.446	n/a	<>	-999	4	[0, 0, 0]	n/a	FR1	0	R1172E
1019.569	18.413	1178608	REC_END	n/a	n/a	n/a	-999	4	[0, 0, 0]	n/a	FR1	0	R1172E
1037.982	0.5	1197020	TRIAL	n/a	n/a	n/a	-999	5	[0, 0, 0]	n/a	FR1	0	R1172E
1038.482	10.428	1197520	COUNTDOWN_START	n/a	n/a	n/a	-999	5	[0, 0, 0]	n/a	FR1	0	R1172E
1048.91	0.007	1207948	COUNTDOWN_END	n/a	n/a	n/a	-999	5	[0, 0, 0]	n/a	FR1	0	R1172E
1048.917	1.617	1207955	ORIENT	n/a	n/a	n/a	-999	5	[0, 0, 0]	n/a	FR1	0	R1172E
1050.534	2.218	1209572	ORIENT_OFF	n/a	n/a	n/a	-999	5	[0, 0, 0]	n/a	FR1	0	R1172E
1052.752	1.616	1211790	WORD	n/a	wordpools/wordpool_EN.txt	BEAN	1	5	[0, 0, 0]	n/a	FR1	0	R1172E
1054.368	0.934	1213406	WORD_OFF	n/a	n/a	BEAN	1	5	[0, 0, 0]	n/a	FR1	0	R1172E
1055.302	1.617	1214340	WORD	n/a	wordpools/wordpool_EN.txt	SPRING	2	5	[0, 0, 0]	n/a	FR1	0	R1172E
1056.919	0.951	1215957	WORD_OFF	n/a	n/a	SPRING	2	5	[0, 0, 0]	n/a	FR1	0	R1172E
1057.87	1.616	1216908	WORD	n/a	wordpools/wordpool_EN.txt	PLANT	3	5	[0, 0, 0]	n/a	FR1	0	R1172E
1059.486	0.783	1218524	WORD_OFF	n/a	n/a	PLANT	3	5	[0, 0, 0]	n/a	FR1	0	R1172E
1060.269	1.601	1219307	WORD	n/a	wordpools/wordpool_EN.txt	LAMB	4	5	[0, 0, 0]	n/a	FR1	0	R1172E
1061.87	0.95	1220907	WORD_OFF	n/a	n/a	LAMB	4	5	[0, 0, 0]	n/a	FR1	0	R1172E
1062.82	1.617	1221857	WORD	n/a	wordpools/wordpool_EN.txt	VINE	5	5	[0, 0, 0]	n/a	FR1	0	R1172E
1064.437	1.0	1223474	WORD_OFF	n/a	n/a	VINE	5	5	[0, 0, 0]	n/a	FR1	0	R1172E
1065.437	1.617	1224474	WORD	n/a	wordpools/wordpool_EN.txt	DITCH	6	5	[0, 0, 0]	n/a	FR1	0	R1172E
1067.054	0.784	1226091	WORD_OFF	n/a	n/a	DITCH	6	5	[0, 0, 0]	n/a	FR1	0	R1172E
1067.838	1.616	1226875	WORD	n/a	wordpools/wordpool_EN.txt	TEA	7	5	[0, 0, 0]	n/a	FR1	0	R1172E
1069.454	0.934	1228491	WORD_OFF	n/a	n/a	TEA	7	5	[0, 0, 0]	n/a	FR1	0	R1172E
1070.388	1.617	1229425	WORD	n/a	wordpools/wordpool_EN.txt	BUSH	8	5	[0, 0, 0]	n/a	FR1	0	R1172E
1072.005	0.933	1231042	WORD_OFF	n/a	n/a	BUSH	8	5	[0, 0, 0]	n/a	FR1	0	R1172E
1072.938	1.617	1231975	WORD	n/a	wordpools/wordpool_EN.txt	GRASS	9	5	[0, 0, 0]	n/a	FR1	0	R1172E
1074.555	0.933	1233592	WORD_OFF	n/a	n/a	GRASS	9	5	[0, 0, 0]	n/a	FR1	0	R1172E
1075.488	1.617	1234525	WORD	n/a	wordpools/wordpool_EN.txt	COW	10	5	[0, 0, 0]	n/a	FR1	0	R1172E
1077.105	0.851	1236142	WORD_OFF	n/a	n/a	COW	10	5	[0, 0, 0]	n/a	FR1	0	R1172E
1077.956	1.617	1236993	WORD	n/a	wordpools/wordpool_EN.txt	JEEP	11	5	[0, 0, 0]	n/a	FR1	0	R1172E
1079.573	0.833	1238610	WORD_OFF	n/a	n/a	JEEP	11	5	[0, 0, 0]	n/a	FR1	0	R1172E
1080.406	1.617	1239443	WORD	n/a	wordpools/wordpool_EN.txt	HOOF	12	5	[0, 0, 0]	n/a	FR1	0	R1172E
1082.023	0.0	1241060	WORD_OFF	n/a	n/a	HOOF	12	5	[0, 0, 0]	n/a	FR1	0	R1172E
1082.023	0.001	1241060	DISTRACT_START	n/a	n/a	n/a	-999	5	[0, 0, 0]	n/a	FR1	0	R1172E
1082.024	0.016	1241061	START	n/a	n/a	n/a	-999	5	[-999, -999, -999]	n/a	FR1	0	R1172E
1082.04	10.201	1241077	PROB	10.201	n/a	n/a	-999	5	[8, 4, 7]	19	FR1	0	R1172E
1092.241	6.251	1251277	PROB	6.251	n/a	n/a	-999	5	[5, 9, 2]	16	FR1	0	R1172E
1098.492	4.685	1257528	PROB	4.685	n/a	n/a	-999	5	[6, 1, 7]	14	FR1	0	R1172E
1103.177	0.016	1262213	STOP	n/a	n/a	n/a	-999	5	[-999, -999, -999]	n/a	FR1	0	R1172E
1103.193	0.701	1262229	DISTRACT_END	n/a	n/a	n/a	-999	5	[0, 0, 0]	n/a	FR1	0	R1172E
1103.894	0.517	1262930	RETRIEVAL_ORIENT	n/a	n/a	n/a	-999	5	[0, 0, 0]	n/a	FR1	0	R1172E
1104.411	5.795	1263447	REC_START	n/a	n/a	n/a	-999	5	[0, 0, 0]	n/a	FR1	0	R1172E
1110.206	1.719	1269241	REC_WORD	1.719	n/a	GUTTER	-999	5	[0, 0, 0]	n/a	FR1	0	R1172E
1111.925	1.306	1270960	REC_WORD	1.306	n/a	DRAIN	-999	5	[0, 0, 0]	n/a	FR1	0	R1172E
1113.231	1.596	1272266	REC_WORD	1.596	n/a	FLOWER	-999	5	[0, 0, 0]	n/a	FR1	0	R1172E
1114.827	1.404	1273862	REC_WORD	1.404	n/a	VINE	-999	5	[0, 0, 0]	n/a	FR1	0	R1172E
1116.231	11.554	1275266	REC_WORD	11.554	n/a	SPRING	-999	5	[0, 0, 0]	n/a	FR1	0	R1172E
1127.785	6.637	1286820	REC_WORD	6.637	n/a	COW	-999	5	[0, 0, 0]	n/a	FR1	0	R1172E
1134.422	41.651	1293456	REC_END	n/a	n/a	n/a	-999	5	[0, 0, 0]	n/a	FR1	0	R1172E
1176.073	0.5	1335106	TRIAL	n/a	n/a	n/a	-999	6	[0, 0, 0]	n/a	FR1	0	R1172E
1176.573	10.428	1335606	COUNTDOWN_START	n/a	n/a	n/a	-999	6	[0, 0, 0]	n/a	FR1	0	R1172E
1187.001	0.007	1346033	COUNTDOWN_END	n/a	n/a	n/a	-999	6	[0, 0, 0]	n/a	FR1	0	R1172E
1187.008	1.617	1346040	ORIENT	n/a	n/a	n/a	-999	6	[0, 0, 0]	n/a	FR1	0	R1172E
1188.625	2.101	1347657	ORIENT_OFF	n/a	n/a	n/a	-999	6	[0, 0, 0]	n/a	FR1	0	R1172E
1190.726	1.616	1349758	WORD	n/a	wordpools/wordpool_EN.txt	NEST	1	6	[0, 0, 0]	n/a	FR1	0	R1172E
1192.342	0.9	1351374	WORD_OFF	n/a	n/a	NEST	1	6	[0, 0, 0]	n/a	FR1	0	R1172E
1193.242	1.618	1352274	WORD	n/a	wordpools/wordpool_EN.txt	EEL	2	6	[0, 0, 0]	n/a	FR1	0	R1172E
1194.86	1.017	1353892	WORD_OFF	n/a	n/a	EEL	2	6	[0, 0, 0]	n/a	FR1	0	R1172E
1195.877	1.616	1354909	WORD	n/a	wordpools/wordpool_EN.txt	FOOD	3	6	[0, 0, 0]	n/a	FR1	0	R1172E
1197.493	0.867	1356525	WORD_OFF	n/a	n/a	FOOD	3	6	[0, 0, 0]	n/a	FR1	0	R1172E
1198.36	1.617	1357392	WORD	n/a	wordpools/wordpool_EN.txt	DEER	4	6	[0, 0, 0]	n/a	FR1	0	R1172E
1199.977	0.967	1359009	WORD_OFF	n/a	n/a	DEER	4	6	[0, 0, 0]	n/a	FR1	0	R1172E
1200.944	1.617	1359976	WORD	n/a	wordpools/wordpool_EN.txt	BREAD	5	6	[0, 0, 0]	n/a	FR1	0	R1172E
1202.561	0.783	1361593	WORD_OFF	n/a	n/a	BREAD	5	6	[0, 0, 0]	n/a	FR1	0	R1172E
1203.344	1.617	1362376	WORD	n/a	wordpools/wordpool_EN.txt	PEACH	6	6	[0, 0, 0]	n/a	FR1	0	R1172E
1204.961	0.901	1363992	WORD_OFF	n/a	n/a	PEACH	6	6	[0, 0, 0]	n/a	FR1	0	R1172E
1205.862	1.616	1364893	WORD	n/a	wordpools/wordpool_EN.txt	PIT	7	6	[0, 0, 0]	n/a	FR1	0	R1172E
1207.478	0.884	1366509	WORD_OFF	n/a	n/a	PIT	7	6	[0, 0, 0]	n/a	FR1	0	R1172E
1208.362	1.617	1367393	WORD	n/a	wordpools/wordpool_EN.txt	PRINCE	8	6	[0, 0, 0]	n/a	FR1	0	R1172E
1209.979	0.784	1369010	WORD_OFF	n/a	n/a	PRINCE	8	6	[0, 0, 0]	n/a	FR1	0	R1172E
1210.763	1.616	1369794	WORD	n/a	wordpools/wordpool_EN.txt	GEESE	9	6	[0, 0, 0]	n/a	FR1	0	R1172E
1212.379	0.9	1371410	WORD_OFF	n/a	n/a	GEESE	9	6	[0, 0, 0]	n/a	FR1	0	R1172E
1213.279	1.601	1372310	WORD	n/a	wordpools/wordpool_EN.txt	MILK	10	6	[0, 0, 0]	n/a	FR1	0	R1172E
1214.88	0.767	1373911	WORD_OFF	n/a	n/a	MILK	10	6	[0, 0, 0]	n/a	FR1	0	R1172E
1215.647	1.616	1374678	WORD	n/a	wordpools/wordpool_EN.txt	CROW	11	6	[0, 0, 0]	n/a	FR1	0	R1172E
1217.263	0.867	1376294	WORD_OFF	n/a	n/a	CROW	11	6	[0, 0, 0]	n/a	FR1	0	R1172E
1218.13	1.618	1377161	WORD	n/a	wordpools/wordpool_EN.txt	WOLF	12	6	[0, 0, 0]	n/a	FR1	0	R1172E
1219.748	0.0	1378779	WORD_OFF	n/a	n/a	WOLF	12	6	[0, 0, 0]	n/a	FR1	0	R1172E
1219.748	0.001	1378779	DISTRACT_START	n/a	n/a	n/a	-999	6	[0, 0, 0]	n/a	FR1	0	R1172E
1219.749	0.016	1378780	START	n/a	n/a	n/a	-999	6	[-999, -999, -999]	n/a	FR1	0	R1172E
1219.765	9.935	1378796	PROB	9.935	n/a	n/a	-999	6	[7, 5, 9]	21	FR1	0	R1172E
1229.7	6.417	1388730	PROB	6.417	n/a	n/a	-999	6	[6, 2, 9]	17	FR1	0	R1172E
1236.117	3.811	1395147	PROB	3.811	n/a	n/a	-999	6	[1, 2, 3]	6	FR1	0	R1172E
1239.928	0.006	1398958	STOP	n/a	n/a	n/a	-999	6	[-999, -999, -999]	n/a	FR1	0	R1172E
1239.934	0.633	1398964	DISTRACT_END	n/a	n/a	n/a	-999	6	[0, 0, 0]	n/a	FR1	0	R1172E
1240.567	0.518	1399597	RETRIEVAL_ORIENT	n/a	n/a	n/a	-999	6	[0, 0, 0]	n/a	FR1	0	R1172E
1241.085	2.594	1400115	REC_START	n/a	n/a	n/a	-999	6	[0, 0, 0]	n/a	FR1	0	R1172E
1243.679	1.511	1402709	REC_WORD	1.511	n/a	PRINCE	-999	6	[0, 0, 0]	n/a	FR1	0	R1172E
1245.19	3.231	1404220	REC_WORD	3.231	n/a	FOOD	-999	6	[0, 0, 0]	n/a	FR1	0	R1172E
1248.421	9.785	1407451	REC_WORD	9.785	n/a	GEESE	-999	6	[0, 0, 0]	n/a	FR1	0	R1172E
1258.206	12.89	1417235	REC_WORD	12.89	n/a	GUTTER	-999	6	[0, 0, 0]	n/a	FR1	0	R1172E
1271.096	63.438	1430125	REC_END	n/a	n/a	n/a	-999	6	[0, 0, 0]	n/a	FR1	0	R1172E
1334.534	0.5	1493560	TRIAL	n/a	n/a	n/a	-999	7	[0, 0, 0]	n/a	FR1	0	R1172E
1335.034	10.428	1494060	COUNTDOWN_START	n/a	n/a	n/a	-999	7	[0, 0, 0]	n/a	FR1	0	R1172E
1345.462	0.007	1504488	COUNTDOWN_END	n/a	n/a	n/a	-999	7	[0, 0, 0]	n/a	FR1	0	R1172E
1345.469	1.617	1504495	ORIENT	n/a	n/a	n/a	-999	7	[0, 0, 0]	n/a	FR1	0	R1172E
1347.086	2.05	1506112	ORIENT_OFF	n/a	n/a	n/a	-999	7	[0, 0, 0]	n/a	FR1	0	R1172E
1349.136	1.618	1508161	WORD	n/a	wordpools/wordpool_EN.txt	OWL	1	7	[0, 0, 0]	n/a	FR1	0	R1172E
1350.754	0.85	1509779	WORD_OFF	n/a	n/a	OWL	1	7	[0, 0, 0]	n/a	FR1	0	R1172E
1351.604	1.616	1510629	WORD	n/a	wordpools/wordpool_EN.txt	COUCH	2	7	[0, 0, 0]	n/a	FR1	0	R1172E
1353.22	0.984	1512245	WORD_OFF	n/a	n/a	COUCH	2	7	[0, 0, 0]	n/a	FR1	0	R1172E
1354.204	1.618	1513229	WORD	n/a	wordpools/wordpool_EN.txt	EAR	3	7	[0, 0, 0]	n/a	FR1	0	R1172E
1355.822	0.833	1514847	WORD_OFF	n/a	n/a	EAR	3	7	[0, 0, 0]	n/a	FR1	0	R1172E
1356.655	1.616	1515680	WORD	n/a	wordpools/wordpool_EN.txt	SLEEVE	4	7	[0, 0, 0]	n/a	FR1	0	R1172E
1358.271	0.834	1517296	WORD_OFF	n/a	n/a	SLEEVE	4	7	[0, 0, 0]	n/a	FR1	0	R1172E
1359.105	1.618	1518130	WORD	n/a	wordpools/wordpool_EN.txt	HOUSE	5	7	[0, 0, 0]	n/a	FR1	0	R1172E
1360.723	0.882	1519748	WORD_OFF	n/a	n/a	HOUSE	5	7	[0, 0, 0]	n/a	FR1	0	R1172E
1361.605	1.617	1520630	WORD	n/a	wordpools/wordpool_EN.txt	DESK	6	7	[0, 0, 0]	n/a	FR1	0	R1172E
1363.222	0.867	1522247	WORD_OFF	n/a	n/a	DESK	6	7	[0, 0, 0]	n/a	FR1	0	R1172E
1364.089	1.618	1523114	WORD	n/a	wordpools/wordpool_EN.txt	STOOL	7	7	[0, 0, 0]	n/a	FR1	0	R1172E
1365.707	0.832	1524732	WORD_OFF	n/a	n/a	STOOL	7	7	[0, 0, 0]	n/a	FR1	0	R1172E
1366.539	1.617	1525564	WORD	n/a	wordpools/wordpool_EN.txt	CHAIR	8	7	[0, 0, 0]	n/a	FR1	0	R1172E
1368.156	0.967	1527181	WORD_OFF	n/a	n/a	CHAIR	8	7	[0, 0, 0]	n/a	FR1	0	R1172E
1369.123	1.618	1528148	WORD	n/a	wordpools/wordpool_EN.txt	RAT	9	7	[0, 0, 0]	n/a	FR1	0	R1172E
1370.741	0.783	1529766	WORD_OFF	n/a	n/a	RAT	9	7	[0, 0, 0]	n/a	FR1	0	R1172E
1371.524	1.617	1530549	WORD	n/a	wordpools/wordpool_EN.txt	GUARD	10	7	[0, 0, 0]	n/a	FR1	0	R1172E
1373.141	0.866	1532165	WORD_OFF	n/a	n/a	GUARD	10	7	[0, 0, 0]	n/a	FR1	0	R1172E
1374.007	1.617	1533031	WORD	n/a	wordpools/wordpool_EN.txt	CLOCK	11	7	[0, 0, 0]	n/a	FR1	0	R1172E
1375.624	0.767	1534648	WORD_OFF	n/a	n/a	CLOCK	11	7	[0, 0, 0]	n/a	FR1	0	R1172E
1376.391	1.617	1535415	WORD	n/a	wordpools/wordpool_EN.txt	DART	12	7	[0, 0, 0]	n/a	FR1	0	R1172E
1378.008	0.0	1537032	WORD_OFF	n/a	n/a	DART	12	7	[0, 0, 0]	n/a	FR1	0	R1172E
1378.008	0.001	1537032	DISTRACT_START	n/a	n/a	n/a	-999	7	[0, 0, 0]	n/a	FR1	0	R1172E
1378.009	0.016	1537033	START	n/a	n/a	n/a	-999	7	[-999, -999, -999]	n/a	FR1	0	R1172E
1378.025	11.318	1537049	PROB	11.318	n/a	n/a	-999	7	[4, 3, 8]	15	FR1	0	R1172E
1389.343	5.618	1548367	PROB	5.618	n/a	n/a	-999	7	[2, 4, 4]	10	FR1	0	R1172E
1394.961	4.559	1553985	PROB	4.559	n/a	n/a	-999	7	[4, 8, 2]	14	FR1	0	R1172E
1399.52	0.009	1558543	STOP	n/a	n/a	n/a	-999	7	[-999, -999, -999]	n/a	FR1	0	R1172E
1399.529	0.683	1558552	DISTRACT_END	n/a	n/a	n/a	-999	7	[0, 0, 0]	n/a	FR1	0	R1172E
1400.212	0.518	1559235	RETRIEVAL_ORIENT	n/a	n/a	n/a	-999	7	[0, 0, 0]	n/a	FR1	0	R1172E
1400.73	1.709	1559753	REC_START	n/a	n/a	n/a	-999	7	[0, 0, 0]	n/a	FR1	0	R1172E
1402.439	1.277	1561462	REC_WORD	1.277	n/a	HOUSE	-999	7	[0, 0, 0]	n/a	FR1	0	R1172E
1403.716	1.426	1562739	REC_WORD	1.426	n/a	COUCH	-999	7	[0, 0, 0]	n/a	FR1	0	R1172E
1405.142	2.002	1564165	REC_WORD	2.002	n/a	SLEEVE	-999	7	[0, 0, 0]	n/a	FR1	0	R1172E
1407.144	2.984	1566167	REC_WORD	2.984	n/a	RAT	-999	7	[0, 0, 0]	n/a	FR1	0	R1172E
1410.128	20.614	1569151	REC_WORD	20.614	n/a	DESK	-999	7	[0, 0, 0]	n/a	FR1	0	R1172E
1430.742	9.41	1589764	REC_END	n/a	n/a	n/a	-999	7	[0, 0, 0]	n/a	FR1	0	R1172E
1440.152	0.5	1599174	TRIAL	n/a	n/a	n/a	-999	8	[0, 0, 0]	n/a	FR1	0	R1172E
1440.652	10.428	1599674	COUNTDOWN_START	n/a	n/a	n/a	-999	8	[0, 0, 0]	n/a	FR1	0	R1172E
1451.08	0.008	1610101	COUNTDOWN_END	n/a	n/a	n/a	-999	8	[0, 0, 0]	n/a	FR1	0	R1172E
1451.088	1.618	1610109	ORIENT	n/a	n/a	n/a	-999	8	[0, 0, 0]	n/a	FR1	0	R1172E
1452.706	2.216	1611727	ORIENT_OFF	n/a	n/a	n/a	-999	8	[0, 0, 0]	n/a	FR1	0	R1172E
1454.922	1.617	1613943	WORD	n/a	wordpools/wordpool_EN.txt	STOVE	1	8	[0, 0, 0]	n/a	FR1	0	R1172E
1456.539	0.8	1615560	WORD_OFF	n/a	n/a	STOVE	1	8	[0, 0, 0]	n/a	FR1	0	R1172E
1457.339	1.617	1616360	WORD	n/a	wordpools/wordpool_EN.txt	BAG	2	8	[0, 0, 0]	n/a	FR1	0	R1172E
1458.956	0.901	1617977	WORD_OFF	n/a	n/a	BAG	2	8	[0, 0, 0]	n/a	FR1	0	R1172E
1459.857	1.616	1618878	WORD	n/a	wordpools/wordpool_EN.txt	SPOON	3	8	[0, 0, 0]	n/a	FR1	0	R1172E
1461.473	0.85	1620494	WORD_OFF	n/a	n/a	SPOON	3	8	[0, 0, 0]	n/a	FR1	0	R1172E
1462.323	1.617	1621344	WORD	n/a	wordpools/wordpool_EN.txt	SEAT	4	8	[0, 0, 0]	n/a	FR1	0	R1172E
1463.94	0.951	1622961	WORD_OFF	n/a	n/a	SEAT	4	8	[0, 0, 0]	n/a	FR1	0	R1172E
1464.891	1.616	1623912	WORD	n/a	wordpools/wordpool_EN.txt	CANE	5	8	[0, 0, 0]	n/a	FR1	0	R1172E
1466.507	0.95	1625528	WORD_OFF	n/a	n/a	CANE	5	8	[0, 0, 0]	n/a	FR1	0	R1172E
1467.457	1.617	1626477	WORD	n/a	wordpools/wordpool_EN.txt	DOLL	6	8	[0, 0, 0]	n/a	FR1	0	R1172E
1469.074	0.917	1628094	WORD_OFF	n/a	n/a	DOLL	6	8	[0, 0, 0]	n/a	FR1	0	R1172E
1469.991	1.617	1629011	WORD	n/a	wordpools/wordpool_EN.txt	LEG	7	8	[0, 0, 0]	n/a	FR1	0	R1172E
1471.608	0.95	1630628	WORD_OFF	n/a	n/a	LEG	7	8	[0, 0, 0]	n/a	FR1	0	R1172E
1472.558	1.617	1631578	WORD	n/a	wordpools/wordpool_EN.txt	MAT	8	8	[0, 0, 0]	n/a	FR1	0	R1172E
1474.175	0.9	1633195	WORD_OFF	n/a	n/a	MAT	8	8	[0, 0, 0]	n/a	FR1	0	R1172E
1475.075	1.618	1634095	WORD	n/a	wordpools/wordpool_EN.txt	PURSE	9	8	[0, 0, 0]	n/a	FR1	0	R1172E
1476.693	0.883	1635713	WORD_OFF	n/a	n/a	PURSE	9	8	[0, 0, 0]	n/a	FR1	0	R1172E
1477.576	1.617	1636596	WORD	n/a	wordpools/wordpool_EN.txt	TRAY	10	8	[0, 0, 0]	n/a	FR1	0	R1172E
1479.193	0.766	1638213	WORD_OFF	n/a	n/a	TRAY	10	8	[0, 0, 0]	n/a	FR1	0	R1172E
1479.959	1.617	1638979	WORD	n/a	wordpools/wordpool_EN.txt	CUBE	11	8	[0, 0, 0]	n/a	FR1	0	R1172E
1481.576	0.967	1640596	WORD_OFF	n/a	n/a	CUBE	11	8	[0, 0, 0]	n/a	FR1	0	R1172E
1482.543	1.617	1641563	WORD	n/a	wordpools/wordpool_EN.txt	NOSE	12	8	[0, 0, 0]	n/a	FR1	0	R1172E
1484.16	0.0	1643180	WORD_OFF	n/a	n/a	NOSE	12	8	[0, 0, 0]	n/a	FR1	0	R1172E
1484.16	0.001	1643180	DISTRACT_START	n/a	n/a	n/a	-999	8	[0, 0, 0]	n/a	FR1	0	R1172E
1484.161	0.016	1643181	START	n/a	n/a	n/a	-999	8	[-999, -999, -999]	n/a	FR1	0	R1172E
1484.177	7.951	1643197	PROB	7.951	n/a	n/a	-999	8	[3, 2, 2]	7	FR1	0	R1172E
1492.128	4.168	1651147	PROB	4.168	n/a	n/a	-999	8	[8, 2, 5]	15	FR1	0	R1172E
1496.296	3.384	1655315	PROB	3.384	n/a	n/a	-999	8	[2, 2, 1]	5	FR1	0	R1172E
1499.68	15.704	1658699	PROB	15.704	n/a	n/a	-999	8	[9, 8, 3]	20	FR1	0	R1172E
1515.384	0.015	1674402	STOP	n/a	n/a	n/a	-999	8	[-999, -999, -999]	n/a	FR1	0	R1172E
1515.399	0.533	1674417	DISTRACT_END	n/a	n/a	n/a	-999	8	[0, 0, 0]	n/a	FR1	0	R1172E
1515.932	0.518	1674950	RETRIEVAL_ORIENT	n/a	n/a	n/a	-999	8	[0, 0, 0]	n/a	FR1	0	R1172E
1516.45	3.234	1675468	REC_START	n/a	n/a	n/a	-999	8	[0, 0, 0]	n/a	FR1	0	R1172E
1519.684	1.455	1678702	REC_WORD	1.455	n/a	CHAIR	-999	8	[0, 0, 0]	n/a	FR1	0	R1172E
1521.139	18.625	1680157	REC_WORD	18.625	n/a	CANE	-999	8	[0, 0, 0]	n/a	FR1	0	R1172E
1539.764	4.875	1698781	REC_WORD	4.875	n/a	RAT	-999	8	[0, 0, 0]	n/a	FR1	0	R1172E
1544.639	0.659	1703656	REC_WORD	0.659	n/a	STOVE	-999	8	[0, 0, 0]	n/a	FR1	0	R1172E
1545.298	1.164	1704315	REC_WORD	1.164	n/a	SPOON	-999	8	[0, 0, 0]	n/a	FR1	0	R1172E
1546.462	23.496	1705479	REC_END	n/a	n/a	n/a	-999	8	[0, 0, 0]	n/a	FR1	0	R1172E
1569.958	0.5	1728974	TRIAL	n/a	n/a	n/a	-999	9	[0, 0, 0]	n/a	FR1	0	R1172E
1570.458	10.428	1729474	COUNTDOWN_START	n/a	n/a	n/a	-999	9	[0, 0, 0]	n/a	FR1	0	R1172E
1580.886	0.009	1739902	COUNTDOWN_END	n/a	n/a	n/a	-999	9	[0, 0, 0]	n/a	FR1	0	R1172E
1580.895	1.616	1739911	ORIENT	n/a	n/a	n/a	-999	9	[0, 0, 0]	n/a	FR1	0	R1172E
1582.511	2.251	1741527	ORIENT_OFF	n/a	n/a	n/a	-999	9	[0, 0, 0]	n/a	FR1	0	R1172E
1584.762	1.616	1743778	WORD	n/a	wordpools/wordpool_EN.txt	CAPE	1	9	[0, 0, 0]	n/a	FR1	0	R1172E
1586.378	0.784	1745394	WORD_OFF	n/a	n/a	CAPE	1	9	[0, 0, 0]	n/a	FR1	0	R1172E
1587.162	1.617	1746177	WORD	n/a	wordpools/wordpool_EN.txt	FARM	2	9	[0, 0, 0]	n/a	FR1	0	R1172E
1588.779	0.833	1747794	WORD_OFF	n/a	n/a	FARM	2	9	[0, 0, 0]	n/a	FR1	0	R1172E
1589.612	1.617	1748627	WORD	n/a	wordpools/wordpool_EN.txt	ELF	3	9	[0, 0, 0]	n/a	FR1	0	R1172E
1591.229	0.867	1750244	WORD_OFF	n/a	n/a	ELF	3	9	[0, 0, 0]	n/a	FR1	0	R1172E
1592.096	1.618	1751111	WORD	n/a	wordpools/wordpool_EN.txt	STRAW	4	9	[0, 0, 0]	n/a	FR1	0	R1172E
1593.714	0.983	1752729	WORD_OFF	n/a	n/a	STRAW	4	9	[0, 0, 0]	n/a	FR1	0	R1172E
1594.697	1.616	1753712	WORD	n/a	wordpools/wordpool_EN.txt	STORM	5	9	[0, 0, 0]	n/a	FR1	0	R1172E
1596.313	0.9	1755328	WORD_OFF	n/a	n/a	STORM	5	9	[0, 0, 0]	n/a	FR1	0	R1172E
1597.213	1.618	1756228	WORD	n/a	wordpools/wordpool_EN.txt	LAND	6	9	[0, 0, 0]	n/a	FR1	0	R1172E
1598.831	0.9	1757846	WORD_OFF	n/a	n/a	LAND	6	9	[0, 0, 0]	n/a	FR1	0	R1172E
1599.731	1.616	1758746	WORD	n/a	wordpools/wordpool_EN.txt	HOOK	7	9	[0, 0, 0]	n/a	FR1	0	R1172E
1601.347	0.967	1760362	WORD_OFF	n/a	n/a	HOOK	7	9	[0, 0, 0]	n/a	FR1	0	R1172E
1602.314	1.617	1761329	WORD	n/a	wordpools/wordpool_EN.txt	SEA	8	9	[0, 0, 0]	n/a	FR1	0	R1172E
1603.931	0.884	1762946	WORD_OFF	n/a	n/a	SEA	8	9	[0, 0, 0]	n/a	FR1	0	R1172E
1604.815	1.617	1763830	WORD	n/a	wordpools/wordpool_EN.txt	MUD	9	9	[0, 0, 0]	n/a	FR1	0	R1172E
1606.432	0.783	1765447	WORD_OFF	n/a	n/a	MUD	9	9	[0, 0, 0]	n/a	FR1	0	R1172E
1607.215	1.618	1766230	WORD	n/a	wordpools/wordpool_EN.txt	BOAT	10	9	[0, 0, 0]	n/a	FR1	0	R1172E
1608.833	0.967	1767848	WORD_OFF	n/a	n/a	BOAT	10	9	[0, 0, 0]	n/a	FR1	0	R1172E
1609.8	1.616	1768815	WORD	n/a	wordpools/wordpool_EN.txt	STICK	11	9	[0, 0, 0]	n/a	FR1	0	R1172E
1611.416	0.917	1770430	WORD_OFF	n/a	n/a	STICK	11	9	[0, 0, 0]	n/a	FR1	0	R1172E
1612.333	1.617	1771347	WORD	n/a	wordpools/wordpool_EN.txt	MAP	12	9	[0, 0, 0]	n/a	FR1	0	R1172E
1613.95	0.0	1772964	WORD_OFF	n/a	n/a	MAP	12	9	[0, 0, 0]	n/a	FR1	0	R1172E
1613.95	0.0	1772964	DISTRACT_START	n/a	n/a	n/a	-999	9	[0, 0, 0]	n/a	FR1	0	R1172E
1613.95	0.016	1772964	START	n/a	n/a	n/a	-999	9	[-999, -999, -999]	n/a	FR1	0	R1172E
1613.966	4.301	1772980	PROB	4.301	n/a	n/a	-999	9	[1, 2, 2]	5	FR1	0	R1172E
1618.267	15.709	1777281	PROB	15.709	n/a	n/a	-999	9	[9, 3, 7]	19	FR1	0	R1172E
1633.976	0.01	1792990	STOP	n/a	n/a	n/a	-999	9	[-999, -999, -999]	n/a	FR1	0	R1172E
1633.986	0.584	1793000	DISTRACT_END	n/a	n/a	n/a	-999	9	[0, 0, 0]	n/a	FR1	0	R1172E
1634.57	0.517	1793583	RETRIEVAL_ORIENT	n/a	n/a	n/a	-999	9	[0, 0, 0]	n/a	FR1	0	R1172E
1635.087	1.719	1794100	REC_START	n/a	n/a	n/a	-999	9	[0, 0, 0]	n/a	FR1	0	R1172E
1636.806	20.207	1795819	REC_WORD	20.207	n/a	CAPE	-999	9	[0, 0, 0]	n/a	FR1	0	R1172E
1657.013	0.653	1816026	REC_WORD	0.653	n/a	CAPE	-999	9	[0, 0, 0]	n/a	FR1	0	R1172E
1657.666	7.432	1816679	REC_WORD	7.432	n/a	CANE	-999	9	[0, 0, 0]	n/a	FR1	0	R1172E
1665.098	129.3	1824110	REC_END	n/a	n/a	n/a	-999	9	[0, 0, 0]	n/a	FR1	0	R1172E
1794.398	0.5	1953405	TRIAL	n/a	n/a	n/a	-999	10	[0, 0, 0]	n/a	FR1	0	R1172E
1794.898	10.428	1953905	COUNTDOWN_START	n/a	n/a	n/a	-999	10	[0, 0, 0]	n/a	FR1	0	R1172E
1805.326	0.007	1964332	COUNTDOWN_END	n/a	n/a	n/a	-999	10	[0, 0, 0]	n/a	FR1	0	R1172E
1805.333	1.617	1964339	ORIENT	n/a	n/a	n/a	-999	10	[0, 0, 0]	n/a	FR1	0	R1172E
1806.95	1.951	1965956	ORIENT_OFF	n/a	n/a	n/a	-999	10	[0, 0, 0]	n/a	FR1	0	R1172E
1808.901	1.616	1967907	WORD	n/a	wordpools/wordpool_EN.txt	FLUTE	1	10	[0, 0, 0]	n/a	FR1	0	R1172E
1810.517	1.001	1969523	WORD_OFF	n/a	n/a	FLUTE	1	10	[0, 0, 0]	n/a	FR1	0	R1172E
1811.518	1.616	1970524	WORD	n/a	wordpools/wordpool_EN.txt	BOOT	2	10	[0, 0, 0]	n/a	FR1	0	R1172E
1813.134	0.951	1972140	WORD_OFF	n/a	n/a	BOOT	2	10	[0, 0, 0]	n/a	FR1	0	R1172E
1814.085	1.617	1973091	WORD	n/a	wordpools/wordpool_EN.txt	TOAST	3	10	[0, 0, 0]	n/a	FR1	0	R1172E
1815.702	0.816	1974708	WORD_OFF	n/a	n/a	TOAST	3	10	[0, 0, 0]	n/a	FR1	0	R1172E
1816.518	1.617	1975524	WORD	n/a	wordpools/wordpool_EN.txt	BROOM	4	10	[0, 0, 0]	n/a	FR1	0	R1172E
1818.135	0.768	1977141	WORD_OFF	n/a	n/a	BROOM	4	10	[0, 0, 0]	n/a	FR1	0	R1172E
1818.903	1.616	1977909	WORD	n/a	wordpools/wordpool_EN.txt	MOUTH	5	10	[0, 0, 0]	n/a	FR1	0	R1172E
1820.519	1.0	1979525	WORD_OFF	n/a	n/a	MOUTH	5	10	[0, 0, 0]	n/a	FR1	0	R1172E
1821.519	1.617	1980525	WORD	n/a	wordpools/wordpool_EN.txt	VASE	6	10	[0, 0, 0]	n/a	FR1	0	R1172E
1823.136	0.9	1982142	WORD_OFF	n/a	n/a	VASE	6	10	[0, 0, 0]	n/a	FR1	0	R1172E
1824.036	1.618	1983042	WORD	n/a	wordpools/wordpool_EN.txt	SOCK	7	10	[0, 0, 0]	n/a	FR1	0	R1172E
1825.654	0.949	1984659	WORD_OFF	n/a	n/a	SOCK	7	10	[0, 0, 0]	n/a	FR1	0	R1172E
1826.603	1.617	1985608	WORD	n/a	wordpools/wordpool_EN.txt	HILL	8	10	[0, 0, 0]	n/a	FR1	0	R1172E
1828.22	0.834	1987225	WORD_OFF	n/a	n/a	HILL	8	10	[0, 0, 0]	n/a	FR1	0	R1172E
1829.054	1.618	1988059	WORD	n/a	wordpools/wordpool_EN.txt	POOL	9	10	[0, 0, 0]	n/a	FR1	0	R1172E
1830.672	0.899	1989677	WORD_OFF	n/a	n/a	POOL	9	10	[0, 0, 0]	n/a	FR1	0	R1172E
1831.571	1.617	1990576	WORD	n/a	wordpools/wordpool_EN.txt	ROOF	10	10	[0, 0, 0]	n/a	FR1	0	R1172E
1833.188	0.833	1992193	WORD_OFF	n/a	n/a	ROOF	10	10	[0, 0, 0]	n/a	FR1	0	R1172E
1834.021	1.618	1993026	WORD	n/a	wordpools/wordpool_EN.txt	DOOR	11	10	[0, 0, 0]	n/a	FR1	0	R1172E
1835.639	0.916	1994644	WORD_OFF	n/a	n/a	DOOR	11	10	[0, 0, 0]	n/a	FR1	0	R1172E
1836.555	1.617	1995560	WORD	n/a	wordpools/wordpool_EN.txt	GATE	12	10	[0, 0, 0]	n/a	FR1	0	R1172E
1838.172	0.0	1997177	WORD_OFF	n/a	n/a	GATE	12	10	[0, 0, 0]	n/a	FR1	0	R1172E
1838.172	0.001	1997177	DISTRACT_START	n/a	n/a	n/a	-999	10	[0, 0, 0]	n/a	FR1	0	R1172E
1838.173	0.016	1997178	START	n/a	n/a	n/a	-999	10	[-999, -999, -999]	n/a	FR1	0	R1172E
1838.189	7.635	1997194	PROB	7.635	n/a	n/a	-999	10	[2, 1, 4]	7	FR1	0	R1172E
1845.824	4.7	2004829	PROB	4.7	n/a	n/a	-999	10	[4, 2, 1]	7	FR1	0	R1172E
1850.524	8.257	2009528	PROB	8.257	n/a	n/a	-999	10	[6, 1, 5]	12	FR1	0	R1172E
1858.781	0.012	2017785	STOP	n/a	n/a	n/a	-999	10	[-999, -999, -999]	n/a	FR1	0	R1172E
1858.793	0.65	2017797	DISTRACT_END	n/a	n/a	n/a	-999	10	[0, 0, 0]	n/a	FR1	0	R1172E
1859.443	0.517	2018447	RETRIEVAL_ORIENT	n/a	n/a	n/a	-999	10	[0, 0, 0]	n/a	FR1	0	R1172E
1859.96	5.688	2018964	REC_START	n/a	n/a	n/a	-999	10	[0, 0, 0]	n/a	FR1	0	R1172E
1865.648	2.601	2024652	REC_WORD	2.601	n/a	BOOT	-999	10	[0, 0, 0]	n/a	FR1	0	R1172E
1868.249	21.721	2027253	REC_WORD	21.721	n/a	MOUTH	-999	10	[0, 0, 0]	n/a	FR1	0	R1172E
1889.97	10.33	2048973	REC_END	n/a	n/a	n/a	-999	10	[0, 0, 0]	n/a	FR1	0	R1172E
1900.3	0.5	2059302	TRIAL	n/a	n/a	n/a	-999	11	[0, 0, 0]	n/a	FR1	0	R1172E
1900.8	10.428	2059802	COUNTDOWN_START	n/a	n/a	n/a	-999	11	[0, 0, 0]	n/a	FR1	0	R1172E
1911.228	0.007	2070230	COUNTDOWN_END	n/a	n/a	n/a	-999	11	[0, 0, 0]	n/a	FR1	0	R1172E
1911.235	1.601	2070237	ORIENT	n/a	n/a	n/a	-999	11	[0, 0, 0]	n/a	FR1	0	R1172E
1912.836	2.333	2071838	ORIENT_OFF	n/a	n/a	n/a	-999	11	[0, 0, 0]	n/a	FR1	0	R1172E
1915.169	1.618	2074171	WORD	n/a	wordpools/wordpool_EN.txt	INK	1	11	[0, 0, 0]	n/a	FR1	0	R1172E
1916.787	0.95	2075789	WORD_OFF	n/a	n/a	INK	1	11	[0, 0, 0]	n/a	FR1	0	R1172E
1917.737	1.616	2076739	WORD	n/a	wordpools/wordpool_EN.txt	STORE	2	11	[0, 0, 0]	n/a	FR1	0	R1172E
1919.353	0.95	2078355	WORD_OFF	n/a	n/a	STORE	2	11	[0, 0, 0]	n/a	FR1	0	R1172E
1920.303	1.617	2079305	WORD	n/a	wordpools/wordpool_EN.txt	SPONGE	3	11	[0, 0, 0]	n/a	FR1	0	R1172E
1921.92	0.818	2080921	WORD_OFF	n/a	n/a	SPONGE	3	11	[0, 0, 0]	n/a	FR1	0	R1172E
1922.738	1.616	2081739	WORD	n/a	wordpools/wordpool_EN.txt	MAIL	4	11	[0, 0, 0]	n/a	FR1	0	R1172E
1924.354	0.883	2083355	WORD_OFF	n/a	n/a	MAIL	4	11	[0, 0, 0]	n/a	FR1	0	R1172E
1925.237	1.618	2084238	WORD	n/a	wordpools/wordpool_EN.txt	SHEET	5	11	[0, 0, 0]	n/a	FR1	0	R1172E
1926.855	0.951	2085856	WORD_OFF	n/a	n/a	SHEET	5	11	[0, 0, 0]	n/a	FR1	0	R1172E
1927.806	1.615	2086807	WORD	n/a	wordpools/wordpool_EN.txt	FILM	6	11	[0, 0, 0]	n/a	FR1	0	R1172E
1929.421	0.884	2088422	WORD_OFF	n/a	n/a	FILM	6	11	[0, 0, 0]	n/a	FR1	0	R1172E
1930.305	1.617	2089306	WORD	n/a	wordpools/wordpool_EN.txt	JUICE	7	11	[0, 0, 0]	n/a	FR1	0	R1172E
1931.922	1.0	2090923	WORD_OFF	n/a	n/a	JUICE	7	11	[0, 0, 0]	n/a	FR1	0	R1172E
1932.922	1.617	2091923	WORD	n/a	wordpools/wordpool_EN.txt	FROG	8	11	[0, 0, 0]	n/a	FR1	0	R1172E
1934.539	0.984	2093540	WORD_OFF	n/a	n/a	FROG	8	11	[0, 0, 0]	n/a	FR1	0	R1172E
1935.523	1.617	2094524	WORD	n/a	wordpools/wordpool_EN.txt	PASTE	9	11	[0, 0, 0]	n/a	FR1	0	R1172E
1937.14	0.933	2096141	WORD_OFF	n/a	n/a	PASTE	9	11	[0, 0, 0]	n/a	FR1	0	R1172E
1938.073	1.618	2097074	WORD	n/a	wordpools/wordpool_EN.txt	BOARD	10	11	[0, 0, 0]	n/a	FR1	0	R1172E
1939.691	0.782	2098692	WORD_OFF	n/a	n/a	BOARD	10	11	[0, 0, 0]	n/a	FR1	0	R1172E
1940.473	1.617	2099474	WORD	n/a	wordpools/wordpool_EN.txt	EGG	11	11	[0, 0, 0]	n/a	FR1	0	R1172E
1942.09	0.768	2101091	WORD_OFF	n/a	n/a	EGG	11	11	[0, 0, 0]	n/a	FR1	0	R1172E
1942.858	1.616	2101859	WORD	n/a	wordpools/wordpool_EN.txt	CORD	12	11	[0, 0, 0]	n/a	FR1	0	R1172E
1944.474	0.0	2103475	WORD_OFF	n/a	n/a	CORD	12	11	[0, 0, 0]	n/a	FR1	0	R1172E
1944.474	0.001	2103475	DISTRACT_START	n/a	n/a	n/a	-999	11	[0, 0, 0]	n/a	FR1	0	R1172E
1944.475	0.016	2103476	START	n/a	n/a	n/a	-999	11	[-999, -999, -999]	n/a	FR1	0	R1172E
1944.491	12.819	2103492	PROB	12.819	n/a	n/a	-999	11	[9, 6, 7]	22	FR1	0	R1172E
1957.31	4.368	2116310	PROB	4.368	n/a	n/a	-999	11	[1, 4, 5]	10	FR1	0	R1172E
1961.678	3.858	2120678	PROB	3.858	n/a	n/a	-999	11	[1, 2, 7]	10	FR1	0	R1172E
1965.536	0.008	2124536	STOP	n/a	n/a	n/a	-999	11	[-999, -999, -999]	n/a	FR1	0	R1172E
1965.544	0.617	2124544	DISTRACT_END	n/a	n/a	n/a	-999	11	[0, 0, 0]	n/a	FR1	0	R1172E
1966.161	0.519	2125161	RETRIEVAL_ORIENT	n/a	n/a	n/a	-999	11	[0, 0, 0]	n/a	FR1	0	R1172E
1966.68	10.89	2125680	REC_START	n/a	n/a	n/a	-999	11	[0, 0, 0]	n/a	FR1	0	R1172E
1977.57	1.232	2136569	REC_WORD	1.232	n/a	INK	-999	11	[0, 0, 0]	n/a	FR1	0	R1172E
1978.802	11.181	2137801	REC_WORD	11.181	n/a	STORE	-999	11	[0, 0, 0]	n/a	FR1	0	R1172E
1989.983	6.708	2148982	REC_WORD	6.708	n/a	LAMB	-999	11	[0, 0, 0]	n/a	FR1	0	R1172E
1996.691	13.096	2155689	REC_END	n/a	n/a	n/a	-999	11	[0, 0, 0]	n/a	FR1	0	R1172E
2009.787	0.5	2168785	TRIAL	n/a	n/a	n/a	-999	12	[0, 0, 0]	n/a	FR1	0	R1172E
2010.287	10.428	2169285	COUNTDOWN_START	n/a	n/a	n/a	-999	12	[0, 0, 0]	n/a	FR1	0	R1172E
2020.715	0.007	2179712	COUNTDOWN_END	n/a	n/a	n/a	-999	12	[0, 0, 0]	n/a	FR1	0	R1172E
2020.722	1.616	2179719	ORIENT	n/a	n/a	n/a	-999	12	[0, 0, 0]	n/a	FR1	0	R1172E
2022.338	2.15	2181335	ORIENT_OFF	n/a	n/a	n/a	-999	12	[0, 0, 0]	n/a	FR1	0	R1172E
2024.488	1.617	2183485	WORD	n/a	wordpools/wordpool_EN.txt	BAT	1	12	[0, 0, 0]	n/a	FR1	0	R1172E
2026.105	1.017	2185102	WORD_OFF	n/a	n/a	BAT	1	12	[0, 0, 0]	n/a	FR1	0	R1172E
2027.122	1.618	2186119	WORD	n/a	wordpools/wordpool_EN.txt	HEN	2	12	[0, 0, 0]	n/a	FR1	0	R1172E
2028.74	0.95	2187737	WORD_OFF	n/a	n/a	HEN	2	12	[0, 0, 0]	n/a	FR1	0	R1172E
2029.69	1.616	2188687	WORD	n/a	wordpools/wordpool_EN.txt	ROAD	3	12	[0, 0, 0]	n/a	FR1	0	R1172E
2031.306	0.983	2190303	WORD_OFF	n/a	n/a	ROAD	3	12	[0, 0, 0]	n/a	FR1	0	R1172E
2032.289	1.602	2191286	WORD	n/a	wordpools/wordpool_EN.txt	BIRD	4	12	[0, 0, 0]	n/a	FR1	0	R1172E
2033.891	0.917	2192888	WORD_OFF	n/a	n/a	BIRD	4	12	[0, 0, 0]	n/a	FR1	0	R1172E
2034.808	1.616	2193805	WORD	n/a	wordpools/wordpool_EN.txt	WEB	5	12	[0, 0, 0]	n/a	FR1	0	R1172E
2036.424	1.0	2195421	WORD_OFF	n/a	n/a	WEB	5	12	[0, 0, 0]	n/a	FR1	0	R1172E
2037.424	1.617	2196421	WORD	n/a	wordpools/wordpool_EN.txt	GLOVE	6	12	[0, 0, 0]	n/a	FR1	0	R1172E
2039.041	0.834	2198038	WORD_OFF	n/a	n/a	GLOVE	6	12	[0, 0, 0]	n/a	FR1	0	R1172E
2039.875	1.616	2198872	WORD	n/a	wordpools/wordpool_EN.txt	MULE	7	12	[0, 0, 0]	n/a	FR1	0	R1172E
2041.491	0.817	2200487	WORD_OFF	n/a	n/a	MULE	7	12	[0, 0, 0]	n/a	FR1	0	R1172E
2042.308	1.617	2201304	WORD	n/a	wordpools/wordpool_EN.txt	PET	8	12	[0, 0, 0]	n/a	FR1	0	R1172E
2043.925	0.834	2202921	WORD_OFF	n/a	n/a	PET	8	12	[0, 0, 0]	n/a	FR1	0	R1172E
2044.759	1.616	2203755	WORD	n/a	wordpools/wordpool_EN.txt	DOG	9	12	[0, 0, 0]	n/a	FR1	0	R1172E
2046.375	0.967	2205371	WORD_OFF	n/a	n/a	DOG	9	12	[0, 0, 0]	n/a	FR1	0	R1172E
2047.342	1.617	2206338	WORD	n/a	wordpools/wordpool_EN.txt	CAT	10	12	[0, 0, 0]	n/a	FR1	0	R1172E
2048.959	0.935	2207955	WORD_OFF	n/a	n/a	CAT	10	12	[0, 0, 0]	n/a	FR1	0	R1172E
2049.894	1.616	2208890	WORD	n/a	wordpools/wordpool_EN.txt	OAR	11	12	[0, 0, 0]	n/a	FR1	0	R1172E
2051.51	0.883	2210506	WORD_OFF	n/a	n/a	OAR	11	12	[0, 0, 0]	n/a	FR1	0	R1172E
2052.393	1.617	2211389	WORD	n/a	wordpools/wordpool_EN.txt	FACE	12	12	[0, 0, 0]	n/a	FR1	0	R1172E
2054.01	0.0	2213006	WORD_OFF	n/a	n/a	FACE	12	12	[0, 0, 0]	n/a	FR1	0	R1172E
2054.01	0.001	2213006	DISTRACT_START	n/a	n/a	n/a	-999	12	[0, 0, 0]	n/a	FR1	0	R1172E
2054.011	0.016	2213007	START	n/a	n/a	n/a	-999	12	[-999, -999, -999]	n/a	FR1	0	R1172E
2054.027	16.754	2213023	PROB	16.754	n/a	n/a	-999	12	[7, 5, 8]	20	FR1	0	R1172E
2070.781	5.631	2229776	PROB	5.631	n/a	n/a	-999	12	[1, 3, 2]	6	FR1	0	R1172E
2076.412	0.019	2235407	STOP	n/a	n/a	n/a	-999	12	[-999, -999, -999]	n/a	FR1	0	R1172E
2076.431	0.65	2235426	DISTRACT_END	n/a	n/a	n/a	-999	12	[0, 0, 0]	n/a	FR1	0	R1172E
2077.081	0.517	2236076	RETRIEVAL_ORIENT	n/a	n/a	n/a	-999	12	[0, 0, 0]	n/a	FR1	0	R1172E
2077.598	2.199	2236593	REC_START	n/a	n/a	n/a	-999	12	[0, 0, 0]	n/a	FR1	0	R1172E
2079.797	1.82	2238792	REC_WORD	1.82	n/a	FACE	-999	12	[0, 0, 0]	n/a	FR1	0	R1172E
2081.617	1.457	2240612	REC_WORD	1.457	n/a	DOG	-999	12	[0, 0, 0]	n/a	FR1	0	R1172E
2083.074	1.508	2242069	REC_WORD	1.508	n/a	CAT	-999	12	[0, 0, 0]	n/a	FR1	0	R1172E
2084.582	14.427	2243577	REC_WORD	14.427	n/a	MULE	-999	12	[0, 0, 0]	n/a	FR1	0	R1172E
2099.009	8.599	2258003	REC_WORD	8.599	n/a	AURA	-999	12	[0, 0, 0]	n/a	FR1	0	R1172E
2107.608	201.63	2266602	REC_END	n/a	n/a	n/a	-999	12	[0, 0, 0]	n/a	FR1	0	R1172E
2309.238	0.5	2468223	TRIAL	n/a	n/a	n/a	-999	13	[0, 0, 0]	n/a	FR1	0	R1172E
2309.738	10.428	2468723	COUNTDOWN_START	n/a	n/a	n/a	-999	13	[0, 0, 0]	n/a	FR1	0	R1172E
2320.166	0.007	2479151	COUNTDOWN_END	n/a	n/a	n/a	-999	13	[0, 0, 0]	n/a	FR1	0	R1172E
2320.173	1.602	2479158	ORIENT	n/a	n/a	n/a	-999	13	[0, 0, 0]	n/a	FR1	0	R1172E
2321.775	2.199	2480760	ORIENT_OFF	n/a	n/a	n/a	-999	13	[0, 0, 0]	n/a	FR1	0	R1172E
2323.974	1.617	2482959	WORD	n/a	wordpools/wordpool_EN.txt	WAND	1	13	[0, 0, 0]	n/a	FR1	0	R1172E
2325.591	0.833	2484576	WORD_OFF	n/a	n/a	WAND	1	13	[0, 0, 0]	n/a	FR1	0	R1172E
2326.424	1.617	2485409	WORD	n/a	wordpools/wordpool_EN.txt	POLE	2	13	[0, 0, 0]	n/a	FR1	0	R1172E
2328.041	0.9	2487025	WORD_OFF	n/a	n/a	POLE	2	13	[0, 0, 0]	n/a	FR1	0	R1172E
2328.941	1.618	2487925	WORD	n/a	wordpools/wordpool_EN.txt	FISH	3	13	[0, 0, 0]	n/a	FR1	0	R1172E
2330.559	0.916	2489543	WORD_OFF	n/a	n/a	FISH	3	13	[0, 0, 0]	n/a	FR1	0	R1172E
2331.475	1.617	2490459	WORD	n/a	wordpools/wordpool_EN.txt	SNAIL	4	13	[0, 0, 0]	n/a	FR1	0	R1172E
2333.092	0.884	2492076	WORD_OFF	n/a	n/a	SNAIL	4	13	[0, 0, 0]	n/a	FR1	0	R1172E
2333.976	1.617	2492960	WORD	n/a	wordpools/wordpool_EN.txt	TREE	5	13	[0, 0, 0]	n/a	FR1	0	R1172E
2335.593	0.767	2494577	WORD_OFF	n/a	n/a	TREE	5	13	[0, 0, 0]	n/a	FR1	0	R1172E
2336.36	1.616	2495344	WORD	n/a	wordpools/wordpool_EN.txt	BLOOM	6	13	[0, 0, 0]	n/a	FR1	0	R1172E
2337.976	0.984	2496960	WORD_OFF	n/a	n/a	BLOOM	6	13	[0, 0, 0]	n/a	FR1	0	R1172E
2338.96	1.617	2497944	WORD	n/a	wordpools/wordpool_EN.txt	POND	7	13	[0, 0, 0]	n/a	FR1	0	R1172E
2340.577	0.967	2499561	WORD_OFF	n/a	n/a	POND	7	13	[0, 0, 0]	n/a	FR1	0	R1172E
2341.544	1.617	2500528	WORD	n/a	wordpools/wordpool_EN.txt	SHRIMP	8	13	[0, 0, 0]	n/a	FR1	0	R1172E
2343.161	0.933	2502145	WORD_OFF	n/a	n/a	SHRIMP	8	13	[0, 0, 0]	n/a	FR1	0	R1172E
2344.094	1.618	2503078	WORD	n/a	wordpools/wordpool_EN.txt	BEACH	9	13	[0, 0, 0]	n/a	FR1	0	R1172E
2345.712	0.766	2504696	WORD_OFF	n/a	n/a	BEACH	9	13	[0, 0, 0]	n/a	FR1	0	R1172E
2346.478	1.617	2505462	WORD	n/a	wordpools/wordpool_EN.txt	SHELL	10	13	[0, 0, 0]	n/a	FR1	0	R1172E
2348.095	0.933	2507079	WORD_OFF	n/a	n/a	SHELL	10	13	[0, 0, 0]	n/a	FR1	0	R1172E
2349.028	1.618	2508012	WORD	n/a	wordpools/wordpool_EN.txt	SNOW	11	13	[0, 0, 0]	n/a	FR1	0	R1172E
2350.646	0.783	2509630	WORD_OFF	n/a	n/a	SNOW	11	13	[0, 0, 0]	n/a	FR1	0	R1172E
2351.429	1.617	2510412	WORD	n/a	wordpools/wordpool_EN.txt	SALT	12	13	[0, 0, 0]	n/a	FR1	0	R1172E
2353.046	0.0	2512029	WORD_OFF	n/a	n/a	SALT	12	13	[0, 0, 0]	n/a	FR1	0	R1172E
2353.046	0.0	2512029	DISTRACT_START	n/a	n/a	n/a	-999	13	[0, 0, 0]	n/a	FR1	0	R1172E
2353.046	0.016	2512029	START	n/a	n/a	n/a	-999	13	[-999, -999, -999]	n/a	FR1	0	R1172E
2353.062	10.837	2512045	PROB	10.837	n/a	n/a	-999	13	[6, 4, 9]	19	FR1	0	R1172E
2363.899	9.001	2522882	PROB	9.001	n/a	n/a	-999	13	[7, 6, 2]	15	FR1	0	R1172E
2372.9	8.349	2531883	PROB	8.349	n/a	n/a	-999	13	[5, 7, 7]	18	FR1	0	R1172E
2381.249	0.018	2540231	STOP	n/a	n/a	n/a	-999	13	[-999, -999, -999]	n/a	FR1	0	R1172E
2381.267	0.684	2540249	DISTRACT_END	n/a	n/a	n/a	-999	13	[0, 0, 0]	n/a	FR1	0	R1172E
2381.951	0.517	2540933	RETRIEVAL_ORIENT	n/a	n/a	n/a	-999	13	[0, 0, 0]	n/a	FR1	0	R1172E
2382.468	3.024	2541450	REC_START	n/a	n/a	n/a	-999	13	[0, 0, 0]	n/a	FR1	0	R1172E
2385.492	1.029	2544474	REC_WORD	1.029	n/a	BEACH	-999	13	[0, 0, 0]	n/a	FR1	0	R1172E
2386.521	1.101	2545503	REC_WORD	1.101	n/a	SHELL	-999	13	[0, 0, 0]	n/a	FR1	0	R1172E
2387.622	1.255	2546604	REC_WORD	1.255	n/a	FISH	-999	13	[0, 0, 0]	n/a	FR1	0	R1172E
2388.877	1.313	2547859	REC_WORD	1.313	n/a	SALT	-999	13	[0, 0, 0]	n/a	FR1	0	R1172E
2390.19	2.2	2549172	REC_WORD	2.2	n/a	SNOW	-999	13	[0, 0, 0]	n/a	FR1	0	R1172E
2392.39	20.089	2551372	REC_WORD	20.089	n/a	SNAIL	-999	13	[0, 0, 0]	n/a	FR1	0	R1172E
2412.479	1520.802	2571460	REC_END	n/a	n/a	n/a	-999	13	[0, 0, 0]	n/a	FR1	0	R1172E
3933.281	0.0	14874	INSTRUCT_START	n/a	n/a	n/a	-999	13	[0, 0, 0]	n/a	FR1	0	R1172E
3933.281	11.277	14874	INSTRUCT_END	n/a	n/a	n/a	-999	13	[0, 0, 0]	n/a	FR1	0	R1172E
3944.558	0.0	26150	SESS_START	n/a	n/a	n/a	-999	13	[0, 0, 0]	n/a	FR1	0	R1172E
3944.558	285.409	26150	MIC_TEST	n/a	n/a	n/a	-999	13	[0, 0, 0]	n/a	FR1	0	R1172E
4229.967	823.31	311533	TRIAL	n/a	n/a	n/a	-999	14	[0, 0, 0]	n/a	FR1	0	R1172E
5053.277	0.0	20498	INSTRUCT_START	n/a	n/a	n/a	-999	14	[0, 0, 0]	n/a	FR1	0	R1172E
5053.277	11.07	20498	INSTRUCT_END	n/a	n/a	n/a	-999	14	[0, 0, 0]	n/a	FR1	0	R1172E
5064.347	0.0	31567	SESS_START	n/a	n/a	n/a	-999	14	[0, 0, 0]	n/a	FR1	0	R1172E
5064.347	53.343	31567	MIC_TEST	n/a	n/a	n/a	-999	14	[0, 0, 0]	n/a	FR1	0	R1172E
5117.69	0.5	84908	TRIAL	n/a	n/a	n/a	-999	14	[0, 0, 0]	n/a	FR1	0	R1172E
5118.19	10.428	85408	COUNTDOWN_START	n/a	n/a	n/a	-999	14	[0, 0, 0]	n/a	FR1	0	R1172E
5128.618	0.006	95836	COUNTDOWN_END	n/a	n/a	n/a	-999	14	[0, 0, 0]	n/a	FR1	0	R1172E
5128.624	1.617	95842	ORIENT	n/a	n/a	n/a	-999	14	[0, 0, 0]	n/a	FR1	0	R1172E
5130.241	2.1	97459	ORIENT_OFF	n/a	n/a	n/a	-999	14	[0, 0, 0]	n/a	FR1	0	R1172E
5132.341	1.618	99559	WORD	n/a	wordpools/wordpool_EN.txt	MOTH	1	14	[0, 0, 0]	n/a	FR1	0	R1172E
5133.959	0.85	101177	WORD_OFF	n/a	n/a	MOTH	1	14	[0, 0, 0]	n/a	FR1	0	R1172E
5134.809	1.616	102027	WORD	n/a	wordpools/wordpool_EN.txt	TIE	2	14	[0, 0, 0]	n/a	FR1	0	R1172E
5136.425	0.867	103642	WORD_OFF	n/a	n/a	TIE	2	14	[0, 0, 0]	n/a	FR1	0	R1172E
5137.292	1.618	104509	WORD	n/a	wordpools/wordpool_EN.txt	MUG	3	14	[0, 0, 0]	n/a	FR1	0	R1172E
5138.91	0.95	106127	WORD_OFF	n/a	n/a	MUG	3	14	[0, 0, 0]	n/a	FR1	0	R1172E
5139.86	1.616	107077	WORD	n/a	wordpools/wordpool_EN.txt	BEE	4	14	[0, 0, 0]	n/a	FR1	0	R1172E
5141.476	0.817	108693	WORD_OFF	n/a	n/a	BEE	4	14	[0, 0, 0]	n/a	FR1	0	R1172E
5142.293	1.618	109510	WORD	n/a	wordpools/wordpool_EN.txt	GRAPE	5	14	[0, 0, 0]	n/a	FR1	0	R1172E
5143.911	0.933	111128	WORD_OFF	n/a	n/a	GRAPE	5	14	[0, 0, 0]	n/a	FR1	0	R1172E
5144.844	1.616	112061	WORD	n/a	wordpools/wordpool_EN.txt	CAVE	6	14	[0, 0, 0]	n/a	FR1	0	R1172E
5146.46	0.784	113677	WORD_OFF	n/a	n/a	CAVE	6	14	[0, 0, 0]	n/a	FR1	0	R1172E
5147.244	1.618	114461	WORD	n/a	wordpools/wordpool_EN.txt	JAR	7	14	[0, 0, 0]	n/a	FR1	0	R1172E
5148.862	0.867	116079	WORD_OFF	n/a	n/a	JAR	7	14	[0, 0, 0]	n/a	FR1	0	R1172E
5149.729	1.616	116946	WORD	n/a	wordpools/wordpool_EN.txt	PIE	8	14	[0, 0, 0]	n/a	FR1	0	R1172E
5151.345	0.95	118562	WORD_OFF	n/a	n/a	PIE	8	14	[0, 0, 0]	n/a	FR1	0	R1172E
5152.295	1.618	119512	WORD	n/a	wordpools/wordpool_EN.txt	ARK	9	14	[0, 0, 0]	n/a	FR1	0	R1172E
5153.913	0.799	121130	WORD_OFF	n/a	n/a	ARK	9	14	[0, 0, 0]	n/a	FR1	0	R1172E
5154.712	1.617	121929	WORD	n/a	wordpools/wordpool_EN.txt	NAIL	10	14	[0, 0, 0]	n/a	FR1	0	R1172E
5156.329	0.917	123546	WORD_OFF	n/a	n/a	NAIL	10	14	[0, 0, 0]	n/a	FR1	0	R1172E
5157.246	1.618	124463	WORD	n/a	wordpools/wordpool_EN.txt	PIPE	11	14	[0, 0, 0]	n/a	FR1	0	R1172E
5158.864	1.016	126081	WORD_OFF	n/a	n/a	PIPE	11	14	[0, 0, 0]	n/a	FR1	0	R1172E
5159.88	1.616	127097	WORD	n/a	wordpools/wordpool_EN.txt	CHIN	12	14	[0, 0, 0]	n/a	FR1	0	R1172E
5161.496	0.0	128712	WORD_OFF	n/a	n/a	CHIN	12	14	[0, 0, 0]	n/a	FR1	0	R1172E
5161.496	0.001	128712	DISTRACT_START	n/a	n/a	n/a	-999	14	[0, 0, 0]	n/a	FR1	0	R1172E
5161.497	0.016	128713	START	n/a	n/a	n/a	-999	14	[-999, -999, -999]	n/a	FR1	0	R1172E
5161.513	9.269	128729	PROB	9.269	n/a	n/a	-999	14	[1, 8, 5]	14	FR1	0	R1172E
5170.782	18.761	137998	PROB	18.761	n/a	n/a	-999	14	[5, 6, 8]	19	FR1	0	R1172E
5189.543	0.008	156758	STOP	n/a	n/a	n/a	-999	14	[-999, -999, -999]	n/a	FR1	0	R1172E
5189.551	0.65	156766	DISTRACT_END	n/a	n/a	n/a	-999	14	[0, 0, 0]	n/a	FR1	0	R1172E
5190.201	0.524	157416	RETRIEVAL_ORIENT	n/a	n/a	n/a	-999	14	[0, 0, 0]	n/a	FR1	0	R1172E
5190.725	1.276	157940	REC_START	n/a	n/a	n/a	-999	14	[0, 0, 0]	n/a	FR1	0	R1172E
5192.001	1.963	159216	REC_WORD	1.963	n/a	MOTH	-999	14	[0, 0, 0]	n/a	FR1	0	R1172E
5193.964	6.052	161179	REC_WORD	6.052	n/a	BEE	-999	14	[0, 0, 0]	n/a	FR1	0	R1172E
5200.016	8.304	167231	REC_WORD	8.304	n/a	PIE	-999	14	[0, 0, 0]	n/a	FR1	0	R1172E
5208.32	12.411	175535	REC_WORD	12.411	n/a	TIE	-999	14	[0, 0, 0]	n/a	FR1	0	R1172E
5220.731	24.38	187945	REC_END	n/a	n/a	n/a	-999	14	[0, 0, 0]	n/a	FR1	0	R1172E
5245.111	0.5	212324	TRIAL	n/a	n/a	n/a	-999	15	[0, 0, 0]	n/a	FR1	0	R1172E
5245.611	10.428	212824	COUNTDOWN_START	n/a	n/a	n/a	-999	15	[0, 0, 0]	n/a	FR1	0	R1172E
5256.039	0.008	223252	COUNTDOWN_END	n/a	n/a	n/a	-999	15	[0, 0, 0]	n/a	FR1	0	R1172E
5256.047	1.617	223260	ORIENT	n/a	n/a	n/a	-999	15	[0, 0, 0]	n/a	FR1	0	R1172E
5257.664	2.101	224877	ORIENT_OFF	n/a	n/a	n/a	-999	15	[0, 0, 0]	n/a	FR1	0	R1172E
5259.765	1.616	226977	WORD	n/a	wordpools/wordpool_EN.txt	MOUSE	1	15	[0, 0, 0]	n/a	FR1	0	R1172E
5261.381	0.933	228593	WORD_OFF	n/a	n/a	MOUSE	1	15	[0, 0, 0]	n/a	FR1	0	R1172E
5262.314	1.601	229526	WORD	n/a	wordpools/wordpool_EN.txt	WAVE	2	15	[0, 0, 0]	n/a	FR1	0	R1172E
5263.915	1.0	231127	WORD_OFF	n/a	n/a	WAVE	2	15	[0, 0, 0]	n/a	FR1	0	R1172E
5264.915	1.616	232127	WORD	n/a	wordpools/wordpool_EN.txt	SHEEP	3	15	[0, 0, 0]	n/a	FR1	0	R1172E
5266.531	0.934	233743	WORD_OFF	n/a	n/a	SHEEP	3	15	[0, 0, 0]	n/a	FR1	0	R1172E
5267.465	1.617	234677	WORD	n/a	wordpools/wordpool_EN.txt	TRASH	4	15	[0, 0, 0]	n/a	FR1	0	R1172E
5269.082	0.784	236294	WORD_OFF	n/a	n/a	TRASH	4	15	[0, 0, 0]	n/a	FR1	0	R1172E
5269.866	1.616	237078	WORD	n/a	wordpools/wordpool_EN.txt	BOOK	5	15	[0, 0, 0]	n/a	FR1	0	R1172E
5271.482	0.884	238694	WORD_OFF	n/a	n/a	BOOK	5	15	[0, 0, 0]	n/a	FR1	0	R1172E
5272.366	1.618	239578	WORD	n/a	wordpools/wordpool_EN.txt	BOMB	6	15	[0, 0, 0]	n/a	FR1	0	R1172E
5273.984	0.933	241196	WORD_OFF	n/a	n/a	BOMB	6	15	[0, 0, 0]	n/a	FR1	0	R1172E
5274.917	1.616	242129	WORD	n/a	wordpools/wordpool_EN.txt	FORT	7	15	[0, 0, 0]	n/a	FR1	0	R1172E
5276.533	0.834	243745	WORD_OFF	n/a	n/a	FORT	7	15	[0, 0, 0]	n/a	FR1	0	R1172E
5277.367	1.618	244579	WORD	n/a	wordpools/wordpool_EN.txt	MOON	8	15	[0, 0, 0]	n/a	FR1	0	R1172E
5278.985	0.816	246197	WORD_OFF	n/a	n/a	MOON	8	15	[0, 0, 0]	n/a	FR1	0	R1172E
5279.801	1.616	247013	WORD	n/a	wordpools/wordpool_EN.txt	GOLD	9	15	[0, 0, 0]	n/a	FR1	0	R1172E
5281.417	0.967	248629	WORD_OFF	n/a	n/a	GOLD	9	15	[0, 0, 0]	n/a	FR1	0	R1172E
5282.384	1.618	249595	WORD	n/a	wordpools/wordpool_EN.txt	TRAIN	10	15	[0, 0, 0]	n/a	FR1	0	R1172E
5284.002	0.95	251213	WORD_OFF	n/a	n/a	TRAIN	10	15	[0, 0, 0]	n/a	FR1	0	R1172E
5284.952	1.616	252163	WORD	n/a	wordpools/wordpool_EN.txt	APE	11	15	[0, 0, 0]	n/a	FR1	0	R1172E
5286.568	0.933	253779	WORD_OFF	n/a	n/a	APE	11	15	[0, 0, 0]	n/a	FR1	0	R1172E
5287.501	1.618	254712	WORD	n/a	wordpools/wordpool_EN.txt	BANK	12	15	[0, 0, 0]	n/a	FR1	0	R1172E
5289.119	0.0	256330	WORD_OFF	n/a	n/a	BANK	12	15	[0, 0, 0]	n/a	FR1	0	R1172E
5289.119	0.001	256330	DISTRACT_START	n/a	n/a	n/a	-999	15	[0, 0, 0]	n/a	FR1	0	R1172E
5289.12	0.032	256331	START	n/a	n/a	n/a	-999	15	[-999, -999, -999]	n/a	FR1	0	R1172E
5289.152	9.118	256363	PROB	9.118	n/a	n/a	-999	15	[9, 3, 7]	19	FR1	0	R1172E
5298.27	6.218	265481	PROB	6.218	n/a	n/a	-999	15	[1, 9, 3]	13	FR1	0	R1172E
5304.488	16.716	271699	PROB	16.716	n/a	n/a	-999	15	[8, 3, 3]	14	FR1	0	R1172E
5321.204	0.02	288414	STOP	n/a	n/a	n/a	-999	15	[-999, -999, -999]	n/a	FR1	0	R1172E
5321.224	0.685	288434	DISTRACT_END	n/a	n/a	n/a	-999	15	[0, 0, 0]	n/a	FR1	0	R1172E
5321.909	0.517	289119	RETRIEVAL_ORIENT	n/a	n/a	n/a	-999	15	[0, 0, 0]	n/a	FR1	0	R1172E
5322.426	12.641	289636	REC_START	n/a	n/a	n/a	-999	15	[0, 0, 0]	n/a	FR1	0	R1172E
5335.067	1.73	302276	REC_WORD	1.73	n/a	MOUTH	-999	15	[0, 0, 0]	n/a	FR1	0	R1172E
5336.797	8.437	304006	REC_WORD	8.437	n/a	MOUSE	-999	15	[0, 0, 0]	n/a	FR1	0	R1172E
5345.234	4.805	312443	REC_WORD_VV	4.805	n/a	<>	-999	15	[0, 0, 0]	n/a	FR1	0	R1172E
5350.039	2.411	317248	REC_WORD	2.411	n/a	TENT	-999	15	[0, 0, 0]	n/a	FR1	0	R1172E
5352.45	23.917	319659	REC_END	n/a	n/a	n/a	-999	15	[0, 0, 0]	n/a	FR1	0	R1172E
5376.367	0.5	343575	TRIAL	n/a	n/a	n/a	-999	16	[0, 0, 0]	n/a	FR1	0	R1172E
5376.867	10.428	344075	COUNTDOWN_START	n/a	n/a	n/a	-999	16	[0, 0, 0]	n/a	FR1	0	R1172E
5387.295	0.007	354502	COUNTDOWN_END	n/a	n/a	n/a	-999	16	[0, 0, 0]	n/a	FR1	0	R1172E
5387.302	1.618	354509	ORIENT	n/a	n/a	n/a	-999	16	[0, 0, 0]	n/a	FR1	0	R1172E
5388.92	2.101	356127	ORIENT_OFF	n/a	n/a	n/a	-999	16	[0, 0, 0]	n/a	FR1	0	R1172E
5391.021	1.616	358228	WORD	n/a	wordpools/wordpool_EN.txt	KITE	1	16	[0, 0, 0]	n/a	FR1	0	R1172E
5392.637	1.0	359844	WORD_OFF	n/a	n/a	KITE	1	16	[0, 0, 0]	n/a	FR1	0	R1172E
5393.637	1.617	360844	WORD	n/a	wordpools/wordpool_EN.txt	PLATE	2	16	[0, 0, 0]	n/a	FR1	0	R1172E
5395.254	0.818	362461	WORD_OFF	n/a	n/a	PLATE	2	16	[0, 0, 0]	n/a	FR1	0	R1172E
5396.072	1.617	363279	WORD	n/a	wordpools/wordpool_EN.txt	BOX	3	16	[0, 0, 0]	n/a	FR1	0	R1172E
5397.689	0.983	364896	WORD_OFF	n/a	n/a	BOX	3	16	[0, 0, 0]	n/a	FR1	0	R1172E
5398.672	1.616	365879	WORD	n/a	wordpools/wordpool_EN.txt	SHOE	4	16	[0, 0, 0]	n/a	FR1	0	R1172E
5400.288	0.867	367495	WORD_OFF	n/a	n/a	SHOE	4	16	[0, 0, 0]	n/a	FR1	0	R1172E
5401.155	1.618	368362	WORD	n/a	wordpools/wordpool_EN.txt	BOWL	5	16	[0, 0, 0]	n/a	FR1	0	R1172E
5402.773	0.782	369980	WORD_OFF	n/a	n/a	BOWL	5	16	[0, 0, 0]	n/a	FR1	0	R1172E
5403.555	1.617	370762	WORD	n/a	wordpools/wordpool_EN.txt	DIME	6	16	[0, 0, 0]	n/a	FR1	0	R1172E
5405.172	0.967	372378	WORD_OFF	n/a	n/a	DIME	6	16	[0, 0, 0]	n/a	FR1	0	R1172E
5406.139	1.618	373345	WORD	n/a	wordpools/wordpool_EN.txt	RUG	7	16	[0, 0, 0]	n/a	FR1	0	R1172E
5407.757	0.799	374963	WORD_OFF	n/a	n/a	RUG	7	16	[0, 0, 0]	n/a	FR1	0	R1172E
5408.556	1.617	375762	WORD	n/a	wordpools/wordpool_EN.txt	CAKE	8	16	[0, 0, 0]	n/a	FR1	0	R1172E
5410.173	0.768	377379	WORD_OFF	n/a	n/a	CAKE	8	16	[0, 0, 0]	n/a	FR1	0	R1172E
5410.941	1.616	378147	WORD	n/a	wordpools/wordpool_EN.txt	DRESS	9	16	[0, 0, 0]	n/a	FR1	0	R1172E
5412.557	0.983	379763	WORD_OFF	n/a	n/a	DRESS	9	16	[0, 0, 0]	n/a	FR1	0	R1172E
5413.54	1.617	380746	WORD	n/a	wordpools/wordpool_EN.txt	FAN	10	16	[0, 0, 0]	n/a	FR1	0	R1172E
5415.157	1.001	382363	WORD_OFF	n/a	n/a	FAN	10	16	[0, 0, 0]	n/a	FR1	0	R1172E
5416.158	1.618	383364	WORD	n/a	wordpools/wordpool_EN.txt	CLOWN	11	16	[0, 0, 0]	n/a	FR1	0	R1172E
5417.776	0.815	384982	WORD_OFF	n/a	n/a	CLOWN	11	16	[0, 0, 0]	n/a	FR1	0	R1172E
5418.591	1.617	385797	WORD	n/a	wordpools/wordpool_EN.txt	PIN	12	16	[0, 0, 0]	n/a	FR1	0	R1172E
5420.208	0.0	387414	WORD_OFF	n/a	n/a	PIN	12	16	[0, 0, 0]	n/a	FR1	0	R1172E
5420.208	0.002	387414	DISTRACT_START	n/a	n/a	n/a	-999	16	[0, 0, 0]	n/a	FR1	0	R1172E
5420.21	0.032	387416	START	n/a	n/a	n/a	-999	16	[-999, -999, -999]	n/a	FR1	0	R1172E
5420.242	9.151	387448	PROB	9.151	n/a	n/a	-999	16	[4, 9, 2]	15	FR1	0	R1172E
5429.393	3.252	396598	PROB	3.252	n/a	n/a	-999	16	[9, 1, 1]	11	FR1	0	R1172E
5432.645	5.301	399850	PROB	5.301	n/a	n/a	-999	16	[7, 7, 1]	15	FR1	0	R1172E
5437.946	11.494	405151	PROB	11.494	n/a	n/a	-999	16	[7, 8, 4]	19	FR1	0	R1172E
5449.44	0.023	416645	STOP	n/a	n/a	n/a	-999	16	[-999, -999, -999]	n/a	FR1	0	R1172E
5449.463	0.617	416668	DISTRACT_END	n/a	n/a	n/a	-999	16	[0, 0, 0]	n/a	FR1	0	R1172E
5450.08	0.518	417285	RETRIEVAL_ORIENT	n/a	n/a	n/a	-999	16	[0, 0, 0]	n/a	FR1	0	R1172E
5450.598	1.951	417803	REC_START	n/a	n/a	n/a	-999	16	[0, 0, 0]	n/a	FR1	0	R1172E
5452.549	5.431	419754	REC_WORD	5.431	n/a	PIN	-999	16	[0, 0, 0]	n/a	FR1	0	R1172E
5457.98	5.607	425184	REC_WORD	5.607	n/a	DRESS	-999	16	[0, 0, 0]	n/a	FR1	0	R1172E
5463.587	17.034	430791	REC_WORD	17.034	n/a	BOWL	-999	16	[0, 0, 0]	n/a	FR1	0	R1172E
5480.621	7.532	447824	REC_END	n/a	n/a	n/a	-999	16	[0, 0, 0]	n/a	FR1	0	R1172E
5488.153	0.5	455356	TRIAL	n/a	n/a	n/a	-999	17	[0, 0, 0]	n/a	FR1	0	R1172E
5488.653	10.428	455856	COUNTDOWN_START	n/a	n/a	n/a	-999	17	[0, 0, 0]	n/a	FR1	0	R1172E
5499.081	0.007	466284	COUNTDOWN_END	n/a	n/a	n/a	-999	17	[0, 0, 0]	n/a	FR1	0	R1172E
5499.088	1.619	466291	ORIENT	n/a	n/a	n/a	-999	17	[0, 0, 0]	n/a	FR1	0	R1172E
5500.707	2.183	467910	ORIENT_OFF	n/a	n/a	n/a	-999	17	[0, 0, 0]	n/a	FR1	0	R1172E
5502.89	1.616	470092	WORD	n/a	wordpools/wordpool_EN.txt	HOSE	1	17	[0, 0, 0]	n/a	FR1	0	R1172E
5504.506	0.784	471708	WORD_OFF	n/a	n/a	HOSE	1	17	[0, 0, 0]	n/a	FR1	0	R1172E
5505.29	1.618	472492	WORD	n/a	wordpools/wordpool_EN.txt	CLAY	2	17	[0, 0, 0]	n/a	FR1	0	R1172E
5506.908	0.767	474110	WORD_OFF	n/a	n/a	CLAY	2	17	[0, 0, 0]	n/a	FR1	0	R1172E
5507.675	1.616	474877	WORD	n/a	wordpools/wordpool_EN.txt	CLOTH	3	17	[0, 0, 0]	n/a	FR1	0	R1172E
5509.291	0.966	476493	WORD_OFF	n/a	n/a	CLOTH	3	17	[0, 0, 0]	n/a	FR1	0	R1172E
5510.257	1.618	477459	WORD	n/a	wordpools/wordpool_EN.txt	SEED	4	17	[0, 0, 0]	n/a	FR1	0	R1172E
5511.875	0.984	479077	WORD_OFF	n/a	n/a	SEED	4	17	[0, 0, 0]	n/a	FR1	0	R1172E
5512.859	1.616	480061	WORD	n/a	wordpools/wordpool_EN.txt	RICE	5	17	[0, 0, 0]	n/a	FR1	0	R1172E
5514.475	0.85	481677	WORD_OFF	n/a	n/a	RICE	5	17	[0, 0, 0]	n/a	FR1	0	R1172E
5515.325	1.618	482527	WORD	n/a	wordpools/wordpool_EN.txt	SOAP	6	17	[0, 0, 0]	n/a	FR1	0	R1172E
5516.943	0.917	484145	WORD_OFF	n/a	n/a	SOAP	6	17	[0, 0, 0]	n/a	FR1	0	R1172E
5517.86	1.616	485062	WORD	n/a	wordpools/wordpool_EN.txt	FRUIT	7	17	[0, 0, 0]	n/a	FR1	0	R1172E
5519.476	0.883	486678	WORD_OFF	n/a	n/a	FRUIT	7	17	[0, 0, 0]	n/a	FR1	0	R1172E
5520.359	1.618	487561	WORD	n/a	wordpools/wordpool_EN.txt	WOOD	8	17	[0, 0, 0]	n/a	FR1	0	R1172E
5521.977	0.934	489179	WORD_OFF	n/a	n/a	WOOD	8	17	[0, 0, 0]	n/a	FR1	0	R1172E
5522.911	1.615	490113	WORD	n/a	wordpools/wordpool_EN.txt	ROCK	9	17	[0, 0, 0]	n/a	FR1	0	R1172E
5524.526	0.767	491728	WORD_OFF	n/a	n/a	ROCK	9	17	[0, 0, 0]	n/a	FR1	0	R1172E
5525.293	1.618	492495	WORD	n/a	wordpools/wordpool_EN.txt	TANK	10	17	[0, 0, 0]	n/a	FR1	0	R1172E
5526.911	0.834	494112	WORD_OFF	n/a	n/a	TANK	10	17	[0, 0, 0]	n/a	FR1	0	R1172E
5527.745	1.616	494946	WORD	n/a	wordpools/wordpool_EN.txt	BRICK	11	17	[0, 0, 0]	n/a	FR1	0	R1172E
5529.361	0.917	496562	WORD_OFF	n/a	n/a	BRICK	11	17	[0, 0, 0]	n/a	FR1	0	R1172E
5530.278	1.617	497479	WORD	n/a	wordpools/wordpool_EN.txt	WORLD	12	17	[0, 0, 0]	n/a	FR1	0	R1172E
5531.895	0.0	499096	WORD_OFF	n/a	n/a	WORLD	12	17	[0, 0, 0]	n/a	FR1	0	R1172E
5531.895	0.002	499096	DISTRACT_START	n/a	n/a	n/a	-999	17	[0, 0, 0]	n/a	FR1	0	R1172E
5531.897	0.032	499098	START	n/a	n/a	n/a	-999	17	[-999, -999, -999]	n/a	FR1	0	R1172E
5531.929	5.533	499130	PROB	5.533	n/a	n/a	-999	17	[6, 1, 7]	14	FR1	0	R1172E
5537.462	6.685	504663	PROB	6.685	n/a	n/a	-999	17	[9, 3, 1]	13	FR1	0	R1172E
5544.147	7.791	511348	PROB	7.791	n/a	n/a	-999	17	[7, 7, 2]	16	FR1	0	R1172E
5551.938	0.011	519138	STOP	n/a	n/a	n/a	-999	17	[-999, -999, -999]	n/a	FR1	0	R1172E
5551.949	0.532	519149	DISTRACT_END	n/a	n/a	n/a	-999	17	[0, 0, 0]	n/a	FR1	0	R1172E
5552.481	0.52	519681	RETRIEVAL_ORIENT	n/a	n/a	n/a	-999	17	[0, 0, 0]	n/a	FR1	0	R1172E
5553.001	3.2	520201	REC_START	n/a	n/a	n/a	-999	17	[0, 0, 0]	n/a	FR1	0	R1172E
5556.201	1.571	523401	REC_WORD	1.571	n/a	WORLD	-999	17	[0, 0, 0]	n/a	FR1	0	R1172E
5557.772	7.591	524972	REC_WORD	7.591	n/a	WOOD	-999	17	[0, 0, 0]	n/a	FR1	0	R1172E
5565.363	17.659	532563	REC_WORD	17.659	n/a	MOTH	-999	17	[0, 0, 0]	n/a	FR1	0	R1172E
5583.022	10.1	550221	REC_END	n/a	n/a	n/a	-999	17	[0, 0, 0]	n/a	FR1	0	R1172E
5593.122	0.5	560321	TRIAL	n/a	n/a	n/a	-999	18	[0, 0, 0]	n/a	FR1	0	R1172E
5593.622	10.428	560821	COUNTDOWN_START	n/a	n/a	n/a	-999	18	[0, 0, 0]	n/a	FR1	0	R1172E
5604.05	0.008	571248	COUNTDOWN_END	n/a	n/a	n/a	-999	18	[0, 0, 0]	n/a	FR1	0	R1172E
5604.058	1.617	571256	ORIENT	n/a	n/a	n/a	-999	18	[0, 0, 0]	n/a	FR1	0	R1172E
5605.675	2.017	572873	ORIENT_OFF	n/a	n/a	n/a	-999	18	[0, 0, 0]	n/a	FR1	0	R1172E
5607.692	1.616	574890	WORD	n/a	wordpools/wordpool_EN.txt	COIN	1	18	[0, 0, 0]	n/a	FR1	0	R1172E
5609.308	0.834	576506	WORD_OFF	n/a	n/a	COIN	1	18	[0, 0, 0]	n/a	FR1	0	R1172E
5610.142	1.617	577340	WORD	n/a	wordpools/wordpool_EN.txt	DRUM	2	18	[0, 0, 0]	n/a	FR1	0	R1172E
5611.759	0.816	578957	WORD_OFF	n/a	n/a	DRUM	2	18	[0, 0, 0]	n/a	FR1	0	R1172E
5612.575	1.617	579773	WORD	n/a	wordpools/wordpool_EN.txt	GLASS	3	18	[0, 0, 0]	n/a	FR1	0	R1172E
5614.192	0.768	581390	WORD_OFF	n/a	n/a	GLASS	3	18	[0, 0, 0]	n/a	FR1	0	R1172E
5614.96	1.616	582158	WORD	n/a	wordpools/wordpool_EN.txt	CHIEF	4	18	[0, 0, 0]	n/a	FR1	0	R1172E
5616.576	0.783	583774	WORD_OFF	n/a	n/a	CHIEF	4	18	[0, 0, 0]	n/a	FR1	0	R1172E
5617.359	1.618	584557	WORD	n/a	wordpools/wordpool_EN.txt	STREET	5	18	[0, 0, 0]	n/a	FR1	0	R1172E
5618.977	0.817	586175	WORD_OFF	n/a	n/a	STREET	5	18	[0, 0, 0]	n/a	FR1	0	R1172E
5619.794	1.616	586992	WORD	n/a	wordpools/wordpool_EN.txt	FLEA	6	18	[0, 0, 0]	n/a	FR1	0	R1172E
5621.41	0.95	588608	WORD_OFF	n/a	n/a	FLEA	6	18	[0, 0, 0]	n/a	FR1	0	R1172E
5622.36	1.601	589558	WORD	n/a	wordpools/wordpool_EN.txt	VAN	7	18	[0, 0, 0]	n/a	FR1	0	R1172E
5623.961	0.917	591158	WORD_OFF	n/a	n/a	VAN	7	18	[0, 0, 0]	n/a	FR1	0	R1172E
5624.878	1.616	592075	WORD	n/a	wordpools/wordpool_EN.txt	FOG	8	18	[0, 0, 0]	n/a	FR1	0	R1172E
5626.494	0.884	593691	WORD_OFF	n/a	n/a	FOG	8	18	[0, 0, 0]	n/a	FR1	0	R1172E
5627.378	1.618	594575	WORD	n/a	wordpools/wordpool_EN.txt	CASH	9	18	[0, 0, 0]	n/a	FR1	0	R1172E
5628.996	0.916	596193	WORD_OFF	n/a	n/a	CASH	9	18	[0, 0, 0]	n/a	FR1	0	R1172E
5629.912	1.617	597109	WORD	n/a	wordpools/wordpool_EN.txt	SCHOOL	10	18	[0, 0, 0]	n/a	FR1	0	R1172E
5631.529	0.816	598726	WORD_OFF	n/a	n/a	SCHOOL	10	18	[0, 0, 0]	n/a	FR1	0	R1172E
5632.345	1.618	599542	WORD	n/a	wordpools/wordpool_EN.txt	BOY	11	18	[0, 0, 0]	n/a	FR1	0	R1172E
5633.963	0.95	601160	WORD_OFF	n/a	n/a	BOY	11	18	[0, 0, 0]	n/a	FR1	0	R1172E
5634.913	1.616	602110	WORD	n/a	wordpools/wordpool_EN.txt	WEED	12	18	[0, 0, 0]	n/a	FR1	0	R1172E
5636.529	0.0	603726	WORD_OFF	n/a	n/a	WEED	12	18	[0, 0, 0]	n/a	FR1	0	R1172E
5636.529	0.003	603726	DISTRACT_START	n/a	n/a	n/a	-999	18	[0, 0, 0]	n/a	FR1	0	R1172E
5636.532	0.031	603729	START	n/a	n/a	n/a	-999	18	[-999, -999, -999]	n/a	FR1	0	R1172E
5636.563	17.836	603760	PROB	17.836	n/a	n/a	-999	18	[6, 9, 2]	18	FR1	0	R1172E
5654.399	10.305	621595	PROB	10.305	n/a	n/a	-999	18	[4, 2, 8]	14	FR1	0	R1172E
5664.704	0.015	631900	STOP	n/a	n/a	n/a	-999	18	[-999, -999, -999]	n/a	FR1	0	R1172E
5664.719	0.682	631915	DISTRACT_END	n/a	n/a	n/a	-999	18	[0, 0, 0]	n/a	FR1	0	R1172E
5665.401	0.519	632597	RETRIEVAL_ORIENT	n/a	n/a	n/a	-999	18	[0, 0, 0]	n/a	FR1	0	R1172E
5665.92	4.006	633116	REC_START	n/a	n/a	n/a	-999	18	[0, 0, 0]	n/a	FR1	0	R1172E
5669.926	3.492	637122	REC_WORD	3.492	n/a	COIN	-999	18	[0, 0, 0]	n/a	FR1	0	R1172E
5673.418	1.428	640613	REC_WORD	1.428	n/a	MONEY	-999	18	[0, 0, 0]	n/a	FR1	0	R1172E
5674.846	1.144	642041	REC_WORD	1.144	n/a	WORLD	-999	18	[0, 0, 0]	n/a	FR1	0	R1172E
5675.99	9.376	643185	REC_WORD	9.376	n/a	SCHOOL	-999	18	[0, 0, 0]	n/a	FR1	0	R1172E
5685.366	9.156	652561	REC_WORD	9.156	n/a	TASK	-999	18	[0, 0, 0]	n/a	FR1	0	R1172E
5694.522	1.423	661717	REC_WORD	1.423	n/a	TRAIN	-999	18	[0, 0, 0]	n/a	FR1	0	R1172E
5695.945	219.98	663140	REC_END	n/a	n/a	n/a	-999	18	[0, 0, 0]	n/a	FR1	0	R1172E
5915.925	0.0	17426	INSTRUCT_END	n/a	n/a	n/a	-999	18	[0, 0, 0]	n/a	FR1	0	R1172E
5915.925	10.894	17426	INSTRUCT_START	n/a	n/a	n/a	-999	18	[0, 0, 0]	n/a	FR1	0	R1172E
5926.819	0.0	28320	SESS_START	n/a	n/a	n/a	-999	18	[0, 0, 0]	n/a	FR1	0	R1172E
5926.819	20.495	28320	MIC_TEST	n/a	n/a	n/a	-999	18	[0, 0, 0]	n/a	FR1	0	R1172E
5947.314	0.5	48814	TRIAL	n/a	n/a	n/a	-999	19	[0, 0, 0]	n/a	FR1	0	R1172E
5947.814	10.428	49314	COUNTDOWN_START	n/a	n/a	n/a	-999	19	[0, 0, 0]	n/a	FR1	0	R1172E
5958.242	0.007	59741	COUNTDOWN_END	n/a	n/a	n/a	-999	19	[0, 0, 0]	n/a	FR1	0	R1172E
5958.249	1.617	59748	ORIENT	n/a	n/a	n/a	-999	19	[0, 0, 0]	n/a	FR1	0	R1172E
5959.866	1.967	61365	ORIENT_OFF	n/a	n/a	n/a	-999	19	[0, 0, 0]	n/a	FR1	0	R1172E
5961.833	1.617	63332	WORD	n/a	wordpools/wordpool_EN.txt	JET	1	19	[0, 0, 0]	n/a	FR1	0	R1172E
5963.45	0.984	64949	WORD_OFF	n/a	n/a	JET	1	19	[0, 0, 0]	n/a	FR1	0	R1172E
5964.434	1.617	65933	WORD	n/a	wordpools/wordpool_EN.txt	ICE	2	19	[0, 0, 0]	n/a	FR1	0	R1172E
5966.051	0.867	67550	WORD_OFF	n/a	n/a	ICE	2	19	[0, 0, 0]	n/a	FR1	0	R1172E
5966.918	1.617	68417	WORD	n/a	wordpools/wordpool_EN.txt	BEAR	3	19	[0, 0, 0]	n/a	FR1	0	R1172E
5968.535	0.883	70034	WORD_OFF	n/a	n/a	BEAR	3	19	[0, 0, 0]	n/a	FR1	0	R1172E
5969.418	1.617	70917	WORD	n/a	wordpools/wordpool_EN.txt	PLANE	4	19	[0, 0, 0]	n/a	FR1	0	R1172E
5971.035	0.8	72534	WORD_OFF	n/a	n/a	PLANE	4	19	[0, 0, 0]	n/a	FR1	0	R1172E
5971.835	1.617	73334	WORD	n/a	wordpools/wordpool_EN.txt	SLIME	5	19	[0, 0, 0]	n/a	FR1	0	R1172E
5973.452	0.834	74951	WORD_OFF	n/a	n/a	SLIME	5	19	[0, 0, 0]	n/a	FR1	0	R1172E
5974.286	1.617	75785	WORD	n/a	wordpools/wordpool_EN.txt	WHEEL	6	19	[0, 0, 0]	n/a	FR1	0	R1172E
5975.903	0.784	77402	WORD_OFF	n/a	n/a	WHEEL	6	19	[0, 0, 0]	n/a	FR1	0	R1172E
5976.687	1.616	78185	WORD	n/a	wordpools/wordpool_EN.txt	NET	7	19	[0, 0, 0]	n/a	FR1	0	R1172E
5978.303	0.933	79801	WORD_OFF	n/a	n/a	NET	7	19	[0, 0, 0]	n/a	FR1	0	R1172E
5979.236	1.618	80734	WORD	n/a	wordpools/wordpool_EN.txt	CLOUD	8	19	[0, 0, 0]	n/a	FR1	0	R1172E
5980.854	0.867	82352	WORD_OFF	n/a	n/a	CLOUD	8	19	[0, 0, 0]	n/a	FR1	0	R1172E
5981.721	1.616	83219	WORD	n/a	wordpools/wordpool_EN.txt	MOLE	9	19	[0, 0, 0]	n/a	FR1	0	R1172E
5983.337	0.934	84835	WORD_OFF	n/a	n/a	MOLE	9	19	[0, 0, 0]	n/a	FR1	0	R1172E
5984.271	1.617	85769	WORD	n/a	wordpools/wordpool_EN.txt	SKI	10	19	[0, 0, 0]	n/a	FR1	0	R1172E
5985.888	0.966	87386	WORD_OFF	n/a	n/a	SKI	10	19	[0, 0, 0]	n/a	FR1	0	R1172E
5986.854	1.617	88352	WORD	n/a	wordpools/wordpool_EN.txt	ZOO	11	19	[0, 0, 0]	n/a	FR1	0	R1172E
5988.471	0.867	89969	WORD_OFF	n/a	n/a	ZOO	11	19	[0, 0, 0]	n/a	FR1	0	R1172E
5989.338	1.617	90836	WORD	n/a	wordpools/wordpool_EN.txt	SPARK	12	19	[0, 0, 0]	n/a	FR1	0	R1172E
5990.955	0.0	92453	DISTRACT_START	n/a	n/a	n/a	-999	19	[0, 0, 0]	n/a	FR1	0	R1172E
5990.955	0.001	92453	WORD_OFF	n/a	n/a	SPARK	12	19	[0, 0, 0]	n/a	FR1	0	R1172E
5990.956	0.016	92454	START	n/a	n/a	n/a	-999	19	[-999, -999, -999]	n/a	FR1	0	R1172E
5990.972	6.434	92470	PROB	6.434	n/a	n/a	-999	19	[9, 5, 1]	15	FR1	0	R1172E
5997.406	11.719	98904	PROB	11.719	n/a	n/a	-999	19	[5, 9, 3]	17	FR1	0	R1172E
6009.125	11.132	110622	PROB	11.132	n/a	n/a	-999	19	[4, 6, 8]	18	FR1	0	R1172E
6020.257	0.02	121754	STOP	n/a	n/a	n/a	-999	19	[-999, -999, -999]	n/a	FR1	0	R1172E
6020.277	0.684	121774	DISTRACT_END	n/a	n/a	n/a	-999	19	[0, 0, 0]	n/a	FR1	0	R1172E
6020.961	0.523	122458	RETRIEVAL_ORIENT	n/a	n/a	n/a	-999	19	[0, 0, 0]	n/a	FR1	0	R1172E
6021.484	7.347	122981	REC_START	n/a	n/a	n/a	-999	19	[0, 0, 0]	n/a	FR1	0	R1172E
6028.831	4.217	130327	REC_WORD	4.217	n/a	JET	-999	19	[0, 0, 0]	n/a	FR1	0	R1172E
6033.048	7.885	134544	REC_WORD	7.885	n/a	NEED	-999	19	[0, 0, 0]	n/a	FR1	0	R1172E
6040.933	6.985	142429	REC_WORD	6.985	n/a	ICE	-999	19	[0, 0, 0]	n/a	FR1	0	R1172E
6047.918	3.569	149414	REC_WORD	3.569	n/a	MOLE	-999	19	[0, 0, 0]	n/a	FR1	0	R1172E
6051.487	16.998	152982	REC_END	n/a	n/a	n/a	-999	19	[0, 0, 0]	n/a	FR1	0	R1172E
6068.485	0.5	169980	TRIAL	n/a	n/a	n/a	-999	20	[0, 0, 0]	n/a	FR1	0	R1172E
6068.985	10.428	170480	COUNTDOWN_START	n/a	n/a	n/a	-999	20	[0, 0, 0]	n/a	FR1	0	R1172E
6079.413	0.008	180907	COUNTDOWN_END	n/a	n/a	n/a	-999	20	[0, 0, 0]	n/a	FR1	0	R1172E
6079.421	1.617	180915	ORIENT	n/a	n/a	n/a	-999	20	[0, 0, 0]	n/a	FR1	0	R1172E
6081.038	1.917	182532	ORIENT_OFF	n/a	n/a	n/a	-999	20	[0, 0, 0]	n/a	FR1	0	R1172E
6082.955	1.617	184449	WORD	n/a	wordpools/wordpool_EN.txt	SAIL	1	20	[0, 0, 0]	n/a	FR1	0	R1172E
6084.572	1.016	186066	WORD_OFF	n/a	n/a	SAIL	1	20	[0, 0, 0]	n/a	FR1	0	R1172E
6085.588	1.617	187082	WORD	n/a	wordpools/wordpool_EN.txt	FOAM	2	20	[0, 0, 0]	n/a	FR1	0	R1172E
6087.205	0.951	188699	WORD_OFF	n/a	n/a	FOAM	2	20	[0, 0, 0]	n/a	FR1	0	R1172E
6088.156	1.618	189650	WORD	n/a	wordpools/wordpool_EN.txt	SWORD	3	20	[0, 0, 0]	n/a	FR1	0	R1172E
6089.774	0.95	191268	WORD_OFF	n/a	n/a	SWORD	3	20	[0, 0, 0]	n/a	FR1	0	R1172E
6090.724	1.616	192218	WORD	n/a	wordpools/wordpool_EN.txt	SIGN	4	20	[0, 0, 0]	n/a	FR1	0	R1172E
6092.34	0.783	193834	WORD_OFF	n/a	n/a	SIGN	4	20	[0, 0, 0]	n/a	FR1	0	R1172E
6093.123	1.618	194617	WORD	n/a	wordpools/wordpool_EN.txt	SHIP	5	20	[0, 0, 0]	n/a	FR1	0	R1172E
6094.741	0.783	196235	WORD_OFF	n/a	n/a	SHIP	5	20	[0, 0, 0]	n/a	FR1	0	R1172E
6095.524	1.617	197018	WORD	n/a	wordpools/wordpool_EN.txt	MOOSE	6	20	[0, 0, 0]	n/a	FR1	0	R1172E
6097.141	1.0	198635	WORD_OFF	n/a	n/a	MOOSE	6	20	[0, 0, 0]	n/a	FR1	0	R1172E
6098.141	1.618	199635	WORD	n/a	wordpools/wordpool_EN.txt	DOCK	7	20	[0, 0, 0]	n/a	FR1	0	R1172E
6099.759	0.815	201253	WORD_OFF	n/a	n/a	DOCK	7	20	[0, 0, 0]	n/a	FR1	0	R1172E
6100.574	1.617	202068	WORD	n/a	wordpools/wordpool_EN.txt	STAR	8	20	[0, 0, 0]	n/a	FR1	0	R1172E
6102.191	0.8	203684	WORD_OFF	n/a	n/a	STAR	8	20	[0, 0, 0]	n/a	FR1	0	R1172E
6102.991	1.618	204484	WORD	n/a	wordpools/wordpool_EN.txt	PALM	9	20	[0, 0, 0]	n/a	FR1	0	R1172E
6104.609	0.866	206102	WORD_OFF	n/a	n/a	PALM	9	20	[0, 0, 0]	n/a	FR1	0	R1172E
6105.475	1.617	206968	WORD	n/a	wordpools/wordpool_EN.txt	ARM	10	20	[0, 0, 0]	n/a	FR1	0	R1172E
6107.092	0.951	208585	WORD_OFF	n/a	n/a	ARM	10	20	[0, 0, 0]	n/a	FR1	0	R1172E
6108.043	1.617	209536	WORD	n/a	wordpools/wordpool_EN.txt	RAIN	11	20	[0, 0, 0]	n/a	FR1	0	R1172E
6109.66	0.816	211153	WORD_OFF	n/a	n/a	RAIN	11	20	[0, 0, 0]	n/a	FR1	0	R1172E
6110.476	1.617	211969	WORD	n/a	wordpools/wordpool_EN.txt	SKY	12	20	[0, 0, 0]	n/a	FR1	0	R1172E
6112.093	0.0	213586	WORD_OFF	n/a	n/a	SKY	12	20	[0, 0, 0]	n/a	FR1	0	R1172E
6112.093	0.001	213586	DISTRACT_START	n/a	n/a	n/a	-999	20	[0, 0, 0]	n/a	FR1	0	R1172E
6112.094	0.016	213587	START	n/a	n/a	n/a	-999	20	[-999, -999, -999]	n/a	FR1	0	R1172E
6112.11	12.085	213603	PROB	12.085	n/a	n/a	-999	20	[7, 5, 1]	13	FR1	0	R1172E
6124.195	10.532	225688	PROB	10.532	n/a	n/a	-999	20	[7, 9, 9]	25	FR1	0	R1172E
6134.727	0.021	236219	STOP	n/a	n/a	n/a	-999	20	[-999, -999, -999]	n/a	FR1	0	R1172E
6134.748	0.583	236240	DISTRACT_END	n/a	n/a	n/a	-999	20	[0, 0, 0]	n/a	FR1	0	R1172E
6135.331	0.517	236823	RETRIEVAL_ORIENT	n/a	n/a	n/a	-999	20	[0, 0, 0]	n/a	FR1	0	R1172E
6135.848	2.827	237340	REC_START	n/a	n/a	n/a	-999	20	[0, 0, 0]	n/a	FR1	0	R1172E
6138.675	2.91	240167	REC_WORD	2.91	n/a	SAIL	-999	20	[0, 0, 0]	n/a	FR1	0	R1172E
6141.585	1.604	243077	REC_WORD	1.604	n/a	DOCK	-999	20	[0, 0, 0]	n/a	FR1	0	R1172E
6143.189	1.368	244681	REC_WORD	1.368	n/a	STEAM	-999	20	[0, 0, 0]	n/a	FR1	0	R1172E
6144.557	21.301	246049	REC_WORD	21.301	n/a	FOAM	-999	20	[0, 0, 0]	n/a	FR1	0	R1172E
6165.858	54.004	267349	REC_END	n/a	n/a	n/a	-999	20	[0, 0, 0]	n/a	FR1	0	R1172E
6219.862	0.5	321351	TRIAL	n/a	n/a	n/a	-999	21	[0, 0, 0]	n/a	FR1	0	R1172E
6220.362	10.428	321851	COUNTDOWN_START	n/a	n/a	n/a	-999	21	[0, 0, 0]	n/a	FR1	0	R1172E
6230.79	0.008	332278	COUNTDOWN_END	n/a	n/a	n/a	-999	21	[0, 0, 0]	n/a	FR1	0	R1172E
6230.798	1.616	332286	ORIENT	n/a	n/a	n/a	-999	21	[0, 0, 0]	n/a	FR1	0	R1172E
6232.414	2.001	333902	ORIENT_OFF	n/a	n/a	n/a	-999	21	[0, 0, 0]	n/a	FR1	0	R1172E
6234.415	1.617	335903	WORD	n/a	wordpools/wordpool_EN.txt	TOOL	1	21	[0, 0, 0]	n/a	FR1	0	R1172E
6236.032	0.95	337520	WORD_OFF	n/a	n/a	TOOL	1	21	[0, 0, 0]	n/a	FR1	0	R1172E
6236.982	1.617	338470	WORD	n/a	wordpools/wordpool_EN.txt	CRANE	2	21	[0, 0, 0]	n/a	FR1	0	R1172E
6238.599	0.9	340087	WORD_OFF	n/a	n/a	CRANE	2	21	[0, 0, 0]	n/a	FR1	0	R1172E
6239.499	1.617	340987	WORD	n/a	wordpools/wordpool_EN.txt	FUR	3	21	[0, 0, 0]	n/a	FR1	0	R1172E
6241.116	0.767	342604	WORD_OFF	n/a	n/a	FUR	3	21	[0, 0, 0]	n/a	FR1	0	R1172E
6241.883	1.617	343371	WORD	n/a	wordpools/wordpool_EN.txt	RIB	4	21	[0, 0, 0]	n/a	FR1	0	R1172E
6243.5	0.883	344988	WORD_OFF	n/a	n/a	RIB	4	21	[0, 0, 0]	n/a	FR1	0	R1172E
6244.383	1.617	345871	WORD	n/a	wordpools/wordpool_EN.txt	WORM	5	21	[0, 0, 0]	n/a	FR1	0	R1172E
6246.0	0.85	347488	WORD_OFF	n/a	n/a	WORM	5	21	[0, 0, 0]	n/a	FR1	0	R1172E
6246.85	1.617	348338	WORD	n/a	wordpools/wordpool_EN.txt	BAND	6	21	[0, 0, 0]	n/a	FR1	0	R1172E
6248.467	0.917	349955	WORD_OFF	n/a	n/a	BAND	6	21	[0, 0, 0]	n/a	FR1	0	R1172E
6249.384	1.617	350872	WORD	n/a	wordpools/wordpool_EN.txt	SQUARE	7	21	[0, 0, 0]	n/a	FR1	0	R1172E
6251.001	0.9	352488	WORD_OFF	n/a	n/a	SQUARE	7	21	[0, 0, 0]	n/a	FR1	0	R1172E
6251.901	1.617	353388	WORD	n/a	wordpools/wordpool_EN.txt	CHALK	8	21	[0, 0, 0]	n/a	FR1	0	R1172E
6253.518	0.917	355005	WORD_OFF	n/a	n/a	CHALK	8	21	[0, 0, 0]	n/a	FR1	0	R1172E
6254.435	1.617	355922	WORD	n/a	wordpools/wordpool_EN.txt	THREAD	9	21	[0, 0, 0]	n/a	FR1	0	R1172E
6256.052	0.95	357539	WORD_OFF	n/a	n/a	THREAD	9	21	[0, 0, 0]	n/a	FR1	0	R1172E
6257.002	1.617	358489	WORD	n/a	wordpools/wordpool_EN.txt	HOLE	10	21	[0, 0, 0]	n/a	FR1	0	R1172E
6258.619	0.95	360106	WORD_OFF	n/a	n/a	HOLE	10	21	[0, 0, 0]	n/a	FR1	0	R1172E
6259.569	1.617	361056	WORD	n/a	wordpools/wordpool_EN.txt	SEAL	11	21	[0, 0, 0]	n/a	FR1	0	R1172E
6261.186	0.967	362673	WORD_OFF	n/a	n/a	SEAL	11	21	[0, 0, 0]	n/a	FR1	0	R1172E
6262.153	1.618	363640	WORD	n/a	wordpools/wordpool_EN.txt	YARD	12	21	[0, 0, 0]	n/a	FR1	0	R1172E
6263.771	0.0	365258	WORD_OFF	n/a	n/a	YARD	12	21	[0, 0, 0]	n/a	FR1	0	R1172E
6263.771	0.001	365258	DISTRACT_START	n/a	n/a	n/a	-999	21	[0, 0, 0]	n/a	FR1	0	R1172E
6263.772	0.016	365259	START	n/a	n/a	n/a	-999	21	[-999, -999, -999]	n/a	FR1	0	R1172E
6263.788	13.801	365275	PROB	13.801	n/a	n/a	-999	21	[8, 4, 9]	21	FR1	0	R1172E
6277.589	9.489	379075	PROB	9.489	n/a	n/a	-999	21	[2, 3, 7]	12	FR1	0	R1172E
6287.078	0.013	388564	STOP	n/a	n/a	n/a	-999	21	[-999, -999, -999]	n/a	FR1	0	R1172E
6287.091	0.533	388577	DISTRACT_END	n/a	n/a	n/a	-999	21	[0, 0, 0]	n/a	FR1	0	R1172E
6287.624	0.518	389110	RETRIEVAL_ORIENT	n/a	n/a	n/a	-999	21	[0, 0, 0]	n/a	FR1	0	R1172E
6288.142	2.275	389628	REC_START	n/a	n/a	n/a	-999	21	[0, 0, 0]	n/a	FR1	0	R1172E
6290.417	0.964	391903	REC_WORD	0.964	n/a	BAND	-999	21	[0, 0, 0]	n/a	FR1	0	R1172E
6291.381	1.65	392867	REC_WORD	1.65	n/a	SQUARE	-999	21	[0, 0, 0]	n/a	FR1	0	R1172E
6293.031	1.595	394517	REC_WORD	1.595	n/a	WORM	-999	21	[0, 0, 0]	n/a	FR1	0	R1172E
6294.626	1.872	396112	REC_WORD	1.872	n/a	HOLE	-999	21	[0, 0, 0]	n/a	FR1	0	R1172E
6296.498	2.789	397984	REC_WORD	2.789	n/a	FUR	-999	21	[0, 0, 0]	n/a	FR1	0	R1172E
6299.287	18.865	400773	REC_WORD	18.865	n/a	COAT	-999	21	[0, 0, 0]	n/a	FR1	0	R1172E
6318.152	66.756	419637	REC_END	n/a	n/a	n/a	-999	21	[0, 0, 0]	n/a	FR1	0	R1172E
6384.908	0.5	486390	TRIAL	n/a	n/a	n/a	-999	22	[0, 0, 0]	n/a	FR1	0	R1172E
6385.408	10.428	486890	COUNTDOWN_START	n/a	n/a	n/a	-999	22	[0, 0, 0]	n/a	FR1	0	R1172E
6395.836	0.007	497318	COUNTDOWN_END	n/a	n/a	n/a	-999	22	[0, 0, 0]	n/a	FR1	0	R1172E
6395.843	1.617	497325	ORIENT	n/a	n/a	n/a	-999	22	[0, 0, 0]	n/a	FR1	0	R1172E
6397.46	2.1	498942	ORIENT_OFF	n/a	n/a	n/a	-999	22	[0, 0, 0]	n/a	FR1	0	R1172E
6399.56	1.617	501041	WORD	n/a	wordpools/wordpool_EN.txt	FENCE	1	22	[0, 0, 0]	n/a	FR1	0	R1172E
6401.177	0.784	502658	WORD_OFF	n/a	n/a	FENCE	1	22	[0, 0, 0]	n/a	FR1	0	R1172E
6401.961	1.617	503442	WORD	n/a	wordpools/wordpool_EN.txt	CUP	2	22	[0, 0, 0]	n/a	FR1	0	R1172E
6403.578	0.9	505059	WORD_OFF	n/a	n/a	CUP	2	22	[0, 0, 0]	n/a	FR1	0	R1172E
6404.478	1.617	505959	WORD	n/a	wordpools/wordpool_EN.txt	FORK	3	22	[0, 0, 0]	n/a	FR1	0	R1172E
6406.095	1.0	507576	WORD_OFF	n/a	n/a	FORK	3	22	[0, 0, 0]	n/a	FR1	0	R1172E
6407.095	1.601	508576	WORD	n/a	wordpools/wordpool_EN.txt	STONE	4	22	[0, 0, 0]	n/a	FR1	0	R1172E
6408.696	0.866	510177	WORD_OFF	n/a	n/a	STONE	4	22	[0, 0, 0]	n/a	FR1	0	R1172E
6409.562	1.617	511043	WORD	n/a	wordpools/wordpool_EN.txt	BALL	5	22	[0, 0, 0]	n/a	FR1	0	R1172E
6411.179	0.95	512660	WORD_OFF	n/a	n/a	BALL	5	22	[0, 0, 0]	n/a	FR1	0	R1172E
6412.129	1.618	513610	WORD	n/a	wordpools/wordpool_EN.txt	FLAME	6	22	[0, 0, 0]	n/a	FR1	0	R1172E
6413.747	0.95	515228	WORD_OFF	n/a	n/a	FLAME	6	22	[0, 0, 0]	n/a	FR1	0	R1172E
6414.697	1.616	516178	WORD	n/a	wordpools/wordpool_EN.txt	STRING	7	22	[0, 0, 0]	n/a	FR1	0	R1172E
6416.313	0.884	517794	WORD_OFF	n/a	n/a	STRING	7	22	[0, 0, 0]	n/a	FR1	0	R1172E
6417.197	1.618	518678	WORD	n/a	wordpools/wordpool_EN.txt	SHARK	8	22	[0, 0, 0]	n/a	FR1	0	R1172E
6418.815	0.983	520296	WORD_OFF	n/a	n/a	SHARK	8	22	[0, 0, 0]	n/a	FR1	0	R1172E
6419.798	1.616	521279	WORD	n/a	wordpools/wordpool_EN.txt	STEAK	9	22	[0, 0, 0]	n/a	FR1	0	R1172E
6421.414	0.784	522895	WORD_OFF	n/a	n/a	STEAK	9	22	[0, 0, 0]	n/a	FR1	0	R1172E
6422.198	1.618	523679	WORD	n/a	wordpools/wordpool_EN.txt	CORN	10	22	[0, 0, 0]	n/a	FR1	0	R1172E
6423.816	0.95	525297	WORD_OFF	n/a	n/a	CORN	10	22	[0, 0, 0]	n/a	FR1	0	R1172E
6424.766	1.616	526246	WORD	n/a	wordpools/wordpool_EN.txt	SUN	11	22	[0, 0, 0]	n/a	FR1	0	R1172E
6426.382	0.817	527862	WORD_OFF	n/a	n/a	SUN	11	22	[0, 0, 0]	n/a	FR1	0	R1172E
6427.199	1.618	528679	WORD	n/a	wordpools/wordpool_EN.txt	SOUP	12	22	[0, 0, 0]	n/a	FR1	0	R1172E
6428.817	0.0	530297	WORD_OFF	n/a	n/a	SOUP	12	22	[0, 0, 0]	n/a	FR1	0	R1172E
6428.817	0.0	530297	DISTRACT_START	n/a	n/a	n/a	-999	22	[0, 0, 0]	n/a	FR1	0	R1172E
6428.817	0.015	530297	START	n/a	n/a	n/a	-999	22	[-999, -999, -999]	n/a	FR1	0	R1172E
6428.832	23.847	530312	PROB	23.847	n/a	n/a	-999	22	[8, 7, 2]	17	FR1	0	R1172E
6452.679	0.008	554158	STOP	n/a	n/a	n/a	-999	22	[-999, -999, -999]	n/a	FR1	0	R1172E
6452.687	0.516	554166	DISTRACT_END	n/a	n/a	n/a	-999	22	[0, 0, 0]	n/a	FR1	0	R1172E
6453.203	0.519	554682	RETRIEVAL_ORIENT	n/a	n/a	n/a	-999	22	[0, 0, 0]	n/a	FR1	0	R1172E
6453.722	30.0	555201	REC_START	n/a	n/a	n/a	-999	22	[0, 0, 0]	n/a	FR1	0	R1172E
6483.722	0.009	585200	REC_WORD_VV	0.009	n/a	<>	-999	22	[0, 0, 0]	n/a	FR1	0	R1172E
6483.731	17.331	585209	REC_END	n/a	n/a	n/a	-999	22	[0, 0, 0]	n/a	FR1	0	R1172E
6501.062	0.5	602539	TRIAL	n/a	n/a	n/a	-999	23	[0, 0, 0]	n/a	FR1	0	R1172E
6501.562	10.428	603039	COUNTDOWN_START	n/a	n/a	n/a	-999	23	[0, 0, 0]	n/a	FR1	0	R1172E
6511.99	0.007	613467	COUNTDOWN_END	n/a	n/a	n/a	-999	23	[0, 0, 0]	n/a	FR1	0	R1172E
6511.997	1.617	613474	ORIENT	n/a	n/a	n/a	-999	23	[0, 0, 0]	n/a	FR1	0	R1172E
6513.614	2.051	615091	ORIENT_OFF	n/a	n/a	n/a	-999	23	[0, 0, 0]	n/a	FR1	0	R1172E
6515.665	1.616	617142	WORD	n/a	wordpools/wordpool_EN.txt	JAIL	1	23	[0, 0, 0]	n/a	FR1	0	R1172E
6517.281	0.884	618758	WORD_OFF	n/a	n/a	JAIL	1	23	[0, 0, 0]	n/a	FR1	0	R1172E
6518.165	1.618	619642	WORD	n/a	wordpools/wordpool_EN.txt	STAIR	2	23	[0, 0, 0]	n/a	FR1	0	R1172E
6519.783	1.0	621260	WORD_OFF	n/a	n/a	STAIR	2	23	[0, 0, 0]	n/a	FR1	0	R1172E
6520.783	1.616	622260	WORD	n/a	wordpools/wordpool_EN.txt	SMOKE	3	23	[0, 0, 0]	n/a	FR1	0	R1172E
6522.399	0.8	623876	WORD_OFF	n/a	n/a	SMOKE	3	23	[0, 0, 0]	n/a	FR1	0	R1172E
6523.199	1.601	624676	WORD	n/a	wordpools/wordpool_EN.txt	FLAG	4	23	[0, 0, 0]	n/a	FR1	0	R1172E
6524.8	0.867	626276	WORD_OFF	n/a	n/a	FLAG	4	23	[0, 0, 0]	n/a	FR1	0	R1172E
6525.667	1.616	627143	WORD	n/a	wordpools/wordpool_EN.txt	CAR	5	23	[0, 0, 0]	n/a	FR1	0	R1172E
6527.283	0.8	628759	WORD_OFF	n/a	n/a	CAR	5	23	[0, 0, 0]	n/a	FR1	0	R1172E
6528.083	1.601	629559	WORD	n/a	wordpools/wordpool_EN.txt	HAT	6	23	[0, 0, 0]	n/a	FR1	0	R1172E
6529.684	0.967	631160	WORD_OFF	n/a	n/a	HAT	6	23	[0, 0, 0]	n/a	FR1	0	R1172E
6530.651	1.616	632127	WORD	n/a	wordpools/wordpool_EN.txt	WALL	7	23	[0, 0, 0]	n/a	FR1	0	R1172E
6532.267	0.8	633743	WORD_OFF	n/a	n/a	WALL	7	23	[0, 0, 0]	n/a	FR1	0	R1172E
6533.067	1.602	634543	WORD	n/a	wordpools/wordpool_EN.txt	MAZE	8	23	[0, 0, 0]	n/a	FR1	0	R1172E
6534.669	0.882	636145	WORD_OFF	n/a	n/a	MAZE	8	23	[0, 0, 0]	n/a	FR1	0	R1172E
6535.551	1.617	637027	WORD	n/a	wordpools/wordpool_EN.txt	SUIT	9	23	[0, 0, 0]	n/a	FR1	0	R1172E
6537.168	0.9	638644	WORD_OFF	n/a	n/a	SUIT	9	23	[0, 0, 0]	n/a	FR1	0	R1172E
6538.068	1.618	639544	WORD	n/a	wordpools/wordpool_EN.txt	FUDGE	10	23	[0, 0, 0]	n/a	FR1	0	R1172E
6539.686	0.933	641162	WORD_OFF	n/a	n/a	FUDGE	10	23	[0, 0, 0]	n/a	FR1	0	R1172E
6540.619	1.617	642095	WORD	n/a	wordpools/wordpool_EN.txt	PHONE	11	23	[0, 0, 0]	n/a	FR1	0	R1172E
6542.236	0.883	643712	WORD_OFF	n/a	n/a	PHONE	11	23	[0, 0, 0]	n/a	FR1	0	R1172E
6543.119	1.618	644595	WORD	n/a	wordpools/wordpool_EN.txt	HEART	12	23	[0, 0, 0]	n/a	FR1	0	R1172E
6544.737	0.0	646213	WORD_OFF	n/a	n/a	HEART	12	23	[0, 0, 0]	n/a	FR1	0	R1172E
6544.737	0.001	646213	DISTRACT_START	n/a	n/a	n/a	-999	23	[0, 0, 0]	n/a	FR1	0	R1172E
6544.738	0.016	646214	START	n/a	n/a	n/a	-999	23	[-999, -999, -999]	n/a	FR1	0	R1172E
6544.754	5.35	646230	PROB	5.35	n/a	n/a	-999	23	[3, 2, 5]	10	FR1	0	R1172E
6550.104	10.101	651579	PROB	10.101	n/a	n/a	-999	23	[7, 9, 4]	20	FR1	0	R1172E
6560.205	5.319	661680	PROB	5.319	n/a	n/a	-999	23	[3, 2, 3]	8	FR1	0	R1172E
6565.524	0.016	666999	STOP	n/a	n/a	n/a	-999	23	[-999, -999, -999]	n/a	FR1	0	R1172E
6565.54	0.683	667015	DISTRACT_END	n/a	n/a	n/a	-999	23	[0, 0, 0]	n/a	FR1	0	R1172E
6566.223	0.519	667698	RETRIEVAL_ORIENT	n/a	n/a	n/a	-999	23	[0, 0, 0]	n/a	FR1	0	R1172E
6566.742	1.977	668217	REC_START	n/a	n/a	n/a	-999	23	[0, 0, 0]	n/a	FR1	0	R1172E
6568.719	2.28	670194	REC_WORD	2.28	n/a	HAZE	-999	23	[0, 0, 0]	n/a	FR1	0	R1172E
6570.999	5.007	672474	REC_WORD	5.007	n/a	SUIT	-999	23	[0, 0, 0]	n/a	FR1	0	R1172E
6576.006	3.056	677480	REC_WORD	3.056	n/a	JAIL	-999	23	[0, 0, 0]	n/a	FR1	0	R1172E
6579.062	4.728	680536	REC_WORD	4.728	n/a	WALL	-999	23	[0, 0, 0]	n/a	FR1	0	R1172E
6583.79	12.96	685264	REC_WORD	12.96	n/a	WORK	-999	23	[0, 0, 0]	n/a	FR1	0	R1172E
6596.75	14.781	698224	REC_END	n/a	n/a	n/a	-999	23	[0, 0, 0]	n/a	FR1	0	R1172E
6611.531	0.5	713004	TRIAL	n/a	n/a	n/a	-999	24	[0, 0, 0]	n/a	FR1	0	R1172E
6612.031	10.428	713504	COUNTDOWN_START	n/a	n/a	n/a	-999	24	[0, 0, 0]	n/a	FR1	0	R1172E
6622.459	0.007	723932	COUNTDOWN_END	n/a	n/a	n/a	-999	24	[0, 0, 0]	n/a	FR1	0	R1172E
6622.466	1.617	723939	ORIENT	n/a	n/a	n/a	-999	24	[0, 0, 0]	n/a	FR1	0	R1172E
6624.083	2.101	725555	ORIENT_OFF	n/a	n/a	n/a	-999	24	[0, 0, 0]	n/a	FR1	0	R1172E
6626.184	1.618	727656	WORD	n/a	wordpools/wordpool_EN.txt	BENCH	1	24	[0, 0, 0]	n/a	FR1	0	R1172E
6627.802	0.95	729274	WORD_OFF	n/a	n/a	BENCH	1	24	[0, 0, 0]	n/a	FR1	0	R1172E
6628.752	1.616	730224	WORD	n/a	wordpools/wordpool_EN.txt	SMILE	2	24	[0, 0, 0]	n/a	FR1	0	R1172E
6630.368	1.0	731840	WORD_OFF	n/a	n/a	SMILE	2	24	[0, 0, 0]	n/a	FR1	0	R1172E
6631.368	1.617	732840	WORD	n/a	wordpools/wordpool_EN.txt	SKUNK	3	24	[0, 0, 0]	n/a	FR1	0	R1172E
6632.985	0.801	734457	WORD_OFF	n/a	n/a	SKUNK	3	24	[0, 0, 0]	n/a	FR1	0	R1172E
6633.786	1.616	735258	WORD	n/a	wordpools/wordpool_EN.txt	PEN	4	24	[0, 0, 0]	n/a	FR1	0	R1172E
6635.402	0.833	736874	WORD_OFF	n/a	n/a	PEN	4	24	[0, 0, 0]	n/a	FR1	0	R1172E
6636.235	1.617	737707	WORD	n/a	wordpools/wordpool_EN.txt	FOX	5	24	[0, 0, 0]	n/a	FR1	0	R1172E
6637.852	0.918	739324	WORD_OFF	n/a	n/a	FOX	5	24	[0, 0, 0]	n/a	FR1	0	R1172E
6638.77	1.616	740242	WORD	n/a	wordpools/wordpool_EN.txt	PEA	6	24	[0, 0, 0]	n/a	FR1	0	R1172E
6640.386	0.984	741858	WORD_OFF	n/a	n/a	PEA	6	24	[0, 0, 0]	n/a	FR1	0	R1172E
6641.37	1.617	742842	WORD	n/a	wordpools/wordpool_EN.txt	FOOT	7	24	[0, 0, 0]	n/a	FR1	0	R1172E
6642.987	0.866	744459	WORD_OFF	n/a	n/a	FOOT	7	24	[0, 0, 0]	n/a	FR1	0	R1172E
6643.853	1.617	745325	WORD	n/a	wordpools/wordpool_EN.txt	THUMB	8	24	[0, 0, 0]	n/a	FR1	0	R1172E
6645.47	0.817	746942	WORD_OFF	n/a	n/a	THUMB	8	24	[0, 0, 0]	n/a	FR1	0	R1172E
6646.287	1.617	747759	WORD	n/a	wordpools/wordpool_EN.txt	SINK	9	24	[0, 0, 0]	n/a	FR1	0	R1172E
6647.904	0.835	749376	WORD_OFF	n/a	n/a	SINK	9	24	[0, 0, 0]	n/a	FR1	0	R1172E
6648.739	1.616	750210	WORD	n/a	wordpools/wordpool_EN.txt	TAIL	10	24	[0, 0, 0]	n/a	FR1	0	R1172E
6650.355	0.933	751826	WORD_OFF	n/a	n/a	TAIL	10	24	[0, 0, 0]	n/a	FR1	0	R1172E
6651.288	1.617	752759	WORD	n/a	wordpools/wordpool_EN.txt	BARN	11	24	[0, 0, 0]	n/a	FR1	0	R1172E
6652.905	0.934	754376	WORD_OFF	n/a	n/a	BARN	11	24	[0, 0, 0]	n/a	FR1	0	R1172E
6653.839	1.616	755310	WORD	n/a	wordpools/wordpool_EN.txt	CALF	12	24	[0, 0, 0]	n/a	FR1	0	R1172E
6655.455	0.0	756926	DISTRACT_START	n/a	n/a	n/a	-999	24	[0, 0, 0]	n/a	FR1	0	R1172E
6655.455	0.001	756926	WORD_OFF	n/a	n/a	CALF	12	24	[0, 0, 0]	n/a	FR1	0	R1172E
6655.456	0.016	756927	START	n/a	n/a	n/a	-999	24	[-999, -999, -999]	n/a	FR1	0	R1172E
6655.472	5.018	756943	PROB	5.018	n/a	n/a	-999	24	[5, 5, 7]	17	FR1	0	R1172E
6660.49	7.134	761961	PROB	7.134	n/a	n/a	-999	24	[8, 7, 6]	13	FR1	0	R1172E
6667.624	8.993	769095	PROB	8.993	n/a	n/a	-999	24	[3, 5, 2]	11	FR1	0	R1172E
6676.617	0.009	778087	STOP	n/a	n/a	n/a	-999	24	[-999, -999, -999]	n/a	FR1	0	R1172E
6676.626	0.683	778096	DISTRACT_END	n/a	n/a	n/a	-999	24	[0, 0, 0]	n/a	FR1	0	R1172E
6677.309	0.502	778779	RETRIEVAL_ORIENT	n/a	n/a	n/a	-999	24	[0, 0, 0]	n/a	FR1	0	R1172E
6677.811	3.762	779281	REC_START	n/a	n/a	n/a	-999	24	[0, 0, 0]	n/a	FR1	0	R1172E
6681.573	12.217	783043	REC_WORD	12.217	n/a	MAZE	-999	24	[0, 0, 0]	n/a	FR1	0	R1172E
6693.79	1.922	795260	REC_WORD	1.922	n/a	HAND	-999	24	[0, 0, 0]	n/a	FR1	0	R1172E
6695.712	12.108	797182	REC_WORD	12.108	n/a	RIB	-999	24	[0, 0, 0]	n/a	FR1	0	R1172E
6707.82	30.767	809289	REC_END	n/a	n/a	n/a	-999	24	[0, 0, 0]	n/a	FR1	0	R1172E
6738.587	0.5	840055	TRIAL	n/a	n/a	n/a	-999	25	[0, 0, 0]	n/a	FR1	0	R1172E
6739.087	10.428	840555	COUNTDOWN_START	n/a	n/a	n/a	-999	25	[0, 0, 0]	n/a	FR1	0	R1172E
6749.515	0.007	850982	COUNTDOWN_END	n/a	n/a	n/a	-999	25	[0, 0, 0]	n/a	FR1	0	R1172E
6749.522	1.617	850989	ORIENT	n/a	n/a	n/a	-999	25	[0, 0, 0]	n/a	FR1	0	R1172E
6751.139	1.9	852606	ORIENT_OFF	n/a	n/a	n/a	-999	25	[0, 0, 0]	n/a	FR1	0	R1172E
6753.039	1.618	854506	WORD	n/a	wordpools/wordpool_EN.txt	LAKE	1	25	[0, 0, 0]	n/a	FR1	0	R1172E
6754.657	0.899	856124	WORD_OFF	n/a	n/a	LAKE	1	25	[0, 0, 0]	n/a	FR1	0	R1172E
6755.556	1.617	857023	WORD	n/a	wordpools/wordpool_EN.txt	GOAT	2	25	[0, 0, 0]	n/a	FR1	0	R1172E
6757.173	0.917	858640	WORD_OFF	n/a	n/a	GOAT	2	25	[0, 0, 0]	n/a	FR1	0	R1172E
6758.09	1.618	859557	WORD	n/a	wordpools/wordpool_EN.txt	SWAMP	3	25	[0, 0, 0]	n/a	FR1	0	R1172E
6759.708	0.799	861175	WORD_OFF	n/a	n/a	SWAMP	3	25	[0, 0, 0]	n/a	FR1	0	R1172E
6760.507	1.617	861974	WORD	n/a	wordpools/wordpool_EN.txt	BEAK	4	25	[0, 0, 0]	n/a	FR1	0	R1172E
6762.124	0.784	863591	WORD_OFF	n/a	n/a	BEAK	4	25	[0, 0, 0]	n/a	FR1	0	R1172E
6762.908	1.617	864375	WORD	n/a	wordpools/wordpool_EN.txt	STEAM	5	25	[0, 0, 0]	n/a	FR1	0	R1172E
6764.525	0.883	865992	WORD_OFF	n/a	n/a	STEAM	5	25	[0, 0, 0]	n/a	FR1	0	R1172E
6765.408	1.617	866875	WORD	n/a	wordpools/wordpool_EN.txt	HORSE	6	25	[0, 0, 0]	n/a	FR1	0	R1172E
6767.025	1.017	868492	WORD_OFF	n/a	n/a	HORSE	6	25	[0, 0, 0]	n/a	FR1	0	R1172E
6768.042	1.601	869509	WORD	n/a	wordpools/wordpool_EN.txt	SPEAR	7	25	[0, 0, 0]	n/a	FR1	0	R1172E
6769.643	0.799	871110	WORD_OFF	n/a	n/a	SPEAR	7	25	[0, 0, 0]	n/a	FR1	0	R1172E
6770.442	1.617	871909	WORD	n/a	wordpools/wordpool_EN.txt	CONE	8	25	[0, 0, 0]	n/a	FR1	0	R1172E
6772.059	0.884	873526	WORD_OFF	n/a	n/a	CONE	8	25	[0, 0, 0]	n/a	FR1	0	R1172E
6772.943	1.617	874409	WORD	n/a	wordpools/wordpool_EN.txt	ROSE	9	25	[0, 0, 0]	n/a	FR1	0	R1172E
6774.56	0.917	876026	WORD_OFF	n/a	n/a	ROSE	9	25	[0, 0, 0]	n/a	FR1	0	R1172E
6775.477	1.617	876943	WORD	n/a	wordpools/wordpool_EN.txt	BRIDGE	10	25	[0, 0, 0]	n/a	FR1	0	R1172E
6777.094	0.933	878560	WORD_OFF	n/a	n/a	BRIDGE	10	25	[0, 0, 0]	n/a	FR1	0	R1172E
6778.027	1.618	879493	WORD	n/a	wordpools/wordpool_EN.txt	RAKE	11	25	[0, 0, 0]	n/a	FR1	0	R1172E
6779.645	0.816	881111	WORD_OFF	n/a	n/a	RAKE	11	25	[0, 0, 0]	n/a	FR1	0	R1172E
6780.461	1.617	881927	WORD	n/a	wordpools/wordpool_EN.txt	ROPE	12	25	[0, 0, 0]	n/a	FR1	0	R1172E
6782.078	0.0	883544	WORD_OFF	n/a	n/a	ROPE	12	25	[0, 0, 0]	n/a	FR1	0	R1172E
6782.078	0.0	883544	DISTRACT_START	n/a	n/a	n/a	-999	25	[0, 0, 0]	n/a	FR1	0	R1172E
6782.078	0.016	883544	START	n/a	n/a	n/a	-999	25	[-999, -999, -999]	n/a	FR1	0	R1172E
6782.094	5.686	883560	PROB	5.686	n/a	n/a	-999	25	[2, 8, 5]	15	FR1	0	R1172E
6787.78	10.501	889246	PROB	10.501	n/a	n/a	-999	25	[3, 8, 1]	12	FR1	0	R1172E
6798.281	10.161	899746	PROB	10.161	n/a	n/a	-999	25	[7, 6, 8]	21	FR1	0	R1172E
6808.442	0.007	909907	STOP	n/a	n/a	n/a	-999	25	[-999, -999, -999]	n/a	FR1	0	R1172E
6808.449	0.683	909914	DISTRACT_END	n/a	n/a	n/a	-999	25	[0, 0, 0]	n/a	FR1	0	R1172E
6809.132	0.519	910597	RETRIEVAL_ORIENT	n/a	n/a	n/a	-999	25	[0, 0, 0]	n/a	FR1	0	R1172E
6809.651	3.225	911116	REC_START	n/a	n/a	n/a	-999	25	[0, 0, 0]	n/a	FR1	0	R1172E
6812.876	6.149	914341	REC_WORD	6.149	n/a	GOAT	-999	25	[0, 0, 0]	n/a	FR1	0	R1172E
6819.025	14.502	920490	REC_WORD	14.502	n/a	SWORD	-999	25	[0, 0, 0]	n/a	FR1	0	R1172E
6833.527	3.622	934991	REC_WORD	3.622	n/a	SINK	-999	25	[0, 0, 0]	n/a	FR1	0	R1172E
6837.149	2.51	938613	REC_WORD	2.51	n/a	PEN	-999	25	[0, 0, 0]	n/a	FR1	0	R1172E
6839.659	13.149	941123	REC_END	n/a	n/a	n/a	-999	25	[0, 0, 0]	n/a	FR1	0	R1172E
6852.808	0.0	954271	SESS_END	n/a	n/a	n/a	-999	25	[0, 0, 0]	n/a	FR1	0	R1172E
