onset	duration	sample	trial_type	response_time	stim_file	item_name	serialpos	list	test	answer	experiment	session	subject
0.0	17.997	241454	SESS_START	n/a	n/a	n/a	-999	-999	[0, 0, 0]	n/a	FR1	0	R1089P
17.997	10.428	250452	COUNTDOWN_START	n/a	n/a	n/a	-999	-999	[0, 0, 0]	n/a	FR1	0	R1089P
28.425	3.942	255666	COUNTDOWN_END	n/a	n/a	n/a	-999	-999	[0, 0, 0]	n/a	FR1	0	R1089P
32.367	2.55	257637	PRACTICE_WORD	n/a	n/a	RHINO	1	-1	[0, 0, 0]	n/a	FR1	0	R1089P
34.917	2.535	258912	PRACTICE_WORD	n/a	n/a	IRON	2	-1	[0, 0, 0]	n/a	FR1	0	R1089P
37.452	2.549	260179	PRACTICE_WORD	n/a	n/a	COTTON	3	-1	[0, 0, 0]	n/a	FR1	0	R1089P
40.001	2.585	261454	PRACTICE_WORD	n/a	n/a	CAMEL	4	-1	[0, 0, 0]	n/a	FR1	0	R1089P
42.586	2.383	262746	PRACTICE_WORD	n/a	n/a	FLOOD	5	-1	[0, 0, 0]	n/a	FR1	0	R1089P
44.969	2.518	263937	PRACTICE_WORD	n/a	n/a	CHEST	6	-1	[0, 0, 0]	n/a	FR1	0	R1089P
47.487	2.4	265196	PRACTICE_WORD	n/a	n/a	BEAM	7	-1	[0, 0, 0]	n/a	FR1	0	R1089P
49.887	2.501	266396	PRACTICE_WORD	n/a	n/a	WAGON	8	-1	[0, 0, 0]	n/a	FR1	0	R1089P
52.388	2.384	267647	PRACTICE_WORD	n/a	n/a	ATTIC	9	-1	[0, 0, 0]	n/a	FR1	0	R1089P
54.772	2.566	268839	PRACTICE_WORD	n/a	n/a	RING	10	-1	[0, 0, 0]	n/a	FR1	0	R1089P
57.338	2.518	270122	PRACTICE_WORD	n/a	n/a	TONGUE	11	-1	[0, 0, 0]	n/a	FR1	0	R1089P
59.856	1.617	271381	PRACTICE_WORD	n/a	n/a	WATCH	12	-1	[0, 0, 0]	n/a	FR1	0	R1089P
61.473	0.0	272189	PRACTICE_DISTRACT_START	n/a	n/a	n/a	-999	-1	[0, 0, 0]	n/a	FR1	0	R1089P
61.473	0.017	272189	START	n/a	n/a	n/a	-999	-1	[-999, -999, -999]	n/a	FR1	0	R1089P
61.49	13.418	272198	PROB	13.418	n/a	n/a	-999	-1	[3, 3, 9]	27	FR1	0	R1089P
74.908	3.585	278906	PROB	3.585	n/a	n/a	-999	-1	[8, 8, 8]	24	FR1	0	R1089P
78.493	5.231	280699	PROB	5.231	n/a	n/a	-999	-1	[6, 8, 6]	20	FR1	0	R1089P
83.724	0.003	283314	STOP	n/a	n/a	n/a	-999	-1	[-999, -999, -999]	n/a	FR1	0	R1089P
83.727	0.703	283315	PRACTICE_DISTRACT_END	n/a	n/a	n/a	-999	-1	[0, 0, 0]	n/a	FR1	0	R1089P
84.43	30.513	283667	PRACTICE_REC_START	n/a	n/a	n/a	-999	-1	[0, 0, 0]	n/a	FR1	0	R1089P
114.943	25.661	298923	PRACTICE_REC_END	n/a	n/a	n/a	-999	-1	[0, 0, 0]	n/a	FR1	0	R1089P
140.604	0.001	311752	COUNTDOWN_START	n/a	n/a	n/a	-999	1	[0, 0, 0]	n/a	FR1	0	R1089P
140.605	10.427	311753	TRIAL	n/a	n/a	n/a	-999	1	[0, 0, 0]	n/a	FR1	0	R1089P
151.032	0.007	316966	COUNTDOWN_END	n/a	n/a	n/a	-999	1	[0, 0, 0]	n/a	FR1	0	R1089P
151.039	2.585	316970	ORIENT	n/a	n/a	n/a	-999	1	[0, 0, 0]	n/a	FR1	0	R1089P
153.624	2.599	318262	WORD	n/a	wordpools/wordpool_EN.txt	RUG	1	1	[0, 0, 0]	n/a	FR1	0	R1089P
156.223	2.502	319562	WORD	n/a	wordpools/wordpool_EN.txt	BATH	2	1	[0, 0, 0]	n/a	FR1	0	R1089P
158.725	2.432	320812	WORD	n/a	wordpools/wordpool_EN.txt	THUMB	3	1	[0, 0, 0]	n/a	FR1	0	R1089P
161.157	2.435	322028	WORD	n/a	wordpools/wordpool_EN.txt	LAWN	4	1	[0, 0, 0]	n/a	FR1	0	R1089P
163.592	2.433	323246	WORD	n/a	wordpools/wordpool_EN.txt	MUD	5	1	[0, 0, 0]	n/a	FR1	0	R1089P
166.025	2.552	324462	WORD	n/a	wordpools/wordpool_EN.txt	DOOR	6	1	[0, 0, 0]	n/a	FR1	0	R1089P
168.577	2.549	325738	WORD	n/a	wordpools/wordpool_EN.txt	ROAD	7	1	[0, 0, 0]	n/a	FR1	0	R1089P
171.126	2.568	327013	WORD	n/a	wordpools/wordpool_EN.txt	FOOT	8	1	[0, 0, 0]	n/a	FR1	0	R1089P
173.694	2.583	328297	WORD	n/a	wordpools/wordpool_EN.txt	HORN	9	1	[0, 0, 0]	n/a	FR1	0	R1089P
176.277	2.385	329588	WORD	n/a	wordpools/wordpool_EN.txt	SOAP	10	1	[0, 0, 0]	n/a	FR1	0	R1089P
178.662	2.599	330780	WORD	n/a	wordpools/wordpool_EN.txt	CUBE	11	1	[0, 0, 0]	n/a	FR1	0	R1089P
181.261	1.601	332080	WORD	n/a	wordpools/wordpool_EN.txt	SEAT	12	1	[0, 0, 0]	n/a	FR1	0	R1089P
182.862	0.001	332880	DISTRACT_START	n/a	n/a	n/a	-999	1	[0, 0, 0]	n/a	FR1	0	R1089P
182.863	0.016	332881	START	n/a	n/a	n/a	-999	1	[-999, -999, -999]	n/a	FR1	0	R1089P
182.879	7.284	332889	PROB	7.284	n/a	n/a	-999	1	[2, 6, 4]	12	FR1	0	R1089P
190.163	3.668	336531	PROB	3.668	n/a	n/a	-999	1	[1, 2, 9]	12	FR1	0	R1089P
193.831	7.384	338365	PROB	7.384	n/a	n/a	-999	1	[7, 2, 5]	14	FR1	0	R1089P
201.215	4.445	342056	PROB	4.445	n/a	n/a	-999	1	[7, 4, 3]	14	FR1	0	R1089P
205.66	0.007	344279	STOP	n/a	n/a	n/a	-999	1	[-999, -999, -999]	n/a	FR1	0	R1089P
205.667	1.155	344282	DISTRACT_END	n/a	n/a	n/a	-999	1	[0, 0, 0]	n/a	FR1	0	R1089P
206.822	2.636	344860	REC_START	n/a	n/a	n/a	-999	1	[0, 0, 0]	n/a	FR1	0	R1089P
209.458	2.036	346178	REC_WORD	2.036	n/a	RUG	-999	1	[0, 0, 0]	n/a	FR1	0	R1089P
211.494	1.065	347196	REC_WORD	1.065	n/a	BATH	-999	1	[0, 0, 0]	n/a	FR1	0	R1089P
212.559	6.864	347728	REC_WORD	6.864	n/a	LAWN	-999	1	[0, 0, 0]	n/a	FR1	0	R1089P
219.423	17.405	351160	REC_WORD	17.405	n/a	FLOOD	-999	1	[0, 0, 0]	n/a	FR1	0	R1089P
236.828	3.012	359862	REC_END	n/a	n/a	n/a	-999	1	[0, 0, 0]	n/a	FR1	0	R1089P
239.84	0.0	361368	TRIAL	n/a	n/a	n/a	-999	2	[0, 0, 0]	n/a	FR1	0	R1089P
239.84	10.428	361368	COUNTDOWN_START	n/a	n/a	n/a	-999	2	[0, 0, 0]	n/a	FR1	0	R1089P
250.268	0.006	366582	COUNTDOWN_END	n/a	n/a	n/a	-999	2	[0, 0, 0]	n/a	FR1	0	R1089P
250.274	2.552	366585	ORIENT	n/a	n/a	n/a	-999	2	[0, 0, 0]	n/a	FR1	0	R1089P
252.826	2.617	367860	WORD	n/a	wordpools/wordpool_EN.txt	KEY	1	2	[0, 0, 0]	n/a	FR1	0	R1089P
255.443	2.599	369169	WORD	n/a	wordpools/wordpool_EN.txt	SCHOOL	2	2	[0, 0, 0]	n/a	FR1	0	R1089P
258.042	2.468	370468	WORD	n/a	wordpools/wordpool_EN.txt	PIE	3	2	[0, 0, 0]	n/a	FR1	0	R1089P
260.51	2.4	371702	WORD	n/a	wordpools/wordpool_EN.txt	VASE	4	2	[0, 0, 0]	n/a	FR1	0	R1089P
262.91	2.501	372902	WORD	n/a	wordpools/wordpool_EN.txt	STRAW	5	2	[0, 0, 0]	n/a	FR1	0	R1089P
265.411	2.434	374153	WORD	n/a	wordpools/wordpool_EN.txt	CHIEF	6	2	[0, 0, 0]	n/a	FR1	0	R1089P
267.845	2.584	375370	WORD	n/a	wordpools/wordpool_EN.txt	BOY	7	2	[0, 0, 0]	n/a	FR1	0	R1089P
270.429	2.467	376662	WORD	n/a	wordpools/wordpool_EN.txt	BAT	8	2	[0, 0, 0]	n/a	FR1	0	R1089P
272.896	2.383	377895	WORD	n/a	wordpools/wordpool_EN.txt	PHONE	9	2	[0, 0, 0]	n/a	FR1	0	R1089P
275.279	2.401	379086	WORD	n/a	wordpools/wordpool_EN.txt	NOSE	10	2	[0, 0, 0]	n/a	FR1	0	R1089P
277.68	2.583	380287	WORD	n/a	wordpools/wordpool_EN.txt	HOOF	11	2	[0, 0, 0]	n/a	FR1	0	R1089P
280.263	1.618	381578	WORD	n/a	wordpools/wordpool_EN.txt	COIN	12	2	[0, 0, 0]	n/a	FR1	0	R1089P
281.881	0.001	382387	DISTRACT_START	n/a	n/a	n/a	-999	2	[0, 0, 0]	n/a	FR1	0	R1089P
281.882	0.016	382388	START	n/a	n/a	n/a	-999	2	[-999, -999, -999]	n/a	FR1	0	R1089P
281.898	5.751	382396	PROB	5.751	n/a	n/a	-999	2	[6, 3, 9]	18	FR1	0	R1089P
287.649	9.902	385271	PROB	9.902	n/a	n/a	-999	2	[6, 8, 7]	21	FR1	0	R1089P
297.551	3.117	390222	PROB	3.117	n/a	n/a	-999	2	[5, 8, 1]	14	FR1	0	R1089P
300.668	3.263	391780	PROB	3.263	n/a	n/a	-999	2	[6, 7, 9]	22	FR1	0	R1089P
303.931	0.02	393412	STOP	n/a	n/a	n/a	-999	2	[-999, -999, -999]	n/a	FR1	0	R1089P
303.951	1.135	393422	DISTRACT_END	n/a	n/a	n/a	-999	2	[0, 0, 0]	n/a	FR1	0	R1089P
305.086	6.383	393989	REC_START	n/a	n/a	n/a	-999	2	[0, 0, 0]	n/a	FR1	0	R1089P
311.469	2.466	397180	REC_WORD	2.466	n/a	RUG	-999	2	[0, 0, 0]	n/a	FR1	0	R1089P
313.935	15.29	398413	REC_WORD	15.29	n/a	BOY	-999	2	[0, 0, 0]	n/a	FR1	0	R1089P
329.225	5.125	406058	REC_WORD_VV	5.125	n/a	<>	-999	2	[0, 0, 0]	n/a	FR1	0	R1089P
334.35	0.745	408620	REC_WORD	0.745	n/a	BATH	-999	2	[0, 0, 0]	n/a	FR1	0	R1089P
335.095	2.845	408993	REC_END	n/a	n/a	n/a	-999	2	[0, 0, 0]	n/a	FR1	0	R1089P
337.94	0.001	410415	COUNTDOWN_START	n/a	n/a	n/a	-999	3	[0, 0, 0]	n/a	FR1	0	R1089P
337.941	10.427	410416	TRIAL	n/a	n/a	n/a	-999	3	[0, 0, 0]	n/a	FR1	0	R1089P
348.368	0.009	415629	COUNTDOWN_END	n/a	n/a	n/a	-999	3	[0, 0, 0]	n/a	FR1	0	R1089P
348.377	2.549	415633	ORIENT	n/a	n/a	n/a	-999	3	[0, 0, 0]	n/a	FR1	0	R1089P
350.926	2.535	416908	WORD	n/a	wordpools/wordpool_EN.txt	SUIT	1	3	[0, 0, 0]	n/a	FR1	0	R1089P
353.461	2.4	418175	WORD	n/a	wordpools/wordpool_EN.txt	WOLF	2	3	[0, 0, 0]	n/a	FR1	0	R1089P
355.861	2.584	419375	WORD	n/a	wordpools/wordpool_EN.txt	MAZE	3	3	[0, 0, 0]	n/a	FR1	0	R1089P
358.445	2.5	420667	WORD	n/a	wordpools/wordpool_EN.txt	BOX	4	3	[0, 0, 0]	n/a	FR1	0	R1089P
360.945	2.435	421917	WORD	n/a	wordpools/wordpool_EN.txt	CAPE	5	3	[0, 0, 0]	n/a	FR1	0	R1089P
363.38	2.599	423135	WORD	n/a	wordpools/wordpool_EN.txt	BEACH	6	3	[0, 0, 0]	n/a	FR1	0	R1089P
365.979	2.451	424434	WORD	n/a	wordpools/wordpool_EN.txt	SHIP	7	3	[0, 0, 0]	n/a	FR1	0	R1089P
368.43	2.583	425659	WORD	n/a	wordpools/wordpool_EN.txt	SEA	8	3	[0, 0, 0]	n/a	FR1	0	R1089P
371.013	2.435	426951	WORD	n/a	wordpools/wordpool_EN.txt	SEAL	9	3	[0, 0, 0]	n/a	FR1	0	R1089P
373.448	2.6	428168	WORD	n/a	wordpools/wordpool_EN.txt	SNAIL	10	3	[0, 0, 0]	n/a	FR1	0	R1089P
376.048	2.518	429468	WORD	n/a	wordpools/wordpool_EN.txt	SALT	11	3	[0, 0, 0]	n/a	FR1	0	R1089P
378.566	1.616	430727	WORD	n/a	wordpools/wordpool_EN.txt	SLUSH	12	3	[0, 0, 0]	n/a	FR1	0	R1089P
380.182	0.001	431535	DISTRACT_START	n/a	n/a	n/a	-999	3	[0, 0, 0]	n/a	FR1	0	R1089P
380.183	0.015	431536	START	n/a	n/a	n/a	-999	3	[-999, -999, -999]	n/a	FR1	0	R1089P
380.198	5.252	431543	PROB	5.252	n/a	n/a	-999	3	[4, 4, 3]	11	FR1	0	R1089P
385.45	5.45	434169	PROB	5.45	n/a	n/a	-999	3	[7, 8, 8]	23	FR1	0	R1089P
390.9	4.351	436894	PROB	4.351	n/a	n/a	-999	3	[4, 9, 5]	18	FR1	0	R1089P
395.251	3.502	439069	PROB	3.502	n/a	n/a	-999	3	[2, 1, 5]	8	FR1	0	R1089P
398.753	2.819	440820	PROB	2.819	n/a	n/a	-999	3	[3, 5, 3]	11	FR1	0	R1089P
401.572	0.015	442230	STOP	n/a	n/a	n/a	-999	3	[-999, -999, -999]	n/a	FR1	0	R1089P
401.587	1.051	442237	DISTRACT_END	n/a	n/a	n/a	-999	3	[0, 0, 0]	n/a	FR1	0	R1089P
402.638	2.608	442763	REC_START	n/a	n/a	n/a	-999	3	[0, 0, 0]	n/a	FR1	0	R1089P
405.246	2.625	444066	REC_WORD	2.625	n/a	SALT	-999	3	[0, 0, 0]	n/a	FR1	0	R1089P
407.871	7.548	445379	REC_WORD	7.548	n/a	SEA	-999	3	[0, 0, 0]	n/a	FR1	0	R1089P
415.419	4.122	449153	REC_WORD	4.122	n/a	BEACH	-999	3	[0, 0, 0]	n/a	FR1	0	R1089P
419.541	8.415	451214	REC_WORD	8.415	n/a	PLUS	-999	3	[0, 0, 0]	n/a	FR1	0	R1089P
427.956	4.692	455421	REC_WORD	4.692	n/a	BOAT	-999	3	[0, 0, 0]	n/a	FR1	0	R1089P
432.648	8.963	457767	REC_END	n/a	n/a	n/a	-999	3	[0, 0, 0]	n/a	FR1	0	R1089P
441.611	0.0	462248	COUNTDOWN_START	n/a	n/a	n/a	-999	4	[0, 0, 0]	n/a	FR1	0	R1089P
441.611	10.428	462248	TRIAL	n/a	n/a	n/a	-999	4	[0, 0, 0]	n/a	FR1	0	R1089P
452.039	0.006	467462	COUNTDOWN_END	n/a	n/a	n/a	-999	4	[0, 0, 0]	n/a	FR1	0	R1089P
452.045	2.418	467465	ORIENT	n/a	n/a	n/a	-999	4	[0, 0, 0]	n/a	FR1	0	R1089P
454.463	2.483	468674	WORD	n/a	wordpools/wordpool_EN.txt	FAN	1	4	[0, 0, 0]	n/a	FR1	0	R1089P
456.946	2.585	469915	WORD	n/a	wordpools/wordpool_EN.txt	SIGN	2	4	[0, 0, 0]	n/a	FR1	0	R1089P
459.531	2.449	471208	WORD	n/a	wordpools/wordpool_EN.txt	FLAG	3	4	[0, 0, 0]	n/a	FR1	0	R1089P
461.98	2.602	472432	WORD	n/a	wordpools/wordpool_EN.txt	CROWN	4	4	[0, 0, 0]	n/a	FR1	0	R1089P
464.582	2.416	473733	WORD	n/a	wordpools/wordpool_EN.txt	POLE	5	4	[0, 0, 0]	n/a	FR1	0	R1089P
466.998	2.385	474941	WORD	n/a	wordpools/wordpool_EN.txt	NAIL	6	4	[0, 0, 0]	n/a	FR1	0	R1089P
469.383	2.5	476133	WORD	n/a	wordpools/wordpool_EN.txt	VEST	7	4	[0, 0, 0]	n/a	FR1	0	R1089P
471.883	2.416	477383	WORD	n/a	wordpools/wordpool_EN.txt	PURSE	8	4	[0, 0, 0]	n/a	FR1	0	R1089P
474.299	2.502	478591	WORD	n/a	wordpools/wordpool_EN.txt	PIN	9	4	[0, 0, 0]	n/a	FR1	0	R1089P
476.801	2.617	479842	WORD	n/a	wordpools/wordpool_EN.txt	ROSE	10	4	[0, 0, 0]	n/a	FR1	0	R1089P
479.418	2.4	481151	WORD	n/a	wordpools/wordpool_EN.txt	TANK	11	4	[0, 0, 0]	n/a	FR1	0	R1089P
481.818	1.617	482350	WORD	n/a	wordpools/wordpool_EN.txt	PEA	12	4	[0, 0, 0]	n/a	FR1	0	R1089P
483.435	0.001	483159	DISTRACT_START	n/a	n/a	n/a	-999	4	[0, 0, 0]	n/a	FR1	0	R1089P
483.436	0.016	483159	START	n/a	n/a	n/a	-999	4	[-999, -999, -999]	n/a	FR1	0	R1089P
483.452	4.9	483167	PROB	4.9	n/a	n/a	-999	4	[9, 1, 9]	19	FR1	0	R1089P
488.352	4.435	485617	PROB	4.435	n/a	n/a	-999	4	[6, 7, 4]	17	FR1	0	R1089P
492.787	3.116	487835	PROB	3.116	n/a	n/a	-999	4	[1, 7, 2]	10	FR1	0	R1089P
495.903	2.552	489393	PROB	2.552	n/a	n/a	-999	4	[4, 4, 3]	11	FR1	0	R1089P
498.455	3.566	490669	PROB	3.566	n/a	n/a	-999	4	[1, 6, 6]	13	FR1	0	R1089P
502.021	4.262	492451	PROB	4.262	n/a	n/a	-999	4	[4, 8, 4]	16	FR1	0	R1089P
506.283	0.005	494582	STOP	n/a	n/a	n/a	-999	4	[-999, -999, -999]	n/a	FR1	0	R1089P
506.288	1.051	494585	DISTRACT_END	n/a	n/a	n/a	-999	4	[0, 0, 0]	n/a	FR1	0	R1089P
507.339	1.426	495110	REC_START	n/a	n/a	n/a	-999	4	[0, 0, 0]	n/a	FR1	0	R1089P
508.765	1.179	495823	REC_WORD	1.179	n/a	FAN	-999	4	[0, 0, 0]	n/a	FR1	0	R1089P
509.944	2.276	496413	REC_WORD	2.276	n/a	NAIL	-999	4	[0, 0, 0]	n/a	FR1	0	R1089P
512.22	9.861	497551	REC_WORD	9.861	n/a	FLAG	-999	4	[0, 0, 0]	n/a	FR1	0	R1089P
522.081	15.272	502481	REC_WORD	15.272	n/a	SUIT	-999	4	[0, 0, 0]	n/a	FR1	0	R1089P
537.353	2.592	510116	REC_END	n/a	n/a	n/a	-999	4	[0, 0, 0]	n/a	FR1	0	R1089P
539.945	0.0	511412	TRIAL	n/a	n/a	n/a	-999	5	[0, 0, 0]	n/a	FR1	0	R1089P
539.945	10.428	511412	COUNTDOWN_START	n/a	n/a	n/a	-999	5	[0, 0, 0]	n/a	FR1	0	R1089P
550.373	0.008	516626	COUNTDOWN_END	n/a	n/a	n/a	-999	5	[0, 0, 0]	n/a	FR1	0	R1089P
550.381	2.384	516630	ORIENT	n/a	n/a	n/a	-999	5	[0, 0, 0]	n/a	FR1	0	R1089P
552.765	2.533	517822	WORD	n/a	wordpools/wordpool_EN.txt	STAIR	1	5	[0, 0, 0]	n/a	FR1	0	R1089P
555.298	2.451	519089	WORD	n/a	wordpools/wordpool_EN.txt	SMOKE	2	5	[0, 0, 0]	n/a	FR1	0	R1089P
557.749	2.4	520314	WORD	n/a	wordpools/wordpool_EN.txt	DART	3	5	[0, 0, 0]	n/a	FR1	0	R1089P
560.149	2.601	521514	WORD	n/a	wordpools/wordpool_EN.txt	PANTS	4	5	[0, 0, 0]	n/a	FR1	0	R1089P
562.75	2.483	522814	WORD	n/a	wordpools/wordpool_EN.txt	BADGE	5	5	[0, 0, 0]	n/a	FR1	0	R1089P
565.233	2.435	524056	WORD	n/a	wordpools/wordpool_EN.txt	CAR	6	5	[0, 0, 0]	n/a	FR1	0	R1089P
567.668	2.583	525273	WORD	n/a	wordpools/wordpool_EN.txt	WING	7	5	[0, 0, 0]	n/a	FR1	0	R1089P
570.251	2.368	526565	WORD	n/a	wordpools/wordpool_EN.txt	BRICK	8	5	[0, 0, 0]	n/a	FR1	0	R1089P
572.619	2.499	527749	WORD	n/a	wordpools/wordpool_EN.txt	FOG	9	5	[0, 0, 0]	n/a	FR1	0	R1089P
575.118	2.535	528998	WORD	n/a	wordpools/wordpool_EN.txt	TRASH	10	5	[0, 0, 0]	n/a	FR1	0	R1089P
577.653	2.483	530265	WORD	n/a	wordpools/wordpool_EN.txt	CANE	11	5	[0, 0, 0]	n/a	FR1	0	R1089P
580.136	1.618	531507	WORD	n/a	wordpools/wordpool_EN.txt	JAIL	12	5	[0, 0, 0]	n/a	FR1	0	R1089P
581.754	0.001	532316	DISTRACT_START	n/a	n/a	n/a	-999	5	[0, 0, 0]	n/a	FR1	0	R1089P
581.755	0.015	532316	START	n/a	n/a	n/a	-999	5	[-999, -999, -999]	n/a	FR1	0	R1089P
581.77	4.918	532324	PROB	4.918	n/a	n/a	-999	5	[6, 7, 2]	15	FR1	0	R1089P
586.688	4.684	534783	PROB	4.684	n/a	n/a	-999	5	[9, 9, 5]	23	FR1	0	R1089P
591.372	2.9	537125	PROB	2.9	n/a	n/a	-999	5	[3, 4, 7]	14	FR1	0	R1089P
594.272	2.468	538574	PROB	2.468	n/a	n/a	-999	5	[3, 7, 2]	12	FR1	0	R1089P
596.74	4.101	539808	PROB	4.101	n/a	n/a	-999	5	[4, 9, 5]	18	FR1	0	R1089P
600.841	4.434	541859	PROB	4.434	n/a	n/a	-999	5	[6, 8, 5]	19	FR1	0	R1089P
605.275	0.015	544076	STOP	n/a	n/a	n/a	-999	5	[-999, -999, -999]	n/a	FR1	0	R1089P
605.29	1.119	544083	DISTRACT_END	n/a	n/a	n/a	-999	5	[0, 0, 0]	n/a	FR1	0	R1089P
606.409	10.422	544643	REC_START	n/a	n/a	n/a	-999	5	[0, 0, 0]	n/a	FR1	0	R1089P
616.831	19.588	549853	REC_WORD_VV	19.588	n/a	<>	-999	5	[0, 0, 0]	n/a	FR1	0	R1089P
636.419	2.945	559647	REC_END	n/a	n/a	n/a	-999	5	[0, 0, 0]	n/a	FR1	0	R1089P
639.364	0.001	561119	COUNTDOWN_START	n/a	n/a	n/a	-999	6	[0, 0, 0]	n/a	FR1	0	R1089P
639.365	10.427	561120	TRIAL	n/a	n/a	n/a	-999	6	[0, 0, 0]	n/a	FR1	0	R1089P
649.792	0.008	566333	COUNTDOWN_END	n/a	n/a	n/a	-999	6	[0, 0, 0]	n/a	FR1	0	R1089P
649.8	2.483	566337	ORIENT	n/a	n/a	n/a	-999	6	[0, 0, 0]	n/a	FR1	0	R1089P
652.283	2.384	567578	WORD	n/a	wordpools/wordpool_EN.txt	PLANE	1	6	[0, 0, 0]	n/a	FR1	0	R1089P
654.667	2.55	568770	WORD	n/a	wordpools/wordpool_EN.txt	EAR	2	6	[0, 0, 0]	n/a	FR1	0	R1089P
657.217	2.501	570045	WORD	n/a	wordpools/wordpool_EN.txt	STRING	3	6	[0, 0, 0]	n/a	FR1	0	R1089P
659.718	2.416	571296	WORD	n/a	wordpools/wordpool_EN.txt	LOCK	4	6	[0, 0, 0]	n/a	FR1	0	R1089P
662.134	2.469	572504	WORD	n/a	wordpools/wordpool_EN.txt	PLATE	5	6	[0, 0, 0]	n/a	FR1	0	R1089P
664.603	2.416	573738	WORD	n/a	wordpools/wordpool_EN.txt	TOOL	6	6	[0, 0, 0]	n/a	FR1	0	R1089P
667.019	2.384	574946	WORD	n/a	wordpools/wordpool_EN.txt	NEST	7	6	[0, 0, 0]	n/a	FR1	0	R1089P
669.403	2.517	576138	WORD	n/a	wordpools/wordpool_EN.txt	EEL	8	6	[0, 0, 0]	n/a	FR1	0	R1089P
671.92	2.383	577396	WORD	n/a	wordpools/wordpool_EN.txt	JET	9	6	[0, 0, 0]	n/a	FR1	0	R1089P
674.303	2.485	578588	WORD	n/a	wordpools/wordpool_EN.txt	CONE	10	6	[0, 0, 0]	n/a	FR1	0	R1089P
676.788	2.433	579830	WORD	n/a	wordpools/wordpool_EN.txt	INK	11	6	[0, 0, 0]	n/a	FR1	0	R1089P
679.221	1.618	581047	WORD	n/a	wordpools/wordpool_EN.txt	HAWK	12	6	[0, 0, 0]	n/a	FR1	0	R1089P
680.839	0.001	581856	DISTRACT_START	n/a	n/a	n/a	-999	6	[0, 0, 0]	n/a	FR1	0	R1089P
680.84	0.016	581856	START	n/a	n/a	n/a	-999	6	[-999, -999, -999]	n/a	FR1	0	R1089P
680.856	5.584	581864	PROB	5.584	n/a	n/a	-999	6	[3, 6, 2]	11	FR1	0	R1089P
686.44	3.6	584656	PROB	3.6	n/a	n/a	-999	6	[4, 1, 7]	12	FR1	0	R1089P
690.04	2.851	586456	PROB	2.851	n/a	n/a	-999	6	[8, 6, 1]	15	FR1	0	R1089P
692.891	2.901	587881	PROB	2.901	n/a	n/a	-999	6	[7, 3, 8]	18	FR1	0	R1089P
695.792	3.1	589332	PROB	3.1	n/a	n/a	-999	6	[7, 5, 5]	17	FR1	0	R1089P
698.892	2.111	590882	PROB	2.111	n/a	n/a	-999	6	[5, 3, 3]	11	FR1	0	R1089P
701.003	0.005	591937	STOP	n/a	n/a	n/a	-999	6	[-999, -999, -999]	n/a	FR1	0	R1089P
701.008	1.102	591940	DISTRACT_END	n/a	n/a	n/a	-999	6	[0, 0, 0]	n/a	FR1	0	R1089P
702.11	1.811	592491	REC_START	n/a	n/a	n/a	-999	6	[0, 0, 0]	n/a	FR1	0	R1089P
703.921	4.805	593396	REC_WORD	4.805	n/a	STRING	-999	6	[0, 0, 0]	n/a	FR1	0	R1089P
708.726	15.784	595798	REC_WORD	15.784	n/a	CONE	-999	6	[0, 0, 0]	n/a	FR1	0	R1089P
724.51	4.507	603690	REC_WORD_VV	4.507	n/a	<>	-999	6	[0, 0, 0]	n/a	FR1	0	R1089P
729.017	3.101	605943	REC_WORD	3.101	n/a	HAWK	-999	6	[0, 0, 0]	n/a	FR1	0	R1089P
732.118	3.731	607494	REC_END	n/a	n/a	n/a	-999	6	[0, 0, 0]	n/a	FR1	0	R1089P
735.849	0.0	609359	TRIAL	n/a	n/a	n/a	-999	7	[0, 0, 0]	n/a	FR1	0	R1089P
735.849	10.428	609359	COUNTDOWN_START	n/a	n/a	n/a	-999	7	[0, 0, 0]	n/a	FR1	0	R1089P
746.277	0.006	614573	COUNTDOWN_END	n/a	n/a	n/a	-999	7	[0, 0, 0]	n/a	FR1	0	R1089P
746.283	2.519	614576	ORIENT	n/a	n/a	n/a	-999	7	[0, 0, 0]	n/a	FR1	0	R1089P
748.802	2.6	615835	WORD	n/a	wordpools/wordpool_EN.txt	DRESS	1	7	[0, 0, 0]	n/a	FR1	0	R1089P
751.402	2.516	617135	WORD	n/a	wordpools/wordpool_EN.txt	TOOTH	2	7	[0, 0, 0]	n/a	FR1	0	R1089P
753.918	2.535	618393	WORD	n/a	wordpools/wordpool_EN.txt	HOLE	3	7	[0, 0, 0]	n/a	FR1	0	R1089P
756.453	2.566	619661	WORD	n/a	wordpools/wordpool_EN.txt	PASTE	4	7	[0, 0, 0]	n/a	FR1	0	R1089P
759.019	2.368	620944	WORD	n/a	wordpools/wordpool_EN.txt	DESK	5	7	[0, 0, 0]	n/a	FR1	0	R1089P
761.387	2.616	622128	WORD	n/a	wordpools/wordpool_EN.txt	PEAR	6	7	[0, 0, 0]	n/a	FR1	0	R1089P
764.003	2.402	623436	WORD	n/a	wordpools/wordpool_EN.txt	SMILE	7	7	[0, 0, 0]	n/a	FR1	0	R1089P
766.405	2.417	624636	WORD	n/a	wordpools/wordpool_EN.txt	BEAK	8	7	[0, 0, 0]	n/a	FR1	0	R1089P
768.822	2.416	625845	WORD	n/a	wordpools/wordpool_EN.txt	SHOE	9	7	[0, 0, 0]	n/a	FR1	0	R1089P
771.238	2.635	627053	WORD	n/a	wordpools/wordpool_EN.txt	PEN	10	7	[0, 0, 0]	n/a	FR1	0	R1089P
773.873	2.399	628370	WORD	n/a	wordpools/wordpool_EN.txt	PALM	11	7	[0, 0, 0]	n/a	FR1	0	R1089P
776.272	1.601	629570	WORD	n/a	wordpools/wordpool_EN.txt	FORK	12	7	[0, 0, 0]	n/a	FR1	0	R1089P
777.873	0.001	630370	DISTRACT_START	n/a	n/a	n/a	-999	7	[0, 0, 0]	n/a	FR1	0	R1089P
777.874	0.016	630371	START	n/a	n/a	n/a	-999	7	[-999, -999, -999]	n/a	FR1	0	R1089P
777.89	5.551	630379	PROB	5.551	n/a	n/a	-999	7	[2, 4, 7]	13	FR1	0	R1089P
783.441	2.401	633154	PROB	2.401	n/a	n/a	-999	7	[7, 5, 2]	14	FR1	0	R1089P
785.842	5.117	634354	PROB	5.117	n/a	n/a	-999	7	[9, 2, 1]	12	FR1	0	R1089P
790.959	3.35	636913	PROB	3.35	n/a	n/a	-999	7	[1, 3, 2]	6	FR1	0	R1089P
794.309	3.335	638588	PROB	3.335	n/a	n/a	-999	7	[4, 8, 9]	21	FR1	0	R1089P
797.644	3.463	640255	PROB	3.463	n/a	n/a	-999	7	[3, 8, 4]	15	FR1	0	R1089P
801.107	0.02	641987	STOP	n/a	n/a	n/a	-999	7	[-999, -999, -999]	n/a	FR1	0	R1089P
801.127	1.034	641997	DISTRACT_END	n/a	n/a	n/a	-999	7	[0, 0, 0]	n/a	FR1	0	R1089P
802.161	2.25	642513	REC_START	n/a	n/a	n/a	-999	7	[0, 0, 0]	n/a	FR1	0	R1089P
804.411	11.629	643638	REC_WORD	11.629	n/a	DRESS	-999	7	[0, 0, 0]	n/a	FR1	0	R1089P
816.04	16.135	649453	REC_WORD	16.135	n/a	SHOE	-999	7	[0, 0, 0]	n/a	FR1	0	R1089P
832.175	2.659	657520	REC_END	n/a	n/a	n/a	-999	7	[0, 0, 0]	n/a	FR1	0	R1089P
834.834	0.001	658849	COUNTDOWN_START	n/a	n/a	n/a	-999	8	[0, 0, 0]	n/a	FR1	0	R1089P
834.835	10.427	658850	TRIAL	n/a	n/a	n/a	-999	8	[0, 0, 0]	n/a	FR1	0	R1089P
845.262	0.007	664063	COUNTDOWN_END	n/a	n/a	n/a	-999	8	[0, 0, 0]	n/a	FR1	0	R1089P
845.269	2.618	664066	ORIENT	n/a	n/a	n/a	-999	8	[0, 0, 0]	n/a	FR1	0	R1089P
847.887	2.55	665375	WORD	n/a	wordpools/wordpool_EN.txt	PIG	1	8	[0, 0, 0]	n/a	FR1	0	R1089P
850.437	2.533	666650	WORD	n/a	wordpools/wordpool_EN.txt	BAG	2	8	[0, 0, 0]	n/a	FR1	0	R1089P
852.97	2.452	667917	WORD	n/a	wordpools/wordpool_EN.txt	TOE	3	8	[0, 0, 0]	n/a	FR1	0	R1089P
855.422	2.499	669143	WORD	n/a	wordpools/wordpool_EN.txt	BUSH	4	8	[0, 0, 0]	n/a	FR1	0	R1089P
857.921	2.618	670392	WORD	n/a	wordpools/wordpool_EN.txt	HILL	5	8	[0, 0, 0]	n/a	FR1	0	R1089P
860.539	2.4	671701	WORD	n/a	wordpools/wordpool_EN.txt	GATE	6	8	[0, 0, 0]	n/a	FR1	0	R1089P
862.939	2.484	672901	WORD	n/a	wordpools/wordpool_EN.txt	FROG	7	8	[0, 0, 0]	n/a	FR1	0	R1089P
865.423	2.451	674143	WORD	n/a	wordpools/wordpool_EN.txt	BOOT	8	8	[0, 0, 0]	n/a	FR1	0	R1089P
867.874	2.584	675368	WORD	n/a	wordpools/wordpool_EN.txt	GUARD	9	8	[0, 0, 0]	n/a	FR1	0	R1089P
870.458	2.433	676660	WORD	n/a	wordpools/wordpool_EN.txt	CHIN	10	8	[0, 0, 0]	n/a	FR1	0	R1089P
872.891	2.534	677877	WORD	n/a	wordpools/wordpool_EN.txt	CAGE	11	8	[0, 0, 0]	n/a	FR1	0	R1089P
875.425	1.616	679144	WORD	n/a	wordpools/wordpool_EN.txt	DOCK	12	8	[0, 0, 0]	n/a	FR1	0	R1089P
877.041	0.001	679952	DISTRACT_START	n/a	n/a	n/a	-999	8	[0, 0, 0]	n/a	FR1	0	R1089P
877.042	0.016	679952	START	n/a	n/a	n/a	-999	8	[-999, -999, -999]	n/a	FR1	0	R1089P
877.058	2.95	679960	PROB	2.95	n/a	n/a	-999	8	[7, 7, 7]	21	FR1	0	R1089P
880.008	2.352	681435	PROB	2.352	n/a	n/a	-999	8	[1, 3, 1]	5	FR1	0	R1089P
882.36	3.084	682611	PROB	3.084	n/a	n/a	-999	8	[1, 3, 4]	8	FR1	0	R1089P
885.444	3.234	684153	PROB	3.234	n/a	n/a	-999	8	[9, 9, 4]	22	FR1	0	R1089P
888.678	3.466	685770	PROB	3.466	n/a	n/a	-999	8	[9, 3, 3]	15	FR1	0	R1089P
892.144	3.017	687503	PROB	3.017	n/a	n/a	-999	8	[5, 8, 4]	17	FR1	0	R1089P
895.161	3.651	689011	PROB	3.651	n/a	n/a	-999	8	[4, 8, 9]	21	FR1	0	R1089P
898.812	0.018	690836	STOP	n/a	n/a	n/a	-999	8	[-999, -999, -999]	n/a	FR1	0	R1089P
898.83	1.1	690845	DISTRACT_END	n/a	n/a	n/a	-999	8	[0, 0, 0]	n/a	FR1	0	R1089P
899.93	8.564	691395	REC_START	n/a	n/a	n/a	-999	8	[0, 0, 0]	n/a	FR1	0	R1089P
908.494	2.121	695677	REC_WORD	2.121	n/a	PIG	-999	8	[0, 0, 0]	n/a	FR1	0	R1089P
910.615	3.635	696738	REC_WORD	3.635	n/a	GOAT	-999	8	[0, 0, 0]	n/a	FR1	0	R1089P
914.25	15.69	698555	REC_WORD	15.69	n/a	STRING	-999	8	[0, 0, 0]	n/a	FR1	0	R1089P
929.94	2.328	706400	REC_END	n/a	n/a	n/a	-999	8	[0, 0, 0]	n/a	FR1	0	R1089P
932.268	0.001	707564	COUNTDOWN_START	n/a	n/a	n/a	-999	9	[0, 0, 0]	n/a	FR1	0	R1089P
932.269	10.427	707564	TRIAL	n/a	n/a	n/a	-999	9	[0, 0, 0]	n/a	FR1	0	R1089P
942.696	0.008	712777	COUNTDOWN_END	n/a	n/a	n/a	-999	9	[0, 0, 0]	n/a	FR1	0	R1089P
942.704	2.417	712781	ORIENT	n/a	n/a	n/a	-999	9	[0, 0, 0]	n/a	FR1	0	R1089P
945.121	2.501	713990	WORD	n/a	wordpools/wordpool_EN.txt	SEED	1	9	[0, 0, 0]	n/a	FR1	0	R1089P
947.622	2.483	715240	WORD	n/a	wordpools/wordpool_EN.txt	PLANT	2	9	[0, 0, 0]	n/a	FR1	0	R1089P
950.105	2.468	716482	WORD	n/a	wordpools/wordpool_EN.txt	STONE	3	9	[0, 0, 0]	n/a	FR1	0	R1089P
952.573	2.599	717716	WORD	n/a	wordpools/wordpool_EN.txt	SLIME	4	9	[0, 0, 0]	n/a	FR1	0	R1089P
955.172	2.535	719015	WORD	n/a	wordpools/wordpool_EN.txt	CLOCK	5	9	[0, 0, 0]	n/a	FR1	0	R1089P
957.707	2.45	720282	WORD	n/a	wordpools/wordpool_EN.txt	STEM	6	9	[0, 0, 0]	n/a	FR1	0	R1089P
960.157	2.451	721507	WORD	n/a	wordpools/wordpool_EN.txt	HEART	7	9	[0, 0, 0]	n/a	FR1	0	R1089P
962.608	2.616	722733	WORD	n/a	wordpools/wordpool_EN.txt	CLAY	8	9	[0, 0, 0]	n/a	FR1	0	R1089P
965.224	2.385	724041	WORD	n/a	wordpools/wordpool_EN.txt	MOUSE	9	9	[0, 0, 0]	n/a	FR1	0	R1089P
967.609	2.616	725233	WORD	n/a	wordpools/wordpool_EN.txt	BOOK	10	9	[0, 0, 0]	n/a	FR1	0	R1089P
970.225	2.535	726541	WORD	n/a	wordpools/wordpool_EN.txt	PEARL	11	9	[0, 0, 0]	n/a	FR1	0	R1089P
972.76	1.617	727808	WORD	n/a	wordpools/wordpool_EN.txt	JUDGE	12	9	[0, 0, 0]	n/a	FR1	0	R1089P
974.377	0.001	728617	DISTRACT_START	n/a	n/a	n/a	-999	9	[0, 0, 0]	n/a	FR1	0	R1089P
974.378	0.016	728617	START	n/a	n/a	n/a	-999	9	[-999, -999, -999]	n/a	FR1	0	R1089P
974.394	8.351	728625	PROB	8.351	n/a	n/a	-999	9	[1, 6, 3]	10	FR1	0	R1089P
982.745	3.951	732801	PROB	3.951	n/a	n/a	-999	9	[1, 2, 5]	8	FR1	0	R1089P
986.696	2.951	734776	PROB	2.951	n/a	n/a	-999	9	[9, 6, 7]	22	FR1	0	R1089P
989.647	2.649	736252	PROB	2.649	n/a	n/a	-999	9	[4, 3, 6]	13	FR1	0	R1089P
992.296	1.984	737576	PROB	1.984	n/a	n/a	-999	9	[3, 5, 5]	13	FR1	0	R1089P
994.28	8.164	738568	PROB	8.164	n/a	n/a	-999	9	[4, 8, 5]	17	FR1	0	R1089P
1002.444	0.005	742650	STOP	n/a	n/a	n/a	-999	9	[-999, -999, -999]	n/a	FR1	0	R1089P
1002.449	1.168	742652	DISTRACT_END	n/a	n/a	n/a	-999	9	[0, 0, 0]	n/a	FR1	0	R1089P
1003.617	30.0	743236	REC_START	n/a	n/a	n/a	-999	9	[0, 0, 0]	n/a	FR1	0	R1089P
1033.617	0.01	758235	REC_WORD_VV	0.01	n/a	<>	-999	9	[0, 0, 0]	n/a	FR1	0	R1089P
1033.627	2.095	758240	REC_END	n/a	n/a	n/a	-999	9	[0, 0, 0]	n/a	FR1	0	R1089P
1035.722	0.0	759288	TRIAL	n/a	n/a	n/a	-999	10	[0, 0, 0]	n/a	FR1	0	R1089P
1035.722	10.428	759288	COUNTDOWN_START	n/a	n/a	n/a	-999	10	[0, 0, 0]	n/a	FR1	0	R1089P
1046.15	0.006	764502	COUNTDOWN_END	n/a	n/a	n/a	-999	10	[0, 0, 0]	n/a	FR1	0	R1089P
1046.156	2.602	764505	ORIENT	n/a	n/a	n/a	-999	10	[0, 0, 0]	n/a	FR1	0	R1089P
1048.758	2.482	765805	WORD	n/a	wordpools/wordpool_EN.txt	NET	1	10	[0, 0, 0]	n/a	FR1	0	R1089P
1051.24	2.585	767046	WORD	n/a	wordpools/wordpool_EN.txt	MOLE	2	10	[0, 0, 0]	n/a	FR1	0	R1089P
1053.825	2.584	768339	WORD	n/a	wordpools/wordpool_EN.txt	THREAD	3	10	[0, 0, 0]	n/a	FR1	0	R1089P
1056.409	2.499	769631	WORD	n/a	wordpools/wordpool_EN.txt	STAR	4	10	[0, 0, 0]	n/a	FR1	0	R1089P
1058.908	2.502	770880	WORD	n/a	wordpools/wordpool_EN.txt	SHELL	5	10	[0, 0, 0]	n/a	FR1	0	R1089P
1061.41	2.616	772131	WORD	n/a	wordpools/wordpool_EN.txt	SNOW	6	10	[0, 0, 0]	n/a	FR1	0	R1089P
1064.026	2.601	773439	WORD	n/a	wordpools/wordpool_EN.txt	SHEET	7	10	[0, 0, 0]	n/a	FR1	0	R1089P
1066.627	2.467	774740	WORD	n/a	wordpools/wordpool_EN.txt	BALL	8	10	[0, 0, 0]	n/a	FR1	0	R1089P
1069.094	2.468	775973	WORD	n/a	wordpools/wordpool_EN.txt	CLOTH	9	10	[0, 0, 0]	n/a	FR1	0	R1089P
1071.562	2.416	777207	WORD	n/a	wordpools/wordpool_EN.txt	CLOUD	10	10	[0, 0, 0]	n/a	FR1	0	R1089P
1073.978	2.552	778415	WORD	n/a	wordpools/wordpool_EN.txt	WHEEL	11	10	[0, 0, 0]	n/a	FR1	0	R1089P
1076.53	1.615	779691	WORD	n/a	wordpools/wordpool_EN.txt	SHARK	12	10	[0, 0, 0]	n/a	FR1	0	R1089P
1078.145	0.001	780498	DISTRACT_START	n/a	n/a	n/a	-999	10	[0, 0, 0]	n/a	FR1	0	R1089P
1078.146	0.016	780499	START	n/a	n/a	n/a	-999	10	[-999, -999, -999]	n/a	FR1	0	R1089P
1078.162	3.502	780507	PROB	3.502	n/a	n/a	-999	10	[1, 3, 7]	11	FR1	0	R1089P
1081.664	3.817	782258	PROB	3.817	n/a	n/a	-999	10	[8, 2, 8]	18	FR1	0	R1089P
1085.481	4.384	784166	PROB	4.384	n/a	n/a	-999	10	[7, 7, 2]	16	FR1	0	R1089P
1089.865	3.067	786358	PROB	3.067	n/a	n/a	-999	10	[6, 9, 6]	21	FR1	0	R1089P
1092.932	2.4	787891	PROB	2.4	n/a	n/a	-999	10	[1, 6, 6]	13	FR1	0	R1089P
1095.332	3.112	789091	PROB	3.112	n/a	n/a	-999	10	[7, 5, 4]	16	FR1	0	R1089P
1098.444	0.006	790647	STOP	n/a	n/a	n/a	-999	10	[-999, -999, -999]	n/a	FR1	0	R1089P
1098.45	1.168	790650	DISTRACT_END	n/a	n/a	n/a	-999	10	[0, 0, 0]	n/a	FR1	0	R1089P
1099.618	4.711	791234	REC_START	n/a	n/a	n/a	-999	10	[0, 0, 0]	n/a	FR1	0	R1089P
1104.329	6.13	793590	REC_WORD_VV	6.13	n/a	<>	-999	10	[0, 0, 0]	n/a	FR1	0	R1089P
1110.459	7.794	796654	REC_WORD	7.794	n/a	STRAW	-999	10	[0, 0, 0]	n/a	FR1	0	R1089P
1118.253	11.375	800551	REC_WORD	11.375	n/a	NET	-999	10	[0, 0, 0]	n/a	FR1	0	R1089P
1129.628	3.262	806238	REC_END	n/a	n/a	n/a	-999	10	[0, 0, 0]	n/a	FR1	0	R1089P
1132.89	0.0	807869	TRIAL	n/a	n/a	n/a	-999	11	[0, 0, 0]	n/a	FR1	0	R1089P
1132.89	10.428	807869	COUNTDOWN_START	n/a	n/a	n/a	-999	11	[0, 0, 0]	n/a	FR1	0	R1089P
1143.318	0.006	813083	COUNTDOWN_END	n/a	n/a	n/a	-999	11	[0, 0, 0]	n/a	FR1	0	R1089P
1143.324	2.418	813086	ORIENT	n/a	n/a	n/a	-999	11	[0, 0, 0]	n/a	FR1	0	R1089P
1145.742	2.533	814295	WORD	n/a	wordpools/wordpool_EN.txt	SWORD	1	11	[0, 0, 0]	n/a	FR1	0	R1089P
1148.275	2.552	815561	WORD	n/a	wordpools/wordpool_EN.txt	PARK	2	11	[0, 0, 0]	n/a	FR1	0	R1089P
1150.827	2.6	816837	WORD	n/a	wordpools/wordpool_EN.txt	AXE	3	11	[0, 0, 0]	n/a	FR1	0	R1089P
1153.427	2.6	818137	WORD	n/a	wordpools/wordpool_EN.txt	COUCH	4	11	[0, 0, 0]	n/a	FR1	0	R1089P
1156.027	2.568	819437	WORD	n/a	wordpools/wordpool_EN.txt	POOL	5	11	[0, 0, 0]	n/a	FR1	0	R1089P
1158.595	2.383	820721	WORD	n/a	wordpools/wordpool_EN.txt	BANK	6	11	[0, 0, 0]	n/a	FR1	0	R1089P
1160.978	2.501	821913	WORD	n/a	wordpools/wordpool_EN.txt	FOAM	7	11	[0, 0, 0]	n/a	FR1	0	R1089P
1163.479	2.583	823163	WORD	n/a	wordpools/wordpool_EN.txt	WEED	8	11	[0, 0, 0]	n/a	FR1	0	R1089P
1166.062	2.501	824454	WORD	n/a	wordpools/wordpool_EN.txt	BED	9	11	[0, 0, 0]	n/a	FR1	0	R1089P
1168.563	2.6	825705	WORD	n/a	wordpools/wordpool_EN.txt	SINK	10	11	[0, 0, 0]	n/a	FR1	0	R1089P
1171.163	2.485	827005	WORD	n/a	wordpools/wordpool_EN.txt	HOUSE	11	11	[0, 0, 0]	n/a	FR1	0	R1089P
1173.648	1.616	828247	WORD	n/a	wordpools/wordpool_EN.txt	MUG	12	11	[0, 0, 0]	n/a	FR1	0	R1089P
1175.264	0.001	829055	DISTRACT_START	n/a	n/a	n/a	-999	11	[0, 0, 0]	n/a	FR1	0	R1089P
1175.265	0.015	829056	START	n/a	n/a	n/a	-999	11	[-999, -999, -999]	n/a	FR1	0	R1089P
1175.28	3.452	829063	PROB	3.452	n/a	n/a	-999	11	[2, 2, 7]	11	FR1	0	R1089P
1178.732	1.7	830789	PROB	1.7	n/a	n/a	-999	11	[4, 4, 4]	12	FR1	0	R1089P
1180.432	3.75	831639	PROB	3.75	n/a	n/a	-999	11	[5, 8, 4]	17	FR1	0	R1089P
1184.182	2.917	833514	PROB	2.917	n/a	n/a	-999	11	[2, 9, 3]	14	FR1	0	R1089P
1187.099	3.352	834972	PROB	3.352	n/a	n/a	-999	11	[4, 5, 8]	17	FR1	0	R1089P
1190.451	3.167	836648	PROB	3.167	n/a	n/a	-999	11	[6, 8, 6]	20	FR1	0	R1089P
1193.618	4.353	838232	PROB	4.353	n/a	n/a	-999	11	[2, 7, 1]	10	FR1	0	R1089P
1197.971	0.014	840408	STOP	n/a	n/a	n/a	-999	11	[-999, -999, -999]	n/a	FR1	0	R1089P
1197.985	1.137	840415	DISTRACT_END	n/a	n/a	n/a	-999	11	[0, 0, 0]	n/a	FR1	0	R1089P
1199.122	1.249	840984	REC_START	n/a	n/a	n/a	-999	11	[0, 0, 0]	n/a	FR1	0	R1089P
1200.371	1.148	841608	REC_WORD	1.148	n/a	AXE	-999	11	[0, 0, 0]	n/a	FR1	0	R1089P
1201.519	18.308	842182	REC_WORD	18.308	n/a	SWORD	-999	11	[0, 0, 0]	n/a	FR1	0	R1089P
1219.827	9.302	851335	REC_WORD	9.302	n/a	PALM	-999	11	[0, 0, 0]	n/a	FR1	0	R1089P
1229.129	1.962	855986	REC_END	n/a	n/a	n/a	-999	11	[0, 0, 0]	n/a	FR1	0	R1089P
1231.091	0.0	856967	TRIAL	n/a	n/a	n/a	-999	12	[0, 0, 0]	n/a	FR1	0	R1089P
1231.091	10.428	856967	COUNTDOWN_START	n/a	n/a	n/a	-999	12	[0, 0, 0]	n/a	FR1	0	R1089P
1241.519	0.008	862181	COUNTDOWN_END	n/a	n/a	n/a	-999	12	[0, 0, 0]	n/a	FR1	0	R1089P
1241.527	2.383	862185	ORIENT	n/a	n/a	n/a	-999	12	[0, 0, 0]	n/a	FR1	0	R1089P
1243.91	2.501	863376	WORD	n/a	wordpools/wordpool_EN.txt	TAIL	1	12	[0, 0, 0]	n/a	FR1	0	R1089P
1246.411	2.451	864627	WORD	n/a	wordpools/wordpool_EN.txt	FOOD	2	12	[0, 0, 0]	n/a	FR1	0	R1089P
1248.862	2.567	865852	WORD	n/a	wordpools/wordpool_EN.txt	DEER	3	12	[0, 0, 0]	n/a	FR1	0	R1089P
1251.429	2.467	867136	WORD	n/a	wordpools/wordpool_EN.txt	ARK	4	12	[0, 0, 0]	n/a	FR1	0	R1089P
1253.896	2.534	868369	WORD	n/a	wordpools/wordpool_EN.txt	TREE	5	12	[0, 0, 0]	n/a	FR1	0	R1089P
1256.43	2.499	869636	WORD	n/a	wordpools/wordpool_EN.txt	CALF	6	12	[0, 0, 0]	n/a	FR1	0	R1089P
1258.929	2.485	870885	WORD	n/a	wordpools/wordpool_EN.txt	WOOD	7	12	[0, 0, 0]	n/a	FR1	0	R1089P
1261.414	2.451	872128	WORD	n/a	wordpools/wordpool_EN.txt	TIE	8	12	[0, 0, 0]	n/a	FR1	0	R1089P
1263.865	2.533	873353	WORD	n/a	wordpools/wordpool_EN.txt	RAKE	9	12	[0, 0, 0]	n/a	FR1	0	R1089P
1266.398	2.417	874620	WORD	n/a	wordpools/wordpool_EN.txt	PEACH	10	12	[0, 0, 0]	n/a	FR1	0	R1089P
1268.815	2.517	875828	WORD	n/a	wordpools/wordpool_EN.txt	FENCE	11	12	[0, 0, 0]	n/a	FR1	0	R1089P
1271.332	1.617	877087	WORD	n/a	wordpools/wordpool_EN.txt	WEB	12	12	[0, 0, 0]	n/a	FR1	0	R1089P
1272.949	0.001	877895	DISTRACT_START	n/a	n/a	n/a	-999	12	[0, 0, 0]	n/a	FR1	0	R1089P
1272.95	0.015	877896	START	n/a	n/a	n/a	-999	12	[-999, -999, -999]	n/a	FR1	0	R1089P
1272.965	5.569	877903	PROB	5.569	n/a	n/a	-999	12	[7, 2, 1]	10	FR1	0	R1089P
1278.534	3.317	880687	PROB	3.317	n/a	n/a	-999	12	[7, 6, 7]	20	FR1	0	R1089P
1281.851	5.084	882346	PROB	5.084	n/a	n/a	-999	12	[8, 8, 9]	25	FR1	0	R1089P
1286.935	3.801	884888	PROB	3.801	n/a	n/a	-999	12	[5, 2, 1]	8	FR1	0	R1089P
1290.736	5.996	886788	PROB	5.996	n/a	n/a	-999	12	[8, 9, 6]	23	FR1	0	R1089P
1296.732	0.005	889786	STOP	n/a	n/a	n/a	-999	12	[-999, -999, -999]	n/a	FR1	0	R1089P
1296.737	1.134	889788	DISTRACT_END	n/a	n/a	n/a	-999	12	[0, 0, 0]	n/a	FR1	0	R1089P
1297.871	5.841	890355	REC_START	n/a	n/a	n/a	-999	12	[0, 0, 0]	n/a	FR1	0	R1089P
1303.712	24.17	893276	REC_WORD	24.17	n/a	FOOD	-999	12	[0, 0, 0]	n/a	FR1	0	R1089P
1327.882	2.244	905360	REC_END	n/a	n/a	n/a	-999	12	[0, 0, 0]	n/a	FR1	0	R1089P
1330.126	0.0	906482	TRIAL	n/a	n/a	n/a	-999	13	[0, 0, 0]	n/a	FR1	0	R1089P
1330.126	10.428	906482	COUNTDOWN_START	n/a	n/a	n/a	-999	13	[0, 0, 0]	n/a	FR1	0	R1089P
1340.554	0.008	911696	COUNTDOWN_END	n/a	n/a	n/a	-999	13	[0, 0, 0]	n/a	FR1	0	R1089P
1340.562	2.549	911700	ORIENT	n/a	n/a	n/a	-999	13	[0, 0, 0]	n/a	FR1	0	R1089P
1343.111	2.385	912974	WORD	n/a	wordpools/wordpool_EN.txt	BEAN	1	13	[0, 0, 0]	n/a	FR1	0	R1089P
1345.496	2.483	914167	WORD	n/a	wordpools/wordpool_EN.txt	CRANE	2	13	[0, 0, 0]	n/a	FR1	0	R1089P
1347.979	2.585	915408	WORD	n/a	wordpools/wordpool_EN.txt	GOAT	3	13	[0, 0, 0]	n/a	FR1	0	R1089P
1350.564	2.566	916701	WORD	n/a	wordpools/wordpool_EN.txt	TOY	4	13	[0, 0, 0]	n/a	FR1	0	R1089P
1353.13	2.568	917983	WORD	n/a	wordpools/wordpool_EN.txt	TOAD	5	13	[0, 0, 0]	n/a	FR1	0	R1089P
1355.698	2.467	919267	WORD	n/a	wordpools/wordpool_EN.txt	TOAST	6	13	[0, 0, 0]	n/a	FR1	0	R1089P
1358.165	2.584	920501	WORD	n/a	wordpools/wordpool_EN.txt	JAR	7	13	[0, 0, 0]	n/a	FR1	0	R1089P
1360.749	2.5	921793	WORD	n/a	wordpools/wordpool_EN.txt	BRIDGE	8	13	[0, 0, 0]	n/a	FR1	0	R1089P
1363.249	2.501	923043	WORD	n/a	wordpools/wordpool_EN.txt	BIRD	9	13	[0, 0, 0]	n/a	FR1	0	R1089P
1365.75	2.416	924293	WORD	n/a	wordpools/wordpool_EN.txt	DUCK	10	13	[0, 0, 0]	n/a	FR1	0	R1089P
1368.166	2.518	925501	WORD	n/a	wordpools/wordpool_EN.txt	COW	11	13	[0, 0, 0]	n/a	FR1	0	R1089P
1370.684	1.616	926760	WORD	n/a	wordpools/wordpool_EN.txt	WORM	12	13	[0, 0, 0]	n/a	FR1	0	R1089P
1372.3	0.001	927568	DISTRACT_START	n/a	n/a	n/a	-999	13	[0, 0, 0]	n/a	FR1	0	R1089P
1372.301	0.016	927568	START	n/a	n/a	n/a	-999	13	[-999, -999, -999]	n/a	FR1	0	R1089P
1372.317	6.202	927576	PROB	6.202	n/a	n/a	-999	13	[8, 6, 4]	18	FR1	0	R1089P
1378.519	3.901	930677	PROB	3.901	n/a	n/a	-999	13	[8, 8, 9]	25	FR1	0	R1089P
1382.42	2.034	932628	PROB	2.034	n/a	n/a	-999	13	[2, 2, 2]	6	FR1	0	R1089P
1384.454	10.246	933645	PROB	10.246	n/a	n/a	-999	13	[8, 7, 2]	17	FR1	0	R1089P
1394.7	0.005	938767	STOP	n/a	n/a	n/a	-999	13	[-999, -999, -999]	n/a	FR1	0	R1089P
1394.705	1.085	938770	DISTRACT_END	n/a	n/a	n/a	-999	13	[0, 0, 0]	n/a	FR1	0	R1089P
1395.79	2.835	939312	REC_START	n/a	n/a	n/a	-999	13	[0, 0, 0]	n/a	FR1	0	R1089P
1398.625	1.156	940730	REC_WORD	1.156	n/a	GOAT	-999	13	[0, 0, 0]	n/a	FR1	0	R1089P
1399.781	6.677	941308	REC_WORD	6.677	n/a	BEAN	-999	13	[0, 0, 0]	n/a	FR1	0	R1089P
1406.458	6.028	944646	REC_WORD_VV	6.028	n/a	<>	-999	13	[0, 0, 0]	n/a	FR1	0	R1089P
1412.486	13.314	947660	REC_WORD	13.314	n/a	PALM	-999	13	[0, 0, 0]	n/a	FR1	0	R1089P
1425.8	2.111	954317	REC_END	n/a	n/a	n/a	-999	13	[0, 0, 0]	n/a	FR1	0	R1089P
1427.911	0.0	955372	COUNTDOWN_START	n/a	n/a	n/a	-999	14	[0, 0, 0]	n/a	FR1	0	R1089P
1427.911	10.428	955372	TRIAL	n/a	n/a	n/a	-999	14	[0, 0, 0]	n/a	FR1	0	R1089P
1438.339	0.007	960586	COUNTDOWN_END	n/a	n/a	n/a	-999	14	[0, 0, 0]	n/a	FR1	0	R1089P
1438.346	2.485	960589	ORIENT	n/a	n/a	n/a	-999	14	[0, 0, 0]	n/a	FR1	0	R1089P
1440.831	2.499	961832	WORD	n/a	wordpools/wordpool_EN.txt	SPRING	1	14	[0, 0, 0]	n/a	FR1	0	R1089P
1443.33	2.601	963081	WORD	n/a	wordpools/wordpool_EN.txt	SNAKE	2	14	[0, 0, 0]	n/a	FR1	0	R1089P
1445.931	2.585	964382	WORD	n/a	wordpools/wordpool_EN.txt	KITE	3	14	[0, 0, 0]	n/a	FR1	0	R1089P
1448.516	2.482	965674	WORD	n/a	wordpools/wordpool_EN.txt	FRUIT	4	14	[0, 0, 0]	n/a	FR1	0	R1089P
1450.998	2.552	966915	WORD	n/a	wordpools/wordpool_EN.txt	FOX	5	14	[0, 0, 0]	n/a	FR1	0	R1089P
1453.55	2.566	968191	WORD	n/a	wordpools/wordpool_EN.txt	CAVE	6	14	[0, 0, 0]	n/a	FR1	0	R1089P
1456.116	2.418	969474	WORD	n/a	wordpools/wordpool_EN.txt	OWL	7	14	[0, 0, 0]	n/a	FR1	0	R1089P
1458.534	2.6	970683	WORD	n/a	wordpools/wordpool_EN.txt	YARD	8	14	[0, 0, 0]	n/a	FR1	0	R1089P
1461.134	2.535	971983	WORD	n/a	wordpools/wordpool_EN.txt	DITCH	9	14	[0, 0, 0]	n/a	FR1	0	R1089P
1463.669	2.432	973250	WORD	n/a	wordpools/wordpool_EN.txt	TEA	10	14	[0, 0, 0]	n/a	FR1	0	R1089P
1466.101	2.519	974466	WORD	n/a	wordpools/wordpool_EN.txt	BREAD	11	14	[0, 0, 0]	n/a	FR1	0	R1089P
1468.62	1.615	975725	WORD	n/a	wordpools/wordpool_EN.txt	JUICE	12	14	[0, 0, 0]	n/a	FR1	0	R1089P
1470.235	0.001	976533	DISTRACT_START	n/a	n/a	n/a	-999	14	[0, 0, 0]	n/a	FR1	0	R1089P
1470.236	0.016	976533	START	n/a	n/a	n/a	-999	14	[-999, -999, -999]	n/a	FR1	0	R1089P
1470.252	3.684	976541	PROB	3.684	n/a	n/a	-999	14	[8, 2, 2]	12	FR1	0	R1089P
1473.936	3.401	978383	PROB	3.401	n/a	n/a	-999	14	[4, 6, 8]	18	FR1	0	R1089P
1477.337	3.068	980084	PROB	3.068	n/a	n/a	-999	14	[2, 2, 8]	12	FR1	0	R1089P
1480.405	2.783	981618	PROB	2.783	n/a	n/a	-999	14	[4, 7, 5]	16	FR1	0	R1089P
1483.188	2.385	983009	PROB	2.385	n/a	n/a	-999	14	[5, 5, 7]	17	FR1	0	R1089P
1485.573	2.616	984201	PROB	2.616	n/a	n/a	-999	14	[5, 4, 1]	10	FR1	0	R1089P
1488.189	2.207	985509	PROB	2.207	n/a	n/a	-999	14	[7, 3, 2]	12	FR1	0	R1089P
1490.396	0.011	986613	STOP	n/a	n/a	n/a	-999	14	[-999, -999, -999]	n/a	FR1	0	R1089P
1490.407	1.084	986618	DISTRACT_END	n/a	n/a	n/a	-999	14	[0, 0, 0]	n/a	FR1	0	R1089P
1491.491	7.879	987160	REC_START	n/a	n/a	n/a	-999	14	[0, 0, 0]	n/a	FR1	0	R1089P
1499.37	22.131	991100	REC_WORD	22.131	n/a	TIE	-999	14	[0, 0, 0]	n/a	FR1	0	R1089P
1521.501	2.528	1002165	REC_END	n/a	n/a	n/a	-999	14	[0, 0, 0]	n/a	FR1	0	R1089P
1524.029	0.0	1003428	TRIAL	n/a	n/a	n/a	-999	15	[0, 0, 0]	n/a	FR1	0	R1089P
1524.029	10.428	1003428	COUNTDOWN_START	n/a	n/a	n/a	-999	15	[0, 0, 0]	n/a	FR1	0	R1089P
1534.457	0.008	1008642	COUNTDOWN_END	n/a	n/a	n/a	-999	15	[0, 0, 0]	n/a	FR1	0	R1089P
1534.465	2.6	1008646	ORIENT	n/a	n/a	n/a	-999	15	[0, 0, 0]	n/a	FR1	0	R1089P
1537.065	2.517	1009946	WORD	n/a	wordpools/wordpool_EN.txt	HEN	1	15	[0, 0, 0]	n/a	FR1	0	R1089P
1539.582	2.467	1011205	WORD	n/a	wordpools/wordpool_EN.txt	RICE	2	15	[0, 0, 0]	n/a	FR1	0	R1089P
1542.049	2.584	1012438	WORD	n/a	wordpools/wordpool_EN.txt	BLUSH	3	15	[0, 0, 0]	n/a	FR1	0	R1089P
1544.633	2.433	1013730	WORD	n/a	wordpools/wordpool_EN.txt	SUN	4	15	[0, 0, 0]	n/a	FR1	0	R1089P
1547.066	2.552	1014946	WORD	n/a	wordpools/wordpool_EN.txt	STREET	5	15	[0, 0, 0]	n/a	FR1	0	R1089P
1549.618	2.516	1016222	WORD	n/a	wordpools/wordpool_EN.txt	HOOK	6	15	[0, 0, 0]	n/a	FR1	0	R1089P
1552.134	2.502	1017480	WORD	n/a	wordpools/wordpool_EN.txt	HOSE	7	15	[0, 0, 0]	n/a	FR1	0	R1089P
1554.636	2.549	1018731	WORD	n/a	wordpools/wordpool_EN.txt	STORE	8	15	[0, 0, 0]	n/a	FR1	0	R1089P
1557.185	2.618	1020006	WORD	n/a	wordpools/wordpool_EN.txt	CAT	9	15	[0, 0, 0]	n/a	FR1	0	R1089P
1559.803	2.483	1021315	WORD	n/a	wordpools/wordpool_EN.txt	LAMP	10	15	[0, 0, 0]	n/a	FR1	0	R1089P
1562.286	2.568	1022556	WORD	n/a	wordpools/wordpool_EN.txt	STOVE	11	15	[0, 0, 0]	n/a	FR1	0	R1089P
1564.854	1.617	1023840	WORD	n/a	wordpools/wordpool_EN.txt	MILK	12	15	[0, 0, 0]	n/a	FR1	0	R1089P
1566.471	0.001	1024648	DISTRACT_START	n/a	n/a	n/a	-999	15	[0, 0, 0]	n/a	FR1	0	R1089P
1566.472	0.016	1024649	START	n/a	n/a	n/a	-999	15	[-999, -999, -999]	n/a	FR1	0	R1089P
1566.488	6.717	1024657	PROB	6.717	n/a	n/a	-999	15	[4, 7, 8]	19	FR1	0	R1089P
1573.205	2.8	1028015	PROB	2.8	n/a	n/a	-999	15	[1, 5, 3]	9	FR1	0	R1089P
1576.005	3.435	1029415	PROB	3.435	n/a	n/a	-999	15	[9, 8, 3]	20	FR1	0	R1089P
1579.44	2.733	1031132	PROB	2.733	n/a	n/a	-999	15	[5, 1, 9]	15	FR1	0	R1089P
1582.173	4.774	1032499	PROB	4.774	n/a	n/a	-999	15	[3, 2, 5]	10	FR1	0	R1089P
1586.947	0.01	1034886	STOP	n/a	n/a	n/a	-999	15	[-999, -999, -999]	n/a	FR1	0	R1089P
1586.957	1.151	1034891	DISTRACT_END	n/a	n/a	n/a	-999	15	[0, 0, 0]	n/a	FR1	0	R1089P
1588.108	11.722	1035466	REC_START	n/a	n/a	n/a	-999	15	[0, 0, 0]	n/a	FR1	0	R1089P
1599.83	18.288	1041327	REC_WORD	18.288	n/a	HOSE	-999	15	[0, 0, 0]	n/a	FR1	0	R1089P
1618.118	2.747	1050470	REC_END	n/a	n/a	n/a	-999	15	[0, 0, 0]	n/a	FR1	0	R1089P
1620.865	0.0	1051844	TRIAL	n/a	n/a	n/a	-999	16	[0, 0, 0]	n/a	FR1	0	R1089P
1620.865	10.428	1051844	COUNTDOWN_START	n/a	n/a	n/a	-999	16	[0, 0, 0]	n/a	FR1	0	R1089P
1631.293	0.006	1057058	COUNTDOWN_END	n/a	n/a	n/a	-999	16	[0, 0, 0]	n/a	FR1	0	R1089P
1631.299	2.501	1057061	ORIENT	n/a	n/a	n/a	-999	16	[0, 0, 0]	n/a	FR1	0	R1089P
1633.8	2.433	1058311	WORD	n/a	wordpools/wordpool_EN.txt	MOTH	1	16	[0, 0, 0]	n/a	FR1	0	R1089P
1636.233	2.468	1059527	WORD	n/a	wordpools/wordpool_EN.txt	SHIELD	2	16	[0, 0, 0]	n/a	FR1	0	R1089P
1638.701	2.6	1060761	WORD	n/a	wordpools/wordpool_EN.txt	FUDGE	3	16	[0, 0, 0]	n/a	FR1	0	R1089P
1641.301	2.518	1062061	WORD	n/a	wordpools/wordpool_EN.txt	POND	4	16	[0, 0, 0]	n/a	FR1	0	R1089P
1643.819	2.567	1063320	WORD	n/a	wordpools/wordpool_EN.txt	SAIL	5	16	[0, 0, 0]	n/a	FR1	0	R1089P
1646.386	2.6	1064604	WORD	n/a	wordpools/wordpool_EN.txt	BEE	6	16	[0, 0, 0]	n/a	FR1	0	R1089P
1648.986	2.434	1065904	WORD	n/a	wordpools/wordpool_EN.txt	ROOT	7	16	[0, 0, 0]	n/a	FR1	0	R1089P
1651.42	2.583	1067121	WORD	n/a	wordpools/wordpool_EN.txt	BOAT	8	16	[0, 0, 0]	n/a	FR1	0	R1089P
1654.003	2.568	1068412	WORD	n/a	wordpools/wordpool_EN.txt	ANT	9	16	[0, 0, 0]	n/a	FR1	0	R1089P
1656.571	2.616	1069696	WORD	n/a	wordpools/wordpool_EN.txt	WAVE	10	16	[0, 0, 0]	n/a	FR1	0	R1089P
1659.187	2.552	1071004	WORD	n/a	wordpools/wordpool_EN.txt	SPONGE	11	16	[0, 0, 0]	n/a	FR1	0	R1089P
1661.739	1.616	1072280	WORD	n/a	wordpools/wordpool_EN.txt	BRANCH	12	16	[0, 0, 0]	n/a	FR1	0	R1089P
1663.355	0.001	1073088	DISTRACT_START	n/a	n/a	n/a	-999	16	[0, 0, 0]	n/a	FR1	0	R1089P
1663.356	0.017	1073088	START	n/a	n/a	n/a	-999	16	[-999, -999, -999]	n/a	FR1	0	R1089P
1663.373	5.434	1073097	PROB	5.434	n/a	n/a	-999	16	[5, 6, 5]	16	FR1	0	R1089P
1668.807	4.15	1075814	PROB	4.15	n/a	n/a	-999	16	[7, 6, 4]	17	FR1	0	R1089P
1672.957	3.4	1077889	PROB	3.4	n/a	n/a	-999	16	[8, 6, 7]	21	FR1	0	R1089P
1676.357	3.801	1079588	PROB	3.801	n/a	n/a	-999	16	[5, 3, 6]	14	FR1	0	R1089P
1680.158	4.254	1081489	PROB	4.254	n/a	n/a	-999	16	[3, 5, 6]	14	FR1	0	R1089P
1684.412	0.014	1083616	STOP	n/a	n/a	n/a	-999	16	[-999, -999, -999]	n/a	FR1	0	R1089P
1684.426	1.168	1083623	DISTRACT_END	n/a	n/a	n/a	-999	16	[0, 0, 0]	n/a	FR1	0	R1089P
1685.594	1.103	1084207	REC_START	n/a	n/a	n/a	-999	16	[0, 0, 0]	n/a	FR1	0	R1089P
1686.697	0.789	1084758	REC_WORD	0.789	n/a	BOAT	-999	16	[0, 0, 0]	n/a	FR1	0	R1089P
1687.486	0.697	1085153	REC_WORD	0.697	n/a	ANT	-999	16	[0, 0, 0]	n/a	FR1	0	R1089P
1688.183	0.565	1085501	REC_WORD	0.565	n/a	WAVE	-999	16	[0, 0, 0]	n/a	FR1	0	R1089P
1688.748	16.218	1085784	REC_WORD	16.218	n/a	SPONGE	-999	16	[0, 0, 0]	n/a	FR1	0	R1089P
1704.966	10.638	1093892	REC_WORD	10.638	n/a	SPRING	-999	16	[0, 0, 0]	n/a	FR1	0	R1089P
1715.604	2.361	1099211	REC_END	n/a	n/a	n/a	-999	16	[0, 0, 0]	n/a	FR1	0	R1089P
1717.965	0.0	1100391	TRIAL	n/a	n/a	n/a	-999	17	[0, 0, 0]	n/a	FR1	0	R1089P
1717.965	10.428	1100391	COUNTDOWN_START	n/a	n/a	n/a	-999	17	[0, 0, 0]	n/a	FR1	0	R1089P
1728.393	0.008	1105605	COUNTDOWN_END	n/a	n/a	n/a	-999	17	[0, 0, 0]	n/a	FR1	0	R1089P
1728.401	2.533	1105609	ORIENT	n/a	n/a	n/a	-999	17	[0, 0, 0]	n/a	FR1	0	R1089P
1730.934	2.417	1106876	WORD	n/a	wordpools/wordpool_EN.txt	GLOVE	1	17	[0, 0, 0]	n/a	FR1	0	R1089P
1733.351	2.584	1108084	WORD	n/a	wordpools/wordpool_EN.txt	CHAIR	2	17	[0, 0, 0]	n/a	FR1	0	R1089P
1735.935	2.384	1109376	WORD	n/a	wordpools/wordpool_EN.txt	ARM	3	17	[0, 0, 0]	n/a	FR1	0	R1089P
1738.319	2.535	1110568	WORD	n/a	wordpools/wordpool_EN.txt	BOARD	4	17	[0, 0, 0]	n/a	FR1	0	R1089P
1740.854	2.517	1111835	WORD	n/a	wordpools/wordpool_EN.txt	FISH	5	17	[0, 0, 0]	n/a	FR1	0	R1089P
1743.371	2.599	1113094	WORD	n/a	wordpools/wordpool_EN.txt	SHIRT	6	17	[0, 0, 0]	n/a	FR1	0	R1089P
1745.97	2.402	1114393	WORD	n/a	wordpools/wordpool_EN.txt	TEETH	7	17	[0, 0, 0]	n/a	FR1	0	R1089P
1748.372	2.4	1115594	WORD	n/a	wordpools/wordpool_EN.txt	BARN	8	17	[0, 0, 0]	n/a	FR1	0	R1089P
1750.772	2.4	1116794	WORD	n/a	wordpools/wordpool_EN.txt	SHRIMP	9	17	[0, 0, 0]	n/a	FR1	0	R1089P
1753.172	2.434	1117994	WORD	n/a	wordpools/wordpool_EN.txt	CHALK	10	17	[0, 0, 0]	n/a	FR1	0	R1089P
1755.606	2.433	1119211	WORD	n/a	wordpools/wordpool_EN.txt	CLIFF	11	17	[0, 0, 0]	n/a	FR1	0	R1089P
1758.039	1.601	1120427	WORD	n/a	wordpools/wordpool_EN.txt	WORLD	12	17	[0, 0, 0]	n/a	FR1	0	R1089P
1759.64	0.001	1121228	DISTRACT_START	n/a	n/a	n/a	-999	17	[0, 0, 0]	n/a	FR1	0	R1089P
1759.641	0.016	1121228	START	n/a	n/a	n/a	-999	17	[-999, -999, -999]	n/a	FR1	0	R1089P
1759.657	5.5	1121236	PROB	5.5	n/a	n/a	-999	17	[8, 4, 5]	17	FR1	0	R1089P
1765.157	4.018	1123986	PROB	4.018	n/a	n/a	-999	17	[1, 9, 3]	13	FR1	0	R1089P
1769.175	4.368	1125995	PROB	4.368	n/a	n/a	-999	17	[8, 9, 3]	20	FR1	0	R1089P
1773.543	2.366	1128179	PROB	2.366	n/a	n/a	-999	17	[8, 8, 8]	24	FR1	0	R1089P
1775.909	1.902	1129362	PROB	1.902	n/a	n/a	-999	17	[2, 5, 5]	12	FR1	0	R1089P
1777.811	2.44	1130313	PROB	2.44	n/a	n/a	-999	17	[3, 5, 4]	12	FR1	0	R1089P
1780.251	0.009	1131533	STOP	n/a	n/a	n/a	-999	17	[-999, -999, -999]	n/a	FR1	0	R1089P
1780.26	1.102	1131537	DISTRACT_END	n/a	n/a	n/a	-999	17	[0, 0, 0]	n/a	FR1	0	R1089P
1781.362	1.256	1132088	REC_START	n/a	n/a	n/a	-999	17	[0, 0, 0]	n/a	FR1	0	R1089P
1782.618	0.681	1132716	REC_WORD	0.681	n/a	BOAT	-999	17	[0, 0, 0]	n/a	FR1	0	R1089P
1783.299	4.887	1133057	REC_WORD	4.887	n/a	ARM	-999	17	[0, 0, 0]	n/a	FR1	0	R1089P
1788.186	5.041	1135500	REC_WORD	5.041	n/a	DESK	-999	17	[0, 0, 0]	n/a	FR1	0	R1089P
1793.227	4.055	1138020	REC_WORD	4.055	n/a	WAVE	-999	17	[0, 0, 0]	n/a	FR1	0	R1089P
1797.282	14.09	1140048	REC_WORD	14.09	n/a	PALM	-999	17	[0, 0, 0]	n/a	FR1	0	R1089P
1811.372	2.578	1147092	REC_END	n/a	n/a	n/a	-999	17	[0, 0, 0]	n/a	FR1	0	R1089P
1813.95	0.0	1148381	TRIAL	n/a	n/a	n/a	-999	18	[0, 0, 0]	n/a	FR1	0	R1089P
1813.95	10.428	1148381	COUNTDOWN_START	n/a	n/a	n/a	-999	18	[0, 0, 0]	n/a	FR1	0	R1089P
1824.378	0.008	1153595	COUNTDOWN_END	n/a	n/a	n/a	-999	18	[0, 0, 0]	n/a	FR1	0	R1089P
1824.386	2.566	1153599	ORIENT	n/a	n/a	n/a	-999	18	[0, 0, 0]	n/a	FR1	0	R1089P
1826.952	2.485	1154882	WORD	n/a	wordpools/wordpool_EN.txt	MULE	1	18	[0, 0, 0]	n/a	FR1	0	R1089P
1829.437	2.533	1156124	WORD	n/a	wordpools/wordpool_EN.txt	SPEAR	2	18	[0, 0, 0]	n/a	FR1	0	R1089P
1831.97	2.451	1157391	WORD	n/a	wordpools/wordpool_EN.txt	LAMB	3	18	[0, 0, 0]	n/a	FR1	0	R1089P
1834.421	2.401	1158616	WORD	n/a	wordpools/wordpool_EN.txt	MOOSE	4	18	[0, 0, 0]	n/a	FR1	0	R1089P
1836.822	2.617	1159817	WORD	n/a	wordpools/wordpool_EN.txt	FLEA	5	18	[0, 0, 0]	n/a	FR1	0	R1089P
1839.439	2.566	1161125	WORD	n/a	wordpools/wordpool_EN.txt	GRASS	6	18	[0, 0, 0]	n/a	FR1	0	R1089P
1842.005	2.385	1162408	WORD	n/a	wordpools/wordpool_EN.txt	HORSE	7	18	[0, 0, 0]	n/a	FR1	0	R1089P
1844.39	2.434	1163601	WORD	n/a	wordpools/wordpool_EN.txt	SOUP	8	18	[0, 0, 0]	n/a	FR1	0	R1089P
1846.824	2.449	1164817	WORD	n/a	wordpools/wordpool_EN.txt	STEAM	9	18	[0, 0, 0]	n/a	FR1	0	R1089P
1849.273	2.451	1166042	WORD	n/a	wordpools/wordpool_EN.txt	VINE	10	18	[0, 0, 0]	n/a	FR1	0	R1089P
1851.724	2.6	1167267	WORD	n/a	wordpools/wordpool_EN.txt	PRINCE	11	18	[0, 0, 0]	n/a	FR1	0	R1089P
1854.324	1.617	1168567	WORD	n/a	wordpools/wordpool_EN.txt	SPARK	12	18	[0, 0, 0]	n/a	FR1	0	R1089P
1855.941	0.001	1169376	DISTRACT_START	n/a	n/a	n/a	-999	18	[0, 0, 0]	n/a	FR1	0	R1089P
1855.942	0.016	1169376	START	n/a	n/a	n/a	-999	18	[-999, -999, -999]	n/a	FR1	0	R1089P
1855.958	4.367	1169384	PROB	4.367	n/a	n/a	-999	18	[2, 6, 7]	15	FR1	0	R1089P
1860.325	3.318	1171568	PROB	3.318	n/a	n/a	-999	18	[9, 2, 8]	19	FR1	0	R1089P
1863.643	2.734	1173226	PROB	2.734	n/a	n/a	-999	18	[2, 4, 9]	15	FR1	0	R1089P
1866.377	3.883	1174593	PROB	3.883	n/a	n/a	-999	18	[9, 5, 8]	22	FR1	0	R1089P
1870.26	4.701	1176535	PROB	4.701	n/a	n/a	-999	18	[9, 7, 6]	22	FR1	0	R1089P
1874.961	4.306	1178885	PROB	4.306	n/a	n/a	-999	18	[6, 9, 5]	20	FR1	0	R1089P
1879.267	0.012	1181038	STOP	n/a	n/a	n/a	-999	18	[-999, -999, -999]	n/a	FR1	0	R1089P
1879.279	1.135	1181044	DISTRACT_END	n/a	n/a	n/a	-999	18	[0, 0, 0]	n/a	FR1	0	R1089P
1880.414	0.966	1181612	REC_START	n/a	n/a	n/a	-999	18	[0, 0, 0]	n/a	FR1	0	R1089P
1881.38	22.104	1182095	REC_WORD_VV	22.104	n/a	<>	-999	18	[0, 0, 0]	n/a	FR1	0	R1089P
1903.484	6.94	1193146	REC_WORD_VV	6.94	n/a	<>	-999	18	[0, 0, 0]	n/a	FR1	0	R1089P
1910.424	1.877	1196616	REC_END	n/a	n/a	n/a	-999	18	[0, 0, 0]	n/a	FR1	0	R1089P
1912.301	0.0	1197554	TRIAL	n/a	n/a	n/a	-999	19	[0, 0, 0]	n/a	FR1	0	R1089P
1912.301	10.428	1197554	COUNTDOWN_START	n/a	n/a	n/a	-999	19	[0, 0, 0]	n/a	FR1	0	R1089P
1922.729	0.009	1202768	COUNTDOWN_END	n/a	n/a	n/a	-999	19	[0, 0, 0]	n/a	FR1	0	R1089P
1922.738	2.432	1202772	ORIENT	n/a	n/a	n/a	-999	19	[0, 0, 0]	n/a	FR1	0	R1089P
1925.17	2.502	1203988	WORD	n/a	wordpools/wordpool_EN.txt	FLAME	1	19	[0, 0, 0]	n/a	FR1	0	R1089P
1927.672	2.466	1205239	WORD	n/a	wordpools/wordpool_EN.txt	SHEEP	2	19	[0, 0, 0]	n/a	FR1	0	R1089P
1930.138	2.468	1206472	WORD	n/a	wordpools/wordpool_EN.txt	WAND	3	19	[0, 0, 0]	n/a	FR1	0	R1089P
1932.606	2.55	1207706	WORD	n/a	wordpools/wordpool_EN.txt	SWAMP	4	19	[0, 0, 0]	n/a	FR1	0	R1089P
1935.156	2.534	1208981	WORD	n/a	wordpools/wordpool_EN.txt	CORN	5	19	[0, 0, 0]	n/a	FR1	0	R1089P
1937.69	2.6	1210248	WORD	n/a	wordpools/wordpool_EN.txt	BRUSH	6	19	[0, 0, 0]	n/a	FR1	0	R1089P
1940.29	2.535	1211548	WORD	n/a	wordpools/wordpool_EN.txt	SKY	7	19	[0, 0, 0]	n/a	FR1	0	R1089P
1942.825	2.466	1212815	WORD	n/a	wordpools/wordpool_EN.txt	TENT	8	19	[0, 0, 0]	n/a	FR1	0	R1089P
1945.291	2.568	1214048	WORD	n/a	wordpools/wordpool_EN.txt	OAK	9	19	[0, 0, 0]	n/a	FR1	0	R1089P
1947.859	2.483	1215332	WORD	n/a	wordpools/wordpool_EN.txt	JEEP	10	19	[0, 0, 0]	n/a	FR1	0	R1089P
1950.342	2.551	1216574	WORD	n/a	wordpools/wordpool_EN.txt	CROW	11	19	[0, 0, 0]	n/a	FR1	0	R1089P
1952.893	1.617	1217849	WORD	n/a	wordpools/wordpool_EN.txt	LAKE	12	19	[0, 0, 0]	n/a	FR1	0	R1089P
1954.51	0.001	1218658	DISTRACT_START	n/a	n/a	n/a	-999	19	[0, 0, 0]	n/a	FR1	0	R1089P
1954.511	0.016	1218658	START	n/a	n/a	n/a	-999	19	[-999, -999, -999]	n/a	FR1	0	R1089P
1954.527	4.317	1218666	PROB	4.317	n/a	n/a	-999	19	[6, 5, 2]	13	FR1	0	R1089P
1958.844	3.083	1220824	PROB	3.083	n/a	n/a	-999	19	[1, 4, 3]	8	FR1	0	R1089P
1961.927	2.602	1222366	PROB	2.602	n/a	n/a	-999	19	[2, 2, 9]	13	FR1	0	R1089P
1964.529	2.616	1223667	PROB	2.616	n/a	n/a	-999	19	[4, 4, 3]	11	FR1	0	R1089P
1967.145	3.435	1224975	PROB	3.435	n/a	n/a	-999	19	[6, 7, 9]	22	FR1	0	R1089P
1970.58	2.317	1226692	PROB	2.317	n/a	n/a	-999	19	[4, 1, 5]	10	FR1	0	R1089P
1972.897	4.282	1227851	PROB	4.282	n/a	n/a	-999	19	[2, 9, 5]	16	FR1	0	R1089P
1977.179	0.018	1229992	STOP	n/a	n/a	n/a	-999	19	[-999, -999, -999]	n/a	FR1	0	R1089P
1977.197	1.185	1230001	DISTRACT_END	n/a	n/a	n/a	-999	19	[0, 0, 0]	n/a	FR1	0	R1089P
1978.382	0.923	1230593	REC_START	n/a	n/a	n/a	-999	19	[0, 0, 0]	n/a	FR1	0	R1089P
1979.305	0.824	1231054	REC_WORD	0.824	n/a	FLAME	-999	19	[0, 0, 0]	n/a	FR1	0	R1089P
1980.129	1.037	1231466	REC_WORD	1.037	n/a	SHEEP	-999	19	[0, 0, 0]	n/a	FR1	0	R1089P
1981.166	27.226	1231985	REC_WORD	27.226	n/a	WAND	-999	19	[0, 0, 0]	n/a	FR1	0	R1089P
2008.392	1.694	1245597	REC_END	n/a	n/a	n/a	-999	19	[0, 0, 0]	n/a	FR1	0	R1089P
2010.086	0.0	1246444	TRIAL	n/a	n/a	n/a	-999	20	[0, 0, 0]	n/a	FR1	0	R1089P
2010.086	10.428	1246444	COUNTDOWN_START	n/a	n/a	n/a	-999	20	[0, 0, 0]	n/a	FR1	0	R1089P
2020.514	0.009	1251658	COUNTDOWN_END	n/a	n/a	n/a	-999	20	[0, 0, 0]	n/a	FR1	0	R1089P
2020.523	2.482	1251662	ORIENT	n/a	n/a	n/a	-999	20	[0, 0, 0]	n/a	FR1	0	R1089P
2023.005	2.519	1252903	WORD	n/a	wordpools/wordpool_EN.txt	MOON	1	20	[0, 0, 0]	n/a	FR1	0	R1089P
2025.524	2.582	1254163	WORD	n/a	wordpools/wordpool_EN.txt	CASH	2	20	[0, 0, 0]	n/a	FR1	0	R1089P
2028.106	2.452	1255454	WORD	n/a	wordpools/wordpool_EN.txt	MAIL	3	20	[0, 0, 0]	n/a	FR1	0	R1089P
2030.558	2.549	1256680	WORD	n/a	wordpools/wordpool_EN.txt	BOMB	4	20	[0, 0, 0]	n/a	FR1	0	R1089P
2033.107	2.518	1257954	WORD	n/a	wordpools/wordpool_EN.txt	ICE	5	20	[0, 0, 0]	n/a	FR1	0	R1089P
2035.625	2.467	1259213	WORD	n/a	wordpools/wordpool_EN.txt	LEAF	6	20	[0, 0, 0]	n/a	FR1	0	R1089P
2038.092	2.534	1260446	WORD	n/a	wordpools/wordpool_EN.txt	MAP	7	20	[0, 0, 0]	n/a	FR1	0	R1089P
2040.626	2.433	1261713	WORD	n/a	wordpools/wordpool_EN.txt	FILM	8	20	[0, 0, 0]	n/a	FR1	0	R1089P
2043.059	2.568	1262930	WORD	n/a	wordpools/wordpool_EN.txt	FORT	9	20	[0, 0, 0]	n/a	FR1	0	R1089P
2045.627	2.466	1264214	WORD	n/a	wordpools/wordpool_EN.txt	TRUCK	10	20	[0, 0, 0]	n/a	FR1	0	R1089P
2048.093	2.419	1265447	WORD	n/a	wordpools/wordpool_EN.txt	CORD	11	20	[0, 0, 0]	n/a	FR1	0	R1089P
2050.512	1.616	1266656	WORD	n/a	wordpools/wordpool_EN.txt	OAR	12	20	[0, 0, 0]	n/a	FR1	0	R1089P
2052.128	0.0	1267464	DISTRACT_START	n/a	n/a	n/a	-999	20	[0, 0, 0]	n/a	FR1	0	R1089P
2052.128	0.016	1267464	START	n/a	n/a	n/a	-999	20	[-999, -999, -999]	n/a	FR1	0	R1089P
2052.144	3.469	1267472	PROB	3.469	n/a	n/a	-999	20	[9, 9, 1]	19	FR1	0	R1089P
2055.613	2.1	1269206	PROB	2.1	n/a	n/a	-999	20	[9, 3, 9]	21	FR1	0	R1089P
2057.713	2.383	1270256	PROB	2.383	n/a	n/a	-999	20	[1, 8, 6]	15	FR1	0	R1089P
2060.096	2.167	1271448	PROB	2.167	n/a	n/a	-999	20	[3, 6, 5]	14	FR1	0	R1089P
2062.263	2.767	1272531	PROB	2.767	n/a	n/a	-999	20	[5, 4, 2]	11	FR1	0	R1089P
2065.03	2.267	1273915	PROB	2.267	n/a	n/a	-999	20	[1, 4, 1]	6	FR1	0	R1089P
2067.297	3.352	1275048	PROB	3.352	n/a	n/a	-999	20	[6, 5, 5]	16	FR1	0	R1089P
2070.649	2.538	1276724	PROB	2.538	n/a	n/a	-999	20	[9, 1, 2]	12	FR1	0	R1089P
2073.187	0.011	1277993	STOP	n/a	n/a	n/a	-999	20	[-999, -999, -999]	n/a	FR1	0	R1089P
2073.198	1.101	1277998	DISTRACT_END	n/a	n/a	n/a	-999	20	[0, 0, 0]	n/a	FR1	0	R1089P
2074.299	1.033	1278549	REC_START	n/a	n/a	n/a	-999	20	[0, 0, 0]	n/a	FR1	0	R1089P
2075.332	0.605	1279065	REC_WORD	0.605	n/a	MOON	-999	20	[0, 0, 0]	n/a	FR1	0	R1089P
2075.937	3.327	1279368	REC_WORD	3.327	n/a	CASH	-999	20	[0, 0, 0]	n/a	FR1	0	R1089P
2079.264	7.284	1281031	REC_WORD	7.284	n/a	SWAMP	-999	20	[0, 0, 0]	n/a	FR1	0	R1089P
2086.548	16.735	1284673	REC_WORD	16.735	n/a	BOMB	-999	20	[0, 0, 0]	n/a	FR1	0	R1089P
2103.283	1.027	1293040	REC_WORD	1.027	n/a	WAVE	-999	20	[0, 0, 0]	n/a	FR1	0	R1089P
2104.31	7.296	1293554	REC_END	n/a	n/a	n/a	-999	20	[0, 0, 0]	n/a	FR1	0	R1089P
2111.606	0.0	1297201	TRIAL	n/a	n/a	n/a	-999	21	[0, 0, 0]	n/a	FR1	0	R1089P
2111.606	10.428	1297201	COUNTDOWN_START	n/a	n/a	n/a	-999	21	[0, 0, 0]	n/a	FR1	0	R1089P
2122.034	0.007	1302415	COUNTDOWN_END	n/a	n/a	n/a	-999	21	[0, 0, 0]	n/a	FR1	0	R1089P
2122.041	2.501	1302419	ORIENT	n/a	n/a	n/a	-999	21	[0, 0, 0]	n/a	FR1	0	R1089P
2124.542	2.516	1303669	WORD	n/a	wordpools/wordpool_EN.txt	LIP	1	21	[0, 0, 0]	n/a	FR1	0	R1089P
2127.058	2.418	1304927	WORD	n/a	wordpools/wordpool_EN.txt	DOG	2	21	[0, 0, 0]	n/a	FR1	0	R1089P
2129.476	2.5	1306136	WORD	n/a	wordpools/wordpool_EN.txt	FUR	3	21	[0, 0, 0]	n/a	FR1	0	R1089P
2131.976	2.451	1307386	WORD	n/a	wordpools/wordpool_EN.txt	PET	4	21	[0, 0, 0]	n/a	FR1	0	R1089P
2134.427	2.516	1308611	WORD	n/a	wordpools/wordpool_EN.txt	GEESE	5	21	[0, 0, 0]	n/a	FR1	0	R1089P
2136.943	2.435	1309869	WORD	n/a	wordpools/wordpool_EN.txt	RAT	6	21	[0, 0, 0]	n/a	FR1	0	R1089P
2139.378	2.616	1311087	WORD	n/a	wordpools/wordpool_EN.txt	MOUTH	7	21	[0, 0, 0]	n/a	FR1	0	R1089P
2141.994	2.518	1312395	WORD	n/a	wordpools/wordpool_EN.txt	CHEEK	8	21	[0, 0, 0]	n/a	FR1	0	R1089P
2144.512	2.467	1313654	WORD	n/a	wordpools/wordpool_EN.txt	GOLD	9	21	[0, 0, 0]	n/a	FR1	0	R1089P
2146.979	2.568	1314887	WORD	n/a	wordpools/wordpool_EN.txt	BENCH	10	21	[0, 0, 0]	n/a	FR1	0	R1089P
2149.547	2.399	1316171	WORD	n/a	wordpools/wordpool_EN.txt	SKUNK	11	21	[0, 0, 0]	n/a	FR1	0	R1089P
2151.946	1.601	1317370	WORD	n/a	wordpools/wordpool_EN.txt	RIB	12	21	[0, 0, 0]	n/a	FR1	0	R1089P
2153.547	0.001	1318171	DISTRACT_START	n/a	n/a	n/a	-999	21	[0, 0, 0]	n/a	FR1	0	R1089P
2153.548	0.016	1318171	START	n/a	n/a	n/a	-999	21	[-999, -999, -999]	n/a	FR1	0	R1089P
2153.564	5.634	1318179	PROB	5.634	n/a	n/a	-999	21	[8, 4, 3]	15	FR1	0	R1089P
2159.198	3.0	1320996	PROB	3.0	n/a	n/a	-999	21	[1, 5, 2]	8	FR1	0	R1089P
2162.198	3.818	1322496	PROB	3.818	n/a	n/a	-999	21	[7, 6, 8]	21	FR1	0	R1089P
2166.016	4.967	1324405	PROB	4.967	n/a	n/a	-999	21	[7, 9, 3]	19	FR1	0	R1089P
2170.983	2.418	1326888	PROB	2.418	n/a	n/a	-999	21	[6, 4, 4]	14	FR1	0	R1089P
2173.401	3.802	1328097	PROB	3.802	n/a	n/a	-999	21	[4, 2, 1]	7	FR1	0	R1089P
2177.203	0.015	1329998	STOP	n/a	n/a	n/a	-999	21	[-999, -999, -999]	n/a	FR1	0	R1089P
2177.218	1.151	1330006	DISTRACT_END	n/a	n/a	n/a	-999	21	[0, 0, 0]	n/a	FR1	0	R1089P
2178.369	3.238	1330581	REC_START	n/a	n/a	n/a	-999	21	[0, 0, 0]	n/a	FR1	0	R1089P
2181.607	3.1	1332200	REC_WORD	3.1	n/a	RUG	-999	21	[0, 0, 0]	n/a	FR1	0	R1089P
2184.707	2.37	1333750	REC_WORD	2.37	n/a	ARM	-999	21	[0, 0, 0]	n/a	FR1	0	R1089P
2187.077	0.968	1334935	REC_WORD	0.968	n/a	LIP	-999	21	[0, 0, 0]	n/a	FR1	0	R1089P
2188.045	0.879	1335419	REC_WORD	0.879	n/a	MOUTH	-999	21	[0, 0, 0]	n/a	FR1	0	R1089P
2188.924	19.459	1335858	REC_WORD	19.459	n/a	CHEEK	-999	21	[0, 0, 0]	n/a	FR1	0	R1089P
2208.383	1.674	1345587	REC_END	n/a	n/a	n/a	-999	21	[0, 0, 0]	n/a	FR1	0	R1089P
2210.057	0.0	1346424	COUNTDOWN_START	n/a	n/a	n/a	-999	22	[0, 0, 0]	n/a	FR1	0	R1089P
2210.057	10.428	1346424	TRIAL	n/a	n/a	n/a	-999	22	[0, 0, 0]	n/a	FR1	0	R1089P
2220.485	0.008	1351638	COUNTDOWN_END	n/a	n/a	n/a	-999	22	[0, 0, 0]	n/a	FR1	0	R1089P
2220.493	2.416	1351642	ORIENT	n/a	n/a	n/a	-999	22	[0, 0, 0]	n/a	FR1	0	R1089P
2222.909	2.485	1352850	WORD	n/a	wordpools/wordpool_EN.txt	LAND	1	22	[0, 0, 0]	n/a	FR1	0	R1089P
2225.394	2.401	1354092	WORD	n/a	wordpools/wordpool_EN.txt	SQUARE	2	22	[0, 0, 0]	n/a	FR1	0	R1089P
2227.795	2.549	1355293	WORD	n/a	wordpools/wordpool_EN.txt	SPOON	3	22	[0, 0, 0]	n/a	FR1	0	R1089P
2230.344	2.617	1356567	WORD	n/a	wordpools/wordpool_EN.txt	GRAPE	4	22	[0, 0, 0]	n/a	FR1	0	R1089P
2232.961	2.502	1357876	WORD	n/a	wordpools/wordpool_EN.txt	FARM	5	22	[0, 0, 0]	n/a	FR1	0	R1089P
2235.463	2.533	1359127	WORD	n/a	wordpools/wordpool_EN.txt	STOOL	6	22	[0, 0, 0]	n/a	FR1	0	R1089P
2237.996	2.468	1360393	WORD	n/a	wordpools/wordpool_EN.txt	BLOOM	7	22	[0, 0, 0]	n/a	FR1	0	R1089P
2240.464	2.599	1361627	WORD	n/a	wordpools/wordpool_EN.txt	APE	8	22	[0, 0, 0]	n/a	FR1	0	R1089P
2243.063	2.502	1362926	WORD	n/a	wordpools/wordpool_EN.txt	FLOOR	9	22	[0, 0, 0]	n/a	FR1	0	R1089P
2245.565	2.533	1364177	WORD	n/a	wordpools/wordpool_EN.txt	RAIN	10	22	[0, 0, 0]	n/a	FR1	0	R1089P
2248.098	2.434	1365444	WORD	n/a	wordpools/wordpool_EN.txt	CUP	11	22	[0, 0, 0]	n/a	FR1	0	R1089P
2250.532	1.616	1366661	WORD	n/a	wordpools/wordpool_EN.txt	ROCK	12	22	[0, 0, 0]	n/a	FR1	0	R1089P
2252.148	0.001	1367469	DISTRACT_START	n/a	n/a	n/a	-999	22	[0, 0, 0]	n/a	FR1	0	R1089P
2252.149	0.016	1367469	START	n/a	n/a	n/a	-999	22	[-999, -999, -999]	n/a	FR1	0	R1089P
2252.165	4.067	1367477	PROB	4.067	n/a	n/a	-999	22	[9, 6, 6]	21	FR1	0	R1089P
2256.232	2.751	1369511	PROB	2.751	n/a	n/a	-999	22	[7, 7, 7]	21	FR1	0	R1089P
2258.983	3.835	1370886	PROB	3.835	n/a	n/a	-999	22	[7, 5, 8]	20	FR1	0	R1089P
2262.818	2.149	1372803	PROB	2.149	n/a	n/a	-999	22	[1, 1, 9]	11	FR1	0	R1089P
2264.967	1.934	1373878	PROB	1.934	n/a	n/a	-999	22	[3, 7, 2]	12	FR1	0	R1089P
2266.901	2.234	1374845	PROB	2.234	n/a	n/a	-999	22	[7, 1, 7]	15	FR1	0	R1089P
2269.135	2.485	1375962	PROB	2.485	n/a	n/a	-999	22	[5, 3, 4]	12	FR1	0	R1089P
2271.62	3.856	1377204	PROB	3.856	n/a	n/a	-999	22	[1, 1, 7]	9	FR1	0	R1089P
2275.476	0.011	1379132	STOP	n/a	n/a	n/a	-999	22	[-999, -999, -999]	n/a	FR1	0	R1089P
2275.487	1.201	1379138	DISTRACT_END	n/a	n/a	n/a	-999	22	[0, 0, 0]	n/a	FR1	0	R1089P
2276.688	1.303	1379738	REC_START	n/a	n/a	n/a	-999	22	[0, 0, 0]	n/a	FR1	0	R1089P
2277.991	1.865	1380390	REC_WORD	1.865	n/a	CUP	-999	22	[0, 0, 0]	n/a	FR1	0	R1089P
2279.856	1.866	1381322	REC_WORD	1.866	n/a	RAIN	-999	22	[0, 0, 0]	n/a	FR1	0	R1089P
2281.722	6.965	1382255	REC_WORD	6.965	n/a	ROCK	-999	22	[0, 0, 0]	n/a	FR1	0	R1089P
2288.687	18.011	1385737	REC_WORD	18.011	n/a	STONE	-999	22	[0, 0, 0]	n/a	FR1	0	R1089P
2306.698	1.845	1394742	REC_END	n/a	n/a	n/a	-999	22	[0, 0, 0]	n/a	FR1	0	R1089P
2308.543	0.0	1395665	TRIAL	n/a	n/a	n/a	-999	23	[0, 0, 0]	n/a	FR1	0	R1089P
2308.543	10.428	1395665	COUNTDOWN_START	n/a	n/a	n/a	-999	23	[0, 0, 0]	n/a	FR1	0	R1089P
2318.971	0.006	1400878	COUNTDOWN_END	n/a	n/a	n/a	-999	23	[0, 0, 0]	n/a	FR1	0	R1089P
2318.977	2.502	1400881	ORIENT	n/a	n/a	n/a	-999	23	[0, 0, 0]	n/a	FR1	0	R1089P
2321.479	2.433	1402132	WORD	n/a	wordpools/wordpool_EN.txt	BAND	1	23	[0, 0, 0]	n/a	FR1	0	R1089P
2323.912	2.518	1403349	WORD	n/a	wordpools/wordpool_EN.txt	TRAIN	2	23	[0, 0, 0]	n/a	FR1	0	R1089P
2326.43	2.533	1404608	WORD	n/a	wordpools/wordpool_EN.txt	VAN	3	23	[0, 0, 0]	n/a	FR1	0	R1089P
2328.963	2.584	1405874	WORD	n/a	wordpools/wordpool_EN.txt	FLUTE	4	23	[0, 0, 0]	n/a	FR1	0	R1089P
2331.547	2.417	1407166	WORD	n/a	wordpools/wordpool_EN.txt	HAT	5	23	[0, 0, 0]	n/a	FR1	0	R1089P
2333.964	2.534	1408375	WORD	n/a	wordpools/wordpool_EN.txt	DRUM	6	23	[0, 0, 0]	n/a	FR1	0	R1089P
2336.498	2.617	1409642	WORD	n/a	wordpools/wordpool_EN.txt	CART	7	23	[0, 0, 0]	n/a	FR1	0	R1089P
2339.115	2.384	1410950	WORD	n/a	wordpools/wordpool_EN.txt	STICK	8	23	[0, 0, 0]	n/a	FR1	0	R1089P
2341.499	2.384	1412142	WORD	n/a	wordpools/wordpool_EN.txt	SOCK	9	23	[0, 0, 0]	n/a	FR1	0	R1089P
2343.883	2.466	1413334	WORD	n/a	wordpools/wordpool_EN.txt	DIME	10	23	[0, 0, 0]	n/a	FR1	0	R1089P
2346.349	2.502	1414567	WORD	n/a	wordpools/wordpool_EN.txt	FACE	11	23	[0, 0, 0]	n/a	FR1	0	R1089P
2348.851	1.617	1415818	WORD	n/a	wordpools/wordpool_EN.txt	SKI	12	23	[0, 0, 0]	n/a	FR1	0	R1089P
2350.468	0.001	1416626	DISTRACT_START	n/a	n/a	n/a	-999	23	[0, 0, 0]	n/a	FR1	0	R1089P
2350.469	0.015	1416627	START	n/a	n/a	n/a	-999	23	[-999, -999, -999]	n/a	FR1	0	R1089P
2350.484	5.8	1416634	PROB	5.8	n/a	n/a	-999	23	[7, 4, 9]	20	FR1	0	R1089P
2356.284	2.519	1419534	PROB	2.519	n/a	n/a	-999	23	[1, 8, 5]	14	FR1	0	R1089P
2358.803	3.166	1420793	PROB	3.166	n/a	n/a	-999	23	[3, 7, 4]	14	FR1	0	R1089P
2361.969	5.267	1422376	PROB	5.267	n/a	n/a	-999	23	[7, 4, 9]	20	FR1	0	R1089P
2367.236	3.328	1425010	PROB	3.328	n/a	n/a	-999	23	[8, 3, 4]	15	FR1	0	R1089P
2370.564	0.007	1426674	STOP	n/a	n/a	n/a	-999	23	[-999, -999, -999]	n/a	FR1	0	R1089P
2370.571	1.118	1426677	DISTRACT_END	n/a	n/a	n/a	-999	23	[0, 0, 0]	n/a	FR1	0	R1089P
2371.689	1.911	1427236	REC_START	n/a	n/a	n/a	-999	23	[0, 0, 0]	n/a	FR1	0	R1089P
2373.6	2.029	1428192	REC_WORD	2.029	n/a	SKI	-999	23	[0, 0, 0]	n/a	FR1	0	R1089P
2375.629	3.661	1429206	REC_WORD	3.661	n/a	SOCK	-999	23	[0, 0, 0]	n/a	FR1	0	R1089P
2379.29	5.171	1431036	REC_WORD	5.171	n/a	ARM	-999	23	[0, 0, 0]	n/a	FR1	0	R1089P
2384.461	17.238	1433622	REC_WORD	17.238	n/a	DESK	-999	23	[0, 0, 0]	n/a	FR1	0	R1089P
2401.699	1.795	1442240	REC_END	n/a	n/a	n/a	-999	23	[0, 0, 0]	n/a	FR1	0	R1089P
2403.494	0.001	1443138	COUNTDOWN_START	n/a	n/a	n/a	-999	24	[0, 0, 0]	n/a	FR1	0	R1089P
2403.495	10.427	1443138	TRIAL	n/a	n/a	n/a	-999	24	[0, 0, 0]	n/a	FR1	0	R1089P
2413.922	0.007	1448351	COUNTDOWN_END	n/a	n/a	n/a	-999	24	[0, 0, 0]	n/a	FR1	0	R1089P
2413.929	2.417	1448355	ORIENT	n/a	n/a	n/a	-999	24	[0, 0, 0]	n/a	FR1	0	R1089P
2416.346	2.518	1449563	WORD	n/a	wordpools/wordpool_EN.txt	HAND	1	24	[0, 0, 0]	n/a	FR1	0	R1089P
2418.864	2.617	1450822	WORD	n/a	wordpools/wordpool_EN.txt	ROOF	2	24	[0, 0, 0]	n/a	FR1	0	R1089P
2421.481	2.4	1452131	WORD	n/a	wordpools/wordpool_EN.txt	GLASS	3	24	[0, 0, 0]	n/a	FR1	0	R1089P
2423.881	2.634	1453331	WORD	n/a	wordpools/wordpool_EN.txt	PIPE	4	24	[0, 0, 0]	n/a	FR1	0	R1089P
2426.515	2.533	1454648	WORD	n/a	wordpools/wordpool_EN.txt	BROOM	5	24	[0, 0, 0]	n/a	FR1	0	R1089P
2429.048	2.435	1455914	WORD	n/a	wordpools/wordpool_EN.txt	ROPE	6	24	[0, 0, 0]	n/a	FR1	0	R1089P
2431.483	2.466	1457132	WORD	n/a	wordpools/wordpool_EN.txt	ELF	7	24	[0, 0, 0]	n/a	FR1	0	R1089P
2433.949	2.551	1458364	WORD	n/a	wordpools/wordpool_EN.txt	MAT	8	24	[0, 0, 0]	n/a	FR1	0	R1089P
2436.5	2.4	1459640	WORD	n/a	wordpools/wordpool_EN.txt	TRAY	9	24	[0, 0, 0]	n/a	FR1	0	R1089P
2438.9	2.485	1460840	WORD	n/a	wordpools/wordpool_EN.txt	ROOM	10	24	[0, 0, 0]	n/a	FR1	0	R1089P
2441.385	2.532	1462082	WORD	n/a	wordpools/wordpool_EN.txt	STORM	11	24	[0, 0, 0]	n/a	FR1	0	R1089P
2443.917	1.602	1463348	WORD	n/a	wordpools/wordpool_EN.txt	WALL	12	24	[0, 0, 0]	n/a	FR1	0	R1089P
2445.519	0.0	1464149	DISTRACT_START	n/a	n/a	n/a	-999	24	[0, 0, 0]	n/a	FR1	0	R1089P
2445.519	0.016	1464149	START	n/a	n/a	n/a	-999	24	[-999, -999, -999]	n/a	FR1	0	R1089P
2445.535	11.336	1464157	PROB	11.336	n/a	n/a	-999	24	[6, 9, 7]	22	FR1	0	R1089P
2456.871	3.35	1469825	PROB	3.35	n/a	n/a	-999	24	[8, 8, 6]	22	FR1	0	R1089P
2460.221	2.017	1471500	PROB	2.017	n/a	n/a	-999	24	[1, 4, 8]	13	FR1	0	R1089P
2462.238	2.717	1472508	PROB	2.717	n/a	n/a	-999	24	[4, 6, 5]	15	FR1	0	R1089P
2464.955	1.849	1473867	PROB	1.849	n/a	n/a	-999	24	[7, 7, 7]	21	FR1	0	R1089P
2466.804	0.019	1474791	STOP	n/a	n/a	n/a	-999	24	[-999, -999, -999]	n/a	FR1	0	R1089P
2466.823	1.084	1474801	DISTRACT_END	n/a	n/a	n/a	-999	24	[0, 0, 0]	n/a	FR1	0	R1089P
2467.907	1.385	1475343	REC_START	n/a	n/a	n/a	-999	24	[0, 0, 0]	n/a	FR1	0	R1089P
2469.292	1.117	1476035	REC_WORD	1.117	n/a	ROOF	-999	24	[0, 0, 0]	n/a	FR1	0	R1089P
2470.409	1.57	1476593	REC_WORD	1.57	n/a	WALL	-999	24	[0, 0, 0]	n/a	FR1	0	R1089P
2471.979	2.85	1477378	REC_WORD	2.85	n/a	STORM	-999	24	[0, 0, 0]	n/a	FR1	0	R1089P
2474.829	23.087	1478803	REC_WORD	23.087	n/a	GLASS	-999	24	[0, 0, 0]	n/a	FR1	0	R1089P
2497.916	2.295	1490346	REC_END	n/a	n/a	n/a	-999	24	[0, 0, 0]	n/a	FR1	0	R1089P
2500.211	0.001	1491494	COUNTDOWN_START	n/a	n/a	n/a	-999	25	[0, 0, 0]	n/a	FR1	0	R1089P
2500.212	10.427	1491494	TRIAL	n/a	n/a	n/a	-999	25	[0, 0, 0]	n/a	FR1	0	R1089P
2510.639	0.009	1496707	COUNTDOWN_END	n/a	n/a	n/a	-999	25	[0, 0, 0]	n/a	FR1	0	R1089P
2510.648	2.432	1496712	ORIENT	n/a	n/a	n/a	-999	25	[0, 0, 0]	n/a	FR1	0	R1089P
2513.08	2.602	1497928	WORD	n/a	wordpools/wordpool_EN.txt	BOWL	1	25	[0, 0, 0]	n/a	FR1	0	R1089P
2515.682	2.399	1499229	WORD	n/a	wordpools/wordpool_EN.txt	STEAK	2	25	[0, 0, 0]	n/a	FR1	0	R1089P
2518.081	2.419	1500428	WORD	n/a	wordpools/wordpool_EN.txt	CLOWN	3	25	[0, 0, 0]	n/a	FR1	0	R1089P
2520.5	2.432	1501638	WORD	n/a	wordpools/wordpool_EN.txt	EGG	4	25	[0, 0, 0]	n/a	FR1	0	R1089P
2522.932	2.435	1502854	WORD	n/a	wordpools/wordpool_EN.txt	BEAR	5	25	[0, 0, 0]	n/a	FR1	0	R1089P
2525.367	2.599	1504071	WORD	n/a	wordpools/wordpool_EN.txt	SLEEVE	6	25	[0, 0, 0]	n/a	FR1	0	R1089P
2527.966	2.485	1505370	WORD	n/a	wordpools/wordpool_EN.txt	CAKE	7	25	[0, 0, 0]	n/a	FR1	0	R1089P
2530.451	2.401	1506613	WORD	n/a	wordpools/wordpool_EN.txt	LEG	8	25	[0, 0, 0]	n/a	FR1	0	R1089P
2532.852	2.6	1507813	WORD	n/a	wordpools/wordpool_EN.txt	DOLL	9	25	[0, 0, 0]	n/a	FR1	0	R1089P
2535.452	2.434	1509113	WORD	n/a	wordpools/wordpool_EN.txt	ZOO	10	25	[0, 0, 0]	n/a	FR1	0	R1089P
2537.886	2.433	1510330	WORD	n/a	wordpools/wordpool_EN.txt	WHALE	11	25	[0, 0, 0]	n/a	FR1	0	R1089P
2540.319	1.617	1511547	WORD	n/a	wordpools/wordpool_EN.txt	PIT	12	25	[0, 0, 0]	n/a	FR1	0	R1089P
2541.936	0.001	1512355	DISTRACT_START	n/a	n/a	n/a	-999	25	[0, 0, 0]	n/a	FR1	0	R1089P
2541.937	0.015	1512356	START	n/a	n/a	n/a	-999	25	[-999, -999, -999]	n/a	FR1	0	R1089P
2541.952	4.569	1512363	PROB	4.569	n/a	n/a	-999	25	[2, 2, 3]	7	FR1	0	R1089P
2546.521	2.367	1514647	PROB	2.367	n/a	n/a	-999	25	[2, 2, 1]	5	FR1	0	R1089P
2548.888	4.851	1515831	PROB	4.851	n/a	n/a	-999	25	[1, 7, 1]	9	FR1	0	R1089P
2553.739	2.266	1518256	PROB	2.266	n/a	n/a	-999	25	[8, 3, 3]	14	FR1	0	R1089P
2556.005	2.668	1519389	PROB	2.668	n/a	n/a	-999	25	[6, 3, 8]	17	FR1	0	R1089P
2558.673	2.784	1520723	PROB	2.784	n/a	n/a	-999	25	[1, 3, 6]	10	FR1	0	R1089P
2561.457	2.107	1522115	PROB	2.107	n/a	n/a	-999	25	[7, 1, 3]	11	FR1	0	R1089P
2563.564	0.01	1523169	STOP	n/a	n/a	n/a	-999	25	[-999, -999, -999]	n/a	FR1	0	R1089P
2563.574	1.201	1523174	DISTRACT_END	n/a	n/a	n/a	-999	25	[0, 0, 0]	n/a	FR1	0	R1089P
2564.775	1.91	1523774	REC_START	n/a	n/a	n/a	-999	25	[0, 0, 0]	n/a	FR1	0	R1089P
2566.685	4.465	1524729	REC_WORD	4.465	n/a	BOWL	-999	25	[0, 0, 0]	n/a	FR1	0	R1089P
2571.15	7.502	1526961	REC_WORD	7.502	n/a	ROOM	-999	25	[0, 0, 0]	n/a	FR1	0	R1089P
2578.652	16.133	1530712	REC_WORD	16.133	n/a	LEG	-999	25	[0, 0, 0]	n/a	FR1	0	R1089P
2594.785	29.283	1538778	REC_END	n/a	n/a	n/a	-999	25	[0, 0, 0]	n/a	FR1	0	R1089P
2624.068	0.0	1553419	SESS_END	n/a	n/a	n/a	-999	25	[0, 0, 0]	n/a	FR1	0	R1089P
