onset	duration	sample	trial_type	response_time	stim_file	item_name	serialpos	list	test	answer	experiment	session	subject
0.0	3.549	422554	INSTRUCT_START	n/a	n/a	n/a	-999	-999	[0, 0, 0]	n/a	FR1	1	R1395M
3.549	2.266	426101	INSTRUCT_END	n/a	n/a	n/a	-999	-999	[0, 0, 0]	n/a	FR1	1	R1395M
5.815	2.7	428365	INSTRUCT_START	n/a	n/a	n/a	-999	-999	[0, 0, 0]	n/a	FR1	1	R1395M
8.515	2.116	431061	INSTRUCT_END	n/a	n/a	n/a	-999	-999	[0, 0, 0]	n/a	FR1	1	R1395M
10.631	1.901	433185	INSTRUCT_START	n/a	n/a	n/a	-999	-999	[0, 0, 0]	n/a	FR1	1	R1395M
12.532	65.999	435085	INSTRUCT_END	n/a	n/a	n/a	-999	-999	[0, 0, 0]	n/a	FR1	1	R1395M
78.531	10.351	501081	COUNTDOWN_START	n/a	n/a	n/a	-999	-999	[0, 0, 0]	n/a	FR1	1	R1395M
88.882	0.0	511431	COUNTDOWN_END	n/a	n/a	n/a	-999	-999	[0, 0, 0]	n/a	FR1	1	R1395M
88.882	2.216	511431	ENCODING_START	n/a	n/a	n/a	-999	-1	[0, 0, 0]	n/a	FR1	1	R1395M
91.098	1.617	513640	WORD	n/a	n/a	HOUND	1	-1	[0, 0, 0]	n/a	FR1	1	R1395M
92.715	0.965	515259	WORD_OFF	n/a	n/a	HOUND	1	-1	[0, 0, 0]	n/a	FR1	1	R1395M
93.68	1.601	516223	WORD	n/a	n/a	SINK	2	-1	[0, 0, 0]	n/a	FR1	1	R1395M
95.281	0.85	517823	WORD_OFF	n/a	n/a	SINK	2	-1	[0, 0, 0]	n/a	FR1	1	R1395M
96.131	1.617	518675	WORD	n/a	n/a	BUG	3	-1	[0, 0, 0]	n/a	FR1	1	R1395M
97.748	0.8	520294	WORD_OFF	n/a	n/a	BUG	3	-1	[0, 0, 0]	n/a	FR1	1	R1395M
98.548	1.616	521089	WORD	n/a	n/a	MAIL	4	-1	[0, 0, 0]	n/a	FR1	1	R1395M
100.164	0.817	522708	WORD_OFF	n/a	n/a	MAIL	4	-1	[0, 0, 0]	n/a	FR1	1	R1395M
100.981	1.616	523523	WORD	n/a	n/a	CAPE	5	-1	[0, 0, 0]	n/a	FR1	1	R1395M
102.597	0.868	525142	WORD_OFF	n/a	n/a	CAPE	5	-1	[0, 0, 0]	n/a	FR1	1	R1395M
103.465	1.6	526012	WORD	n/a	n/a	JET	6	-1	[0, 0, 0]	n/a	FR1	1	R1395M
105.065	0.8	527612	WORD_OFF	n/a	n/a	JET	6	-1	[0, 0, 0]	n/a	FR1	1	R1395M
105.865	1.616	528408	WORD	n/a	n/a	FARM	7	-1	[0, 0, 0]	n/a	FR1	1	R1395M
107.481	0.884	530027	WORD_OFF	n/a	n/a	FARM	7	-1	[0, 0, 0]	n/a	FR1	1	R1395M
108.365	1.6	530906	WORD	n/a	n/a	WIFE	8	-1	[0, 0, 0]	n/a	FR1	1	R1395M
109.965	0.766	532507	WORD_OFF	n/a	n/a	WIFE	8	-1	[0, 0, 0]	n/a	FR1	1	R1395M
110.731	1.6	533274	WORD	n/a	n/a	SCOTCH	9	-1	[0, 0, 0]	n/a	FR1	1	R1395M
112.331	0.984	534874	WORD_OFF	n/a	n/a	SCOTCH	9	-1	[0, 0, 0]	n/a	FR1	1	R1395M
113.315	1.616	535857	WORD	n/a	n/a	FLAME	10	-1	[0, 0, 0]	n/a	FR1	1	R1395M
114.931	0.833	537476	WORD_OFF	n/a	n/a	FLAME	10	-1	[0, 0, 0]	n/a	FR1	1	R1395M
115.764	1.617	538309	WORD	n/a	n/a	THRONE	11	-1	[0, 0, 0]	n/a	FR1	1	R1395M
117.381	0.917	539928	WORD_OFF	n/a	n/a	THRONE	11	-1	[0, 0, 0]	n/a	FR1	1	R1395M
118.298	1.6	540845	WORD	n/a	n/a	SPARK	12	-1	[0, 0, 0]	n/a	FR1	1	R1395M
119.898	0.0	542445	WORD_OFF	n/a	n/a	SPARK	12	-1	[0, 0, 0]	n/a	FR1	1	R1395M
119.898	0.001	542441	START	n/a	n/a	n/a	-999	-1	[-999, -999, -999]	n/a	FR1	1	R1395M
119.899	0.0	542445	ENCODING_END	n/a	n/a	n/a	-999	-1	[0, 0, 0]	n/a	FR1	1	R1395M
119.899	0.0	542445	DISTRACT_START	n/a	n/a	n/a	-999	-1	[0, 0, 0]	n/a	FR1	1	R1395M
119.899	5.265	542442	PROB	5.265	n/a	n/a	-999	-1	[2, 4, 6]	12	FR1	1	R1395M
125.164	3.933	547707	PROB	3.933	n/a	n/a	-999	-1	[5, 7, 4]	16	FR1	1	R1395M
129.097	3.101	551639	PROB	3.101	n/a	n/a	-999	-1	[4, 8, 7]	19	FR1	1	R1395M
132.198	4.032	554740	PROB	4.032	n/a	n/a	-999	-1	[7, 8, 1]	16	FR1	1	R1395M
136.23	3.683	558772	PROB	3.683	n/a	n/a	-999	-1	[8, 6, 8]	24	FR1	1	R1395M
139.913	0.001	562455	STOP	n/a	n/a	n/a	-999	-1	[-999, -999, -999]	n/a	FR1	1	R1395M
139.914	2.1	562454	DISTRACT_END	n/a	n/a	n/a	-999	-1	[0, 0, 0]	n/a	FR1	1	R1395M
142.014	5.085	564558	REC_START	n/a	n/a	n/a	-999	-1	[0, 0, 0]	n/a	FR1	1	R1395M
147.099	0.808	569641	REC_WORD_VV	0.808	n/a	<>	-999	-1	[0, 0, 0]	n/a	FR1	1	R1395M
147.907	0.665	570449	REC_WORD	0.665	n/a	SINK	2	-1	[0, 0, 0]	n/a	FR1	1	R1395M
148.572	0.692	571113	REC_WORD	0.692	n/a	BUG	3	-1	[0, 0, 0]	n/a	FR1	1	R1395M
149.264	1.047	571805	REC_WORD	1.047	n/a	CAPE	5	-1	[0, 0, 0]	n/a	FR1	1	R1395M
150.311	1.229	572852	REC_WORD	1.229	n/a	MAIL	4	-1	[0, 0, 0]	n/a	FR1	1	R1395M
151.54	16.831	574081	REC_WORD	16.831	n/a	WIFE	8	-1	[0, 0, 0]	n/a	FR1	1	R1395M
168.371	3.542	590911	REC_WORD	3.542	n/a	CAPE	5	-1	[0, 0, 0]	n/a	FR1	1	R1395M
171.913	0.334	594453	REC_WORD	0.334	n/a	CAPE	5	-1	[0, 0, 0]	n/a	FR1	1	R1395M
172.247	28.301	594787	REC_END	n/a	n/a	n/a	-999	-1	[0, 0, 0]	n/a	FR1	1	R1395M
200.548	10.351	623087	COUNTDOWN_START	n/a	n/a	n/a	-999	1	[0, 0, 0]	n/a	FR1	1	R1395M
210.899	0.0	633438	COUNTDOWN_END	n/a	n/a	n/a	-999	1	[0, 0, 0]	n/a	FR1	1	R1395M
210.899	2.232	633438	ENCODING_START	n/a	n/a	n/a	-999	1	[0, 0, 0]	n/a	FR1	1	R1395M
213.131	1.602	635665	WORD	n/a	wordpools/wordpool_long_EN.txt	SWAMP	1	1	[0, 0, 0]	n/a	FR1	1	R1395M
214.733	0.815	637275	WORD_OFF	n/a	n/a	SWAMP	1	1	[0, 0, 0]	n/a	FR1	1	R1395M
215.548	1.616	638089	WORD	n/a	wordpools/wordpool_long_EN.txt	RUG	2	1	[0, 0, 0]	n/a	FR1	1	R1395M
217.164	0.884	639699	WORD_OFF	n/a	n/a	RUG	2	1	[0, 0, 0]	n/a	FR1	1	R1395M
218.048	1.6	640588	WORD	n/a	wordpools/wordpool_long_EN.txt	PIN	3	1	[0, 0, 0]	n/a	FR1	1	R1395M
219.648	0.833	642188	WORD_OFF	n/a	n/a	PIN	3	1	[0, 0, 0]	n/a	FR1	1	R1395M
220.481	1.616	643021	WORD	n/a	wordpools/wordpool_long_EN.txt	BRANCH	4	1	[0, 0, 0]	n/a	FR1	1	R1395M
222.097	0.784	644631	WORD_OFF	n/a	n/a	BRANCH	4	1	[0, 0, 0]	n/a	FR1	1	R1395M
222.881	1.6	645417	WORD	n/a	wordpools/wordpool_long_EN.txt	LAMP	5	1	[0, 0, 0]	n/a	FR1	1	R1395M
224.481	0.967	647017	WORD_OFF	n/a	n/a	LAMP	5	1	[0, 0, 0]	n/a	FR1	1	R1395M
225.448	1.616	647981	WORD	n/a	wordpools/wordpool_long_EN.txt	SPONGE	6	1	[0, 0, 0]	n/a	FR1	1	R1395M
227.064	0.784	649600	WORD_OFF	n/a	n/a	SPONGE	6	1	[0, 0, 0]	n/a	FR1	1	R1395M
227.848	1.616	650386	WORD	n/a	wordpools/wordpool_long_EN.txt	PEARL	7	1	[0, 0, 0]	n/a	FR1	1	R1395M
229.464	0.967	652005	WORD_OFF	n/a	n/a	PEARL	7	1	[0, 0, 0]	n/a	FR1	1	R1395M
230.431	1.6	652969	WORD	n/a	wordpools/wordpool_long_EN.txt	STEAK	8	1	[0, 0, 0]	n/a	FR1	1	R1395M
232.031	0.983	654569	WORD_OFF	n/a	n/a	STEAK	8	1	[0, 0, 0]	n/a	FR1	1	R1395M
233.014	1.6	655552	WORD	n/a	wordpools/wordpool_long_EN.txt	HOUSE	9	1	[0, 0, 0]	n/a	FR1	1	R1395M
234.614	1.0	657152	WORD_OFF	n/a	n/a	HOUSE	9	1	[0, 0, 0]	n/a	FR1	1	R1395M
235.614	1.617	658154	WORD	n/a	wordpools/wordpool_long_EN.txt	NET	10	1	[0, 0, 0]	n/a	FR1	1	R1395M
237.231	0.866	659763	WORD_OFF	n/a	n/a	NET	10	1	[0, 0, 0]	n/a	FR1	1	R1395M
238.097	1.617	660634	WORD	n/a	wordpools/wordpool_long_EN.txt	HAT	11	1	[0, 0, 0]	n/a	FR1	1	R1395M
239.714	0.967	662253	WORD_OFF	n/a	n/a	HAT	11	1	[0, 0, 0]	n/a	FR1	1	R1395M
240.681	1.599	663217	WORD	n/a	wordpools/wordpool_long_EN.txt	YARN	12	1	[0, 0, 0]	n/a	FR1	1	R1395M
242.28	0.001	664816	PROB	0.001	n/a	n/a	-999	1	[4, 8, 1]	13	FR1	1	R1395M
242.281	0.0	664817	WORD_OFF	n/a	n/a	YARN	12	1	[0, 0, 0]	n/a	FR1	1	R1395M
242.281	0.001	664817	START	n/a	n/a	n/a	-999	1	[-999, -999, -999]	n/a	FR1	1	R1395M
242.282	0.0	664817	ENCODING_END	n/a	n/a	n/a	-999	1	[0, 0, 0]	n/a	FR1	1	R1395M
242.282	3.848	664817	DISTRACT_START	n/a	n/a	n/a	-999	1	[0, 0, 0]	n/a	FR1	1	R1395M
246.13	3.05	668666	PROB	3.05	n/a	n/a	-999	1	[4, 6, 6]	16	FR1	1	R1395M
249.18	2.783	671716	PROB	2.783	n/a	n/a	-999	1	[8, 6, 6]	20	FR1	1	R1395M
251.963	2.65	674499	PROB	2.65	n/a	n/a	-999	1	[1, 4, 2]	7	FR1	1	R1395M
254.613	4.284	677149	PROB	4.284	n/a	n/a	-999	1	[8, 7, 1]	16	FR1	1	R1395M
258.897	3.101	681433	PROB	3.101	n/a	n/a	-999	1	[7, 4, 5]	16	FR1	1	R1395M
261.998	2.599	684533	PROB	2.599	n/a	n/a	-999	1	[1, 2, 3]	6	FR1	1	R1395M
264.597	0.001	687132	STOP	n/a	n/a	n/a	-999	1	[-999, -999, -999]	n/a	FR1	1	R1395M
264.598	2.135	687137	DISTRACT_END	n/a	n/a	n/a	-999	1	[0, 0, 0]	n/a	FR1	1	R1395M
266.733	1.62	689269	REC_START	n/a	n/a	n/a	-999	1	[0, 0, 0]	n/a	FR1	1	R1395M
268.353	0.762	690888	REC_WORD	0.762	n/a	RUB	-999	1	[0, 0, 0]	n/a	FR1	1	R1395M
269.115	0.863	691650	REC_WORD	0.863	n/a	RUG	2	1	[0, 0, 0]	n/a	FR1	1	R1395M
269.978	0.759	692513	REC_WORD	0.759	n/a	PIN	3	1	[0, 0, 0]	n/a	FR1	1	R1395M
270.737	1.39	693272	REC_WORD	1.39	n/a	STEAK	8	1	[0, 0, 0]	n/a	FR1	1	R1395M
272.127	6.038	694662	REC_WORD	6.038	n/a	HOUSE	9	1	[0, 0, 0]	n/a	FR1	1	R1395M
278.165	7.957	700700	REC_WORD	7.957	n/a	BUG	-999	1	[0, 0, 0]	n/a	FR1	1	R1395M
286.122	7.184	708656	REC_WORD	7.184	n/a	SWAMP	1	1	[0, 0, 0]	n/a	FR1	1	R1395M
293.306	3.639	715840	REC_WORD	3.639	n/a	PIN	3	1	[0, 0, 0]	n/a	FR1	1	R1395M
296.945	36.936	719480	REC_END	n/a	n/a	n/a	-999	1	[0, 0, 0]	n/a	FR1	1	R1395M
333.881	10.35	756418	COUNTDOWN_START	n/a	n/a	n/a	-999	2	[0, 0, 0]	n/a	FR1	1	R1395M
344.231	0.0	766759	COUNTDOWN_END	n/a	n/a	n/a	-999	2	[0, 0, 0]	n/a	FR1	1	R1395M
344.231	2.233	766768	ENCODING_START	n/a	n/a	n/a	-999	2	[0, 0, 0]	n/a	FR1	1	R1395M
346.464	1.6	768996	WORD	n/a	wordpools/wordpool_long_EN.txt	MAP	1	2	[0, 0, 0]	n/a	FR1	1	R1395M
348.064	0.851	770596	WORD_OFF	n/a	n/a	MAP	1	2	[0, 0, 0]	n/a	FR1	1	R1395M
348.915	1.599	771448	WORD	n/a	wordpools/wordpool_long_EN.txt	CHILD	2	2	[0, 0, 0]	n/a	FR1	1	R1395M
350.514	0.783	773048	WORD_OFF	n/a	n/a	CHILD	2	2	[0, 0, 0]	n/a	FR1	1	R1395M
351.297	1.618	773825	WORD	n/a	wordpools/wordpool_long_EN.txt	OAR	3	2	[0, 0, 0]	n/a	FR1	1	R1395M
352.915	0.799	775444	WORD_OFF	n/a	n/a	OAR	3	2	[0, 0, 0]	n/a	FR1	1	R1395M
353.714	1.616	776248	WORD	n/a	wordpools/wordpool_long_EN.txt	PLATE	4	2	[0, 0, 0]	n/a	FR1	1	R1395M
355.33	1.001	777858	WORD_OFF	n/a	n/a	PLATE	4	2	[0, 0, 0]	n/a	FR1	1	R1395M
356.331	1.616	778859	WORD	n/a	wordpools/wordpool_long_EN.txt	SEA	5	2	[0, 0, 0]	n/a	FR1	1	R1395M
357.947	0.968	780478	WORD_OFF	n/a	n/a	SEA	5	2	[0, 0, 0]	n/a	FR1	1	R1395M
358.915	1.599	781442	WORD	n/a	wordpools/wordpool_long_EN.txt	CUBE	6	2	[0, 0, 0]	n/a	FR1	1	R1395M
360.514	0.933	783043	WORD_OFF	n/a	n/a	CUBE	6	2	[0, 0, 0]	n/a	FR1	1	R1395M
361.447	1.601	783978	WORD	n/a	wordpools/wordpool_long_EN.txt	CLAY	7	2	[0, 0, 0]	n/a	FR1	1	R1395M
363.048	0.833	785579	WORD_OFF	n/a	n/a	CLAY	7	2	[0, 0, 0]	n/a	FR1	1	R1395M
363.881	1.6	786412	WORD	n/a	wordpools/wordpool_long_EN.txt	CHURCH	8	2	[0, 0, 0]	n/a	FR1	1	R1395M
365.481	0.801	788012	WORD_OFF	n/a	n/a	CHURCH	8	2	[0, 0, 0]	n/a	FR1	1	R1395M
366.282	1.6	788807	WORD	n/a	wordpools/wordpool_long_EN.txt	RIB	9	2	[0, 0, 0]	n/a	FR1	1	R1395M
367.882	0.85	790408	WORD_OFF	n/a	n/a	RIB	9	2	[0, 0, 0]	n/a	FR1	1	R1395M
368.732	1.6	791259	WORD	n/a	wordpools/wordpool_long_EN.txt	STORE	10	2	[0, 0, 0]	n/a	FR1	1	R1395M
370.332	0.883	792860	WORD_OFF	n/a	n/a	STORE	10	2	[0, 0, 0]	n/a	FR1	1	R1395M
371.215	1.616	793749	WORD	n/a	wordpools/wordpool_long_EN.txt	TANK	11	2	[0, 0, 0]	n/a	FR1	1	R1395M
372.831	0.85	795358	WORD_OFF	n/a	n/a	TANK	11	2	[0, 0, 0]	n/a	FR1	1	R1395M
373.681	1.599	796210	WORD	n/a	wordpools/wordpool_long_EN.txt	STAIR	12	2	[0, 0, 0]	n/a	FR1	1	R1395M
375.28	0.001	797809	PROB	0.001	n/a	n/a	-999	2	[2, 4, 8]	14	FR1	1	R1395M
375.281	0.001	797810	WORD_OFF	n/a	n/a	STAIR	12	2	[0, 0, 0]	n/a	FR1	1	R1395M
375.282	0.001	797811	START	n/a	n/a	n/a	-999	2	[-999, -999, -999]	n/a	FR1	1	R1395M
375.283	0.0	797810	ENCODING_END	n/a	n/a	n/a	-999	2	[0, 0, 0]	n/a	FR1	1	R1395M
375.283	5.764	797810	DISTRACT_START	n/a	n/a	n/a	-999	2	[0, 0, 0]	n/a	FR1	1	R1395M
381.047	3.167	803576	PROB	3.167	n/a	n/a	-999	2	[4, 7, 1]	12	FR1	1	R1395M
384.214	3.249	806743	PROB	3.249	n/a	n/a	-999	2	[8, 4, 6]	18	FR1	1	R1395M
387.463	2.535	809992	PROB	2.535	n/a	n/a	-999	2	[1, 7, 4]	12	FR1	1	R1395M
389.998	2.583	812527	PROB	2.583	n/a	n/a	-999	2	[6, 1, 7]	14	FR1	1	R1395M
392.581	2.999	815109	PROB	2.999	n/a	n/a	-999	2	[8, 2, 5]	15	FR1	1	R1395M
395.58	0.001	818108	STOP	n/a	n/a	n/a	-999	2	[-999, -999, -999]	n/a	FR1	1	R1395M
395.581	2.25	818109	DISTRACT_END	n/a	n/a	n/a	-999	2	[0, 0, 0]	n/a	FR1	1	R1395M
397.831	1.707	820363	REC_START	n/a	n/a	n/a	-999	2	[0, 0, 0]	n/a	FR1	1	R1395M
399.538	1.27	822066	REC_WORD	1.27	n/a	PLATE	4	2	[0, 0, 0]	n/a	FR1	1	R1395M
400.808	0.971	823336	REC_WORD	0.971	n/a	MAP	1	2	[0, 0, 0]	n/a	FR1	1	R1395M
401.779	6.061	824307	REC_WORD	6.061	n/a	OAR	3	2	[0, 0, 0]	n/a	FR1	1	R1395M
407.84	14.667	830368	REC_WORD	14.667	n/a	CHILD	2	2	[0, 0, 0]	n/a	FR1	1	R1395M
422.507	5.542	845034	REC_WORD	5.542	n/a	HOUSE	-999	2	[0, 0, 0]	n/a	FR1	1	R1395M
428.049	15.699	850573	REC_END	n/a	n/a	n/a	-999	2	[0, 0, 0]	n/a	FR1	1	R1395M
443.748	10.35	866277	COUNTDOWN_START	n/a	n/a	n/a	-999	3	[0, 0, 0]	n/a	FR1	1	R1395M
454.098	0.001	876628	COUNTDOWN_END	n/a	n/a	n/a	-999	3	[0, 0, 0]	n/a	FR1	1	R1395M
454.099	2.132	876628	ENCODING_START	n/a	n/a	n/a	-999	3	[0, 0, 0]	n/a	FR1	1	R1395M
456.231	1.6	878752	WORD	n/a	wordpools/wordpool_long_EN.txt	TWIG	1	3	[0, 0, 0]	n/a	FR1	1	R1395M
457.831	0.767	880352	WORD_OFF	n/a	n/a	TWIG	1	3	[0, 0, 0]	n/a	FR1	1	R1395M
458.598	1.6	881120	WORD	n/a	wordpools/wordpool_long_EN.txt	TIE	2	3	[0, 0, 0]	n/a	FR1	1	R1395M
460.198	0.883	882720	WORD_OFF	n/a	n/a	TIE	2	3	[0, 0, 0]	n/a	FR1	1	R1395M
461.081	1.6	883609	WORD	n/a	wordpools/wordpool_long_EN.txt	FILM	3	3	[0, 0, 0]	n/a	FR1	1	R1395M
462.681	0.966	885209	WORD_OFF	n/a	n/a	FILM	3	3	[0, 0, 0]	n/a	FR1	1	R1395M
463.647	1.601	886173	WORD	n/a	wordpools/wordpool_long_EN.txt	SHIELD	4	3	[0, 0, 0]	n/a	FR1	1	R1395M
465.248	0.799	887773	WORD_OFF	n/a	n/a	SHIELD	4	3	[0, 0, 0]	n/a	FR1	1	R1395M
466.047	1.617	888569	WORD	n/a	wordpools/wordpool_long_EN.txt	BOOT	5	3	[0, 0, 0]	n/a	FR1	1	R1395M
467.664	0.916	890188	WORD_OFF	n/a	n/a	BOOT	5	3	[0, 0, 0]	n/a	FR1	1	R1395M
468.58	1.601	891105	WORD	n/a	wordpools/wordpool_long_EN.txt	SKY	6	3	[0, 0, 0]	n/a	FR1	1	R1395M
470.181	0.95	892705	WORD_OFF	n/a	n/a	SKY	6	3	[0, 0, 0]	n/a	FR1	1	R1395M
471.131	1.617	893660	WORD	n/a	wordpools/wordpool_long_EN.txt	PLAID	7	3	[0, 0, 0]	n/a	FR1	1	R1395M
472.748	0.783	895270	WORD_OFF	n/a	n/a	PLAID	7	3	[0, 0, 0]	n/a	FR1	1	R1395M
473.531	1.617	896056	WORD	n/a	wordpools/wordpool_long_EN.txt	RAIL	8	3	[0, 0, 0]	n/a	FR1	1	R1395M
475.148	0.9	897675	WORD_OFF	n/a	n/a	RAIL	8	3	[0, 0, 0]	n/a	FR1	1	R1395M
476.048	1.617	898573	WORD	n/a	wordpools/wordpool_long_EN.txt	GLOBE	9	3	[0, 0, 0]	n/a	FR1	1	R1395M
477.665	0.816	900192	WORD_OFF	n/a	n/a	GLOBE	9	3	[0, 0, 0]	n/a	FR1	1	R1395M
478.481	1.6	901006	WORD	n/a	wordpools/wordpool_long_EN.txt	BEEF	10	3	[0, 0, 0]	n/a	FR1	1	R1395M
480.081	0.934	902607	WORD_OFF	n/a	n/a	BEEF	10	3	[0, 0, 0]	n/a	FR1	1	R1395M
481.015	1.616	903542	WORD	n/a	wordpools/wordpool_long_EN.txt	STEAM	11	3	[0, 0, 0]	n/a	FR1	1	R1395M
482.631	0.834	905152	WORD_OFF	n/a	n/a	STEAM	11	3	[0, 0, 0]	n/a	FR1	1	R1395M
483.465	1.616	905985	WORD	n/a	wordpools/wordpool_long_EN.txt	ROCK	12	3	[0, 0, 0]	n/a	FR1	1	R1395M
485.081	0.0	907604	WORD_OFF	n/a	n/a	ROCK	12	3	[0, 0, 0]	n/a	FR1	1	R1395M
485.081	0.001	907605	PROB	0.001	n/a	n/a	-999	3	[7, 8, 6]	21	FR1	1	R1395M
485.082	0.001	907606	START	n/a	n/a	n/a	-999	3	[-999, -999, -999]	n/a	FR1	1	R1395M
485.083	0.0	907604	ENCODING_END	n/a	n/a	n/a	-999	3	[0, 0, 0]	n/a	FR1	1	R1395M
485.083	4.298	907613	DISTRACT_START	n/a	n/a	n/a	-999	3	[0, 0, 0]	n/a	FR1	1	R1395M
489.381	2.415	911904	PROB	2.415	n/a	n/a	-999	3	[4, 3, 2]	9	FR1	1	R1395M
491.796	2.717	914319	PROB	2.717	n/a	n/a	-999	3	[8, 1, 4]	13	FR1	1	R1395M
494.513	3.085	917036	PROB	3.085	n/a	n/a	-999	3	[3, 4, 3]	10	FR1	1	R1395M
497.598	3.484	920121	PROB	3.484	n/a	n/a	-999	3	[8, 8, 8]	24	FR1	1	R1395M
501.082	2.549	923605	PROB	2.549	n/a	n/a	-999	3	[5, 3, 4]	12	FR1	1	R1395M
503.631	2.749	926154	PROB	2.749	n/a	n/a	-999	3	[6, 2, 5]	13	FR1	1	R1395M
506.38	0.001	928902	STOP	n/a	n/a	n/a	-999	3	[-999, -999, -999]	n/a	FR1	1	R1395M
506.381	2.1	928904	DISTRACT_END	n/a	n/a	n/a	-999	3	[0, 0, 0]	n/a	FR1	1	R1395M
508.481	1.518	930999	REC_START	n/a	n/a	n/a	-999	3	[0, 0, 0]	n/a	FR1	1	R1395M
509.999	1.166	932521	REC_WORD	1.166	n/a	SKY	6	3	[0, 0, 0]	n/a	FR1	1	R1395M
511.165	1.683	933687	REC_WORD	1.683	n/a	BOOT	5	3	[0, 0, 0]	n/a	FR1	1	R1395M
512.848	2.645	935370	REC_WORD	2.645	n/a	TIE	2	3	[0, 0, 0]	n/a	FR1	1	R1395M
515.493	5.935	938015	REC_WORD	5.935	n/a	PLAID	7	3	[0, 0, 0]	n/a	FR1	1	R1395M
521.428	13.845	943950	REC_WORD	13.845	n/a	STEAM	11	3	[0, 0, 0]	n/a	FR1	1	R1395M
535.273	3.44	957794	REC_WORD	3.44	n/a	RAIL	8	3	[0, 0, 0]	n/a	FR1	1	R1395M
538.713	9.118	961238	REC_END	n/a	n/a	n/a	-999	3	[0, 0, 0]	n/a	FR1	1	R1395M
547.831	10.351	970353	COUNTDOWN_START	n/a	n/a	n/a	-999	4	[0, 0, 0]	n/a	FR1	1	R1395M
558.182	0.0	980703	COUNTDOWN_END	n/a	n/a	n/a	-999	4	[0, 0, 0]	n/a	FR1	1	R1395M
558.182	2.149	980703	ENCODING_START	n/a	n/a	n/a	-999	4	[0, 0, 0]	n/a	FR1	1	R1395M
560.331	1.6	982846	WORD	n/a	wordpools/wordpool_long_EN.txt	BLADE	1	4	[0, 0, 0]	n/a	FR1	1	R1395M
561.931	0.817	984447	WORD_OFF	n/a	n/a	BLADE	1	4	[0, 0, 0]	n/a	FR1	1	R1395M
562.748	1.617	985270	WORD	n/a	wordpools/wordpool_long_EN.txt	BOWL	2	4	[0, 0, 0]	n/a	FR1	1	R1395M
564.365	0.865	986880	WORD_OFF	n/a	n/a	BOWL	2	4	[0, 0, 0]	n/a	FR1	1	R1395M
565.23	1.601	987750	WORD	n/a	wordpools/wordpool_long_EN.txt	SKUNK	3	4	[0, 0, 0]	n/a	FR1	1	R1395M
566.831	0.783	989350	WORD_OFF	n/a	n/a	SKUNK	3	4	[0, 0, 0]	n/a	FR1	1	R1395M
567.614	1.617	990137	WORD	n/a	wordpools/wordpool_long_EN.txt	COIN	4	4	[0, 0, 0]	n/a	FR1	1	R1395M
569.231	0.933	991746	WORD_OFF	n/a	n/a	COIN	4	4	[0, 0, 0]	n/a	FR1	1	R1395M
570.164	1.6	992682	WORD	n/a	wordpools/wordpool_long_EN.txt	SHIP	5	4	[0, 0, 0]	n/a	FR1	1	R1395M
571.764	0.95	994282	WORD_OFF	n/a	n/a	SHIP	5	4	[0, 0, 0]	n/a	FR1	1	R1395M
572.714	1.617	995237	WORD	n/a	wordpools/wordpool_long_EN.txt	COOK	6	4	[0, 0, 0]	n/a	FR1	1	R1395M
574.331	0.983	996847	WORD_OFF	n/a	n/a	COOK	6	4	[0, 0, 0]	n/a	FR1	1	R1395M
575.314	1.601	997829	WORD	n/a	wordpools/wordpool_long_EN.txt	SPRING	7	4	[0, 0, 0]	n/a	FR1	1	R1395M
576.915	1.0	999430	WORD_OFF	n/a	n/a	SPRING	7	4	[0, 0, 0]	n/a	FR1	1	R1395M
577.915	1.616	1000431	WORD	n/a	wordpools/wordpool_long_EN.txt	CONE	8	4	[0, 0, 0]	n/a	FR1	1	R1395M
579.531	0.884	1002050	WORD_OFF	n/a	n/a	CONE	8	4	[0, 0, 0]	n/a	FR1	1	R1395M
580.415	1.615	1002930	WORD	n/a	wordpools/wordpool_long_EN.txt	POND	9	4	[0, 0, 0]	n/a	FR1	1	R1395M
582.03	0.901	1004549	WORD_OFF	n/a	n/a	POND	9	4	[0, 0, 0]	n/a	FR1	1	R1395M
582.931	1.6	1005447	WORD	n/a	wordpools/wordpool_long_EN.txt	GOAL	10	4	[0, 0, 0]	n/a	FR1	1	R1395M
584.531	0.984	1007047	WORD_OFF	n/a	n/a	GOAL	10	4	[0, 0, 0]	n/a	FR1	1	R1395M
585.515	1.6	1008030	WORD	n/a	wordpools/wordpool_long_EN.txt	DART	11	4	[0, 0, 0]	n/a	FR1	1	R1395M
587.115	0.999	1009630	WORD_OFF	n/a	n/a	DART	11	4	[0, 0, 0]	n/a	FR1	1	R1395M
588.114	1.6	1010632	WORD	n/a	wordpools/wordpool_long_EN.txt	FENCE	12	4	[0, 0, 0]	n/a	FR1	1	R1395M
589.714	0.001	1012232	PROB	0.001	n/a	n/a	-999	4	[6, 2, 3]	11	FR1	1	R1395M
589.715	0.0	1012232	WORD_OFF	n/a	n/a	FENCE	12	4	[0, 0, 0]	n/a	FR1	1	R1395M
589.715	0.001	1012233	START	n/a	n/a	n/a	-999	4	[-999, -999, -999]	n/a	FR1	1	R1395M
589.716	0.0	1012232	DISTRACT_START	n/a	n/a	n/a	-999	4	[0, 0, 0]	n/a	FR1	1	R1395M
589.716	3.982	1012232	ENCODING_END	n/a	n/a	n/a	-999	4	[0, 0, 0]	n/a	FR1	1	R1395M
593.698	2.816	1016216	PROB	2.816	n/a	n/a	-999	4	[7, 3, 6]	16	FR1	1	R1395M
596.514	2.45	1019032	PROB	2.45	n/a	n/a	-999	4	[2, 5, 3]	10	FR1	1	R1395M
598.964	2.267	1021481	PROB	2.267	n/a	n/a	-999	4	[6, 2, 5]	13	FR1	1	R1395M
601.231	2.35	1023748	PROB	2.35	n/a	n/a	-999	4	[2, 4, 8]	14	FR1	1	R1395M
603.581	2.233	1026098	PROB	2.233	n/a	n/a	-999	4	[6, 1, 7]	14	FR1	1	R1395M
605.814	3.034	1028331	PROB	3.034	n/a	n/a	-999	4	[3, 1, 6]	10	FR1	1	R1395M
608.848	2.316	1031365	PROB	2.316	n/a	n/a	-999	4	[8, 2, 1]	11	FR1	1	R1395M
611.164	0.001	1033681	STOP	n/a	n/a	n/a	-999	4	[-999, -999, -999]	n/a	FR1	1	R1395M
611.165	2.132	1033682	DISTRACT_END	n/a	n/a	n/a	-999	4	[0, 0, 0]	n/a	FR1	1	R1395M
613.297	1.224	1035814	REC_START	n/a	n/a	n/a	-999	4	[0, 0, 0]	n/a	FR1	1	R1395M
614.521	0.683	1037038	REC_WORD	0.683	n/a	BLADE	1	4	[0, 0, 0]	n/a	FR1	1	R1395M
615.204	0.552	1037721	REC_WORD	0.552	n/a	BOWL	2	4	[0, 0, 0]	n/a	FR1	1	R1395M
615.756	5.927	1038273	REC_WORD	5.927	n/a	SKUNK	3	4	[0, 0, 0]	n/a	FR1	1	R1395M
621.683	4.003	1044199	REC_WORD	4.003	n/a	CUP	-999	4	[0, 0, 0]	n/a	FR1	1	R1395M
625.686	16.962	1048202	REC_WORD	16.962	n/a	SHIP	5	4	[0, 0, 0]	n/a	FR1	1	R1395M
642.648	0.865	1065163	REC_WORD	0.865	n/a	COIN	4	4	[0, 0, 0]	n/a	FR1	1	R1395M
643.513	16.135	1066025	REC_END	n/a	n/a	n/a	-999	4	[0, 0, 0]	n/a	FR1	1	R1395M
659.648	10.35	1082168	COUNTDOWN_START	n/a	n/a	n/a	-999	5	[0, 0, 0]	n/a	FR1	1	R1395M
669.998	0.0	1092509	COUNTDOWN_END	n/a	n/a	n/a	-999	5	[0, 0, 0]	n/a	FR1	1	R1395M
669.998	2.083	1092518	ENCODING_START	n/a	n/a	n/a	-999	5	[0, 0, 0]	n/a	FR1	1	R1395M
672.081	1.616	1094596	WORD	n/a	wordpools/wordpool_long_EN.txt	SNAIL	1	5	[0, 0, 0]	n/a	FR1	1	R1395M
673.697	0.834	1096215	WORD_OFF	n/a	n/a	SNAIL	1	5	[0, 0, 0]	n/a	FR1	1	R1395M
674.531	1.6	1097048	WORD	n/a	wordpools/wordpool_long_EN.txt	CLIFF	2	5	[0, 0, 0]	n/a	FR1	1	R1395M
676.131	0.95	1098648	WORD_OFF	n/a	n/a	CLIFF	2	5	[0, 0, 0]	n/a	FR1	1	R1395M
677.081	1.617	1099593	WORD	n/a	wordpools/wordpool_long_EN.txt	DITCH	3	5	[0, 0, 0]	n/a	FR1	1	R1395M
678.698	0.883	1101212	WORD_OFF	n/a	n/a	DITCH	3	5	[0, 0, 0]	n/a	FR1	1	R1395M
679.581	1.6	1102092	WORD	n/a	wordpools/wordpool_long_EN.txt	GLASS	4	5	[0, 0, 0]	n/a	FR1	1	R1395M
681.181	0.799	1103692	WORD_OFF	n/a	n/a	GLASS	4	5	[0, 0, 0]	n/a	FR1	1	R1395M
681.98	1.601	1104497	WORD	n/a	wordpools/wordpool_long_EN.txt	RAFT	5	5	[0, 0, 0]	n/a	FR1	1	R1395M
683.581	0.917	1106098	WORD_OFF	n/a	n/a	RAFT	5	5	[0, 0, 0]	n/a	FR1	1	R1395M
684.498	1.6	1107015	WORD	n/a	wordpools/wordpool_long_EN.txt	CORD	6	5	[0, 0, 0]	n/a	FR1	1	R1395M
686.098	0.983	1108615	WORD_OFF	n/a	n/a	CORD	6	5	[0, 0, 0]	n/a	FR1	1	R1395M
687.081	1.617	1109598	WORD	n/a	wordpools/wordpool_long_EN.txt	SOCK	7	5	[0, 0, 0]	n/a	FR1	1	R1395M
688.698	0.883	1111207	WORD_OFF	n/a	n/a	SOCK	7	5	[0, 0, 0]	n/a	FR1	1	R1395M
689.581	1.6	1112096	WORD	n/a	wordpools/wordpool_long_EN.txt	GLOVE	8	5	[0, 0, 0]	n/a	FR1	1	R1395M
691.181	0.85	1113697	WORD_OFF	n/a	n/a	GLOVE	8	5	[0, 0, 0]	n/a	FR1	1	R1395M
692.031	1.617	1114548	WORD	n/a	wordpools/wordpool_long_EN.txt	BRUSH	9	5	[0, 0, 0]	n/a	FR1	1	R1395M
693.648	0.767	1116158	WORD_OFF	n/a	n/a	BRUSH	9	5	[0, 0, 0]	n/a	FR1	1	R1395M
694.415	1.6	1116925	WORD	n/a	wordpools/wordpool_long_EN.txt	VAULT	10	5	[0, 0, 0]	n/a	FR1	1	R1395M
696.015	0.783	1118526	WORD_OFF	n/a	n/a	VAULT	10	5	[0, 0, 0]	n/a	FR1	1	R1395M
696.798	1.617	1119312	WORD	n/a	wordpools/wordpool_long_EN.txt	NAIL	11	5	[0, 0, 0]	n/a	FR1	1	R1395M
698.415	0.883	1120931	WORD_OFF	n/a	n/a	NAIL	11	5	[0, 0, 0]	n/a	FR1	1	R1395M
699.298	1.599	1121810	WORD	n/a	wordpools/wordpool_long_EN.txt	THREAD	12	5	[0, 0, 0]	n/a	FR1	1	R1395M
700.897	0.001	1123409	PROB	0.001	n/a	n/a	-999	5	[7, 4, 7]	18	FR1	1	R1395M
700.898	0.0	1123411	WORD_OFF	n/a	n/a	THREAD	12	5	[0, 0, 0]	n/a	FR1	1	R1395M
700.898	0.001	1123410	START	n/a	n/a	n/a	-999	5	[-999, -999, -999]	n/a	FR1	1	R1395M
700.899	0.0	1123411	ENCODING_END	n/a	n/a	n/a	-999	5	[0, 0, 0]	n/a	FR1	1	R1395M
700.899	4.098	1123411	DISTRACT_START	n/a	n/a	n/a	-999	5	[0, 0, 0]	n/a	FR1	1	R1395M
704.997	3.017	1127509	PROB	3.017	n/a	n/a	-999	5	[7, 3, 5]	15	FR1	1	R1395M
708.014	2.534	1130526	PROB	2.534	n/a	n/a	-999	5	[1, 1, 6]	8	FR1	1	R1395M
710.548	2.748	1133060	PROB	2.748	n/a	n/a	-999	5	[2, 5, 8]	15	FR1	1	R1395M
713.296	2.435	1135807	PROB	2.435	n/a	n/a	-999	5	[2, 3, 6]	11	FR1	1	R1395M
715.731	3.249	1138242	PROB	3.249	n/a	n/a	-999	5	[4, 5, 7]	16	FR1	1	R1395M
718.98	5.016	1141491	PROB	5.016	n/a	n/a	-999	5	[8, 7, 8]	23	FR1	1	R1395M
723.996	0.001	1146507	STOP	n/a	n/a	n/a	-999	5	[-999, -999, -999]	n/a	FR1	1	R1395M
723.997	2.218	1146507	DISTRACT_END	n/a	n/a	n/a	-999	5	[0, 0, 0]	n/a	FR1	1	R1395M
726.215	2.223	1148724	REC_START	n/a	n/a	n/a	-999	5	[0, 0, 0]	n/a	FR1	1	R1395M
728.438	1.212	1150949	REC_WORD	1.212	n/a	CLIFF	2	5	[0, 0, 0]	n/a	FR1	1	R1395M
729.65	2.25	1152161	REC_WORD	2.25	n/a	DITCH	3	5	[0, 0, 0]	n/a	FR1	1	R1395M
731.9	1.104	1154410	REC_WORD	1.104	n/a	GLASS	4	5	[0, 0, 0]	n/a	FR1	1	R1395M
733.004	8.444	1155514	REC_WORD	8.444	n/a	RAFT	5	5	[0, 0, 0]	n/a	FR1	1	R1395M
741.448	4.007	1163958	REC_WORD	4.007	n/a	SOCK	7	5	[0, 0, 0]	n/a	FR1	1	R1395M
745.455	10.994	1167965	REC_WORD	10.994	n/a	GLOVE	8	5	[0, 0, 0]	n/a	FR1	1	R1395M
756.449	8.832	1178963	REC_END	n/a	n/a	n/a	-999	5	[0, 0, 0]	n/a	FR1	1	R1395M
765.281	10.35	1187788	COUNTDOWN_START	n/a	n/a	n/a	-999	6	[0, 0, 0]	n/a	FR1	1	R1395M
775.631	0.0	1198138	COUNTDOWN_END	n/a	n/a	n/a	-999	6	[0, 0, 0]	n/a	FR1	1	R1395M
775.631	2.2	1198138	ENCODING_START	n/a	n/a	n/a	-999	6	[0, 0, 0]	n/a	FR1	1	R1395M
777.831	1.616	1200338	WORD	n/a	wordpools/wordpool_long_EN.txt	PET	1	6	[0, 0, 0]	n/a	FR1	1	R1395M
779.447	0.934	1201956	WORD_OFF	n/a	n/a	PET	1	6	[0, 0, 0]	n/a	FR1	1	R1395M
780.381	1.6	1202892	WORD	n/a	wordpools/wordpool_long_EN.txt	MARSH	2	6	[0, 0, 0]	n/a	FR1	1	R1395M
781.981	0.8	1204493	WORD_OFF	n/a	n/a	MARSH	2	6	[0, 0, 0]	n/a	FR1	1	R1395M
782.781	1.616	1205288	WORD	n/a	wordpools/wordpool_long_EN.txt	FAN	3	6	[0, 0, 0]	n/a	FR1	1	R1395M
784.397	1.001	1206907	WORD_OFF	n/a	n/a	FAN	3	6	[0, 0, 0]	n/a	FR1	1	R1395M
785.398	1.6	1207908	WORD	n/a	wordpools/wordpool_long_EN.txt	BOOK	4	6	[0, 0, 0]	n/a	FR1	1	R1395M
786.998	0.9	1209509	WORD_OFF	n/a	n/a	BOOK	4	6	[0, 0, 0]	n/a	FR1	1	R1395M
787.898	1.6	1210407	WORD	n/a	wordpools/wordpool_long_EN.txt	CHIN	5	6	[0, 0, 0]	n/a	FR1	1	R1395M
789.498	0.767	1212008	WORD_OFF	n/a	n/a	CHIN	5	6	[0, 0, 0]	n/a	FR1	1	R1395M
790.265	1.6	1212775	WORD	n/a	wordpools/wordpool_long_EN.txt	SAIL	6	6	[0, 0, 0]	n/a	FR1	1	R1395M
791.865	0.95	1214375	WORD_OFF	n/a	n/a	SAIL	6	6	[0, 0, 0]	n/a	FR1	1	R1395M
792.815	1.616	1215320	WORD	n/a	wordpools/wordpool_long_EN.txt	BROOK	7	6	[0, 0, 0]	n/a	FR1	1	R1395M
794.431	1.0	1216939	WORD_OFF	n/a	n/a	BROOK	7	6	[0, 0, 0]	n/a	FR1	1	R1395M
795.431	1.6	1217941	WORD	n/a	wordpools/wordpool_long_EN.txt	PALM	8	6	[0, 0, 0]	n/a	FR1	1	R1395M
797.031	1.0	1219541	WORD_OFF	n/a	n/a	PALM	8	6	[0, 0, 0]	n/a	FR1	1	R1395M
798.031	1.616	1220542	WORD	n/a	wordpools/wordpool_long_EN.txt	STORM	9	6	[0, 0, 0]	n/a	FR1	1	R1395M
799.647	0.801	1222152	WORD_OFF	n/a	n/a	STORM	9	6	[0, 0, 0]	n/a	FR1	1	R1395M
800.448	1.6	1222957	WORD	n/a	wordpools/wordpool_long_EN.txt	BLOOM	10	6	[0, 0, 0]	n/a	FR1	1	R1395M
802.048	0.8	1224557	WORD_OFF	n/a	n/a	BLOOM	10	6	[0, 0, 0]	n/a	FR1	1	R1395M
802.848	1.617	1225353	WORD	n/a	wordpools/wordpool_long_EN.txt	TOOTH	11	6	[0, 0, 0]	n/a	FR1	1	R1395M
804.465	0.816	1226972	WORD_OFF	n/a	n/a	TOOTH	11	6	[0, 0, 0]	n/a	FR1	1	R1395M
805.281	1.616	1227786	WORD	n/a	wordpools/wordpool_long_EN.txt	SWORD	12	6	[0, 0, 0]	n/a	FR1	1	R1395M
806.897	0.001	1229403	PROB	0.001	n/a	n/a	-999	6	[1, 1, 5]	7	FR1	1	R1395M
806.898	0.0	1229405	WORD_OFF	n/a	n/a	SWORD	12	6	[0, 0, 0]	n/a	FR1	1	R1395M
806.898	0.001	1229404	START	n/a	n/a	n/a	-999	6	[-999, -999, -999]	n/a	FR1	1	R1395M
806.899	0.0	1229405	ENCODING_END	n/a	n/a	n/a	-999	6	[0, 0, 0]	n/a	FR1	1	R1395M
806.899	5.798	1229405	DISTRACT_START	n/a	n/a	n/a	-999	6	[0, 0, 0]	n/a	FR1	1	R1395M
812.697	2.234	1235203	PROB	2.234	n/a	n/a	-999	6	[2, 3, 4]	9	FR1	1	R1395M
814.931	2.567	1237437	PROB	2.567	n/a	n/a	-999	6	[8, 7, 5]	20	FR1	1	R1395M
817.498	2.649	1240004	PROB	2.649	n/a	n/a	-999	6	[2, 5, 3]	10	FR1	1	R1395M
820.147	2.767	1242653	PROB	2.767	n/a	n/a	-999	6	[3, 5, 3]	11	FR1	1	R1395M
822.914	2.499	1245420	PROB	2.499	n/a	n/a	-999	6	[4, 1, 7]	12	FR1	1	R1395M
825.413	2.334	1247918	PROB	2.334	n/a	n/a	-999	6	[2, 2, 3]	7	FR1	1	R1395M
827.747	0.001	1250252	STOP	n/a	n/a	n/a	-999	6	[-999, -999, -999]	n/a	FR1	1	R1395M
827.748	2.3	1250256	DISTRACT_END	n/a	n/a	n/a	-999	6	[0, 0, 0]	n/a	FR1	1	R1395M
830.048	1.371	1252556	REC_START	n/a	n/a	n/a	-999	6	[0, 0, 0]	n/a	FR1	1	R1395M
831.419	1.271	1253924	REC_WORD	1.271	n/a	MARSH	2	6	[0, 0, 0]	n/a	FR1	1	R1395M
832.69	3.98	1255195	REC_WORD	3.98	n/a	PET	1	6	[0, 0, 0]	n/a	FR1	1	R1395M
836.67	3.785	1259175	REC_WORD	3.785	n/a	CHIN	5	6	[0, 0, 0]	n/a	FR1	1	R1395M
840.455	19.813	1262960	REC_WORD	19.813	n/a	SAIL	6	6	[0, 0, 0]	n/a	FR1	1	R1395M
860.268	11.247	1282768	REC_END	n/a	n/a	n/a	-999	6	[0, 0, 0]	n/a	FR1	1	R1395M
871.515	10.35	1294016	COUNTDOWN_START	n/a	n/a	n/a	-999	7	[0, 0, 0]	n/a	FR1	1	R1395M
881.865	0.0	1304366	COUNTDOWN_END	n/a	n/a	n/a	-999	7	[0, 0, 0]	n/a	FR1	1	R1395M
881.865	2.232	1304366	ENCODING_START	n/a	n/a	n/a	-999	7	[0, 0, 0]	n/a	FR1	1	R1395M
884.097	1.601	1306603	WORD	n/a	wordpools/wordpool_long_EN.txt	STAR	1	7	[0, 0, 0]	n/a	FR1	1	R1395M
885.698	0.816	1308203	WORD_OFF	n/a	n/a	STAR	1	7	[0, 0, 0]	n/a	FR1	1	R1395M
886.514	1.601	1309018	WORD	n/a	wordpools/wordpool_long_EN.txt	LOFT	2	7	[0, 0, 0]	n/a	FR1	1	R1395M
888.115	0.95	1310618	WORD_OFF	n/a	n/a	LOFT	2	7	[0, 0, 0]	n/a	FR1	1	R1395M
889.065	1.6	1311563	WORD	n/a	wordpools/wordpool_long_EN.txt	TOWN	3	7	[0, 0, 0]	n/a	FR1	1	R1395M
890.665	0.866	1313163	WORD_OFF	n/a	n/a	TOWN	3	7	[0, 0, 0]	n/a	FR1	1	R1395M
891.531	1.617	1314034	WORD	n/a	wordpools/wordpool_long_EN.txt	PERCH	4	7	[0, 0, 0]	n/a	FR1	1	R1395M
893.148	0.983	1315653	WORD_OFF	n/a	n/a	PERCH	4	7	[0, 0, 0]	n/a	FR1	1	R1395M
894.131	1.6	1316635	WORD	n/a	wordpools/wordpool_long_EN.txt	SNAKE	5	7	[0, 0, 0]	n/a	FR1	1	R1395M
895.731	0.933	1318236	WORD_OFF	n/a	n/a	SNAKE	5	7	[0, 0, 0]	n/a	FR1	1	R1395M
896.664	1.601	1319162	WORD	n/a	wordpools/wordpool_long_EN.txt	TILE	6	7	[0, 0, 0]	n/a	FR1	1	R1395M
898.265	0.816	1320762	WORD_OFF	n/a	n/a	TILE	6	7	[0, 0, 0]	n/a	FR1	1	R1395M
899.081	1.617	1321586	WORD	n/a	wordpools/wordpool_long_EN.txt	STEM	7	7	[0, 0, 0]	n/a	FR1	1	R1395M
900.698	0.767	1323196	WORD_OFF	n/a	n/a	STEM	7	7	[0, 0, 0]	n/a	FR1	1	R1395M
901.465	1.6	1323963	WORD	n/a	wordpools/wordpool_long_EN.txt	GOLD	8	7	[0, 0, 0]	n/a	FR1	1	R1395M
903.065	0.998	1325563	WORD_OFF	n/a	n/a	GOLD	8	7	[0, 0, 0]	n/a	FR1	1	R1395M
904.063	1.602	1326565	WORD	n/a	wordpools/wordpool_long_EN.txt	ROD	9	7	[0, 0, 0]	n/a	FR1	1	R1395M
905.665	0.916	1328165	WORD_OFF	n/a	n/a	ROD	9	7	[0, 0, 0]	n/a	FR1	1	R1395M
906.581	1.6	1329082	WORD	n/a	wordpools/wordpool_long_EN.txt	MAT	10	7	[0, 0, 0]	n/a	FR1	1	R1395M
908.181	0.9	1330682	WORD_OFF	n/a	n/a	MAT	10	7	[0, 0, 0]	n/a	FR1	1	R1395M
909.081	1.6	1331581	WORD	n/a	wordpools/wordpool_long_EN.txt	OX	11	7	[0, 0, 0]	n/a	FR1	1	R1395M
910.681	0.767	1333181	WORD_OFF	n/a	n/a	OX	11	7	[0, 0, 0]	n/a	FR1	1	R1395M
911.448	1.616	1333949	WORD	n/a	wordpools/wordpool_long_EN.txt	SMOKE	12	7	[0, 0, 0]	n/a	FR1	1	R1395M
913.064	0.001	1335565	PROB	0.001	n/a	n/a	-999	7	[4, 8, 6]	18	FR1	1	R1395M
913.065	0.0	1335568	WORD_OFF	n/a	n/a	SMOKE	12	7	[0, 0, 0]	n/a	FR1	1	R1395M
913.065	0.001	1335566	START	n/a	n/a	n/a	-999	7	[-999, -999, -999]	n/a	FR1	1	R1395M
913.066	0.0	1335568	ENCODING_END	n/a	n/a	n/a	-999	7	[0, 0, 0]	n/a	FR1	1	R1395M
913.066	3.832	1335568	DISTRACT_START	n/a	n/a	n/a	-999	7	[0, 0, 0]	n/a	FR1	1	R1395M
916.898	2.682	1339399	PROB	2.682	n/a	n/a	-999	7	[7, 7, 1]	15	FR1	1	R1395M
919.58	5.167	1342080	PROB	5.167	n/a	n/a	-999	7	[7, 7, 2]	16	FR1	1	R1395M
924.747	2.517	1347247	PROB	2.517	n/a	n/a	-999	7	[3, 1, 1]	5	FR1	1	R1395M
927.264	3.317	1349764	PROB	3.317	n/a	n/a	-999	7	[1, 6, 8]	15	FR1	1	R1395M
930.581	2.982	1353081	PROB	2.982	n/a	n/a	-999	7	[7, 3, 2]	12	FR1	1	R1395M
933.563	0.001	1356063	STOP	n/a	n/a	n/a	-999	7	[-999, -999, -999]	n/a	FR1	1	R1395M
933.564	2.166	1356063	DISTRACT_END	n/a	n/a	n/a	-999	7	[0, 0, 0]	n/a	FR1	1	R1395M
935.73	0.674	1358232	REC_START	n/a	n/a	n/a	-999	7	[0, 0, 0]	n/a	FR1	1	R1395M
936.404	1.58	1358904	REC_WORD	1.58	n/a	GOLD	8	7	[0, 0, 0]	n/a	FR1	1	R1395M
937.984	1.761	1360484	REC_WORD	1.761	n/a	STEM	7	7	[0, 0, 0]	n/a	FR1	1	R1395M
939.745	1.715	1362244	REC_WORD	1.715	n/a	ROD	9	7	[0, 0, 0]	n/a	FR1	1	R1395M
941.46	3.161	1363959	REC_WORD	3.161	n/a	MAT	10	7	[0, 0, 0]	n/a	FR1	1	R1395M
944.621	3.137	1367120	REC_WORD	3.137	n/a	LOFT	2	7	[0, 0, 0]	n/a	FR1	1	R1395M
947.758	4.004	1370257	REC_WORD	4.004	n/a	STAR	1	7	[0, 0, 0]	n/a	FR1	1	R1395M
951.762	14.193	1374261	REC_WORD	14.193	n/a	PERCH	4	7	[0, 0, 0]	n/a	FR1	1	R1395M
965.955	28.859	1388452	REC_END	n/a	n/a	n/a	-999	7	[0, 0, 0]	n/a	FR1	1	R1395M
994.814	10.351	1417314	COUNTDOWN_START	n/a	n/a	n/a	-999	8	[0, 0, 0]	n/a	FR1	1	R1395M
1005.165	0.0	1427664	ENCODING_START	n/a	n/a	n/a	-999	8	[0, 0, 0]	n/a	FR1	1	R1395M
1005.165	2.066	1427664	COUNTDOWN_END	n/a	n/a	n/a	-999	8	[0, 0, 0]	n/a	FR1	1	R1395M
1007.231	1.617	1429723	WORD	n/a	wordpools/wordpool_long_EN.txt	FRIEND	1	8	[0, 0, 0]	n/a	FR1	1	R1395M
1008.848	0.782	1431342	WORD_OFF	n/a	n/a	FRIEND	1	8	[0, 0, 0]	n/a	FR1	1	R1395M
1009.63	1.618	1432128	WORD	n/a	wordpools/wordpool_long_EN.txt	HOOF	2	8	[0, 0, 0]	n/a	FR1	1	R1395M
1011.248	0.917	1433747	WORD_OFF	n/a	n/a	HOOF	2	8	[0, 0, 0]	n/a	FR1	1	R1395M
1012.165	1.6	1434655	WORD	n/a	wordpools/wordpool_long_EN.txt	BIRD	3	8	[0, 0, 0]	n/a	FR1	1	R1395M
1013.765	0.983	1436256	WORD_OFF	n/a	n/a	BIRD	3	8	[0, 0, 0]	n/a	FR1	1	R1395M
1014.748	1.617	1437238	WORD	n/a	wordpools/wordpool_long_EN.txt	TENT	4	8	[0, 0, 0]	n/a	FR1	1	R1395M
1016.365	0.933	1438857	WORD_OFF	n/a	n/a	TENT	4	8	[0, 0, 0]	n/a	FR1	1	R1395M
1017.298	1.6	1439793	WORD	n/a	wordpools/wordpool_long_EN.txt	CLAM	5	8	[0, 0, 0]	n/a	FR1	1	R1395M
1018.898	0.967	1441393	WORD_OFF	n/a	n/a	CLAM	5	8	[0, 0, 0]	n/a	FR1	1	R1395M
1019.865	1.6	1442357	WORD	n/a	wordpools/wordpool_long_EN.txt	FOAM	6	8	[0, 0, 0]	n/a	FR1	1	R1395M
1021.465	0.932	1443958	WORD_OFF	n/a	n/a	FOAM	6	8	[0, 0, 0]	n/a	FR1	1	R1395M
1022.397	1.601	1444893	WORD	n/a	wordpools/wordpool_long_EN.txt	GUARD	7	8	[0, 0, 0]	n/a	FR1	1	R1395M
1023.998	0.933	1446494	WORD_OFF	n/a	n/a	GUARD	7	8	[0, 0, 0]	n/a	FR1	1	R1395M
1024.931	1.6	1447430	WORD	n/a	wordpools/wordpool_long_EN.txt	QUAIL	8	8	[0, 0, 0]	n/a	FR1	1	R1395M
1026.531	0.8	1449030	WORD_OFF	n/a	n/a	QUAIL	8	8	[0, 0, 0]	n/a	FR1	1	R1395M
1027.331	1.616	1449825	WORD	n/a	wordpools/wordpool_long_EN.txt	RAT	9	8	[0, 0, 0]	n/a	FR1	1	R1395M
1028.947	0.918	1451444	WORD_OFF	n/a	n/a	RAT	9	8	[0, 0, 0]	n/a	FR1	1	R1395M
1029.865	1.616	1452361	WORD	n/a	wordpools/wordpool_long_EN.txt	HOOD	10	8	[0, 0, 0]	n/a	FR1	1	R1395M
1031.481	1.0	1453980	WORD_OFF	n/a	n/a	HOOD	10	8	[0, 0, 0]	n/a	FR1	1	R1395M
1032.481	1.6	1454972	WORD	n/a	wordpools/wordpool_long_EN.txt	SEAL	11	8	[0, 0, 0]	n/a	FR1	1	R1395M
1034.081	0.784	1456573	WORD_OFF	n/a	n/a	SEAL	11	8	[0, 0, 0]	n/a	FR1	1	R1395M
1034.865	1.599	1457359	WORD	n/a	wordpools/wordpool_long_EN.txt	POLE	12	8	[0, 0, 0]	n/a	FR1	1	R1395M
1036.464	0.001	1458958	PROB	0.001	n/a	n/a	-999	8	[5, 8, 5]	18	FR1	1	R1395M
1036.465	0.0	1458959	WORD_OFF	n/a	n/a	POLE	12	8	[0, 0, 0]	n/a	FR1	1	R1395M
1036.465	0.001	1458959	START	n/a	n/a	n/a	-999	8	[-999, -999, -999]	n/a	FR1	1	R1395M
1036.466	0.0	1458959	ENCODING_END	n/a	n/a	n/a	-999	8	[0, 0, 0]	n/a	FR1	1	R1395M
1036.466	4.465	1458959	DISTRACT_START	n/a	n/a	n/a	-999	8	[0, 0, 0]	n/a	FR1	1	R1395M
1040.931	5.233	1463425	PROB	5.233	n/a	n/a	-999	8	[6, 7, 5]	18	FR1	1	R1395M
1046.164	3.05	1468658	PROB	3.05	n/a	n/a	-999	8	[4, 2, 8]	14	FR1	1	R1395M
1049.214	2.866	1471708	PROB	2.866	n/a	n/a	-999	8	[7, 5, 2]	14	FR1	1	R1395M
1052.08	2.9	1474573	PROB	2.9	n/a	n/a	-999	8	[6, 3, 6]	15	FR1	1	R1395M
1054.98	2.4	1477473	PROB	2.4	n/a	n/a	-999	8	[7, 7, 7]	21	FR1	1	R1395M
1057.38	0.001	1479873	STOP	n/a	n/a	n/a	-999	8	[-999, -999, -999]	n/a	FR1	1	R1395M
1057.381	2.133	1479875	DISTRACT_END	n/a	n/a	n/a	-999	8	[0, 0, 0]	n/a	FR1	1	R1395M
1059.514	1.326	1482008	REC_START	n/a	n/a	n/a	-999	8	[0, 0, 0]	n/a	FR1	1	R1395M
1060.84	1.09	1483333	REC_WORD	1.09	n/a	QUAIL	8	8	[0, 0, 0]	n/a	FR1	1	R1395M
1061.93	1.425	1484423	REC_WORD	1.425	n/a	HAT	-999	8	[0, 0, 0]	n/a	FR1	1	R1395M
1063.355	1.353	1485848	REC_WORD	1.353	n/a	WOOD	-999	8	[0, 0, 0]	n/a	FR1	1	R1395M
1064.708	1.517	1487201	REC_WORD	1.517	n/a	SEAL	11	8	[0, 0, 0]	n/a	FR1	1	R1395M
1066.225	1.33	1488718	REC_WORD	1.33	n/a	HOOF	2	8	[0, 0, 0]	n/a	FR1	1	R1395M
1067.555	22.175	1490048	REC_WORD	22.175	n/a	FRIEND	1	8	[0, 0, 0]	n/a	FR1	1	R1395M
1089.73	8.668	1512218	REC_END	n/a	n/a	n/a	-999	8	[0, 0, 0]	n/a	FR1	1	R1395M
1098.398	10.35	1520894	COUNTDOWN_START	n/a	n/a	n/a	-999	9	[0, 0, 0]	n/a	FR1	1	R1395M
1108.748	0.0	1531235	COUNTDOWN_END	n/a	n/a	n/a	-999	9	[0, 0, 0]	n/a	FR1	1	R1395M
1108.748	2.267	1531244	ENCODING_START	n/a	n/a	n/a	-999	9	[0, 0, 0]	n/a	FR1	1	R1395M
1111.015	1.6	1533509	WORD	n/a	wordpools/wordpool_long_EN.txt	FRAME	1	9	[0, 0, 0]	n/a	FR1	1	R1395M
1112.615	0.9	1535100	WORD_OFF	n/a	n/a	FRAME	1	9	[0, 0, 0]	n/a	FR1	1	R1395M
1113.515	1.616	1536008	WORD	n/a	wordpools/wordpool_long_EN.txt	TOY	2	9	[0, 0, 0]	n/a	FR1	1	R1395M
1115.131	0.967	1537617	WORD_OFF	n/a	n/a	TOY	2	9	[0, 0, 0]	n/a	FR1	1	R1395M
1116.098	1.6	1538591	WORD	n/a	wordpools/wordpool_long_EN.txt	JUDGE	3	9	[0, 0, 0]	n/a	FR1	1	R1395M
1117.698	0.767	1540191	WORD_OFF	n/a	n/a	JUDGE	3	9	[0, 0, 0]	n/a	FR1	1	R1395M
1118.465	1.6	1540958	WORD	n/a	wordpools/wordpool_long_EN.txt	TRIBE	4	9	[0, 0, 0]	n/a	FR1	1	R1395M
1120.065	0.816	1542559	WORD_OFF	n/a	n/a	TRIBE	4	9	[0, 0, 0]	n/a	FR1	1	R1395M
1120.881	1.6	1543373	WORD	n/a	wordpools/wordpool_long_EN.txt	HOOK	5	9	[0, 0, 0]	n/a	FR1	1	R1395M
1122.481	0.95	1544973	WORD_OFF	n/a	n/a	HOOK	5	9	[0, 0, 0]	n/a	FR1	1	R1395M
1123.431	1.617	1545918	WORD	n/a	wordpools/wordpool_long_EN.txt	BOMB	6	9	[0, 0, 0]	n/a	FR1	1	R1395M
1125.048	0.9	1547537	WORD_OFF	n/a	n/a	BOMB	6	9	[0, 0, 0]	n/a	FR1	1	R1395M
1125.948	1.6	1548436	WORD	n/a	wordpools/wordpool_long_EN.txt	FROG	7	9	[0, 0, 0]	n/a	FR1	1	R1395M
1127.548	0.999	1550036	WORD_OFF	n/a	n/a	FROG	7	9	[0, 0, 0]	n/a	FR1	1	R1395M
1128.547	1.601	1551037	WORD	n/a	wordpools/wordpool_long_EN.txt	STRAW	8	9	[0, 0, 0]	n/a	FR1	1	R1395M
1130.148	0.816	1552638	WORD_OFF	n/a	n/a	STRAW	8	9	[0, 0, 0]	n/a	FR1	1	R1395M
1130.964	1.6	1553452	WORD	n/a	wordpools/wordpool_long_EN.txt	FOOD	9	9	[0, 0, 0]	n/a	FR1	1	R1395M
1132.564	0.851	1555052	WORD_OFF	n/a	n/a	FOOD	9	9	[0, 0, 0]	n/a	FR1	1	R1395M
1133.415	1.616	1555904	WORD	n/a	wordpools/wordpool_long_EN.txt	STOOL	10	9	[0, 0, 0]	n/a	FR1	1	R1395M
1135.031	0.9	1557523	WORD_OFF	n/a	n/a	STOOL	10	9	[0, 0, 0]	n/a	FR1	1	R1395M
1135.931	1.6	1558421	WORD	n/a	wordpools/wordpool_long_EN.txt	NEST	11	9	[0, 0, 0]	n/a	FR1	1	R1395M
1137.531	1.0	1560022	WORD_OFF	n/a	n/a	NEST	11	9	[0, 0, 0]	n/a	FR1	1	R1395M
1138.531	1.6	1561023	WORD	n/a	wordpools/wordpool_long_EN.txt	MAZE	12	9	[0, 0, 0]	n/a	FR1	1	R1395M
1140.131	0.0	1562623	WORD_OFF	n/a	n/a	MAZE	12	9	[0, 0, 0]	n/a	FR1	1	R1395M
1140.131	0.0	1562620	START	n/a	n/a	n/a	-999	9	[-999, -999, -999]	n/a	FR1	1	R1395M
1140.131	0.001	1562620	PROB	0.001	n/a	n/a	-999	9	[6, 6, 1]	13	FR1	1	R1395M
1140.132	0.0	1562623	DISTRACT_START	n/a	n/a	n/a	-999	9	[0, 0, 0]	n/a	FR1	1	R1395M
1140.132	4.616	1562623	ENCODING_END	n/a	n/a	n/a	-999	9	[0, 0, 0]	n/a	FR1	1	R1395M
1144.748	2.934	1567236	PROB	2.934	n/a	n/a	-999	9	[6, 1, 5]	12	FR1	1	R1395M
1147.682	2.648	1570170	PROB	2.648	n/a	n/a	-999	9	[7, 6, 6]	19	FR1	1	R1395M
1150.33	2.567	1572818	PROB	2.567	n/a	n/a	-999	9	[4, 7, 1]	12	FR1	1	R1395M
1152.897	2.75	1575385	PROB	2.75	n/a	n/a	-999	9	[5, 1, 4]	10	FR1	1	R1395M
1155.647	3.383	1578135	PROB	3.383	n/a	n/a	-999	9	[2, 3, 5]	10	FR1	1	R1395M
1159.03	3.266	1581518	PROB	3.266	n/a	n/a	-999	9	[4, 5, 3]	12	FR1	1	R1395M
1162.296	0.001	1584784	STOP	n/a	n/a	n/a	-999	9	[-999, -999, -999]	n/a	FR1	1	R1395M
1162.297	2.35	1584784	DISTRACT_END	n/a	n/a	n/a	-999	9	[0, 0, 0]	n/a	FR1	1	R1395M
1164.647	2.653	1587132	REC_START	n/a	n/a	n/a	-999	9	[0, 0, 0]	n/a	FR1	1	R1395M
1167.3	0.707	1589787	REC_WORD	0.707	n/a	HOOK	5	9	[0, 0, 0]	n/a	FR1	1	R1395M
1168.007	0.603	1590494	REC_WORD_VV	0.603	n/a	<>	-999	9	[0, 0, 0]	n/a	FR1	1	R1395M
1168.61	1.32	1591097	REC_WORD	1.32	n/a	BOMB	6	9	[0, 0, 0]	n/a	FR1	1	R1395M
1169.93	1.418	1592417	REC_WORD	1.418	n/a	FROG	7	9	[0, 0, 0]	n/a	FR1	1	R1395M
1171.348	1.686	1593835	REC_WORD	1.686	n/a	MAZE	12	9	[0, 0, 0]	n/a	FR1	1	R1395M
1173.034	1.926	1595521	REC_WORD	1.926	n/a	STRAW	8	9	[0, 0, 0]	n/a	FR1	1	R1395M
1174.96	1.701	1597447	REC_WORD	1.701	n/a	FOOD	9	9	[0, 0, 0]	n/a	FR1	1	R1395M
1176.661	18.185	1599148	REC_WORD	18.185	n/a	STOOL	10	9	[0, 0, 0]	n/a	FR1	1	R1395M
1194.846	21.002	1617333	REC_END	n/a	n/a	n/a	-999	9	[0, 0, 0]	n/a	FR1	1	R1395M
1215.848	10.35	1638333	COUNTDOWN_START	n/a	n/a	n/a	-999	10	[0, 0, 0]	n/a	FR1	1	R1395M
1226.198	0.001	1648684	COUNTDOWN_END	n/a	n/a	n/a	-999	10	[0, 0, 0]	n/a	FR1	1	R1395M
1226.199	2.232	1648684	ENCODING_START	n/a	n/a	n/a	-999	10	[0, 0, 0]	n/a	FR1	1	R1395M
1228.431	1.6	1650911	WORD	n/a	wordpools/wordpool_long_EN.txt	CRANE	1	10	[0, 0, 0]	n/a	FR1	1	R1395M
1230.031	0.95	1652511	WORD_OFF	n/a	n/a	CRANE	1	10	[0, 0, 0]	n/a	FR1	1	R1395M
1230.981	1.617	1653466	WORD	n/a	wordpools/wordpool_long_EN.txt	MUG	2	10	[0, 0, 0]	n/a	FR1	1	R1395M
1232.598	0.849	1655085	WORD_OFF	n/a	n/a	MUG	2	10	[0, 0, 0]	n/a	FR1	1	R1395M
1233.447	1.6	1655927	WORD	n/a	wordpools/wordpool_long_EN.txt	FRUIT	3	10	[0, 0, 0]	n/a	FR1	1	R1395M
1235.047	0.817	1657528	WORD_OFF	n/a	n/a	FRUIT	3	10	[0, 0, 0]	n/a	FR1	1	R1395M
1235.864	1.601	1658351	WORD	n/a	wordpools/wordpool_long_EN.txt	SLOPE	4	10	[0, 0, 0]	n/a	FR1	1	R1395M
1237.465	0.848	1659951	WORD_OFF	n/a	n/a	SLOPE	4	10	[0, 0, 0]	n/a	FR1	1	R1395M
1238.313	1.602	1660794	WORD	n/a	wordpools/wordpool_long_EN.txt	PURSE	5	10	[0, 0, 0]	n/a	FR1	1	R1395M
1239.915	0.85	1662394	WORD_OFF	n/a	n/a	PURSE	5	10	[0, 0, 0]	n/a	FR1	1	R1395M
1240.765	1.616	1663246	WORD	n/a	wordpools/wordpool_long_EN.txt	SPACE	6	10	[0, 0, 0]	n/a	FR1	1	R1395M
1242.381	1.0	1664865	WORD_OFF	n/a	n/a	SPACE	6	10	[0, 0, 0]	n/a	FR1	1	R1395M
1243.381	1.6	1665866	WORD	n/a	wordpools/wordpool_long_EN.txt	MOUSE	7	10	[0, 0, 0]	n/a	FR1	1	R1395M
1244.981	0.783	1667466	WORD_OFF	n/a	n/a	MOUSE	7	10	[0, 0, 0]	n/a	FR1	1	R1395M
1245.764	1.617	1668243	WORD	n/a	wordpools/wordpool_long_EN.txt	GEESE	8	10	[0, 0, 0]	n/a	FR1	1	R1395M
1247.381	0.934	1669862	WORD_OFF	n/a	n/a	GEESE	8	10	[0, 0, 0]	n/a	FR1	1	R1395M
1248.315	1.616	1670798	WORD	n/a	wordpools/wordpool_long_EN.txt	SOUP	9	10	[0, 0, 0]	n/a	FR1	1	R1395M
1249.931	0.784	1672417	WORD_OFF	n/a	n/a	SOUP	9	10	[0, 0, 0]	n/a	FR1	1	R1395M
1250.715	1.616	1673194	WORD	n/a	wordpools/wordpool_long_EN.txt	HORN	10	10	[0, 0, 0]	n/a	FR1	1	R1395M
1252.331	0.767	1674813	WORD_OFF	n/a	n/a	HORN	10	10	[0, 0, 0]	n/a	FR1	1	R1395M
1253.098	1.6	1675580	WORD	n/a	wordpools/wordpool_long_EN.txt	CHEEK	11	10	[0, 0, 0]	n/a	FR1	1	R1395M
1254.698	1.0	1677180	WORD_OFF	n/a	n/a	CHEEK	11	10	[0, 0, 0]	n/a	FR1	1	R1395M
1255.698	1.616	1678182	WORD	n/a	wordpools/wordpool_long_EN.txt	GROUND	12	10	[0, 0, 0]	n/a	FR1	1	R1395M
1257.314	0.0	1679801	WORD_OFF	n/a	n/a	GROUND	12	10	[0, 0, 0]	n/a	FR1	1	R1395M
1257.314	0.001	1679796	PROB	0.001	n/a	n/a	-999	10	[5, 8, 1]	14	FR1	1	R1395M
1257.315	0.001	1679797	START	n/a	n/a	n/a	-999	10	[-999, -999, -999]	n/a	FR1	1	R1395M
1257.316	0.0	1679801	ENCODING_END	n/a	n/a	n/a	-999	10	[0, 0, 0]	n/a	FR1	1	R1395M
1257.316	7.031	1679801	DISTRACT_START	n/a	n/a	n/a	-999	10	[0, 0, 0]	n/a	FR1	1	R1395M
1264.347	2.767	1686829	PROB	2.767	n/a	n/a	-999	10	[3, 2, 4]	9	FR1	1	R1395M
1267.114	4.083	1689596	PROB	4.083	n/a	n/a	-999	10	[2, 4, 3]	9	FR1	1	R1395M
1271.197	2.316	1693679	PROB	2.316	n/a	n/a	-999	10	[1, 8, 2]	11	FR1	1	R1395M
1273.513	3.383	1695995	PROB	3.383	n/a	n/a	-999	10	[7, 4, 3]	14	FR1	1	R1395M
1276.896	2.517	1699377	PROB	2.517	n/a	n/a	-999	10	[1, 1, 5]	7	FR1	1	R1395M
1279.413	0.001	1701894	STOP	n/a	n/a	n/a	-999	10	[-999, -999, -999]	n/a	FR1	1	R1395M
1279.414	2.233	1701896	DISTRACT_END	n/a	n/a	n/a	-999	10	[0, 0, 0]	n/a	FR1	1	R1395M
1281.647	0.396	1704131	REC_START	n/a	n/a	n/a	-999	10	[0, 0, 0]	n/a	FR1	1	R1395M
1282.043	1.663	1704524	REC_WORD_VV	1.663	n/a	<>	-999	10	[0, 0, 0]	n/a	FR1	1	R1395M
1283.706	1.444	1706187	REC_WORD	1.444	n/a	PURSE	5	10	[0, 0, 0]	n/a	FR1	1	R1395M
1285.15	1.103	1707631	REC_WORD	1.103	n/a	MOUSE	7	10	[0, 0, 0]	n/a	FR1	1	R1395M
1286.253	2.952	1708734	REC_WORD	2.952	n/a	SLOPE	4	10	[0, 0, 0]	n/a	FR1	1	R1395M
1289.205	1.786	1711686	REC_WORD	1.786	n/a	MUG	2	10	[0, 0, 0]	n/a	FR1	1	R1395M
1290.991	20.873	1713472	REC_WORD	20.873	n/a	SOUP	9	10	[0, 0, 0]	n/a	FR1	1	R1395M
1311.864	6.034	1734342	REC_END	n/a	n/a	n/a	-999	10	[0, 0, 0]	n/a	FR1	1	R1395M
1317.898	10.351	1740378	COUNTDOWN_START	n/a	n/a	n/a	-999	11	[0, 0, 0]	n/a	FR1	1	R1395M
1328.249	0.0	1750729	COUNTDOWN_END	n/a	n/a	n/a	-999	11	[0, 0, 0]	n/a	FR1	1	R1395M
1328.249	1.915	1750729	ENCODING_START	n/a	n/a	n/a	-999	11	[0, 0, 0]	n/a	FR1	1	R1395M
1330.164	1.601	1752647	WORD	n/a	wordpools/wordpool_long_EN.txt	VINE	1	11	[0, 0, 0]	n/a	FR1	1	R1395M
1331.765	0.866	1754247	WORD_OFF	n/a	n/a	VINE	1	11	[0, 0, 0]	n/a	FR1	1	R1395M
1332.631	1.6	1755108	WORD	n/a	wordpools/wordpool_long_EN.txt	JAR	2	11	[0, 0, 0]	n/a	FR1	1	R1395M
1334.231	0.784	1756709	WORD_OFF	n/a	n/a	JAR	2	11	[0, 0, 0]	n/a	FR1	1	R1395M
1335.015	1.6	1757495	WORD	n/a	wordpools/wordpool_long_EN.txt	MOP	3	11	[0, 0, 0]	n/a	FR1	1	R1395M
1336.615	0.966	1759095	WORD_OFF	n/a	n/a	MOP	3	11	[0, 0, 0]	n/a	FR1	1	R1395M
1337.581	1.6	1760059	WORD	n/a	wordpools/wordpool_long_EN.txt	ARCH	4	11	[0, 0, 0]	n/a	FR1	1	R1395M
1339.181	0.834	1761659	WORD_OFF	n/a	n/a	ARCH	4	11	[0, 0, 0]	n/a	FR1	1	R1395M
1340.015	1.616	1762492	WORD	n/a	wordpools/wordpool_long_EN.txt	KITE	5	11	[0, 0, 0]	n/a	FR1	1	R1395M
1341.631	0.917	1764111	WORD_OFF	n/a	n/a	KITE	5	11	[0, 0, 0]	n/a	FR1	1	R1395M
1342.548	1.6	1765028	WORD	n/a	wordpools/wordpool_long_EN.txt	LUNCH	6	11	[0, 0, 0]	n/a	FR1	1	R1395M
1344.148	0.783	1766629	WORD_OFF	n/a	n/a	LUNCH	6	11	[0, 0, 0]	n/a	FR1	1	R1395M
1344.931	1.6	1767406	WORD	n/a	wordpools/wordpool_long_EN.txt	ROPE	7	11	[0, 0, 0]	n/a	FR1	1	R1395M
1346.531	0.784	1769006	WORD_OFF	n/a	n/a	ROPE	7	11	[0, 0, 0]	n/a	FR1	1	R1395M
1347.315	1.6	1769792	WORD	n/a	wordpools/wordpool_long_EN.txt	OWL	8	11	[0, 0, 0]	n/a	FR1	1	R1395M
1348.915	0.949	1771392	WORD_OFF	n/a	n/a	OWL	8	11	[0, 0, 0]	n/a	FR1	1	R1395M
1349.864	1.601	1772337	WORD	n/a	wordpools/wordpool_long_EN.txt	WORLD	9	11	[0, 0, 0]	n/a	FR1	1	R1395M
1351.465	0.916	1773938	WORD_OFF	n/a	n/a	WORLD	9	11	[0, 0, 0]	n/a	FR1	1	R1395M
1352.381	1.6	1774855	WORD	n/a	wordpools/wordpool_long_EN.txt	TART	10	11	[0, 0, 0]	n/a	FR1	1	R1395M
1353.981	1.0	1776455	WORD_OFF	n/a	n/a	TART	10	11	[0, 0, 0]	n/a	FR1	1	R1395M
1354.981	1.617	1777457	WORD	n/a	wordpools/wordpool_long_EN.txt	WHEEL	11	11	[0, 0, 0]	n/a	FR1	1	R1395M
1356.598	1.0	1779076	WORD_OFF	n/a	n/a	WHEEL	11	11	[0, 0, 0]	n/a	FR1	1	R1395M
1357.598	1.6	1780077	WORD	n/a	wordpools/wordpool_long_EN.txt	SLIDE	12	11	[0, 0, 0]	n/a	FR1	1	R1395M
1359.198	0.0	1781677	WORD_OFF	n/a	n/a	SLIDE	12	11	[0, 0, 0]	n/a	FR1	1	R1395M
1359.198	0.0	1781675	START	n/a	n/a	n/a	-999	11	[-999, -999, -999]	n/a	FR1	1	R1395M
1359.198	0.001	1781675	PROB	0.001	n/a	n/a	-999	11	[5, 8, 3]	16	FR1	1	R1395M
1359.199	0.0	1781677	DISTRACT_START	n/a	n/a	n/a	-999	11	[0, 0, 0]	n/a	FR1	1	R1395M
1359.199	6.314	1781677	ENCODING_END	n/a	n/a	n/a	-999	11	[0, 0, 0]	n/a	FR1	1	R1395M
1365.513	3.551	1787990	PROB	3.551	n/a	n/a	-999	11	[7, 7, 5]	19	FR1	1	R1395M
1369.064	3.05	1791541	PROB	3.05	n/a	n/a	-999	11	[2, 1, 6]	9	FR1	1	R1395M
1372.114	3.433	1794590	PROB	3.433	n/a	n/a	-999	11	[8, 7, 4]	19	FR1	1	R1395M
1375.547	2.883	1798023	PROB	2.883	n/a	n/a	-999	11	[3, 8, 2]	13	FR1	1	R1395M
1378.43	2.516	1800906	PROB	2.516	n/a	n/a	-999	11	[1, 3, 3]	7	FR1	1	R1395M
1380.946	0.001	1803422	STOP	n/a	n/a	n/a	-999	11	[-999, -999, -999]	n/a	FR1	1	R1395M
1380.947	2.133	1803426	DISTRACT_END	n/a	n/a	n/a	-999	11	[0, 0, 0]	n/a	FR1	1	R1395M
1383.08	1.81	1805559	REC_START	n/a	n/a	n/a	-999	11	[0, 0, 0]	n/a	FR1	1	R1395M
1384.89	1.07	1807366	REC_WORD	1.07	n/a	ROPE	7	11	[0, 0, 0]	n/a	FR1	1	R1395M
1385.96	0.805	1808436	REC_WORD	0.805	n/a	KITE	5	11	[0, 0, 0]	n/a	FR1	1	R1395M
1386.765	1.478	1809241	REC_WORD	1.478	n/a	WORLD	9	11	[0, 0, 0]	n/a	FR1	1	R1395M
1388.243	9.633	1810719	REC_WORD	9.633	n/a	ARCH	4	11	[0, 0, 0]	n/a	FR1	1	R1395M
1397.876	15.41	1820351	REC_WORD	15.41	n/a	ART	-999	11	[0, 0, 0]	n/a	FR1	1	R1395M
1413.286	14.578	1835760	REC_END	n/a	n/a	n/a	-999	11	[0, 0, 0]	n/a	FR1	1	R1395M
1427.864	10.351	1850340	COUNTDOWN_START	n/a	n/a	n/a	-999	12	[0, 0, 0]	n/a	FR1	1	R1395M
1438.215	0.0	1860691	COUNTDOWN_END	n/a	n/a	n/a	-999	12	[0, 0, 0]	n/a	FR1	1	R1395M
1438.215	2.283	1860691	ENCODING_START	n/a	n/a	n/a	-999	12	[0, 0, 0]	n/a	FR1	1	R1395M
1440.498	1.616	1862974	WORD	n/a	wordpools/wordpool_long_EN.txt	CHEST	1	12	[0, 0, 0]	n/a	FR1	1	R1395M
1442.114	0.851	1864584	WORD_OFF	n/a	n/a	CHEST	1	12	[0, 0, 0]	n/a	FR1	1	R1395M
1442.965	1.6	1865436	WORD	n/a	wordpools/wordpool_long_EN.txt	PIT	2	12	[0, 0, 0]	n/a	FR1	1	R1395M
1444.565	0.85	1867036	WORD_OFF	n/a	n/a	PIT	2	12	[0, 0, 0]	n/a	FR1	1	R1395M
1445.415	1.617	1867888	WORD	n/a	wordpools/wordpool_long_EN.txt	PLANT	3	12	[0, 0, 0]	n/a	FR1	1	R1395M
1447.032	0.866	1869507	WORD_OFF	n/a	n/a	PLANT	3	12	[0, 0, 0]	n/a	FR1	1	R1395M
1447.898	1.6	1870368	WORD	n/a	wordpools/wordpool_long_EN.txt	BOY	4	12	[0, 0, 0]	n/a	FR1	1	R1395M
1449.498	0.8	1871968	WORD_OFF	n/a	n/a	BOY	4	12	[0, 0, 0]	n/a	FR1	1	R1395M
1450.298	1.6	1872773	WORD	n/a	wordpools/wordpool_long_EN.txt	WOLF	5	12	[0, 0, 0]	n/a	FR1	1	R1395M
1451.898	1.0	1874373	WORD_OFF	n/a	n/a	WOLF	5	12	[0, 0, 0]	n/a	FR1	1	R1395M
1452.898	1.616	1875365	WORD	n/a	wordpools/wordpool_long_EN.txt	BLUSH	6	12	[0, 0, 0]	n/a	FR1	1	R1395M
1454.514	0.834	1876984	WORD_OFF	n/a	n/a	BLUSH	6	12	[0, 0, 0]	n/a	FR1	1	R1395M
1455.348	1.616	1877817	WORD	n/a	wordpools/wordpool_long_EN.txt	MULE	7	12	[0, 0, 0]	n/a	FR1	1	R1395M
1456.964	0.834	1879436	WORD_OFF	n/a	n/a	MULE	7	12	[0, 0, 0]	n/a	FR1	1	R1395M
1457.798	1.6	1880269	WORD	n/a	wordpools/wordpool_long_EN.txt	CUP	8	12	[0, 0, 0]	n/a	FR1	1	R1395M
1459.398	1.0	1881869	WORD_OFF	n/a	n/a	CUP	8	12	[0, 0, 0]	n/a	FR1	1	R1395M
1460.398	1.616	1882870	WORD	n/a	wordpools/wordpool_long_EN.txt	SLEEVE	9	12	[0, 0, 0]	n/a	FR1	1	R1395M
1462.014	0.967	1884490	WORD_OFF	n/a	n/a	SLEEVE	9	12	[0, 0, 0]	n/a	FR1	1	R1395M
1462.981	1.616	1885453	WORD	n/a	wordpools/wordpool_long_EN.txt	LINT	10	12	[0, 0, 0]	n/a	FR1	1	R1395M
1464.597	0.884	1887072	WORD_OFF	n/a	n/a	LINT	10	12	[0, 0, 0]	n/a	FR1	1	R1395M
1465.481	1.6	1887952	WORD	n/a	wordpools/wordpool_long_EN.txt	BRIDGE	11	12	[0, 0, 0]	n/a	FR1	1	R1395M
1467.081	0.933	1889552	WORD_OFF	n/a	n/a	BRIDGE	11	12	[0, 0, 0]	n/a	FR1	1	R1395M
1468.014	1.6	1890488	WORD	n/a	wordpools/wordpool_long_EN.txt	TRAY	12	12	[0, 0, 0]	n/a	FR1	1	R1395M
1469.614	0.0	1892089	WORD_OFF	n/a	n/a	TRAY	12	12	[0, 0, 0]	n/a	FR1	1	R1395M
1469.614	0.001	1892085	PROB	0.001	n/a	n/a	-999	12	[4, 5, 2]	11	FR1	1	R1395M
1469.615	0.001	1892086	START	n/a	n/a	n/a	-999	12	[-999, -999, -999]	n/a	FR1	1	R1395M
1469.616	0.0	1892089	ENCODING_END	n/a	n/a	n/a	-999	12	[0, 0, 0]	n/a	FR1	1	R1395M
1469.616	5.014	1892089	DISTRACT_START	n/a	n/a	n/a	-999	12	[0, 0, 0]	n/a	FR1	1	R1395M
1474.63	2.683	1897101	PROB	2.683	n/a	n/a	-999	12	[8, 3, 8]	19	FR1	1	R1395M
1477.313	3.301	1899784	PROB	3.301	n/a	n/a	-999	12	[1, 3, 4]	8	FR1	1	R1395M
1480.614	2.566	1903085	PROB	2.566	n/a	n/a	-999	12	[6, 3, 3]	12	FR1	1	R1395M
1483.18	2.716	1905650	PROB	2.716	n/a	n/a	-999	12	[3, 7, 5]	15	FR1	1	R1395M
1485.896	3.667	1908366	PROB	3.667	n/a	n/a	-999	12	[3, 5, 3]	11	FR1	1	R1395M
1489.563	4.284	1912033	PROB	4.284	n/a	n/a	-999	12	[5, 7, 7]	19	FR1	1	R1395M
1493.847	0.001	1916317	STOP	n/a	n/a	n/a	-999	12	[-999, -999, -999]	n/a	FR1	1	R1395M
1493.848	2.25	1916318	DISTRACT_END	n/a	n/a	n/a	-999	12	[0, 0, 0]	n/a	FR1	1	R1395M
1496.098	1.708	1918572	REC_START	n/a	n/a	n/a	-999	12	[0, 0, 0]	n/a	FR1	1	R1395M
1497.806	1.48	1920276	REC_WORD	1.48	n/a	CHEST	1	12	[0, 0, 0]	n/a	FR1	1	R1395M
1499.286	1.442	1921756	REC_WORD	1.442	n/a	PIT	2	12	[0, 0, 0]	n/a	FR1	1	R1395M
1500.728	1.202	1923198	REC_WORD	1.202	n/a	BOY	4	12	[0, 0, 0]	n/a	FR1	1	R1395M
1501.93	1.725	1924400	REC_WORD	1.725	n/a	WOLF	5	12	[0, 0, 0]	n/a	FR1	1	R1395M
1503.655	18.707	1926124	REC_WORD	18.707	n/a	TRAY	12	12	[0, 0, 0]	n/a	FR1	1	R1395M
1522.362	3.971	1944830	REC_WORD	3.971	n/a	PLANT	3	12	[0, 0, 0]	n/a	FR1	1	R1395M
1526.333	0.0	1948801	REC_END	n/a	n/a	n/a	-999	12	[0, 0, 0]	n/a	FR1	1	R1395M
