onset	duration	sample	trial_type	response_time	stim_file	item_name	serialpos	list	test	answer	experiment	session	subject
0.0	81.138	-1	INSTRUCT_START	n/a	n/a	n/a	-999	-999	[0, 0, 0]	n/a	FR1	0	R1275D
81.138	465.183	1675	INSTRUCT_START	n/a	n/a	n/a	-999	-999	[0, 0, 0]	n/a	FR1	0	R1275D
546.321	6.383	466837	INSTRUCT_END	n/a	n/a	n/a	-999	-999	[0, 0, 0]	n/a	FR1	0	R1275D
552.704	16.991	473220	MIC TEST_START	n/a	n/a	n/a	-999	-999	[0, 0, 0]	n/a	FR1	0	R1275D
569.695	0.011	490210	MIC TEST_END	n/a	n/a	n/a	-999	-999	[0, 0, 0]	n/a	FR1	0	R1275D
569.706	0.0	490221	TRIAL_START	n/a	n/a	n/a	-999	-1	[0, 0, 0]	n/a	FR1	0	R1275D
569.706	0.0	490221	TRIAL	n/a	n/a	n/a	-999	-1	[0, 0, 0]	n/a	FR1	0	R1275D
569.706	3.586	490221	WAITING_START	n/a	n/a	n/a	-999	-1	[0, 0, 0]	n/a	FR1	0	R1275D
573.292	0.0	493807	WAITING_END	n/a	n/a	n/a	-999	-1	[0, 0, 0]	n/a	FR1	0	R1275D
573.292	10.43	493807	COUNTDOWN_START	n/a	n/a	n/a	-999	-1	[0, 0, 0]	n/a	FR1	0	R1275D
583.722	0.001	504236	COUNTDOWN_END	n/a	n/a	n/a	-999	-1	[0, 0, 0]	n/a	FR1	0	R1275D
583.723	1.186	504237	ORIENT_START	n/a	n/a	n/a	-999	-1	[0, 0, 0]	n/a	FR1	0	R1275D
584.909	0.001	505423	ORIENT_END	n/a	n/a	n/a	-999	-1	[0, 0, 0]	n/a	FR1	0	R1275D
584.91	1.045	505424	ENCODING_START	n/a	n/a	n/a	-999	-1	[0, 0, 0]	n/a	FR1	0	R1275D
585.955	1.638	506469	WORD	n/a	n/a	TONGUE	1	-1	[0, 0, 0]	n/a	FR1	0	R1275D
587.593	0.896	508107	WORD_OFF	n/a	n/a	TONGUE	1	-1	[0, 0, 0]	n/a	FR1	0	R1275D
588.489	1.638	509003	WORD	n/a	n/a	WAGON	2	-1	[0, 0, 0]	n/a	FR1	0	R1275D
590.127	0.985	510641	WORD_OFF	n/a	n/a	WAGON	2	-1	[0, 0, 0]	n/a	FR1	0	R1275D
591.112	1.632	511626	WORD	n/a	n/a	IMAGE	3	-1	[0, 0, 0]	n/a	FR1	0	R1275D
592.744	1.144	513258	WORD_OFF	n/a	n/a	IMAGE	3	-1	[0, 0, 0]	n/a	FR1	0	R1275D
593.888	1.623	514402	WORD	n/a	n/a	COTTON	4	-1	[0, 0, 0]	n/a	FR1	0	R1275D
595.511	0.882	516025	WORD_OFF	n/a	n/a	COTTON	4	-1	[0, 0, 0]	n/a	FR1	0	R1275D
596.393	1.635	516907	WORD	n/a	n/a	BEAM	5	-1	[0, 0, 0]	n/a	FR1	0	R1275D
598.028	0.754	518542	WORD_OFF	n/a	n/a	BEAM	5	-1	[0, 0, 0]	n/a	FR1	0	R1275D
598.782	1.631	519296	WORD	n/a	n/a	RING	6	-1	[0, 0, 0]	n/a	FR1	0	R1275D
600.413	1.137	520927	WORD_OFF	n/a	n/a	RING	6	-1	[0, 0, 0]	n/a	FR1	0	R1275D
601.55	1.63	522064	WORD	n/a	n/a	FLOOD	7	-1	[0, 0, 0]	n/a	FR1	0	R1275D
603.18	1.147	523693	WORD_OFF	n/a	n/a	FLOOD	7	-1	[0, 0, 0]	n/a	FR1	0	R1275D
604.327	1.62	524840	WORD	n/a	n/a	BABY	8	-1	[0, 0, 0]	n/a	FR1	0	R1275D
605.947	0.873	526460	WORD_OFF	n/a	n/a	BABY	8	-1	[0, 0, 0]	n/a	FR1	0	R1275D
606.82	1.627	527333	WORD	n/a	n/a	WATCH	9	-1	[0, 0, 0]	n/a	FR1	0	R1275D
608.447	1.044	528960	WORD_OFF	n/a	n/a	WATCH	9	-1	[0, 0, 0]	n/a	FR1	0	R1275D
609.491	1.623	530004	WORD	n/a	n/a	CAMEL	10	-1	[0, 0, 0]	n/a	FR1	0	R1275D
611.114	0.92	531627	WORD_OFF	n/a	n/a	CAMEL	10	-1	[0, 0, 0]	n/a	FR1	0	R1275D
612.034	1.631	532547	WORD	n/a	n/a	RHINO	11	-1	[0, 0, 0]	n/a	FR1	0	R1275D
613.665	0.875	534178	WORD_OFF	n/a	n/a	RHINO	11	-1	[0, 0, 0]	n/a	FR1	0	R1275D
614.54	1.625	535053	WORD	n/a	n/a	CHEST	12	-1	[0, 0, 0]	n/a	FR1	0	R1275D
616.165	0.0	536678	WORD_OFF	n/a	n/a	CHEST	12	-1	[0, 0, 0]	n/a	FR1	0	R1275D
616.165	0.001	536678	ENCODING_END	n/a	n/a	n/a	-999	-1	[0, 0, 0]	n/a	FR1	0	R1275D
616.166	0.0	536679	DISTRACT_START	n/a	n/a	n/a	-999	-1	[0, 0, 0]	n/a	FR1	0	R1275D
616.166	0.016	536679	START	n/a	n/a	n/a	-999	-1	[-999, -999, -999]	n/a	FR1	0	R1275D
616.182	17.669	536695	PROB	17.669	n/a	n/a	-999	-1	[6, 9, 4]	19	FR1	0	R1275D
633.851	20.669	554363	PROB	20.669	n/a	n/a	-999	-1	[7, 5, 4]	16	FR1	0	R1275D
654.52	0.019	575031	STOP	n/a	n/a	n/a	-999	-1	[-999, -999, -999]	n/a	FR1	0	R1275D
654.539	0.611	575050	DISTRACT_END	n/a	n/a	n/a	-999	-1	[0, 0, 0]	n/a	FR1	0	R1275D
655.15	1.639	575661	RETRIEVAL_ORIENT_START	n/a	n/a	n/a	-999	-1	[0, 0, 0]	n/a	FR1	0	R1275D
656.789	0.0	577300	RETRIEVAL_ORIENT_END	n/a	n/a	n/a	-999	-1	[0, 0, 0]	n/a	FR1	0	R1275D
656.789	29.988	577300	REC_START	n/a	n/a	n/a	-999	-1	[0, 0, 0]	n/a	FR1	0	R1275D
686.777	0.027	607287	REC_WORD_VV	0.027	n/a	<>	-999	-1	[0, 0, 0]	n/a	FR1	0	R1275D
686.804	0.0	607314	REC_END	n/a	n/a	n/a	-999	-1	[0, 0, 0]	n/a	FR1	0	R1275D
686.804	10.76	607314	PRACTICE_POST_INSTRUCT_START	n/a	n/a	n/a	-999	-1	[0, 0, 0]	n/a	FR1	0	R1275D
697.564	0.0	618073	PRACTICE_POST_INSTRUCT_END	n/a	n/a	n/a	-999	-1	[0, 0, 0]	n/a	FR1	0	R1275D
697.564	0.019	618073	TRIAL_END	n/a	n/a	n/a	-999	-1	[0, 0, 0]	n/a	FR1	0	R1275D
697.583	0.0	618092	TRIAL_START	n/a	n/a	n/a	-999	1	[0, 0, 0]	n/a	FR1	0	R1275D
697.583	0.0	618092	TRIAL	n/a	n/a	n/a	-999	1	[0, 0, 0]	n/a	FR1	0	R1275D
697.583	2.998	618092	WAITING_START	n/a	n/a	n/a	-999	1	[0, 0, 0]	n/a	FR1	0	R1275D
700.581	0.0	621090	WAITING_END	n/a	n/a	n/a	-999	1	[0, 0, 0]	n/a	FR1	0	R1275D
700.581	10.429	621090	COUNTDOWN_START	n/a	n/a	n/a	-999	1	[0, 0, 0]	n/a	FR1	0	R1275D
711.01	0.0	631519	COUNTDOWN_END	n/a	n/a	n/a	-999	1	[0, 0, 0]	n/a	FR1	0	R1275D
711.01	1.224	631519	ORIENT_START	n/a	n/a	n/a	-999	1	[0, 0, 0]	n/a	FR1	0	R1275D
712.234	0.0	632743	ENCODING_START	n/a	n/a	n/a	-999	1	[0, 0, 0]	n/a	FR1	0	R1275D
712.234	0.897	632743	ORIENT_END	n/a	n/a	n/a	-999	1	[0, 0, 0]	n/a	FR1	0	R1275D
713.131	1.635	633640	WORD	n/a	n/a	FLUTE	1	1	[0, 0, 0]	n/a	FR1	0	R1275D
714.766	0.794	635275	WORD_OFF	n/a	n/a	FLUTE	1	1	[0, 0, 0]	n/a	FR1	0	R1275D
715.56	1.624	636069	WORD	n/a	n/a	SEAT	2	1	[0, 0, 0]	n/a	FR1	0	R1275D
717.184	0.975	637692	WORD_OFF	n/a	n/a	SEAT	2	1	[0, 0, 0]	n/a	FR1	0	R1275D
718.159	1.625	638667	WORD	n/a	n/a	MOOSE	3	1	[0, 0, 0]	n/a	FR1	0	R1275D
719.784	0.888	640292	WORD_OFF	n/a	n/a	MOOSE	3	1	[0, 0, 0]	n/a	FR1	0	R1275D
720.672	1.614	641180	WORD	n/a	n/a	PURSE	4	1	[0, 0, 0]	n/a	FR1	0	R1275D
722.286	1.052	642794	WORD_OFF	n/a	n/a	PURSE	4	1	[0, 0, 0]	n/a	FR1	0	R1275D
723.338	1.63	643846	WORD	n/a	n/a	DRUM	5	1	[0, 0, 0]	n/a	FR1	0	R1275D
724.968	0.796	645476	WORD_OFF	n/a	n/a	DRUM	5	1	[0, 0, 0]	n/a	FR1	0	R1275D
725.764	1.606	646272	WORD	n/a	n/a	SHIP	6	1	[0, 0, 0]	n/a	FR1	0	R1275D
727.37	0.813	647878	WORD_OFF	n/a	n/a	SHIP	6	1	[0, 0, 0]	n/a	FR1	0	R1275D
728.183	1.636	648691	WORD	n/a	n/a	RIB	7	1	[0, 0, 0]	n/a	FR1	0	R1275D
729.819	0.841	650327	WORD_OFF	n/a	n/a	RIB	7	1	[0, 0, 0]	n/a	FR1	0	R1275D
730.66	1.627	651168	WORD	n/a	n/a	PEACH	8	1	[0, 0, 0]	n/a	FR1	0	R1275D
732.287	1.101	652795	WORD_OFF	n/a	n/a	PEACH	8	1	[0, 0, 0]	n/a	FR1	0	R1275D
733.388	1.632	653896	WORD	n/a	n/a	WAND	9	1	[0, 0, 0]	n/a	FR1	0	R1275D
735.02	0.964	655528	WORD_OFF	n/a	n/a	WAND	9	1	[0, 0, 0]	n/a	FR1	0	R1275D
735.984	1.637	656492	WORD	n/a	n/a	FLEA	10	1	[0, 0, 0]	n/a	FR1	0	R1275D
737.621	0.775	658129	WORD_OFF	n/a	n/a	FLEA	10	1	[0, 0, 0]	n/a	FR1	0	R1275D
738.396	1.625	658904	WORD	n/a	n/a	CUP	11	1	[0, 0, 0]	n/a	FR1	0	R1275D
740.021	1.07	660528	WORD_OFF	n/a	n/a	CUP	11	1	[0, 0, 0]	n/a	FR1	0	R1275D
741.091	1.63	661598	WORD	n/a	n/a	SMOKE	12	1	[0, 0, 0]	n/a	FR1	0	R1275D
742.721	0.001	663228	WORD_OFF	n/a	n/a	SMOKE	12	1	[0, 0, 0]	n/a	FR1	0	R1275D
742.722	0.0	663229	ENCODING_END	n/a	n/a	n/a	-999	1	[0, 0, 0]	n/a	FR1	0	R1275D
742.722	0.0	663229	DISTRACT_START	n/a	n/a	n/a	-999	1	[0, 0, 0]	n/a	FR1	0	R1275D
742.722	0.016	663229	START	n/a	n/a	n/a	-999	1	[-999, -999, -999]	n/a	FR1	0	R1275D
742.738	7.835	663245	PROB	7.835	n/a	n/a	-999	1	[9, 8, 6]	23	FR1	0	R1275D
750.573	11.169	671080	PROB	11.169	n/a	n/a	-999	1	[5, 9, 8]	23	FR1	0	R1275D
761.742	18.866	682248	PROB	18.866	n/a	n/a	-999	1	[7, 9, 5]	21	FR1	0	R1275D
780.608	0.02	701114	STOP	n/a	n/a	n/a	-999	1	[-999, -999, -999]	n/a	FR1	0	R1275D
780.628	0.681	701134	DISTRACT_END	n/a	n/a	n/a	-999	1	[0, 0, 0]	n/a	FR1	0	R1275D
781.309	1.62	701815	RETRIEVAL_ORIENT_START	n/a	n/a	n/a	-999	1	[0, 0, 0]	n/a	FR1	0	R1275D
782.929	0.0	703435	RETRIEVAL_ORIENT_END	n/a	n/a	n/a	-999	1	[0, 0, 0]	n/a	FR1	0	R1275D
782.929	2.764	703435	REC_START	n/a	n/a	n/a	-999	1	[0, 0, 0]	n/a	FR1	0	R1275D
785.693	9.685	706198	REC_WORD_VV	9.685	n/a	<>	-999	1	[0, 0, 0]	n/a	FR1	0	R1275D
795.378	1.232	715883	REC_WORD_VV	1.232	n/a	<>	-999	1	[0, 0, 0]	n/a	FR1	0	R1275D
796.61	8.697	717115	REC_WORD_VV	8.697	n/a	<>	-999	1	[0, 0, 0]	n/a	FR1	0	R1275D
805.307	0.817	725812	REC_WORD	0.817	n/a	BABY	-999	1	[0, 0, 0]	n/a	FR1	0	R1275D
806.124	5.26	726629	REC_WORD	5.26	n/a	BEAN	-999	1	[0, 0, 0]	n/a	FR1	0	R1275D
811.384	1.558	731888	REC_WORD	1.558	n/a	SMOKE	12	1	[0, 0, 0]	n/a	FR1	0	R1275D
812.942	0.0	733446	REC_END	n/a	n/a	n/a	-999	1	[0, 0, 0]	n/a	FR1	0	R1275D
812.942	0.016	733446	TRIAL_END	n/a	n/a	n/a	-999	1	[0, 0, 0]	n/a	FR1	0	R1275D
812.958	0.0	733462	TRIAL_START	n/a	n/a	n/a	-999	2	[0, 0, 0]	n/a	FR1	0	R1275D
812.958	0.0	733462	TRIAL	n/a	n/a	n/a	-999	2	[0, 0, 0]	n/a	FR1	0	R1275D
812.958	7.511	733462	WAITING_START	n/a	n/a	n/a	-999	2	[0, 0, 0]	n/a	FR1	0	R1275D
820.469	0.0	740973	COUNTDOWN_START	n/a	n/a	n/a	-999	2	[0, 0, 0]	n/a	FR1	0	R1275D
820.469	10.429	740973	WAITING_END	n/a	n/a	n/a	-999	2	[0, 0, 0]	n/a	FR1	0	R1275D
830.898	0.001	751401	COUNTDOWN_END	n/a	n/a	n/a	-999	2	[0, 0, 0]	n/a	FR1	0	R1275D
830.899	1.172	751402	ORIENT_START	n/a	n/a	n/a	-999	2	[0, 0, 0]	n/a	FR1	0	R1275D
832.071	0.001	752574	ORIENT_END	n/a	n/a	n/a	-999	2	[0, 0, 0]	n/a	FR1	0	R1275D
832.072	0.887	752575	ENCODING_START	n/a	n/a	n/a	-999	2	[0, 0, 0]	n/a	FR1	0	R1275D
832.959	1.629	753462	WORD	n/a	n/a	THREAD	1	2	[0, 0, 0]	n/a	FR1	0	R1275D
834.588	0.874	755091	WORD_OFF	n/a	n/a	THREAD	1	2	[0, 0, 0]	n/a	FR1	0	R1275D
835.462	1.627	755965	WORD	n/a	n/a	HOSE	2	2	[0, 0, 0]	n/a	FR1	0	R1275D
837.089	1.033	757592	WORD_OFF	n/a	n/a	HOSE	2	2	[0, 0, 0]	n/a	FR1	0	R1275D
838.122	1.634	758625	WORD	n/a	n/a	PET	3	2	[0, 0, 0]	n/a	FR1	0	R1275D
839.756	0.974	760259	WORD_OFF	n/a	n/a	PET	3	2	[0, 0, 0]	n/a	FR1	0	R1275D
840.73	1.628	761233	WORD	n/a	n/a	GRASS	4	2	[0, 0, 0]	n/a	FR1	0	R1275D
842.358	1.149	762861	WORD_OFF	n/a	n/a	GRASS	4	2	[0, 0, 0]	n/a	FR1	0	R1275D
843.507	1.633	764010	WORD	n/a	n/a	SOAP	5	2	[0, 0, 0]	n/a	FR1	0	R1275D
845.14	0.945	765643	WORD_OFF	n/a	n/a	SOAP	5	2	[0, 0, 0]	n/a	FR1	0	R1275D
846.085	1.622	766588	WORD	n/a	n/a	SIGN	6	2	[0, 0, 0]	n/a	FR1	0	R1275D
847.707	0.753	768210	WORD_OFF	n/a	n/a	SIGN	6	2	[0, 0, 0]	n/a	FR1	0	R1275D
848.46	1.631	768963	WORD	n/a	n/a	SHIELD	7	2	[0, 0, 0]	n/a	FR1	0	R1275D
850.091	1.029	770594	WORD_OFF	n/a	n/a	SHIELD	7	2	[0, 0, 0]	n/a	FR1	0	R1275D
851.12	1.622	771623	WORD	n/a	n/a	TOE	8	2	[0, 0, 0]	n/a	FR1	0	R1275D
852.742	0.943	773244	WORD_OFF	n/a	n/a	TOE	8	2	[0, 0, 0]	n/a	FR1	0	R1275D
853.685	1.625	774187	WORD	n/a	n/a	CUBE	9	2	[0, 0, 0]	n/a	FR1	0	R1275D
855.31	1.011	775812	WORD_OFF	n/a	n/a	CUBE	9	2	[0, 0, 0]	n/a	FR1	0	R1275D
856.321	1.622	776823	WORD	n/a	n/a	KEY	10	2	[0, 0, 0]	n/a	FR1	0	R1275D
857.943	0.772	778445	WORD_OFF	n/a	n/a	KEY	10	2	[0, 0, 0]	n/a	FR1	0	R1275D
858.715	1.612	779217	WORD	n/a	n/a	SWAMP	11	2	[0, 0, 0]	n/a	FR1	0	R1275D
860.327	0.976	780829	WORD_OFF	n/a	n/a	SWAMP	11	2	[0, 0, 0]	n/a	FR1	0	R1275D
861.303	1.624	781805	WORD	n/a	n/a	CLOUD	12	2	[0, 0, 0]	n/a	FR1	0	R1275D
862.927	0.0	783429	ENCODING_END	n/a	n/a	n/a	-999	2	[0, 0, 0]	n/a	FR1	0	R1275D
862.927	0.001	783429	WORD_OFF	n/a	n/a	CLOUD	12	2	[0, 0, 0]	n/a	FR1	0	R1275D
862.928	0.0	783430	DISTRACT_START	n/a	n/a	n/a	-999	2	[0, 0, 0]	n/a	FR1	0	R1275D
862.928	0.015	783430	START	n/a	n/a	n/a	-999	2	[-999, -999, -999]	n/a	FR1	0	R1275D
862.943	5.185	783445	PROB	5.185	n/a	n/a	-999	2	[1, 9, 1]	11	FR1	0	R1275D
868.128	7.868	788630	PROB	7.868	n/a	n/a	-999	2	[3, 1, 6]	10	FR1	0	R1275D
875.996	6.134	796497	PROB	6.134	n/a	n/a	-999	2	[8, 2, 9]	19	FR1	0	R1275D
882.13	6.309	802631	PROB	6.309	n/a	n/a	-999	2	[8, 1, 2]	11	FR1	0	R1275D
888.439	0.009	808940	STOP	n/a	n/a	n/a	-999	2	[-999, -999, -999]	n/a	FR1	0	R1275D
888.448	0.667	808949	DISTRACT_END	n/a	n/a	n/a	-999	2	[0, 0, 0]	n/a	FR1	0	R1275D
889.115	1.65	809616	RETRIEVAL_ORIENT_START	n/a	n/a	n/a	-999	2	[0, 0, 0]	n/a	FR1	0	R1275D
890.765	0.001	811266	RETRIEVAL_ORIENT_END	n/a	n/a	n/a	-999	2	[0, 0, 0]	n/a	FR1	0	R1275D
890.766	1.344	811267	REC_START	n/a	n/a	n/a	-999	2	[0, 0, 0]	n/a	FR1	0	R1275D
892.11	5.254	812611	REC_WORD	5.254	n/a	CUBE	9	2	[0, 0, 0]	n/a	FR1	0	R1275D
897.364	4.161	817864	REC_WORD	4.161	n/a	THREAD	1	2	[0, 0, 0]	n/a	FR1	0	R1275D
901.525	3.536	822025	REC_WORD_VV	3.536	n/a	<>	-999	2	[0, 0, 0]	n/a	FR1	0	R1275D
905.061	3.178	825561	REC_WORD	3.178	n/a	BABY	-999	2	[0, 0, 0]	n/a	FR1	0	R1275D
908.239	3.355	828739	REC_WORD_VV	3.355	n/a	<>	-999	2	[0, 0, 0]	n/a	FR1	0	R1275D
911.594	9.184	832094	REC_WORD_VV	9.184	n/a	<>	-999	2	[0, 0, 0]	n/a	FR1	0	R1275D
920.778	0.0	841277	TRIAL_END	n/a	n/a	n/a	-999	2	[0, 0, 0]	n/a	FR1	0	R1275D
920.778	0.015	841277	REC_END	n/a	n/a	n/a	-999	2	[0, 0, 0]	n/a	FR1	0	R1275D
920.793	0.0	841292	WAITING_START	n/a	n/a	n/a	-999	3	[0, 0, 0]	n/a	FR1	0	R1275D
920.793	0.0	841292	TRIAL	n/a	n/a	n/a	-999	3	[0, 0, 0]	n/a	FR1	0	R1275D
920.793	5.896	841292	TRIAL_START	n/a	n/a	n/a	-999	3	[0, 0, 0]	n/a	FR1	0	R1275D
926.689	0.0	847188	WAITING_END	n/a	n/a	n/a	-999	3	[0, 0, 0]	n/a	FR1	0	R1275D
926.689	10.429	847188	COUNTDOWN_START	n/a	n/a	n/a	-999	3	[0, 0, 0]	n/a	FR1	0	R1275D
937.118	0.0	857617	COUNTDOWN_END	n/a	n/a	n/a	-999	3	[0, 0, 0]	n/a	FR1	0	R1275D
937.118	1.157	857617	ORIENT_START	n/a	n/a	n/a	-999	3	[0, 0, 0]	n/a	FR1	0	R1275D
938.275	0.0	858774	ORIENT_END	n/a	n/a	n/a	-999	3	[0, 0, 0]	n/a	FR1	0	R1275D
938.275	0.984	858774	ENCODING_START	n/a	n/a	n/a	-999	3	[0, 0, 0]	n/a	FR1	0	R1275D
939.259	1.632	859758	WORD	n/a	n/a	CORD	1	3	[0, 0, 0]	n/a	FR1	0	R1275D
940.891	0.751	861390	WORD_OFF	n/a	n/a	CORD	1	3	[0, 0, 0]	n/a	FR1	0	R1275D
941.642	1.617	862141	WORD	n/a	n/a	SKY	2	3	[0, 0, 0]	n/a	FR1	0	R1275D
943.259	0.787	863757	WORD_OFF	n/a	n/a	SKY	2	3	[0, 0, 0]	n/a	FR1	0	R1275D
944.046	1.629	864544	WORD	n/a	n/a	CAR	3	3	[0, 0, 0]	n/a	FR1	0	R1275D
945.675	1.133	866173	WORD_OFF	n/a	n/a	CAR	3	3	[0, 0, 0]	n/a	FR1	0	R1275D
946.808	1.619	867306	WORD	n/a	n/a	STAR	4	3	[0, 0, 0]	n/a	FR1	0	R1275D
948.427	0.949	868925	WORD_OFF	n/a	n/a	STAR	4	3	[0, 0, 0]	n/a	FR1	0	R1275D
949.376	1.634	869874	WORD	n/a	n/a	LAWN	5	3	[0, 0, 0]	n/a	FR1	0	R1275D
951.01	0.894	871508	WORD_OFF	n/a	n/a	LAWN	5	3	[0, 0, 0]	n/a	FR1	0	R1275D
951.904	1.623	872402	WORD	n/a	n/a	PEA	6	3	[0, 0, 0]	n/a	FR1	0	R1275D
953.527	1.064	874025	WORD_OFF	n/a	n/a	PEA	6	3	[0, 0, 0]	n/a	FR1	0	R1275D
954.591	1.62	875089	WORD	n/a	n/a	CAVE	7	3	[0, 0, 0]	n/a	FR1	0	R1275D
956.211	1.039	876709	WORD_OFF	n/a	n/a	CAVE	7	3	[0, 0, 0]	n/a	FR1	0	R1275D
957.25	1.628	877748	WORD	n/a	n/a	INK	8	3	[0, 0, 0]	n/a	FR1	0	R1275D
958.878	1.067	879376	WORD_OFF	n/a	n/a	INK	8	3	[0, 0, 0]	n/a	FR1	0	R1275D
959.945	1.633	880443	WORD	n/a	n/a	BAG	9	3	[0, 0, 0]	n/a	FR1	0	R1275D
961.578	1.112	882076	WORD_OFF	n/a	n/a	BAG	9	3	[0, 0, 0]	n/a	FR1	0	R1275D
962.69	1.606	883188	WORD	n/a	n/a	RUG	10	3	[0, 0, 0]	n/a	FR1	0	R1275D
964.296	0.8	884794	WORD_OFF	n/a	n/a	RUG	10	3	[0, 0, 0]	n/a	FR1	0	R1275D
965.096	1.633	885593	WORD	n/a	n/a	JUDGE	11	3	[0, 0, 0]	n/a	FR1	0	R1275D
966.729	0.831	887226	WORD_OFF	n/a	n/a	JUDGE	11	3	[0, 0, 0]	n/a	FR1	0	R1275D
967.56	1.637	888057	WORD	n/a	n/a	SLEEVE	12	3	[0, 0, 0]	n/a	FR1	0	R1275D
969.197	0.001	889694	WORD_OFF	n/a	n/a	SLEEVE	12	3	[0, 0, 0]	n/a	FR1	0	R1275D
969.198	0.0	889695	ENCODING_END	n/a	n/a	n/a	-999	3	[0, 0, 0]	n/a	FR1	0	R1275D
969.198	0.0	889695	DISTRACT_START	n/a	n/a	n/a	-999	3	[0, 0, 0]	n/a	FR1	0	R1275D
969.198	0.016	889695	START	n/a	n/a	n/a	-999	3	[-999, -999, -999]	n/a	FR1	0	R1275D
969.214	9.068	889711	PROB	9.068	n/a	n/a	-999	3	[7, 8, 8]	23	FR1	0	R1275D
978.282	8.484	898779	PROB	8.484	n/a	n/a	-999	3	[1, 1, 7]	9	FR1	0	R1275D
986.766	15.364	907263	PROB	15.364	n/a	n/a	-999	3	[3, 6, 5]	14	FR1	0	R1275D
1002.13	0.005	922626	STOP	n/a	n/a	n/a	-999	3	[-999, -999, -999]	n/a	FR1	0	R1275D
1002.135	0.525	922631	DISTRACT_END	n/a	n/a	n/a	-999	3	[0, 0, 0]	n/a	FR1	0	R1275D
1002.66	1.594	923156	RETRIEVAL_ORIENT_START	n/a	n/a	n/a	-999	3	[0, 0, 0]	n/a	FR1	0	R1275D
1004.254	0.0	924750	RETRIEVAL_ORIENT_END	n/a	n/a	n/a	-999	3	[0, 0, 0]	n/a	FR1	0	R1275D
1004.254	1.156	924750	REC_START	n/a	n/a	n/a	-999	3	[0, 0, 0]	n/a	FR1	0	R1275D
1005.41	1.154	925906	REC_WORD	1.154	n/a	INK	8	3	[0, 0, 0]	n/a	FR1	0	R1275D
1006.564	13.517	927060	REC_WORD	13.517	n/a	CLOUD	-999	3	[0, 0, 0]	n/a	FR1	0	R1275D
1020.081	2.754	940576	REC_WORD_VV	2.754	n/a	<>	-999	3	[0, 0, 0]	n/a	FR1	0	R1275D
1022.835	5.603	943330	REC_WORD_VV	5.603	n/a	<>	-999	3	[0, 0, 0]	n/a	FR1	0	R1275D
1028.438	3.072	948933	REC_WORD_VV	3.072	n/a	<>	-999	3	[0, 0, 0]	n/a	FR1	0	R1275D
1031.51	2.757	952005	REC_WORD	2.757	n/a	KEY	-999	3	[0, 0, 0]	n/a	FR1	0	R1275D
1034.267	0.0	954761	REC_END	n/a	n/a	n/a	-999	3	[0, 0, 0]	n/a	FR1	0	R1275D
1034.267	0.016	954761	TRIAL_END	n/a	n/a	n/a	-999	3	[0, 0, 0]	n/a	FR1	0	R1275D
1034.283	0.0	954777	TRIAL_START	n/a	n/a	n/a	-999	4	[0, 0, 0]	n/a	FR1	0	R1275D
1034.283	0.0	954777	TRIAL	n/a	n/a	n/a	-999	4	[0, 0, 0]	n/a	FR1	0	R1275D
1034.283	2.809	954777	WAITING_START	n/a	n/a	n/a	-999	4	[0, 0, 0]	n/a	FR1	0	R1275D
1037.092	0.0	957586	WAITING_END	n/a	n/a	n/a	-999	4	[0, 0, 0]	n/a	FR1	0	R1275D
1037.092	10.429	957586	COUNTDOWN_START	n/a	n/a	n/a	-999	4	[0, 0, 0]	n/a	FR1	0	R1275D
1047.521	0.001	968015	COUNTDOWN_END	n/a	n/a	n/a	-999	4	[0, 0, 0]	n/a	FR1	0	R1275D
1047.522	1.105	968016	ORIENT_START	n/a	n/a	n/a	-999	4	[0, 0, 0]	n/a	FR1	0	R1275D
1048.627	0.001	969121	ORIENT_END	n/a	n/a	n/a	-999	4	[0, 0, 0]	n/a	FR1	0	R1275D
1048.628	1.01	969122	ENCODING_START	n/a	n/a	n/a	-999	4	[0, 0, 0]	n/a	FR1	0	R1275D
1049.638	1.607	970132	WORD	n/a	n/a	FLAG	1	4	[0, 0, 0]	n/a	FR1	0	R1275D
1051.245	0.78	971739	WORD_OFF	n/a	n/a	FLAG	1	4	[0, 0, 0]	n/a	FR1	0	R1275D
1052.025	1.637	972519	WORD	n/a	n/a	CHEEK	2	4	[0, 0, 0]	n/a	FR1	0	R1275D
1053.662	0.861	974156	WORD_OFF	n/a	n/a	CHEEK	2	4	[0, 0, 0]	n/a	FR1	0	R1275D
1054.523	1.623	975017	WORD	n/a	n/a	DEER	3	4	[0, 0, 0]	n/a	FR1	0	R1275D
1056.146	0.812	976639	WORD_OFF	n/a	n/a	DEER	3	4	[0, 0, 0]	n/a	FR1	0	R1275D
1056.958	1.638	977451	WORD	n/a	n/a	STAIR	4	4	[0, 0, 0]	n/a	FR1	0	R1275D
1058.596	0.959	979089	WORD_OFF	n/a	n/a	STAIR	4	4	[0, 0, 0]	n/a	FR1	0	R1275D
1059.555	1.626	980048	WORD	n/a	n/a	ROPE	5	4	[0, 0, 0]	n/a	FR1	0	R1275D
1061.181	1.023	981674	WORD_OFF	n/a	n/a	ROPE	5	4	[0, 0, 0]	n/a	FR1	0	R1275D
1062.204	1.626	982697	WORD	n/a	n/a	BRUSH	6	4	[0, 0, 0]	n/a	FR1	0	R1275D
1063.83	0.933	984323	WORD_OFF	n/a	n/a	BRUSH	6	4	[0, 0, 0]	n/a	FR1	0	R1275D
1064.763	1.635	985256	WORD	n/a	n/a	BAT	7	4	[0, 0, 0]	n/a	FR1	0	R1275D
1066.398	1.096	986891	WORD_OFF	n/a	n/a	BAT	7	4	[0, 0, 0]	n/a	FR1	0	R1275D
1067.494	1.637	987987	WORD	n/a	n/a	ROOF	8	4	[0, 0, 0]	n/a	FR1	0	R1275D
1069.131	0.995	989624	WORD_OFF	n/a	n/a	ROOF	8	4	[0, 0, 0]	n/a	FR1	0	R1275D
1070.126	1.622	990619	WORD	n/a	n/a	TEA	9	4	[0, 0, 0]	n/a	FR1	0	R1275D
1071.748	0.999	992241	WORD_OFF	n/a	n/a	TEA	9	4	[0, 0, 0]	n/a	FR1	0	R1275D
1072.747	1.636	993240	WORD	n/a	n/a	CLAY	10	4	[0, 0, 0]	n/a	FR1	0	R1275D
1074.383	0.989	994876	WORD_OFF	n/a	n/a	CLAY	10	4	[0, 0, 0]	n/a	FR1	0	R1275D
1075.372	1.627	995865	WORD	n/a	n/a	LOCK	11	4	[0, 0, 0]	n/a	FR1	0	R1275D
1076.999	0.811	997492	WORD_OFF	n/a	n/a	LOCK	11	4	[0, 0, 0]	n/a	FR1	0	R1275D
1077.81	1.624	998302	WORD	n/a	n/a	MAT	12	4	[0, 0, 0]	n/a	FR1	0	R1275D
1079.434	0.001	999926	WORD_OFF	n/a	n/a	MAT	12	4	[0, 0, 0]	n/a	FR1	0	R1275D
1079.435	0.0	999927	ENCODING_END	n/a	n/a	n/a	-999	4	[0, 0, 0]	n/a	FR1	0	R1275D
1079.435	0.0	999927	DISTRACT_START	n/a	n/a	n/a	-999	4	[0, 0, 0]	n/a	FR1	0	R1275D
1079.435	0.015	999927	START	n/a	n/a	n/a	-999	4	[-999, -999, -999]	n/a	FR1	0	R1275D
1079.45	7.151	999942	PROB	7.151	n/a	n/a	-999	4	[1, 2, 2]	5	FR1	0	R1275D
1086.601	5.802	1007093	PROB	5.802	n/a	n/a	-999	4	[4, 4, 1]	8	FR1	0	R1275D
1092.403	17.669	1012895	PROB	17.669	n/a	n/a	-999	4	[5, 9, 5]	19	FR1	0	R1275D
1110.072	0.017	1030563	STOP	n/a	n/a	n/a	-999	4	[-999, -999, -999]	n/a	FR1	0	R1275D
1110.089	0.593	1030580	DISTRACT_END	n/a	n/a	n/a	-999	4	[0, 0, 0]	n/a	FR1	0	R1275D
1110.682	1.675	1031173	RETRIEVAL_ORIENT_START	n/a	n/a	n/a	-999	4	[0, 0, 0]	n/a	FR1	0	R1275D
1112.357	0.0	1032848	RETRIEVAL_ORIENT_END	n/a	n/a	n/a	-999	4	[0, 0, 0]	n/a	FR1	0	R1275D
1112.357	2.012	1032848	REC_START	n/a	n/a	n/a	-999	4	[0, 0, 0]	n/a	FR1	0	R1275D
1114.369	2.535	1034860	REC_WORD	2.535	n/a	BRUSH	6	4	[0, 0, 0]	n/a	FR1	0	R1275D
1116.904	10.372	1037395	REC_WORD	10.372	n/a	CHEEK	2	4	[0, 0, 0]	n/a	FR1	0	R1275D
1127.276	0.855	1047766	REC_WORD	0.855	n/a	CHEEK	2	4	[0, 0, 0]	n/a	FR1	0	R1275D
1128.131	6.209	1048621	REC_WORD	6.209	n/a	KEY	-999	4	[0, 0, 0]	n/a	FR1	0	R1275D
1134.34	5.808	1054830	REC_WORD_VV	5.808	n/a	<>	-999	4	[0, 0, 0]	n/a	FR1	0	R1275D
1140.148	0.819	1060638	REC_WORD_VV	0.819	n/a	<>	-999	4	[0, 0, 0]	n/a	FR1	0	R1275D
1140.967	1.403	1061457	REC_WORD	1.403	n/a	KEY	-999	4	[0, 0, 0]	n/a	FR1	0	R1275D
1142.37	0.0	1062860	REC_END	n/a	n/a	n/a	-999	4	[0, 0, 0]	n/a	FR1	0	R1275D
1142.37	0.015	1062860	TRIAL_END	n/a	n/a	n/a	-999	4	[0, 0, 0]	n/a	FR1	0	R1275D
1142.385	0.001	1062875	TRIAL_START	n/a	n/a	n/a	-999	5	[0, 0, 0]	n/a	FR1	0	R1275D
1142.386	0.0	1062876	TRIAL	n/a	n/a	n/a	-999	5	[0, 0, 0]	n/a	FR1	0	R1275D
1142.386	2.409	1062876	WAITING_START	n/a	n/a	n/a	-999	5	[0, 0, 0]	n/a	FR1	0	R1275D
1144.795	0.001	1065285	WAITING_END	n/a	n/a	n/a	-999	5	[0, 0, 0]	n/a	FR1	0	R1275D
1144.796	10.429	1065286	COUNTDOWN_START	n/a	n/a	n/a	-999	5	[0, 0, 0]	n/a	FR1	0	R1275D
1155.225	0.0	1075714	COUNTDOWN_END	n/a	n/a	n/a	-999	5	[0, 0, 0]	n/a	FR1	0	R1275D
1155.225	1.023	1075714	ORIENT_START	n/a	n/a	n/a	-999	5	[0, 0, 0]	n/a	FR1	0	R1275D
1156.248	0.001	1076737	ORIENT_END	n/a	n/a	n/a	-999	5	[0, 0, 0]	n/a	FR1	0	R1275D
1156.249	1.105	1076738	ENCODING_START	n/a	n/a	n/a	-999	5	[0, 0, 0]	n/a	FR1	0	R1275D
1157.354	1.627	1077843	WORD	n/a	n/a	CALF	1	5	[0, 0, 0]	n/a	FR1	0	R1275D
1158.981	1.11	1079470	WORD_OFF	n/a	n/a	CALF	1	5	[0, 0, 0]	n/a	FR1	0	R1275D
1160.091	1.624	1080580	WORD	n/a	n/a	WHEEL	2	5	[0, 0, 0]	n/a	FR1	0	R1275D
1161.715	0.777	1082204	WORD_OFF	n/a	n/a	WHEEL	2	5	[0, 0, 0]	n/a	FR1	0	R1275D
1162.492	1.623	1082981	WORD	n/a	n/a	SHOE	3	5	[0, 0, 0]	n/a	FR1	0	R1275D
1164.115	0.777	1084604	WORD_OFF	n/a	n/a	SHOE	3	5	[0, 0, 0]	n/a	FR1	0	R1275D
1164.892	1.624	1085381	WORD	n/a	n/a	PRINCE	4	5	[0, 0, 0]	n/a	FR1	0	R1275D
1166.516	1.136	1087005	WORD_OFF	n/a	n/a	PRINCE	4	5	[0, 0, 0]	n/a	FR1	0	R1275D
1167.652	1.632	1088141	WORD	n/a	n/a	GLASS	5	5	[0, 0, 0]	n/a	FR1	0	R1275D
1169.284	0.81	1089772	WORD_OFF	n/a	n/a	GLASS	5	5	[0, 0, 0]	n/a	FR1	0	R1275D
1170.094	1.623	1090582	WORD	n/a	n/a	FILM	6	5	[0, 0, 0]	n/a	FR1	0	R1275D
1171.717	0.96	1092205	WORD_OFF	n/a	n/a	FILM	6	5	[0, 0, 0]	n/a	FR1	0	R1275D
1172.677	1.624	1093165	WORD	n/a	n/a	GRAPE	7	5	[0, 0, 0]	n/a	FR1	0	R1275D
1174.301	0.915	1094789	WORD_OFF	n/a	n/a	GRAPE	7	5	[0, 0, 0]	n/a	FR1	0	R1275D
1175.216	1.635	1095704	WORD	n/a	n/a	MULE	8	5	[0, 0, 0]	n/a	FR1	0	R1275D
1176.851	0.795	1097339	WORD_OFF	n/a	n/a	MULE	8	5	[0, 0, 0]	n/a	FR1	0	R1275D
1177.646	1.623	1098134	WORD	n/a	n/a	COUCH	9	5	[0, 0, 0]	n/a	FR1	0	R1275D
1179.269	0.806	1099757	WORD_OFF	n/a	n/a	COUCH	9	5	[0, 0, 0]	n/a	FR1	0	R1275D
1180.075	1.627	1100563	WORD	n/a	n/a	STORM	10	5	[0, 0, 0]	n/a	FR1	0	R1275D
1181.702	0.754	1102190	WORD_OFF	n/a	n/a	STORM	10	5	[0, 0, 0]	n/a	FR1	0	R1275D
1182.456	1.63	1102944	WORD	n/a	n/a	WOLF	11	5	[0, 0, 0]	n/a	FR1	0	R1275D
1184.086	0.927	1104574	WORD_OFF	n/a	n/a	WOLF	11	5	[0, 0, 0]	n/a	FR1	0	R1275D
1185.013	1.623	1105501	WORD	n/a	n/a	SNOW	12	5	[0, 0, 0]	n/a	FR1	0	R1275D
1186.636	0.001	1107124	WORD_OFF	n/a	n/a	SNOW	12	5	[0, 0, 0]	n/a	FR1	0	R1275D
1186.637	0.0	1107125	ENCODING_END	n/a	n/a	n/a	-999	5	[0, 0, 0]	n/a	FR1	0	R1275D
1186.637	0.0	1107125	DISTRACT_START	n/a	n/a	n/a	-999	5	[0, 0, 0]	n/a	FR1	0	R1275D
1186.637	0.016	1107125	START	n/a	n/a	n/a	-999	5	[-999, -999, -999]	n/a	FR1	0	R1275D
1186.653	8.752	1107141	PROB	8.752	n/a	n/a	-999	5	[7, 8, 3]	18	FR1	0	R1275D
1195.405	7.667	1115892	PROB	7.667	n/a	n/a	-999	5	[9, 4, 8]	21	FR1	0	R1275D
1203.072	9.287	1123559	PROB	9.287	n/a	n/a	-999	5	[2, 6, 7]	15	FR1	0	R1275D
1212.359	0.016	1132846	STOP	n/a	n/a	n/a	-999	5	[-999, -999, -999]	n/a	FR1	0	R1275D
1212.375	0.697	1132862	DISTRACT_END	n/a	n/a	n/a	-999	5	[0, 0, 0]	n/a	FR1	0	R1275D
1213.072	1.536	1133558	RETRIEVAL_ORIENT_START	n/a	n/a	n/a	-999	5	[0, 0, 0]	n/a	FR1	0	R1275D
1214.608	0.0	1135094	REC_START	n/a	n/a	n/a	-999	5	[0, 0, 0]	n/a	FR1	0	R1275D
1214.608	5.349	1135094	RETRIEVAL_ORIENT_END	n/a	n/a	n/a	-999	5	[0, 0, 0]	n/a	FR1	0	R1275D
1219.957	2.187	1140443	REC_WORD	2.187	n/a	CALF	1	5	[0, 0, 0]	n/a	FR1	0	R1275D
1222.144	4.62	1142630	REC_WORD	4.62	n/a	HERD	-999	5	[0, 0, 0]	n/a	FR1	0	R1275D
1226.764	3.895	1147250	REC_WORD_VV	3.895	n/a	<>	-999	5	[0, 0, 0]	n/a	FR1	0	R1275D
1230.659	2.53	1151145	REC_WORD_VV	2.53	n/a	<>	-999	5	[0, 0, 0]	n/a	FR1	0	R1275D
1233.189	6.883	1153675	REC_WORD	6.883	n/a	HERD	-999	5	[0, 0, 0]	n/a	FR1	0	R1275D
1240.072	4.551	1160557	REC_WORD_VV	4.551	n/a	<>	-999	5	[0, 0, 0]	n/a	FR1	0	R1275D
1244.623	0.0	1165108	REC_END	n/a	n/a	n/a	-999	5	[0, 0, 0]	n/a	FR1	0	R1275D
1244.623	0.015	1165108	TRIAL_END	n/a	n/a	n/a	-999	5	[0, 0, 0]	n/a	FR1	0	R1275D
1244.638	0.001	1165123	TRIAL_START	n/a	n/a	n/a	-999	6	[0, 0, 0]	n/a	FR1	0	R1275D
1244.639	0.0	1165124	TRIAL	n/a	n/a	n/a	-999	6	[0, 0, 0]	n/a	FR1	0	R1275D
1244.639	2.726	1165124	WAITING_START	n/a	n/a	n/a	-999	6	[0, 0, 0]	n/a	FR1	0	R1275D
1247.365	0.0	1167850	WAITING_END	n/a	n/a	n/a	-999	6	[0, 0, 0]	n/a	FR1	0	R1275D
1247.365	10.428	1167850	COUNTDOWN_START	n/a	n/a	n/a	-999	6	[0, 0, 0]	n/a	FR1	0	R1275D
1257.793	0.001	1178278	COUNTDOWN_END	n/a	n/a	n/a	-999	6	[0, 0, 0]	n/a	FR1	0	R1275D
1257.794	1.055	1178279	ORIENT_START	n/a	n/a	n/a	-999	6	[0, 0, 0]	n/a	FR1	0	R1275D
1258.849	0.001	1179333	ORIENT_END	n/a	n/a	n/a	-999	6	[0, 0, 0]	n/a	FR1	0	R1275D
1258.85	0.922	1179334	ENCODING_START	n/a	n/a	n/a	-999	6	[0, 0, 0]	n/a	FR1	0	R1275D
1259.772	1.612	1180256	WORD	n/a	n/a	HORN	1	6	[0, 0, 0]	n/a	FR1	0	R1275D
1261.384	1.144	1181868	WORD_OFF	n/a	n/a	HORN	1	6	[0, 0, 0]	n/a	FR1	0	R1275D
1262.528	1.639	1183012	WORD	n/a	n/a	SCHOOL	2	6	[0, 0, 0]	n/a	FR1	0	R1275D
1264.167	0.999	1184651	WORD_OFF	n/a	n/a	SCHOOL	2	6	[0, 0, 0]	n/a	FR1	0	R1275D
1265.166	1.635	1185650	WORD	n/a	n/a	CANE	3	6	[0, 0, 0]	n/a	FR1	0	R1275D
1266.801	0.854	1187285	WORD_OFF	n/a	n/a	CANE	3	6	[0, 0, 0]	n/a	FR1	0	R1275D
1267.655	1.63	1188139	WORD	n/a	n/a	FLOOR	4	6	[0, 0, 0]	n/a	FR1	0	R1275D
1269.285	0.754	1189769	WORD_OFF	n/a	n/a	FLOOR	4	6	[0, 0, 0]	n/a	FR1	0	R1275D
1270.039	1.629	1190523	WORD	n/a	n/a	SKUNK	5	6	[0, 0, 0]	n/a	FR1	0	R1275D
1271.668	1.009	1192152	WORD_OFF	n/a	n/a	SKUNK	5	6	[0, 0, 0]	n/a	FR1	0	R1275D
1272.677	1.626	1193161	WORD	n/a	n/a	CLOCK	6	6	[0, 0, 0]	n/a	FR1	0	R1275D
1274.303	1.071	1194787	WORD_OFF	n/a	n/a	CLOCK	6	6	[0, 0, 0]	n/a	FR1	0	R1275D
1275.374	1.629	1195858	WORD	n/a	n/a	TRAY	7	6	[0, 0, 0]	n/a	FR1	0	R1275D
1277.003	0.997	1197487	WORD_OFF	n/a	n/a	TRAY	7	6	[0, 0, 0]	n/a	FR1	0	R1275D
1278.0	1.637	1198484	WORD	n/a	n/a	CHAIR	8	6	[0, 0, 0]	n/a	FR1	0	R1275D
1279.637	0.979	1200121	WORD_OFF	n/a	n/a	CHAIR	8	6	[0, 0, 0]	n/a	FR1	0	R1275D
1280.616	1.622	1201099	WORD	n/a	n/a	HEART	9	6	[0, 0, 0]	n/a	FR1	0	R1275D
1282.238	0.979	1202721	WORD_OFF	n/a	n/a	HEART	9	6	[0, 0, 0]	n/a	FR1	0	R1275D
1283.217	1.62	1203700	WORD	n/a	n/a	PARK	10	6	[0, 0, 0]	n/a	FR1	0	R1275D
1284.837	0.777	1205320	WORD_OFF	n/a	n/a	PARK	10	6	[0, 0, 0]	n/a	FR1	0	R1275D
1285.614	1.625	1206097	WORD	n/a	n/a	YARD	11	6	[0, 0, 0]	n/a	FR1	0	R1275D
1287.239	0.966	1207722	WORD_OFF	n/a	n/a	YARD	11	6	[0, 0, 0]	n/a	FR1	0	R1275D
1288.205	1.633	1208688	WORD	n/a	n/a	TOAST	12	6	[0, 0, 0]	n/a	FR1	0	R1275D
1289.838	0.001	1210321	WORD_OFF	n/a	n/a	TOAST	12	6	[0, 0, 0]	n/a	FR1	0	R1275D
1289.839	0.0	1210322	DISTRACT_START	n/a	n/a	n/a	-999	6	[0, 0, 0]	n/a	FR1	0	R1275D
1289.839	0.0	1210322	ENCODING_END	n/a	n/a	n/a	-999	6	[0, 0, 0]	n/a	FR1	0	R1275D
1289.839	0.016	1210322	START	n/a	n/a	n/a	-999	6	[-999, -999, -999]	n/a	FR1	0	R1275D
1289.855	6.519	1210338	PROB	6.519	n/a	n/a	-999	6	[3, 6, 2]	11	FR1	0	R1275D
1296.374	13.468	1216857	PROB	13.468	n/a	n/a	-999	6	[7, 8, 9]	24	FR1	0	R1275D
1309.842	0.017	1230324	STOP	n/a	n/a	n/a	-999	6	[-999, -999, -999]	n/a	FR1	0	R1275D
1309.859	0.52	1230341	DISTRACT_END	n/a	n/a	n/a	-999	6	[0, 0, 0]	n/a	FR1	0	R1275D
1310.379	1.663	1230861	RETRIEVAL_ORIENT_START	n/a	n/a	n/a	-999	6	[0, 0, 0]	n/a	FR1	0	R1275D
1312.042	0.001	1232524	RETRIEVAL_ORIENT_END	n/a	n/a	n/a	-999	6	[0, 0, 0]	n/a	FR1	0	R1275D
1312.043	0.955	1232525	REC_START	n/a	n/a	n/a	-999	6	[0, 0, 0]	n/a	FR1	0	R1275D
1312.998	5.814	1233480	REC_WORD	5.814	n/a	PARK	10	6	[0, 0, 0]	n/a	FR1	0	R1275D
1318.812	6.124	1239294	REC_WORD	6.124	n/a	YARD	11	6	[0, 0, 0]	n/a	FR1	0	R1275D
1324.936	7.306	1245418	REC_WORD	7.306	n/a	TOAST	12	6	[0, 0, 0]	n/a	FR1	0	R1275D
1332.242	9.814	1252723	REC_WORD	9.814	n/a	CURB	-999	6	[0, 0, 0]	n/a	FR1	0	R1275D
1342.056	0.001	1262537	REC_END	n/a	n/a	n/a	-999	6	[0, 0, 0]	n/a	FR1	0	R1275D
1342.057	0.015	1262538	TRIAL_END	n/a	n/a	n/a	-999	6	[0, 0, 0]	n/a	FR1	0	R1275D
1342.072	0.001	1262553	TRIAL_START	n/a	n/a	n/a	-999	7	[0, 0, 0]	n/a	FR1	0	R1275D
1342.073	0.0	1262554	WAITING_START	n/a	n/a	n/a	-999	7	[0, 0, 0]	n/a	FR1	0	R1275D
1342.073	2.375	1262554	TRIAL	n/a	n/a	n/a	-999	7	[0, 0, 0]	n/a	FR1	0	R1275D
1344.448	0.001	1264929	WAITING_END	n/a	n/a	n/a	-999	7	[0, 0, 0]	n/a	FR1	0	R1275D
1344.449	10.428	1264930	COUNTDOWN_START	n/a	n/a	n/a	-999	7	[0, 0, 0]	n/a	FR1	0	R1275D
1354.877	0.001	1275357	COUNTDOWN_END	n/a	n/a	n/a	-999	7	[0, 0, 0]	n/a	FR1	0	R1275D
1354.878	1.239	1275358	ORIENT_START	n/a	n/a	n/a	-999	7	[0, 0, 0]	n/a	FR1	0	R1275D
1356.117	0.001	1276597	ORIENT_END	n/a	n/a	n/a	-999	7	[0, 0, 0]	n/a	FR1	0	R1275D
1356.118	1.075	1276598	ENCODING_START	n/a	n/a	n/a	-999	7	[0, 0, 0]	n/a	FR1	0	R1275D
1357.193	1.625	1277673	WORD	n/a	n/a	SNAKE	1	7	[0, 0, 0]	n/a	FR1	0	R1275D
1358.818	0.897	1279298	WORD_OFF	n/a	n/a	SNAKE	1	7	[0, 0, 0]	n/a	FR1	0	R1275D
1359.715	1.621	1280195	WORD	n/a	n/a	VINE	2	7	[0, 0, 0]	n/a	FR1	0	R1275D
1361.336	1.128	1281816	WORD_OFF	n/a	n/a	VINE	2	7	[0, 0, 0]	n/a	FR1	0	R1275D
1362.464	1.621	1282944	WORD	n/a	n/a	BEE	3	7	[0, 0, 0]	n/a	FR1	0	R1275D
1364.085	1.108	1284565	WORD_OFF	n/a	n/a	BEE	3	7	[0, 0, 0]	n/a	FR1	0	R1275D
1365.193	1.626	1285673	WORD	n/a	n/a	SEAL	4	7	[0, 0, 0]	n/a	FR1	0	R1275D
1366.819	1.047	1287299	WORD_OFF	n/a	n/a	SEAL	4	7	[0, 0, 0]	n/a	FR1	0	R1275D
1367.866	1.637	1288346	WORD	n/a	n/a	CART	5	7	[0, 0, 0]	n/a	FR1	0	R1275D
1369.503	1.015	1289983	WORD_OFF	n/a	n/a	CART	5	7	[0, 0, 0]	n/a	FR1	0	R1275D
1370.518	1.635	1290998	WORD	n/a	n/a	SNAIL	6	7	[0, 0, 0]	n/a	FR1	0	R1275D
1372.153	0.791	1292632	WORD_OFF	n/a	n/a	SNAIL	6	7	[0, 0, 0]	n/a	FR1	0	R1275D
1372.944	1.626	1293423	WORD	n/a	n/a	SINK	7	7	[0, 0, 0]	n/a	FR1	0	R1275D
1374.57	1.113	1295049	WORD_OFF	n/a	n/a	SINK	7	7	[0, 0, 0]	n/a	FR1	0	R1275D
1375.683	1.605	1296162	WORD	n/a	n/a	STEAK	8	7	[0, 0, 0]	n/a	FR1	0	R1275D
1377.288	0.891	1297767	WORD_OFF	n/a	n/a	STEAK	8	7	[0, 0, 0]	n/a	FR1	0	R1275D
1378.179	1.626	1298658	WORD	n/a	n/a	EAR	9	7	[0, 0, 0]	n/a	FR1	0	R1275D
1379.805	0.861	1300284	WORD_OFF	n/a	n/a	EAR	9	7	[0, 0, 0]	n/a	FR1	0	R1275D
1380.666	1.623	1301145	WORD	n/a	n/a	PIN	10	7	[0, 0, 0]	n/a	FR1	0	R1275D
1382.289	1.102	1302768	WORD_OFF	n/a	n/a	PIN	10	7	[0, 0, 0]	n/a	FR1	0	R1275D
1383.391	1.631	1303870	WORD	n/a	n/a	WHALE	11	7	[0, 0, 0]	n/a	FR1	0	R1275D
1385.022	0.771	1305501	WORD_OFF	n/a	n/a	WHALE	11	7	[0, 0, 0]	n/a	FR1	0	R1275D
1385.793	1.631	1306272	WORD	n/a	n/a	FOG	12	7	[0, 0, 0]	n/a	FR1	0	R1275D
1387.424	0.0	1307903	DISTRACT_START	n/a	n/a	n/a	-999	7	[0, 0, 0]	n/a	FR1	0	R1275D
1387.424	0.0	1307903	ENCODING_END	n/a	n/a	n/a	-999	7	[0, 0, 0]	n/a	FR1	0	R1275D
1387.424	0.001	1307903	WORD_OFF	n/a	n/a	FOG	12	7	[0, 0, 0]	n/a	FR1	0	R1275D
1387.425	0.015	1307904	START	n/a	n/a	n/a	-999	7	[-999, -999, -999]	n/a	FR1	0	R1275D
1387.44	17.77	1307919	PROB	17.77	n/a	n/a	-999	7	[5, 7, 4]	16	FR1	0	R1275D
1405.21	7.855	1325688	PROB	7.855	n/a	n/a	-999	7	[6, 5, 3]	18	FR1	0	R1275D
1413.065	0.012	1333543	STOP	n/a	n/a	n/a	-999	7	[-999, -999, -999]	n/a	FR1	0	R1275D
1413.077	0.511	1333555	DISTRACT_END	n/a	n/a	n/a	-999	7	[0, 0, 0]	n/a	FR1	0	R1275D
1413.588	1.624	1334066	RETRIEVAL_ORIENT_START	n/a	n/a	n/a	-999	7	[0, 0, 0]	n/a	FR1	0	R1275D
1415.212	0.001	1335690	RETRIEVAL_ORIENT_END	n/a	n/a	n/a	-999	7	[0, 0, 0]	n/a	FR1	0	R1275D
1415.213	1.727	1335691	REC_START	n/a	n/a	n/a	-999	7	[0, 0, 0]	n/a	FR1	0	R1275D
1416.94	1.306	1337417	REC_WORD	1.306	n/a	FOG	12	7	[0, 0, 0]	n/a	FR1	0	R1275D
1418.246	6.044	1338723	REC_WORD	6.044	n/a	SNAIL	6	7	[0, 0, 0]	n/a	FR1	0	R1275D
1424.29	12.675	1344767	REC_WORD	12.675	n/a	PIN	10	7	[0, 0, 0]	n/a	FR1	0	R1275D
1436.965	5.341	1357442	REC_WORD	5.341	n/a	WHALE	11	7	[0, 0, 0]	n/a	FR1	0	R1275D
1442.306	2.919	1362782	REC_WORD	2.919	n/a	SNAKE	1	7	[0, 0, 0]	n/a	FR1	0	R1275D
1445.225	0.0	1365701	REC_END	n/a	n/a	n/a	-999	7	[0, 0, 0]	n/a	FR1	0	R1275D
1445.225	0.014	1365701	TRIAL_END	n/a	n/a	n/a	-999	7	[0, 0, 0]	n/a	FR1	0	R1275D
1445.239	0.001	1365715	TRIAL_START	n/a	n/a	n/a	-999	8	[0, 0, 0]	n/a	FR1	0	R1275D
1445.24	0.0	1365716	WAITING_START	n/a	n/a	n/a	-999	8	[0, 0, 0]	n/a	FR1	0	R1275D
1445.24	1.844	1365716	TRIAL	n/a	n/a	n/a	-999	8	[0, 0, 0]	n/a	FR1	0	R1275D
1447.084	0.0	1367560	WAITING_END	n/a	n/a	n/a	-999	8	[0, 0, 0]	n/a	FR1	0	R1275D
1447.084	10.429	1367560	COUNTDOWN_START	n/a	n/a	n/a	-999	8	[0, 0, 0]	n/a	FR1	0	R1275D
1457.513	0.0	1377989	COUNTDOWN_END	n/a	n/a	n/a	-999	8	[0, 0, 0]	n/a	FR1	0	R1275D
1457.513	1.256	1377989	ORIENT_START	n/a	n/a	n/a	-999	8	[0, 0, 0]	n/a	FR1	0	R1275D
1458.769	0.001	1379245	ORIENT_END	n/a	n/a	n/a	-999	8	[0, 0, 0]	n/a	FR1	0	R1275D
1458.77	0.87	1379246	ENCODING_START	n/a	n/a	n/a	-999	8	[0, 0, 0]	n/a	FR1	0	R1275D
1459.64	1.63	1380116	WORD	n/a	n/a	PANTS	1	8	[0, 0, 0]	n/a	FR1	0	R1275D
1461.27	0.905	1381746	WORD_OFF	n/a	n/a	PANTS	1	8	[0, 0, 0]	n/a	FR1	0	R1275D
1462.175	1.628	1382650	WORD	n/a	n/a	MAZE	2	8	[0, 0, 0]	n/a	FR1	0	R1275D
1463.803	0.958	1384278	WORD_OFF	n/a	n/a	MAZE	2	8	[0, 0, 0]	n/a	FR1	0	R1275D
1464.761	1.611	1385236	WORD	n/a	n/a	GOLD	3	8	[0, 0, 0]	n/a	FR1	0	R1275D
1466.372	0.822	1386847	WORD_OFF	n/a	n/a	GOLD	3	8	[0, 0, 0]	n/a	FR1	0	R1275D
1467.194	1.627	1387669	WORD	n/a	n/a	FORT	4	8	[0, 0, 0]	n/a	FR1	0	R1275D
1468.821	0.978	1389296	WORD_OFF	n/a	n/a	FORT	4	8	[0, 0, 0]	n/a	FR1	0	R1275D
1469.799	1.623	1390274	WORD	n/a	n/a	WOOD	5	8	[0, 0, 0]	n/a	FR1	0	R1275D
1471.422	1.072	1391897	WORD_OFF	n/a	n/a	WOOD	5	8	[0, 0, 0]	n/a	FR1	0	R1275D
1472.494	1.628	1392969	WORD	n/a	n/a	PEARL	6	8	[0, 0, 0]	n/a	FR1	0	R1275D
1474.122	0.789	1394597	WORD_OFF	n/a	n/a	PEARL	6	8	[0, 0, 0]	n/a	FR1	0	R1275D
1474.911	1.628	1395386	WORD	n/a	n/a	OAR	7	8	[0, 0, 0]	n/a	FR1	0	R1275D
1476.539	0.909	1397014	WORD_OFF	n/a	n/a	OAR	7	8	[0, 0, 0]	n/a	FR1	0	R1275D
1477.448	1.625	1397923	WORD	n/a	n/a	NOSE	8	8	[0, 0, 0]	n/a	FR1	0	R1275D
1479.073	0.898	1399548	WORD_OFF	n/a	n/a	NOSE	8	8	[0, 0, 0]	n/a	FR1	0	R1275D
1479.971	1.636	1400446	WORD	n/a	n/a	BOOK	9	8	[0, 0, 0]	n/a	FR1	0	R1275D
1481.607	1.048	1402082	WORD_OFF	n/a	n/a	BOOK	9	8	[0, 0, 0]	n/a	FR1	0	R1275D
1482.655	1.636	1403130	WORD	n/a	n/a	CLIFF	10	8	[0, 0, 0]	n/a	FR1	0	R1275D
1484.291	0.987	1404765	WORD_OFF	n/a	n/a	CLIFF	10	8	[0, 0, 0]	n/a	FR1	0	R1275D
1485.278	1.63	1405752	WORD	n/a	n/a	THUMB	11	8	[0, 0, 0]	n/a	FR1	0	R1275D
1486.908	0.972	1407382	WORD_OFF	n/a	n/a	THUMB	11	8	[0, 0, 0]	n/a	FR1	0	R1275D
1487.88	1.628	1408354	WORD	n/a	n/a	BUSH	12	8	[0, 0, 0]	n/a	FR1	0	R1275D
1489.508	0.001	1409982	WORD_OFF	n/a	n/a	BUSH	12	8	[0, 0, 0]	n/a	FR1	0	R1275D
1489.509	0.0	1409983	ENCODING_END	n/a	n/a	n/a	-999	8	[0, 0, 0]	n/a	FR1	0	R1275D
1489.509	0.0	1409983	DISTRACT_START	n/a	n/a	n/a	-999	8	[0, 0, 0]	n/a	FR1	0	R1275D
1489.509	0.015	1409983	START	n/a	n/a	n/a	-999	8	[-999, -999, -999]	n/a	FR1	0	R1275D
1489.524	10.436	1409998	PROB	10.436	n/a	n/a	-999	8	[9, 6, 5]	20	FR1	0	R1275D
1499.96	16.322	1420434	PROB	16.322	n/a	n/a	-999	8	[1, 5, 9]	17	FR1	0	R1275D
1516.282	0.015	1436755	STOP	n/a	n/a	n/a	-999	8	[-999, -999, -999]	n/a	FR1	0	R1275D
1516.297	0.604	1436770	DISTRACT_END	n/a	n/a	n/a	-999	8	[0, 0, 0]	n/a	FR1	0	R1275D
1516.901	1.629	1437374	RETRIEVAL_ORIENT_START	n/a	n/a	n/a	-999	8	[0, 0, 0]	n/a	FR1	0	R1275D
1518.53	0.0	1439003	RETRIEVAL_ORIENT_END	n/a	n/a	n/a	-999	8	[0, 0, 0]	n/a	FR1	0	R1275D
1518.53	4.781	1439003	REC_START	n/a	n/a	n/a	-999	8	[0, 0, 0]	n/a	FR1	0	R1275D
1523.311	15.045	1443784	REC_WORD	15.045	n/a	NOSE	8	8	[0, 0, 0]	n/a	FR1	0	R1275D
1538.356	2.206	1458828	REC_WORD_VV	2.206	n/a	<>	-999	8	[0, 0, 0]	n/a	FR1	0	R1275D
1540.562	7.982	1461034	REC_WORD_VV	7.982	n/a	<>	-999	8	[0, 0, 0]	n/a	FR1	0	R1275D
1548.544	0.0	1469016	REC_END	n/a	n/a	n/a	-999	8	[0, 0, 0]	n/a	FR1	0	R1275D
1548.544	0.017	1469016	TRIAL_END	n/a	n/a	n/a	-999	8	[0, 0, 0]	n/a	FR1	0	R1275D
1548.561	0.0	1469033	WAITING_START	n/a	n/a	n/a	-999	9	[0, 0, 0]	n/a	FR1	0	R1275D
1548.561	0.0	1469033	TRIAL	n/a	n/a	n/a	-999	9	[0, 0, 0]	n/a	FR1	0	R1275D
1548.561	2.392	1469033	TRIAL_START	n/a	n/a	n/a	-999	9	[0, 0, 0]	n/a	FR1	0	R1275D
1550.953	0.0	1471425	WAITING_END	n/a	n/a	n/a	-999	9	[0, 0, 0]	n/a	FR1	0	R1275D
1550.953	10.428	1471425	COUNTDOWN_START	n/a	n/a	n/a	-999	9	[0, 0, 0]	n/a	FR1	0	R1275D
1561.381	0.0	1481852	COUNTDOWN_END	n/a	n/a	n/a	-999	9	[0, 0, 0]	n/a	FR1	0	R1275D
1561.381	1.224	1481852	ORIENT_START	n/a	n/a	n/a	-999	9	[0, 0, 0]	n/a	FR1	0	R1275D
1562.605	0.0	1483076	ORIENT_END	n/a	n/a	n/a	-999	9	[0, 0, 0]	n/a	FR1	0	R1275D
1562.605	0.875	1483076	ENCODING_START	n/a	n/a	n/a	-999	9	[0, 0, 0]	n/a	FR1	0	R1275D
1563.48	1.625	1483951	WORD	n/a	n/a	BENCH	1	9	[0, 0, 0]	n/a	FR1	0	R1275D
1565.105	0.921	1485576	WORD_OFF	n/a	n/a	BENCH	1	9	[0, 0, 0]	n/a	FR1	0	R1275D
1566.026	1.63	1486497	WORD	n/a	n/a	SPRING	2	9	[0, 0, 0]	n/a	FR1	0	R1275D
1567.656	0.87	1488127	WORD_OFF	n/a	n/a	SPRING	2	9	[0, 0, 0]	n/a	FR1	0	R1275D
1568.526	1.63	1488997	WORD	n/a	n/a	PIE	3	9	[0, 0, 0]	n/a	FR1	0	R1275D
1570.156	1.006	1490627	WORD_OFF	n/a	n/a	PIE	3	9	[0, 0, 0]	n/a	FR1	0	R1275D
1571.162	1.628	1491633	WORD	n/a	n/a	PLATE	4	9	[0, 0, 0]	n/a	FR1	0	R1275D
1572.79	0.808	1493261	WORD_OFF	n/a	n/a	PLATE	4	9	[0, 0, 0]	n/a	FR1	0	R1275D
1573.598	1.627	1494069	WORD	n/a	n/a	WAVE	5	9	[0, 0, 0]	n/a	FR1	0	R1275D
1575.225	1.022	1495695	WORD_OFF	n/a	n/a	WAVE	5	9	[0, 0, 0]	n/a	FR1	0	R1275D
1576.247	1.627	1496717	WORD	n/a	n/a	HAWK	6	9	[0, 0, 0]	n/a	FR1	0	R1275D
1577.874	0.903	1498344	WORD_OFF	n/a	n/a	HAWK	6	9	[0, 0, 0]	n/a	FR1	0	R1275D
1578.777	1.615	1499247	WORD	n/a	n/a	CASH	7	9	[0, 0, 0]	n/a	FR1	0	R1275D
1580.392	0.908	1500862	WORD_OFF	n/a	n/a	CASH	7	9	[0, 0, 0]	n/a	FR1	0	R1275D
1581.3	1.625	1501770	WORD	n/a	n/a	STRAW	8	9	[0, 0, 0]	n/a	FR1	0	R1275D
1582.925	0.88	1503395	WORD_OFF	n/a	n/a	STRAW	8	9	[0, 0, 0]	n/a	FR1	0	R1275D
1583.805	1.622	1504275	WORD	n/a	n/a	COW	9	9	[0, 0, 0]	n/a	FR1	0	R1275D
1585.427	0.797	1505897	WORD_OFF	n/a	n/a	COW	9	9	[0, 0, 0]	n/a	FR1	0	R1275D
1586.224	1.635	1506694	WORD	n/a	n/a	SPARK	10	9	[0, 0, 0]	n/a	FR1	0	R1275D
1587.859	0.837	1508329	WORD_OFF	n/a	n/a	SPARK	10	9	[0, 0, 0]	n/a	FR1	0	R1275D
1588.696	1.615	1509166	WORD	n/a	n/a	ROAD	11	9	[0, 0, 0]	n/a	FR1	0	R1275D
1590.311	0.75	1510781	WORD_OFF	n/a	n/a	ROAD	11	9	[0, 0, 0]	n/a	FR1	0	R1275D
1591.061	1.633	1511531	WORD	n/a	n/a	SKI	12	9	[0, 0, 0]	n/a	FR1	0	R1275D
1592.694	0.0	1513164	WORD_OFF	n/a	n/a	SKI	12	9	[0, 0, 0]	n/a	FR1	0	R1275D
1592.694	0.0	1513164	ENCODING_END	n/a	n/a	n/a	-999	9	[0, 0, 0]	n/a	FR1	0	R1275D
1592.694	0.0	1513164	DISTRACT_START	n/a	n/a	n/a	-999	9	[0, 0, 0]	n/a	FR1	0	R1275D
1592.694	0.016	1513164	START	n/a	n/a	n/a	-999	9	[-999, -999, -999]	n/a	FR1	0	R1275D
1592.71	10.935	1513180	PROB	10.935	n/a	n/a	-999	9	[3, 8, 9]	20	FR1	0	R1275D
1603.645	6.686	1524114	PROB	6.686	n/a	n/a	-999	9	[1, 8, 2]	11	FR1	0	R1275D
1610.331	13.159	1530800	PROB	13.159	n/a	n/a	-999	9	[8, 7, 5]	20	FR1	0	R1275D
1623.49	0.009	1543958	STOP	n/a	n/a	n/a	-999	9	[-999, -999, -999]	n/a	FR1	0	R1275D
1623.499	0.622	1543967	DISTRACT_END	n/a	n/a	n/a	-999	9	[0, 0, 0]	n/a	FR1	0	R1275D
1624.121	1.645	1544589	RETRIEVAL_ORIENT_START	n/a	n/a	n/a	-999	9	[0, 0, 0]	n/a	FR1	0	R1275D
1625.766	0.0	1546234	RETRIEVAL_ORIENT_END	n/a	n/a	n/a	-999	9	[0, 0, 0]	n/a	FR1	0	R1275D
1625.766	1.448	1546234	REC_START	n/a	n/a	n/a	-999	9	[0, 0, 0]	n/a	FR1	0	R1275D
1627.214	22.391	1547682	REC_WORD	22.391	n/a	BARK	-999	9	[0, 0, 0]	n/a	FR1	0	R1275D
1649.605	6.174	1570072	REC_WORD_VV	6.174	n/a	<>	-999	9	[0, 0, 0]	n/a	FR1	0	R1275D
1655.779	0.001	1576246	REC_END	n/a	n/a	n/a	-999	9	[0, 0, 0]	n/a	FR1	0	R1275D
1655.78	0.015	1576247	TRIAL_END	n/a	n/a	n/a	-999	9	[0, 0, 0]	n/a	FR1	0	R1275D
1655.795	0.0	1576262	TRIAL_START	n/a	n/a	n/a	-999	10	[0, 0, 0]	n/a	FR1	0	R1275D
1655.795	0.001	1576262	TRIAL	n/a	n/a	n/a	-999	10	[0, 0, 0]	n/a	FR1	0	R1275D
1655.796	0.0	1576263	WAITING_START	n/a	n/a	n/a	-999	10	[0, 0, 0]	n/a	FR1	0	R1275D
